"participant","trial_no","group","time","recalled","word","recall_acc","recall_rt","study_pos","test_pos","image","item_type","id"
"559d9916fdf99b1e2b2dc6b8",1,"older",1,"WOMAN","THING",FALSE,3.51389,2,1,"runner","mis-match",1185
"559d9916fdf99b1e2b2dc6b8",1,"older",2,"?","DIRT",FALSE,1.467705,0,2,"mirror","new-new",1185
"559d9916fdf99b1e2b2dc6b8",1,"older",3,"?","FRIEND",FALSE,3.21867,3,3,"taxi","old-new",1185
"559d9916fdf99b1e2b2dc6b8",1,"older",4,"?","JUNGLE",FALSE,0.881025,1,4,"anchor","match",1185
"559d9916fdf99b1e2b2dc6b8",2,"older",1,"?","ARTIST",FALSE,0.896505,3,1,"gorilla","old-new",1186
"559d9916fdf99b1e2b2dc6b8",2,"older",2,"?","FLIGHT",FALSE,1.25047,0,2,"tyre","match",1186
"559d9916fdf99b1e2b2dc6b8",2,"older",3,"?","YEAR",FALSE,1.03423,1,3,"telephone","mis-match",1186
"559d9916fdf99b1e2b2dc6b8",2,"older",4,"?","CANDY",FALSE,0.799105,2,4,"cart","new-new",1186
"559d9916fdf99b1e2b2dc6b8",3,"older",1,"?","PLENTY",FALSE,9.99053,1,1,"diamond","mis-match",1187
"559d9916fdf99b1e2b2dc6b8",3,"older",2,"?","YARD",FALSE,9.99068,3,2,"mushroom","new-new",1187
"559d9916fdf99b1e2b2dc6b8",3,"older",3,"?","CLOCK",FALSE,9.99092,0,3,"bolt","match",1187
"559d9916fdf99b1e2b2dc6b8",3,"older",4,"?","KIND",FALSE,0.54767,2,4,"perfume","old-new",1187
"559d9916fdf99b1e2b2dc6b8",4,"older",1,"?","NATION",FALSE,2.69951,0,1,"pepper","new-new",1188
"559d9916fdf99b1e2b2dc6b8",4,"older",2,"DANGER","DANGER",TRUE,2.584675,2,2,"skateboard","new-new",1188
"559d9916fdf99b1e2b2dc6b8",4,"older",3,"POLICY","POLICY",TRUE,4.21981,1,3,"frame","new-new",1188
"559d9916fdf99b1e2b2dc6b8",4,"older",4,"?","RECORD",FALSE,1.265775,3,4,"sun","new-new",1188
"559d9916fdf99b1e2b2dc6b8",5,"older",1,"CASINO","CASINO",TRUE,4.48445,2,1,"map","mis-match",1189
"559d9916fdf99b1e2b2dc6b8",5,"older",2,"?","APPLE",FALSE,1.14841,1,2,"stool","old-new",1189
"559d9916fdf99b1e2b2dc6b8",5,"older",3,"?","SPEECH",FALSE,0.817105,3,3,"pear","new-new",1189
"559d9916fdf99b1e2b2dc6b8",5,"older",4,"?","SAKE",FALSE,0.716515,0,4,"ring","match",1189
"559d9916fdf99b1e2b2dc6b8",6,"older",1,"TEAR","TEAR",TRUE,3.750165,3,1,"calendar","new-new",1190
"559d9916fdf99b1e2b2dc6b8",6,"older",2,"?","BELT",FALSE,1.35012,1,2,"wheelbarrow","old-new",1190
"559d9916fdf99b1e2b2dc6b8",6,"older",3,"?","ADVICE",FALSE,0.632905,2,3,"stamp","mis-match",1190
"559d9916fdf99b1e2b2dc6b8",6,"older",4,"?","LOTS",FALSE,0.51609,0,4,"microphone","match",1190
"559d9916fdf99b1e2b2dc6b8",7,"older",1,"LETTER","FOOD",FALSE,5.853005,0,1,"cathedral","new-new",1191
"559d9916fdf99b1e2b2dc6b8",7,"older",2,"MILLER","LETTER",FALSE,4.398555,1,2,"hanger","new-new",1191
"559d9916fdf99b1e2b2dc6b8",7,"older",3,"MOMENT","MILLER",FALSE,4.036325,2,3,"sunflower","new-new",1191
"559d9916fdf99b1e2b2dc6b8",7,"older",4,"?","MOMENT",FALSE,0.549835,3,4,"aeroplane","new-new",1191
"559d9916fdf99b1e2b2dc6b8",8,"older",1,"?","MILE",FALSE,1.832745,3,1,"dice","new-new",1192
"559d9916fdf99b1e2b2dc6b8",8,"older",2,"BOYS","BOYS",TRUE,2.83572,1,2,"monkey","new-new",1192
"559d9916fdf99b1e2b2dc6b8",8,"older",3,"?","SPIRIT",FALSE,1.450535,2,3,"tractor","new-new",1192
"559d9916fdf99b1e2b2dc6b8",8,"older",4,"?","CARS",FALSE,0.56638,0,4,"motorbike","new-new",1192
"559d9916fdf99b1e2b2dc6b8",9,"older",1,"?","RIVER",FALSE,1.06325,1,1,"backpack","mis-match",1193
"559d9916fdf99b1e2b2dc6b8",9,"older",2,"?","WEAPON",FALSE,0.64889,2,2,"boot","new-new",1193
"559d9916fdf99b1e2b2dc6b8",9,"older",3,"PENNY","PENNY",TRUE,3.352455,3,3,"shovel","match",1193
"559d9916fdf99b1e2b2dc6b8",9,"older",4,"?","AREA",FALSE,1.566985,0,4,"bench","old-new",1193
"559d9916fdf99b1e2b2dc6b8",10,"older",1,"?","DEMON",FALSE,1.046885,1,1,"salt","new-new",1194
"559d9916fdf99b1e2b2dc6b8",10,"older",2,"GLASS","FEET",FALSE,5.15457,3,2,"crown","old-new",1194
"559d9916fdf99b1e2b2dc6b8",10,"older",3,"?","BATH",FALSE,1.350055,2,3,"daisy","mis-match",1194
"559d9916fdf99b1e2b2dc6b8",10,"older",4,"GLASS","GLASS",TRUE,1.83347,0,4,"rug","match",1194
"559d9916fdf99b1e2b2dc6b8",11,"older",1,"COPS","COPS",TRUE,4.434895,3,1,"pencil","match",1195
"559d9916fdf99b1e2b2dc6b8",11,"older",2,"?","VALLEY",FALSE,1.63237,2,2,"megaphone","old-new",1195
"559d9916fdf99b1e2b2dc6b8",11,"older",3,"?","DOZEN",FALSE,0.983135,0,3,"basket","new-new",1195
"559d9916fdf99b1e2b2dc6b8",11,"older",4,"?","PHOTO",FALSE,1.83631,1,4,"spoon","mis-match",1195
"559d9916fdf99b1e2b2dc6b8",12,"older",1,"?","ESTATE",FALSE,0.7453,2,1,"dart","new-new",1196
"559d9916fdf99b1e2b2dc6b8",12,"older",2,"?","HOUSE",FALSE,0.74921,3,2,"goose","new-new",1196
"559d9916fdf99b1e2b2dc6b8",12,"older",3,"?","SYSTEM",FALSE,0.53211,1,3,"peg","new-new",1196
"559d9916fdf99b1e2b2dc6b8",12,"older",4,"?","SALE",FALSE,0.39945,0,4,"kettle","new-new",1196
"559d9916fdf99b1e2b2dc6b8",13,"older",1,"IDEAS","IDEAS",TRUE,2.682175,3,1,"candle","new-new",1197
"559d9916fdf99b1e2b2dc6b8",13,"older",2,"FLESH","FLESH",TRUE,3.56909,0,2,"balcony","new-new",1197
"559d9916fdf99b1e2b2dc6b8",13,"older",3,"?","STYLE",FALSE,2.33317,2,3,"pawn","new-new",1197
"559d9916fdf99b1e2b2dc6b8",13,"older",4,"?","SERIES",FALSE,0.615055,1,4,"coin","new-new",1197
"559d9916fdf99b1e2b2dc6b8",14,"older",1,"?","CLIENT",FALSE,1.080725,2,1,"carrot","mis-match",1198
"559d9916fdf99b1e2b2dc6b8",14,"older",2,"?","SHOTS",FALSE,1.03234,1,2,"scissors","new-new",1198
"559d9916fdf99b1e2b2dc6b8",14,"older",3,"?","LIFE",FALSE,0.800925,3,3,"razor","old-new",1198
"559d9916fdf99b1e2b2dc6b8",14,"older",4,"LEADER","LEADER",TRUE,4.98703,0,4,"helmet","match",1198
"559d9916fdf99b1e2b2dc6b8",15,"older",1,"?","WRITER",FALSE,1.515005,1,1,"watch","new-new",1199
"559d9916fdf99b1e2b2dc6b8",15,"older",2,"?","DEATH",FALSE,1.21715,2,2,"suitcase","new-new",1199
"559d9916fdf99b1e2b2dc6b8",15,"older",3,"?","ROOF",FALSE,1.45037,0,3,"planet","new-new",1199
"559d9916fdf99b1e2b2dc6b8",15,"older",4,"?","NIGHT",FALSE,1.13333,3,4,"cap","new-new",1199
"559d9916fdf99b1e2b2dc6b8",16,"older",1,"YEAR","WOMEN",FALSE,7.353715,0,1,"wheel","mis-match",1200
"559d9916fdf99b1e2b2dc6b8",16,"older",2,"?","BODY",FALSE,1.497945,3,2,"cherry","old-new",1200
"559d9916fdf99b1e2b2dc6b8",16,"older",3,"?","PRINCE",FALSE,0.90023,1,3,"windmill","new-new",1200
"559d9916fdf99b1e2b2dc6b8",16,"older",4,"GIRL","GIRL",TRUE,1.93528,2,4,"tray","match",1200
"56f55bc0736c79000c223b3d",1,"younger",1,"KIND","YARD",FALSE,2.180075,3,1,"mushroom","new-new",65
"56f55bc0736c79000c223b3d",1,"younger",2,"PLENTY","KIND",FALSE,3.412015,2,2,"perfume","old-new",65
"56f55bc0736c79000c223b3d",1,"younger",3,"BOOTH","PLENTY",FALSE,3.128845,1,3,"diamond","mis-match",65
"56f55bc0736c79000c223b3d",1,"younger",4,"CLOCK","CLOCK",TRUE,1.89539,0,4,"bolt","match",65
"56f55bc0736c79000c223b3d",2,"younger",1,"?","APPLE",FALSE,3.028765,1,1,"stool","old-new",66
"56f55bc0736c79000c223b3d",2,"younger",2,"SAKE","SAKE",TRUE,1.23152,0,2,"ring","match",66
"56f55bc0736c79000c223b3d",2,"younger",3,"CASINO","CASINO",TRUE,3.5126,2,3,"map","mis-match",66
"56f55bc0736c79000c223b3d",2,"younger",4,"SPEECH","SPEECH",TRUE,2.246995,3,4,"pear","new-new",66
"56f55bc0736c79000c223b3d",3,"younger",1,"PRINCE","PRINCE",TRUE,2.39675,1,1,"windmill","new-new",67
"56f55bc0736c79000c223b3d",3,"younger",2,"GIRL","GIRL",TRUE,1.495755,2,2,"tray","match",67
"56f55bc0736c79000c223b3d",3,"younger",3,"BODY","BODY",TRUE,2.54724,3,3,"cherry","old-new",67
"56f55bc0736c79000c223b3d",3,"younger",4,"WOMEN","WOMEN",TRUE,1.829155,0,4,"wheel","mis-match",67
"56f55bc0736c79000c223b3d",4,"younger",1,"FLIGHT","FLIGHT",TRUE,5.59335,0,1,"tyre","match",68
"56f55bc0736c79000c223b3d",4,"younger",2,"CANDY","YEAR",FALSE,4.4097,1,2,"telephone","mis-match",68
"56f55bc0736c79000c223b3d",4,"younger",3,"ARTIST","CANDY",FALSE,2.32827,2,3,"cart","new-new",68
"56f55bc0736c79000c223b3d",4,"younger",4,"?","ARTIST",FALSE,2.280565,3,4,"gorilla","old-new",68
"56f55bc0736c79000c223b3d",5,"younger",1,"WRITER","DEATH",FALSE,3.84576,2,1,"suitcase","new-new",69
"56f55bc0736c79000c223b3d",5,"younger",2,"NIGHT","NIGHT",TRUE,2.53025,3,2,"cap","new-new",69
"56f55bc0736c79000c223b3d",5,"younger",3,"ROOF","ROOF",TRUE,1.664855,0,3,"planet","new-new",69
"56f55bc0736c79000c223b3d",5,"younger",4,"WRITER","WRITER",TRUE,1.630255,1,4,"watch","new-new",69
"56f55bc0736c79000c223b3d",6,"younger",1,"ESTATE","SALE",FALSE,5.576055,0,1,"kettle","new-new",70
"56f55bc0736c79000c223b3d",6,"younger",2,"HOUSE","HOUSE",TRUE,4.84509,3,2,"goose","new-new",70
"56f55bc0736c79000c223b3d",6,"younger",3,"ESTATE","SYSTEM",FALSE,4.311915,1,3,"peg","new-new",70
"56f55bc0736c79000c223b3d",6,"younger",4,"ESTATE","ESTATE",TRUE,2.13071,2,4,"dart","new-new",70
"56f55bc0736c79000c223b3d",7,"younger",1,"LIFE","LIFE",TRUE,1.71384,3,1,"razor","old-new",71
"56f55bc0736c79000c223b3d",7,"younger",2,"CLIENT","CLIENT",TRUE,1.215045,2,2,"carrot","mis-match",71
"56f55bc0736c79000c223b3d",7,"younger",3,"LEADER","LEADER",TRUE,1.515,0,3,"helmet","match",71
"56f55bc0736c79000c223b3d",7,"younger",4,"SHOTS","SHOTS",TRUE,2.364755,1,4,"scissors","new-new",71
"56f55bc0736c79000c223b3d",8,"younger",1,"AREA","PENNY",FALSE,3.793825,3,1,"shovel","match",72
"56f55bc0736c79000c223b3d",8,"younger",2,"AREA","AREA",TRUE,2.812595,0,2,"bench","old-new",72
"56f55bc0736c79000c223b3d",8,"younger",3,"WEAPON","RIVER",FALSE,2.428345,1,3,"backpack","mis-match",72
"56f55bc0736c79000c223b3d",8,"younger",4,"WEAPON","WEAPON",TRUE,1.74773,2,4,"boot","new-new",72
"56f55bc0736c79000c223b3d",9,"younger",1,"SERIES","STYLE",FALSE,6.32682,2,1,"pawn","new-new",73
"56f55bc0736c79000c223b3d",9,"younger",2,"IDEAS","IDEAS",TRUE,2.579405,3,2,"candle","new-new",73
"56f55bc0736c79000c223b3d",9,"younger",3,"FLESH","FLESH",TRUE,2.929425,0,3,"balcony","new-new",73
"56f55bc0736c79000c223b3d",9,"younger",4,"SERIES","SERIES",TRUE,1.53143,1,4,"coin","new-new",73
"56f55bc0736c79000c223b3d",10,"younger",1,"DEMON","DEMON",TRUE,3.22743,1,1,"salt","new-new",74
"56f55bc0736c79000c223b3d",10,"younger",2,"FEET","FEET",TRUE,5.043955,3,2,"crown","old-new",74
"56f55bc0736c79000c223b3d",10,"younger",3,"BATH","BATH",TRUE,1.87866,2,3,"daisy","mis-match",74
"56f55bc0736c79000c223b3d",10,"younger",4,"GLASS","GLASS",TRUE,1.464275,0,4,"rug","match",74
"56f55bc0736c79000c223b3d",11,"younger",1,"POLICY","POLICY",TRUE,3.4629,1,1,"frame","new-new",75
"56f55bc0736c79000c223b3d",11,"younger",2,"?","DANGER",FALSE,3.912135,2,2,"skateboard","new-new",75
"56f55bc0736c79000c223b3d",11,"younger",3,"NATION","NATION",TRUE,1.579945,0,3,"pepper","new-new",75
"56f55bc0736c79000c223b3d",11,"younger",4,"RECORD","RECORD",TRUE,1.331735,3,4,"sun","new-new",75
"56f55bc0736c79000c223b3d",12,"younger",1,"ADVICE","BELT",FALSE,8.50503,1,1,"wheelbarrow","old-new",76
"56f55bc0736c79000c223b3d",12,"younger",2,"?","ADVICE",FALSE,4.24386,2,2,"stamp","mis-match",76
"56f55bc0736c79000c223b3d",12,"younger",3,"LOTS","LOTS",TRUE,1.24798,0,3,"microphone","match",76
"56f55bc0736c79000c223b3d",12,"younger",4,"TEAR","TEAR",TRUE,1.24854,3,4,"calendar","new-new",76
"56f55bc0736c79000c223b3d",13,"younger",1,"COPS","COPS",TRUE,1.96116,3,1,"pencil","match",77
"56f55bc0736c79000c223b3d",13,"younger",2,"DOZEN","DOZEN",TRUE,1.814635,0,2,"basket","new-new",77
"56f55bc0736c79000c223b3d",13,"younger",3,"?","PHOTO",FALSE,3.912695,1,3,"spoon","mis-match",77
"56f55bc0736c79000c223b3d",13,"younger",4,"VALLEY","VALLEY",TRUE,1.23033,2,4,"megaphone","old-new",77
"56f55bc0736c79000c223b3d",14,"younger",1,"THING","THING",TRUE,2.91145,2,1,"runner","mis-match",78
"56f55bc0736c79000c223b3d",14,"younger",2,"DIRT","DIRT",TRUE,3.230195,0,2,"mirror","new-new",78
"56f55bc0736c79000c223b3d",14,"younger",3,"FRIEND","FRIEND",TRUE,2.313175,3,3,"taxi","old-new",78
"56f55bc0736c79000c223b3d",14,"younger",4,"JUNGLE","JUNGLE",TRUE,1.131995,1,4,"anchor","match",78
"56f55bc0736c79000c223b3d",15,"younger",1,"MILE","MILE",TRUE,1.064395,3,1,"dice","new-new",79
"56f55bc0736c79000c223b3d",15,"younger",2,"BOYS","CARS",FALSE,3.11387,0,2,"motorbike","new-new",79
"56f55bc0736c79000c223b3d",15,"younger",3,"SPIRIT","BOYS",FALSE,1.695785,1,3,"monkey","new-new",79
"56f55bc0736c79000c223b3d",15,"younger",4,"MILE","SPIRIT",FALSE,1.646995,2,4,"tractor","new-new",79
"56f55bc0736c79000c223b3d",16,"younger",1,"LETTER","LETTER",TRUE,3.663,1,1,"hanger","new-new",80
"56f55bc0736c79000c223b3d",16,"younger",2,"FOOD","FOOD",TRUE,2.08029,0,2,"cathedral","new-new",80
"56f55bc0736c79000c223b3d",16,"younger",3,"MOMENT","MOMENT",TRUE,1.662485,3,3,"aeroplane","new-new",80
"56f55bc0736c79000c223b3d",16,"younger",4,"FILLER","MILLER",FALSE,3.629755,2,4,"sunflower","new-new",80
"574ce0a57fd0ec000db73aa6",1,"older",1,"DOZEN","PHOTO",FALSE,3.57247,1,1,"spoon","mis-match",1553
"574ce0a57fd0ec000db73aa6",1,"older",2,"?","COPS",FALSE,9.993545,3,2,"pencil","match",1553
"574ce0a57fd0ec000db73aa6",1,"older",3,"DOZEN","DOZEN",TRUE,3.458675,0,3,"basket","new-new",1553
"574ce0a57fd0ec000db73aa6",1,"older",4,"VALLEY","VALLEY",TRUE,1.516905,2,4,"megaphone","old-new",1553
"574ce0a57fd0ec000db73aa6",2,"older",1,"GIRL","GIRL",TRUE,1.80636,2,1,"tray","match",1554
"574ce0a57fd0ec000db73aa6",2,"older",2,"WOMEN","WOMEN",TRUE,2.34279,0,2,"wheel","mis-match",1554
"574ce0a57fd0ec000db73aa6",2,"older",3,"BODY","BODY",TRUE,5.78324,3,3,"cherry","old-new",1554
"574ce0a57fd0ec000db73aa6",2,"older",4,"PRINCE","PRINCE",TRUE,1.68761,1,4,"windmill","new-new",1554
"574ce0a57fd0ec000db73aa6",3,"older",1,"SHOTS","SHOTS",TRUE,2.15325,1,1,"scissors","new-new",1555
"574ce0a57fd0ec000db73aa6",3,"older",2,"LIFE","LIFE",TRUE,7.619605,3,2,"razor","old-new",1555
"574ce0a57fd0ec000db73aa6",3,"older",3,"LEADER","LEADER",TRUE,1.775155,0,3,"helmet","match",1555
"574ce0a57fd0ec000db73aa6",3,"older",4,"CLIENT","CLIENT",TRUE,2.154555,2,4,"carrot","mis-match",1555
"574ce0a57fd0ec000db73aa6",4,"older",1,"NIGHT","NIGHT",TRUE,2.92278,3,1,"cap","new-new",1556
"574ce0a57fd0ec000db73aa6",4,"older",2,"DEATH","DEATH",TRUE,2.38992,2,2,"suitcase","new-new",1556
"574ce0a57fd0ec000db73aa6",4,"older",3,"WRITER","WRITER",TRUE,2.55829,1,3,"watch","new-new",1556
"574ce0a57fd0ec000db73aa6",4,"older",4,"ROOF","ROOF",TRUE,1.60525,0,4,"planet","new-new",1556
"574ce0a57fd0ec000db73aa6",5,"older",1,"APPLE","APPLE",TRUE,3.187135,1,1,"stool","old-new",1557
"574ce0a57fd0ec000db73aa6",5,"older",2,"SAKE","SAKE",TRUE,1.876435,0,2,"ring","match",1557
"574ce0a57fd0ec000db73aa6",5,"older",3,"CASINO","CASINO",TRUE,2.42435,2,3,"map","mis-match",1557
"574ce0a57fd0ec000db73aa6",5,"older",4,"SPEECH","SPEECH",TRUE,2.12308,3,4,"pear","new-new",1557
"574ce0a57fd0ec000db73aa6",6,"older",1,"ESTATE","ESTATE",TRUE,2.768745,2,1,"dart","new-new",1558
"574ce0a57fd0ec000db73aa6",6,"older",2,"HOUSE","HOUSE",TRUE,2.01793,3,2,"goose","new-new",1558
"574ce0a57fd0ec000db73aa6",6,"older",3,"SALE","SALE",TRUE,1.438505,0,3,"kettle","new-new",1558
"574ce0a57fd0ec000db73aa6",6,"older",4,"SYSTEM","SYSTEM",TRUE,1.22553,1,4,"peg","new-new",1558
"574ce0a57fd0ec000db73aa6",7,"older",1,"BOYS","BOYS",TRUE,2.60404,1,1,"monkey","new-new",1559
"574ce0a57fd0ec000db73aa6",7,"older",2,"SPIRIT","SPIRIT",TRUE,2.421295,2,2,"tractor","new-new",1559
"574ce0a57fd0ec000db73aa6",7,"older",3,"MILE","MILE",TRUE,1.72102,3,3,"dice","new-new",1559
"574ce0a57fd0ec000db73aa6",7,"older",4,"CARS","CARS",TRUE,1.78842,0,4,"motorbike","new-new",1559
"574ce0a57fd0ec000db73aa6",8,"older",1,"FLESH","FLESH",TRUE,2.45443,0,1,"balcony","new-new",1560
"574ce0a57fd0ec000db73aa6",8,"older",2,"SERIES","SERIES",TRUE,1.602695,1,2,"coin","new-new",1560
"574ce0a57fd0ec000db73aa6",8,"older",3,"","IDEAS",FALSE,9.98987,3,3,"candle","new-new",1560
"574ce0a57fd0ec000db73aa6",8,"older",4,"STYLE","STYLE",TRUE,1.95484,2,4,"pawn","new-new",1560
"574ce0a57fd0ec000db73aa6",9,"older",1,"FRIEND","FRIEND",TRUE,5.026945,3,1,"taxi","old-new",1561
"574ce0a57fd0ec000db73aa6",9,"older",2,"THING","THING",TRUE,2.276265,2,2,"runner","mis-match",1561
"574ce0a57fd0ec000db73aa6",9,"older",3,"JUNGLE","JUNGLE",TRUE,2.340595,1,3,"anchor","match",1561
"574ce0a57fd0ec000db73aa6",9,"older",4,"DIRT","DIRT",TRUE,1.788635,0,4,"mirror","new-new",1561
"574ce0a57fd0ec000db73aa6",10,"older",1,"BATH","BATH",TRUE,7.03448,2,1,"daisy","mis-match",1562
"574ce0a57fd0ec000db73aa6",10,"older",2,"GLASS","GLASS",TRUE,1.969535,0,2,"rug","match",1562
"574ce0a57fd0ec000db73aa6",10,"older",3,"DEMON","DEMON",TRUE,2.041975,1,3,"salt","new-new",1562
"574ce0a57fd0ec000db73aa6",10,"older",4,"FEET","FEET",TRUE,1.252195,3,4,"crown","old-new",1562
"574ce0a57fd0ec000db73aa6",11,"older",1,"MILLER","MILLER",TRUE,1.73577,2,1,"sunflower","new-new",1563
"574ce0a57fd0ec000db73aa6",11,"older",2,"MOMENT","MOMENT",TRUE,2.071195,3,2,"aeroplane","new-new",1563
"574ce0a57fd0ec000db73aa6",11,"older",3,"?","LETTER",FALSE,9.98978,1,3,"hanger","new-new",1563
"574ce0a57fd0ec000db73aa6",11,"older",4,"FOOD","FOOD",TRUE,2.06551,0,4,"cathedral","new-new",1563
"574ce0a57fd0ec000db73aa6",12,"older",1,"ADVICE","ADVICE",TRUE,7.518425,2,1,"stamp","mis-match",1564
"574ce0a57fd0ec000db73aa6",12,"older",2,"BELT","BELT",TRUE,2.939175,1,2,"wheelbarrow","old-new",1564
"574ce0a57fd0ec000db73aa6",12,"older",3,"LOTS","LOTS",TRUE,1.820595,0,3,"microphone","match",1564
"574ce0a57fd0ec000db73aa6",12,"older",4,"TEAR","TEAR",TRUE,1.135505,3,4,"calendar","new-new",1564
"574ce0a57fd0ec000db73aa6",13,"older",1,"FLIGHT","FLIGHT",TRUE,2.47244,0,1,"tyre","match",1565
"574ce0a57fd0ec000db73aa6",13,"older",2,"YEAR","YEAR",TRUE,3.976265,1,2,"telephone","mis-match",1565
"574ce0a57fd0ec000db73aa6",13,"older",3,"ARTIST","ARTIST",TRUE,2.338355,3,3,"gorilla","old-new",1565
"574ce0a57fd0ec000db73aa6",13,"older",4,"CANDY","CANDY",TRUE,2.80837,2,4,"cart","new-new",1565
"574ce0a57fd0ec000db73aa6",14,"older",1,"KIND","KIND",TRUE,2.739665,2,1,"perfume","old-new",1566
"574ce0a57fd0ec000db73aa6",14,"older",2,"CLOCKS","CLOCK",FALSE,1.71779,0,2,"bolt","match",1566
"574ce0a57fd0ec000db73aa6",14,"older",3,"PLENTY","PLENTY",TRUE,2.84196,1,3,"diamond","mis-match",1566
"574ce0a57fd0ec000db73aa6",14,"older",4,"YARD","YARD",TRUE,2.4075,3,4,"mushroom","new-new",1566
"574ce0a57fd0ec000db73aa6",15,"older",1,"POLICY","POLICY",TRUE,4.24325,1,1,"frame","new-new",1567
"574ce0a57fd0ec000db73aa6",15,"older",2,"RECORD","RECORD",TRUE,2.15679,3,2,"sun","new-new",1567
"574ce0a57fd0ec000db73aa6",15,"older",3,"NATION","NATION",TRUE,2.20515,0,3,"pepper","new-new",1567
"574ce0a57fd0ec000db73aa6",15,"older",4,"DANGER","DANGER",TRUE,1.487745,2,4,"skateboard","new-new",1567
"574ce0a57fd0ec000db73aa6",16,"older",1,"RIVER","RIVER",TRUE,3.94609,1,1,"backpack","mis-match",1568
"574ce0a57fd0ec000db73aa6",16,"older",2,"WEAPON","WEAPON",TRUE,2.288695,2,2,"boot","new-new",1568
"574ce0a57fd0ec000db73aa6",16,"older",3,"AREA","AREA",TRUE,1.92261,0,3,"bench","old-new",1568
"574ce0a57fd0ec000db73aa6",16,"older",4,"PENNY","PENNY",TRUE,1.944145,3,4,"shovel","match",1568
"5789f5c6fa4465000113ecb2",1,"younger",1,"CARS","CANDY",FALSE,2.28116,1,1,"stamp","match",129
"5789f5c6fa4465000113ecb2",1,"younger",2,"CANDY","CARS",FALSE,3.832045,2,2,"motorbike","new-new",129
"5789f5c6fa4465000113ecb2",1,"younger",3,"CLIENT","CLIENT",TRUE,1.86583,0,3,"peg","old-new",129
"5789f5c6fa4465000113ecb2",1,"younger",4,"RECORD","RECORD",TRUE,1.815325,3,4,"dart","mis-match",129
"5789f5c6fa4465000113ecb2",2,"younger",1,"BATH","BATH",TRUE,3.8972,3,1,"skateboard","new-new",130
"5789f5c6fa4465000113ecb2",2,"younger",2,"YEAR","YEAR",TRUE,2.799255,2,2,"mushroom","new-new",130
"5789f5c6fa4465000113ecb2",2,"younger",3,"HOUSE","HOUSE",TRUE,1.749135,0,3,"goose","new-new",130
"5789f5c6fa4465000113ecb2",2,"younger",4,"TEAR","TEAR",TRUE,1.499285,1,4,"shovel","new-new",130
"5789f5c6fa4465000113ecb2",3,"younger",1,"APPLE","APPLE",TRUE,1.88172,0,1,"kettle","new-new",131
"5789f5c6fa4465000113ecb2",3,"younger",2,"SHOTS","SHOTS",TRUE,2.498435,1,2,"bolt","old-new",131
"5789f5c6fa4465000113ecb2",3,"younger",3,"DANGER","DANGER",TRUE,3.515165,3,3,"megaphone","mis-match",131
"5789f5c6fa4465000113ecb2",3,"younger",4,"KIND","KIND",TRUE,1.48138,2,4,"dice","match",131
"5789f5c6fa4465000113ecb2",4,"younger",1,"AGENT","AGENT",TRUE,2.148015,3,1,"salt","new-new",132
"5789f5c6fa4465000113ecb2",4,"younger",2,"BELT","BELT",TRUE,1.8159,0,2,"stool","new-new",132
"5789f5c6fa4465000113ecb2",4,"younger",3,"AREA","ESTATE",FALSE,2.748915,2,3,"tractor","new-new",132
"5789f5c6fa4465000113ecb2",4,"younger",4,"ESTATE","AREA",FALSE,2.932135,1,4,"frame","new-new",132
"5789f5c6fa4465000113ecb2",5,"younger",1,"TOILET","WRITER",FALSE,2.29687,1,1,"rug","match",133
"5789f5c6fa4465000113ecb2",5,"younger",2,"WRITER","TOILET",FALSE,2.19897,0,2,"scissors","mis-match",133
"5789f5c6fa4465000113ecb2",5,"younger",3,"DOZEN","DOZEN",TRUE,3.29931,2,3,"wheelbarrow","old-new",133
"5789f5c6fa4465000113ecb2",5,"younger",4,"ARTIST","ARTIST",TRUE,2.048435,3,4,"daisy","new-new",133
"5789f5c6fa4465000113ecb2",6,"younger",1,"COPS","COPS",TRUE,2.64764,2,1,"wheel","match",134
"5789f5c6fa4465000113ecb2",6,"younger",2,"MILE","MILE",TRUE,2.116,0,2,"anchor","mis-match",134
"5789f5c6fa4465000113ecb2",6,"younger",3,"HONEY","PENNY",FALSE,2.89911,3,3,"microphone","old-new",134
"5789f5c6fa4465000113ecb2",6,"younger",4,"PENNY","HONEY",FALSE,3.598525,1,4,"cherry","new-new",134
"5789f5c6fa4465000113ecb2",7,"younger",1,"ADVICE","DIRT",FALSE,4.080335,1,1,"ring","old-new",135
"5789f5c6fa4465000113ecb2",7,"younger",2,"LOTS","LOTS",TRUE,5.29788,3,2,"spoon","new-new",135
"5789f5c6fa4465000113ecb2",7,"younger",3,"ROOF","ROOF",TRUE,1.832235,2,3,"basket","match",135
"5789f5c6fa4465000113ecb2",7,"younger",4,"DIRT","ADVICE",FALSE,2.565045,0,4,"calendar","mis-match",135
"5789f5c6fa4465000113ecb2",8,"younger",1,"BOYS","BOYS",TRUE,2.88159,1,1,"pear","match",136
"5789f5c6fa4465000113ecb2",8,"younger",2,"PRINCE","NATION",FALSE,5.96475,2,2,"gorilla","old-new",136
"5789f5c6fa4465000113ecb2",8,"younger",3,"JUNGLE","JUNGLE",TRUE,2.498085,0,3,"razor","mis-match",136
"5789f5c6fa4465000113ecb2",8,"younger",4,"PRINCE","PRINCE",TRUE,3.548555,3,4,"windmill","new-new",136
"5789f5c6fa4465000113ecb2",9,"younger",1,"GODS","GODS",TRUE,2.014645,1,1,"sun","new-new",137
"5789f5c6fa4465000113ecb2",9,"younger",2,"DEATH","DEATH",TRUE,2.21571,3,2,"pencil","new-new",137
"5789f5c6fa4465000113ecb2",9,"younger",3,"FRIEND","FRIEND",TRUE,2.265455,2,3,"cart","new-new",137
"5789f5c6fa4465000113ecb2",9,"younger",4,"FOOD","FOOD",TRUE,1.899315,0,4,"telephone","new-new",137
"5789f5c6fa4465000113ecb2",10,"younger",1,"SALE","SALE",TRUE,2.04796,3,1,"map","mis-match",138
"5789f5c6fa4465000113ecb2",10,"younger",2,"YARD","YARD",TRUE,2.115745,2,2,"tyre","match",138
"5789f5c6fa4465000113ecb2",10,"younger",3,"SAKE","SAKE",TRUE,2.09899,1,3,"aeroplane","old-new",138
"5789f5c6fa4465000113ecb2",10,"younger",4,"STYLE","STYLE",TRUE,1.86535,0,4,"boot","new-new",138
"5789f5c6fa4465000113ecb2",11,"younger",1,"CLOCK","CLOCK",TRUE,4.847175,2,1,"runner","new-new",139
"5789f5c6fa4465000113ecb2",11,"younger",2,"RIVER","RIVER",TRUE,2.04925,1,2,"tray","new-new",139
"5789f5c6fa4465000113ecb2",11,"younger",3,"NIGHT","NIGHT",TRUE,1.998765,0,3,"perfume","new-new",139
"5789f5c6fa4465000113ecb2",11,"younger",4,"WATCH","WOMEN",FALSE,2.73252,3,4,"watch","new-new",139
"5789f5c6fa4465000113ecb2",12,"younger",1,"SPEECH","SPEECH",TRUE,7.09656,2,1,"backpack","new-new",140
"5789f5c6fa4465000113ecb2",12,"younger",2,"MILLER","MILLER",TRUE,1.81547,1,2,"suitcase","match",140
"5789f5c6fa4465000113ecb2",12,"younger",3,"FAMILY","FAMILY",TRUE,2.26578,0,3,"candle","mis-match",140
"5789f5c6fa4465000113ecb2",12,"younger",4,"GIRL","GIRL",TRUE,2.23218,3,4,"mirror","old-new",140
"5789f5c6fa4465000113ecb2",13,"younger",1,"SERIES","SERIES",TRUE,3.563705,0,1,"helmet","new-new",141
"5789f5c6fa4465000113ecb2",13,"younger",2,"CASINO","CASINO",TRUE,2.514435,1,2,"carrot","new-new",141
"5789f5c6fa4465000113ecb2",13,"younger",3,"DEMON","DEMON",TRUE,1.782135,3,3,"diamond","new-new",141
"5789f5c6fa4465000113ecb2",13,"younger",4,"BEAUTY","BEAUTY",TRUE,8.73091,2,4,"taxi","new-new",141
"5789f5c6fa4465000113ecb2",14,"younger",1,"GLASS","GLASS",TRUE,3.531105,0,1,"crown","old-new",142
"5789f5c6fa4465000113ecb2",14,"younger",2,"THING","THING",TRUE,2.26576,2,2,"bench","match",142
"5789f5c6fa4465000113ecb2",14,"younger",3,"FLIGHT","FLIGHT",TRUE,3.365125,3,3,"pawn","mis-match",142
"5789f5c6fa4465000113ecb2",14,"younger",4,"?","SYSTEM",FALSE,9.31383,1,4,"sunflower","new-new",142
"5789f5c6fa4465000113ecb2",15,"younger",1,"LEADER","LEADER",TRUE,3.09711,1,1,"cathedral","new-new",143
"5789f5c6fa4465000113ecb2",15,"younger",2,"IDEAS","IDEAS",TRUE,2.082275,2,2,"cap","new-new",143
"5789f5c6fa4465000113ecb2",15,"younger",3,"?","SPIRIT",FALSE,9.997035,0,3,"coin","new-new",143
"5789f5c6fa4465000113ecb2",15,"younger",4,"HOTEL","HOTEL",TRUE,2.51539,3,4,"planet","new-new",143
"5789f5c6fa4465000113ecb2",16,"younger",1,"FLESH","FLESH",TRUE,3.0295,1,1,"balcony","new-new",144
"5789f5c6fa4465000113ecb2",16,"younger",2,"DUDE","DUDE",TRUE,2.41563,2,2,"pepper","match",144
"5789f5c6fa4465000113ecb2",16,"younger",3,"PILLS","PILLS",TRUE,3.5652,3,3,"hanger","old-new",144
"5789f5c6fa4465000113ecb2",16,"younger",4,"PLENTY","PLENTY",TRUE,2.4985,0,4,"monkey","mis-match",144
"578bb26f6cc44500010448c8",1,"older",1,"CANDY","DIRT",FALSE,5.868,2,1,"scissors","new-new",1489
"578bb26f6cc44500010448c8",1,"older",2,"DIRT","SALE",FALSE,5.287,1,2,"megaphone","new-new",1489
"578bb26f6cc44500010448c8",1,"older",3,"FLIGHT","CANDY",FALSE,6.452,0,3,"taxi","new-new",1489
"578bb26f6cc44500010448c8",1,"older",4,"SALE","FLIGHT",FALSE,4.028,3,4,"bolt","new-new",1489
"578bb26f6cc44500010448c8",2,"older",1,"WRITER","WRITER",TRUE,9.873,1,1,"cathedral","match",1490
"578bb26f6cc44500010448c8",2,"older",2,"HOUSE","HOUSE",TRUE,7.404,2,2,"microphone","mis-match",1490
"578bb26f6cc44500010448c8",2,"older",3,"FLASH","FLESH",FALSE,7.204,3,3,"shovel","new-new",1490
"578bb26f6cc44500010448c8",2,"older",4,"?","TOILET",FALSE,4.94,0,4,"mushroom","old-new",1490
"578bb26f6cc44500010448c8",3,"older",1,"RECORD","RECORD",TRUE,6.187,0,1,"runner","new-new",1491
"578bb26f6cc44500010448c8",3,"older",2,"FOOD","FOOD",TRUE,5.769,2,2,"watch","new-new",1491
"578bb26f6cc44500010448c8",3,"older",3,"JUNGLE","JUNGLE",TRUE,7.137,3,3,"cherry","new-new",1491
"578bb26f6cc44500010448c8",3,"older",4,"DANGER","DANGER",TRUE,4.77,1,4,"tray","new-new",1491
"578bb26f6cc44500010448c8",4,"older",1,"ROOF","ESTATE",FALSE,4.902,1,1,"diamond","new-new",1492
"578bb26f6cc44500010448c8",4,"older",2,"FAMILY","ROOF",FALSE,7.554,2,2,"suitcase","mis-match",1492
"578bb26f6cc44500010448c8",4,"older",3,"COPS","COPS",TRUE,4.285,0,3,"hanger","old-new",1492
"578bb26f6cc44500010448c8",4,"older",4,"FAMILY","FAMILY",TRUE,8.187,3,4,"dice","match",1492
"578bb26f6cc44500010448c8",5,"older",1,"DUDE","DUDE",TRUE,6.587,0,1,"skateboard","old-new",1493
"578bb26f6cc44500010448c8",5,"older",2,"?","APPLE",FALSE,5.871,3,2,"windmill","mis-match",1493
"578bb26f6cc44500010448c8",5,"older",3,"?","HONEY",FALSE,10.004,1,3,"wheelbarrow","new-new",1493
"578bb26f6cc44500010448c8",5,"older",4,"?","MOMENT",FALSE,3.619,2,4,"stamp","match",1493
"578bb26f6cc44500010448c8",6,"older",1,"VALLEY","IDEAS",FALSE,4.684,2,1,"mirror","new-new",1494
"578bb26f6cc44500010448c8",6,"older",2,"LOTS","LOTS",TRUE,5.071,0,2,"stool","new-new",1494
"578bb26f6cc44500010448c8",6,"older",3,"VALLEY","VALLEY",TRUE,3.702,1,3,"bench","new-new",1494
"578bb26f6cc44500010448c8",6,"older",4,"IDEAS","LETTER",FALSE,4.437,3,4,"coin","new-new",1494
"578bb26f6cc44500010448c8",7,"older",1,"AGENT","CLOCK",FALSE,9.637,2,1,"helmet","new-new",1495
"578bb26f6cc44500010448c8",7,"older",2,"HOTEL","AGENT",FALSE,4.57,0,2,"balcony","new-new",1495
"578bb26f6cc44500010448c8",7,"older",3,"CL","HOTEL",FALSE,9.99,1,3,"pepper","new-new",1495
"578bb26f6cc44500010448c8",7,"older",4,"BEAUTY","BEAUTY",TRUE,6.52,3,4,"peg","new-new",1495
"578bb26f6cc44500010448c8",8,"older",1,"BOYS","BOYS",TRUE,5.041,0,1,"daisy","new-new",1496
"578bb26f6cc44500010448c8",8,"older",2,"NATION","NATION",TRUE,4.485,2,2,"planet","new-new",1496
"578bb26f6cc44500010448c8",8,"older",3,"YARD","GLASS",FALSE,5.704,3,3,"tractor","new-new",1496
"578bb26f6cc44500010448c8",8,"older",4,"?","YARD",FALSE,1.472,1,4,"goose","new-new",1496
"578bb26f6cc44500010448c8",9,"older",1,"LIFE","LIFE",TRUE,3.318,0,1,"carrot","match",1497
"578bb26f6cc44500010448c8",9,"older",2,"PRINCE","PRINCE",TRUE,5.837,3,2,"perfume","old-new",1497
"578bb26f6cc44500010448c8",9,"older",3,"RIVER","RIVER",TRUE,3.534,1,3,"sun","mis-match",1497
"578bb26f6cc44500010448c8",9,"older",4,"?","SAKE",FALSE,1.42,2,4,"spoon","new-new",1497
"578bb26f6cc44500010448c8",10,"older",1,"PHOTO","PHOTO",TRUE,4.469,2,1,"dart","new-new",1498
"578bb26f6cc44500010448c8",10,"older",2,"DOZEN","SYSTEM",FALSE,4.352,1,2,"basket","mis-match",1498
"578bb26f6cc44500010448c8",10,"older",3,"SYSTEM","DOZEN",FALSE,3.418,0,3,"cart","match",1498
"578bb26f6cc44500010448c8",10,"older",4,"ADVICE","ADVICE",TRUE,3.052,3,4,"razor","old-new",1498
"578bb26f6cc44500010448c8",11,"older",1,"NIGHT","BATH",FALSE,6.037,0,1,"anchor","old-new",1499
"578bb26f6cc44500010448c8",11,"older",2,"SERIES","DEMON",FALSE,5.203,2,2,"pawn","new-new",1499
"578bb26f6cc44500010448c8",11,"older",3,"BATH","NIGHT",FALSE,2.483,1,3,"tyre","mis-match",1499
"578bb26f6cc44500010448c8",11,"older",4,"NIGHT","SERIES",FALSE,2.754,3,4,"rug","match",1499
"578bb26f6cc44500010448c8",12,"older",1,"SHOTS","ARTIST",FALSE,4.185,3,1,"frame","new-new",1500
"578bb26f6cc44500010448c8",12,"older",2,"FEET","FEET",TRUE,3.036,1,2,"kettle","new-new",1500
"578bb26f6cc44500010448c8",12,"older",3,"DEATH","DEATH",TRUE,4.569,2,3,"gorilla","new-new",1500
"578bb26f6cc44500010448c8",12,"older",4,"?","SHOTS",FALSE,3.667,0,4,"backpack","new-new",1500
"578bb26f6cc44500010448c8",13,"older",1,"SPIRIT","BELT",FALSE,4.15,2,1,"boot","old-new",1501
"578bb26f6cc44500010448c8",13,"older",2,"MILE","SPIRIT",FALSE,3.351,0,2,"ring","new-new",1501
"578bb26f6cc44500010448c8",13,"older",3,"STYLE","STYLE",TRUE,5.988,3,3,"telephone","mis-match",1501
"578bb26f6cc44500010448c8",13,"older",4,"MILE","MILE",TRUE,3.151,1,4,"map","match",1501
"578bb26f6cc44500010448c8",14,"older",1,"WEAPON","WEAPON",TRUE,3.85,0,1,"wheel","mis-match",1502
"578bb26f6cc44500010448c8",14,"older",2,"BODY","BODY",TRUE,4.418,3,2,"pencil","new-new",1502
"578bb26f6cc44500010448c8",14,"older",3,"PENNY","PENNY",TRUE,4.386,2,3,"monkey","match",1502
"578bb26f6cc44500010448c8",14,"older",4,"MILLER","MILLER",TRUE,3.568,1,4,"cap","old-new",1502
"578bb26f6cc44500010448c8",15,"older",1,"WOMAN","WOMEN",FALSE,4.968,1,1,"salt","match",1503
"578bb26f6cc44500010448c8",15,"older",2,"AREA","AREA",TRUE,3.203,0,2,"aeroplane","mis-match",1503
"578bb26f6cc44500010448c8",15,"older",3,"TEAR","TEAR",TRUE,4.918,2,3,"pear","new-new",1503
"578bb26f6cc44500010448c8",15,"older",4,"THING","THING",TRUE,2.769,3,4,"crown","old-new",1503
"578bb26f6cc44500010448c8",16,"older",1,"CASINO","MONTH",FALSE,3.645,2,1,"calendar","new-new",1504
"578bb26f6cc44500010448c8",16,"older",2,"PILLS","CASINO",FALSE,3.269,0,2,"motorbike","match",1504
"578bb26f6cc44500010448c8",16,"older",3,"MONTH","PILLS",FALSE,5.956,1,3,"sunflower","old-new",1504
"578bb26f6cc44500010448c8",16,"older",4,"POLICY","POLICY",TRUE,3.052,3,4,"candle","mis-match",1504
"5794c6a370c76a000124550a",1,"older",1,"PLENTY","KIND",FALSE,6.919,2,1,"perfume","old-new",1041
"5794c6a370c76a000124550a",1,"older",2,"KIND","CLOCK",FALSE,4.785,0,2,"bolt","match",1041
"5794c6a370c76a000124550a",1,"older",3,"?","PLENTY",FALSE,6.418,1,3,"diamond","mis-match",1041
"5794c6a370c76a000124550a",1,"older",4,"YARD","YARD",TRUE,2.918,3,4,"mushroom","new-new",1041
"5794c6a370c76a000124550a",2,"older",1,"YEAR","CANDY",FALSE,7.003,2,1,"cart","new-new",1042
"5794c6a370c76a000124550a",2,"older",2,"ARTIST","ARTIST",TRUE,4.986,3,2,"gorilla","old-new",1042
"5794c6a370c76a000124550a",2,"older",3,"FLIGHT","FLIGHT",TRUE,4.553,0,3,"tyre","match",1042
"5794c6a370c76a000124550a",2,"older",4,"YEAR","YEAR",TRUE,3.485,1,4,"telephone","mis-match",1042
"5794c6a370c76a000124550a",3,"older",1,"HOUSE","HOUSE",TRUE,4.336,3,1,"goose","new-new",1043
"5794c6a370c76a000124550a",3,"older",2,"SALE","SALE",TRUE,3.834,0,2,"kettle","new-new",1043
"5794c6a370c76a000124550a",3,"older",3,"?","SYSTEM",FALSE,2.952,1,3,"peg","new-new",1043
"5794c6a370c76a000124550a",3,"older",4,"PEG","ESTATE",FALSE,6.652,2,4,"dart","new-new",1043
"5794c6a370c76a000124550a",4,"older",1,"RECORD","RECORD",TRUE,8.337,3,1,"sun","new-new",1044
"5794c6a370c76a000124550a",4,"older",2,"?","NATION",FALSE,3.001,0,2,"pepper","new-new",1044
"5794c6a370c76a000124550a",4,"older",3,"POLICY","POLICY",TRUE,4.753,1,3,"frame","new-new",1044
"5794c6a370c76a000124550a",4,"older",4,"DANGER","DANGER",TRUE,4.051,2,4,"skateboard","new-new",1044
"5794c6a370c76a000124550a",5,"older",1,"PRINCE","PRINCE",TRUE,5.603,1,1,"windmill","new-new",1045
"5794c6a370c76a000124550a",5,"older",2,"GIRL","GIRL",TRUE,3.334,2,2,"tray","match",1045
"5794c6a370c76a000124550a",5,"older",3,"WOMEN","WOMEN",TRUE,4.185,0,3,"wheel","mis-match",1045
"5794c6a370c76a000124550a",5,"older",4,"?","BODY",FALSE,8.186,3,4,"cherry","old-new",1045
"5794c6a370c76a000124550a",6,"older",1,"THING","THING",TRUE,4.951,2,1,"runner","mis-match",1046
"5794c6a370c76a000124550a",6,"older",2,"JUNGLE","JUNGLE",TRUE,6.702,1,2,"anchor","match",1046
"5794c6a370c76a000124550a",6,"older",3,"FRIEND","FRIEND",TRUE,6.82,3,3,"taxi","old-new",1046
"5794c6a370c76a000124550a",6,"older",4,"DIRTY","DIRT",FALSE,3.684,0,4,"mirror","new-new",1046
"5794c6a370c76a000124550a",7,"older",1,"RIVER","RIVER",TRUE,4.984,1,1,"backpack","mis-match",1047
"5794c6a370c76a000124550a",7,"older",2,"WEAPON","WEAPON",TRUE,5.668,2,2,"boot","new-new",1047
"5794c6a370c76a000124550a",7,"older",3,"DIRTY","AREA",FALSE,5.487,0,3,"bench","old-new",1047
"5794c6a370c76a000124550a",7,"older",4,"PENNY","PENNY",TRUE,3.586,3,4,"shovel","match",1047
"5794c6a370c76a000124550a",8,"older",1,"LOTS","ADVICE",FALSE,5.819,2,1,"stamp","mis-match",1048
"5794c6a370c76a000124550a",8,"older",2,"TEAR","TEAR",TRUE,3.968,3,2,"calendar","new-new",1048
"5794c6a370c76a000124550a",8,"older",3,"?","BELT",FALSE,3.484,1,3,"wheelbarrow","old-new",1048
"5794c6a370c76a000124550a",8,"older",4,"LOTS","LOTS",TRUE,2.751,0,4,"microphone","match",1048
"5794c6a370c76a000124550a",9,"older",1,"BATH","BATH",TRUE,4.002,2,1,"daisy","mis-match",1049
"5794c6a370c76a000124550a",9,"older",2,"PILLS","FEET",FALSE,7.603,3,2,"crown","old-new",1049
"5794c6a370c76a000124550a",9,"older",3,"GLASS","GLASS",TRUE,4.553,0,3,"rug","match",1049
"5794c6a370c76a000124550a",9,"older",4,"DEMON","DEMON",TRUE,4.669,1,4,"salt","new-new",1049
"5794c6a370c76a000124550a",10,"older",1,"NIGHT","NIGHT",TRUE,3.5,3,1,"cap","new-new",1050
"5794c6a370c76a000124550a",10,"older",2,"DEATH","DEATH",TRUE,3.801,2,2,"suitcase","new-new",1050
"5794c6a370c76a000124550a",10,"older",3,"ROOF","ROOF",TRUE,3.685,0,3,"planet","new-new",1050
"5794c6a370c76a000124550a",10,"older",4,"?","WRITER",FALSE,3.918,1,4,"watch","new-new",1050
"5794c6a370c76a000124550a",11,"older",1,"DOZEN","DOZEN",TRUE,5.385,0,1,"basket","new-new",1051
"5794c6a370c76a000124550a",11,"older",2,"PHOTO","VALLEY",FALSE,3.935,2,2,"megaphone","old-new",1051
"5794c6a370c76a000124550a",11,"older",3,"VALLEY","PHOTO",FALSE,6.452,1,3,"spoon","mis-match",1051
"5794c6a370c76a000124550a",11,"older",4,"COPS","COPS",TRUE,3.985,3,4,"pencil","match",1051
"5794c6a370c76a000124550a",12,"older",1,"SAKE","APPLE",FALSE,5.819,1,1,"stool","old-new",1052
"5794c6a370c76a000124550a",12,"older",2,"CASINO","CASINO",TRUE,5.219,2,2,"map","mis-match",1052
"5794c6a370c76a000124550a",12,"older",3,"SPEECH","SPEECH",TRUE,4.602,3,3,"pear","new-new",1052
"5794c6a370c76a000124550a",12,"older",4,"SAKE","SAKE",TRUE,4.085,0,4,"ring","match",1052
"5794c6a370c76a000124550a",13,"older",1,"FLESH","FLESH",TRUE,4.018,0,1,"balcony","new-new",1053
"5794c6a370c76a000124550a",13,"older",2,"STYLE","STYLE",TRUE,4.052,2,2,"pawn","new-new",1053
"5794c6a370c76a000124550a",13,"older",3,"SERIES","SERIES",TRUE,3.969,1,3,"coin","new-new",1053
"5794c6a370c76a000124550a",13,"older",4,"SPEECH","IDEAS",FALSE,4.801,3,4,"candle","new-new",1053
"5794c6a370c76a000124550a",14,"older",1,"FOOD","FOOD",TRUE,2.95,0,1,"cathedral","new-new",1054
"5794c6a370c76a000124550a",14,"older",2,"LETTER","LETTER",TRUE,3.301,1,2,"hanger","new-new",1054
"5794c6a370c76a000124550a",14,"older",3,"MOMENT","MOMENT",TRUE,5.251,3,3,"aeroplane","new-new",1054
"5794c6a370c76a000124550a",14,"older",4,"MILLER","MILLER",TRUE,3.219,2,4,"sunflower","new-new",1054
"5794c6a370c76a000124550a",15,"older",1,"CLIENT","LIFE",FALSE,6.285,3,1,"razor","old-new",1055
"5794c6a370c76a000124550a",15,"older",2,"SHOTS","SHOTS",TRUE,4.319,1,2,"scissors","new-new",1055
"5794c6a370c76a000124550a",15,"older",3,"LEADER","LEADER",TRUE,3.384,0,3,"helmet","match",1055
"5794c6a370c76a000124550a",15,"older",4,"LIFE","CLIENT",FALSE,2.8,2,4,"carrot","mis-match",1055
"5794c6a370c76a000124550a",16,"older",1,"SPIRIT","BOYS",FALSE,5.768,1,1,"monkey","new-new",1056
"5794c6a370c76a000124550a",16,"older",2,"CARS","CARS",TRUE,2.768,0,2,"motorbike","new-new",1056
"5794c6a370c76a000124550a",16,"older",3,"LIFE","MILE",FALSE,3,3,3,"dice","new-new",1056
"5794c6a370c76a000124550a",16,"older",4,"?","SPIRIT",FALSE,2.251,2,4,"tractor","new-new",1056
"58cefdb030c4cf0001ceb3ac",1,"older",1,"LOTS","LOTS",TRUE,3.4808,0,1,"stool","new-new",1153
"58cefdb030c4cf0001ceb3ac",1,"older",2,"LETTER","LETTER",TRUE,3.80114,3,2,"coin","new-new",1153
"58cefdb030c4cf0001ceb3ac",1,"older",3,"VALLEY","IDEAS",FALSE,2.765945,2,3,"mirror","new-new",1153
"58cefdb030c4cf0001ceb3ac",1,"older",4,"IDEA","VALLEY",FALSE,2.74919,1,4,"bench","new-new",1153
"58cefdb030c4cf0001ceb3ac",2,"older",1,"POLICY","POLICY",TRUE,2.843595,3,1,"candle","mis-match",1154
"58cefdb030c4cf0001ceb3ac",2,"older",2,"MONTH","MONTH",TRUE,2.216705,2,2,"calendar","new-new",1154
"58cefdb030c4cf0001ceb3ac",2,"older",3,"CASINO","CASINO",TRUE,2.316765,0,3,"motorbike","match",1154
"58cefdb030c4cf0001ceb3ac",2,"older",4,"PILLS","PILLS",TRUE,1.566375,1,4,"sunflower","old-new",1154
"58cefdb030c4cf0001ceb3ac",3,"older",1,"SALES","SALE",FALSE,4.565205,1,1,"megaphone","new-new",1155
"58cefdb030c4cf0001ceb3ac",3,"older",2,"DIRT","FLIGHT",FALSE,3.250995,3,2,"bolt","new-new",1155
"58cefdb030c4cf0001ceb3ac",3,"older",3,"FLIGHT","DIRT",FALSE,2.399095,2,3,"scissors","new-new",1155
"58cefdb030c4cf0001ceb3ac",3,"older",4,"CANDY","CANDY",TRUE,1.54951,0,4,"taxi","new-new",1155
"58cefdb030c4cf0001ceb3ac",4,"older",1,"FAMILY","FAMILY",TRUE,2.29746,3,1,"dice","match",1156
"58cefdb030c4cf0001ceb3ac",4,"older",2,"COPS","COPS",TRUE,1.68311,0,2,"hanger","old-new",1156
"58cefdb030c4cf0001ceb3ac",4,"older",3,"ESTATE","ROOF",FALSE,3.285775,2,3,"suitcase","mis-match",1156
"58cefdb030c4cf0001ceb3ac",4,"older",4,"ROOF","ESTATE",FALSE,2.04986,1,4,"diamond","new-new",1156
"58cefdb030c4cf0001ceb3ac",5,"older",1,"AGENT","AGENT",TRUE,3.148495,0,1,"balcony","new-new",1157
"58cefdb030c4cf0001ceb3ac",5,"older",2,"BEAUTY","BEAUTY",TRUE,3.413905,3,2,"peg","new-new",1157
"58cefdb030c4cf0001ceb3ac",5,"older",3,"HOTEL","HOTEL",TRUE,3.016095,1,3,"pepper","new-new",1157
"58cefdb030c4cf0001ceb3ac",5,"older",4,"CLOCK","CLOCK",TRUE,1.581735,2,4,"helmet","new-new",1157
"58cefdb030c4cf0001ceb3ac",6,"older",1,"HONEY","HONEY",TRUE,4.54953,1,1,"wheelbarrow","new-new",1158
"58cefdb030c4cf0001ceb3ac",6,"older",2,"APPLE","APPLE",TRUE,2.88252,3,2,"windmill","mis-match",1158
"58cefdb030c4cf0001ceb3ac",6,"older",3,"MOMENT","DUDE",FALSE,4.602005,0,3,"skateboard","old-new",1158
"58cefdb030c4cf0001ceb3ac",6,"older",4,"MOMENT","MOMENT",TRUE,2.850985,2,4,"stamp","match",1158
"58cefdb030c4cf0001ceb3ac",7,"older",1,"FLESH","FLESH",TRUE,5.50006,3,1,"shovel","new-new",1159
"58cefdb030c4cf0001ceb3ac",7,"older",2,"T","TOILET",FALSE,9.989235,0,2,"mushroom","old-new",1159
"58cefdb030c4cf0001ceb3ac",7,"older",3,"HOUSE","HOUSE",TRUE,6.88561,2,3,"microphone","mis-match",1159
"58cefdb030c4cf0001ceb3ac",7,"older",4,"WRITER","WRITER",TRUE,2.582495,1,4,"cathedral","match",1159
"58cefdb030c4cf0001ceb3ac",8,"older",1,"TEAR","TEAR",TRUE,4.24933,2,1,"pear","new-new",1160
"58cefdb030c4cf0001ceb3ac",8,"older",2,"AREA","AREA",TRUE,5.31798,0,2,"aeroplane","mis-match",1160
"58cefdb030c4cf0001ceb3ac",8,"older",3,"TEAR","THING",FALSE,9.55448,3,3,"crown","old-new",1160
"58cefdb030c4cf0001ceb3ac",8,"older",4,"WOMEN","WOMEN",TRUE,1.76463,1,4,"salt","match",1160
"58cefdb030c4cf0001ceb3ac",9,"older",1,"SERIES","SERIES",TRUE,3.01489,3,1,"rug","match",1161
"58cefdb030c4cf0001ceb3ac",9,"older",2,"NIGHT","NIGHT",TRUE,5.119815,1,2,"tyre","mis-match",1161
"58cefdb030c4cf0001ceb3ac",9,"older",3,"DEMON","DEMON",TRUE,1.814995,2,3,"pawn","new-new",1161
"58cefdb030c4cf0001ceb3ac",9,"older",4,"BATH","BATH",TRUE,1.48302,0,4,"anchor","old-new",1161
"58cefdb030c4cf0001ceb3ac",10,"older",1,"SPIRIT","SPIRIT",TRUE,8.76808,0,1,"ring","new-new",1162
"58cefdb030c4cf0001ceb3ac",10,"older",2,"MILE","MILE",TRUE,2.64901,1,2,"map","match",1162
"58cefdb030c4cf0001ceb3ac",10,"older",3,"BATH","STYLE",FALSE,5.652785,3,3,"telephone","mis-match",1162
"58cefdb030c4cf0001ceb3ac",10,"older",4,"BELT","BELT",TRUE,3.49953,2,4,"boot","old-new",1162
"58cefdb030c4cf0001ceb3ac",11,"older",1,"DOZEN","DOZEN",TRUE,4.765845,0,1,"cart","match",1163
"58cefdb030c4cf0001ceb3ac",11,"older",2,"ADVICE","ADVICE",TRUE,3.61685,3,2,"razor","old-new",1163
"58cefdb030c4cf0001ceb3ac",11,"older",3,"PHOTO","PHOTO",TRUE,3.89993,2,3,"dart","new-new",1163
"58cefdb030c4cf0001ceb3ac",11,"older",4,"SYSTEM","SYSTEM",TRUE,2.599185,1,4,"basket","mis-match",1163
"58cefdb030c4cf0001ceb3ac",12,"older",1,"ARTIST","ARTIST",TRUE,2.93138,3,1,"frame","new-new",1164
"58cefdb030c4cf0001ceb3ac",12,"older",2,"DEATH","DEATH",TRUE,1.91654,2,2,"gorilla","new-new",1164
"58cefdb030c4cf0001ceb3ac",12,"older",3,"SHOTS","SHOTS",TRUE,3.28435,0,3,"backpack","new-new",1164
"58cefdb030c4cf0001ceb3ac",12,"older",4,"FEET","FEET",TRUE,1.64831,1,4,"kettle","new-new",1164
"58cefdb030c4cf0001ceb3ac",13,"older",1,"WEAPON","BODY",FALSE,6.083685,3,1,"pencil","new-new",1165
"58cefdb030c4cf0001ceb3ac",13,"older",2,"MILLER","MILLER",TRUE,4.834065,1,2,"cap","old-new",1165
"58cefdb030c4cf0001ceb3ac",13,"older",3,"PENNY","PENNY",TRUE,1.91526,2,3,"monkey","match",1165
"58cefdb030c4cf0001ceb3ac",13,"older",4,"WEAPON","WEAPON",TRUE,4.018075,0,4,"wheel","mis-match",1165
"58cefdb030c4cf0001ceb3ac",14,"older",1,"DANGER","DANGER",TRUE,5.04978,1,1,"tray","new-new",1166
"58cefdb030c4cf0001ceb3ac",14,"older",2,"WEAPON","RECORD",FALSE,2.348725,0,2,"runner","new-new",1166
"58cefdb030c4cf0001ceb3ac",14,"older",3,"FOOD","FOOD",TRUE,1.382815,2,3,"watch","new-new",1166
"58cefdb030c4cf0001ceb3ac",14,"older",4,"JUNGLE","JUNGLE",TRUE,2.166735,3,4,"cherry","new-new",1166
"58cefdb030c4cf0001ceb3ac",15,"older",1,"PRINCE","PRINCE",TRUE,3.64825,3,1,"perfume","old-new",1167
"58cefdb030c4cf0001ceb3ac",15,"older",2,"SAKE","SAKE",TRUE,4.56854,2,2,"spoon","new-new",1167
"58cefdb030c4cf0001ceb3ac",15,"older",3,"LIFE","LIFE",TRUE,1.89887,0,3,"carrot","match",1167
"58cefdb030c4cf0001ceb3ac",15,"older",4,"RIVER","RIVER",TRUE,2.767055,1,4,"sun","mis-match",1167
"58cefdb030c4cf0001ceb3ac",16,"older",1,"NATION","NATION",TRUE,5.09948,2,1,"planet","new-new",1168
"58cefdb030c4cf0001ceb3ac",16,"older",2,"GLASS","GLASS",TRUE,2.83286,3,2,"tractor","new-new",1168
"58cefdb030c4cf0001ceb3ac",16,"older",3,"BOYS","YARD",FALSE,4.33388,1,3,"goose","new-new",1168
"58cefdb030c4cf0001ceb3ac",16,"older",4,"YARD","BOYS",FALSE,3.56671,0,4,"daisy","new-new",1168
"5973bad6e703200001ad2b86",1,"older",1,"SYSTEM","SYSTEM",TRUE,9.99033,0,1,"sun","new-new",897
"5973bad6e703200001ad2b86",1,"older",2,"TEAR","ARTIST",FALSE,9.990965,1,2,"calendar","mis-match",897
"5973bad6e703200001ad2b86",1,"older",3,"TEAR","TEAR",TRUE,9.991905,2,3,"hanger","old-new",897
"5973bad6e703200001ad2b86",1,"older",4,"LETTER","LETTER",TRUE,9.99139,3,4,"mirror","match",897
"5973bad6e703200001ad2b86",2,"older",1,"SAKE","SAKE",TRUE,9.989485,3,1,"motorbike","old-new",898
"5973bad6e703200001ad2b86",2,"older",2,"DEMON","DEMON",TRUE,9.99108,1,2,"telephone","mis-match",898
"5973bad6e703200001ad2b86",2,"older",3,"AREA","AREA",TRUE,9.989985,2,3,"shovel","match",898
"5973bad6e703200001ad2b86",2,"older",4,"ADVICE","ADVICE",TRUE,9.991405,0,4,"megaphone","new-new",898
"5973bad6e703200001ad2b86",3,"older",1,"FLIGHT","FLIGHT",TRUE,9.99155,0,1,"wheel","new-new",899
"5973bad6e703200001ad2b86",3,"older",2,"CANDY","CANDY",TRUE,9.99226,1,2,"tractor","new-new",899
"5973bad6e703200001ad2b86",3,"older",3,"FEET","FEET",TRUE,10.001545,2,3,"runner","new-new",899
"5973bad6e703200001ad2b86",3,"older",4,"RUN","CLIENT",FALSE,9.99197,3,4,"watch","new-new",899
"5973bad6e703200001ad2b86",4,"older",1,"SUN","JUNGLE",FALSE,9.98874,1,1,"planet","old-new",900
"5973bad6e703200001ad2b86",4,"older",2,"?","BATH",FALSE,9.9889,2,2,"spoon","match",900
"5973bad6e703200001ad2b86",4,"older",3,"BEAUTY","BELT",FALSE,9.99191,3,3,"wheelbarrow","new-new",900
"5973bad6e703200001ad2b86",4,"older",4,"POLITE","POLICY",FALSE,9.99195,0,4,"pepper","mis-match",900
"5973bad6e703200001ad2b86",5,"older",1,"BODY","BODY",TRUE,9.989535,0,1,"daisy","old-new",901
"5973bad6e703200001ad2b86",5,"older",2,"NATION","NATION",TRUE,9.992275,3,2,"stamp","match",901
"5973bad6e703200001ad2b86",5,"older",3,"PENNY","PENNY",TRUE,9.99115,1,3,"stool","new-new",901
"5973bad6e703200001ad2b86",5,"older",4,"TOILET","TOILET",TRUE,9.99176,2,4,"anchor","mis-match",901
"5973bad6e703200001ad2b86",6,"older",1,"GODS","GODS",TRUE,9.991575,2,1,"perfume","new-new",902
"5973bad6e703200001ad2b86",6,"older",2,"DANGER","DANGER",TRUE,9.99228,0,2,"crown","new-new",902
"5973bad6e703200001ad2b86",6,"older",3,"FRIENDS","FRIEND",FALSE,9.991565,3,3,"balcony","new-new",902
"5973bad6e703200001ad2b86",6,"older",4,"VALUES","VALLEY",FALSE,9.99198,1,4,"basket","new-new",902
"5973bad6e703200001ad2b86",7,"older",1,"APPLE","APPLE",TRUE,9.989845,0,1,"dice","new-new",903
"5973bad6e703200001ad2b86",7,"older",2,"ROOF","ROOF",TRUE,9.991235,2,2,"rug","match",903
"5973bad6e703200001ad2b86",7,"older",3,"IDEAS","IDEAS",TRUE,9.991525,3,3,"coin","mis-match",903
"5973bad6e703200001ad2b86",7,"older",4,"IDEAS","MOMENT",FALSE,9.99067,1,4,"boot","old-new",903
"5973bad6e703200001ad2b86",8,"older",1,"?","HONEY",FALSE,9.99202,0,1,"kettle","old-new",904
"5973bad6e703200001ad2b86",8,"older",2,"CLOSE","CLOCK",FALSE,9.99087,2,2,"pear","new-new",904
"5973bad6e703200001ad2b86",8,"older",3,"PLENTY","PLENTY",TRUE,9.992925,1,3,"salt","mis-match",904
"5973bad6e703200001ad2b86",8,"older",4,"STYLE","STYLE",TRUE,9.991735,3,4,"suitcase","match",904
"5973bad6e703200001ad2b86",9,"older",1,"?","SPEECH",FALSE,9.990555,2,1,"carrot","mis-match",905
"5973bad6e703200001ad2b86",9,"older",2,"YARD","YARD",TRUE,9.99135,0,2,"monkey","match",905
"5973bad6e703200001ad2b86",9,"older",3,"DIRT","DIRT",TRUE,9.99171,1,3,"scissors","old-new",905
"5973bad6e703200001ad2b86",9,"older",4,"MILE","MILE",TRUE,9.992975,3,4,"taxi","new-new",905
"5973bad6e703200001ad2b86",10,"older",1,"AGENT","AGENT",TRUE,9.990645,2,1,"goose","new-new",906
"5973bad6e703200001ad2b86",10,"older",2,"SERVICE","MILLER",FALSE,10.0043,3,2,"bolt","new-new",906
"5973bad6e703200001ad2b86",10,"older",3,"SERVICE","SERIES",FALSE,9.99148,0,3,"tyre","new-new",906
"5973bad6e703200001ad2b86",10,"older",4,"SALE","SALE",TRUE,9.9917,1,4,"diamond","new-new",906
"5973bad6e703200001ad2b86",11,"older",1,"FOOD","FOOD",TRUE,9.9908,1,1,"dart","new-new",907
"5973bad6e703200001ad2b86",11,"older",2,"PRINCE","PRINCE",TRUE,9.99219,3,2,"peg","mis-match",907
"5973bad6e703200001ad2b86",11,"older",3,"HOUSE","HOUSE",TRUE,9.991705,2,3,"mushroom","match",907
"5973bad6e703200001ad2b86",11,"older",4,"THING","THING",TRUE,9.991195,0,4,"frame","old-new",907
"5973bad6e703200001ad2b86",12,"older",1,"WEAPON","WEAPON",TRUE,9.990155,2,1,"cherry","new-new",908
"5973bad6e703200001ad2b86",12,"older",2,"WRITER","WRITER",TRUE,9.99206,0,2,"cap","mis-match",908
"5973bad6e703200001ad2b86",12,"older",3,"KIND","KIND",TRUE,9.995905,1,3,"candle","match",908
"5973bad6e703200001ad2b86",12,"older",4,"WOMEN","WOMEN",TRUE,10.002665,3,4,"microphone","old-new",908
"5973bad6e703200001ad2b86",13,"older",1,"FLESH","FLESH",TRUE,9.988155,1,1,"windmill","new-new",909
"5973bad6e703200001ad2b86",13,"older",2,"DOZEN","DOZEN",TRUE,9.99791,0,2,"gorilla","new-new",909
"5973bad6e703200001ad2b86",13,"older",3,"TRAYS","CARS",FALSE,10.00257,2,3,"tray","new-new",909
"5973bad6e703200001ad2b86",13,"older",4,"LOTS","LOTS",TRUE,9.991865,3,4,"backpack","new-new",909
"5973bad6e703200001ad2b86",14,"older",1,"PILLS","PILLS",TRUE,9.991815,0,1,"skateboard","new-new",910
"5973bad6e703200001ad2b86",14,"older",2,"RECORD","RECORD",TRUE,9.99332,1,2,"razor","new-new",910
"5973bad6e703200001ad2b86",14,"older",3,"NIGHT","NIGHT",TRUE,9.99045,3,3,"bench","new-new",910
"5973bad6e703200001ad2b86",14,"older",4,"RING","FAMILY",FALSE,9.991645,2,4,"ring","new-new",910
"5973bad6e703200001ad2b86",15,"older",1,"CASINO","CASINO",TRUE,9.99081,2,1,"helmet","match",911
"5973bad6e703200001ad2b86",15,"older",2,"PHOTO","PHOTO",TRUE,9.992425,1,2,"cathedral","mis-match",911
"5973bad6e703200001ad2b86",15,"older",3,"ESTATE","GIRL",FALSE,9.99107,3,3,"pencil","old-new",911
"5973bad6e703200001ad2b86",15,"older",4,"PHOTO","ESTATE",FALSE,9.991385,0,4,"map","new-new",911
"5973bad6e703200001ad2b86",16,"older",1,"LIFE","SHOTS",FALSE,9.99077,2,1,"cart","new-new",912
"5973bad6e703200001ad2b86",16,"older",2,"LEADER","LEADER",TRUE,9.99179,0,2,"sunflower","new-new",912
"5973bad6e703200001ad2b86",16,"older",3,"DEATH","DEATH",TRUE,9.99166,1,3,"aeroplane","new-new",912
"5973bad6e703200001ad2b86",16,"older",4,"SHOTS","LIFE",FALSE,9.992375,3,4,"pawn","new-new",912
"59bbd2d4178f1b0001828bbb",1,"younger",1,"MONTH","MONTH",TRUE,2.210815,2,1,"calendar","new-new",529
"59bbd2d4178f1b0001828bbb",1,"younger",2,"POLICY","POLICY",TRUE,3.163465,3,2,"candle","mis-match",529
"59bbd2d4178f1b0001828bbb",1,"younger",3,"CASION","CASINO",FALSE,2.26341,0,3,"motorbike","match",529
"59bbd2d4178f1b0001828bbb",1,"younger",4,"PILLS","PILLS",TRUE,1.97943,1,4,"sunflower","old-new",529
"59bbd2d4178f1b0001828bbb",2,"younger",1,"SALE","SALE",TRUE,2.48353,1,1,"megaphone","new-new",530
"59bbd2d4178f1b0001828bbb",2,"younger",2,"CANDY","CANDY",TRUE,1.979475,0,2,"taxi","new-new",530
"59bbd2d4178f1b0001828bbb",2,"younger",3,"FLIGHT","FLIGHT",TRUE,3.180135,3,3,"bolt","new-new",530
"59bbd2d4178f1b0001828bbb",2,"younger",4,"DIRTY","DIRT",FALSE,1.779325,2,4,"scissors","new-new",530
"59bbd2d4178f1b0001828bbb",3,"younger",1,"FEET","ARTIST",FALSE,7.407775,3,1,"frame","new-new",531
"59bbd2d4178f1b0001828bbb",3,"younger",2,"FEET","FEET",TRUE,4.07787,1,2,"kettle","new-new",531
"59bbd2d4178f1b0001828bbb",3,"younger",3,"DEATH","DEATH",TRUE,2.26187,2,3,"gorilla","new-new",531
"59bbd2d4178f1b0001828bbb",3,"younger",4,"SHOTS","SHOTS",TRUE,2.096215,0,4,"backpack","new-new",531
"59bbd2d4178f1b0001828bbb",4,"younger",1,"HOUSE","HOUSE",TRUE,2.112355,2,1,"microphone","mis-match",532
"59bbd2d4178f1b0001828bbb",4,"younger",2,"TOILET","TOILET",TRUE,5.709205,0,2,"mushroom","old-new",532
"59bbd2d4178f1b0001828bbb",4,"younger",3,"FLESH","FLESH",TRUE,2.410855,3,3,"shovel","new-new",532
"59bbd2d4178f1b0001828bbb",4,"younger",4,"WRITER","WRITER",TRUE,2.04346,1,4,"cathedral","match",532
"59bbd2d4178f1b0001828bbb",5,"younger",1,"SYSTEM","SYSTEM",TRUE,3.360375,1,1,"basket","mis-match",533
"59bbd2d4178f1b0001828bbb",5,"younger",2,"ADVICE","ADVICE",TRUE,4.149985,3,2,"razor","old-new",533
"59bbd2d4178f1b0001828bbb",5,"younger",3,"DOZEN","DOZEN",TRUE,2.22901,0,3,"cart","match",533
"59bbd2d4178f1b0001828bbb",5,"younger",4,"FRIENDS","PHOTO",FALSE,5.325365,2,4,"dart","new-new",533
"59bbd2d4178f1b0001828bbb",6,"younger",1,"MILLER","MILLER",TRUE,2.47552,1,1,"cap","old-new",534
"59bbd2d4178f1b0001828bbb",6,"younger",2,"PENNY","PENNY",TRUE,2.94621,2,2,"monkey","match",534
"59bbd2d4178f1b0001828bbb",6,"younger",3,"WEAPON","WEAPON",TRUE,2.213355,0,3,"wheel","mis-match",534
"59bbd2d4178f1b0001828bbb",6,"younger",4,"BODY","BODY",TRUE,2.013575,3,4,"pencil","new-new",534
"59bbd2d4178f1b0001828bbb",7,"younger",1,"PRINCE","PRINCE",TRUE,4.37555,3,1,"perfume","old-new",535
"59bbd2d4178f1b0001828bbb",7,"younger",2,"LIFE","LIFE",TRUE,1.548285,0,2,"carrot","match",535
"59bbd2d4178f1b0001828bbb",7,"younger",3,"RIVER","RIVER",TRUE,2.36174,1,3,"sun","mis-match",535
"59bbd2d4178f1b0001828bbb",7,"younger",4,"SAKE","SAKE",TRUE,2.36277,2,4,"spoon","new-new",535
"59bbd2d4178f1b0001828bbb",8,"younger",1,"LETTER","LETTER",TRUE,3.02282,3,1,"coin","new-new",536
"59bbd2d4178f1b0001828bbb",8,"younger",2,"VALLEY","VALLEY",TRUE,2.19649,1,2,"bench","new-new",536
"59bbd2d4178f1b0001828bbb",8,"younger",3,"LOTS","LOTS",TRUE,1.646125,0,3,"stool","new-new",536
"59bbd2d4178f1b0001828bbb",8,"younger",4,"IDEAS","IDEAS",TRUE,3.43076,2,4,"mirror","new-new",536
"59bbd2d4178f1b0001828bbb",9,"younger",1,"BATH","BATH",TRUE,1.975435,0,1,"anchor","old-new",537
"59bbd2d4178f1b0001828bbb",9,"younger",2,"SERIES","SERIES",TRUE,2.046915,3,2,"rug","match",537
"59bbd2d4178f1b0001828bbb",9,"younger",3,"DEMON","DEMON",TRUE,2.463605,2,3,"pawn","new-new",537
"59bbd2d4178f1b0001828bbb",9,"younger",4,"NIGHT","NIGHT",TRUE,2.547355,1,4,"tyre","mis-match",537
"59bbd2d4178f1b0001828bbb",10,"younger",1,"MOMENT","APPLE",FALSE,2.827545,3,1,"windmill","mis-match",538
"59bbd2d4178f1b0001828bbb",10,"younger",2,"MOMENT","MOMENT",TRUE,4.793915,2,2,"stamp","match",538
"59bbd2d4178f1b0001828bbb",10,"younger",3,"DUDE","DUDE",TRUE,2.246655,0,3,"skateboard","old-new",538
"59bbd2d4178f1b0001828bbb",10,"younger",4,"HONEY","HONEY",TRUE,2.114565,1,4,"wheelbarrow","new-new",538
"59bbd2d4178f1b0001828bbb",11,"younger",1,"SPIRIT","SPIRIT",TRUE,4.1098,0,1,"ring","new-new",539
"59bbd2d4178f1b0001828bbb",11,"younger",2,"MILE","MILE",TRUE,1.57964,1,2,"map","match",539
"59bbd2d4178f1b0001828bbb",11,"younger",3,"BELT","BELT",TRUE,3.063645,2,3,"boot","old-new",539
"59bbd2d4178f1b0001828bbb",11,"younger",4,"APPLE","STYLE",FALSE,7.74128,3,4,"telephone","mis-match",539
"59bbd2d4178f1b0001828bbb",12,"younger",1,"AGENT","AGENT",TRUE,2.055415,0,1,"balcony","new-new",540
"59bbd2d4178f1b0001828bbb",12,"younger",2,"BEAUTY","BEAUTY",TRUE,2.446575,3,2,"peg","new-new",540
"59bbd2d4178f1b0001828bbb",12,"younger",3,"HOTEL","HOTEL",TRUE,1.9795,1,3,"pepper","new-new",540
"59bbd2d4178f1b0001828bbb",12,"younger",4,"CLOCK","CLOCK",TRUE,1.39935,2,4,"helmet","new-new",540
"59bbd2d4178f1b0001828bbb",13,"younger",1,"ROOF","ROOF",TRUE,3.0758,2,1,"suitcase","mis-match",541
"59bbd2d4178f1b0001828bbb",13,"younger",2,"ESTATE","ESTATE",TRUE,1.9475,1,2,"diamond","new-new",541
"59bbd2d4178f1b0001828bbb",13,"younger",3,"FAMILY","FAMILY",TRUE,2.00097,3,3,"dice","match",541
"59bbd2d4178f1b0001828bbb",13,"younger",4,"LEADER","COPS",FALSE,3.563055,0,4,"hanger","old-new",541
"59bbd2d4178f1b0001828bbb",14,"younger",1,"JUNGLE","JUNGLE",TRUE,2.593495,3,1,"cherry","new-new",542
"59bbd2d4178f1b0001828bbb",14,"younger",2,"FOOD","FOOD",TRUE,1.647105,2,2,"watch","new-new",542
"59bbd2d4178f1b0001828bbb",14,"younger",3,"RECORD","RECORD",TRUE,2.331355,0,3,"runner","new-new",542
"59bbd2d4178f1b0001828bbb",14,"younger",4,"DANGER","DANGER",TRUE,1.630795,1,4,"tray","new-new",542
"59bbd2d4178f1b0001828bbb",15,"younger",1,"YARD","YARD",TRUE,1.878505,1,1,"goose","new-new",543
"59bbd2d4178f1b0001828bbb",15,"younger",2,"NATION","GLASS",FALSE,1.765715,3,2,"tractor","new-new",543
"59bbd2d4178f1b0001828bbb",15,"younger",3,"GLASS","NATION",FALSE,2.38118,2,3,"planet","new-new",543
"59bbd2d4178f1b0001828bbb",15,"younger",4,"BOYS","BOYS",TRUE,2.146615,0,4,"daisy","new-new",543
"59bbd2d4178f1b0001828bbb",16,"younger",1,"TEAR","TEAR",TRUE,3.596735,2,1,"pear","new-new",544
"59bbd2d4178f1b0001828bbb",16,"younger",2,"WOMEN","WOMEN",TRUE,2.82905,1,2,"salt","match",544
"59bbd2d4178f1b0001828bbb",16,"younger",3,"AREA","AREA",TRUE,1.530155,0,3,"aeroplane","mis-match",544
"59bbd2d4178f1b0001828bbb",16,"younger",4,"THING","THING",TRUE,3.11795,3,4,"crown","old-new",544
"5a6fa677c2eb6c00017e042e",1,"younger",1,"BOYS","SPIRIT",FALSE,1.848965,2,1,"tractor","new-new",705
"5a6fa677c2eb6c00017e042e",1,"younger",2,"SPIRIT","BOYS",FALSE,2.283,1,2,"monkey","new-new",705
"5a6fa677c2eb6c00017e042e",1,"younger",3,"CARS","CARS",TRUE,1.44976,0,3,"motorbike","new-new",705
"5a6fa677c2eb6c00017e042e",1,"younger",4,"MILES","MILE",FALSE,1.13307,3,4,"dice","new-new",705
"5a6fa677c2eb6c00017e042e",2,"younger",1,"CLIENT","CLIENT",TRUE,1.76508,2,1,"carrot","mis-match",706
"5a6fa677c2eb6c00017e042e",2,"younger",2,"SHOTS","SHOTS",TRUE,1.616375,1,2,"scissors","new-new",706
"5a6fa677c2eb6c00017e042e",2,"younger",3,"CLIENT","LIFE",FALSE,3.082895,3,3,"razor","old-new",706
"5a6fa677c2eb6c00017e042e",2,"younger",4,"LEADER","LEADER",TRUE,1.38283,0,4,"helmet","match",706
"5a6fa677c2eb6c00017e042e",3,"younger",1,"VALLEY","VALLEY",TRUE,3.815595,2,1,"megaphone","old-new",707
"5a6fa677c2eb6c00017e042e",3,"younger",2,"DOZEN","PHOTO",FALSE,1.86596,1,2,"spoon","mis-match",707
"5a6fa677c2eb6c00017e042e",3,"younger",3,"COPS","COPS",TRUE,1.64957,3,3,"pencil","match",707
"5a6fa677c2eb6c00017e042e",3,"younger",4,"PHOTO","DOZEN",FALSE,4.582955,0,4,"basket","new-new",707
"5a6fa677c2eb6c00017e042e",4,"younger",1,"GIRLS","BODY",FALSE,2.88239,3,1,"cherry","old-new",708
"5a6fa677c2eb6c00017e042e",4,"younger",2,"DOZEN","GIRL",FALSE,1.36643,2,2,"tray","match",708
"5a6fa677c2eb6c00017e042e",4,"younger",3,"YEAR","WOMEN",FALSE,1.582915,0,3,"wheel","mis-match",708
"5a6fa677c2eb6c00017e042e",4,"younger",4,"COPS","PRINCE",FALSE,1.749775,1,4,"windmill","new-new",708
"5a6fa677c2eb6c00017e042e",5,"younger",1,"BELTS","BELT",FALSE,1.81572,1,1,"wheelbarrow","old-new",709
"5a6fa677c2eb6c00017e042e",5,"younger",2,"BELTS","TEAR",FALSE,2.61621,3,2,"calendar","new-new",709
"5a6fa677c2eb6c00017e042e",5,"younger",3,"ADVICE","ADVICE",TRUE,1.883175,2,3,"stamp","mis-match",709
"5a6fa677c2eb6c00017e042e",5,"younger",4,"TEARS","LOTS",FALSE,0.949875,0,4,"microphone","match",709
"5a6fa677c2eb6c00017e042e",6,"younger",1,"SPEECH","SPEECH",TRUE,1.998975,3,1,"pear","new-new",710
"5a6fa677c2eb6c00017e042e",6,"younger",2,"ADVICE","CASINO",FALSE,4.29976,2,2,"map","mis-match",710
"5a6fa677c2eb6c00017e042e",6,"younger",3,"SAKE","SAKE",TRUE,1.43266,0,3,"ring","match",710
"5a6fa677c2eb6c00017e042e",6,"younger",4,"APPLE","APPLE",TRUE,2.083105,1,4,"stool","old-new",710
"5a6fa677c2eb6c00017e042e",7,"younger",1,"RECORD","RECORD",TRUE,1.41589,3,1,"sun","new-new",711
"5a6fa677c2eb6c00017e042e",7,"younger",2,"ADVICE","DANGER",FALSE,2.53303,2,2,"skateboard","new-new",711
"5a6fa677c2eb6c00017e042e",7,"younger",3,"CHEERY","NATION",FALSE,2.64952,0,3,"pepper","new-new",711
"5a6fa677c2eb6c00017e042e",7,"younger",4,"PHOTO","POLICY",FALSE,3.782965,1,4,"frame","new-new",711
"5a6fa677c2eb6c00017e042e",8,"younger",1,"SALE","SALE",TRUE,1.332385,0,1,"kettle","new-new",712
"5a6fa677c2eb6c00017e042e",8,"younger",2,"SAKE","ESTATE",FALSE,2.91633,2,2,"dart","new-new",712
"5a6fa677c2eb6c00017e042e",8,"younger",3,"ADVICE","SYSTEM",FALSE,1.56618,1,3,"peg","new-new",712
"5a6fa677c2eb6c00017e042e",8,"younger",4,"SYSTEM","HOUSE",FALSE,2.199665,3,4,"goose","new-new",712
"5a6fa677c2eb6c00017e042e",9,"younger",1,"RIVER","BATH",FALSE,1.949125,2,1,"daisy","mis-match",713
"5a6fa677c2eb6c00017e042e",9,"younger",2,"PILLS","FEET",FALSE,1.63304,3,2,"crown","old-new",713
"5a6fa677c2eb6c00017e042e",9,"younger",3,"SALT","DEMON",FALSE,4.133035,1,3,"salt","new-new",713
"5a6fa677c2eb6c00017e042e",9,"younger",4,"GLASS","GLASS",TRUE,1.39943,0,4,"rug","match",713
"5a6fa677c2eb6c00017e042e",10,"younger",1,"SAKE","DEATH",FALSE,4.29897,2,1,"suitcase","new-new",714
"5a6fa677c2eb6c00017e042e",10,"younger",2,"ROOF","ROOF",TRUE,1.099425,0,2,"planet","new-new",714
"5a6fa677c2eb6c00017e042e",10,"younger",3,"SATURN","NIGHT",FALSE,1.83312,3,3,"cap","new-new",714
"5a6fa677c2eb6c00017e042e",10,"younger",4,"CLOCK","WRITER",FALSE,3.183075,1,4,"watch","new-new",714
"5a6fa677c2eb6c00017e042e",11,"younger",1,"JUNGLE","JUNGLE",TRUE,1.6659,1,1,"anchor","match",715
"5a6fa677c2eb6c00017e042e",11,"younger",2,"THING","FRIEND",FALSE,2.182975,3,2,"taxi","old-new",715
"5a6fa677c2eb6c00017e042e",11,"younger",3,"FRIEND","DIRT",FALSE,1.39954,0,3,"mirror","new-new",715
"5a6fa677c2eb6c00017e042e",11,"younger",4,"DIRT","THING",FALSE,1.29969,2,4,"runner","mis-match",715
"5a6fa677c2eb6c00017e042e",12,"younger",1,"STYLE","STYLE",TRUE,3.149135,2,1,"pawn","new-new",716
"5a6fa677c2eb6c00017e042e",12,"younger",2,"FRES","SERIES",FALSE,1.19969,1,2,"coin","new-new",716
"5a6fa677c2eb6c00017e042e",12,"younger",3,"THINGS","IDEAS",FALSE,3.233015,3,3,"candle","new-new",716
"5a6fa677c2eb6c00017e042e",12,"younger",4,"FRESH","FLESH",FALSE,1.132795,0,4,"balcony","new-new",716
"5a6fa677c2eb6c00017e042e",13,"younger",1,"MILLER","LETTER",FALSE,2.665785,1,1,"hanger","new-new",717
"5a6fa677c2eb6c00017e042e",13,"younger",2,"FOOD","MILLER",FALSE,1.76641,2,2,"sunflower","new-new",717
"5a6fa677c2eb6c00017e042e",13,"younger",3,"MILLER","FOOD",FALSE,1.866355,0,3,"cathedral","new-new",717
"5a6fa677c2eb6c00017e042e",13,"younger",4,"MOMENT","MOMENT",TRUE,1.34981,3,4,"aeroplane","new-new",717
"5a6fa677c2eb6c00017e042e",14,"younger",1,"AREA","WEAPON",FALSE,1.99902,2,1,"boot","new-new",718
"5a6fa677c2eb6c00017e042e",14,"younger",2,"STOOL","AREA",FALSE,3.899695,0,2,"bench","old-new",718
"5a6fa677c2eb6c00017e042e",14,"younger",3,"WEAPON","RIVER",FALSE,1.88285,1,3,"backpack","mis-match",718
"5a6fa677c2eb6c00017e042e",14,"younger",4,"MARRY","PENNY",FALSE,1.866485,3,4,"shovel","match",718
"5a6fa677c2eb6c00017e042e",15,"younger",1,"YEAR","CANDY",FALSE,2.09916,2,1,"cart","new-new",719
"5a6fa677c2eb6c00017e042e",15,"younger",2,"FLIGHT","YEAR",FALSE,2.04963,1,2,"telephone","mis-match",719
"5a6fa677c2eb6c00017e042e",15,"younger",3,"CANDY","ARTIST",FALSE,1.09974,3,3,"gorilla","old-new",719
"5a6fa677c2eb6c00017e042e",15,"younger",4,"LOTUS","FLIGHT",FALSE,2.233015,0,4,"tyre","match",719
"5a6fa677c2eb6c00017e042e",16,"younger",1,"CLOCK","KIND",FALSE,1.78262,2,1,"perfume","old-new",720
"5a6fa677c2eb6c00017e042e",16,"younger",2,"PLENTY","PLENTY",TRUE,1.96637,1,2,"diamond","mis-match",720
"5a6fa677c2eb6c00017e042e",16,"younger",3,"KIND","YARD",FALSE,1.182955,3,3,"mushroom","new-new",720
"5a6fa677c2eb6c00017e042e",16,"younger",4,"YARD","CLOCK",FALSE,0.932975,0,4,"bolt","match",720
"5a74c608527fd00001462f87",1,"older",1,"STYLE","STYLE",TRUE,3.39476,3,1,"suitcase","match",1137
"5a74c608527fd00001462f87",1,"older",2,"HONEY","HONEY",TRUE,5.24482,0,2,"kettle","old-new",1137
"5a74c608527fd00001462f87",1,"older",3,"PLENTY","PLENTY",TRUE,5.34363,1,3,"salt","mis-match",1137
"5a74c608527fd00001462f87",1,"older",4,"CLOCK","CLOCK",TRUE,3.812585,2,4,"pear","new-new",1137
"5a74c608527fd00001462f87",2,"older",1,"BATH","BATH",TRUE,4.094715,2,1,"spoon","match",1138
"5a74c608527fd00001462f87",2,"older",2,"?","BELT",FALSE,1.41448,3,2,"wheelbarrow","new-new",1138
"5a74c608527fd00001462f87",2,"older",3,"POLICY","POLICY",TRUE,6.7092,0,3,"pepper","mis-match",1138
"5a74c608527fd00001462f87",2,"older",4,"JUNGLE","JUNGLE",TRUE,3.31258,1,4,"planet","old-new",1138
"5a74c608527fd00001462f87",3,"older",1,"SPEED","MILE",FALSE,8.439725,3,1,"taxi","new-new",1139
"5a74c608527fd00001462f87",3,"older",2,"?","SPEECH",FALSE,9.98969,2,2,"carrot","mis-match",1139
"5a74c608527fd00001462f87",3,"older",3,"DIRT","DIRT",TRUE,6.92546,1,3,"scissors","old-new",1139
"5a74c608527fd00001462f87",3,"older",4,"YARD","YARD",TRUE,3.977215,0,4,"monkey","match",1139
"5a74c608527fd00001462f87",4,"older",1,"?","FLESH",FALSE,9.98958,1,1,"windmill","new-new",1140
"5a74c608527fd00001462f87",4,"older",2,"?","CARS",FALSE,9.990635,2,2,"tray","new-new",1140
"5a74c608527fd00001462f87",4,"older",3,"DOWN","DOZEN",FALSE,4.709945,0,3,"gorilla","new-new",1140
"5a74c608527fd00001462f87",4,"older",4,"LOTS","LOTS",TRUE,4.44469,3,4,"backpack","new-new",1140
"5a74c608527fd00001462f87",5,"older",1,"SYSTEM","SYSTEM",TRUE,9.32206,0,1,"sun","new-new",1141
"5a74c608527fd00001462f87",5,"older",2,"ARTIST","TEAR",FALSE,7.436685,2,2,"hanger","old-new",1141
"5a74c608527fd00001462f87",5,"older",3,"ARTIST","ARTIST",TRUE,5.97695,1,3,"calendar","mis-match",1141
"5a74c608527fd00001462f87",5,"older",4,"TEAR","LETTER",FALSE,5.159435,3,4,"mirror","match",1141
"5a74c608527fd00001462f87",6,"older",1,"GIRL","GIRL",TRUE,5.622645,3,1,"pencil","old-new",1142
"5a74c608527fd00001462f87",6,"older",2,"PHOTO","PHOTO",TRUE,6.972605,1,2,"cathedral","mis-match",1142
"5a74c608527fd00001462f87",6,"older",3,"ESTATE","ESTATE",TRUE,5.96018,0,3,"map","new-new",1142
"5a74c608527fd00001462f87",6,"older",4,"?","CASINO",FALSE,1.463995,2,4,"helmet","match",1142
"5a74c608527fd00001462f87",7,"older",1,"?","WEAPON",FALSE,9.99993,2,1,"cherry","new-new",1143
"5a74c608527fd00001462f87",7,"older",2,"WRAP","WRITER",FALSE,7.293315,0,2,"cap","mis-match",1143
"5a74c608527fd00001462f87",7,"older",3,"WOMAN","WOMEN",FALSE,7.87392,3,3,"microphone","old-new",1143
"5a74c608527fd00001462f87",7,"older",4,"KIND","KIND",TRUE,4.977525,1,4,"candle","match",1143
"5a74c608527fd00001462f87",8,"older",1,"NATION","NATION",TRUE,4.45835,3,1,"stamp","match",1144
"5a74c608527fd00001462f87",8,"older",2,"?","PENNY",FALSE,1.067775,1,2,"stool","new-new",1144
"5a74c608527fd00001462f87",8,"older",3,"BELL","BODY",FALSE,7.806015,0,3,"daisy","old-new",1144
"5a74c608527fd00001462f87",8,"older",4,"TOILET","TOILET",TRUE,4.078775,2,4,"anchor","mis-match",1144
"5a74c608527fd00001462f87",9,"older",1,"AREA","AREA",TRUE,3.544815,2,1,"shovel","match",1145
"5a74c608527fd00001462f87",9,"older",2,"DEMON","DEMON",TRUE,3.978445,1,2,"telephone","mis-match",1145
"5a74c608527fd00001462f87",9,"older",3,"?","SAKE",FALSE,0.798165,3,3,"motorbike","old-new",1145
"5a74c608527fd00001462f87",9,"older",4,"ADVICE","ADVICE",TRUE,3.812075,0,4,"megaphone","new-new",1145
"5a74c608527fd00001462f87",10,"older",1,"LEADER","LEADER",TRUE,6.757045,0,1,"sunflower","new-new",1146
"5a74c608527fd00001462f87",10,"older",2,"?","DEATH",FALSE,0.797745,1,2,"aeroplane","new-new",1146
"5a74c608527fd00001462f87",10,"older",3,"SHOTS","LIFE",FALSE,5.910475,3,3,"pawn","new-new",1146
"5a74c608527fd00001462f87",10,"older",4,"LIFE","SHOTS",FALSE,3.312985,2,4,"cart","new-new",1146
"5a74c608527fd00001462f87",11,"older",1,"APPLE","ROOF",FALSE,10.00127,2,1,"rug","match",1147
"5a74c608527fd00001462f87",11,"older",2,"MOMENT","MOMENT",TRUE,7.208845,1,2,"boot","old-new",1147
"5a74c608527fd00001462f87",11,"older",3,"IDEA","IDEAS",FALSE,4.77493,3,3,"coin","mis-match",1147
"5a74c608527fd00001462f87",11,"older",4,"APPLE","APPLE",TRUE,4.34437,0,4,"dice","new-new",1147
"5a74c608527fd00001462f87",12,"older",1,"FLIGHT","FLIGHT",TRUE,8.76982,0,1,"wheel","new-new",1148
"5a74c608527fd00001462f87",12,"older",2,"CLIENT","CLIENT",TRUE,5.59392,3,2,"watch","new-new",1148
"5a74c608527fd00001462f87",12,"older",3,"FEET","FEET",TRUE,3.5619,2,3,"runner","new-new",1148
"5a74c608527fd00001462f87",12,"older",4,"?","CANDY",FALSE,3.66226,1,4,"tractor","new-new",1148
"5a74c608527fd00001462f87",13,"older",1,"FR","FRIEND",FALSE,9.989075,3,1,"balcony","new-new",1149
"5a74c608527fd00001462f87",13,"older",2,"VALE","VALLEY",FALSE,9.439615,1,2,"basket","new-new",1149
"5a74c608527fd00001462f87",13,"older",3,"?","DANGER",FALSE,9.98955,0,3,"crown","new-new",1149
"5a74c608527fd00001462f87",13,"older",4,"DANGER","GODS",FALSE,3.662405,2,4,"perfume","new-new",1149
"5a74c608527fd00001462f87",14,"older",1,"SALE","SALE",TRUE,7.03939,1,1,"diamond","new-new",1150
"5a74c608527fd00001462f87",14,"older",2,"SERIES","MILLER",FALSE,7.293135,3,2,"bolt","new-new",1150
"5a74c608527fd00001462f87",14,"older",3,"?","SERIES",FALSE,0.975765,0,3,"tyre","new-new",1150
"5a74c608527fd00001462f87",14,"older",4,"AGENT","AGENT",TRUE,6.476035,2,4,"goose","new-new",1150
"5a74c608527fd00001462f87",15,"older",1,"NIGHT","NIGHT",TRUE,6.408365,3,1,"bench","new-new",1151
"5a74c608527fd00001462f87",15,"older",2,"FAMILY","FAMILY",TRUE,5.51075,2,2,"ring","new-new",1151
"5a74c608527fd00001462f87",15,"older",3,"PILLS","PILLS",TRUE,5.17706,0,3,"skateboard","new-new",1151
"5a74c608527fd00001462f87",15,"older",4,"RECORD","RECORD",TRUE,4.65865,1,4,"razor","new-new",1151
"5a74c608527fd00001462f87",16,"older",1,"?","HOUSE",FALSE,10.24353,2,1,"mushroom","match",1152
"5a74c608527fd00001462f87",16,"older",2,"?","FOOD",FALSE,9.96871,1,2,"dart","new-new",1152
"5a74c608527fd00001462f87",16,"older",3,"PRINCE","PRINCE",TRUE,5.16062,3,3,"peg","mis-match",1152
"5a74c608527fd00001462f87",16,"older",4,"THISTLE","THING",FALSE,6.45918,0,4,"frame","old-new",1152
"5ac81b1068b65b00018d7881",1,"younger",1,"WEAPON","WEAPON",TRUE,1.815,0,1,"perfume","new-new",721
"5ac81b1068b65b00018d7881",1,"younger",2,"SHOTS","SHOTS",TRUE,1.35,2,2,"windmill","old-new",721
"5ac81b1068b65b00018d7881",1,"younger",3,"LEADER","LEADER",TRUE,1.6,3,3,"crown","mis-match",721
"5ac81b1068b65b00018d7881",1,"younger",4,"LETTER","LETTER",TRUE,1.6,1,4,"stool","match",721
"5ac81b1068b65b00018d7881",2,"younger",1,"PLENTY","PENNY",FALSE,3.683,3,1,"tray","new-new",722
"5ac81b1068b65b00018d7881",2,"younger",2,"SPIRIT","SPIRIT",TRUE,1.567,0,2,"sunflower","new-new",722
"5ac81b1068b65b00018d7881",2,"younger",3,"MONTH","MONTH",TRUE,1.149,2,3,"backpack","new-new",722
"5ac81b1068b65b00018d7881",2,"younger",4,"FEET","FEET",TRUE,1.5,1,4,"cart","new-new",722
"5ac81b1068b65b00018d7881",3,"younger",1,"YEAR","YEAR",TRUE,2.299,0,1,"kettle","mis-match",723
"5ac81b1068b65b00018d7881",3,"younger",2,"FLIGHT","FLIGHT",TRUE,1.299,1,2,"shovel","new-new",723
"5ac81b1068b65b00018d7881",3,"younger",3,"DANGER","DANGER",TRUE,1.05,2,3,"cherry","old-new",723
"5ac81b1068b65b00018d7881",3,"younger",4,"ARTIST","ARTIST",TRUE,1.217,3,4,"wheel","match",723
"5ac81b1068b65b00018d7881",4,"younger",1,"SYSTEM","SYSTEM",TRUE,2.582,2,1,"ring","match",724
"5ac81b1068b65b00018d7881",4,"younger",2,"HOUSE","HOUSE",TRUE,1.666,0,2,"mirror","new-new",724
"5ac81b1068b65b00018d7881",4,"younger",3,"LOTS","LOTS",TRUE,1.95,3,3,"cathedral","mis-match",724
"5ac81b1068b65b00018d7881",4,"younger",4,"PHOTO","PHOTO",TRUE,2.35,1,4,"candle","old-new",724
"5ac81b1068b65b00018d7881",5,"younger",1,"TEAR","TEAR",TRUE,2.166,1,1,"calendar","new-new",725
"5ac81b1068b65b00018d7881",5,"younger",2,"SPEECH","SPEECH",TRUE,1.999,3,2,"spoon","new-new",725
"5ac81b1068b65b00018d7881",5,"younger",3,"FEAR","BATH",FALSE,1.85,0,3,"taxi","new-new",725
"5ac81b1068b65b00018d7881",5,"younger",4,"SISTER","FRIEND",FALSE,2.849,2,4,"planet","new-new",725
"5ac81b1068b65b00018d7881",6,"younger",1,"CASINO","CASINO",TRUE,2.3,3,1,"pepper","new-new",726
"5ac81b1068b65b00018d7881",6,"younger",2,"TIME","WOMEN",FALSE,1.433,1,2,"stamp","new-new",726
"5ac81b1068b65b00018d7881",6,"younger",3,"YARD","YARD",TRUE,1.116,2,3,"wheelbarrow","new-new",726
"5ac81b1068b65b00018d7881",6,"younger",4,"TIME","AGENT",FALSE,1.649,0,4,"watch","new-new",726
"5ac81b1068b65b00018d7881",7,"younger",1,"BELT","BELT",TRUE,1.733,3,1,"peg","new-new",727
"5ac81b1068b65b00018d7881",7,"younger",2,"PILLS","PILLS",TRUE,2.3,2,2,"map","old-new",727
"5ac81b1068b65b00018d7881",7,"younger",3,"PLENTY","PLENTY",TRUE,2.016,0,3,"daisy","match",727
"5ac81b1068b65b00018d7881",7,"younger",4,"POLICY","POLICY",TRUE,2.315,1,4,"boot","mis-match",727
"5ac81b1068b65b00018d7881",8,"younger",1,"CLOCK","CLOCK",TRUE,1.199,3,1,"pencil","mis-match",728
"5ac81b1068b65b00018d7881",8,"younger",2,"NIGHT","NIGHT",TRUE,2.216,0,2,"goose","new-new",728
"5ac81b1068b65b00018d7881",8,"younger",3,"TOILET","TOILET",TRUE,1.733,2,3,"diamond","match",728
"5ac81b1068b65b00018d7881",8,"younger",4,"CARD","CARS",FALSE,3.617,1,4,"microphone","old-new",728
"5ac81b1068b65b00018d7881",9,"younger",1,"GIRL","GIRL",TRUE,1.833,2,1,"basket","match",729
"5ac81b1068b65b00018d7881",9,"younger",2,"DEMON","DEMON",TRUE,1.416,1,2,"bolt","new-new",729
"5ac81b1068b65b00018d7881",9,"younger",3,"CLIENT","CLIENT",TRUE,1.616,0,3,"telephone","old-new",729
"5ac81b1068b65b00018d7881",9,"younger",4,"RIVER","RIVER",TRUE,0.767,3,4,"motorbike","mis-match",729
"5ac81b1068b65b00018d7881",10,"younger",1,"GLASS","GLASS",TRUE,1.549,0,1,"dart","old-new",730
"5ac81b1068b65b00018d7881",10,"younger",2,"SERIES","SERIES",TRUE,1.483,1,2,"coin","match",730
"5ac81b1068b65b00018d7881",10,"younger",3,"ESTATE","ESTATE",TRUE,1.333,2,3,"runner","mis-match",730
"5ac81b1068b65b00018d7881",10,"younger",4,"IDEAS","IDEAS",TRUE,0.949,3,4,"sun","new-new",730
"5ac81b1068b65b00018d7881",11,"younger",1,"HONEY","HONEY",TRUE,1.748,3,1,"suitcase","match",731
"5ac81b1068b65b00018d7881",11,"younger",2,"JUNGLE","JUNGLE",TRUE,2.65,0,2,"salt","mis-match",731
"5ac81b1068b65b00018d7881",11,"younger",3,"LIFE","LIFE",TRUE,2.617,1,3,"carrot","new-new",731
"5ac81b1068b65b00018d7881",11,"younger",4,"BOD","BODY",FALSE,2.449,2,4,"gorilla","old-new",731
"5ac81b1068b65b00018d7881",12,"younger",1,"FAMILY","FAMILY",TRUE,1.749,2,1,"scissors","match",732
"5ac81b1068b65b00018d7881",12,"younger",2,"MOMENT","MOMENT",TRUE,2.366,3,2,"mushroom","mis-match",732
"5ac81b1068b65b00018d7881",12,"younger",3,"FLESH","FLESH",TRUE,1.533,1,3,"pear","new-new",732
"5ac81b1068b65b00018d7881",12,"younger",4,"KIND","KIND",TRUE,3.667,0,4,"monkey","old-new",732
"5ac81b1068b65b00018d7881",13,"younger",1,"HOTEL","HOTEL",TRUE,1.867,2,1,"skateboard","new-new",733
"5ac81b1068b65b00018d7881",13,"younger",2,"STYLE","STYLE",TRUE,1.564,0,2,"aeroplane","new-new",733
"5ac81b1068b65b00018d7881",13,"younger",3,"FOOD","FOOD",TRUE,1.366,1,3,"rug","new-new",733
"5ac81b1068b65b00018d7881",13,"younger",4,"DOZEN","DOZEN",TRUE,1.849,3,4,"balcony","new-new",733
"5ac81b1068b65b00018d7881",14,"younger",1,"WRITER","WRITER",TRUE,1.666,3,1,"dice","mis-match",734
"5ac81b1068b65b00018d7881",14,"younger",2,"CANDY","CANDY",TRUE,1.75,0,2,"pawn","match",734
"5ac81b1068b65b00018d7881",14,"younger",3,"NATION","NATION",TRUE,1.566,2,3,"tyre","new-new",734
"5ac81b1068b65b00018d7881",14,"younger",4,"AREA","AREA",TRUE,1.267,1,4,"helmet","old-new",734
"5ac81b1068b65b00018d7881",15,"younger",1,"SAFE","SAKE",FALSE,3.145,1,1,"anchor","new-new",735
"5ac81b1068b65b00018d7881",15,"younger",2,"RECORD","RECORD",TRUE,2.049,0,2,"frame","new-new",735
"5ac81b1068b65b00018d7881",15,"younger",3,"PRINCE","DIRT",FALSE,2.116,3,3,"hanger","new-new",735
"5ac81b1068b65b00018d7881",15,"younger",4,"PRINCE","PRINCE",TRUE,1.183,2,4,"cap","new-new",735
"5ac81b1068b65b00018d7881",16,"younger",1,"BOYS","BOYS",TRUE,1.898,2,1,"razor","new-new",736
"5ac81b1068b65b00018d7881",16,"younger",2,"GODS","GODS",TRUE,1.416,3,2,"bench","new-new",736
"5ac81b1068b65b00018d7881",16,"younger",3,"ROOF","ROOF",TRUE,1.866,0,3,"megaphone","new-new",736
"5ac81b1068b65b00018d7881",16,"younger",4,"COPS","COPS",TRUE,2.184,1,4,"tractor","new-new",736
"5b0afb7bbd9c310001562584",1,"older",1,"PRINCE","PRINCE",TRUE,4.74399,0,1,"peg","new-new",849
"5b0afb7bbd9c310001562584",1,"older",2,"YEAR","YEAR",TRUE,3.693925,3,2,"coin","new-new",849
"5b0afb7bbd9c310001562584",1,"older",3,"FEET","FEET",TRUE,3.064805,2,3,"crown","new-new",849
"5b0afb7bbd9c310001562584",1,"older",4,"GIRL","GIRL",TRUE,3.13031,1,4,"map","new-new",849
"5b0afb7bbd9c310001562584",2,"older",1,"GIRL","FOOD",FALSE,7.01238,0,1,"gorilla","mis-match",850
"5b0afb7bbd9c310001562584",2,"older",2,"RIVER","RIVER",TRUE,2.96396,2,2,"rug","match",850
"5b0afb7bbd9c310001562584",2,"older",3,"PENNY","BEAUTY",FALSE,5.97995,1,3,"goose","old-new",850
"5b0afb7bbd9c310001562584",2,"older",4,"COVER","MOMENT",FALSE,6.029855,3,4,"stamp","new-new",850
"5b0afb7bbd9c310001562584",3,"older",1,"BELT","BELT",TRUE,2.69512,3,1,"backpack","old-new",851
"5b0afb7bbd9c310001562584",3,"older",2,"MONTH","MONTH",TRUE,3.081675,0,2,"cherry","new-new",851
"5b0afb7bbd9c310001562584",3,"older",3,"SLAY","SAKE",FALSE,5.480255,1,3,"cathedral","mis-match",851
"5b0afb7bbd9c310001562584",3,"older",4,"WRITER","WRITER",TRUE,2.146915,2,4,"carrot","match",851
"5b0afb7bbd9c310001562584",4,"older",1,"NIGHT","NIGHT",TRUE,4.241045,2,1,"cap","match",852
"5b0afb7bbd9c310001562584",4,"older",2,"SLAY","NATION",FALSE,5.01582,3,2,"wheelbarrow","mis-match",852
"5b0afb7bbd9c310001562584",4,"older",3,"HONEY","HONEY",TRUE,3.179595,0,3,"taxi","new-new",852
"5b0afb7bbd9c310001562584",4,"older",4,"NATION","DOZEN",FALSE,3.03146,1,4,"anchor","old-new",852
"5b0afb7bbd9c310001562584",5,"older",1,"YARD","YARD",TRUE,5.063415,1,1,"stool","old-new",853
"5b0afb7bbd9c310001562584",5,"older",2,"LOT","LOTS",FALSE,3.33108,3,2,"bolt","match",853
"5b0afb7bbd9c310001562584",5,"older",3,"SLAY","COPS",FALSE,5.03089,0,3,"suitcase","mis-match",853
"5b0afb7bbd9c310001562584",5,"older",4,"YARD","ROOF",FALSE,3.997075,2,4,"planet","new-new",853
"5b0afb7bbd9c310001562584",6,"older",1,"FAMILY","FAMILY",TRUE,4.382285,1,1,"diamond","mis-match",854
"5b0afb7bbd9c310001562584",6,"older",2,"SERIES","SERIES",TRUE,2.56283,0,2,"helmet","match",854
"5b0afb7bbd9c310001562584",6,"older",3,"THING","THING",TRUE,2.449475,3,3,"hanger","old-new",854
"5b0afb7bbd9c310001562584",6,"older",4,"MOMENT","CARS",FALSE,3.481645,2,4,"candle","new-new",854
"5b0afb7bbd9c310001562584",7,"older",1,"STYLE","STYLE",TRUE,3.36294,3,1,"pear","new-new",855
"5b0afb7bbd9c310001562584",7,"older",2,"LIFE","LIFE",TRUE,2.266445,2,2,"wheel","old-new",855
"5b0afb7bbd9c310001562584",7,"older",3,"SAKE","CANDY",FALSE,2.67956,0,3,"perfume","mis-match",855
"5b0afb7bbd9c310001562584",7,"older",4,"CLIENT","CLIENT",TRUE,3.21604,1,4,"monkey","match",855
"5b0afb7bbd9c310001562584",8,"older",1,"GODS","CLOCK",FALSE,4.994775,2,1,"sunflower","new-new",856
"5b0afb7bbd9c310001562584",8,"older",2,"FIRST","PHOTO",FALSE,6.637035,3,2,"spoon","new-new",856
"5b0afb7bbd9c310001562584",8,"older",3,"GODS","HOTEL",FALSE,2.33047,0,3,"megaphone","new-new",856
"5b0afb7bbd9c310001562584",8,"older",4,"GODS","GODS",TRUE,2.54955,1,4,"windmill","new-new",856
"5b0afb7bbd9c310001562584",9,"older",1,"SHOTS","SHOTS",TRUE,2.442315,1,1,"telephone","match",857
"5b0afb7bbd9c310001562584",9,"older",2,"FLIGHT","SPIRIT",FALSE,5.014515,2,2,"basket","old-new",857
"5b0afb7bbd9c310001562584",9,"older",3,"JUNGLE","BOYS",FALSE,4.564285,0,3,"tyre","mis-match",857
"5b0afb7bbd9c310001562584",9,"older",4,"ARRAY","AREA",FALSE,2.74605,3,4,"cart","new-new",857
"5b0afb7bbd9c310001562584",10,"older",1,"POLICY","CASINO",FALSE,4.91155,0,1,"watch","mis-match",858
"5b0afb7bbd9c310001562584",10,"older",2,"FLESH","RECORD",FALSE,3.497125,3,2,"razor","old-new",858
"5b0afb7bbd9c310001562584",10,"older",3,"STAY","POLICY",FALSE,4.131555,2,3,"skateboard","new-new",858
"5b0afb7bbd9c310001562584",10,"older",4,"VALLEY","VALLEY",TRUE,2.813635,1,4,"pencil","match",858
"5b0afb7bbd9c310001562584",11,"older",1,"TEAR","TEAR",TRUE,3.67823,2,1,"shovel","new-new",859
"5b0afb7bbd9c310001562584",11,"older",2,"TRAY","DANGER",FALSE,4.565415,1,2,"tray","new-new",859
"5b0afb7bbd9c310001562584",11,"older",3,"SPEECH","SPEECH",TRUE,2.530355,3,3,"motorbike","new-new",859
"5b0afb7bbd9c310001562584",11,"older",4,"TEAR","MILLER",FALSE,3.648655,0,4,"balcony","new-new",859
"5b0afb7bbd9c310001562584",12,"older",1,"TEAR","LETTER",FALSE,5.629475,1,1,"microphone","new-new",860
"5b0afb7bbd9c310001562584",12,"older",2,"DIRT","DIRT",TRUE,3.14628,0,2,"sun","new-new",860
"5b0afb7bbd9c310001562584",12,"older",3,"DEATH","DEATH",TRUE,4.114585,3,3,"pawn","new-new",860
"5b0afb7bbd9c310001562584",12,"older",4,"DICE","ADVICE",FALSE,4.8134,2,4,"dice","new-new",860
"5b0afb7bbd9c310001562584",13,"older",1,"KIND","KIND",TRUE,3.778325,0,1,"kettle","new-new",861
"5b0afb7bbd9c310001562584",13,"older",2,"DIRT","MILE",FALSE,3.714945,2,2,"calendar","new-new",861
"5b0afb7bbd9c310001562584",13,"older",3,"DUDE","DUDE",TRUE,2.01394,3,3,"tractor","new-new",861
"5b0afb7bbd9c310001562584",13,"older",4,"STEAL","WEAPON",FALSE,4.265135,1,4,"bench","new-new",861
"5b0afb7bbd9c310001562584",14,"older",1,"LEADER","LEADER",TRUE,3.996895,2,1,"runner","mis-match",862
"5b0afb7bbd9c310001562584",14,"older",2,"AGENT","AGENT",TRUE,2.96306,3,2,"mushroom","new-new",862
"5b0afb7bbd9c310001562584",14,"older",3,"SALE","SALE",TRUE,2.03281,1,3,"dart","match",862
"5b0afb7bbd9c310001562584",14,"older",4,"LIFE","IDEAS",FALSE,3.26534,0,4,"daisy","old-new",862
"5b0afb7bbd9c310001562584",15,"older",1,"DEMON","DEMON",TRUE,2.511485,3,1,"mirror","new-new",863
"5b0afb7bbd9c310001562584",15,"older",2,"ESTATE","ESTATE",TRUE,4.7147,2,2,"salt","new-new",863
"5b0afb7bbd9c310001562584",15,"older",3,"GLASS","GLASS",TRUE,3.281545,0,3,"aeroplane","new-new",863
"5b0afb7bbd9c310001562584",15,"older",4,"PILL","PILLS",FALSE,5.347745,1,4,"ring","new-new",863
"5b0afb7bbd9c310001562584",16,"older",1,"FOOD","JUNGLE",FALSE,9.597325,0,1,"boot","mis-match",864
"5b0afb7bbd9c310001562584",16,"older",2,"SYSTEM","SYSTEM",TRUE,5.646705,3,2,"scissors","new-new",864
"5b0afb7bbd9c310001562584",16,"older",3,"FRIEND","FRIEND",TRUE,2.71386,2,3,"frame","match",864
"5b0afb7bbd9c310001562584",16,"older",4,"APPLE","APPLE",TRUE,2.83167,1,4,"pepper","old-new",864
"5b233660648d5b0001b7de87",1,"older",1,"SERIES","SERIES",TRUE,9.99913,1,1,"coin","match",1009
"5b233660648d5b0001b7de87",1,"older",2,"CANDY","GLASS",FALSE,9.989025,0,2,"dart","old-new",1009
"5b233660648d5b0001b7de87",1,"older",3,"ESTATE","ESTATE",TRUE,9.98821,2,3,"runner","mis-match",1009
"5b233660648d5b0001b7de87",1,"older",4,"IDEA","IDEAS",FALSE,9.99065,3,4,"sun","new-new",1009
"5b233660648d5b0001b7de87",2,"older",1,"ROOF","BOYS",FALSE,9.996915,2,1,"razor","new-new",1010
"5b233660648d5b0001b7de87",2,"older",2,"BOYS","ROOF",FALSE,9.96398,0,2,"megaphone","new-new",1010
"5b233660648d5b0001b7de87",2,"older",3,"GODS","GODS",TRUE,9.989655,3,3,"bench","new-new",1010
"5b233660648d5b0001b7de87",2,"older",4,"CAPS","COPS",FALSE,9.988335,1,4,"tractor","new-new",1010
"5b233660648d5b0001b7de87",3,"older",1,"CLIENT","CLIENT",TRUE,10.00296,0,1,"telephone","old-new",1011
"5b233660648d5b0001b7de87",3,"older",2,"?","DEMON",FALSE,9.98597,1,2,"bolt","new-new",1011
"5b233660648d5b0001b7de87",3,"older",3,"GIRL","GIRL",TRUE,9.99674,2,3,"basket","match",1011
"5b233660648d5b0001b7de87",3,"older",4,"RIVER","RIVER",TRUE,10.0018,3,4,"motorbike","mis-match",1011
"5b233660648d5b0001b7de87",4,"older",1,"?","WOMEN",FALSE,10.0049,1,1,"stamp","new-new",1012
"5b233660648d5b0001b7de87",4,"older",2,"CASINO","CASINO",TRUE,10.00264,3,2,"pepper","new-new",1012
"5b233660648d5b0001b7de87",4,"older",3,"WOMEN","AGENT",FALSE,9.99268,0,3,"watch","new-new",1012
"5b233660648d5b0001b7de87",4,"older",4,"YARD","YARD",TRUE,9.988115,2,4,"wheelbarrow","new-new",1012
"5b233660648d5b0001b7de87",5,"older",1,"PENNY","PENNY",TRUE,9.987885,3,1,"tray","new-new",1013
"5b233660648d5b0001b7de87",5,"older",2,"FLEET","FEET",FALSE,9.988615,1,2,"cart","new-new",1013
"5b233660648d5b0001b7de87",5,"older",3,"PENNY","SPIRIT",FALSE,9.988865,0,3,"sunflower","new-new",1013
"5b233660648d5b0001b7de87",5,"older",4,"?","MONTH",FALSE,10.002705,2,4,"backpack","new-new",1013
"5b233660648d5b0001b7de87",6,"older",1,"?","HONEY",FALSE,95.94376,3,1,"suitcase","match",1014
"5b233660648d5b0001b7de87",6,"older",2,"?","LIFE",FALSE,0.03478,1,2,"carrot","new-new",1014
"5b233660648d5b0001b7de87",6,"older",3,"?","JUNGLE",FALSE,0.00147,0,3,"salt","mis-match",1014
"5b233660648d5b0001b7de87",6,"older",4,"?","BODY",FALSE,0.0014,2,4,"gorilla","old-new",1014
"5b233660648d5b0001b7de87",7,"older",1,"CAPS","LOTS",FALSE,9.990505,3,1,"cathedral","mis-match",1015
"5b233660648d5b0001b7de87",7,"older",2,"COST","PHOTO",FALSE,10.0039,1,2,"candle","old-new",1015
"5b233660648d5b0001b7de87",7,"older",3,"SYST","HOUSE",FALSE,9.99586,0,3,"mirror","new-new",1015
"5b233660648d5b0001b7de87",7,"older",4,"SERIES","SYSTEM",FALSE,9.98902,2,4,"ring","match",1015
"5b233660648d5b0001b7de87",8,"older",1,"FAMILY","FAMILY",TRUE,9.98909,2,1,"scissors","match",1016
"5b233660648d5b0001b7de87",8,"older",2,"MOMENT","MOMENT",TRUE,9.98796,3,2,"mushroom","mis-match",1016
"5b233660648d5b0001b7de87",8,"older",3,"KIND","KIND",TRUE,10.00322,0,3,"monkey","old-new",1016
"5b233660648d5b0001b7de87",8,"older",4,"FLESH","FLESH",TRUE,9.989235,1,4,"pear","new-new",1016
"5b233660648d5b0001b7de87",9,"older",1,"CARS","NIGHT",FALSE,9.99183,0,1,"goose","new-new",1017
"5b233660648d5b0001b7de87",9,"older",2,"TOILET","TOILET",TRUE,10.259835,2,2,"diamond","match",1017
"5b233660648d5b0001b7de87",9,"older",3,"CLOCK","CLOCK",TRUE,9.93169,3,3,"pencil","mis-match",1017
"5b233660648d5b0001b7de87",9,"older",4,"CLOCK","CARS",FALSE,9.99079,1,4,"microphone","old-new",1017
"5b233660648d5b0001b7de87",10,"older",1,"CANDY","CANDY",TRUE,10.00439,0,1,"pawn","match",1018
"5b233660648d5b0001b7de87",10,"older",2,"AREA","AREA",TRUE,9.98761,1,2,"helmet","old-new",1018
"5b233660648d5b0001b7de87",10,"older",3,"CLIENT","WRITER",FALSE,9.99019,3,3,"dice","mis-match",1018
"5b233660648d5b0001b7de87",10,"older",4,"?","NATION",FALSE,9.995415,2,4,"tyre","new-new",1018
"5b233660648d5b0001b7de87",11,"older",1,"BELT","BELT",TRUE,9.988855,3,1,"peg","new-new",1019
"5b233660648d5b0001b7de87",11,"older",2,"PILLS","PILLS",TRUE,9.93843,2,2,"map","old-new",1019
"5b233660648d5b0001b7de87",11,"older",3,"POLICY","POLICY",TRUE,9.99649,1,3,"boot","mis-match",1019
"5b233660648d5b0001b7de87",11,"older",4,"PILLS","PLENTY",FALSE,9.98891,0,4,"daisy","match",1019
"5b233660648d5b0001b7de87",12,"older",1,"LEADER","LEADER",TRUE,10.00461,3,1,"crown","mis-match",1020
"5b233660648d5b0001b7de87",12,"older",2,"LETTER","SHOTS",FALSE,9.98908,2,2,"windmill","old-new",1020
"5b233660648d5b0001b7de87",12,"older",3,"?","WEAPON",FALSE,9.989185,0,3,"perfume","new-new",1020
"5b233660648d5b0001b7de87",12,"older",4,"?","LETTER",FALSE,20.93407,1,4,"stool","match",1020
"5b233660648d5b0001b7de87",13,"older",1,"FRIEND","FRIEND",TRUE,9.99767,2,1,"planet","new-new",1021
"5b233660648d5b0001b7de87",13,"older",2,"BATH","SPEECH",FALSE,9.996685,3,2,"spoon","new-new",1021
"5b233660648d5b0001b7de87",13,"older",3,"TEAR","TEAR",TRUE,9.99017,1,3,"calendar","new-new",1021
"5b233660648d5b0001b7de87",13,"older",4,"?","BATH",FALSE,10.000395,0,4,"taxi","new-new",1021
"5b233660648d5b0001b7de87",14,"older",1,"?","STYLE",FALSE,17.487585,0,1,"aeroplane","new-new",1022
"5b233660648d5b0001b7de87",14,"older",2,"?","FOOD",FALSE,2.787025,1,2,"rug","new-new",1022
"5b233660648d5b0001b7de87",14,"older",3,"?","DOZEN",FALSE,9.989385,3,3,"balcony","new-new",1022
"5b233660648d5b0001b7de87",14,"older",4,"J","HOTEL",FALSE,9.98811,2,4,"skateboard","new-new",1022
"5b233660648d5b0001b7de87",15,"older",1,"YEAR","YEAR",TRUE,9.988475,0,1,"kettle","mis-match",1023
"5b233660648d5b0001b7de87",15,"older",2,"DANGER","DANGER",TRUE,9.984455,2,2,"cherry","old-new",1023
"5b233660648d5b0001b7de87",15,"older",3,"?","FLIGHT",FALSE,9.99885,1,3,"shovel","new-new",1023
"5b233660648d5b0001b7de87",15,"older",4,"LEADER","ARTIST",FALSE,9.989895,3,4,"wheel","match",1023
"5b233660648d5b0001b7de87",16,"older",1,"DIRT","DIRT",TRUE,9.988255,3,1,"hanger","new-new",1024
"5b233660648d5b0001b7de87",16,"older",2,"PRINCE","SAKE",FALSE,9.907815,1,2,"anchor","new-new",1024
"5b233660648d5b0001b7de87",16,"older",3,"?","RECORD",FALSE,14.65402,0,3,"frame","new-new",1024
"5b233660648d5b0001b7de87",16,"older",4,"?","PRINCE",FALSE,5.650955,2,4,"cap","new-new",1024
"5b56dd19e689060001c8fae3",1,"younger",1,"WOMEN","WOMEN",TRUE,1.959535,3,1,"microphone","old-new",97
"5b56dd19e689060001c8fae3",1,"younger",2,"WRITER","WRITER",TRUE,2.18247,0,2,"cap","mis-match",97
"5b56dd19e689060001c8fae3",1,"younger",3,"KIND","KIND",TRUE,2.548625,1,3,"candle","match",97
"5b56dd19e689060001c8fae3",1,"younger",4,"?","WEAPON",FALSE,9.996385,2,4,"cherry","new-new",97
"5b56dd19e689060001c8fae3",2,"younger",1,"FEET","FEET",TRUE,2.159535,2,1,"runner","new-new",98
"5b56dd19e689060001c8fae3",2,"younger",2,"CANDY","CANDY",TRUE,3.43042,1,2,"tractor","new-new",98
"5b56dd19e689060001c8fae3",2,"younger",3,"FINDER","FLIGHT",FALSE,4.89556,0,3,"wheel","new-new",98
"5b56dd19e689060001c8fae3",2,"younger",4,"CLIENT","CLIENT",TRUE,1.88019,3,4,"watch","new-new",98
"5b56dd19e689060001c8fae3",3,"younger",1,"BODY","BODY",TRUE,2.36144,0,1,"daisy","old-new",99
"5b56dd19e689060001c8fae3",3,"younger",2,"PENNY","PENNY",TRUE,1.84768,1,2,"stool","new-new",99
"5b56dd19e689060001c8fae3",3,"younger",3,"NATION","NATION",TRUE,2.248215,3,3,"stamp","match",99
"5b56dd19e689060001c8fae3",3,"younger",4,"PENNY","TOILET",FALSE,1.934405,2,4,"anchor","mis-match",99
"5b56dd19e689060001c8fae3",4,"younger",1,"DEMON","DEMON",TRUE,2.327445,1,1,"telephone","mis-match",100
"5b56dd19e689060001c8fae3",4,"younger",2,"AREA","AREA",TRUE,1.449705,2,2,"shovel","match",100
"5b56dd19e689060001c8fae3",4,"younger",3,"SAKE","SAKE",TRUE,2.164265,3,3,"motorbike","old-new",100
"5b56dd19e689060001c8fae3",4,"younger",4,"ADVICE","ADVICE",TRUE,2.92955,0,4,"megaphone","new-new",100
"5b56dd19e689060001c8fae3",5,"younger",1,"YARD","YARD",TRUE,1.579085,0,1,"monkey","match",101
"5b56dd19e689060001c8fae3",5,"younger",2,"DIRT","SPEECH",FALSE,3.329695,2,2,"carrot","mis-match",101
"5b56dd19e689060001c8fae3",5,"younger",3,"DIRT","DIRT",TRUE,2.06501,1,3,"scissors","old-new",101
"5b56dd19e689060001c8fae3",5,"younger",4,"MILE","MILE",TRUE,1.232395,3,4,"taxi","new-new",101
"5b56dd19e689060001c8fae3",6,"younger",1,"YEA","ARTIST",FALSE,9.008445,1,1,"calendar","mis-match",102
"5b56dd19e689060001c8fae3",6,"younger",2,"SYSTEM","SYSTEM",TRUE,2.030985,0,2,"sun","new-new",102
"5b56dd19e689060001c8fae3",6,"younger",3,"TEAR","TEAR",TRUE,3.1304,2,3,"hanger","old-new",102
"5b56dd19e689060001c8fae3",6,"younger",4,"LETTER","LETTER",TRUE,1.847055,3,4,"mirror","match",102
"5b56dd19e689060001c8fae3",7,"younger",1,"SERIES","SERIES",TRUE,2.95975,0,1,"tyre","new-new",103
"5b56dd19e689060001c8fae3",7,"younger",2,"SALE","SALE",TRUE,1.682005,1,2,"diamond","new-new",103
"5b56dd19e689060001c8fae3",7,"younger",3,"MILES","MILLER",FALSE,8.79669,3,3,"bolt","new-new",103
"5b56dd19e689060001c8fae3",7,"younger",4,"AGENT","AGENT",TRUE,2.503575,2,4,"goose","new-new",103
"5b56dd19e689060001c8fae3",8,"younger",1,"SHOTS","SHOTS",TRUE,1.82884,2,1,"cart","new-new",104
"5b56dd19e689060001c8fae3",8,"younger",2,"LIFE","LIFE",TRUE,2.14326,3,2,"pawn","new-new",104
"5b56dd19e689060001c8fae3",8,"younger",3,"LEADER","LEADER",TRUE,2.06657,0,3,"sunflower","new-new",104
"5b56dd19e689060001c8fae3",8,"younger",4,"DEATH","DEATH",TRUE,1.56439,1,4,"aeroplane","new-new",104
"5b56dd19e689060001c8fae3",9,"younger",1,"VALLEY","VALLEY",TRUE,6.975175,1,1,"basket","new-new",105
"5b56dd19e689060001c8fae3",9,"younger",2,"DANGER","DANGER",TRUE,2.94448,0,2,"crown","new-new",105
"5b56dd19e689060001c8fae3",9,"younger",3,"FRIEND","FRIEND",TRUE,1.71435,3,3,"balcony","new-new",105
"5b56dd19e689060001c8fae3",9,"younger",4,"GOD","GODS",FALSE,1.49644,2,4,"perfume","new-new",105
"5b56dd19e689060001c8fae3",10,"younger",1,"IDEAS","IDEAS",TRUE,1.561365,3,1,"coin","mis-match",106
"5b56dd19e689060001c8fae3",10,"younger",2,"?","MOMENT",FALSE,9.994575,1,2,"boot","old-new",106
"5b56dd19e689060001c8fae3",10,"younger",3,"IDEAS","APPLE",FALSE,6.8289,0,3,"dice","new-new",106
"5b56dd19e689060001c8fae3",10,"younger",4,"ROOF","ROOF",TRUE,1.34755,2,4,"rug","match",106
"5b56dd19e689060001c8fae3",11,"younger",1,"ROOF","PILLS",FALSE,2.52894,0,1,"skateboard","new-new",107
"5b56dd19e689060001c8fae3",11,"younger",2,"FAMILY","FAMILY",TRUE,2.04675,2,2,"ring","new-new",107
"5b56dd19e689060001c8fae3",11,"younger",3,"NIGHT","NIGHT",TRUE,1.84839,3,3,"bench","new-new",107
"5b56dd19e689060001c8fae3",11,"younger",4,"RESTER","RECORD",FALSE,4.862665,1,4,"razor","new-new",107
"5b56dd19e689060001c8fae3",12,"younger",1,"CASINO","CASINO",TRUE,2.04479,2,1,"helmet","match",108
"5b56dd19e689060001c8fae3",12,"younger",2,"PHOTO","PHOTO",TRUE,1.847585,1,2,"cathedral","mis-match",108
"5b56dd19e689060001c8fae3",12,"younger",3,"ESTATE","ESTATE",TRUE,3.380985,0,3,"map","new-new",108
"5b56dd19e689060001c8fae3",12,"younger",4,"GIRL","GIRL",TRUE,1.931535,3,4,"pencil","old-new",108
"5b56dd19e689060001c8fae3",13,"younger",1,"FLESH","FLESH",TRUE,3.81196,1,1,"windmill","new-new",109
"5b56dd19e689060001c8fae3",13,"younger",2,"CARS","CARS",TRUE,1.772485,2,2,"tray","new-new",109
"5b56dd19e689060001c8fae3",13,"younger",3,"DOZENS","DOZEN",FALSE,4.49681,0,3,"gorilla","new-new",109
"5b56dd19e689060001c8fae3",13,"younger",4,"LOTS","LOTS",TRUE,1.581825,3,4,"backpack","new-new",109
"5b56dd19e689060001c8fae3",14,"younger",1,"HONEY","CLOCK",FALSE,2.029995,2,1,"pear","new-new",110
"5b56dd19e689060001c8fae3",14,"younger",2,"HONEY","HONEY",TRUE,3.49847,0,2,"kettle","old-new",110
"5b56dd19e689060001c8fae3",14,"younger",3,"STYLE","STYLE",TRUE,3.62838,3,3,"suitcase","match",110
"5b56dd19e689060001c8fae3",14,"younger",4,"LOTS","PLENTY",FALSE,2.346865,1,4,"salt","mis-match",110
"5b56dd19e689060001c8fae3",15,"younger",1,"HOUSE","HOUSE",TRUE,1.72879,2,1,"mushroom","match",111
"5b56dd19e689060001c8fae3",15,"younger",2,"FOOD","PRINCE",FALSE,1.34572,3,2,"peg","mis-match",111
"5b56dd19e689060001c8fae3",15,"younger",3,"THING","FOOD",FALSE,1.24977,1,3,"dart","new-new",111
"5b56dd19e689060001c8fae3",15,"younger",4,"THING","THING",TRUE,2.464145,0,4,"frame","old-new",111
"5b56dd19e689060001c8fae3",16,"younger",1,"JUNGLE","JUNGLE",TRUE,4.660835,1,1,"planet","old-new",112
"5b56dd19e689060001c8fae3",16,"younger",2,"POLICY","POLICY",TRUE,3.111425,0,2,"pepper","mis-match",112
"5b56dd19e689060001c8fae3",16,"younger",3,"BATH","BATH",TRUE,1.17944,2,3,"spoon","match",112
"5b56dd19e689060001c8fae3",16,"younger",4,"FOOD","BELT",FALSE,1.01463,3,4,"wheelbarrow","new-new",112
"5b6f49b7d60bdd0001ade437",1,"older",1,"DANGER","DANGER",TRUE,2.712365,2,1,"cherry","old-new",1441
"5b6f49b7d60bdd0001ade437",1,"older",2,"YEAR","YEAR",TRUE,2.56518,0,2,"kettle","mis-match",1441
"5b6f49b7d60bdd0001ade437",1,"older",3,"ARTIST","ARTIST",TRUE,2.498525,3,3,"wheel","match",1441
"5b6f49b7d60bdd0001ade437",1,"older",4,"FLIGHT","FLIGHT",TRUE,2.097615,1,4,"shovel","new-new",1441
"5b6f49b7d60bdd0001ade437",2,"older",1,"LEADER","POLICY",FALSE,3.94658,1,1,"boot","mis-match",1442
"5b6f49b7d60bdd0001ade437",2,"older",2,"BELT","BELT",TRUE,6.047485,3,2,"peg","new-new",1442
"5b6f49b7d60bdd0001ade437",2,"older",3,"PILLS","PILLS",TRUE,4.714175,2,3,"map","old-new",1442
"5b6f49b7d60bdd0001ade437",2,"older",4,"PLENTY","PLENTY",TRUE,2.964045,0,4,"daisy","match",1442
"5b6f49b7d60bdd0001ade437",3,"older",1,"SHOTS","LEADER",FALSE,3.72932,3,1,"crown","mis-match",1443
"5b6f49b7d60bdd0001ade437",3,"older",2,"WEAPON","SHOTS",FALSE,4.415415,2,2,"windmill","old-new",1443
"5b6f49b7d60bdd0001ade437",3,"older",3,"WEAON","WEAPON",FALSE,3.397365,0,3,"perfume","new-new",1443
"5b6f49b7d60bdd0001ade437",3,"older",4,"LETTER","LETTER",TRUE,2.466205,1,4,"stool","match",1443
"5b6f49b7d60bdd0001ade437",4,"older",1,"JUNGLE","HONEY",FALSE,5.599455,3,1,"suitcase","match",1444
"5b6f49b7d60bdd0001ade437",4,"older",2,"LIFE","LIFE",TRUE,2.16415,1,2,"carrot","new-new",1444
"5b6f49b7d60bdd0001ade437",4,"older",3,"HONEY","JUNGLE",FALSE,4.297825,0,3,"salt","mis-match",1444
"5b6f49b7d60bdd0001ade437",4,"older",4,"BODY","BODY",TRUE,2.063915,2,4,"gorilla","old-new",1444
"5b6f49b7d60bdd0001ade437",5,"older",1,"SPIRIT","PENNY",FALSE,3.07974,3,1,"tray","new-new",1445
"5b6f49b7d60bdd0001ade437",5,"older",2,"MONEY","MONTH",FALSE,4.198975,2,2,"backpack","new-new",1445
"5b6f49b7d60bdd0001ade437",5,"older",3,"SPIRIT","SPIRIT",TRUE,2.713905,0,3,"sunflower","new-new",1445
"5b6f49b7d60bdd0001ade437",5,"older",4,"FEET","FEET",TRUE,2.397355,1,4,"cart","new-new",1445
"5b6f49b7d60bdd0001ade437",6,"older",1,"FOOD","FOOD",TRUE,3.879905,1,1,"rug","new-new",1446
"5b6f49b7d60bdd0001ade437",6,"older",2,"DOZEN","DOZEN",TRUE,3.230855,3,2,"balcony","new-new",1446
"5b6f49b7d60bdd0001ade437",6,"older",3,"STYLE","STYLE",TRUE,2.39856,0,3,"aeroplane","new-new",1446
"5b6f49b7d60bdd0001ade437",6,"older",4,"HOTEL","HOTEL",TRUE,2.56432,2,4,"skateboard","new-new",1446
"5b6f49b7d60bdd0001ade437",7,"older",1,"HOTEL","CARS",FALSE,4.246495,1,1,"microphone","old-new",1447
"5b6f49b7d60bdd0001ade437",7,"older",2,"CLOCK","CLOCK",TRUE,2.29757,3,2,"pencil","mis-match",1447
"5b6f49b7d60bdd0001ade437",7,"older",3,"NIGHT","NIGHT",TRUE,2.215075,0,3,"goose","new-new",1447
"5b6f49b7d60bdd0001ade437",7,"older",4,"?","TOILET",FALSE,4.54863,2,4,"diamond","match",1447
"5b6f49b7d60bdd0001ade437",8,"older",1,"SYSTEM","SYSTEM",TRUE,3.146415,2,1,"ring","match",1448
"5b6f49b7d60bdd0001ade437",8,"older",2,"LOTS","LOTS",TRUE,2.56545,3,2,"cathedral","mis-match",1448
"5b6f49b7d60bdd0001ade437",8,"older",3,"HOUSE","HOUSE",TRUE,2.197315,0,3,"mirror","new-new",1448
"5b6f49b7d60bdd0001ade437",8,"older",4,"PHOTO","PHOTO",TRUE,2.365385,1,4,"candle","old-new",1448
"5b6f49b7d60bdd0001ade437",9,"older",1,"TOPS","BOYS",FALSE,3.41298,2,1,"razor","new-new",1449
"5b6f49b7d60bdd0001ade437",9,"older",2,"TOPS","COPS",FALSE,2.41513,1,2,"tractor","new-new",1449
"5b6f49b7d60bdd0001ade437",9,"older",3,"GOD","GODS",FALSE,2.13254,3,3,"bench","new-new",1449
"5b6f49b7d60bdd0001ade437",9,"older",4,"ROOF","ROOF",TRUE,1.848575,0,4,"megaphone","new-new",1449
"5b6f49b7d60bdd0001ade437",10,"older",1,"BATH","SPEECH",FALSE,2.176645,3,1,"spoon","new-new",1450
"5b6f49b7d60bdd0001ade437",10,"older",2,"FRIEND","FRIEND",TRUE,2.398325,2,2,"planet","new-new",1450
"5b6f49b7d60bdd0001ade437",10,"older",3,"TEAR","TEAR",TRUE,2.015355,1,3,"calendar","new-new",1450
"5b6f49b7d60bdd0001ade437",10,"older",4,"BATH","BATH",TRUE,4.732385,0,4,"taxi","new-new",1450
"5b6f49b7d60bdd0001ade437",11,"older",1,"FLESH","FLESH",TRUE,2.296495,1,1,"pear","new-new",1451
"5b6f49b7d60bdd0001ade437",11,"older",2,"KIND","KIND",TRUE,2.281945,0,2,"monkey","old-new",1451
"5b6f49b7d60bdd0001ade437",11,"older",3,"FAMILY","FAMILY",TRUE,2.565055,2,3,"scissors","match",1451
"5b6f49b7d60bdd0001ade437",11,"older",4,"MOMENT","MOMENT",TRUE,1.982105,3,4,"mushroom","mis-match",1451
"5b6f49b7d60bdd0001ade437",12,"older",1,"RECORD","SAKE",FALSE,3.263,1,1,"anchor","new-new",1452
"5b6f49b7d60bdd0001ade437",12,"older",2,"SAKE","DIRT",FALSE,4.081645,3,2,"hanger","new-new",1452
"5b6f49b7d60bdd0001ade437",12,"older",3,"RECORD","RECORD",TRUE,3.26419,0,3,"frame","new-new",1452
"5b6f49b7d60bdd0001ade437",12,"older",4,"PRINCE","PRINCE",TRUE,2.44756,2,4,"cap","new-new",1452
"5b6f49b7d60bdd0001ade437",13,"older",1,"AREA","WRITER",FALSE,2.4794,3,1,"dice","mis-match",1453
"5b6f49b7d60bdd0001ade437",13,"older",2,"NATION","AREA",FALSE,3.565195,1,2,"helmet","old-new",1453
"5b6f49b7d60bdd0001ade437",13,"older",3,"CANDY","CANDY",TRUE,2.24768,0,3,"pawn","match",1453
"5b6f49b7d60bdd0001ade437",13,"older",4,"NATION","NATION",TRUE,2.732465,2,4,"tyre","new-new",1453
"5b6f49b7d60bdd0001ade437",14,"older",1,"AGENT","AGENT",TRUE,2.2631,0,1,"watch","new-new",1454
"5b6f49b7d60bdd0001ade437",14,"older",2,"WOMAN","WOMEN",FALSE,2.21512,1,2,"stamp","new-new",1454
"5b6f49b7d60bdd0001ade437",14,"older",3,"CARD","YARD",FALSE,2.64935,2,3,"wheelbarrow","new-new",1454
"5b6f49b7d60bdd0001ade437",14,"older",4,"CASINO","CASINO",TRUE,2.499795,3,4,"pepper","new-new",1454
"5b6f49b7d60bdd0001ade437",15,"older",1,"GIRL","GIRL",TRUE,2.39652,2,1,"basket","match",1455
"5b6f49b7d60bdd0001ade437",15,"older",2,"CLIENT","CLIENT",TRUE,4.33186,0,2,"telephone","old-new",1455
"5b6f49b7d60bdd0001ade437",15,"older",3,"RIVER","RIVER",TRUE,2.647555,3,3,"motorbike","mis-match",1455
"5b6f49b7d60bdd0001ade437",15,"older",4,"DEMON","DEMON",TRUE,1.931825,1,4,"bolt","new-new",1455
"5b6f49b7d60bdd0001ade437",16,"older",1,"IDEAS","IDEAS",TRUE,2.396005,3,1,"sun","new-new",1456
"5b6f49b7d60bdd0001ade437",16,"older",2,"ESTATE","ESTATE",TRUE,3.331995,2,2,"runner","mis-match",1456
"5b6f49b7d60bdd0001ade437",16,"older",3,"SERIES","SERIES",TRUE,2.097815,1,3,"coin","match",1456
"5b6f49b7d60bdd0001ade437",16,"older",4,"GLASS","GLASS",TRUE,2.229835,0,4,"dart","old-new",1456
"5b79bd77c4e6ad0001d2f312",1,"older",1,"FAMILY","FAMILY",TRUE,3.19808,0,1,"candle","mis-match",1329
"5b79bd77c4e6ad0001d2f312",1,"older",2,"MILLER","MILLER",TRUE,2.67378,1,2,"suitcase","match",1329
"5b79bd77c4e6ad0001d2f312",1,"older",3,"GIRL","GIRL",TRUE,2.82282,3,3,"mirror","old-new",1329
"5b79bd77c4e6ad0001d2f312",1,"older",4,"SPEECH","SPEECH",TRUE,1.99965,2,4,"backpack","new-new",1329
"5b79bd77c4e6ad0001d2f312",2,"older",1,"PLENTY","PLENTY",TRUE,2.821435,0,1,"monkey","mis-match",1330
"5b79bd77c4e6ad0001d2f312",2,"older",2,"FLESH","FLESH",TRUE,2.573715,1,2,"balcony","new-new",1330
"5b79bd77c4e6ad0001d2f312",2,"older",3,"PILLS","PILLS",TRUE,4.19718,3,3,"hanger","old-new",1330
"5b79bd77c4e6ad0001d2f312",2,"older",4,"DUDE","DUDE",TRUE,1.5986,2,4,"pepper","match",1330
"5b79bd77c4e6ad0001d2f312",3,"older",1,"?","SERIES",FALSE,3.346895,0,1,"helmet","new-new",1331
"5b79bd77c4e6ad0001d2f312",3,"older",2,"CASINO","CASINO",TRUE,3.448635,1,2,"carrot","new-new",1331
