consent_key.keys,consent_key.rt,recalled,recalled_rt,recall_acc,example_recall.thisRepN,example_recall.thisTrialN,example_recall.thisN,example_recall.thisIndex,example_recall.ran,file,word,participant,please enter your date of birth (dd/mm/yyyy),date,expName,psychopyVersion,OS,frameRate,STUDY_ID,SESSION_ID,list,prac_learn_study_loop.thisRepN,prac_learn_study_loop.thisTrialN,prac_learn_study_loop.thisN,prac_learn_study_loop.thisIndex,prac_learn_study_loop.ran,image,prac_learn_test_loop.thisRepN,prac_learn_test_loop.thisTrialN,prac_learn_test_loop.thisN,prac_learn_test_loop.thisIndex,prac_learn_test_loop.ran,learn_study_loop.thisRepN,learn_study_loop.thisTrialN,learn_study_loop.thisN,learn_study_loop.thisIndex,learn_study_loop.ran,list_no,block_no,learn_test_loop.thisRepN,learn_test_loop.thisTrialN,learn_test_loop.thisN,learn_test_loop.thisIndex,learn_test_loop.ran,learn_blocks.thisRepN,learn_blocks.thisTrialN,learn_blocks.thisN,learn_blocks.thisIndex,learn_blocks.ran,block_csv,key_resp_13.keys,key_resp_13.rt,learn_blocks_loop.thisRepN,learn_blocks_loop.thisTrialN,learn_blocks_loop.thisN,learn_blocks_loop.thisIndex,learn_blocks_loop.ran,final_learn_test.thisRepN,final_learn_test.thisTrialN,final_learn_test.thisN,final_learn_test.thisIndex,final_learn_test.ran,s_im1,s_im2,s_im3,s_im4,s_im5,s_im6,s_im7,s_im8,s_im1pos,s_im2pos,s_im3pos,s_im4pos,s_im5pos,s_im6pos,s_im7pos,s_im8pos,s_tarright,search_resp.keys,search_loop.thisRepN,search_loop.thisTrialN,search_loop.thisN,search_loop.thisIndex,search_loop.ran,search_resp.rt,prac_wm_search_loop.thisRepN,prac_wm_search_loop.thisTrialN,prac_wm_search_loop.thisN,prac_wm_search_loop.thisIndex,prac_wm_search_loop.ran,prac_wm_test_loop.thisRepN,prac_wm_test_loop.thisTrialN,prac_wm_test_loop.thisN,prac_wm_test_loop.thisIndex,prac_wm_test_loop.ran,wm_recalled1,wm_recall_rt1,wm_probed1,wm_recall_acc1,wm_recalled2,wm_recall_rt2,wm_probed2,wm_recall_acc2,wm_recalled3,wm_recall_rt3,wm_probed3,wm_recall_acc3,wm_recalled4,wm_recall_rt4,wm_probed4,wm_recall_acc4,prac_wm_trial_loop.thisRepN,prac_wm_trial_loop.thisTrialN,prac_wm_trial_loop.thisN,prac_wm_trial_loop.thisIndex,prac_wm_trial_loop.ran,word1,image1,file1,item_type1,word2,image2,file2,item_type2,word4,image4,file4,item_type4,word3,image3,file3,item_type3,wm_search_loop.thisRepN,wm_search_loop.thisTrialN,wm_search_loop.thisN,wm_search_loop.thisIndex,wm_search_loop.ran,wm_test_loop.thisRepN,wm_test_loop.thisTrialN,wm_test_loop.thisN,wm_test_loop.thisIndex,wm_test_loop.ran,wm_trial_loop.thisRepN,wm_trial_loop.thisTrialN,wm_trial_loop.thisN,wm_trial_loop.thisIndex,wm_trial_loop.ran
y,39.534335,TOUGH,15.00458,1,0,0,0,0,1,stimuli/images/PICTURE_747.png,TOUGH,563f8474cbd4c6000fdc928b,09/11/1948,2020-09-10_16h25.19.011,proactive3.1,2020.1.2,Win32,60,5f599a131af4471f3d752b7b,5f5a43eed39af50b42356f2c,3,,,,,,,,,,,,,,,,,,,,,,,,,,,,,,,,,,,,,,,,,,,,,,,,,,,,,,,,,,,,,,,,,,,,,,,,,,,,,,,,,,,,,,,,,,,,,,,,,,,,,,,,,,,,,,,,,,,,,,,,,,,,,,,
,,,,,,,,,,stimuli/images/PICTURE_697.png,KILLER,563f8474cbd4c6000fdc928b,09/11/1948,2020-09-10_16h25.19.011,proactive3.1,2020.1.2,Win32,60,5f599a131af4471f3d752b7b,5f5a43eed39af50b42356f2c,3,0,0,0,4,1,peach,,,,,,,,,,,,,,,,,,,,,,,,,,,,,,,,,,,,,,,,,,,,,,,,,,,,,,,,,,,,,,,,,,,,,,,,,,,,,,,,,,,,,,,,,,,,,,,,,,,,,,,,,,,,,,,,,,,,,,,,,
,,,,,,,,,,stimuli/images/PICTURE_658.png,DEVIL,563f8474cbd4c6000fdc928b,09/11/1948,2020-09-10_16h25.19.011,proactive3.1,2020.1.2,Win32,60,5f599a131af4471f3d752b7b,5f5a43eed39af50b42356f2c,3,0,1,1,3,1,crow,,,,,,,,,,,,,,,,,,,,,,,,,,,,,,,,,,,,,,,,,,,,,,,,,,,,,,,,,,,,,,,,,,,,,,,,,,,,,,,,,,,,,,,,,,,,,,,,,,,,,,,,,,,,,,,,,,,,,,,,,
,,,,,,,,,,stimuli/images/PICTURE_727.png,CELL,563f8474cbd4c6000fdc928b,09/11/1948,2020-09-10_16h25.19.011,proactive3.1,2020.1.2,Win32,60,5f599a131af4471f3d752b7b,5f5a43eed39af50b42356f2c,3,0,2,2,1,1,hose,,,,,,,,,,,,,,,,,,,,,,,,,,,,,,,,,,,,,,,,,,,,,,,,,,,,,,,,,,,,,,,,,,,,,,,,,,,,,,,,,,,,,,,,,,,,,,,,,,,,,,,,,,,,,,,,,,,,,,,,,
,,,,,,,,,,stimuli/images/PICTURE_269.png,GENIUS,563f8474cbd4c6000fdc928b,09/11/1948,2020-09-10_16h25.19.011,proactive3.1,2020.1.2,Win32,60,5f599a131af4471f3d752b7b,5f5a43eed39af50b42356f2c,3,0,3,3,0,1,chameleon,,,,,,,,,,,,,,,,,,,,,,,,,,,,,,,,,,,,,,,,,,,,,,,,,,,,,,,,,,,,,,,,,,,,,,,,,,,,,,,,,,,,,,,,,,,,,,,,,,,,,,,,,,,,,,,,,,,,,,,,,
,,LOSE,15.0054,0,,,,,,stimuli/images/PICTURE_378.png,LOSS,563f8474cbd4c6000fdc928b,09/11/1948,2020-09-10_16h25.19.011,proactive3.1,2020.1.2,Win32,60,5f599a131af4471f3d752b7b,5f5a43eed39af50b42356f2c,3,,,,,,lobster,0,0,0,2,1,,,,,,,,,,,,,,,,,,,,,,,,,,,,,,,,,,,,,,,,,,,,,,,,,,,,,,,,,,,,,,,,,,,,,,,,,,,,,,,,,,,,,,,,,,,,,,,,,,,,,,,,,,,,,,,,,,,,
,,KILLER,15.0021,0,,,,,,stimuli/images/PICTURE_658.png,DEVIL,563f8474cbd4c6000fdc928b,09/11/1948,2020-09-10_16h25.19.011,proactive3.1,2020.1.2,Win32,60,5f599a131af4471f3d752b7b,5f5a43eed39af50b42356f2c,3,,,,,,crow,0,1,1,3,1,,,,,,,,,,,,,,,,,,,,,,,,,,,,,,,,,,,,,,,,,,,,,,,,,,,,,,,,,,,,,,,,,,,,,,,,,,,,,,,,,,,,,,,,,,,,,,,,,,,,,,,,,,,,,,,,,,,,
,,KILLER,15.00053,1,,,,,,stimuli/images/PICTURE_697.png,KILLER,563f8474cbd4c6000fdc928b,09/11/1948,2020-09-10_16h25.19.011,proactive3.1,2020.1.2,Win32,60,5f599a131af4471f3d752b7b,5f5a43eed39af50b42356f2c,3,,,,,,peach,0,2,2,4,1,,,,,,,,,,,,,,,,,,,,,,,,,,,,,,,,,,,,,,,,,,,,,,,,,,,,,,,,,,,,,,,,,,,,,,,,,,,,,,,,,,,,,,,,,,,,,,,,,,,,,,,,,,,,,,,,,,,,
,,GENIUS,15.00424,1,,,,,,stimuli/images/PICTURE_269.png,GENIUS,563f8474cbd4c6000fdc928b,09/11/1948,2020-09-10_16h25.19.011,proactive3.1,2020.1.2,Win32,60,5f599a131af4471f3d752b7b,5f5a43eed39af50b42356f2c,3,,,,,,chameleon,0,3,3,0,1,,,,,,,,,,,,,,,,,,,,,,,,,,,,,,,,,,,,,,,,,,,,,,,,,,,,,,,,,,,,,,,,,,,,,,,,,,,,,,,,,,,,,,,,,,,,,,,,,,,,,,,,,,,,,,,,,,,,
,,CELL,15.00351,1,,,,,,stimuli/images/PICTURE_727.png,CELL,563f8474cbd4c6000fdc928b,09/11/1948,2020-09-10_16h25.19.011,proactive3.1,2020.1.2,Win32,60,5f599a131af4471f3d752b7b,5f5a43eed39af50b42356f2c,3,,,,,,hose,0,4,4,1,1,,,,,,,,,,,,,,,,,,,,,,,,,,,,,,,,,,,,,,,,,,,,,,,,,,,,,,,,,,,,,,,,,,,,,,,,,,,,,,,,,,,,,,,,,,,,,,,,,,,,,,,,,,,,,,,,,,,,
,,,,,,,,,,stimuli/images/PICTURE_564.png,BATH,563f8474cbd4c6000fdc928b,09/11/1948,2020-09-10_16h25.19.011,proactive3.1,2020.1.2,Win32,60,5f599a131af4471f3d752b7b,5f5a43eed39af50b42356f2c,3,,,,,,spoon,,,,,,0,0,0,26,1,3,1,,,,,,,,,,,,,,,,,,,,,,,,,,,,,,,,,,,,,,,,,,,,,,,,,,,,,,,,,,,,,,,,,,,,,,,,,,,,,,,,,,,,,,,,,,,,,,,,,,,,,,,,,,,,,
,,,,,,,,,,stimuli/images/PICTURE_750.png,HOTEL,563f8474cbd4c6000fdc928b,09/11/1948,2020-09-10_16h25.19.011,proactive3.1,2020.1.2,Win32,60,5f599a131af4471f3d752b7b,5f5a43eed39af50b42356f2c,3,,,,,,kettle,,,,,,0,1,1,27,1,3,1,,,,,,,,,,,,,,,,,,,,,,,,,,,,,,,,,,,,,,,,,,,,,,,,,,,,,,,,,,,,,,,,,,,,,,,,,,,,,,,,,,,,,,,,,,,,,,,,,,,,,,,,,,,,,
,,,,,,,,,,stimuli/images/PICTURE_57.png,MOMENT,563f8474cbd4c6000fdc928b,09/11/1948,2020-09-10_16h25.19.011,proactive3.1,2020.1.2,Win32,60,5f599a131af4471f3d752b7b,5f5a43eed39af50b42356f2c,3,,,,,,stamp,,,,,,0,2,2,37,1,4,1,,,,,,,,,,,,,,,,,,,,,,,,,,,,,,,,,,,,,,,,,,,,,,,,,,,,,,,,,,,,,,,,,,,,,,,,,,,,,,,,,,,,,,,,,,,,,,,,,,,,,,,,,,,,,
,,,,,,,,,,stimuli/images/PICTURE_685.png,PENNY,563f8474cbd4c6000fdc928b,09/11/1948,2020-09-10_16h25.19.011,proactive3.1,2020.1.2,Win32,60,5f599a131af4471f3d752b7b,5f5a43eed39af50b42356f2c,3,,,,,,goose,,,,,,0,3,3,4,1,1,1,,,,,,,,,,,,,,,,,,,,,,,,,,,,,,,,,,,,,,,,,,,,,,,,,,,,,,,,,,,,,,,,,,,,,,,,,,,,,,,,,,,,,,,,,,,,,,,,,,,,,,,,,,,,,
,,,,,,,,,,stimuli/images/PICTURE_380.png,HONEY,563f8474cbd4c6000fdc928b,09/11/1948,2020-09-10_16h25.19.011,proactive3.1,2020.1.2,Win32,60,5f599a131af4471f3d752b7b,5f5a43eed39af50b42356f2c,3,,,,,,gorilla,,,,,,0,4,4,19,1,2,1,,,,,,,,,,,,,,,,,,,,,,,,,,,,,,,,,,,,,,,,,,,,,,,,,,,,,,,,,,,,,,,,,,,,,,,,,,,,,,,,,,,,,,,,,,,,,,,,,,,,,,,,,,,,,
,,,,,,,,,,stimuli/images/PICTURE_285.png,LIFE,563f8474cbd4c6000fdc928b,09/11/1948,2020-09-10_16h25.19.011,proactive3.1,2020.1.2,Win32,60,5f599a131af4471f3d752b7b,5f5a43eed39af50b42356f2c,3,,,,,,carrot,,,,,,0,5,5,33,1,4,1,,,,,,,,,,,,,,,,,,,,,,,,,,,,,,,,,,,,,,,,,,,,,,,,,,,,,,,,,,,,,,,,,,,,,,,,,,,,,,,,,,,,,,,,,,,,,,,,,,,,,,,,,,,,,
,,,,,,,,,,stimuli/images/PICTURE_467.png,POLICY,563f8474cbd4c6000fdc928b,09/11/1948,2020-09-10_16h25.19.011,proactive3.1,2020.1.2,Win32,60,5f599a131af4471f3d752b7b,5f5a43eed39af50b42356f2c,3,,,,,,peg,,,,,,0,6,6,53,1,6,1,,,,,,,,,,,,,,,,,,,,,,,,,,,,,,,,,,,,,,,,,,,,,,,,,,,,,,,,,,,,,,,,,,,,,,,,,,,,,,,,,,,,,,,,,,,,,,,,,,,,,,,,,,,,,
,,,,,,,,,,stimuli/images/PICTURE_383.png,WRITER,563f8474cbd4c6000fdc928b,09/11/1948,2020-09-10_16h25.19.011,proactive3.1,2020.1.2,Win32,60,5f599a131af4471f3d752b7b,5f5a43eed39af50b42356f2c,3,,,,,,coin,,,,,,0,7,7,28,1,3,1,,,,,,,,,,,,,,,,,,,,,,,,,,,,,,,,,,,,,,,,,,,,,,,,,,,,,,,,,,,,,,,,,,,,,,,,,,,,,,,,,,,,,,,,,,,,,,,,,,,,,,,,,,,,,
,,,,,,,,,,stimuli/images/PICTURE_403.png,WRITER,563f8474cbd4c6000fdc928b,09/11/1948,2020-09-10_16h25.19.011,proactive3.1,2020.1.2,Win32,60,5f599a131af4471f3d752b7b,5f5a43eed39af50b42356f2c,3,,,,,,cathedral,,,,,,0,8,8,31,1,4,1,,,,,,,,,,,,,,,,,,,,,,,,,,,,,,,,,,,,,,,,,,,,,,,,,,,,,,,,,,,,,,,,,,,,,,,,,,,,,,,,,,,,,,,,,,,,,,,,,,,,,,,,,,,,,
,,,,,,,,,,stimuli/images/PICTURE_2.png,FLIGHT,563f8474cbd4c6000fdc928b,09/11/1948,2020-09-10_16h25.19.011,proactive3.1,2020.1.2,Win32,60,5f599a131af4471f3d752b7b,5f5a43eed39af50b42356f2c,3,,,,,,tyre,,,,,,0,9,9,15,1,2,1,,,,,,,,,,,,,,,,,,,,,,,,,,,,,,,,,,,,,,,,,,,,,,,,,,,,,,,,,,,,,,,,,,,,,,,,,,,,,,,,,,,,,,,,,,,,,,,,,,,,,,,,,,,,,
,,,,,,,,,,stimuli/images/PICTURE_308.png,FAMILY,563f8474cbd4c6000fdc928b,09/11/1948,2020-09-10_16h25.19.011,proactive3.1,2020.1.2,Win32,60,5f599a131af4471f3d752b7b,5f5a43eed39af50b42356f2c,3,,,,,,dice,,,,,,0,10,10,36,1,4,1,,,,,,,,,,,,,,,,,,,,,,,,,,,,,,,,,,,,,,,,,,,,,,,,,,,,,,,,,,,,,,,,,,,,,,,,,,,,,,,,,,,,,,,,,,,,,,,,,,,,,,,,,,,,,
,,,,,,,,,,stimuli/images/PICTURE_449.png,DUDE,563f8474cbd4c6000fdc928b,09/11/1948,2020-09-10_16h25.19.011,proactive3.1,2020.1.2,Win32,60,5f599a131af4471f3d752b7b,5f5a43eed39af50b42356f2c,3,,,,,,bench,,,,,,0,11,11,17,1,2,1,,,,,,,,,,,,,,,,,,,,,,,,,,,,,,,,,,,,,,,,,,,,,,,,,,,,,,,,,,,,,,,,,,,,,,,,,,,,,,,,,,,,,,,,,,,,,,,,,,,,,,,,,,,,,
,,,,,,,,,,stimuli/images/PICTURE_208.png,SYSTEM,563f8474cbd4c6000fdc928b,09/11/1948,2020-09-10_16h25.19.011,proactive3.1,2020.1.2,Win32,60,5f599a131af4471f3d752b7b,5f5a43eed39af50b42356f2c,3,,,,,,microphone,,,,,,0,12,12,32,1,4,1,,,,,,,,,,,,,,,,,,,,,,,,,,,,,,,,,,,,,,,,,,,,,,,,,,,,,,,,,,,,,,,,,,,,,,,,,,,,,,,,,,,,,,,,,,,,,,,,,,,,,,,,,,,,,
,,,,,,,,,,stimuli/images/PICTURE_68.png,MILE,563f8474cbd4c6000fdc928b,09/11/1948,2020-09-10_16h25.19.011,proactive3.1,2020.1.2,Win32,60,5f599a131af4471f3d752b7b,5f5a43eed39af50b42356f2c,3,,,,,,candle,,,,,,0,13,13,51,1,6,1,,,,,,,,,,,,,,,,,,,,,,,,,,,,,,,,,,,,,,,,,,,,,,,,,,,,,,,,,,,,,,,,,,,,,,,,,,,,,,,,,,,,,,,,,,,,,,,,,,,,,,,,,,,,,
,,,,,,,,,,stimuli/images/PICTURE_403.png,TOILET,563f8474cbd4c6000fdc928b,09/11/1948,2020-09-10_16h25.19.011,proactive3.1,2020.1.2,Win32,60,5f599a131af4471f3d752b7b,5f5a43eed39af50b42356f2c,3,,,,,,cathedral,,,,,,0,14,14,25,1,3,1,,,,,,,,,,,,,,,,,,,,,,,,,,,,,,,,,,,,,,,,,,,,,,,,,,,,,,,,,,,,,,,,,,,,,,,,,,,,,,,,,,,,,,,,,,,,,,,,,,,,,,,,,,,,,
,,,,,,,,,,stimuli/images/PICTURE_296.png,LOTS,563f8474cbd4c6000fdc928b,09/11/1948,2020-09-10_16h25.19.011,proactive3.1,2020.1.2,Win32,60,5f599a131af4471f3d752b7b,5f5a43eed39af50b42356f2c,3,,,,,,bolt,,,,,,0,15,15,9,1,1,1,,,,,,,,,,,,,,,,,,,,,,,,,,,,,,,,,,,,,,,,,,,,,,,,,,,,,,,,,,,,,,,,,,,,,,,,,,,,,,,,,,,,,,,,,,,,,,,,,,,,,,,,,,,,,
,,,,,,,,,,stimuli/images/PICTURE_108.png,POLICY,563f8474cbd4c6000fdc928b,09/11/1948,2020-09-10_16h25.19.011,proactive3.1,2020.1.2,Win32,60,5f599a131af4471f3d752b7b,5f5a43eed39af50b42356f2c,3,,,,,,calendar,,,,,,0,16,16,22,1,3,1,,,,,,,,,,,,,,,,,,,,,,,,,,,,,,,,,,,,,,,,,,,,,,,,,,,,,,,,,,,,,,,,,,,,,,,,,,,,,,,,,,,,,,,,,,,,,,,,,,,,,,,,,,,,,
,,,,,,,,,,stimuli/images/PICTURE_405.png,YEAR,563f8474cbd4c6000fdc928b,09/11/1948,2020-09-10_16h25.19.011,proactive3.1,2020.1.2,Win32,60,5f599a131af4471f3d752b7b,5f5a43eed39af50b42356f2c,3,,,,,,anchor,,,,,,0,17,17,34,1,4,1,,,,,,,,,,,,,,,,,,,,,,,,,,,,,,,,,,,,,,,,,,,,,,,,,,,,,,,,,,,,,,,,,,,,,,,,,,,,,,,,,,,,,,,,,,,,,,,,,,,,,,,,,,,,,
,,,,,,,,,,stimuli/images/PICTURE_339.png,CLIENT,563f8474cbd4c6000fdc928b,09/11/1948,2020-09-10_16h25.19.011,proactive3.1,2020.1.2,Win32,60,5f599a131af4471f3d752b7b,5f5a43eed39af50b42356f2c,3,,,,,,backpack,,,,,,0,18,18,11,1,2,1,,,,,,,,,,,,,,,,,,,,,,,,,,,,,,,,,,,,,,,,,,,,,,,,,,,,,,,,,,,,,,,,,,,,,,,,,,,,,,,,,,,,,,,,,,,,,,,,,,,,,,,,,,,,,
,,,,,,,,,,stimuli/images/PICTURE_203.png,NIGHT,563f8474cbd4c6000fdc928b,09/11/1948,2020-09-10_16h25.19.011,proactive3.1,2020.1.2,Win32,60,5f599a131af4471f3d752b7b,5f5a43eed39af50b42356f2c,3,,,,,,cap,,,,,,0,19,19,2,1,1,1,,,,,,,,,,,,,,,,,,,,,,,,,,,,,,,,,,,,,,,,,,,,,,,,,,,,,,,,,,,,,,,,,,,,,,,,,,,,,,,,,,,,,,,,,,,,,,,,,,,,,,,,,,,,,
,,,,,,,,,,stimuli/images/PICTURE_487.png,GIRL,563f8474cbd4c6000fdc928b,09/11/1948,2020-09-10_16h25.19.011,proactive3.1,2020.1.2,Win32,60,5f599a131af4471f3d752b7b,5f5a43eed39af50b42356f2c,3,,,,,,basket,,,,,,0,20,20,45,1,5,1,,,,,,,,,,,,,,,,,,,,,,,,,,,,,,,,,,,,,,,,,,,,,,,,,,,,,,,,,,,,,,,,,,,,,,,,,,,,,,,,,,,,,,,,,,,,,,,,,,,,,,,,,,,,,
,,,,,,,,,,stimuli/images/PICTURE_655.png,TOILET,563f8474cbd4c6000fdc928b,09/11/1948,2020-09-10_16h25.19.011,proactive3.1,2020.1.2,Win32,60,5f599a131af4471f3d752b7b,5f5a43eed39af50b42356f2c,3,,,,,,megaphone,,,,,,0,21,21,12,1,2,1,,,,,,,,,,,,,,,,,,,,,,,,,,,,,,,,,,,,,,,,,,,,,,,,,,,,,,,,,,,,,,,,,,,,,,,,,,,,,,,,,,,,,,,,,,,,,,,,,,,,,,,,,,,,,
,,,,,,,,,,stimuli/images/PICTURE_108.png,FLIGHT,563f8474cbd4c6000fdc928b,09/11/1948,2020-09-10_16h25.19.011,proactive3.1,2020.1.2,Win32,60,5f599a131af4471f3d752b7b,5f5a43eed39af50b42356f2c,3,,,,,,calendar,,,,,,0,22,22,59,1,6,1,,,,,,,,,,,,,,,,,,,,,,,,,,,,,,,,,,,,,,,,,,,,,,,,,,,,,,,,,,,,,,,,,,,,,,,,,,,,,,,,,,,,,,,,,,,,,,,,,,,,,,,,,,,,,
,,,,,,,,,,stimuli/images/PICTURE_32.png,KIND,563f8474cbd4c6000fdc928b,09/11/1948,2020-09-10_16h25.19.011,proactive3.1,2020.1.2,Win32,60,5f599a131af4471f3d752b7b,5f5a43eed39af50b42356f2c,3,,,,,,crown,,,,,,0,23,23,35,1,4,1,,,,,,,,,,,,,,,,,,,,,,,,,,,,,,,,,,,,,,,,,,,,,,,,,,,,,,,,,,,,,,,,,,,,,,,,,,,,,,,,,,,,,,,,,,,,,,,,,,,,,,,,,,,,,
,,,,,,,,,,stimuli/images/PICTURE_383.png,SERIES,563f8474cbd4c6000fdc928b,09/11/1948,2020-09-10_16h25.19.011,proactive3.1,2020.1.2,Win32,60,5f599a131af4471f3d752b7b,5f5a43eed39af50b42356f2c,3,,,,,,coin,,,,,,0,24,24,46,1,5,1,,,,,,,,,,,,,,,,,,,,,,,,,,,,,,,,,,,,,,,,,,,,,,,,,,,,,,,,,,,,,,,,,,,,,,,,,,,,,,,,,,,,,,,,,,,,,,,,,,,,,,,,,,,,,
,,,,,,,,,,stimuli/images/PICTURE_677.png,APPLE,563f8474cbd4c6000fdc928b,09/11/1948,2020-09-10_16h25.19.011,proactive3.1,2020.1.2,Win32,60,5f599a131af4471f3d752b7b,5f5a43eed39af50b42356f2c,3,,,,,,map,,,,,,0,25,25,43,1,5,1,,,,,,,,,,,,,,,,,,,,,,,,,,,,,,,,,,,,,,,,,,,,,,,,,,,,,,,,,,,,,,,,,,,,,,,,,,,,,,,,,,,,,,,,,,,,,,,,,,,,,,,,,,,,,
,,,,,,,,,,stimuli/images/PICTURE_296.png,LIFE,563f8474cbd4c6000fdc928b,09/11/1948,2020-09-10_16h25.19.011,proactive3.1,2020.1.2,Win32,60,5f599a131af4471f3d752b7b,5f5a43eed39af50b42356f2c,3,,,,,,bolt,,,,,,0,26,26,57,1,6,1,,,,,,,,,,,,,,,,,,,,,,,,,,,,,,,,,,,,,,,,,,,,,,,,,,,,,,,,,,,,,,,,,,,,,,,,,,,,,,,,,,,,,,,,,,,,,,,,,,,,,,,,,,,,,
,,,,,,,,,,stimuli/images/PICTURE_33.png,FRIEND,563f8474cbd4c6000fdc928b,09/11/1948,2020-09-10_16h25.19.011,proactive3.1,2020.1.2,Win32,60,5f599a131af4471f3d752b7b,5f5a43eed39af50b42356f2c,3,,,,,,frame,,,,,,0,27,27,8,1,1,1,,,,,,,,,,,,,,,,,,,,,,,,,,,,,,,,,,,,,,,,,,,,,,,,,,,,,,,,,,,,,,,,,,,,,,,,,,,,,,,,,,,,,,,,,,,,,,,,,,,,,,,,,,,,,
,,,,,,,,,,stimuli/images/PICTURE_667.png,RIVER,563f8474cbd4c6000fdc928b,09/11/1948,2020-09-10_16h25.19.011,proactive3.1,2020.1.2,Win32,60,5f599a131af4471f3d752b7b,5f5a43eed39af50b42356f2c,3,,,,,,daisy,,,,,,0,28,28,10,1,2,1,,,,,,,,,,,,,,,,,,,,,,,,,,,,,,,,,,,,,,,,,,,,,,,,,,,,,,,,,,,,,,,,,,,,,,,,,,,,,,,,,,,,,,,,,,,,,,,,,,,,,,,,,,,,,
,,,,,,,,,,stimuli/images/PICTURE_147.png,YEAR,563f8474cbd4c6000fdc928b,09/11/1948,2020-09-10_16h25.19.011,proactive3.1,2020.1.2,Win32,60,5f599a131af4471f3d752b7b,5f5a43eed39af50b42356f2c,3,,,,,,hanger,,,,,,0,29,29,21,1,3,1,,,,,,,,,,,,,,,,,,,,,,,,,,,,,,,,,,,,,,,,,,,,,,,,,,,,,,,,,,,,,,,,,,,,,,,,,,,,,,,,,,,,,,,,,,,,,,,,,,,,,,,,,,,,,
,,,,,,,,,,stimuli/images/PICTURE_340.png,VALLEY,563f8474cbd4c6000fdc928b,09/11/1948,2020-09-10_16h25.19.011,proactive3.1,2020.1.2,Win32,60,5f599a131af4471f3d752b7b,5f5a43eed39af50b42356f2c,3,,,,,,mirror,,,,,,0,30,30,54,1,6,1,,,,,,,,,,,,,,,,,,,,,,,,,,,,,,,,,,,,,,,,,,,,,,,,,,,,,,,,,,,,,,,,,,,,,,,,,,,,,,,,,,,,,,,,,,,,,,,,,,,,,,,,,,,,,
,,,,,,,,,,stimuli/images/PICTURE_708.png,RECORD,563f8474cbd4c6000fdc928b,09/11/1948,2020-09-10_16h25.19.011,proactive3.1,2020.1.2,Win32,60,5f599a131af4471f3d752b7b,5f5a43eed39af50b42356f2c,3,,,,,,monkey,,,,,,0,31,31,58,1,6,1,,,,,,,,,,,,,,,,,,,,,,,,,,,,,,,,,,,,,,,,,,,,,,,,,,,,,,,,,,,,,,,,,,,,,,,,,,,,,,,,,,,,,,,,,,,,,,,,,,,,,,,,,,,,,
,,,,,,,,,,stimuli/images/PICTURE_95.png,HONEY,563f8474cbd4c6000fdc928b,09/11/1948,2020-09-10_16h25.19.011,proactive3.1,2020.1.2,Win32,60,5f599a131af4471f3d752b7b,5f5a43eed39af50b42356f2c,3,,,,,,suitcase,,,,,,0,32,32,44,1,5,1,,,,,,,,,,,,,,,,,,,,,,,,,,,,,,,,,,,,,,,,,,,,,,,,,,,,,,,,,,,,,,,,,,,,,,,,,,,,,,,,,,,,,,,,,,,,,,,,,,,,,,,,,,,,,
,,,,,,,,,,stimuli/images/PICTURE_85.png,TOILET,563f8474cbd4c6000fdc928b,09/11/1948,2020-09-10_16h25.19.011,proactive3.1,2020.1.2,Win32,60,5f599a131af4471f3d752b7b,5f5a43eed39af50b42356f2c,3,,,,,,diamond,,,,,,0,33,33,48,1,5,1,,,,,,,,,,,,,,,,,,,,,,,,,,,,,,,,,,,,,,,,,,,,,,,,,,,,,,,,,,,,,,,,,,,,,,,,,,,,,,,,,,,,,,,,,,,,,,,,,,,,,,,,,,,,,
,,,,,,,,,,stimuli/images/PICTURE_504.png,YEAR,563f8474cbd4c6000fdc928b,09/11/1948,2020-09-10_16h25.19.011,proactive3.1,2020.1.2,Win32,60,5f599a131af4471f3d752b7b,5f5a43eed39af50b42356f2c,3,,,,,,wheel,,,,,,0,34,34,13,1,2,1,,,,,,,,,,,,,,,,,,,,,,,,,,,,,,,,,,,,,,,,,,,,,,,,,,,,,,,,,,,,,,,,,,,,,,,,,,,,,,,,,,,,,,,,,,,,,,,,,,,,,,,,,,,,,
,,,,,,,,,,stimuli/images/PICTURE_403.png,RIVER,563f8474cbd4c6000fdc928b,09/11/1948,2020-09-10_16h25.19.011,proactive3.1,2020.1.2,Win32,60,5f599a131af4471f3d752b7b,5f5a43eed39af50b42356f2c,3,,,,,,cathedral,,,,,,0,35,35,40,1,5,1,,,,,,,,,,,,,,,,,,,,,,,,,,,,,,,,,,,,,,,,,,,,,,,,,,,,,,,,,,,,,,,,,,,,,,,,,,,,,,,,,,,,,,,,,,,,,,,,,,,,,,,,,,,,,
,,,,,,,,,,stimuli/images/PICTURE_95.png,BOYS,563f8474cbd4c6000fdc928b,09/11/1948,2020-09-10_16h25.19.011,proactive3.1,2020.1.2,Win32,60,5f599a131af4471f3d752b7b,5f5a43eed39af50b42356f2c,3,,,,,,suitcase,,,,,,0,36,36,1,1,1,1,,,,,,,,,,,,,,,,,,,,,,,,,,,,,,,,,,,,,,,,,,,,,,,,,,,,,,,,,,,,,,,,,,,,,,,,,,,,,,,,,,,,,,,,,,,,,,,,,,,,,,,,,,,,,
,,,,,,,,,,stimuli/images/PICTURE_85.png,NATION,563f8474cbd4c6000fdc928b,09/11/1948,2020-09-10_16h25.19.011,proactive3.1,2020.1.2,Win32,60,5f599a131af4471f3d752b7b,5f5a43eed39af50b42356f2c,3,,,,,,diamond,,,,,,0,37,37,5,1,1,1,,,,,,,,,,,,,,,,,,,,,,,,,,,,,,,,,,,,,,,,,,,,,,,,,,,,,,,,,,,,,,,,,,,,,,,,,,,,,,,,,,,,,,,,,,,,,,,,,,,,,,,,,,,,,
,,,,,,,,,,stimuli/images/PICTURE_405.png,PLENTY,563f8474cbd4c6000fdc928b,09/11/1948,2020-09-10_16h25.19.011,proactive3.1,2020.1.2,Win32,60,5f599a131af4471f3d752b7b,5f5a43eed39af50b42356f2c,3,,,,,,anchor,,,,,,0,38,38,23,1,3,1,,,,,,,,,,,,,,,,,,,,,,,,,,,,,,,,,,,,,,,,,,,,,,,,,,,,,,,,,,,,,,,,,,,,,,,,,,,,,,,,,,,,,,,,,,,,,,,,,,,,,,,,,,,,,
,,,,,,,,,,stimuli/images/PICTURE_340.png,LETTER,563f8474cbd4c6000fdc928b,09/11/1948,2020-09-10_16h25.19.011,proactive3.1,2020.1.2,Win32,60,5f599a131af4471f3d752b7b,5f5a43eed39af50b42356f2c,3,,,,,,mirror,,,,,,0,39,39,24,1,3,1,,,,,,,,,,,,,,,,,,,,,,,,,,,,,,,,,,,,,,,,,,,,,,,,,,,,,,,,,,,,,,,,,,,,,,,,,,,,,,,,,,,,,,,,,,,,,,,,,,,,,,,,,,,,,
,,,,,,,,,,stimuli/images/PICTURE_177.png,WRITER,563f8474cbd4c6000fdc928b,09/11/1948,2020-09-10_16h25.19.011,proactive3.1,2020.1.2,Win32,60,5f599a131af4471f3d752b7b,5f5a43eed39af50b42356f2c,3,,,,,,mushroom,,,,,,0,40,40,41,1,5,1,,,,,,,,,,,,,,,,,,,,,,,,,,,,,,,,,,,,,,,,,,,,,,,,,,,,,,,,,,,,,,,,,,,,,,,,,,,,,,,,,,,,,,,,,,,,,,,,,,,,,,,,,,,,,
,,,,,,,,,,stimuli/images/PICTURE_95.png,MILLER,563f8474cbd4c6000fdc928b,09/11/1948,2020-09-10_16h25.19.011,proactive3.1,2020.1.2,Win32,60,5f599a131af4471f3d752b7b,5f5a43eed39af50b42356f2c,3,,,,,,suitcase,,,,,,0,41,41,56,1,6,1,,,,,,,,,,,,,,,,,,,,,,,,,,,,,,,,,,,,,,,,,,,,,,,,,,,,,,,,,,,,,,,,,,,,,,,,,,,,,,,,,,,,,,,,,,,,,,,,,,,,,,,,,,,,,
,,,,,,,,,,stimuli/images/PICTURE_380.png,CANDY,563f8474cbd4c6000fdc928b,09/11/1948,2020-09-10_16h25.19.011,proactive3.1,2020.1.2,Win32,60,5f599a131af4471f3d752b7b,5f5a43eed39af50b42356f2c,3,,,,,,gorilla,,,,,,0,42,42,0,1,1,1,,,,,,,,,,,,,,,,,,,,,,,,,,,,,,,,,,,,,,,,,,,,,,,,,,,,,,,,,,,,,,,,,,,,,,,,,,,,,,,,,,,,,,,,,,,,,,,,,,,,,,,,,,,,,
,,,,,,,,,,stimuli/images/PICTURE_504.png,ARTIST,563f8474cbd4c6000fdc928b,09/11/1948,2020-09-10_16h25.19.011,proactive3.1,2020.1.2,Win32,60,5f599a131af4471f3d752b7b,5f5a43eed39af50b42356f2c,3,,,,,,wheel,,,,,,0,43,43,49,1,5,1,,,,,,,,,,,,,,,,,,,,,,,,,,,,,,,,,,,,,,,,,,,,,,,,,,,,,,,,,,,,,,,,,,,,,,,,,,,,,,,,,,,,,,,,,,,,,,,,,,,,,,,,,,,,,
,,,,,,,,,,stimuli/images/PICTURE_675.png,SALE,563f8474cbd4c6000fdc928b,09/11/1948,2020-09-10_16h25.19.011,proactive3.1,2020.1.2,Win32,60,5f599a131af4471f3d752b7b,5f5a43eed39af50b42356f2c,3,,,,,,windmill,,,,,,0,44,44,47,1,5,1,,,,,,,,,,,,,,,,,,,,,,,,,,,,,,,,,,,,,,,,,,,,,,,,,,,,,,,,,,,,,,,,,,,,,,,,,,,,,,,,,,,,,,,,,,,,,,,,,,,,,,,,,,,,,
,,,,,,,,,,stimuli/images/PICTURE_147.png,WOMEN,563f8474cbd4c6000fdc928b,09/11/1948,2020-09-10_16h25.19.011,proactive3.1,2020.1.2,Win32,60,5f599a131af4471f3d752b7b,5f5a43eed39af50b42356f2c,3,,,,,,hanger,,,,,,0,45,45,7,1,1,1,,,,,,,,,,,,,,,,,,,,,,,,,,,,,,,,,,,,,,,,,,,,,,,,,,,,,,,,,,,,,,,,,,,,,,,,,,,,,,,,,,,,,,,,,,,,,,,,,,,,,,,,,,,,,
,,,,,,,,,,stimuli/images/PICTURE_469.png,AGENT,563f8474cbd4c6000fdc928b,09/11/1948,2020-09-10_16h25.19.011,proactive3.1,2020.1.2,Win32,60,5f599a131af4471f3d752b7b,5f5a43eed39af50b42356f2c,3,,,,,,stool,,,,,,0,46,46,16,1,2,1,,,,,,,,,,,,,,,,,,,,,,,,,,,,,,,,,,,,,,,,,,,,,,,,,,,,,,,,,,,,,,,,,,,,,,,,,,,,,,,,,,,,,,,,,,,,,,,,,,,,,,,,,,,,,
,,,,,,,,,,stimuli/images/PICTURE_42.png,BOYS,563f8474cbd4c6000fdc928b,09/11/1948,2020-09-10_16h25.19.011,proactive3.1,2020.1.2,Win32,60,5f599a131af4471f3d752b7b,5f5a43eed39af50b42356f2c,3,,,,,,pear,,,,,,0,47,47,55,1,6,1,,,,,,,,,,,,,,,,,,,,,,,,,,,,,,,,,,,,,,,,,,,,,,,,,,,,,,,,,,,,,,,,,,,,,,,,,,,,,,,,,,,,,,,,,,,,,,,,,,,,,,,,,,,,,
,,,,,,,,,,stimuli/images/PICTURE_203.png,GODS,563f8474cbd4c6000fdc928b,09/11/1948,2020-09-10_16h25.19.011,proactive3.1,2020.1.2,Win32,60,5f599a131af4471f3d752b7b,5f5a43eed39af50b42356f2c,3,,,,,,cap,,,,,,0,48,48,30,1,4,1,,,,,,,,,,,,,,,,,,,,,,,,,,,,,,,,,,,,,,,,,,,,,,,,,,,,,,,,,,,,,,,,,,,,,,,,,,,,,,,,,,,,,,,,,,,,,,,,,,,,,,,,,,,,,
,,,,,,,,,,stimuli/images/PICTURE_297.png,RIVER,563f8474cbd4c6000fdc928b,09/11/1948,2020-09-10_16h25.19.011,proactive3.1,2020.1.2,Win32,60,5f599a131af4471f3d752b7b,5f5a43eed39af50b42356f2c,3,,,,,,aeroplane,,,,,,0,49,49,39,1,4,1,,,,,,,,,,,,,,,,,,,,,,,,,,,,,,,,,,,,,,,,,,,,,,,,,,,,,,,,,,,,,,,,,,,,,,,,,,,,,,,,,,,,,,,,,,,,,,,,,,,,,,,,,,,,,
,,,,,,,,,,stimuli/images/PICTURE_744.png,WEAPON,563f8474cbd4c6000fdc928b,09/11/1948,2020-09-10_16h25.19.011,proactive3.1,2020.1.2,Win32,60,5f599a131af4471f3d752b7b,5f5a43eed39af50b42356f2c,3,,,,,,ring,,,,,,0,50,50,50,1,6,1,,,,,,,,,,,,,,,,,,,,,,,,,,,,,,,,,,,,,,,,,,,,,,,,,,,,,,,,,,,,,,,,,,,,,,,,,,,,,,,,,,,,,,,,,,,,,,,,,,,,,,,,,,,,,
,,,,,,,,,,stimuli/images/PICTURE_491.png,GLASS,563f8474cbd4c6000fdc928b,09/11/1948,2020-09-10_16h25.19.011,proactive3.1,2020.1.2,Win32,60,5f599a131af4471f3d752b7b,5f5a43eed39af50b42356f2c,3,,,,,,rug,,,,,,0,51,51,14,1,2,1,,,,,,,,,,,,,,,,,,,,,,,,,,,,,,,,,,,,,,,,,,,,,,,,,,,,,,,,,,,,,,,,,,,,,,,,,,,,,,,,,,,,,,,,,,,,,,,,,,,,,,,,,,,,,
,,,,,,,,,,stimuli/images/PICTURE_327.png,CASINO,563f8474cbd4c6000fdc928b,09/11/1948,2020-09-10_16h25.19.011,proactive3.1,2020.1.2,Win32,60,5f599a131af4471f3d752b7b,5f5a43eed39af50b42356f2c,3,,,,,,helmet,,,,,,0,52,52,20,1,3,1,,,,,,,,,,,,,,,,,,,,,,,,,,,,,,,,,,,,,,,,,,,,,,,,,,,,,,,,,,,,,,,,,,,,,,,,,,,,,,,,,,,,,,,,,,,,,,,,,,,,,,,,,,,,,
,,,,,,,,,,stimuli/images/PICTURE_233.png,LOTS,563f8474cbd4c6000fdc928b,09/11/1948,2020-09-10_16h25.19.011,proactive3.1,2020.1.2,Win32,60,5f599a131af4471f3d752b7b,5f5a43eed39af50b42356f2c,3,,,,,,salt,,,,,,0,53,53,42,1,5,1,,,,,,,,,,,,,,,,,,,,,,,,,,,,,,,,,,,,,,,,,,,,,,,,,,,,,,,,,,,,,,,,,,,,,,,,,,,,,,,,,,,,,,,,,,,,,,,,,,,,,,,,,,,,,
,,,,,,,,,,stimuli/images/PICTURE_32.png,PILLS,563f8474cbd4c6000fdc928b,09/11/1948,2020-09-10_16h25.19.011,proactive3.1,2020.1.2,Win32,60,5f599a131af4471f3d752b7b,5f5a43eed39af50b42356f2c,3,,,,,,crown,,,,,,0,54,54,18,1,2,1,,,,,,,,,,,,,,,,,,,,,,,,,,,,,,,,,,,,,,,,,,,,,,,,,,,,,,,,,,,,,,,,,,,,,,,,,,,,,,,,,,,,,,,,,,,,,,,,,,,,,,,,,,,,,
,,,,,,,,,,stimuli/images/PICTURE_68.png,ROOF,563f8474cbd4c6000fdc928b,09/11/1948,2020-09-10_16h25.19.011,proactive3.1,2020.1.2,Win32,60,5f599a131af4471f3d752b7b,5f5a43eed39af50b42356f2c,3,,,,,,candle,,,,,,0,55,55,38,1,4,1,,,,,,,,,,,,,,,,,,,,,,,,,,,,,,,,,,,,,,,,,,,,,,,,,,,,,,,,,,,,,,,,,,,,,,,,,,,,,,,,,,,,,,,,,,,,,,,,,,,,,,,,,,,,,
,,,,,,,,,,stimuli/images/PICTURE_491.png,RIVER,563f8474cbd4c6000fdc928b,09/11/1948,2020-09-10_16h25.19.011,proactive3.1,2020.1.2,Win32,60,5f599a131af4471f3d752b7b,5f5a43eed39af50b42356f2c,3,,,,,,rug,,,,,,0,56,56,6,1,1,1,,,,,,,,,,,,,,,,,,,,,,,,,,,,,,,,,,,,,,,,,,,,,,,,,,,,,,,,,,,,,,,,,,,,,,,,,,,,,,,,,,,,,,,,,,,,,,,,,,,,,,,,,,,,,
,,,,,,,,,,stimuli/images/PICTURE_327.png,SERIES,563f8474cbd4c6000fdc928b,09/11/1948,2020-09-10_16h25.19.011,proactive3.1,2020.1.2,Win32,60,5f599a131af4471f3d752b7b,5f5a43eed39af50b42356f2c,3,,,,,,helmet,,,,,,0,57,57,3,1,1,1,,,,,,,,,,,,,,,,,,,,,,,,,,,,,,,,,,,,,,,,,,,,,,,,,,,,,,,,,,,,,,,,,,,,,,,,,,,,,,,,,,,,,,,,,,,,,,,,,,,,,,,,,,,,,
,,,,,,,,,,stimuli/images/PICTURE_654.png,MONTH,563f8474cbd4c6000fdc928b,09/11/1948,2020-09-10_16h25.19.011,proactive3.1,2020.1.2,Win32,60,5f599a131af4471f3d752b7b,5f5a43eed39af50b42356f2c,3,,,,,,pencil,,,,,,0,58,58,29,1,3,1,,,,,,,,,,,,,,,,,,,,,,,,,,,,,,,,,,,,,,,,,,,,,,,,,,,,,,,,,,,,,,,,,,,,,,,,,,,,,,,,,,,,,,,,,,,,,,,,,,,,,,,,,,,,,
,,?,0.00796,0,,,,,,stimuli/images/PICTURE_85.png,TOILET,563f8474cbd4c6000fdc928b,09/11/1948,2020-09-10_16h25.19.011,proactive3.1,2020.1.2,Win32,60,5f599a131af4471f3d752b7b,5f5a43eed39af50b42356f2c,3,,,,,,diamond,,,,,,,,,,,5,1,0,0,0,48,1,,,,,,,,,,,,,,,,,,,,,,,,,,,,,,,,,,,,,,,,,,,,,,,,,,,,,,,,,,,,,,,,,,,,,,,,,,,,,,,,,,,,,,,,,,,,,,,,,,,,,,,,
,,PLENTY,15.00965,1,,,,,,stimuli/images/PICTURE_405.png,PLENTY,563f8474cbd4c6000fdc928b,09/11/1948,2020-09-10_16h25.19.011,proactive3.1,2020.1.2,Win32,60,5f599a131af4471f3d752b7b,5f5a43eed39af50b42356f2c,3,,,,,,anchor,,,,,,,,,,,3,1,0,1,1,23,1,,,,,,,,,,,,,,,,,,,,,,,,,,,,,,,,,,,,,,,,,,,,,,,,,,,,,,,,,,,,,,,,,,,,,,,,,,,,,,,,,,,,,,,,,,,,,,,,,,,,,,,,
,,?,0.003465,0,,,,,,stimuli/images/PICTURE_327.png,SERIES,563f8474cbd4c6000fdc928b,09/11/1948,2020-09-10_16h25.19.011,proactive3.1,2020.1.2,Win32,60,5f599a131af4471f3d752b7b,5f5a43eed39af50b42356f2c,3,,,,,,helmet,,,,,,,,,,,1,1,0,2,2,3,1,,,,,,,,,,,,,,,,,,,,,,,,,,,,,,,,,,,,,,,,,,,,,,,,,,,,,,,,,,,,,,,,,,,,,,,,,,,,,,,,,,,,,,,,,,,,,,,,,,,,,,,,
,,?,0.00192,0,,,,,,stimuli/images/PICTURE_708.png,RECORD,563f8474cbd4c6000fdc928b,09/11/1948,2020-09-10_16h25.19.011,proactive3.1,2020.1.2,Win32,60,5f599a131af4471f3d752b7b,5f5a43eed39af50b42356f2c,3,,,,,,monkey,,,,,,,,,,,6,1,0,3,3,58,1,,,,,,,,,,,,,,,,,,,,,,,,,,,,,,,,,,,,,,,,,,,,,,,,,,,,,,,,,,,,,,,,,,,,,,,,,,,,,,,,,,,,,,,,,,,,,,,,,,,,,,,,
,,YEAR,15.00307,1,,,,,,stimuli/images/PICTURE_147.png,YEAR,563f8474cbd4c6000fdc928b,09/11/1948,2020-09-10_16h25.19.011,proactive3.1,2020.1.2,Win32,60,5f599a131af4471f3d752b7b,5f5a43eed39af50b42356f2c,3,,,,,,hanger,,,,,,,,,,,3,1,0,4,4,21,1,,,,,,,,,,,,,,,,,,,,,,,,,,,,,,,,,,,,,,,,,,,,,,,,,,,,,,,,,,,,,,,,,,,,,,,,,,,,,,,,,,,,,,,,,,,,,,,,,,,,,,,,
,,?,0.00185,0,,,,,,stimuli/images/PICTURE_504.png,YEAR,563f8474cbd4c6000fdc928b,09/11/1948,2020-09-10_16h25.19.011,proactive3.1,2020.1.2,Win32,60,5f599a131af4471f3d752b7b,5f5a43eed39af50b42356f2c,3,,,,,,wheel,,,,,,,,,,,2,1,0,5,5,13,1,,,,,,,,,,,,,,,,,,,,,,,,,,,,,,,,,,,,,,,,,,,,,,,,,,,,,,,,,,,,,,,,,,,,,,,,,,,,,,,,,,,,,,,,,,,,,,,,,,,,,,,,
,,?,0.00297,0,,,,,,stimuli/images/PICTURE_203.png,NIGHT,563f8474cbd4c6000fdc928b,09/11/1948,2020-09-10_16h25.19.011,proactive3.1,2020.1.2,Win32,60,5f599a131af4471f3d752b7b,5f5a43eed39af50b42356f2c,3,,,,,,cap,,,,,,,,,,,1,1,0,6,6,2,1,,,,,,,,,,,,,,,,,,,,,,,,,,,,,,,,,,,,,,,,,,,,,,,,,,,,,,,,,,,,,,,,,,,,,,,,,,,,,,,,,,,,,,,,,,,,,,,,,,,,,,,,
,,?,0.00326,0,,,,,,stimuli/images/PICTURE_655.png,TOILET,563f8474cbd4c6000fdc928b,09/11/1948,2020-09-10_16h25.19.011,proactive3.1,2020.1.2,Win32,60,5f599a131af4471f3d752b7b,5f5a43eed39af50b42356f2c,3,,,,,,megaphone,,,,,,,,,,,2,1,0,7,7,12,1,,,,,,,,,,,,,,,,,,,,,,,,,,,,,,,,,,,,,,,,,,,,,,,,,,,,,,,,,,,,,,,,,,,,,,,,,,,,,,,,,,,,,,,,,,,,,,,,,,,,,,,,
,,?,0.001975,0,,,,,,stimuli/images/PICTURE_85.png,NATION,563f8474cbd4c6000fdc928b,09/11/1948,2020-09-10_16h25.19.011,proactive3.1,2020.1.2,Win32,60,5f599a131af4471f3d752b7b,5f5a43eed39af50b42356f2c,3,,,,,,diamond,,,,,,,,,,,1,1,0,8,8,5,1,,,,,,,,,,,,,,,,,,,,,,,,,,,,,,,,,,,,,,,,,,,,,,,,,,,,,,,,,,,,,,,,,,,,,,,,,,,,,,,,,,,,,,,,,,,,,,,,,,,,,,,,
,,?,0.001895,0,,,,,,stimuli/images/PICTURE_296.png,LOTS,563f8474cbd4c6000fdc928b,09/11/1948,2020-09-10_16h25.19.011,proactive3.1,2020.1.2,Win32,60,5f599a131af4471f3d752b7b,5f5a43eed39af50b42356f2c,3,,,,,,bolt,,,,,,,,,,,1,1,0,9,9,9,1,,,,,,,,,,,,,,,,,,,,,,,,,,,,,,,,,,,,,,,,,,,,,,,,,,,,,,,,,,,,,,,,,,,,,,,,,,,,,,,,,,,,,,,,,,,,,,,,,,,,,,,,
,,?,0.002275,0,,,,,,stimuli/images/PICTURE_339.png,CLIENT,563f8474cbd4c6000fdc928b,09/11/1948,2020-09-10_16h25.19.011,proactive3.1,2020.1.2,Win32,60,5f599a131af4471f3d752b7b,5f5a43eed39af50b42356f2c,3,,,,,,backpack,,,,,,,,,,,2,1,0,10,10,11,1,,,,,,,,,,,,,,,,,,,,,,,,,,,,,,,,,,,,,,,,,,,,,,,,,,,,,,,,,,,,,,,,,,,,,,,,,,,,,,,,,,,,,,,,,,,,,,,,,,,,,,,,
,,?,0.002205,0,,,,,,stimuli/images/PICTURE_380.png,HONEY,563f8474cbd4c6000fdc928b,09/11/1948,2020-09-10_16h25.19.011,proactive3.1,2020.1.2,Win32,60,5f599a131af4471f3d752b7b,5f5a43eed39af50b42356f2c,3,,,,,,gorilla,,,,,,,,,,,2,1,0,11,11,19,1,,,,,,,,,,,,,,,,,,,,,,,,,,,,,,,,,,,,,,,,,,,,,,,,,,,,,,,,,,,,,,,,,,,,,,,,,,,,,,,,,,,,,,,,,,,,,,,,,,,,,,,,
,,?,0.003205,0,,,,,,stimuli/images/PICTURE_403.png,WRITER,563f8474cbd4c6000fdc928b,09/11/1948,2020-09-10_16h25.19.011,proactive3.1,2020.1.2,Win32,60,5f599a131af4471f3d752b7b,5f5a43eed39af50b42356f2c,3,,,,,,cathedral,,,,,,,,,,,4,1,0,12,12,31,1,,,,,,,,,,,,,,,,,,,,,,,,,,,,,,,,,,,,,,,,,,,,,,,,,,,,,,,,,,,,,,,,,,,,,,,,,,,,,,,,,,,,,,,,,,,,,,,,,,,,,,,,
,,?,0.00203,0,,,,,,stimuli/images/PICTURE_177.png,WRITER,563f8474cbd4c6000fdc928b,09/11/1948,2020-09-10_16h25.19.011,proactive3.1,2020.1.2,Win32,60,5f599a131af4471f3d752b7b,5f5a43eed39af50b42356f2c,3,,,,,,mushroom,,,,,,,,,,,5,1,0,13,13,41,1,,,,,,,,,,,,,,,,,,,,,,,,,,,,,,,,,,,,,,,,,,,,,,,,,,,,,,,,,,,,,,,,,,,,,,,,,,,,,,,,,,,,,,,,,,,,,,,,,,,,,,,,
,,?,0.00293,0,,,,,,stimuli/images/PICTURE_296.png,LIFE,563f8474cbd4c6000fdc928b,09/11/1948,2020-09-10_16h25.19.011,proactive3.1,2020.1.2,Win32,60,5f599a131af4471f3d752b7b,5f5a43eed39af50b42356f2c,3,,,,,,bolt,,,,,,,,,,,6,1,0,14,14,57,1,,,,,,,,,,,,,,,,,,,,,,,,,,,,,,,,,,,,,,,,,,,,,,,,,,,,,,,,,,,,,,,,,,,,,,,,,,,,,,,,,,,,,,,,,,,,,,,,,,,,,,,,
,,BATH,15.006605,1,,,,,,stimuli/images/PICTURE_564.png,BATH,563f8474cbd4c6000fdc928b,09/11/1948,2020-09-10_16h25.19.011,proactive3.1,2020.1.2,Win32,60,5f599a131af4471f3d752b7b,5f5a43eed39af50b42356f2c,3,,,,,,spoon,,,,,,,,,,,3,1,0,15,15,26,1,,,,,,,,,,,,,,,,,,,,,,,,,,,,,,,,,,,,,,,,,,,,,,,,,,,,,,,,,,,,,,,,,,,,,,,,,,,,,,,,,,,,,,,,,,,,,,,,,,,,,,,,
,,MONTH,15.00238,1,,,,,,stimuli/images/PICTURE_654.png,MONTH,563f8474cbd4c6000fdc928b,09/11/1948,2020-09-10_16h25.19.011,proactive3.1,2020.1.2,Win32,60,5f599a131af4471f3d752b7b,5f5a43eed39af50b42356f2c,3,,,,,,pencil,,,,,,,,,,,3,1,0,16,16,29,1,,,,,,,,,,,,,,,,,,,,,,,,,,,,,,,,,,,,,,,,,,,,,,,,,,,,,,,,,,,,,,,,,,,,,,,,,,,,,,,,,,,,,,,,,,,,,,,,,,,,,,,,
,,?,0.002625,0,,,,,,stimuli/images/PICTURE_677.png,APPLE,563f8474cbd4c6000fdc928b,09/11/1948,2020-09-10_16h25.19.011,proactive3.1,2020.1.2,Win32,60,5f599a131af4471f3d752b7b,5f5a43eed39af50b42356f2c,3,,,,,,map,,,,,,,,,,,5,1,0,17,17,43,1,,,,,,,,,,,,,,,,,,,,,,,,,,,,,,,,,,,,,,,,,,,,,,,,,,,,,,,,,,,,,,,,,,,,,,,,,,,,,,,,,,,,,,,,,,,,,,,,,,,,,,,,
,,?,0.003445,0,,,,,,stimuli/images/PICTURE_233.png,LOTS,563f8474cbd4c6000fdc928b,09/11/1948,2020-09-10_16h25.19.011,proactive3.1,2020.1.2,Win32,60,5f599a131af4471f3d752b7b,5f5a43eed39af50b42356f2c,3,,,,,,salt,,,,,,,,,,,5,1,0,18,18,42,1,,,,,,,,,,,,,,,,,,,,,,,,,,,,,,,,,,,,,,,,,,,,,,,,,,,,,,,,,,,,,,,,,,,,,,,,,,,,,,,,,,,,,,,,,,,,,,,,,,,,,,,,
,,?,0.00209,0,,,,,,stimuli/images/PICTURE_685.png,PENNY,563f8474cbd4c6000fdc928b,09/11/1948,2020-09-10_16h25.19.011,proactive3.1,2020.1.2,Win32,60,5f599a131af4471f3d752b7b,5f5a43eed39af50b42356f2c,3,,,,,,goose,,,,,,,,,,,1,1,0,19,19,4,1,,,,,,,,,,,,,,,,,,,,,,,,,,,,,,,,,,,,,,,,,,,,,,,,,,,,,,,,,,,,,,,,,,,,,,,,,,,,,,,,,,,,,,,,,,,,,,,,,,,,,,,,
,,?,0.00204,0,,,,,,stimuli/images/PICTURE_208.png,SYSTEM,563f8474cbd4c6000fdc928b,09/11/1948,2020-09-10_16h25.19.011,proactive3.1,2020.1.2,Win32,60,5f599a131af4471f3d752b7b,5f5a43eed39af50b42356f2c,3,,,,,,microphone,,,,,,,,,,,4,1,0,20,20,32,1,,,,,,,,,,,,,,,,,,,,,,,,,,,,,,,,,,,,,,,,,,,,,,,,,,,,,,,,,,,,,,,,,,,,,,,,,,,,,,,,,,,,,,,,,,,,,,,,,,,,,,,,
,,?,0.003635,0,,,,,,stimuli/images/PICTURE_32.png,PILLS,563f8474cbd4c6000fdc928b,09/11/1948,2020-09-10_16h25.19.011,proactive3.1,2020.1.2,Win32,60,5f599a131af4471f3d752b7b,5f5a43eed39af50b42356f2c,3,,,,,,crown,,,,,,,,,,,2,1,0,21,21,18,1,,,,,,,,,,,,,,,,,,,,,,,,,,,,,,,,,,,,,,,,,,,,,,,,,,,,,,,,,,,,,,,,,,,,,,,,,,,,,,,,,,,,,,,,,,,,,,,,,,,,,,,,
,,LETTER,15.01066,0,,,,,,stimuli/images/PICTURE_108.png,POLICY,563f8474cbd4c6000fdc928b,09/11/1948,2020-09-10_16h25.19.011,proactive3.1,2020.1.2,Win32,60,5f599a131af4471f3d752b7b,5f5a43eed39af50b42356f2c,3,,,,,,calendar,,,,,,,,,,,3,1,0,22,22,22,1,,,,,,,,,,,,,,,,,,,,,,,,,,,,,,,,,,,,,,,,,,,,,,,,,,,,,,,,,,,,,,,,,,,,,,,,,,,,,,,,,,,,,,,,,,,,,,,,,,,,,,,,
,,?,0.001775,0,,,,,,stimuli/images/PICTURE_95.png,MILLER,563f8474cbd4c6000fdc928b,09/11/1948,2020-09-10_16h25.19.011,proactive3.1,2020.1.2,Win32,60,5f599a131af4471f3d752b7b,5f5a43eed39af50b42356f2c,3,,,,,,suitcase,,,,,,,,,,,6,1,0,23,23,56,1,,,,,,,,,,,,,,,,,,,,,,,,,,,,,,,,,,,,,,,,,,,,,,,,,,,,,,,,,,,,,,,,,,,,,,,,,,,,,,,,,,,,,,,,,,,,,,,,,,,,,,,,
,,?,0.00178,0,,,,,,stimuli/images/PICTURE_504.png,COPS,563f8474cbd4c6000fdc928b,09/11/1948,2020-09-10_16h25.19.011,proactive3.1,2020.1.2,Win32,60,5f599a131af4471f3d752b7b,5f5a43eed39af50b42356f2c,3,,,,,,wheel,,,,,,,,,,,6,1,0,24,24,52,1,,,,,,,,,,,,,,,,,,,,,,,,,,,,,,,,,,,,,,,,,,,,,,,,,,,,,,,,,,,,,,,,,,,,,,,,,,,,,,,,,,,,,,,,,,,,,,,,,,,,,,,,
,,?,0.001985,0,,,,,,stimuli/images/PICTURE_33.png,FRIEND,563f8474cbd4c6000fdc928b,09/11/1948,2020-09-10_16h25.19.011,proactive3.1,2020.1.2,Win32,60,5f599a131af4471f3d752b7b,5f5a43eed39af50b42356f2c,3,,,,,,frame,,,,,,,,,,,1,1,0,25,25,8,1,,,,,,,,,,,,,,,,,,,,,,,,,,,,,,,,,,,,,,,,,,,,,,,,,,,,,,,,,,,,,,,,,,,,,,,,,,,,,,,,,,,,,,,,,,,,,,,,,,,,,,,,
,,?,0.00217,0,,,,,,stimuli/images/PICTURE_491.png,RIVER,563f8474cbd4c6000fdc928b,09/11/1948,2020-09-10_16h25.19.011,proactive3.1,2020.1.2,Win32,60,5f599a131af4471f3d752b7b,5f5a43eed39af50b42356f2c,3,,,,,,rug,,,,,,,,,,,1,1,0,26,26,6,1,,,,,,,,,,,,,,,,,,,,,,,,,,,,,,,,,,,,,,,,,,,,,,,,,,,,,,,,,,,,,,,,,,,,,,,,,,,,,,,,,,,,,,,,,,,,,,,,,,,,,,,,
,,?,0.00196,0,,,,,,stimuli/images/PICTURE_340.png,VALLEY,563f8474cbd4c6000fdc928b,09/11/1948,2020-09-10_16h25.19.011,proactive3.1,2020.1.2,Win32,60,5f599a131af4471f3d752b7b,5f5a43eed39af50b42356f2c,3,,,,,,mirror,,,,,,,,,,,6,1,0,27,27,54,1,,,,,,,,,,,,,,,,,,,,,,,,,,,,,,,,,,,,,,,,,,,,,,,,,,,,,,,,,,,,,,,,,,,,,,,,,,,,,,,,,,,,,,,,,,,,,,,,,,,,,,,,
,,?,0.001805,0,,,,,,stimuli/images/PICTURE_675.png,SALE,563f8474cbd4c6000fdc928b,09/11/1948,2020-09-10_16h25.19.011,proactive3.1,2020.1.2,Win32,60,5f599a131af4471f3d752b7b,5f5a43eed39af50b42356f2c,3,,,,,,windmill,,,,,,,,,,,5,1,0,28,28,47,1,,,,,,,,,,,,,,,,,,,,,,,,,,,,,,,,,,,,,,,,,,,,,,,,,,,,,,,,,,,,,,,,,,,,,,,,,,,,,,,,,,,,,,,,,,,,,,,,,,,,,,,,
,,?,0.001745,0,,,,,,stimuli/images/PICTURE_744.png,WEAPON,563f8474cbd4c6000fdc928b,09/11/1948,2020-09-10_16h25.19.011,proactive3.1,2020.1.2,Win32,60,5f599a131af4471f3d752b7b,5f5a43eed39af50b42356f2c,3,,,,,,ring,,,,,,,,,,,6,1,0,29,29,50,1,,,,,,,,,,,,,,,,,,,,,,,,,,,,,,,,,,,,,,,,,,,,,,,,,,,,,,,,,,,,,,,,,,,,,,,,,,,,,,,,,,,,,,,,,,,,,,,,,,,,,,,,
,,LETTER,15.00099,1,,,,,,stimuli/images/PICTURE_340.png,LETTER,563f8474cbd4c6000fdc928b,09/11/1948,2020-09-10_16h25.19.011,proactive3.1,2020.1.2,Win32,60,5f599a131af4471f3d752b7b,5f5a43eed39af50b42356f2c,3,,,,,,mirror,,,,,,,,,,,3,1,0,30,30,24,1,,,,,,,,,,,,,,,,,,,,,,,,,,,,,,,,,,,,,,,,,,,,,,,,,,,,,,,,,,,,,,,,,,,,,,,,,,,,,,,,,,,,,,,,,,,,,,,,,,,,,,,,
,,?,0.001765,0,,,,,,stimuli/images/PICTURE_285.png,LIFE,563f8474cbd4c6000fdc928b,09/11/1948,2020-09-10_16h25.19.011,proactive3.1,2020.1.2,Win32,60,5f599a131af4471f3d752b7b,5f5a43eed39af50b42356f2c,3,,,,,,carrot,,,,,,,,,,,4,1,0,31,31,33,1,,,,,,,,,,,,,,,,,,,,,,,,,,,,,,,,,,,,,,,,,,,,,,,,,,,,,,,,,,,,,,,,,,,,,,,,,,,,,,,,,,,,,,,,,,,,,,,,,,,,,,,,
,,?,0.00174,0,,,,,,stimuli/images/PICTURE_667.png,RIVER,563f8474cbd4c6000fdc928b,09/11/1948,2020-09-10_16h25.19.011,proactive3.1,2020.1.2,Win32,60,5f599a131af4471f3d752b7b,5f5a43eed39af50b42356f2c,3,,,,,,daisy,,,,,,,,,,,2,1,0,32,32,10,1,,,,,,,,,,,,,,,,,,,,,,,,,,,,,,,,,,,,,,,,,,,,,,,,,,,,,,,,,,,,,,,,,,,,,,,,,,,,,,,,,,,,,,,,,,,,,,,,,,,,,,,,
,,HOTEL,15.007695,1,,,,,,stimuli/images/PICTURE_750.png,HOTEL,563f8474cbd4c6000fdc928b,09/11/1948,2020-09-10_16h25.19.011,proactive3.1,2020.1.2,Win32,60,5f599a131af4471f3d752b7b,5f5a43eed39af50b42356f2c,3,,,,,,kettle,,,,,,,,,,,3,1,0,33,33,27,1,,,,,,,,,,,,,,,,,,,,,,,,,,,,,,,,,,,,,,,,,,,,,,,,,,,,,,,,,,,,,,,,,,,,,,,,,,,,,,,,,,,,,,,,,,,,,,,,,,,,,,,,
,,?,0.00183,0,,,,,,stimuli/images/PICTURE_403.png,RIVER,563f8474cbd4c6000fdc928b,09/11/1948,2020-09-10_16h25.19.011,proactive3.1,2020.1.2,Win32,60,5f599a131af4471f3d752b7b,5f5a43eed39af50b42356f2c,3,,,,,,cathedral,,,,,,,,,,,5,1,0,34,34,40,1,,,,,,,,,,,,,,,,,,,,,,,,,,,,,,,,,,,,,,,,,,,,,,,,,,,,,,,,,,,,,,,,,,,,,,,,,,,,,,,,,,,,,,,,,,,,,,,,,,,,,,,,
,,?,0.001785,0,,,,,,stimuli/images/PICTURE_95.png,BOYS,563f8474cbd4c6000fdc928b,09/11/1948,2020-09-10_16h25.19.011,proactive3.1,2020.1.2,Win32,60,5f599a131af4471f3d752b7b,5f5a43eed39af50b42356f2c,3,,,,,,suitcase,,,,,,,,,,,1,1,0,35,35,1,1,,,,,,,,,,,,,,,,,,,,,,,,,,,,,,,,,,,,,,,,,,,,,,,,,,,,,,,,,,,,,,,,,,,,,,,,,,,,,,,,,,,,,,,,,,,,,,,,,,,,,,,,
,,?,0.00443,0,,,,,,stimuli/images/PICTURE_42.png,BOYS,563f8474cbd4c6000fdc928b,09/11/1948,2020-09-10_16h25.19.011,proactive3.1,2020.1.2,Win32,60,5f599a131af4471f3d752b7b,5f5a43eed39af50b42356f2c,3,,,,,,pear,,,,,,,,,,,6,1,0,36,36,55,1,,,,,,,,,,,,,,,,,,,,,,,,,,,,,,,,,,,,,,,,,,,,,,,,,,,,,,,,,,,,,,,,,,,,,,,,,,,,,,,,,,,,,,,,,,,,,,,,,,,,,,,,
,,WRITER,15.00697,1,,,,,,stimuli/images/PICTURE_383.png,WRITER,563f8474cbd4c6000fdc928b,09/11/1948,2020-09-10_16h25.19.011,proactive3.1,2020.1.2,Win32,60,5f599a131af4471f3d752b7b,5f5a43eed39af50b42356f2c,3,,,,,,coin,,,,,,,,,,,3,1,0,37,37,28,1,,,,,,,,,,,,,,,,,,,,,,,,,,,,,,,,,,,,,,,,,,,,,,,,,,,,,,,,,,,,,,,,,,,,,,,,,,,,,,,,,,,,,,,,,,,,,,,,,,,,,,,,
,,?,0.00183,0,,,,,,stimuli/images/PICTURE_405.png,YEAR,563f8474cbd4c6000fdc928b,09/11/1948,2020-09-10_16h25.19.011,proactive3.1,2020.1.2,Win32,60,5f599a131af4471f3d752b7b,5f5a43eed39af50b42356f2c,3,,,,,,anchor,,,,,,,,,,,4,1,0,38,38,34,1,,,,,,,,,,,,,,,,,,,,,,,,,,,,,,,,,,,,,,,,,,,,,,,,,,,,,,,,,,,,,,,,,,,,,,,,,,,,,,,,,,,,,,,,,,,,,,,,,,,,,,,,
,,?,0.001745,0,,,,,,stimuli/images/PICTURE_308.png,FAMILY,563f8474cbd4c6000fdc928b,09/11/1948,2020-09-10_16h25.19.011,proactive3.1,2020.1.2,Win32,60,5f599a131af4471f3d752b7b,5f5a43eed39af50b42356f2c,3,,,,,,dice,,,,,,,,,,,4,1,0,39,39,36,1,,,,,,,,,,,,,,,,,,,,,,,,,,,,,,,,,,,,,,,,,,,,,,,,,,,,,,,,,,,,,,,,,,,,,,,,,,,,,,,,,,,,,,,,,,,,,,,,,,,,,,,,
,,?,0.002325,0,,,,,,stimuli/images/PICTURE_504.png,ARTIST,563f8474cbd4c6000fdc928b,09/11/1948,2020-09-10_16h25.19.011,proactive3.1,2020.1.2,Win32,60,5f599a131af4471f3d752b7b,5f5a43eed39af50b42356f2c,3,,,,,,wheel,,,,,,,,,,,5,1,0,40,40,49,1,,,,,,,,,,,,,,,,,,,,,,,,,,,,,,,,,,,,,,,,,,,,,,,,,,,,,,,,,,,,,,,,,,,,,,,,,,,,,,,,,,,,,,,,,,,,,,,,,,,,,,,,
,,?,0.001755,0,,,,,,stimuli/images/PICTURE_57.png,MOMENT,563f8474cbd4c6000fdc928b,09/11/1948,2020-09-10_16h25.19.011,proactive3.1,2020.1.2,Win32,60,5f599a131af4471f3d752b7b,5f5a43eed39af50b42356f2c,3,,,,,,stamp,,,,,,,,,,,4,1,0,41,41,37,1,,,,,,,,,,,,,,,,,,,,,,,,,,,,,,,,,,,,,,,,,,,,,,,,,,,,,,,,,,,,,,,,,,,,,,,,,,,,,,,,,,,,,,,,,,,,,,,,,,,,,,,,
,,?,0.001885,0,,,,,,stimuli/images/PICTURE_68.png,ROOF,563f8474cbd4c6000fdc928b,09/11/1948,2020-09-10_16h25.19.011,proactive3.1,2020.1.2,Win32,60,5f599a131af4471f3d752b7b,5f5a43eed39af50b42356f2c,3,,,,,,candle,,,,,,,,,,,4,1,0,42,42,38,1,,,,,,,,,,,,,,,,,,,,,,,,,,,,,,,,,,,,,,,,,,,,,,,,,,,,,,,,,,,,,,,,,,,,,,,,,,,,,,,,,,,,,,,,,,,,,,,,,,,,,,,,
,,?,0.001995,0,,,,,,stimuli/images/PICTURE_95.png,HONEY,563f8474cbd4c6000fdc928b,09/11/1948,2020-09-10_16h25.19.011,proactive3.1,2020.1.2,Win32,60,5f599a131af4471f3d752b7b,5f5a43eed39af50b42356f2c,3,,,,,,suitcase,,,,,,,,,,,5,1,0,43,43,44,1,,,,,,,,,,,,,,,,,,,,,,,,,,,,,,,,,,,,,,,,,,,,,,,,,,,,,,,,,,,,,,,,,,,,,,,,,,,,,,,,,,,,,,,,,,,,,,,,,,,,,,,,
,,?,0.001835,0,,,,,,stimuli/images/PICTURE_467.png,POLICY,563f8474cbd4c6000fdc928b,09/11/1948,2020-09-10_16h25.19.011,proactive3.1,2020.1.2,Win32,60,5f599a131af4471f3d752b7b,5f5a43eed39af50b42356f2c,3,,,,,,peg,,,,,,,,,,,6,1,0,44,44,53,1,,,,,,,,,,,,,,,,,,,,,,,,,,,,,,,,,,,,,,,,,,,,,,,,,,,,,,,,,,,,,,,,,,,,,,,,,,,,,,,,,,,,,,,,,,,,,,,,,,,,,,,,
,,?,0.00173,0,,,,,,stimuli/images/PICTURE_469.png,AGENT,563f8474cbd4c6000fdc928b,09/11/1948,2020-09-10_16h25.19.011,proactive3.1,2020.1.2,Win32,60,5f599a131af4471f3d752b7b,5f5a43eed39af50b42356f2c,3,,,,,,stool,,,,,,,,,,,2,1,0,45,45,16,1,,,,,,,,,,,,,,,,,,,,,,,,,,,,,,,,,,,,,,,,,,,,,,,,,,,,,,,,,,,,,,,,,,,,,,,,,,,,,,,,,,,,,,,,,,,,,,,,,,,,,,,,
,,?,0.003075,0,,,,,,stimuli/images/PICTURE_147.png,WOMEN,563f8474cbd4c6000fdc928b,09/11/1948,2020-09-10_16h25.19.011,proactive3.1,2020.1.2,Win32,60,5f599a131af4471f3d752b7b,5f5a43eed39af50b42356f2c,3,,,,,,hanger,,,,,,,,,,,1,1,0,46,46,7,1,,,,,,,,,,,,,,,,,,,,,,,,,,,,,,,,,,,,,,,,,,,,,,,,,,,,,,,,,,,,,,,,,,,,,,,,,,,,,,,,,,,,,,,,,,,,,,,,,,,,,,,,
,,?,0.00178,0,,,,,,stimuli/images/PICTURE_380.png,CANDY,563f8474cbd4c6000fdc928b,09/11/1948,2020-09-10_16h25.19.011,proactive3.1,2020.1.2,Win32,60,5f599a131af4471f3d752b7b,5f5a43eed39af50b42356f2c,3,,,,,,gorilla,,,,,,,,,,,1,1,0,47,47,0,1,,,,,,,,,,,,,,,,,,,,,,,,,,,,,,,,,,,,,,,,,,,,,,,,,,,,,,,,,,,,,,,,,,,,,,,,,,,,,,,,,,,,,,,,,,,,,,,,,,,,,,,,
,,?,0.001685,0,,,,,,stimuli/images/PICTURE_491.png,GLASS,563f8474cbd4c6000fdc928b,09/11/1948,2020-09-10_16h25.19.011,proactive3.1,2020.1.2,Win32,60,5f599a131af4471f3d752b7b,5f5a43eed39af50b42356f2c,3,,,,,,rug,,,,,,,,,,,2,1,0,48,48,14,1,,,,,,,,,,,,,,,,,,,,,,,,,,,,,,,,,,,,,,,,,,,,,,,,,,,,,,,,,,,,,,,,,,,,,,,,,,,,,,,,,,,,,,,,,,,,,,,,,,,,,,,,
,,?,0.001805,0,,,,,,stimuli/images/PICTURE_108.png,FLIGHT,563f8474cbd4c6000fdc928b,09/11/1948,2020-09-10_16h25.19.011,proactive3.1,2020.1.2,Win32,60,5f599a131af4471f3d752b7b,5f5a43eed39af50b42356f2c,3,,,,,,calendar,,,,,,,,,,,6,1,0,49,49,59,1,,,,,,,,,,,,,,,,,,,,,,,,,,,,,,,,,,,,,,,,,,,,,,,,,,,,,,,,,,,,,,,,,,,,,,,,,,,,,,,,,,,,,,,,,,,,,,,,,,,,,,,,
,,?,0.003045,0,,,,,,stimuli/images/PICTURE_297.png,RIVER,563f8474cbd4c6000fdc928b,09/11/1948,2020-09-10_16h25.19.011,proactive3.1,2020.1.2,Win32,60,5f599a131af4471f3d752b7b,5f5a43eed39af50b42356f2c,3,,,,,,aeroplane,,,,,,,,,,,4,1,0,50,50,39,1,,,,,,,,,,,,,,,,,,,,,,,,,,,,,,,,,,,,,,,,,,,,,,,,,,,,,,,,,,,,,,,,,,,,,,,,,,,,,,,,,,,,,,,,,,,,,,,,,,,,,,,,
,,?,0.00175,0,,,,,,stimuli/images/PICTURE_383.png,SERIES,563f8474cbd4c6000fdc928b,09/11/1948,2020-09-10_16h25.19.011,proactive3.1,2020.1.2,Win32,60,5f599a131af4471f3d752b7b,5f5a43eed39af50b42356f2c,3,,,,,,coin,,,,,,,,,,,5,1,0,51,51,46,1,,,,,,,,,,,,,,,,,,,,,,,,,,,,,,,,,,,,,,,,,,,,,,,,,,,,,,,,,,,,,,,,,,,,,,,,,,,,,,,,,,,,,,,,,,,,,,,,,,,,,,,,
,,TOILET,15.00986,1,,,,,,stimuli/images/PICTURE_403.png,TOILET,563f8474cbd4c6000fdc928b,09/11/1948,2020-09-10_16h25.19.011,proactive3.1,2020.1.2,Win32,60,5f599a131af4471f3d752b7b,5f5a43eed39af50b42356f2c,3,,,,,,cathedral,,,,,,,,,,,3,1,0,52,52,25,1,,,,,,,,,,,,,,,,,,,,,,,,,,,,,,,,,,,,,,,,,,,,,,,,,,,,,,,,,,,,,,,,,,,,,,,,,,,,,,,,,,,,,,,,,,,,,,,,,,,,,,,,
,,?,0.00266,0,,,,,,stimuli/images/PICTURE_2.png,FLIGHT,563f8474cbd4c6000fdc928b,09/11/1948,2020-09-10_16h25.19.011,proactive3.1,2020.1.2,Win32,60,5f599a131af4471f3d752b7b,5f5a43eed39af50b42356f2c,3,,,,,,tyre,,,,,,,,,,,2,1,0,53,53,15,1,,,,,,,,,,,,,,,,,,,,,,,,,,,,,,,,,,,,,,,,,,,,,,,,,,,,,,,,,,,,,,,,,,,,,,,,,,,,,,,,,,,,,,,,,,,,,,,,,,,,,,,,
,,?,0.00269,0,,,,,,stimuli/images/PICTURE_203.png,GODS,563f8474cbd4c6000fdc928b,09/11/1948,2020-09-10_16h25.19.011,proactive3.1,2020.1.2,Win32,60,5f599a131af4471f3d752b7b,5f5a43eed39af50b42356f2c,3,,,,,,cap,,,,,,,,,,,4,1,0,54,54,30,1,,,,,,,,,,,,,,,,,,,,,,,,,,,,,,,,,,,,,,,,,,,,,,,,,,,,,,,,,,,,,,,,,,,,,,,,,,,,,,,,,,,,,,,,,,,,,,,,,,,,,,,,
,,?,0.00174,0,,,,,,stimuli/images/PICTURE_487.png,GIRL,563f8474cbd4c6000fdc928b,09/11/1948,2020-09-10_16h25.19.011,proactive3.1,2020.1.2,Win32,60,5f599a131af4471f3d752b7b,5f5a43eed39af50b42356f2c,3,,,,,,basket,,,,,,,,,,,5,1,0,55,55,45,1,,,,,,,,,,,,,,,,,,,,,,,,,,,,,,,,,,,,,,,,,,,,,,,,,,,,,,,,,,,,,,,,,,,,,,,,,,,,,,,,,,,,,,,,,,,,,,,,,,,,,,,,
,,?,0.0042,0,,,,,,stimuli/images/PICTURE_68.png,MILE,563f8474cbd4c6000fdc928b,09/11/1948,2020-09-10_16h25.19.011,proactive3.1,2020.1.2,Win32,60,5f599a131af4471f3d752b7b,5f5a43eed39af50b42356f2c,3,,,,,,candle,,,,,,,,,,,6,1,0,56,56,51,1,,,,,,,,,,,,,,,,,,,,,,,,,,,,,,,,,,,,,,,,,,,,,,,,,,,,,,,,,,,,,,,,,,,,,,,,,,,,,,,,,,,,,,,,,,,,,,,,,,,,,,,,
,,?,0.001765,0,,,,,,stimuli/images/PICTURE_32.png,KIND,563f8474cbd4c6000fdc928b,09/11/1948,2020-09-10_16h25.19.011,proactive3.1,2020.1.2,Win32,60,5f599a131af4471f3d752b7b,5f5a43eed39af50b42356f2c,3,,,,,,crown,,,,,,,,,,,4,1,0,57,57,35,1,,,,,,,,,,,,,,,,,,,,,,,,,,,,,,,,,,,,,,,,,,,,,,,,,,,,,,,,,,,,,,,,,,,,,,,,,,,,,,,,,,,,,,,,,,,,,,,,,,,,,,,,
,,?,0.00172,0,,,,,,stimuli/images/PICTURE_449.png,DUDE,563f8474cbd4c6000fdc928b,09/11/1948,2020-09-10_16h25.19.011,proactive3.1,2020.1.2,Win32,60,5f599a131af4471f3d752b7b,5f5a43eed39af50b42356f2c,3,,,,,,bench,,,,,,,,,,,2,1,0,58,58,17,1,,,,,,,,,,,,,,,,,,,,,,,,,,,,,,,,,,,,,,,,,,,,,,,,,,,,,,,,,,,,,,,,,,,,,,,,,,,,,,,,,,,,,,,,,,,,,,,,,,,,,,,,
,,BATH,15.00346,0,,,,,,stimuli/images/PICTURE_327.png,CASINO,563f8474cbd4c6000fdc928b,09/11/1948,2020-09-10_16h25.19.011,proactive3.1,2020.1.2,Win32,60,5f599a131af4471f3d752b7b,5f5a43eed39af50b42356f2c,3,,,,,,helmet,,,,,,,,,,,3,1,0,59,59,20,1,,,,,,,,,,,,,,,,,,,,,,,,,,,,,,,,,,,,,,,,,,,,,,,,,,,,,,,,,,,,,,,,,,,,,,,,,,,,,,,,,,,,,,,,,,,,,,,,,,,,,,,,
,,,,,,,,,,,,563f8474cbd4c6000fdc928b,09/11/1948,2020-09-10_16h25.19.011,proactive3.1,2020.1.2,Win32,60,5f599a131af4471f3d752b7b,5f5a43eed39af50b42356f2c,3,,,,,,,,,,,,,,,,,,,,,,,,0,0,0,1,1,stimuli/learn-block2.csv,,,,,,,,,,,,,,,,,,,,,,,,,,,,,,,,,,,,,,,,,,,,,,,,,,,,,,,,,,,,,,,,,,,,,,,,,,,,,,,,,,,,,,,,,,,,,,,,,,
,,,,,,,,,,stimuli/images/PICTURE_654.png,VALLEY,563f8474cbd4c6000fdc928b,09/11/1948,2020-09-10_16h25.19.011,proactive3.1,2020.1.2,Win32,60,5f599a131af4471f3d752b7b,5f5a43eed39af50b42356f2c,3,,,,,,pencil,,,,,,0,0,0,1,1,1,0,,,,,,,,,,,,,,,,,,,,,,,,,,,,,,,,,,,,,,,,,,,,,,,,,,,,,,,,,,,,,,,,,,,,,,,,,,,,,,,,,,,,,,,,,,,,,,,,,,,,,,,,,,,,,
,,,,,,,,,,stimuli/images/PICTURE_160.png,LEADER,563f8474cbd4c6000fdc928b,09/11/1948,2020-09-10_16h25.19.011,proactive3.1,2020.1.2,Win32,60,5f599a131af4471f3d752b7b,5f5a43eed39af50b42356f2c,3,,,,,,wheelbarrow,,,,,,0,1,1,3,1,1,0,,,,,,,,,,,,,,,,,,,,,,,,,,,,,,,,,,,,,,,,,,,,,,,,,,,,,,,,,,,,,,,,,,,,,,,,,,,,,,,,,,,,,,,,,,,,,,,,,,,,,,,,,,,,,
,,,,,,,,,,stimuli/images/PICTURE_688.png,WOMEN,563f8474cbd4c6000fdc928b,09/11/1948,2020-09-10_16h25.19.011,proactive3.1,2020.1.2,Win32,60,5f599a131af4471f3d752b7b,5f5a43eed39af50b42356f2c,3,,,,,,runner,,,,,,0,2,2,14,1,2,0,,,,,,,,,,,,,,,,,,,,,,,,,,,,,,,,,,,,,,,,,,,,,,,,,,,,,,,,,,,,,,,,,,,,,,,,,,,,,,,,,,,,,,,,,,,,,,,,,,,,,,,,,,,,,
,,,,,,,,,,stimuli/images/PICTURE_708.png,YARD,563f8474cbd4c6000fdc928b,09/11/1948,2020-09-10_16h25.19.011,proactive3.1,2020.1.2,Win32,60,5f599a131af4471f3d752b7b,5f5a43eed39af50b42356f2c,3,,,,,,monkey,,,,,,0,3,3,29,1,3,0,,,,,,,,,,,,,,,,,,,,,,,,,,,,,,,,,,,,,,,,,,,,,,,,,,,,,,,,,,,,,,,,,,,,,,,,,,,,,,,,,,,,,,,,,,,,,,,,,,,,,,,,,,,,,
,,,,,,,,,,stimuli/images/PICTURE_688.png,CASINO,563f8474cbd4c6000fdc928b,09/11/1948,2020-09-10_16h25.19.011,proactive3.1,2020.1.2,Win32,60,5f599a131af4471f3d752b7b,5f5a43eed39af50b42356f2c,3,,,,,,runner,,,,,,0,4,4,2,1,1,0,,,,,,,,,,,,,,,,,,,,,,,,,,,,,,,,,,,,,,,,,,,,,,,,,,,,,,,,,,,,,,,,,,,,,,,,,,,,,,,,,,,,,,,,,,,,,,,,,,,,,,,,,,,,,
,,,,,,,,,,stimuli/images/PICTURE_308.png,ESTATE,563f8474cbd4c6000fdc928b,09/11/1948,2020-09-10_16h25.19.011,proactive3.1,2020.1.2,Win32,60,5f599a131af4471f3d752b7b,5f5a43eed39af50b42356f2c,3,,,,,,dice,,,,,,0,5,5,46,1,5,0,,,,,,,,,,,,,,,,,,,,,,,,,,,,,,,,,,,,,,,,,,,,,,,,,,,,,,,,,,,,,,,,,,,,,,,,,,,,,,,,,,,,,,,,,,,,,,,,,,,,,,,,,,,,,
,,,,,,,,,,stimuli/images/PICTURE_744.png,SYSTEM,563f8474cbd4c6000fdc928b,09/11/1948,2020-09-10_16h25.19.011,proactive3.1,2020.1.2,Win32,60,5f599a131af4471f3d752b7b,5f5a43eed39af50b42356f2c,3,,,,,,ring,,,,,,0,6,6,43,1,5,0,,,,,,,,,,,,,,,,,,,,,,,,,,,,,,,,,,,,,,,,,,,,,,,,,,,,,,,,,,,,,,,,,,,,,,,,,,,,,,,,,,,,,,,,,,,,,,,,,,,,,,,,,,,,,
,,,,,,,,,,stimuli/images/PICTURE_248.png,DOZEN,563f8474cbd4c6000fdc928b,09/11/1948,2020-09-10_16h25.19.011,proactive3.1,2020.1.2,Win32,60,5f599a131af4471f3d752b7b,5f5a43eed39af50b42356f2c,3,,,,,,cart,,,,,,0,7,7,39,1,4,0,,,,,,,,,,,,,,,,,,,,,,,,,,,,,,,,,,,,,,,,,,,,,,,,,,,,,,,,,,,,,,,,,,,,,,,,,,,,,,,,,,,,,,,,,,,,,,,,,,,,,,,,,,,,,
,,,,,,,,,,stimuli/images/PICTURE_380.png,PHOTO,563f8474cbd4c6000fdc928b,09/11/1948,2020-09-10_16h25.19.011,proactive3.1,2020.1.2,Win32,60,5f599a131af4471f3d752b7b,5f5a43eed39af50b42356f2c,3,,,,,,gorilla,,,,,,0,8,8,52,1,6,0,,,,,,,,,,,,,,,,,,,,,,,,,,,,,,,,,,,,,,,,,,,,,,,,,,,,,,,,,,,,,,,,,,,,,,,,,,,,,,,,,,,,,,,,,,,,,,,,,,,,,,,,,,,,,
,,,,,,,,,,stimuli/images/PICTURE_311.png,FRIEND,563f8474cbd4c6000fdc928b,09/11/1948,2020-09-10_16h25.19.011,proactive3.1,2020.1.2,Win32,60,5f599a131af4471f3d752b7b,5f5a43eed39af50b42356f2c,3,,,,,,razor,,,,,,0,9,9,34,1,4,0,,,,,,,,,,,,,,,,,,,,,,,,,,,,,,,,,,,,,,,,,,,,,,,,,,,,,,,,,,,,,,,,,,,,,,,,,,,,,,,,,,,,,,,,,,,,,,,,,,,,,,,,,,,,,
,,,,,,,,,,stimuli/images/PICTURE_708.png,PENNY,563f8474cbd4c6000fdc928b,09/11/1948,2020-09-10_16h25.19.011,proactive3.1,2020.1.2,Win32,60,5f599a131af4471f3d752b7b,5f5a43eed39af50b42356f2c,3,,,,,,monkey,,,,,,0,10,10,31,1,4,0,,,,,,,,,,,,,,,,,,,,,,,,,,,,,,,,,,,,,,,,,,,,,,,,,,,,,,,,,,,,,,,,,,,,,,,,,,,,,,,,,,,,,,,,,,,,,,,,,,,,,,,,,,,,,
,,,,,,,,,,stimuli/images/PICTURE_177.png,CARS,563f8474cbd4c6000fdc928b,09/11/1948,2020-09-10_16h25.19.011,proactive3.1,2020.1.2,Win32,60,5f599a131af4471f3d752b7b,5f5a43eed39af50b42356f2c,3,,,,,,mushroom,,,,,,0,11,11,35,1,4,0,,,,,,,,,,,,,,,,,,,,,,,,,,,,,,,,,,,,,,,,,,,,,,,,,,,,,,,,,,,,,,,,,,,,,,,,,,,,,,,,,,,,,,,,,,,,,,,,,,,,,,,,,,,,,
,,,,,,,,,,stimuli/images/PICTURE_308.png,KIND,563f8474cbd4c6000fdc928b,09/11/1948,2020-09-10_16h25.19.011,proactive3.1,2020.1.2,Win32,60,5f599a131af4471f3d752b7b,5f5a43eed39af50b42356f2c,3,,,,,,dice,,,,,,0,12,12,54,1,6,0,,,,,,,,,,,,,,,,,,,,,,,,,,,,,,,,,,,,,,,,,,,,,,,,,,,,,,,,,,,,,,,,,,,,,,,,,,,,,,,,,,,,,,,,,,,,,,,,,,,,,,,,,,,,,
,,,,,,,,,,stimuli/images/PICTURE_302.png,FAMILY,563f8474cbd4c6000fdc928b,09/11/1948,2020-09-10_16h25.19.011,proactive3.1,2020.1.2,Win32,60,5f599a131af4471f3d752b7b,5f5a43eed39af50b42356f2c,3,,,,,,taxi,,,,,,0,13,13,18,1,2,0,,,,,,,,,,,,,,,,,,,,,,,,,,,,,,,,,,,,,,,,,,,,,,,,,,,,,,,,,,,,,,,,,,,,,,,,,,,,,,,,,,,,,,,,,,,,,,,,,,,,,,,,,,,,,
,,,,,,,,,,stimuli/images/PICTURE_208.png,LOTS,563f8474cbd4c6000fdc928b,09/11/1948,2020-09-10_16h25.19.011,proactive3.1,2020.1.2,Win32,60,5f599a131af4471f3d752b7b,5f5a43eed39af50b42356f2c,3,,,,,,microphone,,,,,,0,14,14,10,1,2,0,,,,,,,,,,,,,,,,,,,,,,,,,,,,,,,,,,,,,,,,,,,,,,,,,,,,,,,,,,,,,,,,,,,,,,,,,,,,,,,,,,,,,,,,,,,,,,,,,,,,,,,,,,,,,
,,,,,,,,,,stimuli/images/PICTURE_348.png,SPEECH,563f8474cbd4c6000fdc928b,09/11/1948,2020-09-10_16h25.19.011,proactive3.1,2020.1.2,Win32,60,5f599a131af4471f3d752b7b,5f5a43eed39af50b42356f2c,3,,,,,,pepper,,,,,,0,15,15,20,1,3,0,,,,,,,,,,,,,,,,,,,,,,,,,,,,,,,,,,,,,,,,,,,,,,,,,,,,,,,,,,,,,,,,,,,,,,,,,,,,,,,,,,,,,,,,,,,,,,,,,,,,,,,,,,,,,
,,,,,,,,,,stimuli/images/PICTURE_339.png,PLENTY,563f8474cbd4c6000fdc928b,09/11/1948,2020-09-10_16h25.19.011,proactive3.1,2020.1.2,Win32,60,5f599a131af4471f3d752b7b,5f5a43eed39af50b42356f2c,3,,,,,,backpack,,,,,,0,16,16,0,1,1,0,,,,,,,,,,,,,,,,,,,,,,,,,,,,,,,,,,,,,,,,,,,,,,,,,,,,,,,,,,,,,,,,,,,,,,,,,,,,,,,,,,,,,,,,,,,,,,,,,,,,,,,,,,,,,
,,,,,,,,,,stimuli/images/PICTURE_356.png,DANGER,563f8474cbd4c6000fdc928b,09/11/1948,2020-09-10_16h25.19.011,proactive3.1,2020.1.2,Win32,60,5f599a131af4471f3d752b7b,5f5a43eed39af50b42356f2c,3,,,,,,pawn,,,,,,0,17,17,55,1,6,0,,,,,,,,,,,,,,,,,,,,,,,,,,,,,,,,,,,,,,,,,,,,,,,,,,,,,,,,,,,,,,,,,,,,,,,,,,,,,,,,,,,,,,,,,,,,,,,,,,,,,,,,,,,,,
,,,,,,,,,,stimuli/images/PICTURE_311.png,BEAUTY,563f8474cbd4c6000fdc928b,09/11/1948,2020-09-10_16h25.19.011,proactive3.1,2020.1.2,Win32,60,5f599a131af4471f3d752b7b,5f5a43eed39af50b42356f2c,3,,,,,,razor,,,,,,0,18,18,13,1,2,0,,,,,,,,,,,,,,,,,,,,,,,,,,,,,,,,,,,,,,,,,,,,,,,,,,,,,,,,,,,,,,,,,,,,,,,,,,,,,,,,,,,,,,,,,,,,,,,,,,,,,,,,,,,,,
,,,,,,,,,,stimuli/images/PICTURE_469.png,LETTER,563f8474cbd4c6000fdc928b,09/11/1948,2020-09-10_16h25.19.011,proactive3.1,2020.1.2,Win32,60,5f599a131af4471f3d752b7b,5f5a43eed39af50b42356f2c,3,,,,,,stool,,,,,,0,19,19,42,1,5,0,,,,,,,,,,,,,,,,,,,,,,,,,,,,,,,,,,,,,,,,,,,,,,,,,,,,,,,,,,,,,,,,,,,,,,,,,,,,,,,,,,,,,,,,,,,,,,,,,,,,,,,,,,,,,
,,,,,,,,,,stimuli/images/PICTURE_677.png,MILE,563f8474cbd4c6000fdc928b,09/11/1948,2020-09-10_16h25.19.011,proactive3.1,2020.1.2,Win32,60,5f599a131af4471f3d752b7b,5f5a43eed39af50b42356f2c,3,,,,,,map,,,,,,0,20,20,30,1,4,0,,,,,,,,,,,,,,,,,,,,,,,,,,,,,,,,,,,,,,,,,,,,,,,,,,,,,,,,,,,,,,,,,,,,,,,,,,,,,,,,,,,,,,,,,,,,,,,,,,,,,,,,,,,,,
,,,,,,,,,,stimuli/images/PICTURE_708.png,CLIENT,563f8474cbd4c6000fdc928b,09/11/1948,2020-09-10_16h25.19.011,proactive3.1,2020.1.2,Win32,60,5f599a131af4471f3d752b7b,5f5a43eed39af50b42356f2c,3,,,,,,monkey,,,,,,0,21,21,5,1,1,0,,,,,,,,,,,,,,,,,,,,,,,,,,,,,,,,,,,,,,,,,,,,,,,,,,,,,,,,,,,,,,,,,,,,,,,,,,,,,,,,,,,,,,,,,,,,,,,,,,,,,,,,,,,,,
,,,,,,,,,,stimuli/images/PICTURE_123.png,ADVICE,563f8474cbd4c6000fdc928b,09/11/1948,2020-09-10_16h25.19.011,proactive3.1,2020.1.2,Win32,60,5f599a131af4471f3d752b7b,5f5a43eed39af50b42356f2c,3,,,,,,dart,,,,,,0,22,22,40,1,5,0,,,,,,,,,,,,,,,,,,,,,,,,,,,,,,,,,,,,,,,,,,,,,,,,,,,,,,,,,,,,,,,,,,,,,,,,,,,,,,,,,,,,,,,,,,,,,,,,,,,,,,,,,,,,,
,,,,,,,,,,stimuli/images/PICTURE_233.png,IDEAS,563f8474cbd4c6000fdc928b,09/11/1948,2020-09-10_16h25.19.011,proactive3.1,2020.1.2,Win32,60,5f599a131af4471f3d752b7b,5f5a43eed39af50b42356f2c,3,,,,,,salt,,,,,,0,23,23,28,1,3,0,,,,,,,,,,,,,,,,,,,,,,,,,,,,,,,,,,,,,,,,,,,,,,,,,,,,,,,,,,,,,,,,,,,,,,,,,,,,,,,,,,,,,,,,,,,,,,,,,,,,,,,,,,,,,
,,,,,,,,,,stimuli/images/PICTURE_68.png,MILE,563f8474cbd4c6000fdc928b,09/11/1948,2020-09-10_16h25.19.011,proactive3.1,2020.1.2,Win32,60,5f599a131af4471f3d752b7b,5f5a43eed39af50b42356f2c,3,,,,,,candle,,,,,,0,24,24,44,1,5,0,,,,,,,,,,,,,,,,,,,,,,,,,,,,,,,,,,,,,,,,,,,,,,,,,,,,,,,,,,,,,,,,,,,,,,,,,,,,,,,,,,,,,,,,,,,,,,,,,,,,,,,,,,,,,
,,,,,,,,,,stimuli/images/PICTURE_504.png,BODY,563f8474cbd4c6000fdc928b,09/11/1948,2020-09-10_16h25.19.011,proactive3.1,2020.1.2,Win32,60,5f599a131af4471f3d752b7b,5f5a43eed39af50b42356f2c,3,,,,,,wheel,,,,,,0,25,25,8,1,1,0,,,,,,,,,,,,,,,,,,,,,,,,,,,,,,,,,,,,,,,,,,,,,,,,,,,,,,,,,,,,,,,,,,,,,,,,,,,,,,,,,,,,,,,,,,,,,,,,,,,,,,,,,,,,,
,,,,,,,,,,stimuli/images/PICTURE_491.png,WRITER,563f8474cbd4c6000fdc928b,09/11/1948,2020-09-10_16h25.19.011,proactive3.1,2020.1.2,Win32,60,5f599a131af4471f3d752b7b,5f5a43eed39af50b42356f2c,3,,,,,,rug,,,,,,0,26,26,57,1,6,0,,,,,,,,,,,,,,,,,,,,,,,,,,,,,,,,,,,,,,,,,,,,,,,,,,,,,,,,,,,,,,,,,,,,,,,,,,,,,,,,,,,,,,,,,,,,,,,,,,,,,,,,,,,,,
,,,,,,,,,,stimuli/images/PICTURE_491.png,ROOF,563f8474cbd4c6000fdc928b,09/11/1948,2020-09-10_16h25.19.011,proactive3.1,2020.1.2,Win32,60,5f599a131af4471f3d752b7b,5f5a43eed39af50b42356f2c,3,,,,,,rug,,,,,,0,27,27,24,1,3,0,,,,,,,,,,,,,,,,,,,,,,,,,,,,,,,,,,,,,,,,,,,,,,,,,,,,,,,,,,,,,,,,,,,,,,,,,,,,,,,,,,,,,,,,,,,,,,,,,,,,,,,,,,,,,
,,,,,,,,,,stimuli/images/PICTURE_469.png,ARTIST,563f8474cbd4c6000fdc928b,09/11/1948,2020-09-10_16h25.19.011,proactive3.1,2020.1.2,Win32,60,5f599a131af4471f3d752b7b,5f5a43eed39af50b42356f2c,3,,,,,,stool,,,,,,0,28,28,6,1,1,0,,,,,,,,,,,,,,,,,,,,,,,,,,,,,,,,,,,,,,,,,,,,,,,,,,,,,,,,,,,,,,,,,,,,,,,,,,,,,,,,,,,,,,,,,,,,,,,,,,,,,,,,,,,,,
,,,,,,,,,,stimuli/images/PICTURE_203.png,ARTIST,563f8474cbd4c6000fdc928b,09/11/1948,2020-09-10_16h25.19.011,proactive3.1,2020.1.2,Win32,60,5f599a131af4471f3d752b7b,5f5a43eed39af50b42356f2c,3,,,,,,cap,,,,,,0,29,29,26,1,3,0,,,,,,,,,,,,,,,,,,,,,,,,,,,,,,,,,,,,,,,,,,,,,,,,,,,,,,,,,,,,,,,,,,,,,,,,,,,,,,,,,,,,,,,,,,,,,,,,,,,,,,,,,,,,,
,,,,,,,,,,stimuli/images/PICTURE_487.png,FLIGHT,563f8474cbd4c6000fdc928b,09/11/1948,2020-09-10_16h25.19.011,proactive3.1,2020.1.2,Win32,60,5f599a131af4471f3d752b7b,5f5a43eed39af50b42356f2c,3,,,,,,basket,,,,,,0,30,30,9,1,1,0,,,,,,,,,,,,,,,,,,,,,,,,,,,,,,,,,,,,,,,,,,,,,,,,,,,,,,,,,,,,,,,,,,,,,,,,,,,,,,,,,,,,,,,,,,,,,,,,,,,,,,,,,,,,,
,,,,,,,,,,stimuli/images/PICTURE_380.png,DEATH,563f8474cbd4c6000fdc928b,09/11/1948,2020-09-10_16h25.19.011,proactive3.1,2020.1.2,Win32,60,5f599a131af4471f3d752b7b,5f5a43eed39af50b42356f2c,3,,,,,,gorilla,,,,,,0,31,31,49,1,5,0,,,,,,,,,,,,,,,,,,,,,,,,,,,,,,,,,,,,,,,,,,,,,,,,,,,,,,,,,,,,,,,,,,,,,,,,,,,,,,,,,,,,,,,,,,,,,,,,,,,,,,,,,,,,,
,,,,,,,,,,stimuli/images/PICTURE_509.png,PHOTO,563f8474cbd4c6000fdc928b,09/11/1948,2020-09-10_16h25.19.011,proactive3.1,2020.1.2,Win32,60,5f599a131af4471f3d752b7b,5f5a43eed39af50b42356f2c,3,,,,,,telephone,,,,,,0,32,32,21,1,3,0,,,,,,,,,,,,,,,,,,,,,,,,,,,,,,,,,,,,,,,,,,,,,,,,,,,,,,,,,,,,,,,,,,,,,,,,,,,,,,,,,,,,,,,,,,,,,,,,,,,,,,,,,,,,,
,,,,,,,,,,stimuli/images/PICTURE_32.png,JUNGLE,563f8474cbd4c6000fdc928b,09/11/1948,2020-09-10_16h25.19.011,proactive3.1,2020.1.2,Win32,60,5f599a131af4471f3d752b7b,5f5a43eed39af50b42356f2c,3,,,,,,crown,,,,,,0,33,33,45,1,5,0,,,,,,,,,,,,,,,,,,,,,,,,,,,,,,,,,,,,,,,,,,,,,,,,,,,,,,,,,,,,,,,,,,,,,,,,,,,,,,,,,,,,,,,,,,,,,,,,,,,,,,,,,,,,,
,,,,,,,,,,stimuli/images/PICTURE_314.png,SAKE,563f8474cbd4c6000fdc928b,09/11/1948,2020-09-10_16h25.19.011,proactive3.1,2020.1.2,Win32,60,5f599a131af4471f3d752b7b,5f5a43eed39af50b42356f2c,3,,,,,,perfume,,,,,,0,34,34,7,1,1,0,,,,,,,,,,,,,,,,,,,,,,,,,,,,,,,,,,,,,,,,,,,,,,,,,,,,,,,,,,,,,,,,,,,,,,,,,,,,,,,,,,,,,,,,,,,,,,,,,,,,,,,,,,,,,
,,,,,,,,,,stimuli/images/PICTURE_449.png,THING,563f8474cbd4c6000fdc928b,09/11/1948,2020-09-10_16h25.19.011,proactive3.1,2020.1.2,Win32,60,5f599a131af4471f3d752b7b,5f5a43eed39af50b42356f2c,3,,,,,,bench,,,,,,0,35,35,59,1,6,0,,,,,,,,,,,,,,,,,,,,,,,,,,,,,,,,,,,,,,,,,,,,,,,,,,,,,,,,,,,,,,,,,,,,,,,,,,,,,,,,,,,,,,,,,,,,,,,,,,,,,,,,,,,,,
,,,,,,,,,,stimuli/images/PICTURE_95.png,STYLE,563f8474cbd4c6000fdc928b,09/11/1948,2020-09-10_16h25.19.011,proactive3.1,2020.1.2,Win32,60,5f599a131af4471f3d752b7b,5f5a43eed39af50b42356f2c,3,,,,,,suitcase,,,,,,0,36,36,25,1,3,0,,,,,,,,,,,,,,,,,,,,,,,,,,,,,,,,,,,,,,,,,,,,,,,,,,,,,,,,,,,,,,,,,,,,,,,,,,,,,,,,,,,,,,,,,,,,,,,,,,,,,,,,,,,,,
,,,,,,,,,,stimuli/images/PICTURE_233.png,WOMEN,563f8474cbd4c6000fdc928b,09/11/1948,2020-09-10_16h25.19.011,proactive3.1,2020.1.2,Win32,60,5f599a131af4471f3d752b7b,5f5a43eed39af50b42356f2c,3,,,,,,salt,,,,,,0,37,37,38,1,4,0,,,,,,,,,,,,,,,,,,,,,,,,,,,,,,,,,,,,,,,,,,,,,,,,,,,,,,,,,,,,,,,,,,,,,,,,,,,,,,,,,,,,,,,,,,,,,,,,,,,,,,,,,,,,,
,,,,,,,,,,stimuli/images/PICTURE_744.png,SAKE,563f8474cbd4c6000fdc928b,09/11/1948,2020-09-10_16h25.19.011,proactive3.1,2020.1.2,Win32,60,5f599a131af4471f3d752b7b,5f5a43eed39af50b42356f2c,3,,,,,,ring,,,,,,0,38,38,17,1,2,0,,,,,,,,,,,,,,,,,,,,,,,,,,,,,,,,,,,,,,,,,,,,,,,,,,,,,,,,,,,,,,,,,,,,,,,,,,,,,,,,,,,,,,,,,,,,,,,,,,,,,,,,,,,,,
,,,,,,,,,,stimuli/images/PICTURE_467.png,DEMON,563f8474cbd4c6000fdc928b,09/11/1948,2020-09-10_16h25.19.011,proactive3.1,2020.1.2,Win32,60,5f599a131af4471f3d752b7b,5f5a43eed39af50b42356f2c,3,,,,,,peg,,,,,,0,39,39,23,1,3,0,,,,,,,,,,,,,,,,,,,,,,,,,,,,,,,,,,,,,,,,,,,,,,,,,,,,,,,,,,,,,,,,,,,,,,,,,,,,,,,,,,,,,,,,,,,,,,,,,,,,,,,,,,,,,
,,,,,,,,,,stimuli/images/PICTURE_85.png,THING,563f8474cbd4c6000fdc928b,09/11/1948,2020-09-10_16h25.19.011,proactive3.1,2020.1.2,Win32,60,5f599a131af4471f3d752b7b,5f5a43eed39af50b42356f2c,3,,,,,,diamond,,,,,,0,40,40,15,1,2,0,,,,,,,,,,,,,,,,,,,,,,,,,,,,,,,,,,,,,,,,,,,,,,,,,,,,,,,,,,,,,,,,,,,,,,,,,,,,,,,,,,,,,,,,,,,,,,,,,,,,,,,,,,,,,
,,,,,,,,,,stimuli/images/PICTURE_208.png,MONTH,563f8474cbd4c6000fdc928b,09/11/1948,2020-09-10_16h25.19.011,proactive3.1,2020.1.2,Win32,60,5f599a131af4471f3d752b7b,5f5a43eed39af50b42356f2c,3,,,,,,microphone,,,,,,0,41,41,53,1,6,0,,,,,,,,,,,,,,,,,,,,,,,,,,,,,,,,,,,,,,,,,,,,,,,,,,,,,,,,,,,,,,,,,,,,,,,,,,,,,,,,,,,,,,,,,,,,,,,,,,,,,,,,,,,,,
,,,,,,,,,,stimuli/images/PICTURE_453.png,PLENTY,563f8474cbd4c6000fdc928b,09/11/1948,2020-09-10_16h25.19.011,proactive3.1,2020.1.2,Win32,60,5f599a131af4471f3d752b7b,5f5a43eed39af50b42356f2c,3,,,,,,scissors,,,,,,0,42,42,56,1,6,0,,,,,,,,,,,,,,,,,,,,,,,,,,,,,,,,,,,,,,,,,,,,,,,,,,,,,,,,,,,,,,,,,,,,,,,,,,,,,,,,,,,,,,,,,,,,,,,,,,,,,,,,,,,,,
,,,,,,,,,,stimuli/images/PICTURE_160.png,FEET,563f8474cbd4c6000fdc928b,09/11/1948,2020-09-10_16h25.19.011,proactive3.1,2020.1.2,Win32,60,5f599a131af4471f3d752b7b,5f5a43eed39af50b42356f2c,3,,,,,,wheelbarrow,,,,,,0,43,43,58,1,6,0,,,,,,,,,,,,,,,,,,,,,,,,,,,,,,,,,,,,,,,,,,,,,,,,,,,,,,,,,,,,,,,,,,,,,,,,,,,,,,,,,,,,,,,,,,,,,,,,,,,,,,,,,,,,,
,,,,,,,,,,stimuli/images/PICTURE_147.png,MOMENT,563f8474cbd4c6000fdc928b,09/11/1948,2020-09-10_16h25.19.011,proactive3.1,2020.1.2,Win32,60,5f599a131af4471f3d752b7b,5f5a43eed39af50b42356f2c,3,,,,,,hanger,,,,,,0,44,44,51,1,6,0,,,,,,,,,,,,,,,,,,,,,,,,,,,,,,,,,,,,,,,,,,,,,,,,,,,,,,,,,,,,,,,,,,,,,,,,,,,,,,,,,,,,,,,,,,,,,,,,,,,,,,,,,,,,,
,,,,,,,,,,stimuli/images/PICTURE_675.png,WEAPON,563f8474cbd4c6000fdc928b,09/11/1948,2020-09-10_16h25.19.011,proactive3.1,2020.1.2,Win32,60,5f599a131af4471f3d752b7b,5f5a43eed39af50b42356f2c,3,,,,,,windmill,,,,,,0,45,45,32,1,4,0,,,,,,,,,,,,,,,,,,,,,,,,,,,,,,,,,,,,,,,,,,,,,,,,,,,,,,,,,,,,,,,,,,,,,,,,,,,,,,,,,,,,,,,,,,,,,,,,,,,,,,,,,,,,,
,,,,,,,,,,stimuli/images/PICTURE_208.png,THING,563f8474cbd4c6000fdc928b,09/11/1948,2020-09-10_16h25.19.011,proactive3.1,2020.1.2,Win32,60,5f599a131af4471f3d752b7b,5f5a43eed39af50b42356f2c,3,,,,,,microphone,,,,,,0,46,46,47,1,5,0,,,,,,,,,,,,,,,,,,,,,,,,,,,,,,,,,,,,,,,,,,,,,,,,,,,,,,,,,,,,,,,,,,,,,,,,,,,,,,,,,,,,,,,,,,,,,,,,,,,,,,,,,,,,,
,,,,,,,,,,stimuli/images/PICTURE_488.png,STYLE,563f8474cbd4c6000fdc928b,09/11/1948,2020-09-10_16h25.19.011,proactive3.1,2020.1.2,Win32,60,5f599a131af4471f3d752b7b,5f5a43eed39af50b42356f2c,3,,,,,,sun,,,,,,0,47,47,33,1,4,0,,,,,,,,,,,,,,,,,,,,,,,,,,,,,,,,,,,,,,,,,,,,,,,,,,,,,,,,,,,,,,,,,,,,,,,,,,,,,,,,,,,,,,,,,,,,,,,,,,,,,,,,,,,,,
,,,,,,,,,,stimuli/images/PICTURE_453.png,DUDE,563f8474cbd4c6000fdc928b,09/11/1948,2020-09-10_16h25.19.011,proactive3.1,2020.1.2,Win32,60,5f599a131af4471f3d752b7b,5f5a43eed39af50b42356f2c,3,,,,,,scissors,,,,,,0,48,48,27,1,3,0,,,,,,,,,,,,,,,,,,,,,,,,,,,,,,,,,,,,,,,,,,,,,,,,,,,,,,,,,,,,,,,,,,,,,,,,,,,,,,,,,,,,,,,,,,,,,,,,,,,,,,,,,,,,,
,,,,,,,,,,stimuli/images/PICTURE_255.png,AREA,563f8474cbd4c6000fdc928b,09/11/1948,2020-09-10_16h25.19.011,proactive3.1,2020.1.2,Win32,60,5f599a131af4471f3d752b7b,5f5a43eed39af50b42356f2c,3,,,,,,shovel,,,,,,0,49,49,22,1,3,0,,,,,,,,,,,,,,,,,,,,,,,,,,,,,,,,,,,,,,,,,,,,,,,,,,,,,,,,,,,,,,,,,,,,,,,,,,,,,,,,,,,,,,,,,,,,,,,,,,,,,,,,,,,,,
,,,,,,,,,,stimuli/images/PICTURE_314.png,GODS,563f8474cbd4c6000fdc928b,09/11/1948,2020-09-10_16h25.19.011,proactive3.1,2020.1.2,Win32,60,5f599a131af4471f3d752b7b,5f5a43eed39af50b42356f2c,3,,,,,,perfume,,,,,,0,50,50,11,1,2,0,,,,,,,,,,,,,,,,,,,,,,,,,,,,,,,,,,,,,,,,,,,,,,,,,,,,,,,,,,,,,,,,,,,,,,,,,,,,,,,,,,,,,,,,,,,,,,,,,,,,,,,,,,,,,
,,,,,,,,,,stimuli/images/PICTURE_215.png,PLENTY,563f8474cbd4c6000fdc928b,09/11/1948,2020-09-10_16h25.19.011,proactive3.1,2020.1.2,Win32,60,5f599a131af4471f3d752b7b,5f5a43eed39af50b42356f2c,3,,,,,,boot,,,,,,0,51,51,37,1,4,0,,,,,,,,,,,,,,,,,,,,,,,,,,,,,,,,,,,,,,,,,,,,,,,,,,,,,,,,,,,,,,,,,,,,,,,,,,,,,,,,,,,,,,,,,,,,,,,,,,,,,,,,,,,,,
,,,,,,,,,,stimuli/images/PICTURE_327.png,BEAUTY,563f8474cbd4c6000fdc928b,09/11/1948,2020-09-10_16h25.19.011,proactive3.1,2020.1.2,Win32,60,5f599a131af4471f3d752b7b,5f5a43eed39af50b42356f2c,3,,,,,,helmet,,,,,,0,52,52,48,1,5,0,,,,,,,,,,,,,,,,,,,,,,,,,,,,,,,,,,,,,,,,,,,,,,,,,,,,,,,,,,,,,,,,,,,,,,,,,,,,,,,,,,,,,,,,,,,,,,,,,,,,,,,,,,,,,
,,,,,,,,,,stimuli/images/PICTURE_470.png,CASINO,563f8474cbd4c6000fdc928b,09/11/1948,2020-09-10_16h25.19.011,proactive3.1,2020.1.2,Win32,60,5f599a131af4471f3d752b7b,5f5a43eed39af50b42356f2c,3,,,,,,motorbike,,,,,,0,53,53,36,1,4,0,,,,,,,,,,,,,,,,,,,,,,,,,,,,,,,,,,,,,,,,,,,,,,,,,,,,,,,,,,,,,,,,,,,,,,,,,,,,,,,,,,,,,,,,,,,,,,,,,,,,,,,,,,,,,
,,,,,,,,,,stimuli/images/PICTURE_667.png,BATH,563f8474cbd4c6000fdc928b,09/11/1948,2020-09-10_16h25.19.011,proactive3.1,2020.1.2,Win32,60,5f599a131af4471f3d752b7b,5f5a43eed39af50b42356f2c,3,,,,,,daisy,,,,,,0,54,54,4,1,1,0,,,,,,,,,,,,,,,,,,,,,,,,,,,,,,,,,,,,,,,,,,,,,,,,,,,,,,,,,,,,,,,,,,,,,,,,,,,,,,,,,,,,,,,,,,,,,,,,,,,,,,,,,,,,,
,,,,,,,,,,stimuli/images/PICTURE_285.png,ADVICE,563f8474cbd4c6000fdc928b,09/11/1948,2020-09-10_16h25.19.011,proactive3.1,2020.1.2,Win32,60,5f599a131af4471f3d752b7b,5f5a43eed39af50b42356f2c,3,,,,,,carrot,,,,,,0,55,55,12,1,2,0,,,,,,,,,,,,,,,,,,,,,,,,,,,,,,,,,,,,,,,,,,,,,,,,,,,,,,,,,,,,,,,,,,,,,,,,,,,,,,,,,,,,,,,,,,,,,,,,,,,,,,,,,,,,,
,,,,,,,,,,stimuli/images/PICTURE_151.png,GIRL,563f8474cbd4c6000fdc928b,09/11/1948,2020-09-10_16h25.19.011,proactive3.1,2020.1.2,Win32,60,5f599a131af4471f3d752b7b,5f5a43eed39af50b42356f2c,3,,,,,,tray,,,,,,0,56,56,19,1,2,0,,,,,,,,,,,,,,,,,,,,,,,,,,,,,,,,,,,,,,,,,,,,,,,,,,,,,,,,,,,,,,,,,,,,,,,,,,,,,,,,,,,,,,,,,,,,,,,,,,,,,,,,,,,,,
,,,,,,,,,,stimuli/images/PICTURE_692.png,MONTH,563f8474cbd4c6000fdc928b,09/11/1948,2020-09-10_16h25.19.011,proactive3.1,2020.1.2,Win32,60,5f599a131af4471f3d752b7b,5f5a43eed39af50b42356f2c,3,,,,,,cherry,,,,,,0,57,57,16,1,2,0,,,,,,,,,,,,,,,,,,,,,,,,,,,,,,,,,,,,,,,,,,,,,,,,,,,,,,,,,,,,,,,,,,,,,,,,,,,,,,,,,,,,,,,,,,,,,,,,,,,,,,,,,,,,,
,,,,,,,,,,stimuli/images/PICTURE_123.png,ADVICE,563f8474cbd4c6000fdc928b,09/11/1948,2020-09-10_16h25.19.011,proactive3.1,2020.1.2,Win32,60,5f599a131af4471f3d752b7b,5f5a43eed39af50b42356f2c,3,,,,,,dart,,,,,,0,58,58,50,1,6,0,,,,,,,,,,,,,,,,,,,,,,,,,,,,,,,,,,,,,,,,,,,,,,,,,,,,,,,,,,,,,,,,,,,,,,,,,,,,,,,,,,,,,,,,,,,,,,,,,,,,,,,,,,,,,
,,?,0.00223,0,,,,,,stimuli/images/PICTURE_504.png,BODY,563f8474cbd4c6000fdc928b,09/11/1948,2020-09-10_16h25.19.011,proactive3.1,2020.1.2,Win32,60,5f599a131af4471f3d752b7b,5f5a43eed39af50b42356f2c,3,,,,,,wheel,,,,,,,,,,,1,0,0,0,0,8,1,,,,,,,,,,,,,,,,,,,,,,,,,,,,,,,,,,,,,,,,,,,,,,,,,,,,,,,,,,,,,,,,,,,,,,,,,,,,,,,,,,,,,,,,,,,,,,,,,,,,,,,,
,,?,0.0027,0,,,,,,stimuli/images/PICTURE_488.png,STYLE,563f8474cbd4c6000fdc928b,09/11/1948,2020-09-10_16h25.19.011,proactive3.1,2020.1.2,Win32,60,5f599a131af4471f3d752b7b,5f5a43eed39af50b42356f2c,3,,,,,,sun,,,,,,,,,,,4,0,0,1,1,33,1,,,,,,,,,,,,,,,,,,,,,,,,,,,,,,,,,,,,,,,,,,,,,,,,,,,,,,,,,,,,,,,,,,,,,,,,,,,,,,,,,,,,,,,,,,,,,,,,,,,,,,,,
,,?,0.002535,0,,,,,,stimuli/images/PICTURE_208.png,LOTS,563f8474cbd4c6000fdc928b,09/11/1948,2020-09-10_16h25.19.011,proactive3.1,2020.1.2,Win32,60,5f599a131af4471f3d752b7b,5f5a43eed39af50b42356f2c,3,,,,,,microphone,,,,,,,,,,,2,0,0,2,2,10,1,,,,,,,,,,,,,,,,,,,,,,,,,,,,,,,,,,,,,,,,,,,,,,,,,,,,,,,,,,,,,,,,,,,,,,,,,,,,,,,,,,,,,,,,,,,,,,,,,,,,,,,,
,,?,0.00298,0,,,,,,stimuli/images/PICTURE_151.png,GIRL,563f8474cbd4c6000fdc928b,09/11/1948,2020-09-10_16h25.19.011,proactive3.1,2020.1.2,Win32,60,5f599a131af4471f3d752b7b,5f5a43eed39af50b42356f2c,3,,,,,,tray,,,,,,,,,,,2,0,0,3,3,19,1,,,,,,,,,,,,,,,,,,,,,,,,,,,,,,,,,,,,,,,,,,,,,,,,,,,,,,,,,,,,,,,,,,,,,,,,,,,,,,,,,,,,,,,,,,,,,,,,,,,,,,,,
,,?,0.001745,0,,,,,,stimuli/images/PICTURE_177.png,CARS,563f8474cbd4c6000fdc928b,09/11/1948,2020-09-10_16h25.19.011,proactive3.1,2020.1.2,Win32,60,5f599a131af4471f3d752b7b,5f5a43eed39af50b42356f2c,3,,,,,,mushroom,,,,,,,,,,,4,0,0,4,4,35,1,,,,,,,,,,,,,,,,,,,,,,,,,,,,,,,,,,,,,,,,,,,,,,,,,,,,,,,,,,,,,,,,,,,,,,,,,,,,,,,,,,,,,,,,,,,,,,,,,,,,,,,,
,,?,0.00301,0,,,,,,stimuli/images/PICTURE_356.png,DANGER,563f8474cbd4c6000fdc928b,09/11/1948,2020-09-10_16h25.19.011,proactive3.1,2020.1.2,Win32,60,5f599a131af4471f3d752b7b,5f5a43eed39af50b42356f2c,3,,,,,,pawn,,,,,,,,,,,6,0,0,5,5,55,1,,,,,,,,,,,,,,,,,,,,,,,,,,,,,,,,,,,,,,,,,,,,,,,,,,,,,,,,,,,,,,,,,,,,,,,,,,,,,,,,,,,,,,,,,,,,,,,,,,,,,,,,
,,?,0.00176,0,,,,,,stimuli/images/PICTURE_308.png,ESTATE,563f8474cbd4c6000fdc928b,09/11/1948,2020-09-10_16h25.19.011,proactive3.1,2020.1.2,Win32,60,5f599a131af4471f3d752b7b,5f5a43eed39af50b42356f2c,3,,,,,,dice,,,,,,,,,,,5,0,0,6,6,46,1,,,,,,,,,,,,,,,,,,,,,,,,,,,,,,,,,,,,,,,,,,,,,,,,,,,,,,,,,,,,,,,,,,,,,,,,,,,,,,,,,,,,,,,,,,,,,,,,,,,,,,,,
,,DUDE,15.014805,1,,,,,,stimuli/images/PICTURE_453.png,DUDE,563f8474cbd4c6000fdc928b,09/11/1948,2020-09-10_16h25.19.011,proactive3.1,2020.1.2,Win32,60,5f599a131af4471f3d752b7b,5f5a43eed39af50b42356f2c,3,,,,,,scissors,,,,,,,,,,,3,0,0,7,7,27,1,,,,,,,,,,,,,,,,,,,,,,,,,,,,,,,,,,,,,,,,,,,,,,,,,,,,,,,,,,,,,,,,,,,,,,,,,,,,,,,,,,,,,,,,,,,,,,,,,,,,,,,,
,,?,0.0026,0,,,,,,stimuli/images/PICTURE_692.png,MONTH,563f8474cbd4c6000fdc928b,09/11/1948,2020-09-10_16h25.19.011,proactive3.1,2020.1.2,Win32,60,5f599a131af4471f3d752b7b,5f5a43eed39af50b42356f2c,3,,,,,,cherry,,,,,,,,,,,2,0,0,8,8,16,1,,,,,,,,,,,,,,,,,,,,,,,,,,,,,,,,,,,,,,,,,,,,,,,,,,,,,,,,,,,,,,,,,,,,,,,,,,,,,,,,,,,,,,,,,,,,,,,,,,,,,,,,
,,?,0.00192,0,,,,,,stimuli/images/PICTURE_215.png,PLENTY,563f8474cbd4c6000fdc928b,09/11/1948,2020-09-10_16h25.19.011,proactive3.1,2020.1.2,Win32,60,5f599a131af4471f3d752b7b,5f5a43eed39af50b42356f2c,3,,,,,,boot,,,,,,,,,,,4,0,0,9,9,37,1,,,,,,,,,,,,,,,,,,,,,,,,,,,,,,,,,,,,,,,,,,,,,,,,,,,,,,,,,,,,,,,,,,,,,,,,,,,,,,,,,,,,,,,,,,,,,,,,,,,,,,,,
,,?,0.001685,0,,,,,,stimuli/images/PICTURE_677.png,MILE,563f8474cbd4c6000fdc928b,09/11/1948,2020-09-10_16h25.19.011,proactive3.1,2020.1.2,Win32,60,5f599a131af4471f3d752b7b,5f5a43eed39af50b42356f2c,3,,,,,,map,,,,,,,,,,,4,0,0,10,10,30,1,,,,,,,,,,,,,,,,,,,,,,,,,,,,,,,,,,,,,,,,,,,,,,,,,,,,,,,,,,,,,,,,,,,,,,,,,,,,,,,,,,,,,,,,,,,,,,,,,,,,,,,,
,,?,0.00804,0,,,,,,stimuli/images/PICTURE_123.png,ADVICE,563f8474cbd4c6000fdc928b,09/11/1948,2020-09-10_16h25.19.011,proactive3.1,2020.1.2,Win32,60,5f599a131af4471f3d752b7b,5f5a43eed39af50b42356f2c,3,,,,,,dart,,,,,,,,,,,6,0,0,11,11,50,1,,,,,,,,,,,,,,,,,,,,,,,,,,,,,,,,,,,,,,,,,,,,,,,,,,,,,,,,,,,,,,,,,,,,,,,,,,,,,,,,,,,,,,,,,,,,,,,,,,,,,,,,
,,?,0.001745,0,,,,,,stimuli/images/PICTURE_327.png,BEAUTY,563f8474cbd4c6000fdc928b,09/11/1948,2020-09-10_16h25.19.011,proactive3.1,2020.1.2,Win32,60,5f599a131af4471f3d752b7b,5f5a43eed39af50b42356f2c,3,,,,,,helmet,,,,,,,,,,,5,0,0,12,12,48,1,,,,,,,,,,,,,,,,,,,,,,,,,,,,,,,,,,,,,,,,,,,,,,,,,,,,,,,,,,,,,,,,,,,,,,,,,,,,,,,,,,,,,,,,,,,,,,,,,,,,,,,,
,,?,0.00182,0,,,,,,stimuli/images/PICTURE_667.png,BATH,563f8474cbd4c6000fdc928b,09/11/1948,2020-09-10_16h25.19.011,proactive3.1,2020.1.2,Win32,60,5f599a131af4471f3d752b7b,5f5a43eed39af50b42356f2c,3,,,,,,daisy,,,,,,,,,,,1,0,0,13,13,4,1,,,,,,,,,,,,,,,,,,,,,,,,,,,,,,,,,,,,,,,,,,,,,,,,,,,,,,,,,,,,,,,,,,,,,,,,,,,,,,,,,,,,,,,,,,,,,,,,,,,,,,,,
,,?,0.001735,0,,,,,,stimuli/images/PICTURE_339.png,PLENTY,563f8474cbd4c6000fdc928b,09/11/1948,2020-09-10_16h25.19.011,proactive3.1,2020.1.2,Win32,60,5f599a131af4471f3d752b7b,5f5a43eed39af50b42356f2c,3,,,,,,backpack,,,,,,,,,,,1,0,0,14,14,0,1,,,,,,,,,,,,,,,,,,,,,,,,,,,,,,,,,,,,,,,,,,,,,,,,,,,,,,,,,,,,,,,,,,,,,,,,,,,,,,,,,,,,,,,,,,,,,,,,,,,,,,,,
,,?,0.001965,0,,,,,,stimuli/images/PICTURE_708.png,CLIENT,563f8474cbd4c6000fdc928b,09/11/1948,2020-09-10_16h25.19.011,proactive3.1,2020.1.2,Win32,60,5f599a131af4471f3d752b7b,5f5a43eed39af50b42356f2c,3,,,,,,monkey,,,,,,,,,,,1,0,0,15,15,5,1,,,,,,,,,,,,,,,,,,,,,,,,,,,,,,,,,,,,,,,,,,,,,,,,,,,,,,,,,,,,,,,,,,,,,,,,,,,,,,,,,,,,,,,,,,,,,,,,,,,,,,,,
,,?,0.00259,0,,,,,,stimuli/images/PICTURE_233.png,WOMEN,563f8474cbd4c6000fdc928b,09/11/1948,2020-09-10_16h25.19.011,proactive3.1,2020.1.2,Win32,60,5f599a131af4471f3d752b7b,5f5a43eed39af50b42356f2c,3,,,,,,salt,,,,,,,,,,,4,0,0,16,16,38,1,,,,,,,,,,,,,,,,,,,,,,,,,,,,,,,,,,,,,,,,,,,,,,,,,,,,,,,,,,,,,,,,,,,,,,,,,,,,,,,,,,,,,,,,,,,,,,,,,,,,,,,,
,,?,0.00188,0,,,,,,stimuli/images/PICTURE_314.png,SAKE,563f8474cbd4c6000fdc928b,09/11/1948,2020-09-10_16h25.19.011,proactive3.1,2020.1.2,Win32,60,5f599a131af4471f3d752b7b,5f5a43eed39af50b42356f2c,3,,,,,,perfume,,,,,,,,,,,1,0,0,17,17,7,1,,,,,,,,,,,,,,,,,,,,,,,,,,,,,,,,,,,,,,,,,,,,,,,,,,,,,,,,,,,,,,,,,,,,,,,,,,,,,,,,,,,,,,,,,,,,,,,,,,,,,,,,
,,?,0.001745,0,,,,,,stimuli/images/PICTURE_311.png,BEAUTY,563f8474cbd4c6000fdc928b,09/11/1948,2020-09-10_16h25.19.011,proactive3.1,2020.1.2,Win32,60,5f599a131af4471f3d752b7b,5f5a43eed39af50b42356f2c,3,,,,,,razor,,,,,,,,,,,2,0,0,18,18,13,1,,,,,,,,,,,,,,,,,,,,,,,,,,,,,,,,,,,,,,,,,,,,,,,,,,,,,,,,,,,,,,,,,,,,,,,,,,,,,,,,,,,,,,,,,,,,,,,,,,,,,,,,
,,?,0.002355,0,,,,,,stimuli/images/PICTURE_688.png,WOMEN,563f8474cbd4c6000fdc928b,09/11/1948,2020-09-10_16h25.19.011,proactive3.1,2020.1.2,Win32,60,5f599a131af4471f3d752b7b,5f5a43eed39af50b42356f2c,3,,,,,,runner,,,,,,,,,,,2,0,0,19,19,14,1,,,,,,,,,,,,,,,,,,,,,,,,,,,,,,,,,,,,,,,,,,,,,,,,,,,,,,,,,,,,,,,,,,,,,,,,,,,,,,,,,,,,,,,,,,,,,,,,,,,,,,,,
,,?,0.002585,0,,,,,,stimuli/images/PICTURE_208.png,THING,563f8474cbd4c6000fdc928b,09/11/1948,2020-09-10_16h25.19.011,proactive3.1,2020.1.2,Win32,60,5f599a131af4471f3d752b7b,5f5a43eed39af50b42356f2c,3,,,,,,microphone,,,,,,,,,,,5,0,0,20,20,47,1,,,,,,,,,,,,,,,,,,,,,,,,,,,,,,,,,,,,,,,,,,,,,,,,,,,,,,,,,,,,,,,,,,,,,,,,,,,,,,,,,,,,,,,,,,,,,,,,,,,,,,,,
,,?,0.00174,0,,,,,,stimuli/images/PICTURE_208.png,MONTH,563f8474cbd4c6000fdc928b,09/11/1948,2020-09-10_16h25.19.011,proactive3.1,2020.1.2,Win32,60,5f599a131af4471f3d752b7b,5f5a43eed39af50b42356f2c,3,,,,,,microphone,,,,,,,,,,,6,0,0,21,21,53,1,,,,,,,,,,,,,,,,,,,,,,,,,,,,,,,,,,,,,,,,,,,,,,,,,,,,,,,,,,,,,,,,,,,,,,,,,,,,,,,,,,,,,,,,,,,,,,,,,,,,,,,,
,,?,0.00175,0,,,,,,stimuli/images/PICTURE_491.png,WRITER,563f8474cbd4c6000fdc928b,09/11/1948,2020-09-10_16h25.19.011,proactive3.1,2020.1.2,Win32,60,5f599a131af4471f3d752b7b,5f5a43eed39af50b42356f2c,3,,,,,,rug,,,,,,,,,,,6,0,0,22,22,57,1,,,,,,,,,,,,,,,,,,,,,,,,,,,,,,,,,,,,,,,,,,,,,,,,,,,,,,,,,,,,,,,,,,,,,,,,,,,,,,,,,,,,,,,,,,,,,,,,,,,,,,,,
,,?,0.001825,0,,,,,,stimuli/images/PICTURE_160.png,FEET,563f8474cbd4c6000fdc928b,09/11/1948,2020-09-10_16h25.19.011,proactive3.1,2020.1.2,Win32,60,5f599a131af4471f3d752b7b,5f5a43eed39af50b42356f2c,3,,,,,,wheelbarrow,,,,,,,,,,,6,0,0,23,23,58,1,,,,,,,,,,,,,,,,,,,,,,,,,,,,,,,,,,,,,,,,,,,,,,,,,,,,,,,,,,,,,,,,,,,,,,,,,,,,,,,,,,,,,,,,,,,,,,,,,,,,,,,,
,,?,0.00173,0,,,,,,stimuli/images/PICTURE_314.png,GODS,563f8474cbd4c6000fdc928b,09/11/1948,2020-09-10_16h25.19.011,proactive3.1,2020.1.2,Win32,60,5f599a131af4471f3d752b7b,5f5a43eed39af50b42356f2c,3,,,,,,perfume,,,,,,,,,,,2,0,0,24,24,11,1,,,,,,,,,,,,,,,,,,,,,,,,,,,,,,,,,,,,,,,,,,,,,,,,,,,,,,,,,,,,,,,,,,,,,,,,,,,,,,,,,,,,,,,,,,,,,,,,,,,,,,,,
,,?,0.002045,0,,,,,,stimuli/images/PICTURE_85.png,THING,563f8474cbd4c6000fdc928b,09/11/1948,2020-09-10_16h25.19.011,proactive3.1,2020.1.2,Win32,60,5f599a131af4471f3d752b7b,5f5a43eed39af50b42356f2c,3,,,,,,diamond,,,,,,,,,,,2,0,0,25,25,15,1,,,,,,,,,,,,,,,,,,,,,,,,,,,,,,,,,,,,,,,,,,,,,,,,,,,,,,,,,,,,,,,,,,,,,,,,,,,,,,,,,,,,,,,,,,,,,,,,,,,,,,,,
,,?,0.00181,0,,,,,,stimuli/images/PICTURE_311.png,FRIEND,563f8474cbd4c6000fdc928b,09/11/1948,2020-09-10_16h25.19.011,proactive3.1,2020.1.2,Win32,60,5f599a131af4471f3d752b7b,5f5a43eed39af50b42356f2c,3,,,,,,razor,,,,,,,,,,,4,0,0,26,26,34,1,,,,,,,,,,,,,,,,,,,,,,,,,,,,,,,,,,,,,,,,,,,,,,,,,,,,,,,,,,,,,,,,,,,,,,,,,,,,,,,,,,,,,,,,,,,,,,,,,,,,,,,,
,,?,0.00176,0,,,,,,stimuli/images/PICTURE_449.png,THING,563f8474cbd4c6000fdc928b,09/11/1948,2020-09-10_16h25.19.011,proactive3.1,2020.1.2,Win32,60,5f599a131af4471f3d752b7b,5f5a43eed39af50b42356f2c,3,,,,,,bench,,,,,,,,,,,6,0,0,27,27,59,1,,,,,,,,,,,,,,,,,,,,,,,,,,,,,,,,,,,,,,,,,,,,,,,,,,,,,,,,,,,,,,,,,,,,,,,,,,,,,,,,,,,,,,,,,,,,,,,,,,,,,,,,
,,?,0.001975,0,,,,,,stimuli/images/PICTURE_248.png,DOZEN,563f8474cbd4c6000fdc928b,09/11/1948,2020-09-10_16h25.19.011,proactive3.1,2020.1.2,Win32,60,5f599a131af4471f3d752b7b,5f5a43eed39af50b42356f2c,3,,,,,,cart,,,,,,,,,,,4,0,0,28,28,39,1,,,,,,,,,,,,,,,,,,,,,,,,,,,,,,,,,,,,,,,,,,,,,,,,,,,,,,,,,,,,,,,,,,,,,,,,,,,,,,,,,,,,,,,,,,,,,,,,,,,,,,,,
,,?,0.00473,0,,,,,,stimuli/images/PICTURE_688.png,CASINO,563f8474cbd4c6000fdc928b,09/11/1948,2020-09-10_16h25.19.011,proactive3.1,2020.1.2,Win32,60,5f599a131af4471f3d752b7b,5f5a43eed39af50b42356f2c,3,,,,,,runner,,,,,,,,,,,1,0,0,29,29,2,1,,,,,,,,,,,,,,,,,,,,,,,,,,,,,,,,,,,,,,,,,,,,,,,,,,,,,,,,,,,,,,,,,,,,,,,,,,,,,,,,,,,,,,,,,,,,,,,,,,,,,,,,
,,?,0.001685,0,,,,,,stimuli/images/PICTURE_160.png,LEADER,563f8474cbd4c6000fdc928b,09/11/1948,2020-09-10_16h25.19.011,proactive3.1,2020.1.2,Win32,60,5f599a131af4471f3d752b7b,5f5a43eed39af50b42356f2c,3,,,,,,wheelbarrow,,,,,,,,,,,1,0,0,30,30,3,1,,,,,,,,,,,,,,,,,,,,,,,,,,,,,,,,,,,,,,,,,,,,,,,,,,,,,,,,,,,,,,,,,,,,,,,,,,,,,,,,,,,,,,,,,,,,,,,,,,,,,,,,
,,ARTIST,15.010915,1,,,,,,stimuli/images/PICTURE_203.png,ARTIST,563f8474cbd4c6000fdc928b,09/11/1948,2020-09-10_16h25.19.011,proactive3.1,2020.1.2,Win32,60,5f599a131af4471f3d752b7b,5f5a43eed39af50b42356f2c,3,,,,,,cap,,,,,,,,,,,3,0,0,31,31,26,1,,,,,,,,,,,,,,,,,,,,,,,,,,,,,,,,,,,,,,,,,,,,,,,,,,,,,,,,,,,,,,,,,,,,,,,,,,,,,,,,,,,,,,,,,,,,,,,,,,,,,,,,
,,IDEA,15.001575,0,,,,,,stimuli/images/PICTURE_233.png,IDEAS,563f8474cbd4c6000fdc928b,09/11/1948,2020-09-10_16h25.19.011,proactive3.1,2020.1.2,Win32,60,5f599a131af4471f3d752b7b,5f5a43eed39af50b42356f2c,3,,,,,,salt,,,,,,,,,,,3,0,0,32,32,28,1,,,,,,,,,,,,,,,,,,,,,,,,,,,,,,,,,,,,,,,,,,,,,,,,,,,,,,,,,,,,,,,,,,,,,,,,,,,,,,,,,,,,,,,,,,,,,,,,,,,,,,,,
,,?,0.00191,0,,,,,,stimuli/images/PICTURE_123.png,ADVICE,563f8474cbd4c6000fdc928b,09/11/1948,2020-09-10_16h25.19.011,proactive3.1,2020.1.2,Win32,60,5f599a131af4471f3d752b7b,5f5a43eed39af50b42356f2c,3,,,,,,dart,,,,,,,,,,,5,0,0,33,33,40,1,,,,,,,,,,,,,,,,,,,,,,,,,,,,,,,,,,,,,,,,,,,,,,,,,,,,,,,,,,,,,,,,,,,,,,,,,,,,,,,,,,,,,,,,,,,,,,,,,,,,,,,,
,,?,0.002525,0,,,,,,stimuli/images/PICTURE_469.png,LETTER,563f8474cbd4c6000fdc928b,09/11/1948,2020-09-10_16h25.19.011,proactive3.1,2020.1.2,Win32,60,5f599a131af4471f3d752b7b,5f5a43eed39af50b42356f2c,3,,,,,,stool,,,,,,,,,,,5,0,0,34,34,42,1,,,,,,,,,,,,,,,,,,,,,,,,,,,,,,,,,,,,,,,,,,,,,,,,,,,,,,,,,,,,,,,,,,,,,,,,,,,,,,,,,,,,,,,,,,,,,,,,,,,,,,,,
,,?,0.00171,0,,,,,,stimuli/images/PICTURE_147.png,MOMENT,563f8474cbd4c6000fdc928b,09/11/1948,2020-09-10_16h25.19.011,proactive3.1,2020.1.2,Win32,60,5f599a131af4471f3d752b7b,5f5a43eed39af50b42356f2c,3,,,,,,hanger,,,,,,,,,,,6,0,0,35,35,51,1,,,,,,,,,,,,,,,,,,,,,,,,,,,,,,,,,,,,,,,,,,,,,,,,,,,,,,,,,,,,,,,,,,,,,,,,,,,,,,,,,,,,,,,,,,,,,,,,,,,,,,,,
,,?,0.00255,0,,,,,,stimuli/images/PICTURE_744.png,SYSTEM,563f8474cbd4c6000fdc928b,09/11/1948,2020-09-10_16h25.19.011,proactive3.1,2020.1.2,Win32,60,5f599a131af4471f3d752b7b,5f5a43eed39af50b42356f2c,3,,,,,,ring,,,,,,,,,,,5,0,0,36,36,43,1,,,,,,,,,,,,,,,,,,,,,,,,,,,,,,,,,,,,,,,,,,,,,,,,,,,,,,,,,,,,,,,,,,,,,,,,,,,,,,,,,,,,,,,,,,,,,,,,,,,,,,,,
,,DEMON,15.00896,1,,,,,,stimuli/images/PICTURE_467.png,DEMON,563f8474cbd4c6000fdc928b,09/11/1948,2020-09-10_16h25.19.011,proactive3.1,2020.1.2,Win32,60,5f599a131af4471f3d752b7b,5f5a43eed39af50b42356f2c,3,,,,,,peg,,,,,,,,,,,3,0,0,37,37,23,1,,,,,,,,,,,,,,,,,,,,,,,,,,,,,,,,,,,,,,,,,,,,,,,,,,,,,,,,,,,,,,,,,,,,,,,,,,,,,,,,,,,,,,,,,,,,,,,,,,,,,,,,
,,?,0.00795,0,,,,,,stimuli/images/PICTURE_469.png,ARTIST,563f8474cbd4c6000fdc928b,09/11/1948,2020-09-10_16h25.19.011,proactive3.1,2020.1.2,Win32,60,5f599a131af4471f3d752b7b,5f5a43eed39af50b42356f2c,3,,,,,,stool,,,,,,,,,,,1,0,0,38,38,6,1,,,,,,,,,,,,,,,,,,,,,,,,,,,,,,,,,,,,,,,,,,,,,,,,,,,,,,,,,,,,,,,,,,,,,,,,,,,,,,,,,,,,,,,,,,,,,,,,,,,,,,,,
,,YARD,15.010015,1,,,,,,stimuli/images/PICTURE_708.png,YARD,563f8474cbd4c6000fdc928b,09/11/1948,2020-09-10_16h25.19.011,proactive3.1,2020.1.2,Win32,60,5f599a131af4471f3d752b7b,5f5a43eed39af50b42356f2c,3,,,,,,monkey,,,,,,,,,,,3,0,0,39,39,29,1,,,,,,,,,,,,,,,,,,,,,,,,,,,,,,,,,,,,,,,,,,,,,,,,,,,,,,,,,,,,,,,,,,,,,,,,,,,,,,,,,,,,,,,,,,,,,,,,,,,,,,,,
,,?,0.002805,0,,,,,,stimuli/images/PICTURE_708.png,PENNY,563f8474cbd4c6000fdc928b,09/11/1948,2020-09-10_16h25.19.011,proactive3.1,2020.1.2,Win32,60,5f599a131af4471f3d752b7b,5f5a43eed39af50b42356f2c,3,,,,,,monkey,,,,,,,,,,,4,0,0,40,40,31,1,,,,,,,,,,,,,,,,,,,,,,,,,,,,,,,,,,,,,,,,,,,,,,,,,,,,,,,,,,,,,,,,,,,,,,,,,,,,,,,,,,,,,,,,,,,,,,,,,,,,,,,,
,,?,0.001945,0,,,,,,stimuli/images/PICTURE_302.png,FAMILY,563f8474cbd4c6000fdc928b,09/11/1948,2020-09-10_16h25.19.011,proactive3.1,2020.1.2,Win32,60,5f599a131af4471f3d752b7b,5f5a43eed39af50b42356f2c,3,,,,,,taxi,,,,,,,,,,,2,0,0,41,41,18,1,,,,,,,,,,,,,,,,,,,,,,,,,,,,,,,,,,,,,,,,,,,,,,,,,,,,,,,,,,,,,,,,,,,,,,,,,,,,,,,,,,,,,,,,,,,,,,,,,,,,,,,,
,,ROOF,15.00162,0,,,,,,stimuli/images/PICTURE_348.png,SPEECH,563f8474cbd4c6000fdc928b,09/11/1948,2020-09-10_16h25.19.011,proactive3.1,2020.1.2,Win32,60,5f599a131af4471f3d752b7b,5f5a43eed39af50b42356f2c,3,,,,,,pepper,,,,,,,,,,,3,0,0,42,42,20,1,,,,,,,,,,,,,,,,,,,,,,,,,,,,,,,,,,,,,,,,,,,,,,,,,,,,,,,,,,,,,,,,,,,,,,,,,,,,,,,,,,,,,,,,,,,,,,,,,,,,,,,,
,,?,0.001835,0,,,,,,stimuli/images/PICTURE_744.png,SAKE,563f8474cbd4c6000fdc928b,09/11/1948,2020-09-10_16h25.19.011,proactive3.1,2020.1.2,Win32,60,5f599a131af4471f3d752b7b,5f5a43eed39af50b42356f2c,3,,,,,,ring,,,,,,,,,,,2,0,0,43,43,17,1,,,,,,,,,,,,,,,,,,,,,,,,,,,,,,,,,,,,,,,,,,,,,,,,,,,,,,,,,,,,,,,,,,,,,,,,,,,,,,,,,,,,,,,,,,,,,,,,,,,,,,,,
,,?,0.001885,0,,,,,,stimuli/images/PICTURE_470.png,CASINO,563f8474cbd4c6000fdc928b,09/11/1948,2020-09-10_16h25.19.011,proactive3.1,2020.1.2,Win32,60,5f599a131af4471f3d752b7b,5f5a43eed39af50b42356f2c,3,,,,,,motorbike,,,,,,,,,,,4,0,0,44,44,36,1,,,,,,,,,,,,,,,,,,,,,,,,,,,,,,,,,,,,,,,,,,,,,,,,,,,,,,,,,,,,,,,,,,,,,,,,,,,,,,,,,,,,,,,,,,,,,,,,,,,,,,,,
,,?,0.001905,0,,,,,,stimuli/images/PICTURE_654.png,VALLEY,563f8474cbd4c6000fdc928b,09/11/1948,2020-09-10_16h25.19.011,proactive3.1,2020.1.2,Win32,60,5f599a131af4471f3d752b7b,5f5a43eed39af50b42356f2c,3,,,,,,pencil,,,,,,,,,,,1,0,0,45,45,1,1,,,,,,,,,,,,,,,,,,,,,,,,,,,,,,,,,,,,,,,,,,,,,,,,,,,,,,,,,,,,,,,,,,,,,,,,,,,,,,,,,,,,,,,,,,,,,,,,,,,,,,,,
,,?,0.001835,0,,,,,,stimuli/images/PICTURE_453.png,PLENTY,563f8474cbd4c6000fdc928b,09/11/1948,2020-09-10_16h25.19.011,proactive3.1,2020.1.2,Win32,60,5f599a131af4471f3d752b7b,5f5a43eed39af50b42356f2c,3,,,,,,scissors,,,,,,,,,,,6,0,0,46,46,56,1,,,,,,,,,,,,,,,,,,,,,,,,,,,,,,,,,,,,,,,,,,,,,,,,,,,,,,,,,,,,,,,,,,,,,,,,,,,,,,,,,,,,,,,,,,,,,,,,,,,,,,,,
,,ROOF,15.001315,0,,,,,,stimuli/images/PICTURE_509.png,PHOTO,563f8474cbd4c6000fdc928b,09/11/1948,2020-09-10_16h25.19.011,proactive3.1,2020.1.2,Win32,60,5f599a131af4471f3d752b7b,5f5a43eed39af50b42356f2c,3,,,,,,telephone,,,,,,,,,,,3,0,0,47,47,21,1,,,,,,,,,,,,,,,,,,,,,,,,,,,,,,,,,,,,,,,,,,,,,,,,,,,,,,,,,,,,,,,,,,,,,,,,,,,,,,,,,,,,,,,,,,,,,,,,,,,,,,,,
,,?,0.001755,0,,,,,,stimuli/images/PICTURE_667.png,PLENTY,563f8474cbd4c6000fdc928b,09/11/1948,2020-09-10_16h25.19.011,proactive3.1,2020.1.2,Win32,60,5f599a131af4471f3d752b7b,5f5a43eed39af50b42356f2c,3,,,,,,daisy,,,,,,,,,,,5,0,0,48,48,41,1,,,,,,,,,,,,,,,,,,,,,,,,,,,,,,,,,,,,,,,,,,,,,,,,,,,,,,,,,,,,,,,,,,,,,,,,,,,,,,,,,,,,,,,,,,,,,,,,,,,,,,,,
,,?,0.001785,0,,,,,,stimuli/images/PICTURE_32.png,JUNGLE,563f8474cbd4c6000fdc928b,09/11/1948,2020-09-10_16h25.19.011,proactive3.1,2020.1.2,Win32,60,5f599a131af4471f3d752b7b,5f5a43eed39af50b42356f2c,3,,,,,,crown,,,,,,,,,,,5,0,0,49,49,45,1,,,,,,,,,,,,,,,,,,,,,,,,,,,,,,,,,,,,,,,,,,,,,,,,,,,,,,,,,,,,,,,,,,,,,,,,,,,,,,,,,,,,,,,,,,,,,,,,,,,,,,,,
,,?,0.003305,0,,,,,,stimuli/images/PICTURE_675.png,WEAPON,563f8474cbd4c6000fdc928b,09/11/1948,2020-09-10_16h25.19.011,proactive3.1,2020.1.2,Win32,60,5f599a131af4471f3d752b7b,5f5a43eed39af50b42356f2c,3,,,,,,windmill,,,,,,,,,,,4,0,0,50,50,32,1,,,,,,,,,,,,,,,,,,,,,,,,,,,,,,,,,,,,,,,,,,,,,,,,,,,,,,,,,,,,,,,,,,,,,,,,,,,,,,,,,,,,,,,,,,,,,,,,,,,,,,,,
,,?,0.00174,0,,,,,,stimuli/images/PICTURE_308.png,KIND,563f8474cbd4c6000fdc928b,09/11/1948,2020-09-10_16h25.19.011,proactive3.1,2020.1.2,Win32,60,5f599a131af4471f3d752b7b,5f5a43eed39af50b42356f2c,3,,,,,,dice,,,,,,,,,,,6,0,0,51,51,54,1,,,,,,,,,,,,,,,,,,,,,,,,,,,,,,,,,,,,,,,,,,,,,,,,,,,,,,,,,,,,,,,,,,,,,,,,,,,,,,,,,,,,,,,,,,,,,,,,,,,,,,,,
,,ROOF,15.008915,1,,,,,,stimuli/images/PICTURE_491.png,ROOF,563f8474cbd4c6000fdc928b,09/11/1948,2020-09-10_16h25.19.011,proactive3.1,2020.1.2,Win32,60,5f599a131af4471f3d752b7b,5f5a43eed39af50b42356f2c,3,,,,,,rug,,,,,,,,,,,3,0,0,52,52,24,1,,,,,,,,,,,,,,,,,,,,,,,,,,,,,,,,,,,,,,,,,,,,,,,,,,,,,,,,,,,,,,,,,,,,,,,,,,,,,,,,,,,,,,,,,,,,,,,,,,,,,,,,
,,?,0.00214,0,,,,,,stimuli/images/PICTURE_68.png,MILE,563f8474cbd4c6000fdc928b,09/11/1948,2020-09-10_16h25.19.011,proactive3.1,2020.1.2,Win32,60,5f599a131af4471f3d752b7b,5f5a43eed39af50b42356f2c,3,,,,,,candle,,,,,,,,,,,5,0,0,53,53,44,1,,,,,,,,,,,,,,,,,,,,,,,,,,,,,,,,,,,,,,,,,,,,,,,,,,,,,,,,,,,,,,,,,,,,,,,,,,,,,,,,,,,,,,,,,,,,,,,,,,,,,,,,
,,?,0.00183,0,,,,,,stimuli/images/PICTURE_380.png,DEATH,563f8474cbd4c6000fdc928b,09/11/1948,2020-09-10_16h25.19.011,proactive3.1,2020.1.2,Win32,60,5f599a131af4471f3d752b7b,5f5a43eed39af50b42356f2c,3,,,,,,gorilla,,,,,,,,,,,5,0,0,54,54,49,1,,,,,,,,,,,,,,,,,,,,,,,,,,,,,,,,,,,,,,,,,,,,,,,,,,,,,,,,,,,,,,,,,,,,,,,,,,,,,,,,,,,,,,,,,,,,,,,,,,,,,,,,
,,STYLE,15.008675,1,,,,,,stimuli/images/PICTURE_95.png,STYLE,563f8474cbd4c6000fdc928b,09/11/1948,2020-09-10_16h25.19.011,proactive3.1,2020.1.2,Win32,60,5f599a131af4471f3d752b7b,5f5a43eed39af50b42356f2c,3,,,,,,suitcase,,,,,,,,,,,3,0,0,55,55,25,1,,,,,,,,,,,,,,,,,,,,,,,,,,,,,,,,,,,,,,,,,,,,,,,,,,,,,,,,,,,,,,,,,,,,,,,,,,,,,,,,,,,,,,,,,,,,,,,,,,,,,,,,
,,?,0.00167,0,,,,,,stimuli/images/PICTURE_380.png,PHOTO,563f8474cbd4c6000fdc928b,09/11/1948,2020-09-10_16h25.19.011,proactive3.1,2020.1.2,Win32,60,5f599a131af4471f3d752b7b,5f5a43eed39af50b42356f2c,3,,,,,,gorilla,,,,,,,,,,,6,0,0,56,56,52,1,,,,,,,,,,,,,,,,,,,,,,,,,,,,,,,,,,,,,,,,,,,,,,,,,,,,,,,,,,,,,,,,,,,,,,,,,,,,,,,,,,,,,,,,,,,,,,,,,,,,,,,,
,,?,0.001695,0,,,,,,stimuli/images/PICTURE_285.png,ADVICE,563f8474cbd4c6000fdc928b,09/11/1948,2020-09-10_16h25.19.011,proactive3.1,2020.1.2,Win32,60,5f599a131af4471f3d752b7b,5f5a43eed39af50b42356f2c,3,,,,,,carrot,,,,,,,,,,,2,0,0,57,57,12,1,,,,,,,,,,,,,,,,,,,,,,,,,,,,,,,,,,,,,,,,,,,,,,,,,,,,,,,,,,,,,,,,,,,,,,,,,,,,,,,,,,,,,,,,,,,,,,,,,,,,,,,,
,,DIG,15.00729,0,,,,,,stimuli/images/PICTURE_255.png,AREA,563f8474cbd4c6000fdc928b,09/11/1948,2020-09-10_16h25.19.011,proactive3.1,2020.1.2,Win32,60,5f599a131af4471f3d752b7b,5f5a43eed39af50b42356f2c,3,,,,,,shovel,,,,,,,,,,,3,0,0,58,58,22,1,,,,,,,,,,,,,,,,,,,,,,,,,,,,,,,,,,,,,,,,,,,,,,,,,,,,,,,,,,,,,,,,,,,,,,,,,,,,,,,,,,,,,,,,,,,,,,,,,,,,,,,,
,,?,0.00179,0,,,,,,stimuli/images/PICTURE_487.png,FLIGHT,563f8474cbd4c6000fdc928b,09/11/1948,2020-09-10_16h25.19.011,proactive3.1,2020.1.2,Win32,60,5f599a131af4471f3d752b7b,5f5a43eed39af50b42356f2c,3,,,,,,basket,,,,,,,,,,,1,0,0,59,59,9,1,,,,,,,,,,,,,,,,,,,,,,,,,,,,,,,,,,,,,,,,,,,,,,,,,,,,,,,,,,,,,,,,,,,,,,,,,,,,,,,,,,,,,,,,,,,,,,,,,,,,,,,,
,,,,,,,,,,,,563f8474cbd4c6000fdc928b,09/11/1948,2020-09-10_16h25.19.011,proactive3.1,2020.1.2,Win32,60,5f599a131af4471f3d752b7b,5f5a43eed39af50b42356f2c,3,,,,,,,,,,,,,,,,,,,,,,,,0,1,1,0,1,stimuli/learn-block1.csv,,,,,,,,,,,,,,,,,,,,,,,,,,,,,,,,,,,,,,,,,,,,,,,,,,,,,,,,,,,,,,,,,,,,,,,,,,,,,,,,,,,,,,,,,,,,,,,,,,
,,,,,,,,,,stimuli/images/PICTURE_18.png,RIVER,563f8474cbd4c6000fdc928b,09/11/1948,2020-09-10_16h25.19.011,proactive3.1,2020.1.2,Win32,60,5f599a131af4471f3d752b7b,5f5a43eed39af50b42356f2c,3,,,,,,planet,,,,,,0,0,0,22,1,3,2,,,,,,,,,,,,,,,,,,,,,,,,,,,,,,,,,,,,,,,,,,,,,,,,,,,,,,,,,,,,,,,,,,,,,,,,,,,,,,,,,,,,,,,,,,,,,,,,,,,,,,,,,,,,,
,,,,,,,,,,stimuli/images/PICTURE_453.png,FAMILY,563f8474cbd4c6000fdc928b,09/11/1948,2020-09-10_16h25.19.011,proactive3.1,2020.1.2,Win32,60,5f599a131af4471f3d752b7b,5f5a43eed39af50b42356f2c,3,,,,,,scissors,,,,,,0,1,1,48,1,5,2,,,,,,,,,,,,,,,,,,,,,,,,,,,,,,,,,,,,,,,,,,,,,,,,,,,,,,,,,,,,,,,,,,,,,,,,,,,,,,,,,,,,,,,,,,,,,,,,,,,,,,,,,,,,,
,,,,,,,,,,stimuli/images/PICTURE_327.png,LEADER,563f8474cbd4c6000fdc928b,09/11/1948,2020-09-10_16h25.19.011,proactive3.1,2020.1.2,Win32,60,5f599a131af4471f3d752b7b,5f5a43eed39af50b42356f2c,3,,,,,,helmet,,,,,,0,2,2,17,1,2,2,,,,,,,,,,,,,,,,,,,,,,,,,,,,,,,,,,,,,,,,,,,,,,,,,,,,,,,,,,,,,,,,,,,,,,,,,,,,,,,,,,,,,,,,,,,,,,,,,,,,,,,,,,,,,
,,,,,,,,,,stimuli/images/PICTURE_509.png,MILLER,563f8474cbd4c6000fdc928b,09/11/1948,2020-09-10_16h25.19.011,proactive3.1,2020.1.2,Win32,60,5f599a131af4471f3d752b7b,5f5a43eed39af50b42356f2c,3,,,,,,telephone,,,,,,0,3,3,49,1,5,2,,,,,,,,,,,,,,,,,,,,,,,,,,,,,,,,,,,,,,,,,,,,,,,,,,,,,,,,,,,,,,,,,,,,,,,,,,,,,,,,,,,,,,,,,,,,,,,,,,,,,,,,,,,,,
,,,,,,,,,,stimuli/images/PICTURE_655.png,SALE,563f8474cbd4c6000fdc928b,09/11/1948,2020-09-10_16h25.19.011,proactive3.1,2020.1.2,Win32,60,5f599a131af4471f3d752b7b,5f5a43eed39af50b42356f2c,3,,,,,,megaphone,,,,,,0,4,4,57,1,6,2,,,,,,,,,,,,,,,,,,,,,,,,,,,,,,,,,,,,,,,,,,,,,,,,,,,,,,,,,,,,,,,,,,,,,,,,,,,,,,,,,,,,,,,,,,,,,,,,,,,,,,,,,,,,,
,,,,,,,,,,stimuli/images/PICTURE_93.png,GIRL,563f8474cbd4c6000fdc928b,09/11/1948,2020-09-10_16h25.19.011,proactive3.1,2020.1.2,Win32,60,5f599a131af4471f3d752b7b,5f5a43eed39af50b42356f2c,3,,,,,,skateboard,,,,,,0,5,5,31,1,4,2,,,,,,,,,,,,,,,,,,,,,,,,,,,,,,,,,,,,,,,,,,,,,,,,,,,,,,,,,,,,,,,,,,,,,,,,,,,,,,,,,,,,,,,,,,,,,,,,,,,,,,,,,,,,,
,,,,,,,,,,stimuli/images/PICTURE_215.png,FOOD,563f8474cbd4c6000fdc928b,09/11/1948,2020-09-10_16h25.19.011,proactive3.1,2020.1.2,Win32,60,5f599a131af4471f3d752b7b,5f5a43eed39af50b42356f2c,3,,,,,,boot,,,,,,0,6,6,5,1,1,2,,,,,,,,,,,,,,,,,,,,,,,,,,,,,,,,,,,,,,,,,,,,,,,,,,,,,,,,,,,,,,,,,,,,,,,,,,,,,,,,,,,,,,,,,,,,,,,,,,,,,,,,,,,,,
,,,,,,,,,,stimuli/images/PICTURE_405.png,JUNGLE,563f8474cbd4c6000fdc928b,09/11/1948,2020-09-10_16h25.19.011,proactive3.1,2020.1.2,Win32,60,5f599a131af4471f3d752b7b,5f5a43eed39af50b42356f2c,3,,,,,,anchor,,,,,,0,7,7,13,1,2,2,,,,,,,,,,,,,,,,,,,,,,,,,,,,,,,,,,,,,,,,,,,,,,,,,,,,,,,,,,,,,,,,,,,,,,,,,,,,,,,,,,,,,,,,,,,,,,,,,,,,,,,,,,,,,
,,,,,,,,,,stimuli/images/PICTURE_141.png,CLIENT,563f8474cbd4c6000fdc928b,09/11/1948,2020-09-10_16h25.19.011,proactive3.1,2020.1.2,Win32,60,5f599a131af4471f3d752b7b,5f5a43eed39af50b42356f2c,3,,,,,,sunflower,,,,,,0,8,8,30,1,4,2,,,,,,,,,,,,,,,,,,,,,,,,,,,,,,,,,,,,,,,,,,,,,,,,,,,,,,,,,,,,,,,,,,,,,,,,,,,,,,,,,,,,,,,,,,,,,,,,,,,,,,,,,,,,,
,,,,,,,,,,stimuli/images/PICTURE_314.png,SPEECH,563f8474cbd4c6000fdc928b,09/11/1948,2020-09-10_16h25.19.011,proactive3.1,2020.1.2,Win32,60,5f599a131af4471f3d752b7b,5f5a43eed39af50b42356f2c,3,,,,,,perfume,,,,,,0,9,9,35,1,4,2,,,,,,,,,,,,,,,,,,,,,,,,,,,,,,,,,,,,,,,,,,,,,,,,,,,,,,,,,,,,,,,,,,,,,,,,,,,,,,,,,,,,,,,,,,,,,,,,,,,,,,,,,,,,,
,,,,,,,,,,stimuli/images/PICTURE_147.png,LEADER,563f8474cbd4c6000fdc928b,09/11/1948,2020-09-10_16h25.19.011,proactive3.1,2020.1.2,Win32,60,5f599a131af4471f3d752b7b,5f5a43eed39af50b42356f2c,3,,,,,,hanger,,,,,,0,10,10,33,1,4,2,,,,,,,,,,,,,,,,,,,,,,,,,,,,,,,,,,,,,,,,,,,,,,,,,,,,,,,,,,,,,,,,,,,,,,,,,,,,,,,,,,,,,,,,,,,,,,,,,,,,,,,,,,,,,
,,,,,,,,,,stimuli/images/PICTURE_487.png,POLICY,563f8474cbd4c6000fdc928b,09/11/1948,2020-09-10_16h25.19.011,proactive3.1,2020.1.2,Win32,60,5f599a131af4471f3d752b7b,5f5a43eed39af50b42356f2c,3,,,,,,basket,,,,,,0,11,11,34,1,4,2,,,,,,,,,,,,,,,,,,,,,,,,,,,,,,,,,,,,,,,,,,,,,,,,,,,,,,,,,,,,,,,,,,,,,,,,,,,,,,,,,,,,,,,,,,,,,,,,,,,,,,,,,,,,,
,,,,,,,,,,stimuli/images/PICTURE_403.png,FAMILY,563f8474cbd4c6000fdc928b,09/11/1948,2020-09-10_16h25.19.011,proactive3.1,2020.1.2,Win32,60,5f599a131af4471f3d752b7b,5f5a43eed39af50b42356f2c,3,,,,,,cathedral,,,,,,0,12,12,9,1,1,2,,,,,,,,,,,,,,,,,,,,,,,,,,,,,,,,,,,,,,,,,,,,,,,,,,,,,,,,,,,,,,,,,,,,,,,,,,,,,,,,,,,,,,,,,,,,,,,,,,,,,,,,,,,,,
,,,,,,,,,,stimuli/images/PICTURE_750.png,POLICY,563f8474cbd4c6000fdc928b,09/11/1948,2020-09-10_16h25.19.011,proactive3.1,2020.1.2,Win32,60,5f599a131af4471f3d752b7b,5f5a43eed39af50b42356f2c,3,,,,,,kettle,,,,,,0,13,13,44,1,5,2,,,,,,,,,,,,,,,,,,,,,,,,,,,,,,,,,,,,,,,,,,,,,,,,,,,,,,,,,,,,,,,,,,,,,,,,,,,,,,,,,,,,,,,,,,,,,,,,,,,,,,,,,,,,,
,,,,,,,,,,stimuli/images/PICTURE_57.png,CASINO,563f8474cbd4c6000fdc928b,09/11/1948,2020-09-10_16h25.19.011,proactive3.1,2020.1.2,Win32,60,5f599a131af4471f3d752b7b,5f5a43eed39af50b42356f2c,3,,,,,,stamp,,,,,,0,14,14,12,1,2,2,,,,,,,,,,,,,,,,,,,,,,,,,,,,,,,,,,,,,,,,,,,,,,,,,,,,,,,,,,,,,,,,,,,,,,,,,,,,,,,,,,,,,,,,,,,,,,,,,,,,,,,,,,,,,
,,,,,,,,,,stimuli/images/PICTURE_452.png,COPS,563f8474cbd4c6000fdc928b,09/11/1948,2020-09-10_16h25.19.011,proactive3.1,2020.1.2,Win32,60,5f599a131af4471f3d752b7b,5f5a43eed39af50b42356f2c,3,,,,,,watch,,,,,,0,15,15,0,1,1,2,,,,,,,,,,,,,,,,,,,,,,,,,,,,,,,,,,,,,,,,,,,,,,,,,,,,,,,,,,,,,,,,,,,,,,,,,,,,,,,,,,,,,,,,,,,,,,,,,,,,,,,,,,,,,
,,,,,,,,,,stimuli/images/PICTURE_564.png,PLENTY,563f8474cbd4c6000fdc928b,09/11/1948,2020-09-10_16h25.19.011,proactive3.1,2020.1.2,Win32,60,5f599a131af4471f3d752b7b,5f5a43eed39af50b42356f2c,3,,,,,,spoon,,,,,,0,16,16,11,1,2,2,,,,,,,,,,,,,,,,,,,,,,,,,,,,,,,,,,,,,,,,,,,,,,,,,,,,,,,,,,,,,,,,,,,,,,,,,,,,,,,,,,,,,,,,,,,,,,,,,,,,,,,,,,,,,
,,,,,,,,,,stimuli/images/PICTURE_491.png,SERIES,563f8474cbd4c6000fdc928b,09/11/1948,2020-09-10_16h25.19.011,proactive3.1,2020.1.2,Win32,60,5f599a131af4471f3d752b7b,5f5a43eed39af50b42356f2c,3,,,,,,rug,,,,,,0,17,17,39,1,4,2,,,,,,,,,,,,,,,,,,,,,,,,,,,,,,,,,,,,,,,,,,,,,,,,,,,,,,,,,,,,,,,,,,,,,,,,,,,,,,,,,,,,,,,,,,,,,,,,,,,,,,,,,,,,,
,,,,,,,,,,stimuli/images/PICTURE_405.png,HOUSE,563f8474cbd4c6000fdc928b,09/11/1948,2020-09-10_16h25.19.011,proactive3.1,2020.1.2,Win32,60,5f599a131af4471f3d752b7b,5f5a43eed39af50b42356f2c,3,,,,,,anchor,,,,,,0,18,18,2,1,1,2,,,,,,,,,,,,,,,,,,,,,,,,,,,,,,,,,,,,,,,,,,,,,,,,,,,,,,,,,,,,,,,,,,,,,,,,,,,,,,,,,,,,,,,,,,,,,,,,,,,,,,,,,,,,,
,,,,,,,,,,stimuli/images/PICTURE_95.png,NIGHT,563f8474cbd4c6000fdc928b,09/11/1948,2020-09-10_16h25.19.011,proactive3.1,2020.1.2,Win32,60,5f599a131af4471f3d752b7b,5f5a43eed39af50b42356f2c,3,,,,,,suitcase,,,,,,0,19,19,37,1,4,2,,,,,,,,,,,,,,,,,,,,,,,,,,,,,,,,,,,,,,,,,,,,,,,,,,,,,,,,,,,,,,,,,,,,,,,,,,,,,,,,,,,,,,,,,,,,,,,,,,,,,,,,,,,,,
,,,,,,,,,,stimuli/images/PICTURE_470.png,MOMENT,563f8474cbd4c6000fdc928b,09/11/1948,2020-09-10_16h25.19.011,proactive3.1,2020.1.2,Win32,60,5f599a131af4471f3d752b7b,5f5a43eed39af50b42356f2c,3,,,,,,motorbike,,,,,,0,20,20,40,1,5,2,,,,,,,,,,,,,,,,,,,,,,,,,,,,,,,,,,,,,,,,,,,,,,,,,,,,,,,,,,,,,,,,,,,,,,,,,,,,,,,,,,,,,,,,,,,,,,,,,,,,,,,,,,,,,
,,,,,,,,,,stimuli/images/PICTURE_2.png,YARD,563f8474cbd4c6000fdc928b,09/11/1948,2020-09-10_16h25.19.011,proactive3.1,2020.1.2,Win32,60,5f599a131af4471f3d752b7b,5f5a43eed39af50b42356f2c,3,,,,,,tyre,,,,,,0,21,21,55,1,6,2,,,,,,,,,,,,,,,,,,,,,,,,,,,,,,,,,,,,,,,,,,,,,,,,,,,,,,,,,,,,,,,,,,,,,,,,,,,,,,,,,,,,,,,,,,,,,,,,,,,,,,,,,,,,,
,,,,,,,,,,stimuli/images/PICTURE_285.png,PRINCE,563f8474cbd4c6000fdc928b,09/11/1948,2020-09-10_16h25.19.011,proactive3.1,2020.1.2,Win32,60,5f599a131af4471f3d752b7b,5f5a43eed39af50b42356f2c,3,,,,,,carrot,,,,,,0,22,22,20,1,3,2,,,,,,,,,,,,,,,,,,,,,,,,,,,,,,,,,,,,,,,,,,,,,,,,,,,,,,,,,,,,,,,,,,,,,,,,,,,,,,,,,,,,,,,,,,,,,,,,,,,,,,,,,,,,,
,,,,,,,,,,stimuli/images/PICTURE_215.png,LEADER,563f8474cbd4c6000fdc928b,09/11/1948,2020-09-10_16h25.19.011,proactive3.1,2020.1.2,Win32,60,5f599a131af4471f3d752b7b,5f5a43eed39af50b42356f2c,3,,,,,,boot,,,,,,0,23,23,43,1,5,2,,,,,,,,,,,,,,,,,,,,,,,,,,,,,,,,,,,,,,,,,,,,,,,,,,,,,,,,,,,,,,,,,,,,,,,,,,,,,,,,,,,,,,,,,,,,,,,,,,,,,,,,,,,,,
,,,,,,,,,,stimuli/images/PICTURE_509.png,BATH,563f8474cbd4c6000fdc928b,09/11/1948,2020-09-10_16h25.19.011,proactive3.1,2020.1.2,Win32,60,5f599a131af4471f3d752b7b,5f5a43eed39af50b42356f2c,3,,,,,,telephone,,,,,,0,24,24,15,1,2,2,,,,,,,,,,,,,,,,,,,,,,,,,,,,,,,,,,,,,,,,,,,,,,,,,,,,,,,,,,,,,,,,,,,,,,,,,,,,,,,,,,,,,,,,,,,,,,,,,,,,,,,,,,,,,
,,,,,,,,,,stimuli/images/PICTURE_57.png,CANDY,563f8474cbd4c6000fdc928b,09/11/1948,2020-09-10_16h25.19.011,proactive3.1,2020.1.2,Win32,60,5f599a131af4471f3d752b7b,5f5a43eed39af50b42356f2c,3,,,,,,stamp,,,,,,0,25,25,52,1,6,2,,,,,,,,,,,,,,,,,,,,,,,,,,,,,,,,,,,,,,,,,,,,,,,,,,,,,,,,,,,,,,,,,,,,,,,,,,,,,,,,,,,,,,,,,,,,,,,,,,,,,,,,,,,,,
,,,,,,,,,,stimuli/images/PICTURE_215.png,BOYS,563f8474cbd4c6000fdc928b,09/11/1948,2020-09-10_16h25.19.011,proactive3.1,2020.1.2,Win32,60,5f599a131af4471f3d752b7b,5f5a43eed39af50b42356f2c,3,,,,,,boot,,,,,,0,26,26,24,1,3,2,,,,,,,,,,,,,,,,,,,,,,,,,,,,,,,,,,,,,,,,,,,,,,,,,,,,,,,,,,,,,,,,,,,,,,,,,,,,,,,,,,,,,,,,,,,,,,,,,,,,,,,,,,,,,
,,,,,,,,,,stimuli/images/PICTURE_688.png,CLOCK,563f8474cbd4c6000fdc928b,09/11/1948,2020-09-10_16h25.19.011,proactive3.1,2020.1.2,Win32,60,5f599a131af4471f3d752b7b,5f5a43eed39af50b42356f2c,3,,,,,,runner,,,,,,0,27,27,42,1,5,2,,,,,,,,,,,,,,,,,,,,,,,,,,,,,,,,,,,,,,,,,,,,,,,,,,,,,,,,,,,,,,,,,,,,,,,,,,,,,,,,,,,,,,,,,,,,,,,,,,,,,,,,,,,,,
,,,,,,,,,,stimuli/images/PICTURE_311.png,TOILET,563f8474cbd4c6000fdc928b,09/11/1948,2020-09-10_16h25.19.011,proactive3.1,2020.1.2,Win32,60,5f599a131af4471f3d752b7b,5f5a43eed39af50b42356f2c,3,,,,,,razor,,,,,,0,28,28,54,1,6,2,,,,,,,,,,,,,,,,,,,,,,,,,,,,,,,,,,,,,,,,,,,,,,,,,,,,,,,,,,,,,,,,,,,,,,,,,,,,,,,,,,,,,,,,,,,,,,,,,,,,,,,,,,,,,
,,,,,,,,,,stimuli/images/PICTURE_68.png,KIND,563f8474cbd4c6000fdc928b,09/11/1948,2020-09-10_16h25.19.011,proactive3.1,2020.1.2,Win32,60,5f599a131af4471f3d752b7b,5f5a43eed39af50b42356f2c,3,,,,,,candle,,,,,,0,29,29,23,1,3,2,,,,,,,,,,,,,,,,,,,,,,,,,,,,,,,,,,,,,,,,,,,,,,,,,,,,,,,,,,,,,,,,,,,,,,,,,,,,,,,,,,,,,,,,,,,,,,,,,,,,,,,,,,,,,
,,,,,,,,,,stimuli/images/PICTURE_32.png,LETTER,563f8474cbd4c6000fdc928b,09/11/1948,2020-09-10_16h25.19.011,proactive3.1,2020.1.2,Win32,60,5f599a131af4471f3d752b7b,5f5a43eed39af50b42356f2c,3,,,,,,crown,,,,,,0,30,30,56,1,6,2,,,,,,,,,,,,,,,,,,,,,,,,,,,,,,,,,,,,,,,,,,,,,,,,,,,,,,,,,,,,,,,,,,,,,,,,,,,,,,,,,,,,,,,,,,,,,,,,,,,,,,,,,,,,,
,,,,,,,,,,stimuli/images/PICTURE_677.png,PHOTO,563f8474cbd4c6000fdc928b,09/11/1948,2020-09-10_16h25.19.011,proactive3.1,2020.1.2,Win32,60,5f599a131af4471f3d752b7b,5f5a43eed39af50b42356f2c,3,,,,,,map,,,,,,0,31,31,14,1,2,2,,,,,,,,,,,,,,,,,,,,,,,,,,,,,,,,,,,,,,,,,,,,,,,,,,,,,,,,,,,,,,,,,,,,,,,,,,,,,,,,,,,,,,,,,,,,,,,,,,,,,,,,,,,,,
,,,,,,,,,,stimuli/images/PICTURE_487.png,ROOF,563f8474cbd4c6000fdc928b,09/11/1948,2020-09-10_16h25.19.011,proactive3.1,2020.1.2,Win32,60,5f599a131af4471f3d752b7b,5f5a43eed39af50b42356f2c,3,,,,,,basket,,,,,,0,32,32,50,1,6,2,,,,,,,,,,,,,,,,,,,,,,,,,,,,,,,,,,,,,,,,,,,,,,,,,,,,,,,,,,,,,,,,,,,,,,,,,,,,,,,,,,,,,,,,,,,,,,,,,,,,,,,,,,,,,
,,,,,,,,,,stimuli/images/PICTURE_311.png,FLESH,563f8474cbd4c6000fdc928b,09/11/1948,2020-09-10_16h25.19.011,proactive3.1,2020.1.2,Win32,60,5f599a131af4471f3d752b7b,5f5a43eed39af50b42356f2c,3,,,,,,razor,,,,,,0,33,33,3,1,1,2,,,,,,,,,,,,,,,,,,,,,,,,,,,,,,,,,,,,,,,,,,,,,,,,,,,,,,,,,,,,,,,,,,,,,,,,,,,,,,,,,,,,,,,,,,,,,,,,,,,,,,,,,,,,,
,,,,,,,,,,stimuli/images/PICTURE_708.png,VALLEY,563f8474cbd4c6000fdc928b,09/11/1948,2020-09-10_16h25.19.011,proactive3.1,2020.1.2,Win32,60,5f599a131af4471f3d752b7b,5f5a43eed39af50b42356f2c,3,,,,,,monkey,,,,,,0,34,34,45,1,5,2,,,,,,,,,,,,,,,,,,,,,,,,,,,,,,,,,,,,,,,,,,,,,,,,,,,,,,,,,,,,,,,,,,,,,,,,,,,,,,,,,,,,,,,,,,,,,,,,,,,,,,,,,,,,,
,,,,,,,,,,stimuli/images/PICTURE_160.png,HOTEL,563f8474cbd4c6000fdc928b,09/11/1948,2020-09-10_16h25.19.011,proactive3.1,2020.1.2,Win32,60,5f599a131af4471f3d752b7b,5f5a43eed39af50b42356f2c,3,,,,,,wheelbarrow,,,,,,0,35,35,16,1,2,2,,,,,,,,,,,,,,,,,,,,,,,,,,,,,,,,,,,,,,,,,,,,,,,,,,,,,,,,,,,,,,,,,,,,,,,,,,,,,,,,,,,,,,,,,,,,,,,,,,,,,,,,,,,,,
,,,,,,,,,,stimuli/images/PICTURE_667.png,GLASS,563f8474cbd4c6000fdc928b,09/11/1948,2020-09-10_16h25.19.011,proactive3.1,2020.1.2,Win32,60,5f599a131af4471f3d752b7b,5f5a43eed39af50b42356f2c,3,,,,,,daisy,,,,,,0,36,36,27,1,3,2,,,,,,,,,,,,,,,,,,,,,,,,,,,,,,,,,,,,,,,,,,,,,,,,,,,,,,,,,,,,,,,,,,,,,,,,,,,,,,,,,,,,,,,,,,,,,,,,,,,,,,,,,,,,,
,,,,,,,,,,stimuli/images/PICTURE_405.png,JUNGLE,563f8474cbd4c6000fdc928b,09/11/1948,2020-09-10_16h25.19.011,proactive3.1,2020.1.2,Win32,60,5f599a131af4471f3d752b7b,5f5a43eed39af50b42356f2c,3,,,,,,anchor,,,,,,0,37,37,58,1,6,2,,,,,,,,,,,,,,,,,,,,,,,,,,,,,,,,,,,,,,,,,,,,,,,,,,,,,,,,,,,,,,,,,,,,,,,,,,,,,,,,,,,,,,,,,,,,,,,,,,,,,,,,,,,,,
,,,,,,,,,,stimuli/images/PICTURE_509.png,APPLE,563f8474cbd4c6000fdc928b,09/11/1948,2020-09-10_16h25.19.011,proactive3.1,2020.1.2,Win32,60,5f599a131af4471f3d752b7b,5f5a43eed39af50b42356f2c,3,,,,,,telephone,,,,,,0,38,38,38,1,4,2,,,,,,,,,,,,,,,,,,,,,,,,,,,,,,,,,,,,,,,,,,,,,,,,,,,,,,,,,,,,,,,,,,,,,,,,,,,,,,,,,,,,,,,,,,,,,,,,,,,,,,,,,,,,,
