consent_key.keys,consent_key.rt,recalled,recalled_rt,recall_acc,example_recall.thisRepN,example_recall.thisTrialN,example_recall.thisN,example_recall.thisIndex,example_recall.ran,file,word,participant,please enter your date of birth (dd/mm/yyyy),date,expName,psychopyVersion,OS,frameRate,STUDY_ID,SESSION_ID,list,prac_learn_study_loop.thisRepN,prac_learn_study_loop.thisTrialN,prac_learn_study_loop.thisN,prac_learn_study_loop.thisIndex,prac_learn_study_loop.ran,image,prac_learn_test_loop.thisRepN,prac_learn_test_loop.thisTrialN,prac_learn_test_loop.thisN,prac_learn_test_loop.thisIndex,prac_learn_test_loop.ran,learn_study_loop.thisRepN,learn_study_loop.thisTrialN,learn_study_loop.thisN,learn_study_loop.thisIndex,learn_study_loop.ran,list_no,block_no,learn_test_loop.thisRepN,learn_test_loop.thisTrialN,learn_test_loop.thisN,learn_test_loop.thisIndex,learn_test_loop.ran,learn_blocks.thisRepN,learn_blocks.thisTrialN,learn_blocks.thisN,learn_blocks.thisIndex,learn_blocks.ran,block_csv,key_resp_13.keys,key_resp_13.rt,learn_blocks_loop.thisRepN,learn_blocks_loop.thisTrialN,learn_blocks_loop.thisN,learn_blocks_loop.thisIndex,learn_blocks_loop.ran,final_learn_test.thisRepN,final_learn_test.thisTrialN,final_learn_test.thisN,final_learn_test.thisIndex,final_learn_test.ran,s_im1,s_im2,s_im3,s_im4,s_im5,s_im6,s_im7,s_im8,s_im1pos,s_im2pos,s_im3pos,s_im4pos,s_im5pos,s_im6pos,s_im7pos,s_im8pos,s_tarright,search_resp.keys,search_resp.rt,search_loop.thisRepN,search_loop.thisTrialN,search_loop.thisN,search_loop.thisIndex,search_loop.ran,prac_wm_search_loop.thisRepN,prac_wm_search_loop.thisTrialN,prac_wm_search_loop.thisN,prac_wm_search_loop.thisIndex,prac_wm_search_loop.ran,prac_wm_test_loop.thisRepN,prac_wm_test_loop.thisTrialN,prac_wm_test_loop.thisN,prac_wm_test_loop.thisIndex,prac_wm_test_loop.ran,wm_recalled1,wm_recall_rt1,wm_probed1,wm_recall_acc1,wm_recalled2,wm_recall_rt2,wm_probed2,wm_recall_acc2,wm_recalled3,wm_recall_rt3,wm_probed3,wm_recall_acc3,wm_recalled4,wm_recall_rt4,wm_probed4,wm_recall_acc4,prac_wm_trial_loop.thisRepN,prac_wm_trial_loop.thisTrialN,prac_wm_trial_loop.thisN,prac_wm_trial_loop.thisIndex,prac_wm_trial_loop.ran,word1,image1,file1,item_type1,word2,image2,file2,item_type2,word4,image4,file4,item_type4,word3,image3,file3,item_type3,wm_search_loop.thisRepN,wm_search_loop.thisTrialN,wm_search_loop.thisN,wm_search_loop.thisIndex,wm_search_loop.ran,wm_test_loop.thisRepN,wm_test_loop.thisTrialN,wm_test_loop.thisN,wm_test_loop.thisIndex,wm_test_loop.ran,wm_trial_loop.thisRepN,wm_trial_loop.thisTrialN,wm_trial_loop.thisN,wm_trial_loop.thisIndex,wm_trial_loop.ran
y,8.38696,TOUGH,8.158125,1,0,0,0,0,1,stimuli/images/PICTURE_747.png,TOUGH,577c065c9fecfe0001a5bcc7,12/09/1999,2020-09-02_12h32.33.321,proactive3.1,2020.1.2,Win32,60,5f47c29a48bd2a1e651a6eb7,5f4f8186ee39f7035271a586,3,,,,,,,,,,,,,,,,,,,,,,,,,,,,,,,,,,,,,,,,,,,,,,,,,,,,,,,,,,,,,,,,,,,,,,,,,,,,,,,,,,,,,,,,,,,,,,,,,,,,,,,,,,,,,,,,,,,,,,,,,,,,,,,
,,,,,,,,,,stimuli/images/PICTURE_697.png,KILLER,577c065c9fecfe0001a5bcc7,12/09/1999,2020-09-02_12h32.33.321,proactive3.1,2020.1.2,Win32,60,5f47c29a48bd2a1e651a6eb7,5f4f8186ee39f7035271a586,3,0,0,0,4,1,peach,,,,,,,,,,,,,,,,,,,,,,,,,,,,,,,,,,,,,,,,,,,,,,,,,,,,,,,,,,,,,,,,,,,,,,,,,,,,,,,,,,,,,,,,,,,,,,,,,,,,,,,,,,,,,,,,,,,,,,,,,
,,,,,,,,,,stimuli/images/PICTURE_727.png,CELL,577c065c9fecfe0001a5bcc7,12/09/1999,2020-09-02_12h32.33.321,proactive3.1,2020.1.2,Win32,60,5f47c29a48bd2a1e651a6eb7,5f4f8186ee39f7035271a586,3,0,1,1,1,1,hose,,,,,,,,,,,,,,,,,,,,,,,,,,,,,,,,,,,,,,,,,,,,,,,,,,,,,,,,,,,,,,,,,,,,,,,,,,,,,,,,,,,,,,,,,,,,,,,,,,,,,,,,,,,,,,,,,,,,,,,,,
,,,,,,,,,,stimuli/images/PICTURE_378.png,LOSS,577c065c9fecfe0001a5bcc7,12/09/1999,2020-09-02_12h32.33.321,proactive3.1,2020.1.2,Win32,60,5f47c29a48bd2a1e651a6eb7,5f4f8186ee39f7035271a586,3,0,2,2,2,1,lobster,,,,,,,,,,,,,,,,,,,,,,,,,,,,,,,,,,,,,,,,,,,,,,,,,,,,,,,,,,,,,,,,,,,,,,,,,,,,,,,,,,,,,,,,,,,,,,,,,,,,,,,,,,,,,,,,,,,,,,,,,
,,,,,,,,,,stimuli/images/PICTURE_658.png,DEVIL,577c065c9fecfe0001a5bcc7,12/09/1999,2020-09-02_12h32.33.321,proactive3.1,2020.1.2,Win32,60,5f47c29a48bd2a1e651a6eb7,5f4f8186ee39f7035271a586,3,0,3,3,3,1,crow,,,,,,,,,,,,,,,,,,,,,,,,,,,,,,,,,,,,,,,,,,,,,,,,,,,,,,,,,,,,,,,,,,,,,,,,,,,,,,,,,,,,,,,,,,,,,,,,,,,,,,,,,,,,,,,,,,,,,,,,,
,,DEVIL,11.3126,0,,,,,,stimuli/images/PICTURE_378.png,LOSS,577c065c9fecfe0001a5bcc7,12/09/1999,2020-09-02_12h32.33.321,proactive3.1,2020.1.2,Win32,60,5f47c29a48bd2a1e651a6eb7,5f4f8186ee39f7035271a586,3,,,,,,lobster,0,0,0,2,1,,,,,,,,,,,,,,,,,,,,,,,,,,,,,,,,,,,,,,,,,,,,,,,,,,,,,,,,,,,,,,,,,,,,,,,,,,,,,,,,,,,,,,,,,,,,,,,,,,,,,,,,,,,,,,,,,,,,
,,DEVIL,9.096225,0,,,,,,stimuli/images/PICTURE_269.png,GENIUS,577c065c9fecfe0001a5bcc7,12/09/1999,2020-09-02_12h32.33.321,proactive3.1,2020.1.2,Win32,60,5f47c29a48bd2a1e651a6eb7,5f4f8186ee39f7035271a586,3,,,,,,chameleon,0,1,1,0,1,,,,,,,,,,,,,,,,,,,,,,,,,,,,,,,,,,,,,,,,,,,,,,,,,,,,,,,,,,,,,,,,,,,,,,,,,,,,,,,,,,,,,,,,,,,,,,,,,,,,,,,,,,,,,,,,,,,,
,,CELL,3.76203,1,,,,,,stimuli/images/PICTURE_727.png,CELL,577c065c9fecfe0001a5bcc7,12/09/1999,2020-09-02_12h32.33.321,proactive3.1,2020.1.2,Win32,60,5f47c29a48bd2a1e651a6eb7,5f4f8186ee39f7035271a586,3,,,,,,hose,0,2,2,1,1,,,,,,,,,,,,,,,,,,,,,,,,,,,,,,,,,,,,,,,,,,,,,,,,,,,,,,,,,,,,,,,,,,,,,,,,,,,,,,,,,,,,,,,,,,,,,,,,,,,,,,,,,,,,,,,,,,,,
,,KILLER,5.779645,1,,,,,,stimuli/images/PICTURE_697.png,KILLER,577c065c9fecfe0001a5bcc7,12/09/1999,2020-09-02_12h32.33.321,proactive3.1,2020.1.2,Win32,60,5f47c29a48bd2a1e651a6eb7,5f4f8186ee39f7035271a586,3,,,,,,peach,0,3,3,4,1,,,,,,,,,,,,,,,,,,,,,,,,,,,,,,,,,,,,,,,,,,,,,,,,,,,,,,,,,,,,,,,,,,,,,,,,,,,,,,,,,,,,,,,,,,,,,,,,,,,,,,,,,,,,,,,,,,,,
,,DEVIL,11.39824,1,,,,,,stimuli/images/PICTURE_658.png,DEVIL,577c065c9fecfe0001a5bcc7,12/09/1999,2020-09-02_12h32.33.321,proactive3.1,2020.1.2,Win32,60,5f47c29a48bd2a1e651a6eb7,5f4f8186ee39f7035271a586,3,,,,,,crow,0,4,4,3,1,,,,,,,,,,,,,,,,,,,,,,,,,,,,,,,,,,,,,,,,,,,,,,,,,,,,,,,,,,,,,,,,,,,,,,,,,,,,,,,,,,,,,,,,,,,,,,,,,,,,,,,,,,,,,,,,,,,,
,,,,,,,,,,stimuli/images/PICTURE_215.png,BOYS,577c065c9fecfe0001a5bcc7,12/09/1999,2020-09-02_12h32.33.321,proactive3.1,2020.1.2,Win32,60,5f47c29a48bd2a1e651a6eb7,5f4f8186ee39f7035271a586,3,,,,,,boot,,,,,,0,0,0,24,1,3,2,,,,,,,,,,,,,,,,,,,,,,,,,,,,,,,,,,,,,,,,,,,,,,,,,,,,,,,,,,,,,,,,,,,,,,,,,,,,,,,,,,,,,,,,,,,,,,,,,,,,,,,,,,,,,
,,,,,,,,,,stimuli/images/PICTURE_509.png,MILLER,577c065c9fecfe0001a5bcc7,12/09/1999,2020-09-02_12h32.33.321,proactive3.1,2020.1.2,Win32,60,5f47c29a48bd2a1e651a6eb7,5f4f8186ee39f7035271a586,3,,,,,,telephone,,,,,,0,1,1,49,1,5,2,,,,,,,,,,,,,,,,,,,,,,,,,,,,,,,,,,,,,,,,,,,,,,,,,,,,,,,,,,,,,,,,,,,,,,,,,,,,,,,,,,,,,,,,,,,,,,,,,,,,,,,,,,,,,
,,,,,,,,,,stimuli/images/PICTURE_654.png,YEAR,577c065c9fecfe0001a5bcc7,12/09/1999,2020-09-02_12h32.33.321,proactive3.1,2020.1.2,Win32,60,5f47c29a48bd2a1e651a6eb7,5f4f8186ee39f7035271a586,3,,,,,,pencil,,,,,,0,2,2,41,1,5,2,,,,,,,,,,,,,,,,,,,,,,,,,,,,,,,,,,,,,,,,,,,,,,,,,,,,,,,,,,,,,,,,,,,,,,,,,,,,,,,,,,,,,,,,,,,,,,,,,,,,,,,,,,,,,
,,,,,,,,,,stimuli/images/PICTURE_348.png,DUDE,577c065c9fecfe0001a5bcc7,12/09/1999,2020-09-02_12h32.33.321,proactive3.1,2020.1.2,Win32,60,5f47c29a48bd2a1e651a6eb7,5f4f8186ee39f7035271a586,3,,,,,,pepper,,,,,,0,3,3,59,1,6,2,,,,,,,,,,,,,,,,,,,,,,,,,,,,,,,,,,,,,,,,,,,,,,,,,,,,,,,,,,,,,,,,,,,,,,,,,,,,,,,,,,,,,,,,,,,,,,,,,,,,,,,,,,,,,
,,,,,,,,,,stimuli/images/PICTURE_95.png,NIGHT,577c065c9fecfe0001a5bcc7,12/09/1999,2020-09-02_12h32.33.321,proactive3.1,2020.1.2,Win32,60,5f47c29a48bd2a1e651a6eb7,5f4f8186ee39f7035271a586,3,,,,,,suitcase,,,,,,0,4,4,37,1,4,2,,,,,,,,,,,,,,,,,,,,,,,,,,,,,,,,,,,,,,,,,,,,,,,,,,,,,,,,,,,,,,,,,,,,,,,,,,,,,,,,,,,,,,,,,,,,,,,,,,,,,,,,,,,,,
,,,,,,,,,,stimuli/images/PICTURE_311.png,TOILET,577c065c9fecfe0001a5bcc7,12/09/1999,2020-09-02_12h32.33.321,proactive3.1,2020.1.2,Win32,60,5f47c29a48bd2a1e651a6eb7,5f4f8186ee39f7035271a586,3,,,,,,razor,,,,,,0,5,5,54,1,6,2,,,,,,,,,,,,,,,,,,,,,,,,,,,,,,,,,,,,,,,,,,,,,,,,,,,,,,,,,,,,,,,,,,,,,,,,,,,,,,,,,,,,,,,,,,,,,,,,,,,,,,,,,,,,,
,,,,,,,,,,stimuli/images/PICTURE_453.png,FAMILY,577c065c9fecfe0001a5bcc7,12/09/1999,2020-09-02_12h32.33.321,proactive3.1,2020.1.2,Win32,60,5f47c29a48bd2a1e651a6eb7,5f4f8186ee39f7035271a586,3,,,,,,scissors,,,,,,0,6,6,48,1,5,2,,,,,,,,,,,,,,,,,,,,,,,,,,,,,,,,,,,,,,,,,,,,,,,,,,,,,,,,,,,,,,,,,,,,,,,,,,,,,,,,,,,,,,,,,,,,,,,,,,,,,,,,,,,,,
,,,,,,,,,,stimuli/images/PICTURE_285.png,PRINCE,577c065c9fecfe0001a5bcc7,12/09/1999,2020-09-02_12h32.33.321,proactive3.1,2020.1.2,Win32,60,5f47c29a48bd2a1e651a6eb7,5f4f8186ee39f7035271a586,3,,,,,,carrot,,,,,,0,7,7,20,1,3,2,,,,,,,,,,,,,,,,,,,,,,,,,,,,,,,,,,,,,,,,,,,,,,,,,,,,,,,,,,,,,,,,,,,,,,,,,,,,,,,,,,,,,,,,,,,,,,,,,,,,,,,,,,,,,
,,,,,,,,,,stimuli/images/PICTURE_509.png,SHOTS,577c065c9fecfe0001a5bcc7,12/09/1999,2020-09-02_12h32.33.321,proactive3.1,2020.1.2,Win32,60,5f47c29a48bd2a1e651a6eb7,5f4f8186ee39f7035271a586,3,,,,,,telephone,,,,,,0,8,8,7,1,1,2,,,,,,,,,,,,,,,,,,,,,,,,,,,,,,,,,,,,,,,,,,,,,,,,,,,,,,,,,,,,,,,,,,,,,,,,,,,,,,,,,,,,,,,,,,,,,,,,,,,,,,,,,,,,,
,,,,,,,,,,stimuli/images/PICTURE_564.png,PLENTY,577c065c9fecfe0001a5bcc7,12/09/1999,2020-09-02_12h32.33.321,proactive3.1,2020.1.2,Win32,60,5f47c29a48bd2a1e651a6eb7,5f4f8186ee39f7035271a586,3,,,,,,spoon,,,,,,0,9,9,11,1,2,2,,,,,,,,,,,,,,,,,,,,,,,,,,,,,,,,,,,,,,,,,,,,,,,,,,,,,,,,,,,,,,,,,,,,,,,,,,,,,,,,,,,,,,,,,,,,,,,,,,,,,,,,,,,,,
,,,,,,,,,,stimuli/images/PICTURE_147.png,LEADER,577c065c9fecfe0001a5bcc7,12/09/1999,2020-09-02_12h32.33.321,proactive3.1,2020.1.2,Win32,60,5f47c29a48bd2a1e651a6eb7,5f4f8186ee39f7035271a586,3,,,,,,hanger,,,,,,0,10,10,33,1,4,2,,,,,,,,,,,,,,,,,,,,,,,,,,,,,,,,,,,,,,,,,,,,,,,,,,,,,,,,,,,,,,,,,,,,,,,,,,,,,,,,,,,,,,,,,,,,,,,,,,,,,,,,,,,,,
,,,,,,,,,,stimuli/images/PICTURE_403.png,FAMILY,577c065c9fecfe0001a5bcc7,12/09/1999,2020-09-02_12h32.33.321,proactive3.1,2020.1.2,Win32,60,5f47c29a48bd2a1e651a6eb7,5f4f8186ee39f7035271a586,3,,,,,,cathedral,,,,,,0,11,11,9,1,1,2,,,,,,,,,,,,,,,,,,,,,,,,,,,,,,,,,,,,,,,,,,,,,,,,,,,,,,,,,,,,,,,,,,,,,,,,,,,,,,,,,,,,,,,,,,,,,,,,,,,,,,,,,,,,,
,,,,,,,,,,stimuli/images/PICTURE_68.png,KIND,577c065c9fecfe0001a5bcc7,12/09/1999,2020-09-02_12h32.33.321,proactive3.1,2020.1.2,Win32,60,5f47c29a48bd2a1e651a6eb7,5f4f8186ee39f7035271a586,3,,,,,,candle,,,,,,0,12,12,23,1,3,2,,,,,,,,,,,,,,,,,,,,,,,,,,,,,,,,,,,,,,,,,,,,,,,,,,,,,,,,,,,,,,,,,,,,,,,,,,,,,,,,,,,,,,,,,,,,,,,,,,,,,,,,,,,,,
,,,,,,,,,,stimuli/images/PICTURE_688.png,CLOCK,577c065c9fecfe0001a5bcc7,12/09/1999,2020-09-02_12h32.33.321,proactive3.1,2020.1.2,Win32,60,5f47c29a48bd2a1e651a6eb7,5f4f8186ee39f7035271a586,3,,,,,,runner,,,,,,0,13,13,42,1,5,2,,,,,,,,,,,,,,,,,,,,,,,,,,,,,,,,,,,,,,,,,,,,,,,,,,,,,,,,,,,,,,,,,,,,,,,,,,,,,,,,,,,,,,,,,,,,,,,,,,,,,,,,,,,,,
,,,,,,,,,,stimuli/images/PICTURE_667.png,GLASS,577c065c9fecfe0001a5bcc7,12/09/1999,2020-09-02_12h32.33.321,proactive3.1,2020.1.2,Win32,60,5f47c29a48bd2a1e651a6eb7,5f4f8186ee39f7035271a586,3,,,,,,daisy,,,,,,0,14,14,27,1,3,2,,,,,,,,,,,,,,,,,,,,,,,,,,,,,,,,,,,,,,,,,,,,,,,,,,,,,,,,,,,,,,,,,,,,,,,,,,,,,,,,,,,,,,,,,,,,,,,,,,,,,,,,,,,,,
,,,,,,,,,,stimuli/images/PICTURE_356.png,CANDY,577c065c9fecfe0001a5bcc7,12/09/1999,2020-09-02_12h32.33.321,proactive3.1,2020.1.2,Win32,60,5f47c29a48bd2a1e651a6eb7,5f4f8186ee39f7035271a586,3,,,,,,pawn,,,,,,0,15,15,46,1,5,2,,,,,,,,,,,,,,,,,,,,,,,,,,,,,,,,,,,,,,,,,,,,,,,,,,,,,,,,,,,,,,,,,,,,,,,,,,,,,,,,,,,,,,,,,,,,,,,,,,,,,,,,,,,,,
,,,,,,,,,,stimuli/images/PICTURE_692.png,DUDE,577c065c9fecfe0001a5bcc7,12/09/1999,2020-09-02_12h32.33.321,proactive3.1,2020.1.2,Win32,60,5f47c29a48bd2a1e651a6eb7,5f4f8186ee39f7035271a586,3,,,,,,cherry,,,,,,0,16,16,47,1,5,2,,,,,,,,,,,,,,,,,,,,,,,,,,,,,,,,,,,,,,,,,,,,,,,,,,,,,,,,,,,,,,,,,,,,,,,,,,,,,,,,,,,,,,,,,,,,,,,,,,,,,,,,,,,,,
,,,,,,,,,,stimuli/images/PICTURE_677.png,FAMILY,577c065c9fecfe0001a5bcc7,12/09/1999,2020-09-02_12h32.33.321,proactive3.1,2020.1.2,Win32,60,5f47c29a48bd2a1e651a6eb7,5f4f8186ee39f7035271a586,3,,,,,,map,,,,,,0,17,17,53,1,6,2,,,,,,,,,,,,,,,,,,,,,,,,,,,,,,,,,,,,,,,,,,,,,,,,,,,,,,,,,,,,,,,,,,,,,,,,,,,,,,,,,,,,,,,,,,,,,,,,,,,,,,,,,,,,,
,,,,,,,,,,stimuli/images/PICTURE_215.png,LEADER,577c065c9fecfe0001a5bcc7,12/09/1999,2020-09-02_12h32.33.321,proactive3.1,2020.1.2,Win32,60,5f47c29a48bd2a1e651a6eb7,5f4f8186ee39f7035271a586,3,,,,,,boot,,,,,,0,18,18,43,1,5,2,,,,,,,,,,,,,,,,,,,,,,,,,,,,,,,,,,,,,,,,,,,,,,,,,,,,,,,,,,,,,,,,,,,,,,,,,,,,,,,,,,,,,,,,,,,,,,,,,,,,,,,,,,,,,
,,,,,,,,,,stimuli/images/PICTURE_491.png,SERIES,577c065c9fecfe0001a5bcc7,12/09/1999,2020-09-02_12h32.33.321,proactive3.1,2020.1.2,Win32,60,5f47c29a48bd2a1e651a6eb7,5f4f8186ee39f7035271a586,3,,,,,,rug,,,,,,0,19,19,39,1,4,2,,,,,,,,,,,,,,,,,,,,,,,,,,,,,,,,,,,,,,,,,,,,,,,,,,,,,,,,,,,,,,,,,,,,,,,,,,,,,,,,,,,,,,,,,,,,,,,,,,,,,,,,,,,,,
,,,,,,,,,,stimuli/images/PICTURE_504.png,HOUSE,577c065c9fecfe0001a5bcc7,12/09/1999,2020-09-02_12h32.33.321,proactive3.1,2020.1.2,Win32,60,5f47c29a48bd2a1e651a6eb7,5f4f8186ee39f7035271a586,3,,,,,,wheel,,,,,,0,20,20,36,1,4,2,,,,,,,,,,,,,,,,,,,,,,,,,,,,,,,,,,,,,,,,,,,,,,,,,,,,,,,,,,,,,,,,,,,,,,,,,,,,,,,,,,,,,,,,,,,,,,,,,,,,,,,,,,,,,
,,,,,,,,,,stimuli/images/PICTURE_285.png,WRITER,577c065c9fecfe0001a5bcc7,12/09/1999,2020-09-02_12h32.33.321,proactive3.1,2020.1.2,Win32,60,5f47c29a48bd2a1e651a6eb7,5f4f8186ee39f7035271a586,3,,,,,,carrot,,,,,,0,21,21,6,1,1,2,,,,,,,,,,,,,,,,,,,,,,,,,,,,,,,,,,,,,,,,,,,,,,,,,,,,,,,,,,,,,,,,,,,,,,,,,,,,,,,,,,,,,,,,,,,,,,,,,,,,,,,,,,,,,
,,,,,,,,,,stimuli/images/PICTURE_18.png,RIVER,577c065c9fecfe0001a5bcc7,12/09/1999,2020-09-02_12h32.33.321,proactive3.1,2020.1.2,Win32,60,5f47c29a48bd2a1e651a6eb7,5f4f8186ee39f7035271a586,3,,,,,,planet,,,,,,0,22,22,22,1,3,2,,,,,,,,,,,,,,,,,,,,,,,,,,,,,,,,,,,,,,,,,,,,,,,,,,,,,,,,,,,,,,,,,,,,,,,,,,,,,,,,,,,,,,,,,,,,,,,,,,,,,,,,,,,,,
,,,,,,,,,,stimuli/images/PICTURE_123.png,SALE,577c065c9fecfe0001a5bcc7,12/09/1999,2020-09-02_12h32.33.321,proactive3.1,2020.1.2,Win32,60,5f47c29a48bd2a1e651a6eb7,5f4f8186ee39f7035271a586,3,,,,,,dart,,,,,,0,23,23,8,1,1,2,,,,,,,,,,,,,,,,,,,,,,,,,,,,,,,,,,,,,,,,,,,,,,,,,,,,,,,,,,,,,,,,,,,,,,,,,,,,,,,,,,,,,,,,,,,,,,,,,,,,,,,,,,,,,
,,,,,,,,,,stimuli/images/PICTURE_215.png,FOOD,577c065c9fecfe0001a5bcc7,12/09/1999,2020-09-02_12h32.33.321,proactive3.1,2020.1.2,Win32,60,5f47c29a48bd2a1e651a6eb7,5f4f8186ee39f7035271a586,3,,,,,,boot,,,,,,0,24,24,5,1,1,2,,,,,,,,,,,,,,,,,,,,,,,,,,,,,,,,,,,,,,,,,,,,,,,,,,,,,,,,,,,,,,,,,,,,,,,,,,,,,,,,,,,,,,,,,,,,,,,,,,,,,,,,,,,,,
,,,,,,,,,,stimuli/images/PICTURE_255.png,PENNY,577c065c9fecfe0001a5bcc7,12/09/1999,2020-09-02_12h32.33.321,proactive3.1,2020.1.2,Win32,60,5f47c29a48bd2a1e651a6eb7,5f4f8186ee39f7035271a586,3,,,,,,shovel,,,,,,0,25,25,19,1,2,2,,,,,,,,,,,,,,,,,,,,,,,,,,,,,,,,,,,,,,,,,,,,,,,,,,,,,,,,,,,,,,,,,,,,,,,,,,,,,,,,,,,,,,,,,,,,,,,,,,,,,,,,,,,,,
,,,,,,,,,,stimuli/images/PICTURE_655.png,SALE,577c065c9fecfe0001a5bcc7,12/09/1999,2020-09-02_12h32.33.321,proactive3.1,2020.1.2,Win32,60,5f47c29a48bd2a1e651a6eb7,5f4f8186ee39f7035271a586,3,,,,,,megaphone,,,,,,0,26,26,57,1,6,2,,,,,,,,,,,,,,,,,,,,,,,,,,,,,,,,,,,,,,,,,,,,,,,,,,,,,,,,,,,,,,,,,,,,,,,,,,,,,,,,,,,,,,,,,,,,,,,,,,,,,,,,,,,,,
,,,,,,,,,,stimuli/images/PICTURE_57.png,NATION,577c065c9fecfe0001a5bcc7,12/09/1999,2020-09-02_12h32.33.321,proactive3.1,2020.1.2,Win32,60,5f47c29a48bd2a1e651a6eb7,5f4f8186ee39f7035271a586,3,,,,,,stamp,,,,,,0,27,27,21,1,3,2,,,,,,,,,,,,,,,,,,,,,,,,,,,,,,,,,,,,,,,,,,,,,,,,,,,,,,,,,,,,,,,,,,,,,,,,,,,,,,,,,,,,,,,,,,,,,,,,,,,,,,,,,,,,,
,,,,,,,,,,stimuli/images/PICTURE_93.png,GIRL,577c065c9fecfe0001a5bcc7,12/09/1999,2020-09-02_12h32.33.321,proactive3.1,2020.1.2,Win32,60,5f47c29a48bd2a1e651a6eb7,5f4f8186ee39f7035271a586,3,,,,,,skateboard,,,,,,0,28,28,31,1,4,2,,,,,,,,,,,,,,,,,,,,,,,,,,,,,,,,,,,,,,,,,,,,,,,,,,,,,,,,,,,,,,,,,,,,,,,,,,,,,,,,,,,,,,,,,,,,,,,,,,,,,,,,,,,,,
,,,,,,,,,,stimuli/images/PICTURE_32.png,LETTER,577c065c9fecfe0001a5bcc7,12/09/1999,2020-09-02_12h32.33.321,proactive3.1,2020.1.2,Win32,60,5f47c29a48bd2a1e651a6eb7,5f4f8186ee39f7035271a586,3,,,,,,crown,,,,,,0,29,29,56,1,6,2,,,,,,,,,,,,,,,,,,,,,,,,,,,,,,,,,,,,,,,,,,,,,,,,,,,,,,,,,,,,,,,,,,,,,,,,,,,,,,,,,,,,,,,,,,,,,,,,,,,,,,,,,,,,,
,,,,,,,,,,stimuli/images/PICTURE_487.png,POLICY,577c065c9fecfe0001a5bcc7,12/09/1999,2020-09-02_12h32.33.321,proactive3.1,2020.1.2,Win32,60,5f47c29a48bd2a1e651a6eb7,5f4f8186ee39f7035271a586,3,,,,,,basket,,,,,,0,30,30,34,1,4,2,,,,,,,,,,,,,,,,,,,,,,,,,,,,,,,,,,,,,,,,,,,,,,,,,,,,,,,,,,,,,,,,,,,,,,,,,,,,,,,,,,,,,,,,,,,,,,,,,,,,,,,,,,,,,
,,,,,,,,,,stimuli/images/PICTURE_297.png,BODY,577c065c9fecfe0001a5bcc7,12/09/1999,2020-09-02_12h32.33.321,proactive3.1,2020.1.2,Win32,60,5f47c29a48bd2a1e651a6eb7,5f4f8186ee39f7035271a586,3,,,,,,aeroplane,,,,,,0,31,31,51,1,6,2,,,,,,,,,,,,,,,,,,,,,,,,,,,,,,,,,,,,,,,,,,,,,,,,,,,,,,,,,,,,,,,,,,,,,,,,,,,,,,,,,,,,,,,,,,,,,,,,,,,,,,,,,,,,,
,,,,,,,,,,stimuli/images/PICTURE_405.png,HOUSE,577c065c9fecfe0001a5bcc7,12/09/1999,2020-09-02_12h32.33.321,proactive3.1,2020.1.2,Win32,60,5f47c29a48bd2a1e651a6eb7,5f4f8186ee39f7035271a586,3,,,,,,anchor,,,,,,0,32,32,2,1,1,2,,,,,,,,,,,,,,,,,,,,,,,,,,,,,,,,,,,,,,,,,,,,,,,,,,,,,,,,,,,,,,,,,,,,,,,,,,,,,,,,,,,,,,,,,,,,,,,,,,,,,,,,,,,,,
,,,,,,,,,,stimuli/images/PICTURE_708.png,VALLEY,577c065c9fecfe0001a5bcc7,12/09/1999,2020-09-02_12h32.33.321,proactive3.1,2020.1.2,Win32,60,5f47c29a48bd2a1e651a6eb7,5f4f8186ee39f7035271a586,3,,,,,,monkey,,,,,,0,33,33,45,1,5,2,,,,,,,,,,,,,,,,,,,,,,,,,,,,,,,,,,,,,,,,,,,,,,,,,,,,,,,,,,,,,,,,,,,,,,,,,,,,,,,,,,,,,,,,,,,,,,,,,,,,,,,,,,,,,
,,,,,,,,,,stimuli/images/PICTURE_470.png,BEAUTY,577c065c9fecfe0001a5bcc7,12/09/1999,2020-09-02_12h32.33.321,proactive3.1,2020.1.2,Win32,60,5f47c29a48bd2a1e651a6eb7,5f4f8186ee39f7035271a586,3,,,,,,motorbike,,,,,,0,34,34,26,1,3,2,,,,,,,,,,,,,,,,,,,,,,,,,,,,,,,,,,,,,,,,,,,,,,,,,,,,,,,,,,,,,,,,,,,,,,,,,,,,,,,,,,,,,,,,,,,,,,,,,,,,,,,,,,,,,
,,,,,,,,,,stimuli/images/PICTURE_509.png,APPLE,577c065c9fecfe0001a5bcc7,12/09/1999,2020-09-02_12h32.33.321,proactive3.1,2020.1.2,Win32,60,5f47c29a48bd2a1e651a6eb7,5f4f8186ee39f7035271a586,3,,,,,,telephone,,,,,,0,35,35,38,1,4,2,,,,,,,,,,,,,,,,,,,,,,,,,,,,,,,,,,,,,,,,,,,,,,,,,,,,,,,,,,,,,,,,,,,,,,,,,,,,,,,,,,,,,,,,,,,,,,,,,,,,,,,,,,,,,
,,,,,,,,,,stimuli/images/PICTURE_405.png,JUNGLE,577c065c9fecfe0001a5bcc7,12/09/1999,2020-09-02_12h32.33.321,proactive3.1,2020.1.2,Win32,60,5f47c29a48bd2a1e651a6eb7,5f4f8186ee39f7035271a586,3,,,,,,anchor,,,,,,0,36,36,58,1,6,2,,,,,,,,,,,,,,,,,,,,,,,,,,,,,,,,,,,,,,,,,,,,,,,,,,,,,,,,,,,,,,,,,,,,,,,,,,,,,,,,,,,,,,,,,,,,,,,,,,,,,,,,,,,,,
,,,,,,,,,,stimuli/images/PICTURE_160.png,HOTEL,577c065c9fecfe0001a5bcc7,12/09/1999,2020-09-02_12h32.33.321,proactive3.1,2020.1.2,Win32,60,5f47c29a48bd2a1e651a6eb7,5f4f8186ee39f7035271a586,3,,,,,,wheelbarrow,,,,,,0,37,37,16,1,2,2,,,,,,,,,,,,,,,,,,,,,,,,,,,,,,,,,,,,,,,,,,,,,,,,,,,,,,,,,,,,,,,,,,,,,,,,,,,,,,,,,,,,,,,,,,,,,,,,,,,,,,,,,,,,,
,,,,,,,,,,stimuli/images/PICTURE_470.png,MOMENT,577c065c9fecfe0001a5bcc7,12/09/1999,2020-09-02_12h32.33.321,proactive3.1,2020.1.2,Win32,60,5f47c29a48bd2a1e651a6eb7,5f4f8186ee39f7035271a586,3,,,,,,motorbike,,,,,,0,38,38,40,1,5,2,,,,,,,,,,,,,,,,,,,,,,,,,,,,,,,,,,,,,,,,,,,,,,,,,,,,,,,,,,,,,,,,,,,,,,,,,,,,,,,,,,,,,,,,,,,,,,,,,,,,,,,,,,,,,
,,,,,,,,,,stimuli/images/PICTURE_2.png,JUNGLE,577c065c9fecfe0001a5bcc7,12/09/1999,2020-09-02_12h32.33.321,proactive3.1,2020.1.2,Win32,60,5f47c29a48bd2a1e651a6eb7,5f4f8186ee39f7035271a586,3,,,,,,tyre,,,,,,0,39,39,1,1,1,2,,,,,,,,,,,,,,,,,,,,,,,,,,,,,,,,,,,,,,,,,,,,,,,,,,,,,,,,,,,,,,,,,,,,,,,,,,,,,,,,,,,,,,,,,,,,,,,,,,,,,,,,,,,,,
,,,,,,,,,,stimuli/images/PICTURE_314.png,SPEECH,577c065c9fecfe0001a5bcc7,12/09/1999,2020-09-02_12h32.33.321,proactive3.1,2020.1.2,Win32,60,5f47c29a48bd2a1e651a6eb7,5f4f8186ee39f7035271a586,3,,,,,,perfume,,,,,,0,40,40,35,1,4,2,,,,,,,,,,,,,,,,,,,,,,,,,,,,,,,,,,,,,,,,,,,,,,,,,,,,,,,,,,,,,,,,,,,,,,,,,,,,,,,,,,,,,,,,,,,,,,,,,,,,,,,,,,,,,
,,,,,,,,,,stimuli/images/PICTURE_487.png,ROOF,577c065c9fecfe0001a5bcc7,12/09/1999,2020-09-02_12h32.33.321,proactive3.1,2020.1.2,Win32,60,5f47c29a48bd2a1e651a6eb7,5f4f8186ee39f7035271a586,3,,,,,,basket,,,,,,0,41,41,50,1,6,2,,,,,,,,,,,,,,,,,,,,,,,,,,,,,,,,,,,,,,,,,,,,,,,,,,,,,,,,,,,,,,,,,,,,,,,,,,,,,,,,,,,,,,,,,,,,,,,,,,,,,,,,,,,,,
,,,,,,,,,,stimuli/images/PICTURE_509.png,BATH,577c065c9fecfe0001a5bcc7,12/09/1999,2020-09-02_12h32.33.321,proactive3.1,2020.1.2,Win32,60,5f47c29a48bd2a1e651a6eb7,5f4f8186ee39f7035271a586,3,,,,,,telephone,,,,,,0,42,42,15,1,2,2,,,,,,,,,,,,,,,,,,,,,,,,,,,,,,,,,,,,,,,,,,,,,,,,,,,,,,,,,,,,,,,,,,,,,,,,,,,,,,,,,,,,,,,,,,,,,,,,,,,,,,,,,,,,,
,,,,,,,,,,stimuli/images/PICTURE_296.png,CLOCK,577c065c9fecfe0001a5bcc7,12/09/1999,2020-09-02_12h32.33.321,proactive3.1,2020.1.2,Win32,60,5f47c29a48bd2a1e651a6eb7,5f4f8186ee39f7035271a586,3,,,,,,bolt,,,,,,0,43,43,18,1,2,2,,,,,,,,,,,,,,,,,,,,,,,,,,,,,,,,,,,,,,,,,,,,,,,,,,,,,,,,,,,,,,,,,,,,,,,,,,,,,,,,,,,,,,,,,,,,,,,,,,,,,,,,,,,,,
,,,,,,,,,,stimuli/images/PICTURE_57.png,CASINO,577c065c9fecfe0001a5bcc7,12/09/1999,2020-09-02_12h32.33.321,proactive3.1,2020.1.2,Win32,60,5f47c29a48bd2a1e651a6eb7,5f4f8186ee39f7035271a586,3,,,,,,stamp,,,,,,0,44,44,12,1,2,2,,,,,,,,,,,,,,,,,,,,,,,,,,,,,,,,,,,,,,,,,,,,,,,,,,,,,,,,,,,,,,,,,,,,,,,,,,,,,,,,,,,,,,,,,,,,,,,,,,,,,,,,,,,,,
,,,,,,,,,,stimuli/images/PICTURE_348.png,TOILET,577c065c9fecfe0001a5bcc7,12/09/1999,2020-09-02_12h32.33.321,proactive3.1,2020.1.2,Win32,60,5f47c29a48bd2a1e651a6eb7,5f4f8186ee39f7035271a586,3,,,,,,pepper,,,,,,0,45,45,4,1,1,2,,,,,,,,,,,,,,,,,,,,,,,,,,,,,,,,,,,,,,,,,,,,,,,,,,,,,,,,,,,,,,,,,,,,,,,,,,,,,,,,,,,,,,,,,,,,,,,,,,,,,,,,,,,,,
,,,,,,,,,,stimuli/images/PICTURE_2.png,YARD,577c065c9fecfe0001a5bcc7,12/09/1999,2020-09-02_12h32.33.321,proactive3.1,2020.1.2,Win32,60,5f47c29a48bd2a1e651a6eb7,5f4f8186ee39f7035271a586,3,,,,,,tyre,,,,,,0,46,46,55,1,6,2,,,,,,,,,,,,,,,,,,,,,,,,,,,,,,,,,,,,,,,,,,,,,,,,,,,,,,,,,,,,,,,,,,,,,,,,,,,,,,,,,,,,,,,,,,,,,,,,,,,,,,,,,,,,,
,,,,,,,,,,stimuli/images/PICTURE_311.png,FLESH,577c065c9fecfe0001a5bcc7,12/09/1999,2020-09-02_12h32.33.321,proactive3.1,2020.1.2,Win32,60,5f47c29a48bd2a1e651a6eb7,5f4f8186ee39f7035271a586,3,,,,,,razor,,,,,,0,47,47,3,1,1,2,,,,,,,,,,,,,,,,,,,,,,,,,,,,,,,,,,,,,,,,,,,,,,,,,,,,,,,,,,,,,,,,,,,,,,,,,,,,,,,,,,,,,,,,,,,,,,,,,,,,,,,,,,,,,
,,,,,,,,,,stimuli/images/PICTURE_405.png,JUNGLE,577c065c9fecfe0001a5bcc7,12/09/1999,2020-09-02_12h32.33.321,proactive3.1,2020.1.2,Win32,60,5f47c29a48bd2a1e651a6eb7,5f4f8186ee39f7035271a586,3,,,,,,anchor,,,,,,0,48,48,13,1,2,2,,,,,,,,,,,,,,,,,,,,,,,,,,,,,,,,,,,,,,,,,,,,,,,,,,,,,,,,,,,,,,,,,,,,,,,,,,,,,,,,,,,,,,,,,,,,,,,,,,,,,,,,,,,,,
,,,,,,,,,,stimuli/images/PICTURE_33.png,COPS,577c065c9fecfe0001a5bcc7,12/09/1999,2020-09-02_12h32.33.321,proactive3.1,2020.1.2,Win32,60,5f47c29a48bd2a1e651a6eb7,5f4f8186ee39f7035271a586,3,,,,,,frame,,,,,,0,49,49,29,1,3,2,,,,,,,,,,,,,,,,,,,,,,,,,,,,,,,,,,,,,,,,,,,,,,,,,,,,,,,,,,,,,,,,,,,,,,,,,,,,,,,,,,,,,,,,,,,,,,,,,,,,,,,,,,,,,
,,,,,,,,,,stimuli/images/PICTURE_141.png,CLIENT,577c065c9fecfe0001a5bcc7,12/09/1999,2020-09-02_12h32.33.321,proactive3.1,2020.1.2,Win32,60,5f47c29a48bd2a1e651a6eb7,5f4f8186ee39f7035271a586,3,,,,,,sunflower,,,,,,0,50,50,30,1,4,2,,,,,,,,,,,,,,,,,,,,,,,,,,,,,,,,,,,,,,,,,,,,,,,,,,,,,,,,,,,,,,,,,,,,,,,,,,,,,,,,,,,,,,,,,,,,,,,,,,,,,,,,,,,,,
,,,,,,,,,,stimuli/images/PICTURE_677.png,PHOTO,577c065c9fecfe0001a5bcc7,12/09/1999,2020-09-02_12h32.33.321,proactive3.1,2020.1.2,Win32,60,5f47c29a48bd2a1e651a6eb7,5f4f8186ee39f7035271a586,3,,,,,,map,,,,,,0,51,51,14,1,2,2,,,,,,,,,,,,,,,,,,,,,,,,,,,,,,,,,,,,,,,,,,,,,,,,,,,,,,,,,,,,,,,,,,,,,,,,,,,,,,,,,,,,,,,,,,,,,,,,,,,,,,,,,,,,,
,,,,,,,,,,stimuli/images/PICTURE_327.png,LEADER,577c065c9fecfe0001a5bcc7,12/09/1999,2020-09-02_12h32.33.321,proactive3.1,2020.1.2,Win32,60,5f47c29a48bd2a1e651a6eb7,5f4f8186ee39f7035271a586,3,,,,,,helmet,,,,,,0,52,52,17,1,2,2,,,,,,,,,,,,,,,,,,,,,,,,,,,,,,,,,,,,,,,,,,,,,,,,,,,,,,,,,,,,,,,,,,,,,,,,,,,,,,,,,,,,,,,,,,,,,,,,,,,,,,,,,,,,,
,,,,,,,,,,stimuli/images/PICTURE_750.png,POLICY,577c065c9fecfe0001a5bcc7,12/09/1999,2020-09-02_12h32.33.321,proactive3.1,2020.1.2,Win32,60,5f47c29a48bd2a1e651a6eb7,5f4f8186ee39f7035271a586,3,,,,,,kettle,,,,,,0,53,53,44,1,5,2,,,,,,,,,,,,,,,,,,,,,,,,,,,,,,,,,,,,,,,,,,,,,,,,,,,,,,,,,,,,,,,,,,,,,,,,,,,,,,,,,,,,,,,,,,,,,,,,,,,,,,,,,,,,,
,,,,,,,,,,stimuli/images/PICTURE_654.png,COPS,577c065c9fecfe0001a5bcc7,12/09/1999,2020-09-02_12h32.33.321,proactive3.1,2020.1.2,Win32,60,5f47c29a48bd2a1e651a6eb7,5f4f8186ee39f7035271a586,3,,,,,,pencil,,,,,,0,54,54,10,1,2,2,,,,,,,,,,,,,,,,,,,,,,,,,,,,,,,,,,,,,,,,,,,,,,,,,,,,,,,,,,,,,,,,,,,,,,,,,,,,,,,,,,,,,,,,,,,,,,,,,,,,,,,,,,,,,
,,,,,,,,,,stimuli/images/PICTURE_57.png,CANDY,577c065c9fecfe0001a5bcc7,12/09/1999,2020-09-02_12h32.33.321,proactive3.1,2020.1.2,Win32,60,5f47c29a48bd2a1e651a6eb7,5f4f8186ee39f7035271a586,3,,,,,,stamp,,,,,,0,55,55,52,1,6,2,,,,,,,,,,,,,,,,,,,,,,,,,,,,,,,,,,,,,,,,,,,,,,,,,,,,,,,,,,,,,,,,,,,,,,,,,,,,,,,,,,,,,,,,,,,,,,,,,,,,,,,,,,,,,
,,,,,,,,,,stimuli/images/PICTURE_177.png,HOUSE,577c065c9fecfe0001a5bcc7,12/09/1999,2020-09-02_12h32.33.321,proactive3.1,2020.1.2,Win32,60,5f47c29a48bd2a1e651a6eb7,5f4f8186ee39f7035271a586,3,,,,,,mushroom,,,,,,0,56,56,25,1,3,2,,,,,,,,,,,,,,,,,,,,,,,,,,,,,,,,,,,,,,,,,,,,,,,,,,,,,,,,,,,,,,,,,,,,,,,,,,,,,,,,,,,,,,,,,,,,,,,,,,,,,,,,,,,,,
,,,,,,,,,,stimuli/images/PICTURE_208.png,SPIRIT,577c065c9fecfe0001a5bcc7,12/09/1999,2020-09-02_12h32.33.321,proactive3.1,2020.1.2,Win32,60,5f47c29a48bd2a1e651a6eb7,5f4f8186ee39f7035271a586,3,,,,,,microphone,,,,,,0,57,57,28,1,3,2,,,,,,,,,,,,,,,,,,,,,,,,,,,,,,,,,,,,,,,,,,,,,,,,,,,,,,,,,,,,,,,,,,,,,,,,,,,,,,,,,,,,,,,,,,,,,,,,,,,,,,,,,,,,,
,,,,,,,,,,stimuli/images/PICTURE_452.png,COPS,577c065c9fecfe0001a5bcc7,12/09/1999,2020-09-02_12h32.33.321,proactive3.1,2020.1.2,Win32,60,5f47c29a48bd2a1e651a6eb7,5f4f8186ee39f7035271a586,3,,,,,,watch,,,,,,0,58,58,0,1,1,2,,,,,,,,,,,,,,,,,,,,,,,,,,,,,,,,,,,,,,,,,,,,,,,,,,,,,,,,,,,,,,,,,,,,,,,,,,,,,,,,,,,,,,,,,,,,,,,,,,,,,,,,,,,,,
,,?,0.00345,0,,,,,,stimuli/images/PICTURE_93.png,GIRL,577c065c9fecfe0001a5bcc7,12/09/1999,2020-09-02_12h32.33.321,proactive3.1,2020.1.2,Win32,60,5f47c29a48bd2a1e651a6eb7,5f4f8186ee39f7035271a586,3,,,,,,skateboard,,,,,,,,,,,4,2,0,0,0,31,1,,,,,,,,,,,,,,,,,,,,,,,,,,,,,,,,,,,,,,,,,,,,,,,,,,,,,,,,,,,,,,,,,,,,,,,,,,,,,,,,,,,,,,,,,,,,,,,,,,,,,,,,
,,?,0.00321,0,,,,,,stimuli/images/PICTURE_654.png,COPS,577c065c9fecfe0001a5bcc7,12/09/1999,2020-09-02_12h32.33.321,proactive3.1,2020.1.2,Win32,60,5f47c29a48bd2a1e651a6eb7,5f4f8186ee39f7035271a586,3,,,,,,pencil,,,,,,,,,,,2,2,0,1,1,10,1,,,,,,,,,,,,,,,,,,,,,,,,,,,,,,,,,,,,,,,,,,,,,,,,,,,,,,,,,,,,,,,,,,,,,,,,,,,,,,,,,,,,,,,,,,,,,,,,,,,,,,,,
,,?,0.00317,0,,,,,,stimuli/images/PICTURE_403.png,FAMILY,577c065c9fecfe0001a5bcc7,12/09/1999,2020-09-02_12h32.33.321,proactive3.1,2020.1.2,Win32,60,5f47c29a48bd2a1e651a6eb7,5f4f8186ee39f7035271a586,3,,,,,,cathedral,,,,,,,,,,,1,2,0,2,2,9,1,,,,,,,,,,,,,,,,,,,,,,,,,,,,,,,,,,,,,,,,,,,,,,,,,,,,,,,,,,,,,,,,,,,,,,,,,,,,,,,,,,,,,,,,,,,,,,,,,,,,,,,,
,,?,0.003045,0,,,,,,stimuli/images/PICTURE_2.png,JUNGLE,577c065c9fecfe0001a5bcc7,12/09/1999,2020-09-02_12h32.33.321,proactive3.1,2020.1.2,Win32,60,5f47c29a48bd2a1e651a6eb7,5f4f8186ee39f7035271a586,3,,,,,,tyre,,,,,,,,,,,1,2,0,3,3,1,1,,,,,,,,,,,,,,,,,,,,,,,,,,,,,,,,,,,,,,,,,,,,,,,,,,,,,,,,,,,,,,,,,,,,,,,,,,,,,,,,,,,,,,,,,,,,,,,,,,,,,,,,
,,?,0.003015,0,,,,,,stimuli/images/PICTURE_405.png,JUNGLE,577c065c9fecfe0001a5bcc7,12/09/1999,2020-09-02_12h32.33.321,proactive3.1,2020.1.2,Win32,60,5f47c29a48bd2a1e651a6eb7,5f4f8186ee39f7035271a586,3,,,,,,anchor,,,,,,,,,,,2,2,0,4,4,13,1,,,,,,,,,,,,,,,,,,,,,,,,,,,,,,,,,,,,,,,,,,,,,,,,,,,,,,,,,,,,,,,,,,,,,,,,,,,,,,,,,,,,,,,,,,,,,,,,,,,,,,,,
,,?,0.00316,0,,,,,,stimuli/images/PICTURE_708.png,VALLEY,577c065c9fecfe0001a5bcc7,12/09/1999,2020-09-02_12h32.33.321,proactive3.1,2020.1.2,Win32,60,5f47c29a48bd2a1e651a6eb7,5f4f8186ee39f7035271a586,3,,,,,,monkey,,,,,,,,,,,5,2,0,5,5,45,1,,,,,,,,,,,,,,,,,,,,,,,,,,,,,,,,,,,,,,,,,,,,,,,,,,,,,,,,,,,,,,,,,,,,,,,,,,,,,,,,,,,,,,,,,,,,,,,,,,,,,,,,
,,?,0.00313,0,,,,,,stimuli/images/PICTURE_509.png,BATH,577c065c9fecfe0001a5bcc7,12/09/1999,2020-09-02_12h32.33.321,proactive3.1,2020.1.2,Win32,60,5f47c29a48bd2a1e651a6eb7,5f4f8186ee39f7035271a586,3,,,,,,telephone,,,,,,,,,,,2,2,0,6,6,15,1,,,,,,,,,,,,,,,,,,,,,,,,,,,,,,,,,,,,,,,,,,,,,,,,,,,,,,,,,,,,,,,,,,,,,,,,,,,,,,,,,,,,,,,,,,,,,,,,,,,,,,,,
,,?,0.00304,0,,,,,,stimuli/images/PICTURE_57.png,CASINO,577c065c9fecfe0001a5bcc7,12/09/1999,2020-09-02_12h32.33.321,proactive3.1,2020.1.2,Win32,60,5f47c29a48bd2a1e651a6eb7,5f4f8186ee39f7035271a586,3,,,,,,stamp,,,,,,,,,,,2,2,0,7,7,12,1,,,,,,,,,,,,,,,,,,,,,,,,,,,,,,,,,,,,,,,,,,,,,,,,,,,,,,,,,,,,,,,,,,,,,,,,,,,,,,,,,,,,,,,,,,,,,,,,,,,,,,,,
,,NATION,4.85085,1,,,,,,stimuli/images/PICTURE_57.png,NATION,577c065c9fecfe0001a5bcc7,12/09/1999,2020-09-02_12h32.33.321,proactive3.1,2020.1.2,Win32,60,5f47c29a48bd2a1e651a6eb7,5f4f8186ee39f7035271a586,3,,,,,,stamp,,,,,,,,,,,3,2,0,8,8,21,1,,,,,,,,,,,,,,,,,,,,,,,,,,,,,,,,,,,,,,,,,,,,,,,,,,,,,,,,,,,,,,,,,,,,,,,,,,,,,,,,,,,,,,,,,,,,,,,,,,,,,,,,
,,?,0.00401,0,,,,,,stimuli/images/PICTURE_95.png,NIGHT,577c065c9fecfe0001a5bcc7,12/09/1999,2020-09-02_12h32.33.321,proactive3.1,2020.1.2,Win32,60,5f47c29a48bd2a1e651a6eb7,5f4f8186ee39f7035271a586,3,,,,,,suitcase,,,,,,,,,,,4,2,0,9,9,37,1,,,,,,,,,,,,,,,,,,,,,,,,,,,,,,,,,,,,,,,,,,,,,,,,,,,,,,,,,,,,,,,,,,,,,,,,,,,,,,,,,,,,,,,,,,,,,,,,,,,,,,,,
,,?,0.002635,0,,,,,,stimuli/images/PICTURE_504.png,HOUSE,577c065c9fecfe0001a5bcc7,12/09/1999,2020-09-02_12h32.33.321,proactive3.1,2020.1.2,Win32,60,5f47c29a48bd2a1e651a6eb7,5f4f8186ee39f7035271a586,3,,,,,,wheel,,,,,,,,,,,4,2,0,10,10,36,1,,,,,,,,,,,,,,,,,,,,,,,,,,,,,,,,,,,,,,,,,,,,,,,,,,,,,,,,,,,,,,,,,,,,,,,,,,,,,,,,,,,,,,,,,,,,,,,,,,,,,,,,
,,BOYS,2.63479,1,,,,,,stimuli/images/PICTURE_215.png,BOYS,577c065c9fecfe0001a5bcc7,12/09/1999,2020-09-02_12h32.33.321,proactive3.1,2020.1.2,Win32,60,5f47c29a48bd2a1e651a6eb7,5f4f8186ee39f7035271a586,3,,,,,,boot,,,,,,,,,,,3,2,0,11,11,24,1,,,,,,,,,,,,,,,,,,,,,,,,,,,,,,,,,,,,,,,,,,,,,,,,,,,,,,,,,,,,,,,,,,,,,,,,,,,,,,,,,,,,,,,,,,,,,,,,,,,,,,,,
,,?,0.00379,0,,,,,,stimuli/images/PICTURE_487.png,ROOF,577c065c9fecfe0001a5bcc7,12/09/1999,2020-09-02_12h32.33.321,proactive3.1,2020.1.2,Win32,60,5f47c29a48bd2a1e651a6eb7,5f4f8186ee39f7035271a586,3,,,,,,basket,,,,,,,,,,,6,2,0,12,12,50,1,,,,,,,,,,,,,,,,,,,,,,,,,,,,,,,,,,,,,,,,,,,,,,,,,,,,,,,,,,,,,,,,,,,,,,,,,,,,,,,,,,,,,,,,,,,,,,,,,,,,,,,,
,,?,0.00393,0,,,,,,stimuli/images/PICTURE_147.png,LEADER,577c065c9fecfe0001a5bcc7,12/09/1999,2020-09-02_12h32.33.321,proactive3.1,2020.1.2,Win32,60,5f47c29a48bd2a1e651a6eb7,5f4f8186ee39f7035271a586,3,,,,,,hanger,,,,,,,,,,,4,2,0,13,13,33,1,,,,,,,,,,,,,,,,,,,,,,,,,,,,,,,,,,,,,,,,,,,,,,,,,,,,,,,,,,,,,,,,,,,,,,,,,,,,,,,,,,,,,,,,,,,,,,,,,,,,,,,,
,,?,0.003125,0,,,,,,stimuli/images/PICTURE_655.png,SALE,577c065c9fecfe0001a5bcc7,12/09/1999,2020-09-02_12h32.33.321,proactive3.1,2020.1.2,Win32,60,5f47c29a48bd2a1e651a6eb7,5f4f8186ee39f7035271a586,3,,,,,,megaphone,,,,,,,,,,,6,2,0,14,14,57,1,,,,,,,,,,,,,,,,,,,,,,,,,,,,,,,,,,,,,,,,,,,,,,,,,,,,,,,,,,,,,,,,,,,,,,,,,,,,,,,,,,,,,,,,,,,,,,,,,,,,,,,,
,,?,0.003345,0,,,,,,stimuli/images/PICTURE_32.png,LETTER,577c065c9fecfe0001a5bcc7,12/09/1999,2020-09-02_12h32.33.321,proactive3.1,2020.1.2,Win32,60,5f47c29a48bd2a1e651a6eb7,5f4f8186ee39f7035271a586,3,,,,,,crown,,,,,,,,,,,6,2,0,15,15,56,1,,,,,,,,,,,,,,,,,,,,,,,,,,,,,,,,,,,,,,,,,,,,,,,,,,,,,,,,,,,,,,,,,,,,,,,,,,,,,,,,,,,,,,,,,,,,,,,,,,,,,,,,
,,?,0.00379,0,,,,,,stimuli/images/PICTURE_160.png,HOTEL,577c065c9fecfe0001a5bcc7,12/09/1999,2020-09-02_12h32.33.321,proactive3.1,2020.1.2,Win32,60,5f47c29a48bd2a1e651a6eb7,5f4f8186ee39f7035271a586,3,,,,,,wheelbarrow,,,,,,,,,,,2,2,0,16,16,16,1,,,,,,,,,,,,,,,,,,,,,,,,,,,,,,,,,,,,,,,,,,,,,,,,,,,,,,,,,,,,,,,,,,,,,,,,,,,,,,,,,,,,,,,,,,,,,,,,,,,,,,,,
,,?,0.00345,0,,,,,,stimuli/images/PICTURE_57.png,CANDY,577c065c9fecfe0001a5bcc7,12/09/1999,2020-09-02_12h32.33.321,proactive3.1,2020.1.2,Win32,60,5f47c29a48bd2a1e651a6eb7,5f4f8186ee39f7035271a586,3,,,,,,stamp,,,,,,,,,,,6,2,0,17,17,52,1,,,,,,,,,,,,,,,,,,,,,,,,,,,,,,,,,,,,,,,,,,,,,,,,,,,,,,,,,,,,,,,,,,,,,,,,,,,,,,,,,,,,,,,,,,,,,,,,,,,,,,,,
,,?,0.00306,0,,,,,,stimuli/images/PICTURE_677.png,FAMILY,577c065c9fecfe0001a5bcc7,12/09/1999,2020-09-02_12h32.33.321,proactive3.1,2020.1.2,Win32,60,5f47c29a48bd2a1e651a6eb7,5f4f8186ee39f7035271a586,3,,,,,,map,,,,,,,,,,,6,2,0,18,18,53,1,,,,,,,,,,,,,,,,,,,,,,,,,,,,,,,,,,,,,,,,,,,,,,,,,,,,,,,,,,,,,,,,,,,,,,,,,,,,,,,,,,,,,,,,,,,,,,,,,,,,,,,,
,,?,0.00408,0,,,,,,stimuli/images/PICTURE_453.png,FAMILY,577c065c9fecfe0001a5bcc7,12/09/1999,2020-09-02_12h32.33.321,proactive3.1,2020.1.2,Win32,60,5f47c29a48bd2a1e651a6eb7,5f4f8186ee39f7035271a586,3,,,,,,scissors,,,,,,,,,,,5,2,0,19,19,48,1,,,,,,,,,,,,,,,,,,,,,,,,,,,,,,,,,,,,,,,,,,,,,,,,,,,,,,,,,,,,,,,,,,,,,,,,,,,,,,,,,,,,,,,,,,,,,,,,,,,,,,,,
,,?,0.001695,0,,,,,,stimuli/images/PICTURE_141.png,CLIENT,577c065c9fecfe0001a5bcc7,12/09/1999,2020-09-02_12h32.33.321,proactive3.1,2020.1.2,Win32,60,5f47c29a48bd2a1e651a6eb7,5f4f8186ee39f7035271a586,3,,,,,,sunflower,,,,,,,,,,,4,2,0,20,20,30,1,,,,,,,,,,,,,,,,,,,,,,,,,,,,,,,,,,,,,,,,,,,,,,,,,,,,,,,,,,,,,,,,,,,,,,,,,,,,,,,,,,,,,,,,,,,,,,,,,,,,,,,,
,,?,0.00154,0,,,,,,stimuli/images/PICTURE_311.png,FLESH,577c065c9fecfe0001a5bcc7,12/09/1999,2020-09-02_12h32.33.321,proactive3.1,2020.1.2,Win32,60,5f47c29a48bd2a1e651a6eb7,5f4f8186ee39f7035271a586,3,,,,,,razor,,,,,,,,,,,1,2,0,21,21,3,1,,,,,,,,,,,,,,,,,,,,,,,,,,,,,,,,,,,,,,,,,,,,,,,,,,,,,,,,,,,,,,,,,,,,,,,,,,,,,,,,,,,,,,,,,,,,,,,,,,,,,,,,
,,?,0.00247,0,,,,,,stimuli/images/PICTURE_215.png,FOOD,577c065c9fecfe0001a5bcc7,12/09/1999,2020-09-02_12h32.33.321,proactive3.1,2020.1.2,Win32,60,5f47c29a48bd2a1e651a6eb7,5f4f8186ee39f7035271a586,3,,,,,,boot,,,,,,,,,,,1,2,0,22,22,5,1,,,,,,,,,,,,,,,,,,,,,,,,,,,,,,,,,,,,,,,,,,,,,,,,,,,,,,,,,,,,,,,,,,,,,,,,,,,,,,,,,,,,,,,,,,,,,,,,,,,,,,,,
,,?,0.00207,0,,,,,,stimuli/images/PICTURE_123.png,SALE,577c065c9fecfe0001a5bcc7,12/09/1999,2020-09-02_12h32.33.321,proactive3.1,2020.1.2,Win32,60,5f47c29a48bd2a1e651a6eb7,5f4f8186ee39f7035271a586,3,,,,,,dart,,,,,,,,,,,1,2,0,23,23,8,1,,,,,,,,,,,,,,,,,,,,,,,,,,,,,,,,,,,,,,,,,,,,,,,,,,,,,,,,,,,,,,,,,,,,,,,,,,,,,,,,,,,,,,,,,,,,,,,,,,,,,,,,
,,?,0.00163,0,,,,,,stimuli/images/PICTURE_348.png,DUDE,577c065c9fecfe0001a5bcc7,12/09/1999,2020-09-02_12h32.33.321,proactive3.1,2020.1.2,Win32,60,5f47c29a48bd2a1e651a6eb7,5f4f8186ee39f7035271a586,3,,,,,,pepper,,,,,,,,,,,6,2,0,24,24,59,1,,,,,,,,,,,,,,,,,,,,,,,,,,,,,,,,,,,,,,,,,,,,,,,,,,,,,,,,,,,,,,,,,,,,,,,,,,,,,,,,,,,,,,,,,,,,,,,,,,,,,,,,
,,KIND,2.794495,1,,,,,,stimuli/images/PICTURE_68.png,KIND,577c065c9fecfe0001a5bcc7,12/09/1999,2020-09-02_12h32.33.321,proactive3.1,2020.1.2,Win32,60,5f47c29a48bd2a1e651a6eb7,5f4f8186ee39f7035271a586,3,,,,,,candle,,,,,,,,,,,3,2,0,25,25,23,1,,,,,,,,,,,,,,,,,,,,,,,,,,,,,,,,,,,,,,,,,,,,,,,,,,,,,,,,,,,,,,,,,,,,,,,,,,,,,,,,,,,,,,,,,,,,,,,,,,,,,,,,
,,?,0.00365,0,,,,,,stimuli/images/PICTURE_2.png,YARD,577c065c9fecfe0001a5bcc7,12/09/1999,2020-09-02_12h32.33.321,proactive3.1,2020.1.2,Win32,60,5f47c29a48bd2a1e651a6eb7,5f4f8186ee39f7035271a586,3,,,,,,tyre,,,,,,,,,,,6,2,0,26,26,55,1,,,,,,,,,,,,,,,,,,,,,,,,,,,,,,,,,,,,,,,,,,,,,,,,,,,,,,,,,,,,,,,,,,,,,,,,,,,,,,,,,,,,,,,,,,,,,,,,,,,,,,,,
,,COPS,3.190505,1,,,,,,stimuli/images/PICTURE_33.png,COPS,577c065c9fecfe0001a5bcc7,12/09/1999,2020-09-02_12h32.33.321,proactive3.1,2020.1.2,Win32,60,5f47c29a48bd2a1e651a6eb7,5f4f8186ee39f7035271a586,3,,,,,,frame,,,,,,,,,,,3,2,0,27,27,29,1,,,,,,,,,,,,,,,,,,,,,,,,,,,,,,,,,,,,,,,,,,,,,,,,,,,,,,,,,,,,,,,,,,,,,,,,,,,,,,,,,,,,,,,,,,,,,,,,,,,,,,,,
,,?,0.00447,0,,,,,,stimuli/images/PICTURE_285.png,WRITER,577c065c9fecfe0001a5bcc7,12/09/1999,2020-09-02_12h32.33.321,proactive3.1,2020.1.2,Win32,60,5f47c29a48bd2a1e651a6eb7,5f4f8186ee39f7035271a586,3,,,,,,carrot,,,,,,,,,,,1,2,0,28,28,6,1,,,,,,,,,,,,,,,,,,,,,,,,,,,,,,,,,,,,,,,,,,,,,,,,,,,,,,,,,,,,,,,,,,,,,,,,,,,,,,,,,,,,,,,,,,,,,,,,,,,,,,,,
,,?,0.00325,0,,,,,,stimuli/images/PICTURE_296.png,CLOCK,577c065c9fecfe0001a5bcc7,12/09/1999,2020-09-02_12h32.33.321,proactive3.1,2020.1.2,Win32,60,5f47c29a48bd2a1e651a6eb7,5f4f8186ee39f7035271a586,3,,,,,,bolt,,,,,,,,,,,2,2,0,29,29,18,1,,,,,,,,,,,,,,,,,,,,,,,,,,,,,,,,,,,,,,,,,,,,,,,,,,,,,,,,,,,,,,,,,,,,,,,,,,,,,,,,,,,,,,,,,,,,,,,,,,,,,,,,
,,?,0.00334,0,,,,,,stimuli/images/PICTURE_452.png,COPS,577c065c9fecfe0001a5bcc7,12/09/1999,2020-09-02_12h32.33.321,proactive3.1,2020.1.2,Win32,60,5f47c29a48bd2a1e651a6eb7,5f4f8186ee39f7035271a586,3,,,,,,watch,,,,,,,,,,,1,2,0,30,30,0,1,,,,,,,,,,,,,,,,,,,,,,,,,,,,,,,,,,,,,,,,,,,,,,,,,,,,,,,,,,,,,,,,,,,,,,,,,,,,,,,,,,,,,,,,,,,,,,,,,,,,,,,,
,,?,0.00324,0,,,,,,stimuli/images/PICTURE_314.png,SPEECH,577c065c9fecfe0001a5bcc7,12/09/1999,2020-09-02_12h32.33.321,proactive3.1,2020.1.2,Win32,60,5f47c29a48bd2a1e651a6eb7,5f4f8186ee39f7035271a586,3,,,,,,perfume,,,,,,,,,,,4,2,0,31,31,35,1,,,,,,,,,,,,,,,,,,,,,,,,,,,,,,,,,,,,,,,,,,,,,,,,,,,,,,,,,,,,,,,,,,,,,,,,,,,,,,,,,,,,,,,,,,,,,,,,,,,,,,,,
,,?,0.00295,0,,,,,,stimuli/images/PICTURE_215.png,LEADER,577c065c9fecfe0001a5bcc7,12/09/1999,2020-09-02_12h32.33.321,proactive3.1,2020.1.2,Win32,60,5f47c29a48bd2a1e651a6eb7,5f4f8186ee39f7035271a586,3,,,,,,boot,,,,,,,,,,,5,2,0,32,32,43,1,,,,,,,,,,,,,,,,,,,,,,,,,,,,,,,,,,,,,,,,,,,,,,,,,,,,,,,,,,,,,,,,,,,,,,,,,,,,,,,,,,,,,,,,,,,,,,,,,,,,,,,,
,,HOUSE,2.9899,1,,,,,,stimuli/images/PICTURE_177.png,HOUSE,577c065c9fecfe0001a5bcc7,12/09/1999,2020-09-02_12h32.33.321,proactive3.1,2020.1.2,Win32,60,5f47c29a48bd2a1e651a6eb7,5f4f8186ee39f7035271a586,3,,,,,,mushroom,,,,,,,,,,,3,2,0,33,33,25,1,,,,,,,,,,,,,,,,,,,,,,,,,,,,,,,,,,,,,,,,,,,,,,,,,,,,,,,,,,,,,,,,,,,,,,,,,,,,,,,,,,,,,,,,,,,,,,,,,,,,,,,,
,,?,0.00411,0,,,,,,stimuli/images/PICTURE_654.png,YEAR,577c065c9fecfe0001a5bcc7,12/09/1999,2020-09-02_12h32.33.321,proactive3.1,2020.1.2,Win32,60,5f47c29a48bd2a1e651a6eb7,5f4f8186ee39f7035271a586,3,,,,,,pencil,,,,,,,,,,,5,2,0,34,34,41,1,,,,,,,,,,,,,,,,,,,,,,,,,,,,,,,,,,,,,,,,,,,,,,,,,,,,,,,,,,,,,,,,,,,,,,,,,,,,,,,,,,,,,,,,,,,,,,,,,,,,,,,,
,,BEAUTY,3.273835,1,,,,,,stimuli/images/PICTURE_470.png,BEAUTY,577c065c9fecfe0001a5bcc7,12/09/1999,2020-09-02_12h32.33.321,proactive3.1,2020.1.2,Win32,60,5f47c29a48bd2a1e651a6eb7,5f4f8186ee39f7035271a586,3,,,,,,motorbike,,,,,,,,,,,3,2,0,35,35,26,1,,,,,,,,,,,,,,,,,,,,,,,,,,,,,,,,,,,,,,,,,,,,,,,,,,,,,,,,,,,,,,,,,,,,,,,,,,,,,,,,,,,,,,,,,,,,,,,,,,,,,,,,
,,RIVER,3.46587,1,,,,,,stimuli/images/PICTURE_18.png,RIVER,577c065c9fecfe0001a5bcc7,12/09/1999,2020-09-02_12h32.33.321,proactive3.1,2020.1.2,Win32,60,5f47c29a48bd2a1e651a6eb7,5f4f8186ee39f7035271a586,3,,,,,,planet,,,,,,,,,,,3,2,0,36,36,22,1,,,,,,,,,,,,,,,,,,,,,,,,,,,,,,,,,,,,,,,,,,,,,,,,,,,,,,,,,,,,,,,,,,,,,,,,,,,,,,,,,,,,,,,,,,,,,,,,,,,,,,,,
,,?,0.004615,0,,,,,,stimuli/images/PICTURE_564.png,PLENTY,577c065c9fecfe0001a5bcc7,12/09/1999,2020-09-02_12h32.33.321,proactive3.1,2020.1.2,Win32,60,5f47c29a48bd2a1e651a6eb7,5f4f8186ee39f7035271a586,3,,,,,,spoon,,,,,,,,,,,2,2,0,37,37,11,1,,,,,,,,,,,,,,,,,,,,,,,,,,,,,,,,,,,,,,,,,,,,,,,,,,,,,,,,,,,,,,,,,,,,,,,,,,,,,,,,,,,,,,,,,,,,,,,,,,,,,,,,
,,?,0.003515,0,,,,,,stimuli/images/PICTURE_487.png,POLICY,577c065c9fecfe0001a5bcc7,12/09/1999,2020-09-02_12h32.33.321,proactive3.1,2020.1.2,Win32,60,5f47c29a48bd2a1e651a6eb7,5f4f8186ee39f7035271a586,3,,,,,,basket,,,,,,,,,,,4,2,0,38,38,34,1,,,,,,,,,,,,,,,,,,,,,,,,,,,,,,,,,,,,,,,,,,,,,,,,,,,,,,,,,,,,,,,,,,,,,,,,,,,,,,,,,,,,,,,,,,,,,,,,,,,,,,,,
,,?,0.003045,0,,,,,,stimuli/images/PICTURE_255.png,PENNY,577c065c9fecfe0001a5bcc7,12/09/1999,2020-09-02_12h32.33.321,proactive3.1,2020.1.2,Win32,60,5f47c29a48bd2a1e651a6eb7,5f4f8186ee39f7035271a586,3,,,,,,shovel,,,,,,,,,,,2,2,0,39,39,19,1,,,,,,,,,,,,,,,,,,,,,,,,,,,,,,,,,,,,,,,,,,,,,,,,,,,,,,,,,,,,,,,,,,,,,,,,,,,,,,,,,,,,,,,,,,,,,,,,,,,,,,,,
,,?,0.00407,0,,,,,,stimuli/images/PICTURE_405.png,HOUSE,577c065c9fecfe0001a5bcc7,12/09/1999,2020-09-02_12h32.33.321,proactive3.1,2020.1.2,Win32,60,5f47c29a48bd2a1e651a6eb7,5f4f8186ee39f7035271a586,3,,,,,,anchor,,,,,,,,,,,1,2,0,40,40,2,1,,,,,,,,,,,,,,,,,,,,,,,,,,,,,,,,,,,,,,,,,,,,,,,,,,,,,,,,,,,,,,,,,,,,,,,,,,,,,,,,,,,,,,,,,,,,,,,,,,,,,,,,
,,?,0.0033,0,,,,,,stimuli/images/PICTURE_677.png,PHOTO,577c065c9fecfe0001a5bcc7,12/09/1999,2020-09-02_12h32.33.321,proactive3.1,2020.1.2,Win32,60,5f47c29a48bd2a1e651a6eb7,5f4f8186ee39f7035271a586,3,,,,,,map,,,,,,,,,,,2,2,0,41,41,14,1,,,,,,,,,,,,,,,,,,,,,,,,,,,,,,,,,,,,,,,,,,,,,,,,,,,,,,,,,,,,,,,,,,,,,,,,,,,,,,,,,,,,,,,,,,,,,,,,,,,,,,,,
,,?,0.00179,0,,,,,,stimuli/images/PICTURE_688.png,CLOCK,577c065c9fecfe0001a5bcc7,12/09/1999,2020-09-02_12h32.33.321,proactive3.1,2020.1.2,Win32,60,5f47c29a48bd2a1e651a6eb7,5f4f8186ee39f7035271a586,3,,,,,,runner,,,,,,,,,,,5,2,0,42,42,42,1,,,,,,,,,,,,,,,,,,,,,,,,,,,,,,,,,,,,,,,,,,,,,,,,,,,,,,,,,,,,,,,,,,,,,,,,,,,,,,,,,,,,,,,,,,,,,,,,,,,,,,,,
,,?,0.002105,0,,,,,,stimuli/images/PICTURE_311.png,TOILET,577c065c9fecfe0001a5bcc7,12/09/1999,2020-09-02_12h32.33.321,proactive3.1,2020.1.2,Win32,60,5f47c29a48bd2a1e651a6eb7,5f4f8186ee39f7035271a586,3,,,,,,razor,,,,,,,,,,,6,2,0,43,43,54,1,,,,,,,,,,,,,,,,,,,,,,,,,,,,,,,,,,,,,,,,,,,,,,,,,,,,,,,,,,,,,,,,,,,,,,,,,,,,,,,,,,,,,,,,,,,,,,,,,,,,,,,,
,,?,0.001955,0,,,,,,stimuli/images/PICTURE_491.png,SERIES,577c065c9fecfe0001a5bcc7,12/09/1999,2020-09-02_12h32.33.321,proactive3.1,2020.1.2,Win32,60,5f47c29a48bd2a1e651a6eb7,5f4f8186ee39f7035271a586,3,,,,,,rug,,,,,,,,,,,4,2,0,44,44,39,1,,,,,,,,,,,,,,,,,,,,,,,,,,,,,,,,,,,,,,,,,,,,,,,,,,,,,,,,,,,,,,,,,,,,,,,,,,,,,,,,,,,,,,,,,,,,,,,,,,,,,,,,
,,?,0.00206,0,,,,,,stimuli/images/PICTURE_509.png,MILLER,577c065c9fecfe0001a5bcc7,12/09/1999,2020-09-02_12h32.33.321,proactive3.1,2020.1.2,Win32,60,5f47c29a48bd2a1e651a6eb7,5f4f8186ee39f7035271a586,3,,,,,,telephone,,,,,,,,,,,5,2,0,45,45,49,1,,,,,,,,,,,,,,,,,,,,,,,,,,,,,,,,,,,,,,,,,,,,,,,,,,,,,,,,,,,,,,,,,,,,,,,,,,,,,,,,,,,,,,,,,,,,,,,,,,,,,,,,
,,GLASS,5.970835,1,,,,,,stimuli/images/PICTURE_667.png,GLASS,577c065c9fecfe0001a5bcc7,12/09/1999,2020-09-02_12h32.33.321,proactive3.1,2020.1.2,Win32,60,5f47c29a48bd2a1e651a6eb7,5f4f8186ee39f7035271a586,3,,,,,,daisy,,,,,,,,,,,3,2,0,46,46,27,1,,,,,,,,,,,,,,,,,,,,,,,,,,,,,,,,,,,,,,,,,,,,,,,,,,,,,,,,,,,,,,,,,,,,,,,,,,,,,,,,,,,,,,,,,,,,,,,,,,,,,,,,
,,?,0.00387,0,,,,,,stimuli/images/PICTURE_750.png,POLICY,577c065c9fecfe0001a5bcc7,12/09/1999,2020-09-02_12h32.33.321,proactive3.1,2020.1.2,Win32,60,5f47c29a48bd2a1e651a6eb7,5f4f8186ee39f7035271a586,3,,,,,,kettle,,,,,,,,,,,5,2,0,47,47,44,1,,,,,,,,,,,,,,,,,,,,,,,,,,,,,,,,,,,,,,,,,,,,,,,,,,,,,,,,,,,,,,,,,,,,,,,,,,,,,,,,,,,,,,,,,,,,,,,,,,,,,,,,
,,?,0.00376,0,,,,,,stimuli/images/PICTURE_356.png,CANDY,577c065c9fecfe0001a5bcc7,12/09/1999,2020-09-02_12h32.33.321,proactive3.1,2020.1.2,Win32,60,5f47c29a48bd2a1e651a6eb7,5f4f8186ee39f7035271a586,3,,,,,,pawn,,,,,,,,,,,5,2,0,48,48,46,1,,,,,,,,,,,,,,,,,,,,,,,,,,,,,,,,,,,,,,,,,,,,,,,,,,,,,,,,,,,,,,,,,,,,,,,,,,,,,,,,,,,,,,,,,,,,,,,,,,,,,,,,
,,?,0.003195,0,,,,,,stimuli/images/PICTURE_2.png,AREA,577c065c9fecfe0001a5bcc7,12/09/1999,2020-09-02_12h32.33.321,proactive3.1,2020.1.2,Win32,60,5f47c29a48bd2a1e651a6eb7,5f4f8186ee39f7035271a586,3,,,,,,tyre,,,,,,,,,,,4,2,0,49,49,32,1,,,,,,,,,,,,,,,,,,,,,,,,,,,,,,,,,,,,,,,,,,,,,,,,,,,,,,,,,,,,,,,,,,,,,,,,,,,,,,,,,,,,,,,,,,,,,,,,,,,,,,,,
,,?,0.00474,0,,,,,,stimuli/images/PICTURE_509.png,SHOTS,577c065c9fecfe0001a5bcc7,12/09/1999,2020-09-02_12h32.33.321,proactive3.1,2020.1.2,Win32,60,5f47c29a48bd2a1e651a6eb7,5f4f8186ee39f7035271a586,3,,,,,,telephone,,,,,,,,,,,1,2,0,50,50,7,1,,,,,,,,,,,,,,,,,,,,,,,,,,,,,,,,,,,,,,,,,,,,,,,,,,,,,,,,,,,,,,,,,,,,,,,,,,,,,,,,,,,,,,,,,,,,,,,,,,,,,,,,
,,PRINCE,5.52585,1,,,,,,stimuli/images/PICTURE_285.png,PRINCE,577c065c9fecfe0001a5bcc7,12/09/1999,2020-09-02_12h32.33.321,proactive3.1,2020.1.2,Win32,60,5f47c29a48bd2a1e651a6eb7,5f4f8186ee39f7035271a586,3,,,,,,carrot,,,,,,,,,,,3,2,0,51,51,20,1,,,,,,,,,,,,,,,,,,,,,,,,,,,,,,,,,,,,,,,,,,,,,,,,,,,,,,,,,,,,,,,,,,,,,,,,,,,,,,,,,,,,,,,,,,,,,,,,,,,,,,,,
,,?,0.002105,0,,,,,,stimuli/images/PICTURE_405.png,JUNGLE,577c065c9fecfe0001a5bcc7,12/09/1999,2020-09-02_12h32.33.321,proactive3.1,2020.1.2,Win32,60,5f47c29a48bd2a1e651a6eb7,5f4f8186ee39f7035271a586,3,,,,,,anchor,,,,,,,,,,,6,2,0,52,52,58,1,,,,,,,,,,,,,,,,,,,,,,,,,,,,,,,,,,,,,,,,,,,,,,,,,,,,,,,,,,,,,,,,,,,,,,,,,,,,,,,,,,,,,,,,,,,,,,,,,,,,,,,,
,,?,0.00265,0,,,,,,stimuli/images/PICTURE_348.png,TOILET,577c065c9fecfe0001a5bcc7,12/09/1999,2020-09-02_12h32.33.321,proactive3.1,2020.1.2,Win32,60,5f47c29a48bd2a1e651a6eb7,5f4f8186ee39f7035271a586,3,,,,,,pepper,,,,,,,,,,,1,2,0,53,53,4,1,,,,,,,,,,,,,,,,,,,,,,,,,,,,,,,,,,,,,,,,,,,,,,,,,,,,,,,,,,,,,,,,,,,,,,,,,,,,,,,,,,,,,,,,,,,,,,,,,,,,,,,,
,,?,0.0019,0,,,,,,stimuli/images/PICTURE_509.png,APPLE,577c065c9fecfe0001a5bcc7,12/09/1999,2020-09-02_12h32.33.321,proactive3.1,2020.1.2,Win32,60,5f47c29a48bd2a1e651a6eb7,5f4f8186ee39f7035271a586,3,,,,,,telephone,,,,,,,,,,,4,2,0,54,54,38,1,,,,,,,,,,,,,,,,,,,,,,,,,,,,,,,,,,,,,,,,,,,,,,,,,,,,,,,,,,,,,,,,,,,,,,,,,,,,,,,,,,,,,,,,,,,,,,,,,,,,,,,,
,,?,0.00191,0,,,,,,stimuli/images/PICTURE_470.png,MOMENT,577c065c9fecfe0001a5bcc7,12/09/1999,2020-09-02_12h32.33.321,proactive3.1,2020.1.2,Win32,60,5f47c29a48bd2a1e651a6eb7,5f4f8186ee39f7035271a586,3,,,,,,motorbike,,,,,,,,,,,5,2,0,55,55,40,1,,,,,,,,,,,,,,,,,,,,,,,,,,,,,,,,,,,,,,,,,,,,,,,,,,,,,,,,,,,,,,,,,,,,,,,,,,,,,,,,,,,,,,,,,,,,,,,,,,,,,,,,
,,?,0.002115,0,,,,,,stimuli/images/PICTURE_692.png,DUDE,577c065c9fecfe0001a5bcc7,12/09/1999,2020-09-02_12h32.33.321,proactive3.1,2020.1.2,Win32,60,5f47c29a48bd2a1e651a6eb7,5f4f8186ee39f7035271a586,3,,,,,,cherry,,,,,,,,,,,5,2,0,56,56,47,1,,,,,,,,,,,,,,,,,,,,,,,,,,,,,,,,,,,,,,,,,,,,,,,,,,,,,,,,,,,,,,,,,,,,,,,,,,,,,,,,,,,,,,,,,,,,,,,,,,,,,,,,
,,?,0.001675,0,,,,,,stimuli/images/PICTURE_327.png,LEADER,577c065c9fecfe0001a5bcc7,12/09/1999,2020-09-02_12h32.33.321,proactive3.1,2020.1.2,Win32,60,5f47c29a48bd2a1e651a6eb7,5f4f8186ee39f7035271a586,3,,,,,,helmet,,,,,,,,,,,2,2,0,57,57,17,1,,,,,,,,,,,,,,,,,,,,,,,,,,,,,,,,,,,,,,,,,,,,,,,,,,,,,,,,,,,,,,,,,,,,,,,,,,,,,,,,,,,,,,,,,,,,,,,,,,,,,,,,
,,RIT,3.12643,0,,,,,,stimuli/images/PICTURE_208.png,SPIRIT,577c065c9fecfe0001a5bcc7,12/09/1999,2020-09-02_12h32.33.321,proactive3.1,2020.1.2,Win32,60,5f47c29a48bd2a1e651a6eb7,5f4f8186ee39f7035271a586,3,,,,,,microphone,,,,,,,,,,,3,2,0,58,58,28,1,,,,,,,,,,,,,,,,,,,,,,,,,,,,,,,,,,,,,,,,,,,,,,,,,,,,,,,,,,,,,,,,,,,,,,,,,,,,,,,,,,,,,,,,,,,,,,,,,,,,,,,,
,,?,0.003005,0,,,,,,stimuli/images/PICTURE_297.png,BODY,577c065c9fecfe0001a5bcc7,12/09/1999,2020-09-02_12h32.33.321,proactive3.1,2020.1.2,Win32,60,5f47c29a48bd2a1e651a6eb7,5f4f8186ee39f7035271a586,3,,,,,,aeroplane,,,,,,,,,,,6,2,0,59,59,51,1,,,,,,,,,,,,,,,,,,,,,,,,,,,,,,,,,,,,,,,,,,,,,,,,,,,,,,,,,,,,,,,,,,,,,,,,,,,,,,,,,,,,,,,,,,,,,,,,,,,,,,,,
,,,,,,,,,,,,577c065c9fecfe0001a5bcc7,12/09/1999,2020-09-02_12h32.33.321,proactive3.1,2020.1.2,Win32,60,5f47c29a48bd2a1e651a6eb7,5f4f8186ee39f7035271a586,3,,,,,,,,,,,,,,,,,,,,,,,,0,0,0,2,1,stimuli/learn-block3.csv,,,,,,,,,,,,,,,,,,,,,,,,,,,,,,,,,,,,,,,,,,,,,,,,,,,,,,,,,,,,,,,,,,,,,,,,,,,,,,,,,,,,,,,,,,,,,,,,,,
,,,,,,,,,,stimuli/images/PICTURE_308.png,KIND,577c065c9fecfe0001a5bcc7,12/09/1999,2020-09-02_12h32.33.321,proactive3.1,2020.1.2,Win32,60,5f47c29a48bd2a1e651a6eb7,5f4f8186ee39f7035271a586,3,,,,,,dice,,,,,,0,0,0,54,1,6,0,,,,,,,,,,,,,,,,,,,,,,,,,,,,,,,,,,,,,,,,,,,,,,,,,,,,,,,,,,,,,,,,,,,,,,,,,,,,,,,,,,,,,,,,,,,,,,,,,,,,,,,,,,,,,
,,,,,,,,,,stimuli/images/PICTURE_327.png,BEAUTY,577c065c9fecfe0001a5bcc7,12/09/1999,2020-09-02_12h32.33.321,proactive3.1,2020.1.2,Win32,60,5f47c29a48bd2a1e651a6eb7,5f4f8186ee39f7035271a586,3,,,,,,helmet,,,,,,0,1,1,48,1,5,0,,,,,,,,,,,,,,,,,,,,,,,,,,,,,,,,,,,,,,,,,,,,,,,,,,,,,,,,,,,,,,,,,,,,,,,,,,,,,,,,,,,,,,,,,,,,,,,,,,,,,,,,,,,,,
,,,,,,,,,,stimuli/images/PICTURE_285.png,ADVICE,577c065c9fecfe0001a5bcc7,12/09/1999,2020-09-02_12h32.33.321,proactive3.1,2020.1.2,Win32,60,5f47c29a48bd2a1e651a6eb7,5f4f8186ee39f7035271a586,3,,,,,,carrot,,,,,,0,2,2,12,1,2,0,,,,,,,,,,,,,,,,,,,,,,,,,,,,,,,,,,,,,,,,,,,,,,,,,,,,,,,,,,,,,,,,,,,,,,,,,,,,,,,,,,,,,,,,,,,,,,,,,,,,,,,,,,,,,
,,,,,,,,,,stimuli/images/PICTURE_380.png,PHOTO,577c065c9fecfe0001a5bcc7,12/09/1999,2020-09-02_12h32.33.321,proactive3.1,2020.1.2,Win32,60,5f47c29a48bd2a1e651a6eb7,5f4f8186ee39f7035271a586,3,,,,,,gorilla,,,,,,0,3,3,52,1,6,0,,,,,,,,,,,,,,,,,,,,,,,,,,,,,,,,,,,,,,,,,,,,,,,,,,,,,,,,,,,,,,,,,,,,,,,,,,,,,,,,,,,,,,,,,,,,,,,,,,,,,,,,,,,,,
,,,,,,,,,,stimuli/images/PICTURE_675.png,WEAPON,577c065c9fecfe0001a5bcc7,12/09/1999,2020-09-02_12h32.33.321,proactive3.1,2020.1.2,Win32,60,5f47c29a48bd2a1e651a6eb7,5f4f8186ee39f7035271a586,3,,,,,,windmill,,,,,,0,4,4,32,1,4,0,,,,,,,,,,,,,,,,,,,,,,,,,,,,,,,,,,,,,,,,,,,,,,,,,,,,,,,,,,,,,,,,,,,,,,,,,,,,,,,,,,,,,,,,,,,,,,,,,,,,,,,,,,,,,
,,,,,,,,,,stimuli/images/PICTURE_744.png,SYSTEM,577c065c9fecfe0001a5bcc7,12/09/1999,2020-09-02_12h32.33.321,proactive3.1,2020.1.2,Win32,60,5f47c29a48bd2a1e651a6eb7,5f4f8186ee39f7035271a586,3,,,,,,ring,,,,,,0,5,5,43,1,5,0,,,,,,,,,,,,,,,,,,,,,,,,,,,,,,,,,,,,,,,,,,,,,,,,,,,,,,,,,,,,,,,,,,,,,,,,,,,,,,,,,,,,,,,,,,,,,,,,,,,,,,,,,,,,,
,,,,,,,,,,stimuli/images/PICTURE_248.png,DOZEN,577c065c9fecfe0001a5bcc7,12/09/1999,2020-09-02_12h32.33.321,proactive3.1,2020.1.2,Win32,60,5f47c29a48bd2a1e651a6eb7,5f4f8186ee39f7035271a586,3,,,,,,cart,,,,,,0,6,6,39,1,4,0,,,,,,,,,,,,,,,,,,,,,,,,,,,,,,,,,,,,,,,,,,,,,,,,,,,,,,,,,,,,,,,,,,,,,,,,,,,,,,,,,,,,,,,,,,,,,,,,,,,,,,,,,,,,,
,,,,,,,,,,stimuli/images/PICTURE_688.png,CASINO,577c065c9fecfe0001a5bcc7,12/09/1999,2020-09-02_12h32.33.321,proactive3.1,2020.1.2,Win32,60,5f47c29a48bd2a1e651a6eb7,5f4f8186ee39f7035271a586,3,,,,,,runner,,,,,,0,7,7,2,1,1,0,,,,,,,,,,,,,,,,,,,,,,,,,,,,,,,,,,,,,,,,,,,,,,,,,,,,,,,,,,,,,,,,,,,,,,,,,,,,,,,,,,,,,,,,,,,,,,,,,,,,,,,,,,,,,
,,,,,,,,,,stimuli/images/PICTURE_470.png,CASINO,577c065c9fecfe0001a5bcc7,12/09/1999,2020-09-02_12h32.33.321,proactive3.1,2020.1.2,Win32,60,5f47c29a48bd2a1e651a6eb7,5f4f8186ee39f7035271a586,3,,,,,,motorbike,,,,,,0,8,8,36,1,4,0,,,,,,,,,,,,,,,,,,,,,,,,,,,,,,,,,,,,,,,,,,,,,,,,,,,,,,,,,,,,,,,,,,,,,,,,,,,,,,,,,,,,,,,,,,,,,,,,,,,,,,,,,,,,,
,,,,,,,,,,stimuli/images/PICTURE_677.png,MILE,577c065c9fecfe0001a5bcc7,12/09/1999,2020-09-02_12h32.33.321,proactive3.1,2020.1.2,Win32,60,5f47c29a48bd2a1e651a6eb7,5f4f8186ee39f7035271a586,3,,,,,,map,,,,,,0,9,9,30,1,4,0,,,,,,,,,,,,,,,,,,,,,,,,,,,,,,,,,,,,,,,,,,,,,,,,,,,,,,,,,,,,,,,,,,,,,,,,,,,,,,,,,,,,,,,,,,,,,,,,,,,,,,,,,,,,,
,,,,,,,,,,stimuli/images/PICTURE_469.png,LETTER,577c065c9fecfe0001a5bcc7,12/09/1999,2020-09-02_12h32.33.321,proactive3.1,2020.1.2,Win32,60,5f47c29a48bd2a1e651a6eb7,5f4f8186ee39f7035271a586,3,,,,,,stool,,,,,,0,10,10,42,1,5,0,,,,,,,,,,,,,,,,,,,,,,,,,,,,,,,,,,,,,,,,,,,,,,,,,,,,,,,,,,,,,,,,,,,,,,,,,,,,,,,,,,,,,,,,,,,,,,,,,,,,,,,,,,,,,
,,,,,,,,,,stimuli/images/PICTURE_449.png,THING,577c065c9fecfe0001a5bcc7,12/09/1999,2020-09-02_12h32.33.321,proactive3.1,2020.1.2,Win32,60,5f47c29a48bd2a1e651a6eb7,5f4f8186ee39f7035271a586,3,,,,,,bench,,,,,,0,11,11,59,1,6,0,,,,,,,,,,,,,,,,,,,,,,,,,,,,,,,,,,,,,,,,,,,,,,,,,,,,,,,,,,,,,,,,,,,,,,,,,,,,,,,,,,,,,,,,,,,,,,,,,,,,,,,,,,,,,
,,,,,,,,,,stimuli/images/PICTURE_151.png,GIRL,577c065c9fecfe0001a5bcc7,12/09/1999,2020-09-02_12h32.33.321,proactive3.1,2020.1.2,Win32,60,5f47c29a48bd2a1e651a6eb7,5f4f8186ee39f7035271a586,3,,,,,,tray,,,,,,0,12,12,19,1,2,0,,,,,,,,,,,,,,,,,,,,,,,,,,,,,,,,,,,,,,,,,,,,,,,,,,,,,,,,,,,,,,,,,,,,,,,,,,,,,,,,,,,,,,,,,,,,,,,,,,,,,,,,,,,,,
,,,,,,,,,,stimuli/images/PICTURE_487.png,FLIGHT,577c065c9fecfe0001a5bcc7,12/09/1999,2020-09-02_12h32.33.321,proactive3.1,2020.1.2,Win32,60,5f47c29a48bd2a1e651a6eb7,5f4f8186ee39f7035271a586,3,,,,,,basket,,,,,,0,13,13,9,1,1,0,,,,,,,,,,,,,,,,,,,,,,,,,,,,,,,,,,,,,,,,,,,,,,,,,,,,,,,,,,,,,,,,,,,,,,,,,,,,,,,,,,,,,,,,,,,,,,,,,,,,,,,,,,,,,
,,,,,,,,,,stimuli/images/PICTURE_302.png,FAMILY,577c065c9fecfe0001a5bcc7,12/09/1999,2020-09-02_12h32.33.321,proactive3.1,2020.1.2,Win32,60,5f47c29a48bd2a1e651a6eb7,5f4f8186ee39f7035271a586,3,,,,,,taxi,,,,,,0,14,14,18,1,2,0,,,,,,,,,,,,,,,,,,,,,,,,,,,,,,,,,,,,,,,,,,,,,,,,,,,,,,,,,,,,,,,,,,,,,,,,,,,,,,,,,,,,,,,,,,,,,,,,,,,,,,,,,,,,,
,,,,,,,,,,stimuli/images/PICTURE_233.png,WOMEN,577c065c9fecfe0001a5bcc7,12/09/1999,2020-09-02_12h32.33.321,proactive3.1,2020.1.2,Win32,60,5f47c29a48bd2a1e651a6eb7,5f4f8186ee39f7035271a586,3,,,,,,salt,,,,,,0,15,15,38,1,4,0,,,,,,,,,,,,,,,,,,,,,,,,,,,,,,,,,,,,,,,,,,,,,,,,,,,,,,,,,,,,,,,,,,,,,,,,,,,,,,,,,,,,,,,,,,,,,,,,,,,,,,,,,,,,,
,,,,,,,,,,stimuli/images/PICTURE_688.png,WOMEN,577c065c9fecfe0001a5bcc7,12/09/1999,2020-09-02_12h32.33.321,proactive3.1,2020.1.2,Win32,60,5f47c29a48bd2a1e651a6eb7,5f4f8186ee39f7035271a586,3,,,,,,runner,,,,,,0,16,16,14,1,2,0,,,,,,,,,,,,,,,,,,,,,,,,,,,,,,,,,,,,,,,,,,,,,,,,,,,,,,,,,,,,,,,,,,,,,,,,,,,,,,,,,,,,,,,,,,,,,,,,,,,,,,,,,,,,,
,,,,,,,,,,stimuli/images/PICTURE_208.png,THING,577c065c9fecfe0001a5bcc7,12/09/1999,2020-09-02_12h32.33.321,proactive3.1,2020.1.2,Win32,60,5f47c29a48bd2a1e651a6eb7,5f4f8186ee39f7035271a586,3,,,,,,microphone,,,,,,0,17,17,47,1,5,0,,,,,,,,,,,,,,,,,,,,,,,,,,,,,,,,,,,,,,,,,,,,,,,,,,,,,,,,,,,,,,,,,,,,,,,,,,,,,,,,,,,,,,,,,,,,,,,,,,,,,,,,,,,,,
,,,,,,,,,,stimuli/images/PICTURE_453.png,PLENTY,577c065c9fecfe0001a5bcc7,12/09/1999,2020-09-02_12h32.33.321,proactive3.1,2020.1.2,Win32,60,5f47c29a48bd2a1e651a6eb7,5f4f8186ee39f7035271a586,3,,,,,,scissors,,,,,,0,18,18,56,1,6,0,,,,,,,,,,,,,,,,,,,,,,,,,,,,,,,,,,,,,,,,,,,,,,,,,,,,,,,,,,,,,,,,,,,,,,,,,,,,,,,,,,,,,,,,,,,,,,,,,,,,,,,,,,,,,
,,,,,,,,,,stimuli/images/PICTURE_667.png,BATH,577c065c9fecfe0001a5bcc7,12/09/1999,2020-09-02_12h32.33.321,proactive3.1,2020.1.2,Win32,60,5f47c29a48bd2a1e651a6eb7,5f4f8186ee39f7035271a586,3,,,,,,daisy,,,,,,0,19,19,4,1,1,0,,,,,,,,,,,,,,,,,,,,,,,,,,,,,,,,,,,,,,,,,,,,,,,,,,,,,,,,,,,,,,,,,,,,,,,,,,,,,,,,,,,,,,,,,,,,,,,,,,,,,,,,,,,,,
,,,,,,,,,,stimuli/images/PICTURE_708.png,CLIENT,577c065c9fecfe0001a5bcc7,12/09/1999,2020-09-02_12h32.33.321,proactive3.1,2020.1.2,Win32,60,5f47c29a48bd2a1e651a6eb7,5f4f8186ee39f7035271a586,3,,,,,,monkey,,,,,,0,20,20,5,1,1,0,,,,,,,,,,,,,,,,,,,,,,,,,,,,,,,,,,,,,,,,,,,,,,,,,,,,,,,,,,,,,,,,,,,,,,,,,,,,,,,,,,,,,,,,,,,,,,,,,,,,,,,,,,,,,
,,,,,,,,,,stimuli/images/PICTURE_314.png,SAKE,577c065c9fecfe0001a5bcc7,12/09/1999,2020-09-02_12h32.33.321,proactive3.1,2020.1.2,Win32,60,5f47c29a48bd2a1e651a6eb7,5f4f8186ee39f7035271a586,3,,,,,,perfume,,,,,,0,21,21,7,1,1,0,,,,,,,,,,,,,,,,,,,,,,,,,,,,,,,,,,,,,,,,,,,,,,,,,,,,,,,,,,,,,,,,,,,,,,,,,,,,,,,,,,,,,,,,,,,,,,,,,,,,,,,,,,,,,
,,,,,,,,,,stimuli/images/PICTURE_708.png,PENNY,577c065c9fecfe0001a5bcc7,12/09/1999,2020-09-02_12h32.33.321,proactive3.1,2020.1.2,Win32,60,5f47c29a48bd2a1e651a6eb7,5f4f8186ee39f7035271a586,3,,,,,,monkey,,,,,,0,22,22,31,1,4,0,,,,,,,,,,,,,,,,,,,,,,,,,,,,,,,,,,,,,,,,,,,,,,,,,,,,,,,,,,,,,,,,,,,,,,,,,,,,,,,,,,,,,,,,,,,,,,,,,,,,,,,,,,,,,
,,,,,,,,,,stimuli/images/PICTURE_215.png,PLENTY,577c065c9fecfe0001a5bcc7,12/09/1999,2020-09-02_12h32.33.321,proactive3.1,2020.1.2,Win32,60,5f47c29a48bd2a1e651a6eb7,5f4f8186ee39f7035271a586,3,,,,,,boot,,,,,,0,23,23,37,1,4,0,,,,,,,,,,,,,,,,,,,,,,,,,,,,,,,,,,,,,,,,,,,,,,,,,,,,,,,,,,,,,,,,,,,,,,,,,,,,,,,,,,,,,,,,,,,,,,,,,,,,,,,,,,,,,
,,,,,,,,,,stimuli/images/PICTURE_68.png,MILE,577c065c9fecfe0001a5bcc7,12/09/1999,2020-09-02_12h32.33.321,proactive3.1,2020.1.2,Win32,60,5f47c29a48bd2a1e651a6eb7,5f4f8186ee39f7035271a586,3,,,,,,candle,,,,,,0,24,24,44,1,5,0,,,,,,,,,,,,,,,,,,,,,,,,,,,,,,,,,,,,,,,,,,,,,,,,,,,,,,,,,,,,,,,,,,,,,,,,,,,,,,,,,,,,,,,,,,,,,,,,,,,,,,,,,,,,,
,,,,,,,,,,stimuli/images/PICTURE_509.png,PHOTO,577c065c9fecfe0001a5bcc7,12/09/1999,2020-09-02_12h32.33.321,proactive3.1,2020.1.2,Win32,60,5f47c29a48bd2a1e651a6eb7,5f4f8186ee39f7035271a586,3,,,,,,telephone,,,,,,0,25,25,21,1,3,0,,,,,,,,,,,,,,,,,,,,,,,,,,,,,,,,,,,,,,,,,,,,,,,,,,,,,,,,,,,,,,,,,,,,,,,,,,,,,,,,,,,,,,,,,,,,,,,,,,,,,,,,,,,,,
,,,,,,,,,,stimuli/images/PICTURE_380.png,DEATH,577c065c9fecfe0001a5bcc7,12/09/1999,2020-09-02_12h32.33.321,proactive3.1,2020.1.2,Win32,60,5f47c29a48bd2a1e651a6eb7,5f4f8186ee39f7035271a586,3,,,,,,gorilla,,,,,,0,26,26,49,1,5,0,,,,,,,,,,,,,,,,,,,,,,,,,,,,,,,,,,,,,,,,,,,,,,,,,,,,,,,,,,,,,,,,,,,,,,,,,,,,,,,,,,,,,,,,,,,,,,,,,,,,,,,,,,,,,
,,,,,,,,,,stimuli/images/PICTURE_348.png,SPEECH,577c065c9fecfe0001a5bcc7,12/09/1999,2020-09-02_12h32.33.321,proactive3.1,2020.1.2,Win32,60,5f47c29a48bd2a1e651a6eb7,5f4f8186ee39f7035271a586,3,,,,,,pepper,,,,,,0,27,27,20,1,3,0,,,,,,,,,,,,,,,,,,,,,,,,,,,,,,,,,,,,,,,,,,,,,,,,,,,,,,,,,,,,,,,,,,,,,,,,,,,,,,,,,,,,,,,,,,,,,,,,,,,,,,,,,,,,,
,,,,,,,,,,stimuli/images/PICTURE_177.png,CARS,577c065c9fecfe0001a5bcc7,12/09/1999,2020-09-02_12h32.33.321,proactive3.1,2020.1.2,Win32,60,5f47c29a48bd2a1e651a6eb7,5f4f8186ee39f7035271a586,3,,,,,,mushroom,,,,,,0,28,28,35,1,4,0,,,,,,,,,,,,,,,,,,,,,,,,,,,,,,,,,,,,,,,,,,,,,,,,,,,,,,,,,,,,,,,,,,,,,,,,,,,,,,,,,,,,,,,,,,,,,,,,,,,,,,,,,,,,,
,,,,,,,,,,stimuli/images/PICTURE_356.png,DANGER,577c065c9fecfe0001a5bcc7,12/09/1999,2020-09-02_12h32.33.321,proactive3.1,2020.1.2,Win32,60,5f47c29a48bd2a1e651a6eb7,5f4f8186ee39f7035271a586,3,,,,,,pawn,,,,,,0,29,29,55,1,6,0,,,,,,,,,,,,,,,,,,,,,,,,,,,,,,,,,,,,,,,,,,,,,,,,,,,,,,,,,,,,,,,,,,,,,,,,,,,,,,,,,,,,,,,,,,,,,,,,,,,,,,,,,,,,,
,,,,,,,,,,stimuli/images/PICTURE_147.png,MOMENT,577c065c9fecfe0001a5bcc7,12/09/1999,2020-09-02_12h32.33.321,proactive3.1,2020.1.2,Win32,60,5f47c29a48bd2a1e651a6eb7,5f4f8186ee39f7035271a586,3,,,,,,hanger,,,,,,0,30,30,51,1,6,0,,,,,,,,,,,,,,,,,,,,,,,,,,,,,,,,,,,,,,,,,,,,,,,,,,,,,,,,,,,,,,,,,,,,,,,,,,,,,,,,,,,,,,,,,,,,,,,,,,,,,,,,,,,,,
,,,,,,,,,,stimuli/images/PICTURE_85.png,THING,577c065c9fecfe0001a5bcc7,12/09/1999,2020-09-02_12h32.33.321,proactive3.1,2020.1.2,Win32,60,5f47c29a48bd2a1e651a6eb7,5f4f8186ee39f7035271a586,3,,,,,,diamond,,,,,,0,31,31,15,1,2,0,,,,,,,,,,,,,,,,,,,,,,,,,,,,,,,,,,,,,,,,,,,,,,,,,,,,,,,,,,,,,,,,,,,,,,,,,,,,,,,,,,,,,,,,,,,,,,,,,,,,,,,,,,,,,
,,,,,,,,,,stimuli/images/PICTURE_311.png,FRIEND,577c065c9fecfe0001a5bcc7,12/09/1999,2020-09-02_12h32.33.321,proactive3.1,2020.1.2,Win32,60,5f47c29a48bd2a1e651a6eb7,5f4f8186ee39f7035271a586,3,,,,,,razor,,,,,,0,32,32,34,1,4,0,,,,,,,,,,,,,,,,,,,,,,,,,,,,,,,,,,,,,,,,,,,,,,,,,,,,,,,,,,,,,,,,,,,,,,,,,,,,,,,,,,,,,,,,,,,,,,,,,,,,,,,,,,,,,
,,,,,,,,,,stimuli/images/PICTURE_123.png,ADVICE,577c065c9fecfe0001a5bcc7,12/09/1999,2020-09-02_12h32.33.321,proactive3.1,2020.1.2,Win32,60,5f47c29a48bd2a1e651a6eb7,5f4f8186ee39f7035271a586,3,,,,,,dart,,,,,,0,33,33,50,1,6,0,,,,,,,,,,,,,,,,,,,,,,,,,,,,,,,,,,,,,,,,,,,,,,,,,,,,,,,,,,,,,,,,,,,,,,,,,,,,,,,,,,,,,,,,,,,,,,,,,,,,,,,,,,,,,
,,,,,,,,,,stimuli/images/PICTURE_504.png,BODY,577c065c9fecfe0001a5bcc7,12/09/1999,2020-09-02_12h32.33.321,proactive3.1,2020.1.2,Win32,60,5f47c29a48bd2a1e651a6eb7,5f4f8186ee39f7035271a586,3,,,,,,wheel,,,,,,0,34,34,8,1,1,0,,,,,,,,,,,,,,,,,,,,,,,,,,,,,,,,,,,,,,,,,,,,,,,,,,,,,,,,,,,,,,,,,,,,,,,,,,,,,,,,,,,,,,,,,,,,,,,,,,,,,,,,,,,,,
,,,,,,,,,,stimuli/images/PICTURE_203.png,ARTIST,577c065c9fecfe0001a5bcc7,12/09/1999,2020-09-02_12h32.33.321,proactive3.1,2020.1.2,Win32,60,5f47c29a48bd2a1e651a6eb7,5f4f8186ee39f7035271a586,3,,,,,,cap,,,,,,0,35,35,26,1,3,0,,,,,,,,,,,,,,,,,,,,,,,,,,,,,,,,,,,,,,,,,,,,,,,,,,,,,,,,,,,,,,,,,,,,,,,,,,,,,,,,,,,,,,,,,,,,,,,,,,,,,,,,,,,,,
,,,,,,,,,,stimuli/images/PICTURE_160.png,FEET,577c065c9fecfe0001a5bcc7,12/09/1999,2020-09-02_12h32.33.321,proactive3.1,2020.1.2,Win32,60,5f47c29a48bd2a1e651a6eb7,5f4f8186ee39f7035271a586,3,,,,,,wheelbarrow,,,,,,0,36,36,58,1,6,0,,,,,,,,,,,,,,,,,,,,,,,,,,,,,,,,,,,,,,,,,,,,,,,,,,,,,,,,,,,,,,,,,,,,,,,,,,,,,,,,,,,,,,,,,,,,,,,,,,,,,,,,,,,,,
,,,,,,,,,,stimuli/images/PICTURE_453.png,DUDE,577c065c9fecfe0001a5bcc7,12/09/1999,2020-09-02_12h32.33.321,proactive3.1,2020.1.2,Win32,60,5f47c29a48bd2a1e651a6eb7,5f4f8186ee39f7035271a586,3,,,,,,scissors,,,,,,0,37,37,27,1,3,0,,,,,,,,,,,,,,,,,,,,,,,,,,,,,,,,,,,,,,,,,,,,,,,,,,,,,,,,,,,,,,,,,,,,,,,,,,,,,,,,,,,,,,,,,,,,,,,,,,,,,,,,,,,,,
,,,,,,,,,,stimuli/images/PICTURE_208.png,MONTH,577c065c9fecfe0001a5bcc7,12/09/1999,2020-09-02_12h32.33.321,proactive3.1,2020.1.2,Win32,60,5f47c29a48bd2a1e651a6eb7,5f4f8186ee39f7035271a586,3,,,,,,microphone,,,,,,0,38,38,53,1,6,0,,,,,,,,,,,,,,,,,,,,,,,,,,,,,,,,,,,,,,,,,,,,,,,,,,,,,,,,,,,,,,,,,,,,,,,,,,,,,,,,,,,,,,,,,,,,,,,,,,,,,,,,,,,,,
,,,,,,,,,,stimuli/images/PICTURE_123.png,ADVICE,577c065c9fecfe0001a5bcc7,12/09/1999,2020-09-02_12h32.33.321,proactive3.1,2020.1.2,Win32,60,5f47c29a48bd2a1e651a6eb7,5f4f8186ee39f7035271a586,3,,,,,,dart,,,,,,0,39,39,40,1,5,0,,,,,,,,,,,,,,,,,,,,,,,,,,,,,,,,,,,,,,,,,,,,,,,,,,,,,,,,,,,,,,,,,,,,,,,,,,,,,,,,,,,,,,,,,,,,,,,,,,,,,,,,,,,,,
,,,,,,,,,,stimuli/images/PICTURE_208.png,LOTS,577c065c9fecfe0001a5bcc7,12/09/1999,2020-09-02_12h32.33.321,proactive3.1,2020.1.2,Win32,60,5f47c29a48bd2a1e651a6eb7,5f4f8186ee39f7035271a586,3,,,,,,microphone,,,,,,0,40,40,10,1,2,0,,,,,,,,,,,,,,,,,,,,,,,,,,,,,,,,,,,,,,,,,,,,,,,,,,,,,,,,,,,,,,,,,,,,,,,,,,,,,,,,,,,,,,,,,,,,,,,,,,,,,,,,,,,,,
,,,,,,,,,,stimuli/images/PICTURE_467.png,DEMON,577c065c9fecfe0001a5bcc7,12/09/1999,2020-09-02_12h32.33.321,proactive3.1,2020.1.2,Win32,60,5f47c29a48bd2a1e651a6eb7,5f4f8186ee39f7035271a586,3,,,,,,peg,,,,,,0,41,41,23,1,3,0,,,,,,,,,,,,,,,,,,,,,,,,,,,,,,,,,,,,,,,,,,,,,,,,,,,,,,,,,,,,,,,,,,,,,,,,,,,,,,,,,,,,,,,,,,,,,,,,,,,,,,,,,,,,,
,,,,,,,,,,stimuli/images/PICTURE_32.png,JUNGLE,577c065c9fecfe0001a5bcc7,12/09/1999,2020-09-02_12h32.33.321,proactive3.1,2020.1.2,Win32,60,5f47c29a48bd2a1e651a6eb7,5f4f8186ee39f7035271a586,3,,,,,,crown,,,,,,0,42,42,45,1,5,0,,,,,,,,,,,,,,,,,,,,,,,,,,,,,,,,,,,,,,,,,,,,,,,,,,,,,,,,,,,,,,,,,,,,,,,,,,,,,,,,,,,,,,,,,,,,,,,,,,,,,,,,,,,,,
,,,,,,,,,,stimuli/images/PICTURE_744.png,SAKE,577c065c9fecfe0001a5bcc7,12/09/1999,2020-09-02_12h32.33.321,proactive3.1,2020.1.2,Win32,60,5f47c29a48bd2a1e651a6eb7,5f4f8186ee39f7035271a586,3,,,,,,ring,,,,,,0,43,43,17,1,2,0,,,,,,,,,,,,,,,,,,,,,,,,,,,,,,,,,,,,,,,,,,,,,,,,,,,,,,,,,,,,,,,,,,,,,,,,,,,,,,,,,,,,,,,,,,,,,,,,,,,,,,,,,,,,,
,,,,,,,,,,stimuli/images/PICTURE_160.png,LEADER,577c065c9fecfe0001a5bcc7,12/09/1999,2020-09-02_12h32.33.321,proactive3.1,2020.1.2,Win32,60,5f47c29a48bd2a1e651a6eb7,5f4f8186ee39f7035271a586,3,,,,,,wheelbarrow,,,,,,0,44,44,3,1,1,0,,,,,,,,,,,,,,,,,,,,,,,,,,,,,,,,,,,,,,,,,,,,,,,,,,,,,,,,,,,,,,,,,,,,,,,,,,,,,,,,,,,,,,,,,,,,,,,,,,,,,,,,,,,,,
,,,,,,,,,,stimuli/images/PICTURE_95.png,STYLE,577c065c9fecfe0001a5bcc7,12/09/1999,2020-09-02_12h32.33.321,proactive3.1,2020.1.2,Win32,60,5f47c29a48bd2a1e651a6eb7,5f4f8186ee39f7035271a586,3,,,,,,suitcase,,,,,,0,45,45,25,1,3,0,,,,,,,,,,,,,,,,,,,,,,,,,,,,,,,,,,,,,,,,,,,,,,,,,,,,,,,,,,,,,,,,,,,,,,,,,,,,,,,,,,,,,,,,,,,,,,,,,,,,,,,,,,,,,
,,,,,,,,,,stimuli/images/PICTURE_488.png,STYLE,577c065c9fecfe0001a5bcc7,12/09/1999,2020-09-02_12h32.33.321,proactive3.1,2020.1.2,Win32,60,5f47c29a48bd2a1e651a6eb7,5f4f8186ee39f7035271a586,3,,,,,,sun,,,,,,0,46,46,33,1,4,0,,,,,,,,,,,,,,,,,,,,,,,,,,,,,,,,,,,,,,,,,,,,,,,,,,,,,,,,,,,,,,,,,,,,,,,,,,,,,,,,,,,,,,,,,,,,,,,,,,,,,,,,,,,,,
,,,,,,,,,,stimuli/images/PICTURE_469.png,ARTIST,577c065c9fecfe0001a5bcc7,12/09/1999,2020-09-02_12h32.33.321,proactive3.1,2020.1.2,Win32,60,5f47c29a48bd2a1e651a6eb7,5f4f8186ee39f7035271a586,3,,,,,,stool,,,,,,0,47,47,6,1,1,0,,,,,,,,,,,,,,,,,,,,,,,,,,,,,,,,,,,,,,,,,,,,,,,,,,,,,,,,,,,,,,,,,,,,,,,,,,,,,,,,,,,,,,,,,,,,,,,,,,,,,,,,,,,,,
,,,,,,,,,,stimuli/images/PICTURE_667.png,PLENTY,577c065c9fecfe0001a5bcc7,12/09/1999,2020-09-02_12h32.33.321,proactive3.1,2020.1.2,Win32,60,5f47c29a48bd2a1e651a6eb7,5f4f8186ee39f7035271a586,3,,,,,,daisy,,,,,,0,48,48,41,1,5,0,,,,,,,,,,,,,,,,,,,,,,,,,,,,,,,,,,,,,,,,,,,,,,,,,,,,,,,,,,,,,,,,,,,,,,,,,,,,,,,,,,,,,,,,,,,,,,,,,,,,,,,,,,,,,
,,,,,,,,,,stimuli/images/PICTURE_311.png,BEAUTY,577c065c9fecfe0001a5bcc7,12/09/1999,2020-09-02_12h32.33.321,proactive3.1,2020.1.2,Win32,60,5f47c29a48bd2a1e651a6eb7,5f4f8186ee39f7035271a586,3,,,,,,razor,,,,,,0,49,49,13,1,2,0,,,,,,,,,,,,,,,,,,,,,,,,,,,,,,,,,,,,,,,,,,,,,,,,,,,,,,,,,,,,,,,,,,,,,,,,,,,,,,,,,,,,,,,,,,,,,,,,,,,,,,,,,,,,,
,,,,,,,,,,stimuli/images/PICTURE_255.png,AREA,577c065c9fecfe0001a5bcc7,12/09/1999,2020-09-02_12h32.33.321,proactive3.1,2020.1.2,Win32,60,5f47c29a48bd2a1e651a6eb7,5f4f8186ee39f7035271a586,3,,,,,,shovel,,,,,,0,50,50,22,1,3,0,,,,,,,,,,,,,,,,,,,,,,,,,,,,,,,,,,,,,,,,,,,,,,,,,,,,,,,,,,,,,,,,,,,,,,,,,,,,,,,,,,,,,,,,,,,,,,,,,,,,,,,,,,,,,
,,,,,,,,,,stimuli/images/PICTURE_692.png,MONTH,577c065c9fecfe0001a5bcc7,12/09/1999,2020-09-02_12h32.33.321,proactive3.1,2020.1.2,Win32,60,5f47c29a48bd2a1e651a6eb7,5f4f8186ee39f7035271a586,3,,,,,,cherry,,,,,,0,51,51,16,1,2,0,,,,,,,,,,,,,,,,,,,,,,,,,,,,,,,,,,,,,,,,,,,,,,,,,,,,,,,,,,,,,,,,,,,,,,,,,,,,,,,,,,,,,,,,,,,,,,,,,,,,,,,,,,,,,
,,,,,,,,,,stimuli/images/PICTURE_233.png,IDEAS,577c065c9fecfe0001a5bcc7,12/09/1999,2020-09-02_12h32.33.321,proactive3.1,2020.1.2,Win32,60,5f47c29a48bd2a1e651a6eb7,5f4f8186ee39f7035271a586,3,,,,,,salt,,,,,,0,52,52,28,1,3,0,,,,,,,,,,,,,,,,,,,,,,,,,,,,,,,,,,,,,,,,,,,,,,,,,,,,,,,,,,,,,,,,,,,,,,,,,,,,,,,,,,,,,,,,,,,,,,,,,,,,,,,,,,,,,
,,,,,,,,,,stimuli/images/PICTURE_654.png,VALLEY,577c065c9fecfe0001a5bcc7,12/09/1999,2020-09-02_12h32.33.321,proactive3.1,2020.1.2,Win32,60,5f47c29a48bd2a1e651a6eb7,5f4f8186ee39f7035271a586,3,,,,,,pencil,,,,,,0,53,53,1,1,1,0,,,,,,,,,,,,,,,,,,,,,,,,,,,,,,,,,,,,,,,,,,,,,,,,,,,,,,,,,,,,,,,,,,,,,,,,,,,,,,,,,,,,,,,,,,,,,,,,,,,,,,,,,,,,,
,,,,,,,,,,stimuli/images/PICTURE_491.png,WRITER,577c065c9fecfe0001a5bcc7,12/09/1999,2020-09-02_12h32.33.321,proactive3.1,2020.1.2,Win32,60,5f47c29a48bd2a1e651a6eb7,5f4f8186ee39f7035271a586,3,,,,,,rug,,,,,,0,54,54,57,1,6,0,,,,,,,,,,,,,,,,,,,,,,,,,,,,,,,,,,,,,,,,,,,,,,,,,,,,,,,,,,,,,,,,,,,,,,,,,,,,,,,,,,,,,,,,,,,,,,,,,,,,,,,,,,,,,
,,,,,,,,,,stimuli/images/PICTURE_708.png,YARD,577c065c9fecfe0001a5bcc7,12/09/1999,2020-09-02_12h32.33.321,proactive3.1,2020.1.2,Win32,60,5f47c29a48bd2a1e651a6eb7,5f4f8186ee39f7035271a586,3,,,,,,monkey,,,,,,0,55,55,29,1,3,0,,,,,,,,,,,,,,,,,,,,,,,,,,,,,,,,,,,,,,,,,,,,,,,,,,,,,,,,,,,,,,,,,,,,,,,,,,,,,,,,,,,,,,,,,,,,,,,,,,,,,,,,,,,,,
,,,,,,,,,,stimuli/images/PICTURE_339.png,PLENTY,577c065c9fecfe0001a5bcc7,12/09/1999,2020-09-02_12h32.33.321,proactive3.1,2020.1.2,Win32,60,5f47c29a48bd2a1e651a6eb7,5f4f8186ee39f7035271a586,3,,,,,,backpack,,,,,,0,56,56,0,1,1,0,,,,,,,,,,,,,,,,,,,,,,,,,,,,,,,,,,,,,,,,,,,,,,,,,,,,,,,,,,,,,,,,,,,,,,,,,,,,,,,,,,,,,,,,,,,,,,,,,,,,,,,,,,,,,
,,,,,,,,,,stimuli/images/PICTURE_314.png,GODS,577c065c9fecfe0001a5bcc7,12/09/1999,2020-09-02_12h32.33.321,proactive3.1,2020.1.2,Win32,60,5f47c29a48bd2a1e651a6eb7,5f4f8186ee39f7035271a586,3,,,,,,perfume,,,,,,0,57,57,11,1,2,0,,,,,,,,,,,,,,,,,,,,,,,,,,,,,,,,,,,,,,,,,,,,,,,,,,,,,,,,,,,,,,,,,,,,,,,,,,,,,,,,,,,,,,,,,,,,,,,,,,,,,,,,,,,,,
,,,,,,,,,,stimuli/images/PICTURE_308.png,ESTATE,577c065c9fecfe0001a5bcc7,12/09/1999,2020-09-02_12h32.33.321,proactive3.1,2020.1.2,Win32,60,5f47c29a48bd2a1e651a6eb7,5f4f8186ee39f7035271a586,3,,,,,,dice,,,,,,0,58,58,46,1,5,0,,,,,,,,,,,,,,,,,,,,,,,,,,,,,,,,,,,,,,,,,,,,,,,,,,,,,,,,,,,,,,,,,,,,,,,,,,,,,,,,,,,,,,,,,,,,,,,,,,,,,,,,,,,,,
,,?,0.00282,0,,,,,,stimuli/images/PICTURE_380.png,PHOTO,577c065c9fecfe0001a5bcc7,12/09/1999,2020-09-02_12h32.33.321,proactive3.1,2020.1.2,Win32,60,5f47c29a48bd2a1e651a6eb7,5f4f8186ee39f7035271a586,3,,,,,,gorilla,,,,,,,,,,,6,0,0,0,0,52,1,,,,,,,,,,,,,,,,,,,,,,,,,,,,,,,,,,,,,,,,,,,,,,,,,,,,,,,,,,,,,,,,,,,,,,,,,,,,,,,,,,,,,,,,,,,,,,,,,,,,,,,,
,,ARTIST,4.81072,1,,,,,,stimuli/images/PICTURE_203.png,ARTIST,577c065c9fecfe0001a5bcc7,12/09/1999,2020-09-02_12h32.33.321,proactive3.1,2020.1.2,Win32,60,5f47c29a48bd2a1e651a6eb7,5f4f8186ee39f7035271a586,3,,,,,,cap,,,,,,,,,,,3,0,0,1,1,26,1,,,,,,,,,,,,,,,,,,,,,,,,,,,,,,,,,,,,,,,,,,,,,,,,,,,,,,,,,,,,,,,,,,,,,,,,,,,,,,,,,,,,,,,,,,,,,,,,,,,,,,,,
,,ROOF,2.614715,1,,,,,,stimuli/images/PICTURE_491.png,ROOF,577c065c9fecfe0001a5bcc7,12/09/1999,2020-09-02_12h32.33.321,proactive3.1,2020.1.2,Win32,60,5f47c29a48bd2a1e651a6eb7,5f4f8186ee39f7035271a586,3,,,,,,rug,,,,,,,,,,,3,0,0,2,2,24,1,,,,,,,,,,,,,,,,,,,,,,,,,,,,,,,,,,,,,,,,,,,,,,,,,,,,,,,,,,,,,,,,,,,,,,,,,,,,,,,,,,,,,,,,,,,,,,,,,,,,,,,,
,,?,0.003125,0,,,,,,stimuli/images/PICTURE_68.png,MILE,577c065c9fecfe0001a5bcc7,12/09/1999,2020-09-02_12h32.33.321,proactive3.1,2020.1.2,Win32,60,5f47c29a48bd2a1e651a6eb7,5f4f8186ee39f7035271a586,3,,,,,,candle,,,,,,,,,,,5,0,0,3,3,44,1,,,,,,,,,,,,,,,,,,,,,,,,,,,,,,,,,,,,,,,,,,,,,,,,,,,,,,,,,,,,,,,,,,,,,,,,,,,,,,,,,,,,,,,,,,,,,,,,,,,,,,,,
,,?,0.00162,0,,,,,,stimuli/images/PICTURE_308.png,ESTATE,577c065c9fecfe0001a5bcc7,12/09/1999,2020-09-02_12h32.33.321,proactive3.1,2020.1.2,Win32,60,5f47c29a48bd2a1e651a6eb7,5f4f8186ee39f7035271a586,3,,,,,,dice,,,,,,,,,,,5,0,0,4,4,46,1,,,,,,,,,,,,,,,,,,,,,,,,,,,,,,,,,,,,,,,,,,,,,,,,,,,,,,,,,,,,,,,,,,,,,,,,,,,,,,,,,,,,,,,,,,,,,,,,,,,,,,,,
,,?,0.001645,0,,,,,,stimuli/images/PICTURE_469.png,ARTIST,577c065c9fecfe0001a5bcc7,12/09/1999,2020-09-02_12h32.33.321,proactive3.1,2020.1.2,Win32,60,5f47c29a48bd2a1e651a6eb7,5f4f8186ee39f7035271a586,3,,,,,,stool,,,,,,,,,,,1,0,0,5,5,6,1,,,,,,,,,,,,,,,,,,,,,,,,,,,,,,,,,,,,,,,,,,,,,,,,,,,,,,,,,,,,,,,,,,,,,,,,,,,,,,,,,,,,,,,,,,,,,,,,,,,,,,,,
,,?,0.00215,0,,,,,,stimuli/images/PICTURE_327.png,BEAUTY,577c065c9fecfe0001a5bcc7,12/09/1999,2020-09-02_12h32.33.321,proactive3.1,2020.1.2,Win32,60,5f47c29a48bd2a1e651a6eb7,5f4f8186ee39f7035271a586,3,,,,,,helmet,,,,,,,,,,,5,0,0,6,6,48,1,,,,,,,,,,,,,,,,,,,,,,,,,,,,,,,,,,,,,,,,,,,,,,,,,,,,,,,,,,,,,,,,,,,,,,,,,,,,,,,,,,,,,,,,,,,,,,,,,,,,,,,,
,,?,0.001995,0,,,,,,stimuli/images/PICTURE_208.png,LOTS,577c065c9fecfe0001a5bcc7,12/09/1999,2020-09-02_12h32.33.321,proactive3.1,2020.1.2,Win32,60,5f47c29a48bd2a1e651a6eb7,5f4f8186ee39f7035271a586,3,,,,,,microphone,,,,,,,,,,,2,0,0,7,7,10,1,,,,,,,,,,,,,,,,,,,,,,,,,,,,,,,,,,,,,,,,,,,,,,,,,,,,,,,,,,,,,,,,,,,,,,,,,,,,,,,,,,,,,,,,,,,,,,,,,,,,,,,,
,,?,0.001615,0,,,,,,stimuli/images/PICTURE_744.png,SYSTEM,577c065c9fecfe0001a5bcc7,12/09/1999,2020-09-02_12h32.33.321,proactive3.1,2020.1.2,Win32,60,5f47c29a48bd2a1e651a6eb7,5f4f8186ee39f7035271a586,3,,,,,,ring,,,,,,,,,,,5,0,0,8,8,43,1,,,,,,,,,,,,,,,,,,,,,,,,,,,,,,,,,,,,,,,,,,,,,,,,,,,,,,,,,,,,,,,,,,,,,,,,,,,,,,,,,,,,,,,,,,,,,,,,,,,,,,,,
,,?,0.0017,0,,,,,,stimuli/images/PICTURE_356.png,DANGER,577c065c9fecfe0001a5bcc7,12/09/1999,2020-09-02_12h32.33.321,proactive3.1,2020.1.2,Win32,60,5f47c29a48bd2a1e651a6eb7,5f4f8186ee39f7035271a586,3,,,,,,pawn,,,,,,,,,,,6,0,0,9,9,55,1,,,,,,,,,,,,,,,,,,,,,,,,,,,,,,,,,,,,,,,,,,,,,,,,,,,,,,,,,,,,,,,,,,,,,,,,,,,,,,,,,,,,,,,,,,,,,,,,,,,,,,,,
,,?,0.002195,0,,,,,,stimuli/images/PICTURE_692.png,MONTH,577c065c9fecfe0001a5bcc7,12/09/1999,2020-09-02_12h32.33.321,proactive3.1,2020.1.2,Win32,60,5f47c29a48bd2a1e651a6eb7,5f4f8186ee39f7035271a586,3,,,,,,cherry,,,,,,,,,,,2,0,0,10,10,16,1,,,,,,,,,,,,,,,,,,,,,,,,,,,,,,,,,,,,,,,,,,,,,,,,,,,,,,,,,,,,,,,,,,,,,,,,,,,,,,,,,,,,,,,,,,,,,,,,,,,,,,,,
,,?,0.00192,0,,,,,,stimuli/images/PICTURE_688.png,WOMEN,577c065c9fecfe0001a5bcc7,12/09/1999,2020-09-02_12h32.33.321,proactive3.1,2020.1.2,Win32,60,5f47c29a48bd2a1e651a6eb7,5f4f8186ee39f7035271a586,3,,,,,,runner,,,,,,,,,,,2,0,0,11,11,14,1,,,,,,,,,,,,,,,,,,,,,,,,,,,,,,,,,,,,,,,,,,,,,,,,,,,,,,,,,,,,,,,,,,,,,,,,,,,,,,,,,,,,,,,,,,,,,,,,,,,,,,,,
,,?,0.0024,0,,,,,,stimuli/images/PICTURE_708.png,CLIENT,577c065c9fecfe0001a5bcc7,12/09/1999,2020-09-02_12h32.33.321,proactive3.1,2020.1.2,Win32,60,5f47c29a48bd2a1e651a6eb7,5f4f8186ee39f7035271a586,3,,,,,,monkey,,,,,,,,,,,1,0,0,12,12,5,1,,,,,,,,,,,,,,,,,,,,,,,,,,,,,,,,,,,,,,,,,,,,,,,,,,,,,,,,,,,,,,,,,,,,,,,,,,,,,,,,,,,,,,,,,,,,,,,,,,,,,,,,
,,?,0.00177,0,,,,,,stimuli/images/PICTURE_667.png,PLENTY,577c065c9fecfe0001a5bcc7,12/09/1999,2020-09-02_12h32.33.321,proactive3.1,2020.1.2,Win32,60,5f47c29a48bd2a1e651a6eb7,5f4f8186ee39f7035271a586,3,,,,,,daisy,,,,,,,,,,,5,0,0,13,13,41,1,,,,,,,,,,,,,,,,,,,,,,,,,,,,,,,,,,,,,,,,,,,,,,,,,,,,,,,,,,,,,,,,,,,,,,,,,,,,,,,,,,,,,,,,,,,,,,,,,,,,,,,,
,,?,0.002105,0,,,,,,stimuli/images/PICTURE_123.png,ADVICE,577c065c9fecfe0001a5bcc7,12/09/1999,2020-09-02_12h32.33.321,proactive3.1,2020.1.2,Win32,60,5f47c29a48bd2a1e651a6eb7,5f4f8186ee39f7035271a586,3,,,,,,dart,,,,,,,,,,,5,0,0,14,14,40,1,,,,,,,,,,,,,,,,,,,,,,,,,,,,,,,,,,,,,,,,,,,,,,,,,,,,,,,,,,,,,,,,,,,,,,,,,,,,,,,,,,,,,,,,,,,,,,,,,,,,,,,,
,,?,0.00227,0,,,,,,stimuli/images/PICTURE_314.png,SAKE,577c065c9fecfe0001a5bcc7,12/09/1999,2020-09-02_12h32.33.321,proactive3.1,2020.1.2,Win32,60,5f47c29a48bd2a1e651a6eb7,5f4f8186ee39f7035271a586,3,,,,,,perfume,,,,,,,,,,,1,0,0,15,15,7,1,,,,,,,,,,,,,,,,,,,,,,,,,,,,,,,,,,,,,,,,,,,,,,,,,,,,,,,,,,,,,,,,,,,,,,,,,,,,,,,,,,,,,,,,,,,,,,,,,,,,,,,,
,,DEMON,2.96552,1,,,,,,stimuli/images/PICTURE_467.png,DEMON,577c065c9fecfe0001a5bcc7,12/09/1999,2020-09-02_12h32.33.321,proactive3.1,2020.1.2,Win32,60,5f47c29a48bd2a1e651a6eb7,5f4f8186ee39f7035271a586,3,,,,,,peg,,,,,,,,,,,3,0,0,16,16,23,1,,,,,,,,,,,,,,,,,,,,,,,,,,,,,,,,,,,,,,,,,,,,,,,,,,,,,,,,,,,,,,,,,,,,,,,,,,,,,,,,,,,,,,,,,,,,,,,,,,,,,,,,
,,?,0.00292,0,,,,,,stimuli/images/PICTURE_147.png,MOMENT,577c065c9fecfe0001a5bcc7,12/09/1999,2020-09-02_12h32.33.321,proactive3.1,2020.1.2,Win32,60,5f47c29a48bd2a1e651a6eb7,5f4f8186ee39f7035271a586,3,,,,,,hanger,,,,,,,,,,,6,0,0,17,17,51,1,,,,,,,,,,,,,,,,,,,,,,,,,,,,,,,,,,,,,,,,,,,,,,,,,,,,,,,,,,,,,,,,,,,,,,,,,,,,,,,,,,,,,,,,,,,,,,,,,,,,,,,,
,,?,0.001685,0,,,,,,stimuli/images/PICTURE_339.png,PLENTY,577c065c9fecfe0001a5bcc7,12/09/1999,2020-09-02_12h32.33.321,proactive3.1,2020.1.2,Win32,60,5f47c29a48bd2a1e651a6eb7,5f4f8186ee39f7035271a586,3,,,,,,backpack,,,,,,,,,,,1,0,0,18,18,0,1,,,,,,,,,,,,,,,,,,,,,,,,,,,,,,,,,,,,,,,,,,,,,,,,,,,,,,,,,,,,,,,,,,,,,,,,,,,,,,,,,,,,,,,,,,,,,,,,,,,,,,,,
,,?,0.00159,0,,,,,,stimuli/images/PICTURE_708.png,PENNY,577c065c9fecfe0001a5bcc7,12/09/1999,2020-09-02_12h32.33.321,proactive3.1,2020.1.2,Win32,60,5f47c29a48bd2a1e651a6eb7,5f4f8186ee39f7035271a586,3,,,,,,monkey,,,,,,,,,,,4,0,0,19,19,31,1,,,,,,,,,,,,,,,,,,,,,,,,,,,,,,,,,,,,,,,,,,,,,,,,,,,,,,,,,,,,,,,,,,,,,,,,,,,,,,,,,,,,,,,,,,,,,,,,,,,,,,,,
,,?,0.002045,0,,,,,,stimuli/images/PICTURE_675.png,WEAPON,577c065c9fecfe0001a5bcc7,12/09/1999,2020-09-02_12h32.33.321,proactive3.1,2020.1.2,Win32,60,5f47c29a48bd2a1e651a6eb7,5f4f8186ee39f7035271a586,3,,,,,,windmill,,,,,,,,,,,4,0,0,20,20,32,1,,,,,,,,,,,,,,,,,,,,,,,,,,,,,,,,,,,,,,,,,,,,,,,,,,,,,,,,,,,,,,,,,,,,,,,,,,,,,,,,,,,,,,,,,,,,,,,,,,,,,,,,
,,?,0.001365,0,,,,,,stimuli/images/PICTURE_32.png,JUNGLE,577c065c9fecfe0001a5bcc7,12/09/1999,2020-09-02_12h32.33.321,proactive3.1,2020.1.2,Win32,60,5f47c29a48bd2a1e651a6eb7,5f4f8186ee39f7035271a586,3,,,,,,crown,,,,,,,,,,,5,0,0,21,21,45,1,,,,,,,,,,,,,,,,,,,,,,,,,,,,,,,,,,,,,,,,,,,,,,,,,,,,,,,,,,,,,,,,,,,,,,,,,,,,,,,,,,,,,,,,,,,,,,,,,,,,,,,,
,,?,0.00144,0,,,,,,stimuli/images/PICTURE_285.png,ADVICE,577c065c9fecfe0001a5bcc7,12/09/1999,2020-09-02_12h32.33.321,proactive3.1,2020.1.2,Win32,60,5f47c29a48bd2a1e651a6eb7,5f4f8186ee39f7035271a586,3,,,,,,carrot,,,,,,,,,,,2,0,0,22,22,12,1,,,,,,,,,,,,,,,,,,,,,,,,,,,,,,,,,,,,,,,,,,,,,,,,,,,,,,,,,,,,,,,,,,,,,,,,,,,,,,,,,,,,,,,,,,,,,,,,,,,,,,,,
,,?,0.00143,0,,,,,,stimuli/images/PICTURE_469.png,LETTER,577c065c9fecfe0001a5bcc7,12/09/1999,2020-09-02_12h32.33.321,proactive3.1,2020.1.2,Win32,60,5f47c29a48bd2a1e651a6eb7,5f4f8186ee39f7035271a586,3,,,,,,stool,,,,,,,,,,,5,0,0,23,23,42,1,,,,,,,,,,,,,,,,,,,,,,,,,,,,,,,,,,,,,,,,,,,,,,,,,,,,,,,,,,,,,,,,,,,,,,,,,,,,,,,,,,,,,,,,,,,,,,,,,,,,,,,,
,,?,0.00137,0,,,,,,stimuli/images/PICTURE_311.png,BEAUTY,577c065c9fecfe0001a5bcc7,12/09/1999,2020-09-02_12h32.33.321,proactive3.1,2020.1.2,Win32,60,5f47c29a48bd2a1e651a6eb7,5f4f8186ee39f7035271a586,3,,,,,,razor,,,,,,,,,,,2,0,0,24,24,13,1,,,,,,,,,,,,,,,,,,,,,,,,,,,,,,,,,,,,,,,,,,,,,,,,,,,,,,,,,,,,,,,,,,,,,,,,,,,,,,,,,,,,,,,,,,,,,,,,,,,,,,,,
,,?,0.001575,0,,,,,,stimuli/images/PICTURE_314.png,GODS,577c065c9fecfe0001a5bcc7,12/09/1999,2020-09-02_12h32.33.321,proactive3.1,2020.1.2,Win32,60,5f47c29a48bd2a1e651a6eb7,5f4f8186ee39f7035271a586,3,,,,,,perfume,,,,,,,,,,,2,0,0,25,25,11,1,,,,,,,,,,,,,,,,,,,,,,,,,,,,,,,,,,,,,,,,,,,,,,,,,,,,,,,,,,,,,,,,,,,,,,,,,,,,,,,,,,,,,,,,,,,,,,,,,,,,,,,,
,,?,0.001905,0,,,,,,stimuli/images/PICTURE_302.png,FAMILY,577c065c9fecfe0001a5bcc7,12/09/1999,2020-09-02_12h32.33.321,proactive3.1,2020.1.2,Win32,60,5f47c29a48bd2a1e651a6eb7,5f4f8186ee39f7035271a586,3,,,,,,taxi,,,,,,,,,,,2,0,0,26,26,18,1,,,,,,,,,,,,,,,,,,,,,,,,,,,,,,,,,,,,,,,,,,,,,,,,,,,,,,,,,,,,,,,,,,,,,,,,,,,,,,,,,,,,,,,,,,,,,,,,,,,,,,,,
,,?,0.00199,0,,,,,,stimuli/images/PICTURE_449.png,THING,577c065c9fecfe0001a5bcc7,12/09/1999,2020-09-02_12h32.33.321,proactive3.1,2020.1.2,Win32,60,5f47c29a48bd2a1e651a6eb7,5f4f8186ee39f7035271a586,3,,,,,,bench,,,,,,,,,,,6,0,0,27,27,59,1,,,,,,,,,,,,,,,,,,,,,,,,,,,,,,,,,,,,,,,,,,,,,,,,,,,,,,,,,,,,,,,,,,,,,,,,,,,,,,,,,,,,,,,,,,,,,,,,,,,,,,,,
,,?,0.002325,0,,,,,,stimuli/images/PICTURE_380.png,DEATH,577c065c9fecfe0001a5bcc7,12/09/1999,2020-09-02_12h32.33.321,proactive3.1,2020.1.2,Win32,60,5f47c29a48bd2a1e651a6eb7,5f4f8186ee39f7035271a586,3,,,,,,gorilla,,,,,,,,,,,5,0,0,28,28,49,1,,,,,,,,,,,,,,,,,,,,,,,,,,,,,,,,,,,,,,,,,,,,,,,,,,,,,,,,,,,,,,,,,,,,,,,,,,,,,,,,,,,,,,,,,,,,,,,,,,,,,,,,
,,?,0.001835,0,,,,,,stimuli/images/PICTURE_470.png,CASINO,577c065c9fecfe0001a5bcc7,12/09/1999,2020-09-02_12h32.33.321,proactive3.1,2020.1.2,Win32,60,5f47c29a48bd2a1e651a6eb7,5f4f8186ee39f7035271a586,3,,,,,,motorbike,,,,,,,,,,,4,0,0,29,29,36,1,,,,,,,,,,,,,,,,,,,,,,,,,,,,,,,,,,,,,,,,,,,,,,,,,,,,,,,,,,,,,,,,,,,,,,,,,,,,,,,,,,,,,,,,,,,,,,,,,,,,,,,,
,,?,0.001455,0,,,,,,stimuli/images/PICTURE_488.png,STYLE,577c065c9fecfe0001a5bcc7,12/09/1999,2020-09-02_12h32.33.321,proactive3.1,2020.1.2,Win32,60,5f47c29a48bd2a1e651a6eb7,5f4f8186ee39f7035271a586,3,,,,,,sun,,,,,,,,,,,4,0,0,30,30,33,1,,,,,,,,,,,,,,,,,,,,,,,,,,,,,,,,,,,,,,,,,,,,,,,,,,,,,,,,,,,,,,,,,,,,,,,,,,,,,,,,,,,,,,,,,,,,,,,,,,,,,,,,
,,SPEECH,3.42599,1,,,,,,stimuli/images/PICTURE_348.png,SPEECH,577c065c9fecfe0001a5bcc7,12/09/1999,2020-09-02_12h32.33.321,proactive3.1,2020.1.2,Win32,60,5f47c29a48bd2a1e651a6eb7,5f4f8186ee39f7035271a586,3,,,,,,pepper,,,,,,,,,,,3,0,0,31,31,20,1,,,,,,,,,,,,,,,,,,,,,,,,,,,,,,,,,,,,,,,,,,,,,,,,,,,,,,,,,,,,,,,,,,,,,,,,,,,,,,,,,,,,,,,,,,,,,,,,,,,,,,,,
,,PHOTO,4.554695,1,,,,,,stimuli/images/PICTURE_509.png,PHOTO,577c065c9fecfe0001a5bcc7,12/09/1999,2020-09-02_12h32.33.321,proactive3.1,2020.1.2,Win32,60,5f47c29a48bd2a1e651a6eb7,5f4f8186ee39f7035271a586,3,,,,,,telephone,,,,,,,,,,,3,0,0,32,32,21,1,,,,,,,,,,,,,,,,,,,,,,,,,,,,,,,,,,,,,,,,,,,,,,,,,,,,,,,,,,,,,,,,,,,,,,,,,,,,,,,,,,,,,,,,,,,,,,,,,,,,,,,,
,,DUDE,4.784585,1,,,,,,stimuli/images/PICTURE_453.png,DUDE,577c065c9fecfe0001a5bcc7,12/09/1999,2020-09-02_12h32.33.321,proactive3.1,2020.1.2,Win32,60,5f47c29a48bd2a1e651a6eb7,5f4f8186ee39f7035271a586,3,,,,,,scissors,,,,,,,,,,,3,0,0,33,33,27,1,,,,,,,,,,,,,,,,,,,,,,,,,,,,,,,,,,,,,,,,,,,,,,,,,,,,,,,,,,,,,,,,,,,,,,,,,,,,,,,,,,,,,,,,,,,,,,,,,,,,,,,,
,,?,0.002575,0,,,,,,stimuli/images/PICTURE_248.png,DOZEN,577c065c9fecfe0001a5bcc7,12/09/1999,2020-09-02_12h32.33.321,proactive3.1,2020.1.2,Win32,60,5f47c29a48bd2a1e651a6eb7,5f4f8186ee39f7035271a586,3,,,,,,cart,,,,,,,,,,,4,0,0,34,34,39,1,,,,,,,,,,,,,,,,,,,,,,,,,,,,,,,,,,,,,,,,,,,,,,,,,,,,,,,,,,,,,,,,,,,,,,,,,,,,,,,,,,,,,,,,,,,,,,,,,,,,,,,,
,,?,0.00346,0,,,,,,stimuli/images/PICTURE_654.png,VALLEY,577c065c9fecfe0001a5bcc7,12/09/1999,2020-09-02_12h32.33.321,proactive3.1,2020.1.2,Win32,60,5f47c29a48bd2a1e651a6eb7,5f4f8186ee39f7035271a586,3,,,,,,pencil,,,,,,,,,,,1,0,0,35,35,1,1,,,,,,,,,,,,,,,,,,,,,,,,,,,,,,,,,,,,,,,,,,,,,,,,,,,,,,,,,,,,,,,,,,,,,,,,,,,,,,,,,,,,,,,,,,,,,,,,,,,,,,,,
,,?,0.002415,0,,,,,,stimuli/images/PICTURE_688.png,CASINO,577c065c9fecfe0001a5bcc7,12/09/1999,2020-09-02_12h32.33.321,proactive3.1,2020.1.2,Win32,60,5f47c29a48bd2a1e651a6eb7,5f4f8186ee39f7035271a586,3,,,,,,runner,,,,,,,,,,,1,0,0,36,36,2,1,,,,,,,,,,,,,,,,,,,,,,,,,,,,,,,,,,,,,,,,,,,,,,,,,,,,,,,,,,,,,,,,,,,,,,,,,,,,,,,,,,,,,,,,,,,,,,,,,,,,,,,,
,,?,0.00246,0,,,,,,stimuli/images/PICTURE_667.png,BATH,577c065c9fecfe0001a5bcc7,12/09/1999,2020-09-02_12h32.33.321,proactive3.1,2020.1.2,Win32,60,5f47c29a48bd2a1e651a6eb7,5f4f8186ee39f7035271a586,3,,,,,,daisy,,,,,,,,,,,1,0,0,37,37,4,1,,,,,,,,,,,,,,,,,,,,,,,,,,,,,,,,,,,,,,,,,,,,,,,,,,,,,,,,,,,,,,,,,,,,,,,,,,,,,,,,,,,,,,,,,,,,,,,,,,,,,,,,
,,?,0.004565,0,,,,,,stimuli/images/PICTURE_233.png,WOMEN,577c065c9fecfe0001a5bcc7,12/09/1999,2020-09-02_12h32.33.321,proactive3.1,2020.1.2,Win32,60,5f47c29a48bd2a1e651a6eb7,5f4f8186ee39f7035271a586,3,,,,,,salt,,,,,,,,,,,4,0,0,38,38,38,1,,,,,,,,,,,,,,,,,,,,,,,,,,,,,,,,,,,,,,,,,,,,,,,,,,,,,,,,,,,,,,,,,,,,,,,,,,,,,,,,,,,,,,,,,,,,,,,,,,,,,,,,
,,?,0.002735,0,,,,,,stimuli/images/PICTURE_744.png,SAKE,577c065c9fecfe0001a5bcc7,12/09/1999,2020-09-02_12h32.33.321,proactive3.1,2020.1.2,Win32,60,5f47c29a48bd2a1e651a6eb7,5f4f8186ee39f7035271a586,3,,,,,,ring,,,,,,,,,,,2,0,0,39,39,17,1,,,,,,,,,,,,,,,,,,,,,,,,,,,,,,,,,,,,,,,,,,,,,,,,,,,,,,,,,,,,,,,,,,,,,,,,,,,,,,,,,,,,,,,,,,,,,,,,,,,,,,,,
,,?,0.002395,0,,,,,,stimuli/images/PICTURE_677.png,MILE,577c065c9fecfe0001a5bcc7,12/09/1999,2020-09-02_12h32.33.321,proactive3.1,2020.1.2,Win32,60,5f47c29a48bd2a1e651a6eb7,5f4f8186ee39f7035271a586,3,,,,,,map,,,,,,,,,,,4,0,0,40,40,30,1,,,,,,,,,,,,,,,,,,,,,,,,,,,,,,,,,,,,,,,,,,,,,,,,,,,,,,,,,,,,,,,,,,,,,,,,,,,,,,,,,,,,,,,,,,,,,,,,,,,,,,,,
,,?,0.00235,0,,,,,,stimuli/images/PICTURE_487.png,FLIGHT,577c065c9fecfe0001a5bcc7,12/09/1999,2020-09-02_12h32.33.321,proactive3.1,2020.1.2,Win32,60,5f47c29a48bd2a1e651a6eb7,5f4f8186ee39f7035271a586,3,,,,,,basket,,,,,,,,,,,1,0,0,41,41,9,1,,,,,,,,,,,,,,,,,,,,,,,,,,,,,,,,,,,,,,,,,,,,,,,,,,,,,,,,,,,,,,,,,,,,,,,,,,,,,,,,,,,,,,,,,,,,,,,,,,,,,,,,
,,?,0.0027,0,,,,,,stimuli/images/PICTURE_453.png,PLENTY,577c065c9fecfe0001a5bcc7,12/09/1999,2020-09-02_12h32.33.321,proactive3.1,2020.1.2,Win32,60,5f47c29a48bd2a1e651a6eb7,5f4f8186ee39f7035271a586,3,,,,,,scissors,,,,,,,,,,,6,0,0,42,42,56,1,,,,,,,,,,,,,,,,,,,,,,,,,,,,,,,,,,,,,,,,,,,,,,,,,,,,,,,,,,,,,,,,,,,,,,,,,,,,,,,,,,,,,,,,,,,,,,,,,,,,,,,,
,,IDEAS,3.112555,1,,,,,,stimuli/images/PICTURE_233.png,IDEAS,577c065c9fecfe0001a5bcc7,12/09/1999,2020-09-02_12h32.33.321,proactive3.1,2020.1.2,Win32,60,5f47c29a48bd2a1e651a6eb7,5f4f8186ee39f7035271a586,3,,,,,,salt,,,,,,,,,,,3,0,0,43,43,28,1,,,,,,,,,,,,,,,,,,,,,,,,,,,,,,,,,,,,,,,,,,,,,,,,,,,,,,,,,,,,,,,,,,,,,,,,,,,,,,,,,,,,,,,,,,,,,,,,,,,,,,,,
,,STYLE,3.138175,1,,,,,,stimuli/images/PICTURE_95.png,STYLE,577c065c9fecfe0001a5bcc7,12/09/1999,2020-09-02_12h32.33.321,proactive3.1,2020.1.2,Win32,60,5f47c29a48bd2a1e651a6eb7,5f4f8186ee39f7035271a586,3,,,,,,suitcase,,,,,,,,,,,3,0,0,44,44,25,1,,,,,,,,,,,,,,,,,,,,,,,,,,,,,,,,,,,,,,,,,,,,,,,,,,,,,,,,,,,,,,,,,,,,,,,,,,,,,,,,,,,,,,,,,,,,,,,,,,,,,,,,
,,?,0.00365,0,,,,,,stimuli/images/PICTURE_308.png,KIND,577c065c9fecfe0001a5bcc7,12/09/1999,2020-09-02_12h32.33.321,proactive3.1,2020.1.2,Win32,60,5f47c29a48bd2a1e651a6eb7,5f4f8186ee39f7035271a586,3,,,,,,dice,,,,,,,,,,,6,0,0,45,45,54,1,,,,,,,,,,,,,,,,,,,,,,,,,,,,,,,,,,,,,,,,,,,,,,,,,,,,,,,,,,,,,,,,,,,,,,,,,,,,,,,,,,,,,,,,,,,,,,,,,,,,,,,,
,,?,0.00279,0,,,,,,stimuli/images/PICTURE_491.png,WRITER,577c065c9fecfe0001a5bcc7,12/09/1999,2020-09-02_12h32.33.321,proactive3.1,2020.1.2,Win32,60,5f47c29a48bd2a1e651a6eb7,5f4f8186ee39f7035271a586,3,,,,,,rug,,,,,,,,,,,6,0,0,46,46,57,1,,,,,,,,,,,,,,,,,,,,,,,,,,,,,,,,,,,,,,,,,,,,,,,,,,,,,,,,,,,,,,,,,,,,,,,,,,,,,,,,,,,,,,,,,,,,,,,,,,,,,,,,
,,?,0.002735,0,,,,,,stimuli/images/PICTURE_85.png,THING,577c065c9fecfe0001a5bcc7,12/09/1999,2020-09-02_12h32.33.321,proactive3.1,2020.1.2,Win32,60,5f47c29a48bd2a1e651a6eb7,5f4f8186ee39f7035271a586,3,,,,,,diamond,,,,,,,,,,,2,0,0,47,47,15,1,,,,,,,,,,,,,,,,,,,,,,,,,,,,,,,,,,,,,,,,,,,,,,,,,,,,,,,,,,,,,,,,,,,,,,,,,,,,,,,,,,,,,,,,,,,,,,,,,,,,,,,,
,,?,0.003455,0,,,,,,stimuli/images/PICTURE_177.png,CARS,577c065c9fecfe0001a5bcc7,12/09/1999,2020-09-02_12h32.33.321,proactive3.1,2020.1.2,Win32,60,5f47c29a48bd2a1e651a6eb7,5f4f8186ee39f7035271a586,3,,,,,,mushroom,,,,,,,,,,,4,0,0,48,48,35,1,,,,,,,,,,,,,,,,,,,,,,,,,,,,,,,,,,,,,,,,,,,,,,,,,,,,,,,,,,,,,,,,,,,,,,,,,,,,,,,,,,,,,,,,,,,,,,,,,,,,,,,,
,,?,0.002795,0,,,,,,stimuli/images/PICTURE_160.png,LEADER,577c065c9fecfe0001a5bcc7,12/09/1999,2020-09-02_12h32.33.321,proactive3.1,2020.1.2,Win32,60,5f47c29a48bd2a1e651a6eb7,5f4f8186ee39f7035271a586,3,,,,,,wheelbarrow,,,,,,,,,,,1,0,0,49,49,3,1,,,,,,,,,,,,,,,,,,,,,,,,,,,,,,,,,,,,,,,,,,,,,,,,,,,,,,,,,,,,,,,,,,,,,,,,,,,,,,,,,,,,,,,,,,,,,,,,,,,,,,,,
,,?,0.00353,0,,,,,,stimuli/images/PICTURE_208.png,MONTH,577c065c9fecfe0001a5bcc7,12/09/1999,2020-09-02_12h32.33.321,proactive3.1,2020.1.2,Win32,60,5f47c29a48bd2a1e651a6eb7,5f4f8186ee39f7035271a586,3,,,,,,microphone,,,,,,,,,,,6,0,0,50,50,53,1,,,,,,,,,,,,,,,,,,,,,,,,,,,,,,,,,,,,,,,,,,,,,,,,,,,,,,,,,,,,,,,,,,,,,,,,,,,,,,,,,,,,,,,,,,,,,,,,,,,,,,,,
,,?,0.00404,0,,,,,,stimuli/images/PICTURE_160.png,FEET,577c065c9fecfe0001a5bcc7,12/09/1999,2020-09-02_12h32.33.321,proactive3.1,2020.1.2,Win32,60,5f47c29a48bd2a1e651a6eb7,5f4f8186ee39f7035271a586,3,,,,,,wheelbarrow,,,,,,,,,,,6,0,0,51,51,58,1,,,,,,,,,,,,,,,,,,,,,,,,,,,,,,,,,,,,,,,,,,,,,,,,,,,,,,,,,,,,,,,,,,,,,,,,,,,,,,,,,,,,,,,,,,,,,,,,,,,,,,,,
,,YARD,4.134745,1,,,,,,stimuli/images/PICTURE_708.png,YARD,577c065c9fecfe0001a5bcc7,12/09/1999,2020-09-02_12h32.33.321,proactive3.1,2020.1.2,Win32,60,5f47c29a48bd2a1e651a6eb7,5f4f8186ee39f7035271a586,3,,,,,,monkey,,,,,,,,,,,3,0,0,52,52,29,1,,,,,,,,,,,,,,,,,,,,,,,,,,,,,,,,,,,,,,,,,,,,,,,,,,,,,,,,,,,,,,,,,,,,,,,,,,,,,,,,,,,,,,,,,,,,,,,,,,,,,,,,
,,?,0.003515,0,,,,,,stimuli/images/PICTURE_311.png,FRIEND,577c065c9fecfe0001a5bcc7,12/09/1999,2020-09-02_12h32.33.321,proactive3.1,2020.1.2,Win32,60,5f47c29a48bd2a1e651a6eb7,5f4f8186ee39f7035271a586,3,,,,,,razor,,,,,,,,,,,4,0,0,53,53,34,1,,,,,,,,,,,,,,,,,,,,,,,,,,,,,,,,,,,,,,,,,,,,,,,,,,,,,,,,,,,,,,,,,,,,,,,,,,,,,,,,,,,,,,,,,,,,,,,,,,,,,,,,
,,?,0.00283,0,,,,,,stimuli/images/PICTURE_151.png,GIRL,577c065c9fecfe0001a5bcc7,12/09/1999,2020-09-02_12h32.33.321,proactive3.1,2020.1.2,Win32,60,5f47c29a48bd2a1e651a6eb7,5f4f8186ee39f7035271a586,3,,,,,,tray,,,,,,,,,,,2,0,0,54,54,19,1,,,,,,,,,,,,,,,,,,,,,,,,,,,,,,,,,,,,,,,,,,,,,,,,,,,,,,,,,,,,,,,,,,,,,,,,,,,,,,,,,,,,,,,,,,,,,,,,,,,,,,,,
,,?,0.003155,0,,,,,,stimuli/images/PICTURE_504.png,BODY,577c065c9fecfe0001a5bcc7,12/09/1999,2020-09-02_12h32.33.321,proactive3.1,2020.1.2,Win32,60,5f47c29a48bd2a1e651a6eb7,5f4f8186ee39f7035271a586,3,,,,,,wheel,,,,,,,,,,,1,0,0,55,55,8,1,,,,,,,,,,,,,,,,,,,,,,,,,,,,,,,,,,,,,,,,,,,,,,,,,,,,,,,,,,,,,,,,,,,,,,,,,,,,,,,,,,,,,,,,,,,,,,,,,,,,,,,,
,,?,0.00289,0,,,,,,stimuli/images/PICTURE_208.png,THING,577c065c9fecfe0001a5bcc7,12/09/1999,2020-09-02_12h32.33.321,proactive3.1,2020.1.2,Win32,60,5f47c29a48bd2a1e651a6eb7,5f4f8186ee39f7035271a586,3,,,,,,microphone,,,,,,,,,,,5,0,0,56,56,47,1,,,,,,,,,,,,,,,,,,,,,,,,,,,,,,,,,,,,,,,,,,,,,,,,,,,,,,,,,,,,,,,,,,,,,,,,,,,,,,,,,,,,,,,,,,,,,,,,,,,,,,,,
,,?,0.002965,0,,,,,,stimuli/images/PICTURE_123.png,ADVICE,577c065c9fecfe0001a5bcc7,12/09/1999,2020-09-02_12h32.33.321,proactive3.1,2020.1.2,Win32,60,5f47c29a48bd2a1e651a6eb7,5f4f8186ee39f7035271a586,3,,,,,,dart,,,,,,,,,,,6,0,0,57,57,50,1,,,,,,,,,,,,,,,,,,,,,,,,,,,,,,,,,,,,,,,,,,,,,,,,,,,,,,,,,,,,,,,,,,,,,,,,,,,,,,,,,,,,,,,,,,,,,,,,,,,,,,,,
,,AREA,3.33207,1,,,,,,stimuli/images/PICTURE_255.png,AREA,577c065c9fecfe0001a5bcc7,12/09/1999,2020-09-02_12h32.33.321,proactive3.1,2020.1.2,Win32,60,5f47c29a48bd2a1e651a6eb7,5f4f8186ee39f7035271a586,3,,,,,,shovel,,,,,,,,,,,3,0,0,58,58,22,1,,,,,,,,,,,,,,,,,,,,,,,,,,,,,,,,,,,,,,,,,,,,,,,,,,,,,,,,,,,,,,,,,,,,,,,,,,,,,,,,,,,,,,,,,,,,,,,,,,,,,,,,
,,?,0.005275,0,,,,,,stimuli/images/PICTURE_215.png,PLENTY,577c065c9fecfe0001a5bcc7,12/09/1999,2020-09-02_12h32.33.321,proactive3.1,2020.1.2,Win32,60,5f47c29a48bd2a1e651a6eb7,5f4f8186ee39f7035271a586,3,,,,,,boot,,,,,,,,,,,4,0,0,59,59,37,1,,,,,,,,,,,,,,,,,,,,,,,,,,,,,,,,,,,,,,,,,,,,,,,,,,,,,,,,,,,,,,,,,,,,,,,,,,,,,,,,,,,,,,,,,,,,,,,,,,,,,,,,
,,,,,,,,,,,,577c065c9fecfe0001a5bcc7,12/09/1999,2020-09-02_12h32.33.321,proactive3.1,2020.1.2,Win32,60,5f47c29a48bd2a1e651a6eb7,5f4f8186ee39f7035271a586,3,,,,,,,,,,,,,,,,,,,,,,,,0,1,1,0,1,stimuli/learn-block1.csv,,,,,,,,,,,,,,,,,,,,,,,,,,,,,,,,,,,,,,,,,,,,,,,,,,,,,,,,,,,,,,,,,,,,,,,,,,,,,,,,,,,,,,,,,,,,,,,,,,
,,,,,,,,,,stimuli/images/PICTURE_403.png,WRITER,577c065c9fecfe0001a5bcc7,12/09/1999,2020-09-02_12h32.33.321,proactive3.1,2020.1.2,Win32,60,5f47c29a48bd2a1e651a6eb7,5f4f8186ee39f7035271a586,3,,,,,,cathedral,,,,,,0,0,0,31,1,4,1,,,,,,,,,,,,,,,,,,,,,,,,,,,,,,,,,,,,,,,,,,,,,,,,,,,,,,,,,,,,,,,,,,,,,,,,,,,,,,,,,,,,,,,,,,,,,,,,,,,,,,,,,,,,,
,,,,,,,,,,stimuli/images/PICTURE_297.png,RIVER,577c065c9fecfe0001a5bcc7,12/09/1999,2020-09-02_12h32.33.321,proactive3.1,2020.1.2,Win32,60,5f47c29a48bd2a1e651a6eb7,5f4f8186ee39f7035271a586,3,,,,,,aeroplane,,,,,,0,1,1,39,1,4,1,,,,,,,,,,,,,,,,,,,,,,,,,,,,,,,,,,,,,,,,,,,,,,,,,,,,,,,,,,,,,,,,,,,,,,,,,,,,,,,,,,,,,,,,,,,,,,,,,,,,,,,,,,,,,
,,,,,,,,,,stimuli/images/PICTURE_469.png,AGENT,577c065c9fecfe0001a5bcc7,12/09/1999,2020-09-02_12h32.33.321,proactive3.1,2020.1.2,Win32,60,5f47c29a48bd2a1e651a6eb7,5f4f8186ee39f7035271a586,3,,,,,,stool,,,,,,0,2,2,16,1,2,1,,,,,,,,,,,,,,,,,,,,,,,,,,,,,,,,,,,,,,,,,,,,,,,,,,,,,,,,,,,,,,,,,,,,,,,,,,,,,,,,,,,,,,,,,,,,,,,,,,,,,,,,,,,,,
,,,,,,,,,,stimuli/images/PICTURE_685.png,PENNY,577c065c9fecfe0001a5bcc7,12/09/1999,2020-09-02_12h32.33.321,proactive3.1,2020.1.2,Win32,60,5f47c29a48bd2a1e651a6eb7,5f4f8186ee39f7035271a586,3,,,,,,goose,,,,,,0,3,3,4,1,1,1,,,,,,,,,,,,,,,,,,,,,,,,,,,,,,,,,,,,,,,,,,,,,,,,,,,,,,,,,,,,,,,,,,,,,,,,,,,,,,,,,,,,,,,,,,,,,,,,,,,,,,,,,,,,,
,,,,,,,,,,stimuli/images/PICTURE_296.png,LOTS,577c065c9fecfe0001a5bcc7,12/09/1999,2020-09-02_12h32.33.321,proactive3.1,2020.1.2,Win32,60,5f47c29a48bd2a1e651a6eb7,5f4f8186ee39f7035271a586,3,,,,,,bolt,,,,,,0,4,4,9,1,1,1,,,,,,,,,,,,,,,,,,,,,,,,,,,,,,,,,,,,,,,,,,,,,,,,,,,,,,,,,,,,,,,,,,,,,,,,,,,,,,,,,,,,,,,,,,,,,,,,,,,,,,,,,,,,,
,,,,,,,,,,stimuli/images/PICTURE_675.png,SALE,577c065c9fecfe0001a5bcc7,12/09/1999,2020-09-02_12h32.33.321,proactive3.1,2020.1.2,Win32,60,5f47c29a48bd2a1e651a6eb7,5f4f8186ee39f7035271a586,3,,,,,,windmill,,,,,,0,5,5,47,1,5,1,,,,,,,,,,,,,,,,,,,,,,,,,,,,,,,,,,,,,,,,,,,,,,,,,,,,,,,,,,,,,,,,,,,,,,,,,,,,,,,,,,,,,,,,,,,,,,,,,,,,,,,,,,,,,
,,,,,,,,,,stimuli/images/PICTURE_491.png,RIVER,577c065c9fecfe0001a5bcc7,12/09/1999,2020-09-02_12h32.33.321,proactive3.1,2020.1.2,Win32,60,5f47c29a48bd2a1e651a6eb7,5f4f8186ee39f7035271a586,3,,,,,,rug,,,,,,0,6,6,6,1,1,1,,,,,,,,,,,,,,,,,,,,,,,,,,,,,,,,,,,,,,,,,,,,,,,,,,,,,,,,,,,,,,,,,,,,,,,,,,,,,,,,,,,,,,,,,,,,,,,,,,,,,,,,,,,,,
,,,,,,,,,,stimuli/images/PICTURE_339.png,CLIENT,577c065c9fecfe0001a5bcc7,12/09/1999,2020-09-02_12h32.33.321,proactive3.1,2020.1.2,Win32,60,5f47c29a48bd2a1e651a6eb7,5f4f8186ee39f7035271a586,3,,,,,,backpack,,,,,,0,7,7,11,1,2,1,,,,,,,,,,,,,,,,,,,,,,,,,,,,,,,,,,,,,,,,,,,,,,,,,,,,,,,,,,,,,,,,,,,,,,,,,,,,,,,,,,,,,,,,,,,,,,,,,,,,,,,,,,,,,
,,,,,,,,,,stimuli/images/PICTURE_449.png,DUDE,577c065c9fecfe0001a5bcc7,12/09/1999,2020-09-02_12h32.33.321,proactive3.1,2020.1.2,Win32,60,5f47c29a48bd2a1e651a6eb7,5f4f8186ee39f7035271a586,3,,,,,,bench,,,,,,0,8,8,17,1,2,1,,,,,,,,,,,,,,,,,,,,,,,,,,,,,,,,,,,,,,,,,,,,,,,,,,,,,,,,,,,,,,,,,,,,,,,,,,,,,,,,,,,,,,,,,,,,,,,,,,,,,,,,,,,,,
,,,,,,,,,,stimuli/images/PICTURE_654.png,MONTH,577c065c9fecfe0001a5bcc7,12/09/1999,2020-09-02_12h32.33.321,proactive3.1,2020.1.2,Win32,60,5f47c29a48bd2a1e651a6eb7,5f4f8186ee39f7035271a586,3,,,,,,pencil,,,,,,0,9,9,29,1,3,1,,,,,,,,,,,,,,,,,,,,,,,,,,,,,,,,,,,,,,,,,,,,,,,,,,,,,,,,,,,,,,,,,,,,,,,,,,,,,,,,,,,,,,,,,,,,,,,,,,,,,,,,,,,,,
,,,,,,,,,,stimuli/images/PICTURE_564.png,BATH,577c065c9fecfe0001a5bcc7,12/09/1999,2020-09-02_12h32.33.321,proactive3.1,2020.1.2,Win32,60,5f47c29a48bd2a1e651a6eb7,5f4f8186ee39f7035271a586,3,,,,,,spoon,,,,,,0,10,10,26,1,3,1,,,,,,,,,,,,,,,,,,,,,,,,,,,,,,,,,,,,,,,,,,,,,,,,,,,,,,,,,,,,,,,,,,,,,,,,,,,,,,,,,,,,,,,,,,,,,,,,,,,,,,,,,,,,,
,,,,,,,,,,stimuli/images/PICTURE_491.png,GLASS,577c065c9fecfe0001a5bcc7,12/09/1999,2020-09-02_12h32.33.321,proactive3.1,2020.1.2,Win32,60,5f47c29a48bd2a1e651a6eb7,5f4f8186ee39f7035271a586,3,,,,,,rug,,,,,,0,11,11,14,1,2,1,,,,,,,,,,,,,,,,,,,,,,,,,,,,,,,,,,,,,,,,,,,,,,,,,,,,,,,,,,,,,,,,,,,,,,,,,,,,,,,,,,,,,,,,,,,,,,,,,,,,,,,,,,,,,
,,,,,,,,,,stimuli/images/PICTURE_504.png,YEAR,577c065c9fecfe0001a5bcc7,12/09/1999,2020-09-02_12h32.33.321,proactive3.1,2020.1.2,Win32,60,5f47c29a48bd2a1e651a6eb7,5f4f8186ee39f7035271a586,3,,,,,,wheel,,,,,,0,12,12,13,1,2,1,,,,,,,,,,,,,,,,,,,,,,,,,,,,,,,,,,,,,,,,,,,,,,,,,,,,,,,,,,,,,,,,,,,,,,,,,,,,,,,,,,,,,,,,,,,,,,,,,,,,,,,,,,,,,
,,,,,,,,,,stimuli/images/PICTURE_33.png,FRIEND,577c065c9fecfe0001a5bcc7,12/09/1999,2020-09-02_12h32.33.321,proactive3.1,2020.1.2,Win32,60,5f47c29a48bd2a1e651a6eb7,5f4f8186ee39f7035271a586,3,,,,,,frame,,,,,,0,13,13,8,1,1,1,,,,,,,,,,,,,,,,,,,,,,,,,,,,,,,,,,,,,,,,,,,,,,,,,,,,,,,,,,,,,,,,,,,,,,,,,,,,,,,,,,,,,,,,,,,,,,,,,,,,,,,,,,,,,
,,,,,,,,,,stimuli/images/PICTURE_203.png,GODS,577c065c9fecfe0001a5bcc7,12/09/1999,2020-09-02_12h32.33.321,proactive3.1,2020.1.2,Win32,60,5f47c29a48bd2a1e651a6eb7,5f4f8186ee39f7035271a586,3,,,,,,cap,,,,,,0,14,14,30,1,4,1,,,,,,,,,,,,,,,,,,,,,,,,,,,,,,,,,,,,,,,,,,,,,,,,,,,,,,,,,,,,,,,,,,,,,,,,,,,,,,,,,,,,,,,,,,,,,,,,,,,,,,,,,,,,,
,,,,,,,,,,stimuli/images/PICTURE_95.png,MILLER,577c065c9fecfe0001a5bcc7,12/09/1999,2020-09-02_12h32.33.321,proactive3.1,2020.1.2,Win32,60,5f47c29a48bd2a1e651a6eb7,5f4f8186ee39f7035271a586,3,,,,,,suitcase,,,,,,0,15,15,56,1,6,1,,,,,,,,,,,,,,,,,,,,,,,,,,,,,,,,,,,,,,,,,,,,,,,,,,,,,,,,,,,,,,,,,,,,,,,,,,,,,,,,,,,,,,,,,,,,,,,,,,,,,,,,,,,,,
,,,,,,,,,,stimuli/images/PICTURE_504.png,COPS,577c065c9fecfe0001a5bcc7,12/09/1999,2020-09-02_12h32.33.321,proactive3.1,2020.1.2,Win32,60,5f47c29a48bd2a1e651a6eb7,5f4f8186ee39f7035271a586,3,,,,,,wheel,,,,,,0,16,16,52,1,6,1,,,,,,,,,,,,,,,,,,,,,,,,,,,,,,,,,,,,,,,,,,,,,,,,,,,,,,,,,,,,,,,,,,,,,,,,,,,,,,,,,,,,,,,,,,,,,,,,,,,,,,,,,,,,,
,,,,,,,,,,stimuli/images/PICTURE_95.png,BOYS,577c065c9fecfe0001a5bcc7,12/09/1999,2020-09-02_12h32.33.321,proactive3.1,2020.1.2,Win32,60,5f47c29a48bd2a1e651a6eb7,5f4f8186ee39f7035271a586,3,,,,,,suitcase,,,,,,0,17,17,1,1,1,1,,,,,,,,,,,,,,,,,,,,,,,,,,,,,,,,,,,,,,,,,,,,,,,,,,,,,,,,,,,,,,,,,,,,,,,,,,,,,,,,,,,,,,,,,,,,,,,,,,,,,,,,,,,,,
,,,,,,,,,,stimuli/images/PICTURE_383.png,SERIES,577c065c9fecfe0001a5bcc7,12/09/1999,2020-09-02_12h32.33.321,proactive3.1,2020.1.2,Win32,60,5f47c29a48bd2a1e651a6eb7,5f4f8186ee39f7035271a586,3,,,,,,coin,,,,,,0,18,18,46,1,5,1,,,,,,,,,,,,,,,,,,,,,,,,,,,,,,,,,,,,,,,,,,,,,,,,,,,,,,,,,,,,,,,,,,,,,,,,,,,,,,,,,,,,,,,,,,,,,,,,,,,,,,,,,,,,,
,,,,,,,,,,stimuli/images/PICTURE_296.png,LIFE,577c065c9fecfe0001a5bcc7,12/09/1999,2020-09-02_12h32.33.321,proactive3.1,2020.1.2,Win32,60,5f47c29a48bd2a1e651a6eb7,5f4f8186ee39f7035271a586,3,,,,,,bolt,,,,,,0,19,19,57,1,6,1,,,,,,,,,,,,,,,,,,,,,,,,,,,,,,,,,,,,,,,,,,,,,,,,,,,,,,,,,,,,,,,,,,,,,,,,,,,,,,,,,,,,,,,,,,,,,,,,,,,,,,,,,,,,,
,,,,,,,,,,stimuli/images/PICTURE_405.png,PLENTY,577c065c9fecfe0001a5bcc7,12/09/1999,2020-09-02_12h32.33.321,proactive3.1,2020.1.2,Win32,60,5f47c29a48bd2a1e651a6eb7,5f4f8186ee39f7035271a586,3,,,,,,anchor,,,,,,0,20,20,23,1,3,1,,,,,,,,,,,,,,,,,,,,,,,,,,,,,,,,,,,,,,,,,,,,,,,,,,,,,,,,,,,,,,,,,,,,,,,,,,,,,,,,,,,,,,,,,,,,,,,,,,,,,,,,,,,,,
,,,,,,,,,,stimuli/images/PICTURE_750.png,HOTEL,577c065c9fecfe0001a5bcc7,12/09/1999,2020-09-02_12h32.33.321,proactive3.1,2020.1.2,Win32,60,5f47c29a48bd2a1e651a6eb7,5f4f8186ee39f7035271a586,3,,,,,,kettle,,,,,,0,21,21,27,1,3,1,,,,,,,,,,,,,,,,,,,,,,,,,,,,,,,,,,,,,,,,,,,,,,,,,,,,,,,,,,,,,,,,,,,,,,,,,,,,,,,,,,,,,,,,,,,,,,,,,,,,,,,,,,,,,
,,,,,,,,,,stimuli/images/PICTURE_95.png,HONEY,577c065c9fecfe0001a5bcc7,12/09/1999,2020-09-02_12h32.33.321,proactive3.1,2020.1.2,Win32,60,5f47c29a48bd2a1e651a6eb7,5f4f8186ee39f7035271a586,3,,,,,,suitcase,,,,,,0,22,22,44,1,5,1,,,,,,,,,,,,,,,,,,,,,,,,,,,,,,,,,,,,,,,,,,,,,,,,,,,,,,,,,,,,,,,,,,,,,,,,,,,,,,,,,,,,,,,,,,,,,,,,,,,,,,,,,,,,,
,,,,,,,,,,stimuli/images/PICTURE_708.png,RECORD,577c065c9fecfe0001a5bcc7,12/09/1999,2020-09-02_12h32.33.321,proactive3.1,2020.1.2,Win32,60,5f47c29a48bd2a1e651a6eb7,5f4f8186ee39f7035271a586,3,,,,,,monkey,,,,,,0,23,23,58,1,6,1,,,,,,,,,,,,,,,,,,,,,,,,,,,,,,,,,,,,,,,,,,,,,,,,,,,,,,,,,,,,,,,,,,,,,,,,,,,,,,,,,,,,,,,,,,,,,,,,,,,,,,,,,,,,,
,,,,,,,,,,stimuli/images/PICTURE_208.png,SYSTEM,577c065c9fecfe0001a5bcc7,12/09/1999,2020-09-02_12h32.33.321,proactive3.1,2020.1.2,Win32,60,5f47c29a48bd2a1e651a6eb7,5f4f8186ee39f7035271a586,3,,,,,,microphone,,,,,,0,24,24,32,1,4,1,,,,,,,,,,,,,,,,,,,,,,,,,,,,,,,,,,,,,,,,,,,,,,,,,,,,,,,,,,,,,,,,,,,,,,,,,,,,,,,,,,,,,,,,,,,,,,,,,,,,,,,,,,,,,
,,,,,,,,,,stimuli/images/PICTURE_68.png,ROOF,577c065c9fecfe0001a5bcc7,12/09/1999,2020-09-02_12h32.33.321,proactive3.1,2020.1.2,Win32,60,5f47c29a48bd2a1e651a6eb7,5f4f8186ee39f7035271a586,3,,,,,,candle,,,,,,0,25,25,38,1,4,1,,,,,,,,,,,,,,,,,,,,,,,,,,,,,,,,,,,,,,,,,,,,,,,,,,,,,,,,,,,,,,,,,,,,,,,,,,,,,,,,,,,,,,,,,,,,,,,,,,,,,,,,,,,,,
,,,,,,,,,,stimuli/images/PICTURE_405.png,YEAR,577c065c9fecfe0001a5bcc7,12/09/1999,2020-09-02_12h32.33.321,proactive3.1,2020.1.2,Win32,60,5f47c29a48bd2a1e651a6eb7,5f4f8186ee39f7035271a586,3,,,,,,anchor,,,,,,0,26,26,34,1,4,1,,,,,,,,,,,,,,,,,,,,,,,,,,,,,,,,,,,,,,,,,,,,,,,,,,,,,,,,,,,,,,,,,,,,,,,,,,,,,,,,,,,,,,,,,,,,,,,,,,,,,,,,,,,,,
,,,,,,,,,,stimuli/images/PICTURE_32.png,PILLS,577c065c9fecfe0001a5bcc7,12/09/1999,2020-09-02_12h32.33.321,proactive3.1,2020.1.2,Win32,60,5f47c29a48bd2a1e651a6eb7,5f4f8186ee39f7035271a586,3,,,,,,crown,,,,,,0,27,27,18,1,2,1,,,,,,,,,,,,,,,,,,,,,,,,,,,,,,,,,,,,,,,,,,,,,,,,,,,,,,,,,,,,,,,,,,,,,,,,,,,,,,,,,,,,,,,,,,,,,,,,,,,,,,,,,,,,,
,,,,,,,,,,stimuli/images/PICTURE_327.png,SERIES,577c065c9fecfe0001a5bcc7,12/09/1999,2020-09-02_12h32.33.321,proactive3.1,2020.1.2,Win32,60,5f47c29a48bd2a1e651a6eb7,5f4f8186ee39f7035271a586,3,,,,,,helmet,,,,,,0,28,28,3,1,1,1,,,,,,,,,,,,,,,,,,,,,,,,,,,,,,,,,,,,,,,,,,,,,,,,,,,,,,,,,,,,,,,,,,,,,,,,,,,,,,,,,,,,,,,,,,,,,,,,,,,,,,,,,,,,,
,,,,,,,,,,stimuli/images/PICTURE_32.png,KIND,577c065c9fecfe0001a5bcc7,12/09/1999,2020-09-02_12h32.33.321,proactive3.1,2020.1.2,Win32,60,5f47c29a48bd2a1e651a6eb7,5f4f8186ee39f7035271a586,3,,,,,,crown,,,,,,0,29,29,35,1,4,1,,,,,,,,,,,,,,,,,,,,,,,,,,,,,,,,,,,,,,,,,,,,,,,,,,,,,,,,,,,,,,,,,,,,,,,,,,,,,,,,,,,,,,,,,,,,,,,,,,,,,,,,,,,,,
,,,,,,,,,,stimuli/images/PICTURE_380.png,HONEY,577c065c9fecfe0001a5bcc7,12/09/1999,2020-09-02_12h32.33.321,proactive3.1,2020.1.2,Win32,60,5f47c29a48bd2a1e651a6eb7,5f4f8186ee39f7035271a586,3,,,,,,gorilla,,,,,,0,30,30,19,1,2,1,,,,,,,,,,,,,,,,,,,,,,,,,,,,,,,,,,,,,,,,,,,,,,,,,,,,,,,,,,,,,,,,,,,,,,,,,,,,,,,,,,,,,,,,,,,,,,,,,,,,,,,,,,,,,
,,,,,,,,,,stimuli/images/PICTURE_233.png,LOTS,577c065c9fecfe0001a5bcc7,12/09/1999,2020-09-02_12h32.33.321,proactive3.1,2020.1.2,Win32,60,5f47c29a48bd2a1e651a6eb7,5f4f8186ee39f7035271a586,3,,,,,,salt,,,,,,0,31,31,42,1,5,1,,,,,,,,,,,,,,,,,,,,,,,,,,,,,,,,,,,,,,,,,,,,,,,,,,,,,,,,,,,,,,,,,,,,,,,,,,,,,,,,,,,,,,,,,,,,,,,,,,,,,,,,,,,,,
,,,,,,,,,,stimuli/images/PICTURE_203.png,NIGHT,577c065c9fecfe0001a5bcc7,12/09/1999,2020-09-02_12h32.33.321,proactive3.1,2020.1.2,Win32,60,5f47c29a48bd2a1e651a6eb7,5f4f8186ee39f7035271a586,3,,,,,,cap,,,,,,0,32,32,2,1,1,1,,,,,,,,,,,,,,,,,,,,,,,,,,,,,,,,,,,,,,,,,,,,,,,,,,,,,,,,,,,,,,,,,,,,,,,,,,,,,,,,,,,,,,,,,,,,,,,,,,,,,,,,,,,,,
,,,,,,,,,,stimuli/images/PICTURE_744.png,WEAPON,577c065c9fecfe0001a5bcc7,12/09/1999,2020-09-02_12h32.33.321,proactive3.1,2020.1.2,Win32,60,5f47c29a48bd2a1e651a6eb7,5f4f8186ee39f7035271a586,3,,,,,,ring,,,,,,0,33,33,50,1,6,1,,,,,,,,,,,,,,,,,,,,,,,,,,,,,,,,,,,,,,,,,,,,,,,,,,,,,,,,,,,,,,,,,,,,,,,,,,,,,,,,,,,,,,,,,,,,,,,,,,,,,,,,,,,,,
,,,,,,,,,,stimuli/images/PICTURE_655.png,TOILET,577c065c9fecfe0001a5bcc7,12/09/1999,2020-09-02_12h32.33.321,proactive3.1,2020.1.2,Win32,60,5f47c29a48bd2a1e651a6eb7,5f4f8186ee39f7035271a586,3,,,,,,megaphone,,,,,,0,34,34,12,1,2,1,,,,,,,,,,,,,,,,,,,,,,,,,,,,,,,,,,,,,,,,,,,,,,,,,,,,,,,,,,,,,,,,,,,,,,,,,,,,,,,,,,,,,,,,,,,,,,,,,,,,,,,,,,,,,
,,,,,,,,,,stimuli/images/PICTURE_327.png,CASINO,577c065c9fecfe0001a5bcc7,12/09/1999,2020-09-02_12h32.33.321,proactive3.1,2020.1.2,Win32,60,5f47c29a48bd2a1e651a6eb7,5f4f8186ee39f7035271a586,3,,,,,,helmet,,,,,,0,35,35,20,1,3,1,,,,,,,,,,,,,,,,,,,,,,,,,,,,,,,,,,,,,,,,,,,,,,,,,,,,,,,,,,,,,,,,,,,,,,,,,,,,,,,,,,,,,,,,,,,,,,,,,,,,,,,,,,,,,
,,,,,,,,,,stimuli/images/PICTURE_68.png,MILE,577c065c9fecfe0001a5bcc7,12/09/1999,2020-09-02_12h32.33.321,proactive3.1,2020.1.2,Win32,60,5f47c29a48bd2a1e651a6eb7,5f4f8186ee39f7035271a586,3,,,,,,candle,,,,,,0,36,36,51,1,6,1,,,,,,,,,,,,,,,,,,,,,,,,,,,,,,,,,,,,,,,,,,,,,,,,,,,,,,,,,,,,,,,,,,,,,,,,,,,,,,,,,,,,,,,,,,,,,,,,,,,,,,,,,,,,,
,,,,,,,,,,stimuli/images/PICTURE_467.png,POLICY,577c065c9fecfe0001a5bcc7,12/09/1999,2020-09-02_12h32.33.321,proactive3.1,2020.1.2,Win32,60,5f47c29a48bd2a1e651a6eb7,5f4f8186ee39f7035271a586,3,,,,,,peg,,,,,,0,37,37,53,1,6,1,,,,,,,,,,,,,,,,,,,,,,,,,,,,,,,,,,,,,,,,,,,,,,,,,,,,,,,,,,,,,,,,,,,,,,,,,,,,,,,,,,,,,,,,,,,,,,,,,,,,,,,,,,,,,
,,,,,,,,,,stimuli/images/PICTURE_487.png,GIRL,577c065c9fecfe0001a5bcc7,12/09/1999,2020-09-02_12h32.33.321,proactive3.1,2020.1.2,Win32,60,5f47c29a48bd2a1e651a6eb7,5f4f8186ee39f7035271a586,3,,,,,,basket,,,,,,0,38,38,45,1,5,1,,,,,,,,,,,,,,,,,,,,,,,,,,,,,,,,,,,,,,,,,,,,,,,,,,,,,,,,,,,,,,,,,,,,,,,,,,,,,,,,,,,,,,,,,,,,,,,,,,,,,,,,,,,,,
