consent_key.keys,consent_key.rt,recalled,recalled_rt,recall_acc,example_recall.thisRepN,example_recall.thisTrialN,example_recall.thisN,example_recall.thisIndex,example_recall.ran,file,word,participant,please enter your date of birth (dd/mm/yyyy),date,expName,psychopyVersion,OS,frameRate,STUDY_ID,SESSION_ID,list,prac_learn_study_loop.thisRepN,prac_learn_study_loop.thisTrialN,prac_learn_study_loop.thisN,prac_learn_study_loop.thisIndex,prac_learn_study_loop.ran,image,prac_learn_test_loop.thisRepN,prac_learn_test_loop.thisTrialN,prac_learn_test_loop.thisN,prac_learn_test_loop.thisIndex,prac_learn_test_loop.ran,learn_study_loop.thisRepN,learn_study_loop.thisTrialN,learn_study_loop.thisN,learn_study_loop.thisIndex,learn_study_loop.ran,list_no,block_no,learn_test_loop.thisRepN,learn_test_loop.thisTrialN,learn_test_loop.thisN,learn_test_loop.thisIndex,learn_test_loop.ran,learn_blocks.thisRepN,learn_blocks.thisTrialN,learn_blocks.thisN,learn_blocks.thisIndex,learn_blocks.ran,block_csv,key_resp_13.keys,key_resp_13.rt,learn_blocks_loop.thisRepN,learn_blocks_loop.thisTrialN,learn_blocks_loop.thisN,learn_blocks_loop.thisIndex,learn_blocks_loop.ran,final_learn_test.thisRepN,final_learn_test.thisTrialN,final_learn_test.thisN,final_learn_test.thisIndex,final_learn_test.ran,s_im1,s_im2,s_im3,s_im4,s_im5,s_im6,s_im7,s_im8,s_im1pos,s_im2pos,s_im3pos,s_im4pos,s_im5pos,s_im6pos,s_im7pos,s_im8pos,s_tarright,search_resp.keys,search_resp.rt,search_loop.thisRepN,search_loop.thisTrialN,search_loop.thisN,search_loop.thisIndex,search_loop.ran,prac_wm_search_loop.thisRepN,prac_wm_search_loop.thisTrialN,prac_wm_search_loop.thisN,prac_wm_search_loop.thisIndex,prac_wm_search_loop.ran,prac_wm_test_loop.thisRepN,prac_wm_test_loop.thisTrialN,prac_wm_test_loop.thisN,prac_wm_test_loop.thisIndex,prac_wm_test_loop.ran,wm_recalled1,wm_recall_rt1,wm_probed1,wm_recall_acc1,wm_recalled2,wm_recall_rt2,wm_probed2,wm_recall_acc2,wm_recalled3,wm_recall_rt3,wm_probed3,wm_recall_acc3,wm_recalled4,wm_recall_rt4,wm_probed4,wm_recall_acc4,prac_wm_trial_loop.thisRepN,prac_wm_trial_loop.thisTrialN,prac_wm_trial_loop.thisN,prac_wm_trial_loop.thisIndex,prac_wm_trial_loop.ran,word1,image1,file1,item_type1,word2,image2,file2,item_type2,word4,image4,file4,item_type4,word3,image3,file3,item_type3,wm_search_loop.thisRepN,wm_search_loop.thisTrialN,wm_search_loop.thisN,wm_search_loop.thisIndex,wm_search_loop.ran,wm_test_loop.thisRepN,wm_test_loop.thisTrialN,wm_test_loop.thisN,wm_test_loop.thisIndex,wm_test_loop.ran,wm_trial_loop.thisRepN,wm_trial_loop.thisTrialN,wm_trial_loop.thisN,wm_trial_loop.thisIndex,wm_trial_loop.ran
y,25.814855,TOUGH,10.402645,1,0,0,0,0,1,stimuli/images/PICTURE_747.png,TOUGH,59504939c58c85000101dc92,16/02/1949,2020-09-10_13h31.10.201,proactive3.1,2020.1.2,Win32,60,5f599a131af4471f3d752b7b,5f5a1c568a2d03068ae8efc0,2,,,,,,,,,,,,,,,,,,,,,,,,,,,,,,,,,,,,,,,,,,,,,,,,,,,,,,,,,,,,,,,,,,,,,,,,,,,,,,,,,,,,,,,,,,,,,,,,,,,,,,,,,,,,,,,,,,,,,,,,,,,,,,,
,,,,,,,,,,stimuli/images/PICTURE_658.png,DEVIL,59504939c58c85000101dc92,16/02/1949,2020-09-10_13h31.10.201,proactive3.1,2020.1.2,Win32,60,5f599a131af4471f3d752b7b,5f5a1c568a2d03068ae8efc0,2,0,0,0,3,1,crow,,,,,,,,,,,,,,,,,,,,,,,,,,,,,,,,,,,,,,,,,,,,,,,,,,,,,,,,,,,,,,,,,,,,,,,,,,,,,,,,,,,,,,,,,,,,,,,,,,,,,,,,,,,,,,,,,,,,,,,,,
,,,,,,,,,,stimuli/images/PICTURE_269.png,GENIUS,59504939c58c85000101dc92,16/02/1949,2020-09-10_13h31.10.201,proactive3.1,2020.1.2,Win32,60,5f599a131af4471f3d752b7b,5f5a1c568a2d03068ae8efc0,2,0,1,1,0,1,chameleon,,,,,,,,,,,,,,,,,,,,,,,,,,,,,,,,,,,,,,,,,,,,,,,,,,,,,,,,,,,,,,,,,,,,,,,,,,,,,,,,,,,,,,,,,,,,,,,,,,,,,,,,,,,,,,,,,,,,,,,,,
,,,,,,,,,,stimuli/images/PICTURE_378.png,LOSS,59504939c58c85000101dc92,16/02/1949,2020-09-10_13h31.10.201,proactive3.1,2020.1.2,Win32,60,5f599a131af4471f3d752b7b,5f5a1c568a2d03068ae8efc0,2,0,2,2,2,1,lobster,,,,,,,,,,,,,,,,,,,,,,,,,,,,,,,,,,,,,,,,,,,,,,,,,,,,,,,,,,,,,,,,,,,,,,,,,,,,,,,,,,,,,,,,,,,,,,,,,,,,,,,,,,,,,,,,,,,,,,,,,
,,,,,,,,,,stimuli/images/PICTURE_697.png,KILLER,59504939c58c85000101dc92,16/02/1949,2020-09-10_13h31.10.201,proactive3.1,2020.1.2,Win32,60,5f599a131af4471f3d752b7b,5f5a1c568a2d03068ae8efc0,2,0,3,3,4,1,peach,,,,,,,,,,,,,,,,,,,,,,,,,,,,,,,,,,,,,,,,,,,,,,,,,,,,,,,,,,,,,,,,,,,,,,,,,,,,,,,,,,,,,,,,,,,,,,,,,,,,,,,,,,,,,,,,,,,,,,,,,
,,KILLER,7.526495,1,,,,,,stimuli/images/PICTURE_697.png,KILLER,59504939c58c85000101dc92,16/02/1949,2020-09-10_13h31.10.201,proactive3.1,2020.1.2,Win32,60,5f599a131af4471f3d752b7b,5f5a1c568a2d03068ae8efc0,2,,,,,,peach,0,0,0,4,1,,,,,,,,,,,,,,,,,,,,,,,,,,,,,,,,,,,,,,,,,,,,,,,,,,,,,,,,,,,,,,,,,,,,,,,,,,,,,,,,,,,,,,,,,,,,,,,,,,,,,,,,,,,,,,,,,,,,
,,LOSS,3.547615,1,,,,,,stimuli/images/PICTURE_378.png,LOSS,59504939c58c85000101dc92,16/02/1949,2020-09-10_13h31.10.201,proactive3.1,2020.1.2,Win32,60,5f599a131af4471f3d752b7b,5f5a1c568a2d03068ae8efc0,2,,,,,,lobster,0,1,1,2,1,,,,,,,,,,,,,,,,,,,,,,,,,,,,,,,,,,,,,,,,,,,,,,,,,,,,,,,,,,,,,,,,,,,,,,,,,,,,,,,,,,,,,,,,,,,,,,,,,,,,,,,,,,,,,,,,,,,,
,,GENIUS,5.807635,1,,,,,,stimuli/images/PICTURE_269.png,GENIUS,59504939c58c85000101dc92,16/02/1949,2020-09-10_13h31.10.201,proactive3.1,2020.1.2,Win32,60,5f599a131af4471f3d752b7b,5f5a1c568a2d03068ae8efc0,2,,,,,,chameleon,0,2,2,0,1,,,,,,,,,,,,,,,,,,,,,,,,,,,,,,,,,,,,,,,,,,,,,,,,,,,,,,,,,,,,,,,,,,,,,,,,,,,,,,,,,,,,,,,,,,,,,,,,,,,,,,,,,,,,,,,,,,,,
,,DEVIL,4.515055,1,,,,,,stimuli/images/PICTURE_658.png,DEVIL,59504939c58c85000101dc92,16/02/1949,2020-09-10_13h31.10.201,proactive3.1,2020.1.2,Win32,60,5f599a131af4471f3d752b7b,5f5a1c568a2d03068ae8efc0,2,,,,,,crow,0,3,3,3,1,,,,,,,,,,,,,,,,,,,,,,,,,,,,,,,,,,,,,,,,,,,,,,,,,,,,,,,,,,,,,,,,,,,,,,,,,,,,,,,,,,,,,,,,,,,,,,,,,,,,,,,,,,,,,,,,,,,,
,,?,6.44484,0,,,,,,stimuli/images/PICTURE_727.png,CELL,59504939c58c85000101dc92,16/02/1949,2020-09-10_13h31.10.201,proactive3.1,2020.1.2,Win32,60,5f599a131af4471f3d752b7b,5f5a1c568a2d03068ae8efc0,2,,,,,,hose,0,4,4,1,1,,,,,,,,,,,,,,,,,,,,,,,,,,,,,,,,,,,,,,,,,,,,,,,,,,,,,,,,,,,,,,,,,,,,,,,,,,,,,,,,,,,,,,,,,,,,,,,,,,,,,,,,,,,,,,,,,,,,
,,,,,,,,,,stimuli/images/PICTURE_233.png,WOMEN,59504939c58c85000101dc92,16/02/1949,2020-09-10_13h31.10.201,proactive3.1,2020.1.2,Win32,60,5f599a131af4471f3d752b7b,5f5a1c568a2d03068ae8efc0,2,,,,,,salt,,,,,,0,0,0,38,1,4,0,,,,,,,,,,,,,,,,,,,,,,,,,,,,,,,,,,,,,,,,,,,,,,,,,,,,,,,,,,,,,,,,,,,,,,,,,,,,,,,,,,,,,,,,,,,,,,,,,,,,,,,,,,,,,
,,,,,,,,,,stimuli/images/PICTURE_675.png,WEAPON,59504939c58c85000101dc92,16/02/1949,2020-09-10_13h31.10.201,proactive3.1,2020.1.2,Win32,60,5f599a131af4471f3d752b7b,5f5a1c568a2d03068ae8efc0,2,,,,,,windmill,,,,,,0,1,1,32,1,4,0,,,,,,,,,,,,,,,,,,,,,,,,,,,,,,,,,,,,,,,,,,,,,,,,,,,,,,,,,,,,,,,,,,,,,,,,,,,,,,,,,,,,,,,,,,,,,,,,,,,,,,,,,,,,,
,,,,,,,,,,stimuli/images/PICTURE_380.png,PHOTO,59504939c58c85000101dc92,16/02/1949,2020-09-10_13h31.10.201,proactive3.1,2020.1.2,Win32,60,5f599a131af4471f3d752b7b,5f5a1c568a2d03068ae8efc0,2,,,,,,gorilla,,,,,,0,2,2,52,1,6,0,,,,,,,,,,,,,,,,,,,,,,,,,,,,,,,,,,,,,,,,,,,,,,,,,,,,,,,,,,,,,,,,,,,,,,,,,,,,,,,,,,,,,,,,,,,,,,,,,,,,,,,,,,,,,
,,,,,,,,,,stimuli/images/PICTURE_85.png,THING,59504939c58c85000101dc92,16/02/1949,2020-09-10_13h31.10.201,proactive3.1,2020.1.2,Win32,60,5f599a131af4471f3d752b7b,5f5a1c568a2d03068ae8efc0,2,,,,,,diamond,,,,,,0,3,3,15,1,2,0,,,,,,,,,,,,,,,,,,,,,,,,,,,,,,,,,,,,,,,,,,,,,,,,,,,,,,,,,,,,,,,,,,,,,,,,,,,,,,,,,,,,,,,,,,,,,,,,,,,,,,,,,,,,,
,,,,,,,,,,stimuli/images/PICTURE_308.png,ESTATE,59504939c58c85000101dc92,16/02/1949,2020-09-10_13h31.10.201,proactive3.1,2020.1.2,Win32,60,5f599a131af4471f3d752b7b,5f5a1c568a2d03068ae8efc0,2,,,,,,dice,,,,,,0,4,4,46,1,5,0,,,,,,,,,,,,,,,,,,,,,,,,,,,,,,,,,,,,,,,,,,,,,,,,,,,,,,,,,,,,,,,,,,,,,,,,,,,,,,,,,,,,,,,,,,,,,,,,,,,,,,,,,,,,,
,,,,,,,,,,stimuli/images/PICTURE_314.png,SAKE,59504939c58c85000101dc92,16/02/1949,2020-09-10_13h31.10.201,proactive3.1,2020.1.2,Win32,60,5f599a131af4471f3d752b7b,5f5a1c568a2d03068ae8efc0,2,,,,,,perfume,,,,,,0,5,5,7,1,1,0,,,,,,,,,,,,,,,,,,,,,,,,,,,,,,,,,,,,,,,,,,,,,,,,,,,,,,,,,,,,,,,,,,,,,,,,,,,,,,,,,,,,,,,,,,,,,,,,,,,,,,,,,,,,,
,,,,,,,,,,stimuli/images/PICTURE_467.png,DEMON,59504939c58c85000101dc92,16/02/1949,2020-09-10_13h31.10.201,proactive3.1,2020.1.2,Win32,60,5f599a131af4471f3d752b7b,5f5a1c568a2d03068ae8efc0,2,,,,,,peg,,,,,,0,6,6,23,1,3,0,,,,,,,,,,,,,,,,,,,,,,,,,,,,,,,,,,,,,,,,,,,,,,,,,,,,,,,,,,,,,,,,,,,,,,,,,,,,,,,,,,,,,,,,,,,,,,,,,,,,,,,,,,,,,
,,,,,,,,,,stimuli/images/PICTURE_68.png,MILE,59504939c58c85000101dc92,16/02/1949,2020-09-10_13h31.10.201,proactive3.1,2020.1.2,Win32,60,5f599a131af4471f3d752b7b,5f5a1c568a2d03068ae8efc0,2,,,,,,candle,,,,,,0,7,7,44,1,5,0,,,,,,,,,,,,,,,,,,,,,,,,,,,,,,,,,,,,,,,,,,,,,,,,,,,,,,,,,,,,,,,,,,,,,,,,,,,,,,,,,,,,,,,,,,,,,,,,,,,,,,,,,,,,,
,,,,,,,,,,stimuli/images/PICTURE_327.png,BEAUTY,59504939c58c85000101dc92,16/02/1949,2020-09-10_13h31.10.201,proactive3.1,2020.1.2,Win32,60,5f599a131af4471f3d752b7b,5f5a1c568a2d03068ae8efc0,2,,,,,,helmet,,,,,,0,8,8,48,1,5,0,,,,,,,,,,,,,,,,,,,,,,,,,,,,,,,,,,,,,,,,,,,,,,,,,,,,,,,,,,,,,,,,,,,,,,,,,,,,,,,,,,,,,,,,,,,,,,,,,,,,,,,,,,,,,
,,,,,,,,,,stimuli/images/PICTURE_469.png,LETTER,59504939c58c85000101dc92,16/02/1949,2020-09-10_13h31.10.201,proactive3.1,2020.1.2,Win32,60,5f599a131af4471f3d752b7b,5f5a1c568a2d03068ae8efc0,2,,,,,,stool,,,,,,0,9,9,42,1,5,0,,,,,,,,,,,,,,,,,,,,,,,,,,,,,,,,,,,,,,,,,,,,,,,,,,,,,,,,,,,,,,,,,,,,,,,,,,,,,,,,,,,,,,,,,,,,,,,,,,,,,,,,,,,,,
,,,,,,,,,,stimuli/images/PICTURE_151.png,GIRL,59504939c58c85000101dc92,16/02/1949,2020-09-10_13h31.10.201,proactive3.1,2020.1.2,Win32,60,5f599a131af4471f3d752b7b,5f5a1c568a2d03068ae8efc0,2,,,,,,tray,,,,,,0,10,10,19,1,2,0,,,,,,,,,,,,,,,,,,,,,,,,,,,,,,,,,,,,,,,,,,,,,,,,,,,,,,,,,,,,,,,,,,,,,,,,,,,,,,,,,,,,,,,,,,,,,,,,,,,,,,,,,,,,,
,,,,,,,,,,stimuli/images/PICTURE_708.png,PENNY,59504939c58c85000101dc92,16/02/1949,2020-09-10_13h31.10.201,proactive3.1,2020.1.2,Win32,60,5f599a131af4471f3d752b7b,5f5a1c568a2d03068ae8efc0,2,,,,,,monkey,,,,,,0,11,11,31,1,4,0,,,,,,,,,,,,,,,,,,,,,,,,,,,,,,,,,,,,,,,,,,,,,,,,,,,,,,,,,,,,,,,,,,,,,,,,,,,,,,,,,,,,,,,,,,,,,,,,,,,,,,,,,,,,,
,,,,,,,,,,stimuli/images/PICTURE_654.png,VALLEY,59504939c58c85000101dc92,16/02/1949,2020-09-10_13h31.10.201,proactive3.1,2020.1.2,Win32,60,5f599a131af4471f3d752b7b,5f5a1c568a2d03068ae8efc0,2,,,,,,pencil,,,,,,0,12,12,1,1,1,0,,,,,,,,,,,,,,,,,,,,,,,,,,,,,,,,,,,,,,,,,,,,,,,,,,,,,,,,,,,,,,,,,,,,,,,,,,,,,,,,,,,,,,,,,,,,,,,,,,,,,,,,,,,,,
,,,,,,,,,,stimuli/images/PICTURE_123.png,ADVICE,59504939c58c85000101dc92,16/02/1949,2020-09-10_13h31.10.201,proactive3.1,2020.1.2,Win32,60,5f599a131af4471f3d752b7b,5f5a1c568a2d03068ae8efc0,2,,,,,,dart,,,,,,0,13,13,50,1,6,0,,,,,,,,,,,,,,,,,,,,,,,,,,,,,,,,,,,,,,,,,,,,,,,,,,,,,,,,,,,,,,,,,,,,,,,,,,,,,,,,,,,,,,,,,,,,,,,,,,,,,,,,,,,,,
,,,,,,,,,,stimuli/images/PICTURE_233.png,IDEAS,59504939c58c85000101dc92,16/02/1949,2020-09-10_13h31.10.201,proactive3.1,2020.1.2,Win32,60,5f599a131af4471f3d752b7b,5f5a1c568a2d03068ae8efc0,2,,,,,,salt,,,,,,0,14,14,28,1,3,0,,,,,,,,,,,,,,,,,,,,,,,,,,,,,,,,,,,,,,,,,,,,,,,,,,,,,,,,,,,,,,,,,,,,,,,,,,,,,,,,,,,,,,,,,,,,,,,,,,,,,,,,,,,,,
,,,,,,,,,,stimuli/images/PICTURE_123.png,ADVICE,59504939c58c85000101dc92,16/02/1949,2020-09-10_13h31.10.201,proactive3.1,2020.1.2,Win32,60,5f599a131af4471f3d752b7b,5f5a1c568a2d03068ae8efc0,2,,,,,,dart,,,,,,0,15,15,40,1,5,0,,,,,,,,,,,,,,,,,,,,,,,,,,,,,,,,,,,,,,,,,,,,,,,,,,,,,,,,,,,,,,,,,,,,,,,,,,,,,,,,,,,,,,,,,,,,,,,,,,,,,,,,,,,,,
,,,,,,,,,,stimuli/images/PICTURE_509.png,PHOTO,59504939c58c85000101dc92,16/02/1949,2020-09-10_13h31.10.201,proactive3.1,2020.1.2,Win32,60,5f599a131af4471f3d752b7b,5f5a1c568a2d03068ae8efc0,2,,,,,,telephone,,,,,,0,16,16,21,1,3,0,,,,,,,,,,,,,,,,,,,,,,,,,,,,,,,,,,,,,,,,,,,,,,,,,,,,,,,,,,,,,,,,,,,,,,,,,,,,,,,,,,,,,,,,,,,,,,,,,,,,,,,,,,,,,
,,,,,,,,,,stimuli/images/PICTURE_314.png,GODS,59504939c58c85000101dc92,16/02/1949,2020-09-10_13h31.10.201,proactive3.1,2020.1.2,Win32,60,5f599a131af4471f3d752b7b,5f5a1c568a2d03068ae8efc0,2,,,,,,perfume,,,,,,0,17,17,11,1,2,0,,,,,,,,,,,,,,,,,,,,,,,,,,,,,,,,,,,,,,,,,,,,,,,,,,,,,,,,,,,,,,,,,,,,,,,,,,,,,,,,,,,,,,,,,,,,,,,,,,,,,,,,,,,,,
,,,,,,,,,,stimuli/images/PICTURE_491.png,ROOF,59504939c58c85000101dc92,16/02/1949,2020-09-10_13h31.10.201,proactive3.1,2020.1.2,Win32,60,5f599a131af4471f3d752b7b,5f5a1c568a2d03068ae8efc0,2,,,,,,rug,,,,,,0,18,18,24,1,3,0,,,,,,,,,,,,,,,,,,,,,,,,,,,,,,,,,,,,,,,,,,,,,,,,,,,,,,,,,,,,,,,,,,,,,,,,,,,,,,,,,,,,,,,,,,,,,,,,,,,,,,,,,,,,,
,,,,,,,,,,stimuli/images/PICTURE_744.png,SYSTEM,59504939c58c85000101dc92,16/02/1949,2020-09-10_13h31.10.201,proactive3.1,2020.1.2,Win32,60,5f599a131af4471f3d752b7b,5f5a1c568a2d03068ae8efc0,2,,,,,,ring,,,,,,0,19,19,43,1,5,0,,,,,,,,,,,,,,,,,,,,,,,,,,,,,,,,,,,,,,,,,,,,,,,,,,,,,,,,,,,,,,,,,,,,,,,,,,,,,,,,,,,,,,,,,,,,,,,,,,,,,,,,,,,,,
,,,,,,,,,,stimuli/images/PICTURE_469.png,ARTIST,59504939c58c85000101dc92,16/02/1949,2020-09-10_13h31.10.201,proactive3.1,2020.1.2,Win32,60,5f599a131af4471f3d752b7b,5f5a1c568a2d03068ae8efc0,2,,,,,,stool,,,,,,0,20,20,6,1,1,0,,,,,,,,,,,,,,,,,,,,,,,,,,,,,,,,,,,,,,,,,,,,,,,,,,,,,,,,,,,,,,,,,,,,,,,,,,,,,,,,,,,,,,,,,,,,,,,,,,,,,,,,,,,,,
,,,,,,,,,,stimuli/images/PICTURE_708.png,YARD,59504939c58c85000101dc92,16/02/1949,2020-09-10_13h31.10.201,proactive3.1,2020.1.2,Win32,60,5f599a131af4471f3d752b7b,5f5a1c568a2d03068ae8efc0,2,,,,,,monkey,,,,,,0,21,21,29,1,3,0,,,,,,,,,,,,,,,,,,,,,,,,,,,,,,,,,,,,,,,,,,,,,,,,,,,,,,,,,,,,,,,,,,,,,,,,,,,,,,,,,,,,,,,,,,,,,,,,,,,,,,,,,,,,,
,,,,,,,,,,stimuli/images/PICTURE_203.png,ARTIST,59504939c58c85000101dc92,16/02/1949,2020-09-10_13h31.10.201,proactive3.1,2020.1.2,Win32,60,5f599a131af4471f3d752b7b,5f5a1c568a2d03068ae8efc0,2,,,,,,cap,,,,,,0,22,22,26,1,3,0,,,,,,,,,,,,,,,,,,,,,,,,,,,,,,,,,,,,,,,,,,,,,,,,,,,,,,,,,,,,,,,,,,,,,,,,,,,,,,,,,,,,,,,,,,,,,,,,,,,,,,,,,,,,,
,,,,,,,,,,stimuli/images/PICTURE_688.png,WOMEN,59504939c58c85000101dc92,16/02/1949,2020-09-10_13h31.10.201,proactive3.1,2020.1.2,Win32,60,5f599a131af4471f3d752b7b,5f5a1c568a2d03068ae8efc0,2,,,,,,runner,,,,,,0,23,23,14,1,2,0,,,,,,,,,,,,,,,,,,,,,,,,,,,,,,,,,,,,,,,,,,,,,,,,,,,,,,,,,,,,,,,,,,,,,,,,,,,,,,,,,,,,,,,,,,,,,,,,,,,,,,,,,,,,,
,,,,,,,,,,stimuli/images/PICTURE_453.png,DUDE,59504939c58c85000101dc92,16/02/1949,2020-09-10_13h31.10.201,proactive3.1,2020.1.2,Win32,60,5f599a131af4471f3d752b7b,5f5a1c568a2d03068ae8efc0,2,,,,,,scissors,,,,,,0,24,24,27,1,3,0,,,,,,,,,,,,,,,,,,,,,,,,,,,,,,,,,,,,,,,,,,,,,,,,,,,,,,,,,,,,,,,,,,,,,,,,,,,,,,,,,,,,,,,,,,,,,,,,,,,,,,,,,,,,,
,,,,,,,,,,stimuli/images/PICTURE_380.png,DEATH,59504939c58c85000101dc92,16/02/1949,2020-09-10_13h31.10.201,proactive3.1,2020.1.2,Win32,60,5f599a131af4471f3d752b7b,5f5a1c568a2d03068ae8efc0,2,,,,,,gorilla,,,,,,0,25,25,49,1,5,0,,,,,,,,,,,,,,,,,,,,,,,,,,,,,,,,,,,,,,,,,,,,,,,,,,,,,,,,,,,,,,,,,,,,,,,,,,,,,,,,,,,,,,,,,,,,,,,,,,,,,,,,,,,,,
,,,,,,,,,,stimuli/images/PICTURE_339.png,PLENTY,59504939c58c85000101dc92,16/02/1949,2020-09-10_13h31.10.201,proactive3.1,2020.1.2,Win32,60,5f599a131af4471f3d752b7b,5f5a1c568a2d03068ae8efc0,2,,,,,,backpack,,,,,,0,26,26,0,1,1,0,,,,,,,,,,,,,,,,,,,,,,,,,,,,,,,,,,,,,,,,,,,,,,,,,,,,,,,,,,,,,,,,,,,,,,,,,,,,,,,,,,,,,,,,,,,,,,,,,,,,,,,,,,,,,
,,,,,,,,,,stimuli/images/PICTURE_744.png,SAKE,59504939c58c85000101dc92,16/02/1949,2020-09-10_13h31.10.201,proactive3.1,2020.1.2,Win32,60,5f599a131af4471f3d752b7b,5f5a1c568a2d03068ae8efc0,2,,,,,,ring,,,,,,0,27,27,17,1,2,0,,,,,,,,,,,,,,,,,,,,,,,,,,,,,,,,,,,,,,,,,,,,,,,,,,,,,,,,,,,,,,,,,,,,,,,,,,,,,,,,,,,,,,,,,,,,,,,,,,,,,,,,,,,,,
,,,,,,,,,,stimuli/images/PICTURE_667.png,BATH,59504939c58c85000101dc92,16/02/1949,2020-09-10_13h31.10.201,proactive3.1,2020.1.2,Win32,60,5f599a131af4471f3d752b7b,5f5a1c568a2d03068ae8efc0,2,,,,,,daisy,,,,,,0,28,28,4,1,1,0,,,,,,,,,,,,,,,,,,,,,,,,,,,,,,,,,,,,,,,,,,,,,,,,,,,,,,,,,,,,,,,,,,,,,,,,,,,,,,,,,,,,,,,,,,,,,,,,,,,,,,,,,,,,,
,,,,,,,,,,stimuli/images/PICTURE_177.png,CARS,59504939c58c85000101dc92,16/02/1949,2020-09-10_13h31.10.201,proactive3.1,2020.1.2,Win32,60,5f599a131af4471f3d752b7b,5f5a1c568a2d03068ae8efc0,2,,,,,,mushroom,,,,,,0,29,29,35,1,4,0,,,,,,,,,,,,,,,,,,,,,,,,,,,,,,,,,,,,,,,,,,,,,,,,,,,,,,,,,,,,,,,,,,,,,,,,,,,,,,,,,,,,,,,,,,,,,,,,,,,,,,,,,,,,,
,,,,,,,,,,stimuli/images/PICTURE_677.png,MILE,59504939c58c85000101dc92,16/02/1949,2020-09-10_13h31.10.201,proactive3.1,2020.1.2,Win32,60,5f599a131af4471f3d752b7b,5f5a1c568a2d03068ae8efc0,2,,,,,,map,,,,,,0,30,30,30,1,4,0,,,,,,,,,,,,,,,,,,,,,,,,,,,,,,,,,,,,,,,,,,,,,,,,,,,,,,,,,,,,,,,,,,,,,,,,,,,,,,,,,,,,,,,,,,,,,,,,,,,,,,,,,,,,,
,,,,,,,,,,stimuli/images/PICTURE_504.png,BODY,59504939c58c85000101dc92,16/02/1949,2020-09-10_13h31.10.201,proactive3.1,2020.1.2,Win32,60,5f599a131af4471f3d752b7b,5f5a1c568a2d03068ae8efc0,2,,,,,,wheel,,,,,,0,31,31,8,1,1,0,,,,,,,,,,,,,,,,,,,,,,,,,,,,,,,,,,,,,,,,,,,,,,,,,,,,,,,,,,,,,,,,,,,,,,,,,,,,,,,,,,,,,,,,,,,,,,,,,,,,,,,,,,,,,
,,,,,,,,,,stimuli/images/PICTURE_95.png,STYLE,59504939c58c85000101dc92,16/02/1949,2020-09-10_13h31.10.201,proactive3.1,2020.1.2,Win32,60,5f599a131af4471f3d752b7b,5f5a1c568a2d03068ae8efc0,2,,,,,,suitcase,,,,,,0,32,32,25,1,3,0,,,,,,,,,,,,,,,,,,,,,,,,,,,,,,,,,,,,,,,,,,,,,,,,,,,,,,,,,,,,,,,,,,,,,,,,,,,,,,,,,,,,,,,,,,,,,,,,,,,,,,,,,,,,,
,,,,,,,,,,stimuli/images/PICTURE_285.png,ADVICE,59504939c58c85000101dc92,16/02/1949,2020-09-10_13h31.10.201,proactive3.1,2020.1.2,Win32,60,5f599a131af4471f3d752b7b,5f5a1c568a2d03068ae8efc0,2,,,,,,carrot,,,,,,0,33,33,12,1,2,0,,,,,,,,,,,,,,,,,,,,,,,,,,,,,,,,,,,,,,,,,,,,,,,,,,,,,,,,,,,,,,,,,,,,,,,,,,,,,,,,,,,,,,,,,,,,,,,,,,,,,,,,,,,,,
,,,,,,,,,,stimuli/images/PICTURE_302.png,FAMILY,59504939c58c85000101dc92,16/02/1949,2020-09-10_13h31.10.201,proactive3.1,2020.1.2,Win32,60,5f599a131af4471f3d752b7b,5f5a1c568a2d03068ae8efc0,2,,,,,,taxi,,,,,,0,34,34,18,1,2,0,,,,,,,,,,,,,,,,,,,,,,,,,,,,,,,,,,,,,,,,,,,,,,,,,,,,,,,,,,,,,,,,,,,,,,,,,,,,,,,,,,,,,,,,,,,,,,,,,,,,,,,,,,,,,
,,,,,,,,,,stimuli/images/PICTURE_488.png,STYLE,59504939c58c85000101dc92,16/02/1949,2020-09-10_13h31.10.201,proactive3.1,2020.1.2,Win32,60,5f599a131af4471f3d752b7b,5f5a1c568a2d03068ae8efc0,2,,,,,,sun,,,,,,0,35,35,33,1,4,0,,,,,,,,,,,,,,,,,,,,,,,,,,,,,,,,,,,,,,,,,,,,,,,,,,,,,,,,,,,,,,,,,,,,,,,,,,,,,,,,,,,,,,,,,,,,,,,,,,,,,,,,,,,,,
,,,,,,,,,,stimuli/images/PICTURE_255.png,AREA,59504939c58c85000101dc92,16/02/1949,2020-09-10_13h31.10.201,proactive3.1,2020.1.2,Win32,60,5f599a131af4471f3d752b7b,5f5a1c568a2d03068ae8efc0,2,,,,,,shovel,,,,,,0,36,36,22,1,3,0,,,,,,,,,,,,,,,,,,,,,,,,,,,,,,,,,,,,,,,,,,,,,,,,,,,,,,,,,,,,,,,,,,,,,,,,,,,,,,,,,,,,,,,,,,,,,,,,,,,,,,,,,,,,,
,,,,,,,,,,stimuli/images/PICTURE_453.png,PLENTY,59504939c58c85000101dc92,16/02/1949,2020-09-10_13h31.10.201,proactive3.1,2020.1.2,Win32,60,5f599a131af4471f3d752b7b,5f5a1c568a2d03068ae8efc0,2,,,,,,scissors,,,,,,0,37,37,56,1,6,0,,,,,,,,,,,,,,,,,,,,,,,,,,,,,,,,,,,,,,,,,,,,,,,,,,,,,,,,,,,,,,,,,,,,,,,,,,,,,,,,,,,,,,,,,,,,,,,,,,,,,,,,,,,,,
,,,,,,,,,,stimuli/images/PICTURE_160.png,LEADER,59504939c58c85000101dc92,16/02/1949,2020-09-10_13h31.10.201,proactive3.1,2020.1.2,Win32,60,5f599a131af4471f3d752b7b,5f5a1c568a2d03068ae8efc0,2,,,,,,wheelbarrow,,,,,,0,38,38,3,1,1,0,,,,,,,,,,,,,,,,,,,,,,,,,,,,,,,,,,,,,,,,,,,,,,,,,,,,,,,,,,,,,,,,,,,,,,,,,,,,,,,,,,,,,,,,,,,,,,,,,,,,,,,,,,,,,
,,,,,,,,,,stimuli/images/PICTURE_491.png,WRITER,59504939c58c85000101dc92,16/02/1949,2020-09-10_13h31.10.201,proactive3.1,2020.1.2,Win32,60,5f599a131af4471f3d752b7b,5f5a1c568a2d03068ae8efc0,2,,,,,,rug,,,,,,0,39,39,57,1,6,0,,,,,,,,,,,,,,,,,,,,,,,,,,,,,,,,,,,,,,,,,,,,,,,,,,,,,,,,,,,,,,,,,,,,,,,,,,,,,,,,,,,,,,,,,,,,,,,,,,,,,,,,,,,,,
,,,,,,,,,,stimuli/images/PICTURE_208.png,THING,59504939c58c85000101dc92,16/02/1949,2020-09-10_13h31.10.201,proactive3.1,2020.1.2,Win32,60,5f599a131af4471f3d752b7b,5f5a1c568a2d03068ae8efc0,2,,,,,,microphone,,,,,,0,40,40,47,1,5,0,,,,,,,,,,,,,,,,,,,,,,,,,,,,,,,,,,,,,,,,,,,,,,,,,,,,,,,,,,,,,,,,,,,,,,,,,,,,,,,,,,,,,,,,,,,,,,,,,,,,,,,,,,,,,
,,,,,,,,,,stimuli/images/PICTURE_215.png,PLENTY,59504939c58c85000101dc92,16/02/1949,2020-09-10_13h31.10.201,proactive3.1,2020.1.2,Win32,60,5f599a131af4471f3d752b7b,5f5a1c568a2d03068ae8efc0,2,,,,,,boot,,,,,,0,41,41,37,1,4,0,,,,,,,,,,,,,,,,,,,,,,,,,,,,,,,,,,,,,,,,,,,,,,,,,,,,,,,,,,,,,,,,,,,,,,,,,,,,,,,,,,,,,,,,,,,,,,,,,,,,,,,,,,,,,
,,,,,,,,,,stimuli/images/PICTURE_147.png,MOMENT,59504939c58c85000101dc92,16/02/1949,2020-09-10_13h31.10.201,proactive3.1,2020.1.2,Win32,60,5f599a131af4471f3d752b7b,5f5a1c568a2d03068ae8efc0,2,,,,,,hanger,,,,,,0,42,42,51,1,6,0,,,,,,,,,,,,,,,,,,,,,,,,,,,,,,,,,,,,,,,,,,,,,,,,,,,,,,,,,,,,,,,,,,,,,,,,,,,,,,,,,,,,,,,,,,,,,,,,,,,,,,,,,,,,,
,,,,,,,,,,stimuli/images/PICTURE_160.png,FEET,59504939c58c85000101dc92,16/02/1949,2020-09-10_13h31.10.201,proactive3.1,2020.1.2,Win32,60,5f599a131af4471f3d752b7b,5f5a1c568a2d03068ae8efc0,2,,,,,,wheelbarrow,,,,,,0,43,43,58,1,6,0,,,,,,,,,,,,,,,,,,,,,,,,,,,,,,,,,,,,,,,,,,,,,,,,,,,,,,,,,,,,,,,,,,,,,,,,,,,,,,,,,,,,,,,,,,,,,,,,,,,,,,,,,,,,,
,,,,,,,,,,stimuli/images/PICTURE_356.png,DANGER,59504939c58c85000101dc92,16/02/1949,2020-09-10_13h31.10.201,proactive3.1,2020.1.2,Win32,60,5f599a131af4471f3d752b7b,5f5a1c568a2d03068ae8efc0,2,,,,,,pawn,,,,,,0,44,44,55,1,6,0,,,,,,,,,,,,,,,,,,,,,,,,,,,,,,,,,,,,,,,,,,,,,,,,,,,,,,,,,,,,,,,,,,,,,,,,,,,,,,,,,,,,,,,,,,,,,,,,,,,,,,,,,,,,,
,,,,,,,,,,stimuli/images/PICTURE_208.png,LOTS,59504939c58c85000101dc92,16/02/1949,2020-09-10_13h31.10.201,proactive3.1,2020.1.2,Win32,60,5f599a131af4471f3d752b7b,5f5a1c568a2d03068ae8efc0,2,,,,,,microphone,,,,,,0,45,45,10,1,2,0,,,,,,,,,,,,,,,,,,,,,,,,,,,,,,,,,,,,,,,,,,,,,,,,,,,,,,,,,,,,,,,,,,,,,,,,,,,,,,,,,,,,,,,,,,,,,,,,,,,,,,,,,,,,,
,,,,,,,,,,stimuli/images/PICTURE_208.png,MONTH,59504939c58c85000101dc92,16/02/1949,2020-09-10_13h31.10.201,proactive3.1,2020.1.2,Win32,60,5f599a131af4471f3d752b7b,5f5a1c568a2d03068ae8efc0,2,,,,,,microphone,,,,,,0,46,46,53,1,6,0,,,,,,,,,,,,,,,,,,,,,,,,,,,,,,,,,,,,,,,,,,,,,,,,,,,,,,,,,,,,,,,,,,,,,,,,,,,,,,,,,,,,,,,,,,,,,,,,,,,,,,,,,,,,,
,,,,,,,,,,stimuli/images/PICTURE_348.png,SPEECH,59504939c58c85000101dc92,16/02/1949,2020-09-10_13h31.10.201,proactive3.1,2020.1.2,Win32,60,5f599a131af4471f3d752b7b,5f5a1c568a2d03068ae8efc0,2,,,,,,pepper,,,,,,0,47,47,20,1,3,0,,,,,,,,,,,,,,,,,,,,,,,,,,,,,,,,,,,,,,,,,,,,,,,,,,,,,,,,,,,,,,,,,,,,,,,,,,,,,,,,,,,,,,,,,,,,,,,,,,,,,,,,,,,,,
,,,,,,,,,,stimuli/images/PICTURE_688.png,CASINO,59504939c58c85000101dc92,16/02/1949,2020-09-10_13h31.10.201,proactive3.1,2020.1.2,Win32,60,5f599a131af4471f3d752b7b,5f5a1c568a2d03068ae8efc0,2,,,,,,runner,,,,,,0,48,48,2,1,1,0,,,,,,,,,,,,,,,,,,,,,,,,,,,,,,,,,,,,,,,,,,,,,,,,,,,,,,,,,,,,,,,,,,,,,,,,,,,,,,,,,,,,,,,,,,,,,,,,,,,,,,,,,,,,,
,,,,,,,,,,stimuli/images/PICTURE_32.png,JUNGLE,59504939c58c85000101dc92,16/02/1949,2020-09-10_13h31.10.201,proactive3.1,2020.1.2,Win32,60,5f599a131af4471f3d752b7b,5f5a1c568a2d03068ae8efc0,2,,,,,,crown,,,,,,0,49,49,45,1,5,0,,,,,,,,,,,,,,,,,,,,,,,,,,,,,,,,,,,,,,,,,,,,,,,,,,,,,,,,,,,,,,,,,,,,,,,,,,,,,,,,,,,,,,,,,,,,,,,,,,,,,,,,,,,,,
,,,,,,,,,,stimuli/images/PICTURE_248.png,DOZEN,59504939c58c85000101dc92,16/02/1949,2020-09-10_13h31.10.201,proactive3.1,2020.1.2,Win32,60,5f599a131af4471f3d752b7b,5f5a1c568a2d03068ae8efc0,2,,,,,,cart,,,,,,0,50,50,39,1,4,0,,,,,,,,,,,,,,,,,,,,,,,,,,,,,,,,,,,,,,,,,,,,,,,,,,,,,,,,,,,,,,,,,,,,,,,,,,,,,,,,,,,,,,,,,,,,,,,,,,,,,,,,,,,,,
,,,,,,,,,,stimuli/images/PICTURE_470.png,CASINO,59504939c58c85000101dc92,16/02/1949,2020-09-10_13h31.10.201,proactive3.1,2020.1.2,Win32,60,5f599a131af4471f3d752b7b,5f5a1c568a2d03068ae8efc0,2,,,,,,motorbike,,,,,,0,51,51,36,1,4,0,,,,,,,,,,,,,,,,,,,,,,,,,,,,,,,,,,,,,,,,,,,,,,,,,,,,,,,,,,,,,,,,,,,,,,,,,,,,,,,,,,,,,,,,,,,,,,,,,,,,,,,,,,,,,
,,,,,,,,,,stimuli/images/PICTURE_487.png,FLIGHT,59504939c58c85000101dc92,16/02/1949,2020-09-10_13h31.10.201,proactive3.1,2020.1.2,Win32,60,5f599a131af4471f3d752b7b,5f5a1c568a2d03068ae8efc0,2,,,,,,basket,,,,,,0,52,52,9,1,1,0,,,,,,,,,,,,,,,,,,,,,,,,,,,,,,,,,,,,,,,,,,,,,,,,,,,,,,,,,,,,,,,,,,,,,,,,,,,,,,,,,,,,,,,,,,,,,,,,,,,,,,,,,,,,,
,,,,,,,,,,stimuli/images/PICTURE_692.png,MONTH,59504939c58c85000101dc92,16/02/1949,2020-09-10_13h31.10.201,proactive3.1,2020.1.2,Win32,60,5f599a131af4471f3d752b7b,5f5a1c568a2d03068ae8efc0,2,,,,,,cherry,,,,,,0,53,53,16,1,2,0,,,,,,,,,,,,,,,,,,,,,,,,,,,,,,,,,,,,,,,,,,,,,,,,,,,,,,,,,,,,,,,,,,,,,,,,,,,,,,,,,,,,,,,,,,,,,,,,,,,,,,,,,,,,,
,,,,,,,,,,stimuli/images/PICTURE_667.png,PLENTY,59504939c58c85000101dc92,16/02/1949,2020-09-10_13h31.10.201,proactive3.1,2020.1.2,Win32,60,5f599a131af4471f3d752b7b,5f5a1c568a2d03068ae8efc0,2,,,,,,daisy,,,,,,0,54,54,41,1,5,0,,,,,,,,,,,,,,,,,,,,,,,,,,,,,,,,,,,,,,,,,,,,,,,,,,,,,,,,,,,,,,,,,,,,,,,,,,,,,,,,,,,,,,,,,,,,,,,,,,,,,,,,,,,,,
,,,,,,,,,,stimuli/images/PICTURE_311.png,FRIEND,59504939c58c85000101dc92,16/02/1949,2020-09-10_13h31.10.201,proactive3.1,2020.1.2,Win32,60,5f599a131af4471f3d752b7b,5f5a1c568a2d03068ae8efc0,2,,,,,,razor,,,,,,0,55,55,34,1,4,0,,,,,,,,,,,,,,,,,,,,,,,,,,,,,,,,,,,,,,,,,,,,,,,,,,,,,,,,,,,,,,,,,,,,,,,,,,,,,,,,,,,,,,,,,,,,,,,,,,,,,,,,,,,,,
,,,,,,,,,,stimuli/images/PICTURE_449.png,THING,59504939c58c85000101dc92,16/02/1949,2020-09-10_13h31.10.201,proactive3.1,2020.1.2,Win32,60,5f599a131af4471f3d752b7b,5f5a1c568a2d03068ae8efc0,2,,,,,,bench,,,,,,0,56,56,59,1,6,0,,,,,,,,,,,,,,,,,,,,,,,,,,,,,,,,,,,,,,,,,,,,,,,,,,,,,,,,,,,,,,,,,,,,,,,,,,,,,,,,,,,,,,,,,,,,,,,,,,,,,,,,,,,,,
,,,,,,,,,,stimuli/images/PICTURE_311.png,BEAUTY,59504939c58c85000101dc92,16/02/1949,2020-09-10_13h31.10.201,proactive3.1,2020.1.2,Win32,60,5f599a131af4471f3d752b7b,5f5a1c568a2d03068ae8efc0,2,,,,,,razor,,,,,,0,57,57,13,1,2,0,,,,,,,,,,,,,,,,,,,,,,,,,,,,,,,,,,,,,,,,,,,,,,,,,,,,,,,,,,,,,,,,,,,,,,,,,,,,,,,,,,,,,,,,,,,,,,,,,,,,,,,,,,,,,
,,,,,,,,,,stimuli/images/PICTURE_308.png,KIND,59504939c58c85000101dc92,16/02/1949,2020-09-10_13h31.10.201,proactive3.1,2020.1.2,Win32,60,5f599a131af4471f3d752b7b,5f5a1c568a2d03068ae8efc0,2,,,,,,dice,,,,,,0,58,58,54,1,6,0,,,,,,,,,,,,,,,,,,,,,,,,,,,,,,,,,,,,,,,,,,,,,,,,,,,,,,,,,,,,,,,,,,,,,,,,,,,,,,,,,,,,,,,,,,,,,,,,,,,,,,,,,,,,,
,,?,0.002145,0,,,,,,stimuli/images/PICTURE_469.png,LETTER,59504939c58c85000101dc92,16/02/1949,2020-09-10_13h31.10.201,proactive3.1,2020.1.2,Win32,60,5f599a131af4471f3d752b7b,5f5a1c568a2d03068ae8efc0,2,,,,,,stool,,,,,,,,,,,5,0,0,0,0,42,1,,,,,,,,,,,,,,,,,,,,,,,,,,,,,,,,,,,,,,,,,,,,,,,,,,,,,,,,,,,,,,,,,,,,,,,,,,,,,,,,,,,,,,,,,,,,,,,,,,,,,,,,
,,?,0.001975,0,,,,,,stimuli/images/PICTURE_667.png,PLENTY,59504939c58c85000101dc92,16/02/1949,2020-09-10_13h31.10.201,proactive3.1,2020.1.2,Win32,60,5f599a131af4471f3d752b7b,5f5a1c568a2d03068ae8efc0,2,,,,,,daisy,,,,,,,,,,,5,0,0,1,1,41,1,,,,,,,,,,,,,,,,,,,,,,,,,,,,,,,,,,,,,,,,,,,,,,,,,,,,,,,,,,,,,,,,,,,,,,,,,,,,,,,,,,,,,,,,,,,,,,,,,,,,,,,,
,,?,0.00227,0,,,,,,stimuli/images/PICTURE_667.png,BATH,59504939c58c85000101dc92,16/02/1949,2020-09-10_13h31.10.201,proactive3.1,2020.1.2,Win32,60,5f599a131af4471f3d752b7b,5f5a1c568a2d03068ae8efc0,2,,,,,,daisy,,,,,,,,,,,1,0,0,2,2,4,1,,,,,,,,,,,,,,,,,,,,,,,,,,,,,,,,,,,,,,,,,,,,,,,,,,,,,,,,,,,,,,,,,,,,,,,,,,,,,,,,,,,,,,,,,,,,,,,,,,,,,,,,
,,?,0.00204,0,,,,,,stimuli/images/PICTURE_453.png,DUDE,59504939c58c85000101dc92,16/02/1949,2020-09-10_13h31.10.201,proactive3.1,2020.1.2,Win32,60,5f599a131af4471f3d752b7b,5f5a1c568a2d03068ae8efc0,2,,,,,,scissors,,,,,,,,,,,3,0,0,3,3,27,1,,,,,,,,,,,,,,,,,,,,,,,,,,,,,,,,,,,,,,,,,,,,,,,,,,,,,,,,,,,,,,,,,,,,,,,,,,,,,,,,,,,,,,,,,,,,,,,,,,,,,,,,
,,?,0.00197,0,,,,,,stimuli/images/PICTURE_208.png,MONTH,59504939c58c85000101dc92,16/02/1949,2020-09-10_13h31.10.201,proactive3.1,2020.1.2,Win32,60,5f599a131af4471f3d752b7b,5f5a1c568a2d03068ae8efc0,2,,,,,,microphone,,,,,,,,,,,6,0,0,4,4,53,1,,,,,,,,,,,,,,,,,,,,,,,,,,,,,,,,,,,,,,,,,,,,,,,,,,,,,,,,,,,,,,,,,,,,,,,,,,,,,,,,,,,,,,,,,,,,,,,,,,,,,,,,
,,?,0.002185,0,,,,,,stimuli/images/PICTURE_688.png,CASINO,59504939c58c85000101dc92,16/02/1949,2020-09-10_13h31.10.201,proactive3.1,2020.1.2,Win32,60,5f599a131af4471f3d752b7b,5f5a1c568a2d03068ae8efc0,2,,,,,,runner,,,,,,,,,,,1,0,0,5,5,2,1,,,,,,,,,,,,,,,,,,,,,,,,,,,,,,,,,,,,,,,,,,,,,,,,,,,,,,,,,,,,,,,,,,,,,,,,,,,,,,,,,,,,,,,,,,,,,,,,,,,,,,,,
,,?,0.00297,0,,,,,,stimuli/images/PICTURE_677.png,MILE,59504939c58c85000101dc92,16/02/1949,2020-09-10_13h31.10.201,proactive3.1,2020.1.2,Win32,60,5f599a131af4471f3d752b7b,5f5a1c568a2d03068ae8efc0,2,,,,,,map,,,,,,,,,,,4,0,0,6,6,30,1,,,,,,,,,,,,,,,,,,,,,,,,,,,,,,,,,,,,,,,,,,,,,,,,,,,,,,,,,,,,,,,,,,,,,,,,,,,,,,,,,,,,,,,,,,,,,,,,,,,,,,,,
,,?,0.001975,0,,,,,,stimuli/images/PICTURE_487.png,FLIGHT,59504939c58c85000101dc92,16/02/1949,2020-09-10_13h31.10.201,proactive3.1,2020.1.2,Win32,60,5f599a131af4471f3d752b7b,5f5a1c568a2d03068ae8efc0,2,,,,,,basket,,,,,,,,,,,1,0,0,7,7,9,1,,,,,,,,,,,,,,,,,,,,,,,,,,,,,,,,,,,,,,,,,,,,,,,,,,,,,,,,,,,,,,,,,,,,,,,,,,,,,,,,,,,,,,,,,,,,,,,,,,,,,,,,
,,?,0.002085,0,,,,,,stimuli/images/PICTURE_32.png,JUNGLE,59504939c58c85000101dc92,16/02/1949,2020-09-10_13h31.10.201,proactive3.1,2020.1.2,Win32,60,5f599a131af4471f3d752b7b,5f5a1c568a2d03068ae8efc0,2,,,,,,crown,,,,,,,,,,,5,0,0,8,8,45,1,,,,,,,,,,,,,,,,,,,,,,,,,,,,,,,,,,,,,,,,,,,,,,,,,,,,,,,,,,,,,,,,,,,,,,,,,,,,,,,,,,,,,,,,,,,,,,,,,,,,,,,,
,,?,0.00208,0,,,,,,stimuli/images/PICTURE_248.png,DOZEN,59504939c58c85000101dc92,16/02/1949,2020-09-10_13h31.10.201,proactive3.1,2020.1.2,Win32,60,5f599a131af4471f3d752b7b,5f5a1c568a2d03068ae8efc0,2,,,,,,cart,,,,,,,,,,,4,0,0,9,9,39,1,,,,,,,,,,,,,,,,,,,,,,,,,,,,,,,,,,,,,,,,,,,,,,,,,,,,,,,,,,,,,,,,,,,,,,,,,,,,,,,,,,,,,,,,,,,,,,,,,,,,,,,,
,,?,0.001955,0,,,,,,stimuli/images/PICTURE_308.png,ESTATE,59504939c58c85000101dc92,16/02/1949,2020-09-10_13h31.10.201,proactive3.1,2020.1.2,Win32,60,5f599a131af4471f3d752b7b,5f5a1c568a2d03068ae8efc0,2,,,,,,dice,,,,,,,,,,,5,0,0,10,10,46,1,,,,,,,,,,,,,,,,,,,,,,,,,,,,,,,,,,,,,,,,,,,,,,,,,,,,,,,,,,,,,,,,,,,,,,,,,,,,,,,,,,,,,,,,,,,,,,,,,,,,,,,,
,,?,0.001965,0,,,,,,stimuli/images/PICTURE_470.png,CASINO,59504939c58c85000101dc92,16/02/1949,2020-09-10_13h31.10.201,proactive3.1,2020.1.2,Win32,60,5f599a131af4471f3d752b7b,5f5a1c568a2d03068ae8efc0,2,,,,,,motorbike,,,,,,,,,,,4,0,0,11,11,36,1,,,,,,,,,,,,,,,,,,,,,,,,,,,,,,,,,,,,,,,,,,,,,,,,,,,,,,,,,,,,,,,,,,,,,,,,,,,,,,,,,,,,,,,,,,,,,,,,,,,,,,,,
,,MONTH,6.8812,1,,,,,,stimuli/images/PICTURE_692.png,MONTH,59504939c58c85000101dc92,16/02/1949,2020-09-10_13h31.10.201,proactive3.1,2020.1.2,Win32,60,5f599a131af4471f3d752b7b,5f5a1c568a2d03068ae8efc0,2,,,,,,cherry,,,,,,,,,,,2,0,0,12,12,16,1,,,,,,,,,,,,,,,,,,,,,,,,,,,,,,,,,,,,,,,,,,,,,,,,,,,,,,,,,,,,,,,,,,,,,,,,,,,,,,,,,,,,,,,,,,,,,,,,,,,,,,,,
,,FAMILY,4.71747,1,,,,,,stimuli/images/PICTURE_302.png,FAMILY,59504939c58c85000101dc92,16/02/1949,2020-09-10_13h31.10.201,proactive3.1,2020.1.2,Win32,60,5f599a131af4471f3d752b7b,5f5a1c568a2d03068ae8efc0,2,,,,,,taxi,,,,,,,,,,,2,0,0,13,13,18,1,,,,,,,,,,,,,,,,,,,,,,,,,,,,,,,,,,,,,,,,,,,,,,,,,,,,,,,,,,,,,,,,,,,,,,,,,,,,,,,,,,,,,,,,,,,,,,,,,,,,,,,,
,,?,5.209455,0,,,,,,stimuli/images/PICTURE_744.png,SAKE,59504939c58c85000101dc92,16/02/1949,2020-09-10_13h31.10.201,proactive3.1,2020.1.2,Win32,60,5f599a131af4471f3d752b7b,5f5a1c568a2d03068ae8efc0,2,,,,,,ring,,,,,,,,,,,2,0,0,14,14,17,1,,,,,,,,,,,,,,,,,,,,,,,,,,,,,,,,,,,,,,,,,,,,,,,,,,,,,,,,,,,,,,,,,,,,,,,,,,,,,,,,,,,,,,,,,,,,,,,,,,,,,,,,
,,?,0.00333,0,,,,,,stimuli/images/PICTURE_147.png,MOMENT,59504939c58c85000101dc92,16/02/1949,2020-09-10_13h31.10.201,proactive3.1,2020.1.2,Win32,60,5f599a131af4471f3d752b7b,5f5a1c568a2d03068ae8efc0,2,,,,,,hanger,,,,,,,,,,,6,0,0,15,15,51,1,,,,,,,,,,,,,,,,,,,,,,,,,,,,,,,,,,,,,,,,,,,,,,,,,,,,,,,,,,,,,,,,,,,,,,,,,,,,,,,,,,,,,,,,,,,,,,,,,,,,,,,,
,,?,0.00297,0,,,,,,stimuli/images/PICTURE_356.png,DANGER,59504939c58c85000101dc92,16/02/1949,2020-09-10_13h31.10.201,proactive3.1,2020.1.2,Win32,60,5f599a131af4471f3d752b7b,5f5a1c568a2d03068ae8efc0,2,,,,,,pawn,,,,,,,,,,,6,0,0,16,16,55,1,,,,,,,,,,,,,,,,,,,,,,,,,,,,,,,,,,,,,,,,,,,,,,,,,,,,,,,,,,,,,,,,,,,,,,,,,,,,,,,,,,,,,,,,,,,,,,,,,,,,,,,,
,,?,2.978325,0,,,,,,stimuli/images/PICTURE_208.png,LOTS,59504939c58c85000101dc92,16/02/1949,2020-09-10_13h31.10.201,proactive3.1,2020.1.2,Win32,60,5f599a131af4471f3d752b7b,5f5a1c568a2d03068ae8efc0,2,,,,,,microphone,,,,,,,,,,,2,0,0,17,17,10,1,,,,,,,,,,,,,,,,,,,,,,,,,,,,,,,,,,,,,,,,,,,,,,,,,,,,,,,,,,,,,,,,,,,,,,,,,,,,,,,,,,,,,,,,,,,,,,,,,,,,,,,,
,,?,0.003655,0,,,,,,stimuli/images/PICTURE_314.png,SAKE,59504939c58c85000101dc92,16/02/1949,2020-09-10_13h31.10.201,proactive3.1,2020.1.2,Win32,60,5f599a131af4471f3d752b7b,5f5a1c568a2d03068ae8efc0,2,,,,,,perfume,,,,,,,,,,,1,0,0,18,18,7,1,,,,,,,,,,,,,,,,,,,,,,,,,,,,,,,,,,,,,,,,,,,,,,,,,,,,,,,,,,,,,,,,,,,,,,,,,,,,,,,,,,,,,,,,,,,,,,,,,,,,,,,,
,,?,0.002315,0,,,,,,stimuli/images/PICTURE_708.png,YARD,59504939c58c85000101dc92,16/02/1949,2020-09-10_13h31.10.201,proactive3.1,2020.1.2,Win32,60,5f599a131af4471f3d752b7b,5f5a1c568a2d03068ae8efc0,2,,,,,,monkey,,,,,,,,,,,3,0,0,19,19,29,1,,,,,,,,,,,,,,,,,,,,,,,,,,,,,,,,,,,,,,,,,,,,,,,,,,,,,,,,,,,,,,,,,,,,,,,,,,,,,,,,,,,,,,,,,,,,,,,,,,,,,,,,
,,?,0.00187,0,,,,,,stimuli/images/PICTURE_123.png,ADVICE,59504939c58c85000101dc92,16/02/1949,2020-09-10_13h31.10.201,proactive3.1,2020.1.2,Win32,60,5f599a131af4471f3d752b7b,5f5a1c568a2d03068ae8efc0,2,,,,,,dart,,,,,,,,,,,6,0,0,20,20,50,1,,,,,,,,,,,,,,,,,,,,,,,,,,,,,,,,,,,,,,,,,,,,,,,,,,,,,,,,,,,,,,,,,,,,,,,,,,,,,,,,,,,,,,,,,,,,,,,,,,,,,,,,
,,?,0.00241,0,,,,,,stimuli/images/PICTURE_177.png,CARS,59504939c58c85000101dc92,16/02/1949,2020-09-10_13h31.10.201,proactive3.1,2020.1.2,Win32,60,5f599a131af4471f3d752b7b,5f5a1c568a2d03068ae8efc0,2,,,,,,mushroom,,,,,,,,,,,4,0,0,21,21,35,1,,,,,,,,,,,,,,,,,,,,,,,,,,,,,,,,,,,,,,,,,,,,,,,,,,,,,,,,,,,,,,,,,,,,,,,,,,,,,,,,,,,,,,,,,,,,,,,,,,,,,,,,
,,?,0.001875,0,,,,,,stimuli/images/PICTURE_233.png,WOMEN,59504939c58c85000101dc92,16/02/1949,2020-09-10_13h31.10.201,proactive3.1,2020.1.2,Win32,60,5f599a131af4471f3d752b7b,5f5a1c568a2d03068ae8efc0,2,,,,,,salt,,,,,,,,,,,4,0,0,22,22,38,1,,,,,,,,,,,,,,,,,,,,,,,,,,,,,,,,,,,,,,,,,,,,,,,,,,,,,,,,,,,,,,,,,,,,,,,,,,,,,,,,,,,,,,,,,,,,,,,,,,,,,,,,
,,?,0.001845,0,,,,,,stimuli/images/PICTURE_708.png,CLIENT,59504939c58c85000101dc92,16/02/1949,2020-09-10_13h31.10.201,proactive3.1,2020.1.2,Win32,60,5f599a131af4471f3d752b7b,5f5a1c568a2d03068ae8efc0,2,,,,,,monkey,,,,,,,,,,,1,0,0,23,23,5,1,,,,,,,,,,,,,,,,,,,,,,,,,,,,,,,,,,,,,,,,,,,,,,,,,,,,,,,,,,,,,,,,,,,,,,,,,,,,,,,,,,,,,,,,,,,,,,,,,,,,,,,,
,,?,0.002265,0,,,,,,stimuli/images/PICTURE_208.png,THING,59504939c58c85000101dc92,16/02/1949,2020-09-10_13h31.10.201,proactive3.1,2020.1.2,Win32,60,5f599a131af4471f3d752b7b,5f5a1c568a2d03068ae8efc0,2,,,,,,microphone,,,,,,,,,,,5,0,0,24,24,47,1,,,,,,,,,,,,,,,,,,,,,,,,,,,,,,,,,,,,,,,,,,,,,,,,,,,,,,,,,,,,,,,,,,,,,,,,,,,,,,,,,,,,,,,,,,,,,,,,,,,,,,,,
,,?,0.00189,0,,,,,,stimuli/images/PICTURE_469.png,ARTIST,59504939c58c85000101dc92,16/02/1949,2020-09-10_13h31.10.201,proactive3.1,2020.1.2,Win32,60,5f599a131af4471f3d752b7b,5f5a1c568a2d03068ae8efc0,2,,,,,,stool,,,,,,,,,,,1,0,0,25,25,6,1,,,,,,,,,,,,,,,,,,,,,,,,,,,,,,,,,,,,,,,,,,,,,,,,,,,,,,,,,,,,,,,,,,,,,,,,,,,,,,,,,,,,,,,,,,,,,,,,,,,,,,,,
,,?,1.92125,0,,,,,,stimuli/images/PICTURE_285.png,ADVICE,59504939c58c85000101dc92,16/02/1949,2020-09-10_13h31.10.201,proactive3.1,2020.1.2,Win32,60,5f599a131af4471f3d752b7b,5f5a1c568a2d03068ae8efc0,2,,,,,,carrot,,,,,,,,,,,2,0,0,26,26,12,1,,,,,,,,,,,,,,,,,,,,,,,,,,,,,,,,,,,,,,,,,,,,,,,,,,,,,,,,,,,,,,,,,,,,,,,,,,,,,,,,,,,,,,,,,,,,,,,,,,,,,,,,
,,?,0.003645,0,,,,,,stimuli/images/PICTURE_160.png,FEET,59504939c58c85000101dc92,16/02/1949,2020-09-10_13h31.10.201,proactive3.1,2020.1.2,Win32,60,5f599a131af4471f3d752b7b,5f5a1c568a2d03068ae8efc0,2,,,,,,wheelbarrow,,,,,,,,,,,6,0,0,27,27,58,1,,,,,,,,,,,,,,,,,,,,,,,,,,,,,,,,,,,,,,,,,,,,,,,,,,,,,,,,,,,,,,,,,,,,,,,,,,,,,,,,,,,,,,,,,,,,,,,,,,,,,,,,
,,?,0.00187,0,,,,,,stimuli/images/PICTURE_488.png,STYLE,59504939c58c85000101dc92,16/02/1949,2020-09-10_13h31.10.201,proactive3.1,2020.1.2,Win32,60,5f599a131af4471f3d752b7b,5f5a1c568a2d03068ae8efc0,2,,,,,,sun,,,,,,,,,,,4,0,0,28,28,33,1,,,,,,,,,,,,,,,,,,,,,,,,,,,,,,,,,,,,,,,,,,,,,,,,,,,,,,,,,,,,,,,,,,,,,,,,,,,,,,,,,,,,,,,,,,,,,,,,,,,,,,,,
,,?,0.001855,0,,,,,,stimuli/images/PICTURE_449.png,THING,59504939c58c85000101dc92,16/02/1949,2020-09-10_13h31.10.201,proactive3.1,2020.1.2,Win32,60,5f599a131af4471f3d752b7b,5f5a1c568a2d03068ae8efc0,2,,,,,,bench,,,,,,,,,,,6,0,0,29,29,59,1,,,,,,,,,,,,,,,,,,,,,,,,,,,,,,,,,,,,,,,,,,,,,,,,,,,,,,,,,,,,,,,,,,,,,,,,,,,,,,,,,,,,,,,,,,,,,,,,,,,,,,,,
,,?,0.0019,0,,,,,,stimuli/images/PICTURE_453.png,PLENTY,59504939c58c85000101dc92,16/02/1949,2020-09-10_13h31.10.201,proactive3.1,2020.1.2,Win32,60,5f599a131af4471f3d752b7b,5f5a1c568a2d03068ae8efc0,2,,,,,,scissors,,,,,,,,,,,6,0,0,30,30,56,1,,,,,,,,,,,,,,,,,,,,,,,,,,,,,,,,,,,,,,,,,,,,,,,,,,,,,,,,,,,,,,,,,,,,,,,,,,,,,,,,,,,,,,,,,,,,,,,,,,,,,,,,
,,?,0.001875,0,,,,,,stimuli/images/PICTURE_339.png,PLENTY,59504939c58c85000101dc92,16/02/1949,2020-09-10_13h31.10.201,proactive3.1,2020.1.2,Win32,60,5f599a131af4471f3d752b7b,5f5a1c568a2d03068ae8efc0,2,,,,,,backpack,,,,,,,,,,,1,0,0,31,31,0,1,,,,,,,,,,,,,,,,,,,,,,,,,,,,,,,,,,,,,,,,,,,,,,,,,,,,,,,,,,,,,,,,,,,,,,,,,,,,,,,,,,,,,,,,,,,,,,,,,,,,,,,,
,,?,0.001865,0,,,,,,stimuli/images/PICTURE_467.png,DEMON,59504939c58c85000101dc92,16/02/1949,2020-09-10_13h31.10.201,proactive3.1,2020.1.2,Win32,60,5f599a131af4471f3d752b7b,5f5a1c568a2d03068ae8efc0,2,,,,,,peg,,,,,,,,,,,3,0,0,32,32,23,1,,,,,,,,,,,,,,,,,,,,,,,,,,,,,,,,,,,,,,,,,,,,,,,,,,,,,,,,,,,,,,,,,,,,,,,,,,,,,,,,,,,,,,,,,,,,,,,,,,,,,,,,
,,?,0.00186,0,,,,,,stimuli/images/PICTURE_491.png,ROOF,59504939c58c85000101dc92,16/02/1949,2020-09-10_13h31.10.201,proactive3.1,2020.1.2,Win32,60,5f599a131af4471f3d752b7b,5f5a1c568a2d03068ae8efc0,2,,,,,,rug,,,,,,,,,,,3,0,0,33,33,24,1,,,,,,,,,,,,,,,,,,,,,,,,,,,,,,,,,,,,,,,,,,,,,,,,,,,,,,,,,,,,,,,,,,,,,,,,,,,,,,,,,,,,,,,,,,,,,,,,,,,,,,,,
,,GIRL,3.92972,1,,,,,,stimuli/images/PICTURE_151.png,GIRL,59504939c58c85000101dc92,16/02/1949,2020-09-10_13h31.10.201,proactive3.1,2020.1.2,Win32,60,5f599a131af4471f3d752b7b,5f5a1c568a2d03068ae8efc0,2,,,,,,tray,,,,,,,,,,,2,0,0,34,34,19,1,,,,,,,,,,,,,,,,,,,,,,,,,,,,,,,,,,,,,,,,,,,,,,,,,,,,,,,,,,,,,,,,,,,,,,,,,,,,,,,,,,,,,,,,,,,,,,,,,,,,,,,,
,,?,0.00559,0,,,,,,stimuli/images/PICTURE_255.png,AREA,59504939c58c85000101dc92,16/02/1949,2020-09-10_13h31.10.201,proactive3.1,2020.1.2,Win32,60,5f599a131af4471f3d752b7b,5f5a1c568a2d03068ae8efc0,2,,,,,,shovel,,,,,,,,,,,3,0,0,35,35,22,1,,,,,,,,,,,,,,,,,,,,,,,,,,,,,,,,,,,,,,,,,,,,,,,,,,,,,,,,,,,,,,,,,,,,,,,,,,,,,,,,,,,,,,,,,,,,,,,,,,,,,,,,
,,?,3.278615,0,,,,,,stimuli/images/PICTURE_311.png,BEAUTY,59504939c58c85000101dc92,16/02/1949,2020-09-10_13h31.10.201,proactive3.1,2020.1.2,Win32,60,5f599a131af4471f3d752b7b,5f5a1c568a2d03068ae8efc0,2,,,,,,razor,,,,,,,,,,,2,0,0,36,36,13,1,,,,,,,,,,,,,,,,,,,,,,,,,,,,,,,,,,,,,,,,,,,,,,,,,,,,,,,,,,,,,,,,,,,,,,,,,,,,,,,,,,,,,,,,,,,,,,,,,,,,,,,,
,,?,0.00346,0,,,,,,stimuli/images/PICTURE_233.png,IDEAS,59504939c58c85000101dc92,16/02/1949,2020-09-10_13h31.10.201,proactive3.1,2020.1.2,Win32,60,5f599a131af4471f3d752b7b,5f5a1c568a2d03068ae8efc0,2,,,,,,salt,,,,,,,,,,,3,0,0,37,37,28,1,,,,,,,,,,,,,,,,,,,,,,,,,,,,,,,,,,,,,,,,,,,,,,,,,,,,,,,,,,,,,,,,,,,,,,,,,,,,,,,,,,,,,,,,,,,,,,,,,,,,,,,,
,,?,0.00183,0,,,,,,stimuli/images/PICTURE_380.png,DEATH,59504939c58c85000101dc92,16/02/1949,2020-09-10_13h31.10.201,proactive3.1,2020.1.2,Win32,60,5f599a131af4471f3d752b7b,5f5a1c568a2d03068ae8efc0,2,,,,,,gorilla,,,,,,,,,,,5,0,0,38,38,49,1,,,,,,,,,,,,,,,,,,,,,,,,,,,,,,,,,,,,,,,,,,,,,,,,,,,,,,,,,,,,,,,,,,,,,,,,,,,,,,,,,,,,,,,,,,,,,,,,,,,,,,,,
,,?,0.00182,0,,,,,,stimuli/images/PICTURE_509.png,PHOTO,59504939c58c85000101dc92,16/02/1949,2020-09-10_13h31.10.201,proactive3.1,2020.1.2,Win32,60,5f599a131af4471f3d752b7b,5f5a1c568a2d03068ae8efc0,2,,,,,,telephone,,,,,,,,,,,3,0,0,39,39,21,1,,,,,,,,,,,,,,,,,,,,,,,,,,,,,,,,,,,,,,,,,,,,,,,,,,,,,,,,,,,,,,,,,,,,,,,,,,,,,,,,,,,,,,,,,,,,,,,,,,,,,,,,
,,?,0.001805,0,,,,,,stimuli/images/PICTURE_654.png,VALLEY,59504939c58c85000101dc92,16/02/1949,2020-09-10_13h31.10.201,proactive3.1,2020.1.2,Win32,60,5f599a131af4471f3d752b7b,5f5a1c568a2d03068ae8efc0,2,,,,,,pencil,,,,,,,,,,,1,0,0,40,40,1,1,,,,,,,,,,,,,,,,,,,,,,,,,,,,,,,,,,,,,,,,,,,,,,,,,,,,,,,,,,,,,,,,,,,,,,,,,,,,,,,,,,,,,,,,,,,,,,,,,,,,,,,,
,,?,0.002035,0,,,,,,stimuli/images/PICTURE_123.png,ADVICE,59504939c58c85000101dc92,16/02/1949,2020-09-10_13h31.10.201,proactive3.1,2020.1.2,Win32,60,5f599a131af4471f3d752b7b,5f5a1c568a2d03068ae8efc0,2,,,,,,dart,,,,,,,,,,,5,0,0,41,41,40,1,,,,,,,,,,,,,,,,,,,,,,,,,,,,,,,,,,,,,,,,,,,,,,,,,,,,,,,,,,,,,,,,,,,,,,,,,,,,,,,,,,,,,,,,,,,,,,,,,,,,,,,,
,,?,0.00181,0,,,,,,stimuli/images/PICTURE_308.png,KIND,59504939c58c85000101dc92,16/02/1949,2020-09-10_13h31.10.201,proactive3.1,2020.1.2,Win32,60,5f599a131af4471f3d752b7b,5f5a1c568a2d03068ae8efc0,2,,,,,,dice,,,,,,,,,,,6,0,0,42,42,54,1,,,,,,,,,,,,,,,,,,,,,,,,,,,,,,,,,,,,,,,,,,,,,,,,,,,,,,,,,,,,,,,,,,,,,,,,,,,,,,,,,,,,,,,,,,,,,,,,,,,,,,,,
,,GIRL,8.552575,0,,,,,,stimuli/images/PICTURE_688.png,WOMEN,59504939c58c85000101dc92,16/02/1949,2020-09-10_13h31.10.201,proactive3.1,2020.1.2,Win32,60,5f599a131af4471f3d752b7b,5f5a1c568a2d03068ae8efc0,2,,,,,,runner,,,,,,,,,,,2,0,0,43,43,14,1,,,,,,,,,,,,,,,,,,,,,,,,,,,,,,,,,,,,,,,,,,,,,,,,,,,,,,,,,,,,,,,,,,,,,,,,,,,,,,,,,,,,,,,,,,,,,,,,,,,,,,,,
,,?,0.003275,0,,,,,,stimuli/images/PICTURE_675.png,WEAPON,59504939c58c85000101dc92,16/02/1949,2020-09-10_13h31.10.201,proactive3.1,2020.1.2,Win32,60,5f599a131af4471f3d752b7b,5f5a1c568a2d03068ae8efc0,2,,,,,,windmill,,,,,,,,,,,4,0,0,44,44,32,1,,,,,,,,,,,,,,,,,,,,,,,,,,,,,,,,,,,,,,,,,,,,,,,,,,,,,,,,,,,,,,,,,,,,,,,,,,,,,,,,,,,,,,,,,,,,,,,,,,,,,,,,
,,?,0.00261,0,,,,,,stimuli/images/PICTURE_491.png,WRITER,59504939c58c85000101dc92,16/02/1949,2020-09-10_13h31.10.201,proactive3.1,2020.1.2,Win32,60,5f599a131af4471f3d752b7b,5f5a1c568a2d03068ae8efc0,2,,,,,,rug,,,,,,,,,,,6,0,0,45,45,57,1,,,,,,,,,,,,,,,,,,,,,,,,,,,,,,,,,,,,,,,,,,,,,,,,,,,,,,,,,,,,,,,,,,,,,,,,,,,,,,,,,,,,,,,,,,,,,,,,,,,,,,,,
,,?,0.002015,0,,,,,,stimuli/images/PICTURE_348.png,SPEECH,59504939c58c85000101dc92,16/02/1949,2020-09-10_13h31.10.201,proactive3.1,2020.1.2,Win32,60,5f599a131af4471f3d752b7b,5f5a1c568a2d03068ae8efc0,2,,,,,,pepper,,,,,,,,,,,3,0,0,46,46,20,1,,,,,,,,,,,,,,,,,,,,,,,,,,,,,,,,,,,,,,,,,,,,,,,,,,,,,,,,,,,,,,,,,,,,,,,,,,,,,,,,,,,,,,,,,,,,,,,,,,,,,,,,
,,?,0.002095,0,,,,,,stimuli/images/PICTURE_203.png,ARTIST,59504939c58c85000101dc92,16/02/1949,2020-09-10_13h31.10.201,proactive3.1,2020.1.2,Win32,60,5f599a131af4471f3d752b7b,5f5a1c568a2d03068ae8efc0,2,,,,,,cap,,,,,,,,,,,3,0,0,47,47,26,1,,,,,,,,,,,,,,,,,,,,,,,,,,,,,,,,,,,,,,,,,,,,,,,,,,,,,,,,,,,,,,,,,,,,,,,,,,,,,,,,,,,,,,,,,,,,,,,,,,,,,,,,
,,?,0.002,0,,,,,,stimuli/images/PICTURE_708.png,PENNY,59504939c58c85000101dc92,16/02/1949,2020-09-10_13h31.10.201,proactive3.1,2020.1.2,Win32,60,5f599a131af4471f3d752b7b,5f5a1c568a2d03068ae8efc0,2,,,,,,monkey,,,,,,,,,,,4,0,0,48,48,31,1,,,,,,,,,,,,,,,,,,,,,,,,,,,,,,,,,,,,,,,,,,,,,,,,,,,,,,,,,,,,,,,,,,,,,,,,,,,,,,,,,,,,,,,,,,,,,,,,,,,,,,,,
,,?,0.001765,0,,,,,,stimuli/images/PICTURE_95.png,STYLE,59504939c58c85000101dc92,16/02/1949,2020-09-10_13h31.10.201,proactive3.1,2020.1.2,Win32,60,5f599a131af4471f3d752b7b,5f5a1c568a2d03068ae8efc0,2,,,,,,suitcase,,,,,,,,,,,3,0,0,49,49,25,1,,,,,,,,,,,,,,,,,,,,,,,,,,,,,,,,,,,,,,,,,,,,,,,,,,,,,,,,,,,,,,,,,,,,,,,,,,,,,,,,,,,,,,,,,,,,,,,,,,,,,,,,
,,?,0.00213,0,,,,,,stimuli/images/PICTURE_504.png,BODY,59504939c58c85000101dc92,16/02/1949,2020-09-10_13h31.10.201,proactive3.1,2020.1.2,Win32,60,5f599a131af4471f3d752b7b,5f5a1c568a2d03068ae8efc0,2,,,,,,wheel,,,,,,,,,,,1,0,0,50,50,8,1,,,,,,,,,,,,,,,,,,,,,,,,,,,,,,,,,,,,,,,,,,,,,,,,,,,,,,,,,,,,,,,,,,,,,,,,,,,,,,,,,,,,,,,,,,,,,,,,,,,,,,,,
,,?,0.002255,0,,,,,,stimuli/images/PICTURE_744.png,SYSTEM,59504939c58c85000101dc92,16/02/1949,2020-09-10_13h31.10.201,proactive3.1,2020.1.2,Win32,60,5f599a131af4471f3d752b7b,5f5a1c568a2d03068ae8efc0,2,,,,,,ring,,,,,,,,,,,5,0,0,51,51,43,1,,,,,,,,,,,,,,,,,,,,,,,,,,,,,,,,,,,,,,,,,,,,,,,,,,,,,,,,,,,,,,,,,,,,,,,,,,,,,,,,,,,,,,,,,,,,,,,,,,,,,,,,
,,?,0.00358,0,,,,,,stimuli/images/PICTURE_311.png,FRIEND,59504939c58c85000101dc92,16/02/1949,2020-09-10_13h31.10.201,proactive3.1,2020.1.2,Win32,60,5f599a131af4471f3d752b7b,5f5a1c568a2d03068ae8efc0,2,,,,,,razor,,,,,,,,,,,4,0,0,52,52,34,1,,,,,,,,,,,,,,,,,,,,,,,,,,,,,,,,,,,,,,,,,,,,,,,,,,,,,,,,,,,,,,,,,,,,,,,,,,,,,,,,,,,,,,,,,,,,,,,,,,,,,,,,
,,?,0.001825,0,,,,,,stimuli/images/PICTURE_215.png,PLENTY,59504939c58c85000101dc92,16/02/1949,2020-09-10_13h31.10.201,proactive3.1,2020.1.2,Win32,60,5f599a131af4471f3d752b7b,5f5a1c568a2d03068ae8efc0,2,,,,,,boot,,,,,,,,,,,4,0,0,53,53,37,1,,,,,,,,,,,,,,,,,,,,,,,,,,,,,,,,,,,,,,,,,,,,,,,,,,,,,,,,,,,,,,,,,,,,,,,,,,,,,,,,,,,,,,,,,,,,,,,,,,,,,,,,
,,?,0.001775,0,,,,,,stimuli/images/PICTURE_327.png,BEAUTY,59504939c58c85000101dc92,16/02/1949,2020-09-10_13h31.10.201,proactive3.1,2020.1.2,Win32,60,5f599a131af4471f3d752b7b,5f5a1c568a2d03068ae8efc0,2,,,,,,helmet,,,,,,,,,,,5,0,0,54,54,48,1,,,,,,,,,,,,,,,,,,,,,,,,,,,,,,,,,,,,,,,,,,,,,,,,,,,,,,,,,,,,,,,,,,,,,,,,,,,,,,,,,,,,,,,,,,,,,,,,,,,,,,,,
,,SHAPE,6.559725,0,,,,,,stimuli/images/PICTURE_85.png,THING,59504939c58c85000101dc92,16/02/1949,2020-09-10_13h31.10.201,proactive3.1,2020.1.2,Win32,60,5f599a131af4471f3d752b7b,5f5a1c568a2d03068ae8efc0,2,,,,,,diamond,,,,,,,,,,,2,0,0,55,55,15,1,,,,,,,,,,,,,,,,,,,,,,,,,,,,,,,,,,,,,,,,,,,,,,,,,,,,,,,,,,,,,,,,,,,,,,,,,,,,,,,,,,,,,,,,,,,,,,,,,,,,,,,,
,,?,0.003285,0,,,,,,stimuli/images/PICTURE_68.png,MILE,59504939c58c85000101dc92,16/02/1949,2020-09-10_13h31.10.201,proactive3.1,2020.1.2,Win32,60,5f599a131af4471f3d752b7b,5f5a1c568a2d03068ae8efc0,2,,,,,,candle,,,,,,,,,,,5,0,0,56,56,44,1,,,,,,,,,,,,,,,,,,,,,,,,,,,,,,,,,,,,,,,,,,,,,,,,,,,,,,,,,,,,,,,,,,,,,,,,,,,,,,,,,,,,,,,,,,,,,,,,,,,,,,,,
,,?,0.001765,0,,,,,,stimuli/images/PICTURE_380.png,PHOTO,59504939c58c85000101dc92,16/02/1949,2020-09-10_13h31.10.201,proactive3.1,2020.1.2,Win32,60,5f599a131af4471f3d752b7b,5f5a1c568a2d03068ae8efc0,2,,,,,,gorilla,,,,,,,,,,,6,0,0,57,57,52,1,,,,,,,,,,,,,,,,,,,,,,,,,,,,,,,,,,,,,,,,,,,,,,,,,,,,,,,,,,,,,,,,,,,,,,,,,,,,,,,,,,,,,,,,,,,,,,,,,,,,,,,,
,,?,0.001735,0,,,,,,stimuli/images/PICTURE_160.png,LEADER,59504939c58c85000101dc92,16/02/1949,2020-09-10_13h31.10.201,proactive3.1,2020.1.2,Win32,60,5f599a131af4471f3d752b7b,5f5a1c568a2d03068ae8efc0,2,,,,,,wheelbarrow,,,,,,,,,,,1,0,0,58,58,3,1,,,,,,,,,,,,,,,,,,,,,,,,,,,,,,,,,,,,,,,,,,,,,,,,,,,,,,,,,,,,,,,,,,,,,,,,,,,,,,,,,,,,,,,,,,,,,,,,,,,,,,,,
,,GODS,3.527455,1,,,,,,stimuli/images/PICTURE_314.png,GODS,59504939c58c85000101dc92,16/02/1949,2020-09-10_13h31.10.201,proactive3.1,2020.1.2,Win32,60,5f599a131af4471f3d752b7b,5f5a1c568a2d03068ae8efc0,2,,,,,,perfume,,,,,,,,,,,2,0,0,59,59,11,1,,,,,,,,,,,,,,,,,,,,,,,,,,,,,,,,,,,,,,,,,,,,,,,,,,,,,,,,,,,,,,,,,,,,,,,,,,,,,,,,,,,,,,,,,,,,,,,,,,,,,,,,
,,,,,,,,,,,,59504939c58c85000101dc92,16/02/1949,2020-09-10_13h31.10.201,proactive3.1,2020.1.2,Win32,60,5f599a131af4471f3d752b7b,5f5a1c568a2d03068ae8efc0,2,,,,,,,,,,,,,,,,,,,,,,,,0,0,0,0,1,stimuli/learn-block1.csv,,,,,,,,,,,,,,,,,,,,,,,,,,,,,,,,,,,,,,,,,,,,,,,,,,,,,,,,,,,,,,,,,,,,,,,,,,,,,,,,,,,,,,,,,,,,,,,,,,
,,,,,,,,,,stimuli/images/PICTURE_655.png,SALE,59504939c58c85000101dc92,16/02/1949,2020-09-10_13h31.10.201,proactive3.1,2020.1.2,Win32,60,5f599a131af4471f3d752b7b,5f5a1c568a2d03068ae8efc0,2,,,,,,megaphone,,,,,,0,0,0,57,1,6,2,,,,,,,,,,,,,,,,,,,,,,,,,,,,,,,,,,,,,,,,,,,,,,,,,,,,,,,,,,,,,,,,,,,,,,,,,,,,,,,,,,,,,,,,,,,,,,,,,,,,,,,,,,,,,
,,,,,,,,,,stimuli/images/PICTURE_123.png,SALE,59504939c58c85000101dc92,16/02/1949,2020-09-10_13h31.10.201,proactive3.1,2020.1.2,Win32,60,5f599a131af4471f3d752b7b,5f5a1c568a2d03068ae8efc0,2,,,,,,dart,,,,,,0,1,1,8,1,1,2,,,,,,,,,,,,,,,,,,,,,,,,,,,,,,,,,,,,,,,,,,,,,,,,,,,,,,,,,,,,,,,,,,,,,,,,,,,,,,,,,,,,,,,,,,,,,,,,,,,,,,,,,,,,,
,,,,,,,,,,stimuli/images/PICTURE_677.png,PHOTO,59504939c58c85000101dc92,16/02/1949,2020-09-10_13h31.10.201,proactive3.1,2020.1.2,Win32,60,5f599a131af4471f3d752b7b,5f5a1c568a2d03068ae8efc0,2,,,,,,map,,,,,,0,2,2,14,1,2,2,,,,,,,,,,,,,,,,,,,,,,,,,,,,,,,,,,,,,,,,,,,,,,,,,,,,,,,,,,,,,,,,,,,,,,,,,,,,,,,,,,,,,,,,,,,,,,,,,,,,,,,,,,,,,
,,,,,,,,,,stimuli/images/PICTURE_487.png,POLICY,59504939c58c85000101dc92,16/02/1949,2020-09-10_13h31.10.201,proactive3.1,2020.1.2,Win32,60,5f599a131af4471f3d752b7b,5f5a1c568a2d03068ae8efc0,2,,,,,,basket,,,,,,0,3,3,34,1,4,2,,,,,,,,,,,,,,,,,,,,,,,,,,,,,,,,,,,,,,,,,,,,,,,,,,,,,,,,,,,,,,,,,,,,,,,,,,,,,,,,,,,,,,,,,,,,,,,,,,,,,,,,,,,,,
,,,,,,,,,,stimuli/images/PICTURE_654.png,YEAR,59504939c58c85000101dc92,16/02/1949,2020-09-10_13h31.10.201,proactive3.1,2020.1.2,Win32,60,5f599a131af4471f3d752b7b,5f5a1c568a2d03068ae8efc0,2,,,,,,pencil,,,,,,0,4,4,41,1,5,2,,,,,,,,,,,,,,,,,,,,,,,,,,,,,,,,,,,,,,,,,,,,,,,,,,,,,,,,,,,,,,,,,,,,,,,,,,,,,,,,,,,,,,,,,,,,,,,,,,,,,,,,,,,,,
,,,,,,,,,,stimuli/images/PICTURE_750.png,POLICY,59504939c58c85000101dc92,16/02/1949,2020-09-10_13h31.10.201,proactive3.1,2020.1.2,Win32,60,5f599a131af4471f3d752b7b,5f5a1c568a2d03068ae8efc0,2,,,,,,kettle,,,,,,0,5,5,44,1,5,2,,,,,,,,,,,,,,,,,,,,,,,,,,,,,,,,,,,,,,,,,,,,,,,,,,,,,,,,,,,,,,,,,,,,,,,,,,,,,,,,,,,,,,,,,,,,,,,,,,,,,,,,,,,,,
,,,,,,,,,,stimuli/images/PICTURE_348.png,TOILET,59504939c58c85000101dc92,16/02/1949,2020-09-10_13h31.10.201,proactive3.1,2020.1.2,Win32,60,5f599a131af4471f3d752b7b,5f5a1c568a2d03068ae8efc0,2,,,,,,pepper,,,,,,0,6,6,4,1,1,2,,,,,,,,,,,,,,,,,,,,,,,,,,,,,,,,,,,,,,,,,,,,,,,,,,,,,,,,,,,,,,,,,,,,,,,,,,,,,,,,,,,,,,,,,,,,,,,,,,,,,,,,,,,,,
,,,,,,,,,,stimuli/images/PICTURE_452.png,COPS,59504939c58c85000101dc92,16/02/1949,2020-09-10_13h31.10.201,proactive3.1,2020.1.2,Win32,60,5f599a131af4471f3d752b7b,5f5a1c568a2d03068ae8efc0,2,,,,,,watch,,,,,,0,7,7,0,1,1,2,,,,,,,,,,,,,,,,,,,,,,,,,,,,,,,,,,,,,,,,,,,,,,,,,,,,,,,,,,,,,,,,,,,,,,,,,,,,,,,,,,,,,,,,,,,,,,,,,,,,,,,,,,,,,
,,,,,,,,,,stimuli/images/PICTURE_57.png,CASINO,59504939c58c85000101dc92,16/02/1949,2020-09-10_13h31.10.201,proactive3.1,2020.1.2,Win32,60,5f599a131af4471f3d752b7b,5f5a1c568a2d03068ae8efc0,2,,,,,,stamp,,,,,,0,8,8,12,1,2,2,,,,,,,,,,,,,,,,,,,,,,,,,,,,,,,,,,,,,,,,,,,,,,,,,,,,,,,,,,,,,,,,,,,,,,,,,,,,,,,,,,,,,,,,,,,,,,,,,,,,,,,,,,,,,
,,,,,,,,,,stimuli/images/PICTURE_215.png,BOYS,59504939c58c85000101dc92,16/02/1949,2020-09-10_13h31.10.201,proactive3.1,2020.1.2,Win32,60,5f599a131af4471f3d752b7b,5f5a1c568a2d03068ae8efc0,2,,,,,,boot,,,,,,0,9,9,24,1,3,2,,,,,,,,,,,,,,,,,,,,,,,,,,,,,,,,,,,,,,,,,,,,,,,,,,,,,,,,,,,,,,,,,,,,,,,,,,,,,,,,,,,,,,,,,,,,,,,,,,,,,,,,,,,,,
,,,,,,,,,,stimuli/images/PICTURE_93.png,GIRL,59504939c58c85000101dc92,16/02/1949,2020-09-10_13h31.10.201,proactive3.1,2020.1.2,Win32,60,5f599a131af4471f3d752b7b,5f5a1c568a2d03068ae8efc0,2,,,,,,skateboard,,,,,,0,10,10,31,1,4,2,,,,,,,,,,,,,,,,,,,,,,,,,,,,,,,,,,,,,,,,,,,,,,,,,,,,,,,,,,,,,,,,,,,,,,,,,,,,,,,,,,,,,,,,,,,,,,,,,,,,,,,,,,,,,
,,,,,,,,,,stimuli/images/PICTURE_285.png,WRITER,59504939c58c85000101dc92,16/02/1949,2020-09-10_13h31.10.201,proactive3.1,2020.1.2,Win32,60,5f599a131af4471f3d752b7b,5f5a1c568a2d03068ae8efc0,2,,,,,,carrot,,,,,,0,11,11,6,1,1,2,,,,,,,,,,,,,,,,,,,,,,,,,,,,,,,,,,,,,,,,,,,,,,,,,,,,,,,,,,,,,,,,,,,,,,,,,,,,,,,,,,,,,,,,,,,,,,,,,,,,,,,,,,,,,
,,,,,,,,,,stimuli/images/PICTURE_160.png,HOTEL,59504939c58c85000101dc92,16/02/1949,2020-09-10_13h31.10.201,proactive3.1,2020.1.2,Win32,60,5f599a131af4471f3d752b7b,5f5a1c568a2d03068ae8efc0,2,,,,,,wheelbarrow,,,,,,0,12,12,16,1,2,2,,,,,,,,,,,,,,,,,,,,,,,,,,,,,,,,,,,,,,,,,,,,,,,,,,,,,,,,,,,,,,,,,,,,,,,,,,,,,,,,,,,,,,,,,,,,,,,,,,,,,,,,,,,,,
,,,,,,,,,,stimuli/images/PICTURE_405.png,JUNGLE,59504939c58c85000101dc92,16/02/1949,2020-09-10_13h31.10.201,proactive3.1,2020.1.2,Win32,60,5f599a131af4471f3d752b7b,5f5a1c568a2d03068ae8efc0,2,,,,,,anchor,,,,,,0,13,13,58,1,6,2,,,,,,,,,,,,,,,,,,,,,,,,,,,,,,,,,,,,,,,,,,,,,,,,,,,,,,,,,,,,,,,,,,,,,,,,,,,,,,,,,,,,,,,,,,,,,,,,,,,,,,,,,,,,,
,,,,,,,,,,stimuli/images/PICTURE_2.png,YARD,59504939c58c85000101dc92,16/02/1949,2020-09-10_13h31.10.201,proactive3.1,2020.1.2,Win32,60,5f599a131af4471f3d752b7b,5f5a1c568a2d03068ae8efc0,2,,,,,,tyre,,,,,,0,14,14,55,1,6,2,,,,,,,,,,,,,,,,,,,,,,,,,,,,,,,,,,,,,,,,,,,,,,,,,,,,,,,,,,,,,,,,,,,,,,,,,,,,,,,,,,,,,,,,,,,,,,,,,,,,,,,,,,,,,
,,,,,,,,,,stimuli/images/PICTURE_667.png,GLASS,59504939c58c85000101dc92,16/02/1949,2020-09-10_13h31.10.201,proactive3.1,2020.1.2,Win32,60,5f599a131af4471f3d752b7b,5f5a1c568a2d03068ae8efc0,2,,,,,,daisy,,,,,,0,15,15,27,1,3,2,,,,,,,,,,,,,,,,,,,,,,,,,,,,,,,,,,,,,,,,,,,,,,,,,,,,,,,,,,,,,,,,,,,,,,,,,,,,,,,,,,,,,,,,,,,,,,,,,,,,,,,,,,,,,
,,,,,,,,,,stimuli/images/PICTURE_504.png,HOUSE,59504939c58c85000101dc92,16/02/1949,2020-09-10_13h31.10.201,proactive3.1,2020.1.2,Win32,60,5f599a131af4471f3d752b7b,5f5a1c568a2d03068ae8efc0,2,,,,,,wheel,,,,,,0,16,16,36,1,4,2,,,,,,,,,,,,,,,,,,,,,,,,,,,,,,,,,,,,,,,,,,,,,,,,,,,,,,,,,,,,,,,,,,,,,,,,,,,,,,,,,,,,,,,,,,,,,,,,,,,,,,,,,,,,,
,,,,,,,,,,stimuli/images/PICTURE_95.png,NIGHT,59504939c58c85000101dc92,16/02/1949,2020-09-10_13h31.10.201,proactive3.1,2020.1.2,Win32,60,5f599a131af4471f3d752b7b,5f5a1c568a2d03068ae8efc0,2,,,,,,suitcase,,,,,,0,17,17,37,1,4,2,,,,,,,,,,,,,,,,,,,,,,,,,,,,,,,,,,,,,,,,,,,,,,,,,,,,,,,,,,,,,,,,,,,,,,,,,,,,,,,,,,,,,,,,,,,,,,,,,,,,,,,,,,,,,
,,,,,,,,,,stimuli/images/PICTURE_453.png,FAMILY,59504939c58c85000101dc92,16/02/1949,2020-09-10_13h31.10.201,proactive3.1,2020.1.2,Win32,60,5f599a131af4471f3d752b7b,5f5a1c568a2d03068ae8efc0,2,,,,,,scissors,,,,,,0,18,18,48,1,5,2,,,,,,,,,,,,,,,,,,,,,,,,,,,,,,,,,,,,,,,,,,,,,,,,,,,,,,,,,,,,,,,,,,,,,,,,,,,,,,,,,,,,,,,,,,,,,,,,,,,,,,,,,,,,,
,,,,,,,,,,stimuli/images/PICTURE_208.png,SPIRIT,59504939c58c85000101dc92,16/02/1949,2020-09-10_13h31.10.201,proactive3.1,2020.1.2,Win32,60,5f599a131af4471f3d752b7b,5f5a1c568a2d03068ae8efc0,2,,,,,,microphone,,,,,,0,19,19,28,1,3,2,,,,,,,,,,,,,,,,,,,,,,,,,,,,,,,,,,,,,,,,,,,,,,,,,,,,,,,,,,,,,,,,,,,,,,,,,,,,,,,,,,,,,,,,,,,,,,,,,,,,,,,,,,,,,
,,,,,,,,,,stimuli/images/PICTURE_32.png,LETTER,59504939c58c85000101dc92,16/02/1949,2020-09-10_13h31.10.201,proactive3.1,2020.1.2,Win32,60,5f599a131af4471f3d752b7b,5f5a1c568a2d03068ae8efc0,2,,,,,,crown,,,,,,0,20,20,56,1,6,2,,,,,,,,,,,,,,,,,,,,,,,,,,,,,,,,,,,,,,,,,,,,,,,,,,,,,,,,,,,,,,,,,,,,,,,,,,,,,,,,,,,,,,,,,,,,,,,,,,,,,,,,,,,,,
,,,,,,,,,,stimuli/images/PICTURE_57.png,CANDY,59504939c58c85000101dc92,16/02/1949,2020-09-10_13h31.10.201,proactive3.1,2020.1.2,Win32,60,5f599a131af4471f3d752b7b,5f5a1c568a2d03068ae8efc0,2,,,,,,stamp,,,,,,0,21,21,52,1,6,2,,,,,,,,,,,,,,,,,,,,,,,,,,,,,,,,,,,,,,,,,,,,,,,,,,,,,,,,,,,,,,,,,,,,,,,,,,,,,,,,,,,,,,,,,,,,,,,,,,,,,,,,,,,,,
,,,,,,,,,,stimuli/images/PICTURE_2.png,AREA,59504939c58c85000101dc92,16/02/1949,2020-09-10_13h31.10.201,proactive3.1,2020.1.2,Win32,60,5f599a131af4471f3d752b7b,5f5a1c568a2d03068ae8efc0,2,,,,,,tyre,,,,,,0,22,22,32,1,4,2,,,,,,,,,,,,,,,,,,,,,,,,,,,,,,,,,,,,,,,,,,,,,,,,,,,,,,,,,,,,,,,,,,,,,,,,,,,,,,,,,,,,,,,,,,,,,,,,,,,,,,,,,,,,,
,,,,,,,,,,stimuli/images/PICTURE_470.png,BEAUTY,59504939c58c85000101dc92,16/02/1949,2020-09-10_13h31.10.201,proactive3.1,2020.1.2,Win32,60,5f599a131af4471f3d752b7b,5f5a1c568a2d03068ae8efc0,2,,,,,,motorbike,,,,,,0,23,23,26,1,3,2,,,,,,,,,,,,,,,,,,,,,,,,,,,,,,,,,,,,,,,,,,,,,,,,,,,,,,,,,,,,,,,,,,,,,,,,,,,,,,,,,,,,,,,,,,,,,,,,,,,,,,,,,,,,,
,,,,,,,,,,stimuli/images/PICTURE_654.png,COPS,59504939c58c85000101dc92,16/02/1949,2020-09-10_13h31.10.201,proactive3.1,2020.1.2,Win32,60,5f599a131af4471f3d752b7b,5f5a1c568a2d03068ae8efc0,2,,,,,,pencil,,,,,,0,24,24,10,1,2,2,,,,,,,,,,,,,,,,,,,,,,,,,,,,,,,,,,,,,,,,,,,,,,,,,,,,,,,,,,,,,,,,,,,,,,,,,,,,,,,,,,,,,,,,,,,,,,,,,,,,,,,,,,,,,
,,,,,,,,,,stimuli/images/PICTURE_215.png,FOOD,59504939c58c85000101dc92,16/02/1949,2020-09-10_13h31.10.201,proactive3.1,2020.1.2,Win32,60,5f599a131af4471f3d752b7b,5f5a1c568a2d03068ae8efc0,2,,,,,,boot,,,,,,0,25,25,5,1,1,2,,,,,,,,,,,,,,,,,,,,,,,,,,,,,,,,,,,,,,,,,,,,,,,,,,,,,,,,,,,,,,,,,,,,,,,,,,,,,,,,,,,,,,,,,,,,,,,,,,,,,,,,,,,,,
,,,,,,,,,,stimuli/images/PICTURE_509.png,BATH,59504939c58c85000101dc92,16/02/1949,2020-09-10_13h31.10.201,proactive3.1,2020.1.2,Win32,60,5f599a131af4471f3d752b7b,5f5a1c568a2d03068ae8efc0,2,,,,,,telephone,,,,,,0,26,26,15,1,2,2,,,,,,,,,,,,,,,,,,,,,,,,,,,,,,,,,,,,,,,,,,,,,,,,,,,,,,,,,,,,,,,,,,,,,,,,,,,,,,,,,,,,,,,,,,,,,,,,,,,,,,,,,,,,,
,,,,,,,,,,stimuli/images/PICTURE_356.png,CANDY,59504939c58c85000101dc92,16/02/1949,2020-09-10_13h31.10.201,proactive3.1,2020.1.2,Win32,60,5f599a131af4471f3d752b7b,5f5a1c568a2d03068ae8efc0,2,,,,,,pawn,,,,,,0,27,27,46,1,5,2,,,,,,,,,,,,,,,,,,,,,,,,,,,,,,,,,,,,,,,,,,,,,,,,,,,,,,,,,,,,,,,,,,,,,,,,,,,,,,,,,,,,,,,,,,,,,,,,,,,,,,,,,,,,,
,,,,,,,,,,stimuli/images/PICTURE_677.png,FAMILY,59504939c58c85000101dc92,16/02/1949,2020-09-10_13h31.10.201,proactive3.1,2020.1.2,Win32,60,5f599a131af4471f3d752b7b,5f5a1c568a2d03068ae8efc0,2,,,,,,map,,,,,,0,28,28,53,1,6,2,,,,,,,,,,,,,,,,,,,,,,,,,,,,,,,,,,,,,,,,,,,,,,,,,,,,,,,,,,,,,,,,,,,,,,,,,,,,,,,,,,,,,,,,,,,,,,,,,,,,,,,,,,,,,
,,,,,,,,,,stimuli/images/PICTURE_708.png,VALLEY,59504939c58c85000101dc92,16/02/1949,2020-09-10_13h31.10.201,proactive3.1,2020.1.2,Win32,60,5f599a131af4471f3d752b7b,5f5a1c568a2d03068ae8efc0,2,,,,,,monkey,,,,,,0,29,29,45,1,5,2,,,,,,,,,,,,,,,,,,,,,,,,,,,,,,,,,,,,,,,,,,,,,,,,,,,,,,,,,,,,,,,,,,,,,,,,,,,,,,,,,,,,,,,,,,,,,,,,,,,,,,,,,,,,,
,,,,,,,,,,stimuli/images/PICTURE_141.png,CLIENT,59504939c58c85000101dc92,16/02/1949,2020-09-10_13h31.10.201,proactive3.1,2020.1.2,Win32,60,5f599a131af4471f3d752b7b,5f5a1c568a2d03068ae8efc0,2,,,,,,sunflower,,,,,,0,30,30,30,1,4,2,,,,,,,,,,,,,,,,,,,,,,,,,,,,,,,,,,,,,,,,,,,,,,,,,,,,,,,,,,,,,,,,,,,,,,,,,,,,,,,,,,,,,,,,,,,,,,,,,,,,,,,,,,,,,
,,,,,,,,,,stimuli/images/PICTURE_314.png,SPEECH,59504939c58c85000101dc92,16/02/1949,2020-09-10_13h31.10.201,proactive3.1,2020.1.2,Win32,60,5f599a131af4471f3d752b7b,5f5a1c568a2d03068ae8efc0,2,,,,,,perfume,,,,,,0,31,31,35,1,4,2,,,,,,,,,,,,,,,,,,,,,,,,,,,,,,,,,,,,,,,,,,,,,,,,,,,,,,,,,,,,,,,,,,,,,,,,,,,,,,,,,,,,,,,,,,,,,,,,,,,,,,,,,,,,,
,,,,,,,,,,stimuli/images/PICTURE_491.png,SERIES,59504939c58c85000101dc92,16/02/1949,2020-09-10_13h31.10.201,proactive3.1,2020.1.2,Win32,60,5f599a131af4471f3d752b7b,5f5a1c568a2d03068ae8efc0,2,,,,,,rug,,,,,,0,32,32,39,1,4,2,,,,,,,,,,,,,,,,,,,,,,,,,,,,,,,,,,,,,,,,,,,,,,,,,,,,,,,,,,,,,,,,,,,,,,,,,,,,,,,,,,,,,,,,,,,,,,,,,,,,,,,,,,,,,
,,,,,,,,,,stimuli/images/PICTURE_509.png,SHOTS,59504939c58c85000101dc92,16/02/1949,2020-09-10_13h31.10.201,proactive3.1,2020.1.2,Win32,60,5f599a131af4471f3d752b7b,5f5a1c568a2d03068ae8efc0,2,,,,,,telephone,,,,,,0,33,33,7,1,1,2,,,,,,,,,,,,,,,,,,,,,,,,,,,,,,,,,,,,,,,,,,,,,,,,,,,,,,,,,,,,,,,,,,,,,,,,,,,,,,,,,,,,,,,,,,,,,,,,,,,,,,,,,,,,,
,,,,,,,,,,stimuli/images/PICTURE_33.png,COPS,59504939c58c85000101dc92,16/02/1949,2020-09-10_13h31.10.201,proactive3.1,2020.1.2,Win32,60,5f599a131af4471f3d752b7b,5f5a1c568a2d03068ae8efc0,2,,,,,,frame,,,,,,0,34,34,29,1,3,2,,,,,,,,,,,,,,,,,,,,,,,,,,,,,,,,,,,,,,,,,,,,,,,,,,,,,,,,,,,,,,,,,,,,,,,,,,,,,,,,,,,,,,,,,,,,,,,,,,,,,,,,,,,,,
,,,,,,,,,,stimuli/images/PICTURE_57.png,NATION,59504939c58c85000101dc92,16/02/1949,2020-09-10_13h31.10.201,proactive3.1,2020.1.2,Win32,60,5f599a131af4471f3d752b7b,5f5a1c568a2d03068ae8efc0,2,,,,,,stamp,,,,,,0,35,35,21,1,3,2,,,,,,,,,,,,,,,,,,,,,,,,,,,,,,,,,,,,,,,,,,,,,,,,,,,,,,,,,,,,,,,,,,,,,,,,,,,,,,,,,,,,,,,,,,,,,,,,,,,,,,,,,,,,,
,,,,,,,,,,stimuli/images/PICTURE_311.png,TOILET,59504939c58c85000101dc92,16/02/1949,2020-09-10_13h31.10.201,proactive3.1,2020.1.2,Win32,60,5f599a131af4471f3d752b7b,5f5a1c568a2d03068ae8efc0,2,,,,,,razor,,,,,,0,36,36,54,1,6,2,,,,,,,,,,,,,,,,,,,,,,,,,,,,,,,,,,,,,,,,,,,,,,,,,,,,,,,,,,,,,,,,,,,,,,,,,,,,,,,,,,,,,,,,,,,,,,,,,,,,,,,,,,,,,
,,,,,,,,,,stimuli/images/PICTURE_327.png,LEADER,59504939c58c85000101dc92,16/02/1949,2020-09-10_13h31.10.201,proactive3.1,2020.1.2,Win32,60,5f599a131af4471f3d752b7b,5f5a1c568a2d03068ae8efc0,2,,,,,,helmet,,,,,,0,37,37,17,1,2,2,,,,,,,,,,,,,,,,,,,,,,,,,,,,,,,,,,,,,,,,,,,,,,,,,,,,,,,,,,,,,,,,,,,,,,,,,,,,,,,,,,,,,,,,,,,,,,,,,,,,,,,,,,,,,
,,,,,,,,,,stimuli/images/PICTURE_688.png,CLOCK,59504939c58c85000101dc92,16/02/1949,2020-09-10_13h31.10.201,proactive3.1,2020.1.2,Win32,60,5f599a131af4471f3d752b7b,5f5a1c568a2d03068ae8efc0,2,,,,,,runner,,,,,,0,38,38,42,1,5,2,,,,,,,,,,,,,,,,,,,,,,,,,,,,,,,,,,,,,,,,,,,,,,,,,,,,,,,,,,,,,,,,,,,,,,,,,,,,,,,,,,,,,,,,,,,,,,,,,,,,,,,,,,,,,
,,,,,,,,,,stimuli/images/PICTURE_348.png,DUDE,59504939c58c85000101dc92,16/02/1949,2020-09-10_13h31.10.201,proactive3.1,2020.1.2,Win32,60,5f599a131af4471f3d752b7b,5f5a1c568a2d03068ae8efc0,2,,,,,,pepper,,,,,,0,39,39,59,1,6,2,,,,,,,,,,,,,,,,,,,,,,,,,,,,,,,,,,,,,,,,,,,,,,,,,,,,,,,,,,,,,,,,,,,,,,,,,,,,,,,,,,,,,,,,,,,,,,,,,,,,,,,,,,,,,
,,,,,,,,,,stimuli/images/PICTURE_177.png,HOUSE,59504939c58c85000101dc92,16/02/1949,2020-09-10_13h31.10.201,proactive3.1,2020.1.2,Win32,60,5f599a131af4471f3d752b7b,5f5a1c568a2d03068ae8efc0,2,,,,,,mushroom,,,,,,0,40,40,25,1,3,2,,,,,,,,,,,,,,,,,,,,,,,,,,,,,,,,,,,,,,,,,,,,,,,,,,,,,,,,,,,,,,,,,,,,,,,,,,,,,,,,,,,,,,,,,,,,,,,,,,,,,,,,,,,,,
,,,,,,,,,,stimuli/images/PICTURE_68.png,KIND,59504939c58c85000101dc92,16/02/1949,2020-09-10_13h31.10.201,proactive3.1,2020.1.2,Win32,60,5f599a131af4471f3d752b7b,5f5a1c568a2d03068ae8efc0,2,,,,,,candle,,,,,,0,41,41,23,1,3,2,,,,,,,,,,,,,,,,,,,,,,,,,,,,,,,,,,,,,,,,,,,,,,,,,,,,,,,,,,,,,,,,,,,,,,,,,,,,,,,,,,,,,,,,,,,,,,,,,,,,,,,,,,,,,
,,,,,,,,,,stimuli/images/PICTURE_405.png,HOUSE,59504939c58c85000101dc92,16/02/1949,2020-09-10_13h31.10.201,proactive3.1,2020.1.2,Win32,60,5f599a131af4471f3d752b7b,5f5a1c568a2d03068ae8efc0,2,,,,,,anchor,,,,,,0,42,42,2,1,1,2,,,,,,,,,,,,,,,,,,,,,,,,,,,,,,,,,,,,,,,,,,,,,,,,,,,,,,,,,,,,,,,,,,,,,,,,,,,,,,,,,,,,,,,,,,,,,,,,,,,,,,,,,,,,,
,,,,,,,,,,stimuli/images/PICTURE_470.png,MOMENT,59504939c58c85000101dc92,16/02/1949,2020-09-10_13h31.10.201,proactive3.1,2020.1.2,Win32,60,5f599a131af4471f3d752b7b,5f5a1c568a2d03068ae8efc0,2,,,,,,motorbike,,,,,,0,43,43,40,1,5,2,,,,,,,,,,,,,,,,,,,,,,,,,,,,,,,,,,,,,,,,,,,,,,,,,,,,,,,,,,,,,,,,,,,,,,,,,,,,,,,,,,,,,,,,,,,,,,,,,,,,,,,,,,,,,
,,,,,,,,,,stimuli/images/PICTURE_2.png,JUNGLE,59504939c58c85000101dc92,16/02/1949,2020-09-10_13h31.10.201,proactive3.1,2020.1.2,Win32,60,5f599a131af4471f3d752b7b,5f5a1c568a2d03068ae8efc0,2,,,,,,tyre,,,,,,0,44,44,1,1,1,2,,,,,,,,,,,,,,,,,,,,,,,,,,,,,,,,,,,,,,,,,,,,,,,,,,,,,,,,,,,,,,,,,,,,,,,,,,,,,,,,,,,,,,,,,,,,,,,,,,,,,,,,,,,,,
,,,,,,,,,,stimuli/images/PICTURE_692.png,DUDE,59504939c58c85000101dc92,16/02/1949,2020-09-10_13h31.10.201,proactive3.1,2020.1.2,Win32,60,5f599a131af4471f3d752b7b,5f5a1c568a2d03068ae8efc0,2,,,,,,cherry,,,,,,0,45,45,47,1,5,2,,,,,,,,,,,,,,,,,,,,,,,,,,,,,,,,,,,,,,,,,,,,,,,,,,,,,,,,,,,,,,,,,,,,,,,,,,,,,,,,,,,,,,,,,,,,,,,,,,,,,,,,,,,,,
,,,,,,,,,,stimuli/images/PICTURE_285.png,PRINCE,59504939c58c85000101dc92,16/02/1949,2020-09-10_13h31.10.201,proactive3.1,2020.1.2,Win32,60,5f599a131af4471f3d752b7b,5f5a1c568a2d03068ae8efc0,2,,,,,,carrot,,,,,,0,46,46,20,1,3,2,,,,,,,,,,,,,,,,,,,,,,,,,,,,,,,,,,,,,,,,,,,,,,,,,,,,,,,,,,,,,,,,,,,,,,,,,,,,,,,,,,,,,,,,,,,,,,,,,,,,,,,,,,,,,
,,,,,,,,,,stimuli/images/PICTURE_405.png,JUNGLE,59504939c58c85000101dc92,16/02/1949,2020-09-10_13h31.10.201,proactive3.1,2020.1.2,Win32,60,5f599a131af4471f3d752b7b,5f5a1c568a2d03068ae8efc0,2,,,,,,anchor,,,,,,0,47,47,13,1,2,2,,,,,,,,,,,,,,,,,,,,,,,,,,,,,,,,,,,,,,,,,,,,,,,,,,,,,,,,,,,,,,,,,,,,,,,,,,,,,,,,,,,,,,,,,,,,,,,,,,,,,,,,,,,,,
,,,,,,,,,,stimuli/images/PICTURE_18.png,RIVER,59504939c58c85000101dc92,16/02/1949,2020-09-10_13h31.10.201,proactive3.1,2020.1.2,Win32,60,5f599a131af4471f3d752b7b,5f5a1c568a2d03068ae8efc0,2,,,,,,planet,,,,,,0,48,48,22,1,3,2,,,,,,,,,,,,,,,,,,,,,,,,,,,,,,,,,,,,,,,,,,,,,,,,,,,,,,,,,,,,,,,,,,,,,,,,,,,,,,,,,,,,,,,,,,,,,,,,,,,,,,,,,,,,,
,,,,,,,,,,stimuli/images/PICTURE_487.png,ROOF,59504939c58c85000101dc92,16/02/1949,2020-09-10_13h31.10.201,proactive3.1,2020.1.2,Win32,60,5f599a131af4471f3d752b7b,5f5a1c568a2d03068ae8efc0,2,,,,,,basket,,,,,,0,49,49,50,1,6,2,,,,,,,,,,,,,,,,,,,,,,,,,,,,,,,,,,,,,,,,,,,,,,,,,,,,,,,,,,,,,,,,,,,,,,,,,,,,,,,,,,,,,,,,,,,,,,,,,,,,,,,,,,,,,
,,,,,,,,,,stimuli/images/PICTURE_403.png,FAMILY,59504939c58c85000101dc92,16/02/1949,2020-09-10_13h31.10.201,proactive3.1,2020.1.2,Win32,60,5f599a131af4471f3d752b7b,5f5a1c568a2d03068ae8efc0,2,,,,,,cathedral,,,,,,0,50,50,9,1,1,2,,,,,,,,,,,,,,,,,,,,,,,,,,,,,,,,,,,,,,,,,,,,,,,,,,,,,,,,,,,,,,,,,,,,,,,,,,,,,,,,,,,,,,,,,,,,,,,,,,,,,,,,,,,,,
,,,,,,,,,,stimuli/images/PICTURE_296.png,CLOCK,59504939c58c85000101dc92,16/02/1949,2020-09-10_13h31.10.201,proactive3.1,2020.1.2,Win32,60,5f599a131af4471f3d752b7b,5f5a1c568a2d03068ae8efc0,2,,,,,,bolt,,,,,,0,51,51,18,1,2,2,,,,,,,,,,,,,,,,,,,,,,,,,,,,,,,,,,,,,,,,,,,,,,,,,,,,,,,,,,,,,,,,,,,,,,,,,,,,,,,,,,,,,,,,,,,,,,,,,,,,,,,,,,,,,
,,,,,,,,,,stimuli/images/PICTURE_564.png,PLENTY,59504939c58c85000101dc92,16/02/1949,2020-09-10_13h31.10.201,proactive3.1,2020.1.2,Win32,60,5f599a131af4471f3d752b7b,5f5a1c568a2d03068ae8efc0,2,,,,,,spoon,,,,,,0,52,52,11,1,2,2,,,,,,,,,,,,,,,,,,,,,,,,,,,,,,,,,,,,,,,,,,,,,,,,,,,,,,,,,,,,,,,,,,,,,,,,,,,,,,,,,,,,,,,,,,,,,,,,,,,,,,,,,,,,,
,,,,,,,,,,stimuli/images/PICTURE_255.png,PENNY,59504939c58c85000101dc92,16/02/1949,2020-09-10_13h31.10.201,proactive3.1,2020.1.2,Win32,60,5f599a131af4471f3d752b7b,5f5a1c568a2d03068ae8efc0,2,,,,,,shovel,,,,,,0,53,53,19,1,2,2,,,,,,,,,,,,,,,,,,,,,,,,,,,,,,,,,,,,,,,,,,,,,,,,,,,,,,,,,,,,,,,,,,,,,,,,,,,,,,,,,,,,,,,,,,,,,,,,,,,,,,,,,,,,,
,,,,,,,,,,stimuli/images/PICTURE_147.png,LEADER,59504939c58c85000101dc92,16/02/1949,2020-09-10_13h31.10.201,proactive3.1,2020.1.2,Win32,60,5f599a131af4471f3d752b7b,5f5a1c568a2d03068ae8efc0,2,,,,,,hanger,,,,,,0,54,54,33,1,4,2,,,,,,,,,,,,,,,,,,,,,,,,,,,,,,,,,,,,,,,,,,,,,,,,,,,,,,,,,,,,,,,,,,,,,,,,,,,,,,,,,,,,,,,,,,,,,,,,,,,,,,,,,,,,,
,,,,,,,,,,stimuli/images/PICTURE_311.png,FLESH,59504939c58c85000101dc92,16/02/1949,2020-09-10_13h31.10.201,proactive3.1,2020.1.2,Win32,60,5f599a131af4471f3d752b7b,5f5a1c568a2d03068ae8efc0,2,,,,,,razor,,,,,,0,55,55,3,1,1,2,,,,,,,,,,,,,,,,,,,,,,,,,,,,,,,,,,,,,,,,,,,,,,,,,,,,,,,,,,,,,,,,,,,,,,,,,,,,,,,,,,,,,,,,,,,,,,,,,,,,,,,,,,,,,
,,,,,,,,,,stimuli/images/PICTURE_509.png,MILLER,59504939c58c85000101dc92,16/02/1949,2020-09-10_13h31.10.201,proactive3.1,2020.1.2,Win32,60,5f599a131af4471f3d752b7b,5f5a1c568a2d03068ae8efc0,2,,,,,,telephone,,,,,,0,56,56,49,1,5,2,,,,,,,,,,,,,,,,,,,,,,,,,,,,,,,,,,,,,,,,,,,,,,,,,,,,,,,,,,,,,,,,,,,,,,,,,,,,,,,,,,,,,,,,,,,,,,,,,,,,,,,,,,,,,
,,,,,,,,,,stimuli/images/PICTURE_297.png,BODY,59504939c58c85000101dc92,16/02/1949,2020-09-10_13h31.10.201,proactive3.1,2020.1.2,Win32,60,5f599a131af4471f3d752b7b,5f5a1c568a2d03068ae8efc0,2,,,,,,aeroplane,,,,,,0,57,57,51,1,6,2,,,,,,,,,,,,,,,,,,,,,,,,,,,,,,,,,,,,,,,,,,,,,,,,,,,,,,,,,,,,,,,,,,,,,,,,,,,,,,,,,,,,,,,,,,,,,,,,,,,,,,,,,,,,,
,,,,,,,,,,stimuli/images/PICTURE_215.png,LEADER,59504939c58c85000101dc92,16/02/1949,2020-09-10_13h31.10.201,proactive3.1,2020.1.2,Win32,60,5f599a131af4471f3d752b7b,5f5a1c568a2d03068ae8efc0,2,,,,,,boot,,,,,,0,58,58,43,1,5,2,,,,,,,,,,,,,,,,,,,,,,,,,,,,,,,,,,,,,,,,,,,,,,,,,,,,,,,,,,,,,,,,,,,,,,,,,,,,,,,,,,,,,,,,,,,,,,,,,,,,,,,,,,,,,
,,CLOCK,6.946575,1,,,,,,stimuli/images/PICTURE_296.png,CLOCK,59504939c58c85000101dc92,16/02/1949,2020-09-10_13h31.10.201,proactive3.1,2020.1.2,Win32,60,5f599a131af4471f3d752b7b,5f5a1c568a2d03068ae8efc0,2,,,,,,bolt,,,,,,,,,,,2,2,0,0,0,18,1,,,,,,,,,,,,,,,,,,,,,,,,,,,,,,,,,,,,,,,,,,,,,,,,,,,,,,,,,,,,,,,,,,,,,,,,,,,,,,,,,,,,,,,,,,,,,,,,,,,,,,,,
,,?,0.005175,0,,,,,,stimuli/images/PICTURE_487.png,POLICY,59504939c58c85000101dc92,16/02/1949,2020-09-10_13h31.10.201,proactive3.1,2020.1.2,Win32,60,5f599a131af4471f3d752b7b,5f5a1c568a2d03068ae8efc0,2,,,,,,basket,,,,,,,,,,,4,2,0,1,1,34,1,,,,,,,,,,,,,,,,,,,,,,,,,,,,,,,,,,,,,,,,,,,,,,,,,,,,,,,,,,,,,,,,,,,,,,,,,,,,,,,,,,,,,,,,,,,,,,,,,,,,,,,,
,,?,0.00174,0,,,,,,stimuli/images/PICTURE_68.png,KIND,59504939c58c85000101dc92,16/02/1949,2020-09-10_13h31.10.201,proactive3.1,2020.1.2,Win32,60,5f599a131af4471f3d752b7b,5f5a1c568a2d03068ae8efc0,2,,,,,,candle,,,,,,,,,,,3,2,0,2,2,23,1,,,,,,,,,,,,,,,,,,,,,,,,,,,,,,,,,,,,,,,,,,,,,,,,,,,,,,,,,,,,,,,,,,,,,,,,,,,,,,,,,,,,,,,,,,,,,,,,,,,,,,,,
,,JUNGLE,5.92706,1,,,,,,stimuli/images/PICTURE_405.png,JUNGLE,59504939c58c85000101dc92,16/02/1949,2020-09-10_13h31.10.201,proactive3.1,2020.1.2,Win32,60,5f599a131af4471f3d752b7b,5f5a1c568a2d03068ae8efc0,2,,,,,,anchor,,,,,,,,,,,2,2,0,3,3,13,1,,,,,,,,,,,,,,,,,,,,,,,,,,,,,,,,,,,,,,,,,,,,,,,,,,,,,,,,,,,,,,,,,,,,,,,,,,,,,,,,,,,,,,,,,,,,,,,,,,,,,,,,
,,?,0.00532,0,,,,,,stimuli/images/PICTURE_285.png,WRITER,59504939c58c85000101dc92,16/02/1949,2020-09-10_13h31.10.201,proactive3.1,2020.1.2,Win32,60,5f599a131af4471f3d752b7b,5f5a1c568a2d03068ae8efc0,2,,,,,,carrot,,,,,,,,,,,1,2,0,4,4,6,1,,,,,,,,,,,,,,,,,,,,,,,,,,,,,,,,,,,,,,,,,,,,,,,,,,,,,,,,,,,,,,,,,,,,,,,,,,,,,,,,,,,,,,,,,,,,,,,,,,,,,,,,
,,?,0.00179,0,,,,,,stimuli/images/PICTURE_667.png,GLASS,59504939c58c85000101dc92,16/02/1949,2020-09-10_13h31.10.201,proactive3.1,2020.1.2,Win32,60,5f599a131af4471f3d752b7b,5f5a1c568a2d03068ae8efc0,2,,,,,,daisy,,,,,,,,,,,3,2,0,5,5,27,1,,,,,,,,,,,,,,,,,,,,,,,,,,,,,,,,,,,,,,,,,,,,,,,,,,,,,,,,,,,,,,,,,,,,,,,,,,,,,,,,,,,,,,,,,,,,,,,,,,,,,,,,
,,?,0.00172,0,,,,,,stimuli/images/PICTURE_314.png,SPEECH,59504939c58c85000101dc92,16/02/1949,2020-09-10_13h31.10.201,proactive3.1,2020.1.2,Win32,60,5f599a131af4471f3d752b7b,5f5a1c568a2d03068ae8efc0,2,,,,,,perfume,,,,,,,,,,,4,2,0,6,6,35,1,,,,,,,,,,,,,,,,,,,,,,,,,,,,,,,,,,,,,,,,,,,,,,,,,,,,,,,,,,,,,,,,,,,,,,,,,,,,,,,,,,,,,,,,,,,,,,,,,,,,,,,,
,,?,0.002455,0,,,,,,stimuli/images/PICTURE_141.png,CLIENT,59504939c58c85000101dc92,16/02/1949,2020-09-10_13h31.10.201,proactive3.1,2020.1.2,Win32,60,5f599a131af4471f3d752b7b,5f5a1c568a2d03068ae8efc0,2,,,,,,sunflower,,,,,,,,,,,4,2,0,7,7,30,1,,,,,,,,,,,,,,,,,,,,,,,,,,,,,,,,,,,,,,,,,,,,,,,,,,,,,,,,,,,,,,,,,,,,,,,,,,,,,,,,,,,,,,,,,,,,,,,,,,,,,,,,
,,?,0.00171,0,,,,,,stimuli/images/PICTURE_177.png,HOUSE,59504939c58c85000101dc92,16/02/1949,2020-09-10_13h31.10.201,proactive3.1,2020.1.2,Win32,60,5f599a131af4471f3d752b7b,5f5a1c568a2d03068ae8efc0,2,,,,,,mushroom,,,,,,,,,,,3,2,0,8,8,25,1,,,,,,,,,,,,,,,,,,,,,,,,,,,,,,,,,,,,,,,,,,,,,,,,,,,,,,,,,,,,,,,,,,,,,,,,,,,,,,,,,,,,,,,,,,,,,,,,,,,,,,,,
,,BATH,3.916785,1,,,,,,stimuli/images/PICTURE_509.png,BATH,59504939c58c85000101dc92,16/02/1949,2020-09-10_13h31.10.201,proactive3.1,2020.1.2,Win32,60,5f599a131af4471f3d752b7b,5f5a1c568a2d03068ae8efc0,2,,,,,,telephone,,,,,,,,,,,2,2,0,9,9,15,1,,,,,,,,,,,,,,,,,,,,,,,,,,,,,,,,,,,,,,,,,,,,,,,,,,,,,,,,,,,,,,,,,,,,,,,,,,,,,,,,,,,,,,,,,,,,,,,,,,,,,,,,
,,?,0.003235,0,,,,,,stimuli/images/PICTURE_348.png,TOILET,59504939c58c85000101dc92,16/02/1949,2020-09-10_13h31.10.201,proactive3.1,2020.1.2,Win32,60,5f599a131af4471f3d752b7b,5f5a1c568a2d03068ae8efc0,2,,,,,,pepper,,,,,,,,,,,1,2,0,10,10,4,1,,,,,,,,,,,,,,,,,,,,,,,,,,,,,,,,,,,,,,,,,,,,,,,,,,,,,,,,,,,,,,,,,,,,,,,,,,,,,,,,,,,,,,,,,,,,,,,,,,,,,,,,
,,?,0.002475,0,,,,,,stimuli/images/PICTURE_470.png,MOMENT,59504939c58c85000101dc92,16/02/1949,2020-09-10_13h31.10.201,proactive3.1,2020.1.2,Win32,60,5f599a131af4471f3d752b7b,5f5a1c568a2d03068ae8efc0,2,,,,,,motorbike,,,,,,,,,,,5,2,0,11,11,40,1,,,,,,,,,,,,,,,,,,,,,,,,,,,,,,,,,,,,,,,,,,,,,,,,,,,,,,,,,,,,,,,,,,,,,,,,,,,,,,,,,,,,,,,,,,,,,,,,,,,,,,,,
,,?,0.00171,0,,,,,,stimuli/images/PICTURE_215.png,FOOD,59504939c58c85000101dc92,16/02/1949,2020-09-10_13h31.10.201,proactive3.1,2020.1.2,Win32,60,5f599a131af4471f3d752b7b,5f5a1c568a2d03068ae8efc0,2,,,,,,boot,,,,,,,,,,,1,2,0,12,12,5,1,,,,,,,,,,,,,,,,,,,,,,,,,,,,,,,,,,,,,,,,,,,,,,,,,,,,,,,,,,,,,,,,,,,,,,,,,,,,,,,,,,,,,,,,,,,,,,,,,,,,,,,,
,,?,0.001745,0,,,,,,stimuli/images/PICTURE_2.png,YARD,59504939c58c85000101dc92,16/02/1949,2020-09-10_13h31.10.201,proactive3.1,2020.1.2,Win32,60,5f599a131af4471f3d752b7b,5f5a1c568a2d03068ae8efc0,2,,,,,,tyre,,,,,,,,,,,6,2,0,13,13,55,1,,,,,,,,,,,,,,,,,,,,,,,,,,,,,,,,,,,,,,,,,,,,,,,,,,,,,,,,,,,,,,,,,,,,,,,,,,,,,,,,,,,,,,,,,,,,,,,,,,,,,,,,
,,?,0.00178,0,,,,,,stimuli/images/PICTURE_311.png,FLESH,59504939c58c85000101dc92,16/02/1949,2020-09-10_13h31.10.201,proactive3.1,2020.1.2,Win32,60,5f599a131af4471f3d752b7b,5f5a1c568a2d03068ae8efc0,2,,,,,,razor,,,,,,,,,,,1,2,0,14,14,3,1,,,,,,,,,,,,,,,,,,,,,,,,,,,,,,,,,,,,,,,,,,,,,,,,,,,,,,,,,,,,,,,,,,,,,,,,,,,,,,,,,,,,,,,,,,,,,,,,,,,,,,,,
,,?,0.00175,0,,,,,,stimuli/images/PICTURE_403.png,FAMILY,59504939c58c85000101dc92,16/02/1949,2020-09-10_13h31.10.201,proactive3.1,2020.1.2,Win32,60,5f599a131af4471f3d752b7b,5f5a1c568a2d03068ae8efc0,2,,,,,,cathedral,,,,,,,,,,,1,2,0,15,15,9,1,,,,,,,,,,,,,,,,,,,,,,,,,,,,,,,,,,,,,,,,,,,,,,,,,,,,,,,,,,,,,,,,,,,,,,,,,,,,,,,,,,,,,,,,,,,,,,,,,,,,,,,,
,,?,0.001795,0,,,,,,stimuli/images/PICTURE_123.png,SALE,59504939c58c85000101dc92,16/02/1949,2020-09-10_13h31.10.201,proactive3.1,2020.1.2,Win32,60,5f599a131af4471f3d752b7b,5f5a1c568a2d03068ae8efc0,2,,,,,,dart,,,,,,,,,,,1,2,0,16,16,8,1,,,,,,,,,,,,,,,,,,,,,,,,,,,,,,,,,,,,,,,,,,,,,,,,,,,,,,,,,,,,,,,,,,,,,,,,,,,,,,,,,,,,,,,,,,,,,,,,,,,,,,,,
,,?,0.001975,0,,,,,,stimuli/images/PICTURE_453.png,FAMILY,59504939c58c85000101dc92,16/02/1949,2020-09-10_13h31.10.201,proactive3.1,2020.1.2,Win32,60,5f599a131af4471f3d752b7b,5f5a1c568a2d03068ae8efc0,2,,,,,,scissors,,,,,,,,,,,5,2,0,17,17,48,1,,,,,,,,,,,,,,,,,,,,,,,,,,,,,,,,,,,,,,,,,,,,,,,,,,,,,,,,,,,,,,,,,,,,,,,,,,,,,,,,,,,,,,,,,,,,,,,,,,,,,,,,
,,?,0.001975,0,,,,,,stimuli/images/PICTURE_57.png,NATION,59504939c58c85000101dc92,16/02/1949,2020-09-10_13h31.10.201,proactive3.1,2020.1.2,Win32,60,5f599a131af4471f3d752b7b,5f5a1c568a2d03068ae8efc0,2,,,,,,stamp,,,,,,,,,,,3,2,0,18,18,21,1,,,,,,,,,,,,,,,,,,,,,,,,,,,,,,,,,,,,,,,,,,,,,,,,,,,,,,,,,,,,,,,,,,,,,,,,,,,,,,,,,,,,,,,,,,,,,,,,,,,,,,,,
,,HOTEL,4.57947,1,,,,,,stimuli/images/PICTURE_160.png,HOTEL,59504939c58c85000101dc92,16/02/1949,2020-09-10_13h31.10.201,proactive3.1,2020.1.2,Win32,60,5f599a131af4471f3d752b7b,5f5a1c568a2d03068ae8efc0,2,,,,,,wheelbarrow,,,,,,,,,,,2,2,0,19,19,16,1,,,,,,,,,,,,,,,,,,,,,,,,,,,,,,,,,,,,,,,,,,,,,,,,,,,,,,,,,,,,,,,,,,,,,,,,,,,,,,,,,,,,,,,,,,,,,,,,,,,,,,,,
,,?,0.0029,0,,,,,,stimuli/images/PICTURE_348.png,DUDE,59504939c58c85000101dc92,16/02/1949,2020-09-10_13h31.10.201,proactive3.1,2020.1.2,Win32,60,5f599a131af4471f3d752b7b,5f5a1c568a2d03068ae8efc0,2,,,,,,pepper,,,,,,,,,,,6,2,0,20,20,59,1,,,,,,,,,,,,,,,,,,,,,,,,,,,,,,,,,,,,,,,,,,,,,,,,,,,,,,,,,,,,,,,,,,,,,,,,,,,,,,,,,,,,,,,,,,,,,,,,,,,,,,,,
,,?,0.00223,0,,,,,,stimuli/images/PICTURE_491.png,SERIES,59504939c58c85000101dc92,16/02/1949,2020-09-10_13h31.10.201,proactive3.1,2020.1.2,Win32,60,5f599a131af4471f3d752b7b,5f5a1c568a2d03068ae8efc0,2,,,,,,rug,,,,,,,,,,,4,2,0,21,21,39,1,,,,,,,,,,,,,,,,,,,,,,,,,,,,,,,,,,,,,,,,,,,,,,,,,,,,,,,,,,,,,,,,,,,,,,,,,,,,,,,,,,,,,,,,,,,,,,,,,,,,,,,,
,,?,0.00247,0,,,,,,stimuli/images/PICTURE_509.png,SHOTS,59504939c58c85000101dc92,16/02/1949,2020-09-10_13h31.10.201,proactive3.1,2020.1.2,Win32,60,5f599a131af4471f3d752b7b,5f5a1c568a2d03068ae8efc0,2,,,,,,telephone,,,,,,,,,,,1,2,0,22,22,7,1,,,,,,,,,,,,,,,,,,,,,,,,,,,,,,,,,,,,,,,,,,,,,,,,,,,,,,,,,,,,,,,,,,,,,,,,,,,,,,,,,,,,,,,,,,,,,,,,,,,,,,,,
,,?,0.00173,0,,,,,,stimuli/images/PICTURE_32.png,LETTER,59504939c58c85000101dc92,16/02/1949,2020-09-10_13h31.10.201,proactive3.1,2020.1.2,Win32,60,5f599a131af4471f3d752b7b,5f5a1c568a2d03068ae8efc0,2,,,,,,crown,,,,,,,,,,,6,2,0,23,23,56,1,,,,,,,,,,,,,,,,,,,,,,,,,,,,,,,,,,,,,,,,,,,,,,,,,,,,,,,,,,,,,,,,,,,,,,,,,,,,,,,,,,,,,,,,,,,,,,,,,,,,,,,,
,,?,0.00171,0,,,,,,stimuli/images/PICTURE_18.png,RIVER,59504939c58c85000101dc92,16/02/1949,2020-09-10_13h31.10.201,proactive3.1,2020.1.2,Win32,60,5f599a131af4471f3d752b7b,5f5a1c568a2d03068ae8efc0,2,,,,,,planet,,,,,,,,,,,3,2,0,24,24,22,1,,,,,,,,,,,,,,,,,,,,,,,,,,,,,,,,,,,,,,,,,,,,,,,,,,,,,,,,,,,,,,,,,,,,,,,,,,,,,,,,,,,,,,,,,,,,,,,,,,,,,,,,
,,?,0.00326,0,,,,,,stimuli/images/PICTURE_93.png,GIRL,59504939c58c85000101dc92,16/02/1949,2020-09-10_13h31.10.201,proactive3.1,2020.1.2,Win32,60,5f599a131af4471f3d752b7b,5f5a1c568a2d03068ae8efc0,2,,,,,,skateboard,,,,,,,,,,,4,2,0,25,25,31,1,,,,,,,,,,,,,,,,,,,,,,,,,,,,,,,,,,,,,,,,,,,,,,,,,,,,,,,,,,,,,,,,,,,,,,,,,,,,,,,,,,,,,,,,,,,,,,,,,,,,,,,,
,,?,0.001725,0,,,,,,stimuli/images/PICTURE_688.png,CLOCK,59504939c58c85000101dc92,16/02/1949,2020-09-10_13h31.10.201,proactive3.1,2020.1.2,Win32,60,5f599a131af4471f3d752b7b,5f5a1c568a2d03068ae8efc0,2,,,,,,runner,,,,,,,,,,,5,2,0,26,26,42,1,,,,,,,,,,,,,,,,,,,,,,,,,,,,,,,,,,,,,,,,,,,,,,,,,,,,,,,,,,,,,,,,,,,,,,,,,,,,,,,,,,,,,,,,,,,,,,,,,,,,,,,,
,,?,0.001915,0,,,,,,stimuli/images/PICTURE_33.png,COPS,59504939c58c85000101dc92,16/02/1949,2020-09-10_13h31.10.201,proactive3.1,2020.1.2,Win32,60,5f599a131af4471f3d752b7b,5f5a1c568a2d03068ae8efc0,2,,,,,,frame,,,,,,,,,,,3,2,0,27,27,29,1,,,,,,,,,,,,,,,,,,,,,,,,,,,,,,,,,,,,,,,,,,,,,,,,,,,,,,,,,,,,,,,,,,,,,,,,,,,,,,,,,,,,,,,,,,,,,,,,,,,,,,,,
,,?,0.001695,0,,,,,,stimuli/images/PICTURE_356.png,CANDY,59504939c58c85000101dc92,16/02/1949,2020-09-10_13h31.10.201,proactive3.1,2020.1.2,Win32,60,5f599a131af4471f3d752b7b,5f5a1c568a2d03068ae8efc0,2,,,,,,pawn,,,,,,,,,,,5,2,0,28,28,46,1,,,,,,,,,,,,,,,,,,,,,,,,,,,,,,,,,,,,,,,,,,,,,,,,,,,,,,,,,,,,,,,,,,,,,,,,,,,,,,,,,,,,,,,,,,,,,,,,,,,,,,,,
,,?,0.001735,0,,,,,,stimuli/images/PICTURE_452.png,COPS,59504939c58c85000101dc92,16/02/1949,2020-09-10_13h31.10.201,proactive3.1,2020.1.2,Win32,60,5f599a131af4471f3d752b7b,5f5a1c568a2d03068ae8efc0,2,,,,,,watch,,,,,,,,,,,1,2,0,29,29,0,1,,,,,,,,,,,,,,,,,,,,,,,,,,,,,,,,,,,,,,,,,,,,,,,,,,,,,,,,,,,,,,,,,,,,,,,,,,,,,,,,,,,,,,,,,,,,,,,,,,,,,,,,
,,PHOTO,8.66941,0,,,,,,stimuli/images/PICTURE_57.png,CASINO,59504939c58c85000101dc92,16/02/1949,2020-09-10_13h31.10.201,proactive3.1,2020.1.2,Win32,60,5f599a131af4471f3d752b7b,5f5a1c568a2d03068ae8efc0,2,,,,,,stamp,,,,,,,,,,,2,2,0,30,30,12,1,,,,,,,,,,,,,,,,,,,,,,,,,,,,,,,,,,,,,,,,,,,,,,,,,,,,,,,,,,,,,,,,,,,,,,,,,,,,,,,,,,,,,,,,,,,,,,,,,,,,,,,,
,,?,0.00337,0,,,,,,stimuli/images/PICTURE_285.png,PRINCE,59504939c58c85000101dc92,16/02/1949,2020-09-10_13h31.10.201,proactive3.1,2020.1.2,Win32,60,5f599a131af4471f3d752b7b,5f5a1c568a2d03068ae8efc0,2,,,,,,carrot,,,,,,,,,,,3,2,0,31,31,20,1,,,,,,,,,,,,,,,,,,,,,,,,,,,,,,,,,,,,,,,,,,,,,,,,,,,,,,,,,,,,,,,,,,,,,,,,,,,,,,,,,,,,,,,,,,,,,,,,,,,,,,,,
,,?,2.030145,0,,,,,,stimuli/images/PICTURE_654.png,COPS,59504939c58c85000101dc92,16/02/1949,2020-09-10_13h31.10.201,proactive3.1,2020.1.2,Win32,60,5f599a131af4471f3d752b7b,5f5a1c568a2d03068ae8efc0,2,,,,,,pencil,,,,,,,,,,,2,2,0,32,32,10,1,,,,,,,,,,,,,,,,,,,,,,,,,,,,,,,,,,,,,,,,,,,,,,,,,,,,,,,,,,,,,,,,,,,,,,,,,,,,,,,,,,,,,,,,,,,,,,,,,,,,,,,,
,,?,0.00325,0,,,,,,stimuli/images/PICTURE_487.png,ROOF,59504939c58c85000101dc92,16/02/1949,2020-09-10_13h31.10.201,proactive3.1,2020.1.2,Win32,60,5f599a131af4471f3d752b7b,5f5a1c568a2d03068ae8efc0,2,,,,,,basket,,,,,,,,,,,6,2,0,33,33,50,1,,,,,,,,,,,,,,,,,,,,,,,,,,,,,,,,,,,,,,,,,,,,,,,,,,,,,,,,,,,,,,,,,,,,,,,,,,,,,,,,,,,,,,,,,,,,,,,,,,,,,,,,
,,?,0.004235,0,,,,,,stimuli/images/PICTURE_95.png,NIGHT,59504939c58c85000101dc92,16/02/1949,2020-09-10_13h31.10.201,proactive3.1,2020.1.2,Win32,60,5f599a131af4471f3d752b7b,5f5a1c568a2d03068ae8efc0,2,,,,,,suitcase,,,,,,,,,,,4,2,0,34,34,37,1,,,,,,,,,,,,,,,,,,,,,,,,,,,,,,,,,,,,,,,,,,,,,,,,,,,,,,,,,,,,,,,,,,,,,,,,,,,,,,,,,,,,,,,,,,,,,,,,,,,,,,,,
,,?,0.0017,0,,,,,,stimuli/images/PICTURE_692.png,DUDE,59504939c58c85000101dc92,16/02/1949,2020-09-10_13h31.10.201,proactive3.1,2020.1.2,Win32,60,5f599a131af4471f3d752b7b,5f5a1c568a2d03068ae8efc0,2,,,,,,cherry,,,,,,,,,,,5,2,0,35,35,47,1,,,,,,,,,,,,,,,,,,,,,,,,,,,,,,,,,,,,,,,,,,,,,,,,,,,,,,,,,,,,,,,,,,,,,,,,,,,,,,,,,,,,,,,,,,,,,,,,,,,,,,,,
,,?,0.001755,0,,,,,,stimuli/images/PICTURE_297.png,BODY,59504939c58c85000101dc92,16/02/1949,2020-09-10_13h31.10.201,proactive3.1,2020.1.2,Win32,60,5f599a131af4471f3d752b7b,5f5a1c568a2d03068ae8efc0,2,,,,,,aeroplane,,,,,,,,,,,6,2,0,36,36,51,1,,,,,,,,,,,,,,,,,,,,,,,,,,,,,,,,,,,,,,,,,,,,,,,,,,,,,,,,,,,,,,,,,,,,,,,,,,,,,,,,,,,,,,,,,,,,,,,,,,,,,,,,
,,?,9.13974,0,,,,,,stimuli/images/PICTURE_255.png,PENNY,59504939c58c85000101dc92,16/02/1949,2020-09-10_13h31.10.201,proactive3.1,2020.1.2,Win32,60,5f599a131af4471f3d752b7b,5f5a1c568a2d03068ae8efc0,2,,,,,,shovel,,,,,,,,,,,2,2,0,37,37,19,1,,,,,,,,,,,,,,,,,,,,,,,,,,,,,,,,,,,,,,,,,,,,,,,,,,,,,,,,,,,,,,,,,,,,,,,,,,,,,,,,,,,,,,,,,,,,,,,,,,,,,,,,
,,?,0.00512,0,,,,,,stimuli/images/PICTURE_215.png,LEADER,59504939c58c85000101dc92,16/02/1949,2020-09-10_13h31.10.201,proactive3.1,2020.1.2,Win32,60,5f599a131af4471f3d752b7b,5f5a1c568a2d03068ae8efc0,2,,,,,,boot,,,,,,,,,,,5,2,0,38,38,43,1,,,,,,,,,,,,,,,,,,,,,,,,,,,,,,,,,,,,,,,,,,,,,,,,,,,,,,,,,,,,,,,,,,,,,,,,,,,,,,,,,,,,,,,,,,,,,,,,,,,,,,,,
,,?,0.001835,0,,,,,,stimuli/images/PICTURE_655.png,SALE,59504939c58c85000101dc92,16/02/1949,2020-09-10_13h31.10.201,proactive3.1,2020.1.2,Win32,60,5f599a131af4471f3d752b7b,5f5a1c568a2d03068ae8efc0,2,,,,,,megaphone,,,,,,,,,,,6,2,0,39,39,57,1,,,,,,,,,,,,,,,,,,,,,,,,,,,,,,,,,,,,,,,,,,,,,,,,,,,,,,,,,,,,,,,,,,,,,,,,,,,,,,,,,,,,,,,,,,,,,,,,,,,,,,,,
,,?,0.0017,0,,,,,,stimuli/images/PICTURE_708.png,VALLEY,59504939c58c85000101dc92,16/02/1949,2020-09-10_13h31.10.201,proactive3.1,2020.1.2,Win32,60,5f599a131af4471f3d752b7b,5f5a1c568a2d03068ae8efc0,2,,,,,,monkey,,,,,,,,,,,5,2,0,40,40,45,1,,,,,,,,,,,,,,,,,,,,,,,,,,,,,,,,,,,,,,,,,,,,,,,,,,,,,,,,,,,,,,,,,,,,,,,,,,,,,,,,,,,,,,,,,,,,,,,,,,,,,,,,
,,?,0.00203,0,,,,,,stimuli/images/PICTURE_2.png,AREA,59504939c58c85000101dc92,16/02/1949,2020-09-10_13h31.10.201,proactive3.1,2020.1.2,Win32,60,5f599a131af4471f3d752b7b,5f5a1c568a2d03068ae8efc0,2,,,,,,tyre,,,,,,,,,,,4,2,0,41,41,32,1,,,,,,,,,,,,,,,,,,,,,,,,,,,,,,,,,,,,,,,,,,,,,,,,,,,,,,,,,,,,,,,,,,,,,,,,,,,,,,,,,,,,,,,,,,,,,,,,,,,,,,,,
,,PLENTY,5.635495,1,,,,,,stimuli/images/PICTURE_564.png,PLENTY,59504939c58c85000101dc92,16/02/1949,2020-09-10_13h31.10.201,proactive3.1,2020.1.2,Win32,60,5f599a131af4471f3d752b7b,5f5a1c568a2d03068ae8efc0,2,,,,,,spoon,,,,,,,,,,,2,2,0,42,42,11,1,,,,,,,,,,,,,,,,,,,,,,,,,,,,,,,,,,,,,,,,,,,,,,,,,,,,,,,,,,,,,,,,,,,,,,,,,,,,,,,,,,,,,,,,,,,,,,,,,,,,,,,,
,,?,0.00359,0,,,,,,stimuli/images/PICTURE_509.png,MILLER,59504939c58c85000101dc92,16/02/1949,2020-09-10_13h31.10.201,proactive3.1,2020.1.2,Win32,60,5f599a131af4471f3d752b7b,5f5a1c568a2d03068ae8efc0,2,,,,,,telephone,,,,,,,,,,,5,2,0,43,43,49,1,,,,,,,,,,,,,,,,,,,,,,,,,,,,,,,,,,,,,,,,,,,,,,,,,,,,,,,,,,,,,,,,,,,,,,,,,,,,,,,,,,,,,,,,,,,,,,,,,,,,,,,,
,,?,0.00169,0,,,,,,stimuli/images/PICTURE_215.png,BOYS,59504939c58c85000101dc92,16/02/1949,2020-09-10_13h31.10.201,proactive3.1,2020.1.2,Win32,60,5f599a131af4471f3d752b7b,5f5a1c568a2d03068ae8efc0,2,,,,,,boot,,,,,,,,,,,3,2,0,44,44,24,1,,,,,,,,,,,,,,,,,,,,,,,,,,,,,,,,,,,,,,,,,,,,,,,,,,,,,,,,,,,,,,,,,,,,,,,,,,,,,,,,,,,,,,,,,,,,,,,,,,,,,,,,
,,?,0.001785,0,,,,,,stimuli/images/PICTURE_405.png,HOUSE,59504939c58c85000101dc92,16/02/1949,2020-09-10_13h31.10.201,proactive3.1,2020.1.2,Win32,60,5f599a131af4471f3d752b7b,5f5a1c568a2d03068ae8efc0,2,,,,,,anchor,,,,,,,,,,,1,2,0,45,45,2,1,,,,,,,,,,,,,,,,,,,,,,,,,,,,,,,,,,,,,,,,,,,,,,,,,,,,,,,,,,,,,,,,,,,,,,,,,,,,,,,,,,,,,,,,,,,,,,,,,,,,,,,,
,,?,0.00169,0,,,,,,stimuli/images/PICTURE_311.png,TOILET,59504939c58c85000101dc92,16/02/1949,2020-09-10_13h31.10.201,proactive3.1,2020.1.2,Win32,60,5f599a131af4471f3d752b7b,5f5a1c568a2d03068ae8efc0,2,,,,,,razor,,,,,,,,,,,6,2,0,46,46,54,1,,,,,,,,,,,,,,,,,,,,,,,,,,,,,,,,,,,,,,,,,,,,,,,,,,,,,,,,,,,,,,,,,,,,,,,,,,,,,,,,,,,,,,,,,,,,,,,,,,,,,,,,
,,?,0.0018,0,,,,,,stimuli/images/PICTURE_2.png,JUNGLE,59504939c58c85000101dc92,16/02/1949,2020-09-10_13h31.10.201,proactive3.1,2020.1.2,Win32,60,5f599a131af4471f3d752b7b,5f5a1c568a2d03068ae8efc0,2,,,,,,tyre,,,,,,,,,,,1,2,0,47,47,1,1,,,,,,,,,,,,,,,,,,,,,,,,,,,,,,,,,,,,,,,,,,,,,,,,,,,,,,,,,,,,,,,,,,,,,,,,,,,,,,,,,,,,,,,,,,,,,,,,,,,,,,,,
,,?,0.00169,0,,,,,,stimuli/images/PICTURE_470.png,BEAUTY,59504939c58c85000101dc92,16/02/1949,2020-09-10_13h31.10.201,proactive3.1,2020.1.2,Win32,60,5f599a131af4471f3d752b7b,5f5a1c568a2d03068ae8efc0,2,,,,,,motorbike,,,,,,,,,,,3,2,0,48,48,26,1,,,,,,,,,,,,,,,,,,,,,,,,,,,,,,,,,,,,,,,,,,,,,,,,,,,,,,,,,,,,,,,,,,,,,,,,,,,,,,,,,,,,,,,,,,,,,,,,,,,,,,,,
,,LEADER,5.263475,1,,,,,,stimuli/images/PICTURE_327.png,LEADER,59504939c58c85000101dc92,16/02/1949,2020-09-10_13h31.10.201,proactive3.1,2020.1.2,Win32,60,5f599a131af4471f3d752b7b,5f5a1c568a2d03068ae8efc0,2,,,,,,helmet,,,,,,,,,,,2,2,0,49,49,17,1,,,,,,,,,,,,,,,,,,,,,,,,,,,,,,,,,,,,,,,,,,,,,,,,,,,,,,,,,,,,,,,,,,,,,,,,,,,,,,,,,,,,,,,,,,,,,,,,,,,,,,,,
,,?,0.003255,0,,,,,,stimuli/images/PICTURE_405.png,JUNGLE,59504939c58c85000101dc92,16/02/1949,2020-09-10_13h31.10.201,proactive3.1,2020.1.2,Win32,60,5f599a131af4471f3d752b7b,5f5a1c568a2d03068ae8efc0,2,,,,,,anchor,,,,,,,,,,,6,2,0,50,50,58,1,,,,,,,,,,,,,,,,,,,,,,,,,,,,,,,,,,,,,,,,,,,,,,,,,,,,,,,,,,,,,,,,,,,,,,,,,,,,,,,,,,,,,,,,,,,,,,,,,,,,,,,,
,,?,0.001835,0,,,,,,stimuli/images/PICTURE_208.png,SPIRIT,59504939c58c85000101dc92,16/02/1949,2020-09-10_13h31.10.201,proactive3.1,2020.1.2,Win32,60,5f599a131af4471f3d752b7b,5f5a1c568a2d03068ae8efc0,2,,,,,,microphone,,,,,,,,,,,3,2,0,51,51,28,1,,,,,,,,,,,,,,,,,,,,,,,,,,,,,,,,,,,,,,,,,,,,,,,,,,,,,,,,,,,,,,,,,,,,,,,,,,,,,,,,,,,,,,,,,,,,,,,,,,,,,,,,
,,PHOTO,9.079625,1,,,,,,stimuli/images/PICTURE_677.png,PHOTO,59504939c58c85000101dc92,16/02/1949,2020-09-10_13h31.10.201,proactive3.1,2020.1.2,Win32,60,5f599a131af4471f3d752b7b,5f5a1c568a2d03068ae8efc0,2,,,,,,map,,,,,,,,,,,2,2,0,52,52,14,1,,,,,,,,,,,,,,,,,,,,,,,,,,,,,,,,,,,,,,,,,,,,,,,,,,,,,,,,,,,,,,,,,,,,,,,,,,,,,,,,,,,,,,,,,,,,,,,,,,,,,,,,
,,?,0.00616,0,,,,,,stimuli/images/PICTURE_57.png,CANDY,59504939c58c85000101dc92,16/02/1949,2020-09-10_13h31.10.201,proactive3.1,2020.1.2,Win32,60,5f599a131af4471f3d752b7b,5f5a1c568a2d03068ae8efc0,2,,,,,,stamp,,,,,,,,,,,6,2,0,53,53,52,1,,,,,,,,,,,,,,,,,,,,,,,,,,,,,,,,,,,,,,,,,,,,,,,,,,,,,,,,,,,,,,,,,,,,,,,,,,,,,,,,,,,,,,,,,,,,,,,,,,,,,,,,
,,?,0.001715,0,,,,,,stimuli/images/PICTURE_750.png,POLICY,59504939c58c85000101dc92,16/02/1949,2020-09-10_13h31.10.201,proactive3.1,2020.1.2,Win32,60,5f599a131af4471f3d752b7b,5f5a1c568a2d03068ae8efc0,2,,,,,,kettle,,,,,,,,,,,5,2,0,54,54,44,1,,,,,,,,,,,,,,,,,,,,,,,,,,,,,,,,,,,,,,,,,,,,,,,,,,,,,,,,,,,,,,,,,,,,,,,,,,,,,,,,,,,,,,,,,,,,,,,,,,,,,,,,
,,?,0.001685,0,,,,,,stimuli/images/PICTURE_147.png,LEADER,59504939c58c85000101dc92,16/02/1949,2020-09-10_13h31.10.201,proactive3.1,2020.1.2,Win32,60,5f599a131af4471f3d752b7b,5f5a1c568a2d03068ae8efc0,2,,,,,,hanger,,,,,,,,,,,4,2,0,55,55,33,1,,,,,,,,,,,,,,,,,,,,,,,,,,,,,,,,,,,,,,,,,,,,,,,,,,,,,,,,,,,,,,,,,,,,,,,,,,,,,,,,,,,,,,,,,,,,,,,,,,,,,,,,
,,?,0.001915,0,,,,,,stimuli/images/PICTURE_504.png,HOUSE,59504939c58c85000101dc92,16/02/1949,2020-09-10_13h31.10.201,proactive3.1,2020.1.2,Win32,60,5f599a131af4471f3d752b7b,5f5a1c568a2d03068ae8efc0,2,,,,,,wheel,,,,,,,,,,,4,2,0,56,56,36,1,,,,,,,,,,,,,,,,,,,,,,,,,,,,,,,,,,,,,,,,,,,,,,,,,,,,,,,,,,,,,,,,,,,,,,,,,,,,,,,,,,,,,,,,,,,,,,,,,,,,,,,,
,,?,0.00171,0,,,,,,stimuli/images/PICTURE_654.png,YEAR,59504939c58c85000101dc92,16/02/1949,2020-09-10_13h31.10.201,proactive3.1,2020.1.2,Win32,60,5f599a131af4471f3d752b7b,5f5a1c568a2d03068ae8efc0,2,,,,,,pencil,,,,,,,,,,,5,2,0,57,57,41,1,,,,,,,,,,,,,,,,,,,,,,,,,,,,,,,,,,,,,,,,,,,,,,,,,,,,,,,,,,,,,,,,,,,,,,,,,,,,,,,,,,,,,,,,,,,,,,,,,,,,,,,,
,,?,0.001655,0,,,,,,stimuli/images/PICTURE_677.png,FAMILY,59504939c58c85000101dc92,16/02/1949,2020-09-10_13h31.10.201,proactive3.1,2020.1.2,Win32,60,5f599a131af4471f3d752b7b,5f5a1c568a2d03068ae8efc0,2,,,,,,map,,,,,,,,,,,6,2,0,58,58,53,1,,,,,,,,,,,,,,,,,,,,,,,,,,,,,,,,,,,,,,,,,,,,,,,,,,,,,,,,,,,,,,,,,,,,,,,,,,,,,,,,,,,,,,,,,,,,,,,,,,,,,,,,
,,?,0.001845,0,,,,,,stimuli/images/PICTURE_509.png,APPLE,59504939c58c85000101dc92,16/02/1949,2020-09-10_13h31.10.201,proactive3.1,2020.1.2,Win32,60,5f599a131af4471f3d752b7b,5f5a1c568a2d03068ae8efc0,2,,,,,,telephone,,,,,,,,,,,4,2,0,59,59,38,1,,,,,,,,,,,,,,,,,,,,,,,,,,,,,,,,,,,,,,,,,,,,,,,,,,,,,,,,,,,,,,,,,,,,,,,,,,,,,,,,,,,,,,,,,,,,,,,,,,,,,,,,
,,,,,,,,,,,,59504939c58c85000101dc92,16/02/1949,2020-09-10_13h31.10.201,proactive3.1,2020.1.2,Win32,60,5f599a131af4471f3d752b7b,5f5a1c568a2d03068ae8efc0,2,,,,,,,,,,,,,,,,,,,,,,,,0,1,1,2,1,stimuli/learn-block3.csv,,,,,,,,,,,,,,,,,,,,,,,,,,,,,,,,,,,,,,,,,,,,,,,,,,,,,,,,,,,,,,,,,,,,,,,,,,,,,,,,,,,,,,,,,,,,,,,,,,
,,,,,,,,,,stimuli/images/PICTURE_380.png,CANDY,59504939c58c85000101dc92,16/02/1949,2020-09-10_13h31.10.201,proactive3.1,2020.1.2,Win32,60,5f599a131af4471f3d752b7b,5f5a1c568a2d03068ae8efc0,2,,,,,,gorilla,,,,,,0,0,0,0,1,1,1,,,,,,,,,,,,,,,,,,,,,,,,,,,,,,,,,,,,,,,,,,,,,,,,,,,,,,,,,,,,,,,,,,,,,,,,,,,,,,,,,,,,,,,,,,,,,,,,,,,,,,,,,,,,,
,,,,,,,,,,stimuli/images/PICTURE_677.png,APPLE,59504939c58c85000101dc92,16/02/1949,2020-09-10_13h31.10.201,proactive3.1,2020.1.2,Win32,60,5f599a131af4471f3d752b7b,5f5a1c568a2d03068ae8efc0,2,,,,,,map,,,,,,0,1,1,43,1,5,1,,,,,,,,,,,,,,,,,,,,,,,,,,,,,,,,,,,,,,,,,,,,,,,,,,,,,,,,,,,,,,,,,,,,,,,,,,,,,,,,,,,,,,,,,,,,,,,,,,,,,,,,,,,,,
,,,,,,,,,,stimuli/images/PICTURE_147.png,YEAR,59504939c58c85000101dc92,16/02/1949,2020-09-10_13h31.10.201,proactive3.1,2020.1.2,Win32,60,5f599a131af4471f3d752b7b,5f5a1c568a2d03068ae8efc0,2,,,,,,hanger,,,,,,0,2,2,21,1,3,1,,,,,,,,,,,,,,,,,,,,,,,,,,,,,,,,,,,,,,,,,,,,,,,,,,,,,,,,,,,,,,,,,,,,,,,,,,,,,,,,,,,,,,,,,,,,,,,,,,,,,,,,,,,,,
,,,,,,,,,,stimuli/images/PICTURE_685.png,PENNY,59504939c58c85000101dc92,16/02/1949,2020-09-10_13h31.10.201,proactive3.1,2020.1.2,Win32,60,5f599a131af4471f3d752b7b,5f5a1c568a2d03068ae8efc0,2,,,,,,goose,,,,,,0,3,3,4,1,1,1,,,,,,,,,,,,,,,,,,,,,,,,,,,,,,,,,,,,,,,,,,,,,,,,,,,,,,,,,,,,,,,,,,,,,,,,,,,,,,,,,,,,,,,,,,,,,,,,,,,,,,,,,,,,,
,,,,,,,,,,stimuli/images/PICTURE_504.png,YEAR,59504939c58c85000101dc92,16/02/1949,2020-09-10_13h31.10.201,proactive3.1,2020.1.2,Win32,60,5f599a131af4471f3d752b7b,5f5a1c568a2d03068ae8efc0,2,,,,,,wheel,,,,,,0,4,4,13,1,2,1,,,,,,,,,,,,,,,,,,,,,,,,,,,,,,,,,,,,,,,,,,,,,,,,,,,,,,,,,,,,,,,,,,,,,,,,,,,,,,,,,,,,,,,,,,,,,,,,,,,,,,,,,,,,,
,,,,,,,,,,stimuli/images/PICTURE_68.png,MILE,59504939c58c85000101dc92,16/02/1949,2020-09-10_13h31.10.201,proactive3.1,2020.1.2,Win32,60,5f599a131af4471f3d752b7b,5f5a1c568a2d03068ae8efc0,2,,,,,,candle,,,,,,0,5,5,51,1,6,1,,,,,,,,,,,,,,,,,,,,,,,,,,,,,,,,,,,,,,,,,,,,,,,,,,,,,,,,,,,,,,,,,,,,,,,,,,,,,,,,,,,,,,,,,,,,,,,,,,,,,,,,,,,,,
,,,,,,,,,,stimuli/images/PICTURE_95.png,HONEY,59504939c58c85000101dc92,16/02/1949,2020-09-10_13h31.10.201,proactive3.1,2020.1.2,Win32,60,5f599a131af4471f3d752b7b,5f5a1c568a2d03068ae8efc0,2,,,,,,suitcase,,,,,,0,6,6,44,1,5,1,,,,,,,,,,,,,,,,,,,,,,,,,,,,,,,,,,,,,,,,,,,,,,,,,,,,,,,,,,,,,,,,,,,,,,,,,,,,,,,,,,,,,,,,,,,,,,,,,,,,,,,,,,,,,
,,,,,,,,,,stimuli/images/PICTURE_744.png,WEAPON,59504939c58c85000101dc92,16/02/1949,2020-09-10_13h31.10.201,proactive3.1,2020.1.2,Win32,60,5f599a131af4471f3d752b7b,5f5a1c568a2d03068ae8efc0,2,,,,,,ring,,,,,,0,7,7,50,1,6,1,,,,,,,,,,,,,,,,,,,,,,,,,,,,,,,,,,,,,,,,,,,,,,,,,,,,,,,,,,,,,,,,,,,,,,,,,,,,,,,,,,,,,,,,,,,,,,,,,,,,,,,,,,,,,
,,,,,,,,,,stimuli/images/PICTURE_491.png,RIVER,59504939c58c85000101dc92,16/02/1949,2020-09-10_13h31.10.201,proactive3.1,2020.1.2,Win32,60,5f599a131af4471f3d752b7b,5f5a1c568a2d03068ae8efc0,2,,,,,,rug,,,,,,0,8,8,6,1,1,1,,,,,,,,,,,,,,,,,,,,,,,,,,,,,,,,,,,,,,,,,,,,,,,,,,,,,,,,,,,,,,,,,,,,,,,,,,,,,,,,,,,,,,,,,,,,,,,,,,,,,,,,,,,,,
,,,,,,,,,,stimuli/images/PICTURE_296.png,LIFE,59504939c58c85000101dc92,16/02/1949,2020-09-10_13h31.10.201,proactive3.1,2020.1.2,Win32,60,5f599a131af4471f3d752b7b,5f5a1c568a2d03068ae8efc0,2,,,,,,bolt,,,,,,0,9,9,57,1,6,1,,,,,,,,,,,,,,,,,,,,,,,,,,,,,,,,,,,,,,,,,,,,,,,,,,,,,,,,,,,,,,,,,,,,,,,,,,,,,,,,,,,,,,,,,,,,,,,,,,,,,,,,,,,,,
,,,,,,,,,,stimuli/images/PICTURE_296.png,LOTS,59504939c58c85000101dc92,16/02/1949,2020-09-10_13h31.10.201,proactive3.1,2020.1.2,Win32,60,5f599a131af4471f3d752b7b,5f5a1c568a2d03068ae8efc0,2,,,,,,bolt,,,,,,0,10,10,9,1,1,1,,,,,,,,,,,,,,,,,,,,,,,,,,,,,,,,,,,,,,,,,,,,,,,,,,,,,,,,,,,,,,,,,,,,,,,,,,,,,,,,,,,,,,,,,,,,,,,,,,,,,,,,,,,,,
,,,,,,,,,,stimuli/images/PICTURE_655.png,TOILET,59504939c58c85000101dc92,16/02/1949,2020-09-10_13h31.10.201,proactive3.1,2020.1.2,Win32,60,5f599a131af4471f3d752b7b,5f5a1c568a2d03068ae8efc0,2,,,,,,megaphone,,,,,,0,11,11,12,1,2,1,,,,,,,,,,,,,,,,,,,,,,,,,,,,,,,,,,,,,,,,,,,,,,,,,,,,,,,,,,,,,,,,,,,,,,,,,,,,,,,,,,,,,,,,,,,,,,,,,,,,,,,,,,,,,
,,,,,,,,,,stimuli/images/PICTURE_297.png,RIVER,59504939c58c85000101dc92,16/02/1949,2020-09-10_13h31.10.201,proactive3.1,2020.1.2,Win32,60,5f599a131af4471f3d752b7b,5f5a1c568a2d03068ae8efc0,2,,,,,,aeroplane,,,,,,0,12,12,39,1,4,1,,,,,,,,,,,,,,,,,,,,,,,,,,,,,,,,,,,,,,,,,,,,,,,,,,,,,,,,,,,,,,,,,,,,,,,,,,,,,,,,,,,,,,,,,,,,,,,,,,,,,,,,,,,,,
,,,,,,,,,,stimuli/images/PICTURE_327.png,CASINO,59504939c58c85000101dc92,16/02/1949,2020-09-10_13h31.10.201,proactive3.1,2020.1.2,Win32,60,5f599a131af4471f3d752b7b,5f5a1c568a2d03068ae8efc0,2,,,,,,helmet,,,,,,0,13,13,20,1,3,1,,,,,,,,,,,,,,,,,,,,,,,,,,,,,,,,,,,,,,,,,,,,,,,,,,,,,,,,,,,,,,,,,,,,,,,,,,,,,,,,,,,,,,,,,,,,,,,,,,,,,,,,,,,,,
,,,,,,,,,,stimuli/images/PICTURE_708.png,RECORD,59504939c58c85000101dc92,16/02/1949,2020-09-10_13h31.10.201,proactive3.1,2020.1.2,Win32,60,5f599a131af4471f3d752b7b,5f5a1c568a2d03068ae8efc0,2,,,,,,monkey,,,,,,0,14,14,58,1,6,1,,,,,,,,,,,,,,,,,,,,,,,,,,,,,,,,,,,,,,,,,,,,,,,,,,,,,,,,,,,,,,,,,,,,,,,,,,,,,,,,,,,,,,,,,,,,,,,,,,,,,,,,,,,,,
,,,,,,,,,,stimuli/images/PICTURE_68.png,ROOF,59504939c58c85000101dc92,16/02/1949,2020-09-10_13h31.10.201,proactive3.1,2020.1.2,Win32,60,5f599a131af4471f3d752b7b,5f5a1c568a2d03068ae8efc0,2,,,,,,candle,,,,,,0,15,15,38,1,4,1,,,,,,,,,,,,,,,,,,,,,,,,,,,,,,,,,,,,,,,,,,,,,,,,,,,,,,,,,,,,,,,,,,,,,,,,,,,,,,,,,,,,,,,,,,,,,,,,,,,,,,,,,,,,,
,,,,,,,,,,stimuli/images/PICTURE_85.png,NATION,59504939c58c85000101dc92,16/02/1949,2020-09-10_13h31.10.201,proactive3.1,2020.1.2,Win32,60,5f599a131af4471f3d752b7b,5f5a1c568a2d03068ae8efc0,2,,,,,,diamond,,,,,,0,16,16,5,1,1,1,,,,,,,,,,,,,,,,,,,,,,,,,,,,,,,,,,,,,,,,,,,,,,,,,,,,,,,,,,,,,,,,,,,,,,,,,,,,,,,,,,,,,,,,,,,,,,,,,,,,,,,,,,,,,
,,,,,,,,,,stimuli/images/PICTURE_564.png,BATH,59504939c58c85000101dc92,16/02/1949,2020-09-10_13h31.10.201,proactive3.1,2020.1.2,Win32,60,5f599a131af4471f3d752b7b,5f5a1c568a2d03068ae8efc0,2,,,,,,spoon,,,,,,0,17,17,26,1,3,1,,,,,,,,,,,,,,,,,,,,,,,,,,,,,,,,,,,,,,,,,,,,,,,,,,,,,,,,,,,,,,,,,,,,,,,,,,,,,,,,,,,,,,,,,,,,,,,,,,,,,,,,,,,,,
,,,,,,,,,,stimuli/images/PICTURE_108.png,FLIGHT,59504939c58c85000101dc92,16/02/1949,2020-09-10_13h31.10.201,proactive3.1,2020.1.2,Win32,60,5f599a131af4471f3d752b7b,5f5a1c568a2d03068ae8efc0,2,,,,,,calendar,,,,,,0,18,18,59,1,6,1,,,,,,,,,,,,,,,,,,,,,,,,,,,,,,,,,,,,,,,,,,,,,,,,,,,,,,,,,,,,,,,,,,,,,,,,,,,,,,,,,,,,,,,,,,,,,,,,,,,,,,,,,,,,,
,,,,,,,,,,stimuli/images/PICTURE_95.png,MILLER,59504939c58c85000101dc92,16/02/1949,2020-09-10_13h31.10.201,proactive3.1,2020.1.2,Win32,60,5f599a131af4471f3d752b7b,5f5a1c568a2d03068ae8efc0,2,,,,,,suitcase,,,,,,0,19,19,56,1,6,1,,,,,,,,,,,,,,,,,,,,,,,,,,,,,,,,,,,,,,,,,,,,,,,,,,,,,,,,,,,,,,,,,,,,,,,,,,,,,,,,,,,,,,,,,,,,,,,,,,,,,,,,,,,,,
,,,,,,,,,,stimuli/images/PICTURE_147.png,WOMEN,59504939c58c85000101dc92,16/02/1949,2020-09-10_13h31.10.201,proactive3.1,2020.1.2,Win32,60,5f599a131af4471f3d752b7b,5f5a1c568a2d03068ae8efc0,2,,,,,,hanger,,,,,,0,20,20,7,1,1,1,,,,,,,,,,,,,,,,,,,,,,,,,,,,,,,,,,,,,,,,,,,,,,,,,,,,,,,,,,,,,,,,,,,,,,,,,,,,,,,,,,,,,,,,,,,,,,,,,,,,,,,,,,,,,
,,,,,,,,,,stimuli/images/PICTURE_675.png,SALE,59504939c58c85000101dc92,16/02/1949,2020-09-10_13h31.10.201,proactive3.1,2020.1.2,Win32,60,5f599a131af4471f3d752b7b,5f5a1c568a2d03068ae8efc0,2,,,,,,windmill,,,,,,0,21,21,47,1,5,1,,,,,,,,,,,,,,,,,,,,,,,,,,,,,,,,,,,,,,,,,,,,,,,,,,,,,,,,,,,,,,,,,,,,,,,,,,,,,,,,,,,,,,,,,,,,,,,,,,,,,,,,,,,,,
,,,,,,,,,,stimuli/images/PICTURE_233.png,LOTS,59504939c58c85000101dc92,16/02/1949,2020-09-10_13h31.10.201,proactive3.1,2020.1.2,Win32,60,5f599a131af4471f3d752b7b,5f5a1c568a2d03068ae8efc0,2,,,,,,salt,,,,,,0,22,22,42,1,5,1,,,,,,,,,,,,,,,,,,,,,,,,,,,,,,,,,,,,,,,,,,,,,,,,,,,,,,,,,,,,,,,,,,,,,,,,,,,,,,,,,,,,,,,,,,,,,,,,,,,,,,,,,,,,,
,,,,,,,,,,stimuli/images/PICTURE_403.png,WRITER,59504939c58c85000101dc92,16/02/1949,2020-09-10_13h31.10.201,proactive3.1,2020.1.2,Win32,60,5f599a131af4471f3d752b7b,5f5a1c568a2d03068ae8efc0,2,,,,,,cathedral,,,,,,0,23,23,31,1,4,1,,,,,,,,,,,,,,,,,,,,,,,,,,,,,,,,,,,,,,,,,,,,,,,,,,,,,,,,,,,,,,,,,,,,,,,,,,,,,,,,,,,,,,,,,,,,,,,,,,,,,,,,,,,,,
,,,,,,,,,,stimuli/images/PICTURE_487.png,GIRL,59504939c58c85000101dc92,16/02/1949,2020-09-10_13h31.10.201,proactive3.1,2020.1.2,Win32,60,5f599a131af4471f3d752b7b,5f5a1c568a2d03068ae8efc0,2,,,,,,basket,,,,,,0,24,24,45,1,5,1,,,,,,,,,,,,,,,,,,,,,,,,,,,,,,,,,,,,,,,,,,,,,,,,,,,,,,,,,,,,,,,,,,,,,,,,,,,,,,,,,,,,,,,,,,,,,,,,,,,,,,,,,,,,,
,,,,,,,,,,stimuli/images/PICTURE_33.png,FRIEND,59504939c58c85000101dc92,16/02/1949,2020-09-10_13h31.10.201,proactive3.1,2020.1.2,Win32,60,5f599a131af4471f3d752b7b,5f5a1c568a2d03068ae8efc0,2,,,,,,frame,,,,,,0,25,25,8,1,1,1,,,,,,,,,,,,,,,,,,,,,,,,,,,,,,,,,,,,,,,,,,,,,,,,,,,,,,,,,,,,,,,,,,,,,,,,,,,,,,,,,,,,,,,,,,,,,,,,,,,,,,,,,,,,,
,,,,,,,,,,stimuli/images/PICTURE_177.png,WRITER,59504939c58c85000101dc92,16/02/1949,2020-09-10_13h31.10.201,proactive3.1,2020.1.2,Win32,60,5f599a131af4471f3d752b7b,5f5a1c568a2d03068ae8efc0,2,,,,,,mushroom,,,,,,0,26,26,41,1,5,1,,,,,,,,,,,,,,,,,,,,,,,,,,,,,,,,,,,,,,,,,,,,,,,,,,,,,,,,,,,,,,,,,,,,,,,,,,,,,,,,,,,,,,,,,,,,,,,,,,,,,,,,,,,,,
,,,,,,,,,,stimuli/images/PICTURE_667.png,RIVER,59504939c58c85000101dc92,16/02/1949,2020-09-10_13h31.10.201,proactive3.1,2020.1.2,Win32,60,5f599a131af4471f3d752b7b,5f5a1c568a2d03068ae8efc0,2,,,,,,daisy,,,,,,0,27,27,10,1,2,1,,,,,,,,,,,,,,,,,,,,,,,,,,,,,,,,,,,,,,,,,,,,,,,,,,,,,,,,,,,,,,,,,,,,,,,,,,,,,,,,,,,,,,,,,,,,,,,,,,,,,,,,,,,,,
,,,,,,,,,,stimuli/images/PICTURE_108.png,POLICY,59504939c58c85000101dc92,16/02/1949,2020-09-10_13h31.10.201,proactive3.1,2020.1.2,Win32,60,5f599a131af4471f3d752b7b,5f5a1c568a2d03068ae8efc0,2,,,,,,calendar,,,,,,0,28,28,22,1,3,1,,,,,,,,,,,,,,,,,,,,,,,,,,,,,,,,,,,,,,,,,,,,,,,,,,,,,,,,,,,,,,,,,,,,,,,,,,,,,,,,,,,,,,,,,,,,,,,,,,,,,,,,,,,,,
,,,,,,,,,,stimuli/images/PICTURE_504.png,ARTIST,59504939c58c85000101dc92,16/02/1949,2020-09-10_13h31.10.201,proactive3.1,2020.1.2,Win32,60,5f599a131af4471f3d752b7b,5f5a1c568a2d03068ae8efc0,2,,,,,,wheel,,,,,,0,29,29,49,1,5,1,,,,,,,,,,,,,,,,,,,,,,,,,,,,,,,,,,,,,,,,,,,,,,,,,,,,,,,,,,,,,,,,,,,,,,,,,,,,,,,,,,,,,,,,,,,,,,,,,,,,,,,,,,,,,
,,,,,,,,,,stimuli/images/PICTURE_327.png,SERIES,59504939c58c85000101dc92,16/02/1949,2020-09-10_13h31.10.201,proactive3.1,2020.1.2,Win32,60,5f599a131af4471f3d752b7b,5f5a1c568a2d03068ae8efc0,2,,,,,,helmet,,,,,,0,30,30,3,1,1,1,,,,,,,,,,,,,,,,,,,,,,,,,,,,,,,,,,,,,,,,,,,,,,,,,,,,,,,,,,,,,,,,,,,,,,,,,,,,,,,,,,,,,,,,,,,,,,,,,,,,,,,,,,,,,
,,,,,,,,,,stimuli/images/PICTURE_750.png,HOTEL,59504939c58c85000101dc92,16/02/1949,2020-09-10_13h31.10.201,proactive3.1,2020.1.2,Win32,60,5f599a131af4471f3d752b7b,5f5a1c568a2d03068ae8efc0,2,,,,,,kettle,,,,,,0,31,31,27,1,3,1,,,,,,,,,,,,,,,,,,,,,,,,,,,,,,,,,,,,,,,,,,,,,,,,,,,,,,,,,,,,,,,,,,,,,,,,,,,,,,,,,,,,,,,,,,,,,,,,,,,,,,,,,,,,,
,,,,,,,,,,stimuli/images/PICTURE_2.png,FLIGHT,59504939c58c85000101dc92,16/02/1949,2020-09-10_13h31.10.201,proactive3.1,2020.1.2,Win32,60,5f599a131af4471f3d752b7b,5f5a1c568a2d03068ae8efc0,2,,,,,,tyre,,,,,,0,32,32,15,1,2,1,,,,,,,,,,,,,,,,,,,,,,,,,,,,,,,,,,,,,,,,,,,,,,,,,,,,,,,,,,,,,,,,,,,,,,,,,,,,,,,,,,,,,,,,,,,,,,,,,,,,,,,,,,,,,
,,,,,,,,,,stimuli/images/PICTURE_340.png,VALLEY,59504939c58c85000101dc92,16/02/1949,2020-09-10_13h31.10.201,proactive3.1,2020.1.2,Win32,60,5f599a131af4471f3d752b7b,5f5a1c568a2d03068ae8efc0,2,,,,,,mirror,,,,,,0,33,33,54,1,6,1,,,,,,,,,,,,,,,,,,,,,,,,,,,,,,,,,,,,,,,,,,,,,,,,,,,,,,,,,,,,,,,,,,,,,,,,,,,,,,,,,,,,,,,,,,,,,,,,,,,,,,,,,,,,,
,,,,,,,,,,stimuli/images/PICTURE_469.png,AGENT,59504939c58c85000101dc92,16/02/1949,2020-09-10_13h31.10.201,proactive3.1,2020.1.2,Win32,60,5f599a131af4471f3d752b7b,5f5a1c568a2d03068ae8efc0,2,,,,,,stool,,,,,,0,34,34,16,1,2,1,,,,,,,,,,,,,,,,,,,,,,,,,,,,,,,,,,,,,,,,,,,,,,,,,,,,,,,,,,,,,,,,,,,,,,,,,,,,,,,,,,,,,,,,,,,,,,,,,,,,,,,,,,,,,
,,,,,,,,,,stimuli/images/PICTURE_308.png,FAMILY,59504939c58c85000101dc92,16/02/1949,2020-09-10_13h31.10.201,proactive3.1,2020.1.2,Win32,60,5f599a131af4471f3d752b7b,5f5a1c568a2d03068ae8efc0,2,,,,,,dice,,,,,,0,35,35,36,1,4,1,,,,,,,,,,,,,,,,,,,,,,,,,,,,,,,,,,,,,,,,,,,,,,,,,,,,,,,,,,,,,,,,,,,,,,,,,,,,,,,,,,,,,,,,,,,,,,,,,,,,,,,,,,,,,
,,,,,,,,,,stimuli/images/PICTURE_405.png,YEAR,59504939c58c85000101dc92,16/02/1949,2020-09-10_13h31.10.201,proactive3.1,2020.1.2,Win32,60,5f599a131af4471f3d752b7b,5f5a1c568a2d03068ae8efc0,2,,,,,,anchor,,,,,,0,36,36,34,1,4,1,,,,,,,,,,,,,,,,,,,,,,,,,,,,,,,,,,,,,,,,,,,,,,,,,,,,,,,,,,,,,,,,,,,,,,,,,,,,,,,,,,,,,,,,,,,,,,,,,,,,,,,,,,,,,
,,,,,,,,,,stimuli/images/PICTURE_339.png,CLIENT,59504939c58c85000101dc92,16/02/1949,2020-09-10_13h31.10.201,proactive3.1,2020.1.2,Win32,60,5f599a131af4471f3d752b7b,5f5a1c568a2d03068ae8efc0,2,,,,,,backpack,,,,,,0,37,37,11,1,2,1,,,,,,,,,,,,,,,,,,,,,,,,,,,,,,,,,,,,,,,,,,,,,,,,,,,,,,,,,,,,,,,,,,,,,,,,,,,,,,,,,,,,,,,,,,,,,,,,,,,,,,,,,,,,,
,,,,,,,,,,stimuli/images/PICTURE_85.png,TOILET,59504939c58c85000101dc92,16/02/1949,2020-09-10_13h31.10.201,proactive3.1,2020.1.2,Win32,60,5f599a131af4471f3d752b7b,5f5a1c568a2d03068ae8efc0,2,,,,,,diamond,,,,,,0,38,38,48,1,5,1,,,,,,,,,,,,,,,,,,,,,,,,,,,,,,,,,,,,,,,,,,,,,,,,,,,,,,,,,,,,,,,,,,,,,,,,,,,,,,,,,,,,,,,,,,,,,,,,,,,,,,,,,,,,,
