consent_key.keys,consent_key.rt,recalled,recalled_rt,recall_acc,example_recall.thisRepN,example_recall.thisTrialN,example_recall.thisN,example_recall.thisIndex,example_recall.ran,file,word,participant,please enter your date of birth (dd/mm/yyyy),date,expName,psychopyVersion,OS,frameRate,STUDY_ID,SESSION_ID,list,prac_learn_study_loop.thisRepN,prac_learn_study_loop.thisTrialN,prac_learn_study_loop.thisN,prac_learn_study_loop.thisIndex,prac_learn_study_loop.ran,image,prac_learn_test_loop.thisRepN,prac_learn_test_loop.thisTrialN,prac_learn_test_loop.thisN,prac_learn_test_loop.thisIndex,prac_learn_test_loop.ran,learn_study_loop.thisRepN,learn_study_loop.thisTrialN,learn_study_loop.thisN,learn_study_loop.thisIndex,learn_study_loop.ran,list_no,block_no,learn_test_loop.thisRepN,learn_test_loop.thisTrialN,learn_test_loop.thisN,learn_test_loop.thisIndex,learn_test_loop.ran,learn_blocks.thisRepN,learn_blocks.thisTrialN,learn_blocks.thisN,learn_blocks.thisIndex,learn_blocks.ran,block_csv,key_resp_13.keys,key_resp_13.rt,learn_blocks_loop.thisRepN,learn_blocks_loop.thisTrialN,learn_blocks_loop.thisN,learn_blocks_loop.thisIndex,learn_blocks_loop.ran,final_learn_test.thisRepN,final_learn_test.thisTrialN,final_learn_test.thisN,final_learn_test.thisIndex,final_learn_test.ran,s_im1,s_im2,s_im3,s_im4,s_im5,s_im6,s_im7,s_im8,s_im1pos,s_im2pos,s_im3pos,s_im4pos,s_im5pos,s_im6pos,s_im7pos,s_im8pos,s_tarright,search_resp.keys,search_loop.thisRepN,search_loop.thisTrialN,search_loop.thisN,search_loop.thisIndex,search_loop.ran,search_resp.rt,prac_wm_search_loop.thisRepN,prac_wm_search_loop.thisTrialN,prac_wm_search_loop.thisN,prac_wm_search_loop.thisIndex,prac_wm_search_loop.ran,prac_wm_test_loop.thisRepN,prac_wm_test_loop.thisTrialN,prac_wm_test_loop.thisN,prac_wm_test_loop.thisIndex,prac_wm_test_loop.ran,wm_recalled1,wm_recall_rt1,wm_probed1,wm_recall_acc1,wm_recalled2,wm_recall_rt2,wm_probed2,wm_recall_acc2,wm_recalled3,wm_recall_rt3,wm_probed3,wm_recall_acc3,wm_recalled4,wm_recall_rt4,wm_probed4,wm_recall_acc4,prac_wm_trial_loop.thisRepN,prac_wm_trial_loop.thisTrialN,prac_wm_trial_loop.thisN,prac_wm_trial_loop.thisIndex,prac_wm_trial_loop.ran,word1,image1,file1,item_type1,word2,image2,file2,item_type2,word4,image4,file4,item_type4,word3,image3,file3,item_type3,wm_search_loop.thisRepN,wm_search_loop.thisTrialN,wm_search_loop.thisN,wm_search_loop.thisIndex,wm_search_loop.ran,wm_test_loop.thisRepN,wm_test_loop.thisTrialN,wm_test_loop.thisN,wm_test_loop.thisIndex,wm_test_loop.ran,wm_trial_loop.thisRepN,wm_trial_loop.thisTrialN,wm_trial_loop.thisN,wm_trial_loop.thisIndex,wm_trial_loop.ran
y,6.437225,BATH,5.945155,0,0,0,0,0,1,stimuli/images/PICTURE_747.png,TOUGH,5975a8bcfccf1700017b3b76,15/12/1951,2020-09-10_13h03.03.746,proactive3.1,2020.1.2,Win32,60,5f599a131af4471f3d752b7b,5f5a15e913f9ca0583eeb53c,1,,,,,,,,,,,,,,,,,,,,,,,,,,,,,,,,,,,,,,,,,,,,,,,,,,,,,,,,,,,,,,,,,,,,,,,,,,,,,,,,,,,,,,,,,,,,,,,,,,,,,,,,,,,,,,,,,,,,,,,,,,,,,,,
,,,,,,,,,,stimuli/images/PICTURE_697.png,KILLER,5975a8bcfccf1700017b3b76,15/12/1951,2020-09-10_13h03.03.746,proactive3.1,2020.1.2,Win32,60,5f599a131af4471f3d752b7b,5f5a15e913f9ca0583eeb53c,1,0,0,0,4,1,peach,,,,,,,,,,,,,,,,,,,,,,,,,,,,,,,,,,,,,,,,,,,,,,,,,,,,,,,,,,,,,,,,,,,,,,,,,,,,,,,,,,,,,,,,,,,,,,,,,,,,,,,,,,,,,,,,,,,,,,,,,
,,,,,,,,,,stimuli/images/PICTURE_727.png,CELL,5975a8bcfccf1700017b3b76,15/12/1951,2020-09-10_13h03.03.746,proactive3.1,2020.1.2,Win32,60,5f599a131af4471f3d752b7b,5f5a15e913f9ca0583eeb53c,1,0,1,1,1,1,hose,,,,,,,,,,,,,,,,,,,,,,,,,,,,,,,,,,,,,,,,,,,,,,,,,,,,,,,,,,,,,,,,,,,,,,,,,,,,,,,,,,,,,,,,,,,,,,,,,,,,,,,,,,,,,,,,,,,,,,,,,
,,,,,,,,,,stimuli/images/PICTURE_378.png,LOSS,5975a8bcfccf1700017b3b76,15/12/1951,2020-09-10_13h03.03.746,proactive3.1,2020.1.2,Win32,60,5f599a131af4471f3d752b7b,5f5a15e913f9ca0583eeb53c,1,0,2,2,2,1,lobster,,,,,,,,,,,,,,,,,,,,,,,,,,,,,,,,,,,,,,,,,,,,,,,,,,,,,,,,,,,,,,,,,,,,,,,,,,,,,,,,,,,,,,,,,,,,,,,,,,,,,,,,,,,,,,,,,,,,,,,,,
,,,,,,,,,,stimuli/images/PICTURE_269.png,GENIUS,5975a8bcfccf1700017b3b76,15/12/1951,2020-09-10_13h03.03.746,proactive3.1,2020.1.2,Win32,60,5f599a131af4471f3d752b7b,5f5a15e913f9ca0583eeb53c,1,0,3,3,0,1,chameleon,,,,,,,,,,,,,,,,,,,,,,,,,,,,,,,,,,,,,,,,,,,,,,,,,,,,,,,,,,,,,,,,,,,,,,,,,,,,,,,,,,,,,,,,,,,,,,,,,,,,,,,,,,,,,,,,,,,,,,,,,
,,GENIUS,6.527435,1,,,,,,stimuli/images/PICTURE_269.png,GENIUS,5975a8bcfccf1700017b3b76,15/12/1951,2020-09-10_13h03.03.746,proactive3.1,2020.1.2,Win32,60,5f599a131af4471f3d752b7b,5f5a15e913f9ca0583eeb53c,1,,,,,,chameleon,0,0,0,0,1,,,,,,,,,,,,,,,,,,,,,,,,,,,,,,,,,,,,,,,,,,,,,,,,,,,,,,,,,,,,,,,,,,,,,,,,,,,,,,,,,,,,,,,,,,,,,,,,,,,,,,,,,,,,,,,,,,,,
,,TOUGH,4.065165,0,,,,,,stimuli/images/PICTURE_697.png,KILLER,5975a8bcfccf1700017b3b76,15/12/1951,2020-09-10_13h03.03.746,proactive3.1,2020.1.2,Win32,60,5f599a131af4471f3d752b7b,5f5a15e913f9ca0583eeb53c,1,,,,,,peach,0,1,1,4,1,,,,,,,,,,,,,,,,,,,,,,,,,,,,,,,,,,,,,,,,,,,,,,,,,,,,,,,,,,,,,,,,,,,,,,,,,,,,,,,,,,,,,,,,,,,,,,,,,,,,,,,,,,,,,,,,,,,,
,,,5.94726,0,,,,,,stimuli/images/PICTURE_378.png,LOSS,5975a8bcfccf1700017b3b76,15/12/1951,2020-09-10_13h03.03.746,proactive3.1,2020.1.2,Win32,60,5f599a131af4471f3d752b7b,5f5a15e913f9ca0583eeb53c,1,,,,,,lobster,0,2,2,2,1,,,,,,,,,,,,,,,,,,,,,,,,,,,,,,,,,,,,,,,,,,,,,,,,,,,,,,,,,,,,,,,,,,,,,,,,,,,,,,,,,,,,,,,,,,,,,,,,,,,,,,,,,,,,,,,,,,,,
,,?,1.48101,0,,,,,,stimuli/images/PICTURE_658.png,DEVIL,5975a8bcfccf1700017b3b76,15/12/1951,2020-09-10_13h03.03.746,proactive3.1,2020.1.2,Win32,60,5f599a131af4471f3d752b7b,5f5a15e913f9ca0583eeb53c,1,,,,,,crow,0,3,3,3,1,,,,,,,,,,,,,,,,,,,,,,,,,,,,,,,,,,,,,,,,,,,,,,,,,,,,,,,,,,,,,,,,,,,,,,,,,,,,,,,,,,,,,,,,,,,,,,,,,,,,,,,,,,,,,,,,,,,,
,,PIPE,9.21406,0,,,,,,stimuli/images/PICTURE_727.png,CELL,5975a8bcfccf1700017b3b76,15/12/1951,2020-09-10_13h03.03.746,proactive3.1,2020.1.2,Win32,60,5f599a131af4471f3d752b7b,5f5a15e913f9ca0583eeb53c,1,,,,,,hose,0,4,4,1,1,,,,,,,,,,,,,,,,,,,,,,,,,,,,,,,,,,,,,,,,,,,,,,,,,,,,,,,,,,,,,,,,,,,,,,,,,,,,,,,,,,,,,,,,,,,,,,,,,,,,,,,,,,,,,,,,,,,,
,,,,,,,,,,stimuli/images/PICTURE_744.png,WEAPON,5975a8bcfccf1700017b3b76,15/12/1951,2020-09-10_13h03.03.746,proactive3.1,2020.1.2,Win32,60,5f599a131af4471f3d752b7b,5f5a15e913f9ca0583eeb53c,1,,,,,,ring,,,,,,0,0,0,50,1,6,1,,,,,,,,,,,,,,,,,,,,,,,,,,,,,,,,,,,,,,,,,,,,,,,,,,,,,,,,,,,,,,,,,,,,,,,,,,,,,,,,,,,,,,,,,,,,,,,,,,,,,,,,,,,,,
,,,,,,,,,,stimuli/images/PICTURE_383.png,WRITER,5975a8bcfccf1700017b3b76,15/12/1951,2020-09-10_13h03.03.746,proactive3.1,2020.1.2,Win32,60,5f599a131af4471f3d752b7b,5f5a15e913f9ca0583eeb53c,1,,,,,,coin,,,,,,0,1,1,28,1,3,1,,,,,,,,,,,,,,,,,,,,,,,,,,,,,,,,,,,,,,,,,,,,,,,,,,,,,,,,,,,,,,,,,,,,,,,,,,,,,,,,,,,,,,,,,,,,,,,,,,,,,,,,,,,,,
,,,,,,,,,,stimuli/images/PICTURE_32.png,KIND,5975a8bcfccf1700017b3b76,15/12/1951,2020-09-10_13h03.03.746,proactive3.1,2020.1.2,Win32,60,5f599a131af4471f3d752b7b,5f5a15e913f9ca0583eeb53c,1,,,,,,crown,,,,,,0,2,2,35,1,4,1,,,,,,,,,,,,,,,,,,,,,,,,,,,,,,,,,,,,,,,,,,,,,,,,,,,,,,,,,,,,,,,,,,,,,,,,,,,,,,,,,,,,,,,,,,,,,,,,,,,,,,,,,,,,,
,,,,,,,,,,stimuli/images/PICTURE_467.png,POLICY,5975a8bcfccf1700017b3b76,15/12/1951,2020-09-10_13h03.03.746,proactive3.1,2020.1.2,Win32,60,5f599a131af4471f3d752b7b,5f5a15e913f9ca0583eeb53c,1,,,,,,peg,,,,,,0,3,3,53,1,6,1,,,,,,,,,,,,,,,,,,,,,,,,,,,,,,,,,,,,,,,,,,,,,,,,,,,,,,,,,,,,,,,,,,,,,,,,,,,,,,,,,,,,,,,,,,,,,,,,,,,,,,,,,,,,,
,,,,,,,,,,stimuli/images/PICTURE_95.png,BOYS,5975a8bcfccf1700017b3b76,15/12/1951,2020-09-10_13h03.03.746,proactive3.1,2020.1.2,Win32,60,5f599a131af4471f3d752b7b,5f5a15e913f9ca0583eeb53c,1,,,,,,suitcase,,,,,,0,4,4,1,1,1,1,,,,,,,,,,,,,,,,,,,,,,,,,,,,,,,,,,,,,,,,,,,,,,,,,,,,,,,,,,,,,,,,,,,,,,,,,,,,,,,,,,,,,,,,,,,,,,,,,,,,,,,,,,,,,
,,,,,,,,,,stimuli/images/PICTURE_308.png,FAMILY,5975a8bcfccf1700017b3b76,15/12/1951,2020-09-10_13h03.03.746,proactive3.1,2020.1.2,Win32,60,5f599a131af4471f3d752b7b,5f5a15e913f9ca0583eeb53c,1,,,,,,dice,,,,,,0,5,5,36,1,4,1,,,,,,,,,,,,,,,,,,,,,,,,,,,,,,,,,,,,,,,,,,,,,,,,,,,,,,,,,,,,,,,,,,,,,,,,,,,,,,,,,,,,,,,,,,,,,,,,,,,,,,,,,,,,,
,,,,,,,,,,stimuli/images/PICTURE_32.png,PILLS,5975a8bcfccf1700017b3b76,15/12/1951,2020-09-10_13h03.03.746,proactive3.1,2020.1.2,Win32,60,5f599a131af4471f3d752b7b,5f5a15e913f9ca0583eeb53c,1,,,,,,crown,,,,,,0,6,6,18,1,2,1,,,,,,,,,,,,,,,,,,,,,,,,,,,,,,,,,,,,,,,,,,,,,,,,,,,,,,,,,,,,,,,,,,,,,,,,,,,,,,,,,,,,,,,,,,,,,,,,,,,,,,,,,,,,,
,,,,,,,,,,stimuli/images/PICTURE_405.png,PLENTY,5975a8bcfccf1700017b3b76,15/12/1951,2020-09-10_13h03.03.746,proactive3.1,2020.1.2,Win32,60,5f599a131af4471f3d752b7b,5f5a15e913f9ca0583eeb53c,1,,,,,,anchor,,,,,,0,7,7,23,1,3,1,,,,,,,,,,,,,,,,,,,,,,,,,,,,,,,,,,,,,,,,,,,,,,,,,,,,,,,,,,,,,,,,,,,,,,,,,,,,,,,,,,,,,,,,,,,,,,,,,,,,,,,,,,,,,
,,,,,,,,,,stimuli/images/PICTURE_108.png,FLIGHT,5975a8bcfccf1700017b3b76,15/12/1951,2020-09-10_13h03.03.746,proactive3.1,2020.1.2,Win32,60,5f599a131af4471f3d752b7b,5f5a15e913f9ca0583eeb53c,1,,,,,,calendar,,,,,,0,8,8,59,1,6,1,,,,,,,,,,,,,,,,,,,,,,,,,,,,,,,,,,,,,,,,,,,,,,,,,,,,,,,,,,,,,,,,,,,,,,,,,,,,,,,,,,,,,,,,,,,,,,,,,,,,,,,,,,,,,
,,,,,,,,,,stimuli/images/PICTURE_564.png,BATH,5975a8bcfccf1700017b3b76,15/12/1951,2020-09-10_13h03.03.746,proactive3.1,2020.1.2,Win32,60,5f599a131af4471f3d752b7b,5f5a15e913f9ca0583eeb53c,1,,,,,,spoon,,,,,,0,9,9,26,1,3,1,,,,,,,,,,,,,,,,,,,,,,,,,,,,,,,,,,,,,,,,,,,,,,,,,,,,,,,,,,,,,,,,,,,,,,,,,,,,,,,,,,,,,,,,,,,,,,,,,,,,,,,,,,,,,
,,,,,,,,,,stimuli/images/PICTURE_68.png,MILE,5975a8bcfccf1700017b3b76,15/12/1951,2020-09-10_13h03.03.746,proactive3.1,2020.1.2,Win32,60,5f599a131af4471f3d752b7b,5f5a15e913f9ca0583eeb53c,1,,,,,,candle,,,,,,0,10,10,51,1,6,1,,,,,,,,,,,,,,,,,,,,,,,,,,,,,,,,,,,,,,,,,,,,,,,,,,,,,,,,,,,,,,,,,,,,,,,,,,,,,,,,,,,,,,,,,,,,,,,,,,,,,,,,,,,,,
,,,,,,,,,,stimuli/images/PICTURE_233.png,LOTS,5975a8bcfccf1700017b3b76,15/12/1951,2020-09-10_13h03.03.746,proactive3.1,2020.1.2,Win32,60,5f599a131af4471f3d752b7b,5f5a15e913f9ca0583eeb53c,1,,,,,,salt,,,,,,0,11,11,42,1,5,1,,,,,,,,,,,,,,,,,,,,,,,,,,,,,,,,,,,,,,,,,,,,,,,,,,,,,,,,,,,,,,,,,,,,,,,,,,,,,,,,,,,,,,,,,,,,,,,,,,,,,,,,,,,,,
,,,,,,,,,,stimuli/images/PICTURE_68.png,ROOF,5975a8bcfccf1700017b3b76,15/12/1951,2020-09-10_13h03.03.746,proactive3.1,2020.1.2,Win32,60,5f599a131af4471f3d752b7b,5f5a15e913f9ca0583eeb53c,1,,,,,,candle,,,,,,0,12,12,38,1,4,1,,,,,,,,,,,,,,,,,,,,,,,,,,,,,,,,,,,,,,,,,,,,,,,,,,,,,,,,,,,,,,,,,,,,,,,,,,,,,,,,,,,,,,,,,,,,,,,,,,,,,,,,,,,,,
,,,,,,,,,,stimuli/images/PICTURE_403.png,TOILET,5975a8bcfccf1700017b3b76,15/12/1951,2020-09-10_13h03.03.746,proactive3.1,2020.1.2,Win32,60,5f599a131af4471f3d752b7b,5f5a15e913f9ca0583eeb53c,1,,,,,,cathedral,,,,,,0,13,13,25,1,3,1,,,,,,,,,,,,,,,,,,,,,,,,,,,,,,,,,,,,,,,,,,,,,,,,,,,,,,,,,,,,,,,,,,,,,,,,,,,,,,,,,,,,,,,,,,,,,,,,,,,,,,,,,,,,,
,,,,,,,,,,stimuli/images/PICTURE_380.png,HONEY,5975a8bcfccf1700017b3b76,15/12/1951,2020-09-10_13h03.03.746,proactive3.1,2020.1.2,Win32,60,5f599a131af4471f3d752b7b,5f5a15e913f9ca0583eeb53c,1,,,,,,gorilla,,,,,,0,14,14,19,1,2,1,,,,,,,,,,,,,,,,,,,,,,,,,,,,,,,,,,,,,,,,,,,,,,,,,,,,,,,,,,,,,,,,,,,,,,,,,,,,,,,,,,,,,,,,,,,,,,,,,,,,,,,,,,,,,
,,,,,,,,,,stimuli/images/PICTURE_203.png,GODS,5975a8bcfccf1700017b3b76,15/12/1951,2020-09-10_13h03.03.746,proactive3.1,2020.1.2,Win32,60,5f599a131af4471f3d752b7b,5f5a15e913f9ca0583eeb53c,1,,,,,,cap,,,,,,0,15,15,30,1,4,1,,,,,,,,,,,,,,,,,,,,,,,,,,,,,,,,,,,,,,,,,,,,,,,,,,,,,,,,,,,,,,,,,,,,,,,,,,,,,,,,,,,,,,,,,,,,,,,,,,,,,,,,,,,,,
,,,,,,,,,,stimuli/images/PICTURE_177.png,WRITER,5975a8bcfccf1700017b3b76,15/12/1951,2020-09-10_13h03.03.746,proactive3.1,2020.1.2,Win32,60,5f599a131af4471f3d752b7b,5f5a15e913f9ca0583eeb53c,1,,,,,,mushroom,,,,,,0,16,16,41,1,5,1,,,,,,,,,,,,,,,,,,,,,,,,,,,,,,,,,,,,,,,,,,,,,,,,,,,,,,,,,,,,,,,,,,,,,,,,,,,,,,,,,,,,,,,,,,,,,,,,,,,,,,,,,,,,,
,,,,,,,,,,stimuli/images/PICTURE_491.png,RIVER,5975a8bcfccf1700017b3b76,15/12/1951,2020-09-10_13h03.03.746,proactive3.1,2020.1.2,Win32,60,5f599a131af4471f3d752b7b,5f5a15e913f9ca0583eeb53c,1,,,,,,rug,,,,,,0,17,17,6,1,1,1,,,,,,,,,,,,,,,,,,,,,,,,,,,,,,,,,,,,,,,,,,,,,,,,,,,,,,,,,,,,,,,,,,,,,,,,,,,,,,,,,,,,,,,,,,,,,,,,,,,,,,,,,,,,,
,,,,,,,,,,stimuli/images/PICTURE_383.png,SERIES,5975a8bcfccf1700017b3b76,15/12/1951,2020-09-10_13h03.03.746,proactive3.1,2020.1.2,Win32,60,5f599a131af4471f3d752b7b,5f5a15e913f9ca0583eeb53c,1,,,,,,coin,,,,,,0,18,18,46,1,5,1,,,,,,,,,,,,,,,,,,,,,,,,,,,,,,,,,,,,,,,,,,,,,,,,,,,,,,,,,,,,,,,,,,,,,,,,,,,,,,,,,,,,,,,,,,,,,,,,,,,,,,,,,,,,,
,,,,,,,,,,stimuli/images/PICTURE_33.png,FRIEND,5975a8bcfccf1700017b3b76,15/12/1951,2020-09-10_13h03.03.746,proactive3.1,2020.1.2,Win32,60,5f599a131af4471f3d752b7b,5f5a15e913f9ca0583eeb53c,1,,,,,,frame,,,,,,0,19,19,8,1,1,1,,,,,,,,,,,,,,,,,,,,,,,,,,,,,,,,,,,,,,,,,,,,,,,,,,,,,,,,,,,,,,,,,,,,,,,,,,,,,,,,,,,,,,,,,,,,,,,,,,,,,,,,,,,,,
,,,,,,,,,,stimuli/images/PICTURE_327.png,CASINO,5975a8bcfccf1700017b3b76,15/12/1951,2020-09-10_13h03.03.746,proactive3.1,2020.1.2,Win32,60,5f599a131af4471f3d752b7b,5f5a15e913f9ca0583eeb53c,1,,,,,,helmet,,,,,,0,20,20,20,1,3,1,,,,,,,,,,,,,,,,,,,,,,,,,,,,,,,,,,,,,,,,,,,,,,,,,,,,,,,,,,,,,,,,,,,,,,,,,,,,,,,,,,,,,,,,,,,,,,,,,,,,,,,,,,,,,
,,,,,,,,,,stimuli/images/PICTURE_296.png,LOTS,5975a8bcfccf1700017b3b76,15/12/1951,2020-09-10_13h03.03.746,proactive3.1,2020.1.2,Win32,60,5f599a131af4471f3d752b7b,5f5a15e913f9ca0583eeb53c,1,,,,,,bolt,,,,,,0,21,21,9,1,1,1,,,,,,,,,,,,,,,,,,,,,,,,,,,,,,,,,,,,,,,,,,,,,,,,,,,,,,,,,,,,,,,,,,,,,,,,,,,,,,,,,,,,,,,,,,,,,,,,,,,,,,,,,,,,,
,,,,,,,,,,stimuli/images/PICTURE_449.png,DUDE,5975a8bcfccf1700017b3b76,15/12/1951,2020-09-10_13h03.03.746,proactive3.1,2020.1.2,Win32,60,5f599a131af4471f3d752b7b,5f5a15e913f9ca0583eeb53c,1,,,,,,bench,,,,,,0,22,22,17,1,2,1,,,,,,,,,,,,,,,,,,,,,,,,,,,,,,,,,,,,,,,,,,,,,,,,,,,,,,,,,,,,,,,,,,,,,,,,,,,,,,,,,,,,,,,,,,,,,,,,,,,,,,,,,,,,,
,,,,,,,,,,stimuli/images/PICTURE_340.png,LETTER,5975a8bcfccf1700017b3b76,15/12/1951,2020-09-10_13h03.03.746,proactive3.1,2020.1.2,Win32,60,5f599a131af4471f3d752b7b,5f5a15e913f9ca0583eeb53c,1,,,,,,mirror,,,,,,0,23,23,24,1,3,1,,,,,,,,,,,,,,,,,,,,,,,,,,,,,,,,,,,,,,,,,,,,,,,,,,,,,,,,,,,,,,,,,,,,,,,,,,,,,,,,,,,,,,,,,,,,,,,,,,,,,,,,,,,,,
,,,,,,,,,,stimuli/images/PICTURE_405.png,YEAR,5975a8bcfccf1700017b3b76,15/12/1951,2020-09-10_13h03.03.746,proactive3.1,2020.1.2,Win32,60,5f599a131af4471f3d752b7b,5f5a15e913f9ca0583eeb53c,1,,,,,,anchor,,,,,,0,24,24,34,1,4,1,,,,,,,,,,,,,,,,,,,,,,,,,,,,,,,,,,,,,,,,,,,,,,,,,,,,,,,,,,,,,,,,,,,,,,,,,,,,,,,,,,,,,,,,,,,,,,,,,,,,,,,,,,,,,
,,,,,,,,,,stimuli/images/PICTURE_654.png,MONTH,5975a8bcfccf1700017b3b76,15/12/1951,2020-09-10_13h03.03.746,proactive3.1,2020.1.2,Win32,60,5f599a131af4471f3d752b7b,5f5a15e913f9ca0583eeb53c,1,,,,,,pencil,,,,,,0,25,25,29,1,3,1,,,,,,,,,,,,,,,,,,,,,,,,,,,,,,,,,,,,,,,,,,,,,,,,,,,,,,,,,,,,,,,,,,,,,,,,,,,,,,,,,,,,,,,,,,,,,,,,,,,,,,,,,,,,,
,,,,,,,,,,stimuli/images/PICTURE_108.png,POLICY,5975a8bcfccf1700017b3b76,15/12/1951,2020-09-10_13h03.03.746,proactive3.1,2020.1.2,Win32,60,5f599a131af4471f3d752b7b,5f5a15e913f9ca0583eeb53c,1,,,,,,calendar,,,,,,0,26,26,22,1,3,1,,,,,,,,,,,,,,,,,,,,,,,,,,,,,,,,,,,,,,,,,,,,,,,,,,,,,,,,,,,,,,,,,,,,,,,,,,,,,,,,,,,,,,,,,,,,,,,,,,,,,,,,,,,,,
,,,,,,,,,,stimuli/images/PICTURE_296.png,LIFE,5975a8bcfccf1700017b3b76,15/12/1951,2020-09-10_13h03.03.746,proactive3.1,2020.1.2,Win32,60,5f599a131af4471f3d752b7b,5f5a15e913f9ca0583eeb53c,1,,,,,,bolt,,,,,,0,27,27,57,1,6,1,,,,,,,,,,,,,,,,,,,,,,,,,,,,,,,,,,,,,,,,,,,,,,,,,,,,,,,,,,,,,,,,,,,,,,,,,,,,,,,,,,,,,,,,,,,,,,,,,,,,,,,,,,,,,
,,,,,,,,,,stimuli/images/PICTURE_203.png,NIGHT,5975a8bcfccf1700017b3b76,15/12/1951,2020-09-10_13h03.03.746,proactive3.1,2020.1.2,Win32,60,5f599a131af4471f3d752b7b,5f5a15e913f9ca0583eeb53c,1,,,,,,cap,,,,,,0,28,28,2,1,1,1,,,,,,,,,,,,,,,,,,,,,,,,,,,,,,,,,,,,,,,,,,,,,,,,,,,,,,,,,,,,,,,,,,,,,,,,,,,,,,,,,,,,,,,,,,,,,,,,,,,,,,,,,,,,,
,,,,,,,,,,stimuli/images/PICTURE_491.png,GLASS,5975a8bcfccf1700017b3b76,15/12/1951,2020-09-10_13h03.03.746,proactive3.1,2020.1.2,Win32,60,5f599a131af4471f3d752b7b,5f5a15e913f9ca0583eeb53c,1,,,,,,rug,,,,,,0,29,29,14,1,2,1,,,,,,,,,,,,,,,,,,,,,,,,,,,,,,,,,,,,,,,,,,,,,,,,,,,,,,,,,,,,,,,,,,,,,,,,,,,,,,,,,,,,,,,,,,,,,,,,,,,,,,,,,,,,,
,,,,,,,,,,stimuli/images/PICTURE_655.png,TOILET,5975a8bcfccf1700017b3b76,15/12/1951,2020-09-10_13h03.03.746,proactive3.1,2020.1.2,Win32,60,5f599a131af4471f3d752b7b,5f5a15e913f9ca0583eeb53c,1,,,,,,megaphone,,,,,,0,30,30,12,1,2,1,,,,,,,,,,,,,,,,,,,,,,,,,,,,,,,,,,,,,,,,,,,,,,,,,,,,,,,,,,,,,,,,,,,,,,,,,,,,,,,,,,,,,,,,,,,,,,,,,,,,,,,,,,,,,
,,,,,,,,,,stimuli/images/PICTURE_487.png,GIRL,5975a8bcfccf1700017b3b76,15/12/1951,2020-09-10_13h03.03.746,proactive3.1,2020.1.2,Win32,60,5f599a131af4471f3d752b7b,5f5a15e913f9ca0583eeb53c,1,,,,,,basket,,,,,,0,31,31,45,1,5,1,,,,,,,,,,,,,,,,,,,,,,,,,,,,,,,,,,,,,,,,,,,,,,,,,,,,,,,,,,,,,,,,,,,,,,,,,,,,,,,,,,,,,,,,,,,,,,,,,,,,,,,,,,,,,
,,,,,,,,,,stimuli/images/PICTURE_147.png,WOMEN,5975a8bcfccf1700017b3b76,15/12/1951,2020-09-10_13h03.03.746,proactive3.1,2020.1.2,Win32,60,5f599a131af4471f3d752b7b,5f5a15e913f9ca0583eeb53c,1,,,,,,hanger,,,,,,0,32,32,7,1,1,1,,,,,,,,,,,,,,,,,,,,,,,,,,,,,,,,,,,,,,,,,,,,,,,,,,,,,,,,,,,,,,,,,,,,,,,,,,,,,,,,,,,,,,,,,,,,,,,,,,,,,,,,,,,,,
,,,,,,,,,,stimuli/images/PICTURE_685.png,PENNY,5975a8bcfccf1700017b3b76,15/12/1951,2020-09-10_13h03.03.746,proactive3.1,2020.1.2,Win32,60,5f599a131af4471f3d752b7b,5f5a15e913f9ca0583eeb53c,1,,,,,,goose,,,,,,0,33,33,4,1,1,1,,,,,,,,,,,,,,,,,,,,,,,,,,,,,,,,,,,,,,,,,,,,,,,,,,,,,,,,,,,,,,,,,,,,,,,,,,,,,,,,,,,,,,,,,,,,,,,,,,,,,,,,,,,,,
,,,,,,,,,,stimuli/images/PICTURE_340.png,VALLEY,5975a8bcfccf1700017b3b76,15/12/1951,2020-09-10_13h03.03.746,proactive3.1,2020.1.2,Win32,60,5f599a131af4471f3d752b7b,5f5a15e913f9ca0583eeb53c,1,,,,,,mirror,,,,,,0,34,34,54,1,6,1,,,,,,,,,,,,,,,,,,,,,,,,,,,,,,,,,,,,,,,,,,,,,,,,,,,,,,,,,,,,,,,,,,,,,,,,,,,,,,,,,,,,,,,,,,,,,,,,,,,,,,,,,,,,,
,,,,,,,,,,stimuli/images/PICTURE_85.png,TOILET,5975a8bcfccf1700017b3b76,15/12/1951,2020-09-10_13h03.03.746,proactive3.1,2020.1.2,Win32,60,5f599a131af4471f3d752b7b,5f5a15e913f9ca0583eeb53c,1,,,,,,diamond,,,,,,0,35,35,48,1,5,1,,,,,,,,,,,,,,,,,,,,,,,,,,,,,,,,,,,,,,,,,,,,,,,,,,,,,,,,,,,,,,,,,,,,,,,,,,,,,,,,,,,,,,,,,,,,,,,,,,,,,,,,,,,,,
,,,,,,,,,,stimuli/images/PICTURE_95.png,MILLER,5975a8bcfccf1700017b3b76,15/12/1951,2020-09-10_13h03.03.746,proactive3.1,2020.1.2,Win32,60,5f599a131af4471f3d752b7b,5f5a15e913f9ca0583eeb53c,1,,,,,,suitcase,,,,,,0,36,36,56,1,6,1,,,,,,,,,,,,,,,,,,,,,,,,,,,,,,,,,,,,,,,,,,,,,,,,,,,,,,,,,,,,,,,,,,,,,,,,,,,,,,,,,,,,,,,,,,,,,,,,,,,,,,,,,,,,,
,,,,,,,,,,stimuli/images/PICTURE_504.png,ARTIST,5975a8bcfccf1700017b3b76,15/12/1951,2020-09-10_13h03.03.746,proactive3.1,2020.1.2,Win32,60,5f599a131af4471f3d752b7b,5f5a15e913f9ca0583eeb53c,1,,,,,,wheel,,,,,,0,37,37,49,1,5,1,,,,,,,,,,,,,,,,,,,,,,,,,,,,,,,,,,,,,,,,,,,,,,,,,,,,,,,,,,,,,,,,,,,,,,,,,,,,,,,,,,,,,,,,,,,,,,,,,,,,,,,,,,,,,
,,,,,,,,,,stimuli/images/PICTURE_675.png,SALE,5975a8bcfccf1700017b3b76,15/12/1951,2020-09-10_13h03.03.746,proactive3.1,2020.1.2,Win32,60,5f599a131af4471f3d752b7b,5f5a15e913f9ca0583eeb53c,1,,,,,,windmill,,,,,,0,38,38,47,1,5,1,,,,,,,,,,,,,,,,,,,,,,,,,,,,,,,,,,,,,,,,,,,,,,,,,,,,,,,,,,,,,,,,,,,,,,,,,,,,,,,,,,,,,,,,,,,,,,,,,,,,,,,,,,,,,
,,,,,,,,,,stimuli/images/PICTURE_677.png,APPLE,5975a8bcfccf1700017b3b76,15/12/1951,2020-09-10_13h03.03.746,proactive3.1,2020.1.2,Win32,60,5f599a131af4471f3d752b7b,5f5a15e913f9ca0583eeb53c,1,,,,,,map,,,,,,0,39,39,43,1,5,1,,,,,,,,,,,,,,,,,,,,,,,,,,,,,,,,,,,,,,,,,,,,,,,,,,,,,,,,,,,,,,,,,,,,,,,,,,,,,,,,,,,,,,,,,,,,,,,,,,,,,,,,,,,,,
,,,,,,,,,,stimuli/images/PICTURE_750.png,HOTEL,5975a8bcfccf1700017b3b76,15/12/1951,2020-09-10_13h03.03.746,proactive3.1,2020.1.2,Win32,60,5f599a131af4471f3d752b7b,5f5a15e913f9ca0583eeb53c,1,,,,,,kettle,,,,,,0,40,40,27,1,3,1,,,,,,,,,,,,,,,,,,,,,,,,,,,,,,,,,,,,,,,,,,,,,,,,,,,,,,,,,,,,,,,,,,,,,,,,,,,,,,,,,,,,,,,,,,,,,,,,,,,,,,,,,,,,,
,,,,,,,,,,stimuli/images/PICTURE_327.png,SERIES,5975a8bcfccf1700017b3b76,15/12/1951,2020-09-10_13h03.03.746,proactive3.1,2020.1.2,Win32,60,5f599a131af4471f3d752b7b,5f5a15e913f9ca0583eeb53c,1,,,,,,helmet,,,,,,0,41,41,3,1,1,1,,,,,,,,,,,,,,,,,,,,,,,,,,,,,,,,,,,,,,,,,,,,,,,,,,,,,,,,,,,,,,,,,,,,,,,,,,,,,,,,,,,,,,,,,,,,,,,,,,,,,,,,,,,,,
,,,,,,,,,,stimuli/images/PICTURE_708.png,RECORD,5975a8bcfccf1700017b3b76,15/12/1951,2020-09-10_13h03.03.746,proactive3.1,2020.1.2,Win32,60,5f599a131af4471f3d752b7b,5f5a15e913f9ca0583eeb53c,1,,,,,,monkey,,,,,,0,42,42,58,1,6,1,,,,,,,,,,,,,,,,,,,,,,,,,,,,,,,,,,,,,,,,,,,,,,,,,,,,,,,,,,,,,,,,,,,,,,,,,,,,,,,,,,,,,,,,,,,,,,,,,,,,,,,,,,,,,
,,,,,,,,,,stimuli/images/PICTURE_95.png,HONEY,5975a8bcfccf1700017b3b76,15/12/1951,2020-09-10_13h03.03.746,proactive3.1,2020.1.2,Win32,60,5f599a131af4471f3d752b7b,5f5a15e913f9ca0583eeb53c,1,,,,,,suitcase,,,,,,0,43,43,44,1,5,1,,,,,,,,,,,,,,,,,,,,,,,,,,,,,,,,,,,,,,,,,,,,,,,,,,,,,,,,,,,,,,,,,,,,,,,,,,,,,,,,,,,,,,,,,,,,,,,,,,,,,,,,,,,,,
,,,,,,,,,,stimuli/images/PICTURE_667.png,RIVER,5975a8bcfccf1700017b3b76,15/12/1951,2020-09-10_13h03.03.746,proactive3.1,2020.1.2,Win32,60,5f599a131af4471f3d752b7b,5f5a15e913f9ca0583eeb53c,1,,,,,,daisy,,,,,,0,44,44,10,1,2,1,,,,,,,,,,,,,,,,,,,,,,,,,,,,,,,,,,,,,,,,,,,,,,,,,,,,,,,,,,,,,,,,,,,,,,,,,,,,,,,,,,,,,,,,,,,,,,,,,,,,,,,,,,,,,
,,,,,,,,,,stimuli/images/PICTURE_147.png,YEAR,5975a8bcfccf1700017b3b76,15/12/1951,2020-09-10_13h03.03.746,proactive3.1,2020.1.2,Win32,60,5f599a131af4471f3d752b7b,5f5a15e913f9ca0583eeb53c,1,,,,,,hanger,,,,,,0,45,45,21,1,3,1,,,,,,,,,,,,,,,,,,,,,,,,,,,,,,,,,,,,,,,,,,,,,,,,,,,,,,,,,,,,,,,,,,,,,,,,,,,,,,,,,,,,,,,,,,,,,,,,,,,,,,,,,,,,,
,,,,,,,,,,stimuli/images/PICTURE_57.png,MOMENT,5975a8bcfccf1700017b3b76,15/12/1951,2020-09-10_13h03.03.746,proactive3.1,2020.1.2,Win32,60,5f599a131af4471f3d752b7b,5f5a15e913f9ca0583eeb53c,1,,,,,,stamp,,,,,,0,46,46,37,1,4,1,,,,,,,,,,,,,,,,,,,,,,,,,,,,,,,,,,,,,,,,,,,,,,,,,,,,,,,,,,,,,,,,,,,,,,,,,,,,,,,,,,,,,,,,,,,,,,,,,,,,,,,,,,,,,
,,,,,,,,,,stimuli/images/PICTURE_403.png,RIVER,5975a8bcfccf1700017b3b76,15/12/1951,2020-09-10_13h03.03.746,proactive3.1,2020.1.2,Win32,60,5f599a131af4471f3d752b7b,5f5a15e913f9ca0583eeb53c,1,,,,,,cathedral,,,,,,0,47,47,40,1,5,1,,,,,,,,,,,,,,,,,,,,,,,,,,,,,,,,,,,,,,,,,,,,,,,,,,,,,,,,,,,,,,,,,,,,,,,,,,,,,,,,,,,,,,,,,,,,,,,,,,,,,,,,,,,,,
,,,,,,,,,,stimuli/images/PICTURE_469.png,AGENT,5975a8bcfccf1700017b3b76,15/12/1951,2020-09-10_13h03.03.746,proactive3.1,2020.1.2,Win32,60,5f599a131af4471f3d752b7b,5f5a15e913f9ca0583eeb53c,1,,,,,,stool,,,,,,0,48,48,16,1,2,1,,,,,,,,,,,,,,,,,,,,,,,,,,,,,,,,,,,,,,,,,,,,,,,,,,,,,,,,,,,,,,,,,,,,,,,,,,,,,,,,,,,,,,,,,,,,,,,,,,,,,,,,,,,,,
,,,,,,,,,,stimuli/images/PICTURE_285.png,LIFE,5975a8bcfccf1700017b3b76,15/12/1951,2020-09-10_13h03.03.746,proactive3.1,2020.1.2,Win32,60,5f599a131af4471f3d752b7b,5f5a15e913f9ca0583eeb53c,1,,,,,,carrot,,,,,,0,49,49,33,1,4,1,,,,,,,,,,,,,,,,,,,,,,,,,,,,,,,,,,,,,,,,,,,,,,,,,,,,,,,,,,,,,,,,,,,,,,,,,,,,,,,,,,,,,,,,,,,,,,,,,,,,,,,,,,,,,
,,,,,,,,,,stimuli/images/PICTURE_208.png,SYSTEM,5975a8bcfccf1700017b3b76,15/12/1951,2020-09-10_13h03.03.746,proactive3.1,2020.1.2,Win32,60,5f599a131af4471f3d752b7b,5f5a15e913f9ca0583eeb53c,1,,,,,,microphone,,,,,,0,50,50,32,1,4,1,,,,,,,,,,,,,,,,,,,,,,,,,,,,,,,,,,,,,,,,,,,,,,,,,,,,,,,,,,,,,,,,,,,,,,,,,,,,,,,,,,,,,,,,,,,,,,,,,,,,,,,,,,,,,
,,,,,,,,,,stimuli/images/PICTURE_85.png,NATION,5975a8bcfccf1700017b3b76,15/12/1951,2020-09-10_13h03.03.746,proactive3.1,2020.1.2,Win32,60,5f599a131af4471f3d752b7b,5f5a15e913f9ca0583eeb53c,1,,,,,,diamond,,,,,,0,51,51,5,1,1,1,,,,,,,,,,,,,,,,,,,,,,,,,,,,,,,,,,,,,,,,,,,,,,,,,,,,,,,,,,,,,,,,,,,,,,,,,,,,,,,,,,,,,,,,,,,,,,,,,,,,,,,,,,,,,
,,,,,,,,,,stimuli/images/PICTURE_504.png,YEAR,5975a8bcfccf1700017b3b76,15/12/1951,2020-09-10_13h03.03.746,proactive3.1,2020.1.2,Win32,60,5f599a131af4471f3d752b7b,5f5a15e913f9ca0583eeb53c,1,,,,,,wheel,,,,,,0,52,52,13,1,2,1,,,,,,,,,,,,,,,,,,,,,,,,,,,,,,,,,,,,,,,,,,,,,,,,,,,,,,,,,,,,,,,,,,,,,,,,,,,,,,,,,,,,,,,,,,,,,,,,,,,,,,,,,,,,,
,,,,,,,,,,stimuli/images/PICTURE_380.png,CANDY,5975a8bcfccf1700017b3b76,15/12/1951,2020-09-10_13h03.03.746,proactive3.1,2020.1.2,Win32,60,5f599a131af4471f3d752b7b,5f5a15e913f9ca0583eeb53c,1,,,,,,gorilla,,,,,,0,53,53,0,1,1,1,,,,,,,,,,,,,,,,,,,,,,,,,,,,,,,,,,,,,,,,,,,,,,,,,,,,,,,,,,,,,,,,,,,,,,,,,,,,,,,,,,,,,,,,,,,,,,,,,,,,,,,,,,,,,
,,,,,,,,,,stimuli/images/PICTURE_403.png,WRITER,5975a8bcfccf1700017b3b76,15/12/1951,2020-09-10_13h03.03.746,proactive3.1,2020.1.2,Win32,60,5f599a131af4471f3d752b7b,5f5a15e913f9ca0583eeb53c,1,,,,,,cathedral,,,,,,0,54,54,31,1,4,1,,,,,,,,,,,,,,,,,,,,,,,,,,,,,,,,,,,,,,,,,,,,,,,,,,,,,,,,,,,,,,,,,,,,,,,,,,,,,,,,,,,,,,,,,,,,,,,,,,,,,,,,,,,,,
,,,,,,,,,,stimuli/images/PICTURE_504.png,COPS,5975a8bcfccf1700017b3b76,15/12/1951,2020-09-10_13h03.03.746,proactive3.1,2020.1.2,Win32,60,5f599a131af4471f3d752b7b,5f5a15e913f9ca0583eeb53c,1,,,,,,wheel,,,,,,0,55,55,52,1,6,1,,,,,,,,,,,,,,,,,,,,,,,,,,,,,,,,,,,,,,,,,,,,,,,,,,,,,,,,,,,,,,,,,,,,,,,,,,,,,,,,,,,,,,,,,,,,,,,,,,,,,,,,,,,,,
,,,,,,,,,,stimuli/images/PICTURE_297.png,RIVER,5975a8bcfccf1700017b3b76,15/12/1951,2020-09-10_13h03.03.746,proactive3.1,2020.1.2,Win32,60,5f599a131af4471f3d752b7b,5f5a15e913f9ca0583eeb53c,1,,,,,,aeroplane,,,,,,0,56,56,39,1,4,1,,,,,,,,,,,,,,,,,,,,,,,,,,,,,,,,,,,,,,,,,,,,,,,,,,,,,,,,,,,,,,,,,,,,,,,,,,,,,,,,,,,,,,,,,,,,,,,,,,,,,,,,,,,,,
,,,,,,,,,,stimuli/images/PICTURE_42.png,BOYS,5975a8bcfccf1700017b3b76,15/12/1951,2020-09-10_13h03.03.746,proactive3.1,2020.1.2,Win32,60,5f599a131af4471f3d752b7b,5f5a15e913f9ca0583eeb53c,1,,,,,,pear,,,,,,0,57,57,55,1,6,1,,,,,,,,,,,,,,,,,,,,,,,,,,,,,,,,,,,,,,,,,,,,,,,,,,,,,,,,,,,,,,,,,,,,,,,,,,,,,,,,,,,,,,,,,,,,,,,,,,,,,,,,,,,,,
,,,,,,,,,,stimuli/images/PICTURE_339.png,CLIENT,5975a8bcfccf1700017b3b76,15/12/1951,2020-09-10_13h03.03.746,proactive3.1,2020.1.2,Win32,60,5f599a131af4471f3d752b7b,5f5a15e913f9ca0583eeb53c,1,,,,,,backpack,,,,,,0,58,58,11,1,2,1,,,,,,,,,,,,,,,,,,,,,,,,,,,,,,,,,,,,,,,,,,,,,,,,,,,,,,,,,,,,,,,,,,,,,,,,,,,,,,,,,,,,,,,,,,,,,,,,,,,,,,,,,,,,,
,,?,0.000745,0,,,,,,stimuli/images/PICTURE_42.png,BOYS,5975a8bcfccf1700017b3b76,15/12/1951,2020-09-10_13h03.03.746,proactive3.1,2020.1.2,Win32,60,5f599a131af4471f3d752b7b,5f5a15e913f9ca0583eeb53c,1,,,,,,pear,,,,,,,,,,,6,1,0,0,0,55,1,,,,,,,,,,,,,,,,,,,,,,,,,,,,,,,,,,,,,,,,,,,,,,,,,,,,,,,,,,,,,,,,,,,,,,,,,,,,,,,,,,,,,,,,,,,,,,,,,,,,,,,,
,,?,0.000385,0,,,,,,stimuli/images/PICTURE_677.png,APPLE,5975a8bcfccf1700017b3b76,15/12/1951,2020-09-10_13h03.03.746,proactive3.1,2020.1.2,Win32,60,5f599a131af4471f3d752b7b,5f5a15e913f9ca0583eeb53c,1,,,,,,map,,,,,,,,,,,5,1,0,1,1,43,1,,,,,,,,,,,,,,,,,,,,,,,,,,,,,,,,,,,,,,,,,,,,,,,,,,,,,,,,,,,,,,,,,,,,,,,,,,,,,,,,,,,,,,,,,,,,,,,,,,,,,,,,
,,?,0.000305,0,,,,,,stimuli/images/PICTURE_147.png,YEAR,5975a8bcfccf1700017b3b76,15/12/1951,2020-09-10_13h03.03.746,proactive3.1,2020.1.2,Win32,60,5f599a131af4471f3d752b7b,5f5a15e913f9ca0583eeb53c,1,,,,,,hanger,,,,,,,,,,,3,1,0,2,2,21,1,,,,,,,,,,,,,,,,,,,,,,,,,,,,,,,,,,,,,,,,,,,,,,,,,,,,,,,,,,,,,,,,,,,,,,,,,,,,,,,,,,,,,,,,,,,,,,,,,,,,,,,,
,,?,0.000315,0,,,,,,stimuli/images/PICTURE_85.png,TOILET,5975a8bcfccf1700017b3b76,15/12/1951,2020-09-10_13h03.03.746,proactive3.1,2020.1.2,Win32,60,5f599a131af4471f3d752b7b,5f5a15e913f9ca0583eeb53c,1,,,,,,diamond,,,,,,,,,,,5,1,0,3,3,48,1,,,,,,,,,,,,,,,,,,,,,,,,,,,,,,,,,,,,,,,,,,,,,,,,,,,,,,,,,,,,,,,,,,,,,,,,,,,,,,,,,,,,,,,,,,,,,,,,,,,,,,,,
,,?,0.00035,0,,,,,,stimuli/images/PICTURE_708.png,RECORD,5975a8bcfccf1700017b3b76,15/12/1951,2020-09-10_13h03.03.746,proactive3.1,2020.1.2,Win32,60,5f599a131af4471f3d752b7b,5f5a15e913f9ca0583eeb53c,1,,,,,,monkey,,,,,,,,,,,6,1,0,4,4,58,1,,,,,,,,,,,,,,,,,,,,,,,,,,,,,,,,,,,,,,,,,,,,,,,,,,,,,,,,,,,,,,,,,,,,,,,,,,,,,,,,,,,,,,,,,,,,,,,,,,,,,,,,
,,?,0.00031,0,,,,,,stimuli/images/PICTURE_491.png,GLASS,5975a8bcfccf1700017b3b76,15/12/1951,2020-09-10_13h03.03.746,proactive3.1,2020.1.2,Win32,60,5f599a131af4471f3d752b7b,5f5a15e913f9ca0583eeb53c,1,,,,,,rug,,,,,,,,,,,2,1,0,5,5,14,1,,,,,,,,,,,,,,,,,,,,,,,,,,,,,,,,,,,,,,,,,,,,,,,,,,,,,,,,,,,,,,,,,,,,,,,,,,,,,,,,,,,,,,,,,,,,,,,,,,,,,,,,
,,?,0.000305,0,,,,,,stimuli/images/PICTURE_383.png,SERIES,5975a8bcfccf1700017b3b76,15/12/1951,2020-09-10_13h03.03.746,proactive3.1,2020.1.2,Win32,60,5f599a131af4471f3d752b7b,5f5a15e913f9ca0583eeb53c,1,,,,,,coin,,,,,,,,,,,5,1,0,6,6,46,1,,,,,,,,,,,,,,,,,,,,,,,,,,,,,,,,,,,,,,,,,,,,,,,,,,,,,,,,,,,,,,,,,,,,,,,,,,,,,,,,,,,,,,,,,,,,,,,,,,,,,,,,
,,FRIEND,4.26996,1,,,,,,stimuli/images/PICTURE_33.png,FRIEND,5975a8bcfccf1700017b3b76,15/12/1951,2020-09-10_13h03.03.746,proactive3.1,2020.1.2,Win32,60,5f599a131af4471f3d752b7b,5f5a15e913f9ca0583eeb53c,1,,,,,,frame,,,,,,,,,,,1,1,0,7,7,8,1,,,,,,,,,,,,,,,,,,,,,,,,,,,,,,,,,,,,,,,,,,,,,,,,,,,,,,,,,,,,,,,,,,,,,,,,,,,,,,,,,,,,,,,,,,,,,,,,,,,,,,,,
,,?,0.001845,0,,,,,,stimuli/images/PICTURE_405.png,PLENTY,5975a8bcfccf1700017b3b76,15/12/1951,2020-09-10_13h03.03.746,proactive3.1,2020.1.2,Win32,60,5f599a131af4471f3d752b7b,5f5a15e913f9ca0583eeb53c,1,,,,,,anchor,,,,,,,,,,,3,1,0,8,8,23,1,,,,,,,,,,,,,,,,,,,,,,,,,,,,,,,,,,,,,,,,,,,,,,,,,,,,,,,,,,,,,,,,,,,,,,,,,,,,,,,,,,,,,,,,,,,,,,,,,,,,,,,,
,,?,0.00047,0,,,,,,stimuli/images/PICTURE_296.png,LIFE,5975a8bcfccf1700017b3b76,15/12/1951,2020-09-10_13h03.03.746,proactive3.1,2020.1.2,Win32,60,5f599a131af4471f3d752b7b,5f5a15e913f9ca0583eeb53c,1,,,,,,bolt,,,,,,,,,,,6,1,0,9,9,57,1,,,,,,,,,,,,,,,,,,,,,,,,,,,,,,,,,,,,,,,,,,,,,,,,,,,,,,,,,,,,,,,,,,,,,,,,,,,,,,,,,,,,,,,,,,,,,,,,,,,,,,,,
,,?,0.00031,0,,,,,,stimuli/images/PICTURE_654.png,MONTH,5975a8bcfccf1700017b3b76,15/12/1951,2020-09-10_13h03.03.746,proactive3.1,2020.1.2,Win32,60,5f599a131af4471f3d752b7b,5f5a15e913f9ca0583eeb53c,1,,,,,,pencil,,,,,,,,,,,3,1,0,10,10,29,1,,,,,,,,,,,,,,,,,,,,,,,,,,,,,,,,,,,,,,,,,,,,,,,,,,,,,,,,,,,,,,,,,,,,,,,,,,,,,,,,,,,,,,,,,,,,,,,,,,,,,,,,
,,SERIES,3.859495,1,,,,,,stimuli/images/PICTURE_327.png,SERIES,5975a8bcfccf1700017b3b76,15/12/1951,2020-09-10_13h03.03.746,proactive3.1,2020.1.2,Win32,60,5f599a131af4471f3d752b7b,5f5a15e913f9ca0583eeb53c,1,,,,,,helmet,,,,,,,,,,,1,1,0,11,11,3,1,,,,,,,,,,,,,,,,,,,,,,,,,,,,,,,,,,,,,,,,,,,,,,,,,,,,,,,,,,,,,,,,,,,,,,,,,,,,,,,,,,,,,,,,,,,,,,,,,,,,,,,,
,,?,0.00181,0,,,,,,stimuli/images/PICTURE_208.png,SYSTEM,5975a8bcfccf1700017b3b76,15/12/1951,2020-09-10_13h03.03.746,proactive3.1,2020.1.2,Win32,60,5f599a131af4471f3d752b7b,5f5a15e913f9ca0583eeb53c,1,,,,,,microphone,,,,,,,,,,,4,1,0,12,12,32,1,,,,,,,,,,,,,,,,,,,,,,,,,,,,,,,,,,,,,,,,,,,,,,,,,,,,,,,,,,,,,,,,,,,,,,,,,,,,,,,,,,,,,,,,,,,,,,,,,,,,,,,,
,,?,0.001355,0,,,,,,stimuli/images/PICTURE_68.png,MILE,5975a8bcfccf1700017b3b76,15/12/1951,2020-09-10_13h03.03.746,proactive3.1,2020.1.2,Win32,60,5f599a131af4471f3d752b7b,5f5a15e913f9ca0583eeb53c,1,,,,,,candle,,,,,,,,,,,6,1,0,13,13,51,1,,,,,,,,,,,,,,,,,,,,,,,,,,,,,,,,,,,,,,,,,,,,,,,,,,,,,,,,,,,,,,,,,,,,,,,,,,,,,,,,,,,,,,,,,,,,,,,,,,,,,,,,
,,?,0.00135,0,,,,,,stimuli/images/PICTURE_95.png,MILLER,5975a8bcfccf1700017b3b76,15/12/1951,2020-09-10_13h03.03.746,proactive3.1,2020.1.2,Win32,60,5f599a131af4471f3d752b7b,5f5a15e913f9ca0583eeb53c,1,,,,,,suitcase,,,,,,,,,,,6,1,0,14,14,56,1,,,,,,,,,,,,,,,,,,,,,,,,,,,,,,,,,,,,,,,,,,,,,,,,,,,,,,,,,,,,,,,,,,,,,,,,,,,,,,,,,,,,,,,,,,,,,,,,,,,,,,,,
,,?,0.001225,0,,,,,,stimuli/images/PICTURE_405.png,YEAR,5975a8bcfccf1700017b3b76,15/12/1951,2020-09-10_13h03.03.746,proactive3.1,2020.1.2,Win32,60,5f599a131af4471f3d752b7b,5f5a15e913f9ca0583eeb53c,1,,,,,,anchor,,,,,,,,,,,4,1,0,15,15,34,1,,,,,,,,,,,,,,,,,,,,,,,,,,,,,,,,,,,,,,,,,,,,,,,,,,,,,,,,,,,,,,,,,,,,,,,,,,,,,,,,,,,,,,,,,,,,,,,,,,,,,,,,
,,?,0.00096,0,,,,,,stimuli/images/PICTURE_667.png,RIVER,5975a8bcfccf1700017b3b76,15/12/1951,2020-09-10_13h03.03.746,proactive3.1,2020.1.2,Win32,60,5f599a131af4471f3d752b7b,5f5a15e913f9ca0583eeb53c,1,,,,,,daisy,,,,,,,,,,,2,1,0,16,16,10,1,,,,,,,,,,,,,,,,,,,,,,,,,,,,,,,,,,,,,,,,,,,,,,,,,,,,,,,,,,,,,,,,,,,,,,,,,,,,,,,,,,,,,,,,,,,,,,,,,,,,,,,,
,,NATION,3.998725,1,,,,,,stimuli/images/PICTURE_85.png,NATION,5975a8bcfccf1700017b3b76,15/12/1951,2020-09-10_13h03.03.746,proactive3.1,2020.1.2,Win32,60,5f599a131af4471f3d752b7b,5f5a15e913f9ca0583eeb53c,1,,,,,,diamond,,,,,,,,,,,1,1,0,17,17,5,1,,,,,,,,,,,,,,,,,,,,,,,,,,,,,,,,,,,,,,,,,,,,,,,,,,,,,,,,,,,,,,,,,,,,,,,,,,,,,,,,,,,,,,,,,,,,,,,,,,,,,,,,
,,?,0.0017,0,,,,,,stimuli/images/PICTURE_340.png,LETTER,5975a8bcfccf1700017b3b76,15/12/1951,2020-09-10_13h03.03.746,proactive3.1,2020.1.2,Win32,60,5f599a131af4471f3d752b7b,5f5a15e913f9ca0583eeb53c,1,,,,,,mirror,,,,,,,,,,,3,1,0,18,18,24,1,,,,,,,,,,,,,,,,,,,,,,,,,,,,,,,,,,,,,,,,,,,,,,,,,,,,,,,,,,,,,,,,,,,,,,,,,,,,,,,,,,,,,,,,,,,,,,,,,,,,,,,,
,,?,0.00031,0,,,,,,stimuli/images/PICTURE_467.png,POLICY,5975a8bcfccf1700017b3b76,15/12/1951,2020-09-10_13h03.03.746,proactive3.1,2020.1.2,Win32,60,5f599a131af4471f3d752b7b,5f5a15e913f9ca0583eeb53c,1,,,,,,peg,,,,,,,,,,,6,1,0,19,19,53,1,,,,,,,,,,,,,,,,,,,,,,,,,,,,,,,,,,,,,,,,,,,,,,,,,,,,,,,,,,,,,,,,,,,,,,,,,,,,,,,,,,,,,,,,,,,,,,,,,,,,,,,,
,,?,0.000315,0,,,,,,stimuli/images/PICTURE_203.png,GODS,5975a8bcfccf1700017b3b76,15/12/1951,2020-09-10_13h03.03.746,proactive3.1,2020.1.2,Win32,60,5f599a131af4471f3d752b7b,5f5a15e913f9ca0583eeb53c,1,,,,,,cap,,,,,,,,,,,4,1,0,20,20,30,1,,,,,,,,,,,,,,,,,,,,,,,,,,,,,,,,,,,,,,,,,,,,,,,,,,,,,,,,,,,,,,,,,,,,,,,,,,,,,,,,,,,,,,,,,,,,,,,,,,,,,,,,
,,?,0.000295,0,,,,,,stimuli/images/PICTURE_383.png,WRITER,5975a8bcfccf1700017b3b76,15/12/1951,2020-09-10_13h03.03.746,proactive3.1,2020.1.2,Win32,60,5f599a131af4471f3d752b7b,5f5a15e913f9ca0583eeb53c,1,,,,,,coin,,,,,,,,,,,3,1,0,21,21,28,1,,,,,,,,,,,,,,,,,,,,,,,,,,,,,,,,,,,,,,,,,,,,,,,,,,,,,,,,,,,,,,,,,,,,,,,,,,,,,,,,,,,,,,,,,,,,,,,,,,,,,,,,
,,?,0.0003,0,,,,,,stimuli/images/PICTURE_297.png,RIVER,5975a8bcfccf1700017b3b76,15/12/1951,2020-09-10_13h03.03.746,proactive3.1,2020.1.2,Win32,60,5f599a131af4471f3d752b7b,5f5a15e913f9ca0583eeb53c,1,,,,,,aeroplane,,,,,,,,,,,4,1,0,22,22,39,1,,,,,,,,,,,,,,,,,,,,,,,,,,,,,,,,,,,,,,,,,,,,,,,,,,,,,,,,,,,,,,,,,,,,,,,,,,,,,,,,,,,,,,,,,,,,,,,,,,,,,,,,
,,?,0.000295,0,,,,,,stimuli/images/PICTURE_57.png,MOMENT,5975a8bcfccf1700017b3b76,15/12/1951,2020-09-10_13h03.03.746,proactive3.1,2020.1.2,Win32,60,5f599a131af4471f3d752b7b,5f5a15e913f9ca0583eeb53c,1,,,,,,stamp,,,,,,,,,,,4,1,0,23,23,37,1,,,,,,,,,,,,,,,,,,,,,,,,,,,,,,,,,,,,,,,,,,,,,,,,,,,,,,,,,,,,,,,,,,,,,,,,,,,,,,,,,,,,,,,,,,,,,,,,,,,,,,,,
,,?,0.00113,0,,,,,,stimuli/images/PICTURE_403.png,TOILET,5975a8bcfccf1700017b3b76,15/12/1951,2020-09-10_13h03.03.746,proactive3.1,2020.1.2,Win32,60,5f599a131af4471f3d752b7b,5f5a15e913f9ca0583eeb53c,1,,,,,,cathedral,,,,,,,,,,,3,1,0,24,24,25,1,,,,,,,,,,,,,,,,,,,,,,,,,,,,,,,,,,,,,,,,,,,,,,,,,,,,,,,,,,,,,,,,,,,,,,,,,,,,,,,,,,,,,,,,,,,,,,,,,,,,,,,,
,,?,0.00029,0,,,,,,stimuli/images/PICTURE_487.png,GIRL,5975a8bcfccf1700017b3b76,15/12/1951,2020-09-10_13h03.03.746,proactive3.1,2020.1.2,Win32,60,5f599a131af4471f3d752b7b,5f5a15e913f9ca0583eeb53c,1,,,,,,basket,,,,,,,,,,,5,1,0,25,25,45,1,,,,,,,,,,,,,,,,,,,,,,,,,,,,,,,,,,,,,,,,,,,,,,,,,,,,,,,,,,,,,,,,,,,,,,,,,,,,,,,,,,,,,,,,,,,,,,,,,,,,,,,,
,,LOTS,3.505435,1,,,,,,stimuli/images/PICTURE_296.png,LOTS,5975a8bcfccf1700017b3b76,15/12/1951,2020-09-10_13h03.03.746,proactive3.1,2020.1.2,Win32,60,5f599a131af4471f3d752b7b,5f5a15e913f9ca0583eeb53c,1,,,,,,bolt,,,,,,,,,,,1,1,0,26,26,9,1,,,,,,,,,,,,,,,,,,,,,,,,,,,,,,,,,,,,,,,,,,,,,,,,,,,,,,,,,,,,,,,,,,,,,,,,,,,,,,,,,,,,,,,,,,,,,,,,,,,,,,,,
,,?,0.002515,0,,,,,,stimuli/images/PICTURE_95.png,HONEY,5975a8bcfccf1700017b3b76,15/12/1951,2020-09-10_13h03.03.746,proactive3.1,2020.1.2,Win32,60,5f599a131af4471f3d752b7b,5f5a15e913f9ca0583eeb53c,1,,,,,,suitcase,,,,,,,,,,,5,1,0,27,27,44,1,,,,,,,,,,,,,,,,,,,,,,,,,,,,,,,,,,,,,,,,,,,,,,,,,,,,,,,,,,,,,,,,,,,,,,,,,,,,,,,,,,,,,,,,,,,,,,,,,,,,,,,,
,,?,0.001375,0,,,,,,stimuli/images/PICTURE_108.png,FLIGHT,5975a8bcfccf1700017b3b76,15/12/1951,2020-09-10_13h03.03.746,proactive3.1,2020.1.2,Win32,60,5f599a131af4471f3d752b7b,5f5a15e913f9ca0583eeb53c,1,,,,,,calendar,,,,,,,,,,,6,1,0,28,28,59,1,,,,,,,,,,,,,,,,,,,,,,,,,,,,,,,,,,,,,,,,,,,,,,,,,,,,,,,,,,,,,,,,,,,,,,,,,,,,,,,,,,,,,,,,,,,,,,,,,,,,,,,,
,,?,0.00133,0,,,,,,stimuli/images/PICTURE_32.png,KIND,5975a8bcfccf1700017b3b76,15/12/1951,2020-09-10_13h03.03.746,proactive3.1,2020.1.2,Win32,60,5f599a131af4471f3d752b7b,5f5a15e913f9ca0583eeb53c,1,,,,,,crown,,,,,,,,,,,4,1,0,29,29,35,1,,,,,,,,,,,,,,,,,,,,,,,,,,,,,,,,,,,,,,,,,,,,,,,,,,,,,,,,,,,,,,,,,,,,,,,,,,,,,,,,,,,,,,,,,,,,,,,,,,,,,,,,
,,?,0.001595,0,,,,,,stimuli/images/PICTURE_750.png,HOTEL,5975a8bcfccf1700017b3b76,15/12/1951,2020-09-10_13h03.03.746,proactive3.1,2020.1.2,Win32,60,5f599a131af4471f3d752b7b,5f5a15e913f9ca0583eeb53c,1,,,,,,kettle,,,,,,,,,,,3,1,0,30,30,27,1,,,,,,,,,,,,,,,,,,,,,,,,,,,,,,,,,,,,,,,,,,,,,,,,,,,,,,,,,,,,,,,,,,,,,,,,,,,,,,,,,,,,,,,,,,,,,,,,,,,,,,,,
,,?,0.001195,0,,,,,,stimuli/images/PICTURE_469.png,AGENT,5975a8bcfccf1700017b3b76,15/12/1951,2020-09-10_13h03.03.746,proactive3.1,2020.1.2,Win32,60,5f599a131af4471f3d752b7b,5f5a15e913f9ca0583eeb53c,1,,,,,,stool,,,,,,,,,,,2,1,0,31,31,16,1,,,,,,,,,,,,,,,,,,,,,,,,,,,,,,,,,,,,,,,,,,,,,,,,,,,,,,,,,,,,,,,,,,,,,,,,,,,,,,,,,,,,,,,,,,,,,,,,,,,,,,,,
,,?,0.00092,0,,,,,,stimuli/images/PICTURE_285.png,LIFE,5975a8bcfccf1700017b3b76,15/12/1951,2020-09-10_13h03.03.746,proactive3.1,2020.1.2,Win32,60,5f599a131af4471f3d752b7b,5f5a15e913f9ca0583eeb53c,1,,,,,,carrot,,,,,,,,,,,4,1,0,32,32,33,1,,,,,,,,,,,,,,,,,,,,,,,,,,,,,,,,,,,,,,,,,,,,,,,,,,,,,,,,,,,,,,,,,,,,,,,,,,,,,,,,,,,,,,,,,,,,,,,,,,,,,,,,
,,?,0.000865,0,,,,,,stimuli/images/PICTURE_504.png,COPS,5975a8bcfccf1700017b3b76,15/12/1951,2020-09-10_13h03.03.746,proactive3.1,2020.1.2,Win32,60,5f599a131af4471f3d752b7b,5f5a15e913f9ca0583eeb53c,1,,,,,,wheel,,,,,,,,,,,6,1,0,33,33,52,1,,,,,,,,,,,,,,,,,,,,,,,,,,,,,,,,,,,,,,,,,,,,,,,,,,,,,,,,,,,,,,,,,,,,,,,,,,,,,,,,,,,,,,,,,,,,,,,,,,,,,,,,
,,?,0.000685,0,,,,,,stimuli/images/PICTURE_327.png,CASINO,5975a8bcfccf1700017b3b76,15/12/1951,2020-09-10_13h03.03.746,proactive3.1,2020.1.2,Win32,60,5f599a131af4471f3d752b7b,5f5a15e913f9ca0583eeb53c,1,,,,,,helmet,,,,,,,,,,,3,1,0,34,34,20,1,,,,,,,,,,,,,,,,,,,,,,,,,,,,,,,,,,,,,,,,,,,,,,,,,,,,,,,,,,,,,,,,,,,,,,,,,,,,,,,,,,,,,,,,,,,,,,,,,,,,,,,,
,,?,0.00068,0,,,,,,stimuli/images/PICTURE_340.png,VALLEY,5975a8bcfccf1700017b3b76,15/12/1951,2020-09-10_13h03.03.746,proactive3.1,2020.1.2,Win32,60,5f599a131af4471f3d752b7b,5f5a15e913f9ca0583eeb53c,1,,,,,,mirror,,,,,,,,,,,6,1,0,35,35,54,1,,,,,,,,,,,,,,,,,,,,,,,,,,,,,,,,,,,,,,,,,,,,,,,,,,,,,,,,,,,,,,,,,,,,,,,,,,,,,,,,,,,,,,,,,,,,,,,,,,,,,,,,
,,?,0.00061,0,,,,,,stimuli/images/PICTURE_308.png,FAMILY,5975a8bcfccf1700017b3b76,15/12/1951,2020-09-10_13h03.03.746,proactive3.1,2020.1.2,Win32,60,5f599a131af4471f3d752b7b,5f5a15e913f9ca0583eeb53c,1,,,,,,dice,,,,,,,,,,,4,1,0,36,36,36,1,,,,,,,,,,,,,,,,,,,,,,,,,,,,,,,,,,,,,,,,,,,,,,,,,,,,,,,,,,,,,,,,,,,,,,,,,,,,,,,,,,,,,,,,,,,,,,,,,,,,,,,,
,,CANDY,3.40477,1,,,,,,stimuli/images/PICTURE_380.png,CANDY,5975a8bcfccf1700017b3b76,15/12/1951,2020-09-10_13h03.03.746,proactive3.1,2020.1.2,Win32,60,5f599a131af4471f3d752b7b,5f5a15e913f9ca0583eeb53c,1,,,,,,gorilla,,,,,,,,,,,1,1,0,37,37,0,1,,,,,,,,,,,,,,,,,,,,,,,,,,,,,,,,,,,,,,,,,,,,,,,,,,,,,,,,,,,,,,,,,,,,,,,,,,,,,,,,,,,,,,,,,,,,,,,,,,,,,,,,
,,RIVER,3.39985,1,,,,,,stimuli/images/PICTURE_491.png,RIVER,5975a8bcfccf1700017b3b76,15/12/1951,2020-09-10_13h03.03.746,proactive3.1,2020.1.2,Win32,60,5f599a131af4471f3d752b7b,5f5a15e913f9ca0583eeb53c,1,,,,,,rug,,,,,,,,,,,1,1,0,38,38,6,1,,,,,,,,,,,,,,,,,,,,,,,,,,,,,,,,,,,,,,,,,,,,,,,,,,,,,,,,,,,,,,,,,,,,,,,,,,,,,,,,,,,,,,,,,,,,,,,,,,,,,,,,
,,?,0.001715,0,,,,,,stimuli/images/PICTURE_339.png,CLIENT,5975a8bcfccf1700017b3b76,15/12/1951,2020-09-10_13h03.03.746,proactive3.1,2020.1.2,Win32,60,5f599a131af4471f3d752b7b,5f5a15e913f9ca0583eeb53c,1,,,,,,backpack,,,,,,,,,,,2,1,0,39,39,11,1,,,,,,,,,,,,,,,,,,,,,,,,,,,,,,,,,,,,,,,,,,,,,,,,,,,,,,,,,,,,,,,,,,,,,,,,,,,,,,,,,,,,,,,,,,,,,,,,,,,,,,,,
,,?,0.000395,0,,,,,,stimuli/images/PICTURE_504.png,YEAR,5975a8bcfccf1700017b3b76,15/12/1951,2020-09-10_13h03.03.746,proactive3.1,2020.1.2,Win32,60,5f599a131af4471f3d752b7b,5f5a15e913f9ca0583eeb53c,1,,,,,,wheel,,,,,,,,,,,2,1,0,40,40,13,1,,,,,,,,,,,,,,,,,,,,,,,,,,,,,,,,,,,,,,,,,,,,,,,,,,,,,,,,,,,,,,,,,,,,,,,,,,,,,,,,,,,,,,,,,,,,,,,,,,,,,,,,
,,WOMEN,5.160455,1,,,,,,stimuli/images/PICTURE_147.png,WOMEN,5975a8bcfccf1700017b3b76,15/12/1951,2020-09-10_13h03.03.746,proactive3.1,2020.1.2,Win32,60,5f599a131af4471f3d752b7b,5f5a15e913f9ca0583eeb53c,1,,,,,,hanger,,,,,,,,,,,1,1,0,41,41,7,1,,,,,,,,,,,,,,,,,,,,,,,,,,,,,,,,,,,,,,,,,,,,,,,,,,,,,,,,,,,,,,,,,,,,,,,,,,,,,,,,,,,,,,,,,,,,,,,,,,,,,,,,
,,?,0.001705,0,,,,,,stimuli/images/PICTURE_504.png,ARTIST,5975a8bcfccf1700017b3b76,15/12/1951,2020-09-10_13h03.03.746,proactive3.1,2020.1.2,Win32,60,5f599a131af4471f3d752b7b,5f5a15e913f9ca0583eeb53c,1,,,,,,wheel,,,,,,,,,,,5,1,0,42,42,49,1,,,,,,,,,,,,,,,,,,,,,,,,,,,,,,,,,,,,,,,,,,,,,,,,,,,,,,,,,,,,,,,,,,,,,,,,,,,,,,,,,,,,,,,,,,,,,,,,,,,,,,,,
,,?,0.000285,0,,,,,,stimuli/images/PICTURE_675.png,SALE,5975a8bcfccf1700017b3b76,15/12/1951,2020-09-10_13h03.03.746,proactive3.1,2020.1.2,Win32,60,5f599a131af4471f3d752b7b,5f5a15e913f9ca0583eeb53c,1,,,,,,windmill,,,,,,,,,,,5,1,0,43,43,47,1,,,,,,,,,,,,,,,,,,,,,,,,,,,,,,,,,,,,,,,,,,,,,,,,,,,,,,,,,,,,,,,,,,,,,,,,,,,,,,,,,,,,,,,,,,,,,,,,,,,,,,,,
,,?,0.000285,0,,,,,,stimuli/images/PICTURE_403.png,RIVER,5975a8bcfccf1700017b3b76,15/12/1951,2020-09-10_13h03.03.746,proactive3.1,2020.1.2,Win32,60,5f599a131af4471f3d752b7b,5f5a15e913f9ca0583eeb53c,1,,,,,,cathedral,,,,,,,,,,,5,1,0,44,44,40,1,,,,,,,,,,,,,,,,,,,,,,,,,,,,,,,,,,,,,,,,,,,,,,,,,,,,,,,,,,,,,,,,,,,,,,,,,,,,,,,,,,,,,,,,,,,,,,,,,,,,,,,,
,,?,0.000555,0,,,,,,stimuli/images/PICTURE_655.png,TOILET,5975a8bcfccf1700017b3b76,15/12/1951,2020-09-10_13h03.03.746,proactive3.1,2020.1.2,Win32,60,5f599a131af4471f3d752b7b,5f5a15e913f9ca0583eeb53c,1,,,,,,megaphone,,,,,,,,,,,2,1,0,45,45,12,1,,,,,,,,,,,,,,,,,,,,,,,,,,,,,,,,,,,,,,,,,,,,,,,,,,,,,,,,,,,,,,,,,,,,,,,,,,,,,,,,,,,,,,,,,,,,,,,,,,,,,,,,
,,?,0.000325,0,,,,,,stimuli/images/PICTURE_380.png,HONEY,5975a8bcfccf1700017b3b76,15/12/1951,2020-09-10_13h03.03.746,proactive3.1,2020.1.2,Win32,60,5f599a131af4471f3d752b7b,5f5a15e913f9ca0583eeb53c,1,,,,,,gorilla,,,,,,,,,,,2,1,0,46,46,19,1,,,,,,,,,,,,,,,,,,,,,,,,,,,,,,,,,,,,,,,,,,,,,,,,,,,,,,,,,,,,,,,,,,,,,,,,,,,,,,,,,,,,,,,,,,,,,,,,,,,,,,,,
,,NIGHT,4.15796,1,,,,,,stimuli/images/PICTURE_203.png,NIGHT,5975a8bcfccf1700017b3b76,15/12/1951,2020-09-10_13h03.03.746,proactive3.1,2020.1.2,Win32,60,5f599a131af4471f3d752b7b,5f5a15e913f9ca0583eeb53c,1,,,,,,cap,,,,,,,,,,,1,1,0,47,47,2,1,,,,,,,,,,,,,,,,,,,,,,,,,,,,,,,,,,,,,,,,,,,,,,,,,,,,,,,,,,,,,,,,,,,,,,,,,,,,,,,,,,,,,,,,,,,,,,,,,,,,,,,,
,,?,0.00162,0,,,,,,stimuli/images/PICTURE_449.png,DUDE,5975a8bcfccf1700017b3b76,15/12/1951,2020-09-10_13h03.03.746,proactive3.1,2020.1.2,Win32,60,5f599a131af4471f3d752b7b,5f5a15e913f9ca0583eeb53c,1,,,,,,bench,,,,,,,,,,,2,1,0,48,48,17,1,,,,,,,,,,,,,,,,,,,,,,,,,,,,,,,,,,,,,,,,,,,,,,,,,,,,,,,,,,,,,,,,,,,,,,,,,,,,,,,,,,,,,,,,,,,,,,,,,,,,,,,,
,,?,0.0013,0,,,,,,stimuli/images/PICTURE_564.png,BATH,5975a8bcfccf1700017b3b76,15/12/1951,2020-09-10_13h03.03.746,proactive3.1,2020.1.2,Win32,60,5f599a131af4471f3d752b7b,5f5a15e913f9ca0583eeb53c,1,,,,,,spoon,,,,,,,,,,,3,1,0,49,49,26,1,,,,,,,,,,,,,,,,,,,,,,,,,,,,,,,,,,,,,,,,,,,,,,,,,,,,,,,,,,,,,,,,,,,,,,,,,,,,,,,,,,,,,,,,,,,,,,,,,,,,,,,,
,,?,0.001245,0,,,,,,stimuli/images/PICTURE_108.png,POLICY,5975a8bcfccf1700017b3b76,15/12/1951,2020-09-10_13h03.03.746,proactive3.1,2020.1.2,Win32,60,5f599a131af4471f3d752b7b,5f5a15e913f9ca0583eeb53c,1,,,,,,calendar,,,,,,,,,,,3,1,0,50,50,22,1,,,,,,,,,,,,,,,,,,,,,,,,,,,,,,,,,,,,,,,,,,,,,,,,,,,,,,,,,,,,,,,,,,,,,,,,,,,,,,,,,,,,,,,,,,,,,,,,,,,,,,,,
,,?,0.00123,0,,,,,,stimuli/images/PICTURE_403.png,WRITER,5975a8bcfccf1700017b3b76,15/12/1951,2020-09-10_13h03.03.746,proactive3.1,2020.1.2,Win32,60,5f599a131af4471f3d752b7b,5f5a15e913f9ca0583eeb53c,1,,,,,,cathedral,,,,,,,,,,,4,1,0,51,51,31,1,,,,,,,,,,,,,,,,,,,,,,,,,,,,,,,,,,,,,,,,,,,,,,,,,,,,,,,,,,,,,,,,,,,,,,,,,,,,,,,,,,,,,,,,,,,,,,,,,,,,,,,,
,,?,0.001545,0,,,,,,stimuli/images/PICTURE_2.png,FLIGHT,5975a8bcfccf1700017b3b76,15/12/1951,2020-09-10_13h03.03.746,proactive3.1,2020.1.2,Win32,60,5f599a131af4471f3d752b7b,5f5a15e913f9ca0583eeb53c,1,,,,,,tyre,,,,,,,,,,,2,1,0,52,52,15,1,,,,,,,,,,,,,,,,,,,,,,,,,,,,,,,,,,,,,,,,,,,,,,,,,,,,,,,,,,,,,,,,,,,,,,,,,,,,,,,,,,,,,,,,,,,,,,,,,,,,,,,,
,,?,0.001005,0,,,,,,stimuli/images/PICTURE_233.png,LOTS,5975a8bcfccf1700017b3b76,15/12/1951,2020-09-10_13h03.03.746,proactive3.1,2020.1.2,Win32,60,5f599a131af4471f3d752b7b,5f5a15e913f9ca0583eeb53c,1,,,,,,salt,,,,,,,,,,,5,1,0,53,53,42,1,,,,,,,,,,,,,,,,,,,,,,,,,,,,,,,,,,,,,,,,,,,,,,,,,,,,,,,,,,,,,,,,,,,,,,,,,,,,,,,,,,,,,,,,,,,,,,,,,,,,,,,,
,,BOYS,3.04604,1,,,,,,stimuli/images/PICTURE_95.png,BOYS,5975a8bcfccf1700017b3b76,15/12/1951,2020-09-10_13h03.03.746,proactive3.1,2020.1.2,Win32,60,5f599a131af4471f3d752b7b,5f5a15e913f9ca0583eeb53c,1,,,,,,suitcase,,,,,,,,,,,1,1,0,54,54,1,1,,,,,,,,,,,,,,,,,,,,,,,,,,,,,,,,,,,,,,,,,,,,,,,,,,,,,,,,,,,,,,,,,,,,,,,,,,,,,,,,,,,,,,,,,,,,,,,,,,,,,,,,
,,?,0.00148,0,,,,,,stimuli/images/PICTURE_177.png,WRITER,5975a8bcfccf1700017b3b76,15/12/1951,2020-09-10_13h03.03.746,proactive3.1,2020.1.2,Win32,60,5f599a131af4471f3d752b7b,5f5a15e913f9ca0583eeb53c,1,,,,,,mushroom,,,,,,,,,,,5,1,0,55,55,41,1,,,,,,,,,,,,,,,,,,,,,,,,,,,,,,,,,,,,,,,,,,,,,,,,,,,,,,,,,,,,,,,,,,,,,,,,,,,,,,,,,,,,,,,,,,,,,,,,,,,,,,,,
,,PENNY,4.411805,1,,,,,,stimuli/images/PICTURE_685.png,PENNY,5975a8bcfccf1700017b3b76,15/12/1951,2020-09-10_13h03.03.746,proactive3.1,2020.1.2,Win32,60,5f599a131af4471f3d752b7b,5f5a15e913f9ca0583eeb53c,1,,,,,,goose,,,,,,,,,,,1,1,0,56,56,4,1,,,,,,,,,,,,,,,,,,,,,,,,,,,,,,,,,,,,,,,,,,,,,,,,,,,,,,,,,,,,,,,,,,,,,,,,,,,,,,,,,,,,,,,,,,,,,,,,,,,,,,,,
,,?,0.001535,0,,,,,,stimuli/images/PICTURE_68.png,ROOF,5975a8bcfccf1700017b3b76,15/12/1951,2020-09-10_13h03.03.746,proactive3.1,2020.1.2,Win32,60,5f599a131af4471f3d752b7b,5f5a15e913f9ca0583eeb53c,1,,,,,,candle,,,,,,,,,,,4,1,0,57,57,38,1,,,,,,,,,,,,,,,,,,,,,,,,,,,,,,,,,,,,,,,,,,,,,,,,,,,,,,,,,,,,,,,,,,,,,,,,,,,,,,,,,,,,,,,,,,,,,,,,,,,,,,,,
,,?,0.001325,0,,,,,,stimuli/images/PICTURE_32.png,PILLS,5975a8bcfccf1700017b3b76,15/12/1951,2020-09-10_13h03.03.746,proactive3.1,2020.1.2,Win32,60,5f599a131af4471f3d752b7b,5f5a15e913f9ca0583eeb53c,1,,,,,,crown,,,,,,,,,,,2,1,0,58,58,18,1,,,,,,,,,,,,,,,,,,,,,,,,,,,,,,,,,,,,,,,,,,,,,,,,,,,,,,,,,,,,,,,,,,,,,,,,,,,,,,,,,,,,,,,,,,,,,,,,,,,,,,,,
,,?,0.00125,0,,,,,,stimuli/images/PICTURE_744.png,WEAPON,5975a8bcfccf1700017b3b76,15/12/1951,2020-09-10_13h03.03.746,proactive3.1,2020.1.2,Win32,60,5f599a131af4471f3d752b7b,5f5a15e913f9ca0583eeb53c,1,,,,,,ring,,,,,,,,,,,6,1,0,59,59,50,1,,,,,,,,,,,,,,,,,,,,,,,,,,,,,,,,,,,,,,,,,,,,,,,,,,,,,,,,,,,,,,,,,,,,,,,,,,,,,,,,,,,,,,,,,,,,,,,,,,,,,,,,
,,,,,,,,,,,,5975a8bcfccf1700017b3b76,15/12/1951,2020-09-10_13h03.03.746,proactive3.1,2020.1.2,Win32,60,5f599a131af4471f3d752b7b,5f5a15e913f9ca0583eeb53c,1,,,,,,,,,,,,,,,,,,,,,,,,0,0,0,1,1,stimuli/learn-block2.csv,,,,,,,,,,,,,,,,,,,,,,,,,,,,,,,,,,,,,,,,,,,,,,,,,,,,,,,,,,,,,,,,,,,,,,,,,,,,,,,,,,,,,,,,,,,,,,,,,,
,,,,,,,,,,stimuli/images/PICTURE_208.png,MONTH,5975a8bcfccf1700017b3b76,15/12/1951,2020-09-10_13h03.03.746,proactive3.1,2020.1.2,Win32,60,5f599a131af4471f3d752b7b,5f5a15e913f9ca0583eeb53c,1,,,,,,microphone,,,,,,0,0,0,53,1,6,0,,,,,,,,,,,,,,,,,,,,,,,,,,,,,,,,,,,,,,,,,,,,,,,,,,,,,,,,,,,,,,,,,,,,,,,,,,,,,,,,,,,,,,,,,,,,,,,,,,,,,,,,,,,,,
,,,,,,,,,,stimuli/images/PICTURE_123.png,ADVICE,5975a8bcfccf1700017b3b76,15/12/1951,2020-09-10_13h03.03.746,proactive3.1,2020.1.2,Win32,60,5f599a131af4471f3d752b7b,5f5a15e913f9ca0583eeb53c,1,,,,,,dart,,,,,,0,1,1,40,1,5,0,,,,,,,,,,,,,,,,,,,,,,,,,,,,,,,,,,,,,,,,,,,,,,,,,,,,,,,,,,,,,,,,,,,,,,,,,,,,,,,,,,,,,,,,,,,,,,,,,,,,,,,,,,,,,
,,,,,,,,,,stimuli/images/PICTURE_491.png,WRITER,5975a8bcfccf1700017b3b76,15/12/1951,2020-09-10_13h03.03.746,proactive3.1,2020.1.2,Win32,60,5f599a131af4471f3d752b7b,5f5a15e913f9ca0583eeb53c,1,,,,,,rug,,,,,,0,2,2,57,1,6,0,,,,,,,,,,,,,,,,,,,,,,,,,,,,,,,,,,,,,,,,,,,,,,,,,,,,,,,,,,,,,,,,,,,,,,,,,,,,,,,,,,,,,,,,,,,,,,,,,,,,,,,,,,,,,
,,,,,,,,,,stimuli/images/PICTURE_160.png,FEET,5975a8bcfccf1700017b3b76,15/12/1951,2020-09-10_13h03.03.746,proactive3.1,2020.1.2,Win32,60,5f599a131af4471f3d752b7b,5f5a15e913f9ca0583eeb53c,1,,,,,,wheelbarrow,,,,,,0,3,3,58,1,6,0,,,,,,,,,,,,,,,,,,,,,,,,,,,,,,,,,,,,,,,,,,,,,,,,,,,,,,,,,,,,,,,,,,,,,,,,,,,,,,,,,,,,,,,,,,,,,,,,,,,,,,,,,,,,,
,,,,,,,,,,stimuli/images/PICTURE_509.png,PHOTO,5975a8bcfccf1700017b3b76,15/12/1951,2020-09-10_13h03.03.746,proactive3.1,2020.1.2,Win32,60,5f599a131af4471f3d752b7b,5f5a15e913f9ca0583eeb53c,1,,,,,,telephone,,,,,,0,4,4,21,1,3,0,,,,,,,,,,,,,,,,,,,,,,,,,,,,,,,,,,,,,,,,,,,,,,,,,,,,,,,,,,,,,,,,,,,,,,,,,,,,,,,,,,,,,,,,,,,,,,,,,,,,,,,,,,,,,
,,,,,,,,,,stimuli/images/PICTURE_692.png,MONTH,5975a8bcfccf1700017b3b76,15/12/1951,2020-09-10_13h03.03.746,proactive3.1,2020.1.2,Win32,60,5f599a131af4471f3d752b7b,5f5a15e913f9ca0583eeb53c,1,,,,,,cherry,,,,,,0,5,5,16,1,2,0,,,,,,,,,,,,,,,,,,,,,,,,,,,,,,,,,,,,,,,,,,,,,,,,,,,,,,,,,,,,,,,,,,,,,,,,,,,,,,,,,,,,,,,,,,,,,,,,,,,,,,,,,,,,,
,,,,,,,,,,stimuli/images/PICTURE_688.png,WOMEN,5975a8bcfccf1700017b3b76,15/12/1951,2020-09-10_13h03.03.746,proactive3.1,2020.1.2,Win32,60,5f599a131af4471f3d752b7b,5f5a15e913f9ca0583eeb53c,1,,,,,,runner,,,,,,0,6,6,14,1,2,0,,,,,,,,,,,,,,,,,,,,,,,,,,,,,,,,,,,,,,,,,,,,,,,,,,,,,,,,,,,,,,,,,,,,,,,,,,,,,,,,,,,,,,,,,,,,,,,,,,,,,,,,,,,,,
,,,,,,,,,,stimuli/images/PICTURE_470.png,CASINO,5975a8bcfccf1700017b3b76,15/12/1951,2020-09-10_13h03.03.746,proactive3.1,2020.1.2,Win32,60,5f599a131af4471f3d752b7b,5f5a15e913f9ca0583eeb53c,1,,,,,,motorbike,,,,,,0,7,7,36,1,4,0,,,,,,,,,,,,,,,,,,,,,,,,,,,,,,,,,,,,,,,,,,,,,,,,,,,,,,,,,,,,,,,,,,,,,,,,,,,,,,,,,,,,,,,,,,,,,,,,,,,,,,,,,,,,,
,,,,,,,,,,stimuli/images/PICTURE_348.png,SPEECH,5975a8bcfccf1700017b3b76,15/12/1951,2020-09-10_13h03.03.746,proactive3.1,2020.1.2,Win32,60,5f599a131af4471f3d752b7b,5f5a15e913f9ca0583eeb53c,1,,,,,,pepper,,,,,,0,8,8,20,1,3,0,,,,,,,,,,,,,,,,,,,,,,,,,,,,,,,,,,,,,,,,,,,,,,,,,,,,,,,,,,,,,,,,,,,,,,,,,,,,,,,,,,,,,,,,,,,,,,,,,,,,,,,,,,,,,
,,,,,,,,,,stimuli/images/PICTURE_311.png,FRIEND,5975a8bcfccf1700017b3b76,15/12/1951,2020-09-10_13h03.03.746,proactive3.1,2020.1.2,Win32,60,5f599a131af4471f3d752b7b,5f5a15e913f9ca0583eeb53c,1,,,,,,razor,,,,,,0,9,9,34,1,4,0,,,,,,,,,,,,,,,,,,,,,,,,,,,,,,,,,,,,,,,,,,,,,,,,,,,,,,,,,,,,,,,,,,,,,,,,,,,,,,,,,,,,,,,,,,,,,,,,,,,,,,,,,,,,,
,,,,,,,,,,stimuli/images/PICTURE_208.png,THING,5975a8bcfccf1700017b3b76,15/12/1951,2020-09-10_13h03.03.746,proactive3.1,2020.1.2,Win32,60,5f599a131af4471f3d752b7b,5f5a15e913f9ca0583eeb53c,1,,,,,,microphone,,,,,,0,10,10,47,1,5,0,,,,,,,,,,,,,,,,,,,,,,,,,,,,,,,,,,,,,,,,,,,,,,,,,,,,,,,,,,,,,,,,,,,,,,,,,,,,,,,,,,,,,,,,,,,,,,,,,,,,,,,,,,,,,
,,,,,,,,,,stimuli/images/PICTURE_688.png,CASINO,5975a8bcfccf1700017b3b76,15/12/1951,2020-09-10_13h03.03.746,proactive3.1,2020.1.2,Win32,60,5f599a131af4471f3d752b7b,5f5a15e913f9ca0583eeb53c,1,,,,,,runner,,,,,,0,11,11,2,1,1,0,,,,,,,,,,,,,,,,,,,,,,,,,,,,,,,,,,,,,,,,,,,,,,,,,,,,,,,,,,,,,,,,,,,,,,,,,,,,,,,,,,,,,,,,,,,,,,,,,,,,,,,,,,,,,
,,,,,,,,,,stimuli/images/PICTURE_469.png,LETTER,5975a8bcfccf1700017b3b76,15/12/1951,2020-09-10_13h03.03.746,proactive3.1,2020.1.2,Win32,60,5f599a131af4471f3d752b7b,5f5a15e913f9ca0583eeb53c,1,,,,,,stool,,,,,,0,12,12,42,1,5,0,,,,,,,,,,,,,,,,,,,,,,,,,,,,,,,,,,,,,,,,,,,,,,,,,,,,,,,,,,,,,,,,,,,,,,,,,,,,,,,,,,,,,,,,,,,,,,,,,,,,,,,,,,,,,
,,,,,,,,,,stimuli/images/PICTURE_504.png,BODY,5975a8bcfccf1700017b3b76,15/12/1951,2020-09-10_13h03.03.746,proactive3.1,2020.1.2,Win32,60,5f599a131af4471f3d752b7b,5f5a15e913f9ca0583eeb53c,1,,,,,,wheel,,,,,,0,13,13,8,1,1,0,,,,,,,,,,,,,,,,,,,,,,,,,,,,,,,,,,,,,,,,,,,,,,,,,,,,,,,,,,,,,,,,,,,,,,,,,,,,,,,,,,,,,,,,,,,,,,,,,,,,,,,,,,,,,
,,,,,,,,,,stimuli/images/PICTURE_215.png,PLENTY,5975a8bcfccf1700017b3b76,15/12/1951,2020-09-10_13h03.03.746,proactive3.1,2020.1.2,Win32,60,5f599a131af4471f3d752b7b,5f5a15e913f9ca0583eeb53c,1,,,,,,boot,,,,,,0,14,14,37,1,4,0,,,,,,,,,,,,,,,,,,,,,,,,,,,,,,,,,,,,,,,,,,,,,,,,,,,,,,,,,,,,,,,,,,,,,,,,,,,,,,,,,,,,,,,,,,,,,,,,,,,,,,,,,,,,,
,,,,,,,,,,stimuli/images/PICTURE_233.png,WOMEN,5975a8bcfccf1700017b3b76,15/12/1951,2020-09-10_13h03.03.746,proactive3.1,2020.1.2,Win32,60,5f599a131af4471f3d752b7b,5f5a15e913f9ca0583eeb53c,1,,,,,,salt,,,,,,0,15,15,38,1,4,0,,,,,,,,,,,,,,,,,,,,,,,,,,,,,,,,,,,,,,,,,,,,,,,,,,,,,,,,,,,,,,,,,,,,,,,,,,,,,,,,,,,,,,,,,,,,,,,,,,,,,,,,,,,,,
,,,,,,,,,,stimuli/images/PICTURE_123.png,ADVICE,5975a8bcfccf1700017b3b76,15/12/1951,2020-09-10_13h03.03.746,proactive3.1,2020.1.2,Win32,60,5f599a131af4471f3d752b7b,5f5a15e913f9ca0583eeb53c,1,,,,,,dart,,,,,,0,16,16,50,1,6,0,,,,,,,,,,,,,,,,,,,,,,,,,,,,,,,,,,,,,,,,,,,,,,,,,,,,,,,,,,,,,,,,,,,,,,,,,,,,,,,,,,,,,,,,,,,,,,,,,,,,,,,,,,,,,
,,,,,,,,,,stimuli/images/PICTURE_487.png,FLIGHT,5975a8bcfccf1700017b3b76,15/12/1951,2020-09-10_13h03.03.746,proactive3.1,2020.1.2,Win32,60,5f599a131af4471f3d752b7b,5f5a15e913f9ca0583eeb53c,1,,,,,,basket,,,,,,0,17,17,9,1,1,0,,,,,,,,,,,,,,,,,,,,,,,,,,,,,,,,,,,,,,,,,,,,,,,,,,,,,,,,,,,,,,,,,,,,,,,,,,,,,,,,,,,,,,,,,,,,,,,,,,,,,,,,,,,,,
,,,,,,,,,,stimuli/images/PICTURE_95.png,STYLE,5975a8bcfccf1700017b3b76,15/12/1951,2020-09-10_13h03.03.746,proactive3.1,2020.1.2,Win32,60,5f599a131af4471f3d752b7b,5f5a15e913f9ca0583eeb53c,1,,,,,,suitcase,,,,,,0,18,18,25,1,3,0,,,,,,,,,,,,,,,,,,,,,,,,,,,,,,,,,,,,,,,,,,,,,,,,,,,,,,,,,,,,,,,,,,,,,,,,,,,,,,,,,,,,,,,,,,,,,,,,,,,,,,,,,,,,,
,,,,,,,,,,stimuli/images/PICTURE_285.png,ADVICE,5975a8bcfccf1700017b3b76,15/12/1951,2020-09-10_13h03.03.746,proactive3.1,2020.1.2,Win32,60,5f599a131af4471f3d752b7b,5f5a15e913f9ca0583eeb53c,1,,,,,,carrot,,,,,,0,19,19,12,1,2,0,,,,,,,,,,,,,,,,,,,,,,,,,,,,,,,,,,,,,,,,,,,,,,,,,,,,,,,,,,,,,,,,,,,,,,,,,,,,,,,,,,,,,,,,,,,,,,,,,,,,,,,,,,,,,
,,,,,,,,,,stimuli/images/PICTURE_469.png,ARTIST,5975a8bcfccf1700017b3b76,15/12/1951,2020-09-10_13h03.03.746,proactive3.1,2020.1.2,Win32,60,5f599a131af4471f3d752b7b,5f5a15e913f9ca0583eeb53c,1,,,,,,stool,,,,,,0,20,20,6,1,1,0,,,,,,,,,,,,,,,,,,,,,,,,,,,,,,,,,,,,,,,,,,,,,,,,,,,,,,,,,,,,,,,,,,,,,,,,,,,,,,,,,,,,,,,,,,,,,,,,,,,,,,,,,,,,,
,,,,,,,,,,stimuli/images/PICTURE_203.png,ARTIST,5975a8bcfccf1700017b3b76,15/12/1951,2020-09-10_13h03.03.746,proactive3.1,2020.1.2,Win32,60,5f599a131af4471f3d752b7b,5f5a15e913f9ca0583eeb53c,1,,,,,,cap,,,,,,0,21,21,26,1,3,0,,,,,,,,,,,,,,,,,,,,,,,,,,,,,,,,,,,,,,,,,,,,,,,,,,,,,,,,,,,,,,,,,,,,,,,,,,,,,,,,,,,,,,,,,,,,,,,,,,,,,,,,,,,,,
,,,,,,,,,,stimuli/images/PICTURE_68.png,MILE,5975a8bcfccf1700017b3b76,15/12/1951,2020-09-10_13h03.03.746,proactive3.1,2020.1.2,Win32,60,5f599a131af4471f3d752b7b,5f5a15e913f9ca0583eeb53c,1,,,,,,candle,,,,,,0,22,22,44,1,5,0,,,,,,,,,,,,,,,,,,,,,,,,,,,,,,,,,,,,,,,,,,,,,,,,,,,,,,,,,,,,,,,,,,,,,,,,,,,,,,,,,,,,,,,,,,,,,,,,,,,,,,,,,,,,,
,,,,,,,,,,stimuli/images/PICTURE_302.png,FAMILY,5975a8bcfccf1700017b3b76,15/12/1951,2020-09-10_13h03.03.746,proactive3.1,2020.1.2,Win32,60,5f599a131af4471f3d752b7b,5f5a15e913f9ca0583eeb53c,1,,,,,,taxi,,,,,,0,23,23,18,1,2,0,,,,,,,,,,,,,,,,,,,,,,,,,,,,,,,,,,,,,,,,,,,,,,,,,,,,,,,,,,,,,,,,,,,,,,,,,,,,,,,,,,,,,,,,,,,,,,,,,,,,,,,,,,,,,
,,,,,,,,,,stimuli/images/PICTURE_177.png,CARS,5975a8bcfccf1700017b3b76,15/12/1951,2020-09-10_13h03.03.746,proactive3.1,2020.1.2,Win32,60,5f599a131af4471f3d752b7b,5f5a15e913f9ca0583eeb53c,1,,,,,,mushroom,,,,,,0,24,24,35,1,4,0,,,,,,,,,,,,,,,,,,,,,,,,,,,,,,,,,,,,,,,,,,,,,,,,,,,,,,,,,,,,,,,,,,,,,,,,,,,,,,,,,,,,,,,,,,,,,,,,,,,,,,,,,,,,,
,,,,,,,,,,stimuli/images/PICTURE_467.png,DEMON,5975a8bcfccf1700017b3b76,15/12/1951,2020-09-10_13h03.03.746,proactive3.1,2020.1.2,Win32,60,5f599a131af4471f3d752b7b,5f5a15e913f9ca0583eeb53c,1,,,,,,peg,,,,,,0,25,25,23,1,3,0,,,,,,,,,,,,,,,,,,,,,,,,,,,,,,,,,,,,,,,,,,,,,,,,,,,,,,,,,,,,,,,,,,,,,,,,,,,,,,,,,,,,,,,,,,,,,,,,,,,,,,,,,,,,,
,,,,,,,,,,stimuli/images/PICTURE_311.png,BEAUTY,5975a8bcfccf1700017b3b76,15/12/1951,2020-09-10_13h03.03.746,proactive3.1,2020.1.2,Win32,60,5f599a131af4471f3d752b7b,5f5a15e913f9ca0583eeb53c,1,,,,,,razor,,,,,,0,26,26,13,1,2,0,,,,,,,,,,,,,,,,,,,,,,,,,,,,,,,,,,,,,,,,,,,,,,,,,,,,,,,,,,,,,,,,,,,,,,,,,,,,,,,,,,,,,,,,,,,,,,,,,,,,,,,,,,,,,
,,,,,,,,,,stimuli/images/PICTURE_380.png,PHOTO,5975a8bcfccf1700017b3b76,15/12/1951,2020-09-10_13h03.03.746,proactive3.1,2020.1.2,Win32,60,5f599a131af4471f3d752b7b,5f5a15e913f9ca0583eeb53c,1,,,,,,gorilla,,,,,,0,27,27,52,1,6,0,,,,,,,,,,,,,,,,,,,,,,,,,,,,,,,,,,,,,,,,,,,,,,,,,,,,,,,,,,,,,,,,,,,,,,,,,,,,,,,,,,,,,,,,,,,,,,,,,,,,,,,,,,,,,
,,,,,,,,,,stimuli/images/PICTURE_675.png,WEAPON,5975a8bcfccf1700017b3b76,15/12/1951,2020-09-10_13h03.03.746,proactive3.1,2020.1.2,Win32,60,5f599a131af4471f3d752b7b,5f5a15e913f9ca0583eeb53c,1,,,,,,windmill,,,,,,0,28,28,32,1,4,0,,,,,,,,,,,,,,,,,,,,,,,,,,,,,,,,,,,,,,,,,,,,,,,,,,,,,,,,,,,,,,,,,,,,,,,,,,,,,,,,,,,,,,,,,,,,,,,,,,,,,,,,,,,,,
,,,,,,,,,,stimuli/images/PICTURE_708.png,CLIENT,5975a8bcfccf1700017b3b76,15/12/1951,2020-09-10_13h03.03.746,proactive3.1,2020.1.2,Win32,60,5f599a131af4471f3d752b7b,5f5a15e913f9ca0583eeb53c,1,,,,,,monkey,,,,,,0,29,29,5,1,1,0,,,,,,,,,,,,,,,,,,,,,,,,,,,,,,,,,,,,,,,,,,,,,,,,,,,,,,,,,,,,,,,,,,,,,,,,,,,,,,,,,,,,,,,,,,,,,,,,,,,,,,,,,,,,,
,,,,,,,,,,stimuli/images/PICTURE_314.png,GODS,5975a8bcfccf1700017b3b76,15/12/1951,2020-09-10_13h03.03.746,proactive3.1,2020.1.2,Win32,60,5f599a131af4471f3d752b7b,5f5a15e913f9ca0583eeb53c,1,,,,,,perfume,,,,,,0,30,30,11,1,2,0,,,,,,,,,,,,,,,,,,,,,,,,,,,,,,,,,,,,,,,,,,,,,,,,,,,,,,,,,,,,,,,,,,,,,,,,,,,,,,,,,,,,,,,,,,,,,,,,,,,,,,,,,,,,,
,,,,,,,,,,stimuli/images/PICTURE_708.png,YARD,5975a8bcfccf1700017b3b76,15/12/1951,2020-09-10_13h03.03.746,proactive3.1,2020.1.2,Win32,60,5f599a131af4471f3d752b7b,5f5a15e913f9ca0583eeb53c,1,,,,,,monkey,,,,,,0,31,31,29,1,3,0,,,,,,,,,,,,,,,,,,,,,,,,,,,,,,,,,,,,,,,,,,,,,,,,,,,,,,,,,,,,,,,,,,,,,,,,,,,,,,,,,,,,,,,,,,,,,,,,,,,,,,,,,,,,,
,,,,,,,,,,stimuli/images/PICTURE_327.png,BEAUTY,5975a8bcfccf1700017b3b76,15/12/1951,2020-09-10_13h03.03.746,proactive3.1,2020.1.2,Win32,60,5f599a131af4471f3d752b7b,5f5a15e913f9ca0583eeb53c,1,,,,,,helmet,,,,,,0,32,32,48,1,5,0,,,,,,,,,,,,,,,,,,,,,,,,,,,,,,,,,,,,,,,,,,,,,,,,,,,,,,,,,,,,,,,,,,,,,,,,,,,,,,,,,,,,,,,,,,,,,,,,,,,,,,,,,,,,,
,,,,,,,,,,stimuli/images/PICTURE_744.png,SYSTEM,5975a8bcfccf1700017b3b76,15/12/1951,2020-09-10_13h03.03.746,proactive3.1,2020.1.2,Win32,60,5f599a131af4471f3d752b7b,5f5a15e913f9ca0583eeb53c,1,,,,,,ring,,,,,,0,33,33,43,1,5,0,,,,,,,,,,,,,,,,,,,,,,,,,,,,,,,,,,,,,,,,,,,,,,,,,,,,,,,,,,,,,,,,,,,,,,,,,,,,,,,,,,,,,,,,,,,,,,,,,,,,,,,,,,,,,
,,,,,,,,,,stimuli/images/PICTURE_667.png,BATH,5975a8bcfccf1700017b3b76,15/12/1951,2020-09-10_13h03.03.746,proactive3.1,2020.1.2,Win32,60,5f599a131af4471f3d752b7b,5f5a15e913f9ca0583eeb53c,1,,,,,,daisy,,,,,,0,34,34,4,1,1,0,,,,,,,,,,,,,,,,,,,,,,,,,,,,,,,,,,,,,,,,,,,,,,,,,,,,,,,,,,,,,,,,,,,,,,,,,,,,,,,,,,,,,,,,,,,,,,,,,,,,,,,,,,,,,
,,,,,,,,,,stimuli/images/PICTURE_449.png,THING,5975a8bcfccf1700017b3b76,15/12/1951,2020-09-10_13h03.03.746,proactive3.1,2020.1.2,Win32,60,5f599a131af4471f3d752b7b,5f5a15e913f9ca0583eeb53c,1,,,,,,bench,,,,,,0,35,35,59,1,6,0,,,,,,,,,,,,,,,,,,,,,,,,,,,,,,,,,,,,,,,,,,,,,,,,,,,,,,,,,,,,,,,,,,,,,,,,,,,,,,,,,,,,,,,,,,,,,,,,,,,,,,,,,,,,,
,,,,,,,,,,stimuli/images/PICTURE_488.png,STYLE,5975a8bcfccf1700017b3b76,15/12/1951,2020-09-10_13h03.03.746,proactive3.1,2020.1.2,Win32,60,5f599a131af4471f3d752b7b,5f5a15e913f9ca0583eeb53c,1,,,,,,sun,,,,,,0,36,36,33,1,4,0,,,,,,,,,,,,,,,,,,,,,,,,,,,,,,,,,,,,,,,,,,,,,,,,,,,,,,,,,,,,,,,,,,,,,,,,,,,,,,,,,,,,,,,,,,,,,,,,,,,,,,,,,,,,,
,,,,,,,,,,stimuli/images/PICTURE_708.png,PENNY,5975a8bcfccf1700017b3b76,15/12/1951,2020-09-10_13h03.03.746,proactive3.1,2020.1.2,Win32,60,5f599a131af4471f3d752b7b,5f5a15e913f9ca0583eeb53c,1,,,,,,monkey,,,,,,0,37,37,31,1,4,0,,,,,,,,,,,,,,,,,,,,,,,,,,,,,,,,,,,,,,,,,,,,,,,,,,,,,,,,,,,,,,,,,,,,,,,,,,,,,,,,,,,,,,,,,,,,,,,,,,,,,,,,,,,,,
,,,,,,,,,,stimuli/images/PICTURE_339.png,PLENTY,5975a8bcfccf1700017b3b76,15/12/1951,2020-09-10_13h03.03.746,proactive3.1,2020.1.2,Win32,60,5f599a131af4471f3d752b7b,5f5a15e913f9ca0583eeb53c,1,,,,,,backpack,,,,,,0,38,38,0,1,1,0,,,,,,,,,,,,,,,,,,,,,,,,,,,,,,,,,,,,,,,,,,,,,,,,,,,,,,,,,,,,,,,,,,,,,,,,,,,,,,,,,,,,,,,,,,,,,,,,,,,,,,,,,,,,,
,,,,,,,,,,stimuli/images/PICTURE_667.png,PLENTY,5975a8bcfccf1700017b3b76,15/12/1951,2020-09-10_13h03.03.746,proactive3.1,2020.1.2,Win32,60,5f599a131af4471f3d752b7b,5f5a15e913f9ca0583eeb53c,1,,,,,,daisy,,,,,,0,39,39,41,1,5,0,,,,,,,,,,,,,,,,,,,,,,,,,,,,,,,,,,,,,,,,,,,,,,,,,,,,,,,,,,,,,,,,,,,,,,,,,,,,,,,,,,,,,,,,,,,,,,,,,,,,,,,,,,,,,
,,,,,,,,,,stimuli/images/PICTURE_308.png,KIND,5975a8bcfccf1700017b3b76,15/12/1951,2020-09-10_13h03.03.746,proactive3.1,2020.1.2,Win32,60,5f599a131af4471f3d752b7b,5f5a15e913f9ca0583eeb53c,1,,,,,,dice,,,,,,0,40,40,54,1,6,0,,,,,,,,,,,,,,,,,,,,,,,,,,,,,,,,,,,,,,,,,,,,,,,,,,,,,,,,,,,,,,,,,,,,,,,,,,,,,,,,,,,,,,,,,,,,,,,,,,,,,,,,,,,,,
,,,,,,,,,,stimuli/images/PICTURE_380.png,DEATH,5975a8bcfccf1700017b3b76,15/12/1951,2020-09-10_13h03.03.746,proactive3.1,2020.1.2,Win32,60,5f599a131af4471f3d752b7b,5f5a15e913f9ca0583eeb53c,1,,,,,,gorilla,,,,,,0,41,41,49,1,5,0,,,,,,,,,,,,,,,,,,,,,,,,,,,,,,,,,,,,,,,,,,,,,,,,,,,,,,,,,,,,,,,,,,,,,,,,,,,,,,,,,,,,,,,,,,,,,,,,,,,,,,,,,,,,,
,,,,,,,,,,stimuli/images/PICTURE_308.png,ESTATE,5975a8bcfccf1700017b3b76,15/12/1951,2020-09-10_13h03.03.746,proactive3.1,2020.1.2,Win32,60,5f599a131af4471f3d752b7b,5f5a15e913f9ca0583eeb53c,1,,,,,,dice,,,,,,0,42,42,46,1,5,0,,,,,,,,,,,,,,,,,,,,,,,,,,,,,,,,,,,,,,,,,,,,,,,,,,,,,,,,,,,,,,,,,,,,,,,,,,,,,,,,,,,,,,,,,,,,,,,,,,,,,,,,,,,,,
,,,,,,,,,,stimuli/images/PICTURE_654.png,VALLEY,5975a8bcfccf1700017b3b76,15/12/1951,2020-09-10_13h03.03.746,proactive3.1,2020.1.2,Win32,60,5f599a131af4471f3d752b7b,5f5a15e913f9ca0583eeb53c,1,,,,,,pencil,,,,,,0,43,43,1,1,1,0,,,,,,,,,,,,,,,,,,,,,,,,,,,,,,,,,,,,,,,,,,,,,,,,,,,,,,,,,,,,,,,,,,,,,,,,,,,,,,,,,,,,,,,,,,,,,,,,,,,,,,,,,,,,,
,,,,,,,,,,stimuli/images/PICTURE_356.png,DANGER,5975a8bcfccf1700017b3b76,15/12/1951,2020-09-10_13h03.03.746,proactive3.1,2020.1.2,Win32,60,5f599a131af4471f3d752b7b,5f5a15e913f9ca0583eeb53c,1,,,,,,pawn,,,,,,0,44,44,55,1,6,0,,,,,,,,,,,,,,,,,,,,,,,,,,,,,,,,,,,,,,,,,,,,,,,,,,,,,,,,,,,,,,,,,,,,,,,,,,,,,,,,,,,,,,,,,,,,,,,,,,,,,,,,,,,,,
,,,,,,,,,,stimuli/images/PICTURE_85.png,THING,5975a8bcfccf1700017b3b76,15/12/1951,2020-09-10_13h03.03.746,proactive3.1,2020.1.2,Win32,60,5f599a131af4471f3d752b7b,5f5a15e913f9ca0583eeb53c,1,,,,,,diamond,,,,,,0,45,45,15,1,2,0,,,,,,,,,,,,,,,,,,,,,,,,,,,,,,,,,,,,,,,,,,,,,,,,,,,,,,,,,,,,,,,,,,,,,,,,,,,,,,,,,,,,,,,,,,,,,,,,,,,,,,,,,,,,,
,,,,,,,,,,stimuli/images/PICTURE_151.png,GIRL,5975a8bcfccf1700017b3b76,15/12/1951,2020-09-10_13h03.03.746,proactive3.1,2020.1.2,Win32,60,5f599a131af4471f3d752b7b,5f5a15e913f9ca0583eeb53c,1,,,,,,tray,,,,,,0,46,46,19,1,2,0,,,,,,,,,,,,,,,,,,,,,,,,,,,,,,,,,,,,,,,,,,,,,,,,,,,,,,,,,,,,,,,,,,,,,,,,,,,,,,,,,,,,,,,,,,,,,,,,,,,,,,,,,,,,,
,,,,,,,,,,stimuli/images/PICTURE_32.png,JUNGLE,5975a8bcfccf1700017b3b76,15/12/1951,2020-09-10_13h03.03.746,proactive3.1,2020.1.2,Win32,60,5f599a131af4471f3d752b7b,5f5a15e913f9ca0583eeb53c,1,,,,,,crown,,,,,,0,47,47,45,1,5,0,,,,,,,,,,,,,,,,,,,,,,,,,,,,,,,,,,,,,,,,,,,,,,,,,,,,,,,,,,,,,,,,,,,,,,,,,,,,,,,,,,,,,,,,,,,,,,,,,,,,,,,,,,,,,
,,,,,,,,,,stimuli/images/PICTURE_147.png,MOMENT,5975a8bcfccf1700017b3b76,15/12/1951,2020-09-10_13h03.03.746,proactive3.1,2020.1.2,Win32,60,5f599a131af4471f3d752b7b,5f5a15e913f9ca0583eeb53c,1,,,,,,hanger,,,,,,0,48,48,51,1,6,0,,,,,,,,,,,,,,,,,,,,,,,,,,,,,,,,,,,,,,,,,,,,,,,,,,,,,,,,,,,,,,,,,,,,,,,,,,,,,,,,,,,,,,,,,,,,,,,,,,,,,,,,,,,,,
,,,,,,,,,,stimuli/images/PICTURE_160.png,LEADER,5975a8bcfccf1700017b3b76,15/12/1951,2020-09-10_13h03.03.746,proactive3.1,2020.1.2,Win32,60,5f599a131af4471f3d752b7b,5f5a15e913f9ca0583eeb53c,1,,,,,,wheelbarrow,,,,,,0,49,49,3,1,1,0,,,,,,,,,,,,,,,,,,,,,,,,,,,,,,,,,,,,,,,,,,,,,,,,,,,,,,,,,,,,,,,,,,,,,,,,,,,,,,,,,,,,,,,,,,,,,,,,,,,,,,,,,,,,,
,,,,,,,,,,stimuli/images/PICTURE_453.png,DUDE,5975a8bcfccf1700017b3b76,15/12/1951,2020-09-10_13h03.03.746,proactive3.1,2020.1.2,Win32,60,5f599a131af4471f3d752b7b,5f5a15e913f9ca0583eeb53c,1,,,,,,scissors,,,,,,0,50,50,27,1,3,0,,,,,,,,,,,,,,,,,,,,,,,,,,,,,,,,,,,,,,,,,,,,,,,,,,,,,,,,,,,,,,,,,,,,,,,,,,,,,,,,,,,,,,,,,,,,,,,,,,,,,,,,,,,,,
,,,,,,,,,,stimuli/images/PICTURE_208.png,LOTS,5975a8bcfccf1700017b3b76,15/12/1951,2020-09-10_13h03.03.746,proactive3.1,2020.1.2,Win32,60,5f599a131af4471f3d752b7b,5f5a15e913f9ca0583eeb53c,1,,,,,,microphone,,,,,,0,51,51,10,1,2,0,,,,,,,,,,,,,,,,,,,,,,,,,,,,,,,,,,,,,,,,,,,,,,,,,,,,,,,,,,,,,,,,,,,,,,,,,,,,,,,,,,,,,,,,,,,,,,,,,,,,,,,,,,,,,
,,,,,,,,,,stimuli/images/PICTURE_248.png,DOZEN,5975a8bcfccf1700017b3b76,15/12/1951,2020-09-10_13h03.03.746,proactive3.1,2020.1.2,Win32,60,5f599a131af4471f3d752b7b,5f5a15e913f9ca0583eeb53c,1,,,,,,cart,,,,,,0,52,52,39,1,4,0,,,,,,,,,,,,,,,,,,,,,,,,,,,,,,,,,,,,,,,,,,,,,,,,,,,,,,,,,,,,,,,,,,,,,,,,,,,,,,,,,,,,,,,,,,,,,,,,,,,,,,,,,,,,,
,,,,,,,,,,stimuli/images/PICTURE_491.png,ROOF,5975a8bcfccf1700017b3b76,15/12/1951,2020-09-10_13h03.03.746,proactive3.1,2020.1.2,Win32,60,5f599a131af4471f3d752b7b,5f5a15e913f9ca0583eeb53c,1,,,,,,rug,,,,,,0,53,53,24,1,3,0,,,,,,,,,,,,,,,,,,,,,,,,,,,,,,,,,,,,,,,,,,,,,,,,,,,,,,,,,,,,,,,,,,,,,,,,,,,,,,,,,,,,,,,,,,,,,,,,,,,,,,,,,,,,,
,,,,,,,,,,stimuli/images/PICTURE_233.png,IDEAS,5975a8bcfccf1700017b3b76,15/12/1951,2020-09-10_13h03.03.746,proactive3.1,2020.1.2,Win32,60,5f599a131af4471f3d752b7b,5f5a15e913f9ca0583eeb53c,1,,,,,,salt,,,,,,0,54,54,28,1,3,0,,,,,,,,,,,,,,,,,,,,,,,,,,,,,,,,,,,,,,,,,,,,,,,,,,,,,,,,,,,,,,,,,,,,,,,,,,,,,,,,,,,,,,,,,,,,,,,,,,,,,,,,,,,,,
,,,,,,,,,,stimuli/images/PICTURE_314.png,SAKE,5975a8bcfccf1700017b3b76,15/12/1951,2020-09-10_13h03.03.746,proactive3.1,2020.1.2,Win32,60,5f599a131af4471f3d752b7b,5f5a15e913f9ca0583eeb53c,1,,,,,,perfume,,,,,,0,55,55,7,1,1,0,,,,,,,,,,,,,,,,,,,,,,,,,,,,,,,,,,,,,,,,,,,,,,,,,,,,,,,,,,,,,,,,,,,,,,,,,,,,,,,,,,,,,,,,,,,,,,,,,,,,,,,,,,,,,
,,,,,,,,,,stimuli/images/PICTURE_255.png,AREA,5975a8bcfccf1700017b3b76,15/12/1951,2020-09-10_13h03.03.746,proactive3.1,2020.1.2,Win32,60,5f599a131af4471f3d752b7b,5f5a15e913f9ca0583eeb53c,1,,,,,,shovel,,,,,,0,56,56,22,1,3,0,,,,,,,,,,,,,,,,,,,,,,,,,,,,,,,,,,,,,,,,,,,,,,,,,,,,,,,,,,,,,,,,,,,,,,,,,,,,,,,,,,,,,,,,,,,,,,,,,,,,,,,,,,,,,
,,,,,,,,,,stimuli/images/PICTURE_744.png,SAKE,5975a8bcfccf1700017b3b76,15/12/1951,2020-09-10_13h03.03.746,proactive3.1,2020.1.2,Win32,60,5f599a131af4471f3d752b7b,5f5a15e913f9ca0583eeb53c,1,,,,,,ring,,,,,,0,57,57,17,1,2,0,,,,,,,,,,,,,,,,,,,,,,,,,,,,,,,,,,,,,,,,,,,,,,,,,,,,,,,,,,,,,,,,,,,,,,,,,,,,,,,,,,,,,,,,,,,,,,,,,,,,,,,,,,,,,
,,,,,,,,,,stimuli/images/PICTURE_677.png,MILE,5975a8bcfccf1700017b3b76,15/12/1951,2020-09-10_13h03.03.746,proactive3.1,2020.1.2,Win32,60,5f599a131af4471f3d752b7b,5f5a15e913f9ca0583eeb53c,1,,,,,,map,,,,,,0,58,58,30,1,4,0,,,,,,,,,,,,,,,,,,,,,,,,,,,,,,,,,,,,,,,,,,,,,,,,,,,,,,,,,,,,,,,,,,,,,,,,,,,,,,,,,,,,,,,,,,,,,,,,,,,,,,,,,,,,,
,,?,0.00199,0,,,,,,stimuli/images/PICTURE_32.png,JUNGLE,5975a8bcfccf1700017b3b76,15/12/1951,2020-09-10_13h03.03.746,proactive3.1,2020.1.2,Win32,60,5f599a131af4471f3d752b7b,5f5a15e913f9ca0583eeb53c,1,,,,,,crown,,,,,,,,,,,5,0,0,0,0,45,1,,,,,,,,,,,,,,,,,,,,,,,,,,,,,,,,,,,,,,,,,,,,,,,,,,,,,,,,,,,,,,,,,,,,,,,,,,,,,,,,,,,,,,,,,,,,,,,,,,,,,,,,
,,?,0.000935,0,,,,,,stimuli/images/PICTURE_470.png,CASINO,5975a8bcfccf1700017b3b76,15/12/1951,2020-09-10_13h03.03.746,proactive3.1,2020.1.2,Win32,60,5f599a131af4471f3d752b7b,5f5a15e913f9ca0583eeb53c,1,,,,,,motorbike,,,,,,,,,,,4,0,0,1,1,36,1,,,,,,,,,,,,,,,,,,,,,,,,,,,,,,,,,,,,,,,,,,,,,,,,,,,,,,,,,,,,,,,,,,,,,,,,,,,,,,,,,,,,,,,,,,,,,,,,,,,,,,,,
,,?,0.000825,0,,,,,,stimuli/images/PICTURE_469.png,LETTER,5975a8bcfccf1700017b3b76,15/12/1951,2020-09-10_13h03.03.746,proactive3.1,2020.1.2,Win32,60,5f599a131af4471f3d752b7b,5f5a15e913f9ca0583eeb53c,1,,,,,,stool,,,,,,,,,,,5,0,0,2,2,42,1,,,,,,,,,,,,,,,,,,,,,,,,,,,,,,,,,,,,,,,,,,,,,,,,,,,,,,,,,,,,,,,,,,,,,,,,,,,,,,,,,,,,,,,,,,,,,,,,,,,,,,,,
,,CLIENT,5.628675,1,,,,,,stimuli/images/PICTURE_708.png,CLIENT,5975a8bcfccf1700017b3b76,15/12/1951,2020-09-10_13h03.03.746,proactive3.1,2020.1.2,Win32,60,5f599a131af4471f3d752b7b,5f5a15e913f9ca0583eeb53c,1,,,,,,monkey,,,,,,,,,,,1,0,0,3,3,5,1,,,,,,,,,,,,,,,,,,,,,,,,,,,,,,,,,,,,,,,,,,,,,,,,,,,,,,,,,,,,,,,,,,,,,,,,,,,,,,,,,,,,,,,,,,,,,,,,,,,,,,,,
,,?,0.001545,0,,,,,,stimuli/images/PICTURE_123.png,ADVICE,5975a8bcfccf1700017b3b76,15/12/1951,2020-09-10_13h03.03.746,proactive3.1,2020.1.2,Win32,60,5f599a131af4471f3d752b7b,5f5a15e913f9ca0583eeb53c,1,,,,,,dart,,,,,,,,,,,5,0,0,4,4,40,1,,,,,,,,,,,,,,,,,,,,,,,,,,,,,,,,,,,,,,,,,,,,,,,,,,,,,,,,,,,,,,,,,,,,,,,,,,,,,,,,,,,,,,,,,,,,,,,,,,,,,,,,
,,?,0.00125,0,,,,,,stimuli/images/PICTURE_453.png,PLENTY,5975a8bcfccf1700017b3b76,15/12/1951,2020-09-10_13h03.03.746,proactive3.1,2020.1.2,Win32,60,5f599a131af4471f3d752b7b,5f5a15e913f9ca0583eeb53c,1,,,,,,scissors,,,,,,,,,,,6,0,0,5,5,56,1,,,,,,,,,,,,,,,,,,,,,,,,,,,,,,,,,,,,,,,,,,,,,,,,,,,,,,,,,,,,,,,,,,,,,,,,,,,,,,,,,,,,,,,,,,,,,,,,,,,,,,,,
,,?,0.001265,0,,,,,,stimuli/images/PICTURE_677.png,MILE,5975a8bcfccf1700017b3b76,15/12/1951,2020-09-10_13h03.03.746,proactive3.1,2020.1.2,Win32,60,5f599a131af4471f3d752b7b,5f5a15e913f9ca0583eeb53c,1,,,,,,map,,,,,,,,,,,4,0,0,6,6,30,1,,,,,,,,,,,,,,,,,,,,,,,,,,,,,,,,,,,,,,,,,,,,,,,,,,,,,,,,,,,,,,,,,,,,,,,,,,,,,,,,,,,,,,,,,,,,,,,,,,,,,,,,
,,?,0.001205,0,,,,,,stimuli/images/PICTURE_348.png,SPEECH,5975a8bcfccf1700017b3b76,15/12/1951,2020-09-10_13h03.03.746,proactive3.1,2020.1.2,Win32,60,5f599a131af4471f3d752b7b,5f5a15e913f9ca0583eeb53c,1,,,,,,pepper,,,,,,,,,,,3,0,0,7,7,20,1,,,,,,,,,,,,,,,,,,,,,,,,,,,,,,,,,,,,,,,,,,,,,,,,,,,,,,,,,,,,,,,,,,,,,,,,,,,,,,,,,,,,,,,,,,,,,,,,,,,,,,,,
,,?,0.00129,0,,,,,,stimuli/images/PICTURE_208.png,THING,5975a8bcfccf1700017b3b76,15/12/1951,2020-09-10_13h03.03.746,proactive3.1,2020.1.2,Win32,60,5f599a131af4471f3d752b7b,5f5a15e913f9ca0583eeb53c,1,,,,,,microphone,,,,,,,,,,,5,0,0,8,8,47,1,,,,,,,,,,,,,,,,,,,,,,,,,,,,,,,,,,,,,,,,,,,,,,,,,,,,,,,,,,,,,,,,,,,,,,,,,,,,,,,,,,,,,,,,,,,,,,,,,,,,,,,,
,,?,0.001025,0,,,,,,stimuli/images/PICTURE_311.png,FRIEND,5975a8bcfccf1700017b3b76,15/12/1951,2020-09-10_13h03.03.746,proactive3.1,2020.1.2,Win32,60,5f599a131af4471f3d752b7b,5f5a15e913f9ca0583eeb53c,1,,,,,,razor,,,,,,,,,,,4,0,0,9,9,34,1,,,,,,,,,,,,,,,,,,,,,,,,,,,,,,,,,,,,,,,,,,,,,,,,,,,,,,,,,,,,,,,,,,,,,,,,,,,,,,,,,,,,,,,,,,,,,,,,,,,,,,,,
,,?,0.000725,0,,,,,,stimuli/images/PICTURE_203.png,ARTIST,5975a8bcfccf1700017b3b76,15/12/1951,2020-09-10_13h03.03.746,proactive3.1,2020.1.2,Win32,60,5f599a131af4471f3d752b7b,5f5a15e913f9ca0583eeb53c,1,,,,,,cap,,,,,,,,,,,3,0,0,10,10,26,1,,,,,,,,,,,,,,,,,,,,,,,,,,,,,,,,,,,,,,,,,,,,,,,,,,,,,,,,,,,,,,,,,,,,,,,,,,,,,,,,,,,,,,,,,,,,,,,,,,,,,,,,
,,?,0.00065,0,,,,,,stimuli/images/PICTURE_95.png,STYLE,5975a8bcfccf1700017b3b76,15/12/1951,2020-09-10_13h03.03.746,proactive3.1,2020.1.2,Win32,60,5f599a131af4471f3d752b7b,5f5a15e913f9ca0583eeb53c,1,,,,,,suitcase,,,,,,,,,,,3,0,0,11,11,25,1,,,,,,,,,,,,,,,,,,,,,,,,,,,,,,,,,,,,,,,,,,,,,,,,,,,,,,,,,,,,,,,,,,,,,,,,,,,,,,,,,,,,,,,,,,,,,,,,,,,,,,,,
,,?,0.000665,0,,,,,,stimuli/images/PICTURE_380.png,PHOTO,5975a8bcfccf1700017b3b76,15/12/1951,2020-09-10_13h03.03.746,proactive3.1,2020.1.2,Win32,60,5f599a131af4471f3d752b7b,5f5a15e913f9ca0583eeb53c,1,,,,,,gorilla,,,,,,,,,,,6,0,0,12,12,52,1,,,,,,,,,,,,,,,,,,,,,,,,,,,,,,,,,,,,,,,,,,,,,,,,,,,,,,,,,,,,,,,,,,,,,,,,,,,,,,,,,,,,,,,,,,,,,,,,,,,,,,,,
,,?,0.000665,0,,,,,,stimuli/images/PICTURE_449.png,THING,5975a8bcfccf1700017b3b76,15/12/1951,2020-09-10_13h03.03.746,proactive3.1,2020.1.2,Win32,60,5f599a131af4471f3d752b7b,5f5a15e913f9ca0583eeb53c,1,,,,,,bench,,,,,,,,,,,6,0,0,13,13,59,1,,,,,,,,,,,,,,,,,,,,,,,,,,,,,,,,,,,,,,,,,,,,,,,,,,,,,,,,,,,,,,,,,,,,,,,,,,,,,,,,,,,,,,,,,,,,,,,,,,,,,,,,
,,?,0.00065,0,,,,,,stimuli/images/PICTURE_147.png,MOMENT,5975a8bcfccf1700017b3b76,15/12/1951,2020-09-10_13h03.03.746,proactive3.1,2020.1.2,Win32,60,5f599a131af4471f3d752b7b,5f5a15e913f9ca0583eeb53c,1,,,,,,hanger,,,,,,,,,,,6,0,0,14,14,51,1,,,,,,,,,,,,,,,,,,,,,,,,,,,,,,,,,,,,,,,,,,,,,,,,,,,,,,,,,,,,,,,,,,,,,,,,,,,,,,,,,,,,,,,,,,,,,,,,,,,,,,,,
,,?,0.000655,0,,,,,,stimuli/images/PICTURE_85.png,THING,5975a8bcfccf1700017b3b76,15/12/1951,2020-09-10_13h03.03.746,proactive3.1,2020.1.2,Win32,60,5f599a131af4471f3d752b7b,5f5a15e913f9ca0583eeb53c,1,,,,,,diamond,,,,,,,,,,,2,0,0,15,15,15,1,,,,,,,,,,,,,,,,,,,,,,,,,,,,,,,,,,,,,,,,,,,,,,,,,,,,,,,,,,,,,,,,,,,,,,,,,,,,,,,,,,,,,,,,,,,,,,,,,,,,,,,,
,,LEADER,5.469075,1,,,,,,stimuli/images/PICTURE_160.png,LEADER,5975a8bcfccf1700017b3b76,15/12/1951,2020-09-10_13h03.03.746,proactive3.1,2020.1.2,Win32,60,5f599a131af4471f3d752b7b,5f5a15e913f9ca0583eeb53c,1,,,,,,wheelbarrow,,,,,,,,,,,1,0,0,16,16,3,1,,,,,,,,,,,,,,,,,,,,,,,,,,,,,,,,,,,,,,,,,,,,,,,,,,,,,,,,,,,,,,,,,,,,,,,,,,,,,,,,,,,,,,,,,,,,,,,,,,,,,,,,
,,?,0.00063,0,,,,,,stimuli/images/PICTURE_744.png,SAKE,5975a8bcfccf1700017b3b76,15/12/1951,2020-09-10_13h03.03.746,proactive3.1,2020.1.2,Win32,60,5f599a131af4471f3d752b7b,5f5a15e913f9ca0583eeb53c,1,,,,,,ring,,,,,,,,,,,2,0,0,17,17,17,1,,,,,,,,,,,,,,,,,,,,,,,,,,,,,,,,,,,,,,,,,,,,,,,,,,,,,,,,,,,,,,,,,,,,,,,,,,,,,,,,,,,,,,,,,,,,,,,,,,,,,,,,
,,?,0.000535,0,,,,,,stimuli/images/PICTURE_68.png,MILE,5975a8bcfccf1700017b3b76,15/12/1951,2020-09-10_13h03.03.746,proactive3.1,2020.1.2,Win32,60,5f599a131af4471f3d752b7b,5f5a15e913f9ca0583eeb53c,1,,,,,,candle,,,,,,,,,,,5,0,0,18,18,44,1,,,,,,,,,,,,,,,,,,,,,,,,,,,,,,,,,,,,,,,,,,,,,,,,,,,,,,,,,,,,,,,,,,,,,,,,,,,,,,,,,,,,,,,,,,,,,,,,,,,,,,,,
,,?,0.00044,0,,,,,,stimuli/images/PICTURE_215.png,PLENTY,5975a8bcfccf1700017b3b76,15/12/1951,2020-09-10_13h03.03.746,proactive3.1,2020.1.2,Win32,60,5f599a131af4471f3d752b7b,5f5a15e913f9ca0583eeb53c,1,,,,,,boot,,,,,,,,,,,4,0,0,19,19,37,1,,,,,,,,,,,,,,,,,,,,,,,,,,,,,,,,,,,,,,,,,,,,,,,,,,,,,,,,,,,,,,,,,,,,,,,,,,,,,,,,,,,,,,,,,,,,,,,,,,,,,,,,
,,?,0.00044,0,,,,,,stimuli/images/PICTURE_255.png,AREA,5975a8bcfccf1700017b3b76,15/12/1951,2020-09-10_13h03.03.746,proactive3.1,2020.1.2,Win32,60,5f599a131af4471f3d752b7b,5f5a15e913f9ca0583eeb53c,1,,,,,,shovel,,,,,,,,,,,3,0,0,20,20,22,1,,,,,,,,,,,,,,,,,,,,,,,,,,,,,,,,,,,,,,,,,,,,,,,,,,,,,,,,,,,,,,,,,,,,,,,,,,,,,,,,,,,,,,,,,,,,,,,,,,,,,,,,
,,?,0.000435,0,,,,,,stimuli/images/PICTURE_453.png,DUDE,5975a8bcfccf1700017b3b76,15/12/1951,2020-09-10_13h03.03.746,proactive3.1,2020.1.2,Win32,60,5f599a131af4471f3d752b7b,5f5a15e913f9ca0583eeb53c,1,,,,,,scissors,,,,,,,,,,,3,0,0,21,21,27,1,,,,,,,,,,,,,,,,,,,,,,,,,,,,,,,,,,,,,,,,,,,,,,,,,,,,,,,,,,,,,,,,,,,,,,,,,,,,,,,,,,,,,,,,,,,,,,,,,,,,,,,,
,,?,0.000435,0,,,,,,stimuli/images/PICTURE_233.png,WOMEN,5975a8bcfccf1700017b3b76,15/12/1951,2020-09-10_13h03.03.746,proactive3.1,2020.1.2,Win32,60,5f599a131af4471f3d752b7b,5f5a15e913f9ca0583eeb53c,1,,,,,,salt,,,,,,,,,,,4,0,0,22,22,38,1,,,,,,,,,,,,,,,,,,,,,,,,,,,,,,,,,,,,,,,,,,,,,,,,,,,,,,,,,,,,,,,,,,,,,,,,,,,,,,,,,,,,,,,,,,,,,,,,,,,,,,,,
,,?,0.000435,0,,,,,,stimuli/images/PICTURE_160.png,FEET,5975a8bcfccf1700017b3b76,15/12/1951,2020-09-10_13h03.03.746,proactive3.1,2020.1.2,Win32,60,5f599a131af4471f3d752b7b,5f5a15e913f9ca0583eeb53c,1,,,,,,wheelbarrow,,,,,,,,,,,6,0,0,23,23,58,1,,,,,,,,,,,,,,,,,,,,,,,,,,,,,,,,,,,,,,,,,,,,,,,,,,,,,,,,,,,,,,,,,,,,,,,,,,,,,,,,,,,,,,,,,,,,,,,,,,,,,,,,
,,FLIGHT,3.34096,1,,,,,,stimuli/images/PICTURE_487.png,FLIGHT,5975a8bcfccf1700017b3b76,15/12/1951,2020-09-10_13h03.03.746,proactive3.1,2020.1.2,Win32,60,5f599a131af4471f3d752b7b,5f5a15e913f9ca0583eeb53c,1,,,,,,basket,,,,,,,,,,,1,0,0,24,24,9,1,,,,,,,,,,,,,,,,,,,,,,,,,,,,,,,,,,,,,,,,,,,,,,,,,,,,,,,,,,,,,,,,,,,,,,,,,,,,,,,,,,,,,,,,,,,,,,,,,,,,,,,,
,,?,0.00168,0,,,,,,stimuli/images/PICTURE_509.png,PHOTO,5975a8bcfccf1700017b3b76,15/12/1951,2020-09-10_13h03.03.746,proactive3.1,2020.1.2,Win32,60,5f599a131af4471f3d752b7b,5f5a15e913f9ca0583eeb53c,1,,,,,,telephone,,,,,,,,,,,3,0,0,25,25,21,1,,,,,,,,,,,,,,,,,,,,,,,,,,,,,,,,,,,,,,,,,,,,,,,,,,,,,,,,,,,,,,,,,,,,,,,,,,,,,,,,,,,,,,,,,,,,,,,,,,,,,,,,
,,BATH,4.694655,1,,,,,,stimuli/images/PICTURE_667.png,BATH,5975a8bcfccf1700017b3b76,15/12/1951,2020-09-10_13h03.03.746,proactive3.1,2020.1.2,Win32,60,5f599a131af4471f3d752b7b,5f5a15e913f9ca0583eeb53c,1,,,,,,daisy,,,,,,,,,,,1,0,0,26,26,4,1,,,,,,,,,,,,,,,,,,,,,,,,,,,,,,,,,,,,,,,,,,,,,,,,,,,,,,,,,,,,,,,,,,,,,,,,,,,,,,,,,,,,,,,,,,,,,,,,,,,,,,,,
,,?,0.00154,0,,,,,,stimuli/images/PICTURE_248.png,DOZEN,5975a8bcfccf1700017b3b76,15/12/1951,2020-09-10_13h03.03.746,proactive3.1,2020.1.2,Win32,60,5f599a131af4471f3d752b7b,5f5a15e913f9ca0583eeb53c,1,,,,,,cart,,,,,,,,,,,4,0,0,27,27,39,1,,,,,,,,,,,,,,,,,,,,,,,,,,,,,,,,,,,,,,,,,,,,,,,,,,,,,,,,,,,,,,,,,,,,,,,,,,,,,,,,,,,,,,,,,,,,,,,,,,,,,,,,
,,VALLRY,6.74457,0,,,,,,stimuli/images/PICTURE_654.png,VALLEY,5975a8bcfccf1700017b3b76,15/12/1951,2020-09-10_13h03.03.746,proactive3.1,2020.1.2,Win32,60,5f599a131af4471f3d752b7b,5f5a15e913f9ca0583eeb53c,1,,,,,,pencil,,,,,,,,,,,1,0,0,28,28,1,1,,,,,,,,,,,,,,,,,,,,,,,,,,,,,,,,,,,,,,,,,,,,,,,,,,,,,,,,,,,,,,,,,,,,,,,,,,,,,,,,,,,,,,,,,,,,,,,,,,,,,,,,
,,?,0.001815,0,,,,,,stimuli/images/PICTURE_467.png,DEMON,5975a8bcfccf1700017b3b76,15/12/1951,2020-09-10_13h03.03.746,proactive3.1,2020.1.2,Win32,60,5f599a131af4471f3d752b7b,5f5a15e913f9ca0583eeb53c,1,,,,,,peg,,,,,,,,,,,3,0,0,29,29,23,1,,,,,,,,,,,,,,,,,,,,,,,,,,,,,,,,,,,,,,,,,,,,,,,,,,,,,,,,,,,,,,,,,,,,,,,,,,,,,,,,,,,,,,,,,,,,,,,,,,,,,,,,
,,?,0.00113,0,,,,,,stimuli/images/PICTURE_708.png,YARD,5975a8bcfccf1700017b3b76,15/12/1951,2020-09-10_13h03.03.746,proactive3.1,2020.1.2,Win32,60,5f599a131af4471f3d752b7b,5f5a15e913f9ca0583eeb53c,1,,,,,,monkey,,,,,,,,,,,3,0,0,30,30,29,1,,,,,,,,,,,,,,,,,,,,,,,,,,,,,,,,,,,,,,,,,,,,,,,,,,,,,,,,,,,,,,,,,,,,,,,,,,,,,,,,,,,,,,,,,,,,,,,,,,,,,,,,
,,ARTIST,5.34107,1,,,,,,stimuli/images/PICTURE_469.png,ARTIST,5975a8bcfccf1700017b3b76,15/12/1951,2020-09-10_13h03.03.746,proactive3.1,2020.1.2,Win32,60,5f599a131af4471f3d752b7b,5f5a15e913f9ca0583eeb53c,1,,,,,,stool,,,,,,,,,,,1,0,0,31,31,6,1,,,,,,,,,,,,,,,,,,,,,,,,,,,,,,,,,,,,,,,,,,,,,,,,,,,,,,,,,,,,,,,,,,,,,,,,,,,,,,,,,,,,,,,,,,,,,,,,,,,,,,,,
,,SAKE,3.68297,1,,,,,,stimuli/images/PICTURE_314.png,SAKE,5975a8bcfccf1700017b3b76,15/12/1951,2020-09-10_13h03.03.746,proactive3.1,2020.1.2,Win32,60,5f599a131af4471f3d752b7b,5f5a15e913f9ca0583eeb53c,1,,,,,,perfume,,,,,,,,,,,1,0,0,32,32,7,1,,,,,,,,,,,,,,,,,,,,,,,,,,,,,,,,,,,,,,,,,,,,,,,,,,,,,,,,,,,,,,,,,,,,,,,,,,,,,,,,,,,,,,,,,,,,,,,,,,,,,,,,
,,?,0.001605,0,,,,,,stimuli/images/PICTURE_302.png,FAMILY,5975a8bcfccf1700017b3b76,15/12/1951,2020-09-10_13h03.03.746,proactive3.1,2020.1.2,Win32,60,5f599a131af4471f3d752b7b,5f5a15e913f9ca0583eeb53c,1,,,,,,taxi,,,,,,,,,,,2,0,0,33,33,18,1,,,,,,,,,,,,,,,,,,,,,,,,,,,,,,,,,,,,,,,,,,,,,,,,,,,,,,,,,,,,,,,,,,,,,,,,,,,,,,,,,,,,,,,,,,,,,,,,,,,,,,,,
,,?,0.00126,0,,,,,,stimuli/images/PICTURE_314.png,GODS,5975a8bcfccf1700017b3b76,15/12/1951,2020-09-10_13h03.03.746,proactive3.1,2020.1.2,Win32,60,5f599a131af4471f3d752b7b,5f5a15e913f9ca0583eeb53c,1,,,,,,perfume,,,,,,,,,,,2,0,0,34,34,11,1,,,,,,,,,,,,,,,,,,,,,,,,,,,,,,,,,,,,,,,,,,,,,,,,,,,,,,,,,,,,,,,,,,,,,,,,,,,,,,,,,,,,,,,,,,,,,,,,,,,,,,,,
,,?,0.001215,0,,,,,,stimuli/images/PICTURE_356.png,DANGER,5975a8bcfccf1700017b3b76,15/12/1951,2020-09-10_13h03.03.746,proactive3.1,2020.1.2,Win32,60,5f599a131af4471f3d752b7b,5f5a15e913f9ca0583eeb53c,1,,,,,,pawn,,,,,,,,,,,6,0,0,35,35,55,1,,,,,,,,,,,,,,,,,,,,,,,,,,,,,,,,,,,,,,,,,,,,,,,,,,,,,,,,,,,,,,,,,,,,,,,,,,,,,,,,,,,,,,,,,,,,,,,,,,,,,,,,
,,?,0.00126,0,,,,,,stimuli/images/PICTURE_151.png,GIRL,5975a8bcfccf1700017b3b76,15/12/1951,2020-09-10_13h03.03.746,proactive3.1,2020.1.2,Win32,60,5f599a131af4471f3d752b7b,5f5a15e913f9ca0583eeb53c,1,,,,,,tray,,,,,,,,,,,2,0,0,36,36,19,1,,,,,,,,,,,,,,,,,,,,,,,,,,,,,,,,,,,,,,,,,,,,,,,,,,,,,,,,,,,,,,,,,,,,,,,,,,,,,,,,,,,,,,,,,,,,,,,,,,,,,,,,
,,?,0.0012,0,,,,,,stimuli/images/PICTURE_311.png,BEAUTY,5975a8bcfccf1700017b3b76,15/12/1951,2020-09-10_13h03.03.746,proactive3.1,2020.1.2,Win32,60,5f599a131af4471f3d752b7b,5f5a15e913f9ca0583eeb53c,1,,,,,,razor,,,,,,,,,,,2,0,0,37,37,13,1,,,,,,,,,,,,,,,,,,,,,,,,,,,,,,,,,,,,,,,,,,,,,,,,,,,,,,,,,,,,,,,,,,,,,,,,,,,,,,,,,,,,,,,,,,,,,,,,,,,,,,,,
,,?,0.00088,0,,,,,,stimuli/images/PICTURE_692.png,MONTH,5975a8bcfccf1700017b3b76,15/12/1951,2020-09-10_13h03.03.746,proactive3.1,2020.1.2,Win32,60,5f599a131af4471f3d752b7b,5f5a15e913f9ca0583eeb53c,1,,,,,,cherry,,,,,,,,,,,2,0,0,38,38,16,1,,,,,,,,,,,,,,,,,,,,,,,,,,,,,,,,,,,,,,,,,,,,,,,,,,,,,,,,,,,,,,,,,,,,,,,,,,,,,,,,,,,,,,,,,,,,,,,,,,,,,,,,
,,?,0.000885,0,,,,,,stimuli/images/PICTURE_667.png,PLENTY,5975a8bcfccf1700017b3b76,15/12/1951,2020-09-10_13h03.03.746,proactive3.1,2020.1.2,Win32,60,5f599a131af4471f3d752b7b,5f5a15e913f9ca0583eeb53c,1,,,,,,daisy,,,,,,,,,,,5,0,0,39,39,41,1,,,,,,,,,,,,,,,,,,,,,,,,,,,,,,,,,,,,,,,,,,,,,,,,,,,,,,,,,,,,,,,,,,,,,,,,,,,,,,,,,,,,,,,,,,,,,,,,,,,,,,,,
,,?,0.000745,0,,,,,,stimuli/images/PICTURE_308.png,ESTATE,5975a8bcfccf1700017b3b76,15/12/1951,2020-09-10_13h03.03.746,proactive3.1,2020.1.2,Win32,60,5f599a131af4471f3d752b7b,5f5a15e913f9ca0583eeb53c,1,,,,,,dice,,,,,,,,,,,5,0,0,40,40,46,1,,,,,,,,,,,,,,,,,,,,,,,,,,,,,,,,,,,,,,,,,,,,,,,,,,,,,,,,,,,,,,,,,,,,,,,,,,,,,,,,,,,,,,,,,,,,,,,,,,,,,,,,
,,CASINO,4.726195,1,,,,,,stimuli/images/PICTURE_688.png,CASINO,5975a8bcfccf1700017b3b76,15/12/1951,2020-09-10_13h03.03.746,proactive3.1,2020.1.2,Win32,60,5f599a131af4471f3d752b7b,5f5a15e913f9ca0583eeb53c,1,,,,,,runner,,,,,,,,,,,1,0,0,41,41,2,1,,,,,,,,,,,,,,,,,,,,,,,,,,,,,,,,,,,,,,,,,,,,,,,,,,,,,,,,,,,,,,,,,,,,,,,,,,,,,,,,,,,,,,,,,,,,,,,,,,,,,,,,
,,PLENTY,5.61531,1,,,,,,stimuli/images/PICTURE_339.png,PLENTY,5975a8bcfccf1700017b3b76,15/12/1951,2020-09-10_13h03.03.746,proactive3.1,2020.1.2,Win32,60,5f599a131af4471f3d752b7b,5f5a15e913f9ca0583eeb53c,1,,,,,,backpack,,,,,,,,,,,1,0,0,42,42,0,1,,,,,,,,,,,,,,,,,,,,,,,,,,,,,,,,,,,,,,,,,,,,,,,,,,,,,,,,,,,,,,,,,,,,,,,,,,,,,,,,,,,,,,,,,,,,,,,,,,,,,,,,
,,?,0.001535,0,,,,,,stimuli/images/PICTURE_744.png,SYSTEM,5975a8bcfccf1700017b3b76,15/12/1951,2020-09-10_13h03.03.746,proactive3.1,2020.1.2,Win32,60,5f599a131af4471f3d752b7b,5f5a15e913f9ca0583eeb53c,1,,,,,,ring,,,,,,,,,,,5,0,0,43,43,43,1,,,,,,,,,,,,,,,,,,,,,,,,,,,,,,,,,,,,,,,,,,,,,,,,,,,,,,,,,,,,,,,,,,,,,,,,,,,,,,,,,,,,,,,,,,,,,,,,,,,,,,,,
,,?,0.0013,0,,,,,,stimuli/images/PICTURE_488.png,STYLE,5975a8bcfccf1700017b3b76,15/12/1951,2020-09-10_13h03.03.746,proactive3.1,2020.1.2,Win32,60,5f599a131af4471f3d752b7b,5f5a15e913f9ca0583eeb53c,1,,,,,,sun,,,,,,,,,,,4,0,0,44,44,33,1,,,,,,,,,,,,,,,,,,,,,,,,,,,,,,,,,,,,,,,,,,,,,,,,,,,,,,,,,,,,,,,,,,,,,,,,,,,,,,,,,,,,,,,,,,,,,,,,,,,,,,,,
,,BODY,4.091535,1,,,,,,stimuli/images/PICTURE_504.png,BODY,5975a8bcfccf1700017b3b76,15/12/1951,2020-09-10_13h03.03.746,proactive3.1,2020.1.2,Win32,60,5f599a131af4471f3d752b7b,5f5a15e913f9ca0583eeb53c,1,,,,,,wheel,,,,,,,,,,,1,0,0,45,45,8,1,,,,,,,,,,,,,,,,,,,,,,,,,,,,,,,,,,,,,,,,,,,,,,,,,,,,,,,,,,,,,,,,,,,,,,,,,,,,,,,,,,,,,,,,,,,,,,,,,,,,,,,,
,,?,0.001525,0,,,,,,stimuli/images/PICTURE_123.png,ADVICE,5975a8bcfccf1700017b3b76,15/12/1951,2020-09-10_13h03.03.746,proactive3.1,2020.1.2,Win32,60,5f599a131af4471f3d752b7b,5f5a15e913f9ca0583eeb53c,1,,,,,,dart,,,,,,,,,,,6,0,0,46,46,50,1,,,,,,,,,,,,,,,,,,,,,,,,,,,,,,,,,,,,,,,,,,,,,,,,,,,,,,,,,,,,,,,,,,,,,,,,,,,,,,,,,,,,,,,,,,,,,,,,,,,,,,,,
,,?,0.000375,0,,,,,,stimuli/images/PICTURE_708.png,PENNY,5975a8bcfccf1700017b3b76,15/12/1951,2020-09-10_13h03.03.746,proactive3.1,2020.1.2,Win32,60,5f599a131af4471f3d752b7b,5f5a15e913f9ca0583eeb53c,1,,,,,,monkey,,,,,,,,,,,4,0,0,47,47,31,1,,,,,,,,,,,,,,,,,,,,,,,,,,,,,,,,,,,,,,,,,,,,,,,,,,,,,,,,,,,,,,,,,,,,,,,,,,,,,,,,,,,,,,,,,,,,,,,,,,,,,,,,
,,?,0.00026,0,,,,,,stimuli/images/PICTURE_208.png,LOTS,5975a8bcfccf1700017b3b76,15/12/1951,2020-09-10_13h03.03.746,proactive3.1,2020.1.2,Win32,60,5f599a131af4471f3d752b7b,5f5a15e913f9ca0583eeb53c,1,,,,,,microphone,,,,,,,,,,,2,0,0,48,48,10,1,,,,,,,,,,,,,,,,,,,,,,,,,,,,,,,,,,,,,,,,,,,,,,,,,,,,,,,,,,,,,,,,,,,,,,,,,,,,,,,,,,,,,,,,,,,,,,,,,,,,,,,,
,,?,0.00029,0,,,,,,stimuli/images/PICTURE_233.png,IDEAS,5975a8bcfccf1700017b3b76,15/12/1951,2020-09-10_13h03.03.746,proactive3.1,2020.1.2,Win32,60,5f599a131af4471f3d752b7b,5f5a15e913f9ca0583eeb53c,1,,,,,,salt,,,,,,,,,,,3,0,0,49,49,28,1,,,,,,,,,,,,,,,,,,,,,,,,,,,,,,,,,,,,,,,,,,,,,,,,,,,,,,,,,,,,,,,,,,,,,,,,,,,,,,,,,,,,,,,,,,,,,,,,,,,,,,,,
,,?,0.000275,0,,,,,,stimuli/images/PICTURE_491.png,WRITER,5975a8bcfccf1700017b3b76,15/12/1951,2020-09-10_13h03.03.746,proactive3.1,2020.1.2,Win32,60,5f599a131af4471f3d752b7b,5f5a15e913f9ca0583eeb53c,1,,,,,,rug,,,,,,,,,,,6,0,0,50,50,57,1,,,,,,,,,,,,,,,,,,,,,,,,,,,,,,,,,,,,,,,,,,,,,,,,,,,,,,,,,,,,,,,,,,,,,,,,,,,,,,,,,,,,,,,,,,,,,,,,,,,,,,,,
,,?,0.00028,0,,,,,,stimuli/images/PICTURE_380.png,DEATH,5975a8bcfccf1700017b3b76,15/12/1951,2020-09-10_13h03.03.746,proactive3.1,2020.1.2,Win32,60,5f599a131af4471f3d752b7b,5f5a15e913f9ca0583eeb53c,1,,,,,,gorilla,,,,,,,,,,,5,0,0,51,51,49,1,,,,,,,,,,,,,,,,,,,,,,,,,,,,,,,,,,,,,,,,,,,,,,,,,,,,,,,,,,,,,,,,,,,,,,,,,,,,,,,,,,,,,,,,,,,,,,,,,,,,,,,,
,,?,0.00026,0,,,,,,stimuli/images/PICTURE_688.png,WOMEN,5975a8bcfccf1700017b3b76,15/12/1951,2020-09-10_13h03.03.746,proactive3.1,2020.1.2,Win32,60,5f599a131af4471f3d752b7b,5f5a15e913f9ca0583eeb53c,1,,,,,,runner,,,,,,,,,,,2,0,0,52,52,14,1,,,,,,,,,,,,,,,,,,,,,,,,,,,,,,,,,,,,,,,,,,,,,,,,,,,,,,,,,,,,,,,,,,,,,,,,,,,,,,,,,,,,,,,,,,,,,,,,,,,,,,,,
,,?,0.00026,0,,,,,,stimuli/images/PICTURE_327.png,BEAUTY,5975a8bcfccf1700017b3b76,15/12/1951,2020-09-10_13h03.03.746,proactive3.1,2020.1.2,Win32,60,5f599a131af4471f3d752b7b,5f5a15e913f9ca0583eeb53c,1,,,,,,helmet,,,,,,,,,,,5,0,0,53,53,48,1,,,,,,,,,,,,,,,,,,,,,,,,,,,,,,,,,,,,,,,,,,,,,,,,,,,,,,,,,,,,,,,,,,,,,,,,,,,,,,,,,,,,,,,,,,,,,,,,,,,,,,,,
,,?,0.00026,0,,,,,,stimuli/images/PICTURE_208.png,MONTH,5975a8bcfccf1700017b3b76,15/12/1951,2020-09-10_13h03.03.746,proactive3.1,2020.1.2,Win32,60,5f599a131af4471f3d752b7b,5f5a15e913f9ca0583eeb53c,1,,,,,,microphone,,,,,,,,,,,6,0,0,54,54,53,1,,,,,,,,,,,,,,,,,,,,,,,,,,,,,,,,,,,,,,,,,,,,,,,,,,,,,,,,,,,,,,,,,,,,,,,,,,,,,,,,,,,,,,,,,,,,,,,,,,,,,,,,
,,?,0.00035,0,,,,,,stimuli/images/PICTURE_675.png,WEAPON,5975a8bcfccf1700017b3b76,15/12/1951,2020-09-10_13h03.03.746,proactive3.1,2020.1.2,Win32,60,5f599a131af4471f3d752b7b,5f5a15e913f9ca0583eeb53c,1,,,,,,windmill,,,,,,,,,,,4,0,0,55,55,32,1,,,,,,,,,,,,,,,,,,,,,,,,,,,,,,,,,,,,,,,,,,,,,,,,,,,,,,,,,,,,,,,,,,,,,,,,,,,,,,,,,,,,,,,,,,,,,,,,,,,,,,,,
,,?,0.000255,0,,,,,,stimuli/images/PICTURE_177.png,CARS,5975a8bcfccf1700017b3b76,15/12/1951,2020-09-10_13h03.03.746,proactive3.1,2020.1.2,Win32,60,5f599a131af4471f3d752b7b,5f5a15e913f9ca0583eeb53c,1,,,,,,mushroom,,,,,,,,,,,4,0,0,56,56,35,1,,,,,,,,,,,,,,,,,,,,,,,,,,,,,,,,,,,,,,,,,,,,,,,,,,,,,,,,,,,,,,,,,,,,,,,,,,,,,,,,,,,,,,,,,,,,,,,,,,,,,,,,
,,?,0.00025,0,,,,,,stimuli/images/PICTURE_285.png,ADVICE,5975a8bcfccf1700017b3b76,15/12/1951,2020-09-10_13h03.03.746,proactive3.1,2020.1.2,Win32,60,5f599a131af4471f3d752b7b,5f5a15e913f9ca0583eeb53c,1,,,,,,carrot,,,,,,,,,,,2,0,0,57,57,12,1,,,,,,,,,,,,,,,,,,,,,,,,,,,,,,,,,,,,,,,,,,,,,,,,,,,,,,,,,,,,,,,,,,,,,,,,,,,,,,,,,,,,,,,,,,,,,,,,,,,,,,,,
,,?,0.00027,0,,,,,,stimuli/images/PICTURE_308.png,KIND,5975a8bcfccf1700017b3b76,15/12/1951,2020-09-10_13h03.03.746,proactive3.1,2020.1.2,Win32,60,5f599a131af4471f3d752b7b,5f5a15e913f9ca0583eeb53c,1,,,,,,dice,,,,,,,,,,,6,0,0,58,58,54,1,,,,,,,,,,,,,,,,,,,,,,,,,,,,,,,,,,,,,,,,,,,,,,,,,,,,,,,,,,,,,,,,,,,,,,,,,,,,,,,,,,,,,,,,,,,,,,,,,,,,,,,,
,,?,0.000255,0,,,,,,stimuli/images/PICTURE_491.png,ROOF,5975a8bcfccf1700017b3b76,15/12/1951,2020-09-10_13h03.03.746,proactive3.1,2020.1.2,Win32,60,5f599a131af4471f3d752b7b,5f5a15e913f9ca0583eeb53c,1,,,,,,rug,,,,,,,,,,,3,0,0,59,59,24,1,,,,,,,,,,,,,,,,,,,,,,,,,,,,,,,,,,,,,,,,,,,,,,,,,,,,,,,,,,,,,,,,,,,,,,,,,,,,,,,,,,,,,,,,,,,,,,,,,,,,,,,,
,,,,,,,,,,,,5975a8bcfccf1700017b3b76,15/12/1951,2020-09-10_13h03.03.746,proactive3.1,2020.1.2,Win32,60,5f599a131af4471f3d752b7b,5f5a15e913f9ca0583eeb53c,1,,,,,,,,,,,,,,,,,,,,,,,,0,1,1,0,1,stimuli/learn-block1.csv,,,,,,,,,,,,,,,,,,,,,,,,,,,,,,,,,,,,,,,,,,,,,,,,,,,,,,,,,,,,,,,,,,,,,,,,,,,,,,,,,,,,,,,,,,,,,,,,,,
,,,,,,,,,,stimuli/images/PICTURE_688.png,CLOCK,5975a8bcfccf1700017b3b76,15/12/1951,2020-09-10_13h03.03.746,proactive3.1,2020.1.2,Win32,60,5f599a131af4471f3d752b7b,5f5a15e913f9ca0583eeb53c,1,,,,,,runner,,,,,,0,0,0,42,1,5,2,,,,,,,,,,,,,,,,,,,,,,,,,,,,,,,,,,,,,,,,,,,,,,,,,,,,,,,,,,,,,,,,,,,,,,,,,,,,,,,,,,,,,,,,,,,,,,,,,,,,,,,,,,,,,
,,,,,,,,,,stimuli/images/PICTURE_654.png,YEAR,5975a8bcfccf1700017b3b76,15/12/1951,2020-09-10_13h03.03.746,proactive3.1,2020.1.2,Win32,60,5f599a131af4471f3d752b7b,5f5a15e913f9ca0583eeb53c,1,,,,,,pencil,,,,,,0,1,1,41,1,5,2,,,,,,,,,,,,,,,,,,,,,,,,,,,,,,,,,,,,,,,,,,,,,,,,,,,,,,,,,,,,,,,,,,,,,,,,,,,,,,,,,,,,,,,,,,,,,,,,,,,,,,,,,,,,,
,,,,,,,,,,stimuli/images/PICTURE_177.png,HOUSE,5975a8bcfccf1700017b3b76,15/12/1951,2020-09-10_13h03.03.746,proactive3.1,2020.1.2,Win32,60,5f599a131af4471f3d752b7b,5f5a15e913f9ca0583eeb53c,1,,,,,,mushroom,,,,,,0,2,2,25,1,3,2,,,,,,,,,,,,,,,,,,,,,,,,,,,,,,,,,,,,,,,,,,,,,,,,,,,,,,,,,,,,,,,,,,,,,,,,,,,,,,,,,,,,,,,,,,,,,,,,,,,,,,,,,,,,,
,,,,,,,,,,stimuli/images/PICTURE_297.png,BODY,5975a8bcfccf1700017b3b76,15/12/1951,2020-09-10_13h03.03.746,proactive3.1,2020.1.2,Win32,60,5f599a131af4471f3d752b7b,5f5a15e913f9ca0583eeb53c,1,,,,,,aeroplane,,,,,,0,3,3,51,1,6,2,,,,,,,,,,,,,,,,,,,,,,,,,,,,,,,,,,,,,,,,,,,,,,,,,,,,,,,,,,,,,,,,,,,,,,,,,,,,,,,,,,,,,,,,,,,,,,,,,,,,,,,,,,,,,
,,,,,,,,,,stimuli/images/PICTURE_453.png,FAMILY,5975a8bcfccf1700017b3b76,15/12/1951,2020-09-10_13h03.03.746,proactive3.1,2020.1.2,Win32,60,5f599a131af4471f3d752b7b,5f5a15e913f9ca0583eeb53c,1,,,,,,scissors,,,,,,0,4,4,48,1,5,2,,,,,,,,,,,,,,,,,,,,,,,,,,,,,,,,,,,,,,,,,,,,,,,,,,,,,,,,,,,,,,,,,,,,,,,,,,,,,,,,,,,,,,,,,,,,,,,,,,,,,,,,,,,,,
,,,,,,,,,,stimuli/images/PICTURE_208.png,SPIRIT,5975a8bcfccf1700017b3b76,15/12/1951,2020-09-10_13h03.03.746,proactive3.1,2020.1.2,Win32,60,5f599a131af4471f3d752b7b,5f5a15e913f9ca0583eeb53c,1,,,,,,microphone,,,,,,0,5,5,28,1,3,2,,,,,,,,,,,,,,,,,,,,,,,,,,,,,,,,,,,,,,,,,,,,,,,,,,,,,,,,,,,,,,,,,,,,,,,,,,,,,,,,,,,,,,,,,,,,,,,,,,,,,,,,,,,,,
,,,,,,,,,,stimuli/images/PICTURE_708.png,VALLEY,5975a8bcfccf1700017b3b76,15/12/1951,2020-09-10_13h03.03.746,proactive3.1,2020.1.2,Win32,60,5f599a131af4471f3d752b7b,5f5a15e913f9ca0583eeb53c,1,,,,,,monkey,,,,,,0,6,6,45,1,5,2,,,,,,,,,,,,,,,,,,,,,,,,,,,,,,,,,,,,,,,,,,,,,,,,,,,,,,,,,,,,,,,,,,,,,,,,,,,,,,,,,,,,,,,,,,,,,,,,,,,,,,,,,,,,,
,,,,,,,,,,stimuli/images/PICTURE_487.png,POLICY,5975a8bcfccf1700017b3b76,15/12/1951,2020-09-10_13h03.03.746,proactive3.1,2020.1.2,Win32,60,5f599a131af4471f3d752b7b,5f5a15e913f9ca0583eeb53c,1,,,,,,basket,,,,,,0,7,7,34,1,4,2,,,,,,,,,,,,,,,,,,,,,,,,,,,,,,,,,,,,,,,,,,,,,,,,,,,,,,,,,,,,,,,,,,,,,,,,,,,,,,,,,,,,,,,,,,,,,,,,,,,,,,,,,,,,,
,,,,,,,,,,stimuli/images/PICTURE_57.png,CANDY,5975a8bcfccf1700017b3b76,15/12/1951,2020-09-10_13h03.03.746,proactive3.1,2020.1.2,Win32,60,5f599a131af4471f3d752b7b,5f5a15e913f9ca0583eeb53c,1,,,,,,stamp,,,,,,0,8,8,52,1,6,2,,,,,,,,,,,,,,,,,,,,,,,,,,,,,,,,,,,,,,,,,,,,,,,,,,,,,,,,,,,,,,,,,,,,,,,,,,,,,,,,,,,,,,,,,,,,,,,,,,,,,,,,,,,,,
,,,,,,,,,,stimuli/images/PICTURE_147.png,LEADER,5975a8bcfccf1700017b3b76,15/12/1951,2020-09-10_13h03.03.746,proactive3.1,2020.1.2,Win32,60,5f599a131af4471f3d752b7b,5f5a15e913f9ca0583eeb53c,1,,,,,,hanger,,,,,,0,9,9,33,1,4,2,,,,,,,,,,,,,,,,,,,,,,,,,,,,,,,,,,,,,,,,,,,,,,,,,,,,,,,,,,,,,,,,,,,,,,,,,,,,,,,,,,,,,,,,,,,,,,,,,,,,,,,,,,,,,
,,,,,,,,,,stimuli/images/PICTURE_403.png,FAMILY,5975a8bcfccf1700017b3b76,15/12/1951,2020-09-10_13h03.03.746,proactive3.1,2020.1.2,Win32,60,5f599a131af4471f3d752b7b,5f5a15e913f9ca0583eeb53c,1,,,,,,cathedral,,,,,,0,10,10,9,1,1,2,,,,,,,,,,,,,,,,,,,,,,,,,,,,,,,,,,,,,,,,,,,,,,,,,,,,,,,,,,,,,,,,,,,,,,,,,,,,,,,,,,,,,,,,,,,,,,,,,,,,,,,,,,,,,
,,,,,,,,,,stimuli/images/PICTURE_311.png,FLESH,5975a8bcfccf1700017b3b76,15/12/1951,2020-09-10_13h03.03.746,proactive3.1,2020.1.2,Win32,60,5f599a131af4471f3d752b7b,5f5a15e913f9ca0583eeb53c,1,,,,,,razor,,,,,,0,11,11,3,1,1,2,,,,,,,,,,,,,,,,,,,,,,,,,,,,,,,,,,,,,,,,,,,,,,,,,,,,,,,,,,,,,,,,,,,,,,,,,,,,,,,,,,,,,,,,,,,,,,,,,,,,,,,,,,,,,
,,,,,,,,,,stimuli/images/PICTURE_255.png,PENNY,5975a8bcfccf1700017b3b76,15/12/1951,2020-09-10_13h03.03.746,proactive3.1,2020.1.2,Win32,60,5f599a131af4471f3d752b7b,5f5a15e913f9ca0583eeb53c,1,,,,,,shovel,,,,,,0,12,12,19,1,2,2,,,,,,,,,,,,,,,,,,,,,,,,,,,,,,,,,,,,,,,,,,,,,,,,,,,,,,,,,,,,,,,,,,,,,,,,,,,,,,,,,,,,,,,,,,,,,,,,,,,,,,,,,,,,,
,,,,,,,,,,stimuli/images/PICTURE_57.png,NATION,5975a8bcfccf1700017b3b76,15/12/1951,2020-09-10_13h03.03.746,proactive3.1,2020.1.2,Win32,60,5f599a131af4471f3d752b7b,5f5a15e913f9ca0583eeb53c,1,,,,,,stamp,,,,,,0,13,13,21,1,3,2,,,,,,,,,,,,,,,,,,,,,,,,,,,,,,,,,,,,,,,,,,,,,,,,,,,,,,,,,,,,,,,,,,,,,,,,,,,,,,,,,,,,,,,,,,,,,,,,,,,,,,,,,,,,,
,,,,,,,,,,stimuli/images/PICTURE_311.png,TOILET,5975a8bcfccf1700017b3b76,15/12/1951,2020-09-10_13h03.03.746,proactive3.1,2020.1.2,Win32,60,5f599a131af4471f3d752b7b,5f5a15e913f9ca0583eeb53c,1,,,,,,razor,,,,,,0,14,14,54,1,6,2,,,,,,,,,,,,,,,,,,,,,,,,,,,,,,,,,,,,,,,,,,,,,,,,,,,,,,,,,,,,,,,,,,,,,,,,,,,,,,,,,,,,,,,,,,,,,,,,,,,,,,,,,,,,,
,,,,,,,,,,stimuli/images/PICTURE_68.png,KIND,5975a8bcfccf1700017b3b76,15/12/1951,2020-09-10_13h03.03.746,proactive3.1,2020.1.2,Win32,60,5f599a131af4471f3d752b7b,5f5a15e913f9ca0583eeb53c,1,,,,,,candle,,,,,,0,15,15,23,1,3,2,,,,,,,,,,,,,,,,,,,,,,,,,,,,,,,,,,,,,,,,,,,,,,,,,,,,,,,,,,,,,,,,,,,,,,,,,,,,,,,,,,,,,,,,,,,,,,,,,,,,,,,,,,,,,
,,,,,,,,,,stimuli/images/PICTURE_123.png,SALE,5975a8bcfccf1700017b3b76,15/12/1951,2020-09-10_13h03.03.746,proactive3.1,2020.1.2,Win32,60,5f599a131af4471f3d752b7b,5f5a15e913f9ca0583eeb53c,1,,,,,,dart,,,,,,0,16,16,8,1,1,2,,,,,,,,,,,,,,,,,,,,,,,,,,,,,,,,,,,,,,,,,,,,,,,,,,,,,,,,,,,,,,,,,,,,,,,,,,,,,,,,,,,,,,,,,,,,,,,,,,,,,,,,,,,,,
,,,,,,,,,,stimuli/images/PICTURE_452.png,COPS,5975a8bcfccf1700017b3b76,15/12/1951,2020-09-10_13h03.03.746,proactive3.1,2020.1.2,Win32,60,5f599a131af4471f3d752b7b,5f5a15e913f9ca0583eeb53c,1,,,,,,watch,,,,,,0,17,17,0,1,1,2,,,,,,,,,,,,,,,,,,,,,,,,,,,,,,,,,,,,,,,,,,,,,,,,,,,,,,,,,,,,,,,,,,,,,,,,,,,,,,,,,,,,,,,,,,,,,,,,,,,,,,,,,,,,,
,,,,,,,,,,stimuli/images/PICTURE_692.png,DUDE,5975a8bcfccf1700017b3b76,15/12/1951,2020-09-10_13h03.03.746,proactive3.1,2020.1.2,Win32,60,5f599a131af4471f3d752b7b,5f5a15e913f9ca0583eeb53c,1,,,,,,cherry,,,,,,0,18,18,47,1,5,2,,,,,,,,,,,,,,,,,,,,,,,,,,,,,,,,,,,,,,,,,,,,,,,,,,,,,,,,,,,,,,,,,,,,,,,,,,,,,,,,,,,,,,,,,,,,,,,,,,,,,,,,,,,,,
,,,,,,,,,,stimuli/images/PICTURE_57.png,CASINO,5975a8bcfccf1700017b3b76,15/12/1951,2020-09-10_13h03.03.746,proactive3.1,2020.1.2,Win32,60,5f599a131af4471f3d752b7b,5f5a15e913f9ca0583eeb53c,1,,,,,,stamp,,,,,,0,19,19,12,1,2,2,,,,,,,,,,,,,,,,,,,,,,,,,,,,,,,,,,,,,,,,,,,,,,,,,,,,,,,,,,,,,,,,,,,,,,,,,,,,,,,,,,,,,,,,,,,,,,,,,,,,,,,,,,,,,
,,,,,,,,,,stimuli/images/PICTURE_314.png,SPEECH,5975a8bcfccf1700017b3b76,15/12/1951,2020-09-10_13h03.03.746,proactive3.1,2020.1.2,Win32,60,5f599a131af4471f3d752b7b,5f5a15e913f9ca0583eeb53c,1,,,,,,perfume,,,,,,0,20,20,35,1,4,2,,,,,,,,,,,,,,,,,,,,,,,,,,,,,,,,,,,,,,,,,,,,,,,,,,,,,,,,,,,,,,,,,,,,,,,,,,,,,,,,,,,,,,,,,,,,,,,,,,,,,,,,,,,,,
,,,,,,,,,,stimuli/images/PICTURE_33.png,COPS,5975a8bcfccf1700017b3b76,15/12/1951,2020-09-10_13h03.03.746,proactive3.1,2020.1.2,Win32,60,5f599a131af4471f3d752b7b,5f5a15e913f9ca0583eeb53c,1,,,,,,frame,,,,,,0,21,21,29,1,3,2,,,,,,,,,,,,,,,,,,,,,,,,,,,,,,,,,,,,,,,,,,,,,,,,,,,,,,,,,,,,,,,,,,,,,,,,,,,,,,,,,,,,,,,,,,,,,,,,,,,,,,,,,,,,,
,,,,,,,,,,stimuli/images/PICTURE_348.png,DUDE,5975a8bcfccf1700017b3b76,15/12/1951,2020-09-10_13h03.03.746,proactive3.1,2020.1.2,Win32,60,5f599a131af4471f3d752b7b,5f5a15e913f9ca0583eeb53c,1,,,,,,pepper,,,,,,0,22,22,59,1,6,2,,,,,,,,,,,,,,,,,,,,,,,,,,,,,,,,,,,,,,,,,,,,,,,,,,,,,,,,,,,,,,,,,,,,,,,,,,,,,,,,,,,,,,,,,,,,,,,,,,,,,,,,,,,,,
,,,,,,,,,,stimuli/images/PICTURE_141.png,CLIENT,5975a8bcfccf1700017b3b76,15/12/1951,2020-09-10_13h03.03.746,proactive3.1,2020.1.2,Win32,60,5f599a131af4471f3d752b7b,5f5a15e913f9ca0583eeb53c,1,,,,,,sunflower,,,,,,0,23,23,30,1,4,2,,,,,,,,,,,,,,,,,,,,,,,,,,,,,,,,,,,,,,,,,,,,,,,,,,,,,,,,,,,,,,,,,,,,,,,,,,,,,,,,,,,,,,,,,,,,,,,,,,,,,,,,,,,,,
,,,,,,,,,,stimuli/images/PICTURE_677.png,FAMILY,5975a8bcfccf1700017b3b76,15/12/1951,2020-09-10_13h03.03.746,proactive3.1,2020.1.2,Win32,60,5f599a131af4471f3d752b7b,5f5a15e913f9ca0583eeb53c,1,,,,,,map,,,,,,0,24,24,53,1,6,2,,,,,,,,,,,,,,,,,,,,,,,,,,,,,,,,,,,,,,,,,,,,,,,,,,,,,,,,,,,,,,,,,,,,,,,,,,,,,,,,,,,,,,,,,,,,,,,,,,,,,,,,,,,,,
,,,,,,,,,,stimuli/images/PICTURE_509.png,APPLE,5975a8bcfccf1700017b3b76,15/12/1951,2020-09-10_13h03.03.746,proactive3.1,2020.1.2,Win32,60,5f599a131af4471f3d752b7b,5f5a15e913f9ca0583eeb53c,1,,,,,,telephone,,,,,,0,25,25,38,1,4,2,,,,,,,,,,,,,,,,,,,,,,,,,,,,,,,,,,,,,,,,,,,,,,,,,,,,,,,,,,,,,,,,,,,,,,,,,,,,,,,,,,,,,,,,,,,,,,,,,,,,,,,,,,,,,
,,,,,,,,,,stimuli/images/PICTURE_667.png,GLASS,5975a8bcfccf1700017b3b76,15/12/1951,2020-09-10_13h03.03.746,proactive3.1,2020.1.2,Win32,60,5f599a131af4471f3d752b7b,5f5a15e913f9ca0583eeb53c,1,,,,,,daisy,,,,,,0,26,26,27,1,3,2,,,,,,,,,,,,,,,,,,,,,,,,,,,,,,,,,,,,,,,,,,,,,,,,,,,,,,,,,,,,,,,,,,,,,,,,,,,,,,,,,,,,,,,,,,,,,,,,,,,,,,,,,,,,,
,,,,,,,,,,stimuli/images/PICTURE_215.png,BOYS,5975a8bcfccf1700017b3b76,15/12/1951,2020-09-10_13h03.03.746,proactive3.1,2020.1.2,Win32,60,5f599a131af4471f3d752b7b,5f5a15e913f9ca0583eeb53c,1,,,,,,boot,,,,,,0,27,27,24,1,3,2,,,,,,,,,,,,,,,,,,,,,,,,,,,,,,,,,,,,,,,,,,,,,,,,,,,,,,,,,,,,,,,,,,,,,,,,,,,,,,,,,,,,,,,,,,,,,,,,,,,,,,,,,,,,,
,,,,,,,,,,stimuli/images/PICTURE_95.png,NIGHT,5975a8bcfccf1700017b3b76,15/12/1951,2020-09-10_13h03.03.746,proactive3.1,2020.1.2,Win32,60,5f599a131af4471f3d752b7b,5f5a15e913f9ca0583eeb53c,1,,,,,,suitcase,,,,,,0,28,28,37,1,4,2,,,,,,,,,,,,,,,,,,,,,,,,,,,,,,,,,,,,,,,,,,,,,,,,,,,,,,,,,,,,,,,,,,,,,,,,,,,,,,,,,,,,,,,,,,,,,,,,,,,,,,,,,,,,,
,,,,,,,,,,stimuli/images/PICTURE_509.png,BATH,5975a8bcfccf1700017b3b76,15/12/1951,2020-09-10_13h03.03.746,proactive3.1,2020.1.2,Win32,60,5f599a131af4471f3d752b7b,5f5a15e913f9ca0583eeb53c,1,,,,,,telephone,,,,,,0,29,29,15,1,2,2,,,,,,,,,,,,,,,,,,,,,,,,,,,,,,,,,,,,,,,,,,,,,,,,,,,,,,,,,,,,,,,,,,,,,,,,,,,,,,,,,,,,,,,,,,,,,,,,,,,,,,,,,,,,,
,,,,,,,,,,stimuli/images/PICTURE_677.png,PHOTO,5975a8bcfccf1700017b3b76,15/12/1951,2020-09-10_13h03.03.746,proactive3.1,2020.1.2,Win32,60,5f599a131af4471f3d752b7b,5f5a15e913f9ca0583eeb53c,1,,,,,,map,,,,,,0,30,30,14,1,2,2,,,,,,,,,,,,,,,,,,,,,,,,,,,,,,,,,,,,,,,,,,,,,,,,,,,,,,,,,,,,,,,,,,,,,,,,,,,,,,,,,,,,,,,,,,,,,,,,,,,,,,,,,,,,,
,,,,,,,,,,stimuli/images/PICTURE_215.png,LEADER,5975a8bcfccf1700017b3b76,15/12/1951,2020-09-10_13h03.03.746,proactive3.1,2020.1.2,Win32,60,5f599a131af4471f3d752b7b,5f5a15e913f9ca0583eeb53c,1,,,,,,boot,,,,,,0,31,31,43,1,5,2,,,,,,,,,,,,,,,,,,,,,,,,,,,,,,,,,,,,,,,,,,,,,,,,,,,,,,,,,,,,,,,,,,,,,,,,,,,,,,,,,,,,,,,,,,,,,,,,,,,,,,,,,,,,,
,,,,,,,,,,stimuli/images/PICTURE_491.png,SERIES,5975a8bcfccf1700017b3b76,15/12/1951,2020-09-10_13h03.03.746,proactive3.1,2020.1.2,Win32,60,5f599a131af4471f3d752b7b,5f5a15e913f9ca0583eeb53c,1,,,,,,rug,,,,,,0,32,32,39,1,4,2,,,,,,,,,,,,,,,,,,,,,,,,,,,,,,,,,,,,,,,,,,,,,,,,,,,,,,,,,,,,,,,,,,,,,,,,,,,,,,,,,,,,,,,,,,,,,,,,,,,,,,,,,,,,,
,,,,,,,,,,stimuli/images/PICTURE_509.png,SHOTS,5975a8bcfccf1700017b3b76,15/12/1951,2020-09-10_13h03.03.746,proactive3.1,2020.1.2,Win32,60,5f599a131af4471f3d752b7b,5f5a15e913f9ca0583eeb53c,1,,,,,,telephone,,,,,,0,33,33,7,1,1,2,,,,,,,,,,,,,,,,,,,,,,,,,,,,,,,,,,,,,,,,,,,,,,,,,,,,,,,,,,,,,,,,,,,,,,,,,,,,,,,,,,,,,,,,,,,,,,,,,,,,,,,,,,,,,
,,,,,,,,,,stimuli/images/PICTURE_93.png,GIRL,5975a8bcfccf1700017b3b76,15/12/1951,2020-09-10_13h03.03.746,proactive3.1,2020.1.2,Win32,60,5f599a131af4471f3d752b7b,5f5a15e913f9ca0583eeb53c,1,,,,,,skateboard,,,,,,0,34,34,31,1,4,2,,,,,,,,,,,,,,,,,,,,,,,,,,,,,,,,,,,,,,,,,,,,,,,,,,,,,,,,,,,,,,,,,,,,,,,,,,,,,,,,,,,,,,,,,,,,,,,,,,,,,,,,,,,,,
,,,,,,,,,,stimuli/images/PICTURE_487.png,ROOF,5975a8bcfccf1700017b3b76,15/12/1951,2020-09-10_13h03.03.746,proactive3.1,2020.1.2,Win32,60,5f599a131af4471f3d752b7b,5f5a15e913f9ca0583eeb53c,1,,,,,,basket,,,,,,0,35,35,50,1,6,2,,,,,,,,,,,,,,,,,,,,,,,,,,,,,,,,,,,,,,,,,,,,,,,,,,,,,,,,,,,,,,,,,,,,,,,,,,,,,,,,,,,,,,,,,,,,,,,,,,,,,,,,,,,,,
,,,,,,,,,,stimuli/images/PICTURE_750.png,POLICY,5975a8bcfccf1700017b3b76,15/12/1951,2020-09-10_13h03.03.746,proactive3.1,2020.1.2,Win32,60,5f599a131af4471f3d752b7b,5f5a15e913f9ca0583eeb53c,1,,,,,,kettle,,,,,,0,36,36,44,1,5,2,,,,,,,,,,,,,,,,,,,,,,,,,,,,,,,,,,,,,,,,,,,,,,,,,,,,,,,,,,,,,,,,,,,,,,,,,,,,,,,,,,,,,,,,,,,,,,,,,,,,,,,,,,,,,
,,,,,,,,,,stimuli/images/PICTURE_32.png,LETTER,5975a8bcfccf1700017b3b76,15/12/1951,2020-09-10_13h03.03.746,proactive3.1,2020.1.2,Win32,60,5f599a131af4471f3d752b7b,5f5a15e913f9ca0583eeb53c,1,,,,,,crown,,,,,,0,37,37,56,1,6,2,,,,,,,,,,,,,,,,,,,,,,,,,,,,,,,,,,,,,,,,,,,,,,,,,,,,,,,,,,,,,,,,,,,,,,,,,,,,,,,,,,,,,,,,,,,,,,,,,,,,,,,,,,,,,
,,,,,,,,,,stimuli/images/PICTURE_285.png,WRITER,5975a8bcfccf1700017b3b76,15/12/1951,2020-09-10_13h03.03.746,proactive3.1,2020.1.2,Win32,60,5f599a131af4471f3d752b7b,5f5a15e913f9ca0583eeb53c,1,,,,,,carrot,,,,,,0,38,38,6,1,1,2,,,,,,,,,,,,,,,,,,,,,,,,,,,,,,,,,,,,,,,,,,,,,,,,,,,,,,,,,,,,,,,,,,,,,,,,,,,,,,,,,,,,,,,,,,,,,,,,,,,,,,,,,,,,,
