consent_key.keys,consent_key.rt,recalled,recalled_rt,recall_acc,example_recall.thisRepN,example_recall.thisTrialN,example_recall.thisN,example_recall.thisIndex,example_recall.ran,file,word,participant,please enter your date of birth (dd/mm/yyyy),date,expName,psychopyVersion,OS,frameRate,STUDY_ID,SESSION_ID,list,prac_learn_study_loop.thisRepN,prac_learn_study_loop.thisTrialN,prac_learn_study_loop.thisN,prac_learn_study_loop.thisIndex,prac_learn_study_loop.ran,image,prac_learn_test_loop.thisRepN,prac_learn_test_loop.thisTrialN,prac_learn_test_loop.thisN,prac_learn_test_loop.thisIndex,prac_learn_test_loop.ran,learn_study_loop.thisRepN,learn_study_loop.thisTrialN,learn_study_loop.thisN,learn_study_loop.thisIndex,learn_study_loop.ran,list_no,block_no,learn_test_loop.thisRepN,learn_test_loop.thisTrialN,learn_test_loop.thisN,learn_test_loop.thisIndex,learn_test_loop.ran,learn_blocks.thisRepN,learn_blocks.thisTrialN,learn_blocks.thisN,learn_blocks.thisIndex,learn_blocks.ran,block_csv,key_resp_13.keys,key_resp_13.rt,learn_blocks_loop.thisRepN,learn_blocks_loop.thisTrialN,learn_blocks_loop.thisN,learn_blocks_loop.thisIndex,learn_blocks_loop.ran,final_learn_test.thisRepN,final_learn_test.thisTrialN,final_learn_test.thisN,final_learn_test.thisIndex,final_learn_test.ran,s_im1,s_im2,s_im3,s_im4,s_im5,s_im6,s_im7,s_im8,s_im1pos,s_im2pos,s_im3pos,s_im4pos,s_im5pos,s_im6pos,s_im7pos,s_im8pos,s_tarright,search_resp.keys,search_loop.thisRepN,search_loop.thisTrialN,search_loop.thisN,search_loop.thisIndex,search_loop.ran,search_resp.rt,prac_wm_search_loop.thisRepN,prac_wm_search_loop.thisTrialN,prac_wm_search_loop.thisN,prac_wm_search_loop.thisIndex,prac_wm_search_loop.ran,prac_wm_test_loop.thisRepN,prac_wm_test_loop.thisTrialN,prac_wm_test_loop.thisN,prac_wm_test_loop.thisIndex,prac_wm_test_loop.ran,wm_recalled1,wm_recall_rt1,wm_probed1,wm_recall_acc1,wm_recalled2,wm_recall_rt2,wm_probed2,wm_recall_acc2,wm_recalled3,wm_recall_rt3,wm_probed3,wm_recall_acc3,wm_recalled4,wm_recall_rt4,wm_probed4,wm_recall_acc4,prac_wm_trial_loop.thisRepN,prac_wm_trial_loop.thisTrialN,prac_wm_trial_loop.thisN,prac_wm_trial_loop.thisIndex,prac_wm_trial_loop.ran,word1,image1,file1,item_type1,word2,image2,file2,item_type2,word4,image4,file4,item_type4,word3,image3,file3,item_type3,wm_search_loop.thisRepN,wm_search_loop.thisTrialN,wm_search_loop.thisN,wm_search_loop.thisIndex,wm_search_loop.ran,wm_test_loop.thisRepN,wm_test_loop.thisTrialN,wm_test_loop.thisN,wm_test_loop.thisIndex,wm_test_loop.ran,wm_trial_loop.thisRepN,wm_trial_loop.thisTrialN,wm_trial_loop.thisN,wm_trial_loop.thisIndex,wm_trial_loop.ran
y,31.399,TOUGH,6.376,1,0,0,0,0,1,stimuli/images/PICTURE_747.png,TOUGH,59860c81d75d360001b0bd95,28/09/1946,2020-09-10_14h10.47.175,proactive3.1,2020.1.2,MacIntel,60,5f599a131af4471f3d752b7b,5f5a25b8a6fc86080f09ce5c,3,,,,,,,,,,,,,,,,,,,,,,,,,,,,,,,,,,,,,,,,,,,,,,,,,,,,,,,,,,,,,,,,,,,,,,,,,,,,,,,,,,,,,,,,,,,,,,,,,,,,,,,,,,,,,,,,,,,,,,,,,,,,,,,
,,,,,,,,,,stimuli/images/PICTURE_697.png,KILLER,59860c81d75d360001b0bd95,28/09/1946,2020-09-10_14h10.47.175,proactive3.1,2020.1.2,MacIntel,60,5f599a131af4471f3d752b7b,5f5a25b8a6fc86080f09ce5c,3,0,0,0,4,1,peach,,,,,,,,,,,,,,,,,,,,,,,,,,,,,,,,,,,,,,,,,,,,,,,,,,,,,,,,,,,,,,,,,,,,,,,,,,,,,,,,,,,,,,,,,,,,,,,,,,,,,,,,,,,,,,,,,,,,,,,,,
,,,,,,,,,,stimuli/images/PICTURE_378.png,LOSS,59860c81d75d360001b0bd95,28/09/1946,2020-09-10_14h10.47.175,proactive3.1,2020.1.2,MacIntel,60,5f599a131af4471f3d752b7b,5f5a25b8a6fc86080f09ce5c,3,0,1,1,2,1,lobster,,,,,,,,,,,,,,,,,,,,,,,,,,,,,,,,,,,,,,,,,,,,,,,,,,,,,,,,,,,,,,,,,,,,,,,,,,,,,,,,,,,,,,,,,,,,,,,,,,,,,,,,,,,,,,,,,,,,,,,,,
,,,,,,,,,,stimuli/images/PICTURE_269.png,GENIUS,59860c81d75d360001b0bd95,28/09/1946,2020-09-10_14h10.47.175,proactive3.1,2020.1.2,MacIntel,60,5f599a131af4471f3d752b7b,5f5a25b8a6fc86080f09ce5c,3,0,2,2,0,1,chameleon,,,,,,,,,,,,,,,,,,,,,,,,,,,,,,,,,,,,,,,,,,,,,,,,,,,,,,,,,,,,,,,,,,,,,,,,,,,,,,,,,,,,,,,,,,,,,,,,,,,,,,,,,,,,,,,,,,,,,,,,,
,,,,,,,,,,stimuli/images/PICTURE_727.png,CELL,59860c81d75d360001b0bd95,28/09/1946,2020-09-10_14h10.47.175,proactive3.1,2020.1.2,MacIntel,60,5f599a131af4471f3d752b7b,5f5a25b8a6fc86080f09ce5c,3,0,3,3,1,1,hose,,,,,,,,,,,,,,,,,,,,,,,,,,,,,,,,,,,,,,,,,,,,,,,,,,,,,,,,,,,,,,,,,,,,,,,,,,,,,,,,,,,,,,,,,,,,,,,,,,,,,,,,,,,,,,,,,,,,,,,,,
,,KILLER,3.88,1,,,,,,stimuli/images/PICTURE_697.png,KILLER,59860c81d75d360001b0bd95,28/09/1946,2020-09-10_14h10.47.175,proactive3.1,2020.1.2,MacIntel,60,5f599a131af4471f3d752b7b,5f5a25b8a6fc86080f09ce5c,3,,,,,,peach,0,0,0,4,1,,,,,,,,,,,,,,,,,,,,,,,,,,,,,,,,,,,,,,,,,,,,,,,,,,,,,,,,,,,,,,,,,,,,,,,,,,,,,,,,,,,,,,,,,,,,,,,,,,,,,,,,,,,,,,,,,,,,
,,LOSS,5.869,1,,,,,,stimuli/images/PICTURE_378.png,LOSS,59860c81d75d360001b0bd95,28/09/1946,2020-09-10_14h10.47.175,proactive3.1,2020.1.2,MacIntel,60,5f599a131af4471f3d752b7b,5f5a25b8a6fc86080f09ce5c,3,,,,,,lobster,0,1,1,2,1,,,,,,,,,,,,,,,,,,,,,,,,,,,,,,,,,,,,,,,,,,,,,,,,,,,,,,,,,,,,,,,,,,,,,,,,,,,,,,,,,,,,,,,,,,,,,,,,,,,,,,,,,,,,,,,,,,,,
,,DEVIL,3.333,1,,,,,,stimuli/images/PICTURE_658.png,DEVIL,59860c81d75d360001b0bd95,28/09/1946,2020-09-10_14h10.47.175,proactive3.1,2020.1.2,MacIntel,60,5f599a131af4471f3d752b7b,5f5a25b8a6fc86080f09ce5c,3,,,,,,crow,0,2,2,3,1,,,,,,,,,,,,,,,,,,,,,,,,,,,,,,,,,,,,,,,,,,,,,,,,,,,,,,,,,,,,,,,,,,,,,,,,,,,,,,,,,,,,,,,,,,,,,,,,,,,,,,,,,,,,,,,,,,,,
,,?,8.818,0,,,,,,stimuli/images/PICTURE_727.png,CELL,59860c81d75d360001b0bd95,28/09/1946,2020-09-10_14h10.47.175,proactive3.1,2020.1.2,MacIntel,60,5f599a131af4471f3d752b7b,5f5a25b8a6fc86080f09ce5c,3,,,,,,hose,0,3,3,1,1,,,,,,,,,,,,,,,,,,,,,,,,,,,,,,,,,,,,,,,,,,,,,,,,,,,,,,,,,,,,,,,,,,,,,,,,,,,,,,,,,,,,,,,,,,,,,,,,,,,,,,,,,,,,,,,,,,,,
,,GENIUS,5.668,1,,,,,,stimuli/images/PICTURE_269.png,GENIUS,59860c81d75d360001b0bd95,28/09/1946,2020-09-10_14h10.47.175,proactive3.1,2020.1.2,MacIntel,60,5f599a131af4471f3d752b7b,5f5a25b8a6fc86080f09ce5c,3,,,,,,chameleon,0,4,4,0,1,,,,,,,,,,,,,,,,,,,,,,,,,,,,,,,,,,,,,,,,,,,,,,,,,,,,,,,,,,,,,,,,,,,,,,,,,,,,,,,,,,,,,,,,,,,,,,,,,,,,,,,,,,,,,,,,,,,,
,,,,,,,,,,stimuli/images/PICTURE_147.png,MOMENT,59860c81d75d360001b0bd95,28/09/1946,2020-09-10_14h10.47.175,proactive3.1,2020.1.2,MacIntel,60,5f599a131af4471f3d752b7b,5f5a25b8a6fc86080f09ce5c,3,,,,,,hanger,,,,,,0,0,0,51,1,6,0,,,,,,,,,,,,,,,,,,,,,,,,,,,,,,,,,,,,,,,,,,,,,,,,,,,,,,,,,,,,,,,,,,,,,,,,,,,,,,,,,,,,,,,,,,,,,,,,,,,,,,,,,,,,,
,,,,,,,,,,stimuli/images/PICTURE_233.png,WOMEN,59860c81d75d360001b0bd95,28/09/1946,2020-09-10_14h10.47.175,proactive3.1,2020.1.2,MacIntel,60,5f599a131af4471f3d752b7b,5f5a25b8a6fc86080f09ce5c,3,,,,,,salt,,,,,,0,1,1,38,1,4,0,,,,,,,,,,,,,,,,,,,,,,,,,,,,,,,,,,,,,,,,,,,,,,,,,,,,,,,,,,,,,,,,,,,,,,,,,,,,,,,,,,,,,,,,,,,,,,,,,,,,,,,,,,,,,
,,,,,,,,,,stimuli/images/PICTURE_380.png,PHOTO,59860c81d75d360001b0bd95,28/09/1946,2020-09-10_14h10.47.175,proactive3.1,2020.1.2,MacIntel,60,5f599a131af4471f3d752b7b,5f5a25b8a6fc86080f09ce5c,3,,,,,,gorilla,,,,,,0,2,2,52,1,6,0,,,,,,,,,,,,,,,,,,,,,,,,,,,,,,,,,,,,,,,,,,,,,,,,,,,,,,,,,,,,,,,,,,,,,,,,,,,,,,,,,,,,,,,,,,,,,,,,,,,,,,,,,,,,,
,,,,,,,,,,stimuli/images/PICTURE_308.png,ESTATE,59860c81d75d360001b0bd95,28/09/1946,2020-09-10_14h10.47.175,proactive3.1,2020.1.2,MacIntel,60,5f599a131af4471f3d752b7b,5f5a25b8a6fc86080f09ce5c,3,,,,,,dice,,,,,,0,3,3,46,1,5,0,,,,,,,,,,,,,,,,,,,,,,,,,,,,,,,,,,,,,,,,,,,,,,,,,,,,,,,,,,,,,,,,,,,,,,,,,,,,,,,,,,,,,,,,,,,,,,,,,,,,,,,,,,,,,
,,,,,,,,,,stimuli/images/PICTURE_356.png,DANGER,59860c81d75d360001b0bd95,28/09/1946,2020-09-10_14h10.47.175,proactive3.1,2020.1.2,MacIntel,60,5f599a131af4471f3d752b7b,5f5a25b8a6fc86080f09ce5c,3,,,,,,pawn,,,,,,0,4,4,55,1,6,0,,,,,,,,,,,,,,,,,,,,,,,,,,,,,,,,,,,,,,,,,,,,,,,,,,,,,,,,,,,,,,,,,,,,,,,,,,,,,,,,,,,,,,,,,,,,,,,,,,,,,,,,,,,,,
,,,,,,,,,,stimuli/images/PICTURE_469.png,LETTER,59860c81d75d360001b0bd95,28/09/1946,2020-09-10_14h10.47.175,proactive3.1,2020.1.2,MacIntel,60,5f599a131af4471f3d752b7b,5f5a25b8a6fc86080f09ce5c,3,,,,,,stool,,,,,,0,5,5,42,1,5,0,,,,,,,,,,,,,,,,,,,,,,,,,,,,,,,,,,,,,,,,,,,,,,,,,,,,,,,,,,,,,,,,,,,,,,,,,,,,,,,,,,,,,,,,,,,,,,,,,,,,,,,,,,,,,
,,,,,,,,,,stimuli/images/PICTURE_177.png,CARS,59860c81d75d360001b0bd95,28/09/1946,2020-09-10_14h10.47.175,proactive3.1,2020.1.2,MacIntel,60,5f599a131af4471f3d752b7b,5f5a25b8a6fc86080f09ce5c,3,,,,,,mushroom,,,,,,0,6,6,35,1,4,0,,,,,,,,,,,,,,,,,,,,,,,,,,,,,,,,,,,,,,,,,,,,,,,,,,,,,,,,,,,,,,,,,,,,,,,,,,,,,,,,,,,,,,,,,,,,,,,,,,,,,,,,,,,,,
,,,,,,,,,,stimuli/images/PICTURE_308.png,KIND,59860c81d75d360001b0bd95,28/09/1946,2020-09-10_14h10.47.175,proactive3.1,2020.1.2,MacIntel,60,5f599a131af4471f3d752b7b,5f5a25b8a6fc86080f09ce5c,3,,,,,,dice,,,,,,0,7,7,54,1,6,0,,,,,,,,,,,,,,,,,,,,,,,,,,,,,,,,,,,,,,,,,,,,,,,,,,,,,,,,,,,,,,,,,,,,,,,,,,,,,,,,,,,,,,,,,,,,,,,,,,,,,,,,,,,,,
,,,,,,,,,,stimuli/images/PICTURE_339.png,PLENTY,59860c81d75d360001b0bd95,28/09/1946,2020-09-10_14h10.47.175,proactive3.1,2020.1.2,MacIntel,60,5f599a131af4471f3d752b7b,5f5a25b8a6fc86080f09ce5c,3,,,,,,backpack,,,,,,0,8,8,0,1,1,0,,,,,,,,,,,,,,,,,,,,,,,,,,,,,,,,,,,,,,,,,,,,,,,,,,,,,,,,,,,,,,,,,,,,,,,,,,,,,,,,,,,,,,,,,,,,,,,,,,,,,,,,,,,,,
,,,,,,,,,,stimuli/images/PICTURE_708.png,PENNY,59860c81d75d360001b0bd95,28/09/1946,2020-09-10_14h10.47.175,proactive3.1,2020.1.2,MacIntel,60,5f599a131af4471f3d752b7b,5f5a25b8a6fc86080f09ce5c,3,,,,,,monkey,,,,,,0,9,9,31,1,4,0,,,,,,,,,,,,,,,,,,,,,,,,,,,,,,,,,,,,,,,,,,,,,,,,,,,,,,,,,,,,,,,,,,,,,,,,,,,,,,,,,,,,,,,,,,,,,,,,,,,,,,,,,,,,,
,,,,,,,,,,stimuli/images/PICTURE_453.png,DUDE,59860c81d75d360001b0bd95,28/09/1946,2020-09-10_14h10.47.175,proactive3.1,2020.1.2,MacIntel,60,5f599a131af4471f3d752b7b,5f5a25b8a6fc86080f09ce5c,3,,,,,,scissors,,,,,,0,10,10,27,1,3,0,,,,,,,,,,,,,,,,,,,,,,,,,,,,,,,,,,,,,,,,,,,,,,,,,,,,,,,,,,,,,,,,,,,,,,,,,,,,,,,,,,,,,,,,,,,,,,,,,,,,,,,,,,,,,
,,,,,,,,,,stimuli/images/PICTURE_314.png,SAKE,59860c81d75d360001b0bd95,28/09/1946,2020-09-10_14h10.47.175,proactive3.1,2020.1.2,MacIntel,60,5f599a131af4471f3d752b7b,5f5a25b8a6fc86080f09ce5c,3,,,,,,perfume,,,,,,0,11,11,7,1,1,0,,,,,,,,,,,,,,,,,,,,,,,,,,,,,,,,,,,,,,,,,,,,,,,,,,,,,,,,,,,,,,,,,,,,,,,,,,,,,,,,,,,,,,,,,,,,,,,,,,,,,,,,,,,,,
,,,,,,,,,,stimuli/images/PICTURE_314.png,GODS,59860c81d75d360001b0bd95,28/09/1946,2020-09-10_14h10.47.175,proactive3.1,2020.1.2,MacIntel,60,5f599a131af4471f3d752b7b,5f5a25b8a6fc86080f09ce5c,3,,,,,,perfume,,,,,,0,12,12,11,1,2,0,,,,,,,,,,,,,,,,,,,,,,,,,,,,,,,,,,,,,,,,,,,,,,,,,,,,,,,,,,,,,,,,,,,,,,,,,,,,,,,,,,,,,,,,,,,,,,,,,,,,,,,,,,,,,
,,,,,,,,,,stimuli/images/PICTURE_327.png,BEAUTY,59860c81d75d360001b0bd95,28/09/1946,2020-09-10_14h10.47.175,proactive3.1,2020.1.2,MacIntel,60,5f599a131af4471f3d752b7b,5f5a25b8a6fc86080f09ce5c,3,,,,,,helmet,,,,,,0,13,13,48,1,5,0,,,,,,,,,,,,,,,,,,,,,,,,,,,,,,,,,,,,,,,,,,,,,,,,,,,,,,,,,,,,,,,,,,,,,,,,,,,,,,,,,,,,,,,,,,,,,,,,,,,,,,,,,,,,,
,,,,,,,,,,stimuli/images/PICTURE_488.png,STYLE,59860c81d75d360001b0bd95,28/09/1946,2020-09-10_14h10.47.175,proactive3.1,2020.1.2,MacIntel,60,5f599a131af4471f3d752b7b,5f5a25b8a6fc86080f09ce5c,3,,,,,,sun,,,,,,0,14,14,33,1,4,0,,,,,,,,,,,,,,,,,,,,,,,,,,,,,,,,,,,,,,,,,,,,,,,,,,,,,,,,,,,,,,,,,,,,,,,,,,,,,,,,,,,,,,,,,,,,,,,,,,,,,,,,,,,,,
,,,,,,,,,,stimuli/images/PICTURE_449.png,THING,59860c81d75d360001b0bd95,28/09/1946,2020-09-10_14h10.47.175,proactive3.1,2020.1.2,MacIntel,60,5f599a131af4471f3d752b7b,5f5a25b8a6fc86080f09ce5c,3,,,,,,bench,,,,,,0,15,15,59,1,6,0,,,,,,,,,,,,,,,,,,,,,,,,,,,,,,,,,,,,,,,,,,,,,,,,,,,,,,,,,,,,,,,,,,,,,,,,,,,,,,,,,,,,,,,,,,,,,,,,,,,,,,,,,,,,,
,,,,,,,,,,stimuli/images/PICTURE_85.png,THING,59860c81d75d360001b0bd95,28/09/1946,2020-09-10_14h10.47.175,proactive3.1,2020.1.2,MacIntel,60,5f599a131af4471f3d752b7b,5f5a25b8a6fc86080f09ce5c,3,,,,,,diamond,,,,,,0,16,16,15,1,2,0,,,,,,,,,,,,,,,,,,,,,,,,,,,,,,,,,,,,,,,,,,,,,,,,,,,,,,,,,,,,,,,,,,,,,,,,,,,,,,,,,,,,,,,,,,,,,,,,,,,,,,,,,,,,,
,,,,,,,,,,stimuli/images/PICTURE_248.png,DOZEN,59860c81d75d360001b0bd95,28/09/1946,2020-09-10_14h10.47.175,proactive3.1,2020.1.2,MacIntel,60,5f599a131af4471f3d752b7b,5f5a25b8a6fc86080f09ce5c,3,,,,,,cart,,,,,,0,17,17,39,1,4,0,,,,,,,,,,,,,,,,,,,,,,,,,,,,,,,,,,,,,,,,,,,,,,,,,,,,,,,,,,,,,,,,,,,,,,,,,,,,,,,,,,,,,,,,,,,,,,,,,,,,,,,,,,,,,
,,,,,,,,,,stimuli/images/PICTURE_208.png,MONTH,59860c81d75d360001b0bd95,28/09/1946,2020-09-10_14h10.47.175,proactive3.1,2020.1.2,MacIntel,60,5f599a131af4471f3d752b7b,5f5a25b8a6fc86080f09ce5c,3,,,,,,microphone,,,,,,0,18,18,53,1,6,0,,,,,,,,,,,,,,,,,,,,,,,,,,,,,,,,,,,,,,,,,,,,,,,,,,,,,,,,,,,,,,,,,,,,,,,,,,,,,,,,,,,,,,,,,,,,,,,,,,,,,,,,,,,,,
,,,,,,,,,,stimuli/images/PICTURE_203.png,ARTIST,59860c81d75d360001b0bd95,28/09/1946,2020-09-10_14h10.47.175,proactive3.1,2020.1.2,MacIntel,60,5f599a131af4471f3d752b7b,5f5a25b8a6fc86080f09ce5c,3,,,,,,cap,,,,,,0,19,19,26,1,3,0,,,,,,,,,,,,,,,,,,,,,,,,,,,,,,,,,,,,,,,,,,,,,,,,,,,,,,,,,,,,,,,,,,,,,,,,,,,,,,,,,,,,,,,,,,,,,,,,,,,,,,,,,,,,,
,,,,,,,,,,stimuli/images/PICTURE_32.png,JUNGLE,59860c81d75d360001b0bd95,28/09/1946,2020-09-10_14h10.47.175,proactive3.1,2020.1.2,MacIntel,60,5f599a131af4471f3d752b7b,5f5a25b8a6fc86080f09ce5c,3,,,,,,crown,,,,,,0,20,20,45,1,5,0,,,,,,,,,,,,,,,,,,,,,,,,,,,,,,,,,,,,,,,,,,,,,,,,,,,,,,,,,,,,,,,,,,,,,,,,,,,,,,,,,,,,,,,,,,,,,,,,,,,,,,,,,,,,,
,,,,,,,,,,stimuli/images/PICTURE_160.png,LEADER,59860c81d75d360001b0bd95,28/09/1946,2020-09-10_14h10.47.175,proactive3.1,2020.1.2,MacIntel,60,5f599a131af4471f3d752b7b,5f5a25b8a6fc86080f09ce5c,3,,,,,,wheelbarrow,,,,,,0,21,21,3,1,1,0,,,,,,,,,,,,,,,,,,,,,,,,,,,,,,,,,,,,,,,,,,,,,,,,,,,,,,,,,,,,,,,,,,,,,,,,,,,,,,,,,,,,,,,,,,,,,,,,,,,,,,,,,,,,,
,,,,,,,,,,stimuli/images/PICTURE_467.png,DEMON,59860c81d75d360001b0bd95,28/09/1946,2020-09-10_14h10.47.175,proactive3.1,2020.1.2,MacIntel,60,5f599a131af4471f3d752b7b,5f5a25b8a6fc86080f09ce5c,3,,,,,,peg,,,,,,0,22,22,23,1,3,0,,,,,,,,,,,,,,,,,,,,,,,,,,,,,,,,,,,,,,,,,,,,,,,,,,,,,,,,,,,,,,,,,,,,,,,,,,,,,,,,,,,,,,,,,,,,,,,,,,,,,,,,,,,,,
,,,,,,,,,,stimuli/images/PICTURE_469.png,ARTIST,59860c81d75d360001b0bd95,28/09/1946,2020-09-10_14h10.47.175,proactive3.1,2020.1.2,MacIntel,60,5f599a131af4471f3d752b7b,5f5a25b8a6fc86080f09ce5c,3,,,,,,stool,,,,,,0,23,23,6,1,1,0,,,,,,,,,,,,,,,,,,,,,,,,,,,,,,,,,,,,,,,,,,,,,,,,,,,,,,,,,,,,,,,,,,,,,,,,,,,,,,,,,,,,,,,,,,,,,,,,,,,,,,,,,,,,,
,,,,,,,,,,stimuli/images/PICTURE_151.png,GIRL,59860c81d75d360001b0bd95,28/09/1946,2020-09-10_14h10.47.175,proactive3.1,2020.1.2,MacIntel,60,5f599a131af4471f3d752b7b,5f5a25b8a6fc86080f09ce5c,3,,,,,,tray,,,,,,0,24,24,19,1,2,0,,,,,,,,,,,,,,,,,,,,,,,,,,,,,,,,,,,,,,,,,,,,,,,,,,,,,,,,,,,,,,,,,,,,,,,,,,,,,,,,,,,,,,,,,,,,,,,,,,,,,,,,,,,,,
,,,,,,,,,,stimuli/images/PICTURE_692.png,MONTH,59860c81d75d360001b0bd95,28/09/1946,2020-09-10_14h10.47.175,proactive3.1,2020.1.2,MacIntel,60,5f599a131af4471f3d752b7b,5f5a25b8a6fc86080f09ce5c,3,,,,,,cherry,,,,,,0,25,25,16,1,2,0,,,,,,,,,,,,,,,,,,,,,,,,,,,,,,,,,,,,,,,,,,,,,,,,,,,,,,,,,,,,,,,,,,,,,,,,,,,,,,,,,,,,,,,,,,,,,,,,,,,,,,,,,,,,,
,,,,,,,,,,stimuli/images/PICTURE_654.png,VALLEY,59860c81d75d360001b0bd95,28/09/1946,2020-09-10_14h10.47.175,proactive3.1,2020.1.2,MacIntel,60,5f599a131af4471f3d752b7b,5f5a25b8a6fc86080f09ce5c,3,,,,,,pencil,,,,,,0,26,26,1,1,1,0,,,,,,,,,,,,,,,,,,,,,,,,,,,,,,,,,,,,,,,,,,,,,,,,,,,,,,,,,,,,,,,,,,,,,,,,,,,,,,,,,,,,,,,,,,,,,,,,,,,,,,,,,,,,,
,,,,,,,,,,stimuli/images/PICTURE_744.png,SYSTEM,59860c81d75d360001b0bd95,28/09/1946,2020-09-10_14h10.47.175,proactive3.1,2020.1.2,MacIntel,60,5f599a131af4471f3d752b7b,5f5a25b8a6fc86080f09ce5c,3,,,,,,ring,,,,,,0,27,27,43,1,5,0,,,,,,,,,,,,,,,,,,,,,,,,,,,,,,,,,,,,,,,,,,,,,,,,,,,,,,,,,,,,,,,,,,,,,,,,,,,,,,,,,,,,,,,,,,,,,,,,,,,,,,,,,,,,,
,,,,,,,,,,stimuli/images/PICTURE_675.png,WEAPON,59860c81d75d360001b0bd95,28/09/1946,2020-09-10_14h10.47.175,proactive3.1,2020.1.2,MacIntel,60,5f599a131af4471f3d752b7b,5f5a25b8a6fc86080f09ce5c,3,,,,,,windmill,,,,,,0,28,28,32,1,4,0,,,,,,,,,,,,,,,,,,,,,,,,,,,,,,,,,,,,,,,,,,,,,,,,,,,,,,,,,,,,,,,,,,,,,,,,,,,,,,,,,,,,,,,,,,,,,,,,,,,,,,,,,,,,,
,,,,,,,,,,stimuli/images/PICTURE_491.png,ROOF,59860c81d75d360001b0bd95,28/09/1946,2020-09-10_14h10.47.175,proactive3.1,2020.1.2,MacIntel,60,5f599a131af4471f3d752b7b,5f5a25b8a6fc86080f09ce5c,3,,,,,,rug,,,,,,0,29,29,24,1,3,0,,,,,,,,,,,,,,,,,,,,,,,,,,,,,,,,,,,,,,,,,,,,,,,,,,,,,,,,,,,,,,,,,,,,,,,,,,,,,,,,,,,,,,,,,,,,,,,,,,,,,,,,,,,,,
,,,,,,,,,,stimuli/images/PICTURE_688.png,WOMEN,59860c81d75d360001b0bd95,28/09/1946,2020-09-10_14h10.47.175,proactive3.1,2020.1.2,MacIntel,60,5f599a131af4471f3d752b7b,5f5a25b8a6fc86080f09ce5c,3,,,,,,runner,,,,,,0,30,30,14,1,2,0,,,,,,,,,,,,,,,,,,,,,,,,,,,,,,,,,,,,,,,,,,,,,,,,,,,,,,,,,,,,,,,,,,,,,,,,,,,,,,,,,,,,,,,,,,,,,,,,,,,,,,,,,,,,,
,,,,,,,,,,stimuli/images/PICTURE_233.png,IDEAS,59860c81d75d360001b0bd95,28/09/1946,2020-09-10_14h10.47.175,proactive3.1,2020.1.2,MacIntel,60,5f599a131af4471f3d752b7b,5f5a25b8a6fc86080f09ce5c,3,,,,,,salt,,,,,,0,31,31,28,1,3,0,,,,,,,,,,,,,,,,,,,,,,,,,,,,,,,,,,,,,,,,,,,,,,,,,,,,,,,,,,,,,,,,,,,,,,,,,,,,,,,,,,,,,,,,,,,,,,,,,,,,,,,,,,,,,
,,,,,,,,,,stimuli/images/PICTURE_509.png,PHOTO,59860c81d75d360001b0bd95,28/09/1946,2020-09-10_14h10.47.175,proactive3.1,2020.1.2,MacIntel,60,5f599a131af4471f3d752b7b,5f5a25b8a6fc86080f09ce5c,3,,,,,,telephone,,,,,,0,32,32,21,1,3,0,,,,,,,,,,,,,,,,,,,,,,,,,,,,,,,,,,,,,,,,,,,,,,,,,,,,,,,,,,,,,,,,,,,,,,,,,,,,,,,,,,,,,,,,,,,,,,,,,,,,,,,,,,,,,
,,,,,,,,,,stimuli/images/PICTURE_708.png,YARD,59860c81d75d360001b0bd95,28/09/1946,2020-09-10_14h10.47.175,proactive3.1,2020.1.2,MacIntel,60,5f599a131af4471f3d752b7b,5f5a25b8a6fc86080f09ce5c,3,,,,,,monkey,,,,,,0,33,33,29,1,3,0,,,,,,,,,,,,,,,,,,,,,,,,,,,,,,,,,,,,,,,,,,,,,,,,,,,,,,,,,,,,,,,,,,,,,,,,,,,,,,,,,,,,,,,,,,,,,,,,,,,,,,,,,,,,,
,,,,,,,,,,stimuli/images/PICTURE_688.png,CASINO,59860c81d75d360001b0bd95,28/09/1946,2020-09-10_14h10.47.175,proactive3.1,2020.1.2,MacIntel,60,5f599a131af4471f3d752b7b,5f5a25b8a6fc86080f09ce5c,3,,,,,,runner,,,,,,0,34,34,2,1,1,0,,,,,,,,,,,,,,,,,,,,,,,,,,,,,,,,,,,,,,,,,,,,,,,,,,,,,,,,,,,,,,,,,,,,,,,,,,,,,,,,,,,,,,,,,,,,,,,,,,,,,,,,,,,,,
,,,,,,,,,,stimuli/images/PICTURE_708.png,CLIENT,59860c81d75d360001b0bd95,28/09/1946,2020-09-10_14h10.47.175,proactive3.1,2020.1.2,MacIntel,60,5f599a131af4471f3d752b7b,5f5a25b8a6fc86080f09ce5c,3,,,,,,monkey,,,,,,0,35,35,5,1,1,0,,,,,,,,,,,,,,,,,,,,,,,,,,,,,,,,,,,,,,,,,,,,,,,,,,,,,,,,,,,,,,,,,,,,,,,,,,,,,,,,,,,,,,,,,,,,,,,,,,,,,,,,,,,,,
,,,,,,,,,,stimuli/images/PICTURE_470.png,CASINO,59860c81d75d360001b0bd95,28/09/1946,2020-09-10_14h10.47.175,proactive3.1,2020.1.2,MacIntel,60,5f599a131af4471f3d752b7b,5f5a25b8a6fc86080f09ce5c,3,,,,,,motorbike,,,,,,0,36,36,36,1,4,0,,,,,,,,,,,,,,,,,,,,,,,,,,,,,,,,,,,,,,,,,,,,,,,,,,,,,,,,,,,,,,,,,,,,,,,,,,,,,,,,,,,,,,,,,,,,,,,,,,,,,,,,,,,,,
,,,,,,,,,,stimuli/images/PICTURE_311.png,BEAUTY,59860c81d75d360001b0bd95,28/09/1946,2020-09-10_14h10.47.175,proactive3.1,2020.1.2,MacIntel,60,5f599a131af4471f3d752b7b,5f5a25b8a6fc86080f09ce5c,3,,,,,,razor,,,,,,0,37,37,13,1,2,0,,,,,,,,,,,,,,,,,,,,,,,,,,,,,,,,,,,,,,,,,,,,,,,,,,,,,,,,,,,,,,,,,,,,,,,,,,,,,,,,,,,,,,,,,,,,,,,,,,,,,,,,,,,,,
,,,,,,,,,,stimuli/images/PICTURE_453.png,PLENTY,59860c81d75d360001b0bd95,28/09/1946,2020-09-10_14h10.47.175,proactive3.1,2020.1.2,MacIntel,60,5f599a131af4471f3d752b7b,5f5a25b8a6fc86080f09ce5c,3,,,,,,scissors,,,,,,0,38,38,56,1,6,0,,,,,,,,,,,,,,,,,,,,,,,,,,,,,,,,,,,,,,,,,,,,,,,,,,,,,,,,,,,,,,,,,,,,,,,,,,,,,,,,,,,,,,,,,,,,,,,,,,,,,,,,,,,,,
,,,,,,,,,,stimuli/images/PICTURE_744.png,SAKE,59860c81d75d360001b0bd95,28/09/1946,2020-09-10_14h10.47.175,proactive3.1,2020.1.2,MacIntel,60,5f599a131af4471f3d752b7b,5f5a25b8a6fc86080f09ce5c,3,,,,,,ring,,,,,,0,39,39,17,1,2,0,,,,,,,,,,,,,,,,,,,,,,,,,,,,,,,,,,,,,,,,,,,,,,,,,,,,,,,,,,,,,,,,,,,,,,,,,,,,,,,,,,,,,,,,,,,,,,,,,,,,,,,,,,,,,
,,,,,,,,,,stimuli/images/PICTURE_380.png,DEATH,59860c81d75d360001b0bd95,28/09/1946,2020-09-10_14h10.47.175,proactive3.1,2020.1.2,MacIntel,60,5f599a131af4471f3d752b7b,5f5a25b8a6fc86080f09ce5c,3,,,,,,gorilla,,,,,,0,40,40,49,1,5,0,,,,,,,,,,,,,,,,,,,,,,,,,,,,,,,,,,,,,,,,,,,,,,,,,,,,,,,,,,,,,,,,,,,,,,,,,,,,,,,,,,,,,,,,,,,,,,,,,,,,,,,,,,,,,
,,,,,,,,,,stimuli/images/PICTURE_491.png,WRITER,59860c81d75d360001b0bd95,28/09/1946,2020-09-10_14h10.47.175,proactive3.1,2020.1.2,MacIntel,60,5f599a131af4471f3d752b7b,5f5a25b8a6fc86080f09ce5c,3,,,,,,rug,,,,,,0,41,41,57,1,6,0,,,,,,,,,,,,,,,,,,,,,,,,,,,,,,,,,,,,,,,,,,,,,,,,,,,,,,,,,,,,,,,,,,,,,,,,,,,,,,,,,,,,,,,,,,,,,,,,,,,,,,,,,,,,,
,,,,,,,,,,stimuli/images/PICTURE_68.png,MILE,59860c81d75d360001b0bd95,28/09/1946,2020-09-10_14h10.47.175,proactive3.1,2020.1.2,MacIntel,60,5f599a131af4471f3d752b7b,5f5a25b8a6fc86080f09ce5c,3,,,,,,candle,,,,,,0,42,42,44,1,5,0,,,,,,,,,,,,,,,,,,,,,,,,,,,,,,,,,,,,,,,,,,,,,,,,,,,,,,,,,,,,,,,,,,,,,,,,,,,,,,,,,,,,,,,,,,,,,,,,,,,,,,,,,,,,,
,,,,,,,,,,stimuli/images/PICTURE_215.png,PLENTY,59860c81d75d360001b0bd95,28/09/1946,2020-09-10_14h10.47.175,proactive3.1,2020.1.2,MacIntel,60,5f599a131af4471f3d752b7b,5f5a25b8a6fc86080f09ce5c,3,,,,,,boot,,,,,,0,43,43,37,1,4,0,,,,,,,,,,,,,,,,,,,,,,,,,,,,,,,,,,,,,,,,,,,,,,,,,,,,,,,,,,,,,,,,,,,,,,,,,,,,,,,,,,,,,,,,,,,,,,,,,,,,,,,,,,,,,
,,,,,,,,,,stimuli/images/PICTURE_95.png,STYLE,59860c81d75d360001b0bd95,28/09/1946,2020-09-10_14h10.47.175,proactive3.1,2020.1.2,MacIntel,60,5f599a131af4471f3d752b7b,5f5a25b8a6fc86080f09ce5c,3,,,,,,suitcase,,,,,,0,44,44,25,1,3,0,,,,,,,,,,,,,,,,,,,,,,,,,,,,,,,,,,,,,,,,,,,,,,,,,,,,,,,,,,,,,,,,,,,,,,,,,,,,,,,,,,,,,,,,,,,,,,,,,,,,,,,,,,,,,
,,,,,,,,,,stimuli/images/PICTURE_123.png,ADVICE,59860c81d75d360001b0bd95,28/09/1946,2020-09-10_14h10.47.175,proactive3.1,2020.1.2,MacIntel,60,5f599a131af4471f3d752b7b,5f5a25b8a6fc86080f09ce5c,3,,,,,,dart,,,,,,0,45,45,40,1,5,0,,,,,,,,,,,,,,,,,,,,,,,,,,,,,,,,,,,,,,,,,,,,,,,,,,,,,,,,,,,,,,,,,,,,,,,,,,,,,,,,,,,,,,,,,,,,,,,,,,,,,,,,,,,,,
,,,,,,,,,,stimuli/images/PICTURE_285.png,ADVICE,59860c81d75d360001b0bd95,28/09/1946,2020-09-10_14h10.47.175,proactive3.1,2020.1.2,MacIntel,60,5f599a131af4471f3d752b7b,5f5a25b8a6fc86080f09ce5c,3,,,,,,carrot,,,,,,0,46,46,12,1,2,0,,,,,,,,,,,,,,,,,,,,,,,,,,,,,,,,,,,,,,,,,,,,,,,,,,,,,,,,,,,,,,,,,,,,,,,,,,,,,,,,,,,,,,,,,,,,,,,,,,,,,,,,,,,,,
,,,,,,,,,,stimuli/images/PICTURE_302.png,FAMILY,59860c81d75d360001b0bd95,28/09/1946,2020-09-10_14h10.47.175,proactive3.1,2020.1.2,MacIntel,60,5f599a131af4471f3d752b7b,5f5a25b8a6fc86080f09ce5c,3,,,,,,taxi,,,,,,0,47,47,18,1,2,0,,,,,,,,,,,,,,,,,,,,,,,,,,,,,,,,,,,,,,,,,,,,,,,,,,,,,,,,,,,,,,,,,,,,,,,,,,,,,,,,,,,,,,,,,,,,,,,,,,,,,,,,,,,,,
,,,,,,,,,,stimuli/images/PICTURE_208.png,LOTS,59860c81d75d360001b0bd95,28/09/1946,2020-09-10_14h10.47.175,proactive3.1,2020.1.2,MacIntel,60,5f599a131af4471f3d752b7b,5f5a25b8a6fc86080f09ce5c,3,,,,,,microphone,,,,,,0,48,48,10,1,2,0,,,,,,,,,,,,,,,,,,,,,,,,,,,,,,,,,,,,,,,,,,,,,,,,,,,,,,,,,,,,,,,,,,,,,,,,,,,,,,,,,,,,,,,,,,,,,,,,,,,,,,,,,,,,,
,,,,,,,,,,stimuli/images/PICTURE_255.png,AREA,59860c81d75d360001b0bd95,28/09/1946,2020-09-10_14h10.47.175,proactive3.1,2020.1.2,MacIntel,60,5f599a131af4471f3d752b7b,5f5a25b8a6fc86080f09ce5c,3,,,,,,shovel,,,,,,0,49,49,22,1,3,0,,,,,,,,,,,,,,,,,,,,,,,,,,,,,,,,,,,,,,,,,,,,,,,,,,,,,,,,,,,,,,,,,,,,,,,,,,,,,,,,,,,,,,,,,,,,,,,,,,,,,,,,,,,,,
,,,,,,,,,,stimuli/images/PICTURE_667.png,PLENTY,59860c81d75d360001b0bd95,28/09/1946,2020-09-10_14h10.47.175,proactive3.1,2020.1.2,MacIntel,60,5f599a131af4471f3d752b7b,5f5a25b8a6fc86080f09ce5c,3,,,,,,daisy,,,,,,0,50,50,41,1,5,0,,,,,,,,,,,,,,,,,,,,,,,,,,,,,,,,,,,,,,,,,,,,,,,,,,,,,,,,,,,,,,,,,,,,,,,,,,,,,,,,,,,,,,,,,,,,,,,,,,,,,,,,,,,,,
,,,,,,,,,,stimuli/images/PICTURE_504.png,BODY,59860c81d75d360001b0bd95,28/09/1946,2020-09-10_14h10.47.175,proactive3.1,2020.1.2,MacIntel,60,5f599a131af4471f3d752b7b,5f5a25b8a6fc86080f09ce5c,3,,,,,,wheel,,,,,,0,51,51,8,1,1,0,,,,,,,,,,,,,,,,,,,,,,,,,,,,,,,,,,,,,,,,,,,,,,,,,,,,,,,,,,,,,,,,,,,,,,,,,,,,,,,,,,,,,,,,,,,,,,,,,,,,,,,,,,,,,
,,,,,,,,,,stimuli/images/PICTURE_667.png,BATH,59860c81d75d360001b0bd95,28/09/1946,2020-09-10_14h10.47.175,proactive3.1,2020.1.2,MacIntel,60,5f599a131af4471f3d752b7b,5f5a25b8a6fc86080f09ce5c,3,,,,,,daisy,,,,,,0,52,52,4,1,1,0,,,,,,,,,,,,,,,,,,,,,,,,,,,,,,,,,,,,,,,,,,,,,,,,,,,,,,,,,,,,,,,,,,,,,,,,,,,,,,,,,,,,,,,,,,,,,,,,,,,,,,,,,,,,,
,,,,,,,,,,stimuli/images/PICTURE_208.png,THING,59860c81d75d360001b0bd95,28/09/1946,2020-09-10_14h10.47.175,proactive3.1,2020.1.2,MacIntel,60,5f599a131af4471f3d752b7b,5f5a25b8a6fc86080f09ce5c,3,,,,,,microphone,,,,,,0,53,53,47,1,5,0,,,,,,,,,,,,,,,,,,,,,,,,,,,,,,,,,,,,,,,,,,,,,,,,,,,,,,,,,,,,,,,,,,,,,,,,,,,,,,,,,,,,,,,,,,,,,,,,,,,,,,,,,,,,,
,,,,,,,,,,stimuli/images/PICTURE_677.png,MILE,59860c81d75d360001b0bd95,28/09/1946,2020-09-10_14h10.47.175,proactive3.1,2020.1.2,MacIntel,60,5f599a131af4471f3d752b7b,5f5a25b8a6fc86080f09ce5c,3,,,,,,map,,,,,,0,54,54,30,1,4,0,,,,,,,,,,,,,,,,,,,,,,,,,,,,,,,,,,,,,,,,,,,,,,,,,,,,,,,,,,,,,,,,,,,,,,,,,,,,,,,,,,,,,,,,,,,,,,,,,,,,,,,,,,,,,
,,,,,,,,,,stimuli/images/PICTURE_160.png,FEET,59860c81d75d360001b0bd95,28/09/1946,2020-09-10_14h10.47.175,proactive3.1,2020.1.2,MacIntel,60,5f599a131af4471f3d752b7b,5f5a25b8a6fc86080f09ce5c,3,,,,,,wheelbarrow,,,,,,0,55,55,58,1,6,0,,,,,,,,,,,,,,,,,,,,,,,,,,,,,,,,,,,,,,,,,,,,,,,,,,,,,,,,,,,,,,,,,,,,,,,,,,,,,,,,,,,,,,,,,,,,,,,,,,,,,,,,,,,,,
,,,,,,,,,,stimuli/images/PICTURE_123.png,ADVICE,59860c81d75d360001b0bd95,28/09/1946,2020-09-10_14h10.47.175,proactive3.1,2020.1.2,MacIntel,60,5f599a131af4471f3d752b7b,5f5a25b8a6fc86080f09ce5c,3,,,,,,dart,,,,,,0,56,56,50,1,6,0,,,,,,,,,,,,,,,,,,,,,,,,,,,,,,,,,,,,,,,,,,,,,,,,,,,,,,,,,,,,,,,,,,,,,,,,,,,,,,,,,,,,,,,,,,,,,,,,,,,,,,,,,,,,,
,,,,,,,,,,stimuli/images/PICTURE_487.png,FLIGHT,59860c81d75d360001b0bd95,28/09/1946,2020-09-10_14h10.47.175,proactive3.1,2020.1.2,MacIntel,60,5f599a131af4471f3d752b7b,5f5a25b8a6fc86080f09ce5c,3,,,,,,basket,,,,,,0,57,57,9,1,1,0,,,,,,,,,,,,,,,,,,,,,,,,,,,,,,,,,,,,,,,,,,,,,,,,,,,,,,,,,,,,,,,,,,,,,,,,,,,,,,,,,,,,,,,,,,,,,,,,,,,,,,,,,,,,,
,,,,,,,,,,stimuli/images/PICTURE_311.png,FRIEND,59860c81d75d360001b0bd95,28/09/1946,2020-09-10_14h10.47.175,proactive3.1,2020.1.2,MacIntel,60,5f599a131af4471f3d752b7b,5f5a25b8a6fc86080f09ce5c,3,,,,,,razor,,,,,,0,58,58,34,1,4,0,,,,,,,,,,,,,,,,,,,,,,,,,,,,,,,,,,,,,,,,,,,,,,,,,,,,,,,,,,,,,,,,,,,,,,,,,,,,,,,,,,,,,,,,,,,,,,,,,,,,,,,,,,,,,
,,?,0.001,0,,,,,,stimuli/images/PICTURE_356.png,DANGER,59860c81d75d360001b0bd95,28/09/1946,2020-09-10_14h10.47.175,proactive3.1,2020.1.2,MacIntel,60,5f599a131af4471f3d752b7b,5f5a25b8a6fc86080f09ce5c,3,,,,,,pawn,,,,,,,,,,,6,0,0,0,0,55,1,,,,,,,,,,,,,,,,,,,,,,,,,,,,,,,,,,,,,,,,,,,,,,,,,,,,,,,,,,,,,,,,,,,,,,,,,,,,,,,,,,,,,,,,,,,,,,,,,,,,,,,,
,,STYLE,4.608,1,,,,,,stimuli/images/PICTURE_95.png,STYLE,59860c81d75d360001b0bd95,28/09/1946,2020-09-10_14h10.47.175,proactive3.1,2020.1.2,MacIntel,60,5f599a131af4471f3d752b7b,5f5a25b8a6fc86080f09ce5c,3,,,,,,suitcase,,,,,,,,,,,3,0,0,1,1,25,1,,,,,,,,,,,,,,,,,,,,,,,,,,,,,,,,,,,,,,,,,,,,,,,,,,,,,,,,,,,,,,,,,,,,,,,,,,,,,,,,,,,,,,,,,,,,,,,,,,,,,,,,
,,?,0.002,0,,,,,,stimuli/images/PICTURE_208.png,THING,59860c81d75d360001b0bd95,28/09/1946,2020-09-10_14h10.47.175,proactive3.1,2020.1.2,MacIntel,60,5f599a131af4471f3d752b7b,5f5a25b8a6fc86080f09ce5c,3,,,,,,microphone,,,,,,,,,,,5,0,0,2,2,47,1,,,,,,,,,,,,,,,,,,,,,,,,,,,,,,,,,,,,,,,,,,,,,,,,,,,,,,,,,,,,,,,,,,,,,,,,,,,,,,,,,,,,,,,,,,,,,,,,,,,,,,,,
,,DUDE,8.417,0,,,,,,stimuli/images/PICTURE_509.png,PHOTO,59860c81d75d360001b0bd95,28/09/1946,2020-09-10_14h10.47.175,proactive3.1,2020.1.2,MacIntel,60,5f599a131af4471f3d752b7b,5f5a25b8a6fc86080f09ce5c,3,,,,,,telephone,,,,,,,,,,,3,0,0,3,3,21,1,,,,,,,,,,,,,,,,,,,,,,,,,,,,,,,,,,,,,,,,,,,,,,,,,,,,,,,,,,,,,,,,,,,,,,,,,,,,,,,,,,,,,,,,,,,,,,,,,,,,,,,,
,,?,0.002,0,,,,,,stimuli/images/PICTURE_123.png,ADVICE,59860c81d75d360001b0bd95,28/09/1946,2020-09-10_14h10.47.175,proactive3.1,2020.1.2,MacIntel,60,5f599a131af4471f3d752b7b,5f5a25b8a6fc86080f09ce5c,3,,,,,,dart,,,,,,,,,,,6,0,0,4,4,50,1,,,,,,,,,,,,,,,,,,,,,,,,,,,,,,,,,,,,,,,,,,,,,,,,,,,,,,,,,,,,,,,,,,,,,,,,,,,,,,,,,,,,,,,,,,,,,,,,,,,,,,,,
,,?,0.001,0,,,,,,stimuli/images/PICTURE_688.png,WOMEN,59860c81d75d360001b0bd95,28/09/1946,2020-09-10_14h10.47.175,proactive3.1,2020.1.2,MacIntel,60,5f599a131af4471f3d752b7b,5f5a25b8a6fc86080f09ce5c,3,,,,,,runner,,,,,,,,,,,2,0,0,5,5,14,1,,,,,,,,,,,,,,,,,,,,,,,,,,,,,,,,,,,,,,,,,,,,,,,,,,,,,,,,,,,,,,,,,,,,,,,,,,,,,,,,,,,,,,,,,,,,,,,,,,,,,,,,
,,AREA,3.344,1,,,,,,stimuli/images/PICTURE_255.png,AREA,59860c81d75d360001b0bd95,28/09/1946,2020-09-10_14h10.47.175,proactive3.1,2020.1.2,MacIntel,60,5f599a131af4471f3d752b7b,5f5a25b8a6fc86080f09ce5c,3,,,,,,shovel,,,,,,,,,,,3,0,0,6,6,22,1,,,,,,,,,,,,,,,,,,,,,,,,,,,,,,,,,,,,,,,,,,,,,,,,,,,,,,,,,,,,,,,,,,,,,,,,,,,,,,,,,,,,,,,,,,,,,,,,,,,,,,,,
,,?,0.002,0,,,,,,stimuli/images/PICTURE_453.png,PLENTY,59860c81d75d360001b0bd95,28/09/1946,2020-09-10_14h10.47.175,proactive3.1,2020.1.2,MacIntel,60,5f599a131af4471f3d752b7b,5f5a25b8a6fc86080f09ce5c,3,,,,,,scissors,,,,,,,,,,,6,0,0,7,7,56,1,,,,,,,,,,,,,,,,,,,,,,,,,,,,,,,,,,,,,,,,,,,,,,,,,,,,,,,,,,,,,,,,,,,,,,,,,,,,,,,,,,,,,,,,,,,,,,,,,,,,,,,,
,,ARTIST,8.349,0,,,,,,stimuli/images/PICTURE_233.png,IDEAS,59860c81d75d360001b0bd95,28/09/1946,2020-09-10_14h10.47.175,proactive3.1,2020.1.2,MacIntel,60,5f599a131af4471f3d752b7b,5f5a25b8a6fc86080f09ce5c,3,,,,,,salt,,,,,,,,,,,3,0,0,8,8,28,1,,,,,,,,,,,,,,,,,,,,,,,,,,,,,,,,,,,,,,,,,,,,,,,,,,,,,,,,,,,,,,,,,,,,,,,,,,,,,,,,,,,,,,,,,,,,,,,,,,,,,,,,
,,?,0.001,0,,,,,,stimuli/images/PICTURE_504.png,BODY,59860c81d75d360001b0bd95,28/09/1946,2020-09-10_14h10.47.175,proactive3.1,2020.1.2,MacIntel,60,5f599a131af4471f3d752b7b,5f5a25b8a6fc86080f09ce5c,3,,,,,,wheel,,,,,,,,,,,1,0,0,9,9,8,1,,,,,,,,,,,,,,,,,,,,,,,,,,,,,,,,,,,,,,,,,,,,,,,,,,,,,,,,,,,,,,,,,,,,,,,,,,,,,,,,,,,,,,,,,,,,,,,,,,,,,,,,
,,?,0.001,0,,,,,,stimuli/images/PICTURE_327.png,BEAUTY,59860c81d75d360001b0bd95,28/09/1946,2020-09-10_14h10.47.175,proactive3.1,2020.1.2,MacIntel,60,5f599a131af4471f3d752b7b,5f5a25b8a6fc86080f09ce5c,3,,,,,,helmet,,,,,,,,,,,5,0,0,10,10,48,1,,,,,,,,,,,,,,,,,,,,,,,,,,,,,,,,,,,,,,,,,,,,,,,,,,,,,,,,,,,,,,,,,,,,,,,,,,,,,,,,,,,,,,,,,,,,,,,,,,,,,,,,
,,ARTIST,3.546,1,,,,,,stimuli/images/PICTURE_203.png,ARTIST,59860c81d75d360001b0bd95,28/09/1946,2020-09-10_14h10.47.175,proactive3.1,2020.1.2,MacIntel,60,5f599a131af4471f3d752b7b,5f5a25b8a6fc86080f09ce5c,3,,,,,,cap,,,,,,,,,,,3,0,0,11,11,26,1,,,,,,,,,,,,,,,,,,,,,,,,,,,,,,,,,,,,,,,,,,,,,,,,,,,,,,,,,,,,,,,,,,,,,,,,,,,,,,,,,,,,,,,,,,,,,,,,,,,,,,,,
,,?,0.002,0,,,,,,stimuli/images/PICTURE_692.png,MONTH,59860c81d75d360001b0bd95,28/09/1946,2020-09-10_14h10.47.175,proactive3.1,2020.1.2,MacIntel,60,5f599a131af4471f3d752b7b,5f5a25b8a6fc86080f09ce5c,3,,,,,,cherry,,,,,,,,,,,2,0,0,12,12,16,1,,,,,,,,,,,,,,,,,,,,,,,,,,,,,,,,,,,,,,,,,,,,,,,,,,,,,,,,,,,,,,,,,,,,,,,,,,,,,,,,,,,,,,,,,,,,,,,,,,,,,,,,
,,?,0.002,0,,,,,,stimuli/images/PICTURE_744.png,SAKE,59860c81d75d360001b0bd95,28/09/1946,2020-09-10_14h10.47.175,proactive3.1,2020.1.2,MacIntel,60,5f599a131af4471f3d752b7b,5f5a25b8a6fc86080f09ce5c,3,,,,,,ring,,,,,,,,,,,2,0,0,13,13,17,1,,,,,,,,,,,,,,,,,,,,,,,,,,,,,,,,,,,,,,,,,,,,,,,,,,,,,,,,,,,,,,,,,,,,,,,,,,,,,,,,,,,,,,,,,,,,,,,,,,,,,,,,
,,?,0.001,0,,,,,,stimuli/images/PICTURE_469.png,LETTER,59860c81d75d360001b0bd95,28/09/1946,2020-09-10_14h10.47.175,proactive3.1,2020.1.2,MacIntel,60,5f599a131af4471f3d752b7b,5f5a25b8a6fc86080f09ce5c,3,,,,,,stool,,,,,,,,,,,5,0,0,14,14,42,1,,,,,,,,,,,,,,,,,,,,,,,,,,,,,,,,,,,,,,,,,,,,,,,,,,,,,,,,,,,,,,,,,,,,,,,,,,,,,,,,,,,,,,,,,,,,,,,,,,,,,,,,
,,DUDE,12.029,0,,,,,,stimuli/images/PICTURE_708.png,YARD,59860c81d75d360001b0bd95,28/09/1946,2020-09-10_14h10.47.175,proactive3.1,2020.1.2,MacIntel,60,5f599a131af4471f3d752b7b,5f5a25b8a6fc86080f09ce5c,3,,,,,,monkey,,,,,,,,,,,3,0,0,15,15,29,1,,,,,,,,,,,,,,,,,,,,,,,,,,,,,,,,,,,,,,,,,,,,,,,,,,,,,,,,,,,,,,,,,,,,,,,,,,,,,,,,,,,,,,,,,,,,,,,,,,,,,,,,
,,?,0.001,0,,,,,,stimuli/images/PICTURE_208.png,LOTS,59860c81d75d360001b0bd95,28/09/1946,2020-09-10_14h10.47.175,proactive3.1,2020.1.2,MacIntel,60,5f599a131af4471f3d752b7b,5f5a25b8a6fc86080f09ce5c,3,,,,,,microphone,,,,,,,,,,,2,0,0,16,16,10,1,,,,,,,,,,,,,,,,,,,,,,,,,,,,,,,,,,,,,,,,,,,,,,,,,,,,,,,,,,,,,,,,,,,,,,,,,,,,,,,,,,,,,,,,,,,,,,,,,,,,,,,,
,,?,0.001,0,,,,,,stimuli/images/PICTURE_208.png,MONTH,59860c81d75d360001b0bd95,28/09/1946,2020-09-10_14h10.47.175,proactive3.1,2020.1.2,MacIntel,60,5f599a131af4471f3d752b7b,5f5a25b8a6fc86080f09ce5c,3,,,,,,microphone,,,,,,,,,,,6,0,0,17,17,53,1,,,,,,,,,,,,,,,,,,,,,,,,,,,,,,,,,,,,,,,,,,,,,,,,,,,,,,,,,,,,,,,,,,,,,,,,,,,,,,,,,,,,,,,,,,,,,,,,,,,,,,,,
,,?,0.001,0,,,,,,stimuli/images/PICTURE_677.png,MILE,59860c81d75d360001b0bd95,28/09/1946,2020-09-10_14h10.47.175,proactive3.1,2020.1.2,MacIntel,60,5f599a131af4471f3d752b7b,5f5a25b8a6fc86080f09ce5c,3,,,,,,map,,,,,,,,,,,4,0,0,18,18,30,1,,,,,,,,,,,,,,,,,,,,,,,,,,,,,,,,,,,,,,,,,,,,,,,,,,,,,,,,,,,,,,,,,,,,,,,,,,,,,,,,,,,,,,,,,,,,,,,,,,,,,,,,
,,?,0.001,0,,,,,,stimuli/images/PICTURE_68.png,MILE,59860c81d75d360001b0bd95,28/09/1946,2020-09-10_14h10.47.175,proactive3.1,2020.1.2,MacIntel,60,5f599a131af4471f3d752b7b,5f5a25b8a6fc86080f09ce5c,3,,,,,,candle,,,,,,,,,,,5,0,0,19,19,44,1,,,,,,,,,,,,,,,,,,,,,,,,,,,,,,,,,,,,,,,,,,,,,,,,,,,,,,,,,,,,,,,,,,,,,,,,,,,,,,,,,,,,,,,,,,,,,,,,,,,,,,,,
,,?,0.001,0,,,,,,stimuli/images/PICTURE_177.png,CARS,59860c81d75d360001b0bd95,28/09/1946,2020-09-10_14h10.47.175,proactive3.1,2020.1.2,MacIntel,60,5f599a131af4471f3d752b7b,5f5a25b8a6fc86080f09ce5c,3,,,,,,mushroom,,,,,,,,,,,4,0,0,20,20,35,1,,,,,,,,,,,,,,,,,,,,,,,,,,,,,,,,,,,,,,,,,,,,,,,,,,,,,,,,,,,,,,,,,,,,,,,,,,,,,,,,,,,,,,,,,,,,,,,,,,,,,,,,
,,?,0,0,,,,,,stimuli/images/PICTURE_449.png,THING,59860c81d75d360001b0bd95,28/09/1946,2020-09-10_14h10.47.175,proactive3.1,2020.1.2,MacIntel,60,5f599a131af4471f3d752b7b,5f5a25b8a6fc86080f09ce5c,3,,,,,,bench,,,,,,,,,,,6,0,0,21,21,59,1,,,,,,,,,,,,,,,,,,,,,,,,,,,,,,,,,,,,,,,,,,,,,,,,,,,,,,,,,,,,,,,,,,,,,,,,,,,,,,,,,,,,,,,,,,,,,,,,,,,,,,,,
,,?,0.001,0,,,,,,stimuli/images/PICTURE_311.png,FRIEND,59860c81d75d360001b0bd95,28/09/1946,2020-09-10_14h10.47.175,proactive3.1,2020.1.2,MacIntel,60,5f599a131af4471f3d752b7b,5f5a25b8a6fc86080f09ce5c,3,,,,,,razor,,,,,,,,,,,4,0,0,22,22,34,1,,,,,,,,,,,,,,,,,,,,,,,,,,,,,,,,,,,,,,,,,,,,,,,,,,,,,,,,,,,,,,,,,,,,,,,,,,,,,,,,,,,,,,,,,,,,,,,,,,,,,,,,
,,?,12.165,0,,,,,,stimuli/images/PICTURE_348.png,SPEECH,59860c81d75d360001b0bd95,28/09/1946,2020-09-10_14h10.47.175,proactive3.1,2020.1.2,MacIntel,60,5f599a131af4471f3d752b7b,5f5a25b8a6fc86080f09ce5c,3,,,,,,pepper,,,,,,,,,,,3,0,0,23,23,20,1,,,,,,,,,,,,,,,,,,,,,,,,,,,,,,,,,,,,,,,,,,,,,,,,,,,,,,,,,,,,,,,,,,,,,,,,,,,,,,,,,,,,,,,,,,,,,,,,,,,,,,,,
,,?,0.002,0,,,,,,stimuli/images/PICTURE_308.png,KIND,59860c81d75d360001b0bd95,28/09/1946,2020-09-10_14h10.47.175,proactive3.1,2020.1.2,MacIntel,60,5f599a131af4471f3d752b7b,5f5a25b8a6fc86080f09ce5c,3,,,,,,dice,,,,,,,,,,,6,0,0,24,24,54,1,,,,,,,,,,,,,,,,,,,,,,,,,,,,,,,,,,,,,,,,,,,,,,,,,,,,,,,,,,,,,,,,,,,,,,,,,,,,,,,,,,,,,,,,,,,,,,,,,,,,,,,,
,,?,0.001,0,,,,,,stimuli/images/PICTURE_302.png,FAMILY,59860c81d75d360001b0bd95,28/09/1946,2020-09-10_14h10.47.175,proactive3.1,2020.1.2,MacIntel,60,5f599a131af4471f3d752b7b,5f5a25b8a6fc86080f09ce5c,3,,,,,,taxi,,,,,,,,,,,2,0,0,25,25,18,1,,,,,,,,,,,,,,,,,,,,,,,,,,,,,,,,,,,,,,,,,,,,,,,,,,,,,,,,,,,,,,,,,,,,,,,,,,,,,,,,,,,,,,,,,,,,,,,,,,,,,,,,
,,?,0.001,0,,,,,,stimuli/images/PICTURE_744.png,SYSTEM,59860c81d75d360001b0bd95,28/09/1946,2020-09-10_14h10.47.175,proactive3.1,2020.1.2,MacIntel,60,5f599a131af4471f3d752b7b,5f5a25b8a6fc86080f09ce5c,3,,,,,,ring,,,,,,,,,,,5,0,0,26,26,43,1,,,,,,,,,,,,,,,,,,,,,,,,,,,,,,,,,,,,,,,,,,,,,,,,,,,,,,,,,,,,,,,,,,,,,,,,,,,,,,,,,,,,,,,,,,,,,,,,,,,,,,,,
,,?,0.002,0,,,,,,stimuli/images/PICTURE_470.png,CASINO,59860c81d75d360001b0bd95,28/09/1946,2020-09-10_14h10.47.175,proactive3.1,2020.1.2,MacIntel,60,5f599a131af4471f3d752b7b,5f5a25b8a6fc86080f09ce5c,3,,,,,,motorbike,,,,,,,,,,,4,0,0,27,27,36,1,,,,,,,,,,,,,,,,,,,,,,,,,,,,,,,,,,,,,,,,,,,,,,,,,,,,,,,,,,,,,,,,,,,,,,,,,,,,,,,,,,,,,,,,,,,,,,,,,,,,,,,,
,,?,0.001,0,,,,,,stimuli/images/PICTURE_147.png,MOMENT,59860c81d75d360001b0bd95,28/09/1946,2020-09-10_14h10.47.175,proactive3.1,2020.1.2,MacIntel,60,5f599a131af4471f3d752b7b,5f5a25b8a6fc86080f09ce5c,3,,,,,,hanger,,,,,,,,,,,6,0,0,28,28,51,1,,,,,,,,,,,,,,,,,,,,,,,,,,,,,,,,,,,,,,,,,,,,,,,,,,,,,,,,,,,,,,,,,,,,,,,,,,,,,,,,,,,,,,,,,,,,,,,,,,,,,,,,
,,?,0.001,0,,,,,,stimuli/images/PICTURE_151.png,GIRL,59860c81d75d360001b0bd95,28/09/1946,2020-09-10_14h10.47.175,proactive3.1,2020.1.2,MacIntel,60,5f599a131af4471f3d752b7b,5f5a25b8a6fc86080f09ce5c,3,,,,,,tray,,,,,,,,,,,2,0,0,29,29,19,1,,,,,,,,,,,,,,,,,,,,,,,,,,,,,,,,,,,,,,,,,,,,,,,,,,,,,,,,,,,,,,,,,,,,,,,,,,,,,,,,,,,,,,,,,,,,,,,,,,,,,,,,
,,?,0.001,0,,,,,,stimuli/images/PICTURE_708.png,CLIENT,59860c81d75d360001b0bd95,28/09/1946,2020-09-10_14h10.47.175,proactive3.1,2020.1.2,MacIntel,60,5f599a131af4471f3d752b7b,5f5a25b8a6fc86080f09ce5c,3,,,,,,monkey,,,,,,,,,,,1,0,0,30,30,5,1,,,,,,,,,,,,,,,,,,,,,,,,,,,,,,,,,,,,,,,,,,,,,,,,,,,,,,,,,,,,,,,,,,,,,,,,,,,,,,,,,,,,,,,,,,,,,,,,,,,,,,,,
,,?,0,0,,,,,,stimuli/images/PICTURE_488.png,STYLE,59860c81d75d360001b0bd95,28/09/1946,2020-09-10_14h10.47.175,proactive3.1,2020.1.2,MacIntel,60,5f599a131af4471f3d752b7b,5f5a25b8a6fc86080f09ce5c,3,,,,,,sun,,,,,,,,,,,4,0,0,31,31,33,1,,,,,,,,,,,,,,,,,,,,,,,,,,,,,,,,,,,,,,,,,,,,,,,,,,,,,,,,,,,,,,,,,,,,,,,,,,,,,,,,,,,,,,,,,,,,,,,,,,,,,,,,
,,?,0.001,0,,,,,,stimuli/images/PICTURE_160.png,LEADER,59860c81d75d360001b0bd95,28/09/1946,2020-09-10_14h10.47.175,proactive3.1,2020.1.2,MacIntel,60,5f599a131af4471f3d752b7b,5f5a25b8a6fc86080f09ce5c,3,,,,,,wheelbarrow,,,,,,,,,,,1,0,0,32,32,3,1,,,,,,,,,,,,,,,,,,,,,,,,,,,,,,,,,,,,,,,,,,,,,,,,,,,,,,,,,,,,,,,,,,,,,,,,,,,,,,,,,,,,,,,,,,,,,,,,,,,,,,,,
,,?,0.001,0,,,,,,stimuli/images/PICTURE_654.png,VALLEY,59860c81d75d360001b0bd95,28/09/1946,2020-09-10_14h10.47.175,proactive3.1,2020.1.2,MacIntel,60,5f599a131af4471f3d752b7b,5f5a25b8a6fc86080f09ce5c,3,,,,,,pencil,,,,,,,,,,,1,0,0,33,33,1,1,,,,,,,,,,,,,,,,,,,,,,,,,,,,,,,,,,,,,,,,,,,,,,,,,,,,,,,,,,,,,,,,,,,,,,,,,,,,,,,,,,,,,,,,,,,,,,,,,,,,,,,,
,,?,0.001,0,,,,,,stimuli/images/PICTURE_667.png,BATH,59860c81d75d360001b0bd95,28/09/1946,2020-09-10_14h10.47.175,proactive3.1,2020.1.2,MacIntel,60,5f599a131af4471f3d752b7b,5f5a25b8a6fc86080f09ce5c,3,,,,,,daisy,,,,,,,,,,,1,0,0,34,34,4,1,,,,,,,,,,,,,,,,,,,,,,,,,,,,,,,,,,,,,,,,,,,,,,,,,,,,,,,,,,,,,,,,,,,,,,,,,,,,,,,,,,,,,,,,,,,,,,,,,,,,,,,,
,,?,0.001,0,,,,,,stimuli/images/PICTURE_339.png,PLENTY,59860c81d75d360001b0bd95,28/09/1946,2020-09-10_14h10.47.175,proactive3.1,2020.1.2,MacIntel,60,5f599a131af4471f3d752b7b,5f5a25b8a6fc86080f09ce5c,3,,,,,,backpack,,,,,,,,,,,1,0,0,35,35,0,1,,,,,,,,,,,,,,,,,,,,,,,,,,,,,,,,,,,,,,,,,,,,,,,,,,,,,,,,,,,,,,,,,,,,,,,,,,,,,,,,,,,,,,,,,,,,,,,,,,,,,,,,
,,?,0.001,0,,,,,,stimuli/images/PICTURE_688.png,CASINO,59860c81d75d360001b0bd95,28/09/1946,2020-09-10_14h10.47.175,proactive3.1,2020.1.2,MacIntel,60,5f599a131af4471f3d752b7b,5f5a25b8a6fc86080f09ce5c,3,,,,,,runner,,,,,,,,,,,1,0,0,36,36,2,1,,,,,,,,,,,,,,,,,,,,,,,,,,,,,,,,,,,,,,,,,,,,,,,,,,,,,,,,,,,,,,,,,,,,,,,,,,,,,,,,,,,,,,,,,,,,,,,,,,,,,,,,
,,?,0.001,0,,,,,,stimuli/images/PICTURE_308.png,ESTATE,59860c81d75d360001b0bd95,28/09/1946,2020-09-10_14h10.47.175,proactive3.1,2020.1.2,MacIntel,60,5f599a131af4471f3d752b7b,5f5a25b8a6fc86080f09ce5c,3,,,,,,dice,,,,,,,,,,,5,0,0,37,37,46,1,,,,,,,,,,,,,,,,,,,,,,,,,,,,,,,,,,,,,,,,,,,,,,,,,,,,,,,,,,,,,,,,,,,,,,,,,,,,,,,,,,,,,,,,,,,,,,,,,,,,,,,,
,,?,0,0,,,,,,stimuli/images/PICTURE_248.png,DOZEN,59860c81d75d360001b0bd95,28/09/1946,2020-09-10_14h10.47.175,proactive3.1,2020.1.2,MacIntel,60,5f599a131af4471f3d752b7b,5f5a25b8a6fc86080f09ce5c,3,,,,,,cart,,,,,,,,,,,4,0,0,38,38,39,1,,,,,,,,,,,,,,,,,,,,,,,,,,,,,,,,,,,,,,,,,,,,,,,,,,,,,,,,,,,,,,,,,,,,,,,,,,,,,,,,,,,,,,,,,,,,,,,,,,,,,,,,
,,?,0.001,0,,,,,,stimuli/images/PICTURE_380.png,PHOTO,59860c81d75d360001b0bd95,28/09/1946,2020-09-10_14h10.47.175,proactive3.1,2020.1.2,MacIntel,60,5f599a131af4471f3d752b7b,5f5a25b8a6fc86080f09ce5c,3,,,,,,gorilla,,,,,,,,,,,6,0,0,39,39,52,1,,,,,,,,,,,,,,,,,,,,,,,,,,,,,,,,,,,,,,,,,,,,,,,,,,,,,,,,,,,,,,,,,,,,,,,,,,,,,,,,,,,,,,,,,,,,,,,,,,,,,,,,
,,?,0.001,0,,,,,,stimuli/images/PICTURE_314.png,GODS,59860c81d75d360001b0bd95,28/09/1946,2020-09-10_14h10.47.175,proactive3.1,2020.1.2,MacIntel,60,5f599a131af4471f3d752b7b,5f5a25b8a6fc86080f09ce5c,3,,,,,,perfume,,,,,,,,,,,2,0,0,40,40,11,1,,,,,,,,,,,,,,,,,,,,,,,,,,,,,,,,,,,,,,,,,,,,,,,,,,,,,,,,,,,,,,,,,,,,,,,,,,,,,,,,,,,,,,,,,,,,,,,,,,,,,,,,
,,?,0.001,0,,,,,,stimuli/images/PICTURE_285.png,ADVICE,59860c81d75d360001b0bd95,28/09/1946,2020-09-10_14h10.47.175,proactive3.1,2020.1.2,MacIntel,60,5f599a131af4471f3d752b7b,5f5a25b8a6fc86080f09ce5c,3,,,,,,carrot,,,,,,,,,,,2,0,0,41,41,12,1,,,,,,,,,,,,,,,,,,,,,,,,,,,,,,,,,,,,,,,,,,,,,,,,,,,,,,,,,,,,,,,,,,,,,,,,,,,,,,,,,,,,,,,,,,,,,,,,,,,,,,,,
,,?,0.001,0,,,,,,stimuli/images/PICTURE_233.png,WOMEN,59860c81d75d360001b0bd95,28/09/1946,2020-09-10_14h10.47.175,proactive3.1,2020.1.2,MacIntel,60,5f599a131af4471f3d752b7b,5f5a25b8a6fc86080f09ce5c,3,,,,,,salt,,,,,,,,,,,4,0,0,42,42,38,1,,,,,,,,,,,,,,,,,,,,,,,,,,,,,,,,,,,,,,,,,,,,,,,,,,,,,,,,,,,,,,,,,,,,,,,,,,,,,,,,,,,,,,,,,,,,,,,,,,,,,,,,
,,?,0.001,0,,,,,,stimuli/images/PICTURE_215.png,PLENTY,59860c81d75d360001b0bd95,28/09/1946,2020-09-10_14h10.47.175,proactive3.1,2020.1.2,MacIntel,60,5f599a131af4471f3d752b7b,5f5a25b8a6fc86080f09ce5c,3,,,,,,boot,,,,,,,,,,,4,0,0,43,43,37,1,,,,,,,,,,,,,,,,,,,,,,,,,,,,,,,,,,,,,,,,,,,,,,,,,,,,,,,,,,,,,,,,,,,,,,,,,,,,,,,,,,,,,,,,,,,,,,,,,,,,,,,,
,,?,0,0,,,,,,stimuli/images/PICTURE_487.png,FLIGHT,59860c81d75d360001b0bd95,28/09/1946,2020-09-10_14h10.47.175,proactive3.1,2020.1.2,MacIntel,60,5f599a131af4471f3d752b7b,5f5a25b8a6fc86080f09ce5c,3,,,,,,basket,,,,,,,,,,,1,0,0,44,44,9,1,,,,,,,,,,,,,,,,,,,,,,,,,,,,,,,,,,,,,,,,,,,,,,,,,,,,,,,,,,,,,,,,,,,,,,,,,,,,,,,,,,,,,,,,,,,,,,,,,,,,,,,,
,,?,0,0,,,,,,stimuli/images/PICTURE_675.png,WEAPON,59860c81d75d360001b0bd95,28/09/1946,2020-09-10_14h10.47.175,proactive3.1,2020.1.2,MacIntel,60,5f599a131af4471f3d752b7b,5f5a25b8a6fc86080f09ce5c,3,,,,,,windmill,,,,,,,,,,,4,0,0,45,45,32,1,,,,,,,,,,,,,,,,,,,,,,,,,,,,,,,,,,,,,,,,,,,,,,,,,,,,,,,,,,,,,,,,,,,,,,,,,,,,,,,,,,,,,,,,,,,,,,,,,,,,,,,,
,,?,0.001,0,,,,,,stimuli/images/PICTURE_160.png,FEET,59860c81d75d360001b0bd95,28/09/1946,2020-09-10_14h10.47.175,proactive3.1,2020.1.2,MacIntel,60,5f599a131af4471f3d752b7b,5f5a25b8a6fc86080f09ce5c,3,,,,,,wheelbarrow,,,,,,,,,,,6,0,0,46,46,58,1,,,,,,,,,,,,,,,,,,,,,,,,,,,,,,,,,,,,,,,,,,,,,,,,,,,,,,,,,,,,,,,,,,,,,,,,,,,,,,,,,,,,,,,,,,,,,,,,,,,,,,,,
,,?,0,0,,,,,,stimuli/images/PICTURE_708.png,PENNY,59860c81d75d360001b0bd95,28/09/1946,2020-09-10_14h10.47.175,proactive3.1,2020.1.2,MacIntel,60,5f599a131af4471f3d752b7b,5f5a25b8a6fc86080f09ce5c,3,,,,,,monkey,,,,,,,,,,,4,0,0,47,47,31,1,,,,,,,,,,,,,,,,,,,,,,,,,,,,,,,,,,,,,,,,,,,,,,,,,,,,,,,,,,,,,,,,,,,,,,,,,,,,,,,,,,,,,,,,,,,,,,,,,,,,,,,,
,,?,0,0,,,,,,stimuli/images/PICTURE_32.png,JUNGLE,59860c81d75d360001b0bd95,28/09/1946,2020-09-10_14h10.47.175,proactive3.1,2020.1.2,MacIntel,60,5f599a131af4471f3d752b7b,5f5a25b8a6fc86080f09ce5c,3,,,,,,crown,,,,,,,,,,,5,0,0,48,48,45,1,,,,,,,,,,,,,,,,,,,,,,,,,,,,,,,,,,,,,,,,,,,,,,,,,,,,,,,,,,,,,,,,,,,,,,,,,,,,,,,,,,,,,,,,,,,,,,,,,,,,,,,,
,,?,0.001,0,,,,,,stimuli/images/PICTURE_491.png,WRITER,59860c81d75d360001b0bd95,28/09/1946,2020-09-10_14h10.47.175,proactive3.1,2020.1.2,MacIntel,60,5f599a131af4471f3d752b7b,5f5a25b8a6fc86080f09ce5c,3,,,,,,rug,,,,,,,,,,,6,0,0,49,49,57,1,,,,,,,,,,,,,,,,,,,,,,,,,,,,,,,,,,,,,,,,,,,,,,,,,,,,,,,,,,,,,,,,,,,,,,,,,,,,,,,,,,,,,,,,,,,,,,,,,,,,,,,,
,,?,0,0,,,,,,stimuli/images/PICTURE_314.png,SAKE,59860c81d75d360001b0bd95,28/09/1946,2020-09-10_14h10.47.175,proactive3.1,2020.1.2,MacIntel,60,5f599a131af4471f3d752b7b,5f5a25b8a6fc86080f09ce5c,3,,,,,,perfume,,,,,,,,,,,1,0,0,50,50,7,1,,,,,,,,,,,,,,,,,,,,,,,,,,,,,,,,,,,,,,,,,,,,,,,,,,,,,,,,,,,,,,,,,,,,,,,,,,,,,,,,,,,,,,,,,,,,,,,,,,,,,,,,
,,DUDE,2.671,1,,,,,,stimuli/images/PICTURE_453.png,DUDE,59860c81d75d360001b0bd95,28/09/1946,2020-09-10_14h10.47.175,proactive3.1,2020.1.2,MacIntel,60,5f599a131af4471f3d752b7b,5f5a25b8a6fc86080f09ce5c,3,,,,,,scissors,,,,,,,,,,,3,0,0,51,51,27,1,,,,,,,,,,,,,,,,,,,,,,,,,,,,,,,,,,,,,,,,,,,,,,,,,,,,,,,,,,,,,,,,,,,,,,,,,,,,,,,,,,,,,,,,,,,,,,,,,,,,,,,,
,,ROOF,2.735,1,,,,,,stimuli/images/PICTURE_491.png,ROOF,59860c81d75d360001b0bd95,28/09/1946,2020-09-10_14h10.47.175,proactive3.1,2020.1.2,MacIntel,60,5f599a131af4471f3d752b7b,5f5a25b8a6fc86080f09ce5c,3,,,,,,rug,,,,,,,,,,,3,0,0,52,52,24,1,,,,,,,,,,,,,,,,,,,,,,,,,,,,,,,,,,,,,,,,,,,,,,,,,,,,,,,,,,,,,,,,,,,,,,,,,,,,,,,,,,,,,,,,,,,,,,,,,,,,,,,,
,,?,0.001,0,,,,,,stimuli/images/PICTURE_123.png,ADVICE,59860c81d75d360001b0bd95,28/09/1946,2020-09-10_14h10.47.175,proactive3.1,2020.1.2,MacIntel,60,5f599a131af4471f3d752b7b,5f5a25b8a6fc86080f09ce5c,3,,,,,,dart,,,,,,,,,,,5,0,0,53,53,40,1,,,,,,,,,,,,,,,,,,,,,,,,,,,,,,,,,,,,,,,,,,,,,,,,,,,,,,,,,,,,,,,,,,,,,,,,,,,,,,,,,,,,,,,,,,,,,,,,,,,,,,,,
,,?,0.001,0,,,,,,stimuli/images/PICTURE_667.png,PLENTY,59860c81d75d360001b0bd95,28/09/1946,2020-09-10_14h10.47.175,proactive3.1,2020.1.2,MacIntel,60,5f599a131af4471f3d752b7b,5f5a25b8a6fc86080f09ce5c,3,,,,,,daisy,,,,,,,,,,,5,0,0,54,54,41,1,,,,,,,,,,,,,,,,,,,,,,,,,,,,,,,,,,,,,,,,,,,,,,,,,,,,,,,,,,,,,,,,,,,,,,,,,,,,,,,,,,,,,,,,,,,,,,,,,,,,,,,,
,,?,0.001,0,,,,,,stimuli/images/PICTURE_469.png,ARTIST,59860c81d75d360001b0bd95,28/09/1946,2020-09-10_14h10.47.175,proactive3.1,2020.1.2,MacIntel,60,5f599a131af4471f3d752b7b,5f5a25b8a6fc86080f09ce5c,3,,,,,,stool,,,,,,,,,,,1,0,0,55,55,6,1,,,,,,,,,,,,,,,,,,,,,,,,,,,,,,,,,,,,,,,,,,,,,,,,,,,,,,,,,,,,,,,,,,,,,,,,,,,,,,,,,,,,,,,,,,,,,,,,,,,,,,,,
,,?,14.945,0,,,,,,stimuli/images/PICTURE_467.png,DEMON,59860c81d75d360001b0bd95,28/09/1946,2020-09-10_14h10.47.175,proactive3.1,2020.1.2,MacIntel,60,5f599a131af4471f3d752b7b,5f5a25b8a6fc86080f09ce5c,3,,,,,,peg,,,,,,,,,,,3,0,0,56,56,23,1,,,,,,,,,,,,,,,,,,,,,,,,,,,,,,,,,,,,,,,,,,,,,,,,,,,,,,,,,,,,,,,,,,,,,,,,,,,,,,,,,,,,,,,,,,,,,,,,,,,,,,,,
,,?,0.001,0,,,,,,stimuli/images/PICTURE_311.png,BEAUTY,59860c81d75d360001b0bd95,28/09/1946,2020-09-10_14h10.47.175,proactive3.1,2020.1.2,MacIntel,60,5f599a131af4471f3d752b7b,5f5a25b8a6fc86080f09ce5c,3,,,,,,razor,,,,,,,,,,,2,0,0,57,57,13,1,,,,,,,,,,,,,,,,,,,,,,,,,,,,,,,,,,,,,,,,,,,,,,,,,,,,,,,,,,,,,,,,,,,,,,,,,,,,,,,,,,,,,,,,,,,,,,,,,,,,,,,,
,,?,0.001,0,,,,,,stimuli/images/PICTURE_380.png,DEATH,59860c81d75d360001b0bd95,28/09/1946,2020-09-10_14h10.47.175,proactive3.1,2020.1.2,MacIntel,60,5f599a131af4471f3d752b7b,5f5a25b8a6fc86080f09ce5c,3,,,,,,gorilla,,,,,,,,,,,5,0,0,58,58,49,1,,,,,,,,,,,,,,,,,,,,,,,,,,,,,,,,,,,,,,,,,,,,,,,,,,,,,,,,,,,,,,,,,,,,,,,,,,,,,,,,,,,,,,,,,,,,,,,,,,,,,,,,
,,?,0.001,0,,,,,,stimuli/images/PICTURE_85.png,THING,59860c81d75d360001b0bd95,28/09/1946,2020-09-10_14h10.47.175,proactive3.1,2020.1.2,MacIntel,60,5f599a131af4471f3d752b7b,5f5a25b8a6fc86080f09ce5c,3,,,,,,diamond,,,,,,,,,,,2,0,0,59,59,15,1,,,,,,,,,,,,,,,,,,,,,,,,,,,,,,,,,,,,,,,,,,,,,,,,,,,,,,,,,,,,,,,,,,,,,,,,,,,,,,,,,,,,,,,,,,,,,,,,,,,,,,,,
,,,,,,,,,,,,59860c81d75d360001b0bd95,28/09/1946,2020-09-10_14h10.47.175,proactive3.1,2020.1.2,MacIntel,60,5f599a131af4471f3d752b7b,5f5a25b8a6fc86080f09ce5c,3,,,,,,,,,,,,,,,,,,,,,,,,0,0,0,0,1,stimuli/learn-block1.csv,,,,,,,,,,,,,,,,,,,,,,,,,,,,,,,,,,,,,,,,,,,,,,,,,,,,,,,,,,,,,,,,,,,,,,,,,,,,,,,,,,,,,,,,,,,,,,,,,,
,,,,,,,,,,stimuli/images/PICTURE_68.png,ROOF,59860c81d75d360001b0bd95,28/09/1946,2020-09-10_14h10.47.175,proactive3.1,2020.1.2,MacIntel,60,5f599a131af4471f3d752b7b,5f5a25b8a6fc86080f09ce5c,3,,,,,,candle,,,,,,0,0,0,38,1,4,1,,,,,,,,,,,,,,,,,,,,,,,,,,,,,,,,,,,,,,,,,,,,,,,,,,,,,,,,,,,,,,,,,,,,,,,,,,,,,,,,,,,,,,,,,,,,,,,,,,,,,,,,,,,,,
,,,,,,,,,,stimuli/images/PICTURE_491.png,GLASS,59860c81d75d360001b0bd95,28/09/1946,2020-09-10_14h10.47.175,proactive3.1,2020.1.2,MacIntel,60,5f599a131af4471f3d752b7b,5f5a25b8a6fc86080f09ce5c,3,,,,,,rug,,,,,,0,1,1,14,1,2,1,,,,,,,,,,,,,,,,,,,,,,,,,,,,,,,,,,,,,,,,,,,,,,,,,,,,,,,,,,,,,,,,,,,,,,,,,,,,,,,,,,,,,,,,,,,,,,,,,,,,,,,,,,,,,
,,,,,,,,,,stimuli/images/PICTURE_233.png,LOTS,59860c81d75d360001b0bd95,28/09/1946,2020-09-10_14h10.47.175,proactive3.1,2020.1.2,MacIntel,60,5f599a131af4471f3d752b7b,5f5a25b8a6fc86080f09ce5c,3,,,,,,salt,,,,,,0,2,2,42,1,5,1,,,,,,,,,,,,,,,,,,,,,,,,,,,,,,,,,,,,,,,,,,,,,,,,,,,,,,,,,,,,,,,,,,,,,,,,,,,,,,,,,,,,,,,,,,,,,,,,,,,,,,,,,,,,,
,,,,,,,,,,stimuli/images/PICTURE_380.png,HONEY,59860c81d75d360001b0bd95,28/09/1946,2020-09-10_14h10.47.175,proactive3.1,2020.1.2,MacIntel,60,5f599a131af4471f3d752b7b,5f5a25b8a6fc86080f09ce5c,3,,,,,,gorilla,,,,,,0,3,3,19,1,2,1,,,,,,,,,,,,,,,,,,,,,,,,,,,,,,,,,,,,,,,,,,,,,,,,,,,,,,,,,,,,,,,,,,,,,,,,,,,,,,,,,,,,,,,,,,,,,,,,,,,,,,,,,,,,,
,,,,,,,,,,stimuli/images/PICTURE_95.png,HONEY,59860c81d75d360001b0bd95,28/09/1946,2020-09-10_14h10.47.175,proactive3.1,2020.1.2,MacIntel,60,5f599a131af4471f3d752b7b,5f5a25b8a6fc86080f09ce5c,3,,,,,,suitcase,,,,,,0,4,4,44,1,5,1,,,,,,,,,,,,,,,,,,,,,,,,,,,,,,,,,,,,,,,,,,,,,,,,,,,,,,,,,,,,,,,,,,,,,,,,,,,,,,,,,,,,,,,,,,,,,,,,,,,,,,,,,,,,,
,,,,,,,,,,stimuli/images/PICTURE_383.png,SERIES,59860c81d75d360001b0bd95,28/09/1946,2020-09-10_14h10.47.175,proactive3.1,2020.1.2,MacIntel,60,5f599a131af4471f3d752b7b,5f5a25b8a6fc86080f09ce5c,3,,,,,,coin,,,,,,0,5,5,46,1,5,1,,,,,,,,,,,,,,,,,,,,,,,,,,,,,,,,,,,,,,,,,,,,,,,,,,,,,,,,,,,,,,,,,,,,,,,,,,,,,,,,,,,,,,,,,,,,,,,,,,,,,,,,,,,,,
,,,,,,,,,,stimuli/images/PICTURE_340.png,LETTER,59860c81d75d360001b0bd95,28/09/1946,2020-09-10_14h10.47.175,proactive3.1,2020.1.2,MacIntel,60,5f599a131af4471f3d752b7b,5f5a25b8a6fc86080f09ce5c,3,,,,,,mirror,,,,,,0,6,6,24,1,3,1,,,,,,,,,,,,,,,,,,,,,,,,,,,,,,,,,,,,,,,,,,,,,,,,,,,,,,,,,,,,,,,,,,,,,,,,,,,,,,,,,,,,,,,,,,,,,,,,,,,,,,,,,,,,,
,,,,,,,,,,stimuli/images/PICTURE_95.png,BOYS,59860c81d75d360001b0bd95,28/09/1946,2020-09-10_14h10.47.175,proactive3.1,2020.1.2,MacIntel,60,5f599a131af4471f3d752b7b,5f5a25b8a6fc86080f09ce5c,3,,,,,,suitcase,,,,,,0,7,7,1,1,1,1,,,,,,,,,,,,,,,,,,,,,,,,,,,,,,,,,,,,,,,,,,,,,,,,,,,,,,,,,,,,,,,,,,,,,,,,,,,,,,,,,,,,,,,,,,,,,,,,,,,,,,,,,,,,,
,,,,,,,,,,stimuli/images/PICTURE_675.png,SALE,59860c81d75d360001b0bd95,28/09/1946,2020-09-10_14h10.47.175,proactive3.1,2020.1.2,MacIntel,60,5f599a131af4471f3d752b7b,5f5a25b8a6fc86080f09ce5c,3,,,,,,windmill,,,,,,0,8,8,47,1,5,1,,,,,,,,,,,,,,,,,,,,,,,,,,,,,,,,,,,,,,,,,,,,,,,,,,,,,,,,,,,,,,,,,,,,,,,,,,,,,,,,,,,,,,,,,,,,,,,,,,,,,,,,,,,,,
,,,,,,,,,,stimuli/images/PICTURE_42.png,BOYS,59860c81d75d360001b0bd95,28/09/1946,2020-09-10_14h10.47.175,proactive3.1,2020.1.2,MacIntel,60,5f599a131af4471f3d752b7b,5f5a25b8a6fc86080f09ce5c,3,,,,,,pear,,,,,,0,9,9,55,1,6,1,,,,,,,,,,,,,,,,,,,,,,,,,,,,,,,,,,,,,,,,,,,,,,,,,,,,,,,,,,,,,,,,,,,,,,,,,,,,,,,,,,,,,,,,,,,,,,,,,,,,,,,,,,,,,
,,,,,,,,,,stimuli/images/PICTURE_491.png,RIVER,59860c81d75d360001b0bd95,28/09/1946,2020-09-10_14h10.47.175,proactive3.1,2020.1.2,MacIntel,60,5f599a131af4471f3d752b7b,5f5a25b8a6fc86080f09ce5c,3,,,,,,rug,,,,,,0,10,10,6,1,1,1,,,,,,,,,,,,,,,,,,,,,,,,,,,,,,,,,,,,,,,,,,,,,,,,,,,,,,,,,,,,,,,,,,,,,,,,,,,,,,,,,,,,,,,,,,,,,,,,,,,,,,,,,,,,,
,,,,,,,,,,stimuli/images/PICTURE_308.png,FAMILY,59860c81d75d360001b0bd95,28/09/1946,2020-09-10_14h10.47.175,proactive3.1,2020.1.2,MacIntel,60,5f599a131af4471f3d752b7b,5f5a25b8a6fc86080f09ce5c,3,,,,,,dice,,,,,,0,11,11,36,1,4,1,,,,,,,,,,,,,,,,,,,,,,,,,,,,,,,,,,,,,,,,,,,,,,,,,,,,,,,,,,,,,,,,,,,,,,,,,,,,,,,,,,,,,,,,,,,,,,,,,,,,,,,,,,,,,
,,,,,,,,,,stimuli/images/PICTURE_449.png,DUDE,59860c81d75d360001b0bd95,28/09/1946,2020-09-10_14h10.47.175,proactive3.1,2020.1.2,MacIntel,60,5f599a131af4471f3d752b7b,5f5a25b8a6fc86080f09ce5c,3,,,,,,bench,,,,,,0,12,12,17,1,2,1,,,,,,,,,,,,,,,,,,,,,,,,,,,,,,,,,,,,,,,,,,,,,,,,,,,,,,,,,,,,,,,,,,,,,,,,,,,,,,,,,,,,,,,,,,,,,,,,,,,,,,,,,,,,,
,,,,,,,,,,stimuli/images/PICTURE_296.png,LOTS,59860c81d75d360001b0bd95,28/09/1946,2020-09-10_14h10.47.175,proactive3.1,2020.1.2,MacIntel,60,5f599a131af4471f3d752b7b,5f5a25b8a6fc86080f09ce5c,3,,,,,,bolt,,,,,,0,13,13,9,1,1,1,,,,,,,,,,,,,,,,,,,,,,,,,,,,,,,,,,,,,,,,,,,,,,,,,,,,,,,,,,,,,,,,,,,,,,,,,,,,,,,,,,,,,,,,,,,,,,,,,,,,,,,,,,,,,
,,,,,,,,,,stimuli/images/PICTURE_403.png,TOILET,59860c81d75d360001b0bd95,28/09/1946,2020-09-10_14h10.47.175,proactive3.1,2020.1.2,MacIntel,60,5f599a131af4471f3d752b7b,5f5a25b8a6fc86080f09ce5c,3,,,,,,cathedral,,,,,,0,14,14,25,1,3,1,,,,,,,,,,,,,,,,,,,,,,,,,,,,,,,,,,,,,,,,,,,,,,,,,,,,,,,,,,,,,,,,,,,,,,,,,,,,,,,,,,,,,,,,,,,,,,,,,,,,,,,,,,,,,
,,,,,,,,,,stimuli/images/PICTURE_708.png,RECORD,59860c81d75d360001b0bd95,28/09/1946,2020-09-10_14h10.47.175,proactive3.1,2020.1.2,MacIntel,60,5f599a131af4471f3d752b7b,5f5a25b8a6fc86080f09ce5c,3,,,,,,monkey,,,,,,0,15,15,58,1,6,1,,,,,,,,,,,,,,,,,,,,,,,,,,,,,,,,,,,,,,,,,,,,,,,,,,,,,,,,,,,,,,,,,,,,,,,,,,,,,,,,,,,,,,,,,,,,,,,,,,,,,,,,,,,,,
,,,,,,,,,,stimuli/images/PICTURE_654.png,MONTH,59860c81d75d360001b0bd95,28/09/1946,2020-09-10_14h10.47.175,proactive3.1,2020.1.2,MacIntel,60,5f599a131af4471f3d752b7b,5f5a25b8a6fc86080f09ce5c,3,,,,,,pencil,,,,,,0,16,16,29,1,3,1,,,,,,,,,,,,,,,,,,,,,,,,,,,,,,,,,,,,,,,,,,,,,,,,,,,,,,,,,,,,,,,,,,,,,,,,,,,,,,,,,,,,,,,,,,,,,,,,,,,,,,,,,,,,,
,,,,,,,,,,stimuli/images/PICTURE_380.png,CANDY,59860c81d75d360001b0bd95,28/09/1946,2020-09-10_14h10.47.175,proactive3.1,2020.1.2,MacIntel,60,5f599a131af4471f3d752b7b,5f5a25b8a6fc86080f09ce5c,3,,,,,,gorilla,,,,,,0,17,17,0,1,1,1,,,,,,,,,,,,,,,,,,,,,,,,,,,,,,,,,,,,,,,,,,,,,,,,,,,,,,,,,,,,,,,,,,,,,,,,,,,,,,,,,,,,,,,,,,,,,,,,,,,,,,,,,,,,,
,,,,,,,,,,stimuli/images/PICTURE_203.png,NIGHT,59860c81d75d360001b0bd95,28/09/1946,2020-09-10_14h10.47.175,proactive3.1,2020.1.2,MacIntel,60,5f599a131af4471f3d752b7b,5f5a25b8a6fc86080f09ce5c,3,,,,,,cap,,,,,,0,18,18,2,1,1,1,,,,,,,,,,,,,,,,,,,,,,,,,,,,,,,,,,,,,,,,,,,,,,,,,,,,,,,,,,,,,,,,,,,,,,,,,,,,,,,,,,,,,,,,,,,,,,,,,,,,,,,,,,,,,
,,,,,,,,,,stimuli/images/PICTURE_147.png,YEAR,59860c81d75d360001b0bd95,28/09/1946,2020-09-10_14h10.47.175,proactive3.1,2020.1.2,MacIntel,60,5f599a131af4471f3d752b7b,5f5a25b8a6fc86080f09ce5c,3,,,,,,hanger,,,,,,0,19,19,21,1,3,1,,,,,,,,,,,,,,,,,,,,,,,,,,,,,,,,,,,,,,,,,,,,,,,,,,,,,,,,,,,,,,,,,,,,,,,,,,,,,,,,,,,,,,,,,,,,,,,,,,,,,,,,,,,,,
,,,,,,,,,,stimuli/images/PICTURE_655.png,TOILET,59860c81d75d360001b0bd95,28/09/1946,2020-09-10_14h10.47.175,proactive3.1,2020.1.2,MacIntel,60,5f599a131af4471f3d752b7b,5f5a25b8a6fc86080f09ce5c,3,,,,,,megaphone,,,,,,0,20,20,12,1,2,1,,,,,,,,,,,,,,,,,,,,,,,,,,,,,,,,,,,,,,,,,,,,,,,,,,,,,,,,,,,,,,,,,,,,,,,,,,,,,,,,,,,,,,,,,,,,,,,,,,,,,,,,,,,,,
,,,,,,,,,,stimuli/images/PICTURE_327.png,CASINO,59860c81d75d360001b0bd95,28/09/1946,2020-09-10_14h10.47.175,proactive3.1,2020.1.2,MacIntel,60,5f599a131af4471f3d752b7b,5f5a25b8a6fc86080f09ce5c,3,,,,,,helmet,,,,,,0,21,21,20,1,3,1,,,,,,,,,,,,,,,,,,,,,,,,,,,,,,,,,,,,,,,,,,,,,,,,,,,,,,,,,,,,,,,,,,,,,,,,,,,,,,,,,,,,,,,,,,,,,,,,,,,,,,,,,,,,,
,,,,,,,,,,stimuli/images/PICTURE_339.png,CLIENT,59860c81d75d360001b0bd95,28/09/1946,2020-09-10_14h10.47.175,proactive3.1,2020.1.2,MacIntel,60,5f599a131af4471f3d752b7b,5f5a25b8a6fc86080f09ce5c,3,,,,,,backpack,,,,,,0,22,22,11,1,2,1,,,,,,,,,,,,,,,,,,,,,,,,,,,,,,,,,,,,,,,,,,,,,,,,,,,,,,,,,,,,,,,,,,,,,,,,,,,,,,,,,,,,,,,,,,,,,,,,,,,,,,,,,,,,,
,,,,,,,,,,stimuli/images/PICTURE_68.png,MILE,59860c81d75d360001b0bd95,28/09/1946,2020-09-10_14h10.47.175,proactive3.1,2020.1.2,MacIntel,60,5f599a131af4471f3d752b7b,5f5a25b8a6fc86080f09ce5c,3,,,,,,candle,,,,,,0,23,23,51,1,6,1,,,,,,,,,,,,,,,,,,,,,,,,,,,,,,,,,,,,,,,,,,,,,,,,,,,,,,,,,,,,,,,,,,,,,,,,,,,,,,,,,,,,,,,,,,,,,,,,,,,,,,,,,,,,,
,,,,,,,,,,stimuli/images/PICTURE_296.png,LIFE,59860c81d75d360001b0bd95,28/09/1946,2020-09-10_14h10.47.175,proactive3.1,2020.1.2,MacIntel,60,5f599a131af4471f3d752b7b,5f5a25b8a6fc86080f09ce5c,3,,,,,,bolt,,,,,,0,24,24,57,1,6,1,,,,,,,,,,,,,,,,,,,,,,,,,,,,,,,,,,,,,,,,,,,,,,,,,,,,,,,,,,,,,,,,,,,,,,,,,,,,,,,,,,,,,,,,,,,,,,,,,,,,,,,,,,,,,
,,,,,,,,,,stimuli/images/PICTURE_85.png,TOILET,59860c81d75d360001b0bd95,28/09/1946,2020-09-10_14h10.47.175,proactive3.1,2020.1.2,MacIntel,60,5f599a131af4471f3d752b7b,5f5a25b8a6fc86080f09ce5c,3,,,,,,diamond,,,,,,0,25,25,48,1,5,1,,,,,,,,,,,,,,,,,,,,,,,,,,,,,,,,,,,,,,,,,,,,,,,,,,,,,,,,,,,,,,,,,,,,,,,,,,,,,,,,,,,,,,,,,,,,,,,,,,,,,,,,,,,,,
,,,,,,,,,,stimuli/images/PICTURE_327.png,SERIES,59860c81d75d360001b0bd95,28/09/1946,2020-09-10_14h10.47.175,proactive3.1,2020.1.2,MacIntel,60,5f599a131af4471f3d752b7b,5f5a25b8a6fc86080f09ce5c,3,,,,,,helmet,,,,,,0,26,26,3,1,1,1,,,,,,,,,,,,,,,,,,,,,,,,,,,,,,,,,,,,,,,,,,,,,,,,,,,,,,,,,,,,,,,,,,,,,,,,,,,,,,,,,,,,,,,,,,,,,,,,,,,,,,,,,,,,,
,,,,,,,,,,stimuli/images/PICTURE_85.png,NATION,59860c81d75d360001b0bd95,28/09/1946,2020-09-10_14h10.47.175,proactive3.1,2020.1.2,MacIntel,60,5f599a131af4471f3d752b7b,5f5a25b8a6fc86080f09ce5c,3,,,,,,diamond,,,,,,0,27,27,5,1,1,1,,,,,,,,,,,,,,,,,,,,,,,,,,,,,,,,,,,,,,,,,,,,,,,,,,,,,,,,,,,,,,,,,,,,,,,,,,,,,,,,,,,,,,,,,,,,,,,,,,,,,,,,,,,,,
,,,,,,,,,,stimuli/images/PICTURE_403.png,RIVER,59860c81d75d360001b0bd95,28/09/1946,2020-09-10_14h10.47.175,proactive3.1,2020.1.2,MacIntel,60,5f599a131af4471f3d752b7b,5f5a25b8a6fc86080f09ce5c,3,,,,,,cathedral,,,,,,0,28,28,40,1,5,1,,,,,,,,,,,,,,,,,,,,,,,,,,,,,,,,,,,,,,,,,,,,,,,,,,,,,,,,,,,,,,,,,,,,,,,,,,,,,,,,,,,,,,,,,,,,,,,,,,,,,,,,,,,,,
,,,,,,,,,,stimuli/images/PICTURE_744.png,WEAPON,59860c81d75d360001b0bd95,28/09/1946,2020-09-10_14h10.47.175,proactive3.1,2020.1.2,MacIntel,60,5f599a131af4471f3d752b7b,5f5a25b8a6fc86080f09ce5c,3,,,,,,ring,,,,,,0,29,29,50,1,6,1,,,,,,,,,,,,,,,,,,,,,,,,,,,,,,,,,,,,,,,,,,,,,,,,,,,,,,,,,,,,,,,,,,,,,,,,,,,,,,,,,,,,,,,,,,,,,,,,,,,,,,,,,,,,,
,,,,,,,,,,stimuli/images/PICTURE_177.png,WRITER,59860c81d75d360001b0bd95,28/09/1946,2020-09-10_14h10.47.175,proactive3.1,2020.1.2,MacIntel,60,5f599a131af4471f3d752b7b,5f5a25b8a6fc86080f09ce5c,3,,,,,,mushroom,,,,,,0,30,30,41,1,5,1,,,,,,,,,,,,,,,,,,,,,,,,,,,,,,,,,,,,,,,,,,,,,,,,,,,,,,,,,,,,,,,,,,,,,,,,,,,,,,,,,,,,,,,,,,,,,,,,,,,,,,,,,,,,,
,,,,,,,,,,stimuli/images/PICTURE_208.png,SYSTEM,59860c81d75d360001b0bd95,28/09/1946,2020-09-10_14h10.47.175,proactive3.1,2020.1.2,MacIntel,60,5f599a131af4471f3d752b7b,5f5a25b8a6fc86080f09ce5c,3,,,,,,microphone,,,,,,0,31,31,32,1,4,1,,,,,,,,,,,,,,,,,,,,,,,,,,,,,,,,,,,,,,,,,,,,,,,,,,,,,,,,,,,,,,,,,,,,,,,,,,,,,,,,,,,,,,,,,,,,,,,,,,,,,,,,,,,,,
,,,,,,,,,,stimuli/images/PICTURE_285.png,LIFE,59860c81d75d360001b0bd95,28/09/1946,2020-09-10_14h10.47.175,proactive3.1,2020.1.2,MacIntel,60,5f599a131af4471f3d752b7b,5f5a25b8a6fc86080f09ce5c,3,,,,,,carrot,,,,,,0,32,32,33,1,4,1,,,,,,,,,,,,,,,,,,,,,,,,,,,,,,,,,,,,,,,,,,,,,,,,,,,,,,,,,,,,,,,,,,,,,,,,,,,,,,,,,,,,,,,,,,,,,,,,,,,,,,,,,,,,,
,,,,,,,,,,stimuli/images/PICTURE_32.png,PILLS,59860c81d75d360001b0bd95,28/09/1946,2020-09-10_14h10.47.175,proactive3.1,2020.1.2,MacIntel,60,5f599a131af4471f3d752b7b,5f5a25b8a6fc86080f09ce5c,3,,,,,,crown,,,,,,0,33,33,18,1,2,1,,,,,,,,,,,,,,,,,,,,,,,,,,,,,,,,,,,,,,,,,,,,,,,,,,,,,,,,,,,,,,,,,,,,,,,,,,,,,,,,,,,,,,,,,,,,,,,,,,,,,,,,,,,,,
,,,,,,,,,,stimuli/images/PICTURE_504.png,ARTIST,59860c81d75d360001b0bd95,28/09/1946,2020-09-10_14h10.47.175,proactive3.1,2020.1.2,MacIntel,60,5f599a131af4471f3d752b7b,5f5a25b8a6fc86080f09ce5c,3,,,,,,wheel,,,,,,0,34,34,49,1,5,1,,,,,,,,,,,,,,,,,,,,,,,,,,,,,,,,,,,,,,,,,,,,,,,,,,,,,,,,,,,,,,,,,,,,,,,,,,,,,,,,,,,,,,,,,,,,,,,,,,,,,,,,,,,,,
,,,,,,,,,,stimuli/images/PICTURE_95.png,MILLER,59860c81d75d360001b0bd95,28/09/1946,2020-09-10_14h10.47.175,proactive3.1,2020.1.2,MacIntel,60,5f599a131af4471f3d752b7b,5f5a25b8a6fc86080f09ce5c,3,,,,,,suitcase,,,,,,0,35,35,56,1,6,1,,,,,,,,,,,,,,,,,,,,,,,,,,,,,,,,,,,,,,,,,,,,,,,,,,,,,,,,,,,,,,,,,,,,,,,,,,,,,,,,,,,,,,,,,,,,,,,,,,,,,,,,,,,,,
,,,,,,,,,,stimuli/images/PICTURE_2.png,FLIGHT,59860c81d75d360001b0bd95,28/09/1946,2020-09-10_14h10.47.175,proactive3.1,2020.1.2,MacIntel,60,5f599a131af4471f3d752b7b,5f5a25b8a6fc86080f09ce5c,3,,,,,,tyre,,,,,,0,36,36,15,1,2,1,,,,,,,,,,,,,,,,,,,,,,,,,,,,,,,,,,,,,,,,,,,,,,,,,,,,,,,,,,,,,,,,,,,,,,,,,,,,,,,,,,,,,,,,,,,,,,,,,,,,,,,,,,,,,
,,,,,,,,,,stimuli/images/PICTURE_32.png,KIND,59860c81d75d360001b0bd95,28/09/1946,2020-09-10_14h10.47.175,proactive3.1,2020.1.2,MacIntel,60,5f599a131af4471f3d752b7b,5f5a25b8a6fc86080f09ce5c,3,,,,,,crown,,,,,,0,37,37,35,1,4,1,,,,,,,,,,,,,,,,,,,,,,,,,,,,,,,,,,,,,,,,,,,,,,,,,,,,,,,,,,,,,,,,,,,,,,,,,,,,,,,,,,,,,,,,,,,,,,,,,,,,,,,,,,,,,
,,,,,,,,,,stimuli/images/PICTURE_564.png,BATH,59860c81d75d360001b0bd95,28/09/1946,2020-09-10_14h10.47.175,proactive3.1,2020.1.2,MacIntel,60,5f599a131af4471f3d752b7b,5f5a25b8a6fc86080f09ce5c,3,,,,,,spoon,,,,,,0,38,38,26,1,3,1,,,,,,,,,,,,,,,,,,,,,,,,,,,,,,,,,,,,,,,,,,,,,,,,,,,,,,,,,,,,,,,,,,,,,,,,,,,,,,,,,,,,,,,,,,,,,,,,,,,,,,,,,,,,,
,,,,,,,,,,stimuli/images/PICTURE_487.png,GIRL,59860c81d75d360001b0bd95,28/09/1946,2020-09-10_14h10.47.175,proactive3.1,2020.1.2,MacIntel,60,5f599a131af4471f3d752b7b,5f5a25b8a6fc86080f09ce5c,3,,,,,,basket,,,,,,0,39,39,45,1,5,1,,,,,,,,,,,,,,,,,,,,,,,,,,,,,,,,,,,,,,,,,,,,,,,,,,,,,,,,,,,,,,,,,,,,,,,,,,,,,,,,,,,,,,,,,,,,,,,,,,,,,,,,,,,,,
,,,,,,,,,,stimuli/images/PICTURE_297.png,RIVER,59860c81d75d360001b0bd95,28/09/1946,2020-09-10_14h10.47.175,proactive3.1,2020.1.2,MacIntel,60,5f599a131af4471f3d752b7b,5f5a25b8a6fc86080f09ce5c,3,,,,,,aeroplane,,,,,,0,40,40,39,1,4,1,,,,,,,,,,,,,,,,,,,,,,,,,,,,,,,,,,,,,,,,,,,,,,,,,,,,,,,,,,,,,,,,,,,,,,,,,,,,,,,,,,,,,,,,,,,,,,,,,,,,,,,,,,,,,
,,,,,,,,,,stimuli/images/PICTURE_203.png,GODS,59860c81d75d360001b0bd95,28/09/1946,2020-09-10_14h10.47.175,proactive3.1,2020.1.2,MacIntel,60,5f599a131af4471f3d752b7b,5f5a25b8a6fc86080f09ce5c,3,,,,,,cap,,,,,,0,41,41,30,1,4,1,,,,,,,,,,,,,,,,,,,,,,,,,,,,,,,,,,,,,,,,,,,,,,,,,,,,,,,,,,,,,,,,,,,,,,,,,,,,,,,,,,,,,,,,,,,,,,,,,,,,,,,,,,,,,
,,,,,,,,,,stimuli/images/PICTURE_147.png,WOMEN,59860c81d75d360001b0bd95,28/09/1946,2020-09-10_14h10.47.175,proactive3.1,2020.1.2,MacIntel,60,5f599a131af4471f3d752b7b,5f5a25b8a6fc86080f09ce5c,3,,,,,,hanger,,,,,,0,42,42,7,1,1,1,,,,,,,,,,,,,,,,,,,,,,,,,,,,,,,,,,,,,,,,,,,,,,,,,,,,,,,,,,,,,,,,,,,,,,,,,,,,,,,,,,,,,,,,,,,,,,,,,,,,,,,,,,,,,
,,,,,,,,,,stimuli/images/PICTURE_405.png,YEAR,59860c81d75d360001b0bd95,28/09/1946,2020-09-10_14h10.47.175,proactive3.1,2020.1.2,MacIntel,60,5f599a131af4471f3d752b7b,5f5a25b8a6fc86080f09ce5c,3,,,,,,anchor,,,,,,0,43,43,34,1,4,1,,,,,,,,,,,,,,,,,,,,,,,,,,,,,,,,,,,,,,,,,,,,,,,,,,,,,,,,,,,,,,,,,,,,,,,,,,,,,,,,,,,,,,,,,,,,,,,,,,,,,,,,,,,,,
,,,,,,,,,,stimuli/images/PICTURE_750.png,HOTEL,59860c81d75d360001b0bd95,28/09/1946,2020-09-10_14h10.47.175,proactive3.1,2020.1.2,MacIntel,60,5f599a131af4471f3d752b7b,5f5a25b8a6fc86080f09ce5c,3,,,,,,kettle,,,,,,0,44,44,27,1,3,1,,,,,,,,,,,,,,,,,,,,,,,,,,,,,,,,,,,,,,,,,,,,,,,,,,,,,,,,,,,,,,,,,,,,,,,,,,,,,,,,,,,,,,,,,,,,,,,,,,,,,,,,,,,,,
,,,,,,,,,,stimuli/images/PICTURE_504.png,COPS,59860c81d75d360001b0bd95,28/09/1946,2020-09-10_14h10.47.175,proactive3.1,2020.1.2,MacIntel,60,5f599a131af4471f3d752b7b,5f5a25b8a6fc86080f09ce5c,3,,,,,,wheel,,,,,,0,45,45,52,1,6,1,,,,,,,,,,,,,,,,,,,,,,,,,,,,,,,,,,,,,,,,,,,,,,,,,,,,,,,,,,,,,,,,,,,,,,,,,,,,,,,,,,,,,,,,,,,,,,,,,,,,,,,,,,,,,
,,,,,,,,,,stimuli/images/PICTURE_685.png,PENNY,59860c81d75d360001b0bd95,28/09/1946,2020-09-10_14h10.47.175,proactive3.1,2020.1.2,MacIntel,60,5f599a131af4471f3d752b7b,5f5a25b8a6fc86080f09ce5c,3,,,,,,goose,,,,,,0,46,46,4,1,1,1,,,,,,,,,,,,,,,,,,,,,,,,,,,,,,,,,,,,,,,,,,,,,,,,,,,,,,,,,,,,,,,,,,,,,,,,,,,,,,,,,,,,,,,,,,,,,,,,,,,,,,,,,,,,,
,,,,,,,,,,stimuli/images/PICTURE_383.png,WRITER,59860c81d75d360001b0bd95,28/09/1946,2020-09-10_14h10.47.175,proactive3.1,2020.1.2,MacIntel,60,5f599a131af4471f3d752b7b,5f5a25b8a6fc86080f09ce5c,3,,,,,,coin,,,,,,0,47,47,28,1,3,1,,,,,,,,,,,,,,,,,,,,,,,,,,,,,,,,,,,,,,,,,,,,,,,,,,,,,,,,,,,,,,,,,,,,,,,,,,,,,,,,,,,,,,,,,,,,,,,,,,,,,,,,,,,,,
,,,,,,,,,,stimuli/images/PICTURE_108.png,FLIGHT,59860c81d75d360001b0bd95,28/09/1946,2020-09-10_14h10.47.175,proactive3.1,2020.1.2,MacIntel,60,5f599a131af4471f3d752b7b,5f5a25b8a6fc86080f09ce5c,3,,,,,,calendar,,,,,,0,48,48,59,1,6,1,,,,,,,,,,,,,,,,,,,,,,,,,,,,,,,,,,,,,,,,,,,,,,,,,,,,,,,,,,,,,,,,,,,,,,,,,,,,,,,,,,,,,,,,,,,,,,,,,,,,,,,,,,,,,
,,,,,,,,,,stimuli/images/PICTURE_504.png,YEAR,59860c81d75d360001b0bd95,28/09/1946,2020-09-10_14h10.47.175,proactive3.1,2020.1.2,MacIntel,60,5f599a131af4471f3d752b7b,5f5a25b8a6fc86080f09ce5c,3,,,,,,wheel,,,,,,0,49,49,13,1,2,1,,,,,,,,,,,,,,,,,,,,,,,,,,,,,,,,,,,,,,,,,,,,,,,,,,,,,,,,,,,,,,,,,,,,,,,,,,,,,,,,,,,,,,,,,,,,,,,,,,,,,,,,,,,,,
,,,,,,,,,,stimuli/images/PICTURE_667.png,RIVER,59860c81d75d360001b0bd95,28/09/1946,2020-09-10_14h10.47.175,proactive3.1,2020.1.2,MacIntel,60,5f599a131af4471f3d752b7b,5f5a25b8a6fc86080f09ce5c,3,,,,,,daisy,,,,,,0,50,50,10,1,2,1,,,,,,,,,,,,,,,,,,,,,,,,,,,,,,,,,,,,,,,,,,,,,,,,,,,,,,,,,,,,,,,,,,,,,,,,,,,,,,,,,,,,,,,,,,,,,,,,,,,,,,,,,,,,,
,,,,,,,,,,stimuli/images/PICTURE_340.png,VALLEY,59860c81d75d360001b0bd95,28/09/1946,2020-09-10_14h10.47.175,proactive3.1,2020.1.2,MacIntel,60,5f599a131af4471f3d752b7b,5f5a25b8a6fc86080f09ce5c,3,,,,,,mirror,,,,,,0,51,51,54,1,6,1,,,,,,,,,,,,,,,,,,,,,,,,,,,,,,,,,,,,,,,,,,,,,,,,,,,,,,,,,,,,,,,,,,,,,,,,,,,,,,,,,,,,,,,,,,,,,,,,,,,,,,,,,,,,,
,,,,,,,,,,stimuli/images/PICTURE_467.png,POLICY,59860c81d75d360001b0bd95,28/09/1946,2020-09-10_14h10.47.175,proactive3.1,2020.1.2,MacIntel,60,5f599a131af4471f3d752b7b,5f5a25b8a6fc86080f09ce5c,3,,,,,,peg,,,,,,0,52,52,53,1,6,1,,,,,,,,,,,,,,,,,,,,,,,,,,,,,,,,,,,,,,,,,,,,,,,,,,,,,,,,,,,,,,,,,,,,,,,,,,,,,,,,,,,,,,,,,,,,,,,,,,,,,,,,,,,,,
,,,,,,,,,,stimuli/images/PICTURE_403.png,WRITER,59860c81d75d360001b0bd95,28/09/1946,2020-09-10_14h10.47.175,proactive3.1,2020.1.2,MacIntel,60,5f599a131af4471f3d752b7b,5f5a25b8a6fc86080f09ce5c,3,,,,,,cathedral,,,,,,0,53,53,31,1,4,1,,,,,,,,,,,,,,,,,,,,,,,,,,,,,,,,,,,,,,,,,,,,,,,,,,,,,,,,,,,,,,,,,,,,,,,,,,,,,,,,,,,,,,,,,,,,,,,,,,,,,,,,,,,,,
,,,,,,,,,,stimuli/images/PICTURE_405.png,PLENTY,59860c81d75d360001b0bd95,28/09/1946,2020-09-10_14h10.47.175,proactive3.1,2020.1.2,MacIntel,60,5f599a131af4471f3d752b7b,5f5a25b8a6fc86080f09ce5c,3,,,,,,anchor,,,,,,0,54,54,23,1,3,1,,,,,,,,,,,,,,,,,,,,,,,,,,,,,,,,,,,,,,,,,,,,,,,,,,,,,,,,,,,,,,,,,,,,,,,,,,,,,,,,,,,,,,,,,,,,,,,,,,,,,,,,,,,,,
,,,,,,,,,,stimuli/images/PICTURE_57.png,MOMENT,59860c81d75d360001b0bd95,28/09/1946,2020-09-10_14h10.47.175,proactive3.1,2020.1.2,MacIntel,60,5f599a131af4471f3d752b7b,5f5a25b8a6fc86080f09ce5c,3,,,,,,stamp,,,,,,0,55,55,37,1,4,1,,,,,,,,,,,,,,,,,,,,,,,,,,,,,,,,,,,,,,,,,,,,,,,,,,,,,,,,,,,,,,,,,,,,,,,,,,,,,,,,,,,,,,,,,,,,,,,,,,,,,,,,,,,,,
,,,,,,,,,,stimuli/images/PICTURE_108.png,POLICY,59860c81d75d360001b0bd95,28/09/1946,2020-09-10_14h10.47.175,proactive3.1,2020.1.2,MacIntel,60,5f599a131af4471f3d752b7b,5f5a25b8a6fc86080f09ce5c,3,,,,,,calendar,,,,,,0,56,56,22,1,3,1,,,,,,,,,,,,,,,,,,,,,,,,,,,,,,,,,,,,,,,,,,,,,,,,,,,,,,,,,,,,,,,,,,,,,,,,,,,,,,,,,,,,,,,,,,,,,,,,,,,,,,,,,,,,,
,,,,,,,,,,stimuli/images/PICTURE_677.png,APPLE,59860c81d75d360001b0bd95,28/09/1946,2020-09-10_14h10.47.175,proactive3.1,2020.1.2,MacIntel,60,5f599a131af4471f3d752b7b,5f5a25b8a6fc86080f09ce5c,3,,,,,,map,,,,,,0,57,57,43,1,5,1,,,,,,,,,,,,,,,,,,,,,,,,,,,,,,,,,,,,,,,,,,,,,,,,,,,,,,,,,,,,,,,,,,,,,,,,,,,,,,,,,,,,,,,,,,,,,,,,,,,,,,,,,,,,,
,,,,,,,,,,stimuli/images/PICTURE_33.png,FRIEND,59860c81d75d360001b0bd95,28/09/1946,2020-09-10_14h10.47.175,proactive3.1,2020.1.2,MacIntel,60,5f599a131af4471f3d752b7b,5f5a25b8a6fc86080f09ce5c,3,,,,,,frame,,,,,,0,58,58,8,1,1,1,,,,,,,,,,,,,,,,,,,,,,,,,,,,,,,,,,,,,,,,,,,,,,,,,,,,,,,,,,,,,,,,,,,,,,,,,,,,,,,,,,,,,,,,,,,,,,,,,,,,,,,,,,,,,
,,?,0.002,0,,,,,,stimuli/images/PICTURE_42.png,BOYS,59860c81d75d360001b0bd95,28/09/1946,2020-09-10_14h10.47.175,proactive3.1,2020.1.2,MacIntel,60,5f599a131af4471f3d752b7b,5f5a25b8a6fc86080f09ce5c,3,,,,,,pear,,,,,,,,,,,6,1,0,0,0,55,1,,,,,,,,,,,,,,,,,,,,,,,,,,,,,,,,,,,,,,,,,,,,,,,,,,,,,,,,,,,,,,,,,,,,,,,,,,,,,,,,,,,,,,,,,,,,,,,,,,,,,,,,
,,?,0.001,0,,,,,,stimuli/images/PICTURE_57.png,MOMENT,59860c81d75d360001b0bd95,28/09/1946,2020-09-10_14h10.47.175,proactive3.1,2020.1.2,MacIntel,60,5f599a131af4471f3d752b7b,5f5a25b8a6fc86080f09ce5c,3,,,,,,stamp,,,,,,,,,,,4,1,0,1,1,37,1,,,,,,,,,,,,,,,,,,,,,,,,,,,,,,,,,,,,,,,,,,,,,,,,,,,,,,,,,,,,,,,,,,,,,,,,,,,,,,,,,,,,,,,,,,,,,,,,,,,,,,,,
,,PLENTY,8.993,1,,,,,,stimuli/images/PICTURE_405.png,PLENTY,59860c81d75d360001b0bd95,28/09/1946,2020-09-10_14h10.47.175,proactive3.1,2020.1.2,MacIntel,60,5f599a131af4471f3d752b7b,5f5a25b8a6fc86080f09ce5c,3,,,,,,anchor,,,,,,,,,,,3,1,0,2,2,23,1,,,,,,,,,,,,,,,,,,,,,,,,,,,,,,,,,,,,,,,,,,,,,,,,,,,,,,,,,,,,,,,,,,,,,,,,,,,,,,,,,,,,,,,,,,,,,,,,,,,,,,,,
,,?,0.002,0,,,,,,stimuli/images/PICTURE_469.png,AGENT,59860c81d75d360001b0bd95,28/09/1946,2020-09-10_14h10.47.175,proactive3.1,2020.1.2,MacIntel,60,5f599a131af4471f3d752b7b,5f5a25b8a6fc86080f09ce5c,3,,,,,,stool,,,,,,,,,,,2,1,0,3,3,16,1,,,,,,,,,,,,,,,,,,,,,,,,,,,,,,,,,,,,,,,,,,,,,,,,,,,,,,,,,,,,,,,,,,,,,,,,,,,,,,,,,,,,,,,,,,,,,,,,,,,,,,,,
,,?,0.001,0,,,,,,stimuli/images/PICTURE_32.png,PILLS,59860c81d75d360001b0bd95,28/09/1946,2020-09-10_14h10.47.175,proactive3.1,2020.1.2,MacIntel,60,5f599a131af4471f3d752b7b,5f5a25b8a6fc86080f09ce5c,3,,,,,,crown,,,,,,,,,,,2,1,0,4,4,18,1,,,,,,,,,,,,,,,,,,,,,,,,,,,,,,,,,,,,,,,,,,,,,,,,,,,,,,,,,,,,,,,,,,,,,,,,,,,,,,,,,,,,,,,,,,,,,,,,,,,,,,,,
,,?,0.001,0,,,,,,stimuli/images/PICTURE_467.png,POLICY,59860c81d75d360001b0bd95,28/09/1946,2020-09-10_14h10.47.175,proactive3.1,2020.1.2,MacIntel,60,5f599a131af4471f3d752b7b,5f5a25b8a6fc86080f09ce5c,3,,,,,,peg,,,,,,,,,,,6,1,0,5,5,53,1,,,,,,,,,,,,,,,,,,,,,,,,,,,,,,,,,,,,,,,,,,,,,,,,,,,,,,,,,,,,,,,,,,,,,,,,,,,,,,,,,,,,,,,,,,,,,,,,,,,,,,,,
,,?,0,0,,,,,,stimuli/images/PICTURE_380.png,CANDY,59860c81d75d360001b0bd95,28/09/1946,2020-09-10_14h10.47.175,proactive3.1,2020.1.2,MacIntel,60,5f599a131af4471f3d752b7b,5f5a25b8a6fc86080f09ce5c,3,,,,,,gorilla,,,,,,,,,,,1,1,0,6,6,0,1,,,,,,,,,,,,,,,,,,,,,,,,,,,,,,,,,,,,,,,,,,,,,,,,,,,,,,,,,,,,,,,,,,,,,,,,,,,,,,,,,,,,,,,,,,,,,,,,,,,,,,,,
,,?,0.001,0,,,,,,stimuli/images/PICTURE_685.png,PENNY,59860c81d75d360001b0bd95,28/09/1946,2020-09-10_14h10.47.175,proactive3.1,2020.1.2,MacIntel,60,5f599a131af4471f3d752b7b,5f5a25b8a6fc86080f09ce5c,3,,,,,,goose,,,,,,,,,,,1,1,0,7,7,4,1,,,,,,,,,,,,,,,,,,,,,,,,,,,,,,,,,,,,,,,,,,,,,,,,,,,,,,,,,,,,,,,,,,,,,,,,,,,,,,,,,,,,,,,,,,,,,,,,,,,,,,,,
,,?,0.001,0,,,,,,stimuli/images/PICTURE_2.png,FLIGHT,59860c81d75d360001b0bd95,28/09/1946,2020-09-10_14h10.47.175,proactive3.1,2020.1.2,MacIntel,60,5f599a131af4471f3d752b7b,5f5a25b8a6fc86080f09ce5c,3,,,,,,tyre,,,,,,,,,,,2,1,0,8,8,15,1,,,,,,,,,,,,,,,,,,,,,,,,,,,,,,,,,,,,,,,,,,,,,,,,,,,,,,,,,,,,,,,,,,,,,,,,,,,,,,,,,,,,,,,,,,,,,,,,,,,,,,,,
,,?,0.001,0,,,,,,stimuli/images/PICTURE_85.png,NATION,59860c81d75d360001b0bd95,28/09/1946,2020-09-10_14h10.47.175,proactive3.1,2020.1.2,MacIntel,60,5f599a131af4471f3d752b7b,5f5a25b8a6fc86080f09ce5c,3,,,,,,diamond,,,,,,,,,,,1,1,0,9,9,5,1,,,,,,,,,,,,,,,,,,,,,,,,,,,,,,,,,,,,,,,,,,,,,,,,,,,,,,,,,,,,,,,,,,,,,,,,,,,,,,,,,,,,,,,,,,,,,,,,,,,,,,,,
,,?,0.001,0,,,,,,stimuli/images/PICTURE_203.png,NIGHT,59860c81d75d360001b0bd95,28/09/1946,2020-09-10_14h10.47.175,proactive3.1,2020.1.2,MacIntel,60,5f599a131af4471f3d752b7b,5f5a25b8a6fc86080f09ce5c,3,,,,,,cap,,,,,,,,,,,1,1,0,10,10,2,1,,,,,,,,,,,,,,,,,,,,,,,,,,,,,,,,,,,,,,,,,,,,,,,,,,,,,,,,,,,,,,,,,,,,,,,,,,,,,,,,,,,,,,,,,,,,,,,,,,,,,,,,
,,?,0,0,,,,,,stimuli/images/PICTURE_504.png,ARTIST,59860c81d75d360001b0bd95,28/09/1946,2020-09-10_14h10.47.175,proactive3.1,2020.1.2,MacIntel,60,5f599a131af4471f3d752b7b,5f5a25b8a6fc86080f09ce5c,3,,,,,,wheel,,,,,,,,,,,5,1,0,11,11,49,1,,,,,,,,,,,,,,,,,,,,,,,,,,,,,,,,,,,,,,,,,,,,,,,,,,,,,,,,,,,,,,,,,,,,,,,,,,,,,,,,,,,,,,,,,,,,,,,,,,,,,,,,
,,DIARY,9.019,0,,,,,,stimuli/images/PICTURE_564.png,BATH,59860c81d75d360001b0bd95,28/09/1946,2020-09-10_14h10.47.175,proactive3.1,2020.1.2,MacIntel,60,5f599a131af4471f3d752b7b,5f5a25b8a6fc86080f09ce5c,3,,,,,,spoon,,,,,,,,,,,3,1,0,12,12,26,1,,,,,,,,,,,,,,,,,,,,,,,,,,,,,,,,,,,,,,,,,,,,,,,,,,,,,,,,,,,,,,,,,,,,,,,,,,,,,,,,,,,,,,,,,,,,,,,,,,,,,,,,
,,?,0.001,0,,,,,,stimuli/images/PICTURE_403.png,WRITER,59860c81d75d360001b0bd95,28/09/1946,2020-09-10_14h10.47.175,proactive3.1,2020.1.2,MacIntel,60,5f599a131af4471f3d752b7b,5f5a25b8a6fc86080f09ce5c,3,,,,,,cathedral,,,,,,,,,,,4,1,0,13,13,31,1,,,,,,,,,,,,,,,,,,,,,,,,,,,,,,,,,,,,,,,,,,,,,,,,,,,,,,,,,,,,,,,,,,,,,,,,,,,,,,,,,,,,,,,,,,,,,,,,,,,,,,,,
,,?,0.001,0,,,,,,stimuli/images/PICTURE_380.png,HONEY,59860c81d75d360001b0bd95,28/09/1946,2020-09-10_14h10.47.175,proactive3.1,2020.1.2,MacIntel,60,5f599a131af4471f3d752b7b,5f5a25b8a6fc86080f09ce5c,3,,,,,,gorilla,,,,,,,,,,,2,1,0,14,14,19,1,,,,,,,,,,,,,,,,,,,,,,,,,,,,,,,,,,,,,,,,,,,,,,,,,,,,,,,,,,,,,,,,,,,,,,,,,,,,,,,,,,,,,,,,,,,,,,,,,,,,,,,,
,,?,0.001,0,,,,,,stimuli/images/PICTURE_177.png,WRITER,59860c81d75d360001b0bd95,28/09/1946,2020-09-10_14h10.47.175,proactive3.1,2020.1.2,MacIntel,60,5f599a131af4471f3d752b7b,5f5a25b8a6fc86080f09ce5c,3,,,,,,mushroom,,,,,,,,,,,5,1,0,15,15,41,1,,,,,,,,,,,,,,,,,,,,,,,,,,,,,,,,,,,,,,,,,,,,,,,,,,,,,,,,,,,,,,,,,,,,,,,,,,,,,,,,,,,,,,,,,,,,,,,,,,,,,,,,
,,?,0.001,0,,,,,,stimuli/images/PICTURE_708.png,RECORD,59860c81d75d360001b0bd95,28/09/1946,2020-09-10_14h10.47.175,proactive3.1,2020.1.2,MacIntel,60,5f599a131af4471f3d752b7b,5f5a25b8a6fc86080f09ce5c,3,,,,,,monkey,,,,,,,,,,,6,1,0,16,16,58,1,,,,,,,,,,,,,,,,,,,,,,,,,,,,,,,,,,,,,,,,,,,,,,,,,,,,,,,,,,,,,,,,,,,,,,,,,,,,,,,,,,,,,,,,,,,,,,,,,,,,,,,,
,,?,0.001,0,,,,,,stimuli/images/PICTURE_677.png,APPLE,59860c81d75d360001b0bd95,28/09/1946,2020-09-10_14h10.47.175,proactive3.1,2020.1.2,MacIntel,60,5f599a131af4471f3d752b7b,5f5a25b8a6fc86080f09ce5c,3,,,,,,map,,,,,,,,,,,5,1,0,17,17,43,1,,,,,,,,,,,,,,,,,,,,,,,,,,,,,,,,,,,,,,,,,,,,,,,,,,,,,,,,,,,,,,,,,,,,,,,,,,,,,,,,,,,,,,,,,,,,,,,,,,,,,,,,
,,TOILET,5.088,1,,,,,,stimuli/images/PICTURE_403.png,TOILET,59860c81d75d360001b0bd95,28/09/1946,2020-09-10_14h10.47.175,proactive3.1,2020.1.2,MacIntel,60,5f599a131af4471f3d752b7b,5f5a25b8a6fc86080f09ce5c,3,,,,,,cathedral,,,,,,,,,,,3,1,0,18,18,25,1,,,,,,,,,,,,,,,,,,,,,,,,,,,,,,,,,,,,,,,,,,,,,,,,,,,,,,,,,,,,,,,,,,,,,,,,,,,,,,,,,,,,,,,,,,,,,,,,,,,,,,,,
,,?,0.002,0,,,,,,stimuli/images/PICTURE_147.png,WOMEN,59860c81d75d360001b0bd95,28/09/1946,2020-09-10_14h10.47.175,proactive3.1,2020.1.2,MacIntel,60,5f599a131af4471f3d752b7b,5f5a25b8a6fc86080f09ce5c,3,,,,,,hanger,,,,,,,,,,,1,1,0,19,19,7,1,,,,,,,,,,,,,,,,,,,,,,,,,,,,,,,,,,,,,,,,,,,,,,,,,,,,,,,,,,,,,,,,,,,,,,,,,,,,,,,,,,,,,,,,,,,,,,,,,,,,,,,,
,,?,0.001,0,,,,,,stimuli/images/PICTURE_403.png,RIVER,59860c81d75d360001b0bd95,28/09/1946,2020-09-10_14h10.47.175,proactive3.1,2020.1.2,MacIntel,60,5f599a131af4471f3d752b7b,5f5a25b8a6fc86080f09ce5c,3,,,,,,cathedral,,,,,,,,,,,5,1,0,20,20,40,1,,,,,,,,,,,,,,,,,,,,,,,,,,,,,,,,,,,,,,,,,,,,,,,,,,,,,,,,,,,,,,,,,,,,,,,,,,,,,,,,,,,,,,,,,,,,,,,,,,,,,,,,
,,?,0.001,0,,,,,,stimuli/images/PICTURE_95.png,BOYS,59860c81d75d360001b0bd95,28/09/1946,2020-09-10_14h10.47.175,proactive3.1,2020.1.2,MacIntel,60,5f599a131af4471f3d752b7b,5f5a25b8a6fc86080f09ce5c,3,,,,,,suitcase,,,,,,,,,,,1,1,0,21,21,1,1,,,,,,,,,,,,,,,,,,,,,,,,,,,,,,,,,,,,,,,,,,,,,,,,,,,,,,,,,,,,,,,,,,,,,,,,,,,,,,,,,,,,,,,,,,,,,,,,,,,,,,,,
,,?,0.001,0,,,,,,stimuli/images/PICTURE_383.png,SERIES,59860c81d75d360001b0bd95,28/09/1946,2020-09-10_14h10.47.175,proactive3.1,2020.1.2,MacIntel,60,5f599a131af4471f3d752b7b,5f5a25b8a6fc86080f09ce5c,3,,,,,,coin,,,,,,,,,,,5,1,0,22,22,46,1,,,,,,,,,,,,,,,,,,,,,,,,,,,,,,,,,,,,,,,,,,,,,,,,,,,,,,,,,,,,,,,,,,,,,,,,,,,,,,,,,,,,,,,,,,,,,,,,,,,,,,,,
,,?,0.001,0,,,,,,stimuli/images/PICTURE_491.png,RIVER,59860c81d75d360001b0bd95,28/09/1946,2020-09-10_14h10.47.175,proactive3.1,2020.1.2,MacIntel,60,5f599a131af4471f3d752b7b,5f5a25b8a6fc86080f09ce5c,3,,,,,,rug,,,,,,,,,,,1,1,0,23,23,6,1,,,,,,,,,,,,,,,,,,,,,,,,,,,,,,,,,,,,,,,,,,,,,,,,,,,,,,,,,,,,,,,,,,,,,,,,,,,,,,,,,,,,,,,,,,,,,,,,,,,,,,,,
,,?,0,0,,,,,,stimuli/images/PICTURE_449.png,DUDE,59860c81d75d360001b0bd95,28/09/1946,2020-09-10_14h10.47.175,proactive3.1,2020.1.2,MacIntel,60,5f599a131af4471f3d752b7b,5f5a25b8a6fc86080f09ce5c,3,,,,,,bench,,,,,,,,,,,2,1,0,24,24,17,1,,,,,,,,,,,,,,,,,,,,,,,,,,,,,,,,,,,,,,,,,,,,,,,,,,,,,,,,,,,,,,,,,,,,,,,,,,,,,,,,,,,,,,,,,,,,,,,,,,,,,,,,
,,YEAR,4.722,1,,,,,,stimuli/images/PICTURE_147.png,YEAR,59860c81d75d360001b0bd95,28/09/1946,2020-09-10_14h10.47.175,proactive3.1,2020.1.2,MacIntel,60,5f599a131af4471f3d752b7b,5f5a25b8a6fc86080f09ce5c,3,,,,,,hanger,,,,,,,,,,,3,1,0,25,25,21,1,,,,,,,,,,,,,,,,,,,,,,,,,,,,,,,,,,,,,,,,,,,,,,,,,,,,,,,,,,,,,,,,,,,,,,,,,,,,,,,,,,,,,,,,,,,,,,,,,,,,,,,,
,,?,0.002,0,,,,,,stimuli/images/PICTURE_68.png,ROOF,59860c81d75d360001b0bd95,28/09/1946,2020-09-10_14h10.47.175,proactive3.1,2020.1.2,MacIntel,60,5f599a131af4471f3d752b7b,5f5a25b8a6fc86080f09ce5c,3,,,,,,candle,,,,,,,,,,,4,1,0,26,26,38,1,,,,,,,,,,,,,,,,,,,,,,,,,,,,,,,,,,,,,,,,,,,,,,,,,,,,,,,,,,,,,,,,,,,,,,,,,,,,,,,,,,,,,,,,,,,,,,,,,,,,,,,,
,,?,0.001,0,,,,,,stimuli/images/PICTURE_68.png,MILE,59860c81d75d360001b0bd95,28/09/1946,2020-09-10_14h10.47.175,proactive3.1,2020.1.2,MacIntel,60,5f599a131af4471f3d752b7b,5f5a25b8a6fc86080f09ce5c,3,,,,,,candle,,,,,,,,,,,6,1,0,27,27,51,1,,,,,,,,,,,,,,,,,,,,,,,,,,,,,,,,,,,,,,,,,,,,,,,,,,,,,,,,,,,,,,,,,,,,,,,,,,,,,,,,,,,,,,,,,,,,,,,,,,,,,,,,
,,?,0.002,0,,,,,,stimuli/images/PICTURE_296.png,LIFE,59860c81d75d360001b0bd95,28/09/1946,2020-09-10_14h10.47.175,proactive3.1,2020.1.2,MacIntel,60,5f599a131af4471f3d752b7b,5f5a25b8a6fc86080f09ce5c,3,,,,,,bolt,,,,,,,,,,,6,1,0,28,28,57,1,,,,,,,,,,,,,,,,,,,,,,,,,,,,,,,,,,,,,,,,,,,,,,,,,,,,,,,,,,,,,,,,,,,,,,,,,,,,,,,,,,,,,,,,,,,,,,,,,,,,,,,,
,,?,0.001,0,,,,,,stimuli/images/PICTURE_339.png,CLIENT,59860c81d75d360001b0bd95,28/09/1946,2020-09-10_14h10.47.175,proactive3.1,2020.1.2,MacIntel,60,5f599a131af4471f3d752b7b,5f5a25b8a6fc86080f09ce5c,3,,,,,,backpack,,,,,,,,,,,2,1,0,29,29,11,1,,,,,,,,,,,,,,,,,,,,,,,,,,,,,,,,,,,,,,,,,,,,,,,,,,,,,,,,,,,,,,,,,,,,,,,,,,,,,,,,,,,,,,,,,,,,,,,,,,,,,,,,
,,?,0.001,0,,,,,,stimuli/images/PICTURE_95.png,MILLER,59860c81d75d360001b0bd95,28/09/1946,2020-09-10_14h10.47.175,proactive3.1,2020.1.2,MacIntel,60,5f599a131af4471f3d752b7b,5f5a25b8a6fc86080f09ce5c,3,,,,,,suitcase,,,,,,,,,,,6,1,0,30,30,56,1,,,,,,,,,,,,,,,,,,,,,,,,,,,,,,,,,,,,,,,,,,,,,,,,,,,,,,,,,,,,,,,,,,,,,,,,,,,,,,,,,,,,,,,,,,,,,,,,,,,,,,,,
,,WRITER,6.837,1,,,,,,stimuli/images/PICTURE_383.png,WRITER,59860c81d75d360001b0bd95,28/09/1946,2020-09-10_14h10.47.175,proactive3.1,2020.1.2,MacIntel,60,5f599a131af4471f3d752b7b,5f5a25b8a6fc86080f09ce5c,3,,,,,,coin,,,,,,,,,,,3,1,0,31,31,28,1,,,,,,,,,,,,,,,,,,,,,,,,,,,,,,,,,,,,,,,,,,,,,,,,,,,,,,,,,,,,,,,,,,,,,,,,,,,,,,,,,,,,,,,,,,,,,,,,,,,,,,,,
,,?,0.001,0,,,,,,stimuli/images/PICTURE_297.png,RIVER,59860c81d75d360001b0bd95,28/09/1946,2020-09-10_14h10.47.175,proactive3.1,2020.1.2,MacIntel,60,5f599a131af4471f3d752b7b,5f5a25b8a6fc86080f09ce5c,3,,,,,,aeroplane,,,,,,,,,,,4,1,0,32,32,39,1,,,,,,,,,,,,,,,,,,,,,,,,,,,,,,,,,,,,,,,,,,,,,,,,,,,,,,,,,,,,,,,,,,,,,,,,,,,,,,,,,,,,,,,,,,,,,,,,,,,,,,,,
,,?,0.001,0,,,,,,stimuli/images/PICTURE_233.png,LOTS,59860c81d75d360001b0bd95,28/09/1946,2020-09-10_14h10.47.175,proactive3.1,2020.1.2,MacIntel,60,5f599a131af4471f3d752b7b,5f5a25b8a6fc86080f09ce5c,3,,,,,,salt,,,,,,,,,,,5,1,0,33,33,42,1,,,,,,,,,,,,,,,,,,,,,,,,,,,,,,,,,,,,,,,,,,,,,,,,,,,,,,,,,,,,,,,,,,,,,,,,,,,,,,,,,,,,,,,,,,,,,,,,,,,,,,,,
,,?,0.001,0,,,,,,stimuli/images/PICTURE_487.png,GIRL,59860c81d75d360001b0bd95,28/09/1946,2020-09-10_14h10.47.175,proactive3.1,2020.1.2,MacIntel,60,5f599a131af4471f3d752b7b,5f5a25b8a6fc86080f09ce5c,3,,,,,,basket,,,,,,,,,,,5,1,0,34,34,45,1,,,,,,,,,,,,,,,,,,,,,,,,,,,,,,,,,,,,,,,,,,,,,,,,,,,,,,,,,,,,,,,,,,,,,,,,,,,,,,,,,,,,,,,,,,,,,,,,,,,,,,,,
,,?,0.001,0,,,,,,stimuli/images/PICTURE_504.png,YEAR,59860c81d75d360001b0bd95,28/09/1946,2020-09-10_14h10.47.175,proactive3.1,2020.1.2,MacIntel,60,5f599a131af4471f3d752b7b,5f5a25b8a6fc86080f09ce5c,3,,,,,,wheel,,,,,,,,,,,2,1,0,35,35,13,1,,,,,,,,,,,,,,,,,,,,,,,,,,,,,,,,,,,,,,,,,,,,,,,,,,,,,,,,,,,,,,,,,,,,,,,,,,,,,,,,,,,,,,,,,,,,,,,,,,,,,,,,
,,DIARY,8.376,0,,,,,,stimuli/images/PICTURE_327.png,CASINO,59860c81d75d360001b0bd95,28/09/1946,2020-09-10_14h10.47.175,proactive3.1,2020.1.2,MacIntel,60,5f599a131af4471f3d752b7b,5f5a25b8a6fc86080f09ce5c,3,,,,,,helmet,,,,,,,,,,,3,1,0,36,36,20,1,,,,,,,,,,,,,,,,,,,,,,,,,,,,,,,,,,,,,,,,,,,,,,,,,,,,,,,,,,,,,,,,,,,,,,,,,,,,,,,,,,,,,,,,,,,,,,,,,,,,,,,,
,,?,0.002,0,,,,,,stimuli/images/PICTURE_340.png,VALLEY,59860c81d75d360001b0bd95,28/09/1946,2020-09-10_14h10.47.175,proactive3.1,2020.1.2,MacIntel,60,5f599a131af4471f3d752b7b,5f5a25b8a6fc86080f09ce5c,3,,,,,,mirror,,,,,,,,,,,6,1,0,37,37,54,1,,,,,,,,,,,,,,,,,,,,,,,,,,,,,,,,,,,,,,,,,,,,,,,,,,,,,,,,,,,,,,,,,,,,,,,,,,,,,,,,,,,,,,,,,,,,,,,,,,,,,,,,
,,?,0.002,0,,,,,,stimuli/images/PICTURE_95.png,HONEY,59860c81d75d360001b0bd95,28/09/1946,2020-09-10_14h10.47.175,proactive3.1,2020.1.2,MacIntel,60,5f599a131af4471f3d752b7b,5f5a25b8a6fc86080f09ce5c,3,,,,,,suitcase,,,,,,,,,,,5,1,0,38,38,44,1,,,,,,,,,,,,,,,,,,,,,,,,,,,,,,,,,,,,,,,,,,,,,,,,,,,,,,,,,,,,,,,,,,,,,,,,,,,,,,,,,,,,,,,,,,,,,,,,,,,,,,,,
,,DIARY,5.628,0,,,,,,stimuli/images/PICTURE_108.png,POLICY,59860c81d75d360001b0bd95,28/09/1946,2020-09-10_14h10.47.175,proactive3.1,2020.1.2,MacIntel,60,5f599a131af4471f3d752b7b,5f5a25b8a6fc86080f09ce5c,3,,,,,,calendar,,,,,,,,,,,3,1,0,39,39,22,1,,,,,,,,,,,,,,,,,,,,,,,,,,,,,,,,,,,,,,,,,,,,,,,,,,,,,,,,,,,,,,,,,,,,,,,,,,,,,,,,,,,,,,,,,,,,,,,,,,,,,,,,
,,?,0.002,0,,,,,,stimuli/images/PICTURE_667.png,RIVER,59860c81d75d360001b0bd95,28/09/1946,2020-09-10_14h10.47.175,proactive3.1,2020.1.2,MacIntel,60,5f599a131af4471f3d752b7b,5f5a25b8a6fc86080f09ce5c,3,,,,,,daisy,,,,,,,,,,,2,1,0,40,40,10,1,,,,,,,,,,,,,,,,,,,,,,,,,,,,,,,,,,,,,,,,,,,,,,,,,,,,,,,,,,,,,,,,,,,,,,,,,,,,,,,,,,,,,,,,,,,,,,,,,,,,,,,,
,,?,0.001,0,,,,,,stimuli/images/PICTURE_655.png,TOILET,59860c81d75d360001b0bd95,28/09/1946,2020-09-10_14h10.47.175,proactive3.1,2020.1.2,MacIntel,60,5f599a131af4471f3d752b7b,5f5a25b8a6fc86080f09ce5c,3,,,,,,megaphone,,,,,,,,,,,2,1,0,41,41,12,1,,,,,,,,,,,,,,,,,,,,,,,,,,,,,,,,,,,,,,,,,,,,,,,,,,,,,,,,,,,,,,,,,,,,,,,,,,,,,,,,,,,,,,,,,,,,,,,,,,,,,,,,
,,?,0.001,0,,,,,,stimuli/images/PICTURE_32.png,KIND,59860c81d75d360001b0bd95,28/09/1946,2020-09-10_14h10.47.175,proactive3.1,2020.1.2,MacIntel,60,5f599a131af4471f3d752b7b,5f5a25b8a6fc86080f09ce5c,3,,,,,,crown,,,,,,,,,,,4,1,0,42,42,35,1,,,,,,,,,,,,,,,,,,,,,,,,,,,,,,,,,,,,,,,,,,,,,,,,,,,,,,,,,,,,,,,,,,,,,,,,,,,,,,,,,,,,,,,,,,,,,,,,,,,,,,,,
,,?,0.001,0,,,,,,stimuli/images/PICTURE_675.png,SALE,59860c81d75d360001b0bd95,28/09/1946,2020-09-10_14h10.47.175,proactive3.1,2020.1.2,MacIntel,60,5f599a131af4471f3d752b7b,5f5a25b8a6fc86080f09ce5c,3,,,,,,windmill,,,,,,,,,,,5,1,0,43,43,47,1,,,,,,,,,,,,,,,,,,,,,,,,,,,,,,,,,,,,,,,,,,,,,,,,,,,,,,,,,,,,,,,,,,,,,,,,,,,,,,,,,,,,,,,,,,,,,,,,,,,,,,,,
,,?,0,0,,,,,,stimuli/images/PICTURE_504.png,COPS,59860c81d75d360001b0bd95,28/09/1946,2020-09-10_14h10.47.175,proactive3.1,2020.1.2,MacIntel,60,5f599a131af4471f3d752b7b,5f5a25b8a6fc86080f09ce5c,3,,,,,,wheel,,,,,,,,,,,6,1,0,44,44,52,1,,,,,,,,,,,,,,,,,,,,,,,,,,,,,,,,,,,,,,,,,,,,,,,,,,,,,,,,,,,,,,,,,,,,,,,,,,,,,,,,,,,,,,,,,,,,,,,,,,,,,,,,
,,?,0.001,0,,,,,,stimuli/images/PICTURE_33.png,FRIEND,59860c81d75d360001b0bd95,28/09/1946,2020-09-10_14h10.47.175,proactive3.1,2020.1.2,MacIntel,60,5f599a131af4471f3d752b7b,5f5a25b8a6fc86080f09ce5c,3,,,,,,frame,,,,,,,,,,,1,1,0,45,45,8,1,,,,,,,,,,,,,,,,,,,,,,,,,,,,,,,,,,,,,,,,,,,,,,,,,,,,,,,,,,,,,,,,,,,,,,,,,,,,,,,,,,,,,,,,,,,,,,,,,,,,,,,,
,,MONTH,6.638,1,,,,,,stimuli/images/PICTURE_654.png,MONTH,59860c81d75d360001b0bd95,28/09/1946,2020-09-10_14h10.47.175,proactive3.1,2020.1.2,MacIntel,60,5f599a131af4471f3d752b7b,5f5a25b8a6fc86080f09ce5c,3,,,,,,pencil,,,,,,,,,,,3,1,0,46,46,29,1,,,,,,,,,,,,,,,,,,,,,,,,,,,,,,,,,,,,,,,,,,,,,,,,,,,,,,,,,,,,,,,,,,,,,,,,,,,,,,,,,,,,,,,,,,,,,,,,,,,,,,,,
,,?,0.002,0,,,,,,stimuli/images/PICTURE_85.png,TOILET,59860c81d75d360001b0bd95,28/09/1946,2020-09-10_14h10.47.175,proactive3.1,2020.1.2,MacIntel,60,5f599a131af4471f3d752b7b,5f5a25b8a6fc86080f09ce5c,3,,,,,,diamond,,,,,,,,,,,5,1,0,47,47,48,1,,,,,,,,,,,,,,,,,,,,,,,,,,,,,,,,,,,,,,,,,,,,,,,,,,,,,,,,,,,,,,,,,,,,,,,,,,,,,,,,,,,,,,,,,,,,,,,,,,,,,,,,
,,?,0.001,0,,,,,,stimuli/images/PICTURE_108.png,FLIGHT,59860c81d75d360001b0bd95,28/09/1946,2020-09-10_14h10.47.175,proactive3.1,2020.1.2,MacIntel,60,5f599a131af4471f3d752b7b,5f5a25b8a6fc86080f09ce5c,3,,,,,,calendar,,,,,,,,,,,6,1,0,48,48,59,1,,,,,,,,,,,,,,,,,,,,,,,,,,,,,,,,,,,,,,,,,,,,,,,,,,,,,,,,,,,,,,,,,,,,,,,,,,,,,,,,,,,,,,,,,,,,,,,,,,,,,,,,
,,?,0.001,0,,,,,,stimuli/images/PICTURE_285.png,LIFE,59860c81d75d360001b0bd95,28/09/1946,2020-09-10_14h10.47.175,proactive3.1,2020.1.2,MacIntel,60,5f599a131af4471f3d752b7b,5f5a25b8a6fc86080f09ce5c,3,,,,,,carrot,,,,,,,,,,,4,1,0,49,49,33,1,,,,,,,,,,,,,,,,,,,,,,,,,,,,,,,,,,,,,,,,,,,,,,,,,,,,,,,,,,,,,,,,,,,,,,,,,,,,,,,,,,,,,,,,,,,,,,,,,,,,,,,,
,,?,0.001,0,,,,,,stimuli/images/PICTURE_327.png,SERIES,59860c81d75d360001b0bd95,28/09/1946,2020-09-10_14h10.47.175,proactive3.1,2020.1.2,MacIntel,60,5f599a131af4471f3d752b7b,5f5a25b8a6fc86080f09ce5c,3,,,,,,helmet,,,,,,,,,,,1,1,0,50,50,3,1,,,,,,,,,,,,,,,,,,,,,,,,,,,,,,,,,,,,,,,,,,,,,,,,,,,,,,,,,,,,,,,,,,,,,,,,,,,,,,,,,,,,,,,,,,,,,,,,,,,,,,,,
,,?,0.001,0,,,,,,stimuli/images/PICTURE_405.png,YEAR,59860c81d75d360001b0bd95,28/09/1946,2020-09-10_14h10.47.175,proactive3.1,2020.1.2,MacIntel,60,5f599a131af4471f3d752b7b,5f5a25b8a6fc86080f09ce5c,3,,,,,,anchor,,,,,,,,,,,4,1,0,51,51,34,1,,,,,,,,,,,,,,,,,,,,,,,,,,,,,,,,,,,,,,,,,,,,,,,,,,,,,,,,,,,,,,,,,,,,,,,,,,,,,,,,,,,,,,,,,,,,,,,,,,,,,,,,
,,?,0,0,,,,,,stimuli/images/PICTURE_296.png,LOTS,59860c81d75d360001b0bd95,28/09/1946,2020-09-10_14h10.47.175,proactive3.1,2020.1.2,MacIntel,60,5f599a131af4471f3d752b7b,5f5a25b8a6fc86080f09ce5c,3,,,,,,bolt,,,,,,,,,,,1,1,0,52,52,9,1,,,,,,,,,,,,,,,,,,,,,,,,,,,,,,,,,,,,,,,,,,,,,,,,,,,,,,,,,,,,,,,,,,,,,,,,,,,,,,,,,,,,,,,,,,,,,,,,,,,,,,,,
,,HOTEL,3.688,1,,,,,,stimuli/images/PICTURE_750.png,HOTEL,59860c81d75d360001b0bd95,28/09/1946,2020-09-10_14h10.47.175,proactive3.1,2020.1.2,MacIntel,60,5f599a131af4471f3d752b7b,5f5a25b8a6fc86080f09ce5c,3,,,,,,kettle,,,,,,,,,,,3,1,0,53,53,27,1,,,,,,,,,,,,,,,,,,,,,,,,,,,,,,,,,,,,,,,,,,,,,,,,,,,,,,,,,,,,,,,,,,,,,,,,,,,,,,,,,,,,,,,,,,,,,,,,,,,,,,,,
,,?,0.002,0,,,,,,stimuli/images/PICTURE_208.png,SYSTEM,59860c81d75d360001b0bd95,28/09/1946,2020-09-10_14h10.47.175,proactive3.1,2020.1.2,MacIntel,60,5f599a131af4471f3d752b7b,5f5a25b8a6fc86080f09ce5c,3,,,,,,microphone,,,,,,,,,,,4,1,0,54,54,32,1,,,,,,,,,,,,,,,,,,,,,,,,,,,,,,,,,,,,,,,,,,,,,,,,,,,,,,,,,,,,,,,,,,,,,,,,,,,,,,,,,,,,,,,,,,,,,,,,,,,,,,,,
,,?,0.001,0,,,,,,stimuli/images/PICTURE_308.png,FAMILY,59860c81d75d360001b0bd95,28/09/1946,2020-09-10_14h10.47.175,proactive3.1,2020.1.2,MacIntel,60,5f599a131af4471f3d752b7b,5f5a25b8a6fc86080f09ce5c,3,,,,,,dice,,,,,,,,,,,4,1,0,55,55,36,1,,,,,,,,,,,,,,,,,,,,,,,,,,,,,,,,,,,,,,,,,,,,,,,,,,,,,,,,,,,,,,,,,,,,,,,,,,,,,,,,,,,,,,,,,,,,,,,,,,,,,,,,
,,?,0.001,0,,,,,,stimuli/images/PICTURE_203.png,GODS,59860c81d75d360001b0bd95,28/09/1946,2020-09-10_14h10.47.175,proactive3.1,2020.1.2,MacIntel,60,5f599a131af4471f3d752b7b,5f5a25b8a6fc86080f09ce5c,3,,,,,,cap,,,,,,,,,,,4,1,0,56,56,30,1,,,,,,,,,,,,,,,,,,,,,,,,,,,,,,,,,,,,,,,,,,,,,,,,,,,,,,,,,,,,,,,,,,,,,,,,,,,,,,,,,,,,,,,,,,,,,,,,,,,,,,,,
,,?,0.001,0,,,,,,stimuli/images/PICTURE_491.png,GLASS,59860c81d75d360001b0bd95,28/09/1946,2020-09-10_14h10.47.175,proactive3.1,2020.1.2,MacIntel,60,5f599a131af4471f3d752b7b,5f5a25b8a6fc86080f09ce5c,3,,,,,,rug,,,,,,,,,,,2,1,0,57,57,14,1,,,,,,,,,,,,,,,,,,,,,,,,,,,,,,,,,,,,,,,,,,,,,,,,,,,,,,,,,,,,,,,,,,,,,,,,,,,,,,,,,,,,,,,,,,,,,,,,,,,,,,,,
,,LETTER,3.874,1,,,,,,stimuli/images/PICTURE_340.png,LETTER,59860c81d75d360001b0bd95,28/09/1946,2020-09-10_14h10.47.175,proactive3.1,2020.1.2,MacIntel,60,5f599a131af4471f3d752b7b,5f5a25b8a6fc86080f09ce5c,3,,,,,,mirror,,,,,,,,,,,3,1,0,58,58,24,1,,,,,,,,,,,,,,,,,,,,,,,,,,,,,,,,,,,,,,,,,,,,,,,,,,,,,,,,,,,,,,,,,,,,,,,,,,,,,,,,,,,,,,,,,,,,,,,,,,,,,,,,
,,?,0.001,0,,,,,,stimuli/images/PICTURE_744.png,WEAPON,59860c81d75d360001b0bd95,28/09/1946,2020-09-10_14h10.47.175,proactive3.1,2020.1.2,MacIntel,60,5f599a131af4471f3d752b7b,5f5a25b8a6fc86080f09ce5c,3,,,,,,ring,,,,,,,,,,,6,1,0,59,59,50,1,,,,,,,,,,,,,,,,,,,,,,,,,,,,,,,,,,,,,,,,,,,,,,,,,,,,,,,,,,,,,,,,,,,,,,,,,,,,,,,,,,,,,,,,,,,,,,,,,,,,,,,,
,,,,,,,,,,,,59860c81d75d360001b0bd95,28/09/1946,2020-09-10_14h10.47.175,proactive3.1,2020.1.2,MacIntel,60,5f599a131af4471f3d752b7b,5f5a25b8a6fc86080f09ce5c,3,,,,,,,,,,,,,,,,,,,,,,,,0,1,1,1,1,stimuli/learn-block2.csv,,,,,,,,,,,,,,,,,,,,,,,,,,,,,,,,,,,,,,,,,,,,,,,,,,,,,,,,,,,,,,,,,,,,,,,,,,,,,,,,,,,,,,,,,,,,,,,,,,
,,,,,,,,,,stimuli/images/PICTURE_57.png,CASINO,59860c81d75d360001b0bd95,28/09/1946,2020-09-10_14h10.47.175,proactive3.1,2020.1.2,MacIntel,60,5f599a131af4471f3d752b7b,5f5a25b8a6fc86080f09ce5c,3,,,,,,stamp,,,,,,0,0,0,12,1,2,2,,,,,,,,,,,,,,,,,,,,,,,,,,,,,,,,,,,,,,,,,,,,,,,,,,,,,,,,,,,,,,,,,,,,,,,,,,,,,,,,,,,,,,,,,,,,,,,,,,,,,,,,,,,,,
,,,,,,,,,,stimuli/images/PICTURE_509.png,MILLER,59860c81d75d360001b0bd95,28/09/1946,2020-09-10_14h10.47.175,proactive3.1,2020.1.2,MacIntel,60,5f599a131af4471f3d752b7b,5f5a25b8a6fc86080f09ce5c,3,,,,,,telephone,,,,,,0,1,1,49,1,5,2,,,,,,,,,,,,,,,,,,,,,,,,,,,,,,,,,,,,,,,,,,,,,,,,,,,,,,,,,,,,,,,,,,,,,,,,,,,,,,,,,,,,,,,,,,,,,,,,,,,,,,,,,,,,,
,,,,,,,,,,stimuli/images/PICTURE_348.png,TOILET,59860c81d75d360001b0bd95,28/09/1946,2020-09-10_14h10.47.175,proactive3.1,2020.1.2,MacIntel,60,5f599a131af4471f3d752b7b,5f5a25b8a6fc86080f09ce5c,3,,,,,,pepper,,,,,,0,2,2,4,1,1,2,,,,,,,,,,,,,,,,,,,,,,,,,,,,,,,,,,,,,,,,,,,,,,,,,,,,,,,,,,,,,,,,,,,,,,,,,,,,,,,,,,,,,,,,,,,,,,,,,,,,,,,,,,,,,
,,,,,,,,,,stimuli/images/PICTURE_2.png,JUNGLE,59860c81d75d360001b0bd95,28/09/1946,2020-09-10_14h10.47.175,proactive3.1,2020.1.2,MacIntel,60,5f599a131af4471f3d752b7b,5f5a25b8a6fc86080f09ce5c,3,,,,,,tyre,,,,,,0,3,3,1,1,1,2,,,,,,,,,,,,,,,,,,,,,,,,,,,,,,,,,,,,,,,,,,,,,,,,,,,,,,,,,,,,,,,,,,,,,,,,,,,,,,,,,,,,,,,,,,,,,,,,,,,,,,,,,,,,,
,,,,,,,,,,stimuli/images/PICTURE_2.png,AREA,59860c81d75d360001b0bd95,28/09/1946,2020-09-10_14h10.47.175,proactive3.1,2020.1.2,MacIntel,60,5f599a131af4471f3d752b7b,5f5a25b8a6fc86080f09ce5c,3,,,,,,tyre,,,,,,0,4,4,32,1,4,2,,,,,,,,,,,,,,,,,,,,,,,,,,,,,,,,,,,,,,,,,,,,,,,,,,,,,,,,,,,,,,,,,,,,,,,,,,,,,,,,,,,,,,,,,,,,,,,,,,,,,,,,,,,,,
,,,,,,,,,,stimuli/images/PICTURE_285.png,PRINCE,59860c81d75d360001b0bd95,28/09/1946,2020-09-10_14h10.47.175,proactive3.1,2020.1.2,MacIntel,60,5f599a131af4471f3d752b7b,5f5a25b8a6fc86080f09ce5c,3,,,,,,carrot,,,,,,0,5,5,20,1,3,2,,,,,,,,,,,,,,,,,,,,,,,,,,,,,,,,,,,,,,,,,,,,,,,,,,,,,,,,,,,,,,,,,,,,,,,,,,,,,,,,,,,,,,,,,,,,,,,,,,,,,,,,,,,,,
,,,,,,,,,,stimuli/images/PICTURE_564.png,PLENTY,59860c81d75d360001b0bd95,28/09/1946,2020-09-10_14h10.47.175,proactive3.1,2020.1.2,MacIntel,60,5f599a131af4471f3d752b7b,5f5a25b8a6fc86080f09ce5c,3,,,,,,spoon,,,,,,0,6,6,11,1,2,2,,,,,,,,,,,,,,,,,,,,,,,,,,,,,,,,,,,,,,,,,,,,,,,,,,,,,,,,,,,,,,,,,,,,,,,,,,,,,,,,,,,,,,,,,,,,,,,,,,,,,,,,,,,,,
,,,,,,,,,,stimuli/images/PICTURE_403.png,FAMILY,59860c81d75d360001b0bd95,28/09/1946,2020-09-10_14h10.47.175,proactive3.1,2020.1.2,MacIntel,60,5f599a131af4471f3d752b7b,5f5a25b8a6fc86080f09ce5c,3,,,,,,cathedral,,,,,,0,7,7,9,1,1,2,,,,,,,,,,,,,,,,,,,,,,,,,,,,,,,,,,,,,,,,,,,,,,,,,,,,,,,,,,,,,,,,,,,,,,,,,,,,,,,,,,,,,,,,,,,,,,,,,,,,,,,,,,,,,
,,,,,,,,,,stimuli/images/PICTURE_255.png,PENNY,59860c81d75d360001b0bd95,28/09/1946,2020-09-10_14h10.47.175,proactive3.1,2020.1.2,MacIntel,60,5f599a131af4471f3d752b7b,5f5a25b8a6fc86080f09ce5c,3,,,,,,shovel,,,,,,0,8,8,19,1,2,2,,,,,,,,,,,,,,,,,,,,,,,,,,,,,,,,,,,,,,,,,,,,,,,,,,,,,,,,,,,,,,,,,,,,,,,,,,,,,,,,,,,,,,,,,,,,,,,,,,,,,,,,,,,,,
,,,,,,,,,,stimuli/images/PICTURE_509.png,APPLE,59860c81d75d360001b0bd95,28/09/1946,2020-09-10_14h10.47.175,proactive3.1,2020.1.2,MacIntel,60,5f599a131af4471f3d752b7b,5f5a25b8a6fc86080f09ce5c,3,,,,,,telephone,,,,,,0,9,9,38,1,4,2,,,,,,,,,,,,,,,,,,,,,,,,,,,,,,,,,,,,,,,,,,,,,,,,,,,,,,,,,,,,,,,,,,,,,,,,,,,,,,,,,,,,,,,,,,,,,,,,,,,,,,,,,,,,,
,,,,,,,,,,stimuli/images/PICTURE_123.png,SALE,59860c81d75d360001b0bd95,28/09/1946,2020-09-10_14h10.47.175,proactive3.1,2020.1.2,MacIntel,60,5f599a131af4471f3d752b7b,5f5a25b8a6fc86080f09ce5c,3,,,,,,dart,,,,,,0,10,10,8,1,1,2,,,,,,,,,,,,,,,,,,,,,,,,,,,,,,,,,,,,,,,,,,,,,,,,,,,,,,,,,,,,,,,,,,,,,,,,,,,,,,,,,,,,,,,,,,,,,,,,,,,,,,,,,,,,,
,,,,,,,,,,stimuli/images/PICTURE_57.png,CANDY,59860c81d75d360001b0bd95,28/09/1946,2020-09-10_14h10.47.175,proactive3.1,2020.1.2,MacIntel,60,5f599a131af4471f3d752b7b,5f5a25b8a6fc86080f09ce5c,3,,,,,,stamp,,,,,,0,11,11,52,1,6,2,,,,,,,,,,,,,,,,,,,,,,,,,,,,,,,,,,,,,,,,,,,,,,,,,,,,,,,,,,,,,,,,,,,,,,,,,,,,,,,,,,,,,,,,,,,,,,,,,,,,,,,,,,,,,
,,,,,,,,,,stimuli/images/PICTURE_487.png,ROOF,59860c81d75d360001b0bd95,28/09/1946,2020-09-10_14h10.47.175,proactive3.1,2020.1.2,MacIntel,60,5f599a131af4471f3d752b7b,5f5a25b8a6fc86080f09ce5c,3,,,,,,basket,,,,,,0,12,12,50,1,6,2,,,,,,,,,,,,,,,,,,,,,,,,,,,,,,,,,,,,,,,,,,,,,,,,,,,,,,,,,,,,,,,,,,,,,,,,,,,,,,,,,,,,,,,,,,,,,,,,,,,,,,,,,,,,,
,,,,,,,,,,stimuli/images/PICTURE_327.png,LEADER,59860c81d75d360001b0bd95,28/09/1946,2020-09-10_14h10.47.175,proactive3.1,2020.1.2,MacIntel,60,5f599a131af4471f3d752b7b,5f5a25b8a6fc86080f09ce5c,3,,,,,,helmet,,,,,,0,13,13,17,1,2,2,,,,,,,,,,,,,,,,,,,,,,,,,,,,,,,,,,,,,,,,,,,,,,,,,,,,,,,,,,,,,,,,,,,,,,,,,,,,,,,,,,,,,,,,,,,,,,,,,,,,,,,,,,,,,
,,,,,,,,,,stimuli/images/PICTURE_296.png,CLOCK,59860c81d75d360001b0bd95,28/09/1946,2020-09-10_14h10.47.175,proactive3.1,2020.1.2,MacIntel,60,5f599a131af4471f3d752b7b,5f5a25b8a6fc86080f09ce5c,3,,,,,,bolt,,,,,,0,14,14,18,1,2,2,,,,,,,,,,,,,,,,,,,,,,,,,,,,,,,,,,,,,,,,,,,,,,,,,,,,,,,,,,,,,,,,,,,,,,,,,,,,,,,,,,,,,,,,,,,,,,,,,,,,,,,,,,,,,
,,,,,,,,,,stimuli/images/PICTURE_688.png,CLOCK,59860c81d75d360001b0bd95,28/09/1946,2020-09-10_14h10.47.175,proactive3.1,2020.1.2,MacIntel,60,5f599a131af4471f3d752b7b,5f5a25b8a6fc86080f09ce5c,3,,,,,,runner,,,,,,0,15,15,42,1,5,2,,,,,,,,,,,,,,,,,,,,,,,,,,,,,,,,,,,,,,,,,,,,,,,,,,,,,,,,,,,,,,,,,,,,,,,,,,,,,,,,,,,,,,,,,,,,,,,,,,,,,,,,,,,,,
,,,,,,,,,,stimuli/images/PICTURE_750.png,POLICY,59860c81d75d360001b0bd95,28/09/1946,2020-09-10_14h10.47.175,proactive3.1,2020.1.2,MacIntel,60,5f599a131af4471f3d752b7b,5f5a25b8a6fc86080f09ce5c,3,,,,,,kettle,,,,,,0,16,16,44,1,5,2,,,,,,,,,,,,,,,,,,,,,,,,,,,,,,,,,,,,,,,,,,,,,,,,,,,,,,,,,,,,,,,,,,,,,,,,,,,,,,,,,,,,,,,,,,,,,,,,,,,,,,,,,,,,,
,,,,,,,,,,stimuli/images/PICTURE_405.png,JUNGLE,59860c81d75d360001b0bd95,28/09/1946,2020-09-10_14h10.47.175,proactive3.1,2020.1.2,MacIntel,60,5f599a131af4471f3d752b7b,5f5a25b8a6fc86080f09ce5c,3,,,,,,anchor,,,,,,0,17,17,58,1,6,2,,,,,,,,,,,,,,,,,,,,,,,,,,,,,,,,,,,,,,,,,,,,,,,,,,,,,,,,,,,,,,,,,,,,,,,,,,,,,,,,,,,,,,,,,,,,,,,,,,,,,,,,,,,,,
,,,,,,,,,,stimuli/images/PICTURE_453.png,FAMILY,59860c81d75d360001b0bd95,28/09/1946,2020-09-10_14h10.47.175,proactive3.1,2020.1.2,MacIntel,60,5f599a131af4471f3d752b7b,5f5a25b8a6fc86080f09ce5c,3,,,,,,scissors,,,,,,0,18,18,48,1,5,2,,,,,,,,,,,,,,,,,,,,,,,,,,,,,,,,,,,,,,,,,,,,,,,,,,,,,,,,,,,,,,,,,,,,,,,,,,,,,,,,,,,,,,,,,,,,,,,,,,,,,,,,,,,,,
,,,,,,,,,,stimuli/images/PICTURE_692.png,DUDE,59860c81d75d360001b0bd95,28/09/1946,2020-09-10_14h10.47.175,proactive3.1,2020.1.2,MacIntel,60,5f599a131af4471f3d752b7b,5f5a25b8a6fc86080f09ce5c,3,,,,,,cherry,,,,,,0,19,19,47,1,5,2,,,,,,,,,,,,,,,,,,,,,,,,,,,,,,,,,,,,,,,,,,,,,,,,,,,,,,,,,,,,,,,,,,,,,,,,,,,,,,,,,,,,,,,,,,,,,,,,,,,,,,,,,,,,,
,,,,,,,,,,stimuli/images/PICTURE_487.png,POLICY,59860c81d75d360001b0bd95,28/09/1946,2020-09-10_14h10.47.175,proactive3.1,2020.1.2,MacIntel,60,5f599a131af4471f3d752b7b,5f5a25b8a6fc86080f09ce5c,3,,,,,,basket,,,,,,0,20,20,34,1,4,2,,,,,,,,,,,,,,,,,,,,,,,,,,,,,,,,,,,,,,,,,,,,,,,,,,,,,,,,,,,,,,,,,,,,,,,,,,,,,,,,,,,,,,,,,,,,,,,,,,,,,,,,,,,,,
,,,,,,,,,,stimuli/images/PICTURE_215.png,FOOD,59860c81d75d360001b0bd95,28/09/1946,2020-09-10_14h10.47.175,proactive3.1,2020.1.2,MacIntel,60,5f599a131af4471f3d752b7b,5f5a25b8a6fc86080f09ce5c,3,,,,,,boot,,,,,,0,21,21,5,1,1,2,,,,,,,,,,,,,,,,,,,,,,,,,,,,,,,,,,,,,,,,,,,,,,,,,,,,,,,,,,,,,,,,,,,,,,,,,,,,,,,,,,,,,,,,,,,,,,,,,,,,,,,,,,,,,
,,,,,,,,,,stimuli/images/PICTURE_160.png,HOTEL,59860c81d75d360001b0bd95,28/09/1946,2020-09-10_14h10.47.175,proactive3.1,2020.1.2,MacIntel,60,5f599a131af4471f3d752b7b,5f5a25b8a6fc86080f09ce5c,3,,,,,,wheelbarrow,,,,,,0,22,22,16,1,2,2,,,,,,,,,,,,,,,,,,,,,,,,,,,,,,,,,,,,,,,,,,,,,,,,,,,,,,,,,,,,,,,,,,,,,,,,,,,,,,,,,,,,,,,,,,,,,,,,,,,,,,,,,,,,,
,,,,,,,,,,stimuli/images/PICTURE_177.png,HOUSE,59860c81d75d360001b0bd95,28/09/1946,2020-09-10_14h10.47.175,proactive3.1,2020.1.2,MacIntel,60,5f599a131af4471f3d752b7b,5f5a25b8a6fc86080f09ce5c,3,,,,,,mushroom,,,,,,0,23,23,25,1,3,2,,,,,,,,,,,,,,,,,,,,,,,,,,,,,,,,,,,,,,,,,,,,,,,,,,,,,,,,,,,,,,,,,,,,,,,,,,,,,,,,,,,,,,,,,,,,,,,,,,,,,,,,,,,,,
,,,,,,,,,,stimuli/images/PICTURE_18.png,RIVER,59860c81d75d360001b0bd95,28/09/1946,2020-09-10_14h10.47.175,proactive3.1,2020.1.2,MacIntel,60,5f599a131af4471f3d752b7b,5f5a25b8a6fc86080f09ce5c,3,,,,,,planet,,,,,,0,24,24,22,1,3,2,,,,,,,,,,,,,,,,,,,,,,,,,,,,,,,,,,,,,,,,,,,,,,,,,,,,,,,,,,,,,,,,,,,,,,,,,,,,,,,,,,,,,,,,,,,,,,,,,,,,,,,,,,,,,
,,,,,,,,,,stimuli/images/PICTURE_452.png,COPS,59860c81d75d360001b0bd95,28/09/1946,2020-09-10_14h10.47.175,proactive3.1,2020.1.2,MacIntel,60,5f599a131af4471f3d752b7b,5f5a25b8a6fc86080f09ce5c,3,,,,,,watch,,,,,,0,25,25,0,1,1,2,,,,,,,,,,,,,,,,,,,,,,,,,,,,,,,,,,,,,,,,,,,,,,,,,,,,,,,,,,,,,,,,,,,,,,,,,,,,,,,,,,,,,,,,,,,,,,,,,,,,,,,,,,,,,
,,,,,,,,,,stimuli/images/PICTURE_491.png,SERIES,59860c81d75d360001b0bd95,28/09/1946,2020-09-10_14h10.47.175,proactive3.1,2020.1.2,MacIntel,60,5f599a131af4471f3d752b7b,5f5a25b8a6fc86080f09ce5c,3,,,,,,rug,,,,,,0,26,26,39,1,4,2,,,,,,,,,,,,,,,,,,,,,,,,,,,,,,,,,,,,,,,,,,,,,,,,,,,,,,,,,,,,,,,,,,,,,,,,,,,,,,,,,,,,,,,,,,,,,,,,,,,,,,,,,,,,,
,,,,,,,,,,stimuli/images/PICTURE_667.png,GLASS,59860c81d75d360001b0bd95,28/09/1946,2020-09-10_14h10.47.175,proactive3.1,2020.1.2,MacIntel,60,5f599a131af4471f3d752b7b,5f5a25b8a6fc86080f09ce5c,3,,,,,,daisy,,,,,,0,27,27,27,1,3,2,,,,,,,,,,,,,,,,,,,,,,,,,,,,,,,,,,,,,,,,,,,,,,,,,,,,,,,,,,,,,,,,,,,,,,,,,,,,,,,,,,,,,,,,,,,,,,,,,,,,,,,,,,,,,
,,,,,,,,,,stimuli/images/PICTURE_654.png,YEAR,59860c81d75d360001b0bd95,28/09/1946,2020-09-10_14h10.47.175,proactive3.1,2020.1.2,MacIntel,60,5f599a131af4471f3d752b7b,5f5a25b8a6fc86080f09ce5c,3,,,,,,pencil,,,,,,0,28,28,41,1,5,2,,,,,,,,,,,,,,,,,,,,,,,,,,,,,,,,,,,,,,,,,,,,,,,,,,,,,,,,,,,,,,,,,,,,,,,,,,,,,,,,,,,,,,,,,,,,,,,,,,,,,,,,,,,,,
,,,,,,,,,,stimuli/images/PICTURE_33.png,COPS,59860c81d75d360001b0bd95,28/09/1946,2020-09-10_14h10.47.175,proactive3.1,2020.1.2,MacIntel,60,5f599a131af4471f3d752b7b,5f5a25b8a6fc86080f09ce5c,3,,,,,,frame,,,,,,0,29,29,29,1,3,2,,,,,,,,,,,,,,,,,,,,,,,,,,,,,,,,,,,,,,,,,,,,,,,,,,,,,,,,,,,,,,,,,,,,,,,,,,,,,,,,,,,,,,,,,,,,,,,,,,,,,,,,,,,,,
,,,,,,,,,,stimuli/images/PICTURE_470.png,BEAUTY,59860c81d75d360001b0bd95,28/09/1946,2020-09-10_14h10.47.175,proactive3.1,2020.1.2,MacIntel,60,5f599a131af4471f3d752b7b,5f5a25b8a6fc86080f09ce5c,3,,,,,,motorbike,,,,,,0,30,30,26,1,3,2,,,,,,,,,,,,,,,,,,,,,,,,,,,,,,,,,,,,,,,,,,,,,,,,,,,,,,,,,,,,,,,,,,,,,,,,,,,,,,,,,,,,,,,,,,,,,,,,,,,,,,,,,,,,,
,,,,,,,,,,stimuli/images/PICTURE_297.png,BODY,59860c81d75d360001b0bd95,28/09/1946,2020-09-10_14h10.47.175,proactive3.1,2020.1.2,MacIntel,60,5f599a131af4471f3d752b7b,5f5a25b8a6fc86080f09ce5c,3,,,,,,aeroplane,,,,,,0,31,31,51,1,6,2,,,,,,,,,,,,,,,,,,,,,,,,,,,,,,,,,,,,,,,,,,,,,,,,,,,,,,,,,,,,,,,,,,,,,,,,,,,,,,,,,,,,,,,,,,,,,,,,,,,,,,,,,,,,,
,,,,,,,,,,stimuli/images/PICTURE_2.png,YARD,59860c81d75d360001b0bd95,28/09/1946,2020-09-10_14h10.47.175,proactive3.1,2020.1.2,MacIntel,60,5f599a131af4471f3d752b7b,5f5a25b8a6fc86080f09ce5c,3,,,,,,tyre,,,,,,0,32,32,55,1,6,2,,,,,,,,,,,,,,,,,,,,,,,,,,,,,,,,,,,,,,,,,,,,,,,,,,,,,,,,,,,,,,,,,,,,,,,,,,,,,,,,,,,,,,,,,,,,,,,,,,,,,,,,,,,,,
,,,,,,,,,,stimuli/images/PICTURE_95.png,NIGHT,59860c81d75d360001b0bd95,28/09/1946,2020-09-10_14h10.47.175,proactive3.1,2020.1.2,MacIntel,60,5f599a131af4471f3d752b7b,5f5a25b8a6fc86080f09ce5c,3,,,,,,suitcase,,,,,,0,33,33,37,1,4,2,,,,,,,,,,,,,,,,,,,,,,,,,,,,,,,,,,,,,,,,,,,,,,,,,,,,,,,,,,,,,,,,,,,,,,,,,,,,,,,,,,,,,,,,,,,,,,,,,,,,,,,,,,,,,
,,,,,,,,,,stimuli/images/PICTURE_654.png,COPS,59860c81d75d360001b0bd95,28/09/1946,2020-09-10_14h10.47.175,proactive3.1,2020.1.2,MacIntel,60,5f599a131af4471f3d752b7b,5f5a25b8a6fc86080f09ce5c,3,,,,,,pencil,,,,,,0,34,34,10,1,2,2,,,,,,,,,,,,,,,,,,,,,,,,,,,,,,,,,,,,,,,,,,,,,,,,,,,,,,,,,,,,,,,,,,,,,,,,,,,,,,,,,,,,,,,,,,,,,,,,,,,,,,,,,,,,,
,,,,,,,,,,stimuli/images/PICTURE_708.png,VALLEY,59860c81d75d360001b0bd95,28/09/1946,2020-09-10_14h10.47.175,proactive3.1,2020.1.2,MacIntel,60,5f599a131af4471f3d752b7b,5f5a25b8a6fc86080f09ce5c,3,,,,,,monkey,,,,,,0,35,35,45,1,5,2,,,,,,,,,,,,,,,,,,,,,,,,,,,,,,,,,,,,,,,,,,,,,,,,,,,,,,,,,,,,,,,,,,,,,,,,,,,,,,,,,,,,,,,,,,,,,,,,,,,,,,,,,,,,,
,,,,,,,,,,stimuli/images/PICTURE_677.png,FAMILY,59860c81d75d360001b0bd95,28/09/1946,2020-09-10_14h10.47.175,proactive3.1,2020.1.2,MacIntel,60,5f599a131af4471f3d752b7b,5f5a25b8a6fc86080f09ce5c,3,,,,,,map,,,,,,0,36,36,53,1,6,2,,,,,,,,,,,,,,,,,,,,,,,,,,,,,,,,,,,,,,,,,,,,,,,,,,,,,,,,,,,,,,,,,,,,,,,,,,,,,,,,,,,,,,,,,,,,,,,,,,,,,,,,,,,,,
