consent_key.keys,consent_key.rt,recalled,recalled_rt,recall_acc,example_recall.thisRepN,example_recall.thisTrialN,example_recall.thisN,example_recall.thisIndex,example_recall.ran,file,word,participant,please enter your date of birth (dd/mm/yyyy),date,expName,psychopyVersion,OS,frameRate,STUDY_ID,SESSION_ID,list,prac_learn_study_loop.thisRepN,prac_learn_study_loop.thisTrialN,prac_learn_study_loop.thisN,prac_learn_study_loop.thisIndex,prac_learn_study_loop.ran,image,prac_learn_test_loop.thisRepN,prac_learn_test_loop.thisTrialN,prac_learn_test_loop.thisN,prac_learn_test_loop.thisIndex,prac_learn_test_loop.ran,learn_study_loop.thisRepN,learn_study_loop.thisTrialN,learn_study_loop.thisN,learn_study_loop.thisIndex,learn_study_loop.ran,list_no,block_no,learn_test_loop.thisRepN,learn_test_loop.thisTrialN,learn_test_loop.thisN,learn_test_loop.thisIndex,learn_test_loop.ran,learn_blocks.thisRepN,learn_blocks.thisTrialN,learn_blocks.thisN,learn_blocks.thisIndex,learn_blocks.ran,block_csv,key_resp_13.keys,key_resp_13.rt,learn_blocks_loop.thisRepN,learn_blocks_loop.thisTrialN,learn_blocks_loop.thisN,learn_blocks_loop.thisIndex,learn_blocks_loop.ran,final_learn_test.thisRepN,final_learn_test.thisTrialN,final_learn_test.thisN,final_learn_test.thisIndex,final_learn_test.ran,s_im1,s_im2,s_im3,s_im4,s_im5,s_im6,s_im7,s_im8,s_im1pos,s_im2pos,s_im3pos,s_im4pos,s_im5pos,s_im6pos,s_im7pos,s_im8pos,s_tarright,search_resp.keys,search_loop.thisRepN,search_loop.thisTrialN,search_loop.thisN,search_loop.thisIndex,search_loop.ran,prac_wm_search_loop.thisRepN,prac_wm_search_loop.thisTrialN,prac_wm_search_loop.thisN,prac_wm_search_loop.thisIndex,prac_wm_search_loop.ran,prac_wm_test_loop.thisRepN,prac_wm_test_loop.thisTrialN,prac_wm_test_loop.thisN,prac_wm_test_loop.thisIndex,prac_wm_test_loop.ran,wm_recalled1,wm_recall_rt1,wm_probed1,wm_recall_acc1,wm_recalled2,wm_recall_rt2,wm_probed2,wm_recall_acc2,wm_recalled3,wm_recall_rt3,wm_probed3,wm_recall_acc3,wm_recalled4,wm_recall_rt4,wm_probed4,wm_recall_acc4,prac_wm_trial_loop.thisRepN,prac_wm_trial_loop.thisTrialN,prac_wm_trial_loop.thisN,prac_wm_trial_loop.thisIndex,prac_wm_trial_loop.ran,word1,image1,file1,item_type1,word2,image2,file2,item_type2,word4,image4,file4,item_type4,word3,image3,file3,item_type3,wm_search_loop.thisRepN,wm_search_loop.thisTrialN,wm_search_loop.thisN,wm_search_loop.thisIndex,wm_search_loop.ran,wm_test_loop.thisRepN,wm_test_loop.thisTrialN,wm_test_loop.thisN,wm_test_loop.thisIndex,wm_test_loop.ran,wm_trial_loop.thisRepN,wm_trial_loop.thisTrialN,wm_trial_loop.thisN,wm_trial_loop.thisIndex,wm_trial_loop.ran
y,8.496,TOUGH,5.715,1,0,0,0,0,1,stimuli/images/PICTURE_747.png,TOUGH,59e3b0252f63d30001c8f6f9,06/08/1955,2020-09-10_09h46.42.989,proactive3.1,2020.1.2,Win32,60,5f599a131af4471f3d752b7b,5f5a2e0e7e4af20917851c62,2,,,,,,,,,,,,,,,,,,,,,,,,,,,,,,,,,,,,,,,,,,,,,,,,,,,,,,,,,,,,,,,,,,,,,,,,,,,,,,,,,,,,,,,,,,,,,,,,,,,,,,,,,,,,,,,,,,,,,,,,,,,,,,
,,,,,,,,,,stimuli/images/PICTURE_269.png,GENIUS,59e3b0252f63d30001c8f6f9,06/08/1955,2020-09-10_09h46.42.989,proactive3.1,2020.1.2,Win32,60,5f599a131af4471f3d752b7b,5f5a2e0e7e4af20917851c62,2,0,0,0,0,1,chameleon,,,,,,,,,,,,,,,,,,,,,,,,,,,,,,,,,,,,,,,,,,,,,,,,,,,,,,,,,,,,,,,,,,,,,,,,,,,,,,,,,,,,,,,,,,,,,,,,,,,,,,,,,,,,,,,,,,,,,,,,
,,,,,,,,,,stimuli/images/PICTURE_727.png,CELL,59e3b0252f63d30001c8f6f9,06/08/1955,2020-09-10_09h46.42.989,proactive3.1,2020.1.2,Win32,60,5f599a131af4471f3d752b7b,5f5a2e0e7e4af20917851c62,2,0,1,1,1,1,hose,,,,,,,,,,,,,,,,,,,,,,,,,,,,,,,,,,,,,,,,,,,,,,,,,,,,,,,,,,,,,,,,,,,,,,,,,,,,,,,,,,,,,,,,,,,,,,,,,,,,,,,,,,,,,,,,,,,,,,,,
,,,,,,,,,,stimuli/images/PICTURE_658.png,DEVIL,59e3b0252f63d30001c8f6f9,06/08/1955,2020-09-10_09h46.42.989,proactive3.1,2020.1.2,Win32,60,5f599a131af4471f3d752b7b,5f5a2e0e7e4af20917851c62,2,0,2,2,3,1,crow,,,,,,,,,,,,,,,,,,,,,,,,,,,,,,,,,,,,,,,,,,,,,,,,,,,,,,,,,,,,,,,,,,,,,,,,,,,,,,,,,,,,,,,,,,,,,,,,,,,,,,,,,,,,,,,,,,,,,,,,
,,,,,,,,,,stimuli/images/PICTURE_378.png,LOSS,59e3b0252f63d30001c8f6f9,06/08/1955,2020-09-10_09h46.42.989,proactive3.1,2020.1.2,Win32,60,5f599a131af4471f3d752b7b,5f5a2e0e7e4af20917851c62,2,0,3,3,2,1,lobster,,,,,,,,,,,,,,,,,,,,,,,,,,,,,,,,,,,,,,,,,,,,,,,,,,,,,,,,,,,,,,,,,,,,,,,,,,,,,,,,,,,,,,,,,,,,,,,,,,,,,,,,,,,,,,,,,,,,,,,,
,,GENIUS,9.429,1,,,,,,stimuli/images/PICTURE_269.png,GENIUS,59e3b0252f63d30001c8f6f9,06/08/1955,2020-09-10_09h46.42.989,proactive3.1,2020.1.2,Win32,60,5f599a131af4471f3d752b7b,5f5a2e0e7e4af20917851c62,2,,,,,,chameleon,0,0,0,0,1,,,,,,,,,,,,,,,,,,,,,,,,,,,,,,,,,,,,,,,,,,,,,,,,,,,,,,,,,,,,,,,,,,,,,,,,,,,,,,,,,,,,,,,,,,,,,,,,,,,,,,,,,,,,,,,,,,,
,,CELL,6.829,1,,,,,,stimuli/images/PICTURE_727.png,CELL,59e3b0252f63d30001c8f6f9,06/08/1955,2020-09-10_09h46.42.989,proactive3.1,2020.1.2,Win32,60,5f599a131af4471f3d752b7b,5f5a2e0e7e4af20917851c62,2,,,,,,hose,0,1,1,1,1,,,,,,,,,,,,,,,,,,,,,,,,,,,,,,,,,,,,,,,,,,,,,,,,,,,,,,,,,,,,,,,,,,,,,,,,,,,,,,,,,,,,,,,,,,,,,,,,,,,,,,,,,,,,,,,,,,,
,,LOSS,3.964,1,,,,,,stimuli/images/PICTURE_378.png,LOSS,59e3b0252f63d30001c8f6f9,06/08/1955,2020-09-10_09h46.42.989,proactive3.1,2020.1.2,Win32,60,5f599a131af4471f3d752b7b,5f5a2e0e7e4af20917851c62,2,,,,,,lobster,0,2,2,2,1,,,,,,,,,,,,,,,,,,,,,,,,,,,,,,,,,,,,,,,,,,,,,,,,,,,,,,,,,,,,,,,,,,,,,,,,,,,,,,,,,,,,,,,,,,,,,,,,,,,,,,,,,,,,,,,,,,,
,,KILLER,3.829,1,,,,,,stimuli/images/PICTURE_697.png,KILLER,59e3b0252f63d30001c8f6f9,06/08/1955,2020-09-10_09h46.42.989,proactive3.1,2020.1.2,Win32,60,5f599a131af4471f3d752b7b,5f5a2e0e7e4af20917851c62,2,,,,,,peach,0,3,3,4,1,,,,,,,,,,,,,,,,,,,,,,,,,,,,,,,,,,,,,,,,,,,,,,,,,,,,,,,,,,,,,,,,,,,,,,,,,,,,,,,,,,,,,,,,,,,,,,,,,,,,,,,,,,,,,,,,,,,
,,DEVIL,3.051,1,,,,,,stimuli/images/PICTURE_658.png,DEVIL,59e3b0252f63d30001c8f6f9,06/08/1955,2020-09-10_09h46.42.989,proactive3.1,2020.1.2,Win32,60,5f599a131af4471f3d752b7b,5f5a2e0e7e4af20917851c62,2,,,,,,crow,0,4,4,3,1,,,,,,,,,,,,,,,,,,,,,,,,,,,,,,,,,,,,,,,,,,,,,,,,,,,,,,,,,,,,,,,,,,,,,,,,,,,,,,,,,,,,,,,,,,,,,,,,,,,,,,,,,,,,,,,,,,,
,,,,,,,,,,stimuli/images/PICTURE_308.png,ESTATE,59e3b0252f63d30001c8f6f9,06/08/1955,2020-09-10_09h46.42.989,proactive3.1,2020.1.2,Win32,60,5f599a131af4471f3d752b7b,5f5a2e0e7e4af20917851c62,2,,,,,,dice,,,,,,0,0,0,46,1,5,0,,,,,,,,,,,,,,,,,,,,,,,,,,,,,,,,,,,,,,,,,,,,,,,,,,,,,,,,,,,,,,,,,,,,,,,,,,,,,,,,,,,,,,,,,,,,,,,,,,,,,,,,,,,,
,,,,,,,,,,stimuli/images/PICTURE_215.png,PLENTY,59e3b0252f63d30001c8f6f9,06/08/1955,2020-09-10_09h46.42.989,proactive3.1,2020.1.2,Win32,60,5f599a131af4471f3d752b7b,5f5a2e0e7e4af20917851c62,2,,,,,,boot,,,,,,0,1,1,37,1,4,0,,,,,,,,,,,,,,,,,,,,,,,,,,,,,,,,,,,,,,,,,,,,,,,,,,,,,,,,,,,,,,,,,,,,,,,,,,,,,,,,,,,,,,,,,,,,,,,,,,,,,,,,,,,,
,,,,,,,,,,stimuli/images/PICTURE_491.png,ROOF,59e3b0252f63d30001c8f6f9,06/08/1955,2020-09-10_09h46.42.989,proactive3.1,2020.1.2,Win32,60,5f599a131af4471f3d752b7b,5f5a2e0e7e4af20917851c62,2,,,,,,rug,,,,,,0,2,2,24,1,3,0,,,,,,,,,,,,,,,,,,,,,,,,,,,,,,,,,,,,,,,,,,,,,,,,,,,,,,,,,,,,,,,,,,,,,,,,,,,,,,,,,,,,,,,,,,,,,,,,,,,,,,,,,,,,
,,,,,,,,,,stimuli/images/PICTURE_449.png,THING,59e3b0252f63d30001c8f6f9,06/08/1955,2020-09-10_09h46.42.989,proactive3.1,2020.1.2,Win32,60,5f599a131af4471f3d752b7b,5f5a2e0e7e4af20917851c62,2,,,,,,bench,,,,,,0,3,3,59,1,6,0,,,,,,,,,,,,,,,,,,,,,,,,,,,,,,,,,,,,,,,,,,,,,,,,,,,,,,,,,,,,,,,,,,,,,,,,,,,,,,,,,,,,,,,,,,,,,,,,,,,,,,,,,,,,
,,,,,,,,,,stimuli/images/PICTURE_675.png,WEAPON,59e3b0252f63d30001c8f6f9,06/08/1955,2020-09-10_09h46.42.989,proactive3.1,2020.1.2,Win32,60,5f599a131af4471f3d752b7b,5f5a2e0e7e4af20917851c62,2,,,,,,windmill,,,,,,0,4,4,32,1,4,0,,,,,,,,,,,,,,,,,,,,,,,,,,,,,,,,,,,,,,,,,,,,,,,,,,,,,,,,,,,,,,,,,,,,,,,,,,,,,,,,,,,,,,,,,,,,,,,,,,,,,,,,,,,,
,,,,,,,,,,stimuli/images/PICTURE_380.png,DEATH,59e3b0252f63d30001c8f6f9,06/08/1955,2020-09-10_09h46.42.989,proactive3.1,2020.1.2,Win32,60,5f599a131af4471f3d752b7b,5f5a2e0e7e4af20917851c62,2,,,,,,gorilla,,,,,,0,5,5,49,1,5,0,,,,,,,,,,,,,,,,,,,,,,,,,,,,,,,,,,,,,,,,,,,,,,,,,,,,,,,,,,,,,,,,,,,,,,,,,,,,,,,,,,,,,,,,,,,,,,,,,,,,,,,,,,,,
,,,,,,,,,,stimuli/images/PICTURE_453.png,PLENTY,59e3b0252f63d30001c8f6f9,06/08/1955,2020-09-10_09h46.42.989,proactive3.1,2020.1.2,Win32,60,5f599a131af4471f3d752b7b,5f5a2e0e7e4af20917851c62,2,,,,,,scissors,,,,,,0,6,6,56,1,6,0,,,,,,,,,,,,,,,,,,,,,,,,,,,,,,,,,,,,,,,,,,,,,,,,,,,,,,,,,,,,,,,,,,,,,,,,,,,,,,,,,,,,,,,,,,,,,,,,,,,,,,,,,,,,
,,,,,,,,,,stimuli/images/PICTURE_708.png,CLIENT,59e3b0252f63d30001c8f6f9,06/08/1955,2020-09-10_09h46.42.989,proactive3.1,2020.1.2,Win32,60,5f599a131af4471f3d752b7b,5f5a2e0e7e4af20917851c62,2,,,,,,monkey,,,,,,0,7,7,5,1,1,0,,,,,,,,,,,,,,,,,,,,,,,,,,,,,,,,,,,,,,,,,,,,,,,,,,,,,,,,,,,,,,,,,,,,,,,,,,,,,,,,,,,,,,,,,,,,,,,,,,,,,,,,,,,,
,,,,,,,,,,stimuli/images/PICTURE_311.png,FRIEND,59e3b0252f63d30001c8f6f9,06/08/1955,2020-09-10_09h46.42.989,proactive3.1,2020.1.2,Win32,60,5f599a131af4471f3d752b7b,5f5a2e0e7e4af20917851c62,2,,,,,,razor,,,,,,0,8,8,34,1,4,0,,,,,,,,,,,,,,,,,,,,,,,,,,,,,,,,,,,,,,,,,,,,,,,,,,,,,,,,,,,,,,,,,,,,,,,,,,,,,,,,,,,,,,,,,,,,,,,,,,,,,,,,,,,,
,,,,,,,,,,stimuli/images/PICTURE_469.png,LETTER,59e3b0252f63d30001c8f6f9,06/08/1955,2020-09-10_09h46.42.989,proactive3.1,2020.1.2,Win32,60,5f599a131af4471f3d752b7b,5f5a2e0e7e4af20917851c62,2,,,,,,stool,,,,,,0,9,9,42,1,5,0,,,,,,,,,,,,,,,,,,,,,,,,,,,,,,,,,,,,,,,,,,,,,,,,,,,,,,,,,,,,,,,,,,,,,,,,,,,,,,,,,,,,,,,,,,,,,,,,,,,,,,,,,,,,
,,,,,,,,,,stimuli/images/PICTURE_314.png,GODS,59e3b0252f63d30001c8f6f9,06/08/1955,2020-09-10_09h46.42.989,proactive3.1,2020.1.2,Win32,60,5f599a131af4471f3d752b7b,5f5a2e0e7e4af20917851c62,2,,,,,,perfume,,,,,,0,10,10,11,1,2,0,,,,,,,,,,,,,,,,,,,,,,,,,,,,,,,,,,,,,,,,,,,,,,,,,,,,,,,,,,,,,,,,,,,,,,,,,,,,,,,,,,,,,,,,,,,,,,,,,,,,,,,,,,,,
,,,,,,,,,,stimuli/images/PICTURE_487.png,FLIGHT,59e3b0252f63d30001c8f6f9,06/08/1955,2020-09-10_09h46.42.989,proactive3.1,2020.1.2,Win32,60,5f599a131af4471f3d752b7b,5f5a2e0e7e4af20917851c62,2,,,,,,basket,,,,,,0,11,11,9,1,1,0,,,,,,,,,,,,,,,,,,,,,,,,,,,,,,,,,,,,,,,,,,,,,,,,,,,,,,,,,,,,,,,,,,,,,,,,,,,,,,,,,,,,,,,,,,,,,,,,,,,,,,,,,,,,
,,,,,,,,,,stimuli/images/PICTURE_285.png,ADVICE,59e3b0252f63d30001c8f6f9,06/08/1955,2020-09-10_09h46.42.989,proactive3.1,2020.1.2,Win32,60,5f599a131af4471f3d752b7b,5f5a2e0e7e4af20917851c62,2,,,,,,carrot,,,,,,0,12,12,12,1,2,0,,,,,,,,,,,,,,,,,,,,,,,,,,,,,,,,,,,,,,,,,,,,,,,,,,,,,,,,,,,,,,,,,,,,,,,,,,,,,,,,,,,,,,,,,,,,,,,,,,,,,,,,,,,,
,,,,,,,,,,stimuli/images/PICTURE_208.png,MONTH,59e3b0252f63d30001c8f6f9,06/08/1955,2020-09-10_09h46.42.989,proactive3.1,2020.1.2,Win32,60,5f599a131af4471f3d752b7b,5f5a2e0e7e4af20917851c62,2,,,,,,microphone,,,,,,0,13,13,53,1,6,0,,,,,,,,,,,,,,,,,,,,,,,,,,,,,,,,,,,,,,,,,,,,,,,,,,,,,,,,,,,,,,,,,,,,,,,,,,,,,,,,,,,,,,,,,,,,,,,,,,,,,,,,,,,,
,,,,,,,,,,stimuli/images/PICTURE_302.png,FAMILY,59e3b0252f63d30001c8f6f9,06/08/1955,2020-09-10_09h46.42.989,proactive3.1,2020.1.2,Win32,60,5f599a131af4471f3d752b7b,5f5a2e0e7e4af20917851c62,2,,,,,,taxi,,,,,,0,14,14,18,1,2,0,,,,,,,,,,,,,,,,,,,,,,,,,,,,,,,,,,,,,,,,,,,,,,,,,,,,,,,,,,,,,,,,,,,,,,,,,,,,,,,,,,,,,,,,,,,,,,,,,,,,,,,,,,,,
,,,,,,,,,,stimuli/images/PICTURE_453.png,DUDE,59e3b0252f63d30001c8f6f9,06/08/1955,2020-09-10_09h46.42.989,proactive3.1,2020.1.2,Win32,60,5f599a131af4471f3d752b7b,5f5a2e0e7e4af20917851c62,2,,,,,,scissors,,,,,,0,15,15,27,1,3,0,,,,,,,,,,,,,,,,,,,,,,,,,,,,,,,,,,,,,,,,,,,,,,,,,,,,,,,,,,,,,,,,,,,,,,,,,,,,,,,,,,,,,,,,,,,,,,,,,,,,,,,,,,,,
,,,,,,,,,,stimuli/images/PICTURE_509.png,PHOTO,59e3b0252f63d30001c8f6f9,06/08/1955,2020-09-10_09h46.42.989,proactive3.1,2020.1.2,Win32,60,5f599a131af4471f3d752b7b,5f5a2e0e7e4af20917851c62,2,,,,,,telephone,,,,,,0,16,16,21,1,3,0,,,,,,,,,,,,,,,,,,,,,,,,,,,,,,,,,,,,,,,,,,,,,,,,,,,,,,,,,,,,,,,,,,,,,,,,,,,,,,,,,,,,,,,,,,,,,,,,,,,,,,,,,,,,
,,,,,,,,,,stimuli/images/PICTURE_348.png,SPEECH,59e3b0252f63d30001c8f6f9,06/08/1955,2020-09-10_09h46.42.989,proactive3.1,2020.1.2,Win32,60,5f599a131af4471f3d752b7b,5f5a2e0e7e4af20917851c62,2,,,,,,pepper,,,,,,0,17,17,20,1,3,0,,,,,,,,,,,,,,,,,,,,,,,,,,,,,,,,,,,,,,,,,,,,,,,,,,,,,,,,,,,,,,,,,,,,,,,,,,,,,,,,,,,,,,,,,,,,,,,,,,,,,,,,,,,,
,,,,,,,,,,stimuli/images/PICTURE_744.png,SYSTEM,59e3b0252f63d30001c8f6f9,06/08/1955,2020-09-10_09h46.42.989,proactive3.1,2020.1.2,Win32,60,5f599a131af4471f3d752b7b,5f5a2e0e7e4af20917851c62,2,,,,,,ring,,,,,,0,18,18,43,1,5,0,,,,,,,,,,,,,,,,,,,,,,,,,,,,,,,,,,,,,,,,,,,,,,,,,,,,,,,,,,,,,,,,,,,,,,,,,,,,,,,,,,,,,,,,,,,,,,,,,,,,,,,,,,,,
,,,,,,,,,,stimuli/images/PICTURE_708.png,YARD,59e3b0252f63d30001c8f6f9,06/08/1955,2020-09-10_09h46.42.989,proactive3.1,2020.1.2,Win32,60,5f599a131af4471f3d752b7b,5f5a2e0e7e4af20917851c62,2,,,,,,monkey,,,,,,0,19,19,29,1,3,0,,,,,,,,,,,,,,,,,,,,,,,,,,,,,,,,,,,,,,,,,,,,,,,,,,,,,,,,,,,,,,,,,,,,,,,,,,,,,,,,,,,,,,,,,,,,,,,,,,,,,,,,,,,,
,,,,,,,,,,stimuli/images/PICTURE_123.png,ADVICE,59e3b0252f63d30001c8f6f9,06/08/1955,2020-09-10_09h46.42.989,proactive3.1,2020.1.2,Win32,60,5f599a131af4471f3d752b7b,5f5a2e0e7e4af20917851c62,2,,,,,,dart,,,,,,0,20,20,50,1,6,0,,,,,,,,,,,,,,,,,,,,,,,,,,,,,,,,,,,,,,,,,,,,,,,,,,,,,,,,,,,,,,,,,,,,,,,,,,,,,,,,,,,,,,,,,,,,,,,,,,,,,,,,,,,,
,,,,,,,,,,stimuli/images/PICTURE_380.png,PHOTO,59e3b0252f63d30001c8f6f9,06/08/1955,2020-09-10_09h46.42.989,proactive3.1,2020.1.2,Win32,60,5f599a131af4471f3d752b7b,5f5a2e0e7e4af20917851c62,2,,,,,,gorilla,,,,,,0,21,21,52,1,6,0,,,,,,,,,,,,,,,,,,,,,,,,,,,,,,,,,,,,,,,,,,,,,,,,,,,,,,,,,,,,,,,,,,,,,,,,,,,,,,,,,,,,,,,,,,,,,,,,,,,,,,,,,,,,
,,,,,,,,,,stimuli/images/PICTURE_488.png,STYLE,59e3b0252f63d30001c8f6f9,06/08/1955,2020-09-10_09h46.42.989,proactive3.1,2020.1.2,Win32,60,5f599a131af4471f3d752b7b,5f5a2e0e7e4af20917851c62,2,,,,,,sun,,,,,,0,22,22,33,1,4,0,,,,,,,,,,,,,,,,,,,,,,,,,,,,,,,,,,,,,,,,,,,,,,,,,,,,,,,,,,,,,,,,,,,,,,,,,,,,,,,,,,,,,,,,,,,,,,,,,,,,,,,,,,,,
,,,,,,,,,,stimuli/images/PICTURE_327.png,BEAUTY,59e3b0252f63d30001c8f6f9,06/08/1955,2020-09-10_09h46.42.989,proactive3.1,2020.1.2,Win32,60,5f599a131af4471f3d752b7b,5f5a2e0e7e4af20917851c62,2,,,,,,helmet,,,,,,0,23,23,48,1,5,0,,,,,,,,,,,,,,,,,,,,,,,,,,,,,,,,,,,,,,,,,,,,,,,,,,,,,,,,,,,,,,,,,,,,,,,,,,,,,,,,,,,,,,,,,,,,,,,,,,,,,,,,,,,,
,,,,,,,,,,stimuli/images/PICTURE_147.png,MOMENT,59e3b0252f63d30001c8f6f9,06/08/1955,2020-09-10_09h46.42.989,proactive3.1,2020.1.2,Win32,60,5f599a131af4471f3d752b7b,5f5a2e0e7e4af20917851c62,2,,,,,,hanger,,,,,,0,24,24,51,1,6,0,,,,,,,,,,,,,,,,,,,,,,,,,,,,,,,,,,,,,,,,,,,,,,,,,,,,,,,,,,,,,,,,,,,,,,,,,,,,,,,,,,,,,,,,,,,,,,,,,,,,,,,,,,,,
,,,,,,,,,,stimuli/images/PICTURE_688.png,WOMEN,59e3b0252f63d30001c8f6f9,06/08/1955,2020-09-10_09h46.42.989,proactive3.1,2020.1.2,Win32,60,5f599a131af4471f3d752b7b,5f5a2e0e7e4af20917851c62,2,,,,,,runner,,,,,,0,25,25,14,1,2,0,,,,,,,,,,,,,,,,,,,,,,,,,,,,,,,,,,,,,,,,,,,,,,,,,,,,,,,,,,,,,,,,,,,,,,,,,,,,,,,,,,,,,,,,,,,,,,,,,,,,,,,,,,,,
,,,,,,,,,,stimuli/images/PICTURE_233.png,IDEAS,59e3b0252f63d30001c8f6f9,06/08/1955,2020-09-10_09h46.42.989,proactive3.1,2020.1.2,Win32,60,5f599a131af4471f3d752b7b,5f5a2e0e7e4af20917851c62,2,,,,,,salt,,,,,,0,26,26,28,1,3,0,,,,,,,,,,,,,,,,,,,,,,,,,,,,,,,,,,,,,,,,,,,,,,,,,,,,,,,,,,,,,,,,,,,,,,,,,,,,,,,,,,,,,,,,,,,,,,,,,,,,,,,,,,,,
,,,,,,,,,,stimuli/images/PICTURE_339.png,PLENTY,59e3b0252f63d30001c8f6f9,06/08/1955,2020-09-10_09h46.42.989,proactive3.1,2020.1.2,Win32,60,5f599a131af4471f3d752b7b,5f5a2e0e7e4af20917851c62,2,,,,,,backpack,,,,,,0,27,27,0,1,1,0,,,,,,,,,,,,,,,,,,,,,,,,,,,,,,,,,,,,,,,,,,,,,,,,,,,,,,,,,,,,,,,,,,,,,,,,,,,,,,,,,,,,,,,,,,,,,,,,,,,,,,,,,,,,
,,,,,,,,,,stimuli/images/PICTURE_308.png,KIND,59e3b0252f63d30001c8f6f9,06/08/1955,2020-09-10_09h46.42.989,proactive3.1,2020.1.2,Win32,60,5f599a131af4471f3d752b7b,5f5a2e0e7e4af20917851c62,2,,,,,,dice,,,,,,0,28,28,54,1,6,0,,,,,,,,,,,,,,,,,,,,,,,,,,,,,,,,,,,,,,,,,,,,,,,,,,,,,,,,,,,,,,,,,,,,,,,,,,,,,,,,,,,,,,,,,,,,,,,,,,,,,,,,,,,,
,,,,,,,,,,stimuli/images/PICTURE_311.png,BEAUTY,59e3b0252f63d30001c8f6f9,06/08/1955,2020-09-10_09h46.42.989,proactive3.1,2020.1.2,Win32,60,5f599a131af4471f3d752b7b,5f5a2e0e7e4af20917851c62,2,,,,,,razor,,,,,,0,29,29,13,1,2,0,,,,,,,,,,,,,,,,,,,,,,,,,,,,,,,,,,,,,,,,,,,,,,,,,,,,,,,,,,,,,,,,,,,,,,,,,,,,,,,,,,,,,,,,,,,,,,,,,,,,,,,,,,,,
,,,,,,,,,,stimuli/images/PICTURE_160.png,FEET,59e3b0252f63d30001c8f6f9,06/08/1955,2020-09-10_09h46.42.989,proactive3.1,2020.1.2,Win32,60,5f599a131af4471f3d752b7b,5f5a2e0e7e4af20917851c62,2,,,,,,wheelbarrow,,,,,,0,30,30,58,1,6,0,,,,,,,,,,,,,,,,,,,,,,,,,,,,,,,,,,,,,,,,,,,,,,,,,,,,,,,,,,,,,,,,,,,,,,,,,,,,,,,,,,,,,,,,,,,,,,,,,,,,,,,,,,,,
,,,,,,,,,,stimuli/images/PICTURE_467.png,DEMON,59e3b0252f63d30001c8f6f9,06/08/1955,2020-09-10_09h46.42.989,proactive3.1,2020.1.2,Win32,60,5f599a131af4471f3d752b7b,5f5a2e0e7e4af20917851c62,2,,,,,,peg,,,,,,0,31,31,23,1,3,0,,,,,,,,,,,,,,,,,,,,,,,,,,,,,,,,,,,,,,,,,,,,,,,,,,,,,,,,,,,,,,,,,,,,,,,,,,,,,,,,,,,,,,,,,,,,,,,,,,,,,,,,,,,,
,,,,,,,,,,stimuli/images/PICTURE_667.png,PLENTY,59e3b0252f63d30001c8f6f9,06/08/1955,2020-09-10_09h46.42.989,proactive3.1,2020.1.2,Win32,60,5f599a131af4471f3d752b7b,5f5a2e0e7e4af20917851c62,2,,,,,,daisy,,,,,,0,32,32,41,1,5,0,,,,,,,,,,,,,,,,,,,,,,,,,,,,,,,,,,,,,,,,,,,,,,,,,,,,,,,,,,,,,,,,,,,,,,,,,,,,,,,,,,,,,,,,,,,,,,,,,,,,,,,,,,,,
,,,,,,,,,,stimuli/images/PICTURE_95.png,STYLE,59e3b0252f63d30001c8f6f9,06/08/1955,2020-09-10_09h46.42.989,proactive3.1,2020.1.2,Win32,60,5f599a131af4471f3d752b7b,5f5a2e0e7e4af20917851c62,2,,,,,,suitcase,,,,,,0,33,33,25,1,3,0,,,,,,,,,,,,,,,,,,,,,,,,,,,,,,,,,,,,,,,,,,,,,,,,,,,,,,,,,,,,,,,,,,,,,,,,,,,,,,,,,,,,,,,,,,,,,,,,,,,,,,,,,,,,
,,,,,,,,,,stimuli/images/PICTURE_177.png,CARS,59e3b0252f63d30001c8f6f9,06/08/1955,2020-09-10_09h46.42.989,proactive3.1,2020.1.2,Win32,60,5f599a131af4471f3d752b7b,5f5a2e0e7e4af20917851c62,2,,,,,,mushroom,,,,,,0,34,34,35,1,4,0,,,,,,,,,,,,,,,,,,,,,,,,,,,,,,,,,,,,,,,,,,,,,,,,,,,,,,,,,,,,,,,,,,,,,,,,,,,,,,,,,,,,,,,,,,,,,,,,,,,,,,,,,,,,
,,,,,,,,,,stimuli/images/PICTURE_208.png,LOTS,59e3b0252f63d30001c8f6f9,06/08/1955,2020-09-10_09h46.42.989,proactive3.1,2020.1.2,Win32,60,5f599a131af4471f3d752b7b,5f5a2e0e7e4af20917851c62,2,,,,,,microphone,,,,,,0,35,35,10,1,2,0,,,,,,,,,,,,,,,,,,,,,,,,,,,,,,,,,,,,,,,,,,,,,,,,,,,,,,,,,,,,,,,,,,,,,,,,,,,,,,,,,,,,,,,,,,,,,,,,,,,,,,,,,,,,
,,,,,,,,,,stimuli/images/PICTURE_123.png,ADVICE,59e3b0252f63d30001c8f6f9,06/08/1955,2020-09-10_09h46.42.989,proactive3.1,2020.1.2,Win32,60,5f599a131af4471f3d752b7b,5f5a2e0e7e4af20917851c62,2,,,,,,dart,,,,,,0,36,36,40,1,5,0,,,,,,,,,,,,,,,,,,,,,,,,,,,,,,,,,,,,,,,,,,,,,,,,,,,,,,,,,,,,,,,,,,,,,,,,,,,,,,,,,,,,,,,,,,,,,,,,,,,,,,,,,,,,
,,,,,,,,,,stimuli/images/PICTURE_469.png,ARTIST,59e3b0252f63d30001c8f6f9,06/08/1955,2020-09-10_09h46.42.989,proactive3.1,2020.1.2,Win32,60,5f599a131af4471f3d752b7b,5f5a2e0e7e4af20917851c62,2,,,,,,stool,,,,,,0,37,37,6,1,1,0,,,,,,,,,,,,,,,,,,,,,,,,,,,,,,,,,,,,,,,,,,,,,,,,,,,,,,,,,,,,,,,,,,,,,,,,,,,,,,,,,,,,,,,,,,,,,,,,,,,,,,,,,,,,
,,,,,,,,,,stimuli/images/PICTURE_654.png,VALLEY,59e3b0252f63d30001c8f6f9,06/08/1955,2020-09-10_09h46.42.989,proactive3.1,2020.1.2,Win32,60,5f599a131af4471f3d752b7b,5f5a2e0e7e4af20917851c62,2,,,,,,pencil,,,,,,0,38,38,1,1,1,0,,,,,,,,,,,,,,,,,,,,,,,,,,,,,,,,,,,,,,,,,,,,,,,,,,,,,,,,,,,,,,,,,,,,,,,,,,,,,,,,,,,,,,,,,,,,,,,,,,,,,,,,,,,,
,,,,,,,,,,stimuli/images/PICTURE_744.png,SAKE,59e3b0252f63d30001c8f6f9,06/08/1955,2020-09-10_09h46.42.989,proactive3.1,2020.1.2,Win32,60,5f599a131af4471f3d752b7b,5f5a2e0e7e4af20917851c62,2,,,,,,ring,,,,,,0,39,39,17,1,2,0,,,,,,,,,,,,,,,,,,,,,,,,,,,,,,,,,,,,,,,,,,,,,,,,,,,,,,,,,,,,,,,,,,,,,,,,,,,,,,,,,,,,,,,,,,,,,,,,,,,,,,,,,,,,
,,,,,,,,,,stimuli/images/PICTURE_151.png,GIRL,59e3b0252f63d30001c8f6f9,06/08/1955,2020-09-10_09h46.42.989,proactive3.1,2020.1.2,Win32,60,5f599a131af4471f3d752b7b,5f5a2e0e7e4af20917851c62,2,,,,,,tray,,,,,,0,40,40,19,1,2,0,,,,,,,,,,,,,,,,,,,,,,,,,,,,,,,,,,,,,,,,,,,,,,,,,,,,,,,,,,,,,,,,,,,,,,,,,,,,,,,,,,,,,,,,,,,,,,,,,,,,,,,,,,,,
,,,,,,,,,,stimuli/images/PICTURE_708.png,PENNY,59e3b0252f63d30001c8f6f9,06/08/1955,2020-09-10_09h46.42.989,proactive3.1,2020.1.2,Win32,60,5f599a131af4471f3d752b7b,5f5a2e0e7e4af20917851c62,2,,,,,,monkey,,,,,,0,41,41,31,1,4,0,,,,,,,,,,,,,,,,,,,,,,,,,,,,,,,,,,,,,,,,,,,,,,,,,,,,,,,,,,,,,,,,,,,,,,,,,,,,,,,,,,,,,,,,,,,,,,,,,,,,,,,,,,,,
,,,,,,,,,,stimuli/images/PICTURE_692.png,MONTH,59e3b0252f63d30001c8f6f9,06/08/1955,2020-09-10_09h46.42.989,proactive3.1,2020.1.2,Win32,60,5f599a131af4471f3d752b7b,5f5a2e0e7e4af20917851c62,2,,,,,,cherry,,,,,,0,42,42,16,1,2,0,,,,,,,,,,,,,,,,,,,,,,,,,,,,,,,,,,,,,,,,,,,,,,,,,,,,,,,,,,,,,,,,,,,,,,,,,,,,,,,,,,,,,,,,,,,,,,,,,,,,,,,,,,,,
,,,,,,,,,,stimuli/images/PICTURE_677.png,MILE,59e3b0252f63d30001c8f6f9,06/08/1955,2020-09-10_09h46.42.989,proactive3.1,2020.1.2,Win32,60,5f599a131af4471f3d752b7b,5f5a2e0e7e4af20917851c62,2,,,,,,map,,,,,,0,43,43,30,1,4,0,,,,,,,,,,,,,,,,,,,,,,,,,,,,,,,,,,,,,,,,,,,,,,,,,,,,,,,,,,,,,,,,,,,,,,,,,,,,,,,,,,,,,,,,,,,,,,,,,,,,,,,,,,,,
,,,,,,,,,,stimuli/images/PICTURE_248.png,DOZEN,59e3b0252f63d30001c8f6f9,06/08/1955,2020-09-10_09h46.42.989,proactive3.1,2020.1.2,Win32,60,5f599a131af4471f3d752b7b,5f5a2e0e7e4af20917851c62,2,,,,,,cart,,,,,,0,44,44,39,1,4,0,,,,,,,,,,,,,,,,,,,,,,,,,,,,,,,,,,,,,,,,,,,,,,,,,,,,,,,,,,,,,,,,,,,,,,,,,,,,,,,,,,,,,,,,,,,,,,,,,,,,,,,,,,,,
,,,,,,,,,,stimuli/images/PICTURE_314.png,SAKE,59e3b0252f63d30001c8f6f9,06/08/1955,2020-09-10_09h46.42.989,proactive3.1,2020.1.2,Win32,60,5f599a131af4471f3d752b7b,5f5a2e0e7e4af20917851c62,2,,,,,,perfume,,,,,,0,45,45,7,1,1,0,,,,,,,,,,,,,,,,,,,,,,,,,,,,,,,,,,,,,,,,,,,,,,,,,,,,,,,,,,,,,,,,,,,,,,,,,,,,,,,,,,,,,,,,,,,,,,,,,,,,,,,,,,,,
,,,,,,,,,,stimuli/images/PICTURE_208.png,THING,59e3b0252f63d30001c8f6f9,06/08/1955,2020-09-10_09h46.42.989,proactive3.1,2020.1.2,Win32,60,5f599a131af4471f3d752b7b,5f5a2e0e7e4af20917851c62,2,,,,,,microphone,,,,,,0,46,46,47,1,5,0,,,,,,,,,,,,,,,,,,,,,,,,,,,,,,,,,,,,,,,,,,,,,,,,,,,,,,,,,,,,,,,,,,,,,,,,,,,,,,,,,,,,,,,,,,,,,,,,,,,,,,,,,,,,
,,,,,,,,,,stimuli/images/PICTURE_203.png,ARTIST,59e3b0252f63d30001c8f6f9,06/08/1955,2020-09-10_09h46.42.989,proactive3.1,2020.1.2,Win32,60,5f599a131af4471f3d752b7b,5f5a2e0e7e4af20917851c62,2,,,,,,cap,,,,,,0,47,47,26,1,3,0,,,,,,,,,,,,,,,,,,,,,,,,,,,,,,,,,,,,,,,,,,,,,,,,,,,,,,,,,,,,,,,,,,,,,,,,,,,,,,,,,,,,,,,,,,,,,,,,,,,,,,,,,,,,
,,,,,,,,,,stimuli/images/PICTURE_356.png,DANGER,59e3b0252f63d30001c8f6f9,06/08/1955,2020-09-10_09h46.42.989,proactive3.1,2020.1.2,Win32,60,5f599a131af4471f3d752b7b,5f5a2e0e7e4af20917851c62,2,,,,,,pawn,,,,,,0,48,48,55,1,6,0,,,,,,,,,,,,,,,,,,,,,,,,,,,,,,,,,,,,,,,,,,,,,,,,,,,,,,,,,,,,,,,,,,,,,,,,,,,,,,,,,,,,,,,,,,,,,,,,,,,,,,,,,,,,
,,,,,,,,,,stimuli/images/PICTURE_32.png,JUNGLE,59e3b0252f63d30001c8f6f9,06/08/1955,2020-09-10_09h46.42.989,proactive3.1,2020.1.2,Win32,60,5f599a131af4471f3d752b7b,5f5a2e0e7e4af20917851c62,2,,,,,,crown,,,,,,0,49,49,45,1,5,0,,,,,,,,,,,,,,,,,,,,,,,,,,,,,,,,,,,,,,,,,,,,,,,,,,,,,,,,,,,,,,,,,,,,,,,,,,,,,,,,,,,,,,,,,,,,,,,,,,,,,,,,,,,,
,,,,,,,,,,stimuli/images/PICTURE_160.png,LEADER,59e3b0252f63d30001c8f6f9,06/08/1955,2020-09-10_09h46.42.989,proactive3.1,2020.1.2,Win32,60,5f599a131af4471f3d752b7b,5f5a2e0e7e4af20917851c62,2,,,,,,wheelbarrow,,,,,,0,50,50,3,1,1,0,,,,,,,,,,,,,,,,,,,,,,,,,,,,,,,,,,,,,,,,,,,,,,,,,,,,,,,,,,,,,,,,,,,,,,,,,,,,,,,,,,,,,,,,,,,,,,,,,,,,,,,,,,,,
,,,,,,,,,,stimuli/images/PICTURE_68.png,MILE,59e3b0252f63d30001c8f6f9,06/08/1955,2020-09-10_09h46.42.989,proactive3.1,2020.1.2,Win32,60,5f599a131af4471f3d752b7b,5f5a2e0e7e4af20917851c62,2,,,,,,candle,,,,,,0,51,51,44,1,5,0,,,,,,,,,,,,,,,,,,,,,,,,,,,,,,,,,,,,,,,,,,,,,,,,,,,,,,,,,,,,,,,,,,,,,,,,,,,,,,,,,,,,,,,,,,,,,,,,,,,,,,,,,,,,
,,,,,,,,,,stimuli/images/PICTURE_85.png,THING,59e3b0252f63d30001c8f6f9,06/08/1955,2020-09-10_09h46.42.989,proactive3.1,2020.1.2,Win32,60,5f599a131af4471f3d752b7b,5f5a2e0e7e4af20917851c62,2,,,,,,diamond,,,,,,0,52,52,15,1,2,0,,,,,,,,,,,,,,,,,,,,,,,,,,,,,,,,,,,,,,,,,,,,,,,,,,,,,,,,,,,,,,,,,,,,,,,,,,,,,,,,,,,,,,,,,,,,,,,,,,,,,,,,,,,,
,,,,,,,,,,stimuli/images/PICTURE_504.png,BODY,59e3b0252f63d30001c8f6f9,06/08/1955,2020-09-10_09h46.42.989,proactive3.1,2020.1.2,Win32,60,5f599a131af4471f3d752b7b,5f5a2e0e7e4af20917851c62,2,,,,,,wheel,,,,,,0,53,53,8,1,1,0,,,,,,,,,,,,,,,,,,,,,,,,,,,,,,,,,,,,,,,,,,,,,,,,,,,,,,,,,,,,,,,,,,,,,,,,,,,,,,,,,,,,,,,,,,,,,,,,,,,,,,,,,,,,
,,,,,,,,,,stimuli/images/PICTURE_470.png,CASINO,59e3b0252f63d30001c8f6f9,06/08/1955,2020-09-10_09h46.42.989,proactive3.1,2020.1.2,Win32,60,5f599a131af4471f3d752b7b,5f5a2e0e7e4af20917851c62,2,,,,,,motorbike,,,,,,0,54,54,36,1,4,0,,,,,,,,,,,,,,,,,,,,,,,,,,,,,,,,,,,,,,,,,,,,,,,,,,,,,,,,,,,,,,,,,,,,,,,,,,,,,,,,,,,,,,,,,,,,,,,,,,,,,,,,,,,,
,,,,,,,,,,stimuli/images/PICTURE_667.png,BATH,59e3b0252f63d30001c8f6f9,06/08/1955,2020-09-10_09h46.42.989,proactive3.1,2020.1.2,Win32,60,5f599a131af4471f3d752b7b,5f5a2e0e7e4af20917851c62,2,,,,,,daisy,,,,,,0,55,55,4,1,1,0,,,,,,,,,,,,,,,,,,,,,,,,,,,,,,,,,,,,,,,,,,,,,,,,,,,,,,,,,,,,,,,,,,,,,,,,,,,,,,,,,,,,,,,,,,,,,,,,,,,,,,,,,,,,
,,,,,,,,,,stimuli/images/PICTURE_233.png,WOMEN,59e3b0252f63d30001c8f6f9,06/08/1955,2020-09-10_09h46.42.989,proactive3.1,2020.1.2,Win32,60,5f599a131af4471f3d752b7b,5f5a2e0e7e4af20917851c62,2,,,,,,salt,,,,,,0,56,56,38,1,4,0,,,,,,,,,,,,,,,,,,,,,,,,,,,,,,,,,,,,,,,,,,,,,,,,,,,,,,,,,,,,,,,,,,,,,,,,,,,,,,,,,,,,,,,,,,,,,,,,,,,,,,,,,,,,
,,,,,,,,,,stimuli/images/PICTURE_255.png,AREA,59e3b0252f63d30001c8f6f9,06/08/1955,2020-09-10_09h46.42.989,proactive3.1,2020.1.2,Win32,60,5f599a131af4471f3d752b7b,5f5a2e0e7e4af20917851c62,2,,,,,,shovel,,,,,,0,57,57,22,1,3,0,,,,,,,,,,,,,,,,,,,,,,,,,,,,,,,,,,,,,,,,,,,,,,,,,,,,,,,,,,,,,,,,,,,,,,,,,,,,,,,,,,,,,,,,,,,,,,,,,,,,,,,,,,,,
,,,,,,,,,,stimuli/images/PICTURE_491.png,WRITER,59e3b0252f63d30001c8f6f9,06/08/1955,2020-09-10_09h46.42.989,proactive3.1,2020.1.2,Win32,60,5f599a131af4471f3d752b7b,5f5a2e0e7e4af20917851c62,2,,,,,,rug,,,,,,0,58,58,57,1,6,0,,,,,,,,,,,,,,,,,,,,,,,,,,,,,,,,,,,,,,,,,,,,,,,,,,,,,,,,,,,,,,,,,,,,,,,,,,,,,,,,,,,,,,,,,,,,,,,,,,,,,,,,,,,,
,,?,0.002,0,,,,,,stimuli/images/PICTURE_654.png,VALLEY,59e3b0252f63d30001c8f6f9,06/08/1955,2020-09-10_09h46.42.989,proactive3.1,2020.1.2,Win32,60,5f599a131af4471f3d752b7b,5f5a2e0e7e4af20917851c62,2,,,,,,pencil,,,,,,,,,,,1,0,0,0,0,1,1,,,,,,,,,,,,,,,,,,,,,,,,,,,,,,,,,,,,,,,,,,,,,,,,,,,,,,,,,,,,,,,,,,,,,,,,,,,,,,,,,,,,,,,,,,,,,,,,,,,,,,,
,,?,0.001,0,,,,,,stimuli/images/PICTURE_453.png,DUDE,59e3b0252f63d30001c8f6f9,06/08/1955,2020-09-10_09h46.42.989,proactive3.1,2020.1.2,Win32,60,5f599a131af4471f3d752b7b,5f5a2e0e7e4af20917851c62,2,,,,,,scissors,,,,,,,,,,,3,0,0,1,1,27,1,,,,,,,,,,,,,,,,,,,,,,,,,,,,,,,,,,,,,,,,,,,,,,,,,,,,,,,,,,,,,,,,,,,,,,,,,,,,,,,,,,,,,,,,,,,,,,,,,,,,,,,
,,?,0.003,0,,,,,,stimuli/images/PICTURE_311.png,FRIEND,59e3b0252f63d30001c8f6f9,06/08/1955,2020-09-10_09h46.42.989,proactive3.1,2020.1.2,Win32,60,5f599a131af4471f3d752b7b,5f5a2e0e7e4af20917851c62,2,,,,,,razor,,,,,,,,,,,4,0,0,2,2,34,1,,,,,,,,,,,,,,,,,,,,,,,,,,,,,,,,,,,,,,,,,,,,,,,,,,,,,,,,,,,,,,,,,,,,,,,,,,,,,,,,,,,,,,,,,,,,,,,,,,,,,,,
,,?,0.001,0,,,,,,stimuli/images/PICTURE_233.png,IDEAS,59e3b0252f63d30001c8f6f9,06/08/1955,2020-09-10_09h46.42.989,proactive3.1,2020.1.2,Win32,60,5f599a131af4471f3d752b7b,5f5a2e0e7e4af20917851c62,2,,,,,,salt,,,,,,,,,,,3,0,0,3,3,28,1,,,,,,,,,,,,,,,,,,,,,,,,,,,,,,,,,,,,,,,,,,,,,,,,,,,,,,,,,,,,,,,,,,,,,,,,,,,,,,,,,,,,,,,,,,,,,,,,,,,,,,,
,,?,0.001,0,,,,,,stimuli/images/PICTURE_708.png,YARD,59e3b0252f63d30001c8f6f9,06/08/1955,2020-09-10_09h46.42.989,proactive3.1,2020.1.2,Win32,60,5f599a131af4471f3d752b7b,5f5a2e0e7e4af20917851c62,2,,,,,,monkey,,,,,,,,,,,3,0,0,4,4,29,1,,,,,,,,,,,,,,,,,,,,,,,,,,,,,,,,,,,,,,,,,,,,,,,,,,,,,,,,,,,,,,,,,,,,,,,,,,,,,,,,,,,,,,,,,,,,,,,,,,,,,,,
,,?,0.002,0,,,,,,stimuli/images/PICTURE_467.png,DEMON,59e3b0252f63d30001c8f6f9,06/08/1955,2020-09-10_09h46.42.989,proactive3.1,2020.1.2,Win32,60,5f599a131af4471f3d752b7b,5f5a2e0e7e4af20917851c62,2,,,,,,peg,,,,,,,,,,,3,0,0,5,5,23,1,,,,,,,,,,,,,,,,,,,,,,,,,,,,,,,,,,,,,,,,,,,,,,,,,,,,,,,,,,,,,,,,,,,,,,,,,,,,,,,,,,,,,,,,,,,,,,,,,,,,,,,
,,?,0.001,0,,,,,,stimuli/images/PICTURE_123.png,ADVICE,59e3b0252f63d30001c8f6f9,06/08/1955,2020-09-10_09h46.42.989,proactive3.1,2020.1.2,Win32,60,5f599a131af4471f3d752b7b,5f5a2e0e7e4af20917851c62,2,,,,,,dart,,,,,,,,,,,5,0,0,6,6,40,1,,,,,,,,,,,,,,,,,,,,,,,,,,,,,,,,,,,,,,,,,,,,,,,,,,,,,,,,,,,,,,,,,,,,,,,,,,,,,,,,,,,,,,,,,,,,,,,,,,,,,,,
,,?,0.001,0,,,,,,stimuli/images/PICTURE_160.png,FEET,59e3b0252f63d30001c8f6f9,06/08/1955,2020-09-10_09h46.42.989,proactive3.1,2020.1.2,Win32,60,5f599a131af4471f3d752b7b,5f5a2e0e7e4af20917851c62,2,,,,,,wheelbarrow,,,,,,,,,,,6,0,0,7,7,58,1,,,,,,,,,,,,,,,,,,,,,,,,,,,,,,,,,,,,,,,,,,,,,,,,,,,,,,,,,,,,,,,,,,,,,,,,,,,,,,,,,,,,,,,,,,,,,,,,,,,,,,,
,,LOTS,15.01,1,,,,,,stimuli/images/PICTURE_208.png,LOTS,59e3b0252f63d30001c8f6f9,06/08/1955,2020-09-10_09h46.42.989,proactive3.1,2020.1.2,Win32,60,5f599a131af4471f3d752b7b,5f5a2e0e7e4af20917851c62,2,,,,,,microphone,,,,,,,,,,,2,0,0,8,8,10,1,,,,,,,,,,,,,,,,,,,,,,,,,,,,,,,,,,,,,,,,,,,,,,,,,,,,,,,,,,,,,,,,,,,,,,,,,,,,,,,,,,,,,,,,,,,,,,,,,,,,,,,
,,?,0.002,0,,,,,,stimuli/images/PICTURE_667.png,PLENTY,59e3b0252f63d30001c8f6f9,06/08/1955,2020-09-10_09h46.42.989,proactive3.1,2020.1.2,Win32,60,5f599a131af4471f3d752b7b,5f5a2e0e7e4af20917851c62,2,,,,,,daisy,,,,,,,,,,,5,0,0,9,9,41,1,,,,,,,,,,,,,,,,,,,,,,,,,,,,,,,,,,,,,,,,,,,,,,,,,,,,,,,,,,,,,,,,,,,,,,,,,,,,,,,,,,,,,,,,,,,,,,,,,,,,,,,
,,?,0.001,0,,,,,,stimuli/images/PICTURE_449.png,THING,59e3b0252f63d30001c8f6f9,06/08/1955,2020-09-10_09h46.42.989,proactive3.1,2020.1.2,Win32,60,5f599a131af4471f3d752b7b,5f5a2e0e7e4af20917851c62,2,,,,,,bench,,,,,,,,,,,6,0,0,10,10,59,1,,,,,,,,,,,,,,,,,,,,,,,,,,,,,,,,,,,,,,,,,,,,,,,,,,,,,,,,,,,,,,,,,,,,,,,,,,,,,,,,,,,,,,,,,,,,,,,,,,,,,,,
,,?,0.001,0,,,,,,stimuli/images/PICTURE_203.png,ARTIST,59e3b0252f63d30001c8f6f9,06/08/1955,2020-09-10_09h46.42.989,proactive3.1,2020.1.2,Win32,60,5f599a131af4471f3d752b7b,5f5a2e0e7e4af20917851c62,2,,,,,,cap,,,,,,,,,,,3,0,0,11,11,26,1,,,,,,,,,,,,,,,,,,,,,,,,,,,,,,,,,,,,,,,,,,,,,,,,,,,,,,,,,,,,,,,,,,,,,,,,,,,,,,,,,,,,,,,,,,,,,,,,,,,,,,,
,,THING,3.589,1,,,,,,stimuli/images/PICTURE_85.png,THING,59e3b0252f63d30001c8f6f9,06/08/1955,2020-09-10_09h46.42.989,proactive3.1,2020.1.2,Win32,60,5f599a131af4471f3d752b7b,5f5a2e0e7e4af20917851c62,2,,,,,,diamond,,,,,,,,,,,2,0,0,12,12,15,1,,,,,,,,,,,,,,,,,,,,,,,,,,,,,,,,,,,,,,,,,,,,,,,,,,,,,,,,,,,,,,,,,,,,,,,,,,,,,,,,,,,,,,,,,,,,,,,,,,,,,,,
,,?,0.002,0,,,,,,stimuli/images/PICTURE_488.png,STYLE,59e3b0252f63d30001c8f6f9,06/08/1955,2020-09-10_09h46.42.989,proactive3.1,2020.1.2,Win32,60,5f599a131af4471f3d752b7b,5f5a2e0e7e4af20917851c62,2,,,,,,sun,,,,,,,,,,,4,0,0,13,13,33,1,,,,,,,,,,,,,,,,,,,,,,,,,,,,,,,,,,,,,,,,,,,,,,,,,,,,,,,,,,,,,,,,,,,,,,,,,,,,,,,,,,,,,,,,,,,,,,,,,,,,,,,
,,ADVICE,5.284,1,,,,,,stimuli/images/PICTURE_285.png,ADVICE,59e3b0252f63d30001c8f6f9,06/08/1955,2020-09-10_09h46.42.989,proactive3.1,2020.1.2,Win32,60,5f599a131af4471f3d752b7b,5f5a2e0e7e4af20917851c62,2,,,,,,carrot,,,,,,,,,,,2,0,0,14,14,12,1,,,,,,,,,,,,,,,,,,,,,,,,,,,,,,,,,,,,,,,,,,,,,,,,,,,,,,,,,,,,,,,,,,,,,,,,,,,,,,,,,,,,,,,,,,,,,,,,,,,,,,,
,,?,0.002,0,,,,,,stimuli/images/PICTURE_68.png,MILE,59e3b0252f63d30001c8f6f9,06/08/1955,2020-09-10_09h46.42.989,proactive3.1,2020.1.2,Win32,60,5f599a131af4471f3d752b7b,5f5a2e0e7e4af20917851c62,2,,,,,,candle,,,,,,,,,,,5,0,0,15,15,44,1,,,,,,,,,,,,,,,,,,,,,,,,,,,,,,,,,,,,,,,,,,,,,,,,,,,,,,,,,,,,,,,,,,,,,,,,,,,,,,,,,,,,,,,,,,,,,,,,,,,,,,,
,,WOMEN,3.34,1,,,,,,stimuli/images/PICTURE_688.png,WOMEN,59e3b0252f63d30001c8f6f9,06/08/1955,2020-09-10_09h46.42.989,proactive3.1,2020.1.2,Win32,60,5f599a131af4471f3d752b7b,5f5a2e0e7e4af20917851c62,2,,,,,,runner,,,,,,,,,,,2,0,0,16,16,14,1,,,,,,,,,,,,,,,,,,,,,,,,,,,,,,,,,,,,,,,,,,,,,,,,,,,,,,,,,,,,,,,,,,,,,,,,,,,,,,,,,,,,,,,,,,,,,,,,,,,,,,,
,,?,0.001,0,,,,,,stimuli/images/PICTURE_491.png,ROOF,59e3b0252f63d30001c8f6f9,06/08/1955,2020-09-10_09h46.42.989,proactive3.1,2020.1.2,Win32,60,5f599a131af4471f3d752b7b,5f5a2e0e7e4af20917851c62,2,,,,,,rug,,,,,,,,,,,3,0,0,17,17,24,1,,,,,,,,,,,,,,,,,,,,,,,,,,,,,,,,,,,,,,,,,,,,,,,,,,,,,,,,,,,,,,,,,,,,,,,,,,,,,,,,,,,,,,,,,,,,,,,,,,,,,,,
,,BEAUTY,3.378,1,,,,,,stimuli/images/PICTURE_311.png,BEAUTY,59e3b0252f63d30001c8f6f9,06/08/1955,2020-09-10_09h46.42.989,proactive3.1,2020.1.2,Win32,60,5f599a131af4471f3d752b7b,5f5a2e0e7e4af20917851c62,2,,,,,,razor,,,,,,,,,,,2,0,0,18,18,13,1,,,,,,,,,,,,,,,,,,,,,,,,,,,,,,,,,,,,,,,,,,,,,,,,,,,,,,,,,,,,,,,,,,,,,,,,,,,,,,,,,,,,,,,,,,,,,,,,,,,,,,,
,,?,0.001,0,,,,,,stimuli/images/PICTURE_348.png,SPEECH,59e3b0252f63d30001c8f6f9,06/08/1955,2020-09-10_09h46.42.989,proactive3.1,2020.1.2,Win32,60,5f599a131af4471f3d752b7b,5f5a2e0e7e4af20917851c62,2,,,,,,pepper,,,,,,,,,,,3,0,0,19,19,20,1,,,,,,,,,,,,,,,,,,,,,,,,,,,,,,,,,,,,,,,,,,,,,,,,,,,,,,,,,,,,,,,,,,,,,,,,,,,,,,,,,,,,,,,,,,,,,,,,,,,,,,,
,,?,0.001,0,,,,,,stimuli/images/PICTURE_177.png,CARS,59e3b0252f63d30001c8f6f9,06/08/1955,2020-09-10_09h46.42.989,proactive3.1,2020.1.2,Win32,60,5f599a131af4471f3d752b7b,5f5a2e0e7e4af20917851c62,2,,,,,,mushroom,,,,,,,,,,,4,0,0,20,20,35,1,,,,,,,,,,,,,,,,,,,,,,,,,,,,,,,,,,,,,,,,,,,,,,,,,,,,,,,,,,,,,,,,,,,,,,,,,,,,,,,,,,,,,,,,,,,,,,,,,,,,,,,
,,?,0.001,0,,,,,,stimuli/images/PICTURE_469.png,ARTIST,59e3b0252f63d30001c8f6f9,06/08/1955,2020-09-10_09h46.42.989,proactive3.1,2020.1.2,Win32,60,5f599a131af4471f3d752b7b,5f5a2e0e7e4af20917851c62,2,,,,,,stool,,,,,,,,,,,1,0,0,21,21,6,1,,,,,,,,,,,,,,,,,,,,,,,,,,,,,,,,,,,,,,,,,,,,,,,,,,,,,,,,,,,,,,,,,,,,,,,,,,,,,,,,,,,,,,,,,,,,,,,,,,,,,,,
,,?,0.001,0,,,,,,stimuli/images/PICTURE_123.png,ADVICE,59e3b0252f63d30001c8f6f9,06/08/1955,2020-09-10_09h46.42.989,proactive3.1,2020.1.2,Win32,60,5f599a131af4471f3d752b7b,5f5a2e0e7e4af20917851c62,2,,,,,,dart,,,,,,,,,,,6,0,0,22,22,50,1,,,,,,,,,,,,,,,,,,,,,,,,,,,,,,,,,,,,,,,,,,,,,,,,,,,,,,,,,,,,,,,,,,,,,,,,,,,,,,,,,,,,,,,,,,,,,,,,,,,,,,,
,,?,0.001,0,,,,,,stimuli/images/PICTURE_32.png,JUNGLE,59e3b0252f63d30001c8f6f9,06/08/1955,2020-09-10_09h46.42.989,proactive3.1,2020.1.2,Win32,60,5f599a131af4471f3d752b7b,5f5a2e0e7e4af20917851c62,2,,,,,,crown,,,,,,,,,,,5,0,0,23,23,45,1,,,,,,,,,,,,,,,,,,,,,,,,,,,,,,,,,,,,,,,,,,,,,,,,,,,,,,,,,,,,,,,,,,,,,,,,,,,,,,,,,,,,,,,,,,,,,,,,,,,,,,,
,,?,0.001,0,,,,,,stimuli/images/PICTURE_675.png,WEAPON,59e3b0252f63d30001c8f6f9,06/08/1955,2020-09-10_09h46.42.989,proactive3.1,2020.1.2,Win32,60,5f599a131af4471f3d752b7b,5f5a2e0e7e4af20917851c62,2,,,,,,windmill,,,,,,,,,,,4,0,0,24,24,32,1,,,,,,,,,,,,,,,,,,,,,,,,,,,,,,,,,,,,,,,,,,,,,,,,,,,,,,,,,,,,,,,,,,,,,,,,,,,,,,,,,,,,,,,,,,,,,,,,,,,,,,,
,,?,0.001,0,,,,,,stimuli/images/PICTURE_308.png,KIND,59e3b0252f63d30001c8f6f9,06/08/1955,2020-09-10_09h46.42.989,proactive3.1,2020.1.2,Win32,60,5f599a131af4471f3d752b7b,5f5a2e0e7e4af20917851c62,2,,,,,,dice,,,,,,,,,,,6,0,0,25,25,54,1,,,,,,,,,,,,,,,,,,,,,,,,,,,,,,,,,,,,,,,,,,,,,,,,,,,,,,,,,,,,,,,,,,,,,,,,,,,,,,,,,,,,,,,,,,,,,,,,,,,,,,,
,,?,0.001,0,,,,,,stimuli/images/PICTURE_509.png,PHOTO,59e3b0252f63d30001c8f6f9,06/08/1955,2020-09-10_09h46.42.989,proactive3.1,2020.1.2,Win32,60,5f599a131af4471f3d752b7b,5f5a2e0e7e4af20917851c62,2,,,,,,telephone,,,,,,,,,,,3,0,0,26,26,21,1,,,,,,,,,,,,,,,,,,,,,,,,,,,,,,,,,,,,,,,,,,,,,,,,,,,,,,,,,,,,,,,,,,,,,,,,,,,,,,,,,,,,,,,,,,,,,,,,,,,,,,,
,,?,0.001,0,,,,,,stimuli/images/PICTURE_677.png,MILE,59e3b0252f63d30001c8f6f9,06/08/1955,2020-09-10_09h46.42.989,proactive3.1,2020.1.2,Win32,60,5f599a131af4471f3d752b7b,5f5a2e0e7e4af20917851c62,2,,,,,,map,,,,,,,,,,,4,0,0,27,27,30,1,,,,,,,,,,,,,,,,,,,,,,,,,,,,,,,,,,,,,,,,,,,,,,,,,,,,,,,,,,,,,,,,,,,,,,,,,,,,,,,,,,,,,,,,,,,,,,,,,,,,,,,
,,?,0.001,0,,,,,,stimuli/images/PICTURE_667.png,BATH,59e3b0252f63d30001c8f6f9,06/08/1955,2020-09-10_09h46.42.989,proactive3.1,2020.1.2,Win32,60,5f599a131af4471f3d752b7b,5f5a2e0e7e4af20917851c62,2,,,,,,daisy,,,,,,,,,,,1,0,0,28,28,4,1,,,,,,,,,,,,,,,,,,,,,,,,,,,,,,,,,,,,,,,,,,,,,,,,,,,,,,,,,,,,,,,,,,,,,,,,,,,,,,,,,,,,,,,,,,,,,,,,,,,,,,,
,,?,0.001,0,,,,,,stimuli/images/PICTURE_248.png,DOZEN,59e3b0252f63d30001c8f6f9,06/08/1955,2020-09-10_09h46.42.989,proactive3.1,2020.1.2,Win32,60,5f599a131af4471f3d752b7b,5f5a2e0e7e4af20917851c62,2,,,,,,cart,,,,,,,,,,,4,0,0,29,29,39,1,,,,,,,,,,,,,,,,,,,,,,,,,,,,,,,,,,,,,,,,,,,,,,,,,,,,,,,,,,,,,,,,,,,,,,,,,,,,,,,,,,,,,,,,,,,,,,,,,,,,,,,
,,?,0.001,0,,,,,,stimuli/images/PICTURE_308.png,ESTATE,59e3b0252f63d30001c8f6f9,06/08/1955,2020-09-10_09h46.42.989,proactive3.1,2020.1.2,Win32,60,5f599a131af4471f3d752b7b,5f5a2e0e7e4af20917851c62,2,,,,,,dice,,,,,,,,,,,5,0,0,30,30,46,1,,,,,,,,,,,,,,,,,,,,,,,,,,,,,,,,,,,,,,,,,,,,,,,,,,,,,,,,,,,,,,,,,,,,,,,,,,,,,,,,,,,,,,,,,,,,,,,,,,,,,,,
,,?,0.003,0,,,,,,stimuli/images/PICTURE_469.png,LETTER,59e3b0252f63d30001c8f6f9,06/08/1955,2020-09-10_09h46.42.989,proactive3.1,2020.1.2,Win32,60,5f599a131af4471f3d752b7b,5f5a2e0e7e4af20917851c62,2,,,,,,stool,,,,,,,,,,,5,0,0,31,31,42,1,,,,,,,,,,,,,,,,,,,,,,,,,,,,,,,,,,,,,,,,,,,,,,,,,,,,,,,,,,,,,,,,,,,,,,,,,,,,,,,,,,,,,,,,,,,,,,,,,,,,,,,
,,GODS,3.375,1,,,,,,stimuli/images/PICTURE_314.png,GODS,59e3b0252f63d30001c8f6f9,06/08/1955,2020-09-10_09h46.42.989,proactive3.1,2020.1.2,Win32,60,5f599a131af4471f3d752b7b,5f5a2e0e7e4af20917851c62,2,,,,,,perfume,,,,,,,,,,,2,0,0,32,32,11,1,,,,,,,,,,,,,,,,,,,,,,,,,,,,,,,,,,,,,,,,,,,,,,,,,,,,,,,,,,,,,,,,,,,,,,,,,,,,,,,,,,,,,,,,,,,,,,,,,,,,,,,
,,?,0.002,0,,,,,,stimuli/images/PICTURE_380.png,DEATH,59e3b0252f63d30001c8f6f9,06/08/1955,2020-09-10_09h46.42.989,proactive3.1,2020.1.2,Win32,60,5f599a131af4471f3d752b7b,5f5a2e0e7e4af20917851c62,2,,,,,,gorilla,,,,,,,,,,,5,0,0,33,33,49,1,,,,,,,,,,,,,,,,,,,,,,,,,,,,,,,,,,,,,,,,,,,,,,,,,,,,,,,,,,,,,,,,,,,,,,,,,,,,,,,,,,,,,,,,,,,,,,,,,,,,,,,
,,?,0.002,0,,,,,,stimuli/images/PICTURE_380.png,PHOTO,59e3b0252f63d30001c8f6f9,06/08/1955,2020-09-10_09h46.42.989,proactive3.1,2020.1.2,Win32,60,5f599a131af4471f3d752b7b,5f5a2e0e7e4af20917851c62,2,,,,,,gorilla,,,,,,,,,,,6,0,0,34,34,52,1,,,,,,,,,,,,,,,,,,,,,,,,,,,,,,,,,,,,,,,,,,,,,,,,,,,,,,,,,,,,,,,,,,,,,,,,,,,,,,,,,,,,,,,,,,,,,,,,,,,,,,,
,,SAKE,6.561,0,,,,,,stimuli/images/PICTURE_302.png,FAMILY,59e3b0252f63d30001c8f6f9,06/08/1955,2020-09-10_09h46.42.989,proactive3.1,2020.1.2,Win32,60,5f599a131af4471f3d752b7b,5f5a2e0e7e4af20917851c62,2,,,,,,taxi,,,,,,,,,,,2,0,0,35,35,18,1,,,,,,,,,,,,,,,,,,,,,,,,,,,,,,,,,,,,,,,,,,,,,,,,,,,,,,,,,,,,,,,,,,,,,,,,,,,,,,,,,,,,,,,,,,,,,,,,,,,,,,,
,,?,0.002,0,,,,,,stimuli/images/PICTURE_147.png,MOMENT,59e3b0252f63d30001c8f6f9,06/08/1955,2020-09-10_09h46.42.989,proactive3.1,2020.1.2,Win32,60,5f599a131af4471f3d752b7b,5f5a2e0e7e4af20917851c62,2,,,,,,hanger,,,,,,,,,,,6,0,0,36,36,51,1,,,,,,,,,,,,,,,,,,,,,,,,,,,,,,,,,,,,,,,,,,,,,,,,,,,,,,,,,,,,,,,,,,,,,,,,,,,,,,,,,,,,,,,,,,,,,,,,,,,,,,,
,,SAKE,4.224,1,,,,,,stimuli/images/PICTURE_744.png,SAKE,59e3b0252f63d30001c8f6f9,06/08/1955,2020-09-10_09h46.42.989,proactive3.1,2020.1.2,Win32,60,5f599a131af4471f3d752b7b,5f5a2e0e7e4af20917851c62,2,,,,,,ring,,,,,,,,,,,2,0,0,37,37,17,1,,,,,,,,,,,,,,,,,,,,,,,,,,,,,,,,,,,,,,,,,,,,,,,,,,,,,,,,,,,,,,,,,,,,,,,,,,,,,,,,,,,,,,,,,,,,,,,,,,,,,,,
,,?,0.001,0,,,,,,stimuli/images/PICTURE_491.png,WRITER,59e3b0252f63d30001c8f6f9,06/08/1955,2020-09-10_09h46.42.989,proactive3.1,2020.1.2,Win32,60,5f599a131af4471f3d752b7b,5f5a2e0e7e4af20917851c62,2,,,,,,rug,,,,,,,,,,,6,0,0,38,38,57,1,,,,,,,,,,,,,,,,,,,,,,,,,,,,,,,,,,,,,,,,,,,,,,,,,,,,,,,,,,,,,,,,,,,,,,,,,,,,,,,,,,,,,,,,,,,,,,,,,,,,,,,
,,?,0.001,0,,,,,,stimuli/images/PICTURE_470.png,CASINO,59e3b0252f63d30001c8f6f9,06/08/1955,2020-09-10_09h46.42.989,proactive3.1,2020.1.2,Win32,60,5f599a131af4471f3d752b7b,5f5a2e0e7e4af20917851c62,2,,,,,,motorbike,,,,,,,,,,,4,0,0,39,39,36,1,,,,,,,,,,,,,,,,,,,,,,,,,,,,,,,,,,,,,,,,,,,,,,,,,,,,,,,,,,,,,,,,,,,,,,,,,,,,,,,,,,,,,,,,,,,,,,,,,,,,,,,
,,?,0.002,0,,,,,,stimuli/images/PICTURE_708.png,PENNY,59e3b0252f63d30001c8f6f9,06/08/1955,2020-09-10_09h46.42.989,proactive3.1,2020.1.2,Win32,60,5f599a131af4471f3d752b7b,5f5a2e0e7e4af20917851c62,2,,,,,,monkey,,,,,,,,,,,4,0,0,40,40,31,1,,,,,,,,,,,,,,,,,,,,,,,,,,,,,,,,,,,,,,,,,,,,,,,,,,,,,,,,,,,,,,,,,,,,,,,,,,,,,,,,,,,,,,,,,,,,,,,,,,,,,,,
,,?,0.001,0,,,,,,stimuli/images/PICTURE_95.png,STYLE,59e3b0252f63d30001c8f6f9,06/08/1955,2020-09-10_09h46.42.989,proactive3.1,2020.1.2,Win32,60,5f599a131af4471f3d752b7b,5f5a2e0e7e4af20917851c62,2,,,,,,suitcase,,,,,,,,,,,3,0,0,41,41,25,1,,,,,,,,,,,,,,,,,,,,,,,,,,,,,,,,,,,,,,,,,,,,,,,,,,,,,,,,,,,,,,,,,,,,,,,,,,,,,,,,,,,,,,,,,,,,,,,,,,,,,,,
,,?,0.001,0,,,,,,stimuli/images/PICTURE_708.png,CLIENT,59e3b0252f63d30001c8f6f9,06/08/1955,2020-09-10_09h46.42.989,proactive3.1,2020.1.2,Win32,60,5f599a131af4471f3d752b7b,5f5a2e0e7e4af20917851c62,2,,,,,,monkey,,,,,,,,,,,1,0,0,42,42,5,1,,,,,,,,,,,,,,,,,,,,,,,,,,,,,,,,,,,,,,,,,,,,,,,,,,,,,,,,,,,,,,,,,,,,,,,,,,,,,,,,,,,,,,,,,,,,,,,,,,,,,,,
,,?,0.001,0,,,,,,stimuli/images/PICTURE_356.png,DANGER,59e3b0252f63d30001c8f6f9,06/08/1955,2020-09-10_09h46.42.989,proactive3.1,2020.1.2,Win32,60,5f599a131af4471f3d752b7b,5f5a2e0e7e4af20917851c62,2,,,,,,pawn,,,,,,,,,,,6,0,0,43,43,55,1,,,,,,,,,,,,,,,,,,,,,,,,,,,,,,,,,,,,,,,,,,,,,,,,,,,,,,,,,,,,,,,,,,,,,,,,,,,,,,,,,,,,,,,,,,,,,,,,,,,,,,,
,,?,0.001,0,,,,,,stimuli/images/PICTURE_215.png,PLENTY,59e3b0252f63d30001c8f6f9,06/08/1955,2020-09-10_09h46.42.989,proactive3.1,2020.1.2,Win32,60,5f599a131af4471f3d752b7b,5f5a2e0e7e4af20917851c62,2,,,,,,boot,,,,,,,,,,,4,0,0,44,44,37,1,,,,,,,,,,,,,,,,,,,,,,,,,,,,,,,,,,,,,,,,,,,,,,,,,,,,,,,,,,,,,,,,,,,,,,,,,,,,,,,,,,,,,,,,,,,,,,,,,,,,,,,
,,?,0.001,0,,,,,,stimuli/images/PICTURE_327.png,BEAUTY,59e3b0252f63d30001c8f6f9,06/08/1955,2020-09-10_09h46.42.989,proactive3.1,2020.1.2,Win32,60,5f599a131af4471f3d752b7b,5f5a2e0e7e4af20917851c62,2,,,,,,helmet,,,,,,,,,,,5,0,0,45,45,48,1,,,,,,,,,,,,,,,,,,,,,,,,,,,,,,,,,,,,,,,,,,,,,,,,,,,,,,,,,,,,,,,,,,,,,,,,,,,,,,,,,,,,,,,,,,,,,,,,,,,,,,,
,,?,0.001,0,,,,,,stimuli/images/PICTURE_160.png,LEADER,59e3b0252f63d30001c8f6f9,06/08/1955,2020-09-10_09h46.42.989,proactive3.1,2020.1.2,Win32,60,5f599a131af4471f3d752b7b,5f5a2e0e7e4af20917851c62,2,,,,,,wheelbarrow,,,,,,,,,,,1,0,0,46,46,3,1,,,,,,,,,,,,,,,,,,,,,,,,,,,,,,,,,,,,,,,,,,,,,,,,,,,,,,,,,,,,,,,,,,,,,,,,,,,,,,,,,,,,,,,,,,,,,,,,,,,,,,,
,,?,0.001,0,,,,,,stimuli/images/PICTURE_255.png,AREA,59e3b0252f63d30001c8f6f9,06/08/1955,2020-09-10_09h46.42.989,proactive3.1,2020.1.2,Win32,60,5f599a131af4471f3d752b7b,5f5a2e0e7e4af20917851c62,2,,,,,,shovel,,,,,,,,,,,3,0,0,47,47,22,1,,,,,,,,,,,,,,,,,,,,,,,,,,,,,,,,,,,,,,,,,,,,,,,,,,,,,,,,,,,,,,,,,,,,,,,,,,,,,,,,,,,,,,,,,,,,,,,,,,,,,,,
,,?,0.001,0,,,,,,stimuli/images/PICTURE_339.png,PLENTY,59e3b0252f63d30001c8f6f9,06/08/1955,2020-09-10_09h46.42.989,proactive3.1,2020.1.2,Win32,60,5f599a131af4471f3d752b7b,5f5a2e0e7e4af20917851c62,2,,,,,,backpack,,,,,,,,,,,1,0,0,48,48,0,1,,,,,,,,,,,,,,,,,,,,,,,,,,,,,,,,,,,,,,,,,,,,,,,,,,,,,,,,,,,,,,,,,,,,,,,,,,,,,,,,,,,,,,,,,,,,,,,,,,,,,,,
,,?,0.001,0,,,,,,stimuli/images/PICTURE_208.png,THING,59e3b0252f63d30001c8f6f9,06/08/1955,2020-09-10_09h46.42.989,proactive3.1,2020.1.2,Win32,60,5f599a131af4471f3d752b7b,5f5a2e0e7e4af20917851c62,2,,,,,,microphone,,,,,,,,,,,5,0,0,49,49,47,1,,,,,,,,,,,,,,,,,,,,,,,,,,,,,,,,,,,,,,,,,,,,,,,,,,,,,,,,,,,,,,,,,,,,,,,,,,,,,,,,,,,,,,,,,,,,,,,,,,,,,,,
,,?,0.001,0,,,,,,stimuli/images/PICTURE_233.png,WOMEN,59e3b0252f63d30001c8f6f9,06/08/1955,2020-09-10_09h46.42.989,proactive3.1,2020.1.2,Win32,60,5f599a131af4471f3d752b7b,5f5a2e0e7e4af20917851c62,2,,,,,,salt,,,,,,,,,,,4,0,0,50,50,38,1,,,,,,,,,,,,,,,,,,,,,,,,,,,,,,,,,,,,,,,,,,,,,,,,,,,,,,,,,,,,,,,,,,,,,,,,,,,,,,,,,,,,,,,,,,,,,,,,,,,,,,,
,,?,0.001,0,,,,,,stimuli/images/PICTURE_208.png,MONTH,59e3b0252f63d30001c8f6f9,06/08/1955,2020-09-10_09h46.42.989,proactive3.1,2020.1.2,Win32,60,5f599a131af4471f3d752b7b,5f5a2e0e7e4af20917851c62,2,,,,,,microphone,,,,,,,,,,,6,0,0,51,51,53,1,,,,,,,,,,,,,,,,,,,,,,,,,,,,,,,,,,,,,,,,,,,,,,,,,,,,,,,,,,,,,,,,,,,,,,,,,,,,,,,,,,,,,,,,,,,,,,,,,,,,,,,
,,FAMILY,9.309,0,,,,,,stimuli/images/PICTURE_151.png,GIRL,59e3b0252f63d30001c8f6f9,06/08/1955,2020-09-10_09h46.42.989,proactive3.1,2020.1.2,Win32,60,5f599a131af4471f3d752b7b,5f5a2e0e7e4af20917851c62,2,,,,,,tray,,,,,,,,,,,2,0,0,52,52,19,1,,,,,,,,,,,,,,,,,,,,,,,,,,,,,,,,,,,,,,,,,,,,,,,,,,,,,,,,,,,,,,,,,,,,,,,,,,,,,,,,,,,,,,,,,,,,,,,,,,,,,,,
,,?,0.001,0,,,,,,stimuli/images/PICTURE_688.png,CASINO,59e3b0252f63d30001c8f6f9,06/08/1955,2020-09-10_09h46.42.989,proactive3.1,2020.1.2,Win32,60,5f599a131af4471f3d752b7b,5f5a2e0e7e4af20917851c62,2,,,,,,runner,,,,,,,,,,,1,0,0,53,53,2,1,,,,,,,,,,,,,,,,,,,,,,,,,,,,,,,,,,,,,,,,,,,,,,,,,,,,,,,,,,,,,,,,,,,,,,,,,,,,,,,,,,,,,,,,,,,,,,,,,,,,,,,
,,MONTH,4.336,1,,,,,,stimuli/images/PICTURE_692.png,MONTH,59e3b0252f63d30001c8f6f9,06/08/1955,2020-09-10_09h46.42.989,proactive3.1,2020.1.2,Win32,60,5f599a131af4471f3d752b7b,5f5a2e0e7e4af20917851c62,2,,,,,,cherry,,,,,,,,,,,2,0,0,54,54,16,1,,,,,,,,,,,,,,,,,,,,,,,,,,,,,,,,,,,,,,,,,,,,,,,,,,,,,,,,,,,,,,,,,,,,,,,,,,,,,,,,,,,,,,,,,,,,,,,,,,,,,,,
,,?,0.001,0,,,,,,stimuli/images/PICTURE_487.png,FLIGHT,59e3b0252f63d30001c8f6f9,06/08/1955,2020-09-10_09h46.42.989,proactive3.1,2020.1.2,Win32,60,5f599a131af4471f3d752b7b,5f5a2e0e7e4af20917851c62,2,,,,,,basket,,,,,,,,,,,1,0,0,55,55,9,1,,,,,,,,,,,,,,,,,,,,,,,,,,,,,,,,,,,,,,,,,,,,,,,,,,,,,,,,,,,,,,,,,,,,,,,,,,,,,,,,,,,,,,,,,,,,,,,,,,,,,,,
,,?,0.001,0,,,,,,stimuli/images/PICTURE_744.png,SYSTEM,59e3b0252f63d30001c8f6f9,06/08/1955,2020-09-10_09h46.42.989,proactive3.1,2020.1.2,Win32,60,5f599a131af4471f3d752b7b,5f5a2e0e7e4af20917851c62,2,,,,,,ring,,,,,,,,,,,5,0,0,56,56,43,1,,,,,,,,,,,,,,,,,,,,,,,,,,,,,,,,,,,,,,,,,,,,,,,,,,,,,,,,,,,,,,,,,,,,,,,,,,,,,,,,,,,,,,,,,,,,,,,,,,,,,,,
,,?,0.001,0,,,,,,stimuli/images/PICTURE_453.png,PLENTY,59e3b0252f63d30001c8f6f9,06/08/1955,2020-09-10_09h46.42.989,proactive3.1,2020.1.2,Win32,60,5f599a131af4471f3d752b7b,5f5a2e0e7e4af20917851c62,2,,,,,,scissors,,,,,,,,,,,6,0,0,57,57,56,1,,,,,,,,,,,,,,,,,,,,,,,,,,,,,,,,,,,,,,,,,,,,,,,,,,,,,,,,,,,,,,,,,,,,,,,,,,,,,,,,,,,,,,,,,,,,,,,,,,,,,,,
,,?,0.001,0,,,,,,stimuli/images/PICTURE_504.png,BODY,59e3b0252f63d30001c8f6f9,06/08/1955,2020-09-10_09h46.42.989,proactive3.1,2020.1.2,Win32,60,5f599a131af4471f3d752b7b,5f5a2e0e7e4af20917851c62,2,,,,,,wheel,,,,,,,,,,,1,0,0,58,58,8,1,,,,,,,,,,,,,,,,,,,,,,,,,,,,,,,,,,,,,,,,,,,,,,,,,,,,,,,,,,,,,,,,,,,,,,,,,,,,,,,,,,,,,,,,,,,,,,,,,,,,,,,
,,?,0.001,0,,,,,,stimuli/images/PICTURE_314.png,SAKE,59e3b0252f63d30001c8f6f9,06/08/1955,2020-09-10_09h46.42.989,proactive3.1,2020.1.2,Win32,60,5f599a131af4471f3d752b7b,5f5a2e0e7e4af20917851c62,2,,,,,,perfume,,,,,,,,,,,1,0,0,59,59,7,1,,,,,,,,,,,,,,,,,,,,,,,,,,,,,,,,,,,,,,,,,,,,,,,,,,,,,,,,,,,,,,,,,,,,,,,,,,,,,,,,,,,,,,,,,,,,,,,,,,,,,,,
,,,,,,,,,,,,59e3b0252f63d30001c8f6f9,06/08/1955,2020-09-10_09h46.42.989,proactive3.1,2020.1.2,Win32,60,5f599a131af4471f3d752b7b,5f5a2e0e7e4af20917851c62,2,,,,,,,,,,,,,,,,,,,,,,,,0,0,0,0,1,stimuli/learn-block1.csv,,,,,,,,,,,,,,,,,,,,,,,,,,,,,,,,,,,,,,,,,,,,,,,,,,,,,,,,,,,,,,,,,,,,,,,,,,,,,,,,,,,,,,,,,,,,,,,,,
,,,,,,,,,,stimuli/images/PICTURE_405.png,PLENTY,59e3b0252f63d30001c8f6f9,06/08/1955,2020-09-10_09h46.42.989,proactive3.1,2020.1.2,Win32,60,5f599a131af4471f3d752b7b,5f5a2e0e7e4af20917851c62,2,,,,,,anchor,,,,,,0,0,0,23,1,3,1,,,,,,,,,,,,,,,,,,,,,,,,,,,,,,,,,,,,,,,,,,,,,,,,,,,,,,,,,,,,,,,,,,,,,,,,,,,,,,,,,,,,,,,,,,,,,,,,,,,,,,,,,,,,
,,,,,,,,,,stimuli/images/PICTURE_85.png,TOILET,59e3b0252f63d30001c8f6f9,06/08/1955,2020-09-10_09h46.42.989,proactive3.1,2020.1.2,Win32,60,5f599a131af4471f3d752b7b,5f5a2e0e7e4af20917851c62,2,,,,,,diamond,,,,,,0,1,1,48,1,5,1,,,,,,,,,,,,,,,,,,,,,,,,,,,,,,,,,,,,,,,,,,,,,,,,,,,,,,,,,,,,,,,,,,,,,,,,,,,,,,,,,,,,,,,,,,,,,,,,,,,,,,,,,,,,
,,,,,,,,,,stimuli/images/PICTURE_327.png,CASINO,59e3b0252f63d30001c8f6f9,06/08/1955,2020-09-10_09h46.42.989,proactive3.1,2020.1.2,Win32,60,5f599a131af4471f3d752b7b,5f5a2e0e7e4af20917851c62,2,,,,,,helmet,,,,,,0,2,2,20,1,3,1,,,,,,,,,,,,,,,,,,,,,,,,,,,,,,,,,,,,,,,,,,,,,,,,,,,,,,,,,,,,,,,,,,,,,,,,,,,,,,,,,,,,,,,,,,,,,,,,,,,,,,,,,,,,
,,,,,,,,,,stimuli/images/PICTURE_203.png,GODS,59e3b0252f63d30001c8f6f9,06/08/1955,2020-09-10_09h46.42.989,proactive3.1,2020.1.2,Win32,60,5f599a131af4471f3d752b7b,5f5a2e0e7e4af20917851c62,2,,,,,,cap,,,,,,0,3,3,30,1,4,1,,,,,,,,,,,,,,,,,,,,,,,,,,,,,,,,,,,,,,,,,,,,,,,,,,,,,,,,,,,,,,,,,,,,,,,,,,,,,,,,,,,,,,,,,,,,,,,,,,,,,,,,,,,,
,,,,,,,,,,stimuli/images/PICTURE_95.png,BOYS,59e3b0252f63d30001c8f6f9,06/08/1955,2020-09-10_09h46.42.989,proactive3.1,2020.1.2,Win32,60,5f599a131af4471f3d752b7b,5f5a2e0e7e4af20917851c62,2,,,,,,suitcase,,,,,,0,4,4,1,1,1,1,,,,,,,,,,,,,,,,,,,,,,,,,,,,,,,,,,,,,,,,,,,,,,,,,,,,,,,,,,,,,,,,,,,,,,,,,,,,,,,,,,,,,,,,,,,,,,,,,,,,,,,,,,,,
,,,,,,,,,,stimuli/images/PICTURE_469.png,AGENT,59e3b0252f63d30001c8f6f9,06/08/1955,2020-09-10_09h46.42.989,proactive3.1,2020.1.2,Win32,60,5f599a131af4471f3d752b7b,5f5a2e0e7e4af20917851c62,2,,,,,,stool,,,,,,0,5,5,16,1,2,1,,,,,,,,,,,,,,,,,,,,,,,,,,,,,,,,,,,,,,,,,,,,,,,,,,,,,,,,,,,,,,,,,,,,,,,,,,,,,,,,,,,,,,,,,,,,,,,,,,,,,,,,,,,,
,,,,,,,,,,stimuli/images/PICTURE_108.png,POLICY,59e3b0252f63d30001c8f6f9,06/08/1955,2020-09-10_09h46.42.989,proactive3.1,2020.1.2,Win32,60,5f599a131af4471f3d752b7b,5f5a2e0e7e4af20917851c62,2,,,,,,calendar,,,,,,0,6,6,22,1,3,1,,,,,,,,,,,,,,,,,,,,,,,,,,,,,,,,,,,,,,,,,,,,,,,,,,,,,,,,,,,,,,,,,,,,,,,,,,,,,,,,,,,,,,,,,,,,,,,,,,,,,,,,,,,,
,,,,,,,,,,stimuli/images/PICTURE_403.png,RIVER,59e3b0252f63d30001c8f6f9,06/08/1955,2020-09-10_09h46.42.989,proactive3.1,2020.1.2,Win32,60,5f599a131af4471f3d752b7b,5f5a2e0e7e4af20917851c62,2,,,,,,cathedral,,,,,,0,7,7,40,1,5,1,,,,,,,,,,,,,,,,,,,,,,,,,,,,,,,,,,,,,,,,,,,,,,,,,,,,,,,,,,,,,,,,,,,,,,,,,,,,,,,,,,,,,,,,,,,,,,,,,,,,,,,,,,,,
,,,,,,,,,,stimuli/images/PICTURE_208.png,SYSTEM,59e3b0252f63d30001c8f6f9,06/08/1955,2020-09-10_09h46.42.989,proactive3.1,2020.1.2,Win32,60,5f599a131af4471f3d752b7b,5f5a2e0e7e4af20917851c62,2,,,,,,microphone,,,,,,0,8,8,32,1,4,1,,,,,,,,,,,,,,,,,,,,,,,,,,,,,,,,,,,,,,,,,,,,,,,,,,,,,,,,,,,,,,,,,,,,,,,,,,,,,,,,,,,,,,,,,,,,,,,,,,,,,,,,,,,,
,,,,,,,,,,stimuli/images/PICTURE_708.png,RECORD,59e3b0252f63d30001c8f6f9,06/08/1955,2020-09-10_09h46.42.989,proactive3.1,2020.1.2,Win32,60,5f599a131af4471f3d752b7b,5f5a2e0e7e4af20917851c62,2,,,,,,monkey,,,,,,0,9,9,58,1,6,1,,,,,,,,,,,,,,,,,,,,,,,,,,,,,,,,,,,,,,,,,,,,,,,,,,,,,,,,,,,,,,,,,,,,,,,,,,,,,,,,,,,,,,,,,,,,,,,,,,,,,,,,,,,,
,,,,,,,,,,stimuli/images/PICTURE_340.png,VALLEY,59e3b0252f63d30001c8f6f9,06/08/1955,2020-09-10_09h46.42.989,proactive3.1,2020.1.2,Win32,60,5f599a131af4471f3d752b7b,5f5a2e0e7e4af20917851c62,2,,,,,,mirror,,,,,,0,10,10,54,1,6,1,,,,,,,,,,,,,,,,,,,,,,,,,,,,,,,,,,,,,,,,,,,,,,,,,,,,,,,,,,,,,,,,,,,,,,,,,,,,,,,,,,,,,,,,,,,,,,,,,,,,,,,,,,,,
,,,,,,,,,,stimuli/images/PICTURE_449.png,DUDE,59e3b0252f63d30001c8f6f9,06/08/1955,2020-09-10_09h46.42.989,proactive3.1,2020.1.2,Win32,60,5f599a131af4471f3d752b7b,5f5a2e0e7e4af20917851c62,2,,,,,,bench,,,,,,0,11,11,17,1,2,1,,,,,,,,,,,,,,,,,,,,,,,,,,,,,,,,,,,,,,,,,,,,,,,,,,,,,,,,,,,,,,,,,,,,,,,,,,,,,,,,,,,,,,,,,,,,,,,,,,,,,,,,,,,,
,,,,,,,,,,stimuli/images/PICTURE_233.png,LOTS,59e3b0252f63d30001c8f6f9,06/08/1955,2020-09-10_09h46.42.989,proactive3.1,2020.1.2,Win32,60,5f599a131af4471f3d752b7b,5f5a2e0e7e4af20917851c62,2,,,,,,salt,,,,,,0,12,12,42,1,5,1,,,,,,,,,,,,,,,,,,,,,,,,,,,,,,,,,,,,,,,,,,,,,,,,,,,,,,,,,,,,,,,,,,,,,,,,,,,,,,,,,,,,,,,,,,,,,,,,,,,,,,,,,,,,
,,,,,,,,,,stimuli/images/PICTURE_85.png,NATION,59e3b0252f63d30001c8f6f9,06/08/1955,2020-09-10_09h46.42.989,proactive3.1,2020.1.2,Win32,60,5f599a131af4471f3d752b7b,5f5a2e0e7e4af20917851c62,2,,,,,,diamond,,,,,,0,13,13,5,1,1,1,,,,,,,,,,,,,,,,,,,,,,,,,,,,,,,,,,,,,,,,,,,,,,,,,,,,,,,,,,,,,,,,,,,,,,,,,,,,,,,,,,,,,,,,,,,,,,,,,,,,,,,,,,,,
,,,,,,,,,,stimuli/images/PICTURE_327.png,SERIES,59e3b0252f63d30001c8f6f9,06/08/1955,2020-09-10_09h46.42.989,proactive3.1,2020.1.2,Win32,60,5f599a131af4471f3d752b7b,5f5a2e0e7e4af20917851c62,2,,,,,,helmet,,,,,,0,14,14,3,1,1,1,,,,,,,,,,,,,,,,,,,,,,,,,,,,,,,,,,,,,,,,,,,,,,,,,,,,,,,,,,,,,,,,,,,,,,,,,,,,,,,,,,,,,,,,,,,,,,,,,,,,,,,,,,,,
,,,,,,,,,,stimuli/images/PICTURE_677.png,APPLE,59e3b0252f63d30001c8f6f9,06/08/1955,2020-09-10_09h46.42.989,proactive3.1,2020.1.2,Win32,60,5f599a131af4471f3d752b7b,5f5a2e0e7e4af20917851c62,2,,,,,,map,,,,,,0,15,15,43,1,5,1,,,,,,,,,,,,,,,,,,,,,,,,,,,,,,,,,,,,,,,,,,,,,,,,,,,,,,,,,,,,,,,,,,,,,,,,,,,,,,,,,,,,,,,,,,,,,,,,,,,,,,,,,,,,
,,,,,,,,,,stimuli/images/PICTURE_744.png,WEAPON,59e3b0252f63d30001c8f6f9,06/08/1955,2020-09-10_09h46.42.989,proactive3.1,2020.1.2,Win32,60,5f599a131af4471f3d752b7b,5f5a2e0e7e4af20917851c62,2,,,,,,ring,,,,,,0,16,16,50,1,6,1,,,,,,,,,,,,,,,,,,,,,,,,,,,,,,,,,,,,,,,,,,,,,,,,,,,,,,,,,,,,,,,,,,,,,,,,,,,,,,,,,,,,,,,,,,,,,,,,,,,,,,,,,,,,
,,,,,,,,,,stimuli/images/PICTURE_487.png,GIRL,59e3b0252f63d30001c8f6f9,06/08/1955,2020-09-10_09h46.42.989,proactive3.1,2020.1.2,Win32,60,5f599a131af4471f3d752b7b,5f5a2e0e7e4af20917851c62,2,,,,,,basket,,,,,,0,17,17,45,1,5,1,,,,,,,,,,,,,,,,,,,,,,,,,,,,,,,,,,,,,,,,,,,,,,,,,,,,,,,,,,,,,,,,,,,,,,,,,,,,,,,,,,,,,,,,,,,,,,,,,,,,,,,,,,,,
,,,,,,,,,,stimuli/images/PICTURE_308.png,FAMILY,59e3b0252f63d30001c8f6f9,06/08/1955,2020-09-10_09h46.42.989,proactive3.1,2020.1.2,Win32,60,5f599a131af4471f3d752b7b,5f5a2e0e7e4af20917851c62,2,,,,,,dice,,,,,,0,18,18,36,1,4,1,,,,,,,,,,,,,,,,,,,,,,,,,,,,,,,,,,,,,,,,,,,,,,,,,,,,,,,,,,,,,,,,,,,,,,,,,,,,,,,,,,,,,,,,,,,,,,,,,,,,,,,,,,,,
,,,,,,,,,,stimuli/images/PICTURE_675.png,SALE,59e3b0252f63d30001c8f6f9,06/08/1955,2020-09-10_09h46.42.989,proactive3.1,2020.1.2,Win32,60,5f599a131af4471f3d752b7b,5f5a2e0e7e4af20917851c62,2,,,,,,windmill,,,,,,0,19,19,47,1,5,1,,,,,,,,,,,,,,,,,,,,,,,,,,,,,,,,,,,,,,,,,,,,,,,,,,,,,,,,,,,,,,,,,,,,,,,,,,,,,,,,,,,,,,,,,,,,,,,,,,,,,,,,,,,,
,,,,,,,,,,stimuli/images/PICTURE_177.png,WRITER,59e3b0252f63d30001c8f6f9,06/08/1955,2020-09-10_09h46.42.989,proactive3.1,2020.1.2,Win32,60,5f599a131af4471f3d752b7b,5f5a2e0e7e4af20917851c62,2,,,,,,mushroom,,,,,,0,20,20,41,1,5,1,,,,,,,,,,,,,,,,,,,,,,,,,,,,,,,,,,,,,,,,,,,,,,,,,,,,,,,,,,,,,,,,,,,,,,,,,,,,,,,,,,,,,,,,,,,,,,,,,,,,,,,,,,,,
,,,,,,,,,,stimuli/images/PICTURE_108.png,FLIGHT,59e3b0252f63d30001c8f6f9,06/08/1955,2020-09-10_09h46.42.989,proactive3.1,2020.1.2,Win32,60,5f599a131af4471f3d752b7b,5f5a2e0e7e4af20917851c62,2,,,,,,calendar,,,,,,0,21,21,59,1,6,1,,,,,,,,,,,,,,,,,,,,,,,,,,,,,,,,,,,,,,,,,,,,,,,,,,,,,,,,,,,,,,,,,,,,,,,,,,,,,,,,,,,,,,,,,,,,,,,,,,,,,,,,,,,,
,,,,,,,,,,stimuli/images/PICTURE_403.png,TOILET,59e3b0252f63d30001c8f6f9,06/08/1955,2020-09-10_09h46.42.989,proactive3.1,2020.1.2,Win32,60,5f599a131af4471f3d752b7b,5f5a2e0e7e4af20917851c62,2,,,,,,cathedral,,,,,,0,22,22,25,1,3,1,,,,,,,,,,,,,,,,,,,,,,,,,,,,,,,,,,,,,,,,,,,,,,,,,,,,,,,,,,,,,,,,,,,,,,,,,,,,,,,,,,,,,,,,,,,,,,,,,,,,,,,,,,,,
,,,,,,,,,,stimuli/images/PICTURE_380.png,CANDY,59e3b0252f63d30001c8f6f9,06/08/1955,2020-09-10_09h46.42.989,proactive3.1,2020.1.2,Win32,60,5f599a131af4471f3d752b7b,5f5a2e0e7e4af20917851c62,2,,,,,,gorilla,,,,,,0,23,23,0,1,1,1,,,,,,,,,,,,,,,,,,,,,,,,,,,,,,,,,,,,,,,,,,,,,,,,,,,,,,,,,,,,,,,,,,,,,,,,,,,,,,,,,,,,,,,,,,,,,,,,,,,,,,,,,,,,
,,,,,,,,,,stimuli/images/PICTURE_383.png,SERIES,59e3b0252f63d30001c8f6f9,06/08/1955,2020-09-10_09h46.42.989,proactive3.1,2020.1.2,Win32,60,5f599a131af4471f3d752b7b,5f5a2e0e7e4af20917851c62,2,,,,,,coin,,,,,,0,24,24,46,1,5,1,,,,,,,,,,,,,,,,,,,,,,,,,,,,,,,,,,,,,,,,,,,,,,,,,,,,,,,,,,,,,,,,,,,,,,,,,,,,,,,,,,,,,,,,,,,,,,,,,,,,,,,,,,,,
,,,,,,,,,,stimuli/images/PICTURE_32.png,KIND,59e3b0252f63d30001c8f6f9,06/08/1955,2020-09-10_09h46.42.989,proactive3.1,2020.1.2,Win32,60,5f599a131af4471f3d752b7b,5f5a2e0e7e4af20917851c62,2,,,,,,crown,,,,,,0,25,25,35,1,4,1,,,,,,,,,,,,,,,,,,,,,,,,,,,,,,,,,,,,,,,,,,,,,,,,,,,,,,,,,,,,,,,,,,,,,,,,,,,,,,,,,,,,,,,,,,,,,,,,,,,,,,,,,,,,
,,,,,,,,,,stimuli/images/PICTURE_491.png,RIVER,59e3b0252f63d30001c8f6f9,06/08/1955,2020-09-10_09h46.42.989,proactive3.1,2020.1.2,Win32,60,5f599a131af4471f3d752b7b,5f5a2e0e7e4af20917851c62,2,,,,,,rug,,,,,,0,26,26,6,1,1,1,,,,,,,,,,,,,,,,,,,,,,,,,,,,,,,,,,,,,,,,,,,,,,,,,,,,,,,,,,,,,,,,,,,,,,,,,,,,,,,,,,,,,,,,,,,,,,,,,,,,,,,,,,,,
,,,,,,,,,,stimuli/images/PICTURE_383.png,WRITER,59e3b0252f63d30001c8f6f9,06/08/1955,2020-09-10_09h46.42.989,proactive3.1,2020.1.2,Win32,60,5f599a131af4471f3d752b7b,5f5a2e0e7e4af20917851c62,2,,,,,,coin,,,,,,0,27,27,28,1,3,1,,,,,,,,,,,,,,,,,,,,,,,,,,,,,,,,,,,,,,,,,,,,,,,,,,,,,,,,,,,,,,,,,,,,,,,,,,,,,,,,,,,,,,,,,,,,,,,,,,,,,,,,,,,,
,,,,,,,,,,stimuli/images/PICTURE_42.png,BOYS,59e3b0252f63d30001c8f6f9,06/08/1955,2020-09-10_09h46.42.989,proactive3.1,2020.1.2,Win32,60,5f599a131af4471f3d752b7b,5f5a2e0e7e4af20917851c62,2,,,,,,pear,,,,,,0,28,28,55,1,6,1,,,,,,,,,,,,,,,,,,,,,,,,,,,,,,,,,,,,,,,,,,,,,,,,,,,,,,,,,,,,,,,,,,,,,,,,,,,,,,,,,,,,,,,,,,,,,,,,,,,,,,,,,,,,
,,,,,,,,,,stimuli/images/PICTURE_654.png,MONTH,59e3b0252f63d30001c8f6f9,06/08/1955,2020-09-10_09h46.42.989,proactive3.1,2020.1.2,Win32,60,5f599a131af4471f3d752b7b,5f5a2e0e7e4af20917851c62,2,,,,,,pencil,,,,,,0,29,29,29,1,3,1,,,,,,,,,,,,,,,,,,,,,,,,,,,,,,,,,,,,,,,,,,,,,,,,,,,,,,,,,,,,,,,,,,,,,,,,,,,,,,,,,,,,,,,,,,,,,,,,,,,,,,,,,,,,
,,,,,,,,,,stimuli/images/PICTURE_403.png,WRITER,59e3b0252f63d30001c8f6f9,06/08/1955,2020-09-10_09h46.42.989,proactive3.1,2020.1.2,Win32,60,5f599a131af4471f3d752b7b,5f5a2e0e7e4af20917851c62,2,,,,,,cathedral,,,,,,0,30,30,31,1,4,1,,,,,,,,,,,,,,,,,,,,,,,,,,,,,,,,,,,,,,,,,,,,,,,,,,,,,,,,,,,,,,,,,,,,,,,,,,,,,,,,,,,,,,,,,,,,,,,,,,,,,,,,,,,,
,,,,,,,,,,stimuli/images/PICTURE_95.png,MILLER,59e3b0252f63d30001c8f6f9,06/08/1955,2020-09-10_09h46.42.989,proactive3.1,2020.1.2,Win32,60,5f599a131af4471f3d752b7b,5f5a2e0e7e4af20917851c62,2,,,,,,suitcase,,,,,,0,31,31,56,1,6,1,,,,,,,,,,,,,,,,,,,,,,,,,,,,,,,,,,,,,,,,,,,,,,,,,,,,,,,,,,,,,,,,,,,,,,,,,,,,,,,,,,,,,,,,,,,,,,,,,,,,,,,,,,,,
,,,,,,,,,,stimuli/images/PICTURE_296.png,LIFE,59e3b0252f63d30001c8f6f9,06/08/1955,2020-09-10_09h46.42.989,proactive3.1,2020.1.2,Win32,60,5f599a131af4471f3d752b7b,5f5a2e0e7e4af20917851c62,2,,,,,,bolt,,,,,,0,32,32,57,1,6,1,,,,,,,,,,,,,,,,,,,,,,,,,,,,,,,,,,,,,,,,,,,,,,,,,,,,,,,,,,,,,,,,,,,,,,,,,,,,,,,,,,,,,,,,,,,,,,,,,,,,,,,,,,,,
,,,,,,,,,,stimuli/images/PICTURE_57.png,MOMENT,59e3b0252f63d30001c8f6f9,06/08/1955,2020-09-10_09h46.42.989,proactive3.1,2020.1.2,Win32,60,5f599a131af4471f3d752b7b,5f5a2e0e7e4af20917851c62,2,,,,,,stamp,,,,,,0,33,33,37,1,4,1,,,,,,,,,,,,,,,,,,,,,,,,,,,,,,,,,,,,,,,,,,,,,,,,,,,,,,,,,,,,,,,,,,,,,,,,,,,,,,,,,,,,,,,,,,,,,,,,,,,,,,,,,,,,
,,,,,,,,,,stimuli/images/PICTURE_297.png,RIVER,59e3b0252f63d30001c8f6f9,06/08/1955,2020-09-10_09h46.42.989,proactive3.1,2020.1.2,Win32,60,5f599a131af4471f3d752b7b,5f5a2e0e7e4af20917851c62,2,,,,,,aeroplane,,,,,,0,34,34,39,1,4,1,,,,,,,,,,,,,,,,,,,,,,,,,,,,,,,,,,,,,,,,,,,,,,,,,,,,,,,,,,,,,,,,,,,,,,,,,,,,,,,,,,,,,,,,,,,,,,,,,,,,,,,,,,,,
,,,,,,,,,,stimuli/images/PICTURE_203.png,NIGHT,59e3b0252f63d30001c8f6f9,06/08/1955,2020-09-10_09h46.42.989,proactive3.1,2020.1.2,Win32,60,5f599a131af4471f3d752b7b,5f5a2e0e7e4af20917851c62,2,,,,,,cap,,,,,,0,35,35,2,1,1,1,,,,,,,,,,,,,,,,,,,,,,,,,,,,,,,,,,,,,,,,,,,,,,,,,,,,,,,,,,,,,,,,,,,,,,,,,,,,,,,,,,,,,,,,,,,,,,,,,,,,,,,,,,,,
,,,,,,,,,,stimuli/images/PICTURE_147.png,WOMEN,59e3b0252f63d30001c8f6f9,06/08/1955,2020-09-10_09h46.42.989,proactive3.1,2020.1.2,Win32,60,5f599a131af4471f3d752b7b,5f5a2e0e7e4af20917851c62,2,,,,,,hanger,,,,,,0,36,36,7,1,1,1,,,,,,,,,,,,,,,,,,,,,,,,,,,,,,,,,,,,,,,,,,,,,,,,,,,,,,,,,,,,,,,,,,,,,,,,,,,,,,,,,,,,,,,,,,,,,,,,,,,,,,,,,,,,
,,,,,,,,,,stimuli/images/PICTURE_491.png,GLASS,59e3b0252f63d30001c8f6f9,06/08/1955,2020-09-10_09h46.42.989,proactive3.1,2020.1.2,Win32,60,5f599a131af4471f3d752b7b,5f5a2e0e7e4af20917851c62,2,,,,,,rug,,,,,,0,37,37,14,1,2,1,,,,,,,,,,,,,,,,,,,,,,,,,,,,,,,,,,,,,,,,,,,,,,,,,,,,,,,,,,,,,,,,,,,,,,,,,,,,,,,,,,,,,,,,,,,,,,,,,,,,,,,,,,,,
,,,,,,,,,,stimuli/images/PICTURE_339.png,CLIENT,59e3b0252f63d30001c8f6f9,06/08/1955,2020-09-10_09h46.42.989,proactive3.1,2020.1.2,Win32,60,5f599a131af4471f3d752b7b,5f5a2e0e7e4af20917851c62,2,,,,,,backpack,,,,,,0,38,38,11,1,2,1,,,,,,,,,,,,,,,,,,,,,,,,,,,,,,,,,,,,,,,,,,,,,,,,,,,,,,,,,,,,,,,,,,,,,,,,,,,,,,,,,,,,,,,,,,,,,,,,,,,,,,,,,,,,
,,,,,,,,,,stimuli/images/PICTURE_504.png,COPS,59e3b0252f63d30001c8f6f9,06/08/1955,2020-09-10_09h46.42.989,proactive3.1,2020.1.2,Win32,60,5f599a131af4471f3d752b7b,5f5a2e0e7e4af20917851c62,2,,,,,,wheel,,,,,,0,39,39,52,1,6,1,,,,,,,,,,,,,,,,,,,,,,,,,,,,,,,,,,,,,,,,,,,,,,,,,,,,,,,,,,,,,,,,,,,,,,,,,,,,,,,,,,,,,,,,,,,,,,,,,,,,,,,,,,,,
,,,,,,,,,,stimuli/images/PICTURE_467.png,POLICY,59e3b0252f63d30001c8f6f9,06/08/1955,2020-09-10_09h46.42.989,proactive3.1,2020.1.2,Win32,60,5f599a131af4471f3d752b7b,5f5a2e0e7e4af20917851c62,2,,,,,,peg,,,,,,0,40,40,53,1,6,1,,,,,,,,,,,,,,,,,,,,,,,,,,,,,,,,,,,,,,,,,,,,,,,,,,,,,,,,,,,,,,,,,,,,,,,,,,,,,,,,,,,,,,,,,,,,,,,,,,,,,,,,,,,,
,,,,,,,,,,stimuli/images/PICTURE_33.png,FRIEND,59e3b0252f63d30001c8f6f9,06/08/1955,2020-09-10_09h46.42.989,proactive3.1,2020.1.2,Win32,60,5f599a131af4471f3d752b7b,5f5a2e0e7e4af20917851c62,2,,,,,,frame,,,,,,0,41,41,8,1,1,1,,,,,,,,,,,,,,,,,,,,,,,,,,,,,,,,,,,,,,,,,,,,,,,,,,,,,,,,,,,,,,,,,,,,,,,,,,,,,,,,,,,,,,,,,,,,,,,,,,,,,,,,,,,,
,,,,,,,,,,stimuli/images/PICTURE_296.png,LOTS,59e3b0252f63d30001c8f6f9,06/08/1955,2020-09-10_09h46.42.989,proactive3.1,2020.1.2,Win32,60,5f599a131af4471f3d752b7b,5f5a2e0e7e4af20917851c62,2,,,,,,bolt,,,,,,0,42,42,9,1,1,1,,,,,,,,,,,,,,,,,,,,,,,,,,,,,,,,,,,,,,,,,,,,,,,,,,,,,,,,,,,,,,,,,,,,,,,,,,,,,,,,,,,,,,,,,,,,,,,,,,,,,,,,,,,,
,,,,,,,,,,stimuli/images/PICTURE_68.png,ROOF,59e3b0252f63d30001c8f6f9,06/08/1955,2020-09-10_09h46.42.989,proactive3.1,2020.1.2,Win32,60,5f599a131af4471f3d752b7b,5f5a2e0e7e4af20917851c62,2,,,,,,candle,,,,,,0,43,43,38,1,4,1,,,,,,,,,,,,,,,,,,,,,,,,,,,,,,,,,,,,,,,,,,,,,,,,,,,,,,,,,,,,,,,,,,,,,,,,,,,,,,,,,,,,,,,,,,,,,,,,,,,,,,,,,,,,
,,,,,,,,,,stimuli/images/PICTURE_32.png,PILLS,59e3b0252f63d30001c8f6f9,06/08/1955,2020-09-10_09h46.42.989,proactive3.1,2020.1.2,Win32,60,5f599a131af4471f3d752b7b,5f5a2e0e7e4af20917851c62,2,,,,,,crown,,,,,,0,44,44,18,1,2,1,,,,,,,,,,,,,,,,,,,,,,,,,,,,,,,,,,,,,,,,,,,,,,,,,,,,,,,,,,,,,,,,,,,,,,,,,,,,,,,,,,,,,,,,,,,,,,,,,,,,,,,,,,,,
,,,,,,,,,,stimuli/images/PICTURE_147.png,YEAR,59e3b0252f63d30001c8f6f9,06/08/1955,2020-09-10_09h46.42.989,proactive3.1,2020.1.2,Win32,60,5f599a131af4471f3d752b7b,5f5a2e0e7e4af20917851c62,2,,,,,,hanger,,,,,,0,45,45,21,1,3,1,,,,,,,,,,,,,,,,,,,,,,,,,,,,,,,,,,,,,,,,,,,,,,,,,,,,,,,,,,,,,,,,,,,,,,,,,,,,,,,,,,,,,,,,,,,,,,,,,,,,,,,,,,,,
,,,,,,,,,,stimuli/images/PICTURE_655.png,TOILET,59e3b0252f63d30001c8f6f9,06/08/1955,2020-09-10_09h46.42.989,proactive3.1,2020.1.2,Win32,60,5f599a131af4471f3d752b7b,5f5a2e0e7e4af20917851c62,2,,,,,,megaphone,,,,,,0,46,46,12,1,2,1,,,,,,,,,,,,,,,,,,,,,,,,,,,,,,,,,,,,,,,,,,,,,,,,,,,,,,,,,,,,,,,,,,,,,,,,,,,,,,,,,,,,,,,,,,,,,,,,,,,,,,,,,,,,
,,,,,,,,,,stimuli/images/PICTURE_380.png,HONEY,59e3b0252f63d30001c8f6f9,06/08/1955,2020-09-10_09h46.42.989,proactive3.1,2020.1.2,Win32,60,5f599a131af4471f3d752b7b,5f5a2e0e7e4af20917851c62,2,,,,,,gorilla,,,,,,0,47,47,19,1,2,1,,,,,,,,,,,,,,,,,,,,,,,,,,,,,,,,,,,,,,,,,,,,,,,,,,,,,,,,,,,,,,,,,,,,,,,,,,,,,,,,,,,,,,,,,,,,,,,,,,,,,,,,,,,,
,,,,,,,,,,stimuli/images/PICTURE_340.png,LETTER,59e3b0252f63d30001c8f6f9,06/08/1955,2020-09-10_09h46.42.989,proactive3.1,2020.1.2,Win32,60,5f599a131af4471f3d752b7b,5f5a2e0e7e4af20917851c62,2,,,,,,mirror,,,,,,0,48,48,24,1,3,1,,,,,,,,,,,,,,,,,,,,,,,,,,,,,,,,,,,,,,,,,,,,,,,,,,,,,,,,,,,,,,,,,,,,,,,,,,,,,,,,,,,,,,,,,,,,,,,,,,,,,,,,,,,,
,,,,,,,,,,stimuli/images/PICTURE_504.png,YEAR,59e3b0252f63d30001c8f6f9,06/08/1955,2020-09-10_09h46.42.989,proactive3.1,2020.1.2,Win32,60,5f599a131af4471f3d752b7b,5f5a2e0e7e4af20917851c62,2,,,,,,wheel,,,,,,0,49,49,13,1,2,1,,,,,,,,,,,,,,,,,,,,,,,,,,,,,,,,,,,,,,,,,,,,,,,,,,,,,,,,,,,,,,,,,,,,,,,,,,,,,,,,,,,,,,,,,,,,,,,,,,,,,,,,,,,,
,,,,,,,,,,stimuli/images/PICTURE_95.png,HONEY,59e3b0252f63d30001c8f6f9,06/08/1955,2020-09-10_09h46.42.989,proactive3.1,2020.1.2,Win32,60,5f599a131af4471f3d752b7b,5f5a2e0e7e4af20917851c62,2,,,,,,suitcase,,,,,,0,50,50,44,1,5,1,,,,,,,,,,,,,,,,,,,,,,,,,,,,,,,,,,,,,,,,,,,,,,,,,,,,,,,,,,,,,,,,,,,,,,,,,,,,,,,,,,,,,,,,,,,,,,,,,,,,,,,,,,,,
,,,,,,,,,,stimuli/images/PICTURE_285.png,LIFE,59e3b0252f63d30001c8f6f9,06/08/1955,2020-09-10_09h46.42.989,proactive3.1,2020.1.2,Win32,60,5f599a131af4471f3d752b7b,5f5a2e0e7e4af20917851c62,2,,,,,,carrot,,,,,,0,51,51,33,1,4,1,,,,,,,,,,,,,,,,,,,,,,,,,,,,,,,,,,,,,,,,,,,,,,,,,,,,,,,,,,,,,,,,,,,,,,,,,,,,,,,,,,,,,,,,,,,,,,,,,,,,,,,,,,,,
,,,,,,,,,,stimuli/images/PICTURE_564.png,BATH,59e3b0252f63d30001c8f6f9,06/08/1955,2020-09-10_09h46.42.989,proactive3.1,2020.1.2,Win32,60,5f599a131af4471f3d752b7b,5f5a2e0e7e4af20917851c62,2,,,,,,spoon,,,,,,0,52,52,26,1,3,1,,,,,,,,,,,,,,,,,,,,,,,,,,,,,,,,,,,,,,,,,,,,,,,,,,,,,,,,,,,,,,,,,,,,,,,,,,,,,,,,,,,,,,,,,,,,,,,,,,,,,,,,,,,,
,,,,,,,,,,stimuli/images/PICTURE_685.png,PENNY,59e3b0252f63d30001c8f6f9,06/08/1955,2020-09-10_09h46.42.989,proactive3.1,2020.1.2,Win32,60,5f599a131af4471f3d752b7b,5f5a2e0e7e4af20917851c62,2,,,,,,goose,,,,,,0,53,53,4,1,1,1,,,,,,,,,,,,,,,,,,,,,,,,,,,,,,,,,,,,,,,,,,,,,,,,,,,,,,,,,,,,,,,,,,,,,,,,,,,,,,,,,,,,,,,,,,,,,,,,,,,,,,,,,,,,
,,,,,,,,,,stimuli/images/PICTURE_750.png,HOTEL,59e3b0252f63d30001c8f6f9,06/08/1955,2020-09-10_09h46.42.989,proactive3.1,2020.1.2,Win32,60,5f599a131af4471f3d752b7b,5f5a2e0e7e4af20917851c62,2,,,,,,kettle,,,,,,0,54,54,27,1,3,1,,,,,,,,,,,,,,,,,,,,,,,,,,,,,,,,,,,,,,,,,,,,,,,,,,,,,,,,,,,,,,,,,,,,,,,,,,,,,,,,,,,,,,,,,,,,,,,,,,,,,,,,,,,,
,,,,,,,,,,stimuli/images/PICTURE_405.png,YEAR,59e3b0252f63d30001c8f6f9,06/08/1955,2020-09-10_09h46.42.989,proactive3.1,2020.1.2,Win32,60,5f599a131af4471f3d752b7b,5f5a2e0e7e4af20917851c62,2,,,,,,anchor,,,,,,0,55,55,34,1,4,1,,,,,,,,,,,,,,,,,,,,,,,,,,,,,,,,,,,,,,,,,,,,,,,,,,,,,,,,,,,,,,,,,,,,,,,,,,,,,,,,,,,,,,,,,,,,,,,,,,,,,,,,,,,,
,,,,,,,,,,stimuli/images/PICTURE_504.png,ARTIST,59e3b0252f63d30001c8f6f9,06/08/1955,2020-09-10_09h46.42.989,proactive3.1,2020.1.2,Win32,60,5f599a131af4471f3d752b7b,5f5a2e0e7e4af20917851c62,2,,,,,,wheel,,,,,,0,56,56,49,1,5,1,,,,,,,,,,,,,,,,,,,,,,,,,,,,,,,,,,,,,,,,,,,,,,,,,,,,,,,,,,,,,,,,,,,,,,,,,,,,,,,,,,,,,,,,,,,,,,,,,,,,,,,,,,,,
,,,,,,,,,,stimuli/images/PICTURE_68.png,MILE,59e3b0252f63d30001c8f6f9,06/08/1955,2020-09-10_09h46.42.989,proactive3.1,2020.1.2,Win32,60,5f599a131af4471f3d752b7b,5f5a2e0e7e4af20917851c62,2,,,,,,candle,,,,,,0,57,57,51,1,6,1,,,,,,,,,,,,,,,,,,,,,,,,,,,,,,,,,,,,,,,,,,,,,,,,,,,,,,,,,,,,,,,,,,,,,,,,,,,,,,,,,,,,,,,,,,,,,,,,,,,,,,,,,,,,
,,,,,,,,,,stimuli/images/PICTURE_667.png,RIVER,59e3b0252f63d30001c8f6f9,06/08/1955,2020-09-10_09h46.42.989,proactive3.1,2020.1.2,Win32,60,5f599a131af4471f3d752b7b,5f5a2e0e7e4af20917851c62,2,,,,,,daisy,,,,,,0,58,58,10,1,2,1,,,,,,,,,,,,,,,,,,,,,,,,,,,,,,,,,,,,,,,,,,,,,,,,,,,,,,,,,,,,,,,,,,,,,,,,,,,,,,,,,,,,,,,,,,,,,,,,,,,,,,,,,,,,
,,?,0.001,0,,,,,,stimuli/images/PICTURE_403.png,WRITER,59e3b0252f63d30001c8f6f9,06/08/1955,2020-09-10_09h46.42.989,proactive3.1,2020.1.2,Win32,60,5f599a131af4471f3d752b7b,5f5a2e0e7e4af20917851c62,2,,,,,,cathedral,,,,,,,,,,,4,1,0,0,0,31,1,,,,,,,,,,,,,,,,,,,,,,,,,,,,,,,,,,,,,,,,,,,,,,,,,,,,,,,,,,,,,,,,,,,,,,,,,,,,,,,,,,,,,,,,,,,,,,,,,,,,,,,
,,?,0.001,0,,,,,,stimuli/images/PICTURE_675.png,SALE,59e3b0252f63d30001c8f6f9,06/08/1955,2020-09-10_09h46.42.989,proactive3.1,2020.1.2,Win32,60,5f599a131af4471f3d752b7b,5f5a2e0e7e4af20917851c62,2,,,,,,windmill,,,,,,,,,,,5,1,0,1,1,47,1,,,,,,,,,,,,,,,,,,,,,,,,,,,,,,,,,,,,,,,,,,,,,,,,,,,,,,,,,,,,,,,,,,,,,,,,,,,,,,,,,,,,,,,,,,,,,,,,,,,,,,,
,,?,0.002,0,,,,,,stimuli/images/PICTURE_327.png,CASINO,59e3b0252f63d30001c8f6f9,06/08/1955,2020-09-10_09h46.42.989,proactive3.1,2020.1.2,Win32,60,5f599a131af4471f3d752b7b,5f5a2e0e7e4af20917851c62,2,,,,,,helmet,,,,,,,,,,,3,1,0,2,2,20,1,,,,,,,,,,,,,,,,,,,,,,,,,,,,,,,,,,,,,,,,,,,,,,,,,,,,,,,,,,,,,,,,,,,,,,,,,,,,,,,,,,,,,,,,,,,,,,,,,,,,,,,
,,?,0.001,0,,,,,,stimuli/images/PICTURE_147.png,WOMEN,59e3b0252f63d30001c8f6f9,06/08/1955,2020-09-10_09h46.42.989,proactive3.1,2020.1.2,Win32,60,5f599a131af4471f3d752b7b,5f5a2e0e7e4af20917851c62,2,,,,,,hanger,,,,,,,,,,,1,1,0,3,3,7,1,,,,,,,,,,,,,,,,,,,,,,,,,,,,,,,,,,,,,,,,,,,,,,,,,,,,,,,,,,,,,,,,,,,,,,,,,,,,,,,,,,,,,,,,,,,,,,,,,,,,,,,
,,?,0.001,0,,,,,,stimuli/images/PICTURE_308.png,FAMILY,59e3b0252f63d30001c8f6f9,06/08/1955,2020-09-10_09h46.42.989,proactive3.1,2020.1.2,Win32,60,5f599a131af4471f3d752b7b,5f5a2e0e7e4af20917851c62,2,,,,,,dice,,,,,,,,,,,4,1,0,4,4,36,1,,,,,,,,,,,,,,,,,,,,,,,,,,,,,,,,,,,,,,,,,,,,,,,,,,,,,,,,,,,,,,,,,,,,,,,,,,,,,,,,,,,,,,,,,,,,,,,,,,,,,,,
,,?,0.001,0,,,,,,stimuli/images/PICTURE_108.png,POLICY,59e3b0252f63d30001c8f6f9,06/08/1955,2020-09-10_09h46.42.989,proactive3.1,2020.1.2,Win32,60,5f599a131af4471f3d752b7b,5f5a2e0e7e4af20917851c62,2,,,,,,calendar,,,,,,,,,,,3,1,0,5,5,22,1,,,,,,,,,,,,,,,,,,,,,,,,,,,,,,,,,,,,,,,,,,,,,,,,,,,,,,,,,,,,,,,,,,,,,,,,,,,,,,,,,,,,,,,,,,,,,,,,,,,,,,,
,,?,0.001,0,,,,,,stimuli/images/PICTURE_487.png,GIRL,59e3b0252f63d30001c8f6f9,06/08/1955,2020-09-10_09h46.42.989,proactive3.1,2020.1.2,Win32,60,5f599a131af4471f3d752b7b,5f5a2e0e7e4af20917851c62,2,,,,,,basket,,,,,,,,,,,5,1,0,6,6,45,1,,,,,,,,,,,,,,,,,,,,,,,,,,,,,,,,,,,,,,,,,,,,,,,,,,,,,,,,,,,,,,,,,,,,,,,,,,,,,,,,,,,,,,,,,,,,,,,,,,,,,,,
,,?,0.001,0,,,,,,stimuli/images/PICTURE_95.png,HONEY,59e3b0252f63d30001c8f6f9,06/08/1955,2020-09-10_09h46.42.989,proactive3.1,2020.1.2,Win32,60,5f599a131af4471f3d752b7b,5f5a2e0e7e4af20917851c62,2,,,,,,suitcase,,,,,,,,,,,5,1,0,7,7,44,1,,,,,,,,,,,,,,,,,,,,,,,,,,,,,,,,,,,,,,,,,,,,,,,,,,,,,,,,,,,,,,,,,,,,,,,,,,,,,,,,,,,,,,,,,,,,,,,,,,,,,,,
,,?,0.001,0,,,,,,stimuli/images/PICTURE_504.png,COPS,59e3b0252f63d30001c8f6f9,06/08/1955,2020-09-10_09h46.42.989,proactive3.1,2020.1.2,Win32,60,5f599a131af4471f3d752b7b,5f5a2e0e7e4af20917851c62,2,,,,,,wheel,,,,,,,,,,,6,1,0,8,8,52,1,,,,,,,,,,,,,,,,,,,,,,,,,,,,,,,,,,,,,,,,,,,,,,,,,,,,,,,,,,,,,,,,,,,,,,,,,,,,,,,,,,,,,,,,,,,,,,,,,,,,,,,
,,?,0.001,0,,,,,,stimuli/images/PICTURE_383.png,WRITER,59e3b0252f63d30001c8f6f9,06/08/1955,2020-09-10_09h46.42.989,proactive3.1,2020.1.2,Win32,60,5f599a131af4471f3d752b7b,5f5a2e0e7e4af20917851c62,2,,,,,,coin,,,,,,,,,,,3,1,0,9,9,28,1,,,,,,,,,,,,,,,,,,,,,,,,,,,,,,,,,,,,,,,,,,,,,,,,,,,,,,,,,,,,,,,,,,,,,,,,,,,,,,,,,,,,,,,,,,,,,,,,,,,,,,,
,,?,0.001,0,,,,,,stimuli/images/PICTURE_208.png,SYSTEM,59e3b0252f63d30001c8f6f9,06/08/1955,2020-09-10_09h46.42.989,proactive3.1,2020.1.2,Win32,60,5f599a131af4471f3d752b7b,5f5a2e0e7e4af20917851c62,2,,,,,,microphone,,,,,,,,,,,4,1,0,10,10,32,1,,,,,,,,,,,,,,,,,,,,,,,,,,,,,,,,,,,,,,,,,,,,,,,,,,,,,,,,,,,,,,,,,,,,,,,,,,,,,,,,,,,,,,,,,,,,,,,,,,,,,,,
,,?,0.001,0,,,,,,stimuli/images/PICTURE_405.png,PLENTY,59e3b0252f63d30001c8f6f9,06/08/1955,2020-09-10_09h46.42.989,proactive3.1,2020.1.2,Win32,60,5f599a131af4471f3d752b7b,5f5a2e0e7e4af20917851c62,2,,,,,,anchor,,,,,,,,,,,3,1,0,11,11,23,1,,,,,,,,,,,,,,,,,,,,,,,,,,,,,,,,,,,,,,,,,,,,,,,,,,,,,,,,,,,,,,,,,,,,,,,,,,,,,,,,,,,,,,,,,,,,,,,,,,,,,,,
,,?,0.002,0,,,,,,stimuli/images/PICTURE_203.png,GODS,59e3b0252f63d30001c8f6f9,06/08/1955,2020-09-10_09h46.42.989,proactive3.1,2020.1.2,Win32,60,5f599a131af4471f3d752b7b,5f5a2e0e7e4af20917851c62,2,,,,,,cap,,,,,,,,,,,4,1,0,12,12,30,1,,,,,,,,,,,,,,,,,,,,,,,,,,,,,,,,,,,,,,,,,,,,,,,,,,,,,,,,,,,,,,,,,,,,,,,,,,,,,,,,,,,,,,,,,,,,,,,,,,,,,,,
,,?,0.001,0,,,,,,stimuli/images/PICTURE_677.png,APPLE,59e3b0252f63d30001c8f6f9,06/08/1955,2020-09-10_09h46.42.989,proactive3.1,2020.1.2,Win32,60,5f599a131af4471f3d752b7b,5f5a2e0e7e4af20917851c62,2,,,,,,map,,,,,,,,,,,5,1,0,13,13,43,1,,,,,,,,,,,,,,,,,,,,,,,,,,,,,,,,,,,,,,,,,,,,,,,,,,,,,,,,,,,,,,,,,,,,,,,,,,,,,,,,,,,,,,,,,,,,,,,,,,,,,,,
,,?,0.001,0,,,,,,stimuli/images/PICTURE_233.png,LOTS,59e3b0252f63d30001c8f6f9,06/08/1955,2020-09-10_09h46.42.989,proactive3.1,2020.1.2,Win32,60,5f599a131af4471f3d752b7b,5f5a2e0e7e4af20917851c62,2,,,,,,salt,,,,,,,,,,,5,1,0,14,14,42,1,,,,,,,,,,,,,,,,,,,,,,,,,,,,,,,,,,,,,,,,,,,,,,,,,,,,,,,,,,,,,,,,,,,,,,,,,,,,,,,,,,,,,,,,,,,,,,,,,,,,,,,
,,?,0.001,0,,,,,,stimuli/images/PICTURE_68.png,MILE,59e3b0252f63d30001c8f6f9,06/08/1955,2020-09-10_09h46.42.989,proactive3.1,2020.1.2,Win32,60,5f599a131af4471f3d752b7b,5f5a2e0e7e4af20917851c62,2,,,,,,candle,,,,,,,,,,,6,1,0,15,15,51,1,,,,,,,,,,,,,,,,,,,,,,,,,,,,,,,,,,,,,,,,,,,,,,,,,,,,,,,,,,,,,,,,,,,,,,,,,,,,,,,,,,,,,,,,,,,,,,,,,,,,,,,
,,YEAR,15.01,1,,,,,,stimuli/images/PICTURE_504.png,YEAR,59e3b0252f63d30001c8f6f9,06/08/1955,2020-09-10_09h46.42.989,proactive3.1,2020.1.2,Win32,60,5f599a131af4471f3d752b7b,5f5a2e0e7e4af20917851c62,2,,,,,,wheel,,,,,,,,,,,2,1,0,16,16,13,1,,,,,,,,,,,,,,,,,,,,,,,,,,,,,,,,,,,,,,,,,,,,,,,,,,,,,,,,,,,,,,,,,,,,,,,,,,,,,,,,,,,,,,,,,,,,,,,,,,,,,,,
,,?,0.001,0,,,,,,stimuli/images/PICTURE_685.png,PENNY,59e3b0252f63d30001c8f6f9,06/08/1955,2020-09-10_09h46.42.989,proactive3.1,2020.1.2,Win32,60,5f599a131af4471f3d752b7b,5f5a2e0e7e4af20917851c62,2,,,,,,goose,,,,,,,,,,,1,1,0,17,17,4,1,,,,,,,,,,,,,,,,,,,,,,,,,,,,,,,,,,,,,,,,,,,,,,,,,,,,,,,,,,,,,,,,,,,,,,,,,,,,,,,,,,,,,,,,,,,,,,,,,,,,,,,
,,?,0.001,0,,,,,,stimuli/images/PICTURE_403.png,RIVER,59e3b0252f63d30001c8f6f9,06/08/1955,2020-09-10_09h46.42.989,proactive3.1,2020.1.2,Win32,60,5f599a131af4471f3d752b7b,5f5a2e0e7e4af20917851c62,2,,,,,,cathedral,,,,,,,,,,,5,1,0,18,18,40,1,,,,,,,,,,,,,,,,,,,,,,,,,,,,,,,,,,,,,,,,,,,,,,,,,,,,,,,,,,,,,,,,,,,,,,,,,,,,,,,,,,,,,,,,,,,,,,,,,,,,,,,
,,?,0.001,0,,,,,,stimuli/images/PICTURE_467.png,POLICY,59e3b0252f63d30001c8f6f9,06/08/1955,2020-09-10_09h46.42.989,proactive3.1,2020.1.2,Win32,60,5f599a131af4471f3d752b7b,5f5a2e0e7e4af20917851c62,2,,,,,,peg,,,,,,,,,,,6,1,0,19,19,53,1,,,,,,,,,,,,,,,,,,,,,,,,,,,,,,,,,,,,,,,,,,,,,,,,,,,,,,,,,,,,,,,,,,,,,,,,,,,,,,,,,,,,,,,,,,,,,,,,,,,,,,,
,,?,0.001,0,,,,,,stimuli/images/PICTURE_85.png,TOILET,59e3b0252f63d30001c8f6f9,06/08/1955,2020-09-10_09h46.42.989,proactive3.1,2020.1.2,Win32,60,5f599a131af4471f3d752b7b,5f5a2e0e7e4af20917851c62,2,,,,,,diamond,,,,,,,,,,,5,1,0,20,20,48,1,,,,,,,,,,,,,,,,,,,,,,,,,,,,,,,,,,,,,,,,,,,,,,,,,,,,,,,,,,,,,,,,,,,,,,,,,,,,,,,,,,,,,,,,,,,,,,,,,,,,,,,
,,CLIENT,9.64,1,,,,,,stimuli/images/PICTURE_339.png,CLIENT,59e3b0252f63d30001c8f6f9,06/08/1955,2020-09-10_09h46.42.989,proactive3.1,2020.1.2,Win32,60,5f599a131af4471f3d752b7b,5f5a2e0e7e4af20917851c62,2,,,,,,backpack,,,,,,,,,,,2,1,0,21,21,11,1,,,,,,,,,,,,,,,,,,,,,,,,,,,,,,,,,,,,,,,,,,,,,,,,,,,,,,,,,,,,,,,,,,,,,,,,,,,,,,,,,,,,,,,,,,,,,,,,,,,,,,,
,,?,0.002,0,,,,,,stimuli/images/PICTURE_327.png,SERIES,59e3b0252f63d30001c8f6f9,06/08/1955,2020-09-10_09h46.42.989,proactive3.1,2020.1.2,Win32,60,5f599a131af4471f3d752b7b,5f5a2e0e7e4af20917851c62,2,,,,,,helmet,,,,,,,,,,,1,1,0,22,22,3,1,,,,,,,,,,,,,,,,,,,,,,,,,,,,,,,,,,,,,,,,,,,,,,,,,,,,,,,,,,,,,,,,,,,,,,,,,,,,,,,,,,,,,,,,,,,,,,,,,,,,,,,
,,?,0.002,0,,,,,,stimuli/images/PICTURE_108.png,FLIGHT,59e3b0252f63d30001c8f6f9,06/08/1955,2020-09-10_09h46.42.989,proactive3.1,2020.1.2,Win32,60,5f599a131af4471f3d752b7b,5f5a2e0e7e4af20917851c62,2,,,,,,calendar,,,,,,,,,,,6,1,0,23,23,59,1,,,,,,,,,,,,,,,,,,,,,,,,,,,,,,,,,,,,,,,,,,,,,,,,,,,,,,,,,,,,,,,,,,,,,,,,,,,,,,,,,,,,,,,,,,,,,,,,,,,,,,,
,,?,0.001,0,,,,,,stimuli/images/PICTURE_95.png,BOYS,59e3b0252f63d30001c8f6f9,06/08/1955,2020-09-10_09h46.42.989,proactive3.1,2020.1.2,Win32,60,5f599a131af4471f3d752b7b,5f5a2e0e7e4af20917851c62,2,,,,,,suitcase,,,,,,,,,,,1,1,0,24,24,1,1,,,,,,,,,,,,,,,,,,,,,,,,,,,,,,,,,,,,,,,,,,,,,,,,,,,,,,,,,,,,,,,,,,,,,,,,,,,,,,,,,,,,,,,,,,,,,,,,,,,,,,,
,,?,0.001,0,,,,,,stimuli/images/PICTURE_383.png,SERIES,59e3b0252f63d30001c8f6f9,06/08/1955,2020-09-10_09h46.42.989,proactive3.1,2020.1.2,Win32,60,5f599a131af4471f3d752b7b,5f5a2e0e7e4af20917851c62,2,,,,,,coin,,,,,,,,,,,5,1,0,25,25,46,1,,,,,,,,,,,,,,,,,,,,,,,,,,,,,,,,,,,,,,,,,,,,,,,,,,,,,,,,,,,,,,,,,,,,,,,,,,,,,,,,,,,,,,,,,,,,,,,,,,,,,,,
,,?,0.001,0,,,,,,stimuli/images/PICTURE_340.png,VALLEY,59e3b0252f63d30001c8f6f9,06/08/1955,2020-09-10_09h46.42.989,proactive3.1,2020.1.2,Win32,60,5f599a131af4471f3d752b7b,5f5a2e0e7e4af20917851c62,2,,,,,,mirror,,,,,,,,,,,6,1,0,26,26,54,1,,,,,,,,,,,,,,,,,,,,,,,,,,,,,,,,,,,,,,,,,,,,,,,,,,,,,,,,,,,,,,,,,,,,,,,,,,,,,,,,,,,,,,,,,,,,,,,,,,,,,,,
,,?,0.001,0,,,,,,stimuli/images/PICTURE_95.png,MILLER,59e3b0252f63d30001c8f6f9,06/08/1955,2020-09-10_09h46.42.989,proactive3.1,2020.1.2,Win32,60,5f599a131af4471f3d752b7b,5f5a2e0e7e4af20917851c62,2,,,,,,suitcase,,,,,,,,,,,6,1,0,27,27,56,1,,,,,,,,,,,,,,,,,,,,,,,,,,,,,,,,,,,,,,,,,,,,,,,,,,,,,,,,,,,,,,,,,,,,,,,,,,,,,,,,,,,,,,,,,,,,,,,,,,,,,,,
,,?,0.001,0,,,,,,stimuli/images/PICTURE_504.png,ARTIST,59e3b0252f63d30001c8f6f9,06/08/1955,2020-09-10_09h46.42.989,proactive3.1,2020.1.2,Win32,60,5f599a131af4471f3d752b7b,5f5a2e0e7e4af20917851c62,2,,,,,,wheel,,,,,,,,,,,5,1,0,28,28,49,1,,,,,,,,,,,,,,,,,,,,,,,,,,,,,,,,,,,,,,,,,,,,,,,,,,,,,,,,,,,,,,,,,,,,,,,,,,,,,,,,,,,,,,,,,,,,,,,,,,,,,,,
,,GLASS,5.138,1,,,,,,stimuli/images/PICTURE_491.png,GLASS,59e3b0252f63d30001c8f6f9,06/08/1955,2020-09-10_09h46.42.989,proactive3.1,2020.1.2,Win32,60,5f599a131af4471f3d752b7b,5f5a2e0e7e4af20917851c62,2,,,,,,rug,,,,,,,,,,,2,1,0,29,29,14,1,,,,,,,,,,,,,,,,,,,,,,,,,,,,,,,,,,,,,,,,,,,,,,,,,,,,,,,,,,,,,,,,,,,,,,,,,,,,,,,,,,,,,,,,,,,,,,,,,,,,,,,
,,TOILET,13.448,1,,,,,,stimuli/images/PICTURE_655.png,TOILET,59e3b0252f63d30001c8f6f9,06/08/1955,2020-09-10_09h46.42.989,proactive3.1,2020.1.2,Win32,60,5f599a131af4471f3d752b7b,5f5a2e0e7e4af20917851c62,2,,,,,,megaphone,,,,,,,,,,,2,1,0,30,30,12,1,,,,,,,,,,,,,,,,,,,,,,,,,,,,,,,,,,,,,,,,,,,,,,,,,,,,,,,,,,,,,,,,,,,,,,,,,,,,,,,,,,,,,,,,,,,,,,,,,,,,,,,
,,?,0.001,0,,,,,,stimuli/images/PICTURE_57.png,MOMENT,59e3b0252f63d30001c8f6f9,06/08/1955,2020-09-10_09h46.42.989,proactive3.1,2020.1.2,Win32,60,5f599a131af4471f3d752b7b,5f5a2e0e7e4af20917851c62,2,,,,,,stamp,,,,,,,,,,,4,1,0,31,31,37,1,,,,,,,,,,,,,,,,,,,,,,,,,,,,,,,,,,,,,,,,,,,,,,,,,,,,,,,,,,,,,,,,,,,,,,,,,,,,,,,,,,,,,,,,,,,,,,,,,,,,,,,
,,?,0.001,0,,,,,,stimuli/images/PICTURE_403.png,TOILET,59e3b0252f63d30001c8f6f9,06/08/1955,2020-09-10_09h46.42.989,proactive3.1,2020.1.2,Win32,60,5f599a131af4471f3d752b7b,5f5a2e0e7e4af20917851c62,2,,,,,,cathedral,,,,,,,,,,,3,1,0,32,32,25,1,,,,,,,,,,,,,,,,,,,,,,,,,,,,,,,,,,,,,,,,,,,,,,,,,,,,,,,,,,,,,,,,,,,,,,,,,,,,,,,,,,,,,,,,,,,,,,,,,,,,,,,
,,?,0.001,0,,,,,,stimuli/images/PICTURE_296.png,LOTS,59e3b0252f63d30001c8f6f9,06/08/1955,2020-09-10_09h46.42.989,proactive3.1,2020.1.2,Win32,60,5f599a131af4471f3d752b7b,5f5a2e0e7e4af20917851c62,2,,,,,,bolt,,,,,,,,,,,1,1,0,33,33,9,1,,,,,,,,,,,,,,,,,,,,,,,,,,,,,,,,,,,,,,,,,,,,,,,,,,,,,,,,,,,,,,,,,,,,,,,,,,,,,,,,,,,,,,,,,,,,,,,,,,,,,,,
,,?,0.001,0,,,,,,stimuli/images/PICTURE_564.png,BATH,59e3b0252f63d30001c8f6f9,06/08/1955,2020-09-10_09h46.42.989,proactive3.1,2020.1.2,Win32,60,5f599a131af4471f3d752b7b,5f5a2e0e7e4af20917851c62,2,,,,,,spoon,,,,,,,,,,,3,1,0,34,34,26,1,,,,,,,,,,,,,,,,,,,,,,,,,,,,,,,,,,,,,,,,,,,,,,,,,,,,,,,,,,,,,,,,,,,,,,,,,,,,,,,,,,,,,,,,,,,,,,,,,,,,,,,
,,?,0.001,0,,,,,,stimuli/images/PICTURE_744.png,WEAPON,59e3b0252f63d30001c8f6f9,06/08/1955,2020-09-10_09h46.42.989,proactive3.1,2020.1.2,Win32,60,5f599a131af4471f3d752b7b,5f5a2e0e7e4af20917851c62,2,,,,,,ring,,,,,,,,,,,6,1,0,35,35,50,1,,,,,,,,,,,,,,,,,,,,,,,,,,,,,,,,,,,,,,,,,,,,,,,,,,,,,,,,,,,,,,,,,,,,,,,,,,,,,,,,,,,,,,,,,,,,,,,,,,,,,,,
,,PILLS,5.632,1,,,,,,stimuli/images/PICTURE_32.png,PILLS,59e3b0252f63d30001c8f6f9,06/08/1955,2020-09-10_09h46.42.989,proactive3.1,2020.1.2,Win32,60,5f599a131af4471f3d752b7b,5f5a2e0e7e4af20917851c62,2,,,,,,crown,,,,,,,,,,,2,1,0,36,36,18,1,,,,,,,,,,,,,,,,,,,,,,,,,,,,,,,,,,,,,,,,,,,,,,,,,,,,,,,,,,,,,,,,,,,,,,,,,,,,,,,,,,,,,,,,,,,,,,,,,,,,,,,
,,?,0.002,0,,,,,,stimuli/images/PICTURE_203.png,NIGHT,59e3b0252f63d30001c8f6f9,06/08/1955,2020-09-10_09h46.42.989,proactive3.1,2020.1.2,Win32,60,5f599a131af4471f3d752b7b,5f5a2e0e7e4af20917851c62,2,,,,,,cap,,,,,,,,,,,1,1,0,37,37,2,1,,,,,,,,,,,,,,,,,,,,,,,,,,,,,,,,,,,,,,,,,,,,,,,,,,,,,,,,,,,,,,,,,,,,,,,,,,,,,,,,,,,,,,,,,,,,,,,,,,,,,,,
,,?,0.001,0,,,,,,stimuli/images/PICTURE_285.png,LIFE,59e3b0252f63d30001c8f6f9,06/08/1955,2020-09-10_09h46.42.989,proactive3.1,2020.1.2,Win32,60,5f599a131af4471f3d752b7b,5f5a2e0e7e4af20917851c62,2,,,,,,carrot,,,,,,,,,,,4,1,0,38,38,33,1,,,,,,,,,,,,,,,,,,,,,,,,,,,,,,,,,,,,,,,,,,,,,,,,,,,,,,,,,,,,,,,,,,,,,,,,,,,,,,,,,,,,,,,,,,,,,,,,,,,,,,,
,,DUDE,12.091,0,,,,,,stimuli/images/PICTURE_667.png,RIVER,59e3b0252f63d30001c8f6f9,06/08/1955,2020-09-10_09h46.42.989,proactive3.1,2020.1.2,Win32,60,5f599a131af4471f3d752b7b,5f5a2e0e7e4af20917851c62,2,,,,,,daisy,,,,,,,,,,,2,1,0,39,39,10,1,,,,,,,,,,,,,,,,,,,,,,,,,,,,,,,,,,,,,,,,,,,,,,,,,,,,,,,,,,,,,,,,,,,,,,,,,,,,,,,,,,,,,,,,,,,,,,,,,,,,,,,
,,FLIGHT,5.355,1,,,,,,stimuli/images/PICTURE_2.png,FLIGHT,59e3b0252f63d30001c8f6f9,06/08/1955,2020-09-10_09h46.42.989,proactive3.1,2020.1.2,Win32,60,5f599a131af4471f3d752b7b,5f5a2e0e7e4af20917851c62,2,,,,,,tyre,,,,,,,,,,,2,1,0,40,40,15,1,,,,,,,,,,,,,,,,,,,,,,,,,,,,,,,,,,,,,,,,,,,,,,,,,,,,,,,,,,,,,,,,,,,,,,,,,,,,,,,,,,,,,,,,,,,,,,,,,,,,,,,
,,HONEY,8.336,1,,,,,,stimuli/images/PICTURE_380.png,HONEY,59e3b0252f63d30001c8f6f9,06/08/1955,2020-09-10_09h46.42.989,proactive3.1,2020.1.2,Win32,60,5f599a131af4471f3d752b7b,5f5a2e0e7e4af20917851c62,2,,,,,,gorilla,,,,,,,,,,,2,1,0,41,41,19,1,,,,,,,,,,,,,,,,,,,,,,,,,,,,,,,,,,,,,,,,,,,,,,,,,,,,,,,,,,,,,,,,,,,,,,,,,,,,,,,,,,,,,,,,,,,,,,,,,,,,,,,
,,AGENT,4.456,1,,,,,,stimuli/images/PICTURE_469.png,AGENT,59e3b0252f63d30001c8f6f9,06/08/1955,2020-09-10_09h46.42.989,proactive3.1,2020.1.2,Win32,60,5f599a131af4471f3d752b7b,5f5a2e0e7e4af20917851c62,2,,,,,,stool,,,,,,,,,,,2,1,0,42,42,16,1,,,,,,,,,,,,,,,,,,,,,,,,,,,,,,,,,,,,,,,,,,,,,,,,,,,,,,,,,,,,,,,,,,,,,,,,,,,,,,,,,,,,,,,,,,,,,,,,,,,,,,,
,,?,0.002,0,,,,,,stimuli/images/PICTURE_32.png,KIND,59e3b0252f63d30001c8f6f9,06/08/1955,2020-09-10_09h46.42.989,proactive3.1,2020.1.2,Win32,60,5f599a131af4471f3d752b7b,5f5a2e0e7e4af20917851c62,2,,,,,,crown,,,,,,,,,,,4,1,0,43,43,35,1,,,,,,,,,,,,,,,,,,,,,,,,,,,,,,,,,,,,,,,,,,,,,,,,,,,,,,,,,,,,,,,,,,,,,,,,,,,,,,,,,,,,,,,,,,,,,,,,,,,,,,,
,,?,0.001,0,,,,,,stimuli/images/PICTURE_405.png,YEAR,59e3b0252f63d30001c8f6f9,06/08/1955,2020-09-10_09h46.42.989,proactive3.1,2020.1.2,Win32,60,5f599a131af4471f3d752b7b,5f5a2e0e7e4af20917851c62,2,,,,,,anchor,,,,,,,,,,,4,1,0,44,44,34,1,,,,,,,,,,,,,,,,,,,,,,,,,,,,,,,,,,,,,,,,,,,,,,,,,,,,,,,,,,,,,,,,,,,,,,,,,,,,,,,,,,,,,,,,,,,,,,,,,,,,,,,
,,?,0.001,0,,,,,,stimuli/images/PICTURE_750.png,HOTEL,59e3b0252f63d30001c8f6f9,06/08/1955,2020-09-10_09h46.42.989,proactive3.1,2020.1.2,Win32,60,5f599a131af4471f3d752b7b,5f5a2e0e7e4af20917851c62,2,,,,,,kettle,,,,,,,,,,,3,1,0,45,45,27,1,,,,,,,,,,,,,,,,,,,,,,,,,,,,,,,,,,,,,,,,,,,,,,,,,,,,,,,,,,,,,,,,,,,,,,,,,,,,,,,,,,,,,,,,,,,,,,,,,,,,,,,
,,?,0.001,0,,,,,,stimuli/images/PICTURE_296.png,LIFE,59e3b0252f63d30001c8f6f9,06/08/1955,2020-09-10_09h46.42.989,proactive3.1,2020.1.2,Win32,60,5f599a131af4471f3d752b7b,5f5a2e0e7e4af20917851c62,2,,,,,,bolt,,,,,,,,,,,6,1,0,46,46,57,1,,,,,,,,,,,,,,,,,,,,,,,,,,,,,,,,,,,,,,,,,,,,,,,,,,,,,,,,,,,,,,,,,,,,,,,,,,,,,,,,,,,,,,,,,,,,,,,,,,,,,,,
,,?,0.002,0,,,,,,stimuli/images/PICTURE_68.png,ROOF,59e3b0252f63d30001c8f6f9,06/08/1955,2020-09-10_09h46.42.989,proactive3.1,2020.1.2,Win32,60,5f599a131af4471f3d752b7b,5f5a2e0e7e4af20917851c62,2,,,,,,candle,,,,,,,,,,,4,1,0,47,47,38,1,,,,,,,,,,,,,,,,,,,,,,,,,,,,,,,,,,,,,,,,,,,,,,,,,,,,,,,,,,,,,,,,,,,,,,,,,,,,,,,,,,,,,,,,,,,,,,,,,,,,,,,
,,?,0.001,0,,,,,,stimuli/images/PICTURE_708.png,RECORD,59e3b0252f63d30001c8f6f9,06/08/1955,2020-09-10_09h46.42.989,proactive3.1,2020.1.2,Win32,60,5f599a131af4471f3d752b7b,5f5a2e0e7e4af20917851c62,2,,,,,,monkey,,,,,,,,,,,6,1,0,48,48,58,1,,,,,,,,,,,,,,,,,,,,,,,,,,,,,,,,,,,,,,,,,,,,,,,,,,,,,,,,,,,,,,,,,,,,,,,,,,,,,,,,,,,,,,,,,,,,,,,,,,,,,,,
,,DUDE,2.402,1,,,,,,stimuli/images/PICTURE_449.png,DUDE,59e3b0252f63d30001c8f6f9,06/08/1955,2020-09-10_09h46.42.989,proactive3.1,2020.1.2,Win32,60,5f599a131af4471f3d752b7b,5f5a2e0e7e4af20917851c62,2,,,,,,bench,,,,,,,,,,,2,1,0,49,49,17,1,,,,,,,,,,,,,,,,,,,,,,,,,,,,,,,,,,,,,,,,,,,,,,,,,,,,,,,,,,,,,,,,,,,,,,,,,,,,,,,,,,,,,,,,,,,,,,,,,,,,,,,
,,?,0.001,0,,,,,,stimuli/images/PICTURE_340.png,LETTER,59e3b0252f63d30001c8f6f9,06/08/1955,2020-09-10_09h46.42.989,proactive3.1,2020.1.2,Win32,60,5f599a131af4471f3d752b7b,5f5a2e0e7e4af20917851c62,2,,,,,,mirror,,,,,,,,,,,3,1,0,50,50,24,1,,,,,,,,,,,,,,,,,,,,,,,,,,,,,,,,,,,,,,,,,,,,,,,,,,,,,,,,,,,,,,,,,,,,,,,,,,,,,,,,,,,,,,,,,,,,,,,,,,,,,,,
,,?,0.002,0,,,,,,stimuli/images/PICTURE_33.png,FRIEND,59e3b0252f63d30001c8f6f9,06/08/1955,2020-09-10_09h46.42.989,proactive3.1,2020.1.2,Win32,60,5f599a131af4471f3d752b7b,5f5a2e0e7e4af20917851c62,2,,,,,,frame,,,,,,,,,,,1,1,0,51,51,8,1,,,,,,,,,,,,,,,,,,,,,,,,,,,,,,,,,,,,,,,,,,,,,,,,,,,,,,,,,,,,,,,,,,,,,,,,,,,,,,,,,,,,,,,,,,,,,,,,,,,,,,,
,,?,0.002,0,,,,,,stimuli/images/PICTURE_380.png,CANDY,59e3b0252f63d30001c8f6f9,06/08/1955,2020-09-10_09h46.42.989,proactive3.1,2020.1.2,Win32,60,5f599a131af4471f3d752b7b,5f5a2e0e7e4af20917851c62,2,,,,,,gorilla,,,,,,,,,,,1,1,0,52,52,0,1,,,,,,,,,,,,,,,,,,,,,,,,,,,,,,,,,,,,,,,,,,,,,,,,,,,,,,,,,,,,,,,,,,,,,,,,,,,,,,,,,,,,,,,,,,,,,,,,,,,,,,,
,,?,0.001,0,,,,,,stimuli/images/PICTURE_491.png,RIVER,59e3b0252f63d30001c8f6f9,06/08/1955,2020-09-10_09h46.42.989,proactive3.1,2020.1.2,Win32,60,5f599a131af4471f3d752b7b,5f5a2e0e7e4af20917851c62,2,,,,,,rug,,,,,,,,,,,1,1,0,53,53,6,1,,,,,,,,,,,,,,,,,,,,,,,,,,,,,,,,,,,,,,,,,,,,,,,,,,,,,,,,,,,,,,,,,,,,,,,,,,,,,,,,,,,,,,,,,,,,,,,,,,,,,,,
,,?,0.001,0,,,,,,stimuli/images/PICTURE_654.png,MONTH,59e3b0252f63d30001c8f6f9,06/08/1955,2020-09-10_09h46.42.989,proactive3.1,2020.1.2,Win32,60,5f599a131af4471f3d752b7b,5f5a2e0e7e4af20917851c62,2,,,,,,pencil,,,,,,,,,,,3,1,0,54,54,29,1,,,,,,,,,,,,,,,,,,,,,,,,,,,,,,,,,,,,,,,,,,,,,,,,,,,,,,,,,,,,,,,,,,,,,,,,,,,,,,,,,,,,,,,,,,,,,,,,,,,,,,,
,,?,0.001,0,,,,,,stimuli/images/PICTURE_42.png,BOYS,59e3b0252f63d30001c8f6f9,06/08/1955,2020-09-10_09h46.42.989,proactive3.1,2020.1.2,Win32,60,5f599a131af4471f3d752b7b,5f5a2e0e7e4af20917851c62,2,,,,,,pear,,,,,,,,,,,6,1,0,55,55,55,1,,,,,,,,,,,,,,,,,,,,,,,,,,,,,,,,,,,,,,,,,,,,,,,,,,,,,,,,,,,,,,,,,,,,,,,,,,,,,,,,,,,,,,,,,,,,,,,,,,,,,,,
,,?,0.001,0,,,,,,stimuli/images/PICTURE_147.png,YEAR,59e3b0252f63d30001c8f6f9,06/08/1955,2020-09-10_09h46.42.989,proactive3.1,2020.1.2,Win32,60,5f599a131af4471f3d752b7b,5f5a2e0e7e4af20917851c62,2,,,,,,hanger,,,,,,,,,,,3,1,0,56,56,21,1,,,,,,,,,,,,,,,,,,,,,,,,,,,,,,,,,,,,,,,,,,,,,,,,,,,,,,,,,,,,,,,,,,,,,,,,,,,,,,,,,,,,,,,,,,,,,,,,,,,,,,,
,,?,0.001,0,,,,,,stimuli/images/PICTURE_85.png,NATION,59e3b0252f63d30001c8f6f9,06/08/1955,2020-09-10_09h46.42.989,proactive3.1,2020.1.2,Win32,60,5f599a131af4471f3d752b7b,5f5a2e0e7e4af20917851c62,2,,,,,,diamond,,,,,,,,,,,1,1,0,57,57,5,1,,,,,,,,,,,,,,,,,,,,,,,,,,,,,,,,,,,,,,,,,,,,,,,,,,,,,,,,,,,,,,,,,,,,,,,,,,,,,,,,,,,,,,,,,,,,,,,,,,,,,,,
,,?,0.001,0,,,,,,stimuli/images/PICTURE_297.png,RIVER,59e3b0252f63d30001c8f6f9,06/08/1955,2020-09-10_09h46.42.989,proactive3.1,2020.1.2,Win32,60,5f599a131af4471f3d752b7b,5f5a2e0e7e4af20917851c62,2,,,,,,aeroplane,,,,,,,,,,,4,1,0,58,58,39,1,,,,,,,,,,,,,,,,,,,,,,,,,,,,,,,,,,,,,,,,,,,,,,,,,,,,,,,,,,,,,,,,,,,,,,,,,,,,,,,,,,,,,,,,,,,,,,,,,,,,,,,
,,?,0.001,0,,,,,,stimuli/images/PICTURE_177.png,WRITER,59e3b0252f63d30001c8f6f9,06/08/1955,2020-09-10_09h46.42.989,proactive3.1,2020.1.2,Win32,60,5f599a131af4471f3d752b7b,5f5a2e0e7e4af20917851c62,2,,,,,,mushroom,,,,,,,,,,,5,1,0,59,59,41,1,,,,,,,,,,,,,,,,,,,,,,,,,,,,,,,,,,,,,,,,,,,,,,,,,,,,,,,,,,,,,,,,,,,,,,,,,,,,,,,,,,,,,,,,,,,,,,,,,,,,,,,
,,,,,,,,,,,,59e3b0252f63d30001c8f6f9,06/08/1955,2020-09-10_09h46.42.989,proactive3.1,2020.1.2,Win32,60,5f599a131af4471f3d752b7b,5f5a2e0e7e4af20917851c62,2,,,,,,,,,,,,,,,,,,,,,,,,0,1,1,1,1,stimuli/learn-block2.csv,,,,,,,,,,,,,,,,,,,,,,,,,,,,,,,,,,,,,,,,,,,,,,,,,,,,,,,,,,,,,,,,,,,,,,,,,,,,,,,,,,,,,,,,,,,,,,,,,
,,,,,,,,,,stimuli/images/PICTURE_403.png,FAMILY,59e3b0252f63d30001c8f6f9,06/08/1955,2020-09-10_09h46.42.989,proactive3.1,2020.1.2,Win32,60,5f599a131af4471f3d752b7b,5f5a2e0e7e4af20917851c62,2,,,,,,cathedral,,,,,,0,0,0,9,1,1,2,,,,,,,,,,,,,,,,,,,,,,,,,,,,,,,,,,,,,,,,,,,,,,,,,,,,,,,,,,,,,,,,,,,,,,,,,,,,,,,,,,,,,,,,,,,,,,,,,,,,,,,,,,,,
,,,,,,,,,,stimuli/images/PICTURE_215.png,BOYS,59e3b0252f63d30001c8f6f9,06/08/1955,2020-09-10_09h46.42.989,proactive3.1,2020.1.2,Win32,60,5f599a131af4471f3d752b7b,5f5a2e0e7e4af20917851c62,2,,,,,,boot,,,,,,0,1,1,24,1,3,2,,,,,,,,,,,,,,,,,,,,,,,,,,,,,,,,,,,,,,,,,,,,,,,,,,,,,,,,,,,,,,,,,,,,,,,,,,,,,,,,,,,,,,,,,,,,,,,,,,,,,,,,,,,,
,,,,,,,,,,stimuli/images/PICTURE_285.png,PRINCE,59e3b0252f63d30001c8f6f9,06/08/1955,2020-09-10_09h46.42.989,proactive3.1,2020.1.2,Win32,60,5f599a131af4471f3d752b7b,5f5a2e0e7e4af20917851c62,2,,,,,,carrot,,,,,,0,2,2,20,1,3,2,,,,,,,,,,,,,,,,,,,,,,,,,,,,,,,,,,,,,,,,,,,,,,,,,,,,,,,,,,,,,,,,,,,,,,,,,,,,,,,,,,,,,,,,,,,,,,,,,,,,,,,,,,,,
,,,,,,,,,,stimuli/images/PICTURE_57.png,CASINO,59e3b0252f63d30001c8f6f9,06/08/1955,2020-09-10_09h46.42.989,proactive3.1,2020.1.2,Win32,60,5f599a131af4471f3d752b7b,5f5a2e0e7e4af20917851c62,2,,,,,,stamp,,,,,,0,3,3,12,1,2,2,,,,,,,,,,,,,,,,,,,,,,,,,,,,,,,,,,,,,,,,,,,,,,,,,,,,,,,,,,,,,,,,,,,,,,,,,,,,,,,,,,,,,,,,,,,,,,,,,,,,,,,,,,,,
,,,,,,,,,,stimuli/images/PICTURE_564.png,PLENTY,59e3b0252f63d30001c8f6f9,06/08/1955,2020-09-10_09h46.42.989,proactive3.1,2020.1.2,Win32,60,5f599a131af4471f3d752b7b,5f5a2e0e7e4af20917851c62,2,,,,,,spoon,,,,,,0,4,4,11,1,2,2,,,,,,,,,,,,,,,,,,,,,,,,,,,,,,,,,,,,,,,,,,,,,,,,,,,,,,,,,,,,,,,,,,,,,,,,,,,,,,,,,,,,,,,,,,,,,,,,,,,,,,,,,,,,
,,,,,,,,,,stimuli/images/PICTURE_18.png,RIVER,59e3b0252f63d30001c8f6f9,06/08/1955,2020-09-10_09h46.42.989,proactive3.1,2020.1.2,Win32,60,5f599a131af4471f3d752b7b,5f5a2e0e7e4af20917851c62,2,,,,,,planet,,,,,,0,5,5,22,1,3,2,,,,,,,,,,,,,,,,,,,,,,,,,,,,,,,,,,,,,,,,,,,,,,,,,,,,,,,,,,,,,,,,,,,,,,,,,,,,,,,,,,,,,,,,,,,,,,,,,,,,,,,,,,,,
,,,,,,,,,,stimuli/images/PICTURE_708.png,VALLEY,59e3b0252f63d30001c8f6f9,06/08/1955,2020-09-10_09h46.42.989,proactive3.1,2020.1.2,Win32,60,5f599a131af4471f3d752b7b,5f5a2e0e7e4af20917851c62,2,,,,,,monkey,,,,,,0,6,6,45,1,5,2,,,,,,,,,,,,,,,,,,,,,,,,,,,,,,,,,,,,,,,,,,,,,,,,,,,,,,,,,,,,,,,,,,,,,,,,,,,,,,,,,,,,,,,,,,,,,,,,,,,,,,,,,,,,
,,,,,,,,,,stimuli/images/PICTURE_688.png,CLOCK,59e3b0252f63d30001c8f6f9,06/08/1955,2020-09-10_09h46.42.989,proactive3.1,2020.1.2,Win32,60,5f599a131af4471f3d752b7b,5f5a2e0e7e4af20917851c62,2,,,,,,runner,,,,,,0,7,7,42,1,5,2,,,,,,,,,,,,,,,,,,,,,,,,,,,,,,,,,,,,,,,,,,,,,,,,,,,,,,,,,,,,,,,,,,,,,,,,,,,,,,,,,,,,,,,,,,,,,,,,,,,,,,,,,,,,
,,,,,,,,,,stimuli/images/PICTURE_470.png,MOMENT,59e3b0252f63d30001c8f6f9,06/08/1955,2020-09-10_09h46.42.989,proactive3.1,2020.1.2,Win32,60,5f599a131af4471f3d752b7b,5f5a2e0e7e4af20917851c62,2,,,,,,motorbike,,,,,,0,8,8,40,1,5,2,,,,,,,,,,,,,,,,,,,,,,,,,,,,,,,,,,,,,,,,,,,,,,,,,,,,,,,,,,,,,,,,,,,,,,,,,,,,,,,,,,,,,,,,,,,,,,,,,,,,,,,,,,,,
,,,,,,,,,,stimuli/images/PICTURE_750.png,POLICY,59e3b0252f63d30001c8f6f9,06/08/1955,2020-09-10_09h46.42.989,proactive3.1,2020.1.2,Win32,60,5f599a131af4471f3d752b7b,5f5a2e0e7e4af20917851c62,2,,,,,,kettle,,,,,,0,9,9,44,1,5,2,,,,,,,,,,,,,,,,,,,,,,,,,,,,,,,,,,,,,,,,,,,,,,,,,,,,,,,,,,,,,,,,,,,,,,,,,,,,,,,,,,,,,,,,,,,,,,,,,,,,,,,,,,,,
,,,,,,,,,,stimuli/images/PICTURE_348.png,TOILET,59e3b0252f63d30001c8f6f9,06/08/1955,2020-09-10_09h46.42.989,proactive3.1,2020.1.2,Win32,60,5f599a131af4471f3d752b7b,5f5a2e0e7e4af20917851c62,2,,,,,,pepper,,,,,,0,10,10,4,1,1,2,,,,,,,,,,,,,,,,,,,,,,,,,,,,,,,,,,,,,,,,,,,,,,,,,,,,,,,,,,,,,,,,,,,,,,,,,,,,,,,,,,,,,,,,,,,,,,,,,,,,,,,,,,,,
,,,,,,,,,,stimuli/images/PICTURE_215.png,LEADER,59e3b0252f63d30001c8f6f9,06/08/1955,2020-09-10_09h46.42.989,proactive3.1,2020.1.2,Win32,60,5f599a131af4471f3d752b7b,5f5a2e0e7e4af20917851c62,2,,,,,,boot,,,,,,0,11,11,43,1,5,2,,,,,,,,,,,,,,,,,,,,,,,,,,,,,,,,,,,,,,,,,,,,,,,,,,,,,,,,,,,,,,,,,,,,,,,,,,,,,,,,,,,,,,,,,,,,,,,,,,,,,,,,,,,,
,,,,,,,,,,stimuli/images/PICTURE_123.png,SALE,59e3b0252f63d30001c8f6f9,06/08/1955,2020-09-10_09h46.42.989,proactive3.1,2020.1.2,Win32,60,5f599a131af4471f3d752b7b,5f5a2e0e7e4af20917851c62,2,,,,,,dart,,,,,,0,12,12,8,1,1,2,,,,,,,,,,,,,,,,,,,,,,,,,,,,,,,,,,,,,,,,,,,,,,,,,,,,,,,,,,,,,,,,,,,,,,,,,,,,,,,,,,,,,,,,,,,,,,,,,,,,,,,,,,,,
,,,,,,,,,,stimuli/images/PICTURE_296.png,CLOCK,59e3b0252f63d30001c8f6f9,06/08/1955,2020-09-10_09h46.42.989,proactive3.1,2020.1.2,Win32,60,5f599a131af4471f3d752b7b,5f5a2e0e7e4af20917851c62,2,,,,,,bolt,,,,,,0,13,13,18,1,2,2,,,,,,,,,,,,,,,,,,,,,,,,,,,,,,,,,,,,,,,,,,,,,,,,,,,,,,,,,,,,,,,,,,,,,,,,,,,,,,,,,,,,,,,,,,,,,,,,,,,,,,,,,,,,
,,,,,,,,,,stimuli/images/PICTURE_160.png,HOTEL,59e3b0252f63d30001c8f6f9,06/08/1955,2020-09-10_09h46.42.989,proactive3.1,2020.1.2,Win32,60,5f599a131af4471f3d752b7b,5f5a2e0e7e4af20917851c62,2,,,,,,wheelbarrow,,,,,,0,14,14,16,1,2,2,,,,,,,,,,,,,,,,,,,,,,,,,,,,,,,,,,,,,,,,,,,,,,,,,,,,,,,,,,,,,,,,,,,,,,,,,,,,,,,,,,,,,,,,,,,,,,,,,,,,,,,,,,,,
,,,,,,,,,,stimuli/images/PICTURE_491.png,SERIES,59e3b0252f63d30001c8f6f9,06/08/1955,2020-09-10_09h46.42.989,proactive3.1,2020.1.2,Win32,60,5f599a131af4471f3d752b7b,5f5a2e0e7e4af20917851c62,2,,,,,,rug,,,,,,0,15,15,39,1,4,2,,,,,,,,,,,,,,,,,,,,,,,,,,,,,,,,,,,,,,,,,,,,,,,,,,,,,,,,,,,,,,,,,,,,,,,,,,,,,,,,,,,,,,,,,,,,,,,,,,,,,,,,,,,,
,,,,,,,,,,stimuli/images/PICTURE_654.png,COPS,59e3b0252f63d30001c8f6f9,06/08/1955,2020-09-10_09h46.42.989,proactive3.1,2020.1.2,Win32,60,5f599a131af4471f3d752b7b,5f5a2e0e7e4af20917851c62,2,,,,,,pencil,,,,,,0,16,16,10,1,2,2,,,,,,,,,,,,,,,,,,,,,,,,,,,,,,,,,,,,,,,,,,,,,,,,,,,,,,,,,,,,,,,,,,,,,,,,,,,,,,,,,,,,,,,,,,,,,,,,,,,,,,,,,,,,
,,,,,,,,,,stimuli/images/PICTURE_297.png,BODY,59e3b0252f63d30001c8f6f9,06/08/1955,2020-09-10_09h46.42.989,proactive3.1,2020.1.2,Win32,60,5f599a131af4471f3d752b7b,5f5a2e0e7e4af20917851c62,2,,,,,,aeroplane,,,,,,0,17,17,51,1,6,2,,,,,,,,,,,,,,,,,,,,,,,,,,,,,,,,,,,,,,,,,,,,,,,,,,,,,,,,,,,,,,,,,,,,,,,,,,,,,,,,,,,,,,,,,,,,,,,,,,,,,,,,,,,,
,,,,,,,,,,stimuli/images/PICTURE_208.png,SPIRIT,59e3b0252f63d30001c8f6f9,06/08/1955,2020-09-10_09h46.42.989,proactive3.1,2020.1.2,Win32,60,5f599a131af4471f3d752b7b,5f5a2e0e7e4af20917851c62,2,,,,,,microphone,,,,,,0,18,18,28,1,3,2,,,,,,,,,,,,,,,,,,,,,,,,,,,,,,,,,,,,,,,,,,,,,,,,,,,,,,,,,,,,,,,,,,,,,,,,,,,,,,,,,,,,,,,,,,,,,,,,,,,,,,,,,,,,
,,,,,,,,,,stimuli/images/PICTURE_57.png,CANDY,59e3b0252f63d30001c8f6f9,06/08/1955,2020-09-10_09h46.42.989,proactive3.1,2020.1.2,Win32,60,5f599a131af4471f3d752b7b,5f5a2e0e7e4af20917851c62,2,,,,,,stamp,,,,,,0,19,19,52,1,6,2,,,,,,,,,,,,,,,,,,,,,,,,,,,,,,,,,,,,,,,,,,,,,,,,,,,,,,,,,,,,,,,,,,,,,,,,,,,,,,,,,,,,,,,,,,,,,,,,,,,,,,,,,,,,
,,,,,,,,,,stimuli/images/PICTURE_470.png,BEAUTY,59e3b0252f63d30001c8f6f9,06/08/1955,2020-09-10_09h46.42.989,proactive3.1,2020.1.2,Win32,60,5f599a131af4471f3d752b7b,5f5a2e0e7e4af20917851c62,2,,,,,,motorbike,,,,,,0,20,20,26,1,3,2,,,,,,,,,,,,,,,,,,,,,,,,,,,,,,,,,,,,,,,,,,,,,,,,,,,,,,,,,,,,,,,,,,,,,,,,,,,,,,,,,,,,,,,,,,,,,,,,,,,,,,,,,,,,
,,,,,,,,,,stimuli/images/PICTURE_93.png,GIRL,59e3b0252f63d30001c8f6f9,06/08/1955,2020-09-10_09h46.42.989,proactive3.1,2020.1.2,Win32,60,5f599a131af4471f3d752b7b,5f5a2e0e7e4af20917851c62,2,,,,,,skateboard,,,,,,0,21,21,31,1,4,2,,,,,,,,,,,,,,,,,,,,,,,,,,,,,,,,,,,,,,,,,,,,,,,,,,,,,,,,,,,,,,,,,,,,,,,,,,,,,,,,,,,,,,,,,,,,,,,,,,,,,,,,,,,,
,,,,,,,,,,stimuli/images/PICTURE_677.png,FAMILY,59e3b0252f63d30001c8f6f9,06/08/1955,2020-09-10_09h46.42.989,proactive3.1,2020.1.2,Win32,60,5f599a131af4471f3d752b7b,5f5a2e0e7e4af20917851c62,2,,,,,,map,,,,,,0,22,22,53,1,6,2,,,,,,,,,,,,,,,,,,,,,,,,,,,,,,,,,,,,,,,,,,,,,,,,,,,,,,,,,,,,,,,,,,,,,,,,,,,,,,,,,,,,,,,,,,,,,,,,,,,,,,,,,,,,
,,,,,,,,,,stimuli/images/PICTURE_2.png,AREA,59e3b0252f63d30001c8f6f9,06/08/1955,2020-09-10_09h46.42.989,proactive3.1,2020.1.2,Win32,60,5f599a131af4471f3d752b7b,5f5a2e0e7e4af20917851c62,2,,,,,,tyre,,,,,,0,23,23,32,1,4,2,,,,,,,,,,,,,,,,,,,,,,,,,,,,,,,,,,,,,,,,,,,,,,,,,,,,,,,,,,,,,,,,,,,,,,,,,,,,,,,,,,,,,,,,,,,,,,,,,,,,,,,,,,,,
,,,,,,,,,,stimuli/images/PICTURE_405.png,HOUSE,59e3b0252f63d30001c8f6f9,06/08/1955,2020-09-10_09h46.42.989,proactive3.1,2020.1.2,Win32,60,5f599a131af4471f3d752b7b,5f5a2e0e7e4af20917851c62,2,,,,,,anchor,,,,,,0,24,24,2,1,1,2,,,,,,,,,,,,,,,,,,,,,,,,,,,,,,,,,,,,,,,,,,,,,,,,,,,,,,,,,,,,,,,,,,,,,,,,,,,,,,,,,,,,,,,,,,,,,,,,,,,,,,,,,,,,
,,,,,,,,,,stimuli/images/PICTURE_348.png,DUDE,59e3b0252f63d30001c8f6f9,06/08/1955,2020-09-10_09h46.42.989,proactive3.1,2020.1.2,Win32,60,5f599a131af4471f3d752b7b,5f5a2e0e7e4af20917851c62,2,,,,,,pepper,,,,,,0,25,25,59,1,6,2,,,,,,,,,,,,,,,,,,,,,,,,,,,,,,,,,,,,,,,,,,,,,,,,,,,,,,,,,,,,,,,,,,,,,,,,,,,,,,,,,,,,,,,,,,,,,,,,,,,,,,,,,,,,
,,,,,,,,,,stimuli/images/PICTURE_509.png,MILLER,59e3b0252f63d30001c8f6f9,06/08/1955,2020-09-10_09h46.42.989,proactive3.1,2020.1.2,Win32,60,5f599a131af4471f3d752b7b,5f5a2e0e7e4af20917851c62,2,,,,,,telephone,,,,,,0,26,26,49,1,5,2,,,,,,,,,,,,,,,,,,,,,,,,,,,,,,,,,,,,,,,,,,,,,,,,,,,,,,,,,,,,,,,,,,,,,,,,,,,,,,,,,,,,,,,,,,,,,,,,,,,,,,,,,,,,
,,,,,,,,,,stimuli/images/PICTURE_509.png,SHOTS,59e3b0252f63d30001c8f6f9,06/08/1955,2020-09-10_09h46.42.989,proactive3.1,2020.1.2,Win32,60,5f599a131af4471f3d752b7b,5f5a2e0e7e4af20917851c62,2,,,,,,telephone,,,,,,0,27,27,7,1,1,2,,,,,,,,,,,,,,,,,,,,,,,,,,,,,,,,,,,,,,,,,,,,,,,,,,,,,,,,,,,,,,,,,,,,,,,,,,,,,,,,,,,,,,,,,,,,,,,,,,,,,,,,,,,,
,,,,,,,,,,stimuli/images/PICTURE_452.png,COPS,59e3b0252f63d30001c8f6f9,06/08/1955,2020-09-10_09h46.42.989,proactive3.1,2020.1.2,Win32,60,5f599a131af4471f3d752b7b,5f5a2e0e7e4af20917851c62,2,,,,,,watch,,,,,,0,28,28,0,1,1,2,,,,,,,,,,,,,,,,,,,,,,,,,,,,,,,,,,,,,,,,,,,,,,,,,,,,,,,,,,,,,,,,,,,,,,,,,,,,,,,,,,,,,,,,,,,,,,,,,,,,,,,,,,,,
,,,,,,,,,,stimuli/images/PICTURE_314.png,SPEECH,59e3b0252f63d30001c8f6f9,06/08/1955,2020-09-10_09h46.42.989,proactive3.1,2020.1.2,Win32,60,5f599a131af4471f3d752b7b,5f5a2e0e7e4af20917851c62,2,,,,,,perfume,,,,,,0,29,29,35,1,4,2,,,,,,,,,,,,,,,,,,,,,,,,,,,,,,,,,,,,,,,,,,,,,,,,,,,,,,,,,,,,,,,,,,,,,,,,,,,,,,,,,,,,,,,,,,,,,,,,,,,,,,,,,,,,
,,,,,,,,,,stimuli/images/PICTURE_57.png,NATION,59e3b0252f63d30001c8f6f9,06/08/1955,2020-09-10_09h46.42.989,proactive3.1,2020.1.2,Win32,60,5f599a131af4471f3d752b7b,5f5a2e0e7e4af20917851c62,2,,,,,,stamp,,,,,,0,30,30,21,1,3,2,,,,,,,,,,,,,,,,,,,,,,,,,,,,,,,,,,,,,,,,,,,,,,,,,,,,,,,,,,,,,,,,,,,,,,,,,,,,,,,,,,,,,,,,,,,,,,,,,,,,,,,,,,,,
,,,,,,,,,,stimuli/images/PICTURE_405.png,JUNGLE,59e3b0252f63d30001c8f6f9,06/08/1955,2020-09-10_09h46.42.989,proactive3.1,2020.1.2,Win32,60,5f599a131af4471f3d752b7b,5f5a2e0e7e4af20917851c62,2,,,,,,anchor,,,,,,0,31,31,58,1,6,2,,,,,,,,,,,,,,,,,,,,,,,,,,,,,,,,,,,,,,,,,,,,,,,,,,,,,,,,,,,,,,,,,,,,,,,,,,,,,,,,,,,,,,,,,,,,,,,,,,,,,,,,,,,,
,,,,,,,,,,stimuli/images/PICTURE_487.png,POLICY,59e3b0252f63d30001c8f6f9,06/08/1955,2020-09-10_09h46.42.989,proactive3.1,2020.1.2,Win32,60,5f599a131af4471f3d752b7b,5f5a2e0e7e4af20917851c62,2,,,,,,basket,,,,,,0,32,32,34,1,4,2,,,,,,,,,,,,,,,,,,,,,,,,,,,,,,,,,,,,,,,,,,,,,,,,,,,,,,,,,,,,,,,,,,,,,,,,,,,,,,,,,,,,,,,,,,,,,,,,,,,,,,,,,,,,
,,,,,,,,,,stimuli/images/PICTURE_327.png,LEADER,59e3b0252f63d30001c8f6f9,06/08/1955,2020-09-10_09h46.42.989,proactive3.1,2020.1.2,Win32,60,5f599a131af4471f3d752b7b,5f5a2e0e7e4af20917851c62,2,,,,,,helmet,,,,,,0,33,33,17,1,2,2,,,,,,,,,,,,,,,,,,,,,,,,,,,,,,,,,,,,,,,,,,,,,,,,,,,,,,,,,,,,,,,,,,,,,,,,,,,,,,,,,,,,,,,,,,,,,,,,,,,,,,,,,,,,
,,,,,,,,,,stimuli/images/PICTURE_667.png,GLASS,59e3b0252f63d30001c8f6f9,06/08/1955,2020-09-10_09h46.42.989,proactive3.1,2020.1.2,Win32,60,5f599a131af4471f3d752b7b,5f5a2e0e7e4af20917851c62,2,,,,,,daisy,,,,,,0,34,34,27,1,3,2,,,,,,,,,,,,,,,,,,,,,,,,,,,,,,,,,,,,,,,,,,,,,,,,,,,,,,,,,,,,,,,,,,,,,,,,,,,,,,,,,,,,,,,,,,,,,,,,,,,,,,,,,,,,
,,,,,,,,,,stimuli/images/PICTURE_33.png,COPS,59e3b0252f63d30001c8f6f9,06/08/1955,2020-09-10_09h46.42.989,proactive3.1,2020.1.2,Win32,60,5f599a131af4471f3d752b7b,5f5a2e0e7e4af20917851c62,2,,,,,,frame,,,,,,0,35,35,29,1,3,2,,,,,,,,,,,,,,,,,,,,,,,,,,,,,,,,,,,,,,,,,,,,,,,,,,,,,,,,,,,,,,,,,,,,,,,,,,,,,,,,,,,,,,,,,,,,,,,,,,,,,,,,,,,,
,,,,,,,,,,stimuli/images/PICTURE_311.png,FLESH,59e3b0252f63d30001c8f6f9,06/08/1955,2020-09-10_09h46.42.989,proactive3.1,2020.1.2,Win32,60,5f599a131af4471f3d752b7b,5f5a2e0e7e4af20917851c62,2,,,,,,razor,,,,,,0,36,36,3,1,1,2,,,,,,,,,,,,,,,,,,,,,,,,,,,,,,,,,,,,,,,,,,,,,,,,,,,,,,,,,,,,,,,,,,,,,,,,,,,,,,,,,,,,,,,,,,,,,,,,,,,,,,,,,,,,
,,,,,,,,,,stimuli/images/PICTURE_95.png,NIGHT,59e3b0252f63d30001c8f6f9,06/08/1955,2020-09-10_09h46.42.989,proactive3.1,2020.1.2,Win32,60,5f599a131af4471f3d752b7b,5f5a2e0e7e4af20917851c62,2,,,,,,suitcase,,,,,,0,37,37,37,1,4,2,,,,,,,,,,,,,,,,,,,,,,,,,,,,,,,,,,,,,,,,,,,,,,,,,,,,,,,,,,,,,,,,,,,,,,,,,,,,,,,,,,,,,,,,,,,,,,,,,,,,,,,,,,,,
,,,,,,,,,,stimuli/images/PICTURE_509.png,BATH,59e3b0252f63d30001c8f6f9,06/08/1955,2020-09-10_09h46.42.989,proactive3.1,2020.1.2,Win32,60,5f599a131af4471f3d752b7b,5f5a2e0e7e4af20917851c62,2,,,,,,telephone,,,,,,0,38,38,15,1,2,2,,,,,,,,,,,,,,,,,,,,,,,,,,,,,,,,,,,,,,,,,,,,,,,,,,,,,,,,,,,,,,,,,,,,,,,,,,,,,,,,,,,,,,,,,,,,,,,,,,,,,,,,,,,,
,,,,,,,,,,stimuli/images/PICTURE_655.png,SALE,59e3b0252f63d30001c8f6f9,06/08/1955,2020-09-10_09h46.42.989,proactive3.1,2020.1.2,Win32,60,5f599a131af4471f3d752b7b,5f5a2e0e7e4af20917851c62,2,,,,,,megaphone,,,,,,0,39,39,57,1,6,2,,,,,,,,,,,,,,,,,,,,,,,,,,,,,,,,,,,,,,,,,,,,,,,,,,,,,,,,,,,,,,,,,,,,,,,,,,,,,,,,,,,,,,,,,,,,,,,,,,,,,,,,,,,,
,,,,,,,,,,stimuli/images/PICTURE_177.png,HOUSE,59e3b0252f63d30001c8f6f9,06/08/1955,2020-09-10_09h46.42.989,proactive3.1,2020.1.2,Win32,60,5f599a131af4471f3d752b7b,5f5a2e0e7e4af20917851c62,2,,,,,,mushroom,,,,,,0,40,40,25,1,3,2,,,,,,,,,,,,,,,,,,,,,,,,,,,,,,,,,,,,,,,,,,,,,,,,,,,,,,,,,,,,,,,,,,,,,,,,,,,,,,,,,,,,,,,,,,,,,,,,,,,,,,,,,,,,
