consent_key.keys,consent_key.rt,recalled,recalled_rt,recall_acc,example_recall.thisRepN,example_recall.thisTrialN,example_recall.thisN,example_recall.thisIndex,example_recall.ran,file,word,participant,please enter your date of birth (dd/mm/yyyy),date,expName,psychopyVersion,OS,frameRate,STUDY_ID,SESSION_ID,list,prac_learn_study_loop.thisRepN,prac_learn_study_loop.thisTrialN,prac_learn_study_loop.thisN,prac_learn_study_loop.thisIndex,prac_learn_study_loop.ran,image,prac_learn_test_loop.thisRepN,prac_learn_test_loop.thisTrialN,prac_learn_test_loop.thisN,prac_learn_test_loop.thisIndex,prac_learn_test_loop.ran,learn_study_loop.thisRepN,learn_study_loop.thisTrialN,learn_study_loop.thisN,learn_study_loop.thisIndex,learn_study_loop.ran,list_no,block_no,learn_test_loop.thisRepN,learn_test_loop.thisTrialN,learn_test_loop.thisN,learn_test_loop.thisIndex,learn_test_loop.ran,learn_blocks.thisRepN,learn_blocks.thisTrialN,learn_blocks.thisN,learn_blocks.thisIndex,learn_blocks.ran,block_csv,key_resp_13.keys,key_resp_13.rt,learn_blocks_loop.thisRepN,learn_blocks_loop.thisTrialN,learn_blocks_loop.thisN,learn_blocks_loop.thisIndex,learn_blocks_loop.ran,final_learn_test.thisRepN,final_learn_test.thisTrialN,final_learn_test.thisN,final_learn_test.thisIndex,final_learn_test.ran,s_im1,s_im2,s_im3,s_im4,s_im5,s_im6,s_im7,s_im8,s_im1pos,s_im2pos,s_im3pos,s_im4pos,s_im5pos,s_im6pos,s_im7pos,s_im8pos,s_tarright,search_resp.keys,search_loop.thisRepN,search_loop.thisTrialN,search_loop.thisN,search_loop.thisIndex,search_loop.ran,search_resp.rt,prac_wm_search_loop.thisRepN,prac_wm_search_loop.thisTrialN,prac_wm_search_loop.thisN,prac_wm_search_loop.thisIndex,prac_wm_search_loop.ran,prac_wm_test_loop.thisRepN,prac_wm_test_loop.thisTrialN,prac_wm_test_loop.thisN,prac_wm_test_loop.thisIndex,prac_wm_test_loop.ran,wm_recalled1,wm_recall_rt1,wm_probed1,wm_recall_acc1,wm_recalled2,wm_recall_rt2,wm_probed2,wm_recall_acc2,wm_recalled3,wm_recall_rt3,wm_probed3,wm_recall_acc3,wm_recalled4,wm_recall_rt4,wm_probed4,wm_recall_acc4,prac_wm_trial_loop.thisRepN,prac_wm_trial_loop.thisTrialN,prac_wm_trial_loop.thisN,prac_wm_trial_loop.thisIndex,prac_wm_trial_loop.ran,word1,image1,file1,item_type1,word2,image2,file2,item_type2,word4,image4,file4,item_type4,word3,image3,file3,item_type3,wm_search_loop.thisRepN,wm_search_loop.thisTrialN,wm_search_loop.thisN,wm_search_loop.thisIndex,wm_search_loop.ran,wm_test_loop.thisRepN,wm_test_loop.thisTrialN,wm_test_loop.thisN,wm_test_loop.thisIndex,wm_test_loop.ran,wm_trial_loop.thisRepN,wm_trial_loop.thisTrialN,wm_trial_loop.thisN,wm_trial_loop.thisIndex,wm_trial_loop.ran
y,30.178,TOUGH,9.02,1,0,0,0,0,1,stimuli/images/PICTURE_747.png,TOUGH,5b919592f5a22400012ca14e,03/04/1999,2020-09-02_12h27.16.282,proactive3.1,2020.1.2,Win32,60,5f47c29a48bd2a1e651a6eb7,5f4f817fad423e03866e5784,2,,,,,,,,,,,,,,,,,,,,,,,,,,,,,,,,,,,,,,,,,,,,,,,,,,,,,,,,,,,,,,,,,,,,,,,,,,,,,,,,,,,,,,,,,,,,,,,,,,,,,,,,,,,,,,,,,,,,,,,,,,,,,,,
,,,,,,,,,,stimuli/images/PICTURE_727.png,CELL,5b919592f5a22400012ca14e,03/04/1999,2020-09-02_12h27.16.282,proactive3.1,2020.1.2,Win32,60,5f47c29a48bd2a1e651a6eb7,5f4f817fad423e03866e5784,2,0,0,0,1,1,hose,,,,,,,,,,,,,,,,,,,,,,,,,,,,,,,,,,,,,,,,,,,,,,,,,,,,,,,,,,,,,,,,,,,,,,,,,,,,,,,,,,,,,,,,,,,,,,,,,,,,,,,,,,,,,,,,,,,,,,,,,
,,,,,,,,,,stimuli/images/PICTURE_658.png,DEVIL,5b919592f5a22400012ca14e,03/04/1999,2020-09-02_12h27.16.282,proactive3.1,2020.1.2,Win32,60,5f47c29a48bd2a1e651a6eb7,5f4f817fad423e03866e5784,2,0,1,1,3,1,crow,,,,,,,,,,,,,,,,,,,,,,,,,,,,,,,,,,,,,,,,,,,,,,,,,,,,,,,,,,,,,,,,,,,,,,,,,,,,,,,,,,,,,,,,,,,,,,,,,,,,,,,,,,,,,,,,,,,,,,,,,
,,,,,,,,,,stimuli/images/PICTURE_697.png,KILLER,5b919592f5a22400012ca14e,03/04/1999,2020-09-02_12h27.16.282,proactive3.1,2020.1.2,Win32,60,5f47c29a48bd2a1e651a6eb7,5f4f817fad423e03866e5784,2,0,2,2,4,1,peach,,,,,,,,,,,,,,,,,,,,,,,,,,,,,,,,,,,,,,,,,,,,,,,,,,,,,,,,,,,,,,,,,,,,,,,,,,,,,,,,,,,,,,,,,,,,,,,,,,,,,,,,,,,,,,,,,,,,,,,,,
,,,,,,,,,,stimuli/images/PICTURE_378.png,LOSS,5b919592f5a22400012ca14e,03/04/1999,2020-09-02_12h27.16.282,proactive3.1,2020.1.2,Win32,60,5f47c29a48bd2a1e651a6eb7,5f4f817fad423e03866e5784,2,0,3,3,2,1,lobster,,,,,,,,,,,,,,,,,,,,,,,,,,,,,,,,,,,,,,,,,,,,,,,,,,,,,,,,,,,,,,,,,,,,,,,,,,,,,,,,,,,,,,,,,,,,,,,,,,,,,,,,,,,,,,,,,,,,,,,,,
,,CROW,6.908,0,,,,,,stimuli/images/PICTURE_378.png,LOSS,5b919592f5a22400012ca14e,03/04/1999,2020-09-02_12h27.16.282,proactive3.1,2020.1.2,Win32,60,5f47c29a48bd2a1e651a6eb7,5f4f817fad423e03866e5784,2,,,,,,lobster,0,0,0,2,1,,,,,,,,,,,,,,,,,,,,,,,,,,,,,,,,,,,,,,,,,,,,,,,,,,,,,,,,,,,,,,,,,,,,,,,,,,,,,,,,,,,,,,,,,,,,,,,,,,,,,,,,,,,,,,,,,,,,
,,CELL,2.414,1,,,,,,stimuli/images/PICTURE_727.png,CELL,5b919592f5a22400012ca14e,03/04/1999,2020-09-02_12h27.16.282,proactive3.1,2020.1.2,Win32,60,5f47c29a48bd2a1e651a6eb7,5f4f817fad423e03866e5784,2,,,,,,hose,0,1,1,1,1,,,,,,,,,,,,,,,,,,,,,,,,,,,,,,,,,,,,,,,,,,,,,,,,,,,,,,,,,,,,,,,,,,,,,,,,,,,,,,,,,,,,,,,,,,,,,,,,,,,,,,,,,,,,,,,,,,,,
,,GENIUS,3.93,1,,,,,,stimuli/images/PICTURE_269.png,GENIUS,5b919592f5a22400012ca14e,03/04/1999,2020-09-02_12h27.16.282,proactive3.1,2020.1.2,Win32,60,5f47c29a48bd2a1e651a6eb7,5f4f817fad423e03866e5784,2,,,,,,chameleon,0,2,2,0,1,,,,,,,,,,,,,,,,,,,,,,,,,,,,,,,,,,,,,,,,,,,,,,,,,,,,,,,,,,,,,,,,,,,,,,,,,,,,,,,,,,,,,,,,,,,,,,,,,,,,,,,,,,,,,,,,,,,,
,,CROW,8.547,0,,,,,,stimuli/images/PICTURE_658.png,DEVIL,5b919592f5a22400012ca14e,03/04/1999,2020-09-02_12h27.16.282,proactive3.1,2020.1.2,Win32,60,5f47c29a48bd2a1e651a6eb7,5f4f817fad423e03866e5784,2,,,,,,crow,0,3,3,3,1,,,,,,,,,,,,,,,,,,,,,,,,,,,,,,,,,,,,,,,,,,,,,,,,,,,,,,,,,,,,,,,,,,,,,,,,,,,,,,,,,,,,,,,,,,,,,,,,,,,,,,,,,,,,,,,,,,,,
,,EVIL,4.031,0,,,,,,stimuli/images/PICTURE_697.png,KILLER,5b919592f5a22400012ca14e,03/04/1999,2020-09-02_12h27.16.282,proactive3.1,2020.1.2,Win32,60,5f47c29a48bd2a1e651a6eb7,5f4f817fad423e03866e5784,2,,,,,,peach,0,4,4,4,1,,,,,,,,,,,,,,,,,,,,,,,,,,,,,,,,,,,,,,,,,,,,,,,,,,,,,,,,,,,,,,,,,,,,,,,,,,,,,,,,,,,,,,,,,,,,,,,,,,,,,,,,,,,,,,,,,,,,
,,,,,,,,,,stimuli/images/PICTURE_380.png,DEATH,5b919592f5a22400012ca14e,03/04/1999,2020-09-02_12h27.16.282,proactive3.1,2020.1.2,Win32,60,5f47c29a48bd2a1e651a6eb7,5f4f817fad423e03866e5784,2,,,,,,gorilla,,,,,,0,0,0,49,1,5,0,,,,,,,,,,,,,,,,,,,,,,,,,,,,,,,,,,,,,,,,,,,,,,,,,,,,,,,,,,,,,,,,,,,,,,,,,,,,,,,,,,,,,,,,,,,,,,,,,,,,,,,,,,,,,
,,,,,,,,,,stimuli/images/PICTURE_160.png,FEET,5b919592f5a22400012ca14e,03/04/1999,2020-09-02_12h27.16.282,proactive3.1,2020.1.2,Win32,60,5f47c29a48bd2a1e651a6eb7,5f4f817fad423e03866e5784,2,,,,,,wheelbarrow,,,,,,0,1,1,58,1,6,0,,,,,,,,,,,,,,,,,,,,,,,,,,,,,,,,,,,,,,,,,,,,,,,,,,,,,,,,,,,,,,,,,,,,,,,,,,,,,,,,,,,,,,,,,,,,,,,,,,,,,,,,,,,,,
,,,,,,,,,,stimuli/images/PICTURE_667.png,BATH,5b919592f5a22400012ca14e,03/04/1999,2020-09-02_12h27.16.282,proactive3.1,2020.1.2,Win32,60,5f47c29a48bd2a1e651a6eb7,5f4f817fad423e03866e5784,2,,,,,,daisy,,,,,,0,2,2,4,1,1,0,,,,,,,,,,,,,,,,,,,,,,,,,,,,,,,,,,,,,,,,,,,,,,,,,,,,,,,,,,,,,,,,,,,,,,,,,,,,,,,,,,,,,,,,,,,,,,,,,,,,,,,,,,,,,
,,,,,,,,,,stimuli/images/PICTURE_449.png,THING,5b919592f5a22400012ca14e,03/04/1999,2020-09-02_12h27.16.282,proactive3.1,2020.1.2,Win32,60,5f47c29a48bd2a1e651a6eb7,5f4f817fad423e03866e5784,2,,,,,,bench,,,,,,0,3,3,59,1,6,0,,,,,,,,,,,,,,,,,,,,,,,,,,,,,,,,,,,,,,,,,,,,,,,,,,,,,,,,,,,,,,,,,,,,,,,,,,,,,,,,,,,,,,,,,,,,,,,,,,,,,,,,,,,,,
,,,,,,,,,,stimuli/images/PICTURE_688.png,WOMEN,5b919592f5a22400012ca14e,03/04/1999,2020-09-02_12h27.16.282,proactive3.1,2020.1.2,Win32,60,5f47c29a48bd2a1e651a6eb7,5f4f817fad423e03866e5784,2,,,,,,runner,,,,,,0,4,4,14,1,2,0,,,,,,,,,,,,,,,,,,,,,,,,,,,,,,,,,,,,,,,,,,,,,,,,,,,,,,,,,,,,,,,,,,,,,,,,,,,,,,,,,,,,,,,,,,,,,,,,,,,,,,,,,,,,,
,,,,,,,,,,stimuli/images/PICTURE_32.png,JUNGLE,5b919592f5a22400012ca14e,03/04/1999,2020-09-02_12h27.16.282,proactive3.1,2020.1.2,Win32,60,5f47c29a48bd2a1e651a6eb7,5f4f817fad423e03866e5784,2,,,,,,crown,,,,,,0,5,5,45,1,5,0,,,,,,,,,,,,,,,,,,,,,,,,,,,,,,,,,,,,,,,,,,,,,,,,,,,,,,,,,,,,,,,,,,,,,,,,,,,,,,,,,,,,,,,,,,,,,,,,,,,,,,,,,,,,,
,,,,,,,,,,stimuli/images/PICTURE_708.png,YARD,5b919592f5a22400012ca14e,03/04/1999,2020-09-02_12h27.16.282,proactive3.1,2020.1.2,Win32,60,5f47c29a48bd2a1e651a6eb7,5f4f817fad423e03866e5784,2,,,,,,monkey,,,,,,0,6,6,29,1,3,0,,,,,,,,,,,,,,,,,,,,,,,,,,,,,,,,,,,,,,,,,,,,,,,,,,,,,,,,,,,,,,,,,,,,,,,,,,,,,,,,,,,,,,,,,,,,,,,,,,,,,,,,,,,,,
,,,,,,,,,,stimuli/images/PICTURE_667.png,PLENTY,5b919592f5a22400012ca14e,03/04/1999,2020-09-02_12h27.16.282,proactive3.1,2020.1.2,Win32,60,5f47c29a48bd2a1e651a6eb7,5f4f817fad423e03866e5784,2,,,,,,daisy,,,,,,0,7,7,41,1,5,0,,,,,,,,,,,,,,,,,,,,,,,,,,,,,,,,,,,,,,,,,,,,,,,,,,,,,,,,,,,,,,,,,,,,,,,,,,,,,,,,,,,,,,,,,,,,,,,,,,,,,,,,,,,,,
,,,,,,,,,,stimuli/images/PICTURE_677.png,MILE,5b919592f5a22400012ca14e,03/04/1999,2020-09-02_12h27.16.282,proactive3.1,2020.1.2,Win32,60,5f47c29a48bd2a1e651a6eb7,5f4f817fad423e03866e5784,2,,,,,,map,,,,,,0,8,8,30,1,4,0,,,,,,,,,,,,,,,,,,,,,,,,,,,,,,,,,,,,,,,,,,,,,,,,,,,,,,,,,,,,,,,,,,,,,,,,,,,,,,,,,,,,,,,,,,,,,,,,,,,,,,,,,,,,,
,,,,,,,,,,stimuli/images/PICTURE_255.png,AREA,5b919592f5a22400012ca14e,03/04/1999,2020-09-02_12h27.16.282,proactive3.1,2020.1.2,Win32,60,5f47c29a48bd2a1e651a6eb7,5f4f817fad423e03866e5784,2,,,,,,shovel,,,,,,0,9,9,22,1,3,0,,,,,,,,,,,,,,,,,,,,,,,,,,,,,,,,,,,,,,,,,,,,,,,,,,,,,,,,,,,,,,,,,,,,,,,,,,,,,,,,,,,,,,,,,,,,,,,,,,,,,,,,,,,,,
,,,,,,,,,,stimuli/images/PICTURE_348.png,SPEECH,5b919592f5a22400012ca14e,03/04/1999,2020-09-02_12h27.16.282,proactive3.1,2020.1.2,Win32,60,5f47c29a48bd2a1e651a6eb7,5f4f817fad423e03866e5784,2,,,,,,pepper,,,,,,0,10,10,20,1,3,0,,,,,,,,,,,,,,,,,,,,,,,,,,,,,,,,,,,,,,,,,,,,,,,,,,,,,,,,,,,,,,,,,,,,,,,,,,,,,,,,,,,,,,,,,,,,,,,,,,,,,,,,,,,,,
,,,,,,,,,,stimuli/images/PICTURE_314.png,SAKE,5b919592f5a22400012ca14e,03/04/1999,2020-09-02_12h27.16.282,proactive3.1,2020.1.2,Win32,60,5f47c29a48bd2a1e651a6eb7,5f4f817fad423e03866e5784,2,,,,,,perfume,,,,,,0,11,11,7,1,1,0,,,,,,,,,,,,,,,,,,,,,,,,,,,,,,,,,,,,,,,,,,,,,,,,,,,,,,,,,,,,,,,,,,,,,,,,,,,,,,,,,,,,,,,,,,,,,,,,,,,,,,,,,,,,,
,,,,,,,,,,stimuli/images/PICTURE_675.png,WEAPON,5b919592f5a22400012ca14e,03/04/1999,2020-09-02_12h27.16.282,proactive3.1,2020.1.2,Win32,60,5f47c29a48bd2a1e651a6eb7,5f4f817fad423e03866e5784,2,,,,,,windmill,,,,,,0,12,12,32,1,4,0,,,,,,,,,,,,,,,,,,,,,,,,,,,,,,,,,,,,,,,,,,,,,,,,,,,,,,,,,,,,,,,,,,,,,,,,,,,,,,,,,,,,,,,,,,,,,,,,,,,,,,,,,,,,,
,,,,,,,,,,stimuli/images/PICTURE_708.png,PENNY,5b919592f5a22400012ca14e,03/04/1999,2020-09-02_12h27.16.282,proactive3.1,2020.1.2,Win32,60,5f47c29a48bd2a1e651a6eb7,5f4f817fad423e03866e5784,2,,,,,,monkey,,,,,,0,13,13,31,1,4,0,,,,,,,,,,,,,,,,,,,,,,,,,,,,,,,,,,,,,,,,,,,,,,,,,,,,,,,,,,,,,,,,,,,,,,,,,,,,,,,,,,,,,,,,,,,,,,,,,,,,,,,,,,,,,
,,,,,,,,,,stimuli/images/PICTURE_504.png,BODY,5b919592f5a22400012ca14e,03/04/1999,2020-09-02_12h27.16.282,proactive3.1,2020.1.2,Win32,60,5f47c29a48bd2a1e651a6eb7,5f4f817fad423e03866e5784,2,,,,,,wheel,,,,,,0,14,14,8,1,1,0,,,,,,,,,,,,,,,,,,,,,,,,,,,,,,,,,,,,,,,,,,,,,,,,,,,,,,,,,,,,,,,,,,,,,,,,,,,,,,,,,,,,,,,,,,,,,,,,,,,,,,,,,,,,,
,,,,,,,,,,stimuli/images/PICTURE_311.png,BEAUTY,5b919592f5a22400012ca14e,03/04/1999,2020-09-02_12h27.16.282,proactive3.1,2020.1.2,Win32,60,5f47c29a48bd2a1e651a6eb7,5f4f817fad423e03866e5784,2,,,,,,razor,,,,,,0,15,15,13,1,2,0,,,,,,,,,,,,,,,,,,,,,,,,,,,,,,,,,,,,,,,,,,,,,,,,,,,,,,,,,,,,,,,,,,,,,,,,,,,,,,,,,,,,,,,,,,,,,,,,,,,,,,,,,,,,,
,,,,,,,,,,stimuli/images/PICTURE_302.png,FAMILY,5b919592f5a22400012ca14e,03/04/1999,2020-09-02_12h27.16.282,proactive3.1,2020.1.2,Win32,60,5f47c29a48bd2a1e651a6eb7,5f4f817fad423e03866e5784,2,,,,,,taxi,,,,,,0,16,16,18,1,2,0,,,,,,,,,,,,,,,,,,,,,,,,,,,,,,,,,,,,,,,,,,,,,,,,,,,,,,,,,,,,,,,,,,,,,,,,,,,,,,,,,,,,,,,,,,,,,,,,,,,,,,,,,,,,,
,,,,,,,,,,stimuli/images/PICTURE_123.png,ADVICE,5b919592f5a22400012ca14e,03/04/1999,2020-09-02_12h27.16.282,proactive3.1,2020.1.2,Win32,60,5f47c29a48bd2a1e651a6eb7,5f4f817fad423e03866e5784,2,,,,,,dart,,,,,,0,17,17,50,1,6,0,,,,,,,,,,,,,,,,,,,,,,,,,,,,,,,,,,,,,,,,,,,,,,,,,,,,,,,,,,,,,,,,,,,,,,,,,,,,,,,,,,,,,,,,,,,,,,,,,,,,,,,,,,,,,
,,,,,,,,,,stimuli/images/PICTURE_285.png,ADVICE,5b919592f5a22400012ca14e,03/04/1999,2020-09-02_12h27.16.282,proactive3.1,2020.1.2,Win32,60,5f47c29a48bd2a1e651a6eb7,5f4f817fad423e03866e5784,2,,,,,,carrot,,,,,,0,18,18,12,1,2,0,,,,,,,,,,,,,,,,,,,,,,,,,,,,,,,,,,,,,,,,,,,,,,,,,,,,,,,,,,,,,,,,,,,,,,,,,,,,,,,,,,,,,,,,,,,,,,,,,,,,,,,,,,,,,
,,,,,,,,,,stimuli/images/PICTURE_453.png,DUDE,5b919592f5a22400012ca14e,03/04/1999,2020-09-02_12h27.16.282,proactive3.1,2020.1.2,Win32,60,5f47c29a48bd2a1e651a6eb7,5f4f817fad423e03866e5784,2,,,,,,scissors,,,,,,0,19,19,27,1,3,0,,,,,,,,,,,,,,,,,,,,,,,,,,,,,,,,,,,,,,,,,,,,,,,,,,,,,,,,,,,,,,,,,,,,,,,,,,,,,,,,,,,,,,,,,,,,,,,,,,,,,,,,,,,,,
,,,,,,,,,,stimuli/images/PICTURE_68.png,MILE,5b919592f5a22400012ca14e,03/04/1999,2020-09-02_12h27.16.282,proactive3.1,2020.1.2,Win32,60,5f47c29a48bd2a1e651a6eb7,5f4f817fad423e03866e5784,2,,,,,,candle,,,,,,0,20,20,44,1,5,0,,,,,,,,,,,,,,,,,,,,,,,,,,,,,,,,,,,,,,,,,,,,,,,,,,,,,,,,,,,,,,,,,,,,,,,,,,,,,,,,,,,,,,,,,,,,,,,,,,,,,,,,,,,,,
,,,,,,,,,,stimuli/images/PICTURE_177.png,CARS,5b919592f5a22400012ca14e,03/04/1999,2020-09-02_12h27.16.282,proactive3.1,2020.1.2,Win32,60,5f47c29a48bd2a1e651a6eb7,5f4f817fad423e03866e5784,2,,,,,,mushroom,,,,,,0,21,21,35,1,4,0,,,,,,,,,,,,,,,,,,,,,,,,,,,,,,,,,,,,,,,,,,,,,,,,,,,,,,,,,,,,,,,,,,,,,,,,,,,,,,,,,,,,,,,,,,,,,,,,,,,,,,,,,,,,,
,,,,,,,,,,stimuli/images/PICTURE_208.png,MONTH,5b919592f5a22400012ca14e,03/04/1999,2020-09-02_12h27.16.282,proactive3.1,2020.1.2,Win32,60,5f47c29a48bd2a1e651a6eb7,5f4f817fad423e03866e5784,2,,,,,,microphone,,,,,,0,22,22,53,1,6,0,,,,,,,,,,,,,,,,,,,,,,,,,,,,,,,,,,,,,,,,,,,,,,,,,,,,,,,,,,,,,,,,,,,,,,,,,,,,,,,,,,,,,,,,,,,,,,,,,,,,,,,,,,,,,
,,,,,,,,,,stimuli/images/PICTURE_467.png,DEMON,5b919592f5a22400012ca14e,03/04/1999,2020-09-02_12h27.16.282,proactive3.1,2020.1.2,Win32,60,5f47c29a48bd2a1e651a6eb7,5f4f817fad423e03866e5784,2,,,,,,peg,,,,,,0,23,23,23,1,3,0,,,,,,,,,,,,,,,,,,,,,,,,,,,,,,,,,,,,,,,,,,,,,,,,,,,,,,,,,,,,,,,,,,,,,,,,,,,,,,,,,,,,,,,,,,,,,,,,,,,,,,,,,,,,,
,,,,,,,,,,stimuli/images/PICTURE_308.png,ESTATE,5b919592f5a22400012ca14e,03/04/1999,2020-09-02_12h27.16.282,proactive3.1,2020.1.2,Win32,60,5f47c29a48bd2a1e651a6eb7,5f4f817fad423e03866e5784,2,,,,,,dice,,,,,,0,24,24,46,1,5,0,,,,,,,,,,,,,,,,,,,,,,,,,,,,,,,,,,,,,,,,,,,,,,,,,,,,,,,,,,,,,,,,,,,,,,,,,,,,,,,,,,,,,,,,,,,,,,,,,,,,,,,,,,,,,
,,,,,,,,,,stimuli/images/PICTURE_744.png,SAKE,5b919592f5a22400012ca14e,03/04/1999,2020-09-02_12h27.16.282,proactive3.1,2020.1.2,Win32,60,5f47c29a48bd2a1e651a6eb7,5f4f817fad423e03866e5784,2,,,,,,ring,,,,,,0,25,25,17,1,2,0,,,,,,,,,,,,,,,,,,,,,,,,,,,,,,,,,,,,,,,,,,,,,,,,,,,,,,,,,,,,,,,,,,,,,,,,,,,,,,,,,,,,,,,,,,,,,,,,,,,,,,,,,,,,,
,,,,,,,,,,stimuli/images/PICTURE_491.png,ROOF,5b919592f5a22400012ca14e,03/04/1999,2020-09-02_12h27.16.282,proactive3.1,2020.1.2,Win32,60,5f47c29a48bd2a1e651a6eb7,5f4f817fad423e03866e5784,2,,,,,,rug,,,,,,0,26,26,24,1,3,0,,,,,,,,,,,,,,,,,,,,,,,,,,,,,,,,,,,,,,,,,,,,,,,,,,,,,,,,,,,,,,,,,,,,,,,,,,,,,,,,,,,,,,,,,,,,,,,,,,,,,,,,,,,,,
,,,,,,,,,,stimuli/images/PICTURE_208.png,LOTS,5b919592f5a22400012ca14e,03/04/1999,2020-09-02_12h27.16.282,proactive3.1,2020.1.2,Win32,60,5f47c29a48bd2a1e651a6eb7,5f4f817fad423e03866e5784,2,,,,,,microphone,,,,,,0,27,27,10,1,2,0,,,,,,,,,,,,,,,,,,,,,,,,,,,,,,,,,,,,,,,,,,,,,,,,,,,,,,,,,,,,,,,,,,,,,,,,,,,,,,,,,,,,,,,,,,,,,,,,,,,,,,,,,,,,,
,,,,,,,,,,stimuli/images/PICTURE_327.png,BEAUTY,5b919592f5a22400012ca14e,03/04/1999,2020-09-02_12h27.16.282,proactive3.1,2020.1.2,Win32,60,5f47c29a48bd2a1e651a6eb7,5f4f817fad423e03866e5784,2,,,,,,helmet,,,,,,0,28,28,48,1,5,0,,,,,,,,,,,,,,,,,,,,,,,,,,,,,,,,,,,,,,,,,,,,,,,,,,,,,,,,,,,,,,,,,,,,,,,,,,,,,,,,,,,,,,,,,,,,,,,,,,,,,,,,,,,,,
,,,,,,,,,,stimuli/images/PICTURE_147.png,MOMENT,5b919592f5a22400012ca14e,03/04/1999,2020-09-02_12h27.16.282,proactive3.1,2020.1.2,Win32,60,5f47c29a48bd2a1e651a6eb7,5f4f817fad423e03866e5784,2,,,,,,hanger,,,,,,0,29,29,51,1,6,0,,,,,,,,,,,,,,,,,,,,,,,,,,,,,,,,,,,,,,,,,,,,,,,,,,,,,,,,,,,,,,,,,,,,,,,,,,,,,,,,,,,,,,,,,,,,,,,,,,,,,,,,,,,,,
,,,,,,,,,,stimuli/images/PICTURE_469.png,ARTIST,5b919592f5a22400012ca14e,03/04/1999,2020-09-02_12h27.16.282,proactive3.1,2020.1.2,Win32,60,5f47c29a48bd2a1e651a6eb7,5f4f817fad423e03866e5784,2,,,,,,stool,,,,,,0,30,30,6,1,1,0,,,,,,,,,,,,,,,,,,,,,,,,,,,,,,,,,,,,,,,,,,,,,,,,,,,,,,,,,,,,,,,,,,,,,,,,,,,,,,,,,,,,,,,,,,,,,,,,,,,,,,,,,,,,,
,,,,,,,,,,stimuli/images/PICTURE_203.png,ARTIST,5b919592f5a22400012ca14e,03/04/1999,2020-09-02_12h27.16.282,proactive3.1,2020.1.2,Win32,60,5f47c29a48bd2a1e651a6eb7,5f4f817fad423e03866e5784,2,,,,,,cap,,,,,,0,31,31,26,1,3,0,,,,,,,,,,,,,,,,,,,,,,,,,,,,,,,,,,,,,,,,,,,,,,,,,,,,,,,,,,,,,,,,,,,,,,,,,,,,,,,,,,,,,,,,,,,,,,,,,,,,,,,,,,,,,
,,,,,,,,,,stimuli/images/PICTURE_311.png,FRIEND,5b919592f5a22400012ca14e,03/04/1999,2020-09-02_12h27.16.282,proactive3.1,2020.1.2,Win32,60,5f47c29a48bd2a1e651a6eb7,5f4f817fad423e03866e5784,2,,,,,,razor,,,,,,0,32,32,34,1,4,0,,,,,,,,,,,,,,,,,,,,,,,,,,,,,,,,,,,,,,,,,,,,,,,,,,,,,,,,,,,,,,,,,,,,,,,,,,,,,,,,,,,,,,,,,,,,,,,,,,,,,,,,,,,,,
,,,,,,,,,,stimuli/images/PICTURE_233.png,IDEAS,5b919592f5a22400012ca14e,03/04/1999,2020-09-02_12h27.16.282,proactive3.1,2020.1.2,Win32,60,5f47c29a48bd2a1e651a6eb7,5f4f817fad423e03866e5784,2,,,,,,salt,,,,,,0,33,33,28,1,3,0,,,,,,,,,,,,,,,,,,,,,,,,,,,,,,,,,,,,,,,,,,,,,,,,,,,,,,,,,,,,,,,,,,,,,,,,,,,,,,,,,,,,,,,,,,,,,,,,,,,,,,,,,,,,,
,,,,,,,,,,stimuli/images/PICTURE_95.png,STYLE,5b919592f5a22400012ca14e,03/04/1999,2020-09-02_12h27.16.282,proactive3.1,2020.1.2,Win32,60,5f47c29a48bd2a1e651a6eb7,5f4f817fad423e03866e5784,2,,,,,,suitcase,,,,,,0,34,34,25,1,3,0,,,,,,,,,,,,,,,,,,,,,,,,,,,,,,,,,,,,,,,,,,,,,,,,,,,,,,,,,,,,,,,,,,,,,,,,,,,,,,,,,,,,,,,,,,,,,,,,,,,,,,,,,,,,,
,,,,,,,,,,stimuli/images/PICTURE_509.png,PHOTO,5b919592f5a22400012ca14e,03/04/1999,2020-09-02_12h27.16.282,proactive3.1,2020.1.2,Win32,60,5f47c29a48bd2a1e651a6eb7,5f4f817fad423e03866e5784,2,,,,,,telephone,,,,,,0,35,35,21,1,3,0,,,,,,,,,,,,,,,,,,,,,,,,,,,,,,,,,,,,,,,,,,,,,,,,,,,,,,,,,,,,,,,,,,,,,,,,,,,,,,,,,,,,,,,,,,,,,,,,,,,,,,,,,,,,,
,,,,,,,,,,stimuli/images/PICTURE_314.png,GODS,5b919592f5a22400012ca14e,03/04/1999,2020-09-02_12h27.16.282,proactive3.1,2020.1.2,Win32,60,5f47c29a48bd2a1e651a6eb7,5f4f817fad423e03866e5784,2,,,,,,perfume,,,,,,0,36,36,11,1,2,0,,,,,,,,,,,,,,,,,,,,,,,,,,,,,,,,,,,,,,,,,,,,,,,,,,,,,,,,,,,,,,,,,,,,,,,,,,,,,,,,,,,,,,,,,,,,,,,,,,,,,,,,,,,,,
,,,,,,,,,,stimuli/images/PICTURE_356.png,DANGER,5b919592f5a22400012ca14e,03/04/1999,2020-09-02_12h27.16.282,proactive3.1,2020.1.2,Win32,60,5f47c29a48bd2a1e651a6eb7,5f4f817fad423e03866e5784,2,,,,,,pawn,,,,,,0,37,37,55,1,6,0,,,,,,,,,,,,,,,,,,,,,,,,,,,,,,,,,,,,,,,,,,,,,,,,,,,,,,,,,,,,,,,,,,,,,,,,,,,,,,,,,,,,,,,,,,,,,,,,,,,,,,,,,,,,,
,,,,,,,,,,stimuli/images/PICTURE_380.png,PHOTO,5b919592f5a22400012ca14e,03/04/1999,2020-09-02_12h27.16.282,proactive3.1,2020.1.2,Win32,60,5f47c29a48bd2a1e651a6eb7,5f4f817fad423e03866e5784,2,,,,,,gorilla,,,,,,0,38,38,52,1,6,0,,,,,,,,,,,,,,,,,,,,,,,,,,,,,,,,,,,,,,,,,,,,,,,,,,,,,,,,,,,,,,,,,,,,,,,,,,,,,,,,,,,,,,,,,,,,,,,,,,,,,,,,,,,,,
,,,,,,,,,,stimuli/images/PICTURE_692.png,MONTH,5b919592f5a22400012ca14e,03/04/1999,2020-09-02_12h27.16.282,proactive3.1,2020.1.2,Win32,60,5f47c29a48bd2a1e651a6eb7,5f4f817fad423e03866e5784,2,,,,,,cherry,,,,,,0,39,39,16,1,2,0,,,,,,,,,,,,,,,,,,,,,,,,,,,,,,,,,,,,,,,,,,,,,,,,,,,,,,,,,,,,,,,,,,,,,,,,,,,,,,,,,,,,,,,,,,,,,,,,,,,,,,,,,,,,,
,,,,,,,,,,stimuli/images/PICTURE_708.png,CLIENT,5b919592f5a22400012ca14e,03/04/1999,2020-09-02_12h27.16.282,proactive3.1,2020.1.2,Win32,60,5f47c29a48bd2a1e651a6eb7,5f4f817fad423e03866e5784,2,,,,,,monkey,,,,,,0,40,40,5,1,1,0,,,,,,,,,,,,,,,,,,,,,,,,,,,,,,,,,,,,,,,,,,,,,,,,,,,,,,,,,,,,,,,,,,,,,,,,,,,,,,,,,,,,,,,,,,,,,,,,,,,,,,,,,,,,,
,,,,,,,,,,stimuli/images/PICTURE_744.png,SYSTEM,5b919592f5a22400012ca14e,03/04/1999,2020-09-02_12h27.16.282,proactive3.1,2020.1.2,Win32,60,5f47c29a48bd2a1e651a6eb7,5f4f817fad423e03866e5784,2,,,,,,ring,,,,,,0,41,41,43,1,5,0,,,,,,,,,,,,,,,,,,,,,,,,,,,,,,,,,,,,,,,,,,,,,,,,,,,,,,,,,,,,,,,,,,,,,,,,,,,,,,,,,,,,,,,,,,,,,,,,,,,,,,,,,,,,,
,,,,,,,,,,stimuli/images/PICTURE_208.png,THING,5b919592f5a22400012ca14e,03/04/1999,2020-09-02_12h27.16.282,proactive3.1,2020.1.2,Win32,60,5f47c29a48bd2a1e651a6eb7,5f4f817fad423e03866e5784,2,,,,,,microphone,,,,,,0,42,42,47,1,5,0,,,,,,,,,,,,,,,,,,,,,,,,,,,,,,,,,,,,,,,,,,,,,,,,,,,,,,,,,,,,,,,,,,,,,,,,,,,,,,,,,,,,,,,,,,,,,,,,,,,,,,,,,,,,,
,,,,,,,,,,stimuli/images/PICTURE_654.png,VALLEY,5b919592f5a22400012ca14e,03/04/1999,2020-09-02_12h27.16.282,proactive3.1,2020.1.2,Win32,60,5f47c29a48bd2a1e651a6eb7,5f4f817fad423e03866e5784,2,,,,,,pencil,,,,,,0,43,43,1,1,1,0,,,,,,,,,,,,,,,,,,,,,,,,,,,,,,,,,,,,,,,,,,,,,,,,,,,,,,,,,,,,,,,,,,,,,,,,,,,,,,,,,,,,,,,,,,,,,,,,,,,,,,,,,,,,,
,,,,,,,,,,stimuli/images/PICTURE_233.png,WOMEN,5b919592f5a22400012ca14e,03/04/1999,2020-09-02_12h27.16.282,proactive3.1,2020.1.2,Win32,60,5f47c29a48bd2a1e651a6eb7,5f4f817fad423e03866e5784,2,,,,,,salt,,,,,,0,44,44,38,1,4,0,,,,,,,,,,,,,,,,,,,,,,,,,,,,,,,,,,,,,,,,,,,,,,,,,,,,,,,,,,,,,,,,,,,,,,,,,,,,,,,,,,,,,,,,,,,,,,,,,,,,,,,,,,,,,
,,,,,,,,,,stimuli/images/PICTURE_151.png,GIRL,5b919592f5a22400012ca14e,03/04/1999,2020-09-02_12h27.16.282,proactive3.1,2020.1.2,Win32,60,5f47c29a48bd2a1e651a6eb7,5f4f817fad423e03866e5784,2,,,,,,tray,,,,,,0,45,45,19,1,2,0,,,,,,,,,,,,,,,,,,,,,,,,,,,,,,,,,,,,,,,,,,,,,,,,,,,,,,,,,,,,,,,,,,,,,,,,,,,,,,,,,,,,,,,,,,,,,,,,,,,,,,,,,,,,,
,,,,,,,,,,stimuli/images/PICTURE_123.png,ADVICE,5b919592f5a22400012ca14e,03/04/1999,2020-09-02_12h27.16.282,proactive3.1,2020.1.2,Win32,60,5f47c29a48bd2a1e651a6eb7,5f4f817fad423e03866e5784,2,,,,,,dart,,,,,,0,46,46,40,1,5,0,,,,,,,,,,,,,,,,,,,,,,,,,,,,,,,,,,,,,,,,,,,,,,,,,,,,,,,,,,,,,,,,,,,,,,,,,,,,,,,,,,,,,,,,,,,,,,,,,,,,,,,,,,,,,
,,,,,,,,,,stimuli/images/PICTURE_248.png,DOZEN,5b919592f5a22400012ca14e,03/04/1999,2020-09-02_12h27.16.282,proactive3.1,2020.1.2,Win32,60,5f47c29a48bd2a1e651a6eb7,5f4f817fad423e03866e5784,2,,,,,,cart,,,,,,0,47,47,39,1,4,0,,,,,,,,,,,,,,,,,,,,,,,,,,,,,,,,,,,,,,,,,,,,,,,,,,,,,,,,,,,,,,,,,,,,,,,,,,,,,,,,,,,,,,,,,,,,,,,,,,,,,,,,,,,,,
,,,,,,,,,,stimuli/images/PICTURE_469.png,LETTER,5b919592f5a22400012ca14e,03/04/1999,2020-09-02_12h27.16.282,proactive3.1,2020.1.2,Win32,60,5f47c29a48bd2a1e651a6eb7,5f4f817fad423e03866e5784,2,,,,,,stool,,,,,,0,48,48,42,1,5,0,,,,,,,,,,,,,,,,,,,,,,,,,,,,,,,,,,,,,,,,,,,,,,,,,,,,,,,,,,,,,,,,,,,,,,,,,,,,,,,,,,,,,,,,,,,,,,,,,,,,,,,,,,,,,
,,,,,,,,,,stimuli/images/PICTURE_470.png,CASINO,5b919592f5a22400012ca14e,03/04/1999,2020-09-02_12h27.16.282,proactive3.1,2020.1.2,Win32,60,5f47c29a48bd2a1e651a6eb7,5f4f817fad423e03866e5784,2,,,,,,motorbike,,,,,,0,49,49,36,1,4,0,,,,,,,,,,,,,,,,,,,,,,,,,,,,,,,,,,,,,,,,,,,,,,,,,,,,,,,,,,,,,,,,,,,,,,,,,,,,,,,,,,,,,,,,,,,,,,,,,,,,,,,,,,,,,
,,,,,,,,,,stimuli/images/PICTURE_339.png,PLENTY,5b919592f5a22400012ca14e,03/04/1999,2020-09-02_12h27.16.282,proactive3.1,2020.1.2,Win32,60,5f47c29a48bd2a1e651a6eb7,5f4f817fad423e03866e5784,2,,,,,,backpack,,,,,,0,50,50,0,1,1,0,,,,,,,,,,,,,,,,,,,,,,,,,,,,,,,,,,,,,,,,,,,,,,,,,,,,,,,,,,,,,,,,,,,,,,,,,,,,,,,,,,,,,,,,,,,,,,,,,,,,,,,,,,,,,
,,,,,,,,,,stimuli/images/PICTURE_453.png,PLENTY,5b919592f5a22400012ca14e,03/04/1999,2020-09-02_12h27.16.282,proactive3.1,2020.1.2,Win32,60,5f47c29a48bd2a1e651a6eb7,5f4f817fad423e03866e5784,2,,,,,,scissors,,,,,,0,51,51,56,1,6,0,,,,,,,,,,,,,,,,,,,,,,,,,,,,,,,,,,,,,,,,,,,,,,,,,,,,,,,,,,,,,,,,,,,,,,,,,,,,,,,,,,,,,,,,,,,,,,,,,,,,,,,,,,,,,
,,,,,,,,,,stimuli/images/PICTURE_308.png,KIND,5b919592f5a22400012ca14e,03/04/1999,2020-09-02_12h27.16.282,proactive3.1,2020.1.2,Win32,60,5f47c29a48bd2a1e651a6eb7,5f4f817fad423e03866e5784,2,,,,,,dice,,,,,,0,52,52,54,1,6,0,,,,,,,,,,,,,,,,,,,,,,,,,,,,,,,,,,,,,,,,,,,,,,,,,,,,,,,,,,,,,,,,,,,,,,,,,,,,,,,,,,,,,,,,,,,,,,,,,,,,,,,,,,,,,
,,,,,,,,,,stimuli/images/PICTURE_688.png,CASINO,5b919592f5a22400012ca14e,03/04/1999,2020-09-02_12h27.16.282,proactive3.1,2020.1.2,Win32,60,5f47c29a48bd2a1e651a6eb7,5f4f817fad423e03866e5784,2,,,,,,runner,,,,,,0,53,53,2,1,1,0,,,,,,,,,,,,,,,,,,,,,,,,,,,,,,,,,,,,,,,,,,,,,,,,,,,,,,,,,,,,,,,,,,,,,,,,,,,,,,,,,,,,,,,,,,,,,,,,,,,,,,,,,,,,,
,,,,,,,,,,stimuli/images/PICTURE_85.png,THING,5b919592f5a22400012ca14e,03/04/1999,2020-09-02_12h27.16.282,proactive3.1,2020.1.2,Win32,60,5f47c29a48bd2a1e651a6eb7,5f4f817fad423e03866e5784,2,,,,,,diamond,,,,,,0,54,54,15,1,2,0,,,,,,,,,,,,,,,,,,,,,,,,,,,,,,,,,,,,,,,,,,,,,,,,,,,,,,,,,,,,,,,,,,,,,,,,,,,,,,,,,,,,,,,,,,,,,,,,,,,,,,,,,,,,,
,,,,,,,,,,stimuli/images/PICTURE_487.png,FLIGHT,5b919592f5a22400012ca14e,03/04/1999,2020-09-02_12h27.16.282,proactive3.1,2020.1.2,Win32,60,5f47c29a48bd2a1e651a6eb7,5f4f817fad423e03866e5784,2,,,,,,basket,,,,,,0,55,55,9,1,1,0,,,,,,,,,,,,,,,,,,,,,,,,,,,,,,,,,,,,,,,,,,,,,,,,,,,,,,,,,,,,,,,,,,,,,,,,,,,,,,,,,,,,,,,,,,,,,,,,,,,,,,,,,,,,,
,,,,,,,,,,stimuli/images/PICTURE_160.png,LEADER,5b919592f5a22400012ca14e,03/04/1999,2020-09-02_12h27.16.282,proactive3.1,2020.1.2,Win32,60,5f47c29a48bd2a1e651a6eb7,5f4f817fad423e03866e5784,2,,,,,,wheelbarrow,,,,,,0,56,56,3,1,1,0,,,,,,,,,,,,,,,,,,,,,,,,,,,,,,,,,,,,,,,,,,,,,,,,,,,,,,,,,,,,,,,,,,,,,,,,,,,,,,,,,,,,,,,,,,,,,,,,,,,,,,,,,,,,,
,,,,,,,,,,stimuli/images/PICTURE_215.png,PLENTY,5b919592f5a22400012ca14e,03/04/1999,2020-09-02_12h27.16.282,proactive3.1,2020.1.2,Win32,60,5f47c29a48bd2a1e651a6eb7,5f4f817fad423e03866e5784,2,,,,,,boot,,,,,,0,57,57,37,1,4,0,,,,,,,,,,,,,,,,,,,,,,,,,,,,,,,,,,,,,,,,,,,,,,,,,,,,,,,,,,,,,,,,,,,,,,,,,,,,,,,,,,,,,,,,,,,,,,,,,,,,,,,,,,,,,
,,,,,,,,,,stimuli/images/PICTURE_491.png,WRITER,5b919592f5a22400012ca14e,03/04/1999,2020-09-02_12h27.16.282,proactive3.1,2020.1.2,Win32,60,5f47c29a48bd2a1e651a6eb7,5f4f817fad423e03866e5784,2,,,,,,rug,,,,,,0,58,58,57,1,6,0,,,,,,,,,,,,,,,,,,,,,,,,,,,,,,,,,,,,,,,,,,,,,,,,,,,,,,,,,,,,,,,,,,,,,,,,,,,,,,,,,,,,,,,,,,,,,,,,,,,,,,,,,,,,,
,,?,0,0,,,,,,stimuli/images/PICTURE_160.png,LEADER,5b919592f5a22400012ca14e,03/04/1999,2020-09-02_12h27.16.282,proactive3.1,2020.1.2,Win32,60,5f47c29a48bd2a1e651a6eb7,5f4f817fad423e03866e5784,2,,,,,,wheelbarrow,,,,,,,,,,,1,0,0,0,0,3,1,,,,,,,,,,,,,,,,,,,,,,,,,,,,,,,,,,,,,,,,,,,,,,,,,,,,,,,,,,,,,,,,,,,,,,,,,,,,,,,,,,,,,,,,,,,,,,,,,,,,,,,,
,,?,0,0,,,,,,stimuli/images/PICTURE_32.png,JUNGLE,5b919592f5a22400012ca14e,03/04/1999,2020-09-02_12h27.16.282,proactive3.1,2020.1.2,Win32,60,5f47c29a48bd2a1e651a6eb7,5f4f817fad423e03866e5784,2,,,,,,crown,,,,,,,,,,,5,0,0,1,1,45,1,,,,,,,,,,,,,,,,,,,,,,,,,,,,,,,,,,,,,,,,,,,,,,,,,,,,,,,,,,,,,,,,,,,,,,,,,,,,,,,,,,,,,,,,,,,,,,,,,,,,,,,,
,,?,0.001,0,,,,,,stimuli/images/PICTURE_453.png,PLENTY,5b919592f5a22400012ca14e,03/04/1999,2020-09-02_12h27.16.282,proactive3.1,2020.1.2,Win32,60,5f47c29a48bd2a1e651a6eb7,5f4f817fad423e03866e5784,2,,,,,,scissors,,,,,,,,,,,6,0,0,2,2,56,1,,,,,,,,,,,,,,,,,,,,,,,,,,,,,,,,,,,,,,,,,,,,,,,,,,,,,,,,,,,,,,,,,,,,,,,,,,,,,,,,,,,,,,,,,,,,,,,,,,,,,,,,
,,?,0.003,0,,,,,,stimuli/images/PICTURE_123.png,ADVICE,5b919592f5a22400012ca14e,03/04/1999,2020-09-02_12h27.16.282,proactive3.1,2020.1.2,Win32,60,5f47c29a48bd2a1e651a6eb7,5f4f817fad423e03866e5784,2,,,,,,dart,,,,,,,,,,,6,0,0,3,3,50,1,,,,,,,,,,,,,,,,,,,,,,,,,,,,,,,,,,,,,,,,,,,,,,,,,,,,,,,,,,,,,,,,,,,,,,,,,,,,,,,,,,,,,,,,,,,,,,,,,,,,,,,,
,,?,0.001,0,,,,,,stimuli/images/PICTURE_208.png,THING,5b919592f5a22400012ca14e,03/04/1999,2020-09-02_12h27.16.282,proactive3.1,2020.1.2,Win32,60,5f47c29a48bd2a1e651a6eb7,5f4f817fad423e03866e5784,2,,,,,,microphone,,,,,,,,,,,5,0,0,4,4,47,1,,,,,,,,,,,,,,,,,,,,,,,,,,,,,,,,,,,,,,,,,,,,,,,,,,,,,,,,,,,,,,,,,,,,,,,,,,,,,,,,,,,,,,,,,,,,,,,,,,,,,,,,
,,?,0.003,0,,,,,,stimuli/images/PICTURE_469.png,LETTER,5b919592f5a22400012ca14e,03/04/1999,2020-09-02_12h27.16.282,proactive3.1,2020.1.2,Win32,60,5f47c29a48bd2a1e651a6eb7,5f4f817fad423e03866e5784,2,,,,,,stool,,,,,,,,,,,5,0,0,5,5,42,1,,,,,,,,,,,,,,,,,,,,,,,,,,,,,,,,,,,,,,,,,,,,,,,,,,,,,,,,,,,,,,,,,,,,,,,,,,,,,,,,,,,,,,,,,,,,,,,,,,,,,,,,
,,WOMEN,7.231,1,,,,,,stimuli/images/PICTURE_688.png,WOMEN,5b919592f5a22400012ca14e,03/04/1999,2020-09-02_12h27.16.282,proactive3.1,2020.1.2,Win32,60,5f47c29a48bd2a1e651a6eb7,5f4f817fad423e03866e5784,2,,,,,,runner,,,,,,,,,,,2,0,0,6,6,14,1,,,,,,,,,,,,,,,,,,,,,,,,,,,,,,,,,,,,,,,,,,,,,,,,,,,,,,,,,,,,,,,,,,,,,,,,,,,,,,,,,,,,,,,,,,,,,,,,,,,,,,,,
,,?,0.005,0,,,,,,stimuli/images/PICTURE_68.png,MILE,5b919592f5a22400012ca14e,03/04/1999,2020-09-02_12h27.16.282,proactive3.1,2020.1.2,Win32,60,5f47c29a48bd2a1e651a6eb7,5f4f817fad423e03866e5784,2,,,,,,candle,,,,,,,,,,,5,0,0,7,7,44,1,,,,,,,,,,,,,,,,,,,,,,,,,,,,,,,,,,,,,,,,,,,,,,,,,,,,,,,,,,,,,,,,,,,,,,,,,,,,,,,,,,,,,,,,,,,,,,,,,,,,,,,,
,,?,0,0,,,,,,stimuli/images/PICTURE_308.png,ESTATE,5b919592f5a22400012ca14e,03/04/1999,2020-09-02_12h27.16.282,proactive3.1,2020.1.2,Win32,60,5f47c29a48bd2a1e651a6eb7,5f4f817fad423e03866e5784,2,,,,,,dice,,,,,,,,,,,5,0,0,8,8,46,1,,,,,,,,,,,,,,,,,,,,,,,,,,,,,,,,,,,,,,,,,,,,,,,,,,,,,,,,,,,,,,,,,,,,,,,,,,,,,,,,,,,,,,,,,,,,,,,,,,,,,,,,
,,?,0.001,0,,,,,,stimuli/images/PICTURE_348.png,SPEECH,5b919592f5a22400012ca14e,03/04/1999,2020-09-02_12h27.16.282,proactive3.1,2020.1.2,Win32,60,5f47c29a48bd2a1e651a6eb7,5f4f817fad423e03866e5784,2,,,,,,pepper,,,,,,,,,,,3,0,0,9,9,20,1,,,,,,,,,,,,,,,,,,,,,,,,,,,,,,,,,,,,,,,,,,,,,,,,,,,,,,,,,,,,,,,,,,,,,,,,,,,,,,,,,,,,,,,,,,,,,,,,,,,,,,,,
,,?,0.001,0,,,,,,stimuli/images/PICTURE_311.png,FRIEND,5b919592f5a22400012ca14e,03/04/1999,2020-09-02_12h27.16.282,proactive3.1,2020.1.2,Win32,60,5f47c29a48bd2a1e651a6eb7,5f4f817fad423e03866e5784,2,,,,,,razor,,,,,,,,,,,4,0,0,10,10,34,1,,,,,,,,,,,,,,,,,,,,,,,,,,,,,,,,,,,,,,,,,,,,,,,,,,,,,,,,,,,,,,,,,,,,,,,,,,,,,,,,,,,,,,,,,,,,,,,,,,,,,,,,
,,?,0.001,0,,,,,,stimuli/images/PICTURE_177.png,CARS,5b919592f5a22400012ca14e,03/04/1999,2020-09-02_12h27.16.282,proactive3.1,2020.1.2,Win32,60,5f47c29a48bd2a1e651a6eb7,5f4f817fad423e03866e5784,2,,,,,,mushroom,,,,,,,,,,,4,0,0,11,11,35,1,,,,,,,,,,,,,,,,,,,,,,,,,,,,,,,,,,,,,,,,,,,,,,,,,,,,,,,,,,,,,,,,,,,,,,,,,,,,,,,,,,,,,,,,,,,,,,,,,,,,,,,,
,,?,0,0,,,,,,stimuli/images/PICTURE_248.png,DOZEN,5b919592f5a22400012ca14e,03/04/1999,2020-09-02_12h27.16.282,proactive3.1,2020.1.2,Win32,60,5f47c29a48bd2a1e651a6eb7,5f4f817fad423e03866e5784,2,,,,,,cart,,,,,,,,,,,4,0,0,12,12,39,1,,,,,,,,,,,,,,,,,,,,,,,,,,,,,,,,,,,,,,,,,,,,,,,,,,,,,,,,,,,,,,,,,,,,,,,,,,,,,,,,,,,,,,,,,,,,,,,,,,,,,,,,
,,?,0,0,,,,,,stimuli/images/PICTURE_233.png,WOMEN,5b919592f5a22400012ca14e,03/04/1999,2020-09-02_12h27.16.282,proactive3.1,2020.1.2,Win32,60,5f47c29a48bd2a1e651a6eb7,5f4f817fad423e03866e5784,2,,,,,,salt,,,,,,,,,,,4,0,0,13,13,38,1,,,,,,,,,,,,,,,,,,,,,,,,,,,,,,,,,,,,,,,,,,,,,,,,,,,,,,,,,,,,,,,,,,,,,,,,,,,,,,,,,,,,,,,,,,,,,,,,,,,,,,,,
,,ADVICE,8.017,1,,,,,,stimuli/images/PICTURE_285.png,ADVICE,5b919592f5a22400012ca14e,03/04/1999,2020-09-02_12h27.16.282,proactive3.1,2020.1.2,Win32,60,5f47c29a48bd2a1e651a6eb7,5f4f817fad423e03866e5784,2,,,,,,carrot,,,,,,,,,,,2,0,0,14,14,12,1,,,,,,,,,,,,,,,,,,,,,,,,,,,,,,,,,,,,,,,,,,,,,,,,,,,,,,,,,,,,,,,,,,,,,,,,,,,,,,,,,,,,,,,,,,,,,,,,,,,,,,,,
,,FAMILY,4.197,1,,,,,,stimuli/images/PICTURE_302.png,FAMILY,5b919592f5a22400012ca14e,03/04/1999,2020-09-02_12h27.16.282,proactive3.1,2020.1.2,Win32,60,5f47c29a48bd2a1e651a6eb7,5f4f817fad423e03866e5784,2,,,,,,taxi,,,,,,,,,,,2,0,0,15,15,18,1,,,,,,,,,,,,,,,,,,,,,,,,,,,,,,,,,,,,,,,,,,,,,,,,,,,,,,,,,,,,,,,,,,,,,,,,,,,,,,,,,,,,,,,,,,,,,,,,,,,,,,,,
,,?,0.006,0,,,,,,stimuli/images/PICTURE_708.png,PENNY,5b919592f5a22400012ca14e,03/04/1999,2020-09-02_12h27.16.282,proactive3.1,2020.1.2,Win32,60,5f47c29a48bd2a1e651a6eb7,5f4f817fad423e03866e5784,2,,,,,,monkey,,,,,,,,,,,4,0,0,16,16,31,1,,,,,,,,,,,,,,,,,,,,,,,,,,,,,,,,,,,,,,,,,,,,,,,,,,,,,,,,,,,,,,,,,,,,,,,,,,,,,,,,,,,,,,,,,,,,,,,,,,,,,,,,
,,?,0,0,,,,,,stimuli/images/PICTURE_380.png,DEATH,5b919592f5a22400012ca14e,03/04/1999,2020-09-02_12h27.16.282,proactive3.1,2020.1.2,Win32,60,5f47c29a48bd2a1e651a6eb7,5f4f817fad423e03866e5784,2,,,,,,gorilla,,,,,,,,,,,5,0,0,17,17,49,1,,,,,,,,,,,,,,,,,,,,,,,,,,,,,,,,,,,,,,,,,,,,,,,,,,,,,,,,,,,,,,,,,,,,,,,,,,,,,,,,,,,,,,,,,,,,,,,,,,,,,,,,
,,?,0.001,0,,,,,,stimuli/images/PICTURE_380.png,PHOTO,5b919592f5a22400012ca14e,03/04/1999,2020-09-02_12h27.16.282,proactive3.1,2020.1.2,Win32,60,5f47c29a48bd2a1e651a6eb7,5f4f817fad423e03866e5784,2,,,,,,gorilla,,,,,,,,,,,6,0,0,18,18,52,1,,,,,,,,,,,,,,,,,,,,,,,,,,,,,,,,,,,,,,,,,,,,,,,,,,,,,,,,,,,,,,,,,,,,,,,,,,,,,,,,,,,,,,,,,,,,,,,,,,,,,,,,
,,?,0.001,0,,,,,,stimuli/images/PICTURE_654.png,VALLEY,5b919592f5a22400012ca14e,03/04/1999,2020-09-02_12h27.16.282,proactive3.1,2020.1.2,Win32,60,5f47c29a48bd2a1e651a6eb7,5f4f817fad423e03866e5784,2,,,,,,pencil,,,,,,,,,,,1,0,0,19,19,1,1,,,,,,,,,,,,,,,,,,,,,,,,,,,,,,,,,,,,,,,,,,,,,,,,,,,,,,,,,,,,,,,,,,,,,,,,,,,,,,,,,,,,,,,,,,,,,,,,,,,,,,,,
,,?,0.001,0,,,,,,stimuli/images/PICTURE_667.png,BATH,5b919592f5a22400012ca14e,03/04/1999,2020-09-02_12h27.16.282,proactive3.1,2020.1.2,Win32,60,5f47c29a48bd2a1e651a6eb7,5f4f817fad423e03866e5784,2,,,,,,daisy,,,,,,,,,,,1,0,0,20,20,4,1,,,,,,,,,,,,,,,,,,,,,,,,,,,,,,,,,,,,,,,,,,,,,,,,,,,,,,,,,,,,,,,,,,,,,,,,,,,,,,,,,,,,,,,,,,,,,,,,,,,,,,,,
,,SAKE,8.418,1,,,,,,stimuli/images/PICTURE_744.png,SAKE,5b919592f5a22400012ca14e,03/04/1999,2020-09-02_12h27.16.282,proactive3.1,2020.1.2,Win32,60,5f47c29a48bd2a1e651a6eb7,5f4f817fad423e03866e5784,2,,,,,,ring,,,,,,,,,,,2,0,0,21,21,17,1,,,,,,,,,,,,,,,,,,,,,,,,,,,,,,,,,,,,,,,,,,,,,,,,,,,,,,,,,,,,,,,,,,,,,,,,,,,,,,,,,,,,,,,,,,,,,,,,,,,,,,,,
,,?,0.005,0,,,,,,stimuli/images/PICTURE_308.png,KIND,5b919592f5a22400012ca14e,03/04/1999,2020-09-02_12h27.16.282,proactive3.1,2020.1.2,Win32,60,5f47c29a48bd2a1e651a6eb7,5f4f817fad423e03866e5784,2,,,,,,dice,,,,,,,,,,,6,0,0,22,22,54,1,,,,,,,,,,,,,,,,,,,,,,,,,,,,,,,,,,,,,,,,,,,,,,,,,,,,,,,,,,,,,,,,,,,,,,,,,,,,,,,,,,,,,,,,,,,,,,,,,,,,,,,,
,,?,0,0,,,,,,stimuli/images/PICTURE_233.png,IDEAS,5b919592f5a22400012ca14e,03/04/1999,2020-09-02_12h27.16.282,proactive3.1,2020.1.2,Win32,60,5f47c29a48bd2a1e651a6eb7,5f4f817fad423e03866e5784,2,,,,,,salt,,,,,,,,,,,3,0,0,23,23,28,1,,,,,,,,,,,,,,,,,,,,,,,,,,,,,,,,,,,,,,,,,,,,,,,,,,,,,,,,,,,,,,,,,,,,,,,,,,,,,,,,,,,,,,,,,,,,,,,,,,,,,,,,
,,?,0.001,0,,,,,,stimuli/images/PICTURE_469.png,ARTIST,5b919592f5a22400012ca14e,03/04/1999,2020-09-02_12h27.16.282,proactive3.1,2020.1.2,Win32,60,5f47c29a48bd2a1e651a6eb7,5f4f817fad423e03866e5784,2,,,,,,stool,,,,,,,,,,,1,0,0,24,24,6,1,,,,,,,,,,,,,,,,,,,,,,,,,,,,,,,,,,,,,,,,,,,,,,,,,,,,,,,,,,,,,,,,,,,,,,,,,,,,,,,,,,,,,,,,,,,,,,,,,,,,,,,,
,,?,0,0,,,,,,stimuli/images/PICTURE_470.png,CASINO,5b919592f5a22400012ca14e,03/04/1999,2020-09-02_12h27.16.282,proactive3.1,2020.1.2,Win32,60,5f47c29a48bd2a1e651a6eb7,5f4f817fad423e03866e5784,2,,,,,,motorbike,,,,,,,,,,,4,0,0,25,25,36,1,,,,,,,,,,,,,,,,,,,,,,,,,,,,,,,,,,,,,,,,,,,,,,,,,,,,,,,,,,,,,,,,,,,,,,,,,,,,,,,,,,,,,,,,,,,,,,,,,,,,,,,,
,,?,0.001,0,,,,,,stimuli/images/PICTURE_215.png,PLENTY,5b919592f5a22400012ca14e,03/04/1999,2020-09-02_12h27.16.282,proactive3.1,2020.1.2,Win32,60,5f47c29a48bd2a1e651a6eb7,5f4f817fad423e03866e5784,2,,,,,,boot,,,,,,,,,,,4,0,0,26,26,37,1,,,,,,,,,,,,,,,,,,,,,,,,,,,,,,,,,,,,,,,,,,,,,,,,,,,,,,,,,,,,,,,,,,,,,,,,,,,,,,,,,,,,,,,,,,,,,,,,,,,,,,,,
,,?,0,0,,,,,,stimuli/images/PICTURE_487.png,FLIGHT,5b919592f5a22400012ca14e,03/04/1999,2020-09-02_12h27.16.282,proactive3.1,2020.1.2,Win32,60,5f47c29a48bd2a1e651a6eb7,5f4f817fad423e03866e5784,2,,,,,,basket,,,,,,,,,,,1,0,0,27,27,9,1,,,,,,,,,,,,,,,,,,,,,,,,,,,,,,,,,,,,,,,,,,,,,,,,,,,,,,,,,,,,,,,,,,,,,,,,,,,,,,,,,,,,,,,,,,,,,,,,,,,,,,,,
,,?,0,0,,,,,,stimuli/images/PICTURE_708.png,YARD,5b919592f5a22400012ca14e,03/04/1999,2020-09-02_12h27.16.282,proactive3.1,2020.1.2,Win32,60,5f47c29a48bd2a1e651a6eb7,5f4f817fad423e03866e5784,2,,,,,,monkey,,,,,,,,,,,3,0,0,28,28,29,1,,,,,,,,,,,,,,,,,,,,,,,,,,,,,,,,,,,,,,,,,,,,,,,,,,,,,,,,,,,,,,,,,,,,,,,,,,,,,,,,,,,,,,,,,,,,,,,,,,,,,,,,
,,?,0,0,,,,,,stimuli/images/PICTURE_708.png,CLIENT,5b919592f5a22400012ca14e,03/04/1999,2020-09-02_12h27.16.282,proactive3.1,2020.1.2,Win32,60,5f47c29a48bd2a1e651a6eb7,5f4f817fad423e03866e5784,2,,,,,,monkey,,,,,,,,,,,1,0,0,29,29,5,1,,,,,,,,,,,,,,,,,,,,,,,,,,,,,,,,,,,,,,,,,,,,,,,,,,,,,,,,,,,,,,,,,,,,,,,,,,,,,,,,,,,,,,,,,,,,,,,,,,,,,,,,
,,?,0.001,0,,,,,,stimuli/images/PICTURE_327.png,BEAUTY,5b919592f5a22400012ca14e,03/04/1999,2020-09-02_12h27.16.282,proactive3.1,2020.1.2,Win32,60,5f47c29a48bd2a1e651a6eb7,5f4f817fad423e03866e5784,2,,,,,,helmet,,,,,,,,,,,5,0,0,30,30,48,1,,,,,,,,,,,,,,,,,,,,,,,,,,,,,,,,,,,,,,,,,,,,,,,,,,,,,,,,,,,,,,,,,,,,,,,,,,,,,,,,,,,,,,,,,,,,,,,,,,,,,,,,
,,?,0.002,0,,,,,,stimuli/images/PICTURE_95.png,STYLE,5b919592f5a22400012ca14e,03/04/1999,2020-09-02_12h27.16.282,proactive3.1,2020.1.2,Win32,60,5f47c29a48bd2a1e651a6eb7,5f4f817fad423e03866e5784,2,,,,,,suitcase,,,,,,,,,,,3,0,0,31,31,25,1,,,,,,,,,,,,,,,,,,,,,,,,,,,,,,,,,,,,,,,,,,,,,,,,,,,,,,,,,,,,,,,,,,,,,,,,,,,,,,,,,,,,,,,,,,,,,,,,,,,,,,,,
,,?,0.001,0,,,,,,stimuli/images/PICTURE_677.png,MILE,5b919592f5a22400012ca14e,03/04/1999,2020-09-02_12h27.16.282,proactive3.1,2020.1.2,Win32,60,5f47c29a48bd2a1e651a6eb7,5f4f817fad423e03866e5784,2,,,,,,map,,,,,,,,,,,4,0,0,32,32,30,1,,,,,,,,,,,,,,,,,,,,,,,,,,,,,,,,,,,,,,,,,,,,,,,,,,,,,,,,,,,,,,,,,,,,,,,,,,,,,,,,,,,,,,,,,,,,,,,,,,,,,,,,
,,?,0,0,,,,,,stimuli/images/PICTURE_123.png,ADVICE,5b919592f5a22400012ca14e,03/04/1999,2020-09-02_12h27.16.282,proactive3.1,2020.1.2,Win32,60,5f47c29a48bd2a1e651a6eb7,5f4f817fad423e03866e5784,2,,,,,,dart,,,,,,,,,,,5,0,0,33,33,40,1,,,,,,,,,,,,,,,,,,,,,,,,,,,,,,,,,,,,,,,,,,,,,,,,,,,,,,,,,,,,,,,,,,,,,,,,,,,,,,,,,,,,,,,,,,,,,,,,,,,,,,,,
,,?,0.001,0,,,,,,stimuli/images/PICTURE_688.png,CASINO,5b919592f5a22400012ca14e,03/04/1999,2020-09-02_12h27.16.282,proactive3.1,2020.1.2,Win32,60,5f47c29a48bd2a1e651a6eb7,5f4f817fad423e03866e5784,2,,,,,,runner,,,,,,,,,,,1,0,0,34,34,2,1,,,,,,,,,,,,,,,,,,,,,,,,,,,,,,,,,,,,,,,,,,,,,,,,,,,,,,,,,,,,,,,,,,,,,,,,,,,,,,,,,,,,,,,,,,,,,,,,,,,,,,,,
,,?,0.001,0,,,,,,stimuli/images/PICTURE_255.png,AREA,5b919592f5a22400012ca14e,03/04/1999,2020-09-02_12h27.16.282,proactive3.1,2020.1.2,Win32,60,5f47c29a48bd2a1e651a6eb7,5f4f817fad423e03866e5784,2,,,,,,shovel,,,,,,,,,,,3,0,0,35,35,22,1,,,,,,,,,,,,,,,,,,,,,,,,,,,,,,,,,,,,,,,,,,,,,,,,,,,,,,,,,,,,,,,,,,,,,,,,,,,,,,,,,,,,,,,,,,,,,,,,,,,,,,,,
,,?,0,0,,,,,,stimuli/images/PICTURE_339.png,PLENTY,5b919592f5a22400012ca14e,03/04/1999,2020-09-02_12h27.16.282,proactive3.1,2020.1.2,Win32,60,5f47c29a48bd2a1e651a6eb7,5f4f817fad423e03866e5784,2,,,,,,backpack,,,,,,,,,,,1,0,0,36,36,0,1,,,,,,,,,,,,,,,,,,,,,,,,,,,,,,,,,,,,,,,,,,,,,,,,,,,,,,,,,,,,,,,,,,,,,,,,,,,,,,,,,,,,,,,,,,,,,,,,,,,,,,,,
,,?,0,0,,,,,,stimuli/images/PICTURE_147.png,MOMENT,5b919592f5a22400012ca14e,03/04/1999,2020-09-02_12h27.16.282,proactive3.1,2020.1.2,Win32,60,5f47c29a48bd2a1e651a6eb7,5f4f817fad423e03866e5784,2,,,,,,hanger,,,,,,,,,,,6,0,0,37,37,51,1,,,,,,,,,,,,,,,,,,,,,,,,,,,,,,,,,,,,,,,,,,,,,,,,,,,,,,,,,,,,,,,,,,,,,,,,,,,,,,,,,,,,,,,,,,,,,,,,,,,,,,,,
,,?,0.001,0,,,,,,stimuli/images/PICTURE_504.png,BODY,5b919592f5a22400012ca14e,03/04/1999,2020-09-02_12h27.16.282,proactive3.1,2020.1.2,Win32,60,5f47c29a48bd2a1e651a6eb7,5f4f817fad423e03866e5784,2,,,,,,wheel,,,,,,,,,,,1,0,0,38,38,8,1,,,,,,,,,,,,,,,,,,,,,,,,,,,,,,,,,,,,,,,,,,,,,,,,,,,,,,,,,,,,,,,,,,,,,,,,,,,,,,,,,,,,,,,,,,,,,,,,,,,,,,,,
,,?,0,0,,,,,,stimuli/images/PICTURE_491.png,ROOF,5b919592f5a22400012ca14e,03/04/1999,2020-09-02_12h27.16.282,proactive3.1,2020.1.2,Win32,60,5f47c29a48bd2a1e651a6eb7,5f4f817fad423e03866e5784,2,,,,,,rug,,,,,,,,,,,3,0,0,39,39,24,1,,,,,,,,,,,,,,,,,,,,,,,,,,,,,,,,,,,,,,,,,,,,,,,,,,,,,,,,,,,,,,,,,,,,,,,,,,,,,,,,,,,,,,,,,,,,,,,,,,,,,,,,
,,BEAUTIFUL,11.382,0,,,,,,stimuli/images/PICTURE_311.png,BEAUTY,5b919592f5a22400012ca14e,03/04/1999,2020-09-02_12h27.16.282,proactive3.1,2020.1.2,Win32,60,5f47c29a48bd2a1e651a6eb7,5f4f817fad423e03866e5784,2,,,,,,razor,,,,,,,,,,,2,0,0,40,40,13,1,,,,,,,,,,,,,,,,,,,,,,,,,,,,,,,,,,,,,,,,,,,,,,,,,,,,,,,,,,,,,,,,,,,,,,,,,,,,,,,,,,,,,,,,,,,,,,,,,,,,,,,,
,,LOADS,7.58,0,,,,,,stimuli/images/PICTURE_208.png,LOTS,5b919592f5a22400012ca14e,03/04/1999,2020-09-02_12h27.16.282,proactive3.1,2020.1.2,Win32,60,5f47c29a48bd2a1e651a6eb7,5f4f817fad423e03866e5784,2,,,,,,microphone,,,,,,,,,,,2,0,0,41,41,10,1,,,,,,,,,,,,,,,,,,,,,,,,,,,,,,,,,,,,,,,,,,,,,,,,,,,,,,,,,,,,,,,,,,,,,,,,,,,,,,,,,,,,,,,,,,,,,,,,,,,,,,,,
,,?,0.004,0,,,,,,stimuli/images/PICTURE_744.png,SYSTEM,5b919592f5a22400012ca14e,03/04/1999,2020-09-02_12h27.16.282,proactive3.1,2020.1.2,Win32,60,5f47c29a48bd2a1e651a6eb7,5f4f817fad423e03866e5784,2,,,,,,ring,,,,,,,,,,,5,0,0,42,42,43,1,,,,,,,,,,,,,,,,,,,,,,,,,,,,,,,,,,,,,,,,,,,,,,,,,,,,,,,,,,,,,,,,,,,,,,,,,,,,,,,,,,,,,,,,,,,,,,,,,,,,,,,,
,,?,0.001,0,,,,,,stimuli/images/PICTURE_208.png,MONTH,5b919592f5a22400012ca14e,03/04/1999,2020-09-02_12h27.16.282,proactive3.1,2020.1.2,Win32,60,5f47c29a48bd2a1e651a6eb7,5f4f817fad423e03866e5784,2,,,,,,microphone,,,,,,,,,,,6,0,0,43,43,53,1,,,,,,,,,,,,,,,,,,,,,,,,,,,,,,,,,,,,,,,,,,,,,,,,,,,,,,,,,,,,,,,,,,,,,,,,,,,,,,,,,,,,,,,,,,,,,,,,,,,,,,,,
,,?,0.001,0,,,,,,stimuli/images/PICTURE_160.png,FEET,5b919592f5a22400012ca14e,03/04/1999,2020-09-02_12h27.16.282,proactive3.1,2020.1.2,Win32,60,5f47c29a48bd2a1e651a6eb7,5f4f817fad423e03866e5784,2,,,,,,wheelbarrow,,,,,,,,,,,6,0,0,44,44,58,1,,,,,,,,,,,,,,,,,,,,,,,,,,,,,,,,,,,,,,,,,,,,,,,,,,,,,,,,,,,,,,,,,,,,,,,,,,,,,,,,,,,,,,,,,,,,,,,,,,,,,,,,
,,?,0.001,0,,,,,,stimuli/images/PICTURE_449.png,THING,5b919592f5a22400012ca14e,03/04/1999,2020-09-02_12h27.16.282,proactive3.1,2020.1.2,Win32,60,5f47c29a48bd2a1e651a6eb7,5f4f817fad423e03866e5784,2,,,,,,bench,,,,,,,,,,,6,0,0,45,45,59,1,,,,,,,,,,,,,,,,,,,,,,,,,,,,,,,,,,,,,,,,,,,,,,,,,,,,,,,,,,,,,,,,,,,,,,,,,,,,,,,,,,,,,,,,,,,,,,,,,,,,,,,,
,,GODS,3.554,1,,,,,,stimuli/images/PICTURE_314.png,GODS,5b919592f5a22400012ca14e,03/04/1999,2020-09-02_12h27.16.282,proactive3.1,2020.1.2,Win32,60,5f47c29a48bd2a1e651a6eb7,5f4f817fad423e03866e5784,2,,,,,,perfume,,,,,,,,,,,2,0,0,46,46,11,1,,,,,,,,,,,,,,,,,,,,,,,,,,,,,,,,,,,,,,,,,,,,,,,,,,,,,,,,,,,,,,,,,,,,,,,,,,,,,,,,,,,,,,,,,,,,,,,,,,,,,,,,
,,MONTH,7.697,1,,,,,,stimuli/images/PICTURE_692.png,MONTH,5b919592f5a22400012ca14e,03/04/1999,2020-09-02_12h27.16.282,proactive3.1,2020.1.2,Win32,60,5f47c29a48bd2a1e651a6eb7,5f4f817fad423e03866e5784,2,,,,,,cherry,,,,,,,,,,,2,0,0,47,47,16,1,,,,,,,,,,,,,,,,,,,,,,,,,,,,,,,,,,,,,,,,,,,,,,,,,,,,,,,,,,,,,,,,,,,,,,,,,,,,,,,,,,,,,,,,,,,,,,,,,,,,,,,,
,,GRILL,10.413,0,,,,,,stimuli/images/PICTURE_151.png,GIRL,5b919592f5a22400012ca14e,03/04/1999,2020-09-02_12h27.16.282,proactive3.1,2020.1.2,Win32,60,5f47c29a48bd2a1e651a6eb7,5f4f817fad423e03866e5784,2,,,,,,tray,,,,,,,,,,,2,0,0,48,48,19,1,,,,,,,,,,,,,,,,,,,,,,,,,,,,,,,,,,,,,,,,,,,,,,,,,,,,,,,,,,,,,,,,,,,,,,,,,,,,,,,,,,,,,,,,,,,,,,,,,,,,,,,,
,,THING,4.098,1,,,,,,stimuli/images/PICTURE_85.png,THING,5b919592f5a22400012ca14e,03/04/1999,2020-09-02_12h27.16.282,proactive3.1,2020.1.2,Win32,60,5f47c29a48bd2a1e651a6eb7,5f4f817fad423e03866e5784,2,,,,,,diamond,,,,,,,,,,,2,0,0,49,49,15,1,,,,,,,,,,,,,,,,,,,,,,,,,,,,,,,,,,,,,,,,,,,,,,,,,,,,,,,,,,,,,,,,,,,,,,,,,,,,,,,,,,,,,,,,,,,,,,,,,,,,,,,,
,,?,0.003,0,,,,,,stimuli/images/PICTURE_314.png,SAKE,5b919592f5a22400012ca14e,03/04/1999,2020-09-02_12h27.16.282,proactive3.1,2020.1.2,Win32,60,5f47c29a48bd2a1e651a6eb7,5f4f817fad423e03866e5784,2,,,,,,perfume,,,,,,,,,,,1,0,0,50,50,7,1,,,,,,,,,,,,,,,,,,,,,,,,,,,,,,,,,,,,,,,,,,,,,,,,,,,,,,,,,,,,,,,,,,,,,,,,,,,,,,,,,,,,,,,,,,,,,,,,,,,,,,,,
,,?,0.001,0,,,,,,stimuli/images/PICTURE_667.png,PLENTY,5b919592f5a22400012ca14e,03/04/1999,2020-09-02_12h27.16.282,proactive3.1,2020.1.2,Win32,60,5f47c29a48bd2a1e651a6eb7,5f4f817fad423e03866e5784,2,,,,,,daisy,,,,,,,,,,,5,0,0,51,51,41,1,,,,,,,,,,,,,,,,,,,,,,,,,,,,,,,,,,,,,,,,,,,,,,,,,,,,,,,,,,,,,,,,,,,,,,,,,,,,,,,,,,,,,,,,,,,,,,,,,,,,,,,,
,,?,0,0,,,,,,stimuli/images/PICTURE_509.png,PHOTO,5b919592f5a22400012ca14e,03/04/1999,2020-09-02_12h27.16.282,proactive3.1,2020.1.2,Win32,60,5f47c29a48bd2a1e651a6eb7,5f4f817fad423e03866e5784,2,,,,,,telephone,,,,,,,,,,,3,0,0,52,52,21,1,,,,,,,,,,,,,,,,,,,,,,,,,,,,,,,,,,,,,,,,,,,,,,,,,,,,,,,,,,,,,,,,,,,,,,,,,,,,,,,,,,,,,,,,,,,,,,,,,,,,,,,,
,,?,0,0,,,,,,stimuli/images/PICTURE_467.png,DEMON,5b919592f5a22400012ca14e,03/04/1999,2020-09-02_12h27.16.282,proactive3.1,2020.1.2,Win32,60,5f47c29a48bd2a1e651a6eb7,5f4f817fad423e03866e5784,2,,,,,,peg,,,,,,,,,,,3,0,0,53,53,23,1,,,,,,,,,,,,,,,,,,,,,,,,,,,,,,,,,,,,,,,,,,,,,,,,,,,,,,,,,,,,,,,,,,,,,,,,,,,,,,,,,,,,,,,,,,,,,,,,,,,,,,,,
,,?,0.001,0,,,,,,stimuli/images/PICTURE_356.png,DANGER,5b919592f5a22400012ca14e,03/04/1999,2020-09-02_12h27.16.282,proactive3.1,2020.1.2,Win32,60,5f47c29a48bd2a1e651a6eb7,5f4f817fad423e03866e5784,2,,,,,,pawn,,,,,,,,,,,6,0,0,54,54,55,1,,,,,,,,,,,,,,,,,,,,,,,,,,,,,,,,,,,,,,,,,,,,,,,,,,,,,,,,,,,,,,,,,,,,,,,,,,,,,,,,,,,,,,,,,,,,,,,,,,,,,,,,
,,?,0,0,,,,,,stimuli/images/PICTURE_491.png,WRITER,5b919592f5a22400012ca14e,03/04/1999,2020-09-02_12h27.16.282,proactive3.1,2020.1.2,Win32,60,5f47c29a48bd2a1e651a6eb7,5f4f817fad423e03866e5784,2,,,,,,rug,,,,,,,,,,,6,0,0,55,55,57,1,,,,,,,,,,,,,,,,,,,,,,,,,,,,,,,,,,,,,,,,,,,,,,,,,,,,,,,,,,,,,,,,,,,,,,,,,,,,,,,,,,,,,,,,,,,,,,,,,,,,,,,,
,,?,0.001,0,,,,,,stimuli/images/PICTURE_675.png,WEAPON,5b919592f5a22400012ca14e,03/04/1999,2020-09-02_12h27.16.282,proactive3.1,2020.1.2,Win32,60,5f47c29a48bd2a1e651a6eb7,5f4f817fad423e03866e5784,2,,,,,,windmill,,,,,,,,,,,4,0,0,56,56,32,1,,,,,,,,,,,,,,,,,,,,,,,,,,,,,,,,,,,,,,,,,,,,,,,,,,,,,,,,,,,,,,,,,,,,,,,,,,,,,,,,,,,,,,,,,,,,,,,,,,,,,,,,
,,?,0.001,0,,,,,,stimuli/images/PICTURE_488.png,STYLE,5b919592f5a22400012ca14e,03/04/1999,2020-09-02_12h27.16.282,proactive3.1,2020.1.2,Win32,60,5f47c29a48bd2a1e651a6eb7,5f4f817fad423e03866e5784,2,,,,,,sun,,,,,,,,,,,4,0,0,57,57,33,1,,,,,,,,,,,,,,,,,,,,,,,,,,,,,,,,,,,,,,,,,,,,,,,,,,,,,,,,,,,,,,,,,,,,,,,,,,,,,,,,,,,,,,,,,,,,,,,,,,,,,,,,
,,?,0.002,0,,,,,,stimuli/images/PICTURE_203.png,ARTIST,5b919592f5a22400012ca14e,03/04/1999,2020-09-02_12h27.16.282,proactive3.1,2020.1.2,Win32,60,5f47c29a48bd2a1e651a6eb7,5f4f817fad423e03866e5784,2,,,,,,cap,,,,,,,,,,,3,0,0,58,58,26,1,,,,,,,,,,,,,,,,,,,,,,,,,,,,,,,,,,,,,,,,,,,,,,,,,,,,,,,,,,,,,,,,,,,,,,,,,,,,,,,,,,,,,,,,,,,,,,,,,,,,,,,,
,,?,0.001,0,,,,,,stimuli/images/PICTURE_453.png,DUDE,5b919592f5a22400012ca14e,03/04/1999,2020-09-02_12h27.16.282,proactive3.1,2020.1.2,Win32,60,5f47c29a48bd2a1e651a6eb7,5f4f817fad423e03866e5784,2,,,,,,scissors,,,,,,,,,,,3,0,0,59,59,27,1,,,,,,,,,,,,,,,,,,,,,,,,,,,,,,,,,,,,,,,,,,,,,,,,,,,,,,,,,,,,,,,,,,,,,,,,,,,,,,,,,,,,,,,,,,,,,,,,,,,,,,,,
,,,,,,,,,,,,5b919592f5a22400012ca14e,03/04/1999,2020-09-02_12h27.16.282,proactive3.1,2020.1.2,Win32,60,5f47c29a48bd2a1e651a6eb7,5f4f817fad423e03866e5784,2,,,,,,,,,,,,,,,,,,,,,,,,0,0,0,0,1,stimuli/learn-block1.csv,,,,,,,,,,,,,,,,,,,,,,,,,,,,,,,,,,,,,,,,,,,,,,,,,,,,,,,,,,,,,,,,,,,,,,,,,,,,,,,,,,,,,,,,,,,,,,,,,,
,,,,,,,,,,stimuli/images/PICTURE_32.png,LETTER,5b919592f5a22400012ca14e,03/04/1999,2020-09-02_12h27.16.282,proactive3.1,2020.1.2,Win32,60,5f47c29a48bd2a1e651a6eb7,5f4f817fad423e03866e5784,2,,,,,,crown,,,,,,0,0,0,56,1,6,2,,,,,,,,,,,,,,,,,,,,,,,,,,,,,,,,,,,,,,,,,,,,,,,,,,,,,,,,,,,,,,,,,,,,,,,,,,,,,,,,,,,,,,,,,,,,,,,,,,,,,,,,,,,,,
,,,,,,,,,,stimuli/images/PICTURE_654.png,YEAR,5b919592f5a22400012ca14e,03/04/1999,2020-09-02_12h27.16.282,proactive3.1,2020.1.2,Win32,60,5f47c29a48bd2a1e651a6eb7,5f4f817fad423e03866e5784,2,,,,,,pencil,,,,,,0,1,1,41,1,5,2,,,,,,,,,,,,,,,,,,,,,,,,,,,,,,,,,,,,,,,,,,,,,,,,,,,,,,,,,,,,,,,,,,,,,,,,,,,,,,,,,,,,,,,,,,,,,,,,,,,,,,,,,,,,,
,,,,,,,,,,stimuli/images/PICTURE_123.png,SALE,5b919592f5a22400012ca14e,03/04/1999,2020-09-02_12h27.16.282,proactive3.1,2020.1.2,Win32,60,5f47c29a48bd2a1e651a6eb7,5f4f817fad423e03866e5784,2,,,,,,dart,,,,,,0,2,2,8,1,1,2,,,,,,,,,,,,,,,,,,,,,,,,,,,,,,,,,,,,,,,,,,,,,,,,,,,,,,,,,,,,,,,,,,,,,,,,,,,,,,,,,,,,,,,,,,,,,,,,,,,,,,,,,,,,,
,,,,,,,,,,stimuli/images/PICTURE_95.png,NIGHT,5b919592f5a22400012ca14e,03/04/1999,2020-09-02_12h27.16.282,proactive3.1,2020.1.2,Win32,60,5f47c29a48bd2a1e651a6eb7,5f4f817fad423e03866e5784,2,,,,,,suitcase,,,,,,0,3,3,37,1,4,2,,,,,,,,,,,,,,,,,,,,,,,,,,,,,,,,,,,,,,,,,,,,,,,,,,,,,,,,,,,,,,,,,,,,,,,,,,,,,,,,,,,,,,,,,,,,,,,,,,,,,,,,,,,,,
,,,,,,,,,,stimuli/images/PICTURE_18.png,RIVER,5b919592f5a22400012ca14e,03/04/1999,2020-09-02_12h27.16.282,proactive3.1,2020.1.2,Win32,60,5f47c29a48bd2a1e651a6eb7,5f4f817fad423e03866e5784,2,,,,,,planet,,,,,,0,4,4,22,1,3,2,,,,,,,,,,,,,,,,,,,,,,,,,,,,,,,,,,,,,,,,,,,,,,,,,,,,,,,,,,,,,,,,,,,,,,,,,,,,,,,,,,,,,,,,,,,,,,,,,,,,,,,,,,,,,
,,,,,,,,,,stimuli/images/PICTURE_405.png,JUNGLE,5b919592f5a22400012ca14e,03/04/1999,2020-09-02_12h27.16.282,proactive3.1,2020.1.2,Win32,60,5f47c29a48bd2a1e651a6eb7,5f4f817fad423e03866e5784,2,,,,,,anchor,,,,,,0,5,5,58,1,6,2,,,,,,,,,,,,,,,,,,,,,,,,,,,,,,,,,,,,,,,,,,,,,,,,,,,,,,,,,,,,,,,,,,,,,,,,,,,,,,,,,,,,,,,,,,,,,,,,,,,,,,,,,,,,,
,,,,,,,,,,stimuli/images/PICTURE_692.png,DUDE,5b919592f5a22400012ca14e,03/04/1999,2020-09-02_12h27.16.282,proactive3.1,2020.1.2,Win32,60,5f47c29a48bd2a1e651a6eb7,5f4f817fad423e03866e5784,2,,,,,,cherry,,,,,,0,6,6,47,1,5,2,,,,,,,,,,,,,,,,,,,,,,,,,,,,,,,,,,,,,,,,,,,,,,,,,,,,,,,,,,,,,,,,,,,,,,,,,,,,,,,,,,,,,,,,,,,,,,,,,,,,,,,,,,,,,
,,,,,,,,,,stimuli/images/PICTURE_141.png,CLIENT,5b919592f5a22400012ca14e,03/04/1999,2020-09-02_12h27.16.282,proactive3.1,2020.1.2,Win32,60,5f47c29a48bd2a1e651a6eb7,5f4f817fad423e03866e5784,2,,,,,,sunflower,,,,,,0,7,7,30,1,4,2,,,,,,,,,,,,,,,,,,,,,,,,,,,,,,,,,,,,,,,,,,,,,,,,,,,,,,,,,,,,,,,,,,,,,,,,,,,,,,,,,,,,,,,,,,,,,,,,,,,,,,,,,,,,,
,,,,,,,,,,stimuli/images/PICTURE_147.png,LEADER,5b919592f5a22400012ca14e,03/04/1999,2020-09-02_12h27.16.282,proactive3.1,2020.1.2,Win32,60,5f47c29a48bd2a1e651a6eb7,5f4f817fad423e03866e5784,2,,,,,,hanger,,,,,,0,8,8,33,1,4,2,,,,,,,,,,,,,,,,,,,,,,,,,,,,,,,,,,,,,,,,,,,,,,,,,,,,,,,,,,,,,,,,,,,,,,,,,,,,,,,,,,,,,,,,,,,,,,,,,,,,,,,,,,,,,
,,,,,,,,,,stimuli/images/PICTURE_509.png,APPLE,5b919592f5a22400012ca14e,03/04/1999,2020-09-02_12h27.16.282,proactive3.1,2020.1.2,Win32,60,5f47c29a48bd2a1e651a6eb7,5f4f817fad423e03866e5784,2,,,,,,telephone,,,,,,0,9,9,38,1,4,2,,,,,,,,,,,,,,,,,,,,,,,,,,,,,,,,,,,,,,,,,,,,,,,,,,,,,,,,,,,,,,,,,,,,,,,,,,,,,,,,,,,,,,,,,,,,,,,,,,,,,,,,,,,,,
,,,,,,,,,,stimuli/images/PICTURE_452.png,COPS,5b919592f5a22400012ca14e,03/04/1999,2020-09-02_12h27.16.282,proactive3.1,2020.1.2,Win32,60,5f47c29a48bd2a1e651a6eb7,5f4f817fad423e03866e5784,2,,,,,,watch,,,,,,0,10,10,0,1,1,2,,,,,,,,,,,,,,,,,,,,,,,,,,,,,,,,,,,,,,,,,,,,,,,,,,,,,,,,,,,,,,,,,,,,,,,,,,,,,,,,,,,,,,,,,,,,,,,,,,,,,,,,,,,,,
,,,,,,,,,,stimuli/images/PICTURE_504.png,HOUSE,5b919592f5a22400012ca14e,03/04/1999,2020-09-02_12h27.16.282,proactive3.1,2020.1.2,Win32,60,5f47c29a48bd2a1e651a6eb7,5f4f817fad423e03866e5784,2,,,,,,wheel,,,,,,0,11,11,36,1,4,2,,,,,,,,,,,,,,,,,,,,,,,,,,,,,,,,,,,,,,,,,,,,,,,,,,,,,,,,,,,,,,,,,,,,,,,,,,,,,,,,,,,,,,,,,,,,,,,,,,,,,,,,,,,,,
,,,,,,,,,,stimuli/images/PICTURE_314.png,SPEECH,5b919592f5a22400012ca14e,03/04/1999,2020-09-02_12h27.16.282,proactive3.1,2020.1.2,Win32,60,5f47c29a48bd2a1e651a6eb7,5f4f817fad423e03866e5784,2,,,,,,perfume,,,,,,0,12,12,35,1,4,2,,,,,,,,,,,,,,,,,,,,,,,,,,,,,,,,,,,,,,,,,,,,,,,,,,,,,,,,,,,,,,,,,,,,,,,,,,,,,,,,,,,,,,,,,,,,,,,,,,,,,,,,,,,,,
,,,,,,,,,,stimuli/images/PICTURE_348.png,DUDE,5b919592f5a22400012ca14e,03/04/1999,2020-09-02_12h27.16.282,proactive3.1,2020.1.2,Win32,60,5f47c29a48bd2a1e651a6eb7,5f4f817fad423e03866e5784,2,,,,,,pepper,,,,,,0,13,13,59,1,6,2,,,,,,,,,,,,,,,,,,,,,,,,,,,,,,,,,,,,,,,,,,,,,,,,,,,,,,,,,,,,,,,,,,,,,,,,,,,,,,,,,,,,,,,,,,,,,,,,,,,,,,,,,,,,,
,,,,,,,,,,stimuli/images/PICTURE_356.png,CANDY,5b919592f5a22400012ca14e,03/04/1999,2020-09-02_12h27.16.282,proactive3.1,2020.1.2,Win32,60,5f47c29a48bd2a1e651a6eb7,5f4f817fad423e03866e5784,2,,,,,,pawn,,,,,,0,14,14,46,1,5,2,,,,,,,,,,,,,,,,,,,,,,,,,,,,,,,,,,,,,,,,,,,,,,,,,,,,,,,,,,,,,,,,,,,,,,,,,,,,,,,,,,,,,,,,,,,,,,,,,,,,,,,,,,,,,
,,,,,,,,,,stimuli/images/PICTURE_564.png,PLENTY,5b919592f5a22400012ca14e,03/04/1999,2020-09-02_12h27.16.282,proactive3.1,2020.1.2,Win32,60,5f47c29a48bd2a1e651a6eb7,5f4f817fad423e03866e5784,2,,,,,,spoon,,,,,,0,15,15,11,1,2,2,,,,,,,,,,,,,,,,,,,,,,,,,,,,,,,,,,,,,,,,,,,,,,,,,,,,,,,,,,,,,,,,,,,,,,,,,,,,,,,,,,,,,,,,,,,,,,,,,,,,,,,,,,,,,
,,,,,,,,,,stimuli/images/PICTURE_509.png,BATH,5b919592f5a22400012ca14e,03/04/1999,2020-09-02_12h27.16.282,proactive3.1,2020.1.2,Win32,60,5f47c29a48bd2a1e651a6eb7,5f4f817fad423e03866e5784,2,,,,,,telephone,,,,,,0,16,16,15,1,2,2,,,,,,,,,,,,,,,,,,,,,,,,,,,,,,,,,,,,,,,,,,,,,,,,,,,,,,,,,,,,,,,,,,,,,,,,,,,,,,,,,,,,,,,,,,,,,,,,,,,,,,,,,,,,,
,,,,,,,,,,stimuli/images/PICTURE_403.png,FAMILY,5b919592f5a22400012ca14e,03/04/1999,2020-09-02_12h27.16.282,proactive3.1,2020.1.2,Win32,60,5f47c29a48bd2a1e651a6eb7,5f4f817fad423e03866e5784,2,,,,,,cathedral,,,,,,0,17,17,9,1,1,2,,,,,,,,,,,,,,,,,,,,,,,,,,,,,,,,,,,,,,,,,,,,,,,,,,,,,,,,,,,,,,,,,,,,,,,,,,,,,,,,,,,,,,,,,,,,,,,,,,,,,,,,,,,,,
,,,,,,,,,,stimuli/images/PICTURE_285.png,WRITER,5b919592f5a22400012ca14e,03/04/1999,2020-09-02_12h27.16.282,proactive3.1,2020.1.2,Win32,60,5f47c29a48bd2a1e651a6eb7,5f4f817fad423e03866e5784,2,,,,,,carrot,,,,,,0,18,18,6,1,1,2,,,,,,,,,,,,,,,,,,,,,,,,,,,,,,,,,,,,,,,,,,,,,,,,,,,,,,,,,,,,,,,,,,,,,,,,,,,,,,,,,,,,,,,,,,,,,,,,,,,,,,,,,,,,,
,,,,,,,,,,stimuli/images/PICTURE_311.png,FLESH,5b919592f5a22400012ca14e,03/04/1999,2020-09-02_12h27.16.282,proactive3.1,2020.1.2,Win32,60,5f47c29a48bd2a1e651a6eb7,5f4f817fad423e03866e5784,2,,,,,,razor,,,,,,0,19,19,3,1,1,2,,,,,,,,,,,,,,,,,,,,,,,,,,,,,,,,,,,,,,,,,,,,,,,,,,,,,,,,,,,,,,,,,,,,,,,,,,,,,,,,,,,,,,,,,,,,,,,,,,,,,,,,,,,,,
,,,,,,,,,,stimuli/images/PICTURE_348.png,TOILET,5b919592f5a22400012ca14e,03/04/1999,2020-09-02_12h27.16.282,proactive3.1,2020.1.2,Win32,60,5f47c29a48bd2a1e651a6eb7,5f4f817fad423e03866e5784,2,,,,,,pepper,,,,,,0,20,20,4,1,1,2,,,,,,,,,,,,,,,,,,,,,,,,,,,,,,,,,,,,,,,,,,,,,,,,,,,,,,,,,,,,,,,,,,,,,,,,,,,,,,,,,,,,,,,,,,,,,,,,,,,,,,,,,,,,,
,,,,,,,,,,stimuli/images/PICTURE_57.png,NATION,5b919592f5a22400012ca14e,03/04/1999,2020-09-02_12h27.16.282,proactive3.1,2020.1.2,Win32,60,5f47c29a48bd2a1e651a6eb7,5f4f817fad423e03866e5784,2,,,,,,stamp,,,,,,0,21,21,21,1,3,2,,,,,,,,,,,,,,,,,,,,,,,,,,,,,,,,,,,,,,,,,,,,,,,,,,,,,,,,,,,,,,,,,,,,,,,,,,,,,,,,,,,,,,,,,,,,,,,,,,,,,,,,,,,,,
,,,,,,,,,,stimuli/images/PICTURE_509.png,SHOTS,5b919592f5a22400012ca14e,03/04/1999,2020-09-02_12h27.16.282,proactive3.1,2020.1.2,Win32,60,5f47c29a48bd2a1e651a6eb7,5f4f817fad423e03866e5784,2,,,,,,telephone,,,,,,0,22,22,7,1,1,2,,,,,,,,,,,,,,,,,,,,,,,,,,,,,,,,,,,,,,,,,,,,,,,,,,,,,,,,,,,,,,,,,,,,,,,,,,,,,,,,,,,,,,,,,,,,,,,,,,,,,,,,,,,,,
,,,,,,,,,,stimuli/images/PICTURE_2.png,AREA,5b919592f5a22400012ca14e,03/04/1999,2020-09-02_12h27.16.282,proactive3.1,2020.1.2,Win32,60,5f47c29a48bd2a1e651a6eb7,5f4f817fad423e03866e5784,2,,,,,,tyre,,,,,,0,23,23,32,1,4,2,,,,,,,,,,,,,,,,,,,,,,,,,,,,,,,,,,,,,,,,,,,,,,,,,,,,,,,,,,,,,,,,,,,,,,,,,,,,,,,,,,,,,,,,,,,,,,,,,,,,,,,,,,,,,
,,,,,,,,,,stimuli/images/PICTURE_57.png,CASINO,5b919592f5a22400012ca14e,03/04/1999,2020-09-02_12h27.16.282,proactive3.1,2020.1.2,Win32,60,5f47c29a48bd2a1e651a6eb7,5f4f817fad423e03866e5784,2,,,,,,stamp,,,,,,0,24,24,12,1,2,2,,,,,,,,,,,,,,,,,,,,,,,,,,,,,,,,,,,,,,,,,,,,,,,,,,,,,,,,,,,,,,,,,,,,,,,,,,,,,,,,,,,,,,,,,,,,,,,,,,,,,,,,,,,,,
,,,,,,,,,,stimuli/images/PICTURE_405.png,HOUSE,5b919592f5a22400012ca14e,03/04/1999,2020-09-02_12h27.16.282,proactive3.1,2020.1.2,Win32,60,5f47c29a48bd2a1e651a6eb7,5f4f817fad423e03866e5784,2,,,,,,anchor,,,,,,0,25,25,2,1,1,2,,,,,,,,,,,,,,,,,,,,,,,,,,,,,,,,,,,,,,,,,,,,,,,,,,,,,,,,,,,,,,,,,,,,,,,,,,,,,,,,,,,,,,,,,,,,,,,,,,,,,,,,,,,,,
,,,,,,,,,,stimuli/images/PICTURE_470.png,MOMENT,5b919592f5a22400012ca14e,03/04/1999,2020-09-02_12h27.16.282,proactive3.1,2020.1.2,Win32,60,5f47c29a48bd2a1e651a6eb7,5f4f817fad423e03866e5784,2,,,,,,motorbike,,,,,,0,26,26,40,1,5,2,,,,,,,,,,,,,,,,,,,,,,,,,,,,,,,,,,,,,,,,,,,,,,,,,,,,,,,,,,,,,,,,,,,,,,,,,,,,,,,,,,,,,,,,,,,,,,,,,,,,,,,,,,,,,
,,,,,,,,,,stimuli/images/PICTURE_470.png,BEAUTY,5b919592f5a22400012ca14e,03/04/1999,2020-09-02_12h27.16.282,proactive3.1,2020.1.2,Win32,60,5f47c29a48bd2a1e651a6eb7,5f4f817fad423e03866e5784,2,,,,,,motorbike,,,,,,0,27,27,26,1,3,2,,,,,,,,,,,,,,,,,,,,,,,,,,,,,,,,,,,,,,,,,,,,,,,,,,,,,,,,,,,,,,,,,,,,,,,,,,,,,,,,,,,,,,,,,,,,,,,,,,,,,,,,,,,,,
,,,,,,,,,,stimuli/images/PICTURE_296.png,CLOCK,5b919592f5a22400012ca14e,03/04/1999,2020-09-02_12h27.16.282,proactive3.1,2020.1.2,Win32,60,5f47c29a48bd2a1e651a6eb7,5f4f817fad423e03866e5784,2,,,,,,bolt,,,,,,0,28,28,18,1,2,2,,,,,,,,,,,,,,,,,,,,,,,,,,,,,,,,,,,,,,,,,,,,,,,,,,,,,,,,,,,,,,,,,,,,,,,,,,,,,,,,,,,,,,,,,,,,,,,,,,,,,,,,,,,,,
,,,,,,,,,,stimuli/images/PICTURE_285.png,PRINCE,5b919592f5a22400012ca14e,03/04/1999,2020-09-02_12h27.16.282,proactive3.1,2020.1.2,Win32,60,5f47c29a48bd2a1e651a6eb7,5f4f817fad423e03866e5784,2,,,,,,carrot,,,,,,0,29,29,20,1,3,2,,,,,,,,,,,,,,,,,,,,,,,,,,,,,,,,,,,,,,,,,,,,,,,,,,,,,,,,,,,,,,,,,,,,,,,,,,,,,,,,,,,,,,,,,,,,,,,,,,,,,,,,,,,,,
,,,,,,,,,,stimuli/images/PICTURE_68.png,KIND,5b919592f5a22400012ca14e,03/04/1999,2020-09-02_12h27.16.282,proactive3.1,2020.1.2,Win32,60,5f47c29a48bd2a1e651a6eb7,5f4f817fad423e03866e5784,2,,,,,,candle,,,,,,0,30,30,23,1,3,2,,,,,,,,,,,,,,,,,,,,,,,,,,,,,,,,,,,,,,,,,,,,,,,,,,,,,,,,,,,,,,,,,,,,,,,,,,,,,,,,,,,,,,,,,,,,,,,,,,,,,,,,,,,,,
,,,,,,,,,,stimuli/images/PICTURE_453.png,FAMILY,5b919592f5a22400012ca14e,03/04/1999,2020-09-02_12h27.16.282,proactive3.1,2020.1.2,Win32,60,5f47c29a48bd2a1e651a6eb7,5f4f817fad423e03866e5784,2,,,,,,scissors,,,,,,0,31,31,48,1,5,2,,,,,,,,,,,,,,,,,,,,,,,,,,,,,,,,,,,,,,,,,,,,,,,,,,,,,,,,,,,,,,,,,,,,,,,,,,,,,,,,,,,,,,,,,,,,,,,,,,,,,,,,,,,,,
,,,,,,,,,,stimuli/images/PICTURE_750.png,POLICY,5b919592f5a22400012ca14e,03/04/1999,2020-09-02_12h27.16.282,proactive3.1,2020.1.2,Win32,60,5f47c29a48bd2a1e651a6eb7,5f4f817fad423e03866e5784,2,,,,,,kettle,,,,,,0,32,32,44,1,5,2,,,,,,,,,,,,,,,,,,,,,,,,,,,,,,,,,,,,,,,,,,,,,,,,,,,,,,,,,,,,,,,,,,,,,,,,,,,,,,,,,,,,,,,,,,,,,,,,,,,,,,,,,,,,,
,,,,,,,,,,stimuli/images/PICTURE_667.png,GLASS,5b919592f5a22400012ca14e,03/04/1999,2020-09-02_12h27.16.282,proactive3.1,2020.1.2,Win32,60,5f47c29a48bd2a1e651a6eb7,5f4f817fad423e03866e5784,2,,,,,,daisy,,,,,,0,33,33,27,1,3,2,,,,,,,,,,,,,,,,,,,,,,,,,,,,,,,,,,,,,,,,,,,,,,,,,,,,,,,,,,,,,,,,,,,,,,,,,,,,,,,,,,,,,,,,,,,,,,,,,,,,,,,,,,,,,
,,,,,,,,,,stimuli/images/PICTURE_33.png,COPS,5b919592f5a22400012ca14e,03/04/1999,2020-09-02_12h27.16.282,proactive3.1,2020.1.2,Win32,60,5f47c29a48bd2a1e651a6eb7,5f4f817fad423e03866e5784,2,,,,,,frame,,,,,,0,34,34,29,1,3,2,,,,,,,,,,,,,,,,,,,,,,,,,,,,,,,,,,,,,,,,,,,,,,,,,,,,,,,,,,,,,,,,,,,,,,,,,,,,,,,,,,,,,,,,,,,,,,,,,,,,,,,,,,,,,
,,,,,,,,,,stimuli/images/PICTURE_654.png,COPS,5b919592f5a22400012ca14e,03/04/1999,2020-09-02_12h27.16.282,proactive3.1,2020.1.2,Win32,60,5f47c29a48bd2a1e651a6eb7,5f4f817fad423e03866e5784,2,,,,,,pencil,,,,,,0,35,35,10,1,2,2,,,,,,,,,,,,,,,,,,,,,,,,,,,,,,,,,,,,,,,,,,,,,,,,,,,,,,,,,,,,,,,,,,,,,,,,,,,,,,,,,,,,,,,,,,,,,,,,,,,,,,,,,,,,,
,,,,,,,,,,stimuli/images/PICTURE_327.png,LEADER,5b919592f5a22400012ca14e,03/04/1999,2020-09-02_12h27.16.282,proactive3.1,2020.1.2,Win32,60,5f47c29a48bd2a1e651a6eb7,5f4f817fad423e03866e5784,2,,,,,,helmet,,,,,,0,36,36,17,1,2,2,,,,,,,,,,,,,,,,,,,,,,,,,,,,,,,,,,,,,,,,,,,,,,,,,,,,,,,,,,,,,,,,,,,,,,,,,,,,,,,,,,,,,,,,,,,,,,,,,,,,,,,,,,,,,
,,,,,,,,,,stimuli/images/PICTURE_405.png,JUNGLE,5b919592f5a22400012ca14e,03/04/1999,2020-09-02_12h27.16.282,proactive3.1,2020.1.2,Win32,60,5f47c29a48bd2a1e651a6eb7,5f4f817fad423e03866e5784,2,,,,,,anchor,,,,,,0,37,37,13,1,2,2,,,,,,,,,,,,,,,,,,,,,,,,,,,,,,,,,,,,,,,,,,,,,,,,,,,,,,,,,,,,,,,,,,,,,,,,,,,,,,,,,,,,,,,,,,,,,,,,,,,,,,,,,,,,,
,,,,,,,,,,stimuli/images/PICTURE_93.png,GIRL,5b919592f5a22400012ca14e,03/04/1999,2020-09-02_12h27.16.282,proactive3.1,2020.1.2,Win32,60,5f47c29a48bd2a1e651a6eb7,5f4f817fad423e03866e5784,2,,,,,,skateboard,,,,,,0,38,38,31,1,4,2,,,,,,,,,,,,,,,,,,,,,,,,,,,,,,,,,,,,,,,,,,,,,,,,,,,,,,,,,,,,,,,,,,,,,,,,,,,,,,,,,,,,,,,,,,,,,,,,,,,,,,,,,,,,,
,,,,,,,,,,stimuli/images/PICTURE_255.png,PENNY,5b919592f5a22400012ca14e,03/04/1999,2020-09-02_12h27.16.282,proactive3.1,2020.1.2,Win32,60,5f47c29a48bd2a1e651a6eb7,5f4f817fad423e03866e5784,2,,,,,,shovel,,,,,,0,39,39,19,1,2,2,,,,,,,,,,,,,,,,,,,,,,,,,,,,,,,,,,,,,,,,,,,,,,,,,,,,,,,,,,,,,,,,,,,,,,,,,,,,,,,,,,,,,,,,,,,,,,,,,,,,,,,,,,,,,
,,,,,,,,,,stimuli/images/PICTURE_311.png,TOILET,5b919592f5a22400012ca14e,03/04/1999,2020-09-02_12h27.16.282,proactive3.1,2020.1.2,Win32,60,5f47c29a48bd2a1e651a6eb7,5f4f817fad423e03866e5784,2,,,,,,razor,,,,,,0,40,40,54,1,6,2,,,,,,,,,,,,,,,,,,,,,,,,,,,,,,,,,,,,,,,,,,,,,,,,,,,,,,,,,,,,,,,,,,,,,,,,,,,,,,,,,,,,,,,,,,,,,,,,,,,,,,,,,,,,,
,,,,,,,,,,stimuli/images/PICTURE_297.png,BODY,5b919592f5a22400012ca14e,03/04/1999,2020-09-02_12h27.16.282,proactive3.1,2020.1.2,Win32,60,5f47c29a48bd2a1e651a6eb7,5f4f817fad423e03866e5784,2,,,,,,aeroplane,,,,,,0,41,41,51,1,6,2,,,,,,,,,,,,,,,,,,,,,,,,,,,,,,,,,,,,,,,,,,,,,,,,,,,,,,,,,,,,,,,,,,,,,,,,,,,,,,,,,,,,,,,,,,,,,,,,,,,,,,,,,,,,,
,,,,,,,,,,stimuli/images/PICTURE_177.png,HOUSE,5b919592f5a22400012ca14e,03/04/1999,2020-09-02_12h27.16.282,proactive3.1,2020.1.2,Win32,60,5f47c29a48bd2a1e651a6eb7,5f4f817fad423e03866e5784,2,,,,,,mushroom,,,,,,0,42,42,25,1,3,2,,,,,,,,,,,,,,,,,,,,,,,,,,,,,,,,,,,,,,,,,,,,,,,,,,,,,,,,,,,,,,,,,,,,,,,,,,,,,,,,,,,,,,,,,,,,,,,,,,,,,,,,,,,,,
,,,,,,,,,,stimuli/images/PICTURE_487.png,POLICY,5b919592f5a22400012ca14e,03/04/1999,2020-09-02_12h27.16.282,proactive3.1,2020.1.2,Win32,60,5f47c29a48bd2a1e651a6eb7,5f4f817fad423e03866e5784,2,,,,,,basket,,,,,,0,43,43,34,1,4,2,,,,,,,,,,,,,,,,,,,,,,,,,,,,,,,,,,,,,,,,,,,,,,,,,,,,,,,,,,,,,,,,,,,,,,,,,,,,,,,,,,,,,,,,,,,,,,,,,,,,,,,,,,,,,
,,,,,,,,,,stimuli/images/PICTURE_677.png,PHOTO,5b919592f5a22400012ca14e,03/04/1999,2020-09-02_12h27.16.282,proactive3.1,2020.1.2,Win32,60,5f47c29a48bd2a1e651a6eb7,5f4f817fad423e03866e5784,2,,,,,,map,,,,,,0,44,44,14,1,2,2,,,,,,,,,,,,,,,,,,,,,,,,,,,,,,,,,,,,,,,,,,,,,,,,,,,,,,,,,,,,,,,,,,,,,,,,,,,,,,,,,,,,,,,,,,,,,,,,,,,,,,,,,,,,,
,,,,,,,,,,stimuli/images/PICTURE_677.png,FAMILY,5b919592f5a22400012ca14e,03/04/1999,2020-09-02_12h27.16.282,proactive3.1,2020.1.2,Win32,60,5f47c29a48bd2a1e651a6eb7,5f4f817fad423e03866e5784,2,,,,,,map,,,,,,0,45,45,53,1,6,2,,,,,,,,,,,,,,,,,,,,,,,,,,,,,,,,,,,,,,,,,,,,,,,,,,,,,,,,,,,,,,,,,,,,,,,,,,,,,,,,,,,,,,,,,,,,,,,,,,,,,,,,,,,,,
,,,,,,,,,,stimuli/images/PICTURE_215.png,FOOD,5b919592f5a22400012ca14e,03/04/1999,2020-09-02_12h27.16.282,proactive3.1,2020.1.2,Win32,60,5f47c29a48bd2a1e651a6eb7,5f4f817fad423e03866e5784,2,,,,,,boot,,,,,,0,46,46,5,1,1,2,,,,,,,,,,,,,,,,,,,,,,,,,,,,,,,,,,,,,,,,,,,,,,,,,,,,,,,,,,,,,,,,,,,,,,,,,,,,,,,,,,,,,,,,,,,,,,,,,,,,,,,,,,,,,
,,,,,,,,,,stimuli/images/PICTURE_215.png,BOYS,5b919592f5a22400012ca14e,03/04/1999,2020-09-02_12h27.16.282,proactive3.1,2020.1.2,Win32,60,5f47c29a48bd2a1e651a6eb7,5f4f817fad423e03866e5784,2,,,,,,boot,,,,,,0,47,47,24,1,3,2,,,,,,,,,,,,,,,,,,,,,,,,,,,,,,,,,,,,,,,,,,,,,,,,,,,,,,,,,,,,,,,,,,,,,,,,,,,,,,,,,,,,,,,,,,,,,,,,,,,,,,,,,,,,,
,,,,,,,,,,stimuli/images/PICTURE_708.png,VALLEY,5b919592f5a22400012ca14e,03/04/1999,2020-09-02_12h27.16.282,proactive3.1,2020.1.2,Win32,60,5f47c29a48bd2a1e651a6eb7,5f4f817fad423e03866e5784,2,,,,,,monkey,,,,,,0,48,48,45,1,5,2,,,,,,,,,,,,,,,,,,,,,,,,,,,,,,,,,,,,,,,,,,,,,,,,,,,,,,,,,,,,,,,,,,,,,,,,,,,,,,,,,,,,,,,,,,,,,,,,,,,,,,,,,,,,,
,,,,,,,,,,stimuli/images/PICTURE_215.png,LEADER,5b919592f5a22400012ca14e,03/04/1999,2020-09-02_12h27.16.282,proactive3.1,2020.1.2,Win32,60,5f47c29a48bd2a1e651a6eb7,5f4f817fad423e03866e5784,2,,,,,,boot,,,,,,0,49,49,43,1,5,2,,,,,,,,,,,,,,,,,,,,,,,,,,,,,,,,,,,,,,,,,,,,,,,,,,,,,,,,,,,,,,,,,,,,,,,,,,,,,,,,,,,,,,,,,,,,,,,,,,,,,,,,,,,,,
,,,,,,,,,,stimuli/images/PICTURE_688.png,CLOCK,5b919592f5a22400012ca14e,03/04/1999,2020-09-02_12h27.16.282,proactive3.1,2020.1.2,Win32,60,5f47c29a48bd2a1e651a6eb7,5f4f817fad423e03866e5784,2,,,,,,runner,,,,,,0,50,50,42,1,5,2,,,,,,,,,,,,,,,,,,,,,,,,,,,,,,,,,,,,,,,,,,,,,,,,,,,,,,,,,,,,,,,,,,,,,,,,,,,,,,,,,,,,,,,,,,,,,,,,,,,,,,,,,,,,,
,,,,,,,,,,stimuli/images/PICTURE_2.png,YARD,5b919592f5a22400012ca14e,03/04/1999,2020-09-02_12h27.16.282,proactive3.1,2020.1.2,Win32,60,5f47c29a48bd2a1e651a6eb7,5f4f817fad423e03866e5784,2,,,,,,tyre,,,,,,0,51,51,55,1,6,2,,,,,,,,,,,,,,,,,,,,,,,,,,,,,,,,,,,,,,,,,,,,,,,,,,,,,,,,,,,,,,,,,,,,,,,,,,,,,,,,,,,,,,,,,,,,,,,,,,,,,,,,,,,,,
,,,,,,,,,,stimuli/images/PICTURE_2.png,JUNGLE,5b919592f5a22400012ca14e,03/04/1999,2020-09-02_12h27.16.282,proactive3.1,2020.1.2,Win32,60,5f47c29a48bd2a1e651a6eb7,5f4f817fad423e03866e5784,2,,,,,,tyre,,,,,,0,52,52,1,1,1,2,,,,,,,,,,,,,,,,,,,,,,,,,,,,,,,,,,,,,,,,,,,,,,,,,,,,,,,,,,,,,,,,,,,,,,,,,,,,,,,,,,,,,,,,,,,,,,,,,,,,,,,,,,,,,
,,,,,,,,,,stimuli/images/PICTURE_509.png,MILLER,5b919592f5a22400012ca14e,03/04/1999,2020-09-02_12h27.16.282,proactive3.1,2020.1.2,Win32,60,5f47c29a48bd2a1e651a6eb7,5f4f817fad423e03866e5784,2,,,,,,telephone,,,,,,0,53,53,49,1,5,2,,,,,,,,,,,,,,,,,,,,,,,,,,,,,,,,,,,,,,,,,,,,,,,,,,,,,,,,,,,,,,,,,,,,,,,,,,,,,,,,,,,,,,,,,,,,,,,,,,,,,,,,,,,,,
,,,,,,,,,,stimuli/images/PICTURE_160.png,HOTEL,5b919592f5a22400012ca14e,03/04/1999,2020-09-02_12h27.16.282,proactive3.1,2020.1.2,Win32,60,5f47c29a48bd2a1e651a6eb7,5f4f817fad423e03866e5784,2,,,,,,wheelbarrow,,,,,,0,54,54,16,1,2,2,,,,,,,,,,,,,,,,,,,,,,,,,,,,,,,,,,,,,,,,,,,,,,,,,,,,,,,,,,,,,,,,,,,,,,,,,,,,,,,,,,,,,,,,,,,,,,,,,,,,,,,,,,,,,
,,,,,,,,,,stimuli/images/PICTURE_491.png,SERIES,5b919592f5a22400012ca14e,03/04/1999,2020-09-02_12h27.16.282,proactive3.1,2020.1.2,Win32,60,5f47c29a48bd2a1e651a6eb7,5f4f817fad423e03866e5784,2,,,,,,rug,,,,,,0,55,55,39,1,4,2,,,,,,,,,,,,,,,,,,,,,,,,,,,,,,,,,,,,,,,,,,,,,,,,,,,,,,,,,,,,,,,,,,,,,,,,,,,,,,,,,,,,,,,,,,,,,,,,,,,,,,,,,,,,,
,,,,,,,,,,stimuli/images/PICTURE_208.png,SPIRIT,5b919592f5a22400012ca14e,03/04/1999,2020-09-02_12h27.16.282,proactive3.1,2020.1.2,Win32,60,5f47c29a48bd2a1e651a6eb7,5f4f817fad423e03866e5784,2,,,,,,microphone,,,,,,0,56,56,28,1,3,2,,,,,,,,,,,,,,,,,,,,,,,,,,,,,,,,,,,,,,,,,,,,,,,,,,,,,,,,,,,,,,,,,,,,,,,,,,,,,,,,,,,,,,,,,,,,,,,,,,,,,,,,,,,,,
,,,,,,,,,,stimuli/images/PICTURE_57.png,CANDY,5b919592f5a22400012ca14e,03/04/1999,2020-09-02_12h27.16.282,proactive3.1,2020.1.2,Win32,60,5f47c29a48bd2a1e651a6eb7,5f4f817fad423e03866e5784,2,,,,,,stamp,,,,,,0,57,57,52,1,6,2,,,,,,,,,,,,,,,,,,,,,,,,,,,,,,,,,,,,,,,,,,,,,,,,,,,,,,,,,,,,,,,,,,,,,,,,,,,,,,,,,,,,,,,,,,,,,,,,,,,,,,,,,,,,,
,,,,,,,,,,stimuli/images/PICTURE_487.png,ROOF,5b919592f5a22400012ca14e,03/04/1999,2020-09-02_12h27.16.282,proactive3.1,2020.1.2,Win32,60,5f47c29a48bd2a1e651a6eb7,5f4f817fad423e03866e5784,2,,,,,,basket,,,,,,0,58,58,50,1,6,2,,,,,,,,,,,,,,,,,,,,,,,,,,,,,,,,,,,,,,,,,,,,,,,,,,,,,,,,,,,,,,,,,,,,,,,,,,,,,,,,,,,,,,,,,,,,,,,,,,,,,,,,,,,,,
,,?,0.001,0,,,,,,stimuli/images/PICTURE_68.png,KIND,5b919592f5a22400012ca14e,03/04/1999,2020-09-02_12h27.16.282,proactive3.1,2020.1.2,Win32,60,5f47c29a48bd2a1e651a6eb7,5f4f817fad423e03866e5784,2,,,,,,candle,,,,,,,,,,,3,2,0,0,0,23,1,,,,,,,,,,,,,,,,,,,,,,,,,,,,,,,,,,,,,,,,,,,,,,,,,,,,,,,,,,,,,,,,,,,,,,,,,,,,,,,,,,,,,,,,,,,,,,,,,,,,,,,,
,,?,0.001,0,,,,,,stimuli/images/PICTURE_405.png,HOUSE,5b919592f5a22400012ca14e,03/04/1999,2020-09-02_12h27.16.282,proactive3.1,2020.1.2,Win32,60,5f47c29a48bd2a1e651a6eb7,5f4f817fad423e03866e5784,2,,,,,,anchor,,,,,,,,,,,1,2,0,1,1,2,1,,,,,,,,,,,,,,,,,,,,,,,,,,,,,,,,,,,,,,,,,,,,,,,,,,,,,,,,,,,,,,,,,,,,,,,,,,,,,,,,,,,,,,,,,,,,,,,,,,,,,,,,
,,CASINO,3.185,1,,,,,,stimuli/images/PICTURE_57.png,CASINO,5b919592f5a22400012ca14e,03/04/1999,2020-09-02_12h27.16.282,proactive3.1,2020.1.2,Win32,60,5f47c29a48bd2a1e651a6eb7,5f4f817fad423e03866e5784,2,,,,,,stamp,,,,,,,,,,,2,2,0,2,2,12,1,,,,,,,,,,,,,,,,,,,,,,,,,,,,,,,,,,,,,,,,,,,,,,,,,,,,,,,,,,,,,,,,,,,,,,,,,,,,,,,,,,,,,,,,,,,,,,,,,,,,,,,,
,,?,0.006,0,,,,,,stimuli/images/PICTURE_314.png,SPEECH,5b919592f5a22400012ca14e,03/04/1999,2020-09-02_12h27.16.282,proactive3.1,2020.1.2,Win32,60,5f47c29a48bd2a1e651a6eb7,5f4f817fad423e03866e5784,2,,,,,,perfume,,,,,,,,,,,4,2,0,3,3,35,1,,,,,,,,,,,,,,,,,,,,,,,,,,,,,,,,,,,,,,,,,,,,,,,,,,,,,,,,,,,,,,,,,,,,,,,,,,,,,,,,,,,,,,,,,,,,,,,,,,,,,,,,
,,?,0.001,0,,,,,,stimuli/images/PICTURE_688.png,CLOCK,5b919592f5a22400012ca14e,03/04/1999,2020-09-02_12h27.16.282,proactive3.1,2020.1.2,Win32,60,5f47c29a48bd2a1e651a6eb7,5f4f817fad423e03866e5784,2,,,,,,runner,,,,,,,,,,,5,2,0,4,4,42,1,,,,,,,,,,,,,,,,,,,,,,,,,,,,,,,,,,,,,,,,,,,,,,,,,,,,,,,,,,,,,,,,,,,,,,,,,,,,,,,,,,,,,,,,,,,,,,,,,,,,,,,,
,,?,0,0,,,,,,stimuli/images/PICTURE_57.png,CANDY,5b919592f5a22400012ca14e,03/04/1999,2020-09-02_12h27.16.282,proactive3.1,2020.1.2,Win32,60,5f47c29a48bd2a1e651a6eb7,5f4f817fad423e03866e5784,2,,,,,,stamp,,,,,,,,,,,6,2,0,5,5,52,1,,,,,,,,,,,,,,,,,,,,,,,,,,,,,,,,,,,,,,,,,,,,,,,,,,,,,,,,,,,,,,,,,,,,,,,,,,,,,,,,,,,,,,,,,,,,,,,,,,,,,,,,
,,?,0,0,,,,,,stimuli/images/PICTURE_504.png,HOUSE,5b919592f5a22400012ca14e,03/04/1999,2020-09-02_12h27.16.282,proactive3.1,2020.1.2,Win32,60,5f47c29a48bd2a1e651a6eb7,5f4f817fad423e03866e5784,2,,,,,,wheel,,,,,,,,,,,4,2,0,6,6,36,1,,,,,,,,,,,,,,,,,,,,,,,,,,,,,,,,,,,,,,,,,,,,,,,,,,,,,,,,,,,,,,,,,,,,,,,,,,,,,,,,,,,,,,,,,,,,,,,,,,,,,,,,
,,?,0.001,0,,,,,,stimuli/images/PICTURE_285.png,WRITER,5b919592f5a22400012ca14e,03/04/1999,2020-09-02_12h27.16.282,proactive3.1,2020.1.2,Win32,60,5f47c29a48bd2a1e651a6eb7,5f4f817fad423e03866e5784,2,,,,,,carrot,,,,,,,,,,,1,2,0,7,7,6,1,,,,,,,,,,,,,,,,,,,,,,,,,,,,,,,,,,,,,,,,,,,,,,,,,,,,,,,,,,,,,,,,,,,,,,,,,,,,,,,,,,,,,,,,,,,,,,,,,,,,,,,,
,,?,0.001,0,,,,,,stimuli/images/PICTURE_311.png,FLESH,5b919592f5a22400012ca14e,03/04/1999,2020-09-02_12h27.16.282,proactive3.1,2020.1.2,Win32,60,5f47c29a48bd2a1e651a6eb7,5f4f817fad423e03866e5784,2,,,,,,razor,,,,,,,,,,,1,2,0,8,8,3,1,,,,,,,,,,,,,,,,,,,,,,,,,,,,,,,,,,,,,,,,,,,,,,,,,,,,,,,,,,,,,,,,,,,,,,,,,,,,,,,,,,,,,,,,,,,,,,,,,,,,,,,,
,,?,0,0,,,,,,stimuli/images/PICTURE_509.png,APPLE,5b919592f5a22400012ca14e,03/04/1999,2020-09-02_12h27.16.282,proactive3.1,2020.1.2,Win32,60,5f47c29a48bd2a1e651a6eb7,5f4f817fad423e03866e5784,2,,,,,,telephone,,,,,,,,,,,4,2,0,9,9,38,1,,,,,,,,,,,,,,,,,,,,,,,,,,,,,,,,,,,,,,,,,,,,,,,,,,,,,,,,,,,,,,,,,,,,,,,,,,,,,,,,,,,,,,,,,,,,,,,,,,,,,,,,
,,?,0,0,,,,,,stimuli/images/PICTURE_677.png,FAMILY,5b919592f5a22400012ca14e,03/04/1999,2020-09-02_12h27.16.282,proactive3.1,2020.1.2,Win32,60,5f47c29a48bd2a1e651a6eb7,5f4f817fad423e03866e5784,2,,,,,,map,,,,,,,,,,,6,2,0,10,10,53,1,,,,,,,,,,,,,,,,,,,,,,,,,,,,,,,,,,,,,,,,,,,,,,,,,,,,,,,,,,,,,,,,,,,,,,,,,,,,,,,,,,,,,,,,,,,,,,,,,,,,,,,,
,,?,0.001,0,,,,,,stimuli/images/PICTURE_18.png,RIVER,5b919592f5a22400012ca14e,03/04/1999,2020-09-02_12h27.16.282,proactive3.1,2020.1.2,Win32,60,5f47c29a48bd2a1e651a6eb7,5f4f817fad423e03866e5784,2,,,,,,planet,,,,,,,,,,,3,2,0,11,11,22,1,,,,,,,,,,,,,,,,,,,,,,,,,,,,,,,,,,,,,,,,,,,,,,,,,,,,,,,,,,,,,,,,,,,,,,,,,,,,,,,,,,,,,,,,,,,,,,,,,,,,,,,,
,,?,0.002,0,,,,,,stimuli/images/PICTURE_750.png,POLICY,5b919592f5a22400012ca14e,03/04/1999,2020-09-02_12h27.16.282,proactive3.1,2020.1.2,Win32,60,5f47c29a48bd2a1e651a6eb7,5f4f817fad423e03866e5784,2,,,,,,kettle,,,,,,,,,,,5,2,0,12,12,44,1,,,,,,,,,,,,,,,,,,,,,,,,,,,,,,,,,,,,,,,,,,,,,,,,,,,,,,,,,,,,,,,,,,,,,,,,,,,,,,,,,,,,,,,,,,,,,,,,,,,,,,,,
,,?,0.001,0,,,,,,stimuli/images/PICTURE_356.png,CANDY,5b919592f5a22400012ca14e,03/04/1999,2020-09-02_12h27.16.282,proactive3.1,2020.1.2,Win32,60,5f47c29a48bd2a1e651a6eb7,5f4f817fad423e03866e5784,2,,,,,,pawn,,,,,,,,,,,5,2,0,13,13,46,1,,,,,,,,,,,,,,,,,,,,,,,,,,,,,,,,,,,,,,,,,,,,,,,,,,,,,,,,,,,,,,,,,,,,,,,,,,,,,,,,,,,,,,,,,,,,,,,,,,,,,,,,
,,?,0,0,,,,,,stimuli/images/PICTURE_491.png,SERIES,5b919592f5a22400012ca14e,03/04/1999,2020-09-02_12h27.16.282,proactive3.1,2020.1.2,Win32,60,5f47c29a48bd2a1e651a6eb7,5f4f817fad423e03866e5784,2,,,,,,rug,,,,,,,,,,,4,2,0,14,14,39,1,,,,,,,,,,,,,,,,,,,,,,,,,,,,,,,,,,,,,,,,,,,,,,,,,,,,,,,,,,,,,,,,,,,,,,,,,,,,,,,,,,,,,,,,,,,,,,,,,,,,,,,,
,,?,0,0,,,,,,stimuli/images/PICTURE_348.png,TOILET,5b919592f5a22400012ca14e,03/04/1999,2020-09-02_12h27.16.282,proactive3.1,2020.1.2,Win32,60,5f47c29a48bd2a1e651a6eb7,5f4f817fad423e03866e5784,2,,,,,,pepper,,,,,,,,,,,1,2,0,15,15,4,1,,,,,,,,,,,,,,,,,,,,,,,,,,,,,,,,,,,,,,,,,,,,,,,,,,,,,,,,,,,,,,,,,,,,,,,,,,,,,,,,,,,,,,,,,,,,,,,,,,,,,,,,
,,?,0,0,,,,,,stimuli/images/PICTURE_215.png,FOOD,5b919592f5a22400012ca14e,03/04/1999,2020-09-02_12h27.16.282,proactive3.1,2020.1.2,Win32,60,5f47c29a48bd2a1e651a6eb7,5f4f817fad423e03866e5784,2,,,,,,boot,,,,,,,,,,,1,2,0,16,16,5,1,,,,,,,,,,,,,,,,,,,,,,,,,,,,,,,,,,,,,,,,,,,,,,,,,,,,,,,,,,,,,,,,,,,,,,,,,,,,,,,,,,,,,,,,,,,,,,,,,,,,,,,,
,,HOTEL,8.69,1,,,,,,stimuli/images/PICTURE_160.png,HOTEL,5b919592f5a22400012ca14e,03/04/1999,2020-09-02_12h27.16.282,proactive3.1,2020.1.2,Win32,60,5f47c29a48bd2a1e651a6eb7,5f4f817fad423e03866e5784,2,,,,,,wheelbarrow,,,,,,,,,,,2,2,0,17,17,16,1,,,,,,,,,,,,,,,,,,,,,,,,,,,,,,,,,,,,,,,,,,,,,,,,,,,,,,,,,,,,,,,,,,,,,,,,,,,,,,,,,,,,,,,,,,,,,,,,,,,,,,,,
,,?,0.006,0,,,,,,stimuli/images/PICTURE_348.png,DUDE,5b919592f5a22400012ca14e,03/04/1999,2020-09-02_12h27.16.282,proactive3.1,2020.1.2,Win32,60,5f47c29a48bd2a1e651a6eb7,5f4f817fad423e03866e5784,2,,,,,,pepper,,,,,,,,,,,6,2,0,18,18,59,1,,,,,,,,,,,,,,,,,,,,,,,,,,,,,,,,,,,,,,,,,,,,,,,,,,,,,,,,,,,,,,,,,,,,,,,,,,,,,,,,,,,,,,,,,,,,,,,,,,,,,,,,
,,?,0.001,0,,,,,,stimuli/images/PICTURE_470.png,BEAUTY,5b919592f5a22400012ca14e,03/04/1999,2020-09-02_12h27.16.282,proactive3.1,2020.1.2,Win32,60,5f47c29a48bd2a1e651a6eb7,5f4f817fad423e03866e5784,2,,,,,,motorbike,,,,,,,,,,,3,2,0,19,19,26,1,,,,,,,,,,,,,,,,,,,,,,,,,,,,,,,,,,,,,,,,,,,,,,,,,,,,,,,,,,,,,,,,,,,,,,,,,,,,,,,,,,,,,,,,,,,,,,,,,,,,,,,,
,,?,0,0,,,,,,stimuli/images/PICTURE_33.png,COPS,5b919592f5a22400012ca14e,03/04/1999,2020-09-02_12h27.16.282,proactive3.1,2020.1.2,Win32,60,5f47c29a48bd2a1e651a6eb7,5f4f817fad423e03866e5784,2,,,,,,frame,,,,,,,,,,,3,2,0,20,20,29,1,,,,,,,,,,,,,,,,,,,,,,,,,,,,,,,,,,,,,,,,,,,,,,,,,,,,,,,,,,,,,,,,,,,,,,,,,,,,,,,,,,,,,,,,,,,,,,,,,,,,,,,,
,,FOREST,7.138,0,,,,,,stimuli/images/PICTURE_405.png,JUNGLE,5b919592f5a22400012ca14e,03/04/1999,2020-09-02_12h27.16.282,proactive3.1,2020.1.2,Win32,60,5f47c29a48bd2a1e651a6eb7,5f4f817fad423e03866e5784,2,,,,,,anchor,,,,,,,,,,,2,2,0,21,21,13,1,,,,,,,,,,,,,,,,,,,,,,,,,,,,,,,,,,,,,,,,,,,,,,,,,,,,,,,,,,,,,,,,,,,,,,,,,,,,,,,,,,,,,,,,,,,,,,,,,,,,,,,,
,,?,0.005,0,,,,,,stimuli/images/PICTURE_405.png,JUNGLE,5b919592f5a22400012ca14e,03/04/1999,2020-09-02_12h27.16.282,proactive3.1,2020.1.2,Win32,60,5f47c29a48bd2a1e651a6eb7,5f4f817fad423e03866e5784,2,,,,,,anchor,,,,,,,,,,,6,2,0,22,22,58,1,,,,,,,,,,,,,,,,,,,,,,,,,,,,,,,,,,,,,,,,,,,,,,,,,,,,,,,,,,,,,,,,,,,,,,,,,,,,,,,,,,,,,,,,,,,,,,,,,,,,,,,,
,,?,0.001,0,,,,,,stimuli/images/PICTURE_487.png,ROOF,5b919592f5a22400012ca14e,03/04/1999,2020-09-02_12h27.16.282,proactive3.1,2020.1.2,Win32,60,5f47c29a48bd2a1e651a6eb7,5f4f817fad423e03866e5784,2,,,,,,basket,,,,,,,,,,,6,2,0,23,23,50,1,,,,,,,,,,,,,,,,,,,,,,,,,,,,,,,,,,,,,,,,,,,,,,,,,,,,,,,,,,,,,,,,,,,,,,,,,,,,,,,,,,,,,,,,,,,,,,,,,,,,,,,,
,,?,0.001,0,,,,,,stimuli/images/PICTURE_32.png,LETTER,5b919592f5a22400012ca14e,03/04/1999,2020-09-02_12h27.16.282,proactive3.1,2020.1.2,Win32,60,5f47c29a48bd2a1e651a6eb7,5f4f817fad423e03866e5784,2,,,,,,crown,,,,,,,,,,,6,2,0,24,24,56,1,,,,,,,,,,,,,,,,,,,,,,,,,,,,,,,,,,,,,,,,,,,,,,,,,,,,,,,,,,,,,,,,,,,,,,,,,,,,,,,,,,,,,,,,,,,,,,,,,,,,,,,,
,,?,0.001,0,,,,,,stimuli/images/PICTURE_654.png,YEAR,5b919592f5a22400012ca14e,03/04/1999,2020-09-02_12h27.16.282,proactive3.1,2020.1.2,Win32,60,5f47c29a48bd2a1e651a6eb7,5f4f817fad423e03866e5784,2,,,,,,pencil,,,,,,,,,,,5,2,0,25,25,41,1,,,,,,,,,,,,,,,,,,,,,,,,,,,,,,,,,,,,,,,,,,,,,,,,,,,,,,,,,,,,,,,,,,,,,,,,,,,,,,,,,,,,,,,,,,,,,,,,,,,,,,,,
,,?,0,0,,,,,,stimuli/images/PICTURE_453.png,FAMILY,5b919592f5a22400012ca14e,03/04/1999,2020-09-02_12h27.16.282,proactive3.1,2020.1.2,Win32,60,5f47c29a48bd2a1e651a6eb7,5f4f817fad423e03866e5784,2,,,,,,scissors,,,,,,,,,,,5,2,0,26,26,48,1,,,,,,,,,,,,,,,,,,,,,,,,,,,,,,,,,,,,,,,,,,,,,,,,,,,,,,,,,,,,,,,,,,,,,,,,,,,,,,,,,,,,,,,,,,,,,,,,,,,,,,,,
,,BATH,7.852,1,,,,,,stimuli/images/PICTURE_509.png,BATH,5b919592f5a22400012ca14e,03/04/1999,2020-09-02_12h27.16.282,proactive3.1,2020.1.2,Win32,60,5f47c29a48bd2a1e651a6eb7,5f4f817fad423e03866e5784,2,,,,,,telephone,,,,,,,,,,,2,2,0,27,27,15,1,,,,,,,,,,,,,,,,,,,,,,,,,,,,,,,,,,,,,,,,,,,,,,,,,,,,,,,,,,,,,,,,,,,,,,,,,,,,,,,,,,,,,,,,,,,,,,,,,,,,,,,,
,,LEAD,10.181,0,,,,,,stimuli/images/PICTURE_327.png,LEADER,5b919592f5a22400012ca14e,03/04/1999,2020-09-02_12h27.16.282,proactive3.1,2020.1.2,Win32,60,5f47c29a48bd2a1e651a6eb7,5f4f817fad423e03866e5784,2,,,,,,helmet,,,,,,,,,,,2,2,0,28,28,17,1,,,,,,,,,,,,,,,,,,,,,,,,,,,,,,,,,,,,,,,,,,,,,,,,,,,,,,,,,,,,,,,,,,,,,,,,,,,,,,,,,,,,,,,,,,,,,,,,,,,,,,,,
,,?,0.005,0,,,,,,stimuli/images/PICTURE_57.png,NATION,5b919592f5a22400012ca14e,03/04/1999,2020-09-02_12h27.16.282,proactive3.1,2020.1.2,Win32,60,5f47c29a48bd2a1e651a6eb7,5f4f817fad423e03866e5784,2,,,,,,stamp,,,,,,,,,,,3,2,0,29,29,21,1,,,,,,,,,,,,,,,,,,,,,,,,,,,,,,,,,,,,,,,,,,,,,,,,,,,,,,,,,,,,,,,,,,,,,,,,,,,,,,,,,,,,,,,,,,,,,,,,,,,,,,,,
,,?,0,0,,,,,,stimuli/images/PICTURE_708.png,VALLEY,5b919592f5a22400012ca14e,03/04/1999,2020-09-02_12h27.16.282,proactive3.1,2020.1.2,Win32,60,5f47c29a48bd2a1e651a6eb7,5f4f817fad423e03866e5784,2,,,,,,monkey,,,,,,,,,,,5,2,0,30,30,45,1,,,,,,,,,,,,,,,,,,,,,,,,,,,,,,,,,,,,,,,,,,,,,,,,,,,,,,,,,,,,,,,,,,,,,,,,,,,,,,,,,,,,,,,,,,,,,,,,,,,,,,,,
,,PLENTY,11.705,1,,,,,,stimuli/images/PICTURE_564.png,PLENTY,5b919592f5a22400012ca14e,03/04/1999,2020-09-02_12h27.16.282,proactive3.1,2020.1.2,Win32,60,5f47c29a48bd2a1e651a6eb7,5f4f817fad423e03866e5784,2,,,,,,spoon,,,,,,,,,,,2,2,0,31,31,11,1,,,,,,,,,,,,,,,,,,,,,,,,,,,,,,,,,,,,,,,,,,,,,,,,,,,,,,,,,,,,,,,,,,,,,,,,,,,,,,,,,,,,,,,,,,,,,,,,,,,,,,,,
,,PENNY,6.381,1,,,,,,stimuli/images/PICTURE_255.png,PENNY,5b919592f5a22400012ca14e,03/04/1999,2020-09-02_12h27.16.282,proactive3.1,2020.1.2,Win32,60,5f47c29a48bd2a1e651a6eb7,5f4f817fad423e03866e5784,2,,,,,,shovel,,,,,,,,,,,2,2,0,32,32,19,1,,,,,,,,,,,,,,,,,,,,,,,,,,,,,,,,,,,,,,,,,,,,,,,,,,,,,,,,,,,,,,,,,,,,,,,,,,,,,,,,,,,,,,,,,,,,,,,,,,,,,,,,
,,?,0.005,0,,,,,,stimuli/images/PICTURE_667.png,GLASS,5b919592f5a22400012ca14e,03/04/1999,2020-09-02_12h27.16.282,proactive3.1,2020.1.2,Win32,60,5f47c29a48bd2a1e651a6eb7,5f4f817fad423e03866e5784,2,,,,,,daisy,,,,,,,,,,,3,2,0,33,33,27,1,,,,,,,,,,,,,,,,,,,,,,,,,,,,,,,,,,,,,,,,,,,,,,,,,,,,,,,,,,,,,,,,,,,,,,,,,,,,,,,,,,,,,,,,,,,,,,,,,,,,,,,,
,,?,0,0,,,,,,stimuli/images/PICTURE_509.png,SHOTS,5b919592f5a22400012ca14e,03/04/1999,2020-09-02_12h27.16.282,proactive3.1,2020.1.2,Win32,60,5f47c29a48bd2a1e651a6eb7,5f4f817fad423e03866e5784,2,,,,,,telephone,,,,,,,,,,,1,2,0,34,34,7,1,,,,,,,,,,,,,,,,,,,,,,,,,,,,,,,,,,,,,,,,,,,,,,,,,,,,,,,,,,,,,,,,,,,,,,,,,,,,,,,,,,,,,,,,,,,,,,,,,,,,,,,,
,,?,0.001,0,,,,,,stimuli/images/PICTURE_470.png,MOMENT,5b919592f5a22400012ca14e,03/04/1999,2020-09-02_12h27.16.282,proactive3.1,2020.1.2,Win32,60,5f47c29a48bd2a1e651a6eb7,5f4f817fad423e03866e5784,2,,,,,,motorbike,,,,,,,,,,,5,2,0,35,35,40,1,,,,,,,,,,,,,,,,,,,,,,,,,,,,,,,,,,,,,,,,,,,,,,,,,,,,,,,,,,,,,,,,,,,,,,,,,,,,,,,,,,,,,,,,,,,,,,,,,,,,,,,,
,,?,0,0,,,,,,stimuli/images/PICTURE_403.png,FAMILY,5b919592f5a22400012ca14e,03/04/1999,2020-09-02_12h27.16.282,proactive3.1,2020.1.2,Win32,60,5f47c29a48bd2a1e651a6eb7,5f4f817fad423e03866e5784,2,,,,,,cathedral,,,,,,,,,,,1,2,0,36,36,9,1,,,,,,,,,,,,,,,,,,,,,,,,,,,,,,,,,,,,,,,,,,,,,,,,,,,,,,,,,,,,,,,,,,,,,,,,,,,,,,,,,,,,,,,,,,,,,,,,,,,,,,,,
,,?,0.001,0,,,,,,stimuli/images/PICTURE_123.png,SALE,5b919592f5a22400012ca14e,03/04/1999,2020-09-02_12h27.16.282,proactive3.1,2020.1.2,Win32,60,5f47c29a48bd2a1e651a6eb7,5f4f817fad423e03866e5784,2,,,,,,dart,,,,,,,,,,,1,2,0,37,37,8,1,,,,,,,,,,,,,,,,,,,,,,,,,,,,,,,,,,,,,,,,,,,,,,,,,,,,,,,,,,,,,,,,,,,,,,,,,,,,,,,,,,,,,,,,,,,,,,,,,,,,,,,,
,,?,0.001,0,,,,,,stimuli/images/PICTURE_509.png,MILLER,5b919592f5a22400012ca14e,03/04/1999,2020-09-02_12h27.16.282,proactive3.1,2020.1.2,Win32,60,5f47c29a48bd2a1e651a6eb7,5f4f817fad423e03866e5784,2,,,,,,telephone,,,,,,,,,,,5,2,0,38,38,49,1,,,,,,,,,,,,,,,,,,,,,,,,,,,,,,,,,,,,,,,,,,,,,,,,,,,,,,,,,,,,,,,,,,,,,,,,,,,,,,,,,,,,,,,,,,,,,,,,,,,,,,,,
,,PHOTO,6.367,1,,,,,,stimuli/images/PICTURE_677.png,PHOTO,5b919592f5a22400012ca14e,03/04/1999,2020-09-02_12h27.16.282,proactive3.1,2020.1.2,Win32,60,5f47c29a48bd2a1e651a6eb7,5f4f817fad423e03866e5784,2,,,,,,map,,,,,,,,,,,2,2,0,39,39,14,1,,,,,,,,,,,,,,,,,,,,,,,,,,,,,,,,,,,,,,,,,,,,,,,,,,,,,,,,,,,,,,,,,,,,,,,,,,,,,,,,,,,,,,,,,,,,,,,,,,,,,,,,
,,?,0.005,0,,,,,,stimuli/images/PICTURE_147.png,LEADER,5b919592f5a22400012ca14e,03/04/1999,2020-09-02_12h27.16.282,proactive3.1,2020.1.2,Win32,60,5f47c29a48bd2a1e651a6eb7,5f4f817fad423e03866e5784,2,,,,,,hanger,,,,,,,,,,,4,2,0,40,40,33,1,,,,,,,,,,,,,,,,,,,,,,,,,,,,,,,,,,,,,,,,,,,,,,,,,,,,,,,,,,,,,,,,,,,,,,,,,,,,,,,,,,,,,,,,,,,,,,,,,,,,,,,,
,,?,0.001,0,,,,,,stimuli/images/PICTURE_177.png,HOUSE,5b919592f5a22400012ca14e,03/04/1999,2020-09-02_12h27.16.282,proactive3.1,2020.1.2,Win32,60,5f47c29a48bd2a1e651a6eb7,5f4f817fad423e03866e5784,2,,,,,,mushroom,,,,,,,,,,,3,2,0,41,41,25,1,,,,,,,,,,,,,,,,,,,,,,,,,,,,,,,,,,,,,,,,,,,,,,,,,,,,,,,,,,,,,,,,,,,,,,,,,,,,,,,,,,,,,,,,,,,,,,,,,,,,,,,,
,,COPS,6.54,1,,,,,,stimuli/images/PICTURE_654.png,COPS,5b919592f5a22400012ca14e,03/04/1999,2020-09-02_12h27.16.282,proactive3.1,2020.1.2,Win32,60,5f47c29a48bd2a1e651a6eb7,5f4f817fad423e03866e5784,2,,,,,,pencil,,,,,,,,,,,2,2,0,42,42,10,1,,,,,,,,,,,,,,,,,,,,,,,,,,,,,,,,,,,,,,,,,,,,,,,,,,,,,,,,,,,,,,,,,,,,,,,,,,,,,,,,,,,,,,,,,,,,,,,,,,,,,,,,
,,?,0.005,0,,,,,,stimuli/images/PICTURE_93.png,GIRL,5b919592f5a22400012ca14e,03/04/1999,2020-09-02_12h27.16.282,proactive3.1,2020.1.2,Win32,60,5f47c29a48bd2a1e651a6eb7,5f4f817fad423e03866e5784,2,,,,,,skateboard,,,,,,,,,,,4,2,0,43,43,31,1,,,,,,,,,,,,,,,,,,,,,,,,,,,,,,,,,,,,,,,,,,,,,,,,,,,,,,,,,,,,,,,,,,,,,,,,,,,,,,,,,,,,,,,,,,,,,,,,,,,,,,,,
,,?,0.001,0,,,,,,stimuli/images/PICTURE_2.png,AREA,5b919592f5a22400012ca14e,03/04/1999,2020-09-02_12h27.16.282,proactive3.1,2020.1.2,Win32,60,5f47c29a48bd2a1e651a6eb7,5f4f817fad423e03866e5784,2,,,,,,tyre,,,,,,,,,,,4,2,0,44,44,32,1,,,,,,,,,,,,,,,,,,,,,,,,,,,,,,,,,,,,,,,,,,,,,,,,,,,,,,,,,,,,,,,,,,,,,,,,,,,,,,,,,,,,,,,,,,,,,,,,,,,,,,,,
,,?,0,0,,,,,,stimuli/images/PICTURE_215.png,LEADER,5b919592f5a22400012ca14e,03/04/1999,2020-09-02_12h27.16.282,proactive3.1,2020.1.2,Win32,60,5f47c29a48bd2a1e651a6eb7,5f4f817fad423e03866e5784,2,,,,,,boot,,,,,,,,,,,5,2,0,45,45,43,1,,,,,,,,,,,,,,,,,,,,,,,,,,,,,,,,,,,,,,,,,,,,,,,,,,,,,,,,,,,,,,,,,,,,,,,,,,,,,,,,,,,,,,,,,,,,,,,,,,,,,,,,
,,?,0.002,0,,,,,,stimuli/images/PICTURE_311.png,TOILET,5b919592f5a22400012ca14e,03/04/1999,2020-09-02_12h27.16.282,proactive3.1,2020.1.2,Win32,60,5f47c29a48bd2a1e651a6eb7,5f4f817fad423e03866e5784,2,,,,,,razor,,,,,,,,,,,6,2,0,46,46,54,1,,,,,,,,,,,,,,,,,,,,,,,,,,,,,,,,,,,,,,,,,,,,,,,,,,,,,,,,,,,,,,,,,,,,,,,,,,,,,,,,,,,,,,,,,,,,,,,,,,,,,,,,
,,?,0.001,0,,,,,,stimuli/images/PICTURE_2.png,JUNGLE,5b919592f5a22400012ca14e,03/04/1999,2020-09-02_12h27.16.282,proactive3.1,2020.1.2,Win32,60,5f47c29a48bd2a1e651a6eb7,5f4f817fad423e03866e5784,2,,,,,,tyre,,,,,,,,,,,1,2,0,47,47,1,1,,,,,,,,,,,,,,,,,,,,,,,,,,,,,,,,,,,,,,,,,,,,,,,,,,,,,,,,,,,,,,,,,,,,,,,,,,,,,,,,,,,,,,,,,,,,,,,,,,,,,,,,
,,?,0.001,0,,,,,,stimuli/images/PICTURE_285.png,PRINCE,5b919592f5a22400012ca14e,03/04/1999,2020-09-02_12h27.16.282,proactive3.1,2020.1.2,Win32,60,5f47c29a48bd2a1e651a6eb7,5f4f817fad423e03866e5784,2,,,,,,carrot,,,,,,,,,,,3,2,0,48,48,20,1,,,,,,,,,,,,,,,,,,,,,,,,,,,,,,,,,,,,,,,,,,,,,,,,,,,,,,,,,,,,,,,,,,,,,,,,,,,,,,,,,,,,,,,,,,,,,,,,,,,,,,,,
,,?,0.001,0,,,,,,stimuli/images/PICTURE_655.png,SALE,5b919592f5a22400012ca14e,03/04/1999,2020-09-02_12h27.16.282,proactive3.1,2020.1.2,Win32,60,5f47c29a48bd2a1e651a6eb7,5f4f817fad423e03866e5784,2,,,,,,megaphone,,,,,,,,,,,6,2,0,49,49,57,1,,,,,,,,,,,,,,,,,,,,,,,,,,,,,,,,,,,,,,,,,,,,,,,,,,,,,,,,,,,,,,,,,,,,,,,,,,,,,,,,,,,,,,,,,,,,,,,,,,,,,,,,
,,?,0.002,0,,,,,,stimuli/images/PICTURE_2.png,YARD,5b919592f5a22400012ca14e,03/04/1999,2020-09-02_12h27.16.282,proactive3.1,2020.1.2,Win32,60,5f47c29a48bd2a1e651a6eb7,5f4f817fad423e03866e5784,2,,,,,,tyre,,,,,,,,,,,6,2,0,50,50,55,1,,,,,,,,,,,,,,,,,,,,,,,,,,,,,,,,,,,,,,,,,,,,,,,,,,,,,,,,,,,,,,,,,,,,,,,,,,,,,,,,,,,,,,,,,,,,,,,,,,,,,,,,
,,?,0,0,,,,,,stimuli/images/PICTURE_208.png,SPIRIT,5b919592f5a22400012ca14e,03/04/1999,2020-09-02_12h27.16.282,proactive3.1,2020.1.2,Win32,60,5f47c29a48bd2a1e651a6eb7,5f4f817fad423e03866e5784,2,,,,,,microphone,,,,,,,,,,,3,2,0,51,51,28,1,,,,,,,,,,,,,,,,,,,,,,,,,,,,,,,,,,,,,,,,,,,,,,,,,,,,,,,,,,,,,,,,,,,,,,,,,,,,,,,,,,,,,,,,,,,,,,,,,,,,,,,,
,,?,0.001,0,,,,,,stimuli/images/PICTURE_452.png,COPS,5b919592f5a22400012ca14e,03/04/1999,2020-09-02_12h27.16.282,proactive3.1,2020.1.2,Win32,60,5f47c29a48bd2a1e651a6eb7,5f4f817fad423e03866e5784,2,,,,,,watch,,,,,,,,,,,1,2,0,52,52,0,1,,,,,,,,,,,,,,,,,,,,,,,,,,,,,,,,,,,,,,,,,,,,,,,,,,,,,,,,,,,,,,,,,,,,,,,,,,,,,,,,,,,,,,,,,,,,,,,,,,,,,,,,
,,?,0.001,0,,,,,,stimuli/images/PICTURE_297.png,BODY,5b919592f5a22400012ca14e,03/04/1999,2020-09-02_12h27.16.282,proactive3.1,2020.1.2,Win32,60,5f47c29a48bd2a1e651a6eb7,5f4f817fad423e03866e5784,2,,,,,,aeroplane,,,,,,,,,,,6,2,0,53,53,51,1,,,,,,,,,,,,,,,,,,,,,,,,,,,,,,,,,,,,,,,,,,,,,,,,,,,,,,,,,,,,,,,,,,,,,,,,,,,,,,,,,,,,,,,,,,,,,,,,,,,,,,,,
,,?,0.001,0,,,,,,stimuli/images/PICTURE_215.png,BOYS,5b919592f5a22400012ca14e,03/04/1999,2020-09-02_12h27.16.282,proactive3.1,2020.1.2,Win32,60,5f47c29a48bd2a1e651a6eb7,5f4f817fad423e03866e5784,2,,,,,,boot,,,,,,,,,,,3,2,0,54,54,24,1,,,,,,,,,,,,,,,,,,,,,,,,,,,,,,,,,,,,,,,,,,,,,,,,,,,,,,,,,,,,,,,,,,,,,,,,,,,,,,,,,,,,,,,,,,,,,,,,,,,,,,,,
,,?,0.001,0,,,,,,stimuli/images/PICTURE_95.png,NIGHT,5b919592f5a22400012ca14e,03/04/1999,2020-09-02_12h27.16.282,proactive3.1,2020.1.2,Win32,60,5f47c29a48bd2a1e651a6eb7,5f4f817fad423e03866e5784,2,,,,,,suitcase,,,,,,,,,,,4,2,0,55,55,37,1,,,,,,,,,,,,,,,,,,,,,,,,,,,,,,,,,,,,,,,,,,,,,,,,,,,,,,,,,,,,,,,,,,,,,,,,,,,,,,,,,,,,,,,,,,,,,,,,,,,,,,,,
,,CLOCK,6.772,1,,,,,,stimuli/images/PICTURE_296.png,CLOCK,5b919592f5a22400012ca14e,03/04/1999,2020-09-02_12h27.16.282,proactive3.1,2020.1.2,Win32,60,5f47c29a48bd2a1e651a6eb7,5f4f817fad423e03866e5784,2,,,,,,bolt,,,,,,,,,,,2,2,0,56,56,18,1,,,,,,,,,,,,,,,,,,,,,,,,,,,,,,,,,,,,,,,,,,,,,,,,,,,,,,,,,,,,,,,,,,,,,,,,,,,,,,,,,,,,,,,,,,,,,,,,,,,,,,,,
,,?,0.005,0,,,,,,stimuli/images/PICTURE_692.png,DUDE,5b919592f5a22400012ca14e,03/04/1999,2020-09-02_12h27.16.282,proactive3.1,2020.1.2,Win32,60,5f47c29a48bd2a1e651a6eb7,5f4f817fad423e03866e5784,2,,,,,,cherry,,,,,,,,,,,5,2,0,57,57,47,1,,,,,,,,,,,,,,,,,,,,,,,,,,,,,,,,,,,,,,,,,,,,,,,,,,,,,,,,,,,,,,,,,,,,,,,,,,,,,,,,,,,,,,,,,,,,,,,,,,,,,,,,
,,?,0.001,0,,,,,,stimuli/images/PICTURE_141.png,CLIENT,5b919592f5a22400012ca14e,03/04/1999,2020-09-02_12h27.16.282,proactive3.1,2020.1.2,Win32,60,5f47c29a48bd2a1e651a6eb7,5f4f817fad423e03866e5784,2,,,,,,sunflower,,,,,,,,,,,4,2,0,58,58,30,1,,,,,,,,,,,,,,,,,,,,,,,,,,,,,,,,,,,,,,,,,,,,,,,,,,,,,,,,,,,,,,,,,,,,,,,,,,,,,,,,,,,,,,,,,,,,,,,,,,,,,,,,
,,?,0.001,0,,,,,,stimuli/images/PICTURE_487.png,POLICY,5b919592f5a22400012ca14e,03/04/1999,2020-09-02_12h27.16.282,proactive3.1,2020.1.2,Win32,60,5f47c29a48bd2a1e651a6eb7,5f4f817fad423e03866e5784,2,,,,,,basket,,,,,,,,,,,4,2,0,59,59,34,1,,,,,,,,,,,,,,,,,,,,,,,,,,,,,,,,,,,,,,,,,,,,,,,,,,,,,,,,,,,,,,,,,,,,,,,,,,,,,,,,,,,,,,,,,,,,,,,,,,,,,,,,
,,,,,,,,,,,,5b919592f5a22400012ca14e,03/04/1999,2020-09-02_12h27.16.282,proactive3.1,2020.1.2,Win32,60,5f47c29a48bd2a1e651a6eb7,5f4f817fad423e03866e5784,2,,,,,,,,,,,,,,,,,,,,,,,,0,1,1,2,1,stimuli/learn-block3.csv,,,,,,,,,,,,,,,,,,,,,,,,,,,,,,,,,,,,,,,,,,,,,,,,,,,,,,,,,,,,,,,,,,,,,,,,,,,,,,,,,,,,,,,,,,,,,,,,,,
,,,,,,,,,,stimuli/images/PICTURE_677.png,APPLE,5b919592f5a22400012ca14e,03/04/1999,2020-09-02_12h27.16.282,proactive3.1,2020.1.2,Win32,60,5f47c29a48bd2a1e651a6eb7,5f4f817fad423e03866e5784,2,,,,,,map,,,,,,0,0,0,43,1,5,1,,,,,,,,,,,,,,,,,,,,,,,,,,,,,,,,,,,,,,,,,,,,,,,,,,,,,,,,,,,,,,,,,,,,,,,,,,,,,,,,,,,,,,,,,,,,,,,,,,,,,,,,,,,,,
,,,,,,,,,,stimuli/images/PICTURE_403.png,RIVER,5b919592f5a22400012ca14e,03/04/1999,2020-09-02_12h27.16.282,proactive3.1,2020.1.2,Win32,60,5f47c29a48bd2a1e651a6eb7,5f4f817fad423e03866e5784,2,,,,,,cathedral,,,,,,0,1,1,40,1,5,1,,,,,,,,,,,,,,,,,,,,,,,,,,,,,,,,,,,,,,,,,,,,,,,,,,,,,,,,,,,,,,,,,,,,,,,,,,,,,,,,,,,,,,,,,,,,,,,,,,,,,,,,,,,,,
,,,,,,,,,,stimuli/images/PICTURE_233.png,LOTS,5b919592f5a22400012ca14e,03/04/1999,2020-09-02_12h27.16.282,proactive3.1,2020.1.2,Win32,60,5f47c29a48bd2a1e651a6eb7,5f4f817fad423e03866e5784,2,,,,,,salt,,,,,,0,2,2,42,1,5,1,,,,,,,,,,,,,,,,,,,,,,,,,,,,,,,,,,,,,,,,,,,,,,,,,,,,,,,,,,,,,,,,,,,,,,,,,,,,,,,,,,,,,,,,,,,,,,,,,,,,,,,,,,,,,
,,,,,,,,,,stimuli/images/PICTURE_95.png,MILLER,5b919592f5a22400012ca14e,03/04/1999,2020-09-02_12h27.16.282,proactive3.1,2020.1.2,Win32,60,5f47c29a48bd2a1e651a6eb7,5f4f817fad423e03866e5784,2,,,,,,suitcase,,,,,,0,3,3,56,1,6,1,,,,,,,,,,,,,,,,,,,,,,,,,,,,,,,,,,,,,,,,,,,,,,,,,,,,,,,,,,,,,,,,,,,,,,,,,,,,,,,,,,,,,,,,,,,,,,,,,,,,,,,,,,,,,
,,,,,,,,,,stimuli/images/PICTURE_285.png,LIFE,5b919592f5a22400012ca14e,03/04/1999,2020-09-02_12h27.16.282,proactive3.1,2020.1.2,Win32,60,5f47c29a48bd2a1e651a6eb7,5f4f817fad423e03866e5784,2,,,,,,carrot,,,,,,0,4,4,33,1,4,1,,,,,,,,,,,,,,,,,,,,,,,,,,,,,,,,,,,,,,,,,,,,,,,,,,,,,,,,,,,,,,,,,,,,,,,,,,,,,,,,,,,,,,,,,,,,,,,,,,,,,,,,,,,,,
,,,,,,,,,,stimuli/images/PICTURE_340.png,LETTER,5b919592f5a22400012ca14e,03/04/1999,2020-09-02_12h27.16.282,proactive3.1,2020.1.2,Win32,60,5f47c29a48bd2a1e651a6eb7,5f4f817fad423e03866e5784,2,,,,,,mirror,,,,,,0,5,5,24,1,3,1,,,,,,,,,,,,,,,,,,,,,,,,,,,,,,,,,,,,,,,,,,,,,,,,,,,,,,,,,,,,,,,,,,,,,,,,,,,,,,,,,,,,,,,,,,,,,,,,,,,,,,,,,,,,,
,,,,,,,,,,stimuli/images/PICTURE_203.png,GODS,5b919592f5a22400012ca14e,03/04/1999,2020-09-02_12h27.16.282,proactive3.1,2020.1.2,Win32,60,5f47c29a48bd2a1e651a6eb7,5f4f817fad423e03866e5784,2,,,,,,cap,,,,,,0,6,6,30,1,4,1,,,,,,,,,,,,,,,,,,,,,,,,,,,,,,,,,,,,,,,,,,,,,,,,,,,,,,,,,,,,,,,,,,,,,,,,,,,,,,,,,,,,,,,,,,,,,,,,,,,,,,,,,,,,,
,,,,,,,,,,stimuli/images/PICTURE_504.png,COPS,5b919592f5a22400012ca14e,03/04/1999,2020-09-02_12h27.16.282,proactive3.1,2020.1.2,Win32,60,5f47c29a48bd2a1e651a6eb7,5f4f817fad423e03866e5784,2,,,,,,wheel,,,,,,0,7,7,52,1,6,1,,,,,,,,,,,,,,,,,,,,,,,,,,,,,,,,,,,,,,,,,,,,,,,,,,,,,,,,,,,,,,,,,,,,,,,,,,,,,,,,,,,,,,,,,,,,,,,,,,,,,,,,,,,,,
,,,,,,,,,,stimuli/images/PICTURE_467.png,POLICY,5b919592f5a22400012ca14e,03/04/1999,2020-09-02_12h27.16.282,proactive3.1,2020.1.2,Win32,60,5f47c29a48bd2a1e651a6eb7,5f4f817fad423e03866e5784,2,,,,,,peg,,,,,,0,8,8,53,1,6,1,,,,,,,,,,,,,,,,,,,,,,,,,,,,,,,,,,,,,,,,,,,,,,,,,,,,,,,,,,,,,,,,,,,,,,,,,,,,,,,,,,,,,,,,,,,,,,,,,,,,,,,,,,,,,
,,,,,,,,,,stimuli/images/PICTURE_380.png,HONEY,5b919592f5a22400012ca14e,03/04/1999,2020-09-02_12h27.16.282,proactive3.1,2020.1.2,Win32,60,5f47c29a48bd2a1e651a6eb7,5f4f817fad423e03866e5784,2,,,,,,gorilla,,,,,,0,9,9,19,1,2,1,,,,,,,,,,,,,,,,,,,,,,,,,,,,,,,,,,,,,,,,,,,,,,,,,,,,,,,,,,,,,,,,,,,,,,,,,,,,,,,,,,,,,,,,,,,,,,,,,,,,,,,,,,,,,
,,,,,,,,,,stimuli/images/PICTURE_383.png,WRITER,5b919592f5a22400012ca14e,03/04/1999,2020-09-02_12h27.16.282,proactive3.1,2020.1.2,Win32,60,5f47c29a48bd2a1e651a6eb7,5f4f817fad423e03866e5784,2,,,,,,coin,,,,,,0,10,10,28,1,3,1,,,,,,,,,,,,,,,,,,,,,,,,,,,,,,,,,,,,,,,,,,,,,,,,,,,,,,,,,,,,,,,,,,,,,,,,,,,,,,,,,,,,,,,,,,,,,,,,,,,,,,,,,,,,,
,,,,,,,,,,stimuli/images/PICTURE_504.png,ARTIST,5b919592f5a22400012ca14e,03/04/1999,2020-09-02_12h27.16.282,proactive3.1,2020.1.2,Win32,60,5f47c29a48bd2a1e651a6eb7,5f4f817fad423e03866e5784,2,,,,,,wheel,,,,,,0,11,11,49,1,5,1,,,,,,,,,,,,,,,,,,,,,,,,,,,,,,,,,,,,,,,,,,,,,,,,,,,,,,,,,,,,,,,,,,,,,,,,,,,,,,,,,,,,,,,,,,,,,,,,,,,,,,,,,,,,,
,,,,,,,,,,stimuli/images/PICTURE_655.png,TOILET,5b919592f5a22400012ca14e,03/04/1999,2020-09-02_12h27.16.282,proactive3.1,2020.1.2,Win32,60,5f47c29a48bd2a1e651a6eb7,5f4f817fad423e03866e5784,2,,,,,,megaphone,,,,,,0,12,12,12,1,2,1,,,,,,,,,,,,,,,,,,,,,,,,,,,,,,,,,,,,,,,,,,,,,,,,,,,,,,,,,,,,,,,,,,,,,,,,,,,,,,,,,,,,,,,,,,,,,,,,,,,,,,,,,,,,,
,,,,,,,,,,stimuli/images/PICTURE_203.png,NIGHT,5b919592f5a22400012ca14e,03/04/1999,2020-09-02_12h27.16.282,proactive3.1,2020.1.2,Win32,60,5f47c29a48bd2a1e651a6eb7,5f4f817fad423e03866e5784,2,,,,,,cap,,,,,,0,13,13,2,1,1,1,,,,,,,,,,,,,,,,,,,,,,,,,,,,,,,,,,,,,,,,,,,,,,,,,,,,,,,,,,,,,,,,,,,,,,,,,,,,,,,,,,,,,,,,,,,,,,,,,,,,,,,,,,,,,
,,,,,,,,,,stimuli/images/PICTURE_675.png,SALE,5b919592f5a22400012ca14e,03/04/1999,2020-09-02_12h27.16.282,proactive3.1,2020.1.2,Win32,60,5f47c29a48bd2a1e651a6eb7,5f4f817fad423e03866e5784,2,,,,,,windmill,,,,,,0,14,14,47,1,5,1,,,,,,,,,,,,,,,,,,,,,,,,,,,,,,,,,,,,,,,,,,,,,,,,,,,,,,,,,,,,,,,,,,,,,,,,,,,,,,,,,,,,,,,,,,,,,,,,,,,,,,,,,,,,,
,,,,,,,,,,stimuli/images/PICTURE_95.png,HONEY,5b919592f5a22400012ca14e,03/04/1999,2020-09-02_12h27.16.282,proactive3.1,2020.1.2,Win32,60,5f47c29a48bd2a1e651a6eb7,5f4f817fad423e03866e5784,2,,,,,,suitcase,,,,,,0,15,15,44,1,5,1,,,,,,,,,,,,,,,,,,,,,,,,,,,,,,,,,,,,,,,,,,,,,,,,,,,,,,,,,,,,,,,,,,,,,,,,,,,,,,,,,,,,,,,,,,,,,,,,,,,,,,,,,,,,,
,,,,,,,,,,stimuli/images/PICTURE_654.png,MONTH,5b919592f5a22400012ca14e,03/04/1999,2020-09-02_12h27.16.282,proactive3.1,2020.1.2,Win32,60,5f47c29a48bd2a1e651a6eb7,5f4f817fad423e03866e5784,2,,,,,,pencil,,,,,,0,16,16,29,1,3,1,,,,,,,,,,,,,,,,,,,,,,,,,,,,,,,,,,,,,,,,,,,,,,,,,,,,,,,,,,,,,,,,,,,,,,,,,,,,,,,,,,,,,,,,,,,,,,,,,,,,,,,,,,,,,
,,,,,,,,,,stimuli/images/PICTURE_403.png,WRITER,5b919592f5a22400012ca14e,03/04/1999,2020-09-02_12h27.16.282,proactive3.1,2020.1.2,Win32,60,5f47c29a48bd2a1e651a6eb7,5f4f817fad423e03866e5784,2,,,,,,cathedral,,,,,,0,17,17,31,1,4,1,,,,,,,,,,,,,,,,,,,,,,,,,,,,,,,,,,,,,,,,,,,,,,,,,,,,,,,,,,,,,,,,,,,,,,,,,,,,,,,,,,,,,,,,,,,,,,,,,,,,,,,,,,,,,
,,,,,,,,,,stimuli/images/PICTURE_108.png,POLICY,5b919592f5a22400012ca14e,03/04/1999,2020-09-02_12h27.16.282,proactive3.1,2020.1.2,Win32,60,5f47c29a48bd2a1e651a6eb7,5f4f817fad423e03866e5784,2,,,,,,calendar,,,,,,0,18,18,22,1,3,1,,,,,,,,,,,,,,,,,,,,,,,,,,,,,,,,,,,,,,,,,,,,,,,,,,,,,,,,,,,,,,,,,,,,,,,,,,,,,,,,,,,,,,,,,,,,,,,,,,,,,,,,,,,,,
,,,,,,,,,,stimuli/images/PICTURE_147.png,WOMEN,5b919592f5a22400012ca14e,03/04/1999,2020-09-02_12h27.16.282,proactive3.1,2020.1.2,Win32,60,5f47c29a48bd2a1e651a6eb7,5f4f817fad423e03866e5784,2,,,,,,hanger,,,,,,0,19,19,7,1,1,1,,,,,,,,,,,,,,,,,,,,,,,,,,,,,,,,,,,,,,,,,,,,,,,,,,,,,,,,,,,,,,,,,,,,,,,,,,,,,,,,,,,,,,,,,,,,,,,,,,,,,,,,,,,,,
,,,,,,,,,,stimuli/images/PICTURE_147.png,YEAR,5b919592f5a22400012ca14e,03/04/1999,2020-09-02_12h27.16.282,proactive3.1,2020.1.2,Win32,60,5f47c29a48bd2a1e651a6eb7,5f4f817fad423e03866e5784,2,,,,,,hanger,,,,,,0,20,20,21,1,3,1,,,,,,,,,,,,,,,,,,,,,,,,,,,,,,,,,,,,,,,,,,,,,,,,,,,,,,,,,,,,,,,,,,,,,,,,,,,,,,,,,,,,,,,,,,,,,,,,,,,,,,,,,,,,,
,,,,,,,,,,stimuli/images/PICTURE_68.png,MILE,5b919592f5a22400012ca14e,03/04/1999,2020-09-02_12h27.16.282,proactive3.1,2020.1.2,Win32,60,5f47c29a48bd2a1e651a6eb7,5f4f817fad423e03866e5784,2,,,,,,candle,,,,,,0,21,21,51,1,6,1,,,,,,,,,,,,,,,,,,,,,,,,,,,,,,,,,,,,,,,,,,,,,,,,,,,,,,,,,,,,,,,,,,,,,,,,,,,,,,,,,,,,,,,,,,,,,,,,,,,,,,,,,,,,,
,,,,,,,,,,stimuli/images/PICTURE_340.png,VALLEY,5b919592f5a22400012ca14e,03/04/1999,2020-09-02_12h27.16.282,proactive3.1,2020.1.2,Win32,60,5f47c29a48bd2a1e651a6eb7,5f4f817fad423e03866e5784,2,,,,,,mirror,,,,,,0,22,22,54,1,6,1,,,,,,,,,,,,,,,,,,,,,,,,,,,,,,,,,,,,,,,,,,,,,,,,,,,,,,,,,,,,,,,,,,,,,,,,,,,,,,,,,,,,,,,,,,,,,,,,,,,,,,,,,,,,,
,,,,,,,,,,stimuli/images/PICTURE_308.png,FAMILY,5b919592f5a22400012ca14e,03/04/1999,2020-09-02_12h27.16.282,proactive3.1,2020.1.2,Win32,60,5f47c29a48bd2a1e651a6eb7,5f4f817fad423e03866e5784,2,,,,,,dice,,,,,,0,23,23,36,1,4,1,,,,,,,,,,,,,,,,,,,,,,,,,,,,,,,,,,,,,,,,,,,,,,,,,,,,,,,,,,,,,,,,,,,,,,,,,,,,,,,,,,,,,,,,,,,,,,,,,,,,,,,,,,,,,
,,,,,,,,,,stimuli/images/PICTURE_2.png,FLIGHT,5b919592f5a22400012ca14e,03/04/1999,2020-09-02_12h27.16.282,proactive3.1,2020.1.2,Win32,60,5f47c29a48bd2a1e651a6eb7,5f4f817fad423e03866e5784,2,,,,,,tyre,,,,,,0,24,24,15,1,2,1,,,,,,,,,,,,,,,,,,,,,,,,,,,,,,,,,,,,,,,,,,,,,,,,,,,,,,,,,,,,,,,,,,,,,,,,,,,,,,,,,,,,,,,,,,,,,,,,,,,,,,,,,,,,,
,,,,,,,,,,stimuli/images/PICTURE_327.png,SERIES,5b919592f5a22400012ca14e,03/04/1999,2020-09-02_12h27.16.282,proactive3.1,2020.1.2,Win32,60,5f47c29a48bd2a1e651a6eb7,5f4f817fad423e03866e5784,2,,,,,,helmet,,,,,,0,25,25,3,1,1,1,,,,,,,,,,,,,,,,,,,,,,,,,,,,,,,,,,,,,,,,,,,,,,,,,,,,,,,,,,,,,,,,,,,,,,,,,,,,,,,,,,,,,,,,,,,,,,,,,,,,,,,,,,,,,
,,,,,,,,,,stimuli/images/PICTURE_95.png,BOYS,5b919592f5a22400012ca14e,03/04/1999,2020-09-02_12h27.16.282,proactive3.1,2020.1.2,Win32,60,5f47c29a48bd2a1e651a6eb7,5f4f817fad423e03866e5784,2,,,,,,suitcase,,,,,,0,26,26,1,1,1,1,,,,,,,,,,,,,,,,,,,,,,,,,,,,,,,,,,,,,,,,,,,,,,,,,,,,,,,,,,,,,,,,,,,,,,,,,,,,,,,,,,,,,,,,,,,,,,,,,,,,,,,,,,,,,
,,,,,,,,,,stimuli/images/PICTURE_108.png,FLIGHT,5b919592f5a22400012ca14e,03/04/1999,2020-09-02_12h27.16.282,proactive3.1,2020.1.2,Win32,60,5f47c29a48bd2a1e651a6eb7,5f4f817fad423e03866e5784,2,,,,,,calendar,,,,,,0,27,27,59,1,6,1,,,,,,,,,,,,,,,,,,,,,,,,,,,,,,,,,,,,,,,,,,,,,,,,,,,,,,,,,,,,,,,,,,,,,,,,,,,,,,,,,,,,,,,,,,,,,,,,,,,,,,,,,,,,,
,,,,,,,,,,stimuli/images/PICTURE_383.png,SERIES,5b919592f5a22400012ca14e,03/04/1999,2020-09-02_12h27.16.282,proactive3.1,2020.1.2,Win32,60,5f47c29a48bd2a1e651a6eb7,5f4f817fad423e03866e5784,2,,,,,,coin,,,,,,0,28,28,46,1,5,1,,,,,,,,,,,,,,,,,,,,,,,,,,,,,,,,,,,,,,,,,,,,,,,,,,,,,,,,,,,,,,,,,,,,,,,,,,,,,,,,,,,,,,,,,,,,,,,,,,,,,,,,,,,,,
,,,,,,,,,,stimuli/images/PICTURE_42.png,BOYS,5b919592f5a22400012ca14e,03/04/1999,2020-09-02_12h27.16.282,proactive3.1,2020.1.2,Win32,60,5f47c29a48bd2a1e651a6eb7,5f4f817fad423e03866e5784,2,,,,,,pear,,,,,,0,29,29,55,1,6,1,,,,,,,,,,,,,,,,,,,,,,,,,,,,,,,,,,,,,,,,,,,,,,,,,,,,,,,,,,,,,,,,,,,,,,,,,,,,,,,,,,,,,,,,,,,,,,,,,,,,,,,,,,,,,
,,,,,,,,,,stimuli/images/PICTURE_32.png,KIND,5b919592f5a22400012ca14e,03/04/1999,2020-09-02_12h27.16.282,proactive3.1,2020.1.2,Win32,60,5f47c29a48bd2a1e651a6eb7,5f4f817fad423e03866e5784,2,,,,,,crown,,,,,,0,30,30,35,1,4,1,,,,,,,,,,,,,,,,,,,,,,,,,,,,,,,,,,,,,,,,,,,,,,,,,,,,,,,,,,,,,,,,,,,,,,,,,,,,,,,,,,,,,,,,,,,,,,,,,,,,,,,,,,,,,
,,,,,,,,,,stimuli/images/PICTURE_405.png,PLENTY,5b919592f5a22400012ca14e,03/04/1999,2020-09-02_12h27.16.282,proactive3.1,2020.1.2,Win32,60,5f47c29a48bd2a1e651a6eb7,5f4f817fad423e03866e5784,2,,,,,,anchor,,,,,,0,31,31,23,1,3,1,,,,,,,,,,,,,,,,,,,,,,,,,,,,,,,,,,,,,,,,,,,,,,,,,,,,,,,,,,,,,,,,,,,,,,,,,,,,,,,,,,,,,,,,,,,,,,,,,,,,,,,,,,,,,
,,,,,,,,,,stimuli/images/PICTURE_449.png,DUDE,5b919592f5a22400012ca14e,03/04/1999,2020-09-02_12h27.16.282,proactive3.1,2020.1.2,Win32,60,5f47c29a48bd2a1e651a6eb7,5f4f817fad423e03866e5784,2,,,,,,bench,,,,,,0,32,32,17,1,2,1,,,,,,,,,,,,,,,,,,,,,,,,,,,,,,,,,,,,,,,,,,,,,,,,,,,,,,,,,,,,,,,,,,,,,,,,,,,,,,,,,,,,,,,,,,,,,,,,,,,,,,,,,,,,,
,,,,,,,,,,stimuli/images/PICTURE_491.png,GLASS,5b919592f5a22400012ca14e,03/04/1999,2020-09-02_12h27.16.282,proactive3.1,2020.1.2,Win32,60,5f47c29a48bd2a1e651a6eb7,5f4f817fad423e03866e5784,2,,,,,,rug,,,,,,0,33,33,14,1,2,1,,,,,,,,,,,,,,,,,,,,,,,,,,,,,,,,,,,,,,,,,,,,,,,,,,,,,,,,,,,,,,,,,,,,,,,,,,,,,,,,,,,,,,,,,,,,,,,,,,,,,,,,,,,,,
,,,,,,,,,,stimuli/images/PICTURE_208.png,SYSTEM,5b919592f5a22400012ca14e,03/04/1999,2020-09-02_12h27.16.282,proactive3.1,2020.1.2,Win32,60,5f47c29a48bd2a1e651a6eb7,5f4f817fad423e03866e5784,2,,,,,,microphone,,,,,,0,34,34,32,1,4,1,,,,,,,,,,,,,,,,,,,,,,,,,,,,,,,,,,,,,,,,,,,,,,,,,,,,,,,,,,,,,,,,,,,,,,,,,,,,,,,,,,,,,,,,,,,,,,,,,,,,,,,,,,,,,
,,,,,,,,,,stimuli/images/PICTURE_85.png,TOILET,5b919592f5a22400012ca14e,03/04/1999,2020-09-02_12h27.16.282,proactive3.1,2020.1.2,Win32,60,5f47c29a48bd2a1e651a6eb7,5f4f817fad423e03866e5784,2,,,,,,diamond,,,,,,0,35,35,48,1,5,1,,,,,,,,,,,,,,,,,,,,,,,,,,,,,,,,,,,,,,,,,,,,,,,,,,,,,,,,,,,,,,,,,,,,,,,,,,,,,,,,,,,,,,,,,,,,,,,,,,,,,,,,,,,,,
,,,,,,,,,,stimuli/images/PICTURE_405.png,YEAR,5b919592f5a22400012ca14e,03/04/1999,2020-09-02_12h27.16.282,proactive3.1,2020.1.2,Win32,60,5f47c29a48bd2a1e651a6eb7,5f4f817fad423e03866e5784,2,,,,,,anchor,,,,,,0,36,36,34,1,4,1,,,,,,,,,,,,,,,,,,,,,,,,,,,,,,,,,,,,,,,,,,,,,,,,,,,,,,,,,,,,,,,,,,,,,,,,,,,,,,,,,,,,,,,,,,,,,,,,,,,,,,,,,,,,,
,,,,,,,,,,stimuli/images/PICTURE_177.png,WRITER,5b919592f5a22400012ca14e,03/04/1999,2020-09-02_12h27.16.282,proactive3.1,2020.1.2,Win32,60,5f47c29a48bd2a1e651a6eb7,5f4f817fad423e03866e5784,2,,,,,,mushroom,,,,,,0,37,37,41,1,5,1,,,,,,,,,,,,,,,,,,,,,,,,,,,,,,,,,,,,,,,,,,,,,,,,,,,,,,,,,,,,,,,,,,,,,,,,,,,,,,,,,,,,,,,,,,,,,,,,,,,,,,,,,,,,,
,,,,,,,,,,stimuli/images/PICTURE_32.png,PILLS,5b919592f5a22400012ca14e,03/04/1999,2020-09-02_12h27.16.282,proactive3.1,2020.1.2,Win32,60,5f47c29a48bd2a1e651a6eb7,5f4f817fad423e03866e5784,2,,,,,,crown,,,,,,0,38,38,18,1,2,1,,,,,,,,,,,,,,,,,,,,,,,,,,,,,,,,,,,,,,,,,,,,,,,,,,,,,,,,,,,,,,,,,,,,,,,,,,,,,,,,,,,,,,,,,,,,,,,,,,,,,,,,,,,,,
,,,,,,,,,,stimuli/images/PICTURE_296.png,LOTS,5b919592f5a22400012ca14e,03/04/1999,2020-09-02_12h27.16.282,proactive3.1,2020.1.2,Win32,60,5f47c29a48bd2a1e651a6eb7,5f4f817fad423e03866e5784,2,,,,,,bolt,,,,,,0,39,39,9,1,1,1,,,,,,,,,,,,,,,,,,,,,,,,,,,,,,,,,,,,,,,,,,,,,,,,,,,,,,,,,,,,,,,,,,,,,,,,,,,,,,,,,,,,,,,,,,,,,,,,,,,,,,,,,,,,,
