consent_key.keys,consent_key.rt,recalled,recalled_rt,recall_acc,example_recall.thisRepN,example_recall.thisTrialN,example_recall.thisN,example_recall.thisIndex,example_recall.ran,file,word,participant,please enter your date of birth (dd/mm/yyyy),date,expName,psychopyVersion,OS,frameRate,STUDY_ID,SESSION_ID,list,prac_learn_study_loop.thisRepN,prac_learn_study_loop.thisTrialN,prac_learn_study_loop.thisN,prac_learn_study_loop.thisIndex,prac_learn_study_loop.ran,image,prac_learn_test_loop.thisRepN,prac_learn_test_loop.thisTrialN,prac_learn_test_loop.thisN,prac_learn_test_loop.thisIndex,prac_learn_test_loop.ran,learn_study_loop.thisRepN,learn_study_loop.thisTrialN,learn_study_loop.thisN,learn_study_loop.thisIndex,learn_study_loop.ran,list_no,block_no,learn_test_loop.thisRepN,learn_test_loop.thisTrialN,learn_test_loop.thisN,learn_test_loop.thisIndex,learn_test_loop.ran,learn_blocks.thisRepN,learn_blocks.thisTrialN,learn_blocks.thisN,learn_blocks.thisIndex,learn_blocks.ran,block_csv,key_resp_13.keys,key_resp_13.rt,learn_blocks_loop.thisRepN,learn_blocks_loop.thisTrialN,learn_blocks_loop.thisN,learn_blocks_loop.thisIndex,learn_blocks_loop.ran,final_learn_test.thisRepN,final_learn_test.thisTrialN,final_learn_test.thisN,final_learn_test.thisIndex,final_learn_test.ran,s_im1,s_im2,s_im3,s_im4,s_im5,s_im6,s_im7,s_im8,s_im1pos,s_im2pos,s_im3pos,s_im4pos,s_im5pos,s_im6pos,s_im7pos,s_im8pos,s_tarright,search_resp.keys,search_loop.thisRepN,search_loop.thisTrialN,search_loop.thisN,search_loop.thisIndex,search_loop.ran,search_resp.rt,prac_wm_search_loop.thisRepN,prac_wm_search_loop.thisTrialN,prac_wm_search_loop.thisN,prac_wm_search_loop.thisIndex,prac_wm_search_loop.ran,prac_wm_test_loop.thisRepN,prac_wm_test_loop.thisTrialN,prac_wm_test_loop.thisN,prac_wm_test_loop.thisIndex,prac_wm_test_loop.ran,wm_recalled1,wm_recall_rt1,wm_probed1,wm_recall_acc1,wm_recalled2,wm_recall_rt2,wm_probed2,wm_recall_acc2,wm_recalled3,wm_recall_rt3,wm_probed3,wm_recall_acc3,wm_recalled4,wm_recall_rt4,wm_probed4,wm_recall_acc4,prac_wm_trial_loop.thisRepN,prac_wm_trial_loop.thisTrialN,prac_wm_trial_loop.thisN,prac_wm_trial_loop.thisIndex,prac_wm_trial_loop.ran,word1,image1,file1,item_type1,word2,image2,file2,item_type2,word4,image4,file4,item_type4,word3,image3,file3,item_type3,wm_search_loop.thisRepN,wm_search_loop.thisTrialN,wm_search_loop.thisN,wm_search_loop.thisIndex,wm_search_loop.ran,wm_test_loop.thisRepN,wm_test_loop.thisTrialN,wm_test_loop.thisN,wm_test_loop.thisIndex,wm_test_loop.ran,wm_trial_loop.thisRepN,wm_trial_loop.thisTrialN,wm_trial_loop.thisN,wm_trial_loop.thisIndex,wm_trial_loop.ran
y,44.19688,TOUGH,10.551425,1,0,0,0,0,1,stimuli/images/PICTURE_747.png,TOUGH,5c9d2bed010c73001706aeaa,21/02/1951,2020-09-10_22h29.36.977,proactive3.1,2020.1.2,Win32,60,5f599a131af4471f3d752b7b,5f5ae0a513f9ca1eea073576,3,,,,,,,,,,,,,,,,,,,,,,,,,,,,,,,,,,,,,,,,,,,,,,,,,,,,,,,,,,,,,,,,,,,,,,,,,,,,,,,,,,,,,,,,,,,,,,,,,,,,,,,,,,,,,,,,,,,,,,,,,,,,,,,
,,,,,,,,,,stimuli/images/PICTURE_727.png,CELL,5c9d2bed010c73001706aeaa,21/02/1951,2020-09-10_22h29.36.977,proactive3.1,2020.1.2,Win32,60,5f599a131af4471f3d752b7b,5f5ae0a513f9ca1eea073576,3,0,0,0,1,1,hose,,,,,,,,,,,,,,,,,,,,,,,,,,,,,,,,,,,,,,,,,,,,,,,,,,,,,,,,,,,,,,,,,,,,,,,,,,,,,,,,,,,,,,,,,,,,,,,,,,,,,,,,,,,,,,,,,,,,,,,,,
,,,,,,,,,,stimuli/images/PICTURE_658.png,DEVIL,5c9d2bed010c73001706aeaa,21/02/1951,2020-09-10_22h29.36.977,proactive3.1,2020.1.2,Win32,60,5f599a131af4471f3d752b7b,5f5ae0a513f9ca1eea073576,3,0,1,1,3,1,crow,,,,,,,,,,,,,,,,,,,,,,,,,,,,,,,,,,,,,,,,,,,,,,,,,,,,,,,,,,,,,,,,,,,,,,,,,,,,,,,,,,,,,,,,,,,,,,,,,,,,,,,,,,,,,,,,,,,,,,,,,
,,,,,,,,,,stimuli/images/PICTURE_378.png,LOSS,5c9d2bed010c73001706aeaa,21/02/1951,2020-09-10_22h29.36.977,proactive3.1,2020.1.2,Win32,60,5f599a131af4471f3d752b7b,5f5ae0a513f9ca1eea073576,3,0,2,2,2,1,lobster,,,,,,,,,,,,,,,,,,,,,,,,,,,,,,,,,,,,,,,,,,,,,,,,,,,,,,,,,,,,,,,,,,,,,,,,,,,,,,,,,,,,,,,,,,,,,,,,,,,,,,,,,,,,,,,,,,,,,,,,,
,,,,,,,,,,stimuli/images/PICTURE_697.png,KILLER,5c9d2bed010c73001706aeaa,21/02/1951,2020-09-10_22h29.36.977,proactive3.1,2020.1.2,Win32,60,5f599a131af4471f3d752b7b,5f5ae0a513f9ca1eea073576,3,0,3,3,4,1,peach,,,,,,,,,,,,,,,,,,,,,,,,,,,,,,,,,,,,,,,,,,,,,,,,,,,,,,,,,,,,,,,,,,,,,,,,,,,,,,,,,,,,,,,,,,,,,,,,,,,,,,,,,,,,,,,,,,,,,,,,,
,,CELL,4.21478,1,,,,,,stimuli/images/PICTURE_727.png,CELL,5c9d2bed010c73001706aeaa,21/02/1951,2020-09-10_22h29.36.977,proactive3.1,2020.1.2,Win32,60,5f599a131af4471f3d752b7b,5f5ae0a513f9ca1eea073576,3,,,,,,hose,0,0,0,1,1,,,,,,,,,,,,,,,,,,,,,,,,,,,,,,,,,,,,,,,,,,,,,,,,,,,,,,,,,,,,,,,,,,,,,,,,,,,,,,,,,,,,,,,,,,,,,,,,,,,,,,,,,,,,,,,,,,,,
,,DEVIL,5.352355,1,,,,,,stimuli/images/PICTURE_658.png,DEVIL,5c9d2bed010c73001706aeaa,21/02/1951,2020-09-10_22h29.36.977,proactive3.1,2020.1.2,Win32,60,5f599a131af4471f3d752b7b,5f5ae0a513f9ca1eea073576,3,,,,,,crow,0,1,1,3,1,,,,,,,,,,,,,,,,,,,,,,,,,,,,,,,,,,,,,,,,,,,,,,,,,,,,,,,,,,,,,,,,,,,,,,,,,,,,,,,,,,,,,,,,,,,,,,,,,,,,,,,,,,,,,,,,,,,,
,,GENIUS,8.566395,1,,,,,,stimuli/images/PICTURE_269.png,GENIUS,5c9d2bed010c73001706aeaa,21/02/1951,2020-09-10_22h29.36.977,proactive3.1,2020.1.2,Win32,60,5f599a131af4471f3d752b7b,5f5ae0a513f9ca1eea073576,3,,,,,,chameleon,0,2,2,0,1,,,,,,,,,,,,,,,,,,,,,,,,,,,,,,,,,,,,,,,,,,,,,,,,,,,,,,,,,,,,,,,,,,,,,,,,,,,,,,,,,,,,,,,,,,,,,,,,,,,,,,,,,,,,,,,,,,,,
,,KILLER,4.484285,1,,,,,,stimuli/images/PICTURE_697.png,KILLER,5c9d2bed010c73001706aeaa,21/02/1951,2020-09-10_22h29.36.977,proactive3.1,2020.1.2,Win32,60,5f599a131af4471f3d752b7b,5f5ae0a513f9ca1eea073576,3,,,,,,peach,0,3,3,4,1,,,,,,,,,,,,,,,,,,,,,,,,,,,,,,,,,,,,,,,,,,,,,,,,,,,,,,,,,,,,,,,,,,,,,,,,,,,,,,,,,,,,,,,,,,,,,,,,,,,,,,,,,,,,,,,,,,,,
,,LOSS,4.450445,1,,,,,,stimuli/images/PICTURE_378.png,LOSS,5c9d2bed010c73001706aeaa,21/02/1951,2020-09-10_22h29.36.977,proactive3.1,2020.1.2,Win32,60,5f599a131af4471f3d752b7b,5f5ae0a513f9ca1eea073576,3,,,,,,lobster,0,4,4,2,1,,,,,,,,,,,,,,,,,,,,,,,,,,,,,,,,,,,,,,,,,,,,,,,,,,,,,,,,,,,,,,,,,,,,,,,,,,,,,,,,,,,,,,,,,,,,,,,,,,,,,,,,,,,,,,,,,,,,
,,,,,,,,,,stimuli/images/PICTURE_655.png,SALE,5c9d2bed010c73001706aeaa,21/02/1951,2020-09-10_22h29.36.977,proactive3.1,2020.1.2,Win32,60,5f599a131af4471f3d752b7b,5f5ae0a513f9ca1eea073576,3,,,,,,megaphone,,,,,,0,0,0,57,1,6,2,,,,,,,,,,,,,,,,,,,,,,,,,,,,,,,,,,,,,,,,,,,,,,,,,,,,,,,,,,,,,,,,,,,,,,,,,,,,,,,,,,,,,,,,,,,,,,,,,,,,,,,,,,,,,
,,,,,,,,,,stimuli/images/PICTURE_356.png,CANDY,5c9d2bed010c73001706aeaa,21/02/1951,2020-09-10_22h29.36.977,proactive3.1,2020.1.2,Win32,60,5f599a131af4471f3d752b7b,5f5ae0a513f9ca1eea073576,3,,,,,,pawn,,,,,,0,1,1,46,1,5,2,,,,,,,,,,,,,,,,,,,,,,,,,,,,,,,,,,,,,,,,,,,,,,,,,,,,,,,,,,,,,,,,,,,,,,,,,,,,,,,,,,,,,,,,,,,,,,,,,,,,,,,,,,,,,
,,,,,,,,,,stimuli/images/PICTURE_509.png,SHOTS,5c9d2bed010c73001706aeaa,21/02/1951,2020-09-10_22h29.36.977,proactive3.1,2020.1.2,Win32,60,5f599a131af4471f3d752b7b,5f5ae0a513f9ca1eea073576,3,,,,,,telephone,,,,,,0,2,2,7,1,1,2,,,,,,,,,,,,,,,,,,,,,,,,,,,,,,,,,,,,,,,,,,,,,,,,,,,,,,,,,,,,,,,,,,,,,,,,,,,,,,,,,,,,,,,,,,,,,,,,,,,,,,,,,,,,,
,,,,,,,,,,stimuli/images/PICTURE_93.png,GIRL,5c9d2bed010c73001706aeaa,21/02/1951,2020-09-10_22h29.36.977,proactive3.1,2020.1.2,Win32,60,5f599a131af4471f3d752b7b,5f5ae0a513f9ca1eea073576,3,,,,,,skateboard,,,,,,0,3,3,31,1,4,2,,,,,,,,,,,,,,,,,,,,,,,,,,,,,,,,,,,,,,,,,,,,,,,,,,,,,,,,,,,,,,,,,,,,,,,,,,,,,,,,,,,,,,,,,,,,,,,,,,,,,,,,,,,,,
,,,,,,,,,,stimuli/images/PICTURE_2.png,JUNGLE,5c9d2bed010c73001706aeaa,21/02/1951,2020-09-10_22h29.36.977,proactive3.1,2020.1.2,Win32,60,5f599a131af4471f3d752b7b,5f5ae0a513f9ca1eea073576,3,,,,,,tyre,,,,,,0,4,4,1,1,1,2,,,,,,,,,,,,,,,,,,,,,,,,,,,,,,,,,,,,,,,,,,,,,,,,,,,,,,,,,,,,,,,,,,,,,,,,,,,,,,,,,,,,,,,,,,,,,,,,,,,,,,,,,,,,,
,,,,,,,,,,stimuli/images/PICTURE_403.png,FAMILY,5c9d2bed010c73001706aeaa,21/02/1951,2020-09-10_22h29.36.977,proactive3.1,2020.1.2,Win32,60,5f599a131af4471f3d752b7b,5f5ae0a513f9ca1eea073576,3,,,,,,cathedral,,,,,,0,5,5,9,1,1,2,,,,,,,,,,,,,,,,,,,,,,,,,,,,,,,,,,,,,,,,,,,,,,,,,,,,,,,,,,,,,,,,,,,,,,,,,,,,,,,,,,,,,,,,,,,,,,,,,,,,,,,,,,,,,
,,,,,,,,,,stimuli/images/PICTURE_491.png,SERIES,5c9d2bed010c73001706aeaa,21/02/1951,2020-09-10_22h29.36.977,proactive3.1,2020.1.2,Win32,60,5f599a131af4471f3d752b7b,5f5ae0a513f9ca1eea073576,3,,,,,,rug,,,,,,0,6,6,39,1,4,2,,,,,,,,,,,,,,,,,,,,,,,,,,,,,,,,,,,,,,,,,,,,,,,,,,,,,,,,,,,,,,,,,,,,,,,,,,,,,,,,,,,,,,,,,,,,,,,,,,,,,,,,,,,,,
,,,,,,,,,,stimuli/images/PICTURE_57.png,CANDY,5c9d2bed010c73001706aeaa,21/02/1951,2020-09-10_22h29.36.977,proactive3.1,2020.1.2,Win32,60,5f599a131af4471f3d752b7b,5f5ae0a513f9ca1eea073576,3,,,,,,stamp,,,,,,0,7,7,52,1,6,2,,,,,,,,,,,,,,,,,,,,,,,,,,,,,,,,,,,,,,,,,,,,,,,,,,,,,,,,,,,,,,,,,,,,,,,,,,,,,,,,,,,,,,,,,,,,,,,,,,,,,,,,,,,,,
,,,,,,,,,,stimuli/images/PICTURE_654.png,COPS,5c9d2bed010c73001706aeaa,21/02/1951,2020-09-10_22h29.36.977,proactive3.1,2020.1.2,Win32,60,5f599a131af4471f3d752b7b,5f5ae0a513f9ca1eea073576,3,,,,,,pencil,,,,,,0,8,8,10,1,2,2,,,,,,,,,,,,,,,,,,,,,,,,,,,,,,,,,,,,,,,,,,,,,,,,,,,,,,,,,,,,,,,,,,,,,,,,,,,,,,,,,,,,,,,,,,,,,,,,,,,,,,,,,,,,,
,,,,,,,,,,stimuli/images/PICTURE_692.png,DUDE,5c9d2bed010c73001706aeaa,21/02/1951,2020-09-10_22h29.36.977,proactive3.1,2020.1.2,Win32,60,5f599a131af4471f3d752b7b,5f5ae0a513f9ca1eea073576,3,,,,,,cherry,,,,,,0,9,9,47,1,5,2,,,,,,,,,,,,,,,,,,,,,,,,,,,,,,,,,,,,,,,,,,,,,,,,,,,,,,,,,,,,,,,,,,,,,,,,,,,,,,,,,,,,,,,,,,,,,,,,,,,,,,,,,,,,,
,,,,,,,,,,stimuli/images/PICTURE_215.png,BOYS,5c9d2bed010c73001706aeaa,21/02/1951,2020-09-10_22h29.36.977,proactive3.1,2020.1.2,Win32,60,5f599a131af4471f3d752b7b,5f5ae0a513f9ca1eea073576,3,,,,,,boot,,,,,,0,10,10,24,1,3,2,,,,,,,,,,,,,,,,,,,,,,,,,,,,,,,,,,,,,,,,,,,,,,,,,,,,,,,,,,,,,,,,,,,,,,,,,,,,,,,,,,,,,,,,,,,,,,,,,,,,,,,,,,,,,
,,,,,,,,,,stimuli/images/PICTURE_33.png,COPS,5c9d2bed010c73001706aeaa,21/02/1951,2020-09-10_22h29.36.977,proactive3.1,2020.1.2,Win32,60,5f599a131af4471f3d752b7b,5f5ae0a513f9ca1eea073576,3,,,,,,frame,,,,,,0,11,11,29,1,3,2,,,,,,,,,,,,,,,,,,,,,,,,,,,,,,,,,,,,,,,,,,,,,,,,,,,,,,,,,,,,,,,,,,,,,,,,,,,,,,,,,,,,,,,,,,,,,,,,,,,,,,,,,,,,,
,,,,,,,,,,stimuli/images/PICTURE_487.png,POLICY,5c9d2bed010c73001706aeaa,21/02/1951,2020-09-10_22h29.36.977,proactive3.1,2020.1.2,Win32,60,5f599a131af4471f3d752b7b,5f5ae0a513f9ca1eea073576,3,,,,,,basket,,,,,,0,12,12,34,1,4,2,,,,,,,,,,,,,,,,,,,,,,,,,,,,,,,,,,,,,,,,,,,,,,,,,,,,,,,,,,,,,,,,,,,,,,,,,,,,,,,,,,,,,,,,,,,,,,,,,,,,,,,,,,,,,
,,,,,,,,,,stimuli/images/PICTURE_677.png,FAMILY,5c9d2bed010c73001706aeaa,21/02/1951,2020-09-10_22h29.36.977,proactive3.1,2020.1.2,Win32,60,5f599a131af4471f3d752b7b,5f5ae0a513f9ca1eea073576,3,,,,,,map,,,,,,0,13,13,53,1,6,2,,,,,,,,,,,,,,,,,,,,,,,,,,,,,,,,,,,,,,,,,,,,,,,,,,,,,,,,,,,,,,,,,,,,,,,,,,,,,,,,,,,,,,,,,,,,,,,,,,,,,,,,,,,,,
,,,,,,,,,,stimuli/images/PICTURE_348.png,TOILET,5c9d2bed010c73001706aeaa,21/02/1951,2020-09-10_22h29.36.977,proactive3.1,2020.1.2,Win32,60,5f599a131af4471f3d752b7b,5f5ae0a513f9ca1eea073576,3,,,,,,pepper,,,,,,0,14,14,4,1,1,2,,,,,,,,,,,,,,,,,,,,,,,,,,,,,,,,,,,,,,,,,,,,,,,,,,,,,,,,,,,,,,,,,,,,,,,,,,,,,,,,,,,,,,,,,,,,,,,,,,,,,,,,,,,,,
,,,,,,,,,,stimuli/images/PICTURE_32.png,LETTER,5c9d2bed010c73001706aeaa,21/02/1951,2020-09-10_22h29.36.977,proactive3.1,2020.1.2,Win32,60,5f599a131af4471f3d752b7b,5f5ae0a513f9ca1eea073576,3,,,,,,crown,,,,,,0,15,15,56,1,6,2,,,,,,,,,,,,,,,,,,,,,,,,,,,,,,,,,,,,,,,,,,,,,,,,,,,,,,,,,,,,,,,,,,,,,,,,,,,,,,,,,,,,,,,,,,,,,,,,,,,,,,,,,,,,,
,,,,,,,,,,stimuli/images/PICTURE_452.png,COPS,5c9d2bed010c73001706aeaa,21/02/1951,2020-09-10_22h29.36.977,proactive3.1,2020.1.2,Win32,60,5f599a131af4471f3d752b7b,5f5ae0a513f9ca1eea073576,3,,,,,,watch,,,,,,0,16,16,0,1,1,2,,,,,,,,,,,,,,,,,,,,,,,,,,,,,,,,,,,,,,,,,,,,,,,,,,,,,,,,,,,,,,,,,,,,,,,,,,,,,,,,,,,,,,,,,,,,,,,,,,,,,,,,,,,,,
,,,,,,,,,,stimuli/images/PICTURE_453.png,FAMILY,5c9d2bed010c73001706aeaa,21/02/1951,2020-09-10_22h29.36.977,proactive3.1,2020.1.2,Win32,60,5f599a131af4471f3d752b7b,5f5ae0a513f9ca1eea073576,3,,,,,,scissors,,,,,,0,17,17,48,1,5,2,,,,,,,,,,,,,,,,,,,,,,,,,,,,,,,,,,,,,,,,,,,,,,,,,,,,,,,,,,,,,,,,,,,,,,,,,,,,,,,,,,,,,,,,,,,,,,,,,,,,,,,,,,,,,
,,,,,,,,,,stimuli/images/PICTURE_348.png,DUDE,5c9d2bed010c73001706aeaa,21/02/1951,2020-09-10_22h29.36.977,proactive3.1,2020.1.2,Win32,60,5f599a131af4471f3d752b7b,5f5ae0a513f9ca1eea073576,3,,,,,,pepper,,,,,,0,18,18,59,1,6,2,,,,,,,,,,,,,,,,,,,,,,,,,,,,,,,,,,,,,,,,,,,,,,,,,,,,,,,,,,,,,,,,,,,,,,,,,,,,,,,,,,,,,,,,,,,,,,,,,,,,,,,,,,,,,
,,,,,,,,,,stimuli/images/PICTURE_688.png,CLOCK,5c9d2bed010c73001706aeaa,21/02/1951,2020-09-10_22h29.36.977,proactive3.1,2020.1.2,Win32,60,5f599a131af4471f3d752b7b,5f5ae0a513f9ca1eea073576,3,,,,,,runner,,,,,,0,19,19,42,1,5,2,,,,,,,,,,,,,,,,,,,,,,,,,,,,,,,,,,,,,,,,,,,,,,,,,,,,,,,,,,,,,,,,,,,,,,,,,,,,,,,,,,,,,,,,,,,,,,,,,,,,,,,,,,,,,
,,,,,,,,,,stimuli/images/PICTURE_285.png,WRITER,5c9d2bed010c73001706aeaa,21/02/1951,2020-09-10_22h29.36.977,proactive3.1,2020.1.2,Win32,60,5f599a131af4471f3d752b7b,5f5ae0a513f9ca1eea073576,3,,,,,,carrot,,,,,,0,20,20,6,1,1,2,,,,,,,,,,,,,,,,,,,,,,,,,,,,,,,,,,,,,,,,,,,,,,,,,,,,,,,,,,,,,,,,,,,,,,,,,,,,,,,,,,,,,,,,,,,,,,,,,,,,,,,,,,,,,
,,,,,,,,,,stimuli/images/PICTURE_311.png,TOILET,5c9d2bed010c73001706aeaa,21/02/1951,2020-09-10_22h29.36.977,proactive3.1,2020.1.2,Win32,60,5f599a131af4471f3d752b7b,5f5ae0a513f9ca1eea073576,3,,,,,,razor,,,,,,0,21,21,54,1,6,2,,,,,,,,,,,,,,,,,,,,,,,,,,,,,,,,,,,,,,,,,,,,,,,,,,,,,,,,,,,,,,,,,,,,,,,,,,,,,,,,,,,,,,,,,,,,,,,,,,,,,,,,,,,,,
,,,,,,,,,,stimuli/images/PICTURE_297.png,BODY,5c9d2bed010c73001706aeaa,21/02/1951,2020-09-10_22h29.36.977,proactive3.1,2020.1.2,Win32,60,5f599a131af4471f3d752b7b,5f5ae0a513f9ca1eea073576,3,,,,,,aeroplane,,,,,,0,22,22,51,1,6,2,,,,,,,,,,,,,,,,,,,,,,,,,,,,,,,,,,,,,,,,,,,,,,,,,,,,,,,,,,,,,,,,,,,,,,,,,,,,,,,,,,,,,,,,,,,,,,,,,,,,,,,,,,,,,
,,,,,,,,,,stimuli/images/PICTURE_208.png,SPIRIT,5c9d2bed010c73001706aeaa,21/02/1951,2020-09-10_22h29.36.977,proactive3.1,2020.1.2,Win32,60,5f599a131af4471f3d752b7b,5f5ae0a513f9ca1eea073576,3,,,,,,microphone,,,,,,0,23,23,28,1,3,2,,,,,,,,,,,,,,,,,,,,,,,,,,,,,,,,,,,,,,,,,,,,,,,,,,,,,,,,,,,,,,,,,,,,,,,,,,,,,,,,,,,,,,,,,,,,,,,,,,,,,,,,,,,,,
,,,,,,,,,,stimuli/images/PICTURE_215.png,FOOD,5c9d2bed010c73001706aeaa,21/02/1951,2020-09-10_22h29.36.977,proactive3.1,2020.1.2,Win32,60,5f599a131af4471f3d752b7b,5f5ae0a513f9ca1eea073576,3,,,,,,boot,,,,,,0,24,24,5,1,1,2,,,,,,,,,,,,,,,,,,,,,,,,,,,,,,,,,,,,,,,,,,,,,,,,,,,,,,,,,,,,,,,,,,,,,,,,,,,,,,,,,,,,,,,,,,,,,,,,,,,,,,,,,,,,,
,,,,,,,,,,stimuli/images/PICTURE_504.png,HOUSE,5c9d2bed010c73001706aeaa,21/02/1951,2020-09-10_22h29.36.977,proactive3.1,2020.1.2,Win32,60,5f599a131af4471f3d752b7b,5f5ae0a513f9ca1eea073576,3,,,,,,wheel,,,,,,0,25,25,36,1,4,2,,,,,,,,,,,,,,,,,,,,,,,,,,,,,,,,,,,,,,,,,,,,,,,,,,,,,,,,,,,,,,,,,,,,,,,,,,,,,,,,,,,,,,,,,,,,,,,,,,,,,,,,,,,,,
,,,,,,,,,,stimuli/images/PICTURE_68.png,KIND,5c9d2bed010c73001706aeaa,21/02/1951,2020-09-10_22h29.36.977,proactive3.1,2020.1.2,Win32,60,5f599a131af4471f3d752b7b,5f5ae0a513f9ca1eea073576,3,,,,,,candle,,,,,,0,26,26,23,1,3,2,,,,,,,,,,,,,,,,,,,,,,,,,,,,,,,,,,,,,,,,,,,,,,,,,,,,,,,,,,,,,,,,,,,,,,,,,,,,,,,,,,,,,,,,,,,,,,,,,,,,,,,,,,,,,
,,,,,,,,,,stimuli/images/PICTURE_405.png,HOUSE,5c9d2bed010c73001706aeaa,21/02/1951,2020-09-10_22h29.36.977,proactive3.1,2020.1.2,Win32,60,5f599a131af4471f3d752b7b,5f5ae0a513f9ca1eea073576,3,,,,,,anchor,,,,,,0,27,27,2,1,1,2,,,,,,,,,,,,,,,,,,,,,,,,,,,,,,,,,,,,,,,,,,,,,,,,,,,,,,,,,,,,,,,,,,,,,,,,,,,,,,,,,,,,,,,,,,,,,,,,,,,,,,,,,,,,,
,,,,,,,,,,stimuli/images/PICTURE_564.png,PLENTY,5c9d2bed010c73001706aeaa,21/02/1951,2020-09-10_22h29.36.977,proactive3.1,2020.1.2,Win32,60,5f599a131af4471f3d752b7b,5f5ae0a513f9ca1eea073576,3,,,,,,spoon,,,,,,0,28,28,11,1,2,2,,,,,,,,,,,,,,,,,,,,,,,,,,,,,,,,,,,,,,,,,,,,,,,,,,,,,,,,,,,,,,,,,,,,,,,,,,,,,,,,,,,,,,,,,,,,,,,,,,,,,,,,,,,,,
,,,,,,,,,,stimuli/images/PICTURE_750.png,POLICY,5c9d2bed010c73001706aeaa,21/02/1951,2020-09-10_22h29.36.977,proactive3.1,2020.1.2,Win32,60,5f599a131af4471f3d752b7b,5f5ae0a513f9ca1eea073576,3,,,,,,kettle,,,,,,0,29,29,44,1,5,2,,,,,,,,,,,,,,,,,,,,,,,,,,,,,,,,,,,,,,,,,,,,,,,,,,,,,,,,,,,,,,,,,,,,,,,,,,,,,,,,,,,,,,,,,,,,,,,,,,,,,,,,,,,,,
,,,,,,,,,,stimuli/images/PICTURE_314.png,SPEECH,5c9d2bed010c73001706aeaa,21/02/1951,2020-09-10_22h29.36.977,proactive3.1,2020.1.2,Win32,60,5f599a131af4471f3d752b7b,5f5ae0a513f9ca1eea073576,3,,,,,,perfume,,,,,,0,30,30,35,1,4,2,,,,,,,,,,,,,,,,,,,,,,,,,,,,,,,,,,,,,,,,,,,,,,,,,,,,,,,,,,,,,,,,,,,,,,,,,,,,,,,,,,,,,,,,,,,,,,,,,,,,,,,,,,,,,
,,,,,,,,,,stimuli/images/PICTURE_667.png,GLASS,5c9d2bed010c73001706aeaa,21/02/1951,2020-09-10_22h29.36.977,proactive3.1,2020.1.2,Win32,60,5f599a131af4471f3d752b7b,5f5ae0a513f9ca1eea073576,3,,,,,,daisy,,,,,,0,31,31,27,1,3,2,,,,,,,,,,,,,,,,,,,,,,,,,,,,,,,,,,,,,,,,,,,,,,,,,,,,,,,,,,,,,,,,,,,,,,,,,,,,,,,,,,,,,,,,,,,,,,,,,,,,,,,,,,,,,
,,,,,,,,,,stimuli/images/PICTURE_141.png,CLIENT,5c9d2bed010c73001706aeaa,21/02/1951,2020-09-10_22h29.36.977,proactive3.1,2020.1.2,Win32,60,5f599a131af4471f3d752b7b,5f5ae0a513f9ca1eea073576,3,,,,,,sunflower,,,,,,0,32,32,30,1,4,2,,,,,,,,,,,,,,,,,,,,,,,,,,,,,,,,,,,,,,,,,,,,,,,,,,,,,,,,,,,,,,,,,,,,,,,,,,,,,,,,,,,,,,,,,,,,,,,,,,,,,,,,,,,,,
,,,,,,,,,,stimuli/images/PICTURE_654.png,YEAR,5c9d2bed010c73001706aeaa,21/02/1951,2020-09-10_22h29.36.977,proactive3.1,2020.1.2,Win32,60,5f599a131af4471f3d752b7b,5f5ae0a513f9ca1eea073576,3,,,,,,pencil,,,,,,0,33,33,41,1,5,2,,,,,,,,,,,,,,,,,,,,,,,,,,,,,,,,,,,,,,,,,,,,,,,,,,,,,,,,,,,,,,,,,,,,,,,,,,,,,,,,,,,,,,,,,,,,,,,,,,,,,,,,,,,,,
,,,,,,,,,,stimuli/images/PICTURE_470.png,BEAUTY,5c9d2bed010c73001706aeaa,21/02/1951,2020-09-10_22h29.36.977,proactive3.1,2020.1.2,Win32,60,5f599a131af4471f3d752b7b,5f5ae0a513f9ca1eea073576,3,,,,,,motorbike,,,,,,0,34,34,26,1,3,2,,,,,,,,,,,,,,,,,,,,,,,,,,,,,,,,,,,,,,,,,,,,,,,,,,,,,,,,,,,,,,,,,,,,,,,,,,,,,,,,,,,,,,,,,,,,,,,,,,,,,,,,,,,,,
,,,,,,,,,,stimuli/images/PICTURE_177.png,HOUSE,5c9d2bed010c73001706aeaa,21/02/1951,2020-09-10_22h29.36.977,proactive3.1,2020.1.2,Win32,60,5f599a131af4471f3d752b7b,5f5ae0a513f9ca1eea073576,3,,,,,,mushroom,,,,,,0,35,35,25,1,3,2,,,,,,,,,,,,,,,,,,,,,,,,,,,,,,,,,,,,,,,,,,,,,,,,,,,,,,,,,,,,,,,,,,,,,,,,,,,,,,,,,,,,,,,,,,,,,,,,,,,,,,,,,,,,,
,,,,,,,,,,stimuli/images/PICTURE_487.png,ROOF,5c9d2bed010c73001706aeaa,21/02/1951,2020-09-10_22h29.36.977,proactive3.1,2020.1.2,Win32,60,5f599a131af4471f3d752b7b,5f5ae0a513f9ca1eea073576,3,,,,,,basket,,,,,,0,36,36,50,1,6,2,,,,,,,,,,,,,,,,,,,,,,,,,,,,,,,,,,,,,,,,,,,,,,,,,,,,,,,,,,,,,,,,,,,,,,,,,,,,,,,,,,,,,,,,,,,,,,,,,,,,,,,,,,,,,
,,,,,,,,,,stimuli/images/PICTURE_708.png,VALLEY,5c9d2bed010c73001706aeaa,21/02/1951,2020-09-10_22h29.36.977,proactive3.1,2020.1.2,Win32,60,5f599a131af4471f3d752b7b,5f5ae0a513f9ca1eea073576,3,,,,,,monkey,,,,,,0,37,37,45,1,5,2,,,,,,,,,,,,,,,,,,,,,,,,,,,,,,,,,,,,,,,,,,,,,,,,,,,,,,,,,,,,,,,,,,,,,,,,,,,,,,,,,,,,,,,,,,,,,,,,,,,,,,,,,,,,,
,,,,,,,,,,stimuli/images/PICTURE_123.png,SALE,5c9d2bed010c73001706aeaa,21/02/1951,2020-09-10_22h29.36.977,proactive3.1,2020.1.2,Win32,60,5f599a131af4471f3d752b7b,5f5ae0a513f9ca1eea073576,3,,,,,,dart,,,,,,0,38,38,8,1,1,2,,,,,,,,,,,,,,,,,,,,,,,,,,,,,,,,,,,,,,,,,,,,,,,,,,,,,,,,,,,,,,,,,,,,,,,,,,,,,,,,,,,,,,,,,,,,,,,,,,,,,,,,,,,,,
,,,,,,,,,,stimuli/images/PICTURE_57.png,CASINO,5c9d2bed010c73001706aeaa,21/02/1951,2020-09-10_22h29.36.977,proactive3.1,2020.1.2,Win32,60,5f599a131af4471f3d752b7b,5f5ae0a513f9ca1eea073576,3,,,,,,stamp,,,,,,0,39,39,12,1,2,2,,,,,,,,,,,,,,,,,,,,,,,,,,,,,,,,,,,,,,,,,,,,,,,,,,,,,,,,,,,,,,,,,,,,,,,,,,,,,,,,,,,,,,,,,,,,,,,,,,,,,,,,,,,,,
,,,,,,,,,,stimuli/images/PICTURE_255.png,PENNY,5c9d2bed010c73001706aeaa,21/02/1951,2020-09-10_22h29.36.977,proactive3.1,2020.1.2,Win32,60,5f599a131af4471f3d752b7b,5f5ae0a513f9ca1eea073576,3,,,,,,shovel,,,,,,0,40,40,19,1,2,2,,,,,,,,,,,,,,,,,,,,,,,,,,,,,,,,,,,,,,,,,,,,,,,,,,,,,,,,,,,,,,,,,,,,,,,,,,,,,,,,,,,,,,,,,,,,,,,,,,,,,,,,,,,,,
,,,,,,,,,,stimuli/images/PICTURE_160.png,HOTEL,5c9d2bed010c73001706aeaa,21/02/1951,2020-09-10_22h29.36.977,proactive3.1,2020.1.2,Win32,60,5f599a131af4471f3d752b7b,5f5ae0a513f9ca1eea073576,3,,,,,,wheelbarrow,,,,,,0,41,41,16,1,2,2,,,,,,,,,,,,,,,,,,,,,,,,,,,,,,,,,,,,,,,,,,,,,,,,,,,,,,,,,,,,,,,,,,,,,,,,,,,,,,,,,,,,,,,,,,,,,,,,,,,,,,,,,,,,,
,,,,,,,,,,stimuli/images/PICTURE_2.png,AREA,5c9d2bed010c73001706aeaa,21/02/1951,2020-09-10_22h29.36.977,proactive3.1,2020.1.2,Win32,60,5f599a131af4471f3d752b7b,5f5ae0a513f9ca1eea073576,3,,,,,,tyre,,,,,,0,42,42,32,1,4,2,,,,,,,,,,,,,,,,,,,,,,,,,,,,,,,,,,,,,,,,,,,,,,,,,,,,,,,,,,,,,,,,,,,,,,,,,,,,,,,,,,,,,,,,,,,,,,,,,,,,,,,,,,,,,
,,,,,,,,,,stimuli/images/PICTURE_327.png,LEADER,5c9d2bed010c73001706aeaa,21/02/1951,2020-09-10_22h29.36.977,proactive3.1,2020.1.2,Win32,60,5f599a131af4471f3d752b7b,5f5ae0a513f9ca1eea073576,3,,,,,,helmet,,,,,,0,43,43,17,1,2,2,,,,,,,,,,,,,,,,,,,,,,,,,,,,,,,,,,,,,,,,,,,,,,,,,,,,,,,,,,,,,,,,,,,,,,,,,,,,,,,,,,,,,,,,,,,,,,,,,,,,,,,,,,,,,
,,,,,,,,,,stimuli/images/PICTURE_509.png,APPLE,5c9d2bed010c73001706aeaa,21/02/1951,2020-09-10_22h29.36.977,proactive3.1,2020.1.2,Win32,60,5f599a131af4471f3d752b7b,5f5ae0a513f9ca1eea073576,3,,,,,,telephone,,,,,,0,44,44,38,1,4,2,,,,,,,,,,,,,,,,,,,,,,,,,,,,,,,,,,,,,,,,,,,,,,,,,,,,,,,,,,,,,,,,,,,,,,,,,,,,,,,,,,,,,,,,,,,,,,,,,,,,,,,,,,,,,
,,,,,,,,,,stimuli/images/PICTURE_95.png,NIGHT,5c9d2bed010c73001706aeaa,21/02/1951,2020-09-10_22h29.36.977,proactive3.1,2020.1.2,Win32,60,5f599a131af4471f3d752b7b,5f5ae0a513f9ca1eea073576,3,,,,,,suitcase,,,,,,0,45,45,37,1,4,2,,,,,,,,,,,,,,,,,,,,,,,,,,,,,,,,,,,,,,,,,,,,,,,,,,,,,,,,,,,,,,,,,,,,,,,,,,,,,,,,,,,,,,,,,,,,,,,,,,,,,,,,,,,,,
,,,,,,,,,,stimuli/images/PICTURE_296.png,CLOCK,5c9d2bed010c73001706aeaa,21/02/1951,2020-09-10_22h29.36.977,proactive3.1,2020.1.2,Win32,60,5f599a131af4471f3d752b7b,5f5ae0a513f9ca1eea073576,3,,,,,,bolt,,,,,,0,46,46,18,1,2,2,,,,,,,,,,,,,,,,,,,,,,,,,,,,,,,,,,,,,,,,,,,,,,,,,,,,,,,,,,,,,,,,,,,,,,,,,,,,,,,,,,,,,,,,,,,,,,,,,,,,,,,,,,,,,
,,,,,,,,,,stimuli/images/PICTURE_147.png,LEADER,5c9d2bed010c73001706aeaa,21/02/1951,2020-09-10_22h29.36.977,proactive3.1,2020.1.2,Win32,60,5f599a131af4471f3d752b7b,5f5ae0a513f9ca1eea073576,3,,,,,,hanger,,,,,,0,47,47,33,1,4,2,,,,,,,,,,,,,,,,,,,,,,,,,,,,,,,,,,,,,,,,,,,,,,,,,,,,,,,,,,,,,,,,,,,,,,,,,,,,,,,,,,,,,,,,,,,,,,,,,,,,,,,,,,,,,
,,,,,,,,,,stimuli/images/PICTURE_405.png,JUNGLE,5c9d2bed010c73001706aeaa,21/02/1951,2020-09-10_22h29.36.977,proactive3.1,2020.1.2,Win32,60,5f599a131af4471f3d752b7b,5f5ae0a513f9ca1eea073576,3,,,,,,anchor,,,,,,0,48,48,58,1,6,2,,,,,,,,,,,,,,,,,,,,,,,,,,,,,,,,,,,,,,,,,,,,,,,,,,,,,,,,,,,,,,,,,,,,,,,,,,,,,,,,,,,,,,,,,,,,,,,,,,,,,,,,,,,,,
,,,,,,,,,,stimuli/images/PICTURE_405.png,JUNGLE,5c9d2bed010c73001706aeaa,21/02/1951,2020-09-10_22h29.36.977,proactive3.1,2020.1.2,Win32,60,5f599a131af4471f3d752b7b,5f5ae0a513f9ca1eea073576,3,,,,,,anchor,,,,,,0,49,49,13,1,2,2,,,,,,,,,,,,,,,,,,,,,,,,,,,,,,,,,,,,,,,,,,,,,,,,,,,,,,,,,,,,,,,,,,,,,,,,,,,,,,,,,,,,,,,,,,,,,,,,,,,,,,,,,,,,,
,,,,,,,,,,stimuli/images/PICTURE_509.png,MILLER,5c9d2bed010c73001706aeaa,21/02/1951,2020-09-10_22h29.36.977,proactive3.1,2020.1.2,Win32,60,5f599a131af4471f3d752b7b,5f5ae0a513f9ca1eea073576,3,,,,,,telephone,,,,,,0,50,50,49,1,5,2,,,,,,,,,,,,,,,,,,,,,,,,,,,,,,,,,,,,,,,,,,,,,,,,,,,,,,,,,,,,,,,,,,,,,,,,,,,,,,,,,,,,,,,,,,,,,,,,,,,,,,,,,,,,,
,,,,,,,,,,stimuli/images/PICTURE_215.png,LEADER,5c9d2bed010c73001706aeaa,21/02/1951,2020-09-10_22h29.36.977,proactive3.1,2020.1.2,Win32,60,5f599a131af4471f3d752b7b,5f5ae0a513f9ca1eea073576,3,,,,,,boot,,,,,,0,51,51,43,1,5,2,,,,,,,,,,,,,,,,,,,,,,,,,,,,,,,,,,,,,,,,,,,,,,,,,,,,,,,,,,,,,,,,,,,,,,,,,,,,,,,,,,,,,,,,,,,,,,,,,,,,,,,,,,,,,
,,,,,,,,,,stimuli/images/PICTURE_311.png,FLESH,5c9d2bed010c73001706aeaa,21/02/1951,2020-09-10_22h29.36.977,proactive3.1,2020.1.2,Win32,60,5f599a131af4471f3d752b7b,5f5ae0a513f9ca1eea073576,3,,,,,,razor,,,,,,0,52,52,3,1,1,2,,,,,,,,,,,,,,,,,,,,,,,,,,,,,,,,,,,,,,,,,,,,,,,,,,,,,,,,,,,,,,,,,,,,,,,,,,,,,,,,,,,,,,,,,,,,,,,,,,,,,,,,,,,,,
,,,,,,,,,,stimuli/images/PICTURE_2.png,YARD,5c9d2bed010c73001706aeaa,21/02/1951,2020-09-10_22h29.36.977,proactive3.1,2020.1.2,Win32,60,5f599a131af4471f3d752b7b,5f5ae0a513f9ca1eea073576,3,,,,,,tyre,,,,,,0,53,53,55,1,6,2,,,,,,,,,,,,,,,,,,,,,,,,,,,,,,,,,,,,,,,,,,,,,,,,,,,,,,,,,,,,,,,,,,,,,,,,,,,,,,,,,,,,,,,,,,,,,,,,,,,,,,,,,,,,,
,,,,,,,,,,stimuli/images/PICTURE_677.png,PHOTO,5c9d2bed010c73001706aeaa,21/02/1951,2020-09-10_22h29.36.977,proactive3.1,2020.1.2,Win32,60,5f599a131af4471f3d752b7b,5f5ae0a513f9ca1eea073576,3,,,,,,map,,,,,,0,54,54,14,1,2,2,,,,,,,,,,,,,,,,,,,,,,,,,,,,,,,,,,,,,,,,,,,,,,,,,,,,,,,,,,,,,,,,,,,,,,,,,,,,,,,,,,,,,,,,,,,,,,,,,,,,,,,,,,,,,
,,,,,,,,,,stimuli/images/PICTURE_57.png,NATION,5c9d2bed010c73001706aeaa,21/02/1951,2020-09-10_22h29.36.977,proactive3.1,2020.1.2,Win32,60,5f599a131af4471f3d752b7b,5f5ae0a513f9ca1eea073576,3,,,,,,stamp,,,,,,0,55,55,21,1,3,2,,,,,,,,,,,,,,,,,,,,,,,,,,,,,,,,,,,,,,,,,,,,,,,,,,,,,,,,,,,,,,,,,,,,,,,,,,,,,,,,,,,,,,,,,,,,,,,,,,,,,,,,,,,,,
,,,,,,,,,,stimuli/images/PICTURE_18.png,RIVER,5c9d2bed010c73001706aeaa,21/02/1951,2020-09-10_22h29.36.977,proactive3.1,2020.1.2,Win32,60,5f599a131af4471f3d752b7b,5f5ae0a513f9ca1eea073576,3,,,,,,planet,,,,,,0,56,56,22,1,3,2,,,,,,,,,,,,,,,,,,,,,,,,,,,,,,,,,,,,,,,,,,,,,,,,,,,,,,,,,,,,,,,,,,,,,,,,,,,,,,,,,,,,,,,,,,,,,,,,,,,,,,,,,,,,,
,,,,,,,,,,stimuli/images/PICTURE_509.png,BATH,5c9d2bed010c73001706aeaa,21/02/1951,2020-09-10_22h29.36.977,proactive3.1,2020.1.2,Win32,60,5f599a131af4471f3d752b7b,5f5ae0a513f9ca1eea073576,3,,,,,,telephone,,,,,,0,57,57,15,1,2,2,,,,,,,,,,,,,,,,,,,,,,,,,,,,,,,,,,,,,,,,,,,,,,,,,,,,,,,,,,,,,,,,,,,,,,,,,,,,,,,,,,,,,,,,,,,,,,,,,,,,,,,,,,,,,
,,,,,,,,,,stimuli/images/PICTURE_470.png,MOMENT,5c9d2bed010c73001706aeaa,21/02/1951,2020-09-10_22h29.36.977,proactive3.1,2020.1.2,Win32,60,5f599a131af4471f3d752b7b,5f5ae0a513f9ca1eea073576,3,,,,,,motorbike,,,,,,0,58,58,40,1,5,2,,,,,,,,,,,,,,,,,,,,,,,,,,,,,,,,,,,,,,,,,,,,,,,,,,,,,,,,,,,,,,,,,,,,,,,,,,,,,,,,,,,,,,,,,,,,,,,,,,,,,,,,,,,,,
,,?,0.00223,0,,,,,,stimuli/images/PICTURE_491.png,SERIES,5c9d2bed010c73001706aeaa,21/02/1951,2020-09-10_22h29.36.977,proactive3.1,2020.1.2,Win32,60,5f599a131af4471f3d752b7b,5f5ae0a513f9ca1eea073576,3,,,,,,rug,,,,,,,,,,,4,2,0,0,0,39,1,,,,,,,,,,,,,,,,,,,,,,,,,,,,,,,,,,,,,,,,,,,,,,,,,,,,,,,,,,,,,,,,,,,,,,,,,,,,,,,,,,,,,,,,,,,,,,,,,,,,,,,,
,,?,0.001855,0,,,,,,stimuli/images/PICTURE_405.png,JUNGLE,5c9d2bed010c73001706aeaa,21/02/1951,2020-09-10_22h29.36.977,proactive3.1,2020.1.2,Win32,60,5f599a131af4471f3d752b7b,5f5ae0a513f9ca1eea073576,3,,,,,,anchor,,,,,,,,,,,6,2,0,1,1,58,1,,,,,,,,,,,,,,,,,,,,,,,,,,,,,,,,,,,,,,,,,,,,,,,,,,,,,,,,,,,,,,,,,,,,,,,,,,,,,,,,,,,,,,,,,,,,,,,,,,,,,,,,
,,?,0.002045,0,,,,,,stimuli/images/PICTURE_348.png,TOILET,5c9d2bed010c73001706aeaa,21/02/1951,2020-09-10_22h29.36.977,proactive3.1,2020.1.2,Win32,60,5f599a131af4471f3d752b7b,5f5ae0a513f9ca1eea073576,3,,,,,,pepper,,,,,,,,,,,1,2,0,2,2,4,1,,,,,,,,,,,,,,,,,,,,,,,,,,,,,,,,,,,,,,,,,,,,,,,,,,,,,,,,,,,,,,,,,,,,,,,,,,,,,,,,,,,,,,,,,,,,,,,,,,,,,,,,
,,?,0.002075,0,,,,,,stimuli/images/PICTURE_509.png,BATH,5c9d2bed010c73001706aeaa,21/02/1951,2020-09-10_22h29.36.977,proactive3.1,2020.1.2,Win32,60,5f599a131af4471f3d752b7b,5f5ae0a513f9ca1eea073576,3,,,,,,telephone,,,,,,,,,,,2,2,0,3,3,15,1,,,,,,,,,,,,,,,,,,,,,,,,,,,,,,,,,,,,,,,,,,,,,,,,,,,,,,,,,,,,,,,,,,,,,,,,,,,,,,,,,,,,,,,,,,,,,,,,,,,,,,,,
,,?,6.769605,0,,,,,,stimuli/images/PICTURE_57.png,NATION,5c9d2bed010c73001706aeaa,21/02/1951,2020-09-10_22h29.36.977,proactive3.1,2020.1.2,Win32,60,5f599a131af4471f3d752b7b,5f5ae0a513f9ca1eea073576,3,,,,,,stamp,,,,,,,,,,,3,2,0,4,4,21,1,,,,,,,,,,,,,,,,,,,,,,,,,,,,,,,,,,,,,,,,,,,,,,,,,,,,,,,,,,,,,,,,,,,,,,,,,,,,,,,,,,,,,,,,,,,,,,,,,,,,,,,,
,,?,0.002175,0,,,,,,stimuli/images/PICTURE_356.png,CANDY,5c9d2bed010c73001706aeaa,21/02/1951,2020-09-10_22h29.36.977,proactive3.1,2020.1.2,Win32,60,5f599a131af4471f3d752b7b,5f5ae0a513f9ca1eea073576,3,,,,,,pawn,,,,,,,,,,,5,2,0,5,5,46,1,,,,,,,,,,,,,,,,,,,,,,,,,,,,,,,,,,,,,,,,,,,,,,,,,,,,,,,,,,,,,,,,,,,,,,,,,,,,,,,,,,,,,,,,,,,,,,,,,,,,,,,,
,,?,0.00231,0,,,,,,stimuli/images/PICTURE_452.png,COPS,5c9d2bed010c73001706aeaa,21/02/1951,2020-09-10_22h29.36.977,proactive3.1,2020.1.2,Win32,60,5f599a131af4471f3d752b7b,5f5ae0a513f9ca1eea073576,3,,,,,,watch,,,,,,,,,,,1,2,0,6,6,0,1,,,,,,,,,,,,,,,,,,,,,,,,,,,,,,,,,,,,,,,,,,,,,,,,,,,,,,,,,,,,,,,,,,,,,,,,,,,,,,,,,,,,,,,,,,,,,,,,,,,,,,,,
,,?,0.001905,0,,,,,,stimuli/images/PICTURE_2.png,YARD,5c9d2bed010c73001706aeaa,21/02/1951,2020-09-10_22h29.36.977,proactive3.1,2020.1.2,Win32,60,5f599a131af4471f3d752b7b,5f5ae0a513f9ca1eea073576,3,,,,,,tyre,,,,,,,,,,,6,2,0,7,7,55,1,,,,,,,,,,,,,,,,,,,,,,,,,,,,,,,,,,,,,,,,,,,,,,,,,,,,,,,,,,,,,,,,,,,,,,,,,,,,,,,,,,,,,,,,,,,,,,,,,,,,,,,,
,,?,0.00189,0,,,,,,stimuli/images/PICTURE_453.png,FAMILY,5c9d2bed010c73001706aeaa,21/02/1951,2020-09-10_22h29.36.977,proactive3.1,2020.1.2,Win32,60,5f599a131af4471f3d752b7b,5f5ae0a513f9ca1eea073576,3,,,,,,scissors,,,,,,,,,,,5,2,0,8,8,48,1,,,,,,,,,,,,,,,,,,,,,,,,,,,,,,,,,,,,,,,,,,,,,,,,,,,,,,,,,,,,,,,,,,,,,,,,,,,,,,,,,,,,,,,,,,,,,,,,,,,,,,,,
,,?,0.0019,0,,,,,,stimuli/images/PICTURE_123.png,SALE,5c9d2bed010c73001706aeaa,21/02/1951,2020-09-10_22h29.36.977,proactive3.1,2020.1.2,Win32,60,5f599a131af4471f3d752b7b,5f5ae0a513f9ca1eea073576,3,,,,,,dart,,,,,,,,,,,1,2,0,9,9,8,1,,,,,,,,,,,,,,,,,,,,,,,,,,,,,,,,,,,,,,,,,,,,,,,,,,,,,,,,,,,,,,,,,,,,,,,,,,,,,,,,,,,,,,,,,,,,,,,,,,,,,,,,
,,?,0.001785,0,,,,,,stimuli/images/PICTURE_95.png,NIGHT,5c9d2bed010c73001706aeaa,21/02/1951,2020-09-10_22h29.36.977,proactive3.1,2020.1.2,Win32,60,5f599a131af4471f3d752b7b,5f5ae0a513f9ca1eea073576,3,,,,,,suitcase,,,,,,,,,,,4,2,0,10,10,37,1,,,,,,,,,,,,,,,,,,,,,,,,,,,,,,,,,,,,,,,,,,,,,,,,,,,,,,,,,,,,,,,,,,,,,,,,,,,,,,,,,,,,,,,,,,,,,,,,,,,,,,,,
,,RIVER,5.514635,1,,,,,,stimuli/images/PICTURE_18.png,RIVER,5c9d2bed010c73001706aeaa,21/02/1951,2020-09-10_22h29.36.977,proactive3.1,2020.1.2,Win32,60,5f599a131af4471f3d752b7b,5f5ae0a513f9ca1eea073576,3,,,,,,planet,,,,,,,,,,,3,2,0,11,11,22,1,,,,,,,,,,,,,,,,,,,,,,,,,,,,,,,,,,,,,,,,,,,,,,,,,,,,,,,,,,,,,,,,,,,,,,,,,,,,,,,,,,,,,,,,,,,,,,,,,,,,,,,,
,,?,0.002655,0,,,,,,stimuli/images/PICTURE_32.png,LETTER,5c9d2bed010c73001706aeaa,21/02/1951,2020-09-10_22h29.36.977,proactive3.1,2020.1.2,Win32,60,5f599a131af4471f3d752b7b,5f5ae0a513f9ca1eea073576,3,,,,,,crown,,,,,,,,,,,6,2,0,12,12,56,1,,,,,,,,,,,,,,,,,,,,,,,,,,,,,,,,,,,,,,,,,,,,,,,,,,,,,,,,,,,,,,,,,,,,,,,,,,,,,,,,,,,,,,,,,,,,,,,,,,,,,,,,
,,?,0.001875,0,,,,,,stimuli/images/PICTURE_403.png,FAMILY,5c9d2bed010c73001706aeaa,21/02/1951,2020-09-10_22h29.36.977,proactive3.1,2020.1.2,Win32,60,5f599a131af4471f3d752b7b,5f5ae0a513f9ca1eea073576,3,,,,,,cathedral,,,,,,,,,,,1,2,0,13,13,9,1,,,,,,,,,,,,,,,,,,,,,,,,,,,,,,,,,,,,,,,,,,,,,,,,,,,,,,,,,,,,,,,,,,,,,,,,,,,,,,,,,,,,,,,,,,,,,,,,,,,,,,,,
,,?,0.002595,0,,,,,,stimuli/images/PICTURE_297.png,BODY,5c9d2bed010c73001706aeaa,21/02/1951,2020-09-10_22h29.36.977,proactive3.1,2020.1.2,Win32,60,5f599a131af4471f3d752b7b,5f5ae0a513f9ca1eea073576,3,,,,,,aeroplane,,,,,,,,,,,6,2,0,14,14,51,1,,,,,,,,,,,,,,,,,,,,,,,,,,,,,,,,,,,,,,,,,,,,,,,,,,,,,,,,,,,,,,,,,,,,,,,,,,,,,,,,,,,,,,,,,,,,,,,,,,,,,,,,
,,?,0.00187,0,,,,,,stimuli/images/PICTURE_750.png,POLICY,5c9d2bed010c73001706aeaa,21/02/1951,2020-09-10_22h29.36.977,proactive3.1,2020.1.2,Win32,60,5f599a131af4471f3d752b7b,5f5ae0a513f9ca1eea073576,3,,,,,,kettle,,,,,,,,,,,5,2,0,15,15,44,1,,,,,,,,,,,,,,,,,,,,,,,,,,,,,,,,,,,,,,,,,,,,,,,,,,,,,,,,,,,,,,,,,,,,,,,,,,,,,,,,,,,,,,,,,,,,,,,,,,,,,,,,
,,?,0.00176,0,,,,,,stimuli/images/PICTURE_57.png,CANDY,5c9d2bed010c73001706aeaa,21/02/1951,2020-09-10_22h29.36.977,proactive3.1,2020.1.2,Win32,60,5f599a131af4471f3d752b7b,5f5ae0a513f9ca1eea073576,3,,,,,,stamp,,,,,,,,,,,6,2,0,16,16,52,1,,,,,,,,,,,,,,,,,,,,,,,,,,,,,,,,,,,,,,,,,,,,,,,,,,,,,,,,,,,,,,,,,,,,,,,,,,,,,,,,,,,,,,,,,,,,,,,,,,,,,,,,
,,?,0.001865,0,,,,,,stimuli/images/PICTURE_405.png,HOUSE,5c9d2bed010c73001706aeaa,21/02/1951,2020-09-10_22h29.36.977,proactive3.1,2020.1.2,Win32,60,5f599a131af4471f3d752b7b,5f5ae0a513f9ca1eea073576,3,,,,,,anchor,,,,,,,,,,,1,2,0,17,17,2,1,,,,,,,,,,,,,,,,,,,,,,,,,,,,,,,,,,,,,,,,,,,,,,,,,,,,,,,,,,,,,,,,,,,,,,,,,,,,,,,,,,,,,,,,,,,,,,,,,,,,,,,,
,,?,0.002425,0,,,,,,stimuli/images/PICTURE_654.png,COPS,5c9d2bed010c73001706aeaa,21/02/1951,2020-09-10_22h29.36.977,proactive3.1,2020.1.2,Win32,60,5f599a131af4471f3d752b7b,5f5ae0a513f9ca1eea073576,3,,,,,,pencil,,,,,,,,,,,2,2,0,18,18,10,1,,,,,,,,,,,,,,,,,,,,,,,,,,,,,,,,,,,,,,,,,,,,,,,,,,,,,,,,,,,,,,,,,,,,,,,,,,,,,,,,,,,,,,,,,,,,,,,,,,,,,,,,
,,?,0.00206,0,,,,,,stimuli/images/PICTURE_677.png,FAMILY,5c9d2bed010c73001706aeaa,21/02/1951,2020-09-10_22h29.36.977,proactive3.1,2020.1.2,Win32,60,5f599a131af4471f3d752b7b,5f5ae0a513f9ca1eea073576,3,,,,,,map,,,,,,,,,,,6,2,0,19,19,53,1,,,,,,,,,,,,,,,,,,,,,,,,,,,,,,,,,,,,,,,,,,,,,,,,,,,,,,,,,,,,,,,,,,,,,,,,,,,,,,,,,,,,,,,,,,,,,,,,,,,,,,,,
,,?,0.00183,0,,,,,,stimuli/images/PICTURE_509.png,SHOTS,5c9d2bed010c73001706aeaa,21/02/1951,2020-09-10_22h29.36.977,proactive3.1,2020.1.2,Win32,60,5f599a131af4471f3d752b7b,5f5ae0a513f9ca1eea073576,3,,,,,,telephone,,,,,,,,,,,1,2,0,20,20,7,1,,,,,,,,,,,,,,,,,,,,,,,,,,,,,,,,,,,,,,,,,,,,,,,,,,,,,,,,,,,,,,,,,,,,,,,,,,,,,,,,,,,,,,,,,,,,,,,,,,,,,,,,
,,?,0.002255,0,,,,,,stimuli/images/PICTURE_688.png,CLOCK,5c9d2bed010c73001706aeaa,21/02/1951,2020-09-10_22h29.36.977,proactive3.1,2020.1.2,Win32,60,5f599a131af4471f3d752b7b,5f5ae0a513f9ca1eea073576,3,,,,,,runner,,,,,,,,,,,5,2,0,21,21,42,1,,,,,,,,,,,,,,,,,,,,,,,,,,,,,,,,,,,,,,,,,,,,,,,,,,,,,,,,,,,,,,,,,,,,,,,,,,,,,,,,,,,,,,,,,,,,,,,,,,,,,,,,
,,?,4.27975,0,,,,,,stimuli/images/PICTURE_68.png,KIND,5c9d2bed010c73001706aeaa,21/02/1951,2020-09-10_22h29.36.977,proactive3.1,2020.1.2,Win32,60,5f599a131af4471f3d752b7b,5f5ae0a513f9ca1eea073576,3,,,,,,candle,,,,,,,,,,,3,2,0,22,22,23,1,,,,,,,,,,,,,,,,,,,,,,,,,,,,,,,,,,,,,,,,,,,,,,,,,,,,,,,,,,,,,,,,,,,,,,,,,,,,,,,,,,,,,,,,,,,,,,,,,,,,,,,,
,,BEAUTY,6.187095,1,,,,,,stimuli/images/PICTURE_470.png,BEAUTY,5c9d2bed010c73001706aeaa,21/02/1951,2020-09-10_22h29.36.977,proactive3.1,2020.1.2,Win32,60,5f599a131af4471f3d752b7b,5f5ae0a513f9ca1eea073576,3,,,,,,motorbike,,,,,,,,,,,3,2,0,23,23,26,1,,,,,,,,,,,,,,,,,,,,,,,,,,,,,,,,,,,,,,,,,,,,,,,,,,,,,,,,,,,,,,,,,,,,,,,,,,,,,,,,,,,,,,,,,,,,,,,,,,,,,,,,
,,?,0.00245,0,,,,,,stimuli/images/PICTURE_160.png,HOTEL,5c9d2bed010c73001706aeaa,21/02/1951,2020-09-10_22h29.36.977,proactive3.1,2020.1.2,Win32,60,5f599a131af4471f3d752b7b,5f5ae0a513f9ca1eea073576,3,,,,,,wheelbarrow,,,,,,,,,,,2,2,0,24,24,16,1,,,,,,,,,,,,,,,,,,,,,,,,,,,,,,,,,,,,,,,,,,,,,,,,,,,,,,,,,,,,,,,,,,,,,,,,,,,,,,,,,,,,,,,,,,,,,,,,,,,,,,,,
,,?,0.002035,0,,,,,,stimuli/images/PICTURE_2.png,JUNGLE,5c9d2bed010c73001706aeaa,21/02/1951,2020-09-10_22h29.36.977,proactive3.1,2020.1.2,Win32,60,5f599a131af4471f3d752b7b,5f5ae0a513f9ca1eea073576,3,,,,,,tyre,,,,,,,,,,,1,2,0,25,25,1,1,,,,,,,,,,,,,,,,,,,,,,,,,,,,,,,,,,,,,,,,,,,,,,,,,,,,,,,,,,,,,,,,,,,,,,,,,,,,,,,,,,,,,,,,,,,,,,,,,,,,,,,,
,,?,0.001915,0,,,,,,stimuli/images/PICTURE_487.png,POLICY,5c9d2bed010c73001706aeaa,21/02/1951,2020-09-10_22h29.36.977,proactive3.1,2020.1.2,Win32,60,5f599a131af4471f3d752b7b,5f5ae0a513f9ca1eea073576,3,,,,,,basket,,,,,,,,,,,4,2,0,26,26,34,1,,,,,,,,,,,,,,,,,,,,,,,,,,,,,,,,,,,,,,,,,,,,,,,,,,,,,,,,,,,,,,,,,,,,,,,,,,,,,,,,,,,,,,,,,,,,,,,,,,,,,,,,
,,?,0.001745,0,,,,,,stimuli/images/PICTURE_348.png,DUDE,5c9d2bed010c73001706aeaa,21/02/1951,2020-09-10_22h29.36.977,proactive3.1,2020.1.2,Win32,60,5f599a131af4471f3d752b7b,5f5ae0a513f9ca1eea073576,3,,,,,,pepper,,,,,,,,,,,6,2,0,27,27,59,1,,,,,,,,,,,,,,,,,,,,,,,,,,,,,,,,,,,,,,,,,,,,,,,,,,,,,,,,,,,,,,,,,,,,,,,,,,,,,,,,,,,,,,,,,,,,,,,,,,,,,,,,
,,?,0.002025,0,,,,,,stimuli/images/PICTURE_314.png,SPEECH,5c9d2bed010c73001706aeaa,21/02/1951,2020-09-10_22h29.36.977,proactive3.1,2020.1.2,Win32,60,5f599a131af4471f3d752b7b,5f5ae0a513f9ca1eea073576,3,,,,,,perfume,,,,,,,,,,,4,2,0,28,28,35,1,,,,,,,,,,,,,,,,,,,,,,,,,,,,,,,,,,,,,,,,,,,,,,,,,,,,,,,,,,,,,,,,,,,,,,,,,,,,,,,,,,,,,,,,,,,,,,,,,,,,,,,,
,,?,0.0022,0,,,,,,stimuli/images/PICTURE_405.png,JUNGLE,5c9d2bed010c73001706aeaa,21/02/1951,2020-09-10_22h29.36.977,proactive3.1,2020.1.2,Win32,60,5f599a131af4471f3d752b7b,5f5ae0a513f9ca1eea073576,3,,,,,,anchor,,,,,,,,,,,2,2,0,29,29,13,1,,,,,,,,,,,,,,,,,,,,,,,,,,,,,,,,,,,,,,,,,,,,,,,,,,,,,,,,,,,,,,,,,,,,,,,,,,,,,,,,,,,,,,,,,,,,,,,,,,,,,,,,
,,?,0.001795,0,,,,,,stimuli/images/PICTURE_655.png,SALE,5c9d2bed010c73001706aeaa,21/02/1951,2020-09-10_22h29.36.977,proactive3.1,2020.1.2,Win32,60,5f599a131af4471f3d752b7b,5f5ae0a513f9ca1eea073576,3,,,,,,megaphone,,,,,,,,,,,6,2,0,30,30,57,1,,,,,,,,,,,,,,,,,,,,,,,,,,,,,,,,,,,,,,,,,,,,,,,,,,,,,,,,,,,,,,,,,,,,,,,,,,,,,,,,,,,,,,,,,,,,,,,,,,,,,,,,
,,?,0.001785,0,,,,,,stimuli/images/PICTURE_2.png,AREA,5c9d2bed010c73001706aeaa,21/02/1951,2020-09-10_22h29.36.977,proactive3.1,2020.1.2,Win32,60,5f599a131af4471f3d752b7b,5f5ae0a513f9ca1eea073576,3,,,,,,tyre,,,,,,,,,,,4,2,0,31,31,32,1,,,,,,,,,,,,,,,,,,,,,,,,,,,,,,,,,,,,,,,,,,,,,,,,,,,,,,,,,,,,,,,,,,,,,,,,,,,,,,,,,,,,,,,,,,,,,,,,,,,,,,,,
,,?,0.00212,0,,,,,,stimuli/images/PICTURE_708.png,VALLEY,5c9d2bed010c73001706aeaa,21/02/1951,2020-09-10_22h29.36.977,proactive3.1,2020.1.2,Win32,60,5f599a131af4471f3d752b7b,5f5ae0a513f9ca1eea073576,3,,,,,,monkey,,,,,,,,,,,5,2,0,32,32,45,1,,,,,,,,,,,,,,,,,,,,,,,,,,,,,,,,,,,,,,,,,,,,,,,,,,,,,,,,,,,,,,,,,,,,,,,,,,,,,,,,,,,,,,,,,,,,,,,,,,,,,,,,
,,?,0.01033,0,,,,,,stimuli/images/PICTURE_327.png,LEADER,5c9d2bed010c73001706aeaa,21/02/1951,2020-09-10_22h29.36.977,proactive3.1,2020.1.2,Win32,60,5f599a131af4471f3d752b7b,5f5ae0a513f9ca1eea073576,3,,,,,,helmet,,,,,,,,,,,2,2,0,33,33,17,1,,,,,,,,,,,,,,,,,,,,,,,,,,,,,,,,,,,,,,,,,,,,,,,,,,,,,,,,,,,,,,,,,,,,,,,,,,,,,,,,,,,,,,,,,,,,,,,,,,,,,,,,
,,?,0.00249,0,,,,,,stimuli/images/PICTURE_57.png,CASINO,5c9d2bed010c73001706aeaa,21/02/1951,2020-09-10_22h29.36.977,proactive3.1,2020.1.2,Win32,60,5f599a131af4471f3d752b7b,5f5ae0a513f9ca1eea073576,3,,,,,,stamp,,,,,,,,,,,2,2,0,34,34,12,1,,,,,,,,,,,,,,,,,,,,,,,,,,,,,,,,,,,,,,,,,,,,,,,,,,,,,,,,,,,,,,,,,,,,,,,,,,,,,,,,,,,,,,,,,,,,,,,,,,,,,,,,
,,HOUSE,5.000295,1,,,,,,stimuli/images/PICTURE_177.png,HOUSE,5c9d2bed010c73001706aeaa,21/02/1951,2020-09-10_22h29.36.977,proactive3.1,2020.1.2,Win32,60,5f599a131af4471f3d752b7b,5f5ae0a513f9ca1eea073576,3,,,,,,mushroom,,,,,,,,,,,3,2,0,35,35,25,1,,,,,,,,,,,,,,,,,,,,,,,,,,,,,,,,,,,,,,,,,,,,,,,,,,,,,,,,,,,,,,,,,,,,,,,,,,,,,,,,,,,,,,,,,,,,,,,,,,,,,,,,
,,?,0.002315,0,,,,,,stimuli/images/PICTURE_509.png,APPLE,5c9d2bed010c73001706aeaa,21/02/1951,2020-09-10_22h29.36.977,proactive3.1,2020.1.2,Win32,60,5f599a131af4471f3d752b7b,5f5ae0a513f9ca1eea073576,3,,,,,,telephone,,,,,,,,,,,4,2,0,36,36,38,1,,,,,,,,,,,,,,,,,,,,,,,,,,,,,,,,,,,,,,,,,,,,,,,,,,,,,,,,,,,,,,,,,,,,,,,,,,,,,,,,,,,,,,,,,,,,,,,,,,,,,,,,
,,?,0.001785,0,,,,,,stimuli/images/PICTURE_255.png,PENNY,5c9d2bed010c73001706aeaa,21/02/1951,2020-09-10_22h29.36.977,proactive3.1,2020.1.2,Win32,60,5f599a131af4471f3d752b7b,5f5ae0a513f9ca1eea073576,3,,,,,,shovel,,,,,,,,,,,2,2,0,37,37,19,1,,,,,,,,,,,,,,,,,,,,,,,,,,,,,,,,,,,,,,,,,,,,,,,,,,,,,,,,,,,,,,,,,,,,,,,,,,,,,,,,,,,,,,,,,,,,,,,,,,,,,,,,
,,?,0.001935,0,,,,,,stimuli/images/PICTURE_470.png,MOMENT,5c9d2bed010c73001706aeaa,21/02/1951,2020-09-10_22h29.36.977,proactive3.1,2020.1.2,Win32,60,5f599a131af4471f3d752b7b,5f5ae0a513f9ca1eea073576,3,,,,,,motorbike,,,,,,,,,,,5,2,0,38,38,40,1,,,,,,,,,,,,,,,,,,,,,,,,,,,,,,,,,,,,,,,,,,,,,,,,,,,,,,,,,,,,,,,,,,,,,,,,,,,,,,,,,,,,,,,,,,,,,,,,,,,,,,,,
,,?,0.0021,0,,,,,,stimuli/images/PICTURE_141.png,CLIENT,5c9d2bed010c73001706aeaa,21/02/1951,2020-09-10_22h29.36.977,proactive3.1,2020.1.2,Win32,60,5f599a131af4471f3d752b7b,5f5ae0a513f9ca1eea073576,3,,,,,,sunflower,,,,,,,,,,,4,2,0,39,39,30,1,,,,,,,,,,,,,,,,,,,,,,,,,,,,,,,,,,,,,,,,,,,,,,,,,,,,,,,,,,,,,,,,,,,,,,,,,,,,,,,,,,,,,,,,,,,,,,,,,,,,,,,,
,,SPIRIT,7.65644,1,,,,,,stimuli/images/PICTURE_208.png,SPIRIT,5c9d2bed010c73001706aeaa,21/02/1951,2020-09-10_22h29.36.977,proactive3.1,2020.1.2,Win32,60,5f599a131af4471f3d752b7b,5f5ae0a513f9ca1eea073576,3,,,,,,microphone,,,,,,,,,,,3,2,0,40,40,28,1,,,,,,,,,,,,,,,,,,,,,,,,,,,,,,,,,,,,,,,,,,,,,,,,,,,,,,,,,,,,,,,,,,,,,,,,,,,,,,,,,,,,,,,,,,,,,,,,,,,,,,,,
,,?,4.06313,0,,,,,,stimuli/images/PICTURE_285.png,PRINCE,5c9d2bed010c73001706aeaa,21/02/1951,2020-09-10_22h29.36.977,proactive3.1,2020.1.2,Win32,60,5f599a131af4471f3d752b7b,5f5ae0a513f9ca1eea073576,3,,,,,,carrot,,,,,,,,,,,3,2,0,41,41,20,1,,,,,,,,,,,,,,,,,,,,,,,,,,,,,,,,,,,,,,,,,,,,,,,,,,,,,,,,,,,,,,,,,,,,,,,,,,,,,,,,,,,,,,,,,,,,,,,,,,,,,,,,
,,?,0.00243,0,,,,,,stimuli/images/PICTURE_311.png,FLESH,5c9d2bed010c73001706aeaa,21/02/1951,2020-09-10_22h29.36.977,proactive3.1,2020.1.2,Win32,60,5f599a131af4471f3d752b7b,5f5ae0a513f9ca1eea073576,3,,,,,,razor,,,,,,,,,,,1,2,0,42,42,3,1,,,,,,,,,,,,,,,,,,,,,,,,,,,,,,,,,,,,,,,,,,,,,,,,,,,,,,,,,,,,,,,,,,,,,,,,,,,,,,,,,,,,,,,,,,,,,,,,,,,,,,,,
,,?,0.002155,0,,,,,,stimuli/images/PICTURE_487.png,ROOF,5c9d2bed010c73001706aeaa,21/02/1951,2020-09-10_22h29.36.977,proactive3.1,2020.1.2,Win32,60,5f599a131af4471f3d752b7b,5f5ae0a513f9ca1eea073576,3,,,,,,basket,,,,,,,,,,,6,2,0,43,43,50,1,,,,,,,,,,,,,,,,,,,,,,,,,,,,,,,,,,,,,,,,,,,,,,,,,,,,,,,,,,,,,,,,,,,,,,,,,,,,,,,,,,,,,,,,,,,,,,,,,,,,,,,,
,,?,0.00286,0,,,,,,stimuli/images/PICTURE_215.png,FOOD,5c9d2bed010c73001706aeaa,21/02/1951,2020-09-10_22h29.36.977,proactive3.1,2020.1.2,Win32,60,5f599a131af4471f3d752b7b,5f5ae0a513f9ca1eea073576,3,,,,,,boot,,,,,,,,,,,1,2,0,44,44,5,1,,,,,,,,,,,,,,,,,,,,,,,,,,,,,,,,,,,,,,,,,,,,,,,,,,,,,,,,,,,,,,,,,,,,,,,,,,,,,,,,,,,,,,,,,,,,,,,,,,,,,,,,
,,?,0.00269,0,,,,,,stimuli/images/PICTURE_564.png,PLENTY,5c9d2bed010c73001706aeaa,21/02/1951,2020-09-10_22h29.36.977,proactive3.1,2020.1.2,Win32,60,5f599a131af4471f3d752b7b,5f5ae0a513f9ca1eea073576,3,,,,,,spoon,,,,,,,,,,,2,2,0,45,45,11,1,,,,,,,,,,,,,,,,,,,,,,,,,,,,,,,,,,,,,,,,,,,,,,,,,,,,,,,,,,,,,,,,,,,,,,,,,,,,,,,,,,,,,,,,,,,,,,,,,,,,,,,,
,,?,0.002315,0,,,,,,stimuli/images/PICTURE_311.png,TOILET,5c9d2bed010c73001706aeaa,21/02/1951,2020-09-10_22h29.36.977,proactive3.1,2020.1.2,Win32,60,5f599a131af4471f3d752b7b,5f5ae0a513f9ca1eea073576,3,,,,,,razor,,,,,,,,,,,6,2,0,46,46,54,1,,,,,,,,,,,,,,,,,,,,,,,,,,,,,,,,,,,,,,,,,,,,,,,,,,,,,,,,,,,,,,,,,,,,,,,,,,,,,,,,,,,,,,,,,,,,,,,,,,,,,,,,
,,?,0.00235,0,,,,,,stimuli/images/PICTURE_692.png,DUDE,5c9d2bed010c73001706aeaa,21/02/1951,2020-09-10_22h29.36.977,proactive3.1,2020.1.2,Win32,60,5f599a131af4471f3d752b7b,5f5ae0a513f9ca1eea073576,3,,,,,,cherry,,,,,,,,,,,5,2,0,47,47,47,1,,,,,,,,,,,,,,,,,,,,,,,,,,,,,,,,,,,,,,,,,,,,,,,,,,,,,,,,,,,,,,,,,,,,,,,,,,,,,,,,,,,,,,,,,,,,,,,,,,,,,,,,
,,?,0.002015,0,,,,,,stimuli/images/PICTURE_93.png,GIRL,5c9d2bed010c73001706aeaa,21/02/1951,2020-09-10_22h29.36.977,proactive3.1,2020.1.2,Win32,60,5f599a131af4471f3d752b7b,5f5ae0a513f9ca1eea073576,3,,,,,,skateboard,,,,,,,,,,,4,2,0,48,48,31,1,,,,,,,,,,,,,,,,,,,,,,,,,,,,,,,,,,,,,,,,,,,,,,,,,,,,,,,,,,,,,,,,,,,,,,,,,,,,,,,,,,,,,,,,,,,,,,,,,,,,,,,,
,,BOYS,5.940385,1,,,,,,stimuli/images/PICTURE_215.png,BOYS,5c9d2bed010c73001706aeaa,21/02/1951,2020-09-10_22h29.36.977,proactive3.1,2020.1.2,Win32,60,5f599a131af4471f3d752b7b,5f5ae0a513f9ca1eea073576,3,,,,,,boot,,,,,,,,,,,3,2,0,49,49,24,1,,,,,,,,,,,,,,,,,,,,,,,,,,,,,,,,,,,,,,,,,,,,,,,,,,,,,,,,,,,,,,,,,,,,,,,,,,,,,,,,,,,,,,,,,,,,,,,,,,,,,,,,
,,?,0.00219,0,,,,,,stimuli/images/PICTURE_147.png,LEADER,5c9d2bed010c73001706aeaa,21/02/1951,2020-09-10_22h29.36.977,proactive3.1,2020.1.2,Win32,60,5f599a131af4471f3d752b7b,5f5ae0a513f9ca1eea073576,3,,,,,,hanger,,,,,,,,,,,4,2,0,50,50,33,1,,,,,,,,,,,,,,,,,,,,,,,,,,,,,,,,,,,,,,,,,,,,,,,,,,,,,,,,,,,,,,,,,,,,,,,,,,,,,,,,,,,,,,,,,,,,,,,,,,,,,,,,
,,?,0.00179,0,,,,,,stimuli/images/PICTURE_285.png,WRITER,5c9d2bed010c73001706aeaa,21/02/1951,2020-09-10_22h29.36.977,proactive3.1,2020.1.2,Win32,60,5f599a131af4471f3d752b7b,5f5ae0a513f9ca1eea073576,3,,,,,,carrot,,,,,,,,,,,1,2,0,51,51,6,1,,,,,,,,,,,,,,,,,,,,,,,,,,,,,,,,,,,,,,,,,,,,,,,,,,,,,,,,,,,,,,,,,,,,,,,,,,,,,,,,,,,,,,,,,,,,,,,,,,,,,,,,
,,?,0.00173,0,,,,,,stimuli/images/PICTURE_654.png,YEAR,5c9d2bed010c73001706aeaa,21/02/1951,2020-09-10_22h29.36.977,proactive3.1,2020.1.2,Win32,60,5f599a131af4471f3d752b7b,5f5ae0a513f9ca1eea073576,3,,,,,,pencil,,,,,,,,,,,5,2,0,52,52,41,1,,,,,,,,,,,,,,,,,,,,,,,,,,,,,,,,,,,,,,,,,,,,,,,,,,,,,,,,,,,,,,,,,,,,,,,,,,,,,,,,,,,,,,,,,,,,,,,,,,,,,,,,
,,?,3.16728,0,,,,,,stimuli/images/PICTURE_667.png,GLASS,5c9d2bed010c73001706aeaa,21/02/1951,2020-09-10_22h29.36.977,proactive3.1,2020.1.2,Win32,60,5f599a131af4471f3d752b7b,5f5ae0a513f9ca1eea073576,3,,,,,,daisy,,,,,,,,,,,3,2,0,53,53,27,1,,,,,,,,,,,,,,,,,,,,,,,,,,,,,,,,,,,,,,,,,,,,,,,,,,,,,,,,,,,,,,,,,,,,,,,,,,,,,,,,,,,,,,,,,,,,,,,,,,,,,,,,
,,?,0.002515,0,,,,,,stimuli/images/PICTURE_677.png,PHOTO,5c9d2bed010c73001706aeaa,21/02/1951,2020-09-10_22h29.36.977,proactive3.1,2020.1.2,Win32,60,5f599a131af4471f3d752b7b,5f5ae0a513f9ca1eea073576,3,,,,,,map,,,,,,,,,,,2,2,0,54,54,14,1,,,,,,,,,,,,,,,,,,,,,,,,,,,,,,,,,,,,,,,,,,,,,,,,,,,,,,,,,,,,,,,,,,,,,,,,,,,,,,,,,,,,,,,,,,,,,,,,,,,,,,,,
,,CENTER,3.93358,0,,,,,,stimuli/images/PICTURE_33.png,COPS,5c9d2bed010c73001706aeaa,21/02/1951,2020-09-10_22h29.36.977,proactive3.1,2020.1.2,Win32,60,5f599a131af4471f3d752b7b,5f5ae0a513f9ca1eea073576,3,,,,,,frame,,,,,,,,,,,3,2,0,55,55,29,1,,,,,,,,,,,,,,,,,,,,,,,,,,,,,,,,,,,,,,,,,,,,,,,,,,,,,,,,,,,,,,,,,,,,,,,,,,,,,,,,,,,,,,,,,,,,,,,,,,,,,,,,
,,?,0.00211,0,,,,,,stimuli/images/PICTURE_296.png,CLOCK,5c9d2bed010c73001706aeaa,21/02/1951,2020-09-10_22h29.36.977,proactive3.1,2020.1.2,Win32,60,5f599a131af4471f3d752b7b,5f5ae0a513f9ca1eea073576,3,,,,,,bolt,,,,,,,,,,,2,2,0,56,56,18,1,,,,,,,,,,,,,,,,,,,,,,,,,,,,,,,,,,,,,,,,,,,,,,,,,,,,,,,,,,,,,,,,,,,,,,,,,,,,,,,,,,,,,,,,,,,,,,,,,,,,,,,,
,,?,0.00168,0,,,,,,stimuli/images/PICTURE_509.png,MILLER,5c9d2bed010c73001706aeaa,21/02/1951,2020-09-10_22h29.36.977,proactive3.1,2020.1.2,Win32,60,5f599a131af4471f3d752b7b,5f5ae0a513f9ca1eea073576,3,,,,,,telephone,,,,,,,,,,,5,2,0,57,57,49,1,,,,,,,,,,,,,,,,,,,,,,,,,,,,,,,,,,,,,,,,,,,,,,,,,,,,,,,,,,,,,,,,,,,,,,,,,,,,,,,,,,,,,,,,,,,,,,,,,,,,,,,,
,,?,0.002465,0,,,,,,stimuli/images/PICTURE_215.png,LEADER,5c9d2bed010c73001706aeaa,21/02/1951,2020-09-10_22h29.36.977,proactive3.1,2020.1.2,Win32,60,5f599a131af4471f3d752b7b,5f5ae0a513f9ca1eea073576,3,,,,,,boot,,,,,,,,,,,5,2,0,58,58,43,1,,,,,,,,,,,,,,,,,,,,,,,,,,,,,,,,,,,,,,,,,,,,,,,,,,,,,,,,,,,,,,,,,,,,,,,,,,,,,,,,,,,,,,,,,,,,,,,,,,,,,,,,
,,?,0.00185,0,,,,,,stimuli/images/PICTURE_504.png,HOUSE,5c9d2bed010c73001706aeaa,21/02/1951,2020-09-10_22h29.36.977,proactive3.1,2020.1.2,Win32,60,5f599a131af4471f3d752b7b,5f5ae0a513f9ca1eea073576,3,,,,,,wheel,,,,,,,,,,,4,2,0,59,59,36,1,,,,,,,,,,,,,,,,,,,,,,,,,,,,,,,,,,,,,,,,,,,,,,,,,,,,,,,,,,,,,,,,,,,,,,,,,,,,,,,,,,,,,,,,,,,,,,,,,,,,,,,,
,,,,,,,,,,,,5c9d2bed010c73001706aeaa,21/02/1951,2020-09-10_22h29.36.977,proactive3.1,2020.1.2,Win32,60,5f599a131af4471f3d752b7b,5f5ae0a513f9ca1eea073576,3,,,,,,,,,,,,,,,,,,,,,,,,0,0,0,2,1,stimuli/learn-block3.csv,,,,,,,,,,,,,,,,,,,,,,,,,,,,,,,,,,,,,,,,,,,,,,,,,,,,,,,,,,,,,,,,,,,,,,,,,,,,,,,,,,,,,,,,,,,,,,,,,,
,,,,,,,,,,stimuli/images/PICTURE_750.png,HOTEL,5c9d2bed010c73001706aeaa,21/02/1951,2020-09-10_22h29.36.977,proactive3.1,2020.1.2,Win32,60,5f599a131af4471f3d752b7b,5f5ae0a513f9ca1eea073576,3,,,,,,kettle,,,,,,0,0,0,27,1,3,1,,,,,,,,,,,,,,,,,,,,,,,,,,,,,,,,,,,,,,,,,,,,,,,,,,,,,,,,,,,,,,,,,,,,,,,,,,,,,,,,,,,,,,,,,,,,,,,,,,,,,,,,,,,,,
,,,,,,,,,,stimuli/images/PICTURE_308.png,FAMILY,5c9d2bed010c73001706aeaa,21/02/1951,2020-09-10_22h29.36.977,proactive3.1,2020.1.2,Win32,60,5f599a131af4471f3d752b7b,5f5ae0a513f9ca1eea073576,3,,,,,,dice,,,,,,0,1,1,36,1,4,1,,,,,,,,,,,,,,,,,,,,,,,,,,,,,,,,,,,,,,,,,,,,,,,,,,,,,,,,,,,,,,,,,,,,,,,,,,,,,,,,,,,,,,,,,,,,,,,,,,,,,,,,,,,,,
,,,,,,,,,,stimuli/images/PICTURE_327.png,SERIES,5c9d2bed010c73001706aeaa,21/02/1951,2020-09-10_22h29.36.977,proactive3.1,2020.1.2,Win32,60,5f599a131af4471f3d752b7b,5f5ae0a513f9ca1eea073576,3,,,,,,helmet,,,,,,0,2,2,3,1,1,1,,,,,,,,,,,,,,,,,,,,,,,,,,,,,,,,,,,,,,,,,,,,,,,,,,,,,,,,,,,,,,,,,,,,,,,,,,,,,,,,,,,,,,,,,,,,,,,,,,,,,,,,,,,,,
,,,,,,,,,,stimuli/images/PICTURE_296.png,LOTS,5c9d2bed010c73001706aeaa,21/02/1951,2020-09-10_22h29.36.977,proactive3.1,2020.1.2,Win32,60,5f599a131af4471f3d752b7b,5f5ae0a513f9ca1eea073576,3,,,,,,bolt,,,,,,0,3,3,9,1,1,1,,,,,,,,,,,,,,,,,,,,,,,,,,,,,,,,,,,,,,,,,,,,,,,,,,,,,,,,,,,,,,,,,,,,,,,,,,,,,,,,,,,,,,,,,,,,,,,,,,,,,,,,,,,,,
,,,,,,,,,,stimuli/images/PICTURE_340.png,VALLEY,5c9d2bed010c73001706aeaa,21/02/1951,2020-09-10_22h29.36.977,proactive3.1,2020.1.2,Win32,60,5f599a131af4471f3d752b7b,5f5ae0a513f9ca1eea073576,3,,,,,,mirror,,,,,,0,4,4,54,1,6,1,,,,,,,,,,,,,,,,,,,,,,,,,,,,,,,,,,,,,,,,,,,,,,,,,,,,,,,,,,,,,,,,,,,,,,,,,,,,,,,,,,,,,,,,,,,,,,,,,,,,,,,,,,,,,
,,,,,,,,,,stimuli/images/PICTURE_403.png,WRITER,5c9d2bed010c73001706aeaa,21/02/1951,2020-09-10_22h29.36.977,proactive3.1,2020.1.2,Win32,60,5f599a131af4471f3d752b7b,5f5ae0a513f9ca1eea073576,3,,,,,,cathedral,,,,,,0,5,5,31,1,4,1,,,,,,,,,,,,,,,,,,,,,,,,,,,,,,,,,,,,,,,,,,,,,,,,,,,,,,,,,,,,,,,,,,,,,,,,,,,,,,,,,,,,,,,,,,,,,,,,,,,,,,,,,,,,,
,,,,,,,,,,stimuli/images/PICTURE_380.png,CANDY,5c9d2bed010c73001706aeaa,21/02/1951,2020-09-10_22h29.36.977,proactive3.1,2020.1.2,Win32,60,5f599a131af4471f3d752b7b,5f5ae0a513f9ca1eea073576,3,,,,,,gorilla,,,,,,0,6,6,0,1,1,1,,,,,,,,,,,,,,,,,,,,,,,,,,,,,,,,,,,,,,,,,,,,,,,,,,,,,,,,,,,,,,,,,,,,,,,,,,,,,,,,,,,,,,,,,,,,,,,,,,,,,,,,,,,,,
,,,,,,,,,,stimuli/images/PICTURE_296.png,LIFE,5c9d2bed010c73001706aeaa,21/02/1951,2020-09-10_22h29.36.977,proactive3.1,2020.1.2,Win32,60,5f599a131af4471f3d752b7b,5f5ae0a513f9ca1eea073576,3,,,,,,bolt,,,,,,0,7,7,57,1,6,1,,,,,,,,,,,,,,,,,,,,,,,,,,,,,,,,,,,,,,,,,,,,,,,,,,,,,,,,,,,,,,,,,,,,,,,,,,,,,,,,,,,,,,,,,,,,,,,,,,,,,,,,,,,,,
,,,,,,,,,,stimuli/images/PICTURE_504.png,ARTIST,5c9d2bed010c73001706aeaa,21/02/1951,2020-09-10_22h29.36.977,proactive3.1,2020.1.2,Win32,60,5f599a131af4471f3d752b7b,5f5ae0a513f9ca1eea073576,3,,,,,,wheel,,,,,,0,8,8,49,1,5,1,,,,,,,,,,,,,,,,,,,,,,,,,,,,,,,,,,,,,,,,,,,,,,,,,,,,,,,,,,,,,,,,,,,,,,,,,,,,,,,,,,,,,,,,,,,,,,,,,,,,,,,,,,,,,
,,,,,,,,,,stimuli/images/PICTURE_504.png,COPS,5c9d2bed010c73001706aeaa,21/02/1951,2020-09-10_22h29.36.977,proactive3.1,2020.1.2,Win32,60,5f599a131af4471f3d752b7b,5f5ae0a513f9ca1eea073576,3,,,,,,wheel,,,,,,0,9,9,52,1,6,1,,,,,,,,,,,,,,,,,,,,,,,,,,,,,,,,,,,,,,,,,,,,,,,,,,,,,,,,,,,,,,,,,,,,,,,,,,,,,,,,,,,,,,,,,,,,,,,,,,,,,,,,,,,,,
,,,,,,,,,,stimuli/images/PICTURE_675.png,SALE,5c9d2bed010c73001706aeaa,21/02/1951,2020-09-10_22h29.36.977,proactive3.1,2020.1.2,Win32,60,5f599a131af4471f3d752b7b,5f5ae0a513f9ca1eea073576,3,,,,,,windmill,,,,,,0,10,10,47,1,5,1,,,,,,,,,,,,,,,,,,,,,,,,,,,,,,,,,,,,,,,,,,,,,,,,,,,,,,,,,,,,,,,,,,,,,,,,,,,,,,,,,,,,,,,,,,,,,,,,,,,,,,,,,,,,,
,,,,,,,,,,stimuli/images/PICTURE_57.png,MOMENT,5c9d2bed010c73001706aeaa,21/02/1951,2020-09-10_22h29.36.977,proactive3.1,2020.1.2,Win32,60,5f599a131af4471f3d752b7b,5f5ae0a513f9ca1eea073576,3,,,,,,stamp,,,,,,0,11,11,37,1,4,1,,,,,,,,,,,,,,,,,,,,,,,,,,,,,,,,,,,,,,,,,,,,,,,,,,,,,,,,,,,,,,,,,,,,,,,,,,,,,,,,,,,,,,,,,,,,,,,,,,,,,,,,,,,,,
,,,,,,,,,,stimuli/images/PICTURE_203.png,NIGHT,5c9d2bed010c73001706aeaa,21/02/1951,2020-09-10_22h29.36.977,proactive3.1,2020.1.2,Win32,60,5f599a131af4471f3d752b7b,5f5ae0a513f9ca1eea073576,3,,,,,,cap,,,,,,0,12,12,2,1,1,1,,,,,,,,,,,,,,,,,,,,,,,,,,,,,,,,,,,,,,,,,,,,,,,,,,,,,,,,,,,,,,,,,,,,,,,,,,,,,,,,,,,,,,,,,,,,,,,,,,,,,,,,,,,,,
,,,,,,,,,,stimuli/images/PICTURE_677.png,APPLE,5c9d2bed010c73001706aeaa,21/02/1951,2020-09-10_22h29.36.977,proactive3.1,2020.1.2,Win32,60,5f599a131af4471f3d752b7b,5f5ae0a513f9ca1eea073576,3,,,,,,map,,,,,,0,13,13,43,1,5,1,,,,,,,,,,,,,,,,,,,,,,,,,,,,,,,,,,,,,,,,,,,,,,,,,,,,,,,,,,,,,,,,,,,,,,,,,,,,,,,,,,,,,,,,,,,,,,,,,,,,,,,,,,,,,
,,,,,,,,,,stimuli/images/PICTURE_405.png,YEAR,5c9d2bed010c73001706aeaa,21/02/1951,2020-09-10_22h29.36.977,proactive3.1,2020.1.2,Win32,60,5f599a131af4471f3d752b7b,5f5ae0a513f9ca1eea073576,3,,,,,,anchor,,,,,,0,14,14,34,1,4,1,,,,,,,,,,,,,,,,,,,,,,,,,,,,,,,,,,,,,,,,,,,,,,,,,,,,,,,,,,,,,,,,,,,,,,,,,,,,,,,,,,,,,,,,,,,,,,,,,,,,,,,,,,,,,
,,,,,,,,,,stimuli/images/PICTURE_68.png,ROOF,5c9d2bed010c73001706aeaa,21/02/1951,2020-09-10_22h29.36.977,proactive3.1,2020.1.2,Win32,60,5f599a131af4471f3d752b7b,5f5ae0a513f9ca1eea073576,3,,,,,,candle,,,,,,0,15,15,38,1,4,1,,,,,,,,,,,,,,,,,,,,,,,,,,,,,,,,,,,,,,,,,,,,,,,,,,,,,,,,,,,,,,,,,,,,,,,,,,,,,,,,,,,,,,,,,,,,,,,,,,,,,,,,,,,,,
,,,,,,,,,,stimuli/images/PICTURE_33.png,FRIEND,5c9d2bed010c73001706aeaa,21/02/1951,2020-09-10_22h29.36.977,proactive3.1,2020.1.2,Win32,60,5f599a131af4471f3d752b7b,5f5ae0a513f9ca1eea073576,3,,,,,,frame,,,,,,0,16,16,8,1,1,1,,,,,,,,,,,,,,,,,,,,,,,,,,,,,,,,,,,,,,,,,,,,,,,,,,,,,,,,,,,,,,,,,,,,,,,,,,,,,,,,,,,,,,,,,,,,,,,,,,,,,,,,,,,,,
,,,,,,,,,,stimuli/images/PICTURE_744.png,WEAPON,5c9d2bed010c73001706aeaa,21/02/1951,2020-09-10_22h29.36.977,proactive3.1,2020.1.2,Win32,60,5f599a131af4471f3d752b7b,5f5ae0a513f9ca1eea073576,3,,,,,,ring,,,,,,0,17,17,50,1,6,1,,,,,,,,,,,,,,,,,,,,,,,,,,,,,,,,,,,,,,,,,,,,,,,,,,,,,,,,,,,,,,,,,,,,,,,,,,,,,,,,,,,,,,,,,,,,,,,,,,,,,,,,,,,,,
,,,,,,,,,,stimuli/images/PICTURE_108.png,FLIGHT,5c9d2bed010c73001706aeaa,21/02/1951,2020-09-10_22h29.36.977,proactive3.1,2020.1.2,Win32,60,5f599a131af4471f3d752b7b,5f5ae0a513f9ca1eea073576,3,,,,,,calendar,,,,,,0,18,18,59,1,6,1,,,,,,,,,,,,,,,,,,,,,,,,,,,,,,,,,,,,,,,,,,,,,,,,,,,,,,,,,,,,,,,,,,,,,,,,,,,,,,,,,,,,,,,,,,,,,,,,,,,,,,,,,,,,,
,,,,,,,,,,stimuli/images/PICTURE_208.png,SYSTEM,5c9d2bed010c73001706aeaa,21/02/1951,2020-09-10_22h29.36.977,proactive3.1,2020.1.2,Win32,60,5f599a131af4471f3d752b7b,5f5ae0a513f9ca1eea073576,3,,,,,,microphone,,,,,,0,19,19,32,1,4,1,,,,,,,,,,,,,,,,,,,,,,,,,,,,,,,,,,,,,,,,,,,,,,,,,,,,,,,,,,,,,,,,,,,,,,,,,,,,,,,,,,,,,,,,,,,,,,,,,,,,,,,,,,,,,
,,,,,,,,,,stimuli/images/PICTURE_383.png,WRITER,5c9d2bed010c73001706aeaa,21/02/1951,2020-09-10_22h29.36.977,proactive3.1,2020.1.2,Win32,60,5f599a131af4471f3d752b7b,5f5ae0a513f9ca1eea073576,3,,,,,,coin,,,,,,0,20,20,28,1,3,1,,,,,,,,,,,,,,,,,,,,,,,,,,,,,,,,,,,,,,,,,,,,,,,,,,,,,,,,,,,,,,,,,,,,,,,,,,,,,,,,,,,,,,,,,,,,,,,,,,,,,,,,,,,,,
,,,,,,,,,,stimuli/images/PICTURE_2.png,FLIGHT,5c9d2bed010c73001706aeaa,21/02/1951,2020-09-10_22h29.36.977,proactive3.1,2020.1.2,Win32,60,5f599a131af4471f3d752b7b,5f5ae0a513f9ca1eea073576,3,,,,,,tyre,,,,,,0,21,21,15,1,2,1,,,,,,,,,,,,,,,,,,,,,,,,,,,,,,,,,,,,,,,,,,,,,,,,,,,,,,,,,,,,,,,,,,,,,,,,,,,,,,,,,,,,,,,,,,,,,,,,,,,,,,,,,,,,,
,,,,,,,,,,stimuli/images/PICTURE_405.png,PLENTY,5c9d2bed010c73001706aeaa,21/02/1951,2020-09-10_22h29.36.977,proactive3.1,2020.1.2,Win32,60,5f599a131af4471f3d752b7b,5f5ae0a513f9ca1eea073576,3,,,,,,anchor,,,,,,0,22,22,23,1,3,1,,,,,,,,,,,,,,,,,,,,,,,,,,,,,,,,,,,,,,,,,,,,,,,,,,,,,,,,,,,,,,,,,,,,,,,,,,,,,,,,,,,,,,,,,,,,,,,,,,,,,,,,,,,,,
,,,,,,,,,,stimuli/images/PICTURE_95.png,MILLER,5c9d2bed010c73001706aeaa,21/02/1951,2020-09-10_22h29.36.977,proactive3.1,2020.1.2,Win32,60,5f599a131af4471f3d752b7b,5f5ae0a513f9ca1eea073576,3,,,,,,suitcase,,,,,,0,23,23,56,1,6,1,,,,,,,,,,,,,,,,,,,,,,,,,,,,,,,,,,,,,,,,,,,,,,,,,,,,,,,,,,,,,,,,,,,,,,,,,,,,,,,,,,,,,,,,,,,,,,,,,,,,,,,,,,,,,
,,,,,,,,,,stimuli/images/PICTURE_487.png,GIRL,5c9d2bed010c73001706aeaa,21/02/1951,2020-09-10_22h29.36.977,proactive3.1,2020.1.2,Win32,60,5f599a131af4471f3d752b7b,5f5ae0a513f9ca1eea073576,3,,,,,,basket,,,,,,0,24,24,45,1,5,1,,,,,,,,,,,,,,,,,,,,,,,,,,,,,,,,,,,,,,,,,,,,,,,,,,,,,,,,,,,,,,,,,,,,,,,,,,,,,,,,,,,,,,,,,,,,,,,,,,,,,,,,,,,,,
,,,,,,,,,,stimuli/images/PICTURE_403.png,TOILET,5c9d2bed010c73001706aeaa,21/02/1951,2020-09-10_22h29.36.977,proactive3.1,2020.1.2,Win32,60,5f599a131af4471f3d752b7b,5f5ae0a513f9ca1eea073576,3,,,,,,cathedral,,,,,,0,25,25,25,1,3,1,,,,,,,,,,,,,,,,,,,,,,,,,,,,,,,,,,,,,,,,,,,,,,,,,,,,,,,,,,,,,,,,,,,,,,,,,,,,,,,,,,,,,,,,,,,,,,,,,,,,,,,,,,,,,
,,,,,,,,,,stimuli/images/PICTURE_708.png,RECORD,5c9d2bed010c73001706aeaa,21/02/1951,2020-09-10_22h29.36.977,proactive3.1,2020.1.2,Win32,60,5f599a131af4471f3d752b7b,5f5ae0a513f9ca1eea073576,3,,,,,,monkey,,,,,,0,26,26,58,1,6,1,,,,,,,,,,,,,,,,,,,,,,,,,,,,,,,,,,,,,,,,,,,,,,,,,,,,,,,,,,,,,,,,,,,,,,,,,,,,,,,,,,,,,,,,,,,,,,,,,,,,,,,,,,,,,
,,,,,,,,,,stimuli/images/PICTURE_85.png,NATION,5c9d2bed010c73001706aeaa,21/02/1951,2020-09-10_22h29.36.977,proactive3.1,2020.1.2,Win32,60,5f599a131af4471f3d752b7b,5f5ae0a513f9ca1eea073576,3,,,,,,diamond,,,,,,0,27,27,5,1,1,1,,,,,,,,,,,,,,,,,,,,,,,,,,,,,,,,,,,,,,,,,,,,,,,,,,,,,,,,,,,,,,,,,,,,,,,,,,,,,,,,,,,,,,,,,,,,,,,,,,,,,,,,,,,,,
,,,,,,,,,,stimuli/images/PICTURE_68.png,MILE,5c9d2bed010c73001706aeaa,21/02/1951,2020-09-10_22h29.36.977,proactive3.1,2020.1.2,Win32,60,5f599a131af4471f3d752b7b,5f5ae0a513f9ca1eea073576,3,,,,,,candle,,,,,,0,28,28,51,1,6,1,,,,,,,,,,,,,,,,,,,,,,,,,,,,,,,,,,,,,,,,,,,,,,,,,,,,,,,,,,,,,,,,,,,,,,,,,,,,,,,,,,,,,,,,,,,,,,,,,,,,,,,,,,,,,
,,,,,,,,,,stimuli/images/PICTURE_655.png,TOILET,5c9d2bed010c73001706aeaa,21/02/1951,2020-09-10_22h29.36.977,proactive3.1,2020.1.2,Win32,60,5f599a131af4471f3d752b7b,5f5ae0a513f9ca1eea073576,3,,,,,,megaphone,,,,,,0,29,29,12,1,2,1,,,,,,,,,,,,,,,,,,,,,,,,,,,,,,,,,,,,,,,,,,,,,,,,,,,,,,,,,,,,,,,,,,,,,,,,,,,,,,,,,,,,,,,,,,,,,,,,,,,,,,,,,,,,,
,,,,,,,,,,stimuli/images/PICTURE_654.png,MONTH,5c9d2bed010c73001706aeaa,21/02/1951,2020-09-10_22h29.36.977,proactive3.1,2020.1.2,Win32,60,5f599a131af4471f3d752b7b,5f5ae0a513f9ca1eea073576,3,,,,,,pencil,,,,,,0,30,30,29,1,3,1,,,,,,,,,,,,,,,,,,,,,,,,,,,,,,,,,,,,,,,,,,,,,,,,,,,,,,,,,,,,,,,,,,,,,,,,,,,,,,,,,,,,,,,,,,,,,,,,,,,,,,,,,,,,,
,,,,,,,,,,stimuli/images/PICTURE_383.png,SERIES,5c9d2bed010c73001706aeaa,21/02/1951,2020-09-10_22h29.36.977,proactive3.1,2020.1.2,Win32,60,5f599a131af4471f3d752b7b,5f5ae0a513f9ca1eea073576,3,,,,,,coin,,,,,,0,31,31,46,1,5,1,,,,,,,,,,,,,,,,,,,,,,,,,,,,,,,,,,,,,,,,,,,,,,,,,,,,,,,,,,,,,,,,,,,,,,,,,,,,,,,,,,,,,,,,,,,,,,,,,,,,,,,,,,,,,
,,,,,,,,,,stimuli/images/PICTURE_403.png,RIVER,5c9d2bed010c73001706aeaa,21/02/1951,2020-09-10_22h29.36.977,proactive3.1,2020.1.2,Win32,60,5f599a131af4471f3d752b7b,5f5ae0a513f9ca1eea073576,3,,,,,,cathedral,,,,,,0,32,32,40,1,5,1,,,,,,,,,,,,,,,,,,,,,,,,,,,,,,,,,,,,,,,,,,,,,,,,,,,,,,,,,,,,,,,,,,,,,,,,,,,,,,,,,,,,,,,,,,,,,,,,,,,,,,,,,,,,,
,,,,,,,,,,stimuli/images/PICTURE_203.png,GODS,5c9d2bed010c73001706aeaa,21/02/1951,2020-09-10_22h29.36.977,proactive3.1,2020.1.2,Win32,60,5f599a131af4471f3d752b7b,5f5ae0a513f9ca1eea073576,3,,,,,,cap,,,,,,0,33,33,30,1,4,1,,,,,,,,,,,,,,,,,,,,,,,,,,,,,,,,,,,,,,,,,,,,,,,,,,,,,,,,,,,,,,,,,,,,,,,,,,,,,,,,,,,,,,,,,,,,,,,,,,,,,,,,,,,,,
,,,,,,,,,,stimuli/images/PICTURE_147.png,YEAR,5c9d2bed010c73001706aeaa,21/02/1951,2020-09-10_22h29.36.977,proactive3.1,2020.1.2,Win32,60,5f599a131af4471f3d752b7b,5f5ae0a513f9ca1eea073576,3,,,,,,hanger,,,,,,0,34,34,21,1,3,1,,,,,,,,,,,,,,,,,,,,,,,,,,,,,,,,,,,,,,,,,,,,,,,,,,,,,,,,,,,,,,,,,,,,,,,,,,,,,,,,,,,,,,,,,,,,,,,,,,,,,,,,,,,,,
,,,,,,,,,,stimuli/images/PICTURE_327.png,CASINO,5c9d2bed010c73001706aeaa,21/02/1951,2020-09-10_22h29.36.977,proactive3.1,2020.1.2,Win32,60,5f599a131af4471f3d752b7b,5f5ae0a513f9ca1eea073576,3,,,,,,helmet,,,,,,0,35,35,20,1,3,1,,,,,,,,,,,,,,,,,,,,,,,,,,,,,,,,,,,,,,,,,,,,,,,,,,,,,,,,,,,,,,,,,,,,,,,,,,,,,,,,,,,,,,,,,,,,,,,,,,,,,,,,,,,,,
,,,,,,,,,,stimuli/images/PICTURE_467.png,POLICY,5c9d2bed010c73001706aeaa,21/02/1951,2020-09-10_22h29.36.977,proactive3.1,2020.1.2,Win32,60,5f599a131af4471f3d752b7b,5f5ae0a513f9ca1eea073576,3,,,,,,peg,,,,,,0,36,36,53,1,6,1,,,,,,,,,,,,,,,,,,,,,,,,,,,,,,,,,,,,,,,,,,,,,,,,,,,,,,,,,,,,,,,,,,,,,,,,,,,,,,,,,,,,,,,,,,,,,,,,,,,,,,,,,,,,,
,,,,,,,,,,stimuli/images/PICTURE_380.png,HONEY,5c9d2bed010c73001706aeaa,21/02/1951,2020-09-10_22h29.36.977,proactive3.1,2020.1.2,Win32,60,5f599a131af4471f3d752b7b,5f5ae0a513f9ca1eea073576,3,,,,,,gorilla,,,,,,0,37,37,19,1,2,1,,,,,,,,,,,,,,,,,,,,,,,,,,,,,,,,,,,,,,,,,,,,,,,,,,,,,,,,,,,,,,,,,,,,,,,,,,,,,,,,,,,,,,,,,,,,,,,,,,,,,,,,,,,,,
,,,,,,,,,,stimuli/images/PICTURE_85.png,TOILET,5c9d2bed010c73001706aeaa,21/02/1951,2020-09-10_22h29.36.977,proactive3.1,2020.1.2,Win32,60,5f599a131af4471f3d752b7b,5f5ae0a513f9ca1eea073576,3,,,,,,diamond,,,,,,0,38,38,48,1,5,1,,,,,,,,,,,,,,,,,,,,,,,,,,,,,,,,,,,,,,,,,,,,,,,,,,,,,,,,,,,,,,,,,,,,,,,,,,,,,,,,,,,,,,,,,,,,,,,,,,,,,,,,,,,,,
,,,,,,,,,,stimuli/images/PICTURE_491.png,GLASS,5c9d2bed010c73001706aeaa,21/02/1951,2020-09-10_22h29.36.977,proactive3.1,2020.1.2,Win32,60,5f599a131af4471f3d752b7b,5f5ae0a513f9ca1eea073576,3,,,,,,rug,,,,,,0,39,39,14,1,2,1,,,,,,,,,,,,,,,,,,,,,,,,,,,,,,,,,,,,,,,,,,,,,,,,,,,,,,,,,,,,,,,,,,,,,,,,,,,,,,,,,,,,,,,,,,,,,,,,,,,,,,,,,,,,,
,,,,,,,,,,stimuli/images/PICTURE_339.png,CLIENT,5c9d2bed010c73001706aeaa,21/02/1951,2020-09-10_22h29.36.977,proactive3.1,2020.1.2,Win32,60,5f599a131af4471f3d752b7b,5f5ae0a513f9ca1eea073576,3,,,,,,backpack,,,,,,0,40,40,11,1,2,1,,,,,,,,,,,,,,,,,,,,,,,,,,,,,,,,,,,,,,,,,,,,,,,,,,,,,,,,,,,,,,,,,,,,,,,,,,,,,,,,,,,,,,,,,,,,,,,,,,,,,,,,,,,,,
,,,,,,,,,,stimuli/images/PICTURE_667.png,RIVER,5c9d2bed010c73001706aeaa,21/02/1951,2020-09-10_22h29.36.977,proactive3.1,2020.1.2,Win32,60,5f599a131af4471f3d752b7b,5f5ae0a513f9ca1eea073576,3,,,,,,daisy,,,,,,0,41,41,10,1,2,1,,,,,,,,,,,,,,,,,,,,,,,,,,,,,,,,,,,,,,,,,,,,,,,,,,,,,,,,,,,,,,,,,,,,,,,,,,,,,,,,,,,,,,,,,,,,,,,,,,,,,,,,,,,,,
,,,,,,,,,,stimuli/images/PICTURE_340.png,LETTER,5c9d2bed010c73001706aeaa,21/02/1951,2020-09-10_22h29.36.977,proactive3.1,2020.1.2,Win32,60,5f599a131af4471f3d752b7b,5f5ae0a513f9ca1eea073576,3,,,,,,mirror,,,,,,0,42,42,24,1,3,1,,,,,,,,,,,,,,,,,,,,,,,,,,,,,,,,,,,,,,,,,,,,,,,,,,,,,,,,,,,,,,,,,,,,,,,,,,,,,,,,,,,,,,,,,,,,,,,,,,,,,,,,,,,,,
,,,,,,,,,,stimuli/images/PICTURE_469.png,AGENT,5c9d2bed010c73001706aeaa,21/02/1951,2020-09-10_22h29.36.977,proactive3.1,2020.1.2,Win32,60,5f599a131af4471f3d752b7b,5f5ae0a513f9ca1eea073576,3,,,,,,stool,,,,,,0,43,43,16,1,2,1,,,,,,,,,,,,,,,,,,,,,,,,,,,,,,,,,,,,,,,,,,,,,,,,,,,,,,,,,,,,,,,,,,,,,,,,,,,,,,,,,,,,,,,,,,,,,,,,,,,,,,,,,,,,,
,,,,,,,,,,stimuli/images/PICTURE_449.png,DUDE,5c9d2bed010c73001706aeaa,21/02/1951,2020-09-10_22h29.36.977,proactive3.1,2020.1.2,Win32,60,5f599a131af4471f3d752b7b,5f5ae0a513f9ca1eea073576,3,,,,,,bench,,,,,,0,44,44,17,1,2,1,,,,,,,,,,,,,,,,,,,,,,,,,,,,,,,,,,,,,,,,,,,,,,,,,,,,,,,,,,,,,,,,,,,,,,,,,,,,,,,,,,,,,,,,,,,,,,,,,,,,,,,,,,,,,
,,,,,,,,,,stimuli/images/PICTURE_297.png,RIVER,5c9d2bed010c73001706aeaa,21/02/1951,2020-09-10_22h29.36.977,proactive3.1,2020.1.2,Win32,60,5f599a131af4471f3d752b7b,5f5ae0a513f9ca1eea073576,3,,,,,,aeroplane,,,,,,0,45,45,39,1,4,1,,,,,,,,,,,,,,,,,,,,,,,,,,,,,,,,,,,,,,,,,,,,,,,,,,,,,,,,,,,,,,,,,,,,,,,,,,,,,,,,,,,,,,,,,,,,,,,,,,,,,,,,,,,,,
,,,,,,,,,,stimuli/images/PICTURE_564.png,BATH,5c9d2bed010c73001706aeaa,21/02/1951,2020-09-10_22h29.36.977,proactive3.1,2020.1.2,Win32,60,5f599a131af4471f3d752b7b,5f5ae0a513f9ca1eea073576,3,,,,,,spoon,,,,,,0,46,46,26,1,3,1,,,,,,,,,,,,,,,,,,,,,,,,,,,,,,,,,,,,,,,,,,,,,,,,,,,,,,,,,,,,,,,,,,,,,,,,,,,,,,,,,,,,,,,,,,,,,,,,,,,,,,,,,,,,,
,,,,,,,,,,stimuli/images/PICTURE_685.png,PENNY,5c9d2bed010c73001706aeaa,21/02/1951,2020-09-10_22h29.36.977,proactive3.1,2020.1.2,Win32,60,5f599a131af4471f3d752b7b,5f5ae0a513f9ca1eea073576,3,,,,,,goose,,,,,,0,47,47,4,1,1,1,,,,,,,,,,,,,,,,,,,,,,,,,,,,,,,,,,,,,,,,,,,,,,,,,,,,,,,,,,,,,,,,,,,,,,,,,,,,,,,,,,,,,,,,,,,,,,,,,,,,,,,,,,,,,
,,,,,,,,,,stimuli/images/PICTURE_32.png,KIND,5c9d2bed010c73001706aeaa,21/02/1951,2020-09-10_22h29.36.977,proactive3.1,2020.1.2,Win32,60,5f599a131af4471f3d752b7b,5f5ae0a513f9ca1eea073576,3,,,,,,crown,,,,,,0,48,48,35,1,4,1,,,,,,,,,,,,,,,,,,,,,,,,,,,,,,,,,,,,,,,,,,,,,,,,,,,,,,,,,,,,,,,,,,,,,,,,,,,,,,,,,,,,,,,,,,,,,,,,,,,,,,,,,,,,,
,,,,,,,,,,stimuli/images/PICTURE_95.png,BOYS,5c9d2bed010c73001706aeaa,21/02/1951,2020-09-10_22h29.36.977,proactive3.1,2020.1.2,Win32,60,5f599a131af4471f3d752b7b,5f5ae0a513f9ca1eea073576,3,,,,,,suitcase,,,,,,0,49,49,1,1,1,1,,,,,,,,,,,,,,,,,,,,,,,,,,,,,,,,,,,,,,,,,,,,,,,,,,,,,,,,,,,,,,,,,,,,,,,,,,,,,,,,,,,,,,,,,,,,,,,,,,,,,,,,,,,,,
,,,,,,,,,,stimuli/images/PICTURE_491.png,RIVER,5c9d2bed010c73001706aeaa,21/02/1951,2020-09-10_22h29.36.977,proactive3.1,2020.1.2,Win32,60,5f599a131af4471f3d752b7b,5f5ae0a513f9ca1eea073576,3,,,,,,rug,,,,,,0,50,50,6,1,1,1,,,,,,,,,,,,,,,,,,,,,,,,,,,,,,,,,,,,,,,,,,,,,,,,,,,,,,,,,,,,,,,,,,,,,,,,,,,,,,,,,,,,,,,,,,,,,,,,,,,,,,,,,,,,,
,,,,,,,,,,stimuli/images/PICTURE_42.png,BOYS,5c9d2bed010c73001706aeaa,21/02/1951,2020-09-10_22h29.36.977,proactive3.1,2020.1.2,Win32,60,5f599a131af4471f3d752b7b,5f5ae0a513f9ca1eea073576,3,,,,,,pear,,,,,,0,51,51,55,1,6,1,,,,,,,,,,,,,,,,,,,,,,,,,,,,,,,,,,,,,,,,,,,,,,,,,,,,,,,,,,,,,,,,,,,,,,,,,,,,,,,,,,,,,,,,,,,,,,,,,,,,,,,,,,,,,
,,,,,,,,,,stimuli/images/PICTURE_504.png,YEAR,5c9d2bed010c73001706aeaa,21/02/1951,2020-09-10_22h29.36.977,proactive3.1,2020.1.2,Win32,60,5f599a131af4471f3d752b7b,5f5ae0a513f9ca1eea073576,3,,,,,,wheel,,,,,,0,52,52,13,1,2,1,,,,,,,,,,,,,,,,,,,,,,,,,,,,,,,,,,,,,,,,,,,,,,,,,,,,,,,,,,,,,,,,,,,,,,,,,,,,,,,,,,,,,,,,,,,,,,,,,,,,,,,,,,,,,
,,,,,,,,,,stimuli/images/PICTURE_108.png,POLICY,5c9d2bed010c73001706aeaa,21/02/1951,2020-09-10_22h29.36.977,proactive3.1,2020.1.2,Win32,60,5f599a131af4471f3d752b7b,5f5ae0a513f9ca1eea073576,3,,,,,,calendar,,,,,,0,53,53,22,1,3,1,,,,,,,,,,,,,,,,,,,,,,,,,,,,,,,,,,,,,,,,,,,,,,,,,,,,,,,,,,,,,,,,,,,,,,,,,,,,,,,,,,,,,,,,,,,,,,,,,,,,,,,,,,,,,
,,,,,,,,,,stimuli/images/PICTURE_147.png,WOMEN,5c9d2bed010c73001706aeaa,21/02/1951,2020-09-10_22h29.36.977,proactive3.1,2020.1.2,Win32,60,5f599a131af4471f3d752b7b,5f5ae0a513f9ca1eea073576,3,,,,,,hanger,,,,,,0,54,54,7,1,1,1,,,,,,,,,,,,,,,,,,,,,,,,,,,,,,,,,,,,,,,,,,,,,,,,,,,,,,,,,,,,,,,,,,,,,,,,,,,,,,,,,,,,,,,,,,,,,,,,,,,,,,,,,,,,,
,,,,,,,,,,stimuli/images/PICTURE_95.png,HONEY,5c9d2bed010c73001706aeaa,21/02/1951,2020-09-10_22h29.36.977,proactive3.1,2020.1.2,Win32,60,5f599a131af4471f3d752b7b,5f5ae0a513f9ca1eea073576,3,,,,,,suitcase,,,,,,0,55,55,44,1,5,1,,,,,,,,,,,,,,,,,,,,,,,,,,,,,,,,,,,,,,,,,,,,,,,,,,,,,,,,,,,,,,,,,,,,,,,,,,,,,,,,,,,,,,,,,,,,,,,,,,,,,,,,,,,,,
,,,,,,,,,,stimuli/images/PICTURE_285.png,LIFE,5c9d2bed010c73001706aeaa,21/02/1951,2020-09-10_22h29.36.977,proactive3.1,2020.1.2,Win32,60,5f599a131af4471f3d752b7b,5f5ae0a513f9ca1eea073576,3,,,,,,carrot,,,,,,0,56,56,33,1,4,1,,,,,,,,,,,,,,,,,,,,,,,,,,,,,,,,,,,,,,,,,,,,,,,,,,,,,,,,,,,,,,,,,,,,,,,,,,,,,,,,,,,,,,,,,,,,,,,,,,,,,,,,,,,,,
,,,,,,,,,,stimuli/images/PICTURE_32.png,PILLS,5c9d2bed010c73001706aeaa,21/02/1951,2020-09-10_22h29.36.977,proactive3.1,2020.1.2,Win32,60,5f599a131af4471f3d752b7b,5f5ae0a513f9ca1eea073576,3,,,,,,crown,,,,,,0,57,57,18,1,2,1,,,,,,,,,,,,,,,,,,,,,,,,,,,,,,,,,,,,,,,,,,,,,,,,,,,,,,,,,,,,,,,,,,,,,,,,,,,,,,,,,,,,,,,,,,,,,,,,,,,,,,,,,,,,,
,,,,,,,,,,stimuli/images/PICTURE_177.png,WRITER,5c9d2bed010c73001706aeaa,21/02/1951,2020-09-10_22h29.36.977,proactive3.1,2020.1.2,Win32,60,5f599a131af4471f3d752b7b,5f5ae0a513f9ca1eea073576,3,,,,,,mushroom,,,,,,0,58,58,41,1,5,1,,,,,,,,,,,,,,,,,,,,,,,,,,,,,,,,,,,,,,,,,,,,,,,,,,,,,,,,,,,,,,,,,,,,,,,,,,,,,,,,,,,,,,,,,,,,,,,,,,,,,,,,,,,,,
,,CASINO,5.554455,1,,,,,,stimuli/images/PICTURE_327.png,CASINO,5c9d2bed010c73001706aeaa,21/02/1951,2020-09-10_22h29.36.977,proactive3.1,2020.1.2,Win32,60,5f599a131af4471f3d752b7b,5f5ae0a513f9ca1eea073576,3,,,,,,helmet,,,,,,,,,,,3,1,0,0,0,20,1,,,,,,,,,,,,,,,,,,,,,,,,,,,,,,,,,,,,,,,,,,,,,,,,,,,,,,,,,,,,,,,,,,,,,,,,,,,,,,,,,,,,,,,,,,,,,,,,,,,,,,,,
,,LETTER,5.633875,0,,,,,,stimuli/images/PICTURE_108.png,POLICY,5c9d2bed010c73001706aeaa,21/02/1951,2020-09-10_22h29.36.977,proactive3.1,2020.1.2,Win32,60,5f599a131af4471f3d752b7b,5f5ae0a513f9ca1eea073576,3,,,,,,calendar,,,,,,,,,,,3,1,0,1,1,22,1,,,,,,,,,,,,,,,,,,,,,,,,,,,,,,,,,,,,,,,,,,,,,,,,,,,,,,,,,,,,,,,,,,,,,,,,,,,,,,,,,,,,,,,,,,,,,,,,,,,,,,,,
,,WRITER,5.11923,1,,,,,,stimuli/images/PICTURE_383.png,WRITER,5c9d2bed010c73001706aeaa,21/02/1951,2020-09-10_22h29.36.977,proactive3.1,2020.1.2,Win32,60,5f599a131af4471f3d752b7b,5f5ae0a513f9ca1eea073576,3,,,,,,coin,,,,,,,,,,,3,1,0,2,2,28,1,,,,,,,,,,,,,,,,,,,,,,,,,,,,,,,,,,,,,,,,,,,,,,,,,,,,,,,,,,,,,,,,,,,,,,,,,,,,,,,,,,,,,,,,,,,,,,,,,,,,,,,,
,,?,0.002395,0,,,,,,stimuli/images/PICTURE_296.png,LIFE,5c9d2bed010c73001706aeaa,21/02/1951,2020-09-10_22h29.36.977,proactive3.1,2020.1.2,Win32,60,5f599a131af4471f3d752b7b,5f5ae0a513f9ca1eea073576,3,,,,,,bolt,,,,,,,,,,,6,1,0,3,3,57,1,,,,,,,,,,,,,,,,,,,,,,,,,,,,,,,,,,,,,,,,,,,,,,,,,,,,,,,,,,,,,,,,,,,,,,,,,,,,,,,,,,,,,,,,,,,,,,,,,,,,,,,,
,,?,0.001605,0,,,,,,stimuli/images/PICTURE_68.png,ROOF,5c9d2bed010c73001706aeaa,21/02/1951,2020-09-10_22h29.36.977,proactive3.1,2020.1.2,Win32,60,5f599a131af4471f3d752b7b,5f5ae0a513f9ca1eea073576,3,,,,,,candle,,,,,,,,,,,4,1,0,4,4,38,1,,,,,,,,,,,,,,,,,,,,,,,,,,,,,,,,,,,,,,,,,,,,,,,,,,,,,,,,,,,,,,,,,,,,,,,,,,,,,,,,,,,,,,,,,,,,,,,,,,,,,,,,
,,?,0.00207,0,,,,,,stimuli/images/PICTURE_685.png,PENNY,5c9d2bed010c73001706aeaa,21/02/1951,2020-09-10_22h29.36.977,proactive3.1,2020.1.2,Win32,60,5f599a131af4471f3d752b7b,5f5ae0a513f9ca1eea073576,3,,,,,,goose,,,,,,,,,,,1,1,0,5,5,4,1,,,,,,,,,,,,,,,,,,,,,,,,,,,,,,,,,,,,,,,,,,,,,,,,,,,,,,,,,,,,,,,,,,,,,,,,,,,,,,,,,,,,,,,,,,,,,,,,,,,,,,,,
,,?,0.00165,0,,,,,,stimuli/images/PICTURE_383.png,SERIES,5c9d2bed010c73001706aeaa,21/02/1951,2020-09-10_22h29.36.977,proactive3.1,2020.1.2,Win32,60,5f599a131af4471f3d752b7b,5f5ae0a513f9ca1eea073576,3,,,,,,coin,,,,,,,,,,,5,1,0,6,6,46,1,,,,,,,,,,,,,,,,,,,,,,,,,,,,,,,,,,,,,,,,,,,,,,,,,,,,,,,,,,,,,,,,,,,,,,,,,,,,,,,,,,,,,,,,,,,,,,,,,,,,,,,,
,,?,0.00157,0,,,,,,stimuli/images/PICTURE_57.png,MOMENT,5c9d2bed010c73001706aeaa,21/02/1951,2020-09-10_22h29.36.977,proactive3.1,2020.1.2,Win32,60,5f599a131af4471f3d752b7b,5f5ae0a513f9ca1eea073576,3,,,,,,stamp,,,,,,,,,,,4,1,0,7,7,37,1,,,,,,,,,,,,,,,,,,,,,,,,,,,,,,,,,,,,,,,,,,,,,,,,,,,,,,,,,,,,,,,,,,,,,,,,,,,,,,,,,,,,,,,,,,,,,,,,,,,,,,,,
,,?,0.00156,0,,,,,,stimuli/images/PICTURE_405.png,YEAR,5c9d2bed010c73001706aeaa,21/02/1951,2020-09-10_22h29.36.977,proactive3.1,2020.1.2,Win32,60,5f599a131af4471f3d752b7b,5f5ae0a513f9ca1eea073576,3,,,,,,anchor,,,,,,,,,,,4,1,0,8,8,34,1,,,,,,,,,,,,,,,,,,,,,,,,,,,,,,,,,,,,,,,,,,,,,,,,,,,,,,,,,,,,,,,,,,,,,,,,,,,,,,,,,,,,,,,,,,,,,,,,,,,,,,,,
,,?,2.55591,0,,,,,,stimuli/images/PICTURE_147.png,YEAR,5c9d2bed010c73001706aeaa,21/02/1951,2020-09-10_22h29.36.977,proactive3.1,2020.1.2,Win32,60,5f599a131af4471f3d752b7b,5f5ae0a513f9ca1eea073576,3,,,,,,hanger,,,,,,,,,,,3,1,0,9,9,21,1,,,,,,,,,,,,,,,,,,,,,,,,,,,,,,,,,,,,,,,,,,,,,,,,,,,,,,,,,,,,,,,,,,,,,,,,,,,,,,,,,,,,,,,,,,,,,,,,,,,,,,,,
,,?,0.00201,0,,,,,,stimuli/images/PICTURE_308.png,FAMILY,5c9d2bed010c73001706aeaa,21/02/1951,2020-09-10_22h29.36.977,proactive3.1,2020.1.2,Win32,60,5f599a131af4471f3d752b7b,5f5ae0a513f9ca1eea073576,3,,,,,,dice,,,,,,,,,,,4,1,0,10,10,36,1,,,,,,,,,,,,,,,,,,,,,,,,,,,,,,,,,,,,,,,,,,,,,,,,,,,,,,,,,,,,,,,,,,,,,,,,,,,,,,,,,,,,,,,,,,,,,,,,,,,,,,,,
,,?,0.00159,0,,,,,,stimuli/images/PICTURE_296.png,LOTS,5c9d2bed010c73001706aeaa,21/02/1951,2020-09-10_22h29.36.977,proactive3.1,2020.1.2,Win32,60,5f599a131af4471f3d752b7b,5f5ae0a513f9ca1eea073576,3,,,,,,bolt,,,,,,,,,,,1,1,0,11,11,9,1,,,,,,,,,,,,,,,,,,,,,,,,,,,,,,,,,,,,,,,,,,,,,,,,,,,,,,,,,,,,,,,,,,,,,,,,,,,,,,,,,,,,,,,,,,,,,,,,,,,,,,,,
,,?,2.805955,0,,,,,,stimuli/images/PICTURE_340.png,LETTER,5c9d2bed010c73001706aeaa,21/02/1951,2020-09-10_22h29.36.977,proactive3.1,2020.1.2,Win32,60,5f599a131af4471f3d752b7b,5f5ae0a513f9ca1eea073576,3,,,,,,mirror,,,,,,,,,,,3,1,0,12,12,24,1,,,,,,,,,,,,,,,,,,,,,,,,,,,,,,,,,,,,,,,,,,,,,,,,,,,,,,,,,,,,,,,,,,,,,,,,,,,,,,,,,,,,,,,,,,,,,,,,,,,,,,,,
,,?,0.00197,0,,,,,,stimuli/images/PICTURE_208.png,SYSTEM,5c9d2bed010c73001706aeaa,21/02/1951,2020-09-10_22h29.36.977,proactive3.1,2020.1.2,Win32,60,5f599a131af4471f3d752b7b,5f5ae0a513f9ca1eea073576,3,,,,,,microphone,,,,,,,,,,,4,1,0,13,13,32,1,,,,,,,,,,,,,,,,,,,,,,,,,,,,,,,,,,,,,,,,,,,,,,,,,,,,,,,,,,,,,,,,,,,,,,,,,,,,,,,,,,,,,,,,,,,,,,,,,,,,,,,,
,,?,0.00158,0,,,,,,stimuli/images/PICTURE_403.png,RIVER,5c9d2bed010c73001706aeaa,21/02/1951,2020-09-10_22h29.36.977,proactive3.1,2020.1.2,Win32,60,5f599a131af4471f3d752b7b,5f5ae0a513f9ca1eea073576,3,,,,,,cathedral,,,,,,,,,,,5,1,0,14,14,40,1,,,,,,,,,,,,,,,,,,,,,,,,,,,,,,,,,,,,,,,,,,,,,,,,,,,,,,,,,,,,,,,,,,,,,,,,,,,,,,,,,,,,,,,,,,,,,,,,,,,,,,,,
,,?,0.00254,0,,,,,,stimuli/images/PICTURE_491.png,RIVER,5c9d2bed010c73001706aeaa,21/02/1951,2020-09-10_22h29.36.977,proactive3.1,2020.1.2,Win32,60,5f599a131af4471f3d752b7b,5f5ae0a513f9ca1eea073576,3,,,,,,rug,,,,,,,,,,,1,1,0,15,15,6,1,,,,,,,,,,,,,,,,,,,,,,,,,,,,,,,,,,,,,,,,,,,,,,,,,,,,,,,,,,,,,,,,,,,,,,,,,,,,,,,,,,,,,,,,,,,,,,,,,,,,,,,,
,,?,0.002935,0,,,,,,stimuli/images/PICTURE_340.png,VALLEY,5c9d2bed010c73001706aeaa,21/02/1951,2020-09-10_22h29.36.977,proactive3.1,2020.1.2,Win32,60,5f599a131af4471f3d752b7b,5f5ae0a513f9ca1eea073576,3,,,,,,mirror,,,,,,,,,,,6,1,0,16,16,54,1,,,,,,,,,,,,,,,,,,,,,,,,,,,,,,,,,,,,,,,,,,,,,,,,,,,,,,,,,,,,,,,,,,,,,,,,,,,,,,,,,,,,,,,,,,,,,,,,,,,,,,,,
,,?,0.002385,0,,,,,,stimuli/images/PICTURE_449.png,DUDE,5c9d2bed010c73001706aeaa,21/02/1951,2020-09-10_22h29.36.977,proactive3.1,2020.1.2,Win32,60,5f599a131af4471f3d752b7b,5f5ae0a513f9ca1eea073576,3,,,,,,bench,,,,,,,,,,,2,1,0,17,17,17,1,,,,,,,,,,,,,,,,,,,,,,,,,,,,,,,,,,,,,,,,,,,,,,,,,,,,,,,,,,,,,,,,,,,,,,,,,,,,,,,,,,,,,,,,,,,,,,,,,,,,,,,,
,,?,0.001595,0,,,,,,stimuli/images/PICTURE_42.png,BOYS,5c9d2bed010c73001706aeaa,21/02/1951,2020-09-10_22h29.36.977,proactive3.1,2020.1.2,Win32,60,5f599a131af4471f3d752b7b,5f5ae0a513f9ca1eea073576,3,,,,,,pear,,,,,,,,,,,6,1,0,18,18,55,1,,,,,,,,,,,,,,,,,,,,,,,,,,,,,,,,,,,,,,,,,,,,,,,,,,,,,,,,,,,,,,,,,,,,,,,,,,,,,,,,,,,,,,,,,,,,,,,,,,,,,,,,
,,?,0.001765,0,,,,,,stimuli/images/PICTURE_403.png,WRITER,5c9d2bed010c73001706aeaa,21/02/1951,2020-09-10_22h29.36.977,proactive3.1,2020.1.2,Win32,60,5f599a131af4471f3d752b7b,5f5ae0a513f9ca1eea073576,3,,,,,,cathedral,,,,,,,,,,,4,1,0,19,19,31,1,,,,,,,,,,,,,,,,,,,,,,,,,,,,,,,,,,,,,,,,,,,,,,,,,,,,,,,,,,,,,,,,,,,,,,,,,,,,,,,,,,,,,,,,,,,,,,,,,,,,,,,,
,,?,0.002635,0,,,,,,stimuli/images/PICTURE_95.png,BOYS,5c9d2bed010c73001706aeaa,21/02/1951,2020-09-10_22h29.36.977,proactive3.1,2020.1.2,Win32,60,5f599a131af4471f3d752b7b,5f5ae0a513f9ca1eea073576,3,,,,,,suitcase,,,,,,,,,,,1,1,0,20,20,1,1,,,,,,,,,,,,,,,,,,,,,,,,,,,,,,,,,,,,,,,,,,,,,,,,,,,,,,,,,,,,,,,,,,,,,,,,,,,,,,,,,,,,,,,,,,,,,,,,,,,,,,,,
,,?,0.00161,0,,,,,,stimuli/images/PICTURE_504.png,COPS,5c9d2bed010c73001706aeaa,21/02/1951,2020-09-10_22h29.36.977,proactive3.1,2020.1.2,Win32,60,5f599a131af4471f3d752b7b,5f5ae0a513f9ca1eea073576,3,,,,,,wheel,,,,,,,,,,,6,1,0,21,21,52,1,,,,,,,,,,,,,,,,,,,,,,,,,,,,,,,,,,,,,,,,,,,,,,,,,,,,,,,,,,,,,,,,,,,,,,,,,,,,,,,,,,,,,,,,,,,,,,,,,,,,,,,,
,,?,0.001615,0,,,,,,stimuli/images/PICTURE_203.png,NIGHT,5c9d2bed010c73001706aeaa,21/02/1951,2020-09-10_22h29.36.977,proactive3.1,2020.1.2,Win32,60,5f599a131af4471f3d752b7b,5f5ae0a513f9ca1eea073576,3,,,,,,cap,,,,,,,,,,,1,1,0,22,22,2,1,,,,,,,,,,,,,,,,,,,,,,,,,,,,,,,,,,,,,,,,,,,,,,,,,,,,,,,,,,,,,,,,,,,,,,,,,,,,,,,,,,,,,,,,,,,,,,,,,,,,,,,,
,,?,0.001595,0,,,,,,stimuli/images/PICTURE_85.png,TOILET,5c9d2bed010c73001706aeaa,21/02/1951,2020-09-10_22h29.36.977,proactive3.1,2020.1.2,Win32,60,5f599a131af4471f3d752b7b,5f5ae0a513f9ca1eea073576,3,,,,,,diamond,,,,,,,,,,,5,1,0,23,23,48,1,,,,,,,,,,,,,,,,,,,,,,,,,,,,,,,,,,,,,,,,,,,,,,,,,,,,,,,,,,,,,,,,,,,,,,,,,,,,,,,,,,,,,,,,,,,,,,,,,,,,,,,,
,,?,0.001635,0,,,,,,stimuli/images/PICTURE_675.png,SALE,5c9d2bed010c73001706aeaa,21/02/1951,2020-09-10_22h29.36.977,proactive3.1,2020.1.2,Win32,60,5f599a131af4471f3d752b7b,5f5ae0a513f9ca1eea073576,3,,,,,,windmill,,,,,,,,,,,5,1,0,24,24,47,1,,,,,,,,,,,,,,,,,,,,,,,,,,,,,,,,,,,,,,,,,,,,,,,,,,,,,,,,,,,,,,,,,,,,,,,,,,,,,,,,,,,,,,,,,,,,,,,,,,,,,,,,
,,?,0.001635,0,,,,,,stimuli/images/PICTURE_203.png,GODS,5c9d2bed010c73001706aeaa,21/02/1951,2020-09-10_22h29.36.977,proactive3.1,2020.1.2,Win32,60,5f599a131af4471f3d752b7b,5f5ae0a513f9ca1eea073576,3,,,,,,cap,,,,,,,,,,,4,1,0,25,25,30,1,,,,,,,,,,,,,,,,,,,,,,,,,,,,,,,,,,,,,,,,,,,,,,,,,,,,,,,,,,,,,,,,,,,,,,,,,,,,,,,,,,,,,,,,,,,,,,,,,,,,,,,,
,,HOTEL,5.994805,1,,,,,,stimuli/images/PICTURE_750.png,HOTEL,5c9d2bed010c73001706aeaa,21/02/1951,2020-09-10_22h29.36.977,proactive3.1,2020.1.2,Win32,60,5f599a131af4471f3d752b7b,5f5ae0a513f9ca1eea073576,3,,,,,,kettle,,,,,,,,,,,3,1,0,26,26,27,1,,,,,,,,,,,,,,,,,,,,,,,,,,,,,,,,,,,,,,,,,,,,,,,,,,,,,,,,,,,,,,,,,,,,,,,,,,,,,,,,,,,,,,,,,,,,,,,,,,,,,,,,
,,?,0.00224,0,,,,,,stimuli/images/PICTURE_68.png,MILE,5c9d2bed010c73001706aeaa,21/02/1951,2020-09-10_22h29.36.977,proactive3.1,2020.1.2,Win32,60,5f599a131af4471f3d752b7b,5f5ae0a513f9ca1eea073576,3,,,,,,candle,,,,,,,,,,,6,1,0,27,27,51,1,,,,,,,,,,,,,,,,,,,,,,,,,,,,,,,,,,,,,,,,,,,,,,,,,,,,,,,,,,,,,,,,,,,,,,,,,,,,,,,,,,,,,,,,,,,,,,,,,,,,,,,,
,,?,0.001625,0,,,,,,stimuli/images/PICTURE_677.png,APPLE,5c9d2bed010c73001706aeaa,21/02/1951,2020-09-10_22h29.36.977,proactive3.1,2020.1.2,Win32,60,5f599a131af4471f3d752b7b,5f5ae0a513f9ca1eea073576,3,,,,,,map,,,,,,,,,,,5,1,0,28,28,43,1,,,,,,,,,,,,,,,,,,,,,,,,,,,,,,,,,,,,,,,,,,,,,,,,,,,,,,,,,,,,,,,,,,,,,,,,,,,,,,,,,,,,,,,,,,,,,,,,,,,,,,,,
,,?,0.00172,0,,,,,,stimuli/images/PICTURE_177.png,WRITER,5c9d2bed010c73001706aeaa,21/02/1951,2020-09-10_22h29.36.977,proactive3.1,2020.1.2,Win32,60,5f599a131af4471f3d752b7b,5f5ae0a513f9ca1eea073576,3,,,,,,mushroom,,,,,,,,,,,5,1,0,29,29,41,1,,,,,,,,,,,,,,,,,,,,,,,,,,,,,,,,,,,,,,,,,,,,,,,,,,,,,,,,,,,,,,,,,,,,,,,,,,,,,,,,,,,,,,,,,,,,,,,,,,,,,,,,
,,?,0.00238,0,,,,,,stimuli/images/PICTURE_327.png,SERIES,5c9d2bed010c73001706aeaa,21/02/1951,2020-09-10_22h29.36.977,proactive3.1,2020.1.2,Win32,60,5f599a131af4471f3d752b7b,5f5ae0a513f9ca1eea073576,3,,,,,,helmet,,,,,,,,,,,1,1,0,30,30,3,1,,,,,,,,,,,,,,,,,,,,,,,,,,,,,,,,,,,,,,,,,,,,,,,,,,,,,,,,,,,,,,,,,,,,,,,,,,,,,,,,,,,,,,,,,,,,,,,,,,,,,,,,
,,?,0.0016,0,,,,,,stimuli/images/PICTURE_32.png,PILLS,5c9d2bed010c73001706aeaa,21/02/1951,2020-09-10_22h29.36.977,proactive3.1,2020.1.2,Win32,60,5f599a131af4471f3d752b7b,5f5ae0a513f9ca1eea073576,3,,,,,,crown,,,,,,,,,,,2,1,0,31,31,18,1,,,,,,,,,,,,,,,,,,,,,,,,,,,,,,,,,,,,,,,,,,,,,,,,,,,,,,,,,,,,,,,,,,,,,,,,,,,,,,,,,,,,,,,,,,,,,,,,,,,,,,,,
,,?,0.00156,0,,,,,,stimuli/images/PICTURE_147.png,WOMEN,5c9d2bed010c73001706aeaa,21/02/1951,2020-09-10_22h29.36.977,proactive3.1,2020.1.2,Win32,60,5f599a131af4471f3d752b7b,5f5ae0a513f9ca1eea073576,3,,,,,,hanger,,,,,,,,,,,1,1,0,32,32,7,1,,,,,,,,,,,,,,,,,,,,,,,,,,,,,,,,,,,,,,,,,,,,,,,,,,,,,,,,,,,,,,,,,,,,,,,,,,,,,,,,,,,,,,,,,,,,,,,,,,,,,,,,
,,?,0.00153,0,,,,,,stimuli/images/PICTURE_297.png,RIVER,5c9d2bed010c73001706aeaa,21/02/1951,2020-09-10_22h29.36.977,proactive3.1,2020.1.2,Win32,60,5f599a131af4471f3d752b7b,5f5ae0a513f9ca1eea073576,3,,,,,,aeroplane,,,,,,,,,,,4,1,0,33,33,39,1,,,,,,,,,,,,,,,,,,,,,,,,,,,,,,,,,,,,,,,,,,,,,,,,,,,,,,,,,,,,,,,,,,,,,,,,,,,,,,,,,,,,,,,,,,,,,,,,,,,,,,,,
,,?,0.00153,0,,,,,,stimuli/images/PICTURE_487.png,GIRL,5c9d2bed010c73001706aeaa,21/02/1951,2020-09-10_22h29.36.977,proactive3.1,2020.1.2,Win32,60,5f599a131af4471f3d752b7b,5f5ae0a513f9ca1eea073576,3,,,,,,basket,,,,,,,,,,,5,1,0,34,34,45,1,,,,,,,,,,,,,,,,,,,,,,,,,,,,,,,,,,,,,,,,,,,,,,,,,,,,,,,,,,,,,,,,,,,,,,,,,,,,,,,,,,,,,,,,,,,,,,,,,,,,,,,,
,,?,0.00162,0,,,,,,stimuli/images/PICTURE_504.png,YEAR,5c9d2bed010c73001706aeaa,21/02/1951,2020-09-10_22h29.36.977,proactive3.1,2020.1.2,Win32,60,5f599a131af4471f3d752b7b,5f5ae0a513f9ca1eea073576,3,,,,,,wheel,,,,,,,,,,,2,1,0,35,35,13,1,,,,,,,,,,,,,,,,,,,,,,,,,,,,,,,,,,,,,,,,,,,,,,,,,,,,,,,,,,,,,,,,,,,,,,,,,,,,,,,,,,,,,,,,,,,,,,,,,,,,,,,,
,,?,0.00171,0,,,,,,stimuli/images/PICTURE_380.png,CANDY,5c9d2bed010c73001706aeaa,21/02/1951,2020-09-10_22h29.36.977,proactive3.1,2020.1.2,Win32,60,5f599a131af4471f3d752b7b,5f5ae0a513f9ca1eea073576,3,,,,,,gorilla,,,,,,,,,,,1,1,0,36,36,0,1,,,,,,,,,,,,,,,,,,,,,,,,,,,,,,,,,,,,,,,,,,,,,,,,,,,,,,,,,,,,,,,,,,,,,,,,,,,,,,,,,,,,,,,,,,,,,,,,,,,,,,,,
,,?,0.00225,0,,,,,,stimuli/images/PICTURE_655.png,TOILET,5c9d2bed010c73001706aeaa,21/02/1951,2020-09-10_22h29.36.977,proactive3.1,2020.1.2,Win32,60,5f599a131af4471f3d752b7b,5f5ae0a513f9ca1eea073576,3,,,,,,megaphone,,,,,,,,,,,2,1,0,37,37,12,1,,,,,,,,,,,,,,,,,,,,,,,,,,,,,,,,,,,,,,,,,,,,,,,,,,,,,,,,,,,,,,,,,,,,,,,,,,,,,,,,,,,,,,,,,,,,,,,,,,,,,,,,
,,?,0.00155,0,,,,,,stimuli/images/PICTURE_285.png,LIFE,5c9d2bed010c73001706aeaa,21/02/1951,2020-09-10_22h29.36.977,proactive3.1,2020.1.2,Win32,60,5f599a131af4471f3d752b7b,5f5ae0a513f9ca1eea073576,3,,,,,,carrot,,,,,,,,,,,4,1,0,38,38,33,1,,,,,,,,,,,,,,,,,,,,,,,,,,,,,,,,,,,,,,,,,,,,,,,,,,,,,,,,,,,,,,,,,,,,,,,,,,,,,,,,,,,,,,,,,,,,,,,,,,,,,,,,
,,MOBTH,4.946145,0,,,,,,stimuli/images/PICTURE_654.png,MONTH,5c9d2bed010c73001706aeaa,21/02/1951,2020-09-10_22h29.36.977,proactive3.1,2020.1.2,Win32,60,5f599a131af4471f3d752b7b,5f5ae0a513f9ca1eea073576,3,,,,,,pencil,,,,,,,,,,,3,1,0,39,39,29,1,,,,,,,,,,,,,,,,,,,,,,,,,,,,,,,,,,,,,,,,,,,,,,,,,,,,,,,,,,,,,,,,,,,,,,,,,,,,,,,,,,,,,,,,,,,,,,,,,,,,,,,,
,,?,0.00201,0,,,,,,stimuli/images/PICTURE_667.png,RIVER,5c9d2bed010c73001706aeaa,21/02/1951,2020-09-10_22h29.36.977,proactive3.1,2020.1.2,Win32,60,5f599a131af4471f3d752b7b,5f5ae0a513f9ca1eea073576,3,,,,,,daisy,,,,,,,,,,,2,1,0,40,40,10,1,,,,,,,,,,,,,,,,,,,,,,,,,,,,,,,,,,,,,,,,,,,,,,,,,,,,,,,,,,,,,,,,,,,,,,,,,,,,,,,,,,,,,,,,,,,,,,,,,,,,,,,,
,,?,0.00198,0,,,,,,stimuli/images/PICTURE_708.png,RECORD,5c9d2bed010c73001706aeaa,21/02/1951,2020-09-10_22h29.36.977,proactive3.1,2020.1.2,Win32,60,5f599a131af4471f3d752b7b,5f5ae0a513f9ca1eea073576,3,,,,,,monkey,,,,,,,,,,,6,1,0,41,41,58,1,,,,,,,,,,,,,,,,,,,,,,,,,,,,,,,,,,,,,,,,,,,,,,,,,,,,,,,,,,,,,,,,,,,,,,,,,,,,,,,,,,,,,,,,,,,,,,,,,,,,,,,,
,,?,0.001595,0,,,,,,stimuli/images/PICTURE_339.png,CLIENT,5c9d2bed010c73001706aeaa,21/02/1951,2020-09-10_22h29.36.977,proactive3.1,2020.1.2,Win32,60,5f599a131af4471f3d752b7b,5f5ae0a513f9ca1eea073576,3,,,,,,backpack,,,,,,,,,,,2,1,0,42,42,11,1,,,,,,,,,,,,,,,,,,,,,,,,,,,,,,,,,,,,,,,,,,,,,,,,,,,,,,,,,,,,,,,,,,,,,,,,,,,,,,,,,,,,,,,,,,,,,,,,,,,,,,,,
,,?,0.00216,0,,,,,,stimuli/images/PICTURE_95.png,HONEY,5c9d2bed010c73001706aeaa,21/02/1951,2020-09-10_22h29.36.977,proactive3.1,2020.1.2,Win32,60,5f599a131af4471f3d752b7b,5f5ae0a513f9ca1eea073576,3,,,,,,suitcase,,,,,,,,,,,5,1,0,43,43,44,1,,,,,,,,,,,,,,,,,,,,,,,,,,,,,,,,,,,,,,,,,,,,,,,,,,,,,,,,,,,,,,,,,,,,,,,,,,,,,,,,,,,,,,,,,,,,,,,,,,,,,,,,
,,?,0.001665,0,,,,,,stimuli/images/PICTURE_32.png,KIND,5c9d2bed010c73001706aeaa,21/02/1951,2020-09-10_22h29.36.977,proactive3.1,2020.1.2,Win32,60,5f599a131af4471f3d752b7b,5f5ae0a513f9ca1eea073576,3,,,,,,crown,,,,,,,,,,,4,1,0,44,44,35,1,,,,,,,,,,,,,,,,,,,,,,,,,,,,,,,,,,,,,,,,,,,,,,,,,,,,,,,,,,,,,,,,,,,,,,,,,,,,,,,,,,,,,,,,,,,,,,,,,,,,,,,,
,,?,0.00156,0,,,,,,stimuli/images/PICTURE_108.png,FLIGHT,5c9d2bed010c73001706aeaa,21/02/1951,2020-09-10_22h29.36.977,proactive3.1,2020.1.2,Win32,60,5f599a131af4471f3d752b7b,5f5ae0a513f9ca1eea073576,3,,,,,,calendar,,,,,,,,,,,6,1,0,45,45,59,1,,,,,,,,,,,,,,,,,,,,,,,,,,,,,,,,,,,,,,,,,,,,,,,,,,,,,,,,,,,,,,,,,,,,,,,,,,,,,,,,,,,,,,,,,,,,,,,,,,,,,,,,
,,PLENTY,5.747065,1,,,,,,stimuli/images/PICTURE_405.png,PLENTY,5c9d2bed010c73001706aeaa,21/02/1951,2020-09-10_22h29.36.977,proactive3.1,2020.1.2,Win32,60,5f599a131af4471f3d752b7b,5f5ae0a513f9ca1eea073576,3,,,,,,anchor,,,,,,,,,,,3,1,0,46,46,23,1,,,,,,,,,,,,,,,,,,,,,,,,,,,,,,,,,,,,,,,,,,,,,,,,,,,,,,,,,,,,,,,,,,,,,,,,,,,,,,,,,,,,,,,,,,,,,,,,,,,,,,,,
,,?,0.002385,0,,,,,,stimuli/images/PICTURE_469.png,AGENT,5c9d2bed010c73001706aeaa,21/02/1951,2020-09-10_22h29.36.977,proactive3.1,2020.1.2,Win32,60,5f599a131af4471f3d752b7b,5f5ae0a513f9ca1eea073576,3,,,,,,stool,,,,,,,,,,,2,1,0,47,47,16,1,,,,,,,,,,,,,,,,,,,,,,,,,,,,,,,,,,,,,,,,,,,,,,,,,,,,,,,,,,,,,,,,,,,,,,,,,,,,,,,,,,,,,,,,,,,,,,,,,,,,,,,,
,,TOILET,6.90181,1,,,,,,stimuli/images/PICTURE_403.png,TOILET,5c9d2bed010c73001706aeaa,21/02/1951,2020-09-10_22h29.36.977,proactive3.1,2020.1.2,Win32,60,5f599a131af4471f3d752b7b,5f5ae0a513f9ca1eea073576,3,,,,,,cathedral,,,,,,,,,,,3,1,0,48,48,25,1,,,,,,,,,,,,,,,,,,,,,,,,,,,,,,,,,,,,,,,,,,,,,,,,,,,,,,,,,,,,,,,,,,,,,,,,,,,,,,,,,,,,,,,,,,,,,,,,,,,,,,,,
,,MOON,5.339405,0,,,,,,stimuli/images/PICTURE_564.png,BATH,5c9d2bed010c73001706aeaa,21/02/1951,2020-09-10_22h29.36.977,proactive3.1,2020.1.2,Win32,60,5f599a131af4471f3d752b7b,5f5ae0a513f9ca1eea073576,3,,,,,,spoon,,,,,,,,,,,3,1,0,49,49,26,1,,,,,,,,,,,,,,,,,,,,,,,,,,,,,,,,,,,,,,,,,,,,,,,,,,,,,,,,,,,,,,,,,,,,,,,,,,,,,,,,,,,,,,,,,,,,,,,,,,,,,,,,
,,?,0.006945,0,,,,,,stimuli/images/PICTURE_95.png,MILLER,5c9d2bed010c73001706aeaa,21/02/1951,2020-09-10_22h29.36.977,proactive3.1,2020.1.2,Win32,60,5f599a131af4471f3d752b7b,5f5ae0a513f9ca1eea073576,3,,,,,,suitcase,,,,,,,,,,,6,1,0,50,50,56,1,,,,,,,,,,,,,,,,,,,,,,,,,,,,,,,,,,,,,,,,,,,,,,,,,,,,,,,,,,,,,,,,,,,,,,,,,,,,,,,,,,,,,,,,,,,,,,,,,,,,,,,,
,,?,0.00153,0,,,,,,stimuli/images/PICTURE_744.png,WEAPON,5c9d2bed010c73001706aeaa,21/02/1951,2020-09-10_22h29.36.977,proactive3.1,2020.1.2,Win32,60,5f599a131af4471f3d752b7b,5f5ae0a513f9ca1eea073576,3,,,,,,ring,,,,,,,,,,,6,1,0,51,51,50,1,,,,,,,,,,,,,,,,,,,,,,,,,,,,,,,,,,,,,,,,,,,,,,,,,,,,,,,,,,,,,,,,,,,,,,,,,,,,,,,,,,,,,,,,,,,,,,,,,,,,,,,,
,,?,0.001605,0,,,,,,stimuli/images/PICTURE_380.png,HONEY,5c9d2bed010c73001706aeaa,21/02/1951,2020-09-10_22h29.36.977,proactive3.1,2020.1.2,Win32,60,5f599a131af4471f3d752b7b,5f5ae0a513f9ca1eea073576,3,,,,,,gorilla,,,,,,,,,,,2,1,0,52,52,19,1,,,,,,,,,,,,,,,,,,,,,,,,,,,,,,,,,,,,,,,,,,,,,,,,,,,,,,,,,,,,,,,,,,,,,,,,,,,,,,,,,,,,,,,,,,,,,,,,,,,,,,,,
,,?,0.002225,0,,,,,,stimuli/images/PICTURE_33.png,FRIEND,5c9d2bed010c73001706aeaa,21/02/1951,2020-09-10_22h29.36.977,proactive3.1,2020.1.2,Win32,60,5f599a131af4471f3d752b7b,5f5ae0a513f9ca1eea073576,3,,,,,,frame,,,,,,,,,,,1,1,0,53,53,8,1,,,,,,,,,,,,,,,,,,,,,,,,,,,,,,,,,,,,,,,,,,,,,,,,,,,,,,,,,,,,,,,,,,,,,,,,,,,,,,,,,,,,,,,,,,,,,,,,,,,,,,,,
,,?,0.00372,0,,,,,,stimuli/images/PICTURE_85.png,NATION,5c9d2bed010c73001706aeaa,21/02/1951,2020-09-10_22h29.36.977,proactive3.1,2020.1.2,Win32,60,5f599a131af4471f3d752b7b,5f5ae0a513f9ca1eea073576,3,,,,,,diamond,,,,,,,,,,,1,1,0,54,54,5,1,,,,,,,,,,,,,,,,,,,,,,,,,,,,,,,,,,,,,,,,,,,,,,,,,,,,,,,,,,,,,,,,,,,,,,,,,,,,,,,,,,,,,,,,,,,,,,,,,,,,,,,,
,,?,0.00163,0,,,,,,stimuli/images/PICTURE_233.png,LOTS,5c9d2bed010c73001706aeaa,21/02/1951,2020-09-10_22h29.36.977,proactive3.1,2020.1.2,Win32,60,5f599a131af4471f3d752b7b,5f5ae0a513f9ca1eea073576,3,,,,,,salt,,,,,,,,,,,5,1,0,55,55,42,1,,,,,,,,,,,,,,,,,,,,,,,,,,,,,,,,,,,,,,,,,,,,,,,,,,,,,,,,,,,,,,,,,,,,,,,,,,,,,,,,,,,,,,,,,,,,,,,,,,,,,,,,
,,?,0.00176,0,,,,,,stimuli/images/PICTURE_467.png,POLICY,5c9d2bed010c73001706aeaa,21/02/1951,2020-09-10_22h29.36.977,proactive3.1,2020.1.2,Win32,60,5f599a131af4471f3d752b7b,5f5ae0a513f9ca1eea073576,3,,,,,,peg,,,,,,,,,,,6,1,0,56,56,53,1,,,,,,,,,,,,,,,,,,,,,,,,,,,,,,,,,,,,,,,,,,,,,,,,,,,,,,,,,,,,,,,,,,,,,,,,,,,,,,,,,,,,,,,,,,,,,,,,,,,,,,,,
,,?,0.001575,0,,,,,,stimuli/images/PICTURE_504.png,ARTIST,5c9d2bed010c73001706aeaa,21/02/1951,2020-09-10_22h29.36.977,proactive3.1,2020.1.2,Win32,60,5f599a131af4471f3d752b7b,5f5ae0a513f9ca1eea073576,3,,,,,,wheel,,,,,,,,,,,5,1,0,57,57,49,1,,,,,,,,,,,,,,,,,,,,,,,,,,,,,,,,,,,,,,,,,,,,,,,,,,,,,,,,,,,,,,,,,,,,,,,,,,,,,,,,,,,,,,,,,,,,,,,,,,,,,,,,
,,?,0.00155,0,,,,,,stimuli/images/PICTURE_2.png,FLIGHT,5c9d2bed010c73001706aeaa,21/02/1951,2020-09-10_22h29.36.977,proactive3.1,2020.1.2,Win32,60,5f599a131af4471f3d752b7b,5f5ae0a513f9ca1eea073576,3,,,,,,tyre,,,,,,,,,,,2,1,0,58,58,15,1,,,,,,,,,,,,,,,,,,,,,,,,,,,,,,,,,,,,,,,,,,,,,,,,,,,,,,,,,,,,,,,,,,,,,,,,,,,,,,,,,,,,,,,,,,,,,,,,,,,,,,,,
,,?,0.00162,0,,,,,,stimuli/images/PICTURE_491.png,GLASS,5c9d2bed010c73001706aeaa,21/02/1951,2020-09-10_22h29.36.977,proactive3.1,2020.1.2,Win32,60,5f599a131af4471f3d752b7b,5f5ae0a513f9ca1eea073576,3,,,,,,rug,,,,,,,,,,,2,1,0,59,59,14,1,,,,,,,,,,,,,,,,,,,,,,,,,,,,,,,,,,,,,,,,,,,,,,,,,,,,,,,,,,,,,,,,,,,,,,,,,,,,,,,,,,,,,,,,,,,,,,,,,,,,,,,,
,,,,,,,,,,,,5c9d2bed010c73001706aeaa,21/02/1951,2020-09-10_22h29.36.977,proactive3.1,2020.1.2,Win32,60,5f599a131af4471f3d752b7b,5f5ae0a513f9ca1eea073576,3,,,,,,,,,,,,,,,,,,,,,,,,0,1,1,1,1,stimuli/learn-block2.csv,,,,,,,,,,,,,,,,,,,,,,,,,,,,,,,,,,,,,,,,,,,,,,,,,,,,,,,,,,,,,,,,,,,,,,,,,,,,,,,,,,,,,,,,,,,,,,,,,,
,,,,,,,,,,stimuli/images/PICTURE_708.png,YARD,5c9d2bed010c73001706aeaa,21/02/1951,2020-09-10_22h29.36.977,proactive3.1,2020.1.2,Win32,60,5f599a131af4471f3d752b7b,5f5ae0a513f9ca1eea073576,3,,,,,,monkey,,,,,,0,0,0,29,1,3,0,,,,,,,,,,,,,,,,,,,,,,,,,,,,,,,,,,,,,,,,,,,,,,,,,,,,,,,,,,,,,,,,,,,,,,,,,,,,,,,,,,,,,,,,,,,,,,,,,,,,,,,,,,,,,
,,,,,,,,,,stimuli/images/PICTURE_215.png,PLENTY,5c9d2bed010c73001706aeaa,21/02/1951,2020-09-10_22h29.36.977,proactive3.1,2020.1.2,Win32,60,5f599a131af4471f3d752b7b,5f5ae0a513f9ca1eea073576,3,,,,,,boot,,,,,,0,1,1,37,1,4,0,,,,,,,,,,,,,,,,,,,,,,,,,,,,,,,,,,,,,,,,,,,,,,,,,,,,,,,,,,,,,,,,,,,,,,,,,,,,,,,,,,,,,,,,,,,,,,,,,,,,,,,,,,,,,
,,,,,,,,,,stimuli/images/PICTURE_208.png,THING,5c9d2bed010c73001706aeaa,21/02/1951,2020-09-10_22h29.36.977,proactive3.1,2020.1.2,Win32,60,5f599a131af4471f3d752b7b,5f5ae0a513f9ca1eea073576,3,,,,,,microphone,,,,,,0,2,2,47,1,5,0,,,,,,,,,,,,,,,,,,,,,,,,,,,,,,,,,,,,,,,,,,,,,,,,,,,,,,,,,,,,,,,,,,,,,,,,,,,,,,,,,,,,,,,,,,,,,,,,,,,,,,,,,,,,,
,,,,,,,,,,stimuli/images/PICTURE_470.png,CASINO,5c9d2bed010c73001706aeaa,21/02/1951,2020-09-10_22h29.36.977,proactive3.1,2020.1.2,Win32,60,5f599a131af4471f3d752b7b,5f5ae0a513f9ca1eea073576,3,,,,,,motorbike,,,,,,0,3,3,36,1,4,0,,,,,,,,,,,,,,,,,,,,,,,,,,,,,,,,,,,,,,,,,,,,,,,,,,,,,,,,,,,,,,,,,,,,,,,,,,,,,,,,,,,,,,,,,,,,,,,,,,,,,,,,,,,,,
,,,,,,,,,,stimuli/images/PICTURE_203.png,ARTIST,5c9d2bed010c73001706aeaa,21/02/1951,2020-09-10_22h29.36.977,proactive3.1,2020.1.2,Win32,60,5f599a131af4471f3d752b7b,5f5ae0a513f9ca1eea073576,3,,,,,,cap,,,,,,0,4,4,26,1,3,0,,,,,,,,,,,,,,,,,,,,,,,,,,,,,,,,,,,,,,,,,,,,,,,,,,,,,,,,,,,,,,,,,,,,,,,,,,,,,,,,,,,,,,,,,,,,,,,,,,,,,,,,,,,,,
,,,,,,,,,,stimuli/images/PICTURE_160.png,LEADER,5c9d2bed010c73001706aeaa,21/02/1951,2020-09-10_22h29.36.977,proactive3.1,2020.1.2,Win32,60,5f599a131af4471f3d752b7b,5f5ae0a513f9ca1eea073576,3,,,,,,wheelbarrow,,,,,,0,5,5,3,1,1,0,,,,,,,,,,,,,,,,,,,,,,,,,,,,,,,,,,,,,,,,,,,,,,,,,,,,,,,,,,,,,,,,,,,,,,,,,,,,,,,,,,,,,,,,,,,,,,,,,,,,,,,,,,,,,
,,,,,,,,,,stimuli/images/PICTURE_233.png,IDEAS,5c9d2bed010c73001706aeaa,21/02/1951,2020-09-10_22h29.36.977,proactive3.1,2020.1.2,Win32,60,5f599a131af4471f3d752b7b,5f5ae0a513f9ca1eea073576,3,,,,,,salt,,,,,,0,6,6,28,1,3,0,,,,,,,,,,,,,,,,,,,,,,,,,,,,,,,,,,,,,,,,,,,,,,,,,,,,,,,,,,,,,,,,,,,,,,,,,,,,,,,,,,,,,,,,,,,,,,,,,,,,,,,,,,,,,
,,,,,,,,,,stimuli/images/PICTURE_469.png,ARTIST,5c9d2bed010c73001706aeaa,21/02/1951,2020-09-10_22h29.36.977,proactive3.1,2020.1.2,Win32,60,5f599a131af4471f3d752b7b,5f5ae0a513f9ca1eea073576,3,,,,,,stool,,,,,,0,7,7,6,1,1,0,,,,,,,,,,,,,,,,,,,,,,,,,,,,,,,,,,,,,,,,,,,,,,,,,,,,,,,,,,,,,,,,,,,,,,,,,,,,,,,,,,,,,,,,,,,,,,,,,,,,,,,,,,,,,
,,,,,,,,,,stimuli/images/PICTURE_509.png,PHOTO,5c9d2bed010c73001706aeaa,21/02/1951,2020-09-10_22h29.36.977,proactive3.1,2020.1.2,Win32,60,5f599a131af4471f3d752b7b,5f5ae0a513f9ca1eea073576,3,,,,,,telephone,,,,,,0,8,8,21,1,3,0,,,,,,,,,,,,,,,,,,,,,,,,,,,,,,,,,,,,,,,,,,,,,,,,,,,,,,,,,,,,,,,,,,,,,,,,,,,,,,,,,,,,,,,,,,,,,,,,,,,,,,,,,,,,,
,,,,,,,,,,stimuli/images/PICTURE_654.png,VALLEY,5c9d2bed010c73001706aeaa,21/02/1951,2020-09-10_22h29.36.977,proactive3.1,2020.1.2,Win32,60,5f599a131af4471f3d752b7b,5f5ae0a513f9ca1eea073576,3,,,,,,pencil,,,,,,0,9,9,1,1,1,0,,,,,,,,,,,,,,,,,,,,,,,,,,,,,,,,,,,,,,,,,,,,,,,,,,,,,,,,,,,,,,,,,,,,,,,,,,,,,,,,,,,,,,,,,,,,,,,,,,,,,,,,,,,,,
,,,,,,,,,,stimuli/images/PICTURE_68.png,MILE,5c9d2bed010c73001706aeaa,21/02/1951,2020-09-10_22h29.36.977,proactive3.1,2020.1.2,Win32,60,5f599a131af4471f3d752b7b,5f5ae0a513f9ca1eea073576,3,,,,,,candle,,,,,,0,10,10,44,1,5,0,,,,,,,,,,,,,,,,,,,,,,,,,,,,,,,,,,,,,,,,,,,,,,,,,,,,,,,,,,,,,,,,,,,,,,,,,,,,,,,,,,,,,,,,,,,,,,,,,,,,,,,,,,,,,
,,,,,,,,,,stimuli/images/PICTURE_467.png,DEMON,5c9d2bed010c73001706aeaa,21/02/1951,2020-09-10_22h29.36.977,proactive3.1,2020.1.2,Win32,60,5f599a131af4471f3d752b7b,5f5ae0a513f9ca1eea073576,3,,,,,,peg,,,,,,0,11,11,23,1,3,0,,,,,,,,,,,,,,,,,,,,,,,,,,,,,,,,,,,,,,,,,,,,,,,,,,,,,,,,,,,,,,,,,,,,,,,,,,,,,,,,,,,,,,,,,,,,,,,,,,,,,,,,,,,,,
,,,,,,,,,,stimuli/images/PICTURE_339.png,PLENTY,5c9d2bed010c73001706aeaa,21/02/1951,2020-09-10_22h29.36.977,proactive3.1,2020.1.2,Win32,60,5f599a131af4471f3d752b7b,5f5ae0a513f9ca1eea073576,3,,,,,,backpack,,,,,,0,12,12,0,1,1,0,,,,,,,,,,,,,,,,,,,,,,,,,,,,,,,,,,,,,,,,,,,,,,,,,,,,,,,,,,,,,,,,,,,,,,,,,,,,,,,,,,,,,,,,,,,,,,,,,,,,,,,,,,,,,
,,,,,,,,,,stimuli/images/PICTURE_95.png,STYLE,5c9d2bed010c73001706aeaa,21/02/1951,2020-09-10_22h29.36.977,proactive3.1,2020.1.2,Win32,60,5f599a131af4471f3d752b7b,5f5ae0a513f9ca1eea073576,3,,,,,,suitcase,,,,,,0,13,13,25,1,3,0,,,,,,,,,,,,,,,,,,,,,,,,,,,,,,,,,,,,,,,,,,,,,,,,,,,,,,,,,,,,,,,,,,,,,,,,,,,,,,,,,,,,,,,,,,,,,,,,,,,,,,,,,,,,,
,,,,,,,,,,stimuli/images/PICTURE_85.png,THING,5c9d2bed010c73001706aeaa,21/02/1951,2020-09-10_22h29.36.977,proactive3.1,2020.1.2,Win32,60,5f599a131af4471f3d752b7b,5f5ae0a513f9ca1eea073576,3,,,,,,diamond,,,,,,0,14,14,15,1,2,0,,,,,,,,,,,,,,,,,,,,,,,,,,,,,,,,,,,,,,,,,,,,,,,,,,,,,,,,,,,,,,,,,,,,,,,,,,,,,,,,,,,,,,,,,,,,,,,,,,,,,,,,,,,,,
,,,,,,,,,,stimuli/images/PICTURE_692.png,MONTH,5c9d2bed010c73001706aeaa,21/02/1951,2020-09-10_22h29.36.977,proactive3.1,2020.1.2,Win32,60,5f599a131af4471f3d752b7b,5f5ae0a513f9ca1eea073576,3,,,,,,cherry,,,,,,0,15,15,16,1,2,0,,,,,,,,,,,,,,,,,,,,,,,,,,,,,,,,,,,,,,,,,,,,,,,,,,,,,,,,,,,,,,,,,,,,,,,,,,,,,,,,,,,,,,,,,,,,,,,,,,,,,,,,,,,,,
,,,,,,,,,,stimuli/images/PICTURE_147.png,MOMENT,5c9d2bed010c73001706aeaa,21/02/1951,2020-09-10_22h29.36.977,proactive3.1,2020.1.2,Win32,60,5f599a131af4471f3d752b7b,5f5ae0a513f9ca1eea073576,3,,,,,,hanger,,,,,,0,16,16,51,1,6,0,,,,,,,,,,,,,,,,,,,,,,,,,,,,,,,,,,,,,,,,,,,,,,,,,,,,,,,,,,,,,,,,,,,,,,,,,,,,,,,,,,,,,,,,,,,,,,,,,,,,,,,,,,,,,
,,,,,,,,,,stimuli/images/PICTURE_233.png,WOMEN,5c9d2bed010c73001706aeaa,21/02/1951,2020-09-10_22h29.36.977,proactive3.1,2020.1.2,Win32,60,5f599a131af4471f3d752b7b,5f5ae0a513f9ca1eea073576,3,,,,,,salt,,,,,,0,17,17,38,1,4,0,,,,,,,,,,,,,,,,,,,,,,,,,,,,,,,,,,,,,,,,,,,,,,,,,,,,,,,,,,,,,,,,,,,,,,,,,,,,,,,,,,,,,,,,,,,,,,,,,,,,,,,,,,,,,
,,,,,,,,,,stimuli/images/PICTURE_688.png,WOMEN,5c9d2bed010c73001706aeaa,21/02/1951,2020-09-10_22h29.36.977,proactive3.1,2020.1.2,Win32,60,5f599a131af4471f3d752b7b,5f5ae0a513f9ca1eea073576,3,,,,,,runner,,,,,,0,18,18,14,1,2,0,,,,,,,,,,,,,,,,,,,,,,,,,,,,,,,,,,,,,,,,,,,,,,,,,,,,,,,,,,,,,,,,,,,,,,,,,,,,,,,,,,,,,,,,,,,,,,,,,,,,,,,,,,,,,
,,,,,,,,,,stimuli/images/PICTURE_311.png,FRIEND,5c9d2bed010c73001706aeaa,21/02/1951,2020-09-10_22h29.36.977,proactive3.1,2020.1.2,Win32,60,5f599a131af4471f3d752b7b,5f5ae0a513f9ca1eea073576,3,,,,,,razor,,,,,,0,19,19,34,1,4,0,,,,,,,,,,,,,,,,,,,,,,,,,,,,,,,,,,,,,,,,,,,,,,,,,,,,,,,,,,,,,,,,,,,,,,,,,,,,,,,,,,,,,,,,,,,,,,,,,,,,,,,,,,,,,
,,,,,,,,,,stimuli/images/PICTURE_453.png,DUDE,5c9d2bed010c73001706aeaa,21/02/1951,2020-09-10_22h29.36.977,proactive3.1,2020.1.2,Win32,60,5f599a131af4471f3d752b7b,5f5ae0a513f9ca1eea073576,3,,,,,,scissors,,,,,,0,20,20,27,1,3,0,,,,,,,,,,,,,,,,,,,,,,,,,,,,,,,,,,,,,,,,,,,,,,,,,,,,,,,,,,,,,,,,,,,,,,,,,,,,,,,,,,,,,,,,,,,,,,,,,,,,,,,,,,,,,
,,,,,,,,,,stimuli/images/PICTURE_487.png,FLIGHT,5c9d2bed010c73001706aeaa,21/02/1951,2020-09-10_22h29.36.977,proactive3.1,2020.1.2,Win32,60,5f599a131af4471f3d752b7b,5f5ae0a513f9ca1eea073576,3,,,,,,basket,,,,,,0,21,21,9,1,1,0,,,,,,,,,,,,,,,,,,,,,,,,,,,,,,,,,,,,,,,,,,,,,,,,,,,,,,,,,,,,,,,,,,,,,,,,,,,,,,,,,,,,,,,,,,,,,,,,,,,,,,,,,,,,,
,,,,,,,,,,stimuli/images/PICTURE_504.png,BODY,5c9d2bed010c73001706aeaa,21/02/1951,2020-09-10_22h29.36.977,proactive3.1,2020.1.2,Win32,60,5f599a131af4471f3d752b7b,5f5ae0a513f9ca1eea073576,3,,,,,,wheel,,,,,,0,22,22,8,1,1,0,,,,,,,,,,,,,,,,,,,,,,,,,,,,,,,,,,,,,,,,,,,,,,,,,,,,,,,,,,,,,,,,,,,,,,,,,,,,,,,,,,,,,,,,,,,,,,,,,,,,,,,,,,,,,
,,,,,,,,,,stimuli/images/PICTURE_449.png,THING,5c9d2bed010c73001706aeaa,21/02/1951,2020-09-10_22h29.36.977,proactive3.1,2020.1.2,Win32,60,5f599a131af4471f3d752b7b,5f5ae0a513f9ca1eea073576,3,,,,,,bench,,,,,,0,23,23,59,1,6,0,,,,,,,,,,,,,,,,,,,,,,,,,,,,,,,,,,,,,,,,,,,,,,,,,,,,,,,,,,,,,,,,,,,,,,,,,,,,,,,,,,,,,,,,,,,,,,,,,,,,,,,,,,,,,
,,,,,,,,,,stimuli/images/PICTURE_123.png,ADVICE,5c9d2bed010c73001706aeaa,21/02/1951,2020-09-10_22h29.36.977,proactive3.1,2020.1.2,Win32,60,5f599a131af4471f3d752b7b,5f5ae0a513f9ca1eea073576,3,,,,,,dart,,,,,,0,24,24,40,1,5,0,,,,,,,,,,,,,,,,,,,,,,,,,,,,,,,,,,,,,,,,,,,,,,,,,,,,,,,,,,,,,,,,,,,,,,,,,,,,,,,,,,,,,,,,,,,,,,,,,,,,,,,,,,,,,
,,,,,,,,,,stimuli/images/PICTURE_208.png,LOTS,5c9d2bed010c73001706aeaa,21/02/1951,2020-09-10_22h29.36.977,proactive3.1,2020.1.2,Win32,60,5f599a131af4471f3d752b7b,5f5ae0a513f9ca1eea073576,3,,,,,,microphone,,,,,,0,25,25,10,1,2,0,,,,,,,,,,,,,,,,,,,,,,,,,,,,,,,,,,,,,,,,,,,,,,,,,,,,,,,,,,,,,,,,,,,,,,,,,,,,,,,,,,,,,,,,,,,,,,,,,,,,,,,,,,,,,
,,,,,,,,,,stimuli/images/PICTURE_708.png,PENNY,5c9d2bed010c73001706aeaa,21/02/1951,2020-09-10_22h29.36.977,proactive3.1,2020.1.2,Win32,60,5f599a131af4471f3d752b7b,5f5ae0a513f9ca1eea073576,3,,,,,,monkey,,,,,,0,26,26,31,1,4,0,,,,,,,,,,,,,,,,,,,,,,,,,,,,,,,,,,,,,,,,,,,,,,,,,,,,,,,,,,,,,,,,,,,,,,,,,,,,,,,,,,,,,,,,,,,,,,,,,,,,,,,,,,,,,
,,,,,,,,,,stimuli/images/PICTURE_32.png,JUNGLE,5c9d2bed010c73001706aeaa,21/02/1951,2020-09-10_22h29.36.977,proactive3.1,2020.1.2,Win32,60,5f599a131af4471f3d752b7b,5f5ae0a513f9ca1eea073576,3,,,,,,crown,,,,,,0,27,27,45,1,5,0,,,,,,,,,,,,,,,,,,,,,,,,,,,,,,,,,,,,,,,,,,,,,,,,,,,,,,,,,,,,,,,,,,,,,,,,,,,,,,,,,,,,,,,,,,,,,,,,,,,,,,,,,,,,,
,,,,,,,,,,stimuli/images/PICTURE_708.png,CLIENT,5c9d2bed010c73001706aeaa,21/02/1951,2020-09-10_22h29.36.977,proactive3.1,2020.1.2,Win32,60,5f599a131af4471f3d752b7b,5f5ae0a513f9ca1eea073576,3,,,,,,monkey,,,,,,0,28,28,5,1,1,0,,,,,,,,,,,,,,,,,,,,,,,,,,,,,,,,,,,,,,,,,,,,,,,,,,,,,,,,,,,,,,,,,,,,,,,,,,,,,,,,,,,,,,,,,,,,,,,,,,,,,,,,,,,,,
,,,,,,,,,,stimuli/images/PICTURE_208.png,MONTH,5c9d2bed010c73001706aeaa,21/02/1951,2020-09-10_22h29.36.977,proactive3.1,2020.1.2,Win32,60,5f599a131af4471f3d752b7b,5f5ae0a513f9ca1eea073576,3,,,,,,microphone,,,,,,0,29,29,53,1,6,0,,,,,,,,,,,,,,,,,,,,,,,,,,,,,,,,,,,,,,,,,,,,,,,,,,,,,,,,,,,,,,,,,,,,,,,,,,,,,,,,,,,,,,,,,,,,,,,,,,,,,,,,,,,,,
,,,,,,,,,,stimuli/images/PICTURE_488.png,STYLE,5c9d2bed010c73001706aeaa,21/02/1951,2020-09-10_22h29.36.977,proactive3.1,2020.1.2,Win32,60,5f599a131af4471f3d752b7b,5f5ae0a513f9ca1eea073576,3,,,,,,sun,,,,,,0,30,30,33,1,4,0,,,,,,,,,,,,,,,,,,,,,,,,,,,,,,,,,,,,,,,,,,,,,,,,,,,,,,,,,,,,,,,,,,,,,,,,,,,,,,,,,,,,,,,,,,,,,,,,,,,,,,,,,,,,,
,,,,,,,,,,stimuli/images/PICTURE_675.png,WEAPON,5c9d2bed010c73001706aeaa,21/02/1951,2020-09-10_22h29.36.977,proactive3.1,2020.1.2,Win32,60,5f599a131af4471f3d752b7b,5f5ae0a513f9ca1eea073576,3,,,,,,windmill,,,,,,0,31,31,32,1,4,0,,,,,,,,,,,,,,,,,,,,,,,,,,,,,,,,,,,,,,,,,,,,,,,,,,,,,,,,,,,,,,,,,,,,,,,,,,,,,,,,,,,,,,,,,,,,,,,,,,,,,,,,,,,,,
,,,,,,,,,,stimuli/images/PICTURE_348.png,SPEECH,5c9d2bed010c73001706aeaa,21/02/1951,2020-09-10_22h29.36.977,proactive3.1,2020.1.2,Win32,60,5f599a131af4471f3d752b7b,5f5ae0a513f9ca1eea073576,3,,,,,,pepper,,,,,,0,32,32,20,1,3,0,,,,,,,,,,,,,,,,,,,,,,,,,,,,,,,,,,,,,,,,,,,,,,,,,,,,,,,,,,,,,,,,,,,,,,,,,,,,,,,,,,,,,,,,,,,,,,,,,,,,,,,,,,,,,
,,,,,,,,,,stimuli/images/PICTURE_380.png,PHOTO,5c9d2bed010c73001706aeaa,21/02/1951,2020-09-10_22h29.36.977,proactive3.1,2020.1.2,Win32,60,5f599a131af4471f3d752b7b,5f5ae0a513f9ca1eea073576,3,,,,,,gorilla,,,,,,0,33,33,52,1,6,0,,,,,,,,,,,,,,,,,,,,,,,,,,,,,,,,,,,,,,,,,,,,,,,,,,,,,,,,,,,,,,,,,,,,,,,,,,,,,,,,,,,,,,,,,,,,,,,,,,,,,,,,,,,,,
,,,,,,,,,,stimuli/images/PICTURE_160.png,FEET,5c9d2bed010c73001706aeaa,21/02/1951,2020-09-10_22h29.36.977,proactive3.1,2020.1.2,Win32,60,5f599a131af4471f3d752b7b,5f5ae0a513f9ca1eea073576,3,,,,,,wheelbarrow,,,,,,0,34,34,58,1,6,0,,,,,,,,,,,,,,,,,,,,,,,,,,,,,,,,,,,,,,,,,,,,,,,,,,,,,,,,,,,,,,,,,,,,,,,,,,,,,,,,,,,,,,,,,,,,,,,,,,,,,,,,,,,,,
,,,,,,,,,,stimuli/images/PICTURE_308.png,ESTATE,5c9d2bed010c73001706aeaa,21/02/1951,2020-09-10_22h29.36.977,proactive3.1,2020.1.2,Win32,60,5f599a131af4471f3d752b7b,5f5ae0a513f9ca1eea073576,3,,,,,,dice,,,,,,0,35,35,46,1,5,0,,,,,,,,,,,,,,,,,,,,,,,,,,,,,,,,,,,,,,,,,,,,,,,,,,,,,,,,,,,,,,,,,,,,,,,,,,,,,,,,,,,,,,,,,,,,,,,,,,,,,,,,,,,,,
,,,,,,,,,,stimuli/images/PICTURE_248.png,DOZEN,5c9d2bed010c73001706aeaa,21/02/1951,2020-09-10_22h29.36.977,proactive3.1,2020.1.2,Win32,60,5f599a131af4471f3d752b7b,5f5ae0a513f9ca1eea073576,3,,,,,,cart,,,,,,0,36,36,39,1,4,0,,,,,,,,,,,,,,,,,,,,,,,,,,,,,,,,,,,,,,,,,,,,,,,,,,,,,,,,,,,,,,,,,,,,,,,,,,,,,,,,,,,,,,,,,,,,,,,,,,,,,,,,,,,,,
,,,,,,,,,,stimuli/images/PICTURE_255.png,AREA,5c9d2bed010c73001706aeaa,21/02/1951,2020-09-10_22h29.36.977,proactive3.1,2020.1.2,Win32,60,5f599a131af4471f3d752b7b,5f5ae0a513f9ca1eea073576,3,,,,,,shovel,,,,,,0,37,37,22,1,3,0,,,,,,,,,,,,,,,,,,,,,,,,,,,,,,,,,,,,,,,,,,,,,,,,,,,,,,,,,,,,,,,,,,,,,,,,,,,,,,,,,,,,,,,,,,,,,,,,,,,,,,,,,,,,,
,,,,,,,,,,stimuli/images/PICTURE_311.png,BEAUTY,5c9d2bed010c73001706aeaa,21/02/1951,2020-09-10_22h29.36.977,proactive3.1,2020.1.2,Win32,60,5f599a131af4471f3d752b7b,5f5ae0a513f9ca1eea073576,3,,,,,,razor,,,,,,0,38,38,13,1,2,0,,,,,,,,,,,,,,,,,,,,,,,,,,,,,,,,,,,,,,,,,,,,,,,,,,,,,,,,,,,,,,,,,,,,,,,,,,,,,,,,,,,,,,,,,,,,,,,,,,,,,,,,,,,,,
