consent_key.keys,consent_key.rt,recalled,recalled_rt,recall_acc,example_recall.thisRepN,example_recall.thisTrialN,example_recall.thisN,example_recall.thisIndex,example_recall.ran,file,word,participant,please enter your date of birth (dd/mm/yyyy),date,expName,psychopyVersion,OS,frameRate,STUDY_ID,SESSION_ID,list,prac_learn_study_loop.thisRepN,prac_learn_study_loop.thisTrialN,prac_learn_study_loop.thisN,prac_learn_study_loop.thisIndex,prac_learn_study_loop.ran,image,prac_learn_test_loop.thisRepN,prac_learn_test_loop.thisTrialN,prac_learn_test_loop.thisN,prac_learn_test_loop.thisIndex,prac_learn_test_loop.ran,learn_study_loop.thisRepN,learn_study_loop.thisTrialN,learn_study_loop.thisN,learn_study_loop.thisIndex,learn_study_loop.ran,list_no,block_no,learn_test_loop.thisRepN,learn_test_loop.thisTrialN,learn_test_loop.thisN,learn_test_loop.thisIndex,learn_test_loop.ran,learn_blocks.thisRepN,learn_blocks.thisTrialN,learn_blocks.thisN,learn_blocks.thisIndex,learn_blocks.ran,block_csv,key_resp_13.keys,key_resp_13.rt,learn_blocks_loop.thisRepN,learn_blocks_loop.thisTrialN,learn_blocks_loop.thisN,learn_blocks_loop.thisIndex,learn_blocks_loop.ran,final_learn_test.thisRepN,final_learn_test.thisTrialN,final_learn_test.thisN,final_learn_test.thisIndex,final_learn_test.ran,s_im1,s_im2,s_im3,s_im4,s_im5,s_im6,s_im7,s_im8,s_im1pos,s_im2pos,s_im3pos,s_im4pos,s_im5pos,s_im6pos,s_im7pos,s_im8pos,s_tarright,search_resp.keys,search_resp.rt,search_loop.thisRepN,search_loop.thisTrialN,search_loop.thisN,search_loop.thisIndex,search_loop.ran,prac_wm_search_loop.thisRepN,prac_wm_search_loop.thisTrialN,prac_wm_search_loop.thisN,prac_wm_search_loop.thisIndex,prac_wm_search_loop.ran,prac_wm_test_loop.thisRepN,prac_wm_test_loop.thisTrialN,prac_wm_test_loop.thisN,prac_wm_test_loop.thisIndex,prac_wm_test_loop.ran,wm_recalled1,wm_recall_rt1,wm_probed1,wm_recall_acc1,wm_recalled2,wm_recall_rt2,wm_probed2,wm_recall_acc2,wm_recalled3,wm_recall_rt3,wm_probed3,wm_recall_acc3,wm_recalled4,wm_recall_rt4,wm_probed4,wm_recall_acc4,prac_wm_trial_loop.thisRepN,prac_wm_trial_loop.thisTrialN,prac_wm_trial_loop.thisN,prac_wm_trial_loop.thisIndex,prac_wm_trial_loop.ran,word1,image1,file1,item_type1,word2,image2,file2,item_type2,word4,image4,file4,item_type4,word3,image3,file3,item_type3,wm_search_loop.thisRepN,wm_search_loop.thisTrialN,wm_search_loop.thisN,wm_search_loop.thisIndex,wm_search_loop.ran,wm_test_loop.thisRepN,wm_test_loop.thisTrialN,wm_test_loop.thisN,wm_test_loop.thisIndex,wm_test_loop.ran,wm_trial_loop.thisRepN,wm_trial_loop.thisTrialN,wm_trial_loop.thisN,wm_trial_loop.thisIndex,wm_trial_loop.ran
y,18.23771,TOUGH,5.058485,1,0,0,0,0,1,stimuli/images/PICTURE_747.png,TOUGH,5cffb12df6c3fb00157b2f39,23/09/1954,2020-09-10_15h44.31.674,proactive3.1,2020.1.2,Win32,60,5f599a131af4471f3d752b7b,5f5a3bae8e6d030aa0f05c77,6,,,,,,,,,,,,,,,,,,,,,,,,,,,,,,,,,,,,,,,,,,,,,,,,,,,,,,,,,,,,,,,,,,,,,,,,,,,,,,,,,,,,,,,,,,,,,,,,,,,,,,,,,,,,,,,,,,,,,,,,,,,,,,,
,,,,,,,,,,stimuli/images/PICTURE_727.png,CELL,5cffb12df6c3fb00157b2f39,23/09/1954,2020-09-10_15h44.31.674,proactive3.1,2020.1.2,Win32,60,5f599a131af4471f3d752b7b,5f5a3bae8e6d030aa0f05c77,6,0,0,0,1,1,hose,,,,,,,,,,,,,,,,,,,,,,,,,,,,,,,,,,,,,,,,,,,,,,,,,,,,,,,,,,,,,,,,,,,,,,,,,,,,,,,,,,,,,,,,,,,,,,,,,,,,,,,,,,,,,,,,,,,,,,,,,
,,,,,,,,,,stimuli/images/PICTURE_697.png,KILLER,5cffb12df6c3fb00157b2f39,23/09/1954,2020-09-10_15h44.31.674,proactive3.1,2020.1.2,Win32,60,5f599a131af4471f3d752b7b,5f5a3bae8e6d030aa0f05c77,6,0,1,1,4,1,peach,,,,,,,,,,,,,,,,,,,,,,,,,,,,,,,,,,,,,,,,,,,,,,,,,,,,,,,,,,,,,,,,,,,,,,,,,,,,,,,,,,,,,,,,,,,,,,,,,,,,,,,,,,,,,,,,,,,,,,,,,
,,,,,,,,,,stimuli/images/PICTURE_269.png,GENIUS,5cffb12df6c3fb00157b2f39,23/09/1954,2020-09-10_15h44.31.674,proactive3.1,2020.1.2,Win32,60,5f599a131af4471f3d752b7b,5f5a3bae8e6d030aa0f05c77,6,0,2,2,0,1,chameleon,,,,,,,,,,,,,,,,,,,,,,,,,,,,,,,,,,,,,,,,,,,,,,,,,,,,,,,,,,,,,,,,,,,,,,,,,,,,,,,,,,,,,,,,,,,,,,,,,,,,,,,,,,,,,,,,,,,,,,,,,
,,,,,,,,,,stimuli/images/PICTURE_658.png,DEVIL,5cffb12df6c3fb00157b2f39,23/09/1954,2020-09-10_15h44.31.674,proactive3.1,2020.1.2,Win32,60,5f599a131af4471f3d752b7b,5f5a3bae8e6d030aa0f05c77,6,0,3,3,3,1,crow,,,,,,,,,,,,,,,,,,,,,,,,,,,,,,,,,,,,,,,,,,,,,,,,,,,,,,,,,,,,,,,,,,,,,,,,,,,,,,,,,,,,,,,,,,,,,,,,,,,,,,,,,,,,,,,,,,,,,,,,,
,,KILLER,5.866845,1,,,,,,stimuli/images/PICTURE_697.png,KILLER,5cffb12df6c3fb00157b2f39,23/09/1954,2020-09-10_15h44.31.674,proactive3.1,2020.1.2,Win32,60,5f599a131af4471f3d752b7b,5f5a3bae8e6d030aa0f05c77,6,,,,,,peach,0,0,0,4,1,,,,,,,,,,,,,,,,,,,,,,,,,,,,,,,,,,,,,,,,,,,,,,,,,,,,,,,,,,,,,,,,,,,,,,,,,,,,,,,,,,,,,,,,,,,,,,,,,,,,,,,,,,,,,,,,,,,,
,,LOSS,3.289625,1,,,,,,stimuli/images/PICTURE_378.png,LOSS,5cffb12df6c3fb00157b2f39,23/09/1954,2020-09-10_15h44.31.674,proactive3.1,2020.1.2,Win32,60,5f599a131af4471f3d752b7b,5f5a3bae8e6d030aa0f05c77,6,,,,,,lobster,0,1,1,2,1,,,,,,,,,,,,,,,,,,,,,,,,,,,,,,,,,,,,,,,,,,,,,,,,,,,,,,,,,,,,,,,,,,,,,,,,,,,,,,,,,,,,,,,,,,,,,,,,,,,,,,,,,,,,,,,,,,,,
,,?,13.70746,0,,,,,,stimuli/images/PICTURE_269.png,GENIUS,5cffb12df6c3fb00157b2f39,23/09/1954,2020-09-10_15h44.31.674,proactive3.1,2020.1.2,Win32,60,5f599a131af4471f3d752b7b,5f5a3bae8e6d030aa0f05c77,6,,,,,,chameleon,0,2,2,0,1,,,,,,,,,,,,,,,,,,,,,,,,,,,,,,,,,,,,,,,,,,,,,,,,,,,,,,,,,,,,,,,,,,,,,,,,,,,,,,,,,,,,,,,,,,,,,,,,,,,,,,,,,,,,,,,,,,,,
,,?,15.02924,0,,,,,,stimuli/images/PICTURE_727.png,CELL,5cffb12df6c3fb00157b2f39,23/09/1954,2020-09-10_15h44.31.674,proactive3.1,2020.1.2,Win32,60,5f599a131af4471f3d752b7b,5f5a3bae8e6d030aa0f05c77,6,,,,,,hose,0,3,3,1,1,,,,,,,,,,,,,,,,,,,,,,,,,,,,,,,,,,,,,,,,,,,,,,,,,,,,,,,,,,,,,,,,,,,,,,,,,,,,,,,,,,,,,,,,,,,,,,,,,,,,,,,,,,,,,,,,,,,,
,,DEVIL,4.580665,1,,,,,,stimuli/images/PICTURE_658.png,DEVIL,5cffb12df6c3fb00157b2f39,23/09/1954,2020-09-10_15h44.31.674,proactive3.1,2020.1.2,Win32,60,5f599a131af4471f3d752b7b,5f5a3bae8e6d030aa0f05c77,6,,,,,,crow,0,4,4,3,1,,,,,,,,,,,,,,,,,,,,,,,,,,,,,,,,,,,,,,,,,,,,,,,,,,,,,,,,,,,,,,,,,,,,,,,,,,,,,,,,,,,,,,,,,,,,,,,,,,,,,,,,,,,,,,,,,,,,
,,,,,,,,,,stimuli/images/PICTURE_95.png,BOYS,5cffb12df6c3fb00157b2f39,23/09/1954,2020-09-10_15h44.31.674,proactive3.1,2020.1.2,Win32,60,5f599a131af4471f3d752b7b,5f5a3bae8e6d030aa0f05c77,6,,,,,,suitcase,,,,,,0,0,0,1,1,1,1,,,,,,,,,,,,,,,,,,,,,,,,,,,,,,,,,,,,,,,,,,,,,,,,,,,,,,,,,,,,,,,,,,,,,,,,,,,,,,,,,,,,,,,,,,,,,,,,,,,,,,,,,,,,,
,,,,,,,,,,stimuli/images/PICTURE_449.png,DUDE,5cffb12df6c3fb00157b2f39,23/09/1954,2020-09-10_15h44.31.674,proactive3.1,2020.1.2,Win32,60,5f599a131af4471f3d752b7b,5f5a3bae8e6d030aa0f05c77,6,,,,,,bench,,,,,,0,1,1,17,1,2,1,,,,,,,,,,,,,,,,,,,,,,,,,,,,,,,,,,,,,,,,,,,,,,,,,,,,,,,,,,,,,,,,,,,,,,,,,,,,,,,,,,,,,,,,,,,,,,,,,,,,,,,,,,,,,
,,,,,,,,,,stimuli/images/PICTURE_85.png,NATION,5cffb12df6c3fb00157b2f39,23/09/1954,2020-09-10_15h44.31.674,proactive3.1,2020.1.2,Win32,60,5f599a131af4471f3d752b7b,5f5a3bae8e6d030aa0f05c77,6,,,,,,diamond,,,,,,0,2,2,5,1,1,1,,,,,,,,,,,,,,,,,,,,,,,,,,,,,,,,,,,,,,,,,,,,,,,,,,,,,,,,,,,,,,,,,,,,,,,,,,,,,,,,,,,,,,,,,,,,,,,,,,,,,,,,,,,,,
,,,,,,,,,,stimuli/images/PICTURE_85.png,TOILET,5cffb12df6c3fb00157b2f39,23/09/1954,2020-09-10_15h44.31.674,proactive3.1,2020.1.2,Win32,60,5f599a131af4471f3d752b7b,5f5a3bae8e6d030aa0f05c77,6,,,,,,diamond,,,,,,0,3,3,48,1,5,1,,,,,,,,,,,,,,,,,,,,,,,,,,,,,,,,,,,,,,,,,,,,,,,,,,,,,,,,,,,,,,,,,,,,,,,,,,,,,,,,,,,,,,,,,,,,,,,,,,,,,,,,,,,,,
,,,,,,,,,,stimuli/images/PICTURE_2.png,FLIGHT,5cffb12df6c3fb00157b2f39,23/09/1954,2020-09-10_15h44.31.674,proactive3.1,2020.1.2,Win32,60,5f599a131af4471f3d752b7b,5f5a3bae8e6d030aa0f05c77,6,,,,,,tyre,,,,,,0,4,4,15,1,2,1,,,,,,,,,,,,,,,,,,,,,,,,,,,,,,,,,,,,,,,,,,,,,,,,,,,,,,,,,,,,,,,,,,,,,,,,,,,,,,,,,,,,,,,,,,,,,,,,,,,,,,,,,,,,,
,,,,,,,,,,stimuli/images/PICTURE_675.png,SALE,5cffb12df6c3fb00157b2f39,23/09/1954,2020-09-10_15h44.31.674,proactive3.1,2020.1.2,Win32,60,5f599a131af4471f3d752b7b,5f5a3bae8e6d030aa0f05c77,6,,,,,,windmill,,,,,,0,5,5,47,1,5,1,,,,,,,,,,,,,,,,,,,,,,,,,,,,,,,,,,,,,,,,,,,,,,,,,,,,,,,,,,,,,,,,,,,,,,,,,,,,,,,,,,,,,,,,,,,,,,,,,,,,,,,,,,,,,
,,,,,,,,,,stimuli/images/PICTURE_233.png,LOTS,5cffb12df6c3fb00157b2f39,23/09/1954,2020-09-10_15h44.31.674,proactive3.1,2020.1.2,Win32,60,5f599a131af4471f3d752b7b,5f5a3bae8e6d030aa0f05c77,6,,,,,,salt,,,,,,0,6,6,42,1,5,1,,,,,,,,,,,,,,,,,,,,,,,,,,,,,,,,,,,,,,,,,,,,,,,,,,,,,,,,,,,,,,,,,,,,,,,,,,,,,,,,,,,,,,,,,,,,,,,,,,,,,,,,,,,,,
,,,,,,,,,,stimuli/images/PICTURE_147.png,WOMEN,5cffb12df6c3fb00157b2f39,23/09/1954,2020-09-10_15h44.31.674,proactive3.1,2020.1.2,Win32,60,5f599a131af4471f3d752b7b,5f5a3bae8e6d030aa0f05c77,6,,,,,,hanger,,,,,,0,7,7,7,1,1,1,,,,,,,,,,,,,,,,,,,,,,,,,,,,,,,,,,,,,,,,,,,,,,,,,,,,,,,,,,,,,,,,,,,,,,,,,,,,,,,,,,,,,,,,,,,,,,,,,,,,,,,,,,,,,
,,,,,,,,,,stimuli/images/PICTURE_405.png,PLENTY,5cffb12df6c3fb00157b2f39,23/09/1954,2020-09-10_15h44.31.674,proactive3.1,2020.1.2,Win32,60,5f599a131af4471f3d752b7b,5f5a3bae8e6d030aa0f05c77,6,,,,,,anchor,,,,,,0,8,8,23,1,3,1,,,,,,,,,,,,,,,,,,,,,,,,,,,,,,,,,,,,,,,,,,,,,,,,,,,,,,,,,,,,,,,,,,,,,,,,,,,,,,,,,,,,,,,,,,,,,,,,,,,,,,,,,,,,,
,,,,,,,,,,stimuli/images/PICTURE_177.png,WRITER,5cffb12df6c3fb00157b2f39,23/09/1954,2020-09-10_15h44.31.674,proactive3.1,2020.1.2,Win32,60,5f599a131af4471f3d752b7b,5f5a3bae8e6d030aa0f05c77,6,,,,,,mushroom,,,,,,0,9,9,41,1,5,1,,,,,,,,,,,,,,,,,,,,,,,,,,,,,,,,,,,,,,,,,,,,,,,,,,,,,,,,,,,,,,,,,,,,,,,,,,,,,,,,,,,,,,,,,,,,,,,,,,,,,,,,,,,,,
,,,,,,,,,,stimuli/images/PICTURE_380.png,CANDY,5cffb12df6c3fb00157b2f39,23/09/1954,2020-09-10_15h44.31.674,proactive3.1,2020.1.2,Win32,60,5f599a131af4471f3d752b7b,5f5a3bae8e6d030aa0f05c77,6,,,,,,gorilla,,,,,,0,10,10,0,1,1,1,,,,,,,,,,,,,,,,,,,,,,,,,,,,,,,,,,,,,,,,,,,,,,,,,,,,,,,,,,,,,,,,,,,,,,,,,,,,,,,,,,,,,,,,,,,,,,,,,,,,,,,,,,,,,
,,,,,,,,,,stimuli/images/PICTURE_308.png,FAMILY,5cffb12df6c3fb00157b2f39,23/09/1954,2020-09-10_15h44.31.674,proactive3.1,2020.1.2,Win32,60,5f599a131af4471f3d752b7b,5f5a3bae8e6d030aa0f05c77,6,,,,,,dice,,,,,,0,11,11,36,1,4,1,,,,,,,,,,,,,,,,,,,,,,,,,,,,,,,,,,,,,,,,,,,,,,,,,,,,,,,,,,,,,,,,,,,,,,,,,,,,,,,,,,,,,,,,,,,,,,,,,,,,,,,,,,,,,
,,,,,,,,,,stimuli/images/PICTURE_203.png,NIGHT,5cffb12df6c3fb00157b2f39,23/09/1954,2020-09-10_15h44.31.674,proactive3.1,2020.1.2,Win32,60,5f599a131af4471f3d752b7b,5f5a3bae8e6d030aa0f05c77,6,,,,,,cap,,,,,,0,12,12,2,1,1,1,,,,,,,,,,,,,,,,,,,,,,,,,,,,,,,,,,,,,,,,,,,,,,,,,,,,,,,,,,,,,,,,,,,,,,,,,,,,,,,,,,,,,,,,,,,,,,,,,,,,,,,,,,,,,
,,,,,,,,,,stimuli/images/PICTURE_655.png,TOILET,5cffb12df6c3fb00157b2f39,23/09/1954,2020-09-10_15h44.31.674,proactive3.1,2020.1.2,Win32,60,5f599a131af4471f3d752b7b,5f5a3bae8e6d030aa0f05c77,6,,,,,,megaphone,,,,,,0,13,13,12,1,2,1,,,,,,,,,,,,,,,,,,,,,,,,,,,,,,,,,,,,,,,,,,,,,,,,,,,,,,,,,,,,,,,,,,,,,,,,,,,,,,,,,,,,,,,,,,,,,,,,,,,,,,,,,,,,,
,,,,,,,,,,stimuli/images/PICTURE_487.png,GIRL,5cffb12df6c3fb00157b2f39,23/09/1954,2020-09-10_15h44.31.674,proactive3.1,2020.1.2,Win32,60,5f599a131af4471f3d752b7b,5f5a3bae8e6d030aa0f05c77,6,,,,,,basket,,,,,,0,14,14,45,1,5,1,,,,,,,,,,,,,,,,,,,,,,,,,,,,,,,,,,,,,,,,,,,,,,,,,,,,,,,,,,,,,,,,,,,,,,,,,,,,,,,,,,,,,,,,,,,,,,,,,,,,,,,,,,,,,
,,,,,,,,,,stimuli/images/PICTURE_32.png,PILLS,5cffb12df6c3fb00157b2f39,23/09/1954,2020-09-10_15h44.31.674,proactive3.1,2020.1.2,Win32,60,5f599a131af4471f3d752b7b,5f5a3bae8e6d030aa0f05c77,6,,,,,,crown,,,,,,0,15,15,18,1,2,1,,,,,,,,,,,,,,,,,,,,,,,,,,,,,,,,,,,,,,,,,,,,,,,,,,,,,,,,,,,,,,,,,,,,,,,,,,,,,,,,,,,,,,,,,,,,,,,,,,,,,,,,,,,,,
,,,,,,,,,,stimuli/images/PICTURE_68.png,ROOF,5cffb12df6c3fb00157b2f39,23/09/1954,2020-09-10_15h44.31.674,proactive3.1,2020.1.2,Win32,60,5f599a131af4471f3d752b7b,5f5a3bae8e6d030aa0f05c77,6,,,,,,candle,,,,,,0,16,16,38,1,4,1,,,,,,,,,,,,,,,,,,,,,,,,,,,,,,,,,,,,,,,,,,,,,,,,,,,,,,,,,,,,,,,,,,,,,,,,,,,,,,,,,,,,,,,,,,,,,,,,,,,,,,,,,,,,,
,,,,,,,,,,stimuli/images/PICTURE_744.png,WEAPON,5cffb12df6c3fb00157b2f39,23/09/1954,2020-09-10_15h44.31.674,proactive3.1,2020.1.2,Win32,60,5f599a131af4471f3d752b7b,5f5a3bae8e6d030aa0f05c77,6,,,,,,ring,,,,,,0,17,17,50,1,6,1,,,,,,,,,,,,,,,,,,,,,,,,,,,,,,,,,,,,,,,,,,,,,,,,,,,,,,,,,,,,,,,,,,,,,,,,,,,,,,,,,,,,,,,,,,,,,,,,,,,,,,,,,,,,,
,,,,,,,,,,stimuli/images/PICTURE_203.png,GODS,5cffb12df6c3fb00157b2f39,23/09/1954,2020-09-10_15h44.31.674,proactive3.1,2020.1.2,Win32,60,5f599a131af4471f3d752b7b,5f5a3bae8e6d030aa0f05c77,6,,,,,,cap,,,,,,0,18,18,30,1,4,1,,,,,,,,,,,,,,,,,,,,,,,,,,,,,,,,,,,,,,,,,,,,,,,,,,,,,,,,,,,,,,,,,,,,,,,,,,,,,,,,,,,,,,,,,,,,,,,,,,,,,,,,,,,,,
,,,,,,,,,,stimuli/images/PICTURE_95.png,HONEY,5cffb12df6c3fb00157b2f39,23/09/1954,2020-09-10_15h44.31.674,proactive3.1,2020.1.2,Win32,60,5f599a131af4471f3d752b7b,5f5a3bae8e6d030aa0f05c77,6,,,,,,suitcase,,,,,,0,19,19,44,1,5,1,,,,,,,,,,,,,,,,,,,,,,,,,,,,,,,,,,,,,,,,,,,,,,,,,,,,,,,,,,,,,,,,,,,,,,,,,,,,,,,,,,,,,,,,,,,,,,,,,,,,,,,,,,,,,
,,,,,,,,,,stimuli/images/PICTURE_339.png,CLIENT,5cffb12df6c3fb00157b2f39,23/09/1954,2020-09-10_15h44.31.674,proactive3.1,2020.1.2,Win32,60,5f599a131af4471f3d752b7b,5f5a3bae8e6d030aa0f05c77,6,,,,,,backpack,,,,,,0,20,20,11,1,2,1,,,,,,,,,,,,,,,,,,,,,,,,,,,,,,,,,,,,,,,,,,,,,,,,,,,,,,,,,,,,,,,,,,,,,,,,,,,,,,,,,,,,,,,,,,,,,,,,,,,,,,,,,,,,,
,,,,,,,,,,stimuli/images/PICTURE_68.png,MILE,5cffb12df6c3fb00157b2f39,23/09/1954,2020-09-10_15h44.31.674,proactive3.1,2020.1.2,Win32,60,5f599a131af4471f3d752b7b,5f5a3bae8e6d030aa0f05c77,6,,,,,,candle,,,,,,0,21,21,51,1,6,1,,,,,,,,,,,,,,,,,,,,,,,,,,,,,,,,,,,,,,,,,,,,,,,,,,,,,,,,,,,,,,,,,,,,,,,,,,,,,,,,,,,,,,,,,,,,,,,,,,,,,,,,,,,,,
,,,,,,,,,,stimuli/images/PICTURE_383.png,WRITER,5cffb12df6c3fb00157b2f39,23/09/1954,2020-09-10_15h44.31.674,proactive3.1,2020.1.2,Win32,60,5f599a131af4471f3d752b7b,5f5a3bae8e6d030aa0f05c77,6,,,,,,coin,,,,,,0,22,22,28,1,3,1,,,,,,,,,,,,,,,,,,,,,,,,,,,,,,,,,,,,,,,,,,,,,,,,,,,,,,,,,,,,,,,,,,,,,,,,,,,,,,,,,,,,,,,,,,,,,,,,,,,,,,,,,,,,,
,,,,,,,,,,stimuli/images/PICTURE_708.png,RECORD,5cffb12df6c3fb00157b2f39,23/09/1954,2020-09-10_15h44.31.674,proactive3.1,2020.1.2,Win32,60,5f599a131af4471f3d752b7b,5f5a3bae8e6d030aa0f05c77,6,,,,,,monkey,,,,,,0,23,23,58,1,6,1,,,,,,,,,,,,,,,,,,,,,,,,,,,,,,,,,,,,,,,,,,,,,,,,,,,,,,,,,,,,,,,,,,,,,,,,,,,,,,,,,,,,,,,,,,,,,,,,,,,,,,,,,,,,,
,,,,,,,,,,stimuli/images/PICTURE_504.png,COPS,5cffb12df6c3fb00157b2f39,23/09/1954,2020-09-10_15h44.31.674,proactive3.1,2020.1.2,Win32,60,5f599a131af4471f3d752b7b,5f5a3bae8e6d030aa0f05c77,6,,,,,,wheel,,,,,,0,24,24,52,1,6,1,,,,,,,,,,,,,,,,,,,,,,,,,,,,,,,,,,,,,,,,,,,,,,,,,,,,,,,,,,,,,,,,,,,,,,,,,,,,,,,,,,,,,,,,,,,,,,,,,,,,,,,,,,,,,
,,,,,,,,,,stimuli/images/PICTURE_340.png,LETTER,5cffb12df6c3fb00157b2f39,23/09/1954,2020-09-10_15h44.31.674,proactive3.1,2020.1.2,Win32,60,5f599a131af4471f3d752b7b,5f5a3bae8e6d030aa0f05c77,6,,,,,,mirror,,,,,,0,25,25,24,1,3,1,,,,,,,,,,,,,,,,,,,,,,,,,,,,,,,,,,,,,,,,,,,,,,,,,,,,,,,,,,,,,,,,,,,,,,,,,,,,,,,,,,,,,,,,,,,,,,,,,,,,,,,,,,,,,
,,,,,,,,,,stimuli/images/PICTURE_750.png,HOTEL,5cffb12df6c3fb00157b2f39,23/09/1954,2020-09-10_15h44.31.674,proactive3.1,2020.1.2,Win32,60,5f599a131af4471f3d752b7b,5f5a3bae8e6d030aa0f05c77,6,,,,,,kettle,,,,,,0,26,26,27,1,3,1,,,,,,,,,,,,,,,,,,,,,,,,,,,,,,,,,,,,,,,,,,,,,,,,,,,,,,,,,,,,,,,,,,,,,,,,,,,,,,,,,,,,,,,,,,,,,,,,,,,,,,,,,,,,,
,,,,,,,,,,stimuli/images/PICTURE_654.png,MONTH,5cffb12df6c3fb00157b2f39,23/09/1954,2020-09-10_15h44.31.674,proactive3.1,2020.1.2,Win32,60,5f599a131af4471f3d752b7b,5f5a3bae8e6d030aa0f05c77,6,,,,,,pencil,,,,,,0,27,27,29,1,3,1,,,,,,,,,,,,,,,,,,,,,,,,,,,,,,,,,,,,,,,,,,,,,,,,,,,,,,,,,,,,,,,,,,,,,,,,,,,,,,,,,,,,,,,,,,,,,,,,,,,,,,,,,,,,,
,,,,,,,,,,stimuli/images/PICTURE_564.png,BATH,5cffb12df6c3fb00157b2f39,23/09/1954,2020-09-10_15h44.31.674,proactive3.1,2020.1.2,Win32,60,5f599a131af4471f3d752b7b,5f5a3bae8e6d030aa0f05c77,6,,,,,,spoon,,,,,,0,28,28,26,1,3,1,,,,,,,,,,,,,,,,,,,,,,,,,,,,,,,,,,,,,,,,,,,,,,,,,,,,,,,,,,,,,,,,,,,,,,,,,,,,,,,,,,,,,,,,,,,,,,,,,,,,,,,,,,,,,
,,,,,,,,,,stimuli/images/PICTURE_327.png,SERIES,5cffb12df6c3fb00157b2f39,23/09/1954,2020-09-10_15h44.31.674,proactive3.1,2020.1.2,Win32,60,5f599a131af4471f3d752b7b,5f5a3bae8e6d030aa0f05c77,6,,,,,,helmet,,,,,,0,29,29,3,1,1,1,,,,,,,,,,,,,,,,,,,,,,,,,,,,,,,,,,,,,,,,,,,,,,,,,,,,,,,,,,,,,,,,,,,,,,,,,,,,,,,,,,,,,,,,,,,,,,,,,,,,,,,,,,,,,
,,,,,,,,,,stimuli/images/PICTURE_296.png,LOTS,5cffb12df6c3fb00157b2f39,23/09/1954,2020-09-10_15h44.31.674,proactive3.1,2020.1.2,Win32,60,5f599a131af4471f3d752b7b,5f5a3bae8e6d030aa0f05c77,6,,,,,,bolt,,,,,,0,30,30,9,1,1,1,,,,,,,,,,,,,,,,,,,,,,,,,,,,,,,,,,,,,,,,,,,,,,,,,,,,,,,,,,,,,,,,,,,,,,,,,,,,,,,,,,,,,,,,,,,,,,,,,,,,,,,,,,,,,
,,,,,,,,,,stimuli/images/PICTURE_491.png,RIVER,5cffb12df6c3fb00157b2f39,23/09/1954,2020-09-10_15h44.31.674,proactive3.1,2020.1.2,Win32,60,5f599a131af4471f3d752b7b,5f5a3bae8e6d030aa0f05c77,6,,,,,,rug,,,,,,0,31,31,6,1,1,1,,,,,,,,,,,,,,,,,,,,,,,,,,,,,,,,,,,,,,,,,,,,,,,,,,,,,,,,,,,,,,,,,,,,,,,,,,,,,,,,,,,,,,,,,,,,,,,,,,,,,,,,,,,,,
,,,,,,,,,,stimuli/images/PICTURE_491.png,GLASS,5cffb12df6c3fb00157b2f39,23/09/1954,2020-09-10_15h44.31.674,proactive3.1,2020.1.2,Win32,60,5f599a131af4471f3d752b7b,5f5a3bae8e6d030aa0f05c77,6,,,,,,rug,,,,,,0,32,32,14,1,2,1,,,,,,,,,,,,,,,,,,,,,,,,,,,,,,,,,,,,,,,,,,,,,,,,,,,,,,,,,,,,,,,,,,,,,,,,,,,,,,,,,,,,,,,,,,,,,,,,,,,,,,,,,,,,,
,,,,,,,,,,stimuli/images/PICTURE_208.png,SYSTEM,5cffb12df6c3fb00157b2f39,23/09/1954,2020-09-10_15h44.31.674,proactive3.1,2020.1.2,Win32,60,5f599a131af4471f3d752b7b,5f5a3bae8e6d030aa0f05c77,6,,,,,,microphone,,,,,,0,33,33,32,1,4,1,,,,,,,,,,,,,,,,,,,,,,,,,,,,,,,,,,,,,,,,,,,,,,,,,,,,,,,,,,,,,,,,,,,,,,,,,,,,,,,,,,,,,,,,,,,,,,,,,,,,,,,,,,,,,
,,,,,,,,,,stimuli/images/PICTURE_147.png,YEAR,5cffb12df6c3fb00157b2f39,23/09/1954,2020-09-10_15h44.31.674,proactive3.1,2020.1.2,Win32,60,5f599a131af4471f3d752b7b,5f5a3bae8e6d030aa0f05c77,6,,,,,,hanger,,,,,,0,34,34,21,1,3,1,,,,,,,,,,,,,,,,,,,,,,,,,,,,,,,,,,,,,,,,,,,,,,,,,,,,,,,,,,,,,,,,,,,,,,,,,,,,,,,,,,,,,,,,,,,,,,,,,,,,,,,,,,,,,
,,,,,,,,,,stimuli/images/PICTURE_403.png,WRITER,5cffb12df6c3fb00157b2f39,23/09/1954,2020-09-10_15h44.31.674,proactive3.1,2020.1.2,Win32,60,5f599a131af4471f3d752b7b,5f5a3bae8e6d030aa0f05c77,6,,,,,,cathedral,,,,,,0,35,35,31,1,4,1,,,,,,,,,,,,,,,,,,,,,,,,,,,,,,,,,,,,,,,,,,,,,,,,,,,,,,,,,,,,,,,,,,,,,,,,,,,,,,,,,,,,,,,,,,,,,,,,,,,,,,,,,,,,,
,,,,,,,,,,stimuli/images/PICTURE_467.png,POLICY,5cffb12df6c3fb00157b2f39,23/09/1954,2020-09-10_15h44.31.674,proactive3.1,2020.1.2,Win32,60,5f599a131af4471f3d752b7b,5f5a3bae8e6d030aa0f05c77,6,,,,,,peg,,,,,,0,36,36,53,1,6,1,,,,,,,,,,,,,,,,,,,,,,,,,,,,,,,,,,,,,,,,,,,,,,,,,,,,,,,,,,,,,,,,,,,,,,,,,,,,,,,,,,,,,,,,,,,,,,,,,,,,,,,,,,,,,
,,,,,,,,,,stimuli/images/PICTURE_504.png,YEAR,5cffb12df6c3fb00157b2f39,23/09/1954,2020-09-10_15h44.31.674,proactive3.1,2020.1.2,Win32,60,5f599a131af4471f3d752b7b,5f5a3bae8e6d030aa0f05c77,6,,,,,,wheel,,,,,,0,37,37,13,1,2,1,,,,,,,,,,,,,,,,,,,,,,,,,,,,,,,,,,,,,,,,,,,,,,,,,,,,,,,,,,,,,,,,,,,,,,,,,,,,,,,,,,,,,,,,,,,,,,,,,,,,,,,,,,,,,
,,,,,,,,,,stimuli/images/PICTURE_340.png,VALLEY,5cffb12df6c3fb00157b2f39,23/09/1954,2020-09-10_15h44.31.674,proactive3.1,2020.1.2,Win32,60,5f599a131af4471f3d752b7b,5f5a3bae8e6d030aa0f05c77,6,,,,,,mirror,,,,,,0,38,38,54,1,6,1,,,,,,,,,,,,,,,,,,,,,,,,,,,,,,,,,,,,,,,,,,,,,,,,,,,,,,,,,,,,,,,,,,,,,,,,,,,,,,,,,,,,,,,,,,,,,,,,,,,,,,,,,,,,,
,,,,,,,,,,stimuli/images/PICTURE_95.png,MILLER,5cffb12df6c3fb00157b2f39,23/09/1954,2020-09-10_15h44.31.674,proactive3.1,2020.1.2,Win32,60,5f599a131af4471f3d752b7b,5f5a3bae8e6d030aa0f05c77,6,,,,,,suitcase,,,,,,0,39,39,56,1,6,1,,,,,,,,,,,,,,,,,,,,,,,,,,,,,,,,,,,,,,,,,,,,,,,,,,,,,,,,,,,,,,,,,,,,,,,,,,,,,,,,,,,,,,,,,,,,,,,,,,,,,,,,,,,,,
,,,,,,,,,,stimuli/images/PICTURE_469.png,AGENT,5cffb12df6c3fb00157b2f39,23/09/1954,2020-09-10_15h44.31.674,proactive3.1,2020.1.2,Win32,60,5f599a131af4471f3d752b7b,5f5a3bae8e6d030aa0f05c77,6,,,,,,stool,,,,,,0,40,40,16,1,2,1,,,,,,,,,,,,,,,,,,,,,,,,,,,,,,,,,,,,,,,,,,,,,,,,,,,,,,,,,,,,,,,,,,,,,,,,,,,,,,,,,,,,,,,,,,,,,,,,,,,,,,,,,,,,,
,,,,,,,,,,stimuli/images/PICTURE_285.png,LIFE,5cffb12df6c3fb00157b2f39,23/09/1954,2020-09-10_15h44.31.674,proactive3.1,2020.1.2,Win32,60,5f599a131af4471f3d752b7b,5f5a3bae8e6d030aa0f05c77,6,,,,,,carrot,,,,,,0,41,41,33,1,4,1,,,,,,,,,,,,,,,,,,,,,,,,,,,,,,,,,,,,,,,,,,,,,,,,,,,,,,,,,,,,,,,,,,,,,,,,,,,,,,,,,,,,,,,,,,,,,,,,,,,,,,,,,,,,,
,,,,,,,,,,stimuli/images/PICTURE_383.png,SERIES,5cffb12df6c3fb00157b2f39,23/09/1954,2020-09-10_15h44.31.674,proactive3.1,2020.1.2,Win32,60,5f599a131af4471f3d752b7b,5f5a3bae8e6d030aa0f05c77,6,,,,,,coin,,,,,,0,42,42,46,1,5,1,,,,,,,,,,,,,,,,,,,,,,,,,,,,,,,,,,,,,,,,,,,,,,,,,,,,,,,,,,,,,,,,,,,,,,,,,,,,,,,,,,,,,,,,,,,,,,,,,,,,,,,,,,,,,
,,,,,,,,,,stimuli/images/PICTURE_32.png,KIND,5cffb12df6c3fb00157b2f39,23/09/1954,2020-09-10_15h44.31.674,proactive3.1,2020.1.2,Win32,60,5f599a131af4471f3d752b7b,5f5a3bae8e6d030aa0f05c77,6,,,,,,crown,,,,,,0,43,43,35,1,4,1,,,,,,,,,,,,,,,,,,,,,,,,,,,,,,,,,,,,,,,,,,,,,,,,,,,,,,,,,,,,,,,,,,,,,,,,,,,,,,,,,,,,,,,,,,,,,,,,,,,,,,,,,,,,,
,,,,,,,,,,stimuli/images/PICTURE_57.png,MOMENT,5cffb12df6c3fb00157b2f39,23/09/1954,2020-09-10_15h44.31.674,proactive3.1,2020.1.2,Win32,60,5f599a131af4471f3d752b7b,5f5a3bae8e6d030aa0f05c77,6,,,,,,stamp,,,,,,0,44,44,37,1,4,1,,,,,,,,,,,,,,,,,,,,,,,,,,,,,,,,,,,,,,,,,,,,,,,,,,,,,,,,,,,,,,,,,,,,,,,,,,,,,,,,,,,,,,,,,,,,,,,,,,,,,,,,,,,,,
,,,,,,,,,,stimuli/images/PICTURE_380.png,HONEY,5cffb12df6c3fb00157b2f39,23/09/1954,2020-09-10_15h44.31.674,proactive3.1,2020.1.2,Win32,60,5f599a131af4471f3d752b7b,5f5a3bae8e6d030aa0f05c77,6,,,,,,gorilla,,,,,,0,45,45,19,1,2,1,,,,,,,,,,,,,,,,,,,,,,,,,,,,,,,,,,,,,,,,,,,,,,,,,,,,,,,,,,,,,,,,,,,,,,,,,,,,,,,,,,,,,,,,,,,,,,,,,,,,,,,,,,,,,
,,,,,,,,,,stimuli/images/PICTURE_403.png,RIVER,5cffb12df6c3fb00157b2f39,23/09/1954,2020-09-10_15h44.31.674,proactive3.1,2020.1.2,Win32,60,5f599a131af4471f3d752b7b,5f5a3bae8e6d030aa0f05c77,6,,,,,,cathedral,,,,,,0,46,46,40,1,5,1,,,,,,,,,,,,,,,,,,,,,,,,,,,,,,,,,,,,,,,,,,,,,,,,,,,,,,,,,,,,,,,,,,,,,,,,,,,,,,,,,,,,,,,,,,,,,,,,,,,,,,,,,,,,,
,,,,,,,,,,stimuli/images/PICTURE_108.png,POLICY,5cffb12df6c3fb00157b2f39,23/09/1954,2020-09-10_15h44.31.674,proactive3.1,2020.1.2,Win32,60,5f599a131af4471f3d752b7b,5f5a3bae8e6d030aa0f05c77,6,,,,,,calendar,,,,,,0,47,47,22,1,3,1,,,,,,,,,,,,,,,,,,,,,,,,,,,,,,,,,,,,,,,,,,,,,,,,,,,,,,,,,,,,,,,,,,,,,,,,,,,,,,,,,,,,,,,,,,,,,,,,,,,,,,,,,,,,,
,,,,,,,,,,stimuli/images/PICTURE_405.png,YEAR,5cffb12df6c3fb00157b2f39,23/09/1954,2020-09-10_15h44.31.674,proactive3.1,2020.1.2,Win32,60,5f599a131af4471f3d752b7b,5f5a3bae8e6d030aa0f05c77,6,,,,,,anchor,,,,,,0,48,48,34,1,4,1,,,,,,,,,,,,,,,,,,,,,,,,,,,,,,,,,,,,,,,,,,,,,,,,,,,,,,,,,,,,,,,,,,,,,,,,,,,,,,,,,,,,,,,,,,,,,,,,,,,,,,,,,,,,,
,,,,,,,,,,stimuli/images/PICTURE_667.png,RIVER,5cffb12df6c3fb00157b2f39,23/09/1954,2020-09-10_15h44.31.674,proactive3.1,2020.1.2,Win32,60,5f599a131af4471f3d752b7b,5f5a3bae8e6d030aa0f05c77,6,,,,,,daisy,,,,,,0,49,49,10,1,2,1,,,,,,,,,,,,,,,,,,,,,,,,,,,,,,,,,,,,,,,,,,,,,,,,,,,,,,,,,,,,,,,,,,,,,,,,,,,,,,,,,,,,,,,,,,,,,,,,,,,,,,,,,,,,,
,,,,,,,,,,stimuli/images/PICTURE_504.png,ARTIST,5cffb12df6c3fb00157b2f39,23/09/1954,2020-09-10_15h44.31.674,proactive3.1,2020.1.2,Win32,60,5f599a131af4471f3d752b7b,5f5a3bae8e6d030aa0f05c77,6,,,,,,wheel,,,,,,0,50,50,49,1,5,1,,,,,,,,,,,,,,,,,,,,,,,,,,,,,,,,,,,,,,,,,,,,,,,,,,,,,,,,,,,,,,,,,,,,,,,,,,,,,,,,,,,,,,,,,,,,,,,,,,,,,,,,,,,,,
,,,,,,,,,,stimuli/images/PICTURE_33.png,FRIEND,5cffb12df6c3fb00157b2f39,23/09/1954,2020-09-10_15h44.31.674,proactive3.1,2020.1.2,Win32,60,5f599a131af4471f3d752b7b,5f5a3bae8e6d030aa0f05c77,6,,,,,,frame,,,,,,0,51,51,8,1,1,1,,,,,,,,,,,,,,,,,,,,,,,,,,,,,,,,,,,,,,,,,,,,,,,,,,,,,,,,,,,,,,,,,,,,,,,,,,,,,,,,,,,,,,,,,,,,,,,,,,,,,,,,,,,,,
,,,,,,,,,,stimuli/images/PICTURE_108.png,FLIGHT,5cffb12df6c3fb00157b2f39,23/09/1954,2020-09-10_15h44.31.674,proactive3.1,2020.1.2,Win32,60,5f599a131af4471f3d752b7b,5f5a3bae8e6d030aa0f05c77,6,,,,,,calendar,,,,,,0,52,52,59,1,6,1,,,,,,,,,,,,,,,,,,,,,,,,,,,,,,,,,,,,,,,,,,,,,,,,,,,,,,,,,,,,,,,,,,,,,,,,,,,,,,,,,,,,,,,,,,,,,,,,,,,,,,,,,,,,,
,,,,,,,,,,stimuli/images/PICTURE_327.png,CASINO,5cffb12df6c3fb00157b2f39,23/09/1954,2020-09-10_15h44.31.674,proactive3.1,2020.1.2,Win32,60,5f599a131af4471f3d752b7b,5f5a3bae8e6d030aa0f05c77,6,,,,,,helmet,,,,,,0,53,53,20,1,3,1,,,,,,,,,,,,,,,,,,,,,,,,,,,,,,,,,,,,,,,,,,,,,,,,,,,,,,,,,,,,,,,,,,,,,,,,,,,,,,,,,,,,,,,,,,,,,,,,,,,,,,,,,,,,,
,,,,,,,,,,stimuli/images/PICTURE_296.png,LIFE,5cffb12df6c3fb00157b2f39,23/09/1954,2020-09-10_15h44.31.674,proactive3.1,2020.1.2,Win32,60,5f599a131af4471f3d752b7b,5f5a3bae8e6d030aa0f05c77,6,,,,,,bolt,,,,,,0,54,54,57,1,6,1,,,,,,,,,,,,,,,,,,,,,,,,,,,,,,,,,,,,,,,,,,,,,,,,,,,,,,,,,,,,,,,,,,,,,,,,,,,,,,,,,,,,,,,,,,,,,,,,,,,,,,,,,,,,,
,,,,,,,,,,stimuli/images/PICTURE_42.png,BOYS,5cffb12df6c3fb00157b2f39,23/09/1954,2020-09-10_15h44.31.674,proactive3.1,2020.1.2,Win32,60,5f599a131af4471f3d752b7b,5f5a3bae8e6d030aa0f05c77,6,,,,,,pear,,,,,,0,55,55,55,1,6,1,,,,,,,,,,,,,,,,,,,,,,,,,,,,,,,,,,,,,,,,,,,,,,,,,,,,,,,,,,,,,,,,,,,,,,,,,,,,,,,,,,,,,,,,,,,,,,,,,,,,,,,,,,,,,
,,,,,,,,,,stimuli/images/PICTURE_677.png,APPLE,5cffb12df6c3fb00157b2f39,23/09/1954,2020-09-10_15h44.31.674,proactive3.1,2020.1.2,Win32,60,5f599a131af4471f3d752b7b,5f5a3bae8e6d030aa0f05c77,6,,,,,,map,,,,,,0,56,56,43,1,5,1,,,,,,,,,,,,,,,,,,,,,,,,,,,,,,,,,,,,,,,,,,,,,,,,,,,,,,,,,,,,,,,,,,,,,,,,,,,,,,,,,,,,,,,,,,,,,,,,,,,,,,,,,,,,,
,,,,,,,,,,stimuli/images/PICTURE_685.png,PENNY,5cffb12df6c3fb00157b2f39,23/09/1954,2020-09-10_15h44.31.674,proactive3.1,2020.1.2,Win32,60,5f599a131af4471f3d752b7b,5f5a3bae8e6d030aa0f05c77,6,,,,,,goose,,,,,,0,57,57,4,1,1,1,,,,,,,,,,,,,,,,,,,,,,,,,,,,,,,,,,,,,,,,,,,,,,,,,,,,,,,,,,,,,,,,,,,,,,,,,,,,,,,,,,,,,,,,,,,,,,,,,,,,,,,,,,,,,
,,,,,,,,,,stimuli/images/PICTURE_403.png,TOILET,5cffb12df6c3fb00157b2f39,23/09/1954,2020-09-10_15h44.31.674,proactive3.1,2020.1.2,Win32,60,5f599a131af4471f3d752b7b,5f5a3bae8e6d030aa0f05c77,6,,,,,,cathedral,,,,,,0,58,58,25,1,3,1,,,,,,,,,,,,,,,,,,,,,,,,,,,,,,,,,,,,,,,,,,,,,,,,,,,,,,,,,,,,,,,,,,,,,,,,,,,,,,,,,,,,,,,,,,,,,,,,,,,,,,,,,,,,,
,,?,0.0013,0,,,,,,stimuli/images/PICTURE_469.png,AGENT,5cffb12df6c3fb00157b2f39,23/09/1954,2020-09-10_15h44.31.674,proactive3.1,2020.1.2,Win32,60,5f599a131af4471f3d752b7b,5f5a3bae8e6d030aa0f05c77,6,,,,,,stool,,,,,,,,,,,2,1,0,0,0,16,1,,,,,,,,,,,,,,,,,,,,,,,,,,,,,,,,,,,,,,,,,,,,,,,,,,,,,,,,,,,,,,,,,,,,,,,,,,,,,,,,,,,,,,,,,,,,,,,,,,,,,,,,
,,KILLER,4.987445,0,,,,,,stimuli/images/PICTURE_296.png,LIFE,5cffb12df6c3fb00157b2f39,23/09/1954,2020-09-10_15h44.31.674,proactive3.1,2020.1.2,Win32,60,5f599a131af4471f3d752b7b,5f5a3bae8e6d030aa0f05c77,6,,,,,,bolt,,,,,,,,,,,6,1,0,1,1,57,1,,,,,,,,,,,,,,,,,,,,,,,,,,,,,,,,,,,,,,,,,,,,,,,,,,,,,,,,,,,,,,,,,,,,,,,,,,,,,,,,,,,,,,,,,,,,,,,,,,,,,,,,
,,?,15.00342,0,,,,,,stimuli/images/PICTURE_708.png,RECORD,5cffb12df6c3fb00157b2f39,23/09/1954,2020-09-10_15h44.31.674,proactive3.1,2020.1.2,Win32,60,5f599a131af4471f3d752b7b,5f5a3bae8e6d030aa0f05c77,6,,,,,,monkey,,,,,,,,,,,6,1,0,2,2,58,1,,,,,,,,,,,,,,,,,,,,,,,,,,,,,,,,,,,,,,,,,,,,,,,,,,,,,,,,,,,,,,,,,,,,,,,,,,,,,,,,,,,,,,,,,,,,,,,,,,,,,,,,
,,?,0.00119,0,,,,,,stimuli/images/PICTURE_203.png,NIGHT,5cffb12df6c3fb00157b2f39,23/09/1954,2020-09-10_15h44.31.674,proactive3.1,2020.1.2,Win32,60,5f599a131af4471f3d752b7b,5f5a3bae8e6d030aa0f05c77,6,,,,,,cap,,,,,,,,,,,1,1,0,3,3,2,1,,,,,,,,,,,,,,,,,,,,,,,,,,,,,,,,,,,,,,,,,,,,,,,,,,,,,,,,,,,,,,,,,,,,,,,,,,,,,,,,,,,,,,,,,,,,,,,,,,,,,,,,
,,?,0.000785,0,,,,,,stimuli/images/PICTURE_296.png,LOTS,5cffb12df6c3fb00157b2f39,23/09/1954,2020-09-10_15h44.31.674,proactive3.1,2020.1.2,Win32,60,5f599a131af4471f3d752b7b,5f5a3bae8e6d030aa0f05c77,6,,,,,,bolt,,,,,,,,,,,1,1,0,4,4,9,1,,,,,,,,,,,,,,,,,,,,,,,,,,,,,,,,,,,,,,,,,,,,,,,,,,,,,,,,,,,,,,,,,,,,,,,,,,,,,,,,,,,,,,,,,,,,,,,,,,,,,,,,
,,?,0.000785,0,,,,,,stimuli/images/PICTURE_449.png,DUDE,5cffb12df6c3fb00157b2f39,23/09/1954,2020-09-10_15h44.31.674,proactive3.1,2020.1.2,Win32,60,5f599a131af4471f3d752b7b,5f5a3bae8e6d030aa0f05c77,6,,,,,,bench,,,,,,,,,,,2,1,0,5,5,17,1,,,,,,,,,,,,,,,,,,,,,,,,,,,,,,,,,,,,,,,,,,,,,,,,,,,,,,,,,,,,,,,,,,,,,,,,,,,,,,,,,,,,,,,,,,,,,,,,,,,,,,,,
,,?,0.000925,0,,,,,,stimuli/images/PICTURE_208.png,SYSTEM,5cffb12df6c3fb00157b2f39,23/09/1954,2020-09-10_15h44.31.674,proactive3.1,2020.1.2,Win32,60,5f599a131af4471f3d752b7b,5f5a3bae8e6d030aa0f05c77,6,,,,,,microphone,,,,,,,,,,,4,1,0,6,6,32,1,,,,,,,,,,,,,,,,,,,,,,,,,,,,,,,,,,,,,,,,,,,,,,,,,,,,,,,,,,,,,,,,,,,,,,,,,,,,,,,,,,,,,,,,,,,,,,,,,,,,,,,,
,,?,0.000805,0,,,,,,stimuli/images/PICTURE_147.png,WOMEN,5cffb12df6c3fb00157b2f39,23/09/1954,2020-09-10_15h44.31.674,proactive3.1,2020.1.2,Win32,60,5f599a131af4471f3d752b7b,5f5a3bae8e6d030aa0f05c77,6,,,,,,hanger,,,,,,,,,,,1,1,0,7,7,7,1,,,,,,,,,,,,,,,,,,,,,,,,,,,,,,,,,,,,,,,,,,,,,,,,,,,,,,,,,,,,,,,,,,,,,,,,,,,,,,,,,,,,,,,,,,,,,,,,,,,,,,,,
,,?,0.000755,0,,,,,,stimuli/images/PICTURE_285.png,LIFE,5cffb12df6c3fb00157b2f39,23/09/1954,2020-09-10_15h44.31.674,proactive3.1,2020.1.2,Win32,60,5f599a131af4471f3d752b7b,5f5a3bae8e6d030aa0f05c77,6,,,,,,carrot,,,,,,,,,,,4,1,0,8,8,33,1,,,,,,,,,,,,,,,,,,,,,,,,,,,,,,,,,,,,,,,,,,,,,,,,,,,,,,,,,,,,,,,,,,,,,,,,,,,,,,,,,,,,,,,,,,,,,,,,,,,,,,,,
,,?,0.00077,0,,,,,,stimuli/images/PICTURE_2.png,FLIGHT,5cffb12df6c3fb00157b2f39,23/09/1954,2020-09-10_15h44.31.674,proactive3.1,2020.1.2,Win32,60,5f599a131af4471f3d752b7b,5f5a3bae8e6d030aa0f05c77,6,,,,,,tyre,,,,,,,,,,,2,1,0,9,9,15,1,,,,,,,,,,,,,,,,,,,,,,,,,,,,,,,,,,,,,,,,,,,,,,,,,,,,,,,,,,,,,,,,,,,,,,,,,,,,,,,,,,,,,,,,,,,,,,,,,,,,,,,,
,,MILE,4.799405,1,,,,,,stimuli/images/PICTURE_68.png,MILE,5cffb12df6c3fb00157b2f39,23/09/1954,2020-09-10_15h44.31.674,proactive3.1,2020.1.2,Win32,60,5f599a131af4471f3d752b7b,5f5a3bae8e6d030aa0f05c77,6,,,,,,candle,,,,,,,,,,,6,1,0,10,10,51,1,,,,,,,,,,,,,,,,,,,,,,,,,,,,,,,,,,,,,,,,,,,,,,,,,,,,,,,,,,,,,,,,,,,,,,,,,,,,,,,,,,,,,,,,,,,,,,,,,,,,,,,,
,,?,0.001195,0,,,,,,stimuli/images/PICTURE_504.png,YEAR,5cffb12df6c3fb00157b2f39,23/09/1954,2020-09-10_15h44.31.674,proactive3.1,2020.1.2,Win32,60,5f599a131af4471f3d752b7b,5f5a3bae8e6d030aa0f05c77,6,,,,,,wheel,,,,,,,,,,,2,1,0,11,11,13,1,,,,,,,,,,,,,,,,,,,,,,,,,,,,,,,,,,,,,,,,,,,,,,,,,,,,,,,,,,,,,,,,,,,,,,,,,,,,,,,,,,,,,,,,,,,,,,,,,,,,,,,,
,,?,0.000795,0,,,,,,stimuli/images/PICTURE_327.png,SERIES,5cffb12df6c3fb00157b2f39,23/09/1954,2020-09-10_15h44.31.674,proactive3.1,2020.1.2,Win32,60,5f599a131af4471f3d752b7b,5f5a3bae8e6d030aa0f05c77,6,,,,,,helmet,,,,,,,,,,,1,1,0,12,12,3,1,,,,,,,,,,,,,,,,,,,,,,,,,,,,,,,,,,,,,,,,,,,,,,,,,,,,,,,,,,,,,,,,,,,,,,,,,,,,,,,,,,,,,,,,,,,,,,,,,,,,,,,,
,,?,0.000845,0,,,,,,stimuli/images/PICTURE_380.png,CANDY,5cffb12df6c3fb00157b2f39,23/09/1954,2020-09-10_15h44.31.674,proactive3.1,2020.1.2,Win32,60,5f599a131af4471f3d752b7b,5f5a3bae8e6d030aa0f05c77,6,,,,,,gorilla,,,,,,,,,,,1,1,0,13,13,0,1,,,,,,,,,,,,,,,,,,,,,,,,,,,,,,,,,,,,,,,,,,,,,,,,,,,,,,,,,,,,,,,,,,,,,,,,,,,,,,,,,,,,,,,,,,,,,,,,,,,,,,,,
,,?,0.00123,0,,,,,,stimuli/images/PICTURE_383.png,SERIES,5cffb12df6c3fb00157b2f39,23/09/1954,2020-09-10_15h44.31.674,proactive3.1,2020.1.2,Win32,60,5f599a131af4471f3d752b7b,5f5a3bae8e6d030aa0f05c77,6,,,,,,coin,,,,,,,,,,,5,1,0,14,14,46,1,,,,,,,,,,,,,,,,,,,,,,,,,,,,,,,,,,,,,,,,,,,,,,,,,,,,,,,,,,,,,,,,,,,,,,,,,,,,,,,,,,,,,,,,,,,,,,,,,,,,,,,,
,,?,0.00076,0,,,,,,stimuli/images/PICTURE_403.png,WRITER,5cffb12df6c3fb00157b2f39,23/09/1954,2020-09-10_15h44.31.674,proactive3.1,2020.1.2,Win32,60,5f599a131af4471f3d752b7b,5f5a3bae8e6d030aa0f05c77,6,,,,,,cathedral,,,,,,,,,,,4,1,0,15,15,31,1,,,,,,,,,,,,,,,,,,,,,,,,,,,,,,,,,,,,,,,,,,,,,,,,,,,,,,,,,,,,,,,,,,,,,,,,,,,,,,,,,,,,,,,,,,,,,,,,,,,,,,,,
,,?,0.00085,0,,,,,,stimuli/images/PICTURE_677.png,APPLE,5cffb12df6c3fb00157b2f39,23/09/1954,2020-09-10_15h44.31.674,proactive3.1,2020.1.2,Win32,60,5f599a131af4471f3d752b7b,5f5a3bae8e6d030aa0f05c77,6,,,,,,map,,,,,,,,,,,5,1,0,16,16,43,1,,,,,,,,,,,,,,,,,,,,,,,,,,,,,,,,,,,,,,,,,,,,,,,,,,,,,,,,,,,,,,,,,,,,,,,,,,,,,,,,,,,,,,,,,,,,,,,,,,,,,,,,
,,?,0.001075,0,,,,,,stimuli/images/PICTURE_32.png,PILLS,5cffb12df6c3fb00157b2f39,23/09/1954,2020-09-10_15h44.31.674,proactive3.1,2020.1.2,Win32,60,5f599a131af4471f3d752b7b,5f5a3bae8e6d030aa0f05c77,6,,,,,,crown,,,,,,,,,,,2,1,0,17,17,18,1,,,,,,,,,,,,,,,,,,,,,,,,,,,,,,,,,,,,,,,,,,,,,,,,,,,,,,,,,,,,,,,,,,,,,,,,,,,,,,,,,,,,,,,,,,,,,,,,,,,,,,,,
,,AIRPLANE,9.832755,0,,,,,,stimuli/images/PICTURE_108.png,FLIGHT,5cffb12df6c3fb00157b2f39,23/09/1954,2020-09-10_15h44.31.674,proactive3.1,2020.1.2,Win32,60,5f599a131af4471f3d752b7b,5f5a3bae8e6d030aa0f05c77,6,,,,,,calendar,,,,,,,,,,,6,1,0,18,18,59,1,,,,,,,,,,,,,,,,,,,,,,,,,,,,,,,,,,,,,,,,,,,,,,,,,,,,,,,,,,,,,,,,,,,,,,,,,,,,,,,,,,,,,,,,,,,,,,,,,,,,,,,,
,,?,0.0015,0,,,,,,stimuli/images/PICTURE_108.png,POLICY,5cffb12df6c3fb00157b2f39,23/09/1954,2020-09-10_15h44.31.674,proactive3.1,2020.1.2,Win32,60,5f599a131af4471f3d752b7b,5f5a3bae8e6d030aa0f05c77,6,,,,,,calendar,,,,,,,,,,,3,1,0,19,19,22,1,,,,,,,,,,,,,,,,,,,,,,,,,,,,,,,,,,,,,,,,,,,,,,,,,,,,,,,,,,,,,,,,,,,,,,,,,,,,,,,,,,,,,,,,,,,,,,,,,,,,,,,,
,,?,0.00077,0,,,,,,stimuli/images/PICTURE_654.png,MONTH,5cffb12df6c3fb00157b2f39,23/09/1954,2020-09-10_15h44.31.674,proactive3.1,2020.1.2,Win32,60,5f599a131af4471f3d752b7b,5f5a3bae8e6d030aa0f05c77,6,,,,,,pencil,,,,,,,,,,,3,1,0,20,20,29,1,,,,,,,,,,,,,,,,,,,,,,,,,,,,,,,,,,,,,,,,,,,,,,,,,,,,,,,,,,,,,,,,,,,,,,,,,,,,,,,,,,,,,,,,,,,,,,,,,,,,,,,,
,,?,0.00137,0,,,,,,stimuli/images/PICTURE_95.png,HONEY,5cffb12df6c3fb00157b2f39,23/09/1954,2020-09-10_15h44.31.674,proactive3.1,2020.1.2,Win32,60,5f599a131af4471f3d752b7b,5f5a3bae8e6d030aa0f05c77,6,,,,,,suitcase,,,,,,,,,,,5,1,0,21,21,44,1,,,,,,,,,,,,,,,,,,,,,,,,,,,,,,,,,,,,,,,,,,,,,,,,,,,,,,,,,,,,,,,,,,,,,,,,,,,,,,,,,,,,,,,,,,,,,,,,,,,,,,,,
,,?,0.00096,0,,,,,,stimuli/images/PICTURE_504.png,ARTIST,5cffb12df6c3fb00157b2f39,23/09/1954,2020-09-10_15h44.31.674,proactive3.1,2020.1.2,Win32,60,5f599a131af4471f3d752b7b,5f5a3bae8e6d030aa0f05c77,6,,,,,,wheel,,,,,,,,,,,5,1,0,22,22,49,1,,,,,,,,,,,,,,,,,,,,,,,,,,,,,,,,,,,,,,,,,,,,,,,,,,,,,,,,,,,,,,,,,,,,,,,,,,,,,,,,,,,,,,,,,,,,,,,,,,,,,,,,
,,?,0.00082,0,,,,,,stimuli/images/PICTURE_85.png,NATION,5cffb12df6c3fb00157b2f39,23/09/1954,2020-09-10_15h44.31.674,proactive3.1,2020.1.2,Win32,60,5f599a131af4471f3d752b7b,5f5a3bae8e6d030aa0f05c77,6,,,,,,diamond,,,,,,,,,,,1,1,0,23,23,5,1,,,,,,,,,,,,,,,,,,,,,,,,,,,,,,,,,,,,,,,,,,,,,,,,,,,,,,,,,,,,,,,,,,,,,,,,,,,,,,,,,,,,,,,,,,,,,,,,,,,,,,,,
,,?,0.000795,0,,,,,,stimuli/images/PICTURE_297.png,RIVER,5cffb12df6c3fb00157b2f39,23/09/1954,2020-09-10_15h44.31.674,proactive3.1,2020.1.2,Win32,60,5f599a131af4471f3d752b7b,5f5a3bae8e6d030aa0f05c77,6,,,,,,aeroplane,,,,,,,,,,,4,1,0,24,24,39,1,,,,,,,,,,,,,,,,,,,,,,,,,,,,,,,,,,,,,,,,,,,,,,,,,,,,,,,,,,,,,,,,,,,,,,,,,,,,,,,,,,,,,,,,,,,,,,,,,,,,,,,,
,,?,0.00085,0,,,,,,stimuli/images/PICTURE_233.png,LOTS,5cffb12df6c3fb00157b2f39,23/09/1954,2020-09-10_15h44.31.674,proactive3.1,2020.1.2,Win32,60,5f599a131af4471f3d752b7b,5f5a3bae8e6d030aa0f05c77,6,,,,,,salt,,,,,,,,,,,5,1,0,25,25,42,1,,,,,,,,,,,,,,,,,,,,,,,,,,,,,,,,,,,,,,,,,,,,,,,,,,,,,,,,,,,,,,,,,,,,,,,,,,,,,,,,,,,,,,,,,,,,,,,,,,,,,,,,
,,?,0.000815,0,,,,,,stimuli/images/PICTURE_675.png,SALE,5cffb12df6c3fb00157b2f39,23/09/1954,2020-09-10_15h44.31.674,proactive3.1,2020.1.2,Win32,60,5f599a131af4471f3d752b7b,5f5a3bae8e6d030aa0f05c77,6,,,,,,windmill,,,,,,,,,,,5,1,0,26,26,47,1,,,,,,,,,,,,,,,,,,,,,,,,,,,,,,,,,,,,,,,,,,,,,,,,,,,,,,,,,,,,,,,,,,,,,,,,,,,,,,,,,,,,,,,,,,,,,,,,,,,,,,,,
,,?,0.0008,0,,,,,,stimuli/images/PICTURE_33.png,FRIEND,5cffb12df6c3fb00157b2f39,23/09/1954,2020-09-10_15h44.31.674,proactive3.1,2020.1.2,Win32,60,5f599a131af4471f3d752b7b,5f5a3bae8e6d030aa0f05c77,6,,,,,,frame,,,,,,,,,,,1,1,0,27,27,8,1,,,,,,,,,,,,,,,,,,,,,,,,,,,,,,,,,,,,,,,,,,,,,,,,,,,,,,,,,,,,,,,,,,,,,,,,,,,,,,,,,,,,,,,,,,,,,,,,,,,,,,,,
,,VALLEY,5.880995,1,,,,,,stimuli/images/PICTURE_340.png,VALLEY,5cffb12df6c3fb00157b2f39,23/09/1954,2020-09-10_15h44.31.674,proactive3.1,2020.1.2,Win32,60,5f599a131af4471f3d752b7b,5f5a3bae8e6d030aa0f05c77,6,,,,,,mirror,,,,,,,,,,,6,1,0,28,28,54,1,,,,,,,,,,,,,,,,,,,,,,,,,,,,,,,,,,,,,,,,,,,,,,,,,,,,,,,,,,,,,,,,,,,,,,,,,,,,,,,,,,,,,,,,,,,,,,,,,,,,,,,,
,,?,0.001245,0,,,,,,stimuli/images/PICTURE_308.png,FAMILY,5cffb12df6c3fb00157b2f39,23/09/1954,2020-09-10_15h44.31.674,proactive3.1,2020.1.2,Win32,60,5f599a131af4471f3d752b7b,5f5a3bae8e6d030aa0f05c77,6,,,,,,dice,,,,,,,,,,,4,1,0,29,29,36,1,,,,,,,,,,,,,,,,,,,,,,,,,,,,,,,,,,,,,,,,,,,,,,,,,,,,,,,,,,,,,,,,,,,,,,,,,,,,,,,,,,,,,,,,,,,,,,,,,,,,,,,,
,,BOY,3.29139,0,,,,,,stimuli/images/PICTURE_42.png,BOYS,5cffb12df6c3fb00157b2f39,23/09/1954,2020-09-10_15h44.31.674,proactive3.1,2020.1.2,Win32,60,5f599a131af4471f3d752b7b,5f5a3bae8e6d030aa0f05c77,6,,,,,,pear,,,,,,,,,,,6,1,0,30,30,55,1,,,,,,,,,,,,,,,,,,,,,,,,,,,,,,,,,,,,,,,,,,,,,,,,,,,,,,,,,,,,,,,,,,,,,,,,,,,,,,,,,,,,,,,,,,,,,,,,,,,,,,,,
,,?,0.0014,0,,,,,,stimuli/images/PICTURE_380.png,HONEY,5cffb12df6c3fb00157b2f39,23/09/1954,2020-09-10_15h44.31.674,proactive3.1,2020.1.2,Win32,60,5f599a131af4471f3d752b7b,5f5a3bae8e6d030aa0f05c77,6,,,,,,gorilla,,,,,,,,,,,2,1,0,31,31,19,1,,,,,,,,,,,,,,,,,,,,,,,,,,,,,,,,,,,,,,,,,,,,,,,,,,,,,,,,,,,,,,,,,,,,,,,,,,,,,,,,,,,,,,,,,,,,,,,,,,,,,,,,
,,?,0.00086,0,,,,,,stimuli/images/PICTURE_339.png,CLIENT,5cffb12df6c3fb00157b2f39,23/09/1954,2020-09-10_15h44.31.674,proactive3.1,2020.1.2,Win32,60,5f599a131af4471f3d752b7b,5f5a3bae8e6d030aa0f05c77,6,,,,,,backpack,,,,,,,,,,,2,1,0,32,32,11,1,,,,,,,,,,,,,,,,,,,,,,,,,,,,,,,,,,,,,,,,,,,,,,,,,,,,,,,,,,,,,,,,,,,,,,,,,,,,,,,,,,,,,,,,,,,,,,,,,,,,,,,,
,,?,0.00088,0,,,,,,stimuli/images/PICTURE_95.png,BOYS,5cffb12df6c3fb00157b2f39,23/09/1954,2020-09-10_15h44.31.674,proactive3.1,2020.1.2,Win32,60,5f599a131af4471f3d752b7b,5f5a3bae8e6d030aa0f05c77,6,,,,,,suitcase,,,,,,,,,,,1,1,0,33,33,1,1,,,,,,,,,,,,,,,,,,,,,,,,,,,,,,,,,,,,,,,,,,,,,,,,,,,,,,,,,,,,,,,,,,,,,,,,,,,,,,,,,,,,,,,,,,,,,,,,,,,,,,,,
,,?,0.00118,0,,,,,,stimuli/images/PICTURE_68.png,ROOF,5cffb12df6c3fb00157b2f39,23/09/1954,2020-09-10_15h44.31.674,proactive3.1,2020.1.2,Win32,60,5f599a131af4471f3d752b7b,5f5a3bae8e6d030aa0f05c77,6,,,,,,candle,,,,,,,,,,,4,1,0,34,34,38,1,,,,,,,,,,,,,,,,,,,,,,,,,,,,,,,,,,,,,,,,,,,,,,,,,,,,,,,,,,,,,,,,,,,,,,,,,,,,,,,,,,,,,,,,,,,,,,,,,,,,,,,,
,,?,0.00105,0,,,,,,stimuli/images/PICTURE_383.png,WRITER,5cffb12df6c3fb00157b2f39,23/09/1954,2020-09-10_15h44.31.674,proactive3.1,2020.1.2,Win32,60,5f599a131af4471f3d752b7b,5f5a3bae8e6d030aa0f05c77,6,,,,,,coin,,,,,,,,,,,3,1,0,35,35,28,1,,,,,,,,,,,,,,,,,,,,,,,,,,,,,,,,,,,,,,,,,,,,,,,,,,,,,,,,,,,,,,,,,,,,,,,,,,,,,,,,,,,,,,,,,,,,,,,,,,,,,,,,
,,?,0.00114,0,,,,,,stimuli/images/PICTURE_491.png,RIVER,5cffb12df6c3fb00157b2f39,23/09/1954,2020-09-10_15h44.31.674,proactive3.1,2020.1.2,Win32,60,5f599a131af4471f3d752b7b,5f5a3bae8e6d030aa0f05c77,6,,,,,,rug,,,,,,,,,,,1,1,0,36,36,6,1,,,,,,,,,,,,,,,,,,,,,,,,,,,,,,,,,,,,,,,,,,,,,,,,,,,,,,,,,,,,,,,,,,,,,,,,,,,,,,,,,,,,,,,,,,,,,,,,,,,,,,,,
,,?,15.023875,0,,,,,,stimuli/images/PICTURE_467.png,POLICY,5cffb12df6c3fb00157b2f39,23/09/1954,2020-09-10_15h44.31.674,proactive3.1,2020.1.2,Win32,60,5f599a131af4471f3d752b7b,5f5a3bae8e6d030aa0f05c77,6,,,,,,peg,,,,,,,,,,,6,1,0,37,37,53,1,,,,,,,,,,,,,,,,,,,,,,,,,,,,,,,,,,,,,,,,,,,,,,,,,,,,,,,,,,,,,,,,,,,,,,,,,,,,,,,,,,,,,,,,,,,,,,,,,,,,,,,,
,,?,0.001215,0,,,,,,stimuli/images/PICTURE_177.png,WRITER,5cffb12df6c3fb00157b2f39,23/09/1954,2020-09-10_15h44.31.674,proactive3.1,2020.1.2,Win32,60,5f599a131af4471f3d752b7b,5f5a3bae8e6d030aa0f05c77,6,,,,,,mushroom,,,,,,,,,,,5,1,0,38,38,41,1,,,,,,,,,,,,,,,,,,,,,,,,,,,,,,,,,,,,,,,,,,,,,,,,,,,,,,,,,,,,,,,,,,,,,,,,,,,,,,,,,,,,,,,,,,,,,,,,,,,,,,,,
,,?,0.000735,0,,,,,,stimuli/images/PICTURE_667.png,RIVER,5cffb12df6c3fb00157b2f39,23/09/1954,2020-09-10_15h44.31.674,proactive3.1,2020.1.2,Win32,60,5f599a131af4471f3d752b7b,5f5a3bae8e6d030aa0f05c77,6,,,,,,daisy,,,,,,,,,,,2,1,0,39,39,10,1,,,,,,,,,,,,,,,,,,,,,,,,,,,,,,,,,,,,,,,,,,,,,,,,,,,,,,,,,,,,,,,,,,,,,,,,,,,,,,,,,,,,,,,,,,,,,,,,,,,,,,,,
,,?,0.000785,0,,,,,,stimuli/images/PICTURE_405.png,YEAR,5cffb12df6c3fb00157b2f39,23/09/1954,2020-09-10_15h44.31.674,proactive3.1,2020.1.2,Win32,60,5f599a131af4471f3d752b7b,5f5a3bae8e6d030aa0f05c77,6,,,,,,anchor,,,,,,,,,,,4,1,0,40,40,34,1,,,,,,,,,,,,,,,,,,,,,,,,,,,,,,,,,,,,,,,,,,,,,,,,,,,,,,,,,,,,,,,,,,,,,,,,,,,,,,,,,,,,,,,,,,,,,,,,,,,,,,,,
,,?,0.00121,0,,,,,,stimuli/images/PICTURE_685.png,PENNY,5cffb12df6c3fb00157b2f39,23/09/1954,2020-09-10_15h44.31.674,proactive3.1,2020.1.2,Win32,60,5f599a131af4471f3d752b7b,5f5a3bae8e6d030aa0f05c77,6,,,,,,goose,,,,,,,,,,,1,1,0,41,41,4,1,,,,,,,,,,,,,,,,,,,,,,,,,,,,,,,,,,,,,,,,,,,,,,,,,,,,,,,,,,,,,,,,,,,,,,,,,,,,,,,,,,,,,,,,,,,,,,,,,,,,,,,,
,,?,0.001305,0,,,,,,stimuli/images/PICTURE_487.png,GIRL,5cffb12df6c3fb00157b2f39,23/09/1954,2020-09-10_15h44.31.674,proactive3.1,2020.1.2,Win32,60,5f599a131af4471f3d752b7b,5f5a3bae8e6d030aa0f05c77,6,,,,,,basket,,,,,,,,,,,5,1,0,42,42,45,1,,,,,,,,,,,,,,,,,,,,,,,,,,,,,,,,,,,,,,,,,,,,,,,,,,,,,,,,,,,,,,,,,,,,,,,,,,,,,,,,,,,,,,,,,,,,,,,,,,,,,,,,
,,?,0.000925,0,,,,,,stimuli/images/PICTURE_564.png,BATH,5cffb12df6c3fb00157b2f39,23/09/1954,2020-09-10_15h44.31.674,proactive3.1,2020.1.2,Win32,60,5f599a131af4471f3d752b7b,5f5a3bae8e6d030aa0f05c77,6,,,,,,spoon,,,,,,,,,,,3,1,0,43,43,26,1,,,,,,,,,,,,,,,,,,,,,,,,,,,,,,,,,,,,,,,,,,,,,,,,,,,,,,,,,,,,,,,,,,,,,,,,,,,,,,,,,,,,,,,,,,,,,,,,,,,,,,,,
,,?,0.000775,0,,,,,,stimuli/images/PICTURE_327.png,CASINO,5cffb12df6c3fb00157b2f39,23/09/1954,2020-09-10_15h44.31.674,proactive3.1,2020.1.2,Win32,60,5f599a131af4471f3d752b7b,5f5a3bae8e6d030aa0f05c77,6,,,,,,helmet,,,,,,,,,,,3,1,0,44,44,20,1,,,,,,,,,,,,,,,,,,,,,,,,,,,,,,,,,,,,,,,,,,,,,,,,,,,,,,,,,,,,,,,,,,,,,,,,,,,,,,,,,,,,,,,,,,,,,,,,,,,,,,,,
,,?,0.000975,0,,,,,,stimuli/images/PICTURE_405.png,PLENTY,5cffb12df6c3fb00157b2f39,23/09/1954,2020-09-10_15h44.31.674,proactive3.1,2020.1.2,Win32,60,5f599a131af4471f3d752b7b,5f5a3bae8e6d030aa0f05c77,6,,,,,,anchor,,,,,,,,,,,3,1,0,45,45,23,1,,,,,,,,,,,,,,,,,,,,,,,,,,,,,,,,,,,,,,,,,,,,,,,,,,,,,,,,,,,,,,,,,,,,,,,,,,,,,,,,,,,,,,,,,,,,,,,,,,,,,,,,
,,?,8.574015,0,,,,,,stimuli/images/PICTURE_95.png,MILLER,5cffb12df6c3fb00157b2f39,23/09/1954,2020-09-10_15h44.31.674,proactive3.1,2020.1.2,Win32,60,5f599a131af4471f3d752b7b,5f5a3bae8e6d030aa0f05c77,6,,,,,,suitcase,,,,,,,,,,,6,1,0,46,46,56,1,,,,,,,,,,,,,,,,,,,,,,,,,,,,,,,,,,,,,,,,,,,,,,,,,,,,,,,,,,,,,,,,,,,,,,,,,,,,,,,,,,,,,,,,,,,,,,,,,,,,,,,,
,,?,0.0011,0,,,,,,stimuli/images/PICTURE_403.png,RIVER,5cffb12df6c3fb00157b2f39,23/09/1954,2020-09-10_15h44.31.674,proactive3.1,2020.1.2,Win32,60,5f599a131af4471f3d752b7b,5f5a3bae8e6d030aa0f05c77,6,,,,,,cathedral,,,,,,,,,,,5,1,0,47,47,40,1,,,,,,,,,,,,,,,,,,,,,,,,,,,,,,,,,,,,,,,,,,,,,,,,,,,,,,,,,,,,,,,,,,,,,,,,,,,,,,,,,,,,,,,,,,,,,,,,,,,,,,,,
,,?,0.0009,0,,,,,,stimuli/images/PICTURE_403.png,TOILET,5cffb12df6c3fb00157b2f39,23/09/1954,2020-09-10_15h44.31.674,proactive3.1,2020.1.2,Win32,60,5f599a131af4471f3d752b7b,5f5a3bae8e6d030aa0f05c77,6,,,,,,cathedral,,,,,,,,,,,3,1,0,48,48,25,1,,,,,,,,,,,,,,,,,,,,,,,,,,,,,,,,,,,,,,,,,,,,,,,,,,,,,,,,,,,,,,,,,,,,,,,,,,,,,,,,,,,,,,,,,,,,,,,,,,,,,,,,
,,WIZARD,7.6033,0,,,,,,stimuli/images/PICTURE_744.png,WEAPON,5cffb12df6c3fb00157b2f39,23/09/1954,2020-09-10_15h44.31.674,proactive3.1,2020.1.2,Win32,60,5f599a131af4471f3d752b7b,5f5a3bae8e6d030aa0f05c77,6,,,,,,ring,,,,,,,,,,,6,1,0,49,49,50,1,,,,,,,,,,,,,,,,,,,,,,,,,,,,,,,,,,,,,,,,,,,,,,,,,,,,,,,,,,,,,,,,,,,,,,,,,,,,,,,,,,,,,,,,,,,,,,,,,,,,,,,,
,,?,0.001265,0,,,,,,stimuli/images/PICTURE_32.png,KIND,5cffb12df6c3fb00157b2f39,23/09/1954,2020-09-10_15h44.31.674,proactive3.1,2020.1.2,Win32,60,5f599a131af4471f3d752b7b,5f5a3bae8e6d030aa0f05c77,6,,,,,,crown,,,,,,,,,,,4,1,0,50,50,35,1,,,,,,,,,,,,,,,,,,,,,,,,,,,,,,,,,,,,,,,,,,,,,,,,,,,,,,,,,,,,,,,,,,,,,,,,,,,,,,,,,,,,,,,,,,,,,,,,,,,,,,,,
,,?,0.00088,0,,,,,,stimuli/images/PICTURE_203.png,GODS,5cffb12df6c3fb00157b2f39,23/09/1954,2020-09-10_15h44.31.674,proactive3.1,2020.1.2,Win32,60,5f599a131af4471f3d752b7b,5f5a3bae8e6d030aa0f05c77,6,,,,,,cap,,,,,,,,,,,4,1,0,51,51,30,1,,,,,,,,,,,,,,,,,,,,,,,,,,,,,,,,,,,,,,,,,,,,,,,,,,,,,,,,,,,,,,,,,,,,,,,,,,,,,,,,,,,,,,,,,,,,,,,,,,,,,,,,
,,?,0.00074,0,,,,,,stimuli/images/PICTURE_340.png,LETTER,5cffb12df6c3fb00157b2f39,23/09/1954,2020-09-10_15h44.31.674,proactive3.1,2020.1.2,Win32,60,5f599a131af4471f3d752b7b,5f5a3bae8e6d030aa0f05c77,6,,,,,,mirror,,,,,,,,,,,3,1,0,52,52,24,1,,,,,,,,,,,,,,,,,,,,,,,,,,,,,,,,,,,,,,,,,,,,,,,,,,,,,,,,,,,,,,,,,,,,,,,,,,,,,,,,,,,,,,,,,,,,,,,,,,,,,,,,
,,?,0.000705,0,,,,,,stimuli/images/PICTURE_85.png,TOILET,5cffb12df6c3fb00157b2f39,23/09/1954,2020-09-10_15h44.31.674,proactive3.1,2020.1.2,Win32,60,5f599a131af4471f3d752b7b,5f5a3bae8e6d030aa0f05c77,6,,,,,,diamond,,,,,,,,,,,5,1,0,53,53,48,1,,,,,,,,,,,,,,,,,,,,,,,,,,,,,,,,,,,,,,,,,,,,,,,,,,,,,,,,,,,,,,,,,,,,,,,,,,,,,,,,,,,,,,,,,,,,,,,,,,,,,,,,
,,?,0.000745,0,,,,,,stimuli/images/PICTURE_57.png,MOMENT,5cffb12df6c3fb00157b2f39,23/09/1954,2020-09-10_15h44.31.674,proactive3.1,2020.1.2,Win32,60,5f599a131af4471f3d752b7b,5f5a3bae8e6d030aa0f05c77,6,,,,,,stamp,,,,,,,,,,,4,1,0,54,54,37,1,,,,,,,,,,,,,,,,,,,,,,,,,,,,,,,,,,,,,,,,,,,,,,,,,,,,,,,,,,,,,,,,,,,,,,,,,,,,,,,,,,,,,,,,,,,,,,,,,,,,,,,,
,,?,0.000705,0,,,,,,stimuli/images/PICTURE_147.png,YEAR,5cffb12df6c3fb00157b2f39,23/09/1954,2020-09-10_15h44.31.674,proactive3.1,2020.1.2,Win32,60,5f599a131af4471f3d752b7b,5f5a3bae8e6d030aa0f05c77,6,,,,,,hanger,,,,,,,,,,,3,1,0,55,55,21,1,,,,,,,,,,,,,,,,,,,,,,,,,,,,,,,,,,,,,,,,,,,,,,,,,,,,,,,,,,,,,,,,,,,,,,,,,,,,,,,,,,,,,,,,,,,,,,,,,,,,,,,,
,,CASE,10.767245,0,,,,,,stimuli/images/PICTURE_504.png,COPS,5cffb12df6c3fb00157b2f39,23/09/1954,2020-09-10_15h44.31.674,proactive3.1,2020.1.2,Win32,60,5f599a131af4471f3d752b7b,5f5a3bae8e6d030aa0f05c77,6,,,,,,wheel,,,,,,,,,,,6,1,0,56,56,52,1,,,,,,,,,,,,,,,,,,,,,,,,,,,,,,,,,,,,,,,,,,,,,,,,,,,,,,,,,,,,,,,,,,,,,,,,,,,,,,,,,,,,,,,,,,,,,,,,,,,,,,,,
,,?,0.001465,0,,,,,,stimuli/images/PICTURE_750.png,HOTEL,5cffb12df6c3fb00157b2f39,23/09/1954,2020-09-10_15h44.31.674,proactive3.1,2020.1.2,Win32,60,5f599a131af4471f3d752b7b,5f5a3bae8e6d030aa0f05c77,6,,,,,,kettle,,,,,,,,,,,3,1,0,57,57,27,1,,,,,,,,,,,,,,,,,,,,,,,,,,,,,,,,,,,,,,,,,,,,,,,,,,,,,,,,,,,,,,,,,,,,,,,,,,,,,,,,,,,,,,,,,,,,,,,,,,,,,,,,
,,?,0.00071,0,,,,,,stimuli/images/PICTURE_655.png,TOILET,5cffb12df6c3fb00157b2f39,23/09/1954,2020-09-10_15h44.31.674,proactive3.1,2020.1.2,Win32,60,5f599a131af4471f3d752b7b,5f5a3bae8e6d030aa0f05c77,6,,,,,,megaphone,,,,,,,,,,,2,1,0,58,58,12,1,,,,,,,,,,,,,,,,,,,,,,,,,,,,,,,,,,,,,,,,,,,,,,,,,,,,,,,,,,,,,,,,,,,,,,,,,,,,,,,,,,,,,,,,,,,,,,,,,,,,,,,,
,,?,0.00079,0,,,,,,stimuli/images/PICTURE_491.png,GLASS,5cffb12df6c3fb00157b2f39,23/09/1954,2020-09-10_15h44.31.674,proactive3.1,2020.1.2,Win32,60,5f599a131af4471f3d752b7b,5f5a3bae8e6d030aa0f05c77,6,,,,,,rug,,,,,,,,,,,2,1,0,59,59,14,1,,,,,,,,,,,,,,,,,,,,,,,,,,,,,,,,,,,,,,,,,,,,,,,,,,,,,,,,,,,,,,,,,,,,,,,,,,,,,,,,,,,,,,,,,,,,,,,,,,,,,,,,
,,,,,,,,,,,,5cffb12df6c3fb00157b2f39,23/09/1954,2020-09-10_15h44.31.674,proactive3.1,2020.1.2,Win32,60,5f599a131af4471f3d752b7b,5f5a3bae8e6d030aa0f05c77,6,,,,,,,,,,,,,,,,,,,,,,,,0,0,0,1,1,stimuli/learn-block2.csv,,,,,,,,,,,,,,,,,,,,,,,,,,,,,,,,,,,,,,,,,,,,,,,,,,,,,,,,,,,,,,,,,,,,,,,,,,,,,,,,,,,,,,,,,,,,,,,,,,
,,,,,,,,,,stimuli/images/PICTURE_452.png,COPS,5cffb12df6c3fb00157b2f39,23/09/1954,2020-09-10_15h44.31.674,proactive3.1,2020.1.2,Win32,60,5f599a131af4471f3d752b7b,5f5a3bae8e6d030aa0f05c77,6,,,,,,watch,,,,,,0,0,0,0,1,1,2,,,,,,,,,,,,,,,,,,,,,,,,,,,,,,,,,,,,,,,,,,,,,,,,,,,,,,,,,,,,,,,,,,,,,,,,,,,,,,,,,,,,,,,,,,,,,,,,,,,,,,,,,,,,,
,,,,,,,,,,stimuli/images/PICTURE_677.png,FAMILY,5cffb12df6c3fb00157b2f39,23/09/1954,2020-09-10_15h44.31.674,proactive3.1,2020.1.2,Win32,60,5f599a131af4471f3d752b7b,5f5a3bae8e6d030aa0f05c77,6,,,,,,map,,,,,,0,1,1,53,1,6,2,,,,,,,,,,,,,,,,,,,,,,,,,,,,,,,,,,,,,,,,,,,,,,,,,,,,,,,,,,,,,,,,,,,,,,,,,,,,,,,,,,,,,,,,,,,,,,,,,,,,,,,,,,,,,
,,,,,,,,,,stimuli/images/PICTURE_655.png,SALE,5cffb12df6c3fb00157b2f39,23/09/1954,2020-09-10_15h44.31.674,proactive3.1,2020.1.2,Win32,60,5f599a131af4471f3d752b7b,5f5a3bae8e6d030aa0f05c77,6,,,,,,megaphone,,,,,,0,2,2,57,1,6,2,,,,,,,,,,,,,,,,,,,,,,,,,,,,,,,,,,,,,,,,,,,,,,,,,,,,,,,,,,,,,,,,,,,,,,,,,,,,,,,,,,,,,,,,,,,,,,,,,,,,,,,,,,,,,
,,,,,,,,,,stimuli/images/PICTURE_57.png,CASINO,5cffb12df6c3fb00157b2f39,23/09/1954,2020-09-10_15h44.31.674,proactive3.1,2020.1.2,Win32,60,5f599a131af4471f3d752b7b,5f5a3bae8e6d030aa0f05c77,6,,,,,,stamp,,,,,,0,3,3,12,1,2,2,,,,,,,,,,,,,,,,,,,,,,,,,,,,,,,,,,,,,,,,,,,,,,,,,,,,,,,,,,,,,,,,,,,,,,,,,,,,,,,,,,,,,,,,,,,,,,,,,,,,,,,,,,,,,
,,,,,,,,,,stimuli/images/PICTURE_314.png,SPEECH,5cffb12df6c3fb00157b2f39,23/09/1954,2020-09-10_15h44.31.674,proactive3.1,2020.1.2,Win32,60,5f599a131af4471f3d752b7b,5f5a3bae8e6d030aa0f05c77,6,,,,,,perfume,,,,,,0,4,4,35,1,4,2,,,,,,,,,,,,,,,,,,,,,,,,,,,,,,,,,,,,,,,,,,,,,,,,,,,,,,,,,,,,,,,,,,,,,,,,,,,,,,,,,,,,,,,,,,,,,,,,,,,,,,,,,,,,,
,,,,,,,,,,stimuli/images/PICTURE_491.png,SERIES,5cffb12df6c3fb00157b2f39,23/09/1954,2020-09-10_15h44.31.674,proactive3.1,2020.1.2,Win32,60,5f599a131af4471f3d752b7b,5f5a3bae8e6d030aa0f05c77,6,,,,,,rug,,,,,,0,5,5,39,1,4,2,,,,,,,,,,,,,,,,,,,,,,,,,,,,,,,,,,,,,,,,,,,,,,,,,,,,,,,,,,,,,,,,,,,,,,,,,,,,,,,,,,,,,,,,,,,,,,,,,,,,,,,,,,,,,
,,,,,,,,,,stimuli/images/PICTURE_285.png,PRINCE,5cffb12df6c3fb00157b2f39,23/09/1954,2020-09-10_15h44.31.674,proactive3.1,2020.1.2,Win32,60,5f599a131af4471f3d752b7b,5f5a3bae8e6d030aa0f05c77,6,,,,,,carrot,,,,,,0,6,6,20,1,3,2,,,,,,,,,,,,,,,,,,,,,,,,,,,,,,,,,,,,,,,,,,,,,,,,,,,,,,,,,,,,,,,,,,,,,,,,,,,,,,,,,,,,,,,,,,,,,,,,,,,,,,,,,,,,,
,,,,,,,,,,stimuli/images/PICTURE_2.png,YARD,5cffb12df6c3fb00157b2f39,23/09/1954,2020-09-10_15h44.31.674,proactive3.1,2020.1.2,Win32,60,5f599a131af4471f3d752b7b,5f5a3bae8e6d030aa0f05c77,6,,,,,,tyre,,,,,,0,7,7,55,1,6,2,,,,,,,,,,,,,,,,,,,,,,,,,,,,,,,,,,,,,,,,,,,,,,,,,,,,,,,,,,,,,,,,,,,,,,,,,,,,,,,,,,,,,,,,,,,,,,,,,,,,,,,,,,,,,
,,,,,,,,,,stimuli/images/PICTURE_68.png,KIND,5cffb12df6c3fb00157b2f39,23/09/1954,2020-09-10_15h44.31.674,proactive3.1,2020.1.2,Win32,60,5f599a131af4471f3d752b7b,5f5a3bae8e6d030aa0f05c77,6,,,,,,candle,,,,,,0,8,8,23,1,3,2,,,,,,,,,,,,,,,,,,,,,,,,,,,,,,,,,,,,,,,,,,,,,,,,,,,,,,,,,,,,,,,,,,,,,,,,,,,,,,,,,,,,,,,,,,,,,,,,,,,,,,,,,,,,,
,,,,,,,,,,stimuli/images/PICTURE_667.png,GLASS,5cffb12df6c3fb00157b2f39,23/09/1954,2020-09-10_15h44.31.674,proactive3.1,2020.1.2,Win32,60,5f599a131af4471f3d752b7b,5f5a3bae8e6d030aa0f05c77,6,,,,,,daisy,,,,,,0,9,9,27,1,3,2,,,,,,,,,,,,,,,,,,,,,,,,,,,,,,,,,,,,,,,,,,,,,,,,,,,,,,,,,,,,,,,,,,,,,,,,,,,,,,,,,,,,,,,,,,,,,,,,,,,,,,,,,,,,,
,,,,,,,,,,stimuli/images/PICTURE_750.png,POLICY,5cffb12df6c3fb00157b2f39,23/09/1954,2020-09-10_15h44.31.674,proactive3.1,2020.1.2,Win32,60,5f599a131af4471f3d752b7b,5f5a3bae8e6d030aa0f05c77,6,,,,,,kettle,,,,,,0,10,10,44,1,5,2,,,,,,,,,,,,,,,,,,,,,,,,,,,,,,,,,,,,,,,,,,,,,,,,,,,,,,,,,,,,,,,,,,,,,,,,,,,,,,,,,,,,,,,,,,,,,,,,,,,,,,,,,,,,,
,,,,,,,,,,stimuli/images/PICTURE_487.png,POLICY,5cffb12df6c3fb00157b2f39,23/09/1954,2020-09-10_15h44.31.674,proactive3.1,2020.1.2,Win32,60,5f599a131af4471f3d752b7b,5f5a3bae8e6d030aa0f05c77,6,,,,,,basket,,,,,,0,11,11,34,1,4,2,,,,,,,,,,,,,,,,,,,,,,,,,,,,,,,,,,,,,,,,,,,,,,,,,,,,,,,,,,,,,,,,,,,,,,,,,,,,,,,,,,,,,,,,,,,,,,,,,,,,,,,,,,,,,
,,,,,,,,,,stimuli/images/PICTURE_509.png,APPLE,5cffb12df6c3fb00157b2f39,23/09/1954,2020-09-10_15h44.31.674,proactive3.1,2020.1.2,Win32,60,5f599a131af4471f3d752b7b,5f5a3bae8e6d030aa0f05c77,6,,,,,,telephone,,,,,,0,12,12,38,1,4,2,,,,,,,,,,,,,,,,,,,,,,,,,,,,,,,,,,,,,,,,,,,,,,,,,,,,,,,,,,,,,,,,,,,,,,,,,,,,,,,,,,,,,,,,,,,,,,,,,,,,,,,,,,,,,
,,,,,,,,,,stimuli/images/PICTURE_215.png,LEADER,5cffb12df6c3fb00157b2f39,23/09/1954,2020-09-10_15h44.31.674,proactive3.1,2020.1.2,Win32,60,5f599a131af4471f3d752b7b,5f5a3bae8e6d030aa0f05c77,6,,,,,,boot,,,,,,0,13,13,43,1,5,2,,,,,,,,,,,,,,,,,,,,,,,,,,,,,,,,,,,,,,,,,,,,,,,,,,,,,,,,,,,,,,,,,,,,,,,,,,,,,,,,,,,,,,,,,,,,,,,,,,,,,,,,,,,,,
,,,,,,,,,,stimuli/images/PICTURE_141.png,CLIENT,5cffb12df6c3fb00157b2f39,23/09/1954,2020-09-10_15h44.31.674,proactive3.1,2020.1.2,Win32,60,5f599a131af4471f3d752b7b,5f5a3bae8e6d030aa0f05c77,6,,,,,,sunflower,,,,,,0,14,14,30,1,4,2,,,,,,,,,,,,,,,,,,,,,,,,,,,,,,,,,,,,,,,,,,,,,,,,,,,,,,,,,,,,,,,,,,,,,,,,,,,,,,,,,,,,,,,,,,,,,,,,,,,,,,,,,,,,,
,,,,,,,,,,stimuli/images/PICTURE_32.png,LETTER,5cffb12df6c3fb00157b2f39,23/09/1954,2020-09-10_15h44.31.674,proactive3.1,2020.1.2,Win32,60,5f599a131af4471f3d752b7b,5f5a3bae8e6d030aa0f05c77,6,,,,,,crown,,,,,,0,15,15,56,1,6,2,,,,,,,,,,,,,,,,,,,,,,,,,,,,,,,,,,,,,,,,,,,,,,,,,,,,,,,,,,,,,,,,,,,,,,,,,,,,,,,,,,,,,,,,,,,,,,,,,,,,,,,,,,,,,
,,,,,,,,,,stimuli/images/PICTURE_296.png,CLOCK,5cffb12df6c3fb00157b2f39,23/09/1954,2020-09-10_15h44.31.674,proactive3.1,2020.1.2,Win32,60,5f599a131af4471f3d752b7b,5f5a3bae8e6d030aa0f05c77,6,,,,,,bolt,,,,,,0,16,16,18,1,2,2,,,,,,,,,,,,,,,,,,,,,,,,,,,,,,,,,,,,,,,,,,,,,,,,,,,,,,,,,,,,,,,,,,,,,,,,,,,,,,,,,,,,,,,,,,,,,,,,,,,,,,,,,,,,,
,,,,,,,,,,stimuli/images/PICTURE_403.png,FAMILY,5cffb12df6c3fb00157b2f39,23/09/1954,2020-09-10_15h44.31.674,proactive3.1,2020.1.2,Win32,60,5f599a131af4471f3d752b7b,5f5a3bae8e6d030aa0f05c77,6,,,,,,cathedral,,,,,,0,17,17,9,1,1,2,,,,,,,,,,,,,,,,,,,,,,,,,,,,,,,,,,,,,,,,,,,,,,,,,,,,,,,,,,,,,,,,,,,,,,,,,,,,,,,,,,,,,,,,,,,,,,,,,,,,,,,,,,,,,
,,,,,,,,,,stimuli/images/PICTURE_509.png,BATH,5cffb12df6c3fb00157b2f39,23/09/1954,2020-09-10_15h44.31.674,proactive3.1,2020.1.2,Win32,60,5f599a131af4471f3d752b7b,5f5a3bae8e6d030aa0f05c77,6,,,,,,telephone,,,,,,0,18,18,15,1,2,2,,,,,,,,,,,,,,,,,,,,,,,,,,,,,,,,,,,,,,,,,,,,,,,,,,,,,,,,,,,,,,,,,,,,,,,,,,,,,,,,,,,,,,,,,,,,,,,,,,,,,,,,,,,,,
,,,,,,,,,,stimuli/images/PICTURE_311.png,TOILET,5cffb12df6c3fb00157b2f39,23/09/1954,2020-09-10_15h44.31.674,proactive3.1,2020.1.2,Win32,60,5f599a131af4471f3d752b7b,5f5a3bae8e6d030aa0f05c77,6,,,,,,razor,,,,,,0,19,19,54,1,6,2,,,,,,,,,,,,,,,,,,,,,,,,,,,,,,,,,,,,,,,,,,,,,,,,,,,,,,,,,,,,,,,,,,,,,,,,,,,,,,,,,,,,,,,,,,,,,,,,,,,,,,,,,,,,,
,,,,,,,,,,stimuli/images/PICTURE_2.png,AREA,5cffb12df6c3fb00157b2f39,23/09/1954,2020-09-10_15h44.31.674,proactive3.1,2020.1.2,Win32,60,5f599a131af4471f3d752b7b,5f5a3bae8e6d030aa0f05c77,6,,,,,,tyre,,,,,,0,20,20,32,1,4,2,,,,,,,,,,,,,,,,,,,,,,,,,,,,,,,,,,,,,,,,,,,,,,,,,,,,,,,,,,,,,,,,,,,,,,,,,,,,,,,,,,,,,,,,,,,,,,,,,,,,,,,,,,,,,
,,,,,,,,,,stimuli/images/PICTURE_177.png,HOUSE,5cffb12df6c3fb00157b2f39,23/09/1954,2020-09-10_15h44.31.674,proactive3.1,2020.1.2,Win32,60,5f599a131af4471f3d752b7b,5f5a3bae8e6d030aa0f05c77,6,,,,,,mushroom,,,,,,0,21,21,25,1,3,2,,,,,,,,,,,,,,,,,,,,,,,,,,,,,,,,,,,,,,,,,,,,,,,,,,,,,,,,,,,,,,,,,,,,,,,,,,,,,,,,,,,,,,,,,,,,,,,,,,,,,,,,,,,,,
,,,,,,,,,,stimuli/images/PICTURE_18.png,RIVER,5cffb12df6c3fb00157b2f39,23/09/1954,2020-09-10_15h44.31.674,proactive3.1,2020.1.2,Win32,60,5f599a131af4471f3d752b7b,5f5a3bae8e6d030aa0f05c77,6,,,,,,planet,,,,,,0,22,22,22,1,3,2,,,,,,,,,,,,,,,,,,,,,,,,,,,,,,,,,,,,,,,,,,,,,,,,,,,,,,,,,,,,,,,,,,,,,,,,,,,,,,,,,,,,,,,,,,,,,,,,,,,,,,,,,,,,,
,,,,,,,,,,stimuli/images/PICTURE_93.png,GIRL,5cffb12df6c3fb00157b2f39,23/09/1954,2020-09-10_15h44.31.674,proactive3.1,2020.1.2,Win32,60,5f599a131af4471f3d752b7b,5f5a3bae8e6d030aa0f05c77,6,,,,,,skateboard,,,,,,0,23,23,31,1,4,2,,,,,,,,,,,,,,,,,,,,,,,,,,,,,,,,,,,,,,,,,,,,,,,,,,,,,,,,,,,,,,,,,,,,,,,,,,,,,,,,,,,,,,,,,,,,,,,,,,,,,,,,,,,,,
,,,,,,,,,,stimuli/images/PICTURE_654.png,COPS,5cffb12df6c3fb00157b2f39,23/09/1954,2020-09-10_15h44.31.674,proactive3.1,2020.1.2,Win32,60,5f599a131af4471f3d752b7b,5f5a3bae8e6d030aa0f05c77,6,,,,,,pencil,,,,,,0,24,24,10,1,2,2,,,,,,,,,,,,,,,,,,,,,,,,,,,,,,,,,,,,,,,,,,,,,,,,,,,,,,,,,,,,,,,,,,,,,,,,,,,,,,,,,,,,,,,,,,,,,,,,,,,,,,,,,,,,,
,,,,,,,,,,stimuli/images/PICTURE_123.png,SALE,5cffb12df6c3fb00157b2f39,23/09/1954,2020-09-10_15h44.31.674,proactive3.1,2020.1.2,Win32,60,5f599a131af4471f3d752b7b,5f5a3bae8e6d030aa0f05c77,6,,,,,,dart,,,,,,0,25,25,8,1,1,2,,,,,,,,,,,,,,,,,,,,,,,,,,,,,,,,,,,,,,,,,,,,,,,,,,,,,,,,,,,,,,,,,,,,,,,,,,,,,,,,,,,,,,,,,,,,,,,,,,,,,,,,,,,,,
,,,,,,,,,,stimuli/images/PICTURE_297.png,BODY,5cffb12df6c3fb00157b2f39,23/09/1954,2020-09-10_15h44.31.674,proactive3.1,2020.1.2,Win32,60,5f599a131af4471f3d752b7b,5f5a3bae8e6d030aa0f05c77,6,,,,,,aeroplane,,,,,,0,26,26,51,1,6,2,,,,,,,,,,,,,,,,,,,,,,,,,,,,,,,,,,,,,,,,,,,,,,,,,,,,,,,,,,,,,,,,,,,,,,,,,,,,,,,,,,,,,,,,,,,,,,,,,,,,,,,,,,,,,
,,,,,,,,,,stimuli/images/PICTURE_453.png,FAMILY,5cffb12df6c3fb00157b2f39,23/09/1954,2020-09-10_15h44.31.674,proactive3.1,2020.1.2,Win32,60,5f599a131af4471f3d752b7b,5f5a3bae8e6d030aa0f05c77,6,,,,,,scissors,,,,,,0,27,27,48,1,5,2,,,,,,,,,,,,,,,,,,,,,,,,,,,,,,,,,,,,,,,,,,,,,,,,,,,,,,,,,,,,,,,,,,,,,,,,,,,,,,,,,,,,,,,,,,,,,,,,,,,,,,,,,,,,,
,,,,,,,,,,stimuli/images/PICTURE_677.png,PHOTO,5cffb12df6c3fb00157b2f39,23/09/1954,2020-09-10_15h44.31.674,proactive3.1,2020.1.2,Win32,60,5f599a131af4471f3d752b7b,5f5a3bae8e6d030aa0f05c77,6,,,,,,map,,,,,,0,28,28,14,1,2,2,,,,,,,,,,,,,,,,,,,,,,,,,,,,,,,,,,,,,,,,,,,,,,,,,,,,,,,,,,,,,,,,,,,,,,,,,,,,,,,,,,,,,,,,,,,,,,,,,,,,,,,,,,,,,
,,,,,,,,,,stimuli/images/PICTURE_688.png,CLOCK,5cffb12df6c3fb00157b2f39,23/09/1954,2020-09-10_15h44.31.674,proactive3.1,2020.1.2,Win32,60,5f599a131af4471f3d752b7b,5f5a3bae8e6d030aa0f05c77,6,,,,,,runner,,,,,,0,29,29,42,1,5,2,,,,,,,,,,,,,,,,,,,,,,,,,,,,,,,,,,,,,,,,,,,,,,,,,,,,,,,,,,,,,,,,,,,,,,,,,,,,,,,,,,,,,,,,,,,,,,,,,,,,,,,,,,,,,
,,,,,,,,,,stimuli/images/PICTURE_405.png,HOUSE,5cffb12df6c3fb00157b2f39,23/09/1954,2020-09-10_15h44.31.674,proactive3.1,2020.1.2,Win32,60,5f599a131af4471f3d752b7b,5f5a3bae8e6d030aa0f05c77,6,,,,,,anchor,,,,,,0,30,30,2,1,1,2,,,,,,,,,,,,,,,,,,,,,,,,,,,,,,,,,,,,,,,,,,,,,,,,,,,,,,,,,,,,,,,,,,,,,,,,,,,,,,,,,,,,,,,,,,,,,,,,,,,,,,,,,,,,,
,,,,,,,,,,stimuli/images/PICTURE_255.png,PENNY,5cffb12df6c3fb00157b2f39,23/09/1954,2020-09-10_15h44.31.674,proactive3.1,2020.1.2,Win32,60,5f599a131af4471f3d752b7b,5f5a3bae8e6d030aa0f05c77,6,,,,,,shovel,,,,,,0,31,31,19,1,2,2,,,,,,,,,,,,,,,,,,,,,,,,,,,,,,,,,,,,,,,,,,,,,,,,,,,,,,,,,,,,,,,,,,,,,,,,,,,,,,,,,,,,,,,,,,,,,,,,,,,,,,,,,,,,,
,,,,,,,,,,stimuli/images/PICTURE_327.png,LEADER,5cffb12df6c3fb00157b2f39,23/09/1954,2020-09-10_15h44.31.674,proactive3.1,2020.1.2,Win32,60,5f599a131af4471f3d752b7b,5f5a3bae8e6d030aa0f05c77,6,,,,,,helmet,,,,,,0,32,32,17,1,2,2,,,,,,,,,,,,,,,,,,,,,,,,,,,,,,,,,,,,,,,,,,,,,,,,,,,,,,,,,,,,,,,,,,,,,,,,,,,,,,,,,,,,,,,,,,,,,,,,,,,,,,,,,,,,,
,,,,,,,,,,stimuli/images/PICTURE_285.png,WRITER,5cffb12df6c3fb00157b2f39,23/09/1954,2020-09-10_15h44.31.674,proactive3.1,2020.1.2,Win32,60,5f599a131af4471f3d752b7b,5f5a3bae8e6d030aa0f05c77,6,,,,,,carrot,,,,,,0,33,33,6,1,1,2,,,,,,,,,,,,,,,,,,,,,,,,,,,,,,,,,,,,,,,,,,,,,,,,,,,,,,,,,,,,,,,,,,,,,,,,,,,,,,,,,,,,,,,,,,,,,,,,,,,,,,,,,,,,,
,,,,,,,,,,stimuli/images/PICTURE_654.png,YEAR,5cffb12df6c3fb00157b2f39,23/09/1954,2020-09-10_15h44.31.674,proactive3.1,2020.1.2,Win32,60,5f599a131af4471f3d752b7b,5f5a3bae8e6d030aa0f05c77,6,,,,,,pencil,,,,,,0,34,34,41,1,5,2,,,,,,,,,,,,,,,,,,,,,,,,,,,,,,,,,,,,,,,,,,,,,,,,,,,,,,,,,,,,,,,,,,,,,,,,,,,,,,,,,,,,,,,,,,,,,,,,,,,,,,,,,,,,,
,,,,,,,,,,stimuli/images/PICTURE_147.png,LEADER,5cffb12df6c3fb00157b2f39,23/09/1954,2020-09-10_15h44.31.674,proactive3.1,2020.1.2,Win32,60,5f599a131af4471f3d752b7b,5f5a3bae8e6d030aa0f05c77,6,,,,,,hanger,,,,,,0,35,35,33,1,4,2,,,,,,,,,,,,,,,,,,,,,,,,,,,,,,,,,,,,,,,,,,,,,,,,,,,,,,,,,,,,,,,,,,,,,,,,,,,,,,,,,,,,,,,,,,,,,,,,,,,,,,,,,,,,,
,,,,,,,,,,stimuli/images/PICTURE_215.png,FOOD,5cffb12df6c3fb00157b2f39,23/09/1954,2020-09-10_15h44.31.674,proactive3.1,2020.1.2,Win32,60,5f599a131af4471f3d752b7b,5f5a3bae8e6d030aa0f05c77,6,,,,,,boot,,,,,,0,36,36,5,1,1,2,,,,,,,,,,,,,,,,,,,,,,,,,,,,,,,,,,,,,,,,,,,,,,,,,,,,,,,,,,,,,,,,,,,,,,,,,,,,,,,,,,,,,,,,,,,,,,,,,,,,,,,,,,,,,
,,,,,,,,,,stimuli/images/PICTURE_405.png,JUNGLE,5cffb12df6c3fb00157b2f39,23/09/1954,2020-09-10_15h44.31.674,proactive3.1,2020.1.2,Win32,60,5f599a131af4471f3d752b7b,5f5a3bae8e6d030aa0f05c77,6,,,,,,anchor,,,,,,0,37,37,13,1,2,2,,,,,,,,,,,,,,,,,,,,,,,,,,,,,,,,,,,,,,,,,,,,,,,,,,,,,,,,,,,,,,,,,,,,,,,,,,,,,,,,,,,,,,,,,,,,,,,,,,,,,,,,,,,,,
,,,,,,,,,,stimuli/images/PICTURE_692.png,DUDE,5cffb12df6c3fb00157b2f39,23/09/1954,2020-09-10_15h44.31.674,proactive3.1,2020.1.2,Win32,60,5f599a131af4471f3d752b7b,5f5a3bae8e6d030aa0f05c77,6,,,,,,cherry,,,,,,0,38,38,47,1,5,2,,,,,,,,,,,,,,,,,,,,,,,,,,,,,,,,,,,,,,,,,,,,,,,,,,,,,,,,,,,,,,,,,,,,,,,,,,,,,,,,,,,,,,,,,,,,,,,,,,,,,,,,,,,,,
,,,,,,,,,,stimuli/images/PICTURE_160.png,HOTEL,5cffb12df6c3fb00157b2f39,23/09/1954,2020-09-10_15h44.31.674,proactive3.1,2020.1.2,Win32,60,5f599a131af4471f3d752b7b,5f5a3bae8e6d030aa0f05c77,6,,,,,,wheelbarrow,,,,,,0,39,39,16,1,2,2,,,,,,,,,,,,,,,,,,,,,,,,,,,,,,,,,,,,,,,,,,,,,,,,,,,,,,,,,,,,,,,,,,,,,,,,,,,,,,,,,,,,,,,,,,,,,,,,,,,,,,,,,,,,,
,,,,,,,,,,stimuli/images/PICTURE_208.png,SPIRIT,5cffb12df6c3fb00157b2f39,23/09/1954,2020-09-10_15h44.31.674,proactive3.1,2020.1.2,Win32,60,5f599a131af4471f3d752b7b,5f5a3bae8e6d030aa0f05c77,6,,,,,,microphone,,,,,,0,40,40,28,1,3,2,,,,,,,,,,,,,,,,,,,,,,,,,,,,,,,,,,,,,,,,,,,,,,,,,,,,,,,,,,,,,,,,,,,,,,,,,,,,,,,,,,,,,,,,,,,,,,,,,,,,,,,,,,,,,
,,,,,,,,,,stimuli/images/PICTURE_708.png,VALLEY,5cffb12df6c3fb00157b2f39,23/09/1954,2020-09-10_15h44.31.674,proactive3.1,2020.1.2,Win32,60,5f599a131af4471f3d752b7b,5f5a3bae8e6d030aa0f05c77,6,,,,,,monkey,,,,,,0,41,41,45,1,5,2,,,,,,,,,,,,,,,,,,,,,,,,,,,,,,,,,,,,,,,,,,,,,,,,,,,,,,,,,,,,,,,,,,,,,,,,,,,,,,,,,,,,,,,,,,,,,,,,,,,,,,,,,,,,,
,,,,,,,,,,stimuli/images/PICTURE_33.png,COPS,5cffb12df6c3fb00157b2f39,23/09/1954,2020-09-10_15h44.31.674,proactive3.1,2020.1.2,Win32,60,5f599a131af4471f3d752b7b,5f5a3bae8e6d030aa0f05c77,6,,,,,,frame,,,,,,0,42,42,29,1,3,2,,,,,,,,,,,,,,,,,,,,,,,,,,,,,,,,,,,,,,,,,,,,,,,,,,,,,,,,,,,,,,,,,,,,,,,,,,,,,,,,,,,,,,,,,,,,,,,,,,,,,,,,,,,,,
,,,,,,,,,,stimuli/images/PICTURE_348.png,DUDE,5cffb12df6c3fb00157b2f39,23/09/1954,2020-09-10_15h44.31.674,proactive3.1,2020.1.2,Win32,60,5f599a131af4471f3d752b7b,5f5a3bae8e6d030aa0f05c77,6,,,,,,pepper,,,,,,0,43,43,59,1,6,2,,,,,,,,,,,,,,,,,,,,,,,,,,,,,,,,,,,,,,,,,,,,,,,,,,,,,,,,,,,,,,,,,,,,,,,,,,,,,,,,,,,,,,,,,,,,,,,,,,,,,,,,,,,,,
,,,,,,,,,,stimuli/images/PICTURE_504.png,HOUSE,5cffb12df6c3fb00157b2f39,23/09/1954,2020-09-10_15h44.31.674,proactive3.1,2020.1.2,Win32,60,5f599a131af4471f3d752b7b,5f5a3bae8e6d030aa0f05c77,6,,,,,,wheel,,,,,,0,44,44,36,1,4,2,,,,,,,,,,,,,,,,,,,,,,,,,,,,,,,,,,,,,,,,,,,,,,,,,,,,,,,,,,,,,,,,,,,,,,,,,,,,,,,,,,,,,,,,,,,,,,,,,,,,,,,,,,,,,
,,,,,,,,,,stimuli/images/PICTURE_311.png,FLESH,5cffb12df6c3fb00157b2f39,23/09/1954,2020-09-10_15h44.31.674,proactive3.1,2020.1.2,Win32,60,5f599a131af4471f3d752b7b,5f5a3bae8e6d030aa0f05c77,6,,,,,,razor,,,,,,0,45,45,3,1,1,2,,,,,,,,,,,,,,,,,,,,,,,,,,,,,,,,,,,,,,,,,,,,,,,,,,,,,,,,,,,,,,,,,,,,,,,,,,,,,,,,,,,,,,,,,,,,,,,,,,,,,,,,,,,,,
,,,,,,,,,,stimuli/images/PICTURE_487.png,ROOF,5cffb12df6c3fb00157b2f39,23/09/1954,2020-09-10_15h44.31.674,proactive3.1,2020.1.2,Win32,60,5f599a131af4471f3d752b7b,5f5a3bae8e6d030aa0f05c77,6,,,,,,basket,,,,,,0,46,46,50,1,6,2,,,,,,,,,,,,,,,,,,,,,,,,,,,,,,,,,,,,,,,,,,,,,,,,,,,,,,,,,,,,,,,,,,,,,,,,,,,,,,,,,,,,,,,,,,,,,,,,,,,,,,,,,,,,,
,,,,,,,,,,stimuli/images/PICTURE_405.png,JUNGLE,5cffb12df6c3fb00157b2f39,23/09/1954,2020-09-10_15h44.31.674,proactive3.1,2020.1.2,Win32,60,5f599a131af4471f3d752b7b,5f5a3bae8e6d030aa0f05c77,6,,,,,,anchor,,,,,,0,47,47,58,1,6,2,,,,,,,,,,,,,,,,,,,,,,,,,,,,,,,,,,,,,,,,,,,,,,,,,,,,,,,,,,,,,,,,,,,,,,,,,,,,,,,,,,,,,,,,,,,,,,,,,,,,,,,,,,,,,
,,,,,,,,,,stimuli/images/PICTURE_470.png,BEAUTY,5cffb12df6c3fb00157b2f39,23/09/1954,2020-09-10_15h44.31.674,proactive3.1,2020.1.2,Win32,60,5f599a131af4471f3d752b7b,5f5a3bae8e6d030aa0f05c77,6,,,,,,motorbike,,,,,,0,48,48,26,1,3,2,,,,,,,,,,,,,,,,,,,,,,,,,,,,,,,,,,,,,,,,,,,,,,,,,,,,,,,,,,,,,,,,,,,,,,,,,,,,,,,,,,,,,,,,,,,,,,,,,,,,,,,,,,,,,
,,,,,,,,,,stimuli/images/PICTURE_57.png,CANDY,5cffb12df6c3fb00157b2f39,23/09/1954,2020-09-10_15h44.31.674,proactive3.1,2020.1.2,Win32,60,5f599a131af4471f3d752b7b,5f5a3bae8e6d030aa0f05c77,6,,,,,,stamp,,,,,,0,49,49,52,1,6,2,,,,,,,,,,,,,,,,,,,,,,,,,,,,,,,,,,,,,,,,,,,,,,,,,,,,,,,,,,,,,,,,,,,,,,,,,,,,,,,,,,,,,,,,,,,,,,,,,,,,,,,,,,,,,
,,,,,,,,,,stimuli/images/PICTURE_564.png,PLENTY,5cffb12df6c3fb00157b2f39,23/09/1954,2020-09-10_15h44.31.674,proactive3.1,2020.1.2,Win32,60,5f599a131af4471f3d752b7b,5f5a3bae8e6d030aa0f05c77,6,,,,,,spoon,,,,,,0,50,50,11,1,2,2,,,,,,,,,,,,,,,,,,,,,,,,,,,,,,,,,,,,,,,,,,,,,,,,,,,,,,,,,,,,,,,,,,,,,,,,,,,,,,,,,,,,,,,,,,,,,,,,,,,,,,,,,,,,,
,,,,,,,,,,stimuli/images/PICTURE_509.png,MILLER,5cffb12df6c3fb00157b2f39,23/09/1954,2020-09-10_15h44.31.674,proactive3.1,2020.1.2,Win32,60,5f599a131af4471f3d752b7b,5f5a3bae8e6d030aa0f05c77,6,,,,,,telephone,,,,,,0,51,51,49,1,5,2,,,,,,,,,,,,,,,,,,,,,,,,,,,,,,,,,,,,,,,,,,,,,,,,,,,,,,,,,,,,,,,,,,,,,,,,,,,,,,,,,,,,,,,,,,,,,,,,,,,,,,,,,,,,,
,,,,,,,,,,stimuli/images/PICTURE_509.png,SHOTS,5cffb12df6c3fb00157b2f39,23/09/1954,2020-09-10_15h44.31.674,proactive3.1,2020.1.2,Win32,60,5f599a131af4471f3d752b7b,5f5a3bae8e6d030aa0f05c77,6,,,,,,telephone,,,,,,0,52,52,7,1,1,2,,,,,,,,,,,,,,,,,,,,,,,,,,,,,,,,,,,,,,,,,,,,,,,,,,,,,,,,,,,,,,,,,,,,,,,,,,,,,,,,,,,,,,,,,,,,,,,,,,,,,,,,,,,,,
,,,,,,,,,,stimuli/images/PICTURE_470.png,MOMENT,5cffb12df6c3fb00157b2f39,23/09/1954,2020-09-10_15h44.31.674,proactive3.1,2020.1.2,Win32,60,5f599a131af4471f3d752b7b,5f5a3bae8e6d030aa0f05c77,6,,,,,,motorbike,,,,,,0,53,53,40,1,5,2,,,,,,,,,,,,,,,,,,,,,,,,,,,,,,,,,,,,,,,,,,,,,,,,,,,,,,,,,,,,,,,,,,,,,,,,,,,,,,,,,,,,,,,,,,,,,,,,,,,,,,,,,,,,,
,,,,,,,,,,stimuli/images/PICTURE_356.png,CANDY,5cffb12df6c3fb00157b2f39,23/09/1954,2020-09-10_15h44.31.674,proactive3.1,2020.1.2,Win32,60,5f599a131af4471f3d752b7b,5f5a3bae8e6d030aa0f05c77,6,,,,,,pawn,,,,,,0,54,54,46,1,5,2,,,,,,,,,,,,,,,,,,,,,,,,,,,,,,,,,,,,,,,,,,,,,,,,,,,,,,,,,,,,,,,,,,,,,,,,,,,,,,,,,,,,,,,,,,,,,,,,,,,,,,,,,,,,,
,,,,,,,,,,stimuli/images/PICTURE_95.png,NIGHT,5cffb12df6c3fb00157b2f39,23/09/1954,2020-09-10_15h44.31.674,proactive3.1,2020.1.2,Win32,60,5f599a131af4471f3d752b7b,5f5a3bae8e6d030aa0f05c77,6,,,,,,suitcase,,,,,,0,55,55,37,1,4,2,,,,,,,,,,,,,,,,,,,,,,,,,,,,,,,,,,,,,,,,,,,,,,,,,,,,,,,,,,,,,,,,,,,,,,,,,,,,,,,,,,,,,,,,,,,,,,,,,,,,,,,,,,,,,
,,,,,,,,,,stimuli/images/PICTURE_215.png,BOYS,5cffb12df6c3fb00157b2f39,23/09/1954,2020-09-10_15h44.31.674,proactive3.1,2020.1.2,Win32,60,5f599a131af4471f3d752b7b,5f5a3bae8e6d030aa0f05c77,6,,,,,,boot,,,,,,0,56,56,24,1,3,2,,,,,,,,,,,,,,,,,,,,,,,,,,,,,,,,,,,,,,,,,,,,,,,,,,,,,,,,,,,,,,,,,,,,,,,,,,,,,,,,,,,,,,,,,,,,,,,,,,,,,,,,,,,,,
,,,,,,,,,,stimuli/images/PICTURE_348.png,TOILET,5cffb12df6c3fb00157b2f39,23/09/1954,2020-09-10_15h44.31.674,proactive3.1,2020.1.2,Win32,60,5f599a131af4471f3d752b7b,5f5a3bae8e6d030aa0f05c77,6,,,,,,pepper,,,,,,0,57,57,4,1,1,2,,,,,,,,,,,,,,,,,,,,,,,,,,,,,,,,,,,,,,,,,,,,,,,,,,,,,,,,,,,,,,,,,,,,,,,,,,,,,,,,,,,,,,,,,,,,,,,,,,,,,,,,,,,,,
,,,,,,,,,,stimuli/images/PICTURE_57.png,NATION,5cffb12df6c3fb00157b2f39,23/09/1954,2020-09-10_15h44.31.674,proactive3.1,2020.1.2,Win32,60,5f599a131af4471f3d752b7b,5f5a3bae8e6d030aa0f05c77,6,,,,,,stamp,,,,,,0,58,58,21,1,3,2,,,,,,,,,,,,,,,,,,,,,,,,,,,,,,,,,,,,,,,,,,,,,,,,,,,,,,,,,,,,,,,,,,,,,,,,,,,,,,,,,,,,,,,,,,,,,,,,,,,,,,,,,,,,,
,,?,0.00159,0,,,,,,stimuli/images/PICTURE_356.png,CANDY,5cffb12df6c3fb00157b2f39,23/09/1954,2020-09-10_15h44.31.674,proactive3.1,2020.1.2,Win32,60,5f599a131af4471f3d752b7b,5f5a3bae8e6d030aa0f05c77,6,,,,,,pawn,,,,,,,,,,,5,2,0,0,0,46,1,,,,,,,,,,,,,,,,,,,,,,,,,,,,,,,,,,,,,,,,,,,,,,,,,,,,,,,,,,,,,,,,,,,,,,,,,,,,,,,,,,,,,,,,,,,,,,,,,,,,,,,,
,,?,0.001095,0,,,,,,stimuli/images/PICTURE_68.png,KIND,5cffb12df6c3fb00157b2f39,23/09/1954,2020-09-10_15h44.31.674,proactive3.1,2020.1.2,Win32,60,5f599a131af4471f3d752b7b,5f5a3bae8e6d030aa0f05c77,6,,,,,,candle,,,,,,,,,,,3,2,0,1,1,23,1,,,,,,,,,,,,,,,,,,,,,,,,,,,,,,,,,,,,,,,,,,,,,,,,,,,,,,,,,,,,,,,,,,,,,,,,,,,,,,,,,,,,,,,,,,,,,,,,,,,,,,,,
,,?,0.00102,0,,,,,,stimuli/images/PICTURE_654.png,YEAR,5cffb12df6c3fb00157b2f39,23/09/1954,2020-09-10_15h44.31.674,proactive3.1,2020.1.2,Win32,60,5f599a131af4471f3d752b7b,5f5a3bae8e6d030aa0f05c77,6,,,,,,pencil,,,,,,,,,,,5,2,0,2,2,41,1,,,,,,,,,,,,,,,,,,,,,,,,,,,,,,,,,,,,,,,,,,,,,,,,,,,,,,,,,,,,,,,,,,,,,,,,,,,,,,,,,,,,,,,,,,,,,,,,,,,,,,,,
,,?,0.001105,0,,,,,,stimuli/images/PICTURE_141.png,CLIENT,5cffb12df6c3fb00157b2f39,23/09/1954,2020-09-10_15h44.31.674,proactive3.1,2020.1.2,Win32,60,5f599a131af4471f3d752b7b,5f5a3bae8e6d030aa0f05c77,6,,,,,,sunflower,,,,,,,,,,,4,2,0,3,3,30,1,,,,,,,,,,,,,,,,,,,,,,,,,,,,,,,,,,,,,,,,,,,,,,,,,,,,,,,,,,,,,,,,,,,,,,,,,,,,,,,,,,,,,,,,,,,,,,,,,,,,,,,,
,,?,0.0007,0,,,,,,stimuli/images/PICTURE_296.png,CLOCK,5cffb12df6c3fb00157b2f39,23/09/1954,2020-09-10_15h44.31.674,proactive3.1,2020.1.2,Win32,60,5f599a131af4471f3d752b7b,5f5a3bae8e6d030aa0f05c77,6,,,,,,bolt,,,,,,,,,,,2,2,0,4,4,18,1,,,,,,,,,,,,,,,,,,,,,,,,,,,,,,,,,,,,,,,,,,,,,,,,,,,,,,,,,,,,,,,,,,,,,,,,,,,,,,,,,,,,,,,,,,,,,,,,,,,,,,,,
,,?,0.00069,0,,,,,,stimuli/images/PICTURE_93.png,GIRL,5cffb12df6c3fb00157b2f39,23/09/1954,2020-09-10_15h44.31.674,proactive3.1,2020.1.2,Win32,60,5f599a131af4471f3d752b7b,5f5a3bae8e6d030aa0f05c77,6,,,,,,skateboard,,,,,,,,,,,4,2,0,5,5,31,1,,,,,,,,,,,,,,,,,,,,,,,,,,,,,,,,,,,,,,,,,,,,,,,,,,,,,,,,,,,,,,,,,,,,,,,,,,,,,,,,,,,,,,,,,,,,,,,,,,,,,,,,
,,?,0.0007,0,,,,,,stimuli/images/PICTURE_509.png,MILLER,5cffb12df6c3fb00157b2f39,23/09/1954,2020-09-10_15h44.31.674,proactive3.1,2020.1.2,Win32,60,5f599a131af4471f3d752b7b,5f5a3bae8e6d030aa0f05c77,6,,,,,,telephone,,,,,,,,,,,5,2,0,6,6,49,1,,,,,,,,,,,,,,,,,,,,,,,,,,,,,,,,,,,,,,,,,,,,,,,,,,,,,,,,,,,,,,,,,,,,,,,,,,,,,,,,,,,,,,,,,,,,,,,,,,,,,,,,
,,?,8.867545,0,,,,,,stimuli/images/PICTURE_2.png,YARD,5cffb12df6c3fb00157b2f39,23/09/1954,2020-09-10_15h44.31.674,proactive3.1,2020.1.2,Win32,60,5f599a131af4471f3d752b7b,5f5a3bae8e6d030aa0f05c77,6,,,,,,tyre,,,,,,,,,,,6,2,0,7,7,55,1,,,,,,,,,,,,,,,,,,,,,,,,,,,,,,,,,,,,,,,,,,,,,,,,,,,,,,,,,,,,,,,,,,,,,,,,,,,,,,,,,,,,,,,,,,,,,,,,,,,,,,,,
,,?,0.00123,0,,,,,,stimuli/images/PICTURE_215.png,LEADER,5cffb12df6c3fb00157b2f39,23/09/1954,2020-09-10_15h44.31.674,proactive3.1,2020.1.2,Win32,60,5f599a131af4471f3d752b7b,5f5a3bae8e6d030aa0f05c77,6,,,,,,boot,,,,,,,,,,,5,2,0,8,8,43,1,,,,,,,,,,,,,,,,,,,,,,,,,,,,,,,,,,,,,,,,,,,,,,,,,,,,,,,,,,,,,,,,,,,,,,,,,,,,,,,,,,,,,,,,,,,,,,,,,,,,,,,,
,,TOILET,5.296405,1,,,,,,stimuli/images/PICTURE_311.png,TOILET,5cffb12df6c3fb00157b2f39,23/09/1954,2020-09-10_15h44.31.674,proactive3.1,2020.1.2,Win32,60,5f599a131af4471f3d752b7b,5f5a3bae8e6d030aa0f05c77,6,,,,,,razor,,,,,,,,,,,6,2,0,9,9,54,1,,,,,,,,,,,,,,,,,,,,,,,,,,,,,,,,,,,,,,,,,,,,,,,,,,,,,,,,,,,,,,,,,,,,,,,,,,,,,,,,,,,,,,,,,,,,,,,,,,,,,,,,
,,?,6.6984,0,,,,,,stimuli/images/PICTURE_348.png,DUDE,5cffb12df6c3fb00157b2f39,23/09/1954,2020-09-10_15h44.31.674,proactive3.1,2020.1.2,Win32,60,5f599a131af4471f3d752b7b,5f5a3bae8e6d030aa0f05c77,6,,,,,,pepper,,,,,,,,,,,6,2,0,10,10,59,1,,,,,,,,,,,,,,,,,,,,,,,,,,,,,,,,,,,,,,,,,,,,,,,,,,,,,,,,,,,,,,,,,,,,,,,,,,,,,,,,,,,,,,,,,,,,,,,,,,,,,,,,
,,?,0.00111,0,,,,,,stimuli/images/PICTURE_208.png,SPIRIT,5cffb12df6c3fb00157b2f39,23/09/1954,2020-09-10_15h44.31.674,proactive3.1,2020.1.2,Win32,60,5f599a131af4471f3d752b7b,5f5a3bae8e6d030aa0f05c77,6,,,,,,microphone,,,,,,,,,,,3,2,0,11,11,28,1,,,,,,,,,,,,,,,,,,,,,,,,,,,,,,,,,,,,,,,,,,,,,,,,,,,,,,,,,,,,,,,,,,,,,,,,,,,,,,,,,,,,,,,,,,,,,,,,,,,,,,,,
,,?,0.001145,0,,,,,,stimuli/images/PICTURE_405.png,JUNGLE,5cffb12df6c3fb00157b2f39,23/09/1954,2020-09-10_15h44.31.674,proactive3.1,2020.1.2,Win32,60,5f599a131af4471f3d752b7b,5f5a3bae8e6d030aa0f05c77,6,,,,,,anchor,,,,,,,,,,,2,2,0,12,12,13,1,,,,,,,,,,,,,,,,,,,,,,,,,,,,,,,,,,,,,,,,,,,,,,,,,,,,,,,,,,,,,,,,,,,,,,,,,,,,,,,,,,,,,,,,,,,,,,,,,,,,,,,,
,,?,0.00104,0,,,,,,stimuli/images/PICTURE_487.png,POLICY,5cffb12df6c3fb00157b2f39,23/09/1954,2020-09-10_15h44.31.674,proactive3.1,2020.1.2,Win32,60,5f599a131af4471f3d752b7b,5f5a3bae8e6d030aa0f05c77,6,,,,,,basket,,,,,,,,,,,4,2,0,13,13,34,1,,,,,,,,,,,,,,,,,,,,,,,,,,,,,,,,,,,,,,,,,,,,,,,,,,,,,,,,,,,,,,,,,,,,,,,,,,,,,,,,,,,,,,,,,,,,,,,,,,,,,,,,
,,?,0.001315,0,,,,,,stimuli/images/PICTURE_504.png,HOUSE,5cffb12df6c3fb00157b2f39,23/09/1954,2020-09-10_15h44.31.674,proactive3.1,2020.1.2,Win32,60,5f599a131af4471f3d752b7b,5f5a3bae8e6d030aa0f05c77,6,,,,,,wheel,,,,,,,,,,,4,2,0,14,14,36,1,,,,,,,,,,,,,,,,,,,,,,,,,,,,,,,,,,,,,,,,,,,,,,,,,,,,,,,,,,,,,,,,,,,,,,,,,,,,,,,,,,,,,,,,,,,,,,,,,,,,,,,,
,,?,0.00135,0,,,,,,stimuli/images/PICTURE_2.png,JUNGLE,5cffb12df6c3fb00157b2f39,23/09/1954,2020-09-10_15h44.31.674,proactive3.1,2020.1.2,Win32,60,5f599a131af4471f3d752b7b,5f5a3bae8e6d030aa0f05c77,6,,,,,,tyre,,,,,,,,,,,1,2,0,15,15,1,1,,,,,,,,,,,,,,,,,,,,,,,,,,,,,,,,,,,,,,,,,,,,,,,,,,,,,,,,,,,,,,,,,,,,,,,,,,,,,,,,,,,,,,,,,,,,,,,,,,,,,,,,
,,?,0.00142,0,,,,,,stimuli/images/PICTURE_95.png,NIGHT,5cffb12df6c3fb00157b2f39,23/09/1954,2020-09-10_15h44.31.674,proactive3.1,2020.1.2,Win32,60,5f599a131af4471f3d752b7b,5f5a3bae8e6d030aa0f05c77,6,,,,,,suitcase,,,,,,,,,,,4,2,0,16,16,37,1,,,,,,,,,,,,,,,,,,,,,,,,,,,,,,,,,,,,,,,,,,,,,,,,,,,,,,,,,,,,,,,,,,,,,,,,,,,,,,,,,,,,,,,,,,,,,,,,,,,,,,,,
,,?,0.0022,0,,,,,,stimuli/images/PICTURE_33.png,COPS,5cffb12df6c3fb00157b2f39,23/09/1954,2020-09-10_15h44.31.674,proactive3.1,2020.1.2,Win32,60,5f599a131af4471f3d752b7b,5f5a3bae8e6d030aa0f05c77,6,,,,,,frame,,,,,,,,,,,3,2,0,17,17,29,1,,,,,,,,,,,,,,,,,,,,,,,,,,,,,,,,,,,,,,,,,,,,,,,,,,,,,,,,,,,,,,,,,,,,,,,,,,,,,,,,,,,,,,,,,,,,,,,,,,,,,,,,
,,?,0.001485,0,,,,,,stimuli/images/PICTURE_215.png,BOYS,5cffb12df6c3fb00157b2f39,23/09/1954,2020-09-10_15h44.31.674,proactive3.1,2020.1.2,Win32,60,5f599a131af4471f3d752b7b,5f5a3bae8e6d030aa0f05c77,6,,,,,,boot,,,,,,,,,,,3,2,0,18,18,24,1,,,,,,,,,,,,,,,,,,,,,,,,,,,,,,,,,,,,,,,,,,,,,,,,,,,,,,,,,,,,,,,,,,,,,,,,,,,,,,,,,,,,,,,,,,,,,,,,,,,,,,,,
,,?,0.00203,0,,,,,,stimuli/images/PICTURE_285.png,PRINCE,5cffb12df6c3fb00157b2f39,23/09/1954,2020-09-10_15h44.31.674,proactive3.1,2020.1.2,Win32,60,5f599a131af4471f3d752b7b,5f5a3bae8e6d030aa0f05c77,6,,,,,,carrot,,,,,,,,,,,3,2,0,19,19,20,1,,,,,,,,,,,,,,,,,,,,,,,,,,,,,,,,,,,,,,,,,,,,,,,,,,,,,,,,,,,,,,,,,,,,,,,,,,,,,,,,,,,,,,,,,,,,,,,,,,,,,,,,
,,?,0.001835,0,,,,,,stimuli/images/PICTURE_654.png,COPS,5cffb12df6c3fb00157b2f39,23/09/1954,2020-09-10_15h44.31.674,proactive3.1,2020.1.2,Win32,60,5f599a131af4471f3d752b7b,5f5a3bae8e6d030aa0f05c77,6,,,,,,pencil,,,,,,,,,,,2,2,0,20,20,10,1,,,,,,,,,,,,,,,,,,,,,,,,,,,,,,,,,,,,,,,,,,,,,,,,,,,,,,,,,,,,,,,,,,,,,,,,,,,,,,,,,,,,,,,,,,,,,,,,,,,,,,,,
,,?,0.002155,0,,,,,,stimuli/images/PICTURE_470.png,MOMENT,5cffb12df6c3fb00157b2f39,23/09/1954,2020-09-10_15h44.31.674,proactive3.1,2020.1.2,Win32,60,5f599a131af4471f3d752b7b,5f5a3bae8e6d030aa0f05c77,6,,,,,,motorbike,,,,,,,,,,,5,2,0,21,21,40,1,,,,,,,,,,,,,,,,,,,,,,,,,,,,,,,,,,,,,,,,,,,,,,,,,,,,,,,,,,,,,,,,,,,,,,,,,,,,,,,,,,,,,,,,,,,,,,,,,,,,,,,,
,,?,13.596175,0,,,,,,stimuli/images/PICTURE_487.png,ROOF,5cffb12df6c3fb00157b2f39,23/09/1954,2020-09-10_15h44.31.674,proactive3.1,2020.1.2,Win32,60,5f599a131af4471f3d752b7b,5f5a3bae8e6d030aa0f05c77,6,,,,,,basket,,,,,,,,,,,6,2,0,22,22,50,1,,,,,,,,,,,,,,,,,,,,,,,,,,,,,,,,,,,,,,,,,,,,,,,,,,,,,,,,,,,,,,,,,,,,,,,,,,,,,,,,,,,,,,,,,,,,,,,,,,,,,,,,
,,?,0.001155,0,,,,,,stimuli/images/PICTURE_708.png,VALLEY,5cffb12df6c3fb00157b2f39,23/09/1954,2020-09-10_15h44.31.674,proactive3.1,2020.1.2,Win32,60,5f599a131af4471f3d752b7b,5f5a3bae8e6d030aa0f05c77,6,,,,,,monkey,,,,,,,,,,,5,2,0,23,23,45,1,,,,,,,,,,,,,,,,,,,,,,,,,,,,,,,,,,,,,,,,,,,,,,,,,,,,,,,,,,,,,,,,,,,,,,,,,,,,,,,,,,,,,,,,,,,,,,,,,,,,,,,,
,,MAP,11.63433,0,,,,,,stimuli/images/PICTURE_297.png,BODY,5cffb12df6c3fb00157b2f39,23/09/1954,2020-09-10_15h44.31.674,proactive3.1,2020.1.2,Win32,60,5f599a131af4471f3d752b7b,5f5a3bae8e6d030aa0f05c77,6,,,,,,aeroplane,,,,,,,,,,,6,2,0,24,24,51,1,,,,,,,,,,,,,,,,,,,,,,,,,,,,,,,,,,,,,,,,,,,,,,,,,,,,,,,,,,,,,,,,,,,,,,,,,,,,,,,,,,,,,,,,,,,,,,,,,,,,,,,,
,,?,0.00114,0,,,,,,stimuli/images/PICTURE_403.png,FAMILY,5cffb12df6c3fb00157b2f39,23/09/1954,2020-09-10_15h44.31.674,proactive3.1,2020.1.2,Win32,60,5f599a131af4471f3d752b7b,5f5a3bae8e6d030aa0f05c77,6,,,,,,cathedral,,,,,,,,,,,1,2,0,25,25,9,1,,,,,,,,,,,,,,,,,,,,,,,,,,,,,,,,,,,,,,,,,,,,,,,,,,,,,,,,,,,,,,,,,,,,,,,,,,,,,,,,,,,,,,,,,,,,,,,,,,,,,,,,
,,?,0.000705,0,,,,,,stimuli/images/PICTURE_177.png,HOUSE,5cffb12df6c3fb00157b2f39,23/09/1954,2020-09-10_15h44.31.674,proactive3.1,2020.1.2,Win32,60,5f599a131af4471f3d752b7b,5f5a3bae8e6d030aa0f05c77,6,,,,,,mushroom,,,,,,,,,,,3,2,0,26,26,25,1,,,,,,,,,,,,,,,,,,,,,,,,,,,,,,,,,,,,,,,,,,,,,,,,,,,,,,,,,,,,,,,,,,,,,,,,,,,,,,,,,,,,,,,,,,,,,,,,,,,,,,,,
,,?,7.29964,0,,,,,,stimuli/images/PICTURE_32.png,LETTER,5cffb12df6c3fb00157b2f39,23/09/1954,2020-09-10_15h44.31.674,proactive3.1,2020.1.2,Win32,60,5f599a131af4471f3d752b7b,5f5a3bae8e6d030aa0f05c77,6,,,,,,crown,,,,,,,,,,,6,2,0,27,27,56,1,,,,,,,,,,,,,,,,,,,,,,,,,,,,,,,,,,,,,,,,,,,,,,,,,,,,,,,,,,,,,,,,,,,,,,,,,,,,,,,,,,,,,,,,,,,,,,,,,,,,,,,,
,,?,0.001165,0,,,,,,stimuli/images/PICTURE_18.png,RIVER,5cffb12df6c3fb00157b2f39,23/09/1954,2020-09-10_15h44.31.674,proactive3.1,2020.1.2,Win32,60,5f599a131af4471f3d752b7b,5f5a3bae8e6d030aa0f05c77,6,,,,,,planet,,,,,,,,,,,3,2,0,28,28,22,1,,,,,,,,,,,,,,,,,,,,,,,,,,,,,,,,,,,,,,,,,,,,,,,,,,,,,,,,,,,,,,,,,,,,,,,,,,,,,,,,,,,,,,,,,,,,,,,,,,,,,,,,
,,?,0.000755,0,,,,,,stimuli/images/PICTURE_348.png,TOILET,5cffb12df6c3fb00157b2f39,23/09/1954,2020-09-10_15h44.31.674,proactive3.1,2020.1.2,Win32,60,5f599a131af4471f3d752b7b,5f5a3bae8e6d030aa0f05c77,6,,,,,,pepper,,,,,,,,,,,1,2,0,29,29,4,1,,,,,,,,,,,,,,,,,,,,,,,,,,,,,,,,,,,,,,,,,,,,,,,,,,,,,,,,,,,,,,,,,,,,,,,,,,,,,,,,,,,,,,,,,,,,,,,,,,,,,,,,
,,?,0.00068,0,,,,,,stimuli/images/PICTURE_160.png,HOTEL,5cffb12df6c3fb00157b2f39,23/09/1954,2020-09-10_15h44.31.674,proactive3.1,2020.1.2,Win32,60,5f599a131af4471f3d752b7b,5f5a3bae8e6d030aa0f05c77,6,,,,,,wheelbarrow,,,,,,,,,,,2,2,0,30,30,16,1,,,,,,,,,,,,,,,,,,,,,,,,,,,,,,,,,,,,,,,,,,,,,,,,,,,,,,,,,,,,,,,,,,,,,,,,,,,,,,,,,,,,,,,,,,,,,,,,,,,,,,,,
,,?,0.00077,0,,,,,,stimuli/images/PICTURE_509.png,APPLE,5cffb12df6c3fb00157b2f39,23/09/1954,2020-09-10_15h44.31.674,proactive3.1,2020.1.2,Win32,60,5f599a131af4471f3d752b7b,5f5a3bae8e6d030aa0f05c77,6,,,,,,telephone,,,,,,,,,,,4,2,0,31,31,38,1,,,,,,,,,,,,,,,,,,,,,,,,,,,,,,,,,,,,,,,,,,,,,,,,,,,,,,,,,,,,,,,,,,,,,,,,,,,,,,,,,,,,,,,,,,,,,,,,,,,,,,,,
,,?,0.000685,0,,,,,,stimuli/images/PICTURE_452.png,COPS,5cffb12df6c3fb00157b2f39,23/09/1954,2020-09-10_15h44.31.674,proactive3.1,2020.1.2,Win32,60,5f599a131af4471f3d752b7b,5f5a3bae8e6d030aa0f05c77,6,,,,,,watch,,,,,,,,,,,1,2,0,32,32,0,1,,,,,,,,,,,,,,,,,,,,,,,,,,,,,,,,,,,,,,,,,,,,,,,,,,,,,,,,,,,,,,,,,,,,,,,,,,,,,,,,,,,,,,,,,,,,,,,,,,,,,,,,
,,?,0.00068,0,,,,,,stimuli/images/PICTURE_453.png,FAMILY,5cffb12df6c3fb00157b2f39,23/09/1954,2020-09-10_15h44.31.674,proactive3.1,2020.1.2,Win32,60,5f599a131af4471f3d752b7b,5f5a3bae8e6d030aa0f05c77,6,,,,,,scissors,,,,,,,,,,,5,2,0,33,33,48,1,,,,,,,,,,,,,,,,,,,,,,,,,,,,,,,,,,,,,,,,,,,,,,,,,,,,,,,,,,,,,,,,,,,,,,,,,,,,,,,,,,,,,,,,,,,,,,,,,,,,,,,,
,,?,0.000685,0,,,,,,stimuli/images/PICTURE_327.png,LEADER,5cffb12df6c3fb00157b2f39,23/09/1954,2020-09-10_15h44.31.674,proactive3.1,2020.1.2,Win32,60,5f599a131af4471f3d752b7b,5f5a3bae8e6d030aa0f05c77,6,,,,,,helmet,,,,,,,,,,,2,2,0,34,34,17,1,,,,,,,,,,,,,,,,,,,,,,,,,,,,,,,,,,,,,,,,,,,,,,,,,,,,,,,,,,,,,,,,,,,,,,,,,,,,,,,,,,,,,,,,,,,,,,,,,,,,,,,,
,,JUNGLE,6.79971,1,,,,,,stimuli/images/PICTURE_405.png,JUNGLE,5cffb12df6c3fb00157b2f39,23/09/1954,2020-09-10_15h44.31.674,proactive3.1,2020.1.2,Win32,60,5f599a131af4471f3d752b7b,5f5a3bae8e6d030aa0f05c77,6,,,,,,anchor,,,,,,,,,,,6,2,0,35,35,58,1,,,,,,,,,,,,,,,,,,,,,,,,,,,,,,,,,,,,,,,,,,,,,,,,,,,,,,,,,,,,,,,,,,,,,,,,,,,,,,,,,,,,,,,,,,,,,,,,,,,,,,,,
,,?,0.00111,0,,,,,,stimuli/images/PICTURE_750.png,POLICY,5cffb12df6c3fb00157b2f39,23/09/1954,2020-09-10_15h44.31.674,proactive3.1,2020.1.2,Win32,60,5f599a131af4471f3d752b7b,5f5a3bae8e6d030aa0f05c77,6,,,,,,kettle,,,,,,,,,,,5,2,0,36,36,44,1,,,,,,,,,,,,,,,,,,,,,,,,,,,,,,,,,,,,,,,,,,,,,,,,,,,,,,,,,,,,,,,,,,,,,,,,,,,,,,,,,,,,,,,,,,,,,,,,,,,,,,,,
,,?,0.00079,0,,,,,,stimuli/images/PICTURE_314.png,SPEECH,5cffb12df6c3fb00157b2f39,23/09/1954,2020-09-10_15h44.31.674,proactive3.1,2020.1.2,Win32,60,5f599a131af4471f3d752b7b,5f5a3bae8e6d030aa0f05c77,6,,,,,,perfume,,,,,,,,,,,4,2,0,37,37,35,1,,,,,,,,,,,,,,,,,,,,,,,,,,,,,,,,,,,,,,,,,,,,,,,,,,,,,,,,,,,,,,,,,,,,,,,,,,,,,,,,,,,,,,,,,,,,,,,,,,,,,,,,
,,?,0.00128,0,,,,,,stimuli/images/PICTURE_564.png,PLENTY,5cffb12df6c3fb00157b2f39,23/09/1954,2020-09-10_15h44.31.674,proactive3.1,2020.1.2,Win32,60,5f599a131af4471f3d752b7b,5f5a3bae8e6d030aa0f05c77,6,,,,,,spoon,,,,,,,,,,,2,2,0,38,38,11,1,,,,,,,,,,,,,,,,,,,,,,,,,,,,,,,,,,,,,,,,,,,,,,,,,,,,,,,,,,,,,,,,,,,,,,,,,,,,,,,,,,,,,,,,,,,,,,,,,,,,,,,,
,,?,0.000775,0,,,,,,stimuli/images/PICTURE_123.png,SALE,5cffb12df6c3fb00157b2f39,23/09/1954,2020-09-10_15h44.31.674,proactive3.1,2020.1.2,Win32,60,5f599a131af4471f3d752b7b,5f5a3bae8e6d030aa0f05c77,6,,,,,,dart,,,,,,,,,,,1,2,0,39,39,8,1,,,,,,,,,,,,,,,,,,,,,,,,,,,,,,,,,,,,,,,,,,,,,,,,,,,,,,,,,,,,,,,,,,,,,,,,,,,,,,,,,,,,,,,,,,,,,,,,,,,,,,,,
,,?,0.00075,0,,,,,,stimuli/images/PICTURE_215.png,FOOD,5cffb12df6c3fb00157b2f39,23/09/1954,2020-09-10_15h44.31.674,proactive3.1,2020.1.2,Win32,60,5f599a131af4471f3d752b7b,5f5a3bae8e6d030aa0f05c77,6,,,,,,boot,,,,,,,,,,,1,2,0,40,40,5,1,,,,,,,,,,,,,,,,,,,,,,,,,,,,,,,,,,,,,,,,,,,,,,,,,,,,,,,,,,,,,,,,,,,,,,,,,,,,,,,,,,,,,,,,,,,,,,,,,,,,,,,,
,,?,0.00069,0,,,,,,stimuli/images/PICTURE_57.png,NATION,5cffb12df6c3fb00157b2f39,23/09/1954,2020-09-10_15h44.31.674,proactive3.1,2020.1.2,Win32,60,5f599a131af4471f3d752b7b,5f5a3bae8e6d030aa0f05c77,6,,,,,,stamp,,,,,,,,,,,3,2,0,41,41,21,1,,,,,,,,,,,,,,,,,,,,,,,,,,,,,,,,,,,,,,,,,,,,,,,,,,,,,,,,,,,,,,,,,,,,,,,,,,,,,,,,,,,,,,,,,,,,,,,,,,,,,,,,
,,?,0.00087,0,,,,,,stimuli/images/PICTURE_692.png,DUDE,5cffb12df6c3fb00157b2f39,23/09/1954,2020-09-10_15h44.31.674,proactive3.1,2020.1.2,Win32,60,5f599a131af4471f3d752b7b,5f5a3bae8e6d030aa0f05c77,6,,,,,,cherry,,,,,,,,,,,5,2,0,42,42,47,1,,,,,,,,,,,,,,,,,,,,,,,,,,,,,,,,,,,,,,,,,,,,,,,,,,,,,,,,,,,,,,,,,,,,,,,,,,,,,,,,,,,,,,,,,,,,,,,,,,,,,,,,
,,?,0.000675,0,,,,,,stimuli/images/PICTURE_57.png,CASINO,5cffb12df6c3fb00157b2f39,23/09/1954,2020-09-10_15h44.31.674,proactive3.1,2020.1.2,Win32,60,5f599a131af4471f3d752b7b,5f5a3bae8e6d030aa0f05c77,6,,,,,,stamp,,,,,,,,,,,2,2,0,43,43,12,1,,,,,,,,,,,,,,,,,,,,,,,,,,,,,,,,,,,,,,,,,,,,,,,,,,,,,,,,,,,,,,,,,,,,,,,,,,,,,,,,,,,,,,,,,,,,,,,,,,,,,,,,
,,CANDY,6.97387,1,,,,,,stimuli/images/PICTURE_57.png,CANDY,5cffb12df6c3fb00157b2f39,23/09/1954,2020-09-10_15h44.31.674,proactive3.1,2020.1.2,Win32,60,5f599a131af4471f3d752b7b,5f5a3bae8e6d030aa0f05c77,6,,,,,,stamp,,,,,,,,,,,6,2,0,44,44,52,1,,,,,,,,,,,,,,,,,,,,,,,,,,,,,,,,,,,,,,,,,,,,,,,,,,,,,,,,,,,,,,,,,,,,,,,,,,,,,,,,,,,,,,,,,,,,,,,,,,,,,,,,
,,?,9.26558,0,,,,,,stimuli/images/PICTURE_655.png,SALE,5cffb12df6c3fb00157b2f39,23/09/1954,2020-09-10_15h44.31.674,proactive3.1,2020.1.2,Win32,60,5f599a131af4471f3d752b7b,5f5a3bae8e6d030aa0f05c77,6,,,,,,megaphone,,,,,,,,,,,6,2,0,45,45,57,1,,,,,,,,,,,,,,,,,,,,,,,,,,,,,,,,,,,,,,,,,,,,,,,,,,,,,,,,,,,,,,,,,,,,,,,,,,,,,,,,,,,,,,,,,,,,,,,,,,,,,,,,
,,?,0.001635,0,,,,,,stimuli/images/PICTURE_285.png,WRITER,5cffb12df6c3fb00157b2f39,23/09/1954,2020-09-10_15h44.31.674,proactive3.1,2020.1.2,Win32,60,5f599a131af4471f3d752b7b,5f5a3bae8e6d030aa0f05c77,6,,,,,,carrot,,,,,,,,,,,1,2,0,46,46,6,1,,,,,,,,,,,,,,,,,,,,,,,,,,,,,,,,,,,,,,,,,,,,,,,,,,,,,,,,,,,,,,,,,,,,,,,,,,,,,,,,,,,,,,,,,,,,,,,,,,,,,,,,
,,?,15.01541,0,,,,,,stimuli/images/PICTURE_677.png,FAMILY,5cffb12df6c3fb00157b2f39,23/09/1954,2020-09-10_15h44.31.674,proactive3.1,2020.1.2,Win32,60,5f599a131af4471f3d752b7b,5f5a3bae8e6d030aa0f05c77,6,,,,,,map,,,,,,,,,,,6,2,0,47,47,53,1,,,,,,,,,,,,,,,,,,,,,,,,,,,,,,,,,,,,,,,,,,,,,,,,,,,,,,,,,,,,,,,,,,,,,,,,,,,,,,,,,,,,,,,,,,,,,,,,,,,,,,,,
,,?,0.001105,0,,,,,,stimuli/images/PICTURE_255.png,PENNY,5cffb12df6c3fb00157b2f39,23/09/1954,2020-09-10_15h44.31.674,proactive3.1,2020.1.2,Win32,60,5f599a131af4471f3d752b7b,5f5a3bae8e6d030aa0f05c77,6,,,,,,shovel,,,,,,,,,,,2,2,0,48,48,19,1,,,,,,,,,,,,,,,,,,,,,,,,,,,,,,,,,,,,,,,,,,,,,,,,,,,,,,,,,,,,,,,,,,,,,,,,,,,,,,,,,,,,,,,,,,,,,,,,,,,,,,,,
,,?,0.00071,0,,,,,,stimuli/images/PICTURE_667.png,GLASS,5cffb12df6c3fb00157b2f39,23/09/1954,2020-09-10_15h44.31.674,proactive3.1,2020.1.2,Win32,60,5f599a131af4471f3d752b7b,5f5a3bae8e6d030aa0f05c77,6,,,,,,daisy,,,,,,,,,,,3,2,0,49,49,27,1,,,,,,,,,,,,,,,,,,,,,,,,,,,,,,,,,,,,,,,,,,,,,,,,,,,,,,,,,,,,,,,,,,,,,,,,,,,,,,,,,,,,,,,,,,,,,,,,,,,,,,,,
,,?,0.000715,0,,,,,,stimuli/images/PICTURE_677.png,PHOTO,5cffb12df6c3fb00157b2f39,23/09/1954,2020-09-10_15h44.31.674,proactive3.1,2020.1.2,Win32,60,5f599a131af4471f3d752b7b,5f5a3bae8e6d030aa0f05c77,6,,,,,,map,,,,,,,,,,,2,2,0,50,50,14,1,,,,,,,,,,,,,,,,,,,,,,,,,,,,,,,,,,,,,,,,,,,,,,,,,,,,,,,,,,,,,,,,,,,,,,,,,,,,,,,,,,,,,,,,,,,,,,,,,,,,,,,,
,,?,0.000775,0,,,,,,stimuli/images/PICTURE_405.png,HOUSE,5cffb12df6c3fb00157b2f39,23/09/1954,2020-09-10_15h44.31.674,proactive3.1,2020.1.2,Win32,60,5f599a131af4471f3d752b7b,5f5a3bae8e6d030aa0f05c77,6,,,,,,anchor,,,,,,,,,,,1,2,0,51,51,2,1,,,,,,,,,,,,,,,,,,,,,,,,,,,,,,,,,,,,,,,,,,,,,,,,,,,,,,,,,,,,,,,,,,,,,,,,,,,,,,,,,,,,,,,,,,,,,,,,,,,,,,,,
,,?,0.00073,0,,,,,,stimuli/images/PICTURE_311.png,FLESH,5cffb12df6c3fb00157b2f39,23/09/1954,2020-09-10_15h44.31.674,proactive3.1,2020.1.2,Win32,60,5f599a131af4471f3d752b7b,5f5a3bae8e6d030aa0f05c77,6,,,,,,razor,,,,,,,,,,,1,2,0,52,52,3,1,,,,,,,,,,,,,,,,,,,,,,,,,,,,,,,,,,,,,,,,,,,,,,,,,,,,,,,,,,,,,,,,,,,,,,,,,,,,,,,,,,,,,,,,,,,,,,,,,,,,,,,,
,,?,0.000695,0,,,,,,stimuli/images/PICTURE_147.png,LEADER,5cffb12df6c3fb00157b2f39,23/09/1954,2020-09-10_15h44.31.674,proactive3.1,2020.1.2,Win32,60,5f599a131af4471f3d752b7b,5f5a3bae8e6d030aa0f05c77,6,,,,,,hanger,,,,,,,,,,,4,2,0,53,53,33,1,,,,,,,,,,,,,,,,,,,,,,,,,,,,,,,,,,,,,,,,,,,,,,,,,,,,,,,,,,,,,,,,,,,,,,,,,,,,,,,,,,,,,,,,,,,,,,,,,,,,,,,,
,,?,0.001135,0,,,,,,stimuli/images/PICTURE_2.png,AREA,5cffb12df6c3fb00157b2f39,23/09/1954,2020-09-10_15h44.31.674,proactive3.1,2020.1.2,Win32,60,5f599a131af4471f3d752b7b,5f5a3bae8e6d030aa0f05c77,6,,,,,,tyre,,,,,,,,,,,4,2,0,54,54,32,1,,,,,,,,,,,,,,,,,,,,,,,,,,,,,,,,,,,,,,,,,,,,,,,,,,,,,,,,,,,,,,,,,,,,,,,,,,,,,,,,,,,,,,,,,,,,,,,,,,,,,,,,
,,?,0.000695,0,,,,,,stimuli/images/PICTURE_470.png,BEAUTY,5cffb12df6c3fb00157b2f39,23/09/1954,2020-09-10_15h44.31.674,proactive3.1,2020.1.2,Win32,60,5f599a131af4471f3d752b7b,5f5a3bae8e6d030aa0f05c77,6,,,,,,motorbike,,,,,,,,,,,3,2,0,55,55,26,1,,,,,,,,,,,,,,,,,,,,,,,,,,,,,,,,,,,,,,,,,,,,,,,,,,,,,,,,,,,,,,,,,,,,,,,,,,,,,,,,,,,,,,,,,,,,,,,,,,,,,,,,
,,?,0.00068,0,,,,,,stimuli/images/PICTURE_491.png,SERIES,5cffb12df6c3fb00157b2f39,23/09/1954,2020-09-10_15h44.31.674,proactive3.1,2020.1.2,Win32,60,5f599a131af4471f3d752b7b,5f5a3bae8e6d030aa0f05c77,6,,,,,,rug,,,,,,,,,,,4,2,0,56,56,39,1,,,,,,,,,,,,,,,,,,,,,,,,,,,,,,,,,,,,,,,,,,,,,,,,,,,,,,,,,,,,,,,,,,,,,,,,,,,,,,,,,,,,,,,,,,,,,,,,,,,,,,,,
,,?,0.00071,0,,,,,,stimuli/images/PICTURE_509.png,SHOTS,5cffb12df6c3fb00157b2f39,23/09/1954,2020-09-10_15h44.31.674,proactive3.1,2020.1.2,Win32,60,5f599a131af4471f3d752b7b,5f5a3bae8e6d030aa0f05c77,6,,,,,,telephone,,,,,,,,,,,1,2,0,57,57,7,1,,,,,,,,,,,,,,,,,,,,,,,,,,,,,,,,,,,,,,,,,,,,,,,,,,,,,,,,,,,,,,,,,,,,,,,,,,,,,,,,,,,,,,,,,,,,,,,,,,,,,,,,
,,?,0.000655,0,,,,,,stimuli/images/PICTURE_688.png,CLOCK,5cffb12df6c3fb00157b2f39,23/09/1954,2020-09-10_15h44.31.674,proactive3.1,2020.1.2,Win32,60,5f599a131af4471f3d752b7b,5f5a3bae8e6d030aa0f05c77,6,,,,,,runner,,,,,,,,,,,5,2,0,58,58,42,1,,,,,,,,,,,,,,,,,,,,,,,,,,,,,,,,,,,,,,,,,,,,,,,,,,,,,,,,,,,,,,,,,,,,,,,,,,,,,,,,,,,,,,,,,,,,,,,,,,,,,,,,
,,?,0.000665,0,,,,,,stimuli/images/PICTURE_509.png,BATH,5cffb12df6c3fb00157b2f39,23/09/1954,2020-09-10_15h44.31.674,proactive3.1,2020.1.2,Win32,60,5f599a131af4471f3d752b7b,5f5a3bae8e6d030aa0f05c77,6,,,,,,telephone,,,,,,,,,,,2,2,0,59,59,15,1,,,,,,,,,,,,,,,,,,,,,,,,,,,,,,,,,,,,,,,,,,,,,,,,,,,,,,,,,,,,,,,,,,,,,,,,,,,,,,,,,,,,,,,,,,,,,,,,,,,,,,,,
,,,,,,,,,,,,5cffb12df6c3fb00157b2f39,23/09/1954,2020-09-10_15h44.31.674,proactive3.1,2020.1.2,Win32,60,5f599a131af4471f3d752b7b,5f5a3bae8e6d030aa0f05c77,6,,,,,,,,,,,,,,,,,,,,,,,,0,1,1,2,1,stimuli/learn-block3.csv,,,,,,,,,,,,,,,,,,,,,,,,,,,,,,,,,,,,,,,,,,,,,,,,,,,,,,,,,,,,,,,,,,,,,,,,,,,,,,,,,,,,,,,,,,,,,,,,,,
,,,,,,,,,,stimuli/images/PICTURE_470.png,CASINO,5cffb12df6c3fb00157b2f39,23/09/1954,2020-09-10_15h44.31.674,proactive3.1,2020.1.2,Win32,60,5f599a131af4471f3d752b7b,5f5a3bae8e6d030aa0f05c77,6,,,,,,motorbike,,,,,,0,0,0,36,1,4,0,,,,,,,,,,,,,,,,,,,,,,,,,,,,,,,,,,,,,,,,,,,,,,,,,,,,,,,,,,,,,,,,,,,,,,,,,,,,,,,,,,,,,,,,,,,,,,,,,,,,,,,,,,,,,
,,,,,,,,,,stimuli/images/PICTURE_248.png,DOZEN,5cffb12df6c3fb00157b2f39,23/09/1954,2020-09-10_15h44.31.674,proactive3.1,2020.1.2,Win32,60,5f599a131af4471f3d752b7b,5f5a3bae8e6d030aa0f05c77,6,,,,,,cart,,,,,,0,1,1,39,1,4,0,,,,,,,,,,,,,,,,,,,,,,,,,,,,,,,,,,,,,,,,,,,,,,,,,,,,,,,,,,,,,,,,,,,,,,,,,,,,,,,,,,,,,,,,,,,,,,,,,,,,,,,,,,,,,
,,,,,,,,,,stimuli/images/PICTURE_688.png,WOMEN,5cffb12df6c3fb00157b2f39,23/09/1954,2020-09-10_15h44.31.674,proactive3.1,2020.1.2,Win32,60,5f599a131af4471f3d752b7b,5f5a3bae8e6d030aa0f05c77,6,,,,,,runner,,,,,,0,2,2,14,1,2,0,,,,,,,,,,,,,,,,,,,,,,,,,,,,,,,,,,,,,,,,,,,,,,,,,,,,,,,,,,,,,,,,,,,,,,,,,,,,,,,,,,,,,,,,,,,,,,,,,,,,,,,,,,,,,
,,,,,,,,,,stimuli/images/PICTURE_677.png,MILE,5cffb12df6c3fb00157b2f39,23/09/1954,2020-09-10_15h44.31.674,proactive3.1,2020.1.2,Win32,60,5f599a131af4471f3d752b7b,5f5a3bae8e6d030aa0f05c77,6,,,,,,map,,,,,,0,3,3,30,1,4,0,,,,,,,,,,,,,,,,,,,,,,,,,,,,,,,,,,,,,,,,,,,,,,,,,,,,,,,,,,,,,,,,,,,,,,,,,,,,,,,,,,,,,,,,,,,,,,,,,,,,,,,,,,,,,
,,,,,,,,,,stimuli/images/PICTURE_744.png,SYSTEM,5cffb12df6c3fb00157b2f39,23/09/1954,2020-09-10_15h44.31.674,proactive3.1,2020.1.2,Win32,60,5f599a131af4471f3d752b7b,5f5a3bae8e6d030aa0f05c77,6,,,,,,ring,,,,,,0,4,4,43,1,5,0,,,,,,,,,,,,,,,,,,,,,,,,,,,,,,,,,,,,,,,,,,,,,,,,,,,,,,,,,,,,,,,,,,,,,,,,,,,,,,,,,,,,,,,,,,,,,,,,,,,,,,,,,,,,,
,,,,,,,,,,stimuli/images/PICTURE_327.png,BEAUTY,5cffb12df6c3fb00157b2f39,23/09/1954,2020-09-10_15h44.31.674,proactive3.1,2020.1.2,Win32,60,5f599a131af4471f3d752b7b,5f5a3bae8e6d030aa0f05c77,6,,,,,,helmet,,,,,,0,5,5,48,1,5,0,,,,,,,,,,,,,,,,,,,,,,,,,,,,,,,,,,,,,,,,,,,,,,,,,,,,,,,,,,,,,,,,,,,,,,,,,,,,,,,,,,,,,,,,,,,,,,,,,,,,,,,,,,,,,
,,,,,,,,,,stimuli/images/PICTURE_255.png,AREA,5cffb12df6c3fb00157b2f39,23/09/1954,2020-09-10_15h44.31.674,proactive3.1,2020.1.2,Win32,60,5f599a131af4471f3d752b7b,5f5a3bae8e6d030aa0f05c77,6,,,,,,shovel,,,,,,0,6,6,22,1,3,0,,,,,,,,,,,,,,,,,,,,,,,,,,,,,,,,,,,,,,,,,,,,,,,,,,,,,,,,,,,,,,,,,,,,,,,,,,,,,,,,,,,,,,,,,,,,,,,,,,,,,,,,,,,,,
,,,,,,,,,,stimuli/images/PICTURE_233.png,IDEAS,5cffb12df6c3fb00157b2f39,23/09/1954,2020-09-10_15h44.31.674,proactive3.1,2020.1.2,Win32,60,5f599a131af4471f3d752b7b,5f5a3bae8e6d030aa0f05c77,6,,,,,,salt,,,,,,0,7,7,28,1,3,0,,,,,,,,,,,,,,,,,,,,,,,,,,,,,,,,,,,,,,,,,,,,,,,,,,,,,,,,,,,,,,,,,,,,,,,,,,,,,,,,,,,,,,,,,,,,,,,,,,,,,,,,,,,,,
,,,,,,,,,,stimuli/images/PICTURE_160.png,LEADER,5cffb12df6c3fb00157b2f39,23/09/1954,2020-09-10_15h44.31.674,proactive3.1,2020.1.2,Win32,60,5f599a131af4471f3d752b7b,5f5a3bae8e6d030aa0f05c77,6,,,,,,wheelbarrow,,,,,,0,8,8,3,1,1,0,,,,,,,,,,,,,,,,,,,,,,,,,,,,,,,,,,,,,,,,,,,,,,,,,,,,,,,,,,,,,,,,,,,,,,,,,,,,,,,,,,,,,,,,,,,,,,,,,,,,,,,,,,,,,
,,,,,,,,,,stimuli/images/PICTURE_314.png,GODS,5cffb12df6c3fb00157b2f39,23/09/1954,2020-09-10_15h44.31.674,proactive3.1,2020.1.2,Win32,60,5f599a131af4471f3d752b7b,5f5a3bae8e6d030aa0f05c77,6,,,,,,perfume,,,,,,0,9,9,11,1,2,0,,,,,,,,,,,,,,,,,,,,,,,,,,,,,,,,,,,,,,,,,,,,,,,,,,,,,,,,,,,,,,,,,,,,,,,,,,,,,,,,,,,,,,,,,,,,,,,,,,,,,,,,,,,,,
,,,,,,,,,,stimuli/images/PICTURE_151.png,GIRL,5cffb12df6c3fb00157b2f39,23/09/1954,2020-09-10_15h44.31.674,proactive3.1,2020.1.2,Win32,60,5f599a131af4471f3d752b7b,5f5a3bae8e6d030aa0f05c77,6,,,,,,tray,,,,,,0,10,10,19,1,2,0,,,,,,,,,,,,,,,,,,,,,,,,,,,,,,,,,,,,,,,,,,,,,,,,,,,,,,,,,,,,,,,,,,,,,,,,,,,,,,,,,,,,,,,,,,,,,,,,,,,,,,,,,,,,,
,,,,,,,,,,stimuli/images/PICTURE_491.png,ROOF,5cffb12df6c3fb00157b2f39,23/09/1954,2020-09-10_15h44.31.674,proactive3.1,2020.1.2,Win32,60,5f599a131af4471f3d752b7b,5f5a3bae8e6d030aa0f05c77,6,,,,,,rug,,,,,,0,11,11,24,1,3,0,,,,,,,,,,,,,,,,,,,,,,,,,,,,,,,,,,,,,,,,,,,,,,,,,,,,,,,,,,,,,,,,,,,,,,,,,,,,,,,,,,,,,,,,,,,,,,,,,,,,,,,,,,,,,
,,,,,,,,,,stimuli/images/PICTURE_667.png,BATH,5cffb12df6c3fb00157b2f39,23/09/1954,2020-09-10_15h44.31.674,proactive3.1,2020.1.2,Win32,60,5f599a131af4471f3d752b7b,5f5a3bae8e6d030aa0f05c77,6,,,,,,daisy,,,,,,0,12,12,4,1,1,0,,,,,,,,,,,,,,,,,,,,,,,,,,,,,,,,,,,,,,,,,,,,,,,,,,,,,,,,,,,,,,,,,,,,,,,,,,,,,,,,,,,,,,,,,,,,,,,,,,,,,,,,,,,,,
,,,,,,,,,,stimuli/images/PICTURE_488.png,STYLE,5cffb12df6c3fb00157b2f39,23/09/1954,2020-09-10_15h44.31.674,proactive3.1,2020.1.2,Win32,60,5f599a131af4471f3d752b7b,5f5a3bae8e6d030aa0f05c77,6,,,,,,sun,,,,,,0,13,13,33,1,4,0,,,,,,,,,,,,,,,,,,,,,,,,,,,,,,,,,,,,,,,,,,,,,,,,,,,,,,,,,,,,,,,,,,,,,,,,,,,,,,,,,,,,,,,,,,,,,,,,,,,,,,,,,,,,,
,,,,,,,,,,stimuli/images/PICTURE_708.png,YARD,5cffb12df6c3fb00157b2f39,23/09/1954,2020-09-10_15h44.31.674,proactive3.1,2020.1.2,Win32,60,5f599a131af4471f3d752b7b,5f5a3bae8e6d030aa0f05c77,6,,,,,,monkey,,,,,,0,14,14,29,1,3,0,,,,,,,,,,,,,,,,,,,,,,,,,,,,,,,,,,,,,,,,,,,,,,,,,,,,,,,,,,,,,,,,,,,,,,,,,,,,,,,,,,,,,,,,,,,,,,,,,,,,,,,,,,,,,
,,,,,,,,,,stimuli/images/PICTURE_177.png,CARS,5cffb12df6c3fb00157b2f39,23/09/1954,2020-09-10_15h44.31.674,proactive3.1,2020.1.2,Win32,60,5f599a131af4471f3d752b7b,5f5a3bae8e6d030aa0f05c77,6,,,,,,mushroom,,,,,,0,15,15,35,1,4,0,,,,,,,,,,,,,,,,,,,,,,,,,,,,,,,,,,,,,,,,,,,,,,,,,,,,,,,,,,,,,,,,,,,,,,,,,,,,,,,,,,,,,,,,,,,,,,,,,,,,,,,,,,,,,
,,,,,,,,,,stimuli/images/PICTURE_95.png,STYLE,5cffb12df6c3fb00157b2f39,23/09/1954,2020-09-10_15h44.31.674,proactive3.1,2020.1.2,Win32,60,5f599a131af4471f3d752b7b,5f5a3bae8e6d030aa0f05c77,6,,,,,,suitcase,,,,,,0,16,16,25,1,3,0,,,,,,,,,,,,,,,,,,,,,,,,,,,,,,,,,,,,,,,,,,,,,,,,,,,,,,,,,,,,,,,,,,,,,,,,,,,,,,,,,,,,,,,,,,,,,,,,,,,,,,,,,,,,,
,,,,,,,,,,stimuli/images/PICTURE_504.png,BODY,5cffb12df6c3fb00157b2f39,23/09/1954,2020-09-10_15h44.31.674,proactive3.1,2020.1.2,Win32,60,5f599a131af4471f3d752b7b,5f5a3bae8e6d030aa0f05c77,6,,,,,,wheel,,,,,,0,17,17,8,1,1,0,,,,,,,,,,,,,,,,,,,,,,,,,,,,,,,,,,,,,,,,,,,,,,,,,,,,,,,,,,,,,,,,,,,,,,,,,,,,,,,,,,,,,,,,,,,,,,,,,,,,,,,,,,,,,
,,,,,,,,,,stimuli/images/PICTURE_348.png,SPEECH,5cffb12df6c3fb00157b2f39,23/09/1954,2020-09-10_15h44.31.674,proactive3.1,2020.1.2,Win32,60,5f599a131af4471f3d752b7b,5f5a3bae8e6d030aa0f05c77,6,,,,,,pepper,,,,,,0,18,18,20,1,3,0,,,,,,,,,,,,,,,,,,,,,,,,,,,,,,,,,,,,,,,,,,,,,,,,,,,,,,,,,,,,,,,,,,,,,,,,,,,,,,,,,,,,,,,,,,,,,,,,,,,,,,,,,,,,,
,,,,,,,,,,stimuli/images/PICTURE_215.png,PLENTY,5cffb12df6c3fb00157b2f39,23/09/1954,2020-09-10_15h44.31.674,proactive3.1,2020.1.2,Win32,60,5f599a131af4471f3d752b7b,5f5a3bae8e6d030aa0f05c77,6,,,,,,boot,,,,,,0,19,19,37,1,4,0,,,,,,,,,,,,,,,,,,,,,,,,,,,,,,,,,,,,,,,,,,,,,,,,,,,,,,,,,,,,,,,,,,,,,,,,,,,,,,,,,,,,,,,,,,,,,,,,,,,,,,,,,,,,,
,,,,,,,,,,stimuli/images/PICTURE_449.png,THING,5cffb12df6c3fb00157b2f39,23/09/1954,2020-09-10_15h44.31.674,proactive3.1,2020.1.2,Win32,60,5f599a131af4471f3d752b7b,5f5a3bae8e6d030aa0f05c77,6,,,,,,bench,,,,,,0,20,20,59,1,6,0,,,,,,,,,,,,,,,,,,,,,,,,,,,,,,,,,,,,,,,,,,,,,,,,,,,,,,,,,,,,,,,,,,,,,,,,,,,,,,,,,,,,,,,,,,,,,,,,,,,,,,,,,,,,,
,,,,,,,,,,stimuli/images/PICTURE_708.png,CLIENT,5cffb12df6c3fb00157b2f39,23/09/1954,2020-09-10_15h44.31.674,proactive3.1,2020.1.2,Win32,60,5f599a131af4471f3d752b7b,5f5a3bae8e6d030aa0f05c77,6,,,,,,monkey,,,,,,0,21,21,5,1,1,0,,,,,,,,,,,,,,,,,,,,,,,,,,,,,,,,,,,,,,,,,,,,,,,,,,,,,,,,,,,,,,,,,,,,,,,,,,,,,,,,,,,,,,,,,,,,,,,,,,,,,,,,,,,,,
,,,,,,,,,,stimuli/images/PICTURE_467.png,DEMON,5cffb12df6c3fb00157b2f39,23/09/1954,2020-09-10_15h44.31.674,proactive3.1,2020.1.2,Win32,60,5f599a131af4471f3d752b7b,5f5a3bae8e6d030aa0f05c77,6,,,,,,peg,,,,,,0,22,22,23,1,3,0,,,,,,,,,,,,,,,,,,,,,,,,,,,,,,,,,,,,,,,,,,,,,,,,,,,,,,,,,,,,,,,,,,,,,,,,,,,,,,,,,,,,,,,,,,,,,,,,,,,,,,,,,,,,,
,,,,,,,,,,stimuli/images/PICTURE_380.png,DEATH,5cffb12df6c3fb00157b2f39,23/09/1954,2020-09-10_15h44.31.674,proactive3.1,2020.1.2,Win32,60,5f599a131af4471f3d752b7b,5f5a3bae8e6d030aa0f05c77,6,,,,,,gorilla,,,,,,0,23,23,49,1,5,0,,,,,,,,,,,,,,,,,,,,,,,,,,,,,,,,,,,,,,,,,,,,,,,,,,,,,,,,,,,,,,,,,,,,,,,,,,,,,,,,,,,,,,,,,,,,,,,,,,,,,,,,,,,,,
,,,,,,,,,,stimuli/images/PICTURE_688.png,CASINO,5cffb12df6c3fb00157b2f39,23/09/1954,2020-09-10_15h44.31.674,proactive3.1,2020.1.2,Win32,60,5f599a131af4471f3d752b7b,5f5a3bae8e6d030aa0f05c77,6,,,,,,runner,,,,,,0,24,24,2,1,1,0,,,,,,,,,,,,,,,,,,,,,,,,,,,,,,,,,,,,,,,,,,,,,,,,,,,,,,,,,,,,,,,,,,,,,,,,,,,,,,,,,,,,,,,,,,,,,,,,,,,,,,,,,,,,,
,,,,,,,,,,stimuli/images/PICTURE_356.png,DANGER,5cffb12df6c3fb00157b2f39,23/09/1954,2020-09-10_15h44.31.674,proactive3.1,2020.1.2,Win32,60,5f599a131af4471f3d752b7b,5f5a3bae8e6d030aa0f05c77,6,,,,,,pawn,,,,,,0,25,25,55,1,6,0,,,,,,,,,,,,,,,,,,,,,,,,,,,,,,,,,,,,,,,,,,,,,,,,,,,,,,,,,,,,,,,,,,,,,,,,,,,,,,,,,,,,,,,,,,,,,,,,,,,,,,,,,,,,,
,,,,,,,,,,stimuli/images/PICTURE_675.png,WEAPON,5cffb12df6c3fb00157b2f39,23/09/1954,2020-09-10_15h44.31.674,proactive3.1,2020.1.2,Win32,60,5f599a131af4471f3d752b7b,5f5a3bae8e6d030aa0f05c77,6,,,,,,windmill,,,,,,0,26,26,32,1,4,0,,,,,,,,,,,,,,,,,,,,,,,,,,,,,,,,,,,,,,,,,,,,,,,,,,,,,,,,,,,,,,,,,,,,,,,,,,,,,,,,,,,,,,,,,,,,,,,,,,,,,,,,,,,,,
,,,,,,,,,,stimuli/images/PICTURE_302.png,FAMILY,5cffb12df6c3fb00157b2f39,23/09/1954,2020-09-10_15h44.31.674,proactive3.1,2020.1.2,Win32,60,5f599a131af4471f3d752b7b,5f5a3bae8e6d030aa0f05c77,6,,,,,,taxi,,,,,,0,27,27,18,1,2,0,,,,,,,,,,,,,,,,,,,,,,,,,,,,,,,,,,,,,,,,,,,,,,,,,,,,,,,,,,,,,,,,,,,,,,,,,,,,,,,,,,,,,,,,,,,,,,,,,,,,,,,,,,,,,
,,,,,,,,,,stimuli/images/PICTURE_311.png,BEAUTY,5cffb12df6c3fb00157b2f39,23/09/1954,2020-09-10_15h44.31.674,proactive3.1,2020.1.2,Win32,60,5f599a131af4471f3d752b7b,5f5a3bae8e6d030aa0f05c77,6,,,,,,razor,,,,,,0,28,28,13,1,2,0,,,,,,,,,,,,,,,,,,,,,,,,,,,,,,,,,,,,,,,,,,,,,,,,,,,,,,,,,,,,,,,,,,,,,,,,,,,,,,,,,,,,,,,,,,,,,,,,,,,,,,,,,,,,,
,,,,,,,,,,stimuli/images/PICTURE_314.png,SAKE,5cffb12df6c3fb00157b2f39,23/09/1954,2020-09-10_15h44.31.674,proactive3.1,2020.1.2,Win32,60,5f599a131af4471f3d752b7b,5f5a3bae8e6d030aa0f05c77,6,,,,,,perfume,,,,,,0,29,29,7,1,1,0,,,,,,,,,,,,,,,,,,,,,,,,,,,,,,,,,,,,,,,,,,,,,,,,,,,,,,,,,,,,,,,,,,,,,,,,,,,,,,,,,,,,,,,,,,,,,,,,,,,,,,,,,,,,,
,,,,,,,,,,stimuli/images/PICTURE_68.png,MILE,5cffb12df6c3fb00157b2f39,23/09/1954,2020-09-10_15h44.31.674,proactive3.1,2020.1.2,Win32,60,5f599a131af4471f3d752b7b,5f5a3bae8e6d030aa0f05c77,6,,,,,,candle,,,,,,0,30,30,44,1,5,0,,,,,,,,,,,,,,,,,,,,,,,,,,,,,,,,,,,,,,,,,,,,,,,,,,,,,,,,,,,,,,,,,,,,,,,,,,,,,,,,,,,,,,,,,,,,,,,,,,,,,,,,,,,,,
,,,,,,,,,,stimuli/images/PICTURE_85.png,THING,5cffb12df6c3fb00157b2f39,23/09/1954,2020-09-10_15h44.31.674,proactive3.1,2020.1.2,Win32,60,5f599a131af4471f3d752b7b,5f5a3bae8e6d030aa0f05c77,6,,,,,,diamond,,,,,,0,31,31,15,1,2,0,,,,,,,,,,,,,,,,,,,,,,,,,,,,,,,,,,,,,,,,,,,,,,,,,,,,,,,,,,,,,,,,,,,,,,,,,,,,,,,,,,,,,,,,,,,,,,,,,,,,,,,,,,,,,
,,,,,,,,,,stimuli/images/PICTURE_203.png,ARTIST,5cffb12df6c3fb00157b2f39,23/09/1954,2020-09-10_15h44.31.674,proactive3.1,2020.1.2,Win32,60,5f599a131af4471f3d752b7b,5f5a3bae8e6d030aa0f05c77,6,,,,,,cap,,,,,,0,32,32,26,1,3,0,,,,,,,,,,,,,,,,,,,,,,,,,,,,,,,,,,,,,,,,,,,,,,,,,,,,,,,,,,,,,,,,,,,,,,,,,,,,,,,,,,,,,,,,,,,,,,,,,,,,,,,,,,,,,
,,,,,,,,,,stimuli/images/PICTURE_692.png,MONTH,5cffb12df6c3fb00157b2f39,23/09/1954,2020-09-10_15h44.31.674,proactive3.1,2020.1.2,Win32,60,5f599a131af4471f3d752b7b,5f5a3bae8e6d030aa0f05c77,6,,,,,,cherry,,,,,,0,33,33,16,1,2,0,,,,,,,,,,,,,,,,,,,,,,,,,,,,,,,,,,,,,,,,,,,,,,,,,,,,,,,,,,,,,,,,,,,,,,,,,,,,,,,,,,,,,,,,,,,,,,,,,,,,,,,,,,,,,
,,,,,,,,,,stimuli/images/PICTURE_453.png,PLENTY,5cffb12df6c3fb00157b2f39,23/09/1954,2020-09-10_15h44.31.674,proactive3.1,2020.1.2,Win32,60,5f599a131af4471f3d752b7b,5f5a3bae8e6d030aa0f05c77,6,,,,,,scissors,,,,,,0,34,34,56,1,6,0,,,,,,,,,,,,,,,,,,,,,,,,,,,,,,,,,,,,,,,,,,,,,,,,,,,,,,,,,,,,,,,,,,,,,,,,,,,,,,,,,,,,,,,,,,,,,,,,,,,,,,,,,,,,,
,,,,,,,,,,stimuli/images/PICTURE_285.png,ADVICE,5cffb12df6c3fb00157b2f39,23/09/1954,2020-09-10_15h44.31.674,proactive3.1,2020.1.2,Win32,60,5f599a131af4471f3d752b7b,5f5a3bae8e6d030aa0f05c77,6,,,,,,carrot,,,,,,0,35,35,12,1,2,0,,,,,,,,,,,,,,,,,,,,,,,,,,,,,,,,,,,,,,,,,,,,,,,,,,,,,,,,,,,,,,,,,,,,,,,,,,,,,,,,,,,,,,,,,,,,,,,,,,,,,,,,,,,,,
,,,,,,,,,,stimuli/images/PICTURE_308.png,KIND,5cffb12df6c3fb00157b2f39,23/09/1954,2020-09-10_15h44.31.674,proactive3.1,2020.1.2,Win32,60,5f599a131af4471f3d752b7b,5f5a3bae8e6d030aa0f05c77,6,,,,,,dice,,,,,,0,36,36,54,1,6,0,,,,,,,,,,,,,,,,,,,,,,,,,,,,,,,,,,,,,,,,,,,,,,,,,,,,,,,,,,,,,,,,,,,,,,,,,,,,,,,,,,,,,,,,,,,,,,,,,,,,,,,,,,,,,
,,,,,,,,,,stimuli/images/PICTURE_469.png,LETTER,5cffb12df6c3fb00157b2f39,23/09/1954,2020-09-10_15h44.31.674,proactive3.1,2020.1.2,Win32,60,5f599a131af4471f3d752b7b,5f5a3bae8e6d030aa0f05c77,6,,,,,,stool,,,,,,0,37,37,42,1,5,0,,,,,,,,,,,,,,,,,,,,,,,,,,,,,,,,,,,,,,,,,,,,,,,,,,,,,,,,,,,,,,,,,,,,,,,,,,,,,,,,,,,,,,,,,,,,,,,,,,,,,,,,,,,,,
,,,,,,,,,,stimuli/images/PICTURE_208.png,THING,5cffb12df6c3fb00157b2f39,23/09/1954,2020-09-10_15h44.31.674,proactive3.1,2020.1.2,Win32,60,5f599a131af4471f3d752b7b,5f5a3bae8e6d030aa0f05c77,6,,,,,,microphone,,,,,,0,38,38,47,1,5,0,,,,,,,,,,,,,,,,,,,,,,,,,,,,,,,,,,,,,,,,,,,,,,,,,,,,,,,,,,,,,,,,,,,,,,,,,,,,,,,,,,,,,,,,,,,,,,,,,,,,,,,,,,,,,
