consent_key.keys,consent_key.rt,recalled,recalled_rt,recall_acc,example_recall.thisRepN,example_recall.thisTrialN,example_recall.thisN,example_recall.thisIndex,example_recall.ran,file,word,participant,please enter your date of birth (dd/mm/yyyy),date,expName,psychopyVersion,OS,frameRate,STUDY_ID,SESSION_ID,list,prac_learn_study_loop.thisRepN,prac_learn_study_loop.thisTrialN,prac_learn_study_loop.thisN,prac_learn_study_loop.thisIndex,prac_learn_study_loop.ran,image,prac_learn_test_loop.thisRepN,prac_learn_test_loop.thisTrialN,prac_learn_test_loop.thisN,prac_learn_test_loop.thisIndex,prac_learn_test_loop.ran,learn_study_loop.thisRepN,learn_study_loop.thisTrialN,learn_study_loop.thisN,learn_study_loop.thisIndex,learn_study_loop.ran,list_no,block_no,learn_test_loop.thisRepN,learn_test_loop.thisTrialN,learn_test_loop.thisN,learn_test_loop.thisIndex,learn_test_loop.ran,learn_blocks.thisRepN,learn_blocks.thisTrialN,learn_blocks.thisN,learn_blocks.thisIndex,learn_blocks.ran,block_csv,key_resp_13.keys,key_resp_13.rt,learn_blocks_loop.thisRepN,learn_blocks_loop.thisTrialN,learn_blocks_loop.thisN,learn_blocks_loop.thisIndex,learn_blocks_loop.ran,final_learn_test.thisRepN,final_learn_test.thisTrialN,final_learn_test.thisN,final_learn_test.thisIndex,final_learn_test.ran,s_im1,s_im2,s_im3,s_im4,s_im5,s_im6,s_im7,s_im8,s_im1pos,s_im2pos,s_im3pos,s_im4pos,s_im5pos,s_im6pos,s_im7pos,s_im8pos,s_tarright,search_resp.keys,search_resp.rt,search_loop.thisRepN,search_loop.thisTrialN,search_loop.thisN,search_loop.thisIndex,search_loop.ran,prac_wm_search_loop.thisRepN,prac_wm_search_loop.thisTrialN,prac_wm_search_loop.thisN,prac_wm_search_loop.thisIndex,prac_wm_search_loop.ran,prac_wm_test_loop.thisRepN,prac_wm_test_loop.thisTrialN,prac_wm_test_loop.thisN,prac_wm_test_loop.thisIndex,prac_wm_test_loop.ran,wm_recalled1,wm_recall_rt1,wm_probed1,wm_recall_acc1,wm_recalled2,wm_recall_rt2,wm_probed2,wm_recall_acc2,wm_recalled3,wm_recall_rt3,wm_probed3,wm_recall_acc3,wm_recalled4,wm_recall_rt4,wm_probed4,wm_recall_acc4,prac_wm_trial_loop.thisRepN,prac_wm_trial_loop.thisTrialN,prac_wm_trial_loop.thisN,prac_wm_trial_loop.thisIndex,prac_wm_trial_loop.ran,word1,image1,file1,item_type1,word2,image2,file2,item_type2,word4,image4,file4,item_type4,word3,image3,file3,item_type3,wm_search_loop.thisRepN,wm_search_loop.thisTrialN,wm_search_loop.thisN,wm_search_loop.thisIndex,wm_search_loop.ran,wm_test_loop.thisRepN,wm_test_loop.thisTrialN,wm_test_loop.thisN,wm_test_loop.thisIndex,wm_test_loop.ran,wm_trial_loop.thisRepN,wm_trial_loop.thisTrialN,wm_trial_loop.thisN,wm_trial_loop.thisIndex,wm_trial_loop.ran
y,37.7709,TOUGH,5.2745,1,0,0,0,0,1,stimuli/images/PICTURE_747.png,TOUGH,5d069f2f041328001a7815be,01/27/1943,2020-09-10_21h14.00.368,proactive3.1,2020.1.2,Win32,60,5f599a131af4471f3d752b7b,5f5add3d2700561f1dc67051,5,,,,,,,,,,,,,,,,,,,,,,,,,,,,,,,,,,,,,,,,,,,,,,,,,,,,,,,,,,,,,,,,,,,,,,,,,,,,,,,,,,,,,,,,,,,,,,,,,,,,,,,,,,,,,,,,,,,,,,,,,,,,,,,
,,,,,,,,,,stimuli/images/PICTURE_269.png,GENIUS,5d069f2f041328001a7815be,01/27/1943,2020-09-10_21h14.00.368,proactive3.1,2020.1.2,Win32,60,5f599a131af4471f3d752b7b,5f5add3d2700561f1dc67051,5,0,0,0,0,1,chameleon,,,,,,,,,,,,,,,,,,,,,,,,,,,,,,,,,,,,,,,,,,,,,,,,,,,,,,,,,,,,,,,,,,,,,,,,,,,,,,,,,,,,,,,,,,,,,,,,,,,,,,,,,,,,,,,,,,,,,,,,,
,,,,,,,,,,stimuli/images/PICTURE_697.png,KILLER,5d069f2f041328001a7815be,01/27/1943,2020-09-10_21h14.00.368,proactive3.1,2020.1.2,Win32,60,5f599a131af4471f3d752b7b,5f5add3d2700561f1dc67051,5,0,1,1,4,1,peach,,,,,,,,,,,,,,,,,,,,,,,,,,,,,,,,,,,,,,,,,,,,,,,,,,,,,,,,,,,,,,,,,,,,,,,,,,,,,,,,,,,,,,,,,,,,,,,,,,,,,,,,,,,,,,,,,,,,,,,,,
,,,,,,,,,,stimuli/images/PICTURE_727.png,CELL,5d069f2f041328001a7815be,01/27/1943,2020-09-10_21h14.00.368,proactive3.1,2020.1.2,Win32,60,5f599a131af4471f3d752b7b,5f5add3d2700561f1dc67051,5,0,2,2,1,1,hose,,,,,,,,,,,,,,,,,,,,,,,,,,,,,,,,,,,,,,,,,,,,,,,,,,,,,,,,,,,,,,,,,,,,,,,,,,,,,,,,,,,,,,,,,,,,,,,,,,,,,,,,,,,,,,,,,,,,,,,,,
,,,,,,,,,,stimuli/images/PICTURE_378.png,LOSS,5d069f2f041328001a7815be,01/27/1943,2020-09-10_21h14.00.368,proactive3.1,2020.1.2,Win32,60,5f599a131af4471f3d752b7b,5f5add3d2700561f1dc67051,5,0,3,3,2,1,lobster,,,,,,,,,,,,,,,,,,,,,,,,,,,,,,,,,,,,,,,,,,,,,,,,,,,,,,,,,,,,,,,,,,,,,,,,,,,,,,,,,,,,,,,,,,,,,,,,,,,,,,,,,,,,,,,,,,,,,,,,,
,,LOSS,4.89309,1,,,,,,stimuli/images/PICTURE_378.png,LOSS,5d069f2f041328001a7815be,01/27/1943,2020-09-10_21h14.00.368,proactive3.1,2020.1.2,Win32,60,5f599a131af4471f3d752b7b,5f5add3d2700561f1dc67051,5,,,,,,lobster,0,0,0,2,1,,,,,,,,,,,,,,,,,,,,,,,,,,,,,,,,,,,,,,,,,,,,,,,,,,,,,,,,,,,,,,,,,,,,,,,,,,,,,,,,,,,,,,,,,,,,,,,,,,,,,,,,,,,,,,,,,,,,
,,KILLER,3.415275,1,,,,,,stimuli/images/PICTURE_697.png,KILLER,5d069f2f041328001a7815be,01/27/1943,2020-09-10_21h14.00.368,proactive3.1,2020.1.2,Win32,60,5f599a131af4471f3d752b7b,5f5add3d2700561f1dc67051,5,,,,,,peach,0,1,1,4,1,,,,,,,,,,,,,,,,,,,,,,,,,,,,,,,,,,,,,,,,,,,,,,,,,,,,,,,,,,,,,,,,,,,,,,,,,,,,,,,,,,,,,,,,,,,,,,,,,,,,,,,,,,,,,,,,,,,,
,,DEVIL,4.53074,1,,,,,,stimuli/images/PICTURE_658.png,DEVIL,5d069f2f041328001a7815be,01/27/1943,2020-09-10_21h14.00.368,proactive3.1,2020.1.2,Win32,60,5f599a131af4471f3d752b7b,5f5add3d2700561f1dc67051,5,,,,,,crow,0,2,2,3,1,,,,,,,,,,,,,,,,,,,,,,,,,,,,,,,,,,,,,,,,,,,,,,,,,,,,,,,,,,,,,,,,,,,,,,,,,,,,,,,,,,,,,,,,,,,,,,,,,,,,,,,,,,,,,,,,,,,,
,,GENIUS,4.381975,1,,,,,,stimuli/images/PICTURE_269.png,GENIUS,5d069f2f041328001a7815be,01/27/1943,2020-09-10_21h14.00.368,proactive3.1,2020.1.2,Win32,60,5f599a131af4471f3d752b7b,5f5add3d2700561f1dc67051,5,,,,,,chameleon,0,3,3,0,1,,,,,,,,,,,,,,,,,,,,,,,,,,,,,,,,,,,,,,,,,,,,,,,,,,,,,,,,,,,,,,,,,,,,,,,,,,,,,,,,,,,,,,,,,,,,,,,,,,,,,,,,,,,,,,,,,,,,
,,CELL,4.330985,1,,,,,,stimuli/images/PICTURE_727.png,CELL,5d069f2f041328001a7815be,01/27/1943,2020-09-10_21h14.00.368,proactive3.1,2020.1.2,Win32,60,5f599a131af4471f3d752b7b,5f5add3d2700561f1dc67051,5,,,,,,hose,0,4,4,1,1,,,,,,,,,,,,,,,,,,,,,,,,,,,,,,,,,,,,,,,,,,,,,,,,,,,,,,,,,,,,,,,,,,,,,,,,,,,,,,,,,,,,,,,,,,,,,,,,,,,,,,,,,,,,,,,,,,,,
,,,,,,,,,,stimuli/images/PICTURE_255.png,PENNY,5d069f2f041328001a7815be,01/27/1943,2020-09-10_21h14.00.368,proactive3.1,2020.1.2,Win32,60,5f599a131af4471f3d752b7b,5f5add3d2700561f1dc67051,5,,,,,,shovel,,,,,,0,0,0,19,1,2,2,,,,,,,,,,,,,,,,,,,,,,,,,,,,,,,,,,,,,,,,,,,,,,,,,,,,,,,,,,,,,,,,,,,,,,,,,,,,,,,,,,,,,,,,,,,,,,,,,,,,,,,,,,,,,
,,,,,,,,,,stimuli/images/PICTURE_403.png,FAMILY,5d069f2f041328001a7815be,01/27/1943,2020-09-10_21h14.00.368,proactive3.1,2020.1.2,Win32,60,5f599a131af4471f3d752b7b,5f5add3d2700561f1dc67051,5,,,,,,cathedral,,,,,,0,1,1,9,1,1,2,,,,,,,,,,,,,,,,,,,,,,,,,,,,,,,,,,,,,,,,,,,,,,,,,,,,,,,,,,,,,,,,,,,,,,,,,,,,,,,,,,,,,,,,,,,,,,,,,,,,,,,,,,,,,
,,,,,,,,,,stimuli/images/PICTURE_405.png,JUNGLE,5d069f2f041328001a7815be,01/27/1943,2020-09-10_21h14.00.368,proactive3.1,2020.1.2,Win32,60,5f599a131af4471f3d752b7b,5f5add3d2700561f1dc67051,5,,,,,,anchor,,,,,,0,2,2,58,1,6,2,,,,,,,,,,,,,,,,,,,,,,,,,,,,,,,,,,,,,,,,,,,,,,,,,,,,,,,,,,,,,,,,,,,,,,,,,,,,,,,,,,,,,,,,,,,,,,,,,,,,,,,,,,,,,
,,,,,,,,,,stimuli/images/PICTURE_348.png,TOILET,5d069f2f041328001a7815be,01/27/1943,2020-09-10_21h14.00.368,proactive3.1,2020.1.2,Win32,60,5f599a131af4471f3d752b7b,5f5add3d2700561f1dc67051,5,,,,,,pepper,,,,,,0,3,3,4,1,1,2,,,,,,,,,,,,,,,,,,,,,,,,,,,,,,,,,,,,,,,,,,,,,,,,,,,,,,,,,,,,,,,,,,,,,,,,,,,,,,,,,,,,,,,,,,,,,,,,,,,,,,,,,,,,,
,,,,,,,,,,stimuli/images/PICTURE_677.png,FAMILY,5d069f2f041328001a7815be,01/27/1943,2020-09-10_21h14.00.368,proactive3.1,2020.1.2,Win32,60,5f599a131af4471f3d752b7b,5f5add3d2700561f1dc67051,5,,,,,,map,,,,,,0,4,4,53,1,6,2,,,,,,,,,,,,,,,,,,,,,,,,,,,,,,,,,,,,,,,,,,,,,,,,,,,,,,,,,,,,,,,,,,,,,,,,,,,,,,,,,,,,,,,,,,,,,,,,,,,,,,,,,,,,,
,,,,,,,,,,stimuli/images/PICTURE_667.png,GLASS,5d069f2f041328001a7815be,01/27/1943,2020-09-10_21h14.00.368,proactive3.1,2020.1.2,Win32,60,5f599a131af4471f3d752b7b,5f5add3d2700561f1dc67051,5,,,,,,daisy,,,,,,0,5,5,27,1,3,2,,,,,,,,,,,,,,,,,,,,,,,,,,,,,,,,,,,,,,,,,,,,,,,,,,,,,,,,,,,,,,,,,,,,,,,,,,,,,,,,,,,,,,,,,,,,,,,,,,,,,,,,,,,,,
,,,,,,,,,,stimuli/images/PICTURE_487.png,POLICY,5d069f2f041328001a7815be,01/27/1943,2020-09-10_21h14.00.368,proactive3.1,2020.1.2,Win32,60,5f599a131af4471f3d752b7b,5f5add3d2700561f1dc67051,5,,,,,,basket,,,,,,0,6,6,34,1,4,2,,,,,,,,,,,,,,,,,,,,,,,,,,,,,,,,,,,,,,,,,,,,,,,,,,,,,,,,,,,,,,,,,,,,,,,,,,,,,,,,,,,,,,,,,,,,,,,,,,,,,,,,,,,,,
,,,,,,,,,,stimuli/images/PICTURE_2.png,JUNGLE,5d069f2f041328001a7815be,01/27/1943,2020-09-10_21h14.00.368,proactive3.1,2020.1.2,Win32,60,5f599a131af4471f3d752b7b,5f5add3d2700561f1dc67051,5,,,,,,tyre,,,,,,0,7,7,1,1,1,2,,,,,,,,,,,,,,,,,,,,,,,,,,,,,,,,,,,,,,,,,,,,,,,,,,,,,,,,,,,,,,,,,,,,,,,,,,,,,,,,,,,,,,,,,,,,,,,,,,,,,,,,,,,,,
,,,,,,,,,,stimuli/images/PICTURE_470.png,MOMENT,5d069f2f041328001a7815be,01/27/1943,2020-09-10_21h14.00.368,proactive3.1,2020.1.2,Win32,60,5f599a131af4471f3d752b7b,5f5add3d2700561f1dc67051,5,,,,,,motorbike,,,,,,0,8,8,40,1,5,2,,,,,,,,,,,,,,,,,,,,,,,,,,,,,,,,,,,,,,,,,,,,,,,,,,,,,,,,,,,,,,,,,,,,,,,,,,,,,,,,,,,,,,,,,,,,,,,,,,,,,,,,,,,,,
,,,,,,,,,,stimuli/images/PICTURE_509.png,MILLER,5d069f2f041328001a7815be,01/27/1943,2020-09-10_21h14.00.368,proactive3.1,2020.1.2,Win32,60,5f599a131af4471f3d752b7b,5f5add3d2700561f1dc67051,5,,,,,,telephone,,,,,,0,9,9,49,1,5,2,,,,,,,,,,,,,,,,,,,,,,,,,,,,,,,,,,,,,,,,,,,,,,,,,,,,,,,,,,,,,,,,,,,,,,,,,,,,,,,,,,,,,,,,,,,,,,,,,,,,,,,,,,,,,
,,,,,,,,,,stimuli/images/PICTURE_504.png,HOUSE,5d069f2f041328001a7815be,01/27/1943,2020-09-10_21h14.00.368,proactive3.1,2020.1.2,Win32,60,5f599a131af4471f3d752b7b,5f5add3d2700561f1dc67051,5,,,,,,wheel,,,,,,0,10,10,36,1,4,2,,,,,,,,,,,,,,,,,,,,,,,,,,,,,,,,,,,,,,,,,,,,,,,,,,,,,,,,,,,,,,,,,,,,,,,,,,,,,,,,,,,,,,,,,,,,,,,,,,,,,,,,,,,,,
,,,,,,,,,,stimuli/images/PICTURE_327.png,LEADER,5d069f2f041328001a7815be,01/27/1943,2020-09-10_21h14.00.368,proactive3.1,2020.1.2,Win32,60,5f599a131af4471f3d752b7b,5f5add3d2700561f1dc67051,5,,,,,,helmet,,,,,,0,11,11,17,1,2,2,,,,,,,,,,,,,,,,,,,,,,,,,,,,,,,,,,,,,,,,,,,,,,,,,,,,,,,,,,,,,,,,,,,,,,,,,,,,,,,,,,,,,,,,,,,,,,,,,,,,,,,,,,,,,
,,,,,,,,,,stimuli/images/PICTURE_32.png,LETTER,5d069f2f041328001a7815be,01/27/1943,2020-09-10_21h14.00.368,proactive3.1,2020.1.2,Win32,60,5f599a131af4471f3d752b7b,5f5add3d2700561f1dc67051,5,,,,,,crown,,,,,,0,12,12,56,1,6,2,,,,,,,,,,,,,,,,,,,,,,,,,,,,,,,,,,,,,,,,,,,,,,,,,,,,,,,,,,,,,,,,,,,,,,,,,,,,,,,,,,,,,,,,,,,,,,,,,,,,,,,,,,,,,
,,,,,,,,,,stimuli/images/PICTURE_93.png,GIRL,5d069f2f041328001a7815be,01/27/1943,2020-09-10_21h14.00.368,proactive3.1,2020.1.2,Win32,60,5f599a131af4471f3d752b7b,5f5add3d2700561f1dc67051,5,,,,,,skateboard,,,,,,0,13,13,31,1,4,2,,,,,,,,,,,,,,,,,,,,,,,,,,,,,,,,,,,,,,,,,,,,,,,,,,,,,,,,,,,,,,,,,,,,,,,,,,,,,,,,,,,,,,,,,,,,,,,,,,,,,,,,,,,,,
,,,,,,,,,,stimuli/images/PICTURE_215.png,BOYS,5d069f2f041328001a7815be,01/27/1943,2020-09-10_21h14.00.368,proactive3.1,2020.1.2,Win32,60,5f599a131af4471f3d752b7b,5f5add3d2700561f1dc67051,5,,,,,,boot,,,,,,0,14,14,24,1,3,2,,,,,,,,,,,,,,,,,,,,,,,,,,,,,,,,,,,,,,,,,,,,,,,,,,,,,,,,,,,,,,,,,,,,,,,,,,,,,,,,,,,,,,,,,,,,,,,,,,,,,,,,,,,,,
,,,,,,,,,,stimuli/images/PICTURE_297.png,BODY,5d069f2f041328001a7815be,01/27/1943,2020-09-10_21h14.00.368,proactive3.1,2020.1.2,Win32,60,5f599a131af4471f3d752b7b,5f5add3d2700561f1dc67051,5,,,,,,aeroplane,,,,,,0,15,15,51,1,6,2,,,,,,,,,,,,,,,,,,,,,,,,,,,,,,,,,,,,,,,,,,,,,,,,,,,,,,,,,,,,,,,,,,,,,,,,,,,,,,,,,,,,,,,,,,,,,,,,,,,,,,,,,,,,,
,,,,,,,,,,stimuli/images/PICTURE_491.png,SERIES,5d069f2f041328001a7815be,01/27/1943,2020-09-10_21h14.00.368,proactive3.1,2020.1.2,Win32,60,5f599a131af4471f3d752b7b,5f5add3d2700561f1dc67051,5,,,,,,rug,,,,,,0,16,16,39,1,4,2,,,,,,,,,,,,,,,,,,,,,,,,,,,,,,,,,,,,,,,,,,,,,,,,,,,,,,,,,,,,,,,,,,,,,,,,,,,,,,,,,,,,,,,,,,,,,,,,,,,,,,,,,,,,,
,,,,,,,,,,stimuli/images/PICTURE_348.png,DUDE,5d069f2f041328001a7815be,01/27/1943,2020-09-10_21h14.00.368,proactive3.1,2020.1.2,Win32,60,5f599a131af4471f3d752b7b,5f5add3d2700561f1dc67051,5,,,,,,pepper,,,,,,0,17,17,59,1,6,2,,,,,,,,,,,,,,,,,,,,,,,,,,,,,,,,,,,,,,,,,,,,,,,,,,,,,,,,,,,,,,,,,,,,,,,,,,,,,,,,,,,,,,,,,,,,,,,,,,,,,,,,,,,,,
,,,,,,,,,,stimuli/images/PICTURE_68.png,KIND,5d069f2f041328001a7815be,01/27/1943,2020-09-10_21h14.00.368,proactive3.1,2020.1.2,Win32,60,5f599a131af4471f3d752b7b,5f5add3d2700561f1dc67051,5,,,,,,candle,,,,,,0,18,18,23,1,3,2,,,,,,,,,,,,,,,,,,,,,,,,,,,,,,,,,,,,,,,,,,,,,,,,,,,,,,,,,,,,,,,,,,,,,,,,,,,,,,,,,,,,,,,,,,,,,,,,,,,,,,,,,,,,,
,,,,,,,,,,stimuli/images/PICTURE_487.png,ROOF,5d069f2f041328001a7815be,01/27/1943,2020-09-10_21h14.00.368,proactive3.1,2020.1.2,Win32,60,5f599a131af4471f3d752b7b,5f5add3d2700561f1dc67051,5,,,,,,basket,,,,,,0,19,19,50,1,6,2,,,,,,,,,,,,,,,,,,,,,,,,,,,,,,,,,,,,,,,,,,,,,,,,,,,,,,,,,,,,,,,,,,,,,,,,,,,,,,,,,,,,,,,,,,,,,,,,,,,,,,,,,,,,,
,,,,,,,,,,stimuli/images/PICTURE_33.png,COPS,5d069f2f041328001a7815be,01/27/1943,2020-09-10_21h14.00.368,proactive3.1,2020.1.2,Win32,60,5f599a131af4471f3d752b7b,5f5add3d2700561f1dc67051,5,,,,,,frame,,,,,,0,20,20,29,1,3,2,,,,,,,,,,,,,,,,,,,,,,,,,,,,,,,,,,,,,,,,,,,,,,,,,,,,,,,,,,,,,,,,,,,,,,,,,,,,,,,,,,,,,,,,,,,,,,,,,,,,,,,,,,,,,
,,,,,,,,,,stimuli/images/PICTURE_470.png,BEAUTY,5d069f2f041328001a7815be,01/27/1943,2020-09-10_21h14.00.368,proactive3.1,2020.1.2,Win32,60,5f599a131af4471f3d752b7b,5f5add3d2700561f1dc67051,5,,,,,,motorbike,,,,,,0,21,21,26,1,3,2,,,,,,,,,,,,,,,,,,,,,,,,,,,,,,,,,,,,,,,,,,,,,,,,,,,,,,,,,,,,,,,,,,,,,,,,,,,,,,,,,,,,,,,,,,,,,,,,,,,,,,,,,,,,,
,,,,,,,,,,stimuli/images/PICTURE_405.png,JUNGLE,5d069f2f041328001a7815be,01/27/1943,2020-09-10_21h14.00.368,proactive3.1,2020.1.2,Win32,60,5f599a131af4471f3d752b7b,5f5add3d2700561f1dc67051,5,,,,,,anchor,,,,,,0,22,22,13,1,2,2,,,,,,,,,,,,,,,,,,,,,,,,,,,,,,,,,,,,,,,,,,,,,,,,,,,,,,,,,,,,,,,,,,,,,,,,,,,,,,,,,,,,,,,,,,,,,,,,,,,,,,,,,,,,,
,,,,,,,,,,stimuli/images/PICTURE_57.png,CASINO,5d069f2f041328001a7815be,01/27/1943,2020-09-10_21h14.00.368,proactive3.1,2020.1.2,Win32,60,5f599a131af4471f3d752b7b,5f5add3d2700561f1dc67051,5,,,,,,stamp,,,,,,0,23,23,12,1,2,2,,,,,,,,,,,,,,,,,,,,,,,,,,,,,,,,,,,,,,,,,,,,,,,,,,,,,,,,,,,,,,,,,,,,,,,,,,,,,,,,,,,,,,,,,,,,,,,,,,,,,,,,,,,,,
,,,,,,,,,,stimuli/images/PICTURE_453.png,FAMILY,5d069f2f041328001a7815be,01/27/1943,2020-09-10_21h14.00.368,proactive3.1,2020.1.2,Win32,60,5f599a131af4471f3d752b7b,5f5add3d2700561f1dc67051,5,,,,,,scissors,,,,,,0,24,24,48,1,5,2,,,,,,,,,,,,,,,,,,,,,,,,,,,,,,,,,,,,,,,,,,,,,,,,,,,,,,,,,,,,,,,,,,,,,,,,,,,,,,,,,,,,,,,,,,,,,,,,,,,,,,,,,,,,,
,,,,,,,,,,stimuli/images/PICTURE_452.png,COPS,5d069f2f041328001a7815be,01/27/1943,2020-09-10_21h14.00.368,proactive3.1,2020.1.2,Win32,60,5f599a131af4471f3d752b7b,5f5add3d2700561f1dc67051,5,,,,,,watch,,,,,,0,25,25,0,1,1,2,,,,,,,,,,,,,,,,,,,,,,,,,,,,,,,,,,,,,,,,,,,,,,,,,,,,,,,,,,,,,,,,,,,,,,,,,,,,,,,,,,,,,,,,,,,,,,,,,,,,,,,,,,,,,
,,,,,,,,,,stimuli/images/PICTURE_655.png,SALE,5d069f2f041328001a7815be,01/27/1943,2020-09-10_21h14.00.368,proactive3.1,2020.1.2,Win32,60,5f599a131af4471f3d752b7b,5f5add3d2700561f1dc67051,5,,,,,,megaphone,,,,,,0,26,26,57,1,6,2,,,,,,,,,,,,,,,,,,,,,,,,,,,,,,,,,,,,,,,,,,,,,,,,,,,,,,,,,,,,,,,,,,,,,,,,,,,,,,,,,,,,,,,,,,,,,,,,,,,,,,,,,,,,,
,,,,,,,,,,stimuli/images/PICTURE_160.png,HOTEL,5d069f2f041328001a7815be,01/27/1943,2020-09-10_21h14.00.368,proactive3.1,2020.1.2,Win32,60,5f599a131af4471f3d752b7b,5f5add3d2700561f1dc67051,5,,,,,,wheelbarrow,,,,,,0,27,27,16,1,2,2,,,,,,,,,,,,,,,,,,,,,,,,,,,,,,,,,,,,,,,,,,,,,,,,,,,,,,,,,,,,,,,,,,,,,,,,,,,,,,,,,,,,,,,,,,,,,,,,,,,,,,,,,,,,,
,,,,,,,,,,stimuli/images/PICTURE_688.png,CLOCK,5d069f2f041328001a7815be,01/27/1943,2020-09-10_21h14.00.368,proactive3.1,2020.1.2,Win32,60,5f599a131af4471f3d752b7b,5f5add3d2700561f1dc67051,5,,,,,,runner,,,,,,0,28,28,42,1,5,2,,,,,,,,,,,,,,,,,,,,,,,,,,,,,,,,,,,,,,,,,,,,,,,,,,,,,,,,,,,,,,,,,,,,,,,,,,,,,,,,,,,,,,,,,,,,,,,,,,,,,,,,,,,,,
,,,,,,,,,,stimuli/images/PICTURE_692.png,DUDE,5d069f2f041328001a7815be,01/27/1943,2020-09-10_21h14.00.368,proactive3.1,2020.1.2,Win32,60,5f599a131af4471f3d752b7b,5f5add3d2700561f1dc67051,5,,,,,,cherry,,,,,,0,29,29,47,1,5,2,,,,,,,,,,,,,,,,,,,,,,,,,,,,,,,,,,,,,,,,,,,,,,,,,,,,,,,,,,,,,,,,,,,,,,,,,,,,,,,,,,,,,,,,,,,,,,,,,,,,,,,,,,,,,
,,,,,,,,,,stimuli/images/PICTURE_215.png,FOOD,5d069f2f041328001a7815be,01/27/1943,2020-09-10_21h14.00.368,proactive3.1,2020.1.2,Win32,60,5f599a131af4471f3d752b7b,5f5add3d2700561f1dc67051,5,,,,,,boot,,,,,,0,30,30,5,1,1,2,,,,,,,,,,,,,,,,,,,,,,,,,,,,,,,,,,,,,,,,,,,,,,,,,,,,,,,,,,,,,,,,,,,,,,,,,,,,,,,,,,,,,,,,,,,,,,,,,,,,,,,,,,,,,
,,,,,,,,,,stimuli/images/PICTURE_677.png,PHOTO,5d069f2f041328001a7815be,01/27/1943,2020-09-10_21h14.00.368,proactive3.1,2020.1.2,Win32,60,5f599a131af4471f3d752b7b,5f5add3d2700561f1dc67051,5,,,,,,map,,,,,,0,31,31,14,1,2,2,,,,,,,,,,,,,,,,,,,,,,,,,,,,,,,,,,,,,,,,,,,,,,,,,,,,,,,,,,,,,,,,,,,,,,,,,,,,,,,,,,,,,,,,,,,,,,,,,,,,,,,,,,,,,
,,,,,,,,,,stimuli/images/PICTURE_123.png,SALE,5d069f2f041328001a7815be,01/27/1943,2020-09-10_21h14.00.368,proactive3.1,2020.1.2,Win32,60,5f599a131af4471f3d752b7b,5f5add3d2700561f1dc67051,5,,,,,,dart,,,,,,0,32,32,8,1,1,2,,,,,,,,,,,,,,,,,,,,,,,,,,,,,,,,,,,,,,,,,,,,,,,,,,,,,,,,,,,,,,,,,,,,,,,,,,,,,,,,,,,,,,,,,,,,,,,,,,,,,,,,,,,,,
,,,,,,,,,,stimuli/images/PICTURE_95.png,NIGHT,5d069f2f041328001a7815be,01/27/1943,2020-09-10_21h14.00.368,proactive3.1,2020.1.2,Win32,60,5f599a131af4471f3d752b7b,5f5add3d2700561f1dc67051,5,,,,,,suitcase,,,,,,0,33,33,37,1,4,2,,,,,,,,,,,,,,,,,,,,,,,,,,,,,,,,,,,,,,,,,,,,,,,,,,,,,,,,,,,,,,,,,,,,,,,,,,,,,,,,,,,,,,,,,,,,,,,,,,,,,,,,,,,,,
,,,,,,,,,,stimuli/images/PICTURE_564.png,PLENTY,5d069f2f041328001a7815be,01/27/1943,2020-09-10_21h14.00.368,proactive3.1,2020.1.2,Win32,60,5f599a131af4471f3d752b7b,5f5add3d2700561f1dc67051,5,,,,,,spoon,,,,,,0,34,34,11,1,2,2,,,,,,,,,,,,,,,,,,,,,,,,,,,,,,,,,,,,,,,,,,,,,,,,,,,,,,,,,,,,,,,,,,,,,,,,,,,,,,,,,,,,,,,,,,,,,,,,,,,,,,,,,,,,,
,,,,,,,,,,stimuli/images/PICTURE_147.png,LEADER,5d069f2f041328001a7815be,01/27/1943,2020-09-10_21h14.00.368,proactive3.1,2020.1.2,Win32,60,5f599a131af4471f3d752b7b,5f5add3d2700561f1dc67051,5,,,,,,hanger,,,,,,0,35,35,33,1,4,2,,,,,,,,,,,,,,,,,,,,,,,,,,,,,,,,,,,,,,,,,,,,,,,,,,,,,,,,,,,,,,,,,,,,,,,,,,,,,,,,,,,,,,,,,,,,,,,,,,,,,,,,,,,,,
,,,,,,,,,,stimuli/images/PICTURE_208.png,SPIRIT,5d069f2f041328001a7815be,01/27/1943,2020-09-10_21h14.00.368,proactive3.1,2020.1.2,Win32,60,5f599a131af4471f3d752b7b,5f5add3d2700561f1dc67051,5,,,,,,microphone,,,,,,0,36,36,28,1,3,2,,,,,,,,,,,,,,,,,,,,,,,,,,,,,,,,,,,,,,,,,,,,,,,,,,,,,,,,,,,,,,,,,,,,,,,,,,,,,,,,,,,,,,,,,,,,,,,,,,,,,,,,,,,,,
,,,,,,,,,,stimuli/images/PICTURE_405.png,HOUSE,5d069f2f041328001a7815be,01/27/1943,2020-09-10_21h14.00.368,proactive3.1,2020.1.2,Win32,60,5f599a131af4471f3d752b7b,5f5add3d2700561f1dc67051,5,,,,,,anchor,,,,,,0,37,37,2,1,1,2,,,,,,,,,,,,,,,,,,,,,,,,,,,,,,,,,,,,,,,,,,,,,,,,,,,,,,,,,,,,,,,,,,,,,,,,,,,,,,,,,,,,,,,,,,,,,,,,,,,,,,,,,,,,,
,,,,,,,,,,stimuli/images/PICTURE_356.png,CANDY,5d069f2f041328001a7815be,01/27/1943,2020-09-10_21h14.00.368,proactive3.1,2020.1.2,Win32,60,5f599a131af4471f3d752b7b,5f5add3d2700561f1dc67051,5,,,,,,pawn,,,,,,0,38,38,46,1,5,2,,,,,,,,,,,,,,,,,,,,,,,,,,,,,,,,,,,,,,,,,,,,,,,,,,,,,,,,,,,,,,,,,,,,,,,,,,,,,,,,,,,,,,,,,,,,,,,,,,,,,,,,,,,,,
,,,,,,,,,,stimuli/images/PICTURE_285.png,WRITER,5d069f2f041328001a7815be,01/27/1943,2020-09-10_21h14.00.368,proactive3.1,2020.1.2,Win32,60,5f599a131af4471f3d752b7b,5f5add3d2700561f1dc67051,5,,,,,,carrot,,,,,,0,39,39,6,1,1,2,,,,,,,,,,,,,,,,,,,,,,,,,,,,,,,,,,,,,,,,,,,,,,,,,,,,,,,,,,,,,,,,,,,,,,,,,,,,,,,,,,,,,,,,,,,,,,,,,,,,,,,,,,,,,
,,,,,,,,,,stimuli/images/PICTURE_311.png,FLESH,5d069f2f041328001a7815be,01/27/1943,2020-09-10_21h14.00.368,proactive3.1,2020.1.2,Win32,60,5f599a131af4471f3d752b7b,5f5add3d2700561f1dc67051,5,,,,,,razor,,,,,,0,40,40,3,1,1,2,,,,,,,,,,,,,,,,,,,,,,,,,,,,,,,,,,,,,,,,,,,,,,,,,,,,,,,,,,,,,,,,,,,,,,,,,,,,,,,,,,,,,,,,,,,,,,,,,,,,,,,,,,,,,
,,,,,,,,,,stimuli/images/PICTURE_654.png,COPS,5d069f2f041328001a7815be,01/27/1943,2020-09-10_21h14.00.368,proactive3.1,2020.1.2,Win32,60,5f599a131af4471f3d752b7b,5f5add3d2700561f1dc67051,5,,,,,,pencil,,,,,,0,41,41,10,1,2,2,,,,,,,,,,,,,,,,,,,,,,,,,,,,,,,,,,,,,,,,,,,,,,,,,,,,,,,,,,,,,,,,,,,,,,,,,,,,,,,,,,,,,,,,,,,,,,,,,,,,,,,,,,,,,
,,,,,,,,,,stimuli/images/PICTURE_18.png,RIVER,5d069f2f041328001a7815be,01/27/1943,2020-09-10_21h14.00.368,proactive3.1,2020.1.2,Win32,60,5f599a131af4471f3d752b7b,5f5add3d2700561f1dc67051,5,,,,,,planet,,,,,,0,42,42,22,1,3,2,,,,,,,,,,,,,,,,,,,,,,,,,,,,,,,,,,,,,,,,,,,,,,,,,,,,,,,,,,,,,,,,,,,,,,,,,,,,,,,,,,,,,,,,,,,,,,,,,,,,,,,,,,,,,
,,,,,,,,,,stimuli/images/PICTURE_57.png,CANDY,5d069f2f041328001a7815be,01/27/1943,2020-09-10_21h14.00.368,proactive3.1,2020.1.2,Win32,60,5f599a131af4471f3d752b7b,5f5add3d2700561f1dc67051,5,,,,,,stamp,,,,,,0,43,43,52,1,6,2,,,,,,,,,,,,,,,,,,,,,,,,,,,,,,,,,,,,,,,,,,,,,,,,,,,,,,,,,,,,,,,,,,,,,,,,,,,,,,,,,,,,,,,,,,,,,,,,,,,,,,,,,,,,,
,,,,,,,,,,stimuli/images/PICTURE_177.png,HOUSE,5d069f2f041328001a7815be,01/27/1943,2020-09-10_21h14.00.368,proactive3.1,2020.1.2,Win32,60,5f599a131af4471f3d752b7b,5f5add3d2700561f1dc67051,5,,,,,,mushroom,,,,,,0,44,44,25,1,3,2,,,,,,,,,,,,,,,,,,,,,,,,,,,,,,,,,,,,,,,,,,,,,,,,,,,,,,,,,,,,,,,,,,,,,,,,,,,,,,,,,,,,,,,,,,,,,,,,,,,,,,,,,,,,,
,,,,,,,,,,stimuli/images/PICTURE_2.png,AREA,5d069f2f041328001a7815be,01/27/1943,2020-09-10_21h14.00.368,proactive3.1,2020.1.2,Win32,60,5f599a131af4471f3d752b7b,5f5add3d2700561f1dc67051,5,,,,,,tyre,,,,,,0,45,45,32,1,4,2,,,,,,,,,,,,,,,,,,,,,,,,,,,,,,,,,,,,,,,,,,,,,,,,,,,,,,,,,,,,,,,,,,,,,,,,,,,,,,,,,,,,,,,,,,,,,,,,,,,,,,,,,,,,,
,,,,,,,,,,stimuli/images/PICTURE_509.png,BATH,5d069f2f041328001a7815be,01/27/1943,2020-09-10_21h14.00.368,proactive3.1,2020.1.2,Win32,60,5f599a131af4471f3d752b7b,5f5add3d2700561f1dc67051,5,,,,,,telephone,,,,,,0,46,46,15,1,2,2,,,,,,,,,,,,,,,,,,,,,,,,,,,,,,,,,,,,,,,,,,,,,,,,,,,,,,,,,,,,,,,,,,,,,,,,,,,,,,,,,,,,,,,,,,,,,,,,,,,,,,,,,,,,,
,,,,,,,,,,stimuli/images/PICTURE_509.png,APPLE,5d069f2f041328001a7815be,01/27/1943,2020-09-10_21h14.00.368,proactive3.1,2020.1.2,Win32,60,5f599a131af4471f3d752b7b,5f5add3d2700561f1dc67051,5,,,,,,telephone,,,,,,0,47,47,38,1,4,2,,,,,,,,,,,,,,,,,,,,,,,,,,,,,,,,,,,,,,,,,,,,,,,,,,,,,,,,,,,,,,,,,,,,,,,,,,,,,,,,,,,,,,,,,,,,,,,,,,,,,,,,,,,,,
,,,,,,,,,,stimuli/images/PICTURE_750.png,POLICY,5d069f2f041328001a7815be,01/27/1943,2020-09-10_21h14.00.368,proactive3.1,2020.1.2,Win32,60,5f599a131af4471f3d752b7b,5f5add3d2700561f1dc67051,5,,,,,,kettle,,,,,,0,48,48,44,1,5,2,,,,,,,,,,,,,,,,,,,,,,,,,,,,,,,,,,,,,,,,,,,,,,,,,,,,,,,,,,,,,,,,,,,,,,,,,,,,,,,,,,,,,,,,,,,,,,,,,,,,,,,,,,,,,
,,,,,,,,,,stimuli/images/PICTURE_311.png,TOILET,5d069f2f041328001a7815be,01/27/1943,2020-09-10_21h14.00.368,proactive3.1,2020.1.2,Win32,60,5f599a131af4471f3d752b7b,5f5add3d2700561f1dc67051,5,,,,,,razor,,,,,,0,49,49,54,1,6,2,,,,,,,,,,,,,,,,,,,,,,,,,,,,,,,,,,,,,,,,,,,,,,,,,,,,,,,,,,,,,,,,,,,,,,,,,,,,,,,,,,,,,,,,,,,,,,,,,,,,,,,,,,,,,
,,,,,,,,,,stimuli/images/PICTURE_509.png,SHOTS,5d069f2f041328001a7815be,01/27/1943,2020-09-10_21h14.00.368,proactive3.1,2020.1.2,Win32,60,5f599a131af4471f3d752b7b,5f5add3d2700561f1dc67051,5,,,,,,telephone,,,,,,0,50,50,7,1,1,2,,,,,,,,,,,,,,,,,,,,,,,,,,,,,,,,,,,,,,,,,,,,,,,,,,,,,,,,,,,,,,,,,,,,,,,,,,,,,,,,,,,,,,,,,,,,,,,,,,,,,,,,,,,,,
,,,,,,,,,,stimuli/images/PICTURE_215.png,LEADER,5d069f2f041328001a7815be,01/27/1943,2020-09-10_21h14.00.368,proactive3.1,2020.1.2,Win32,60,5f599a131af4471f3d752b7b,5f5add3d2700561f1dc67051,5,,,,,,boot,,,,,,0,51,51,43,1,5,2,,,,,,,,,,,,,,,,,,,,,,,,,,,,,,,,,,,,,,,,,,,,,,,,,,,,,,,,,,,,,,,,,,,,,,,,,,,,,,,,,,,,,,,,,,,,,,,,,,,,,,,,,,,,,
,,,,,,,,,,stimuli/images/PICTURE_708.png,VALLEY,5d069f2f041328001a7815be,01/27/1943,2020-09-10_21h14.00.368,proactive3.1,2020.1.2,Win32,60,5f599a131af4471f3d752b7b,5f5add3d2700561f1dc67051,5,,,,,,monkey,,,,,,0,52,52,45,1,5,2,,,,,,,,,,,,,,,,,,,,,,,,,,,,,,,,,,,,,,,,,,,,,,,,,,,,,,,,,,,,,,,,,,,,,,,,,,,,,,,,,,,,,,,,,,,,,,,,,,,,,,,,,,,,,
,,,,,,,,,,stimuli/images/PICTURE_285.png,PRINCE,5d069f2f041328001a7815be,01/27/1943,2020-09-10_21h14.00.368,proactive3.1,2020.1.2,Win32,60,5f599a131af4471f3d752b7b,5f5add3d2700561f1dc67051,5,,,,,,carrot,,,,,,0,53,53,20,1,3,2,,,,,,,,,,,,,,,,,,,,,,,,,,,,,,,,,,,,,,,,,,,,,,,,,,,,,,,,,,,,,,,,,,,,,,,,,,,,,,,,,,,,,,,,,,,,,,,,,,,,,,,,,,,,,
,,,,,,,,,,stimuli/images/PICTURE_654.png,YEAR,5d069f2f041328001a7815be,01/27/1943,2020-09-10_21h14.00.368,proactive3.1,2020.1.2,Win32,60,5f599a131af4471f3d752b7b,5f5add3d2700561f1dc67051,5,,,,,,pencil,,,,,,0,54,54,41,1,5,2,,,,,,,,,,,,,,,,,,,,,,,,,,,,,,,,,,,,,,,,,,,,,,,,,,,,,,,,,,,,,,,,,,,,,,,,,,,,,,,,,,,,,,,,,,,,,,,,,,,,,,,,,,,,,
,,,,,,,,,,stimuli/images/PICTURE_2.png,YARD,5d069f2f041328001a7815be,01/27/1943,2020-09-10_21h14.00.368,proactive3.1,2020.1.2,Win32,60,5f599a131af4471f3d752b7b,5f5add3d2700561f1dc67051,5,,,,,,tyre,,,,,,0,55,55,55,1,6,2,,,,,,,,,,,,,,,,,,,,,,,,,,,,,,,,,,,,,,,,,,,,,,,,,,,,,,,,,,,,,,,,,,,,,,,,,,,,,,,,,,,,,,,,,,,,,,,,,,,,,,,,,,,,,
,,,,,,,,,,stimuli/images/PICTURE_314.png,SPEECH,5d069f2f041328001a7815be,01/27/1943,2020-09-10_21h14.00.368,proactive3.1,2020.1.2,Win32,60,5f599a131af4471f3d752b7b,5f5add3d2700561f1dc67051,5,,,,,,perfume,,,,,,0,56,56,35,1,4,2,,,,,,,,,,,,,,,,,,,,,,,,,,,,,,,,,,,,,,,,,,,,,,,,,,,,,,,,,,,,,,,,,,,,,,,,,,,,,,,,,,,,,,,,,,,,,,,,,,,,,,,,,,,,,
,,,,,,,,,,stimuli/images/PICTURE_57.png,NATION,5d069f2f041328001a7815be,01/27/1943,2020-09-10_21h14.00.368,proactive3.1,2020.1.2,Win32,60,5f599a131af4471f3d752b7b,5f5add3d2700561f1dc67051,5,,,,,,stamp,,,,,,0,57,57,21,1,3,2,,,,,,,,,,,,,,,,,,,,,,,,,,,,,,,,,,,,,,,,,,,,,,,,,,,,,,,,,,,,,,,,,,,,,,,,,,,,,,,,,,,,,,,,,,,,,,,,,,,,,,,,,,,,,
,,,,,,,,,,stimuli/images/PICTURE_296.png,CLOCK,5d069f2f041328001a7815be,01/27/1943,2020-09-10_21h14.00.368,proactive3.1,2020.1.2,Win32,60,5f599a131af4471f3d752b7b,5f5add3d2700561f1dc67051,5,,,,,,bolt,,,,,,0,58,58,18,1,2,2,,,,,,,,,,,,,,,,,,,,,,,,,,,,,,,,,,,,,,,,,,,,,,,,,,,,,,,,,,,,,,,,,,,,,,,,,,,,,,,,,,,,,,,,,,,,,,,,,,,,,,,,,,,,,
,,?,0.002375,0,,,,,,stimuli/images/PICTURE_677.png,FAMILY,5d069f2f041328001a7815be,01/27/1943,2020-09-10_21h14.00.368,proactive3.1,2020.1.2,Win32,60,5f599a131af4471f3d752b7b,5f5add3d2700561f1dc67051,5,,,,,,map,,,,,,,,,,,6,2,0,0,0,53,1,,,,,,,,,,,,,,,,,,,,,,,,,,,,,,,,,,,,,,,,,,,,,,,,,,,,,,,,,,,,,,,,,,,,,,,,,,,,,,,,,,,,,,,,,,,,,,,,,,,,,,,,
,,?,0.001395,0,,,,,,stimuli/images/PICTURE_57.png,CASINO,5d069f2f041328001a7815be,01/27/1943,2020-09-10_21h14.00.368,proactive3.1,2020.1.2,Win32,60,5f599a131af4471f3d752b7b,5f5add3d2700561f1dc67051,5,,,,,,stamp,,,,,,,,,,,2,2,0,1,1,12,1,,,,,,,,,,,,,,,,,,,,,,,,,,,,,,,,,,,,,,,,,,,,,,,,,,,,,,,,,,,,,,,,,,,,,,,,,,,,,,,,,,,,,,,,,,,,,,,,,,,,,,,,
,,?,0.00129,0,,,,,,stimuli/images/PICTURE_93.png,GIRL,5d069f2f041328001a7815be,01/27/1943,2020-09-10_21h14.00.368,proactive3.1,2020.1.2,Win32,60,5f599a131af4471f3d752b7b,5f5add3d2700561f1dc67051,5,,,,,,skateboard,,,,,,,,,,,4,2,0,2,2,31,1,,,,,,,,,,,,,,,,,,,,,,,,,,,,,,,,,,,,,,,,,,,,,,,,,,,,,,,,,,,,,,,,,,,,,,,,,,,,,,,,,,,,,,,,,,,,,,,,,,,,,,,,
,,?,0.00087,0,,,,,,stimuli/images/PICTURE_141.png,CLIENT,5d069f2f041328001a7815be,01/27/1943,2020-09-10_21h14.00.368,proactive3.1,2020.1.2,Win32,60,5f599a131af4471f3d752b7b,5f5add3d2700561f1dc67051,5,,,,,,sunflower,,,,,,,,,,,4,2,0,3,3,30,1,,,,,,,,,,,,,,,,,,,,,,,,,,,,,,,,,,,,,,,,,,,,,,,,,,,,,,,,,,,,,,,,,,,,,,,,,,,,,,,,,,,,,,,,,,,,,,,,,,,,,,,,
,,?,0.00082,0,,,,,,stimuli/images/PICTURE_327.png,LEADER,5d069f2f041328001a7815be,01/27/1943,2020-09-10_21h14.00.368,proactive3.1,2020.1.2,Win32,60,5f599a131af4471f3d752b7b,5f5add3d2700561f1dc67051,5,,,,,,helmet,,,,,,,,,,,2,2,0,4,4,17,1,,,,,,,,,,,,,,,,,,,,,,,,,,,,,,,,,,,,,,,,,,,,,,,,,,,,,,,,,,,,,,,,,,,,,,,,,,,,,,,,,,,,,,,,,,,,,,,,,,,,,,,,
,,?,0.000855,0,,,,,,stimuli/images/PICTURE_509.png,BATH,5d069f2f041328001a7815be,01/27/1943,2020-09-10_21h14.00.368,proactive3.1,2020.1.2,Win32,60,5f599a131af4471f3d752b7b,5f5add3d2700561f1dc67051,5,,,,,,telephone,,,,,,,,,,,2,2,0,5,5,15,1,,,,,,,,,,,,,,,,,,,,,,,,,,,,,,,,,,,,,,,,,,,,,,,,,,,,,,,,,,,,,,,,,,,,,,,,,,,,,,,,,,,,,,,,,,,,,,,,,,,,,,,,
,,?,0.00065,0,,,,,,stimuli/images/PICTURE_452.png,COPS,5d069f2f041328001a7815be,01/27/1943,2020-09-10_21h14.00.368,proactive3.1,2020.1.2,Win32,60,5f599a131af4471f3d752b7b,5f5add3d2700561f1dc67051,5,,,,,,watch,,,,,,,,,,,1,2,0,6,6,0,1,,,,,,,,,,,,,,,,,,,,,,,,,,,,,,,,,,,,,,,,,,,,,,,,,,,,,,,,,,,,,,,,,,,,,,,,,,,,,,,,,,,,,,,,,,,,,,,,,,,,,,,,
,,?,0.00078,0,,,,,,stimuli/images/PICTURE_160.png,HOTEL,5d069f2f041328001a7815be,01/27/1943,2020-09-10_21h14.00.368,proactive3.1,2020.1.2,Win32,60,5f599a131af4471f3d752b7b,5f5add3d2700561f1dc67051,5,,,,,,wheelbarrow,,,,,,,,,,,2,2,0,7,7,16,1,,,,,,,,,,,,,,,,,,,,,,,,,,,,,,,,,,,,,,,,,,,,,,,,,,,,,,,,,,,,,,,,,,,,,,,,,,,,,,,,,,,,,,,,,,,,,,,,,,,,,,,,
,,YEAR,2.89503,1,,,,,,stimuli/images/PICTURE_654.png,YEAR,5d069f2f041328001a7815be,01/27/1943,2020-09-10_21h14.00.368,proactive3.1,2020.1.2,Win32,60,5f599a131af4471f3d752b7b,5f5add3d2700561f1dc67051,5,,,,,,pencil,,,,,,,,,,,5,2,0,8,8,41,1,,,,,,,,,,,,,,,,,,,,,,,,,,,,,,,,,,,,,,,,,,,,,,,,,,,,,,,,,,,,,,,,,,,,,,,,,,,,,,,,,,,,,,,,,,,,,,,,,,,,,,,,
,,?,0.001165,0,,,,,,stimuli/images/PICTURE_509.png,APPLE,5d069f2f041328001a7815be,01/27/1943,2020-09-10_21h14.00.368,proactive3.1,2020.1.2,Win32,60,5f599a131af4471f3d752b7b,5f5add3d2700561f1dc67051,5,,,,,,telephone,,,,,,,,,,,4,2,0,9,9,38,1,,,,,,,,,,,,,,,,,,,,,,,,,,,,,,,,,,,,,,,,,,,,,,,,,,,,,,,,,,,,,,,,,,,,,,,,,,,,,,,,,,,,,,,,,,,,,,,,,,,,,,,,
,,?,0.00093,0,,,,,,stimuli/images/PICTURE_311.png,TOILET,5d069f2f041328001a7815be,01/27/1943,2020-09-10_21h14.00.368,proactive3.1,2020.1.2,Win32,60,5f599a131af4471f3d752b7b,5f5add3d2700561f1dc67051,5,,,,,,razor,,,,,,,,,,,6,2,0,10,10,54,1,,,,,,,,,,,,,,,,,,,,,,,,,,,,,,,,,,,,,,,,,,,,,,,,,,,,,,,,,,,,,,,,,,,,,,,,,,,,,,,,,,,,,,,,,,,,,,,,,,,,,,,,
,,?,0.000925,0,,,,,,stimuli/images/PICTURE_285.png,WRITER,5d069f2f041328001a7815be,01/27/1943,2020-09-10_21h14.00.368,proactive3.1,2020.1.2,Win32,60,5f599a131af4471f3d752b7b,5f5add3d2700561f1dc67051,5,,,,,,carrot,,,,,,,,,,,1,2,0,11,11,6,1,,,,,,,,,,,,,,,,,,,,,,,,,,,,,,,,,,,,,,,,,,,,,,,,,,,,,,,,,,,,,,,,,,,,,,,,,,,,,,,,,,,,,,,,,,,,,,,,,,,,,,,,
,,?,0.000905,0,,,,,,stimuli/images/PICTURE_32.png,LETTER,5d069f2f041328001a7815be,01/27/1943,2020-09-10_21h14.00.368,proactive3.1,2020.1.2,Win32,60,5f599a131af4471f3d752b7b,5f5add3d2700561f1dc67051,5,,,,,,crown,,,,,,,,,,,6,2,0,12,12,56,1,,,,,,,,,,,,,,,,,,,,,,,,,,,,,,,,,,,,,,,,,,,,,,,,,,,,,,,,,,,,,,,,,,,,,,,,,,,,,,,,,,,,,,,,,,,,,,,,,,,,,,,,
,,NOVEL,4.553995,0,,,,,,stimuli/images/PICTURE_750.png,POLICY,5d069f2f041328001a7815be,01/27/1943,2020-09-10_21h14.00.368,proactive3.1,2020.1.2,Win32,60,5f599a131af4471f3d752b7b,5f5add3d2700561f1dc67051,5,,,,,,kettle,,,,,,,,,,,5,2,0,13,13,44,1,,,,,,,,,,,,,,,,,,,,,,,,,,,,,,,,,,,,,,,,,,,,,,,,,,,,,,,,,,,,,,,,,,,,,,,,,,,,,,,,,,,,,,,,,,,,,,,,,,,,,,,,
,,?,0.00125,0,,,,,,stimuli/images/PICTURE_123.png,SALE,5d069f2f041328001a7815be,01/27/1943,2020-09-10_21h14.00.368,proactive3.1,2020.1.2,Win32,60,5f599a131af4471f3d752b7b,5f5add3d2700561f1dc67051,5,,,,,,dart,,,,,,,,,,,1,2,0,14,14,8,1,,,,,,,,,,,,,,,,,,,,,,,,,,,,,,,,,,,,,,,,,,,,,,,,,,,,,,,,,,,,,,,,,,,,,,,,,,,,,,,,,,,,,,,,,,,,,,,,,,,,,,,,
,,?,0.001295,0,,,,,,stimuli/images/PICTURE_487.png,ROOF,5d069f2f041328001a7815be,01/27/1943,2020-09-10_21h14.00.368,proactive3.1,2020.1.2,Win32,60,5f599a131af4471f3d752b7b,5f5add3d2700561f1dc67051,5,,,,,,basket,,,,,,,,,,,6,2,0,15,15,50,1,,,,,,,,,,,,,,,,,,,,,,,,,,,,,,,,,,,,,,,,,,,,,,,,,,,,,,,,,,,,,,,,,,,,,,,,,,,,,,,,,,,,,,,,,,,,,,,,,,,,,,,,
,,CANDY,4.7229,1,,,,,,stimuli/images/PICTURE_356.png,CANDY,5d069f2f041328001a7815be,01/27/1943,2020-09-10_21h14.00.368,proactive3.1,2020.1.2,Win32,60,5f599a131af4471f3d752b7b,5f5add3d2700561f1dc67051,5,,,,,,pawn,,,,,,,,,,,5,2,0,16,16,46,1,,,,,,,,,,,,,,,,,,,,,,,,,,,,,,,,,,,,,,,,,,,,,,,,,,,,,,,,,,,,,,,,,,,,,,,,,,,,,,,,,,,,,,,,,,,,,,,,,,,,,,,,
,,?,0.001345,0,,,,,,stimuli/images/PICTURE_297.png,BODY,5d069f2f041328001a7815be,01/27/1943,2020-09-10_21h14.00.368,proactive3.1,2020.1.2,Win32,60,5f599a131af4471f3d752b7b,5f5add3d2700561f1dc67051,5,,,,,,aeroplane,,,,,,,,,,,6,2,0,17,17,51,1,,,,,,,,,,,,,,,,,,,,,,,,,,,,,,,,,,,,,,,,,,,,,,,,,,,,,,,,,,,,,,,,,,,,,,,,,,,,,,,,,,,,,,,,,,,,,,,,,,,,,,,,
,,?,0.00113,0,,,,,,stimuli/images/PICTURE_95.png,NIGHT,5d069f2f041328001a7815be,01/27/1943,2020-09-10_21h14.00.368,proactive3.1,2020.1.2,Win32,60,5f599a131af4471f3d752b7b,5f5add3d2700561f1dc67051,5,,,,,,suitcase,,,,,,,,,,,4,2,0,18,18,37,1,,,,,,,,,,,,,,,,,,,,,,,,,,,,,,,,,,,,,,,,,,,,,,,,,,,,,,,,,,,,,,,,,,,,,,,,,,,,,,,,,,,,,,,,,,,,,,,,,,,,,,,,
,,?,0.00123,0,,,,,,stimuli/images/PICTURE_405.png,JUNGLE,5d069f2f041328001a7815be,01/27/1943,2020-09-10_21h14.00.368,proactive3.1,2020.1.2,Win32,60,5f599a131af4471f3d752b7b,5f5add3d2700561f1dc67051,5,,,,,,anchor,,,,,,,,,,,2,2,0,19,19,13,1,,,,,,,,,,,,,,,,,,,,,,,,,,,,,,,,,,,,,,,,,,,,,,,,,,,,,,,,,,,,,,,,,,,,,,,,,,,,,,,,,,,,,,,,,,,,,,,,,,,,,,,,
,,?,0.00113,0,,,,,,stimuli/images/PICTURE_509.png,SHOTS,5d069f2f041328001a7815be,01/27/1943,2020-09-10_21h14.00.368,proactive3.1,2020.1.2,Win32,60,5f599a131af4471f3d752b7b,5f5add3d2700561f1dc67051,5,,,,,,telephone,,,,,,,,,,,1,2,0,20,20,7,1,,,,,,,,,,,,,,,,,,,,,,,,,,,,,,,,,,,,,,,,,,,,,,,,,,,,,,,,,,,,,,,,,,,,,,,,,,,,,,,,,,,,,,,,,,,,,,,,,,,,,,,,
,,?,0.003235,0,,,,,,stimuli/images/PICTURE_2.png,YARD,5d069f2f041328001a7815be,01/27/1943,2020-09-10_21h14.00.368,proactive3.1,2020.1.2,Win32,60,5f599a131af4471f3d752b7b,5f5add3d2700561f1dc67051,5,,,,,,tyre,,,,,,,,,,,6,2,0,21,21,55,1,,,,,,,,,,,,,,,,,,,,,,,,,,,,,,,,,,,,,,,,,,,,,,,,,,,,,,,,,,,,,,,,,,,,,,,,,,,,,,,,,,,,,,,,,,,,,,,,,,,,,,,,
,,?,0.00123,0,,,,,,stimuli/images/PICTURE_215.png,FOOD,5d069f2f041328001a7815be,01/27/1943,2020-09-10_21h14.00.368,proactive3.1,2020.1.2,Win32,60,5f599a131af4471f3d752b7b,5f5add3d2700561f1dc67051,5,,,,,,boot,,,,,,,,,,,1,2,0,22,22,5,1,,,,,,,,,,,,,,,,,,,,,,,,,,,,,,,,,,,,,,,,,,,,,,,,,,,,,,,,,,,,,,,,,,,,,,,,,,,,,,,,,,,,,,,,,,,,,,,,,,,,,,,,
,,?,0.000855,0,,,,,,stimuli/images/PICTURE_208.png,SPIRIT,5d069f2f041328001a7815be,01/27/1943,2020-09-10_21h14.00.368,proactive3.1,2020.1.2,Win32,60,5f599a131af4471f3d752b7b,5f5add3d2700561f1dc67051,5,,,,,,microphone,,,,,,,,,,,3,2,0,23,23,28,1,,,,,,,,,,,,,,,,,,,,,,,,,,,,,,,,,,,,,,,,,,,,,,,,,,,,,,,,,,,,,,,,,,,,,,,,,,,,,,,,,,,,,,,,,,,,,,,,,,,,,,,,
,,?,0.00069,0,,,,,,stimuli/images/PICTURE_405.png,HOUSE,5d069f2f041328001a7815be,01/27/1943,2020-09-10_21h14.00.368,proactive3.1,2020.1.2,Win32,60,5f599a131af4471f3d752b7b,5f5add3d2700561f1dc67051,5,,,,,,anchor,,,,,,,,,,,1,2,0,24,24,2,1,,,,,,,,,,,,,,,,,,,,,,,,,,,,,,,,,,,,,,,,,,,,,,,,,,,,,,,,,,,,,,,,,,,,,,,,,,,,,,,,,,,,,,,,,,,,,,,,,,,,,,,,
,,?,0.000675,0,,,,,,stimuli/images/PICTURE_18.png,RIVER,5d069f2f041328001a7815be,01/27/1943,2020-09-10_21h14.00.368,proactive3.1,2020.1.2,Win32,60,5f599a131af4471f3d752b7b,5f5add3d2700561f1dc67051,5,,,,,,planet,,,,,,,,,,,3,2,0,25,25,22,1,,,,,,,,,,,,,,,,,,,,,,,,,,,,,,,,,,,,,,,,,,,,,,,,,,,,,,,,,,,,,,,,,,,,,,,,,,,,,,,,,,,,,,,,,,,,,,,,,,,,,,,,
,,?,0.000655,0,,,,,,stimuli/images/PICTURE_215.png,BOYS,5d069f2f041328001a7815be,01/27/1943,2020-09-10_21h14.00.368,proactive3.1,2020.1.2,Win32,60,5f599a131af4471f3d752b7b,5f5add3d2700561f1dc67051,5,,,,,,boot,,,,,,,,,,,3,2,0,26,26,24,1,,,,,,,,,,,,,,,,,,,,,,,,,,,,,,,,,,,,,,,,,,,,,,,,,,,,,,,,,,,,,,,,,,,,,,,,,,,,,,,,,,,,,,,,,,,,,,,,,,,,,,,,
,,?,0.00066,0,,,,,,stimuli/images/PICTURE_177.png,HOUSE,5d069f2f041328001a7815be,01/27/1943,2020-09-10_21h14.00.368,proactive3.1,2020.1.2,Win32,60,5f599a131af4471f3d752b7b,5f5add3d2700561f1dc67051,5,,,,,,mushroom,,,,,,,,,,,3,2,0,27,27,25,1,,,,,,,,,,,,,,,,,,,,,,,,,,,,,,,,,,,,,,,,,,,,,,,,,,,,,,,,,,,,,,,,,,,,,,,,,,,,,,,,,,,,,,,,,,,,,,,,,,,,,,,,
,,?,0.00057,0,,,,,,stimuli/images/PICTURE_2.png,JUNGLE,5d069f2f041328001a7815be,01/27/1943,2020-09-10_21h14.00.368,proactive3.1,2020.1.2,Win32,60,5f599a131af4471f3d752b7b,5f5add3d2700561f1dc67051,5,,,,,,tyre,,,,,,,,,,,1,2,0,28,28,1,1,,,,,,,,,,,,,,,,,,,,,,,,,,,,,,,,,,,,,,,,,,,,,,,,,,,,,,,,,,,,,,,,,,,,,,,,,,,,,,,,,,,,,,,,,,,,,,,,,,,,,,,,
,,?,0.00056,0,,,,,,stimuli/images/PICTURE_285.png,PRINCE,5d069f2f041328001a7815be,01/27/1943,2020-09-10_21h14.00.368,proactive3.1,2020.1.2,Win32,60,5f599a131af4471f3d752b7b,5f5add3d2700561f1dc67051,5,,,,,,carrot,,,,,,,,,,,3,2,0,29,29,20,1,,,,,,,,,,,,,,,,,,,,,,,,,,,,,,,,,,,,,,,,,,,,,,,,,,,,,,,,,,,,,,,,,,,,,,,,,,,,,,,,,,,,,,,,,,,,,,,,,,,,,,,,
,,?,0.00056,0,,,,,,stimuli/images/PICTURE_470.png,BEAUTY,5d069f2f041328001a7815be,01/27/1943,2020-09-10_21h14.00.368,proactive3.1,2020.1.2,Win32,60,5f599a131af4471f3d752b7b,5f5add3d2700561f1dc67051,5,,,,,,motorbike,,,,,,,,,,,3,2,0,30,30,26,1,,,,,,,,,,,,,,,,,,,,,,,,,,,,,,,,,,,,,,,,,,,,,,,,,,,,,,,,,,,,,,,,,,,,,,,,,,,,,,,,,,,,,,,,,,,,,,,,,,,,,,,,
,,FAMILY,3.66759,1,,,,,,stimuli/images/PICTURE_453.png,FAMILY,5d069f2f041328001a7815be,01/27/1943,2020-09-10_21h14.00.368,proactive3.1,2020.1.2,Win32,60,5f599a131af4471f3d752b7b,5f5add3d2700561f1dc67051,5,,,,,,scissors,,,,,,,,,,,5,2,0,31,31,48,1,,,,,,,,,,,,,,,,,,,,,,,,,,,,,,,,,,,,,,,,,,,,,,,,,,,,,,,,,,,,,,,,,,,,,,,,,,,,,,,,,,,,,,,,,,,,,,,,,,,,,,,,
,,?,0.001615,0,,,,,,stimuli/images/PICTURE_68.png,KIND,5d069f2f041328001a7815be,01/27/1943,2020-09-10_21h14.00.368,proactive3.1,2020.1.2,Win32,60,5f599a131af4471f3d752b7b,5f5add3d2700561f1dc67051,5,,,,,,candle,,,,,,,,,,,3,2,0,32,32,23,1,,,,,,,,,,,,,,,,,,,,,,,,,,,,,,,,,,,,,,,,,,,,,,,,,,,,,,,,,,,,,,,,,,,,,,,,,,,,,,,,,,,,,,,,,,,,,,,,,,,,,,,,
,,?,0.001395,0,,,,,,stimuli/images/PICTURE_57.png,CANDY,5d069f2f041328001a7815be,01/27/1943,2020-09-10_21h14.00.368,proactive3.1,2020.1.2,Win32,60,5f599a131af4471f3d752b7b,5f5add3d2700561f1dc67051,5,,,,,,stamp,,,,,,,,,,,6,2,0,33,33,52,1,,,,,,,,,,,,,,,,,,,,,,,,,,,,,,,,,,,,,,,,,,,,,,,,,,,,,,,,,,,,,,,,,,,,,,,,,,,,,,,,,,,,,,,,,,,,,,,,,,,,,,,,
,,MILLER,3.49133,1,,,,,,stimuli/images/PICTURE_509.png,MILLER,5d069f2f041328001a7815be,01/27/1943,2020-09-10_21h14.00.368,proactive3.1,2020.1.2,Win32,60,5f599a131af4471f3d752b7b,5f5add3d2700561f1dc67051,5,,,,,,telephone,,,,,,,,,,,5,2,0,34,34,49,1,,,,,,,,,,,,,,,,,,,,,,,,,,,,,,,,,,,,,,,,,,,,,,,,,,,,,,,,,,,,,,,,,,,,,,,,,,,,,,,,,,,,,,,,,,,,,,,,,,,,,,,,
,,KILLER,13.49514,0,,,,,,stimuli/images/PICTURE_470.png,MOMENT,5d069f2f041328001a7815be,01/27/1943,2020-09-10_21h14.00.368,proactive3.1,2020.1.2,Win32,60,5f599a131af4471f3d752b7b,5f5add3d2700561f1dc67051,5,,,,,,motorbike,,,,,,,,,,,5,2,0,35,35,40,1,,,,,,,,,,,,,,,,,,,,,,,,,,,,,,,,,,,,,,,,,,,,,,,,,,,,,,,,,,,,,,,,,,,,,,,,,,,,,,,,,,,,,,,,,,,,,,,,,,,,,,,,
,,?,0.00068,0,,,,,,stimuli/images/PICTURE_667.png,GLASS,5d069f2f041328001a7815be,01/27/1943,2020-09-10_21h14.00.368,proactive3.1,2020.1.2,Win32,60,5f599a131af4471f3d752b7b,5f5add3d2700561f1dc67051,5,,,,,,daisy,,,,,,,,,,,3,2,0,36,36,27,1,,,,,,,,,,,,,,,,,,,,,,,,,,,,,,,,,,,,,,,,,,,,,,,,,,,,,,,,,,,,,,,,,,,,,,,,,,,,,,,,,,,,,,,,,,,,,,,,,,,,,,,,
,,?,0.000535,0,,,,,,stimuli/images/PICTURE_348.png,DUDE,5d069f2f041328001a7815be,01/27/1943,2020-09-10_21h14.00.368,proactive3.1,2020.1.2,Win32,60,5f599a131af4471f3d752b7b,5f5add3d2700561f1dc67051,5,,,,,,pepper,,,,,,,,,,,6,2,0,37,37,59,1,,,,,,,,,,,,,,,,,,,,,,,,,,,,,,,,,,,,,,,,,,,,,,,,,,,,,,,,,,,,,,,,,,,,,,,,,,,,,,,,,,,,,,,,,,,,,,,,,,,,,,,,
,,?,0.000535,0,,,,,,stimuli/images/PICTURE_2.png,AREA,5d069f2f041328001a7815be,01/27/1943,2020-09-10_21h14.00.368,proactive3.1,2020.1.2,Win32,60,5f599a131af4471f3d752b7b,5f5add3d2700561f1dc67051,5,,,,,,tyre,,,,,,,,,,,4,2,0,38,38,32,1,,,,,,,,,,,,,,,,,,,,,,,,,,,,,,,,,,,,,,,,,,,,,,,,,,,,,,,,,,,,,,,,,,,,,,,,,,,,,,,,,,,,,,,,,,,,,,,,,,,,,,,,
,,?,0.00067,0,,,,,,stimuli/images/PICTURE_677.png,PHOTO,5d069f2f041328001a7815be,01/27/1943,2020-09-10_21h14.00.368,proactive3.1,2020.1.2,Win32,60,5f599a131af4471f3d752b7b,5f5add3d2700561f1dc67051,5,,,,,,map,,,,,,,,,,,2,2,0,39,39,14,1,,,,,,,,,,,,,,,,,,,,,,,,,,,,,,,,,,,,,,,,,,,,,,,,,,,,,,,,,,,,,,,,,,,,,,,,,,,,,,,,,,,,,,,,,,,,,,,,,,,,,,,,
,,?,0.000525,0,,,,,,stimuli/images/PICTURE_403.png,FAMILY,5d069f2f041328001a7815be,01/27/1943,2020-09-10_21h14.00.368,proactive3.1,2020.1.2,Win32,60,5f599a131af4471f3d752b7b,5f5add3d2700561f1dc67051,5,,,,,,cathedral,,,,,,,,,,,1,2,0,40,40,9,1,,,,,,,,,,,,,,,,,,,,,,,,,,,,,,,,,,,,,,,,,,,,,,,,,,,,,,,,,,,,,,,,,,,,,,,,,,,,,,,,,,,,,,,,,,,,,,,,,,,,,,,,
,,?,0.001825,0,,,,,,stimuli/images/PICTURE_33.png,COPS,5d069f2f041328001a7815be,01/27/1943,2020-09-10_21h14.00.368,proactive3.1,2020.1.2,Win32,60,5f599a131af4471f3d752b7b,5f5add3d2700561f1dc67051,5,,,,,,frame,,,,,,,,,,,3,2,0,41,41,29,1,,,,,,,,,,,,,,,,,,,,,,,,,,,,,,,,,,,,,,,,,,,,,,,,,,,,,,,,,,,,,,,,,,,,,,,,,,,,,,,,,,,,,,,,,,,,,,,,,,,,,,,,
,,?,0.00057,0,,,,,,stimuli/images/PICTURE_147.png,LEADER,5d069f2f041328001a7815be,01/27/1943,2020-09-10_21h14.00.368,proactive3.1,2020.1.2,Win32,60,5f599a131af4471f3d752b7b,5f5add3d2700561f1dc67051,5,,,,,,hanger,,,,,,,,,,,4,2,0,42,42,33,1,,,,,,,,,,,,,,,,,,,,,,,,,,,,,,,,,,,,,,,,,,,,,,,,,,,,,,,,,,,,,,,,,,,,,,,,,,,,,,,,,,,,,,,,,,,,,,,,,,,,,,,,
,,?,0.0008,0,,,,,,stimuli/images/PICTURE_314.png,SPEECH,5d069f2f041328001a7815be,01/27/1943,2020-09-10_21h14.00.368,proactive3.1,2020.1.2,Win32,60,5f599a131af4471f3d752b7b,5f5add3d2700561f1dc67051,5,,,,,,perfume,,,,,,,,,,,4,2,0,43,43,35,1,,,,,,,,,,,,,,,,,,,,,,,,,,,,,,,,,,,,,,,,,,,,,,,,,,,,,,,,,,,,,,,,,,,,,,,,,,,,,,,,,,,,,,,,,,,,,,,,,,,,,,,,
,,?,0.000645,0,,,,,,stimuli/images/PICTURE_405.png,JUNGLE,5d069f2f041328001a7815be,01/27/1943,2020-09-10_21h14.00.368,proactive3.1,2020.1.2,Win32,60,5f599a131af4471f3d752b7b,5f5add3d2700561f1dc67051,5,,,,,,anchor,,,,,,,,,,,6,2,0,44,44,58,1,,,,,,,,,,,,,,,,,,,,,,,,,,,,,,,,,,,,,,,,,,,,,,,,,,,,,,,,,,,,,,,,,,,,,,,,,,,,,,,,,,,,,,,,,,,,,,,,,,,,,,,,
,,?,0.00051,0,,,,,,stimuli/images/PICTURE_311.png,FLESH,5d069f2f041328001a7815be,01/27/1943,2020-09-10_21h14.00.368,proactive3.1,2020.1.2,Win32,60,5f599a131af4471f3d752b7b,5f5add3d2700561f1dc67051,5,,,,,,razor,,,,,,,,,,,1,2,0,45,45,3,1,,,,,,,,,,,,,,,,,,,,,,,,,,,,,,,,,,,,,,,,,,,,,,,,,,,,,,,,,,,,,,,,,,,,,,,,,,,,,,,,,,,,,,,,,,,,,,,,,,,,,,,,
,,?,0.000535,0,,,,,,stimuli/images/PICTURE_491.png,SERIES,5d069f2f041328001a7815be,01/27/1943,2020-09-10_21h14.00.368,proactive3.1,2020.1.2,Win32,60,5f599a131af4471f3d752b7b,5f5add3d2700561f1dc67051,5,,,,,,rug,,,,,,,,,,,4,2,0,46,46,39,1,,,,,,,,,,,,,,,,,,,,,,,,,,,,,,,,,,,,,,,,,,,,,,,,,,,,,,,,,,,,,,,,,,,,,,,,,,,,,,,,,,,,,,,,,,,,,,,,,,,,,,,,
,,?,0.00052,0,,,,,,stimuli/images/PICTURE_564.png,PLENTY,5d069f2f041328001a7815be,01/27/1943,2020-09-10_21h14.00.368,proactive3.1,2020.1.2,Win32,60,5f599a131af4471f3d752b7b,5f5add3d2700561f1dc67051,5,,,,,,spoon,,,,,,,,,,,2,2,0,47,47,11,1,,,,,,,,,,,,,,,,,,,,,,,,,,,,,,,,,,,,,,,,,,,,,,,,,,,,,,,,,,,,,,,,,,,,,,,,,,,,,,,,,,,,,,,,,,,,,,,,,,,,,,,,
,,?,0.000505,0,,,,,,stimuli/images/PICTURE_487.png,POLICY,5d069f2f041328001a7815be,01/27/1943,2020-09-10_21h14.00.368,proactive3.1,2020.1.2,Win32,60,5f599a131af4471f3d752b7b,5f5add3d2700561f1dc67051,5,,,,,,basket,,,,,,,,,,,4,2,0,48,48,34,1,,,,,,,,,,,,,,,,,,,,,,,,,,,,,,,,,,,,,,,,,,,,,,,,,,,,,,,,,,,,,,,,,,,,,,,,,,,,,,,,,,,,,,,,,,,,,,,,,,,,,,,,
,,TIME,5.37852,0,,,,,,stimuli/images/PICTURE_688.png,CLOCK,5d069f2f041328001a7815be,01/27/1943,2020-09-10_21h14.00.368,proactive3.1,2020.1.2,Win32,60,5f599a131af4471f3d752b7b,5f5add3d2700561f1dc67051,5,,,,,,runner,,,,,,,,,,,5,2,0,49,49,42,1,,,,,,,,,,,,,,,,,,,,,,,,,,,,,,,,,,,,,,,,,,,,,,,,,,,,,,,,,,,,,,,,,,,,,,,,,,,,,,,,,,,,,,,,,,,,,,,,,,,,,,,,
,,?,0.001955,0,,,,,,stimuli/images/PICTURE_255.png,PENNY,5d069f2f041328001a7815be,01/27/1943,2020-09-10_21h14.00.368,proactive3.1,2020.1.2,Win32,60,5f599a131af4471f3d752b7b,5f5add3d2700561f1dc67051,5,,,,,,shovel,,,,,,,,,,,2,2,0,50,50,19,1,,,,,,,,,,,,,,,,,,,,,,,,,,,,,,,,,,,,,,,,,,,,,,,,,,,,,,,,,,,,,,,,,,,,,,,,,,,,,,,,,,,,,,,,,,,,,,,,,,,,,,,,
,,VALLEY,3.20851,1,,,,,,stimuli/images/PICTURE_708.png,VALLEY,5d069f2f041328001a7815be,01/27/1943,2020-09-10_21h14.00.368,proactive3.1,2020.1.2,Win32,60,5f599a131af4471f3d752b7b,5f5add3d2700561f1dc67051,5,,,,,,monkey,,,,,,,,,,,5,2,0,51,51,45,1,,,,,,,,,,,,,,,,,,,,,,,,,,,,,,,,,,,,,,,,,,,,,,,,,,,,,,,,,,,,,,,,,,,,,,,,,,,,,,,,,,,,,,,,,,,,,,,,,,,,,,,,
,,?,0.000775,0,,,,,,stimuli/images/PICTURE_296.png,CLOCK,5d069f2f041328001a7815be,01/27/1943,2020-09-10_21h14.00.368,proactive3.1,2020.1.2,Win32,60,5f599a131af4471f3d752b7b,5f5add3d2700561f1dc67051,5,,,,,,bolt,,,,,,,,,,,2,2,0,52,52,18,1,,,,,,,,,,,,,,,,,,,,,,,,,,,,,,,,,,,,,,,,,,,,,,,,,,,,,,,,,,,,,,,,,,,,,,,,,,,,,,,,,,,,,,,,,,,,,,,,,,,,,,,,
,,?,0.000635,0,,,,,,stimuli/images/PICTURE_57.png,NATION,5d069f2f041328001a7815be,01/27/1943,2020-09-10_21h14.00.368,proactive3.1,2020.1.2,Win32,60,5f599a131af4471f3d752b7b,5f5add3d2700561f1dc67051,5,,,,,,stamp,,,,,,,,,,,3,2,0,53,53,21,1,,,,,,,,,,,,,,,,,,,,,,,,,,,,,,,,,,,,,,,,,,,,,,,,,,,,,,,,,,,,,,,,,,,,,,,,,,,,,,,,,,,,,,,,,,,,,,,,,,,,,,,,
,,LEADER,3.57917,1,,,,,,stimuli/images/PICTURE_215.png,LEADER,5d069f2f041328001a7815be,01/27/1943,2020-09-10_21h14.00.368,proactive3.1,2020.1.2,Win32,60,5f599a131af4471f3d752b7b,5f5add3d2700561f1dc67051,5,,,,,,boot,,,,,,,,,,,5,2,0,54,54,43,1,,,,,,,,,,,,,,,,,,,,,,,,,,,,,,,,,,,,,,,,,,,,,,,,,,,,,,,,,,,,,,,,,,,,,,,,,,,,,,,,,,,,,,,,,,,,,,,,,,,,,,,,
,,?,0.001455,0,,,,,,stimuli/images/PICTURE_348.png,TOILET,5d069f2f041328001a7815be,01/27/1943,2020-09-10_21h14.00.368,proactive3.1,2020.1.2,Win32,60,5f599a131af4471f3d752b7b,5f5add3d2700561f1dc67051,5,,,,,,pepper,,,,,,,,,,,1,2,0,55,55,4,1,,,,,,,,,,,,,,,,,,,,,,,,,,,,,,,,,,,,,,,,,,,,,,,,,,,,,,,,,,,,,,,,,,,,,,,,,,,,,,,,,,,,,,,,,,,,,,,,,,,,,,,,
,,?,0.00122,0,,,,,,stimuli/images/PICTURE_504.png,HOUSE,5d069f2f041328001a7815be,01/27/1943,2020-09-10_21h14.00.368,proactive3.1,2020.1.2,Win32,60,5f599a131af4471f3d752b7b,5f5add3d2700561f1dc67051,5,,,,,,wheel,,,,,,,,,,,4,2,0,56,56,36,1,,,,,,,,,,,,,,,,,,,,,,,,,,,,,,,,,,,,,,,,,,,,,,,,,,,,,,,,,,,,,,,,,,,,,,,,,,,,,,,,,,,,,,,,,,,,,,,,,,,,,,,,
,,?,0.001195,0,,,,,,stimuli/images/PICTURE_654.png,COPS,5d069f2f041328001a7815be,01/27/1943,2020-09-10_21h14.00.368,proactive3.1,2020.1.2,Win32,60,5f599a131af4471f3d752b7b,5f5add3d2700561f1dc67051,5,,,,,,pencil,,,,,,,,,,,2,2,0,57,57,10,1,,,,,,,,,,,,,,,,,,,,,,,,,,,,,,,,,,,,,,,,,,,,,,,,,,,,,,,,,,,,,,,,,,,,,,,,,,,,,,,,,,,,,,,,,,,,,,,,,,,,,,,,
,,DUDE,2.78864,1,,,,,,stimuli/images/PICTURE_692.png,DUDE,5d069f2f041328001a7815be,01/27/1943,2020-09-10_21h14.00.368,proactive3.1,2020.1.2,Win32,60,5f599a131af4471f3d752b7b,5f5add3d2700561f1dc67051,5,,,,,,cherry,,,,,,,,,,,5,2,0,58,58,47,1,,,,,,,,,,,,,,,,,,,,,,,,,,,,,,,,,,,,,,,,,,,,,,,,,,,,,,,,,,,,,,,,,,,,,,,,,,,,,,,,,,,,,,,,,,,,,,,,,,,,,,,,
,,?,0.00141,0,,,,,,stimuli/images/PICTURE_655.png,SALE,5d069f2f041328001a7815be,01/27/1943,2020-09-10_21h14.00.368,proactive3.1,2020.1.2,Win32,60,5f599a131af4471f3d752b7b,5f5add3d2700561f1dc67051,5,,,,,,megaphone,,,,,,,,,,,6,2,0,59,59,57,1,,,,,,,,,,,,,,,,,,,,,,,,,,,,,,,,,,,,,,,,,,,,,,,,,,,,,,,,,,,,,,,,,,,,,,,,,,,,,,,,,,,,,,,,,,,,,,,,,,,,,,,,
,,,,,,,,,,,,5d069f2f041328001a7815be,01/27/1943,2020-09-10_21h14.00.368,proactive3.1,2020.1.2,Win32,60,5f599a131af4471f3d752b7b,5f5add3d2700561f1dc67051,5,,,,,,,,,,,,,,,,,,,,,,,,0,0,0,2,1,stimuli/learn-block3.csv,,,,,,,,,,,,,,,,,,,,,,,,,,,,,,,,,,,,,,,,,,,,,,,,,,,,,,,,,,,,,,,,,,,,,,,,,,,,,,,,,,,,,,,,,,,,,,,,,,
,,,,,,,,,,stimuli/images/PICTURE_491.png,ROOF,5d069f2f041328001a7815be,01/27/1943,2020-09-10_21h14.00.368,proactive3.1,2020.1.2,Win32,60,5f599a131af4471f3d752b7b,5f5add3d2700561f1dc67051,5,,,,,,rug,,,,,,0,0,0,24,1,3,0,,,,,,,,,,,,,,,,,,,,,,,,,,,,,,,,,,,,,,,,,,,,,,,,,,,,,,,,,,,,,,,,,,,,,,,,,,,,,,,,,,,,,,,,,,,,,,,,,,,,,,,,,,,,,
,,,,,,,,,,stimuli/images/PICTURE_311.png,BEAUTY,5d069f2f041328001a7815be,01/27/1943,2020-09-10_21h14.00.368,proactive3.1,2020.1.2,Win32,60,5f599a131af4471f3d752b7b,5f5add3d2700561f1dc67051,5,,,,,,razor,,,,,,0,1,1,13,1,2,0,,,,,,,,,,,,,,,,,,,,,,,,,,,,,,,,,,,,,,,,,,,,,,,,,,,,,,,,,,,,,,,,,,,,,,,,,,,,,,,,,,,,,,,,,,,,,,,,,,,,,,,,,,,,,
,,,,,,,,,,stimuli/images/PICTURE_380.png,PHOTO,5d069f2f041328001a7815be,01/27/1943,2020-09-10_21h14.00.368,proactive3.1,2020.1.2,Win32,60,5f599a131af4471f3d752b7b,5f5add3d2700561f1dc67051,5,,,,,,gorilla,,,,,,0,2,2,52,1,6,0,,,,,,,,,,,,,,,,,,,,,,,,,,,,,,,,,,,,,,,,,,,,,,,,,,,,,,,,,,,,,,,,,,,,,,,,,,,,,,,,,,,,,,,,,,,,,,,,,,,,,,,,,,,,,
,,,,,,,,,,stimuli/images/PICTURE_744.png,SYSTEM,5d069f2f041328001a7815be,01/27/1943,2020-09-10_21h14.00.368,proactive3.1,2020.1.2,Win32,60,5f599a131af4471f3d752b7b,5f5add3d2700561f1dc67051,5,,,,,,ring,,,,,,0,3,3,43,1,5,0,,,,,,,,,,,,,,,,,,,,,,,,,,,,,,,,,,,,,,,,,,,,,,,,,,,,,,,,,,,,,,,,,,,,,,,,,,,,,,,,,,,,,,,,,,,,,,,,,,,,,,,,,,,,,
,,,,,,,,,,stimuli/images/PICTURE_348.png,SPEECH,5d069f2f041328001a7815be,01/27/1943,2020-09-10_21h14.00.368,proactive3.1,2020.1.2,Win32,60,5f599a131af4471f3d752b7b,5f5add3d2700561f1dc67051,5,,,,,,pepper,,,,,,0,4,4,20,1,3,0,,,,,,,,,,,,,,,,,,,,,,,,,,,,,,,,,,,,,,,,,,,,,,,,,,,,,,,,,,,,,,,,,,,,,,,,,,,,,,,,,,,,,,,,,,,,,,,,,,,,,,,,,,,,,
,,,,,,,,,,stimuli/images/PICTURE_688.png,CASINO,5d069f2f041328001a7815be,01/27/1943,2020-09-10_21h14.00.368,proactive3.1,2020.1.2,Win32,60,5f599a131af4471f3d752b7b,5f5add3d2700561f1dc67051,5,,,,,,runner,,,,,,0,5,5,2,1,1,0,,,,,,,,,,,,,,,,,,,,,,,,,,,,,,,,,,,,,,,,,,,,,,,,,,,,,,,,,,,,,,,,,,,,,,,,,,,,,,,,,,,,,,,,,,,,,,,,,,,,,,,,,,,,,
,,,,,,,,,,stimuli/images/PICTURE_302.png,FAMILY,5d069f2f041328001a7815be,01/27/1943,2020-09-10_21h14.00.368,proactive3.1,2020.1.2,Win32,60,5f599a131af4471f3d752b7b,5f5add3d2700561f1dc67051,5,,,,,,taxi,,,,,,0,6,6,18,1,2,0,,,,,,,,,,,,,,,,,,,,,,,,,,,,,,,,,,,,,,,,,,,,,,,,,,,,,,,,,,,,,,,,,,,,,,,,,,,,,,,,,,,,,,,,,,,,,,,,,,,,,,,,,,,,,
,,,,,,,,,,stimuli/images/PICTURE_123.png,ADVICE,5d069f2f041328001a7815be,01/27/1943,2020-09-10_21h14.00.368,proactive3.1,2020.1.2,Win32,60,5f599a131af4471f3d752b7b,5f5add3d2700561f1dc67051,5,,,,,,dart,,,,,,0,7,7,50,1,6,0,,,,,,,,,,,,,,,,,,,,,,,,,,,,,,,,,,,,,,,,,,,,,,,,,,,,,,,,,,,,,,,,,,,,,,,,,,,,,,,,,,,,,,,,,,,,,,,,,,,,,,,,,,,,,
,,,,,,,,,,stimuli/images/PICTURE_203.png,ARTIST,5d069f2f041328001a7815be,01/27/1943,2020-09-10_21h14.00.368,proactive3.1,2020.1.2,Win32,60,5f599a131af4471f3d752b7b,5f5add3d2700561f1dc67051,5,,,,,,cap,,,,,,0,8,8,26,1,3,0,,,,,,,,,,,,,,,,,,,,,,,,,,,,,,,,,,,,,,,,,,,,,,,,,,,,,,,,,,,,,,,,,,,,,,,,,,,,,,,,,,,,,,,,,,,,,,,,,,,,,,,,,,,,,
,,,,,,,,,,stimuli/images/PICTURE_470.png,CASINO,5d069f2f041328001a7815be,01/27/1943,2020-09-10_21h14.00.368,proactive3.1,2020.1.2,Win32,60,5f599a131af4471f3d752b7b,5f5add3d2700561f1dc67051,5,,,,,,motorbike,,,,,,0,9,9,36,1,4,0,,,,,,,,,,,,,,,,,,,,,,,,,,,,,,,,,,,,,,,,,,,,,,,,,,,,,,,,,,,,,,,,,,,,,,,,,,,,,,,,,,,,,,,,,,,,,,,,,,,,,,,,,,,,,
,,,,,,,,,,stimuli/images/PICTURE_692.png,MONTH,5d069f2f041328001a7815be,01/27/1943,2020-09-10_21h14.00.368,proactive3.1,2020.1.2,Win32,60,5f599a131af4471f3d752b7b,5f5add3d2700561f1dc67051,5,,,,,,cherry,,,,,,0,10,10,16,1,2,0,,,,,,,,,,,,,,,,,,,,,,,,,,,,,,,,,,,,,,,,,,,,,,,,,,,,,,,,,,,,,,,,,,,,,,,,,,,,,,,,,,,,,,,,,,,,,,,,,,,,,,,,,,,,,
,,,,,,,,,,stimuli/images/PICTURE_453.png,DUDE,5d069f2f041328001a7815be,01/27/1943,2020-09-10_21h14.00.368,proactive3.1,2020.1.2,Win32,60,5f599a131af4471f3d752b7b,5f5add3d2700561f1dc67051,5,,,,,,scissors,,,,,,0,11,11,27,1,3,0,,,,,,,,,,,,,,,,,,,,,,,,,,,,,,,,,,,,,,,,,,,,,,,,,,,,,,,,,,,,,,,,,,,,,,,,,,,,,,,,,,,,,,,,,,,,,,,,,,,,,,,,,,,,,
,,,,,,,,,,stimuli/images/PICTURE_487.png,FLIGHT,5d069f2f041328001a7815be,01/27/1943,2020-09-10_21h14.00.368,proactive3.1,2020.1.2,Win32,60,5f599a131af4471f3d752b7b,5f5add3d2700561f1dc67051,5,,,,,,basket,,,,,,0,12,12,9,1,1,0,,,,,,,,,,,,,,,,,,,,,,,,,,,,,,,,,,,,,,,,,,,,,,,,,,,,,,,,,,,,,,,,,,,,,,,,,,,,,,,,,,,,,,,,,,,,,,,,,,,,,,,,,,,,,
,,,,,,,,,,stimuli/images/PICTURE_85.png,THING,5d069f2f041328001a7815be,01/27/1943,2020-09-10_21h14.00.368,proactive3.1,2020.1.2,Win32,60,5f599a131af4471f3d752b7b,5f5add3d2700561f1dc67051,5,,,,,,diamond,,,,,,0,13,13,15,1,2,0,,,,,,,,,,,,,,,,,,,,,,,,,,,,,,,,,,,,,,,,,,,,,,,,,,,,,,,,,,,,,,,,,,,,,,,,,,,,,,,,,,,,,,,,,,,,,,,,,,,,,,,,,,,,,
,,,,,,,,,,stimuli/images/PICTURE_147.png,MOMENT,5d069f2f041328001a7815be,01/27/1943,2020-09-10_21h14.00.368,proactive3.1,2020.1.2,Win32,60,5f599a131af4471f3d752b7b,5f5add3d2700561f1dc67051,5,,,,,,hanger,,,,,,0,14,14,51,1,6,0,,,,,,,,,,,,,,,,,,,,,,,,,,,,,,,,,,,,,,,,,,,,,,,,,,,,,,,,,,,,,,,,,,,,,,,,,,,,,,,,,,,,,,,,,,,,,,,,,,,,,,,,,,,,,
,,,,,,,,,,stimuli/images/PICTURE_677.png,MILE,5d069f2f041328001a7815be,01/27/1943,2020-09-10_21h14.00.368,proactive3.1,2020.1.2,Win32,60,5f599a131af4471f3d752b7b,5f5add3d2700561f1dc67051,5,,,,,,map,,,,,,0,15,15,30,1,4,0,,,,,,,,,,,,,,,,,,,,,,,,,,,,,,,,,,,,,,,,,,,,,,,,,,,,,,,,,,,,,,,,,,,,,,,,,,,,,,,,,,,,,,,,,,,,,,,,,,,,,,,,,,,,,
,,,,,,,,,,stimuli/images/PICTURE_467.png,DEMON,5d069f2f041328001a7815be,01/27/1943,2020-09-10_21h14.00.368,proactive3.1,2020.1.2,Win32,60,5f599a131af4471f3d752b7b,5f5add3d2700561f1dc67051,5,,,,,,peg,,,,,,0,16,16,23,1,3,0,,,,,,,,,,,,,,,,,,,,,,,,,,,,,,,,,,,,,,,,,,,,,,,,,,,,,,,,,,,,,,,,,,,,,,,,,,,,,,,,,,,,,,,,,,,,,,,,,,,,,,,,,,,,,
,,,,,,,,,,stimuli/images/PICTURE_308.png,ESTATE,5d069f2f041328001a7815be,01/27/1943,2020-09-10_21h14.00.368,proactive3.1,2020.1.2,Win32,60,5f599a131af4471f3d752b7b,5f5add3d2700561f1dc67051,5,,,,,,dice,,,,,,0,17,17,46,1,5,0,,,,,,,,,,,,,,,,,,,,,,,,,,,,,,,,,,,,,,,,,,,,,,,,,,,,,,,,,,,,,,,,,,,,,,,,,,,,,,,,,,,,,,,,,,,,,,,,,,,,,,,,,,,,,
,,,,,,,,,,stimuli/images/PICTURE_667.png,PLENTY,5d069f2f041328001a7815be,01/27/1943,2020-09-10_21h14.00.368,proactive3.1,2020.1.2,Win32,60,5f599a131af4471f3d752b7b,5f5add3d2700561f1dc67051,5,,,,,,daisy,,,,,,0,18,18,41,1,5,0,,,,,,,,,,,,,,,,,,,,,,,,,,,,,,,,,,,,,,,,,,,,,,,,,,,,,,,,,,,,,,,,,,,,,,,,,,,,,,,,,,,,,,,,,,,,,,,,,,,,,,,,,,,,,
,,,,,,,,,,stimuli/images/PICTURE_314.png,GODS,5d069f2f041328001a7815be,01/27/1943,2020-09-10_21h14.00.368,proactive3.1,2020.1.2,Win32,60,5f599a131af4471f3d752b7b,5f5add3d2700561f1dc67051,5,,,,,,perfume,,,,,,0,19,19,11,1,2,0,,,,,,,,,,,,,,,,,,,,,,,,,,,,,,,,,,,,,,,,,,,,,,,,,,,,,,,,,,,,,,,,,,,,,,,,,,,,,,,,,,,,,,,,,,,,,,,,,,,,,,,,,,,,,
,,,,,,,,,,stimuli/images/PICTURE_233.png,WOMEN,5d069f2f041328001a7815be,01/27/1943,2020-09-10_21h14.00.368,proactive3.1,2020.1.2,Win32,60,5f599a131af4471f3d752b7b,5f5add3d2700561f1dc67051,5,,,,,,salt,,,,,,0,20,20,38,1,4,0,,,,,,,,,,,,,,,,,,,,,,,,,,,,,,,,,,,,,,,,,,,,,,,,,,,,,,,,,,,,,,,,,,,,,,,,,,,,,,,,,,,,,,,,,,,,,,,,,,,,,,,,,,,,,
,,,,,,,,,,stimuli/images/PICTURE_327.png,BEAUTY,5d069f2f041328001a7815be,01/27/1943,2020-09-10_21h14.00.368,proactive3.1,2020.1.2,Win32,60,5f599a131af4471f3d752b7b,5f5add3d2700561f1dc67051,5,,,,,,helmet,,,,,,0,21,21,48,1,5,0,,,,,,,,,,,,,,,,,,,,,,,,,,,,,,,,,,,,,,,,,,,,,,,,,,,,,,,,,,,,,,,,,,,,,,,,,,,,,,,,,,,,,,,,,,,,,,,,,,,,,,,,,,,,,
,,,,,,,,,,stimuli/images/PICTURE_160.png,LEADER,5d069f2f041328001a7815be,01/27/1943,2020-09-10_21h14.00.368,proactive3.1,2020.1.2,Win32,60,5f599a131af4471f3d752b7b,5f5add3d2700561f1dc67051,5,,,,,,wheelbarrow,,,,,,0,22,22,3,1,1,0,,,,,,,,,,,,,,,,,,,,,,,,,,,,,,,,,,,,,,,,,,,,,,,,,,,,,,,,,,,,,,,,,,,,,,,,,,,,,,,,,,,,,,,,,,,,,,,,,,,,,,,,,,,,,
,,,,,,,,,,stimuli/images/PICTURE_509.png,PHOTO,5d069f2f041328001a7815be,01/27/1943,2020-09-10_21h14.00.368,proactive3.1,2020.1.2,Win32,60,5f599a131af4471f3d752b7b,5f5add3d2700561f1dc67051,5,,,,,,telephone,,,,,,0,23,23,21,1,3,0,,,,,,,,,,,,,,,,,,,,,,,,,,,,,,,,,,,,,,,,,,,,,,,,,,,,,,,,,,,,,,,,,,,,,,,,,,,,,,,,,,,,,,,,,,,,,,,,,,,,,,,,,,,,,
,,,,,,,,,,stimuli/images/PICTURE_449.png,THING,5d069f2f041328001a7815be,01/27/1943,2020-09-10_21h14.00.368,proactive3.1,2020.1.2,Win32,60,5f599a131af4471f3d752b7b,5f5add3d2700561f1dc67051,5,,,,,,bench,,,,,,0,24,24,59,1,6,0,,,,,,,,,,,,,,,,,,,,,,,,,,,,,,,,,,,,,,,,,,,,,,,,,,,,,,,,,,,,,,,,,,,,,,,,,,,,,,,,,,,,,,,,,,,,,,,,,,,,,,,,,,,,,
,,,,,,,,,,stimuli/images/PICTURE_708.png,CLIENT,5d069f2f041328001a7815be,01/27/1943,2020-09-10_21h14.00.368,proactive3.1,2020.1.2,Win32,60,5f599a131af4471f3d752b7b,5f5add3d2700561f1dc67051,5,,,,,,monkey,,,,,,0,25,25,5,1,1,0,,,,,,,,,,,,,,,,,,,,,,,,,,,,,,,,,,,,,,,,,,,,,,,,,,,,,,,,,,,,,,,,,,,,,,,,,,,,,,,,,,,,,,,,,,,,,,,,,,,,,,,,,,,,,
,,,,,,,,,,stimuli/images/PICTURE_469.png,ARTIST,5d069f2f041328001a7815be,01/27/1943,2020-09-10_21h14.00.368,proactive3.1,2020.1.2,Win32,60,5f599a131af4471f3d752b7b,5f5add3d2700561f1dc67051,5,,,,,,stool,,,,,,0,26,26,6,1,1,0,,,,,,,,,,,,,,,,,,,,,,,,,,,,,,,,,,,,,,,,,,,,,,,,,,,,,,,,,,,,,,,,,,,,,,,,,,,,,,,,,,,,,,,,,,,,,,,,,,,,,,,,,,,,,
,,,,,,,,,,stimuli/images/PICTURE_744.png,SAKE,5d069f2f041328001a7815be,01/27/1943,2020-09-10_21h14.00.368,proactive3.1,2020.1.2,Win32,60,5f599a131af4471f3d752b7b,5f5add3d2700561f1dc67051,5,,,,,,ring,,,,,,0,27,27,17,1,2,0,,,,,,,,,,,,,,,,,,,,,,,,,,,,,,,,,,,,,,,,,,,,,,,,,,,,,,,,,,,,,,,,,,,,,,,,,,,,,,,,,,,,,,,,,,,,,,,,,,,,,,,,,,,,,
,,,,,,,,,,stimuli/images/PICTURE_504.png,BODY,5d069f2f041328001a7815be,01/27/1943,2020-09-10_21h14.00.368,proactive3.1,2020.1.2,Win32,60,5f599a131af4471f3d752b7b,5f5add3d2700561f1dc67051,5,,,,,,wheel,,,,,,0,28,28,8,1,1,0,,,,,,,,,,,,,,,,,,,,,,,,,,,,,,,,,,,,,,,,,,,,,,,,,,,,,,,,,,,,,,,,,,,,,,,,,,,,,,,,,,,,,,,,,,,,,,,,,,,,,,,,,,,,,
,,,,,,,,,,stimuli/images/PICTURE_123.png,ADVICE,5d069f2f041328001a7815be,01/27/1943,2020-09-10_21h14.00.368,proactive3.1,2020.1.2,Win32,60,5f599a131af4471f3d752b7b,5f5add3d2700561f1dc67051,5,,,,,,dart,,,,,,0,29,29,40,1,5,0,,,,,,,,,,,,,,,,,,,,,,,,,,,,,,,,,,,,,,,,,,,,,,,,,,,,,,,,,,,,,,,,,,,,,,,,,,,,,,,,,,,,,,,,,,,,,,,,,,,,,,,,,,,,,
,,,,,,,,,,stimuli/images/PICTURE_151.png,GIRL,5d069f2f041328001a7815be,01/27/1943,2020-09-10_21h14.00.368,proactive3.1,2020.1.2,Win32,60,5f599a131af4471f3d752b7b,5f5add3d2700561f1dc67051,5,,,,,,tray,,,,,,0,30,30,19,1,2,0,,,,,,,,,,,,,,,,,,,,,,,,,,,,,,,,,,,,,,,,,,,,,,,,,,,,,,,,,,,,,,,,,,,,,,,,,,,,,,,,,,,,,,,,,,,,,,,,,,,,,,,,,,,,,
,,,,,,,,,,stimuli/images/PICTURE_453.png,PLENTY,5d069f2f041328001a7815be,01/27/1943,2020-09-10_21h14.00.368,proactive3.1,2020.1.2,Win32,60,5f599a131af4471f3d752b7b,5f5add3d2700561f1dc67051,5,,,,,,scissors,,,,,,0,31,31,56,1,6,0,,,,,,,,,,,,,,,,,,,,,,,,,,,,,,,,,,,,,,,,,,,,,,,,,,,,,,,,,,,,,,,,,,,,,,,,,,,,,,,,,,,,,,,,,,,,,,,,,,,,,,,,,,,,,
,,,,,,,,,,stimuli/images/PICTURE_95.png,STYLE,5d069f2f041328001a7815be,01/27/1943,2020-09-10_21h14.00.368,proactive3.1,2020.1.2,Win32,60,5f599a131af4471f3d752b7b,5f5add3d2700561f1dc67051,5,,,,,,suitcase,,,,,,0,32,32,25,1,3,0,,,,,,,,,,,,,,,,,,,,,,,,,,,,,,,,,,,,,,,,,,,,,,,,,,,,,,,,,,,,,,,,,,,,,,,,,,,,,,,,,,,,,,,,,,,,,,,,,,,,,,,,,,,,,
,,,,,,,,,,stimuli/images/PICTURE_255.png,AREA,5d069f2f041328001a7815be,01/27/1943,2020-09-10_21h14.00.368,proactive3.1,2020.1.2,Win32,60,5f599a131af4471f3d752b7b,5f5add3d2700561f1dc67051,5,,,,,,shovel,,,,,,0,33,33,22,1,3,0,,,,,,,,,,,,,,,,,,,,,,,,,,,,,,,,,,,,,,,,,,,,,,,,,,,,,,,,,,,,,,,,,,,,,,,,,,,,,,,,,,,,,,,,,,,,,,,,,,,,,,,,,,,,,
,,,,,,,,,,stimuli/images/PICTURE_248.png,DOZEN,5d069f2f041328001a7815be,01/27/1943,2020-09-10_21h14.00.368,proactive3.1,2020.1.2,Win32,60,5f599a131af4471f3d752b7b,5f5add3d2700561f1dc67051,5,,,,,,cart,,,,,,0,34,34,39,1,4,0,,,,,,,,,,,,,,,,,,,,,,,,,,,,,,,,,,,,,,,,,,,,,,,,,,,,,,,,,,,,,,,,,,,,,,,,,,,,,,,,,,,,,,,,,,,,,,,,,,,,,,,,,,,,,
,,,,,,,,,,stimuli/images/PICTURE_339.png,PLENTY,5d069f2f041328001a7815be,01/27/1943,2020-09-10_21h14.00.368,proactive3.1,2020.1.2,Win32,60,5f599a131af4471f3d752b7b,5f5add3d2700561f1dc67051,5,,,,,,backpack,,,,,,0,35,35,0,1,1,0,,,,,,,,,,,,,,,,,,,,,,,,,,,,,,,,,,,,,,,,,,,,,,,,,,,,,,,,,,,,,,,,,,,,,,,,,,,,,,,,,,,,,,,,,,,,,,,,,,,,,,,,,,,,,
,,,,,,,,,,stimuli/images/PICTURE_654.png,VALLEY,5d069f2f041328001a7815be,01/27/1943,2020-09-10_21h14.00.368,proactive3.1,2020.1.2,Win32,60,5f599a131af4471f3d752b7b,5f5add3d2700561f1dc67051,5,,,,,,pencil,,,,,,0,36,36,1,1,1,0,,,,,,,,,,,,,,,,,,,,,,,,,,,,,,,,,,,,,,,,,,,,,,,,,,,,,,,,,,,,,,,,,,,,,,,,,,,,,,,,,,,,,,,,,,,,,,,,,,,,,,,,,,,,,
,,,,,,,,,,stimuli/images/PICTURE_308.png,KIND,5d069f2f041328001a7815be,01/27/1943,2020-09-10_21h14.00.368,proactive3.1,2020.1.2,Win32,60,5f599a131af4471f3d752b7b,5f5add3d2700561f1dc67051,5,,,,,,dice,,,,,,0,37,37,54,1,6,0,,,,,,,,,,,,,,,,,,,,,,,,,,,,,,,,,,,,,,,,,,,,,,,,,,,,,,,,,,,,,,,,,,,,,,,,,,,,,,,,,,,,,,,,,,,,,,,,,,,,,,,,,,,,,
,,,,,,,,,,stimuli/images/PICTURE_675.png,WEAPON,5d069f2f041328001a7815be,01/27/1943,2020-09-10_21h14.00.368,proactive3.1,2020.1.2,Win32,60,5f599a131af4471f3d752b7b,5f5add3d2700561f1dc67051,5,,,,,,windmill,,,,,,0,38,38,32,1,4,0,,,,,,,,,,,,,,,,,,,,,,,,,,,,,,,,,,,,,,,,,,,,,,,,,,,,,,,,,,,,,,,,,,,,,,,,,,,,,,,,,,,,,,,,,,,,,,,,,,,,,,,,,,,,,
,,,,,,,,,,stimuli/images/PICTURE_688.png,WOMEN,5d069f2f041328001a7815be,01/27/1943,2020-09-10_21h14.00.368,proactive3.1,2020.1.2,Win32,60,5f599a131af4471f3d752b7b,5f5add3d2700561f1dc67051,5,,,,,,runner,,,,,,0,39,39,14,1,2,0,,,,,,,,,,,,,,,,,,,,,,,,,,,,,,,,,,,,,,,,,,,,,,,,,,,,,,,,,,,,,,,,,,,,,,,,,,,,,,,,,,,,,,,,,,,,,,,,,,,,,,,,,,,,,
,,,,,,,,,,stimuli/images/PICTURE_208.png,MONTH,5d069f2f041328001a7815be,01/27/1943,2020-09-10_21h14.00.368,proactive3.1,2020.1.2,Win32,60,5f599a131af4471f3d752b7b,5f5add3d2700561f1dc67051,5,,,,,,microphone,,,,,,0,40,40,53,1,6,0,,,,,,,,,,,,,,,,,,,,,,,,,,,,,,,,,,,,,,,,,,,,,,,,,,,,,,,,,,,,,,,,,,,,,,,,,,,,,,,,,,,,,,,,,,,,,,,,,,,,,,,,,,,,,
,,,,,,,,,,stimuli/images/PICTURE_491.png,WRITER,5d069f2f041328001a7815be,01/27/1943,2020-09-10_21h14.00.368,proactive3.1,2020.1.2,Win32,60,5f599a131af4471f3d752b7b,5f5add3d2700561f1dc67051,5,,,,,,rug,,,,,,0,41,41,57,1,6,0,,,,,,,,,,,,,,,,,,,,,,,,,,,,,,,,,,,,,,,,,,,,,,,,,,,,,,,,,,,,,,,,,,,,,,,,,,,,,,,,,,,,,,,,,,,,,,,,,,,,,,,,,,,,,
,,,,,,,,,,stimuli/images/PICTURE_208.png,LOTS,5d069f2f041328001a7815be,01/27/1943,2020-09-10_21h14.00.368,proactive3.1,2020.1.2,Win32,60,5f599a131af4471f3d752b7b,5f5add3d2700561f1dc67051,5,,,,,,microphone,,,,,,0,42,42,10,1,2,0,,,,,,,,,,,,,,,,,,,,,,,,,,,,,,,,,,,,,,,,,,,,,,,,,,,,,,,,,,,,,,,,,,,,,,,,,,,,,,,,,,,,,,,,,,,,,,,,,,,,,,,,,,,,,
,,,,,,,,,,stimuli/images/PICTURE_285.png,ADVICE,5d069f2f041328001a7815be,01/27/1943,2020-09-10_21h14.00.368,proactive3.1,2020.1.2,Win32,60,5f599a131af4471f3d752b7b,5f5add3d2700561f1dc67051,5,,,,,,carrot,,,,,,0,43,43,12,1,2,0,,,,,,,,,,,,,,,,,,,,,,,,,,,,,,,,,,,,,,,,,,,,,,,,,,,,,,,,,,,,,,,,,,,,,,,,,,,,,,,,,,,,,,,,,,,,,,,,,,,,,,,,,,,,,
,,,,,,,,,,stimuli/images/PICTURE_469.png,LETTER,5d069f2f041328001a7815be,01/27/1943,2020-09-10_21h14.00.368,proactive3.1,2020.1.2,Win32,60,5f599a131af4471f3d752b7b,5f5add3d2700561f1dc67051,5,,,,,,stool,,,,,,0,44,44,42,1,5,0,,,,,,,,,,,,,,,,,,,,,,,,,,,,,,,,,,,,,,,,,,,,,,,,,,,,,,,,,,,,,,,,,,,,,,,,,,,,,,,,,,,,,,,,,,,,,,,,,,,,,,,,,,,,,
,,,,,,,,,,stimuli/images/PICTURE_667.png,BATH,5d069f2f041328001a7815be,01/27/1943,2020-09-10_21h14.00.368,proactive3.1,2020.1.2,Win32,60,5f599a131af4471f3d752b7b,5f5add3d2700561f1dc67051,5,,,,,,daisy,,,,,,0,45,45,4,1,1,0,,,,,,,,,,,,,,,,,,,,,,,,,,,,,,,,,,,,,,,,,,,,,,,,,,,,,,,,,,,,,,,,,,,,,,,,,,,,,,,,,,,,,,,,,,,,,,,,,,,,,,,,,,,,,
,,,,,,,,,,stimuli/images/PICTURE_68.png,MILE,5d069f2f041328001a7815be,01/27/1943,2020-09-10_21h14.00.368,proactive3.1,2020.1.2,Win32,60,5f599a131af4471f3d752b7b,5f5add3d2700561f1dc67051,5,,,,,,candle,,,,,,0,46,46,44,1,5,0,,,,,,,,,,,,,,,,,,,,,,,,,,,,,,,,,,,,,,,,,,,,,,,,,,,,,,,,,,,,,,,,,,,,,,,,,,,,,,,,,,,,,,,,,,,,,,,,,,,,,,,,,,,,,
,,,,,,,,,,stimuli/images/PICTURE_160.png,FEET,5d069f2f041328001a7815be,01/27/1943,2020-09-10_21h14.00.368,proactive3.1,2020.1.2,Win32,60,5f599a131af4471f3d752b7b,5f5add3d2700561f1dc67051,5,,,,,,wheelbarrow,,,,,,0,47,47,58,1,6,0,,,,,,,,,,,,,,,,,,,,,,,,,,,,,,,,,,,,,,,,,,,,,,,,,,,,,,,,,,,,,,,,,,,,,,,,,,,,,,,,,,,,,,,,,,,,,,,,,,,,,,,,,,,,,
,,,,,,,,,,stimuli/images/PICTURE_708.png,PENNY,5d069f2f041328001a7815be,01/27/1943,2020-09-10_21h14.00.368,proactive3.1,2020.1.2,Win32,60,5f599a131af4471f3d752b7b,5f5add3d2700561f1dc67051,5,,,,,,monkey,,,,,,0,48,48,31,1,4,0,,,,,,,,,,,,,,,,,,,,,,,,,,,,,,,,,,,,,,,,,,,,,,,,,,,,,,,,,,,,,,,,,,,,,,,,,,,,,,,,,,,,,,,,,,,,,,,,,,,,,,,,,,,,,
,,,,,,,,,,stimuli/images/PICTURE_708.png,YARD,5d069f2f041328001a7815be,01/27/1943,2020-09-10_21h14.00.368,proactive3.1,2020.1.2,Win32,60,5f599a131af4471f3d752b7b,5f5add3d2700561f1dc67051,5,,,,,,monkey,,,,,,0,49,49,29,1,3,0,,,,,,,,,,,,,,,,,,,,,,,,,,,,,,,,,,,,,,,,,,,,,,,,,,,,,,,,,,,,,,,,,,,,,,,,,,,,,,,,,,,,,,,,,,,,,,,,,,,,,,,,,,,,,
,,,,,,,,,,stimuli/images/PICTURE_233.png,IDEAS,5d069f2f041328001a7815be,01/27/1943,2020-09-10_21h14.00.368,proactive3.1,2020.1.2,Win32,60,5f599a131af4471f3d752b7b,5f5add3d2700561f1dc67051,5,,,,,,salt,,,,,,0,50,50,28,1,3,0,,,,,,,,,,,,,,,,,,,,,,,,,,,,,,,,,,,,,,,,,,,,,,,,,,,,,,,,,,,,,,,,,,,,,,,,,,,,,,,,,,,,,,,,,,,,,,,,,,,,,,,,,,,,,
,,,,,,,,,,stimuli/images/PICTURE_215.png,PLENTY,5d069f2f041328001a7815be,01/27/1943,2020-09-10_21h14.00.368,proactive3.1,2020.1.2,Win32,60,5f599a131af4471f3d752b7b,5f5add3d2700561f1dc67051,5,,,,,,boot,,,,,,0,51,51,37,1,4,0,,,,,,,,,,,,,,,,,,,,,,,,,,,,,,,,,,,,,,,,,,,,,,,,,,,,,,,,,,,,,,,,,,,,,,,,,,,,,,,,,,,,,,,,,,,,,,,,,,,,,,,,,,,,,
,,,,,,,,,,stimuli/images/PICTURE_356.png,DANGER,5d069f2f041328001a7815be,01/27/1943,2020-09-10_21h14.00.368,proactive3.1,2020.1.2,Win32,60,5f599a131af4471f3d752b7b,5f5add3d2700561f1dc67051,5,,,,,,pawn,,,,,,0,52,52,55,1,6,0,,,,,,,,,,,,,,,,,,,,,,,,,,,,,,,,,,,,,,,,,,,,,,,,,,,,,,,,,,,,,,,,,,,,,,,,,,,,,,,,,,,,,,,,,,,,,,,,,,,,,,,,,,,,,
,,,,,,,,,,stimuli/images/PICTURE_208.png,THING,5d069f2f041328001a7815be,01/27/1943,2020-09-10_21h14.00.368,proactive3.1,2020.1.2,Win32,60,5f599a131af4471f3d752b7b,5f5add3d2700561f1dc67051,5,,,,,,microphone,,,,,,0,53,53,47,1,5,0,,,,,,,,,,,,,,,,,,,,,,,,,,,,,,,,,,,,,,,,,,,,,,,,,,,,,,,,,,,,,,,,,,,,,,,,,,,,,,,,,,,,,,,,,,,,,,,,,,,,,,,,,,,,,
,,,,,,,,,,stimuli/images/PICTURE_314.png,SAKE,5d069f2f041328001a7815be,01/27/1943,2020-09-10_21h14.00.368,proactive3.1,2020.1.2,Win32,60,5f599a131af4471f3d752b7b,5f5add3d2700561f1dc67051,5,,,,,,perfume,,,,,,0,54,54,7,1,1,0,,,,,,,,,,,,,,,,,,,,,,,,,,,,,,,,,,,,,,,,,,,,,,,,,,,,,,,,,,,,,,,,,,,,,,,,,,,,,,,,,,,,,,,,,,,,,,,,,,,,,,,,,,,,,
,,,,,,,,,,stimuli/images/PICTURE_177.png,CARS,5d069f2f041328001a7815be,01/27/1943,2020-09-10_21h14.00.368,proactive3.1,2020.1.2,Win32,60,5f599a131af4471f3d752b7b,5f5add3d2700561f1dc67051,5,,,,,,mushroom,,,,,,0,55,55,35,1,4,0,,,,,,,,,,,,,,,,,,,,,,,,,,,,,,,,,,,,,,,,,,,,,,,,,,,,,,,,,,,,,,,,,,,,,,,,,,,,,,,,,,,,,,,,,,,,,,,,,,,,,,,,,,,,,
,,,,,,,,,,stimuli/images/PICTURE_32.png,JUNGLE,5d069f2f041328001a7815be,01/27/1943,2020-09-10_21h14.00.368,proactive3.1,2020.1.2,Win32,60,5f599a131af4471f3d752b7b,5f5add3d2700561f1dc67051,5,,,,,,crown,,,,,,0,56,56,45,1,5,0,,,,,,,,,,,,,,,,,,,,,,,,,,,,,,,,,,,,,,,,,,,,,,,,,,,,,,,,,,,,,,,,,,,,,,,,,,,,,,,,,,,,,,,,,,,,,,,,,,,,,,,,,,,,,
,,,,,,,,,,stimuli/images/PICTURE_311.png,FRIEND,5d069f2f041328001a7815be,01/27/1943,2020-09-10_21h14.00.368,proactive3.1,2020.1.2,Win32,60,5f599a131af4471f3d752b7b,5f5add3d2700561f1dc67051,5,,,,,,razor,,,,,,0,57,57,34,1,4,0,,,,,,,,,,,,,,,,,,,,,,,,,,,,,,,,,,,,,,,,,,,,,,,,,,,,,,,,,,,,,,,,,,,,,,,,,,,,,,,,,,,,,,,,,,,,,,,,,,,,,,,,,,,,,
,,,,,,,,,,stimuli/images/PICTURE_380.png,DEATH,5d069f2f041328001a7815be,01/27/1943,2020-09-10_21h14.00.368,proactive3.1,2020.1.2,Win32,60,5f599a131af4471f3d752b7b,5f5add3d2700561f1dc67051,5,,,,,,gorilla,,,,,,0,58,58,49,1,5,0,,,,,,,,,,,,,,,,,,,,,,,,,,,,,,,,,,,,,,,,,,,,,,,,,,,,,,,,,,,,,,,,,,,,,,,,,,,,,,,,,,,,,,,,,,,,,,,,,,,,,,,,,,,,,
,,?,0.001085,0,,,,,,stimuli/images/PICTURE_469.png,ARTIST,5d069f2f041328001a7815be,01/27/1943,2020-09-10_21h14.00.368,proactive3.1,2020.1.2,Win32,60,5f599a131af4471f3d752b7b,5f5add3d2700561f1dc67051,5,,,,,,stool,,,,,,,,,,,1,0,0,0,0,6,1,,,,,,,,,,,,,,,,,,,,,,,,,,,,,,,,,,,,,,,,,,,,,,,,,,,,,,,,,,,,,,,,,,,,,,,,,,,,,,,,,,,,,,,,,,,,,,,,,,,,,,,,
,,?,0.000885,0,,,,,,stimuli/images/PICTURE_285.png,ADVICE,5d069f2f041328001a7815be,01/27/1943,2020-09-10_21h14.00.368,proactive3.1,2020.1.2,Win32,60,5f599a131af4471f3d752b7b,5f5add3d2700561f1dc67051,5,,,,,,carrot,,,,,,,,,,,2,0,0,1,1,12,1,,,,,,,,,,,,,,,,,,,,,,,,,,,,,,,,,,,,,,,,,,,,,,,,,,,,,,,,,,,,,,,,,,,,,,,,,,,,,,,,,,,,,,,,,,,,,,,,,,,,,,,,
,,?,0.00096,0,,,,,,stimuli/images/PICTURE_453.png,PLENTY,5d069f2f041328001a7815be,01/27/1943,2020-09-10_21h14.00.368,proactive3.1,2020.1.2,Win32,60,5f599a131af4471f3d752b7b,5f5add3d2700561f1dc67051,5,,,,,,scissors,,,,,,,,,,,6,0,0,2,2,56,1,,,,,,,,,,,,,,,,,,,,,,,,,,,,,,,,,,,,,,,,,,,,,,,,,,,,,,,,,,,,,,,,,,,,,,,,,,,,,,,,,,,,,,,,,,,,,,,,,,,,,,,,
,,?,0.000925,0,,,,,,stimuli/images/PICTURE_708.png,CLIENT,5d069f2f041328001a7815be,01/27/1943,2020-09-10_21h14.00.368,proactive3.1,2020.1.2,Win32,60,5f599a131af4471f3d752b7b,5f5add3d2700561f1dc67051,5,,,,,,monkey,,,,,,,,,,,1,0,0,3,3,5,1,,,,,,,,,,,,,,,,,,,,,,,,,,,,,,,,,,,,,,,,,,,,,,,,,,,,,,,,,,,,,,,,,,,,,,,,,,,,,,,,,,,,,,,,,,,,,,,,,,,,,,,,
,,?,0.00084,0,,,,,,stimuli/images/PICTURE_302.png,FAMILY,5d069f2f041328001a7815be,01/27/1943,2020-09-10_21h14.00.368,proactive3.1,2020.1.2,Win32,60,5f599a131af4471f3d752b7b,5f5add3d2700561f1dc67051,5,,,,,,taxi,,,,,,,,,,,2,0,0,4,4,18,1,,,,,,,,,,,,,,,,,,,,,,,,,,,,,,,,,,,,,,,,,,,,,,,,,,,,,,,,,,,,,,,,,,,,,,,,,,,,,,,,,,,,,,,,,,,,,,,,,,,,,,,,
,,?,0.000825,0,,,,,,stimuli/images/PICTURE_208.png,MONTH,5d069f2f041328001a7815be,01/27/1943,2020-09-10_21h14.00.368,proactive3.1,2020.1.2,Win32,60,5f599a131af4471f3d752b7b,5f5add3d2700561f1dc67051,5,,,,,,microphone,,,,,,,,,,,6,0,0,5,5,53,1,,,,,,,,,,,,,,,,,,,,,,,,,,,,,,,,,,,,,,,,,,,,,,,,,,,,,,,,,,,,,,,,,,,,,,,,,,,,,,,,,,,,,,,,,,,,,,,,,,,,,,,,
,,?,0.000815,0,,,,,,stimuli/images/PICTURE_667.png,BATH,5d069f2f041328001a7815be,01/27/1943,2020-09-10_21h14.00.368,proactive3.1,2020.1.2,Win32,60,5f599a131af4471f3d752b7b,5f5add3d2700561f1dc67051,5,,,,,,daisy,,,,,,,,,,,1,0,0,6,6,4,1,,,,,,,,,,,,,,,,,,,,,,,,,,,,,,,,,,,,,,,,,,,,,,,,,,,,,,,,,,,,,,,,,,,,,,,,,,,,,,,,,,,,,,,,,,,,,,,,,,,,,,,,
,,?,0.00082,0,,,,,,stimuli/images/PICTURE_487.png,FLIGHT,5d069f2f041328001a7815be,01/27/1943,2020-09-10_21h14.00.368,proactive3.1,2020.1.2,Win32,60,5f599a131af4471f3d752b7b,5f5add3d2700561f1dc67051,5,,,,,,basket,,,,,,,,,,,1,0,0,7,7,9,1,,,,,,,,,,,,,,,,,,,,,,,,,,,,,,,,,,,,,,,,,,,,,,,,,,,,,,,,,,,,,,,,,,,,,,,,,,,,,,,,,,,,,,,,,,,,,,,,,,,,,,,,
,,?,0.00062,0,,,,,,stimuli/images/PICTURE_160.png,FEET,5d069f2f041328001a7815be,01/27/1943,2020-09-10_21h14.00.368,proactive3.1,2020.1.2,Win32,60,5f599a131af4471f3d752b7b,5f5add3d2700561f1dc67051,5,,,,,,wheelbarrow,,,,,,,,,,,6,0,0,8,8,58,1,,,,,,,,,,,,,,,,,,,,,,,,,,,,,,,,,,,,,,,,,,,,,,,,,,,,,,,,,,,,,,,,,,,,,,,,,,,,,,,,,,,,,,,,,,,,,,,,,,,,,,,,
,,?,0.00078,0,,,,,,stimuli/images/PICTURE_504.png,BODY,5d069f2f041328001a7815be,01/27/1943,2020-09-10_21h14.00.368,proactive3.1,2020.1.2,Win32,60,5f599a131af4471f3d752b7b,5f5add3d2700561f1dc67051,5,,,,,,wheel,,,,,,,,,,,1,0,0,9,9,8,1,,,,,,,,,,,,,,,,,,,,,,,,,,,,,,,,,,,,,,,,,,,,,,,,,,,,,,,,,,,,,,,,,,,,,,,,,,,,,,,,,,,,,,,,,,,,,,,,,,,,,,,,
,,?,0.00054,0,,,,,,stimuli/images/PICTURE_449.png,THING,5d069f2f041328001a7815be,01/27/1943,2020-09-10_21h14.00.368,proactive3.1,2020.1.2,Win32,60,5f599a131af4471f3d752b7b,5f5add3d2700561f1dc67051,5,,,,,,bench,,,,,,,,,,,6,0,0,10,10,59,1,,,,,,,,,,,,,,,,,,,,,,,,,,,,,,,,,,,,,,,,,,,,,,,,,,,,,,,,,,,,,,,,,,,,,,,,,,,,,,,,,,,,,,,,,,,,,,,,,,,,,,,,
,,?,0.000515,0,,,,,,stimuli/images/PICTURE_692.png,MONTH,5d069f2f041328001a7815be,01/27/1943,2020-09-10_21h14.00.368,proactive3.1,2020.1.2,Win32,60,5f599a131af4471f3d752b7b,5f5add3d2700561f1dc67051,5,,,,,,cherry,,,,,,,,,,,2,0,0,11,11,16,1,,,,,,,,,,,,,,,,,,,,,,,,,,,,,,,,,,,,,,,,,,,,,,,,,,,,,,,,,,,,,,,,,,,,,,,,,,,,,,,,,,,,,,,,,,,,,,,,,,,,,,,,
,,?,0.0009,0,,,,,,stimuli/images/PICTURE_380.png,PHOTO,5d069f2f041328001a7815be,01/27/1943,2020-09-10_21h14.00.368,proactive3.1,2020.1.2,Win32,60,5f599a131af4471f3d752b7b,5f5add3d2700561f1dc67051,5,,,,,,gorilla,,,,,,,,,,,6,0,0,12,12,52,1,,,,,,,,,,,,,,,,,,,,,,,,,,,,,,,,,,,,,,,,,,,,,,,,,,,,,,,,,,,,,,,,,,,,,,,,,,,,,,,,,,,,,,,,,,,,,,,,,,,,,,,,
,,JUNGLE,3.231085,1,,,,,,stimuli/images/PICTURE_32.png,JUNGLE,5d069f2f041328001a7815be,01/27/1943,2020-09-10_21h14.00.368,proactive3.1,2020.1.2,Win32,60,5f599a131af4471f3d752b7b,5f5add3d2700561f1dc67051,5,,,,,,crown,,,,,,,,,,,5,0,0,13,13,45,1,,,,,,,,,,,,,,,,,,,,,,,,,,,,,,,,,,,,,,,,,,,,,,,,,,,,,,,,,,,,,,,,,,,,,,,,,,,,,,,,,,,,,,,,,,,,,,,,,,,,,,,,
,,?,0.001765,0,,,,,,stimuli/images/PICTURE_215.png,PLENTY,5d069f2f041328001a7815be,01/27/1943,2020-09-10_21h14.00.368,proactive3.1,2020.1.2,Win32,60,5f599a131af4471f3d752b7b,5f5add3d2700561f1dc67051,5,,,,,,boot,,,,,,,,,,,4,0,0,14,14,37,1,,,,,,,,,,,,,,,,,,,,,,,,,,,,,,,,,,,,,,,,,,,,,,,,,,,,,,,,,,,,,,,,,,,,,,,,,,,,,,,,,,,,,,,,,,,,,,,,,,,,,,,,
,,?,0.001485,0,,,,,,stimuli/images/PICTURE_208.png,LOTS,5d069f2f041328001a7815be,01/27/1943,2020-09-10_21h14.00.368,proactive3.1,2020.1.2,Win32,60,5f599a131af4471f3d752b7b,5f5add3d2700561f1dc67051,5,,,,,,microphone,,,,,,,,,,,2,0,0,15,15,10,1,,,,,,,,,,,,,,,,,,,,,,,,,,,,,,,,,,,,,,,,,,,,,,,,,,,,,,,,,,,,,,,,,,,,,,,,,,,,,,,,,,,,,,,,,,,,,,,,,,,,,,,,
,,?,0.001535,0,,,,,,stimuli/images/PICTURE_491.png,ROOF,5d069f2f041328001a7815be,01/27/1943,2020-09-10_21h14.00.368,proactive3.1,2020.1.2,Win32,60,5f599a131af4471f3d752b7b,5f5add3d2700561f1dc67051,5,,,,,,rug,,,,,,,,,,,3,0,0,16,16,24,1,,,,,,,,,,,,,,,,,,,,,,,,,,,,,,,,,,,,,,,,,,,,,,,,,,,,,,,,,,,,,,,,,,,,,,,,,,,,,,,,,,,,,,,,,,,,,,,,,,,,,,,,
,,?,0.001445,0,,,,,,stimuli/images/PICTURE_160.png,LEADER,5d069f2f041328001a7815be,01/27/1943,2020-09-10_21h14.00.368,proactive3.1,2020.1.2,Win32,60,5f599a131af4471f3d752b7b,5f5add3d2700561f1dc67051,5,,,,,,wheelbarrow,,,,,,,,,,,1,0,0,17,17,3,1,,,,,,,,,,,,,,,,,,,,,,,,,,,,,,,,,,,,,,,,,,,,,,,,,,,,,,,,,,,,,,,,,,,,,,,,,,,,,,,,,,,,,,,,,,,,,,,,,,,,,,,,
,,?,0.002205,0,,,,,,stimuli/images/PICTURE_470.png,CASINO,5d069f2f041328001a7815be,01/27/1943,2020-09-10_21h14.00.368,proactive3.1,2020.1.2,Win32,60,5f599a131af4471f3d752b7b,5f5add3d2700561f1dc67051,5,,,,,,motorbike,,,,,,,,,,,4,0,0,18,18,36,1,,,,,,,,,,,,,,,,,,,,,,,,,,,,,,,,,,,,,,,,,,,,,,,,,,,,,,,,,,,,,,,,,,,,,,,,,,,,,,,,,,,,,,,,,,,,,,,,,,,,,,,,
,,?,0.001025,0,,,,,,stimuli/images/PICTURE_233.png,WOMEN,5d069f2f041328001a7815be,01/27/1943,2020-09-10_21h14.00.368,proactive3.1,2020.1.2,Win32,60,5f599a131af4471f3d752b7b,5f5add3d2700561f1dc67051,5,,,,,,salt,,,,,,,,,,,4,0,0,19,19,38,1,,,,,,,,,,,,,,,,,,,,,,,,,,,,,,,,,,,,,,,,,,,,,,,,,,,,,,,,,,,,,,,,,,,,,,,,,,,,,,,,,,,,,,,,,,,,,,,,,,,,,,,,
,,?,0.00087,0,,,,,,stimuli/images/PICTURE_488.png,STYLE,5d069f2f041328001a7815be,01/27/1943,2020-09-10_21h14.00.368,proactive3.1,2020.1.2,Win32,60,5f599a131af4471f3d752b7b,5f5add3d2700561f1dc67051,5,,,,,,sun,,,,,,,,,,,4,0,0,20,20,33,1,,,,,,,,,,,,,,,,,,,,,,,,,,,,,,,,,,,,,,,,,,,,,,,,,,,,,,,,,,,,,,,,,,,,,,,,,,,,,,,,,,,,,,,,,,,,,,,,,,,,,,,,
,,?,0.00158,0,,,,,,stimuli/images/PICTURE_177.png,CARS,5d069f2f041328001a7815be,01/27/1943,2020-09-10_21h14.00.368,proactive3.1,2020.1.2,Win32,60,5f599a131af4471f3d752b7b,5f5add3d2700561f1dc67051,5,,,,,,mushroom,,,,,,,,,,,4,0,0,21,21,35,1,,,,,,,,,,,,,,,,,,,,,,,,,,,,,,,,,,,,,,,,,,,,,,,,,,,,,,,,,,,,,,,,,,,,,,,,,,,,,,,,,,,,,,,,,,,,,,,,,,,,,,,,
,,?,0.00077,0,,,,,,stimuli/images/PICTURE_314.png,GODS,5d069f2f041328001a7815be,01/27/1943,2020-09-10_21h14.00.368,proactive3.1,2020.1.2,Win32,60,5f599a131af4471f3d752b7b,5f5add3d2700561f1dc67051,5,,,,,,perfume,,,,,,,,,,,2,0,0,22,22,11,1,,,,,,,,,,,,,,,,,,,,,,,,,,,,,,,,,,,,,,,,,,,,,,,,,,,,,,,,,,,,,,,,,,,,,,,,,,,,,,,,,,,,,,,,,,,,,,,,,,,,,,,,
,,?,0.000635,0,,,,,,stimuli/images/PICTURE_233.png,IDEAS,5d069f2f041328001a7815be,01/27/1943,2020-09-10_21h14.00.368,proactive3.1,2020.1.2,Win32,60,5f599a131af4471f3d752b7b,5f5add3d2700561f1dc67051,5,,,,,,salt,,,,,,,,,,,3,0,0,23,23,28,1,,,,,,,,,,,,,,,,,,,,,,,,,,,,,,,,,,,,,,,,,,,,,,,,,,,,,,,,,,,,,,,,,,,,,,,,,,,,,,,,,,,,,,,,,,,,,,,,,,,,,,,,
,,MILE,2.95198,1,,,,,,stimuli/images/PICTURE_68.png,MILE,5d069f2f041328001a7815be,01/27/1943,2020-09-10_21h14.00.368,proactive3.1,2020.1.2,Win32,60,5f599a131af4471f3d752b7b,5f5add3d2700561f1dc67051,5,,,,,,candle,,,,,,,,,,,5,0,0,24,24,44,1,,,,,,,,,,,,,,,,,,,,,,,,,,,,,,,,,,,,,,,,,,,,,,,,,,,,,,,,,,,,,,,,,,,,,,,,,,,,,,,,,,,,,,,,,,,,,,,,,,,,,,,,
,,?,0.001105,0,,,,,,stimuli/images/PICTURE_708.png,YARD,5d069f2f041328001a7815be,01/27/1943,2020-09-10_21h14.00.368,proactive3.1,2020.1.2,Win32,60,5f599a131af4471f3d752b7b,5f5add3d2700561f1dc67051,5,,,,,,monkey,,,,,,,,,,,3,0,0,25,25,29,1,,,,,,,,,,,,,,,,,,,,,,,,,,,,,,,,,,,,,,,,,,,,,,,,,,,,,,,,,,,,,,,,,,,,,,,,,,,,,,,,,,,,,,,,,,,,,,,,,,,,,,,,
,,?,0.00095,0,,,,,,stimuli/images/PICTURE_339.png,PLENTY,5d069f2f041328001a7815be,01/27/1943,2020-09-10_21h14.00.368,proactive3.1,2020.1.2,Win32,60,5f599a131af4471f3d752b7b,5f5add3d2700561f1dc67051,5,,,,,,backpack,,,,,,,,,,,1,0,0,26,26,0,1,,,,,,,,,,,,,,,,,,,,,,,,,,,,,,,,,,,,,,,,,,,,,,,,,,,,,,,,,,,,,,,,,,,,,,,,,,,,,,,,,,,,,,,,,,,,,,,,,,,,,,,,
,,?,0.00094,0,,,,,,stimuli/images/PICTURE_491.png,WRITER,5d069f2f041328001a7815be,01/27/1943,2020-09-10_21h14.00.368,proactive3.1,2020.1.2,Win32,60,5f599a131af4471f3d752b7b,5f5add3d2700561f1dc67051,5,,,,,,rug,,,,,,,,,,,6,0,0,27,27,57,1,,,,,,,,,,,,,,,,,,,,,,,,,,,,,,,,,,,,,,,,,,,,,,,,,,,,,,,,,,,,,,,,,,,,,,,,,,,,,,,,,,,,,,,,,,,,,,,,,,,,,,,,
,,?,0.000925,0,,,,,,stimuli/images/PICTURE_744.png,SAKE,5d069f2f041328001a7815be,01/27/1943,2020-09-10_21h14.00.368,proactive3.1,2020.1.2,Win32,60,5f599a131af4471f3d752b7b,5f5add3d2700561f1dc67051,5,,,,,,ring,,,,,,,,,,,2,0,0,28,28,17,1,,,,,,,,,,,,,,,,,,,,,,,,,,,,,,,,,,,,,,,,,,,,,,,,,,,,,,,,,,,,,,,,,,,,,,,,,,,,,,,,,,,,,,,,,,,,,,,,,,,,,,,,
,,?,0.000895,0,,,,,,stimuli/images/PICTURE_654.png,VALLEY,5d069f2f041328001a7815be,01/27/1943,2020-09-10_21h14.00.368,proactive3.1,2020.1.2,Win32,60,5f599a131af4471f3d752b7b,5f5add3d2700561f1dc67051,5,,,,,,pencil,,,,,,,,,,,1,0,0,29,29,1,1,,,,,,,,,,,,,,,,,,,,,,,,,,,,,,,,,,,,,,,,,,,,,,,,,,,,,,,,,,,,,,,,,,,,,,,,,,,,,,,,,,,,,,,,,,,,,,,,,,,,,,,,
,,BEAUTY,3.95357,1,,,,,,stimuli/images/PICTURE_327.png,BEAUTY,5d069f2f041328001a7815be,01/27/1943,2020-09-10_21h14.00.368,proactive3.1,2020.1.2,Win32,60,5f599a131af4471f3d752b7b,5f5add3d2700561f1dc67051,5,,,,,,helmet,,,,,,,,,,,5,0,0,30,30,48,1,,,,,,,,,,,,,,,,,,,,,,,,,,,,,,,,,,,,,,,,,,,,,,,,,,,,,,,,,,,,,,,,,,,,,,,,,,,,,,,,,,,,,,,,,,,,,,,,,,,,,,,,
,,?,0.002175,0,,,,,,stimuli/images/PICTURE_509.png,PHOTO,5d069f2f041328001a7815be,01/27/1943,2020-09-10_21h14.00.368,proactive3.1,2020.1.2,Win32,60,5f599a131af4471f3d752b7b,5f5add3d2700561f1dc67051,5,,,,,,telephone,,,,,,,,,,,3,0,0,31,31,21,1,,,,,,,,,,,,,,,,,,,,,,,,,,,,,,,,,,,,,,,,,,,,,,,,,,,,,,,,,,,,,,,,,,,,,,,,,,,,,,,,,,,,,,,,,,,,,,,,,,,,,,,,
,,?,0.00047,0,,,,,,stimuli/images/PICTURE_467.png,DEMON,5d069f2f041328001a7815be,01/27/1943,2020-09-10_21h14.00.368,proactive3.1,2020.1.2,Win32,60,5f599a131af4471f3d752b7b,5f5add3d2700561f1dc67051,5,,,,,,peg,,,,,,,,,,,3,0,0,32,32,23,1,,,,,,,,,,,,,,,,,,,,,,,,,,,,,,,,,,,,,,,,,,,,,,,,,,,,,,,,,,,,,,,,,,,,,,,,,,,,,,,,,,,,,,,,,,,,,,,,,,,,,,,,
,,LETTER,2.64443,1,,,,,,stimuli/images/PICTURE_469.png,LETTER,5d069f2f041328001a7815be,01/27/1943,2020-09-10_21h14.00.368,proactive3.1,2020.1.2,Win32,60,5f599a131af4471f3d752b7b,5f5add3d2700561f1dc67051,5,,,,,,stool,,,,,,,,,,,5,0,0,33,33,42,1,,,,,,,,,,,,,,,,,,,,,,,,,,,,,,,,,,,,,,,,,,,,,,,,,,,,,,,,,,,,,,,,,,,,,,,,,,,,,,,,,,,,,,,,,,,,,,,,,,,,,,,,
,,?,0.00158,0,,,,,,stimuli/images/PICTURE_95.png,STYLE,5d069f2f041328001a7815be,01/27/1943,2020-09-10_21h14.00.368,proactive3.1,2020.1.2,Win32,60,5f599a131af4471f3d752b7b,5f5add3d2700561f1dc67051,5,,,,,,suitcase,,,,,,,,,,,3,0,0,34,34,25,1,,,,,,,,,,,,,,,,,,,,,,,,,,,,,,,,,,,,,,,,,,,,,,,,,,,,,,,,,,,,,,,,,,,,,,,,,,,,,,,,,,,,,,,,,,,,,,,,,,,,,,,,
,,?,0.00152,0,,,,,,stimuli/images/PICTURE_311.png,BEAUTY,5d069f2f041328001a7815be,01/27/1943,2020-09-10_21h14.00.368,proactive3.1,2020.1.2,Win32,60,5f599a131af4471f3d752b7b,5f5add3d2700561f1dc67051,5,,,,,,razor,,,,,,,,,,,2,0,0,35,35,13,1,,,,,,,,,,,,,,,,,,,,,,,,,,,,,,,,,,,,,,,,,,,,,,,,,,,,,,,,,,,,,,,,,,,,,,,,,,,,,,,,,,,,,,,,,,,,,,,,,,,,,,,,
,,?,0.001305,0,,,,,,stimuli/images/PICTURE_147.png,MOMENT,5d069f2f041328001a7815be,01/27/1943,2020-09-10_21h14.00.368,proactive3.1,2020.1.2,Win32,60,5f599a131af4471f3d752b7b,5f5add3d2700561f1dc67051,5,,,,,,hanger,,,,,,,,,,,6,0,0,36,36,51,1,,,,,,,,,,,,,,,,,,,,,,,,,,,,,,,,,,,,,,,,,,,,,,,,,,,,,,,,,,,,,,,,,,,,,,,,,,,,,,,,,,,,,,,,,,,,,,,,,,,,,,,,
,,THING,2.488465,1,,,,,,stimuli/images/PICTURE_208.png,THING,5d069f2f041328001a7815be,01/27/1943,2020-09-10_21h14.00.368,proactive3.1,2020.1.2,Win32,60,5f599a131af4471f3d752b7b,5f5add3d2700561f1dc67051,5,,,,,,microphone,,,,,,,,,,,5,0,0,37,37,47,1,,,,,,,,,,,,,,,,,,,,,,,,,,,,,,,,,,,,,,,,,,,,,,,,,,,,,,,,,,,,,,,,,,,,,,,,,,,,,,,,,,,,,,,,,,,,,,,,,,,,,,,,
,,?,0.001315,0,,,,,,stimuli/images/PICTURE_308.png,KIND,5d069f2f041328001a7815be,01/27/1943,2020-09-10_21h14.00.368,proactive3.1,2020.1.2,Win32,60,5f599a131af4471f3d752b7b,5f5add3d2700561f1dc67051,5,,,,,,dice,,,,,,,,,,,6,0,0,38,38,54,1,,,,,,,,,,,,,,,,,,,,,,,,,,,,,,,,,,,,,,,,,,,,,,,,,,,,,,,,,,,,,,,,,,,,,,,,,,,,,,,,,,,,,,,,,,,,,,,,,,,,,,,,
,,?,0.0011,0,,,,,,stimuli/images/PICTURE_688.png,CASINO,5d069f2f041328001a7815be,01/27/1943,2020-09-10_21h14.00.368,proactive3.1,2020.1.2,Win32,60,5f599a131af4471f3d752b7b,5f5add3d2700561f1dc67051,5,,,,,,runner,,,,,,,,,,,1,0,0,39,39,2,1,,,,,,,,,,,,,,,,,,,,,,,,,,,,,,,,,,,,,,,,,,,,,,,,,,,,,,,,,,,,,,,,,,,,,,,,,,,,,,,,,,,,,,,,,,,,,,,,,,,,,,,,
,,?,0.00106,0,,,,,,stimuli/images/PICTURE_677.png,MILE,5d069f2f041328001a7815be,01/27/1943,2020-09-10_21h14.00.368,proactive3.1,2020.1.2,Win32,60,5f599a131af4471f3d752b7b,5f5add3d2700561f1dc67051,5,,,,,,map,,,,,,,,,,,4,0,0,40,40,30,1,,,,,,,,,,,,,,,,,,,,,,,,,,,,,,,,,,,,,,,,,,,,,,,,,,,,,,,,,,,,,,,,,,,,,,,,,,,,,,,,,,,,,,,,,,,,,,,,,,,,,,,,
,,?,0.00103,0,,,,,,stimuli/images/PICTURE_314.png,SAKE,5d069f2f041328001a7815be,01/27/1943,2020-09-10_21h14.00.368,proactive3.1,2020.1.2,Win32,60,5f599a131af4471f3d752b7b,5f5add3d2700561f1dc67051,5,,,,,,perfume,,,,,,,,,,,1,0,0,41,41,7,1,,,,,,,,,,,,,,,,,,,,,,,,,,,,,,,,,,,,,,,,,,,,,,,,,,,,,,,,,,,,,,,,,,,,,,,,,,,,,,,,,,,,,,,,,,,,,,,,,,,,,,,,
,,SOLD,6.453415,0,,,,,,stimuli/images/PICTURE_744.png,SYSTEM,5d069f2f041328001a7815be,01/27/1943,2020-09-10_21h14.00.368,proactive3.1,2020.1.2,Win32,60,5f599a131af4471f3d752b7b,5f5add3d2700561f1dc67051,5,,,,,,ring,,,,,,,,,,,5,0,0,42,42,43,1,,,,,,,,,,,,,,,,,,,,,,,,,,,,,,,,,,,,,,,,,,,,,,,,,,,,,,,,,,,,,,,,,,,,,,,,,,,,,,,,,,,,,,,,,,,,,,,,,,,,,,,,
,,?,0.00138,0,,,,,,stimuli/images/PICTURE_311.png,FRIEND,5d069f2f041328001a7815be,01/27/1943,2020-09-10_21h14.00.368,proactive3.1,2020.1.2,Win32,60,5f599a131af4471f3d752b7b,5f5add3d2700561f1dc67051,5,,,,,,razor,,,,,,,,,,,4,0,0,43,43,34,1,,,,,,,,,,,,,,,,,,,,,,,,,,,,,,,,,,,,,,,,,,,,,,,,,,,,,,,,,,,,,,,,,,,,,,,,,,,,,,,,,,,,,,,,,,,,,,,,,,,,,,,,
,,?,0.00115,0,,,,,,stimuli/images/PICTURE_123.png,ADVICE,5d069f2f041328001a7815be,01/27/1943,2020-09-10_21h14.00.368,proactive3.1,2020.1.2,Win32,60,5f599a131af4471f3d752b7b,5f5add3d2700561f1dc67051,5,,,,,,dart,,,,,,,,,,,6,0,0,44,44,50,1,,,,,,,,,,,,,,,,,,,,,,,,,,,,,,,,,,,,,,,,,,,,,,,,,,,,,,,,,,,,,,,,,,,,,,,,,,,,,,,,,,,,,,,,,,,,,,,,,,,,,,,,
,,?,0.00135,0,,,,,,stimuli/images/PICTURE_203.png,ARTIST,5d069f2f041328001a7815be,01/27/1943,2020-09-10_21h14.00.368,proactive3.1,2020.1.2,Win32,60,5f599a131af4471f3d752b7b,5f5add3d2700561f1dc67051,5,,,,,,cap,,,,,,,,,,,3,0,0,45,45,26,1,,,,,,,,,,,,,,,,,,,,,,,,,,,,,,,,,,,,,,,,,,,,,,,,,,,,,,,,,,,,,,,,,,,,,,,,,,,,,,,,,,,,,,,,,,,,,,,,,,,,,,,,
,,?,0.00122,0,,,,,,stimuli/images/PICTURE_151.png,GIRL,5d069f2f041328001a7815be,01/27/1943,2020-09-10_21h14.00.368,proactive3.1,2020.1.2,Win32,60,5f599a131af4471f3d752b7b,5f5add3d2700561f1dc67051,5,,,,,,tray,,,,,,,,,,,2,0,0,46,46,19,1,,,,,,,,,,,,,,,,,,,,,,,,,,,,,,,,,,,,,,,,,,,,,,,,,,,,,,,,,,,,,,,,,,,,,,,,,,,,,,,,,,,,,,,,,,,,,,,,,,,,,,,,
,,FAMILY,6.867675,0,,,,,,stimuli/images/PICTURE_667.png,PLENTY,5d069f2f041328001a7815be,01/27/1943,2020-09-10_21h14.00.368,proactive3.1,2020.1.2,Win32,60,5f599a131af4471f3d752b7b,5f5add3d2700561f1dc67051,5,,,,,,daisy,,,,,,,,,,,5,0,0,47,47,41,1,,,,,,,,,,,,,,,,,,,,,,,,,,,,,,,,,,,,,,,,,,,,,,,,,,,,,,,,,,,,,,,,,,,,,,,,,,,,,,,,,,,,,,,,,,,,,,,,,,,,,,,,
,,?,0.00184,0,,,,,,stimuli/images/PICTURE_248.png,DOZEN,5d069f2f041328001a7815be,01/27/1943,2020-09-10_21h14.00.368,proactive3.1,2020.1.2,Win32,60,5f599a131af4471f3d752b7b,5f5add3d2700561f1dc67051,5,,,,,,cart,,,,,,,,,,,4,0,0,48,48,39,1,,,,,,,,,,,,,,,,,,,,,,,,,,,,,,,,,,,,,,,,,,,,,,,,,,,,,,,,,,,,,,,,,,,,,,,,,,,,,,,,,,,,,,,,,,,,,,,,,,,,,,,,
,,?,0.00153,0,,,,,,stimuli/images/PICTURE_255.png,AREA,5d069f2f041328001a7815be,01/27/1943,2020-09-10_21h14.00.368,proactive3.1,2020.1.2,Win32,60,5f599a131af4471f3d752b7b,5f5add3d2700561f1dc67051,5,,,,,,shovel,,,,,,,,,,,3,0,0,49,49,22,1,,,,,,,,,,,,,,,,,,,,,,,,,,,,,,,,,,,,,,,,,,,,,,,,,,,,,,,,,,,,,,,,,,,,,,,,,,,,,,,,,,,,,,,,,,,,,,,,,,,,,,,,
,,?,0.001485,0,,,,,,stimuli/images/PICTURE_688.png,WOMEN,5d069f2f041328001a7815be,01/27/1943,2020-09-10_21h14.00.368,proactive3.1,2020.1.2,Win32,60,5f599a131af4471f3d752b7b,5f5add3d2700561f1dc67051,5,,,,,,runner,,,,,,,,,,,2,0,0,50,50,14,1,,,,,,,,,,,,,,,,,,,,,,,,,,,,,,,,,,,,,,,,,,,,,,,,,,,,,,,,,,,,,,,,,,,,,,,,,,,,,,,,,,,,,,,,,,,,,,,,,,,,,,,,
,,?,0.001515,0,,,,,,stimuli/images/PICTURE_356.png,DANGER,5d069f2f041328001a7815be,01/27/1943,2020-09-10_21h14.00.368,proactive3.1,2020.1.2,Win32,60,5f599a131af4471f3d752b7b,5f5add3d2700561f1dc67051,5,,,,,,pawn,,,,,,,,,,,6,0,0,51,51,55,1,,,,,,,,,,,,,,,,,,,,,,,,,,,,,,,,,,,,,,,,,,,,,,,,,,,,,,,,,,,,,,,,,,,,,,,,,,,,,,,,,,,,,,,,,,,,,,,,,,,,,,,,
,,PLAN,3.33087,0,,,,,,stimuli/images/PICTURE_308.png,ESTATE,5d069f2f041328001a7815be,01/27/1943,2020-09-10_21h14.00.368,proactive3.1,2020.1.2,Win32,60,5f599a131af4471f3d752b7b,5f5add3d2700561f1dc67051,5,,,,,,dice,,,,,,,,,,,5,0,0,52,52,46,1,,,,,,,,,,,,,,,,,,,,,,,,,,,,,,,,,,,,,,,,,,,,,,,,,,,,,,,,,,,,,,,,,,,,,,,,,,,,,,,,,,,,,,,,,,,,,,,,,,,,,,,,
,,?,0.00165,0,,,,,,stimuli/images/PICTURE_85.png,THING,5d069f2f041328001a7815be,01/27/1943,2020-09-10_21h14.00.368,proactive3.1,2020.1.2,Win32,60,5f599a131af4471f3d752b7b,5f5add3d2700561f1dc67051,5,,,,,,diamond,,,,,,,,,,,2,0,0,53,53,15,1,,,,,,,,,,,,,,,,,,,,,,,,,,,,,,,,,,,,,,,,,,,,,,,,,,,,,,,,,,,,,,,,,,,,,,,,,,,,,,,,,,,,,,,,,,,,,,,,,,,,,,,,
,,?,0.00136,0,,,,,,stimuli/images/PICTURE_348.png,SPEECH,5d069f2f041328001a7815be,01/27/1943,2020-09-10_21h14.00.368,proactive3.1,2020.1.2,Win32,60,5f599a131af4471f3d752b7b,5f5add3d2700561f1dc67051,5,,,,,,pepper,,,,,,,,,,,3,0,0,54,54,20,1,,,,,,,,,,,,,,,,,,,,,,,,,,,,,,,,,,,,,,,,,,,,,,,,,,,,,,,,,,,,,,,,,,,,,,,,,,,,,,,,,,,,,,,,,,,,,,,,,,,,,,,,
,,PLAN,7.655485,0,,,,,,stimuli/images/PICTURE_123.png,ADVICE,5d069f2f041328001a7815be,01/27/1943,2020-09-10_21h14.00.368,proactive3.1,2020.1.2,Win32,60,5f599a131af4471f3d752b7b,5f5add3d2700561f1dc67051,5,,,,,,dart,,,,,,,,,,,5,0,0,55,55,40,1,,,,,,,,,,,,,,,,,,,,,,,,,,,,,,,,,,,,,,,,,,,,,,,,,,,,,,,,,,,,,,,,,,,,,,,,,,,,,,,,,,,,,,,,,,,,,,,,,,,,,,,,
,,?,0.00184,0,,,,,,stimuli/images/PICTURE_675.png,WEAPON,5d069f2f041328001a7815be,01/27/1943,2020-09-10_21h14.00.368,proactive3.1,2020.1.2,Win32,60,5f599a131af4471f3d752b7b,5f5add3d2700561f1dc67051,5,,,,,,windmill,,,,,,,,,,,4,0,0,56,56,32,1,,,,,,,,,,,,,,,,,,,,,,,,,,,,,,,,,,,,,,,,,,,,,,,,,,,,,,,,,,,,,,,,,,,,,,,,,,,,,,,,,,,,,,,,,,,,,,,,,,,,,,,,
,,KILLER,1.87217,0,,,,,,stimuli/images/PICTURE_380.png,DEATH,5d069f2f041328001a7815be,01/27/1943,2020-09-10_21h14.00.368,proactive3.1,2020.1.2,Win32,60,5f599a131af4471f3d752b7b,5f5add3d2700561f1dc67051,5,,,,,,gorilla,,,,,,,,,,,5,0,0,57,57,49,1,,,,,,,,,,,,,,,,,,,,,,,,,,,,,,,,,,,,,,,,,,,,,,,,,,,,,,,,,,,,,,,,,,,,,,,,,,,,,,,,,,,,,,,,,,,,,,,,,,,,,,,,
,,?,0.00124,0,,,,,,stimuli/images/PICTURE_708.png,PENNY,5d069f2f041328001a7815be,01/27/1943,2020-09-10_21h14.00.368,proactive3.1,2020.1.2,Win32,60,5f599a131af4471f3d752b7b,5f5add3d2700561f1dc67051,5,,,,,,monkey,,,,,,,,,,,4,0,0,58,58,31,1,,,,,,,,,,,,,,,,,,,,,,,,,,,,,,,,,,,,,,,,,,,,,,,,,,,,,,,,,,,,,,,,,,,,,,,,,,,,,,,,,,,,,,,,,,,,,,,,,,,,,,,,
,,?,0.00105,0,,,,,,stimuli/images/PICTURE_453.png,DUDE,5d069f2f041328001a7815be,01/27/1943,2020-09-10_21h14.00.368,proactive3.1,2020.1.2,Win32,60,5f599a131af4471f3d752b7b,5f5add3d2700561f1dc67051,5,,,,,,scissors,,,,,,,,,,,3,0,0,59,59,27,1,,,,,,,,,,,,,,,,,,,,,,,,,,,,,,,,,,,,,,,,,,,,,,,,,,,,,,,,,,,,,,,,,,,,,,,,,,,,,,,,,,,,,,,,,,,,,,,,,,,,,,,,
,,,,,,,,,,,,5d069f2f041328001a7815be,01/27/1943,2020-09-10_21h14.00.368,proactive3.1,2020.1.2,Win32,60,5f599a131af4471f3d752b7b,5f5add3d2700561f1dc67051,5,,,,,,,,,,,,,,,,,,,,,,,,0,1,1,0,1,stimuli/learn-block1.csv,,,,,,,,,,,,,,,,,,,,,,,,,,,,,,,,,,,,,,,,,,,,,,,,,,,,,,,,,,,,,,,,,,,,,,,,,,,,,,,,,,,,,,,,,,,,,,,,,,
,,,,,,,,,,stimuli/images/PICTURE_339.png,CLIENT,5d069f2f041328001a7815be,01/27/1943,2020-09-10_21h14.00.368,proactive3.1,2020.1.2,Win32,60,5f599a131af4471f3d752b7b,5f5add3d2700561f1dc67051,5,,,,,,backpack,,,,,,0,0,0,11,1,2,1,,,,,,,,,,,,,,,,,,,,,,,,,,,,,,,,,,,,,,,,,,,,,,,,,,,,,,,,,,,,,,,,,,,,,,,,,,,,,,,,,,,,,,,,,,,,,,,,,,,,,,,,,,,,,
,,,,,,,,,,stimuli/images/PICTURE_95.png,HONEY,5d069f2f041328001a7815be,01/27/1943,2020-09-10_21h14.00.368,proactive3.1,2020.1.2,Win32,60,5f599a131af4471f3d752b7b,5f5add3d2700561f1dc67051,5,,,,,,suitcase,,,,,,0,1,1,44,1,5,1,,,,,,,,,,,,,,,,,,,,,,,,,,,,,,,,,,,,,,,,,,,,,,,,,,,,,,,,,,,,,,,,,,,,,,,,,,,,,,,,,,,,,,,,,,,,,,,,,,,,,,,,,,,,,
,,,,,,,,,,stimuli/images/PICTURE_667.png,RIVER,5d069f2f041328001a7815be,01/27/1943,2020-09-10_21h14.00.368,proactive3.1,2020.1.2,Win32,60,5f599a131af4471f3d752b7b,5f5add3d2700561f1dc67051,5,,,,,,daisy,,,,,,0,2,2,10,1,2,1,,,,,,,,,,,,,,,,,,,,,,,,,,,,,,,,,,,,,,,,,,,,,,,,,,,,,,,,,,,,,,,,,,,,,,,,,,,,,,,,,,,,,,,,,,,,,,,,,,,,,,,,,,,,,
,,,,,,,,,,stimuli/images/PICTURE_177.png,WRITER,5d069f2f041328001a7815be,01/27/1943,2020-09-10_21h14.00.368,proactive3.1,2020.1.2,Win32,60,5f599a131af4471f3d752b7b,5f5add3d2700561f1dc67051,5,,,,,,mushroom,,,,,,0,3,3,41,1,5,1,,,,,,,,,,,,,,,,,,,,,,,,,,,,,,,,,,,,,,,,,,,,,,,,,,,,,,,,,,,,,,,,,,,,,,,,,,,,,,,,,,,,,,,,,,,,,,,,,,,,,,,,,,,,,
,,,,,,,,,,stimuli/images/PICTURE_203.png,NIGHT,5d069f2f041328001a7815be,01/27/1943,2020-09-10_21h14.00.368,proactive3.1,2020.1.2,Win32,60,5f599a131af4471f3d752b7b,5f5add3d2700561f1dc67051,5,,,,,,cap,,,,,,0,4,4,2,1,1,1,,,,,,,,,,,,,,,,,,,,,,,,,,,,,,,,,,,,,,,,,,,,,,,,,,,,,,,,,,,,,,,,,,,,,,,,,,,,,,,,,,,,,,,,,,,,,,,,,,,,,,,,,,,,,
,,,,,,,,,,stimuli/images/PICTURE_95.png,MILLER,5d069f2f041328001a7815be,01/27/1943,2020-09-10_21h14.00.368,proactive3.1,2020.1.2,Win32,60,5f599a131af4471f3d752b7b,5f5add3d2700561f1dc67051,5,,,,,,suitcase,,,,,,0,5,5,56,1,6,1,,,,,,,,,,,,,,,,,,,,,,,,,,,,,,,,,,,,,,,,,,,,,,,,,,,,,,,,,,,,,,,,,,,,,,,,,,,,,,,,,,,,,,,,,,,,,,,,,,,,,,,,,,,,,
,,,,,,,,,,stimuli/images/PICTURE_383.png,WRITER,5d069f2f041328001a7815be,01/27/1943,2020-09-10_21h14.00.368,proactive3.1,2020.1.2,Win32,60,5f599a131af4471f3d752b7b,5f5add3d2700561f1dc67051,5,,,,,,coin,,,,,,0,6,6,28,1,3,1,,,,,,,,,,,,,,,,,,,,,,,,,,,,,,,,,,,,,,,,,,,,,,,,,,,,,,,,,,,,,,,,,,,,,,,,,,,,,,,,,,,,,,,,,,,,,,,,,,,,,,,,,,,,,
,,,,,,,,,,stimuli/images/PICTURE_68.png,ROOF,5d069f2f041328001a7815be,01/27/1943,2020-09-10_21h14.00.368,proactive3.1,2020.1.2,Win32,60,5f599a131af4471f3d752b7b,5f5add3d2700561f1dc67051,5,,,,,,candle,,,,,,0,7,7,38,1,4,1,,,,,,,,,,,,,,,,,,,,,,,,,,,,,,,,,,,,,,,,,,,,,,,,,,,,,,,,,,,,,,,,,,,,,,,,,,,,,,,,,,,,,,,,,,,,,,,,,,,,,,,,,,,,,
,,,,,,,,,,stimuli/images/PICTURE_296.png,LIFE,5d069f2f041328001a7815be,01/27/1943,2020-09-10_21h14.00.368,proactive3.1,2020.1.2,Win32,60,5f599a131af4471f3d752b7b,5f5add3d2700561f1dc67051,5,,,,,,bolt,,,,,,0,8,8,57,1,6,1,,,,,,,,,,,,,,,,,,,,,,,,,,,,,,,,,,,,,,,,,,,,,,,,,,,,,,,,,,,,,,,,,,,,,,,,,,,,,,,,,,,,,,,,,,,,,,,,,,,,,,,,,,,,,
,,,,,,,,,,stimuli/images/PICTURE_108.png,POLICY,5d069f2f041328001a7815be,01/27/1943,2020-09-10_21h14.00.368,proactive3.1,2020.1.2,Win32,60,5f599a131af4471f3d752b7b,5f5add3d2700561f1dc67051,5,,,,,,calendar,,,,,,0,9,9,22,1,3,1,,,,,,,,,,,,,,,,,,,,,,,,,,,,,,,,,,,,,,,,,,,,,,,,,,,,,,,,,,,,,,,,,,,,,,,,,,,,,,,,,,,,,,,,,,,,,,,,,,,,,,,,,,,,,
,,,,,,,,,,stimuli/images/PICTURE_685.png,PENNY,5d069f2f041328001a7815be,01/27/1943,2020-09-10_21h14.00.368,proactive3.1,2020.1.2,Win32,60,5f599a131af4471f3d752b7b,5f5add3d2700561f1dc67051,5,,,,,,goose,,,,,,0,10,10,4,1,1,1,,,,,,,,,,,,,,,,,,,,,,,,,,,,,,,,,,,,,,,,,,,,,,,,,,,,,,,,,,,,,,,,,,,,,,,,,,,,,,,,,,,,,,,,,,,,,,,,,,,,,,,,,,,,,
,,,,,,,,,,stimuli/images/PICTURE_2.png,FLIGHT,5d069f2f041328001a7815be,01/27/1943,2020-09-10_21h14.00.368,proactive3.1,2020.1.2,Win32,60,5f599a131af4471f3d752b7b,5f5add3d2700561f1dc67051,5,,,,,,tyre,,,,,,0,11,11,15,1,2,1,,,,,,,,,,,,,,,,,,,,,,,,,,,,,,,,,,,,,,,,,,,,,,,,,,,,,,,,,,,,,,,,,,,,,,,,,,,,,,,,,,,,,,,,,,,,,,,,,,,,,,,,,,,,,
,,,,,,,,,,stimuli/images/PICTURE_449.png,DUDE,5d069f2f041328001a7815be,01/27/1943,2020-09-10_21h14.00.368,proactive3.1,2020.1.2,Win32,60,5f599a131af4471f3d752b7b,5f5add3d2700561f1dc67051,5,,,,,,bench,,,,,,0,12,12,17,1,2,1,,,,,,,,,,,,,,,,,,,,,,,,,,,,,,,,,,,,,,,,,,,,,,,,,,,,,,,,,,,,,,,,,,,,,,,,,,,,,,,,,,,,,,,,,,,,,,,,,,,,,,,,,,,,,
,,,,,,,,,,stimuli/images/PICTURE_504.png,YEAR,5d069f2f041328001a7815be,01/27/1943,2020-09-10_21h14.00.368,proactive3.1,2020.1.2,Win32,60,5f599a131af4471f3d752b7b,5f5add3d2700561f1dc67051,5,,,,,,wheel,,,,,,0,13,13,13,1,2,1,,,,,,,,,,,,,,,,,,,,,,,,,,,,,,,,,,,,,,,,,,,,,,,,,,,,,,,,,,,,,,,,,,,,,,,,,,,,,,,,,,,,,,,,,,,,,,,,,,,,,,,,,,,,,
,,,,,,,,,,stimuli/images/PICTURE_296.png,LOTS,5d069f2f041328001a7815be,01/27/1943,2020-09-10_21h14.00.368,proactive3.1,2020.1.2,Win32,60,5f599a131af4471f3d752b7b,5f5add3d2700561f1dc67051,5,,,,,,bolt,,,,,,0,14,14,9,1,1,1,,,,,,,,,,,,,,,,,,,,,,,,,,,,,,,,,,,,,,,,,,,,,,,,,,,,,,,,,,,,,,,,,,,,,,,,,,,,,,,,,,,,,,,,,,,,,,,,,,,,,,,,,,,,,
,,,,,,,,,,stimuli/images/PICTURE_675.png,SALE,5d069f2f041328001a7815be,01/27/1943,2020-09-10_21h14.00.368,proactive3.1,2020.1.2,Win32,60,5f599a131af4471f3d752b7b,5f5add3d2700561f1dc67051,5,,,,,,windmill,,,,,,0,15,15,47,1,5,1,,,,,,,,,,,,,,,,,,,,,,,,,,,,,,,,,,,,,,,,,,,,,,,,,,,,,,,,,,,,,,,,,,,,,,,,,,,,,,,,,,,,,,,,,,,,,,,,,,,,,,,,,,,,,
,,,,,,,,,,stimuli/images/PICTURE_744.png,WEAPON,5d069f2f041328001a7815be,01/27/1943,2020-09-10_21h14.00.368,proactive3.1,2020.1.2,Win32,60,5f599a131af4471f3d752b7b,5f5add3d2700561f1dc67051,5,,,,,,ring,,,,,,0,16,16,50,1,6,1,,,,,,,,,,,,,,,,,,,,,,,,,,,,,,,,,,,,,,,,,,,,,,,,,,,,,,,,,,,,,,,,,,,,,,,,,,,,,,,,,,,,,,,,,,,,,,,,,,,,,,,,,,,,,
,,,,,,,,,,stimuli/images/PICTURE_340.png,LETTER,5d069f2f041328001a7815be,01/27/1943,2020-09-10_21h14.00.368,proactive3.1,2020.1.2,Win32,60,5f599a131af4471f3d752b7b,5f5add3d2700561f1dc67051,5,,,,,,mirror,,,,,,0,17,17,24,1,3,1,,,,,,,,,,,,,,,,,,,,,,,,,,,,,,,,,,,,,,,,,,,,,,,,,,,,,,,,,,,,,,,,,,,,,,,,,,,,,,,,,,,,,,,,,,,,,,,,,,,,,,,,,,,,,
,,,,,,,,,,stimuli/images/PICTURE_469.png,AGENT,5d069f2f041328001a7815be,01/27/1943,2020-09-10_21h14.00.368,proactive3.1,2020.1.2,Win32,60,5f599a131af4471f3d752b7b,5f5add3d2700561f1dc67051,5,,,,,,stool,,,,,,0,18,18,16,1,2,1,,,,,,,,,,,,,,,,,,,,,,,,,,,,,,,,,,,,,,,,,,,,,,,,,,,,,,,,,,,,,,,,,,,,,,,,,,,,,,,,,,,,,,,,,,,,,,,,,,,,,,,,,,,,,
,,,,,,,,,,stimuli/images/PICTURE_327.png,SERIES,5d069f2f041328001a7815be,01/27/1943,2020-09-10_21h14.00.368,proactive3.1,2020.1.2,Win32,60,5f599a131af4471f3d752b7b,5f5add3d2700561f1dc67051,5,,,,,,helmet,,,,,,0,19,19,3,1,1,1,,,,,,,,,,,,,,,,,,,,,,,,,,,,,,,,,,,,,,,,,,,,,,,,,,,,,,,,,,,,,,,,,,,,,,,,,,,,,,,,,,,,,,,,,,,,,,,,,,,,,,,,,,,,,
,,,,,,,,,,stimuli/images/PICTURE_203.png,GODS,5d069f2f041328001a7815be,01/27/1943,2020-09-10_21h14.00.368,proactive3.1,2020.1.2,Win32,60,5f599a131af4471f3d752b7b,5f5add3d2700561f1dc67051,5,,,,,,cap,,,,,,0,20,20,30,1,4,1,,,,,,,,,,,,,,,,,,,,,,,,,,,,,,,,,,,,,,,,,,,,,,,,,,,,,,,,,,,,,,,,,,,,,,,,,,,,,,,,,,,,,,,,,,,,,,,,,,,,,,,,,,,,,
,,,,,,,,,,stimuli/images/PICTURE_57.png,MOMENT,5d069f2f041328001a7815be,01/27/1943,2020-09-10_21h14.00.368,proactive3.1,2020.1.2,Win32,60,5f599a131af4471f3d752b7b,5f5add3d2700561f1dc67051,5,,,,,,stamp,,,,,,0,21,21,37,1,4,1,,,,,,,,,,,,,,,,,,,,,,,,,,,,,,,,,,,,,,,,,,,,,,,,,,,,,,,,,,,,,,,,,,,,,,,,,,,,,,,,,,,,,,,,,,,,,,,,,,,,,,,,,,,,,
,,,,,,,,,,stimuli/images/PICTURE_654.png,MONTH,5d069f2f041328001a7815be,01/27/1943,2020-09-10_21h14.00.368,proactive3.1,2020.1.2,Win32,60,5f599a131af4471f3d752b7b,5f5add3d2700561f1dc67051,5,,,,,,pencil,,,,,,0,22,22,29,1,3,1,,,,,,,,,,,,,,,,,,,,,,,,,,,,,,,,,,,,,,,,,,,,,,,,,,,,,,,,,,,,,,,,,,,,,,,,,,,,,,,,,,,,,,,,,,,,,,,,,,,,,,,,,,,,,
,,,,,,,,,,stimuli/images/PICTURE_403.png,WRITER,5d069f2f041328001a7815be,01/27/1943,2020-09-10_21h14.00.368,proactive3.1,2020.1.2,Win32,60,5f599a131af4471f3d752b7b,5f5add3d2700561f1dc67051,5,,,,,,cathedral,,,,,,0,23,23,31,1,4,1,,,,,,,,,,,,,,,,,,,,,,,,,,,,,,,,,,,,,,,,,,,,,,,,,,,,,,,,,,,,,,,,,,,,,,,,,,,,,,,,,,,,,,,,,,,,,,,,,,,,,,,,,,,,,
,,,,,,,,,,stimuli/images/PICTURE_750.png,HOTEL,5d069f2f041328001a7815be,01/27/1943,2020-09-10_21h14.00.368,proactive3.1,2020.1.2,Win32,60,5f599a131af4471f3d752b7b,5f5add3d2700561f1dc67051,5,,,,,,kettle,,,,,,0,24,24,27,1,3,1,,,,,,,,,,,,,,,,,,,,,,,,,,,,,,,,,,,,,,,,,,,,,,,,,,,,,,,,,,,,,,,,,,,,,,,,,,,,,,,,,,,,,,,,,,,,,,,,,,,,,,,,,,,,,
,,,,,,,,,,stimuli/images/PICTURE_95.png,BOYS,5d069f2f041328001a7815be,01/27/1943,2020-09-10_21h14.00.368,proactive3.1,2020.1.2,Win32,60,5f599a131af4471f3d752b7b,5f5add3d2700561f1dc67051,5,,,,,,suitcase,,,,,,0,25,25,1,1,1,1,,,,,,,,,,,,,,,,,,,,,,,,,,,,,,,,,,,,,,,,,,,,,,,,,,,,,,,,,,,,,,,,,,,,,,,,,,,,,,,,,,,,,,,,,,,,,,,,,,,,,,,,,,,,,
,,,,,,,,,,stimuli/images/PICTURE_233.png,LOTS,5d069f2f041328001a7815be,01/27/1943,2020-09-10_21h14.00.368,proactive3.1,2020.1.2,Win32,60,5f599a131af4471f3d752b7b,5f5add3d2700561f1dc67051,5,,,,,,salt,,,,,,0,26,26,42,1,5,1,,,,,,,,,,,,,,,,,,,,,,,,,,,,,,,,,,,,,,,,,,,,,,,,,,,,,,,,,,,,,,,,,,,,,,,,,,,,,,,,,,,,,,,,,,,,,,,,,,,,,,,,,,,,,
,,,,,,,,,,stimuli/images/PICTURE_285.png,LIFE,5d069f2f041328001a7815be,01/27/1943,2020-09-10_21h14.00.368,proactive3.1,2020.1.2,Win32,60,5f599a131af4471f3d752b7b,5f5add3d2700561f1dc67051,5,,,,,,carrot,,,,,,0,27,27,33,1,4,1,,,,,,,,,,,,,,,,,,,,,,,,,,,,,,,,,,,,,,,,,,,,,,,,,,,,,,,,,,,,,,,,,,,,,,,,,,,,,,,,,,,,,,,,,,,,,,,,,,,,,,,,,,,,,
,,,,,,,,,,stimuli/images/PICTURE_405.png,YEAR,5d069f2f041328001a7815be,01/27/1943,2020-09-10_21h14.00.368,proactive3.1,2020.1.2,Win32,60,5f599a131af4471f3d752b7b,5f5add3d2700561f1dc67051,5,,,,,,anchor,,,,,,0,28,28,34,1,4,1,,,,,,,,,,,,,,,,,,,,,,,,,,,,,,,,,,,,,,,,,,,,,,,,,,,,,,,,,,,,,,,,,,,,,,,,,,,,,,,,,,,,,,,,,,,,,,,,,,,,,,,,,,,,,
,,,,,,,,,,stimuli/images/PICTURE_383.png,SERIES,5d069f2f041328001a7815be,01/27/1943,2020-09-10_21h14.00.368,proactive3.1,2020.1.2,Win32,60,5f599a131af4471f3d752b7b,5f5add3d2700561f1dc67051,5,,,,,,coin,,,,,,0,29,29,46,1,5,1,,,,,,,,,,,,,,,,,,,,,,,,,,,,,,,,,,,,,,,,,,,,,,,,,,,,,,,,,,,,,,,,,,,,,,,,,,,,,,,,,,,,,,,,,,,,,,,,,,,,,,,,,,,,,
,,,,,,,,,,stimuli/images/PICTURE_33.png,FRIEND,5d069f2f041328001a7815be,01/27/1943,2020-09-10_21h14.00.368,proactive3.1,2020.1.2,Win32,60,5f599a131af4471f3d752b7b,5f5add3d2700561f1dc67051,5,,,,,,frame,,,,,,0,30,30,8,1,1,1,,,,,,,,,,,,,,,,,,,,,,,,,,,,,,,,,,,,,,,,,,,,,,,,,,,,,,,,,,,,,,,,,,,,,,,,,,,,,,,,,,,,,,,,,,,,,,,,,,,,,,,,,,,,,
,,,,,,,,,,stimuli/images/PICTURE_308.png,FAMILY,5d069f2f041328001a7815be,01/27/1943,2020-09-10_21h14.00.368,proactive3.1,2020.1.2,Win32,60,5f599a131af4471f3d752b7b,5f5add3d2700561f1dc67051,5,,,,,,dice,,,,,,0,31,31,36,1,4,1,,,,,,,,,,,,,,,,,,,,,,,,,,,,,,,,,,,,,,,,,,,,,,,,,,,,,,,,,,,,,,,,,,,,,,,,,,,,,,,,,,,,,,,,,,,,,,,,,,,,,,,,,,,,,
,,,,,,,,,,stimuli/images/PICTURE_85.png,NATION,5d069f2f041328001a7815be,01/27/1943,2020-09-10_21h14.00.368,proactive3.1,2020.1.2,Win32,60,5f599a131af4471f3d752b7b,5f5add3d2700561f1dc67051,5,,,,,,diamond,,,,,,0,32,32,5,1,1,1,,,,,,,,,,,,,,,,,,,,,,,,,,,,,,,,,,,,,,,,,,,,,,,,,,,,,,,,,,,,,,,,,,,,,,,,,,,,,,,,,,,,,,,,,,,,,,,,,,,,,,,,,,,,,
,,,,,,,,,,stimuli/images/PICTURE_708.png,RECORD,5d069f2f041328001a7815be,01/27/1943,2020-09-10_21h14.00.368,proactive3.1,2020.1.2,Win32,60,5f599a131af4471f3d752b7b,5f5add3d2700561f1dc67051,5,,,,,,monkey,,,,,,0,33,33,58,1,6,1,,,,,,,,,,,,,,,,,,,,,,,,,,,,,,,,,,,,,,,,,,,,,,,,,,,,,,,,,,,,,,,,,,,,,,,,,,,,,,,,,,,,,,,,,,,,,,,,,,,,,,,,,,,,,
,,,,,,,,,,stimuli/images/PICTURE_327.png,CASINO,5d069f2f041328001a7815be,01/27/1943,2020-09-10_21h14.00.368,proactive3.1,2020.1.2,Win32,60,5f599a131af4471f3d752b7b,5f5add3d2700561f1dc67051,5,,,,,,helmet,,,,,,0,34,34,20,1,3,1,,,,,,,,,,,,,,,,,,,,,,,,,,,,,,,,,,,,,,,,,,,,,,,,,,,,,,,,,,,,,,,,,,,,,,,,,,,,,,,,,,,,,,,,,,,,,,,,,,,,,,,,,,,,,
,,,,,,,,,,stimuli/images/PICTURE_504.png,COPS,5d069f2f041328001a7815be,01/27/1943,2020-09-10_21h14.00.368,proactive3.1,2020.1.2,Win32,60,5f599a131af4471f3d752b7b,5f5add3d2700561f1dc67051,5,,,,,,wheel,,,,,,0,35,35,52,1,6,1,,,,,,,,,,,,,,,,,,,,,,,,,,,,,,,,,,,,,,,,,,,,,,,,,,,,,,,,,,,,,,,,,,,,,,,,,,,,,,,,,,,,,,,,,,,,,,,,,,,,,,,,,,,,,
,,,,,,,,,,stimuli/images/PICTURE_491.png,RIVER,5d069f2f041328001a7815be,01/27/1943,2020-09-10_21h14.00.368,proactive3.1,2020.1.2,Win32,60,5f599a131af4471f3d752b7b,5f5add3d2700561f1dc67051,5,,,,,,rug,,,,,,0,36,36,6,1,1,1,,,,,,,,,,,,,,,,,,,,,,,,,,,,,,,,,,,,,,,,,,,,,,,,,,,,,,,,,,,,,,,,,,,,,,,,,,,,,,,,,,,,,,,,,,,,,,,,,,,,,,,,,,,,,
,,,,,,,,,,stimuli/images/PICTURE_85.png,TOILET,5d069f2f041328001a7815be,01/27/1943,2020-09-10_21h14.00.368,proactive3.1,2020.1.2,Win32,60,5f599a131af4471f3d752b7b,5f5add3d2700561f1dc67051,5,,,,,,diamond,,,,,,0,37,37,48,1,5,1,,,,,,,,,,,,,,,,,,,,,,,,,,,,,,,,,,,,,,,,,,,,,,,,,,,,,,,,,,,,,,,,,,,,,,,,,,,,,,,,,,,,,,,,,,,,,,,,,,,,,,,,,,,,,
,,,,,,,,,,stimuli/images/PICTURE_208.png,SYSTEM,5d069f2f041328001a7815be,01/27/1943,2020-09-10_21h14.00.368,proactive3.1,2020.1.2,Win32,60,5f599a131af4471f3d752b7b,5f5add3d2700561f1dc67051,5,,,,,,microphone,,,,,,0,38,38,32,1,4,1,,,,,,,,,,,,,,,,,,,,,,,,,,,,,,,,,,,,,,,,,,,,,,,,,,,,,,,,,,,,,,,,,,,,,,,,,,,,,,,,,,,,,,,,,,,,,,,,,,,,,,,,,,,,,
