consent_key.keys,consent_key.rt,recalled,recalled_rt,recall_acc,example_recall.thisRepN,example_recall.thisTrialN,example_recall.thisN,example_recall.thisIndex,example_recall.ran,file,word,participant,please enter your date of birth (dd/mm/yyyy),date,expName,psychopyVersion,OS,frameRate,STUDY_ID,SESSION_ID,list,prac_learn_study_loop.thisRepN,prac_learn_study_loop.thisTrialN,prac_learn_study_loop.thisN,prac_learn_study_loop.thisIndex,prac_learn_study_loop.ran,image,prac_learn_test_loop.thisRepN,prac_learn_test_loop.thisTrialN,prac_learn_test_loop.thisN,prac_learn_test_loop.thisIndex,prac_learn_test_loop.ran,learn_study_loop.thisRepN,learn_study_loop.thisTrialN,learn_study_loop.thisN,learn_study_loop.thisIndex,learn_study_loop.ran,list_no,block_no,learn_test_loop.thisRepN,learn_test_loop.thisTrialN,learn_test_loop.thisN,learn_test_loop.thisIndex,learn_test_loop.ran,learn_blocks.thisRepN,learn_blocks.thisTrialN,learn_blocks.thisN,learn_blocks.thisIndex,learn_blocks.ran,block_csv
y,6.696,T,10.054,0,0,0,0,0,1,stimuli/images/PICTURE_747.png,TOUGH,5d4cdc63ec9aa0000112ae43,23/10/1985,2020-08-27_13h27.29.317,proactive3.1,2020.1.2,Win32,60,5f47c29a48bd2a1e651a6eb7,5f47ece295b81824ca8736b6,4,,,,,,,,,,,,,,,,,,,,,,,,,,,,,
,,,,,,,,,,stimuli/images/PICTURE_378.png,LOSS,5d4cdc63ec9aa0000112ae43,23/10/1985,2020-08-27_13h27.29.317,proactive3.1,2020.1.2,Win32,60,5f47c29a48bd2a1e651a6eb7,5f47ece295b81824ca8736b6,4,0,0,0,2,1,lobster,,,,,,,,,,,,,,,,,,,,,,,
,,,,,,,,,,stimuli/images/PICTURE_658.png,DEVIL,5d4cdc63ec9aa0000112ae43,23/10/1985,2020-08-27_13h27.29.317,proactive3.1,2020.1.2,Win32,60,5f47c29a48bd2a1e651a6eb7,5f47ece295b81824ca8736b6,4,0,1,1,3,1,crow,,,,,,,,,,,,,,,,,,,,,,,
,,,,,,,,,,stimuli/images/PICTURE_727.png,CELL,5d4cdc63ec9aa0000112ae43,23/10/1985,2020-08-27_13h27.29.317,proactive3.1,2020.1.2,Win32,60,5f47c29a48bd2a1e651a6eb7,5f47ece295b81824ca8736b6,4,0,2,2,1,1,hose,,,,,,,,,,,,,,,,,,,,,,,
,,,,,,,,,,stimuli/images/PICTURE_269.png,GENIUS,5d4cdc63ec9aa0000112ae43,23/10/1985,2020-08-27_13h27.29.317,proactive3.1,2020.1.2,Win32,60,5f47c29a48bd2a1e651a6eb7,5f47ece295b81824ca8736b6,4,0,3,3,0,1,chameleon,,,,,,,,,,,,,,,,,,,,,,,
,,CCC,15.015,0,,,,,,stimuli/images/PICTURE_727.png,CELL,5d4cdc63ec9aa0000112ae43,23/10/1985,2020-08-27_13h27.29.317,proactive3.1,2020.1.2,Win32,60,5f47c29a48bd2a1e651a6eb7,5f47ece295b81824ca8736b6,4,,,,,,hose,0,0,0,1,1,,,,,,,,,,,,,,,,,,
,,D,15.017,0,,,,,,stimuli/images/PICTURE_658.png,DEVIL,5d4cdc63ec9aa0000112ae43,23/10/1985,2020-08-27_13h27.29.317,proactive3.1,2020.1.2,Win32,60,5f47c29a48bd2a1e651a6eb7,5f47ece295b81824ca8736b6,4,,,,,,crow,0,1,1,3,1,,,,,,,,,,,,,,,,,,
,,?,15.001,0,,,,,,stimuli/images/PICTURE_269.png,GENIUS,5d4cdc63ec9aa0000112ae43,23/10/1985,2020-08-27_13h27.29.317,proactive3.1,2020.1.2,Win32,60,5f47c29a48bd2a1e651a6eb7,5f47ece295b81824ca8736b6,4,,,,,,chameleon,0,2,2,0,1,,,,,,,,,,,,,,,,,,
,,E,15.018,0,,,,,,stimuli/images/PICTURE_378.png,LOSS,5d4cdc63ec9aa0000112ae43,23/10/1985,2020-08-27_13h27.29.317,proactive3.1,2020.1.2,Win32,60,5f47c29a48bd2a1e651a6eb7,5f47ece295b81824ca8736b6,4,,,,,,lobster,0,3,3,2,1,,,,,,,,,,,,,,,,,,
,,?,15.001,0,,,,,,stimuli/images/PICTURE_697.png,KILLER,5d4cdc63ec9aa0000112ae43,23/10/1985,2020-08-27_13h27.29.317,proactive3.1,2020.1.2,Win32,60,5f47c29a48bd2a1e651a6eb7,5f47ece295b81824ca8736b6,4,,,,,,peach,0,4,4,4,1,,,,,,,,,,,,,,,,,,
,,,,,,,,,,stimuli/images/PICTURE_667.png,BATH,5d4cdc63ec9aa0000112ae43,23/10/1985,2020-08-27_13h27.29.317,proactive3.1,2020.1.2,Win32,60,5f47c29a48bd2a1e651a6eb7,5f47ece295b81824ca8736b6,4,,,,,,daisy,,,,,,0,0,0,4,1,1,0,,,,,,,,,,,
,,,,,,,,,,stimuli/images/PICTURE_453.png,PLENTY,5d4cdc63ec9aa0000112ae43,23/10/1985,2020-08-27_13h27.29.317,proactive3.1,2020.1.2,Win32,60,5f47c29a48bd2a1e651a6eb7,5f47ece295b81824ca8736b6,4,,,,,,scissors,,,,,,0,1,1,56,1,6,0,,,,,,,,,,,
,,,,,,,,,,stimuli/images/PICTURE_308.png,ESTATE,5d4cdc63ec9aa0000112ae43,23/10/1985,2020-08-27_13h27.29.317,proactive3.1,2020.1.2,Win32,60,5f47c29a48bd2a1e651a6eb7,5f47ece295b81824ca8736b6,4,,,,,,dice,,,,,,0,2,2,46,1,5,0,,,,,,,,,,,
,,,,,,,,,,stimuli/images/PICTURE_208.png,LOTS,5d4cdc63ec9aa0000112ae43,23/10/1985,2020-08-27_13h27.29.317,proactive3.1,2020.1.2,Win32,60,5f47c29a48bd2a1e651a6eb7,5f47ece295b81824ca8736b6,4,,,,,,microphone,,,,,,0,3,3,10,1,2,0,,,,,,,,,,,
,,,,,,,,,,stimuli/images/PICTURE_327.png,BEAUTY,5d4cdc63ec9aa0000112ae43,23/10/1985,2020-08-27_13h27.29.317,proactive3.1,2020.1.2,Win32,60,5f47c29a48bd2a1e651a6eb7,5f47ece295b81824ca8736b6,4,,,,,,helmet,,,,,,0,4,4,48,1,5,0,,,,,,,,,,,
,,,,,,,,,,stimuli/images/PICTURE_248.png,DOZEN,5d4cdc63ec9aa0000112ae43,23/10/1985,2020-08-27_13h27.29.317,proactive3.1,2020.1.2,Win32,60,5f47c29a48bd2a1e651a6eb7,5f47ece295b81824ca8736b6,4,,,,,,cart,,,,,,0,5,5,39,1,4,0,,,,,,,,,,,
,,,,,,,,,,stimuli/images/PICTURE_339.png,PLENTY,5d4cdc63ec9aa0000112ae43,23/10/1985,2020-08-27_13h27.29.317,proactive3.1,2020.1.2,Win32,60,5f47c29a48bd2a1e651a6eb7,5f47ece295b81824ca8736b6,4,,,,,,backpack,,,,,,0,6,6,0,1,1,0,,,,,,,,,,,
,,,,,,,,,,stimuli/images/PICTURE_488.png,STYLE,5d4cdc63ec9aa0000112ae43,23/10/1985,2020-08-27_13h27.29.317,proactive3.1,2020.1.2,Win32,60,5f47c29a48bd2a1e651a6eb7,5f47ece295b81824ca8736b6,4,,,,,,sun,,,,,,0,7,7,33,1,4,0,,,,,,,,,,,
,,,,,,,,,,stimuli/images/PICTURE_356.png,DANGER,5d4cdc63ec9aa0000112ae43,23/10/1985,2020-08-27_13h27.29.317,proactive3.1,2020.1.2,Win32,60,5f47c29a48bd2a1e651a6eb7,5f47ece295b81824ca8736b6,4,,,,,,pawn,,,,,,0,8,8,55,1,6,0,,,,,,,,,,,
,,,,,,,,,,stimuli/images/PICTURE_68.png,MILE,5d4cdc63ec9aa0000112ae43,23/10/1985,2020-08-27_13h27.29.317,proactive3.1,2020.1.2,Win32,60,5f47c29a48bd2a1e651a6eb7,5f47ece295b81824ca8736b6,4,,,,,,candle,,,,,,0,9,9,44,1,5,0,,,,,,,,,,,
,,,,,,,,,,stimuli/images/PICTURE_203.png,ARTIST,5d4cdc63ec9aa0000112ae43,23/10/1985,2020-08-27_13h27.29.317,proactive3.1,2020.1.2,Win32,60,5f47c29a48bd2a1e651a6eb7,5f47ece295b81824ca8736b6,4,,,,,,cap,,,,,,0,10,10,26,1,3,0,,,,,,,,,,,
,,,,,,,,,,stimuli/images/PICTURE_469.png,ARTIST,5d4cdc63ec9aa0000112ae43,23/10/1985,2020-08-27_13h27.29.317,proactive3.1,2020.1.2,Win32,60,5f47c29a48bd2a1e651a6eb7,5f47ece295b81824ca8736b6,4,,,,,,stool,,,,,,0,11,11,6,1,1,0,,,,,,,,,,,
,,,,,,,,,,stimuli/images/PICTURE_177.png,CARS,5d4cdc63ec9aa0000112ae43,23/10/1985,2020-08-27_13h27.29.317,proactive3.1,2020.1.2,Win32,60,5f47c29a48bd2a1e651a6eb7,5f47ece295b81824ca8736b6,4,,,,,,mushroom,,,,,,0,12,12,35,1,4,0,,,,,,,,,,,
,,,,,,,,,,stimuli/images/PICTURE_654.png,VALLEY,5d4cdc63ec9aa0000112ae43,23/10/1985,2020-08-27_13h27.29.317,proactive3.1,2020.1.2,Win32,60,5f47c29a48bd2a1e651a6eb7,5f47ece295b81824ca8736b6,4,,,,,,pencil,,,,,,0,13,13,1,1,1,0,,,,,,,,,,,
,,,,,,,,,,stimuli/images/PICTURE_160.png,LEADER,5d4cdc63ec9aa0000112ae43,23/10/1985,2020-08-27_13h27.29.317,proactive3.1,2020.1.2,Win32,60,5f47c29a48bd2a1e651a6eb7,5f47ece295b81824ca8736b6,4,,,,,,wheelbarrow,,,,,,0,14,14,3,1,1,0,,,,,,,,,,,
,,,,,,,,,,stimuli/images/PICTURE_233.png,IDEAS,5d4cdc63ec9aa0000112ae43,23/10/1985,2020-08-27_13h27.29.317,proactive3.1,2020.1.2,Win32,60,5f47c29a48bd2a1e651a6eb7,5f47ece295b81824ca8736b6,4,,,,,,salt,,,,,,0,15,15,28,1,3,0,,,,,,,,,,,
,,,,,,,,,,stimuli/images/PICTURE_151.png,GIRL,5d4cdc63ec9aa0000112ae43,23/10/1985,2020-08-27_13h27.29.317,proactive3.1,2020.1.2,Win32,60,5f47c29a48bd2a1e651a6eb7,5f47ece295b81824ca8736b6,4,,,,,,tray,,,,,,0,16,16,19,1,2,0,,,,,,,,,,,
,,,,,,,,,,stimuli/images/PICTURE_491.png,WRITER,5d4cdc63ec9aa0000112ae43,23/10/1985,2020-08-27_13h27.29.317,proactive3.1,2020.1.2,Win32,60,5f47c29a48bd2a1e651a6eb7,5f47ece295b81824ca8736b6,4,,,,,,rug,,,,,,0,17,17,57,1,6,0,,,,,,,,,,,
,,,,,,,,,,stimuli/images/PICTURE_491.png,ROOF,5d4cdc63ec9aa0000112ae43,23/10/1985,2020-08-27_13h27.29.317,proactive3.1,2020.1.2,Win32,60,5f47c29a48bd2a1e651a6eb7,5f47ece295b81824ca8736b6,4,,,,,,rug,,,,,,0,18,18,24,1,3,0,,,,,,,,,,,
,,,,,,,,,,stimuli/images/PICTURE_667.png,PLENTY,5d4cdc63ec9aa0000112ae43,23/10/1985,2020-08-27_13h27.29.317,proactive3.1,2020.1.2,Win32,60,5f47c29a48bd2a1e651a6eb7,5f47ece295b81824ca8736b6,4,,,,,,daisy,,,,,,0,19,19,41,1,5,0,,,,,,,,,,,
,,,,,,,,,,stimuli/images/PICTURE_467.png,DEMON,5d4cdc63ec9aa0000112ae43,23/10/1985,2020-08-27_13h27.29.317,proactive3.1,2020.1.2,Win32,60,5f47c29a48bd2a1e651a6eb7,5f47ece295b81824ca8736b6,4,,,,,,peg,,,,,,0,20,20,23,1,3,0,,,,,,,,,,,
,,,,,,,,,,stimuli/images/PICTURE_504.png,BODY,5d4cdc63ec9aa0000112ae43,23/10/1985,2020-08-27_13h27.29.317,proactive3.1,2020.1.2,Win32,60,5f47c29a48bd2a1e651a6eb7,5f47ece295b81824ca8736b6,4,,,,,,wheel,,,,,,0,21,21,8,1,1,0,,,,,,,,,,,
,,,,,,,,,,stimuli/images/PICTURE_380.png,PHOTO,5d4cdc63ec9aa0000112ae43,23/10/1985,2020-08-27_13h27.29.317,proactive3.1,2020.1.2,Win32,60,5f47c29a48bd2a1e651a6eb7,5f47ece295b81824ca8736b6,4,,,,,,gorilla,,,,,,0,22,22,52,1,6,0,,,,,,,,,,,
,,,,,,,,,,stimuli/images/PICTURE_123.png,ADVICE,5d4cdc63ec9aa0000112ae43,23/10/1985,2020-08-27_13h27.29.317,proactive3.1,2020.1.2,Win32,60,5f47c29a48bd2a1e651a6eb7,5f47ece295b81824ca8736b6,4,,,,,,dart,,,,,,0,23,23,40,1,5,0,,,,,,,,,,,
,,,,,,,,,,stimuli/images/PICTURE_469.png,LETTER,5d4cdc63ec9aa0000112ae43,23/10/1985,2020-08-27_13h27.29.317,proactive3.1,2020.1.2,Win32,60,5f47c29a48bd2a1e651a6eb7,5f47ece295b81824ca8736b6,4,,,,,,stool,,,,,,0,24,24,42,1,5,0,,,,,,,,,,,
,,,,,,,,,,stimuli/images/PICTURE_85.png,THING,5d4cdc63ec9aa0000112ae43,23/10/1985,2020-08-27_13h27.29.317,proactive3.1,2020.1.2,Win32,60,5f47c29a48bd2a1e651a6eb7,5f47ece295b81824ca8736b6,4,,,,,,diamond,,,,,,0,25,25,15,1,2,0,,,,,,,,,,,
,,,,,,,,,,stimuli/images/PICTURE_302.png,FAMILY,5d4cdc63ec9aa0000112ae43,23/10/1985,2020-08-27_13h27.29.317,proactive3.1,2020.1.2,Win32,60,5f47c29a48bd2a1e651a6eb7,5f47ece295b81824ca8736b6,4,,,,,,taxi,,,,,,0,26,26,18,1,2,0,,,,,,,,,,,
,,,,,,,,,,stimuli/images/PICTURE_744.png,SAKE,5d4cdc63ec9aa0000112ae43,23/10/1985,2020-08-27_13h27.29.317,proactive3.1,2020.1.2,Win32,60,5f47c29a48bd2a1e651a6eb7,5f47ece295b81824ca8736b6,4,,,,,,ring,,,,,,0,27,27,17,1,2,0,,,,,,,,,,,
,,,,,,,,,,stimuli/images/PICTURE_208.png,MONTH,5d4cdc63ec9aa0000112ae43,23/10/1985,2020-08-27_13h27.29.317,proactive3.1,2020.1.2,Win32,60,5f47c29a48bd2a1e651a6eb7,5f47ece295b81824ca8736b6,4,,,,,,microphone,,,,,,0,28,28,53,1,6,0,,,,,,,,,,,
,,,,,,,,,,stimuli/images/PICTURE_95.png,STYLE,5d4cdc63ec9aa0000112ae43,23/10/1985,2020-08-27_13h27.29.317,proactive3.1,2020.1.2,Win32,60,5f47c29a48bd2a1e651a6eb7,5f47ece295b81824ca8736b6,4,,,,,,suitcase,,,,,,0,29,29,25,1,3,0,,,,,,,,,,,
,,,,,,,,,,stimuli/images/PICTURE_123.png,ADVICE,5d4cdc63ec9aa0000112ae43,23/10/1985,2020-08-27_13h27.29.317,proactive3.1,2020.1.2,Win32,60,5f47c29a48bd2a1e651a6eb7,5f47ece295b81824ca8736b6,4,,,,,,dart,,,,,,0,30,30,50,1,6,0,,,,,,,,,,,
,,,,,,,,,,stimuli/images/PICTURE_348.png,SPEECH,5d4cdc63ec9aa0000112ae43,23/10/1985,2020-08-27_13h27.29.317,proactive3.1,2020.1.2,Win32,60,5f47c29a48bd2a1e651a6eb7,5f47ece295b81824ca8736b6,4,,,,,,pepper,,,,,,0,31,31,20,1,3,0,,,,,,,,,,,
,,,,,,,,,,stimuli/images/PICTURE_311.png,BEAUTY,5d4cdc63ec9aa0000112ae43,23/10/1985,2020-08-27_13h27.29.317,proactive3.1,2020.1.2,Win32,60,5f47c29a48bd2a1e651a6eb7,5f47ece295b81824ca8736b6,4,,,,,,razor,,,,,,0,32,32,13,1,2,0,,,,,,,,,,,
,,,,,,,,,,stimuli/images/PICTURE_692.png,MONTH,5d4cdc63ec9aa0000112ae43,23/10/1985,2020-08-27_13h27.29.317,proactive3.1,2020.1.2,Win32,60,5f47c29a48bd2a1e651a6eb7,5f47ece295b81824ca8736b6,4,,,,,,cherry,,,,,,0,33,33,16,1,2,0,,,,,,,,,,,
,,,,,,,,,,stimuli/images/PICTURE_380.png,DEATH,5d4cdc63ec9aa0000112ae43,23/10/1985,2020-08-27_13h27.29.317,proactive3.1,2020.1.2,Win32,60,5f47c29a48bd2a1e651a6eb7,5f47ece295b81824ca8736b6,4,,,,,,gorilla,,,,,,0,34,34,49,1,5,0,,,,,,,,,,,
,,,,,,,,,,stimuli/images/PICTURE_449.png,THING,5d4cdc63ec9aa0000112ae43,23/10/1985,2020-08-27_13h27.29.317,proactive3.1,2020.1.2,Win32,60,5f47c29a48bd2a1e651a6eb7,5f47ece295b81824ca8736b6,4,,,,,,bench,,,,,,0,35,35,59,1,6,0,,,,,,,,,,,
,,,,,,,,,,stimuli/images/PICTURE_688.png,CASINO,5d4cdc63ec9aa0000112ae43,23/10/1985,2020-08-27_13h27.29.317,proactive3.1,2020.1.2,Win32,60,5f47c29a48bd2a1e651a6eb7,5f47ece295b81824ca8736b6,4,,,,,,runner,,,,,,0,36,36,2,1,1,0,,,,,,,,,,,
,,,,,,,,,,stimuli/images/PICTURE_255.png,AREA,5d4cdc63ec9aa0000112ae43,23/10/1985,2020-08-27_13h27.29.317,proactive3.1,2020.1.2,Win32,60,5f47c29a48bd2a1e651a6eb7,5f47ece295b81824ca8736b6,4,,,,,,shovel,,,,,,0,37,37,22,1,3,0,,,,,,,,,,,
,,,,,,,,,,stimuli/images/PICTURE_708.png,CLIENT,5d4cdc63ec9aa0000112ae43,23/10/1985,2020-08-27_13h27.29.317,proactive3.1,2020.1.2,Win32,60,5f47c29a48bd2a1e651a6eb7,5f47ece295b81824ca8736b6,4,,,,,,monkey,,,,,,0,38,38,5,1,1,0,,,,,,,,,,,
,,,,,,,,,,stimuli/images/PICTURE_509.png,PHOTO,5d4cdc63ec9aa0000112ae43,23/10/1985,2020-08-27_13h27.29.317,proactive3.1,2020.1.2,Win32,60,5f47c29a48bd2a1e651a6eb7,5f47ece295b81824ca8736b6,4,,,,,,telephone,,,,,,0,39,39,21,1,3,0,,,,,,,,,,,
,,,,,,,,,,stimuli/images/PICTURE_32.png,JUNGLE,5d4cdc63ec9aa0000112ae43,23/10/1985,2020-08-27_13h27.29.317,proactive3.1,2020.1.2,Win32,60,5f47c29a48bd2a1e651a6eb7,5f47ece295b81824ca8736b6,4,,,,,,crown,,,,,,0,40,40,45,1,5,0,,,,,,,,,,,
,,,,,,,,,,stimuli/images/PICTURE_308.png,KIND,5d4cdc63ec9aa0000112ae43,23/10/1985,2020-08-27_13h27.29.317,proactive3.1,2020.1.2,Win32,60,5f47c29a48bd2a1e651a6eb7,5f47ece295b81824ca8736b6,4,,,,,,dice,,,,,,0,41,41,54,1,6,0,,,,,,,,,,,
,,,,,,,,,,stimuli/images/PICTURE_147.png,MOMENT,5d4cdc63ec9aa0000112ae43,23/10/1985,2020-08-27_13h27.29.317,proactive3.1,2020.1.2,Win32,60,5f47c29a48bd2a1e651a6eb7,5f47ece295b81824ca8736b6,4,,,,,,hanger,,,,,,0,42,42,51,1,6,0,,,,,,,,,,,
,,,,,,,,,,stimuli/images/PICTURE_233.png,WOMEN,5d4cdc63ec9aa0000112ae43,23/10/1985,2020-08-27_13h27.29.317,proactive3.1,2020.1.2,Win32,60,5f47c29a48bd2a1e651a6eb7,5f47ece295b81824ca8736b6,4,,,,,,salt,,,,,,0,43,43,38,1,4,0,,,,,,,,,,,
,,,,,,,,,,stimuli/images/PICTURE_470.png,CASINO,5d4cdc63ec9aa0000112ae43,23/10/1985,2020-08-27_13h27.29.317,proactive3.1,2020.1.2,Win32,60,5f47c29a48bd2a1e651a6eb7,5f47ece295b81824ca8736b6,4,,,,,,motorbike,,,,,,0,44,44,36,1,4,0,,,,,,,,,,,
,,,,,,,,,,stimuli/images/PICTURE_215.png,PLENTY,5d4cdc63ec9aa0000112ae43,23/10/1985,2020-08-27_13h27.29.317,proactive3.1,2020.1.2,Win32,60,5f47c29a48bd2a1e651a6eb7,5f47ece295b81824ca8736b6,4,,,,,,boot,,,,,,0,45,45,37,1,4,0,,,,,,,,,,,
,,,,,,,,,,stimuli/images/PICTURE_285.png,ADVICE,5d4cdc63ec9aa0000112ae43,23/10/1985,2020-08-27_13h27.29.317,proactive3.1,2020.1.2,Win32,60,5f47c29a48bd2a1e651a6eb7,5f47ece295b81824ca8736b6,4,,,,,,carrot,,,,,,0,46,46,12,1,2,0,,,,,,,,,,,
,,,,,,,,,,stimuli/images/PICTURE_314.png,SAKE,5d4cdc63ec9aa0000112ae43,23/10/1985,2020-08-27_13h27.29.317,proactive3.1,2020.1.2,Win32,60,5f47c29a48bd2a1e651a6eb7,5f47ece295b81824ca8736b6,4,,,,,,perfume,,,,,,0,47,47,7,1,1,0,,,,,,,,,,,
,,,,,,,,,,stimuli/images/PICTURE_744.png,SYSTEM,5d4cdc63ec9aa0000112ae43,23/10/1985,2020-08-27_13h27.29.317,proactive3.1,2020.1.2,Win32,60,5f47c29a48bd2a1e651a6eb7,5f47ece295b81824ca8736b6,4,,,,,,ring,,,,,,0,48,48,43,1,5,0,,,,,,,,,,,
,,,,,,,,,,stimuli/images/PICTURE_708.png,YARD,5d4cdc63ec9aa0000112ae43,23/10/1985,2020-08-27_13h27.29.317,proactive3.1,2020.1.2,Win32,60,5f47c29a48bd2a1e651a6eb7,5f47ece295b81824ca8736b6,4,,,,,,monkey,,,,,,0,49,49,29,1,3,0,,,,,,,,,,,
,,,,,,,,,,stimuli/images/PICTURE_208.png,THING,5d4cdc63ec9aa0000112ae43,23/10/1985,2020-08-27_13h27.29.317,proactive3.1,2020.1.2,Win32,60,5f47c29a48bd2a1e651a6eb7,5f47ece295b81824ca8736b6,4,,,,,,microphone,,,,,,0,50,50,47,1,5,0,,,,,,,,,,,
,,,,,,,,,,stimuli/images/PICTURE_688.png,WOMEN,5d4cdc63ec9aa0000112ae43,23/10/1985,2020-08-27_13h27.29.317,proactive3.1,2020.1.2,Win32,60,5f47c29a48bd2a1e651a6eb7,5f47ece295b81824ca8736b6,4,,,,,,runner,,,,,,0,51,51,14,1,2,0,,,,,,,,,,,
,,,,,,,,,,stimuli/images/PICTURE_487.png,FLIGHT,5d4cdc63ec9aa0000112ae43,23/10/1985,2020-08-27_13h27.29.317,proactive3.1,2020.1.2,Win32,60,5f47c29a48bd2a1e651a6eb7,5f47ece295b81824ca8736b6,4,,,,,,basket,,,,,,0,52,52,9,1,1,0,,,,,,,,,,,
,,,,,,,,,,stimuli/images/PICTURE_708.png,PENNY,5d4cdc63ec9aa0000112ae43,23/10/1985,2020-08-27_13h27.29.317,proactive3.1,2020.1.2,Win32,60,5f47c29a48bd2a1e651a6eb7,5f47ece295b81824ca8736b6,4,,,,,,monkey,,,,,,0,53,53,31,1,4,0,,,,,,,,,,,
,,,,,,,,,,stimuli/images/PICTURE_453.png,DUDE,5d4cdc63ec9aa0000112ae43,23/10/1985,2020-08-27_13h27.29.317,proactive3.1,2020.1.2,Win32,60,5f47c29a48bd2a1e651a6eb7,5f47ece295b81824ca8736b6,4,,,,,,scissors,,,,,,0,54,54,27,1,3,0,,,,,,,,,,,
,,,,,,,,,,stimuli/images/PICTURE_675.png,WEAPON,5d4cdc63ec9aa0000112ae43,23/10/1985,2020-08-27_13h27.29.317,proactive3.1,2020.1.2,Win32,60,5f47c29a48bd2a1e651a6eb7,5f47ece295b81824ca8736b6,4,,,,,,windmill,,,,,,0,55,55,32,1,4,0,,,,,,,,,,,
,,,,,,,,,,stimuli/images/PICTURE_311.png,FRIEND,5d4cdc63ec9aa0000112ae43,23/10/1985,2020-08-27_13h27.29.317,proactive3.1,2020.1.2,Win32,60,5f47c29a48bd2a1e651a6eb7,5f47ece295b81824ca8736b6,4,,,,,,razor,,,,,,0,56,56,34,1,4,0,,,,,,,,,,,
,,,,,,,,,,stimuli/images/PICTURE_160.png,FEET,5d4cdc63ec9aa0000112ae43,23/10/1985,2020-08-27_13h27.29.317,proactive3.1,2020.1.2,Win32,60,5f47c29a48bd2a1e651a6eb7,5f47ece295b81824ca8736b6,4,,,,,,wheelbarrow,,,,,,0,57,57,58,1,6,0,,,,,,,,,,,
,,,,,,,,,,stimuli/images/PICTURE_677.png,MILE,5d4cdc63ec9aa0000112ae43,23/10/1985,2020-08-27_13h27.29.317,proactive3.1,2020.1.2,Win32,60,5f47c29a48bd2a1e651a6eb7,5f47ece295b81824ca8736b6,4,,,,,,map,,,,,,0,58,58,30,1,4,0,,,,,,,,,,,
,,?,0.001,0,,,,,,stimuli/images/PICTURE_744.png,SYSTEM,5d4cdc63ec9aa0000112ae43,23/10/1985,2020-08-27_13h27.29.317,proactive3.1,2020.1.2,Win32,60,5f47c29a48bd2a1e651a6eb7,5f47ece295b81824ca8736b6,4,,,,,,ring,,,,,,,,,,,5,0,0,0,0,43,1,,,,,,
,,?,0.001,0,,,,,,stimuli/images/PICTURE_32.png,JUNGLE,5d4cdc63ec9aa0000112ae43,23/10/1985,2020-08-27_13h27.29.317,proactive3.1,2020.1.2,Win32,60,5f47c29a48bd2a1e651a6eb7,5f47ece295b81824ca8736b6,4,,,,,,crown,,,,,,,,,,,5,0,0,1,1,45,1,,,,,,
,,?,0.001,0,,,,,,stimuli/images/PICTURE_491.png,WRITER,5d4cdc63ec9aa0000112ae43,23/10/1985,2020-08-27_13h27.29.317,proactive3.1,2020.1.2,Win32,60,5f47c29a48bd2a1e651a6eb7,5f47ece295b81824ca8736b6,4,,,,,,rug,,,,,,,,,,,6,0,0,2,2,57,1,,,,,,
,,?,0,0,,,,,,stimuli/images/PICTURE_667.png,PLENTY,5d4cdc63ec9aa0000112ae43,23/10/1985,2020-08-27_13h27.29.317,proactive3.1,2020.1.2,Win32,60,5f47c29a48bd2a1e651a6eb7,5f47ece295b81824ca8736b6,4,,,,,,daisy,,,,,,,,,,,5,0,0,3,3,41,1,,,,,,
,,?,0.001,0,,,,,,stimuli/images/PICTURE_487.png,FLIGHT,5d4cdc63ec9aa0000112ae43,23/10/1985,2020-08-27_13h27.29.317,proactive3.1,2020.1.2,Win32,60,5f47c29a48bd2a1e651a6eb7,5f47ece295b81824ca8736b6,4,,,,,,basket,,,,,,,,,,,1,0,0,4,4,9,1,,,,,,
,,MM,15.004,0,,,,,,stimuli/images/PICTURE_677.png,MILE,5d4cdc63ec9aa0000112ae43,23/10/1985,2020-08-27_13h27.29.317,proactive3.1,2020.1.2,Win32,60,5f47c29a48bd2a1e651a6eb7,5f47ece295b81824ca8736b6,4,,,,,,map,,,,,,,,,,,4,0,0,5,5,30,1,,,,,,
,,?,0.001,0,,,,,,stimuli/images/PICTURE_68.png,MILE,5d4cdc63ec9aa0000112ae43,23/10/1985,2020-08-27_13h27.29.317,proactive3.1,2020.1.2,Win32,60,5f47c29a48bd2a1e651a6eb7,5f47ece295b81824ca8736b6,4,,,,,,candle,,,,,,,,,,,5,0,0,6,6,44,1,,,,,,
,,?,0,0,,,,,,stimuli/images/PICTURE_285.png,ADVICE,5d4cdc63ec9aa0000112ae43,23/10/1985,2020-08-27_13h27.29.317,proactive3.1,2020.1.2,Win32,60,5f47c29a48bd2a1e651a6eb7,5f47ece295b81824ca8736b6,4,,,,,,carrot,,,,,,,,,,,2,0,0,7,7,12,1,,,,,,
,,?,0,0,,,,,,stimuli/images/PICTURE_160.png,FEET,5d4cdc63ec9aa0000112ae43,23/10/1985,2020-08-27_13h27.29.317,proactive3.1,2020.1.2,Win32,60,5f47c29a48bd2a1e651a6eb7,5f47ece295b81824ca8736b6,4,,,,,,wheelbarrow,,,,,,,,,,,6,0,0,8,8,58,1,,,,,,
,,?,0.001,0,,,,,,stimuli/images/PICTURE_467.png,DEMON,5d4cdc63ec9aa0000112ae43,23/10/1985,2020-08-27_13h27.29.317,proactive3.1,2020.1.2,Win32,60,5f47c29a48bd2a1e651a6eb7,5f47ece295b81824ca8736b6,4,,,,,,peg,,,,,,,,,,,3,0,0,9,9,23,1,,,,,,
,,?,0,0,,,,,,stimuli/images/PICTURE_708.png,CLIENT,5d4cdc63ec9aa0000112ae43,23/10/1985,2020-08-27_13h27.29.317,proactive3.1,2020.1.2,Win32,60,5f47c29a48bd2a1e651a6eb7,5f47ece295b81824ca8736b6,4,,,,,,monkey,,,,,,,,,,,1,0,0,10,10,5,1,,,,,,
,,?,0.001,0,,,,,,stimuli/images/PICTURE_453.png,PLENTY,5d4cdc63ec9aa0000112ae43,23/10/1985,2020-08-27_13h27.29.317,proactive3.1,2020.1.2,Win32,60,5f47c29a48bd2a1e651a6eb7,5f47ece295b81824ca8736b6,4,,,,,,scissors,,,,,,,,,,,6,0,0,11,11,56,1,,,,,,
,,?,0.001,0,,,,,,stimuli/images/PICTURE_302.png,FAMILY,5d4cdc63ec9aa0000112ae43,23/10/1985,2020-08-27_13h27.29.317,proactive3.1,2020.1.2,Win32,60,5f47c29a48bd2a1e651a6eb7,5f47ece295b81824ca8736b6,4,,,,,,taxi,,,,,,,,,,,2,0,0,12,12,18,1,,,,,,
,,?,0,0,,,,,,stimuli/images/PICTURE_356.png,DANGER,5d4cdc63ec9aa0000112ae43,23/10/1985,2020-08-27_13h27.29.317,proactive3.1,2020.1.2,Win32,60,5f47c29a48bd2a1e651a6eb7,5f47ece295b81824ca8736b6,4,,,,,,pawn,,,,,,,,,,,6,0,0,13,13,55,1,,,,,,
,,?,0.001,0,,,,,,stimuli/images/PICTURE_449.png,THING,5d4cdc63ec9aa0000112ae43,23/10/1985,2020-08-27_13h27.29.317,proactive3.1,2020.1.2,Win32,60,5f47c29a48bd2a1e651a6eb7,5f47ece295b81824ca8736b6,4,,,,,,bench,,,,,,,,,,,6,0,0,14,14,59,1,,,,,,
,,?,0.001,0,,,,,,stimuli/images/PICTURE_208.png,LOTS,5d4cdc63ec9aa0000112ae43,23/10/1985,2020-08-27_13h27.29.317,proactive3.1,2020.1.2,Win32,60,5f47c29a48bd2a1e651a6eb7,5f47ece295b81824ca8736b6,4,,,,,,microphone,,,,,,,,,,,2,0,0,15,15,10,1,,,,,,
,,?,0.001,0,,,,,,stimuli/images/PICTURE_123.png,ADVICE,5d4cdc63ec9aa0000112ae43,23/10/1985,2020-08-27_13h27.29.317,proactive3.1,2020.1.2,Win32,60,5f47c29a48bd2a1e651a6eb7,5f47ece295b81824ca8736b6,4,,,,,,dart,,,,,,,,,,,6,0,0,16,16,50,1,,,,,,
,,?,0.001,0,,,,,,stimuli/images/PICTURE_255.png,AREA,5d4cdc63ec9aa0000112ae43,23/10/1985,2020-08-27_13h27.29.317,proactive3.1,2020.1.2,Win32,60,5f47c29a48bd2a1e651a6eb7,5f47ece295b81824ca8736b6,4,,,,,,shovel,,,,,,,,,,,3,0,0,17,17,22,1,,,,,,
,,T,15.005,0,,,,,,stimuli/images/PICTURE_675.png,WEAPON,5d4cdc63ec9aa0000112ae43,23/10/1985,2020-08-27_13h27.29.317,proactive3.1,2020.1.2,Win32,60,5f47c29a48bd2a1e651a6eb7,5f47ece295b81824ca8736b6,4,,,,,,windmill,,,,,,,,,,,4,0,0,18,18,32,1,,,,,,
,,S,15.017,0,,,,,,stimuli/images/PICTURE_708.png,PENNY,5d4cdc63ec9aa0000112ae43,23/10/1985,2020-08-27_13h27.29.317,proactive3.1,2020.1.2,Win32,60,5f47c29a48bd2a1e651a6eb7,5f47ece295b81824ca8736b6,4,,,,,,monkey,,,,,,,,,,,4,0,0,19,19,31,1,,,,,,
,,?,0.001,0,,,,,,stimuli/images/PICTURE_95.png,STYLE,5d4cdc63ec9aa0000112ae43,23/10/1985,2020-08-27_13h27.29.317,proactive3.1,2020.1.2,Win32,60,5f47c29a48bd2a1e651a6eb7,5f47ece295b81824ca8736b6,4,,,,,,suitcase,,,,,,,,,,,3,0,0,20,20,25,1,,,,,,
,,?,15.01,0,,,,,,stimuli/images/PICTURE_177.png,CARS,5d4cdc63ec9aa0000112ae43,23/10/1985,2020-08-27_13h27.29.317,proactive3.1,2020.1.2,Win32,60,5f47c29a48bd2a1e651a6eb7,5f47ece295b81824ca8736b6,4,,,,,,mushroom,,,,,,,,,,,4,0,0,21,21,35,1,,,,,,
,,?,0.002,0,,,,,,stimuli/images/PICTURE_147.png,MOMENT,5d4cdc63ec9aa0000112ae43,23/10/1985,2020-08-27_13h27.29.317,proactive3.1,2020.1.2,Win32,60,5f47c29a48bd2a1e651a6eb7,5f47ece295b81824ca8736b6,4,,,,,,hanger,,,,,,,,,,,6,0,0,22,22,51,1,,,,,,
,,F,15.013,0,,,,,,stimuli/images/PICTURE_311.png,FRIEND,5d4cdc63ec9aa0000112ae43,23/10/1985,2020-08-27_13h27.29.317,proactive3.1,2020.1.2,Win32,60,5f47c29a48bd2a1e651a6eb7,5f47ece295b81824ca8736b6,4,,,,,,razor,,,,,,,,,,,4,0,0,23,23,34,1,,,,,,
,,?,0.002,0,,,,,,stimuli/images/PICTURE_308.png,KIND,5d4cdc63ec9aa0000112ae43,23/10/1985,2020-08-27_13h27.29.317,proactive3.1,2020.1.2,Win32,60,5f47c29a48bd2a1e651a6eb7,5f47ece295b81824ca8736b6,4,,,,,,dice,,,,,,,,,,,6,0,0,24,24,54,1,,,,,,
,,?,0.001,0,,,,,,stimuli/images/PICTURE_160.png,LEADER,5d4cdc63ec9aa0000112ae43,23/10/1985,2020-08-27_13h27.29.317,proactive3.1,2020.1.2,Win32,60,5f47c29a48bd2a1e651a6eb7,5f47ece295b81824ca8736b6,4,,,,,,wheelbarrow,,,,,,,,,,,1,0,0,25,25,3,1,,,,,,
,,?,0.001,0,,,,,,stimuli/images/PICTURE_744.png,SAKE,5d4cdc63ec9aa0000112ae43,23/10/1985,2020-08-27_13h27.29.317,proactive3.1,2020.1.2,Win32,60,5f47c29a48bd2a1e651a6eb7,5f47ece295b81824ca8736b6,4,,,,,,ring,,,,,,,,,,,2,0,0,26,26,17,1,,,,,,
,,?,0.001,0,,,,,,stimuli/images/PICTURE_380.png,PHOTO,5d4cdc63ec9aa0000112ae43,23/10/1985,2020-08-27_13h27.29.317,proactive3.1,2020.1.2,Win32,60,5f47c29a48bd2a1e651a6eb7,5f47ece295b81824ca8736b6,4,,,,,,gorilla,,,,,,,,,,,6,0,0,27,27,52,1,,,,,,
,,?,0.001,0,,,,,,stimuli/images/PICTURE_708.png,YARD,5d4cdc63ec9aa0000112ae43,23/10/1985,2020-08-27_13h27.29.317,proactive3.1,2020.1.2,Win32,60,5f47c29a48bd2a1e651a6eb7,5f47ece295b81824ca8736b6,4,,,,,,monkey,,,,,,,,,,,3,0,0,28,28,29,1,,,,,,
,,?,0,0,,,,,,stimuli/images/PICTURE_504.png,BODY,5d4cdc63ec9aa0000112ae43,23/10/1985,2020-08-27_13h27.29.317,proactive3.1,2020.1.2,Win32,60,5f47c29a48bd2a1e651a6eb7,5f47ece295b81824ca8736b6,4,,,,,,wheel,,,,,,,,,,,1,0,0,29,29,8,1,,,,,,
,,?,0.002,0,,,,,,stimuli/images/PICTURE_692.png,MONTH,5d4cdc63ec9aa0000112ae43,23/10/1985,2020-08-27_13h27.29.317,proactive3.1,2020.1.2,Win32,60,5f47c29a48bd2a1e651a6eb7,5f47ece295b81824ca8736b6,4,,,,,,cherry,,,,,,,,,,,2,0,0,30,30,16,1,,,,,,
,,?,0.001,0,,,,,,stimuli/images/PICTURE_469.png,ARTIST,5d4cdc63ec9aa0000112ae43,23/10/1985,2020-08-27_13h27.29.317,proactive3.1,2020.1.2,Win32,60,5f47c29a48bd2a1e651a6eb7,5f47ece295b81824ca8736b6,4,,,,,,stool,,,,,,,,,,,1,0,0,31,31,6,1,,,,,,
,,?,0.001,0,,,,,,stimuli/images/PICTURE_233.png,IDEAS,5d4cdc63ec9aa0000112ae43,23/10/1985,2020-08-27_13h27.29.317,proactive3.1,2020.1.2,Win32,60,5f47c29a48bd2a1e651a6eb7,5f47ece295b81824ca8736b6,4,,,,,,salt,,,,,,,,,,,3,0,0,32,32,28,1,,,,,,
,,?,0,0,,,,,,stimuli/images/PICTURE_348.png,SPEECH,5d4cdc63ec9aa0000112ae43,23/10/1985,2020-08-27_13h27.29.317,proactive3.1,2020.1.2,Win32,60,5f47c29a48bd2a1e651a6eb7,5f47ece295b81824ca8736b6,4,,,,,,pepper,,,,,,,,,,,3,0,0,33,33,20,1,,,,,,
,,?,0.001,0,,,,,,stimuli/images/PICTURE_453.png,DUDE,5d4cdc63ec9aa0000112ae43,23/10/1985,2020-08-27_13h27.29.317,proactive3.1,2020.1.2,Win32,60,5f47c29a48bd2a1e651a6eb7,5f47ece295b81824ca8736b6,4,,,,,,scissors,,,,,,,,,,,3,0,0,34,34,27,1,,,,,,
,,?,0.006,0,,,,,,stimuli/images/PICTURE_123.png,ADVICE,5d4cdc63ec9aa0000112ae43,23/10/1985,2020-08-27_13h27.29.317,proactive3.1,2020.1.2,Win32,60,5f47c29a48bd2a1e651a6eb7,5f47ece295b81824ca8736b6,4,,,,,,dart,,,,,,,,,,,5,0,0,35,35,40,1,,,,,,
,,?,0.001,0,,,,,,stimuli/images/PICTURE_654.png,VALLEY,5d4cdc63ec9aa0000112ae43,23/10/1985,2020-08-27_13h27.29.317,proactive3.1,2020.1.2,Win32,60,5f47c29a48bd2a1e651a6eb7,5f47ece295b81824ca8736b6,4,,,,,,pencil,,,,,,,,,,,1,0,0,36,36,1,1,,,,,,
,,?,0.001,0,,,,,,stimuli/images/PICTURE_491.png,ROOF,5d4cdc63ec9aa0000112ae43,23/10/1985,2020-08-27_13h27.29.317,proactive3.1,2020.1.2,Win32,60,5f47c29a48bd2a1e651a6eb7,5f47ece295b81824ca8736b6,4,,,,,,rug,,,,,,,,,,,3,0,0,37,37,24,1,,,,,,
,,?,0,0,,,,,,stimuli/images/PICTURE_509.png,PHOTO,5d4cdc63ec9aa0000112ae43,23/10/1985,2020-08-27_13h27.29.317,proactive3.1,2020.1.2,Win32,60,5f47c29a48bd2a1e651a6eb7,5f47ece295b81824ca8736b6,4,,,,,,telephone,,,,,,,,,,,3,0,0,38,38,21,1,,,,,,
,,SY,15.006,0,,,,,,stimuli/images/PICTURE_488.png,STYLE,5d4cdc63ec9aa0000112ae43,23/10/1985,2020-08-27_13h27.29.317,proactive3.1,2020.1.2,Win32,60,5f47c29a48bd2a1e651a6eb7,5f47ece295b81824ca8736b6,4,,,,,,sun,,,,,,,,,,,4,0,0,39,39,33,1,,,,,,
,,?,0.002,0,,,,,,stimuli/images/PICTURE_667.png,BATH,5d4cdc63ec9aa0000112ae43,23/10/1985,2020-08-27_13h27.29.317,proactive3.1,2020.1.2,Win32,60,5f47c29a48bd2a1e651a6eb7,5f47ece295b81824ca8736b6,4,,,,,,daisy,,,,,,,,,,,1,0,0,40,40,4,1,,,,,,
,,F,15.013,0,,,,,,stimuli/images/PICTURE_470.png,CASINO,5d4cdc63ec9aa0000112ae43,23/10/1985,2020-08-27_13h27.29.317,proactive3.1,2020.1.2,Win32,60,5f47c29a48bd2a1e651a6eb7,5f47ece295b81824ca8736b6,4,,,,,,motorbike,,,,,,,,,,,4,0,0,41,41,36,1,,,,,,
,,D,15.001,0,,,,,,stimuli/images/PICTURE_248.png,DOZEN,5d4cdc63ec9aa0000112ae43,23/10/1985,2020-08-27_13h27.29.317,proactive3.1,2020.1.2,Win32,60,5f47c29a48bd2a1e651a6eb7,5f47ece295b81824ca8736b6,4,,,,,,cart,,,,,,,,,,,4,0,0,42,42,39,1,,,,,,
,,?,0.002,0,,,,,,stimuli/images/PICTURE_314.png,GODS,5d4cdc63ec9aa0000112ae43,23/10/1985,2020-08-27_13h27.29.317,proactive3.1,2020.1.2,Win32,60,5f47c29a48bd2a1e651a6eb7,5f47ece295b81824ca8736b6,4,,,,,,perfume,,,,,,,,,,,2,0,0,43,43,11,1,,,,,,
,,?,0,0,,,,,,stimuli/images/PICTURE_469.png,LETTER,5d4cdc63ec9aa0000112ae43,23/10/1985,2020-08-27_13h27.29.317,proactive3.1,2020.1.2,Win32,60,5f47c29a48bd2a1e651a6eb7,5f47ece295b81824ca8736b6,4,,,,,,stool,,,,,,,,,,,5,0,0,44,44,42,1,,,,,,
,,?,0,0,,,,,,stimuli/images/PICTURE_688.png,WOMEN,5d4cdc63ec9aa0000112ae43,23/10/1985,2020-08-27_13h27.29.317,proactive3.1,2020.1.2,Win32,60,5f47c29a48bd2a1e651a6eb7,5f47ece295b81824ca8736b6,4,,,,,,runner,,,,,,,,,,,2,0,0,45,45,14,1,,,,,,
,,?,0.001,0,,,,,,stimuli/images/PICTURE_85.png,THING,5d4cdc63ec9aa0000112ae43,23/10/1985,2020-08-27_13h27.29.317,proactive3.1,2020.1.2,Win32,60,5f47c29a48bd2a1e651a6eb7,5f47ece295b81824ca8736b6,4,,,,,,diamond,,,,,,,,,,,2,0,0,46,46,15,1,,,,,,
,,?,0.001,0,,,,,,stimuli/images/PICTURE_208.png,MONTH,5d4cdc63ec9aa0000112ae43,23/10/1985,2020-08-27_13h27.29.317,proactive3.1,2020.1.2,Win32,60,5f47c29a48bd2a1e651a6eb7,5f47ece295b81824ca8736b6,4,,,,,,microphone,,,,,,,,,,,6,0,0,47,47,53,1,,,,,,
,,?,0.001,0,,,,,,stimuli/images/PICTURE_327.png,BEAUTY,5d4cdc63ec9aa0000112ae43,23/10/1985,2020-08-27_13h27.29.317,proactive3.1,2020.1.2,Win32,60,5f47c29a48bd2a1e651a6eb7,5f47ece295b81824ca8736b6,4,,,,,,helmet,,,,,,,,,,,5,0,0,48,48,48,1,,,,,,
,,?,0.001,0,,,,,,stimuli/images/PICTURE_311.png,BEAUTY,5d4cdc63ec9aa0000112ae43,23/10/1985,2020-08-27_13h27.29.317,proactive3.1,2020.1.2,Win32,60,5f47c29a48bd2a1e651a6eb7,5f47ece295b81824ca8736b6,4,,,,,,razor,,,,,,,,,,,2,0,0,49,49,13,1,,,,,,
,,?,0.001,0,,,,,,stimuli/images/PICTURE_314.png,SAKE,5d4cdc63ec9aa0000112ae43,23/10/1985,2020-08-27_13h27.29.317,proactive3.1,2020.1.2,Win32,60,5f47c29a48bd2a1e651a6eb7,5f47ece295b81824ca8736b6,4,,,,,,perfume,,,,,,,,,,,1,0,0,50,50,7,1,,,,,,
,,?,0.001,0,,,,,,stimuli/images/PICTURE_688.png,CASINO,5d4cdc63ec9aa0000112ae43,23/10/1985,2020-08-27_13h27.29.317,proactive3.1,2020.1.2,Win32,60,5f47c29a48bd2a1e651a6eb7,5f47ece295b81824ca8736b6,4,,,,,,runner,,,,,,,,,,,1,0,0,51,51,2,1,,,,,,
,,?,0,0,,,,,,stimuli/images/PICTURE_308.png,ESTATE,5d4cdc63ec9aa0000112ae43,23/10/1985,2020-08-27_13h27.29.317,proactive3.1,2020.1.2,Win32,60,5f47c29a48bd2a1e651a6eb7,5f47ece295b81824ca8736b6,4,,,,,,dice,,,,,,,,,,,5,0,0,52,52,46,1,,,,,,
,,?,0.001,0,,,,,,stimuli/images/PICTURE_339.png,PLENTY,5d4cdc63ec9aa0000112ae43,23/10/1985,2020-08-27_13h27.29.317,proactive3.1,2020.1.2,Win32,60,5f47c29a48bd2a1e651a6eb7,5f47ece295b81824ca8736b6,4,,,,,,backpack,,,,,,,,,,,1,0,0,53,53,0,1,,,,,,
,,?,0.001,0,,,,,,stimuli/images/PICTURE_151.png,GIRL,5d4cdc63ec9aa0000112ae43,23/10/1985,2020-08-27_13h27.29.317,proactive3.1,2020.1.2,Win32,60,5f47c29a48bd2a1e651a6eb7,5f47ece295b81824ca8736b6,4,,,,,,tray,,,,,,,,,,,2,0,0,54,54,19,1,,,,,,
,,C,15.01,0,,,,,,stimuli/images/PICTURE_215.png,PLENTY,5d4cdc63ec9aa0000112ae43,23/10/1985,2020-08-27_13h27.29.317,proactive3.1,2020.1.2,Win32,60,5f47c29a48bd2a1e651a6eb7,5f47ece295b81824ca8736b6,4,,,,,,boot,,,,,,,,,,,4,0,0,55,55,37,1,,,,,,
,,?,0.001,0,,,,,,stimuli/images/PICTURE_380.png,DEATH,5d4cdc63ec9aa0000112ae43,23/10/1985,2020-08-27_13h27.29.317,proactive3.1,2020.1.2,Win32,60,5f47c29a48bd2a1e651a6eb7,5f47ece295b81824ca8736b6,4,,,,,,gorilla,,,,,,,,,,,5,0,0,56,56,49,1,,,,,,
,,?,0.001,0,,,,,,stimuli/images/PICTURE_203.png,ARTIST,5d4cdc63ec9aa0000112ae43,23/10/1985,2020-08-27_13h27.29.317,proactive3.1,2020.1.2,Win32,60,5f47c29a48bd2a1e651a6eb7,5f47ece295b81824ca8736b6,4,,,,,,cap,,,,,,,,,,,3,0,0,57,57,26,1,,,,,,
,,C,15.651,0,,,,,,stimuli/images/PICTURE_233.png,WOMEN,5d4cdc63ec9aa0000112ae43,23/10/1985,2020-08-27_13h27.29.317,proactive3.1,2020.1.2,Win32,60,5f47c29a48bd2a1e651a6eb7,5f47ece295b81824ca8736b6,4,,,,,,salt,,,,,,,,,,,4,0,0,58,58,38,1,,,,,,
,,?,0.001,0,,,,,,stimuli/images/PICTURE_208.png,THING,5d4cdc63ec9aa0000112ae43,23/10/1985,2020-08-27_13h27.29.317,proactive3.1,2020.1.2,Win32,60,5f47c29a48bd2a1e651a6eb7,5f47ece295b81824ca8736b6,4,,,,,,microphone,,,,,,,,,,,5,0,0,59,59,47,1,,,,,,
,,,,,,,,,,,,5d4cdc63ec9aa0000112ae43,23/10/1985,2020-08-27_13h27.29.317,proactive3.1,2020.1.2,Win32,60,5f47c29a48bd2a1e651a6eb7,5f47ece295b81824ca8736b6,4,,,,,,,,,,,,,,,,,,,,,,,,0,0,0,0,1,stimuli/learn-block1.csv
,,,,,,,,,,stimuli/images/PICTURE_2.png,FLIGHT,5d4cdc63ec9aa0000112ae43,23/10/1985,2020-08-27_13h27.29.317,proactive3.1,2020.1.2,Win32,60,5f47c29a48bd2a1e651a6eb7,5f47ece295b81824ca8736b6,4,,,,,,tyre,,,,,,0,0,0,15,1,2,1,,,,,,,,,,,
,,,,,,,,,,stimuli/images/PICTURE_85.png,NATION,5d4cdc63ec9aa0000112ae43,23/10/1985,2020-08-27_13h27.29.317,proactive3.1,2020.1.2,Win32,60,5f47c29a48bd2a1e651a6eb7,5f47ece295b81824ca8736b6,4,,,,,,diamond,,,,,,0,1,1,5,1,1,1,,,,,,,,,,,
,,,,,,,,,,stimuli/images/PICTURE_203.png,NIGHT,5d4cdc63ec9aa0000112ae43,23/10/1985,2020-08-27_13h27.29.317,proactive3.1,2020.1.2,Win32,60,5f47c29a48bd2a1e651a6eb7,5f47ece295b81824ca8736b6,4,,,,,,cap,,,,,,0,2,2,2,1,1,1,,,,,,,,,,,
,,,,,,,,,,stimuli/images/PICTURE_708.png,RECORD,5d4cdc63ec9aa0000112ae43,23/10/1985,2020-08-27_13h27.29.317,proactive3.1,2020.1.2,Win32,60,5f47c29a48bd2a1e651a6eb7,5f47ece295b81824ca8736b6,4,,,,,,monkey,,,,,,0,3,3,58,1,6,1,,,,,,,,,,,
,,,,,,,,,,stimuli/images/PICTURE_57.png,MOMENT,5d4cdc63ec9aa0000112ae43,23/10/1985,2020-08-27_13h27.29.317,proactive3.1,2020.1.2,Win32,60,5f47c29a48bd2a1e651a6eb7,5f47ece295b81824ca8736b6,4,,,,,,stamp,,,,,,0,4,4,37,1,4,1,,,,,,,,,,,
,,,,,,,,,,stimuli/images/PICTURE_95.png,BOYS,5d4cdc63ec9aa0000112ae43,23/10/1985,2020-08-27_13h27.29.317,proactive3.1,2020.1.2,Win32,60,5f47c29a48bd2a1e651a6eb7,5f47ece295b81824ca8736b6,4,,,,,,suitcase,,,,,,0,5,5,1,1,1,1,,,,,,,,,,,
,,,,,,,,,,stimuli/images/PICTURE_750.png,HOTEL,5d4cdc63ec9aa0000112ae43,23/10/1985,2020-08-27_13h27.29.317,proactive3.1,2020.1.2,Win32,60,5f47c29a48bd2a1e651a6eb7,5f47ece295b81824ca8736b6,4,,,,,,kettle,,,,,,0,6,6,27,1,3,1,,,,,,,,,,,
,,,,,,,,,,stimuli/images/PICTURE_327.png,CASINO,5d4cdc63ec9aa0000112ae43,23/10/1985,2020-08-27_13h27.29.317,proactive3.1,2020.1.2,Win32,60,5f47c29a48bd2a1e651a6eb7,5f47ece295b81824ca8736b6,4,,,,,,helmet,,,,,,0,7,7,20,1,3,1,,,,,,,,,,,
,,,,,,,,,,stimuli/images/PICTURE_95.png,MILLER,5d4cdc63ec9aa0000112ae43,23/10/1985,2020-08-27_13h27.29.317,proactive3.1,2020.1.2,Win32,60,5f47c29a48bd2a1e651a6eb7,5f47ece295b81824ca8736b6,4,,,,,,suitcase,,,,,,0,8,8,56,1,6,1,,,,,,,,,,,
,,,,,,,,,,stimuli/images/PICTURE_405.png,PLENTY,5d4cdc63ec9aa0000112ae43,23/10/1985,2020-08-27_13h27.29.317,proactive3.1,2020.1.2,Win32,60,5f47c29a48bd2a1e651a6eb7,5f47ece295b81824ca8736b6,4,,,,,,anchor,,,,,,0,9,9,23,1,3,1,,,,,,,,,,,
,,,,,,,,,,stimuli/images/PICTURE_685.png,PENNY,5d4cdc63ec9aa0000112ae43,23/10/1985,2020-08-27_13h27.29.317,proactive3.1,2020.1.2,Win32,60,5f47c29a48bd2a1e651a6eb7,5f47ece295b81824ca8736b6,4,,,,,,goose,,,,,,0,10,10,4,1,1,1,,,,,,,,,,,
,,,,,,,,,,stimuli/images/PICTURE_147.png,WOMEN,5d4cdc63ec9aa0000112ae43,23/10/1985,2020-08-27_13h27.29.317,proactive3.1,2020.1.2,Win32,60,5f47c29a48bd2a1e651a6eb7,5f47ece295b81824ca8736b6,4,,,,,,hanger,,,,,,0,11,11,7,1,1,1,,,,,,,,,,,
,,,,,,,,,,stimuli/images/PICTURE_564.png,BATH,5d4cdc63ec9aa0000112ae43,23/10/1985,2020-08-27_13h27.29.317,proactive3.1,2020.1.2,Win32,60,5f47c29a48bd2a1e651a6eb7,5f47ece295b81824ca8736b6,4,,,,,,spoon,,,,,,0,12,12,26,1,3,1,,,,,,,,,,,
,,,,,,,,,,stimuli/images/PICTURE_403.png,RIVER,5d4cdc63ec9aa0000112ae43,23/10/1985,2020-08-27_13h27.29.317,proactive3.1,2020.1.2,Win32,60,5f47c29a48bd2a1e651a6eb7,5f47ece295b81824ca8736b6,4,,,,,,cathedral,,,,,,0,13,13,40,1,5,1,,,,,,,,,,,
,,,,,,,,,,stimuli/images/PICTURE_491.png,RIVER,5d4cdc63ec9aa0000112ae43,23/10/1985,2020-08-27_13h27.29.317,proactive3.1,2020.1.2,Win32,60,5f47c29a48bd2a1e651a6eb7,5f47ece295b81824ca8736b6,4,,,,,,rug,,,,,,0,14,14,6,1,1,1,,,,,,,,,,,
,,,,,,,,,,stimuli/images/PICTURE_403.png,WRITER,5d4cdc63ec9aa0000112ae43,23/10/1985,2020-08-27_13h27.29.317,proactive3.1,2020.1.2,Win32,60,5f47c29a48bd2a1e651a6eb7,5f47ece295b81824ca8736b6,4,,,,,,cathedral,,,,,,0,15,15,31,1,4,1,,,,,,,,,,,
,,,,,,,,,,stimuli/images/PICTURE_68.png,MILE,5d4cdc63ec9aa0000112ae43,23/10/1985,2020-08-27_13h27.29.317,proactive3.1,2020.1.2,Win32,60,5f47c29a48bd2a1e651a6eb7,5f47ece295b81824ca8736b6,4,,,,,,candle,,,,,,0,16,16,51,1,6,1,,,,,,,,,,,
,,,,,,,,,,stimuli/images/PICTURE_296.png,LOTS,5d4cdc63ec9aa0000112ae43,23/10/1985,2020-08-27_13h27.29.317,proactive3.1,2020.1.2,Win32,60,5f47c29a48bd2a1e651a6eb7,5f47ece295b81824ca8736b6,4,,,,,,bolt,,,,,,0,17,17,9,1,1,1,,,,,,,,,,,
,,,,,,,,,,stimuli/images/PICTURE_177.png,WRITER,5d4cdc63ec9aa0000112ae43,23/10/1985,2020-08-27_13h27.29.317,proactive3.1,2020.1.2,Win32,60,5f47c29a48bd2a1e651a6eb7,5f47ece295b81824ca8736b6,4,,,,,,mushroom,,,,,,0,18,18,41,1,5,1,,,,,,,,,,,
,,,,,,,,,,stimuli/images/PICTURE_487.png,GIRL,5d4cdc63ec9aa0000112ae43,23/10/1985,2020-08-27_13h27.29.317,proactive3.1,2020.1.2,Win32,60,5f47c29a48bd2a1e651a6eb7,5f47ece295b81824ca8736b6,4,,,,,,basket,,,,,,0,19,19,45,1,5,1,,,,,,,,,,,
,,,,,,,,,,stimuli/images/PICTURE_108.png,FLIGHT,5d4cdc63ec9aa0000112ae43,23/10/1985,2020-08-27_13h27.29.317,proactive3.1,2020.1.2,Win32,60,5f47c29a48bd2a1e651a6eb7,5f47ece295b81824ca8736b6,4,,,,,,calendar,,,,,,0,20,20,59,1,6,1,,,,,,,,,,,
,,,,,,,,,,stimuli/images/PICTURE_383.png,WRITER,5d4cdc63ec9aa0000112ae43,23/10/1985,2020-08-27_13h27.29.317,proactive3.1,2020.1.2,Win32,60,5f47c29a48bd2a1e651a6eb7,5f47ece295b81824ca8736b6,4,,,,,,coin,,,,,,0,21,21,28,1,3,1,,,,,,,,,,,
,,,,,,,,,,stimuli/images/PICTURE_203.png,GODS,5d4cdc63ec9aa0000112ae43,23/10/1985,2020-08-27_13h27.29.317,proactive3.1,2020.1.2,Win32,60,5f47c29a48bd2a1e651a6eb7,5f47ece295b81824ca8736b6,4,,,,,,cap,,,,,,0,22,22,30,1,4,1,,,,,,,,,,,
,,,,,,,,,,stimuli/images/PICTURE_677.png,APPLE,5d4cdc63ec9aa0000112ae43,23/10/1985,2020-08-27_13h27.29.317,proactive3.1,2020.1.2,Win32,60,5f47c29a48bd2a1e651a6eb7,5f47ece295b81824ca8736b6,4,,,,,,map,,,,,,0,23,23,43,1,5,1,,,,,,,,,,,
,,,,,,,,,,stimuli/images/PICTURE_654.png,MONTH,5d4cdc63ec9aa0000112ae43,23/10/1985,2020-08-27_13h27.29.317,proactive3.1,2020.1.2,Win32,60,5f47c29a48bd2a1e651a6eb7,5f47ece295b81824ca8736b6,4,,,,,,pencil,,,,,,0,24,24,29,1,3,1,,,,,,,,,,,
,,,,,,,,,,stimuli/images/PICTURE_449.png,DUDE,5d4cdc63ec9aa0000112ae43,23/10/1985,2020-08-27_13h27.29.317,proactive3.1,2020.1.2,Win32,60,5f47c29a48bd2a1e651a6eb7,5f47ece295b81824ca8736b6,4,,,,,,bench,,,,,,0,25,25,17,1,2,1,,,,,,,,,,,
,,,,,,,,,,stimuli/images/PICTURE_108.png,POLICY,5d4cdc63ec9aa0000112ae43,23/10/1985,2020-08-27_13h27.29.317,proactive3.1,2020.1.2,Win32,60,5f47c29a48bd2a1e651a6eb7,5f47ece295b81824ca8736b6,4,,,,,,calendar,,,,,,0,26,26,22,1,3,1,,,,,,,,,,,
,,,,,,,,,,stimuli/images/PICTURE_467.png,POLICY,5d4cdc63ec9aa0000112ae43,23/10/1985,2020-08-27_13h27.29.317,proactive3.1,2020.1.2,Win32,60,5f47c29a48bd2a1e651a6eb7,5f47ece295b81824ca8736b6,4,,,,,,peg,,,,,,0,27,27,53,1,6,1,,,,,,,,,,,
,,,,,,,,,,stimuli/images/PICTURE_744.png,WEAPON,5d4cdc63ec9aa0000112ae43,23/10/1985,2020-08-27_13h27.29.317,proactive3.1,2020.1.2,Win32,60,5f47c29a48bd2a1e651a6eb7,5f47ece295b81824ca8736b6,4,,,,,,ring,,,,,,0,28,28,50,1,6,1,,,,,,,,,,,
,,,,,,,,,,stimuli/images/PICTURE_469.png,AGENT,5d4cdc63ec9aa0000112ae43,23/10/1985,2020-08-27_13h27.29.317,proactive3.1,2020.1.2,Win32,60,5f47c29a48bd2a1e651a6eb7,5f47ece295b81824ca8736b6,4,,,,,,stool,,,,,,0,29,29,16,1,2,1,,,,,,,,,,,
,,,,,,,,,,stimuli/images/PICTURE_32.png,KIND,5d4cdc63ec9aa0000112ae43,23/10/1985,2020-08-27_13h27.29.317,proactive3.1,2020.1.2,Win32,60,5f47c29a48bd2a1e651a6eb7,5f47ece295b81824ca8736b6,4,,,,,,crown,,,,,,0,30,30,35,1,4,1,,,,,,,,,,,
,,,,,,,,,,stimuli/images/PICTURE_504.png,YEAR,5d4cdc63ec9aa0000112ae43,23/10/1985,2020-08-27_13h27.29.317,proactive3.1,2020.1.2,Win32,60,5f47c29a48bd2a1e651a6eb7,5f47ece295b81824ca8736b6,4,,,,,,wheel,,,,,,0,31,31,13,1,2,1,,,,,,,,,,,
,,,,,,,,,,stimuli/images/PICTURE_296.png,LIFE,5d4cdc63ec9aa0000112ae43,23/10/1985,2020-08-27_13h27.29.317,proactive3.1,2020.1.2,Win32,60,5f47c29a48bd2a1e651a6eb7,5f47ece295b81824ca8736b6,4,,,,,,bolt,,,,,,0,32,32,57,1,6,1,,,,,,,,,,,
,,,,,,,,,,stimuli/images/PICTURE_380.png,CANDY,5d4cdc63ec9aa0000112ae43,23/10/1985,2020-08-27_13h27.29.317,proactive3.1,2020.1.2,Win32,60,5f47c29a48bd2a1e651a6eb7,5f47ece295b81824ca8736b6,4,,,,,,gorilla,,,,,,0,33,33,0,1,1,1,,,,,,,,,,,
,,,,,,,,,,stimuli/images/PICTURE_297.png,RIVER,5d4cdc63ec9aa0000112ae43,23/10/1985,2020-08-27_13h27.29.317,proactive3.1,2020.1.2,Win32,60,5f47c29a48bd2a1e651a6eb7,5f47ece295b81824ca8736b6,4,,,,,,aeroplane,,,,,,0,34,34,39,1,4,1,,,,,,,,,,,
,,,,,,,,,,stimuli/images/PICTURE_68.png,ROOF,5d4cdc63ec9aa0000112ae43,23/10/1985,2020-08-27_13h27.29.317,proactive3.1,2020.1.2,Win32,60,5f47c29a48bd2a1e651a6eb7,5f47ece295b81824ca8736b6,4,,,,,,candle,,,,,,0,35,35,38,1,4,1,,,,,,,,,,,
,,,,,,,,,,stimuli/images/PICTURE_339.png,CLIENT,5d4cdc63ec9aa0000112ae43,23/10/1985,2020-08-27_13h27.29.317,proactive3.1,2020.1.2,Win32,60,5f47c29a48bd2a1e651a6eb7,5f47ece295b81824ca8736b6,4,,,,,,backpack,,,,,,0,36,36,11,1,2,1,,,,,,,,,,,
,,,,,,,,,,stimuli/images/PICTURE_340.png,LETTER,5d4cdc63ec9aa0000112ae43,23/10/1985,2020-08-27_13h27.29.317,proactive3.1,2020.1.2,Win32,60,5f47c29a48bd2a1e651a6eb7,5f47ece295b81824ca8736b6,4,,,,,,mirror,,,,,,0,37,37,24,1,3,1,,,,,,,,,,,
,,,,,,,,,,stimuli/images/PICTURE_32.png,PILLS,5d4cdc63ec9aa0000112ae43,23/10/1985,2020-08-27_13h27.29.317,proactive3.1,2020.1.2,Win32,60,5f47c29a48bd2a1e651a6eb7,5f47ece295b81824ca8736b6,4,,,,,,crown,,,,,,0,38,38,18,1,2,1,,,,,,,,,,,
,,,,,,,,,,stimuli/images/PICTURE_405.png,YEAR,5d4cdc63ec9aa0000112ae43,23/10/1985,2020-08-27_13h27.29.317,proactive3.1,2020.1.2,Win32,60,5f47c29a48bd2a1e651a6eb7,5f47ece295b81824ca8736b6,4,,,,,,anchor,,,,,,0,39,39,34,1,4,1,,,,,,,,,,,
,,,,,,,,,,stimuli/images/PICTURE_285.png,LIFE,5d4cdc63ec9aa0000112ae43,23/10/1985,2020-08-27_13h27.29.317,proactive3.1,2020.1.2,Win32,60,5f47c29a48bd2a1e651a6eb7,5f47ece295b81824ca8736b6,4,,,,,,carrot,,,,,,0,40,40,33,1,4,1,,,,,,,,,,,
,,,,,,,,,,stimuli/images/PICTURE_675.png,SALE,5d4cdc63ec9aa0000112ae43,23/10/1985,2020-08-27_13h27.29.317,proactive3.1,2020.1.2,Win32,60,5f47c29a48bd2a1e651a6eb7,5f47ece295b81824ca8736b6,4,,,,,,windmill,,,,,,0,41,41,47,1,5,1,,,,,,,,,,,
,,,,,,,,,,stimuli/images/PICTURE_33.png,FRIEND,5d4cdc63ec9aa0000112ae43,23/10/1985,2020-08-27_13h27.29.317,proactive3.1,2020.1.2,Win32,60,5f47c29a48bd2a1e651a6eb7,5f47ece295b81824ca8736b6,4,,,,,,frame,,,,,,0,42,42,8,1,1,1,,,,,,,,,,,
,,,,,,,,,,stimuli/images/PICTURE_233.png,LOTS,5d4cdc63ec9aa0000112ae43,23/10/1985,2020-08-27_13h27.29.317,proactive3.1,2020.1.2,Win32,60,5f47c29a48bd2a1e651a6eb7,5f47ece295b81824ca8736b6,4,,,,,,salt,,,,,,0,43,43,42,1,5,1,,,,,,,,,,,
,,,,,,,,,,stimuli/images/PICTURE_327.png,SERIES,5d4cdc63ec9aa0000112ae43,23/10/1985,2020-08-27_13h27.29.317,proactive3.1,2020.1.2,Win32,60,5f47c29a48bd2a1e651a6eb7,5f47ece295b81824ca8736b6,4,,,,,,helmet,,,,,,0,44,44,3,1,1,1,,,,,,,,,,,
,,,,,,,,,,stimuli/images/PICTURE_403.png,TOILET,5d4cdc63ec9aa0000112ae43,23/10/1985,2020-08-27_13h27.29.317,proactive3.1,2020.1.2,Win32,60,5f47c29a48bd2a1e651a6eb7,5f47ece295b81824ca8736b6,4,,,,,,cathedral,,,,,,0,45,45,25,1,3,1,,,,,,,,,,,
,,,,,,,,,,stimuli/images/PICTURE_504.png,ARTIST,5d4cdc63ec9aa0000112ae43,23/10/1985,2020-08-27_13h27.29.317,proactive3.1,2020.1.2,Win32,60,5f47c29a48bd2a1e651a6eb7,5f47ece295b81824ca8736b6,4,,,,,,wheel,,,,,,0,46,46,49,1,5,1,,,,,,,,,,,
,,,,,,,,,,stimuli/images/PICTURE_308.png,FAMILY,5d4cdc63ec9aa0000112ae43,23/10/1985,2020-08-27_13h27.29.317,proactive3.1,2020.1.2,Win32,60,5f47c29a48bd2a1e651a6eb7,5f47ece295b81824ca8736b6,4,,,,,,dice,,,,,,0,47,47,36,1,4,1,,,,,,,,,,,
,,,,,,,,,,stimuli/images/PICTURE_340.png,VALLEY,5d4cdc63ec9aa0000112ae43,23/10/1985,2020-08-27_13h27.29.317,proactive3.1,2020.1.2,Win32,60,5f47c29a48bd2a1e651a6eb7,5f47ece295b81824ca8736b6,4,,,,,,mirror,,,,,,0,48,48,54,1,6,1,,,,,,,,,,,
,,,,,,,,,,stimuli/images/PICTURE_383.png,SERIES,5d4cdc63ec9aa0000112ae43,23/10/1985,2020-08-27_13h27.29.317,proactive3.1,2020.1.2,Win32,60,5f47c29a48bd2a1e651a6eb7,5f47ece295b81824ca8736b6,4,,,,,,coin,,,,,,0,49,49,46,1,5,1,,,,,,,,,,,
,,,,,,,,,,stimuli/images/PICTURE_147.png,YEAR,5d4cdc63ec9aa0000112ae43,23/10/1985,2020-08-27_13h27.29.317,proactive3.1,2020.1.2,Win32,60,5f47c29a48bd2a1e651a6eb7,5f47ece295b81824ca8736b6,4,,,,,,hanger,,,,,,0,50,50,21,1,3,1,,,,,,,,,,,
,,,,,,,,,,stimuli/images/PICTURE_208.png,SYSTEM,5d4cdc63ec9aa0000112ae43,23/10/1985,2020-08-27_13h27.29.317,proactive3.1,2020.1.2,Win32,60,5f47c29a48bd2a1e651a6eb7,5f47ece295b81824ca8736b6,4,,,,,,microphone,,,,,,0,51,51,32,1,4,1,,,,,,,,,,,
,,,,,,,,,,stimuli/images/PICTURE_655.png,TOILET,5d4cdc63ec9aa0000112ae43,23/10/1985,2020-08-27_13h27.29.317,proactive3.1,2020.1.2,Win32,60,5f47c29a48bd2a1e651a6eb7,5f47ece295b81824ca8736b6,4,,,,,,megaphone,,,,,,0,52,52,12,1,2,1,,,,,,,,,,,
,,,,,,,,,,stimuli/images/PICTURE_667.png,RIVER,5d4cdc63ec9aa0000112ae43,23/10/1985,2020-08-27_13h27.29.317,proactive3.1,2020.1.2,Win32,60,5f47c29a48bd2a1e651a6eb7,5f47ece295b81824ca8736b6,4,,,,,,daisy,,,,,,0,53,53,10,1,2,1,,,,,,,,,,,
,,,,,,,,,,stimuli/images/PICTURE_95.png,HONEY,5d4cdc63ec9aa0000112ae43,23/10/1985,2020-08-27_13h27.29.317,proactive3.1,2020.1.2,Win32,60,5f47c29a48bd2a1e651a6eb7,5f47ece295b81824ca8736b6,4,,,,,,suitcase,,,,,,0,54,54,44,1,5,1,,,,,,,,,,,
,,,,,,,,,,stimuli/images/PICTURE_42.png,BOYS,5d4cdc63ec9aa0000112ae43,23/10/1985,2020-08-27_13h27.29.317,proactive3.1,2020.1.2,Win32,60,5f47c29a48bd2a1e651a6eb7,5f47ece295b81824ca8736b6,4,,,,,,pear,,,,,,0,55,55,55,1,6,1,,,,,,,,,,,
,,,,,,,,,,stimuli/images/PICTURE_491.png,GLASS,5d4cdc63ec9aa0000112ae43,23/10/1985,2020-08-27_13h27.29.317,proactive3.1,2020.1.2,Win32,60,5f47c29a48bd2a1e651a6eb7,5f47ece295b81824ca8736b6,4,,,,,,rug,,,,,,0,56,56,14,1,2,1,,,,,,,,,,,
,,,,,,,,,,stimuli/images/PICTURE_380.png,HONEY,5d4cdc63ec9aa0000112ae43,23/10/1985,2020-08-27_13h27.29.317,proactive3.1,2020.1.2,Win32,60,5f47c29a48bd2a1e651a6eb7,5f47ece295b81824ca8736b6,4,,,,,,gorilla,,,,,,0,57,57,19,1,2,1,,,,,,,,,,,
,,,,,,,,,,stimuli/images/PICTURE_504.png,COPS,5d4cdc63ec9aa0000112ae43,23/10/1985,2020-08-27_13h27.29.317,proactive3.1,2020.1.2,Win32,60,5f47c29a48bd2a1e651a6eb7,5f47ece295b81824ca8736b6,4,,,,,,wheel,,,,,,0,58,58,52,1,6,1,,,,,,,,,,,
,,?,0.002,0,,,,,,stimuli/images/PICTURE_296.png,LOTS,5d4cdc63ec9aa0000112ae43,23/10/1985,2020-08-27_13h27.29.317,proactive3.1,2020.1.2,Win32,60,5f47c29a48bd2a1e651a6eb7,5f47ece295b81824ca8736b6,4,,,,,,bolt,,,,,,,,,,,1,1,0,0,0,9,1,,,,,,
,,?,0.001,0,,,,,,stimuli/images/PICTURE_655.png,TOILET,5d4cdc63ec9aa0000112ae43,23/10/1985,2020-08-27_13h27.29.317,proactive3.1,2020.1.2,Win32,60,5f47c29a48bd2a1e651a6eb7,5f47ece295b81824ca8736b6,4,,,,,,megaphone,,,,,,,,,,,2,1,0,1,1,12,1,,,,,,
,,?,0.001,0,,,,,,stimuli/images/PICTURE_380.png,HONEY,5d4cdc63ec9aa0000112ae43,23/10/1985,2020-08-27_13h27.29.317,proactive3.1,2020.1.2,Win32,60,5f47c29a48bd2a1e651a6eb7,5f47ece295b81824ca8736b6,4,,,,,,gorilla,,,,,,,,,,,2,1,0,2,2,19,1,,,,,,
,,?,0,0,,,,,,stimuli/images/PICTURE_296.png,LIFE,5d4cdc63ec9aa0000112ae43,23/10/1985,2020-08-27_13h27.29.317,proactive3.1,2020.1.2,Win32,60,5f47c29a48bd2a1e651a6eb7,5f47ece295b81824ca8736b6,4,,,,,,bolt,,,,,,,,,,,6,1,0,3,3,57,1,,,,,,
,,?,0,0,,,,,,stimuli/images/PICTURE_108.png,POLICY,5d4cdc63ec9aa0000112ae43,23/10/1985,2020-08-27_13h27.29.317,proactive3.1,2020.1.2,Win32,60,5f47c29a48bd2a1e651a6eb7,5f47ece295b81824ca8736b6,4,,,,,,calendar,,,,,,,,,,,3,1,0,4,4,22,1,,,,,,
,,?,0.001,0,,,,,,stimuli/images/PICTURE_469.png,AGENT,5d4cdc63ec9aa0000112ae43,23/10/1985,2020-08-27_13h27.29.317,proactive3.1,2020.1.2,Win32,60,5f47c29a48bd2a1e651a6eb7,5f47ece295b81824ca8736b6,4,,,,,,stool,,,,,,,,,,,2,1,0,5,5,16,1,,,,,,
,,?,0,0,,,,,,stimuli/images/PICTURE_383.png,WRITER,5d4cdc63ec9aa0000112ae43,23/10/1985,2020-08-27_13h27.29.317,proactive3.1,2020.1.2,Win32,60,5f47c29a48bd2a1e651a6eb7,5f47ece295b81824ca8736b6,4,,,,,,coin,,,,,,,,,,,3,1,0,6,6,28,1,,,,,,
,,?,0.001,0,,,,,,stimuli/images/PICTURE_564.png,BATH,5d4cdc63ec9aa0000112ae43,23/10/1985,2020-08-27_13h27.29.317,proactive3.1,2020.1.2,Win32,60,5f47c29a48bd2a1e651a6eb7,5f47ece295b81824ca8736b6,4,,,,,,spoon,,,,,,,,,,,3,1,0,7,7,26,1,,,,,,
,,K,15.014,0,,,,,,stimuli/images/PICTURE_32.png,KIND,5d4cdc63ec9aa0000112ae43,23/10/1985,2020-08-27_13h27.29.317,proactive3.1,2020.1.2,Win32,60,5f47c29a48bd2a1e651a6eb7,5f47ece295b81824ca8736b6,4,,,,,,crown,,,,,,,,,,,4,1,0,8,8,35,1,,,,,,
,,?,0.001,0,,,,,,stimuli/images/PICTURE_744.png,WEAPON,5d4cdc63ec9aa0000112ae43,23/10/1985,2020-08-27_13h27.29.317,proactive3.1,2020.1.2,Win32,60,5f47c29a48bd2a1e651a6eb7,5f47ece295b81824ca8736b6,4,,,,,,ring,,,,,,,,,,,6,1,0,9,9,50,1,,,,,,
,,?,0.001,0,,,,,,stimuli/images/PICTURE_327.png,SERIES,5d4cdc63ec9aa0000112ae43,23/10/1985,2020-08-27_13h27.29.317,proactive3.1,2020.1.2,Win32,60,5f47c29a48bd2a1e651a6eb7,5f47ece295b81824ca8736b6,4,,,,,,helmet,,,,,,,,,,,1,1,0,10,10,3,1,,,,,,
,,?,0,0,,,,,,stimuli/images/PICTURE_85.png,TOILET,5d4cdc63ec9aa0000112ae43,23/10/1985,2020-08-27_13h27.29.317,proactive3.1,2020.1.2,Win32,60,5f47c29a48bd2a1e651a6eb7,5f47ece295b81824ca8736b6,4,,,,,,diamond,,,,,,,,,,,5,1,0,11,11,48,1,,,,,,
,,Y,15.011,0,,,,,,stimuli/images/PICTURE_405.png,YEAR,5d4cdc63ec9aa0000112ae43,23/10/1985,2020-08-27_13h27.29.317,proactive3.1,2020.1.2,Win32,60,5f47c29a48bd2a1e651a6eb7,5f47ece295b81824ca8736b6,4,,,,,,anchor,,,,,,,,,,,4,1,0,12,12,34,1,,,,,,
,,?,0.002,0,,,,,,stimuli/images/PICTURE_108.png,FLIGHT,5d4cdc63ec9aa0000112ae43,23/10/1985,2020-08-27_13h27.29.317,proactive3.1,2020.1.2,Win32,60,5f47c29a48bd2a1e651a6eb7,5f47ece295b81824ca8736b6,4,,,,,,calendar,,,,,,,,,,,6,1,0,13,13,59,1,,,,,,
,,?,0.001,0,,,,,,stimuli/images/PICTURE_675.png,SALE,5d4cdc63ec9aa0000112ae43,23/10/1985,2020-08-27_13h27.29.317,proactive3.1,2020.1.2,Win32,60,5f47c29a48bd2a1e651a6eb7,5f47ece295b81824ca8736b6,4,,,,,,windmill,,,,,,,,,,,5,1,0,14,14,47,1,,,,,,
,,?,0.001,0,,,,,,stimuli/images/PICTURE_491.png,RIVER,5d4cdc63ec9aa0000112ae43,23/10/1985,2020-08-27_13h27.29.317,proactive3.1,2020.1.2,Win32,60,5f47c29a48bd2a1e651a6eb7,5f47ece295b81824ca8736b6,4,,,,,,rug,,,,,,,,,,,1,1,0,15,15,6,1,,,,,,
,,?,0.001,0,,,,,,stimuli/images/PICTURE_95.png,HONEY,5d4cdc63ec9aa0000112ae43,23/10/1985,2020-08-27_13h27.29.317,proactive3.1,2020.1.2,Win32,60,5f47c29a48bd2a1e651a6eb7,5f47ece295b81824ca8736b6,4,,,,,,suitcase,,,,,,,,,,,5,1,0,16,16,44,1,,,,,,
,,?,0.001,0,,,,,,stimuli/images/PICTURE_233.png,LOTS,5d4cdc63ec9aa0000112ae43,23/10/1985,2020-08-27_13h27.29.317,proactive3.1,2020.1.2,Win32,60,5f47c29a48bd2a1e651a6eb7,5f47ece295b81824ca8736b6,4,,,,,,salt,,,,,,,,,,,5,1,0,17,17,42,1,,,,,,
,,?,0.001,0,,,,,,stimuli/images/PICTURE_380.png,CANDY,5d4cdc63ec9aa0000112ae43,23/10/1985,2020-08-27_13h27.29.317,proactive3.1,2020.1.2,Win32,60,5f47c29a48bd2a1e651a6eb7,5f47ece295b81824ca8736b6,4,,,,,,gorilla,,,,,,,,,,,1,1,0,18,18,0,1,,,,,,
,,?,0.001,0,,,,,,stimuli/images/PICTURE_340.png,VALLEY,5d4cdc63ec9aa0000112ae43,23/10/1985,2020-08-27_13h27.29.317,proactive3.1,2020.1.2,Win32,60,5f47c29a48bd2a1e651a6eb7,5f47ece295b81824ca8736b6,4,,,,,,mirror,,,,,,,,,,,6,1,0,19,19,54,1,,,,,,
,,?,0.002,0,,,,,,stimuli/images/PICTURE_68.png,MILE,5d4cdc63ec9aa0000112ae43,23/10/1985,2020-08-27_13h27.29.317,proactive3.1,2020.1.2,Win32,60,5f47c29a48bd2a1e651a6eb7,5f47ece295b81824ca8736b6,4,,,,,,candle,,,,,,,,,,,6,1,0,20,20,51,1,,,,,,
,,?,0.001,0,,,,,,stimuli/images/PICTURE_340.png,LETTER,5d4cdc63ec9aa0000112ae43,23/10/1985,2020-08-27_13h27.29.317,proactive3.1,2020.1.2,Win32,60,5f47c29a48bd2a1e651a6eb7,5f47ece295b81824ca8736b6,4,,,,,,mirror,,,,,,,,,,,3,1,0,21,21,24,1,,,,,,
,,G,15.058,0,,,,,,stimuli/images/PICTURE_203.png,GODS,5d4cdc63ec9aa0000112ae43,23/10/1985,2020-08-27_13h27.29.317,proactive3.1,2020.1.2,Win32,60,5f47c29a48bd2a1e651a6eb7,5f47ece295b81824ca8736b6,4,,,,,,cap,,,,,,,,,,,4,1,0,22,22,30,1,,,,,,
,,?,5.871,0,,,,,,stimuli/images/PICTURE_308.png,FAMILY,5d4cdc63ec9aa0000112ae43,23/10/1985,2020-08-27_13h27.29.317,proactive3.1,2020.1.2,Win32,60,5f47c29a48bd2a1e651a6eb7,5f47ece295b81824ca8736b6,4,,,,,,dice,,,,,,,,,,,4,1,0,23,23,36,1,,,,,,
,,F,15.439,0,,,,,,stimuli/images/PICTURE_403.png,WRITER,5d4cdc63ec9aa0000112ae43,23/10/1985,2020-08-27_13h27.29.317,proactive3.1,2020.1.2,Win32,60,5f47c29a48bd2a1e651a6eb7,5f47ece295b81824ca8736b6,4,,,,,,cathedral,,,,,,,,,,,4,1,0,24,24,31,1,,,,,,
,,?,0.001,0,,,,,,stimuli/images/PICTURE_405.png,PLENTY,5d4cdc63ec9aa0000112ae43,23/10/1985,2020-08-27_13h27.29.317,proactive3.1,2020.1.2,Win32,60,5f47c29a48bd2a1e651a6eb7,5f47ece295b81824ca8736b6,4,,,,,,anchor,,,,,,,,,,,3,1,0,25,25,23,1,,,,,,
,,?,0.002,0,,,,,,stimuli/images/PICTURE_449.png,DUDE,5d4cdc63ec9aa0000112ae43,23/10/1985,2020-08-27_13h27.29.317,proactive3.1,2020.1.2,Win32,60,5f47c29a48bd2a1e651a6eb7,5f47ece295b81824ca8736b6,4,,,,,,bench,,,,,,,,,,,2,1,0,26,26,17,1,,,,,,
,,?,0.001,0,,,,,,stimuli/images/PICTURE_467.png,POLICY,5d4cdc63ec9aa0000112ae43,23/10/1985,2020-08-27_13h27.29.317,proactive3.1,2020.1.2,Win32,60,5f47c29a48bd2a1e651a6eb7,5f47ece295b81824ca8736b6,4,,,,,,peg,,,,,,,,,,,6,1,0,27,27,53,1,,,,,,
,,?,0.001,0,,,,,,stimuli/images/PICTURE_403.png,RIVER,5d4cdc63ec9aa0000112ae43,23/10/1985,2020-08-27_13h27.29.317,proactive3.1,2020.1.2,Win32,60,5f47c29a48bd2a1e651a6eb7,5f47ece295b81824ca8736b6,4,,,,,,cathedral,,,,,,,,,,,5,1,0,28,28,40,1,,,,,,
,,?,0.001,0,,,,,,stimuli/images/PICTURE_383.png,SERIES,5d4cdc63ec9aa0000112ae43,23/10/1985,2020-08-27_13h27.29.317,proactive3.1,2020.1.2,Win32,60,5f47c29a48bd2a1e651a6eb7,5f47ece295b81824ca8736b6,4,,,,,,coin,,,,,,,,,,,5,1,0,29,29,46,1,,,,,,
,,?,0.002,0,,,,,,stimuli/images/PICTURE_708.png,RECORD,5d4cdc63ec9aa0000112ae43,23/10/1985,2020-08-27_13h27.29.317,proactive3.1,2020.1.2,Win32,60,5f47c29a48bd2a1e651a6eb7,5f47ece295b81824ca8736b6,4,,,,,,monkey,,,,,,,,,,,6,1,0,30,30,58,1,,,,,,
,,?,0.002,0,,,,,,stimuli/images/PICTURE_85.png,NATION,5d4cdc63ec9aa0000112ae43,23/10/1985,2020-08-27_13h27.29.317,proactive3.1,2020.1.2,Win32,60,5f47c29a48bd2a1e651a6eb7,5f47ece295b81824ca8736b6,4,,,,,,diamond,,,,,,,,,,,1,1,0,31,31,5,1,,,,,,
,,?,0,0,,,,,,stimuli/images/PICTURE_504.png,ARTIST,5d4cdc63ec9aa0000112ae43,23/10/1985,2020-08-27_13h27.29.317,proactive3.1,2020.1.2,Win32,60,5f47c29a48bd2a1e651a6eb7,5f47ece295b81824ca8736b6,4,,,,,,wheel,,,,,,,,,,,5,1,0,32,32,49,1,,,,,,
,,?,0.001,0,,,,,,stimuli/images/PICTURE_750.png,HOTEL,5d4cdc63ec9aa0000112ae43,23/10/1985,2020-08-27_13h27.29.317,proactive3.1,2020.1.2,Win32,60,5f47c29a48bd2a1e651a6eb7,5f47ece295b81824ca8736b6,4,,,,,,kettle,,,,,,,,,,,3,1,0,33,33,27,1,,,,,,
,,?,0.001,0,,,,,,stimuli/images/PICTURE_654.png,MONTH,5d4cdc63ec9aa0000112ae43,23/10/1985,2020-08-27_13h27.29.317,proactive3.1,2020.1.2,Win32,60,5f47c29a48bd2a1e651a6eb7,5f47ece295b81824ca8736b6,4,,,,,,pencil,,,,,,,,,,,3,1,0,34,34,29,1,,,,,,
,,?,8.81,0,,,,,,stimuli/images/PICTURE_285.png,LIFE,5d4cdc63ec9aa0000112ae43,23/10/1985,2020-08-27_13h27.29.317,proactive3.1,2020.1.2,Win32,60,5f47c29a48bd2a1e651a6eb7,5f47ece295b81824ca8736b6,4,,,,,,carrot,,,,,,,,,,,4,1,0,35,35,33,1,,,,,,
,,?,0,0,,,,,,stimuli/images/PICTURE_667.png,RIVER,5d4cdc63ec9aa0000112ae43,23/10/1985,2020-08-27_13h27.29.317,proactive3.1,2020.1.2,Win32,60,5f47c29a48bd2a1e651a6eb7,5f47ece295b81824ca8736b6,4,,,,,,daisy,,,,,,,,,,,2,1,0,36,36,10,1,,,,,,
,,D,15.01,0,,,,,,stimuli/images/PICTURE_297.png,RIVER,5d4cdc63ec9aa0000112ae43,23/10/1985,2020-08-27_13h27.29.317,proactive3.1,2020.1.2,Win32,60,5f47c29a48bd2a1e651a6eb7,5f47ece295b81824ca8736b6,4,,,,,,aeroplane,,,,,,,,,,,4,1,0,37,37,39,1,,,,,,
,,?,0.002,0,,,,,,stimuli/images/PICTURE_403.png,TOILET,5d4cdc63ec9aa0000112ae43,23/10/1985,2020-08-27_13h27.29.317,proactive3.1,2020.1.2,Win32,60,5f47c29a48bd2a1e651a6eb7,5f47ece295b81824ca8736b6,4,,,,,,cathedral,,,,,,,,,,,3,1,0,38,38,25,1,,,,,,
,,B,15.013,0,,,,,,stimuli/images/PICTURE_208.png,SYSTEM,5d4cdc63ec9aa0000112ae43,23/10/1985,2020-08-27_13h27.29.317,proactive3.1,2020.1.2,Win32,60,5f47c29a48bd2a1e651a6eb7,5f47ece295b81824ca8736b6,4,,,,,,microphone,,,,,,,,,,,4,1,0,39,39,32,1,,,,,,
,,?,0.001,0,,,,,,stimuli/images/PICTURE_95.png,BOYS,5d4cdc63ec9aa0000112ae43,23/10/1985,2020-08-27_13h27.29.317,proactive3.1,2020.1.2,Win32,60,5f47c29a48bd2a1e651a6eb7,5f47ece295b81824ca8736b6,4,,,,,,suitcase,,,,,,,,,,,1,1,0,40,40,1,1,,,,,,
,,?,0.001,0,,,,,,stimuli/images/PICTURE_487.png,GIRL,5d4cdc63ec9aa0000112ae43,23/10/1985,2020-08-27_13h27.29.317,proactive3.1,2020.1.2,Win32,60,5f47c29a48bd2a1e651a6eb7,5f47ece295b81824ca8736b6,4,,,,,,basket,,,,,,,,,,,5,1,0,41,41,45,1,,,,,,
,,?,0.001,0,,,,,,stimuli/images/PICTURE_42.png,BOYS,5d4cdc63ec9aa0000112ae43,23/10/1985,2020-08-27_13h27.29.317,proactive3.1,2020.1.2,Win32,60,5f47c29a48bd2a1e651a6eb7,5f47ece295b81824ca8736b6,4,,,,,,pear,,,,,,,,,,,6,1,0,42,42,55,1,,,,,,
,,?,0.001,0,,,,,,stimuli/images/PICTURE_504.png,COPS,5d4cdc63ec9aa0000112ae43,23/10/1985,2020-08-27_13h27.29.317,proactive3.1,2020.1.2,Win32,60,5f47c29a48bd2a1e651a6eb7,5f47ece295b81824ca8736b6,4,,,,,,wheel,,,,,,,,,,,6,1,0,43,43,52,1,,,,,,
,,?,0,0,,,,,,stimuli/images/PICTURE_2.png,FLIGHT,5d4cdc63ec9aa0000112ae43,23/10/1985,2020-08-27_13h27.29.317,proactive3.1,2020.1.2,Win32,60,5f47c29a48bd2a1e651a6eb7,5f47ece295b81824ca8736b6,4,,,,,,tyre,,,,,,,,,,,2,1,0,44,44,15,1,,,,,,
,,?,0.001,0,,,,,,stimuli/images/PICTURE_177.png,WRITER,5d4cdc63ec9aa0000112ae43,23/10/1985,2020-08-27_13h27.29.317,proactive3.1,2020.1.2,Win32,60,5f47c29a48bd2a1e651a6eb7,5f47ece295b81824ca8736b6,4,,,,,,mushroom,,,,,,,,,,,5,1,0,45,45,41,1,,,,,,
,,?,0.001,0,,,,,,stimuli/images/PICTURE_677.png,APPLE,5d4cdc63ec9aa0000112ae43,23/10/1985,2020-08-27_13h27.29.317,proactive3.1,2020.1.2,Win32,60,5f47c29a48bd2a1e651a6eb7,5f47ece295b81824ca8736b6,4,,,,,,map,,,,,,,,,,,5,1,0,46,46,43,1,,,,,,
,,?,0.001,0,,,,,,stimuli/images/PICTURE_33.png,FRIEND,5d4cdc63ec9aa0000112ae43,23/10/1985,2020-08-27_13h27.29.317,proactive3.1,2020.1.2,Win32,60,5f47c29a48bd2a1e651a6eb7,5f47ece295b81824ca8736b6,4,,,,,,frame,,,,,,,,,,,1,1,0,47,47,8,1,,,,,,
,,?,0.001,0,,,,,,stimuli/images/PICTURE_491.png,GLASS,5d4cdc63ec9aa0000112ae43,23/10/1985,2020-08-27_13h27.29.317,proactive3.1,2020.1.2,Win32,60,5f47c29a48bd2a1e651a6eb7,5f47ece295b81824ca8736b6,4,,,,,,rug,,,,,,,,,,,2,1,0,48,48,14,1,,,,,,
,,?,0.001,0,,,,,,stimuli/images/PICTURE_504.png,YEAR,5d4cdc63ec9aa0000112ae43,23/10/1985,2020-08-27_13h27.29.317,proactive3.1,2020.1.2,Win32,60,5f47c29a48bd2a1e651a6eb7,5f47ece295b81824ca8736b6,4,,,,,,wheel,,,,,,,,,,,2,1,0,49,49,13,1,,,,,,
,,?,0.001,0,,,,,,stimuli/images/PICTURE_147.png,YEAR,5d4cdc63ec9aa0000112ae43,23/10/1985,2020-08-27_13h27.29.317,proactive3.1,2020.1.2,Win32,60,5f47c29a48bd2a1e651a6eb7,5f47ece295b81824ca8736b6,4,,,,,,hanger,,,,,,,,,,,3,1,0,50,50,21,1,,,,,,
,,?,0,0,,,,,,stimuli/images/PICTURE_203.png,NIGHT,5d4cdc63ec9aa0000112ae43,23/10/1985,2020-08-27_13h27.29.317,proactive3.1,2020.1.2,Win32,60,5f47c29a48bd2a1e651a6eb7,5f47ece295b81824ca8736b6,4,,,,,,cap,,,,,,,,,,,1,1,0,51,51,2,1,,,,,,
,,?,0.001,0,,,,,,stimuli/images/PICTURE_327.png,CASINO,5d4cdc63ec9aa0000112ae43,23/10/1985,2020-08-27_13h27.29.317,proactive3.1,2020.1.2,Win32,60,5f47c29a48bd2a1e651a6eb7,5f47ece295b81824ca8736b6,4,,,,,,helmet,,,,,,,,,,,3,1,0,52,52,20,1,,,,,,
,,?,0.001,0,,,,,,stimuli/images/PICTURE_339.png,CLIENT,5d4cdc63ec9aa0000112ae43,23/10/1985,2020-08-27_13h27.29.317,proactive3.1,2020.1.2,Win32,60,5f47c29a48bd2a1e651a6eb7,5f47ece295b81824ca8736b6,4,,,,,,backpack,,,,,,,,,,,2,1,0,53,53,11,1,,,,,,
,,?,0.002,0,,,,,,stimuli/images/PICTURE_32.png,PILLS,5d4cdc63ec9aa0000112ae43,23/10/1985,2020-08-27_13h27.29.317,proactive3.1,2020.1.2,Win32,60,5f47c29a48bd2a1e651a6eb7,5f47ece295b81824ca8736b6,4,,,,,,crown,,,,,,,,,,,2,1,0,54,54,18,1,,,,,,
,,?,0.002,0,,,,,,stimuli/images/PICTURE_147.png,WOMEN,5d4cdc63ec9aa0000112ae43,23/10/1985,2020-08-27_13h27.29.317,proactive3.1,2020.1.2,Win32,60,5f47c29a48bd2a1e651a6eb7,5f47ece295b81824ca8736b6,4,,,,,,hanger,,,,,,,,,,,1,1,0,55,55,7,1,,,,,,
,,?,0.001,0,,,,,,stimuli/images/PICTURE_95.png,MILLER,5d4cdc63ec9aa0000112ae43,23/10/1985,2020-08-27_13h27.29.317,proactive3.1,2020.1.2,Win32,60,5f47c29a48bd2a1e651a6eb7,5f47ece295b81824ca8736b6,4,,,,,,suitcase,,,,,,,,,,,6,1,0,56,56,56,1,,,,,,
,,S,15.007,0,,,,,,stimuli/images/PICTURE_57.png,MOMENT,5d4cdc63ec9aa0000112ae43,23/10/1985,2020-08-27_13h27.29.317,proactive3.1,2020.1.2,Win32,60,5f47c29a48bd2a1e651a6eb7,5f47ece295b81824ca8736b6,4,,,,,,stamp,,,,,,,,,,,4,1,0,57,57,37,1,,,,,,
,,C,15.001,0,,,,,,stimuli/images/PICTURE_68.png,ROOF,5d4cdc63ec9aa0000112ae43,23/10/1985,2020-08-27_13h27.29.317,proactive3.1,2020.1.2,Win32,60,5f47c29a48bd2a1e651a6eb7,5f47ece295b81824ca8736b6,4,,,,,,candle,,,,,,,,,,,4,1,0,58,58,38,1,,,,,,
,,?,0.002,0,,,,,,stimuli/images/PICTURE_685.png,PENNY,5d4cdc63ec9aa0000112ae43,23/10/1985,2020-08-27_13h27.29.317,proactive3.1,2020.1.2,Win32,60,5f47c29a48bd2a1e651a6eb7,5f47ece295b81824ca8736b6,4,,,,,,goose,,,,,,,,,,,1,1,0,59,59,4,1,,,,,,
,,,,,,,,,,,,5d4cdc63ec9aa0000112ae43,23/10/1985,2020-08-27_13h27.29.317,proactive3.1,2020.1.2,Win32,60,5f47c29a48bd2a1e651a6eb7,5f47ece295b81824ca8736b6,4,,,,,,,,,,,,,,,,,,,,,,,,0,1,1,1,1,stimuli/learn-block2.csv
,,,,,,,,,,stimuli/images/PICTURE_452.png,COPS,5d4cdc63ec9aa0000112ae43,23/10/1985,2020-08-27_13h27.29.317,proactive3.1,2020.1.2,Win32,60,5f47c29a48bd2a1e651a6eb7,5f47ece295b81824ca8736b6,4,,,,,,watch,,,,,,0,0,0,0,1,1,2,,,,,,,,,,,
,,,,,,,,,,stimuli/images/PICTURE_509.png,BATH,5d4cdc63ec9aa0000112ae43,23/10/1985,2020-08-27_13h27.29.317,proactive3.1,2020.1.2,Win32,60,5f47c29a48bd2a1e651a6eb7,5f47ece295b81824ca8736b6,4,,,,,,telephone,,,,,,0,1,1,15,1,2,2,,,,,,,,,,,
,,,,,,,,,,stimuli/images/PICTURE_215.png,BOYS,5d4cdc63ec9aa0000112ae43,23/10/1985,2020-08-27_13h27.29.317,proactive3.1,2020.1.2,Win32,60,5f47c29a48bd2a1e651a6eb7,5f47ece295b81824ca8736b6,4,,,,,,boot,,,,,,0,2,2,24,1,3,2,,,,,,,,,,,
,,,,,,,,,,stimuli/images/PICTURE_311.png,TOILET,5d4cdc63ec9aa0000112ae43,23/10/1985,2020-08-27_13h27.29.317,proactive3.1,2020.1.2,Win32,60,5f47c29a48bd2a1e651a6eb7,5f47ece295b81824ca8736b6,4,,,,,,razor,,,,,,0,3,3,54,1,6,2,,,,,,,,,,,
,,,,,,,,,,stimuli/images/PICTURE_487.png,ROOF,5d4cdc63ec9aa0000112ae43,23/10/1985,2020-08-27_13h27.29.317,proactive3.1,2020.1.2,Win32,60,5f47c29a48bd2a1e651a6eb7,5f47ece295b81824ca8736b6,4,,,,,,basket,,,,,,0,4,4,50,1,6,2,,,,,,,,,,,
,,,,,,,,,,stimuli/images/PICTURE_403.png,FAMILY,5d4cdc63ec9aa0000112ae43,23/10/1985,2020-08-27_13h27.29.317,proactive3.1,2020.1.2,Win32,60,5f47c29a48bd2a1e651a6eb7,5f47ece295b81824ca8736b6,4,,,,,,cathedral,,,,,,0,5,5,9,1,1,2,,,,,,,,,,,
,,,,,,,,,,stimuli/images/PICTURE_509.png,APPLE,5d4cdc63ec9aa0000112ae43,23/10/1985,2020-08-27_13h27.29.317,proactive3.1,2020.1.2,Win32,60,5f47c29a48bd2a1e651a6eb7,5f47ece295b81824ca8736b6,4,,,,,,telephone,,,,,,0,6,6,38,1,4,2,,,,,,,,,,,
,,,,,,,,,,stimuli/images/PICTURE_33.png,COPS,5d4cdc63ec9aa0000112ae43,23/10/1985,2020-08-27_13h27.29.317,proactive3.1,2020.1.2,Win32,60,5f47c29a48bd2a1e651a6eb7,5f47ece295b81824ca8736b6,4,,,,,,frame,,,,,,0,7,7,29,1,3,2,,,,,,,,,,,
,,,,,,,,,,stimuli/images/PICTURE_285.png,WRITER,5d4cdc63ec9aa0000112ae43,23/10/1985,2020-08-27_13h27.29.317,proactive3.1,2020.1.2,Win32,60,5f47c29a48bd2a1e651a6eb7,5f47ece295b81824ca8736b6,4,,,,,,carrot,,,,,,0,8,8,6,1,1,2,,,,,,,,,,,
,,,,,,,,,,stimuli/images/PICTURE_470.png,MOMENT,5d4cdc63ec9aa0000112ae43,23/10/1985,2020-08-27_13h27.29.317,proactive3.1,2020.1.2,Win32,60,5f47c29a48bd2a1e651a6eb7,5f47ece295b81824ca8736b6,4,,,,,,motorbike,,,,,,0,9,9,40,1,5,2,,,,,,,,,,,
,,,,,,,,,,stimuli/images/PICTURE_405.png,JUNGLE,5d4cdc63ec9aa0000112ae43,23/10/1985,2020-08-27_13h27.29.317,proactive3.1,2020.1.2,Win32,60,5f47c29a48bd2a1e651a6eb7,5f47ece295b81824ca8736b6,4,,,,,,anchor,,,,,,0,10,10,58,1,6,2,,,,,,,,,,,
,,,,,,,,,,stimuli/images/PICTURE_405.png,HOUSE,5d4cdc63ec9aa0000112ae43,23/10/1985,2020-08-27_13h27.29.317,proactive3.1,2020.1.2,Win32,60,5f47c29a48bd2a1e651a6eb7,5f47ece295b81824ca8736b6,4,,,,,,anchor,,,,,,0,11,11,2,1,1,2,,,,,,,,,,,
,,,,,,,,,,stimuli/images/PICTURE_147.png,LEADER,5d4cdc63ec9aa0000112ae43,23/10/1985,2020-08-27_13h27.29.317,proactive3.1,2020.1.2,Win32,60,5f47c29a48bd2a1e651a6eb7,5f47ece295b81824ca8736b6,4,,,,,,hanger,,,,,,0,12,12,33,1,4,2,,,,,,,,,,,
,,,,,,,,,,stimuli/images/PICTURE_32.png,LETTER,5d4cdc63ec9aa0000112ae43,23/10/1985,2020-08-27_13h27.29.317,proactive3.1,2020.1.2,Win32,60,5f47c29a48bd2a1e651a6eb7,5f47ece295b81824ca8736b6,4,,,,,,crown,,,,,,0,13,13,56,1,6,2,,,,,,,,,,,
,,,,,,,,,,stimuli/images/PICTURE_564.png,PLENTY,5d4cdc63ec9aa0000112ae43,23/10/1985,2020-08-27_13h27.29.317,proactive3.1,2020.1.2,Win32,60,5f47c29a48bd2a1e651a6eb7,5f47ece295b81824ca8736b6,4,,,,,,spoon,,,,,,0,14,14,11,1,2,2,,,,,,,,,,,
,,,,,,,,,,stimuli/images/PICTURE_654.png,YEAR,5d4cdc63ec9aa0000112ae43,23/10/1985,2020-08-27_13h27.29.317,proactive3.1,2020.1.2,Win32,60,5f47c29a48bd2a1e651a6eb7,5f47ece295b81824ca8736b6,4,,,,,,pencil,,,,,,0,15,15,41,1,5,2,,,,,,,,,,,
,,,,,,,,,,stimuli/images/PICTURE_141.png,CLIENT,5d4cdc63ec9aa0000112ae43,23/10/1985,2020-08-27_13h27.29.317,proactive3.1,2020.1.2,Win32,60,5f47c29a48bd2a1e651a6eb7,5f47ece295b81824ca8736b6,4,,,,,,sunflower,,,,,,0,16,16,30,1,4,2,,,,,,,,,,,
,,,,,,,,,,stimuli/images/PICTURE_314.png,SPEECH,5d4cdc63ec9aa0000112ae43,23/10/1985,2020-08-27_13h27.29.317,proactive3.1,2020.1.2,Win32,60,5f47c29a48bd2a1e651a6eb7,5f47ece295b81824ca8736b6,4,,,,,,perfume,,,,,,0,17,17,35,1,4,2,,,,,,,,,,,
,,,,,,,,,,stimuli/images/PICTURE_95.png,NIGHT,5d4cdc63ec9aa0000112ae43,23/10/1985,2020-08-27_13h27.29.317,proactive3.1,2020.1.2,Win32,60,5f47c29a48bd2a1e651a6eb7,5f47ece295b81824ca8736b6,4,,,,,,suitcase,,,,,,0,18,18,37,1,4,2,,,,,,,,,,,
,,,,,,,,,,stimuli/images/PICTURE_215.png,LEADER,5d4cdc63ec9aa0000112ae43,23/10/1985,2020-08-27_13h27.29.317,proactive3.1,2020.1.2,Win32,60,5f47c29a48bd2a1e651a6eb7,5f47ece295b81824ca8736b6,4,,,,,,boot,,,,,,0,19,19,43,1,5,2,,,,,,,,,,,
,,,,,,,,,,stimuli/images/PICTURE_255.png,PENNY,5d4cdc63ec9aa0000112ae43,23/10/1985,2020-08-27_13h27.29.317,proactive3.1,2020.1.2,Win32,60,5f47c29a48bd2a1e651a6eb7,5f47ece295b81824ca8736b6,4,,,,,,shovel,,,,,,0,20,20,19,1,2,2,,,,,,,,,,,
,,,,,,,,,,stimuli/images/PICTURE_509.png,SHOTS,5d4cdc63ec9aa0000112ae43,23/10/1985,2020-08-27_13h27.29.317,proactive3.1,2020.1.2,Win32,60,5f47c29a48bd2a1e651a6eb7,5f47ece295b81824ca8736b6,4,,,,,,telephone,,,,,,0,21,21,7,1,1,2,,,,,,,,,,,
,,,,,,,,,,stimuli/images/PICTURE_2.png,YARD,5d4cdc63ec9aa0000112ae43,23/10/1985,2020-08-27_13h27.29.317,proactive3.1,2020.1.2,Win32,60,5f47c29a48bd2a1e651a6eb7,5f47ece295b81824ca8736b6,4,,,,,,tyre,,,,,,0,22,22,55,1,6,2,,,,,,,,,,,
,,,,,,,,,,stimuli/images/PICTURE_509.png,MILLER,5d4cdc63ec9aa0000112ae43,23/10/1985,2020-08-27_13h27.29.317,proactive3.1,2020.1.2,Win32,60,5f47c29a48bd2a1e651a6eb7,5f47ece295b81824ca8736b6,4,,,,,,telephone,,,,,,0,23,23,49,1,5,2,,,,,,,,,,,
,,,,,,,,,,stimuli/images/PICTURE_2.png,AREA,5d4cdc63ec9aa0000112ae43,23/10/1985,2020-08-27_13h27.29.317,proactive3.1,2020.1.2,Win32,60,5f47c29a48bd2a1e651a6eb7,5f47ece295b81824ca8736b6,4,,,,,,tyre,,,,,,0,24,24,32,1,4,2,,,,,,,,,,,
,,,,,,,,,,stimuli/images/PICTURE_285.png,PRINCE,5d4cdc63ec9aa0000112ae43,23/10/1985,2020-08-27_13h27.29.317,proactive3.1,2020.1.2,Win32,60,5f47c29a48bd2a1e651a6eb7,5f47ece295b81824ca8736b6,4,,,,,,carrot,,,,,,0,25,25,20,1,3,2,,,,,,,,,,,
,,,,,,,,,,stimuli/images/PICTURE_327.png,LEADER,5d4cdc63ec9aa0000112ae43,23/10/1985,2020-08-27_13h27.29.317,proactive3.1,2020.1.2,Win32,60,5f47c29a48bd2a1e651a6eb7,5f47ece295b81824ca8736b6,4,,,,,,helmet,,,,,,0,26,26,17,1,2,2,,,,,,,,,,,
,,,,,,,,,,stimuli/images/PICTURE_405.png,JUNGLE,5d4cdc63ec9aa0000112ae43,23/10/1985,2020-08-27_13h27.29.317,proactive3.1,2020.1.2,Win32,60,5f47c29a48bd2a1e651a6eb7,5f47ece295b81824ca8736b6,4,,,,,,anchor,,,,,,0,27,27,13,1,2,2,,,,,,,,,,,
,,,,,,,,,,stimuli/images/PICTURE_708.png,VALLEY,5d4cdc63ec9aa0000112ae43,23/10/1985,2020-08-27_13h27.29.317,proactive3.1,2020.1.2,Win32,60,5f47c29a48bd2a1e651a6eb7,5f47ece295b81824ca8736b6,4,,,,,,monkey,,,,,,0,28,28,45,1,5,2,,,,,,,,,,,
,,,,,,,,,,stimuli/images/PICTURE_453.png,FAMILY,5d4cdc63ec9aa0000112ae43,23/10/1985,2020-08-27_13h27.29.317,proactive3.1,2020.1.2,Win32,60,5f47c29a48bd2a1e651a6eb7,5f47ece295b81824ca8736b6,4,,,,,,scissors,,,,,,0,29,29,48,1,5,2,,,,,,,,,,,
,,,,,,,,,,stimuli/images/PICTURE_491.png,SERIES,5d4cdc63ec9aa0000112ae43,23/10/1985,2020-08-27_13h27.29.317,proactive3.1,2020.1.2,Win32,60,5f47c29a48bd2a1e651a6eb7,5f47ece295b81824ca8736b6,4,,,,,,rug,,,,,,0,30,30,39,1,4,2,,,,,,,,,,,
,,,,,,,,,,stimuli/images/PICTURE_692.png,DUDE,5d4cdc63ec9aa0000112ae43,23/10/1985,2020-08-27_13h27.29.317,proactive3.1,2020.1.2,Win32,60,5f47c29a48bd2a1e651a6eb7,5f47ece295b81824ca8736b6,4,,,,,,cherry,,,,,,0,31,31,47,1,5,2,,,,,,,,,,,
,,,,,,,,,,stimuli/images/PICTURE_348.png,DUDE,5d4cdc63ec9aa0000112ae43,23/10/1985,2020-08-27_13h27.29.317,proactive3.1,2020.1.2,Win32,60,5f47c29a48bd2a1e651a6eb7,5f47ece295b81824ca8736b6,4,,,,,,pepper,,,,,,0,32,32,59,1,6,2,,,,,,,,,,,
,,,,,,,,,,stimuli/images/PICTURE_677.png,PHOTO,5d4cdc63ec9aa0000112ae43,23/10/1985,2020-08-27_13h27.29.317,proactive3.1,2020.1.2,Win32,60,5f47c29a48bd2a1e651a6eb7,5f47ece295b81824ca8736b6,4,,,,,,map,,,,,,0,33,33,14,1,2,2,,,,,,,,,,,
,,,,,,,,,,stimuli/images/PICTURE_160.png,HOTEL,5d4cdc63ec9aa0000112ae43,23/10/1985,2020-08-27_13h27.29.317,proactive3.1,2020.1.2,Win32,60,5f47c29a48bd2a1e651a6eb7,5f47ece295b81824ca8736b6,4,,,,,,wheelbarrow,,,,,,0,34,34,16,1,2,2,,,,,,,,,,,
,,,,,,,,,,stimuli/images/PICTURE_68.png,KIND,5d4cdc63ec9aa0000112ae43,23/10/1985,2020-08-27_13h27.29.317,proactive3.1,2020.1.2,Win32,60,5f47c29a48bd2a1e651a6eb7,5f47ece295b81824ca8736b6,4,,,,,,candle,,,,,,0,35,35,23,1,3,2,,,,,,,,,,,
,,,,,,,,,,stimuli/images/PICTURE_655.png,SALE,5d4cdc63ec9aa0000112ae43,23/10/1985,2020-08-27_13h27.29.317,proactive3.1,2020.1.2,Win32,60,5f47c29a48bd2a1e651a6eb7,5f47ece295b81824ca8736b6,4,,,,,,megaphone,,,,,,0,36,36,57,1,6,2,,,,,,,,,,,
,,,,,,,,,,stimuli/images/PICTURE_123.png,SALE,5d4cdc63ec9aa0000112ae43,23/10/1985,2020-08-27_13h27.29.317,proactive3.1,2020.1.2,Win32,60,5f47c29a48bd2a1e651a6eb7,5f47ece295b81824ca8736b6,4,,,,,,dart,,,,,,0,37,37,8,1,1,2,,,,,,,,,,,
,,,,,,,,,,stimuli/images/PICTURE_18.png,RIVER,5d4cdc63ec9aa0000112ae43,23/10/1985,2020-08-27_13h27.29.317,proactive3.1,2020.1.2,Win32,60,5f47c29a48bd2a1e651a6eb7,5f47ece295b81824ca8736b6,4,,,,,,planet,,,,,,0,38,38,22,1,3,2,,,,,,,,,,,
,,,,,,,,,,stimuli/images/PICTURE_487.png,POLICY,5d4cdc63ec9aa0000112ae43,23/10/1985,2020-08-27_13h27.29.317,proactive3.1,2020.1.2,Win32,60,5f47c29a48bd2a1e651a6eb7,5f47ece295b81824ca8736b6,4,,,,,,basket,,,,,,0,39,39,34,1,4,2,,,,,,,,,,,
,,,,,,,,,,stimuli/images/PICTURE_57.png,NATION,5d4cdc63ec9aa0000112ae43,23/10/1985,2020-08-27_13h27.29.317,proactive3.1,2020.1.2,Win32,60,5f47c29a48bd2a1e651a6eb7,5f47ece295b81824ca8736b6,4,,,,,,stamp,,,,,,0,40,40,21,1,3,2,,,,,,,,,,,
,,,,,,,,,,stimuli/images/PICTURE_297.png,BODY,5d4cdc63ec9aa0000112ae43,23/10/1985,2020-08-27_13h27.29.317,proactive3.1,2020.1.2,Win32,60,5f47c29a48bd2a1e651a6eb7,5f47ece295b81824ca8736b6,4,,,,,,aeroplane,,,,,,0,41,41,51,1,6,2,,,,,,,,,,,
,,,,,,,,,,stimuli/images/PICTURE_57.png,CANDY,5d4cdc63ec9aa0000112ae43,23/10/1985,2020-08-27_13h27.29.317,proactive3.1,2020.1.2,Win32,60,5f47c29a48bd2a1e651a6eb7,5f47ece295b81824ca8736b6,4,,,,,,stamp,,,,,,0,42,42,52,1,6,2,,,,,,,,,,,
,,,,,,,,,,stimuli/images/PICTURE_215.png,FOOD,5d4cdc63ec9aa0000112ae43,23/10/1985,2020-08-27_13h27.29.317,proactive3.1,2020.1.2,Win32,60,5f47c29a48bd2a1e651a6eb7,5f47ece295b81824ca8736b6,4,,,,,,boot,,,,,,0,43,43,5,1,1,2,,,,,,,,,,,
,,,,,,,,,,stimuli/images/PICTURE_177.png,HOUSE,5d4cdc63ec9aa0000112ae43,23/10/1985,2020-08-27_13h27.29.317,proactive3.1,2020.1.2,Win32,60,5f47c29a48bd2a1e651a6eb7,5f47ece295b81824ca8736b6,4,,,,,,mushroom,,,,,,0,44,44,25,1,3,2,,,,,,,,,,,
,,,,,,,,,,stimuli/images/PICTURE_504.png,HOUSE,5d4cdc63ec9aa0000112ae43,23/10/1985,2020-08-27_13h27.29.317,proactive3.1,2020.1.2,Win32,60,5f47c29a48bd2a1e651a6eb7,5f47ece295b81824ca8736b6,4,,,,,,wheel,,,,,,0,45,45,36,1,4,2,,,,,,,,,,,
,,,,,,,,,,stimuli/images/PICTURE_2.png,JUNGLE,5d4cdc63ec9aa0000112ae43,23/10/1985,2020-08-27_13h27.29.317,proactive3.1,2020.1.2,Win32,60,5f47c29a48bd2a1e651a6eb7,5f47ece295b81824ca8736b6,4,,,,,,tyre,,,,,,0,46,46,1,1,1,2,,,,,,,,,,,
,,,,,,,,,,stimuli/images/PICTURE_296.png,CLOCK,5d4cdc63ec9aa0000112ae43,23/10/1985,2020-08-27_13h27.29.317,proactive3.1,2020.1.2,Win32,60,5f47c29a48bd2a1e651a6eb7,5f47ece295b81824ca8736b6,4,,,,,,bolt,,,,,,0,47,47,18,1,2,2,,,,,,,,,,,
,,,,,,,,,,stimuli/images/PICTURE_93.png,GIRL,5d4cdc63ec9aa0000112ae43,23/10/1985,2020-08-27_13h27.29.317,proactive3.1,2020.1.2,Win32,60,5f47c29a48bd2a1e651a6eb7,5f47ece295b81824ca8736b6,4,,,,,,skateboard,,,,,,0,48,48,31,1,4,2,,,,,,,,,,,
,,,,,,,,,,stimuli/images/PICTURE_356.png,CANDY,5d4cdc63ec9aa0000112ae43,23/10/1985,2020-08-27_13h27.29.317,proactive3.1,2020.1.2,Win32,60,5f47c29a48bd2a1e651a6eb7,5f47ece295b81824ca8736b6,4,,,,,,pawn,,,,,,0,49,49,46,1,5,2,,,,,,,,,,,
,,,,,,,,,,stimuli/images/PICTURE_348.png,TOILET,5d4cdc63ec9aa0000112ae43,23/10/1985,2020-08-27_13h27.29.317,proactive3.1,2020.1.2,Win32,60,5f47c29a48bd2a1e651a6eb7,5f47ece295b81824ca8736b6,4,,,,,,pepper,,,,,,0,50,50,4,1,1,2,,,,,,,,,,,
,,,,,,,,,,stimuli/images/PICTURE_470.png,BEAUTY,5d4cdc63ec9aa0000112ae43,23/10/1985,2020-08-27_13h27.29.317,proactive3.1,2020.1.2,Win32,60,5f47c29a48bd2a1e651a6eb7,5f47ece295b81824ca8736b6,4,,,,,,motorbike,,,,,,0,51,51,26,1,3,2,,,,,,,,,,,
,,,,,,,,,,stimuli/images/PICTURE_688.png,CLOCK,5d4cdc63ec9aa0000112ae43,23/10/1985,2020-08-27_13h27.29.317,proactive3.1,2020.1.2,Win32,60,5f47c29a48bd2a1e651a6eb7,5f47ece295b81824ca8736b6,4,,,,,,runner,,,,,,0,52,52,42,1,5,2,,,,,,,,,,,
,,,,,,,,,,stimuli/images/PICTURE_57.png,CASINO,5d4cdc63ec9aa0000112ae43,23/10/1985,2020-08-27_13h27.29.317,proactive3.1,2020.1.2,Win32,60,5f47c29a48bd2a1e651a6eb7,5f47ece295b81824ca8736b6,4,,,,,,stamp,,,,,,0,53,53,12,1,2,2,,,,,,,,,,,
,,,,,,,,,,stimuli/images/PICTURE_667.png,GLASS,5d4cdc63ec9aa0000112ae43,23/10/1985,2020-08-27_13h27.29.317,proactive3.1,2020.1.2,Win32,60,5f47c29a48bd2a1e651a6eb7,5f47ece295b81824ca8736b6,4,,,,,,daisy,,,,,,0,54,54,27,1,3,2,,,,,,,,,,,
,,,,,,,,,,stimuli/images/PICTURE_750.png,POLICY,5d4cdc63ec9aa0000112ae43,23/10/1985,2020-08-27_13h27.29.317,proactive3.1,2020.1.2,Win32,60,5f47c29a48bd2a1e651a6eb7,5f47ece295b81824ca8736b6,4,,,,,,kettle,,,,,,0,55,55,44,1,5,2,,,,,,,,,,,
,,,,,,,,,,stimuli/images/PICTURE_677.png,FAMILY,5d4cdc63ec9aa0000112ae43,23/10/1985,2020-08-27_13h27.29.317,proactive3.1,2020.1.2,Win32,60,5f47c29a48bd2a1e651a6eb7,5f47ece295b81824ca8736b6,4,,,,,,map,,,,,,0,56,56,53,1,6,2,,,,,,,,,,,
,,,,,,,,,,stimuli/images/PICTURE_208.png,SPIRIT,5d4cdc63ec9aa0000112ae43,23/10/1985,2020-08-27_13h27.29.317,proactive3.1,2020.1.2,Win32,60,5f47c29a48bd2a1e651a6eb7,5f47ece295b81824ca8736b6,4,,,,,,microphone,,,,,,0,57,57,28,1,3,2,,,,,,,,,,,
,,,,,,,,,,stimuli/images/PICTURE_654.png,COPS,5d4cdc63ec9aa0000112ae43,23/10/1985,2020-08-27_13h27.29.317,proactive3.1,2020.1.2,Win32,60,5f47c29a48bd2a1e651a6eb7,5f47ece295b81824ca8736b6,4,,,,,,pencil,,,,,,0,58,58,10,1,2,2,,,,,,,,,,,
,,?,0.001,0,,,,,,stimuli/images/PICTURE_470.png,MOMENT,5d4cdc63ec9aa0000112ae43,23/10/1985,2020-08-27_13h27.29.317,proactive3.1,2020.1.2,Win32,60,5f47c29a48bd2a1e651a6eb7,5f47ece295b81824ca8736b6,4,,,,,,motorbike,,,,,,,,,,,5,2,0,0,0,40,1,,,,,,
,,?,0,0,,,,,,stimuli/images/PICTURE_68.png,KIND,5d4cdc63ec9aa0000112ae43,23/10/1985,2020-08-27_13h27.29.317,proactive3.1,2020.1.2,Win32,60,5f47c29a48bd2a1e651a6eb7,5f47ece295b81824ca8736b6,4,,,,,,candle,,,,,,,,,,,3,2,0,1,1,23,1,,,,,,
,,?,0.001,0,,,,,,stimuli/images/PICTURE_654.png,YEAR,5d4cdc63ec9aa0000112ae43,23/10/1985,2020-08-27_13h27.29.317,proactive3.1,2020.1.2,Win32,60,5f47c29a48bd2a1e651a6eb7,5f47ece295b81824ca8736b6,4,,,,,,pencil,,,,,,,,,,,5,2,0,2,2,41,1,,,,,,
,,?,0.001,0,,,,,,stimuli/images/PICTURE_208.png,SPIRIT,5d4cdc63ec9aa0000112ae43,23/10/1985,2020-08-27_13h27.29.317,proactive3.1,2020.1.2,Win32,60,5f47c29a48bd2a1e651a6eb7,5f47ece295b81824ca8736b6,4,,,,,,microphone,,,,,,,,,,,3,2,0,3,3,28,1,,,,,,
,,?,0,0,,,,,,stimuli/images/PICTURE_57.png,CANDY,5d4cdc63ec9aa0000112ae43,23/10/1985,2020-08-27_13h27.29.317,proactive3.1,2020.1.2,Win32,60,5f47c29a48bd2a1e651a6eb7,5f47ece295b81824ca8736b6,4,,,,,,stamp,,,,,,,,,,,6,2,0,4,4,52,1,,,,,,
,,?,0.001,0,,,,,,stimuli/images/PICTURE_18.png,RIVER,5d4cdc63ec9aa0000112ae43,23/10/1985,2020-08-27_13h27.29.317,proactive3.1,2020.1.2,Win32,60,5f47c29a48bd2a1e651a6eb7,5f47ece295b81824ca8736b6,4,,,,,,planet,,,,,,,,,,,3,2,0,5,5,22,1,,,,,,
,,?,0.001,0,,,,,,stimuli/images/PICTURE_296.png,CLOCK,5d4cdc63ec9aa0000112ae43,23/10/1985,2020-08-27_13h27.29.317,proactive3.1,2020.1.2,Win32,60,5f47c29a48bd2a1e651a6eb7,5f47ece295b81824ca8736b6,4,,,,,,bolt,,,,,,,,,,,2,2,0,6,6,18,1,,,,,,
,,G,15.001,0,,,,,,stimuli/images/PICTURE_93.png,GIRL,5d4cdc63ec9aa0000112ae43,23/10/1985,2020-08-27_13h27.29.317,proactive3.1,2020.1.2,Win32,60,5f47c29a48bd2a1e651a6eb7,5f47ece295b81824ca8736b6,4,,,,,,skateboard,,,,,,,,,,,4,2,0,7,7,31,1,,,,,,
,,A,15.002,0,,,,,,stimuli/images/PICTURE_2.png,AREA,5d4cdc63ec9aa0000112ae43,23/10/1985,2020-08-27_13h27.29.317,proactive3.1,2020.1.2,Win32,60,5f47c29a48bd2a1e651a6eb7,5f47ece295b81824ca8736b6,4,,,,,,tyre,,,,,,,,,,,4,2,0,8,8,32,1,,,,,,
,,?,0.002,0,,,,,,stimuli/images/PICTURE_688.png,CLOCK,5d4cdc63ec9aa0000112ae43,23/10/1985,2020-08-27_13h27.29.317,proactive3.1,2020.1.2,Win32,60,5f47c29a48bd2a1e651a6eb7,5f47ece295b81824ca8736b6,4,,,,,,runner,,,,,,,,,,,5,2,0,9,9,42,1,,,,,,
,,S,15.018,0,,,,,,stimuli/images/PICTURE_491.png,SERIES,5d4cdc63ec9aa0000112ae43,23/10/1985,2020-08-27_13h27.29.317,proactive3.1,2020.1.2,Win32,60,5f47c29a48bd2a1e651a6eb7,5f47ece295b81824ca8736b6,4,,,,,,rug,,,,,,,,,,,4,2,0,10,10,39,1,,,,,,
,,P,15.002,0,,,,,,stimuli/images/PICTURE_487.png,POLICY,5d4cdc63ec9aa0000112ae43,23/10/1985,2020-08-27_13h27.29.317,proactive3.1,2020.1.2,Win32,60,5f47c29a48bd2a1e651a6eb7,5f47ece295b81824ca8736b6,4,,,,,,basket,,,,,,,,,,,4,2,0,11,11,34,1,,,,,,
,,?,0.002,0,,,,,,stimuli/images/PICTURE_677.png,PHOTO,5d4cdc63ec9aa0000112ae43,23/10/1985,2020-08-27_13h27.29.317,proactive3.1,2020.1.2,Win32,60,5f47c29a48bd2a1e651a6eb7,5f47ece295b81824ca8736b6,4,,,,,,map,,,,,,,,,,,2,2,0,12,12,14,1,,,,,,
,,?,0.001,0,,,,,,stimuli/images/PICTURE_708.png,VALLEY,5d4cdc63ec9aa0000112ae43,23/10/1985,2020-08-27_13h27.29.317,proactive3.1,2020.1.2,Win32,60,5f47c29a48bd2a1e651a6eb7,5f47ece295b81824ca8736b6,4,,,,,,monkey,,,,,,,,,,,5,2,0,13,13,45,1,,,,,,
,,?,0,0,,,,,,stimuli/images/PICTURE_348.png,DUDE,5d4cdc63ec9aa0000112ae43,23/10/1985,2020-08-27_13h27.29.317,proactive3.1,2020.1.2,Win32,60,5f47c29a48bd2a1e651a6eb7,5f47ece295b81824ca8736b6,4,,,,,,pepper,,,,,,,,,,,6,2,0,14,14,59,1,,,,,,
,,?,0,0,,,,,,stimuli/images/PICTURE_57.png,NATION,5d4cdc63ec9aa0000112ae43,23/10/1985,2020-08-27_13h27.29.317,proactive3.1,2020.1.2,Win32,60,5f47c29a48bd2a1e651a6eb7,5f47ece295b81824ca8736b6,4,,,,,,stamp,,,,,,,,,,,3,2,0,15,15,21,1,,,,,,
,,H,15.006,0,,,,,,stimuli/images/PICTURE_504.png,HOUSE,5d4cdc63ec9aa0000112ae43,23/10/1985,2020-08-27_13h27.29.317,proactive3.1,2020.1.2,Win32,60,5f47c29a48bd2a1e651a6eb7,5f47ece295b81824ca8736b6,4,,,,,,wheel,,,,,,,,,,,4,2,0,16,16,36,1,,,,,,
,,?,0.002,0,,,,,,stimuli/images/PICTURE_564.png,PLENTY,5d4cdc63ec9aa0000112ae43,23/10/1985,2020-08-27_13h27.29.317,proactive3.1,2020.1.2,Win32,60,5f47c29a48bd2a1e651a6eb7,5f47ece295b81824ca8736b6,4,,,,,,spoon,,,,,,,,,,,2,2,0,17,17,11,1,,,,,,
,,A,15.014,0,,,,,,stimuli/images/PICTURE_509.png,APPLE,5d4cdc63ec9aa0000112ae43,23/10/1985,2020-08-27_13h27.29.317,proactive3.1,2020.1.2,Win32,60,5f47c29a48bd2a1e651a6eb7,5f47ece295b81824ca8736b6,4,,,,,,telephone,,,,,,,,,,,4,2,0,18,18,38,1,,,,,,
,,?,0.002,0,,,,,,stimuli/images/PICTURE_470.png,BEAUTY,5d4cdc63ec9aa0000112ae43,23/10/1985,2020-08-27_13h27.29.317,proactive3.1,2020.1.2,Win32,60,5f47c29a48bd2a1e651a6eb7,5f47ece295b81824ca8736b6,4,,,,,,motorbike,,,,,,,,,,,3,2,0,19,19,26,1,,,,,,
,,?,0,0,,,,,,stimuli/images/PICTURE_215.png,FOOD,5d4cdc63ec9aa0000112ae43,23/10/1985,2020-08-27_13h27.29.317,proactive3.1,2020.1.2,Win32,60,5f47c29a48bd2a1e651a6eb7,5f47ece295b81824ca8736b6,4,,,,,,boot,,,,,,,,,,,1,2,0,20,20,5,1,,,,,,
,,?,0.001,0,,,,,,stimuli/images/PICTURE_2.png,JUNGLE,5d4cdc63ec9aa0000112ae43,23/10/1985,2020-08-27_13h27.29.317,proactive3.1,2020.1.2,Win32,60,5f47c29a48bd2a1e651a6eb7,5f47ece295b81824ca8736b6,4,,,,,,tyre,,,,,,,,,,,1,2,0,21,21,1,1,,,,,,
,,?,0.002,0,,,,,,stimuli/images/PICTURE_285.png,PRINCE,5d4cdc63ec9aa0000112ae43,23/10/1985,2020-08-27_13h27.29.317,proactive3.1,2020.1.2,Win32,60,5f47c29a48bd2a1e651a6eb7,5f47ece295b81824ca8736b6,4,,,,,,carrot,,,,,,,,,,,3,2,0,22,22,20,1,,,,,,
,,?,0.001,0,,,,,,stimuli/images/PICTURE_654.png,COPS,5d4cdc63ec9aa0000112ae43,23/10/1985,2020-08-27_13h27.29.317,proactive3.1,2020.1.2,Win32,60,5f47c29a48bd2a1e651a6eb7,5f47ece295b81824ca8736b6,4,,,,,,pencil,,,,,,,,,,,2,2,0,23,23,10,1,,,,,,
,,?,0.001,0,,,,,,stimuli/images/PICTURE_509.png,BATH,5d4cdc63ec9aa0000112ae43,23/10/1985,2020-08-27_13h27.29.317,proactive3.1,2020.1.2,Win32,60,5f47c29a48bd2a1e651a6eb7,5f47ece295b81824ca8736b6,4,,,,,,telephone,,,,,,,,,,,2,2,0,24,24,15,1,,,,,,
,,?,0.001,0,,,,,,stimuli/images/PICTURE_177.png,HOUSE,5d4cdc63ec9aa0000112ae43,23/10/1985,2020-08-27_13h27.29.317,proactive3.1,2020.1.2,Win32,60,5f47c29a48bd2a1e651a6eb7,5f47ece295b81824ca8736b6,4,,,,,,mushroom,,,,,,,,,,,3,2,0,25,25,25,1,,,,,,
,,?,0.001,0,,,,,,stimuli/images/PICTURE_348.png,TOILET,5d4cdc63ec9aa0000112ae43,23/10/1985,2020-08-27_13h27.29.317,proactive3.1,2020.1.2,Win32,60,5f47c29a48bd2a1e651a6eb7,5f47ece295b81824ca8736b6,4,,,,,,pepper,,,,,,,,,,,1,2,0,26,26,4,1,,,,,,
,,C,15.014,0,,,,,,stimuli/images/PICTURE_95.png,NIGHT,5d4cdc63ec9aa0000112ae43,23/10/1985,2020-08-27_13h27.29.317,proactive3.1,2020.1.2,Win32,60,5f47c29a48bd2a1e651a6eb7,5f47ece295b81824ca8736b6,4,,,,,,suitcase,,,,,,,,,,,4,2,0,27,27,37,1,,,,,,
,,?,0.002,0,,,,,,stimuli/images/PICTURE_215.png,LEADER,5d4cdc63ec9aa0000112ae43,23/10/1985,2020-08-27_13h27.29.317,proactive3.1,2020.1.2,Win32,60,5f47c29a48bd2a1e651a6eb7,5f47ece295b81824ca8736b6,4,,,,,,boot,,,,,,,,,,,5,2,0,28,28,43,1,,,,,,
,,S,15.015,0,,,,,,stimuli/images/PICTURE_141.png,CLIENT,5d4cdc63ec9aa0000112ae43,23/10/1985,2020-08-27_13h27.29.317,proactive3.1,2020.1.2,Win32,60,5f47c29a48bd2a1e651a6eb7,5f47ece295b81824ca8736b6,4,,,,,,sunflower,,,,,,,,,,,4,2,0,29,29,30,1,,,,,,
,,?,0.002,0,,,,,,stimuli/images/PICTURE_297.png,BODY,5d4cdc63ec9aa0000112ae43,23/10/1985,2020-08-27_13h27.29.317,proactive3.1,2020.1.2,Win32,60,5f47c29a48bd2a1e651a6eb7,5f47ece295b81824ca8736b6,4,,,,,,aeroplane,,,,,,,,,,,6,2,0,30,30,51,1,,,,,,
,,?,0.001,0,,,,,,stimuli/images/PICTURE_57.png,CASINO,5d4cdc63ec9aa0000112ae43,23/10/1985,2020-08-27_13h27.29.317,proactive3.1,2020.1.2,Win32,60,5f47c29a48bd2a1e651a6eb7,5f47ece295b81824ca8736b6,4,,,,,,stamp,,,,,,,,,,,2,2,0,31,31,12,1,,,,,,
,,?,0.001,0,,,,,,stimuli/images/PICTURE_356.png,CANDY,5d4cdc63ec9aa0000112ae43,23/10/1985,2020-08-27_13h27.29.317,proactive3.1,2020.1.2,Win32,60,5f47c29a48bd2a1e651a6eb7,5f47ece295b81824ca8736b6,4,,,,,,pawn,,,,,,,,,,,5,2,0,32,32,46,1,,,,,,
,,?,0.001,0,,,,,,stimuli/images/PICTURE_452.png,COPS,5d4cdc63ec9aa0000112ae43,23/10/1985,2020-08-27_13h27.29.317,proactive3.1,2020.1.2,Win32,60,5f47c29a48bd2a1e651a6eb7,5f47ece295b81824ca8736b6,4,,,,,,watch,,,,,,,,,,,1,2,0,33,33,0,1,,,,,,
,,?,0.001,0,,,,,,stimuli/images/PICTURE_32.png,LETTER,5d4cdc63ec9aa0000112ae43,23/10/1985,2020-08-27_13h27.29.317,proactive3.1,2020.1.2,Win32,60,5f47c29a48bd2a1e651a6eb7,5f47ece295b81824ca8736b6,4,,,,,,crown,,,,,,,,,,,6,2,0,34,34,56,1,,,,,,
,,?,0.001,0,,,,,,stimuli/images/PICTURE_677.png,FAMILY,5d4cdc63ec9aa0000112ae43,23/10/1985,2020-08-27_13h27.29.317,proactive3.1,2020.1.2,Win32,60,5f47c29a48bd2a1e651a6eb7,5f47ece295b81824ca8736b6,4,,,,,,map,,,,,,,,,,,6,2,0,35,35,53,1,,,,,,
,,?,0,0,,,,,,stimuli/images/PICTURE_509.png,SHOTS,5d4cdc63ec9aa0000112ae43,23/10/1985,2020-08-27_13h27.29.317,proactive3.1,2020.1.2,Win32,60,5f47c29a48bd2a1e651a6eb7,5f47ece295b81824ca8736b6,4,,,,,,telephone,,,,,,,,,,,1,2,0,36,36,7,1,,,,,,
,,?,0.001,0,,,,,,stimuli/images/PICTURE_453.png,FAMILY,5d4cdc63ec9aa0000112ae43,23/10/1985,2020-08-27_13h27.29.317,proactive3.1,2020.1.2,Win32,60,5f47c29a48bd2a1e651a6eb7,5f47ece295b81824ca8736b6,4,,,,,,scissors,,,,,,,,,,,5,2,0,37,37,48,1,,,,,,
,,?,0,0,,,,,,stimuli/images/PICTURE_692.png,DUDE,5d4cdc63ec9aa0000112ae43,23/10/1985,2020-08-27_13h27.29.317,proactive3.1,2020.1.2,Win32,60,5f47c29a48bd2a1e651a6eb7,5f47ece295b81824ca8736b6,4,,,,,,cherry,,,,,,,,,,,5,2,0,38,38,47,1,,,,,,
,,?,0.001,0,,,,,,stimuli/images/PICTURE_311.png,FLESH,5d4cdc63ec9aa0000112ae43,23/10/1985,2020-08-27_13h27.29.317,proactive3.1,2020.1.2,Win32,60,5f47c29a48bd2a1e651a6eb7,5f47ece295b81824ca8736b6,4,,,,,,razor,,,,,,,,,,,1,2,0,39,39,3,1,,,,,,
,,?,0.001,0,,,,,,stimuli/images/PICTURE_160.png,HOTEL,5d4cdc63ec9aa0000112ae43,23/10/1985,2020-08-27_13h27.29.317,proactive3.1,2020.1.2,Win32,60,5f47c29a48bd2a1e651a6eb7,5f47ece295b81824ca8736b6,4,,,,,,wheelbarrow,,,,,,,,,,,2,2,0,40,40,16,1,,,,,,
,,?,15.005,0,,,,,,stimuli/images/PICTURE_147.png,LEADER,5d4cdc63ec9aa0000112ae43,23/10/1985,2020-08-27_13h27.29.317,proactive3.1,2020.1.2,Win32,60,5f47c29a48bd2a1e651a6eb7,5f47ece295b81824ca8736b6,4,,,,,,hanger,,,,,,,,,,,4,2,0,41,41,33,1,,,,,,
,,?,0.001,0,,,,,,stimuli/images/PICTURE_509.png,MILLER,5d4cdc63ec9aa0000112ae43,23/10/1985,2020-08-27_13h27.29.317,proactive3.1,2020.1.2,Win32,60,5f47c29a48bd2a1e651a6eb7,5f47ece295b81824ca8736b6,4,,,,,,telephone,,,,,,,,,,,5,2,0,42,42,49,1,,,,,,
,,?,0,0,,,,,,stimuli/images/PICTURE_327.png,LEADER,5d4cdc63ec9aa0000112ae43,23/10/1985,2020-08-27_13h27.29.317,proactive3.1,2020.1.2,Win32,60,5f47c29a48bd2a1e651a6eb7,5f47ece295b81824ca8736b6,4,,,,,,helmet,,,,,,,,,,,2,2,0,43,43,17,1,,,,,,
,,?,0,0,,,,,,stimuli/images/PICTURE_750.png,POLICY,5d4cdc63ec9aa0000112ae43,23/10/1985,2020-08-27_13h27.29.317,proactive3.1,2020.1.2,Win32,60,5f47c29a48bd2a1e651a6eb7,5f47ece295b81824ca8736b6,4,,,,,,kettle,,,,,,,,,,,5,2,0,44,44,44,1,,,,,,
,,?,0.001,0,,,,,,stimuli/images/PICTURE_123.png,SALE,5d4cdc63ec9aa0000112ae43,23/10/1985,2020-08-27_13h27.29.317,proactive3.1,2020.1.2,Win32,60,5f47c29a48bd2a1e651a6eb7,5f47ece295b81824ca8736b6,4,,,,,,dart,,,,,,,,,,,1,2,0,45,45,8,1,,,,,,
,,?,0,0,,,,,,stimuli/images/PICTURE_33.png,COPS,5d4cdc63ec9aa0000112ae43,23/10/1985,2020-08-27_13h27.29.317,proactive3.1,2020.1.2,Win32,60,5f47c29a48bd2a1e651a6eb7,5f47ece295b81824ca8736b6,4,,,,,,frame,,,,,,,,,,,3,2,0,46,46,29,1,,,,,,
,,?,0.002,0,,,,,,stimuli/images/PICTURE_285.png,WRITER,5d4cdc63ec9aa0000112ae43,23/10/1985,2020-08-27_13h27.29.317,proactive3.1,2020.1.2,Win32,60,5f47c29a48bd2a1e651a6eb7,5f47ece295b81824ca8736b6,4,,,,,,carrot,,,,,,,,,,,1,2,0,47,47,6,1,,,,,,
,,?,0,0,,,,,,stimuli/images/PICTURE_405.png,JUNGLE,5d4cdc63ec9aa0000112ae43,23/10/1985,2020-08-27_13h27.29.317,proactive3.1,2020.1.2,Win32,60,5f47c29a48bd2a1e651a6eb7,5f47ece295b81824ca8736b6,4,,,,,,anchor,,,,,,,,,,,2,2,0,48,48,13,1,,,,,,
,,?,0,0,,,,,,stimuli/images/PICTURE_311.png,TOILET,5d4cdc63ec9aa0000112ae43,23/10/1985,2020-08-27_13h27.29.317,proactive3.1,2020.1.2,Win32,60,5f47c29a48bd2a1e651a6eb7,5f47ece295b81824ca8736b6,4,,,,,,razor,,,,,,,,,,,6,2,0,49,49,54,1,,,,,,
,,?,31.989,0,,,,,,stimuli/images/PICTURE_314.png,SPEECH,5d4cdc63ec9aa0000112ae43,23/10/1985,2020-08-27_13h27.29.317,proactive3.1,2020.1.2,Win32,60,5f47c29a48bd2a1e651a6eb7,5f47ece295b81824ca8736b6,4,,,,,,perfume,,,,,,,,,,,4,2,0,50,50,35,1,,,,,,
,,?,0.002,0,,,,,,stimuli/images/PICTURE_405.png,HOUSE,5d4cdc63ec9aa0000112ae43,23/10/1985,2020-08-27_13h27.29.317,proactive3.1,2020.1.2,Win32,60,5f47c29a48bd2a1e651a6eb7,5f47ece295b81824ca8736b6,4,,,,,,anchor,,,,,,,,,,,1,2,0,51,51,2,1,,,,,,
,,?,0.002,0,,,,,,stimuli/images/PICTURE_215.png,BOYS,5d4cdc63ec9aa0000112ae43,23/10/1985,2020-08-27_13h27.29.317,proactive3.1,2020.1.2,Win32,60,5f47c29a48bd2a1e651a6eb7,5f47ece295b81824ca8736b6,4,,,,,,boot,,,,,,,,,,,3,2,0,52,52,24,1,,,,,,
,,?,0.002,0,,,,,,stimuli/images/PICTURE_255.png,PENNY,5d4cdc63ec9aa0000112ae43,23/10/1985,2020-08-27_13h27.29.317,proactive3.1,2020.1.2,Win32,60,5f47c29a48bd2a1e651a6eb7,5f47ece295b81824ca8736b6,4,,,,,,shovel,,,,,,,,,,,2,2,0,53,53,19,1,,,,,,
,,?,0.002,0,,,,,,stimuli/images/PICTURE_2.png,YARD,5d4cdc63ec9aa0000112ae43,23/10/1985,2020-08-27_13h27.29.317,proactive3.1,2020.1.2,Win32,60,5f47c29a48bd2a1e651a6eb7,5f47ece295b81824ca8736b6,4,,,,,,tyre,,,,,,,,,,,6,2,0,54,54,55,1,,,,,,
,,?,0.005,0,,,,,,stimuli/images/PICTURE_655.png,SALE,5d4cdc63ec9aa0000112ae43,23/10/1985,2020-08-27_13h27.29.317,proactive3.1,2020.1.2,Win32,60,5f47c29a48bd2a1e651a6eb7,5f47ece295b81824ca8736b6,4,,,,,,megaphone,,,,,,,,,,,6,2,0,55,55,57,1,,,,,,
,,?,0.002,0,,,,,,stimuli/images/PICTURE_403.png,FAMILY,5d4cdc63ec9aa0000112ae43,23/10/1985,2020-08-27_13h27.29.317,proactive3.1,2020.1.2,Win32,60,5f47c29a48bd2a1e651a6eb7,5f47ece295b81824ca8736b6,4,,,,,,cathedral,,,,,,,,,,,1,2,0,56,56,9,1,,,,,,
,,?,0.001,0,,,,,,stimuli/images/PICTURE_667.png,GLASS,5d4cdc63ec9aa0000112ae43,23/10/1985,2020-08-27_13h27.29.317,proactive3.1,2020.1.2,Win32,60,5f47c29a48bd2a1e651a6eb7,5f47ece295b81824ca8736b6,4,,,,,,daisy,,,,,,,,,,,3,2,0,57,57,27,1,,,,,,
,,?,0.002,0,,,,,,stimuli/images/PICTURE_405.png,JUNGLE,5d4cdc63ec9aa0000112ae43,23/10/1985,2020-08-27_13h27.29.317,proactive3.1,2020.1.2,Win32,60,5f47c29a48bd2a1e651a6eb7,5f47ece295b81824ca8736b6,4,,,,,,anchor,,,,,,,,,,,6,2,0,58,58,58,1,,,,,,
,,?,0.001,0,,,,,,stimuli/images/PICTURE_487.png,ROOF,5d4cdc63ec9aa0000112ae43,23/10/1985,2020-08-27_13h27.29.317,proactive3.1,2020.1.2,Win32,60,5f47c29a48bd2a1e651a6eb7,5f47ece295b81824ca8736b6,4,,,,,,basket,,,,,,,,,,,6,2,0,59,59,50,1,,,,,,
