consent_key.keys,consent_key.rt,recalled,recalled_rt,recall_acc,example_recall.thisRepN,example_recall.thisTrialN,example_recall.thisN,example_recall.thisIndex,example_recall.ran,file,word,participant,please enter your date of birth (dd/mm/yyyy),date,expName,psychopyVersion,OS,frameRate,STUDY_ID,SESSION_ID,list,prac_learn_study_loop.thisRepN,prac_learn_study_loop.thisTrialN,prac_learn_study_loop.thisN,prac_learn_study_loop.thisIndex,prac_learn_study_loop.ran,image,prac_learn_test_loop.thisRepN,prac_learn_test_loop.thisTrialN,prac_learn_test_loop.thisN,prac_learn_test_loop.thisIndex,prac_learn_test_loop.ran,learn_study_loop.thisRepN,learn_study_loop.thisTrialN,learn_study_loop.thisN,learn_study_loop.thisIndex,learn_study_loop.ran,list_no,block_no,learn_test_loop.thisRepN,learn_test_loop.thisTrialN,learn_test_loop.thisN,learn_test_loop.thisIndex,learn_test_loop.ran,learn_blocks.thisRepN,learn_blocks.thisTrialN,learn_blocks.thisN,learn_blocks.thisIndex,learn_blocks.ran,block_csv,key_resp_13.keys,key_resp_13.rt,learn_blocks_loop.thisRepN,learn_blocks_loop.thisTrialN,learn_blocks_loop.thisN,learn_blocks_loop.thisIndex,learn_blocks_loop.ran,final_learn_test.thisRepN,final_learn_test.thisTrialN,final_learn_test.thisN,final_learn_test.thisIndex,final_learn_test.ran,s_im1,s_im2,s_im3,s_im4,s_im5,s_im6,s_im7,s_im8,s_im1pos,s_im2pos,s_im3pos,s_im4pos,s_im5pos,s_im6pos,s_im7pos,s_im8pos,s_tarright,search_resp.keys,search_loop.thisRepN,search_loop.thisTrialN,search_loop.thisN,search_loop.thisIndex,search_loop.ran,search_resp.rt,prac_wm_search_loop.thisRepN,prac_wm_search_loop.thisTrialN,prac_wm_search_loop.thisN,prac_wm_search_loop.thisIndex,prac_wm_search_loop.ran,prac_wm_test_loop.thisRepN,prac_wm_test_loop.thisTrialN,prac_wm_test_loop.thisN,prac_wm_test_loop.thisIndex,prac_wm_test_loop.ran,wm_recalled1,wm_recall_rt1,wm_probed1,wm_recall_acc1,wm_recalled2,wm_recall_rt2,wm_probed2,wm_recall_acc2,wm_recalled3,wm_recall_rt3,wm_probed3,wm_recall_acc3,wm_recalled4,wm_recall_rt4,wm_probed4,wm_recall_acc4,prac_wm_trial_loop.thisRepN,prac_wm_trial_loop.thisTrialN,prac_wm_trial_loop.thisN,prac_wm_trial_loop.thisIndex,prac_wm_trial_loop.ran,word1,image1,file1,item_type1,word2,image2,file2,item_type2,word4,image4,file4,item_type4,word3,image3,file3,item_type3,wm_search_loop.thisRepN,wm_search_loop.thisTrialN,wm_search_loop.thisN,wm_search_loop.thisIndex,wm_search_loop.ran,wm_test_loop.thisRepN,wm_test_loop.thisTrialN,wm_test_loop.thisN,wm_test_loop.thisIndex,wm_test_loop.ran,wm_trial_loop.thisRepN,wm_trial_loop.thisTrialN,wm_trial_loop.thisN,wm_trial_loop.thisIndex,wm_trial_loop.ran
y,42.748885,TOUGH,7.56089,1,0,0,0,0,1,stimuli/images/PICTURE_747.png,TOUGH,5dd9951efef7c2916a145550,21/12/1952,2020-09-10_22h55.45.773,proactive3.1,2020.1.2,Win32,60,5f599a131af4471f3d752b7b,5f5ae7002a36a420413399f6,5,,,,,,,,,,,,,,,,,,,,,,,,,,,,,,,,,,,,,,,,,,,,,,,,,,,,,,,,,,,,,,,,,,,,,,,,,,,,,,,,,,,,,,,,,,,,,,,,,,,,,,,,,,,,,,,,,,,,,,,,,,,,,,,
,,,,,,,,,,stimuli/images/PICTURE_658.png,DEVIL,5dd9951efef7c2916a145550,21/12/1952,2020-09-10_22h55.45.773,proactive3.1,2020.1.2,Win32,60,5f599a131af4471f3d752b7b,5f5ae7002a36a420413399f6,5,0,0,0,3,1,crow,,,,,,,,,,,,,,,,,,,,,,,,,,,,,,,,,,,,,,,,,,,,,,,,,,,,,,,,,,,,,,,,,,,,,,,,,,,,,,,,,,,,,,,,,,,,,,,,,,,,,,,,,,,,,,,,,,,,,,,,,
,,,,,,,,,,stimuli/images/PICTURE_378.png,LOSS,5dd9951efef7c2916a145550,21/12/1952,2020-09-10_22h55.45.773,proactive3.1,2020.1.2,Win32,60,5f599a131af4471f3d752b7b,5f5ae7002a36a420413399f6,5,0,1,1,2,1,lobster,,,,,,,,,,,,,,,,,,,,,,,,,,,,,,,,,,,,,,,,,,,,,,,,,,,,,,,,,,,,,,,,,,,,,,,,,,,,,,,,,,,,,,,,,,,,,,,,,,,,,,,,,,,,,,,,,,,,,,,,,
,,,,,,,,,,stimuli/images/PICTURE_697.png,KILLER,5dd9951efef7c2916a145550,21/12/1952,2020-09-10_22h55.45.773,proactive3.1,2020.1.2,Win32,60,5f599a131af4471f3d752b7b,5f5ae7002a36a420413399f6,5,0,2,2,4,1,peach,,,,,,,,,,,,,,,,,,,,,,,,,,,,,,,,,,,,,,,,,,,,,,,,,,,,,,,,,,,,,,,,,,,,,,,,,,,,,,,,,,,,,,,,,,,,,,,,,,,,,,,,,,,,,,,,,,,,,,,,,
,,,,,,,,,,stimuli/images/PICTURE_269.png,GENIUS,5dd9951efef7c2916a145550,21/12/1952,2020-09-10_22h55.45.773,proactive3.1,2020.1.2,Win32,60,5f599a131af4471f3d752b7b,5f5ae7002a36a420413399f6,5,0,3,3,0,1,chameleon,,,,,,,,,,,,,,,,,,,,,,,,,,,,,,,,,,,,,,,,,,,,,,,,,,,,,,,,,,,,,,,,,,,,,,,,,,,,,,,,,,,,,,,,,,,,,,,,,,,,,,,,,,,,,,,,,,,,,,,,,
,,?,8.810405,0,,,,,,stimuli/images/PICTURE_697.png,KILLER,5dd9951efef7c2916a145550,21/12/1952,2020-09-10_22h55.45.773,proactive3.1,2020.1.2,Win32,60,5f599a131af4471f3d752b7b,5f5ae7002a36a420413399f6,5,,,,,,peach,0,0,0,4,1,,,,,,,,,,,,,,,,,,,,,,,,,,,,,,,,,,,,,,,,,,,,,,,,,,,,,,,,,,,,,,,,,,,,,,,,,,,,,,,,,,,,,,,,,,,,,,,,,,,,,,,,,,,,,,,,,,,,
,,DEVIL,5.546485,1,,,,,,stimuli/images/PICTURE_658.png,DEVIL,5dd9951efef7c2916a145550,21/12/1952,2020-09-10_22h55.45.773,proactive3.1,2020.1.2,Win32,60,5f599a131af4471f3d752b7b,5f5ae7002a36a420413399f6,5,,,,,,crow,0,1,1,3,1,,,,,,,,,,,,,,,,,,,,,,,,,,,,,,,,,,,,,,,,,,,,,,,,,,,,,,,,,,,,,,,,,,,,,,,,,,,,,,,,,,,,,,,,,,,,,,,,,,,,,,,,,,,,,,,,,,,,
,,LOSS,3.8651,1,,,,,,stimuli/images/PICTURE_378.png,LOSS,5dd9951efef7c2916a145550,21/12/1952,2020-09-10_22h55.45.773,proactive3.1,2020.1.2,Win32,60,5f599a131af4471f3d752b7b,5f5ae7002a36a420413399f6,5,,,,,,lobster,0,2,2,2,1,,,,,,,,,,,,,,,,,,,,,,,,,,,,,,,,,,,,,,,,,,,,,,,,,,,,,,,,,,,,,,,,,,,,,,,,,,,,,,,,,,,,,,,,,,,,,,,,,,,,,,,,,,,,,,,,,,,,
,,GENIUS,4.985405,1,,,,,,stimuli/images/PICTURE_269.png,GENIUS,5dd9951efef7c2916a145550,21/12/1952,2020-09-10_22h55.45.773,proactive3.1,2020.1.2,Win32,60,5f599a131af4471f3d752b7b,5f5ae7002a36a420413399f6,5,,,,,,chameleon,0,3,3,0,1,,,,,,,,,,,,,,,,,,,,,,,,,,,,,,,,,,,,,,,,,,,,,,,,,,,,,,,,,,,,,,,,,,,,,,,,,,,,,,,,,,,,,,,,,,,,,,,,,,,,,,,,,,,,,,,,,,,,
,,CELL,3.783035,1,,,,,,stimuli/images/PICTURE_727.png,CELL,5dd9951efef7c2916a145550,21/12/1952,2020-09-10_22h55.45.773,proactive3.1,2020.1.2,Win32,60,5f599a131af4471f3d752b7b,5f5ae7002a36a420413399f6,5,,,,,,hose,0,4,4,1,1,,,,,,,,,,,,,,,,,,,,,,,,,,,,,,,,,,,,,,,,,,,,,,,,,,,,,,,,,,,,,,,,,,,,,,,,,,,,,,,,,,,,,,,,,,,,,,,,,,,,,,,,,,,,,,,,,,,,
,,,,,,,,,,stimuli/images/PICTURE_654.png,COPS,5dd9951efef7c2916a145550,21/12/1952,2020-09-10_22h55.45.773,proactive3.1,2020.1.2,Win32,60,5f599a131af4471f3d752b7b,5f5ae7002a36a420413399f6,5,,,,,,pencil,,,,,,0,0,0,10,1,2,2,,,,,,,,,,,,,,,,,,,,,,,,,,,,,,,,,,,,,,,,,,,,,,,,,,,,,,,,,,,,,,,,,,,,,,,,,,,,,,,,,,,,,,,,,,,,,,,,,,,,,,,,,,,,,
,,,,,,,,,,stimuli/images/PICTURE_470.png,BEAUTY,5dd9951efef7c2916a145550,21/12/1952,2020-09-10_22h55.45.773,proactive3.1,2020.1.2,Win32,60,5f599a131af4471f3d752b7b,5f5ae7002a36a420413399f6,5,,,,,,motorbike,,,,,,0,1,1,26,1,3,2,,,,,,,,,,,,,,,,,,,,,,,,,,,,,,,,,,,,,,,,,,,,,,,,,,,,,,,,,,,,,,,,,,,,,,,,,,,,,,,,,,,,,,,,,,,,,,,,,,,,,,,,,,,,,
,,,,,,,,,,stimuli/images/PICTURE_708.png,VALLEY,5dd9951efef7c2916a145550,21/12/1952,2020-09-10_22h55.45.773,proactive3.1,2020.1.2,Win32,60,5f599a131af4471f3d752b7b,5f5ae7002a36a420413399f6,5,,,,,,monkey,,,,,,0,2,2,45,1,5,2,,,,,,,,,,,,,,,,,,,,,,,,,,,,,,,,,,,,,,,,,,,,,,,,,,,,,,,,,,,,,,,,,,,,,,,,,,,,,,,,,,,,,,,,,,,,,,,,,,,,,,,,,,,,,
,,,,,,,,,,stimuli/images/PICTURE_654.png,YEAR,5dd9951efef7c2916a145550,21/12/1952,2020-09-10_22h55.45.773,proactive3.1,2020.1.2,Win32,60,5f599a131af4471f3d752b7b,5f5ae7002a36a420413399f6,5,,,,,,pencil,,,,,,0,3,3,41,1,5,2,,,,,,,,,,,,,,,,,,,,,,,,,,,,,,,,,,,,,,,,,,,,,,,,,,,,,,,,,,,,,,,,,,,,,,,,,,,,,,,,,,,,,,,,,,,,,,,,,,,,,,,,,,,,,
,,,,,,,,,,stimuli/images/PICTURE_177.png,HOUSE,5dd9951efef7c2916a145550,21/12/1952,2020-09-10_22h55.45.773,proactive3.1,2020.1.2,Win32,60,5f599a131af4471f3d752b7b,5f5ae7002a36a420413399f6,5,,,,,,mushroom,,,,,,0,4,4,25,1,3,2,,,,,,,,,,,,,,,,,,,,,,,,,,,,,,,,,,,,,,,,,,,,,,,,,,,,,,,,,,,,,,,,,,,,,,,,,,,,,,,,,,,,,,,,,,,,,,,,,,,,,,,,,,,,,
,,,,,,,,,,stimuli/images/PICTURE_215.png,BOYS,5dd9951efef7c2916a145550,21/12/1952,2020-09-10_22h55.45.773,proactive3.1,2020.1.2,Win32,60,5f599a131af4471f3d752b7b,5f5ae7002a36a420413399f6,5,,,,,,boot,,,,,,0,5,5,24,1,3,2,,,,,,,,,,,,,,,,,,,,,,,,,,,,,,,,,,,,,,,,,,,,,,,,,,,,,,,,,,,,,,,,,,,,,,,,,,,,,,,,,,,,,,,,,,,,,,,,,,,,,,,,,,,,,
,,,,,,,,,,stimuli/images/PICTURE_504.png,HOUSE,5dd9951efef7c2916a145550,21/12/1952,2020-09-10_22h55.45.773,proactive3.1,2020.1.2,Win32,60,5f599a131af4471f3d752b7b,5f5ae7002a36a420413399f6,5,,,,,,wheel,,,,,,0,6,6,36,1,4,2,,,,,,,,,,,,,,,,,,,,,,,,,,,,,,,,,,,,,,,,,,,,,,,,,,,,,,,,,,,,,,,,,,,,,,,,,,,,,,,,,,,,,,,,,,,,,,,,,,,,,,,,,,,,,
,,,,,,,,,,stimuli/images/PICTURE_93.png,GIRL,5dd9951efef7c2916a145550,21/12/1952,2020-09-10_22h55.45.773,proactive3.1,2020.1.2,Win32,60,5f599a131af4471f3d752b7b,5f5ae7002a36a420413399f6,5,,,,,,skateboard,,,,,,0,7,7,31,1,4,2,,,,,,,,,,,,,,,,,,,,,,,,,,,,,,,,,,,,,,,,,,,,,,,,,,,,,,,,,,,,,,,,,,,,,,,,,,,,,,,,,,,,,,,,,,,,,,,,,,,,,,,,,,,,,
,,,,,,,,,,stimuli/images/PICTURE_123.png,SALE,5dd9951efef7c2916a145550,21/12/1952,2020-09-10_22h55.45.773,proactive3.1,2020.1.2,Win32,60,5f599a131af4471f3d752b7b,5f5ae7002a36a420413399f6,5,,,,,,dart,,,,,,0,8,8,8,1,1,2,,,,,,,,,,,,,,,,,,,,,,,,,,,,,,,,,,,,,,,,,,,,,,,,,,,,,,,,,,,,,,,,,,,,,,,,,,,,,,,,,,,,,,,,,,,,,,,,,,,,,,,,,,,,,
,,,,,,,,,,stimuli/images/PICTURE_141.png,CLIENT,5dd9951efef7c2916a145550,21/12/1952,2020-09-10_22h55.45.773,proactive3.1,2020.1.2,Win32,60,5f599a131af4471f3d752b7b,5f5ae7002a36a420413399f6,5,,,,,,sunflower,,,,,,0,9,9,30,1,4,2,,,,,,,,,,,,,,,,,,,,,,,,,,,,,,,,,,,,,,,,,,,,,,,,,,,,,,,,,,,,,,,,,,,,,,,,,,,,,,,,,,,,,,,,,,,,,,,,,,,,,,,,,,,,,
,,,,,,,,,,stimuli/images/PICTURE_487.png,POLICY,5dd9951efef7c2916a145550,21/12/1952,2020-09-10_22h55.45.773,proactive3.1,2020.1.2,Win32,60,5f599a131af4471f3d752b7b,5f5ae7002a36a420413399f6,5,,,,,,basket,,,,,,0,10,10,34,1,4,2,,,,,,,,,,,,,,,,,,,,,,,,,,,,,,,,,,,,,,,,,,,,,,,,,,,,,,,,,,,,,,,,,,,,,,,,,,,,,,,,,,,,,,,,,,,,,,,,,,,,,,,,,,,,,
,,,,,,,,,,stimuli/images/PICTURE_509.png,APPLE,5dd9951efef7c2916a145550,21/12/1952,2020-09-10_22h55.45.773,proactive3.1,2020.1.2,Win32,60,5f599a131af4471f3d752b7b,5f5ae7002a36a420413399f6,5,,,,,,telephone,,,,,,0,11,11,38,1,4,2,,,,,,,,,,,,,,,,,,,,,,,,,,,,,,,,,,,,,,,,,,,,,,,,,,,,,,,,,,,,,,,,,,,,,,,,,,,,,,,,,,,,,,,,,,,,,,,,,,,,,,,,,,,,,
,,,,,,,,,,stimuli/images/PICTURE_296.png,CLOCK,5dd9951efef7c2916a145550,21/12/1952,2020-09-10_22h55.45.773,proactive3.1,2020.1.2,Win32,60,5f599a131af4471f3d752b7b,5f5ae7002a36a420413399f6,5,,,,,,bolt,,,,,,0,12,12,18,1,2,2,,,,,,,,,,,,,,,,,,,,,,,,,,,,,,,,,,,,,,,,,,,,,,,,,,,,,,,,,,,,,,,,,,,,,,,,,,,,,,,,,,,,,,,,,,,,,,,,,,,,,,,,,,,,,
,,,,,,,,,,stimuli/images/PICTURE_509.png,BATH,5dd9951efef7c2916a145550,21/12/1952,2020-09-10_22h55.45.773,proactive3.1,2020.1.2,Win32,60,5f599a131af4471f3d752b7b,5f5ae7002a36a420413399f6,5,,,,,,telephone,,,,,,0,13,13,15,1,2,2,,,,,,,,,,,,,,,,,,,,,,,,,,,,,,,,,,,,,,,,,,,,,,,,,,,,,,,,,,,,,,,,,,,,,,,,,,,,,,,,,,,,,,,,,,,,,,,,,,,,,,,,,,,,,
,,,,,,,,,,stimuli/images/PICTURE_750.png,POLICY,5dd9951efef7c2916a145550,21/12/1952,2020-09-10_22h55.45.773,proactive3.1,2020.1.2,Win32,60,5f599a131af4471f3d752b7b,5f5ae7002a36a420413399f6,5,,,,,,kettle,,,,,,0,14,14,44,1,5,2,,,,,,,,,,,,,,,,,,,,,,,,,,,,,,,,,,,,,,,,,,,,,,,,,,,,,,,,,,,,,,,,,,,,,,,,,,,,,,,,,,,,,,,,,,,,,,,,,,,,,,,,,,,,,
,,,,,,,,,,stimuli/images/PICTURE_215.png,FOOD,5dd9951efef7c2916a145550,21/12/1952,2020-09-10_22h55.45.773,proactive3.1,2020.1.2,Win32,60,5f599a131af4471f3d752b7b,5f5ae7002a36a420413399f6,5,,,,,,boot,,,,,,0,15,15,5,1,1,2,,,,,,,,,,,,,,,,,,,,,,,,,,,,,,,,,,,,,,,,,,,,,,,,,,,,,,,,,,,,,,,,,,,,,,,,,,,,,,,,,,,,,,,,,,,,,,,,,,,,,,,,,,,,,
,,,,,,,,,,stimuli/images/PICTURE_160.png,HOTEL,5dd9951efef7c2916a145550,21/12/1952,2020-09-10_22h55.45.773,proactive3.1,2020.1.2,Win32,60,5f599a131af4471f3d752b7b,5f5ae7002a36a420413399f6,5,,,,,,wheelbarrow,,,,,,0,16,16,16,1,2,2,,,,,,,,,,,,,,,,,,,,,,,,,,,,,,,,,,,,,,,,,,,,,,,,,,,,,,,,,,,,,,,,,,,,,,,,,,,,,,,,,,,,,,,,,,,,,,,,,,,,,,,,,,,,,
,,,,,,,,,,stimuli/images/PICTURE_33.png,COPS,5dd9951efef7c2916a145550,21/12/1952,2020-09-10_22h55.45.773,proactive3.1,2020.1.2,Win32,60,5f599a131af4471f3d752b7b,5f5ae7002a36a420413399f6,5,,,,,,frame,,,,,,0,17,17,29,1,3,2,,,,,,,,,,,,,,,,,,,,,,,,,,,,,,,,,,,,,,,,,,,,,,,,,,,,,,,,,,,,,,,,,,,,,,,,,,,,,,,,,,,,,,,,,,,,,,,,,,,,,,,,,,,,,
,,,,,,,,,,stimuli/images/PICTURE_68.png,KIND,5dd9951efef7c2916a145550,21/12/1952,2020-09-10_22h55.45.773,proactive3.1,2020.1.2,Win32,60,5f599a131af4471f3d752b7b,5f5ae7002a36a420413399f6,5,,,,,,candle,,,,,,0,18,18,23,1,3,2,,,,,,,,,,,,,,,,,,,,,,,,,,,,,,,,,,,,,,,,,,,,,,,,,,,,,,,,,,,,,,,,,,,,,,,,,,,,,,,,,,,,,,,,,,,,,,,,,,,,,,,,,,,,,
,,,,,,,,,,stimuli/images/PICTURE_692.png,DUDE,5dd9951efef7c2916a145550,21/12/1952,2020-09-10_22h55.45.773,proactive3.1,2020.1.2,Win32,60,5f599a131af4471f3d752b7b,5f5ae7002a36a420413399f6,5,,,,,,cherry,,,,,,0,19,19,47,1,5,2,,,,,,,,,,,,,,,,,,,,,,,,,,,,,,,,,,,,,,,,,,,,,,,,,,,,,,,,,,,,,,,,,,,,,,,,,,,,,,,,,,,,,,,,,,,,,,,,,,,,,,,,,,,,,
,,,,,,,,,,stimuli/images/PICTURE_57.png,CASINO,5dd9951efef7c2916a145550,21/12/1952,2020-09-10_22h55.45.773,proactive3.1,2020.1.2,Win32,60,5f599a131af4471f3d752b7b,5f5ae7002a36a420413399f6,5,,,,,,stamp,,,,,,0,20,20,12,1,2,2,,,,,,,,,,,,,,,,,,,,,,,,,,,,,,,,,,,,,,,,,,,,,,,,,,,,,,,,,,,,,,,,,,,,,,,,,,,,,,,,,,,,,,,,,,,,,,,,,,,,,,,,,,,,,
,,,,,,,,,,stimuli/images/PICTURE_208.png,SPIRIT,5dd9951efef7c2916a145550,21/12/1952,2020-09-10_22h55.45.773,proactive3.1,2020.1.2,Win32,60,5f599a131af4471f3d752b7b,5f5ae7002a36a420413399f6,5,,,,,,microphone,,,,,,0,21,21,28,1,3,2,,,,,,,,,,,,,,,,,,,,,,,,,,,,,,,,,,,,,,,,,,,,,,,,,,,,,,,,,,,,,,,,,,,,,,,,,,,,,,,,,,,,,,,,,,,,,,,,,,,,,,,,,,,,,
,,,,,,,,,,stimuli/images/PICTURE_311.png,TOILET,5dd9951efef7c2916a145550,21/12/1952,2020-09-10_22h55.45.773,proactive3.1,2020.1.2,Win32,60,5f599a131af4471f3d752b7b,5f5ae7002a36a420413399f6,5,,,,,,razor,,,,,,0,22,22,54,1,6,2,,,,,,,,,,,,,,,,,,,,,,,,,,,,,,,,,,,,,,,,,,,,,,,,,,,,,,,,,,,,,,,,,,,,,,,,,,,,,,,,,,,,,,,,,,,,,,,,,,,,,,,,,,,,,
,,,,,,,,,,stimuli/images/PICTURE_285.png,WRITER,5dd9951efef7c2916a145550,21/12/1952,2020-09-10_22h55.45.773,proactive3.1,2020.1.2,Win32,60,5f599a131af4471f3d752b7b,5f5ae7002a36a420413399f6,5,,,,,,carrot,,,,,,0,23,23,6,1,1,2,,,,,,,,,,,,,,,,,,,,,,,,,,,,,,,,,,,,,,,,,,,,,,,,,,,,,,,,,,,,,,,,,,,,,,,,,,,,,,,,,,,,,,,,,,,,,,,,,,,,,,,,,,,,,
,,,,,,,,,,stimuli/images/PICTURE_564.png,PLENTY,5dd9951efef7c2916a145550,21/12/1952,2020-09-10_22h55.45.773,proactive3.1,2020.1.2,Win32,60,5f599a131af4471f3d752b7b,5f5ae7002a36a420413399f6,5,,,,,,spoon,,,,,,0,24,24,11,1,2,2,,,,,,,,,,,,,,,,,,,,,,,,,,,,,,,,,,,,,,,,,,,,,,,,,,,,,,,,,,,,,,,,,,,,,,,,,,,,,,,,,,,,,,,,,,,,,,,,,,,,,,,,,,,,,
,,,,,,,,,,stimuli/images/PICTURE_2.png,YARD,5dd9951efef7c2916a145550,21/12/1952,2020-09-10_22h55.45.773,proactive3.1,2020.1.2,Win32,60,5f599a131af4471f3d752b7b,5f5ae7002a36a420413399f6,5,,,,,,tyre,,,,,,0,25,25,55,1,6,2,,,,,,,,,,,,,,,,,,,,,,,,,,,,,,,,,,,,,,,,,,,,,,,,,,,,,,,,,,,,,,,,,,,,,,,,,,,,,,,,,,,,,,,,,,,,,,,,,,,,,,,,,,,,,
,,,,,,,,,,stimuli/images/PICTURE_655.png,SALE,5dd9951efef7c2916a145550,21/12/1952,2020-09-10_22h55.45.773,proactive3.1,2020.1.2,Win32,60,5f599a131af4471f3d752b7b,5f5ae7002a36a420413399f6,5,,,,,,megaphone,,,,,,0,26,26,57,1,6,2,,,,,,,,,,,,,,,,,,,,,,,,,,,,,,,,,,,,,,,,,,,,,,,,,,,,,,,,,,,,,,,,,,,,,,,,,,,,,,,,,,,,,,,,,,,,,,,,,,,,,,,,,,,,,
,,,,,,,,,,stimuli/images/PICTURE_18.png,RIVER,5dd9951efef7c2916a145550,21/12/1952,2020-09-10_22h55.45.773,proactive3.1,2020.1.2,Win32,60,5f599a131af4471f3d752b7b,5f5ae7002a36a420413399f6,5,,,,,,planet,,,,,,0,27,27,22,1,3,2,,,,,,,,,,,,,,,,,,,,,,,,,,,,,,,,,,,,,,,,,,,,,,,,,,,,,,,,,,,,,,,,,,,,,,,,,,,,,,,,,,,,,,,,,,,,,,,,,,,,,,,,,,,,,
,,,,,,,,,,stimuli/images/PICTURE_470.png,MOMENT,5dd9951efef7c2916a145550,21/12/1952,2020-09-10_22h55.45.773,proactive3.1,2020.1.2,Win32,60,5f599a131af4471f3d752b7b,5f5ae7002a36a420413399f6,5,,,,,,motorbike,,,,,,0,28,28,40,1,5,2,,,,,,,,,,,,,,,,,,,,,,,,,,,,,,,,,,,,,,,,,,,,,,,,,,,,,,,,,,,,,,,,,,,,,,,,,,,,,,,,,,,,,,,,,,,,,,,,,,,,,,,,,,,,,
,,,,,,,,,,stimuli/images/PICTURE_509.png,MILLER,5dd9951efef7c2916a145550,21/12/1952,2020-09-10_22h55.45.773,proactive3.1,2020.1.2,Win32,60,5f599a131af4471f3d752b7b,5f5ae7002a36a420413399f6,5,,,,,,telephone,,,,,,0,29,29,49,1,5,2,,,,,,,,,,,,,,,,,,,,,,,,,,,,,,,,,,,,,,,,,,,,,,,,,,,,,,,,,,,,,,,,,,,,,,,,,,,,,,,,,,,,,,,,,,,,,,,,,,,,,,,,,,,,,
,,,,,,,,,,stimuli/images/PICTURE_667.png,GLASS,5dd9951efef7c2916a145550,21/12/1952,2020-09-10_22h55.45.773,proactive3.1,2020.1.2,Win32,60,5f599a131af4471f3d752b7b,5f5ae7002a36a420413399f6,5,,,,,,daisy,,,,,,0,30,30,27,1,3,2,,,,,,,,,,,,,,,,,,,,,,,,,,,,,,,,,,,,,,,,,,,,,,,,,,,,,,,,,,,,,,,,,,,,,,,,,,,,,,,,,,,,,,,,,,,,,,,,,,,,,,,,,,,,,
,,,,,,,,,,stimuli/images/PICTURE_405.png,HOUSE,5dd9951efef7c2916a145550,21/12/1952,2020-09-10_22h55.45.773,proactive3.1,2020.1.2,Win32,60,5f599a131af4471f3d752b7b,5f5ae7002a36a420413399f6,5,,,,,,anchor,,,,,,0,31,31,2,1,1,2,,,,,,,,,,,,,,,,,,,,,,,,,,,,,,,,,,,,,,,,,,,,,,,,,,,,,,,,,,,,,,,,,,,,,,,,,,,,,,,,,,,,,,,,,,,,,,,,,,,,,,,,,,,,,
,,,,,,,,,,stimuli/images/PICTURE_405.png,JUNGLE,5dd9951efef7c2916a145550,21/12/1952,2020-09-10_22h55.45.773,proactive3.1,2020.1.2,Win32,60,5f599a131af4471f3d752b7b,5f5ae7002a36a420413399f6,5,,,,,,anchor,,,,,,0,32,32,58,1,6,2,,,,,,,,,,,,,,,,,,,,,,,,,,,,,,,,,,,,,,,,,,,,,,,,,,,,,,,,,,,,,,,,,,,,,,,,,,,,,,,,,,,,,,,,,,,,,,,,,,,,,,,,,,,,,
,,,,,,,,,,stimuli/images/PICTURE_311.png,FLESH,5dd9951efef7c2916a145550,21/12/1952,2020-09-10_22h55.45.773,proactive3.1,2020.1.2,Win32,60,5f599a131af4471f3d752b7b,5f5ae7002a36a420413399f6,5,,,,,,razor,,,,,,0,33,33,3,1,1,2,,,,,,,,,,,,,,,,,,,,,,,,,,,,,,,,,,,,,,,,,,,,,,,,,,,,,,,,,,,,,,,,,,,,,,,,,,,,,,,,,,,,,,,,,,,,,,,,,,,,,,,,,,,,,
,,,,,,,,,,stimuli/images/PICTURE_688.png,CLOCK,5dd9951efef7c2916a145550,21/12/1952,2020-09-10_22h55.45.773,proactive3.1,2020.1.2,Win32,60,5f599a131af4471f3d752b7b,5f5ae7002a36a420413399f6,5,,,,,,runner,,,,,,0,34,34,42,1,5,2,,,,,,,,,,,,,,,,,,,,,,,,,,,,,,,,,,,,,,,,,,,,,,,,,,,,,,,,,,,,,,,,,,,,,,,,,,,,,,,,,,,,,,,,,,,,,,,,,,,,,,,,,,,,,
,,,,,,,,,,stimuli/images/PICTURE_57.png,CANDY,5dd9951efef7c2916a145550,21/12/1952,2020-09-10_22h55.45.773,proactive3.1,2020.1.2,Win32,60,5f599a131af4471f3d752b7b,5f5ae7002a36a420413399f6,5,,,,,,stamp,,,,,,0,35,35,52,1,6,2,,,,,,,,,,,,,,,,,,,,,,,,,,,,,,,,,,,,,,,,,,,,,,,,,,,,,,,,,,,,,,,,,,,,,,,,,,,,,,,,,,,,,,,,,,,,,,,,,,,,,,,,,,,,,
,,,,,,,,,,stimuli/images/PICTURE_348.png,DUDE,5dd9951efef7c2916a145550,21/12/1952,2020-09-10_22h55.45.773,proactive3.1,2020.1.2,Win32,60,5f599a131af4471f3d752b7b,5f5ae7002a36a420413399f6,5,,,,,,pepper,,,,,,0,36,36,59,1,6,2,,,,,,,,,,,,,,,,,,,,,,,,,,,,,,,,,,,,,,,,,,,,,,,,,,,,,,,,,,,,,,,,,,,,,,,,,,,,,,,,,,,,,,,,,,,,,,,,,,,,,,,,,,,,,
,,,,,,,,,,stimuli/images/PICTURE_453.png,FAMILY,5dd9951efef7c2916a145550,21/12/1952,2020-09-10_22h55.45.773,proactive3.1,2020.1.2,Win32,60,5f599a131af4471f3d752b7b,5f5ae7002a36a420413399f6,5,,,,,,scissors,,,,,,0,37,37,48,1,5,2,,,,,,,,,,,,,,,,,,,,,,,,,,,,,,,,,,,,,,,,,,,,,,,,,,,,,,,,,,,,,,,,,,,,,,,,,,,,,,,,,,,,,,,,,,,,,,,,,,,,,,,,,,,,,
,,,,,,,,,,stimuli/images/PICTURE_255.png,PENNY,5dd9951efef7c2916a145550,21/12/1952,2020-09-10_22h55.45.773,proactive3.1,2020.1.2,Win32,60,5f599a131af4471f3d752b7b,5f5ae7002a36a420413399f6,5,,,,,,shovel,,,,,,0,38,38,19,1,2,2,,,,,,,,,,,,,,,,,,,,,,,,,,,,,,,,,,,,,,,,,,,,,,,,,,,,,,,,,,,,,,,,,,,,,,,,,,,,,,,,,,,,,,,,,,,,,,,,,,,,,,,,,,,,,
,,,,,,,,,,stimuli/images/PICTURE_2.png,AREA,5dd9951efef7c2916a145550,21/12/1952,2020-09-10_22h55.45.773,proactive3.1,2020.1.2,Win32,60,5f599a131af4471f3d752b7b,5f5ae7002a36a420413399f6,5,,,,,,tyre,,,,,,0,39,39,32,1,4,2,,,,,,,,,,,,,,,,,,,,,,,,,,,,,,,,,,,,,,,,,,,,,,,,,,,,,,,,,,,,,,,,,,,,,,,,,,,,,,,,,,,,,,,,,,,,,,,,,,,,,,,,,,,,,
,,,,,,,,,,stimuli/images/PICTURE_57.png,NATION,5dd9951efef7c2916a145550,21/12/1952,2020-09-10_22h55.45.773,proactive3.1,2020.1.2,Win32,60,5f599a131af4471f3d752b7b,5f5ae7002a36a420413399f6,5,,,,,,stamp,,,,,,0,40,40,21,1,3,2,,,,,,,,,,,,,,,,,,,,,,,,,,,,,,,,,,,,,,,,,,,,,,,,,,,,,,,,,,,,,,,,,,,,,,,,,,,,,,,,,,,,,,,,,,,,,,,,,,,,,,,,,,,,,
,,,,,,,,,,stimuli/images/PICTURE_487.png,ROOF,5dd9951efef7c2916a145550,21/12/1952,2020-09-10_22h55.45.773,proactive3.1,2020.1.2,Win32,60,5f599a131af4471f3d752b7b,5f5ae7002a36a420413399f6,5,,,,,,basket,,,,,,0,41,41,50,1,6,2,,,,,,,,,,,,,,,,,,,,,,,,,,,,,,,,,,,,,,,,,,,,,,,,,,,,,,,,,,,,,,,,,,,,,,,,,,,,,,,,,,,,,,,,,,,,,,,,,,,,,,,,,,,,,
,,,,,,,,,,stimuli/images/PICTURE_509.png,SHOTS,5dd9951efef7c2916a145550,21/12/1952,2020-09-10_22h55.45.773,proactive3.1,2020.1.2,Win32,60,5f599a131af4471f3d752b7b,5f5ae7002a36a420413399f6,5,,,,,,telephone,,,,,,0,42,42,7,1,1,2,,,,,,,,,,,,,,,,,,,,,,,,,,,,,,,,,,,,,,,,,,,,,,,,,,,,,,,,,,,,,,,,,,,,,,,,,,,,,,,,,,,,,,,,,,,,,,,,,,,,,,,,,,,,,
,,,,,,,,,,stimuli/images/PICTURE_348.png,TOILET,5dd9951efef7c2916a145550,21/12/1952,2020-09-10_22h55.45.773,proactive3.1,2020.1.2,Win32,60,5f599a131af4471f3d752b7b,5f5ae7002a36a420413399f6,5,,,,,,pepper,,,,,,0,43,43,4,1,1,2,,,,,,,,,,,,,,,,,,,,,,,,,,,,,,,,,,,,,,,,,,,,,,,,,,,,,,,,,,,,,,,,,,,,,,,,,,,,,,,,,,,,,,,,,,,,,,,,,,,,,,,,,,,,,
,,,,,,,,,,stimuli/images/PICTURE_314.png,SPEECH,5dd9951efef7c2916a145550,21/12/1952,2020-09-10_22h55.45.773,proactive3.1,2020.1.2,Win32,60,5f599a131af4471f3d752b7b,5f5ae7002a36a420413399f6,5,,,,,,perfume,,,,,,0,44,44,35,1,4,2,,,,,,,,,,,,,,,,,,,,,,,,,,,,,,,,,,,,,,,,,,,,,,,,,,,,,,,,,,,,,,,,,,,,,,,,,,,,,,,,,,,,,,,,,,,,,,,,,,,,,,,,,,,,,
,,,,,,,,,,stimuli/images/PICTURE_677.png,FAMILY,5dd9951efef7c2916a145550,21/12/1952,2020-09-10_22h55.45.773,proactive3.1,2020.1.2,Win32,60,5f599a131af4471f3d752b7b,5f5ae7002a36a420413399f6,5,,,,,,map,,,,,,0,45,45,53,1,6,2,,,,,,,,,,,,,,,,,,,,,,,,,,,,,,,,,,,,,,,,,,,,,,,,,,,,,,,,,,,,,,,,,,,,,,,,,,,,,,,,,,,,,,,,,,,,,,,,,,,,,,,,,,,,,
,,,,,,,,,,stimuli/images/PICTURE_491.png,SERIES,5dd9951efef7c2916a145550,21/12/1952,2020-09-10_22h55.45.773,proactive3.1,2020.1.2,Win32,60,5f599a131af4471f3d752b7b,5f5ae7002a36a420413399f6,5,,,,,,rug,,,,,,0,46,46,39,1,4,2,,,,,,,,,,,,,,,,,,,,,,,,,,,,,,,,,,,,,,,,,,,,,,,,,,,,,,,,,,,,,,,,,,,,,,,,,,,,,,,,,,,,,,,,,,,,,,,,,,,,,,,,,,,,,
,,,,,,,,,,stimuli/images/PICTURE_403.png,FAMILY,5dd9951efef7c2916a145550,21/12/1952,2020-09-10_22h55.45.773,proactive3.1,2020.1.2,Win32,60,5f599a131af4471f3d752b7b,5f5ae7002a36a420413399f6,5,,,,,,cathedral,,,,,,0,47,47,9,1,1,2,,,,,,,,,,,,,,,,,,,,,,,,,,,,,,,,,,,,,,,,,,,,,,,,,,,,,,,,,,,,,,,,,,,,,,,,,,,,,,,,,,,,,,,,,,,,,,,,,,,,,,,,,,,,,
,,,,,,,,,,stimuli/images/PICTURE_677.png,PHOTO,5dd9951efef7c2916a145550,21/12/1952,2020-09-10_22h55.45.773,proactive3.1,2020.1.2,Win32,60,5f599a131af4471f3d752b7b,5f5ae7002a36a420413399f6,5,,,,,,map,,,,,,0,48,48,14,1,2,2,,,,,,,,,,,,,,,,,,,,,,,,,,,,,,,,,,,,,,,,,,,,,,,,,,,,,,,,,,,,,,,,,,,,,,,,,,,,,,,,,,,,,,,,,,,,,,,,,,,,,,,,,,,,,
,,,,,,,,,,stimuli/images/PICTURE_327.png,LEADER,5dd9951efef7c2916a145550,21/12/1952,2020-09-10_22h55.45.773,proactive3.1,2020.1.2,Win32,60,5f599a131af4471f3d752b7b,5f5ae7002a36a420413399f6,5,,,,,,helmet,,,,,,0,49,49,17,1,2,2,,,,,,,,,,,,,,,,,,,,,,,,,,,,,,,,,,,,,,,,,,,,,,,,,,,,,,,,,,,,,,,,,,,,,,,,,,,,,,,,,,,,,,,,,,,,,,,,,,,,,,,,,,,,,
,,,,,,,,,,stimuli/images/PICTURE_405.png,JUNGLE,5dd9951efef7c2916a145550,21/12/1952,2020-09-10_22h55.45.773,proactive3.1,2020.1.2,Win32,60,5f599a131af4471f3d752b7b,5f5ae7002a36a420413399f6,5,,,,,,anchor,,,,,,0,50,50,13,1,2,2,,,,,,,,,,,,,,,,,,,,,,,,,,,,,,,,,,,,,,,,,,,,,,,,,,,,,,,,,,,,,,,,,,,,,,,,,,,,,,,,,,,,,,,,,,,,,,,,,,,,,,,,,,,,,
,,,,,,,,,,stimuli/images/PICTURE_356.png,CANDY,5dd9951efef7c2916a145550,21/12/1952,2020-09-10_22h55.45.773,proactive3.1,2020.1.2,Win32,60,5f599a131af4471f3d752b7b,5f5ae7002a36a420413399f6,5,,,,,,pawn,,,,,,0,51,51,46,1,5,2,,,,,,,,,,,,,,,,,,,,,,,,,,,,,,,,,,,,,,,,,,,,,,,,,,,,,,,,,,,,,,,,,,,,,,,,,,,,,,,,,,,,,,,,,,,,,,,,,,,,,,,,,,,,,
,,,,,,,,,,stimuli/images/PICTURE_147.png,LEADER,5dd9951efef7c2916a145550,21/12/1952,2020-09-10_22h55.45.773,proactive3.1,2020.1.2,Win32,60,5f599a131af4471f3d752b7b,5f5ae7002a36a420413399f6,5,,,,,,hanger,,,,,,0,52,52,33,1,4,2,,,,,,,,,,,,,,,,,,,,,,,,,,,,,,,,,,,,,,,,,,,,,,,,,,,,,,,,,,,,,,,,,,,,,,,,,,,,,,,,,,,,,,,,,,,,,,,,,,,,,,,,,,,,,
,,,,,,,,,,stimuli/images/PICTURE_2.png,JUNGLE,5dd9951efef7c2916a145550,21/12/1952,2020-09-10_22h55.45.773,proactive3.1,2020.1.2,Win32,60,5f599a131af4471f3d752b7b,5f5ae7002a36a420413399f6,5,,,,,,tyre,,,,,,0,53,53,1,1,1,2,,,,,,,,,,,,,,,,,,,,,,,,,,,,,,,,,,,,,,,,,,,,,,,,,,,,,,,,,,,,,,,,,,,,,,,,,,,,,,,,,,,,,,,,,,,,,,,,,,,,,,,,,,,,,
,,,,,,,,,,stimuli/images/PICTURE_297.png,BODY,5dd9951efef7c2916a145550,21/12/1952,2020-09-10_22h55.45.773,proactive3.1,2020.1.2,Win32,60,5f599a131af4471f3d752b7b,5f5ae7002a36a420413399f6,5,,,,,,aeroplane,,,,,,0,54,54,51,1,6,2,,,,,,,,,,,,,,,,,,,,,,,,,,,,,,,,,,,,,,,,,,,,,,,,,,,,,,,,,,,,,,,,,,,,,,,,,,,,,,,,,,,,,,,,,,,,,,,,,,,,,,,,,,,,,
,,,,,,,,,,stimuli/images/PICTURE_32.png,LETTER,5dd9951efef7c2916a145550,21/12/1952,2020-09-10_22h55.45.773,proactive3.1,2020.1.2,Win32,60,5f599a131af4471f3d752b7b,5f5ae7002a36a420413399f6,5,,,,,,crown,,,,,,0,55,55,56,1,6,2,,,,,,,,,,,,,,,,,,,,,,,,,,,,,,,,,,,,,,,,,,,,,,,,,,,,,,,,,,,,,,,,,,,,,,,,,,,,,,,,,,,,,,,,,,,,,,,,,,,,,,,,,,,,,
,,,,,,,,,,stimuli/images/PICTURE_452.png,COPS,5dd9951efef7c2916a145550,21/12/1952,2020-09-10_22h55.45.773,proactive3.1,2020.1.2,Win32,60,5f599a131af4471f3d752b7b,5f5ae7002a36a420413399f6,5,,,,,,watch,,,,,,0,56,56,0,1,1,2,,,,,,,,,,,,,,,,,,,,,,,,,,,,,,,,,,,,,,,,,,,,,,,,,,,,,,,,,,,,,,,,,,,,,,,,,,,,,,,,,,,,,,,,,,,,,,,,,,,,,,,,,,,,,
,,,,,,,,,,stimuli/images/PICTURE_215.png,LEADER,5dd9951efef7c2916a145550,21/12/1952,2020-09-10_22h55.45.773,proactive3.1,2020.1.2,Win32,60,5f599a131af4471f3d752b7b,5f5ae7002a36a420413399f6,5,,,,,,boot,,,,,,0,57,57,43,1,5,2,,,,,,,,,,,,,,,,,,,,,,,,,,,,,,,,,,,,,,,,,,,,,,,,,,,,,,,,,,,,,,,,,,,,,,,,,,,,,,,,,,,,,,,,,,,,,,,,,,,,,,,,,,,,,
,,,,,,,,,,stimuli/images/PICTURE_285.png,PRINCE,5dd9951efef7c2916a145550,21/12/1952,2020-09-10_22h55.45.773,proactive3.1,2020.1.2,Win32,60,5f599a131af4471f3d752b7b,5f5ae7002a36a420413399f6,5,,,,,,carrot,,,,,,0,58,58,20,1,3,2,,,,,,,,,,,,,,,,,,,,,,,,,,,,,,,,,,,,,,,,,,,,,,,,,,,,,,,,,,,,,,,,,,,,,,,,,,,,,,,,,,,,,,,,,,,,,,,,,,,,,,,,,,,,,
,,?,5.98113,0,,,,,,stimuli/images/PICTURE_708.png,VALLEY,5dd9951efef7c2916a145550,21/12/1952,2020-09-10_22h55.45.773,proactive3.1,2020.1.2,Win32,60,5f599a131af4471f3d752b7b,5f5ae7002a36a420413399f6,5,,,,,,monkey,,,,,,,,,,,5,2,0,0,0,45,1,,,,,,,,,,,,,,,,,,,,,,,,,,,,,,,,,,,,,,,,,,,,,,,,,,,,,,,,,,,,,,,,,,,,,,,,,,,,,,,,,,,,,,,,,,,,,,,,,,,,,,,,
,,?,0.00161,0,,,,,,stimuli/images/PICTURE_68.png,KIND,5dd9951efef7c2916a145550,21/12/1952,2020-09-10_22h55.45.773,proactive3.1,2020.1.2,Win32,60,5f599a131af4471f3d752b7b,5f5ae7002a36a420413399f6,5,,,,,,candle,,,,,,,,,,,3,2,0,1,1,23,1,,,,,,,,,,,,,,,,,,,,,,,,,,,,,,,,,,,,,,,,,,,,,,,,,,,,,,,,,,,,,,,,,,,,,,,,,,,,,,,,,,,,,,,,,,,,,,,,,,,,,,,,
,,?,0.00038,0,,,,,,stimuli/images/PICTURE_57.png,CANDY,5dd9951efef7c2916a145550,21/12/1952,2020-09-10_22h55.45.773,proactive3.1,2020.1.2,Win32,60,5f599a131af4471f3d752b7b,5f5ae7002a36a420413399f6,5,,,,,,stamp,,,,,,,,,,,6,2,0,2,2,52,1,,,,,,,,,,,,,,,,,,,,,,,,,,,,,,,,,,,,,,,,,,,,,,,,,,,,,,,,,,,,,,,,,,,,,,,,,,,,,,,,,,,,,,,,,,,,,,,,,,,,,,,,
,,?,0.000345,0,,,,,,stimuli/images/PICTURE_405.png,JUNGLE,5dd9951efef7c2916a145550,21/12/1952,2020-09-10_22h55.45.773,proactive3.1,2020.1.2,Win32,60,5f599a131af4471f3d752b7b,5f5ae7002a36a420413399f6,5,,,,,,anchor,,,,,,,,,,,2,2,0,3,3,13,1,,,,,,,,,,,,,,,,,,,,,,,,,,,,,,,,,,,,,,,,,,,,,,,,,,,,,,,,,,,,,,,,,,,,,,,,,,,,,,,,,,,,,,,,,,,,,,,,,,,,,,,,
,,?,0.00034,0,,,,,,stimuli/images/PICTURE_57.png,NATION,5dd9951efef7c2916a145550,21/12/1952,2020-09-10_22h55.45.773,proactive3.1,2020.1.2,Win32,60,5f599a131af4471f3d752b7b,5f5ae7002a36a420413399f6,5,,,,,,stamp,,,,,,,,,,,3,2,0,4,4,21,1,,,,,,,,,,,,,,,,,,,,,,,,,,,,,,,,,,,,,,,,,,,,,,,,,,,,,,,,,,,,,,,,,,,,,,,,,,,,,,,,,,,,,,,,,,,,,,,,,,,,,,,,
,,?,0.00035,0,,,,,,stimuli/images/PICTURE_327.png,LEADER,5dd9951efef7c2916a145550,21/12/1952,2020-09-10_22h55.45.773,proactive3.1,2020.1.2,Win32,60,5f599a131af4471f3d752b7b,5f5ae7002a36a420413399f6,5,,,,,,helmet,,,,,,,,,,,2,2,0,5,5,17,1,,,,,,,,,,,,,,,,,,,,,,,,,,,,,,,,,,,,,,,,,,,,,,,,,,,,,,,,,,,,,,,,,,,,,,,,,,,,,,,,,,,,,,,,,,,,,,,,,,,,,,,,
,,?,0.000345,0,,,,,,stimuli/images/PICTURE_655.png,SALE,5dd9951efef7c2916a145550,21/12/1952,2020-09-10_22h55.45.773,proactive3.1,2020.1.2,Win32,60,5f599a131af4471f3d752b7b,5f5ae7002a36a420413399f6,5,,,,,,megaphone,,,,,,,,,,,6,2,0,6,6,57,1,,,,,,,,,,,,,,,,,,,,,,,,,,,,,,,,,,,,,,,,,,,,,,,,,,,,,,,,,,,,,,,,,,,,,,,,,,,,,,,,,,,,,,,,,,,,,,,,,,,,,,,,
,,?,0.000345,0,,,,,,stimuli/images/PICTURE_667.png,GLASS,5dd9951efef7c2916a145550,21/12/1952,2020-09-10_22h55.45.773,proactive3.1,2020.1.2,Win32,60,5f599a131af4471f3d752b7b,5f5ae7002a36a420413399f6,5,,,,,,daisy,,,,,,,,,,,3,2,0,7,7,27,1,,,,,,,,,,,,,,,,,,,,,,,,,,,,,,,,,,,,,,,,,,,,,,,,,,,,,,,,,,,,,,,,,,,,,,,,,,,,,,,,,,,,,,,,,,,,,,,,,,,,,,,,
,,?,0.00034,0,,,,,,stimuli/images/PICTURE_215.png,FOOD,5dd9951efef7c2916a145550,21/12/1952,2020-09-10_22h55.45.773,proactive3.1,2020.1.2,Win32,60,5f599a131af4471f3d752b7b,5f5ae7002a36a420413399f6,5,,,,,,boot,,,,,,,,,,,1,2,0,8,8,5,1,,,,,,,,,,,,,,,,,,,,,,,,,,,,,,,,,,,,,,,,,,,,,,,,,,,,,,,,,,,,,,,,,,,,,,,,,,,,,,,,,,,,,,,,,,,,,,,,,,,,,,,,
,,?,0.000345,0,,,,,,stimuli/images/PICTURE_2.png,JUNGLE,5dd9951efef7c2916a145550,21/12/1952,2020-09-10_22h55.45.773,proactive3.1,2020.1.2,Win32,60,5f599a131af4471f3d752b7b,5f5ae7002a36a420413399f6,5,,,,,,tyre,,,,,,,,,,,1,2,0,9,9,1,1,,,,,,,,,,,,,,,,,,,,,,,,,,,,,,,,,,,,,,,,,,,,,,,,,,,,,,,,,,,,,,,,,,,,,,,,,,,,,,,,,,,,,,,,,,,,,,,,,,,,,,,,
,,?,0.000355,0,,,,,,stimuli/images/PICTURE_208.png,SPIRIT,5dd9951efef7c2916a145550,21/12/1952,2020-09-10_22h55.45.773,proactive3.1,2020.1.2,Win32,60,5f599a131af4471f3d752b7b,5f5ae7002a36a420413399f6,5,,,,,,microphone,,,,,,,,,,,3,2,0,10,10,28,1,,,,,,,,,,,,,,,,,,,,,,,,,,,,,,,,,,,,,,,,,,,,,,,,,,,,,,,,,,,,,,,,,,,,,,,,,,,,,,,,,,,,,,,,,,,,,,,,,,,,,,,,
,,?,0.000445,0,,,,,,stimuli/images/PICTURE_487.png,POLICY,5dd9951efef7c2916a145550,21/12/1952,2020-09-10_22h55.45.773,proactive3.1,2020.1.2,Win32,60,5f599a131af4471f3d752b7b,5f5ae7002a36a420413399f6,5,,,,,,basket,,,,,,,,,,,4,2,0,11,11,34,1,,,,,,,,,,,,,,,,,,,,,,,,,,,,,,,,,,,,,,,,,,,,,,,,,,,,,,,,,,,,,,,,,,,,,,,,,,,,,,,,,,,,,,,,,,,,,,,,,,,,,,,,
,,?,0.00048,0,,,,,,stimuli/images/PICTURE_314.png,SPEECH,5dd9951efef7c2916a145550,21/12/1952,2020-09-10_22h55.45.773,proactive3.1,2020.1.2,Win32,60,5f599a131af4471f3d752b7b,5f5ae7002a36a420413399f6,5,,,,,,perfume,,,,,,,,,,,4,2,0,12,12,35,1,,,,,,,,,,,,,,,,,,,,,,,,,,,,,,,,,,,,,,,,,,,,,,,,,,,,,,,,,,,,,,,,,,,,,,,,,,,,,,,,,,,,,,,,,,,,,,,,,,,,,,,,
,,?,0.00047,0,,,,,,stimuli/images/PICTURE_452.png,COPS,5dd9951efef7c2916a145550,21/12/1952,2020-09-10_22h55.45.773,proactive3.1,2020.1.2,Win32,60,5f599a131af4471f3d752b7b,5f5ae7002a36a420413399f6,5,,,,,,watch,,,,,,,,,,,1,2,0,13,13,0,1,,,,,,,,,,,,,,,,,,,,,,,,,,,,,,,,,,,,,,,,,,,,,,,,,,,,,,,,,,,,,,,,,,,,,,,,,,,,,,,,,,,,,,,,,,,,,,,,,,,,,,,,
,,?,0.000345,0,,,,,,stimuli/images/PICTURE_348.png,DUDE,5dd9951efef7c2916a145550,21/12/1952,2020-09-10_22h55.45.773,proactive3.1,2020.1.2,Win32,60,5f599a131af4471f3d752b7b,5f5ae7002a36a420413399f6,5,,,,,,pepper,,,,,,,,,,,6,2,0,14,14,59,1,,,,,,,,,,,,,,,,,,,,,,,,,,,,,,,,,,,,,,,,,,,,,,,,,,,,,,,,,,,,,,,,,,,,,,,,,,,,,,,,,,,,,,,,,,,,,,,,,,,,,,,,
,,?,3.71488,0,,,,,,stimuli/images/PICTURE_654.png,YEAR,5dd9951efef7c2916a145550,21/12/1952,2020-09-10_22h55.45.773,proactive3.1,2020.1.2,Win32,60,5f599a131af4471f3d752b7b,5f5ae7002a36a420413399f6,5,,,,,,pencil,,,,,,,,,,,5,2,0,15,15,41,1,,,,,,,,,,,,,,,,,,,,,,,,,,,,,,,,,,,,,,,,,,,,,,,,,,,,,,,,,,,,,,,,,,,,,,,,,,,,,,,,,,,,,,,,,,,,,,,,,,,,,,,,
,,?,0.001815,0,,,,,,stimuli/images/PICTURE_18.png,RIVER,5dd9951efef7c2916a145550,21/12/1952,2020-09-10_22h55.45.773,proactive3.1,2020.1.2,Win32,60,5f599a131af4471f3d752b7b,5f5ae7002a36a420413399f6,5,,,,,,planet,,,,,,,,,,,3,2,0,16,16,22,1,,,,,,,,,,,,,,,,,,,,,,,,,,,,,,,,,,,,,,,,,,,,,,,,,,,,,,,,,,,,,,,,,,,,,,,,,,,,,,,,,,,,,,,,,,,,,,,,,,,,,,,,
,,?,0.000335,0,,,,,,stimuli/images/PICTURE_123.png,SALE,5dd9951efef7c2916a145550,21/12/1952,2020-09-10_22h55.45.773,proactive3.1,2020.1.2,Win32,60,5f599a131af4471f3d752b7b,5f5ae7002a36a420413399f6,5,,,,,,dart,,,,,,,,,,,1,2,0,17,17,8,1,,,,,,,,,,,,,,,,,,,,,,,,,,,,,,,,,,,,,,,,,,,,,,,,,,,,,,,,,,,,,,,,,,,,,,,,,,,,,,,,,,,,,,,,,,,,,,,,,,,,,,,,
,,?,5.660065,0,,,,,,stimuli/images/PICTURE_688.png,CLOCK,5dd9951efef7c2916a145550,21/12/1952,2020-09-10_22h55.45.773,proactive3.1,2020.1.2,Win32,60,5f599a131af4471f3d752b7b,5f5ae7002a36a420413399f6,5,,,,,,runner,,,,,,,,,,,5,2,0,18,18,42,1,,,,,,,,,,,,,,,,,,,,,,,,,,,,,,,,,,,,,,,,,,,,,,,,,,,,,,,,,,,,,,,,,,,,,,,,,,,,,,,,,,,,,,,,,,,,,,,,,,,,,,,,
,,?,0.00154,0,,,,,,stimuli/images/PICTURE_311.png,FLESH,5dd9951efef7c2916a145550,21/12/1952,2020-09-10_22h55.45.773,proactive3.1,2020.1.2,Win32,60,5f599a131af4471f3d752b7b,5f5ae7002a36a420413399f6,5,,,,,,razor,,,,,,,,,,,1,2,0,19,19,3,1,,,,,,,,,,,,,,,,,,,,,,,,,,,,,,,,,,,,,,,,,,,,,,,,,,,,,,,,,,,,,,,,,,,,,,,,,,,,,,,,,,,,,,,,,,,,,,,,,,,,,,,,
,,?,0.00038,0,,,,,,stimuli/images/PICTURE_564.png,PLENTY,5dd9951efef7c2916a145550,21/12/1952,2020-09-10_22h55.45.773,proactive3.1,2020.1.2,Win32,60,5f599a131af4471f3d752b7b,5f5ae7002a36a420413399f6,5,,,,,,spoon,,,,,,,,,,,2,2,0,20,20,11,1,,,,,,,,,,,,,,,,,,,,,,,,,,,,,,,,,,,,,,,,,,,,,,,,,,,,,,,,,,,,,,,,,,,,,,,,,,,,,,,,,,,,,,,,,,,,,,,,,,,,,,,,
,,?,0.000335,0,,,,,,stimuli/images/PICTURE_470.png,BEAUTY,5dd9951efef7c2916a145550,21/12/1952,2020-09-10_22h55.45.773,proactive3.1,2020.1.2,Win32,60,5f599a131af4471f3d752b7b,5f5ae7002a36a420413399f6,5,,,,,,motorbike,,,,,,,,,,,3,2,0,21,21,26,1,,,,,,,,,,,,,,,,,,,,,,,,,,,,,,,,,,,,,,,,,,,,,,,,,,,,,,,,,,,,,,,,,,,,,,,,,,,,,,,,,,,,,,,,,,,,,,,,,,,,,,,,
,,?,0.00035,0,,,,,,stimuli/images/PICTURE_255.png,PENNY,5dd9951efef7c2916a145550,21/12/1952,2020-09-10_22h55.45.773,proactive3.1,2020.1.2,Win32,60,5f599a131af4471f3d752b7b,5f5ae7002a36a420413399f6,5,,,,,,shovel,,,,,,,,,,,2,2,0,22,22,19,1,,,,,,,,,,,,,,,,,,,,,,,,,,,,,,,,,,,,,,,,,,,,,,,,,,,,,,,,,,,,,,,,,,,,,,,,,,,,,,,,,,,,,,,,,,,,,,,,,,,,,,,,
,,?,0.00034,0,,,,,,stimuli/images/PICTURE_405.png,HOUSE,5dd9951efef7c2916a145550,21/12/1952,2020-09-10_22h55.45.773,proactive3.1,2020.1.2,Win32,60,5f599a131af4471f3d752b7b,5f5ae7002a36a420413399f6,5,,,,,,anchor,,,,,,,,,,,1,2,0,23,23,2,1,,,,,,,,,,,,,,,,,,,,,,,,,,,,,,,,,,,,,,,,,,,,,,,,,,,,,,,,,,,,,,,,,,,,,,,,,,,,,,,,,,,,,,,,,,,,,,,,,,,,,,,,
,,?,0.000335,0,,,,,,stimuli/images/PICTURE_33.png,COPS,5dd9951efef7c2916a145550,21/12/1952,2020-09-10_22h55.45.773,proactive3.1,2020.1.2,Win32,60,5f599a131af4471f3d752b7b,5f5ae7002a36a420413399f6,5,,,,,,frame,,,,,,,,,,,3,2,0,24,24,29,1,,,,,,,,,,,,,,,,,,,,,,,,,,,,,,,,,,,,,,,,,,,,,,,,,,,,,,,,,,,,,,,,,,,,,,,,,,,,,,,,,,,,,,,,,,,,,,,,,,,,,,,,
,,?,0.00034,0,,,,,,stimuli/images/PICTURE_285.png,WRITER,5dd9951efef7c2916a145550,21/12/1952,2020-09-10_22h55.45.773,proactive3.1,2020.1.2,Win32,60,5f599a131af4471f3d752b7b,5f5ae7002a36a420413399f6,5,,,,,,carrot,,,,,,,,,,,1,2,0,25,25,6,1,,,,,,,,,,,,,,,,,,,,,,,,,,,,,,,,,,,,,,,,,,,,,,,,,,,,,,,,,,,,,,,,,,,,,,,,,,,,,,,,,,,,,,,,,,,,,,,,,,,,,,,,
,,?,0.000335,0,,,,,,stimuli/images/PICTURE_348.png,TOILET,5dd9951efef7c2916a145550,21/12/1952,2020-09-10_22h55.45.773,proactive3.1,2020.1.2,Win32,60,5f599a131af4471f3d752b7b,5f5ae7002a36a420413399f6,5,,,,,,pepper,,,,,,,,,,,1,2,0,26,26,4,1,,,,,,,,,,,,,,,,,,,,,,,,,,,,,,,,,,,,,,,,,,,,,,,,,,,,,,,,,,,,,,,,,,,,,,,,,,,,,,,,,,,,,,,,,,,,,,,,,,,,,,,,
,,?,0.000325,0,,,,,,stimuli/images/PICTURE_215.png,BOYS,5dd9951efef7c2916a145550,21/12/1952,2020-09-10_22h55.45.773,proactive3.1,2020.1.2,Win32,60,5f599a131af4471f3d752b7b,5f5ae7002a36a420413399f6,5,,,,,,boot,,,,,,,,,,,3,2,0,27,27,24,1,,,,,,,,,,,,,,,,,,,,,,,,,,,,,,,,,,,,,,,,,,,,,,,,,,,,,,,,,,,,,,,,,,,,,,,,,,,,,,,,,,,,,,,,,,,,,,,,,,,,,,,,
,,?,5.086915,0,,,,,,stimuli/images/PICTURE_750.png,POLICY,5dd9951efef7c2916a145550,21/12/1952,2020-09-10_22h55.45.773,proactive3.1,2020.1.2,Win32,60,5f599a131af4471f3d752b7b,5f5ae7002a36a420413399f6,5,,,,,,kettle,,,,,,,,,,,5,2,0,28,28,44,1,,,,,,,,,,,,,,,,,,,,,,,,,,,,,,,,,,,,,,,,,,,,,,,,,,,,,,,,,,,,,,,,,,,,,,,,,,,,,,,,,,,,,,,,,,,,,,,,,,,,,,,,
,,?,0.00082,0,,,,,,stimuli/images/PICTURE_405.png,JUNGLE,5dd9951efef7c2916a145550,21/12/1952,2020-09-10_22h55.45.773,proactive3.1,2020.1.2,Win32,60,5f599a131af4471f3d752b7b,5f5ae7002a36a420413399f6,5,,,,,,anchor,,,,,,,,,,,6,2,0,29,29,58,1,,,,,,,,,,,,,,,,,,,,,,,,,,,,,,,,,,,,,,,,,,,,,,,,,,,,,,,,,,,,,,,,,,,,,,,,,,,,,,,,,,,,,,,,,,,,,,,,,,,,,,,,
,,MILLER,4.76432,1,,,,,,stimuli/images/PICTURE_509.png,MILLER,5dd9951efef7c2916a145550,21/12/1952,2020-09-10_22h55.45.773,proactive3.1,2020.1.2,Win32,60,5f599a131af4471f3d752b7b,5f5ae7002a36a420413399f6,5,,,,,,telephone,,,,,,,,,,,5,2,0,30,30,49,1,,,,,,,,,,,,,,,,,,,,,,,,,,,,,,,,,,,,,,,,,,,,,,,,,,,,,,,,,,,,,,,,,,,,,,,,,,,,,,,,,,,,,,,,,,,,,,,,,,,,,,,,
,,?,0.000855,0,,,,,,stimuli/images/PICTURE_487.png,ROOF,5dd9951efef7c2916a145550,21/12/1952,2020-09-10_22h55.45.773,proactive3.1,2020.1.2,Win32,60,5f599a131af4471f3d752b7b,5f5ae7002a36a420413399f6,5,,,,,,basket,,,,,,,,,,,6,2,0,31,31,50,1,,,,,,,,,,,,,,,,,,,,,,,,,,,,,,,,,,,,,,,,,,,,,,,,,,,,,,,,,,,,,,,,,,,,,,,,,,,,,,,,,,,,,,,,,,,,,,,,,,,,,,,,
,,?,0.000345,0,,,,,,stimuli/images/PICTURE_403.png,FAMILY,5dd9951efef7c2916a145550,21/12/1952,2020-09-10_22h55.45.773,proactive3.1,2020.1.2,Win32,60,5f599a131af4471f3d752b7b,5f5ae7002a36a420413399f6,5,,,,,,cathedral,,,,,,,,,,,1,2,0,32,32,9,1,,,,,,,,,,,,,,,,,,,,,,,,,,,,,,,,,,,,,,,,,,,,,,,,,,,,,,,,,,,,,,,,,,,,,,,,,,,,,,,,,,,,,,,,,,,,,,,,,,,,,,,,
,,?,0.00034,0,,,,,,stimuli/images/PICTURE_2.png,YARD,5dd9951efef7c2916a145550,21/12/1952,2020-09-10_22h55.45.773,proactive3.1,2020.1.2,Win32,60,5f599a131af4471f3d752b7b,5f5ae7002a36a420413399f6,5,,,,,,tyre,,,,,,,,,,,6,2,0,33,33,55,1,,,,,,,,,,,,,,,,,,,,,,,,,,,,,,,,,,,,,,,,,,,,,,,,,,,,,,,,,,,,,,,,,,,,,,,,,,,,,,,,,,,,,,,,,,,,,,,,,,,,,,,,
,,?,0.00035,0,,,,,,stimuli/images/PICTURE_147.png,LEADER,5dd9951efef7c2916a145550,21/12/1952,2020-09-10_22h55.45.773,proactive3.1,2020.1.2,Win32,60,5f599a131af4471f3d752b7b,5f5ae7002a36a420413399f6,5,,,,,,hanger,,,,,,,,,,,4,2,0,34,34,33,1,,,,,,,,,,,,,,,,,,,,,,,,,,,,,,,,,,,,,,,,,,,,,,,,,,,,,,,,,,,,,,,,,,,,,,,,,,,,,,,,,,,,,,,,,,,,,,,,,,,,,,,,
,,?,0.00034,0,,,,,,stimuli/images/PICTURE_57.png,CASINO,5dd9951efef7c2916a145550,21/12/1952,2020-09-10_22h55.45.773,proactive3.1,2020.1.2,Win32,60,5f599a131af4471f3d752b7b,5f5ae7002a36a420413399f6,5,,,,,,stamp,,,,,,,,,,,2,2,0,35,35,12,1,,,,,,,,,,,,,,,,,,,,,,,,,,,,,,,,,,,,,,,,,,,,,,,,,,,,,,,,,,,,,,,,,,,,,,,,,,,,,,,,,,,,,,,,,,,,,,,,,,,,,,,,
,,?,0.00034,0,,,,,,stimuli/images/PICTURE_677.png,PHOTO,5dd9951efef7c2916a145550,21/12/1952,2020-09-10_22h55.45.773,proactive3.1,2020.1.2,Win32,60,5f599a131af4471f3d752b7b,5f5ae7002a36a420413399f6,5,,,,,,map,,,,,,,,,,,2,2,0,36,36,14,1,,,,,,,,,,,,,,,,,,,,,,,,,,,,,,,,,,,,,,,,,,,,,,,,,,,,,,,,,,,,,,,,,,,,,,,,,,,,,,,,,,,,,,,,,,,,,,,,,,,,,,,,
,,?,5.743915,0,,,,,,stimuli/images/PICTURE_470.png,MOMENT,5dd9951efef7c2916a145550,21/12/1952,2020-09-10_22h55.45.773,proactive3.1,2020.1.2,Win32,60,5f599a131af4471f3d752b7b,5f5ae7002a36a420413399f6,5,,,,,,motorbike,,,,,,,,,,,5,2,0,37,37,40,1,,,,,,,,,,,,,,,,,,,,,,,,,,,,,,,,,,,,,,,,,,,,,,,,,,,,,,,,,,,,,,,,,,,,,,,,,,,,,,,,,,,,,,,,,,,,,,,,,,,,,,,,
,,?,0.00157,0,,,,,,stimuli/images/PICTURE_95.png,NIGHT,5dd9951efef7c2916a145550,21/12/1952,2020-09-10_22h55.45.773,proactive3.1,2020.1.2,Win32,60,5f599a131af4471f3d752b7b,5f5ae7002a36a420413399f6,5,,,,,,suitcase,,,,,,,,,,,4,2,0,38,38,37,1,,,,,,,,,,,,,,,,,,,,,,,,,,,,,,,,,,,,,,,,,,,,,,,,,,,,,,,,,,,,,,,,,,,,,,,,,,,,,,,,,,,,,,,,,,,,,,,,,,,,,,,,
,,DUDE,3.260825,1,,,,,,stimuli/images/PICTURE_692.png,DUDE,5dd9951efef7c2916a145550,21/12/1952,2020-09-10_22h55.45.773,proactive3.1,2020.1.2,Win32,60,5f599a131af4471f3d752b7b,5f5ae7002a36a420413399f6,5,,,,,,cherry,,,,,,,,,,,5,2,0,39,39,47,1,,,,,,,,,,,,,,,,,,,,,,,,,,,,,,,,,,,,,,,,,,,,,,,,,,,,,,,,,,,,,,,,,,,,,,,,,,,,,,,,,,,,,,,,,,,,,,,,,,,,,,,,
,,?,0.00166,0,,,,,,stimuli/images/PICTURE_311.png,TOILET,5dd9951efef7c2916a145550,21/12/1952,2020-09-10_22h55.45.773,proactive3.1,2020.1.2,Win32,60,5f599a131af4471f3d752b7b,5f5ae7002a36a420413399f6,5,,,,,,razor,,,,,,,,,,,6,2,0,40,40,54,1,,,,,,,,,,,,,,,,,,,,,,,,,,,,,,,,,,,,,,,,,,,,,,,,,,,,,,,,,,,,,,,,,,,,,,,,,,,,,,,,,,,,,,,,,,,,,,,,,,,,,,,,
,,?,3.02791,0,,,,,,stimuli/images/PICTURE_215.png,LEADER,5dd9951efef7c2916a145550,21/12/1952,2020-09-10_22h55.45.773,proactive3.1,2020.1.2,Win32,60,5f599a131af4471f3d752b7b,5f5ae7002a36a420413399f6,5,,,,,,boot,,,,,,,,,,,5,2,0,41,41,43,1,,,,,,,,,,,,,,,,,,,,,,,,,,,,,,,,,,,,,,,,,,,,,,,,,,,,,,,,,,,,,,,,,,,,,,,,,,,,,,,,,,,,,,,,,,,,,,,,,,,,,,,,
,,?,0.001355,0,,,,,,stimuli/images/PICTURE_504.png,HOUSE,5dd9951efef7c2916a145550,21/12/1952,2020-09-10_22h55.45.773,proactive3.1,2020.1.2,Win32,60,5f599a131af4471f3d752b7b,5f5ae7002a36a420413399f6,5,,,,,,wheel,,,,,,,,,,,4,2,0,42,42,36,1,,,,,,,,,,,,,,,,,,,,,,,,,,,,,,,,,,,,,,,,,,,,,,,,,,,,,,,,,,,,,,,,,,,,,,,,,,,,,,,,,,,,,,,,,,,,,,,,,,,,,,,,
,,?,0.00034,0,,,,,,stimuli/images/PICTURE_677.png,FAMILY,5dd9951efef7c2916a145550,21/12/1952,2020-09-10_22h55.45.773,proactive3.1,2020.1.2,Win32,60,5f599a131af4471f3d752b7b,5f5ae7002a36a420413399f6,5,,,,,,map,,,,,,,,,,,6,2,0,43,43,53,1,,,,,,,,,,,,,,,,,,,,,,,,,,,,,,,,,,,,,,,,,,,,,,,,,,,,,,,,,,,,,,,,,,,,,,,,,,,,,,,,,,,,,,,,,,,,,,,,,,,,,,,,
,,?,0.000325,0,,,,,,stimuli/images/PICTURE_141.png,CLIENT,5dd9951efef7c2916a145550,21/12/1952,2020-09-10_22h55.45.773,proactive3.1,2020.1.2,Win32,60,5f599a131af4471f3d752b7b,5f5ae7002a36a420413399f6,5,,,,,,sunflower,,,,,,,,,,,4,2,0,44,44,30,1,,,,,,,,,,,,,,,,,,,,,,,,,,,,,,,,,,,,,,,,,,,,,,,,,,,,,,,,,,,,,,,,,,,,,,,,,,,,,,,,,,,,,,,,,,,,,,,,,,,,,,,,
,,?,0.000325,0,,,,,,stimuli/images/PICTURE_177.png,HOUSE,5dd9951efef7c2916a145550,21/12/1952,2020-09-10_22h55.45.773,proactive3.1,2020.1.2,Win32,60,5f599a131af4471f3d752b7b,5f5ae7002a36a420413399f6,5,,,,,,mushroom,,,,,,,,,,,3,2,0,45,45,25,1,,,,,,,,,,,,,,,,,,,,,,,,,,,,,,,,,,,,,,,,,,,,,,,,,,,,,,,,,,,,,,,,,,,,,,,,,,,,,,,,,,,,,,,,,,,,,,,,,,,,,,,,
,,?,0.000335,0,,,,,,stimuli/images/PICTURE_285.png,PRINCE,5dd9951efef7c2916a145550,21/12/1952,2020-09-10_22h55.45.773,proactive3.1,2020.1.2,Win32,60,5f599a131af4471f3d752b7b,5f5ae7002a36a420413399f6,5,,,,,,carrot,,,,,,,,,,,3,2,0,46,46,20,1,,,,,,,,,,,,,,,,,,,,,,,,,,,,,,,,,,,,,,,,,,,,,,,,,,,,,,,,,,,,,,,,,,,,,,,,,,,,,,,,,,,,,,,,,,,,,,,,,,,,,,,,
,,?,0.000315,0,,,,,,stimuli/images/PICTURE_297.png,BODY,5dd9951efef7c2916a145550,21/12/1952,2020-09-10_22h55.45.773,proactive3.1,2020.1.2,Win32,60,5f599a131af4471f3d752b7b,5f5ae7002a36a420413399f6,5,,,,,,aeroplane,,,,,,,,,,,6,2,0,47,47,51,1,,,,,,,,,,,,,,,,,,,,,,,,,,,,,,,,,,,,,,,,,,,,,,,,,,,,,,,,,,,,,,,,,,,,,,,,,,,,,,,,,,,,,,,,,,,,,,,,,,,,,,,,
,,?,0.000315,0,,,,,,stimuli/images/PICTURE_491.png,SERIES,5dd9951efef7c2916a145550,21/12/1952,2020-09-10_22h55.45.773,proactive3.1,2020.1.2,Win32,60,5f599a131af4471f3d752b7b,5f5ae7002a36a420413399f6,5,,,,,,rug,,,,,,,,,,,4,2,0,48,48,39,1,,,,,,,,,,,,,,,,,,,,,,,,,,,,,,,,,,,,,,,,,,,,,,,,,,,,,,,,,,,,,,,,,,,,,,,,,,,,,,,,,,,,,,,,,,,,,,,,,,,,,,,,
,,?,1.82329,0,,,,,,stimuli/images/PICTURE_453.png,FAMILY,5dd9951efef7c2916a145550,21/12/1952,2020-09-10_22h55.45.773,proactive3.1,2020.1.2,Win32,60,5f599a131af4471f3d752b7b,5f5ae7002a36a420413399f6,5,,,,,,scissors,,,,,,,,,,,5,2,0,49,49,48,1,,,,,,,,,,,,,,,,,,,,,,,,,,,,,,,,,,,,,,,,,,,,,,,,,,,,,,,,,,,,,,,,,,,,,,,,,,,,,,,,,,,,,,,,,,,,,,,,,,,,,,,,
,,?,0.00173,0,,,,,,stimuli/images/PICTURE_2.png,AREA,5dd9951efef7c2916a145550,21/12/1952,2020-09-10_22h55.45.773,proactive3.1,2020.1.2,Win32,60,5f599a131af4471f3d752b7b,5f5ae7002a36a420413399f6,5,,,,,,tyre,,,,,,,,,,,4,2,0,50,50,32,1,,,,,,,,,,,,,,,,,,,,,,,,,,,,,,,,,,,,,,,,,,,,,,,,,,,,,,,,,,,,,,,,,,,,,,,,,,,,,,,,,,,,,,,,,,,,,,,,,,,,,,,,
,,?,0.00034,0,,,,,,stimuli/images/PICTURE_296.png,CLOCK,5dd9951efef7c2916a145550,21/12/1952,2020-09-10_22h55.45.773,proactive3.1,2020.1.2,Win32,60,5f599a131af4471f3d752b7b,5f5ae7002a36a420413399f6,5,,,,,,bolt,,,,,,,,,,,2,2,0,51,51,18,1,,,,,,,,,,,,,,,,,,,,,,,,,,,,,,,,,,,,,,,,,,,,,,,,,,,,,,,,,,,,,,,,,,,,,,,,,,,,,,,,,,,,,,,,,,,,,,,,,,,,,,,,
,,?,0.000315,0,,,,,,stimuli/images/PICTURE_654.png,COPS,5dd9951efef7c2916a145550,21/12/1952,2020-09-10_22h55.45.773,proactive3.1,2020.1.2,Win32,60,5f599a131af4471f3d752b7b,5f5ae7002a36a420413399f6,5,,,,,,pencil,,,,,,,,,,,2,2,0,52,52,10,1,,,,,,,,,,,,,,,,,,,,,,,,,,,,,,,,,,,,,,,,,,,,,,,,,,,,,,,,,,,,,,,,,,,,,,,,,,,,,,,,,,,,,,,,,,,,,,,,,,,,,,,,
,,?,0.000315,0,,,,,,stimuli/images/PICTURE_160.png,HOTEL,5dd9951efef7c2916a145550,21/12/1952,2020-09-10_22h55.45.773,proactive3.1,2020.1.2,Win32,60,5f599a131af4471f3d752b7b,5f5ae7002a36a420413399f6,5,,,,,,wheelbarrow,,,,,,,,,,,2,2,0,53,53,16,1,,,,,,,,,,,,,,,,,,,,,,,,,,,,,,,,,,,,,,,,,,,,,,,,,,,,,,,,,,,,,,,,,,,,,,,,,,,,,,,,,,,,,,,,,,,,,,,,,,,,,,,,
,,?,0.00039,0,,,,,,stimuli/images/PICTURE_509.png,SHOTS,5dd9951efef7c2916a145550,21/12/1952,2020-09-10_22h55.45.773,proactive3.1,2020.1.2,Win32,60,5f599a131af4471f3d752b7b,5f5ae7002a36a420413399f6,5,,,,,,telephone,,,,,,,,,,,1,2,0,54,54,7,1,,,,,,,,,,,,,,,,,,,,,,,,,,,,,,,,,,,,,,,,,,,,,,,,,,,,,,,,,,,,,,,,,,,,,,,,,,,,,,,,,,,,,,,,,,,,,,,,,,,,,,,,
,,?,0.000315,0,,,,,,stimuli/images/PICTURE_32.png,LETTER,5dd9951efef7c2916a145550,21/12/1952,2020-09-10_22h55.45.773,proactive3.1,2020.1.2,Win32,60,5f599a131af4471f3d752b7b,5f5ae7002a36a420413399f6,5,,,,,,crown,,,,,,,,,,,6,2,0,55,55,56,1,,,,,,,,,,,,,,,,,,,,,,,,,,,,,,,,,,,,,,,,,,,,,,,,,,,,,,,,,,,,,,,,,,,,,,,,,,,,,,,,,,,,,,,,,,,,,,,,,,,,,,,,
,,?,0.00036,0,,,,,,stimuli/images/PICTURE_509.png,APPLE,5dd9951efef7c2916a145550,21/12/1952,2020-09-10_22h55.45.773,proactive3.1,2020.1.2,Win32,60,5f599a131af4471f3d752b7b,5f5ae7002a36a420413399f6,5,,,,,,telephone,,,,,,,,,,,4,2,0,56,56,38,1,,,,,,,,,,,,,,,,,,,,,,,,,,,,,,,,,,,,,,,,,,,,,,,,,,,,,,,,,,,,,,,,,,,,,,,,,,,,,,,,,,,,,,,,,,,,,,,,,,,,,,,,
,,?,0.000315,0,,,,,,stimuli/images/PICTURE_93.png,GIRL,5dd9951efef7c2916a145550,21/12/1952,2020-09-10_22h55.45.773,proactive3.1,2020.1.2,Win32,60,5f599a131af4471f3d752b7b,5f5ae7002a36a420413399f6,5,,,,,,skateboard,,,,,,,,,,,4,2,0,57,57,31,1,,,,,,,,,,,,,,,,,,,,,,,,,,,,,,,,,,,,,,,,,,,,,,,,,,,,,,,,,,,,,,,,,,,,,,,,,,,,,,,,,,,,,,,,,,,,,,,,,,,,,,,,
,,?,0.0003,0,,,,,,stimuli/images/PICTURE_509.png,BATH,5dd9951efef7c2916a145550,21/12/1952,2020-09-10_22h55.45.773,proactive3.1,2020.1.2,Win32,60,5f599a131af4471f3d752b7b,5f5ae7002a36a420413399f6,5,,,,,,telephone,,,,,,,,,,,2,2,0,58,58,15,1,,,,,,,,,,,,,,,,,,,,,,,,,,,,,,,,,,,,,,,,,,,,,,,,,,,,,,,,,,,,,,,,,,,,,,,,,,,,,,,,,,,,,,,,,,,,,,,,,,,,,,,,
,,?,2.28778,0,,,,,,stimuli/images/PICTURE_356.png,CANDY,5dd9951efef7c2916a145550,21/12/1952,2020-09-10_22h55.45.773,proactive3.1,2020.1.2,Win32,60,5f599a131af4471f3d752b7b,5f5ae7002a36a420413399f6,5,,,,,,pawn,,,,,,,,,,,5,2,0,59,59,46,1,,,,,,,,,,,,,,,,,,,,,,,,,,,,,,,,,,,,,,,,,,,,,,,,,,,,,,,,,,,,,,,,,,,,,,,,,,,,,,,,,,,,,,,,,,,,,,,,,,,,,,,,
,,,,,,,,,,,,5dd9951efef7c2916a145550,21/12/1952,2020-09-10_22h55.45.773,proactive3.1,2020.1.2,Win32,60,5f599a131af4471f3d752b7b,5f5ae7002a36a420413399f6,5,,,,,,,,,,,,,,,,,,,,,,,,0,0,0,2,1,stimuli/learn-block3.csv,,,,,,,,,,,,,,,,,,,,,,,,,,,,,,,,,,,,,,,,,,,,,,,,,,,,,,,,,,,,,,,,,,,,,,,,,,,,,,,,,,,,,,,,,,,,,,,,,,
,,,,,,,,,,stimuli/images/PICTURE_85.png,NATION,5dd9951efef7c2916a145550,21/12/1952,2020-09-10_22h55.45.773,proactive3.1,2020.1.2,Win32,60,5f599a131af4471f3d752b7b,5f5ae7002a36a420413399f6,5,,,,,,diamond,,,,,,0,0,0,5,1,1,1,,,,,,,,,,,,,,,,,,,,,,,,,,,,,,,,,,,,,,,,,,,,,,,,,,,,,,,,,,,,,,,,,,,,,,,,,,,,,,,,,,,,,,,,,,,,,,,,,,,,,,,,,,,,,
,,,,,,,,,,stimuli/images/PICTURE_203.png,GODS,5dd9951efef7c2916a145550,21/12/1952,2020-09-10_22h55.45.773,proactive3.1,2020.1.2,Win32,60,5f599a131af4471f3d752b7b,5f5ae7002a36a420413399f6,5,,,,,,cap,,,,,,0,1,1,30,1,4,1,,,,,,,,,,,,,,,,,,,,,,,,,,,,,,,,,,,,,,,,,,,,,,,,,,,,,,,,,,,,,,,,,,,,,,,,,,,,,,,,,,,,,,,,,,,,,,,,,,,,,,,,,,,,,
,,,,,,,,,,stimuli/images/PICTURE_177.png,WRITER,5dd9951efef7c2916a145550,21/12/1952,2020-09-10_22h55.45.773,proactive3.1,2020.1.2,Win32,60,5f599a131af4471f3d752b7b,5f5ae7002a36a420413399f6,5,,,,,,mushroom,,,,,,0,2,2,41,1,5,1,,,,,,,,,,,,,,,,,,,,,,,,,,,,,,,,,,,,,,,,,,,,,,,,,,,,,,,,,,,,,,,,,,,,,,,,,,,,,,,,,,,,,,,,,,,,,,,,,,,,,,,,,,,,,
,,,,,,,,,,stimuli/images/PICTURE_487.png,GIRL,5dd9951efef7c2916a145550,21/12/1952,2020-09-10_22h55.45.773,proactive3.1,2020.1.2,Win32,60,5f599a131af4471f3d752b7b,5f5ae7002a36a420413399f6,5,,,,,,basket,,,,,,0,3,3,45,1,5,1,,,,,,,,,,,,,,,,,,,,,,,,,,,,,,,,,,,,,,,,,,,,,,,,,,,,,,,,,,,,,,,,,,,,,,,,,,,,,,,,,,,,,,,,,,,,,,,,,,,,,,,,,,,,,
,,,,,,,,,,stimuli/images/PICTURE_233.png,LOTS,5dd9951efef7c2916a145550,21/12/1952,2020-09-10_22h55.45.773,proactive3.1,2020.1.2,Win32,60,5f599a131af4471f3d752b7b,5f5ae7002a36a420413399f6,5,,,,,,salt,,,,,,0,4,4,42,1,5,1,,,,,,,,,,,,,,,,,,,,,,,,,,,,,,,,,,,,,,,,,,,,,,,,,,,,,,,,,,,,,,,,,,,,,,,,,,,,,,,,,,,,,,,,,,,,,,,,,,,,,,,,,,,,,
,,,,,,,,,,stimuli/images/PICTURE_655.png,TOILET,5dd9951efef7c2916a145550,21/12/1952,2020-09-10_22h55.45.773,proactive3.1,2020.1.2,Win32,60,5f599a131af4471f3d752b7b,5f5ae7002a36a420413399f6,5,,,,,,megaphone,,,,,,0,5,5,12,1,2,1,,,,,,,,,,,,,,,,,,,,,,,,,,,,,,,,,,,,,,,,,,,,,,,,,,,,,,,,,,,,,,,,,,,,,,,,,,,,,,,,,,,,,,,,,,,,,,,,,,,,,,,,,,,,,
,,,,,,,,,,stimuli/images/PICTURE_203.png,NIGHT,5dd9951efef7c2916a145550,21/12/1952,2020-09-10_22h55.45.773,proactive3.1,2020.1.2,Win32,60,5f599a131af4471f3d752b7b,5f5ae7002a36a420413399f6,5,,,,,,cap,,,,,,0,6,6,2,1,1,1,,,,,,,,,,,,,,,,,,,,,,,,,,,,,,,,,,,,,,,,,,,,,,,,,,,,,,,,,,,,,,,,,,,,,,,,,,,,,,,,,,,,,,,,,,,,,,,,,,,,,,,,,,,,,
,,,,,,,,,,stimuli/images/PICTURE_677.png,APPLE,5dd9951efef7c2916a145550,21/12/1952,2020-09-10_22h55.45.773,proactive3.1,2020.1.2,Win32,60,5f599a131af4471f3d752b7b,5f5ae7002a36a420413399f6,5,,,,,,map,,,,,,0,7,7,43,1,5,1,,,,,,,,,,,,,,,,,,,,,,,,,,,,,,,,,,,,,,,,,,,,,,,,,,,,,,,,,,,,,,,,,,,,,,,,,,,,,,,,,,,,,,,,,,,,,,,,,,,,,,,,,,,,,
,,,,,,,,,,stimuli/images/PICTURE_405.png,PLENTY,5dd9951efef7c2916a145550,21/12/1952,2020-09-10_22h55.45.773,proactive3.1,2020.1.2,Win32,60,5f599a131af4471f3d752b7b,5f5ae7002a36a420413399f6,5,,,,,,anchor,,,,,,0,8,8,23,1,3,1,,,,,,,,,,,,,,,,,,,,,,,,,,,,,,,,,,,,,,,,,,,,,,,,,,,,,,,,,,,,,,,,,,,,,,,,,,,,,,,,,,,,,,,,,,,,,,,,,,,,,,,,,,,,,
,,,,,,,,,,stimuli/images/PICTURE_744.png,WEAPON,5dd9951efef7c2916a145550,21/12/1952,2020-09-10_22h55.45.773,proactive3.1,2020.1.2,Win32,60,5f599a131af4471f3d752b7b,5f5ae7002a36a420413399f6,5,,,,,,ring,,,,,,0,9,9,50,1,6,1,,,,,,,,,,,,,,,,,,,,,,,,,,,,,,,,,,,,,,,,,,,,,,,,,,,,,,,,,,,,,,,,,,,,,,,,,,,,,,,,,,,,,,,,,,,,,,,,,,,,,,,,,,,,,
,,,,,,,,,,stimuli/images/PICTURE_147.png,YEAR,5dd9951efef7c2916a145550,21/12/1952,2020-09-10_22h55.45.773,proactive3.1,2020.1.2,Win32,60,5f599a131af4471f3d752b7b,5f5ae7002a36a420413399f6,5,,,,,,hanger,,,,,,0,10,10,21,1,3,1,,,,,,,,,,,,,,,,,,,,,,,,,,,,,,,,,,,,,,,,,,,,,,,,,,,,,,,,,,,,,,,,,,,,,,,,,,,,,,,,,,,,,,,,,,,,,,,,,,,,,,,,,,,,,
,,,,,,,,,,stimuli/images/PICTURE_32.png,KIND,5dd9951efef7c2916a145550,21/12/1952,2020-09-10_22h55.45.773,proactive3.1,2020.1.2,Win32,60,5f599a131af4471f3d752b7b,5f5ae7002a36a420413399f6,5,,,,,,crown,,,,,,0,11,11,35,1,4,1,,,,,,,,,,,,,,,,,,,,,,,,,,,,,,,,,,,,,,,,,,,,,,,,,,,,,,,,,,,,,,,,,,,,,,,,,,,,,,,,,,,,,,,,,,,,,,,,,,,,,,,,,,,,,
,,,,,,,,,,stimuli/images/PICTURE_95.png,MILLER,5dd9951efef7c2916a145550,21/12/1952,2020-09-10_22h55.45.773,proactive3.1,2020.1.2,Win32,60,5f599a131af4471f3d752b7b,5f5ae7002a36a420413399f6,5,,,,,,suitcase,,,,,,0,12,12,56,1,6,1,,,,,,,,,,,,,,,,,,,,,,,,,,,,,,,,,,,,,,,,,,,,,,,,,,,,,,,,,,,,,,,,,,,,,,,,,,,,,,,,,,,,,,,,,,,,,,,,,,,,,,,,,,,,,
,,,,,,,,,,stimuli/images/PICTURE_504.png,YEAR,5dd9951efef7c2916a145550,21/12/1952,2020-09-10_22h55.45.773,proactive3.1,2020.1.2,Win32,60,5f599a131af4471f3d752b7b,5f5ae7002a36a420413399f6,5,,,,,,wheel,,,,,,0,13,13,13,1,2,1,,,,,,,,,,,,,,,,,,,,,,,,,,,,,,,,,,,,,,,,,,,,,,,,,,,,,,,,,,,,,,,,,,,,,,,,,,,,,,,,,,,,,,,,,,,,,,,,,,,,,,,,,,,,,
,,,,,,,,,,stimuli/images/PICTURE_383.png,WRITER,5dd9951efef7c2916a145550,21/12/1952,2020-09-10_22h55.45.773,proactive3.1,2020.1.2,Win32,60,5f599a131af4471f3d752b7b,5f5ae7002a36a420413399f6,5,,,,,,coin,,,,,,0,14,14,28,1,3,1,,,,,,,,,,,,,,,,,,,,,,,,,,,,,,,,,,,,,,,,,,,,,,,,,,,,,,,,,,,,,,,,,,,,,,,,,,,,,,,,,,,,,,,,,,,,,,,,,,,,,,,,,,,,,
,,,,,,,,,,stimuli/images/PICTURE_285.png,LIFE,5dd9951efef7c2916a145550,21/12/1952,2020-09-10_22h55.45.773,proactive3.1,2020.1.2,Win32,60,5f599a131af4471f3d752b7b,5f5ae7002a36a420413399f6,5,,,,,,carrot,,,,,,0,15,15,33,1,4,1,,,,,,,,,,,,,,,,,,,,,,,,,,,,,,,,,,,,,,,,,,,,,,,,,,,,,,,,,,,,,,,,,,,,,,,,,,,,,,,,,,,,,,,,,,,,,,,,,,,,,,,,,,,,,
,,,,,,,,,,stimuli/images/PICTURE_108.png,POLICY,5dd9951efef7c2916a145550,21/12/1952,2020-09-10_22h55.45.773,proactive3.1,2020.1.2,Win32,60,5f599a131af4471f3d752b7b,5f5ae7002a36a420413399f6,5,,,,,,calendar,,,,,,0,16,16,22,1,3,1,,,,,,,,,,,,,,,,,,,,,,,,,,,,,,,,,,,,,,,,,,,,,,,,,,,,,,,,,,,,,,,,,,,,,,,,,,,,,,,,,,,,,,,,,,,,,,,,,,,,,,,,,,,,,
,,,,,,,,,,stimuli/images/PICTURE_403.png,WRITER,5dd9951efef7c2916a145550,21/12/1952,2020-09-10_22h55.45.773,proactive3.1,2020.1.2,Win32,60,5f599a131af4471f3d752b7b,5f5ae7002a36a420413399f6,5,,,,,,cathedral,,,,,,0,17,17,31,1,4,1,,,,,,,,,,,,,,,,,,,,,,,,,,,,,,,,,,,,,,,,,,,,,,,,,,,,,,,,,,,,,,,,,,,,,,,,,,,,,,,,,,,,,,,,,,,,,,,,,,,,,,,,,,,,,
,,,,,,,,,,stimuli/images/PICTURE_208.png,SYSTEM,5dd9951efef7c2916a145550,21/12/1952,2020-09-10_22h55.45.773,proactive3.1,2020.1.2,Win32,60,5f599a131af4471f3d752b7b,5f5ae7002a36a420413399f6,5,,,,,,microphone,,,,,,0,18,18,32,1,4,1,,,,,,,,,,,,,,,,,,,,,,,,,,,,,,,,,,,,,,,,,,,,,,,,,,,,,,,,,,,,,,,,,,,,,,,,,,,,,,,,,,,,,,,,,,,,,,,,,,,,,,,,,,,,,
,,,,,,,,,,stimuli/images/PICTURE_33.png,FRIEND,5dd9951efef7c2916a145550,21/12/1952,2020-09-10_22h55.45.773,proactive3.1,2020.1.2,Win32,60,5f599a131af4471f3d752b7b,5f5ae7002a36a420413399f6,5,,,,,,frame,,,,,,0,19,19,8,1,1,1,,,,,,,,,,,,,,,,,,,,,,,,,,,,,,,,,,,,,,,,,,,,,,,,,,,,,,,,,,,,,,,,,,,,,,,,,,,,,,,,,,,,,,,,,,,,,,,,,,,,,,,,,,,,,
,,,,,,,,,,stimuli/images/PICTURE_68.png,ROOF,5dd9951efef7c2916a145550,21/12/1952,2020-09-10_22h55.45.773,proactive3.1,2020.1.2,Win32,60,5f599a131af4471f3d752b7b,5f5ae7002a36a420413399f6,5,,,,,,candle,,,,,,0,20,20,38,1,4,1,,,,,,,,,,,,,,,,,,,,,,,,,,,,,,,,,,,,,,,,,,,,,,,,,,,,,,,,,,,,,,,,,,,,,,,,,,,,,,,,,,,,,,,,,,,,,,,,,,,,,,,,,,,,,
,,,,,,,,,,stimuli/images/PICTURE_297.png,RIVER,5dd9951efef7c2916a145550,21/12/1952,2020-09-10_22h55.45.773,proactive3.1,2020.1.2,Win32,60,5f599a131af4471f3d752b7b,5f5ae7002a36a420413399f6,5,,,,,,aeroplane,,,,,,0,21,21,39,1,4,1,,,,,,,,,,,,,,,,,,,,,,,,,,,,,,,,,,,,,,,,,,,,,,,,,,,,,,,,,,,,,,,,,,,,,,,,,,,,,,,,,,,,,,,,,,,,,,,,,,,,,,,,,,,,,
,,,,,,,,,,stimuli/images/PICTURE_405.png,YEAR,5dd9951efef7c2916a145550,21/12/1952,2020-09-10_22h55.45.773,proactive3.1,2020.1.2,Win32,60,5f599a131af4471f3d752b7b,5f5ae7002a36a420413399f6,5,,,,,,anchor,,,,,,0,22,22,34,1,4,1,,,,,,,,,,,,,,,,,,,,,,,,,,,,,,,,,,,,,,,,,,,,,,,,,,,,,,,,,,,,,,,,,,,,,,,,,,,,,,,,,,,,,,,,,,,,,,,,,,,,,,,,,,,,,
,,,,,,,,,,stimuli/images/PICTURE_85.png,TOILET,5dd9951efef7c2916a145550,21/12/1952,2020-09-10_22h55.45.773,proactive3.1,2020.1.2,Win32,60,5f599a131af4471f3d752b7b,5f5ae7002a36a420413399f6,5,,,,,,diamond,,,,,,0,23,23,48,1,5,1,,,,,,,,,,,,,,,,,,,,,,,,,,,,,,,,,,,,,,,,,,,,,,,,,,,,,,,,,,,,,,,,,,,,,,,,,,,,,,,,,,,,,,,,,,,,,,,,,,,,,,,,,,,,,
,,,,,,,,,,stimuli/images/PICTURE_491.png,RIVER,5dd9951efef7c2916a145550,21/12/1952,2020-09-10_22h55.45.773,proactive3.1,2020.1.2,Win32,60,5f599a131af4471f3d752b7b,5f5ae7002a36a420413399f6,5,,,,,,rug,,,,,,0,24,24,6,1,1,1,,,,,,,,,,,,,,,,,,,,,,,,,,,,,,,,,,,,,,,,,,,,,,,,,,,,,,,,,,,,,,,,,,,,,,,,,,,,,,,,,,,,,,,,,,,,,,,,,,,,,,,,,,,,,
,,,,,,,,,,stimuli/images/PICTURE_327.png,SERIES,5dd9951efef7c2916a145550,21/12/1952,2020-09-10_22h55.45.773,proactive3.1,2020.1.2,Win32,60,5f599a131af4471f3d752b7b,5f5ae7002a36a420413399f6,5,,,,,,helmet,,,,,,0,25,25,3,1,1,1,,,,,,,,,,,,,,,,,,,,,,,,,,,,,,,,,,,,,,,,,,,,,,,,,,,,,,,,,,,,,,,,,,,,,,,,,,,,,,,,,,,,,,,,,,,,,,,,,,,,,,,,,,,,,
,,,,,,,,,,stimuli/images/PICTURE_504.png,ARTIST,5dd9951efef7c2916a145550,21/12/1952,2020-09-10_22h55.45.773,proactive3.1,2020.1.2,Win32,60,5f599a131af4471f3d752b7b,5f5ae7002a36a420413399f6,5,,,,,,wheel,,,,,,0,26,26,49,1,5,1,,,,,,,,,,,,,,,,,,,,,,,,,,,,,,,,,,,,,,,,,,,,,,,,,,,,,,,,,,,,,,,,,,,,,,,,,,,,,,,,,,,,,,,,,,,,,,,,,,,,,,,,,,,,,
,,,,,,,,,,stimuli/images/PICTURE_2.png,FLIGHT,5dd9951efef7c2916a145550,21/12/1952,2020-09-10_22h55.45.773,proactive3.1,2020.1.2,Win32,60,5f599a131af4471f3d752b7b,5f5ae7002a36a420413399f6,5,,,,,,tyre,,,,,,0,27,27,15,1,2,1,,,,,,,,,,,,,,,,,,,,,,,,,,,,,,,,,,,,,,,,,,,,,,,,,,,,,,,,,,,,,,,,,,,,,,,,,,,,,,,,,,,,,,,,,,,,,,,,,,,,,,,,,,,,,
,,,,,,,,,,stimuli/images/PICTURE_667.png,RIVER,5dd9951efef7c2916a145550,21/12/1952,2020-09-10_22h55.45.773,proactive3.1,2020.1.2,Win32,60,5f599a131af4471f3d752b7b,5f5ae7002a36a420413399f6,5,,,,,,daisy,,,,,,0,28,28,10,1,2,1,,,,,,,,,,,,,,,,,,,,,,,,,,,,,,,,,,,,,,,,,,,,,,,,,,,,,,,,,,,,,,,,,,,,,,,,,,,,,,,,,,,,,,,,,,,,,,,,,,,,,,,,,,,,,
,,,,,,,,,,stimuli/images/PICTURE_296.png,LOTS,5dd9951efef7c2916a145550,21/12/1952,2020-09-10_22h55.45.773,proactive3.1,2020.1.2,Win32,60,5f599a131af4471f3d752b7b,5f5ae7002a36a420413399f6,5,,,,,,bolt,,,,,,0,29,29,9,1,1,1,,,,,,,,,,,,,,,,,,,,,,,,,,,,,,,,,,,,,,,,,,,,,,,,,,,,,,,,,,,,,,,,,,,,,,,,,,,,,,,,,,,,,,,,,,,,,,,,,,,,,,,,,,,,,
,,,,,,,,,,stimuli/images/PICTURE_32.png,PILLS,5dd9951efef7c2916a145550,21/12/1952,2020-09-10_22h55.45.773,proactive3.1,2020.1.2,Win32,60,5f599a131af4471f3d752b7b,5f5ae7002a36a420413399f6,5,,,,,,crown,,,,,,0,30,30,18,1,2,1,,,,,,,,,,,,,,,,,,,,,,,,,,,,,,,,,,,,,,,,,,,,,,,,,,,,,,,,,,,,,,,,,,,,,,,,,,,,,,,,,,,,,,,,,,,,,,,,,,,,,,,,,,,,,
,,,,,,,,,,stimuli/images/PICTURE_383.png,SERIES,5dd9951efef7c2916a145550,21/12/1952,2020-09-10_22h55.45.773,proactive3.1,2020.1.2,Win32,60,5f599a131af4471f3d752b7b,5f5ae7002a36a420413399f6,5,,,,,,coin,,,,,,0,31,31,46,1,5,1,,,,,,,,,,,,,,,,,,,,,,,,,,,,,,,,,,,,,,,,,,,,,,,,,,,,,,,,,,,,,,,,,,,,,,,,,,,,,,,,,,,,,,,,,,,,,,,,,,,,,,,,,,,,,
,,,,,,,,,,stimuli/images/PICTURE_327.png,CASINO,5dd9951efef7c2916a145550,21/12/1952,2020-09-10_22h55.45.773,proactive3.1,2020.1.2,Win32,60,5f599a131af4471f3d752b7b,5f5ae7002a36a420413399f6,5,,,,,,helmet,,,,,,0,32,32,20,1,3,1,,,,,,,,,,,,,,,,,,,,,,,,,,,,,,,,,,,,,,,,,,,,,,,,,,,,,,,,,,,,,,,,,,,,,,,,,,,,,,,,,,,,,,,,,,,,,,,,,,,,,,,,,,,,,
,,,,,,,,,,stimuli/images/PICTURE_95.png,BOYS,5dd9951efef7c2916a145550,21/12/1952,2020-09-10_22h55.45.773,proactive3.1,2020.1.2,Win32,60,5f599a131af4471f3d752b7b,5f5ae7002a36a420413399f6,5,,,,,,suitcase,,,,,,0,33,33,1,1,1,1,,,,,,,,,,,,,,,,,,,,,,,,,,,,,,,,,,,,,,,,,,,,,,,,,,,,,,,,,,,,,,,,,,,,,,,,,,,,,,,,,,,,,,,,,,,,,,,,,,,,,,,,,,,,,
,,,,,,,,,,stimuli/images/PICTURE_68.png,MILE,5dd9951efef7c2916a145550,21/12/1952,2020-09-10_22h55.45.773,proactive3.1,2020.1.2,Win32,60,5f599a131af4471f3d752b7b,5f5ae7002a36a420413399f6,5,,,,,,candle,,,,,,0,34,34,51,1,6,1,,,,,,,,,,,,,,,,,,,,,,,,,,,,,,,,,,,,,,,,,,,,,,,,,,,,,,,,,,,,,,,,,,,,,,,,,,,,,,,,,,,,,,,,,,,,,,,,,,,,,,,,,,,,,
,,,,,,,,,,stimuli/images/PICTURE_469.png,AGENT,5dd9951efef7c2916a145550,21/12/1952,2020-09-10_22h55.45.773,proactive3.1,2020.1.2,Win32,60,5f599a131af4471f3d752b7b,5f5ae7002a36a420413399f6,5,,,,,,stool,,,,,,0,35,35,16,1,2,1,,,,,,,,,,,,,,,,,,,,,,,,,,,,,,,,,,,,,,,,,,,,,,,,,,,,,,,,,,,,,,,,,,,,,,,,,,,,,,,,,,,,,,,,,,,,,,,,,,,,,,,,,,,,,
,,,,,,,,,,stimuli/images/PICTURE_108.png,FLIGHT,5dd9951efef7c2916a145550,21/12/1952,2020-09-10_22h55.45.773,proactive3.1,2020.1.2,Win32,60,5f599a131af4471f3d752b7b,5f5ae7002a36a420413399f6,5,,,,,,calendar,,,,,,0,36,36,59,1,6,1,,,,,,,,,,,,,,,,,,,,,,,,,,,,,,,,,,,,,,,,,,,,,,,,,,,,,,,,,,,,,,,,,,,,,,,,,,,,,,,,,,,,,,,,,,,,,,,,,,,,,,,,,,,,,
,,,,,,,,,,stimuli/images/PICTURE_685.png,PENNY,5dd9951efef7c2916a145550,21/12/1952,2020-09-10_22h55.45.773,proactive3.1,2020.1.2,Win32,60,5f599a131af4471f3d752b7b,5f5ae7002a36a420413399f6,5,,,,,,goose,,,,,,0,37,37,4,1,1,1,,,,,,,,,,,,,,,,,,,,,,,,,,,,,,,,,,,,,,,,,,,,,,,,,,,,,,,,,,,,,,,,,,,,,,,,,,,,,,,,,,,,,,,,,,,,,,,,,,,,,,,,,,,,,
,,,,,,,,,,stimuli/images/PICTURE_750.png,HOTEL,5dd9951efef7c2916a145550,21/12/1952,2020-09-10_22h55.45.773,proactive3.1,2020.1.2,Win32,60,5f599a131af4471f3d752b7b,5f5ae7002a36a420413399f6,5,,,,,,kettle,,,,,,0,38,38,27,1,3,1,,,,,,,,,,,,,,,,,,,,,,,,,,,,,,,,,,,,,,,,,,,,,,,,,,,,,,,,,,,,,,,,,,,,,,,,,,,,,,,,,,,,,,,,,,,,,,,,,,,,,,,,,,,,,
,,,,,,,,,,stimuli/images/PICTURE_491.png,GLASS,5dd9951efef7c2916a145550,21/12/1952,2020-09-10_22h55.45.773,proactive3.1,2020.1.2,Win32,60,5f599a131af4471f3d752b7b,5f5ae7002a36a420413399f6,5,,,,,,rug,,,,,,0,39,39,14,1,2,1,,,,,,,,,,,,,,,,,,,,,,,,,,,,,,,,,,,,,,,,,,,,,,,,,,,,,,,,,,,,,,,,,,,,,,,,,,,,,,,,,,,,,,,,,,,,,,,,,,,,,,,,,,,,,
,,,,,,,,,,stimuli/images/PICTURE_42.png,BOYS,5dd9951efef7c2916a145550,21/12/1952,2020-09-10_22h55.45.773,proactive3.1,2020.1.2,Win32,60,5f599a131af4471f3d752b7b,5f5ae7002a36a420413399f6,5,,,,,,pear,,,,,,0,40,40,55,1,6,1,,,,,,,,,,,,,,,,,,,,,,,,,,,,,,,,,,,,,,,,,,,,,,,,,,,,,,,,,,,,,,,,,,,,,,,,,,,,,,,,,,,,,,,,,,,,,,,,,,,,,,,,,,,,,
,,,,,,,,,,stimuli/images/PICTURE_308.png,FAMILY,5dd9951efef7c2916a145550,21/12/1952,2020-09-10_22h55.45.773,proactive3.1,2020.1.2,Win32,60,5f599a131af4471f3d752b7b,5f5ae7002a36a420413399f6,5,,,,,,dice,,,,,,0,41,41,36,1,4,1,,,,,,,,,,,,,,,,,,,,,,,,,,,,,,,,,,,,,,,,,,,,,,,,,,,,,,,,,,,,,,,,,,,,,,,,,,,,,,,,,,,,,,,,,,,,,,,,,,,,,,,,,,,,,
,,,,,,,,,,stimuli/images/PICTURE_296.png,LIFE,5dd9951efef7c2916a145550,21/12/1952,2020-09-10_22h55.45.773,proactive3.1,2020.1.2,Win32,60,5f599a131af4471f3d752b7b,5f5ae7002a36a420413399f6,5,,,,,,bolt,,,,,,0,42,42,57,1,6,1,,,,,,,,,,,,,,,,,,,,,,,,,,,,,,,,,,,,,,,,,,,,,,,,,,,,,,,,,,,,,,,,,,,,,,,,,,,,,,,,,,,,,,,,,,,,,,,,,,,,,,,,,,,,,
,,,,,,,,,,stimuli/images/PICTURE_95.png,HONEY,5dd9951efef7c2916a145550,21/12/1952,2020-09-10_22h55.45.773,proactive3.1,2020.1.2,Win32,60,5f599a131af4471f3d752b7b,5f5ae7002a36a420413399f6,5,,,,,,suitcase,,,,,,0,43,43,44,1,5,1,,,,,,,,,,,,,,,,,,,,,,,,,,,,,,,,,,,,,,,,,,,,,,,,,,,,,,,,,,,,,,,,,,,,,,,,,,,,,,,,,,,,,,,,,,,,,,,,,,,,,,,,,,,,,
,,,,,,,,,,stimuli/images/PICTURE_708.png,RECORD,5dd9951efef7c2916a145550,21/12/1952,2020-09-10_22h55.45.773,proactive3.1,2020.1.2,Win32,60,5f599a131af4471f3d752b7b,5f5ae7002a36a420413399f6,5,,,,,,monkey,,,,,,0,44,44,58,1,6,1,,,,,,,,,,,,,,,,,,,,,,,,,,,,,,,,,,,,,,,,,,,,,,,,,,,,,,,,,,,,,,,,,,,,,,,,,,,,,,,,,,,,,,,,,,,,,,,,,,,,,,,,,,,,,
,,,,,,,,,,stimuli/images/PICTURE_675.png,SALE,5dd9951efef7c2916a145550,21/12/1952,2020-09-10_22h55.45.773,proactive3.1,2020.1.2,Win32,60,5f599a131af4471f3d752b7b,5f5ae7002a36a420413399f6,5,,,,,,windmill,,,,,,0,45,45,47,1,5,1,,,,,,,,,,,,,,,,,,,,,,,,,,,,,,,,,,,,,,,,,,,,,,,,,,,,,,,,,,,,,,,,,,,,,,,,,,,,,,,,,,,,,,,,,,,,,,,,,,,,,,,,,,,,,
,,,,,,,,,,stimuli/images/PICTURE_147.png,WOMEN,5dd9951efef7c2916a145550,21/12/1952,2020-09-10_22h55.45.773,proactive3.1,2020.1.2,Win32,60,5f599a131af4471f3d752b7b,5f5ae7002a36a420413399f6,5,,,,,,hanger,,,,,,0,46,46,7,1,1,1,,,,,,,,,,,,,,,,,,,,,,,,,,,,,,,,,,,,,,,,,,,,,,,,,,,,,,,,,,,,,,,,,,,,,,,,,,,,,,,,,,,,,,,,,,,,,,,,,,,,,,,,,,,,,
,,,,,,,,,,stimuli/images/PICTURE_340.png,VALLEY,5dd9951efef7c2916a145550,21/12/1952,2020-09-10_22h55.45.773,proactive3.1,2020.1.2,Win32,60,5f599a131af4471f3d752b7b,5f5ae7002a36a420413399f6,5,,,,,,mirror,,,,,,0,47,47,54,1,6,1,,,,,,,,,,,,,,,,,,,,,,,,,,,,,,,,,,,,,,,,,,,,,,,,,,,,,,,,,,,,,,,,,,,,,,,,,,,,,,,,,,,,,,,,,,,,,,,,,,,,,,,,,,,,,
,,,,,,,,,,stimuli/images/PICTURE_380.png,CANDY,5dd9951efef7c2916a145550,21/12/1952,2020-09-10_22h55.45.773,proactive3.1,2020.1.2,Win32,60,5f599a131af4471f3d752b7b,5f5ae7002a36a420413399f6,5,,,,,,gorilla,,,,,,0,48,48,0,1,1,1,,,,,,,,,,,,,,,,,,,,,,,,,,,,,,,,,,,,,,,,,,,,,,,,,,,,,,,,,,,,,,,,,,,,,,,,,,,,,,,,,,,,,,,,,,,,,,,,,,,,,,,,,,,,,
,,,,,,,,,,stimuli/images/PICTURE_564.png,BATH,5dd9951efef7c2916a145550,21/12/1952,2020-09-10_22h55.45.773,proactive3.1,2020.1.2,Win32,60,5f599a131af4471f3d752b7b,5f5ae7002a36a420413399f6,5,,,,,,spoon,,,,,,0,49,49,26,1,3,1,,,,,,,,,,,,,,,,,,,,,,,,,,,,,,,,,,,,,,,,,,,,,,,,,,,,,,,,,,,,,,,,,,,,,,,,,,,,,,,,,,,,,,,,,,,,,,,,,,,,,,,,,,,,,
,,,,,,,,,,stimuli/images/PICTURE_403.png,TOILET,5dd9951efef7c2916a145550,21/12/1952,2020-09-10_22h55.45.773,proactive3.1,2020.1.2,Win32,60,5f599a131af4471f3d752b7b,5f5ae7002a36a420413399f6,5,,,,,,cathedral,,,,,,0,50,50,25,1,3,1,,,,,,,,,,,,,,,,,,,,,,,,,,,,,,,,,,,,,,,,,,,,,,,,,,,,,,,,,,,,,,,,,,,,,,,,,,,,,,,,,,,,,,,,,,,,,,,,,,,,,,,,,,,,,
,,,,,,,,,,stimuli/images/PICTURE_467.png,POLICY,5dd9951efef7c2916a145550,21/12/1952,2020-09-10_22h55.45.773,proactive3.1,2020.1.2,Win32,60,5f599a131af4471f3d752b7b,5f5ae7002a36a420413399f6,5,,,,,,peg,,,,,,0,51,51,53,1,6,1,,,,,,,,,,,,,,,,,,,,,,,,,,,,,,,,,,,,,,,,,,,,,,,,,,,,,,,,,,,,,,,,,,,,,,,,,,,,,,,,,,,,,,,,,,,,,,,,,,,,,,,,,,,,,
,,,,,,,,,,stimuli/images/PICTURE_339.png,CLIENT,5dd9951efef7c2916a145550,21/12/1952,2020-09-10_22h55.45.773,proactive3.1,2020.1.2,Win32,60,5f599a131af4471f3d752b7b,5f5ae7002a36a420413399f6,5,,,,,,backpack,,,,,,0,52,52,11,1,2,1,,,,,,,,,,,,,,,,,,,,,,,,,,,,,,,,,,,,,,,,,,,,,,,,,,,,,,,,,,,,,,,,,,,,,,,,,,,,,,,,,,,,,,,,,,,,,,,,,,,,,,,,,,,,,
,,,,,,,,,,stimuli/images/PICTURE_380.png,HONEY,5dd9951efef7c2916a145550,21/12/1952,2020-09-10_22h55.45.773,proactive3.1,2020.1.2,Win32,60,5f599a131af4471f3d752b7b,5f5ae7002a36a420413399f6,5,,,,,,gorilla,,,,,,0,53,53,19,1,2,1,,,,,,,,,,,,,,,,,,,,,,,,,,,,,,,,,,,,,,,,,,,,,,,,,,,,,,,,,,,,,,,,,,,,,,,,,,,,,,,,,,,,,,,,,,,,,,,,,,,,,,,,,,,,,
,,,,,,,,,,stimuli/images/PICTURE_403.png,RIVER,5dd9951efef7c2916a145550,21/12/1952,2020-09-10_22h55.45.773,proactive3.1,2020.1.2,Win32,60,5f599a131af4471f3d752b7b,5f5ae7002a36a420413399f6,5,,,,,,cathedral,,,,,,0,54,54,40,1,5,1,,,,,,,,,,,,,,,,,,,,,,,,,,,,,,,,,,,,,,,,,,,,,,,,,,,,,,,,,,,,,,,,,,,,,,,,,,,,,,,,,,,,,,,,,,,,,,,,,,,,,,,,,,,,,
,,,,,,,,,,stimuli/images/PICTURE_449.png,DUDE,5dd9951efef7c2916a145550,21/12/1952,2020-09-10_22h55.45.773,proactive3.1,2020.1.2,Win32,60,5f599a131af4471f3d752b7b,5f5ae7002a36a420413399f6,5,,,,,,bench,,,,,,0,55,55,17,1,2,1,,,,,,,,,,,,,,,,,,,,,,,,,,,,,,,,,,,,,,,,,,,,,,,,,,,,,,,,,,,,,,,,,,,,,,,,,,,,,,,,,,,,,,,,,,,,,,,,,,,,,,,,,,,,,
,,,,,,,,,,stimuli/images/PICTURE_57.png,MOMENT,5dd9951efef7c2916a145550,21/12/1952,2020-09-10_22h55.45.773,proactive3.1,2020.1.2,Win32,60,5f599a131af4471f3d752b7b,5f5ae7002a36a420413399f6,5,,,,,,stamp,,,,,,0,56,56,37,1,4,1,,,,,,,,,,,,,,,,,,,,,,,,,,,,,,,,,,,,,,,,,,,,,,,,,,,,,,,,,,,,,,,,,,,,,,,,,,,,,,,,,,,,,,,,,,,,,,,,,,,,,,,,,,,,,
,,,,,,,,,,stimuli/images/PICTURE_504.png,COPS,5dd9951efef7c2916a145550,21/12/1952,2020-09-10_22h55.45.773,proactive3.1,2020.1.2,Win32,60,5f599a131af4471f3d752b7b,5f5ae7002a36a420413399f6,5,,,,,,wheel,,,,,,0,57,57,52,1,6,1,,,,,,,,,,,,,,,,,,,,,,,,,,,,,,,,,,,,,,,,,,,,,,,,,,,,,,,,,,,,,,,,,,,,,,,,,,,,,,,,,,,,,,,,,,,,,,,,,,,,,,,,,,,,,
,,,,,,,,,,stimuli/images/PICTURE_654.png,MONTH,5dd9951efef7c2916a145550,21/12/1952,2020-09-10_22h55.45.773,proactive3.1,2020.1.2,Win32,60,5f599a131af4471f3d752b7b,5f5ae7002a36a420413399f6,5,,,,,,pencil,,,,,,0,58,58,29,1,3,1,,,,,,,,,,,,,,,,,,,,,,,,,,,,,,,,,,,,,,,,,,,,,,,,,,,,,,,,,,,,,,,,,,,,,,,,,,,,,,,,,,,,,,,,,,,,,,,,,,,,,,,,,,,,,
,,?,0.00047,0,,,,,,stimuli/images/PICTURE_491.png,RIVER,5dd9951efef7c2916a145550,21/12/1952,2020-09-10_22h55.45.773,proactive3.1,2020.1.2,Win32,60,5f599a131af4471f3d752b7b,5f5ae7002a36a420413399f6,5,,,,,,rug,,,,,,,,,,,1,1,0,0,0,6,1,,,,,,,,,,,,,,,,,,,,,,,,,,,,,,,,,,,,,,,,,,,,,,,,,,,,,,,,,,,,,,,,,,,,,,,,,,,,,,,,,,,,,,,,,,,,,,,,,,,,,,,,
,,?,0.000325,0,,,,,,stimuli/images/PICTURE_380.png,HONEY,5dd9951efef7c2916a145550,21/12/1952,2020-09-10_22h55.45.773,proactive3.1,2020.1.2,Win32,60,5f599a131af4471f3d752b7b,5f5ae7002a36a420413399f6,5,,,,,,gorilla,,,,,,,,,,,2,1,0,1,1,19,1,,,,,,,,,,,,,,,,,,,,,,,,,,,,,,,,,,,,,,,,,,,,,,,,,,,,,,,,,,,,,,,,,,,,,,,,,,,,,,,,,,,,,,,,,,,,,,,,,,,,,,,,
,,?,0.00032,0,,,,,,stimuli/images/PICTURE_491.png,GLASS,5dd9951efef7c2916a145550,21/12/1952,2020-09-10_22h55.45.773,proactive3.1,2020.1.2,Win32,60,5f599a131af4471f3d752b7b,5f5ae7002a36a420413399f6,5,,,,,,rug,,,,,,,,,,,2,1,0,2,2,14,1,,,,,,,,,,,,,,,,,,,,,,,,,,,,,,,,,,,,,,,,,,,,,,,,,,,,,,,,,,,,,,,,,,,,,,,,,,,,,,,,,,,,,,,,,,,,,,,,,,,,,,,,
,,RIVER,4.57312,1,,,,,,stimuli/images/PICTURE_403.png,RIVER,5dd9951efef7c2916a145550,21/12/1952,2020-09-10_22h55.45.773,proactive3.1,2020.1.2,Win32,60,5f599a131af4471f3d752b7b,5f5ae7002a36a420413399f6,5,,,,,,cathedral,,,,,,,,,,,5,1,0,3,3,40,1,,,,,,,,,,,,,,,,,,,,,,,,,,,,,,,,,,,,,,,,,,,,,,,,,,,,,,,,,,,,,,,,,,,,,,,,,,,,,,,,,,,,,,,,,,,,,,,,,,,,,,,,
,,?,0.000985,0,,,,,,stimuli/images/PICTURE_57.png,MOMENT,5dd9951efef7c2916a145550,21/12/1952,2020-09-10_22h55.45.773,proactive3.1,2020.1.2,Win32,60,5f599a131af4471f3d752b7b,5f5ae7002a36a420413399f6,5,,,,,,stamp,,,,,,,,,,,4,1,0,4,4,37,1,,,,,,,,,,,,,,,,,,,,,,,,,,,,,,,,,,,,,,,,,,,,,,,,,,,,,,,,,,,,,,,,,,,,,,,,,,,,,,,,,,,,,,,,,,,,,,,,,,,,,,,,
,,?,0.000455,0,,,,,,stimuli/images/PICTURE_327.png,SERIES,5dd9951efef7c2916a145550,21/12/1952,2020-09-10_22h55.45.773,proactive3.1,2020.1.2,Win32,60,5f599a131af4471f3d752b7b,5f5ae7002a36a420413399f6,5,,,,,,helmet,,,,,,,,,,,1,1,0,5,5,3,1,,,,,,,,,,,,,,,,,,,,,,,,,,,,,,,,,,,,,,,,,,,,,,,,,,,,,,,,,,,,,,,,,,,,,,,,,,,,,,,,,,,,,,,,,,,,,,,,,,,,,,,,
,,?,0.00046,0,,,,,,stimuli/images/PICTURE_403.png,TOILET,5dd9951efef7c2916a145550,21/12/1952,2020-09-10_22h55.45.773,proactive3.1,2020.1.2,Win32,60,5f599a131af4471f3d752b7b,5f5ae7002a36a420413399f6,5,,,,,,cathedral,,,,,,,,,,,3,1,0,6,6,25,1,,,,,,,,,,,,,,,,,,,,,,,,,,,,,,,,,,,,,,,,,,,,,,,,,,,,,,,,,,,,,,,,,,,,,,,,,,,,,,,,,,,,,,,,,,,,,,,,,,,,,,,,
,,?,0.00044,0,,,,,,stimuli/images/PICTURE_296.png,LOTS,5dd9951efef7c2916a145550,21/12/1952,2020-09-10_22h55.45.773,proactive3.1,2020.1.2,Win32,60,5f599a131af4471f3d752b7b,5f5ae7002a36a420413399f6,5,,,,,,bolt,,,,,,,,,,,1,1,0,7,7,9,1,,,,,,,,,,,,,,,,,,,,,,,,,,,,,,,,,,,,,,,,,,,,,,,,,,,,,,,,,,,,,,,,,,,,,,,,,,,,,,,,,,,,,,,,,,,,,,,,,,,,,,,,
,,?,0.00046,0,,,,,,stimuli/images/PICTURE_308.png,FAMILY,5dd9951efef7c2916a145550,21/12/1952,2020-09-10_22h55.45.773,proactive3.1,2020.1.2,Win32,60,5f599a131af4471f3d752b7b,5f5ae7002a36a420413399f6,5,,,,,,dice,,,,,,,,,,,4,1,0,8,8,36,1,,,,,,,,,,,,,,,,,,,,,,,,,,,,,,,,,,,,,,,,,,,,,,,,,,,,,,,,,,,,,,,,,,,,,,,,,,,,,,,,,,,,,,,,,,,,,,,,,,,,,,,,
,,?,0.00046,0,,,,,,stimuli/images/PICTURE_469.png,AGENT,5dd9951efef7c2916a145550,21/12/1952,2020-09-10_22h55.45.773,proactive3.1,2020.1.2,Win32,60,5f599a131af4471f3d752b7b,5f5ae7002a36a420413399f6,5,,,,,,stool,,,,,,,,,,,2,1,0,9,9,16,1,,,,,,,,,,,,,,,,,,,,,,,,,,,,,,,,,,,,,,,,,,,,,,,,,,,,,,,,,,,,,,,,,,,,,,,,,,,,,,,,,,,,,,,,,,,,,,,,,,,,,,,,
,,?,0.00044,0,,,,,,stimuli/images/PICTURE_296.png,LIFE,5dd9951efef7c2916a145550,21/12/1952,2020-09-10_22h55.45.773,proactive3.1,2020.1.2,Win32,60,5f599a131af4471f3d752b7b,5f5ae7002a36a420413399f6,5,,,,,,bolt,,,,,,,,,,,6,1,0,10,10,57,1,,,,,,,,,,,,,,,,,,,,,,,,,,,,,,,,,,,,,,,,,,,,,,,,,,,,,,,,,,,,,,,,,,,,,,,,,,,,,,,,,,,,,,,,,,,,,,,,,,,,,,,,
,,?,0.000585,0,,,,,,stimuli/images/PICTURE_285.png,LIFE,5dd9951efef7c2916a145550,21/12/1952,2020-09-10_22h55.45.773,proactive3.1,2020.1.2,Win32,60,5f599a131af4471f3d752b7b,5f5ae7002a36a420413399f6,5,,,,,,carrot,,,,,,,,,,,4,1,0,11,11,33,1,,,,,,,,,,,,,,,,,,,,,,,,,,,,,,,,,,,,,,,,,,,,,,,,,,,,,,,,,,,,,,,,,,,,,,,,,,,,,,,,,,,,,,,,,,,,,,,,,,,,,,,,
,,?,0.000435,0,,,,,,stimuli/images/PICTURE_108.png,POLICY,5dd9951efef7c2916a145550,21/12/1952,2020-09-10_22h55.45.773,proactive3.1,2020.1.2,Win32,60,5f599a131af4471f3d752b7b,5f5ae7002a36a420413399f6,5,,,,,,calendar,,,,,,,,,,,3,1,0,12,12,22,1,,,,,,,,,,,,,,,,,,,,,,,,,,,,,,,,,,,,,,,,,,,,,,,,,,,,,,,,,,,,,,,,,,,,,,,,,,,,,,,,,,,,,,,,,,,,,,,,,,,,,,,,
,,?,0.00046,0,,,,,,stimuli/images/PICTURE_405.png,YEAR,5dd9951efef7c2916a145550,21/12/1952,2020-09-10_22h55.45.773,proactive3.1,2020.1.2,Win32,60,5f599a131af4471f3d752b7b,5f5ae7002a36a420413399f6,5,,,,,,anchor,,,,,,,,,,,4,1,0,13,13,34,1,,,,,,,,,,,,,,,,,,,,,,,,,,,,,,,,,,,,,,,,,,,,,,,,,,,,,,,,,,,,,,,,,,,,,,,,,,,,,,,,,,,,,,,,,,,,,,,,,,,,,,,,
,,?,2.320395,0,,,,,,stimuli/images/PICTURE_177.png,WRITER,5dd9951efef7c2916a145550,21/12/1952,2020-09-10_22h55.45.773,proactive3.1,2020.1.2,Win32,60,5f599a131af4471f3d752b7b,5f5ae7002a36a420413399f6,5,,,,,,mushroom,,,,,,,,,,,5,1,0,14,14,41,1,,,,,,,,,,,,,,,,,,,,,,,,,,,,,,,,,,,,,,,,,,,,,,,,,,,,,,,,,,,,,,,,,,,,,,,,,,,,,,,,,,,,,,,,,,,,,,,,,,,,,,,,
,,?,0.00081,0,,,,,,stimuli/images/PICTURE_744.png,WEAPON,5dd9951efef7c2916a145550,21/12/1952,2020-09-10_22h55.45.773,proactive3.1,2020.1.2,Win32,60,5f599a131af4471f3d752b7b,5f5ae7002a36a420413399f6,5,,,,,,ring,,,,,,,,,,,6,1,0,15,15,50,1,,,,,,,,,,,,,,,,,,,,,,,,,,,,,,,,,,,,,,,,,,,,,,,,,,,,,,,,,,,,,,,,,,,,,,,,,,,,,,,,,,,,,,,,,,,,,,,,,,,,,,,,
,,?,0.00032,0,,,,,,stimuli/images/PICTURE_95.png,BOYS,5dd9951efef7c2916a145550,21/12/1952,2020-09-10_22h55.45.773,proactive3.1,2020.1.2,Win32,60,5f599a131af4471f3d752b7b,5f5ae7002a36a420413399f6,5,,,,,,suitcase,,,,,,,,,,,1,1,0,16,16,1,1,,,,,,,,,,,,,,,,,,,,,,,,,,,,,,,,,,,,,,,,,,,,,,,,,,,,,,,,,,,,,,,,,,,,,,,,,,,,,,,,,,,,,,,,,,,,,,,,,,,,,,,,
,,?,0.000305,0,,,,,,stimuli/images/PICTURE_85.png,NATION,5dd9951efef7c2916a145550,21/12/1952,2020-09-10_22h55.45.773,proactive3.1,2020.1.2,Win32,60,5f599a131af4471f3d752b7b,5f5ae7002a36a420413399f6,5,,,,,,diamond,,,,,,,,,,,1,1,0,17,17,5,1,,,,,,,,,,,,,,,,,,,,,,,,,,,,,,,,,,,,,,,,,,,,,,,,,,,,,,,,,,,,,,,,,,,,,,,,,,,,,,,,,,,,,,,,,,,,,,,,,,,,,,,,
,,?,0.00031,0,,,,,,stimuli/images/PICTURE_685.png,PENNY,5dd9951efef7c2916a145550,21/12/1952,2020-09-10_22h55.45.773,proactive3.1,2020.1.2,Win32,60,5f599a131af4471f3d752b7b,5f5ae7002a36a420413399f6,5,,,,,,goose,,,,,,,,,,,1,1,0,18,18,4,1,,,,,,,,,,,,,,,,,,,,,,,,,,,,,,,,,,,,,,,,,,,,,,,,,,,,,,,,,,,,,,,,,,,,,,,,,,,,,,,,,,,,,,,,,,,,,,,,,,,,,,,,
,,LOTS,3.11165,1,,,,,,stimuli/images/PICTURE_233.png,LOTS,5dd9951efef7c2916a145550,21/12/1952,2020-09-10_22h55.45.773,proactive3.1,2020.1.2,Win32,60,5f599a131af4471f3d752b7b,5f5ae7002a36a420413399f6,5,,,,,,salt,,,,,,,,,,,5,1,0,19,19,42,1,,,,,,,,,,,,,,,,,,,,,,,,,,,,,,,,,,,,,,,,,,,,,,,,,,,,,,,,,,,,,,,,,,,,,,,,,,,,,,,,,,,,,,,,,,,,,,,,,,,,,,,,
,,?,0.00165,0,,,,,,stimuli/images/PICTURE_708.png,RECORD,5dd9951efef7c2916a145550,21/12/1952,2020-09-10_22h55.45.773,proactive3.1,2020.1.2,Win32,60,5f599a131af4471f3d752b7b,5f5ae7002a36a420413399f6,5,,,,,,monkey,,,,,,,,,,,6,1,0,20,20,58,1,,,,,,,,,,,,,,,,,,,,,,,,,,,,,,,,,,,,,,,,,,,,,,,,,,,,,,,,,,,,,,,,,,,,,,,,,,,,,,,,,,,,,,,,,,,,,,,,,,,,,,,,
,,?,0.000405,0,,,,,,stimuli/images/PICTURE_467.png,POLICY,5dd9951efef7c2916a145550,21/12/1952,2020-09-10_22h55.45.773,proactive3.1,2020.1.2,Win32,60,5f599a131af4471f3d752b7b,5f5ae7002a36a420413399f6,5,,,,,,peg,,,,,,,,,,,6,1,0,21,21,53,1,,,,,,,,,,,,,,,,,,,,,,,,,,,,,,,,,,,,,,,,,,,,,,,,,,,,,,,,,,,,,,,,,,,,,,,,,,,,,,,,,,,,,,,,,,,,,,,,,,,,,,,,
,,?,0.00032,0,,,,,,stimuli/images/PICTURE_405.png,PLENTY,5dd9951efef7c2916a145550,21/12/1952,2020-09-10_22h55.45.773,proactive3.1,2020.1.2,Win32,60,5f599a131af4471f3d752b7b,5f5ae7002a36a420413399f6,5,,,,,,anchor,,,,,,,,,,,3,1,0,22,22,23,1,,,,,,,,,,,,,,,,,,,,,,,,,,,,,,,,,,,,,,,,,,,,,,,,,,,,,,,,,,,,,,,,,,,,,,,,,,,,,,,,,,,,,,,,,,,,,,,,,,,,,,,,
,,?,0.00032,0,,,,,,stimuli/images/PICTURE_2.png,FLIGHT,5dd9951efef7c2916a145550,21/12/1952,2020-09-10_22h55.45.773,proactive3.1,2020.1.2,Win32,60,5f599a131af4471f3d752b7b,5f5ae7002a36a420413399f6,5,,,,,,tyre,,,,,,,,,,,2,1,0,23,23,15,1,,,,,,,,,,,,,,,,,,,,,,,,,,,,,,,,,,,,,,,,,,,,,,,,,,,,,,,,,,,,,,,,,,,,,,,,,,,,,,,,,,,,,,,,,,,,,,,,,,,,,,,,
,,?,0.000315,0,,,,,,stimuli/images/PICTURE_203.png,NIGHT,5dd9951efef7c2916a145550,21/12/1952,2020-09-10_22h55.45.773,proactive3.1,2020.1.2,Win32,60,5f599a131af4471f3d752b7b,5f5ae7002a36a420413399f6,5,,,,,,cap,,,,,,,,,,,1,1,0,24,24,2,1,,,,,,,,,,,,,,,,,,,,,,,,,,,,,,,,,,,,,,,,,,,,,,,,,,,,,,,,,,,,,,,,,,,,,,,,,,,,,,,,,,,,,,,,,,,,,,,,,,,,,,,,
,,?,0.00033,0,,,,,,stimuli/images/PICTURE_95.png,MILLER,5dd9951efef7c2916a145550,21/12/1952,2020-09-10_22h55.45.773,proactive3.1,2020.1.2,Win32,60,5f599a131af4471f3d752b7b,5f5ae7002a36a420413399f6,5,,,,,,suitcase,,,,,,,,,,,6,1,0,25,25,56,1,,,,,,,,,,,,,,,,,,,,,,,,,,,,,,,,,,,,,,,,,,,,,,,,,,,,,,,,,,,,,,,,,,,,,,,,,,,,,,,,,,,,,,,,,,,,,,,,,,,,,,,,
,,TOILET,6.740335,1,,,,,,stimuli/images/PICTURE_85.png,TOILET,5dd9951efef7c2916a145550,21/12/1952,2020-09-10_22h55.45.773,proactive3.1,2020.1.2,Win32,60,5f599a131af4471f3d752b7b,5f5ae7002a36a420413399f6,5,,,,,,diamond,,,,,,,,,,,5,1,0,26,26,48,1,,,,,,,,,,,,,,,,,,,,,,,,,,,,,,,,,,,,,,,,,,,,,,,,,,,,,,,,,,,,,,,,,,,,,,,,,,,,,,,,,,,,,,,,,,,,,,,,,,,,,,,,
,,GIRL,3.6155,1,,,,,,stimuli/images/PICTURE_487.png,GIRL,5dd9951efef7c2916a145550,21/12/1952,2020-09-10_22h55.45.773,proactive3.1,2020.1.2,Win32,60,5f599a131af4471f3d752b7b,5f5ae7002a36a420413399f6,5,,,,,,basket,,,,,,,,,,,5,1,0,27,27,45,1,,,,,,,,,,,,,,,,,,,,,,,,,,,,,,,,,,,,,,,,,,,,,,,,,,,,,,,,,,,,,,,,,,,,,,,,,,,,,,,,,,,,,,,,,,,,,,,,,,,,,,,,
,,?,0.00164,0,,,,,,stimuli/images/PICTURE_147.png,YEAR,5dd9951efef7c2916a145550,21/12/1952,2020-09-10_22h55.45.773,proactive3.1,2020.1.2,Win32,60,5f599a131af4471f3d752b7b,5f5ae7002a36a420413399f6,5,,,,,,hanger,,,,,,,,,,,3,1,0,28,28,21,1,,,,,,,,,,,,,,,,,,,,,,,,,,,,,,,,,,,,,,,,,,,,,,,,,,,,,,,,,,,,,,,,,,,,,,,,,,,,,,,,,,,,,,,,,,,,,,,,,,,,,,,,
,,?,1.86141,0,,,,,,stimuli/images/PICTURE_675.png,SALE,5dd9951efef7c2916a145550,21/12/1952,2020-09-10_22h55.45.773,proactive3.1,2020.1.2,Win32,60,5f599a131af4471f3d752b7b,5f5ae7002a36a420413399f6,5,,,,,,windmill,,,,,,,,,,,5,1,0,29,29,47,1,,,,,,,,,,,,,,,,,,,,,,,,,,,,,,,,,,,,,,,,,,,,,,,,,,,,,,,,,,,,,,,,,,,,,,,,,,,,,,,,,,,,,,,,,,,,,,,,,,,,,,,,
,,?,0.001545,0,,,,,,stimuli/images/PICTURE_32.png,PILLS,5dd9951efef7c2916a145550,21/12/1952,2020-09-10_22h55.45.773,proactive3.1,2020.1.2,Win32,60,5f599a131af4471f3d752b7b,5f5ae7002a36a420413399f6,5,,,,,,crown,,,,,,,,,,,2,1,0,30,30,18,1,,,,,,,,,,,,,,,,,,,,,,,,,,,,,,,,,,,,,,,,,,,,,,,,,,,,,,,,,,,,,,,,,,,,,,,,,,,,,,,,,,,,,,,,,,,,,,,,,,,,,,,,
,,?,0.00034,0,,,,,,stimuli/images/PICTURE_667.png,RIVER,5dd9951efef7c2916a145550,21/12/1952,2020-09-10_22h55.45.773,proactive3.1,2020.1.2,Win32,60,5f599a131af4471f3d752b7b,5f5ae7002a36a420413399f6,5,,,,,,daisy,,,,,,,,,,,2,1,0,31,31,10,1,,,,,,,,,,,,,,,,,,,,,,,,,,,,,,,,,,,,,,,,,,,,,,,,,,,,,,,,,,,,,,,,,,,,,,,,,,,,,,,,,,,,,,,,,,,,,,,,,,,,,,,,
,,?,0.00032,0,,,,,,stimuli/images/PICTURE_68.png,ROOF,5dd9951efef7c2916a145550,21/12/1952,2020-09-10_22h55.45.773,proactive3.1,2020.1.2,Win32,60,5f599a131af4471f3d752b7b,5f5ae7002a36a420413399f6,5,,,,,,candle,,,,,,,,,,,4,1,0,32,32,38,1,,,,,,,,,,,,,,,,,,,,,,,,,,,,,,,,,,,,,,,,,,,,,,,,,,,,,,,,,,,,,,,,,,,,,,,,,,,,,,,,,,,,,,,,,,,,,,,,,,,,,,,,
,,?,0.00038,0,,,,,,stimuli/images/PICTURE_108.png,FLIGHT,5dd9951efef7c2916a145550,21/12/1952,2020-09-10_22h55.45.773,proactive3.1,2020.1.2,Win32,60,5f599a131af4471f3d752b7b,5f5ae7002a36a420413399f6,5,,,,,,calendar,,,,,,,,,,,6,1,0,33,33,59,1,,,,,,,,,,,,,,,,,,,,,,,,,,,,,,,,,,,,,,,,,,,,,,,,,,,,,,,,,,,,,,,,,,,,,,,,,,,,,,,,,,,,,,,,,,,,,,,,,,,,,,,,
,,?,0.000325,0,,,,,,stimuli/images/PICTURE_750.png,HOTEL,5dd9951efef7c2916a145550,21/12/1952,2020-09-10_22h55.45.773,proactive3.1,2020.1.2,Win32,60,5f599a131af4471f3d752b7b,5f5ae7002a36a420413399f6,5,,,,,,kettle,,,,,,,,,,,3,1,0,34,34,27,1,,,,,,,,,,,,,,,,,,,,,,,,,,,,,,,,,,,,,,,,,,,,,,,,,,,,,,,,,,,,,,,,,,,,,,,,,,,,,,,,,,,,,,,,,,,,,,,,,,,,,,,,
,,?,0.000315,0,,,,,,stimuli/images/PICTURE_654.png,MONTH,5dd9951efef7c2916a145550,21/12/1952,2020-09-10_22h55.45.773,proactive3.1,2020.1.2,Win32,60,5f599a131af4471f3d752b7b,5f5ae7002a36a420413399f6,5,,,,,,pencil,,,,,,,,,,,3,1,0,35,35,29,1,,,,,,,,,,,,,,,,,,,,,,,,,,,,,,,,,,,,,,,,,,,,,,,,,,,,,,,,,,,,,,,,,,,,,,,,,,,,,,,,,,,,,,,,,,,,,,,,,,,,,,,,
,,?,4.055935,0,,,,,,stimuli/images/PICTURE_95.png,HONEY,5dd9951efef7c2916a145550,21/12/1952,2020-09-10_22h55.45.773,proactive3.1,2020.1.2,Win32,60,5f599a131af4471f3d752b7b,5f5ae7002a36a420413399f6,5,,,,,,suitcase,,,,,,,,,,,5,1,0,36,36,44,1,,,,,,,,,,,,,,,,,,,,,,,,,,,,,,,,,,,,,,,,,,,,,,,,,,,,,,,,,,,,,,,,,,,,,,,,,,,,,,,,,,,,,,,,,,,,,,,,,,,,,,,,
,,?,0.00153,0,,,,,,stimuli/images/PICTURE_339.png,CLIENT,5dd9951efef7c2916a145550,21/12/1952,2020-09-10_22h55.45.773,proactive3.1,2020.1.2,Win32,60,5f599a131af4471f3d752b7b,5f5ae7002a36a420413399f6,5,,,,,,backpack,,,,,,,,,,,2,1,0,37,37,11,1,,,,,,,,,,,,,,,,,,,,,,,,,,,,,,,,,,,,,,,,,,,,,,,,,,,,,,,,,,,,,,,,,,,,,,,,,,,,,,,,,,,,,,,,,,,,,,,,,,,,,,,,
,,?,0.00034,0,,,,,,stimuli/images/PICTURE_208.png,SYSTEM,5dd9951efef7c2916a145550,21/12/1952,2020-09-10_22h55.45.773,proactive3.1,2020.1.2,Win32,60,5f599a131af4471f3d752b7b,5f5ae7002a36a420413399f6,5,,,,,,microphone,,,,,,,,,,,4,1,0,38,38,32,1,,,,,,,,,,,,,,,,,,,,,,,,,,,,,,,,,,,,,,,,,,,,,,,,,,,,,,,,,,,,,,,,,,,,,,,,,,,,,,,,,,,,,,,,,,,,,,,,,,,,,,,,
,,?,0.000335,0,,,,,,stimuli/images/PICTURE_33.png,FRIEND,5dd9951efef7c2916a145550,21/12/1952,2020-09-10_22h55.45.773,proactive3.1,2020.1.2,Win32,60,5f599a131af4471f3d752b7b,5f5ae7002a36a420413399f6,5,,,,,,frame,,,,,,,,,,,1,1,0,39,39,8,1,,,,,,,,,,,,,,,,,,,,,,,,,,,,,,,,,,,,,,,,,,,,,,,,,,,,,,,,,,,,,,,,,,,,,,,,,,,,,,,,,,,,,,,,,,,,,,,,,,,,,,,,
,,?,0.000315,0,,,,,,stimuli/images/PICTURE_203.png,GODS,5dd9951efef7c2916a145550,21/12/1952,2020-09-10_22h55.45.773,proactive3.1,2020.1.2,Win32,60,5f599a131af4471f3d752b7b,5f5ae7002a36a420413399f6,5,,,,,,cap,,,,,,,,,,,4,1,0,40,40,30,1,,,,,,,,,,,,,,,,,,,,,,,,,,,,,,,,,,,,,,,,,,,,,,,,,,,,,,,,,,,,,,,,,,,,,,,,,,,,,,,,,,,,,,,,,,,,,,,,,,,,,,,,
,,?,0.000315,0,,,,,,stimuli/images/PICTURE_504.png,COPS,5dd9951efef7c2916a145550,21/12/1952,2020-09-10_22h55.45.773,proactive3.1,2020.1.2,Win32,60,5f599a131af4471f3d752b7b,5f5ae7002a36a420413399f6,5,,,,,,wheel,,,,,,,,,,,6,1,0,41,41,52,1,,,,,,,,,,,,,,,,,,,,,,,,,,,,,,,,,,,,,,,,,,,,,,,,,,,,,,,,,,,,,,,,,,,,,,,,,,,,,,,,,,,,,,,,,,,,,,,,,,,,,,,,
,,?,0.000335,0,,,,,,stimuli/images/PICTURE_42.png,BOYS,5dd9951efef7c2916a145550,21/12/1952,2020-09-10_22h55.45.773,proactive3.1,2020.1.2,Win32,60,5f599a131af4471f3d752b7b,5f5ae7002a36a420413399f6,5,,,,,,pear,,,,,,,,,,,6,1,0,42,42,55,1,,,,,,,,,,,,,,,,,,,,,,,,,,,,,,,,,,,,,,,,,,,,,,,,,,,,,,,,,,,,,,,,,,,,,,,,,,,,,,,,,,,,,,,,,,,,,,,,,,,,,,,,
,,?,0.00032,0,,,,,,stimuli/images/PICTURE_504.png,YEAR,5dd9951efef7c2916a145550,21/12/1952,2020-09-10_22h55.45.773,proactive3.1,2020.1.2,Win32,60,5f599a131af4471f3d752b7b,5f5ae7002a36a420413399f6,5,,,,,,wheel,,,,,,,,,,,2,1,0,43,43,13,1,,,,,,,,,,,,,,,,,,,,,,,,,,,,,,,,,,,,,,,,,,,,,,,,,,,,,,,,,,,,,,,,,,,,,,,,,,,,,,,,,,,,,,,,,,,,,,,,,,,,,,,,
,,?,0.00031,0,,,,,,stimuli/images/PICTURE_297.png,RIVER,5dd9951efef7c2916a145550,21/12/1952,2020-09-10_22h55.45.773,proactive3.1,2020.1.2,Win32,60,5f599a131af4471f3d752b7b,5f5ae7002a36a420413399f6,5,,,,,,aeroplane,,,,,,,,,,,4,1,0,44,44,39,1,,,,,,,,,,,,,,,,,,,,,,,,,,,,,,,,,,,,,,,,,,,,,,,,,,,,,,,,,,,,,,,,,,,,,,,,,,,,,,,,,,,,,,,,,,,,,,,,,,,,,,,,
,,?,0.000325,0,,,,,,stimuli/images/PICTURE_340.png,VALLEY,5dd9951efef7c2916a145550,21/12/1952,2020-09-10_22h55.45.773,proactive3.1,2020.1.2,Win32,60,5f599a131af4471f3d752b7b,5f5ae7002a36a420413399f6,5,,,,,,mirror,,,,,,,,,,,6,1,0,45,45,54,1,,,,,,,,,,,,,,,,,,,,,,,,,,,,,,,,,,,,,,,,,,,,,,,,,,,,,,,,,,,,,,,,,,,,,,,,,,,,,,,,,,,,,,,,,,,,,,,,,,,,,,,,
,,?,0.00089,0,,,,,,stimuli/images/PICTURE_383.png,WRITER,5dd9951efef7c2916a145550,21/12/1952,2020-09-10_22h55.45.773,proactive3.1,2020.1.2,Win32,60,5f599a131af4471f3d752b7b,5f5ae7002a36a420413399f6,5,,,,,,coin,,,,,,,,,,,3,1,0,46,46,28,1,,,,,,,,,,,,,,,,,,,,,,,,,,,,,,,,,,,,,,,,,,,,,,,,,,,,,,,,,,,,,,,,,,,,,,,,,,,,,,,,,,,,,,,,,,,,,,,,,,,,,,,,
,,?,0.000315,0,,,,,,stimuli/images/PICTURE_32.png,KIND,5dd9951efef7c2916a145550,21/12/1952,2020-09-10_22h55.45.773,proactive3.1,2020.1.2,Win32,60,5f599a131af4471f3d752b7b,5f5ae7002a36a420413399f6,5,,,,,,crown,,,,,,,,,,,4,1,0,47,47,35,1,,,,,,,,,,,,,,,,,,,,,,,,,,,,,,,,,,,,,,,,,,,,,,,,,,,,,,,,,,,,,,,,,,,,,,,,,,,,,,,,,,,,,,,,,,,,,,,,,,,,,,,,
,,SERIES,3.43495,1,,,,,,stimuli/images/PICTURE_383.png,SERIES,5dd9951efef7c2916a145550,21/12/1952,2020-09-10_22h55.45.773,proactive3.1,2020.1.2,Win32,60,5f599a131af4471f3d752b7b,5f5ae7002a36a420413399f6,5,,,,,,coin,,,,,,,,,,,5,1,0,48,48,46,1,,,,,,,,,,,,,,,,,,,,,,,,,,,,,,,,,,,,,,,,,,,,,,,,,,,,,,,,,,,,,,,,,,,,,,,,,,,,,,,,,,,,,,,,,,,,,,,,,,,,,,,,
,,?,0.00162,0,,,,,,stimuli/images/PICTURE_655.png,TOILET,5dd9951efef7c2916a145550,21/12/1952,2020-09-10_22h55.45.773,proactive3.1,2020.1.2,Win32,60,5f599a131af4471f3d752b7b,5f5ae7002a36a420413399f6,5,,,,,,megaphone,,,,,,,,,,,2,1,0,49,49,12,1,,,,,,,,,,,,,,,,,,,,,,,,,,,,,,,,,,,,,,,,,,,,,,,,,,,,,,,,,,,,,,,,,,,,,,,,,,,,,,,,,,,,,,,,,,,,,,,,,,,,,,,,
,,?,0.00089,0,,,,,,stimuli/images/PICTURE_564.png,BATH,5dd9951efef7c2916a145550,21/12/1952,2020-09-10_22h55.45.773,proactive3.1,2020.1.2,Win32,60,5f599a131af4471f3d752b7b,5f5ae7002a36a420413399f6,5,,,,,,spoon,,,,,,,,,,,3,1,0,50,50,26,1,,,,,,,,,,,,,,,,,,,,,,,,,,,,,,,,,,,,,,,,,,,,,,,,,,,,,,,,,,,,,,,,,,,,,,,,,,,,,,,,,,,,,,,,,,,,,,,,,,,,,,,,
,,?,0.000315,0,,,,,,stimuli/images/PICTURE_449.png,DUDE,5dd9951efef7c2916a145550,21/12/1952,2020-09-10_22h55.45.773,proactive3.1,2020.1.2,Win32,60,5f599a131af4471f3d752b7b,5f5ae7002a36a420413399f6,5,,,,,,bench,,,,,,,,,,,2,1,0,51,51,17,1,,,,,,,,,,,,,,,,,,,,,,,,,,,,,,,,,,,,,,,,,,,,,,,,,,,,,,,,,,,,,,,,,,,,,,,,,,,,,,,,,,,,,,,,,,,,,,,,,,,,,,,,
,,?,0.00031,0,,,,,,stimuli/images/PICTURE_340.png,LETTER,5dd9951efef7c2916a145550,21/12/1952,2020-09-10_22h55.45.773,proactive3.1,2020.1.2,Win32,60,5f599a131af4471f3d752b7b,5f5ae7002a36a420413399f6,5,,,,,,mirror,,,,,,,,,,,3,1,0,52,52,24,1,,,,,,,,,,,,,,,,,,,,,,,,,,,,,,,,,,,,,,,,,,,,,,,,,,,,,,,,,,,,,,,,,,,,,,,,,,,,,,,,,,,,,,,,,,,,,,,,,,,,,,,,
,,?,0.00033,0,,,,,,stimuli/images/PICTURE_68.png,MILE,5dd9951efef7c2916a145550,21/12/1952,2020-09-10_22h55.45.773,proactive3.1,2020.1.2,Win32,60,5f599a131af4471f3d752b7b,5f5ae7002a36a420413399f6,5,,,,,,candle,,,,,,,,,,,6,1,0,53,53,51,1,,,,,,,,,,,,,,,,,,,,,,,,,,,,,,,,,,,,,,,,,,,,,,,,,,,,,,,,,,,,,,,,,,,,,,,,,,,,,,,,,,,,,,,,,,,,,,,,,,,,,,,,
,,APPLE,3.15751,1,,,,,,stimuli/images/PICTURE_677.png,APPLE,5dd9951efef7c2916a145550,21/12/1952,2020-09-10_22h55.45.773,proactive3.1,2020.1.2,Win32,60,5f599a131af4471f3d752b7b,5f5ae7002a36a420413399f6,5,,,,,,map,,,,,,,,,,,5,1,0,54,54,43,1,,,,,,,,,,,,,,,,,,,,,,,,,,,,,,,,,,,,,,,,,,,,,,,,,,,,,,,,,,,,,,,,,,,,,,,,,,,,,,,,,,,,,,,,,,,,,,,,,,,,,,,,
,,?,0.001765,0,,,,,,stimuli/images/PICTURE_147.png,WOMEN,5dd9951efef7c2916a145550,21/12/1952,2020-09-10_22h55.45.773,proactive3.1,2020.1.2,Win32,60,5f599a131af4471f3d752b7b,5f5ae7002a36a420413399f6,5,,,,,,hanger,,,,,,,,,,,1,1,0,55,55,7,1,,,,,,,,,,,,,,,,,,,,,,,,,,,,,,,,,,,,,,,,,,,,,,,,,,,,,,,,,,,,,,,,,,,,,,,,,,,,,,,,,,,,,,,,,,,,,,,,,,,,,,,,
,,?,0.00128,0,,,,,,stimuli/images/PICTURE_403.png,WRITER,5dd9951efef7c2916a145550,21/12/1952,2020-09-10_22h55.45.773,proactive3.1,2020.1.2,Win32,60,5f599a131af4471f3d752b7b,5f5ae7002a36a420413399f6,5,,,,,,cathedral,,,,,,,,,,,4,1,0,56,56,31,1,,,,,,,,,,,,,,,,,,,,,,,,,,,,,,,,,,,,,,,,,,,,,,,,,,,,,,,,,,,,,,,,,,,,,,,,,,,,,,,,,,,,,,,,,,,,,,,,,,,,,,,,
,,?,0.00128,0,,,,,,stimuli/images/PICTURE_380.png,CANDY,5dd9951efef7c2916a145550,21/12/1952,2020-09-10_22h55.45.773,proactive3.1,2020.1.2,Win32,60,5f599a131af4471f3d752b7b,5f5ae7002a36a420413399f6,5,,,,,,gorilla,,,,,,,,,,,1,1,0,57,57,0,1,,,,,,,,,,,,,,,,,,,,,,,,,,,,,,,,,,,,,,,,,,,,,,,,,,,,,,,,,,,,,,,,,,,,,,,,,,,,,,,,,,,,,,,,,,,,,,,,,,,,,,,,
,,?,0.001055,0,,,,,,stimuli/images/PICTURE_327.png,CASINO,5dd9951efef7c2916a145550,21/12/1952,2020-09-10_22h55.45.773,proactive3.1,2020.1.2,Win32,60,5f599a131af4471f3d752b7b,5f5ae7002a36a420413399f6,5,,,,,,helmet,,,,,,,,,,,3,1,0,58,58,20,1,,,,,,,,,,,,,,,,,,,,,,,,,,,,,,,,,,,,,,,,,,,,,,,,,,,,,,,,,,,,,,,,,,,,,,,,,,,,,,,,,,,,,,,,,,,,,,,,,,,,,,,,
,,ARTIST,3.53446,1,,,,,,stimuli/images/PICTURE_504.png,ARTIST,5dd9951efef7c2916a145550,21/12/1952,2020-09-10_22h55.45.773,proactive3.1,2020.1.2,Win32,60,5f599a131af4471f3d752b7b,5f5ae7002a36a420413399f6,5,,,,,,wheel,,,,,,,,,,,5,1,0,59,59,49,1,,,,,,,,,,,,,,,,,,,,,,,,,,,,,,,,,,,,,,,,,,,,,,,,,,,,,,,,,,,,,,,,,,,,,,,,,,,,,,,,,,,,,,,,,,,,,,,,,,,,,,,,
,,,,,,,,,,,,5dd9951efef7c2916a145550,21/12/1952,2020-09-10_22h55.45.773,proactive3.1,2020.1.2,Win32,60,5f599a131af4471f3d752b7b,5f5ae7002a36a420413399f6,5,,,,,,,,,,,,,,,,,,,,,,,,0,1,1,1,1,stimuli/learn-block2.csv,,,,,,,,,,,,,,,,,,,,,,,,,,,,,,,,,,,,,,,,,,,,,,,,,,,,,,,,,,,,,,,,,,,,,,,,,,,,,,,,,,,,,,,,,,,,,,,,,,
,,,,,,,,,,stimuli/images/PICTURE_255.png,AREA,5dd9951efef7c2916a145550,21/12/1952,2020-09-10_22h55.45.773,proactive3.1,2020.1.2,Win32,60,5f599a131af4471f3d752b7b,5f5ae7002a36a420413399f6,5,,,,,,shovel,,,,,,0,0,0,22,1,3,0,,,,,,,,,,,,,,,,,,,,,,,,,,,,,,,,,,,,,,,,,,,,,,,,,,,,,,,,,,,,,,,,,,,,,,,,,,,,,,,,,,,,,,,,,,,,,,,,,,,,,,,,,,,,,
,,,,,,,,,,stimuli/images/PICTURE_688.png,WOMEN,5dd9951efef7c2916a145550,21/12/1952,2020-09-10_22h55.45.773,proactive3.1,2020.1.2,Win32,60,5f599a131af4471f3d752b7b,5f5ae7002a36a420413399f6,5,,,,,,runner,,,,,,0,1,1,14,1,2,0,,,,,,,,,,,,,,,,,,,,,,,,,,,,,,,,,,,,,,,,,,,,,,,,,,,,,,,,,,,,,,,,,,,,,,,,,,,,,,,,,,,,,,,,,,,,,,,,,,,,,,,,,,,,,
,,,,,,,,,,stimuli/images/PICTURE_488.png,STYLE,5dd9951efef7c2916a145550,21/12/1952,2020-09-10_22h55.45.773,proactive3.1,2020.1.2,Win32,60,5f599a131af4471f3d752b7b,5f5ae7002a36a420413399f6,5,,,,,,sun,,,,,,0,2,2,33,1,4,0,,,,,,,,,,,,,,,,,,,,,,,,,,,,,,,,,,,,,,,,,,,,,,,,,,,,,,,,,,,,,,,,,,,,,,,,,,,,,,,,,,,,,,,,,,,,,,,,,,,,,,,,,,,,,
,,,,,,,,,,stimuli/images/PICTURE_654.png,VALLEY,5dd9951efef7c2916a145550,21/12/1952,2020-09-10_22h55.45.773,proactive3.1,2020.1.2,Win32,60,5f599a131af4471f3d752b7b,5f5ae7002a36a420413399f6,5,,,,,,pencil,,,,,,0,3,3,1,1,1,0,,,,,,,,,,,,,,,,,,,,,,,,,,,,,,,,,,,,,,,,,,,,,,,,,,,,,,,,,,,,,,,,,,,,,,,,,,,,,,,,,,,,,,,,,,,,,,,,,,,,,,,,,,,,,
,,,,,,,,,,stimuli/images/PICTURE_467.png,DEMON,5dd9951efef7c2916a145550,21/12/1952,2020-09-10_22h55.45.773,proactive3.1,2020.1.2,Win32,60,5f599a131af4471f3d752b7b,5f5ae7002a36a420413399f6,5,,,,,,peg,,,,,,0,4,4,23,1,3,0,,,,,,,,,,,,,,,,,,,,,,,,,,,,,,,,,,,,,,,,,,,,,,,,,,,,,,,,,,,,,,,,,,,,,,,,,,,,,,,,,,,,,,,,,,,,,,,,,,,,,,,,,,,,,
,,,,,,,,,,stimuli/images/PICTURE_203.png,ARTIST,5dd9951efef7c2916a145550,21/12/1952,2020-09-10_22h55.45.773,proactive3.1,2020.1.2,Win32,60,5f599a131af4471f3d752b7b,5f5ae7002a36a420413399f6,5,,,,,,cap,,,,,,0,5,5,26,1,3,0,,,,,,,,,,,,,,,,,,,,,,,,,,,,,,,,,,,,,,,,,,,,,,,,,,,,,,,,,,,,,,,,,,,,,,,,,,,,,,,,,,,,,,,,,,,,,,,,,,,,,,,,,,,,,
,,,,,,,,,,stimuli/images/PICTURE_311.png,BEAUTY,5dd9951efef7c2916a145550,21/12/1952,2020-09-10_22h55.45.773,proactive3.1,2020.1.2,Win32,60,5f599a131af4471f3d752b7b,5f5ae7002a36a420413399f6,5,,,,,,razor,,,,,,0,6,6,13,1,2,0,,,,,,,,,,,,,,,,,,,,,,,,,,,,,,,,,,,,,,,,,,,,,,,,,,,,,,,,,,,,,,,,,,,,,,,,,,,,,,,,,,,,,,,,,,,,,,,,,,,,,,,,,,,,,
,,,,,,,,,,stimuli/images/PICTURE_744.png,SAKE,5dd9951efef7c2916a145550,21/12/1952,2020-09-10_22h55.45.773,proactive3.1,2020.1.2,Win32,60,5f599a131af4471f3d752b7b,5f5ae7002a36a420413399f6,5,,,,,,ring,,,,,,0,7,7,17,1,2,0,,,,,,,,,,,,,,,,,,,,,,,,,,,,,,,,,,,,,,,,,,,,,,,,,,,,,,,,,,,,,,,,,,,,,,,,,,,,,,,,,,,,,,,,,,,,,,,,,,,,,,,,,,,,,
,,,,,,,,,,stimuli/images/PICTURE_469.png,ARTIST,5dd9951efef7c2916a145550,21/12/1952,2020-09-10_22h55.45.773,proactive3.1,2020.1.2,Win32,60,5f599a131af4471f3d752b7b,5f5ae7002a36a420413399f6,5,,,,,,stool,,,,,,0,8,8,6,1,1,0,,,,,,,,,,,,,,,,,,,,,,,,,,,,,,,,,,,,,,,,,,,,,,,,,,,,,,,,,,,,,,,,,,,,,,,,,,,,,,,,,,,,,,,,,,,,,,,,,,,,,,,,,,,,,
,,,,,,,,,,stimuli/images/PICTURE_177.png,CARS,5dd9951efef7c2916a145550,21/12/1952,2020-09-10_22h55.45.773,proactive3.1,2020.1.2,Win32,60,5f599a131af4471f3d752b7b,5f5ae7002a36a420413399f6,5,,,,,,mushroom,,,,,,0,9,9,35,1,4,0,,,,,,,,,,,,,,,,,,,,,,,,,,,,,,,,,,,,,,,,,,,,,,,,,,,,,,,,,,,,,,,,,,,,,,,,,,,,,,,,,,,,,,,,,,,,,,,,,,,,,,,,,,,,,
,,,,,,,,,,stimuli/images/PICTURE_233.png,IDEAS,5dd9951efef7c2916a145550,21/12/1952,2020-09-10_22h55.45.773,proactive3.1,2020.1.2,Win32,60,5f599a131af4471f3d752b7b,5f5ae7002a36a420413399f6,5,,,,,,salt,,,,,,0,10,10,28,1,3,0,,,,,,,,,,,,,,,,,,,,,,,,,,,,,,,,,,,,,,,,,,,,,,,,,,,,,,,,,,,,,,,,,,,,,,,,,,,,,,,,,,,,,,,,,,,,,,,,,,,,,,,,,,,,,
,,,,,,,,,,stimuli/images/PICTURE_160.png,LEADER,5dd9951efef7c2916a145550,21/12/1952,2020-09-10_22h55.45.773,proactive3.1,2020.1.2,Win32,60,5f599a131af4471f3d752b7b,5f5ae7002a36a420413399f6,5,,,,,,wheelbarrow,,,,,,0,11,11,3,1,1,0,,,,,,,,,,,,,,,,,,,,,,,,,,,,,,,,,,,,,,,,,,,,,,,,,,,,,,,,,,,,,,,,,,,,,,,,,,,,,,,,,,,,,,,,,,,,,,,,,,,,,,,,,,,,,
,,,,,,,,,,stimuli/images/PICTURE_314.png,SAKE,5dd9951efef7c2916a145550,21/12/1952,2020-09-10_22h55.45.773,proactive3.1,2020.1.2,Win32,60,5f599a131af4471f3d752b7b,5f5ae7002a36a420413399f6,5,,,,,,perfume,,,,,,0,12,12,7,1,1,0,,,,,,,,,,,,,,,,,,,,,,,,,,,,,,,,,,,,,,,,,,,,,,,,,,,,,,,,,,,,,,,,,,,,,,,,,,,,,,,,,,,,,,,,,,,,,,,,,,,,,,,,,,,,,
,,,,,,,,,,stimuli/images/PICTURE_708.png,YARD,5dd9951efef7c2916a145550,21/12/1952,2020-09-10_22h55.45.773,proactive3.1,2020.1.2,Win32,60,5f599a131af4471f3d752b7b,5f5ae7002a36a420413399f6,5,,,,,,monkey,,,,,,0,13,13,29,1,3,0,,,,,,,,,,,,,,,,,,,,,,,,,,,,,,,,,,,,,,,,,,,,,,,,,,,,,,,,,,,,,,,,,,,,,,,,,,,,,,,,,,,,,,,,,,,,,,,,,,,,,,,,,,,,,
,,,,,,,,,,stimuli/images/PICTURE_509.png,PHOTO,5dd9951efef7c2916a145550,21/12/1952,2020-09-10_22h55.45.773,proactive3.1,2020.1.2,Win32,60,5f599a131af4471f3d752b7b,5f5ae7002a36a420413399f6,5,,,,,,telephone,,,,,,0,14,14,21,1,3,0,,,,,,,,,,,,,,,,,,,,,,,,,,,,,,,,,,,,,,,,,,,,,,,,,,,,,,,,,,,,,,,,,,,,,,,,,,,,,,,,,,,,,,,,,,,,,,,,,,,,,,,,,,,,,
,,,,,,,,,,stimuli/images/PICTURE_123.png,ADVICE,5dd9951efef7c2916a145550,21/12/1952,2020-09-10_22h55.45.773,proactive3.1,2020.1.2,Win32,60,5f599a131af4471f3d752b7b,5f5ae7002a36a420413399f6,5,,,,,,dart,,,,,,0,15,15,40,1,5,0,,,,,,,,,,,,,,,,,,,,,,,,,,,,,,,,,,,,,,,,,,,,,,,,,,,,,,,,,,,,,,,,,,,,,,,,,,,,,,,,,,,,,,,,,,,,,,,,,,,,,,,,,,,,,
,,,,,,,,,,stimuli/images/PICTURE_504.png,BODY,5dd9951efef7c2916a145550,21/12/1952,2020-09-10_22h55.45.773,proactive3.1,2020.1.2,Win32,60,5f599a131af4471f3d752b7b,5f5ae7002a36a420413399f6,5,,,,,,wheel,,,,,,0,16,16,8,1,1,0,,,,,,,,,,,,,,,,,,,,,,,,,,,,,,,,,,,,,,,,,,,,,,,,,,,,,,,,,,,,,,,,,,,,,,,,,,,,,,,,,,,,,,,,,,,,,,,,,,,,,,,,,,,,,
,,,,,,,,,,stimuli/images/PICTURE_688.png,CASINO,5dd9951efef7c2916a145550,21/12/1952,2020-09-10_22h55.45.773,proactive3.1,2020.1.2,Win32,60,5f599a131af4471f3d752b7b,5f5ae7002a36a420413399f6,5,,,,,,runner,,,,,,0,17,17,2,1,1,0,,,,,,,,,,,,,,,,,,,,,,,,,,,,,,,,,,,,,,,,,,,,,,,,,,,,,,,,,,,,,,,,,,,,,,,,,,,,,,,,,,,,,,,,,,,,,,,,,,,,,,,,,,,,,
,,,,,,,,,,stimuli/images/PICTURE_491.png,ROOF,5dd9951efef7c2916a145550,21/12/1952,2020-09-10_22h55.45.773,proactive3.1,2020.1.2,Win32,60,5f599a131af4471f3d752b7b,5f5ae7002a36a420413399f6,5,,,,,,rug,,,,,,0,18,18,24,1,3,0,,,,,,,,,,,,,,,,,,,,,,,,,,,,,,,,,,,,,,,,,,,,,,,,,,,,,,,,,,,,,,,,,,,,,,,,,,,,,,,,,,,,,,,,,,,,,,,,,,,,,,,,,,,,,
,,,,,,,,,,stimuli/images/PICTURE_692.png,MONTH,5dd9951efef7c2916a145550,21/12/1952,2020-09-10_22h55.45.773,proactive3.1,2020.1.2,Win32,60,5f599a131af4471f3d752b7b,5f5ae7002a36a420413399f6,5,,,,,,cherry,,,,,,0,19,19,16,1,2,0,,,,,,,,,,,,,,,,,,,,,,,,,,,,,,,,,,,,,,,,,,,,,,,,,,,,,,,,,,,,,,,,,,,,,,,,,,,,,,,,,,,,,,,,,,,,,,,,,,,,,,,,,,,,,
,,,,,,,,,,stimuli/images/PICTURE_314.png,GODS,5dd9951efef7c2916a145550,21/12/1952,2020-09-10_22h55.45.773,proactive3.1,2020.1.2,Win32,60,5f599a131af4471f3d752b7b,5f5ae7002a36a420413399f6,5,,,,,,perfume,,,,,,0,20,20,11,1,2,0,,,,,,,,,,,,,,,,,,,,,,,,,,,,,,,,,,,,,,,,,,,,,,,,,,,,,,,,,,,,,,,,,,,,,,,,,,,,,,,,,,,,,,,,,,,,,,,,,,,,,,,,,,,,,
,,,,,,,,,,stimuli/images/PICTURE_160.png,FEET,5dd9951efef7c2916a145550,21/12/1952,2020-09-10_22h55.45.773,proactive3.1,2020.1.2,Win32,60,5f599a131af4471f3d752b7b,5f5ae7002a36a420413399f6,5,,,,,,wheelbarrow,,,,,,0,21,21,58,1,6,0,,,,,,,,,,,,,,,,,,,,,,,,,,,,,,,,,,,,,,,,,,,,,,,,,,,,,,,,,,,,,,,,,,,,,,,,,,,,,,,,,,,,,,,,,,,,,,,,,,,,,,,,,,,,,
,,,,,,,,,,stimuli/images/PICTURE_380.png,PHOTO,5dd9951efef7c2916a145550,21/12/1952,2020-09-10_22h55.45.773,proactive3.1,2020.1.2,Win32,60,5f599a131af4471f3d752b7b,5f5ae7002a36a420413399f6,5,,,,,,gorilla,,,,,,0,22,22,52,1,6,0,,,,,,,,,,,,,,,,,,,,,,,,,,,,,,,,,,,,,,,,,,,,,,,,,,,,,,,,,,,,,,,,,,,,,,,,,,,,,,,,,,,,,,,,,,,,,,,,,,,,,,,,,,,,,
,,,,,,,,,,stimuli/images/PICTURE_233.png,WOMEN,5dd9951efef7c2916a145550,21/12/1952,2020-09-10_22h55.45.773,proactive3.1,2020.1.2,Win32,60,5f599a131af4471f3d752b7b,5f5ae7002a36a420413399f6,5,,,,,,salt,,,,,,0,23,23,38,1,4,0,,,,,,,,,,,,,,,,,,,,,,,,,,,,,,,,,,,,,,,,,,,,,,,,,,,,,,,,,,,,,,,,,,,,,,,,,,,,,,,,,,,,,,,,,,,,,,,,,,,,,,,,,,,,,
,,,,,,,,,,stimuli/images/PICTURE_151.png,GIRL,5dd9951efef7c2916a145550,21/12/1952,2020-09-10_22h55.45.773,proactive3.1,2020.1.2,Win32,60,5f599a131af4471f3d752b7b,5f5ae7002a36a420413399f6,5,,,,,,tray,,,,,,0,24,24,19,1,2,0,,,,,,,,,,,,,,,,,,,,,,,,,,,,,,,,,,,,,,,,,,,,,,,,,,,,,,,,,,,,,,,,,,,,,,,,,,,,,,,,,,,,,,,,,,,,,,,,,,,,,,,,,,,,,
,,,,,,,,,,stimuli/images/PICTURE_208.png,THING,5dd9951efef7c2916a145550,21/12/1952,2020-09-10_22h55.45.773,proactive3.1,2020.1.2,Win32,60,5f599a131af4471f3d752b7b,5f5ae7002a36a420413399f6,5,,,,,,microphone,,,,,,0,25,25,47,1,5,0,,,,,,,,,,,,,,,,,,,,,,,,,,,,,,,,,,,,,,,,,,,,,,,,,,,,,,,,,,,,,,,,,,,,,,,,,,,,,,,,,,,,,,,,,,,,,,,,,,,,,,,,,,,,,
,,,,,,,,,,stimuli/images/PICTURE_215.png,PLENTY,5dd9951efef7c2916a145550,21/12/1952,2020-09-10_22h55.45.773,proactive3.1,2020.1.2,Win32,60,5f599a131af4471f3d752b7b,5f5ae7002a36a420413399f6,5,,,,,,boot,,,,,,0,26,26,37,1,4,0,,,,,,,,,,,,,,,,,,,,,,,,,,,,,,,,,,,,,,,,,,,,,,,,,,,,,,,,,,,,,,,,,,,,,,,,,,,,,,,,,,,,,,,,,,,,,,,,,,,,,,,,,,,,,
,,,,,,,,,,stimuli/images/PICTURE_667.png,BATH,5dd9951efef7c2916a145550,21/12/1952,2020-09-10_22h55.45.773,proactive3.1,2020.1.2,Win32,60,5f599a131af4471f3d752b7b,5f5ae7002a36a420413399f6,5,,,,,,daisy,,,,,,0,27,27,4,1,1,0,,,,,,,,,,,,,,,,,,,,,,,,,,,,,,,,,,,,,,,,,,,,,,,,,,,,,,,,,,,,,,,,,,,,,,,,,,,,,,,,,,,,,,,,,,,,,,,,,,,,,,,,,,,,,
,,,,,,,,,,stimuli/images/PICTURE_675.png,WEAPON,5dd9951efef7c2916a145550,21/12/1952,2020-09-10_22h55.45.773,proactive3.1,2020.1.2,Win32,60,5f599a131af4471f3d752b7b,5f5ae7002a36a420413399f6,5,,,,,,windmill,,,,,,0,28,28,32,1,4,0,,,,,,,,,,,,,,,,,,,,,,,,,,,,,,,,,,,,,,,,,,,,,,,,,,,,,,,,,,,,,,,,,,,,,,,,,,,,,,,,,,,,,,,,,,,,,,,,,,,,,,,,,,,,,
,,,,,,,,,,stimuli/images/PICTURE_491.png,WRITER,5dd9951efef7c2916a145550,21/12/1952,2020-09-10_22h55.45.773,proactive3.1,2020.1.2,Win32,60,5f599a131af4471f3d752b7b,5f5ae7002a36a420413399f6,5,,,,,,rug,,,,,,0,29,29,57,1,6,0,,,,,,,,,,,,,,,,,,,,,,,,,,,,,,,,,,,,,,,,,,,,,,,,,,,,,,,,,,,,,,,,,,,,,,,,,,,,,,,,,,,,,,,,,,,,,,,,,,,,,,,,,,,,,
,,,,,,,,,,stimuli/images/PICTURE_453.png,DUDE,5dd9951efef7c2916a145550,21/12/1952,2020-09-10_22h55.45.773,proactive3.1,2020.1.2,Win32,60,5f599a131af4471f3d752b7b,5f5ae7002a36a420413399f6,5,,,,,,scissors,,,,,,0,30,30,27,1,3,0,,,,,,,,,,,,,,,,,,,,,,,,,,,,,,,,,,,,,,,,,,,,,,,,,,,,,,,,,,,,,,,,,,,,,,,,,,,,,,,,,,,,,,,,,,,,,,,,,,,,,,,,,,,,,
,,,,,,,,,,stimuli/images/PICTURE_380.png,DEATH,5dd9951efef7c2916a145550,21/12/1952,2020-09-10_22h55.45.773,proactive3.1,2020.1.2,Win32,60,5f599a131af4471f3d752b7b,5f5ae7002a36a420413399f6,5,,,,,,gorilla,,,,,,0,31,31,49,1,5,0,,,,,,,,,,,,,,,,,,,,,,,,,,,,,,,,,,,,,,,,,,,,,,,,,,,,,,,,,,,,,,,,,,,,,,,,,,,,,,,,,,,,,,,,,,,,,,,,,,,,,,,,,,,,,
,,,,,,,,,,stimuli/images/PICTURE_32.png,JUNGLE,5dd9951efef7c2916a145550,21/12/1952,2020-09-10_22h55.45.773,proactive3.1,2020.1.2,Win32,60,5f599a131af4471f3d752b7b,5f5ae7002a36a420413399f6,5,,,,,,crown,,,,,,0,32,32,45,1,5,0,,,,,,,,,,,,,,,,,,,,,,,,,,,,,,,,,,,,,,,,,,,,,,,,,,,,,,,,,,,,,,,,,,,,,,,,,,,,,,,,,,,,,,,,,,,,,,,,,,,,,,,,,,,,,
,,,,,,,,,,stimuli/images/PICTURE_68.png,MILE,5dd9951efef7c2916a145550,21/12/1952,2020-09-10_22h55.45.773,proactive3.1,2020.1.2,Win32,60,5f599a131af4471f3d752b7b,5f5ae7002a36a420413399f6,5,,,,,,candle,,,,,,0,33,33,44,1,5,0,,,,,,,,,,,,,,,,,,,,,,,,,,,,,,,,,,,,,,,,,,,,,,,,,,,,,,,,,,,,,,,,,,,,,,,,,,,,,,,,,,,,,,,,,,,,,,,,,,,,,,,,,,,,,
,,,,,,,,,,stimuli/images/PICTURE_308.png,KIND,5dd9951efef7c2916a145550,21/12/1952,2020-09-10_22h55.45.773,proactive3.1,2020.1.2,Win32,60,5f599a131af4471f3d752b7b,5f5ae7002a36a420413399f6,5,,,,,,dice,,,,,,0,34,34,54,1,6,0,,,,,,,,,,,,,,,,,,,,,,,,,,,,,,,,,,,,,,,,,,,,,,,,,,,,,,,,,,,,,,,,,,,,,,,,,,,,,,,,,,,,,,,,,,,,,,,,,,,,,,,,,,,,,
,,,,,,,,,,stimuli/images/PICTURE_147.png,MOMENT,5dd9951efef7c2916a145550,21/12/1952,2020-09-10_22h55.45.773,proactive3.1,2020.1.2,Win32,60,5f599a131af4471f3d752b7b,5f5ae7002a36a420413399f6,5,,,,,,hanger,,,,,,0,35,35,51,1,6,0,,,,,,,,,,,,,,,,,,,,,,,,,,,,,,,,,,,,,,,,,,,,,,,,,,,,,,,,,,,,,,,,,,,,,,,,,,,,,,,,,,,,,,,,,,,,,,,,,,,,,,,,,,,,,
,,,,,,,,,,stimuli/images/PICTURE_470.png,CASINO,5dd9951efef7c2916a145550,21/12/1952,2020-09-10_22h55.45.773,proactive3.1,2020.1.2,Win32,60,5f599a131af4471f3d752b7b,5f5ae7002a36a420413399f6,5,,,,,,motorbike,,,,,,0,36,36,36,1,4,0,,,,,,,,,,,,,,,,,,,,,,,,,,,,,,,,,,,,,,,,,,,,,,,,,,,,,,,,,,,,,,,,,,,,,,,,,,,,,,,,,,,,,,,,,,,,,,,,,,,,,,,,,,,,,
,,,,,,,,,,stimuli/images/PICTURE_708.png,PENNY,5dd9951efef7c2916a145550,21/12/1952,2020-09-10_22h55.45.773,proactive3.1,2020.1.2,Win32,60,5f599a131af4471f3d752b7b,5f5ae7002a36a420413399f6,5,,,,,,monkey,,,,,,0,37,37,31,1,4,0,,,,,,,,,,,,,,,,,,,,,,,,,,,,,,,,,,,,,,,,,,,,,,,,,,,,,,,,,,,,,,,,,,,,,,,,,,,,,,,,,,,,,,,,,,,,,,,,,,,,,,,,,,,,,
,,,,,,,,,,stimuli/images/PICTURE_677.png,MILE,5dd9951efef7c2916a145550,21/12/1952,2020-09-10_22h55.45.773,proactive3.1,2020.1.2,Win32,60,5f599a131af4471f3d752b7b,5f5ae7002a36a420413399f6,5,,,,,,map,,,,,,0,38,38,30,1,4,0,,,,,,,,,,,,,,,,,,,,,,,,,,,,,,,,,,,,,,,,,,,,,,,,,,,,,,,,,,,,,,,,,,,,,,,,,,,,,,,,,,,,,,,,,,,,,,,,,,,,,,,,,,,,,
