consent_key.keys,consent_key.rt,recalled,recalled_rt,recall_acc,example_recall.thisRepN,example_recall.thisTrialN,example_recall.thisN,example_recall.thisIndex,example_recall.ran,file,word,participant,please enter your date of birth (dd/mm/yyyy),date,expName,psychopyVersion,OS,frameRate,STUDY_ID,SESSION_ID,list,prac_learn_study_loop.thisRepN,prac_learn_study_loop.thisTrialN,prac_learn_study_loop.thisN,prac_learn_study_loop.thisIndex,prac_learn_study_loop.ran,image,prac_learn_test_loop.thisRepN,prac_learn_test_loop.thisTrialN,prac_learn_test_loop.thisN,prac_learn_test_loop.thisIndex,prac_learn_test_loop.ran,learn_study_loop.thisRepN,learn_study_loop.thisTrialN,learn_study_loop.thisN,learn_study_loop.thisIndex,learn_study_loop.ran,list_no,block_no,learn_test_loop.thisRepN,learn_test_loop.thisTrialN,learn_test_loop.thisN,learn_test_loop.thisIndex,learn_test_loop.ran,learn_blocks.thisRepN,learn_blocks.thisTrialN,learn_blocks.thisN,learn_blocks.thisIndex,learn_blocks.ran,block_csv,key_resp_13.keys,key_resp_13.rt,learn_blocks_loop.thisRepN,learn_blocks_loop.thisTrialN,learn_blocks_loop.thisN,learn_blocks_loop.thisIndex,learn_blocks_loop.ran,final_learn_test.thisRepN,final_learn_test.thisTrialN,final_learn_test.thisN,final_learn_test.thisIndex,final_learn_test.ran,s_im1,s_im2,s_im3,s_im4,s_im5,s_im6,s_im7,s_im8,s_im1pos,s_im2pos,s_im3pos,s_im4pos,s_im5pos,s_im6pos,s_im7pos,s_im8pos,s_tarright,search_resp.keys,search_loop.thisRepN,search_loop.thisTrialN,search_loop.thisN,search_loop.thisIndex,search_loop.ran,search_resp.rt,prac_wm_search_loop.thisRepN,prac_wm_search_loop.thisTrialN,prac_wm_search_loop.thisN,prac_wm_search_loop.thisIndex,prac_wm_search_loop.ran,prac_wm_test_loop.thisRepN,prac_wm_test_loop.thisTrialN,prac_wm_test_loop.thisN,prac_wm_test_loop.thisIndex,prac_wm_test_loop.ran,wm_recalled1,wm_recall_rt1,wm_probed1,wm_recall_acc1,wm_recalled2,wm_recall_rt2,wm_probed2,wm_recall_acc2,wm_recalled3,wm_recall_rt3,wm_probed3,wm_recall_acc3,wm_recalled4,wm_recall_rt4,wm_probed4,wm_recall_acc4,prac_wm_trial_loop.thisRepN,prac_wm_trial_loop.thisTrialN,prac_wm_trial_loop.thisN,prac_wm_trial_loop.thisIndex,prac_wm_trial_loop.ran,word1,image1,file1,item_type1,word2,image2,file2,item_type2,word4,image4,file4,item_type4,word3,image3,file3,item_type3,wm_search_loop.thisRepN,wm_search_loop.thisTrialN,wm_search_loop.thisN,wm_search_loop.thisIndex,wm_search_loop.ran,wm_test_loop.thisRepN,wm_test_loop.thisTrialN,wm_test_loop.thisN,wm_test_loop.thisIndex,wm_test_loop.ran,wm_trial_loop.thisRepN,wm_trial_loop.thisTrialN,wm_trial_loop.thisN,wm_trial_loop.thisIndex,wm_trial_loop.ran
y,34.015,TOUGH,3.982,1,0,0,0,0,1,stimuli/images/PICTURE_747.png,TOUGH,5ddd5bb741fb3fcc3bd3b76d,15/05/1945,2020-09-10_13h53.23.762,proactive3.1,2020.1.2,Win32,60,5f599a131af4471f3d752b7b,5f5a219a7e4af2069f80e0ee,2,,,,,,,,,,,,,,,,,,,,,,,,,,,,,,,,,,,,,,,,,,,,,,,,,,,,,,,,,,,,,,,,,,,,,,,,,,,,,,,,,,,,,,,,,,,,,,,,,,,,,,,,,,,,,,,,,,,,,,,,,,,,,,,
,,,,,,,,,,stimuli/images/PICTURE_269.png,GENIUS,5ddd5bb741fb3fcc3bd3b76d,15/05/1945,2020-09-10_13h53.23.762,proactive3.1,2020.1.2,Win32,60,5f599a131af4471f3d752b7b,5f5a219a7e4af2069f80e0ee,2,0,0,0,0,1,chameleon,,,,,,,,,,,,,,,,,,,,,,,,,,,,,,,,,,,,,,,,,,,,,,,,,,,,,,,,,,,,,,,,,,,,,,,,,,,,,,,,,,,,,,,,,,,,,,,,,,,,,,,,,,,,,,,,,,,,,,,,,
,,,,,,,,,,stimuli/images/PICTURE_658.png,DEVIL,5ddd5bb741fb3fcc3bd3b76d,15/05/1945,2020-09-10_13h53.23.762,proactive3.1,2020.1.2,Win32,60,5f599a131af4471f3d752b7b,5f5a219a7e4af2069f80e0ee,2,0,1,1,3,1,crow,,,,,,,,,,,,,,,,,,,,,,,,,,,,,,,,,,,,,,,,,,,,,,,,,,,,,,,,,,,,,,,,,,,,,,,,,,,,,,,,,,,,,,,,,,,,,,,,,,,,,,,,,,,,,,,,,,,,,,,,,
,,,,,,,,,,stimuli/images/PICTURE_727.png,CELL,5ddd5bb741fb3fcc3bd3b76d,15/05/1945,2020-09-10_13h53.23.762,proactive3.1,2020.1.2,Win32,60,5f599a131af4471f3d752b7b,5f5a219a7e4af2069f80e0ee,2,0,2,2,1,1,hose,,,,,,,,,,,,,,,,,,,,,,,,,,,,,,,,,,,,,,,,,,,,,,,,,,,,,,,,,,,,,,,,,,,,,,,,,,,,,,,,,,,,,,,,,,,,,,,,,,,,,,,,,,,,,,,,,,,,,,,,,
,,,,,,,,,,stimuli/images/PICTURE_378.png,LOSS,5ddd5bb741fb3fcc3bd3b76d,15/05/1945,2020-09-10_13h53.23.762,proactive3.1,2020.1.2,Win32,60,5f599a131af4471f3d752b7b,5f5a219a7e4af2069f80e0ee,2,0,3,3,2,1,lobster,,,,,,,,,,,,,,,,,,,,,,,,,,,,,,,,,,,,,,,,,,,,,,,,,,,,,,,,,,,,,,,,,,,,,,,,,,,,,,,,,,,,,,,,,,,,,,,,,,,,,,,,,,,,,,,,,,,,,,,,,
,,?,5.517,0,,,,,,stimuli/images/PICTURE_727.png,CELL,5ddd5bb741fb3fcc3bd3b76d,15/05/1945,2020-09-10_13h53.23.762,proactive3.1,2020.1.2,Win32,60,5f599a131af4471f3d752b7b,5f5a219a7e4af2069f80e0ee,2,,,,,,hose,0,0,0,1,1,,,,,,,,,,,,,,,,,,,,,,,,,,,,,,,,,,,,,,,,,,,,,,,,,,,,,,,,,,,,,,,,,,,,,,,,,,,,,,,,,,,,,,,,,,,,,,,,,,,,,,,,,,,,,,,,,,,,
,,DEVIL,4.229,1,,,,,,stimuli/images/PICTURE_658.png,DEVIL,5ddd5bb741fb3fcc3bd3b76d,15/05/1945,2020-09-10_13h53.23.762,proactive3.1,2020.1.2,Win32,60,5f599a131af4471f3d752b7b,5f5a219a7e4af2069f80e0ee,2,,,,,,crow,0,1,1,3,1,,,,,,,,,,,,,,,,,,,,,,,,,,,,,,,,,,,,,,,,,,,,,,,,,,,,,,,,,,,,,,,,,,,,,,,,,,,,,,,,,,,,,,,,,,,,,,,,,,,,,,,,,,,,,,,,,,,,
,,?,9.111,0,,,,,,stimuli/images/PICTURE_269.png,GENIUS,5ddd5bb741fb3fcc3bd3b76d,15/05/1945,2020-09-10_13h53.23.762,proactive3.1,2020.1.2,Win32,60,5f599a131af4471f3d752b7b,5f5a219a7e4af2069f80e0ee,2,,,,,,chameleon,0,2,2,0,1,,,,,,,,,,,,,,,,,,,,,,,,,,,,,,,,,,,,,,,,,,,,,,,,,,,,,,,,,,,,,,,,,,,,,,,,,,,,,,,,,,,,,,,,,,,,,,,,,,,,,,,,,,,,,,,,,,,,
,,CELL,10.858,0,,,,,,stimuli/images/PICTURE_697.png,KILLER,5ddd5bb741fb3fcc3bd3b76d,15/05/1945,2020-09-10_13h53.23.762,proactive3.1,2020.1.2,Win32,60,5f599a131af4471f3d752b7b,5f5a219a7e4af2069f80e0ee,2,,,,,,peach,0,3,3,4,1,,,,,,,,,,,,,,,,,,,,,,,,,,,,,,,,,,,,,,,,,,,,,,,,,,,,,,,,,,,,,,,,,,,,,,,,,,,,,,,,,,,,,,,,,,,,,,,,,,,,,,,,,,,,,,,,,,,,
,,?,0.147,0,,,,,,stimuli/images/PICTURE_378.png,LOSS,5ddd5bb741fb3fcc3bd3b76d,15/05/1945,2020-09-10_13h53.23.762,proactive3.1,2020.1.2,Win32,60,5f599a131af4471f3d752b7b,5f5a219a7e4af2069f80e0ee,2,,,,,,lobster,0,4,4,2,1,,,,,,,,,,,,,,,,,,,,,,,,,,,,,,,,,,,,,,,,,,,,,,,,,,,,,,,,,,,,,,,,,,,,,,,,,,,,,,,,,,,,,,,,,,,,,,,,,,,,,,,,,,,,,,,,,,,,
,,,,,,,,,,stimuli/images/PICTURE_296.png,LOTS,5ddd5bb741fb3fcc3bd3b76d,15/05/1945,2020-09-10_13h53.23.762,proactive3.1,2020.1.2,Win32,60,5f599a131af4471f3d752b7b,5f5a219a7e4af2069f80e0ee,2,,,,,,bolt,,,,,,0,0,0,9,1,1,1,,,,,,,,,,,,,,,,,,,,,,,,,,,,,,,,,,,,,,,,,,,,,,,,,,,,,,,,,,,,,,,,,,,,,,,,,,,,,,,,,,,,,,,,,,,,,,,,,,,,,,,,,,,,,
,,,,,,,,,,stimuli/images/PICTURE_504.png,ARTIST,5ddd5bb741fb3fcc3bd3b76d,15/05/1945,2020-09-10_13h53.23.762,proactive3.1,2020.1.2,Win32,60,5f599a131af4471f3d752b7b,5f5a219a7e4af2069f80e0ee,2,,,,,,wheel,,,,,,0,1,1,49,1,5,1,,,,,,,,,,,,,,,,,,,,,,,,,,,,,,,,,,,,,,,,,,,,,,,,,,,,,,,,,,,,,,,,,,,,,,,,,,,,,,,,,,,,,,,,,,,,,,,,,,,,,,,,,,,,,
,,,,,,,,,,stimuli/images/PICTURE_685.png,PENNY,5ddd5bb741fb3fcc3bd3b76d,15/05/1945,2020-09-10_13h53.23.762,proactive3.1,2020.1.2,Win32,60,5f599a131af4471f3d752b7b,5f5a219a7e4af2069f80e0ee,2,,,,,,goose,,,,,,0,2,2,4,1,1,1,,,,,,,,,,,,,,,,,,,,,,,,,,,,,,,,,,,,,,,,,,,,,,,,,,,,,,,,,,,,,,,,,,,,,,,,,,,,,,,,,,,,,,,,,,,,,,,,,,,,,,,,,,,,,
,,,,,,,,,,stimuli/images/PICTURE_380.png,CANDY,5ddd5bb741fb3fcc3bd3b76d,15/05/1945,2020-09-10_13h53.23.762,proactive3.1,2020.1.2,Win32,60,5f599a131af4471f3d752b7b,5f5a219a7e4af2069f80e0ee,2,,,,,,gorilla,,,,,,0,3,3,0,1,1,1,,,,,,,,,,,,,,,,,,,,,,,,,,,,,,,,,,,,,,,,,,,,,,,,,,,,,,,,,,,,,,,,,,,,,,,,,,,,,,,,,,,,,,,,,,,,,,,,,,,,,,,,,,,,,
,,,,,,,,,,stimuli/images/PICTURE_487.png,GIRL,5ddd5bb741fb3fcc3bd3b76d,15/05/1945,2020-09-10_13h53.23.762,proactive3.1,2020.1.2,Win32,60,5f599a131af4471f3d752b7b,5f5a219a7e4af2069f80e0ee,2,,,,,,basket,,,,,,0,4,4,45,1,5,1,,,,,,,,,,,,,,,,,,,,,,,,,,,,,,,,,,,,,,,,,,,,,,,,,,,,,,,,,,,,,,,,,,,,,,,,,,,,,,,,,,,,,,,,,,,,,,,,,,,,,,,,,,,,,
,,,,,,,,,,stimuli/images/PICTURE_308.png,FAMILY,5ddd5bb741fb3fcc3bd3b76d,15/05/1945,2020-09-10_13h53.23.762,proactive3.1,2020.1.2,Win32,60,5f599a131af4471f3d752b7b,5f5a219a7e4af2069f80e0ee,2,,,,,,dice,,,,,,0,5,5,36,1,4,1,,,,,,,,,,,,,,,,,,,,,,,,,,,,,,,,,,,,,,,,,,,,,,,,,,,,,,,,,,,,,,,,,,,,,,,,,,,,,,,,,,,,,,,,,,,,,,,,,,,,,,,,,,,,,
,,,,,,,,,,stimuli/images/PICTURE_57.png,MOMENT,5ddd5bb741fb3fcc3bd3b76d,15/05/1945,2020-09-10_13h53.23.762,proactive3.1,2020.1.2,Win32,60,5f599a131af4471f3d752b7b,5f5a219a7e4af2069f80e0ee,2,,,,,,stamp,,,,,,0,6,6,37,1,4,1,,,,,,,,,,,,,,,,,,,,,,,,,,,,,,,,,,,,,,,,,,,,,,,,,,,,,,,,,,,,,,,,,,,,,,,,,,,,,,,,,,,,,,,,,,,,,,,,,,,,,,,,,,,,,
,,,,,,,,,,stimuli/images/PICTURE_147.png,YEAR,5ddd5bb741fb3fcc3bd3b76d,15/05/1945,2020-09-10_13h53.23.762,proactive3.1,2020.1.2,Win32,60,5f599a131af4471f3d752b7b,5f5a219a7e4af2069f80e0ee,2,,,,,,hanger,,,,,,0,7,7,21,1,3,1,,,,,,,,,,,,,,,,,,,,,,,,,,,,,,,,,,,,,,,,,,,,,,,,,,,,,,,,,,,,,,,,,,,,,,,,,,,,,,,,,,,,,,,,,,,,,,,,,,,,,,,,,,,,,
,,,,,,,,,,stimuli/images/PICTURE_208.png,SYSTEM,5ddd5bb741fb3fcc3bd3b76d,15/05/1945,2020-09-10_13h53.23.762,proactive3.1,2020.1.2,Win32,60,5f599a131af4471f3d752b7b,5f5a219a7e4af2069f80e0ee,2,,,,,,microphone,,,,,,0,8,8,32,1,4,1,,,,,,,,,,,,,,,,,,,,,,,,,,,,,,,,,,,,,,,,,,,,,,,,,,,,,,,,,,,,,,,,,,,,,,,,,,,,,,,,,,,,,,,,,,,,,,,,,,,,,,,,,,,,,
,,,,,,,,,,stimuli/images/PICTURE_667.png,RIVER,5ddd5bb741fb3fcc3bd3b76d,15/05/1945,2020-09-10_13h53.23.762,proactive3.1,2020.1.2,Win32,60,5f599a131af4471f3d752b7b,5f5a219a7e4af2069f80e0ee,2,,,,,,daisy,,,,,,0,9,9,10,1,2,1,,,,,,,,,,,,,,,,,,,,,,,,,,,,,,,,,,,,,,,,,,,,,,,,,,,,,,,,,,,,,,,,,,,,,,,,,,,,,,,,,,,,,,,,,,,,,,,,,,,,,,,,,,,,,
,,,,,,,,,,stimuli/images/PICTURE_340.png,LETTER,5ddd5bb741fb3fcc3bd3b76d,15/05/1945,2020-09-10_13h53.23.762,proactive3.1,2020.1.2,Win32,60,5f599a131af4471f3d752b7b,5f5a219a7e4af2069f80e0ee,2,,,,,,mirror,,,,,,0,10,10,24,1,3,1,,,,,,,,,,,,,,,,,,,,,,,,,,,,,,,,,,,,,,,,,,,,,,,,,,,,,,,,,,,,,,,,,,,,,,,,,,,,,,,,,,,,,,,,,,,,,,,,,,,,,,,,,,,,,
,,,,,,,,,,stimuli/images/PICTURE_403.png,WRITER,5ddd5bb741fb3fcc3bd3b76d,15/05/1945,2020-09-10_13h53.23.762,proactive3.1,2020.1.2,Win32,60,5f599a131af4471f3d752b7b,5f5a219a7e4af2069f80e0ee,2,,,,,,cathedral,,,,,,0,11,11,31,1,4,1,,,,,,,,,,,,,,,,,,,,,,,,,,,,,,,,,,,,,,,,,,,,,,,,,,,,,,,,,,,,,,,,,,,,,,,,,,,,,,,,,,,,,,,,,,,,,,,,,,,,,,,,,,,,,
,,,,,,,,,,stimuli/images/PICTURE_33.png,FRIEND,5ddd5bb741fb3fcc3bd3b76d,15/05/1945,2020-09-10_13h53.23.762,proactive3.1,2020.1.2,Win32,60,5f599a131af4471f3d752b7b,5f5a219a7e4af2069f80e0ee,2,,,,,,frame,,,,,,0,12,12,8,1,1,1,,,,,,,,,,,,,,,,,,,,,,,,,,,,,,,,,,,,,,,,,,,,,,,,,,,,,,,,,,,,,,,,,,,,,,,,,,,,,,,,,,,,,,,,,,,,,,,,,,,,,,,,,,,,,
,,,,,,,,,,stimuli/images/PICTURE_491.png,GLASS,5ddd5bb741fb3fcc3bd3b76d,15/05/1945,2020-09-10_13h53.23.762,proactive3.1,2020.1.2,Win32,60,5f599a131af4471f3d752b7b,5f5a219a7e4af2069f80e0ee,2,,,,,,rug,,,,,,0,13,13,14,1,2,1,,,,,,,,,,,,,,,,,,,,,,,,,,,,,,,,,,,,,,,,,,,,,,,,,,,,,,,,,,,,,,,,,,,,,,,,,,,,,,,,,,,,,,,,,,,,,,,,,,,,,,,,,,,,,
,,,,,,,,,,stimuli/images/PICTURE_744.png,WEAPON,5ddd5bb741fb3fcc3bd3b76d,15/05/1945,2020-09-10_13h53.23.762,proactive3.1,2020.1.2,Win32,60,5f599a131af4471f3d752b7b,5f5a219a7e4af2069f80e0ee,2,,,,,,ring,,,,,,0,14,14,50,1,6,1,,,,,,,,,,,,,,,,,,,,,,,,,,,,,,,,,,,,,,,,,,,,,,,,,,,,,,,,,,,,,,,,,,,,,,,,,,,,,,,,,,,,,,,,,,,,,,,,,,,,,,,,,,,,,
,,,,,,,,,,stimuli/images/PICTURE_2.png,FLIGHT,5ddd5bb741fb3fcc3bd3b76d,15/05/1945,2020-09-10_13h53.23.762,proactive3.1,2020.1.2,Win32,60,5f599a131af4471f3d752b7b,5f5a219a7e4af2069f80e0ee,2,,,,,,tyre,,,,,,0,15,15,15,1,2,1,,,,,,,,,,,,,,,,,,,,,,,,,,,,,,,,,,,,,,,,,,,,,,,,,,,,,,,,,,,,,,,,,,,,,,,,,,,,,,,,,,,,,,,,,,,,,,,,,,,,,,,,,,,,,
,,,,,,,,,,stimuli/images/PICTURE_750.png,HOTEL,5ddd5bb741fb3fcc3bd3b76d,15/05/1945,2020-09-10_13h53.23.762,proactive3.1,2020.1.2,Win32,60,5f599a131af4471f3d752b7b,5f5a219a7e4af2069f80e0ee,2,,,,,,kettle,,,,,,0,16,16,27,1,3,1,,,,,,,,,,,,,,,,,,,,,,,,,,,,,,,,,,,,,,,,,,,,,,,,,,,,,,,,,,,,,,,,,,,,,,,,,,,,,,,,,,,,,,,,,,,,,,,,,,,,,,,,,,,,,
,,,,,,,,,,stimuli/images/PICTURE_405.png,PLENTY,5ddd5bb741fb3fcc3bd3b76d,15/05/1945,2020-09-10_13h53.23.762,proactive3.1,2020.1.2,Win32,60,5f599a131af4471f3d752b7b,5f5a219a7e4af2069f80e0ee,2,,,,,,anchor,,,,,,0,17,17,23,1,3,1,,,,,,,,,,,,,,,,,,,,,,,,,,,,,,,,,,,,,,,,,,,,,,,,,,,,,,,,,,,,,,,,,,,,,,,,,,,,,,,,,,,,,,,,,,,,,,,,,,,,,,,,,,,,,
,,,,,,,,,,stimuli/images/PICTURE_32.png,PILLS,5ddd5bb741fb3fcc3bd3b76d,15/05/1945,2020-09-10_13h53.23.762,proactive3.1,2020.1.2,Win32,60,5f599a131af4471f3d752b7b,5f5a219a7e4af2069f80e0ee,2,,,,,,crown,,,,,,0,18,18,18,1,2,1,,,,,,,,,,,,,,,,,,,,,,,,,,,,,,,,,,,,,,,,,,,,,,,,,,,,,,,,,,,,,,,,,,,,,,,,,,,,,,,,,,,,,,,,,,,,,,,,,,,,,,,,,,,,,
,,,,,,,,,,stimuli/images/PICTURE_655.png,TOILET,5ddd5bb741fb3fcc3bd3b76d,15/05/1945,2020-09-10_13h53.23.762,proactive3.1,2020.1.2,Win32,60,5f599a131af4471f3d752b7b,5f5a219a7e4af2069f80e0ee,2,,,,,,megaphone,,,,,,0,19,19,12,1,2,1,,,,,,,,,,,,,,,,,,,,,,,,,,,,,,,,,,,,,,,,,,,,,,,,,,,,,,,,,,,,,,,,,,,,,,,,,,,,,,,,,,,,,,,,,,,,,,,,,,,,,,,,,,,,,
,,,,,,,,,,stimuli/images/PICTURE_403.png,TOILET,5ddd5bb741fb3fcc3bd3b76d,15/05/1945,2020-09-10_13h53.23.762,proactive3.1,2020.1.2,Win32,60,5f599a131af4471f3d752b7b,5f5a219a7e4af2069f80e0ee,2,,,,,,cathedral,,,,,,0,20,20,25,1,3,1,,,,,,,,,,,,,,,,,,,,,,,,,,,,,,,,,,,,,,,,,,,,,,,,,,,,,,,,,,,,,,,,,,,,,,,,,,,,,,,,,,,,,,,,,,,,,,,,,,,,,,,,,,,,,
,,,,,,,,,,stimuli/images/PICTURE_339.png,CLIENT,5ddd5bb741fb3fcc3bd3b76d,15/05/1945,2020-09-10_13h53.23.762,proactive3.1,2020.1.2,Win32,60,5f599a131af4471f3d752b7b,5f5a219a7e4af2069f80e0ee,2,,,,,,backpack,,,,,,0,21,21,11,1,2,1,,,,,,,,,,,,,,,,,,,,,,,,,,,,,,,,,,,,,,,,,,,,,,,,,,,,,,,,,,,,,,,,,,,,,,,,,,,,,,,,,,,,,,,,,,,,,,,,,,,,,,,,,,,,,
,,,,,,,,,,stimuli/images/PICTURE_469.png,AGENT,5ddd5bb741fb3fcc3bd3b76d,15/05/1945,2020-09-10_13h53.23.762,proactive3.1,2020.1.2,Win32,60,5f599a131af4471f3d752b7b,5f5a219a7e4af2069f80e0ee,2,,,,,,stool,,,,,,0,22,22,16,1,2,1,,,,,,,,,,,,,,,,,,,,,,,,,,,,,,,,,,,,,,,,,,,,,,,,,,,,,,,,,,,,,,,,,,,,,,,,,,,,,,,,,,,,,,,,,,,,,,,,,,,,,,,,,,,,,
,,,,,,,,,,stimuli/images/PICTURE_491.png,RIVER,5ddd5bb741fb3fcc3bd3b76d,15/05/1945,2020-09-10_13h53.23.762,proactive3.1,2020.1.2,Win32,60,5f599a131af4471f3d752b7b,5f5a219a7e4af2069f80e0ee,2,,,,,,rug,,,,,,0,23,23,6,1,1,1,,,,,,,,,,,,,,,,,,,,,,,,,,,,,,,,,,,,,,,,,,,,,,,,,,,,,,,,,,,,,,,,,,,,,,,,,,,,,,,,,,,,,,,,,,,,,,,,,,,,,,,,,,,,,
,,,,,,,,,,stimuli/images/PICTURE_203.png,GODS,5ddd5bb741fb3fcc3bd3b76d,15/05/1945,2020-09-10_13h53.23.762,proactive3.1,2020.1.2,Win32,60,5f599a131af4471f3d752b7b,5f5a219a7e4af2069f80e0ee,2,,,,,,cap,,,,,,0,24,24,30,1,4,1,,,,,,,,,,,,,,,,,,,,,,,,,,,,,,,,,,,,,,,,,,,,,,,,,,,,,,,,,,,,,,,,,,,,,,,,,,,,,,,,,,,,,,,,,,,,,,,,,,,,,,,,,,,,,
,,,,,,,,,,stimuli/images/PICTURE_85.png,TOILET,5ddd5bb741fb3fcc3bd3b76d,15/05/1945,2020-09-10_13h53.23.762,proactive3.1,2020.1.2,Win32,60,5f599a131af4471f3d752b7b,5f5a219a7e4af2069f80e0ee,2,,,,,,diamond,,,,,,0,25,25,48,1,5,1,,,,,,,,,,,,,,,,,,,,,,,,,,,,,,,,,,,,,,,,,,,,,,,,,,,,,,,,,,,,,,,,,,,,,,,,,,,,,,,,,,,,,,,,,,,,,,,,,,,,,,,,,,,,,
,,,,,,,,,,stimuli/images/PICTURE_95.png,MILLER,5ddd5bb741fb3fcc3bd3b76d,15/05/1945,2020-09-10_13h53.23.762,proactive3.1,2020.1.2,Win32,60,5f599a131af4471f3d752b7b,5f5a219a7e4af2069f80e0ee,2,,,,,,suitcase,,,,,,0,26,26,56,1,6,1,,,,,,,,,,,,,,,,,,,,,,,,,,,,,,,,,,,,,,,,,,,,,,,,,,,,,,,,,,,,,,,,,,,,,,,,,,,,,,,,,,,,,,,,,,,,,,,,,,,,,,,,,,,,,
,,,,,,,,,,stimuli/images/PICTURE_95.png,HONEY,5ddd5bb741fb3fcc3bd3b76d,15/05/1945,2020-09-10_13h53.23.762,proactive3.1,2020.1.2,Win32,60,5f599a131af4471f3d752b7b,5f5a219a7e4af2069f80e0ee,2,,,,,,suitcase,,,,,,0,27,27,44,1,5,1,,,,,,,,,,,,,,,,,,,,,,,,,,,,,,,,,,,,,,,,,,,,,,,,,,,,,,,,,,,,,,,,,,,,,,,,,,,,,,,,,,,,,,,,,,,,,,,,,,,,,,,,,,,,,
,,,,,,,,,,stimuli/images/PICTURE_403.png,RIVER,5ddd5bb741fb3fcc3bd3b76d,15/05/1945,2020-09-10_13h53.23.762,proactive3.1,2020.1.2,Win32,60,5f599a131af4471f3d752b7b,5f5a219a7e4af2069f80e0ee,2,,,,,,cathedral,,,,,,0,28,28,40,1,5,1,,,,,,,,,,,,,,,,,,,,,,,,,,,,,,,,,,,,,,,,,,,,,,,,,,,,,,,,,,,,,,,,,,,,,,,,,,,,,,,,,,,,,,,,,,,,,,,,,,,,,,,,,,,,,
,,,,,,,,,,stimuli/images/PICTURE_177.png,WRITER,5ddd5bb741fb3fcc3bd3b76d,15/05/1945,2020-09-10_13h53.23.762,proactive3.1,2020.1.2,Win32,60,5f599a131af4471f3d752b7b,5f5a219a7e4af2069f80e0ee,2,,,,,,mushroom,,,,,,0,29,29,41,1,5,1,,,,,,,,,,,,,,,,,,,,,,,,,,,,,,,,,,,,,,,,,,,,,,,,,,,,,,,,,,,,,,,,,,,,,,,,,,,,,,,,,,,,,,,,,,,,,,,,,,,,,,,,,,,,,
,,,,,,,,,,stimuli/images/PICTURE_449.png,DUDE,5ddd5bb741fb3fcc3bd3b76d,15/05/1945,2020-09-10_13h53.23.762,proactive3.1,2020.1.2,Win32,60,5f599a131af4471f3d752b7b,5f5a219a7e4af2069f80e0ee,2,,,,,,bench,,,,,,0,30,30,17,1,2,1,,,,,,,,,,,,,,,,,,,,,,,,,,,,,,,,,,,,,,,,,,,,,,,,,,,,,,,,,,,,,,,,,,,,,,,,,,,,,,,,,,,,,,,,,,,,,,,,,,,,,,,,,,,,,
,,,,,,,,,,stimuli/images/PICTURE_654.png,MONTH,5ddd5bb741fb3fcc3bd3b76d,15/05/1945,2020-09-10_13h53.23.762,proactive3.1,2020.1.2,Win32,60,5f599a131af4471f3d752b7b,5f5a219a7e4af2069f80e0ee,2,,,,,,pencil,,,,,,0,31,31,29,1,3,1,,,,,,,,,,,,,,,,,,,,,,,,,,,,,,,,,,,,,,,,,,,,,,,,,,,,,,,,,,,,,,,,,,,,,,,,,,,,,,,,,,,,,,,,,,,,,,,,,,,,,,,,,,,,,
,,,,,,,,,,stimuli/images/PICTURE_340.png,VALLEY,5ddd5bb741fb3fcc3bd3b76d,15/05/1945,2020-09-10_13h53.23.762,proactive3.1,2020.1.2,Win32,60,5f599a131af4471f3d752b7b,5f5a219a7e4af2069f80e0ee,2,,,,,,mirror,,,,,,0,32,32,54,1,6,1,,,,,,,,,,,,,,,,,,,,,,,,,,,,,,,,,,,,,,,,,,,,,,,,,,,,,,,,,,,,,,,,,,,,,,,,,,,,,,,,,,,,,,,,,,,,,,,,,,,,,,,,,,,,,
,,,,,,,,,,stimuli/images/PICTURE_203.png,NIGHT,5ddd5bb741fb3fcc3bd3b76d,15/05/1945,2020-09-10_13h53.23.762,proactive3.1,2020.1.2,Win32,60,5f599a131af4471f3d752b7b,5f5a219a7e4af2069f80e0ee,2,,,,,,cap,,,,,,0,33,33,2,1,1,1,,,,,,,,,,,,,,,,,,,,,,,,,,,,,,,,,,,,,,,,,,,,,,,,,,,,,,,,,,,,,,,,,,,,,,,,,,,,,,,,,,,,,,,,,,,,,,,,,,,,,,,,,,,,,
,,,,,,,,,,stimuli/images/PICTURE_327.png,SERIES,5ddd5bb741fb3fcc3bd3b76d,15/05/1945,2020-09-10_13h53.23.762,proactive3.1,2020.1.2,Win32,60,5f599a131af4471f3d752b7b,5f5a219a7e4af2069f80e0ee,2,,,,,,helmet,,,,,,0,34,34,3,1,1,1,,,,,,,,,,,,,,,,,,,,,,,,,,,,,,,,,,,,,,,,,,,,,,,,,,,,,,,,,,,,,,,,,,,,,,,,,,,,,,,,,,,,,,,,,,,,,,,,,,,,,,,,,,,,,
,,,,,,,,,,stimuli/images/PICTURE_675.png,SALE,5ddd5bb741fb3fcc3bd3b76d,15/05/1945,2020-09-10_13h53.23.762,proactive3.1,2020.1.2,Win32,60,5f599a131af4471f3d752b7b,5f5a219a7e4af2069f80e0ee,2,,,,,,windmill,,,,,,0,35,35,47,1,5,1,,,,,,,,,,,,,,,,,,,,,,,,,,,,,,,,,,,,,,,,,,,,,,,,,,,,,,,,,,,,,,,,,,,,,,,,,,,,,,,,,,,,,,,,,,,,,,,,,,,,,,,,,,,,,
,,,,,,,,,,stimuli/images/PICTURE_383.png,WRITER,5ddd5bb741fb3fcc3bd3b76d,15/05/1945,2020-09-10_13h53.23.762,proactive3.1,2020.1.2,Win32,60,5f599a131af4471f3d752b7b,5f5a219a7e4af2069f80e0ee,2,,,,,,coin,,,,,,0,36,36,28,1,3,1,,,,,,,,,,,,,,,,,,,,,,,,,,,,,,,,,,,,,,,,,,,,,,,,,,,,,,,,,,,,,,,,,,,,,,,,,,,,,,,,,,,,,,,,,,,,,,,,,,,,,,,,,,,,,
,,,,,,,,,,stimuli/images/PICTURE_285.png,LIFE,5ddd5bb741fb3fcc3bd3b76d,15/05/1945,2020-09-10_13h53.23.762,proactive3.1,2020.1.2,Win32,60,5f599a131af4471f3d752b7b,5f5a219a7e4af2069f80e0ee,2,,,,,,carrot,,,,,,0,37,37,33,1,4,1,,,,,,,,,,,,,,,,,,,,,,,,,,,,,,,,,,,,,,,,,,,,,,,,,,,,,,,,,,,,,,,,,,,,,,,,,,,,,,,,,,,,,,,,,,,,,,,,,,,,,,,,,,,,,
,,,,,,,,,,stimuli/images/PICTURE_708.png,RECORD,5ddd5bb741fb3fcc3bd3b76d,15/05/1945,2020-09-10_13h53.23.762,proactive3.1,2020.1.2,Win32,60,5f599a131af4471f3d752b7b,5f5a219a7e4af2069f80e0ee,2,,,,,,monkey,,,,,,0,38,38,58,1,6,1,,,,,,,,,,,,,,,,,,,,,,,,,,,,,,,,,,,,,,,,,,,,,,,,,,,,,,,,,,,,,,,,,,,,,,,,,,,,,,,,,,,,,,,,,,,,,,,,,,,,,,,,,,,,,
,,,,,,,,,,stimuli/images/PICTURE_233.png,LOTS,5ddd5bb741fb3fcc3bd3b76d,15/05/1945,2020-09-10_13h53.23.762,proactive3.1,2020.1.2,Win32,60,5f599a131af4471f3d752b7b,5f5a219a7e4af2069f80e0ee,2,,,,,,salt,,,,,,0,39,39,42,1,5,1,,,,,,,,,,,,,,,,,,,,,,,,,,,,,,,,,,,,,,,,,,,,,,,,,,,,,,,,,,,,,,,,,,,,,,,,,,,,,,,,,,,,,,,,,,,,,,,,,,,,,,,,,,,,,
,,,,,,,,,,stimuli/images/PICTURE_677.png,APPLE,5ddd5bb741fb3fcc3bd3b76d,15/05/1945,2020-09-10_13h53.23.762,proactive3.1,2020.1.2,Win32,60,5f599a131af4471f3d752b7b,5f5a219a7e4af2069f80e0ee,2,,,,,,map,,,,,,0,40,40,43,1,5,1,,,,,,,,,,,,,,,,,,,,,,,,,,,,,,,,,,,,,,,,,,,,,,,,,,,,,,,,,,,,,,,,,,,,,,,,,,,,,,,,,,,,,,,,,,,,,,,,,,,,,,,,,,,,,
,,,,,,,,,,stimuli/images/PICTURE_296.png,LIFE,5ddd5bb741fb3fcc3bd3b76d,15/05/1945,2020-09-10_13h53.23.762,proactive3.1,2020.1.2,Win32,60,5f599a131af4471f3d752b7b,5f5a219a7e4af2069f80e0ee,2,,,,,,bolt,,,,,,0,41,41,57,1,6,1,,,,,,,,,,,,,,,,,,,,,,,,,,,,,,,,,,,,,,,,,,,,,,,,,,,,,,,,,,,,,,,,,,,,,,,,,,,,,,,,,,,,,,,,,,,,,,,,,,,,,,,,,,,,,
,,,,,,,,,,stimuli/images/PICTURE_405.png,YEAR,5ddd5bb741fb3fcc3bd3b76d,15/05/1945,2020-09-10_13h53.23.762,proactive3.1,2020.1.2,Win32,60,5f599a131af4471f3d752b7b,5f5a219a7e4af2069f80e0ee,2,,,,,,anchor,,,,,,0,42,42,34,1,4,1,,,,,,,,,,,,,,,,,,,,,,,,,,,,,,,,,,,,,,,,,,,,,,,,,,,,,,,,,,,,,,,,,,,,,,,,,,,,,,,,,,,,,,,,,,,,,,,,,,,,,,,,,,,,,
,,,,,,,,,,stimuli/images/PICTURE_380.png,HONEY,5ddd5bb741fb3fcc3bd3b76d,15/05/1945,2020-09-10_13h53.23.762,proactive3.1,2020.1.2,Win32,60,5f599a131af4471f3d752b7b,5f5a219a7e4af2069f80e0ee,2,,,,,,gorilla,,,,,,0,43,43,19,1,2,1,,,,,,,,,,,,,,,,,,,,,,,,,,,,,,,,,,,,,,,,,,,,,,,,,,,,,,,,,,,,,,,,,,,,,,,,,,,,,,,,,,,,,,,,,,,,,,,,,,,,,,,,,,,,,
,,,,,,,,,,stimuli/images/PICTURE_504.png,COPS,5ddd5bb741fb3fcc3bd3b76d,15/05/1945,2020-09-10_13h53.23.762,proactive3.1,2020.1.2,Win32,60,5f599a131af4471f3d752b7b,5f5a219a7e4af2069f80e0ee,2,,,,,,wheel,,,,,,0,44,44,52,1,6,1,,,,,,,,,,,,,,,,,,,,,,,,,,,,,,,,,,,,,,,,,,,,,,,,,,,,,,,,,,,,,,,,,,,,,,,,,,,,,,,,,,,,,,,,,,,,,,,,,,,,,,,,,,,,,
,,,,,,,,,,stimuli/images/PICTURE_467.png,POLICY,5ddd5bb741fb3fcc3bd3b76d,15/05/1945,2020-09-10_13h53.23.762,proactive3.1,2020.1.2,Win32,60,5f599a131af4471f3d752b7b,5f5a219a7e4af2069f80e0ee,2,,,,,,peg,,,,,,0,45,45,53,1,6,1,,,,,,,,,,,,,,,,,,,,,,,,,,,,,,,,,,,,,,,,,,,,,,,,,,,,,,,,,,,,,,,,,,,,,,,,,,,,,,,,,,,,,,,,,,,,,,,,,,,,,,,,,,,,,
,,,,,,,,,,stimuli/images/PICTURE_108.png,POLICY,5ddd5bb741fb3fcc3bd3b76d,15/05/1945,2020-09-10_13h53.23.762,proactive3.1,2020.1.2,Win32,60,5f599a131af4471f3d752b7b,5f5a219a7e4af2069f80e0ee,2,,,,,,calendar,,,,,,0,46,46,22,1,3,1,,,,,,,,,,,,,,,,,,,,,,,,,,,,,,,,,,,,,,,,,,,,,,,,,,,,,,,,,,,,,,,,,,,,,,,,,,,,,,,,,,,,,,,,,,,,,,,,,,,,,,,,,,,,,
,,,,,,,,,,stimuli/images/PICTURE_564.png,BATH,5ddd5bb741fb3fcc3bd3b76d,15/05/1945,2020-09-10_13h53.23.762,proactive3.1,2020.1.2,Win32,60,5f599a131af4471f3d752b7b,5f5a219a7e4af2069f80e0ee,2,,,,,,spoon,,,,,,0,47,47,26,1,3,1,,,,,,,,,,,,,,,,,,,,,,,,,,,,,,,,,,,,,,,,,,,,,,,,,,,,,,,,,,,,,,,,,,,,,,,,,,,,,,,,,,,,,,,,,,,,,,,,,,,,,,,,,,,,,
,,,,,,,,,,stimuli/images/PICTURE_327.png,CASINO,5ddd5bb741fb3fcc3bd3b76d,15/05/1945,2020-09-10_13h53.23.762,proactive3.1,2020.1.2,Win32,60,5f599a131af4471f3d752b7b,5f5a219a7e4af2069f80e0ee,2,,,,,,helmet,,,,,,0,48,48,20,1,3,1,,,,,,,,,,,,,,,,,,,,,,,,,,,,,,,,,,,,,,,,,,,,,,,,,,,,,,,,,,,,,,,,,,,,,,,,,,,,,,,,,,,,,,,,,,,,,,,,,,,,,,,,,,,,,
,,,,,,,,,,stimuli/images/PICTURE_504.png,YEAR,5ddd5bb741fb3fcc3bd3b76d,15/05/1945,2020-09-10_13h53.23.762,proactive3.1,2020.1.2,Win32,60,5f599a131af4471f3d752b7b,5f5a219a7e4af2069f80e0ee,2,,,,,,wheel,,,,,,0,49,49,13,1,2,1,,,,,,,,,,,,,,,,,,,,,,,,,,,,,,,,,,,,,,,,,,,,,,,,,,,,,,,,,,,,,,,,,,,,,,,,,,,,,,,,,,,,,,,,,,,,,,,,,,,,,,,,,,,,,
,,,,,,,,,,stimuli/images/PICTURE_297.png,RIVER,5ddd5bb741fb3fcc3bd3b76d,15/05/1945,2020-09-10_13h53.23.762,proactive3.1,2020.1.2,Win32,60,5f599a131af4471f3d752b7b,5f5a219a7e4af2069f80e0ee,2,,,,,,aeroplane,,,,,,0,50,50,39,1,4,1,,,,,,,,,,,,,,,,,,,,,,,,,,,,,,,,,,,,,,,,,,,,,,,,,,,,,,,,,,,,,,,,,,,,,,,,,,,,,,,,,,,,,,,,,,,,,,,,,,,,,,,,,,,,,
,,,,,,,,,,stimuli/images/PICTURE_108.png,FLIGHT,5ddd5bb741fb3fcc3bd3b76d,15/05/1945,2020-09-10_13h53.23.762,proactive3.1,2020.1.2,Win32,60,5f599a131af4471f3d752b7b,5f5a219a7e4af2069f80e0ee,2,,,,,,calendar,,,,,,0,51,51,59,1,6,1,,,,,,,,,,,,,,,,,,,,,,,,,,,,,,,,,,,,,,,,,,,,,,,,,,,,,,,,,,,,,,,,,,,,,,,,,,,,,,,,,,,,,,,,,,,,,,,,,,,,,,,,,,,,,
,,,,,,,,,,stimuli/images/PICTURE_68.png,MILE,5ddd5bb741fb3fcc3bd3b76d,15/05/1945,2020-09-10_13h53.23.762,proactive3.1,2020.1.2,Win32,60,5f599a131af4471f3d752b7b,5f5a219a7e4af2069f80e0ee,2,,,,,,candle,,,,,,0,52,52,51,1,6,1,,,,,,,,,,,,,,,,,,,,,,,,,,,,,,,,,,,,,,,,,,,,,,,,,,,,,,,,,,,,,,,,,,,,,,,,,,,,,,,,,,,,,,,,,,,,,,,,,,,,,,,,,,,,,
,,,,,,,,,,stimuli/images/PICTURE_85.png,NATION,5ddd5bb741fb3fcc3bd3b76d,15/05/1945,2020-09-10_13h53.23.762,proactive3.1,2020.1.2,Win32,60,5f599a131af4471f3d752b7b,5f5a219a7e4af2069f80e0ee,2,,,,,,diamond,,,,,,0,53,53,5,1,1,1,,,,,,,,,,,,,,,,,,,,,,,,,,,,,,,,,,,,,,,,,,,,,,,,,,,,,,,,,,,,,,,,,,,,,,,,,,,,,,,,,,,,,,,,,,,,,,,,,,,,,,,,,,,,,
,,,,,,,,,,stimuli/images/PICTURE_147.png,WOMEN,5ddd5bb741fb3fcc3bd3b76d,15/05/1945,2020-09-10_13h53.23.762,proactive3.1,2020.1.2,Win32,60,5f599a131af4471f3d752b7b,5f5a219a7e4af2069f80e0ee,2,,,,,,hanger,,,,,,0,54,54,7,1,1,1,,,,,,,,,,,,,,,,,,,,,,,,,,,,,,,,,,,,,,,,,,,,,,,,,,,,,,,,,,,,,,,,,,,,,,,,,,,,,,,,,,,,,,,,,,,,,,,,,,,,,,,,,,,,,
,,,,,,,,,,stimuli/images/PICTURE_42.png,BOYS,5ddd5bb741fb3fcc3bd3b76d,15/05/1945,2020-09-10_13h53.23.762,proactive3.1,2020.1.2,Win32,60,5f599a131af4471f3d752b7b,5f5a219a7e4af2069f80e0ee,2,,,,,,pear,,,,,,0,55,55,55,1,6,1,,,,,,,,,,,,,,,,,,,,,,,,,,,,,,,,,,,,,,,,,,,,,,,,,,,,,,,,,,,,,,,,,,,,,,,,,,,,,,,,,,,,,,,,,,,,,,,,,,,,,,,,,,,,,
,,,,,,,,,,stimuli/images/PICTURE_68.png,ROOF,5ddd5bb741fb3fcc3bd3b76d,15/05/1945,2020-09-10_13h53.23.762,proactive3.1,2020.1.2,Win32,60,5f599a131af4471f3d752b7b,5f5a219a7e4af2069f80e0ee,2,,,,,,candle,,,,,,0,56,56,38,1,4,1,,,,,,,,,,,,,,,,,,,,,,,,,,,,,,,,,,,,,,,,,,,,,,,,,,,,,,,,,,,,,,,,,,,,,,,,,,,,,,,,,,,,,,,,,,,,,,,,,,,,,,,,,,,,,
,,,,,,,,,,stimuli/images/PICTURE_32.png,KIND,5ddd5bb741fb3fcc3bd3b76d,15/05/1945,2020-09-10_13h53.23.762,proactive3.1,2020.1.2,Win32,60,5f599a131af4471f3d752b7b,5f5a219a7e4af2069f80e0ee,2,,,,,,crown,,,,,,0,57,57,35,1,4,1,,,,,,,,,,,,,,,,,,,,,,,,,,,,,,,,,,,,,,,,,,,,,,,,,,,,,,,,,,,,,,,,,,,,,,,,,,,,,,,,,,,,,,,,,,,,,,,,,,,,,,,,,,,,,
,,,,,,,,,,stimuli/images/PICTURE_383.png,SERIES,5ddd5bb741fb3fcc3bd3b76d,15/05/1945,2020-09-10_13h53.23.762,proactive3.1,2020.1.2,Win32,60,5f599a131af4471f3d752b7b,5f5a219a7e4af2069f80e0ee,2,,,,,,coin,,,,,,0,58,58,46,1,5,1,,,,,,,,,,,,,,,,,,,,,,,,,,,,,,,,,,,,,,,,,,,,,,,,,,,,,,,,,,,,,,,,,,,,,,,,,,,,,,,,,,,,,,,,,,,,,,,,,,,,,,,,,,,,,
,,?,0.004,0,,,,,,stimuli/images/PICTURE_403.png,RIVER,5ddd5bb741fb3fcc3bd3b76d,15/05/1945,2020-09-10_13h53.23.762,proactive3.1,2020.1.2,Win32,60,5f599a131af4471f3d752b7b,5f5a219a7e4af2069f80e0ee,2,,,,,,cathedral,,,,,,,,,,,5,1,0,0,0,40,1,,,,,,,,,,,,,,,,,,,,,,,,,,,,,,,,,,,,,,,,,,,,,,,,,,,,,,,,,,,,,,,,,,,,,,,,,,,,,,,,,,,,,,,,,,,,,,,,,,,,,,,,
,,?,0.003,0,,,,,,stimuli/images/PICTURE_95.png,BOYS,5ddd5bb741fb3fcc3bd3b76d,15/05/1945,2020-09-10_13h53.23.762,proactive3.1,2020.1.2,Win32,60,5f599a131af4471f3d752b7b,5f5a219a7e4af2069f80e0ee,2,,,,,,suitcase,,,,,,,,,,,1,1,0,1,1,1,1,,,,,,,,,,,,,,,,,,,,,,,,,,,,,,,,,,,,,,,,,,,,,,,,,,,,,,,,,,,,,,,,,,,,,,,,,,,,,,,,,,,,,,,,,,,,,,,,,,,,,,,,
,,RIVER,3.156,1,,,,,,stimuli/images/PICTURE_667.png,RIVER,5ddd5bb741fb3fcc3bd3b76d,15/05/1945,2020-09-10_13h53.23.762,proactive3.1,2020.1.2,Win32,60,5f599a131af4471f3d752b7b,5f5a219a7e4af2069f80e0ee,2,,,,,,daisy,,,,,,,,,,,2,1,0,2,2,10,1,,,,,,,,,,,,,,,,,,,,,,,,,,,,,,,,,,,,,,,,,,,,,,,,,,,,,,,,,,,,,,,,,,,,,,,,,,,,,,,,,,,,,,,,,,,,,,,,,,,,,,,,
,,?,0.005,0,,,,,,stimuli/images/PICTURE_108.png,POLICY,5ddd5bb741fb3fcc3bd3b76d,15/05/1945,2020-09-10_13h53.23.762,proactive3.1,2020.1.2,Win32,60,5f599a131af4471f3d752b7b,5f5a219a7e4af2069f80e0ee,2,,,,,,calendar,,,,,,,,,,,3,1,0,3,3,22,1,,,,,,,,,,,,,,,,,,,,,,,,,,,,,,,,,,,,,,,,,,,,,,,,,,,,,,,,,,,,,,,,,,,,,,,,,,,,,,,,,,,,,,,,,,,,,,,,,,,,,,,,
,,?,0.004,0,,,,,,stimuli/images/PICTURE_467.png,POLICY,5ddd5bb741fb3fcc3bd3b76d,15/05/1945,2020-09-10_13h53.23.762,proactive3.1,2020.1.2,Win32,60,5f599a131af4471f3d752b7b,5f5a219a7e4af2069f80e0ee,2,,,,,,peg,,,,,,,,,,,6,1,0,4,4,53,1,,,,,,,,,,,,,,,,,,,,,,,,,,,,,,,,,,,,,,,,,,,,,,,,,,,,,,,,,,,,,,,,,,,,,,,,,,,,,,,,,,,,,,,,,,,,,,,,,,,,,,,,
,,?,0.002,0,,,,,,stimuli/images/PICTURE_675.png,SALE,5ddd5bb741fb3fcc3bd3b76d,15/05/1945,2020-09-10_13h53.23.762,proactive3.1,2020.1.2,Win32,60,5f599a131af4471f3d752b7b,5f5a219a7e4af2069f80e0ee,2,,,,,,windmill,,,,,,,,,,,5,1,0,5,5,47,1,,,,,,,,,,,,,,,,,,,,,,,,,,,,,,,,,,,,,,,,,,,,,,,,,,,,,,,,,,,,,,,,,,,,,,,,,,,,,,,,,,,,,,,,,,,,,,,,,,,,,,,,
,,?,0.002,0,,,,,,stimuli/images/PICTURE_42.png,BOYS,5ddd5bb741fb3fcc3bd3b76d,15/05/1945,2020-09-10_13h53.23.762,proactive3.1,2020.1.2,Win32,60,5f599a131af4471f3d752b7b,5f5a219a7e4af2069f80e0ee,2,,,,,,pear,,,,,,,,,,,6,1,0,6,6,55,1,,,,,,,,,,,,,,,,,,,,,,,,,,,,,,,,,,,,,,,,,,,,,,,,,,,,,,,,,,,,,,,,,,,,,,,,,,,,,,,,,,,,,,,,,,,,,,,,,,,,,,,,
,,?,0.002,0,,,,,,stimuli/images/PICTURE_487.png,GIRL,5ddd5bb741fb3fcc3bd3b76d,15/05/1945,2020-09-10_13h53.23.762,proactive3.1,2020.1.2,Win32,60,5f599a131af4471f3d752b7b,5f5a219a7e4af2069f80e0ee,2,,,,,,basket,,,,,,,,,,,5,1,0,7,7,45,1,,,,,,,,,,,,,,,,,,,,,,,,,,,,,,,,,,,,,,,,,,,,,,,,,,,,,,,,,,,,,,,,,,,,,,,,,,,,,,,,,,,,,,,,,,,,,,,,,,,,,,,,
,,?,0.002,0,,,,,,stimuli/images/PICTURE_147.png,YEAR,5ddd5bb741fb3fcc3bd3b76d,15/05/1945,2020-09-10_13h53.23.762,proactive3.1,2020.1.2,Win32,60,5f599a131af4471f3d752b7b,5f5a219a7e4af2069f80e0ee,2,,,,,,hanger,,,,,,,,,,,3,1,0,8,8,21,1,,,,,,,,,,,,,,,,,,,,,,,,,,,,,,,,,,,,,,,,,,,,,,,,,,,,,,,,,,,,,,,,,,,,,,,,,,,,,,,,,,,,,,,,,,,,,,,,,,,,,,,,
,,HONEY,8.782,1,,,,,,stimuli/images/PICTURE_380.png,HONEY,5ddd5bb741fb3fcc3bd3b76d,15/05/1945,2020-09-10_13h53.23.762,proactive3.1,2020.1.2,Win32,60,5f599a131af4471f3d752b7b,5f5a219a7e4af2069f80e0ee,2,,,,,,gorilla,,,,,,,,,,,2,1,0,9,9,19,1,,,,,,,,,,,,,,,,,,,,,,,,,,,,,,,,,,,,,,,,,,,,,,,,,,,,,,,,,,,,,,,,,,,,,,,,,,,,,,,,,,,,,,,,,,,,,,,,,,,,,,,,
,,?,0.006,0,,,,,,stimuli/images/PICTURE_405.png,PLENTY,5ddd5bb741fb3fcc3bd3b76d,15/05/1945,2020-09-10_13h53.23.762,proactive3.1,2020.1.2,Win32,60,5f599a131af4471f3d752b7b,5f5a219a7e4af2069f80e0ee,2,,,,,,anchor,,,,,,,,,,,3,1,0,10,10,23,1,,,,,,,,,,,,,,,,,,,,,,,,,,,,,,,,,,,,,,,,,,,,,,,,,,,,,,,,,,,,,,,,,,,,,,,,,,,,,,,,,,,,,,,,,,,,,,,,,,,,,,,,
,,?,0.007,0,,,,,,stimuli/images/PICTURE_285.png,LIFE,5ddd5bb741fb3fcc3bd3b76d,15/05/1945,2020-09-10_13h53.23.762,proactive3.1,2020.1.2,Win32,60,5f599a131af4471f3d752b7b,5f5a219a7e4af2069f80e0ee,2,,,,,,carrot,,,,,,,,,,,4,1,0,11,11,33,1,,,,,,,,,,,,,,,,,,,,,,,,,,,,,,,,,,,,,,,,,,,,,,,,,,,,,,,,,,,,,,,,,,,,,,,,,,,,,,,,,,,,,,,,,,,,,,,,,,,,,,,,
,,?,0.002,0,,,,,,stimuli/images/PICTURE_296.png,LOTS,5ddd5bb741fb3fcc3bd3b76d,15/05/1945,2020-09-10_13h53.23.762,proactive3.1,2020.1.2,Win32,60,5f599a131af4471f3d752b7b,5f5a219a7e4af2069f80e0ee,2,,,,,,bolt,,,,,,,,,,,1,1,0,12,12,9,1,,,,,,,,,,,,,,,,,,,,,,,,,,,,,,,,,,,,,,,,,,,,,,,,,,,,,,,,,,,,,,,,,,,,,,,,,,,,,,,,,,,,,,,,,,,,,,,,,,,,,,,,
,,?,0.002,0,,,,,,stimuli/images/PICTURE_504.png,COPS,5ddd5bb741fb3fcc3bd3b76d,15/05/1945,2020-09-10_13h53.23.762,proactive3.1,2020.1.2,Win32,60,5f599a131af4471f3d752b7b,5f5a219a7e4af2069f80e0ee,2,,,,,,wheel,,,,,,,,,,,6,1,0,13,13,52,1,,,,,,,,,,,,,,,,,,,,,,,,,,,,,,,,,,,,,,,,,,,,,,,,,,,,,,,,,,,,,,,,,,,,,,,,,,,,,,,,,,,,,,,,,,,,,,,,,,,,,,,,
,,?,0.004,0,,,,,,stimuli/images/PICTURE_95.png,MILLER,5ddd5bb741fb3fcc3bd3b76d,15/05/1945,2020-09-10_13h53.23.762,proactive3.1,2020.1.2,Win32,60,5f599a131af4471f3d752b7b,5f5a219a7e4af2069f80e0ee,2,,,,,,suitcase,,,,,,,,,,,6,1,0,14,14,56,1,,,,,,,,,,,,,,,,,,,,,,,,,,,,,,,,,,,,,,,,,,,,,,,,,,,,,,,,,,,,,,,,,,,,,,,,,,,,,,,,,,,,,,,,,,,,,,,,,,,,,,,,
,,?,0.002,0,,,,,,stimuli/images/PICTURE_233.png,LOTS,5ddd5bb741fb3fcc3bd3b76d,15/05/1945,2020-09-10_13h53.23.762,proactive3.1,2020.1.2,Win32,60,5f599a131af4471f3d752b7b,5f5a219a7e4af2069f80e0ee,2,,,,,,salt,,,,,,,,,,,5,1,0,15,15,42,1,,,,,,,,,,,,,,,,,,,,,,,,,,,,,,,,,,,,,,,,,,,,,,,,,,,,,,,,,,,,,,,,,,,,,,,,,,,,,,,,,,,,,,,,,,,,,,,,,,,,,,,,
,,?,0.003,0,,,,,,stimuli/images/PICTURE_296.png,LIFE,5ddd5bb741fb3fcc3bd3b76d,15/05/1945,2020-09-10_13h53.23.762,proactive3.1,2020.1.2,Win32,60,5f599a131af4471f3d752b7b,5f5a219a7e4af2069f80e0ee,2,,,,,,bolt,,,,,,,,,,,6,1,0,16,16,57,1,,,,,,,,,,,,,,,,,,,,,,,,,,,,,,,,,,,,,,,,,,,,,,,,,,,,,,,,,,,,,,,,,,,,,,,,,,,,,,,,,,,,,,,,,,,,,,,,,,,,,,,,
,,YEAR,5.023,0,,,,,,stimuli/images/PICTURE_655.png,TOILET,5ddd5bb741fb3fcc3bd3b76d,15/05/1945,2020-09-10_13h53.23.762,proactive3.1,2020.1.2,Win32,60,5f599a131af4471f3d752b7b,5f5a219a7e4af2069f80e0ee,2,,,,,,megaphone,,,,,,,,,,,2,1,0,17,17,12,1,,,,,,,,,,,,,,,,,,,,,,,,,,,,,,,,,,,,,,,,,,,,,,,,,,,,,,,,,,,,,,,,,,,,,,,,,,,,,,,,,,,,,,,,,,,,,,,,,,,,,,,,
,,?,0.005,0,,,,,,stimuli/images/PICTURE_504.png,ARTIST,5ddd5bb741fb3fcc3bd3b76d,15/05/1945,2020-09-10_13h53.23.762,proactive3.1,2020.1.2,Win32,60,5f599a131af4471f3d752b7b,5f5a219a7e4af2069f80e0ee,2,,,,,,wheel,,,,,,,,,,,5,1,0,18,18,49,1,,,,,,,,,,,,,,,,,,,,,,,,,,,,,,,,,,,,,,,,,,,,,,,,,,,,,,,,,,,,,,,,,,,,,,,,,,,,,,,,,,,,,,,,,,,,,,,,,,,,,,,,
,,FLIGHT,5.004,1,,,,,,stimuli/images/PICTURE_2.png,FLIGHT,5ddd5bb741fb3fcc3bd3b76d,15/05/1945,2020-09-10_13h53.23.762,proactive3.1,2020.1.2,Win32,60,5f599a131af4471f3d752b7b,5f5a219a7e4af2069f80e0ee,2,,,,,,tyre,,,,,,,,,,,2,1,0,19,19,15,1,,,,,,,,,,,,,,,,,,,,,,,,,,,,,,,,,,,,,,,,,,,,,,,,,,,,,,,,,,,,,,,,,,,,,,,,,,,,,,,,,,,,,,,,,,,,,,,,,,,,,,,,
,,?,0.005,0,,,,,,stimuli/images/PICTURE_383.png,SERIES,5ddd5bb741fb3fcc3bd3b76d,15/05/1945,2020-09-10_13h53.23.762,proactive3.1,2020.1.2,Win32,60,5f599a131af4471f3d752b7b,5f5a219a7e4af2069f80e0ee,2,,,,,,coin,,,,,,,,,,,5,1,0,20,20,46,1,,,,,,,,,,,,,,,,,,,,,,,,,,,,,,,,,,,,,,,,,,,,,,,,,,,,,,,,,,,,,,,,,,,,,,,,,,,,,,,,,,,,,,,,,,,,,,,,,,,,,,,,
,,?,0.005,0,,,,,,stimuli/images/PICTURE_85.png,TOILET,5ddd5bb741fb3fcc3bd3b76d,15/05/1945,2020-09-10_13h53.23.762,proactive3.1,2020.1.2,Win32,60,5f599a131af4471f3d752b7b,5f5a219a7e4af2069f80e0ee,2,,,,,,diamond,,,,,,,,,,,5,1,0,21,21,48,1,,,,,,,,,,,,,,,,,,,,,,,,,,,,,,,,,,,,,,,,,,,,,,,,,,,,,,,,,,,,,,,,,,,,,,,,,,,,,,,,,,,,,,,,,,,,,,,,,,,,,,,,
,,?,0.002,0,,,,,,stimuli/images/PICTURE_85.png,NATION,5ddd5bb741fb3fcc3bd3b76d,15/05/1945,2020-09-10_13h53.23.762,proactive3.1,2020.1.2,Win32,60,5f599a131af4471f3d752b7b,5f5a219a7e4af2069f80e0ee,2,,,,,,diamond,,,,,,,,,,,1,1,0,22,22,5,1,,,,,,,,,,,,,,,,,,,,,,,,,,,,,,,,,,,,,,,,,,,,,,,,,,,,,,,,,,,,,,,,,,,,,,,,,,,,,,,,,,,,,,,,,,,,,,,,,,,,,,,,
,,?,0.002,0,,,,,,stimuli/images/PICTURE_327.png,SERIES,5ddd5bb741fb3fcc3bd3b76d,15/05/1945,2020-09-10_13h53.23.762,proactive3.1,2020.1.2,Win32,60,5f599a131af4471f3d752b7b,5f5a219a7e4af2069f80e0ee,2,,,,,,helmet,,,,,,,,,,,1,1,0,23,23,3,1,,,,,,,,,,,,,,,,,,,,,,,,,,,,,,,,,,,,,,,,,,,,,,,,,,,,,,,,,,,,,,,,,,,,,,,,,,,,,,,,,,,,,,,,,,,,,,,,,,,,,,,,
,,?,5.803,0,,,,,,stimuli/images/PICTURE_504.png,YEAR,5ddd5bb741fb3fcc3bd3b76d,15/05/1945,2020-09-10_13h53.23.762,proactive3.1,2020.1.2,Win32,60,5f599a131af4471f3d752b7b,5f5a219a7e4af2069f80e0ee,2,,,,,,wheel,,,,,,,,,,,2,1,0,24,24,13,1,,,,,,,,,,,,,,,,,,,,,,,,,,,,,,,,,,,,,,,,,,,,,,,,,,,,,,,,,,,,,,,,,,,,,,,,,,,,,,,,,,,,,,,,,,,,,,,,,,,,,,,,
,,?,0.004,0,,,,,,stimuli/images/PICTURE_147.png,WOMEN,5ddd5bb741fb3fcc3bd3b76d,15/05/1945,2020-09-10_13h53.23.762,proactive3.1,2020.1.2,Win32,60,5f599a131af4471f3d752b7b,5f5a219a7e4af2069f80e0ee,2,,,,,,hanger,,,,,,,,,,,1,1,0,25,25,7,1,,,,,,,,,,,,,,,,,,,,,,,,,,,,,,,,,,,,,,,,,,,,,,,,,,,,,,,,,,,,,,,,,,,,,,,,,,,,,,,,,,,,,,,,,,,,,,,,,,,,,,,,
,,?,0.004,0,,,,,,stimuli/images/PICTURE_327.png,CASINO,5ddd5bb741fb3fcc3bd3b76d,15/05/1945,2020-09-10_13h53.23.762,proactive3.1,2020.1.2,Win32,60,5f599a131af4471f3d752b7b,5f5a219a7e4af2069f80e0ee,2,,,,,,helmet,,,,,,,,,,,3,1,0,26,26,20,1,,,,,,,,,,,,,,,,,,,,,,,,,,,,,,,,,,,,,,,,,,,,,,,,,,,,,,,,,,,,,,,,,,,,,,,,,,,,,,,,,,,,,,,,,,,,,,,,,,,,,,,,
,,GLASS,6.945,1,,,,,,stimuli/images/PICTURE_491.png,GLASS,5ddd5bb741fb3fcc3bd3b76d,15/05/1945,2020-09-10_13h53.23.762,proactive3.1,2020.1.2,Win32,60,5f599a131af4471f3d752b7b,5f5a219a7e4af2069f80e0ee,2,,,,,,rug,,,,,,,,,,,2,1,0,27,27,14,1,,,,,,,,,,,,,,,,,,,,,,,,,,,,,,,,,,,,,,,,,,,,,,,,,,,,,,,,,,,,,,,,,,,,,,,,,,,,,,,,,,,,,,,,,,,,,,,,,,,,,,,,
,,?,0.005,0,,,,,,stimuli/images/PICTURE_340.png,VALLEY,5ddd5bb741fb3fcc3bd3b76d,15/05/1945,2020-09-10_13h53.23.762,proactive3.1,2020.1.2,Win32,60,5f599a131af4471f3d752b7b,5f5a219a7e4af2069f80e0ee,2,,,,,,mirror,,,,,,,,,,,6,1,0,28,28,54,1,,,,,,,,,,,,,,,,,,,,,,,,,,,,,,,,,,,,,,,,,,,,,,,,,,,,,,,,,,,,,,,,,,,,,,,,,,,,,,,,,,,,,,,,,,,,,,,,,,,,,,,,
,,?,0.003,0,,,,,,stimuli/images/PICTURE_677.png,APPLE,5ddd5bb741fb3fcc3bd3b76d,15/05/1945,2020-09-10_13h53.23.762,proactive3.1,2020.1.2,Win32,60,5f599a131af4471f3d752b7b,5f5a219a7e4af2069f80e0ee,2,,,,,,map,,,,,,,,,,,5,1,0,29,29,43,1,,,,,,,,,,,,,,,,,,,,,,,,,,,,,,,,,,,,,,,,,,,,,,,,,,,,,,,,,,,,,,,,,,,,,,,,,,,,,,,,,,,,,,,,,,,,,,,,,,,,,,,,
,,?,0.004,0,,,,,,stimuli/images/PICTURE_203.png,NIGHT,5ddd5bb741fb3fcc3bd3b76d,15/05/1945,2020-09-10_13h53.23.762,proactive3.1,2020.1.2,Win32,60,5f599a131af4471f3d752b7b,5f5a219a7e4af2069f80e0ee,2,,,,,,cap,,,,,,,,,,,1,1,0,30,30,2,1,,,,,,,,,,,,,,,,,,,,,,,,,,,,,,,,,,,,,,,,,,,,,,,,,,,,,,,,,,,,,,,,,,,,,,,,,,,,,,,,,,,,,,,,,,,,,,,,,,,,,,,,
,,?,0.002,0,,,,,,stimuli/images/PICTURE_750.png,HOTEL,5ddd5bb741fb3fcc3bd3b76d,15/05/1945,2020-09-10_13h53.23.762,proactive3.1,2020.1.2,Win32,60,5f599a131af4471f3d752b7b,5f5a219a7e4af2069f80e0ee,2,,,,,,kettle,,,,,,,,,,,3,1,0,31,31,27,1,,,,,,,,,,,,,,,,,,,,,,,,,,,,,,,,,,,,,,,,,,,,,,,,,,,,,,,,,,,,,,,,,,,,,,,,,,,,,,,,,,,,,,,,,,,,,,,,,,,,,,,,
,,?,0.003,0,,,,,,stimuli/images/PICTURE_685.png,PENNY,5ddd5bb741fb3fcc3bd3b76d,15/05/1945,2020-09-10_13h53.23.762,proactive3.1,2020.1.2,Win32,60,5f599a131af4471f3d752b7b,5f5a219a7e4af2069f80e0ee,2,,,,,,goose,,,,,,,,,,,1,1,0,32,32,4,1,,,,,,,,,,,,,,,,,,,,,,,,,,,,,,,,,,,,,,,,,,,,,,,,,,,,,,,,,,,,,,,,,,,,,,,,,,,,,,,,,,,,,,,,,,,,,,,,,,,,,,,,
,,?,0.005,0,,,,,,stimuli/images/PICTURE_68.png,ROOF,5ddd5bb741fb3fcc3bd3b76d,15/05/1945,2020-09-10_13h53.23.762,proactive3.1,2020.1.2,Win32,60,5f599a131af4471f3d752b7b,5f5a219a7e4af2069f80e0ee,2,,,,,,candle,,,,,,,,,,,4,1,0,33,33,38,1,,,,,,,,,,,,,,,,,,,,,,,,,,,,,,,,,,,,,,,,,,,,,,,,,,,,,,,,,,,,,,,,,,,,,,,,,,,,,,,,,,,,,,,,,,,,,,,,,,,,,,,,
,,?,0.003,0,,,,,,stimuli/images/PICTURE_297.png,RIVER,5ddd5bb741fb3fcc3bd3b76d,15/05/1945,2020-09-10_13h53.23.762,proactive3.1,2020.1.2,Win32,60,5f599a131af4471f3d752b7b,5f5a219a7e4af2069f80e0ee,2,,,,,,aeroplane,,,,,,,,,,,4,1,0,34,34,39,1,,,,,,,,,,,,,,,,,,,,,,,,,,,,,,,,,,,,,,,,,,,,,,,,,,,,,,,,,,,,,,,,,,,,,,,,,,,,,,,,,,,,,,,,,,,,,,,,,,,,,,,,
,,?,0.002,0,,,,,,stimuli/images/PICTURE_95.png,HONEY,5ddd5bb741fb3fcc3bd3b76d,15/05/1945,2020-09-10_13h53.23.762,proactive3.1,2020.1.2,Win32,60,5f599a131af4471f3d752b7b,5f5a219a7e4af2069f80e0ee,2,,,,,,suitcase,,,,,,,,,,,5,1,0,35,35,44,1,,,,,,,,,,,,,,,,,,,,,,,,,,,,,,,,,,,,,,,,,,,,,,,,,,,,,,,,,,,,,,,,,,,,,,,,,,,,,,,,,,,,,,,,,,,,,,,,,,,,,,,,
,,?,0.002,0,,,,,,stimuli/images/PICTURE_108.png,FLIGHT,5ddd5bb741fb3fcc3bd3b76d,15/05/1945,2020-09-10_13h53.23.762,proactive3.1,2020.1.2,Win32,60,5f599a131af4471f3d752b7b,5f5a219a7e4af2069f80e0ee,2,,,,,,calendar,,,,,,,,,,,6,1,0,36,36,59,1,,,,,,,,,,,,,,,,,,,,,,,,,,,,,,,,,,,,,,,,,,,,,,,,,,,,,,,,,,,,,,,,,,,,,,,,,,,,,,,,,,,,,,,,,,,,,,,,,,,,,,,,
,,?,0.002,0,,,,,,stimuli/images/PICTURE_564.png,BATH,5ddd5bb741fb3fcc3bd3b76d,15/05/1945,2020-09-10_13h53.23.762,proactive3.1,2020.1.2,Win32,60,5f599a131af4471f3d752b7b,5f5a219a7e4af2069f80e0ee,2,,,,,,spoon,,,,,,,,,,,3,1,0,37,37,26,1,,,,,,,,,,,,,,,,,,,,,,,,,,,,,,,,,,,,,,,,,,,,,,,,,,,,,,,,,,,,,,,,,,,,,,,,,,,,,,,,,,,,,,,,,,,,,,,,,,,,,,,,
,,?,0.002,0,,,,,,stimuli/images/PICTURE_308.png,FAMILY,5ddd5bb741fb3fcc3bd3b76d,15/05/1945,2020-09-10_13h53.23.762,proactive3.1,2020.1.2,Win32,60,5f599a131af4471f3d752b7b,5f5a219a7e4af2069f80e0ee,2,,,,,,dice,,,,,,,,,,,4,1,0,38,38,36,1,,,,,,,,,,,,,,,,,,,,,,,,,,,,,,,,,,,,,,,,,,,,,,,,,,,,,,,,,,,,,,,,,,,,,,,,,,,,,,,,,,,,,,,,,,,,,,,,,,,,,,,,
,,?,0.003,0,,,,,,stimuli/images/PICTURE_340.png,LETTER,5ddd5bb741fb3fcc3bd3b76d,15/05/1945,2020-09-10_13h53.23.762,proactive3.1,2020.1.2,Win32,60,5f599a131af4471f3d752b7b,5f5a219a7e4af2069f80e0ee,2,,,,,,mirror,,,,,,,,,,,3,1,0,39,39,24,1,,,,,,,,,,,,,,,,,,,,,,,,,,,,,,,,,,,,,,,,,,,,,,,,,,,,,,,,,,,,,,,,,,,,,,,,,,,,,,,,,,,,,,,,,,,,,,,,,,,,,,,,
,,?,0.002,0,,,,,,stimuli/images/PICTURE_491.png,RIVER,5ddd5bb741fb3fcc3bd3b76d,15/05/1945,2020-09-10_13h53.23.762,proactive3.1,2020.1.2,Win32,60,5f599a131af4471f3d752b7b,5f5a219a7e4af2069f80e0ee,2,,,,,,rug,,,,,,,,,,,1,1,0,40,40,6,1,,,,,,,,,,,,,,,,,,,,,,,,,,,,,,,,,,,,,,,,,,,,,,,,,,,,,,,,,,,,,,,,,,,,,,,,,,,,,,,,,,,,,,,,,,,,,,,,,,,,,,,,
,,?,3.585,0,,,,,,stimuli/images/PICTURE_469.png,AGENT,5ddd5bb741fb3fcc3bd3b76d,15/05/1945,2020-09-10_13h53.23.762,proactive3.1,2020.1.2,Win32,60,5f599a131af4471f3d752b7b,5f5a219a7e4af2069f80e0ee,2,,,,,,stool,,,,,,,,,,,2,1,0,41,41,16,1,,,,,,,,,,,,,,,,,,,,,,,,,,,,,,,,,,,,,,,,,,,,,,,,,,,,,,,,,,,,,,,,,,,,,,,,,,,,,,,,,,,,,,,,,,,,,,,,,,,,,,,,
,,?,0.003,0,,,,,,stimuli/images/PICTURE_57.png,MOMENT,5ddd5bb741fb3fcc3bd3b76d,15/05/1945,2020-09-10_13h53.23.762,proactive3.1,2020.1.2,Win32,60,5f599a131af4471f3d752b7b,5f5a219a7e4af2069f80e0ee,2,,,,,,stamp,,,,,,,,,,,4,1,0,42,42,37,1,,,,,,,,,,,,,,,,,,,,,,,,,,,,,,,,,,,,,,,,,,,,,,,,,,,,,,,,,,,,,,,,,,,,,,,,,,,,,,,,,,,,,,,,,,,,,,,,,,,,,,,,
,,?,3.188,0,,,,,,stimuli/images/PICTURE_339.png,CLIENT,5ddd5bb741fb3fcc3bd3b76d,15/05/1945,2020-09-10_13h53.23.762,proactive3.1,2020.1.2,Win32,60,5f599a131af4471f3d752b7b,5f5a219a7e4af2069f80e0ee,2,,,,,,backpack,,,,,,,,,,,2,1,0,43,43,11,1,,,,,,,,,,,,,,,,,,,,,,,,,,,,,,,,,,,,,,,,,,,,,,,,,,,,,,,,,,,,,,,,,,,,,,,,,,,,,,,,,,,,,,,,,,,,,,,,,,,,,,,,
,,?,0.003,0,,,,,,stimuli/images/PICTURE_208.png,SYSTEM,5ddd5bb741fb3fcc3bd3b76d,15/05/1945,2020-09-10_13h53.23.762,proactive3.1,2020.1.2,Win32,60,5f599a131af4471f3d752b7b,5f5a219a7e4af2069f80e0ee,2,,,,,,microphone,,,,,,,,,,,4,1,0,44,44,32,1,,,,,,,,,,,,,,,,,,,,,,,,,,,,,,,,,,,,,,,,,,,,,,,,,,,,,,,,,,,,,,,,,,,,,,,,,,,,,,,,,,,,,,,,,,,,,,,,,,,,,,,,
,,?,0.003,0,,,,,,stimuli/images/PICTURE_403.png,WRITER,5ddd5bb741fb3fcc3bd3b76d,15/05/1945,2020-09-10_13h53.23.762,proactive3.1,2020.1.2,Win32,60,5f599a131af4471f3d752b7b,5f5a219a7e4af2069f80e0ee,2,,,,,,cathedral,,,,,,,,,,,4,1,0,45,45,31,1,,,,,,,,,,,,,,,,,,,,,,,,,,,,,,,,,,,,,,,,,,,,,,,,,,,,,,,,,,,,,,,,,,,,,,,,,,,,,,,,,,,,,,,,,,,,,,,,,,,,,,,,
,,?,0.003,0,,,,,,stimuli/images/PICTURE_33.png,FRIEND,5ddd5bb741fb3fcc3bd3b76d,15/05/1945,2020-09-10_13h53.23.762,proactive3.1,2020.1.2,Win32,60,5f599a131af4471f3d752b7b,5f5a219a7e4af2069f80e0ee,2,,,,,,frame,,,,,,,,,,,1,1,0,46,46,8,1,,,,,,,,,,,,,,,,,,,,,,,,,,,,,,,,,,,,,,,,,,,,,,,,,,,,,,,,,,,,,,,,,,,,,,,,,,,,,,,,,,,,,,,,,,,,,,,,,,,,,,,,
,,?,0.002,0,,,,,,stimuli/images/PICTURE_177.png,WRITER,5ddd5bb741fb3fcc3bd3b76d,15/05/1945,2020-09-10_13h53.23.762,proactive3.1,2020.1.2,Win32,60,5f599a131af4471f3d752b7b,5f5a219a7e4af2069f80e0ee,2,,,,,,mushroom,,,,,,,,,,,5,1,0,47,47,41,1,,,,,,,,,,,,,,,,,,,,,,,,,,,,,,,,,,,,,,,,,,,,,,,,,,,,,,,,,,,,,,,,,,,,,,,,,,,,,,,,,,,,,,,,,,,,,,,,,,,,,,,,
,,?,0.003,0,,,,,,stimuli/images/PICTURE_383.png,WRITER,5ddd5bb741fb3fcc3bd3b76d,15/05/1945,2020-09-10_13h53.23.762,proactive3.1,2020.1.2,Win32,60,5f599a131af4471f3d752b7b,5f5a219a7e4af2069f80e0ee,2,,,,,,coin,,,,,,,,,,,3,1,0,48,48,28,1,,,,,,,,,,,,,,,,,,,,,,,,,,,,,,,,,,,,,,,,,,,,,,,,,,,,,,,,,,,,,,,,,,,,,,,,,,,,,,,,,,,,,,,,,,,,,,,,,,,,,,,,
,,?,0.006,0,,,,,,stimuli/images/PICTURE_68.png,MILE,5ddd5bb741fb3fcc3bd3b76d,15/05/1945,2020-09-10_13h53.23.762,proactive3.1,2020.1.2,Win32,60,5f599a131af4471f3d752b7b,5f5a219a7e4af2069f80e0ee,2,,,,,,candle,,,,,,,,,,,6,1,0,49,49,51,1,,,,,,,,,,,,,,,,,,,,,,,,,,,,,,,,,,,,,,,,,,,,,,,,,,,,,,,,,,,,,,,,,,,,,,,,,,,,,,,,,,,,,,,,,,,,,,,,,,,,,,,,
,,?,2.981,0,,,,,,stimuli/images/PICTURE_449.png,DUDE,5ddd5bb741fb3fcc3bd3b76d,15/05/1945,2020-09-10_13h53.23.762,proactive3.1,2020.1.2,Win32,60,5f599a131af4471f3d752b7b,5f5a219a7e4af2069f80e0ee,2,,,,,,bench,,,,,,,,,,,2,1,0,50,50,17,1,,,,,,,,,,,,,,,,,,,,,,,,,,,,,,,,,,,,,,,,,,,,,,,,,,,,,,,,,,,,,,,,,,,,,,,,,,,,,,,,,,,,,,,,,,,,,,,,,,,,,,,,
,,?,0.006,0,,,,,,stimuli/images/PICTURE_708.png,RECORD,5ddd5bb741fb3fcc3bd3b76d,15/05/1945,2020-09-10_13h53.23.762,proactive3.1,2020.1.2,Win32,60,5f599a131af4471f3d752b7b,5f5a219a7e4af2069f80e0ee,2,,,,,,monkey,,,,,,,,,,,6,1,0,51,51,58,1,,,,,,,,,,,,,,,,,,,,,,,,,,,,,,,,,,,,,,,,,,,,,,,,,,,,,,,,,,,,,,,,,,,,,,,,,,,,,,,,,,,,,,,,,,,,,,,,,,,,,,,,
,,?,0.006,0,,,,,,stimuli/images/PICTURE_32.png,KIND,5ddd5bb741fb3fcc3bd3b76d,15/05/1945,2020-09-10_13h53.23.762,proactive3.1,2020.1.2,Win32,60,5f599a131af4471f3d752b7b,5f5a219a7e4af2069f80e0ee,2,,,,,,crown,,,,,,,,,,,4,1,0,52,52,35,1,,,,,,,,,,,,,,,,,,,,,,,,,,,,,,,,,,,,,,,,,,,,,,,,,,,,,,,,,,,,,,,,,,,,,,,,,,,,,,,,,,,,,,,,,,,,,,,,,,,,,,,,
,,?,0.003,0,,,,,,stimuli/images/PICTURE_744.png,WEAPON,5ddd5bb741fb3fcc3bd3b76d,15/05/1945,2020-09-10_13h53.23.762,proactive3.1,2020.1.2,Win32,60,5f599a131af4471f3d752b7b,5f5a219a7e4af2069f80e0ee,2,,,,,,ring,,,,,,,,,,,6,1,0,53,53,50,1,,,,,,,,,,,,,,,,,,,,,,,,,,,,,,,,,,,,,,,,,,,,,,,,,,,,,,,,,,,,,,,,,,,,,,,,,,,,,,,,,,,,,,,,,,,,,,,,,,,,,,,,
,,?,0.015,0,,,,,,stimuli/images/PICTURE_654.png,MONTH,5ddd5bb741fb3fcc3bd3b76d,15/05/1945,2020-09-10_13h53.23.762,proactive3.1,2020.1.2,Win32,60,5f599a131af4471f3d752b7b,5f5a219a7e4af2069f80e0ee,2,,,,,,pencil,,,,,,,,,,,3,1,0,54,54,29,1,,,,,,,,,,,,,,,,,,,,,,,,,,,,,,,,,,,,,,,,,,,,,,,,,,,,,,,,,,,,,,,,,,,,,,,,,,,,,,,,,,,,,,,,,,,,,,,,,,,,,,,,
,,?,0.002,0,,,,,,stimuli/images/PICTURE_403.png,TOILET,5ddd5bb741fb3fcc3bd3b76d,15/05/1945,2020-09-10_13h53.23.762,proactive3.1,2020.1.2,Win32,60,5f599a131af4471f3d752b7b,5f5a219a7e4af2069f80e0ee,2,,,,,,cathedral,,,,,,,,,,,3,1,0,55,55,25,1,,,,,,,,,,,,,,,,,,,,,,,,,,,,,,,,,,,,,,,,,,,,,,,,,,,,,,,,,,,,,,,,,,,,,,,,,,,,,,,,,,,,,,,,,,,,,,,,,,,,,,,,
,,PILLS,4.359,1,,,,,,stimuli/images/PICTURE_32.png,PILLS,5ddd5bb741fb3fcc3bd3b76d,15/05/1945,2020-09-10_13h53.23.762,proactive3.1,2020.1.2,Win32,60,5f599a131af4471f3d752b7b,5f5a219a7e4af2069f80e0ee,2,,,,,,crown,,,,,,,,,,,2,1,0,56,56,18,1,,,,,,,,,,,,,,,,,,,,,,,,,,,,,,,,,,,,,,,,,,,,,,,,,,,,,,,,,,,,,,,,,,,,,,,,,,,,,,,,,,,,,,,,,,,,,,,,,,,,,,,,
,,?,0.005,0,,,,,,stimuli/images/PICTURE_380.png,CANDY,5ddd5bb741fb3fcc3bd3b76d,15/05/1945,2020-09-10_13h53.23.762,proactive3.1,2020.1.2,Win32,60,5f599a131af4471f3d752b7b,5f5a219a7e4af2069f80e0ee,2,,,,,,gorilla,,,,,,,,,,,1,1,0,57,57,0,1,,,,,,,,,,,,,,,,,,,,,,,,,,,,,,,,,,,,,,,,,,,,,,,,,,,,,,,,,,,,,,,,,,,,,,,,,,,,,,,,,,,,,,,,,,,,,,,,,,,,,,,,
,,?,0.004,0,,,,,,stimuli/images/PICTURE_405.png,YEAR,5ddd5bb741fb3fcc3bd3b76d,15/05/1945,2020-09-10_13h53.23.762,proactive3.1,2020.1.2,Win32,60,5f599a131af4471f3d752b7b,5f5a219a7e4af2069f80e0ee,2,,,,,,anchor,,,,,,,,,,,4,1,0,58,58,34,1,,,,,,,,,,,,,,,,,,,,,,,,,,,,,,,,,,,,,,,,,,,,,,,,,,,,,,,,,,,,,,,,,,,,,,,,,,,,,,,,,,,,,,,,,,,,,,,,,,,,,,,,
,,?,0.004,0,,,,,,stimuli/images/PICTURE_203.png,GODS,5ddd5bb741fb3fcc3bd3b76d,15/05/1945,2020-09-10_13h53.23.762,proactive3.1,2020.1.2,Win32,60,5f599a131af4471f3d752b7b,5f5a219a7e4af2069f80e0ee,2,,,,,,cap,,,,,,,,,,,4,1,0,59,59,30,1,,,,,,,,,,,,,,,,,,,,,,,,,,,,,,,,,,,,,,,,,,,,,,,,,,,,,,,,,,,,,,,,,,,,,,,,,,,,,,,,,,,,,,,,,,,,,,,,,,,,,,,,
,,,,,,,,,,,,5ddd5bb741fb3fcc3bd3b76d,15/05/1945,2020-09-10_13h53.23.762,proactive3.1,2020.1.2,Win32,60,5f599a131af4471f3d752b7b,5f5a219a7e4af2069f80e0ee,2,,,,,,,,,,,,,,,,,,,,,,,,0,0,0,1,1,stimuli/learn-block2.csv,,,,,,,,,,,,,,,,,,,,,,,,,,,,,,,,,,,,,,,,,,,,,,,,,,,,,,,,,,,,,,,,,,,,,,,,,,,,,,,,,,,,,,,,,,,,,,,,,,
,,,,,,,,,,stimuli/images/PICTURE_308.png,ESTATE,5ddd5bb741fb3fcc3bd3b76d,15/05/1945,2020-09-10_13h53.23.762,proactive3.1,2020.1.2,Win32,60,5f599a131af4471f3d752b7b,5f5a219a7e4af2069f80e0ee,2,,,,,,dice,,,,,,0,0,0,46,1,5,0,,,,,,,,,,,,,,,,,,,,,,,,,,,,,,,,,,,,,,,,,,,,,,,,,,,,,,,,,,,,,,,,,,,,,,,,,,,,,,,,,,,,,,,,,,,,,,,,,,,,,,,,,,,,,
,,,,,,,,,,stimuli/images/PICTURE_488.png,STYLE,5ddd5bb741fb3fcc3bd3b76d,15/05/1945,2020-09-10_13h53.23.762,proactive3.1,2020.1.2,Win32,60,5f599a131af4471f3d752b7b,5f5a219a7e4af2069f80e0ee,2,,,,,,sun,,,,,,0,1,1,33,1,4,0,,,,,,,,,,,,,,,,,,,,,,,,,,,,,,,,,,,,,,,,,,,,,,,,,,,,,,,,,,,,,,,,,,,,,,,,,,,,,,,,,,,,,,,,,,,,,,,,,,,,,,,,,,,,,
,,,,,,,,,,stimuli/images/PICTURE_177.png,CARS,5ddd5bb741fb3fcc3bd3b76d,15/05/1945,2020-09-10_13h53.23.762,proactive3.1,2020.1.2,Win32,60,5f599a131af4471f3d752b7b,5f5a219a7e4af2069f80e0ee,2,,,,,,mushroom,,,,,,0,2,2,35,1,4,0,,,,,,,,,,,,,,,,,,,,,,,,,,,,,,,,,,,,,,,,,,,,,,,,,,,,,,,,,,,,,,,,,,,,,,,,,,,,,,,,,,,,,,,,,,,,,,,,,,,,,,,,,,,,,
,,,,,,,,,,stimuli/images/PICTURE_215.png,PLENTY,5ddd5bb741fb3fcc3bd3b76d,15/05/1945,2020-09-10_13h53.23.762,proactive3.1,2020.1.2,Win32,60,5f599a131af4471f3d752b7b,5f5a219a7e4af2069f80e0ee,2,,,,,,boot,,,,,,0,3,3,37,1,4,0,,,,,,,,,,,,,,,,,,,,,,,,,,,,,,,,,,,,,,,,,,,,,,,,,,,,,,,,,,,,,,,,,,,,,,,,,,,,,,,,,,,,,,,,,,,,,,,,,,,,,,,,,,,,,
,,,,,,,,,,stimuli/images/PICTURE_744.png,SAKE,5ddd5bb741fb3fcc3bd3b76d,15/05/1945,2020-09-10_13h53.23.762,proactive3.1,2020.1.2,Win32,60,5f599a131af4471f3d752b7b,5f5a219a7e4af2069f80e0ee,2,,,,,,ring,,,,,,0,4,4,17,1,2,0,,,,,,,,,,,,,,,,,,,,,,,,,,,,,,,,,,,,,,,,,,,,,,,,,,,,,,,,,,,,,,,,,,,,,,,,,,,,,,,,,,,,,,,,,,,,,,,,,,,,,,,,,,,,,
,,,,,,,,,,stimuli/images/PICTURE_708.png,YARD,5ddd5bb741fb3fcc3bd3b76d,15/05/1945,2020-09-10_13h53.23.762,proactive3.1,2020.1.2,Win32,60,5f599a131af4471f3d752b7b,5f5a219a7e4af2069f80e0ee,2,,,,,,monkey,,,,,,0,5,5,29,1,3,0,,,,,,,,,,,,,,,,,,,,,,,,,,,,,,,,,,,,,,,,,,,,,,,,,,,,,,,,,,,,,,,,,,,,,,,,,,,,,,,,,,,,,,,,,,,,,,,,,,,,,,,,,,,,,
,,,,,,,,,,stimuli/images/PICTURE_356.png,DANGER,5ddd5bb741fb3fcc3bd3b76d,15/05/1945,2020-09-10_13h53.23.762,proactive3.1,2020.1.2,Win32,60,5f599a131af4471f3d752b7b,5f5a219a7e4af2069f80e0ee,2,,,,,,pawn,,,,,,0,6,6,55,1,6,0,,,,,,,,,,,,,,,,,,,,,,,,,,,,,,,,,,,,,,,,,,,,,,,,,,,,,,,,,,,,,,,,,,,,,,,,,,,,,,,,,,,,,,,,,,,,,,,,,,,,,,,,,,,,,
,,,,,,,,,,stimuli/images/PICTURE_453.png,PLENTY,5ddd5bb741fb3fcc3bd3b76d,15/05/1945,2020-09-10_13h53.23.762,proactive3.1,2020.1.2,Win32,60,5f599a131af4471f3d752b7b,5f5a219a7e4af2069f80e0ee,2,,,,,,scissors,,,,,,0,7,7,56,1,6,0,,,,,,,,,,,,,,,,,,,,,,,,,,,,,,,,,,,,,,,,,,,,,,,,,,,,,,,,,,,,,,,,,,,,,,,,,,,,,,,,,,,,,,,,,,,,,,,,,,,,,,,,,,,,,
,,,,,,,,,,stimuli/images/PICTURE_233.png,IDEAS,5ddd5bb741fb3fcc3bd3b76d,15/05/1945,2020-09-10_13h53.23.762,proactive3.1,2020.1.2,Win32,60,5f599a131af4471f3d752b7b,5f5a219a7e4af2069f80e0ee,2,,,,,,salt,,,,,,0,8,8,28,1,3,0,,,,,,,,,,,,,,,,,,,,,,,,,,,,,,,,,,,,,,,,,,,,,,,,,,,,,,,,,,,,,,,,,,,,,,,,,,,,,,,,,,,,,,,,,,,,,,,,,,,,,,,,,,,,,
,,,,,,,,,,stimuli/images/PICTURE_491.png,ROOF,5ddd5bb741fb3fcc3bd3b76d,15/05/1945,2020-09-10_13h53.23.762,proactive3.1,2020.1.2,Win32,60,5f599a131af4471f3d752b7b,5f5a219a7e4af2069f80e0ee,2,,,,,,rug,,,,,,0,9,9,24,1,3,0,,,,,,,,,,,,,,,,,,,,,,,,,,,,,,,,,,,,,,,,,,,,,,,,,,,,,,,,,,,,,,,,,,,,,,,,,,,,,,,,,,,,,,,,,,,,,,,,,,,,,,,,,,,,,
,,,,,,,,,,stimuli/images/PICTURE_203.png,ARTIST,5ddd5bb741fb3fcc3bd3b76d,15/05/1945,2020-09-10_13h53.23.762,proactive3.1,2020.1.2,Win32,60,5f599a131af4471f3d752b7b,5f5a219a7e4af2069f80e0ee,2,,,,,,cap,,,,,,0,10,10,26,1,3,0,,,,,,,,,,,,,,,,,,,,,,,,,,,,,,,,,,,,,,,,,,,,,,,,,,,,,,,,,,,,,,,,,,,,,,,,,,,,,,,,,,,,,,,,,,,,,,,,,,,,,,,,,,,,,
,,,,,,,,,,stimuli/images/PICTURE_123.png,ADVICE,5ddd5bb741fb3fcc3bd3b76d,15/05/1945,2020-09-10_13h53.23.762,proactive3.1,2020.1.2,Win32,60,5f599a131af4471f3d752b7b,5f5a219a7e4af2069f80e0ee,2,,,,,,dart,,,,,,0,11,11,40,1,5,0,,,,,,,,,,,,,,,,,,,,,,,,,,,,,,,,,,,,,,,,,,,,,,,,,,,,,,,,,,,,,,,,,,,,,,,,,,,,,,,,,,,,,,,,,,,,,,,,,,,,,,,,,,,,,
,,,,,,,,,,stimuli/images/PICTURE_95.png,STYLE,5ddd5bb741fb3fcc3bd3b76d,15/05/1945,2020-09-10_13h53.23.762,proactive3.1,2020.1.2,Win32,60,5f599a131af4471f3d752b7b,5f5a219a7e4af2069f80e0ee,2,,,,,,suitcase,,,,,,0,12,12,25,1,3,0,,,,,,,,,,,,,,,,,,,,,,,,,,,,,,,,,,,,,,,,,,,,,,,,,,,,,,,,,,,,,,,,,,,,,,,,,,,,,,,,,,,,,,,,,,,,,,,,,,,,,,,,,,,,,
,,,,,,,,,,stimuli/images/PICTURE_32.png,JUNGLE,5ddd5bb741fb3fcc3bd3b76d,15/05/1945,2020-09-10_13h53.23.762,proactive3.1,2020.1.2,Win32,60,5f599a131af4471f3d752b7b,5f5a219a7e4af2069f80e0ee,2,,,,,,crown,,,,,,0,13,13,45,1,5,0,,,,,,,,,,,,,,,,,,,,,,,,,,,,,,,,,,,,,,,,,,,,,,,,,,,,,,,,,,,,,,,,,,,,,,,,,,,,,,,,,,,,,,,,,,,,,,,,,,,,,,,,,,,,,
,,,,,,,,,,stimuli/images/PICTURE_453.png,DUDE,5ddd5bb741fb3fcc3bd3b76d,15/05/1945,2020-09-10_13h53.23.762,proactive3.1,2020.1.2,Win32,60,5f599a131af4471f3d752b7b,5f5a219a7e4af2069f80e0ee,2,,,,,,scissors,,,,,,0,14,14,27,1,3,0,,,,,,,,,,,,,,,,,,,,,,,,,,,,,,,,,,,,,,,,,,,,,,,,,,,,,,,,,,,,,,,,,,,,,,,,,,,,,,,,,,,,,,,,,,,,,,,,,,,,,,,,,,,,,
,,,,,,,,,,stimuli/images/PICTURE_160.png,LEADER,5ddd5bb741fb3fcc3bd3b76d,15/05/1945,2020-09-10_13h53.23.762,proactive3.1,2020.1.2,Win32,60,5f599a131af4471f3d752b7b,5f5a219a7e4af2069f80e0ee,2,,,,,,wheelbarrow,,,,,,0,15,15,3,1,1,0,,,,,,,,,,,,,,,,,,,,,,,,,,,,,,,,,,,,,,,,,,,,,,,,,,,,,,,,,,,,,,,,,,,,,,,,,,,,,,,,,,,,,,,,,,,,,,,,,,,,,,,,,,,,,
,,,,,,,,,,stimuli/images/PICTURE_692.png,MONTH,5ddd5bb741fb3fcc3bd3b76d,15/05/1945,2020-09-10_13h53.23.762,proactive3.1,2020.1.2,Win32,60,5f599a131af4471f3d752b7b,5f5a219a7e4af2069f80e0ee,2,,,,,,cherry,,,,,,0,16,16,16,1,2,0,,,,,,,,,,,,,,,,,,,,,,,,,,,,,,,,,,,,,,,,,,,,,,,,,,,,,,,,,,,,,,,,,,,,,,,,,,,,,,,,,,,,,,,,,,,,,,,,,,,,,,,,,,,,,
,,,,,,,,,,stimuli/images/PICTURE_85.png,THING,5ddd5bb741fb3fcc3bd3b76d,15/05/1945,2020-09-10_13h53.23.762,proactive3.1,2020.1.2,Win32,60,5f599a131af4471f3d752b7b,5f5a219a7e4af2069f80e0ee,2,,,,,,diamond,,,,,,0,17,17,15,1,2,0,,,,,,,,,,,,,,,,,,,,,,,,,,,,,,,,,,,,,,,,,,,,,,,,,,,,,,,,,,,,,,,,,,,,,,,,,,,,,,,,,,,,,,,,,,,,,,,,,,,,,,,,,,,,,
,,,,,,,,,,stimuli/images/PICTURE_667.png,PLENTY,5ddd5bb741fb3fcc3bd3b76d,15/05/1945,2020-09-10_13h53.23.762,proactive3.1,2020.1.2,Win32,60,5f599a131af4471f3d752b7b,5f5a219a7e4af2069f80e0ee,2,,,,,,daisy,,,,,,0,18,18,41,1,5,0,,,,,,,,,,,,,,,,,,,,,,,,,,,,,,,,,,,,,,,,,,,,,,,,,,,,,,,,,,,,,,,,,,,,,,,,,,,,,,,,,,,,,,,,,,,,,,,,,,,,,,,,,,,,,
,,,,,,,,,,stimuli/images/PICTURE_314.png,GODS,5ddd5bb741fb3fcc3bd3b76d,15/05/1945,2020-09-10_13h53.23.762,proactive3.1,2020.1.2,Win32,60,5f599a131af4471f3d752b7b,5f5a219a7e4af2069f80e0ee,2,,,,,,perfume,,,,,,0,19,19,11,1,2,0,,,,,,,,,,,,,,,,,,,,,,,,,,,,,,,,,,,,,,,,,,,,,,,,,,,,,,,,,,,,,,,,,,,,,,,,,,,,,,,,,,,,,,,,,,,,,,,,,,,,,,,,,,,,,
,,,,,,,,,,stimuli/images/PICTURE_147.png,MOMENT,5ddd5bb741fb3fcc3bd3b76d,15/05/1945,2020-09-10_13h53.23.762,proactive3.1,2020.1.2,Win32,60,5f599a131af4471f3d752b7b,5f5a219a7e4af2069f80e0ee,2,,,,,,hanger,,,,,,0,20,20,51,1,6,0,,,,,,,,,,,,,,,,,,,,,,,,,,,,,,,,,,,,,,,,,,,,,,,,,,,,,,,,,,,,,,,,,,,,,,,,,,,,,,,,,,,,,,,,,,,,,,,,,,,,,,,,,,,,,
,,,,,,,,,,stimuli/images/PICTURE_160.png,FEET,5ddd5bb741fb3fcc3bd3b76d,15/05/1945,2020-09-10_13h53.23.762,proactive3.1,2020.1.2,Win32,60,5f599a131af4471f3d752b7b,5f5a219a7e4af2069f80e0ee,2,,,,,,wheelbarrow,,,,,,0,21,21,58,1,6,0,,,,,,,,,,,,,,,,,,,,,,,,,,,,,,,,,,,,,,,,,,,,,,,,,,,,,,,,,,,,,,,,,,,,,,,,,,,,,,,,,,,,,,,,,,,,,,,,,,,,,,,,,,,,,
,,,,,,,,,,stimuli/images/PICTURE_233.png,WOMEN,5ddd5bb741fb3fcc3bd3b76d,15/05/1945,2020-09-10_13h53.23.762,proactive3.1,2020.1.2,Win32,60,5f599a131af4471f3d752b7b,5f5a219a7e4af2069f80e0ee,2,,,,,,salt,,,,,,0,22,22,38,1,4,0,,,,,,,,,,,,,,,,,,,,,,,,,,,,,,,,,,,,,,,,,,,,,,,,,,,,,,,,,,,,,,,,,,,,,,,,,,,,,,,,,,,,,,,,,,,,,,,,,,,,,,,,,,,,,
,,,,,,,,,,stimuli/images/PICTURE_449.png,THING,5ddd5bb741fb3fcc3bd3b76d,15/05/1945,2020-09-10_13h53.23.762,proactive3.1,2020.1.2,Win32,60,5f599a131af4471f3d752b7b,5f5a219a7e4af2069f80e0ee,2,,,,,,bench,,,,,,0,23,23,59,1,6,0,,,,,,,,,,,,,,,,,,,,,,,,,,,,,,,,,,,,,,,,,,,,,,,,,,,,,,,,,,,,,,,,,,,,,,,,,,,,,,,,,,,,,,,,,,,,,,,,,,,,,,,,,,,,,
,,,,,,,,,,stimuli/images/PICTURE_208.png,LOTS,5ddd5bb741fb3fcc3bd3b76d,15/05/1945,2020-09-10_13h53.23.762,proactive3.1,2020.1.2,Win32,60,5f599a131af4471f3d752b7b,5f5a219a7e4af2069f80e0ee,2,,,,,,microphone,,,,,,0,24,24,10,1,2,0,,,,,,,,,,,,,,,,,,,,,,,,,,,,,,,,,,,,,,,,,,,,,,,,,,,,,,,,,,,,,,,,,,,,,,,,,,,,,,,,,,,,,,,,,,,,,,,,,,,,,,,,,,,,,
,,,,,,,,,,stimuli/images/PICTURE_208.png,THING,5ddd5bb741fb3fcc3bd3b76d,15/05/1945,2020-09-10_13h53.23.762,proactive3.1,2020.1.2,Win32,60,5f599a131af4471f3d752b7b,5f5a219a7e4af2069f80e0ee,2,,,,,,microphone,,,,,,0,25,25,47,1,5,0,,,,,,,,,,,,,,,,,,,,,,,,,,,,,,,,,,,,,,,,,,,,,,,,,,,,,,,,,,,,,,,,,,,,,,,,,,,,,,,,,,,,,,,,,,,,,,,,,,,,,,,,,,,,,
,,,,,,,,,,stimuli/images/PICTURE_151.png,GIRL,5ddd5bb741fb3fcc3bd3b76d,15/05/1945,2020-09-10_13h53.23.762,proactive3.1,2020.1.2,Win32,60,5f599a131af4471f3d752b7b,5f5a219a7e4af2069f80e0ee,2,,,,,,tray,,,,,,0,26,26,19,1,2,0,,,,,,,,,,,,,,,,,,,,,,,,,,,,,,,,,,,,,,,,,,,,,,,,,,,,,,,,,,,,,,,,,,,,,,,,,,,,,,,,,,,,,,,,,,,,,,,,,,,,,,,,,,,,,
,,,,,,,,,,stimuli/images/PICTURE_308.png,KIND,5ddd5bb741fb3fcc3bd3b76d,15/05/1945,2020-09-10_13h53.23.762,proactive3.1,2020.1.2,Win32,60,5f599a131af4471f3d752b7b,5f5a219a7e4af2069f80e0ee,2,,,,,,dice,,,,,,0,27,27,54,1,6,0,,,,,,,,,,,,,,,,,,,,,,,,,,,,,,,,,,,,,,,,,,,,,,,,,,,,,,,,,,,,,,,,,,,,,,,,,,,,,,,,,,,,,,,,,,,,,,,,,,,,,,,,,,,,,
,,,,,,,,,,stimuli/images/PICTURE_469.png,ARTIST,5ddd5bb741fb3fcc3bd3b76d,15/05/1945,2020-09-10_13h53.23.762,proactive3.1,2020.1.2,Win32,60,5f599a131af4471f3d752b7b,5f5a219a7e4af2069f80e0ee,2,,,,,,stool,,,,,,0,28,28,6,1,1,0,,,,,,,,,,,,,,,,,,,,,,,,,,,,,,,,,,,,,,,,,,,,,,,,,,,,,,,,,,,,,,,,,,,,,,,,,,,,,,,,,,,,,,,,,,,,,,,,,,,,,,,,,,,,,
,,,,,,,,,,stimuli/images/PICTURE_248.png,DOZEN,5ddd5bb741fb3fcc3bd3b76d,15/05/1945,2020-09-10_13h53.23.762,proactive3.1,2020.1.2,Win32,60,5f599a131af4471f3d752b7b,5f5a219a7e4af2069f80e0ee,2,,,,,,cart,,,,,,0,29,29,39,1,4,0,,,,,,,,,,,,,,,,,,,,,,,,,,,,,,,,,,,,,,,,,,,,,,,,,,,,,,,,,,,,,,,,,,,,,,,,,,,,,,,,,,,,,,,,,,,,,,,,,,,,,,,,,,,,,
,,,,,,,,,,stimuli/images/PICTURE_688.png,WOMEN,5ddd5bb741fb3fcc3bd3b76d,15/05/1945,2020-09-10_13h53.23.762,proactive3.1,2020.1.2,Win32,60,5f599a131af4471f3d752b7b,5f5a219a7e4af2069f80e0ee,2,,,,,,runner,,,,,,0,30,30,14,1,2,0,,,,,,,,,,,,,,,,,,,,,,,,,,,,,,,,,,,,,,,,,,,,,,,,,,,,,,,,,,,,,,,,,,,,,,,,,,,,,,,,,,,,,,,,,,,,,,,,,,,,,,,,,,,,,
,,,,,,,,,,stimuli/images/PICTURE_487.png,FLIGHT,5ddd5bb741fb3fcc3bd3b76d,15/05/1945,2020-09-10_13h53.23.762,proactive3.1,2020.1.2,Win32,60,5f599a131af4471f3d752b7b,5f5a219a7e4af2069f80e0ee,2,,,,,,basket,,,,,,0,31,31,9,1,1,0,,,,,,,,,,,,,,,,,,,,,,,,,,,,,,,,,,,,,,,,,,,,,,,,,,,,,,,,,,,,,,,,,,,,,,,,,,,,,,,,,,,,,,,,,,,,,,,,,,,,,,,,,,,,,
,,,,,,,,,,stimuli/images/PICTURE_339.png,PLENTY,5ddd5bb741fb3fcc3bd3b76d,15/05/1945,2020-09-10_13h53.23.762,proactive3.1,2020.1.2,Win32,60,5f599a131af4471f3d752b7b,5f5a219a7e4af2069f80e0ee,2,,,,,,backpack,,,,,,0,32,32,0,1,1,0,,,,,,,,,,,,,,,,,,,,,,,,,,,,,,,,,,,,,,,,,,,,,,,,,,,,,,,,,,,,,,,,,,,,,,,,,,,,,,,,,,,,,,,,,,,,,,,,,,,,,,,,,,,,,
,,,,,,,,,,stimuli/images/PICTURE_348.png,SPEECH,5ddd5bb741fb3fcc3bd3b76d,15/05/1945,2020-09-10_13h53.23.762,proactive3.1,2020.1.2,Win32,60,5f599a131af4471f3d752b7b,5f5a219a7e4af2069f80e0ee,2,,,,,,pepper,,,,,,0,33,33,20,1,3,0,,,,,,,,,,,,,,,,,,,,,,,,,,,,,,,,,,,,,,,,,,,,,,,,,,,,,,,,,,,,,,,,,,,,,,,,,,,,,,,,,,,,,,,,,,,,,,,,,,,,,,,,,,,,,
,,,,,,,,,,stimuli/images/PICTURE_491.png,WRITER,5ddd5bb741fb3fcc3bd3b76d,15/05/1945,2020-09-10_13h53.23.762,proactive3.1,2020.1.2,Win32,60,5f599a131af4471f3d752b7b,5f5a219a7e4af2069f80e0ee,2,,,,,,rug,,,,,,0,34,34,57,1,6,0,,,,,,,,,,,,,,,,,,,,,,,,,,,,,,,,,,,,,,,,,,,,,,,,,,,,,,,,,,,,,,,,,,,,,,,,,,,,,,,,,,,,,,,,,,,,,,,,,,,,,,,,,,,,,
,,,,,,,,,,stimuli/images/PICTURE_380.png,PHOTO,5ddd5bb741fb3fcc3bd3b76d,15/05/1945,2020-09-10_13h53.23.762,proactive3.1,2020.1.2,Win32,60,5f599a131af4471f3d752b7b,5f5a219a7e4af2069f80e0ee,2,,,,,,gorilla,,,,,,0,35,35,52,1,6,0,,,,,,,,,,,,,,,,,,,,,,,,,,,,,,,,,,,,,,,,,,,,,,,,,,,,,,,,,,,,,,,,,,,,,,,,,,,,,,,,,,,,,,,,,,,,,,,,,,,,,,,,,,,,,
,,,,,,,,,,stimuli/images/PICTURE_470.png,CASINO,5ddd5bb741fb3fcc3bd3b76d,15/05/1945,2020-09-10_13h53.23.762,proactive3.1,2020.1.2,Win32,60,5f599a131af4471f3d752b7b,5f5a219a7e4af2069f80e0ee,2,,,,,,motorbike,,,,,,0,36,36,36,1,4,0,,,,,,,,,,,,,,,,,,,,,,,,,,,,,,,,,,,,,,,,,,,,,,,,,,,,,,,,,,,,,,,,,,,,,,,,,,,,,,,,,,,,,,,,,,,,,,,,,,,,,,,,,,,,,
,,,,,,,,,,stimuli/images/PICTURE_311.png,FRIEND,5ddd5bb741fb3fcc3bd3b76d,15/05/1945,2020-09-10_13h53.23.762,proactive3.1,2020.1.2,Win32,60,5f599a131af4471f3d752b7b,5f5a219a7e4af2069f80e0ee,2,,,,,,razor,,,,,,0,37,37,34,1,4,0,,,,,,,,,,,,,,,,,,,,,,,,,,,,,,,,,,,,,,,,,,,,,,,,,,,,,,,,,,,,,,,,,,,,,,,,,,,,,,,,,,,,,,,,,,,,,,,,,,,,,,,,,,,,,
,,,,,,,,,,stimuli/images/PICTURE_68.png,MILE,5ddd5bb741fb3fcc3bd3b76d,15/05/1945,2020-09-10_13h53.23.762,proactive3.1,2020.1.2,Win32,60,5f599a131af4471f3d752b7b,5f5a219a7e4af2069f80e0ee,2,,,,,,candle,,,,,,0,38,38,44,1,5,0,,,,,,,,,,,,,,,,,,,,,,,,,,,,,,,,,,,,,,,,,,,,,,,,,,,,,,,,,,,,,,,,,,,,,,,,,,,,,,,,,,,,,,,,,,,,,,,,,,,,,,,,,,,,,
,,,,,,,,,,stimuli/images/PICTURE_654.png,VALLEY,5ddd5bb741fb3fcc3bd3b76d,15/05/1945,2020-09-10_13h53.23.762,proactive3.1,2020.1.2,Win32,60,5f599a131af4471f3d752b7b,5f5a219a7e4af2069f80e0ee,2,,,,,,pencil,,,,,,0,39,39,1,1,1,0,,,,,,,,,,,,,,,,,,,,,,,,,,,,,,,,,,,,,,,,,,,,,,,,,,,,,,,,,,,,,,,,,,,,,,,,,,,,,,,,,,,,,,,,,,,,,,,,,,,,,,,,,,,,,
,,,,,,,,,,stimuli/images/PICTURE_509.png,PHOTO,5ddd5bb741fb3fcc3bd3b76d,15/05/1945,2020-09-10_13h53.23.762,proactive3.1,2020.1.2,Win32,60,5f599a131af4471f3d752b7b,5f5a219a7e4af2069f80e0ee,2,,,,,,telephone,,,,,,0,40,40,21,1,3,0,,,,,,,,,,,,,,,,,,,,,,,,,,,,,,,,,,,,,,,,,,,,,,,,,,,,,,,,,,,,,,,,,,,,,,,,,,,,,,,,,,,,,,,,,,,,,,,,,,,,,,,,,,,,,
,,,,,,,,,,stimuli/images/PICTURE_285.png,ADVICE,5ddd5bb741fb3fcc3bd3b76d,15/05/1945,2020-09-10_13h53.23.762,proactive3.1,2020.1.2,Win32,60,5f599a131af4471f3d752b7b,5f5a219a7e4af2069f80e0ee,2,,,,,,carrot,,,,,,0,41,41,12,1,2,0,,,,,,,,,,,,,,,,,,,,,,,,,,,,,,,,,,,,,,,,,,,,,,,,,,,,,,,,,,,,,,,,,,,,,,,,,,,,,,,,,,,,,,,,,,,,,,,,,,,,,,,,,,,,,
,,,,,,,,,,stimuli/images/PICTURE_255.png,AREA,5ddd5bb741fb3fcc3bd3b76d,15/05/1945,2020-09-10_13h53.23.762,proactive3.1,2020.1.2,Win32,60,5f599a131af4471f3d752b7b,5f5a219a7e4af2069f80e0ee,2,,,,,,shovel,,,,,,0,42,42,22,1,3,0,,,,,,,,,,,,,,,,,,,,,,,,,,,,,,,,,,,,,,,,,,,,,,,,,,,,,,,,,,,,,,,,,,,,,,,,,,,,,,,,,,,,,,,,,,,,,,,,,,,,,,,,,,,,,
,,,,,,,,,,stimuli/images/PICTURE_469.png,LETTER,5ddd5bb741fb3fcc3bd3b76d,15/05/1945,2020-09-10_13h53.23.762,proactive3.1,2020.1.2,Win32,60,5f599a131af4471f3d752b7b,5f5a219a7e4af2069f80e0ee,2,,,,,,stool,,,,,,0,43,43,42,1,5,0,,,,,,,,,,,,,,,,,,,,,,,,,,,,,,,,,,,,,,,,,,,,,,,,,,,,,,,,,,,,,,,,,,,,,,,,,,,,,,,,,,,,,,,,,,,,,,,,,,,,,,,,,,,,,
,,,,,,,,,,stimuli/images/PICTURE_688.png,CASINO,5ddd5bb741fb3fcc3bd3b76d,15/05/1945,2020-09-10_13h53.23.762,proactive3.1,2020.1.2,Win32,60,5f599a131af4471f3d752b7b,5f5a219a7e4af2069f80e0ee,2,,,,,,runner,,,,,,0,44,44,2,1,1,0,,,,,,,,,,,,,,,,,,,,,,,,,,,,,,,,,,,,,,,,,,,,,,,,,,,,,,,,,,,,,,,,,,,,,,,,,,,,,,,,,,,,,,,,,,,,,,,,,,,,,,,,,,,,,
,,,,,,,,,,stimuli/images/PICTURE_467.png,DEMON,5ddd5bb741fb3fcc3bd3b76d,15/05/1945,2020-09-10_13h53.23.762,proactive3.1,2020.1.2,Win32,60,5f599a131af4471f3d752b7b,5f5a219a7e4af2069f80e0ee,2,,,,,,peg,,,,,,0,45,45,23,1,3,0,,,,,,,,,,,,,,,,,,,,,,,,,,,,,,,,,,,,,,,,,,,,,,,,,,,,,,,,,,,,,,,,,,,,,,,,,,,,,,,,,,,,,,,,,,,,,,,,,,,,,,,,,,,,,
,,,,,,,,,,stimuli/images/PICTURE_311.png,BEAUTY,5ddd5bb741fb3fcc3bd3b76d,15/05/1945,2020-09-10_13h53.23.762,proactive3.1,2020.1.2,Win32,60,5f599a131af4471f3d752b7b,5f5a219a7e4af2069f80e0ee,2,,,,,,razor,,,,,,0,46,46,13,1,2,0,,,,,,,,,,,,,,,,,,,,,,,,,,,,,,,,,,,,,,,,,,,,,,,,,,,,,,,,,,,,,,,,,,,,,,,,,,,,,,,,,,,,,,,,,,,,,,,,,,,,,,,,,,,,,
,,,,,,,,,,stimuli/images/PICTURE_327.png,BEAUTY,5ddd5bb741fb3fcc3bd3b76d,15/05/1945,2020-09-10_13h53.23.762,proactive3.1,2020.1.2,Win32,60,5f599a131af4471f3d752b7b,5f5a219a7e4af2069f80e0ee,2,,,,,,helmet,,,,,,0,47,47,48,1,5,0,,,,,,,,,,,,,,,,,,,,,,,,,,,,,,,,,,,,,,,,,,,,,,,,,,,,,,,,,,,,,,,,,,,,,,,,,,,,,,,,,,,,,,,,,,,,,,,,,,,,,,,,,,,,,
,,,,,,,,,,stimuli/images/PICTURE_744.png,SYSTEM,5ddd5bb741fb3fcc3bd3b76d,15/05/1945,2020-09-10_13h53.23.762,proactive3.1,2020.1.2,Win32,60,5f599a131af4471f3d752b7b,5f5a219a7e4af2069f80e0ee,2,,,,,,ring,,,,,,0,48,48,43,1,5,0,,,,,,,,,,,,,,,,,,,,,,,,,,,,,,,,,,,,,,,,,,,,,,,,,,,,,,,,,,,,,,,,,,,,,,,,,,,,,,,,,,,,,,,,,,,,,,,,,,,,,,,,,,,,,
,,,,,,,,,,stimuli/images/PICTURE_708.png,CLIENT,5ddd5bb741fb3fcc3bd3b76d,15/05/1945,2020-09-10_13h53.23.762,proactive3.1,2020.1.2,Win32,60,5f599a131af4471f3d752b7b,5f5a219a7e4af2069f80e0ee,2,,,,,,monkey,,,,,,0,49,49,5,1,1,0,,,,,,,,,,,,,,,,,,,,,,,,,,,,,,,,,,,,,,,,,,,,,,,,,,,,,,,,,,,,,,,,,,,,,,,,,,,,,,,,,,,,,,,,,,,,,,,,,,,,,,,,,,,,,
,,,,,,,,,,stimuli/images/PICTURE_708.png,PENNY,5ddd5bb741fb3fcc3bd3b76d,15/05/1945,2020-09-10_13h53.23.762,proactive3.1,2020.1.2,Win32,60,5f599a131af4471f3d752b7b,5f5a219a7e4af2069f80e0ee,2,,,,,,monkey,,,,,,0,50,50,31,1,4,0,,,,,,,,,,,,,,,,,,,,,,,,,,,,,,,,,,,,,,,,,,,,,,,,,,,,,,,,,,,,,,,,,,,,,,,,,,,,,,,,,,,,,,,,,,,,,,,,,,,,,,,,,,,,,
,,,,,,,,,,stimuli/images/PICTURE_677.png,MILE,5ddd5bb741fb3fcc3bd3b76d,15/05/1945,2020-09-10_13h53.23.762,proactive3.1,2020.1.2,Win32,60,5f599a131af4471f3d752b7b,5f5a219a7e4af2069f80e0ee,2,,,,,,map,,,,,,0,51,51,30,1,4,0,,,,,,,,,,,,,,,,,,,,,,,,,,,,,,,,,,,,,,,,,,,,,,,,,,,,,,,,,,,,,,,,,,,,,,,,,,,,,,,,,,,,,,,,,,,,,,,,,,,,,,,,,,,,,
,,,,,,,,,,stimuli/images/PICTURE_667.png,BATH,5ddd5bb741fb3fcc3bd3b76d,15/05/1945,2020-09-10_13h53.23.762,proactive3.1,2020.1.2,Win32,60,5f599a131af4471f3d752b7b,5f5a219a7e4af2069f80e0ee,2,,,,,,daisy,,,,,,0,52,52,4,1,1,0,,,,,,,,,,,,,,,,,,,,,,,,,,,,,,,,,,,,,,,,,,,,,,,,,,,,,,,,,,,,,,,,,,,,,,,,,,,,,,,,,,,,,,,,,,,,,,,,,,,,,,,,,,,,,
,,,,,,,,,,stimuli/images/PICTURE_302.png,FAMILY,5ddd5bb741fb3fcc3bd3b76d,15/05/1945,2020-09-10_13h53.23.762,proactive3.1,2020.1.2,Win32,60,5f599a131af4471f3d752b7b,5f5a219a7e4af2069f80e0ee,2,,,,,,taxi,,,,,,0,53,53,18,1,2,0,,,,,,,,,,,,,,,,,,,,,,,,,,,,,,,,,,,,,,,,,,,,,,,,,,,,,,,,,,,,,,,,,,,,,,,,,,,,,,,,,,,,,,,,,,,,,,,,,,,,,,,,,,,,,
,,,,,,,,,,stimuli/images/PICTURE_123.png,ADVICE,5ddd5bb741fb3fcc3bd3b76d,15/05/1945,2020-09-10_13h53.23.762,proactive3.1,2020.1.2,Win32,60,5f599a131af4471f3d752b7b,5f5a219a7e4af2069f80e0ee,2,,,,,,dart,,,,,,0,54,54,50,1,6,0,,,,,,,,,,,,,,,,,,,,,,,,,,,,,,,,,,,,,,,,,,,,,,,,,,,,,,,,,,,,,,,,,,,,,,,,,,,,,,,,,,,,,,,,,,,,,,,,,,,,,,,,,,,,,
,,,,,,,,,,stimuli/images/PICTURE_208.png,MONTH,5ddd5bb741fb3fcc3bd3b76d,15/05/1945,2020-09-10_13h53.23.762,proactive3.1,2020.1.2,Win32,60,5f599a131af4471f3d752b7b,5f5a219a7e4af2069f80e0ee,2,,,,,,microphone,,,,,,0,55,55,53,1,6,0,,,,,,,,,,,,,,,,,,,,,,,,,,,,,,,,,,,,,,,,,,,,,,,,,,,,,,,,,,,,,,,,,,,,,,,,,,,,,,,,,,,,,,,,,,,,,,,,,,,,,,,,,,,,,
,,,,,,,,,,stimuli/images/PICTURE_314.png,SAKE,5ddd5bb741fb3fcc3bd3b76d,15/05/1945,2020-09-10_13h53.23.762,proactive3.1,2020.1.2,Win32,60,5f599a131af4471f3d752b7b,5f5a219a7e4af2069f80e0ee,2,,,,,,perfume,,,,,,0,56,56,7,1,1,0,,,,,,,,,,,,,,,,,,,,,,,,,,,,,,,,,,,,,,,,,,,,,,,,,,,,,,,,,,,,,,,,,,,,,,,,,,,,,,,,,,,,,,,,,,,,,,,,,,,,,,,,,,,,,
,,,,,,,,,,stimuli/images/PICTURE_504.png,BODY,5ddd5bb741fb3fcc3bd3b76d,15/05/1945,2020-09-10_13h53.23.762,proactive3.1,2020.1.2,Win32,60,5f599a131af4471f3d752b7b,5f5a219a7e4af2069f80e0ee,2,,,,,,wheel,,,,,,0,57,57,8,1,1,0,,,,,,,,,,,,,,,,,,,,,,,,,,,,,,,,,,,,,,,,,,,,,,,,,,,,,,,,,,,,,,,,,,,,,,,,,,,,,,,,,,,,,,,,,,,,,,,,,,,,,,,,,,,,,
,,,,,,,,,,stimuli/images/PICTURE_380.png,DEATH,5ddd5bb741fb3fcc3bd3b76d,15/05/1945,2020-09-10_13h53.23.762,proactive3.1,2020.1.2,Win32,60,5f599a131af4471f3d752b7b,5f5a219a7e4af2069f80e0ee,2,,,,,,gorilla,,,,,,0,58,58,49,1,5,0,,,,,,,,,,,,,,,,,,,,,,,,,,,,,,,,,,,,,,,,,,,,,,,,,,,,,,,,,,,,,,,,,,,,,,,,,,,,,,,,,,,,,,,,,,,,,,,,,,,,,,,,,,,,,
,,?,0.003,0,,,,,,stimuli/images/PICTURE_147.png,MOMENT,5ddd5bb741fb3fcc3bd3b76d,15/05/1945,2020-09-10_13h53.23.762,proactive3.1,2020.1.2,Win32,60,5f599a131af4471f3d752b7b,5f5a219a7e4af2069f80e0ee,2,,,,,,hanger,,,,,,,,,,,6,0,0,0,0,51,1,,,,,,,,,,,,,,,,,,,,,,,,,,,,,,,,,,,,,,,,,,,,,,,,,,,,,,,,,,,,,,,,,,,,,,,,,,,,,,,,,,,,,,,,,,,,,,,,,,,,,,,,
,,?,0.002,0,,,,,,stimuli/images/PICTURE_32.png,JUNGLE,5ddd5bb741fb3fcc3bd3b76d,15/05/1945,2020-09-10_13h53.23.762,proactive3.1,2020.1.2,Win32,60,5f599a131af4471f3d752b7b,5f5a219a7e4af2069f80e0ee,2,,,,,,crown,,,,,,,,,,,5,0,0,1,1,45,1,,,,,,,,,,,,,,,,,,,,,,,,,,,,,,,,,,,,,,,,,,,,,,,,,,,,,,,,,,,,,,,,,,,,,,,,,,,,,,,,,,,,,,,,,,,,,,,,,,,,,,,,
,,?,4.678,0,,,,,,stimuli/images/PICTURE_692.png,MONTH,5ddd5bb741fb3fcc3bd3b76d,15/05/1945,2020-09-10_13h53.23.762,proactive3.1,2020.1.2,Win32,60,5f599a131af4471f3d752b7b,5f5a219a7e4af2069f80e0ee,2,,,,,,cherry,,,,,,,,,,,2,0,0,2,2,16,1,,,,,,,,,,,,,,,,,,,,,,,,,,,,,,,,,,,,,,,,,,,,,,,,,,,,,,,,,,,,,,,,,,,,,,,,,,,,,,,,,,,,,,,,,,,,,,,,,,,,,,,,
,,?,0.019,0,,,,,,stimuli/images/PICTURE_509.png,PHOTO,5ddd5bb741fb3fcc3bd3b76d,15/05/1945,2020-09-10_13h53.23.762,proactive3.1,2020.1.2,Win32,60,5f599a131af4471f3d752b7b,5f5a219a7e4af2069f80e0ee,2,,,,,,telephone,,,,,,,,,,,3,0,0,3,3,21,1,,,,,,,,,,,,,,,,,,,,,,,,,,,,,,,,,,,,,,,,,,,,,,,,,,,,,,,,,,,,,,,,,,,,,,,,,,,,,,,,,,,,,,,,,,,,,,,,,,,,,,,,
,,?,0.002,0,,,,,,stimuli/images/PICTURE_654.png,VALLEY,5ddd5bb741fb3fcc3bd3b76d,15/05/1945,2020-09-10_13h53.23.762,proactive3.1,2020.1.2,Win32,60,5f599a131af4471f3d752b7b,5f5a219a7e4af2069f80e0ee,2,,,,,,pencil,,,,,,,,,,,1,0,0,4,4,1,1,,,,,,,,,,,,,,,,,,,,,,,,,,,,,,,,,,,,,,,,,,,,,,,,,,,,,,,,,,,,,,,,,,,,,,,,,,,,,,,,,,,,,,,,,,,,,,,,,,,,,,,,
,,?,0.005,0,,,,,,stimuli/images/PICTURE_356.png,DANGER,5ddd5bb741fb3fcc3bd3b76d,15/05/1945,2020-09-10_13h53.23.762,proactive3.1,2020.1.2,Win32,60,5f599a131af4471f3d752b7b,5f5a219a7e4af2069f80e0ee,2,,,,,,pawn,,,,,,,,,,,6,0,0,5,5,55,1,,,,,,,,,,,,,,,,,,,,,,,,,,,,,,,,,,,,,,,,,,,,,,,,,,,,,,,,,,,,,,,,,,,,,,,,,,,,,,,,,,,,,,,,,,,,,,,,,,,,,,,,
,,?,0.005,0,,,,,,stimuli/images/PICTURE_233.png,WOMEN,5ddd5bb741fb3fcc3bd3b76d,15/05/1945,2020-09-10_13h53.23.762,proactive3.1,2020.1.2,Win32,60,5f599a131af4471f3d752b7b,5f5a219a7e4af2069f80e0ee,2,,,,,,salt,,,,,,,,,,,4,0,0,6,6,38,1,,,,,,,,,,,,,,,,,,,,,,,,,,,,,,,,,,,,,,,,,,,,,,,,,,,,,,,,,,,,,,,,,,,,,,,,,,,,,,,,,,,,,,,,,,,,,,,,,,,,,,,,
,,?,0.006,0,,,,,,stimuli/images/PICTURE_123.png,ADVICE,5ddd5bb741fb3fcc3bd3b76d,15/05/1945,2020-09-10_13h53.23.762,proactive3.1,2020.1.2,Win32,60,5f599a131af4471f3d752b7b,5f5a219a7e4af2069f80e0ee,2,,,,,,dart,,,,,,,,,,,6,0,0,7,7,50,1,,,,,,,,,,,,,,,,,,,,,,,,,,,,,,,,,,,,,,,,,,,,,,,,,,,,,,,,,,,,,,,,,,,,,,,,,,,,,,,,,,,,,,,,,,,,,,,,,,,,,,,,
,,?,0.003,0,,,,,,stimuli/images/PICTURE_487.png,FLIGHT,5ddd5bb741fb3fcc3bd3b76d,15/05/1945,2020-09-10_13h53.23.762,proactive3.1,2020.1.2,Win32,60,5f599a131af4471f3d752b7b,5f5a219a7e4af2069f80e0ee,2,,,,,,basket,,,,,,,,,,,1,0,0,8,8,9,1,,,,,,,,,,,,,,,,,,,,,,,,,,,,,,,,,,,,,,,,,,,,,,,,,,,,,,,,,,,,,,,,,,,,,,,,,,,,,,,,,,,,,,,,,,,,,,,,,,,,,,,,
,,?,0.003,0,,,,,,stimuli/images/PICTURE_314.png,SAKE,5ddd5bb741fb3fcc3bd3b76d,15/05/1945,2020-09-10_13h53.23.762,proactive3.1,2020.1.2,Win32,60,5f599a131af4471f3d752b7b,5f5a219a7e4af2069f80e0ee,2,,,,,,perfume,,,,,,,,,,,1,0,0,9,9,7,1,,,,,,,,,,,,,,,,,,,,,,,,,,,,,,,,,,,,,,,,,,,,,,,,,,,,,,,,,,,,,,,,,,,,,,,,,,,,,,,,,,,,,,,,,,,,,,,,,,,,,,,,
,,FAMILY,5.457,1,,,,,,stimuli/images/PICTURE_302.png,FAMILY,5ddd5bb741fb3fcc3bd3b76d,15/05/1945,2020-09-10_13h53.23.762,proactive3.1,2020.1.2,Win32,60,5f599a131af4471f3d752b7b,5f5a219a7e4af2069f80e0ee,2,,,,,,taxi,,,,,,,,,,,2,0,0,10,10,18,1,,,,,,,,,,,,,,,,,,,,,,,,,,,,,,,,,,,,,,,,,,,,,,,,,,,,,,,,,,,,,,,,,,,,,,,,,,,,,,,,,,,,,,,,,,,,,,,,,,,,,,,,
,,?,0.003,0,,,,,,stimuli/images/PICTURE_160.png,FEET,5ddd5bb741fb3fcc3bd3b76d,15/05/1945,2020-09-10_13h53.23.762,proactive3.1,2020.1.2,Win32,60,5f599a131af4471f3d752b7b,5f5a219a7e4af2069f80e0ee,2,,,,,,wheelbarrow,,,,,,,,,,,6,0,0,11,11,58,1,,,,,,,,,,,,,,,,,,,,,,,,,,,,,,,,,,,,,,,,,,,,,,,,,,,,,,,,,,,,,,,,,,,,,,,,,,,,,,,,,,,,,,,,,,,,,,,,,,,,,,,,
,,?,0.006,0,,,,,,stimuli/images/PICTURE_255.png,AREA,5ddd5bb741fb3fcc3bd3b76d,15/05/1945,2020-09-10_13h53.23.762,proactive3.1,2020.1.2,Win32,60,5f599a131af4471f3d752b7b,5f5a219a7e4af2069f80e0ee,2,,,,,,shovel,,,,,,,,,,,3,0,0,12,12,22,1,,,,,,,,,,,,,,,,,,,,,,,,,,,,,,,,,,,,,,,,,,,,,,,,,,,,,,,,,,,,,,,,,,,,,,,,,,,,,,,,,,,,,,,,,,,,,,,,,,,,,,,,
,,?,0.003,0,,,,,,stimuli/images/PICTURE_688.png,CASINO,5ddd5bb741fb3fcc3bd3b76d,15/05/1945,2020-09-10_13h53.23.762,proactive3.1,2020.1.2,Win32,60,5f599a131af4471f3d752b7b,5f5a219a7e4af2069f80e0ee,2,,,,,,runner,,,,,,,,,,,1,0,0,13,13,2,1,,,,,,,,,,,,,,,,,,,,,,,,,,,,,,,,,,,,,,,,,,,,,,,,,,,,,,,,,,,,,,,,,,,,,,,,,,,,,,,,,,,,,,,,,,,,,,,,,,,,,,,,
,,?,2.971,0,,,,,,stimuli/images/PICTURE_85.png,THING,5ddd5bb741fb3fcc3bd3b76d,15/05/1945,2020-09-10_13h53.23.762,proactive3.1,2020.1.2,Win32,60,5f599a131af4471f3d752b7b,5f5a219a7e4af2069f80e0ee,2,,,,,,diamond,,,,,,,,,,,2,0,0,14,14,15,1,,,,,,,,,,,,,,,,,,,,,,,,,,,,,,,,,,,,,,,,,,,,,,,,,,,,,,,,,,,,,,,,,,,,,,,,,,,,,,,,,,,,,,,,,,,,,,,,,,,,,,,,
,,?,0.005,0,,,,,,stimuli/images/PICTURE_467.png,DEMON,5ddd5bb741fb3fcc3bd3b76d,15/05/1945,2020-09-10_13h53.23.762,proactive3.1,2020.1.2,Win32,60,5f599a131af4471f3d752b7b,5f5a219a7e4af2069f80e0ee,2,,,,,,peg,,,,,,,,,,,3,0,0,15,15,23,1,,,,,,,,,,,,,,,,,,,,,,,,,,,,,,,,,,,,,,,,,,,,,,,,,,,,,,,,,,,,,,,,,,,,,,,,,,,,,,,,,,,,,,,,,,,,,,,,,,,,,,,,
,,?,0.007,0,,,,,,stimuli/images/PICTURE_491.png,ROOF,5ddd5bb741fb3fcc3bd3b76d,15/05/1945,2020-09-10_13h53.23.762,proactive3.1,2020.1.2,Win32,60,5f599a131af4471f3d752b7b,5f5a219a7e4af2069f80e0ee,2,,,,,,rug,,,,,,,,,,,3,0,0,16,16,24,1,,,,,,,,,,,,,,,,,,,,,,,,,,,,,,,,,,,,,,,,,,,,,,,,,,,,,,,,,,,,,,,,,,,,,,,,,,,,,,,,,,,,,,,,,,,,,,,,,,,,,,,,
,,?,4.45,0,,,,,,stimuli/images/PICTURE_314.png,GODS,5ddd5bb741fb3fcc3bd3b76d,15/05/1945,2020-09-10_13h53.23.762,proactive3.1,2020.1.2,Win32,60,5f599a131af4471f3d752b7b,5f5a219a7e4af2069f80e0ee,2,,,,,,perfume,,,,,,,,,,,2,0,0,17,17,11,1,,,,,,,,,,,,,,,,,,,,,,,,,,,,,,,,,,,,,,,,,,,,,,,,,,,,,,,,,,,,,,,,,,,,,,,,,,,,,,,,,,,,,,,,,,,,,,,,,,,,,,,,
,,?,0.006,0,,,,,,stimuli/images/PICTURE_248.png,DOZEN,5ddd5bb741fb3fcc3bd3b76d,15/05/1945,2020-09-10_13h53.23.762,proactive3.1,2020.1.2,Win32,60,5f599a131af4471f3d752b7b,5f5a219a7e4af2069f80e0ee,2,,,,,,cart,,,,,,,,,,,4,0,0,18,18,39,1,,,,,,,,,,,,,,,,,,,,,,,,,,,,,,,,,,,,,,,,,,,,,,,,,,,,,,,,,,,,,,,,,,,,,,,,,,,,,,,,,,,,,,,,,,,,,,,,,,,,,,,,
,,?,0.005,0,,,,,,stimuli/images/PICTURE_675.png,WEAPON,5ddd5bb741fb3fcc3bd3b76d,15/05/1945,2020-09-10_13h53.23.762,proactive3.1,2020.1.2,Win32,60,5f599a131af4471f3d752b7b,5f5a219a7e4af2069f80e0ee,2,,,,,,windmill,,,,,,,,,,,4,0,0,19,19,32,1,,,,,,,,,,,,,,,,,,,,,,,,,,,,,,,,,,,,,,,,,,,,,,,,,,,,,,,,,,,,,,,,,,,,,,,,,,,,,,,,,,,,,,,,,,,,,,,,,,,,,,,,
,,?,6.556,0,,,,,,stimuli/images/PICTURE_744.png,SAKE,5ddd5bb741fb3fcc3bd3b76d,15/05/1945,2020-09-10_13h53.23.762,proactive3.1,2020.1.2,Win32,60,5f599a131af4471f3d752b7b,5f5a219a7e4af2069f80e0ee,2,,,,,,ring,,,,,,,,,,,2,0,0,20,20,17,1,,,,,,,,,,,,,,,,,,,,,,,,,,,,,,,,,,,,,,,,,,,,,,,,,,,,,,,,,,,,,,,,,,,,,,,,,,,,,,,,,,,,,,,,,,,,,,,,,,,,,,,,
,,?,0.005,0,,,,,,stimuli/images/PICTURE_308.png,ESTATE,5ddd5bb741fb3fcc3bd3b76d,15/05/1945,2020-09-10_13h53.23.762,proactive3.1,2020.1.2,Win32,60,5f599a131af4471f3d752b7b,5f5a219a7e4af2069f80e0ee,2,,,,,,dice,,,,,,,,,,,5,0,0,21,21,46,1,,,,,,,,,,,,,,,,,,,,,,,,,,,,,,,,,,,,,,,,,,,,,,,,,,,,,,,,,,,,,,,,,,,,,,,,,,,,,,,,,,,,,,,,,,,,,,,,,,,,,,,,
,,WOMEN,3.823,1,,,,,,stimuli/images/PICTURE_688.png,WOMEN,5ddd5bb741fb3fcc3bd3b76d,15/05/1945,2020-09-10_13h53.23.762,proactive3.1,2020.1.2,Win32,60,5f599a131af4471f3d752b7b,5f5a219a7e4af2069f80e0ee,2,,,,,,runner,,,,,,,,,,,2,0,0,22,22,14,1,,,,,,,,,,,,,,,,,,,,,,,,,,,,,,,,,,,,,,,,,,,,,,,,,,,,,,,,,,,,,,,,,,,,,,,,,,,,,,,,,,,,,,,,,,,,,,,,,,,,,,,,
,,?,0.006,0,,,,,,stimuli/images/PICTURE_469.png,ARTIST,5ddd5bb741fb3fcc3bd3b76d,15/05/1945,2020-09-10_13h53.23.762,proactive3.1,2020.1.2,Win32,60,5f599a131af4471f3d752b7b,5f5a219a7e4af2069f80e0ee,2,,,,,,stool,,,,,,,,,,,1,0,0,23,23,6,1,,,,,,,,,,,,,,,,,,,,,,,,,,,,,,,,,,,,,,,,,,,,,,,,,,,,,,,,,,,,,,,,,,,,,,,,,,,,,,,,,,,,,,,,,,,,,,,,,,,,,,,,
,,?,0.004,0,,,,,,stimuli/images/PICTURE_160.png,LEADER,5ddd5bb741fb3fcc3bd3b76d,15/05/1945,2020-09-10_13h53.23.762,proactive3.1,2020.1.2,Win32,60,5f599a131af4471f3d752b7b,5f5a219a7e4af2069f80e0ee,2,,,,,,wheelbarrow,,,,,,,,,,,1,0,0,24,24,3,1,,,,,,,,,,,,,,,,,,,,,,,,,,,,,,,,,,,,,,,,,,,,,,,,,,,,,,,,,,,,,,,,,,,,,,,,,,,,,,,,,,,,,,,,,,,,,,,,,,,,,,,,
,,?,0.003,0,,,,,,stimuli/images/PICTURE_504.png,BODY,5ddd5bb741fb3fcc3bd3b76d,15/05/1945,2020-09-10_13h53.23.762,proactive3.1,2020.1.2,Win32,60,5f599a131af4471f3d752b7b,5f5a219a7e4af2069f80e0ee,2,,,,,,wheel,,,,,,,,,,,1,0,0,25,25,8,1,,,,,,,,,,,,,,,,,,,,,,,,,,,,,,,,,,,,,,,,,,,,,,,,,,,,,,,,,,,,,,,,,,,,,,,,,,,,,,,,,,,,,,,,,,,,,,,,,,,,,,,,
,,?,0.004,0,,,,,,stimuli/images/PICTURE_469.png,LETTER,5ddd5bb741fb3fcc3bd3b76d,15/05/1945,2020-09-10_13h53.23.762,proactive3.1,2020.1.2,Win32,60,5f599a131af4471f3d752b7b,5f5a219a7e4af2069f80e0ee,2,,,,,,stool,,,,,,,,,,,5,0,0,26,26,42,1,,,,,,,,,,,,,,,,,,,,,,,,,,,,,,,,,,,,,,,,,,,,,,,,,,,,,,,,,,,,,,,,,,,,,,,,,,,,,,,,,,,,,,,,,,,,,,,,,,,,,,,,
,,?,3.119,0,,,,,,stimuli/images/PICTURE_208.png,LOTS,5ddd5bb741fb3fcc3bd3b76d,15/05/1945,2020-09-10_13h53.23.762,proactive3.1,2020.1.2,Win32,60,5f599a131af4471f3d752b7b,5f5a219a7e4af2069f80e0ee,2,,,,,,microphone,,,,,,,,,,,2,0,0,27,27,10,1,,,,,,,,,,,,,,,,,,,,,,,,,,,,,,,,,,,,,,,,,,,,,,,,,,,,,,,,,,,,,,,,,,,,,,,,,,,,,,,,,,,,,,,,,,,,,,,,,,,,,,,,
,,?,0.003,0,,,,,,stimuli/images/PICTURE_68.png,MILE,5ddd5bb741fb3fcc3bd3b76d,15/05/1945,2020-09-10_13h53.23.762,proactive3.1,2020.1.2,Win32,60,5f599a131af4471f3d752b7b,5f5a219a7e4af2069f80e0ee,2,,,,,,candle,,,,,,,,,,,5,0,0,28,28,44,1,,,,,,,,,,,,,,,,,,,,,,,,,,,,,,,,,,,,,,,,,,,,,,,,,,,,,,,,,,,,,,,,,,,,,,,,,,,,,,,,,,,,,,,,,,,,,,,,,,,,,,,,
,,?,0.004,0,,,,,,stimuli/images/PICTURE_708.png,PENNY,5ddd5bb741fb3fcc3bd3b76d,15/05/1945,2020-09-10_13h53.23.762,proactive3.1,2020.1.2,Win32,60,5f599a131af4471f3d752b7b,5f5a219a7e4af2069f80e0ee,2,,,,,,monkey,,,,,,,,,,,4,0,0,29,29,31,1,,,,,,,,,,,,,,,,,,,,,,,,,,,,,,,,,,,,,,,,,,,,,,,,,,,,,,,,,,,,,,,,,,,,,,,,,,,,,,,,,,,,,,,,,,,,,,,,,,,,,,,,
,,ADVICE,4.176,1,,,,,,stimuli/images/PICTURE_285.png,ADVICE,5ddd5bb741fb3fcc3bd3b76d,15/05/1945,2020-09-10_13h53.23.762,proactive3.1,2020.1.2,Win32,60,5f599a131af4471f3d752b7b,5f5a219a7e4af2069f80e0ee,2,,,,,,carrot,,,,,,,,,,,2,0,0,30,30,12,1,,,,,,,,,,,,,,,,,,,,,,,,,,,,,,,,,,,,,,,,,,,,,,,,,,,,,,,,,,,,,,,,,,,,,,,,,,,,,,,,,,,,,,,,,,,,,,,,,,,,,,,,
,,?,0.004,0,,,,,,stimuli/images/PICTURE_177.png,CARS,5ddd5bb741fb3fcc3bd3b76d,15/05/1945,2020-09-10_13h53.23.762,proactive3.1,2020.1.2,Win32,60,5f599a131af4471f3d752b7b,5f5a219a7e4af2069f80e0ee,2,,,,,,mushroom,,,,,,,,,,,4,0,0,31,31,35,1,,,,,,,,,,,,,,,,,,,,,,,,,,,,,,,,,,,,,,,,,,,,,,,,,,,,,,,,,,,,,,,,,,,,,,,,,,,,,,,,,,,,,,,,,,,,,,,,,,,,,,,,
,,?,0.003,0,,,,,,stimuli/images/PICTURE_453.png,PLENTY,5ddd5bb741fb3fcc3bd3b76d,15/05/1945,2020-09-10_13h53.23.762,proactive3.1,2020.1.2,Win32,60,5f599a131af4471f3d752b7b,5f5a219a7e4af2069f80e0ee,2,,,,,,scissors,,,,,,,,,,,6,0,0,32,32,56,1,,,,,,,,,,,,,,,,,,,,,,,,,,,,,,,,,,,,,,,,,,,,,,,,,,,,,,,,,,,,,,,,,,,,,,,,,,,,,,,,,,,,,,,,,,,,,,,,,,,,,,,,
,,?,0.002,0,,,,,,stimuli/images/PICTURE_327.png,BEAUTY,5ddd5bb741fb3fcc3bd3b76d,15/05/1945,2020-09-10_13h53.23.762,proactive3.1,2020.1.2,Win32,60,5f599a131af4471f3d752b7b,5f5a219a7e4af2069f80e0ee,2,,,,,,helmet,,,,,,,,,,,5,0,0,33,33,48,1,,,,,,,,,,,,,,,,,,,,,,,,,,,,,,,,,,,,,,,,,,,,,,,,,,,,,,,,,,,,,,,,,,,,,,,,,,,,,,,,,,,,,,,,,,,,,,,,,,,,,,,,
,,?,0.002,0,,,,,,stimuli/images/PICTURE_123.png,ADVICE,5ddd5bb741fb3fcc3bd3b76d,15/05/1945,2020-09-10_13h53.23.762,proactive3.1,2020.1.2,Win32,60,5f599a131af4471f3d752b7b,5f5a219a7e4af2069f80e0ee,2,,,,,,dart,,,,,,,,,,,5,0,0,34,34,40,1,,,,,,,,,,,,,,,,,,,,,,,,,,,,,,,,,,,,,,,,,,,,,,,,,,,,,,,,,,,,,,,,,,,,,,,,,,,,,,,,,,,,,,,,,,,,,,,,,,,,,,,,
,,?,0.002,0,,,,,,stimuli/images/PICTURE_95.png,STYLE,5ddd5bb741fb3fcc3bd3b76d,15/05/1945,2020-09-10_13h53.23.762,proactive3.1,2020.1.2,Win32,60,5f599a131af4471f3d752b7b,5f5a219a7e4af2069f80e0ee,2,,,,,,suitcase,,,,,,,,,,,3,0,0,35,35,25,1,,,,,,,,,,,,,,,,,,,,,,,,,,,,,,,,,,,,,,,,,,,,,,,,,,,,,,,,,,,,,,,,,,,,,,,,,,,,,,,,,,,,,,,,,,,,,,,,,,,,,,,,
,,?,0.002,0,,,,,,stimuli/images/PICTURE_380.png,PHOTO,5ddd5bb741fb3fcc3bd3b76d,15/05/1945,2020-09-10_13h53.23.762,proactive3.1,2020.1.2,Win32,60,5f599a131af4471f3d752b7b,5f5a219a7e4af2069f80e0ee,2,,,,,,gorilla,,,,,,,,,,,6,0,0,36,36,52,1,,,,,,,,,,,,,,,,,,,,,,,,,,,,,,,,,,,,,,,,,,,,,,,,,,,,,,,,,,,,,,,,,,,,,,,,,,,,,,,,,,,,,,,,,,,,,,,,,,,,,,,,
,,GIRL,4.243,1,,,,,,stimuli/images/PICTURE_151.png,GIRL,5ddd5bb741fb3fcc3bd3b76d,15/05/1945,2020-09-10_13h53.23.762,proactive3.1,2020.1.2,Win32,60,5f599a131af4471f3d752b7b,5f5a219a7e4af2069f80e0ee,2,,,,,,tray,,,,,,,,,,,2,0,0,37,37,19,1,,,,,,,,,,,,,,,,,,,,,,,,,,,,,,,,,,,,,,,,,,,,,,,,,,,,,,,,,,,,,,,,,,,,,,,,,,,,,,,,,,,,,,,,,,,,,,,,,,,,,,,,
,,?,0.004,0,,,,,,stimuli/images/PICTURE_208.png,MONTH,5ddd5bb741fb3fcc3bd3b76d,15/05/1945,2020-09-10_13h53.23.762,proactive3.1,2020.1.2,Win32,60,5f599a131af4471f3d752b7b,5f5a219a7e4af2069f80e0ee,2,,,,,,microphone,,,,,,,,,,,6,0,0,38,38,53,1,,,,,,,,,,,,,,,,,,,,,,,,,,,,,,,,,,,,,,,,,,,,,,,,,,,,,,,,,,,,,,,,,,,,,,,,,,,,,,,,,,,,,,,,,,,,,,,,,,,,,,,,
,,?,0.004,0,,,,,,stimuli/images/PICTURE_208.png,THING,5ddd5bb741fb3fcc3bd3b76d,15/05/1945,2020-09-10_13h53.23.762,proactive3.1,2020.1.2,Win32,60,5f599a131af4471f3d752b7b,5f5a219a7e4af2069f80e0ee,2,,,,,,microphone,,,,,,,,,,,5,0,0,39,39,47,1,,,,,,,,,,,,,,,,,,,,,,,,,,,,,,,,,,,,,,,,,,,,,,,,,,,,,,,,,,,,,,,,,,,,,,,,,,,,,,,,,,,,,,,,,,,,,,,,,,,,,,,,
,,?,0.004,0,,,,,,stimuli/images/PICTURE_677.png,MILE,5ddd5bb741fb3fcc3bd3b76d,15/05/1945,2020-09-10_13h53.23.762,proactive3.1,2020.1.2,Win32,60,5f599a131af4471f3d752b7b,5f5a219a7e4af2069f80e0ee,2,,,,,,map,,,,,,,,,,,4,0,0,40,40,30,1,,,,,,,,,,,,,,,,,,,,,,,,,,,,,,,,,,,,,,,,,,,,,,,,,,,,,,,,,,,,,,,,,,,,,,,,,,,,,,,,,,,,,,,,,,,,,,,,,,,,,,,,
,,?,0.002,0,,,,,,stimuli/images/PICTURE_339.png,PLENTY,5ddd5bb741fb3fcc3bd3b76d,15/05/1945,2020-09-10_13h53.23.762,proactive3.1,2020.1.2,Win32,60,5f599a131af4471f3d752b7b,5f5a219a7e4af2069f80e0ee,2,,,,,,backpack,,,,,,,,,,,1,0,0,41,41,0,1,,,,,,,,,,,,,,,,,,,,,,,,,,,,,,,,,,,,,,,,,,,,,,,,,,,,,,,,,,,,,,,,,,,,,,,,,,,,,,,,,,,,,,,,,,,,,,,,,,,,,,,,
,,?,0.002,0,,,,,,stimuli/images/PICTURE_311.png,FRIEND,5ddd5bb741fb3fcc3bd3b76d,15/05/1945,2020-09-10_13h53.23.762,proactive3.1,2020.1.2,Win32,60,5f599a131af4471f3d752b7b,5f5a219a7e4af2069f80e0ee,2,,,,,,razor,,,,,,,,,,,4,0,0,42,42,34,1,,,,,,,,,,,,,,,,,,,,,,,,,,,,,,,,,,,,,,,,,,,,,,,,,,,,,,,,,,,,,,,,,,,,,,,,,,,,,,,,,,,,,,,,,,,,,,,,,,,,,,,,
,,?,0.002,0,,,,,,stimuli/images/PICTURE_470.png,CASINO,5ddd5bb741fb3fcc3bd3b76d,15/05/1945,2020-09-10_13h53.23.762,proactive3.1,2020.1.2,Win32,60,5f599a131af4471f3d752b7b,5f5a219a7e4af2069f80e0ee,2,,,,,,motorbike,,,,,,,,,,,4,0,0,43,43,36,1,,,,,,,,,,,,,,,,,,,,,,,,,,,,,,,,,,,,,,,,,,,,,,,,,,,,,,,,,,,,,,,,,,,,,,,,,,,,,,,,,,,,,,,,,,,,,,,,,,,,,,,,
,,?,0.001,0,,,,,,stimuli/images/PICTURE_488.png,STYLE,5ddd5bb741fb3fcc3bd3b76d,15/05/1945,2020-09-10_13h53.23.762,proactive3.1,2020.1.2,Win32,60,5f599a131af4471f3d752b7b,5f5a219a7e4af2069f80e0ee,2,,,,,,sun,,,,,,,,,,,4,0,0,44,44,33,1,,,,,,,,,,,,,,,,,,,,,,,,,,,,,,,,,,,,,,,,,,,,,,,,,,,,,,,,,,,,,,,,,,,,,,,,,,,,,,,,,,,,,,,,,,,,,,,,,,,,,,,,
,,?,0.002,0,,,,,,stimuli/images/PICTURE_308.png,KIND,5ddd5bb741fb3fcc3bd3b76d,15/05/1945,2020-09-10_13h53.23.762,proactive3.1,2020.1.2,Win32,60,5f599a131af4471f3d752b7b,5f5a219a7e4af2069f80e0ee,2,,,,,,dice,,,,,,,,,,,6,0,0,45,45,54,1,,,,,,,,,,,,,,,,,,,,,,,,,,,,,,,,,,,,,,,,,,,,,,,,,,,,,,,,,,,,,,,,,,,,,,,,,,,,,,,,,,,,,,,,,,,,,,,,,,,,,,,,
,,?,0.001,0,,,,,,stimuli/images/PICTURE_215.png,PLENTY,5ddd5bb741fb3fcc3bd3b76d,15/05/1945,2020-09-10_13h53.23.762,proactive3.1,2020.1.2,Win32,60,5f599a131af4471f3d752b7b,5f5a219a7e4af2069f80e0ee,2,,,,,,boot,,,,,,,,,,,4,0,0,46,46,37,1,,,,,,,,,,,,,,,,,,,,,,,,,,,,,,,,,,,,,,,,,,,,,,,,,,,,,,,,,,,,,,,,,,,,,,,,,,,,,,,,,,,,,,,,,,,,,,,,,,,,,,,,
,,?,0.006,0,,,,,,stimuli/images/PICTURE_453.png,DUDE,5ddd5bb741fb3fcc3bd3b76d,15/05/1945,2020-09-10_13h53.23.762,proactive3.1,2020.1.2,Win32,60,5f599a131af4471f3d752b7b,5f5a219a7e4af2069f80e0ee,2,,,,,,scissors,,,,,,,,,,,3,0,0,47,47,27,1,,,,,,,,,,,,,,,,,,,,,,,,,,,,,,,,,,,,,,,,,,,,,,,,,,,,,,,,,,,,,,,,,,,,,,,,,,,,,,,,,,,,,,,,,,,,,,,,,,,,,,,,
,,?,0.002,0,,,,,,stimuli/images/PICTURE_744.png,SYSTEM,5ddd5bb741fb3fcc3bd3b76d,15/05/1945,2020-09-10_13h53.23.762,proactive3.1,2020.1.2,Win32,60,5f599a131af4471f3d752b7b,5f5a219a7e4af2069f80e0ee,2,,,,,,ring,,,,,,,,,,,5,0,0,48,48,43,1,,,,,,,,,,,,,,,,,,,,,,,,,,,,,,,,,,,,,,,,,,,,,,,,,,,,,,,,,,,,,,,,,,,,,,,,,,,,,,,,,,,,,,,,,,,,,,,,,,,,,,,,
,,?,0.004,0,,,,,,stimuli/images/PICTURE_708.png,CLIENT,5ddd5bb741fb3fcc3bd3b76d,15/05/1945,2020-09-10_13h53.23.762,proactive3.1,2020.1.2,Win32,60,5f599a131af4471f3d752b7b,5f5a219a7e4af2069f80e0ee,2,,,,,,monkey,,,,,,,,,,,1,0,0,49,49,5,1,,,,,,,,,,,,,,,,,,,,,,,,,,,,,,,,,,,,,,,,,,,,,,,,,,,,,,,,,,,,,,,,,,,,,,,,,,,,,,,,,,,,,,,,,,,,,,,,,,,,,,,,
,,?,0.002,0,,,,,,stimuli/images/PICTURE_708.png,YARD,5ddd5bb741fb3fcc3bd3b76d,15/05/1945,2020-09-10_13h53.23.762,proactive3.1,2020.1.2,Win32,60,5f599a131af4471f3d752b7b,5f5a219a7e4af2069f80e0ee,2,,,,,,monkey,,,,,,,,,,,3,0,0,50,50,29,1,,,,,,,,,,,,,,,,,,,,,,,,,,,,,,,,,,,,,,,,,,,,,,,,,,,,,,,,,,,,,,,,,,,,,,,,,,,,,,,,,,,,,,,,,,,,,,,,,,,,,,,,
,,?,0.002,0,,,,,,stimuli/images/PICTURE_380.png,DEATH,5ddd5bb741fb3fcc3bd3b76d,15/05/1945,2020-09-10_13h53.23.762,proactive3.1,2020.1.2,Win32,60,5f599a131af4471f3d752b7b,5f5a219a7e4af2069f80e0ee,2,,,,,,gorilla,,,,,,,,,,,5,0,0,51,51,49,1,,,,,,,,,,,,,,,,,,,,,,,,,,,,,,,,,,,,,,,,,,,,,,,,,,,,,,,,,,,,,,,,,,,,,,,,,,,,,,,,,,,,,,,,,,,,,,,,,,,,,,,,
,,?,0.002,0,,,,,,stimuli/images/PICTURE_449.png,THING,5ddd5bb741fb3fcc3bd3b76d,15/05/1945,2020-09-10_13h53.23.762,proactive3.1,2020.1.2,Win32,60,5f599a131af4471f3d752b7b,5f5a219a7e4af2069f80e0ee,2,,,,,,bench,,,,,,,,,,,6,0,0,52,52,59,1,,,,,,,,,,,,,,,,,,,,,,,,,,,,,,,,,,,,,,,,,,,,,,,,,,,,,,,,,,,,,,,,,,,,,,,,,,,,,,,,,,,,,,,,,,,,,,,,,,,,,,,,
,,?,0.001,0,,,,,,stimuli/images/PICTURE_667.png,PLENTY,5ddd5bb741fb3fcc3bd3b76d,15/05/1945,2020-09-10_13h53.23.762,proactive3.1,2020.1.2,Win32,60,5f599a131af4471f3d752b7b,5f5a219a7e4af2069f80e0ee,2,,,,,,daisy,,,,,,,,,,,5,0,0,53,53,41,1,,,,,,,,,,,,,,,,,,,,,,,,,,,,,,,,,,,,,,,,,,,,,,,,,,,,,,,,,,,,,,,,,,,,,,,,,,,,,,,,,,,,,,,,,,,,,,,,,,,,,,,,
,,?,0.002,0,,,,,,stimuli/images/PICTURE_348.png,SPEECH,5ddd5bb741fb3fcc3bd3b76d,15/05/1945,2020-09-10_13h53.23.762,proactive3.1,2020.1.2,Win32,60,5f599a131af4471f3d752b7b,5f5a219a7e4af2069f80e0ee,2,,,,,,pepper,,,,,,,,,,,3,0,0,54,54,20,1,,,,,,,,,,,,,,,,,,,,,,,,,,,,,,,,,,,,,,,,,,,,,,,,,,,,,,,,,,,,,,,,,,,,,,,,,,,,,,,,,,,,,,,,,,,,,,,,,,,,,,,,
,,?,0.001,0,,,,,,stimuli/images/PICTURE_203.png,ARTIST,5ddd5bb741fb3fcc3bd3b76d,15/05/1945,2020-09-10_13h53.23.762,proactive3.1,2020.1.2,Win32,60,5f599a131af4471f3d752b7b,5f5a219a7e4af2069f80e0ee,2,,,,,,cap,,,,,,,,,,,3,0,0,55,55,26,1,,,,,,,,,,,,,,,,,,,,,,,,,,,,,,,,,,,,,,,,,,,,,,,,,,,,,,,,,,,,,,,,,,,,,,,,,,,,,,,,,,,,,,,,,,,,,,,,,,,,,,,,
,,?,0.002,0,,,,,,stimuli/images/PICTURE_491.png,WRITER,5ddd5bb741fb3fcc3bd3b76d,15/05/1945,2020-09-10_13h53.23.762,proactive3.1,2020.1.2,Win32,60,5f599a131af4471f3d752b7b,5f5a219a7e4af2069f80e0ee,2,,,,,,rug,,,,,,,,,,,6,0,0,56,56,57,1,,,,,,,,,,,,,,,,,,,,,,,,,,,,,,,,,,,,,,,,,,,,,,,,,,,,,,,,,,,,,,,,,,,,,,,,,,,,,,,,,,,,,,,,,,,,,,,,,,,,,,,,
,,BEAUTY,3.852,1,,,,,,stimuli/images/PICTURE_311.png,BEAUTY,5ddd5bb741fb3fcc3bd3b76d,15/05/1945,2020-09-10_13h53.23.762,proactive3.1,2020.1.2,Win32,60,5f599a131af4471f3d752b7b,5f5a219a7e4af2069f80e0ee,2,,,,,,razor,,,,,,,,,,,2,0,0,57,57,13,1,,,,,,,,,,,,,,,,,,,,,,,,,,,,,,,,,,,,,,,,,,,,,,,,,,,,,,,,,,,,,,,,,,,,,,,,,,,,,,,,,,,,,,,,,,,,,,,,,,,,,,,,
,,?,0.006,0,,,,,,stimuli/images/PICTURE_233.png,IDEAS,5ddd5bb741fb3fcc3bd3b76d,15/05/1945,2020-09-10_13h53.23.762,proactive3.1,2020.1.2,Win32,60,5f599a131af4471f3d752b7b,5f5a219a7e4af2069f80e0ee,2,,,,,,salt,,,,,,,,,,,3,0,0,58,58,28,1,,,,,,,,,,,,,,,,,,,,,,,,,,,,,,,,,,,,,,,,,,,,,,,,,,,,,,,,,,,,,,,,,,,,,,,,,,,,,,,,,,,,,,,,,,,,,,,,,,,,,,,,
,,?,0.002,0,,,,,,stimuli/images/PICTURE_667.png,BATH,5ddd5bb741fb3fcc3bd3b76d,15/05/1945,2020-09-10_13h53.23.762,proactive3.1,2020.1.2,Win32,60,5f599a131af4471f3d752b7b,5f5a219a7e4af2069f80e0ee,2,,,,,,daisy,,,,,,,,,,,1,0,0,59,59,4,1,,,,,,,,,,,,,,,,,,,,,,,,,,,,,,,,,,,,,,,,,,,,,,,,,,,,,,,,,,,,,,,,,,,,,,,,,,,,,,,,,,,,,,,,,,,,,,,,,,,,,,,,
,,,,,,,,,,,,5ddd5bb741fb3fcc3bd3b76d,15/05/1945,2020-09-10_13h53.23.762,proactive3.1,2020.1.2,Win32,60,5f599a131af4471f3d752b7b,5f5a219a7e4af2069f80e0ee,2,,,,,,,,,,,,,,,,,,,,,,,,0,1,1,0,1,stimuli/learn-block1.csv,,,,,,,,,,,,,,,,,,,,,,,,,,,,,,,,,,,,,,,,,,,,,,,,,,,,,,,,,,,,,,,,,,,,,,,,,,,,,,,,,,,,,,,,,,,,,,,,,,
,,,,,,,,,,stimuli/images/PICTURE_453.png,FAMILY,5ddd5bb741fb3fcc3bd3b76d,15/05/1945,2020-09-10_13h53.23.762,proactive3.1,2020.1.2,Win32,60,5f599a131af4471f3d752b7b,5f5a219a7e4af2069f80e0ee,2,,,,,,scissors,,,,,,0,0,0,48,1,5,2,,,,,,,,,,,,,,,,,,,,,,,,,,,,,,,,,,,,,,,,,,,,,,,,,,,,,,,,,,,,,,,,,,,,,,,,,,,,,,,,,,,,,,,,,,,,,,,,,,,,,,,,,,,,,
,,,,,,,,,,stimuli/images/PICTURE_452.png,COPS,5ddd5bb741fb3fcc3bd3b76d,15/05/1945,2020-09-10_13h53.23.762,proactive3.1,2020.1.2,Win32,60,5f599a131af4471f3d752b7b,5f5a219a7e4af2069f80e0ee,2,,,,,,watch,,,,,,0,1,1,0,1,1,2,,,,,,,,,,,,,,,,,,,,,,,,,,,,,,,,,,,,,,,,,,,,,,,,,,,,,,,,,,,,,,,,,,,,,,,,,,,,,,,,,,,,,,,,,,,,,,,,,,,,,,,,,,,,,
,,,,,,,,,,stimuli/images/PICTURE_208.png,SPIRIT,5ddd5bb741fb3fcc3bd3b76d,15/05/1945,2020-09-10_13h53.23.762,proactive3.1,2020.1.2,Win32,60,5f599a131af4471f3d752b7b,5f5a219a7e4af2069f80e0ee,2,,,,,,microphone,,,,,,0,2,2,28,1,3,2,,,,,,,,,,,,,,,,,,,,,,,,,,,,,,,,,,,,,,,,,,,,,,,,,,,,,,,,,,,,,,,,,,,,,,,,,,,,,,,,,,,,,,,,,,,,,,,,,,,,,,,,,,,,,
,,,,,,,,,,stimuli/images/PICTURE_160.png,HOTEL,5ddd5bb741fb3fcc3bd3b76d,15/05/1945,2020-09-10_13h53.23.762,proactive3.1,2020.1.2,Win32,60,5f599a131af4471f3d752b7b,5f5a219a7e4af2069f80e0ee,2,,,,,,wheelbarrow,,,,,,0,3,3,16,1,2,2,,,,,,,,,,,,,,,,,,,,,,,,,,,,,,,,,,,,,,,,,,,,,,,,,,,,,,,,,,,,,,,,,,,,,,,,,,,,,,,,,,,,,,,,,,,,,,,,,,,,,,,,,,,,,
,,,,,,,,,,stimuli/images/PICTURE_677.png,PHOTO,5ddd5bb741fb3fcc3bd3b76d,15/05/1945,2020-09-10_13h53.23.762,proactive3.1,2020.1.2,Win32,60,5f599a131af4471f3d752b7b,5f5a219a7e4af2069f80e0ee,2,,,,,,map,,,,,,0,4,4,14,1,2,2,,,,,,,,,,,,,,,,,,,,,,,,,,,,,,,,,,,,,,,,,,,,,,,,,,,,,,,,,,,,,,,,,,,,,,,,,,,,,,,,,,,,,,,,,,,,,,,,,,,,,,,,,,,,,
,,,,,,,,,,stimuli/images/PICTURE_177.png,HOUSE,5ddd5bb741fb3fcc3bd3b76d,15/05/1945,2020-09-10_13h53.23.762,proactive3.1,2020.1.2,Win32,60,5f599a131af4471f3d752b7b,5f5a219a7e4af2069f80e0ee,2,,,,,,mushroom,,,,,,0,5,5,25,1,3,2,,,,,,,,,,,,,,,,,,,,,,,,,,,,,,,,,,,,,,,,,,,,,,,,,,,,,,,,,,,,,,,,,,,,,,,,,,,,,,,,,,,,,,,,,,,,,,,,,,,,,,,,,,,,,
,,,,,,,,,,stimuli/images/PICTURE_470.png,MOMENT,5ddd5bb741fb3fcc3bd3b76d,15/05/1945,2020-09-10_13h53.23.762,proactive3.1,2020.1.2,Win32,60,5f599a131af4471f3d752b7b,5f5a219a7e4af2069f80e0ee,2,,,,,,motorbike,,,,,,0,6,6,40,1,5,2,,,,,,,,,,,,,,,,,,,,,,,,,,,,,,,,,,,,,,,,,,,,,,,,,,,,,,,,,,,,,,,,,,,,,,,,,,,,,,,,,,,,,,,,,,,,,,,,,,,,,,,,,,,,,
,,,,,,,,,,stimuli/images/PICTURE_2.png,YARD,5ddd5bb741fb3fcc3bd3b76d,15/05/1945,2020-09-10_13h53.23.762,proactive3.1,2020.1.2,Win32,60,5f599a131af4471f3d752b7b,5f5a219a7e4af2069f80e0ee,2,,,,,,tyre,,,,,,0,7,7,55,1,6,2,,,,,,,,,,,,,,,,,,,,,,,,,,,,,,,,,,,,,,,,,,,,,,,,,,,,,,,,,,,,,,,,,,,,,,,,,,,,,,,,,,,,,,,,,,,,,,,,,,,,,,,,,,,,,
,,,,,,,,,,stimuli/images/PICTURE_123.png,SALE,5ddd5bb741fb3fcc3bd3b76d,15/05/1945,2020-09-10_13h53.23.762,proactive3.1,2020.1.2,Win32,60,5f599a131af4471f3d752b7b,5f5a219a7e4af2069f80e0ee,2,,,,,,dart,,,,,,0,8,8,8,1,1,2,,,,,,,,,,,,,,,,,,,,,,,,,,,,,,,,,,,,,,,,,,,,,,,,,,,,,,,,,,,,,,,,,,,,,,,,,,,,,,,,,,,,,,,,,,,,,,,,,,,,,,,,,,,,,
,,,,,,,,,,stimuli/images/PICTURE_504.png,HOUSE,5ddd5bb741fb3fcc3bd3b76d,15/05/1945,2020-09-10_13h53.23.762,proactive3.1,2020.1.2,Win32,60,5f599a131af4471f3d752b7b,5f5a219a7e4af2069f80e0ee,2,,,,,,wheel,,,,,,0,9,9,36,1,4,2,,,,,,,,,,,,,,,,,,,,,,,,,,,,,,,,,,,,,,,,,,,,,,,,,,,,,,,,,,,,,,,,,,,,,,,,,,,,,,,,,,,,,,,,,,,,,,,,,,,,,,,,,,,,,
,,,,,,,,,,stimuli/images/PICTURE_68.png,KIND,5ddd5bb741fb3fcc3bd3b76d,15/05/1945,2020-09-10_13h53.23.762,proactive3.1,2020.1.2,Win32,60,5f599a131af4471f3d752b7b,5f5a219a7e4af2069f80e0ee,2,,,,,,candle,,,,,,0,10,10,23,1,3,2,,,,,,,,,,,,,,,,,,,,,,,,,,,,,,,,,,,,,,,,,,,,,,,,,,,,,,,,,,,,,,,,,,,,,,,,,,,,,,,,,,,,,,,,,,,,,,,,,,,,,,,,,,,,,
,,,,,,,,,,stimuli/images/PICTURE_405.png,JUNGLE,5ddd5bb741fb3fcc3bd3b76d,15/05/1945,2020-09-10_13h53.23.762,proactive3.1,2020.1.2,Win32,60,5f599a131af4471f3d752b7b,5f5a219a7e4af2069f80e0ee,2,,,,,,anchor,,,,,,0,11,11,13,1,2,2,,,,,,,,,,,,,,,,,,,,,,,,,,,,,,,,,,,,,,,,,,,,,,,,,,,,,,,,,,,,,,,,,,,,,,,,,,,,,,,,,,,,,,,,,,,,,,,,,,,,,,,,,,,,,
,,,,,,,,,,stimuli/images/PICTURE_509.png,BATH,5ddd5bb741fb3fcc3bd3b76d,15/05/1945,2020-09-10_13h53.23.762,proactive3.1,2020.1.2,Win32,60,5f599a131af4471f3d752b7b,5f5a219a7e4af2069f80e0ee,2,,,,,,telephone,,,,,,0,12,12,15,1,2,2,,,,,,,,,,,,,,,,,,,,,,,,,,,,,,,,,,,,,,,,,,,,,,,,,,,,,,,,,,,,,,,,,,,,,,,,,,,,,,,,,,,,,,,,,,,,,,,,,,,,,,,,,,,,,
,,,,,,,,,,stimuli/images/PICTURE_327.png,LEADER,5ddd5bb741fb3fcc3bd3b76d,15/05/1945,2020-09-10_13h53.23.762,proactive3.1,2020.1.2,Win32,60,5f599a131af4471f3d752b7b,5f5a219a7e4af2069f80e0ee,2,,,,,,helmet,,,,,,0,13,13,17,1,2,2,,,,,,,,,,,,,,,,,,,,,,,,,,,,,,,,,,,,,,,,,,,,,,,,,,,,,,,,,,,,,,,,,,,,,,,,,,,,,,,,,,,,,,,,,,,,,,,,,,,,,,,,,,,,,
,,,,,,,,,,stimuli/images/PICTURE_296.png,CLOCK,5ddd5bb741fb3fcc3bd3b76d,15/05/1945,2020-09-10_13h53.23.762,proactive3.1,2020.1.2,Win32,60,5f599a131af4471f3d752b7b,5f5a219a7e4af2069f80e0ee,2,,,,,,bolt,,,,,,0,14,14,18,1,2,2,,,,,,,,,,,,,,,,,,,,,,,,,,,,,,,,,,,,,,,,,,,,,,,,,,,,,,,,,,,,,,,,,,,,,,,,,,,,,,,,,,,,,,,,,,,,,,,,,,,,,,,,,,,,,
,,,,,,,,,,stimuli/images/PICTURE_405.png,JUNGLE,5ddd5bb741fb3fcc3bd3b76d,15/05/1945,2020-09-10_13h53.23.762,proactive3.1,2020.1.2,Win32,60,5f599a131af4471f3d752b7b,5f5a219a7e4af2069f80e0ee,2,,,,,,anchor,,,,,,0,15,15,58,1,6,2,,,,,,,,,,,,,,,,,,,,,,,,,,,,,,,,,,,,,,,,,,,,,,,,,,,,,,,,,,,,,,,,,,,,,,,,,,,,,,,,,,,,,,,,,,,,,,,,,,,,,,,,,,,,,
,,,,,,,,,,stimuli/images/PICTURE_487.png,ROOF,5ddd5bb741fb3fcc3bd3b76d,15/05/1945,2020-09-10_13h53.23.762,proactive3.1,2020.1.2,Win32,60,5f599a131af4471f3d752b7b,5f5a219a7e4af2069f80e0ee,2,,,,,,basket,,,,,,0,16,16,50,1,6,2,,,,,,,,,,,,,,,,,,,,,,,,,,,,,,,,,,,,,,,,,,,,,,,,,,,,,,,,,,,,,,,,,,,,,,,,,,,,,,,,,,,,,,,,,,,,,,,,,,,,,,,,,,,,,
,,,,,,,,,,stimuli/images/PICTURE_654.png,YEAR,5ddd5bb741fb3fcc3bd3b76d,15/05/1945,2020-09-10_13h53.23.762,proactive3.1,2020.1.2,Win32,60,5f599a131af4471f3d752b7b,5f5a219a7e4af2069f80e0ee,2,,,,,,pencil,,,,,,0,17,17,41,1,5,2,,,,,,,,,,,,,,,,,,,,,,,,,,,,,,,,,,,,,,,,,,,,,,,,,,,,,,,,,,,,,,,,,,,,,,,,,,,,,,,,,,,,,,,,,,,,,,,,,,,,,,,,,,,,,
,,,,,,,,,,stimuli/images/PICTURE_141.png,CLIENT,5ddd5bb741fb3fcc3bd3b76d,15/05/1945,2020-09-10_13h53.23.762,proactive3.1,2020.1.2,Win32,60,5f599a131af4471f3d752b7b,5f5a219a7e4af2069f80e0ee,2,,,,,,sunflower,,,,,,0,18,18,30,1,4,2,,,,,,,,,,,,,,,,,,,,,,,,,,,,,,,,,,,,,,,,,,,,,,,,,,,,,,,,,,,,,,,,,,,,,,,,,,,,,,,,,,,,,,,,,,,,,,,,,,,,,,,,,,,,,
,,,,,,,,,,stimuli/images/PICTURE_356.png,CANDY,5ddd5bb741fb3fcc3bd3b76d,15/05/1945,2020-09-10_13h53.23.762,proactive3.1,2020.1.2,Win32,60,5f599a131af4471f3d752b7b,5f5a219a7e4af2069f80e0ee,2,,,,,,pawn,,,,,,0,19,19,46,1,5,2,,,,,,,,,,,,,,,,,,,,,,,,,,,,,,,,,,,,,,,,,,,,,,,,,,,,,,,,,,,,,,,,,,,,,,,,,,,,,,,,,,,,,,,,,,,,,,,,,,,,,,,,,,,,,
,,,,,,,,,,stimuli/images/PICTURE_470.png,BEAUTY,5ddd5bb741fb3fcc3bd3b76d,15/05/1945,2020-09-10_13h53.23.762,proactive3.1,2020.1.2,Win32,60,5f599a131af4471f3d752b7b,5f5a219a7e4af2069f80e0ee,2,,,,,,motorbike,,,,,,0,20,20,26,1,3,2,,,,,,,,,,,,,,,,,,,,,,,,,,,,,,,,,,,,,,,,,,,,,,,,,,,,,,,,,,,,,,,,,,,,,,,,,,,,,,,,,,,,,,,,,,,,,,,,,,,,,,,,,,,,,
,,,,,,,,,,stimuli/images/PICTURE_57.png,CANDY,5ddd5bb741fb3fcc3bd3b76d,15/05/1945,2020-09-10_13h53.23.762,proactive3.1,2020.1.2,Win32,60,5f599a131af4471f3d752b7b,5f5a219a7e4af2069f80e0ee,2,,,,,,stamp,,,,,,0,21,21,52,1,6,2,,,,,,,,,,,,,,,,,,,,,,,,,,,,,,,,,,,,,,,,,,,,,,,,,,,,,,,,,,,,,,,,,,,,,,,,,,,,,,,,,,,,,,,,,,,,,,,,,,,,,,,,,,,,,
,,,,,,,,,,stimuli/images/PICTURE_509.png,MILLER,5ddd5bb741fb3fcc3bd3b76d,15/05/1945,2020-09-10_13h53.23.762,proactive3.1,2020.1.2,Win32,60,5f599a131af4471f3d752b7b,5f5a219a7e4af2069f80e0ee,2,,,,,,telephone,,,,,,0,22,22,49,1,5,2,,,,,,,,,,,,,,,,,,,,,,,,,,,,,,,,,,,,,,,,,,,,,,,,,,,,,,,,,,,,,,,,,,,,,,,,,,,,,,,,,,,,,,,,,,,,,,,,,,,,,,,,,,,,,
,,,,,,,,,,stimuli/images/PICTURE_297.png,BODY,5ddd5bb741fb3fcc3bd3b76d,15/05/1945,2020-09-10_13h53.23.762,proactive3.1,2020.1.2,Win32,60,5f599a131af4471f3d752b7b,5f5a219a7e4af2069f80e0ee,2,,,,,,aeroplane,,,,,,0,23,23,51,1,6,2,,,,,,,,,,,,,,,,,,,,,,,,,,,,,,,,,,,,,,,,,,,,,,,,,,,,,,,,,,,,,,,,,,,,,,,,,,,,,,,,,,,,,,,,,,,,,,,,,,,,,,,,,,,,,
,,,,,,,,,,stimuli/images/PICTURE_2.png,JUNGLE,5ddd5bb741fb3fcc3bd3b76d,15/05/1945,2020-09-10_13h53.23.762,proactive3.1,2020.1.2,Win32,60,5f599a131af4471f3d752b7b,5f5a219a7e4af2069f80e0ee,2,,,,,,tyre,,,,,,0,24,24,1,1,1,2,,,,,,,,,,,,,,,,,,,,,,,,,,,,,,,,,,,,,,,,,,,,,,,,,,,,,,,,,,,,,,,,,,,,,,,,,,,,,,,,,,,,,,,,,,,,,,,,,,,,,,,,,,,,,
,,,,,,,,,,stimuli/images/PICTURE_348.png,TOILET,5ddd5bb741fb3fcc3bd3b76d,15/05/1945,2020-09-10_13h53.23.762,proactive3.1,2020.1.2,Win32,60,5f599a131af4471f3d752b7b,5f5a219a7e4af2069f80e0ee,2,,,,,,pepper,,,,,,0,25,25,4,1,1,2,,,,,,,,,,,,,,,,,,,,,,,,,,,,,,,,,,,,,,,,,,,,,,,,,,,,,,,,,,,,,,,,,,,,,,,,,,,,,,,,,,,,,,,,,,,,,,,,,,,,,,,,,,,,,
,,,,,,,,,,stimuli/images/PICTURE_509.png,SHOTS,5ddd5bb741fb3fcc3bd3b76d,15/05/1945,2020-09-10_13h53.23.762,proactive3.1,2020.1.2,Win32,60,5f599a131af4471f3d752b7b,5f5a219a7e4af2069f80e0ee,2,,,,,,telephone,,,,,,0,26,26,7,1,1,2,,,,,,,,,,,,,,,,,,,,,,,,,,,,,,,,,,,,,,,,,,,,,,,,,,,,,,,,,,,,,,,,,,,,,,,,,,,,,,,,,,,,,,,,,,,,,,,,,,,,,,,,,,,,,
,,,,,,,,,,stimuli/images/PICTURE_491.png,SERIES,5ddd5bb741fb3fcc3bd3b76d,15/05/1945,2020-09-10_13h53.23.762,proactive3.1,2020.1.2,Win32,60,5f599a131af4471f3d752b7b,5f5a219a7e4af2069f80e0ee,2,,,,,,rug,,,,,,0,27,27,39,1,4,2,,,,,,,,,,,,,,,,,,,,,,,,,,,,,,,,,,,,,,,,,,,,,,,,,,,,,,,,,,,,,,,,,,,,,,,,,,,,,,,,,,,,,,,,,,,,,,,,,,,,,,,,,,,,,
,,,,,,,,,,stimuli/images/PICTURE_33.png,COPS,5ddd5bb741fb3fcc3bd3b76d,15/05/1945,2020-09-10_13h53.23.762,proactive3.1,2020.1.2,Win32,60,5f599a131af4471f3d752b7b,5f5a219a7e4af2069f80e0ee,2,,,,,,frame,,,,,,0,28,28,29,1,3,2,,,,,,,,,,,,,,,,,,,,,,,,,,,,,,,,,,,,,,,,,,,,,,,,,,,,,,,,,,,,,,,,,,,,,,,,,,,,,,,,,,,,,,,,,,,,,,,,,,,,,,,,,,,,,
,,,,,,,,,,stimuli/images/PICTURE_93.png,GIRL,5ddd5bb741fb3fcc3bd3b76d,15/05/1945,2020-09-10_13h53.23.762,proactive3.1,2020.1.2,Win32,60,5f599a131af4471f3d752b7b,5f5a219a7e4af2069f80e0ee,2,,,,,,skateboard,,,,,,0,29,29,31,1,4,2,,,,,,,,,,,,,,,,,,,,,,,,,,,,,,,,,,,,,,,,,,,,,,,,,,,,,,,,,,,,,,,,,,,,,,,,,,,,,,,,,,,,,,,,,,,,,,,,,,,,,,,,,,,,,
,,,,,,,,,,stimuli/images/PICTURE_2.png,AREA,5ddd5bb741fb3fcc3bd3b76d,15/05/1945,2020-09-10_13h53.23.762,proactive3.1,2020.1.2,Win32,60,5f599a131af4471f3d752b7b,5f5a219a7e4af2069f80e0ee,2,,,,,,tyre,,,,,,0,30,30,32,1,4,2,,,,,,,,,,,,,,,,,,,,,,,,,,,,,,,,,,,,,,,,,,,,,,,,,,,,,,,,,,,,,,,,,,,,,,,,,,,,,,,,,,,,,,,,,,,,,,,,,,,,,,,,,,,,,
,,,,,,,,,,stimuli/images/PICTURE_688.png,CLOCK,5ddd5bb741fb3fcc3bd3b76d,15/05/1945,2020-09-10_13h53.23.762,proactive3.1,2020.1.2,Win32,60,5f599a131af4471f3d752b7b,5f5a219a7e4af2069f80e0ee,2,,,,,,runner,,,,,,0,31,31,42,1,5,2,,,,,,,,,,,,,,,,,,,,,,,,,,,,,,,,,,,,,,,,,,,,,,,,,,,,,,,,,,,,,,,,,,,,,,,,,,,,,,,,,,,,,,,,,,,,,,,,,,,,,,,,,,,,,
,,,,,,,,,,stimuli/images/PICTURE_667.png,GLASS,5ddd5bb741fb3fcc3bd3b76d,15/05/1945,2020-09-10_13h53.23.762,proactive3.1,2020.1.2,Win32,60,5f599a131af4471f3d752b7b,5f5a219a7e4af2069f80e0ee,2,,,,,,daisy,,,,,,0,32,32,27,1,3,2,,,,,,,,,,,,,,,,,,,,,,,,,,,,,,,,,,,,,,,,,,,,,,,,,,,,,,,,,,,,,,,,,,,,,,,,,,,,,,,,,,,,,,,,,,,,,,,,,,,,,,,,,,,,,
,,,,,,,,,,stimuli/images/PICTURE_677.png,FAMILY,5ddd5bb741fb3fcc3bd3b76d,15/05/1945,2020-09-10_13h53.23.762,proactive3.1,2020.1.2,Win32,60,5f599a131af4471f3d752b7b,5f5a219a7e4af2069f80e0ee,2,,,,,,map,,,,,,0,33,33,53,1,6,2,,,,,,,,,,,,,,,,,,,,,,,,,,,,,,,,,,,,,,,,,,,,,,,,,,,,,,,,,,,,,,,,,,,,,,,,,,,,,,,,,,,,,,,,,,,,,,,,,,,,,,,,,,,,,
,,,,,,,,,,stimuli/images/PICTURE_95.png,NIGHT,5ddd5bb741fb3fcc3bd3b76d,15/05/1945,2020-09-10_13h53.23.762,proactive3.1,2020.1.2,Win32,60,5f599a131af4471f3d752b7b,5f5a219a7e4af2069f80e0ee,2,,,,,,suitcase,,,,,,0,34,34,37,1,4,2,,,,,,,,,,,,,,,,,,,,,,,,,,,,,,,,,,,,,,,,,,,,,,,,,,,,,,,,,,,,,,,,,,,,,,,,,,,,,,,,,,,,,,,,,,,,,,,,,,,,,,,,,,,,,
,,,,,,,,,,stimuli/images/PICTURE_215.png,BOYS,5ddd5bb741fb3fcc3bd3b76d,15/05/1945,2020-09-10_13h53.23.762,proactive3.1,2020.1.2,Win32,60,5f599a131af4471f3d752b7b,5f5a219a7e4af2069f80e0ee,2,,,,,,boot,,,,,,0,35,35,24,1,3,2,,,,,,,,,,,,,,,,,,,,,,,,,,,,,,,,,,,,,,,,,,,,,,,,,,,,,,,,,,,,,,,,,,,,,,,,,,,,,,,,,,,,,,,,,,,,,,,,,,,,,,,,,,,,,
,,,,,,,,,,stimuli/images/PICTURE_255.png,PENNY,5ddd5bb741fb3fcc3bd3b76d,15/05/1945,2020-09-10_13h53.23.762,proactive3.1,2020.1.2,Win32,60,5f599a131af4471f3d752b7b,5f5a219a7e4af2069f80e0ee,2,,,,,,shovel,,,,,,0,36,36,19,1,2,2,,,,,,,,,,,,,,,,,,,,,,,,,,,,,,,,,,,,,,,,,,,,,,,,,,,,,,,,,,,,,,,,,,,,,,,,,,,,,,,,,,,,,,,,,,,,,,,,,,,,,,,,,,,,,
,,,,,,,,,,stimuli/images/PICTURE_692.png,DUDE,5ddd5bb741fb3fcc3bd3b76d,15/05/1945,2020-09-10_13h53.23.762,proactive3.1,2020.1.2,Win32,60,5f599a131af4471f3d752b7b,5f5a219a7e4af2069f80e0ee,2,,,,,,cherry,,,,,,0,37,37,47,1,5,2,,,,,,,,,,,,,,,,,,,,,,,,,,,,,,,,,,,,,,,,,,,,,,,,,,,,,,,,,,,,,,,,,,,,,,,,,,,,,,,,,,,,,,,,,,,,,,,,,,,,,,,,,,,,,
,,,,,,,,,,stimuli/images/PICTURE_405.png,HOUSE,5ddd5bb741fb3fcc3bd3b76d,15/05/1945,2020-09-10_13h53.23.762,proactive3.1,2020.1.2,Win32,60,5f599a131af4471f3d752b7b,5f5a219a7e4af2069f80e0ee,2,,,,,,anchor,,,,,,0,38,38,2,1,1,2,,,,,,,,,,,,,,,,,,,,,,,,,,,,,,,,,,,,,,,,,,,,,,,,,,,,,,,,,,,,,,,,,,,,,,,,,,,,,,,,,,,,,,,,,,,,,,,,,,,,,,,,,,,,,
,,,,,,,,,,stimuli/images/PICTURE_509.png,APPLE,5ddd5bb741fb3fcc3bd3b76d,15/05/1945,2020-09-10_13h53.23.762,proactive3.1,2020.1.2,Win32,60,5f599a131af4471f3d752b7b,5f5a219a7e4af2069f80e0ee,2,,,,,,telephone,,,,,,0,39,39,38,1,4,2,,,,,,,,,,,,,,,,,,,,,,,,,,,,,,,,,,,,,,,,,,,,,,,,,,,,,,,,,,,,,,,,,,,,,,,,,,,,,,,,,,,,,,,,,,,,,,,,,,,,,,,,,,,,,
