consent_key.keys,consent_key.rt,recalled,recalled_rt,recall_acc,example_recall.thisRepN,example_recall.thisTrialN,example_recall.thisN,example_recall.thisIndex,example_recall.ran,file,word,participant,please enter your date of birth (dd/mm/yyyy),date,expName,psychopyVersion,OS,frameRate,STUDY_ID,SESSION_ID,list,prac_learn_study_loop.thisRepN,prac_learn_study_loop.thisTrialN,prac_learn_study_loop.thisN,prac_learn_study_loop.thisIndex,prac_learn_study_loop.ran,image,prac_learn_test_loop.thisRepN,prac_learn_test_loop.thisTrialN,prac_learn_test_loop.thisN,prac_learn_test_loop.thisIndex,prac_learn_test_loop.ran,learn_study_loop.thisRepN,learn_study_loop.thisTrialN,learn_study_loop.thisN,learn_study_loop.thisIndex,learn_study_loop.ran,list_no,block_no,learn_test_loop.thisRepN,learn_test_loop.thisTrialN,learn_test_loop.thisN,learn_test_loop.thisIndex,learn_test_loop.ran,learn_blocks.thisRepN,learn_blocks.thisTrialN,learn_blocks.thisN,learn_blocks.thisIndex,learn_blocks.ran,block_csv,key_resp_13.keys,key_resp_13.rt,learn_blocks_loop.thisRepN,learn_blocks_loop.thisTrialN,learn_blocks_loop.thisN,learn_blocks_loop.thisIndex,learn_blocks_loop.ran,final_learn_test.thisRepN,final_learn_test.thisTrialN,final_learn_test.thisN,final_learn_test.thisIndex,final_learn_test.ran,s_im1,s_im2,s_im3,s_im4,s_im5,s_im6,s_im7,s_im8,s_im1pos,s_im2pos,s_im3pos,s_im4pos,s_im5pos,s_im6pos,s_im7pos,s_im8pos,s_tarright,search_resp.keys,search_loop.thisRepN,search_loop.thisTrialN,search_loop.thisN,search_loop.thisIndex,search_loop.ran,search_resp.rt,prac_wm_search_loop.thisRepN,prac_wm_search_loop.thisTrialN,prac_wm_search_loop.thisN,prac_wm_search_loop.thisIndex,prac_wm_search_loop.ran,prac_wm_test_loop.thisRepN,prac_wm_test_loop.thisTrialN,prac_wm_test_loop.thisN,prac_wm_test_loop.thisIndex,prac_wm_test_loop.ran,wm_recalled1,wm_recall_rt1,wm_probed1,wm_recall_acc1,wm_recalled2,wm_recall_rt2,wm_probed2,wm_recall_acc2,wm_recalled3,wm_recall_rt3,wm_probed3,wm_recall_acc3,wm_recalled4,wm_recall_rt4,wm_probed4,wm_recall_acc4,prac_wm_trial_loop.thisRepN,prac_wm_trial_loop.thisTrialN,prac_wm_trial_loop.thisN,prac_wm_trial_loop.thisIndex,prac_wm_trial_loop.ran,word1,image1,file1,item_type1,word2,image2,file2,item_type2,word4,image4,file4,item_type4,word3,image3,file3,item_type3,wm_search_loop.thisRepN,wm_search_loop.thisTrialN,wm_search_loop.thisN,wm_search_loop.thisIndex,wm_search_loop.ran,wm_test_loop.thisRepN,wm_test_loop.thisTrialN,wm_test_loop.thisN,wm_test_loop.thisIndex,wm_test_loop.ran,wm_trial_loop.thisRepN,wm_trial_loop.thisTrialN,wm_trial_loop.thisN,wm_trial_loop.thisIndex,wm_trial_loop.ran
y,32.22239,TOUGH,7.34749,1,0,0,0,0,1,stimuli/images/PICTURE_747.png,TOUGH,5e08b939f9e7501c6b40c650,24/11/1988,2020-09-02_12h29.23.174,proactive3.1,2020.1.2,Win32,60,5f47c29a48bd2a1e651a6eb7,5f4f816fa8de8e03e80a9632,4,,,,,,,,,,,,,,,,,,,,,,,,,,,,,,,,,,,,,,,,,,,,,,,,,,,,,,,,,,,,,,,,,,,,,,,,,,,,,,,,,,,,,,,,,,,,,,,,,,,,,,,,,,,,,,,,,,,,,,,,,,,,,,,
,,,,,,,,,,stimuli/images/PICTURE_658.png,DEVIL,5e08b939f9e7501c6b40c650,24/11/1988,2020-09-02_12h29.23.174,proactive3.1,2020.1.2,Win32,60,5f47c29a48bd2a1e651a6eb7,5f4f816fa8de8e03e80a9632,4,0,0,0,3,1,crow,,,,,,,,,,,,,,,,,,,,,,,,,,,,,,,,,,,,,,,,,,,,,,,,,,,,,,,,,,,,,,,,,,,,,,,,,,,,,,,,,,,,,,,,,,,,,,,,,,,,,,,,,,,,,,,,,,,,,,,,,
,,,,,,,,,,stimuli/images/PICTURE_727.png,CELL,5e08b939f9e7501c6b40c650,24/11/1988,2020-09-02_12h29.23.174,proactive3.1,2020.1.2,Win32,60,5f47c29a48bd2a1e651a6eb7,5f4f816fa8de8e03e80a9632,4,0,1,1,1,1,hose,,,,,,,,,,,,,,,,,,,,,,,,,,,,,,,,,,,,,,,,,,,,,,,,,,,,,,,,,,,,,,,,,,,,,,,,,,,,,,,,,,,,,,,,,,,,,,,,,,,,,,,,,,,,,,,,,,,,,,,,,
,,,,,,,,,,stimuli/images/PICTURE_697.png,KILLER,5e08b939f9e7501c6b40c650,24/11/1988,2020-09-02_12h29.23.174,proactive3.1,2020.1.2,Win32,60,5f47c29a48bd2a1e651a6eb7,5f4f816fa8de8e03e80a9632,4,0,2,2,4,1,peach,,,,,,,,,,,,,,,,,,,,,,,,,,,,,,,,,,,,,,,,,,,,,,,,,,,,,,,,,,,,,,,,,,,,,,,,,,,,,,,,,,,,,,,,,,,,,,,,,,,,,,,,,,,,,,,,,,,,,,,,,
,,,,,,,,,,stimuli/images/PICTURE_378.png,LOSS,5e08b939f9e7501c6b40c650,24/11/1988,2020-09-02_12h29.23.174,proactive3.1,2020.1.2,Win32,60,5f47c29a48bd2a1e651a6eb7,5f4f816fa8de8e03e80a9632,4,0,3,3,2,1,lobster,,,,,,,,,,,,,,,,,,,,,,,,,,,,,,,,,,,,,,,,,,,,,,,,,,,,,,,,,,,,,,,,,,,,,,,,,,,,,,,,,,,,,,,,,,,,,,,,,,,,,,,,,,,,,,,,,,,,,,,,,
,,CELL,2.412895,1,,,,,,stimuli/images/PICTURE_727.png,CELL,5e08b939f9e7501c6b40c650,24/11/1988,2020-09-02_12h29.23.174,proactive3.1,2020.1.2,Win32,60,5f47c29a48bd2a1e651a6eb7,5f4f816fa8de8e03e80a9632,4,,,,,,hose,0,0,0,1,1,,,,,,,,,,,,,,,,,,,,,,,,,,,,,,,,,,,,,,,,,,,,,,,,,,,,,,,,,,,,,,,,,,,,,,,,,,,,,,,,,,,,,,,,,,,,,,,,,,,,,,,,,,,,,,,,,,,,
,,LOSS,2.551245,1,,,,,,stimuli/images/PICTURE_378.png,LOSS,5e08b939f9e7501c6b40c650,24/11/1988,2020-09-02_12h29.23.174,proactive3.1,2020.1.2,Win32,60,5f47c29a48bd2a1e651a6eb7,5f4f816fa8de8e03e80a9632,4,,,,,,lobster,0,1,1,2,1,,,,,,,,,,,,,,,,,,,,,,,,,,,,,,,,,,,,,,,,,,,,,,,,,,,,,,,,,,,,,,,,,,,,,,,,,,,,,,,,,,,,,,,,,,,,,,,,,,,,,,,,,,,,,,,,,,,,
,,GENIUS,2.542505,1,,,,,,stimuli/images/PICTURE_269.png,GENIUS,5e08b939f9e7501c6b40c650,24/11/1988,2020-09-02_12h29.23.174,proactive3.1,2020.1.2,Win32,60,5f47c29a48bd2a1e651a6eb7,5f4f816fa8de8e03e80a9632,4,,,,,,chameleon,0,2,2,0,1,,,,,,,,,,,,,,,,,,,,,,,,,,,,,,,,,,,,,,,,,,,,,,,,,,,,,,,,,,,,,,,,,,,,,,,,,,,,,,,,,,,,,,,,,,,,,,,,,,,,,,,,,,,,,,,,,,,,
,,DEVIL,2.669235,1,,,,,,stimuli/images/PICTURE_658.png,DEVIL,5e08b939f9e7501c6b40c650,24/11/1988,2020-09-02_12h29.23.174,proactive3.1,2020.1.2,Win32,60,5f47c29a48bd2a1e651a6eb7,5f4f816fa8de8e03e80a9632,4,,,,,,crow,0,3,3,3,1,,,,,,,,,,,,,,,,,,,,,,,,,,,,,,,,,,,,,,,,,,,,,,,,,,,,,,,,,,,,,,,,,,,,,,,,,,,,,,,,,,,,,,,,,,,,,,,,,,,,,,,,,,,,,,,,,,,,
,,KILLER,2.10021,1,,,,,,stimuli/images/PICTURE_697.png,KILLER,5e08b939f9e7501c6b40c650,24/11/1988,2020-09-02_12h29.23.174,proactive3.1,2020.1.2,Win32,60,5f47c29a48bd2a1e651a6eb7,5f4f816fa8de8e03e80a9632,4,,,,,,peach,0,4,4,4,1,,,,,,,,,,,,,,,,,,,,,,,,,,,,,,,,,,,,,,,,,,,,,,,,,,,,,,,,,,,,,,,,,,,,,,,,,,,,,,,,,,,,,,,,,,,,,,,,,,,,,,,,,,,,,,,,,,,,
,,,,,,,,,,stimuli/images/PICTURE_469.png,LETTER,5e08b939f9e7501c6b40c650,24/11/1988,2020-09-02_12h29.23.174,proactive3.1,2020.1.2,Win32,60,5f47c29a48bd2a1e651a6eb7,5f4f816fa8de8e03e80a9632,4,,,,,,stool,,,,,,0,0,0,42,1,5,0,,,,,,,,,,,,,,,,,,,,,,,,,,,,,,,,,,,,,,,,,,,,,,,,,,,,,,,,,,,,,,,,,,,,,,,,,,,,,,,,,,,,,,,,,,,,,,,,,,,,,,,,,,,,,
,,,,,,,,,,stimuli/images/PICTURE_667.png,PLENTY,5e08b939f9e7501c6b40c650,24/11/1988,2020-09-02_12h29.23.174,proactive3.1,2020.1.2,Win32,60,5f47c29a48bd2a1e651a6eb7,5f4f816fa8de8e03e80a9632,4,,,,,,daisy,,,,,,0,1,1,41,1,5,0,,,,,,,,,,,,,,,,,,,,,,,,,,,,,,,,,,,,,,,,,,,,,,,,,,,,,,,,,,,,,,,,,,,,,,,,,,,,,,,,,,,,,,,,,,,,,,,,,,,,,,,,,,,,,
,,,,,,,,,,stimuli/images/PICTURE_85.png,THING,5e08b939f9e7501c6b40c650,24/11/1988,2020-09-02_12h29.23.174,proactive3.1,2020.1.2,Win32,60,5f47c29a48bd2a1e651a6eb7,5f4f816fa8de8e03e80a9632,4,,,,,,diamond,,,,,,0,2,2,15,1,2,0,,,,,,,,,,,,,,,,,,,,,,,,,,,,,,,,,,,,,,,,,,,,,,,,,,,,,,,,,,,,,,,,,,,,,,,,,,,,,,,,,,,,,,,,,,,,,,,,,,,,,,,,,,,,,
,,,,,,,,,,stimuli/images/PICTURE_487.png,FLIGHT,5e08b939f9e7501c6b40c650,24/11/1988,2020-09-02_12h29.23.174,proactive3.1,2020.1.2,Win32,60,5f47c29a48bd2a1e651a6eb7,5f4f816fa8de8e03e80a9632,4,,,,,,basket,,,,,,0,3,3,9,1,1,0,,,,,,,,,,,,,,,,,,,,,,,,,,,,,,,,,,,,,,,,,,,,,,,,,,,,,,,,,,,,,,,,,,,,,,,,,,,,,,,,,,,,,,,,,,,,,,,,,,,,,,,,,,,,,
,,,,,,,,,,stimuli/images/PICTURE_255.png,AREA,5e08b939f9e7501c6b40c650,24/11/1988,2020-09-02_12h29.23.174,proactive3.1,2020.1.2,Win32,60,5f47c29a48bd2a1e651a6eb7,5f4f816fa8de8e03e80a9632,4,,,,,,shovel,,,,,,0,4,4,22,1,3,0,,,,,,,,,,,,,,,,,,,,,,,,,,,,,,,,,,,,,,,,,,,,,,,,,,,,,,,,,,,,,,,,,,,,,,,,,,,,,,,,,,,,,,,,,,,,,,,,,,,,,,,,,,,,,
,,,,,,,,,,stimuli/images/PICTURE_708.png,PENNY,5e08b939f9e7501c6b40c650,24/11/1988,2020-09-02_12h29.23.174,proactive3.1,2020.1.2,Win32,60,5f47c29a48bd2a1e651a6eb7,5f4f816fa8de8e03e80a9632,4,,,,,,monkey,,,,,,0,5,5,31,1,4,0,,,,,,,,,,,,,,,,,,,,,,,,,,,,,,,,,,,,,,,,,,,,,,,,,,,,,,,,,,,,,,,,,,,,,,,,,,,,,,,,,,,,,,,,,,,,,,,,,,,,,,,,,,,,,
,,,,,,,,,,stimuli/images/PICTURE_314.png,GODS,5e08b939f9e7501c6b40c650,24/11/1988,2020-09-02_12h29.23.174,proactive3.1,2020.1.2,Win32,60,5f47c29a48bd2a1e651a6eb7,5f4f816fa8de8e03e80a9632,4,,,,,,perfume,,,,,,0,6,6,11,1,2,0,,,,,,,,,,,,,,,,,,,,,,,,,,,,,,,,,,,,,,,,,,,,,,,,,,,,,,,,,,,,,,,,,,,,,,,,,,,,,,,,,,,,,,,,,,,,,,,,,,,,,,,,,,,,,
,,,,,,,,,,stimuli/images/PICTURE_339.png,PLENTY,5e08b939f9e7501c6b40c650,24/11/1988,2020-09-02_12h29.23.174,proactive3.1,2020.1.2,Win32,60,5f47c29a48bd2a1e651a6eb7,5f4f816fa8de8e03e80a9632,4,,,,,,backpack,,,,,,0,7,7,0,1,1,0,,,,,,,,,,,,,,,,,,,,,,,,,,,,,,,,,,,,,,,,,,,,,,,,,,,,,,,,,,,,,,,,,,,,,,,,,,,,,,,,,,,,,,,,,,,,,,,,,,,,,,,,,,,,,
,,,,,,,,,,stimuli/images/PICTURE_509.png,PHOTO,5e08b939f9e7501c6b40c650,24/11/1988,2020-09-02_12h29.23.174,proactive3.1,2020.1.2,Win32,60,5f47c29a48bd2a1e651a6eb7,5f4f816fa8de8e03e80a9632,4,,,,,,telephone,,,,,,0,8,8,21,1,3,0,,,,,,,,,,,,,,,,,,,,,,,,,,,,,,,,,,,,,,,,,,,,,,,,,,,,,,,,,,,,,,,,,,,,,,,,,,,,,,,,,,,,,,,,,,,,,,,,,,,,,,,,,,,,,
,,,,,,,,,,stimuli/images/PICTURE_311.png,FRIEND,5e08b939f9e7501c6b40c650,24/11/1988,2020-09-02_12h29.23.174,proactive3.1,2020.1.2,Win32,60,5f47c29a48bd2a1e651a6eb7,5f4f816fa8de8e03e80a9632,4,,,,,,razor,,,,,,0,9,9,34,1,4,0,,,,,,,,,,,,,,,,,,,,,,,,,,,,,,,,,,,,,,,,,,,,,,,,,,,,,,,,,,,,,,,,,,,,,,,,,,,,,,,,,,,,,,,,,,,,,,,,,,,,,,,,,,,,,
,,,,,,,,,,stimuli/images/PICTURE_467.png,DEMON,5e08b939f9e7501c6b40c650,24/11/1988,2020-09-02_12h29.23.174,proactive3.1,2020.1.2,Win32,60,5f47c29a48bd2a1e651a6eb7,5f4f816fa8de8e03e80a9632,4,,,,,,peg,,,,,,0,10,10,23,1,3,0,,,,,,,,,,,,,,,,,,,,,,,,,,,,,,,,,,,,,,,,,,,,,,,,,,,,,,,,,,,,,,,,,,,,,,,,,,,,,,,,,,,,,,,,,,,,,,,,,,,,,,,,,,,,,
,,,,,,,,,,stimuli/images/PICTURE_677.png,MILE,5e08b939f9e7501c6b40c650,24/11/1988,2020-09-02_12h29.23.174,proactive3.1,2020.1.2,Win32,60,5f47c29a48bd2a1e651a6eb7,5f4f816fa8de8e03e80a9632,4,,,,,,map,,,,,,0,11,11,30,1,4,0,,,,,,,,,,,,,,,,,,,,,,,,,,,,,,,,,,,,,,,,,,,,,,,,,,,,,,,,,,,,,,,,,,,,,,,,,,,,,,,,,,,,,,,,,,,,,,,,,,,,,,,,,,,,,
,,,,,,,,,,stimuli/images/PICTURE_348.png,SPEECH,5e08b939f9e7501c6b40c650,24/11/1988,2020-09-02_12h29.23.174,proactive3.1,2020.1.2,Win32,60,5f47c29a48bd2a1e651a6eb7,5f4f816fa8de8e03e80a9632,4,,,,,,pepper,,,,,,0,12,12,20,1,3,0,,,,,,,,,,,,,,,,,,,,,,,,,,,,,,,,,,,,,,,,,,,,,,,,,,,,,,,,,,,,,,,,,,,,,,,,,,,,,,,,,,,,,,,,,,,,,,,,,,,,,,,,,,,,,
,,,,,,,,,,stimuli/images/PICTURE_160.png,LEADER,5e08b939f9e7501c6b40c650,24/11/1988,2020-09-02_12h29.23.174,proactive3.1,2020.1.2,Win32,60,5f47c29a48bd2a1e651a6eb7,5f4f816fa8de8e03e80a9632,4,,,,,,wheelbarrow,,,,,,0,13,13,3,1,1,0,,,,,,,,,,,,,,,,,,,,,,,,,,,,,,,,,,,,,,,,,,,,,,,,,,,,,,,,,,,,,,,,,,,,,,,,,,,,,,,,,,,,,,,,,,,,,,,,,,,,,,,,,,,,,
,,,,,,,,,,stimuli/images/PICTURE_744.png,SAKE,5e08b939f9e7501c6b40c650,24/11/1988,2020-09-02_12h29.23.174,proactive3.1,2020.1.2,Win32,60,5f47c29a48bd2a1e651a6eb7,5f4f816fa8de8e03e80a9632,4,,,,,,ring,,,,,,0,14,14,17,1,2,0,,,,,,,,,,,,,,,,,,,,,,,,,,,,,,,,,,,,,,,,,,,,,,,,,,,,,,,,,,,,,,,,,,,,,,,,,,,,,,,,,,,,,,,,,,,,,,,,,,,,,,,,,,,,,
,,,,,,,,,,stimuli/images/PICTURE_453.png,PLENTY,5e08b939f9e7501c6b40c650,24/11/1988,2020-09-02_12h29.23.174,proactive3.1,2020.1.2,Win32,60,5f47c29a48bd2a1e651a6eb7,5f4f816fa8de8e03e80a9632,4,,,,,,scissors,,,,,,0,15,15,56,1,6,0,,,,,,,,,,,,,,,,,,,,,,,,,,,,,,,,,,,,,,,,,,,,,,,,,,,,,,,,,,,,,,,,,,,,,,,,,,,,,,,,,,,,,,,,,,,,,,,,,,,,,,,,,,,,,
,,,,,,,,,,stimuli/images/PICTURE_654.png,VALLEY,5e08b939f9e7501c6b40c650,24/11/1988,2020-09-02_12h29.23.174,proactive3.1,2020.1.2,Win32,60,5f47c29a48bd2a1e651a6eb7,5f4f816fa8de8e03e80a9632,4,,,,,,pencil,,,,,,0,16,16,1,1,1,0,,,,,,,,,,,,,,,,,,,,,,,,,,,,,,,,,,,,,,,,,,,,,,,,,,,,,,,,,,,,,,,,,,,,,,,,,,,,,,,,,,,,,,,,,,,,,,,,,,,,,,,,,,,,,
,,,,,,,,,,stimuli/images/PICTURE_688.png,CASINO,5e08b939f9e7501c6b40c650,24/11/1988,2020-09-02_12h29.23.174,proactive3.1,2020.1.2,Win32,60,5f47c29a48bd2a1e651a6eb7,5f4f816fa8de8e03e80a9632,4,,,,,,runner,,,,,,0,17,17,2,1,1,0,,,,,,,,,,,,,,,,,,,,,,,,,,,,,,,,,,,,,,,,,,,,,,,,,,,,,,,,,,,,,,,,,,,,,,,,,,,,,,,,,,,,,,,,,,,,,,,,,,,,,,,,,,,,,
,,,,,,,,,,stimuli/images/PICTURE_675.png,WEAPON,5e08b939f9e7501c6b40c650,24/11/1988,2020-09-02_12h29.23.174,proactive3.1,2020.1.2,Win32,60,5f47c29a48bd2a1e651a6eb7,5f4f816fa8de8e03e80a9632,4,,,,,,windmill,,,,,,0,18,18,32,1,4,0,,,,,,,,,,,,,,,,,,,,,,,,,,,,,,,,,,,,,,,,,,,,,,,,,,,,,,,,,,,,,,,,,,,,,,,,,,,,,,,,,,,,,,,,,,,,,,,,,,,,,,,,,,,,,
,,,,,,,,,,stimuli/images/PICTURE_233.png,IDEAS,5e08b939f9e7501c6b40c650,24/11/1988,2020-09-02_12h29.23.174,proactive3.1,2020.1.2,Win32,60,5f47c29a48bd2a1e651a6eb7,5f4f816fa8de8e03e80a9632,4,,,,,,salt,,,,,,0,19,19,28,1,3,0,,,,,,,,,,,,,,,,,,,,,,,,,,,,,,,,,,,,,,,,,,,,,,,,,,,,,,,,,,,,,,,,,,,,,,,,,,,,,,,,,,,,,,,,,,,,,,,,,,,,,,,,,,,,,
,,,,,,,,,,stimuli/images/PICTURE_708.png,CLIENT,5e08b939f9e7501c6b40c650,24/11/1988,2020-09-02_12h29.23.174,proactive3.1,2020.1.2,Win32,60,5f47c29a48bd2a1e651a6eb7,5f4f816fa8de8e03e80a9632,4,,,,,,monkey,,,,,,0,20,20,5,1,1,0,,,,,,,,,,,,,,,,,,,,,,,,,,,,,,,,,,,,,,,,,,,,,,,,,,,,,,,,,,,,,,,,,,,,,,,,,,,,,,,,,,,,,,,,,,,,,,,,,,,,,,,,,,,,,
,,,,,,,,,,stimuli/images/PICTURE_692.png,MONTH,5e08b939f9e7501c6b40c650,24/11/1988,2020-09-02_12h29.23.174,proactive3.1,2020.1.2,Win32,60,5f47c29a48bd2a1e651a6eb7,5f4f816fa8de8e03e80a9632,4,,,,,,cherry,,,,,,0,21,21,16,1,2,0,,,,,,,,,,,,,,,,,,,,,,,,,,,,,,,,,,,,,,,,,,,,,,,,,,,,,,,,,,,,,,,,,,,,,,,,,,,,,,,,,,,,,,,,,,,,,,,,,,,,,,,,,,,,,
,,,,,,,,,,stimuli/images/PICTURE_356.png,DANGER,5e08b939f9e7501c6b40c650,24/11/1988,2020-09-02_12h29.23.174,proactive3.1,2020.1.2,Win32,60,5f47c29a48bd2a1e651a6eb7,5f4f816fa8de8e03e80a9632,4,,,,,,pawn,,,,,,0,22,22,55,1,6,0,,,,,,,,,,,,,,,,,,,,,,,,,,,,,,,,,,,,,,,,,,,,,,,,,,,,,,,,,,,,,,,,,,,,,,,,,,,,,,,,,,,,,,,,,,,,,,,,,,,,,,,,,,,,,
,,,,,,,,,,stimuli/images/PICTURE_215.png,PLENTY,5e08b939f9e7501c6b40c650,24/11/1988,2020-09-02_12h29.23.174,proactive3.1,2020.1.2,Win32,60,5f47c29a48bd2a1e651a6eb7,5f4f816fa8de8e03e80a9632,4,,,,,,boot,,,,,,0,23,23,37,1,4,0,,,,,,,,,,,,,,,,,,,,,,,,,,,,,,,,,,,,,,,,,,,,,,,,,,,,,,,,,,,,,,,,,,,,,,,,,,,,,,,,,,,,,,,,,,,,,,,,,,,,,,,,,,,,,
,,,,,,,,,,stimuli/images/PICTURE_491.png,WRITER,5e08b939f9e7501c6b40c650,24/11/1988,2020-09-02_12h29.23.174,proactive3.1,2020.1.2,Win32,60,5f47c29a48bd2a1e651a6eb7,5f4f816fa8de8e03e80a9632,4,,,,,,rug,,,,,,0,24,24,57,1,6,0,,,,,,,,,,,,,,,,,,,,,,,,,,,,,,,,,,,,,,,,,,,,,,,,,,,,,,,,,,,,,,,,,,,,,,,,,,,,,,,,,,,,,,,,,,,,,,,,,,,,,,,,,,,,,
,,,,,,,,,,stimuli/images/PICTURE_147.png,MOMENT,5e08b939f9e7501c6b40c650,24/11/1988,2020-09-02_12h29.23.174,proactive3.1,2020.1.2,Win32,60,5f47c29a48bd2a1e651a6eb7,5f4f816fa8de8e03e80a9632,4,,,,,,hanger,,,,,,0,25,25,51,1,6,0,,,,,,,,,,,,,,,,,,,,,,,,,,,,,,,,,,,,,,,,,,,,,,,,,,,,,,,,,,,,,,,,,,,,,,,,,,,,,,,,,,,,,,,,,,,,,,,,,,,,,,,,,,,,,
,,,,,,,,,,stimuli/images/PICTURE_203.png,ARTIST,5e08b939f9e7501c6b40c650,24/11/1988,2020-09-02_12h29.23.174,proactive3.1,2020.1.2,Win32,60,5f47c29a48bd2a1e651a6eb7,5f4f816fa8de8e03e80a9632,4,,,,,,cap,,,,,,0,26,26,26,1,3,0,,,,,,,,,,,,,,,,,,,,,,,,,,,,,,,,,,,,,,,,,,,,,,,,,,,,,,,,,,,,,,,,,,,,,,,,,,,,,,,,,,,,,,,,,,,,,,,,,,,,,,,,,,,,,
,,,,,,,,,,stimuli/images/PICTURE_208.png,MONTH,5e08b939f9e7501c6b40c650,24/11/1988,2020-09-02_12h29.23.174,proactive3.1,2020.1.2,Win32,60,5f47c29a48bd2a1e651a6eb7,5f4f816fa8de8e03e80a9632,4,,,,,,microphone,,,,,,0,27,27,53,1,6,0,,,,,,,,,,,,,,,,,,,,,,,,,,,,,,,,,,,,,,,,,,,,,,,,,,,,,,,,,,,,,,,,,,,,,,,,,,,,,,,,,,,,,,,,,,,,,,,,,,,,,,,,,,,,,
,,,,,,,,,,stimuli/images/PICTURE_208.png,LOTS,5e08b939f9e7501c6b40c650,24/11/1988,2020-09-02_12h29.23.174,proactive3.1,2020.1.2,Win32,60,5f47c29a48bd2a1e651a6eb7,5f4f816fa8de8e03e80a9632,4,,,,,,microphone,,,,,,0,28,28,10,1,2,0,,,,,,,,,,,,,,,,,,,,,,,,,,,,,,,,,,,,,,,,,,,,,,,,,,,,,,,,,,,,,,,,,,,,,,,,,,,,,,,,,,,,,,,,,,,,,,,,,,,,,,,,,,,,,
,,,,,,,,,,stimuli/images/PICTURE_667.png,BATH,5e08b939f9e7501c6b40c650,24/11/1988,2020-09-02_12h29.23.174,proactive3.1,2020.1.2,Win32,60,5f47c29a48bd2a1e651a6eb7,5f4f816fa8de8e03e80a9632,4,,,,,,daisy,,,,,,0,29,29,4,1,1,0,,,,,,,,,,,,,,,,,,,,,,,,,,,,,,,,,,,,,,,,,,,,,,,,,,,,,,,,,,,,,,,,,,,,,,,,,,,,,,,,,,,,,,,,,,,,,,,,,,,,,,,,,,,,,
,,,,,,,,,,stimuli/images/PICTURE_95.png,STYLE,5e08b939f9e7501c6b40c650,24/11/1988,2020-09-02_12h29.23.174,proactive3.1,2020.1.2,Win32,60,5f47c29a48bd2a1e651a6eb7,5f4f816fa8de8e03e80a9632,4,,,,,,suitcase,,,,,,0,30,30,25,1,3,0,,,,,,,,,,,,,,,,,,,,,,,,,,,,,,,,,,,,,,,,,,,,,,,,,,,,,,,,,,,,,,,,,,,,,,,,,,,,,,,,,,,,,,,,,,,,,,,,,,,,,,,,,,,,,
,,,,,,,,,,stimuli/images/PICTURE_177.png,CARS,5e08b939f9e7501c6b40c650,24/11/1988,2020-09-02_12h29.23.174,proactive3.1,2020.1.2,Win32,60,5f47c29a48bd2a1e651a6eb7,5f4f816fa8de8e03e80a9632,4,,,,,,mushroom,,,,,,0,31,31,35,1,4,0,,,,,,,,,,,,,,,,,,,,,,,,,,,,,,,,,,,,,,,,,,,,,,,,,,,,,,,,,,,,,,,,,,,,,,,,,,,,,,,,,,,,,,,,,,,,,,,,,,,,,,,,,,,,,
,,,,,,,,,,stimuli/images/PICTURE_68.png,MILE,5e08b939f9e7501c6b40c650,24/11/1988,2020-09-02_12h29.23.174,proactive3.1,2020.1.2,Win32,60,5f47c29a48bd2a1e651a6eb7,5f4f816fa8de8e03e80a9632,4,,,,,,candle,,,,,,0,32,32,44,1,5,0,,,,,,,,,,,,,,,,,,,,,,,,,,,,,,,,,,,,,,,,,,,,,,,,,,,,,,,,,,,,,,,,,,,,,,,,,,,,,,,,,,,,,,,,,,,,,,,,,,,,,,,,,,,,,
,,,,,,,,,,stimuli/images/PICTURE_504.png,BODY,5e08b939f9e7501c6b40c650,24/11/1988,2020-09-02_12h29.23.174,proactive3.1,2020.1.2,Win32,60,5f47c29a48bd2a1e651a6eb7,5f4f816fa8de8e03e80a9632,4,,,,,,wheel,,,,,,0,33,33,8,1,1,0,,,,,,,,,,,,,,,,,,,,,,,,,,,,,,,,,,,,,,,,,,,,,,,,,,,,,,,,,,,,,,,,,,,,,,,,,,,,,,,,,,,,,,,,,,,,,,,,,,,,,,,,,,,,,
,,,,,,,,,,stimuli/images/PICTURE_488.png,STYLE,5e08b939f9e7501c6b40c650,24/11/1988,2020-09-02_12h29.23.174,proactive3.1,2020.1.2,Win32,60,5f47c29a48bd2a1e651a6eb7,5f4f816fa8de8e03e80a9632,4,,,,,,sun,,,,,,0,34,34,33,1,4,0,,,,,,,,,,,,,,,,,,,,,,,,,,,,,,,,,,,,,,,,,,,,,,,,,,,,,,,,,,,,,,,,,,,,,,,,,,,,,,,,,,,,,,,,,,,,,,,,,,,,,,,,,,,,,
,,,,,,,,,,stimuli/images/PICTURE_233.png,WOMEN,5e08b939f9e7501c6b40c650,24/11/1988,2020-09-02_12h29.23.174,proactive3.1,2020.1.2,Win32,60,5f47c29a48bd2a1e651a6eb7,5f4f816fa8de8e03e80a9632,4,,,,,,salt,,,,,,0,35,35,38,1,4,0,,,,,,,,,,,,,,,,,,,,,,,,,,,,,,,,,,,,,,,,,,,,,,,,,,,,,,,,,,,,,,,,,,,,,,,,,,,,,,,,,,,,,,,,,,,,,,,,,,,,,,,,,,,,,
,,,,,,,,,,stimuli/images/PICTURE_311.png,BEAUTY,5e08b939f9e7501c6b40c650,24/11/1988,2020-09-02_12h29.23.174,proactive3.1,2020.1.2,Win32,60,5f47c29a48bd2a1e651a6eb7,5f4f816fa8de8e03e80a9632,4,,,,,,razor,,,,,,0,36,36,13,1,2,0,,,,,,,,,,,,,,,,,,,,,,,,,,,,,,,,,,,,,,,,,,,,,,,,,,,,,,,,,,,,,,,,,,,,,,,,,,,,,,,,,,,,,,,,,,,,,,,,,,,,,,,,,,,,,
,,,,,,,,,,stimuli/images/PICTURE_302.png,FAMILY,5e08b939f9e7501c6b40c650,24/11/1988,2020-09-02_12h29.23.174,proactive3.1,2020.1.2,Win32,60,5f47c29a48bd2a1e651a6eb7,5f4f816fa8de8e03e80a9632,4,,,,,,taxi,,,,,,0,37,37,18,1,2,0,,,,,,,,,,,,,,,,,,,,,,,,,,,,,,,,,,,,,,,,,,,,,,,,,,,,,,,,,,,,,,,,,,,,,,,,,,,,,,,,,,,,,,,,,,,,,,,,,,,,,,,,,,,,,
,,,,,,,,,,stimuli/images/PICTURE_708.png,YARD,5e08b939f9e7501c6b40c650,24/11/1988,2020-09-02_12h29.23.174,proactive3.1,2020.1.2,Win32,60,5f47c29a48bd2a1e651a6eb7,5f4f816fa8de8e03e80a9632,4,,,,,,monkey,,,,,,0,38,38,29,1,3,0,,,,,,,,,,,,,,,,,,,,,,,,,,,,,,,,,,,,,,,,,,,,,,,,,,,,,,,,,,,,,,,,,,,,,,,,,,,,,,,,,,,,,,,,,,,,,,,,,,,,,,,,,,,,,
,,,,,,,,,,stimuli/images/PICTURE_123.png,ADVICE,5e08b939f9e7501c6b40c650,24/11/1988,2020-09-02_12h29.23.174,proactive3.1,2020.1.2,Win32,60,5f47c29a48bd2a1e651a6eb7,5f4f816fa8de8e03e80a9632,4,,,,,,dart,,,,,,0,39,39,50,1,6,0,,,,,,,,,,,,,,,,,,,,,,,,,,,,,,,,,,,,,,,,,,,,,,,,,,,,,,,,,,,,,,,,,,,,,,,,,,,,,,,,,,,,,,,,,,,,,,,,,,,,,,,,,,,,,
,,,,,,,,,,stimuli/images/PICTURE_285.png,ADVICE,5e08b939f9e7501c6b40c650,24/11/1988,2020-09-02_12h29.23.174,proactive3.1,2020.1.2,Win32,60,5f47c29a48bd2a1e651a6eb7,5f4f816fa8de8e03e80a9632,4,,,,,,carrot,,,,,,0,40,40,12,1,2,0,,,,,,,,,,,,,,,,,,,,,,,,,,,,,,,,,,,,,,,,,,,,,,,,,,,,,,,,,,,,,,,,,,,,,,,,,,,,,,,,,,,,,,,,,,,,,,,,,,,,,,,,,,,,,
,,,,,,,,,,stimuli/images/PICTURE_688.png,WOMEN,5e08b939f9e7501c6b40c650,24/11/1988,2020-09-02_12h29.23.174,proactive3.1,2020.1.2,Win32,60,5f47c29a48bd2a1e651a6eb7,5f4f816fa8de8e03e80a9632,4,,,,,,runner,,,,,,0,41,41,14,1,2,0,,,,,,,,,,,,,,,,,,,,,,,,,,,,,,,,,,,,,,,,,,,,,,,,,,,,,,,,,,,,,,,,,,,,,,,,,,,,,,,,,,,,,,,,,,,,,,,,,,,,,,,,,,,,,
,,,,,,,,,,stimuli/images/PICTURE_491.png,ROOF,5e08b939f9e7501c6b40c650,24/11/1988,2020-09-02_12h29.23.174,proactive3.1,2020.1.2,Win32,60,5f47c29a48bd2a1e651a6eb7,5f4f816fa8de8e03e80a9632,4,,,,,,rug,,,,,,0,42,42,24,1,3,0,,,,,,,,,,,,,,,,,,,,,,,,,,,,,,,,,,,,,,,,,,,,,,,,,,,,,,,,,,,,,,,,,,,,,,,,,,,,,,,,,,,,,,,,,,,,,,,,,,,,,,,,,,,,,
,,,,,,,,,,stimuli/images/PICTURE_248.png,DOZEN,5e08b939f9e7501c6b40c650,24/11/1988,2020-09-02_12h29.23.174,proactive3.1,2020.1.2,Win32,60,5f47c29a48bd2a1e651a6eb7,5f4f816fa8de8e03e80a9632,4,,,,,,cart,,,,,,0,43,43,39,1,4,0,,,,,,,,,,,,,,,,,,,,,,,,,,,,,,,,,,,,,,,,,,,,,,,,,,,,,,,,,,,,,,,,,,,,,,,,,,,,,,,,,,,,,,,,,,,,,,,,,,,,,,,,,,,,,
,,,,,,,,,,stimuli/images/PICTURE_469.png,ARTIST,5e08b939f9e7501c6b40c650,24/11/1988,2020-09-02_12h29.23.174,proactive3.1,2020.1.2,Win32,60,5f47c29a48bd2a1e651a6eb7,5f4f816fa8de8e03e80a9632,4,,,,,,stool,,,,,,0,44,44,6,1,1,0,,,,,,,,,,,,,,,,,,,,,,,,,,,,,,,,,,,,,,,,,,,,,,,,,,,,,,,,,,,,,,,,,,,,,,,,,,,,,,,,,,,,,,,,,,,,,,,,,,,,,,,,,,,,,
,,,,,,,,,,stimuli/images/PICTURE_151.png,GIRL,5e08b939f9e7501c6b40c650,24/11/1988,2020-09-02_12h29.23.174,proactive3.1,2020.1.2,Win32,60,5f47c29a48bd2a1e651a6eb7,5f4f816fa8de8e03e80a9632,4,,,,,,tray,,,,,,0,45,45,19,1,2,0,,,,,,,,,,,,,,,,,,,,,,,,,,,,,,,,,,,,,,,,,,,,,,,,,,,,,,,,,,,,,,,,,,,,,,,,,,,,,,,,,,,,,,,,,,,,,,,,,,,,,,,,,,,,,
,,,,,,,,,,stimuli/images/PICTURE_208.png,THING,5e08b939f9e7501c6b40c650,24/11/1988,2020-09-02_12h29.23.174,proactive3.1,2020.1.2,Win32,60,5f47c29a48bd2a1e651a6eb7,5f4f816fa8de8e03e80a9632,4,,,,,,microphone,,,,,,0,46,46,47,1,5,0,,,,,,,,,,,,,,,,,,,,,,,,,,,,,,,,,,,,,,,,,,,,,,,,,,,,,,,,,,,,,,,,,,,,,,,,,,,,,,,,,,,,,,,,,,,,,,,,,,,,,,,,,,,,,
,,,,,,,,,,stimuli/images/PICTURE_160.png,FEET,5e08b939f9e7501c6b40c650,24/11/1988,2020-09-02_12h29.23.174,proactive3.1,2020.1.2,Win32,60,5f47c29a48bd2a1e651a6eb7,5f4f816fa8de8e03e80a9632,4,,,,,,wheelbarrow,,,,,,0,47,47,58,1,6,0,,,,,,,,,,,,,,,,,,,,,,,,,,,,,,,,,,,,,,,,,,,,,,,,,,,,,,,,,,,,,,,,,,,,,,,,,,,,,,,,,,,,,,,,,,,,,,,,,,,,,,,,,,,,,
,,,,,,,,,,stimuli/images/PICTURE_744.png,SYSTEM,5e08b939f9e7501c6b40c650,24/11/1988,2020-09-02_12h29.23.174,proactive3.1,2020.1.2,Win32,60,5f47c29a48bd2a1e651a6eb7,5f4f816fa8de8e03e80a9632,4,,,,,,ring,,,,,,0,48,48,43,1,5,0,,,,,,,,,,,,,,,,,,,,,,,,,,,,,,,,,,,,,,,,,,,,,,,,,,,,,,,,,,,,,,,,,,,,,,,,,,,,,,,,,,,,,,,,,,,,,,,,,,,,,,,,,,,,,
,,,,,,,,,,stimuli/images/PICTURE_380.png,PHOTO,5e08b939f9e7501c6b40c650,24/11/1988,2020-09-02_12h29.23.174,proactive3.1,2020.1.2,Win32,60,5f47c29a48bd2a1e651a6eb7,5f4f816fa8de8e03e80a9632,4,,,,,,gorilla,,,,,,0,49,49,52,1,6,0,,,,,,,,,,,,,,,,,,,,,,,,,,,,,,,,,,,,,,,,,,,,,,,,,,,,,,,,,,,,,,,,,,,,,,,,,,,,,,,,,,,,,,,,,,,,,,,,,,,,,,,,,,,,,
,,,,,,,,,,stimuli/images/PICTURE_327.png,BEAUTY,5e08b939f9e7501c6b40c650,24/11/1988,2020-09-02_12h29.23.174,proactive3.1,2020.1.2,Win32,60,5f47c29a48bd2a1e651a6eb7,5f4f816fa8de8e03e80a9632,4,,,,,,helmet,,,,,,0,50,50,48,1,5,0,,,,,,,,,,,,,,,,,,,,,,,,,,,,,,,,,,,,,,,,,,,,,,,,,,,,,,,,,,,,,,,,,,,,,,,,,,,,,,,,,,,,,,,,,,,,,,,,,,,,,,,,,,,,,
,,,,,,,,,,stimuli/images/PICTURE_314.png,SAKE,5e08b939f9e7501c6b40c650,24/11/1988,2020-09-02_12h29.23.174,proactive3.1,2020.1.2,Win32,60,5f47c29a48bd2a1e651a6eb7,5f4f816fa8de8e03e80a9632,4,,,,,,perfume,,,,,,0,51,51,7,1,1,0,,,,,,,,,,,,,,,,,,,,,,,,,,,,,,,,,,,,,,,,,,,,,,,,,,,,,,,,,,,,,,,,,,,,,,,,,,,,,,,,,,,,,,,,,,,,,,,,,,,,,,,,,,,,,
,,,,,,,,,,stimuli/images/PICTURE_470.png,CASINO,5e08b939f9e7501c6b40c650,24/11/1988,2020-09-02_12h29.23.174,proactive3.1,2020.1.2,Win32,60,5f47c29a48bd2a1e651a6eb7,5f4f816fa8de8e03e80a9632,4,,,,,,motorbike,,,,,,0,52,52,36,1,4,0,,,,,,,,,,,,,,,,,,,,,,,,,,,,,,,,,,,,,,,,,,,,,,,,,,,,,,,,,,,,,,,,,,,,,,,,,,,,,,,,,,,,,,,,,,,,,,,,,,,,,,,,,,,,,
,,,,,,,,,,stimuli/images/PICTURE_32.png,JUNGLE,5e08b939f9e7501c6b40c650,24/11/1988,2020-09-02_12h29.23.174,proactive3.1,2020.1.2,Win32,60,5f47c29a48bd2a1e651a6eb7,5f4f816fa8de8e03e80a9632,4,,,,,,crown,,,,,,0,53,53,45,1,5,0,,,,,,,,,,,,,,,,,,,,,,,,,,,,,,,,,,,,,,,,,,,,,,,,,,,,,,,,,,,,,,,,,,,,,,,,,,,,,,,,,,,,,,,,,,,,,,,,,,,,,,,,,,,,,
,,,,,,,,,,stimuli/images/PICTURE_308.png,KIND,5e08b939f9e7501c6b40c650,24/11/1988,2020-09-02_12h29.23.174,proactive3.1,2020.1.2,Win32,60,5f47c29a48bd2a1e651a6eb7,5f4f816fa8de8e03e80a9632,4,,,,,,dice,,,,,,0,54,54,54,1,6,0,,,,,,,,,,,,,,,,,,,,,,,,,,,,,,,,,,,,,,,,,,,,,,,,,,,,,,,,,,,,,,,,,,,,,,,,,,,,,,,,,,,,,,,,,,,,,,,,,,,,,,,,,,,,,
,,,,,,,,,,stimuli/images/PICTURE_453.png,DUDE,5e08b939f9e7501c6b40c650,24/11/1988,2020-09-02_12h29.23.174,proactive3.1,2020.1.2,Win32,60,5f47c29a48bd2a1e651a6eb7,5f4f816fa8de8e03e80a9632,4,,,,,,scissors,,,,,,0,55,55,27,1,3,0,,,,,,,,,,,,,,,,,,,,,,,,,,,,,,,,,,,,,,,,,,,,,,,,,,,,,,,,,,,,,,,,,,,,,,,,,,,,,,,,,,,,,,,,,,,,,,,,,,,,,,,,,,,,,
,,,,,,,,,,stimuli/images/PICTURE_380.png,DEATH,5e08b939f9e7501c6b40c650,24/11/1988,2020-09-02_12h29.23.174,proactive3.1,2020.1.2,Win32,60,5f47c29a48bd2a1e651a6eb7,5f4f816fa8de8e03e80a9632,4,,,,,,gorilla,,,,,,0,56,56,49,1,5,0,,,,,,,,,,,,,,,,,,,,,,,,,,,,,,,,,,,,,,,,,,,,,,,,,,,,,,,,,,,,,,,,,,,,,,,,,,,,,,,,,,,,,,,,,,,,,,,,,,,,,,,,,,,,,
,,,,,,,,,,stimuli/images/PICTURE_123.png,ADVICE,5e08b939f9e7501c6b40c650,24/11/1988,2020-09-02_12h29.23.174,proactive3.1,2020.1.2,Win32,60,5f47c29a48bd2a1e651a6eb7,5f4f816fa8de8e03e80a9632,4,,,,,,dart,,,,,,0,57,57,40,1,5,0,,,,,,,,,,,,,,,,,,,,,,,,,,,,,,,,,,,,,,,,,,,,,,,,,,,,,,,,,,,,,,,,,,,,,,,,,,,,,,,,,,,,,,,,,,,,,,,,,,,,,,,,,,,,,
,,,,,,,,,,stimuli/images/PICTURE_308.png,ESTATE,5e08b939f9e7501c6b40c650,24/11/1988,2020-09-02_12h29.23.174,proactive3.1,2020.1.2,Win32,60,5f47c29a48bd2a1e651a6eb7,5f4f816fa8de8e03e80a9632,4,,,,,,dice,,,,,,0,58,58,46,1,5,0,,,,,,,,,,,,,,,,,,,,,,,,,,,,,,,,,,,,,,,,,,,,,,,,,,,,,,,,,,,,,,,,,,,,,,,,,,,,,,,,,,,,,,,,,,,,,,,,,,,,,,,,,,,,,
,,?,0.004075,0,,,,,,stimuli/images/PICTURE_85.png,THING,5e08b939f9e7501c6b40c650,24/11/1988,2020-09-02_12h29.23.174,proactive3.1,2020.1.2,Win32,60,5f47c29a48bd2a1e651a6eb7,5f4f816fa8de8e03e80a9632,4,,,,,,diamond,,,,,,,,,,,2,0,0,0,0,15,1,,,,,,,,,,,,,,,,,,,,,,,,,,,,,,,,,,,,,,,,,,,,,,,,,,,,,,,,,,,,,,,,,,,,,,,,,,,,,,,,,,,,,,,,,,,,,,,,,,,,,,,,
,,?,0.001835,0,,,,,,stimuli/images/PICTURE_467.png,DEMON,5e08b939f9e7501c6b40c650,24/11/1988,2020-09-02_12h29.23.174,proactive3.1,2020.1.2,Win32,60,5f47c29a48bd2a1e651a6eb7,5f4f816fa8de8e03e80a9632,4,,,,,,peg,,,,,,,,,,,3,0,0,1,1,23,1,,,,,,,,,,,,,,,,,,,,,,,,,,,,,,,,,,,,,,,,,,,,,,,,,,,,,,,,,,,,,,,,,,,,,,,,,,,,,,,,,,,,,,,,,,,,,,,,,,,,,,,,
,,MILE,2.3883,1,,,,,,stimuli/images/PICTURE_677.png,MILE,5e08b939f9e7501c6b40c650,24/11/1988,2020-09-02_12h29.23.174,proactive3.1,2020.1.2,Win32,60,5f47c29a48bd2a1e651a6eb7,5f4f816fa8de8e03e80a9632,4,,,,,,map,,,,,,,,,,,4,0,0,2,2,30,1,,,,,,,,,,,,,,,,,,,,,,,,,,,,,,,,,,,,,,,,,,,,,,,,,,,,,,,,,,,,,,,,,,,,,,,,,,,,,,,,,,,,,,,,,,,,,,,,,,,,,,,,
,,WOMEN,4.244965,1,,,,,,stimuli/images/PICTURE_233.png,WOMEN,5e08b939f9e7501c6b40c650,24/11/1988,2020-09-02_12h29.23.174,proactive3.1,2020.1.2,Win32,60,5f47c29a48bd2a1e651a6eb7,5f4f816fa8de8e03e80a9632,4,,,,,,salt,,,,,,,,,,,4,0,0,3,3,38,1,,,,,,,,,,,,,,,,,,,,,,,,,,,,,,,,,,,,,,,,,,,,,,,,,,,,,,,,,,,,,,,,,,,,,,,,,,,,,,,,,,,,,,,,,,,,,,,,,,,,,,,,
,,?,0.001615,0,,,,,,stimuli/images/PICTURE_348.png,SPEECH,5e08b939f9e7501c6b40c650,24/11/1988,2020-09-02_12h29.23.174,proactive3.1,2020.1.2,Win32,60,5f47c29a48bd2a1e651a6eb7,5f4f816fa8de8e03e80a9632,4,,,,,,pepper,,,,,,,,,,,3,0,0,4,4,20,1,,,,,,,,,,,,,,,,,,,,,,,,,,,,,,,,,,,,,,,,,,,,,,,,,,,,,,,,,,,,,,,,,,,,,,,,,,,,,,,,,,,,,,,,,,,,,,,,,,,,,,,,
,,?,0.000885,0,,,,,,stimuli/images/PICTURE_203.png,ARTIST,5e08b939f9e7501c6b40c650,24/11/1988,2020-09-02_12h29.23.174,proactive3.1,2020.1.2,Win32,60,5f47c29a48bd2a1e651a6eb7,5f4f816fa8de8e03e80a9632,4,,,,,,cap,,,,,,,,,,,3,0,0,5,5,26,1,,,,,,,,,,,,,,,,,,,,,,,,,,,,,,,,,,,,,,,,,,,,,,,,,,,,,,,,,,,,,,,,,,,,,,,,,,,,,,,,,,,,,,,,,,,,,,,,,,,,,,,,
,,?,0.00089,0,,,,,,stimuli/images/PICTURE_449.png,THING,5e08b939f9e7501c6b40c650,24/11/1988,2020-09-02_12h29.23.174,proactive3.1,2020.1.2,Win32,60,5f47c29a48bd2a1e651a6eb7,5f4f816fa8de8e03e80a9632,4,,,,,,bench,,,,,,,,,,,6,0,0,6,6,59,1,,,,,,,,,,,,,,,,,,,,,,,,,,,,,,,,,,,,,,,,,,,,,,,,,,,,,,,,,,,,,,,,,,,,,,,,,,,,,,,,,,,,,,,,,,,,,,,,,,,,,,,,
,,?,0.001105,0,,,,,,stimuli/images/PICTURE_314.png,SAKE,5e08b939f9e7501c6b40c650,24/11/1988,2020-09-02_12h29.23.174,proactive3.1,2020.1.2,Win32,60,5f47c29a48bd2a1e651a6eb7,5f4f816fa8de8e03e80a9632,4,,,,,,perfume,,,,,,,,,,,1,0,0,7,7,7,1,,,,,,,,,,,,,,,,,,,,,,,,,,,,,,,,,,,,,,,,,,,,,,,,,,,,,,,,,,,,,,,,,,,,,,,,,,,,,,,,,,,,,,,,,,,,,,,,,,,,,,,,
,,?,0.001095,0,,,,,,stimuli/images/PICTURE_285.png,ADVICE,5e08b939f9e7501c6b40c650,24/11/1988,2020-09-02_12h29.23.174,proactive3.1,2020.1.2,Win32,60,5f47c29a48bd2a1e651a6eb7,5f4f816fa8de8e03e80a9632,4,,,,,,carrot,,,,,,,,,,,2,0,0,8,8,12,1,,,,,,,,,,,,,,,,,,,,,,,,,,,,,,,,,,,,,,,,,,,,,,,,,,,,,,,,,,,,,,,,,,,,,,,,,,,,,,,,,,,,,,,,,,,,,,,,,,,,,,,,
,,?,0.00282,0,,,,,,stimuli/images/PICTURE_311.png,BEAUTY,5e08b939f9e7501c6b40c650,24/11/1988,2020-09-02_12h29.23.174,proactive3.1,2020.1.2,Win32,60,5f47c29a48bd2a1e651a6eb7,5f4f816fa8de8e03e80a9632,4,,,,,,razor,,,,,,,,,,,2,0,0,9,9,13,1,,,,,,,,,,,,,,,,,,,,,,,,,,,,,,,,,,,,,,,,,,,,,,,,,,,,,,,,,,,,,,,,,,,,,,,,,,,,,,,,,,,,,,,,,,,,,,,,,,,,,,,,
,,?,0.000925,0,,,,,,stimuli/images/PICTURE_308.png,ESTATE,5e08b939f9e7501c6b40c650,24/11/1988,2020-09-02_12h29.23.174,proactive3.1,2020.1.2,Win32,60,5f47c29a48bd2a1e651a6eb7,5f4f816fa8de8e03e80a9632,4,,,,,,dice,,,,,,,,,,,5,0,0,10,10,46,1,,,,,,,,,,,,,,,,,,,,,,,,,,,,,,,,,,,,,,,,,,,,,,,,,,,,,,,,,,,,,,,,,,,,,,,,,,,,,,,,,,,,,,,,,,,,,,,,,,,,,,,,
,,?,0.000885,0,,,,,,stimuli/images/PICTURE_744.png,SYSTEM,5e08b939f9e7501c6b40c650,24/11/1988,2020-09-02_12h29.23.174,proactive3.1,2020.1.2,Win32,60,5f47c29a48bd2a1e651a6eb7,5f4f816fa8de8e03e80a9632,4,,,,,,ring,,,,,,,,,,,5,0,0,11,11,43,1,,,,,,,,,,,,,,,,,,,,,,,,,,,,,,,,,,,,,,,,,,,,,,,,,,,,,,,,,,,,,,,,,,,,,,,,,,,,,,,,,,,,,,,,,,,,,,,,,,,,,,,,
,,PENNY,2.59364,1,,,,,,stimuli/images/PICTURE_708.png,PENNY,5e08b939f9e7501c6b40c650,24/11/1988,2020-09-02_12h29.23.174,proactive3.1,2020.1.2,Win32,60,5f47c29a48bd2a1e651a6eb7,5f4f816fa8de8e03e80a9632,4,,,,,,monkey,,,,,,,,,,,4,0,0,12,12,31,1,,,,,,,,,,,,,,,,,,,,,,,,,,,,,,,,,,,,,,,,,,,,,,,,,,,,,,,,,,,,,,,,,,,,,,,,,,,,,,,,,,,,,,,,,,,,,,,,,,,,,,,,
,,?,0.002195,0,,,,,,stimuli/images/PICTURE_233.png,IDEAS,5e08b939f9e7501c6b40c650,24/11/1988,2020-09-02_12h29.23.174,proactive3.1,2020.1.2,Win32,60,5f47c29a48bd2a1e651a6eb7,5f4f816fa8de8e03e80a9632,4,,,,,,salt,,,,,,,,,,,3,0,0,13,13,28,1,,,,,,,,,,,,,,,,,,,,,,,,,,,,,,,,,,,,,,,,,,,,,,,,,,,,,,,,,,,,,,,,,,,,,,,,,,,,,,,,,,,,,,,,,,,,,,,,,,,,,,,,
,,?,0.00084,0,,,,,,stimuli/images/PICTURE_491.png,ROOF,5e08b939f9e7501c6b40c650,24/11/1988,2020-09-02_12h29.23.174,proactive3.1,2020.1.2,Win32,60,5f47c29a48bd2a1e651a6eb7,5f4f816fa8de8e03e80a9632,4,,,,,,rug,,,,,,,,,,,3,0,0,14,14,24,1,,,,,,,,,,,,,,,,,,,,,,,,,,,,,,,,,,,,,,,,,,,,,,,,,,,,,,,,,,,,,,,,,,,,,,,,,,,,,,,,,,,,,,,,,,,,,,,,,,,,,,,,
,,?,0.001,0,,,,,,stimuli/images/PICTURE_487.png,FLIGHT,5e08b939f9e7501c6b40c650,24/11/1988,2020-09-02_12h29.23.174,proactive3.1,2020.1.2,Win32,60,5f47c29a48bd2a1e651a6eb7,5f4f816fa8de8e03e80a9632,4,,,,,,basket,,,,,,,,,,,1,0,0,15,15,9,1,,,,,,,,,,,,,,,,,,,,,,,,,,,,,,,,,,,,,,,,,,,,,,,,,,,,,,,,,,,,,,,,,,,,,,,,,,,,,,,,,,,,,,,,,,,,,,,,,,,,,,,,
,,?,0.00079,0,,,,,,stimuli/images/PICTURE_469.png,ARTIST,5e08b939f9e7501c6b40c650,24/11/1988,2020-09-02_12h29.23.174,proactive3.1,2020.1.2,Win32,60,5f47c29a48bd2a1e651a6eb7,5f4f816fa8de8e03e80a9632,4,,,,,,stool,,,,,,,,,,,1,0,0,16,16,6,1,,,,,,,,,,,,,,,,,,,,,,,,,,,,,,,,,,,,,,,,,,,,,,,,,,,,,,,,,,,,,,,,,,,,,,,,,,,,,,,,,,,,,,,,,,,,,,,,,,,,,,,,
,,?,0.000855,0,,,,,,stimuli/images/PICTURE_380.png,PHOTO,5e08b939f9e7501c6b40c650,24/11/1988,2020-09-02_12h29.23.174,proactive3.1,2020.1.2,Win32,60,5f47c29a48bd2a1e651a6eb7,5f4f816fa8de8e03e80a9632,4,,,,,,gorilla,,,,,,,,,,,6,0,0,17,17,52,1,,,,,,,,,,,,,,,,,,,,,,,,,,,,,,,,,,,,,,,,,,,,,,,,,,,,,,,,,,,,,,,,,,,,,,,,,,,,,,,,,,,,,,,,,,,,,,,,,,,,,,,,
,,?,0.000815,0,,,,,,stimuli/images/PICTURE_327.png,BEAUTY,5e08b939f9e7501c6b40c650,24/11/1988,2020-09-02_12h29.23.174,proactive3.1,2020.1.2,Win32,60,5f47c29a48bd2a1e651a6eb7,5f4f816fa8de8e03e80a9632,4,,,,,,helmet,,,,,,,,,,,5,0,0,18,18,48,1,,,,,,,,,,,,,,,,,,,,,,,,,,,,,,,,,,,,,,,,,,,,,,,,,,,,,,,,,,,,,,,,,,,,,,,,,,,,,,,,,,,,,,,,,,,,,,,,,,,,,,,,
,,?,0.00083,0,,,,,,stimuli/images/PICTURE_151.png,GIRL,5e08b939f9e7501c6b40c650,24/11/1988,2020-09-02_12h29.23.174,proactive3.1,2020.1.2,Win32,60,5f47c29a48bd2a1e651a6eb7,5f4f816fa8de8e03e80a9632,4,,,,,,tray,,,,,,,,,,,2,0,0,19,19,19,1,,,,,,,,,,,,,,,,,,,,,,,,,,,,,,,,,,,,,,,,,,,,,,,,,,,,,,,,,,,,,,,,,,,,,,,,,,,,,,,,,,,,,,,,,,,,,,,,,,,,,,,,
,,WEAPON,3.781885,1,,,,,,stimuli/images/PICTURE_675.png,WEAPON,5e08b939f9e7501c6b40c650,24/11/1988,2020-09-02_12h29.23.174,proactive3.1,2020.1.2,Win32,60,5f47c29a48bd2a1e651a6eb7,5f4f816fa8de8e03e80a9632,4,,,,,,windmill,,,,,,,,,,,4,0,0,20,20,32,1,,,,,,,,,,,,,,,,,,,,,,,,,,,,,,,,,,,,,,,,,,,,,,,,,,,,,,,,,,,,,,,,,,,,,,,,,,,,,,,,,,,,,,,,,,,,,,,,,,,,,,,,
,,STYLE,3.84718,0,,,,,,stimuli/images/PICTURE_215.png,PLENTY,5e08b939f9e7501c6b40c650,24/11/1988,2020-09-02_12h29.23.174,proactive3.1,2020.1.2,Win32,60,5f47c29a48bd2a1e651a6eb7,5f4f816fa8de8e03e80a9632,4,,,,,,boot,,,,,,,,,,,4,0,0,21,21,37,1,,,,,,,,,,,,,,,,,,,,,,,,,,,,,,,,,,,,,,,,,,,,,,,,,,,,,,,,,,,,,,,,,,,,,,,,,,,,,,,,,,,,,,,,,,,,,,,,,,,,,,,,
,,?,0.00122,0,,,,,,stimuli/images/PICTURE_469.png,LETTER,5e08b939f9e7501c6b40c650,24/11/1988,2020-09-02_12h29.23.174,proactive3.1,2020.1.2,Win32,60,5f47c29a48bd2a1e651a6eb7,5f4f816fa8de8e03e80a9632,4,,,,,,stool,,,,,,,,,,,5,0,0,22,22,42,1,,,,,,,,,,,,,,,,,,,,,,,,,,,,,,,,,,,,,,,,,,,,,,,,,,,,,,,,,,,,,,,,,,,,,,,,,,,,,,,,,,,,,,,,,,,,,,,,,,,,,,,,
,,?,0.000785,0,,,,,,stimuli/images/PICTURE_208.png,THING,5e08b939f9e7501c6b40c650,24/11/1988,2020-09-02_12h29.23.174,proactive3.1,2020.1.2,Win32,60,5f47c29a48bd2a1e651a6eb7,5f4f816fa8de8e03e80a9632,4,,,,,,microphone,,,,,,,,,,,5,0,0,23,23,47,1,,,,,,,,,,,,,,,,,,,,,,,,,,,,,,,,,,,,,,,,,,,,,,,,,,,,,,,,,,,,,,,,,,,,,,,,,,,,,,,,,,,,,,,,,,,,,,,,,,,,,,,,
,,?,0.000775,0,,,,,,stimuli/images/PICTURE_314.png,GODS,5e08b939f9e7501c6b40c650,24/11/1988,2020-09-02_12h29.23.174,proactive3.1,2020.1.2,Win32,60,5f47c29a48bd2a1e651a6eb7,5f4f816fa8de8e03e80a9632,4,,,,,,perfume,,,,,,,,,,,2,0,0,24,24,11,1,,,,,,,,,,,,,,,,,,,,,,,,,,,,,,,,,,,,,,,,,,,,,,,,,,,,,,,,,,,,,,,,,,,,,,,,,,,,,,,,,,,,,,,,,,,,,,,,,,,,,,,,
,,?,0.001115,0,,,,,,stimuli/images/PICTURE_744.png,SAKE,5e08b939f9e7501c6b40c650,24/11/1988,2020-09-02_12h29.23.174,proactive3.1,2020.1.2,Win32,60,5f47c29a48bd2a1e651a6eb7,5f4f816fa8de8e03e80a9632,4,,,,,,ring,,,,,,,,,,,2,0,0,25,25,17,1,,,,,,,,,,,,,,,,,,,,,,,,,,,,,,,,,,,,,,,,,,,,,,,,,,,,,,,,,,,,,,,,,,,,,,,,,,,,,,,,,,,,,,,,,,,,,,,,,,,,,,,,
,,?,0.00078,0,,,,,,stimuli/images/PICTURE_654.png,VALLEY,5e08b939f9e7501c6b40c650,24/11/1988,2020-09-02_12h29.23.174,proactive3.1,2020.1.2,Win32,60,5f47c29a48bd2a1e651a6eb7,5f4f816fa8de8e03e80a9632,4,,,,,,pencil,,,,,,,,,,,1,0,0,26,26,1,1,,,,,,,,,,,,,,,,,,,,,,,,,,,,,,,,,,,,,,,,,,,,,,,,,,,,,,,,,,,,,,,,,,,,,,,,,,,,,,,,,,,,,,,,,,,,,,,,,,,,,,,,
,,?,0.00081,0,,,,,,stimuli/images/PICTURE_160.png,LEADER,5e08b939f9e7501c6b40c650,24/11/1988,2020-09-02_12h29.23.174,proactive3.1,2020.1.2,Win32,60,5f47c29a48bd2a1e651a6eb7,5f4f816fa8de8e03e80a9632,4,,,,,,wheelbarrow,,,,,,,,,,,1,0,0,27,27,3,1,,,,,,,,,,,,,,,,,,,,,,,,,,,,,,,,,,,,,,,,,,,,,,,,,,,,,,,,,,,,,,,,,,,,,,,,,,,,,,,,,,,,,,,,,,,,,,,,,,,,,,,,
,,?,0.000775,0,,,,,,stimuli/images/PICTURE_123.png,ADVICE,5e08b939f9e7501c6b40c650,24/11/1988,2020-09-02_12h29.23.174,proactive3.1,2020.1.2,Win32,60,5f47c29a48bd2a1e651a6eb7,5f4f816fa8de8e03e80a9632,4,,,,,,dart,,,,,,,,,,,6,0,0,28,28,50,1,,,,,,,,,,,,,,,,,,,,,,,,,,,,,,,,,,,,,,,,,,,,,,,,,,,,,,,,,,,,,,,,,,,,,,,,,,,,,,,,,,,,,,,,,,,,,,,,,,,,,,,,
,,?,0.000965,0,,,,,,stimuli/images/PICTURE_356.png,DANGER,5e08b939f9e7501c6b40c650,24/11/1988,2020-09-02_12h29.23.174,proactive3.1,2020.1.2,Win32,60,5f47c29a48bd2a1e651a6eb7,5f4f816fa8de8e03e80a9632,4,,,,,,pawn,,,,,,,,,,,6,0,0,29,29,55,1,,,,,,,,,,,,,,,,,,,,,,,,,,,,,,,,,,,,,,,,,,,,,,,,,,,,,,,,,,,,,,,,,,,,,,,,,,,,,,,,,,,,,,,,,,,,,,,,,,,,,,,,
,,?,0.000805,0,,,,,,stimuli/images/PICTURE_380.png,DEATH,5e08b939f9e7501c6b40c650,24/11/1988,2020-09-02_12h29.23.174,proactive3.1,2020.1.2,Win32,60,5f47c29a48bd2a1e651a6eb7,5f4f816fa8de8e03e80a9632,4,,,,,,gorilla,,,,,,,,,,,5,0,0,30,30,49,1,,,,,,,,,,,,,,,,,,,,,,,,,,,,,,,,,,,,,,,,,,,,,,,,,,,,,,,,,,,,,,,,,,,,,,,,,,,,,,,,,,,,,,,,,,,,,,,,,,,,,,,,
,,?,0.000805,0,,,,,,stimuli/images/PICTURE_255.png,AREA,5e08b939f9e7501c6b40c650,24/11/1988,2020-09-02_12h29.23.174,proactive3.1,2020.1.2,Win32,60,5f47c29a48bd2a1e651a6eb7,5f4f816fa8de8e03e80a9632,4,,,,,,shovel,,,,,,,,,,,3,0,0,31,31,22,1,,,,,,,,,,,,,,,,,,,,,,,,,,,,,,,,,,,,,,,,,,,,,,,,,,,,,,,,,,,,,,,,,,,,,,,,,,,,,,,,,,,,,,,,,,,,,,,,,,,,,,,,
,,?,0.00088,0,,,,,,stimuli/images/PICTURE_667.png,BATH,5e08b939f9e7501c6b40c650,24/11/1988,2020-09-02_12h29.23.174,proactive3.1,2020.1.2,Win32,60,5f47c29a48bd2a1e651a6eb7,5f4f816fa8de8e03e80a9632,4,,,,,,daisy,,,,,,,,,,,1,0,0,32,32,4,1,,,,,,,,,,,,,,,,,,,,,,,,,,,,,,,,,,,,,,,,,,,,,,,,,,,,,,,,,,,,,,,,,,,,,,,,,,,,,,,,,,,,,,,,,,,,,,,,,,,,,,,,
,,?,0.000775,0,,,,,,stimuli/images/PICTURE_123.png,ADVICE,5e08b939f9e7501c6b40c650,24/11/1988,2020-09-02_12h29.23.174,proactive3.1,2020.1.2,Win32,60,5f47c29a48bd2a1e651a6eb7,5f4f816fa8de8e03e80a9632,4,,,,,,dart,,,,,,,,,,,5,0,0,33,33,40,1,,,,,,,,,,,,,,,,,,,,,,,,,,,,,,,,,,,,,,,,,,,,,,,,,,,,,,,,,,,,,,,,,,,,,,,,,,,,,,,,,,,,,,,,,,,,,,,,,,,,,,,,
,,?,0.000815,0,,,,,,stimuli/images/PICTURE_504.png,BODY,5e08b939f9e7501c6b40c650,24/11/1988,2020-09-02_12h29.23.174,proactive3.1,2020.1.2,Win32,60,5f47c29a48bd2a1e651a6eb7,5f4f816fa8de8e03e80a9632,4,,,,,,wheel,,,,,,,,,,,1,0,0,34,34,8,1,,,,,,,,,,,,,,,,,,,,,,,,,,,,,,,,,,,,,,,,,,,,,,,,,,,,,,,,,,,,,,,,,,,,,,,,,,,,,,,,,,,,,,,,,,,,,,,,,,,,,,,,
,,?,0.000845,0,,,,,,stimuli/images/PICTURE_68.png,MILE,5e08b939f9e7501c6b40c650,24/11/1988,2020-09-02_12h29.23.174,proactive3.1,2020.1.2,Win32,60,5f47c29a48bd2a1e651a6eb7,5f4f816fa8de8e03e80a9632,4,,,,,,candle,,,,,,,,,,,5,0,0,35,35,44,1,,,,,,,,,,,,,,,,,,,,,,,,,,,,,,,,,,,,,,,,,,,,,,,,,,,,,,,,,,,,,,,,,,,,,,,,,,,,,,,,,,,,,,,,,,,,,,,,,,,,,,,,
,,?,0.000935,0,,,,,,stimuli/images/PICTURE_692.png,MONTH,5e08b939f9e7501c6b40c650,24/11/1988,2020-09-02_12h29.23.174,proactive3.1,2020.1.2,Win32,60,5f47c29a48bd2a1e651a6eb7,5f4f816fa8de8e03e80a9632,4,,,,,,cherry,,,,,,,,,,,2,0,0,36,36,16,1,,,,,,,,,,,,,,,,,,,,,,,,,,,,,,,,,,,,,,,,,,,,,,,,,,,,,,,,,,,,,,,,,,,,,,,,,,,,,,,,,,,,,,,,,,,,,,,,,,,,,,,,
,,?,0.002385,0,,,,,,stimuli/images/PICTURE_708.png,YARD,5e08b939f9e7501c6b40c650,24/11/1988,2020-09-02_12h29.23.174,proactive3.1,2020.1.2,Win32,60,5f47c29a48bd2a1e651a6eb7,5f4f816fa8de8e03e80a9632,4,,,,,,monkey,,,,,,,,,,,3,0,0,37,37,29,1,,,,,,,,,,,,,,,,,,,,,,,,,,,,,,,,,,,,,,,,,,,,,,,,,,,,,,,,,,,,,,,,,,,,,,,,,,,,,,,,,,,,,,,,,,,,,,,,,,,,,,,,
,,?,0.000795,0,,,,,,stimuli/images/PICTURE_339.png,PLENTY,5e08b939f9e7501c6b40c650,24/11/1988,2020-09-02_12h29.23.174,proactive3.1,2020.1.2,Win32,60,5f47c29a48bd2a1e651a6eb7,5f4f816fa8de8e03e80a9632,4,,,,,,backpack,,,,,,,,,,,1,0,0,38,38,0,1,,,,,,,,,,,,,,,,,,,,,,,,,,,,,,,,,,,,,,,,,,,,,,,,,,,,,,,,,,,,,,,,,,,,,,,,,,,,,,,,,,,,,,,,,,,,,,,,,,,,,,,,
,,?,0.00188,0,,,,,,stimuli/images/PICTURE_453.png,DUDE,5e08b939f9e7501c6b40c650,24/11/1988,2020-09-02_12h29.23.174,proactive3.1,2020.1.2,Win32,60,5f47c29a48bd2a1e651a6eb7,5f4f816fa8de8e03e80a9632,4,,,,,,scissors,,,,,,,,,,,3,0,0,39,39,27,1,,,,,,,,,,,,,,,,,,,,,,,,,,,,,,,,,,,,,,,,,,,,,,,,,,,,,,,,,,,,,,,,,,,,,,,,,,,,,,,,,,,,,,,,,,,,,,,,,,,,,,,,
,,?,0.001005,0,,,,,,stimuli/images/PICTURE_308.png,KIND,5e08b939f9e7501c6b40c650,24/11/1988,2020-09-02_12h29.23.174,proactive3.1,2020.1.2,Win32,60,5f47c29a48bd2a1e651a6eb7,5f4f816fa8de8e03e80a9632,4,,,,,,dice,,,,,,,,,,,6,0,0,40,40,54,1,,,,,,,,,,,,,,,,,,,,,,,,,,,,,,,,,,,,,,,,,,,,,,,,,,,,,,,,,,,,,,,,,,,,,,,,,,,,,,,,,,,,,,,,,,,,,,,,,,,,,,,,
,,?,2.459085,0,,,,,,stimuli/images/PICTURE_470.png,CASINO,5e08b939f9e7501c6b40c650,24/11/1988,2020-09-02_12h29.23.174,proactive3.1,2020.1.2,Win32,60,5f47c29a48bd2a1e651a6eb7,5f4f816fa8de8e03e80a9632,4,,,,,,motorbike,,,,,,,,,,,4,0,0,41,41,36,1,,,,,,,,,,,,,,,,,,,,,,,,,,,,,,,,,,,,,,,,,,,,,,,,,,,,,,,,,,,,,,,,,,,,,,,,,,,,,,,,,,,,,,,,,,,,,,,,,,,,,,,,
,,FRIEND,3.41551,1,,,,,,stimuli/images/PICTURE_311.png,FRIEND,5e08b939f9e7501c6b40c650,24/11/1988,2020-09-02_12h29.23.174,proactive3.1,2020.1.2,Win32,60,5f47c29a48bd2a1e651a6eb7,5f4f816fa8de8e03e80a9632,4,,,,,,razor,,,,,,,,,,,4,0,0,42,42,34,1,,,,,,,,,,,,,,,,,,,,,,,,,,,,,,,,,,,,,,,,,,,,,,,,,,,,,,,,,,,,,,,,,,,,,,,,,,,,,,,,,,,,,,,,,,,,,,,,,,,,,,,,
,,?,0.003025,0,,,,,,stimuli/images/PICTURE_453.png,PLENTY,5e08b939f9e7501c6b40c650,24/11/1988,2020-09-02_12h29.23.174,proactive3.1,2020.1.2,Win32,60,5f47c29a48bd2a1e651a6eb7,5f4f816fa8de8e03e80a9632,4,,,,,,scissors,,,,,,,,,,,6,0,0,43,43,56,1,,,,,,,,,,,,,,,,,,,,,,,,,,,,,,,,,,,,,,,,,,,,,,,,,,,,,,,,,,,,,,,,,,,,,,,,,,,,,,,,,,,,,,,,,,,,,,,,,,,,,,,,
,,?,0.001645,0,,,,,,stimuli/images/PICTURE_32.png,JUNGLE,5e08b939f9e7501c6b40c650,24/11/1988,2020-09-02_12h29.23.174,proactive3.1,2020.1.2,Win32,60,5f47c29a48bd2a1e651a6eb7,5f4f816fa8de8e03e80a9632,4,,,,,,crown,,,,,,,,,,,5,0,0,44,44,45,1,,,,,,,,,,,,,,,,,,,,,,,,,,,,,,,,,,,,,,,,,,,,,,,,,,,,,,,,,,,,,,,,,,,,,,,,,,,,,,,,,,,,,,,,,,,,,,,,,,,,,,,,
,,?,0.0016,0,,,,,,stimuli/images/PICTURE_208.png,MONTH,5e08b939f9e7501c6b40c650,24/11/1988,2020-09-02_12h29.23.174,proactive3.1,2020.1.2,Win32,60,5f47c29a48bd2a1e651a6eb7,5f4f816fa8de8e03e80a9632,4,,,,,,microphone,,,,,,,,,,,6,0,0,45,45,53,1,,,,,,,,,,,,,,,,,,,,,,,,,,,,,,,,,,,,,,,,,,,,,,,,,,,,,,,,,,,,,,,,,,,,,,,,,,,,,,,,,,,,,,,,,,,,,,,,,,,,,,,,
,,?,0.00166,0,,,,,,stimuli/images/PICTURE_491.png,WRITER,5e08b939f9e7501c6b40c650,24/11/1988,2020-09-02_12h29.23.174,proactive3.1,2020.1.2,Win32,60,5f47c29a48bd2a1e651a6eb7,5f4f816fa8de8e03e80a9632,4,,,,,,rug,,,,,,,,,,,6,0,0,46,46,57,1,,,,,,,,,,,,,,,,,,,,,,,,,,,,,,,,,,,,,,,,,,,,,,,,,,,,,,,,,,,,,,,,,,,,,,,,,,,,,,,,,,,,,,,,,,,,,,,,,,,,,,,,
,,?,0.00163,0,,,,,,stimuli/images/PICTURE_708.png,CLIENT,5e08b939f9e7501c6b40c650,24/11/1988,2020-09-02_12h29.23.174,proactive3.1,2020.1.2,Win32,60,5f47c29a48bd2a1e651a6eb7,5f4f816fa8de8e03e80a9632,4,,,,,,monkey,,,,,,,,,,,1,0,0,47,47,5,1,,,,,,,,,,,,,,,,,,,,,,,,,,,,,,,,,,,,,,,,,,,,,,,,,,,,,,,,,,,,,,,,,,,,,,,,,,,,,,,,,,,,,,,,,,,,,,,,,,,,,,,,
,,CARS,2.118225,1,,,,,,stimuli/images/PICTURE_177.png,CARS,5e08b939f9e7501c6b40c650,24/11/1988,2020-09-02_12h29.23.174,proactive3.1,2020.1.2,Win32,60,5f47c29a48bd2a1e651a6eb7,5f4f816fa8de8e03e80a9632,4,,,,,,mushroom,,,,,,,,,,,4,0,0,48,48,35,1,,,,,,,,,,,,,,,,,,,,,,,,,,,,,,,,,,,,,,,,,,,,,,,,,,,,,,,,,,,,,,,,,,,,,,,,,,,,,,,,,,,,,,,,,,,,,,,,,,,,,,,,
,,?,0.002015,0,,,,,,stimuli/images/PICTURE_147.png,MOMENT,5e08b939f9e7501c6b40c650,24/11/1988,2020-09-02_12h29.23.174,proactive3.1,2020.1.2,Win32,60,5f47c29a48bd2a1e651a6eb7,5f4f816fa8de8e03e80a9632,4,,,,,,hanger,,,,,,,,,,,6,0,0,49,49,51,1,,,,,,,,,,,,,,,,,,,,,,,,,,,,,,,,,,,,,,,,,,,,,,,,,,,,,,,,,,,,,,,,,,,,,,,,,,,,,,,,,,,,,,,,,,,,,,,,,,,,,,,,
,,?,2.564535,0,,,,,,stimuli/images/PICTURE_248.png,DOZEN,5e08b939f9e7501c6b40c650,24/11/1988,2020-09-02_12h29.23.174,proactive3.1,2020.1.2,Win32,60,5f47c29a48bd2a1e651a6eb7,5f4f816fa8de8e03e80a9632,4,,,,,,cart,,,,,,,,,,,4,0,0,50,50,39,1,,,,,,,,,,,,,,,,,,,,,,,,,,,,,,,,,,,,,,,,,,,,,,,,,,,,,,,,,,,,,,,,,,,,,,,,,,,,,,,,,,,,,,,,,,,,,,,,,,,,,,,,
,,STYLE,2.21148,1,,,,,,stimuli/images/PICTURE_488.png,STYLE,5e08b939f9e7501c6b40c650,24/11/1988,2020-09-02_12h29.23.174,proactive3.1,2020.1.2,Win32,60,5f47c29a48bd2a1e651a6eb7,5f4f816fa8de8e03e80a9632,4,,,,,,sun,,,,,,,,,,,4,0,0,51,51,33,1,,,,,,,,,,,,,,,,,,,,,,,,,,,,,,,,,,,,,,,,,,,,,,,,,,,,,,,,,,,,,,,,,,,,,,,,,,,,,,,,,,,,,,,,,,,,,,,,,,,,,,,,
,,?,0.002625,0,,,,,,stimuli/images/PICTURE_688.png,WOMEN,5e08b939f9e7501c6b40c650,24/11/1988,2020-09-02_12h29.23.174,proactive3.1,2020.1.2,Win32,60,5f47c29a48bd2a1e651a6eb7,5f4f816fa8de8e03e80a9632,4,,,,,,runner,,,,,,,,,,,2,0,0,52,52,14,1,,,,,,,,,,,,,,,,,,,,,,,,,,,,,,,,,,,,,,,,,,,,,,,,,,,,,,,,,,,,,,,,,,,,,,,,,,,,,,,,,,,,,,,,,,,,,,,,,,,,,,,,
,,?,0.001645,0,,,,,,stimuli/images/PICTURE_509.png,PHOTO,5e08b939f9e7501c6b40c650,24/11/1988,2020-09-02_12h29.23.174,proactive3.1,2020.1.2,Win32,60,5f47c29a48bd2a1e651a6eb7,5f4f816fa8de8e03e80a9632,4,,,,,,telephone,,,,,,,,,,,3,0,0,53,53,21,1,,,,,,,,,,,,,,,,,,,,,,,,,,,,,,,,,,,,,,,,,,,,,,,,,,,,,,,,,,,,,,,,,,,,,,,,,,,,,,,,,,,,,,,,,,,,,,,,,,,,,,,,
,,?,0.00156,0,,,,,,stimuli/images/PICTURE_688.png,CASINO,5e08b939f9e7501c6b40c650,24/11/1988,2020-09-02_12h29.23.174,proactive3.1,2020.1.2,Win32,60,5f47c29a48bd2a1e651a6eb7,5f4f816fa8de8e03e80a9632,4,,,,,,runner,,,,,,,,,,,1,0,0,54,54,2,1,,,,,,,,,,,,,,,,,,,,,,,,,,,,,,,,,,,,,,,,,,,,,,,,,,,,,,,,,,,,,,,,,,,,,,,,,,,,,,,,,,,,,,,,,,,,,,,,,,,,,,,,
,,?,0.002135,0,,,,,,stimuli/images/PICTURE_160.png,FEET,5e08b939f9e7501c6b40c650,24/11/1988,2020-09-02_12h29.23.174,proactive3.1,2020.1.2,Win32,60,5f47c29a48bd2a1e651a6eb7,5f4f816fa8de8e03e80a9632,4,,,,,,wheelbarrow,,,,,,,,,,,6,0,0,55,55,58,1,,,,,,,,,,,,,,,,,,,,,,,,,,,,,,,,,,,,,,,,,,,,,,,,,,,,,,,,,,,,,,,,,,,,,,,,,,,,,,,,,,,,,,,,,,,,,,,,,,,,,,,,
,,?,0.001835,0,,,,,,stimuli/images/PICTURE_302.png,FAMILY,5e08b939f9e7501c6b40c650,24/11/1988,2020-09-02_12h29.23.174,proactive3.1,2020.1.2,Win32,60,5f47c29a48bd2a1e651a6eb7,5f4f816fa8de8e03e80a9632,4,,,,,,taxi,,,,,,,,,,,2,0,0,56,56,18,1,,,,,,,,,,,,,,,,,,,,,,,,,,,,,,,,,,,,,,,,,,,,,,,,,,,,,,,,,,,,,,,,,,,,,,,,,,,,,,,,,,,,,,,,,,,,,,,,,,,,,,,,
,,?,0.001155,0,,,,,,stimuli/images/PICTURE_95.png,STYLE,5e08b939f9e7501c6b40c650,24/11/1988,2020-09-02_12h29.23.174,proactive3.1,2020.1.2,Win32,60,5f47c29a48bd2a1e651a6eb7,5f4f816fa8de8e03e80a9632,4,,,,,,suitcase,,,,,,,,,,,3,0,0,57,57,25,1,,,,,,,,,,,,,,,,,,,,,,,,,,,,,,,,,,,,,,,,,,,,,,,,,,,,,,,,,,,,,,,,,,,,,,,,,,,,,,,,,,,,,,,,,,,,,,,,,,,,,,,,
,,?,0.002225,0,,,,,,stimuli/images/PICTURE_208.png,LOTS,5e08b939f9e7501c6b40c650,24/11/1988,2020-09-02_12h29.23.174,proactive3.1,2020.1.2,Win32,60,5f47c29a48bd2a1e651a6eb7,5f4f816fa8de8e03e80a9632,4,,,,,,microphone,,,,,,,,,,,2,0,0,58,58,10,1,,,,,,,,,,,,,,,,,,,,,,,,,,,,,,,,,,,,,,,,,,,,,,,,,,,,,,,,,,,,,,,,,,,,,,,,,,,,,,,,,,,,,,,,,,,,,,,,,,,,,,,,
,,?,0.001395,0,,,,,,stimuli/images/PICTURE_667.png,PLENTY,5e08b939f9e7501c6b40c650,24/11/1988,2020-09-02_12h29.23.174,proactive3.1,2020.1.2,Win32,60,5f47c29a48bd2a1e651a6eb7,5f4f816fa8de8e03e80a9632,4,,,,,,daisy,,,,,,,,,,,5,0,0,59,59,41,1,,,,,,,,,,,,,,,,,,,,,,,,,,,,,,,,,,,,,,,,,,,,,,,,,,,,,,,,,,,,,,,,,,,,,,,,,,,,,,,,,,,,,,,,,,,,,,,,,,,,,,,,
,,,,,,,,,,,,5e08b939f9e7501c6b40c650,24/11/1988,2020-09-02_12h29.23.174,proactive3.1,2020.1.2,Win32,60,5f47c29a48bd2a1e651a6eb7,5f4f816fa8de8e03e80a9632,4,,,,,,,,,,,,,,,,,,,,,,,,0,0,0,0,1,stimuli/learn-block1.csv,,,,,,,,,,,,,,,,,,,,,,,,,,,,,,,,,,,,,,,,,,,,,,,,,,,,,,,,,,,,,,,,,,,,,,,,,,,,,,,,,,,,,,,,,,,,,,,,,,
,,,,,,,,,,stimuli/images/PICTURE_314.png,SPEECH,5e08b939f9e7501c6b40c650,24/11/1988,2020-09-02_12h29.23.174,proactive3.1,2020.1.2,Win32,60,5f47c29a48bd2a1e651a6eb7,5f4f816fa8de8e03e80a9632,4,,,,,,perfume,,,,,,0,0,0,35,1,4,2,,,,,,,,,,,,,,,,,,,,,,,,,,,,,,,,,,,,,,,,,,,,,,,,,,,,,,,,,,,,,,,,,,,,,,,,,,,,,,,,,,,,,,,,,,,,,,,,,,,,,,,,,,,,,
,,,,,,,,,,stimuli/images/PICTURE_470.png,MOMENT,5e08b939f9e7501c6b40c650,24/11/1988,2020-09-02_12h29.23.174,proactive3.1,2020.1.2,Win32,60,5f47c29a48bd2a1e651a6eb7,5f4f816fa8de8e03e80a9632,4,,,,,,motorbike,,,,,,0,1,1,40,1,5,2,,,,,,,,,,,,,,,,,,,,,,,,,,,,,,,,,,,,,,,,,,,,,,,,,,,,,,,,,,,,,,,,,,,,,,,,,,,,,,,,,,,,,,,,,,,,,,,,,,,,,,,,,,,,,
,,,,,,,,,,stimuli/images/PICTURE_57.png,CANDY,5e08b939f9e7501c6b40c650,24/11/1988,2020-09-02_12h29.23.174,proactive3.1,2020.1.2,Win32,60,5f47c29a48bd2a1e651a6eb7,5f4f816fa8de8e03e80a9632,4,,,,,,stamp,,,,,,0,2,2,52,1,6,2,,,,,,,,,,,,,,,,,,,,,,,,,,,,,,,,,,,,,,,,,,,,,,,,,,,,,,,,,,,,,,,,,,,,,,,,,,,,,,,,,,,,,,,,,,,,,,,,,,,,,,,,,,,,,
,,,,,,,,,,stimuli/images/PICTURE_215.png,FOOD,5e08b939f9e7501c6b40c650,24/11/1988,2020-09-02_12h29.23.174,proactive3.1,2020.1.2,Win32,60,5f47c29a48bd2a1e651a6eb7,5f4f816fa8de8e03e80a9632,4,,,,,,boot,,,,,,0,3,3,5,1,1,2,,,,,,,,,,,,,,,,,,,,,,,,,,,,,,,,,,,,,,,,,,,,,,,,,,,,,,,,,,,,,,,,,,,,,,,,,,,,,,,,,,,,,,,,,,,,,,,,,,,,,,,,,,,,,
,,,,,,,,,,stimuli/images/PICTURE_147.png,LEADER,5e08b939f9e7501c6b40c650,24/11/1988,2020-09-02_12h29.23.174,proactive3.1,2020.1.2,Win32,60,5f47c29a48bd2a1e651a6eb7,5f4f816fa8de8e03e80a9632,4,,,,,,hanger,,,,,,0,4,4,33,1,4,2,,,,,,,,,,,,,,,,,,,,,,,,,,,,,,,,,,,,,,,,,,,,,,,,,,,,,,,,,,,,,,,,,,,,,,,,,,,,,,,,,,,,,,,,,,,,,,,,,,,,,,,,,,,,,
,,,,,,,,,,stimuli/images/PICTURE_509.png,SHOTS,5e08b939f9e7501c6b40c650,24/11/1988,2020-09-02_12h29.23.174,proactive3.1,2020.1.2,Win32,60,5f47c29a48bd2a1e651a6eb7,5f4f816fa8de8e03e80a9632,4,,,,,,telephone,,,,,,0,5,5,7,1,1,2,,,,,,,,,,,,,,,,,,,,,,,,,,,,,,,,,,,,,,,,,,,,,,,,,,,,,,,,,,,,,,,,,,,,,,,,,,,,,,,,,,,,,,,,,,,,,,,,,,,,,,,,,,,,,
,,,,,,,,,,stimuli/images/PICTURE_95.png,NIGHT,5e08b939f9e7501c6b40c650,24/11/1988,2020-09-02_12h29.23.174,proactive3.1,2020.1.2,Win32,60,5f47c29a48bd2a1e651a6eb7,5f4f816fa8de8e03e80a9632,4,,,,,,suitcase,,,,,,0,6,6,37,1,4,2,,,,,,,,,,,,,,,,,,,,,,,,,,,,,,,,,,,,,,,,,,,,,,,,,,,,,,,,,,,,,,,,,,,,,,,,,,,,,,,,,,,,,,,,,,,,,,,,,,,,,,,,,,,,,
,,,,,,,,,,stimuli/images/PICTURE_405.png,JUNGLE,5e08b939f9e7501c6b40c650,24/11/1988,2020-09-02_12h29.23.174,proactive3.1,2020.1.2,Win32,60,5f47c29a48bd2a1e651a6eb7,5f4f816fa8de8e03e80a9632,4,,,,,,anchor,,,,,,0,7,7,13,1,2,2,,,,,,,,,,,,,,,,,,,,,,,,,,,,,,,,,,,,,,,,,,,,,,,,,,,,,,,,,,,,,,,,,,,,,,,,,,,,,,,,,,,,,,,,,,,,,,,,,,,,,,,,,,,,,
,,,,,,,,,,stimuli/images/PICTURE_509.png,BATH,5e08b939f9e7501c6b40c650,24/11/1988,2020-09-02_12h29.23.174,proactive3.1,2020.1.2,Win32,60,5f47c29a48bd2a1e651a6eb7,5f4f816fa8de8e03e80a9632,4,,,,,,telephone,,,,,,0,8,8,15,1,2,2,,,,,,,,,,,,,,,,,,,,,,,,,,,,,,,,,,,,,,,,,,,,,,,,,,,,,,,,,,,,,,,,,,,,,,,,,,,,,,,,,,,,,,,,,,,,,,,,,,,,,,,,,,,,,
,,,,,,,,,,stimuli/images/PICTURE_285.png,PRINCE,5e08b939f9e7501c6b40c650,24/11/1988,2020-09-02_12h29.23.174,proactive3.1,2020.1.2,Win32,60,5f47c29a48bd2a1e651a6eb7,5f4f816fa8de8e03e80a9632,4,,,,,,carrot,,,,,,0,9,9,20,1,3,2,,,,,,,,,,,,,,,,,,,,,,,,,,,,,,,,,,,,,,,,,,,,,,,,,,,,,,,,,,,,,,,,,,,,,,,,,,,,,,,,,,,,,,,,,,,,,,,,,,,,,,,,,,,,,
,,,,,,,,,,stimuli/images/PICTURE_708.png,VALLEY,5e08b939f9e7501c6b40c650,24/11/1988,2020-09-02_12h29.23.174,proactive3.1,2020.1.2,Win32,60,5f47c29a48bd2a1e651a6eb7,5f4f816fa8de8e03e80a9632,4,,,,,,monkey,,,,,,0,10,10,45,1,5,2,,,,,,,,,,,,,,,,,,,,,,,,,,,,,,,,,,,,,,,,,,,,,,,,,,,,,,,,,,,,,,,,,,,,,,,,,,,,,,,,,,,,,,,,,,,,,,,,,,,,,,,,,,,,,
,,,,,,,,,,stimuli/images/PICTURE_18.png,RIVER,5e08b939f9e7501c6b40c650,24/11/1988,2020-09-02_12h29.23.174,proactive3.1,2020.1.2,Win32,60,5f47c29a48bd2a1e651a6eb7,5f4f816fa8de8e03e80a9632,4,,,,,,planet,,,,,,0,11,11,22,1,3,2,,,,,,,,,,,,,,,,,,,,,,,,,,,,,,,,,,,,,,,,,,,,,,,,,,,,,,,,,,,,,,,,,,,,,,,,,,,,,,,,,,,,,,,,,,,,,,,,,,,,,,,,,,,,,
,,,,,,,,,,stimuli/images/PICTURE_327.png,LEADER,5e08b939f9e7501c6b40c650,24/11/1988,2020-09-02_12h29.23.174,proactive3.1,2020.1.2,Win32,60,5f47c29a48bd2a1e651a6eb7,5f4f816fa8de8e03e80a9632,4,,,,,,helmet,,,,,,0,12,12,17,1,2,2,,,,,,,,,,,,,,,,,,,,,,,,,,,,,,,,,,,,,,,,,,,,,,,,,,,,,,,,,,,,,,,,,,,,,,,,,,,,,,,,,,,,,,,,,,,,,,,,,,,,,,,,,,,,,
,,,,,,,,,,stimuli/images/PICTURE_487.png,POLICY,5e08b939f9e7501c6b40c650,24/11/1988,2020-09-02_12h29.23.174,proactive3.1,2020.1.2,Win32,60,5f47c29a48bd2a1e651a6eb7,5f4f816fa8de8e03e80a9632,4,,,,,,basket,,,,,,0,13,13,34,1,4,2,,,,,,,,,,,,,,,,,,,,,,,,,,,,,,,,,,,,,,,,,,,,,,,,,,,,,,,,,,,,,,,,,,,,,,,,,,,,,,,,,,,,,,,,,,,,,,,,,,,,,,,,,,,,,
,,,,,,,,,,stimuli/images/PICTURE_2.png,AREA,5e08b939f9e7501c6b40c650,24/11/1988,2020-09-02_12h29.23.174,proactive3.1,2020.1.2,Win32,60,5f47c29a48bd2a1e651a6eb7,5f4f816fa8de8e03e80a9632,4,,,,,,tyre,,,,,,0,14,14,32,1,4,2,,,,,,,,,,,,,,,,,,,,,,,,,,,,,,,,,,,,,,,,,,,,,,,,,,,,,,,,,,,,,,,,,,,,,,,,,,,,,,,,,,,,,,,,,,,,,,,,,,,,,,,,,,,,,
,,,,,,,,,,stimuli/images/PICTURE_688.png,CLOCK,5e08b939f9e7501c6b40c650,24/11/1988,2020-09-02_12h29.23.174,proactive3.1,2020.1.2,Win32,60,5f47c29a48bd2a1e651a6eb7,5f4f816fa8de8e03e80a9632,4,,,,,,runner,,,,,,0,15,15,42,1,5,2,,,,,,,,,,,,,,,,,,,,,,,,,,,,,,,,,,,,,,,,,,,,,,,,,,,,,,,,,,,,,,,,,,,,,,,,,,,,,,,,,,,,,,,,,,,,,,,,,,,,,,,,,,,,,
,,,,,,,,,,stimuli/images/PICTURE_677.png,FAMILY,5e08b939f9e7501c6b40c650,24/11/1988,2020-09-02_12h29.23.174,proactive3.1,2020.1.2,Win32,60,5f47c29a48bd2a1e651a6eb7,5f4f816fa8de8e03e80a9632,4,,,,,,map,,,,,,0,16,16,53,1,6,2,,,,,,,,,,,,,,,,,,,,,,,,,,,,,,,,,,,,,,,,,,,,,,,,,,,,,,,,,,,,,,,,,,,,,,,,,,,,,,,,,,,,,,,,,,,,,,,,,,,,,,,,,,,,,
,,,,,,,,,,stimuli/images/PICTURE_2.png,JUNGLE,5e08b939f9e7501c6b40c650,24/11/1988,2020-09-02_12h29.23.174,proactive3.1,2020.1.2,Win32,60,5f47c29a48bd2a1e651a6eb7,5f4f816fa8de8e03e80a9632,4,,,,,,tyre,,,,,,0,17,17,1,1,1,2,,,,,,,,,,,,,,,,,,,,,,,,,,,,,,,,,,,,,,,,,,,,,,,,,,,,,,,,,,,,,,,,,,,,,,,,,,,,,,,,,,,,,,,,,,,,,,,,,,,,,,,,,,,,,
,,,,,,,,,,stimuli/images/PICTURE_405.png,JUNGLE,5e08b939f9e7501c6b40c650,24/11/1988,2020-09-02_12h29.23.174,proactive3.1,2020.1.2,Win32,60,5f47c29a48bd2a1e651a6eb7,5f4f816fa8de8e03e80a9632,4,,,,,,anchor,,,,,,0,18,18,58,1,6,2,,,,,,,,,,,,,,,,,,,,,,,,,,,,,,,,,,,,,,,,,,,,,,,,,,,,,,,,,,,,,,,,,,,,,,,,,,,,,,,,,,,,,,,,,,,,,,,,,,,,,,,,,,,,,
,,,,,,,,,,stimuli/images/PICTURE_692.png,DUDE,5e08b939f9e7501c6b40c650,24/11/1988,2020-09-02_12h29.23.174,proactive3.1,2020.1.2,Win32,60,5f47c29a48bd2a1e651a6eb7,5f4f816fa8de8e03e80a9632,4,,,,,,cherry,,,,,,0,19,19,47,1,5,2,,,,,,,,,,,,,,,,,,,,,,,,,,,,,,,,,,,,,,,,,,,,,,,,,,,,,,,,,,,,,,,,,,,,,,,,,,,,,,,,,,,,,,,,,,,,,,,,,,,,,,,,,,,,,
,,,,,,,,,,stimuli/images/PICTURE_93.png,GIRL,5e08b939f9e7501c6b40c650,24/11/1988,2020-09-02_12h29.23.174,proactive3.1,2020.1.2,Win32,60,5f47c29a48bd2a1e651a6eb7,5f4f816fa8de8e03e80a9632,4,,,,,,skateboard,,,,,,0,20,20,31,1,4,2,,,,,,,,,,,,,,,,,,,,,,,,,,,,,,,,,,,,,,,,,,,,,,,,,,,,,,,,,,,,,,,,,,,,,,,,,,,,,,,,,,,,,,,,,,,,,,,,,,,,,,,,,,,,,
,,,,,,,,,,stimuli/images/PICTURE_655.png,SALE,5e08b939f9e7501c6b40c650,24/11/1988,2020-09-02_12h29.23.174,proactive3.1,2020.1.2,Win32,60,5f47c29a48bd2a1e651a6eb7,5f4f816fa8de8e03e80a9632,4,,,,,,megaphone,,,,,,0,21,21,57,1,6,2,,,,,,,,,,,,,,,,,,,,,,,,,,,,,,,,,,,,,,,,,,,,,,,,,,,,,,,,,,,,,,,,,,,,,,,,,,,,,,,,,,,,,,,,,,,,,,,,,,,,,,,,,,,,,
,,,,,,,,,,stimuli/images/PICTURE_356.png,CANDY,5e08b939f9e7501c6b40c650,24/11/1988,2020-09-02_12h29.23.174,proactive3.1,2020.1.2,Win32,60,5f47c29a48bd2a1e651a6eb7,5f4f816fa8de8e03e80a9632,4,,,,,,pawn,,,,,,0,22,22,46,1,5,2,,,,,,,,,,,,,,,,,,,,,,,,,,,,,,,,,,,,,,,,,,,,,,,,,,,,,,,,,,,,,,,,,,,,,,,,,,,,,,,,,,,,,,,,,,,,,,,,,,,,,,,,,,,,,
,,,,,,,,,,stimuli/images/PICTURE_509.png,MILLER,5e08b939f9e7501c6b40c650,24/11/1988,2020-09-02_12h29.23.174,proactive3.1,2020.1.2,Win32,60,5f47c29a48bd2a1e651a6eb7,5f4f816fa8de8e03e80a9632,4,,,,,,telephone,,,,,,0,23,23,49,1,5,2,,,,,,,,,,,,,,,,,,,,,,,,,,,,,,,,,,,,,,,,,,,,,,,,,,,,,,,,,,,,,,,,,,,,,,,,,,,,,,,,,,,,,,,,,,,,,,,,,,,,,,,,,,,,,
,,,,,,,,,,stimuli/images/PICTURE_403.png,FAMILY,5e08b939f9e7501c6b40c650,24/11/1988,2020-09-02_12h29.23.174,proactive3.1,2020.1.2,Win32,60,5f47c29a48bd2a1e651a6eb7,5f4f816fa8de8e03e80a9632,4,,,,,,cathedral,,,,,,0,24,24,9,1,1,2,,,,,,,,,,,,,,,,,,,,,,,,,,,,,,,,,,,,,,,,,,,,,,,,,,,,,,,,,,,,,,,,,,,,,,,,,,,,,,,,,,,,,,,,,,,,,,,,,,,,,,,,,,,,,
,,,,,,,,,,stimuli/images/PICTURE_750.png,POLICY,5e08b939f9e7501c6b40c650,24/11/1988,2020-09-02_12h29.23.174,proactive3.1,2020.1.2,Win32,60,5f47c29a48bd2a1e651a6eb7,5f4f816fa8de8e03e80a9632,4,,,,,,kettle,,,,,,0,25,25,44,1,5,2,,,,,,,,,,,,,,,,,,,,,,,,,,,,,,,,,,,,,,,,,,,,,,,,,,,,,,,,,,,,,,,,,,,,,,,,,,,,,,,,,,,,,,,,,,,,,,,,,,,,,,,,,,,,,
,,,,,,,,,,stimuli/images/PICTURE_487.png,ROOF,5e08b939f9e7501c6b40c650,24/11/1988,2020-09-02_12h29.23.174,proactive3.1,2020.1.2,Win32,60,5f47c29a48bd2a1e651a6eb7,5f4f816fa8de8e03e80a9632,4,,,,,,basket,,,,,,0,26,26,50,1,6,2,,,,,,,,,,,,,,,,,,,,,,,,,,,,,,,,,,,,,,,,,,,,,,,,,,,,,,,,,,,,,,,,,,,,,,,,,,,,,,,,,,,,,,,,,,,,,,,,,,,,,,,,,,,,,
,,,,,,,,,,stimuli/images/PICTURE_57.png,CASINO,5e08b939f9e7501c6b40c650,24/11/1988,2020-09-02_12h29.23.174,proactive3.1,2020.1.2,Win32,60,5f47c29a48bd2a1e651a6eb7,5f4f816fa8de8e03e80a9632,4,,,,,,stamp,,,,,,0,27,27,12,1,2,2,,,,,,,,,,,,,,,,,,,,,,,,,,,,,,,,,,,,,,,,,,,,,,,,,,,,,,,,,,,,,,,,,,,,,,,,,,,,,,,,,,,,,,,,,,,,,,,,,,,,,,,,,,,,,
,,,,,,,,,,stimuli/images/PICTURE_68.png,KIND,5e08b939f9e7501c6b40c650,24/11/1988,2020-09-02_12h29.23.174,proactive3.1,2020.1.2,Win32,60,5f47c29a48bd2a1e651a6eb7,5f4f816fa8de8e03e80a9632,4,,,,,,candle,,,,,,0,28,28,23,1,3,2,,,,,,,,,,,,,,,,,,,,,,,,,,,,,,,,,,,,,,,,,,,,,,,,,,,,,,,,,,,,,,,,,,,,,,,,,,,,,,,,,,,,,,,,,,,,,,,,,,,,,,,,,,,,,
,,,,,,,,,,stimuli/images/PICTURE_32.png,LETTER,5e08b939f9e7501c6b40c650,24/11/1988,2020-09-02_12h29.23.174,proactive3.1,2020.1.2,Win32,60,5f47c29a48bd2a1e651a6eb7,5f4f816fa8de8e03e80a9632,4,,,,,,crown,,,,,,0,29,29,56,1,6,2,,,,,,,,,,,,,,,,,,,,,,,,,,,,,,,,,,,,,,,,,,,,,,,,,,,,,,,,,,,,,,,,,,,,,,,,,,,,,,,,,,,,,,,,,,,,,,,,,,,,,,,,,,,,,
,,,,,,,,,,stimuli/images/PICTURE_348.png,DUDE,5e08b939f9e7501c6b40c650,24/11/1988,2020-09-02_12h29.23.174,proactive3.1,2020.1.2,Win32,60,5f47c29a48bd2a1e651a6eb7,5f4f816fa8de8e03e80a9632,4,,,,,,pepper,,,,,,0,30,30,59,1,6,2,,,,,,,,,,,,,,,,,,,,,,,,,,,,,,,,,,,,,,,,,,,,,,,,,,,,,,,,,,,,,,,,,,,,,,,,,,,,,,,,,,,,,,,,,,,,,,,,,,,,,,,,,,,,,
,,,,,,,,,,stimuli/images/PICTURE_311.png,TOILET,5e08b939f9e7501c6b40c650,24/11/1988,2020-09-02_12h29.23.174,proactive3.1,2020.1.2,Win32,60,5f47c29a48bd2a1e651a6eb7,5f4f816fa8de8e03e80a9632,4,,,,,,razor,,,,,,0,31,31,54,1,6,2,,,,,,,,,,,,,,,,,,,,,,,,,,,,,,,,,,,,,,,,,,,,,,,,,,,,,,,,,,,,,,,,,,,,,,,,,,,,,,,,,,,,,,,,,,,,,,,,,,,,,,,,,,,,,
,,,,,,,,,,stimuli/images/PICTURE_509.png,APPLE,5e08b939f9e7501c6b40c650,24/11/1988,2020-09-02_12h29.23.174,proactive3.1,2020.1.2,Win32,60,5f47c29a48bd2a1e651a6eb7,5f4f816fa8de8e03e80a9632,4,,,,,,telephone,,,,,,0,32,32,38,1,4,2,,,,,,,,,,,,,,,,,,,,,,,,,,,,,,,,,,,,,,,,,,,,,,,,,,,,,,,,,,,,,,,,,,,,,,,,,,,,,,,,,,,,,,,,,,,,,,,,,,,,,,,,,,,,,
,,,,,,,,,,stimuli/images/PICTURE_215.png,BOYS,5e08b939f9e7501c6b40c650,24/11/1988,2020-09-02_12h29.23.174,proactive3.1,2020.1.2,Win32,60,5f47c29a48bd2a1e651a6eb7,5f4f816fa8de8e03e80a9632,4,,,,,,boot,,,,,,0,33,33,24,1,3,2,,,,,,,,,,,,,,,,,,,,,,,,,,,,,,,,,,,,,,,,,,,,,,,,,,,,,,,,,,,,,,,,,,,,,,,,,,,,,,,,,,,,,,,,,,,,,,,,,,,,,,,,,,,,,
,,,,,,,,,,stimuli/images/PICTURE_311.png,FLESH,5e08b939f9e7501c6b40c650,24/11/1988,2020-09-02_12h29.23.174,proactive3.1,2020.1.2,Win32,60,5f47c29a48bd2a1e651a6eb7,5f4f816fa8de8e03e80a9632,4,,,,,,razor,,,,,,0,34,34,3,1,1,2,,,,,,,,,,,,,,,,,,,,,,,,,,,,,,,,,,,,,,,,,,,,,,,,,,,,,,,,,,,,,,,,,,,,,,,,,,,,,,,,,,,,,,,,,,,,,,,,,,,,,,,,,,,,,
,,,,,,,,,,stimuli/images/PICTURE_285.png,WRITER,5e08b939f9e7501c6b40c650,24/11/1988,2020-09-02_12h29.23.174,proactive3.1,2020.1.2,Win32,60,5f47c29a48bd2a1e651a6eb7,5f4f816fa8de8e03e80a9632,4,,,,,,carrot,,,,,,0,35,35,6,1,1,2,,,,,,,,,,,,,,,,,,,,,,,,,,,,,,,,,,,,,,,,,,,,,,,,,,,,,,,,,,,,,,,,,,,,,,,,,,,,,,,,,,,,,,,,,,,,,,,,,,,,,,,,,,,,,
,,,,,,,,,,stimuli/images/PICTURE_160.png,HOTEL,5e08b939f9e7501c6b40c650,24/11/1988,2020-09-02_12h29.23.174,proactive3.1,2020.1.2,Win32,60,5f47c29a48bd2a1e651a6eb7,5f4f816fa8de8e03e80a9632,4,,,,,,wheelbarrow,,,,,,0,36,36,16,1,2,2,,,,,,,,,,,,,,,,,,,,,,,,,,,,,,,,,,,,,,,,,,,,,,,,,,,,,,,,,,,,,,,,,,,,,,,,,,,,,,,,,,,,,,,,,,,,,,,,,,,,,,,,,,,,,
,,,,,,,,,,stimuli/images/PICTURE_453.png,FAMILY,5e08b939f9e7501c6b40c650,24/11/1988,2020-09-02_12h29.23.174,proactive3.1,2020.1.2,Win32,60,5f47c29a48bd2a1e651a6eb7,5f4f816fa8de8e03e80a9632,4,,,,,,scissors,,,,,,0,37,37,48,1,5,2,,,,,,,,,,,,,,,,,,,,,,,,,,,,,,,,,,,,,,,,,,,,,,,,,,,,,,,,,,,,,,,,,,,,,,,,,,,,,,,,,,,,,,,,,,,,,,,,,,,,,,,,,,,,,
,,,,,,,,,,stimuli/images/PICTURE_677.png,PHOTO,5e08b939f9e7501c6b40c650,24/11/1988,2020-09-02_12h29.23.174,proactive3.1,2020.1.2,Win32,60,5f47c29a48bd2a1e651a6eb7,5f4f816fa8de8e03e80a9632,4,,,,,,map,,,,,,0,38,38,14,1,2,2,,,,,,,,,,,,,,,,,,,,,,,,,,,,,,,,,,,,,,,,,,,,,,,,,,,,,,,,,,,,,,,,,,,,,,,,,,,,,,,,,,,,,,,,,,,,,,,,,,,,,,,,,,,,,
,,,,,,,,,,stimuli/images/PICTURE_177.png,HOUSE,5e08b939f9e7501c6b40c650,24/11/1988,2020-09-02_12h29.23.174,proactive3.1,2020.1.2,Win32,60,5f47c29a48bd2a1e651a6eb7,5f4f816fa8de8e03e80a9632,4,,,,,,mushroom,,,,,,0,39,39,25,1,3,2,,,,,,,,,,,,,,,,,,,,,,,,,,,,,,,,,,,,,,,,,,,,,,,,,,,,,,,,,,,,,,,,,,,,,,,,,,,,,,,,,,,,,,,,,,,,,,,,,,,,,,,,,,,,,
,,,,,,,,,,stimuli/images/PICTURE_296.png,CLOCK,5e08b939f9e7501c6b40c650,24/11/1988,2020-09-02_12h29.23.174,proactive3.1,2020.1.2,Win32,60,5f47c29a48bd2a1e651a6eb7,5f4f816fa8de8e03e80a9632,4,,,,,,bolt,,,,,,0,40,40,18,1,2,2,,,,,,,,,,,,,,,,,,,,,,,,,,,,,,,,,,,,,,,,,,,,,,,,,,,,,,,,,,,,,,,,,,,,,,,,,,,,,,,,,,,,,,,,,,,,,,,,,,,,,,,,,,,,,
,,,,,,,,,,stimuli/images/PICTURE_215.png,LEADER,5e08b939f9e7501c6b40c650,24/11/1988,2020-09-02_12h29.23.174,proactive3.1,2020.1.2,Win32,60,5f47c29a48bd2a1e651a6eb7,5f4f816fa8de8e03e80a9632,4,,,,,,boot,,,,,,0,41,41,43,1,5,2,,,,,,,,,,,,,,,,,,,,,,,,,,,,,,,,,,,,,,,,,,,,,,,,,,,,,,,,,,,,,,,,,,,,,,,,,,,,,,,,,,,,,,,,,,,,,,,,,,,,,,,,,,,,,
,,,,,,,,,,stimuli/images/PICTURE_208.png,SPIRIT,5e08b939f9e7501c6b40c650,24/11/1988,2020-09-02_12h29.23.174,proactive3.1,2020.1.2,Win32,60,5f47c29a48bd2a1e651a6eb7,5f4f816fa8de8e03e80a9632,4,,,,,,microphone,,,,,,0,42,42,28,1,3,2,,,,,,,,,,,,,,,,,,,,,,,,,,,,,,,,,,,,,,,,,,,,,,,,,,,,,,,,,,,,,,,,,,,,,,,,,,,,,,,,,,,,,,,,,,,,,,,,,,,,,,,,,,,,,
,,,,,,,,,,stimuli/images/PICTURE_564.png,PLENTY,5e08b939f9e7501c6b40c650,24/11/1988,2020-09-02_12h29.23.174,proactive3.1,2020.1.2,Win32,60,5f47c29a48bd2a1e651a6eb7,5f4f816fa8de8e03e80a9632,4,,,,,,spoon,,,,,,0,43,43,11,1,2,2,,,,,,,,,,,,,,,,,,,,,,,,,,,,,,,,,,,,,,,,,,,,,,,,,,,,,,,,,,,,,,,,,,,,,,,,,,,,,,,,,,,,,,,,,,,,,,,,,,,,,,,,,,,,,
,,,,,,,,,,stimuli/images/PICTURE_491.png,SERIES,5e08b939f9e7501c6b40c650,24/11/1988,2020-09-02_12h29.23.174,proactive3.1,2020.1.2,Win32,60,5f47c29a48bd2a1e651a6eb7,5f4f816fa8de8e03e80a9632,4,,,,,,rug,,,,,,0,44,44,39,1,4,2,,,,,,,,,,,,,,,,,,,,,,,,,,,,,,,,,,,,,,,,,,,,,,,,,,,,,,,,,,,,,,,,,,,,,,,,,,,,,,,,,,,,,,,,,,,,,,,,,,,,,,,,,,,,,
,,,,,,,,,,stimuli/images/PICTURE_470.png,BEAUTY,5e08b939f9e7501c6b40c650,24/11/1988,2020-09-02_12h29.23.174,proactive3.1,2020.1.2,Win32,60,5f47c29a48bd2a1e651a6eb7,5f4f816fa8de8e03e80a9632,4,,,,,,motorbike,,,,,,0,45,45,26,1,3,2,,,,,,,,,,,,,,,,,,,,,,,,,,,,,,,,,,,,,,,,,,,,,,,,,,,,,,,,,,,,,,,,,,,,,,,,,,,,,,,,,,,,,,,,,,,,,,,,,,,,,,,,,,,,,
,,,,,,,,,,stimuli/images/PICTURE_452.png,COPS,5e08b939f9e7501c6b40c650,24/11/1988,2020-09-02_12h29.23.174,proactive3.1,2020.1.2,Win32,60,5f47c29a48bd2a1e651a6eb7,5f4f816fa8de8e03e80a9632,4,,,,,,watch,,,,,,0,46,46,0,1,1,2,,,,,,,,,,,,,,,,,,,,,,,,,,,,,,,,,,,,,,,,,,,,,,,,,,,,,,,,,,,,,,,,,,,,,,,,,,,,,,,,,,,,,,,,,,,,,,,,,,,,,,,,,,,,,
,,,,,,,,,,stimuli/images/PICTURE_348.png,TOILET,5e08b939f9e7501c6b40c650,24/11/1988,2020-09-02_12h29.23.174,proactive3.1,2020.1.2,Win32,60,5f47c29a48bd2a1e651a6eb7,5f4f816fa8de8e03e80a9632,4,,,,,,pepper,,,,,,0,47,47,4,1,1,2,,,,,,,,,,,,,,,,,,,,,,,,,,,,,,,,,,,,,,,,,,,,,,,,,,,,,,,,,,,,,,,,,,,,,,,,,,,,,,,,,,,,,,,,,,,,,,,,,,,,,,,,,,,,,
,,,,,,,,,,stimuli/images/PICTURE_57.png,NATION,5e08b939f9e7501c6b40c650,24/11/1988,2020-09-02_12h29.23.174,proactive3.1,2020.1.2,Win32,60,5f47c29a48bd2a1e651a6eb7,5f4f816fa8de8e03e80a9632,4,,,,,,stamp,,,,,,0,48,48,21,1,3,2,,,,,,,,,,,,,,,,,,,,,,,,,,,,,,,,,,,,,,,,,,,,,,,,,,,,,,,,,,,,,,,,,,,,,,,,,,,,,,,,,,,,,,,,,,,,,,,,,,,,,,,,,,,,,
,,,,,,,,,,stimuli/images/PICTURE_654.png,YEAR,5e08b939f9e7501c6b40c650,24/11/1988,2020-09-02_12h29.23.174,proactive3.1,2020.1.2,Win32,60,5f47c29a48bd2a1e651a6eb7,5f4f816fa8de8e03e80a9632,4,,,,,,pencil,,,,,,0,49,49,41,1,5,2,,,,,,,,,,,,,,,,,,,,,,,,,,,,,,,,,,,,,,,,,,,,,,,,,,,,,,,,,,,,,,,,,,,,,,,,,,,,,,,,,,,,,,,,,,,,,,,,,,,,,,,,,,,,,
,,,,,,,,,,stimuli/images/PICTURE_405.png,HOUSE,5e08b939f9e7501c6b40c650,24/11/1988,2020-09-02_12h29.23.174,proactive3.1,2020.1.2,Win32,60,5f47c29a48bd2a1e651a6eb7,5f4f816fa8de8e03e80a9632,4,,,,,,anchor,,,,,,0,50,50,2,1,1,2,,,,,,,,,,,,,,,,,,,,,,,,,,,,,,,,,,,,,,,,,,,,,,,,,,,,,,,,,,,,,,,,,,,,,,,,,,,,,,,,,,,,,,,,,,,,,,,,,,,,,,,,,,,,,
,,,,,,,,,,stimuli/images/PICTURE_654.png,COPS,5e08b939f9e7501c6b40c650,24/11/1988,2020-09-02_12h29.23.174,proactive3.1,2020.1.2,Win32,60,5f47c29a48bd2a1e651a6eb7,5f4f816fa8de8e03e80a9632,4,,,,,,pencil,,,,,,0,51,51,10,1,2,2,,,,,,,,,,,,,,,,,,,,,,,,,,,,,,,,,,,,,,,,,,,,,,,,,,,,,,,,,,,,,,,,,,,,,,,,,,,,,,,,,,,,,,,,,,,,,,,,,,,,,,,,,,,,,
,,,,,,,,,,stimuli/images/PICTURE_123.png,SALE,5e08b939f9e7501c6b40c650,24/11/1988,2020-09-02_12h29.23.174,proactive3.1,2020.1.2,Win32,60,5f47c29a48bd2a1e651a6eb7,5f4f816fa8de8e03e80a9632,4,,,,,,dart,,,,,,0,52,52,8,1,1,2,,,,,,,,,,,,,,,,,,,,,,,,,,,,,,,,,,,,,,,,,,,,,,,,,,,,,,,,,,,,,,,,,,,,,,,,,,,,,,,,,,,,,,,,,,,,,,,,,,,,,,,,,,,,,
,,,,,,,,,,stimuli/images/PICTURE_297.png,BODY,5e08b939f9e7501c6b40c650,24/11/1988,2020-09-02_12h29.23.174,proactive3.1,2020.1.2,Win32,60,5f47c29a48bd2a1e651a6eb7,5f4f816fa8de8e03e80a9632,4,,,,,,aeroplane,,,,,,0,53,53,51,1,6,2,,,,,,,,,,,,,,,,,,,,,,,,,,,,,,,,,,,,,,,,,,,,,,,,,,,,,,,,,,,,,,,,,,,,,,,,,,,,,,,,,,,,,,,,,,,,,,,,,,,,,,,,,,,,,
,,,,,,,,,,stimuli/images/PICTURE_667.png,GLASS,5e08b939f9e7501c6b40c650,24/11/1988,2020-09-02_12h29.23.174,proactive3.1,2020.1.2,Win32,60,5f47c29a48bd2a1e651a6eb7,5f4f816fa8de8e03e80a9632,4,,,,,,daisy,,,,,,0,54,54,27,1,3,2,,,,,,,,,,,,,,,,,,,,,,,,,,,,,,,,,,,,,,,,,,,,,,,,,,,,,,,,,,,,,,,,,,,,,,,,,,,,,,,,,,,,,,,,,,,,,,,,,,,,,,,,,,,,,
,,,,,,,,,,stimuli/images/PICTURE_255.png,PENNY,5e08b939f9e7501c6b40c650,24/11/1988,2020-09-02_12h29.23.174,proactive3.1,2020.1.2,Win32,60,5f47c29a48bd2a1e651a6eb7,5f4f816fa8de8e03e80a9632,4,,,,,,shovel,,,,,,0,55,55,19,1,2,2,,,,,,,,,,,,,,,,,,,,,,,,,,,,,,,,,,,,,,,,,,,,,,,,,,,,,,,,,,,,,,,,,,,,,,,,,,,,,,,,,,,,,,,,,,,,,,,,,,,,,,,,,,,,,
,,,,,,,,,,stimuli/images/PICTURE_141.png,CLIENT,5e08b939f9e7501c6b40c650,24/11/1988,2020-09-02_12h29.23.174,proactive3.1,2020.1.2,Win32,60,5f47c29a48bd2a1e651a6eb7,5f4f816fa8de8e03e80a9632,4,,,,,,sunflower,,,,,,0,56,56,30,1,4,2,,,,,,,,,,,,,,,,,,,,,,,,,,,,,,,,,,,,,,,,,,,,,,,,,,,,,,,,,,,,,,,,,,,,,,,,,,,,,,,,,,,,,,,,,,,,,,,,,,,,,,,,,,,,,
,,,,,,,,,,stimuli/images/PICTURE_2.png,YARD,5e08b939f9e7501c6b40c650,24/11/1988,2020-09-02_12h29.23.174,proactive3.1,2020.1.2,Win32,60,5f47c29a48bd2a1e651a6eb7,5f4f816fa8de8e03e80a9632,4,,,,,,tyre,,,,,,0,57,57,55,1,6,2,,,,,,,,,,,,,,,,,,,,,,,,,,,,,,,,,,,,,,,,,,,,,,,,,,,,,,,,,,,,,,,,,,,,,,,,,,,,,,,,,,,,,,,,,,,,,,,,,,,,,,,,,,,,,
,,,,,,,,,,stimuli/images/PICTURE_504.png,HOUSE,5e08b939f9e7501c6b40c650,24/11/1988,2020-09-02_12h29.23.174,proactive3.1,2020.1.2,Win32,60,5f47c29a48bd2a1e651a6eb7,5f4f816fa8de8e03e80a9632,4,,,,,,wheel,,,,,,0,58,58,36,1,4,2,,,,,,,,,,,,,,,,,,,,,,,,,,,,,,,,,,,,,,,,,,,,,,,,,,,,,,,,,,,,,,,,,,,,,,,,,,,,,,,,,,,,,,,,,,,,,,,,,,,,,,,,,,,,,
,,?,0.00111,0,,,,,,stimuli/images/PICTURE_654.png,YEAR,5e08b939f9e7501c6b40c650,24/11/1988,2020-09-02_12h29.23.174,proactive3.1,2020.1.2,Win32,60,5f47c29a48bd2a1e651a6eb7,5f4f816fa8de8e03e80a9632,4,,,,,,pencil,,,,,,,,,,,5,2,0,0,0,41,1,,,,,,,,,,,,,,,,,,,,,,,,,,,,,,,,,,,,,,,,,,,,,,,,,,,,,,,,,,,,,,,,,,,,,,,,,,,,,,,,,,,,,,,,,,,,,,,,,,,,,,,,
,,POLICY,2.599195,1,,,,,,stimuli/images/PICTURE_487.png,POLICY,5e08b939f9e7501c6b40c650,24/11/1988,2020-09-02_12h29.23.174,proactive3.1,2020.1.2,Win32,60,5f47c29a48bd2a1e651a6eb7,5f4f816fa8de8e03e80a9632,4,,,,,,basket,,,,,,,,,,,4,2,0,1,1,34,1,,,,,,,,,,,,,,,,,,,,,,,,,,,,,,,,,,,,,,,,,,,,,,,,,,,,,,,,,,,,,,,,,,,,,,,,,,,,,,,,,,,,,,,,,,,,,,,,,,,,,,,,
,,?,0.002615,0,,,,,,stimuli/images/PICTURE_123.png,SALE,5e08b939f9e7501c6b40c650,24/11/1988,2020-09-02_12h29.23.174,proactive3.1,2020.1.2,Win32,60,5f47c29a48bd2a1e651a6eb7,5f4f816fa8de8e03e80a9632,4,,,,,,dart,,,,,,,,,,,1,2,0,2,2,8,1,,,,,,,,,,,,,,,,,,,,,,,,,,,,,,,,,,,,,,,,,,,,,,,,,,,,,,,,,,,,,,,,,,,,,,,,,,,,,,,,,,,,,,,,,,,,,,,,,,,,,,,,
,,?,0.001645,0,,,,,,stimuli/images/PICTURE_655.png,SALE,5e08b939f9e7501c6b40c650,24/11/1988,2020-09-02_12h29.23.174,proactive3.1,2020.1.2,Win32,60,5f47c29a48bd2a1e651a6eb7,5f4f816fa8de8e03e80a9632,4,,,,,,megaphone,,,,,,,,,,,6,2,0,3,3,57,1,,,,,,,,,,,,,,,,,,,,,,,,,,,,,,,,,,,,,,,,,,,,,,,,,,,,,,,,,,,,,,,,,,,,,,,,,,,,,,,,,,,,,,,,,,,,,,,,,,,,,,,,
,,?,0.001475,0,,,,,,stimuli/images/PICTURE_33.png,COPS,5e08b939f9e7501c6b40c650,24/11/1988,2020-09-02_12h29.23.174,proactive3.1,2020.1.2,Win32,60,5f47c29a48bd2a1e651a6eb7,5f4f816fa8de8e03e80a9632,4,,,,,,frame,,,,,,,,,,,3,2,0,4,4,29,1,,,,,,,,,,,,,,,,,,,,,,,,,,,,,,,,,,,,,,,,,,,,,,,,,,,,,,,,,,,,,,,,,,,,,,,,,,,,,,,,,,,,,,,,,,,,,,,,,,,,,,,,
,,?,0.003,0,,,,,,stimuli/images/PICTURE_405.png,JUNGLE,5e08b939f9e7501c6b40c650,24/11/1988,2020-09-02_12h29.23.174,proactive3.1,2020.1.2,Win32,60,5f47c29a48bd2a1e651a6eb7,5f4f816fa8de8e03e80a9632,4,,,,,,anchor,,,,,,,,,,,2,2,0,5,5,13,1,,,,,,,,,,,,,,,,,,,,,,,,,,,,,,,,,,,,,,,,,,,,,,,,,,,,,,,,,,,,,,,,,,,,,,,,,,,,,,,,,,,,,,,,,,,,,,,,,,,,,,,,
,,?,0.00153,0,,,,,,stimuli/images/PICTURE_32.png,LETTER,5e08b939f9e7501c6b40c650,24/11/1988,2020-09-02_12h29.23.174,proactive3.1,2020.1.2,Win32,60,5f47c29a48bd2a1e651a6eb7,5f4f816fa8de8e03e80a9632,4,,,,,,crown,,,,,,,,,,,6,2,0,6,6,56,1,,,,,,,,,,,,,,,,,,,,,,,,,,,,,,,,,,,,,,,,,,,,,,,,,,,,,,,,,,,,,,,,,,,,,,,,,,,,,,,,,,,,,,,,,,,,,,,,,,,,,,,,
,,?,0.001475,0,,,,,,stimuli/images/PICTURE_18.png,RIVER,5e08b939f9e7501c6b40c650,24/11/1988,2020-09-02_12h29.23.174,proactive3.1,2020.1.2,Win32,60,5f47c29a48bd2a1e651a6eb7,5f4f816fa8de8e03e80a9632,4,,,,,,planet,,,,,,,,,,,3,2,0,7,7,22,1,,,,,,,,,,,,,,,,,,,,,,,,,,,,,,,,,,,,,,,,,,,,,,,,,,,,,,,,,,,,,,,,,,,,,,,,,,,,,,,,,,,,,,,,,,,,,,,,,,,,,,,,
,,?,0.00166,0,,,,,,stimuli/images/PICTURE_311.png,TOILET,5e08b939f9e7501c6b40c650,24/11/1988,2020-09-02_12h29.23.174,proactive3.1,2020.1.2,Win32,60,5f47c29a48bd2a1e651a6eb7,5f4f816fa8de8e03e80a9632,4,,,,,,razor,,,,,,,,,,,6,2,0,8,8,54,1,,,,,,,,,,,,,,,,,,,,,,,,,,,,,,,,,,,,,,,,,,,,,,,,,,,,,,,,,,,,,,,,,,,,,,,,,,,,,,,,,,,,,,,,,,,,,,,,,,,,,,,,
,,?,0.00181,0,,,,,,stimuli/images/PICTURE_311.png,FLESH,5e08b939f9e7501c6b40c650,24/11/1988,2020-09-02_12h29.23.174,proactive3.1,2020.1.2,Win32,60,5f47c29a48bd2a1e651a6eb7,5f4f816fa8de8e03e80a9632,4,,,,,,razor,,,,,,,,,,,1,2,0,9,9,3,1,,,,,,,,,,,,,,,,,,,,,,,,,,,,,,,,,,,,,,,,,,,,,,,,,,,,,,,,,,,,,,,,,,,,,,,,,,,,,,,,,,,,,,,,,,,,,,,,,,,,,,,,
,,?,0.0015,0,,,,,,stimuli/images/PICTURE_57.png,CANDY,5e08b939f9e7501c6b40c650,24/11/1988,2020-09-02_12h29.23.174,proactive3.1,2020.1.2,Win32,60,5f47c29a48bd2a1e651a6eb7,5f4f816fa8de8e03e80a9632,4,,,,,,stamp,,,,,,,,,,,6,2,0,10,10,52,1,,,,,,,,,,,,,,,,,,,,,,,,,,,,,,,,,,,,,,,,,,,,,,,,,,,,,,,,,,,,,,,,,,,,,,,,,,,,,,,,,,,,,,,,,,,,,,,,,,,,,,,,
,,?,0.0015,0,,,,,,stimuli/images/PICTURE_667.png,GLASS,5e08b939f9e7501c6b40c650,24/11/1988,2020-09-02_12h29.23.174,proactive3.1,2020.1.2,Win32,60,5f47c29a48bd2a1e651a6eb7,5f4f816fa8de8e03e80a9632,4,,,,,,daisy,,,,,,,,,,,3,2,0,11,11,27,1,,,,,,,,,,,,,,,,,,,,,,,,,,,,,,,,,,,,,,,,,,,,,,,,,,,,,,,,,,,,,,,,,,,,,,,,,,,,,,,,,,,,,,,,,,,,,,,,,,,,,,,,
,,?,0.0016,0,,,,,,stimuli/images/PICTURE_750.png,POLICY,5e08b939f9e7501c6b40c650,24/11/1988,2020-09-02_12h29.23.174,proactive3.1,2020.1.2,Win32,60,5f47c29a48bd2a1e651a6eb7,5f4f816fa8de8e03e80a9632,4,,,,,,kettle,,,,,,,,,,,5,2,0,12,12,44,1,,,,,,,,,,,,,,,,,,,,,,,,,,,,,,,,,,,,,,,,,,,,,,,,,,,,,,,,,,,,,,,,,,,,,,,,,,,,,,,,,,,,,,,,,,,,,,,,,,,,,,,,
,,?,2.07183,0,,,,,,stimuli/images/PICTURE_93.png,GIRL,5e08b939f9e7501c6b40c650,24/11/1988,2020-09-02_12h29.23.174,proactive3.1,2020.1.2,Win32,60,5f47c29a48bd2a1e651a6eb7,5f4f816fa8de8e03e80a9632,4,,,,,,skateboard,,,,,,,,,,,4,2,0,13,13,31,1,,,,,,,,,,,,,,,,,,,,,,,,,,,,,,,,,,,,,,,,,,,,,,,,,,,,,,,,,,,,,,,,,,,,,,,,,,,,,,,,,,,,,,,,,,,,,,,,,,,,,,,,
,,?,0.00136,0,,,,,,stimuli/images/PICTURE_215.png,LEADER,5e08b939f9e7501c6b40c650,24/11/1988,2020-09-02_12h29.23.174,proactive3.1,2020.1.2,Win32,60,5f47c29a48bd2a1e651a6eb7,5f4f816fa8de8e03e80a9632,4,,,,,,boot,,,,,,,,,,,5,2,0,14,14,43,1,,,,,,,,,,,,,,,,,,,,,,,,,,,,,,,,,,,,,,,,,,,,,,,,,,,,,,,,,,,,,,,,,,,,,,,,,,,,,,,,,,,,,,,,,,,,,,,,,,,,,,,,
,,NIGHT,2.0455,1,,,,,,stimuli/images/PICTURE_95.png,NIGHT,5e08b939f9e7501c6b40c650,24/11/1988,2020-09-02_12h29.23.174,proactive3.1,2020.1.2,Win32,60,5f47c29a48bd2a1e651a6eb7,5f4f816fa8de8e03e80a9632,4,,,,,,suitcase,,,,,,,,,,,4,2,0,15,15,37,1,,,,,,,,,,,,,,,,,,,,,,,,,,,,,,,,,,,,,,,,,,,,,,,,,,,,,,,,,,,,,,,,,,,,,,,,,,,,,,,,,,,,,,,,,,,,,,,,,,,,,,,,
,,?,0.001325,0,,,,,,stimuli/images/PICTURE_677.png,PHOTO,5e08b939f9e7501c6b40c650,24/11/1988,2020-09-02_12h29.23.174,proactive3.1,2020.1.2,Win32,60,5f47c29a48bd2a1e651a6eb7,5f4f816fa8de8e03e80a9632,4,,,,,,map,,,,,,,,,,,2,2,0,16,16,14,1,,,,,,,,,,,,,,,,,,,,,,,,,,,,,,,,,,,,,,,,,,,,,,,,,,,,,,,,,,,,,,,,,,,,,,,,,,,,,,,,,,,,,,,,,,,,,,,,,,,,,,,,
,,?,0.00074,0,,,,,,stimuli/images/PICTURE_215.png,BOYS,5e08b939f9e7501c6b40c650,24/11/1988,2020-09-02_12h29.23.174,proactive3.1,2020.1.2,Win32,60,5f47c29a48bd2a1e651a6eb7,5f4f816fa8de8e03e80a9632,4,,,,,,boot,,,,,,,,,,,3,2,0,17,17,24,1,,,,,,,,,,,,,,,,,,,,,,,,,,,,,,,,,,,,,,,,,,,,,,,,,,,,,,,,,,,,,,,,,,,,,,,,,,,,,,,,,,,,,,,,,,,,,,,,,,,,,,,,
,,?,0.000715,0,,,,,,stimuli/images/PICTURE_296.png,CLOCK,5e08b939f9e7501c6b40c650,24/11/1988,2020-09-02_12h29.23.174,proactive3.1,2020.1.2,Win32,60,5f47c29a48bd2a1e651a6eb7,5f4f816fa8de8e03e80a9632,4,,,,,,bolt,,,,,,,,,,,2,2,0,18,18,18,1,,,,,,,,,,,,,,,,,,,,,,,,,,,,,,,,,,,,,,,,,,,,,,,,,,,,,,,,,,,,,,,,,,,,,,,,,,,,,,,,,,,,,,,,,,,,,,,,,,,,,,,,
,,?,0.00076,0,,,,,,stimuli/images/PICTURE_285.png,WRITER,5e08b939f9e7501c6b40c650,24/11/1988,2020-09-02_12h29.23.174,proactive3.1,2020.1.2,Win32,60,5f47c29a48bd2a1e651a6eb7,5f4f816fa8de8e03e80a9632,4,,,,,,carrot,,,,,,,,,,,1,2,0,19,19,6,1,,,,,,,,,,,,,,,,,,,,,,,,,,,,,,,,,,,,,,,,,,,,,,,,,,,,,,,,,,,,,,,,,,,,,,,,,,,,,,,,,,,,,,,,,,,,,,,,,,,,,,,,
,,?,0.000735,0,,,,,,stimuli/images/PICTURE_348.png,DUDE,5e08b939f9e7501c6b40c650,24/11/1988,2020-09-02_12h29.23.174,proactive3.1,2020.1.2,Win32,60,5f47c29a48bd2a1e651a6eb7,5f4f816fa8de8e03e80a9632,4,,,,,,pepper,,,,,,,,,,,6,2,0,20,20,59,1,,,,,,,,,,,,,,,,,,,,,,,,,,,,,,,,,,,,,,,,,,,,,,,,,,,,,,,,,,,,,,,,,,,,,,,,,,,,,,,,,,,,,,,,,,,,,,,,,,,,,,,,
,,?,0.00073,0,,,,,,stimuli/images/PICTURE_654.png,COPS,5e08b939f9e7501c6b40c650,24/11/1988,2020-09-02_12h29.23.174,proactive3.1,2020.1.2,Win32,60,5f47c29a48bd2a1e651a6eb7,5f4f816fa8de8e03e80a9632,4,,,,,,pencil,,,,,,,,,,,2,2,0,21,21,10,1,,,,,,,,,,,,,,,,,,,,,,,,,,,,,,,,,,,,,,,,,,,,,,,,,,,,,,,,,,,,,,,,,,,,,,,,,,,,,,,,,,,,,,,,,,,,,,,,,,,,,,,,
,,?,0.00112,0,,,,,,stimuli/images/PICTURE_327.png,LEADER,5e08b939f9e7501c6b40c650,24/11/1988,2020-09-02_12h29.23.174,proactive3.1,2020.1.2,Win32,60,5f47c29a48bd2a1e651a6eb7,5f4f816fa8de8e03e80a9632,4,,,,,,helmet,,,,,,,,,,,2,2,0,22,22,17,1,,,,,,,,,,,,,,,,,,,,,,,,,,,,,,,,,,,,,,,,,,,,,,,,,,,,,,,,,,,,,,,,,,,,,,,,,,,,,,,,,,,,,,,,,,,,,,,,,,,,,,,,
,,?,3.705025,0,,,,,,stimuli/images/PICTURE_314.png,SPEECH,5e08b939f9e7501c6b40c650,24/11/1988,2020-09-02_12h29.23.174,proactive3.1,2020.1.2,Win32,60,5f47c29a48bd2a1e651a6eb7,5f4f816fa8de8e03e80a9632,4,,,,,,perfume,,,,,,,,,,,4,2,0,23,23,35,1,,,,,,,,,,,,,,,,,,,,,,,,,,,,,,,,,,,,,,,,,,,,,,,,,,,,,,,,,,,,,,,,,,,,,,,,,,,,,,,,,,,,,,,,,,,,,,,,,,,,,,,,
,,?,0.00199,0,,,,,,stimuli/images/PICTURE_348.png,TOILET,5e08b939f9e7501c6b40c650,24/11/1988,2020-09-02_12h29.23.174,proactive3.1,2020.1.2,Win32,60,5f47c29a48bd2a1e651a6eb7,5f4f816fa8de8e03e80a9632,4,,,,,,pepper,,,,,,,,,,,1,2,0,24,24,4,1,,,,,,,,,,,,,,,,,,,,,,,,,,,,,,,,,,,,,,,,,,,,,,,,,,,,,,,,,,,,,,,,,,,,,,,,,,,,,,,,,,,,,,,,,,,,,,,,,,,,,,,,
,,?,0.00173,0,,,,,,stimuli/images/PICTURE_285.png,PRINCE,5e08b939f9e7501c6b40c650,24/11/1988,2020-09-02_12h29.23.174,proactive3.1,2020.1.2,Win32,60,5f47c29a48bd2a1e651a6eb7,5f4f816fa8de8e03e80a9632,4,,,,,,carrot,,,,,,,,,,,3,2,0,25,25,20,1,,,,,,,,,,,,,,,,,,,,,,,,,,,,,,,,,,,,,,,,,,,,,,,,,,,,,,,,,,,,,,,,,,,,,,,,,,,,,,,,,,,,,,,,,,,,,,,,,,,,,,,,
,,?,0.00174,0,,,,,,stimuli/images/PICTURE_2.png,YARD,5e08b939f9e7501c6b40c650,24/11/1988,2020-09-02_12h29.23.174,proactive3.1,2020.1.2,Win32,60,5f47c29a48bd2a1e651a6eb7,5f4f816fa8de8e03e80a9632,4,,,,,,tyre,,,,,,,,,,,6,2,0,26,26,55,1,,,,,,,,,,,,,,,,,,,,,,,,,,,,,,,,,,,,,,,,,,,,,,,,,,,,,,,,,,,,,,,,,,,,,,,,,,,,,,,,,,,,,,,,,,,,,,,,,,,,,,,,
,,?,0.00182,0,,,,,,stimuli/images/PICTURE_356.png,CANDY,5e08b939f9e7501c6b40c650,24/11/1988,2020-09-02_12h29.23.174,proactive3.1,2020.1.2,Win32,60,5f47c29a48bd2a1e651a6eb7,5f4f816fa8de8e03e80a9632,4,,,,,,pawn,,,,,,,,,,,5,2,0,27,27,46,1,,,,,,,,,,,,,,,,,,,,,,,,,,,,,,,,,,,,,,,,,,,,,,,,,,,,,,,,,,,,,,,,,,,,,,,,,,,,,,,,,,,,,,,,,,,,,,,,,,,,,,,,
,,?,0.00174,0,,,,,,stimuli/images/PICTURE_470.png,MOMENT,5e08b939f9e7501c6b40c650,24/11/1988,2020-09-02_12h29.23.174,proactive3.1,2020.1.2,Win32,60,5f47c29a48bd2a1e651a6eb7,5f4f816fa8de8e03e80a9632,4,,,,,,motorbike,,,,,,,,,,,5,2,0,28,28,40,1,,,,,,,,,,,,,,,,,,,,,,,,,,,,,,,,,,,,,,,,,,,,,,,,,,,,,,,,,,,,,,,,,,,,,,,,,,,,,,,,,,,,,,,,,,,,,,,,,,,,,,,,
,,APPLE,3.737605,1,,,,,,stimuli/images/PICTURE_509.png,APPLE,5e08b939f9e7501c6b40c650,24/11/1988,2020-09-02_12h29.23.174,proactive3.1,2020.1.2,Win32,60,5f47c29a48bd2a1e651a6eb7,5f4f816fa8de8e03e80a9632,4,,,,,,telephone,,,,,,,,,,,4,2,0,29,29,38,1,,,,,,,,,,,,,,,,,,,,,,,,,,,,,,,,,,,,,,,,,,,,,,,,,,,,,,,,,,,,,,,,,,,,,,,,,,,,,,,,,,,,,,,,,,,,,,,,,,,,,,,,
,,?,0.00248,0,,,,,,stimuli/images/PICTURE_453.png,FAMILY,5e08b939f9e7501c6b40c650,24/11/1988,2020-09-02_12h29.23.174,proactive3.1,2020.1.2,Win32,60,5f47c29a48bd2a1e651a6eb7,5f4f816fa8de8e03e80a9632,4,,,,,,scissors,,,,,,,,,,,5,2,0,30,30,48,1,,,,,,,,,,,,,,,,,,,,,,,,,,,,,,,,,,,,,,,,,,,,,,,,,,,,,,,,,,,,,,,,,,,,,,,,,,,,,,,,,,,,,,,,,,,,,,,,,,,,,,,,
,,?,0.001595,0,,,,,,stimuli/images/PICTURE_509.png,MILLER,5e08b939f9e7501c6b40c650,24/11/1988,2020-09-02_12h29.23.174,proactive3.1,2020.1.2,Win32,60,5f47c29a48bd2a1e651a6eb7,5f4f816fa8de8e03e80a9632,4,,,,,,telephone,,,,,,,,,,,5,2,0,31,31,49,1,,,,,,,,,,,,,,,,,,,,,,,,,,,,,,,,,,,,,,,,,,,,,,,,,,,,,,,,,,,,,,,,,,,,,,,,,,,,,,,,,,,,,,,,,,,,,,,,,,,,,,,,
,,?,0.00146,0,,,,,,stimuli/images/PICTURE_692.png,DUDE,5e08b939f9e7501c6b40c650,24/11/1988,2020-09-02_12h29.23.174,proactive3.1,2020.1.2,Win32,60,5f47c29a48bd2a1e651a6eb7,5f4f816fa8de8e03e80a9632,4,,,,,,cherry,,,,,,,,,,,5,2,0,32,32,47,1,,,,,,,,,,,,,,,,,,,,,,,,,,,,,,,,,,,,,,,,,,,,,,,,,,,,,,,,,,,,,,,,,,,,,,,,,,,,,,,,,,,,,,,,,,,,,,,,,,,,,,,,
,,HOUSE,2.267835,1,,,,,,stimuli/images/PICTURE_504.png,HOUSE,5e08b939f9e7501c6b40c650,24/11/1988,2020-09-02_12h29.23.174,proactive3.1,2020.1.2,Win32,60,5f47c29a48bd2a1e651a6eb7,5f4f816fa8de8e03e80a9632,4,,,,,,wheel,,,,,,,,,,,4,2,0,33,33,36,1,,,,,,,,,,,,,,,,,,,,,,,,,,,,,,,,,,,,,,,,,,,,,,,,,,,,,,,,,,,,,,,,,,,,,,,,,,,,,,,,,,,,,,,,,,,,,,,,,,,,,,,,
,,?,0.00145,0,,,,,,stimuli/images/PICTURE_2.png,JUNGLE,5e08b939f9e7501c6b40c650,24/11/1988,2020-09-02_12h29.23.174,proactive3.1,2020.1.2,Win32,60,5f47c29a48bd2a1e651a6eb7,5f4f816fa8de8e03e80a9632,4,,,,,,tyre,,,,,,,,,,,1,2,0,34,34,1,1,,,,,,,,,,,,,,,,,,,,,,,,,,,,,,,,,,,,,,,,,,,,,,,,,,,,,,,,,,,,,,,,,,,,,,,,,,,,,,,,,,,,,,,,,,,,,,,,,,,,,,,,
,,?,1.87541,0,,,,,,stimuli/images/PICTURE_2.png,AREA,5e08b939f9e7501c6b40c650,24/11/1988,2020-09-02_12h29.23.174,proactive3.1,2020.1.2,Win32,60,5f47c29a48bd2a1e651a6eb7,5f4f816fa8de8e03e80a9632,4,,,,,,tyre,,,,,,,,,,,4,2,0,35,35,32,1,,,,,,,,,,,,,,,,,,,,,,,,,,,,,,,,,,,,,,,,,,,,,,,,,,,,,,,,,,,,,,,,,,,,,,,,,,,,,,,,,,,,,,,,,,,,,,,,,,,,,,,,
,,?,0.001415,0,,,,,,stimuli/images/PICTURE_405.png,HOUSE,5e08b939f9e7501c6b40c650,24/11/1988,2020-09-02_12h29.23.174,proactive3.1,2020.1.2,Win32,60,5f47c29a48bd2a1e651a6eb7,5f4f816fa8de8e03e80a9632,4,,,,,,anchor,,,,,,,,,,,1,2,0,36,36,2,1,,,,,,,,,,,,,,,,,,,,,,,,,,,,,,,,,,,,,,,,,,,,,,,,,,,,,,,,,,,,,,,,,,,,,,,,,,,,,,,,,,,,,,,,,,,,,,,,,,,,,,,,
,,?,0.000785,0,,,,,,stimuli/images/PICTURE_470.png,BEAUTY,5e08b939f9e7501c6b40c650,24/11/1988,2020-09-02_12h29.23.174,proactive3.1,2020.1.2,Win32,60,5f47c29a48bd2a1e651a6eb7,5f4f816fa8de8e03e80a9632,4,,,,,,motorbike,,,,,,,,,,,3,2,0,37,37,26,1,,,,,,,,,,,,,,,,,,,,,,,,,,,,,,,,,,,,,,,,,,,,,,,,,,,,,,,,,,,,,,,,,,,,,,,,,,,,,,,,,,,,,,,,,,,,,,,,,,,,,,,,
,,?,0.0006,0,,,,,,stimuli/images/PICTURE_57.png,CASINO,5e08b939f9e7501c6b40c650,24/11/1988,2020-09-02_12h29.23.174,proactive3.1,2020.1.2,Win32,60,5f47c29a48bd2a1e651a6eb7,5f4f816fa8de8e03e80a9632,4,,,,,,stamp,,,,,,,,,,,2,2,0,38,38,12,1,,,,,,,,,,,,,,,,,,,,,,,,,,,,,,,,,,,,,,,,,,,,,,,,,,,,,,,,,,,,,,,,,,,,,,,,,,,,,,,,,,,,,,,,,,,,,,,,,,,,,,,,
,,?,0.000675,0,,,,,,stimuli/images/PICTURE_677.png,FAMILY,5e08b939f9e7501c6b40c650,24/11/1988,2020-09-02_12h29.23.174,proactive3.1,2020.1.2,Win32,60,5f47c29a48bd2a1e651a6eb7,5f4f816fa8de8e03e80a9632,4,,,,,,map,,,,,,,,,,,6,2,0,39,39,53,1,,,,,,,,,,,,,,,,,,,,,,,,,,,,,,,,,,,,,,,,,,,,,,,,,,,,,,,,,,,,,,,,,,,,,,,,,,,,,,,,,,,,,,,,,,,,,,,,,,,,,,,,
,,?,0.0006,0,,,,,,stimuli/images/PICTURE_403.png,FAMILY,5e08b939f9e7501c6b40c650,24/11/1988,2020-09-02_12h29.23.174,proactive3.1,2020.1.2,Win32,60,5f47c29a48bd2a1e651a6eb7,5f4f816fa8de8e03e80a9632,4,,,,,,cathedral,,,,,,,,,,,1,2,0,40,40,9,1,,,,,,,,,,,,,,,,,,,,,,,,,,,,,,,,,,,,,,,,,,,,,,,,,,,,,,,,,,,,,,,,,,,,,,,,,,,,,,,,,,,,,,,,,,,,,,,,,,,,,,,,
,,?,0.000685,0,,,,,,stimuli/images/PICTURE_509.png,BATH,5e08b939f9e7501c6b40c650,24/11/1988,2020-09-02_12h29.23.174,proactive3.1,2020.1.2,Win32,60,5f47c29a48bd2a1e651a6eb7,5f4f816fa8de8e03e80a9632,4,,,,,,telephone,,,,,,,,,,,2,2,0,41,41,15,1,,,,,,,,,,,,,,,,,,,,,,,,,,,,,,,,,,,,,,,,,,,,,,,,,,,,,,,,,,,,,,,,,,,,,,,,,,,,,,,,,,,,,,,,,,,,,,,,,,,,,,,,
,,?,0.000865,0,,,,,,stimuli/images/PICTURE_405.png,JUNGLE,5e08b939f9e7501c6b40c650,24/11/1988,2020-09-02_12h29.23.174,proactive3.1,2020.1.2,Win32,60,5f47c29a48bd2a1e651a6eb7,5f4f816fa8de8e03e80a9632,4,,,,,,anchor,,,,,,,,,,,6,2,0,42,42,58,1,,,,,,,,,,,,,,,,,,,,,,,,,,,,,,,,,,,,,,,,,,,,,,,,,,,,,,,,,,,,,,,,,,,,,,,,,,,,,,,,,,,,,,,,,,,,,,,,,,,,,,,,
,,?,0.000765,0,,,,,,stimuli/images/PICTURE_255.png,PENNY,5e08b939f9e7501c6b40c650,24/11/1988,2020-09-02_12h29.23.174,proactive3.1,2020.1.2,Win32,60,5f47c29a48bd2a1e651a6eb7,5f4f816fa8de8e03e80a9632,4,,,,,,shovel,,,,,,,,,,,2,2,0,43,43,19,1,,,,,,,,,,,,,,,,,,,,,,,,,,,,,,,,,,,,,,,,,,,,,,,,,,,,,,,,,,,,,,,,,,,,,,,,,,,,,,,,,,,,,,,,,,,,,,,,,,,,,,,,
,,?,0.00158,0,,,,,,stimuli/images/PICTURE_208.png,SPIRIT,5e08b939f9e7501c6b40c650,24/11/1988,2020-09-02_12h29.23.174,proactive3.1,2020.1.2,Win32,60,5f47c29a48bd2a1e651a6eb7,5f4f816fa8de8e03e80a9632,4,,,,,,microphone,,,,,,,,,,,3,2,0,44,44,28,1,,,,,,,,,,,,,,,,,,,,,,,,,,,,,,,,,,,,,,,,,,,,,,,,,,,,,,,,,,,,,,,,,,,,,,,,,,,,,,,,,,,,,,,,,,,,,,,,,,,,,,,,
,,?,0.000875,0,,,,,,stimuli/images/PICTURE_688.png,CLOCK,5e08b939f9e7501c6b40c650,24/11/1988,2020-09-02_12h29.23.174,proactive3.1,2020.1.2,Win32,60,5f47c29a48bd2a1e651a6eb7,5f4f816fa8de8e03e80a9632,4,,,,,,runner,,,,,,,,,,,5,2,0,45,45,42,1,,,,,,,,,,,,,,,,,,,,,,,,,,,,,,,,,,,,,,,,,,,,,,,,,,,,,,,,,,,,,,,,,,,,,,,,,,,,,,,,,,,,,,,,,,,,,,,,,,,,,,,,
,,?,1.656485,0,,,,,,stimuli/images/PICTURE_141.png,CLIENT,5e08b939f9e7501c6b40c650,24/11/1988,2020-09-02_12h29.23.174,proactive3.1,2020.1.2,Win32,60,5f47c29a48bd2a1e651a6eb7,5f4f816fa8de8e03e80a9632,4,,,,,,sunflower,,,,,,,,,,,4,2,0,46,46,30,1,,,,,,,,,,,,,,,,,,,,,,,,,,,,,,,,,,,,,,,,,,,,,,,,,,,,,,,,,,,,,,,,,,,,,,,,,,,,,,,,,,,,,,,,,,,,,,,,,,,,,,,,
,,?,0.00183,0,,,,,,stimuli/images/PICTURE_57.png,NATION,5e08b939f9e7501c6b40c650,24/11/1988,2020-09-02_12h29.23.174,proactive3.1,2020.1.2,Win32,60,5f47c29a48bd2a1e651a6eb7,5f4f816fa8de8e03e80a9632,4,,,,,,stamp,,,,,,,,,,,3,2,0,47,47,21,1,,,,,,,,,,,,,,,,,,,,,,,,,,,,,,,,,,,,,,,,,,,,,,,,,,,,,,,,,,,,,,,,,,,,,,,,,,,,,,,,,,,,,,,,,,,,,,,,,,,,,,,,
,,?,0.001635,0,,,,,,stimuli/images/PICTURE_487.png,ROOF,5e08b939f9e7501c6b40c650,24/11/1988,2020-09-02_12h29.23.174,proactive3.1,2020.1.2,Win32,60,5f47c29a48bd2a1e651a6eb7,5f4f816fa8de8e03e80a9632,4,,,,,,basket,,,,,,,,,,,6,2,0,48,48,50,1,,,,,,,,,,,,,,,,,,,,,,,,,,,,,,,,,,,,,,,,,,,,,,,,,,,,,,,,,,,,,,,,,,,,,,,,,,,,,,,,,,,,,,,,,,,,,,,,,,,,,,,,
,,SERIES,2.623465,1,,,,,,stimuli/images/PICTURE_491.png,SERIES,5e08b939f9e7501c6b40c650,24/11/1988,2020-09-02_12h29.23.174,proactive3.1,2020.1.2,Win32,60,5f47c29a48bd2a1e651a6eb7,5f4f816fa8de8e03e80a9632,4,,,,,,rug,,,,,,,,,,,4,2,0,49,49,39,1,,,,,,,,,,,,,,,,,,,,,,,,,,,,,,,,,,,,,,,,,,,,,,,,,,,,,,,,,,,,,,,,,,,,,,,,,,,,,,,,,,,,,,,,,,,,,,,,,,,,,,,,
,,?,0.002085,0,,,,,,stimuli/images/PICTURE_160.png,HOTEL,5e08b939f9e7501c6b40c650,24/11/1988,2020-09-02_12h29.23.174,proactive3.1,2020.1.2,Win32,60,5f47c29a48bd2a1e651a6eb7,5f4f816fa8de8e03e80a9632,4,,,,,,wheelbarrow,,,,,,,,,,,2,2,0,50,50,16,1,,,,,,,,,,,,,,,,,,,,,,,,,,,,,,,,,,,,,,,,,,,,,,,,,,,,,,,,,,,,,,,,,,,,,,,,,,,,,,,,,,,,,,,,,,,,,,,,,,,,,,,,
,,?,0.000875,0,,,,,,stimuli/images/PICTURE_509.png,SHOTS,5e08b939f9e7501c6b40c650,24/11/1988,2020-09-02_12h29.23.174,proactive3.1,2020.1.2,Win32,60,5f47c29a48bd2a1e651a6eb7,5f4f816fa8de8e03e80a9632,4,,,,,,telephone,,,,,,,,,,,1,2,0,51,51,7,1,,,,,,,,,,,,,,,,,,,,,,,,,,,,,,,,,,,,,,,,,,,,,,,,,,,,,,,,,,,,,,,,,,,,,,,,,,,,,,,,,,,,,,,,,,,,,,,,,,,,,,,,
,,?,0.00082,0,,,,,,stimuli/images/PICTURE_297.png,BODY,5e08b939f9e7501c6b40c650,24/11/1988,2020-09-02_12h29.23.174,proactive3.1,2020.1.2,Win32,60,5f47c29a48bd2a1e651a6eb7,5f4f816fa8de8e03e80a9632,4,,,,,,aeroplane,,,,,,,,,,,6,2,0,52,52,51,1,,,,,,,,,,,,,,,,,,,,,,,,,,,,,,,,,,,,,,,,,,,,,,,,,,,,,,,,,,,,,,,,,,,,,,,,,,,,,,,,,,,,,,,,,,,,,,,,,,,,,,,,
,,?,0.000705,0,,,,,,stimuli/images/PICTURE_68.png,KIND,5e08b939f9e7501c6b40c650,24/11/1988,2020-09-02_12h29.23.174,proactive3.1,2020.1.2,Win32,60,5f47c29a48bd2a1e651a6eb7,5f4f816fa8de8e03e80a9632,4,,,,,,candle,,,,,,,,,,,3,2,0,53,53,23,1,,,,,,,,,,,,,,,,,,,,,,,,,,,,,,,,,,,,,,,,,,,,,,,,,,,,,,,,,,,,,,,,,,,,,,,,,,,,,,,,,,,,,,,,,,,,,,,,,,,,,,,,
,,?,0.0007,0,,,,,,stimuli/images/PICTURE_452.png,COPS,5e08b939f9e7501c6b40c650,24/11/1988,2020-09-02_12h29.23.174,proactive3.1,2020.1.2,Win32,60,5f47c29a48bd2a1e651a6eb7,5f4f816fa8de8e03e80a9632,4,,,,,,watch,,,,,,,,,,,1,2,0,54,54,0,1,,,,,,,,,,,,,,,,,,,,,,,,,,,,,,,,,,,,,,,,,,,,,,,,,,,,,,,,,,,,,,,,,,,,,,,,,,,,,,,,,,,,,,,,,,,,,,,,,,,,,,,,
,,?,0.000685,0,,,,,,stimuli/images/PICTURE_215.png,FOOD,5e08b939f9e7501c6b40c650,24/11/1988,2020-09-02_12h29.23.174,proactive3.1,2020.1.2,Win32,60,5f47c29a48bd2a1e651a6eb7,5f4f816fa8de8e03e80a9632,4,,,,,,boot,,,,,,,,,,,1,2,0,55,55,5,1,,,,,,,,,,,,,,,,,,,,,,,,,,,,,,,,,,,,,,,,,,,,,,,,,,,,,,,,,,,,,,,,,,,,,,,,,,,,,,,,,,,,,,,,,,,,,,,,,,,,,,,,
,,?,0.000685,0,,,,,,stimuli/images/PICTURE_177.png,HOUSE,5e08b939f9e7501c6b40c650,24/11/1988,2020-09-02_12h29.23.174,proactive3.1,2020.1.2,Win32,60,5f47c29a48bd2a1e651a6eb7,5f4f816fa8de8e03e80a9632,4,,,,,,mushroom,,,,,,,,,,,3,2,0,56,56,25,1,,,,,,,,,,,,,,,,,,,,,,,,,,,,,,,,,,,,,,,,,,,,,,,,,,,,,,,,,,,,,,,,,,,,,,,,,,,,,,,,,,,,,,,,,,,,,,,,,,,,,,,,
,,?,0.001265,0,,,,,,stimuli/images/PICTURE_564.png,PLENTY,5e08b939f9e7501c6b40c650,24/11/1988,2020-09-02_12h29.23.174,proactive3.1,2020.1.2,Win32,60,5f47c29a48bd2a1e651a6eb7,5f4f816fa8de8e03e80a9632,4,,,,,,spoon,,,,,,,,,,,2,2,0,57,57,11,1,,,,,,,,,,,,,,,,,,,,,,,,,,,,,,,,,,,,,,,,,,,,,,,,,,,,,,,,,,,,,,,,,,,,,,,,,,,,,,,,,,,,,,,,,,,,,,,,,,,,,,,,
,,?,0.000895,0,,,,,,stimuli/images/PICTURE_708.png,VALLEY,5e08b939f9e7501c6b40c650,24/11/1988,2020-09-02_12h29.23.174,proactive3.1,2020.1.2,Win32,60,5f47c29a48bd2a1e651a6eb7,5f4f816fa8de8e03e80a9632,4,,,,,,monkey,,,,,,,,,,,5,2,0,58,58,45,1,,,,,,,,,,,,,,,,,,,,,,,,,,,,,,,,,,,,,,,,,,,,,,,,,,,,,,,,,,,,,,,,,,,,,,,,,,,,,,,,,,,,,,,,,,,,,,,,,,,,,,,,
,,?,1.397635,0,,,,,,stimuli/images/PICTURE_147.png,LEADER,5e08b939f9e7501c6b40c650,24/11/1988,2020-09-02_12h29.23.174,proactive3.1,2020.1.2,Win32,60,5f47c29a48bd2a1e651a6eb7,5f4f816fa8de8e03e80a9632,4,,,,,,hanger,,,,,,,,,,,4,2,0,59,59,33,1,,,,,,,,,,,,,,,,,,,,,,,,,,,,,,,,,,,,,,,,,,,,,,,,,,,,,,,,,,,,,,,,,,,,,,,,,,,,,,,,,,,,,,,,,,,,,,,,,,,,,,,,
,,,,,,,,,,,,5e08b939f9e7501c6b40c650,24/11/1988,2020-09-02_12h29.23.174,proactive3.1,2020.1.2,Win32,60,5f47c29a48bd2a1e651a6eb7,5f4f816fa8de8e03e80a9632,4,,,,,,,,,,,,,,,,,,,,,,,,0,1,1,2,1,stimuli/learn-block3.csv,,,,,,,,,,,,,,,,,,,,,,,,,,,,,,,,,,,,,,,,,,,,,,,,,,,,,,,,,,,,,,,,,,,,,,,,,,,,,,,,,,,,,,,,,,,,,,,,,,
,,,,,,,,,,stimuli/images/PICTURE_42.png,BOYS,5e08b939f9e7501c6b40c650,24/11/1988,2020-09-02_12h29.23.174,proactive3.1,2020.1.2,Win32,60,5f47c29a48bd2a1e651a6eb7,5f4f816fa8de8e03e80a9632,4,,,,,,pear,,,,,,0,0,0,55,1,6,1,,,,,,,,,,,,,,,,,,,,,,,,,,,,,,,,,,,,,,,,,,,,,,,,,,,,,,,,,,,,,,,,,,,,,,,,,,,,,,,,,,,,,,,,,,,,,,,,,,,,,,,,,,,,,
,,,,,,,,,,stimuli/images/PICTURE_469.png,AGENT,5e08b939f9e7501c6b40c650,24/11/1988,2020-09-02_12h29.23.174,proactive3.1,2020.1.2,Win32,60,5f47c29a48bd2a1e651a6eb7,5f4f816fa8de8e03e80a9632,4,,,,,,stool,,,,,,0,1,1,16,1,2,1,,,,,,,,,,,,,,,,,,,,,,,,,,,,,,,,,,,,,,,,,,,,,,,,,,,,,,,,,,,,,,,,,,,,,,,,,,,,,,,,,,,,,,,,,,,,,,,,,,,,,,,,,,,,,
,,,,,,,,,,stimuli/images/PICTURE_504.png,COPS,5e08b939f9e7501c6b40c650,24/11/1988,2020-09-02_12h29.23.174,proactive3.1,2020.1.2,Win32,60,5f47c29a48bd2a1e651a6eb7,5f4f816fa8de8e03e80a9632,4,,,,,,wheel,,,,,,0,2,2,52,1,6,1,,,,,,,,,,,,,,,,,,,,,,,,,,,,,,,,,,,,,,,,,,,,,,,,,,,,,,,,,,,,,,,,,,,,,,,,,,,,,,,,,,,,,,,,,,,,,,,,,,,,,,,,,,,,,
,,,,,,,,,,stimuli/images/PICTURE_675.png,SALE,5e08b939f9e7501c6b40c650,24/11/1988,2020-09-02_12h29.23.174,proactive3.1,2020.1.2,Win32,60,5f47c29a48bd2a1e651a6eb7,5f4f816fa8de8e03e80a9632,4,,,,,,windmill,,,,,,0,3,3,47,1,5,1,,,,,,,,,,,,,,,,,,,,,,,,,,,,,,,,,,,,,,,,,,,,,,,,,,,,,,,,,,,,,,,,,,,,,,,,,,,,,,,,,,,,,,,,,,,,,,,,,,,,,,,,,,,,,
,,,,,,,,,,stimuli/images/PICTURE_744.png,WEAPON,5e08b939f9e7501c6b40c650,24/11/1988,2020-09-02_12h29.23.174,proactive3.1,2020.1.2,Win32,60,5f47c29a48bd2a1e651a6eb7,5f4f816fa8de8e03e80a9632,4,,,,,,ring,,,,,,0,4,4,50,1,6,1,,,,,,,,,,,,,,,,,,,,,,,,,,,,,,,,,,,,,,,,,,,,,,,,,,,,,,,,,,,,,,,,,,,,,,,,,,,,,,,,,,,,,,,,,,,,,,,,,,,,,,,,,,,,,
,,,,,,,,,,stimuli/images/PICTURE_677.png,APPLE,5e08b939f9e7501c6b40c650,24/11/1988,2020-09-02_12h29.23.174,proactive3.1,2020.1.2,Win32,60,5f47c29a48bd2a1e651a6eb7,5f4f816fa8de8e03e80a9632,4,,,,,,map,,,,,,0,5,5,43,1,5,1,,,,,,,,,,,,,,,,,,,,,,,,,,,,,,,,,,,,,,,,,,,,,,,,,,,,,,,,,,,,,,,,,,,,,,,,,,,,,,,,,,,,,,,,,,,,,,,,,,,,,,,,,,,,,
,,,,,,,,,,stimuli/images/PICTURE_403.png,WRITER,5e08b939f9e7501c6b40c650,24/11/1988,2020-09-02_12h29.23.174,proactive3.1,2020.1.2,Win32,60,5f47c29a48bd2a1e651a6eb7,5f4f816fa8de8e03e80a9632,4,,,,,,cathedral,,,,,,0,6,6,31,1,4,1,,,,,,,,,,,,,,,,,,,,,,,,,,,,,,,,,,,,,,,,,,,,,,,,,,,,,,,,,,,,,,,,,,,,,,,,,,,,,,,,,,,,,,,,,,,,,,,,,,,,,,,,,,,,,
,,,,,,,,,,stimuli/images/PICTURE_327.png,CASINO,5e08b939f9e7501c6b40c650,24/11/1988,2020-09-02_12h29.23.174,proactive3.1,2020.1.2,Win32,60,5f47c29a48bd2a1e651a6eb7,5f4f816fa8de8e03e80a9632,4,,,,,,helmet,,,,,,0,7,7,20,1,3,1,,,,,,,,,,,,,,,,,,,,,,,,,,,,,,,,,,,,,,,,,,,,,,,,,,,,,,,,,,,,,,,,,,,,,,,,,,,,,,,,,,,,,,,,,,,,,,,,,,,,,,,,,,,,,
,,,,,,,,,,stimuli/images/PICTURE_95.png,BOYS,5e08b939f9e7501c6b40c650,24/11/1988,2020-09-02_12h29.23.174,proactive3.1,2020.1.2,Win32,60,5f47c29a48bd2a1e651a6eb7,5f4f816fa8de8e03e80a9632,4,,,,,,suitcase,,,,,,0,8,8,1,1,1,1,,,,,,,,,,,,,,,,,,,,,,,,,,,,,,,,,,,,,,,,,,,,,,,,,,,,,,,,,,,,,,,,,,,,,,,,,,,,,,,,,,,,,,,,,,,,,,,,,,,,,,,,,,,,,
,,,,,,,,,,stimuli/images/PICTURE_449.png,DUDE,5e08b939f9e7501c6b40c650,24/11/1988,2020-09-02_12h29.23.174,proactive3.1,2020.1.2,Win32,60,5f47c29a48bd2a1e651a6eb7,5f4f816fa8de8e03e80a9632,4,,,,,,bench,,,,,,0,9,9,17,1,2,1,,,,,,,,,,,,,,,,,,,,,,,,,,,,,,,,,,,,,,,,,,,,,,,,,,,,,,,,,,,,,,,,,,,,,,,,,,,,,,,,,,,,,,,,,,,,,,,,,,,,,,,,,,,,,
,,,,,,,,,,stimuli/images/PICTURE_383.png,WRITER,5e08b939f9e7501c6b40c650,24/11/1988,2020-09-02_12h29.23.174,proactive3.1,2020.1.2,Win32,60,5f47c29a48bd2a1e651a6eb7,5f4f816fa8de8e03e80a9632,4,,,,,,coin,,,,,,0,10,10,28,1,3,1,,,,,,,,,,,,,,,,,,,,,,,,,,,,,,,,,,,,,,,,,,,,,,,,,,,,,,,,,,,,,,,,,,,,,,,,,,,,,,,,,,,,,,,,,,,,,,,,,,,,,,,,,,,,,
,,,,,,,,,,stimuli/images/PICTURE_504.png,ARTIST,5e08b939f9e7501c6b40c650,24/11/1988,2020-09-02_12h29.23.174,proactive3.1,2020.1.2,Win32,60,5f47c29a48bd2a1e651a6eb7,5f4f816fa8de8e03e80a9632,4,,,,,,wheel,,,,,,0,11,11,49,1,5,1,,,,,,,,,,,,,,,,,,,,,,,,,,,,,,,,,,,,,,,,,,,,,,,,,,,,,,,,,,,,,,,,,,,,,,,,,,,,,,,,,,,,,,,,,,,,,,,,,,,,,,,,,,,,,
,,,,,,,,,,stimuli/images/PICTURE_564.png,BATH,5e08b939f9e7501c6b40c650,24/11/1988,2020-09-02_12h29.23.174,proactive3.1,2020.1.2,Win32,60,5f47c29a48bd2a1e651a6eb7,5f4f816fa8de8e03e80a9632,4,,,,,,spoon,,,,,,0,12,12,26,1,3,1,,,,,,,,,,,,,,,,,,,,,,,,,,,,,,,,,,,,,,,,,,,,,,,,,,,,,,,,,,,,,,,,,,,,,,,,,,,,,,,,,,,,,,,,,,,,,,,,,,,,,,,,,,,,,
,,,,,,,,,,stimuli/images/PICTURE_68.png,ROOF,5e08b939f9e7501c6b40c650,24/11/1988,2020-09-02_12h29.23.174,proactive3.1,2020.1.2,Win32,60,5f47c29a48bd2a1e651a6eb7,5f4f816fa8de8e03e80a9632,4,,,,,,candle,,,,,,0,13,13,38,1,4,1,,,,,,,,,,,,,,,,,,,,,,,,,,,,,,,,,,,,,,,,,,,,,,,,,,,,,,,,,,,,,,,,,,,,,,,,,,,,,,,,,,,,,,,,,,,,,,,,,,,,,,,,,,,,,
,,,,,,,,,,stimuli/images/PICTURE_340.png,VALLEY,5e08b939f9e7501c6b40c650,24/11/1988,2020-09-02_12h29.23.174,proactive3.1,2020.1.2,Win32,60,5f47c29a48bd2a1e651a6eb7,5f4f816fa8de8e03e80a9632,4,,,,,,mirror,,,,,,0,14,14,54,1,6,1,,,,,,,,,,,,,,,,,,,,,,,,,,,,,,,,,,,,,,,,,,,,,,,,,,,,,,,,,,,,,,,,,,,,,,,,,,,,,,,,,,,,,,,,,,,,,,,,,,,,,,,,,,,,,
,,,,,,,,,,stimuli/images/PICTURE_233.png,LOTS,5e08b939f9e7501c6b40c650,24/11/1988,2020-09-02_12h29.23.174,proactive3.1,2020.1.2,Win32,60,5f47c29a48bd2a1e651a6eb7,5f4f816fa8de8e03e80a9632,4,,,,,,salt,,,,,,0,15,15,42,1,5,1,,,,,,,,,,,,,,,,,,,,,,,,,,,,,,,,,,,,,,,,,,,,,,,,,,,,,,,,,,,,,,,,,,,,,,,,,,,,,,,,,,,,,,,,,,,,,,,,,,,,,,,,,,,,,
,,,,,,,,,,stimuli/images/PICTURE_380.png,HONEY,5e08b939f9e7501c6b40c650,24/11/1988,2020-09-02_12h29.23.174,proactive3.1,2020.1.2,Win32,60,5f47c29a48bd2a1e651a6eb7,5f4f816fa8de8e03e80a9632,4,,,,,,gorilla,,,,,,0,16,16,19,1,2,1,,,,,,,,,,,,,,,,,,,,,,,,,,,,,,,,,,,,,,,,,,,,,,,,,,,,,,,,,,,,,,,,,,,,,,,,,,,,,,,,,,,,,,,,,,,,,,,,,,,,,,,,,,,,,
,,,,,,,,,,stimuli/images/PICTURE_403.png,RIVER,5e08b939f9e7501c6b40c650,24/11/1988,2020-09-02_12h29.23.174,proactive3.1,2020.1.2,Win32,60,5f47c29a48bd2a1e651a6eb7,5f4f816fa8de8e03e80a9632,4,,,,,,cathedral,,,,,,0,17,17,40,1,5,1,,,,,,,,,,,,,,,,,,,,,,,,,,,,,,,,,,,,,,,,,,,,,,,,,,,,,,,,,,,,,,,,,,,,,,,,,,,,,,,,,,,,,,,,,,,,,,,,,,,,,,,,,,,,,
,,,,,,,,,,stimuli/images/PICTURE_57.png,MOMENT,5e08b939f9e7501c6b40c650,24/11/1988,2020-09-02_12h29.23.174,proactive3.1,2020.1.2,Win32,60,5f47c29a48bd2a1e651a6eb7,5f4f816fa8de8e03e80a9632,4,,,,,,stamp,,,,,,0,18,18,37,1,4,1,,,,,,,,,,,,,,,,,,,,,,,,,,,,,,,,,,,,,,,,,,,,,,,,,,,,,,,,,,,,,,,,,,,,,,,,,,,,,,,,,,,,,,,,,,,,,,,,,,,,,,,,,,,,,
,,,,,,,,,,stimuli/images/PICTURE_504.png,YEAR,5e08b939f9e7501c6b40c650,24/11/1988,2020-09-02_12h29.23.174,proactive3.1,2020.1.2,Win32,60,5f47c29a48bd2a1e651a6eb7,5f4f816fa8de8e03e80a9632,4,,,,,,wheel,,,,,,0,19,19,13,1,2,1,,,,,,,,,,,,,,,,,,,,,,,,,,,,,,,,,,,,,,,,,,,,,,,,,,,,,,,,,,,,,,,,,,,,,,,,,,,,,,,,,,,,,,,,,,,,,,,,,,,,,,,,,,,,,
,,,,,,,,,,stimuli/images/PICTURE_296.png,LOTS,5e08b939f9e7501c6b40c650,24/11/1988,2020-09-02_12h29.23.174,proactive3.1,2020.1.2,Win32,60,5f47c29a48bd2a1e651a6eb7,5f4f816fa8de8e03e80a9632,4,,,,,,bolt,,,,,,0,20,20,9,1,1,1,,,,,,,,,,,,,,,,,,,,,,,,,,,,,,,,,,,,,,,,,,,,,,,,,,,,,,,,,,,,,,,,,,,,,,,,,,,,,,,,,,,,,,,,,,,,,,,,,,,,,,,,,,,,,
,,,,,,,,,,stimuli/images/PICTURE_667.png,RIVER,5e08b939f9e7501c6b40c650,24/11/1988,2020-09-02_12h29.23.174,proactive3.1,2020.1.2,Win32,60,5f47c29a48bd2a1e651a6eb7,5f4f816fa8de8e03e80a9632,4,,,,,,daisy,,,,,,0,21,21,10,1,2,1,,,,,,,,,,,,,,,,,,,,,,,,,,,,,,,,,,,,,,,,,,,,,,,,,,,,,,,,,,,,,,,,,,,,,,,,,,,,,,,,,,,,,,,,,,,,,,,,,,,,,,,,,,,,,
,,,,,,,,,,stimuli/images/PICTURE_32.png,PILLS,5e08b939f9e7501c6b40c650,24/11/1988,2020-09-02_12h29.23.174,proactive3.1,2020.1.2,Win32,60,5f47c29a48bd2a1e651a6eb7,5f4f816fa8de8e03e80a9632,4,,,,,,crown,,,,,,0,22,22,18,1,2,1,,,,,,,,,,,,,,,,,,,,,,,,,,,,,,,,,,,,,,,,,,,,,,,,,,,,,,,,,,,,,,,,,,,,,,,,,,,,,,,,,,,,,,,,,,,,,,,,,,,,,,,,,,,,,
,,,,,,,,,,stimuli/images/PICTURE_487.png,GIRL,5e08b939f9e7501c6b40c650,24/11/1988,2020-09-02_12h29.23.174,proactive3.1,2020.1.2,Win32,60,5f47c29a48bd2a1e651a6eb7,5f4f816fa8de8e03e80a9632,4,,,,,,basket,,,,,,0,23,23,45,1,5,1,,,,,,,,,,,,,,,,,,,,,,,,,,,,,,,,,,,,,,,,,,,,,,,,,,,,,,,,,,,,,,,,,,,,,,,,,,,,,,,,,,,,,,,,,,,,,,,,,,,,,,,,,,,,,
,,,,,,,,,,stimuli/images/PICTURE_380.png,CANDY,5e08b939f9e7501c6b40c650,24/11/1988,2020-09-02_12h29.23.174,proactive3.1,2020.1.2,Win32,60,5f47c29a48bd2a1e651a6eb7,5f4f816fa8de8e03e80a9632,4,,,,,,gorilla,,,,,,0,24,24,0,1,1,1,,,,,,,,,,,,,,,,,,,,,,,,,,,,,,,,,,,,,,,,,,,,,,,,,,,,,,,,,,,,,,,,,,,,,,,,,,,,,,,,,,,,,,,,,,,,,,,,,,,,,,,,,,,,,
,,,,,,,,,,stimuli/images/PICTURE_296.png,LIFE,5e08b939f9e7501c6b40c650,24/11/1988,2020-09-02_12h29.23.174,proactive3.1,2020.1.2,Win32,60,5f47c29a48bd2a1e651a6eb7,5f4f816fa8de8e03e80a9632,4,,,,,,bolt,,,,,,0,25,25,57,1,6,1,,,,,,,,,,,,,,,,,,,,,,,,,,,,,,,,,,,,,,,,,,,,,,,,,,,,,,,,,,,,,,,,,,,,,,,,,,,,,,,,,,,,,,,,,,,,,,,,,,,,,,,,,,,,,
,,,,,,,,,,stimuli/images/PICTURE_147.png,YEAR,5e08b939f9e7501c6b40c650,24/11/1988,2020-09-02_12h29.23.174,proactive3.1,2020.1.2,Win32,60,5f47c29a48bd2a1e651a6eb7,5f4f816fa8de8e03e80a9632,4,,,,,,hanger,,,,,,0,26,26,21,1,3,1,,,,,,,,,,,,,,,,,,,,,,,,,,,,,,,,,,,,,,,,,,,,,,,,,,,,,,,,,,,,,,,,,,,,,,,,,,,,,,,,,,,,,,,,,,,,,,,,,,,,,,,,,,,,,
,,,,,,,,,,stimuli/images/PICTURE_491.png,GLASS,5e08b939f9e7501c6b40c650,24/11/1988,2020-09-02_12h29.23.174,proactive3.1,2020.1.2,Win32,60,5f47c29a48bd2a1e651a6eb7,5f4f816fa8de8e03e80a9632,4,,,,,,rug,,,,,,0,27,27,14,1,2,1,,,,,,,,,,,,,,,,,,,,,,,,,,,,,,,,,,,,,,,,,,,,,,,,,,,,,,,,,,,,,,,,,,,,,,,,,,,,,,,,,,,,,,,,,,,,,,,,,,,,,,,,,,,,,
,,,,,,,,,,stimuli/images/PICTURE_655.png,TOILET,5e08b939f9e7501c6b40c650,24/11/1988,2020-09-02_12h29.23.174,proactive3.1,2020.1.2,Win32,60,5f47c29a48bd2a1e651a6eb7,5f4f816fa8de8e03e80a9632,4,,,,,,megaphone,,,,,,0,28,28,12,1,2,1,,,,,,,,,,,,,,,,,,,,,,,,,,,,,,,,,,,,,,,,,,,,,,,,,,,,,,,,,,,,,,,,,,,,,,,,,,,,,,,,,,,,,,,,,,,,,,,,,,,,,,,,,,,,,
,,,,,,,,,,stimuli/images/PICTURE_108.png,FLIGHT,5e08b939f9e7501c6b40c650,24/11/1988,2020-09-02_12h29.23.174,proactive3.1,2020.1.2,Win32,60,5f47c29a48bd2a1e651a6eb7,5f4f816fa8de8e03e80a9632,4,,,,,,calendar,,,,,,0,29,29,59,1,6,1,,,,,,,,,,,,,,,,,,,,,,,,,,,,,,,,,,,,,,,,,,,,,,,,,,,,,,,,,,,,,,,,,,,,,,,,,,,,,,,,,,,,,,,,,,,,,,,,,,,,,,,,,,,,,
,,,,,,,,,,stimuli/images/PICTURE_467.png,POLICY,5e08b939f9e7501c6b40c650,24/11/1988,2020-09-02_12h29.23.174,proactive3.1,2020.1.2,Win32,60,5f47c29a48bd2a1e651a6eb7,5f4f816fa8de8e03e80a9632,4,,,,,,peg,,,,,,0,30,30,53,1,6,1,,,,,,,,,,,,,,,,,,,,,,,,,,,,,,,,,,,,,,,,,,,,,,,,,,,,,,,,,,,,,,,,,,,,,,,,,,,,,,,,,,,,,,,,,,,,,,,,,,,,,,,,,,,,,
,,,,,,,,,,stimuli/images/PICTURE_708.png,RECORD,5e08b939f9e7501c6b40c650,24/11/1988,2020-09-02_12h29.23.174,proactive3.1,2020.1.2,Win32,60,5f47c29a48bd2a1e651a6eb7,5f4f816fa8de8e03e80a9632,4,,,,,,monkey,,,,,,0,31,31,58,1,6,1,,,,,,,,,,,,,,,,,,,,,,,,,,,,,,,,,,,,,,,,,,,,,,,,,,,,,,,,,,,,,,,,,,,,,,,,,,,,,,,,,,,,,,,,,,,,,,,,,,,,,,,,,,,,,
,,,,,,,,,,stimuli/images/PICTURE_203.png,NIGHT,5e08b939f9e7501c6b40c650,24/11/1988,2020-09-02_12h29.23.174,proactive3.1,2020.1.2,Win32,60,5f47c29a48bd2a1e651a6eb7,5f4f816fa8de8e03e80a9632,4,,,,,,cap,,,,,,0,32,32,2,1,1,1,,,,,,,,,,,,,,,,,,,,,,,,,,,,,,,,,,,,,,,,,,,,,,,,,,,,,,,,,,,,,,,,,,,,,,,,,,,,,,,,,,,,,,,,,,,,,,,,,,,,,,,,,,,,,
,,,,,,,,,,stimuli/images/PICTURE_340.png,LETTER,5e08b939f9e7501c6b40c650,24/11/1988,2020-09-02_12h29.23.174,proactive3.1,2020.1.2,Win32,60,5f47c29a48bd2a1e651a6eb7,5f4f816fa8de8e03e80a9632,4,,,,,,mirror,,,,,,0,33,33,24,1,3,1,,,,,,,,,,,,,,,,,,,,,,,,,,,,,,,,,,,,,,,,,,,,,,,,,,,,,,,,,,,,,,,,,,,,,,,,,,,,,,,,,,,,,,,,,,,,,,,,,,,,,,,,,,,,,
,,,,,,,,,,stimuli/images/PICTURE_750.png,HOTEL,5e08b939f9e7501c6b40c650,24/11/1988,2020-09-02_12h29.23.174,proactive3.1,2020.1.2,Win32,60,5f47c29a48bd2a1e651a6eb7,5f4f816fa8de8e03e80a9632,4,,,,,,kettle,,,,,,0,34,34,27,1,3,1,,,,,,,,,,,,,,,,,,,,,,,,,,,,,,,,,,,,,,,,,,,,,,,,,,,,,,,,,,,,,,,,,,,,,,,,,,,,,,,,,,,,,,,,,,,,,,,,,,,,,,,,,,,,,
,,,,,,,,,,stimuli/images/PICTURE_108.png,POLICY,5e08b939f9e7501c6b40c650,24/11/1988,2020-09-02_12h29.23.174,proactive3.1,2020.1.2,Win32,60,5f47c29a48bd2a1e651a6eb7,5f4f816fa8de8e03e80a9632,4,,,,,,calendar,,,,,,0,35,35,22,1,3,1,,,,,,,,,,,,,,,,,,,,,,,,,,,,,,,,,,,,,,,,,,,,,,,,,,,,,,,,,,,,,,,,,,,,,,,,,,,,,,,,,,,,,,,,,,,,,,,,,,,,,,,,,,,,,
,,,,,,,,,,stimuli/images/PICTURE_95.png,MILLER,5e08b939f9e7501c6b40c650,24/11/1988,2020-09-02_12h29.23.174,proactive3.1,2020.1.2,Win32,60,5f47c29a48bd2a1e651a6eb7,5f4f816fa8de8e03e80a9632,4,,,,,,suitcase,,,,,,0,36,36,56,1,6,1,,,,,,,,,,,,,,,,,,,,,,,,,,,,,,,,,,,,,,,,,,,,,,,,,,,,,,,,,,,,,,,,,,,,,,,,,,,,,,,,,,,,,,,,,,,,,,,,,,,,,,,,,,,,,
,,,,,,,,,,stimuli/images/PICTURE_95.png,HONEY,5e08b939f9e7501c6b40c650,24/11/1988,2020-09-02_12h29.23.174,proactive3.1,2020.1.2,Win32,60,5f47c29a48bd2a1e651a6eb7,5f4f816fa8de8e03e80a9632,4,,,,,,suitcase,,,,,,0,37,37,44,1,5,1,,,,,,,,,,,,,,,,,,,,,,,,,,,,,,,,,,,,,,,,,,,,,,,,,,,,,,,,,,,,,,,,,,,,,,,,,,,,,,,,,,,,,,,,,,,,,,,,,,,,,,,,,,,,,
,,,,,,,,,,stimuli/images/PICTURE_85.png,NATION,5e08b939f9e7501c6b40c650,24/11/1988,2020-09-02_12h29.23.174,proactive3.1,2020.1.2,Win32,60,5f47c29a48bd2a1e651a6eb7,5f4f816fa8de8e03e80a9632,4,,,,,,diamond,,,,,,0,38,38,5,1,1,1,,,,,,,,,,,,,,,,,,,,,,,,,,,,,,,,,,,,,,,,,,,,,,,,,,,,,,,,,,,,,,,,,,,,,,,,,,,,,,,,,,,,,,,,,,,,,,,,,,,,,,,,,,,,,
