consent_key.keys,consent_key.rt,recalled,recalled_rt,recall_acc,example_recall.thisRepN,example_recall.thisTrialN,example_recall.thisN,example_recall.thisIndex,example_recall.ran,file,word,participant,please enter your date of birth (dd/mm/yyyy),date,expName,psychopyVersion,OS,frameRate,STUDY_ID,SESSION_ID,list,prac_learn_study_loop.thisRepN,prac_learn_study_loop.thisTrialN,prac_learn_study_loop.thisN,prac_learn_study_loop.thisIndex,prac_learn_study_loop.ran,image,prac_learn_test_loop.thisRepN,prac_learn_test_loop.thisTrialN,prac_learn_test_loop.thisN,prac_learn_test_loop.thisIndex,prac_learn_test_loop.ran,learn_study_loop.thisRepN,learn_study_loop.thisTrialN,learn_study_loop.thisN,learn_study_loop.thisIndex,learn_study_loop.ran,list_no,block_no,learn_test_loop.thisRepN,learn_test_loop.thisTrialN,learn_test_loop.thisN,learn_test_loop.thisIndex,learn_test_loop.ran,learn_blocks.thisRepN,learn_blocks.thisTrialN,learn_blocks.thisN,learn_blocks.thisIndex,learn_blocks.ran,block_csv,key_resp_13.keys,key_resp_13.rt,learn_blocks_loop.thisRepN,learn_blocks_loop.thisTrialN,learn_blocks_loop.thisN,learn_blocks_loop.thisIndex,learn_blocks_loop.ran,final_learn_test.thisRepN,final_learn_test.thisTrialN,final_learn_test.thisN,final_learn_test.thisIndex,final_learn_test.ran,s_im1,s_im2,s_im3,s_im4,s_im5,s_im6,s_im7,s_im8,s_im1pos,s_im2pos,s_im3pos,s_im4pos,s_im5pos,s_im6pos,s_im7pos,s_im8pos,s_tarright,search_resp.keys,search_resp.rt,search_loop.thisRepN,search_loop.thisTrialN,search_loop.thisN,search_loop.thisIndex,search_loop.ran,prac_wm_search_loop.thisRepN,prac_wm_search_loop.thisTrialN,prac_wm_search_loop.thisN,prac_wm_search_loop.thisIndex,prac_wm_search_loop.ran,prac_wm_test_loop.thisRepN,prac_wm_test_loop.thisTrialN,prac_wm_test_loop.thisN,prac_wm_test_loop.thisIndex,prac_wm_test_loop.ran,wm_recalled1,wm_recall_rt1,wm_probed1,wm_recall_acc1,wm_recalled2,wm_recall_rt2,wm_probed2,wm_recall_acc2,wm_recalled3,wm_recall_rt3,wm_probed3,wm_recall_acc3,wm_recalled4,wm_recall_rt4,wm_probed4,wm_recall_acc4,prac_wm_trial_loop.thisRepN,prac_wm_trial_loop.thisTrialN,prac_wm_trial_loop.thisN,prac_wm_trial_loop.thisIndex,prac_wm_trial_loop.ran,word1,image1,file1,item_type1,word2,image2,file2,item_type2,word4,image4,file4,item_type4,word3,image3,file3,item_type3,wm_search_loop.thisRepN,wm_search_loop.thisTrialN,wm_search_loop.thisN,wm_search_loop.thisIndex,wm_search_loop.ran,wm_test_loop.thisRepN,wm_test_loop.thisTrialN,wm_test_loop.thisN,wm_test_loop.thisIndex,wm_test_loop.ran,wm_trial_loop.thisRepN,wm_trial_loop.thisTrialN,wm_trial_loop.thisN,wm_trial_loop.thisIndex,wm_trial_loop.ran
y,124.88935,TOUGH,6.98402,1,0,0,0,0,1,stimuli/images/PICTURE_747.png,TOUGH,5e6e6e101ffcd2431104aa66,28/11/2001,2020-09-02_12h32.51.602,proactive3.1,2020.1.2,Win32,60,5f47c29a48bd2a1e651a6eb7,5f4f824d7fc3a50331486a68,3,,,,,,,,,,,,,,,,,,,,,,,,,,,,,,,,,,,,,,,,,,,,,,,,,,,,,,,,,,,,,,,,,,,,,,,,,,,,,,,,,,,,,,,,,,,,,,,,,,,,,,,,,,,,,,,,,,,,,,,,,,,,,,,
,,,,,,,,,,stimuli/images/PICTURE_727.png,CELL,5e6e6e101ffcd2431104aa66,28/11/2001,2020-09-02_12h32.51.602,proactive3.1,2020.1.2,Win32,60,5f47c29a48bd2a1e651a6eb7,5f4f824d7fc3a50331486a68,3,0,0,0,1,1,hose,,,,,,,,,,,,,,,,,,,,,,,,,,,,,,,,,,,,,,,,,,,,,,,,,,,,,,,,,,,,,,,,,,,,,,,,,,,,,,,,,,,,,,,,,,,,,,,,,,,,,,,,,,,,,,,,,,,,,,,,,
,,,,,,,,,,stimuli/images/PICTURE_697.png,KILLER,5e6e6e101ffcd2431104aa66,28/11/2001,2020-09-02_12h32.51.602,proactive3.1,2020.1.2,Win32,60,5f47c29a48bd2a1e651a6eb7,5f4f824d7fc3a50331486a68,3,0,1,1,4,1,peach,,,,,,,,,,,,,,,,,,,,,,,,,,,,,,,,,,,,,,,,,,,,,,,,,,,,,,,,,,,,,,,,,,,,,,,,,,,,,,,,,,,,,,,,,,,,,,,,,,,,,,,,,,,,,,,,,,,,,,,,,
,,,,,,,,,,stimuli/images/PICTURE_378.png,LOSS,5e6e6e101ffcd2431104aa66,28/11/2001,2020-09-02_12h32.51.602,proactive3.1,2020.1.2,Win32,60,5f47c29a48bd2a1e651a6eb7,5f4f824d7fc3a50331486a68,3,0,2,2,2,1,lobster,,,,,,,,,,,,,,,,,,,,,,,,,,,,,,,,,,,,,,,,,,,,,,,,,,,,,,,,,,,,,,,,,,,,,,,,,,,,,,,,,,,,,,,,,,,,,,,,,,,,,,,,,,,,,,,,,,,,,,,,,
,,,,,,,,,,stimuli/images/PICTURE_658.png,DEVIL,5e6e6e101ffcd2431104aa66,28/11/2001,2020-09-02_12h32.51.602,proactive3.1,2020.1.2,Win32,60,5f47c29a48bd2a1e651a6eb7,5f4f824d7fc3a50331486a68,3,0,3,3,3,1,crow,,,,,,,,,,,,,,,,,,,,,,,,,,,,,,,,,,,,,,,,,,,,,,,,,,,,,,,,,,,,,,,,,,,,,,,,,,,,,,,,,,,,,,,,,,,,,,,,,,,,,,,,,,,,,,,,,,,,,,,,,
,,CELL,2.783725,1,,,,,,stimuli/images/PICTURE_727.png,CELL,5e6e6e101ffcd2431104aa66,28/11/2001,2020-09-02_12h32.51.602,proactive3.1,2020.1.2,Win32,60,5f47c29a48bd2a1e651a6eb7,5f4f824d7fc3a50331486a68,3,,,,,,hose,0,0,0,1,1,,,,,,,,,,,,,,,,,,,,,,,,,,,,,,,,,,,,,,,,,,,,,,,,,,,,,,,,,,,,,,,,,,,,,,,,,,,,,,,,,,,,,,,,,,,,,,,,,,,,,,,,,,,,,,,,,,,,
,,DEVIL,1.90208,1,,,,,,stimuli/images/PICTURE_658.png,DEVIL,5e6e6e101ffcd2431104aa66,28/11/2001,2020-09-02_12h32.51.602,proactive3.1,2020.1.2,Win32,60,5f47c29a48bd2a1e651a6eb7,5f4f824d7fc3a50331486a68,3,,,,,,crow,0,1,1,3,1,,,,,,,,,,,,,,,,,,,,,,,,,,,,,,,,,,,,,,,,,,,,,,,,,,,,,,,,,,,,,,,,,,,,,,,,,,,,,,,,,,,,,,,,,,,,,,,,,,,,,,,,,,,,,,,,,,,,
,,LOSS,1.635625,1,,,,,,stimuli/images/PICTURE_378.png,LOSS,5e6e6e101ffcd2431104aa66,28/11/2001,2020-09-02_12h32.51.602,proactive3.1,2020.1.2,Win32,60,5f47c29a48bd2a1e651a6eb7,5f4f824d7fc3a50331486a68,3,,,,,,lobster,0,2,2,2,1,,,,,,,,,,,,,,,,,,,,,,,,,,,,,,,,,,,,,,,,,,,,,,,,,,,,,,,,,,,,,,,,,,,,,,,,,,,,,,,,,,,,,,,,,,,,,,,,,,,,,,,,,,,,,,,,,,,,
,,GENIUS,2.26807,1,,,,,,stimuli/images/PICTURE_269.png,GENIUS,5e6e6e101ffcd2431104aa66,28/11/2001,2020-09-02_12h32.51.602,proactive3.1,2020.1.2,Win32,60,5f47c29a48bd2a1e651a6eb7,5f4f824d7fc3a50331486a68,3,,,,,,chameleon,0,3,3,0,1,,,,,,,,,,,,,,,,,,,,,,,,,,,,,,,,,,,,,,,,,,,,,,,,,,,,,,,,,,,,,,,,,,,,,,,,,,,,,,,,,,,,,,,,,,,,,,,,,,,,,,,,,,,,,,,,,,,,
,,KILLER,1.966895,1,,,,,,stimuli/images/PICTURE_697.png,KILLER,5e6e6e101ffcd2431104aa66,28/11/2001,2020-09-02_12h32.51.602,proactive3.1,2020.1.2,Win32,60,5f47c29a48bd2a1e651a6eb7,5f4f824d7fc3a50331486a68,3,,,,,,peach,0,4,4,4,1,,,,,,,,,,,,,,,,,,,,,,,,,,,,,,,,,,,,,,,,,,,,,,,,,,,,,,,,,,,,,,,,,,,,,,,,,,,,,,,,,,,,,,,,,,,,,,,,,,,,,,,,,,,,,,,,,,,,
,,,,,,,,,,stimuli/images/PICTURE_32.png,JUNGLE,5e6e6e101ffcd2431104aa66,28/11/2001,2020-09-02_12h32.51.602,proactive3.1,2020.1.2,Win32,60,5f47c29a48bd2a1e651a6eb7,5f4f824d7fc3a50331486a68,3,,,,,,crown,,,,,,0,0,0,45,1,5,0,,,,,,,,,,,,,,,,,,,,,,,,,,,,,,,,,,,,,,,,,,,,,,,,,,,,,,,,,,,,,,,,,,,,,,,,,,,,,,,,,,,,,,,,,,,,,,,,,,,,,,,,,,,,,
,,,,,,,,,,stimuli/images/PICTURE_708.png,CLIENT,5e6e6e101ffcd2431104aa66,28/11/2001,2020-09-02_12h32.51.602,proactive3.1,2020.1.2,Win32,60,5f47c29a48bd2a1e651a6eb7,5f4f824d7fc3a50331486a68,3,,,,,,monkey,,,,,,0,1,1,5,1,1,0,,,,,,,,,,,,,,,,,,,,,,,,,,,,,,,,,,,,,,,,,,,,,,,,,,,,,,,,,,,,,,,,,,,,,,,,,,,,,,,,,,,,,,,,,,,,,,,,,,,,,,,,,,,,,
,,,,,,,,,,stimuli/images/PICTURE_233.png,WOMEN,5e6e6e101ffcd2431104aa66,28/11/2001,2020-09-02_12h32.51.602,proactive3.1,2020.1.2,Win32,60,5f47c29a48bd2a1e651a6eb7,5f4f824d7fc3a50331486a68,3,,,,,,salt,,,,,,0,2,2,38,1,4,0,,,,,,,,,,,,,,,,,,,,,,,,,,,,,,,,,,,,,,,,,,,,,,,,,,,,,,,,,,,,,,,,,,,,,,,,,,,,,,,,,,,,,,,,,,,,,,,,,,,,,,,,,,,,,
,,,,,,,,,,stimuli/images/PICTURE_233.png,IDEAS,5e6e6e101ffcd2431104aa66,28/11/2001,2020-09-02_12h32.51.602,proactive3.1,2020.1.2,Win32,60,5f47c29a48bd2a1e651a6eb7,5f4f824d7fc3a50331486a68,3,,,,,,salt,,,,,,0,3,3,28,1,3,0,,,,,,,,,,,,,,,,,,,,,,,,,,,,,,,,,,,,,,,,,,,,,,,,,,,,,,,,,,,,,,,,,,,,,,,,,,,,,,,,,,,,,,,,,,,,,,,,,,,,,,,,,,,,,
,,,,,,,,,,stimuli/images/PICTURE_744.png,SAKE,5e6e6e101ffcd2431104aa66,28/11/2001,2020-09-02_12h32.51.602,proactive3.1,2020.1.2,Win32,60,5f47c29a48bd2a1e651a6eb7,5f4f824d7fc3a50331486a68,3,,,,,,ring,,,,,,0,4,4,17,1,2,0,,,,,,,,,,,,,,,,,,,,,,,,,,,,,,,,,,,,,,,,,,,,,,,,,,,,,,,,,,,,,,,,,,,,,,,,,,,,,,,,,,,,,,,,,,,,,,,,,,,,,,,,,,,,,
,,,,,,,,,,stimuli/images/PICTURE_151.png,GIRL,5e6e6e101ffcd2431104aa66,28/11/2001,2020-09-02_12h32.51.602,proactive3.1,2020.1.2,Win32,60,5f47c29a48bd2a1e651a6eb7,5f4f824d7fc3a50331486a68,3,,,,,,tray,,,,,,0,5,5,19,1,2,0,,,,,,,,,,,,,,,,,,,,,,,,,,,,,,,,,,,,,,,,,,,,,,,,,,,,,,,,,,,,,,,,,,,,,,,,,,,,,,,,,,,,,,,,,,,,,,,,,,,,,,,,,,,,,
,,,,,,,,,,stimuli/images/PICTURE_708.png,YARD,5e6e6e101ffcd2431104aa66,28/11/2001,2020-09-02_12h32.51.602,proactive3.1,2020.1.2,Win32,60,5f47c29a48bd2a1e651a6eb7,5f4f824d7fc3a50331486a68,3,,,,,,monkey,,,,,,0,6,6,29,1,3,0,,,,,,,,,,,,,,,,,,,,,,,,,,,,,,,,,,,,,,,,,,,,,,,,,,,,,,,,,,,,,,,,,,,,,,,,,,,,,,,,,,,,,,,,,,,,,,,,,,,,,,,,,,,,,
,,,,,,,,,,stimuli/images/PICTURE_311.png,FRIEND,5e6e6e101ffcd2431104aa66,28/11/2001,2020-09-02_12h32.51.602,proactive3.1,2020.1.2,Win32,60,5f47c29a48bd2a1e651a6eb7,5f4f824d7fc3a50331486a68,3,,,,,,razor,,,,,,0,7,7,34,1,4,0,,,,,,,,,,,,,,,,,,,,,,,,,,,,,,,,,,,,,,,,,,,,,,,,,,,,,,,,,,,,,,,,,,,,,,,,,,,,,,,,,,,,,,,,,,,,,,,,,,,,,,,,,,,,,
,,,,,,,,,,stimuli/images/PICTURE_488.png,STYLE,5e6e6e101ffcd2431104aa66,28/11/2001,2020-09-02_12h32.51.602,proactive3.1,2020.1.2,Win32,60,5f47c29a48bd2a1e651a6eb7,5f4f824d7fc3a50331486a68,3,,,,,,sun,,,,,,0,8,8,33,1,4,0,,,,,,,,,,,,,,,,,,,,,,,,,,,,,,,,,,,,,,,,,,,,,,,,,,,,,,,,,,,,,,,,,,,,,,,,,,,,,,,,,,,,,,,,,,,,,,,,,,,,,,,,,,,,,
,,,,,,,,,,stimuli/images/PICTURE_380.png,DEATH,5e6e6e101ffcd2431104aa66,28/11/2001,2020-09-02_12h32.51.602,proactive3.1,2020.1.2,Win32,60,5f47c29a48bd2a1e651a6eb7,5f4f824d7fc3a50331486a68,3,,,,,,gorilla,,,,,,0,9,9,49,1,5,0,,,,,,,,,,,,,,,,,,,,,,,,,,,,,,,,,,,,,,,,,,,,,,,,,,,,,,,,,,,,,,,,,,,,,,,,,,,,,,,,,,,,,,,,,,,,,,,,,,,,,,,,,,,,,
,,,,,,,,,,stimuli/images/PICTURE_285.png,ADVICE,5e6e6e101ffcd2431104aa66,28/11/2001,2020-09-02_12h32.51.602,proactive3.1,2020.1.2,Win32,60,5f47c29a48bd2a1e651a6eb7,5f4f824d7fc3a50331486a68,3,,,,,,carrot,,,,,,0,10,10,12,1,2,0,,,,,,,,,,,,,,,,,,,,,,,,,,,,,,,,,,,,,,,,,,,,,,,,,,,,,,,,,,,,,,,,,,,,,,,,,,,,,,,,,,,,,,,,,,,,,,,,,,,,,,,,,,,,,
,,,,,,,,,,stimuli/images/PICTURE_68.png,MILE,5e6e6e101ffcd2431104aa66,28/11/2001,2020-09-02_12h32.51.602,proactive3.1,2020.1.2,Win32,60,5f47c29a48bd2a1e651a6eb7,5f4f824d7fc3a50331486a68,3,,,,,,candle,,,,,,0,11,11,44,1,5,0,,,,,,,,,,,,,,,,,,,,,,,,,,,,,,,,,,,,,,,,,,,,,,,,,,,,,,,,,,,,,,,,,,,,,,,,,,,,,,,,,,,,,,,,,,,,,,,,,,,,,,,,,,,,,
,,,,,,,,,,stimuli/images/PICTURE_453.png,DUDE,5e6e6e101ffcd2431104aa66,28/11/2001,2020-09-02_12h32.51.602,proactive3.1,2020.1.2,Win32,60,5f47c29a48bd2a1e651a6eb7,5f4f824d7fc3a50331486a68,3,,,,,,scissors,,,,,,0,12,12,27,1,3,0,,,,,,,,,,,,,,,,,,,,,,,,,,,,,,,,,,,,,,,,,,,,,,,,,,,,,,,,,,,,,,,,,,,,,,,,,,,,,,,,,,,,,,,,,,,,,,,,,,,,,,,,,,,,,
,,,,,,,,,,stimuli/images/PICTURE_203.png,ARTIST,5e6e6e101ffcd2431104aa66,28/11/2001,2020-09-02_12h32.51.602,proactive3.1,2020.1.2,Win32,60,5f47c29a48bd2a1e651a6eb7,5f4f824d7fc3a50331486a68,3,,,,,,cap,,,,,,0,13,13,26,1,3,0,,,,,,,,,,,,,,,,,,,,,,,,,,,,,,,,,,,,,,,,,,,,,,,,,,,,,,,,,,,,,,,,,,,,,,,,,,,,,,,,,,,,,,,,,,,,,,,,,,,,,,,,,,,,,
,,,,,,,,,,stimuli/images/PICTURE_467.png,DEMON,5e6e6e101ffcd2431104aa66,28/11/2001,2020-09-02_12h32.51.602,proactive3.1,2020.1.2,Win32,60,5f47c29a48bd2a1e651a6eb7,5f4f824d7fc3a50331486a68,3,,,,,,peg,,,,,,0,14,14,23,1,3,0,,,,,,,,,,,,,,,,,,,,,,,,,,,,,,,,,,,,,,,,,,,,,,,,,,,,,,,,,,,,,,,,,,,,,,,,,,,,,,,,,,,,,,,,,,,,,,,,,,,,,,,,,,,,,
,,,,,,,,,,stimuli/images/PICTURE_215.png,PLENTY,5e6e6e101ffcd2431104aa66,28/11/2001,2020-09-02_12h32.51.602,proactive3.1,2020.1.2,Win32,60,5f47c29a48bd2a1e651a6eb7,5f4f824d7fc3a50331486a68,3,,,,,,boot,,,,,,0,15,15,37,1,4,0,,,,,,,,,,,,,,,,,,,,,,,,,,,,,,,,,,,,,,,,,,,,,,,,,,,,,,,,,,,,,,,,,,,,,,,,,,,,,,,,,,,,,,,,,,,,,,,,,,,,,,,,,,,,,
,,,,,,,,,,stimuli/images/PICTURE_380.png,PHOTO,5e6e6e101ffcd2431104aa66,28/11/2001,2020-09-02_12h32.51.602,proactive3.1,2020.1.2,Win32,60,5f47c29a48bd2a1e651a6eb7,5f4f824d7fc3a50331486a68,3,,,,,,gorilla,,,,,,0,16,16,52,1,6,0,,,,,,,,,,,,,,,,,,,,,,,,,,,,,,,,,,,,,,,,,,,,,,,,,,,,,,,,,,,,,,,,,,,,,,,,,,,,,,,,,,,,,,,,,,,,,,,,,,,,,,,,,,,,,
,,,,,,,,,,stimuli/images/PICTURE_688.png,WOMEN,5e6e6e101ffcd2431104aa66,28/11/2001,2020-09-02_12h32.51.602,proactive3.1,2020.1.2,Win32,60,5f47c29a48bd2a1e651a6eb7,5f4f824d7fc3a50331486a68,3,,,,,,runner,,,,,,0,17,17,14,1,2,0,,,,,,,,,,,,,,,,,,,,,,,,,,,,,,,,,,,,,,,,,,,,,,,,,,,,,,,,,,,,,,,,,,,,,,,,,,,,,,,,,,,,,,,,,,,,,,,,,,,,,,,,,,,,,
,,,,,,,,,,stimuli/images/PICTURE_208.png,LOTS,5e6e6e101ffcd2431104aa66,28/11/2001,2020-09-02_12h32.51.602,proactive3.1,2020.1.2,Win32,60,5f47c29a48bd2a1e651a6eb7,5f4f824d7fc3a50331486a68,3,,,,,,microphone,,,,,,0,18,18,10,1,2,0,,,,,,,,,,,,,,,,,,,,,,,,,,,,,,,,,,,,,,,,,,,,,,,,,,,,,,,,,,,,,,,,,,,,,,,,,,,,,,,,,,,,,,,,,,,,,,,,,,,,,,,,,,,,,
,,,,,,,,,,stimuli/images/PICTURE_667.png,PLENTY,5e6e6e101ffcd2431104aa66,28/11/2001,2020-09-02_12h32.51.602,proactive3.1,2020.1.2,Win32,60,5f47c29a48bd2a1e651a6eb7,5f4f824d7fc3a50331486a68,3,,,,,,daisy,,,,,,0,19,19,41,1,5,0,,,,,,,,,,,,,,,,,,,,,,,,,,,,,,,,,,,,,,,,,,,,,,,,,,,,,,,,,,,,,,,,,,,,,,,,,,,,,,,,,,,,,,,,,,,,,,,,,,,,,,,,,,,,,
,,,,,,,,,,stimuli/images/PICTURE_314.png,SAKE,5e6e6e101ffcd2431104aa66,28/11/2001,2020-09-02_12h32.51.602,proactive3.1,2020.1.2,Win32,60,5f47c29a48bd2a1e651a6eb7,5f4f824d7fc3a50331486a68,3,,,,,,perfume,,,,,,0,20,20,7,1,1,0,,,,,,,,,,,,,,,,,,,,,,,,,,,,,,,,,,,,,,,,,,,,,,,,,,,,,,,,,,,,,,,,,,,,,,,,,,,,,,,,,,,,,,,,,,,,,,,,,,,,,,,,,,,,,
,,,,,,,,,,stimuli/images/PICTURE_470.png,CASINO,5e6e6e101ffcd2431104aa66,28/11/2001,2020-09-02_12h32.51.602,proactive3.1,2020.1.2,Win32,60,5f47c29a48bd2a1e651a6eb7,5f4f824d7fc3a50331486a68,3,,,,,,motorbike,,,,,,0,21,21,36,1,4,0,,,,,,,,,,,,,,,,,,,,,,,,,,,,,,,,,,,,,,,,,,,,,,,,,,,,,,,,,,,,,,,,,,,,,,,,,,,,,,,,,,,,,,,,,,,,,,,,,,,,,,,,,,,,,
,,,,,,,,,,stimuli/images/PICTURE_302.png,FAMILY,5e6e6e101ffcd2431104aa66,28/11/2001,2020-09-02_12h32.51.602,proactive3.1,2020.1.2,Win32,60,5f47c29a48bd2a1e651a6eb7,5f4f824d7fc3a50331486a68,3,,,,,,taxi,,,,,,0,22,22,18,1,2,0,,,,,,,,,,,,,,,,,,,,,,,,,,,,,,,,,,,,,,,,,,,,,,,,,,,,,,,,,,,,,,,,,,,,,,,,,,,,,,,,,,,,,,,,,,,,,,,,,,,,,,,,,,,,,
,,,,,,,,,,stimuli/images/PICTURE_85.png,THING,5e6e6e101ffcd2431104aa66,28/11/2001,2020-09-02_12h32.51.602,proactive3.1,2020.1.2,Win32,60,5f47c29a48bd2a1e651a6eb7,5f4f824d7fc3a50331486a68,3,,,,,,diamond,,,,,,0,23,23,15,1,2,0,,,,,,,,,,,,,,,,,,,,,,,,,,,,,,,,,,,,,,,,,,,,,,,,,,,,,,,,,,,,,,,,,,,,,,,,,,,,,,,,,,,,,,,,,,,,,,,,,,,,,,,,,,,,,
,,,,,,,,,,stimuli/images/PICTURE_692.png,MONTH,5e6e6e101ffcd2431104aa66,28/11/2001,2020-09-02_12h32.51.602,proactive3.1,2020.1.2,Win32,60,5f47c29a48bd2a1e651a6eb7,5f4f824d7fc3a50331486a68,3,,,,,,cherry,,,,,,0,24,24,16,1,2,0,,,,,,,,,,,,,,,,,,,,,,,,,,,,,,,,,,,,,,,,,,,,,,,,,,,,,,,,,,,,,,,,,,,,,,,,,,,,,,,,,,,,,,,,,,,,,,,,,,,,,,,,,,,,,
,,,,,,,,,,stimuli/images/PICTURE_744.png,SYSTEM,5e6e6e101ffcd2431104aa66,28/11/2001,2020-09-02_12h32.51.602,proactive3.1,2020.1.2,Win32,60,5f47c29a48bd2a1e651a6eb7,5f4f824d7fc3a50331486a68,3,,,,,,ring,,,,,,0,25,25,43,1,5,0,,,,,,,,,,,,,,,,,,,,,,,,,,,,,,,,,,,,,,,,,,,,,,,,,,,,,,,,,,,,,,,,,,,,,,,,,,,,,,,,,,,,,,,,,,,,,,,,,,,,,,,,,,,,,
,,,,,,,,,,stimuli/images/PICTURE_491.png,WRITER,5e6e6e101ffcd2431104aa66,28/11/2001,2020-09-02_12h32.51.602,proactive3.1,2020.1.2,Win32,60,5f47c29a48bd2a1e651a6eb7,5f4f824d7fc3a50331486a68,3,,,,,,rug,,,,,,0,26,26,57,1,6,0,,,,,,,,,,,,,,,,,,,,,,,,,,,,,,,,,,,,,,,,,,,,,,,,,,,,,,,,,,,,,,,,,,,,,,,,,,,,,,,,,,,,,,,,,,,,,,,,,,,,,,,,,,,,,
,,,,,,,,,,stimuli/images/PICTURE_348.png,SPEECH,5e6e6e101ffcd2431104aa66,28/11/2001,2020-09-02_12h32.51.602,proactive3.1,2020.1.2,Win32,60,5f47c29a48bd2a1e651a6eb7,5f4f824d7fc3a50331486a68,3,,,,,,pepper,,,,,,0,27,27,20,1,3,0,,,,,,,,,,,,,,,,,,,,,,,,,,,,,,,,,,,,,,,,,,,,,,,,,,,,,,,,,,,,,,,,,,,,,,,,,,,,,,,,,,,,,,,,,,,,,,,,,,,,,,,,,,,,,
,,,,,,,,,,stimuli/images/PICTURE_667.png,BATH,5e6e6e101ffcd2431104aa66,28/11/2001,2020-09-02_12h32.51.602,proactive3.1,2020.1.2,Win32,60,5f47c29a48bd2a1e651a6eb7,5f4f824d7fc3a50331486a68,3,,,,,,daisy,,,,,,0,28,28,4,1,1,0,,,,,,,,,,,,,,,,,,,,,,,,,,,,,,,,,,,,,,,,,,,,,,,,,,,,,,,,,,,,,,,,,,,,,,,,,,,,,,,,,,,,,,,,,,,,,,,,,,,,,,,,,,,,,
,,,,,,,,,,stimuli/images/PICTURE_654.png,VALLEY,5e6e6e101ffcd2431104aa66,28/11/2001,2020-09-02_12h32.51.602,proactive3.1,2020.1.2,Win32,60,5f47c29a48bd2a1e651a6eb7,5f4f824d7fc3a50331486a68,3,,,,,,pencil,,,,,,0,29,29,1,1,1,0,,,,,,,,,,,,,,,,,,,,,,,,,,,,,,,,,,,,,,,,,,,,,,,,,,,,,,,,,,,,,,,,,,,,,,,,,,,,,,,,,,,,,,,,,,,,,,,,,,,,,,,,,,,,,
,,,,,,,,,,stimuli/images/PICTURE_491.png,ROOF,5e6e6e101ffcd2431104aa66,28/11/2001,2020-09-02_12h32.51.602,proactive3.1,2020.1.2,Win32,60,5f47c29a48bd2a1e651a6eb7,5f4f824d7fc3a50331486a68,3,,,,,,rug,,,,,,0,30,30,24,1,3,0,,,,,,,,,,,,,,,,,,,,,,,,,,,,,,,,,,,,,,,,,,,,,,,,,,,,,,,,,,,,,,,,,,,,,,,,,,,,,,,,,,,,,,,,,,,,,,,,,,,,,,,,,,,,,
,,,,,,,,,,stimuli/images/PICTURE_308.png,ESTATE,5e6e6e101ffcd2431104aa66,28/11/2001,2020-09-02_12h32.51.602,proactive3.1,2020.1.2,Win32,60,5f47c29a48bd2a1e651a6eb7,5f4f824d7fc3a50331486a68,3,,,,,,dice,,,,,,0,31,31,46,1,5,0,,,,,,,,,,,,,,,,,,,,,,,,,,,,,,,,,,,,,,,,,,,,,,,,,,,,,,,,,,,,,,,,,,,,,,,,,,,,,,,,,,,,,,,,,,,,,,,,,,,,,,,,,,,,,
,,,,,,,,,,stimuli/images/PICTURE_208.png,MONTH,5e6e6e101ffcd2431104aa66,28/11/2001,2020-09-02_12h32.51.602,proactive3.1,2020.1.2,Win32,60,5f47c29a48bd2a1e651a6eb7,5f4f824d7fc3a50331486a68,3,,,,,,microphone,,,,,,0,32,32,53,1,6,0,,,,,,,,,,,,,,,,,,,,,,,,,,,,,,,,,,,,,,,,,,,,,,,,,,,,,,,,,,,,,,,,,,,,,,,,,,,,,,,,,,,,,,,,,,,,,,,,,,,,,,,,,,,,,
,,,,,,,,,,stimuli/images/PICTURE_453.png,PLENTY,5e6e6e101ffcd2431104aa66,28/11/2001,2020-09-02_12h32.51.602,proactive3.1,2020.1.2,Win32,60,5f47c29a48bd2a1e651a6eb7,5f4f824d7fc3a50331486a68,3,,,,,,scissors,,,,,,0,33,33,56,1,6,0,,,,,,,,,,,,,,,,,,,,,,,,,,,,,,,,,,,,,,,,,,,,,,,,,,,,,,,,,,,,,,,,,,,,,,,,,,,,,,,,,,,,,,,,,,,,,,,,,,,,,,,,,,,,,
,,,,,,,,,,stimuli/images/PICTURE_675.png,WEAPON,5e6e6e101ffcd2431104aa66,28/11/2001,2020-09-02_12h32.51.602,proactive3.1,2020.1.2,Win32,60,5f47c29a48bd2a1e651a6eb7,5f4f824d7fc3a50331486a68,3,,,,,,windmill,,,,,,0,34,34,32,1,4,0,,,,,,,,,,,,,,,,,,,,,,,,,,,,,,,,,,,,,,,,,,,,,,,,,,,,,,,,,,,,,,,,,,,,,,,,,,,,,,,,,,,,,,,,,,,,,,,,,,,,,,,,,,,,,
,,,,,,,,,,stimuli/images/PICTURE_248.png,DOZEN,5e6e6e101ffcd2431104aa66,28/11/2001,2020-09-02_12h32.51.602,proactive3.1,2020.1.2,Win32,60,5f47c29a48bd2a1e651a6eb7,5f4f824d7fc3a50331486a68,3,,,,,,cart,,,,,,0,35,35,39,1,4,0,,,,,,,,,,,,,,,,,,,,,,,,,,,,,,,,,,,,,,,,,,,,,,,,,,,,,,,,,,,,,,,,,,,,,,,,,,,,,,,,,,,,,,,,,,,,,,,,,,,,,,,,,,,,,
,,,,,,,,,,stimuli/images/PICTURE_311.png,BEAUTY,5e6e6e101ffcd2431104aa66,28/11/2001,2020-09-02_12h32.51.602,proactive3.1,2020.1.2,Win32,60,5f47c29a48bd2a1e651a6eb7,5f4f824d7fc3a50331486a68,3,,,,,,razor,,,,,,0,36,36,13,1,2,0,,,,,,,,,,,,,,,,,,,,,,,,,,,,,,,,,,,,,,,,,,,,,,,,,,,,,,,,,,,,,,,,,,,,,,,,,,,,,,,,,,,,,,,,,,,,,,,,,,,,,,,,,,,,,
,,,,,,,,,,stimuli/images/PICTURE_677.png,MILE,5e6e6e101ffcd2431104aa66,28/11/2001,2020-09-02_12h32.51.602,proactive3.1,2020.1.2,Win32,60,5f47c29a48bd2a1e651a6eb7,5f4f824d7fc3a50331486a68,3,,,,,,map,,,,,,0,37,37,30,1,4,0,,,,,,,,,,,,,,,,,,,,,,,,,,,,,,,,,,,,,,,,,,,,,,,,,,,,,,,,,,,,,,,,,,,,,,,,,,,,,,,,,,,,,,,,,,,,,,,,,,,,,,,,,,,,,
,,,,,,,,,,stimuli/images/PICTURE_504.png,BODY,5e6e6e101ffcd2431104aa66,28/11/2001,2020-09-02_12h32.51.602,proactive3.1,2020.1.2,Win32,60,5f47c29a48bd2a1e651a6eb7,5f4f824d7fc3a50331486a68,3,,,,,,wheel,,,,,,0,38,38,8,1,1,0,,,,,,,,,,,,,,,,,,,,,,,,,,,,,,,,,,,,,,,,,,,,,,,,,,,,,,,,,,,,,,,,,,,,,,,,,,,,,,,,,,,,,,,,,,,,,,,,,,,,,,,,,,,,,
,,,,,,,,,,stimuli/images/PICTURE_708.png,PENNY,5e6e6e101ffcd2431104aa66,28/11/2001,2020-09-02_12h32.51.602,proactive3.1,2020.1.2,Win32,60,5f47c29a48bd2a1e651a6eb7,5f4f824d7fc3a50331486a68,3,,,,,,monkey,,,,,,0,39,39,31,1,4,0,,,,,,,,,,,,,,,,,,,,,,,,,,,,,,,,,,,,,,,,,,,,,,,,,,,,,,,,,,,,,,,,,,,,,,,,,,,,,,,,,,,,,,,,,,,,,,,,,,,,,,,,,,,,,
,,,,,,,,,,stimuli/images/PICTURE_469.png,LETTER,5e6e6e101ffcd2431104aa66,28/11/2001,2020-09-02_12h32.51.602,proactive3.1,2020.1.2,Win32,60,5f47c29a48bd2a1e651a6eb7,5f4f824d7fc3a50331486a68,3,,,,,,stool,,,,,,0,40,40,42,1,5,0,,,,,,,,,,,,,,,,,,,,,,,,,,,,,,,,,,,,,,,,,,,,,,,,,,,,,,,,,,,,,,,,,,,,,,,,,,,,,,,,,,,,,,,,,,,,,,,,,,,,,,,,,,,,,
,,,,,,,,,,stimuli/images/PICTURE_308.png,KIND,5e6e6e101ffcd2431104aa66,28/11/2001,2020-09-02_12h32.51.602,proactive3.1,2020.1.2,Win32,60,5f47c29a48bd2a1e651a6eb7,5f4f824d7fc3a50331486a68,3,,,,,,dice,,,,,,0,41,41,54,1,6,0,,,,,,,,,,,,,,,,,,,,,,,,,,,,,,,,,,,,,,,,,,,,,,,,,,,,,,,,,,,,,,,,,,,,,,,,,,,,,,,,,,,,,,,,,,,,,,,,,,,,,,,,,,,,,
,,,,,,,,,,stimuli/images/PICTURE_208.png,THING,5e6e6e101ffcd2431104aa66,28/11/2001,2020-09-02_12h32.51.602,proactive3.1,2020.1.2,Win32,60,5f47c29a48bd2a1e651a6eb7,5f4f824d7fc3a50331486a68,3,,,,,,microphone,,,,,,0,42,42,47,1,5,0,,,,,,,,,,,,,,,,,,,,,,,,,,,,,,,,,,,,,,,,,,,,,,,,,,,,,,,,,,,,,,,,,,,,,,,,,,,,,,,,,,,,,,,,,,,,,,,,,,,,,,,,,,,,,
,,,,,,,,,,stimuli/images/PICTURE_147.png,MOMENT,5e6e6e101ffcd2431104aa66,28/11/2001,2020-09-02_12h32.51.602,proactive3.1,2020.1.2,Win32,60,5f47c29a48bd2a1e651a6eb7,5f4f824d7fc3a50331486a68,3,,,,,,hanger,,,,,,0,43,43,51,1,6,0,,,,,,,,,,,,,,,,,,,,,,,,,,,,,,,,,,,,,,,,,,,,,,,,,,,,,,,,,,,,,,,,,,,,,,,,,,,,,,,,,,,,,,,,,,,,,,,,,,,,,,,,,,,,,
,,,,,,,,,,stimuli/images/PICTURE_469.png,ARTIST,5e6e6e101ffcd2431104aa66,28/11/2001,2020-09-02_12h32.51.602,proactive3.1,2020.1.2,Win32,60,5f47c29a48bd2a1e651a6eb7,5f4f824d7fc3a50331486a68,3,,,,,,stool,,,,,,0,44,44,6,1,1,0,,,,,,,,,,,,,,,,,,,,,,,,,,,,,,,,,,,,,,,,,,,,,,,,,,,,,,,,,,,,,,,,,,,,,,,,,,,,,,,,,,,,,,,,,,,,,,,,,,,,,,,,,,,,,
,,,,,,,,,,stimuli/images/PICTURE_123.png,ADVICE,5e6e6e101ffcd2431104aa66,28/11/2001,2020-09-02_12h32.51.602,proactive3.1,2020.1.2,Win32,60,5f47c29a48bd2a1e651a6eb7,5f4f824d7fc3a50331486a68,3,,,,,,dart,,,,,,0,45,45,50,1,6,0,,,,,,,,,,,,,,,,,,,,,,,,,,,,,,,,,,,,,,,,,,,,,,,,,,,,,,,,,,,,,,,,,,,,,,,,,,,,,,,,,,,,,,,,,,,,,,,,,,,,,,,,,,,,,
,,,,,,,,,,stimuli/images/PICTURE_123.png,ADVICE,5e6e6e101ffcd2431104aa66,28/11/2001,2020-09-02_12h32.51.602,proactive3.1,2020.1.2,Win32,60,5f47c29a48bd2a1e651a6eb7,5f4f824d7fc3a50331486a68,3,,,,,,dart,,,,,,0,46,46,40,1,5,0,,,,,,,,,,,,,,,,,,,,,,,,,,,,,,,,,,,,,,,,,,,,,,,,,,,,,,,,,,,,,,,,,,,,,,,,,,,,,,,,,,,,,,,,,,,,,,,,,,,,,,,,,,,,,
,,,,,,,,,,stimuli/images/PICTURE_688.png,CASINO,5e6e6e101ffcd2431104aa66,28/11/2001,2020-09-02_12h32.51.602,proactive3.1,2020.1.2,Win32,60,5f47c29a48bd2a1e651a6eb7,5f4f824d7fc3a50331486a68,3,,,,,,runner,,,,,,0,47,47,2,1,1,0,,,,,,,,,,,,,,,,,,,,,,,,,,,,,,,,,,,,,,,,,,,,,,,,,,,,,,,,,,,,,,,,,,,,,,,,,,,,,,,,,,,,,,,,,,,,,,,,,,,,,,,,,,,,,
,,,,,,,,,,stimuli/images/PICTURE_255.png,AREA,5e6e6e101ffcd2431104aa66,28/11/2001,2020-09-02_12h32.51.602,proactive3.1,2020.1.2,Win32,60,5f47c29a48bd2a1e651a6eb7,5f4f824d7fc3a50331486a68,3,,,,,,shovel,,,,,,0,48,48,22,1,3,0,,,,,,,,,,,,,,,,,,,,,,,,,,,,,,,,,,,,,,,,,,,,,,,,,,,,,,,,,,,,,,,,,,,,,,,,,,,,,,,,,,,,,,,,,,,,,,,,,,,,,,,,,,,,,
,,,,,,,,,,stimuli/images/PICTURE_449.png,THING,5e6e6e101ffcd2431104aa66,28/11/2001,2020-09-02_12h32.51.602,proactive3.1,2020.1.2,Win32,60,5f47c29a48bd2a1e651a6eb7,5f4f824d7fc3a50331486a68,3,,,,,,bench,,,,,,0,49,49,59,1,6,0,,,,,,,,,,,,,,,,,,,,,,,,,,,,,,,,,,,,,,,,,,,,,,,,,,,,,,,,,,,,,,,,,,,,,,,,,,,,,,,,,,,,,,,,,,,,,,,,,,,,,,,,,,,,,
,,,,,,,,,,stimuli/images/PICTURE_509.png,PHOTO,5e6e6e101ffcd2431104aa66,28/11/2001,2020-09-02_12h32.51.602,proactive3.1,2020.1.2,Win32,60,5f47c29a48bd2a1e651a6eb7,5f4f824d7fc3a50331486a68,3,,,,,,telephone,,,,,,0,50,50,21,1,3,0,,,,,,,,,,,,,,,,,,,,,,,,,,,,,,,,,,,,,,,,,,,,,,,,,,,,,,,,,,,,,,,,,,,,,,,,,,,,,,,,,,,,,,,,,,,,,,,,,,,,,,,,,,,,,
,,,,,,,,,,stimuli/images/PICTURE_487.png,FLIGHT,5e6e6e101ffcd2431104aa66,28/11/2001,2020-09-02_12h32.51.602,proactive3.1,2020.1.2,Win32,60,5f47c29a48bd2a1e651a6eb7,5f4f824d7fc3a50331486a68,3,,,,,,basket,,,,,,0,51,51,9,1,1,0,,,,,,,,,,,,,,,,,,,,,,,,,,,,,,,,,,,,,,,,,,,,,,,,,,,,,,,,,,,,,,,,,,,,,,,,,,,,,,,,,,,,,,,,,,,,,,,,,,,,,,,,,,,,,
,,,,,,,,,,stimuli/images/PICTURE_327.png,BEAUTY,5e6e6e101ffcd2431104aa66,28/11/2001,2020-09-02_12h32.51.602,proactive3.1,2020.1.2,Win32,60,5f47c29a48bd2a1e651a6eb7,5f4f824d7fc3a50331486a68,3,,,,,,helmet,,,,,,0,52,52,48,1,5,0,,,,,,,,,,,,,,,,,,,,,,,,,,,,,,,,,,,,,,,,,,,,,,,,,,,,,,,,,,,,,,,,,,,,,,,,,,,,,,,,,,,,,,,,,,,,,,,,,,,,,,,,,,,,,
,,,,,,,,,,stimuli/images/PICTURE_177.png,CARS,5e6e6e101ffcd2431104aa66,28/11/2001,2020-09-02_12h32.51.602,proactive3.1,2020.1.2,Win32,60,5f47c29a48bd2a1e651a6eb7,5f4f824d7fc3a50331486a68,3,,,,,,mushroom,,,,,,0,53,53,35,1,4,0,,,,,,,,,,,,,,,,,,,,,,,,,,,,,,,,,,,,,,,,,,,,,,,,,,,,,,,,,,,,,,,,,,,,,,,,,,,,,,,,,,,,,,,,,,,,,,,,,,,,,,,,,,,,,
,,,,,,,,,,stimuli/images/PICTURE_314.png,GODS,5e6e6e101ffcd2431104aa66,28/11/2001,2020-09-02_12h32.51.602,proactive3.1,2020.1.2,Win32,60,5f47c29a48bd2a1e651a6eb7,5f4f824d7fc3a50331486a68,3,,,,,,perfume,,,,,,0,54,54,11,1,2,0,,,,,,,,,,,,,,,,,,,,,,,,,,,,,,,,,,,,,,,,,,,,,,,,,,,,,,,,,,,,,,,,,,,,,,,,,,,,,,,,,,,,,,,,,,,,,,,,,,,,,,,,,,,,,
,,,,,,,,,,stimuli/images/PICTURE_160.png,FEET,5e6e6e101ffcd2431104aa66,28/11/2001,2020-09-02_12h32.51.602,proactive3.1,2020.1.2,Win32,60,5f47c29a48bd2a1e651a6eb7,5f4f824d7fc3a50331486a68,3,,,,,,wheelbarrow,,,,,,0,55,55,58,1,6,0,,,,,,,,,,,,,,,,,,,,,,,,,,,,,,,,,,,,,,,,,,,,,,,,,,,,,,,,,,,,,,,,,,,,,,,,,,,,,,,,,,,,,,,,,,,,,,,,,,,,,,,,,,,,,
,,,,,,,,,,stimuli/images/PICTURE_356.png,DANGER,5e6e6e101ffcd2431104aa66,28/11/2001,2020-09-02_12h32.51.602,proactive3.1,2020.1.2,Win32,60,5f47c29a48bd2a1e651a6eb7,5f4f824d7fc3a50331486a68,3,,,,,,pawn,,,,,,0,56,56,55,1,6,0,,,,,,,,,,,,,,,,,,,,,,,,,,,,,,,,,,,,,,,,,,,,,,,,,,,,,,,,,,,,,,,,,,,,,,,,,,,,,,,,,,,,,,,,,,,,,,,,,,,,,,,,,,,,,
,,,,,,,,,,stimuli/images/PICTURE_160.png,LEADER,5e6e6e101ffcd2431104aa66,28/11/2001,2020-09-02_12h32.51.602,proactive3.1,2020.1.2,Win32,60,5f47c29a48bd2a1e651a6eb7,5f4f824d7fc3a50331486a68,3,,,,,,wheelbarrow,,,,,,0,57,57,3,1,1,0,,,,,,,,,,,,,,,,,,,,,,,,,,,,,,,,,,,,,,,,,,,,,,,,,,,,,,,,,,,,,,,,,,,,,,,,,,,,,,,,,,,,,,,,,,,,,,,,,,,,,,,,,,,,,
,,,,,,,,,,stimuli/images/PICTURE_95.png,STYLE,5e6e6e101ffcd2431104aa66,28/11/2001,2020-09-02_12h32.51.602,proactive3.1,2020.1.2,Win32,60,5f47c29a48bd2a1e651a6eb7,5f4f824d7fc3a50331486a68,3,,,,,,suitcase,,,,,,0,58,58,25,1,3,0,,,,,,,,,,,,,,,,,,,,,,,,,,,,,,,,,,,,,,,,,,,,,,,,,,,,,,,,,,,,,,,,,,,,,,,,,,,,,,,,,,,,,,,,,,,,,,,,,,,,,,,,,,,,,
,,?,0.001295,0,,,,,,stimuli/images/PICTURE_177.png,CARS,5e6e6e101ffcd2431104aa66,28/11/2001,2020-09-02_12h32.51.602,proactive3.1,2020.1.2,Win32,60,5f47c29a48bd2a1e651a6eb7,5f4f824d7fc3a50331486a68,3,,,,,,mushroom,,,,,,,,,,,4,0,0,0,0,35,1,,,,,,,,,,,,,,,,,,,,,,,,,,,,,,,,,,,,,,,,,,,,,,,,,,,,,,,,,,,,,,,,,,,,,,,,,,,,,,,,,,,,,,,,,,,,,,,,,,,,,,,,
,,?,0.00062,0,,,,,,stimuli/images/PICTURE_708.png,CLIENT,5e6e6e101ffcd2431104aa66,28/11/2001,2020-09-02_12h32.51.602,proactive3.1,2020.1.2,Win32,60,5f47c29a48bd2a1e651a6eb7,5f4f824d7fc3a50331486a68,3,,,,,,monkey,,,,,,,,,,,1,0,0,1,1,5,1,,,,,,,,,,,,,,,,,,,,,,,,,,,,,,,,,,,,,,,,,,,,,,,,,,,,,,,,,,,,,,,,,,,,,,,,,,,,,,,,,,,,,,,,,,,,,,,,,,,,,,,,
,,?,0.00043,0,,,,,,stimuli/images/PICTURE_215.png,PLENTY,5e6e6e101ffcd2431104aa66,28/11/2001,2020-09-02_12h32.51.602,proactive3.1,2020.1.2,Win32,60,5f47c29a48bd2a1e651a6eb7,5f4f824d7fc3a50331486a68,3,,,,,,boot,,,,,,,,,,,4,0,0,2,2,37,1,,,,,,,,,,,,,,,,,,,,,,,,,,,,,,,,,,,,,,,,,,,,,,,,,,,,,,,,,,,,,,,,,,,,,,,,,,,,,,,,,,,,,,,,,,,,,,,,,,,,,,,,
,,?,0.00045,0,,,,,,stimuli/images/PICTURE_308.png,KIND,5e6e6e101ffcd2431104aa66,28/11/2001,2020-09-02_12h32.51.602,proactive3.1,2020.1.2,Win32,60,5f47c29a48bd2a1e651a6eb7,5f4f824d7fc3a50331486a68,3,,,,,,dice,,,,,,,,,,,6,0,0,3,3,54,1,,,,,,,,,,,,,,,,,,,,,,,,,,,,,,,,,,,,,,,,,,,,,,,,,,,,,,,,,,,,,,,,,,,,,,,,,,,,,,,,,,,,,,,,,,,,,,,,,,,,,,,,
,,?,0.000405,0,,,,,,stimuli/images/PICTURE_677.png,MILE,5e6e6e101ffcd2431104aa66,28/11/2001,2020-09-02_12h32.51.602,proactive3.1,2020.1.2,Win32,60,5f47c29a48bd2a1e651a6eb7,5f4f824d7fc3a50331486a68,3,,,,,,map,,,,,,,,,,,4,0,0,4,4,30,1,,,,,,,,,,,,,,,,,,,,,,,,,,,,,,,,,,,,,,,,,,,,,,,,,,,,,,,,,,,,,,,,,,,,,,,,,,,,,,,,,,,,,,,,,,,,,,,,,,,,,,,,
,,?,0.00041,0,,,,,,stimuli/images/PICTURE_32.png,JUNGLE,5e6e6e101ffcd2431104aa66,28/11/2001,2020-09-02_12h32.51.602,proactive3.1,2020.1.2,Win32,60,5f47c29a48bd2a1e651a6eb7,5f4f824d7fc3a50331486a68,3,,,,,,crown,,,,,,,,,,,5,0,0,5,5,45,1,,,,,,,,,,,,,,,,,,,,,,,,,,,,,,,,,,,,,,,,,,,,,,,,,,,,,,,,,,,,,,,,,,,,,,,,,,,,,,,,,,,,,,,,,,,,,,,,,,,,,,,,
,,?,0.0011,0,,,,,,stimuli/images/PICTURE_453.png,PLENTY,5e6e6e101ffcd2431104aa66,28/11/2001,2020-09-02_12h32.51.602,proactive3.1,2020.1.2,Win32,60,5f47c29a48bd2a1e651a6eb7,5f4f824d7fc3a50331486a68,3,,,,,,scissors,,,,,,,,,,,6,0,0,6,6,56,1,,,,,,,,,,,,,,,,,,,,,,,,,,,,,,,,,,,,,,,,,,,,,,,,,,,,,,,,,,,,,,,,,,,,,,,,,,,,,,,,,,,,,,,,,,,,,,,,,,,,,,,,
,,?,0.00043,0,,,,,,stimuli/images/PICTURE_314.png,GODS,5e6e6e101ffcd2431104aa66,28/11/2001,2020-09-02_12h32.51.602,proactive3.1,2020.1.2,Win32,60,5f47c29a48bd2a1e651a6eb7,5f4f824d7fc3a50331486a68,3,,,,,,perfume,,,,,,,,,,,2,0,0,7,7,11,1,,,,,,,,,,,,,,,,,,,,,,,,,,,,,,,,,,,,,,,,,,,,,,,,,,,,,,,,,,,,,,,,,,,,,,,,,,,,,,,,,,,,,,,,,,,,,,,,,,,,,,,,
,,?,0.00046,0,,,,,,stimuli/images/PICTURE_708.png,PENNY,5e6e6e101ffcd2431104aa66,28/11/2001,2020-09-02_12h32.51.602,proactive3.1,2020.1.2,Win32,60,5f47c29a48bd2a1e651a6eb7,5f4f824d7fc3a50331486a68,3,,,,,,monkey,,,,,,,,,,,4,0,0,8,8,31,1,,,,,,,,,,,,,,,,,,,,,,,,,,,,,,,,,,,,,,,,,,,,,,,,,,,,,,,,,,,,,,,,,,,,,,,,,,,,,,,,,,,,,,,,,,,,,,,,,,,,,,,,
,,?,0.000735,0,,,,,,stimuli/images/PICTURE_123.png,ADVICE,5e6e6e101ffcd2431104aa66,28/11/2001,2020-09-02_12h32.51.602,proactive3.1,2020.1.2,Win32,60,5f47c29a48bd2a1e651a6eb7,5f4f824d7fc3a50331486a68,3,,,,,,dart,,,,,,,,,,,5,0,0,9,9,40,1,,,,,,,,,,,,,,,,,,,,,,,,,,,,,,,,,,,,,,,,,,,,,,,,,,,,,,,,,,,,,,,,,,,,,,,,,,,,,,,,,,,,,,,,,,,,,,,,,,,,,,,,
,,?,0.00057,0,,,,,,stimuli/images/PICTURE_380.png,DEATH,5e6e6e101ffcd2431104aa66,28/11/2001,2020-09-02_12h32.51.602,proactive3.1,2020.1.2,Win32,60,5f47c29a48bd2a1e651a6eb7,5f4f824d7fc3a50331486a68,3,,,,,,gorilla,,,,,,,,,,,5,0,0,10,10,49,1,,,,,,,,,,,,,,,,,,,,,,,,,,,,,,,,,,,,,,,,,,,,,,,,,,,,,,,,,,,,,,,,,,,,,,,,,,,,,,,,,,,,,,,,,,,,,,,,,,,,,,,,
,,?,0.00073,0,,,,,,stimuli/images/PICTURE_491.png,WRITER,5e6e6e101ffcd2431104aa66,28/11/2001,2020-09-02_12h32.51.602,proactive3.1,2020.1.2,Win32,60,5f47c29a48bd2a1e651a6eb7,5f4f824d7fc3a50331486a68,3,,,,,,rug,,,,,,,,,,,6,0,0,11,11,57,1,,,,,,,,,,,,,,,,,,,,,,,,,,,,,,,,,,,,,,,,,,,,,,,,,,,,,,,,,,,,,,,,,,,,,,,,,,,,,,,,,,,,,,,,,,,,,,,,,,,,,,,,
,,?,0.00045,0,,,,,,stimuli/images/PICTURE_667.png,BATH,5e6e6e101ffcd2431104aa66,28/11/2001,2020-09-02_12h32.51.602,proactive3.1,2020.1.2,Win32,60,5f47c29a48bd2a1e651a6eb7,5f4f824d7fc3a50331486a68,3,,,,,,daisy,,,,,,,,,,,1,0,0,12,12,4,1,,,,,,,,,,,,,,,,,,,,,,,,,,,,,,,,,,,,,,,,,,,,,,,,,,,,,,,,,,,,,,,,,,,,,,,,,,,,,,,,,,,,,,,,,,,,,,,,,,,,,,,,
,,?,0.000435,0,,,,,,stimuli/images/PICTURE_667.png,PLENTY,5e6e6e101ffcd2431104aa66,28/11/2001,2020-09-02_12h32.51.602,proactive3.1,2020.1.2,Win32,60,5f47c29a48bd2a1e651a6eb7,5f4f824d7fc3a50331486a68,3,,,,,,daisy,,,,,,,,,,,5,0,0,13,13,41,1,,,,,,,,,,,,,,,,,,,,,,,,,,,,,,,,,,,,,,,,,,,,,,,,,,,,,,,,,,,,,,,,,,,,,,,,,,,,,,,,,,,,,,,,,,,,,,,,,,,,,,,,
,,?,0.000545,0,,,,,,stimuli/images/PICTURE_151.png,GIRL,5e6e6e101ffcd2431104aa66,28/11/2001,2020-09-02_12h32.51.602,proactive3.1,2020.1.2,Win32,60,5f47c29a48bd2a1e651a6eb7,5f4f824d7fc3a50331486a68,3,,,,,,tray,,,,,,,,,,,2,0,0,14,14,19,1,,,,,,,,,,,,,,,,,,,,,,,,,,,,,,,,,,,,,,,,,,,,,,,,,,,,,,,,,,,,,,,,,,,,,,,,,,,,,,,,,,,,,,,,,,,,,,,,,,,,,,,,
,,?,0.000485,0,,,,,,stimuli/images/PICTURE_449.png,THING,5e6e6e101ffcd2431104aa66,28/11/2001,2020-09-02_12h32.51.602,proactive3.1,2020.1.2,Win32,60,5f47c29a48bd2a1e651a6eb7,5f4f824d7fc3a50331486a68,3,,,,,,bench,,,,,,,,,,,6,0,0,15,15,59,1,,,,,,,,,,,,,,,,,,,,,,,,,,,,,,,,,,,,,,,,,,,,,,,,,,,,,,,,,,,,,,,,,,,,,,,,,,,,,,,,,,,,,,,,,,,,,,,,,,,,,,,,
,,?,0.00048,0,,,,,,stimuli/images/PICTURE_123.png,ADVICE,5e6e6e101ffcd2431104aa66,28/11/2001,2020-09-02_12h32.51.602,proactive3.1,2020.1.2,Win32,60,5f47c29a48bd2a1e651a6eb7,5f4f824d7fc3a50331486a68,3,,,,,,dart,,,,,,,,,,,6,0,0,16,16,50,1,,,,,,,,,,,,,,,,,,,,,,,,,,,,,,,,,,,,,,,,,,,,,,,,,,,,,,,,,,,,,,,,,,,,,,,,,,,,,,,,,,,,,,,,,,,,,,,,,,,,,,,,
,,DEMON,1.87567,1,,,,,,stimuli/images/PICTURE_467.png,DEMON,5e6e6e101ffcd2431104aa66,28/11/2001,2020-09-02_12h32.51.602,proactive3.1,2020.1.2,Win32,60,5f47c29a48bd2a1e651a6eb7,5f4f824d7fc3a50331486a68,3,,,,,,peg,,,,,,,,,,,3,0,0,17,17,23,1,,,,,,,,,,,,,,,,,,,,,,,,,,,,,,,,,,,,,,,,,,,,,,,,,,,,,,,,,,,,,,,,,,,,,,,,,,,,,,,,,,,,,,,,,,,,,,,,,,,,,,,,
,,?,0.000855,0,,,,,,stimuli/images/PICTURE_311.png,FRIEND,5e6e6e101ffcd2431104aa66,28/11/2001,2020-09-02_12h32.51.602,proactive3.1,2020.1.2,Win32,60,5f47c29a48bd2a1e651a6eb7,5f4f824d7fc3a50331486a68,3,,,,,,razor,,,,,,,,,,,4,0,0,18,18,34,1,,,,,,,,,,,,,,,,,,,,,,,,,,,,,,,,,,,,,,,,,,,,,,,,,,,,,,,,,,,,,,,,,,,,,,,,,,,,,,,,,,,,,,,,,,,,,,,,,,,,,,,,
,,DUDE,3.667175,1,,,,,,stimuli/images/PICTURE_453.png,DUDE,5e6e6e101ffcd2431104aa66,28/11/2001,2020-09-02_12h32.51.602,proactive3.1,2020.1.2,Win32,60,5f47c29a48bd2a1e651a6eb7,5f4f824d7fc3a50331486a68,3,,,,,,scissors,,,,,,,,,,,3,0,0,19,19,27,1,,,,,,,,,,,,,,,,,,,,,,,,,,,,,,,,,,,,,,,,,,,,,,,,,,,,,,,,,,,,,,,,,,,,,,,,,,,,,,,,,,,,,,,,,,,,,,,,,,,,,,,,
,,STYLE,1.93463,1,,,,,,stimuli/images/PICTURE_95.png,STYLE,5e6e6e101ffcd2431104aa66,28/11/2001,2020-09-02_12h32.51.602,proactive3.1,2020.1.2,Win32,60,5f47c29a48bd2a1e651a6eb7,5f4f824d7fc3a50331486a68,3,,,,,,suitcase,,,,,,,,,,,3,0,0,20,20,25,1,,,,,,,,,,,,,,,,,,,,,,,,,,,,,,,,,,,,,,,,,,,,,,,,,,,,,,,,,,,,,,,,,,,,,,,,,,,,,,,,,,,,,,,,,,,,,,,,,,,,,,,,
,,?,0.00078,0,,,,,,stimuli/images/PICTURE_314.png,SAKE,5e6e6e101ffcd2431104aa66,28/11/2001,2020-09-02_12h32.51.602,proactive3.1,2020.1.2,Win32,60,5f47c29a48bd2a1e651a6eb7,5f4f824d7fc3a50331486a68,3,,,,,,perfume,,,,,,,,,,,1,0,0,21,21,7,1,,,,,,,,,,,,,,,,,,,,,,,,,,,,,,,,,,,,,,,,,,,,,,,,,,,,,,,,,,,,,,,,,,,,,,,,,,,,,,,,,,,,,,,,,,,,,,,,,,,,,,,,
,,?,0.00064,0,,,,,,stimuli/images/PICTURE_160.png,LEADER,5e6e6e101ffcd2431104aa66,28/11/2001,2020-09-02_12h32.51.602,proactive3.1,2020.1.2,Win32,60,5f47c29a48bd2a1e651a6eb7,5f4f824d7fc3a50331486a68,3,,,,,,wheelbarrow,,,,,,,,,,,1,0,0,22,22,3,1,,,,,,,,,,,,,,,,,,,,,,,,,,,,,,,,,,,,,,,,,,,,,,,,,,,,,,,,,,,,,,,,,,,,,,,,,,,,,,,,,,,,,,,,,,,,,,,,,,,,,,,,
,,?,0.000665,0,,,,,,stimuli/images/PICTURE_160.png,FEET,5e6e6e101ffcd2431104aa66,28/11/2001,2020-09-02_12h32.51.602,proactive3.1,2020.1.2,Win32,60,5f47c29a48bd2a1e651a6eb7,5f4f824d7fc3a50331486a68,3,,,,,,wheelbarrow,,,,,,,,,,,6,0,0,23,23,58,1,,,,,,,,,,,,,,,,,,,,,,,,,,,,,,,,,,,,,,,,,,,,,,,,,,,,,,,,,,,,,,,,,,,,,,,,,,,,,,,,,,,,,,,,,,,,,,,,,,,,,,,,
,,?,0.00043,0,,,,,,stimuli/images/PICTURE_469.png,ARTIST,5e6e6e101ffcd2431104aa66,28/11/2001,2020-09-02_12h32.51.602,proactive3.1,2020.1.2,Win32,60,5f47c29a48bd2a1e651a6eb7,5f4f824d7fc3a50331486a68,3,,,,,,stool,,,,,,,,,,,1,0,0,24,24,6,1,,,,,,,,,,,,,,,,,,,,,,,,,,,,,,,,,,,,,,,,,,,,,,,,,,,,,,,,,,,,,,,,,,,,,,,,,,,,,,,,,,,,,,,,,,,,,,,,,,,,,,,,
,,?,0.00057,0,,,,,,stimuli/images/PICTURE_470.png,CASINO,5e6e6e101ffcd2431104aa66,28/11/2001,2020-09-02_12h32.51.602,proactive3.1,2020.1.2,Win32,60,5f47c29a48bd2a1e651a6eb7,5f4f824d7fc3a50331486a68,3,,,,,,motorbike,,,,,,,,,,,4,0,0,25,25,36,1,,,,,,,,,,,,,,,,,,,,,,,,,,,,,,,,,,,,,,,,,,,,,,,,,,,,,,,,,,,,,,,,,,,,,,,,,,,,,,,,,,,,,,,,,,,,,,,,,,,,,,,,
,,?,0.000445,0,,,,,,stimuli/images/PICTURE_285.png,ADVICE,5e6e6e101ffcd2431104aa66,28/11/2001,2020-09-02_12h32.51.602,proactive3.1,2020.1.2,Win32,60,5f47c29a48bd2a1e651a6eb7,5f4f824d7fc3a50331486a68,3,,,,,,carrot,,,,,,,,,,,2,0,0,26,26,12,1,,,,,,,,,,,,,,,,,,,,,,,,,,,,,,,,,,,,,,,,,,,,,,,,,,,,,,,,,,,,,,,,,,,,,,,,,,,,,,,,,,,,,,,,,,,,,,,,,,,,,,,,
,,?,0.00049,0,,,,,,stimuli/images/PICTURE_356.png,DANGER,5e6e6e101ffcd2431104aa66,28/11/2001,2020-09-02_12h32.51.602,proactive3.1,2020.1.2,Win32,60,5f47c29a48bd2a1e651a6eb7,5f4f824d7fc3a50331486a68,3,,,,,,pawn,,,,,,,,,,,6,0,0,27,27,55,1,,,,,,,,,,,,,,,,,,,,,,,,,,,,,,,,,,,,,,,,,,,,,,,,,,,,,,,,,,,,,,,,,,,,,,,,,,,,,,,,,,,,,,,,,,,,,,,,,,,,,,,,
,,?,0.000515,0,,,,,,stimuli/images/PICTURE_302.png,FAMILY,5e6e6e101ffcd2431104aa66,28/11/2001,2020-09-02_12h32.51.602,proactive3.1,2020.1.2,Win32,60,5f47c29a48bd2a1e651a6eb7,5f4f824d7fc3a50331486a68,3,,,,,,taxi,,,,,,,,,,,2,0,0,28,28,18,1,,,,,,,,,,,,,,,,,,,,,,,,,,,,,,,,,,,,,,,,,,,,,,,,,,,,,,,,,,,,,,,,,,,,,,,,,,,,,,,,,,,,,,,,,,,,,,,,,,,,,,,,
,,SPEECH,2.207745,1,,,,,,stimuli/images/PICTURE_348.png,SPEECH,5e6e6e101ffcd2431104aa66,28/11/2001,2020-09-02_12h32.51.602,proactive3.1,2020.1.2,Win32,60,5f47c29a48bd2a1e651a6eb7,5f4f824d7fc3a50331486a68,3,,,,,,pepper,,,,,,,,,,,3,0,0,29,29,20,1,,,,,,,,,,,,,,,,,,,,,,,,,,,,,,,,,,,,,,,,,,,,,,,,,,,,,,,,,,,,,,,,,,,,,,,,,,,,,,,,,,,,,,,,,,,,,,,,,,,,,,,,
,,?,0.000745,0,,,,,,stimuli/images/PICTURE_487.png,FLIGHT,5e6e6e101ffcd2431104aa66,28/11/2001,2020-09-02_12h32.51.602,proactive3.1,2020.1.2,Win32,60,5f47c29a48bd2a1e651a6eb7,5f4f824d7fc3a50331486a68,3,,,,,,basket,,,,,,,,,,,1,0,0,30,30,9,1,,,,,,,,,,,,,,,,,,,,,,,,,,,,,,,,,,,,,,,,,,,,,,,,,,,,,,,,,,,,,,,,,,,,,,,,,,,,,,,,,,,,,,,,,,,,,,,,,,,,,,,,
,,?,0.000665,0,,,,,,stimuli/images/PICTURE_744.png,SAKE,5e6e6e101ffcd2431104aa66,28/11/2001,2020-09-02_12h32.51.602,proactive3.1,2020.1.2,Win32,60,5f47c29a48bd2a1e651a6eb7,5f4f824d7fc3a50331486a68,3,,,,,,ring,,,,,,,,,,,2,0,0,31,31,17,1,,,,,,,,,,,,,,,,,,,,,,,,,,,,,,,,,,,,,,,,,,,,,,,,,,,,,,,,,,,,,,,,,,,,,,,,,,,,,,,,,,,,,,,,,,,,,,,,,,,,,,,,
,,YARD,2.7145,1,,,,,,stimuli/images/PICTURE_708.png,YARD,5e6e6e101ffcd2431104aa66,28/11/2001,2020-09-02_12h32.51.602,proactive3.1,2020.1.2,Win32,60,5f47c29a48bd2a1e651a6eb7,5f4f824d7fc3a50331486a68,3,,,,,,monkey,,,,,,,,,,,3,0,0,32,32,29,1,,,,,,,,,,,,,,,,,,,,,,,,,,,,,,,,,,,,,,,,,,,,,,,,,,,,,,,,,,,,,,,,,,,,,,,,,,,,,,,,,,,,,,,,,,,,,,,,,,,,,,,,
,,?,0.000685,0,,,,,,stimuli/images/PICTURE_692.png,MONTH,5e6e6e101ffcd2431104aa66,28/11/2001,2020-09-02_12h32.51.602,proactive3.1,2020.1.2,Win32,60,5f47c29a48bd2a1e651a6eb7,5f4f824d7fc3a50331486a68,3,,,,,,cherry,,,,,,,,,,,2,0,0,33,33,16,1,,,,,,,,,,,,,,,,,,,,,,,,,,,,,,,,,,,,,,,,,,,,,,,,,,,,,,,,,,,,,,,,,,,,,,,,,,,,,,,,,,,,,,,,,,,,,,,,,,,,,,,,
,,?,0.000595,0,,,,,,stimuli/images/PICTURE_688.png,CASINO,5e6e6e101ffcd2431104aa66,28/11/2001,2020-09-02_12h32.51.602,proactive3.1,2020.1.2,Win32,60,5f47c29a48bd2a1e651a6eb7,5f4f824d7fc3a50331486a68,3,,,,,,runner,,,,,,,,,,,1,0,0,34,34,2,1,,,,,,,,,,,,,,,,,,,,,,,,,,,,,,,,,,,,,,,,,,,,,,,,,,,,,,,,,,,,,,,,,,,,,,,,,,,,,,,,,,,,,,,,,,,,,,,,,,,,,,,,
,,?,0.00068,0,,,,,,stimuli/images/PICTURE_327.png,BEAUTY,5e6e6e101ffcd2431104aa66,28/11/2001,2020-09-02_12h32.51.602,proactive3.1,2020.1.2,Win32,60,5f47c29a48bd2a1e651a6eb7,5f4f824d7fc3a50331486a68,3,,,,,,helmet,,,,,,,,,,,5,0,0,35,35,48,1,,,,,,,,,,,,,,,,,,,,,,,,,,,,,,,,,,,,,,,,,,,,,,,,,,,,,,,,,,,,,,,,,,,,,,,,,,,,,,,,,,,,,,,,,,,,,,,,,,,,,,,,
,,?,0.000435,0,,,,,,stimuli/images/PICTURE_68.png,MILE,5e6e6e101ffcd2431104aa66,28/11/2001,2020-09-02_12h32.51.602,proactive3.1,2020.1.2,Win32,60,5f47c29a48bd2a1e651a6eb7,5f4f824d7fc3a50331486a68,3,,,,,,candle,,,,,,,,,,,5,0,0,36,36,44,1,,,,,,,,,,,,,,,,,,,,,,,,,,,,,,,,,,,,,,,,,,,,,,,,,,,,,,,,,,,,,,,,,,,,,,,,,,,,,,,,,,,,,,,,,,,,,,,,,,,,,,,,
,,ARTIST,2.53044,1,,,,,,stimuli/images/PICTURE_203.png,ARTIST,5e6e6e101ffcd2431104aa66,28/11/2001,2020-09-02_12h32.51.602,proactive3.1,2020.1.2,Win32,60,5f47c29a48bd2a1e651a6eb7,5f4f824d7fc3a50331486a68,3,,,,,,cap,,,,,,,,,,,3,0,0,37,37,26,1,,,,,,,,,,,,,,,,,,,,,,,,,,,,,,,,,,,,,,,,,,,,,,,,,,,,,,,,,,,,,,,,,,,,,,,,,,,,,,,,,,,,,,,,,,,,,,,,,,,,,,,,
,,?,0.00068,0,,,,,,stimuli/images/PICTURE_248.png,DOZEN,5e6e6e101ffcd2431104aa66,28/11/2001,2020-09-02_12h32.51.602,proactive3.1,2020.1.2,Win32,60,5f47c29a48bd2a1e651a6eb7,5f4f824d7fc3a50331486a68,3,,,,,,cart,,,,,,,,,,,4,0,0,38,38,39,1,,,,,,,,,,,,,,,,,,,,,,,,,,,,,,,,,,,,,,,,,,,,,,,,,,,,,,,,,,,,,,,,,,,,,,,,,,,,,,,,,,,,,,,,,,,,,,,,,,,,,,,,
,,?,0.0006,0,,,,,,stimuli/images/PICTURE_744.png,SYSTEM,5e6e6e101ffcd2431104aa66,28/11/2001,2020-09-02_12h32.51.602,proactive3.1,2020.1.2,Win32,60,5f47c29a48bd2a1e651a6eb7,5f4f824d7fc3a50331486a68,3,,,,,,ring,,,,,,,,,,,5,0,0,39,39,43,1,,,,,,,,,,,,,,,,,,,,,,,,,,,,,,,,,,,,,,,,,,,,,,,,,,,,,,,,,,,,,,,,,,,,,,,,,,,,,,,,,,,,,,,,,,,,,,,,,,,,,,,,
,,ROOF,1.68136,1,,,,,,stimuli/images/PICTURE_491.png,ROOF,5e6e6e101ffcd2431104aa66,28/11/2001,2020-09-02_12h32.51.602,proactive3.1,2020.1.2,Win32,60,5f47c29a48bd2a1e651a6eb7,5f4f824d7fc3a50331486a68,3,,,,,,rug,,,,,,,,,,,3,0,0,40,40,24,1,,,,,,,,,,,,,,,,,,,,,,,,,,,,,,,,,,,,,,,,,,,,,,,,,,,,,,,,,,,,,,,,,,,,,,,,,,,,,,,,,,,,,,,,,,,,,,,,,,,,,,,,
,,?,0.00069,0,,,,,,stimuli/images/PICTURE_311.png,BEAUTY,5e6e6e101ffcd2431104aa66,28/11/2001,2020-09-02_12h32.51.602,proactive3.1,2020.1.2,Win32,60,5f47c29a48bd2a1e651a6eb7,5f4f824d7fc3a50331486a68,3,,,,,,razor,,,,,,,,,,,2,0,0,41,41,13,1,,,,,,,,,,,,,,,,,,,,,,,,,,,,,,,,,,,,,,,,,,,,,,,,,,,,,,,,,,,,,,,,,,,,,,,,,,,,,,,,,,,,,,,,,,,,,,,,,,,,,,,,
,,?,0.000575,0,,,,,,stimuli/images/PICTURE_147.png,MOMENT,5e6e6e101ffcd2431104aa66,28/11/2001,2020-09-02_12h32.51.602,proactive3.1,2020.1.2,Win32,60,5f47c29a48bd2a1e651a6eb7,5f4f824d7fc3a50331486a68,3,,,,,,hanger,,,,,,,,,,,6,0,0,42,42,51,1,,,,,,,,,,,,,,,,,,,,,,,,,,,,,,,,,,,,,,,,,,,,,,,,,,,,,,,,,,,,,,,,,,,,,,,,,,,,,,,,,,,,,,,,,,,,,,,,,,,,,,,,
,,AREA,1.998505,1,,,,,,stimuli/images/PICTURE_255.png,AREA,5e6e6e101ffcd2431104aa66,28/11/2001,2020-09-02_12h32.51.602,proactive3.1,2020.1.2,Win32,60,5f47c29a48bd2a1e651a6eb7,5f4f824d7fc3a50331486a68,3,,,,,,shovel,,,,,,,,,,,3,0,0,43,43,22,1,,,,,,,,,,,,,,,,,,,,,,,,,,,,,,,,,,,,,,,,,,,,,,,,,,,,,,,,,,,,,,,,,,,,,,,,,,,,,,,,,,,,,,,,,,,,,,,,,,,,,,,,
,,?,0.00074,0,,,,,,stimuli/images/PICTURE_308.png,ESTATE,5e6e6e101ffcd2431104aa66,28/11/2001,2020-09-02_12h32.51.602,proactive3.1,2020.1.2,Win32,60,5f47c29a48bd2a1e651a6eb7,5f4f824d7fc3a50331486a68,3,,,,,,dice,,,,,,,,,,,5,0,0,44,44,46,1,,,,,,,,,,,,,,,,,,,,,,,,,,,,,,,,,,,,,,,,,,,,,,,,,,,,,,,,,,,,,,,,,,,,,,,,,,,,,,,,,,,,,,,,,,,,,,,,,,,,,,,,
,,?,0.000585,0,,,,,,stimuli/images/PICTURE_208.png,LOTS,5e6e6e101ffcd2431104aa66,28/11/2001,2020-09-02_12h32.51.602,proactive3.1,2020.1.2,Win32,60,5f47c29a48bd2a1e651a6eb7,5f4f824d7fc3a50331486a68,3,,,,,,microphone,,,,,,,,,,,2,0,0,45,45,10,1,,,,,,,,,,,,,,,,,,,,,,,,,,,,,,,,,,,,,,,,,,,,,,,,,,,,,,,,,,,,,,,,,,,,,,,,,,,,,,,,,,,,,,,,,,,,,,,,,,,,,,,,
,,?,0.00069,0,,,,,,stimuli/images/PICTURE_233.png,WOMEN,5e6e6e101ffcd2431104aa66,28/11/2001,2020-09-02_12h32.51.602,proactive3.1,2020.1.2,Win32,60,5f47c29a48bd2a1e651a6eb7,5f4f824d7fc3a50331486a68,3,,,,,,salt,,,,,,,,,,,4,0,0,46,46,38,1,,,,,,,,,,,,,,,,,,,,,,,,,,,,,,,,,,,,,,,,,,,,,,,,,,,,,,,,,,,,,,,,,,,,,,,,,,,,,,,,,,,,,,,,,,,,,,,,,,,,,,,,
,,?,0.000455,0,,,,,,stimuli/images/PICTURE_85.png,THING,5e6e6e101ffcd2431104aa66,28/11/2001,2020-09-02_12h32.51.602,proactive3.1,2020.1.2,Win32,60,5f47c29a48bd2a1e651a6eb7,5f4f824d7fc3a50331486a68,3,,,,,,diamond,,,,,,,,,,,2,0,0,47,47,15,1,,,,,,,,,,,,,,,,,,,,,,,,,,,,,,,,,,,,,,,,,,,,,,,,,,,,,,,,,,,,,,,,,,,,,,,,,,,,,,,,,,,,,,,,,,,,,,,,,,,,,,,,
,,?,0.000395,0,,,,,,stimuli/images/PICTURE_504.png,BODY,5e6e6e101ffcd2431104aa66,28/11/2001,2020-09-02_12h32.51.602,proactive3.1,2020.1.2,Win32,60,5f47c29a48bd2a1e651a6eb7,5f4f824d7fc3a50331486a68,3,,,,,,wheel,,,,,,,,,,,1,0,0,48,48,8,1,,,,,,,,,,,,,,,,,,,,,,,,,,,,,,,,,,,,,,,,,,,,,,,,,,,,,,,,,,,,,,,,,,,,,,,,,,,,,,,,,,,,,,,,,,,,,,,,,,,,,,,,
,,IDEAS,1.8625,1,,,,,,stimuli/images/PICTURE_233.png,IDEAS,5e6e6e101ffcd2431104aa66,28/11/2001,2020-09-02_12h32.51.602,proactive3.1,2020.1.2,Win32,60,5f47c29a48bd2a1e651a6eb7,5f4f824d7fc3a50331486a68,3,,,,,,salt,,,,,,,,,,,3,0,0,49,49,28,1,,,,,,,,,,,,,,,,,,,,,,,,,,,,,,,,,,,,,,,,,,,,,,,,,,,,,,,,,,,,,,,,,,,,,,,,,,,,,,,,,,,,,,,,,,,,,,,,,,,,,,,,
,,?,0.000685,0,,,,,,stimuli/images/PICTURE_380.png,PHOTO,5e6e6e101ffcd2431104aa66,28/11/2001,2020-09-02_12h32.51.602,proactive3.1,2020.1.2,Win32,60,5f47c29a48bd2a1e651a6eb7,5f4f824d7fc3a50331486a68,3,,,,,,gorilla,,,,,,,,,,,6,0,0,50,50,52,1,,,,,,,,,,,,,,,,,,,,,,,,,,,,,,,,,,,,,,,,,,,,,,,,,,,,,,,,,,,,,,,,,,,,,,,,,,,,,,,,,,,,,,,,,,,,,,,,,,,,,,,,
,,?,0.00057,0,,,,,,stimuli/images/PICTURE_208.png,THING,5e6e6e101ffcd2431104aa66,28/11/2001,2020-09-02_12h32.51.602,proactive3.1,2020.1.2,Win32,60,5f47c29a48bd2a1e651a6eb7,5f4f824d7fc3a50331486a68,3,,,,,,microphone,,,,,,,,,,,5,0,0,51,51,47,1,,,,,,,,,,,,,,,,,,,,,,,,,,,,,,,,,,,,,,,,,,,,,,,,,,,,,,,,,,,,,,,,,,,,,,,,,,,,,,,,,,,,,,,,,,,,,,,,,,,,,,,,
,,PHOTO,2.831435,1,,,,,,stimuli/images/PICTURE_509.png,PHOTO,5e6e6e101ffcd2431104aa66,28/11/2001,2020-09-02_12h32.51.602,proactive3.1,2020.1.2,Win32,60,5f47c29a48bd2a1e651a6eb7,5f4f824d7fc3a50331486a68,3,,,,,,telephone,,,,,,,,,,,3,0,0,52,52,21,1,,,,,,,,,,,,,,,,,,,,,,,,,,,,,,,,,,,,,,,,,,,,,,,,,,,,,,,,,,,,,,,,,,,,,,,,,,,,,,,,,,,,,,,,,,,,,,,,,,,,,,,,
,,?,0.000645,0,,,,,,stimuli/images/PICTURE_488.png,STYLE,5e6e6e101ffcd2431104aa66,28/11/2001,2020-09-02_12h32.51.602,proactive3.1,2020.1.2,Win32,60,5f47c29a48bd2a1e651a6eb7,5f4f824d7fc3a50331486a68,3,,,,,,sun,,,,,,,,,,,4,0,0,53,53,33,1,,,,,,,,,,,,,,,,,,,,,,,,,,,,,,,,,,,,,,,,,,,,,,,,,,,,,,,,,,,,,,,,,,,,,,,,,,,,,,,,,,,,,,,,,,,,,,,,,,,,,,,,
,,?,0.000565,0,,,,,,stimuli/images/PICTURE_654.png,VALLEY,5e6e6e101ffcd2431104aa66,28/11/2001,2020-09-02_12h32.51.602,proactive3.1,2020.1.2,Win32,60,5f47c29a48bd2a1e651a6eb7,5f4f824d7fc3a50331486a68,3,,,,,,pencil,,,,,,,,,,,1,0,0,54,54,1,1,,,,,,,,,,,,,,,,,,,,,,,,,,,,,,,,,,,,,,,,,,,,,,,,,,,,,,,,,,,,,,,,,,,,,,,,,,,,,,,,,,,,,,,,,,,,,,,,,,,,,,,,
,,?,0.000685,0,,,,,,stimuli/images/PICTURE_208.png,MONTH,5e6e6e101ffcd2431104aa66,28/11/2001,2020-09-02_12h32.51.602,proactive3.1,2020.1.2,Win32,60,5f47c29a48bd2a1e651a6eb7,5f4f824d7fc3a50331486a68,3,,,,,,microphone,,,,,,,,,,,6,0,0,55,55,53,1,,,,,,,,,,,,,,,,,,,,,,,,,,,,,,,,,,,,,,,,,,,,,,,,,,,,,,,,,,,,,,,,,,,,,,,,,,,,,,,,,,,,,,,,,,,,,,,,,,,,,,,,
,,?,0.00044,0,,,,,,stimuli/images/PICTURE_688.png,WOMEN,5e6e6e101ffcd2431104aa66,28/11/2001,2020-09-02_12h32.51.602,proactive3.1,2020.1.2,Win32,60,5f47c29a48bd2a1e651a6eb7,5f4f824d7fc3a50331486a68,3,,,,,,runner,,,,,,,,,,,2,0,0,56,56,14,1,,,,,,,,,,,,,,,,,,,,,,,,,,,,,,,,,,,,,,,,,,,,,,,,,,,,,,,,,,,,,,,,,,,,,,,,,,,,,,,,,,,,,,,,,,,,,,,,,,,,,,,,
,,?,0.000465,0,,,,,,stimuli/images/PICTURE_339.png,PLENTY,5e6e6e101ffcd2431104aa66,28/11/2001,2020-09-02_12h32.51.602,proactive3.1,2020.1.2,Win32,60,5f47c29a48bd2a1e651a6eb7,5f4f824d7fc3a50331486a68,3,,,,,,backpack,,,,,,,,,,,1,0,0,57,57,0,1,,,,,,,,,,,,,,,,,,,,,,,,,,,,,,,,,,,,,,,,,,,,,,,,,,,,,,,,,,,,,,,,,,,,,,,,,,,,,,,,,,,,,,,,,,,,,,,,,,,,,,,,
,,?,0.00038,0,,,,,,stimuli/images/PICTURE_469.png,LETTER,5e6e6e101ffcd2431104aa66,28/11/2001,2020-09-02_12h32.51.602,proactive3.1,2020.1.2,Win32,60,5f47c29a48bd2a1e651a6eb7,5f4f824d7fc3a50331486a68,3,,,,,,stool,,,,,,,,,,,5,0,0,58,58,42,1,,,,,,,,,,,,,,,,,,,,,,,,,,,,,,,,,,,,,,,,,,,,,,,,,,,,,,,,,,,,,,,,,,,,,,,,,,,,,,,,,,,,,,,,,,,,,,,,,,,,,,,,
,,?,0.0004,0,,,,,,stimuli/images/PICTURE_675.png,WEAPON,5e6e6e101ffcd2431104aa66,28/11/2001,2020-09-02_12h32.51.602,proactive3.1,2020.1.2,Win32,60,5f47c29a48bd2a1e651a6eb7,5f4f824d7fc3a50331486a68,3,,,,,,windmill,,,,,,,,,,,4,0,0,59,59,32,1,,,,,,,,,,,,,,,,,,,,,,,,,,,,,,,,,,,,,,,,,,,,,,,,,,,,,,,,,,,,,,,,,,,,,,,,,,,,,,,,,,,,,,,,,,,,,,,,,,,,,,,,
,,,,,,,,,,,,5e6e6e101ffcd2431104aa66,28/11/2001,2020-09-02_12h32.51.602,proactive3.1,2020.1.2,Win32,60,5f47c29a48bd2a1e651a6eb7,5f4f824d7fc3a50331486a68,3,,,,,,,,,,,,,,,,,,,,,,,,0,0,0,0,1,stimuli/learn-block1.csv,,,,,,,,,,,,,,,,,,,,,,,,,,,,,,,,,,,,,,,,,,,,,,,,,,,,,,,,,,,,,,,,,,,,,,,,,,,,,,,,,,,,,,,,,,,,,,,,,,
,,,,,,,,,,stimuli/images/PICTURE_383.png,WRITER,5e6e6e101ffcd2431104aa66,28/11/2001,2020-09-02_12h32.51.602,proactive3.1,2020.1.2,Win32,60,5f47c29a48bd2a1e651a6eb7,5f4f824d7fc3a50331486a68,3,,,,,,coin,,,,,,0,0,0,28,1,3,1,,,,,,,,,,,,,,,,,,,,,,,,,,,,,,,,,,,,,,,,,,,,,,,,,,,,,,,,,,,,,,,,,,,,,,,,,,,,,,,,,,,,,,,,,,,,,,,,,,,,,,,,,,,,,
,,,,,,,,,,stimuli/images/PICTURE_403.png,WRITER,5e6e6e101ffcd2431104aa66,28/11/2001,2020-09-02_12h32.51.602,proactive3.1,2020.1.2,Win32,60,5f47c29a48bd2a1e651a6eb7,5f4f824d7fc3a50331486a68,3,,,,,,cathedral,,,,,,0,1,1,31,1,4,1,,,,,,,,,,,,,,,,,,,,,,,,,,,,,,,,,,,,,,,,,,,,,,,,,,,,,,,,,,,,,,,,,,,,,,,,,,,,,,,,,,,,,,,,,,,,,,,,,,,,,,,,,,,,,
,,,,,,,,,,stimuli/images/PICTURE_491.png,RIVER,5e6e6e101ffcd2431104aa66,28/11/2001,2020-09-02_12h32.51.602,proactive3.1,2020.1.2,Win32,60,5f47c29a48bd2a1e651a6eb7,5f4f824d7fc3a50331486a68,3,,,,,,rug,,,,,,0,2,2,6,1,1,1,,,,,,,,,,,,,,,,,,,,,,,,,,,,,,,,,,,,,,,,,,,,,,,,,,,,,,,,,,,,,,,,,,,,,,,,,,,,,,,,,,,,,,,,,,,,,,,,,,,,,,,,,,,,,
,,,,,,,,,,stimuli/images/PICTURE_108.png,POLICY,5e6e6e101ffcd2431104aa66,28/11/2001,2020-09-02_12h32.51.602,proactive3.1,2020.1.2,Win32,60,5f47c29a48bd2a1e651a6eb7,5f4f824d7fc3a50331486a68,3,,,,,,calendar,,,,,,0,3,3,22,1,3,1,,,,,,,,,,,,,,,,,,,,,,,,,,,,,,,,,,,,,,,,,,,,,,,,,,,,,,,,,,,,,,,,,,,,,,,,,,,,,,,,,,,,,,,,,,,,,,,,,,,,,,,,,,,,,
,,,,,,,,,,stimuli/images/PICTURE_42.png,BOYS,5e6e6e101ffcd2431104aa66,28/11/2001,2020-09-02_12h32.51.602,proactive3.1,2020.1.2,Win32,60,5f47c29a48bd2a1e651a6eb7,5f4f824d7fc3a50331486a68,3,,,,,,pear,,,,,,0,4,4,55,1,6,1,,,,,,,,,,,,,,,,,,,,,,,,,,,,,,,,,,,,,,,,,,,,,,,,,,,,,,,,,,,,,,,,,,,,,,,,,,,,,,,,,,,,,,,,,,,,,,,,,,,,,,,,,,,,,
,,,,,,,,,,stimuli/images/PICTURE_667.png,RIVER,5e6e6e101ffcd2431104aa66,28/11/2001,2020-09-02_12h32.51.602,proactive3.1,2020.1.2,Win32,60,5f47c29a48bd2a1e651a6eb7,5f4f824d7fc3a50331486a68,3,,,,,,daisy,,,,,,0,5,5,10,1,2,1,,,,,,,,,,,,,,,,,,,,,,,,,,,,,,,,,,,,,,,,,,,,,,,,,,,,,,,,,,,,,,,,,,,,,,,,,,,,,,,,,,,,,,,,,,,,,,,,,,,,,,,,,,,,,
,,,,,,,,,,stimuli/images/PICTURE_177.png,WRITER,5e6e6e101ffcd2431104aa66,28/11/2001,2020-09-02_12h32.51.602,proactive3.1,2020.1.2,Win32,60,5f47c29a48bd2a1e651a6eb7,5f4f824d7fc3a50331486a68,3,,,,,,mushroom,,,,,,0,6,6,41,1,5,1,,,,,,,,,,,,,,,,,,,,,,,,,,,,,,,,,,,,,,,,,,,,,,,,,,,,,,,,,,,,,,,,,,,,,,,,,,,,,,,,,,,,,,,,,,,,,,,,,,,,,,,,,,,,,
,,,,,,,,,,stimuli/images/PICTURE_147.png,WOMEN,5e6e6e101ffcd2431104aa66,28/11/2001,2020-09-02_12h32.51.602,proactive3.1,2020.1.2,Win32,60,5f47c29a48bd2a1e651a6eb7,5f4f824d7fc3a50331486a68,3,,,,,,hanger,,,,,,0,7,7,7,1,1,1,,,,,,,,,,,,,,,,,,,,,,,,,,,,,,,,,,,,,,,,,,,,,,,,,,,,,,,,,,,,,,,,,,,,,,,,,,,,,,,,,,,,,,,,,,,,,,,,,,,,,,,,,,,,,
,,,,,,,,,,stimuli/images/PICTURE_296.png,LOTS,5e6e6e101ffcd2431104aa66,28/11/2001,2020-09-02_12h32.51.602,proactive3.1,2020.1.2,Win32,60,5f47c29a48bd2a1e651a6eb7,5f4f824d7fc3a50331486a68,3,,,,,,bolt,,,,,,0,8,8,9,1,1,1,,,,,,,,,,,,,,,,,,,,,,,,,,,,,,,,,,,,,,,,,,,,,,,,,,,,,,,,,,,,,,,,,,,,,,,,,,,,,,,,,,,,,,,,,,,,,,,,,,,,,,,,,,,,,
,,,,,,,,,,stimuli/images/PICTURE_685.png,PENNY,5e6e6e101ffcd2431104aa66,28/11/2001,2020-09-02_12h32.51.602,proactive3.1,2020.1.2,Win32,60,5f47c29a48bd2a1e651a6eb7,5f4f824d7fc3a50331486a68,3,,,,,,goose,,,,,,0,9,9,4,1,1,1,,,,,,,,,,,,,,,,,,,,,,,,,,,,,,,,,,,,,,,,,,,,,,,,,,,,,,,,,,,,,,,,,,,,,,,,,,,,,,,,,,,,,,,,,,,,,,,,,,,,,,,,,,,,,
,,,,,,,,,,stimuli/images/PICTURE_405.png,YEAR,5e6e6e101ffcd2431104aa66,28/11/2001,2020-09-02_12h32.51.602,proactive3.1,2020.1.2,Win32,60,5f47c29a48bd2a1e651a6eb7,5f4f824d7fc3a50331486a68,3,,,,,,anchor,,,,,,0,10,10,34,1,4,1,,,,,,,,,,,,,,,,,,,,,,,,,,,,,,,,,,,,,,,,,,,,,,,,,,,,,,,,,,,,,,,,,,,,,,,,,,,,,,,,,,,,,,,,,,,,,,,,,,,,,,,,,,,,,
,,,,,,,,,,stimuli/images/PICTURE_750.png,HOTEL,5e6e6e101ffcd2431104aa66,28/11/2001,2020-09-02_12h32.51.602,proactive3.1,2020.1.2,Win32,60,5f47c29a48bd2a1e651a6eb7,5f4f824d7fc3a50331486a68,3,,,,,,kettle,,,,,,0,11,11,27,1,3,1,,,,,,,,,,,,,,,,,,,,,,,,,,,,,,,,,,,,,,,,,,,,,,,,,,,,,,,,,,,,,,,,,,,,,,,,,,,,,,,,,,,,,,,,,,,,,,,,,,,,,,,,,,,,,
,,,,,,,,,,stimuli/images/PICTURE_339.png,CLIENT,5e6e6e101ffcd2431104aa66,28/11/2001,2020-09-02_12h32.51.602,proactive3.1,2020.1.2,Win32,60,5f47c29a48bd2a1e651a6eb7,5f4f824d7fc3a50331486a68,3,,,,,,backpack,,,,,,0,12,12,11,1,2,1,,,,,,,,,,,,,,,,,,,,,,,,,,,,,,,,,,,,,,,,,,,,,,,,,,,,,,,,,,,,,,,,,,,,,,,,,,,,,,,,,,,,,,,,,,,,,,,,,,,,,,,,,,,,,
,,,,,,,,,,stimuli/images/PICTURE_85.png,NATION,5e6e6e101ffcd2431104aa66,28/11/2001,2020-09-02_12h32.51.602,proactive3.1,2020.1.2,Win32,60,5f47c29a48bd2a1e651a6eb7,5f4f824d7fc3a50331486a68,3,,,,,,diamond,,,,,,0,13,13,5,1,1,1,,,,,,,,,,,,,,,,,,,,,,,,,,,,,,,,,,,,,,,,,,,,,,,,,,,,,,,,,,,,,,,,,,,,,,,,,,,,,,,,,,,,,,,,,,,,,,,,,,,,,,,,,,,,,
,,,,,,,,,,stimuli/images/PICTURE_708.png,RECORD,5e6e6e101ffcd2431104aa66,28/11/2001,2020-09-02_12h32.51.602,proactive3.1,2020.1.2,Win32,60,5f47c29a48bd2a1e651a6eb7,5f4f824d7fc3a50331486a68,3,,,,,,monkey,,,,,,0,14,14,58,1,6,1,,,,,,,,,,,,,,,,,,,,,,,,,,,,,,,,,,,,,,,,,,,,,,,,,,,,,,,,,,,,,,,,,,,,,,,,,,,,,,,,,,,,,,,,,,,,,,,,,,,,,,,,,,,,,
,,,,,,,,,,stimuli/images/PICTURE_504.png,YEAR,5e6e6e101ffcd2431104aa66,28/11/2001,2020-09-02_12h32.51.602,proactive3.1,2020.1.2,Win32,60,5f47c29a48bd2a1e651a6eb7,5f4f824d7fc3a50331486a68,3,,,,,,wheel,,,,,,0,15,15,13,1,2,1,,,,,,,,,,,,,,,,,,,,,,,,,,,,,,,,,,,,,,,,,,,,,,,,,,,,,,,,,,,,,,,,,,,,,,,,,,,,,,,,,,,,,,,,,,,,,,,,,,,,,,,,,,,,,
,,,,,,,,,,stimuli/images/PICTURE_449.png,DUDE,5e6e6e101ffcd2431104aa66,28/11/2001,2020-09-02_12h32.51.602,proactive3.1,2020.1.2,Win32,60,5f47c29a48bd2a1e651a6eb7,5f4f824d7fc3a50331486a68,3,,,,,,bench,,,,,,0,16,16,17,1,2,1,,,,,,,,,,,,,,,,,,,,,,,,,,,,,,,,,,,,,,,,,,,,,,,,,,,,,,,,,,,,,,,,,,,,,,,,,,,,,,,,,,,,,,,,,,,,,,,,,,,,,,,,,,,,,
,,,,,,,,,,stimuli/images/PICTURE_68.png,ROOF,5e6e6e101ffcd2431104aa66,28/11/2001,2020-09-02_12h32.51.602,proactive3.1,2020.1.2,Win32,60,5f47c29a48bd2a1e651a6eb7,5f4f824d7fc3a50331486a68,3,,,,,,candle,,,,,,0,17,17,38,1,4,1,,,,,,,,,,,,,,,,,,,,,,,,,,,,,,,,,,,,,,,,,,,,,,,,,,,,,,,,,,,,,,,,,,,,,,,,,,,,,,,,,,,,,,,,,,,,,,,,,,,,,,,,,,,,,
,,,,,,,,,,stimuli/images/PICTURE_296.png,LIFE,5e6e6e101ffcd2431104aa66,28/11/2001,2020-09-02_12h32.51.602,proactive3.1,2020.1.2,Win32,60,5f47c29a48bd2a1e651a6eb7,5f4f824d7fc3a50331486a68,3,,,,,,bolt,,,,,,0,18,18,57,1,6,1,,,,,,,,,,,,,,,,,,,,,,,,,,,,,,,,,,,,,,,,,,,,,,,,,,,,,,,,,,,,,,,,,,,,,,,,,,,,,,,,,,,,,,,,,,,,,,,,,,,,,,,,,,,,,
,,,,,,,,,,stimuli/images/PICTURE_68.png,MILE,5e6e6e101ffcd2431104aa66,28/11/2001,2020-09-02_12h32.51.602,proactive3.1,2020.1.2,Win32,60,5f47c29a48bd2a1e651a6eb7,5f4f824d7fc3a50331486a68,3,,,,,,candle,,,,,,0,19,19,51,1,6,1,,,,,,,,,,,,,,,,,,,,,,,,,,,,,,,,,,,,,,,,,,,,,,,,,,,,,,,,,,,,,,,,,,,,,,,,,,,,,,,,,,,,,,,,,,,,,,,,,,,,,,,,,,,,,
,,,,,,,,,,stimuli/images/PICTURE_95.png,HONEY,5e6e6e101ffcd2431104aa66,28/11/2001,2020-09-02_12h32.51.602,proactive3.1,2020.1.2,Win32,60,5f47c29a48bd2a1e651a6eb7,5f4f824d7fc3a50331486a68,3,,,,,,suitcase,,,,,,0,20,20,44,1,5,1,,,,,,,,,,,,,,,,,,,,,,,,,,,,,,,,,,,,,,,,,,,,,,,,,,,,,,,,,,,,,,,,,,,,,,,,,,,,,,,,,,,,,,,,,,,,,,,,,,,,,,,,,,,,,
,,,,,,,,,,stimuli/images/PICTURE_467.png,POLICY,5e6e6e101ffcd2431104aa66,28/11/2001,2020-09-02_12h32.51.602,proactive3.1,2020.1.2,Win32,60,5f47c29a48bd2a1e651a6eb7,5f4f824d7fc3a50331486a68,3,,,,,,peg,,,,,,0,21,21,53,1,6,1,,,,,,,,,,,,,,,,,,,,,,,,,,,,,,,,,,,,,,,,,,,,,,,,,,,,,,,,,,,,,,,,,,,,,,,,,,,,,,,,,,,,,,,,,,,,,,,,,,,,,,,,,,,,,
,,,,,,,,,,stimuli/images/PICTURE_32.png,PILLS,5e6e6e101ffcd2431104aa66,28/11/2001,2020-09-02_12h32.51.602,proactive3.1,2020.1.2,Win32,60,5f47c29a48bd2a1e651a6eb7,5f4f824d7fc3a50331486a68,3,,,,,,crown,,,,,,0,22,22,18,1,2,1,,,,,,,,,,,,,,,,,,,,,,,,,,,,,,,,,,,,,,,,,,,,,,,,,,,,,,,,,,,,,,,,,,,,,,,,,,,,,,,,,,,,,,,,,,,,,,,,,,,,,,,,,,,,,
,,,,,,,,,,stimuli/images/PICTURE_564.png,BATH,5e6e6e101ffcd2431104aa66,28/11/2001,2020-09-02_12h32.51.602,proactive3.1,2020.1.2,Win32,60,5f47c29a48bd2a1e651a6eb7,5f4f824d7fc3a50331486a68,3,,,,,,spoon,,,,,,0,23,23,26,1,3,1,,,,,,,,,,,,,,,,,,,,,,,,,,,,,,,,,,,,,,,,,,,,,,,,,,,,,,,,,,,,,,,,,,,,,,,,,,,,,,,,,,,,,,,,,,,,,,,,,,,,,,,,,,,,,
,,,,,,,,,,stimuli/images/PICTURE_655.png,TOILET,5e6e6e101ffcd2431104aa66,28/11/2001,2020-09-02_12h32.51.602,proactive3.1,2020.1.2,Win32,60,5f47c29a48bd2a1e651a6eb7,5f4f824d7fc3a50331486a68,3,,,,,,megaphone,,,,,,0,24,24,12,1,2,1,,,,,,,,,,,,,,,,,,,,,,,,,,,,,,,,,,,,,,,,,,,,,,,,,,,,,,,,,,,,,,,,,,,,,,,,,,,,,,,,,,,,,,,,,,,,,,,,,,,,,,,,,,,,,
,,,,,,,,,,stimuli/images/PICTURE_308.png,FAMILY,5e6e6e101ffcd2431104aa66,28/11/2001,2020-09-02_12h32.51.602,proactive3.1,2020.1.2,Win32,60,5f47c29a48bd2a1e651a6eb7,5f4f824d7fc3a50331486a68,3,,,,,,dice,,,,,,0,25,25,36,1,4,1,,,,,,,,,,,,,,,,,,,,,,,,,,,,,,,,,,,,,,,,,,,,,,,,,,,,,,,,,,,,,,,,,,,,,,,,,,,,,,,,,,,,,,,,,,,,,,,,,,,,,,,,,,,,,
,,,,,,,,,,stimuli/images/PICTURE_340.png,LETTER,5e6e6e101ffcd2431104aa66,28/11/2001,2020-09-02_12h32.51.602,proactive3.1,2020.1.2,Win32,60,5f47c29a48bd2a1e651a6eb7,5f4f824d7fc3a50331486a68,3,,,,,,mirror,,,,,,0,26,26,24,1,3,1,,,,,,,,,,,,,,,,,,,,,,,,,,,,,,,,,,,,,,,,,,,,,,,,,,,,,,,,,,,,,,,,,,,,,,,,,,,,,,,,,,,,,,,,,,,,,,,,,,,,,,,,,,,,,
,,,,,,,,,,stimuli/images/PICTURE_383.png,SERIES,5e6e6e101ffcd2431104aa66,28/11/2001,2020-09-02_12h32.51.602,proactive3.1,2020.1.2,Win32,60,5f47c29a48bd2a1e651a6eb7,5f4f824d7fc3a50331486a68,3,,,,,,coin,,,,,,0,27,27,46,1,5,1,,,,,,,,,,,,,,,,,,,,,,,,,,,,,,,,,,,,,,,,,,,,,,,,,,,,,,,,,,,,,,,,,,,,,,,,,,,,,,,,,,,,,,,,,,,,,,,,,,,,,,,,,,,,,
,,,,,,,,,,stimuli/images/PICTURE_487.png,GIRL,5e6e6e101ffcd2431104aa66,28/11/2001,2020-09-02_12h32.51.602,proactive3.1,2020.1.2,Win32,60,5f47c29a48bd2a1e651a6eb7,5f4f824d7fc3a50331486a68,3,,,,,,basket,,,,,,0,28,28,45,1,5,1,,,,,,,,,,,,,,,,,,,,,,,,,,,,,,,,,,,,,,,,,,,,,,,,,,,,,,,,,,,,,,,,,,,,,,,,,,,,,,,,,,,,,,,,,,,,,,,,,,,,,,,,,,,,,
,,,,,,,,,,stimuli/images/PICTURE_380.png,HONEY,5e6e6e101ffcd2431104aa66,28/11/2001,2020-09-02_12h32.51.602,proactive3.1,2020.1.2,Win32,60,5f47c29a48bd2a1e651a6eb7,5f4f824d7fc3a50331486a68,3,,,,,,gorilla,,,,,,0,29,29,19,1,2,1,,,,,,,,,,,,,,,,,,,,,,,,,,,,,,,,,,,,,,,,,,,,,,,,,,,,,,,,,,,,,,,,,,,,,,,,,,,,,,,,,,,,,,,,,,,,,,,,,,,,,,,,,,,,,
,,,,,,,,,,stimuli/images/PICTURE_677.png,APPLE,5e6e6e101ffcd2431104aa66,28/11/2001,2020-09-02_12h32.51.602,proactive3.1,2020.1.2,Win32,60,5f47c29a48bd2a1e651a6eb7,5f4f824d7fc3a50331486a68,3,,,,,,map,,,,,,0,30,30,43,1,5,1,,,,,,,,,,,,,,,,,,,,,,,,,,,,,,,,,,,,,,,,,,,,,,,,,,,,,,,,,,,,,,,,,,,,,,,,,,,,,,,,,,,,,,,,,,,,,,,,,,,,,,,,,,,,,
,,,,,,,,,,stimuli/images/PICTURE_95.png,MILLER,5e6e6e101ffcd2431104aa66,28/11/2001,2020-09-02_12h32.51.602,proactive3.1,2020.1.2,Win32,60,5f47c29a48bd2a1e651a6eb7,5f4f824d7fc3a50331486a68,3,,,,,,suitcase,,,,,,0,31,31,56,1,6,1,,,,,,,,,,,,,,,,,,,,,,,,,,,,,,,,,,,,,,,,,,,,,,,,,,,,,,,,,,,,,,,,,,,,,,,,,,,,,,,,,,,,,,,,,,,,,,,,,,,,,,,,,,,,,
,,,,,,,,,,stimuli/images/PICTURE_233.png,LOTS,5e6e6e101ffcd2431104aa66,28/11/2001,2020-09-02_12h32.51.602,proactive3.1,2020.1.2,Win32,60,5f47c29a48bd2a1e651a6eb7,5f4f824d7fc3a50331486a68,3,,,,,,salt,,,,,,0,32,32,42,1,5,1,,,,,,,,,,,,,,,,,,,,,,,,,,,,,,,,,,,,,,,,,,,,,,,,,,,,,,,,,,,,,,,,,,,,,,,,,,,,,,,,,,,,,,,,,,,,,,,,,,,,,,,,,,,,,
,,,,,,,,,,stimuli/images/PICTURE_504.png,COPS,5e6e6e101ffcd2431104aa66,28/11/2001,2020-09-02_12h32.51.602,proactive3.1,2020.1.2,Win32,60,5f47c29a48bd2a1e651a6eb7,5f4f824d7fc3a50331486a68,3,,,,,,wheel,,,,,,0,33,33,52,1,6,1,,,,,,,,,,,,,,,,,,,,,,,,,,,,,,,,,,,,,,,,,,,,,,,,,,,,,,,,,,,,,,,,,,,,,,,,,,,,,,,,,,,,,,,,,,,,,,,,,,,,,,,,,,,,,
,,,,,,,,,,stimuli/images/PICTURE_57.png,MOMENT,5e6e6e101ffcd2431104aa66,28/11/2001,2020-09-02_12h32.51.602,proactive3.1,2020.1.2,Win32,60,5f47c29a48bd2a1e651a6eb7,5f4f824d7fc3a50331486a68,3,,,,,,stamp,,,,,,0,34,34,37,1,4,1,,,,,,,,,,,,,,,,,,,,,,,,,,,,,,,,,,,,,,,,,,,,,,,,,,,,,,,,,,,,,,,,,,,,,,,,,,,,,,,,,,,,,,,,,,,,,,,,,,,,,,,,,,,,,
,,,,,,,,,,stimuli/images/PICTURE_340.png,VALLEY,5e6e6e101ffcd2431104aa66,28/11/2001,2020-09-02_12h32.51.602,proactive3.1,2020.1.2,Win32,60,5f47c29a48bd2a1e651a6eb7,5f4f824d7fc3a50331486a68,3,,,,,,mirror,,,,,,0,35,35,54,1,6,1,,,,,,,,,,,,,,,,,,,,,,,,,,,,,,,,,,,,,,,,,,,,,,,,,,,,,,,,,,,,,,,,,,,,,,,,,,,,,,,,,,,,,,,,,,,,,,,,,,,,,,,,,,,,,
,,,,,,,,,,stimuli/images/PICTURE_285.png,LIFE,5e6e6e101ffcd2431104aa66,28/11/2001,2020-09-02_12h32.51.602,proactive3.1,2020.1.2,Win32,60,5f47c29a48bd2a1e651a6eb7,5f4f824d7fc3a50331486a68,3,,,,,,carrot,,,,,,0,36,36,33,1,4,1,,,,,,,,,,,,,,,,,,,,,,,,,,,,,,,,,,,,,,,,,,,,,,,,,,,,,,,,,,,,,,,,,,,,,,,,,,,,,,,,,,,,,,,,,,,,,,,,,,,,,,,,,,,,,
,,,,,,,,,,stimuli/images/PICTURE_297.png,RIVER,5e6e6e101ffcd2431104aa66,28/11/2001,2020-09-02_12h32.51.602,proactive3.1,2020.1.2,Win32,60,5f47c29a48bd2a1e651a6eb7,5f4f824d7fc3a50331486a68,3,,,,,,aeroplane,,,,,,0,37,37,39,1,4,1,,,,,,,,,,,,,,,,,,,,,,,,,,,,,,,,,,,,,,,,,,,,,,,,,,,,,,,,,,,,,,,,,,,,,,,,,,,,,,,,,,,,,,,,,,,,,,,,,,,,,,,,,,,,,
,,,,,,,,,,stimuli/images/PICTURE_491.png,GLASS,5e6e6e101ffcd2431104aa66,28/11/2001,2020-09-02_12h32.51.602,proactive3.1,2020.1.2,Win32,60,5f47c29a48bd2a1e651a6eb7,5f4f824d7fc3a50331486a68,3,,,,,,rug,,,,,,0,38,38,14,1,2,1,,,,,,,,,,,,,,,,,,,,,,,,,,,,,,,,,,,,,,,,,,,,,,,,,,,,,,,,,,,,,,,,,,,,,,,,,,,,,,,,,,,,,,,,,,,,,,,,,,,,,,,,,,,,,
,,,,,,,,,,stimuli/images/PICTURE_380.png,CANDY,5e6e6e101ffcd2431104aa66,28/11/2001,2020-09-02_12h32.51.602,proactive3.1,2020.1.2,Win32,60,5f47c29a48bd2a1e651a6eb7,5f4f824d7fc3a50331486a68,3,,,,,,gorilla,,,,,,0,39,39,0,1,1,1,,,,,,,,,,,,,,,,,,,,,,,,,,,,,,,,,,,,,,,,,,,,,,,,,,,,,,,,,,,,,,,,,,,,,,,,,,,,,,,,,,,,,,,,,,,,,,,,,,,,,,,,,,,,,
,,,,,,,,,,stimuli/images/PICTURE_504.png,ARTIST,5e6e6e101ffcd2431104aa66,28/11/2001,2020-09-02_12h32.51.602,proactive3.1,2020.1.2,Win32,60,5f47c29a48bd2a1e651a6eb7,5f4f824d7fc3a50331486a68,3,,,,,,wheel,,,,,,0,40,40,49,1,5,1,,,,,,,,,,,,,,,,,,,,,,,,,,,,,,,,,,,,,,,,,,,,,,,,,,,,,,,,,,,,,,,,,,,,,,,,,,,,,,,,,,,,,,,,,,,,,,,,,,,,,,,,,,,,,
,,,,,,,,,,stimuli/images/PICTURE_203.png,NIGHT,5e6e6e101ffcd2431104aa66,28/11/2001,2020-09-02_12h32.51.602,proactive3.1,2020.1.2,Win32,60,5f47c29a48bd2a1e651a6eb7,5f4f824d7fc3a50331486a68,3,,,,,,cap,,,,,,0,41,41,2,1,1,1,,,,,,,,,,,,,,,,,,,,,,,,,,,,,,,,,,,,,,,,,,,,,,,,,,,,,,,,,,,,,,,,,,,,,,,,,,,,,,,,,,,,,,,,,,,,,,,,,,,,,,,,,,,,,
,,,,,,,,,,stimuli/images/PICTURE_108.png,FLIGHT,5e6e6e101ffcd2431104aa66,28/11/2001,2020-09-02_12h32.51.602,proactive3.1,2020.1.2,Win32,60,5f47c29a48bd2a1e651a6eb7,5f4f824d7fc3a50331486a68,3,,,,,,calendar,,,,,,0,42,42,59,1,6,1,,,,,,,,,,,,,,,,,,,,,,,,,,,,,,,,,,,,,,,,,,,,,,,,,,,,,,,,,,,,,,,,,,,,,,,,,,,,,,,,,,,,,,,,,,,,,,,,,,,,,,,,,,,,,
,,,,,,,,,,stimuli/images/PICTURE_403.png,RIVER,5e6e6e101ffcd2431104aa66,28/11/2001,2020-09-02_12h32.51.602,proactive3.1,2020.1.2,Win32,60,5f47c29a48bd2a1e651a6eb7,5f4f824d7fc3a50331486a68,3,,,,,,cathedral,,,,,,0,43,43,40,1,5,1,,,,,,,,,,,,,,,,,,,,,,,,,,,,,,,,,,,,,,,,,,,,,,,,,,,,,,,,,,,,,,,,,,,,,,,,,,,,,,,,,,,,,,,,,,,,,,,,,,,,,,,,,,,,,
,,,,,,,,,,stimuli/images/PICTURE_32.png,KIND,5e6e6e101ffcd2431104aa66,28/11/2001,2020-09-02_12h32.51.602,proactive3.1,2020.1.2,Win32,60,5f47c29a48bd2a1e651a6eb7,5f4f824d7fc3a50331486a68,3,,,,,,crown,,,,,,0,44,44,35,1,4,1,,,,,,,,,,,,,,,,,,,,,,,,,,,,,,,,,,,,,,,,,,,,,,,,,,,,,,,,,,,,,,,,,,,,,,,,,,,,,,,,,,,,,,,,,,,,,,,,,,,,,,,,,,,,,
,,,,,,,,,,stimuli/images/PICTURE_2.png,FLIGHT,5e6e6e101ffcd2431104aa66,28/11/2001,2020-09-02_12h32.51.602,proactive3.1,2020.1.2,Win32,60,5f47c29a48bd2a1e651a6eb7,5f4f824d7fc3a50331486a68,3,,,,,,tyre,,,,,,0,45,45,15,1,2,1,,,,,,,,,,,,,,,,,,,,,,,,,,,,,,,,,,,,,,,,,,,,,,,,,,,,,,,,,,,,,,,,,,,,,,,,,,,,,,,,,,,,,,,,,,,,,,,,,,,,,,,,,,,,,
,,,,,,,,,,stimuli/images/PICTURE_95.png,BOYS,5e6e6e101ffcd2431104aa66,28/11/2001,2020-09-02_12h32.51.602,proactive3.1,2020.1.2,Win32,60,5f47c29a48bd2a1e651a6eb7,5f4f824d7fc3a50331486a68,3,,,,,,suitcase,,,,,,0,46,46,1,1,1,1,,,,,,,,,,,,,,,,,,,,,,,,,,,,,,,,,,,,,,,,,,,,,,,,,,,,,,,,,,,,,,,,,,,,,,,,,,,,,,,,,,,,,,,,,,,,,,,,,,,,,,,,,,,,,
,,,,,,,,,,stimuli/images/PICTURE_403.png,TOILET,5e6e6e101ffcd2431104aa66,28/11/2001,2020-09-02_12h32.51.602,proactive3.1,2020.1.2,Win32,60,5f47c29a48bd2a1e651a6eb7,5f4f824d7fc3a50331486a68,3,,,,,,cathedral,,,,,,0,47,47,25,1,3,1,,,,,,,,,,,,,,,,,,,,,,,,,,,,,,,,,,,,,,,,,,,,,,,,,,,,,,,,,,,,,,,,,,,,,,,,,,,,,,,,,,,,,,,,,,,,,,,,,,,,,,,,,,,,,
,,,,,,,,,,stimuli/images/PICTURE_654.png,MONTH,5e6e6e101ffcd2431104aa66,28/11/2001,2020-09-02_12h32.51.602,proactive3.1,2020.1.2,Win32,60,5f47c29a48bd2a1e651a6eb7,5f4f824d7fc3a50331486a68,3,,,,,,pencil,,,,,,0,48,48,29,1,3,1,,,,,,,,,,,,,,,,,,,,,,,,,,,,,,,,,,,,,,,,,,,,,,,,,,,,,,,,,,,,,,,,,,,,,,,,,,,,,,,,,,,,,,,,,,,,,,,,,,,,,,,,,,,,,
,,,,,,,,,,stimuli/images/PICTURE_469.png,AGENT,5e6e6e101ffcd2431104aa66,28/11/2001,2020-09-02_12h32.51.602,proactive3.1,2020.1.2,Win32,60,5f47c29a48bd2a1e651a6eb7,5f4f824d7fc3a50331486a68,3,,,,,,stool,,,,,,0,49,49,16,1,2,1,,,,,,,,,,,,,,,,,,,,,,,,,,,,,,,,,,,,,,,,,,,,,,,,,,,,,,,,,,,,,,,,,,,,,,,,,,,,,,,,,,,,,,,,,,,,,,,,,,,,,,,,,,,,,
,,,,,,,,,,stimuli/images/PICTURE_675.png,SALE,5e6e6e101ffcd2431104aa66,28/11/2001,2020-09-02_12h32.51.602,proactive3.1,2020.1.2,Win32,60,5f47c29a48bd2a1e651a6eb7,5f4f824d7fc3a50331486a68,3,,,,,,windmill,,,,,,0,50,50,47,1,5,1,,,,,,,,,,,,,,,,,,,,,,,,,,,,,,,,,,,,,,,,,,,,,,,,,,,,,,,,,,,,,,,,,,,,,,,,,,,,,,,,,,,,,,,,,,,,,,,,,,,,,,,,,,,,,
,,,,,,,,,,stimuli/images/PICTURE_33.png,FRIEND,5e6e6e101ffcd2431104aa66,28/11/2001,2020-09-02_12h32.51.602,proactive3.1,2020.1.2,Win32,60,5f47c29a48bd2a1e651a6eb7,5f4f824d7fc3a50331486a68,3,,,,,,frame,,,,,,0,51,51,8,1,1,1,,,,,,,,,,,,,,,,,,,,,,,,,,,,,,,,,,,,,,,,,,,,,,,,,,,,,,,,,,,,,,,,,,,,,,,,,,,,,,,,,,,,,,,,,,,,,,,,,,,,,,,,,,,,,
,,,,,,,,,,stimuli/images/PICTURE_327.png,CASINO,5e6e6e101ffcd2431104aa66,28/11/2001,2020-09-02_12h32.51.602,proactive3.1,2020.1.2,Win32,60,5f47c29a48bd2a1e651a6eb7,5f4f824d7fc3a50331486a68,3,,,,,,helmet,,,,,,0,52,52,20,1,3,1,,,,,,,,,,,,,,,,,,,,,,,,,,,,,,,,,,,,,,,,,,,,,,,,,,,,,,,,,,,,,,,,,,,,,,,,,,,,,,,,,,,,,,,,,,,,,,,,,,,,,,,,,,,,,
,,,,,,,,,,stimuli/images/PICTURE_147.png,YEAR,5e6e6e101ffcd2431104aa66,28/11/2001,2020-09-02_12h32.51.602,proactive3.1,2020.1.2,Win32,60,5f47c29a48bd2a1e651a6eb7,5f4f824d7fc3a50331486a68,3,,,,,,hanger,,,,,,0,53,53,21,1,3,1,,,,,,,,,,,,,,,,,,,,,,,,,,,,,,,,,,,,,,,,,,,,,,,,,,,,,,,,,,,,,,,,,,,,,,,,,,,,,,,,,,,,,,,,,,,,,,,,,,,,,,,,,,,,,
,,,,,,,,,,stimuli/images/PICTURE_203.png,GODS,5e6e6e101ffcd2431104aa66,28/11/2001,2020-09-02_12h32.51.602,proactive3.1,2020.1.2,Win32,60,5f47c29a48bd2a1e651a6eb7,5f4f824d7fc3a50331486a68,3,,,,,,cap,,,,,,0,54,54,30,1,4,1,,,,,,,,,,,,,,,,,,,,,,,,,,,,,,,,,,,,,,,,,,,,,,,,,,,,,,,,,,,,,,,,,,,,,,,,,,,,,,,,,,,,,,,,,,,,,,,,,,,,,,,,,,,,,
,,,,,,,,,,stimuli/images/PICTURE_327.png,SERIES,5e6e6e101ffcd2431104aa66,28/11/2001,2020-09-02_12h32.51.602,proactive3.1,2020.1.2,Win32,60,5f47c29a48bd2a1e651a6eb7,5f4f824d7fc3a50331486a68,3,,,,,,helmet,,,,,,0,55,55,3,1,1,1,,,,,,,,,,,,,,,,,,,,,,,,,,,,,,,,,,,,,,,,,,,,,,,,,,,,,,,,,,,,,,,,,,,,,,,,,,,,,,,,,,,,,,,,,,,,,,,,,,,,,,,,,,,,,
,,,,,,,,,,stimuli/images/PICTURE_208.png,SYSTEM,5e6e6e101ffcd2431104aa66,28/11/2001,2020-09-02_12h32.51.602,proactive3.1,2020.1.2,Win32,60,5f47c29a48bd2a1e651a6eb7,5f4f824d7fc3a50331486a68,3,,,,,,microphone,,,,,,0,56,56,32,1,4,1,,,,,,,,,,,,,,,,,,,,,,,,,,,,,,,,,,,,,,,,,,,,,,,,,,,,,,,,,,,,,,,,,,,,,,,,,,,,,,,,,,,,,,,,,,,,,,,,,,,,,,,,,,,,,
,,,,,,,,,,stimuli/images/PICTURE_744.png,WEAPON,5e6e6e101ffcd2431104aa66,28/11/2001,2020-09-02_12h32.51.602,proactive3.1,2020.1.2,Win32,60,5f47c29a48bd2a1e651a6eb7,5f4f824d7fc3a50331486a68,3,,,,,,ring,,,,,,0,57,57,50,1,6,1,,,,,,,,,,,,,,,,,,,,,,,,,,,,,,,,,,,,,,,,,,,,,,,,,,,,,,,,,,,,,,,,,,,,,,,,,,,,,,,,,,,,,,,,,,,,,,,,,,,,,,,,,,,,,
,,,,,,,,,,stimuli/images/PICTURE_405.png,PLENTY,5e6e6e101ffcd2431104aa66,28/11/2001,2020-09-02_12h32.51.602,proactive3.1,2020.1.2,Win32,60,5f47c29a48bd2a1e651a6eb7,5f4f824d7fc3a50331486a68,3,,,,,,anchor,,,,,,0,58,58,23,1,3,1,,,,,,,,,,,,,,,,,,,,,,,,,,,,,,,,,,,,,,,,,,,,,,,,,,,,,,,,,,,,,,,,,,,,,,,,,,,,,,,,,,,,,,,,,,,,,,,,,,,,,,,,,,,,,
,,WRITER,2.23031,1,,,,,,stimuli/images/PICTURE_383.png,WRITER,5e6e6e101ffcd2431104aa66,28/11/2001,2020-09-02_12h32.51.602,proactive3.1,2020.1.2,Win32,60,5f47c29a48bd2a1e651a6eb7,5f4f824d7fc3a50331486a68,3,,,,,,coin,,,,,,,,,,,3,1,0,0,0,28,1,,,,,,,,,,,,,,,,,,,,,,,,,,,,,,,,,,,,,,,,,,,,,,,,,,,,,,,,,,,,,,,,,,,,,,,,,,,,,,,,,,,,,,,,,,,,,,,,,,,,,,,,
,,?,0.00065,0,,,,,,stimuli/images/PICTURE_147.png,WOMEN,5e6e6e101ffcd2431104aa66,28/11/2001,2020-09-02_12h32.51.602,proactive3.1,2020.1.2,Win32,60,5f47c29a48bd2a1e651a6eb7,5f4f824d7fc3a50331486a68,3,,,,,,hanger,,,,,,,,,,,1,1,0,1,1,7,1,,,,,,,,,,,,,,,,,,,,,,,,,,,,,,,,,,,,,,,,,,,,,,,,,,,,,,,,,,,,,,,,,,,,,,,,,,,,,,,,,,,,,,,,,,,,,,,,,,,,,,,,
,,?,0.000585,0,,,,,,stimuli/images/PICTURE_708.png,RECORD,5e6e6e101ffcd2431104aa66,28/11/2001,2020-09-02_12h32.51.602,proactive3.1,2020.1.2,Win32,60,5f47c29a48bd2a1e651a6eb7,5f4f824d7fc3a50331486a68,3,,,,,,monkey,,,,,,,,,,,6,1,0,2,2,58,1,,,,,,,,,,,,,,,,,,,,,,,,,,,,,,,,,,,,,,,,,,,,,,,,,,,,,,,,,,,,,,,,,,,,,,,,,,,,,,,,,,,,,,,,,,,,,,,,,,,,,,,,
,,?,0.00062,0,,,,,,stimuli/images/PICTURE_487.png,GIRL,5e6e6e101ffcd2431104aa66,28/11/2001,2020-09-02_12h32.51.602,proactive3.1,2020.1.2,Win32,60,5f47c29a48bd2a1e651a6eb7,5f4f824d7fc3a50331486a68,3,,,,,,basket,,,,,,,,,,,5,1,0,3,3,45,1,,,,,,,,,,,,,,,,,,,,,,,,,,,,,,,,,,,,,,,,,,,,,,,,,,,,,,,,,,,,,,,,,,,,,,,,,,,,,,,,,,,,,,,,,,,,,,,,,,,,,,,,
,,?,0.00039,0,,,,,,stimuli/images/PICTURE_297.png,RIVER,5e6e6e101ffcd2431104aa66,28/11/2001,2020-09-02_12h32.51.602,proactive3.1,2020.1.2,Win32,60,5f47c29a48bd2a1e651a6eb7,5f4f824d7fc3a50331486a68,3,,,,,,aeroplane,,,,,,,,,,,4,1,0,4,4,39,1,,,,,,,,,,,,,,,,,,,,,,,,,,,,,,,,,,,,,,,,,,,,,,,,,,,,,,,,,,,,,,,,,,,,,,,,,,,,,,,,,,,,,,,,,,,,,,,,,,,,,,,,
,,?,0.001185,0,,,,,,stimuli/images/PICTURE_327.png,SERIES,5e6e6e101ffcd2431104aa66,28/11/2001,2020-09-02_12h32.51.602,proactive3.1,2020.1.2,Win32,60,5f47c29a48bd2a1e651a6eb7,5f4f824d7fc3a50331486a68,3,,,,,,helmet,,,,,,,,,,,1,1,0,5,5,3,1,,,,,,,,,,,,,,,,,,,,,,,,,,,,,,,,,,,,,,,,,,,,,,,,,,,,,,,,,,,,,,,,,,,,,,,,,,,,,,,,,,,,,,,,,,,,,,,,,,,,,,,,
,,?,0.00038,0,,,,,,stimuli/images/PICTURE_744.png,WEAPON,5e6e6e101ffcd2431104aa66,28/11/2001,2020-09-02_12h32.51.602,proactive3.1,2020.1.2,Win32,60,5f47c29a48bd2a1e651a6eb7,5f4f824d7fc3a50331486a68,3,,,,,,ring,,,,,,,,,,,6,1,0,6,6,50,1,,,,,,,,,,,,,,,,,,,,,,,,,,,,,,,,,,,,,,,,,,,,,,,,,,,,,,,,,,,,,,,,,,,,,,,,,,,,,,,,,,,,,,,,,,,,,,,,,,,,,,,,
,,?,0.0004,0,,,,,,stimuli/images/PICTURE_95.png,HONEY,5e6e6e101ffcd2431104aa66,28/11/2001,2020-09-02_12h32.51.602,proactive3.1,2020.1.2,Win32,60,5f47c29a48bd2a1e651a6eb7,5f4f824d7fc3a50331486a68,3,,,,,,suitcase,,,,,,,,,,,5,1,0,7,7,44,1,,,,,,,,,,,,,,,,,,,,,,,,,,,,,,,,,,,,,,,,,,,,,,,,,,,,,,,,,,,,,,,,,,,,,,,,,,,,,,,,,,,,,,,,,,,,,,,,,,,,,,,,
,,?,0.00037,0,,,,,,stimuli/images/PICTURE_85.png,NATION,5e6e6e101ffcd2431104aa66,28/11/2001,2020-09-02_12h32.51.602,proactive3.1,2020.1.2,Win32,60,5f47c29a48bd2a1e651a6eb7,5f4f824d7fc3a50331486a68,3,,,,,,diamond,,,,,,,,,,,1,1,0,8,8,5,1,,,,,,,,,,,,,,,,,,,,,,,,,,,,,,,,,,,,,,,,,,,,,,,,,,,,,,,,,,,,,,,,,,,,,,,,,,,,,,,,,,,,,,,,,,,,,,,,,,,,,,,,
,,?,0.00035,0,,,,,,stimuli/images/PICTURE_42.png,BOYS,5e6e6e101ffcd2431104aa66,28/11/2001,2020-09-02_12h32.51.602,proactive3.1,2020.1.2,Win32,60,5f47c29a48bd2a1e651a6eb7,5f4f824d7fc3a50331486a68,3,,,,,,pear,,,,,,,,,,,6,1,0,9,9,55,1,,,,,,,,,,,,,,,,,,,,,,,,,,,,,,,,,,,,,,,,,,,,,,,,,,,,,,,,,,,,,,,,,,,,,,,,,,,,,,,,,,,,,,,,,,,,,,,,,,,,,,,,
,,?,0.000355,0,,,,,,stimuli/images/PICTURE_85.png,TOILET,5e6e6e101ffcd2431104aa66,28/11/2001,2020-09-02_12h32.51.602,proactive3.1,2020.1.2,Win32,60,5f47c29a48bd2a1e651a6eb7,5f4f824d7fc3a50331486a68,3,,,,,,diamond,,,,,,,,,,,5,1,0,10,10,48,1,,,,,,,,,,,,,,,,,,,,,,,,,,,,,,,,,,,,,,,,,,,,,,,,,,,,,,,,,,,,,,,,,,,,,,,,,,,,,,,,,,,,,,,,,,,,,,,,,,,,,,,,
,,?,0.000355,0,,,,,,stimuli/images/PICTURE_233.png,LOTS,5e6e6e101ffcd2431104aa66,28/11/2001,2020-09-02_12h32.51.602,proactive3.1,2020.1.2,Win32,60,5f47c29a48bd2a1e651a6eb7,5f4f824d7fc3a50331486a68,3,,,,,,salt,,,,,,,,,,,5,1,0,11,11,42,1,,,,,,,,,,,,,,,,,,,,,,,,,,,,,,,,,,,,,,,,,,,,,,,,,,,,,,,,,,,,,,,,,,,,,,,,,,,,,,,,,,,,,,,,,,,,,,,,,,,,,,,,
,,?,0.000415,0,,,,,,stimuli/images/PICTURE_403.png,WRITER,5e6e6e101ffcd2431104aa66,28/11/2001,2020-09-02_12h32.51.602,proactive3.1,2020.1.2,Win32,60,5f47c29a48bd2a1e651a6eb7,5f4f824d7fc3a50331486a68,3,,,,,,cathedral,,,,,,,,,,,4,1,0,12,12,31,1,,,,,,,,,,,,,,,,,,,,,,,,,,,,,,,,,,,,,,,,,,,,,,,,,,,,,,,,,,,,,,,,,,,,,,,,,,,,,,,,,,,,,,,,,,,,,,,,,,,,,,,,
,,BATH,1.77129,1,,,,,,stimuli/images/PICTURE_564.png,BATH,5e6e6e101ffcd2431104aa66,28/11/2001,2020-09-02_12h32.51.602,proactive3.1,2020.1.2,Win32,60,5f47c29a48bd2a1e651a6eb7,5f4f824d7fc3a50331486a68,3,,,,,,spoon,,,,,,,,,,,3,1,0,13,13,26,1,,,,,,,,,,,,,,,,,,,,,,,,,,,,,,,,,,,,,,,,,,,,,,,,,,,,,,,,,,,,,,,,,,,,,,,,,,,,,,,,,,,,,,,,,,,,,,,,,,,,,,,,
,,?,0.00097,0,,,,,,stimuli/images/PICTURE_340.png,VALLEY,5e6e6e101ffcd2431104aa66,28/11/2001,2020-09-02_12h32.51.602,proactive3.1,2020.1.2,Win32,60,5f47c29a48bd2a1e651a6eb7,5f4f824d7fc3a50331486a68,3,,,,,,mirror,,,,,,,,,,,6,1,0,14,14,54,1,,,,,,,,,,,,,,,,,,,,,,,,,,,,,,,,,,,,,,,,,,,,,,,,,,,,,,,,,,,,,,,,,,,,,,,,,,,,,,,,,,,,,,,,,,,,,,,,,,,,,,,,
,,?,0.000575,0,,,,,,stimuli/images/PICTURE_2.png,FLIGHT,5e6e6e101ffcd2431104aa66,28/11/2001,2020-09-02_12h32.51.602,proactive3.1,2020.1.2,Win32,60,5f47c29a48bd2a1e651a6eb7,5f4f824d7fc3a50331486a68,3,,,,,,tyre,,,,,,,,,,,2,1,0,15,15,15,1,,,,,,,,,,,,,,,,,,,,,,,,,,,,,,,,,,,,,,,,,,,,,,,,,,,,,,,,,,,,,,,,,,,,,,,,,,,,,,,,,,,,,,,,,,,,,,,,,,,,,,,,
,,?,0.00071,0,,,,,,stimuli/images/PICTURE_677.png,APPLE,5e6e6e101ffcd2431104aa66,28/11/2001,2020-09-02_12h32.51.602,proactive3.1,2020.1.2,Win32,60,5f47c29a48bd2a1e651a6eb7,5f4f824d7fc3a50331486a68,3,,,,,,map,,,,,,,,,,,5,1,0,16,16,43,1,,,,,,,,,,,,,,,,,,,,,,,,,,,,,,,,,,,,,,,,,,,,,,,,,,,,,,,,,,,,,,,,,,,,,,,,,,,,,,,,,,,,,,,,,,,,,,,,,,,,,,,,
,,?,0.00036,0,,,,,,stimuli/images/PICTURE_68.png,MILE,5e6e6e101ffcd2431104aa66,28/11/2001,2020-09-02_12h32.51.602,proactive3.1,2020.1.2,Win32,60,5f47c29a48bd2a1e651a6eb7,5f4f824d7fc3a50331486a68,3,,,,,,candle,,,,,,,,,,,6,1,0,17,17,51,1,,,,,,,,,,,,,,,,,,,,,,,,,,,,,,,,,,,,,,,,,,,,,,,,,,,,,,,,,,,,,,,,,,,,,,,,,,,,,,,,,,,,,,,,,,,,,,,,,,,,,,,,
,,?,0.00037,0,,,,,,stimuli/images/PICTURE_380.png,CANDY,5e6e6e101ffcd2431104aa66,28/11/2001,2020-09-02_12h32.51.602,proactive3.1,2020.1.2,Win32,60,5f47c29a48bd2a1e651a6eb7,5f4f824d7fc3a50331486a68,3,,,,,,gorilla,,,,,,,,,,,1,1,0,18,18,0,1,,,,,,,,,,,,,,,,,,,,,,,,,,,,,,,,,,,,,,,,,,,,,,,,,,,,,,,,,,,,,,,,,,,,,,,,,,,,,,,,,,,,,,,,,,,,,,,,,,,,,,,,
,,?,0.000355,0,,,,,,stimuli/images/PICTURE_296.png,LIFE,5e6e6e101ffcd2431104aa66,28/11/2001,2020-09-02_12h32.51.602,proactive3.1,2020.1.2,Win32,60,5f47c29a48bd2a1e651a6eb7,5f4f824d7fc3a50331486a68,3,,,,,,bolt,,,,,,,,,,,6,1,0,19,19,57,1,,,,,,,,,,,,,,,,,,,,,,,,,,,,,,,,,,,,,,,,,,,,,,,,,,,,,,,,,,,,,,,,,,,,,,,,,,,,,,,,,,,,,,,,,,,,,,,,,,,,,,,,
,,?,0.000385,0,,,,,,stimuli/images/PICTURE_32.png,PILLS,5e6e6e101ffcd2431104aa66,28/11/2001,2020-09-02_12h32.51.602,proactive3.1,2020.1.2,Win32,60,5f47c29a48bd2a1e651a6eb7,5f4f824d7fc3a50331486a68,3,,,,,,crown,,,,,,,,,,,2,1,0,20,20,18,1,,,,,,,,,,,,,,,,,,,,,,,,,,,,,,,,,,,,,,,,,,,,,,,,,,,,,,,,,,,,,,,,,,,,,,,,,,,,,,,,,,,,,,,,,,,,,,,,,,,,,,,,
,,PLENTY,4.695075,1,,,,,,stimuli/images/PICTURE_405.png,PLENTY,5e6e6e101ffcd2431104aa66,28/11/2001,2020-09-02_12h32.51.602,proactive3.1,2020.1.2,Win32,60,5f47c29a48bd2a1e651a6eb7,5f4f824d7fc3a50331486a68,3,,,,,,anchor,,,,,,,,,,,3,1,0,21,21,23,1,,,,,,,,,,,,,,,,,,,,,,,,,,,,,,,,,,,,,,,,,,,,,,,,,,,,,,,,,,,,,,,,,,,,,,,,,,,,,,,,,,,,,,,,,,,,,,,,,,,,,,,,
,,?,0.000685,0,,,,,,stimuli/images/PICTURE_95.png,MILLER,5e6e6e101ffcd2431104aa66,28/11/2001,2020-09-02_12h32.51.602,proactive3.1,2020.1.2,Win32,60,5f47c29a48bd2a1e651a6eb7,5f4f824d7fc3a50331486a68,3,,,,,,suitcase,,,,,,,,,,,6,1,0,22,22,56,1,,,,,,,,,,,,,,,,,,,,,,,,,,,,,,,,,,,,,,,,,,,,,,,,,,,,,,,,,,,,,,,,,,,,,,,,,,,,,,,,,,,,,,,,,,,,,,,,,,,,,,,,
,,?,0.00057,0,,,,,,stimuli/images/PICTURE_208.png,SYSTEM,5e6e6e101ffcd2431104aa66,28/11/2001,2020-09-02_12h32.51.602,proactive3.1,2020.1.2,Win32,60,5f47c29a48bd2a1e651a6eb7,5f4f824d7fc3a50331486a68,3,,,,,,microphone,,,,,,,,,,,4,1,0,23,23,32,1,,,,,,,,,,,,,,,,,,,,,,,,,,,,,,,,,,,,,,,,,,,,,,,,,,,,,,,,,,,,,,,,,,,,,,,,,,,,,,,,,,,,,,,,,,,,,,,,,,,,,,,,
,,?,0.00057,0,,,,,,stimuli/images/PICTURE_95.png,BOYS,5e6e6e101ffcd2431104aa66,28/11/2001,2020-09-02_12h32.51.602,proactive3.1,2020.1.2,Win32,60,5f47c29a48bd2a1e651a6eb7,5f4f824d7fc3a50331486a68,3,,,,,,suitcase,,,,,,,,,,,1,1,0,24,24,1,1,,,,,,,,,,,,,,,,,,,,,,,,,,,,,,,,,,,,,,,,,,,,,,,,,,,,,,,,,,,,,,,,,,,,,,,,,,,,,,,,,,,,,,,,,,,,,,,,,,,,,,,,
,,HOTEL,3.448385,1,,,,,,stimuli/images/PICTURE_750.png,HOTEL,5e6e6e101ffcd2431104aa66,28/11/2001,2020-09-02_12h32.51.602,proactive3.1,2020.1.2,Win32,60,5f47c29a48bd2a1e651a6eb7,5f4f824d7fc3a50331486a68,3,,,,,,kettle,,,,,,,,,,,3,1,0,25,25,27,1,,,,,,,,,,,,,,,,,,,,,,,,,,,,,,,,,,,,,,,,,,,,,,,,,,,,,,,,,,,,,,,,,,,,,,,,,,,,,,,,,,,,,,,,,,,,,,,,,,,,,,,,
,,?,0.000645,0,,,,,,stimuli/images/PICTURE_504.png,ARTIST,5e6e6e101ffcd2431104aa66,28/11/2001,2020-09-02_12h32.51.602,proactive3.1,2020.1.2,Win32,60,5f47c29a48bd2a1e651a6eb7,5f4f824d7fc3a50331486a68,3,,,,,,wheel,,,,,,,,,,,5,1,0,26,26,49,1,,,,,,,,,,,,,,,,,,,,,,,,,,,,,,,,,,,,,,,,,,,,,,,,,,,,,,,,,,,,,,,,,,,,,,,,,,,,,,,,,,,,,,,,,,,,,,,,,,,,,,,,
,,?,0.00056,0,,,,,,stimuli/images/PICTURE_177.png,WRITER,5e6e6e101ffcd2431104aa66,28/11/2001,2020-09-02_12h32.51.602,proactive3.1,2020.1.2,Win32,60,5f47c29a48bd2a1e651a6eb7,5f4f824d7fc3a50331486a68,3,,,,,,mushroom,,,,,,,,,,,5,1,0,27,27,41,1,,,,,,,,,,,,,,,,,,,,,,,,,,,,,,,,,,,,,,,,,,,,,,,,,,,,,,,,,,,,,,,,,,,,,,,,,,,,,,,,,,,,,,,,,,,,,,,,,,,,,,,,
,,?,0.00062,0,,,,,,stimuli/images/PICTURE_469.png,AGENT,5e6e6e101ffcd2431104aa66,28/11/2001,2020-09-02_12h32.51.602,proactive3.1,2020.1.2,Win32,60,5f47c29a48bd2a1e651a6eb7,5f4f824d7fc3a50331486a68,3,,,,,,stool,,,,,,,,,,,2,1,0,28,28,16,1,,,,,,,,,,,,,,,,,,,,,,,,,,,,,,,,,,,,,,,,,,,,,,,,,,,,,,,,,,,,,,,,,,,,,,,,,,,,,,,,,,,,,,,,,,,,,,,,,,,,,,,,
,,TOILET,1.74685,1,,,,,,stimuli/images/PICTURE_403.png,TOILET,5e6e6e101ffcd2431104aa66,28/11/2001,2020-09-02_12h32.51.602,proactive3.1,2020.1.2,Win32,60,5f47c29a48bd2a1e651a6eb7,5f4f824d7fc3a50331486a68,3,,,,,,cathedral,,,,,,,,,,,3,1,0,29,29,25,1,,,,,,,,,,,,,,,,,,,,,,,,,,,,,,,,,,,,,,,,,,,,,,,,,,,,,,,,,,,,,,,,,,,,,,,,,,,,,,,,,,,,,,,,,,,,,,,,,,,,,,,,
,,LETTER,2.0845,1,,,,,,stimuli/images/PICTURE_340.png,LETTER,5e6e6e101ffcd2431104aa66,28/11/2001,2020-09-02_12h32.51.602,proactive3.1,2020.1.2,Win32,60,5f47c29a48bd2a1e651a6eb7,5f4f824d7fc3a50331486a68,3,,,,,,mirror,,,,,,,,,,,3,1,0,30,30,24,1,,,,,,,,,,,,,,,,,,,,,,,,,,,,,,,,,,,,,,,,,,,,,,,,,,,,,,,,,,,,,,,,,,,,,,,,,,,,,,,,,,,,,,,,,,,,,,,,,,,,,,,,
,,?,0.00071,0,,,,,,stimuli/images/PICTURE_504.png,COPS,5e6e6e101ffcd2431104aa66,28/11/2001,2020-09-02_12h32.51.602,proactive3.1,2020.1.2,Win32,60,5f47c29a48bd2a1e651a6eb7,5f4f824d7fc3a50331486a68,3,,,,,,wheel,,,,,,,,,,,6,1,0,31,31,52,1,,,,,,,,,,,,,,,,,,,,,,,,,,,,,,,,,,,,,,,,,,,,,,,,,,,,,,,,,,,,,,,,,,,,,,,,,,,,,,,,,,,,,,,,,,,,,,,,,,,,,,,,
,,MONTH,2.41726,1,,,,,,stimuli/images/PICTURE_654.png,MONTH,5e6e6e101ffcd2431104aa66,28/11/2001,2020-09-02_12h32.51.602,proactive3.1,2020.1.2,Win32,60,5f47c29a48bd2a1e651a6eb7,5f4f824d7fc3a50331486a68,3,,,,,,pencil,,,,,,,,,,,3,1,0,32,32,29,1,,,,,,,,,,,,,,,,,,,,,,,,,,,,,,,,,,,,,,,,,,,,,,,,,,,,,,,,,,,,,,,,,,,,,,,,,,,,,,,,,,,,,,,,,,,,,,,,,,,,,,,,
,,POLICY,1.65229,1,,,,,,stimuli/images/PICTURE_108.png,POLICY,5e6e6e101ffcd2431104aa66,28/11/2001,2020-09-02_12h32.51.602,proactive3.1,2020.1.2,Win32,60,5f47c29a48bd2a1e651a6eb7,5f4f824d7fc3a50331486a68,3,,,,,,calendar,,,,,,,,,,,3,1,0,33,33,22,1,,,,,,,,,,,,,,,,,,,,,,,,,,,,,,,,,,,,,,,,,,,,,,,,,,,,,,,,,,,,,,,,,,,,,,,,,,,,,,,,,,,,,,,,,,,,,,,,,,,,,,,,
,,?,0.00062,0,,,,,,stimuli/images/PICTURE_685.png,PENNY,5e6e6e101ffcd2431104aa66,28/11/2001,2020-09-02_12h32.51.602,proactive3.1,2020.1.2,Win32,60,5f47c29a48bd2a1e651a6eb7,5f4f824d7fc3a50331486a68,3,,,,,,goose,,,,,,,,,,,1,1,0,34,34,4,1,,,,,,,,,,,,,,,,,,,,,,,,,,,,,,,,,,,,,,,,,,,,,,,,,,,,,,,,,,,,,,,,,,,,,,,,,,,,,,,,,,,,,,,,,,,,,,,,,,,,,,,,
,,?,0.00054,0,,,,,,stimuli/images/PICTURE_675.png,SALE,5e6e6e101ffcd2431104aa66,28/11/2001,2020-09-02_12h32.51.602,proactive3.1,2020.1.2,Win32,60,5f47c29a48bd2a1e651a6eb7,5f4f824d7fc3a50331486a68,3,,,,,,windmill,,,,,,,,,,,5,1,0,35,35,47,1,,,,,,,,,,,,,,,,,,,,,,,,,,,,,,,,,,,,,,,,,,,,,,,,,,,,,,,,,,,,,,,,,,,,,,,,,,,,,,,,,,,,,,,,,,,,,,,,,,,,,,,,
,,?,0.000525,0,,,,,,stimuli/images/PICTURE_667.png,RIVER,5e6e6e101ffcd2431104aa66,28/11/2001,2020-09-02_12h32.51.602,proactive3.1,2020.1.2,Win32,60,5f47c29a48bd2a1e651a6eb7,5f4f824d7fc3a50331486a68,3,,,,,,daisy,,,,,,,,,,,2,1,0,36,36,10,1,,,,,,,,,,,,,,,,,,,,,,,,,,,,,,,,,,,,,,,,,,,,,,,,,,,,,,,,,,,,,,,,,,,,,,,,,,,,,,,,,,,,,,,,,,,,,,,,,,,,,,,,
,,?,0.000465,0,,,,,,stimuli/images/PICTURE_57.png,MOMENT,5e6e6e101ffcd2431104aa66,28/11/2001,2020-09-02_12h32.51.602,proactive3.1,2020.1.2,Win32,60,5f47c29a48bd2a1e651a6eb7,5f4f824d7fc3a50331486a68,3,,,,,,stamp,,,,,,,,,,,4,1,0,37,37,37,1,,,,,,,,,,,,,,,,,,,,,,,,,,,,,,,,,,,,,,,,,,,,,,,,,,,,,,,,,,,,,,,,,,,,,,,,,,,,,,,,,,,,,,,,,,,,,,,,,,,,,,,,
,,?,0.000355,0,,,,,,stimuli/images/PICTURE_33.png,FRIEND,5e6e6e101ffcd2431104aa66,28/11/2001,2020-09-02_12h32.51.602,proactive3.1,2020.1.2,Win32,60,5f47c29a48bd2a1e651a6eb7,5f4f824d7fc3a50331486a68,3,,,,,,frame,,,,,,,,,,,1,1,0,38,38,8,1,,,,,,,,,,,,,,,,,,,,,,,,,,,,,,,,,,,,,,,,,,,,,,,,,,,,,,,,,,,,,,,,,,,,,,,,,,,,,,,,,,,,,,,,,,,,,,,,,,,,,,,,
,,?,0.00034,0,,,,,,stimuli/images/PICTURE_403.png,RIVER,5e6e6e101ffcd2431104aa66,28/11/2001,2020-09-02_12h32.51.602,proactive3.1,2020.1.2,Win32,60,5f47c29a48bd2a1e651a6eb7,5f4f824d7fc3a50331486a68,3,,,,,,cathedral,,,,,,,,,,,5,1,0,39,39,40,1,,,,,,,,,,,,,,,,,,,,,,,,,,,,,,,,,,,,,,,,,,,,,,,,,,,,,,,,,,,,,,,,,,,,,,,,,,,,,,,,,,,,,,,,,,,,,,,,,,,,,,,,
,,?,0.00035,0,,,,,,stimuli/images/PICTURE_383.png,SERIES,5e6e6e101ffcd2431104aa66,28/11/2001,2020-09-02_12h32.51.602,proactive3.1,2020.1.2,Win32,60,5f47c29a48bd2a1e651a6eb7,5f4f824d7fc3a50331486a68,3,,,,,,coin,,,,,,,,,,,5,1,0,40,40,46,1,,,,,,,,,,,,,,,,,,,,,,,,,,,,,,,,,,,,,,,,,,,,,,,,,,,,,,,,,,,,,,,,,,,,,,,,,,,,,,,,,,,,,,,,,,,,,,,,,,,,,,,,
,,?,0.00032,0,,,,,,stimuli/images/PICTURE_203.png,NIGHT,5e6e6e101ffcd2431104aa66,28/11/2001,2020-09-02_12h32.51.602,proactive3.1,2020.1.2,Win32,60,5f47c29a48bd2a1e651a6eb7,5f4f824d7fc3a50331486a68,3,,,,,,cap,,,,,,,,,,,1,1,0,41,41,2,1,,,,,,,,,,,,,,,,,,,,,,,,,,,,,,,,,,,,,,,,,,,,,,,,,,,,,,,,,,,,,,,,,,,,,,,,,,,,,,,,,,,,,,,,,,,,,,,,,,,,,,,,
,,?,0.000325,0,,,,,,stimuli/images/PICTURE_203.png,GODS,5e6e6e101ffcd2431104aa66,28/11/2001,2020-09-02_12h32.51.602,proactive3.1,2020.1.2,Win32,60,5f47c29a48bd2a1e651a6eb7,5f4f824d7fc3a50331486a68,3,,,,,,cap,,,,,,,,,,,4,1,0,42,42,30,1,,,,,,,,,,,,,,,,,,,,,,,,,,,,,,,,,,,,,,,,,,,,,,,,,,,,,,,,,,,,,,,,,,,,,,,,,,,,,,,,,,,,,,,,,,,,,,,,,,,,,,,,
,,?,0.00046,0,,,,,,stimuli/images/PICTURE_405.png,YEAR,5e6e6e101ffcd2431104aa66,28/11/2001,2020-09-02_12h32.51.602,proactive3.1,2020.1.2,Win32,60,5f47c29a48bd2a1e651a6eb7,5f4f824d7fc3a50331486a68,3,,,,,,anchor,,,,,,,,,,,4,1,0,43,43,34,1,,,,,,,,,,,,,,,,,,,,,,,,,,,,,,,,,,,,,,,,,,,,,,,,,,,,,,,,,,,,,,,,,,,,,,,,,,,,,,,,,,,,,,,,,,,,,,,,,,,,,,,,
,,CASINO,2.0228,1,,,,,,stimuli/images/PICTURE_327.png,CASINO,5e6e6e101ffcd2431104aa66,28/11/2001,2020-09-02_12h32.51.602,proactive3.1,2020.1.2,Win32,60,5f47c29a48bd2a1e651a6eb7,5f4f824d7fc3a50331486a68,3,,,,,,helmet,,,,,,,,,,,3,1,0,44,44,20,1,,,,,,,,,,,,,,,,,,,,,,,,,,,,,,,,,,,,,,,,,,,,,,,,,,,,,,,,,,,,,,,,,,,,,,,,,,,,,,,,,,,,,,,,,,,,,,,,,,,,,,,,
,,?,0.00072,0,,,,,,stimuli/images/PICTURE_296.png,LOTS,5e6e6e101ffcd2431104aa66,28/11/2001,2020-09-02_12h32.51.602,proactive3.1,2020.1.2,Win32,60,5f47c29a48bd2a1e651a6eb7,5f4f824d7fc3a50331486a68,3,,,,,,bolt,,,,,,,,,,,1,1,0,45,45,9,1,,,,,,,,,,,,,,,,,,,,,,,,,,,,,,,,,,,,,,,,,,,,,,,,,,,,,,,,,,,,,,,,,,,,,,,,,,,,,,,,,,,,,,,,,,,,,,,,,,,,,,,,
,,?,0.000535,0,,,,,,stimuli/images/PICTURE_285.png,LIFE,5e6e6e101ffcd2431104aa66,28/11/2001,2020-09-02_12h32.51.602,proactive3.1,2020.1.2,Win32,60,5f47c29a48bd2a1e651a6eb7,5f4f824d7fc3a50331486a68,3,,,,,,carrot,,,,,,,,,,,4,1,0,46,46,33,1,,,,,,,,,,,,,,,,,,,,,,,,,,,,,,,,,,,,,,,,,,,,,,,,,,,,,,,,,,,,,,,,,,,,,,,,,,,,,,,,,,,,,,,,,,,,,,,,,,,,,,,,
,,?,0.00056,0,,,,,,stimuli/images/PICTURE_655.png,TOILET,5e6e6e101ffcd2431104aa66,28/11/2001,2020-09-02_12h32.51.602,proactive3.1,2020.1.2,Win32,60,5f47c29a48bd2a1e651a6eb7,5f4f824d7fc3a50331486a68,3,,,,,,megaphone,,,,,,,,,,,2,1,0,47,47,12,1,,,,,,,,,,,,,,,,,,,,,,,,,,,,,,,,,,,,,,,,,,,,,,,,,,,,,,,,,,,,,,,,,,,,,,,,,,,,,,,,,,,,,,,,,,,,,,,,,,,,,,,,
,,?,0.0004,0,,,,,,stimuli/images/PICTURE_339.png,CLIENT,5e6e6e101ffcd2431104aa66,28/11/2001,2020-09-02_12h32.51.602,proactive3.1,2020.1.2,Win32,60,5f47c29a48bd2a1e651a6eb7,5f4f824d7fc3a50331486a68,3,,,,,,backpack,,,,,,,,,,,2,1,0,48,48,11,1,,,,,,,,,,,,,,,,,,,,,,,,,,,,,,,,,,,,,,,,,,,,,,,,,,,,,,,,,,,,,,,,,,,,,,,,,,,,,,,,,,,,,,,,,,,,,,,,,,,,,,,,
,,?,0.000405,0,,,,,,stimuli/images/PICTURE_308.png,FAMILY,5e6e6e101ffcd2431104aa66,28/11/2001,2020-09-02_12h32.51.602,proactive3.1,2020.1.2,Win32,60,5f47c29a48bd2a1e651a6eb7,5f4f824d7fc3a50331486a68,3,,,,,,dice,,,,,,,,,,,4,1,0,49,49,36,1,,,,,,,,,,,,,,,,,,,,,,,,,,,,,,,,,,,,,,,,,,,,,,,,,,,,,,,,,,,,,,,,,,,,,,,,,,,,,,,,,,,,,,,,,,,,,,,,,,,,,,,,
,,?,0.00037,0,,,,,,stimuli/images/PICTURE_380.png,HONEY,5e6e6e101ffcd2431104aa66,28/11/2001,2020-09-02_12h32.51.602,proactive3.1,2020.1.2,Win32,60,5f47c29a48bd2a1e651a6eb7,5f4f824d7fc3a50331486a68,3,,,,,,gorilla,,,,,,,,,,,2,1,0,50,50,19,1,,,,,,,,,,,,,,,,,,,,,,,,,,,,,,,,,,,,,,,,,,,,,,,,,,,,,,,,,,,,,,,,,,,,,,,,,,,,,,,,,,,,,,,,,,,,,,,,,,,,,,,,
,,?,0.00049,0,,,,,,stimuli/images/PICTURE_467.png,POLICY,5e6e6e101ffcd2431104aa66,28/11/2001,2020-09-02_12h32.51.602,proactive3.1,2020.1.2,Win32,60,5f47c29a48bd2a1e651a6eb7,5f4f824d7fc3a50331486a68,3,,,,,,peg,,,,,,,,,,,6,1,0,51,51,53,1,,,,,,,,,,,,,,,,,,,,,,,,,,,,,,,,,,,,,,,,,,,,,,,,,,,,,,,,,,,,,,,,,,,,,,,,,,,,,,,,,,,,,,,,,,,,,,,,,,,,,,,,
,,?,0.00037,0,,,,,,stimuli/images/PICTURE_504.png,YEAR,5e6e6e101ffcd2431104aa66,28/11/2001,2020-09-02_12h32.51.602,proactive3.1,2020.1.2,Win32,60,5f47c29a48bd2a1e651a6eb7,5f4f824d7fc3a50331486a68,3,,,,,,wheel,,,,,,,,,,,2,1,0,52,52,13,1,,,,,,,,,,,,,,,,,,,,,,,,,,,,,,,,,,,,,,,,,,,,,,,,,,,,,,,,,,,,,,,,,,,,,,,,,,,,,,,,,,,,,,,,,,,,,,,,,,,,,,,,
,,?,0.000405,0,,,,,,stimuli/images/PICTURE_32.png,KIND,5e6e6e101ffcd2431104aa66,28/11/2001,2020-09-02_12h32.51.602,proactive3.1,2020.1.2,Win32,60,5f47c29a48bd2a1e651a6eb7,5f4f824d7fc3a50331486a68,3,,,,,,crown,,,,,,,,,,,4,1,0,53,53,35,1,,,,,,,,,,,,,,,,,,,,,,,,,,,,,,,,,,,,,,,,,,,,,,,,,,,,,,,,,,,,,,,,,,,,,,,,,,,,,,,,,,,,,,,,,,,,,,,,,,,,,,,,
,,YEAR,2.607645,1,,,,,,stimuli/images/PICTURE_147.png,YEAR,5e6e6e101ffcd2431104aa66,28/11/2001,2020-09-02_12h32.51.602,proactive3.1,2020.1.2,Win32,60,5f47c29a48bd2a1e651a6eb7,5f4f824d7fc3a50331486a68,3,,,,,,hanger,,,,,,,,,,,3,1,0,54,54,21,1,,,,,,,,,,,,,,,,,,,,,,,,,,,,,,,,,,,,,,,,,,,,,,,,,,,,,,,,,,,,,,,,,,,,,,,,,,,,,,,,,,,,,,,,,,,,,,,,,,,,,,,,
,,?,0.000605,0,,,,,,stimuli/images/PICTURE_491.png,GLASS,5e6e6e101ffcd2431104aa66,28/11/2001,2020-09-02_12h32.51.602,proactive3.1,2020.1.2,Win32,60,5f47c29a48bd2a1e651a6eb7,5f4f824d7fc3a50331486a68,3,,,,,,rug,,,,,,,,,,,2,1,0,55,55,14,1,,,,,,,,,,,,,,,,,,,,,,,,,,,,,,,,,,,,,,,,,,,,,,,,,,,,,,,,,,,,,,,,,,,,,,,,,,,,,,,,,,,,,,,,,,,,,,,,,,,,,,,,
,,?,0.00054,0,,,,,,stimuli/images/PICTURE_491.png,RIVER,5e6e6e101ffcd2431104aa66,28/11/2001,2020-09-02_12h32.51.602,proactive3.1,2020.1.2,Win32,60,5f47c29a48bd2a1e651a6eb7,5f4f824d7fc3a50331486a68,3,,,,,,rug,,,,,,,,,,,1,1,0,56,56,6,1,,,,,,,,,,,,,,,,,,,,,,,,,,,,,,,,,,,,,,,,,,,,,,,,,,,,,,,,,,,,,,,,,,,,,,,,,,,,,,,,,,,,,,,,,,,,,,,,,,,,,,,,
,,?,0.00051,0,,,,,,stimuli/images/PICTURE_108.png,FLIGHT,5e6e6e101ffcd2431104aa66,28/11/2001,2020-09-02_12h32.51.602,proactive3.1,2020.1.2,Win32,60,5f47c29a48bd2a1e651a6eb7,5f4f824d7fc3a50331486a68,3,,,,,,calendar,,,,,,,,,,,6,1,0,57,57,59,1,,,,,,,,,,,,,,,,,,,,,,,,,,,,,,,,,,,,,,,,,,,,,,,,,,,,,,,,,,,,,,,,,,,,,,,,,,,,,,,,,,,,,,,,,,,,,,,,,,,,,,,,
,,?,0.000425,0,,,,,,stimuli/images/PICTURE_68.png,ROOF,5e6e6e101ffcd2431104aa66,28/11/2001,2020-09-02_12h32.51.602,proactive3.1,2020.1.2,Win32,60,5f47c29a48bd2a1e651a6eb7,5f4f824d7fc3a50331486a68,3,,,,,,candle,,,,,,,,,,,4,1,0,58,58,38,1,,,,,,,,,,,,,,,,,,,,,,,,,,,,,,,,,,,,,,,,,,,,,,,,,,,,,,,,,,,,,,,,,,,,,,,,,,,,,,,,,,,,,,,,,,,,,,,,,,,,,,,,
,,?,0.00034,0,,,,,,stimuli/images/PICTURE_449.png,DUDE,5e6e6e101ffcd2431104aa66,28/11/2001,2020-09-02_12h32.51.602,proactive3.1,2020.1.2,Win32,60,5f47c29a48bd2a1e651a6eb7,5f4f824d7fc3a50331486a68,3,,,,,,bench,,,,,,,,,,,2,1,0,59,59,17,1,,,,,,,,,,,,,,,,,,,,,,,,,,,,,,,,,,,,,,,,,,,,,,,,,,,,,,,,,,,,,,,,,,,,,,,,,,,,,,,,,,,,,,,,,,,,,,,,,,,,,,,,
,,,,,,,,,,,,5e6e6e101ffcd2431104aa66,28/11/2001,2020-09-02_12h32.51.602,proactive3.1,2020.1.2,Win32,60,5f47c29a48bd2a1e651a6eb7,5f4f824d7fc3a50331486a68,3,,,,,,,,,,,,,,,,,,,,,,,,0,1,1,1,1,stimuli/learn-block2.csv,,,,,,,,,,,,,,,,,,,,,,,,,,,,,,,,,,,,,,,,,,,,,,,,,,,,,,,,,,,,,,,,,,,,,,,,,,,,,,,,,,,,,,,,,,,,,,,,,,
,,,,,,,,,,stimuli/images/PICTURE_208.png,SPIRIT,5e6e6e101ffcd2431104aa66,28/11/2001,2020-09-02_12h32.51.602,proactive3.1,2020.1.2,Win32,60,5f47c29a48bd2a1e651a6eb7,5f4f824d7fc3a50331486a68,3,,,,,,microphone,,,,,,0,0,0,28,1,3,2,,,,,,,,,,,,,,,,,,,,,,,,,,,,,,,,,,,,,,,,,,,,,,,,,,,,,,,,,,,,,,,,,,,,,,,,,,,,,,,,,,,,,,,,,,,,,,,,,,,,,,,,,,,,,
,,,,,,,,,,stimuli/images/PICTURE_255.png,PENNY,5e6e6e101ffcd2431104aa66,28/11/2001,2020-09-02_12h32.51.602,proactive3.1,2020.1.2,Win32,60,5f47c29a48bd2a1e651a6eb7,5f4f824d7fc3a50331486a68,3,,,,,,shovel,,,,,,0,1,1,19,1,2,2,,,,,,,,,,,,,,,,,,,,,,,,,,,,,,,,,,,,,,,,,,,,,,,,,,,,,,,,,,,,,,,,,,,,,,,,,,,,,,,,,,,,,,,,,,,,,,,,,,,,,,,,,,,,,
,,,,,,,,,,stimuli/images/PICTURE_509.png,MILLER,5e6e6e101ffcd2431104aa66,28/11/2001,2020-09-02_12h32.51.602,proactive3.1,2020.1.2,Win32,60,5f47c29a48bd2a1e651a6eb7,5f4f824d7fc3a50331486a68,3,,,,,,telephone,,,,,,0,2,2,49,1,5,2,,,,,,,,,,,,,,,,,,,,,,,,,,,,,,,,,,,,,,,,,,,,,,,,,,,,,,,,,,,,,,,,,,,,,,,,,,,,,,,,,,,,,,,,,,,,,,,,,,,,,,,,,,,,,
,,,,,,,,,,stimuli/images/PICTURE_311.png,TOILET,5e6e6e101ffcd2431104aa66,28/11/2001,2020-09-02_12h32.51.602,proactive3.1,2020.1.2,Win32,60,5f47c29a48bd2a1e651a6eb7,5f4f824d7fc3a50331486a68,3,,,,,,razor,,,,,,0,3,3,54,1,6,2,,,,,,,,,,,,,,,,,,,,,,,,,,,,,,,,,,,,,,,,,,,,,,,,,,,,,,,,,,,,,,,,,,,,,,,,,,,,,,,,,,,,,,,,,,,,,,,,,,,,,,,,,,,,,
,,,,,,,,,,stimuli/images/PICTURE_677.png,PHOTO,5e6e6e101ffcd2431104aa66,28/11/2001,2020-09-02_12h32.51.602,proactive3.1,2020.1.2,Win32,60,5f47c29a48bd2a1e651a6eb7,5f4f824d7fc3a50331486a68,3,,,,,,map,,,,,,0,4,4,14,1,2,2,,,,,,,,,,,,,,,,,,,,,,,,,,,,,,,,,,,,,,,,,,,,,,,,,,,,,,,,,,,,,,,,,,,,,,,,,,,,,,,,,,,,,,,,,,,,,,,,,,,,,,,,,,,,,
,,,,,,,,,,stimuli/images/PICTURE_95.png,NIGHT,5e6e6e101ffcd2431104aa66,28/11/2001,2020-09-02_12h32.51.602,proactive3.1,2020.1.2,Win32,60,5f47c29a48bd2a1e651a6eb7,5f4f824d7fc3a50331486a68,3,,,,,,suitcase,,,,,,0,5,5,37,1,4,2,,,,,,,,,,,,,,,,,,,,,,,,,,,,,,,,,,,,,,,,,,,,,,,,,,,,,,,,,,,,,,,,,,,,,,,,,,,,,,,,,,,,,,,,,,,,,,,,,,,,,,,,,,,,,
,,,,,,,,,,stimuli/images/PICTURE_33.png,COPS,5e6e6e101ffcd2431104aa66,28/11/2001,2020-09-02_12h32.51.602,proactive3.1,2020.1.2,Win32,60,5f47c29a48bd2a1e651a6eb7,5f4f824d7fc3a50331486a68,3,,,,,,frame,,,,,,0,6,6,29,1,3,2,,,,,,,,,,,,,,,,,,,,,,,,,,,,,,,,,,,,,,,,,,,,,,,,,,,,,,,,,,,,,,,,,,,,,,,,,,,,,,,,,,,,,,,,,,,,,,,,,,,,,,,,,,,,,
,,,,,,,,,,stimuli/images/PICTURE_327.png,LEADER,5e6e6e101ffcd2431104aa66,28/11/2001,2020-09-02_12h32.51.602,proactive3.1,2020.1.2,Win32,60,5f47c29a48bd2a1e651a6eb7,5f4f824d7fc3a50331486a68,3,,,,,,helmet,,,,,,0,7,7,17,1,2,2,,,,,,,,,,,,,,,,,,,,,,,,,,,,,,,,,,,,,,,,,,,,,,,,,,,,,,,,,,,,,,,,,,,,,,,,,,,,,,,,,,,,,,,,,,,,,,,,,,,,,,,,,,,,,
,,,,,,,,,,stimuli/images/PICTURE_356.png,CANDY,5e6e6e101ffcd2431104aa66,28/11/2001,2020-09-02_12h32.51.602,proactive3.1,2020.1.2,Win32,60,5f47c29a48bd2a1e651a6eb7,5f4f824d7fc3a50331486a68,3,,,,,,pawn,,,,,,0,8,8,46,1,5,2,,,,,,,,,,,,,,,,,,,,,,,,,,,,,,,,,,,,,,,,,,,,,,,,,,,,,,,,,,,,,,,,,,,,,,,,,,,,,,,,,,,,,,,,,,,,,,,,,,,,,,,,,,,,,
,,,,,,,,,,stimuli/images/PICTURE_2.png,AREA,5e6e6e101ffcd2431104aa66,28/11/2001,2020-09-02_12h32.51.602,proactive3.1,2020.1.2,Win32,60,5f47c29a48bd2a1e651a6eb7,5f4f824d7fc3a50331486a68,3,,,,,,tyre,,,,,,0,9,9,32,1,4,2,,,,,,,,,,,,,,,,,,,,,,,,,,,,,,,,,,,,,,,,,,,,,,,,,,,,,,,,,,,,,,,,,,,,,,,,,,,,,,,,,,,,,,,,,,,,,,,,,,,,,,,,,,,,,
,,,,,,,,,,stimuli/images/PICTURE_491.png,SERIES,5e6e6e101ffcd2431104aa66,28/11/2001,2020-09-02_12h32.51.602,proactive3.1,2020.1.2,Win32,60,5f47c29a48bd2a1e651a6eb7,5f4f824d7fc3a50331486a68,3,,,,,,rug,,,,,,0,10,10,39,1,4,2,,,,,,,,,,,,,,,,,,,,,,,,,,,,,,,,,,,,,,,,,,,,,,,,,,,,,,,,,,,,,,,,,,,,,,,,,,,,,,,,,,,,,,,,,,,,,,,,,,,,,,,,,,,,,
,,,,,,,,,,stimuli/images/PICTURE_32.png,LETTER,5e6e6e101ffcd2431104aa66,28/11/2001,2020-09-02_12h32.51.602,proactive3.1,2020.1.2,Win32,60,5f47c29a48bd2a1e651a6eb7,5f4f824d7fc3a50331486a68,3,,,,,,crown,,,,,,0,11,11,56,1,6,2,,,,,,,,,,,,,,,,,,,,,,,,,,,,,,,,,,,,,,,,,,,,,,,,,,,,,,,,,,,,,,,,,,,,,,,,,,,,,,,,,,,,,,,,,,,,,,,,,,,,,,,,,,,,,
,,,,,,,,,,stimuli/images/PICTURE_654.png,COPS,5e6e6e101ffcd2431104aa66,28/11/2001,2020-09-02_12h32.51.602,proactive3.1,2020.1.2,Win32,60,5f47c29a48bd2a1e651a6eb7,5f4f824d7fc3a50331486a68,3,,,,,,pencil,,,,,,0,12,12,10,1,2,2,,,,,,,,,,,,,,,,,,,,,,,,,,,,,,,,,,,,,,,,,,,,,,,,,,,,,,,,,,,,,,,,,,,,,,,,,,,,,,,,,,,,,,,,,,,,,,,,,,,,,,,,,,,,,
,,,,,,,,,,stimuli/images/PICTURE_403.png,FAMILY,5e6e6e101ffcd2431104aa66,28/11/2001,2020-09-02_12h32.51.602,proactive3.1,2020.1.2,Win32,60,5f47c29a48bd2a1e651a6eb7,5f4f824d7fc3a50331486a68,3,,,,,,cathedral,,,,,,0,13,13,9,1,1,2,,,,,,,,,,,,,,,,,,,,,,,,,,,,,,,,,,,,,,,,,,,,,,,,,,,,,,,,,,,,,,,,,,,,,,,,,,,,,,,,,,,,,,,,,,,,,,,,,,,,,,,,,,,,,
,,,,,,,,,,stimuli/images/PICTURE_692.png,DUDE,5e6e6e101ffcd2431104aa66,28/11/2001,2020-09-02_12h32.51.602,proactive3.1,2020.1.2,Win32,60,5f47c29a48bd2a1e651a6eb7,5f4f824d7fc3a50331486a68,3,,,,,,cherry,,,,,,0,14,14,47,1,5,2,,,,,,,,,,,,,,,,,,,,,,,,,,,,,,,,,,,,,,,,,,,,,,,,,,,,,,,,,,,,,,,,,,,,,,,,,,,,,,,,,,,,,,,,,,,,,,,,,,,,,,,,,,,,,
,,,,,,,,,,stimuli/images/PICTURE_348.png,TOILET,5e6e6e101ffcd2431104aa66,28/11/2001,2020-09-02_12h32.51.602,proactive3.1,2020.1.2,Win32,60,5f47c29a48bd2a1e651a6eb7,5f4f824d7fc3a50331486a68,3,,,,,,pepper,,,,,,0,15,15,4,1,1,2,,,,,,,,,,,,,,,,,,,,,,,,,,,,,,,,,,,,,,,,,,,,,,,,,,,,,,,,,,,,,,,,,,,,,,,,,,,,,,,,,,,,,,,,,,,,,,,,,,,,,,,,,,,,,
,,,,,,,,,,stimuli/images/PICTURE_57.png,CASINO,5e6e6e101ffcd2431104aa66,28/11/2001,2020-09-02_12h32.51.602,proactive3.1,2020.1.2,Win32,60,5f47c29a48bd2a1e651a6eb7,5f4f824d7fc3a50331486a68,3,,,,,,stamp,,,,,,0,16,16,12,1,2,2,,,,,,,,,,,,,,,,,,,,,,,,,,,,,,,,,,,,,,,,,,,,,,,,,,,,,,,,,,,,,,,,,,,,,,,,,,,,,,,,,,,,,,,,,,,,,,,,,,,,,,,,,,,,,
,,,,,,,,,,stimuli/images/PICTURE_285.png,PRINCE,5e6e6e101ffcd2431104aa66,28/11/2001,2020-09-02_12h32.51.602,proactive3.1,2020.1.2,Win32,60,5f47c29a48bd2a1e651a6eb7,5f4f824d7fc3a50331486a68,3,,,,,,carrot,,,,,,0,17,17,20,1,3,2,,,,,,,,,,,,,,,,,,,,,,,,,,,,,,,,,,,,,,,,,,,,,,,,,,,,,,,,,,,,,,,,,,,,,,,,,,,,,,,,,,,,,,,,,,,,,,,,,,,,,,,,,,,,,
,,,,,,,,,,stimuli/images/PICTURE_453.png,FAMILY,5e6e6e101ffcd2431104aa66,28/11/2001,2020-09-02_12h32.51.602,proactive3.1,2020.1.2,Win32,60,5f47c29a48bd2a1e651a6eb7,5f4f824d7fc3a50331486a68,3,,,,,,scissors,,,,,,0,18,18,48,1,5,2,,,,,,,,,,,,,,,,,,,,,,,,,,,,,,,,,,,,,,,,,,,,,,,,,,,,,,,,,,,,,,,,,,,,,,,,,,,,,,,,,,,,,,,,,,,,,,,,,,,,,,,,,,,,,
,,,,,,,,,,stimuli/images/PICTURE_452.png,COPS,5e6e6e101ffcd2431104aa66,28/11/2001,2020-09-02_12h32.51.602,proactive3.1,2020.1.2,Win32,60,5f47c29a48bd2a1e651a6eb7,5f4f824d7fc3a50331486a68,3,,,,,,watch,,,,,,0,19,19,0,1,1,2,,,,,,,,,,,,,,,,,,,,,,,,,,,,,,,,,,,,,,,,,,,,,,,,,,,,,,,,,,,,,,,,,,,,,,,,,,,,,,,,,,,,,,,,,,,,,,,,,,,,,,,,,,,,,
,,,,,,,,,,stimuli/images/PICTURE_57.png,CANDY,5e6e6e101ffcd2431104aa66,28/11/2001,2020-09-02_12h32.51.602,proactive3.1,2020.1.2,Win32,60,5f47c29a48bd2a1e651a6eb7,5f4f824d7fc3a50331486a68,3,,,,,,stamp,,,,,,0,20,20,52,1,6,2,,,,,,,,,,,,,,,,,,,,,,,,,,,,,,,,,,,,,,,,,,,,,,,,,,,,,,,,,,,,,,,,,,,,,,,,,,,,,,,,,,,,,,,,,,,,,,,,,,,,,,,,,,,,,
,,,,,,,,,,stimuli/images/PICTURE_688.png,CLOCK,5e6e6e101ffcd2431104aa66,28/11/2001,2020-09-02_12h32.51.602,proactive3.1,2020.1.2,Win32,60,5f47c29a48bd2a1e651a6eb7,5f4f824d7fc3a50331486a68,3,,,,,,runner,,,,,,0,21,21,42,1,5,2,,,,,,,,,,,,,,,,,,,,,,,,,,,,,,,,,,,,,,,,,,,,,,,,,,,,,,,,,,,,,,,,,,,,,,,,,,,,,,,,,,,,,,,,,,,,,,,,,,,,,,,,,,,,,
,,,,,,,,,,stimuli/images/PICTURE_285.png,WRITER,5e6e6e101ffcd2431104aa66,28/11/2001,2020-09-02_12h32.51.602,proactive3.1,2020.1.2,Win32,60,5f47c29a48bd2a1e651a6eb7,5f4f824d7fc3a50331486a68,3,,,,,,carrot,,,,,,0,22,22,6,1,1,2,,,,,,,,,,,,,,,,,,,,,,,,,,,,,,,,,,,,,,,,,,,,,,,,,,,,,,,,,,,,,,,,,,,,,,,,,,,,,,,,,,,,,,,,,,,,,,,,,,,,,,,,,,,,,
,,,,,,,,,,stimuli/images/PICTURE_504.png,HOUSE,5e6e6e101ffcd2431104aa66,28/11/2001,2020-09-02_12h32.51.602,proactive3.1,2020.1.2,Win32,60,5f47c29a48bd2a1e651a6eb7,5f4f824d7fc3a50331486a68,3,,,,,,wheel,,,,,,0,23,23,36,1,4,2,,,,,,,,,,,,,,,,,,,,,,,,,,,,,,,,,,,,,,,,,,,,,,,,,,,,,,,,,,,,,,,,,,,,,,,,,,,,,,,,,,,,,,,,,,,,,,,,,,,,,,,,,,,,,
,,,,,,,,,,stimuli/images/PICTURE_509.png,SHOTS,5e6e6e101ffcd2431104aa66,28/11/2001,2020-09-02_12h32.51.602,proactive3.1,2020.1.2,Win32,60,5f47c29a48bd2a1e651a6eb7,5f4f824d7fc3a50331486a68,3,,,,,,telephone,,,,,,0,24,24,7,1,1,2,,,,,,,,,,,,,,,,,,,,,,,,,,,,,,,,,,,,,,,,,,,,,,,,,,,,,,,,,,,,,,,,,,,,,,,,,,,,,,,,,,,,,,,,,,,,,,,,,,,,,,,,,,,,,
,,,,,,,,,,stimuli/images/PICTURE_297.png,BODY,5e6e6e101ffcd2431104aa66,28/11/2001,2020-09-02_12h32.51.602,proactive3.1,2020.1.2,Win32,60,5f47c29a48bd2a1e651a6eb7,5f4f824d7fc3a50331486a68,3,,,,,,aeroplane,,,,,,0,25,25,51,1,6,2,,,,,,,,,,,,,,,,,,,,,,,,,,,,,,,,,,,,,,,,,,,,,,,,,,,,,,,,,,,,,,,,,,,,,,,,,,,,,,,,,,,,,,,,,,,,,,,,,,,,,,,,,,,,,
,,,,,,,,,,stimuli/images/PICTURE_750.png,POLICY,5e6e6e101ffcd2431104aa66,28/11/2001,2020-09-02_12h32.51.602,proactive3.1,2020.1.2,Win32,60,5f47c29a48bd2a1e651a6eb7,5f4f824d7fc3a50331486a68,3,,,,,,kettle,,,,,,0,26,26,44,1,5,2,,,,,,,,,,,,,,,,,,,,,,,,,,,,,,,,,,,,,,,,,,,,,,,,,,,,,,,,,,,,,,,,,,,,,,,,,,,,,,,,,,,,,,,,,,,,,,,,,,,,,,,,,,,,,
,,,,,,,,,,stimuli/images/PICTURE_141.png,CLIENT,5e6e6e101ffcd2431104aa66,28/11/2001,2020-09-02_12h32.51.602,proactive3.1,2020.1.2,Win32,60,5f47c29a48bd2a1e651a6eb7,5f4f824d7fc3a50331486a68,3,,,,,,sunflower,,,,,,0,27,27,30,1,4,2,,,,,,,,,,,,,,,,,,,,,,,,,,,,,,,,,,,,,,,,,,,,,,,,,,,,,,,,,,,,,,,,,,,,,,,,,,,,,,,,,,,,,,,,,,,,,,,,,,,,,,,,,,,,,
,,,,,,,,,,stimuli/images/PICTURE_405.png,JUNGLE,5e6e6e101ffcd2431104aa66,28/11/2001,2020-09-02_12h32.51.602,proactive3.1,2020.1.2,Win32,60,5f47c29a48bd2a1e651a6eb7,5f4f824d7fc3a50331486a68,3,,,,,,anchor,,,,,,0,28,28,13,1,2,2,,,,,,,,,,,,,,,,,,,,,,,,,,,,,,,,,,,,,,,,,,,,,,,,,,,,,,,,,,,,,,,,,,,,,,,,,,,,,,,,,,,,,,,,,,,,,,,,,,,,,,,,,,,,,
,,,,,,,,,,stimuli/images/PICTURE_177.png,HOUSE,5e6e6e101ffcd2431104aa66,28/11/2001,2020-09-02_12h32.51.602,proactive3.1,2020.1.2,Win32,60,5f47c29a48bd2a1e651a6eb7,5f4f824d7fc3a50331486a68,3,,,,,,mushroom,,,,,,0,29,29,25,1,3,2,,,,,,,,,,,,,,,,,,,,,,,,,,,,,,,,,,,,,,,,,,,,,,,,,,,,,,,,,,,,,,,,,,,,,,,,,,,,,,,,,,,,,,,,,,,,,,,,,,,,,,,,,,,,,
,,,,,,,,,,stimuli/images/PICTURE_509.png,BATH,5e6e6e101ffcd2431104aa66,28/11/2001,2020-09-02_12h32.51.602,proactive3.1,2020.1.2,Win32,60,5f47c29a48bd2a1e651a6eb7,5f4f824d7fc3a50331486a68,3,,,,,,telephone,,,,,,0,30,30,15,1,2,2,,,,,,,,,,,,,,,,,,,,,,,,,,,,,,,,,,,,,,,,,,,,,,,,,,,,,,,,,,,,,,,,,,,,,,,,,,,,,,,,,,,,,,,,,,,,,,,,,,,,,,,,,,,,,
,,,,,,,,,,stimuli/images/PICTURE_470.png,BEAUTY,5e6e6e101ffcd2431104aa66,28/11/2001,2020-09-02_12h32.51.602,proactive3.1,2020.1.2,Win32,60,5f47c29a48bd2a1e651a6eb7,5f4f824d7fc3a50331486a68,3,,,,,,motorbike,,,,,,0,31,31,26,1,3,2,,,,,,,,,,,,,,,,,,,,,,,,,,,,,,,,,,,,,,,,,,,,,,,,,,,,,,,,,,,,,,,,,,,,,,,,,,,,,,,,,,,,,,,,,,,,,,,,,,,,,,,,,,,,,
,,,,,,,,,,stimuli/images/PICTURE_564.png,PLENTY,5e6e6e101ffcd2431104aa66,28/11/2001,2020-09-02_12h32.51.602,proactive3.1,2020.1.2,Win32,60,5f47c29a48bd2a1e651a6eb7,5f4f824d7fc3a50331486a68,3,,,,,,spoon,,,,,,0,32,32,11,1,2,2,,,,,,,,,,,,,,,,,,,,,,,,,,,,,,,,,,,,,,,,,,,,,,,,,,,,,,,,,,,,,,,,,,,,,,,,,,,,,,,,,,,,,,,,,,,,,,,,,,,,,,,,,,,,,
,,,,,,,,,,stimuli/images/PICTURE_57.png,NATION,5e6e6e101ffcd2431104aa66,28/11/2001,2020-09-02_12h32.51.602,proactive3.1,2020.1.2,Win32,60,5f47c29a48bd2a1e651a6eb7,5f4f824d7fc3a50331486a68,3,,,,,,stamp,,,,,,0,33,33,21,1,3,2,,,,,,,,,,,,,,,,,,,,,,,,,,,,,,,,,,,,,,,,,,,,,,,,,,,,,,,,,,,,,,,,,,,,,,,,,,,,,,,,,,,,,,,,,,,,,,,,,,,,,,,,,,,,,
,,,,,,,,,,stimuli/images/PICTURE_348.png,DUDE,5e6e6e101ffcd2431104aa66,28/11/2001,2020-09-02_12h32.51.602,proactive3.1,2020.1.2,Win32,60,5f47c29a48bd2a1e651a6eb7,5f4f824d7fc3a50331486a68,3,,,,,,pepper,,,,,,0,34,34,59,1,6,2,,,,,,,,,,,,,,,,,,,,,,,,,,,,,,,,,,,,,,,,,,,,,,,,,,,,,,,,,,,,,,,,,,,,,,,,,,,,,,,,,,,,,,,,,,,,,,,,,,,,,,,,,,,,,
,,,,,,,,,,stimuli/images/PICTURE_68.png,KIND,5e6e6e101ffcd2431104aa66,28/11/2001,2020-09-02_12h32.51.602,proactive3.1,2020.1.2,Win32,60,5f47c29a48bd2a1e651a6eb7,5f4f824d7fc3a50331486a68,3,,,,,,candle,,,,,,0,35,35,23,1,3,2,,,,,,,,,,,,,,,,,,,,,,,,,,,,,,,,,,,,,,,,,,,,,,,,,,,,,,,,,,,,,,,,,,,,,,,,,,,,,,,,,,,,,,,,,,,,,,,,,,,,,,,,,,,,,
,,,,,,,,,,stimuli/images/PICTURE_677.png,FAMILY,5e6e6e101ffcd2431104aa66,28/11/2001,2020-09-02_12h32.51.602,proactive3.1,2020.1.2,Win32,60,5f47c29a48bd2a1e651a6eb7,5f4f824d7fc3a50331486a68,3,,,,,,map,,,,,,0,36,36,53,1,6,2,,,,,,,,,,,,,,,,,,,,,,,,,,,,,,,,,,,,,,,,,,,,,,,,,,,,,,,,,,,,,,,,,,,,,,,,,,,,,,,,,,,,,,,,,,,,,,,,,,,,,,,,,,,,,
,,,,,,,,,,stimuli/images/PICTURE_487.png,ROOF,5e6e6e101ffcd2431104aa66,28/11/2001,2020-09-02_12h32.51.602,proactive3.1,2020.1.2,Win32,60,5f47c29a48bd2a1e651a6eb7,5f4f824d7fc3a50331486a68,3,,,,,,basket,,,,,,0,37,37,50,1,6,2,,,,,,,,,,,,,,,,,,,,,,,,,,,,,,,,,,,,,,,,,,,,,,,,,,,,,,,,,,,,,,,,,,,,,,,,,,,,,,,,,,,,,,,,,,,,,,,,,,,,,,,,,,,,,
,,,,,,,,,,stimuli/images/PICTURE_2.png,JUNGLE,5e6e6e101ffcd2431104aa66,28/11/2001,2020-09-02_12h32.51.602,proactive3.1,2020.1.2,Win32,60,5f47c29a48bd2a1e651a6eb7,5f4f824d7fc3a50331486a68,3,,,,,,tyre,,,,,,0,38,38,1,1,1,2,,,,,,,,,,,,,,,,,,,,,,,,,,,,,,,,,,,,,,,,,,,,,,,,,,,,,,,,,,,,,,,,,,,,,,,,,,,,,,,,,,,,,,,,,,,,,,,,,,,,,,,,,,,,,
