consent_key.keys,consent_key.rt,recalled,recalled_rt,recall_acc,example_recall.thisRepN,example_recall.thisTrialN,example_recall.thisN,example_recall.thisIndex,example_recall.ran,file,word,participant,please enter your date of birth (dd/mm/yyyy),date,expName,psychopyVersion,OS,frameRate,STUDY_ID,SESSION_ID,list,prac_learn_study_loop.thisRepN,prac_learn_study_loop.thisTrialN,prac_learn_study_loop.thisN,prac_learn_study_loop.thisIndex,prac_learn_study_loop.ran,image,prac_learn_test_loop.thisRepN,prac_learn_test_loop.thisTrialN,prac_learn_test_loop.thisN,prac_learn_test_loop.thisIndex,prac_learn_test_loop.ran,learn_study_loop.thisRepN,learn_study_loop.thisTrialN,learn_study_loop.thisN,learn_study_loop.thisIndex,learn_study_loop.ran,list_no,block_no,learn_test_loop.thisRepN,learn_test_loop.thisTrialN,learn_test_loop.thisN,learn_test_loop.thisIndex,learn_test_loop.ran,learn_blocks.thisRepN,learn_blocks.thisTrialN,learn_blocks.thisN,learn_blocks.thisIndex,learn_blocks.ran,block_csv,key_resp_13.keys,key_resp_13.rt,learn_blocks_loop.thisRepN,learn_blocks_loop.thisTrialN,learn_blocks_loop.thisN,learn_blocks_loop.thisIndex,learn_blocks_loop.ran,final_learn_test.thisRepN,final_learn_test.thisTrialN,final_learn_test.thisN,final_learn_test.thisIndex,final_learn_test.ran,s_im1,s_im2,s_im3,s_im4,s_im5,s_im6,s_im7,s_im8,s_im1pos,s_im2pos,s_im3pos,s_im4pos,s_im5pos,s_im6pos,s_im7pos,s_im8pos,s_tarright,search_resp.keys,search_loop.thisRepN,search_loop.thisTrialN,search_loop.thisN,search_loop.thisIndex,search_loop.ran,search_resp.rt,prac_wm_search_loop.thisRepN,prac_wm_search_loop.thisTrialN,prac_wm_search_loop.thisN,prac_wm_search_loop.thisIndex,prac_wm_search_loop.ran,prac_wm_test_loop.thisRepN,prac_wm_test_loop.thisTrialN,prac_wm_test_loop.thisN,prac_wm_test_loop.thisIndex,prac_wm_test_loop.ran,wm_recalled1,wm_recall_rt1,wm_probed1,wm_recall_acc1,wm_recalled2,wm_recall_rt2,wm_probed2,wm_recall_acc2,wm_recalled3,wm_recall_rt3,wm_probed3,wm_recall_acc3,wm_recalled4,wm_recall_rt4,wm_probed4,wm_recall_acc4,prac_wm_trial_loop.thisRepN,prac_wm_trial_loop.thisTrialN,prac_wm_trial_loop.thisN,prac_wm_trial_loop.thisIndex,prac_wm_trial_loop.ran,word1,image1,file1,item_type1,word2,image2,file2,item_type2,word4,image4,file4,item_type4,word3,image3,file3,item_type3,wm_search_loop.thisRepN,wm_search_loop.thisTrialN,wm_search_loop.thisN,wm_search_loop.thisIndex,wm_search_loop.ran,wm_test_loop.thisRepN,wm_test_loop.thisTrialN,wm_test_loop.thisN,wm_test_loop.thisIndex,wm_test_loop.ran,wm_trial_loop.thisRepN,wm_trial_loop.thisTrialN,wm_trial_loop.thisN,wm_trial_loop.thisIndex,wm_trial_loop.ran
y,12.802995,TOUGH,12.442985,1,0,0,0,0,1,stimuli/images/PICTURE_747.png,TOUGH,5ea06c67b325c90132fb5095,11/01/1946,2020-09-10_16h36.27.346,proactive3.1,2020.1.2,Win32,60,5f599a131af4471f3d752b7b,5f5a47e4c969390b893b7686,6,,,,,,,,,,,,,,,,,,,,,,,,,,,,,,,,,,,,,,,,,,,,,,,,,,,,,,,,,,,,,,,,,,,,,,,,,,,,,,,,,,,,,,,,,,,,,,,,,,,,,,,,,,,,,,,,,,,,,,,,,,,,,,,
,,,,,,,,,,stimuli/images/PICTURE_727.png,CELL,5ea06c67b325c90132fb5095,11/01/1946,2020-09-10_16h36.27.346,proactive3.1,2020.1.2,Win32,60,5f599a131af4471f3d752b7b,5f5a47e4c969390b893b7686,6,0,0,0,1,1,hose,,,,,,,,,,,,,,,,,,,,,,,,,,,,,,,,,,,,,,,,,,,,,,,,,,,,,,,,,,,,,,,,,,,,,,,,,,,,,,,,,,,,,,,,,,,,,,,,,,,,,,,,,,,,,,,,,,,,,,,,,
,,,,,,,,,,stimuli/images/PICTURE_697.png,KILLER,5ea06c67b325c90132fb5095,11/01/1946,2020-09-10_16h36.27.346,proactive3.1,2020.1.2,Win32,60,5f599a131af4471f3d752b7b,5f5a47e4c969390b893b7686,6,0,1,1,4,1,peach,,,,,,,,,,,,,,,,,,,,,,,,,,,,,,,,,,,,,,,,,,,,,,,,,,,,,,,,,,,,,,,,,,,,,,,,,,,,,,,,,,,,,,,,,,,,,,,,,,,,,,,,,,,,,,,,,,,,,,,,,
,,,,,,,,,,stimuli/images/PICTURE_269.png,GENIUS,5ea06c67b325c90132fb5095,11/01/1946,2020-09-10_16h36.27.346,proactive3.1,2020.1.2,Win32,60,5f599a131af4471f3d752b7b,5f5a47e4c969390b893b7686,6,0,2,2,0,1,chameleon,,,,,,,,,,,,,,,,,,,,,,,,,,,,,,,,,,,,,,,,,,,,,,,,,,,,,,,,,,,,,,,,,,,,,,,,,,,,,,,,,,,,,,,,,,,,,,,,,,,,,,,,,,,,,,,,,,,,,,,,,
,,,,,,,,,,stimuli/images/PICTURE_378.png,LOSS,5ea06c67b325c90132fb5095,11/01/1946,2020-09-10_16h36.27.346,proactive3.1,2020.1.2,Win32,60,5f599a131af4471f3d752b7b,5f5a47e4c969390b893b7686,6,0,3,3,2,1,lobster,,,,,,,,,,,,,,,,,,,,,,,,,,,,,,,,,,,,,,,,,,,,,,,,,,,,,,,,,,,,,,,,,,,,,,,,,,,,,,,,,,,,,,,,,,,,,,,,,,,,,,,,,,,,,,,,,,,,,,,,,
,,GENIUS,9.28187,1,,,,,,stimuli/images/PICTURE_269.png,GENIUS,5ea06c67b325c90132fb5095,11/01/1946,2020-09-10_16h36.27.346,proactive3.1,2020.1.2,Win32,60,5f599a131af4471f3d752b7b,5f5a47e4c969390b893b7686,6,,,,,,chameleon,0,0,0,0,1,,,,,,,,,,,,,,,,,,,,,,,,,,,,,,,,,,,,,,,,,,,,,,,,,,,,,,,,,,,,,,,,,,,,,,,,,,,,,,,,,,,,,,,,,,,,,,,,,,,,,,,,,,,,,,,,,,,,
,,?,10.632835,0,,,,,,stimuli/images/PICTURE_727.png,CELL,5ea06c67b325c90132fb5095,11/01/1946,2020-09-10_16h36.27.346,proactive3.1,2020.1.2,Win32,60,5f599a131af4471f3d752b7b,5f5a47e4c969390b893b7686,6,,,,,,hose,0,1,1,1,1,,,,,,,,,,,,,,,,,,,,,,,,,,,,,,,,,,,,,,,,,,,,,,,,,,,,,,,,,,,,,,,,,,,,,,,,,,,,,,,,,,,,,,,,,,,,,,,,,,,,,,,,,,,,,,,,,,,,
,,?,0.682815,0,,,,,,stimuli/images/PICTURE_658.png,DEVIL,5ea06c67b325c90132fb5095,11/01/1946,2020-09-10_16h36.27.346,proactive3.1,2020.1.2,Win32,60,5f599a131af4471f3d752b7b,5f5a47e4c969390b893b7686,6,,,,,,crow,0,2,2,3,1,,,,,,,,,,,,,,,,,,,,,,,,,,,,,,,,,,,,,,,,,,,,,,,,,,,,,,,,,,,,,,,,,,,,,,,,,,,,,,,,,,,,,,,,,,,,,,,,,,,,,,,,,,,,,,,,,,,,
,,LOSS,7.33264,1,,,,,,stimuli/images/PICTURE_378.png,LOSS,5ea06c67b325c90132fb5095,11/01/1946,2020-09-10_16h36.27.346,proactive3.1,2020.1.2,Win32,60,5f599a131af4471f3d752b7b,5f5a47e4c969390b893b7686,6,,,,,,lobster,0,3,3,2,1,,,,,,,,,,,,,,,,,,,,,,,,,,,,,,,,,,,,,,,,,,,,,,,,,,,,,,,,,,,,,,,,,,,,,,,,,,,,,,,,,,,,,,,,,,,,,,,,,,,,,,,,,,,,,,,,,,,,
,,?,11.099565,0,,,,,,stimuli/images/PICTURE_697.png,KILLER,5ea06c67b325c90132fb5095,11/01/1946,2020-09-10_16h36.27.346,proactive3.1,2020.1.2,Win32,60,5f599a131af4471f3d752b7b,5f5a47e4c969390b893b7686,6,,,,,,peach,0,4,4,4,1,,,,,,,,,,,,,,,,,,,,,,,,,,,,,,,,,,,,,,,,,,,,,,,,,,,,,,,,,,,,,,,,,,,,,,,,,,,,,,,,,,,,,,,,,,,,,,,,,,,,,,,,,,,,,,,,,,,,
,,,,,,,,,,stimuli/images/PICTURE_18.png,RIVER,5ea06c67b325c90132fb5095,11/01/1946,2020-09-10_16h36.27.346,proactive3.1,2020.1.2,Win32,60,5f599a131af4471f3d752b7b,5f5a47e4c969390b893b7686,6,,,,,,planet,,,,,,0,0,0,22,1,3,2,,,,,,,,,,,,,,,,,,,,,,,,,,,,,,,,,,,,,,,,,,,,,,,,,,,,,,,,,,,,,,,,,,,,,,,,,,,,,,,,,,,,,,,,,,,,,,,,,,,,,,,,,,,,,
,,,,,,,,,,stimuli/images/PICTURE_57.png,CASINO,5ea06c67b325c90132fb5095,11/01/1946,2020-09-10_16h36.27.346,proactive3.1,2020.1.2,Win32,60,5f599a131af4471f3d752b7b,5f5a47e4c969390b893b7686,6,,,,,,stamp,,,,,,0,1,1,12,1,2,2,,,,,,,,,,,,,,,,,,,,,,,,,,,,,,,,,,,,,,,,,,,,,,,,,,,,,,,,,,,,,,,,,,,,,,,,,,,,,,,,,,,,,,,,,,,,,,,,,,,,,,,,,,,,,
,,,,,,,,,,stimuli/images/PICTURE_327.png,LEADER,5ea06c67b325c90132fb5095,11/01/1946,2020-09-10_16h36.27.346,proactive3.1,2020.1.2,Win32,60,5f599a131af4471f3d752b7b,5f5a47e4c969390b893b7686,6,,,,,,helmet,,,,,,0,2,2,17,1,2,2,,,,,,,,,,,,,,,,,,,,,,,,,,,,,,,,,,,,,,,,,,,,,,,,,,,,,,,,,,,,,,,,,,,,,,,,,,,,,,,,,,,,,,,,,,,,,,,,,,,,,,,,,,,,,
,,,,,,,,,,stimuli/images/PICTURE_487.png,ROOF,5ea06c67b325c90132fb5095,11/01/1946,2020-09-10_16h36.27.346,proactive3.1,2020.1.2,Win32,60,5f599a131af4471f3d752b7b,5f5a47e4c969390b893b7686,6,,,,,,basket,,,,,,0,3,3,50,1,6,2,,,,,,,,,,,,,,,,,,,,,,,,,,,,,,,,,,,,,,,,,,,,,,,,,,,,,,,,,,,,,,,,,,,,,,,,,,,,,,,,,,,,,,,,,,,,,,,,,,,,,,,,,,,,,
,,,,,,,,,,stimuli/images/PICTURE_356.png,CANDY,5ea06c67b325c90132fb5095,11/01/1946,2020-09-10_16h36.27.346,proactive3.1,2020.1.2,Win32,60,5f599a131af4471f3d752b7b,5f5a47e4c969390b893b7686,6,,,,,,pawn,,,,,,0,4,4,46,1,5,2,,,,,,,,,,,,,,,,,,,,,,,,,,,,,,,,,,,,,,,,,,,,,,,,,,,,,,,,,,,,,,,,,,,,,,,,,,,,,,,,,,,,,,,,,,,,,,,,,,,,,,,,,,,,,
,,,,,,,,,,stimuli/images/PICTURE_141.png,CLIENT,5ea06c67b325c90132fb5095,11/01/1946,2020-09-10_16h36.27.346,proactive3.1,2020.1.2,Win32,60,5f599a131af4471f3d752b7b,5f5a47e4c969390b893b7686,6,,,,,,sunflower,,,,,,0,5,5,30,1,4,2,,,,,,,,,,,,,,,,,,,,,,,,,,,,,,,,,,,,,,,,,,,,,,,,,,,,,,,,,,,,,,,,,,,,,,,,,,,,,,,,,,,,,,,,,,,,,,,,,,,,,,,,,,,,,
,,,,,,,,,,stimuli/images/PICTURE_215.png,LEADER,5ea06c67b325c90132fb5095,11/01/1946,2020-09-10_16h36.27.346,proactive3.1,2020.1.2,Win32,60,5f599a131af4471f3d752b7b,5f5a47e4c969390b893b7686,6,,,,,,boot,,,,,,0,6,6,43,1,5,2,,,,,,,,,,,,,,,,,,,,,,,,,,,,,,,,,,,,,,,,,,,,,,,,,,,,,,,,,,,,,,,,,,,,,,,,,,,,,,,,,,,,,,,,,,,,,,,,,,,,,,,,,,,,,
,,,,,,,,,,stimuli/images/PICTURE_2.png,AREA,5ea06c67b325c90132fb5095,11/01/1946,2020-09-10_16h36.27.346,proactive3.1,2020.1.2,Win32,60,5f599a131af4471f3d752b7b,5f5a47e4c969390b893b7686,6,,,,,,tyre,,,,,,0,7,7,32,1,4,2,,,,,,,,,,,,,,,,,,,,,,,,,,,,,,,,,,,,,,,,,,,,,,,,,,,,,,,,,,,,,,,,,,,,,,,,,,,,,,,,,,,,,,,,,,,,,,,,,,,,,,,,,,,,,
,,,,,,,,,,stimuli/images/PICTURE_147.png,LEADER,5ea06c67b325c90132fb5095,11/01/1946,2020-09-10_16h36.27.346,proactive3.1,2020.1.2,Win32,60,5f599a131af4471f3d752b7b,5f5a47e4c969390b893b7686,6,,,,,,hanger,,,,,,0,8,8,33,1,4,2,,,,,,,,,,,,,,,,,,,,,,,,,,,,,,,,,,,,,,,,,,,,,,,,,,,,,,,,,,,,,,,,,,,,,,,,,,,,,,,,,,,,,,,,,,,,,,,,,,,,,,,,,,,,,
,,,,,,,,,,stimuli/images/PICTURE_453.png,FAMILY,5ea06c67b325c90132fb5095,11/01/1946,2020-09-10_16h36.27.346,proactive3.1,2020.1.2,Win32,60,5f599a131af4471f3d752b7b,5f5a47e4c969390b893b7686,6,,,,,,scissors,,,,,,0,9,9,48,1,5,2,,,,,,,,,,,,,,,,,,,,,,,,,,,,,,,,,,,,,,,,,,,,,,,,,,,,,,,,,,,,,,,,,,,,,,,,,,,,,,,,,,,,,,,,,,,,,,,,,,,,,,,,,,,,,
,,,,,,,,,,stimuli/images/PICTURE_405.png,HOUSE,5ea06c67b325c90132fb5095,11/01/1946,2020-09-10_16h36.27.346,proactive3.1,2020.1.2,Win32,60,5f599a131af4471f3d752b7b,5f5a47e4c969390b893b7686,6,,,,,,anchor,,,,,,0,10,10,2,1,1,2,,,,,,,,,,,,,,,,,,,,,,,,,,,,,,,,,,,,,,,,,,,,,,,,,,,,,,,,,,,,,,,,,,,,,,,,,,,,,,,,,,,,,,,,,,,,,,,,,,,,,,,,,,,,,
,,,,,,,,,,stimuli/images/PICTURE_348.png,DUDE,5ea06c67b325c90132fb5095,11/01/1946,2020-09-10_16h36.27.346,proactive3.1,2020.1.2,Win32,60,5f599a131af4471f3d752b7b,5f5a47e4c969390b893b7686,6,,,,,,pepper,,,,,,0,11,11,59,1,6,2,,,,,,,,,,,,,,,,,,,,,,,,,,,,,,,,,,,,,,,,,,,,,,,,,,,,,,,,,,,,,,,,,,,,,,,,,,,,,,,,,,,,,,,,,,,,,,,,,,,,,,,,,,,,,
,,,,,,,,,,stimuli/images/PICTURE_667.png,GLASS,5ea06c67b325c90132fb5095,11/01/1946,2020-09-10_16h36.27.346,proactive3.1,2020.1.2,Win32,60,5f599a131af4471f3d752b7b,5f5a47e4c969390b893b7686,6,,,,,,daisy,,,,,,0,12,12,27,1,3,2,,,,,,,,,,,,,,,,,,,,,,,,,,,,,,,,,,,,,,,,,,,,,,,,,,,,,,,,,,,,,,,,,,,,,,,,,,,,,,,,,,,,,,,,,,,,,,,,,,,,,,,,,,,,,
,,,,,,,,,,stimuli/images/PICTURE_311.png,FLESH,5ea06c67b325c90132fb5095,11/01/1946,2020-09-10_16h36.27.346,proactive3.1,2020.1.2,Win32,60,5f599a131af4471f3d752b7b,5f5a47e4c969390b893b7686,6,,,,,,razor,,,,,,0,13,13,3,1,1,2,,,,,,,,,,,,,,,,,,,,,,,,,,,,,,,,,,,,,,,,,,,,,,,,,,,,,,,,,,,,,,,,,,,,,,,,,,,,,,,,,,,,,,,,,,,,,,,,,,,,,,,,,,,,,
,,,,,,,,,,stimuli/images/PICTURE_509.png,APPLE,5ea06c67b325c90132fb5095,11/01/1946,2020-09-10_16h36.27.346,proactive3.1,2020.1.2,Win32,60,5f599a131af4471f3d752b7b,5f5a47e4c969390b893b7686,6,,,,,,telephone,,,,,,0,14,14,38,1,4,2,,,,,,,,,,,,,,,,,,,,,,,,,,,,,,,,,,,,,,,,,,,,,,,,,,,,,,,,,,,,,,,,,,,,,,,,,,,,,,,,,,,,,,,,,,,,,,,,,,,,,,,,,,,,,
,,,,,,,,,,stimuli/images/PICTURE_405.png,JUNGLE,5ea06c67b325c90132fb5095,11/01/1946,2020-09-10_16h36.27.346,proactive3.1,2020.1.2,Win32,60,5f599a131af4471f3d752b7b,5f5a47e4c969390b893b7686,6,,,,,,anchor,,,,,,0,15,15,13,1,2,2,,,,,,,,,,,,,,,,,,,,,,,,,,,,,,,,,,,,,,,,,,,,,,,,,,,,,,,,,,,,,,,,,,,,,,,,,,,,,,,,,,,,,,,,,,,,,,,,,,,,,,,,,,,,,
,,,,,,,,,,stimuli/images/PICTURE_654.png,YEAR,5ea06c67b325c90132fb5095,11/01/1946,2020-09-10_16h36.27.346,proactive3.1,2020.1.2,Win32,60,5f599a131af4471f3d752b7b,5f5a47e4c969390b893b7686,6,,,,,,pencil,,,,,,0,16,16,41,1,5,2,,,,,,,,,,,,,,,,,,,,,,,,,,,,,,,,,,,,,,,,,,,,,,,,,,,,,,,,,,,,,,,,,,,,,,,,,,,,,,,,,,,,,,,,,,,,,,,,,,,,,,,,,,,,,
,,,,,,,,,,stimuli/images/PICTURE_57.png,NATION,5ea06c67b325c90132fb5095,11/01/1946,2020-09-10_16h36.27.346,proactive3.1,2020.1.2,Win32,60,5f599a131af4471f3d752b7b,5f5a47e4c969390b893b7686,6,,,,,,stamp,,,,,,0,17,17,21,1,3,2,,,,,,,,,,,,,,,,,,,,,,,,,,,,,,,,,,,,,,,,,,,,,,,,,,,,,,,,,,,,,,,,,,,,,,,,,,,,,,,,,,,,,,,,,,,,,,,,,,,,,,,,,,,,,
,,,,,,,,,,stimuli/images/PICTURE_452.png,COPS,5ea06c67b325c90132fb5095,11/01/1946,2020-09-10_16h36.27.346,proactive3.1,2020.1.2,Win32,60,5f599a131af4471f3d752b7b,5f5a47e4c969390b893b7686,6,,,,,,watch,,,,,,0,18,18,0,1,1,2,,,,,,,,,,,,,,,,,,,,,,,,,,,,,,,,,,,,,,,,,,,,,,,,,,,,,,,,,,,,,,,,,,,,,,,,,,,,,,,,,,,,,,,,,,,,,,,,,,,,,,,,,,,,,
,,,,,,,,,,stimuli/images/PICTURE_2.png,YARD,5ea06c67b325c90132fb5095,11/01/1946,2020-09-10_16h36.27.346,proactive3.1,2020.1.2,Win32,60,5f599a131af4471f3d752b7b,5f5a47e4c969390b893b7686,6,,,,,,tyre,,,,,,0,19,19,55,1,6,2,,,,,,,,,,,,,,,,,,,,,,,,,,,,,,,,,,,,,,,,,,,,,,,,,,,,,,,,,,,,,,,,,,,,,,,,,,,,,,,,,,,,,,,,,,,,,,,,,,,,,,,,,,,,,
,,,,,,,,,,stimuli/images/PICTURE_509.png,SHOTS,5ea06c67b325c90132fb5095,11/01/1946,2020-09-10_16h36.27.346,proactive3.1,2020.1.2,Win32,60,5f599a131af4471f3d752b7b,5f5a47e4c969390b893b7686,6,,,,,,telephone,,,,,,0,20,20,7,1,1,2,,,,,,,,,,,,,,,,,,,,,,,,,,,,,,,,,,,,,,,,,,,,,,,,,,,,,,,,,,,,,,,,,,,,,,,,,,,,,,,,,,,,,,,,,,,,,,,,,,,,,,,,,,,,,
,,,,,,,,,,stimuli/images/PICTURE_297.png,BODY,5ea06c67b325c90132fb5095,11/01/1946,2020-09-10_16h36.27.346,proactive3.1,2020.1.2,Win32,60,5f599a131af4471f3d752b7b,5f5a47e4c969390b893b7686,6,,,,,,aeroplane,,,,,,0,21,21,51,1,6,2,,,,,,,,,,,,,,,,,,,,,,,,,,,,,,,,,,,,,,,,,,,,,,,,,,,,,,,,,,,,,,,,,,,,,,,,,,,,,,,,,,,,,,,,,,,,,,,,,,,,,,,,,,,,,
,,,,,,,,,,stimuli/images/PICTURE_655.png,SALE,5ea06c67b325c90132fb5095,11/01/1946,2020-09-10_16h36.27.346,proactive3.1,2020.1.2,Win32,60,5f599a131af4471f3d752b7b,5f5a47e4c969390b893b7686,6,,,,,,megaphone,,,,,,0,22,22,57,1,6,2,,,,,,,,,,,,,,,,,,,,,,,,,,,,,,,,,,,,,,,,,,,,,,,,,,,,,,,,,,,,,,,,,,,,,,,,,,,,,,,,,,,,,,,,,,,,,,,,,,,,,,,,,,,,,
,,,,,,,,,,stimuli/images/PICTURE_564.png,PLENTY,5ea06c67b325c90132fb5095,11/01/1946,2020-09-10_16h36.27.346,proactive3.1,2020.1.2,Win32,60,5f599a131af4471f3d752b7b,5f5a47e4c969390b893b7686,6,,,,,,spoon,,,,,,0,23,23,11,1,2,2,,,,,,,,,,,,,,,,,,,,,,,,,,,,,,,,,,,,,,,,,,,,,,,,,,,,,,,,,,,,,,,,,,,,,,,,,,,,,,,,,,,,,,,,,,,,,,,,,,,,,,,,,,,,,
,,,,,,,,,,stimuli/images/PICTURE_708.png,VALLEY,5ea06c67b325c90132fb5095,11/01/1946,2020-09-10_16h36.27.346,proactive3.1,2020.1.2,Win32,60,5f599a131af4471f3d752b7b,5f5a47e4c969390b893b7686,6,,,,,,monkey,,,,,,0,24,24,45,1,5,2,,,,,,,,,,,,,,,,,,,,,,,,,,,,,,,,,,,,,,,,,,,,,,,,,,,,,,,,,,,,,,,,,,,,,,,,,,,,,,,,,,,,,,,,,,,,,,,,,,,,,,,,,,,,,
,,,,,,,,,,stimuli/images/PICTURE_403.png,FAMILY,5ea06c67b325c90132fb5095,11/01/1946,2020-09-10_16h36.27.346,proactive3.1,2020.1.2,Win32,60,5f599a131af4471f3d752b7b,5f5a47e4c969390b893b7686,6,,,,,,cathedral,,,,,,0,25,25,9,1,1,2,,,,,,,,,,,,,,,,,,,,,,,,,,,,,,,,,,,,,,,,,,,,,,,,,,,,,,,,,,,,,,,,,,,,,,,,,,,,,,,,,,,,,,,,,,,,,,,,,,,,,,,,,,,,,
,,,,,,,,,,stimuli/images/PICTURE_68.png,KIND,5ea06c67b325c90132fb5095,11/01/1946,2020-09-10_16h36.27.346,proactive3.1,2020.1.2,Win32,60,5f599a131af4471f3d752b7b,5f5a47e4c969390b893b7686,6,,,,,,candle,,,,,,0,26,26,23,1,3,2,,,,,,,,,,,,,,,,,,,,,,,,,,,,,,,,,,,,,,,,,,,,,,,,,,,,,,,,,,,,,,,,,,,,,,,,,,,,,,,,,,,,,,,,,,,,,,,,,,,,,,,,,,,,,
,,,,,,,,,,stimuli/images/PICTURE_95.png,NIGHT,5ea06c67b325c90132fb5095,11/01/1946,2020-09-10_16h36.27.346,proactive3.1,2020.1.2,Win32,60,5f599a131af4471f3d752b7b,5f5a47e4c969390b893b7686,6,,,,,,suitcase,,,,,,0,27,27,37,1,4,2,,,,,,,,,,,,,,,,,,,,,,,,,,,,,,,,,,,,,,,,,,,,,,,,,,,,,,,,,,,,,,,,,,,,,,,,,,,,,,,,,,,,,,,,,,,,,,,,,,,,,,,,,,,,,
,,,,,,,,,,stimuli/images/PICTURE_32.png,LETTER,5ea06c67b325c90132fb5095,11/01/1946,2020-09-10_16h36.27.346,proactive3.1,2020.1.2,Win32,60,5f599a131af4471f3d752b7b,5f5a47e4c969390b893b7686,6,,,,,,crown,,,,,,0,28,28,56,1,6,2,,,,,,,,,,,,,,,,,,,,,,,,,,,,,,,,,,,,,,,,,,,,,,,,,,,,,,,,,,,,,,,,,,,,,,,,,,,,,,,,,,,,,,,,,,,,,,,,,,,,,,,,,,,,,
,,,,,,,,,,stimuli/images/PICTURE_215.png,BOYS,5ea06c67b325c90132fb5095,11/01/1946,2020-09-10_16h36.27.346,proactive3.1,2020.1.2,Win32,60,5f599a131af4471f3d752b7b,5f5a47e4c969390b893b7686,6,,,,,,boot,,,,,,0,29,29,24,1,3,2,,,,,,,,,,,,,,,,,,,,,,,,,,,,,,,,,,,,,,,,,,,,,,,,,,,,,,,,,,,,,,,,,,,,,,,,,,,,,,,,,,,,,,,,,,,,,,,,,,,,,,,,,,,,,
,,,,,,,,,,stimuli/images/PICTURE_314.png,SPEECH,5ea06c67b325c90132fb5095,11/01/1946,2020-09-10_16h36.27.346,proactive3.1,2020.1.2,Win32,60,5f599a131af4471f3d752b7b,5f5a47e4c969390b893b7686,6,,,,,,perfume,,,,,,0,30,30,35,1,4,2,,,,,,,,,,,,,,,,,,,,,,,,,,,,,,,,,,,,,,,,,,,,,,,,,,,,,,,,,,,,,,,,,,,,,,,,,,,,,,,,,,,,,,,,,,,,,,,,,,,,,,,,,,,,,
,,,,,,,,,,stimuli/images/PICTURE_509.png,MILLER,5ea06c67b325c90132fb5095,11/01/1946,2020-09-10_16h36.27.346,proactive3.1,2020.1.2,Win32,60,5f599a131af4471f3d752b7b,5f5a47e4c969390b893b7686,6,,,,,,telephone,,,,,,0,31,31,49,1,5,2,,,,,,,,,,,,,,,,,,,,,,,,,,,,,,,,,,,,,,,,,,,,,,,,,,,,,,,,,,,,,,,,,,,,,,,,,,,,,,,,,,,,,,,,,,,,,,,,,,,,,,,,,,,,,
,,,,,,,,,,stimuli/images/PICTURE_93.png,GIRL,5ea06c67b325c90132fb5095,11/01/1946,2020-09-10_16h36.27.346,proactive3.1,2020.1.2,Win32,60,5f599a131af4471f3d752b7b,5f5a47e4c969390b893b7686,6,,,,,,skateboard,,,,,,0,32,32,31,1,4,2,,,,,,,,,,,,,,,,,,,,,,,,,,,,,,,,,,,,,,,,,,,,,,,,,,,,,,,,,,,,,,,,,,,,,,,,,,,,,,,,,,,,,,,,,,,,,,,,,,,,,,,,,,,,,
,,,,,,,,,,stimuli/images/PICTURE_57.png,CANDY,5ea06c67b325c90132fb5095,11/01/1946,2020-09-10_16h36.27.346,proactive3.1,2020.1.2,Win32,60,5f599a131af4471f3d752b7b,5f5a47e4c969390b893b7686,6,,,,,,stamp,,,,,,0,33,33,52,1,6,2,,,,,,,,,,,,,,,,,,,,,,,,,,,,,,,,,,,,,,,,,,,,,,,,,,,,,,,,,,,,,,,,,,,,,,,,,,,,,,,,,,,,,,,,,,,,,,,,,,,,,,,,,,,,,
,,,,,,,,,,stimuli/images/PICTURE_177.png,HOUSE,5ea06c67b325c90132fb5095,11/01/1946,2020-09-10_16h36.27.346,proactive3.1,2020.1.2,Win32,60,5f599a131af4471f3d752b7b,5f5a47e4c969390b893b7686,6,,,,,,mushroom,,,,,,0,34,34,25,1,3,2,,,,,,,,,,,,,,,,,,,,,,,,,,,,,,,,,,,,,,,,,,,,,,,,,,,,,,,,,,,,,,,,,,,,,,,,,,,,,,,,,,,,,,,,,,,,,,,,,,,,,,,,,,,,,
,,,,,,,,,,stimuli/images/PICTURE_285.png,PRINCE,5ea06c67b325c90132fb5095,11/01/1946,2020-09-10_16h36.27.346,proactive3.1,2020.1.2,Win32,60,5f599a131af4471f3d752b7b,5f5a47e4c969390b893b7686,6,,,,,,carrot,,,,,,0,35,35,20,1,3,2,,,,,,,,,,,,,,,,,,,,,,,,,,,,,,,,,,,,,,,,,,,,,,,,,,,,,,,,,,,,,,,,,,,,,,,,,,,,,,,,,,,,,,,,,,,,,,,,,,,,,,,,,,,,,
,,,,,,,,,,stimuli/images/PICTURE_470.png,MOMENT,5ea06c67b325c90132fb5095,11/01/1946,2020-09-10_16h36.27.346,proactive3.1,2020.1.2,Win32,60,5f599a131af4471f3d752b7b,5f5a47e4c969390b893b7686,6,,,,,,motorbike,,,,,,0,36,36,40,1,5,2,,,,,,,,,,,,,,,,,,,,,,,,,,,,,,,,,,,,,,,,,,,,,,,,,,,,,,,,,,,,,,,,,,,,,,,,,,,,,,,,,,,,,,,,,,,,,,,,,,,,,,,,,,,,,
,,,,,,,,,,stimuli/images/PICTURE_509.png,BATH,5ea06c67b325c90132fb5095,11/01/1946,2020-09-10_16h36.27.346,proactive3.1,2020.1.2,Win32,60,5f599a131af4471f3d752b7b,5f5a47e4c969390b893b7686,6,,,,,,telephone,,,,,,0,37,37,15,1,2,2,,,,,,,,,,,,,,,,,,,,,,,,,,,,,,,,,,,,,,,,,,,,,,,,,,,,,,,,,,,,,,,,,,,,,,,,,,,,,,,,,,,,,,,,,,,,,,,,,,,,,,,,,,,,,
,,,,,,,,,,stimuli/images/PICTURE_504.png,HOUSE,5ea06c67b325c90132fb5095,11/01/1946,2020-09-10_16h36.27.346,proactive3.1,2020.1.2,Win32,60,5f599a131af4471f3d752b7b,5f5a47e4c969390b893b7686,6,,,,,,wheel,,,,,,0,38,38,36,1,4,2,,,,,,,,,,,,,,,,,,,,,,,,,,,,,,,,,,,,,,,,,,,,,,,,,,,,,,,,,,,,,,,,,,,,,,,,,,,,,,,,,,,,,,,,,,,,,,,,,,,,,,,,,,,,,
,,,,,,,,,,stimuli/images/PICTURE_688.png,CLOCK,5ea06c67b325c90132fb5095,11/01/1946,2020-09-10_16h36.27.346,proactive3.1,2020.1.2,Win32,60,5f599a131af4471f3d752b7b,5f5a47e4c969390b893b7686,6,,,,,,runner,,,,,,0,39,39,42,1,5,2,,,,,,,,,,,,,,,,,,,,,,,,,,,,,,,,,,,,,,,,,,,,,,,,,,,,,,,,,,,,,,,,,,,,,,,,,,,,,,,,,,,,,,,,,,,,,,,,,,,,,,,,,,,,,
,,,,,,,,,,stimuli/images/PICTURE_348.png,TOILET,5ea06c67b325c90132fb5095,11/01/1946,2020-09-10_16h36.27.346,proactive3.1,2020.1.2,Win32,60,5f599a131af4471f3d752b7b,5f5a47e4c969390b893b7686,6,,,,,,pepper,,,,,,0,40,40,4,1,1,2,,,,,,,,,,,,,,,,,,,,,,,,,,,,,,,,,,,,,,,,,,,,,,,,,,,,,,,,,,,,,,,,,,,,,,,,,,,,,,,,,,,,,,,,,,,,,,,,,,,,,,,,,,,,,
,,,,,,,,,,stimuli/images/PICTURE_123.png,SALE,5ea06c67b325c90132fb5095,11/01/1946,2020-09-10_16h36.27.346,proactive3.1,2020.1.2,Win32,60,5f599a131af4471f3d752b7b,5f5a47e4c969390b893b7686,6,,,,,,dart,,,,,,0,41,41,8,1,1,2,,,,,,,,,,,,,,,,,,,,,,,,,,,,,,,,,,,,,,,,,,,,,,,,,,,,,,,,,,,,,,,,,,,,,,,,,,,,,,,,,,,,,,,,,,,,,,,,,,,,,,,,,,,,,
,,,,,,,,,,stimuli/images/PICTURE_491.png,SERIES,5ea06c67b325c90132fb5095,11/01/1946,2020-09-10_16h36.27.346,proactive3.1,2020.1.2,Win32,60,5f599a131af4471f3d752b7b,5f5a47e4c969390b893b7686,6,,,,,,rug,,,,,,0,42,42,39,1,4,2,,,,,,,,,,,,,,,,,,,,,,,,,,,,,,,,,,,,,,,,,,,,,,,,,,,,,,,,,,,,,,,,,,,,,,,,,,,,,,,,,,,,,,,,,,,,,,,,,,,,,,,,,,,,,
,,,,,,,,,,stimuli/images/PICTURE_215.png,FOOD,5ea06c67b325c90132fb5095,11/01/1946,2020-09-10_16h36.27.346,proactive3.1,2020.1.2,Win32,60,5f599a131af4471f3d752b7b,5f5a47e4c969390b893b7686,6,,,,,,boot,,,,,,0,43,43,5,1,1,2,,,,,,,,,,,,,,,,,,,,,,,,,,,,,,,,,,,,,,,,,,,,,,,,,,,,,,,,,,,,,,,,,,,,,,,,,,,,,,,,,,,,,,,,,,,,,,,,,,,,,,,,,,,,,
,,,,,,,,,,stimuli/images/PICTURE_255.png,PENNY,5ea06c67b325c90132fb5095,11/01/1946,2020-09-10_16h36.27.346,proactive3.1,2020.1.2,Win32,60,5f599a131af4471f3d752b7b,5f5a47e4c969390b893b7686,6,,,,,,shovel,,,,,,0,44,44,19,1,2,2,,,,,,,,,,,,,,,,,,,,,,,,,,,,,,,,,,,,,,,,,,,,,,,,,,,,,,,,,,,,,,,,,,,,,,,,,,,,,,,,,,,,,,,,,,,,,,,,,,,,,,,,,,,,,
,,,,,,,,,,stimuli/images/PICTURE_470.png,BEAUTY,5ea06c67b325c90132fb5095,11/01/1946,2020-09-10_16h36.27.346,proactive3.1,2020.1.2,Win32,60,5f599a131af4471f3d752b7b,5f5a47e4c969390b893b7686,6,,,,,,motorbike,,,,,,0,45,45,26,1,3,2,,,,,,,,,,,,,,,,,,,,,,,,,,,,,,,,,,,,,,,,,,,,,,,,,,,,,,,,,,,,,,,,,,,,,,,,,,,,,,,,,,,,,,,,,,,,,,,,,,,,,,,,,,,,,
,,,,,,,,,,stimuli/images/PICTURE_160.png,HOTEL,5ea06c67b325c90132fb5095,11/01/1946,2020-09-10_16h36.27.346,proactive3.1,2020.1.2,Win32,60,5f599a131af4471f3d752b7b,5f5a47e4c969390b893b7686,6,,,,,,wheelbarrow,,,,,,0,46,46,16,1,2,2,,,,,,,,,,,,,,,,,,,,,,,,,,,,,,,,,,,,,,,,,,,,,,,,,,,,,,,,,,,,,,,,,,,,,,,,,,,,,,,,,,,,,,,,,,,,,,,,,,,,,,,,,,,,,
,,,,,,,,,,stimuli/images/PICTURE_311.png,TOILET,5ea06c67b325c90132fb5095,11/01/1946,2020-09-10_16h36.27.346,proactive3.1,2020.1.2,Win32,60,5f599a131af4471f3d752b7b,5f5a47e4c969390b893b7686,6,,,,,,razor,,,,,,0,47,47,54,1,6,2,,,,,,,,,,,,,,,,,,,,,,,,,,,,,,,,,,,,,,,,,,,,,,,,,,,,,,,,,,,,,,,,,,,,,,,,,,,,,,,,,,,,,,,,,,,,,,,,,,,,,,,,,,,,,
,,,,,,,,,,stimuli/images/PICTURE_405.png,JUNGLE,5ea06c67b325c90132fb5095,11/01/1946,2020-09-10_16h36.27.346,proactive3.1,2020.1.2,Win32,60,5f599a131af4471f3d752b7b,5f5a47e4c969390b893b7686,6,,,,,,anchor,,,,,,0,48,48,58,1,6,2,,,,,,,,,,,,,,,,,,,,,,,,,,,,,,,,,,,,,,,,,,,,,,,,,,,,,,,,,,,,,,,,,,,,,,,,,,,,,,,,,,,,,,,,,,,,,,,,,,,,,,,,,,,,,
,,,,,,,,,,stimuli/images/PICTURE_2.png,JUNGLE,5ea06c67b325c90132fb5095,11/01/1946,2020-09-10_16h36.27.346,proactive3.1,2020.1.2,Win32,60,5f599a131af4471f3d752b7b,5f5a47e4c969390b893b7686,6,,,,,,tyre,,,,,,0,49,49,1,1,1,2,,,,,,,,,,,,,,,,,,,,,,,,,,,,,,,,,,,,,,,,,,,,,,,,,,,,,,,,,,,,,,,,,,,,,,,,,,,,,,,,,,,,,,,,,,,,,,,,,,,,,,,,,,,,,
,,,,,,,,,,stimuli/images/PICTURE_285.png,WRITER,5ea06c67b325c90132fb5095,11/01/1946,2020-09-10_16h36.27.346,proactive3.1,2020.1.2,Win32,60,5f599a131af4471f3d752b7b,5f5a47e4c969390b893b7686,6,,,,,,carrot,,,,,,0,50,50,6,1,1,2,,,,,,,,,,,,,,,,,,,,,,,,,,,,,,,,,,,,,,,,,,,,,,,,,,,,,,,,,,,,,,,,,,,,,,,,,,,,,,,,,,,,,,,,,,,,,,,,,,,,,,,,,,,,,
,,,,,,,,,,stimuli/images/PICTURE_487.png,POLICY,5ea06c67b325c90132fb5095,11/01/1946,2020-09-10_16h36.27.346,proactive3.1,2020.1.2,Win32,60,5f599a131af4471f3d752b7b,5f5a47e4c969390b893b7686,6,,,,,,basket,,,,,,0,51,51,34,1,4,2,,,,,,,,,,,,,,,,,,,,,,,,,,,,,,,,,,,,,,,,,,,,,,,,,,,,,,,,,,,,,,,,,,,,,,,,,,,,,,,,,,,,,,,,,,,,,,,,,,,,,,,,,,,,,
,,,,,,,,,,stimuli/images/PICTURE_692.png,DUDE,5ea06c67b325c90132fb5095,11/01/1946,2020-09-10_16h36.27.346,proactive3.1,2020.1.2,Win32,60,5f599a131af4471f3d752b7b,5f5a47e4c969390b893b7686,6,,,,,,cherry,,,,,,0,52,52,47,1,5,2,,,,,,,,,,,,,,,,,,,,,,,,,,,,,,,,,,,,,,,,,,,,,,,,,,,,,,,,,,,,,,,,,,,,,,,,,,,,,,,,,,,,,,,,,,,,,,,,,,,,,,,,,,,,,
,,,,,,,,,,stimuli/images/PICTURE_750.png,POLICY,5ea06c67b325c90132fb5095,11/01/1946,2020-09-10_16h36.27.346,proactive3.1,2020.1.2,Win32,60,5f599a131af4471f3d752b7b,5f5a47e4c969390b893b7686,6,,,,,,kettle,,,,,,0,53,53,44,1,5,2,,,,,,,,,,,,,,,,,,,,,,,,,,,,,,,,,,,,,,,,,,,,,,,,,,,,,,,,,,,,,,,,,,,,,,,,,,,,,,,,,,,,,,,,,,,,,,,,,,,,,,,,,,,,,
,,,,,,,,,,stimuli/images/PICTURE_296.png,CLOCK,5ea06c67b325c90132fb5095,11/01/1946,2020-09-10_16h36.27.346,proactive3.1,2020.1.2,Win32,60,5f599a131af4471f3d752b7b,5f5a47e4c969390b893b7686,6,,,,,,bolt,,,,,,0,54,54,18,1,2,2,,,,,,,,,,,,,,,,,,,,,,,,,,,,,,,,,,,,,,,,,,,,,,,,,,,,,,,,,,,,,,,,,,,,,,,,,,,,,,,,,,,,,,,,,,,,,,,,,,,,,,,,,,,,,
,,,,,,,,,,stimuli/images/PICTURE_654.png,COPS,5ea06c67b325c90132fb5095,11/01/1946,2020-09-10_16h36.27.346,proactive3.1,2020.1.2,Win32,60,5f599a131af4471f3d752b7b,5f5a47e4c969390b893b7686,6,,,,,,pencil,,,,,,0,55,55,10,1,2,2,,,,,,,,,,,,,,,,,,,,,,,,,,,,,,,,,,,,,,,,,,,,,,,,,,,,,,,,,,,,,,,,,,,,,,,,,,,,,,,,,,,,,,,,,,,,,,,,,,,,,,,,,,,,,
,,,,,,,,,,stimuli/images/PICTURE_677.png,PHOTO,5ea06c67b325c90132fb5095,11/01/1946,2020-09-10_16h36.27.346,proactive3.1,2020.1.2,Win32,60,5f599a131af4471f3d752b7b,5f5a47e4c969390b893b7686,6,,,,,,map,,,,,,0,56,56,14,1,2,2,,,,,,,,,,,,,,,,,,,,,,,,,,,,,,,,,,,,,,,,,,,,,,,,,,,,,,,,,,,,,,,,,,,,,,,,,,,,,,,,,,,,,,,,,,,,,,,,,,,,,,,,,,,,,
,,,,,,,,,,stimuli/images/PICTURE_208.png,SPIRIT,5ea06c67b325c90132fb5095,11/01/1946,2020-09-10_16h36.27.346,proactive3.1,2020.1.2,Win32,60,5f599a131af4471f3d752b7b,5f5a47e4c969390b893b7686,6,,,,,,microphone,,,,,,0,57,57,28,1,3,2,,,,,,,,,,,,,,,,,,,,,,,,,,,,,,,,,,,,,,,,,,,,,,,,,,,,,,,,,,,,,,,,,,,,,,,,,,,,,,,,,,,,,,,,,,,,,,,,,,,,,,,,,,,,,
,,,,,,,,,,stimuli/images/PICTURE_33.png,COPS,5ea06c67b325c90132fb5095,11/01/1946,2020-09-10_16h36.27.346,proactive3.1,2020.1.2,Win32,60,5f599a131af4471f3d752b7b,5f5a47e4c969390b893b7686,6,,,,,,frame,,,,,,0,58,58,29,1,3,2,,,,,,,,,,,,,,,,,,,,,,,,,,,,,,,,,,,,,,,,,,,,,,,,,,,,,,,,,,,,,,,,,,,,,,,,,,,,,,,,,,,,,,,,,,,,,,,,,,,,,,,,,,,,,
,,?,0.000525,0,,,,,,stimuli/images/PICTURE_285.png,WRITER,5ea06c67b325c90132fb5095,11/01/1946,2020-09-10_16h36.27.346,proactive3.1,2020.1.2,Win32,60,5f599a131af4471f3d752b7b,5f5a47e4c969390b893b7686,6,,,,,,carrot,,,,,,,,,,,1,2,0,0,0,6,1,,,,,,,,,,,,,,,,,,,,,,,,,,,,,,,,,,,,,,,,,,,,,,,,,,,,,,,,,,,,,,,,,,,,,,,,,,,,,,,,,,,,,,,,,,,,,,,,,,,,,,,,
,,?,0.000275,0,,,,,,stimuli/images/PICTURE_255.png,PENNY,5ea06c67b325c90132fb5095,11/01/1946,2020-09-10_16h36.27.346,proactive3.1,2020.1.2,Win32,60,5f599a131af4471f3d752b7b,5f5a47e4c969390b893b7686,6,,,,,,shovel,,,,,,,,,,,2,2,0,1,1,19,1,,,,,,,,,,,,,,,,,,,,,,,,,,,,,,,,,,,,,,,,,,,,,,,,,,,,,,,,,,,,,,,,,,,,,,,,,,,,,,,,,,,,,,,,,,,,,,,,,,,,,,,,
,,?,0.000275,0,,,,,,stimuli/images/PICTURE_504.png,HOUSE,5ea06c67b325c90132fb5095,11/01/1946,2020-09-10_16h36.27.346,proactive3.1,2020.1.2,Win32,60,5f599a131af4471f3d752b7b,5f5a47e4c969390b893b7686,6,,,,,,wheel,,,,,,,,,,,4,2,0,2,2,36,1,,,,,,,,,,,,,,,,,,,,,,,,,,,,,,,,,,,,,,,,,,,,,,,,,,,,,,,,,,,,,,,,,,,,,,,,,,,,,,,,,,,,,,,,,,,,,,,,,,,,,,,,
,,?,0.00026,0,,,,,,stimuli/images/PICTURE_57.png,CASINO,5ea06c67b325c90132fb5095,11/01/1946,2020-09-10_16h36.27.346,proactive3.1,2020.1.2,Win32,60,5f599a131af4471f3d752b7b,5f5a47e4c969390b893b7686,6,,,,,,stamp,,,,,,,,,,,2,2,0,3,3,12,1,,,,,,,,,,,,,,,,,,,,,,,,,,,,,,,,,,,,,,,,,,,,,,,,,,,,,,,,,,,,,,,,,,,,,,,,,,,,,,,,,,,,,,,,,,,,,,,,,,,,,,,,
,,?,0.000255,0,,,,,,stimuli/images/PICTURE_215.png,FOOD,5ea06c67b325c90132fb5095,11/01/1946,2020-09-10_16h36.27.346,proactive3.1,2020.1.2,Win32,60,5f599a131af4471f3d752b7b,5f5a47e4c969390b893b7686,6,,,,,,boot,,,,,,,,,,,1,2,0,4,4,5,1,,,,,,,,,,,,,,,,,,,,,,,,,,,,,,,,,,,,,,,,,,,,,,,,,,,,,,,,,,,,,,,,,,,,,,,,,,,,,,,,,,,,,,,,,,,,,,,,,,,,,,,,
,,?,0.000275,0,,,,,,stimuli/images/PICTURE_2.png,AREA,5ea06c67b325c90132fb5095,11/01/1946,2020-09-10_16h36.27.346,proactive3.1,2020.1.2,Win32,60,5f599a131af4471f3d752b7b,5f5a47e4c969390b893b7686,6,,,,,,tyre,,,,,,,,,,,4,2,0,5,5,32,1,,,,,,,,,,,,,,,,,,,,,,,,,,,,,,,,,,,,,,,,,,,,,,,,,,,,,,,,,,,,,,,,,,,,,,,,,,,,,,,,,,,,,,,,,,,,,,,,,,,,,,,,
,,?,15.0071,0,,,,,,stimuli/images/PICTURE_348.png,DUDE,5ea06c67b325c90132fb5095,11/01/1946,2020-09-10_16h36.27.346,proactive3.1,2020.1.2,Win32,60,5f599a131af4471f3d752b7b,5f5a47e4c969390b893b7686,6,,,,,,pepper,,,,,,,,,,,6,2,0,6,6,59,1,,,,,,,,,,,,,,,,,,,,,,,,,,,,,,,,,,,,,,,,,,,,,,,,,,,,,,,,,,,,,,,,,,,,,,,,,,,,,,,,,,,,,,,,,,,,,,,,,,,,,,,,
,,?,0.000425,0,,,,,,stimuli/images/PICTURE_708.png,VALLEY,5ea06c67b325c90132fb5095,11/01/1946,2020-09-10_16h36.27.346,proactive3.1,2020.1.2,Win32,60,5f599a131af4471f3d752b7b,5f5a47e4c969390b893b7686,6,,,,,,monkey,,,,,,,,,,,5,2,0,7,7,45,1,,,,,,,,,,,,,,,,,,,,,,,,,,,,,,,,,,,,,,,,,,,,,,,,,,,,,,,,,,,,,,,,,,,,,,,,,,,,,,,,,,,,,,,,,,,,,,,,,,,,,,,,
,,?,0.00026,0,,,,,,stimuli/images/PICTURE_123.png,SALE,5ea06c67b325c90132fb5095,11/01/1946,2020-09-10_16h36.27.346,proactive3.1,2020.1.2,Win32,60,5f599a131af4471f3d752b7b,5f5a47e4c969390b893b7686,6,,,,,,dart,,,,,,,,,,,1,2,0,8,8,8,1,,,,,,,,,,,,,,,,,,,,,,,,,,,,,,,,,,,,,,,,,,,,,,,,,,,,,,,,,,,,,,,,,,,,,,,,,,,,,,,,,,,,,,,,,,,,,,,,,,,,,,,,
,,?,0.00027,0,,,,,,stimuli/images/PICTURE_147.png,LEADER,5ea06c67b325c90132fb5095,11/01/1946,2020-09-10_16h36.27.346,proactive3.1,2020.1.2,Win32,60,5f599a131af4471f3d752b7b,5f5a47e4c969390b893b7686,6,,,,,,hanger,,,,,,,,,,,4,2,0,9,9,33,1,,,,,,,,,,,,,,,,,,,,,,,,,,,,,,,,,,,,,,,,,,,,,,,,,,,,,,,,,,,,,,,,,,,,,,,,,,,,,,,,,,,,,,,,,,,,,,,,,,,,,,,,
,,?,0.00026,0,,,,,,stimuli/images/PICTURE_405.png,HOUSE,5ea06c67b325c90132fb5095,11/01/1946,2020-09-10_16h36.27.346,proactive3.1,2020.1.2,Win32,60,5f599a131af4471f3d752b7b,5f5a47e4c969390b893b7686,6,,,,,,anchor,,,,,,,,,,,1,2,0,10,10,2,1,,,,,,,,,,,,,,,,,,,,,,,,,,,,,,,,,,,,,,,,,,,,,,,,,,,,,,,,,,,,,,,,,,,,,,,,,,,,,,,,,,,,,,,,,,,,,,,,,,,,,,,,
,,?,0.00026,0,,,,,,stimuli/images/PICTURE_509.png,MILLER,5ea06c67b325c90132fb5095,11/01/1946,2020-09-10_16h36.27.346,proactive3.1,2020.1.2,Win32,60,5f599a131af4471f3d752b7b,5f5a47e4c969390b893b7686,6,,,,,,telephone,,,,,,,,,,,5,2,0,11,11,49,1,,,,,,,,,,,,,,,,,,,,,,,,,,,,,,,,,,,,,,,,,,,,,,,,,,,,,,,,,,,,,,,,,,,,,,,,,,,,,,,,,,,,,,,,,,,,,,,,,,,,,,,,
,,?,0.000275,0,,,,,,stimuli/images/PICTURE_18.png,RIVER,5ea06c67b325c90132fb5095,11/01/1946,2020-09-10_16h36.27.346,proactive3.1,2020.1.2,Win32,60,5f599a131af4471f3d752b7b,5f5a47e4c969390b893b7686,6,,,,,,planet,,,,,,,,,,,3,2,0,12,12,22,1,,,,,,,,,,,,,,,,,,,,,,,,,,,,,,,,,,,,,,,,,,,,,,,,,,,,,,,,,,,,,,,,,,,,,,,,,,,,,,,,,,,,,,,,,,,,,,,,,,,,,,,,
,,?,0.000255,0,,,,,,stimuli/images/PICTURE_564.png,PLENTY,5ea06c67b325c90132fb5095,11/01/1946,2020-09-10_16h36.27.346,proactive3.1,2020.1.2,Win32,60,5f599a131af4471f3d752b7b,5f5a47e4c969390b893b7686,6,,,,,,spoon,,,,,,,,,,,2,2,0,13,13,11,1,,,,,,,,,,,,,,,,,,,,,,,,,,,,,,,,,,,,,,,,,,,,,,,,,,,,,,,,,,,,,,,,,,,,,,,,,,,,,,,,,,,,,,,,,,,,,,,,,,,,,,,,
,,?,0.000255,0,,,,,,stimuli/images/PICTURE_348.png,TOILET,5ea06c67b325c90132fb5095,11/01/1946,2020-09-10_16h36.27.346,proactive3.1,2020.1.2,Win32,60,5f599a131af4471f3d752b7b,5f5a47e4c969390b893b7686,6,,,,,,pepper,,,,,,,,,,,1,2,0,14,14,4,1,,,,,,,,,,,,,,,,,,,,,,,,,,,,,,,,,,,,,,,,,,,,,,,,,,,,,,,,,,,,,,,,,,,,,,,,,,,,,,,,,,,,,,,,,,,,,,,,,,,,,,,,
,,?,0.00026,0,,,,,,stimuli/images/PICTURE_208.png,SPIRIT,5ea06c67b325c90132fb5095,11/01/1946,2020-09-10_16h36.27.346,proactive3.1,2020.1.2,Win32,60,5f599a131af4471f3d752b7b,5f5a47e4c969390b893b7686,6,,,,,,microphone,,,,,,,,,,,3,2,0,15,15,28,1,,,,,,,,,,,,,,,,,,,,,,,,,,,,,,,,,,,,,,,,,,,,,,,,,,,,,,,,,,,,,,,,,,,,,,,,,,,,,,,,,,,,,,,,,,,,,,,,,,,,,,,,
,,?,0.000265,0,,,,,,stimuli/images/PICTURE_688.png,CLOCK,5ea06c67b325c90132fb5095,11/01/1946,2020-09-10_16h36.27.346,proactive3.1,2020.1.2,Win32,60,5f599a131af4471f3d752b7b,5f5a47e4c969390b893b7686,6,,,,,,runner,,,,,,,,,,,5,2,0,16,16,42,1,,,,,,,,,,,,,,,,,,,,,,,,,,,,,,,,,,,,,,,,,,,,,,,,,,,,,,,,,,,,,,,,,,,,,,,,,,,,,,,,,,,,,,,,,,,,,,,,,,,,,,,,
,,?,0.00025,0,,,,,,stimuli/images/PICTURE_509.png,BATH,5ea06c67b325c90132fb5095,11/01/1946,2020-09-10_16h36.27.346,proactive3.1,2020.1.2,Win32,60,5f599a131af4471f3d752b7b,5f5a47e4c969390b893b7686,6,,,,,,telephone,,,,,,,,,,,2,2,0,17,17,15,1,,,,,,,,,,,,,,,,,,,,,,,,,,,,,,,,,,,,,,,,,,,,,,,,,,,,,,,,,,,,,,,,,,,,,,,,,,,,,,,,,,,,,,,,,,,,,,,,,,,,,,,,
,,?,0.00026,0,,,,,,stimuli/images/PICTURE_452.png,COPS,5ea06c67b325c90132fb5095,11/01/1946,2020-09-10_16h36.27.346,proactive3.1,2020.1.2,Win32,60,5f599a131af4471f3d752b7b,5f5a47e4c969390b893b7686,6,,,,,,watch,,,,,,,,,,,1,2,0,18,18,0,1,,,,,,,,,,,,,,,,,,,,,,,,,,,,,,,,,,,,,,,,,,,,,,,,,,,,,,,,,,,,,,,,,,,,,,,,,,,,,,,,,,,,,,,,,,,,,,,,,,,,,,,,
,,YARD,8.24091,1,,,,,,stimuli/images/PICTURE_2.png,YARD,5ea06c67b325c90132fb5095,11/01/1946,2020-09-10_16h36.27.346,proactive3.1,2020.1.2,Win32,60,5f599a131af4471f3d752b7b,5f5a47e4c969390b893b7686,6,,,,,,tyre,,,,,,,,,,,6,2,0,19,19,55,1,,,,,,,,,,,,,,,,,,,,,,,,,,,,,,,,,,,,,,,,,,,,,,,,,,,,,,,,,,,,,,,,,,,,,,,,,,,,,,,,,,,,,,,,,,,,,,,,,,,,,,,,
,,?,0.00049,0,,,,,,stimuli/images/PICTURE_654.png,YEAR,5ea06c67b325c90132fb5095,11/01/1946,2020-09-10_16h36.27.346,proactive3.1,2020.1.2,Win32,60,5f599a131af4471f3d752b7b,5f5a47e4c969390b893b7686,6,,,,,,pencil,,,,,,,,,,,5,2,0,20,20,41,1,,,,,,,,,,,,,,,,,,,,,,,,,,,,,,,,,,,,,,,,,,,,,,,,,,,,,,,,,,,,,,,,,,,,,,,,,,,,,,,,,,,,,,,,,,,,,,,,,,,,,,,,
,,?,0.000255,0,,,,,,stimuli/images/PICTURE_509.png,SHOTS,5ea06c67b325c90132fb5095,11/01/1946,2020-09-10_16h36.27.346,proactive3.1,2020.1.2,Win32,60,5f599a131af4471f3d752b7b,5f5a47e4c969390b893b7686,6,,,,,,telephone,,,,,,,,,,,1,2,0,21,21,7,1,,,,,,,,,,,,,,,,,,,,,,,,,,,,,,,,,,,,,,,,,,,,,,,,,,,,,,,,,,,,,,,,,,,,,,,,,,,,,,,,,,,,,,,,,,,,,,,,,,,,,,,,
,,?,0.00025,0,,,,,,stimuli/images/PICTURE_95.png,NIGHT,5ea06c67b325c90132fb5095,11/01/1946,2020-09-10_16h36.27.346,proactive3.1,2020.1.2,Win32,60,5f599a131af4471f3d752b7b,5f5a47e4c969390b893b7686,6,,,,,,suitcase,,,,,,,,,,,4,2,0,22,22,37,1,,,,,,,,,,,,,,,,,,,,,,,,,,,,,,,,,,,,,,,,,,,,,,,,,,,,,,,,,,,,,,,,,,,,,,,,,,,,,,,,,,,,,,,,,,,,,,,,,,,,,,,,
,,LETTER,8.463945,1,,,,,,stimuli/images/PICTURE_32.png,LETTER,5ea06c67b325c90132fb5095,11/01/1946,2020-09-10_16h36.27.346,proactive3.1,2020.1.2,Win32,60,5f599a131af4471f3d752b7b,5f5a47e4c969390b893b7686,6,,,,,,crown,,,,,,,,,,,6,2,0,23,23,56,1,,,,,,,,,,,,,,,,,,,,,,,,,,,,,,,,,,,,,,,,,,,,,,,,,,,,,,,,,,,,,,,,,,,,,,,,,,,,,,,,,,,,,,,,,,,,,,,,,,,,,,,,
,,?,0.00053,0,,,,,,stimuli/images/PICTURE_667.png,GLASS,5ea06c67b325c90132fb5095,11/01/1946,2020-09-10_16h36.27.346,proactive3.1,2020.1.2,Win32,60,5f599a131af4471f3d752b7b,5f5a47e4c969390b893b7686,6,,,,,,daisy,,,,,,,,,,,3,2,0,24,24,27,1,,,,,,,,,,,,,,,,,,,,,,,,,,,,,,,,,,,,,,,,,,,,,,,,,,,,,,,,,,,,,,,,,,,,,,,,,,,,,,,,,,,,,,,,,,,,,,,,,,,,,,,,
,,?,0.000275,0,,,,,,stimuli/images/PICTURE_403.png,FAMILY,5ea06c67b325c90132fb5095,11/01/1946,2020-09-10_16h36.27.346,proactive3.1,2020.1.2,Win32,60,5f599a131af4471f3d752b7b,5f5a47e4c969390b893b7686,6,,,,,,cathedral,,,,,,,,,,,1,2,0,25,25,9,1,,,,,,,,,,,,,,,,,,,,,,,,,,,,,,,,,,,,,,,,,,,,,,,,,,,,,,,,,,,,,,,,,,,,,,,,,,,,,,,,,,,,,,,,,,,,,,,,,,,,,,,,
,,FAMILY,5.21447,1,,,,,,stimuli/images/PICTURE_677.png,FAMILY,5ea06c67b325c90132fb5095,11/01/1946,2020-09-10_16h36.27.346,proactive3.1,2020.1.2,Win32,60,5f599a131af4471f3d752b7b,5f5a47e4c969390b893b7686,6,,,,,,map,,,,,,,,,,,6,2,0,26,26,53,1,,,,,,,,,,,,,,,,,,,,,,,,,,,,,,,,,,,,,,,,,,,,,,,,,,,,,,,,,,,,,,,,,,,,,,,,,,,,,,,,,,,,,,,,,,,,,,,,,,,,,,,,
,,?,0.000395,0,,,,,,stimuli/images/PICTURE_215.png,BOYS,5ea06c67b325c90132fb5095,11/01/1946,2020-09-10_16h36.27.346,proactive3.1,2020.1.2,Win32,60,5f599a131af4471f3d752b7b,5f5a47e4c969390b893b7686,6,,,,,,boot,,,,,,,,,,,3,2,0,27,27,24,1,,,,,,,,,,,,,,,,,,,,,,,,,,,,,,,,,,,,,,,,,,,,,,,,,,,,,,,,,,,,,,,,,,,,,,,,,,,,,,,,,,,,,,,,,,,,,,,,,,,,,,,,
,,?,0.000255,0,,,,,,stimuli/images/PICTURE_314.png,SPEECH,5ea06c67b325c90132fb5095,11/01/1946,2020-09-10_16h36.27.346,proactive3.1,2020.1.2,Win32,60,5f599a131af4471f3d752b7b,5f5a47e4c969390b893b7686,6,,,,,,perfume,,,,,,,,,,,4,2,0,28,28,35,1,,,,,,,,,,,,,,,,,,,,,,,,,,,,,,,,,,,,,,,,,,,,,,,,,,,,,,,,,,,,,,,,,,,,,,,,,,,,,,,,,,,,,,,,,,,,,,,,,,,,,,,,
,,?,0.00025,0,,,,,,stimuli/images/PICTURE_356.png,CANDY,5ea06c67b325c90132fb5095,11/01/1946,2020-09-10_16h36.27.346,proactive3.1,2020.1.2,Win32,60,5f599a131af4471f3d752b7b,5f5a47e4c969390b893b7686,6,,,,,,pawn,,,,,,,,,,,5,2,0,29,29,46,1,,,,,,,,,,,,,,,,,,,,,,,,,,,,,,,,,,,,,,,,,,,,,,,,,,,,,,,,,,,,,,,,,,,,,,,,,,,,,,,,,,,,,,,,,,,,,,,,,,,,,,,,
,,?,0.000245,0,,,,,,stimuli/images/PICTURE_311.png,FLESH,5ea06c67b325c90132fb5095,11/01/1946,2020-09-10_16h36.27.346,proactive3.1,2020.1.2,Win32,60,5f599a131af4471f3d752b7b,5f5a47e4c969390b893b7686,6,,,,,,razor,,,,,,,,,,,1,2,0,30,30,3,1,,,,,,,,,,,,,,,,,,,,,,,,,,,,,,,,,,,,,,,,,,,,,,,,,,,,,,,,,,,,,,,,,,,,,,,,,,,,,,,,,,,,,,,,,,,,,,,,,,,,,,,,
,,?,0.00025,0,,,,,,stimuli/images/PICTURE_470.png,BEAUTY,5ea06c67b325c90132fb5095,11/01/1946,2020-09-10_16h36.27.346,proactive3.1,2020.1.2,Win32,60,5f599a131af4471f3d752b7b,5f5a47e4c969390b893b7686,6,,,,,,motorbike,,,,,,,,,,,3,2,0,31,31,26,1,,,,,,,,,,,,,,,,,,,,,,,,,,,,,,,,,,,,,,,,,,,,,,,,,,,,,,,,,,,,,,,,,,,,,,,,,,,,,,,,,,,,,,,,,,,,,,,,,,,,,,,,
,,?,0.00024,0,,,,,,stimuli/images/PICTURE_2.png,JUNGLE,5ea06c67b325c90132fb5095,11/01/1946,2020-09-10_16h36.27.346,proactive3.1,2020.1.2,Win32,60,5f599a131af4471f3d752b7b,5f5a47e4c969390b893b7686,6,,,,,,tyre,,,,,,,,,,,1,2,0,32,32,1,1,,,,,,,,,,,,,,,,,,,,,,,,,,,,,,,,,,,,,,,,,,,,,,,,,,,,,,,,,,,,,,,,,,,,,,,,,,,,,,,,,,,,,,,,,,,,,,,,,,,,,,,,
,,?,0.000255,0,,,,,,stimuli/images/PICTURE_453.png,FAMILY,5ea06c67b325c90132fb5095,11/01/1946,2020-09-10_16h36.27.346,proactive3.1,2020.1.2,Win32,60,5f599a131af4471f3d752b7b,5f5a47e4c969390b893b7686,6,,,,,,scissors,,,,,,,,,,,5,2,0,33,33,48,1,,,,,,,,,,,,,,,,,,,,,,,,,,,,,,,,,,,,,,,,,,,,,,,,,,,,,,,,,,,,,,,,,,,,,,,,,,,,,,,,,,,,,,,,,,,,,,,,,,,,,,,,
,,?,0.000235,0,,,,,,stimuli/images/PICTURE_327.png,LEADER,5ea06c67b325c90132fb5095,11/01/1946,2020-09-10_16h36.27.346,proactive3.1,2020.1.2,Win32,60,5f599a131af4471f3d752b7b,5f5a47e4c969390b893b7686,6,,,,,,helmet,,,,,,,,,,,2,2,0,34,34,17,1,,,,,,,,,,,,,,,,,,,,,,,,,,,,,,,,,,,,,,,,,,,,,,,,,,,,,,,,,,,,,,,,,,,,,,,,,,,,,,,,,,,,,,,,,,,,,,,,,,,,,,,,
,,CARD,9.994365,0,,,,,,stimuli/images/PICTURE_57.png,CANDY,5ea06c67b325c90132fb5095,11/01/1946,2020-09-10_16h36.27.346,proactive3.1,2020.1.2,Win32,60,5f599a131af4471f3d752b7b,5f5a47e4c969390b893b7686,6,,,,,,stamp,,,,,,,,,,,6,2,0,35,35,52,1,,,,,,,,,,,,,,,,,,,,,,,,,,,,,,,,,,,,,,,,,,,,,,,,,,,,,,,,,,,,,,,,,,,,,,,,,,,,,,,,,,,,,,,,,,,,,,,,,,,,,,,,
,,?,0.000485,0,,,,,,stimuli/images/PICTURE_33.png,COPS,5ea06c67b325c90132fb5095,11/01/1946,2020-09-10_16h36.27.346,proactive3.1,2020.1.2,Win32,60,5f599a131af4471f3d752b7b,5f5a47e4c969390b893b7686,6,,,,,,frame,,,,,,,,,,,3,2,0,36,36,29,1,,,,,,,,,,,,,,,,,,,,,,,,,,,,,,,,,,,,,,,,,,,,,,,,,,,,,,,,,,,,,,,,,,,,,,,,,,,,,,,,,,,,,,,,,,,,,,,,,,,,,,,,
,,?,0.00027,0,,,,,,stimuli/images/PICTURE_677.png,PHOTO,5ea06c67b325c90132fb5095,11/01/1946,2020-09-10_16h36.27.346,proactive3.1,2020.1.2,Win32,60,5f599a131af4471f3d752b7b,5f5a47e4c969390b893b7686,6,,,,,,map,,,,,,,,,,,2,2,0,37,37,14,1,,,,,,,,,,,,,,,,,,,,,,,,,,,,,,,,,,,,,,,,,,,,,,,,,,,,,,,,,,,,,,,,,,,,,,,,,,,,,,,,,,,,,,,,,,,,,,,,,,,,,,,,
,,?,0.000255,0,,,,,,stimuli/images/PICTURE_57.png,NATION,5ea06c67b325c90132fb5095,11/01/1946,2020-09-10_16h36.27.346,proactive3.1,2020.1.2,Win32,60,5f599a131af4471f3d752b7b,5f5a47e4c969390b893b7686,6,,,,,,stamp,,,,,,,,,,,3,2,0,38,38,21,1,,,,,,,,,,,,,,,,,,,,,,,,,,,,,,,,,,,,,,,,,,,,,,,,,,,,,,,,,,,,,,,,,,,,,,,,,,,,,,,,,,,,,,,,,,,,,,,,,,,,,,,,
,,?,0.00025,0,,,,,,stimuli/images/PICTURE_177.png,HOUSE,5ea06c67b325c90132fb5095,11/01/1946,2020-09-10_16h36.27.346,proactive3.1,2020.1.2,Win32,60,5f599a131af4471f3d752b7b,5f5a47e4c969390b893b7686,6,,,,,,mushroom,,,,,,,,,,,3,2,0,39,39,25,1,,,,,,,,,,,,,,,,,,,,,,,,,,,,,,,,,,,,,,,,,,,,,,,,,,,,,,,,,,,,,,,,,,,,,,,,,,,,,,,,,,,,,,,,,,,,,,,,,,,,,,,,
,,?,0.00025,0,,,,,,stimuli/images/PICTURE_491.png,SERIES,5ea06c67b325c90132fb5095,11/01/1946,2020-09-10_16h36.27.346,proactive3.1,2020.1.2,Win32,60,5f599a131af4471f3d752b7b,5f5a47e4c969390b893b7686,6,,,,,,rug,,,,,,,,,,,4,2,0,40,40,39,1,,,,,,,,,,,,,,,,,,,,,,,,,,,,,,,,,,,,,,,,,,,,,,,,,,,,,,,,,,,,,,,,,,,,,,,,,,,,,,,,,,,,,,,,,,,,,,,,,,,,,,,,
,,BODY,10.778965,1,,,,,,stimuli/images/PICTURE_297.png,BODY,5ea06c67b325c90132fb5095,11/01/1946,2020-09-10_16h36.27.346,proactive3.1,2020.1.2,Win32,60,5f599a131af4471f3d752b7b,5f5a47e4c969390b893b7686,6,,,,,,aeroplane,,,,,,,,,,,6,2,0,41,41,51,1,,,,,,,,,,,,,,,,,,,,,,,,,,,,,,,,,,,,,,,,,,,,,,,,,,,,,,,,,,,,,,,,,,,,,,,,,,,,,,,,,,,,,,,,,,,,,,,,,,,,,,,,
,,ROOF,6.632965,1,,,,,,stimuli/images/PICTURE_487.png,ROOF,5ea06c67b325c90132fb5095,11/01/1946,2020-09-10_16h36.27.346,proactive3.1,2020.1.2,Win32,60,5f599a131af4471f3d752b7b,5f5a47e4c969390b893b7686,6,,,,,,basket,,,,,,,,,,,6,2,0,42,42,50,1,,,,,,,,,,,,,,,,,,,,,,,,,,,,,,,,,,,,,,,,,,,,,,,,,,,,,,,,,,,,,,,,,,,,,,,,,,,,,,,,,,,,,,,,,,,,,,,,,,,,,,,,
,,?,0.000485,0,,,,,,stimuli/images/PICTURE_93.png,GIRL,5ea06c67b325c90132fb5095,11/01/1946,2020-09-10_16h36.27.346,proactive3.1,2020.1.2,Win32,60,5f599a131af4471f3d752b7b,5f5a47e4c969390b893b7686,6,,,,,,skateboard,,,,,,,,,,,4,2,0,43,43,31,1,,,,,,,,,,,,,,,,,,,,,,,,,,,,,,,,,,,,,,,,,,,,,,,,,,,,,,,,,,,,,,,,,,,,,,,,,,,,,,,,,,,,,,,,,,,,,,,,,,,,,,,,
,,?,0.000245,0,,,,,,stimuli/images/PICTURE_509.png,APPLE,5ea06c67b325c90132fb5095,11/01/1946,2020-09-10_16h36.27.346,proactive3.1,2020.1.2,Win32,60,5f599a131af4471f3d752b7b,5f5a47e4c969390b893b7686,6,,,,,,telephone,,,,,,,,,,,4,2,0,44,44,38,1,,,,,,,,,,,,,,,,,,,,,,,,,,,,,,,,,,,,,,,,,,,,,,,,,,,,,,,,,,,,,,,,,,,,,,,,,,,,,,,,,,,,,,,,,,,,,,,,,,,,,,,,
,,SEAL,8.11456,0,,,,,,stimuli/images/PICTURE_655.png,SALE,5ea06c67b325c90132fb5095,11/01/1946,2020-09-10_16h36.27.346,proactive3.1,2020.1.2,Win32,60,5f599a131af4471f3d752b7b,5f5a47e4c969390b893b7686,6,,,,,,megaphone,,,,,,,,,,,6,2,0,45,45,57,1,,,,,,,,,,,,,,,,,,,,,,,,,,,,,,,,,,,,,,,,,,,,,,,,,,,,,,,,,,,,,,,,,,,,,,,,,,,,,,,,,,,,,,,,,,,,,,,,,,,,,,,,
,,?,0.00045,0,,,,,,stimuli/images/PICTURE_470.png,MOMENT,5ea06c67b325c90132fb5095,11/01/1946,2020-09-10_16h36.27.346,proactive3.1,2020.1.2,Win32,60,5f599a131af4471f3d752b7b,5f5a47e4c969390b893b7686,6,,,,,,motorbike,,,,,,,,,,,5,2,0,46,46,40,1,,,,,,,,,,,,,,,,,,,,,,,,,,,,,,,,,,,,,,,,,,,,,,,,,,,,,,,,,,,,,,,,,,,,,,,,,,,,,,,,,,,,,,,,,,,,,,,,,,,,,,,,
,,?,7.848265,0,,,,,,stimuli/images/PICTURE_405.png,JUNGLE,5ea06c67b325c90132fb5095,11/01/1946,2020-09-10_16h36.27.346,proactive3.1,2020.1.2,Win32,60,5f599a131af4471f3d752b7b,5f5a47e4c969390b893b7686,6,,,,,,anchor,,,,,,,,,,,6,2,0,47,47,58,1,,,,,,,,,,,,,,,,,,,,,,,,,,,,,,,,,,,,,,,,,,,,,,,,,,,,,,,,,,,,,,,,,,,,,,,,,,,,,,,,,,,,,,,,,,,,,,,,,,,,,,,,
,,?,0.00039,0,,,,,,stimuli/images/PICTURE_487.png,POLICY,5ea06c67b325c90132fb5095,11/01/1946,2020-09-10_16h36.27.346,proactive3.1,2020.1.2,Win32,60,5f599a131af4471f3d752b7b,5f5a47e4c969390b893b7686,6,,,,,,basket,,,,,,,,,,,4,2,0,48,48,34,1,,,,,,,,,,,,,,,,,,,,,,,,,,,,,,,,,,,,,,,,,,,,,,,,,,,,,,,,,,,,,,,,,,,,,,,,,,,,,,,,,,,,,,,,,,,,,,,,,,,,,,,,
,,?,0.00026,0,,,,,,stimuli/images/PICTURE_654.png,COPS,5ea06c67b325c90132fb5095,11/01/1946,2020-09-10_16h36.27.346,proactive3.1,2020.1.2,Win32,60,5f599a131af4471f3d752b7b,5f5a47e4c969390b893b7686,6,,,,,,pencil,,,,,,,,,,,2,2,0,49,49,10,1,,,,,,,,,,,,,,,,,,,,,,,,,,,,,,,,,,,,,,,,,,,,,,,,,,,,,,,,,,,,,,,,,,,,,,,,,,,,,,,,,,,,,,,,,,,,,,,,,,,,,,,,
,,?,0.000245,0,,,,,,stimuli/images/PICTURE_141.png,CLIENT,5ea06c67b325c90132fb5095,11/01/1946,2020-09-10_16h36.27.346,proactive3.1,2020.1.2,Win32,60,5f599a131af4471f3d752b7b,5f5a47e4c969390b893b7686,6,,,,,,sunflower,,,,,,,,,,,4,2,0,50,50,30,1,,,,,,,,,,,,,,,,,,,,,,,,,,,,,,,,,,,,,,,,,,,,,,,,,,,,,,,,,,,,,,,,,,,,,,,,,,,,,,,,,,,,,,,,,,,,,,,,,,,,,,,,
,,?,0.00025,0,,,,,,stimuli/images/PICTURE_296.png,CLOCK,5ea06c67b325c90132fb5095,11/01/1946,2020-09-10_16h36.27.346,proactive3.1,2020.1.2,Win32,60,5f599a131af4471f3d752b7b,5f5a47e4c969390b893b7686,6,,,,,,bolt,,,,,,,,,,,2,2,0,51,51,18,1,,,,,,,,,,,,,,,,,,,,,,,,,,,,,,,,,,,,,,,,,,,,,,,,,,,,,,,,,,,,,,,,,,,,,,,,,,,,,,,,,,,,,,,,,,,,,,,,,,,,,,,,
,,?,0.00024,0,,,,,,stimuli/images/PICTURE_215.png,LEADER,5ea06c67b325c90132fb5095,11/01/1946,2020-09-10_16h36.27.346,proactive3.1,2020.1.2,Win32,60,5f599a131af4471f3d752b7b,5f5a47e4c969390b893b7686,6,,,,,,boot,,,,,,,,,,,5,2,0,52,52,43,1,,,,,,,,,,,,,,,,,,,,,,,,,,,,,,,,,,,,,,,,,,,,,,,,,,,,,,,,,,,,,,,,,,,,,,,,,,,,,,,,,,,,,,,,,,,,,,,,,,,,,,,,
,,?,0.000245,0,,,,,,stimuli/images/PICTURE_68.png,KIND,5ea06c67b325c90132fb5095,11/01/1946,2020-09-10_16h36.27.346,proactive3.1,2020.1.2,Win32,60,5f599a131af4471f3d752b7b,5f5a47e4c969390b893b7686,6,,,,,,candle,,,,,,,,,,,3,2,0,53,53,23,1,,,,,,,,,,,,,,,,,,,,,,,,,,,,,,,,,,,,,,,,,,,,,,,,,,,,,,,,,,,,,,,,,,,,,,,,,,,,,,,,,,,,,,,,,,,,,,,,,,,,,,,,
,,?,10.111965,0,,,,,,stimuli/images/PICTURE_311.png,TOILET,5ea06c67b325c90132fb5095,11/01/1946,2020-09-10_16h36.27.346,proactive3.1,2020.1.2,Win32,60,5f599a131af4471f3d752b7b,5f5a47e4c969390b893b7686,6,,,,,,razor,,,,,,,,,,,6,2,0,54,54,54,1,,,,,,,,,,,,,,,,,,,,,,,,,,,,,,,,,,,,,,,,,,,,,,,,,,,,,,,,,,,,,,,,,,,,,,,,,,,,,,,,,,,,,,,,,,,,,,,,,,,,,,,,
,,?,0.000485,0,,,,,,stimuli/images/PICTURE_692.png,DUDE,5ea06c67b325c90132fb5095,11/01/1946,2020-09-10_16h36.27.346,proactive3.1,2020.1.2,Win32,60,5f599a131af4471f3d752b7b,5f5a47e4c969390b893b7686,6,,,,,,cherry,,,,,,,,,,,5,2,0,55,55,47,1,,,,,,,,,,,,,,,,,,,,,,,,,,,,,,,,,,,,,,,,,,,,,,,,,,,,,,,,,,,,,,,,,,,,,,,,,,,,,,,,,,,,,,,,,,,,,,,,,,,,,,,,
,,?,0.00025,0,,,,,,stimuli/images/PICTURE_160.png,HOTEL,5ea06c67b325c90132fb5095,11/01/1946,2020-09-10_16h36.27.346,proactive3.1,2020.1.2,Win32,60,5f599a131af4471f3d752b7b,5f5a47e4c969390b893b7686,6,,,,,,wheelbarrow,,,,,,,,,,,2,2,0,56,56,16,1,,,,,,,,,,,,,,,,,,,,,,,,,,,,,,,,,,,,,,,,,,,,,,,,,,,,,,,,,,,,,,,,,,,,,,,,,,,,,,,,,,,,,,,,,,,,,,,,,,,,,,,,
,,?,0.000245,0,,,,,,stimuli/images/PICTURE_285.png,PRINCE,5ea06c67b325c90132fb5095,11/01/1946,2020-09-10_16h36.27.346,proactive3.1,2020.1.2,Win32,60,5f599a131af4471f3d752b7b,5f5a47e4c969390b893b7686,6,,,,,,carrot,,,,,,,,,,,3,2,0,57,57,20,1,,,,,,,,,,,,,,,,,,,,,,,,,,,,,,,,,,,,,,,,,,,,,,,,,,,,,,,,,,,,,,,,,,,,,,,,,,,,,,,,,,,,,,,,,,,,,,,,,,,,,,,,
,,?,0.00025,0,,,,,,stimuli/images/PICTURE_405.png,JUNGLE,5ea06c67b325c90132fb5095,11/01/1946,2020-09-10_16h36.27.346,proactive3.1,2020.1.2,Win32,60,5f599a131af4471f3d752b7b,5f5a47e4c969390b893b7686,6,,,,,,anchor,,,,,,,,,,,2,2,0,58,58,13,1,,,,,,,,,,,,,,,,,,,,,,,,,,,,,,,,,,,,,,,,,,,,,,,,,,,,,,,,,,,,,,,,,,,,,,,,,,,,,,,,,,,,,,,,,,,,,,,,,,,,,,,,
,,?,0.000245,0,,,,,,stimuli/images/PICTURE_750.png,POLICY,5ea06c67b325c90132fb5095,11/01/1946,2020-09-10_16h36.27.346,proactive3.1,2020.1.2,Win32,60,5f599a131af4471f3d752b7b,5f5a47e4c969390b893b7686,6,,,,,,kettle,,,,,,,,,,,5,2,0,59,59,44,1,,,,,,,,,,,,,,,,,,,,,,,,,,,,,,,,,,,,,,,,,,,,,,,,,,,,,,,,,,,,,,,,,,,,,,,,,,,,,,,,,,,,,,,,,,,,,,,,,,,,,,,,
,,,,,,,,,,,,5ea06c67b325c90132fb5095,11/01/1946,2020-09-10_16h36.27.346,proactive3.1,2020.1.2,Win32,60,5f599a131af4471f3d752b7b,5f5a47e4c969390b893b7686,6,,,,,,,,,,,,,,,,,,,,,,,,0,0,0,2,1,stimuli/learn-block3.csv,,,,,,,,,,,,,,,,,,,,,,,,,,,,,,,,,,,,,,,,,,,,,,,,,,,,,,,,,,,,,,,,,,,,,,,,,,,,,,,,,,,,,,,,,,,,,,,,,,
,,,,,,,,,,stimuli/images/PICTURE_655.png,TOILET,5ea06c67b325c90132fb5095,11/01/1946,2020-09-10_16h36.27.346,proactive3.1,2020.1.2,Win32,60,5f599a131af4471f3d752b7b,5f5a47e4c969390b893b7686,6,,,,,,megaphone,,,,,,0,0,0,12,1,2,1,,,,,,,,,,,,,,,,,,,,,,,,,,,,,,,,,,,,,,,,,,,,,,,,,,,,,,,,,,,,,,,,,,,,,,,,,,,,,,,,,,,,,,,,,,,,,,,,,,,,,,,,,,,,,
,,,,,,,,,,stimuli/images/PICTURE_95.png,BOYS,5ea06c67b325c90132fb5095,11/01/1946,2020-09-10_16h36.27.346,proactive3.1,2020.1.2,Win32,60,5f599a131af4471f3d752b7b,5f5a47e4c969390b893b7686,6,,,,,,suitcase,,,,,,0,1,1,1,1,1,1,,,,,,,,,,,,,,,,,,,,,,,,,,,,,,,,,,,,,,,,,,,,,,,,,,,,,,,,,,,,,,,,,,,,,,,,,,,,,,,,,,,,,,,,,,,,,,,,,,,,,,,,,,,,,
,,,,,,,,,,stimuli/images/PICTURE_32.png,PILLS,5ea06c67b325c90132fb5095,11/01/1946,2020-09-10_16h36.27.346,proactive3.1,2020.1.2,Win32,60,5f599a131af4471f3d752b7b,5f5a47e4c969390b893b7686,6,,,,,,crown,,,,,,0,2,2,18,1,2,1,,,,,,,,,,,,,,,,,,,,,,,,,,,,,,,,,,,,,,,,,,,,,,,,,,,,,,,,,,,,,,,,,,,,,,,,,,,,,,,,,,,,,,,,,,,,,,,,,,,,,,,,,,,,,
,,,,,,,,,,stimuli/images/PICTURE_487.png,GIRL,5ea06c67b325c90132fb5095,11/01/1946,2020-09-10_16h36.27.346,proactive3.1,2020.1.2,Win32,60,5f599a131af4471f3d752b7b,5f5a47e4c969390b893b7686,6,,,,,,basket,,,,,,0,3,3,45,1,5,1,,,,,,,,,,,,,,,,,,,,,,,,,,,,,,,,,,,,,,,,,,,,,,,,,,,,,,,,,,,,,,,,,,,,,,,,,,,,,,,,,,,,,,,,,,,,,,,,,,,,,,,,,,,,,
,,,,,,,,,,stimuli/images/PICTURE_491.png,RIVER,5ea06c67b325c90132fb5095,11/01/1946,2020-09-10_16h36.27.346,proactive3.1,2020.1.2,Win32,60,5f599a131af4471f3d752b7b,5f5a47e4c969390b893b7686,6,,,,,,rug,,,,,,0,4,4,6,1,1,1,,,,,,,,,,,,,,,,,,,,,,,,,,,,,,,,,,,,,,,,,,,,,,,,,,,,,,,,,,,,,,,,,,,,,,,,,,,,,,,,,,,,,,,,,,,,,,,,,,,,,,,,,,,,,
,,,,,,,,,,stimuli/images/PICTURE_405.png,YEAR,5ea06c67b325c90132fb5095,11/01/1946,2020-09-10_16h36.27.346,proactive3.1,2020.1.2,Win32,60,5f599a131af4471f3d752b7b,5f5a47e4c969390b893b7686,6,,,,,,anchor,,,,,,0,5,5,34,1,4,1,,,,,,,,,,,,,,,,,,,,,,,,,,,,,,,,,,,,,,,,,,,,,,,,,,,,,,,,,,,,,,,,,,,,,,,,,,,,,,,,,,,,,,,,,,,,,,,,,,,,,,,,,,,,,
,,,,,,,,,,stimuli/images/PICTURE_297.png,RIVER,5ea06c67b325c90132fb5095,11/01/1946,2020-09-10_16h36.27.346,proactive3.1,2020.1.2,Win32,60,5f599a131af4471f3d752b7b,5f5a47e4c969390b893b7686,6,,,,,,aeroplane,,,,,,0,6,6,39,1,4,1,,,,,,,,,,,,,,,,,,,,,,,,,,,,,,,,,,,,,,,,,,,,,,,,,,,,,,,,,,,,,,,,,,,,,,,,,,,,,,,,,,,,,,,,,,,,,,,,,,,,,,,,,,,,,
,,,,,,,,,,stimuli/images/PICTURE_677.png,APPLE,5ea06c67b325c90132fb5095,11/01/1946,2020-09-10_16h36.27.346,proactive3.1,2020.1.2,Win32,60,5f599a131af4471f3d752b7b,5f5a47e4c969390b893b7686,6,,,,,,map,,,,,,0,7,7,43,1,5,1,,,,,,,,,,,,,,,,,,,,,,,,,,,,,,,,,,,,,,,,,,,,,,,,,,,,,,,,,,,,,,,,,,,,,,,,,,,,,,,,,,,,,,,,,,,,,,,,,,,,,,,,,,,,,
,,,,,,,,,,stimuli/images/PICTURE_504.png,COPS,5ea06c67b325c90132fb5095,11/01/1946,2020-09-10_16h36.27.346,proactive3.1,2020.1.2,Win32,60,5f599a131af4471f3d752b7b,5f5a47e4c969390b893b7686,6,,,,,,wheel,,,,,,0,8,8,52,1,6,1,,,,,,,,,,,,,,,,,,,,,,,,,,,,,,,,,,,,,,,,,,,,,,,,,,,,,,,,,,,,,,,,,,,,,,,,,,,,,,,,,,,,,,,,,,,,,,,,,,,,,,,,,,,,,
,,,,,,,,,,stimuli/images/PICTURE_296.png,LIFE,5ea06c67b325c90132fb5095,11/01/1946,2020-09-10_16h36.27.346,proactive3.1,2020.1.2,Win32,60,5f599a131af4471f3d752b7b,5f5a47e4c969390b893b7686,6,,,,,,bolt,,,,,,0,9,9,57,1,6,1,,,,,,,,,,,,,,,,,,,,,,,,,,,,,,,,,,,,,,,,,,,,,,,,,,,,,,,,,,,,,,,,,,,,,,,,,,,,,,,,,,,,,,,,,,,,,,,,,,,,,,,,,,,,,
,,,,,,,,,,stimuli/images/PICTURE_449.png,DUDE,5ea06c67b325c90132fb5095,11/01/1946,2020-09-10_16h36.27.346,proactive3.1,2020.1.2,Win32,60,5f599a131af4471f3d752b7b,5f5a47e4c969390b893b7686,6,,,,,,bench,,,,,,0,10,10,17,1,2,1,,,,,,,,,,,,,,,,,,,,,,,,,,,,,,,,,,,,,,,,,,,,,,,,,,,,,,,,,,,,,,,,,,,,,,,,,,,,,,,,,,,,,,,,,,,,,,,,,,,,,,,,,,,,,
,,,,,,,,,,stimuli/images/PICTURE_32.png,KIND,5ea06c67b325c90132fb5095,11/01/1946,2020-09-10_16h36.27.346,proactive3.1,2020.1.2,Win32,60,5f599a131af4471f3d752b7b,5f5a47e4c969390b893b7686,6,,,,,,crown,,,,,,0,11,11,35,1,4,1,,,,,,,,,,,,,,,,,,,,,,,,,,,,,,,,,,,,,,,,,,,,,,,,,,,,,,,,,,,,,,,,,,,,,,,,,,,,,,,,,,,,,,,,,,,,,,,,,,,,,,,,,,,,,
,,,,,,,,,,stimuli/images/PICTURE_147.png,YEAR,5ea06c67b325c90132fb5095,11/01/1946,2020-09-10_16h36.27.346,proactive3.1,2020.1.2,Win32,60,5f599a131af4471f3d752b7b,5f5a47e4c969390b893b7686,6,,,,,,hanger,,,,,,0,12,12,21,1,3,1,,,,,,,,,,,,,,,,,,,,,,,,,,,,,,,,,,,,,,,,,,,,,,,,,,,,,,,,,,,,,,,,,,,,,,,,,,,,,,,,,,,,,,,,,,,,,,,,,,,,,,,,,,,,,
,,,,,,,,,,stimuli/images/PICTURE_380.png,CANDY,5ea06c67b325c90132fb5095,11/01/1946,2020-09-10_16h36.27.346,proactive3.1,2020.1.2,Win32,60,5f599a131af4471f3d752b7b,5f5a47e4c969390b893b7686,6,,,,,,gorilla,,,,,,0,13,13,0,1,1,1,,,,,,,,,,,,,,,,,,,,,,,,,,,,,,,,,,,,,,,,,,,,,,,,,,,,,,,,,,,,,,,,,,,,,,,,,,,,,,,,,,,,,,,,,,,,,,,,,,,,,,,,,,,,,
,,,,,,,,,,stimuli/images/PICTURE_403.png,TOILET,5ea06c67b325c90132fb5095,11/01/1946,2020-09-10_16h36.27.346,proactive3.1,2020.1.2,Win32,60,5f599a131af4471f3d752b7b,5f5a47e4c969390b893b7686,6,,,,,,cathedral,,,,,,0,14,14,25,1,3,1,,,,,,,,,,,,,,,,,,,,,,,,,,,,,,,,,,,,,,,,,,,,,,,,,,,,,,,,,,,,,,,,,,,,,,,,,,,,,,,,,,,,,,,,,,,,,,,,,,,,,,,,,,,,,
,,,,,,,,,,stimuli/images/PICTURE_383.png,SERIES,5ea06c67b325c90132fb5095,11/01/1946,2020-09-10_16h36.27.346,proactive3.1,2020.1.2,Win32,60,5f599a131af4471f3d752b7b,5f5a47e4c969390b893b7686,6,,,,,,coin,,,,,,0,15,15,46,1,5,1,,,,,,,,,,,,,,,,,,,,,,,,,,,,,,,,,,,,,,,,,,,,,,,,,,,,,,,,,,,,,,,,,,,,,,,,,,,,,,,,,,,,,,,,,,,,,,,,,,,,,,,,,,,,,
,,,,,,,,,,stimuli/images/PICTURE_2.png,FLIGHT,5ea06c67b325c90132fb5095,11/01/1946,2020-09-10_16h36.27.346,proactive3.1,2020.1.2,Win32,60,5f599a131af4471f3d752b7b,5f5a47e4c969390b893b7686,6,,,,,,tyre,,,,,,0,16,16,15,1,2,1,,,,,,,,,,,,,,,,,,,,,,,,,,,,,,,,,,,,,,,,,,,,,,,,,,,,,,,,,,,,,,,,,,,,,,,,,,,,,,,,,,,,,,,,,,,,,,,,,,,,,,,,,,,,,
,,,,,,,,,,stimuli/images/PICTURE_744.png,WEAPON,5ea06c67b325c90132fb5095,11/01/1946,2020-09-10_16h36.27.346,proactive3.1,2020.1.2,Win32,60,5f599a131af4471f3d752b7b,5f5a47e4c969390b893b7686,6,,,,,,ring,,,,,,0,17,17,50,1,6,1,,,,,,,,,,,,,,,,,,,,,,,,,,,,,,,,,,,,,,,,,,,,,,,,,,,,,,,,,,,,,,,,,,,,,,,,,,,,,,,,,,,,,,,,,,,,,,,,,,,,,,,,,,,,,
,,,,,,,,,,stimuli/images/PICTURE_467.png,POLICY,5ea06c67b325c90132fb5095,11/01/1946,2020-09-10_16h36.27.346,proactive3.1,2020.1.2,Win32,60,5f599a131af4471f3d752b7b,5f5a47e4c969390b893b7686,6,,,,,,peg,,,,,,0,18,18,53,1,6,1,,,,,,,,,,,,,,,,,,,,,,,,,,,,,,,,,,,,,,,,,,,,,,,,,,,,,,,,,,,,,,,,,,,,,,,,,,,,,,,,,,,,,,,,,,,,,,,,,,,,,,,,,,,,,
,,,,,,,,,,stimuli/images/PICTURE_708.png,RECORD,5ea06c67b325c90132fb5095,11/01/1946,2020-09-10_16h36.27.346,proactive3.1,2020.1.2,Win32,60,5f599a131af4471f3d752b7b,5f5a47e4c969390b893b7686,6,,,,,,monkey,,,,,,0,19,19,58,1,6,1,,,,,,,,,,,,,,,,,,,,,,,,,,,,,,,,,,,,,,,,,,,,,,,,,,,,,,,,,,,,,,,,,,,,,,,,,,,,,,,,,,,,,,,,,,,,,,,,,,,,,,,,,,,,,
,,,,,,,,,,stimuli/images/PICTURE_308.png,FAMILY,5ea06c67b325c90132fb5095,11/01/1946,2020-09-10_16h36.27.346,proactive3.1,2020.1.2,Win32,60,5f599a131af4471f3d752b7b,5f5a47e4c969390b893b7686,6,,,,,,dice,,,,,,0,20,20,36,1,4,1,,,,,,,,,,,,,,,,,,,,,,,,,,,,,,,,,,,,,,,,,,,,,,,,,,,,,,,,,,,,,,,,,,,,,,,,,,,,,,,,,,,,,,,,,,,,,,,,,,,,,,,,,,,,,
,,,,,,,,,,stimuli/images/PICTURE_203.png,NIGHT,5ea06c67b325c90132fb5095,11/01/1946,2020-09-10_16h36.27.346,proactive3.1,2020.1.2,Win32,60,5f599a131af4471f3d752b7b,5f5a47e4c969390b893b7686,6,,,,,,cap,,,,,,0,21,21,2,1,1,1,,,,,,,,,,,,,,,,,,,,,,,,,,,,,,,,,,,,,,,,,,,,,,,,,,,,,,,,,,,,,,,,,,,,,,,,,,,,,,,,,,,,,,,,,,,,,,,,,,,,,,,,,,,,,
,,,,,,,,,,stimuli/images/PICTURE_95.png,MILLER,5ea06c67b325c90132fb5095,11/01/1946,2020-09-10_16h36.27.346,proactive3.1,2020.1.2,Win32,60,5f599a131af4471f3d752b7b,5f5a47e4c969390b893b7686,6,,,,,,suitcase,,,,,,0,22,22,56,1,6,1,,,,,,,,,,,,,,,,,,,,,,,,,,,,,,,,,,,,,,,,,,,,,,,,,,,,,,,,,,,,,,,,,,,,,,,,,,,,,,,,,,,,,,,,,,,,,,,,,,,,,,,,,,,,,
,,,,,,,,,,stimuli/images/PICTURE_405.png,PLENTY,5ea06c67b325c90132fb5095,11/01/1946,2020-09-10_16h36.27.346,proactive3.1,2020.1.2,Win32,60,5f599a131af4471f3d752b7b,5f5a47e4c969390b893b7686,6,,,,,,anchor,,,,,,0,23,23,23,1,3,1,,,,,,,,,,,,,,,,,,,,,,,,,,,,,,,,,,,,,,,,,,,,,,,,,,,,,,,,,,,,,,,,,,,,,,,,,,,,,,,,,,,,,,,,,,,,,,,,,,,,,,,,,,,,,
,,,,,,,,,,stimuli/images/PICTURE_95.png,HONEY,5ea06c67b325c90132fb5095,11/01/1946,2020-09-10_16h36.27.346,proactive3.1,2020.1.2,Win32,60,5f599a131af4471f3d752b7b,5f5a47e4c969390b893b7686,6,,,,,,suitcase,,,,,,0,24,24,44,1,5,1,,,,,,,,,,,,,,,,,,,,,,,,,,,,,,,,,,,,,,,,,,,,,,,,,,,,,,,,,,,,,,,,,,,,,,,,,,,,,,,,,,,,,,,,,,,,,,,,,,,,,,,,,,,,,
,,,,,,,,,,stimuli/images/PICTURE_327.png,SERIES,5ea06c67b325c90132fb5095,11/01/1946,2020-09-10_16h36.27.346,proactive3.1,2020.1.2,Win32,60,5f599a131af4471f3d752b7b,5f5a47e4c969390b893b7686,6,,,,,,helmet,,,,,,0,25,25,3,1,1,1,,,,,,,,,,,,,,,,,,,,,,,,,,,,,,,,,,,,,,,,,,,,,,,,,,,,,,,,,,,,,,,,,,,,,,,,,,,,,,,,,,,,,,,,,,,,,,,,,,,,,,,,,,,,,
,,,,,,,,,,stimuli/images/PICTURE_42.png,BOYS,5ea06c67b325c90132fb5095,11/01/1946,2020-09-10_16h36.27.346,proactive3.1,2020.1.2,Win32,60,5f599a131af4471f3d752b7b,5f5a47e4c969390b893b7686,6,,,,,,pear,,,,,,0,26,26,55,1,6,1,,,,,,,,,,,,,,,,,,,,,,,,,,,,,,,,,,,,,,,,,,,,,,,,,,,,,,,,,,,,,,,,,,,,,,,,,,,,,,,,,,,,,,,,,,,,,,,,,,,,,,,,,,,,,
,,,,,,,,,,stimuli/images/PICTURE_296.png,LOTS,5ea06c67b325c90132fb5095,11/01/1946,2020-09-10_16h36.27.346,proactive3.1,2020.1.2,Win32,60,5f599a131af4471f3d752b7b,5f5a47e4c969390b893b7686,6,,,,,,bolt,,,,,,0,27,27,9,1,1,1,,,,,,,,,,,,,,,,,,,,,,,,,,,,,,,,,,,,,,,,,,,,,,,,,,,,,,,,,,,,,,,,,,,,,,,,,,,,,,,,,,,,,,,,,,,,,,,,,,,,,,,,,,,,,
,,,,,,,,,,stimuli/images/PICTURE_504.png,ARTIST,5ea06c67b325c90132fb5095,11/01/1946,2020-09-10_16h36.27.346,proactive3.1,2020.1.2,Win32,60,5f599a131af4471f3d752b7b,5f5a47e4c969390b893b7686,6,,,,,,wheel,,,,,,0,28,28,49,1,5,1,,,,,,,,,,,,,,,,,,,,,,,,,,,,,,,,,,,,,,,,,,,,,,,,,,,,,,,,,,,,,,,,,,,,,,,,,,,,,,,,,,,,,,,,,,,,,,,,,,,,,,,,,,,,,
,,,,,,,,,,stimuli/images/PICTURE_203.png,GODS,5ea06c67b325c90132fb5095,11/01/1946,2020-09-10_16h36.27.346,proactive3.1,2020.1.2,Win32,60,5f599a131af4471f3d752b7b,5f5a47e4c969390b893b7686,6,,,,,,cap,,,,,,0,29,29,30,1,4,1,,,,,,,,,,,,,,,,,,,,,,,,,,,,,,,,,,,,,,,,,,,,,,,,,,,,,,,,,,,,,,,,,,,,,,,,,,,,,,,,,,,,,,,,,,,,,,,,,,,,,,,,,,,,,
,,,,,,,,,,stimuli/images/PICTURE_147.png,WOMEN,5ea06c67b325c90132fb5095,11/01/1946,2020-09-10_16h36.27.346,proactive3.1,2020.1.2,Win32,60,5f599a131af4471f3d752b7b,5f5a47e4c969390b893b7686,6,,,,,,hanger,,,,,,0,30,30,7,1,1,1,,,,,,,,,,,,,,,,,,,,,,,,,,,,,,,,,,,,,,,,,,,,,,,,,,,,,,,,,,,,,,,,,,,,,,,,,,,,,,,,,,,,,,,,,,,,,,,,,,,,,,,,,,,,,
,,,,,,,,,,stimuli/images/PICTURE_327.png,CASINO,5ea06c67b325c90132fb5095,11/01/1946,2020-09-10_16h36.27.346,proactive3.1,2020.1.2,Win32,60,5f599a131af4471f3d752b7b,5f5a47e4c969390b893b7686,6,,,,,,helmet,,,,,,0,31,31,20,1,3,1,,,,,,,,,,,,,,,,,,,,,,,,,,,,,,,,,,,,,,,,,,,,,,,,,,,,,,,,,,,,,,,,,,,,,,,,,,,,,,,,,,,,,,,,,,,,,,,,,,,,,,,,,,,,,
,,,,,,,,,,stimuli/images/PICTURE_340.png,LETTER,5ea06c67b325c90132fb5095,11/01/1946,2020-09-10_16h36.27.346,proactive3.1,2020.1.2,Win32,60,5f599a131af4471f3d752b7b,5f5a47e4c969390b893b7686,6,,,,,,mirror,,,,,,0,32,32,24,1,3,1,,,,,,,,,,,,,,,,,,,,,,,,,,,,,,,,,,,,,,,,,,,,,,,,,,,,,,,,,,,,,,,,,,,,,,,,,,,,,,,,,,,,,,,,,,,,,,,,,,,,,,,,,,,,,
,,,,,,,,,,stimuli/images/PICTURE_85.png,NATION,5ea06c67b325c90132fb5095,11/01/1946,2020-09-10_16h36.27.346,proactive3.1,2020.1.2,Win32,60,5f599a131af4471f3d752b7b,5f5a47e4c969390b893b7686,6,,,,,,diamond,,,,,,0,33,33,5,1,1,1,,,,,,,,,,,,,,,,,,,,,,,,,,,,,,,,,,,,,,,,,,,,,,,,,,,,,,,,,,,,,,,,,,,,,,,,,,,,,,,,,,,,,,,,,,,,,,,,,,,,,,,,,,,,,
,,,,,,,,,,stimuli/images/PICTURE_685.png,PENNY,5ea06c67b325c90132fb5095,11/01/1946,2020-09-10_16h36.27.346,proactive3.1,2020.1.2,Win32,60,5f599a131af4471f3d752b7b,5f5a47e4c969390b893b7686,6,,,,,,goose,,,,,,0,34,34,4,1,1,1,,,,,,,,,,,,,,,,,,,,,,,,,,,,,,,,,,,,,,,,,,,,,,,,,,,,,,,,,,,,,,,,,,,,,,,,,,,,,,,,,,,,,,,,,,,,,,,,,,,,,,,,,,,,,
,,,,,,,,,,stimuli/images/PICTURE_403.png,WRITER,5ea06c67b325c90132fb5095,11/01/1946,2020-09-10_16h36.27.346,proactive3.1,2020.1.2,Win32,60,5f599a131af4471f3d752b7b,5f5a47e4c969390b893b7686,6,,,,,,cathedral,,,,,,0,35,35,31,1,4,1,,,,,,,,,,,,,,,,,,,,,,,,,,,,,,,,,,,,,,,,,,,,,,,,,,,,,,,,,,,,,,,,,,,,,,,,,,,,,,,,,,,,,,,,,,,,,,,,,,,,,,,,,,,,,
,,,,,,,,,,stimuli/images/PICTURE_68.png,MILE,5ea06c67b325c90132fb5095,11/01/1946,2020-09-10_16h36.27.346,proactive3.1,2020.1.2,Win32,60,5f599a131af4471f3d752b7b,5f5a47e4c969390b893b7686,6,,,,,,candle,,,,,,0,36,36,51,1,6,1,,,,,,,,,,,,,,,,,,,,,,,,,,,,,,,,,,,,,,,,,,,,,,,,,,,,,,,,,,,,,,,,,,,,,,,,,,,,,,,,,,,,,,,,,,,,,,,,,,,,,,,,,,,,,
,,,,,,,,,,stimuli/images/PICTURE_285.png,LIFE,5ea06c67b325c90132fb5095,11/01/1946,2020-09-10_16h36.27.346,proactive3.1,2020.1.2,Win32,60,5f599a131af4471f3d752b7b,5f5a47e4c969390b893b7686,6,,,,,,carrot,,,,,,0,37,37,33,1,4,1,,,,,,,,,,,,,,,,,,,,,,,,,,,,,,,,,,,,,,,,,,,,,,,,,,,,,,,,,,,,,,,,,,,,,,,,,,,,,,,,,,,,,,,,,,,,,,,,,,,,,,,,,,,,,
,,,,,,,,,,stimuli/images/PICTURE_380.png,HONEY,5ea06c67b325c90132fb5095,11/01/1946,2020-09-10_16h36.27.346,proactive3.1,2020.1.2,Win32,60,5f599a131af4471f3d752b7b,5f5a47e4c969390b893b7686,6,,,,,,gorilla,,,,,,0,38,38,19,1,2,1,,,,,,,,,,,,,,,,,,,,,,,,,,,,,,,,,,,,,,,,,,,,,,,,,,,,,,,,,,,,,,,,,,,,,,,,,,,,,,,,,,,,,,,,,,,,,,,,,,,,,,,,,,,,,
,,,,,,,,,,stimuli/images/PICTURE_33.png,FRIEND,5ea06c67b325c90132fb5095,11/01/1946,2020-09-10_16h36.27.346,proactive3.1,2020.1.2,Win32,60,5f599a131af4471f3d752b7b,5f5a47e4c969390b893b7686,6,,,,,,frame,,,,,,0,39,39,8,1,1,1,,,,,,,,,,,,,,,,,,,,,,,,,,,,,,,,,,,,,,,,,,,,,,,,,,,,,,,,,,,,,,,,,,,,,,,,,,,,,,,,,,,,,,,,,,,,,,,,,,,,,,,,,,,,,
,,,,,,,,,,stimuli/images/PICTURE_675.png,SALE,5ea06c67b325c90132fb5095,11/01/1946,2020-09-10_16h36.27.346,proactive3.1,2020.1.2,Win32,60,5f599a131af4471f3d752b7b,5f5a47e4c969390b893b7686,6,,,,,,windmill,,,,,,0,40,40,47,1,5,1,,,,,,,,,,,,,,,,,,,,,,,,,,,,,,,,,,,,,,,,,,,,,,,,,,,,,,,,,,,,,,,,,,,,,,,,,,,,,,,,,,,,,,,,,,,,,,,,,,,,,,,,,,,,,
,,,,,,,,,,stimuli/images/PICTURE_340.png,VALLEY,5ea06c67b325c90132fb5095,11/01/1946,2020-09-10_16h36.27.346,proactive3.1,2020.1.2,Win32,60,5f599a131af4471f3d752b7b,5f5a47e4c969390b893b7686,6,,,,,,mirror,,,,,,0,41,41,54,1,6,1,,,,,,,,,,,,,,,,,,,,,,,,,,,,,,,,,,,,,,,,,,,,,,,,,,,,,,,,,,,,,,,,,,,,,,,,,,,,,,,,,,,,,,,,,,,,,,,,,,,,,,,,,,,,,
,,,,,,,,,,stimuli/images/PICTURE_108.png,FLIGHT,5ea06c67b325c90132fb5095,11/01/1946,2020-09-10_16h36.27.346,proactive3.1,2020.1.2,Win32,60,5f599a131af4471f3d752b7b,5f5a47e4c969390b893b7686,6,,,,,,calendar,,,,,,0,42,42,59,1,6,1,,,,,,,,,,,,,,,,,,,,,,,,,,,,,,,,,,,,,,,,,,,,,,,,,,,,,,,,,,,,,,,,,,,,,,,,,,,,,,,,,,,,,,,,,,,,,,,,,,,,,,,,,,,,,
,,,,,,,,,,stimuli/images/PICTURE_491.png,GLASS,5ea06c67b325c90132fb5095,11/01/1946,2020-09-10_16h36.27.346,proactive3.1,2020.1.2,Win32,60,5f599a131af4471f3d752b7b,5f5a47e4c969390b893b7686,6,,,,,,rug,,,,,,0,43,43,14,1,2,1,,,,,,,,,,,,,,,,,,,,,,,,,,,,,,,,,,,,,,,,,,,,,,,,,,,,,,,,,,,,,,,,,,,,,,,,,,,,,,,,,,,,,,,,,,,,,,,,,,,,,,,,,,,,,
,,,,,,,,,,stimuli/images/PICTURE_469.png,AGENT,5ea06c67b325c90132fb5095,11/01/1946,2020-09-10_16h36.27.346,proactive3.1,2020.1.2,Win32,60,5f599a131af4471f3d752b7b,5f5a47e4c969390b893b7686,6,,,,,,stool,,,,,,0,44,44,16,1,2,1,,,,,,,,,,,,,,,,,,,,,,,,,,,,,,,,,,,,,,,,,,,,,,,,,,,,,,,,,,,,,,,,,,,,,,,,,,,,,,,,,,,,,,,,,,,,,,,,,,,,,,,,,,,,,
,,,,,,,,,,stimuli/images/PICTURE_403.png,RIVER,5ea06c67b325c90132fb5095,11/01/1946,2020-09-10_16h36.27.346,proactive3.1,2020.1.2,Win32,60,5f599a131af4471f3d752b7b,5f5a47e4c969390b893b7686,6,,,,,,cathedral,,,,,,0,45,45,40,1,5,1,,,,,,,,,,,,,,,,,,,,,,,,,,,,,,,,,,,,,,,,,,,,,,,,,,,,,,,,,,,,,,,,,,,,,,,,,,,,,,,,,,,,,,,,,,,,,,,,,,,,,,,,,,,,,
,,,,,,,,,,stimuli/images/PICTURE_564.png,BATH,5ea06c67b325c90132fb5095,11/01/1946,2020-09-10_16h36.27.346,proactive3.1,2020.1.2,Win32,60,5f599a131af4471f3d752b7b,5f5a47e4c969390b893b7686,6,,,,,,spoon,,,,,,0,46,46,26,1,3,1,,,,,,,,,,,,,,,,,,,,,,,,,,,,,,,,,,,,,,,,,,,,,,,,,,,,,,,,,,,,,,,,,,,,,,,,,,,,,,,,,,,,,,,,,,,,,,,,,,,,,,,,,,,,,
,,,,,,,,,,stimuli/images/PICTURE_177.png,WRITER,5ea06c67b325c90132fb5095,11/01/1946,2020-09-10_16h36.27.346,proactive3.1,2020.1.2,Win32,60,5f599a131af4471f3d752b7b,5f5a47e4c969390b893b7686,6,,,,,,mushroom,,,,,,0,47,47,41,1,5,1,,,,,,,,,,,,,,,,,,,,,,,,,,,,,,,,,,,,,,,,,,,,,,,,,,,,,,,,,,,,,,,,,,,,,,,,,,,,,,,,,,,,,,,,,,,,,,,,,,,,,,,,,,,,,
,,,,,,,,,,stimuli/images/PICTURE_339.png,CLIENT,5ea06c67b325c90132fb5095,11/01/1946,2020-09-10_16h36.27.346,proactive3.1,2020.1.2,Win32,60,5f599a131af4471f3d752b7b,5f5a47e4c969390b893b7686,6,,,,,,backpack,,,,,,0,48,48,11,1,2,1,,,,,,,,,,,,,,,,,,,,,,,,,,,,,,,,,,,,,,,,,,,,,,,,,,,,,,,,,,,,,,,,,,,,,,,,,,,,,,,,,,,,,,,,,,,,,,,,,,,,,,,,,,,,,
,,,,,,,,,,stimuli/images/PICTURE_85.png,TOILET,5ea06c67b325c90132fb5095,11/01/1946,2020-09-10_16h36.27.346,proactive3.1,2020.1.2,Win32,60,5f599a131af4471f3d752b7b,5f5a47e4c969390b893b7686,6,,,,,,diamond,,,,,,0,49,49,48,1,5,1,,,,,,,,,,,,,,,,,,,,,,,,,,,,,,,,,,,,,,,,,,,,,,,,,,,,,,,,,,,,,,,,,,,,,,,,,,,,,,,,,,,,,,,,,,,,,,,,,,,,,,,,,,,,,
,,,,,,,,,,stimuli/images/PICTURE_57.png,MOMENT,5ea06c67b325c90132fb5095,11/01/1946,2020-09-10_16h36.27.346,proactive3.1,2020.1.2,Win32,60,5f599a131af4471f3d752b7b,5f5a47e4c969390b893b7686,6,,,,,,stamp,,,,,,0,50,50,37,1,4,1,,,,,,,,,,,,,,,,,,,,,,,,,,,,,,,,,,,,,,,,,,,,,,,,,,,,,,,,,,,,,,,,,,,,,,,,,,,,,,,,,,,,,,,,,,,,,,,,,,,,,,,,,,,,,
,,,,,,,,,,stimuli/images/PICTURE_667.png,RIVER,5ea06c67b325c90132fb5095,11/01/1946,2020-09-10_16h36.27.346,proactive3.1,2020.1.2,Win32,60,5f599a131af4471f3d752b7b,5f5a47e4c969390b893b7686,6,,,,,,daisy,,,,,,0,51,51,10,1,2,1,,,,,,,,,,,,,,,,,,,,,,,,,,,,,,,,,,,,,,,,,,,,,,,,,,,,,,,,,,,,,,,,,,,,,,,,,,,,,,,,,,,,,,,,,,,,,,,,,,,,,,,,,,,,,
,,,,,,,,,,stimuli/images/PICTURE_383.png,WRITER,5ea06c67b325c90132fb5095,11/01/1946,2020-09-10_16h36.27.346,proactive3.1,2020.1.2,Win32,60,5f599a131af4471f3d752b7b,5f5a47e4c969390b893b7686,6,,,,,,coin,,,,,,0,52,52,28,1,3,1,,,,,,,,,,,,,,,,,,,,,,,,,,,,,,,,,,,,,,,,,,,,,,,,,,,,,,,,,,,,,,,,,,,,,,,,,,,,,,,,,,,,,,,,,,,,,,,,,,,,,,,,,,,,,
,,,,,,,,,,stimuli/images/PICTURE_208.png,SYSTEM,5ea06c67b325c90132fb5095,11/01/1946,2020-09-10_16h36.27.346,proactive3.1,2020.1.2,Win32,60,5f599a131af4471f3d752b7b,5f5a47e4c969390b893b7686,6,,,,,,microphone,,,,,,0,53,53,32,1,4,1,,,,,,,,,,,,,,,,,,,,,,,,,,,,,,,,,,,,,,,,,,,,,,,,,,,,,,,,,,,,,,,,,,,,,,,,,,,,,,,,,,,,,,,,,,,,,,,,,,,,,,,,,,,,,
,,,,,,,,,,stimuli/images/PICTURE_68.png,ROOF,5ea06c67b325c90132fb5095,11/01/1946,2020-09-10_16h36.27.346,proactive3.1,2020.1.2,Win32,60,5f599a131af4471f3d752b7b,5f5a47e4c969390b893b7686,6,,,,,,candle,,,,,,0,54,54,38,1,4,1,,,,,,,,,,,,,,,,,,,,,,,,,,,,,,,,,,,,,,,,,,,,,,,,,,,,,,,,,,,,,,,,,,,,,,,,,,,,,,,,,,,,,,,,,,,,,,,,,,,,,,,,,,,,,
,,,,,,,,,,stimuli/images/PICTURE_750.png,HOTEL,5ea06c67b325c90132fb5095,11/01/1946,2020-09-10_16h36.27.346,proactive3.1,2020.1.2,Win32,60,5f599a131af4471f3d752b7b,5f5a47e4c969390b893b7686,6,,,,,,kettle,,,,,,0,55,55,27,1,3,1,,,,,,,,,,,,,,,,,,,,,,,,,,,,,,,,,,,,,,,,,,,,,,,,,,,,,,,,,,,,,,,,,,,,,,,,,,,,,,,,,,,,,,,,,,,,,,,,,,,,,,,,,,,,,
,,,,,,,,,,stimuli/images/PICTURE_504.png,YEAR,5ea06c67b325c90132fb5095,11/01/1946,2020-09-10_16h36.27.346,proactive3.1,2020.1.2,Win32,60,5f599a131af4471f3d752b7b,5f5a47e4c969390b893b7686,6,,,,,,wheel,,,,,,0,56,56,13,1,2,1,,,,,,,,,,,,,,,,,,,,,,,,,,,,,,,,,,,,,,,,,,,,,,,,,,,,,,,,,,,,,,,,,,,,,,,,,,,,,,,,,,,,,,,,,,,,,,,,,,,,,,,,,,,,,
,,,,,,,,,,stimuli/images/PICTURE_233.png,LOTS,5ea06c67b325c90132fb5095,11/01/1946,2020-09-10_16h36.27.346,proactive3.1,2020.1.2,Win32,60,5f599a131af4471f3d752b7b,5f5a47e4c969390b893b7686,6,,,,,,salt,,,,,,0,57,57,42,1,5,1,,,,,,,,,,,,,,,,,,,,,,,,,,,,,,,,,,,,,,,,,,,,,,,,,,,,,,,,,,,,,,,,,,,,,,,,,,,,,,,,,,,,,,,,,,,,,,,,,,,,,,,,,,,,,
,,,,,,,,,,stimuli/images/PICTURE_108.png,POLICY,5ea06c67b325c90132fb5095,11/01/1946,2020-09-10_16h36.27.346,proactive3.1,2020.1.2,Win32,60,5f599a131af4471f3d752b7b,5f5a47e4c969390b893b7686,6,,,,,,calendar,,,,,,0,58,58,22,1,3,1,,,,,,,,,,,,,,,,,,,,,,,,,,,,,,,,,,,,,,,,,,,,,,,,,,,,,,,,,,,,,,,,,,,,,,,,,,,,,,,,,,,,,,,,,,,,,,,,,,,,,,,,,,,,,
,,?,0.000385,0,,,,,,stimuli/images/PICTURE_403.png,WRITER,5ea06c67b325c90132fb5095,11/01/1946,2020-09-10_16h36.27.346,proactive3.1,2020.1.2,Win32,60,5f599a131af4471f3d752b7b,5f5a47e4c969390b893b7686,6,,,,,,cathedral,,,,,,,,,,,4,1,0,0,0,31,1,,,,,,,,,,,,,,,,,,,,,,,,,,,,,,,,,,,,,,,,,,,,,,,,,,,,,,,,,,,,,,,,,,,,,,,,,,,,,,,,,,,,,,,,,,,,,,,,,,,,,,,,
,,?,0.00025,0,,,,,,stimuli/images/PICTURE_233.png,LOTS,5ea06c67b325c90132fb5095,11/01/1946,2020-09-10_16h36.27.346,proactive3.1,2020.1.2,Win32,60,5f599a131af4471f3d752b7b,5f5a47e4c969390b893b7686,6,,,,,,salt,,,,,,,,,,,5,1,0,1,1,42,1,,,,,,,,,,,,,,,,,,,,,,,,,,,,,,,,,,,,,,,,,,,,,,,,,,,,,,,,,,,,,,,,,,,,,,,,,,,,,,,,,,,,,,,,,,,,,,,,,,,,,,,,
,,?,0.000245,0,,,,,,stimuli/images/PICTURE_383.png,WRITER,5ea06c67b325c90132fb5095,11/01/1946,2020-09-10_16h36.27.346,proactive3.1,2020.1.2,Win32,60,5f599a131af4471f3d752b7b,5f5a47e4c969390b893b7686,6,,,,,,coin,,,,,,,,,,,3,1,0,2,2,28,1,,,,,,,,,,,,,,,,,,,,,,,,,,,,,,,,,,,,,,,,,,,,,,,,,,,,,,,,,,,,,,,,,,,,,,,,,,,,,,,,,,,,,,,,,,,,,,,,,,,,,,,,
,,?,0.00024,0,,,,,,stimuli/images/PICTURE_380.png,CANDY,5ea06c67b325c90132fb5095,11/01/1946,2020-09-10_16h36.27.346,proactive3.1,2020.1.2,Win32,60,5f599a131af4471f3d752b7b,5f5a47e4c969390b893b7686,6,,,,,,gorilla,,,,,,,,,,,1,1,0,3,3,0,1,,,,,,,,,,,,,,,,,,,,,,,,,,,,,,,,,,,,,,,,,,,,,,,,,,,,,,,,,,,,,,,,,,,,,,,,,,,,,,,,,,,,,,,,,,,,,,,,,,,,,,,,
,,?,0.000235,0,,,,,,stimuli/images/PICTURE_750.png,HOTEL,5ea06c67b325c90132fb5095,11/01/1946,2020-09-10_16h36.27.346,proactive3.1,2020.1.2,Win32,60,5f599a131af4471f3d752b7b,5f5a47e4c969390b893b7686,6,,,,,,kettle,,,,,,,,,,,3,1,0,4,4,27,1,,,,,,,,,,,,,,,,,,,,,,,,,,,,,,,,,,,,,,,,,,,,,,,,,,,,,,,,,,,,,,,,,,,,,,,,,,,,,,,,,,,,,,,,,,,,,,,,,,,,,,,,
,,?,0.000245,0,,,,,,stimuli/images/PICTURE_147.png,YEAR,5ea06c67b325c90132fb5095,11/01/1946,2020-09-10_16h36.27.346,proactive3.1,2020.1.2,Win32,60,5f599a131af4471f3d752b7b,5f5a47e4c969390b893b7686,6,,,,,,hanger,,,,,,,,,,,3,1,0,5,5,21,1,,,,,,,,,,,,,,,,,,,,,,,,,,,,,,,,,,,,,,,,,,,,,,,,,,,,,,,,,,,,,,,,,,,,,,,,,,,,,,,,,,,,,,,,,,,,,,,,,,,,,,,,
,,?,0.00028,0,,,,,,stimuli/images/PICTURE_339.png,CLIENT,5ea06c67b325c90132fb5095,11/01/1946,2020-09-10_16h36.27.346,proactive3.1,2020.1.2,Win32,60,5f599a131af4471f3d752b7b,5f5a47e4c969390b893b7686,6,,,,,,backpack,,,,,,,,,,,2,1,0,6,6,11,1,,,,,,,,,,,,,,,,,,,,,,,,,,,,,,,,,,,,,,,,,,,,,,,,,,,,,,,,,,,,,,,,,,,,,,,,,,,,,,,,,,,,,,,,,,,,,,,,,,,,,,,,
,,?,0.00023,0,,,,,,stimuli/images/PICTURE_327.png,CASINO,5ea06c67b325c90132fb5095,11/01/1946,2020-09-10_16h36.27.346,proactive3.1,2020.1.2,Win32,60,5f599a131af4471f3d752b7b,5f5a47e4c969390b893b7686,6,,,,,,helmet,,,,,,,,,,,3,1,0,7,7,20,1,,,,,,,,,,,,,,,,,,,,,,,,,,,,,,,,,,,,,,,,,,,,,,,,,,,,,,,,,,,,,,,,,,,,,,,,,,,,,,,,,,,,,,,,,,,,,,,,,,,,,,,,
,,?,0.000235,0,,,,,,stimuli/images/PICTURE_2.png,FLIGHT,5ea06c67b325c90132fb5095,11/01/1946,2020-09-10_16h36.27.346,proactive3.1,2020.1.2,Win32,60,5f599a131af4471f3d752b7b,5f5a47e4c969390b893b7686,6,,,,,,tyre,,,,,,,,,,,2,1,0,8,8,15,1,,,,,,,,,,,,,,,,,,,,,,,,,,,,,,,,,,,,,,,,,,,,,,,,,,,,,,,,,,,,,,,,,,,,,,,,,,,,,,,,,,,,,,,,,,,,,,,,,,,,,,,,
,,?,0.00024,0,,,,,,stimuli/images/PICTURE_108.png,POLICY,5ea06c67b325c90132fb5095,11/01/1946,2020-09-10_16h36.27.346,proactive3.1,2020.1.2,Win32,60,5f599a131af4471f3d752b7b,5f5a47e4c969390b893b7686,6,,,,,,calendar,,,,,,,,,,,3,1,0,9,9,22,1,,,,,,,,,,,,,,,,,,,,,,,,,,,,,,,,,,,,,,,,,,,,,,,,,,,,,,,,,,,,,,,,,,,,,,,,,,,,,,,,,,,,,,,,,,,,,,,,,,,,,,,,
,,?,0.000765,0,,,,,,stimuli/images/PICTURE_32.png,PILLS,5ea06c67b325c90132fb5095,11/01/1946,2020-09-10_16h36.27.346,proactive3.1,2020.1.2,Win32,60,5f599a131af4471f3d752b7b,5f5a47e4c969390b893b7686,6,,,,,,crown,,,,,,,,,,,2,1,0,10,10,18,1,,,,,,,,,,,,,,,,,,,,,,,,,,,,,,,,,,,,,,,,,,,,,,,,,,,,,,,,,,,,,,,,,,,,,,,,,,,,,,,,,,,,,,,,,,,,,,,,,,,,,,,,
,,?,0.00024,0,,,,,,stimuli/images/PICTURE_203.png,GODS,5ea06c67b325c90132fb5095,11/01/1946,2020-09-10_16h36.27.346,proactive3.1,2020.1.2,Win32,60,5f599a131af4471f3d752b7b,5f5a47e4c969390b893b7686,6,,,,,,cap,,,,,,,,,,,4,1,0,11,11,30,1,,,,,,,,,,,,,,,,,,,,,,,,,,,,,,,,,,,,,,,,,,,,,,,,,,,,,,,,,,,,,,,,,,,,,,,,,,,,,,,,,,,,,,,,,,,,,,,,,,,,,,,,
,,?,0.000245,0,,,,,,stimuli/images/PICTURE_405.png,PLENTY,5ea06c67b325c90132fb5095,11/01/1946,2020-09-10_16h36.27.346,proactive3.1,2020.1.2,Win32,60,5f599a131af4471f3d752b7b,5f5a47e4c969390b893b7686,6,,,,,,anchor,,,,,,,,,,,3,1,0,12,12,23,1,,,,,,,,,,,,,,,,,,,,,,,,,,,,,,,,,,,,,,,,,,,,,,,,,,,,,,,,,,,,,,,,,,,,,,,,,,,,,,,,,,,,,,,,,,,,,,,,,,,,,,,,
,,?,0.00025,0,,,,,,stimuli/images/PICTURE_32.png,KIND,5ea06c67b325c90132fb5095,11/01/1946,2020-09-10_16h36.27.346,proactive3.1,2020.1.2,Win32,60,5f599a131af4471f3d752b7b,5f5a47e4c969390b893b7686,6,,,,,,crown,,,,,,,,,,,4,1,0,13,13,35,1,,,,,,,,,,,,,,,,,,,,,,,,,,,,,,,,,,,,,,,,,,,,,,,,,,,,,,,,,,,,,,,,,,,,,,,,,,,,,,,,,,,,,,,,,,,,,,,,,,,,,,,,
,,?,0.00024,0,,,,,,stimuli/images/PICTURE_564.png,BATH,5ea06c67b325c90132fb5095,11/01/1946,2020-09-10_16h36.27.346,proactive3.1,2020.1.2,Win32,60,5f599a131af4471f3d752b7b,5f5a47e4c969390b893b7686,6,,,,,,spoon,,,,,,,,,,,3,1,0,14,14,26,1,,,,,,,,,,,,,,,,,,,,,,,,,,,,,,,,,,,,,,,,,,,,,,,,,,,,,,,,,,,,,,,,,,,,,,,,,,,,,,,,,,,,,,,,,,,,,,,,,,,,,,,,
,,?,0.000235,0,,,,,,stimuli/images/PICTURE_667.png,RIVER,5ea06c67b325c90132fb5095,11/01/1946,2020-09-10_16h36.27.346,proactive3.1,2020.1.2,Win32,60,5f599a131af4471f3d752b7b,5f5a47e4c969390b893b7686,6,,,,,,daisy,,,,,,,,,,,2,1,0,15,15,10,1,,,,,,,,,,,,,,,,,,,,,,,,,,,,,,,,,,,,,,,,,,,,,,,,,,,,,,,,,,,,,,,,,,,,,,,,,,,,,,,,,,,,,,,,,,,,,,,,,,,,,,,,
,,?,0.000245,0,,,,,,stimuli/images/PICTURE_403.png,TOILET,5ea06c67b325c90132fb5095,11/01/1946,2020-09-10_16h36.27.346,proactive3.1,2020.1.2,Win32,60,5f599a131af4471f3d752b7b,5f5a47e4c969390b893b7686,6,,,,,,cathedral,,,,,,,,,,,3,1,0,16,16,25,1,,,,,,,,,,,,,,,,,,,,,,,,,,,,,,,,,,,,,,,,,,,,,,,,,,,,,,,,,,,,,,,,,,,,,,,,,,,,,,,,,,,,,,,,,,,,,,,,,,,,,,,,
,,?,0.000245,0,,,,,,stimuli/images/PICTURE_469.png,AGENT,5ea06c67b325c90132fb5095,11/01/1946,2020-09-10_16h36.27.346,proactive3.1,2020.1.2,Win32,60,5f599a131af4471f3d752b7b,5f5a47e4c969390b893b7686,6,,,,,,stool,,,,,,,,,,,2,1,0,17,17,16,1,,,,,,,,,,,,,,,,,,,,,,,,,,,,,,,,,,,,,,,,,,,,,,,,,,,,,,,,,,,,,,,,,,,,,,,,,,,,,,,,,,,,,,,,,,,,,,,,,,,,,,,,
,,MILLER,11.151215,1,,,,,,stimuli/images/PICTURE_95.png,MILLER,5ea06c67b325c90132fb5095,11/01/1946,2020-09-10_16h36.27.346,proactive3.1,2020.1.2,Win32,60,5f599a131af4471f3d752b7b,5f5a47e4c969390b893b7686,6,,,,,,suitcase,,,,,,,,,,,6,1,0,18,18,56,1,,,,,,,,,,,,,,,,,,,,,,,,,,,,,,,,,,,,,,,,,,,,,,,,,,,,,,,,,,,,,,,,,,,,,,,,,,,,,,,,,,,,,,,,,,,,,,,,,,,,,,,,
,,?,0.000435,0,,,,,,stimuli/images/PICTURE_296.png,LOTS,5ea06c67b325c90132fb5095,11/01/1946,2020-09-10_16h36.27.346,proactive3.1,2020.1.2,Win32,60,5f599a131af4471f3d752b7b,5f5a47e4c969390b893b7686,6,,,,,,bolt,,,,,,,,,,,1,1,0,19,19,9,1,,,,,,,,,,,,,,,,,,,,,,,,,,,,,,,,,,,,,,,,,,,,,,,,,,,,,,,,,,,,,,,,,,,,,,,,,,,,,,,,,,,,,,,,,,,,,,,,,,,,,,,,
,,?,0.00025,0,,,,,,stimuli/images/PICTURE_403.png,RIVER,5ea06c67b325c90132fb5095,11/01/1946,2020-09-10_16h36.27.346,proactive3.1,2020.1.2,Win32,60,5f599a131af4471f3d752b7b,5f5a47e4c969390b893b7686,6,,,,,,cathedral,,,,,,,,,,,5,1,0,20,20,40,1,,,,,,,,,,,,,,,,,,,,,,,,,,,,,,,,,,,,,,,,,,,,,,,,,,,,,,,,,,,,,,,,,,,,,,,,,,,,,,,,,,,,,,,,,,,,,,,,,,,,,,,,
,,COPS,4.11485,1,,,,,,stimuli/images/PICTURE_504.png,COPS,5ea06c67b325c90132fb5095,11/01/1946,2020-09-10_16h36.27.346,proactive3.1,2020.1.2,Win32,60,5f599a131af4471f3d752b7b,5f5a47e4c969390b893b7686,6,,,,,,wheel,,,,,,,,,,,6,1,0,21,21,52,1,,,,,,,,,,,,,,,,,,,,,,,,,,,,,,,,,,,,,,,,,,,,,,,,,,,,,,,,,,,,,,,,,,,,,,,,,,,,,,,,,,,,,,,,,,,,,,,,,,,,,,,,
,,?,0.00049,0,,,,,,stimuli/images/PICTURE_449.png,DUDE,5ea06c67b325c90132fb5095,11/01/1946,2020-09-10_16h36.27.346,proactive3.1,2020.1.2,Win32,60,5f599a131af4471f3d752b7b,5f5a47e4c969390b893b7686,6,,,,,,bench,,,,,,,,,,,2,1,0,22,22,17,1,,,,,,,,,,,,,,,,,,,,,,,,,,,,,,,,,,,,,,,,,,,,,,,,,,,,,,,,,,,,,,,,,,,,,,,,,,,,,,,,,,,,,,,,,,,,,,,,,,,,,,,,
,,?,0.00026,0,,,,,,stimuli/images/PICTURE_285.png,LIFE,5ea06c67b325c90132fb5095,11/01/1946,2020-09-10_16h36.27.346,proactive3.1,2020.1.2,Win32,60,5f599a131af4471f3d752b7b,5f5a47e4c969390b893b7686,6,,,,,,carrot,,,,,,,,,,,4,1,0,23,23,33,1,,,,,,,,,,,,,,,,,,,,,,,,,,,,,,,,,,,,,,,,,,,,,,,,,,,,,,,,,,,,,,,,,,,,,,,,,,,,,,,,,,,,,,,,,,,,,,,,,,,,,,,,
,,?,0.00025,0,,,,,,stimuli/images/PICTURE_33.png,FRIEND,5ea06c67b325c90132fb5095,11/01/1946,2020-09-10_16h36.27.346,proactive3.1,2020.1.2,Win32,60,5f599a131af4471f3d752b7b,5f5a47e4c969390b893b7686,6,,,,,,frame,,,,,,,,,,,1,1,0,24,24,8,1,,,,,,,,,,,,,,,,,,,,,,,,,,,,,,,,,,,,,,,,,,,,,,,,,,,,,,,,,,,,,,,,,,,,,,,,,,,,,,,,,,,,,,,,,,,,,,,,,,,,,,,,
,,?,0.000245,0,,,,,,stimuli/images/PICTURE_203.png,NIGHT,5ea06c67b325c90132fb5095,11/01/1946,2020-09-10_16h36.27.346,proactive3.1,2020.1.2,Win32,60,5f599a131af4471f3d752b7b,5f5a47e4c969390b893b7686,6,,,,,,cap,,,,,,,,,,,1,1,0,25,25,2,1,,,,,,,,,,,,,,,,,,,,,,,,,,,,,,,,,,,,,,,,,,,,,,,,,,,,,,,,,,,,,,,,,,,,,,,,,,,,,,,,,,,,,,,,,,,,,,,,,,,,,,,,
,,?,0.00026,0,,,,,,stimuli/images/PICTURE_177.png,WRITER,5ea06c67b325c90132fb5095,11/01/1946,2020-09-10_16h36.27.346,proactive3.1,2020.1.2,Win32,60,5f599a131af4471f3d752b7b,5f5a47e4c969390b893b7686,6,,,,,,mushroom,,,,,,,,,,,5,1,0,26,26,41,1,,,,,,,,,,,,,,,,,,,,,,,,,,,,,,,,,,,,,,,,,,,,,,,,,,,,,,,,,,,,,,,,,,,,,,,,,,,,,,,,,,,,,,,,,,,,,,,,,,,,,,,,
,,L,15.012575,0,,,,,,stimuli/images/PICTURE_296.png,LIFE,5ea06c67b325c90132fb5095,11/01/1946,2020-09-10_16h36.27.346,proactive3.1,2020.1.2,Win32,60,5f599a131af4471f3d752b7b,5f5a47e4c969390b893b7686,6,,,,,,bolt,,,,,,,,,,,6,1,0,27,27,57,1,,,,,,,,,,,,,,,,,,,,,,,,,,,,,,,,,,,,,,,,,,,,,,,,,,,,,,,,,,,,,,,,,,,,,,,,,,,,,,,,,,,,,,,,,,,,,,,,,,,,,,,,
,,?,15.015755,0,,,,,,stimuli/images/PICTURE_42.png,BOYS,5ea06c67b325c90132fb5095,11/01/1946,2020-09-10_16h36.27.346,proactive3.1,2020.1.2,Win32,60,5f599a131af4471f3d752b7b,5f5a47e4c969390b893b7686,6,,,,,,pear,,,,,,,,,,,6,1,0,28,28,55,1,,,,,,,,,,,,,,,,,,,,,,,,,,,,,,,,,,,,,,,,,,,,,,,,,,,,,,,,,,,,,,,,,,,,,,,,,,,,,,,,,,,,,,,,,,,,,,,,,,,,,,,,
,,?,0.000425,0,,,,,,stimuli/images/PICTURE_685.png,PENNY,5ea06c67b325c90132fb5095,11/01/1946,2020-09-10_16h36.27.346,proactive3.1,2020.1.2,Win32,60,5f599a131af4471f3d752b7b,5f5a47e4c969390b893b7686,6,,,,,,goose,,,,,,,,,,,1,1,0,29,29,4,1,,,,,,,,,,,,,,,,,,,,,,,,,,,,,,,,,,,,,,,,,,,,,,,,,,,,,,,,,,,,,,,,,,,,,,,,,,,,,,,,,,,,,,,,,,,,,,,,,,,,,,,,
,,WEA,15.014855,0,,,,,,stimuli/images/PICTURE_744.png,WEAPON,5ea06c67b325c90132fb5095,11/01/1946,2020-09-10_16h36.27.346,proactive3.1,2020.1.2,Win32,60,5f599a131af4471f3d752b7b,5f5a47e4c969390b893b7686,6,,,,,,ring,,,,,,,,,,,6,1,0,30,30,50,1,,,,,,,,,,,,,,,,,,,,,,,,,,,,,,,,,,,,,,,,,,,,,,,,,,,,,,,,,,,,,,,,,,,,,,,,,,,,,,,,,,,,,,,,,,,,,,,,,,,,,,,,
,,MAIL,4.516195,0,,,,,,stimuli/images/PICTURE_68.png,MILE,5ea06c67b325c90132fb5095,11/01/1946,2020-09-10_16h36.27.346,proactive3.1,2020.1.2,Win32,60,5f599a131af4471f3d752b7b,5f5a47e4c969390b893b7686,6,,,,,,candle,,,,,,,,,,,6,1,0,31,31,51,1,,,,,,,,,,,,,,,,,,,,,,,,,,,,,,,,,,,,,,,,,,,,,,,,,,,,,,,,,,,,,,,,,,,,,,,,,,,,,,,,,,,,,,,,,,,,,,,,,,,,,,,,
,,?,0.00043,0,,,,,,stimuli/images/PICTURE_327.png,SERIES,5ea06c67b325c90132fb5095,11/01/1946,2020-09-10_16h36.27.346,proactive3.1,2020.1.2,Win32,60,5f599a131af4471f3d752b7b,5f5a47e4c969390b893b7686,6,,,,,,helmet,,,,,,,,,,,1,1,0,32,32,3,1,,,,,,,,,,,,,,,,,,,,,,,,,,,,,,,,,,,,,,,,,,,,,,,,,,,,,,,,,,,,,,,,,,,,,,,,,,,,,,,,,,,,,,,,,,,,,,,,,,,,,,,,
,,?,0.000265,0,,,,,,stimuli/images/PICTURE_654.png,MONTH,5ea06c67b325c90132fb5095,11/01/1946,2020-09-10_16h36.27.346,proactive3.1,2020.1.2,Win32,60,5f599a131af4471f3d752b7b,5f5a47e4c969390b893b7686,6,,,,,,pencil,,,,,,,,,,,3,1,0,33,33,29,1,,,,,,,,,,,,,,,,,,,,,,,,,,,,,,,,,,,,,,,,,,,,,,,,,,,,,,,,,,,,,,,,,,,,,,,,,,,,,,,,,,,,,,,,,,,,,,,,,,,,,,,,
,,?,0.000255,0,,,,,,stimuli/images/PICTURE_95.png,HONEY,5ea06c67b325c90132fb5095,11/01/1946,2020-09-10_16h36.27.346,proactive3.1,2020.1.2,Win32,60,5f599a131af4471f3d752b7b,5f5a47e4c969390b893b7686,6,,,,,,suitcase,,,,,,,,,,,5,1,0,34,34,44,1,,,,,,,,,,,,,,,,,,,,,,,,,,,,,,,,,,,,,,,,,,,,,,,,,,,,,,,,,,,,,,,,,,,,,,,,,,,,,,,,,,,,,,,,,,,,,,,,,,,,,,,,
,,?,0.00026,0,,,,,,stimuli/images/PICTURE_487.png,GIRL,5ea06c67b325c90132fb5095,11/01/1946,2020-09-10_16h36.27.346,proactive3.1,2020.1.2,Win32,60,5f599a131af4471f3d752b7b,5f5a47e4c969390b893b7686,6,,,,,,basket,,,,,,,,,,,5,1,0,35,35,45,1,,,,,,,,,,,,,,,,,,,,,,,,,,,,,,,,,,,,,,,,,,,,,,,,,,,,,,,,,,,,,,,,,,,,,,,,,,,,,,,,,,,,,,,,,,,,,,,,,,,,,,,,
,,?,7.03,0,,,,,,stimuli/images/PICTURE_340.png,VALLEY,5ea06c67b325c90132fb5095,11/01/1946,2020-09-10_16h36.27.346,proactive3.1,2020.1.2,Win32,60,5f599a131af4471f3d752b7b,5f5a47e4c969390b893b7686,6,,,,,,mirror,,,,,,,,,,,6,1,0,36,36,54,1,,,,,,,,,,,,,,,,,,,,,,,,,,,,,,,,,,,,,,,,,,,,,,,,,,,,,,,,,,,,,,,,,,,,,,,,,,,,,,,,,,,,,,,,,,,,,,,,,,,,,,,,
,,?,3.08282,0,,,,,,stimuli/images/PICTURE_708.png,RECORD,5ea06c67b325c90132fb5095,11/01/1946,2020-09-10_16h36.27.346,proactive3.1,2020.1.2,Win32,60,5f599a131af4471f3d752b7b,5f5a47e4c969390b893b7686,6,,,,,,monkey,,,,,,,,,,,6,1,0,37,37,58,1,,,,,,,,,,,,,,,,,,,,,,,,,,,,,,,,,,,,,,,,,,,,,,,,,,,,,,,,,,,,,,,,,,,,,,,,,,,,,,,,,,,,,,,,,,,,,,,,,,,,,,,,
,,?,0.000415,0,,,,,,stimuli/images/PICTURE_208.png,SYSTEM,5ea06c67b325c90132fb5095,11/01/1946,2020-09-10_16h36.27.346,proactive3.1,2020.1.2,Win32,60,5f599a131af4471f3d752b7b,5f5a47e4c969390b893b7686,6,,,,,,microphone,,,,,,,,,,,4,1,0,38,38,32,1,,,,,,,,,,,,,,,,,,,,,,,,,,,,,,,,,,,,,,,,,,,,,,,,,,,,,,,,,,,,,,,,,,,,,,,,,,,,,,,,,,,,,,,,,,,,,,,,,,,,,,,,
,,?,0.000255,0,,,,,,stimuli/images/PICTURE_85.png,NATION,5ea06c67b325c90132fb5095,11/01/1946,2020-09-10_16h36.27.346,proactive3.1,2020.1.2,Win32,60,5f599a131af4471f3d752b7b,5f5a47e4c969390b893b7686,6,,,,,,diamond,,,,,,,,,,,1,1,0,39,39,5,1,,,,,,,,,,,,,,,,,,,,,,,,,,,,,,,,,,,,,,,,,,,,,,,,,,,,,,,,,,,,,,,,,,,,,,,,,,,,,,,,,,,,,,,,,,,,,,,,,,,,,,,,
,,?,0.00025,0,,,,,,stimuli/images/PICTURE_491.png,RIVER,5ea06c67b325c90132fb5095,11/01/1946,2020-09-10_16h36.27.346,proactive3.1,2020.1.2,Win32,60,5f599a131af4471f3d752b7b,5f5a47e4c969390b893b7686,6,,,,,,rug,,,,,,,,,,,1,1,0,40,40,6,1,,,,,,,,,,,,,,,,,,,,,,,,,,,,,,,,,,,,,,,,,,,,,,,,,,,,,,,,,,,,,,,,,,,,,,,,,,,,,,,,,,,,,,,,,,,,,,,,,,,,,,,,
,,?,0.000265,0,,,,,,stimuli/images/PICTURE_383.png,SERIES,5ea06c67b325c90132fb5095,11/01/1946,2020-09-10_16h36.27.346,proactive3.1,2020.1.2,Win32,60,5f599a131af4471f3d752b7b,5f5a47e4c969390b893b7686,6,,,,,,coin,,,,,,,,,,,5,1,0,41,41,46,1,,,,,,,,,,,,,,,,,,,,,,,,,,,,,,,,,,,,,,,,,,,,,,,,,,,,,,,,,,,,,,,,,,,,,,,,,,,,,,,,,,,,,,,,,,,,,,,,,,,,,,,,
,,?,0.00028,0,,,,,,stimuli/images/PICTURE_655.png,TOILET,5ea06c67b325c90132fb5095,11/01/1946,2020-09-10_16h36.27.346,proactive3.1,2020.1.2,Win32,60,5f599a131af4471f3d752b7b,5f5a47e4c969390b893b7686,6,,,,,,megaphone,,,,,,,,,,,2,1,0,42,42,12,1,,,,,,,,,,,,,,,,,,,,,,,,,,,,,,,,,,,,,,,,,,,,,,,,,,,,,,,,,,,,,,,,,,,,,,,,,,,,,,,,,,,,,,,,,,,,,,,,,,,,,,,,
,,?,0.00025,0,,,,,,stimuli/images/PICTURE_504.png,ARTIST,5ea06c67b325c90132fb5095,11/01/1946,2020-09-10_16h36.27.346,proactive3.1,2020.1.2,Win32,60,5f599a131af4471f3d752b7b,5f5a47e4c969390b893b7686,6,,,,,,wheel,,,,,,,,,,,5,1,0,43,43,49,1,,,,,,,,,,,,,,,,,,,,,,,,,,,,,,,,,,,,,,,,,,,,,,,,,,,,,,,,,,,,,,,,,,,,,,,,,,,,,,,,,,,,,,,,,,,,,,,,,,,,,,,,
,,?,0.000245,0,,,,,,stimuli/images/PICTURE_675.png,SALE,5ea06c67b325c90132fb5095,11/01/1946,2020-09-10_16h36.27.346,proactive3.1,2020.1.2,Win32,60,5f599a131af4471f3d752b7b,5f5a47e4c969390b893b7686,6,,,,,,windmill,,,,,,,,,,,5,1,0,44,44,47,1,,,,,,,,,,,,,,,,,,,,,,,,,,,,,,,,,,,,,,,,,,,,,,,,,,,,,,,,,,,,,,,,,,,,,,,,,,,,,,,,,,,,,,,,,,,,,,,,,,,,,,,,
,,?,0.00025,0,,,,,,stimuli/images/PICTURE_147.png,WOMEN,5ea06c67b325c90132fb5095,11/01/1946,2020-09-10_16h36.27.346,proactive3.1,2020.1.2,Win32,60,5f599a131af4471f3d752b7b,5f5a47e4c969390b893b7686,6,,,,,,hanger,,,,,,,,,,,1,1,0,45,45,7,1,,,,,,,,,,,,,,,,,,,,,,,,,,,,,,,,,,,,,,,,,,,,,,,,,,,,,,,,,,,,,,,,,,,,,,,,,,,,,,,,,,,,,,,,,,,,,,,,,,,,,,,,
,,?,0.000245,0,,,,,,stimuli/images/PICTURE_297.png,RIVER,5ea06c67b325c90132fb5095,11/01/1946,2020-09-10_16h36.27.346,proactive3.1,2020.1.2,Win32,60,5f599a131af4471f3d752b7b,5f5a47e4c969390b893b7686,6,,,,,,aeroplane,,,,,,,,,,,4,1,0,46,46,39,1,,,,,,,,,,,,,,,,,,,,,,,,,,,,,,,,,,,,,,,,,,,,,,,,,,,,,,,,,,,,,,,,,,,,,,,,,,,,,,,,,,,,,,,,,,,,,,,,,,,,,,,,
,,PORKY,11.259165,0,,,,,,stimuli/images/PICTURE_467.png,POLICY,5ea06c67b325c90132fb5095,11/01/1946,2020-09-10_16h36.27.346,proactive3.1,2020.1.2,Win32,60,5f599a131af4471f3d752b7b,5f5a47e4c969390b893b7686,6,,,,,,peg,,,,,,,,,,,6,1,0,47,47,53,1,,,,,,,,,,,,,,,,,,,,,,,,,,,,,,,,,,,,,,,,,,,,,,,,,,,,,,,,,,,,,,,,,,,,,,,,,,,,,,,,,,,,,,,,,,,,,,,,,,,,,,,,
,,?,0.00056,0,,,,,,stimuli/images/PICTURE_85.png,TOILET,5ea06c67b325c90132fb5095,11/01/1946,2020-09-10_16h36.27.346,proactive3.1,2020.1.2,Win32,60,5f599a131af4471f3d752b7b,5f5a47e4c969390b893b7686,6,,,,,,diamond,,,,,,,,,,,5,1,0,48,48,48,1,,,,,,,,,,,,,,,,,,,,,,,,,,,,,,,,,,,,,,,,,,,,,,,,,,,,,,,,,,,,,,,,,,,,,,,,,,,,,,,,,,,,,,,,,,,,,,,,,,,,,,,,
,,?,0.00027,0,,,,,,stimuli/images/PICTURE_57.png,MOMENT,5ea06c67b325c90132fb5095,11/01/1946,2020-09-10_16h36.27.346,proactive3.1,2020.1.2,Win32,60,5f599a131af4471f3d752b7b,5f5a47e4c969390b893b7686,6,,,,,,stamp,,,,,,,,,,,4,1,0,49,49,37,1,,,,,,,,,,,,,,,,,,,,,,,,,,,,,,,,,,,,,,,,,,,,,,,,,,,,,,,,,,,,,,,,,,,,,,,,,,,,,,,,,,,,,,,,,,,,,,,,,,,,,,,,
,,?,7.99753,0,,,,,,stimuli/images/PICTURE_108.png,FLIGHT,5ea06c67b325c90132fb5095,11/01/1946,2020-09-10_16h36.27.346,proactive3.1,2020.1.2,Win32,60,5f599a131af4471f3d752b7b,5f5a47e4c969390b893b7686,6,,,,,,calendar,,,,,,,,,,,6,1,0,50,50,59,1,,,,,,,,,,,,,,,,,,,,,,,,,,,,,,,,,,,,,,,,,,,,,,,,,,,,,,,,,,,,,,,,,,,,,,,,,,,,,,,,,,,,,,,,,,,,,,,,,,,,,,,,
,,?,0.00039,0,,,,,,stimuli/images/PICTURE_491.png,GLASS,5ea06c67b325c90132fb5095,11/01/1946,2020-09-10_16h36.27.346,proactive3.1,2020.1.2,Win32,60,5f599a131af4471f3d752b7b,5f5a47e4c969390b893b7686,6,,,,,,rug,,,,,,,,,,,2,1,0,51,51,14,1,,,,,,,,,,,,,,,,,,,,,,,,,,,,,,,,,,,,,,,,,,,,,,,,,,,,,,,,,,,,,,,,,,,,,,,,,,,,,,,,,,,,,,,,,,,,,,,,,,,,,,,,
,,?,0.00025,0,,,,,,stimuli/images/PICTURE_68.png,ROOF,5ea06c67b325c90132fb5095,11/01/1946,2020-09-10_16h36.27.346,proactive3.1,2020.1.2,Win32,60,5f599a131af4471f3d752b7b,5f5a47e4c969390b893b7686,6,,,,,,candle,,,,,,,,,,,4,1,0,52,52,38,1,,,,,,,,,,,,,,,,,,,,,,,,,,,,,,,,,,,,,,,,,,,,,,,,,,,,,,,,,,,,,,,,,,,,,,,,,,,,,,,,,,,,,,,,,,,,,,,,,,,,,,,,
,,?,0.00027,0,,,,,,stimuli/images/PICTURE_380.png,HONEY,5ea06c67b325c90132fb5095,11/01/1946,2020-09-10_16h36.27.346,proactive3.1,2020.1.2,Win32,60,5f599a131af4471f3d752b7b,5f5a47e4c969390b893b7686,6,,,,,,gorilla,,,,,,,,,,,2,1,0,53,53,19,1,,,,,,,,,,,,,,,,,,,,,,,,,,,,,,,,,,,,,,,,,,,,,,,,,,,,,,,,,,,,,,,,,,,,,,,,,,,,,,,,,,,,,,,,,,,,,,,,,,,,,,,,
,,?,0.000255,0,,,,,,stimuli/images/PICTURE_405.png,YEAR,5ea06c67b325c90132fb5095,11/01/1946,2020-09-10_16h36.27.346,proactive3.1,2020.1.2,Win32,60,5f599a131af4471f3d752b7b,5f5a47e4c969390b893b7686,6,,,,,,anchor,,,,,,,,,,,4,1,0,54,54,34,1,,,,,,,,,,,,,,,,,,,,,,,,,,,,,,,,,,,,,,,,,,,,,,,,,,,,,,,,,,,,,,,,,,,,,,,,,,,,,,,,,,,,,,,,,,,,,,,,,,,,,,,,
,,?,0.00025,0,,,,,,stimuli/images/PICTURE_340.png,LETTER,5ea06c67b325c90132fb5095,11/01/1946,2020-09-10_16h36.27.346,proactive3.1,2020.1.2,Win32,60,5f599a131af4471f3d752b7b,5f5a47e4c969390b893b7686,6,,,,,,mirror,,,,,,,,,,,3,1,0,55,55,24,1,,,,,,,,,,,,,,,,,,,,,,,,,,,,,,,,,,,,,,,,,,,,,,,,,,,,,,,,,,,,,,,,,,,,,,,,,,,,,,,,,,,,,,,,,,,,,,,,,,,,,,,,
,,?,0.000245,0,,,,,,stimuli/images/PICTURE_95.png,BOYS,5ea06c67b325c90132fb5095,11/01/1946,2020-09-10_16h36.27.346,proactive3.1,2020.1.2,Win32,60,5f599a131af4471f3d752b7b,5f5a47e4c969390b893b7686,6,,,,,,suitcase,,,,,,,,,,,1,1,0,56,56,1,1,,,,,,,,,,,,,,,,,,,,,,,,,,,,,,,,,,,,,,,,,,,,,,,,,,,,,,,,,,,,,,,,,,,,,,,,,,,,,,,,,,,,,,,,,,,,,,,,,,,,,,,,
,,?,0.00024,0,,,,,,stimuli/images/PICTURE_677.png,APPLE,5ea06c67b325c90132fb5095,11/01/1946,2020-09-10_16h36.27.346,proactive3.1,2020.1.2,Win32,60,5f599a131af4471f3d752b7b,5f5a47e4c969390b893b7686,6,,,,,,map,,,,,,,,,,,5,1,0,57,57,43,1,,,,,,,,,,,,,,,,,,,,,,,,,,,,,,,,,,,,,,,,,,,,,,,,,,,,,,,,,,,,,,,,,,,,,,,,,,,,,,,,,,,,,,,,,,,,,,,,,,,,,,,,
,,?,0.00024,0,,,,,,stimuli/images/PICTURE_308.png,FAMILY,5ea06c67b325c90132fb5095,11/01/1946,2020-09-10_16h36.27.346,proactive3.1,2020.1.2,Win32,60,5f599a131af4471f3d752b7b,5f5a47e4c969390b893b7686,6,,,,,,dice,,,,,,,,,,,4,1,0,58,58,36,1,,,,,,,,,,,,,,,,,,,,,,,,,,,,,,,,,,,,,,,,,,,,,,,,,,,,,,,,,,,,,,,,,,,,,,,,,,,,,,,,,,,,,,,,,,,,,,,,,,,,,,,,
,,?,0.00025,0,,,,,,stimuli/images/PICTURE_504.png,YEAR,5ea06c67b325c90132fb5095,11/01/1946,2020-09-10_16h36.27.346,proactive3.1,2020.1.2,Win32,60,5f599a131af4471f3d752b7b,5f5a47e4c969390b893b7686,6,,,,,,wheel,,,,,,,,,,,2,1,0,59,59,13,1,,,,,,,,,,,,,,,,,,,,,,,,,,,,,,,,,,,,,,,,,,,,,,,,,,,,,,,,,,,,,,,,,,,,,,,,,,,,,,,,,,,,,,,,,,,,,,,,,,,,,,,,
,,,,,,,,,,,,5ea06c67b325c90132fb5095,11/01/1946,2020-09-10_16h36.27.346,proactive3.1,2020.1.2,Win32,60,5f599a131af4471f3d752b7b,5f5a47e4c969390b893b7686,6,,,,,,,,,,,,,,,,,,,,,,,,0,1,1,1,1,stimuli/learn-block2.csv,,,,,,,,,,,,,,,,,,,,,,,,,,,,,,,,,,,,,,,,,,,,,,,,,,,,,,,,,,,,,,,,,,,,,,,,,,,,,,,,,,,,,,,,,,,,,,,,,,
,,,,,,,,,,stimuli/images/PICTURE_453.png,DUDE,5ea06c67b325c90132fb5095,11/01/1946,2020-09-10_16h36.27.346,proactive3.1,2020.1.2,Win32,60,5f599a131af4471f3d752b7b,5f5a47e4c969390b893b7686,6,,,,,,scissors,,,,,,0,0,0,27,1,3,0,,,,,,,,,,,,,,,,,,,,,,,,,,,,,,,,,,,,,,,,,,,,,,,,,,,,,,,,,,,,,,,,,,,,,,,,,,,,,,,,,,,,,,,,,,,,,,,,,,,,,,,,,,,,,
,,,,,,,,,,stimuli/images/PICTURE_654.png,VALLEY,5ea06c67b325c90132fb5095,11/01/1946,2020-09-10_16h36.27.346,proactive3.1,2020.1.2,Win32,60,5f599a131af4471f3d752b7b,5f5a47e4c969390b893b7686,6,,,,,,pencil,,,,,,0,1,1,1,1,1,0,,,,,,,,,,,,,,,,,,,,,,,,,,,,,,,,,,,,,,,,,,,,,,,,,,,,,,,,,,,,,,,,,,,,,,,,,,,,,,,,,,,,,,,,,,,,,,,,,,,,,,,,,,,,,
,,,,,,,,,,stimuli/images/PICTURE_356.png,DANGER,5ea06c67b325c90132fb5095,11/01/1946,2020-09-10_16h36.27.346,proactive3.1,2020.1.2,Win32,60,5f599a131af4471f3d752b7b,5f5a47e4c969390b893b7686,6,,,,,,pawn,,,,,,0,2,2,55,1,6,0,,,,,,,,,,,,,,,,,,,,,,,,,,,,,,,,,,,,,,,,,,,,,,,,,,,,,,,,,,,,,,,,,,,,,,,,,,,,,,,,,,,,,,,,,,,,,,,,,,,,,,,,,,,,,
,,,,,,,,,,stimuli/images/PICTURE_688.png,WOMEN,5ea06c67b325c90132fb5095,11/01/1946,2020-09-10_16h36.27.346,proactive3.1,2020.1.2,Win32,60,5f599a131af4471f3d752b7b,5f5a47e4c969390b893b7686,6,,,,,,runner,,,,,,0,3,3,14,1,2,0,,,,,,,,,,,,,,,,,,,,,,,,,,,,,,,,,,,,,,,,,,,,,,,,,,,,,,,,,,,,,,,,,,,,,,,,,,,,,,,,,,,,,,,,,,,,,,,,,,,,,,,,,,,,,
,,,,,,,,,,stimuli/images/PICTURE_467.png,DEMON,5ea06c67b325c90132fb5095,11/01/1946,2020-09-10_16h36.27.346,proactive3.1,2020.1.2,Win32,60,5f599a131af4471f3d752b7b,5f5a47e4c969390b893b7686,6,,,,,,peg,,,,,,0,4,4,23,1,3,0,,,,,,,,,,,,,,,,,,,,,,,,,,,,,,,,,,,,,,,,,,,,,,,,,,,,,,,,,,,,,,,,,,,,,,,,,,,,,,,,,,,,,,,,,,,,,,,,,,,,,,,,,,,,,
,,,,,,,,,,stimuli/images/PICTURE_469.png,ARTIST,5ea06c67b325c90132fb5095,11/01/1946,2020-09-10_16h36.27.346,proactive3.1,2020.1.2,Win32,60,5f599a131af4471f3d752b7b,5f5a47e4c969390b893b7686,6,,,,,,stool,,,,,,0,5,5,6,1,1,0,,,,,,,,,,,,,,,,,,,,,,,,,,,,,,,,,,,,,,,,,,,,,,,,,,,,,,,,,,,,,,,,,,,,,,,,,,,,,,,,,,,,,,,,,,,,,,,,,,,,,,,,,,,,,
,,,,,,,,,,stimuli/images/PICTURE_708.png,CLIENT,5ea06c67b325c90132fb5095,11/01/1946,2020-09-10_16h36.27.346,proactive3.1,2020.1.2,Win32,60,5f599a131af4471f3d752b7b,5f5a47e4c969390b893b7686,6,,,,,,monkey,,,,,,0,6,6,5,1,1,0,,,,,,,,,,,,,,,,,,,,,,,,,,,,,,,,,,,,,,,,,,,,,,,,,,,,,,,,,,,,,,,,,,,,,,,,,,,,,,,,,,,,,,,,,,,,,,,,,,,,,,,,,,,,,
,,,,,,,,,,stimuli/images/PICTURE_311.png,FRIEND,5ea06c67b325c90132fb5095,11/01/1946,2020-09-10_16h36.27.346,proactive3.1,2020.1.2,Win32,60,5f599a131af4471f3d752b7b,5f5a47e4c969390b893b7686,6,,,,,,razor,,,,,,0,7,7,34,1,4,0,,,,,,,,,,,,,,,,,,,,,,,,,,,,,,,,,,,,,,,,,,,,,,,,,,,,,,,,,,,,,,,,,,,,,,,,,,,,,,,,,,,,,,,,,,,,,,,,,,,,,,,,,,,,,
,,,,,,,,,,stimuli/images/PICTURE_744.png,SYSTEM,5ea06c67b325c90132fb5095,11/01/1946,2020-09-10_16h36.27.346,proactive3.1,2020.1.2,Win32,60,5f599a131af4471f3d752b7b,5f5a47e4c969390b893b7686,6,,,,,,ring,,,,,,0,8,8,43,1,5,0,,,,,,,,,,,,,,,,,,,,,,,,,,,,,,,,,,,,,,,,,,,,,,,,,,,,,,,,,,,,,,,,,,,,,,,,,,,,,,,,,,,,,,,,,,,,,,,,,,,,,,,,,,,,,
,,,,,,,,,,stimuli/images/PICTURE_311.png,BEAUTY,5ea06c67b325c90132fb5095,11/01/1946,2020-09-10_16h36.27.346,proactive3.1,2020.1.2,Win32,60,5f599a131af4471f3d752b7b,5f5a47e4c969390b893b7686,6,,,,,,razor,,,,,,0,9,9,13,1,2,0,,,,,,,,,,,,,,,,,,,,,,,,,,,,,,,,,,,,,,,,,,,,,,,,,,,,,,,,,,,,,,,,,,,,,,,,,,,,,,,,,,,,,,,,,,,,,,,,,,,,,,,,,,,,,
,,,,,,,,,,stimuli/images/PICTURE_380.png,PHOTO,5ea06c67b325c90132fb5095,11/01/1946,2020-09-10_16h36.27.346,proactive3.1,2020.1.2,Win32,60,5f599a131af4471f3d752b7b,5f5a47e4c969390b893b7686,6,,,,,,gorilla,,,,,,0,10,10,52,1,6,0,,,,,,,,,,,,,,,,,,,,,,,,,,,,,,,,,,,,,,,,,,,,,,,,,,,,,,,,,,,,,,,,,,,,,,,,,,,,,,,,,,,,,,,,,,,,,,,,,,,,,,,,,,,,,
,,,,,,,,,,stimuli/images/PICTURE_380.png,DEATH,5ea06c67b325c90132fb5095,11/01/1946,2020-09-10_16h36.27.346,proactive3.1,2020.1.2,Win32,60,5f599a131af4471f3d752b7b,5f5a47e4c969390b893b7686,6,,,,,,gorilla,,,,,,0,11,11,49,1,5,0,,,,,,,,,,,,,,,,,,,,,,,,,,,,,,,,,,,,,,,,,,,,,,,,,,,,,,,,,,,,,,,,,,,,,,,,,,,,,,,,,,,,,,,,,,,,,,,,,,,,,,,,,,,,,
,,,,,,,,,,stimuli/images/PICTURE_667.png,PLENTY,5ea06c67b325c90132fb5095,11/01/1946,2020-09-10_16h36.27.346,proactive3.1,2020.1.2,Win32,60,5f599a131af4471f3d752b7b,5f5a47e4c969390b893b7686,6,,,,,,daisy,,,,,,0,12,12,41,1,5,0,,,,,,,,,,,,,,,,,,,,,,,,,,,,,,,,,,,,,,,,,,,,,,,,,,,,,,,,,,,,,,,,,,,,,,,,,,,,,,,,,,,,,,,,,,,,,,,,,,,,,,,,,,,,,
,,,,,,,,,,stimuli/images/PICTURE_692.png,MONTH,5ea06c67b325c90132fb5095,11/01/1946,2020-09-10_16h36.27.346,proactive3.1,2020.1.2,Win32,60,5f599a131af4471f3d752b7b,5f5a47e4c969390b893b7686,6,,,,,,cherry,,,,,,0,13,13,16,1,2,0,,,,,,,,,,,,,,,,,,,,,,,,,,,,,,,,,,,,,,,,,,,,,,,,,,,,,,,,,,,,,,,,,,,,,,,,,,,,,,,,,,,,,,,,,,,,,,,,,,,,,,,,,,,,,
,,,,,,,,,,stimuli/images/PICTURE_233.png,WOMEN,5ea06c67b325c90132fb5095,11/01/1946,2020-09-10_16h36.27.346,proactive3.1,2020.1.2,Win32,60,5f599a131af4471f3d752b7b,5f5a47e4c969390b893b7686,6,,,,,,salt,,,,,,0,14,14,38,1,4,0,,,,,,,,,,,,,,,,,,,,,,,,,,,,,,,,,,,,,,,,,,,,,,,,,,,,,,,,,,,,,,,,,,,,,,,,,,,,,,,,,,,,,,,,,,,,,,,,,,,,,,,,,,,,,
,,,,,,,,,,stimuli/images/PICTURE_708.png,PENNY,5ea06c67b325c90132fb5095,11/01/1946,2020-09-10_16h36.27.346,proactive3.1,2020.1.2,Win32,60,5f599a131af4471f3d752b7b,5f5a47e4c969390b893b7686,6,,,,,,monkey,,,,,,0,15,15,31,1,4,0,,,,,,,,,,,,,,,,,,,,,,,,,,,,,,,,,,,,,,,,,,,,,,,,,,,,,,,,,,,,,,,,,,,,,,,,,,,,,,,,,,,,,,,,,,,,,,,,,,,,,,,,,,,,,
,,,,,,,,,,stimuli/images/PICTURE_744.png,SAKE,5ea06c67b325c90132fb5095,11/01/1946,2020-09-10_16h36.27.346,proactive3.1,2020.1.2,Win32,60,5f599a131af4471f3d752b7b,5f5a47e4c969390b893b7686,6,,,,,,ring,,,,,,0,16,16,17,1,2,0,,,,,,,,,,,,,,,,,,,,,,,,,,,,,,,,,,,,,,,,,,,,,,,,,,,,,,,,,,,,,,,,,,,,,,,,,,,,,,,,,,,,,,,,,,,,,,,,,,,,,,,,,,,,,
,,,,,,,,,,stimuli/images/PICTURE_123.png,ADVICE,5ea06c67b325c90132fb5095,11/01/1946,2020-09-10_16h36.27.346,proactive3.1,2020.1.2,Win32,60,5f599a131af4471f3d752b7b,5f5a47e4c969390b893b7686,6,,,,,,dart,,,,,,0,17,17,50,1,6,0,,,,,,,,,,,,,,,,,,,,,,,,,,,,,,,,,,,,,,,,,,,,,,,,,,,,,,,,,,,,,,,,,,,,,,,,,,,,,,,,,,,,,,,,,,,,,,,,,,,,,,,,,,,,,
,,,,,,,,,,stimuli/images/PICTURE_215.png,PLENTY,5ea06c67b325c90132fb5095,11/01/1946,2020-09-10_16h36.27.346,proactive3.1,2020.1.2,Win32,60,5f599a131af4471f3d752b7b,5f5a47e4c969390b893b7686,6,,,,,,boot,,,,,,0,18,18,37,1,4,0,,,,,,,,,,,,,,,,,,,,,,,,,,,,,,,,,,,,,,,,,,,,,,,,,,,,,,,,,,,,,,,,,,,,,,,,,,,,,,,,,,,,,,,,,,,,,,,,,,,,,,,,,,,,,
,,,,,,,,,,stimuli/images/PICTURE_314.png,GODS,5ea06c67b325c90132fb5095,11/01/1946,2020-09-10_16h36.27.346,proactive3.1,2020.1.2,Win32,60,5f599a131af4471f3d752b7b,5f5a47e4c969390b893b7686,6,,,,,,perfume,,,,,,0,19,19,11,1,2,0,,,,,,,,,,,,,,,,,,,,,,,,,,,,,,,,,,,,,,,,,,,,,,,,,,,,,,,,,,,,,,,,,,,,,,,,,,,,,,,,,,,,,,,,,,,,,,,,,,,,,,,,,,,,,
,,,,,,,,,,stimuli/images/PICTURE_675.png,WEAPON,5ea06c67b325c90132fb5095,11/01/1946,2020-09-10_16h36.27.346,proactive3.1,2020.1.2,Win32,60,5f599a131af4471f3d752b7b,5f5a47e4c969390b893b7686,6,,,,,,windmill,,,,,,0,20,20,32,1,4,0,,,,,,,,,,,,,,,,,,,,,,,,,,,,,,,,,,,,,,,,,,,,,,,,,,,,,,,,,,,,,,,,,,,,,,,,,,,,,,,,,,,,,,,,,,,,,,,,,,,,,,,,,,,,,
,,,,,,,,,,stimuli/images/PICTURE_667.png,BATH,5ea06c67b325c90132fb5095,11/01/1946,2020-09-10_16h36.27.346,proactive3.1,2020.1.2,Win32,60,5f599a131af4471f3d752b7b,5f5a47e4c969390b893b7686,6,,,,,,daisy,,,,,,0,21,21,4,1,1,0,,,,,,,,,,,,,,,,,,,,,,,,,,,,,,,,,,,,,,,,,,,,,,,,,,,,,,,,,,,,,,,,,,,,,,,,,,,,,,,,,,,,,,,,,,,,,,,,,,,,,,,,,,,,,
,,,,,,,,,,stimuli/images/PICTURE_160.png,LEADER,5ea06c67b325c90132fb5095,11/01/1946,2020-09-10_16h36.27.346,proactive3.1,2020.1.2,Win32,60,5f599a131af4471f3d752b7b,5f5a47e4c969390b893b7686,6,,,,,,wheelbarrow,,,,,,0,22,22,3,1,1,0,,,,,,,,,,,,,,,,,,,,,,,,,,,,,,,,,,,,,,,,,,,,,,,,,,,,,,,,,,,,,,,,,,,,,,,,,,,,,,,,,,,,,,,,,,,,,,,,,,,,,,,,,,,,,
,,,,,,,,,,stimuli/images/PICTURE_123.png,ADVICE,5ea06c67b325c90132fb5095,11/01/1946,2020-09-10_16h36.27.346,proactive3.1,2020.1.2,Win32,60,5f599a131af4471f3d752b7b,5f5a47e4c969390b893b7686,6,,,,,,dart,,,,,,0,23,23,40,1,5,0,,,,,,,,,,,,,,,,,,,,,,,,,,,,,,,,,,,,,,,,,,,,,,,,,,,,,,,,,,,,,,,,,,,,,,,,,,,,,,,,,,,,,,,,,,,,,,,,,,,,,,,,,,,,,
,,,,,,,,,,stimuli/images/PICTURE_32.png,JUNGLE,5ea06c67b325c90132fb5095,11/01/1946,2020-09-10_16h36.27.346,proactive3.1,2020.1.2,Win32,60,5f599a131af4471f3d752b7b,5f5a47e4c969390b893b7686,6,,,,,,crown,,,,,,0,24,24,45,1,5,0,,,,,,,,,,,,,,,,,,,,,,,,,,,,,,,,,,,,,,,,,,,,,,,,,,,,,,,,,,,,,,,,,,,,,,,,,,,,,,,,,,,,,,,,,,,,,,,,,,,,,,,,,,,,,
,,,,,,,,,,stimuli/images/PICTURE_160.png,FEET,5ea06c67b325c90132fb5095,11/01/1946,2020-09-10_16h36.27.346,proactive3.1,2020.1.2,Win32,60,5f599a131af4471f3d752b7b,5f5a47e4c969390b893b7686,6,,,,,,wheelbarrow,,,,,,0,25,25,58,1,6,0,,,,,,,,,,,,,,,,,,,,,,,,,,,,,,,,,,,,,,,,,,,,,,,,,,,,,,,,,,,,,,,,,,,,,,,,,,,,,,,,,,,,,,,,,,,,,,,,,,,,,,,,,,,,,
,,,,,,,,,,stimuli/images/PICTURE_208.png,MONTH,5ea06c67b325c90132fb5095,11/01/1946,2020-09-10_16h36.27.346,proactive3.1,2020.1.2,Win32,60,5f599a131af4471f3d752b7b,5f5a47e4c969390b893b7686,6,,,,,,microphone,,,,,,0,26,26,53,1,6,0,,,,,,,,,,,,,,,,,,,,,,,,,,,,,,,,,,,,,,,,,,,,,,,,,,,,,,,,,,,,,,,,,,,,,,,,,,,,,,,,,,,,,,,,,,,,,,,,,,,,,,,,,,,,,
,,,,,,,,,,stimuli/images/PICTURE_449.png,THING,5ea06c67b325c90132fb5095,11/01/1946,2020-09-10_16h36.27.346,proactive3.1,2020.1.2,Win32,60,5f599a131af4471f3d752b7b,5f5a47e4c969390b893b7686,6,,,,,,bench,,,,,,0,27,27,59,1,6,0,,,,,,,,,,,,,,,,,,,,,,,,,,,,,,,,,,,,,,,,,,,,,,,,,,,,,,,,,,,,,,,,,,,,,,,,,,,,,,,,,,,,,,,,,,,,,,,,,,,,,,,,,,,,,
,,,,,,,,,,stimuli/images/PICTURE_708.png,YARD,5ea06c67b325c90132fb5095,11/01/1946,2020-09-10_16h36.27.346,proactive3.1,2020.1.2,Win32,60,5f599a131af4471f3d752b7b,5f5a47e4c969390b893b7686,6,,,,,,monkey,,,,,,0,28,28,29,1,3,0,,,,,,,,,,,,,,,,,,,,,,,,,,,,,,,,,,,,,,,,,,,,,,,,,,,,,,,,,,,,,,,,,,,,,,,,,,,,,,,,,,,,,,,,,,,,,,,,,,,,,,,,,,,,,
,,,,,,,,,,stimuli/images/PICTURE_68.png,MILE,5ea06c67b325c90132fb5095,11/01/1946,2020-09-10_16h36.27.346,proactive3.1,2020.1.2,Win32,60,5f599a131af4471f3d752b7b,5f5a47e4c969390b893b7686,6,,,,,,candle,,,,,,0,29,29,44,1,5,0,,,,,,,,,,,,,,,,,,,,,,,,,,,,,,,,,,,,,,,,,,,,,,,,,,,,,,,,,,,,,,,,,,,,,,,,,,,,,,,,,,,,,,,,,,,,,,,,,,,,,,,,,,,,,
,,,,,,,,,,stimuli/images/PICTURE_248.png,DOZEN,5ea06c67b325c90132fb5095,11/01/1946,2020-09-10_16h36.27.346,proactive3.1,2020.1.2,Win32,60,5f599a131af4471f3d752b7b,5f5a47e4c969390b893b7686,6,,,,,,cart,,,,,,0,30,30,39,1,4,0,,,,,,,,,,,,,,,,,,,,,,,,,,,,,,,,,,,,,,,,,,,,,,,,,,,,,,,,,,,,,,,,,,,,,,,,,,,,,,,,,,,,,,,,,,,,,,,,,,,,,,,,,,,,,
,,,,,,,,,,stimuli/images/PICTURE_203.png,ARTIST,5ea06c67b325c90132fb5095,11/01/1946,2020-09-10_16h36.27.346,proactive3.1,2020.1.2,Win32,60,5f599a131af4471f3d752b7b,5f5a47e4c969390b893b7686,6,,,,,,cap,,,,,,0,31,31,26,1,3,0,,,,,,,,,,,,,,,,,,,,,,,,,,,,,,,,,,,,,,,,,,,,,,,,,,,,,,,,,,,,,,,,,,,,,,,,,,,,,,,,,,,,,,,,,,,,,,,,,,,,,,,,,,,,,
,,,,,,,,,,stimuli/images/PICTURE_308.png,ESTATE,5ea06c67b325c90132fb5095,11/01/1946,2020-09-10_16h36.27.346,proactive3.1,2020.1.2,Win32,60,5f599a131af4471f3d752b7b,5f5a47e4c969390b893b7686,6,,,,,,dice,,,,,,0,32,32,46,1,5,0,,,,,,,,,,,,,,,,,,,,,,,,,,,,,,,,,,,,,,,,,,,,,,,,,,,,,,,,,,,,,,,,,,,,,,,,,,,,,,,,,,,,,,,,,,,,,,,,,,,,,,,,,,,,,
,,,,,,,,,,stimuli/images/PICTURE_308.png,KIND,5ea06c67b325c90132fb5095,11/01/1946,2020-09-10_16h36.27.346,proactive3.1,2020.1.2,Win32,60,5f599a131af4471f3d752b7b,5f5a47e4c969390b893b7686,6,,,,,,dice,,,,,,0,33,33,54,1,6,0,,,,,,,,,,,,,,,,,,,,,,,,,,,,,,,,,,,,,,,,,,,,,,,,,,,,,,,,,,,,,,,,,,,,,,,,,,,,,,,,,,,,,,,,,,,,,,,,,,,,,,,,,,,,,
,,,,,,,,,,stimuli/images/PICTURE_348.png,SPEECH,5ea06c67b325c90132fb5095,11/01/1946,2020-09-10_16h36.27.346,proactive3.1,2020.1.2,Win32,60,5f599a131af4471f3d752b7b,5f5a47e4c969390b893b7686,6,,,,,,pepper,,,,,,0,34,34,20,1,3,0,,,,,,,,,,,,,,,,,,,,,,,,,,,,,,,,,,,,,,,,,,,,,,,,,,,,,,,,,,,,,,,,,,,,,,,,,,,,,,,,,,,,,,,,,,,,,,,,,,,,,,,,,,,,,
,,,,,,,,,,stimuli/images/PICTURE_147.png,MOMENT,5ea06c67b325c90132fb5095,11/01/1946,2020-09-10_16h36.27.346,proactive3.1,2020.1.2,Win32,60,5f599a131af4471f3d752b7b,5f5a47e4c969390b893b7686,6,,,,,,hanger,,,,,,0,35,35,51,1,6,0,,,,,,,,,,,,,,,,,,,,,,,,,,,,,,,,,,,,,,,,,,,,,,,,,,,,,,,,,,,,,,,,,,,,,,,,,,,,,,,,,,,,,,,,,,,,,,,,,,,,,,,,,,,,,
,,,,,,,,,,stimuli/images/PICTURE_488.png,STYLE,5ea06c67b325c90132fb5095,11/01/1946,2020-09-10_16h36.27.346,proactive3.1,2020.1.2,Win32,60,5f599a131af4471f3d752b7b,5f5a47e4c969390b893b7686,6,,,,,,sun,,,,,,0,36,36,33,1,4,0,,,,,,,,,,,,,,,,,,,,,,,,,,,,,,,,,,,,,,,,,,,,,,,,,,,,,,,,,,,,,,,,,,,,,,,,,,,,,,,,,,,,,,,,,,,,,,,,,,,,,,,,,,,,,
,,,,,,,,,,stimuli/images/PICTURE_285.png,ADVICE,5ea06c67b325c90132fb5095,11/01/1946,2020-09-10_16h36.27.346,proactive3.1,2020.1.2,Win32,60,5f599a131af4471f3d752b7b,5f5a47e4c969390b893b7686,6,,,,,,carrot,,,,,,0,37,37,12,1,2,0,,,,,,,,,,,,,,,,,,,,,,,,,,,,,,,,,,,,,,,,,,,,,,,,,,,,,,,,,,,,,,,,,,,,,,,,,,,,,,,,,,,,,,,,,,,,,,,,,,,,,,,,,,,,,
,,,,,,,,,,stimuli/images/PICTURE_339.png,PLENTY,5ea06c67b325c90132fb5095,11/01/1946,2020-09-10_16h36.27.346,proactive3.1,2020.1.2,Win32,60,5f599a131af4471f3d752b7b,5f5a47e4c969390b893b7686,6,,,,,,backpack,,,,,,0,38,38,0,1,1,0,,,,,,,,,,,,,,,,,,,,,,,,,,,,,,,,,,,,,,,,,,,,,,,,,,,,,,,,,,,,,,,,,,,,,,,,,,,,,,,,,,,,,,,,,,,,,,,,,,,,,,,,,,,,,
