consent_key.keys,consent_key.rt,recalled,recalled_rt,recall_acc,example_recall.thisRepN,example_recall.thisTrialN,example_recall.thisN,example_recall.thisIndex,example_recall.ran,file,word,participant,please enter your date of birth (dd/mm/yyyy),date,expName,psychopyVersion,OS,frameRate,STUDY_ID,SESSION_ID,list,prac_learn_study_loop.thisRepN,prac_learn_study_loop.thisTrialN,prac_learn_study_loop.thisN,prac_learn_study_loop.thisIndex,prac_learn_study_loop.ran,image,prac_learn_test_loop.thisRepN,prac_learn_test_loop.thisTrialN,prac_learn_test_loop.thisN,prac_learn_test_loop.thisIndex,prac_learn_test_loop.ran,learn_study_loop.thisRepN,learn_study_loop.thisTrialN,learn_study_loop.thisN,learn_study_loop.thisIndex,learn_study_loop.ran,list_no,block_no,learn_test_loop.thisRepN,learn_test_loop.thisTrialN,learn_test_loop.thisN,learn_test_loop.thisIndex,learn_test_loop.ran,learn_blocks.thisRepN,learn_blocks.thisTrialN,learn_blocks.thisN,learn_blocks.thisIndex,learn_blocks.ran,block_csv,key_resp_13.keys,key_resp_13.rt,learn_blocks_loop.thisRepN,learn_blocks_loop.thisTrialN,learn_blocks_loop.thisN,learn_blocks_loop.thisIndex,learn_blocks_loop.ran,final_learn_test.thisRepN,final_learn_test.thisTrialN,final_learn_test.thisN,final_learn_test.thisIndex,final_learn_test.ran,s_im1,s_im2,s_im3,s_im4,s_im5,s_im6,s_im7,s_im8,s_im1pos,s_im2pos,s_im3pos,s_im4pos,s_im5pos,s_im6pos,s_im7pos,s_im8pos,s_tarright,search_resp.keys,search_loop.thisRepN,search_loop.thisTrialN,search_loop.thisN,search_loop.thisIndex,search_loop.ran,search_resp.rt,prac_wm_search_loop.thisRepN,prac_wm_search_loop.thisTrialN,prac_wm_search_loop.thisN,prac_wm_search_loop.thisIndex,prac_wm_search_loop.ran,prac_wm_test_loop.thisRepN,prac_wm_test_loop.thisTrialN,prac_wm_test_loop.thisN,prac_wm_test_loop.thisIndex,prac_wm_test_loop.ran,wm_recalled1,wm_recall_rt1,wm_probed1,wm_recall_acc1,wm_recalled2,wm_recall_rt2,wm_probed2,wm_recall_acc2,wm_recalled3,wm_recall_rt3,wm_probed3,wm_recall_acc3,wm_recalled4,wm_recall_rt4,wm_probed4,wm_recall_acc4,prac_wm_trial_loop.thisRepN,prac_wm_trial_loop.thisTrialN,prac_wm_trial_loop.thisN,prac_wm_trial_loop.thisIndex,prac_wm_trial_loop.ran,word1,image1,file1,item_type1,word2,image2,file2,item_type2,word4,image4,file4,item_type4,word3,image3,file3,item_type3,wm_search_loop.thisRepN,wm_search_loop.thisTrialN,wm_search_loop.thisN,wm_search_loop.thisIndex,wm_search_loop.ran,wm_test_loop.thisRepN,wm_test_loop.thisTrialN,wm_test_loop.thisN,wm_test_loop.thisIndex,wm_test_loop.ran,wm_trial_loop.thisRepN,wm_trial_loop.thisTrialN,wm_trial_loop.thisN,wm_trial_loop.thisIndex,wm_trial_loop.ran
y,3.050695,TOUGH,3.367995,1,0,0,0,0,1,stimuli/images/PICTURE_747.png,TOUGH,5ea047d315537303f1e60ef9,29/09/1953,2020-09-10_14h38.41.341,proactive3.1,2020.1.2,Win32,60,5f599a131af4471f3d752b7b,5f5a24668ddeed0729625102,3,,,,,,,,,,,,,,,,,,,,,,,,,,,,,,,,,,,,,,,,,,,,,,,,,,,,,,,,,,,,,,,,,,,,,,,,,,,,,,,,,,,,,,,,,,,,,,,,,,,,,,,,,,,,,,,,,,,,,,,,,,,,,,,
,,,,,,,,,,stimuli/images/PICTURE_658.png,DEVIL,5ea047d315537303f1e60ef9,29/09/1953,2020-09-10_14h38.41.341,proactive3.1,2020.1.2,Win32,60,5f599a131af4471f3d752b7b,5f5a24668ddeed0729625102,3,0,0,0,3,1,crow,,,,,,,,,,,,,,,,,,,,,,,,,,,,,,,,,,,,,,,,,,,,,,,,,,,,,,,,,,,,,,,,,,,,,,,,,,,,,,,,,,,,,,,,,,,,,,,,,,,,,,,,,,,,,,,,,,,,,,,,,
,,,,,,,,,,stimuli/images/PICTURE_378.png,LOSS,5ea047d315537303f1e60ef9,29/09/1953,2020-09-10_14h38.41.341,proactive3.1,2020.1.2,Win32,60,5f599a131af4471f3d752b7b,5f5a24668ddeed0729625102,3,0,1,1,2,1,lobster,,,,,,,,,,,,,,,,,,,,,,,,,,,,,,,,,,,,,,,,,,,,,,,,,,,,,,,,,,,,,,,,,,,,,,,,,,,,,,,,,,,,,,,,,,,,,,,,,,,,,,,,,,,,,,,,,,,,,,,,,
,,,,,,,,,,stimuli/images/PICTURE_697.png,KILLER,5ea047d315537303f1e60ef9,29/09/1953,2020-09-10_14h38.41.341,proactive3.1,2020.1.2,Win32,60,5f599a131af4471f3d752b7b,5f5a24668ddeed0729625102,3,0,2,2,4,1,peach,,,,,,,,,,,,,,,,,,,,,,,,,,,,,,,,,,,,,,,,,,,,,,,,,,,,,,,,,,,,,,,,,,,,,,,,,,,,,,,,,,,,,,,,,,,,,,,,,,,,,,,,,,,,,,,,,,,,,,,,,
,,,,,,,,,,stimuli/images/PICTURE_727.png,CELL,5ea047d315537303f1e60ef9,29/09/1953,2020-09-10_14h38.41.341,proactive3.1,2020.1.2,Win32,60,5f599a131af4471f3d752b7b,5f5a24668ddeed0729625102,3,0,3,3,1,1,hose,,,,,,,,,,,,,,,,,,,,,,,,,,,,,,,,,,,,,,,,,,,,,,,,,,,,,,,,,,,,,,,,,,,,,,,,,,,,,,,,,,,,,,,,,,,,,,,,,,,,,,,,,,,,,,,,,,,,,,,,,
,,DEVIL,6.1062,1,,,,,,stimuli/images/PICTURE_658.png,DEVIL,5ea047d315537303f1e60ef9,29/09/1953,2020-09-10_14h38.41.341,proactive3.1,2020.1.2,Win32,60,5f599a131af4471f3d752b7b,5f5a24668ddeed0729625102,3,,,,,,crow,0,0,0,3,1,,,,,,,,,,,,,,,,,,,,,,,,,,,,,,,,,,,,,,,,,,,,,,,,,,,,,,,,,,,,,,,,,,,,,,,,,,,,,,,,,,,,,,,,,,,,,,,,,,,,,,,,,,,,,,,,,,,,
,,KILLER,3.61476,1,,,,,,stimuli/images/PICTURE_697.png,KILLER,5ea047d315537303f1e60ef9,29/09/1953,2020-09-10_14h38.41.341,proactive3.1,2020.1.2,Win32,60,5f599a131af4471f3d752b7b,5f5a24668ddeed0729625102,3,,,,,,peach,0,1,1,4,1,,,,,,,,,,,,,,,,,,,,,,,,,,,,,,,,,,,,,,,,,,,,,,,,,,,,,,,,,,,,,,,,,,,,,,,,,,,,,,,,,,,,,,,,,,,,,,,,,,,,,,,,,,,,,,,,,,,,
,,GENIUS,3.399175,1,,,,,,stimuli/images/PICTURE_269.png,GENIUS,5ea047d315537303f1e60ef9,29/09/1953,2020-09-10_14h38.41.341,proactive3.1,2020.1.2,Win32,60,5f599a131af4471f3d752b7b,5f5a24668ddeed0729625102,3,,,,,,chameleon,0,2,2,0,1,,,,,,,,,,,,,,,,,,,,,,,,,,,,,,,,,,,,,,,,,,,,,,,,,,,,,,,,,,,,,,,,,,,,,,,,,,,,,,,,,,,,,,,,,,,,,,,,,,,,,,,,,,,,,,,,,,,,
,,LOSS,2.296125,1,,,,,,stimuli/images/PICTURE_378.png,LOSS,5ea047d315537303f1e60ef9,29/09/1953,2020-09-10_14h38.41.341,proactive3.1,2020.1.2,Win32,60,5f599a131af4471f3d752b7b,5f5a24668ddeed0729625102,3,,,,,,lobster,0,3,3,2,1,,,,,,,,,,,,,,,,,,,,,,,,,,,,,,,,,,,,,,,,,,,,,,,,,,,,,,,,,,,,,,,,,,,,,,,,,,,,,,,,,,,,,,,,,,,,,,,,,,,,,,,,,,,,,,,,,,,,
,,?,6.031985,0,,,,,,stimuli/images/PICTURE_727.png,CELL,5ea047d315537303f1e60ef9,29/09/1953,2020-09-10_14h38.41.341,proactive3.1,2020.1.2,Win32,60,5f599a131af4471f3d752b7b,5f5a24668ddeed0729625102,3,,,,,,hose,0,4,4,1,1,,,,,,,,,,,,,,,,,,,,,,,,,,,,,,,,,,,,,,,,,,,,,,,,,,,,,,,,,,,,,,,,,,,,,,,,,,,,,,,,,,,,,,,,,,,,,,,,,,,,,,,,,,,,,,,,,,,,
,,,,,,,,,,stimuli/images/PICTURE_151.png,GIRL,5ea047d315537303f1e60ef9,29/09/1953,2020-09-10_14h38.41.341,proactive3.1,2020.1.2,Win32,60,5f599a131af4471f3d752b7b,5f5a24668ddeed0729625102,3,,,,,,tray,,,,,,0,0,0,19,1,2,0,,,,,,,,,,,,,,,,,,,,,,,,,,,,,,,,,,,,,,,,,,,,,,,,,,,,,,,,,,,,,,,,,,,,,,,,,,,,,,,,,,,,,,,,,,,,,,,,,,,,,,,,,,,,,
,,,,,,,,,,stimuli/images/PICTURE_504.png,BODY,5ea047d315537303f1e60ef9,29/09/1953,2020-09-10_14h38.41.341,proactive3.1,2020.1.2,Win32,60,5f599a131af4471f3d752b7b,5f5a24668ddeed0729625102,3,,,,,,wheel,,,,,,0,1,1,8,1,1,0,,,,,,,,,,,,,,,,,,,,,,,,,,,,,,,,,,,,,,,,,,,,,,,,,,,,,,,,,,,,,,,,,,,,,,,,,,,,,,,,,,,,,,,,,,,,,,,,,,,,,,,,,,,,,
,,,,,,,,,,stimuli/images/PICTURE_675.png,WEAPON,5ea047d315537303f1e60ef9,29/09/1953,2020-09-10_14h38.41.341,proactive3.1,2020.1.2,Win32,60,5f599a131af4471f3d752b7b,5f5a24668ddeed0729625102,3,,,,,,windmill,,,,,,0,2,2,32,1,4,0,,,,,,,,,,,,,,,,,,,,,,,,,,,,,,,,,,,,,,,,,,,,,,,,,,,,,,,,,,,,,,,,,,,,,,,,,,,,,,,,,,,,,,,,,,,,,,,,,,,,,,,,,,,,,
,,,,,,,,,,stimuli/images/PICTURE_215.png,PLENTY,5ea047d315537303f1e60ef9,29/09/1953,2020-09-10_14h38.41.341,proactive3.1,2020.1.2,Win32,60,5f599a131af4471f3d752b7b,5f5a24668ddeed0729625102,3,,,,,,boot,,,,,,0,3,3,37,1,4,0,,,,,,,,,,,,,,,,,,,,,,,,,,,,,,,,,,,,,,,,,,,,,,,,,,,,,,,,,,,,,,,,,,,,,,,,,,,,,,,,,,,,,,,,,,,,,,,,,,,,,,,,,,,,,
,,,,,,,,,,stimuli/images/PICTURE_203.png,ARTIST,5ea047d315537303f1e60ef9,29/09/1953,2020-09-10_14h38.41.341,proactive3.1,2020.1.2,Win32,60,5f599a131af4471f3d752b7b,5f5a24668ddeed0729625102,3,,,,,,cap,,,,,,0,4,4,26,1,3,0,,,,,,,,,,,,,,,,,,,,,,,,,,,,,,,,,,,,,,,,,,,,,,,,,,,,,,,,,,,,,,,,,,,,,,,,,,,,,,,,,,,,,,,,,,,,,,,,,,,,,,,,,,,,,
,,,,,,,,,,stimuli/images/PICTURE_208.png,LOTS,5ea047d315537303f1e60ef9,29/09/1953,2020-09-10_14h38.41.341,proactive3.1,2020.1.2,Win32,60,5f599a131af4471f3d752b7b,5f5a24668ddeed0729625102,3,,,,,,microphone,,,,,,0,5,5,10,1,2,0,,,,,,,,,,,,,,,,,,,,,,,,,,,,,,,,,,,,,,,,,,,,,,,,,,,,,,,,,,,,,,,,,,,,,,,,,,,,,,,,,,,,,,,,,,,,,,,,,,,,,,,,,,,,,
,,,,,,,,,,stimuli/images/PICTURE_95.png,STYLE,5ea047d315537303f1e60ef9,29/09/1953,2020-09-10_14h38.41.341,proactive3.1,2020.1.2,Win32,60,5f599a131af4471f3d752b7b,5f5a24668ddeed0729625102,3,,,,,,suitcase,,,,,,0,6,6,25,1,3,0,,,,,,,,,,,,,,,,,,,,,,,,,,,,,,,,,,,,,,,,,,,,,,,,,,,,,,,,,,,,,,,,,,,,,,,,,,,,,,,,,,,,,,,,,,,,,,,,,,,,,,,,,,,,,
,,,,,,,,,,stimuli/images/PICTURE_487.png,FLIGHT,5ea047d315537303f1e60ef9,29/09/1953,2020-09-10_14h38.41.341,proactive3.1,2020.1.2,Win32,60,5f599a131af4471f3d752b7b,5f5a24668ddeed0729625102,3,,,,,,basket,,,,,,0,7,7,9,1,1,0,,,,,,,,,,,,,,,,,,,,,,,,,,,,,,,,,,,,,,,,,,,,,,,,,,,,,,,,,,,,,,,,,,,,,,,,,,,,,,,,,,,,,,,,,,,,,,,,,,,,,,,,,,,,,
,,,,,,,,,,stimuli/images/PICTURE_692.png,MONTH,5ea047d315537303f1e60ef9,29/09/1953,2020-09-10_14h38.41.341,proactive3.1,2020.1.2,Win32,60,5f599a131af4471f3d752b7b,5f5a24668ddeed0729625102,3,,,,,,cherry,,,,,,0,8,8,16,1,2,0,,,,,,,,,,,,,,,,,,,,,,,,,,,,,,,,,,,,,,,,,,,,,,,,,,,,,,,,,,,,,,,,,,,,,,,,,,,,,,,,,,,,,,,,,,,,,,,,,,,,,,,,,,,,,
,,,,,,,,,,stimuli/images/PICTURE_469.png,LETTER,5ea047d315537303f1e60ef9,29/09/1953,2020-09-10_14h38.41.341,proactive3.1,2020.1.2,Win32,60,5f599a131af4471f3d752b7b,5f5a24668ddeed0729625102,3,,,,,,stool,,,,,,0,9,9,42,1,5,0,,,,,,,,,,,,,,,,,,,,,,,,,,,,,,,,,,,,,,,,,,,,,,,,,,,,,,,,,,,,,,,,,,,,,,,,,,,,,,,,,,,,,,,,,,,,,,,,,,,,,,,,,,,,,
,,,,,,,,,,stimuli/images/PICTURE_688.png,WOMEN,5ea047d315537303f1e60ef9,29/09/1953,2020-09-10_14h38.41.341,proactive3.1,2020.1.2,Win32,60,5f599a131af4471f3d752b7b,5f5a24668ddeed0729625102,3,,,,,,runner,,,,,,0,10,10,14,1,2,0,,,,,,,,,,,,,,,,,,,,,,,,,,,,,,,,,,,,,,,,,,,,,,,,,,,,,,,,,,,,,,,,,,,,,,,,,,,,,,,,,,,,,,,,,,,,,,,,,,,,,,,,,,,,,
,,,,,,,,,,stimuli/images/PICTURE_327.png,BEAUTY,5ea047d315537303f1e60ef9,29/09/1953,2020-09-10_14h38.41.341,proactive3.1,2020.1.2,Win32,60,5f599a131af4471f3d752b7b,5f5a24668ddeed0729625102,3,,,,,,helmet,,,,,,0,11,11,48,1,5,0,,,,,,,,,,,,,,,,,,,,,,,,,,,,,,,,,,,,,,,,,,,,,,,,,,,,,,,,,,,,,,,,,,,,,,,,,,,,,,,,,,,,,,,,,,,,,,,,,,,,,,,,,,,,,
,,,,,,,,,,stimuli/images/PICTURE_208.png,THING,5ea047d315537303f1e60ef9,29/09/1953,2020-09-10_14h38.41.341,proactive3.1,2020.1.2,Win32,60,5f599a131af4471f3d752b7b,5f5a24668ddeed0729625102,3,,,,,,microphone,,,,,,0,12,12,47,1,5,0,,,,,,,,,,,,,,,,,,,,,,,,,,,,,,,,,,,,,,,,,,,,,,,,,,,,,,,,,,,,,,,,,,,,,,,,,,,,,,,,,,,,,,,,,,,,,,,,,,,,,,,,,,,,,
,,,,,,,,,,stimuli/images/PICTURE_348.png,SPEECH,5ea047d315537303f1e60ef9,29/09/1953,2020-09-10_14h38.41.341,proactive3.1,2020.1.2,Win32,60,5f599a131af4471f3d752b7b,5f5a24668ddeed0729625102,3,,,,,,pepper,,,,,,0,13,13,20,1,3,0,,,,,,,,,,,,,,,,,,,,,,,,,,,,,,,,,,,,,,,,,,,,,,,,,,,,,,,,,,,,,,,,,,,,,,,,,,,,,,,,,,,,,,,,,,,,,,,,,,,,,,,,,,,,,
,,,,,,,,,,stimuli/images/PICTURE_68.png,MILE,5ea047d315537303f1e60ef9,29/09/1953,2020-09-10_14h38.41.341,proactive3.1,2020.1.2,Win32,60,5f599a131af4471f3d752b7b,5f5a24668ddeed0729625102,3,,,,,,candle,,,,,,0,14,14,44,1,5,0,,,,,,,,,,,,,,,,,,,,,,,,,,,,,,,,,,,,,,,,,,,,,,,,,,,,,,,,,,,,,,,,,,,,,,,,,,,,,,,,,,,,,,,,,,,,,,,,,,,,,,,,,,,,,
,,,,,,,,,,stimuli/images/PICTURE_233.png,WOMEN,5ea047d315537303f1e60ef9,29/09/1953,2020-09-10_14h38.41.341,proactive3.1,2020.1.2,Win32,60,5f599a131af4471f3d752b7b,5f5a24668ddeed0729625102,3,,,,,,salt,,,,,,0,15,15,38,1,4,0,,,,,,,,,,,,,,,,,,,,,,,,,,,,,,,,,,,,,,,,,,,,,,,,,,,,,,,,,,,,,,,,,,,,,,,,,,,,,,,,,,,,,,,,,,,,,,,,,,,,,,,,,,,,,
,,,,,,,,,,stimuli/images/PICTURE_708.png,YARD,5ea047d315537303f1e60ef9,29/09/1953,2020-09-10_14h38.41.341,proactive3.1,2020.1.2,Win32,60,5f599a131af4471f3d752b7b,5f5a24668ddeed0729625102,3,,,,,,monkey,,,,,,0,16,16,29,1,3,0,,,,,,,,,,,,,,,,,,,,,,,,,,,,,,,,,,,,,,,,,,,,,,,,,,,,,,,,,,,,,,,,,,,,,,,,,,,,,,,,,,,,,,,,,,,,,,,,,,,,,,,,,,,,,
,,,,,,,,,,stimuli/images/PICTURE_255.png,AREA,5ea047d315537303f1e60ef9,29/09/1953,2020-09-10_14h38.41.341,proactive3.1,2020.1.2,Win32,60,5f599a131af4471f3d752b7b,5f5a24668ddeed0729625102,3,,,,,,shovel,,,,,,0,17,17,22,1,3,0,,,,,,,,,,,,,,,,,,,,,,,,,,,,,,,,,,,,,,,,,,,,,,,,,,,,,,,,,,,,,,,,,,,,,,,,,,,,,,,,,,,,,,,,,,,,,,,,,,,,,,,,,,,,,
,,,,,,,,,,stimuli/images/PICTURE_449.png,THING,5ea047d315537303f1e60ef9,29/09/1953,2020-09-10_14h38.41.341,proactive3.1,2020.1.2,Win32,60,5f599a131af4471f3d752b7b,5f5a24668ddeed0729625102,3,,,,,,bench,,,,,,0,18,18,59,1,6,0,,,,,,,,,,,,,,,,,,,,,,,,,,,,,,,,,,,,,,,,,,,,,,,,,,,,,,,,,,,,,,,,,,,,,,,,,,,,,,,,,,,,,,,,,,,,,,,,,,,,,,,,,,,,,
,,,,,,,,,,stimuli/images/PICTURE_470.png,CASINO,5ea047d315537303f1e60ef9,29/09/1953,2020-09-10_14h38.41.341,proactive3.1,2020.1.2,Win32,60,5f599a131af4471f3d752b7b,5f5a24668ddeed0729625102,3,,,,,,motorbike,,,,,,0,19,19,36,1,4,0,,,,,,,,,,,,,,,,,,,,,,,,,,,,,,,,,,,,,,,,,,,,,,,,,,,,,,,,,,,,,,,,,,,,,,,,,,,,,,,,,,,,,,,,,,,,,,,,,,,,,,,,,,,,,
,,,,,,,,,,stimuli/images/PICTURE_248.png,DOZEN,5ea047d315537303f1e60ef9,29/09/1953,2020-09-10_14h38.41.341,proactive3.1,2020.1.2,Win32,60,5f599a131af4471f3d752b7b,5f5a24668ddeed0729625102,3,,,,,,cart,,,,,,0,20,20,39,1,4,0,,,,,,,,,,,,,,,,,,,,,,,,,,,,,,,,,,,,,,,,,,,,,,,,,,,,,,,,,,,,,,,,,,,,,,,,,,,,,,,,,,,,,,,,,,,,,,,,,,,,,,,,,,,,,
,,,,,,,,,,stimuli/images/PICTURE_314.png,GODS,5ea047d315537303f1e60ef9,29/09/1953,2020-09-10_14h38.41.341,proactive3.1,2020.1.2,Win32,60,5f599a131af4471f3d752b7b,5f5a24668ddeed0729625102,3,,,,,,perfume,,,,,,0,21,21,11,1,2,0,,,,,,,,,,,,,,,,,,,,,,,,,,,,,,,,,,,,,,,,,,,,,,,,,,,,,,,,,,,,,,,,,,,,,,,,,,,,,,,,,,,,,,,,,,,,,,,,,,,,,,,,,,,,,
,,,,,,,,,,stimuli/images/PICTURE_308.png,KIND,5ea047d315537303f1e60ef9,29/09/1953,2020-09-10_14h38.41.341,proactive3.1,2020.1.2,Win32,60,5f599a131af4471f3d752b7b,5f5a24668ddeed0729625102,3,,,,,,dice,,,,,,0,22,22,54,1,6,0,,,,,,,,,,,,,,,,,,,,,,,,,,,,,,,,,,,,,,,,,,,,,,,,,,,,,,,,,,,,,,,,,,,,,,,,,,,,,,,,,,,,,,,,,,,,,,,,,,,,,,,,,,,,,
,,,,,,,,,,stimuli/images/PICTURE_453.png,PLENTY,5ea047d315537303f1e60ef9,29/09/1953,2020-09-10_14h38.41.341,proactive3.1,2020.1.2,Win32,60,5f599a131af4471f3d752b7b,5f5a24668ddeed0729625102,3,,,,,,scissors,,,,,,0,23,23,56,1,6,0,,,,,,,,,,,,,,,,,,,,,,,,,,,,,,,,,,,,,,,,,,,,,,,,,,,,,,,,,,,,,,,,,,,,,,,,,,,,,,,,,,,,,,,,,,,,,,,,,,,,,,,,,,,,,
,,,,,,,,,,stimuli/images/PICTURE_488.png,STYLE,5ea047d315537303f1e60ef9,29/09/1953,2020-09-10_14h38.41.341,proactive3.1,2020.1.2,Win32,60,5f599a131af4471f3d752b7b,5f5a24668ddeed0729625102,3,,,,,,sun,,,,,,0,24,24,33,1,4,0,,,,,,,,,,,,,,,,,,,,,,,,,,,,,,,,,,,,,,,,,,,,,,,,,,,,,,,,,,,,,,,,,,,,,,,,,,,,,,,,,,,,,,,,,,,,,,,,,,,,,,,,,,,,,
,,,,,,,,,,stimuli/images/PICTURE_667.png,BATH,5ea047d315537303f1e60ef9,29/09/1953,2020-09-10_14h38.41.341,proactive3.1,2020.1.2,Win32,60,5f599a131af4471f3d752b7b,5f5a24668ddeed0729625102,3,,,,,,daisy,,,,,,0,25,25,4,1,1,0,,,,,,,,,,,,,,,,,,,,,,,,,,,,,,,,,,,,,,,,,,,,,,,,,,,,,,,,,,,,,,,,,,,,,,,,,,,,,,,,,,,,,,,,,,,,,,,,,,,,,,,,,,,,,
,,,,,,,,,,stimuli/images/PICTURE_654.png,VALLEY,5ea047d315537303f1e60ef9,29/09/1953,2020-09-10_14h38.41.341,proactive3.1,2020.1.2,Win32,60,5f599a131af4471f3d752b7b,5f5a24668ddeed0729625102,3,,,,,,pencil,,,,,,0,26,26,1,1,1,0,,,,,,,,,,,,,,,,,,,,,,,,,,,,,,,,,,,,,,,,,,,,,,,,,,,,,,,,,,,,,,,,,,,,,,,,,,,,,,,,,,,,,,,,,,,,,,,,,,,,,,,,,,,,,
,,,,,,,,,,stimuli/images/PICTURE_339.png,PLENTY,5ea047d315537303f1e60ef9,29/09/1953,2020-09-10_14h38.41.341,proactive3.1,2020.1.2,Win32,60,5f599a131af4471f3d752b7b,5f5a24668ddeed0729625102,3,,,,,,backpack,,,,,,0,27,27,0,1,1,0,,,,,,,,,,,,,,,,,,,,,,,,,,,,,,,,,,,,,,,,,,,,,,,,,,,,,,,,,,,,,,,,,,,,,,,,,,,,,,,,,,,,,,,,,,,,,,,,,,,,,,,,,,,,,
,,,,,,,,,,stimuli/images/PICTURE_744.png,SYSTEM,5ea047d315537303f1e60ef9,29/09/1953,2020-09-10_14h38.41.341,proactive3.1,2020.1.2,Win32,60,5f599a131af4471f3d752b7b,5f5a24668ddeed0729625102,3,,,,,,ring,,,,,,0,28,28,43,1,5,0,,,,,,,,,,,,,,,,,,,,,,,,,,,,,,,,,,,,,,,,,,,,,,,,,,,,,,,,,,,,,,,,,,,,,,,,,,,,,,,,,,,,,,,,,,,,,,,,,,,,,,,,,,,,,
,,,,,,,,,,stimuli/images/PICTURE_285.png,ADVICE,5ea047d315537303f1e60ef9,29/09/1953,2020-09-10_14h38.41.341,proactive3.1,2020.1.2,Win32,60,5f599a131af4471f3d752b7b,5f5a24668ddeed0729625102,3,,,,,,carrot,,,,,,0,29,29,12,1,2,0,,,,,,,,,,,,,,,,,,,,,,,,,,,,,,,,,,,,,,,,,,,,,,,,,,,,,,,,,,,,,,,,,,,,,,,,,,,,,,,,,,,,,,,,,,,,,,,,,,,,,,,,,,,,,
,,,,,,,,,,stimuli/images/PICTURE_123.png,ADVICE,5ea047d315537303f1e60ef9,29/09/1953,2020-09-10_14h38.41.341,proactive3.1,2020.1.2,Win32,60,5f599a131af4471f3d752b7b,5f5a24668ddeed0729625102,3,,,,,,dart,,,,,,0,30,30,50,1,6,0,,,,,,,,,,,,,,,,,,,,,,,,,,,,,,,,,,,,,,,,,,,,,,,,,,,,,,,,,,,,,,,,,,,,,,,,,,,,,,,,,,,,,,,,,,,,,,,,,,,,,,,,,,,,,
,,,,,,,,,,stimuli/images/PICTURE_123.png,ADVICE,5ea047d315537303f1e60ef9,29/09/1953,2020-09-10_14h38.41.341,proactive3.1,2020.1.2,Win32,60,5f599a131af4471f3d752b7b,5f5a24668ddeed0729625102,3,,,,,,dart,,,,,,0,31,31,40,1,5,0,,,,,,,,,,,,,,,,,,,,,,,,,,,,,,,,,,,,,,,,,,,,,,,,,,,,,,,,,,,,,,,,,,,,,,,,,,,,,,,,,,,,,,,,,,,,,,,,,,,,,,,,,,,,,
,,,,,,,,,,stimuli/images/PICTURE_708.png,PENNY,5ea047d315537303f1e60ef9,29/09/1953,2020-09-10_14h38.41.341,proactive3.1,2020.1.2,Win32,60,5f599a131af4471f3d752b7b,5f5a24668ddeed0729625102,3,,,,,,monkey,,,,,,0,32,32,31,1,4,0,,,,,,,,,,,,,,,,,,,,,,,,,,,,,,,,,,,,,,,,,,,,,,,,,,,,,,,,,,,,,,,,,,,,,,,,,,,,,,,,,,,,,,,,,,,,,,,,,,,,,,,,,,,,,
,,,,,,,,,,stimuli/images/PICTURE_177.png,CARS,5ea047d315537303f1e60ef9,29/09/1953,2020-09-10_14h38.41.341,proactive3.1,2020.1.2,Win32,60,5f599a131af4471f3d752b7b,5f5a24668ddeed0729625102,3,,,,,,mushroom,,,,,,0,33,33,35,1,4,0,,,,,,,,,,,,,,,,,,,,,,,,,,,,,,,,,,,,,,,,,,,,,,,,,,,,,,,,,,,,,,,,,,,,,,,,,,,,,,,,,,,,,,,,,,,,,,,,,,,,,,,,,,,,,
,,,,,,,,,,stimuli/images/PICTURE_509.png,PHOTO,5ea047d315537303f1e60ef9,29/09/1953,2020-09-10_14h38.41.341,proactive3.1,2020.1.2,Win32,60,5f599a131af4471f3d752b7b,5f5a24668ddeed0729625102,3,,,,,,telephone,,,,,,0,34,34,21,1,3,0,,,,,,,,,,,,,,,,,,,,,,,,,,,,,,,,,,,,,,,,,,,,,,,,,,,,,,,,,,,,,,,,,,,,,,,,,,,,,,,,,,,,,,,,,,,,,,,,,,,,,,,,,,,,,
,,,,,,,,,,stimuli/images/PICTURE_744.png,SAKE,5ea047d315537303f1e60ef9,29/09/1953,2020-09-10_14h38.41.341,proactive3.1,2020.1.2,Win32,60,5f599a131af4471f3d752b7b,5f5a24668ddeed0729625102,3,,,,,,ring,,,,,,0,35,35,17,1,2,0,,,,,,,,,,,,,,,,,,,,,,,,,,,,,,,,,,,,,,,,,,,,,,,,,,,,,,,,,,,,,,,,,,,,,,,,,,,,,,,,,,,,,,,,,,,,,,,,,,,,,,,,,,,,,
,,,,,,,,,,stimuli/images/PICTURE_467.png,DEMON,5ea047d315537303f1e60ef9,29/09/1953,2020-09-10_14h38.41.341,proactive3.1,2020.1.2,Win32,60,5f599a131af4471f3d752b7b,5f5a24668ddeed0729625102,3,,,,,,peg,,,,,,0,36,36,23,1,3,0,,,,,,,,,,,,,,,,,,,,,,,,,,,,,,,,,,,,,,,,,,,,,,,,,,,,,,,,,,,,,,,,,,,,,,,,,,,,,,,,,,,,,,,,,,,,,,,,,,,,,,,,,,,,,
,,,,,,,,,,stimuli/images/PICTURE_453.png,DUDE,5ea047d315537303f1e60ef9,29/09/1953,2020-09-10_14h38.41.341,proactive3.1,2020.1.2,Win32,60,5f599a131af4471f3d752b7b,5f5a24668ddeed0729625102,3,,,,,,scissors,,,,,,0,37,37,27,1,3,0,,,,,,,,,,,,,,,,,,,,,,,,,,,,,,,,,,,,,,,,,,,,,,,,,,,,,,,,,,,,,,,,,,,,,,,,,,,,,,,,,,,,,,,,,,,,,,,,,,,,,,,,,,,,,
,,,,,,,,,,stimuli/images/PICTURE_380.png,DEATH,5ea047d315537303f1e60ef9,29/09/1953,2020-09-10_14h38.41.341,proactive3.1,2020.1.2,Win32,60,5f599a131af4471f3d752b7b,5f5a24668ddeed0729625102,3,,,,,,gorilla,,,,,,0,38,38,49,1,5,0,,,,,,,,,,,,,,,,,,,,,,,,,,,,,,,,,,,,,,,,,,,,,,,,,,,,,,,,,,,,,,,,,,,,,,,,,,,,,,,,,,,,,,,,,,,,,,,,,,,,,,,,,,,,,
,,,,,,,,,,stimuli/images/PICTURE_491.png,WRITER,5ea047d315537303f1e60ef9,29/09/1953,2020-09-10_14h38.41.341,proactive3.1,2020.1.2,Win32,60,5f599a131af4471f3d752b7b,5f5a24668ddeed0729625102,3,,,,,,rug,,,,,,0,39,39,57,1,6,0,,,,,,,,,,,,,,,,,,,,,,,,,,,,,,,,,,,,,,,,,,,,,,,,,,,,,,,,,,,,,,,,,,,,,,,,,,,,,,,,,,,,,,,,,,,,,,,,,,,,,,,,,,,,,
,,,,,,,,,,stimuli/images/PICTURE_688.png,CASINO,5ea047d315537303f1e60ef9,29/09/1953,2020-09-10_14h38.41.341,proactive3.1,2020.1.2,Win32,60,5f599a131af4471f3d752b7b,5f5a24668ddeed0729625102,3,,,,,,runner,,,,,,0,40,40,2,1,1,0,,,,,,,,,,,,,,,,,,,,,,,,,,,,,,,,,,,,,,,,,,,,,,,,,,,,,,,,,,,,,,,,,,,,,,,,,,,,,,,,,,,,,,,,,,,,,,,,,,,,,,,,,,,,,
,,,,,,,,,,stimuli/images/PICTURE_302.png,FAMILY,5ea047d315537303f1e60ef9,29/09/1953,2020-09-10_14h38.41.341,proactive3.1,2020.1.2,Win32,60,5f599a131af4471f3d752b7b,5f5a24668ddeed0729625102,3,,,,,,taxi,,,,,,0,41,41,18,1,2,0,,,,,,,,,,,,,,,,,,,,,,,,,,,,,,,,,,,,,,,,,,,,,,,,,,,,,,,,,,,,,,,,,,,,,,,,,,,,,,,,,,,,,,,,,,,,,,,,,,,,,,,,,,,,,
,,,,,,,,,,stimuli/images/PICTURE_160.png,FEET,5ea047d315537303f1e60ef9,29/09/1953,2020-09-10_14h38.41.341,proactive3.1,2020.1.2,Win32,60,5f599a131af4471f3d752b7b,5f5a24668ddeed0729625102,3,,,,,,wheelbarrow,,,,,,0,42,42,58,1,6,0,,,,,,,,,,,,,,,,,,,,,,,,,,,,,,,,,,,,,,,,,,,,,,,,,,,,,,,,,,,,,,,,,,,,,,,,,,,,,,,,,,,,,,,,,,,,,,,,,,,,,,,,,,,,,
,,,,,,,,,,stimuli/images/PICTURE_491.png,ROOF,5ea047d315537303f1e60ef9,29/09/1953,2020-09-10_14h38.41.341,proactive3.1,2020.1.2,Win32,60,5f599a131af4471f3d752b7b,5f5a24668ddeed0729625102,3,,,,,,rug,,,,,,0,43,43,24,1,3,0,,,,,,,,,,,,,,,,,,,,,,,,,,,,,,,,,,,,,,,,,,,,,,,,,,,,,,,,,,,,,,,,,,,,,,,,,,,,,,,,,,,,,,,,,,,,,,,,,,,,,,,,,,,,,
,,,,,,,,,,stimuli/images/PICTURE_311.png,BEAUTY,5ea047d315537303f1e60ef9,29/09/1953,2020-09-10_14h38.41.341,proactive3.1,2020.1.2,Win32,60,5f599a131af4471f3d752b7b,5f5a24668ddeed0729625102,3,,,,,,razor,,,,,,0,44,44,13,1,2,0,,,,,,,,,,,,,,,,,,,,,,,,,,,,,,,,,,,,,,,,,,,,,,,,,,,,,,,,,,,,,,,,,,,,,,,,,,,,,,,,,,,,,,,,,,,,,,,,,,,,,,,,,,,,,
,,,,,,,,,,stimuli/images/PICTURE_677.png,MILE,5ea047d315537303f1e60ef9,29/09/1953,2020-09-10_14h38.41.341,proactive3.1,2020.1.2,Win32,60,5f599a131af4471f3d752b7b,5f5a24668ddeed0729625102,3,,,,,,map,,,,,,0,45,45,30,1,4,0,,,,,,,,,,,,,,,,,,,,,,,,,,,,,,,,,,,,,,,,,,,,,,,,,,,,,,,,,,,,,,,,,,,,,,,,,,,,,,,,,,,,,,,,,,,,,,,,,,,,,,,,,,,,,
,,,,,,,,,,stimuli/images/PICTURE_160.png,LEADER,5ea047d315537303f1e60ef9,29/09/1953,2020-09-10_14h38.41.341,proactive3.1,2020.1.2,Win32,60,5f599a131af4471f3d752b7b,5f5a24668ddeed0729625102,3,,,,,,wheelbarrow,,,,,,0,46,46,3,1,1,0,,,,,,,,,,,,,,,,,,,,,,,,,,,,,,,,,,,,,,,,,,,,,,,,,,,,,,,,,,,,,,,,,,,,,,,,,,,,,,,,,,,,,,,,,,,,,,,,,,,,,,,,,,,,,
,,,,,,,,,,stimuli/images/PICTURE_314.png,SAKE,5ea047d315537303f1e60ef9,29/09/1953,2020-09-10_14h38.41.341,proactive3.1,2020.1.2,Win32,60,5f599a131af4471f3d752b7b,5f5a24668ddeed0729625102,3,,,,,,perfume,,,,,,0,47,47,7,1,1,0,,,,,,,,,,,,,,,,,,,,,,,,,,,,,,,,,,,,,,,,,,,,,,,,,,,,,,,,,,,,,,,,,,,,,,,,,,,,,,,,,,,,,,,,,,,,,,,,,,,,,,,,,,,,,
,,,,,,,,,,stimuli/images/PICTURE_147.png,MOMENT,5ea047d315537303f1e60ef9,29/09/1953,2020-09-10_14h38.41.341,proactive3.1,2020.1.2,Win32,60,5f599a131af4471f3d752b7b,5f5a24668ddeed0729625102,3,,,,,,hanger,,,,,,0,48,48,51,1,6,0,,,,,,,,,,,,,,,,,,,,,,,,,,,,,,,,,,,,,,,,,,,,,,,,,,,,,,,,,,,,,,,,,,,,,,,,,,,,,,,,,,,,,,,,,,,,,,,,,,,,,,,,,,,,,
,,,,,,,,,,stimuli/images/PICTURE_85.png,THING,5ea047d315537303f1e60ef9,29/09/1953,2020-09-10_14h38.41.341,proactive3.1,2020.1.2,Win32,60,5f599a131af4471f3d752b7b,5f5a24668ddeed0729625102,3,,,,,,diamond,,,,,,0,49,49,15,1,2,0,,,,,,,,,,,,,,,,,,,,,,,,,,,,,,,,,,,,,,,,,,,,,,,,,,,,,,,,,,,,,,,,,,,,,,,,,,,,,,,,,,,,,,,,,,,,,,,,,,,,,,,,,,,,,
,,,,,,,,,,stimuli/images/PICTURE_32.png,JUNGLE,5ea047d315537303f1e60ef9,29/09/1953,2020-09-10_14h38.41.341,proactive3.1,2020.1.2,Win32,60,5f599a131af4471f3d752b7b,5f5a24668ddeed0729625102,3,,,,,,crown,,,,,,0,50,50,45,1,5,0,,,,,,,,,,,,,,,,,,,,,,,,,,,,,,,,,,,,,,,,,,,,,,,,,,,,,,,,,,,,,,,,,,,,,,,,,,,,,,,,,,,,,,,,,,,,,,,,,,,,,,,,,,,,,
,,,,,,,,,,stimuli/images/PICTURE_233.png,IDEAS,5ea047d315537303f1e60ef9,29/09/1953,2020-09-10_14h38.41.341,proactive3.1,2020.1.2,Win32,60,5f599a131af4471f3d752b7b,5f5a24668ddeed0729625102,3,,,,,,salt,,,,,,0,51,51,28,1,3,0,,,,,,,,,,,,,,,,,,,,,,,,,,,,,,,,,,,,,,,,,,,,,,,,,,,,,,,,,,,,,,,,,,,,,,,,,,,,,,,,,,,,,,,,,,,,,,,,,,,,,,,,,,,,,
,,,,,,,,,,stimuli/images/PICTURE_308.png,ESTATE,5ea047d315537303f1e60ef9,29/09/1953,2020-09-10_14h38.41.341,proactive3.1,2020.1.2,Win32,60,5f599a131af4471f3d752b7b,5f5a24668ddeed0729625102,3,,,,,,dice,,,,,,0,52,52,46,1,5,0,,,,,,,,,,,,,,,,,,,,,,,,,,,,,,,,,,,,,,,,,,,,,,,,,,,,,,,,,,,,,,,,,,,,,,,,,,,,,,,,,,,,,,,,,,,,,,,,,,,,,,,,,,,,,
,,,,,,,,,,stimuli/images/PICTURE_708.png,CLIENT,5ea047d315537303f1e60ef9,29/09/1953,2020-09-10_14h38.41.341,proactive3.1,2020.1.2,Win32,60,5f599a131af4471f3d752b7b,5f5a24668ddeed0729625102,3,,,,,,monkey,,,,,,0,53,53,5,1,1,0,,,,,,,,,,,,,,,,,,,,,,,,,,,,,,,,,,,,,,,,,,,,,,,,,,,,,,,,,,,,,,,,,,,,,,,,,,,,,,,,,,,,,,,,,,,,,,,,,,,,,,,,,,,,,
,,,,,,,,,,stimuli/images/PICTURE_356.png,DANGER,5ea047d315537303f1e60ef9,29/09/1953,2020-09-10_14h38.41.341,proactive3.1,2020.1.2,Win32,60,5f599a131af4471f3d752b7b,5f5a24668ddeed0729625102,3,,,,,,pawn,,,,,,0,54,54,55,1,6,0,,,,,,,,,,,,,,,,,,,,,,,,,,,,,,,,,,,,,,,,,,,,,,,,,,,,,,,,,,,,,,,,,,,,,,,,,,,,,,,,,,,,,,,,,,,,,,,,,,,,,,,,,,,,,
,,,,,,,,,,stimuli/images/PICTURE_380.png,PHOTO,5ea047d315537303f1e60ef9,29/09/1953,2020-09-10_14h38.41.341,proactive3.1,2020.1.2,Win32,60,5f599a131af4471f3d752b7b,5f5a24668ddeed0729625102,3,,,,,,gorilla,,,,,,0,55,55,52,1,6,0,,,,,,,,,,,,,,,,,,,,,,,,,,,,,,,,,,,,,,,,,,,,,,,,,,,,,,,,,,,,,,,,,,,,,,,,,,,,,,,,,,,,,,,,,,,,,,,,,,,,,,,,,,,,,
,,,,,,,,,,stimuli/images/PICTURE_667.png,PLENTY,5ea047d315537303f1e60ef9,29/09/1953,2020-09-10_14h38.41.341,proactive3.1,2020.1.2,Win32,60,5f599a131af4471f3d752b7b,5f5a24668ddeed0729625102,3,,,,,,daisy,,,,,,0,56,56,41,1,5,0,,,,,,,,,,,,,,,,,,,,,,,,,,,,,,,,,,,,,,,,,,,,,,,,,,,,,,,,,,,,,,,,,,,,,,,,,,,,,,,,,,,,,,,,,,,,,,,,,,,,,,,,,,,,,
,,,,,,,,,,stimuli/images/PICTURE_311.png,FRIEND,5ea047d315537303f1e60ef9,29/09/1953,2020-09-10_14h38.41.341,proactive3.1,2020.1.2,Win32,60,5f599a131af4471f3d752b7b,5f5a24668ddeed0729625102,3,,,,,,razor,,,,,,0,57,57,34,1,4,0,,,,,,,,,,,,,,,,,,,,,,,,,,,,,,,,,,,,,,,,,,,,,,,,,,,,,,,,,,,,,,,,,,,,,,,,,,,,,,,,,,,,,,,,,,,,,,,,,,,,,,,,,,,,,
,,,,,,,,,,stimuli/images/PICTURE_208.png,MONTH,5ea047d315537303f1e60ef9,29/09/1953,2020-09-10_14h38.41.341,proactive3.1,2020.1.2,Win32,60,5f599a131af4471f3d752b7b,5f5a24668ddeed0729625102,3,,,,,,microphone,,,,,,0,58,58,53,1,6,0,,,,,,,,,,,,,,,,,,,,,,,,,,,,,,,,,,,,,,,,,,,,,,,,,,,,,,,,,,,,,,,,,,,,,,,,,,,,,,,,,,,,,,,,,,,,,,,,,,,,,,,,,,,,,
,,?,0.00216,0,,,,,,stimuli/images/PICTURE_208.png,MONTH,5ea047d315537303f1e60ef9,29/09/1953,2020-09-10_14h38.41.341,proactive3.1,2020.1.2,Win32,60,5f599a131af4471f3d752b7b,5f5a24668ddeed0729625102,3,,,,,,microphone,,,,,,,,,,,6,0,0,0,0,53,1,,,,,,,,,,,,,,,,,,,,,,,,,,,,,,,,,,,,,,,,,,,,,,,,,,,,,,,,,,,,,,,,,,,,,,,,,,,,,,,,,,,,,,,,,,,,,,,,,,,,,,,,
,,?,0.00179,0,,,,,,stimuli/images/PICTURE_308.png,KIND,5ea047d315537303f1e60ef9,29/09/1953,2020-09-10_14h38.41.341,proactive3.1,2020.1.2,Win32,60,5f599a131af4471f3d752b7b,5f5a24668ddeed0729625102,3,,,,,,dice,,,,,,,,,,,6,0,0,1,1,54,1,,,,,,,,,,,,,,,,,,,,,,,,,,,,,,,,,,,,,,,,,,,,,,,,,,,,,,,,,,,,,,,,,,,,,,,,,,,,,,,,,,,,,,,,,,,,,,,,,,,,,,,,
,,STYLE,5.389385,1,,,,,,stimuli/images/PICTURE_95.png,STYLE,5ea047d315537303f1e60ef9,29/09/1953,2020-09-10_14h38.41.341,proactive3.1,2020.1.2,Win32,60,5f599a131af4471f3d752b7b,5f5a24668ddeed0729625102,3,,,,,,suitcase,,,,,,,,,,,3,0,0,2,2,25,1,,,,,,,,,,,,,,,,,,,,,,,,,,,,,,,,,,,,,,,,,,,,,,,,,,,,,,,,,,,,,,,,,,,,,,,,,,,,,,,,,,,,,,,,,,,,,,,,,,,,,,,,
,,?,0.00256,0,,,,,,stimuli/images/PICTURE_311.png,BEAUTY,5ea047d315537303f1e60ef9,29/09/1953,2020-09-10_14h38.41.341,proactive3.1,2020.1.2,Win32,60,5f599a131af4471f3d752b7b,5f5a24668ddeed0729625102,3,,,,,,razor,,,,,,,,,,,2,0,0,3,3,13,1,,,,,,,,,,,,,,,,,,,,,,,,,,,,,,,,,,,,,,,,,,,,,,,,,,,,,,,,,,,,,,,,,,,,,,,,,,,,,,,,,,,,,,,,,,,,,,,,,,,,,,,,
,,?,0.00321,0,,,,,,stimuli/images/PICTURE_708.png,PENNY,5ea047d315537303f1e60ef9,29/09/1953,2020-09-10_14h38.41.341,proactive3.1,2020.1.2,Win32,60,5f599a131af4471f3d752b7b,5f5a24668ddeed0729625102,3,,,,,,monkey,,,,,,,,,,,4,0,0,4,4,31,1,,,,,,,,,,,,,,,,,,,,,,,,,,,,,,,,,,,,,,,,,,,,,,,,,,,,,,,,,,,,,,,,,,,,,,,,,,,,,,,,,,,,,,,,,,,,,,,,,,,,,,,,
,,?,6.55812,0,,,,,,stimuli/images/PICTURE_509.png,PHOTO,5ea047d315537303f1e60ef9,29/09/1953,2020-09-10_14h38.41.341,proactive3.1,2020.1.2,Win32,60,5f599a131af4471f3d752b7b,5f5a24668ddeed0729625102,3,,,,,,telephone,,,,,,,,,,,3,0,0,5,5,21,1,,,,,,,,,,,,,,,,,,,,,,,,,,,,,,,,,,,,,,,,,,,,,,,,,,,,,,,,,,,,,,,,,,,,,,,,,,,,,,,,,,,,,,,,,,,,,,,,,,,,,,,,
,,?,0.00398,0,,,,,,stimuli/images/PICTURE_675.png,WEAPON,5ea047d315537303f1e60ef9,29/09/1953,2020-09-10_14h38.41.341,proactive3.1,2020.1.2,Win32,60,5f599a131af4471f3d752b7b,5f5a24668ddeed0729625102,3,,,,,,windmill,,,,,,,,,,,4,0,0,6,6,32,1,,,,,,,,,,,,,,,,,,,,,,,,,,,,,,,,,,,,,,,,,,,,,,,,,,,,,,,,,,,,,,,,,,,,,,,,,,,,,,,,,,,,,,,,,,,,,,,,,,,,,,,,
,,DUDE,3.45786,0,,,,,,stimuli/images/PICTURE_708.png,YARD,5ea047d315537303f1e60ef9,29/09/1953,2020-09-10_14h38.41.341,proactive3.1,2020.1.2,Win32,60,5f599a131af4471f3d752b7b,5f5a24668ddeed0729625102,3,,,,,,monkey,,,,,,,,,,,3,0,0,7,7,29,1,,,,,,,,,,,,,,,,,,,,,,,,,,,,,,,,,,,,,,,,,,,,,,,,,,,,,,,,,,,,,,,,,,,,,,,,,,,,,,,,,,,,,,,,,,,,,,,,,,,,,,,,
,,?,0.001815,0,,,,,,stimuli/images/PICTURE_487.png,FLIGHT,5ea047d315537303f1e60ef9,29/09/1953,2020-09-10_14h38.41.341,proactive3.1,2020.1.2,Win32,60,5f599a131af4471f3d752b7b,5f5a24668ddeed0729625102,3,,,,,,basket,,,,,,,,,,,1,0,0,8,8,9,1,,,,,,,,,,,,,,,,,,,,,,,,,,,,,,,,,,,,,,,,,,,,,,,,,,,,,,,,,,,,,,,,,,,,,,,,,,,,,,,,,,,,,,,,,,,,,,,,,,,,,,,,
,,?,0.001625,0,,,,,,stimuli/images/PICTURE_151.png,GIRL,5ea047d315537303f1e60ef9,29/09/1953,2020-09-10_14h38.41.341,proactive3.1,2020.1.2,Win32,60,5f599a131af4471f3d752b7b,5f5a24668ddeed0729625102,3,,,,,,tray,,,,,,,,,,,2,0,0,9,9,19,1,,,,,,,,,,,,,,,,,,,,,,,,,,,,,,,,,,,,,,,,,,,,,,,,,,,,,,,,,,,,,,,,,,,,,,,,,,,,,,,,,,,,,,,,,,,,,,,,,,,,,,,,
,,?,0.000535,0,,,,,,stimuli/images/PICTURE_160.png,FEET,5ea047d315537303f1e60ef9,29/09/1953,2020-09-10_14h38.41.341,proactive3.1,2020.1.2,Win32,60,5f599a131af4471f3d752b7b,5f5a24668ddeed0729625102,3,,,,,,wheelbarrow,,,,,,,,,,,6,0,0,10,10,58,1,,,,,,,,,,,,,,,,,,,,,,,,,,,,,,,,,,,,,,,,,,,,,,,,,,,,,,,,,,,,,,,,,,,,,,,,,,,,,,,,,,,,,,,,,,,,,,,,,,,,,,,,
,,?,0.000515,0,,,,,,stimuli/images/PICTURE_449.png,THING,5ea047d315537303f1e60ef9,29/09/1953,2020-09-10_14h38.41.341,proactive3.1,2020.1.2,Win32,60,5f599a131af4471f3d752b7b,5f5a24668ddeed0729625102,3,,,,,,bench,,,,,,,,,,,6,0,0,11,11,59,1,,,,,,,,,,,,,,,,,,,,,,,,,,,,,,,,,,,,,,,,,,,,,,,,,,,,,,,,,,,,,,,,,,,,,,,,,,,,,,,,,,,,,,,,,,,,,,,,,,,,,,,,
,,?,0.00053,0,,,,,,stimuli/images/PICTURE_147.png,MOMENT,5ea047d315537303f1e60ef9,29/09/1953,2020-09-10_14h38.41.341,proactive3.1,2020.1.2,Win32,60,5f599a131af4471f3d752b7b,5f5a24668ddeed0729625102,3,,,,,,hanger,,,,,,,,,,,6,0,0,12,12,51,1,,,,,,,,,,,,,,,,,,,,,,,,,,,,,,,,,,,,,,,,,,,,,,,,,,,,,,,,,,,,,,,,,,,,,,,,,,,,,,,,,,,,,,,,,,,,,,,,,,,,,,,,
,,?,0.00166,0,,,,,,stimuli/images/PICTURE_314.png,GODS,5ea047d315537303f1e60ef9,29/09/1953,2020-09-10_14h38.41.341,proactive3.1,2020.1.2,Win32,60,5f599a131af4471f3d752b7b,5f5a24668ddeed0729625102,3,,,,,,perfume,,,,,,,,,,,2,0,0,13,13,11,1,,,,,,,,,,,,,,,,,,,,,,,,,,,,,,,,,,,,,,,,,,,,,,,,,,,,,,,,,,,,,,,,,,,,,,,,,,,,,,,,,,,,,,,,,,,,,,,,,,,,,,,,
,,?,0.001065,0,,,,,,stimuli/images/PICTURE_688.png,CASINO,5ea047d315537303f1e60ef9,29/09/1953,2020-09-10_14h38.41.341,proactive3.1,2020.1.2,Win32,60,5f599a131af4471f3d752b7b,5f5a24668ddeed0729625102,3,,,,,,runner,,,,,,,,,,,1,0,0,14,14,2,1,,,,,,,,,,,,,,,,,,,,,,,,,,,,,,,,,,,,,,,,,,,,,,,,,,,,,,,,,,,,,,,,,,,,,,,,,,,,,,,,,,,,,,,,,,,,,,,,,,,,,,,,
,,?,0.000525,0,,,,,,stimuli/images/PICTURE_744.png,SYSTEM,5ea047d315537303f1e60ef9,29/09/1953,2020-09-10_14h38.41.341,proactive3.1,2020.1.2,Win32,60,5f599a131af4471f3d752b7b,5f5a24668ddeed0729625102,3,,,,,,ring,,,,,,,,,,,5,0,0,15,15,43,1,,,,,,,,,,,,,,,,,,,,,,,,,,,,,,,,,,,,,,,,,,,,,,,,,,,,,,,,,,,,,,,,,,,,,,,,,,,,,,,,,,,,,,,,,,,,,,,,,,,,,,,,
,,?,0.001195,0,,,,,,stimuli/images/PICTURE_453.png,PLENTY,5ea047d315537303f1e60ef9,29/09/1953,2020-09-10_14h38.41.341,proactive3.1,2020.1.2,Win32,60,5f599a131af4471f3d752b7b,5f5a24668ddeed0729625102,3,,,,,,scissors,,,,,,,,,,,6,0,0,16,16,56,1,,,,,,,,,,,,,,,,,,,,,,,,,,,,,,,,,,,,,,,,,,,,,,,,,,,,,,,,,,,,,,,,,,,,,,,,,,,,,,,,,,,,,,,,,,,,,,,,,,,,,,,,
,,?,0.00086,0,,,,,,stimuli/images/PICTURE_160.png,LEADER,5ea047d315537303f1e60ef9,29/09/1953,2020-09-10_14h38.41.341,proactive3.1,2020.1.2,Win32,60,5f599a131af4471f3d752b7b,5f5a24668ddeed0729625102,3,,,,,,wheelbarrow,,,,,,,,,,,1,0,0,17,17,3,1,,,,,,,,,,,,,,,,,,,,,,,,,,,,,,,,,,,,,,,,,,,,,,,,,,,,,,,,,,,,,,,,,,,,,,,,,,,,,,,,,,,,,,,,,,,,,,,,,,,,,,,,
,,?,0.00092,0,,,,,,stimuli/images/PICTURE_677.png,MILE,5ea047d315537303f1e60ef9,29/09/1953,2020-09-10_14h38.41.341,proactive3.1,2020.1.2,Win32,60,5f599a131af4471f3d752b7b,5f5a24668ddeed0729625102,3,,,,,,map,,,,,,,,,,,4,0,0,18,18,30,1,,,,,,,,,,,,,,,,,,,,,,,,,,,,,,,,,,,,,,,,,,,,,,,,,,,,,,,,,,,,,,,,,,,,,,,,,,,,,,,,,,,,,,,,,,,,,,,,,,,,,,,,
,,?,0.00125,0,,,,,,stimuli/images/PICTURE_327.png,BEAUTY,5ea047d315537303f1e60ef9,29/09/1953,2020-09-10_14h38.41.341,proactive3.1,2020.1.2,Win32,60,5f599a131af4471f3d752b7b,5f5a24668ddeed0729625102,3,,,,,,helmet,,,,,,,,,,,5,0,0,19,19,48,1,,,,,,,,,,,,,,,,,,,,,,,,,,,,,,,,,,,,,,,,,,,,,,,,,,,,,,,,,,,,,,,,,,,,,,,,,,,,,,,,,,,,,,,,,,,,,,,,,,,,,,,,
,,?,0.00082,0,,,,,,stimuli/images/PICTURE_688.png,WOMEN,5ea047d315537303f1e60ef9,29/09/1953,2020-09-10_14h38.41.341,proactive3.1,2020.1.2,Win32,60,5f599a131af4471f3d752b7b,5f5a24668ddeed0729625102,3,,,,,,runner,,,,,,,,,,,2,0,0,20,20,14,1,,,,,,,,,,,,,,,,,,,,,,,,,,,,,,,,,,,,,,,,,,,,,,,,,,,,,,,,,,,,,,,,,,,,,,,,,,,,,,,,,,,,,,,,,,,,,,,,,,,,,,,,
,,?,0.000595,0,,,,,,stimuli/images/PICTURE_68.png,MILE,5ea047d315537303f1e60ef9,29/09/1953,2020-09-10_14h38.41.341,proactive3.1,2020.1.2,Win32,60,5f599a131af4471f3d752b7b,5f5a24668ddeed0729625102,3,,,,,,candle,,,,,,,,,,,5,0,0,21,21,44,1,,,,,,,,,,,,,,,,,,,,,,,,,,,,,,,,,,,,,,,,,,,,,,,,,,,,,,,,,,,,,,,,,,,,,,,,,,,,,,,,,,,,,,,,,,,,,,,,,,,,,,,,
,,?,0.000775,0,,,,,,stimuli/images/PICTURE_208.png,LOTS,5ea047d315537303f1e60ef9,29/09/1953,2020-09-10_14h38.41.341,proactive3.1,2020.1.2,Win32,60,5f599a131af4471f3d752b7b,5f5a24668ddeed0729625102,3,,,,,,microphone,,,,,,,,,,,2,0,0,22,22,10,1,,,,,,,,,,,,,,,,,,,,,,,,,,,,,,,,,,,,,,,,,,,,,,,,,,,,,,,,,,,,,,,,,,,,,,,,,,,,,,,,,,,,,,,,,,,,,,,,,,,,,,,,
,,ARTIST,3.891415,1,,,,,,stimuli/images/PICTURE_203.png,ARTIST,5ea047d315537303f1e60ef9,29/09/1953,2020-09-10_14h38.41.341,proactive3.1,2020.1.2,Win32,60,5f599a131af4471f3d752b7b,5f5a24668ddeed0729625102,3,,,,,,cap,,,,,,,,,,,3,0,0,23,23,26,1,,,,,,,,,,,,,,,,,,,,,,,,,,,,,,,,,,,,,,,,,,,,,,,,,,,,,,,,,,,,,,,,,,,,,,,,,,,,,,,,,,,,,,,,,,,,,,,,,,,,,,,,
,,?,0.00308,0,,,,,,stimuli/images/PICTURE_491.png,WRITER,5ea047d315537303f1e60ef9,29/09/1953,2020-09-10_14h38.41.341,proactive3.1,2020.1.2,Win32,60,5f599a131af4471f3d752b7b,5f5a24668ddeed0729625102,3,,,,,,rug,,,,,,,,,,,6,0,0,24,24,57,1,,,,,,,,,,,,,,,,,,,,,,,,,,,,,,,,,,,,,,,,,,,,,,,,,,,,,,,,,,,,,,,,,,,,,,,,,,,,,,,,,,,,,,,,,,,,,,,,,,,,,,,,
,,?,0.00142,0,,,,,,stimuli/images/PICTURE_469.png,LETTER,5ea047d315537303f1e60ef9,29/09/1953,2020-09-10_14h38.41.341,proactive3.1,2020.1.2,Win32,60,5f599a131af4471f3d752b7b,5f5a24668ddeed0729625102,3,,,,,,stool,,,,,,,,,,,5,0,0,25,25,42,1,,,,,,,,,,,,,,,,,,,,,,,,,,,,,,,,,,,,,,,,,,,,,,,,,,,,,,,,,,,,,,,,,,,,,,,,,,,,,,,,,,,,,,,,,,,,,,,,,,,,,,,,
,,?,0.00489,0,,,,,,stimuli/images/PICTURE_85.png,THING,5ea047d315537303f1e60ef9,29/09/1953,2020-09-10_14h38.41.341,proactive3.1,2020.1.2,Win32,60,5f599a131af4471f3d752b7b,5f5a24668ddeed0729625102,3,,,,,,diamond,,,,,,,,,,,2,0,0,26,26,15,1,,,,,,,,,,,,,,,,,,,,,,,,,,,,,,,,,,,,,,,,,,,,,,,,,,,,,,,,,,,,,,,,,,,,,,,,,,,,,,,,,,,,,,,,,,,,,,,,,,,,,,,,
,,?,0.00193,0,,,,,,stimuli/images/PICTURE_302.png,FAMILY,5ea047d315537303f1e60ef9,29/09/1953,2020-09-10_14h38.41.341,proactive3.1,2020.1.2,Win32,60,5f599a131af4471f3d752b7b,5f5a24668ddeed0729625102,3,,,,,,taxi,,,,,,,,,,,2,0,0,27,27,18,1,,,,,,,,,,,,,,,,,,,,,,,,,,,,,,,,,,,,,,,,,,,,,,,,,,,,,,,,,,,,,,,,,,,,,,,,,,,,,,,,,,,,,,,,,,,,,,,,,,,,,,,,
,,NUT,4.38984,0,,,,,,stimuli/images/PICTURE_491.png,ROOF,5ea047d315537303f1e60ef9,29/09/1953,2020-09-10_14h38.41.341,proactive3.1,2020.1.2,Win32,60,5f599a131af4471f3d752b7b,5f5a24668ddeed0729625102,3,,,,,,rug,,,,,,,,,,,3,0,0,28,28,24,1,,,,,,,,,,,,,,,,,,,,,,,,,,,,,,,,,,,,,,,,,,,,,,,,,,,,,,,,,,,,,,,,,,,,,,,,,,,,,,,,,,,,,,,,,,,,,,,,,,,,,,,,
,,?,0.002565,0,,,,,,stimuli/images/PICTURE_233.png,WOMEN,5ea047d315537303f1e60ef9,29/09/1953,2020-09-10_14h38.41.341,proactive3.1,2020.1.2,Win32,60,5f599a131af4471f3d752b7b,5f5a24668ddeed0729625102,3,,,,,,salt,,,,,,,,,,,4,0,0,29,29,38,1,,,,,,,,,,,,,,,,,,,,,,,,,,,,,,,,,,,,,,,,,,,,,,,,,,,,,,,,,,,,,,,,,,,,,,,,,,,,,,,,,,,,,,,,,,,,,,,,,,,,,,,,
,,?,0.000855,0,,,,,,stimuli/images/PICTURE_654.png,VALLEY,5ea047d315537303f1e60ef9,29/09/1953,2020-09-10_14h38.41.341,proactive3.1,2020.1.2,Win32,60,5f599a131af4471f3d752b7b,5f5a24668ddeed0729625102,3,,,,,,pencil,,,,,,,,,,,1,0,0,30,30,1,1,,,,,,,,,,,,,,,,,,,,,,,,,,,,,,,,,,,,,,,,,,,,,,,,,,,,,,,,,,,,,,,,,,,,,,,,,,,,,,,,,,,,,,,,,,,,,,,,,,,,,,,,
,,IDEA,5.53748,0,,,,,,stimuli/images/PICTURE_233.png,IDEAS,5ea047d315537303f1e60ef9,29/09/1953,2020-09-10_14h38.41.341,proactive3.1,2020.1.2,Win32,60,5f599a131af4471f3d752b7b,5f5a24668ddeed0729625102,3,,,,,,salt,,,,,,,,,,,3,0,0,31,31,28,1,,,,,,,,,,,,,,,,,,,,,,,,,,,,,,,,,,,,,,,,,,,,,,,,,,,,,,,,,,,,,,,,,,,,,,,,,,,,,,,,,,,,,,,,,,,,,,,,,,,,,,,,
,,?,0.000705,0,,,,,,stimuli/images/PICTURE_215.png,PLENTY,5ea047d315537303f1e60ef9,29/09/1953,2020-09-10_14h38.41.341,proactive3.1,2020.1.2,Win32,60,5f599a131af4471f3d752b7b,5f5a24668ddeed0729625102,3,,,,,,boot,,,,,,,,,,,4,0,0,32,32,37,1,,,,,,,,,,,,,,,,,,,,,,,,,,,,,,,,,,,,,,,,,,,,,,,,,,,,,,,,,,,,,,,,,,,,,,,,,,,,,,,,,,,,,,,,,,,,,,,,,,,,,,,,
,,?,0.00052,0,,,,,,stimuli/images/PICTURE_504.png,BODY,5ea047d315537303f1e60ef9,29/09/1953,2020-09-10_14h38.41.341,proactive3.1,2020.1.2,Win32,60,5f599a131af4471f3d752b7b,5f5a24668ddeed0729625102,3,,,,,,wheel,,,,,,,,,,,1,0,0,33,33,8,1,,,,,,,,,,,,,,,,,,,,,,,,,,,,,,,,,,,,,,,,,,,,,,,,,,,,,,,,,,,,,,,,,,,,,,,,,,,,,,,,,,,,,,,,,,,,,,,,,,,,,,,,
,,SPEECH,5.885875,1,,,,,,stimuli/images/PICTURE_348.png,SPEECH,5ea047d315537303f1e60ef9,29/09/1953,2020-09-10_14h38.41.341,proactive3.1,2020.1.2,Win32,60,5f599a131af4471f3d752b7b,5f5a24668ddeed0729625102,3,,,,,,pepper,,,,,,,,,,,3,0,0,34,34,20,1,,,,,,,,,,,,,,,,,,,,,,,,,,,,,,,,,,,,,,,,,,,,,,,,,,,,,,,,,,,,,,,,,,,,,,,,,,,,,,,,,,,,,,,,,,,,,,,,,,,,,,,,
,,?,0.002485,0,,,,,,stimuli/images/PICTURE_469.png,ARTIST,5ea047d315537303f1e60ef9,29/09/1953,2020-09-10_14h38.41.341,proactive3.1,2020.1.2,Win32,60,5f599a131af4471f3d752b7b,5f5a24668ddeed0729625102,3,,,,,,stool,,,,,,,,,,,1,0,0,35,35,6,1,,,,,,,,,,,,,,,,,,,,,,,,,,,,,,,,,,,,,,,,,,,,,,,,,,,,,,,,,,,,,,,,,,,,,,,,,,,,,,,,,,,,,,,,,,,,,,,,,,,,,,,,
,,?,0.000505,0,,,,,,stimuli/images/PICTURE_314.png,SAKE,5ea047d315537303f1e60ef9,29/09/1953,2020-09-10_14h38.41.341,proactive3.1,2020.1.2,Win32,60,5f599a131af4471f3d752b7b,5f5a24668ddeed0729625102,3,,,,,,perfume,,,,,,,,,,,1,0,0,36,36,7,1,,,,,,,,,,,,,,,,,,,,,,,,,,,,,,,,,,,,,,,,,,,,,,,,,,,,,,,,,,,,,,,,,,,,,,,,,,,,,,,,,,,,,,,,,,,,,,,,,,,,,,,,
,,DEMON,6.514785,1,,,,,,stimuli/images/PICTURE_467.png,DEMON,5ea047d315537303f1e60ef9,29/09/1953,2020-09-10_14h38.41.341,proactive3.1,2020.1.2,Win32,60,5f599a131af4471f3d752b7b,5f5a24668ddeed0729625102,3,,,,,,peg,,,,,,,,,,,3,0,0,37,37,23,1,,,,,,,,,,,,,,,,,,,,,,,,,,,,,,,,,,,,,,,,,,,,,,,,,,,,,,,,,,,,,,,,,,,,,,,,,,,,,,,,,,,,,,,,,,,,,,,,,,,,,,,,
,,?,0.00286,0,,,,,,stimuli/images/PICTURE_311.png,FRIEND,5ea047d315537303f1e60ef9,29/09/1953,2020-09-10_14h38.41.341,proactive3.1,2020.1.2,Win32,60,5f599a131af4471f3d752b7b,5f5a24668ddeed0729625102,3,,,,,,razor,,,,,,,,,,,4,0,0,38,38,34,1,,,,,,,,,,,,,,,,,,,,,,,,,,,,,,,,,,,,,,,,,,,,,,,,,,,,,,,,,,,,,,,,,,,,,,,,,,,,,,,,,,,,,,,,,,,,,,,,,,,,,,,,
,,?,0.00067,0,,,,,,stimuli/images/PICTURE_177.png,CARS,5ea047d315537303f1e60ef9,29/09/1953,2020-09-10_14h38.41.341,proactive3.1,2020.1.2,Win32,60,5f599a131af4471f3d752b7b,5f5a24668ddeed0729625102,3,,,,,,mushroom,,,,,,,,,,,4,0,0,39,39,35,1,,,,,,,,,,,,,,,,,,,,,,,,,,,,,,,,,,,,,,,,,,,,,,,,,,,,,,,,,,,,,,,,,,,,,,,,,,,,,,,,,,,,,,,,,,,,,,,,,,,,,,,,
,,?,0.00071,0,,,,,,stimuli/images/PICTURE_692.png,MONTH,5ea047d315537303f1e60ef9,29/09/1953,2020-09-10_14h38.41.341,proactive3.1,2020.1.2,Win32,60,5f599a131af4471f3d752b7b,5f5a24668ddeed0729625102,3,,,,,,cherry,,,,,,,,,,,2,0,0,40,40,16,1,,,,,,,,,,,,,,,,,,,,,,,,,,,,,,,,,,,,,,,,,,,,,,,,,,,,,,,,,,,,,,,,,,,,,,,,,,,,,,,,,,,,,,,,,,,,,,,,,,,,,,,,
,,?,0.00063,0,,,,,,stimuli/images/PICTURE_123.png,ADVICE,5ea047d315537303f1e60ef9,29/09/1953,2020-09-10_14h38.41.341,proactive3.1,2020.1.2,Win32,60,5f599a131af4471f3d752b7b,5f5a24668ddeed0729625102,3,,,,,,dart,,,,,,,,,,,6,0,0,41,41,50,1,,,,,,,,,,,,,,,,,,,,,,,,,,,,,,,,,,,,,,,,,,,,,,,,,,,,,,,,,,,,,,,,,,,,,,,,,,,,,,,,,,,,,,,,,,,,,,,,,,,,,,,,
,,?,0.001985,0,,,,,,stimuli/images/PICTURE_308.png,ESTATE,5ea047d315537303f1e60ef9,29/09/1953,2020-09-10_14h38.41.341,proactive3.1,2020.1.2,Win32,60,5f599a131af4471f3d752b7b,5f5a24668ddeed0729625102,3,,,,,,dice,,,,,,,,,,,5,0,0,42,42,46,1,,,,,,,,,,,,,,,,,,,,,,,,,,,,,,,,,,,,,,,,,,,,,,,,,,,,,,,,,,,,,,,,,,,,,,,,,,,,,,,,,,,,,,,,,,,,,,,,,,,,,,,,
,,?,0.002055,0,,,,,,stimuli/images/PICTURE_667.png,BATH,5ea047d315537303f1e60ef9,29/09/1953,2020-09-10_14h38.41.341,proactive3.1,2020.1.2,Win32,60,5f599a131af4471f3d752b7b,5f5a24668ddeed0729625102,3,,,,,,daisy,,,,,,,,,,,1,0,0,43,43,4,1,,,,,,,,,,,,,,,,,,,,,,,,,,,,,,,,,,,,,,,,,,,,,,,,,,,,,,,,,,,,,,,,,,,,,,,,,,,,,,,,,,,,,,,,,,,,,,,,,,,,,,,,
,,DUDE,4.29292,1,,,,,,stimuli/images/PICTURE_453.png,DUDE,5ea047d315537303f1e60ef9,29/09/1953,2020-09-10_14h38.41.341,proactive3.1,2020.1.2,Win32,60,5f599a131af4471f3d752b7b,5f5a24668ddeed0729625102,3,,,,,,scissors,,,,,,,,,,,3,0,0,44,44,27,1,,,,,,,,,,,,,,,,,,,,,,,,,,,,,,,,,,,,,,,,,,,,,,,,,,,,,,,,,,,,,,,,,,,,,,,,,,,,,,,,,,,,,,,,,,,,,,,,,,,,,,,,
,,?,0.002895,0,,,,,,stimuli/images/PICTURE_285.png,ADVICE,5ea047d315537303f1e60ef9,29/09/1953,2020-09-10_14h38.41.341,proactive3.1,2020.1.2,Win32,60,5f599a131af4471f3d752b7b,5f5a24668ddeed0729625102,3,,,,,,carrot,,,,,,,,,,,2,0,0,45,45,12,1,,,,,,,,,,,,,,,,,,,,,,,,,,,,,,,,,,,,,,,,,,,,,,,,,,,,,,,,,,,,,,,,,,,,,,,,,,,,,,,,,,,,,,,,,,,,,,,,,,,,,,,,
,,?,0.001165,0,,,,,,stimuli/images/PICTURE_123.png,ADVICE,5ea047d315537303f1e60ef9,29/09/1953,2020-09-10_14h38.41.341,proactive3.1,2020.1.2,Win32,60,5f599a131af4471f3d752b7b,5f5a24668ddeed0729625102,3,,,,,,dart,,,,,,,,,,,5,0,0,46,46,40,1,,,,,,,,,,,,,,,,,,,,,,,,,,,,,,,,,,,,,,,,,,,,,,,,,,,,,,,,,,,,,,,,,,,,,,,,,,,,,,,,,,,,,,,,,,,,,,,,,,,,,,,,
,,?,0.00131,0,,,,,,stimuli/images/PICTURE_667.png,PLENTY,5ea047d315537303f1e60ef9,29/09/1953,2020-09-10_14h38.41.341,proactive3.1,2020.1.2,Win32,60,5f599a131af4471f3d752b7b,5f5a24668ddeed0729625102,3,,,,,,daisy,,,,,,,,,,,5,0,0,47,47,41,1,,,,,,,,,,,,,,,,,,,,,,,,,,,,,,,,,,,,,,,,,,,,,,,,,,,,,,,,,,,,,,,,,,,,,,,,,,,,,,,,,,,,,,,,,,,,,,,,,,,,,,,,
,,?,0.00228,0,,,,,,stimuli/images/PICTURE_356.png,DANGER,5ea047d315537303f1e60ef9,29/09/1953,2020-09-10_14h38.41.341,proactive3.1,2020.1.2,Win32,60,5f599a131af4471f3d752b7b,5f5a24668ddeed0729625102,3,,,,,,pawn,,,,,,,,,,,6,0,0,48,48,55,1,,,,,,,,,,,,,,,,,,,,,,,,,,,,,,,,,,,,,,,,,,,,,,,,,,,,,,,,,,,,,,,,,,,,,,,,,,,,,,,,,,,,,,,,,,,,,,,,,,,,,,,,
,,?,0.000595,0,,,,,,stimuli/images/PICTURE_708.png,CLIENT,5ea047d315537303f1e60ef9,29/09/1953,2020-09-10_14h38.41.341,proactive3.1,2020.1.2,Win32,60,5f599a131af4471f3d752b7b,5f5a24668ddeed0729625102,3,,,,,,monkey,,,,,,,,,,,1,0,0,49,49,5,1,,,,,,,,,,,,,,,,,,,,,,,,,,,,,,,,,,,,,,,,,,,,,,,,,,,,,,,,,,,,,,,,,,,,,,,,,,,,,,,,,,,,,,,,,,,,,,,,,,,,,,,,
,,?,0.002015,0,,,,,,stimuli/images/PICTURE_208.png,THING,5ea047d315537303f1e60ef9,29/09/1953,2020-09-10_14h38.41.341,proactive3.1,2020.1.2,Win32,60,5f599a131af4471f3d752b7b,5f5a24668ddeed0729625102,3,,,,,,microphone,,,,,,,,,,,5,0,0,50,50,47,1,,,,,,,,,,,,,,,,,,,,,,,,,,,,,,,,,,,,,,,,,,,,,,,,,,,,,,,,,,,,,,,,,,,,,,,,,,,,,,,,,,,,,,,,,,,,,,,,,,,,,,,,
,,?,0.001385,0,,,,,,stimuli/images/PICTURE_339.png,PLENTY,5ea047d315537303f1e60ef9,29/09/1953,2020-09-10_14h38.41.341,proactive3.1,2020.1.2,Win32,60,5f599a131af4471f3d752b7b,5f5a24668ddeed0729625102,3,,,,,,backpack,,,,,,,,,,,1,0,0,51,51,0,1,,,,,,,,,,,,,,,,,,,,,,,,,,,,,,,,,,,,,,,,,,,,,,,,,,,,,,,,,,,,,,,,,,,,,,,,,,,,,,,,,,,,,,,,,,,,,,,,,,,,,,,,
,,?,0.001645,0,,,,,,stimuli/images/PICTURE_248.png,DOZEN,5ea047d315537303f1e60ef9,29/09/1953,2020-09-10_14h38.41.341,proactive3.1,2020.1.2,Win32,60,5f599a131af4471f3d752b7b,5f5a24668ddeed0729625102,3,,,,,,cart,,,,,,,,,,,4,0,0,52,52,39,1,,,,,,,,,,,,,,,,,,,,,,,,,,,,,,,,,,,,,,,,,,,,,,,,,,,,,,,,,,,,,,,,,,,,,,,,,,,,,,,,,,,,,,,,,,,,,,,,,,,,,,,,
,,?,0.00151,0,,,,,,stimuli/images/PICTURE_744.png,SAKE,5ea047d315537303f1e60ef9,29/09/1953,2020-09-10_14h38.41.341,proactive3.1,2020.1.2,Win32,60,5f599a131af4471f3d752b7b,5f5a24668ddeed0729625102,3,,,,,,ring,,,,,,,,,,,2,0,0,53,53,17,1,,,,,,,,,,,,,,,,,,,,,,,,,,,,,,,,,,,,,,,,,,,,,,,,,,,,,,,,,,,,,,,,,,,,,,,,,,,,,,,,,,,,,,,,,,,,,,,,,,,,,,,,
,,?,5.055445,0,,,,,,stimuli/images/PICTURE_255.png,AREA,5ea047d315537303f1e60ef9,29/09/1953,2020-09-10_14h38.41.341,proactive3.1,2020.1.2,Win32,60,5f599a131af4471f3d752b7b,5f5a24668ddeed0729625102,3,,,,,,shovel,,,,,,,,,,,3,0,0,54,54,22,1,,,,,,,,,,,,,,,,,,,,,,,,,,,,,,,,,,,,,,,,,,,,,,,,,,,,,,,,,,,,,,,,,,,,,,,,,,,,,,,,,,,,,,,,,,,,,,,,,,,,,,,,
,,?,0.0018,0,,,,,,stimuli/images/PICTURE_380.png,DEATH,5ea047d315537303f1e60ef9,29/09/1953,2020-09-10_14h38.41.341,proactive3.1,2020.1.2,Win32,60,5f599a131af4471f3d752b7b,5f5a24668ddeed0729625102,3,,,,,,gorilla,,,,,,,,,,,5,0,0,55,55,49,1,,,,,,,,,,,,,,,,,,,,,,,,,,,,,,,,,,,,,,,,,,,,,,,,,,,,,,,,,,,,,,,,,,,,,,,,,,,,,,,,,,,,,,,,,,,,,,,,,,,,,,,,
,,?,0.001425,0,,,,,,stimuli/images/PICTURE_488.png,STYLE,5ea047d315537303f1e60ef9,29/09/1953,2020-09-10_14h38.41.341,proactive3.1,2020.1.2,Win32,60,5f599a131af4471f3d752b7b,5f5a24668ddeed0729625102,3,,,,,,sun,,,,,,,,,,,4,0,0,56,56,33,1,,,,,,,,,,,,,,,,,,,,,,,,,,,,,,,,,,,,,,,,,,,,,,,,,,,,,,,,,,,,,,,,,,,,,,,,,,,,,,,,,,,,,,,,,,,,,,,,,,,,,,,,
,,?,0.00046,0,,,,,,stimuli/images/PICTURE_470.png,CASINO,5ea047d315537303f1e60ef9,29/09/1953,2020-09-10_14h38.41.341,proactive3.1,2020.1.2,Win32,60,5f599a131af4471f3d752b7b,5f5a24668ddeed0729625102,3,,,,,,motorbike,,,,,,,,,,,4,0,0,57,57,36,1,,,,,,,,,,,,,,,,,,,,,,,,,,,,,,,,,,,,,,,,,,,,,,,,,,,,,,,,,,,,,,,,,,,,,,,,,,,,,,,,,,,,,,,,,,,,,,,,,,,,,,,,
,,?,0.000455,0,,,,,,stimuli/images/PICTURE_380.png,PHOTO,5ea047d315537303f1e60ef9,29/09/1953,2020-09-10_14h38.41.341,proactive3.1,2020.1.2,Win32,60,5f599a131af4471f3d752b7b,5f5a24668ddeed0729625102,3,,,,,,gorilla,,,,,,,,,,,6,0,0,58,58,52,1,,,,,,,,,,,,,,,,,,,,,,,,,,,,,,,,,,,,,,,,,,,,,,,,,,,,,,,,,,,,,,,,,,,,,,,,,,,,,,,,,,,,,,,,,,,,,,,,,,,,,,,,
,,?,0.000525,0,,,,,,stimuli/images/PICTURE_32.png,JUNGLE,5ea047d315537303f1e60ef9,29/09/1953,2020-09-10_14h38.41.341,proactive3.1,2020.1.2,Win32,60,5f599a131af4471f3d752b7b,5f5a24668ddeed0729625102,3,,,,,,crown,,,,,,,,,,,5,0,0,59,59,45,1,,,,,,,,,,,,,,,,,,,,,,,,,,,,,,,,,,,,,,,,,,,,,,,,,,,,,,,,,,,,,,,,,,,,,,,,,,,,,,,,,,,,,,,,,,,,,,,,,,,,,,,,
,,,,,,,,,,,,5ea047d315537303f1e60ef9,29/09/1953,2020-09-10_14h38.41.341,proactive3.1,2020.1.2,Win32,60,5f599a131af4471f3d752b7b,5f5a24668ddeed0729625102,3,,,,,,,,,,,,,,,,,,,,,,,,0,0,0,0,1,stimuli/learn-block1.csv,,,,,,,,,,,,,,,,,,,,,,,,,,,,,,,,,,,,,,,,,,,,,,,,,,,,,,,,,,,,,,,,,,,,,,,,,,,,,,,,,,,,,,,,,,,,,,,,,,
,,,,,,,,,,stimuli/images/PICTURE_667.png,GLASS,5ea047d315537303f1e60ef9,29/09/1953,2020-09-10_14h38.41.341,proactive3.1,2020.1.2,Win32,60,5f599a131af4471f3d752b7b,5f5a24668ddeed0729625102,3,,,,,,daisy,,,,,,0,0,0,27,1,3,2,,,,,,,,,,,,,,,,,,,,,,,,,,,,,,,,,,,,,,,,,,,,,,,,,,,,,,,,,,,,,,,,,,,,,,,,,,,,,,,,,,,,,,,,,,,,,,,,,,,,,,,,,,,,,
,,,,,,,,,,stimuli/images/PICTURE_470.png,MOMENT,5ea047d315537303f1e60ef9,29/09/1953,2020-09-10_14h38.41.341,proactive3.1,2020.1.2,Win32,60,5f599a131af4471f3d752b7b,5f5a24668ddeed0729625102,3,,,,,,motorbike,,,,,,0,1,1,40,1,5,2,,,,,,,,,,,,,,,,,,,,,,,,,,,,,,,,,,,,,,,,,,,,,,,,,,,,,,,,,,,,,,,,,,,,,,,,,,,,,,,,,,,,,,,,,,,,,,,,,,,,,,,,,,,,,
,,,,,,,,,,stimuli/images/PICTURE_509.png,APPLE,5ea047d315537303f1e60ef9,29/09/1953,2020-09-10_14h38.41.341,proactive3.1,2020.1.2,Win32,60,5f599a131af4471f3d752b7b,5f5a24668ddeed0729625102,3,,,,,,telephone,,,,,,0,2,2,38,1,4,2,,,,,,,,,,,,,,,,,,,,,,,,,,,,,,,,,,,,,,,,,,,,,,,,,,,,,,,,,,,,,,,,,,,,,,,,,,,,,,,,,,,,,,,,,,,,,,,,,,,,,,,,,,,,,
,,,,,,,,,,stimuli/images/PICTURE_215.png,BOYS,5ea047d315537303f1e60ef9,29/09/1953,2020-09-10_14h38.41.341,proactive3.1,2020.1.2,Win32,60,5f599a131af4471f3d752b7b,5f5a24668ddeed0729625102,3,,,,,,boot,,,,,,0,3,3,24,1,3,2,,,,,,,,,,,,,,,,,,,,,,,,,,,,,,,,,,,,,,,,,,,,,,,,,,,,,,,,,,,,,,,,,,,,,,,,,,,,,,,,,,,,,,,,,,,,,,,,,,,,,,,,,,,,,
,,,,,,,,,,stimuli/images/PICTURE_405.png,JUNGLE,5ea047d315537303f1e60ef9,29/09/1953,2020-09-10_14h38.41.341,proactive3.1,2020.1.2,Win32,60,5f599a131af4471f3d752b7b,5f5a24668ddeed0729625102,3,,,,,,anchor,,,,,,0,4,4,13,1,2,2,,,,,,,,,,,,,,,,,,,,,,,,,,,,,,,,,,,,,,,,,,,,,,,,,,,,,,,,,,,,,,,,,,,,,,,,,,,,,,,,,,,,,,,,,,,,,,,,,,,,,,,,,,,,,
,,,,,,,,,,stimuli/images/PICTURE_311.png,TOILET,5ea047d315537303f1e60ef9,29/09/1953,2020-09-10_14h38.41.341,proactive3.1,2020.1.2,Win32,60,5f599a131af4471f3d752b7b,5f5a24668ddeed0729625102,3,,,,,,razor,,,,,,0,5,5,54,1,6,2,,,,,,,,,,,,,,,,,,,,,,,,,,,,,,,,,,,,,,,,,,,,,,,,,,,,,,,,,,,,,,,,,,,,,,,,,,,,,,,,,,,,,,,,,,,,,,,,,,,,,,,,,,,,,
,,,,,,,,,,stimuli/images/PICTURE_452.png,COPS,5ea047d315537303f1e60ef9,29/09/1953,2020-09-10_14h38.41.341,proactive3.1,2020.1.2,Win32,60,5f599a131af4471f3d752b7b,5f5a24668ddeed0729625102,3,,,,,,watch,,,,,,0,6,6,0,1,1,2,,,,,,,,,,,,,,,,,,,,,,,,,,,,,,,,,,,,,,,,,,,,,,,,,,,,,,,,,,,,,,,,,,,,,,,,,,,,,,,,,,,,,,,,,,,,,,,,,,,,,,,,,,,,,
,,,,,,,,,,stimuli/images/PICTURE_147.png,LEADER,5ea047d315537303f1e60ef9,29/09/1953,2020-09-10_14h38.41.341,proactive3.1,2020.1.2,Win32,60,5f599a131af4471f3d752b7b,5f5a24668ddeed0729625102,3,,,,,,hanger,,,,,,0,7,7,33,1,4,2,,,,,,,,,,,,,,,,,,,,,,,,,,,,,,,,,,,,,,,,,,,,,,,,,,,,,,,,,,,,,,,,,,,,,,,,,,,,,,,,,,,,,,,,,,,,,,,,,,,,,,,,,,,,,
,,,,,,,,,,stimuli/images/PICTURE_208.png,SPIRIT,5ea047d315537303f1e60ef9,29/09/1953,2020-09-10_14h38.41.341,proactive3.1,2020.1.2,Win32,60,5f599a131af4471f3d752b7b,5f5a24668ddeed0729625102,3,,,,,,microphone,,,,,,0,8,8,28,1,3,2,,,,,,,,,,,,,,,,,,,,,,,,,,,,,,,,,,,,,,,,,,,,,,,,,,,,,,,,,,,,,,,,,,,,,,,,,,,,,,,,,,,,,,,,,,,,,,,,,,,,,,,,,,,,,
,,,,,,,,,,stimuli/images/PICTURE_509.png,SHOTS,5ea047d315537303f1e60ef9,29/09/1953,2020-09-10_14h38.41.341,proactive3.1,2020.1.2,Win32,60,5f599a131af4471f3d752b7b,5f5a24668ddeed0729625102,3,,,,,,telephone,,,,,,0,9,9,7,1,1,2,,,,,,,,,,,,,,,,,,,,,,,,,,,,,,,,,,,,,,,,,,,,,,,,,,,,,,,,,,,,,,,,,,,,,,,,,,,,,,,,,,,,,,,,,,,,,,,,,,,,,,,,,,,,,
,,,,,,,,,,stimuli/images/PICTURE_297.png,BODY,5ea047d315537303f1e60ef9,29/09/1953,2020-09-10_14h38.41.341,proactive3.1,2020.1.2,Win32,60,5f599a131af4471f3d752b7b,5f5a24668ddeed0729625102,3,,,,,,aeroplane,,,,,,0,10,10,51,1,6,2,,,,,,,,,,,,,,,,,,,,,,,,,,,,,,,,,,,,,,,,,,,,,,,,,,,,,,,,,,,,,,,,,,,,,,,,,,,,,,,,,,,,,,,,,,,,,,,,,,,,,,,,,,,,,
,,,,,,,,,,stimuli/images/PICTURE_655.png,SALE,5ea047d315537303f1e60ef9,29/09/1953,2020-09-10_14h38.41.341,proactive3.1,2020.1.2,Win32,60,5f599a131af4471f3d752b7b,5f5a24668ddeed0729625102,3,,,,,,megaphone,,,,,,0,11,11,57,1,6,2,,,,,,,,,,,,,,,,,,,,,,,,,,,,,,,,,,,,,,,,,,,,,,,,,,,,,,,,,,,,,,,,,,,,,,,,,,,,,,,,,,,,,,,,,,,,,,,,,,,,,,,,,,,,,
,,,,,,,,,,stimuli/images/PICTURE_708.png,VALLEY,5ea047d315537303f1e60ef9,29/09/1953,2020-09-10_14h38.41.341,proactive3.1,2020.1.2,Win32,60,5f599a131af4471f3d752b7b,5f5a24668ddeed0729625102,3,,,,,,monkey,,,,,,0,12,12,45,1,5,2,,,,,,,,,,,,,,,,,,,,,,,,,,,,,,,,,,,,,,,,,,,,,,,,,,,,,,,,,,,,,,,,,,,,,,,,,,,,,,,,,,,,,,,,,,,,,,,,,,,,,,,,,,,,,
,,,,,,,,,,stimuli/images/PICTURE_160.png,HOTEL,5ea047d315537303f1e60ef9,29/09/1953,2020-09-10_14h38.41.341,proactive3.1,2020.1.2,Win32,60,5f599a131af4471f3d752b7b,5f5a24668ddeed0729625102,3,,,,,,wheelbarrow,,,,,,0,13,13,16,1,2,2,,,,,,,,,,,,,,,,,,,,,,,,,,,,,,,,,,,,,,,,,,,,,,,,,,,,,,,,,,,,,,,,,,,,,,,,,,,,,,,,,,,,,,,,,,,,,,,,,,,,,,,,,,,,,
,,,,,,,,,,stimuli/images/PICTURE_57.png,NATION,5ea047d315537303f1e60ef9,29/09/1953,2020-09-10_14h38.41.341,proactive3.1,2020.1.2,Win32,60,5f599a131af4471f3d752b7b,5f5a24668ddeed0729625102,3,,,,,,stamp,,,,,,0,14,14,21,1,3,2,,,,,,,,,,,,,,,,,,,,,,,,,,,,,,,,,,,,,,,,,,,,,,,,,,,,,,,,,,,,,,,,,,,,,,,,,,,,,,,,,,,,,,,,,,,,,,,,,,,,,,,,,,,,,
,,,,,,,,,,stimuli/images/PICTURE_564.png,PLENTY,5ea047d315537303f1e60ef9,29/09/1953,2020-09-10_14h38.41.341,proactive3.1,2020.1.2,Win32,60,5f599a131af4471f3d752b7b,5f5a24668ddeed0729625102,3,,,,,,spoon,,,,,,0,15,15,11,1,2,2,,,,,,,,,,,,,,,,,,,,,,,,,,,,,,,,,,,,,,,,,,,,,,,,,,,,,,,,,,,,,,,,,,,,,,,,,,,,,,,,,,,,,,,,,,,,,,,,,,,,,,,,,,,,,
,,,,,,,,,,stimuli/images/PICTURE_509.png,BATH,5ea047d315537303f1e60ef9,29/09/1953,2020-09-10_14h38.41.341,proactive3.1,2020.1.2,Win32,60,5f599a131af4471f3d752b7b,5f5a24668ddeed0729625102,3,,,,,,telephone,,,,,,0,16,16,15,1,2,2,,,,,,,,,,,,,,,,,,,,,,,,,,,,,,,,,,,,,,,,,,,,,,,,,,,,,,,,,,,,,,,,,,,,,,,,,,,,,,,,,,,,,,,,,,,,,,,,,,,,,,,,,,,,,
,,,,,,,,,,stimuli/images/PICTURE_654.png,COPS,5ea047d315537303f1e60ef9,29/09/1953,2020-09-10_14h38.41.341,proactive3.1,2020.1.2,Win32,60,5f599a131af4471f3d752b7b,5f5a24668ddeed0729625102,3,,,,,,pencil,,,,,,0,17,17,10,1,2,2,,,,,,,,,,,,,,,,,,,,,,,,,,,,,,,,,,,,,,,,,,,,,,,,,,,,,,,,,,,,,,,,,,,,,,,,,,,,,,,,,,,,,,,,,,,,,,,,,,,,,,,,,,,,,
,,,,,,,,,,stimuli/images/PICTURE_470.png,BEAUTY,5ea047d315537303f1e60ef9,29/09/1953,2020-09-10_14h38.41.341,proactive3.1,2020.1.2,Win32,60,5f599a131af4471f3d752b7b,5f5a24668ddeed0729625102,3,,,,,,motorbike,,,,,,0,18,18,26,1,3,2,,,,,,,,,,,,,,,,,,,,,,,,,,,,,,,,,,,,,,,,,,,,,,,,,,,,,,,,,,,,,,,,,,,,,,,,,,,,,,,,,,,,,,,,,,,,,,,,,,,,,,,,,,,,,
,,,,,,,,,,stimuli/images/PICTURE_32.png,LETTER,5ea047d315537303f1e60ef9,29/09/1953,2020-09-10_14h38.41.341,proactive3.1,2020.1.2,Win32,60,5f599a131af4471f3d752b7b,5f5a24668ddeed0729625102,3,,,,,,crown,,,,,,0,19,19,56,1,6,2,,,,,,,,,,,,,,,,,,,,,,,,,,,,,,,,,,,,,,,,,,,,,,,,,,,,,,,,,,,,,,,,,,,,,,,,,,,,,,,,,,,,,,,,,,,,,,,,,,,,,,,,,,,,,
,,,,,,,,,,stimuli/images/PICTURE_487.png,ROOF,5ea047d315537303f1e60ef9,29/09/1953,2020-09-10_14h38.41.341,proactive3.1,2020.1.2,Win32,60,5f599a131af4471f3d752b7b,5f5a24668ddeed0729625102,3,,,,,,basket,,,,,,0,20,20,50,1,6,2,,,,,,,,,,,,,,,,,,,,,,,,,,,,,,,,,,,,,,,,,,,,,,,,,,,,,,,,,,,,,,,,,,,,,,,,,,,,,,,,,,,,,,,,,,,,,,,,,,,,,,,,,,,,,
,,,,,,,,,,stimuli/images/PICTURE_677.png,PHOTO,5ea047d315537303f1e60ef9,29/09/1953,2020-09-10_14h38.41.341,proactive3.1,2020.1.2,Win32,60,5f599a131af4471f3d752b7b,5f5a24668ddeed0729625102,3,,,,,,map,,,,,,0,21,21,14,1,2,2,,,,,,,,,,,,,,,,,,,,,,,,,,,,,,,,,,,,,,,,,,,,,,,,,,,,,,,,,,,,,,,,,,,,,,,,,,,,,,,,,,,,,,,,,,,,,,,,,,,,,,,,,,,,,
,,,,,,,,,,stimuli/images/PICTURE_296.png,CLOCK,5ea047d315537303f1e60ef9,29/09/1953,2020-09-10_14h38.41.341,proactive3.1,2020.1.2,Win32,60,5f599a131af4471f3d752b7b,5f5a24668ddeed0729625102,3,,,,,,bolt,,,,,,0,22,22,18,1,2,2,,,,,,,,,,,,,,,,,,,,,,,,,,,,,,,,,,,,,,,,,,,,,,,,,,,,,,,,,,,,,,,,,,,,,,,,,,,,,,,,,,,,,,,,,,,,,,,,,,,,,,,,,,,,,
,,,,,,,,,,stimuli/images/PICTURE_68.png,KIND,5ea047d315537303f1e60ef9,29/09/1953,2020-09-10_14h38.41.341,proactive3.1,2020.1.2,Win32,60,5f599a131af4471f3d752b7b,5f5a24668ddeed0729625102,3,,,,,,candle,,,,,,0,23,23,23,1,3,2,,,,,,,,,,,,,,,,,,,,,,,,,,,,,,,,,,,,,,,,,,,,,,,,,,,,,,,,,,,,,,,,,,,,,,,,,,,,,,,,,,,,,,,,,,,,,,,,,,,,,,,,,,,,,
,,,,,,,,,,stimuli/images/PICTURE_18.png,RIVER,5ea047d315537303f1e60ef9,29/09/1953,2020-09-10_14h38.41.341,proactive3.1,2020.1.2,Win32,60,5f599a131af4471f3d752b7b,5f5a24668ddeed0729625102,3,,,,,,planet,,,,,,0,24,24,22,1,3,2,,,,,,,,,,,,,,,,,,,,,,,,,,,,,,,,,,,,,,,,,,,,,,,,,,,,,,,,,,,,,,,,,,,,,,,,,,,,,,,,,,,,,,,,,,,,,,,,,,,,,,,,,,,,,
,,,,,,,,,,stimuli/images/PICTURE_348.png,DUDE,5ea047d315537303f1e60ef9,29/09/1953,2020-09-10_14h38.41.341,proactive3.1,2020.1.2,Win32,60,5f599a131af4471f3d752b7b,5f5a24668ddeed0729625102,3,,,,,,pepper,,,,,,0,25,25,59,1,6,2,,,,,,,,,,,,,,,,,,,,,,,,,,,,,,,,,,,,,,,,,,,,,,,,,,,,,,,,,,,,,,,,,,,,,,,,,,,,,,,,,,,,,,,,,,,,,,,,,,,,,,,,,,,,,
,,,,,,,,,,stimuli/images/PICTURE_2.png,YARD,5ea047d315537303f1e60ef9,29/09/1953,2020-09-10_14h38.41.341,proactive3.1,2020.1.2,Win32,60,5f599a131af4471f3d752b7b,5f5a24668ddeed0729625102,3,,,,,,tyre,,,,,,0,26,26,55,1,6,2,,,,,,,,,,,,,,,,,,,,,,,,,,,,,,,,,,,,,,,,,,,,,,,,,,,,,,,,,,,,,,,,,,,,,,,,,,,,,,,,,,,,,,,,,,,,,,,,,,,,,,,,,,,,,
,,,,,,,,,,stimuli/images/PICTURE_2.png,AREA,5ea047d315537303f1e60ef9,29/09/1953,2020-09-10_14h38.41.341,proactive3.1,2020.1.2,Win32,60,5f599a131af4471f3d752b7b,5f5a24668ddeed0729625102,3,,,,,,tyre,,,,,,0,27,27,32,1,4,2,,,,,,,,,,,,,,,,,,,,,,,,,,,,,,,,,,,,,,,,,,,,,,,,,,,,,,,,,,,,,,,,,,,,,,,,,,,,,,,,,,,,,,,,,,,,,,,,,,,,,,,,,,,,,
,,,,,,,,,,stimuli/images/PICTURE_750.png,POLICY,5ea047d315537303f1e60ef9,29/09/1953,2020-09-10_14h38.41.341,proactive3.1,2020.1.2,Win32,60,5f599a131af4471f3d752b7b,5f5a24668ddeed0729625102,3,,,,,,kettle,,,,,,0,28,28,44,1,5,2,,,,,,,,,,,,,,,,,,,,,,,,,,,,,,,,,,,,,,,,,,,,,,,,,,,,,,,,,,,,,,,,,,,,,,,,,,,,,,,,,,,,,,,,,,,,,,,,,,,,,,,,,,,,,
,,,,,,,,,,stimuli/images/PICTURE_403.png,FAMILY,5ea047d315537303f1e60ef9,29/09/1953,2020-09-10_14h38.41.341,proactive3.1,2020.1.2,Win32,60,5f599a131af4471f3d752b7b,5f5a24668ddeed0729625102,3,,,,,,cathedral,,,,,,0,29,29,9,1,1,2,,,,,,,,,,,,,,,,,,,,,,,,,,,,,,,,,,,,,,,,,,,,,,,,,,,,,,,,,,,,,,,,,,,,,,,,,,,,,,,,,,,,,,,,,,,,,,,,,,,,,,,,,,,,,
,,,,,,,,,,stimuli/images/PICTURE_123.png,SALE,5ea047d315537303f1e60ef9,29/09/1953,2020-09-10_14h38.41.341,proactive3.1,2020.1.2,Win32,60,5f599a131af4471f3d752b7b,5f5a24668ddeed0729625102,3,,,,,,dart,,,,,,0,30,30,8,1,1,2,,,,,,,,,,,,,,,,,,,,,,,,,,,,,,,,,,,,,,,,,,,,,,,,,,,,,,,,,,,,,,,,,,,,,,,,,,,,,,,,,,,,,,,,,,,,,,,,,,,,,,,,,,,,,
,,,,,,,,,,stimuli/images/PICTURE_405.png,HOUSE,5ea047d315537303f1e60ef9,29/09/1953,2020-09-10_14h38.41.341,proactive3.1,2020.1.2,Win32,60,5f599a131af4471f3d752b7b,5f5a24668ddeed0729625102,3,,,,,,anchor,,,,,,0,31,31,2,1,1,2,,,,,,,,,,,,,,,,,,,,,,,,,,,,,,,,,,,,,,,,,,,,,,,,,,,,,,,,,,,,,,,,,,,,,,,,,,,,,,,,,,,,,,,,,,,,,,,,,,,,,,,,,,,,,
,,,,,,,,,,stimuli/images/PICTURE_285.png,WRITER,5ea047d315537303f1e60ef9,29/09/1953,2020-09-10_14h38.41.341,proactive3.1,2020.1.2,Win32,60,5f599a131af4471f3d752b7b,5f5a24668ddeed0729625102,3,,,,,,carrot,,,,,,0,32,32,6,1,1,2,,,,,,,,,,,,,,,,,,,,,,,,,,,,,,,,,,,,,,,,,,,,,,,,,,,,,,,,,,,,,,,,,,,,,,,,,,,,,,,,,,,,,,,,,,,,,,,,,,,,,,,,,,,,,
,,,,,,,,,,stimuli/images/PICTURE_327.png,LEADER,5ea047d315537303f1e60ef9,29/09/1953,2020-09-10_14h38.41.341,proactive3.1,2020.1.2,Win32,60,5f599a131af4471f3d752b7b,5f5a24668ddeed0729625102,3,,,,,,helmet,,,,,,0,33,33,17,1,2,2,,,,,,,,,,,,,,,,,,,,,,,,,,,,,,,,,,,,,,,,,,,,,,,,,,,,,,,,,,,,,,,,,,,,,,,,,,,,,,,,,,,,,,,,,,,,,,,,,,,,,,,,,,,,,
,,,,,,,,,,stimuli/images/PICTURE_688.png,CLOCK,5ea047d315537303f1e60ef9,29/09/1953,2020-09-10_14h38.41.341,proactive3.1,2020.1.2,Win32,60,5f599a131af4471f3d752b7b,5f5a24668ddeed0729625102,3,,,,,,runner,,,,,,0,34,34,42,1,5,2,,,,,,,,,,,,,,,,,,,,,,,,,,,,,,,,,,,,,,,,,,,,,,,,,,,,,,,,,,,,,,,,,,,,,,,,,,,,,,,,,,,,,,,,,,,,,,,,,,,,,,,,,,,,,
,,,,,,,,,,stimuli/images/PICTURE_215.png,FOOD,5ea047d315537303f1e60ef9,29/09/1953,2020-09-10_14h38.41.341,proactive3.1,2020.1.2,Win32,60,5f599a131af4471f3d752b7b,5f5a24668ddeed0729625102,3,,,,,,boot,,,,,,0,35,35,5,1,1,2,,,,,,,,,,,,,,,,,,,,,,,,,,,,,,,,,,,,,,,,,,,,,,,,,,,,,,,,,,,,,,,,,,,,,,,,,,,,,,,,,,,,,,,,,,,,,,,,,,,,,,,,,,,,,
,,,,,,,,,,stimuli/images/PICTURE_677.png,FAMILY,5ea047d315537303f1e60ef9,29/09/1953,2020-09-10_14h38.41.341,proactive3.1,2020.1.2,Win32,60,5f599a131af4471f3d752b7b,5f5a24668ddeed0729625102,3,,,,,,map,,,,,,0,36,36,53,1,6,2,,,,,,,,,,,,,,,,,,,,,,,,,,,,,,,,,,,,,,,,,,,,,,,,,,,,,,,,,,,,,,,,,,,,,,,,,,,,,,,,,,,,,,,,,,,,,,,,,,,,,,,,,,,,,
,,,,,,,,,,stimuli/images/PICTURE_405.png,JUNGLE,5ea047d315537303f1e60ef9,29/09/1953,2020-09-10_14h38.41.341,proactive3.1,2020.1.2,Win32,60,5f599a131af4471f3d752b7b,5f5a24668ddeed0729625102,3,,,,,,anchor,,,,,,0,37,37,58,1,6,2,,,,,,,,,,,,,,,,,,,,,,,,,,,,,,,,,,,,,,,,,,,,,,,,,,,,,,,,,,,,,,,,,,,,,,,,,,,,,,,,,,,,,,,,,,,,,,,,,,,,,,,,,,,,,
,,,,,,,,,,stimuli/images/PICTURE_509.png,MILLER,5ea047d315537303f1e60ef9,29/09/1953,2020-09-10_14h38.41.341,proactive3.1,2020.1.2,Win32,60,5f599a131af4471f3d752b7b,5f5a24668ddeed0729625102,3,,,,,,telephone,,,,,,0,38,38,49,1,5,2,,,,,,,,,,,,,,,,,,,,,,,,,,,,,,,,,,,,,,,,,,,,,,,,,,,,,,,,,,,,,,,,,,,,,,,,,,,,,,,,,,,,,,,,,,,,,,,,,,,,,,,,,,,,,
,,,,,,,,,,stimuli/images/PICTURE_453.png,FAMILY,5ea047d315537303f1e60ef9,29/09/1953,2020-09-10_14h38.41.341,proactive3.1,2020.1.2,Win32,60,5f599a131af4471f3d752b7b,5f5a24668ddeed0729625102,3,,,,,,scissors,,,,,,0,39,39,48,1,5,2,,,,,,,,,,,,,,,,,,,,,,,,,,,,,,,,,,,,,,,,,,,,,,,,,,,,,,,,,,,,,,,,,,,,,,,,,,,,,,,,,,,,,,,,,,,,,,,,,,,,,,,,,,,,,
,,,,,,,,,,stimuli/images/PICTURE_141.png,CLIENT,5ea047d315537303f1e60ef9,29/09/1953,2020-09-10_14h38.41.341,proactive3.1,2020.1.2,Win32,60,5f599a131af4471f3d752b7b,5f5a24668ddeed0729625102,3,,,,,,sunflower,,,,,,0,40,40,30,1,4,2,,,,,,,,,,,,,,,,,,,,,,,,,,,,,,,,,,,,,,,,,,,,,,,,,,,,,,,,,,,,,,,,,,,,,,,,,,,,,,,,,,,,,,,,,,,,,,,,,,,,,,,,,,,,,
,,,,,,,,,,stimuli/images/PICTURE_692.png,DUDE,5ea047d315537303f1e60ef9,29/09/1953,2020-09-10_14h38.41.341,proactive3.1,2020.1.2,Win32,60,5f599a131af4471f3d752b7b,5f5a24668ddeed0729625102,3,,,,,,cherry,,,,,,0,41,41,47,1,5,2,,,,,,,,,,,,,,,,,,,,,,,,,,,,,,,,,,,,,,,,,,,,,,,,,,,,,,,,,,,,,,,,,,,,,,,,,,,,,,,,,,,,,,,,,,,,,,,,,,,,,,,,,,,,,
,,,,,,,,,,stimuli/images/PICTURE_311.png,FLESH,5ea047d315537303f1e60ef9,29/09/1953,2020-09-10_14h38.41.341,proactive3.1,2020.1.2,Win32,60,5f599a131af4471f3d752b7b,5f5a24668ddeed0729625102,3,,,,,,razor,,,,,,0,42,42,3,1,1,2,,,,,,,,,,,,,,,,,,,,,,,,,,,,,,,,,,,,,,,,,,,,,,,,,,,,,,,,,,,,,,,,,,,,,,,,,,,,,,,,,,,,,,,,,,,,,,,,,,,,,,,,,,,,,
,,,,,,,,,,stimuli/images/PICTURE_504.png,HOUSE,5ea047d315537303f1e60ef9,29/09/1953,2020-09-10_14h38.41.341,proactive3.1,2020.1.2,Win32,60,5f599a131af4471f3d752b7b,5f5a24668ddeed0729625102,3,,,,,,wheel,,,,,,0,43,43,36,1,4,2,,,,,,,,,,,,,,,,,,,,,,,,,,,,,,,,,,,,,,,,,,,,,,,,,,,,,,,,,,,,,,,,,,,,,,,,,,,,,,,,,,,,,,,,,,,,,,,,,,,,,,,,,,,,,
,,,,,,,,,,stimuli/images/PICTURE_93.png,GIRL,5ea047d315537303f1e60ef9,29/09/1953,2020-09-10_14h38.41.341,proactive3.1,2020.1.2,Win32,60,5f599a131af4471f3d752b7b,5f5a24668ddeed0729625102,3,,,,,,skateboard,,,,,,0,44,44,31,1,4,2,,,,,,,,,,,,,,,,,,,,,,,,,,,,,,,,,,,,,,,,,,,,,,,,,,,,,,,,,,,,,,,,,,,,,,,,,,,,,,,,,,,,,,,,,,,,,,,,,,,,,,,,,,,,,
,,,,,,,,,,stimuli/images/PICTURE_95.png,NIGHT,5ea047d315537303f1e60ef9,29/09/1953,2020-09-10_14h38.41.341,proactive3.1,2020.1.2,Win32,60,5f599a131af4471f3d752b7b,5f5a24668ddeed0729625102,3,,,,,,suitcase,,,,,,0,45,45,37,1,4,2,,,,,,,,,,,,,,,,,,,,,,,,,,,,,,,,,,,,,,,,,,,,,,,,,,,,,,,,,,,,,,,,,,,,,,,,,,,,,,,,,,,,,,,,,,,,,,,,,,,,,,,,,,,,,
,,,,,,,,,,stimuli/images/PICTURE_487.png,POLICY,5ea047d315537303f1e60ef9,29/09/1953,2020-09-10_14h38.41.341,proactive3.1,2020.1.2,Win32,60,5f599a131af4471f3d752b7b,5f5a24668ddeed0729625102,3,,,,,,basket,,,,,,0,46,46,34,1,4,2,,,,,,,,,,,,,,,,,,,,,,,,,,,,,,,,,,,,,,,,,,,,,,,,,,,,,,,,,,,,,,,,,,,,,,,,,,,,,,,,,,,,,,,,,,,,,,,,,,,,,,,,,,,,,
,,,,,,,,,,stimuli/images/PICTURE_348.png,TOILET,5ea047d315537303f1e60ef9,29/09/1953,2020-09-10_14h38.41.341,proactive3.1,2020.1.2,Win32,60,5f599a131af4471f3d752b7b,5f5a24668ddeed0729625102,3,,,,,,pepper,,,,,,0,47,47,4,1,1,2,,,,,,,,,,,,,,,,,,,,,,,,,,,,,,,,,,,,,,,,,,,,,,,,,,,,,,,,,,,,,,,,,,,,,,,,,,,,,,,,,,,,,,,,,,,,,,,,,,,,,,,,,,,,,
,,,,,,,,,,stimuli/images/PICTURE_57.png,CANDY,5ea047d315537303f1e60ef9,29/09/1953,2020-09-10_14h38.41.341,proactive3.1,2020.1.2,Win32,60,5f599a131af4471f3d752b7b,5f5a24668ddeed0729625102,3,,,,,,stamp,,,,,,0,48,48,52,1,6,2,,,,,,,,,,,,,,,,,,,,,,,,,,,,,,,,,,,,,,,,,,,,,,,,,,,,,,,,,,,,,,,,,,,,,,,,,,,,,,,,,,,,,,,,,,,,,,,,,,,,,,,,,,,,,
,,,,,,,,,,stimuli/images/PICTURE_57.png,CASINO,5ea047d315537303f1e60ef9,29/09/1953,2020-09-10_14h38.41.341,proactive3.1,2020.1.2,Win32,60,5f599a131af4471f3d752b7b,5f5a24668ddeed0729625102,3,,,,,,stamp,,,,,,0,49,49,12,1,2,2,,,,,,,,,,,,,,,,,,,,,,,,,,,,,,,,,,,,,,,,,,,,,,,,,,,,,,,,,,,,,,,,,,,,,,,,,,,,,,,,,,,,,,,,,,,,,,,,,,,,,,,,,,,,,
,,,,,,,,,,stimuli/images/PICTURE_2.png,JUNGLE,5ea047d315537303f1e60ef9,29/09/1953,2020-09-10_14h38.41.341,proactive3.1,2020.1.2,Win32,60,5f599a131af4471f3d752b7b,5f5a24668ddeed0729625102,3,,,,,,tyre,,,,,,0,50,50,1,1,1,2,,,,,,,,,,,,,,,,,,,,,,,,,,,,,,,,,,,,,,,,,,,,,,,,,,,,,,,,,,,,,,,,,,,,,,,,,,,,,,,,,,,,,,,,,,,,,,,,,,,,,,,,,,,,,
,,,,,,,,,,stimuli/images/PICTURE_215.png,LEADER,5ea047d315537303f1e60ef9,29/09/1953,2020-09-10_14h38.41.341,proactive3.1,2020.1.2,Win32,60,5f599a131af4471f3d752b7b,5f5a24668ddeed0729625102,3,,,,,,boot,,,,,,0,51,51,43,1,5,2,,,,,,,,,,,,,,,,,,,,,,,,,,,,,,,,,,,,,,,,,,,,,,,,,,,,,,,,,,,,,,,,,,,,,,,,,,,,,,,,,,,,,,,,,,,,,,,,,,,,,,,,,,,,,
,,,,,,,,,,stimuli/images/PICTURE_654.png,YEAR,5ea047d315537303f1e60ef9,29/09/1953,2020-09-10_14h38.41.341,proactive3.1,2020.1.2,Win32,60,5f599a131af4471f3d752b7b,5f5a24668ddeed0729625102,3,,,,,,pencil,,,,,,0,52,52,41,1,5,2,,,,,,,,,,,,,,,,,,,,,,,,,,,,,,,,,,,,,,,,,,,,,,,,,,,,,,,,,,,,,,,,,,,,,,,,,,,,,,,,,,,,,,,,,,,,,,,,,,,,,,,,,,,,,
,,,,,,,,,,stimuli/images/PICTURE_356.png,CANDY,5ea047d315537303f1e60ef9,29/09/1953,2020-09-10_14h38.41.341,proactive3.1,2020.1.2,Win32,60,5f599a131af4471f3d752b7b,5f5a24668ddeed0729625102,3,,,,,,pawn,,,,,,0,53,53,46,1,5,2,,,,,,,,,,,,,,,,,,,,,,,,,,,,,,,,,,,,,,,,,,,,,,,,,,,,,,,,,,,,,,,,,,,,,,,,,,,,,,,,,,,,,,,,,,,,,,,,,,,,,,,,,,,,,
,,,,,,,,,,stimuli/images/PICTURE_33.png,COPS,5ea047d315537303f1e60ef9,29/09/1953,2020-09-10_14h38.41.341,proactive3.1,2020.1.2,Win32,60,5f599a131af4471f3d752b7b,5f5a24668ddeed0729625102,3,,,,,,frame,,,,,,0,54,54,29,1,3,2,,,,,,,,,,,,,,,,,,,,,,,,,,,,,,,,,,,,,,,,,,,,,,,,,,,,,,,,,,,,,,,,,,,,,,,,,,,,,,,,,,,,,,,,,,,,,,,,,,,,,,,,,,,,,
,,,,,,,,,,stimuli/images/PICTURE_491.png,SERIES,5ea047d315537303f1e60ef9,29/09/1953,2020-09-10_14h38.41.341,proactive3.1,2020.1.2,Win32,60,5f599a131af4471f3d752b7b,5f5a24668ddeed0729625102,3,,,,,,rug,,,,,,0,55,55,39,1,4,2,,,,,,,,,,,,,,,,,,,,,,,,,,,,,,,,,,,,,,,,,,,,,,,,,,,,,,,,,,,,,,,,,,,,,,,,,,,,,,,,,,,,,,,,,,,,,,,,,,,,,,,,,,,,,
,,,,,,,,,,stimuli/images/PICTURE_177.png,HOUSE,5ea047d315537303f1e60ef9,29/09/1953,2020-09-10_14h38.41.341,proactive3.1,2020.1.2,Win32,60,5f599a131af4471f3d752b7b,5f5a24668ddeed0729625102,3,,,,,,mushroom,,,,,,0,56,56,25,1,3,2,,,,,,,,,,,,,,,,,,,,,,,,,,,,,,,,,,,,,,,,,,,,,,,,,,,,,,,,,,,,,,,,,,,,,,,,,,,,,,,,,,,,,,,,,,,,,,,,,,,,,,,,,,,,,
,,,,,,,,,,stimuli/images/PICTURE_255.png,PENNY,5ea047d315537303f1e60ef9,29/09/1953,2020-09-10_14h38.41.341,proactive3.1,2020.1.2,Win32,60,5f599a131af4471f3d752b7b,5f5a24668ddeed0729625102,3,,,,,,shovel,,,,,,0,57,57,19,1,2,2,,,,,,,,,,,,,,,,,,,,,,,,,,,,,,,,,,,,,,,,,,,,,,,,,,,,,,,,,,,,,,,,,,,,,,,,,,,,,,,,,,,,,,,,,,,,,,,,,,,,,,,,,,,,,
,,,,,,,,,,stimuli/images/PICTURE_285.png,PRINCE,5ea047d315537303f1e60ef9,29/09/1953,2020-09-10_14h38.41.341,proactive3.1,2020.1.2,Win32,60,5f599a131af4471f3d752b7b,5f5a24668ddeed0729625102,3,,,,,,carrot,,,,,,0,58,58,20,1,3,2,,,,,,,,,,,,,,,,,,,,,,,,,,,,,,,,,,,,,,,,,,,,,,,,,,,,,,,,,,,,,,,,,,,,,,,,,,,,,,,,,,,,,,,,,,,,,,,,,,,,,,,,,,,,,
,,?,0.0011,0,,,,,,stimuli/images/PICTURE_491.png,SERIES,5ea047d315537303f1e60ef9,29/09/1953,2020-09-10_14h38.41.341,proactive3.1,2020.1.2,Win32,60,5f599a131af4471f3d752b7b,5f5a24668ddeed0729625102,3,,,,,,rug,,,,,,,,,,,4,2,0,0,0,39,1,,,,,,,,,,,,,,,,,,,,,,,,,,,,,,,,,,,,,,,,,,,,,,,,,,,,,,,,,,,,,,,,,,,,,,,,,,,,,,,,,,,,,,,,,,,,,,,,,,,,,,,,
,,?,0.000485,0,,,,,,stimuli/images/PICTURE_57.png,CANDY,5ea047d315537303f1e60ef9,29/09/1953,2020-09-10_14h38.41.341,proactive3.1,2020.1.2,Win32,60,5f599a131af4471f3d752b7b,5f5a24668ddeed0729625102,3,,,,,,stamp,,,,,,,,,,,6,2,0,1,1,52,1,,,,,,,,,,,,,,,,,,,,,,,,,,,,,,,,,,,,,,,,,,,,,,,,,,,,,,,,,,,,,,,,,,,,,,,,,,,,,,,,,,,,,,,,,,,,,,,,,,,,,,,,
,,?,0.000465,0,,,,,,stimuli/images/PICTURE_654.png,YEAR,5ea047d315537303f1e60ef9,29/09/1953,2020-09-10_14h38.41.341,proactive3.1,2020.1.2,Win32,60,5f599a131af4471f3d752b7b,5f5a24668ddeed0729625102,3,,,,,,pencil,,,,,,,,,,,5,2,0,2,2,41,1,,,,,,,,,,,,,,,,,,,,,,,,,,,,,,,,,,,,,,,,,,,,,,,,,,,,,,,,,,,,,,,,,,,,,,,,,,,,,,,,,,,,,,,,,,,,,,,,,,,,,,,,
,,?,0.002625,0,,,,,,stimuli/images/PICTURE_2.png,AREA,5ea047d315537303f1e60ef9,29/09/1953,2020-09-10_14h38.41.341,proactive3.1,2020.1.2,Win32,60,5f599a131af4471f3d752b7b,5f5a24668ddeed0729625102,3,,,,,,tyre,,,,,,,,,,,4,2,0,3,3,32,1,,,,,,,,,,,,,,,,,,,,,,,,,,,,,,,,,,,,,,,,,,,,,,,,,,,,,,,,,,,,,,,,,,,,,,,,,,,,,,,,,,,,,,,,,,,,,,,,,,,,,,,,
,,?,0.001,0,,,,,,stimuli/images/PICTURE_453.png,FAMILY,5ea047d315537303f1e60ef9,29/09/1953,2020-09-10_14h38.41.341,proactive3.1,2020.1.2,Win32,60,5f599a131af4471f3d752b7b,5f5a24668ddeed0729625102,3,,,,,,scissors,,,,,,,,,,,5,2,0,4,4,48,1,,,,,,,,,,,,,,,,,,,,,,,,,,,,,,,,,,,,,,,,,,,,,,,,,,,,,,,,,,,,,,,,,,,,,,,,,,,,,,,,,,,,,,,,,,,,,,,,,,,,,,,,
,,?,0.000485,0,,,,,,stimuli/images/PICTURE_470.png,MOMENT,5ea047d315537303f1e60ef9,29/09/1953,2020-09-10_14h38.41.341,proactive3.1,2020.1.2,Win32,60,5f599a131af4471f3d752b7b,5f5a24668ddeed0729625102,3,,,,,,motorbike,,,,,,,,,,,5,2,0,5,5,40,1,,,,,,,,,,,,,,,,,,,,,,,,,,,,,,,,,,,,,,,,,,,,,,,,,,,,,,,,,,,,,,,,,,,,,,,,,,,,,,,,,,,,,,,,,,,,,,,,,,,,,,,,
,,?,0.00092,0,,,,,,stimuli/images/PICTURE_452.png,COPS,5ea047d315537303f1e60ef9,29/09/1953,2020-09-10_14h38.41.341,proactive3.1,2020.1.2,Win32,60,5f599a131af4471f3d752b7b,5f5a24668ddeed0729625102,3,,,,,,watch,,,,,,,,,,,1,2,0,6,6,0,1,,,,,,,,,,,,,,,,,,,,,,,,,,,,,,,,,,,,,,,,,,,,,,,,,,,,,,,,,,,,,,,,,,,,,,,,,,,,,,,,,,,,,,,,,,,,,,,,,,,,,,,,
,,?,0.00048,0,,,,,,stimuli/images/PICTURE_311.png,FLESH,5ea047d315537303f1e60ef9,29/09/1953,2020-09-10_14h38.41.341,proactive3.1,2020.1.2,Win32,60,5f599a131af4471f3d752b7b,5f5a24668ddeed0729625102,3,,,,,,razor,,,,,,,,,,,1,2,0,7,7,3,1,,,,,,,,,,,,,,,,,,,,,,,,,,,,,,,,,,,,,,,,,,,,,,,,,,,,,,,,,,,,,,,,,,,,,,,,,,,,,,,,,,,,,,,,,,,,,,,,,,,,,,,,
,,?,0.00047,0,,,,,,stimuli/images/PICTURE_311.png,TOILET,5ea047d315537303f1e60ef9,29/09/1953,2020-09-10_14h38.41.341,proactive3.1,2020.1.2,Win32,60,5f599a131af4471f3d752b7b,5f5a24668ddeed0729625102,3,,,,,,razor,,,,,,,,,,,6,2,0,8,8,54,1,,,,,,,,,,,,,,,,,,,,,,,,,,,,,,,,,,,,,,,,,,,,,,,,,,,,,,,,,,,,,,,,,,,,,,,,,,,,,,,,,,,,,,,,,,,,,,,,,,,,,,,,
,,?,2.36293,0,,,,,,stimuli/images/PICTURE_33.png,COPS,5ea047d315537303f1e60ef9,29/09/1953,2020-09-10_14h38.41.341,proactive3.1,2020.1.2,Win32,60,5f599a131af4471f3d752b7b,5f5a24668ddeed0729625102,3,,,,,,frame,,,,,,,,,,,3,2,0,9,9,29,1,,,,,,,,,,,,,,,,,,,,,,,,,,,,,,,,,,,,,,,,,,,,,,,,,,,,,,,,,,,,,,,,,,,,,,,,,,,,,,,,,,,,,,,,,,,,,,,,,,,,,,,,
,,RIVER,6.680055,0,,,,,,stimuli/images/PICTURE_177.png,HOUSE,5ea047d315537303f1e60ef9,29/09/1953,2020-09-10_14h38.41.341,proactive3.1,2020.1.2,Win32,60,5f599a131af4471f3d752b7b,5f5a24668ddeed0729625102,3,,,,,,mushroom,,,,,,,,,,,3,2,0,10,10,25,1,,,,,,,,,,,,,,,,,,,,,,,,,,,,,,,,,,,,,,,,,,,,,,,,,,,,,,,,,,,,,,,,,,,,,,,,,,,,,,,,,,,,,,,,,,,,,,,,,,,,,,,,
,,?,0.00316,0,,,,,,stimuli/images/PICTURE_487.png,POLICY,5ea047d315537303f1e60ef9,29/09/1953,2020-09-10_14h38.41.341,proactive3.1,2020.1.2,Win32,60,5f599a131af4471f3d752b7b,5f5a24668ddeed0729625102,3,,,,,,basket,,,,,,,,,,,4,2,0,11,11,34,1,,,,,,,,,,,,,,,,,,,,,,,,,,,,,,,,,,,,,,,,,,,,,,,,,,,,,,,,,,,,,,,,,,,,,,,,,,,,,,,,,,,,,,,,,,,,,,,,,,,,,,,,
,,GLASS,3.97564,1,,,,,,stimuli/images/PICTURE_667.png,GLASS,5ea047d315537303f1e60ef9,29/09/1953,2020-09-10_14h38.41.341,proactive3.1,2020.1.2,Win32,60,5f599a131af4471f3d752b7b,5f5a24668ddeed0729625102,3,,,,,,daisy,,,,,,,,,,,3,2,0,12,12,27,1,,,,,,,,,,,,,,,,,,,,,,,,,,,,,,,,,,,,,,,,,,,,,,,,,,,,,,,,,,,,,,,,,,,,,,,,,,,,,,,,,,,,,,,,,,,,,,,,,,,,,,,,
,,?,0.003275,0,,,,,,stimuli/images/PICTURE_297.png,BODY,5ea047d315537303f1e60ef9,29/09/1953,2020-09-10_14h38.41.341,proactive3.1,2020.1.2,Win32,60,5f599a131af4471f3d752b7b,5f5a24668ddeed0729625102,3,,,,,,aeroplane,,,,,,,,,,,6,2,0,13,13,51,1,,,,,,,,,,,,,,,,,,,,,,,,,,,,,,,,,,,,,,,,,,,,,,,,,,,,,,,,,,,,,,,,,,,,,,,,,,,,,,,,,,,,,,,,,,,,,,,,,,,,,,,,
,,?,0.000765,0,,,,,,stimuli/images/PICTURE_255.png,PENNY,5ea047d315537303f1e60ef9,29/09/1953,2020-09-10_14h38.41.341,proactive3.1,2020.1.2,Win32,60,5f599a131af4471f3d752b7b,5f5a24668ddeed0729625102,3,,,,,,shovel,,,,,,,,,,,2,2,0,14,14,19,1,,,,,,,,,,,,,,,,,,,,,,,,,,,,,,,,,,,,,,,,,,,,,,,,,,,,,,,,,,,,,,,,,,,,,,,,,,,,,,,,,,,,,,,,,,,,,,,,,,,,,,,,
,,?,0.00092,0,,,,,,stimuli/images/PICTURE_123.png,SALE,5ea047d315537303f1e60ef9,29/09/1953,2020-09-10_14h38.41.341,proactive3.1,2020.1.2,Win32,60,5f599a131af4471f3d752b7b,5f5a24668ddeed0729625102,3,,,,,,dart,,,,,,,,,,,1,2,0,15,15,8,1,,,,,,,,,,,,,,,,,,,,,,,,,,,,,,,,,,,,,,,,,,,,,,,,,,,,,,,,,,,,,,,,,,,,,,,,,,,,,,,,,,,,,,,,,,,,,,,,,,,,,,,,
,,?,0.0019,0,,,,,,stimuli/images/PICTURE_2.png,JUNGLE,5ea047d315537303f1e60ef9,29/09/1953,2020-09-10_14h38.41.341,proactive3.1,2020.1.2,Win32,60,5f599a131af4471f3d752b7b,5f5a24668ddeed0729625102,3,,,,,,tyre,,,,,,,,,,,1,2,0,16,16,1,1,,,,,,,,,,,,,,,,,,,,,,,,,,,,,,,,,,,,,,,,,,,,,,,,,,,,,,,,,,,,,,,,,,,,,,,,,,,,,,,,,,,,,,,,,,,,,,,,,,,,,,,,
,,?,0.00088,0,,,,,,stimuli/images/PICTURE_564.png,PLENTY,5ea047d315537303f1e60ef9,29/09/1953,2020-09-10_14h38.41.341,proactive3.1,2020.1.2,Win32,60,5f599a131af4471f3d752b7b,5f5a24668ddeed0729625102,3,,,,,,spoon,,,,,,,,,,,2,2,0,17,17,11,1,,,,,,,,,,,,,,,,,,,,,,,,,,,,,,,,,,,,,,,,,,,,,,,,,,,,,,,,,,,,,,,,,,,,,,,,,,,,,,,,,,,,,,,,,,,,,,,,,,,,,,,,
,,?,0.000795,0,,,,,,stimuli/images/PICTURE_327.png,LEADER,5ea047d315537303f1e60ef9,29/09/1953,2020-09-10_14h38.41.341,proactive3.1,2020.1.2,Win32,60,5f599a131af4471f3d752b7b,5f5a24668ddeed0729625102,3,,,,,,helmet,,,,,,,,,,,2,2,0,18,18,17,1,,,,,,,,,,,,,,,,,,,,,,,,,,,,,,,,,,,,,,,,,,,,,,,,,,,,,,,,,,,,,,,,,,,,,,,,,,,,,,,,,,,,,,,,,,,,,,,,,,,,,,,,
,,?,0.00077,0,,,,,,stimuli/images/PICTURE_296.png,CLOCK,5ea047d315537303f1e60ef9,29/09/1953,2020-09-10_14h38.41.341,proactive3.1,2020.1.2,Win32,60,5f599a131af4471f3d752b7b,5f5a24668ddeed0729625102,3,,,,,,bolt,,,,,,,,,,,2,2,0,19,19,18,1,,,,,,,,,,,,,,,,,,,,,,,,,,,,,,,,,,,,,,,,,,,,,,,,,,,,,,,,,,,,,,,,,,,,,,,,,,,,,,,,,,,,,,,,,,,,,,,,,,,,,,,,
,,?,0.005295,0,,,,,,stimuli/images/PICTURE_348.png,TOILET,5ea047d315537303f1e60ef9,29/09/1953,2020-09-10_14h38.41.341,proactive3.1,2020.1.2,Win32,60,5f599a131af4471f3d752b7b,5f5a24668ddeed0729625102,3,,,,,,pepper,,,,,,,,,,,1,2,0,20,20,4,1,,,,,,,,,,,,,,,,,,,,,,,,,,,,,,,,,,,,,,,,,,,,,,,,,,,,,,,,,,,,,,,,,,,,,,,,,,,,,,,,,,,,,,,,,,,,,,,,,,,,,,,,
,,?,0.0021,0,,,,,,stimuli/images/PICTURE_147.png,LEADER,5ea047d315537303f1e60ef9,29/09/1953,2020-09-10_14h38.41.341,proactive3.1,2020.1.2,Win32,60,5f599a131af4471f3d752b7b,5f5a24668ddeed0729625102,3,,,,,,hanger,,,,,,,,,,,4,2,0,21,21,33,1,,,,,,,,,,,,,,,,,,,,,,,,,,,,,,,,,,,,,,,,,,,,,,,,,,,,,,,,,,,,,,,,,,,,,,,,,,,,,,,,,,,,,,,,,,,,,,,,,,,,,,,,
,,?,0.001365,0,,,,,,stimuli/images/PICTURE_95.png,NIGHT,5ea047d315537303f1e60ef9,29/09/1953,2020-09-10_14h38.41.341,proactive3.1,2020.1.2,Win32,60,5f599a131af4471f3d752b7b,5f5a24668ddeed0729625102,3,,,,,,suitcase,,,,,,,,,,,4,2,0,22,22,37,1,,,,,,,,,,,,,,,,,,,,,,,,,,,,,,,,,,,,,,,,,,,,,,,,,,,,,,,,,,,,,,,,,,,,,,,,,,,,,,,,,,,,,,,,,,,,,,,,,,,,,,,,
,,KIND,5.44623,0,,,,,,stimuli/images/PICTURE_285.png,PRINCE,5ea047d315537303f1e60ef9,29/09/1953,2020-09-10_14h38.41.341,proactive3.1,2020.1.2,Win32,60,5f599a131af4471f3d752b7b,5f5a24668ddeed0729625102,3,,,,,,carrot,,,,,,,,,,,3,2,0,23,23,20,1,,,,,,,,,,,,,,,,,,,,,,,,,,,,,,,,,,,,,,,,,,,,,,,,,,,,,,,,,,,,,,,,,,,,,,,,,,,,,,,,,,,,,,,,,,,,,,,,,,,,,,,,
,,?,0.00331,0,,,,,,stimuli/images/PICTURE_314.png,SPEECH,5ea047d315537303f1e60ef9,29/09/1953,2020-09-10_14h38.41.341,proactive3.1,2020.1.2,Win32,60,5f599a131af4471f3d752b7b,5f5a24668ddeed0729625102,3,,,,,,perfume,,,,,,,,,,,4,2,0,24,24,35,1,,,,,,,,,,,,,,,,,,,,,,,,,,,,,,,,,,,,,,,,,,,,,,,,,,,,,,,,,,,,,,,,,,,,,,,,,,,,,,,,,,,,,,,,,,,,,,,,,,,,,,,,
,,?,0.00092,0,,,,,,stimuli/images/PICTURE_403.png,FAMILY,5ea047d315537303f1e60ef9,29/09/1953,2020-09-10_14h38.41.341,proactive3.1,2020.1.2,Win32,60,5f599a131af4471f3d752b7b,5f5a24668ddeed0729625102,3,,,,,,cathedral,,,,,,,,,,,1,2,0,25,25,9,1,,,,,,,,,,,,,,,,,,,,,,,,,,,,,,,,,,,,,,,,,,,,,,,,,,,,,,,,,,,,,,,,,,,,,,,,,,,,,,,,,,,,,,,,,,,,,,,,,,,,,,,,
,,BOYS,3.307595,1,,,,,,stimuli/images/PICTURE_215.png,BOYS,5ea047d315537303f1e60ef9,29/09/1953,2020-09-10_14h38.41.341,proactive3.1,2020.1.2,Win32,60,5f599a131af4471f3d752b7b,5f5a24668ddeed0729625102,3,,,,,,boot,,,,,,,,,,,3,2,0,26,26,24,1,,,,,,,,,,,,,,,,,,,,,,,,,,,,,,,,,,,,,,,,,,,,,,,,,,,,,,,,,,,,,,,,,,,,,,,,,,,,,,,,,,,,,,,,,,,,,,,,,,,,,,,,
,,?,0.002535,0,,,,,,stimuli/images/PICTURE_160.png,HOTEL,5ea047d315537303f1e60ef9,29/09/1953,2020-09-10_14h38.41.341,proactive3.1,2020.1.2,Win32,60,5f599a131af4471f3d752b7b,5f5a24668ddeed0729625102,3,,,,,,wheelbarrow,,,,,,,,,,,2,2,0,27,27,16,1,,,,,,,,,,,,,,,,,,,,,,,,,,,,,,,,,,,,,,,,,,,,,,,,,,,,,,,,,,,,,,,,,,,,,,,,,,,,,,,,,,,,,,,,,,,,,,,,,,,,,,,,
,,?,0.001795,0,,,,,,stimuli/images/PICTURE_405.png,HOUSE,5ea047d315537303f1e60ef9,29/09/1953,2020-09-10_14h38.41.341,proactive3.1,2020.1.2,Win32,60,5f599a131af4471f3d752b7b,5f5a24668ddeed0729625102,3,,,,,,anchor,,,,,,,,,,,1,2,0,28,28,2,1,,,,,,,,,,,,,,,,,,,,,,,,,,,,,,,,,,,,,,,,,,,,,,,,,,,,,,,,,,,,,,,,,,,,,,,,,,,,,,,,,,,,,,,,,,,,,,,,,,,,,,,,
,,?,0.00087,0,,,,,,stimuli/images/PICTURE_677.png,FAMILY,5ea047d315537303f1e60ef9,29/09/1953,2020-09-10_14h38.41.341,proactive3.1,2020.1.2,Win32,60,5f599a131af4471f3d752b7b,5f5a24668ddeed0729625102,3,,,,,,map,,,,,,,,,,,6,2,0,29,29,53,1,,,,,,,,,,,,,,,,,,,,,,,,,,,,,,,,,,,,,,,,,,,,,,,,,,,,,,,,,,,,,,,,,,,,,,,,,,,,,,,,,,,,,,,,,,,,,,,,,,,,,,,,
,,?,0.000615,0,,,,,,stimuli/images/PICTURE_215.png,FOOD,5ea047d315537303f1e60ef9,29/09/1953,2020-09-10_14h38.41.341,proactive3.1,2020.1.2,Win32,60,5f599a131af4471f3d752b7b,5f5a24668ddeed0729625102,3,,,,,,boot,,,,,,,,,,,1,2,0,30,30,5,1,,,,,,,,,,,,,,,,,,,,,,,,,,,,,,,,,,,,,,,,,,,,,,,,,,,,,,,,,,,,,,,,,,,,,,,,,,,,,,,,,,,,,,,,,,,,,,,,,,,,,,,,
,,?,0.0007,0,,,,,,stimuli/images/PICTURE_677.png,PHOTO,5ea047d315537303f1e60ef9,29/09/1953,2020-09-10_14h38.41.341,proactive3.1,2020.1.2,Win32,60,5f599a131af4471f3d752b7b,5f5a24668ddeed0729625102,3,,,,,,map,,,,,,,,,,,2,2,0,31,31,14,1,,,,,,,,,,,,,,,,,,,,,,,,,,,,,,,,,,,,,,,,,,,,,,,,,,,,,,,,,,,,,,,,,,,,,,,,,,,,,,,,,,,,,,,,,,,,,,,,,,,,,,,,
,,?,0.00085,0,,,,,,stimuli/images/PICTURE_405.png,JUNGLE,5ea047d315537303f1e60ef9,29/09/1953,2020-09-10_14h38.41.341,proactive3.1,2020.1.2,Win32,60,5f599a131af4471f3d752b7b,5f5a24668ddeed0729625102,3,,,,,,anchor,,,,,,,,,,,6,2,0,32,32,58,1,,,,,,,,,,,,,,,,,,,,,,,,,,,,,,,,,,,,,,,,,,,,,,,,,,,,,,,,,,,,,,,,,,,,,,,,,,,,,,,,,,,,,,,,,,,,,,,,,,,,,,,,
,,?,0.001865,0,,,,,,stimuli/images/PICTURE_405.png,JUNGLE,5ea047d315537303f1e60ef9,29/09/1953,2020-09-10_14h38.41.341,proactive3.1,2020.1.2,Win32,60,5f599a131af4471f3d752b7b,5f5a24668ddeed0729625102,3,,,,,,anchor,,,,,,,,,,,2,2,0,33,33,13,1,,,,,,,,,,,,,,,,,,,,,,,,,,,,,,,,,,,,,,,,,,,,,,,,,,,,,,,,,,,,,,,,,,,,,,,,,,,,,,,,,,,,,,,,,,,,,,,,,,,,,,,,
,,?,0.001665,0,,,,,,stimuli/images/PICTURE_215.png,LEADER,5ea047d315537303f1e60ef9,29/09/1953,2020-09-10_14h38.41.341,proactive3.1,2020.1.2,Win32,60,5f599a131af4471f3d752b7b,5f5a24668ddeed0729625102,3,,,,,,boot,,,,,,,,,,,5,2,0,34,34,43,1,,,,,,,,,,,,,,,,,,,,,,,,,,,,,,,,,,,,,,,,,,,,,,,,,,,,,,,,,,,,,,,,,,,,,,,,,,,,,,,,,,,,,,,,,,,,,,,,,,,,,,,,
,,BEAUTY,4.22589,0,,,,,,stimuli/images/PICTURE_68.png,KIND,5ea047d315537303f1e60ef9,29/09/1953,2020-09-10_14h38.41.341,proactive3.1,2020.1.2,Win32,60,5f599a131af4471f3d752b7b,5f5a24668ddeed0729625102,3,,,,,,candle,,,,,,,,,,,3,2,0,35,35,23,1,,,,,,,,,,,,,,,,,,,,,,,,,,,,,,,,,,,,,,,,,,,,,,,,,,,,,,,,,,,,,,,,,,,,,,,,,,,,,,,,,,,,,,,,,,,,,,,,,,,,,,,,
,,?,0.003095,0,,,,,,stimuli/images/PICTURE_688.png,CLOCK,5ea047d315537303f1e60ef9,29/09/1953,2020-09-10_14h38.41.341,proactive3.1,2020.1.2,Win32,60,5f599a131af4471f3d752b7b,5f5a24668ddeed0729625102,3,,,,,,runner,,,,,,,,,,,5,2,0,36,36,42,1,,,,,,,,,,,,,,,,,,,,,,,,,,,,,,,,,,,,,,,,,,,,,,,,,,,,,,,,,,,,,,,,,,,,,,,,,,,,,,,,,,,,,,,,,,,,,,,,,,,,,,,,
,,?,0.001055,0,,,,,,stimuli/images/PICTURE_509.png,MILLER,5ea047d315537303f1e60ef9,29/09/1953,2020-09-10_14h38.41.341,proactive3.1,2020.1.2,Win32,60,5f599a131af4471f3d752b7b,5f5a24668ddeed0729625102,3,,,,,,telephone,,,,,,,,,,,5,2,0,37,37,49,1,,,,,,,,,,,,,,,,,,,,,,,,,,,,,,,,,,,,,,,,,,,,,,,,,,,,,,,,,,,,,,,,,,,,,,,,,,,,,,,,,,,,,,,,,,,,,,,,,,,,,,,,
,,BEAUTY,2.86371,1,,,,,,stimuli/images/PICTURE_470.png,BEAUTY,5ea047d315537303f1e60ef9,29/09/1953,2020-09-10_14h38.41.341,proactive3.1,2020.1.2,Win32,60,5f599a131af4471f3d752b7b,5f5a24668ddeed0729625102,3,,,,,,motorbike,,,,,,,,,,,3,2,0,38,38,26,1,,,,,,,,,,,,,,,,,,,,,,,,,,,,,,,,,,,,,,,,,,,,,,,,,,,,,,,,,,,,,,,,,,,,,,,,,,,,,,,,,,,,,,,,,,,,,,,,,,,,,,,,
,,?,0.002945,0,,,,,,stimuli/images/PICTURE_32.png,LETTER,5ea047d315537303f1e60ef9,29/09/1953,2020-09-10_14h38.41.341,proactive3.1,2020.1.2,Win32,60,5f599a131af4471f3d752b7b,5f5a24668ddeed0729625102,3,,,,,,crown,,,,,,,,,,,6,2,0,39,39,56,1,,,,,,,,,,,,,,,,,,,,,,,,,,,,,,,,,,,,,,,,,,,,,,,,,,,,,,,,,,,,,,,,,,,,,,,,,,,,,,,,,,,,,,,,,,,,,,,,,,,,,,,,
,,?,0.00105,0,,,,,,stimuli/images/PICTURE_654.png,COPS,5ea047d315537303f1e60ef9,29/09/1953,2020-09-10_14h38.41.341,proactive3.1,2020.1.2,Win32,60,5f599a131af4471f3d752b7b,5f5a24668ddeed0729625102,3,,,,,,pencil,,,,,,,,,,,2,2,0,40,40,10,1,,,,,,,,,,,,,,,,,,,,,,,,,,,,,,,,,,,,,,,,,,,,,,,,,,,,,,,,,,,,,,,,,,,,,,,,,,,,,,,,,,,,,,,,,,,,,,,,,,,,,,,,
,,?,0.00079,0,,,,,,stimuli/images/PICTURE_2.png,YARD,5ea047d315537303f1e60ef9,29/09/1953,2020-09-10_14h38.41.341,proactive3.1,2020.1.2,Win32,60,5f599a131af4471f3d752b7b,5f5a24668ddeed0729625102,3,,,,,,tyre,,,,,,,,,,,6,2,0,41,41,55,1,,,,,,,,,,,,,,,,,,,,,,,,,,,,,,,,,,,,,,,,,,,,,,,,,,,,,,,,,,,,,,,,,,,,,,,,,,,,,,,,,,,,,,,,,,,,,,,,,,,,,,,,
,,?,0.000745,0,,,,,,stimuli/images/PICTURE_356.png,CANDY,5ea047d315537303f1e60ef9,29/09/1953,2020-09-10_14h38.41.341,proactive3.1,2020.1.2,Win32,60,5f599a131af4471f3d752b7b,5f5a24668ddeed0729625102,3,,,,,,pawn,,,,,,,,,,,5,2,0,42,42,46,1,,,,,,,,,,,,,,,,,,,,,,,,,,,,,,,,,,,,,,,,,,,,,,,,,,,,,,,,,,,,,,,,,,,,,,,,,,,,,,,,,,,,,,,,,,,,,,,,,,,,,,,,
,,?,0.000685,0,,,,,,stimuli/images/PICTURE_504.png,HOUSE,5ea047d315537303f1e60ef9,29/09/1953,2020-09-10_14h38.41.341,proactive3.1,2020.1.2,Win32,60,5f599a131af4471f3d752b7b,5f5a24668ddeed0729625102,3,,,,,,wheel,,,,,,,,,,,4,2,0,43,43,36,1,,,,,,,,,,,,,,,,,,,,,,,,,,,,,,,,,,,,,,,,,,,,,,,,,,,,,,,,,,,,,,,,,,,,,,,,,,,,,,,,,,,,,,,,,,,,,,,,,,,,,,,,
,,SPIRIT,5.792785,1,,,,,,stimuli/images/PICTURE_208.png,SPIRIT,5ea047d315537303f1e60ef9,29/09/1953,2020-09-10_14h38.41.341,proactive3.1,2020.1.2,Win32,60,5f599a131af4471f3d752b7b,5f5a24668ddeed0729625102,3,,,,,,microphone,,,,,,,,,,,3,2,0,44,44,28,1,,,,,,,,,,,,,,,,,,,,,,,,,,,,,,,,,,,,,,,,,,,,,,,,,,,,,,,,,,,,,,,,,,,,,,,,,,,,,,,,,,,,,,,,,,,,,,,,,,,,,,,,
,,?,0.00072,0,,,,,,stimuli/images/PICTURE_509.png,APPLE,5ea047d315537303f1e60ef9,29/09/1953,2020-09-10_14h38.41.341,proactive3.1,2020.1.2,Win32,60,5f599a131af4471f3d752b7b,5f5a24668ddeed0729625102,3,,,,,,telephone,,,,,,,,,,,4,2,0,45,45,38,1,,,,,,,,,,,,,,,,,,,,,,,,,,,,,,,,,,,,,,,,,,,,,,,,,,,,,,,,,,,,,,,,,,,,,,,,,,,,,,,,,,,,,,,,,,,,,,,,,,,,,,,,
,,?,0.000485,0,,,,,,stimuli/images/PICTURE_57.png,CASINO,5ea047d315537303f1e60ef9,29/09/1953,2020-09-10_14h38.41.341,proactive3.1,2020.1.2,Win32,60,5f599a131af4471f3d752b7b,5f5a24668ddeed0729625102,3,,,,,,stamp,,,,,,,,,,,2,2,0,46,46,12,1,,,,,,,,,,,,,,,,,,,,,,,,,,,,,,,,,,,,,,,,,,,,,,,,,,,,,,,,,,,,,,,,,,,,,,,,,,,,,,,,,,,,,,,,,,,,,,,,,,,,,,,,
,,?,0.00047,0,,,,,,stimuli/images/PICTURE_348.png,DUDE,5ea047d315537303f1e60ef9,29/09/1953,2020-09-10_14h38.41.341,proactive3.1,2020.1.2,Win32,60,5f599a131af4471f3d752b7b,5f5a24668ddeed0729625102,3,,,,,,pepper,,,,,,,,,,,6,2,0,47,47,59,1,,,,,,,,,,,,,,,,,,,,,,,,,,,,,,,,,,,,,,,,,,,,,,,,,,,,,,,,,,,,,,,,,,,,,,,,,,,,,,,,,,,,,,,,,,,,,,,,,,,,,,,,
,,?,0.00059,0,,,,,,stimuli/images/PICTURE_93.png,GIRL,5ea047d315537303f1e60ef9,29/09/1953,2020-09-10_14h38.41.341,proactive3.1,2020.1.2,Win32,60,5f599a131af4471f3d752b7b,5f5a24668ddeed0729625102,3,,,,,,skateboard,,,,,,,,,,,4,2,0,48,48,31,1,,,,,,,,,,,,,,,,,,,,,,,,,,,,,,,,,,,,,,,,,,,,,,,,,,,,,,,,,,,,,,,,,,,,,,,,,,,,,,,,,,,,,,,,,,,,,,,,,,,,,,,,
,,?,0.000705,0,,,,,,stimuli/images/PICTURE_509.png,SHOTS,5ea047d315537303f1e60ef9,29/09/1953,2020-09-10_14h38.41.341,proactive3.1,2020.1.2,Win32,60,5f599a131af4471f3d752b7b,5f5a24668ddeed0729625102,3,,,,,,telephone,,,,,,,,,,,1,2,0,49,49,7,1,,,,,,,,,,,,,,,,,,,,,,,,,,,,,,,,,,,,,,,,,,,,,,,,,,,,,,,,,,,,,,,,,,,,,,,,,,,,,,,,,,,,,,,,,,,,,,,,,,,,,,,,
,,?,0.001535,0,,,,,,stimuli/images/PICTURE_750.png,POLICY,5ea047d315537303f1e60ef9,29/09/1953,2020-09-10_14h38.41.341,proactive3.1,2020.1.2,Win32,60,5f599a131af4471f3d752b7b,5f5a24668ddeed0729625102,3,,,,,,kettle,,,,,,,,,,,5,2,0,50,50,44,1,,,,,,,,,,,,,,,,,,,,,,,,,,,,,,,,,,,,,,,,,,,,,,,,,,,,,,,,,,,,,,,,,,,,,,,,,,,,,,,,,,,,,,,,,,,,,,,,,,,,,,,,
,,?,0.000925,0,,,,,,stimuli/images/PICTURE_692.png,DUDE,5ea047d315537303f1e60ef9,29/09/1953,2020-09-10_14h38.41.341,proactive3.1,2020.1.2,Win32,60,5f599a131af4471f3d752b7b,5f5a24668ddeed0729625102,3,,,,,,cherry,,,,,,,,,,,5,2,0,51,51,47,1,,,,,,,,,,,,,,,,,,,,,,,,,,,,,,,,,,,,,,,,,,,,,,,,,,,,,,,,,,,,,,,,,,,,,,,,,,,,,,,,,,,,,,,,,,,,,,,,,,,,,,,,
,,?,0.000535,0,,,,,,stimuli/images/PICTURE_487.png,ROOF,5ea047d315537303f1e60ef9,29/09/1953,2020-09-10_14h38.41.341,proactive3.1,2020.1.2,Win32,60,5f599a131af4471f3d752b7b,5f5a24668ddeed0729625102,3,,,,,,basket,,,,,,,,,,,6,2,0,52,52,50,1,,,,,,,,,,,,,,,,,,,,,,,,,,,,,,,,,,,,,,,,,,,,,,,,,,,,,,,,,,,,,,,,,,,,,,,,,,,,,,,,,,,,,,,,,,,,,,,,,,,,,,,,
,,?,0.00047,0,,,,,,stimuli/images/PICTURE_509.png,BATH,5ea047d315537303f1e60ef9,29/09/1953,2020-09-10_14h38.41.341,proactive3.1,2020.1.2,Win32,60,5f599a131af4471f3d752b7b,5f5a24668ddeed0729625102,3,,,,,,telephone,,,,,,,,,,,2,2,0,53,53,15,1,,,,,,,,,,,,,,,,,,,,,,,,,,,,,,,,,,,,,,,,,,,,,,,,,,,,,,,,,,,,,,,,,,,,,,,,,,,,,,,,,,,,,,,,,,,,,,,,,,,,,,,,
,,?,0.0007,0,,,,,,stimuli/images/PICTURE_285.png,WRITER,5ea047d315537303f1e60ef9,29/09/1953,2020-09-10_14h38.41.341,proactive3.1,2020.1.2,Win32,60,5f599a131af4471f3d752b7b,5f5a24668ddeed0729625102,3,,,,,,carrot,,,,,,,,,,,1,2,0,54,54,6,1,,,,,,,,,,,,,,,,,,,,,,,,,,,,,,,,,,,,,,,,,,,,,,,,,,,,,,,,,,,,,,,,,,,,,,,,,,,,,,,,,,,,,,,,,,,,,,,,,,,,,,,,
,,NATION,3.604785,1,,,,,,stimuli/images/PICTURE_57.png,NATION,5ea047d315537303f1e60ef9,29/09/1953,2020-09-10_14h38.41.341,proactive3.1,2020.1.2,Win32,60,5f599a131af4471f3d752b7b,5f5a24668ddeed0729625102,3,,,,,,stamp,,,,,,,,,,,3,2,0,55,55,21,1,,,,,,,,,,,,,,,,,,,,,,,,,,,,,,,,,,,,,,,,,,,,,,,,,,,,,,,,,,,,,,,,,,,,,,,,,,,,,,,,,,,,,,,,,,,,,,,,,,,,,,,,
,,?,0.002005,0,,,,,,stimuli/images/PICTURE_141.png,CLIENT,5ea047d315537303f1e60ef9,29/09/1953,2020-09-10_14h38.41.341,proactive3.1,2020.1.2,Win32,60,5f599a131af4471f3d752b7b,5f5a24668ddeed0729625102,3,,,,,,sunflower,,,,,,,,,,,4,2,0,56,56,30,1,,,,,,,,,,,,,,,,,,,,,,,,,,,,,,,,,,,,,,,,,,,,,,,,,,,,,,,,,,,,,,,,,,,,,,,,,,,,,,,,,,,,,,,,,,,,,,,,,,,,,,,,
,,RIVER,3.55108,1,,,,,,stimuli/images/PICTURE_18.png,RIVER,5ea047d315537303f1e60ef9,29/09/1953,2020-09-10_14h38.41.341,proactive3.1,2020.1.2,Win32,60,5f599a131af4471f3d752b7b,5f5a24668ddeed0729625102,3,,,,,,planet,,,,,,,,,,,3,2,0,57,57,22,1,,,,,,,,,,,,,,,,,,,,,,,,,,,,,,,,,,,,,,,,,,,,,,,,,,,,,,,,,,,,,,,,,,,,,,,,,,,,,,,,,,,,,,,,,,,,,,,,,,,,,,,,
,,?,0.003085,0,,,,,,stimuli/images/PICTURE_655.png,SALE,5ea047d315537303f1e60ef9,29/09/1953,2020-09-10_14h38.41.341,proactive3.1,2020.1.2,Win32,60,5f599a131af4471f3d752b7b,5f5a24668ddeed0729625102,3,,,,,,megaphone,,,,,,,,,,,6,2,0,58,58,57,1,,,,,,,,,,,,,,,,,,,,,,,,,,,,,,,,,,,,,,,,,,,,,,,,,,,,,,,,,,,,,,,,,,,,,,,,,,,,,,,,,,,,,,,,,,,,,,,,,,,,,,,,
,,?,0.0006,0,,,,,,stimuli/images/PICTURE_708.png,VALLEY,5ea047d315537303f1e60ef9,29/09/1953,2020-09-10_14h38.41.341,proactive3.1,2020.1.2,Win32,60,5f599a131af4471f3d752b7b,5f5a24668ddeed0729625102,3,,,,,,monkey,,,,,,,,,,,5,2,0,59,59,45,1,,,,,,,,,,,,,,,,,,,,,,,,,,,,,,,,,,,,,,,,,,,,,,,,,,,,,,,,,,,,,,,,,,,,,,,,,,,,,,,,,,,,,,,,,,,,,,,,,,,,,,,,
,,,,,,,,,,,,5ea047d315537303f1e60ef9,29/09/1953,2020-09-10_14h38.41.341,proactive3.1,2020.1.2,Win32,60,5f599a131af4471f3d752b7b,5f5a24668ddeed0729625102,3,,,,,,,,,,,,,,,,,,,,,,,,0,1,1,2,1,stimuli/learn-block3.csv,,,,,,,,,,,,,,,,,,,,,,,,,,,,,,,,,,,,,,,,,,,,,,,,,,,,,,,,,,,,,,,,,,,,,,,,,,,,,,,,,,,,,,,,,,,,,,,,,,
,,,,,,,,,,stimuli/images/PICTURE_327.png,CASINO,5ea047d315537303f1e60ef9,29/09/1953,2020-09-10_14h38.41.341,proactive3.1,2020.1.2,Win32,60,5f599a131af4471f3d752b7b,5f5a24668ddeed0729625102,3,,,,,,helmet,,,,,,0,0,0,20,1,3,1,,,,,,,,,,,,,,,,,,,,,,,,,,,,,,,,,,,,,,,,,,,,,,,,,,,,,,,,,,,,,,,,,,,,,,,,,,,,,,,,,,,,,,,,,,,,,,,,,,,,,,,,,,,,,
,,,,,,,,,,stimuli/images/PICTURE_675.png,SALE,5ea047d315537303f1e60ef9,29/09/1953,2020-09-10_14h38.41.341,proactive3.1,2020.1.2,Win32,60,5f599a131af4471f3d752b7b,5f5a24668ddeed0729625102,3,,,,,,windmill,,,,,,0,1,1,47,1,5,1,,,,,,,,,,,,,,,,,,,,,,,,,,,,,,,,,,,,,,,,,,,,,,,,,,,,,,,,,,,,,,,,,,,,,,,,,,,,,,,,,,,,,,,,,,,,,,,,,,,,,,,,,,,,,
,,,,,,,,,,stimuli/images/PICTURE_68.png,MILE,5ea047d315537303f1e60ef9,29/09/1953,2020-09-10_14h38.41.341,proactive3.1,2020.1.2,Win32,60,5f599a131af4471f3d752b7b,5f5a24668ddeed0729625102,3,,,,,,candle,,,,,,0,2,2,51,1,6,1,,,,,,,,,,,,,,,,,,,,,,,,,,,,,,,,,,,,,,,,,,,,,,,,,,,,,,,,,,,,,,,,,,,,,,,,,,,,,,,,,,,,,,,,,,,,,,,,,,,,,,,,,,,,,
,,,,,,,,,,stimuli/images/PICTURE_504.png,ARTIST,5ea047d315537303f1e60ef9,29/09/1953,2020-09-10_14h38.41.341,proactive3.1,2020.1.2,Win32,60,5f599a131af4471f3d752b7b,5f5a24668ddeed0729625102,3,,,,,,wheel,,,,,,0,3,3,49,1,5,1,,,,,,,,,,,,,,,,,,,,,,,,,,,,,,,,,,,,,,,,,,,,,,,,,,,,,,,,,,,,,,,,,,,,,,,,,,,,,,,,,,,,,,,,,,,,,,,,,,,,,,,,,,,,,
,,,,,,,,,,stimuli/images/PICTURE_405.png,PLENTY,5ea047d315537303f1e60ef9,29/09/1953,2020-09-10_14h38.41.341,proactive3.1,2020.1.2,Win32,60,5f599a131af4471f3d752b7b,5f5a24668ddeed0729625102,3,,,,,,anchor,,,,,,0,4,4,23,1,3,1,,,,,,,,,,,,,,,,,,,,,,,,,,,,,,,,,,,,,,,,,,,,,,,,,,,,,,,,,,,,,,,,,,,,,,,,,,,,,,,,,,,,,,,,,,,,,,,,,,,,,,,,,,,,,
,,,,,,,,,,stimuli/images/PICTURE_85.png,TOILET,5ea047d315537303f1e60ef9,29/09/1953,2020-09-10_14h38.41.341,proactive3.1,2020.1.2,Win32,60,5f599a131af4471f3d752b7b,5f5a24668ddeed0729625102,3,,,,,,diamond,,,,,,0,5,5,48,1,5,1,,,,,,,,,,,,,,,,,,,,,,,,,,,,,,,,,,,,,,,,,,,,,,,,,,,,,,,,,,,,,,,,,,,,,,,,,,,,,,,,,,,,,,,,,,,,,,,,,,,,,,,,,,,,,
,,,,,,,,,,stimuli/images/PICTURE_469.png,AGENT,5ea047d315537303f1e60ef9,29/09/1953,2020-09-10_14h38.41.341,proactive3.1,2020.1.2,Win32,60,5f599a131af4471f3d752b7b,5f5a24668ddeed0729625102,3,,,,,,stool,,,,,,0,6,6,16,1,2,1,,,,,,,,,,,,,,,,,,,,,,,,,,,,,,,,,,,,,,,,,,,,,,,,,,,,,,,,,,,,,,,,,,,,,,,,,,,,,,,,,,,,,,,,,,,,,,,,,,,,,,,,,,,,,
,,,,,,,,,,stimuli/images/PICTURE_285.png,LIFE,5ea047d315537303f1e60ef9,29/09/1953,2020-09-10_14h38.41.341,proactive3.1,2020.1.2,Win32,60,5f599a131af4471f3d752b7b,5f5a24668ddeed0729625102,3,,,,,,carrot,,,,,,0,7,7,33,1,4,1,,,,,,,,,,,,,,,,,,,,,,,,,,,,,,,,,,,,,,,,,,,,,,,,,,,,,,,,,,,,,,,,,,,,,,,,,,,,,,,,,,,,,,,,,,,,,,,,,,,,,,,,,,,,,
,,,,,,,,,,stimuli/images/PICTURE_147.png,WOMEN,5ea047d315537303f1e60ef9,29/09/1953,2020-09-10_14h38.41.341,proactive3.1,2020.1.2,Win32,60,5f599a131af4471f3d752b7b,5f5a24668ddeed0729625102,3,,,,,,hanger,,,,,,0,8,8,7,1,1,1,,,,,,,,,,,,,,,,,,,,,,,,,,,,,,,,,,,,,,,,,,,,,,,,,,,,,,,,,,,,,,,,,,,,,,,,,,,,,,,,,,,,,,,,,,,,,,,,,,,,,,,,,,,,,
,,,,,,,,,,stimuli/images/PICTURE_32.png,KIND,5ea047d315537303f1e60ef9,29/09/1953,2020-09-10_14h38.41.341,proactive3.1,2020.1.2,Win32,60,5f599a131af4471f3d752b7b,5f5a24668ddeed0729625102,3,,,,,,crown,,,,,,0,9,9,35,1,4,1,,,,,,,,,,,,,,,,,,,,,,,,,,,,,,,,,,,,,,,,,,,,,,,,,,,,,,,,,,,,,,,,,,,,,,,,,,,,,,,,,,,,,,,,,,,,,,,,,,,,,,,,,,,,,
,,,,,,,,,,stimuli/images/PICTURE_177.png,WRITER,5ea047d315537303f1e60ef9,29/09/1953,2020-09-10_14h38.41.341,proactive3.1,2020.1.2,Win32,60,5f599a131af4471f3d752b7b,5f5a24668ddeed0729625102,3,,,,,,mushroom,,,,,,0,10,10,41,1,5,1,,,,,,,,,,,,,,,,,,,,,,,,,,,,,,,,,,,,,,,,,,,,,,,,,,,,,,,,,,,,,,,,,,,,,,,,,,,,,,,,,,,,,,,,,,,,,,,,,,,,,,,,,,,,,
,,,,,,,,,,stimuli/images/PICTURE_504.png,COPS,5ea047d315537303f1e60ef9,29/09/1953,2020-09-10_14h38.41.341,proactive3.1,2020.1.2,Win32,60,5f599a131af4471f3d752b7b,5f5a24668ddeed0729625102,3,,,,,,wheel,,,,,,0,11,11,52,1,6,1,,,,,,,,,,,,,,,,,,,,,,,,,,,,,,,,,,,,,,,,,,,,,,,,,,,,,,,,,,,,,,,,,,,,,,,,,,,,,,,,,,,,,,,,,,,,,,,,,,,,,,,,,,,,,
,,,,,,,,,,stimuli/images/PICTURE_33.png,FRIEND,5ea047d315537303f1e60ef9,29/09/1953,2020-09-10_14h38.41.341,proactive3.1,2020.1.2,Win32,60,5f599a131af4471f3d752b7b,5f5a24668ddeed0729625102,3,,,,,,frame,,,,,,0,12,12,8,1,1,1,,,,,,,,,,,,,,,,,,,,,,,,,,,,,,,,,,,,,,,,,,,,,,,,,,,,,,,,,,,,,,,,,,,,,,,,,,,,,,,,,,,,,,,,,,,,,,,,,,,,,,,,,,,,,
,,,,,,,,,,stimuli/images/PICTURE_85.png,NATION,5ea047d315537303f1e60ef9,29/09/1953,2020-09-10_14h38.41.341,proactive3.1,2020.1.2,Win32,60,5f599a131af4471f3d752b7b,5f5a24668ddeed0729625102,3,,,,,,diamond,,,,,,0,13,13,5,1,1,1,,,,,,,,,,,,,,,,,,,,,,,,,,,,,,,,,,,,,,,,,,,,,,,,,,,,,,,,,,,,,,,,,,,,,,,,,,,,,,,,,,,,,,,,,,,,,,,,,,,,,,,,,,,,,
,,,,,,,,,,stimuli/images/PICTURE_564.png,BATH,5ea047d315537303f1e60ef9,29/09/1953,2020-09-10_14h38.41.341,proactive3.1,2020.1.2,Win32,60,5f599a131af4471f3d752b7b,5f5a24668ddeed0729625102,3,,,,,,spoon,,,,,,0,14,14,26,1,3,1,,,,,,,,,,,,,,,,,,,,,,,,,,,,,,,,,,,,,,,,,,,,,,,,,,,,,,,,,,,,,,,,,,,,,,,,,,,,,,,,,,,,,,,,,,,,,,,,,,,,,,,,,,,,,
,,,,,,,,,,stimuli/images/PICTURE_32.png,PILLS,5ea047d315537303f1e60ef9,29/09/1953,2020-09-10_14h38.41.341,proactive3.1,2020.1.2,Win32,60,5f599a131af4471f3d752b7b,5f5a24668ddeed0729625102,3,,,,,,crown,,,,,,0,15,15,18,1,2,1,,,,,,,,,,,,,,,,,,,,,,,,,,,,,,,,,,,,,,,,,,,,,,,,,,,,,,,,,,,,,,,,,,,,,,,,,,,,,,,,,,,,,,,,,,,,,,,,,,,,,,,,,,,,,
,,,,,,,,,,stimuli/images/PICTURE_383.png,SERIES,5ea047d315537303f1e60ef9,29/09/1953,2020-09-10_14h38.41.341,proactive3.1,2020.1.2,Win32,60,5f599a131af4471f3d752b7b,5f5a24668ddeed0729625102,3,,,,,,coin,,,,,,0,16,16,46,1,5,1,,,,,,,,,,,,,,,,,,,,,,,,,,,,,,,,,,,,,,,,,,,,,,,,,,,,,,,,,,,,,,,,,,,,,,,,,,,,,,,,,,,,,,,,,,,,,,,,,,,,,,,,,,,,,
,,,,,,,,,,stimuli/images/PICTURE_208.png,SYSTEM,5ea047d315537303f1e60ef9,29/09/1953,2020-09-10_14h38.41.341,proactive3.1,2020.1.2,Win32,60,5f599a131af4471f3d752b7b,5f5a24668ddeed0729625102,3,,,,,,microphone,,,,,,0,17,17,32,1,4,1,,,,,,,,,,,,,,,,,,,,,,,,,,,,,,,,,,,,,,,,,,,,,,,,,,,,,,,,,,,,,,,,,,,,,,,,,,,,,,,,,,,,,,,,,,,,,,,,,,,,,,,,,,,,,
,,,,,,,,,,stimuli/images/PICTURE_491.png,RIVER,5ea047d315537303f1e60ef9,29/09/1953,2020-09-10_14h38.41.341,proactive3.1,2020.1.2,Win32,60,5f599a131af4471f3d752b7b,5f5a24668ddeed0729625102,3,,,,,,rug,,,,,,0,18,18,6,1,1,1,,,,,,,,,,,,,,,,,,,,,,,,,,,,,,,,,,,,,,,,,,,,,,,,,,,,,,,,,,,,,,,,,,,,,,,,,,,,,,,,,,,,,,,,,,,,,,,,,,,,,,,,,,,,,
,,,,,,,,,,stimuli/images/PICTURE_403.png,RIVER,5ea047d315537303f1e60ef9,29/09/1953,2020-09-10_14h38.41.341,proactive3.1,2020.1.2,Win32,60,5f599a131af4471f3d752b7b,5f5a24668ddeed0729625102,3,,,,,,cathedral,,,,,,0,19,19,40,1,5,1,,,,,,,,,,,,,,,,,,,,,,,,,,,,,,,,,,,,,,,,,,,,,,,,,,,,,,,,,,,,,,,,,,,,,,,,,,,,,,,,,,,,,,,,,,,,,,,,,,,,,,,,,,,,,
,,,,,,,,,,stimuli/images/PICTURE_57.png,MOMENT,5ea047d315537303f1e60ef9,29/09/1953,2020-09-10_14h38.41.341,proactive3.1,2020.1.2,Win32,60,5f599a131af4471f3d752b7b,5f5a24668ddeed0729625102,3,,,,,,stamp,,,,,,0,20,20,37,1,4,1,,,,,,,,,,,,,,,,,,,,,,,,,,,,,,,,,,,,,,,,,,,,,,,,,,,,,,,,,,,,,,,,,,,,,,,,,,,,,,,,,,,,,,,,,,,,,,,,,,,,,,,,,,,,,
,,,,,,,,,,stimuli/images/PICTURE_380.png,CANDY,5ea047d315537303f1e60ef9,29/09/1953,2020-09-10_14h38.41.341,proactive3.1,2020.1.2,Win32,60,5f599a131af4471f3d752b7b,5f5a24668ddeed0729625102,3,,,,,,gorilla,,,,,,0,21,21,0,1,1,1,,,,,,,,,,,,,,,,,,,,,,,,,,,,,,,,,,,,,,,,,,,,,,,,,,,,,,,,,,,,,,,,,,,,,,,,,,,,,,,,,,,,,,,,,,,,,,,,,,,,,,,,,,,,,
,,,,,,,,,,stimuli/images/PICTURE_744.png,WEAPON,5ea047d315537303f1e60ef9,29/09/1953,2020-09-10_14h38.41.341,proactive3.1,2020.1.2,Win32,60,5f599a131af4471f3d752b7b,5f5a24668ddeed0729625102,3,,,,,,ring,,,,,,0,22,22,50,1,6,1,,,,,,,,,,,,,,,,,,,,,,,,,,,,,,,,,,,,,,,,,,,,,,,,,,,,,,,,,,,,,,,,,,,,,,,,,,,,,,,,,,,,,,,,,,,,,,,,,,,,,,,,,,,,,
,,,,,,,,,,stimuli/images/PICTURE_203.png,GODS,5ea047d315537303f1e60ef9,29/09/1953,2020-09-10_14h38.41.341,proactive3.1,2020.1.2,Win32,60,5f599a131af4471f3d752b7b,5f5a24668ddeed0729625102,3,,,,,,cap,,,,,,0,23,23,30,1,4,1,,,,,,,,,,,,,,,,,,,,,,,,,,,,,,,,,,,,,,,,,,,,,,,,,,,,,,,,,,,,,,,,,,,,,,,,,,,,,,,,,,,,,,,,,,,,,,,,,,,,,,,,,,,,,
,,,,,,,,,,stimuli/images/PICTURE_95.png,BOYS,5ea047d315537303f1e60ef9,29/09/1953,2020-09-10_14h38.41.341,proactive3.1,2020.1.2,Win32,60,5f599a131af4471f3d752b7b,5f5a24668ddeed0729625102,3,,,,,,suitcase,,,,,,0,24,24,1,1,1,1,,,,,,,,,,,,,,,,,,,,,,,,,,,,,,,,,,,,,,,,,,,,,,,,,,,,,,,,,,,,,,,,,,,,,,,,,,,,,,,,,,,,,,,,,,,,,,,,,,,,,,,,,,,,,
,,,,,,,,,,stimuli/images/PICTURE_339.png,CLIENT,5ea047d315537303f1e60ef9,29/09/1953,2020-09-10_14h38.41.341,proactive3.1,2020.1.2,Win32,60,5f599a131af4471f3d752b7b,5f5a24668ddeed0729625102,3,,,,,,backpack,,,,,,0,25,25,11,1,2,1,,,,,,,,,,,,,,,,,,,,,,,,,,,,,,,,,,,,,,,,,,,,,,,,,,,,,,,,,,,,,,,,,,,,,,,,,,,,,,,,,,,,,,,,,,,,,,,,,,,,,,,,,,,,,
,,,,,,,,,,stimuli/images/PICTURE_233.png,LOTS,5ea047d315537303f1e60ef9,29/09/1953,2020-09-10_14h38.41.341,proactive3.1,2020.1.2,Win32,60,5f599a131af4471f3d752b7b,5f5a24668ddeed0729625102,3,,,,,,salt,,,,,,0,26,26,42,1,5,1,,,,,,,,,,,,,,,,,,,,,,,,,,,,,,,,,,,,,,,,,,,,,,,,,,,,,,,,,,,,,,,,,,,,,,,,,,,,,,,,,,,,,,,,,,,,,,,,,,,,,,,,,,,,,
,,,,,,,,,,stimuli/images/PICTURE_95.png,HONEY,5ea047d315537303f1e60ef9,29/09/1953,2020-09-10_14h38.41.341,proactive3.1,2020.1.2,Win32,60,5f599a131af4471f3d752b7b,5f5a24668ddeed0729625102,3,,,,,,suitcase,,,,,,0,27,27,44,1,5,1,,,,,,,,,,,,,,,,,,,,,,,,,,,,,,,,,,,,,,,,,,,,,,,,,,,,,,,,,,,,,,,,,,,,,,,,,,,,,,,,,,,,,,,,,,,,,,,,,,,,,,,,,,,,,
,,,,,,,,,,stimuli/images/PICTURE_108.png,POLICY,5ea047d315537303f1e60ef9,29/09/1953,2020-09-10_14h38.41.341,proactive3.1,2020.1.2,Win32,60,5f599a131af4471f3d752b7b,5f5a24668ddeed0729625102,3,,,,,,calendar,,,,,,0,28,28,22,1,3,1,,,,,,,,,,,,,,,,,,,,,,,,,,,,,,,,,,,,,,,,,,,,,,,,,,,,,,,,,,,,,,,,,,,,,,,,,,,,,,,,,,,,,,,,,,,,,,,,,,,,,,,,,,,,,
,,,,,,,,,,stimuli/images/PICTURE_327.png,SERIES,5ea047d315537303f1e60ef9,29/09/1953,2020-09-10_14h38.41.341,proactive3.1,2020.1.2,Win32,60,5f599a131af4471f3d752b7b,5f5a24668ddeed0729625102,3,,,,,,helmet,,,,,,0,29,29,3,1,1,1,,,,,,,,,,,,,,,,,,,,,,,,,,,,,,,,,,,,,,,,,,,,,,,,,,,,,,,,,,,,,,,,,,,,,,,,,,,,,,,,,,,,,,,,,,,,,,,,,,,,,,,,,,,,,
,,,,,,,,,,stimuli/images/PICTURE_655.png,TOILET,5ea047d315537303f1e60ef9,29/09/1953,2020-09-10_14h38.41.341,proactive3.1,2020.1.2,Win32,60,5f599a131af4471f3d752b7b,5f5a24668ddeed0729625102,3,,,,,,megaphone,,,,,,0,30,30,12,1,2,1,,,,,,,,,,,,,,,,,,,,,,,,,,,,,,,,,,,,,,,,,,,,,,,,,,,,,,,,,,,,,,,,,,,,,,,,,,,,,,,,,,,,,,,,,,,,,,,,,,,,,,,,,,,,,
,,,,,,,,,,stimuli/images/PICTURE_95.png,MILLER,5ea047d315537303f1e60ef9,29/09/1953,2020-09-10_14h38.41.341,proactive3.1,2020.1.2,Win32,60,5f599a131af4471f3d752b7b,5f5a24668ddeed0729625102,3,,,,,,suitcase,,,,,,0,31,31,56,1,6,1,,,,,,,,,,,,,,,,,,,,,,,,,,,,,,,,,,,,,,,,,,,,,,,,,,,,,,,,,,,,,,,,,,,,,,,,,,,,,,,,,,,,,,,,,,,,,,,,,,,,,,,,,,,,,
,,,,,,,,,,stimuli/images/PICTURE_108.png,FLIGHT,5ea047d315537303f1e60ef9,29/09/1953,2020-09-10_14h38.41.341,proactive3.1,2020.1.2,Win32,60,5f599a131af4471f3d752b7b,5f5a24668ddeed0729625102,3,,,,,,calendar,,,,,,0,32,32,59,1,6,1,,,,,,,,,,,,,,,,,,,,,,,,,,,,,,,,,,,,,,,,,,,,,,,,,,,,,,,,,,,,,,,,,,,,,,,,,,,,,,,,,,,,,,,,,,,,,,,,,,,,,,,,,,,,,
,,,,,,,,,,stimuli/images/PICTURE_340.png,LETTER,5ea047d315537303f1e60ef9,29/09/1953,2020-09-10_14h38.41.341,proactive3.1,2020.1.2,Win32,60,5f599a131af4471f3d752b7b,5f5a24668ddeed0729625102,3,,,,,,mirror,,,,,,0,33,33,24,1,3,1,,,,,,,,,,,,,,,,,,,,,,,,,,,,,,,,,,,,,,,,,,,,,,,,,,,,,,,,,,,,,,,,,,,,,,,,,,,,,,,,,,,,,,,,,,,,,,,,,,,,,,,,,,,,,
,,,,,,,,,,stimuli/images/PICTURE_708.png,RECORD,5ea047d315537303f1e60ef9,29/09/1953,2020-09-10_14h38.41.341,proactive3.1,2020.1.2,Win32,60,5f599a131af4471f3d752b7b,5f5a24668ddeed0729625102,3,,,,,,monkey,,,,,,0,34,34,58,1,6,1,,,,,,,,,,,,,,,,,,,,,,,,,,,,,,,,,,,,,,,,,,,,,,,,,,,,,,,,,,,,,,,,,,,,,,,,,,,,,,,,,,,,,,,,,,,,,,,,,,,,,,,,,,,,,
,,,,,,,,,,stimuli/images/PICTURE_403.png,TOILET,5ea047d315537303f1e60ef9,29/09/1953,2020-09-10_14h38.41.341,proactive3.1,2020.1.2,Win32,60,5f599a131af4471f3d752b7b,5f5a24668ddeed0729625102,3,,,,,,cathedral,,,,,,0,35,35,25,1,3,1,,,,,,,,,,,,,,,,,,,,,,,,,,,,,,,,,,,,,,,,,,,,,,,,,,,,,,,,,,,,,,,,,,,,,,,,,,,,,,,,,,,,,,,,,,,,,,,,,,,,,,,,,,,,,
,,,,,,,,,,stimuli/images/PICTURE_203.png,NIGHT,5ea047d315537303f1e60ef9,29/09/1953,2020-09-10_14h38.41.341,proactive3.1,2020.1.2,Win32,60,5f599a131af4471f3d752b7b,5f5a24668ddeed0729625102,3,,,,,,cap,,,,,,0,36,36,2,1,1,1,,,,,,,,,,,,,,,,,,,,,,,,,,,,,,,,,,,,,,,,,,,,,,,,,,,,,,,,,,,,,,,,,,,,,,,,,,,,,,,,,,,,,,,,,,,,,,,,,,,,,,,,,,,,,
,,,,,,,,,,stimuli/images/PICTURE_340.png,VALLEY,5ea047d315537303f1e60ef9,29/09/1953,2020-09-10_14h38.41.341,proactive3.1,2020.1.2,Win32,60,5f599a131af4471f3d752b7b,5f5a24668ddeed0729625102,3,,,,,,mirror,,,,,,0,37,37,54,1,6,1,,,,,,,,,,,,,,,,,,,,,,,,,,,,,,,,,,,,,,,,,,,,,,,,,,,,,,,,,,,,,,,,,,,,,,,,,,,,,,,,,,,,,,,,,,,,,,,,,,,,,,,,,,,,,
,,,,,,,,,,stimuli/images/PICTURE_147.png,YEAR,5ea047d315537303f1e60ef9,29/09/1953,2020-09-10_14h38.41.341,proactive3.1,2020.1.2,Win32,60,5f599a131af4471f3d752b7b,5f5a24668ddeed0729625102,3,,,,,,hanger,,,,,,0,38,38,21,1,3,1,,,,,,,,,,,,,,,,,,,,,,,,,,,,,,,,,,,,,,,,,,,,,,,,,,,,,,,,,,,,,,,,,,,,,,,,,,,,,,,,,,,,,,,,,,,,,,,,,,,,,,,,,,,,,
