consent_key.keys,consent_key.rt,recalled,recalled_rt,recall_acc,example_recall.thisRepN,example_recall.thisTrialN,example_recall.thisN,example_recall.thisIndex,example_recall.ran,file,word,participant,please enter your date of birth (dd/mm/yyyy),date,expName,psychopyVersion,OS,frameRate,STUDY_ID,SESSION_ID,list,prac_learn_study_loop.thisRepN,prac_learn_study_loop.thisTrialN,prac_learn_study_loop.thisN,prac_learn_study_loop.thisIndex,prac_learn_study_loop.ran,image,prac_learn_test_loop.thisRepN,prac_learn_test_loop.thisTrialN,prac_learn_test_loop.thisN,prac_learn_test_loop.thisIndex,prac_learn_test_loop.ran,learn_study_loop.thisRepN,learn_study_loop.thisTrialN,learn_study_loop.thisN,learn_study_loop.thisIndex,learn_study_loop.ran,list_no,block_no,learn_test_loop.thisRepN,learn_test_loop.thisTrialN,learn_test_loop.thisN,learn_test_loop.thisIndex,learn_test_loop.ran,learn_blocks.thisRepN,learn_blocks.thisTrialN,learn_blocks.thisN,learn_blocks.thisIndex,learn_blocks.ran,block_csv,key_resp_13.keys,key_resp_13.rt,learn_blocks_loop.thisRepN,learn_blocks_loop.thisTrialN,learn_blocks_loop.thisN,learn_blocks_loop.thisIndex,learn_blocks_loop.ran,final_learn_test.thisRepN,final_learn_test.thisTrialN,final_learn_test.thisN,final_learn_test.thisIndex,final_learn_test.ran,s_im1,s_im2,s_im3,s_im4,s_im5,s_im6,s_im7,s_im8,s_im1pos,s_im2pos,s_im3pos,s_im4pos,s_im5pos,s_im6pos,s_im7pos,s_im8pos,s_tarright,search_resp.keys,search_resp.rt,search_loop.thisRepN,search_loop.thisTrialN,search_loop.thisN,search_loop.thisIndex,search_loop.ran,prac_wm_search_loop.thisRepN,prac_wm_search_loop.thisTrialN,prac_wm_search_loop.thisN,prac_wm_search_loop.thisIndex,prac_wm_search_loop.ran,prac_wm_test_loop.thisRepN,prac_wm_test_loop.thisTrialN,prac_wm_test_loop.thisN,prac_wm_test_loop.thisIndex,prac_wm_test_loop.ran,wm_recalled1,wm_recall_rt1,wm_probed1,wm_recall_acc1,wm_recalled2,wm_recall_rt2,wm_probed2,wm_recall_acc2,wm_recalled3,wm_recall_rt3,wm_probed3,wm_recall_acc3,wm_recalled4,wm_recall_rt4,wm_probed4,wm_recall_acc4,prac_wm_trial_loop.thisRepN,prac_wm_trial_loop.thisTrialN,prac_wm_trial_loop.thisN,prac_wm_trial_loop.thisIndex,prac_wm_trial_loop.ran,word1,image1,file1,item_type1,word2,image2,file2,item_type2,word4,image4,file4,item_type4,word3,image3,file3,item_type3,wm_search_loop.thisRepN,wm_search_loop.thisTrialN,wm_search_loop.thisN,wm_search_loop.thisIndex,wm_search_loop.ran,wm_test_loop.thisRepN,wm_test_loop.thisTrialN,wm_test_loop.thisN,wm_test_loop.thisIndex,wm_test_loop.ran,wm_trial_loop.thisRepN,wm_trial_loop.thisTrialN,wm_trial_loop.thisN,wm_trial_loop.thisIndex,wm_trial_loop.ran
y,11.05498,TOUGH,7.591485,1,0,0,0,0,1,stimuli/images/PICTURE_747.png,TOUGH,5ea166af93435d0008a8a341,21/08/1953,2020-09-10_14h14.51.894,proactive3.1,2020.1.2,Win32,60,5f599a131af4471f3d752b7b,5f5a26a4def27f07c2332f7e,5,,,,,,,,,,,,,,,,,,,,,,,,,,,,,,,,,,,,,,,,,,,,,,,,,,,,,,,,,,,,,,,,,,,,,,,,,,,,,,,,,,,,,,,,,,,,,,,,,,,,,,,,,,,,,,,,,,,,,,,,,,,,,,,
,,,,,,,,,,stimuli/images/PICTURE_658.png,DEVIL,5ea166af93435d0008a8a341,21/08/1953,2020-09-10_14h14.51.894,proactive3.1,2020.1.2,Win32,60,5f599a131af4471f3d752b7b,5f5a26a4def27f07c2332f7e,5,0,0,0,3,1,crow,,,,,,,,,,,,,,,,,,,,,,,,,,,,,,,,,,,,,,,,,,,,,,,,,,,,,,,,,,,,,,,,,,,,,,,,,,,,,,,,,,,,,,,,,,,,,,,,,,,,,,,,,,,,,,,,,,,,,,,,,
,,,,,,,,,,stimuli/images/PICTURE_697.png,KILLER,5ea166af93435d0008a8a341,21/08/1953,2020-09-10_14h14.51.894,proactive3.1,2020.1.2,Win32,60,5f599a131af4471f3d752b7b,5f5a26a4def27f07c2332f7e,5,0,1,1,4,1,peach,,,,,,,,,,,,,,,,,,,,,,,,,,,,,,,,,,,,,,,,,,,,,,,,,,,,,,,,,,,,,,,,,,,,,,,,,,,,,,,,,,,,,,,,,,,,,,,,,,,,,,,,,,,,,,,,,,,,,,,,,
,,,,,,,,,,stimuli/images/PICTURE_378.png,LOSS,5ea166af93435d0008a8a341,21/08/1953,2020-09-10_14h14.51.894,proactive3.1,2020.1.2,Win32,60,5f599a131af4471f3d752b7b,5f5a26a4def27f07c2332f7e,5,0,2,2,2,1,lobster,,,,,,,,,,,,,,,,,,,,,,,,,,,,,,,,,,,,,,,,,,,,,,,,,,,,,,,,,,,,,,,,,,,,,,,,,,,,,,,,,,,,,,,,,,,,,,,,,,,,,,,,,,,,,,,,,,,,,,,,,
,,,,,,,,,,stimuli/images/PICTURE_727.png,CELL,5ea166af93435d0008a8a341,21/08/1953,2020-09-10_14h14.51.894,proactive3.1,2020.1.2,Win32,60,5f599a131af4471f3d752b7b,5f5a26a4def27f07c2332f7e,5,0,3,3,1,1,hose,,,,,,,,,,,,,,,,,,,,,,,,,,,,,,,,,,,,,,,,,,,,,,,,,,,,,,,,,,,,,,,,,,,,,,,,,,,,,,,,,,,,,,,,,,,,,,,,,,,,,,,,,,,,,,,,,,,,,,,,,
,,DEVIL,11.233765,1,,,,,,stimuli/images/PICTURE_658.png,DEVIL,5ea166af93435d0008a8a341,21/08/1953,2020-09-10_14h14.51.894,proactive3.1,2020.1.2,Win32,60,5f599a131af4471f3d752b7b,5f5a26a4def27f07c2332f7e,5,,,,,,crow,0,0,0,3,1,,,,,,,,,,,,,,,,,,,,,,,,,,,,,,,,,,,,,,,,,,,,,,,,,,,,,,,,,,,,,,,,,,,,,,,,,,,,,,,,,,,,,,,,,,,,,,,,,,,,,,,,,,,,,,,,,,,,
,,LOSS,3.233665,1,,,,,,stimuli/images/PICTURE_378.png,LOSS,5ea166af93435d0008a8a341,21/08/1953,2020-09-10_14h14.51.894,proactive3.1,2020.1.2,Win32,60,5f599a131af4471f3d752b7b,5f5a26a4def27f07c2332f7e,5,,,,,,lobster,0,1,1,2,1,,,,,,,,,,,,,,,,,,,,,,,,,,,,,,,,,,,,,,,,,,,,,,,,,,,,,,,,,,,,,,,,,,,,,,,,,,,,,,,,,,,,,,,,,,,,,,,,,,,,,,,,,,,,,,,,,,,,
,,?,10.1375,0,,,,,,stimuli/images/PICTURE_727.png,CELL,5ea166af93435d0008a8a341,21/08/1953,2020-09-10_14h14.51.894,proactive3.1,2020.1.2,Win32,60,5f599a131af4471f3d752b7b,5f5a26a4def27f07c2332f7e,5,,,,,,hose,0,2,2,1,1,,,,,,,,,,,,,,,,,,,,,,,,,,,,,,,,,,,,,,,,,,,,,,,,,,,,,,,,,,,,,,,,,,,,,,,,,,,,,,,,,,,,,,,,,,,,,,,,,,,,,,,,,,,,,,,,,,,,
,,?,8.803405,0,,,,,,stimuli/images/PICTURE_697.png,KILLER,5ea166af93435d0008a8a341,21/08/1953,2020-09-10_14h14.51.894,proactive3.1,2020.1.2,Win32,60,5f599a131af4471f3d752b7b,5f5a26a4def27f07c2332f7e,5,,,,,,peach,0,3,3,4,1,,,,,,,,,,,,,,,,,,,,,,,,,,,,,,,,,,,,,,,,,,,,,,,,,,,,,,,,,,,,,,,,,,,,,,,,,,,,,,,,,,,,,,,,,,,,,,,,,,,,,,,,,,,,,,,,,,,,
,,?,5.435485,0,,,,,,stimuli/images/PICTURE_269.png,GENIUS,5ea166af93435d0008a8a341,21/08/1953,2020-09-10_14h14.51.894,proactive3.1,2020.1.2,Win32,60,5f599a131af4471f3d752b7b,5f5a26a4def27f07c2332f7e,5,,,,,,chameleon,0,4,4,0,1,,,,,,,,,,,,,,,,,,,,,,,,,,,,,,,,,,,,,,,,,,,,,,,,,,,,,,,,,,,,,,,,,,,,,,,,,,,,,,,,,,,,,,,,,,,,,,,,,,,,,,,,,,,,,,,,,,,,
,,,,,,,,,,stimuli/images/PICTURE_2.png,JUNGLE,5ea166af93435d0008a8a341,21/08/1953,2020-09-10_14h14.51.894,proactive3.1,2020.1.2,Win32,60,5f599a131af4471f3d752b7b,5f5a26a4def27f07c2332f7e,5,,,,,,tyre,,,,,,0,0,0,1,1,1,2,,,,,,,,,,,,,,,,,,,,,,,,,,,,,,,,,,,,,,,,,,,,,,,,,,,,,,,,,,,,,,,,,,,,,,,,,,,,,,,,,,,,,,,,,,,,,,,,,,,,,,,,,,,,,
,,,,,,,,,,stimuli/images/PICTURE_654.png,YEAR,5ea166af93435d0008a8a341,21/08/1953,2020-09-10_14h14.51.894,proactive3.1,2020.1.2,Win32,60,5f599a131af4471f3d752b7b,5f5a26a4def27f07c2332f7e,5,,,,,,pencil,,,,,,0,1,1,41,1,5,2,,,,,,,,,,,,,,,,,,,,,,,,,,,,,,,,,,,,,,,,,,,,,,,,,,,,,,,,,,,,,,,,,,,,,,,,,,,,,,,,,,,,,,,,,,,,,,,,,,,,,,,,,,,,,
,,,,,,,,,,stimuli/images/PICTURE_2.png,AREA,5ea166af93435d0008a8a341,21/08/1953,2020-09-10_14h14.51.894,proactive3.1,2020.1.2,Win32,60,5f599a131af4471f3d752b7b,5f5a26a4def27f07c2332f7e,5,,,,,,tyre,,,,,,0,2,2,32,1,4,2,,,,,,,,,,,,,,,,,,,,,,,,,,,,,,,,,,,,,,,,,,,,,,,,,,,,,,,,,,,,,,,,,,,,,,,,,,,,,,,,,,,,,,,,,,,,,,,,,,,,,,,,,,,,,
,,,,,,,,,,stimuli/images/PICTURE_677.png,PHOTO,5ea166af93435d0008a8a341,21/08/1953,2020-09-10_14h14.51.894,proactive3.1,2020.1.2,Win32,60,5f599a131af4471f3d752b7b,5f5a26a4def27f07c2332f7e,5,,,,,,map,,,,,,0,3,3,14,1,2,2,,,,,,,,,,,,,,,,,,,,,,,,,,,,,,,,,,,,,,,,,,,,,,,,,,,,,,,,,,,,,,,,,,,,,,,,,,,,,,,,,,,,,,,,,,,,,,,,,,,,,,,,,,,,,
,,,,,,,,,,stimuli/images/PICTURE_32.png,LETTER,5ea166af93435d0008a8a341,21/08/1953,2020-09-10_14h14.51.894,proactive3.1,2020.1.2,Win32,60,5f599a131af4471f3d752b7b,5f5a26a4def27f07c2332f7e,5,,,,,,crown,,,,,,0,4,4,56,1,6,2,,,,,,,,,,,,,,,,,,,,,,,,,,,,,,,,,,,,,,,,,,,,,,,,,,,,,,,,,,,,,,,,,,,,,,,,,,,,,,,,,,,,,,,,,,,,,,,,,,,,,,,,,,,,,
,,,,,,,,,,stimuli/images/PICTURE_356.png,CANDY,5ea166af93435d0008a8a341,21/08/1953,2020-09-10_14h14.51.894,proactive3.1,2020.1.2,Win32,60,5f599a131af4471f3d752b7b,5f5a26a4def27f07c2332f7e,5,,,,,,pawn,,,,,,0,5,5,46,1,5,2,,,,,,,,,,,,,,,,,,,,,,,,,,,,,,,,,,,,,,,,,,,,,,,,,,,,,,,,,,,,,,,,,,,,,,,,,,,,,,,,,,,,,,,,,,,,,,,,,,,,,,,,,,,,,
,,,,,,,,,,stimuli/images/PICTURE_123.png,SALE,5ea166af93435d0008a8a341,21/08/1953,2020-09-10_14h14.51.894,proactive3.1,2020.1.2,Win32,60,5f599a131af4471f3d752b7b,5f5a26a4def27f07c2332f7e,5,,,,,,dart,,,,,,0,6,6,8,1,1,2,,,,,,,,,,,,,,,,,,,,,,,,,,,,,,,,,,,,,,,,,,,,,,,,,,,,,,,,,,,,,,,,,,,,,,,,,,,,,,,,,,,,,,,,,,,,,,,,,,,,,,,,,,,,,
,,,,,,,,,,stimuli/images/PICTURE_285.png,PRINCE,5ea166af93435d0008a8a341,21/08/1953,2020-09-10_14h14.51.894,proactive3.1,2020.1.2,Win32,60,5f599a131af4471f3d752b7b,5f5a26a4def27f07c2332f7e,5,,,,,,carrot,,,,,,0,7,7,20,1,3,2,,,,,,,,,,,,,,,,,,,,,,,,,,,,,,,,,,,,,,,,,,,,,,,,,,,,,,,,,,,,,,,,,,,,,,,,,,,,,,,,,,,,,,,,,,,,,,,,,,,,,,,,,,,,,
,,,,,,,,,,stimuli/images/PICTURE_177.png,HOUSE,5ea166af93435d0008a8a341,21/08/1953,2020-09-10_14h14.51.894,proactive3.1,2020.1.2,Win32,60,5f599a131af4471f3d752b7b,5f5a26a4def27f07c2332f7e,5,,,,,,mushroom,,,,,,0,8,8,25,1,3,2,,,,,,,,,,,,,,,,,,,,,,,,,,,,,,,,,,,,,,,,,,,,,,,,,,,,,,,,,,,,,,,,,,,,,,,,,,,,,,,,,,,,,,,,,,,,,,,,,,,,,,,,,,,,,
,,,,,,,,,,stimuli/images/PICTURE_285.png,WRITER,5ea166af93435d0008a8a341,21/08/1953,2020-09-10_14h14.51.894,proactive3.1,2020.1.2,Win32,60,5f599a131af4471f3d752b7b,5f5a26a4def27f07c2332f7e,5,,,,,,carrot,,,,,,0,9,9,6,1,1,2,,,,,,,,,,,,,,,,,,,,,,,,,,,,,,,,,,,,,,,,,,,,,,,,,,,,,,,,,,,,,,,,,,,,,,,,,,,,,,,,,,,,,,,,,,,,,,,,,,,,,,,,,,,,,
,,,,,,,,,,stimuli/images/PICTURE_470.png,MOMENT,5ea166af93435d0008a8a341,21/08/1953,2020-09-10_14h14.51.894,proactive3.1,2020.1.2,Win32,60,5f599a131af4471f3d752b7b,5f5a26a4def27f07c2332f7e,5,,,,,,motorbike,,,,,,0,10,10,40,1,5,2,,,,,,,,,,,,,,,,,,,,,,,,,,,,,,,,,,,,,,,,,,,,,,,,,,,,,,,,,,,,,,,,,,,,,,,,,,,,,,,,,,,,,,,,,,,,,,,,,,,,,,,,,,,,,
,,,,,,,,,,stimuli/images/PICTURE_57.png,CASINO,5ea166af93435d0008a8a341,21/08/1953,2020-09-10_14h14.51.894,proactive3.1,2020.1.2,Win32,60,5f599a131af4471f3d752b7b,5f5a26a4def27f07c2332f7e,5,,,,,,stamp,,,,,,0,11,11,12,1,2,2,,,,,,,,,,,,,,,,,,,,,,,,,,,,,,,,,,,,,,,,,,,,,,,,,,,,,,,,,,,,,,,,,,,,,,,,,,,,,,,,,,,,,,,,,,,,,,,,,,,,,,,,,,,,,
,,,,,,,,,,stimuli/images/PICTURE_509.png,SHOTS,5ea166af93435d0008a8a341,21/08/1953,2020-09-10_14h14.51.894,proactive3.1,2020.1.2,Win32,60,5f599a131af4471f3d752b7b,5f5a26a4def27f07c2332f7e,5,,,,,,telephone,,,,,,0,12,12,7,1,1,2,,,,,,,,,,,,,,,,,,,,,,,,,,,,,,,,,,,,,,,,,,,,,,,,,,,,,,,,,,,,,,,,,,,,,,,,,,,,,,,,,,,,,,,,,,,,,,,,,,,,,,,,,,,,,
,,,,,,,,,,stimuli/images/PICTURE_504.png,HOUSE,5ea166af93435d0008a8a341,21/08/1953,2020-09-10_14h14.51.894,proactive3.1,2020.1.2,Win32,60,5f599a131af4471f3d752b7b,5f5a26a4def27f07c2332f7e,5,,,,,,wheel,,,,,,0,13,13,36,1,4,2,,,,,,,,,,,,,,,,,,,,,,,,,,,,,,,,,,,,,,,,,,,,,,,,,,,,,,,,,,,,,,,,,,,,,,,,,,,,,,,,,,,,,,,,,,,,,,,,,,,,,,,,,,,,,
,,,,,,,,,,stimuli/images/PICTURE_160.png,HOTEL,5ea166af93435d0008a8a341,21/08/1953,2020-09-10_14h14.51.894,proactive3.1,2020.1.2,Win32,60,5f599a131af4471f3d752b7b,5f5a26a4def27f07c2332f7e,5,,,,,,wheelbarrow,,,,,,0,14,14,16,1,2,2,,,,,,,,,,,,,,,,,,,,,,,,,,,,,,,,,,,,,,,,,,,,,,,,,,,,,,,,,,,,,,,,,,,,,,,,,,,,,,,,,,,,,,,,,,,,,,,,,,,,,,,,,,,,,
,,,,,,,,,,stimuli/images/PICTURE_215.png,LEADER,5ea166af93435d0008a8a341,21/08/1953,2020-09-10_14h14.51.894,proactive3.1,2020.1.2,Win32,60,5f599a131af4471f3d752b7b,5f5a26a4def27f07c2332f7e,5,,,,,,boot,,,,,,0,15,15,43,1,5,2,,,,,,,,,,,,,,,,,,,,,,,,,,,,,,,,,,,,,,,,,,,,,,,,,,,,,,,,,,,,,,,,,,,,,,,,,,,,,,,,,,,,,,,,,,,,,,,,,,,,,,,,,,,,,
,,,,,,,,,,stimuli/images/PICTURE_453.png,FAMILY,5ea166af93435d0008a8a341,21/08/1953,2020-09-10_14h14.51.894,proactive3.1,2020.1.2,Win32,60,5f599a131af4471f3d752b7b,5f5a26a4def27f07c2332f7e,5,,,,,,scissors,,,,,,0,16,16,48,1,5,2,,,,,,,,,,,,,,,,,,,,,,,,,,,,,,,,,,,,,,,,,,,,,,,,,,,,,,,,,,,,,,,,,,,,,,,,,,,,,,,,,,,,,,,,,,,,,,,,,,,,,,,,,,,,,
,,,,,,,,,,stimuli/images/PICTURE_68.png,KIND,5ea166af93435d0008a8a341,21/08/1953,2020-09-10_14h14.51.894,proactive3.1,2020.1.2,Win32,60,5f599a131af4471f3d752b7b,5f5a26a4def27f07c2332f7e,5,,,,,,candle,,,,,,0,17,17,23,1,3,2,,,,,,,,,,,,,,,,,,,,,,,,,,,,,,,,,,,,,,,,,,,,,,,,,,,,,,,,,,,,,,,,,,,,,,,,,,,,,,,,,,,,,,,,,,,,,,,,,,,,,,,,,,,,,
,,,,,,,,,,stimuli/images/PICTURE_215.png,BOYS,5ea166af93435d0008a8a341,21/08/1953,2020-09-10_14h14.51.894,proactive3.1,2020.1.2,Win32,60,5f599a131af4471f3d752b7b,5f5a26a4def27f07c2332f7e,5,,,,,,boot,,,,,,0,18,18,24,1,3,2,,,,,,,,,,,,,,,,,,,,,,,,,,,,,,,,,,,,,,,,,,,,,,,,,,,,,,,,,,,,,,,,,,,,,,,,,,,,,,,,,,,,,,,,,,,,,,,,,,,,,,,,,,,,,
,,,,,,,,,,stimuli/images/PICTURE_348.png,TOILET,5ea166af93435d0008a8a341,21/08/1953,2020-09-10_14h14.51.894,proactive3.1,2020.1.2,Win32,60,5f599a131af4471f3d752b7b,5f5a26a4def27f07c2332f7e,5,,,,,,pepper,,,,,,0,19,19,4,1,1,2,,,,,,,,,,,,,,,,,,,,,,,,,,,,,,,,,,,,,,,,,,,,,,,,,,,,,,,,,,,,,,,,,,,,,,,,,,,,,,,,,,,,,,,,,,,,,,,,,,,,,,,,,,,,,
,,,,,,,,,,stimuli/images/PICTURE_403.png,FAMILY,5ea166af93435d0008a8a341,21/08/1953,2020-09-10_14h14.51.894,proactive3.1,2020.1.2,Win32,60,5f599a131af4471f3d752b7b,5f5a26a4def27f07c2332f7e,5,,,,,,cathedral,,,,,,0,20,20,9,1,1,2,,,,,,,,,,,,,,,,,,,,,,,,,,,,,,,,,,,,,,,,,,,,,,,,,,,,,,,,,,,,,,,,,,,,,,,,,,,,,,,,,,,,,,,,,,,,,,,,,,,,,,,,,,,,,
,,,,,,,,,,stimuli/images/PICTURE_405.png,JUNGLE,5ea166af93435d0008a8a341,21/08/1953,2020-09-10_14h14.51.894,proactive3.1,2020.1.2,Win32,60,5f599a131af4471f3d752b7b,5f5a26a4def27f07c2332f7e,5,,,,,,anchor,,,,,,0,21,21,58,1,6,2,,,,,,,,,,,,,,,,,,,,,,,,,,,,,,,,,,,,,,,,,,,,,,,,,,,,,,,,,,,,,,,,,,,,,,,,,,,,,,,,,,,,,,,,,,,,,,,,,,,,,,,,,,,,,
,,,,,,,,,,stimuli/images/PICTURE_654.png,COPS,5ea166af93435d0008a8a341,21/08/1953,2020-09-10_14h14.51.894,proactive3.1,2020.1.2,Win32,60,5f599a131af4471f3d752b7b,5f5a26a4def27f07c2332f7e,5,,,,,,pencil,,,,,,0,22,22,10,1,2,2,,,,,,,,,,,,,,,,,,,,,,,,,,,,,,,,,,,,,,,,,,,,,,,,,,,,,,,,,,,,,,,,,,,,,,,,,,,,,,,,,,,,,,,,,,,,,,,,,,,,,,,,,,,,,
,,,,,,,,,,stimuli/images/PICTURE_564.png,PLENTY,5ea166af93435d0008a8a341,21/08/1953,2020-09-10_14h14.51.894,proactive3.1,2020.1.2,Win32,60,5f599a131af4471f3d752b7b,5f5a26a4def27f07c2332f7e,5,,,,,,spoon,,,,,,0,23,23,11,1,2,2,,,,,,,,,,,,,,,,,,,,,,,,,,,,,,,,,,,,,,,,,,,,,,,,,,,,,,,,,,,,,,,,,,,,,,,,,,,,,,,,,,,,,,,,,,,,,,,,,,,,,,,,,,,,,
,,,,,,,,,,stimuli/images/PICTURE_255.png,PENNY,5ea166af93435d0008a8a341,21/08/1953,2020-09-10_14h14.51.894,proactive3.1,2020.1.2,Win32,60,5f599a131af4471f3d752b7b,5f5a26a4def27f07c2332f7e,5,,,,,,shovel,,,,,,0,24,24,19,1,2,2,,,,,,,,,,,,,,,,,,,,,,,,,,,,,,,,,,,,,,,,,,,,,,,,,,,,,,,,,,,,,,,,,,,,,,,,,,,,,,,,,,,,,,,,,,,,,,,,,,,,,,,,,,,,,
,,,,,,,,,,stimuli/images/PICTURE_750.png,POLICY,5ea166af93435d0008a8a341,21/08/1953,2020-09-10_14h14.51.894,proactive3.1,2020.1.2,Win32,60,5f599a131af4471f3d752b7b,5f5a26a4def27f07c2332f7e,5,,,,,,kettle,,,,,,0,25,25,44,1,5,2,,,,,,,,,,,,,,,,,,,,,,,,,,,,,,,,,,,,,,,,,,,,,,,,,,,,,,,,,,,,,,,,,,,,,,,,,,,,,,,,,,,,,,,,,,,,,,,,,,,,,,,,,,,,,
,,,,,,,,,,stimuli/images/PICTURE_688.png,CLOCK,5ea166af93435d0008a8a341,21/08/1953,2020-09-10_14h14.51.894,proactive3.1,2020.1.2,Win32,60,5f599a131af4471f3d752b7b,5f5a26a4def27f07c2332f7e,5,,,,,,runner,,,,,,0,26,26,42,1,5,2,,,,,,,,,,,,,,,,,,,,,,,,,,,,,,,,,,,,,,,,,,,,,,,,,,,,,,,,,,,,,,,,,,,,,,,,,,,,,,,,,,,,,,,,,,,,,,,,,,,,,,,,,,,,,
,,,,,,,,,,stimuli/images/PICTURE_95.png,NIGHT,5ea166af93435d0008a8a341,21/08/1953,2020-09-10_14h14.51.894,proactive3.1,2020.1.2,Win32,60,5f599a131af4471f3d752b7b,5f5a26a4def27f07c2332f7e,5,,,,,,suitcase,,,,,,0,27,27,37,1,4,2,,,,,,,,,,,,,,,,,,,,,,,,,,,,,,,,,,,,,,,,,,,,,,,,,,,,,,,,,,,,,,,,,,,,,,,,,,,,,,,,,,,,,,,,,,,,,,,,,,,,,,,,,,,,,
,,,,,,,,,,stimuli/images/PICTURE_405.png,JUNGLE,5ea166af93435d0008a8a341,21/08/1953,2020-09-10_14h14.51.894,proactive3.1,2020.1.2,Win32,60,5f599a131af4471f3d752b7b,5f5a26a4def27f07c2332f7e,5,,,,,,anchor,,,,,,0,28,28,13,1,2,2,,,,,,,,,,,,,,,,,,,,,,,,,,,,,,,,,,,,,,,,,,,,,,,,,,,,,,,,,,,,,,,,,,,,,,,,,,,,,,,,,,,,,,,,,,,,,,,,,,,,,,,,,,,,,
,,,,,,,,,,stimuli/images/PICTURE_487.png,ROOF,5ea166af93435d0008a8a341,21/08/1953,2020-09-10_14h14.51.894,proactive3.1,2020.1.2,Win32,60,5f599a131af4471f3d752b7b,5f5a26a4def27f07c2332f7e,5,,,,,,basket,,,,,,0,29,29,50,1,6,2,,,,,,,,,,,,,,,,,,,,,,,,,,,,,,,,,,,,,,,,,,,,,,,,,,,,,,,,,,,,,,,,,,,,,,,,,,,,,,,,,,,,,,,,,,,,,,,,,,,,,,,,,,,,,
,,,,,,,,,,stimuli/images/PICTURE_141.png,CLIENT,5ea166af93435d0008a8a341,21/08/1953,2020-09-10_14h14.51.894,proactive3.1,2020.1.2,Win32,60,5f599a131af4471f3d752b7b,5f5a26a4def27f07c2332f7e,5,,,,,,sunflower,,,,,,0,30,30,30,1,4,2,,,,,,,,,,,,,,,,,,,,,,,,,,,,,,,,,,,,,,,,,,,,,,,,,,,,,,,,,,,,,,,,,,,,,,,,,,,,,,,,,,,,,,,,,,,,,,,,,,,,,,,,,,,,,
,,,,,,,,,,stimuli/images/PICTURE_470.png,BEAUTY,5ea166af93435d0008a8a341,21/08/1953,2020-09-10_14h14.51.894,proactive3.1,2020.1.2,Win32,60,5f599a131af4471f3d752b7b,5f5a26a4def27f07c2332f7e,5,,,,,,motorbike,,,,,,0,31,31,26,1,3,2,,,,,,,,,,,,,,,,,,,,,,,,,,,,,,,,,,,,,,,,,,,,,,,,,,,,,,,,,,,,,,,,,,,,,,,,,,,,,,,,,,,,,,,,,,,,,,,,,,,,,,,,,,,,,
,,,,,,,,,,stimuli/images/PICTURE_327.png,LEADER,5ea166af93435d0008a8a341,21/08/1953,2020-09-10_14h14.51.894,proactive3.1,2020.1.2,Win32,60,5f599a131af4471f3d752b7b,5f5a26a4def27f07c2332f7e,5,,,,,,helmet,,,,,,0,32,32,17,1,2,2,,,,,,,,,,,,,,,,,,,,,,,,,,,,,,,,,,,,,,,,,,,,,,,,,,,,,,,,,,,,,,,,,,,,,,,,,,,,,,,,,,,,,,,,,,,,,,,,,,,,,,,,,,,,,
,,,,,,,,,,stimuli/images/PICTURE_405.png,HOUSE,5ea166af93435d0008a8a341,21/08/1953,2020-09-10_14h14.51.894,proactive3.1,2020.1.2,Win32,60,5f599a131af4471f3d752b7b,5f5a26a4def27f07c2332f7e,5,,,,,,anchor,,,,,,0,33,33,2,1,1,2,,,,,,,,,,,,,,,,,,,,,,,,,,,,,,,,,,,,,,,,,,,,,,,,,,,,,,,,,,,,,,,,,,,,,,,,,,,,,,,,,,,,,,,,,,,,,,,,,,,,,,,,,,,,,
,,,,,,,,,,stimuli/images/PICTURE_93.png,GIRL,5ea166af93435d0008a8a341,21/08/1953,2020-09-10_14h14.51.894,proactive3.1,2020.1.2,Win32,60,5f599a131af4471f3d752b7b,5f5a26a4def27f07c2332f7e,5,,,,,,skateboard,,,,,,0,34,34,31,1,4,2,,,,,,,,,,,,,,,,,,,,,,,,,,,,,,,,,,,,,,,,,,,,,,,,,,,,,,,,,,,,,,,,,,,,,,,,,,,,,,,,,,,,,,,,,,,,,,,,,,,,,,,,,,,,,
,,,,,,,,,,stimuli/images/PICTURE_655.png,SALE,5ea166af93435d0008a8a341,21/08/1953,2020-09-10_14h14.51.894,proactive3.1,2020.1.2,Win32,60,5f599a131af4471f3d752b7b,5f5a26a4def27f07c2332f7e,5,,,,,,megaphone,,,,,,0,35,35,57,1,6,2,,,,,,,,,,,,,,,,,,,,,,,,,,,,,,,,,,,,,,,,,,,,,,,,,,,,,,,,,,,,,,,,,,,,,,,,,,,,,,,,,,,,,,,,,,,,,,,,,,,,,,,,,,,,,
,,,,,,,,,,stimuli/images/PICTURE_692.png,DUDE,5ea166af93435d0008a8a341,21/08/1953,2020-09-10_14h14.51.894,proactive3.1,2020.1.2,Win32,60,5f599a131af4471f3d752b7b,5f5a26a4def27f07c2332f7e,5,,,,,,cherry,,,,,,0,36,36,47,1,5,2,,,,,,,,,,,,,,,,,,,,,,,,,,,,,,,,,,,,,,,,,,,,,,,,,,,,,,,,,,,,,,,,,,,,,,,,,,,,,,,,,,,,,,,,,,,,,,,,,,,,,,,,,,,,,
,,,,,,,,,,stimuli/images/PICTURE_487.png,POLICY,5ea166af93435d0008a8a341,21/08/1953,2020-09-10_14h14.51.894,proactive3.1,2020.1.2,Win32,60,5f599a131af4471f3d752b7b,5f5a26a4def27f07c2332f7e,5,,,,,,basket,,,,,,0,37,37,34,1,4,2,,,,,,,,,,,,,,,,,,,,,,,,,,,,,,,,,,,,,,,,,,,,,,,,,,,,,,,,,,,,,,,,,,,,,,,,,,,,,,,,,,,,,,,,,,,,,,,,,,,,,,,,,,,,,
,,,,,,,,,,stimuli/images/PICTURE_33.png,COPS,5ea166af93435d0008a8a341,21/08/1953,2020-09-10_14h14.51.894,proactive3.1,2020.1.2,Win32,60,5f599a131af4471f3d752b7b,5f5a26a4def27f07c2332f7e,5,,,,,,frame,,,,,,0,38,38,29,1,3,2,,,,,,,,,,,,,,,,,,,,,,,,,,,,,,,,,,,,,,,,,,,,,,,,,,,,,,,,,,,,,,,,,,,,,,,,,,,,,,,,,,,,,,,,,,,,,,,,,,,,,,,,,,,,,
,,,,,,,,,,stimuli/images/PICTURE_311.png,TOILET,5ea166af93435d0008a8a341,21/08/1953,2020-09-10_14h14.51.894,proactive3.1,2020.1.2,Win32,60,5f599a131af4471f3d752b7b,5f5a26a4def27f07c2332f7e,5,,,,,,razor,,,,,,0,39,39,54,1,6,2,,,,,,,,,,,,,,,,,,,,,,,,,,,,,,,,,,,,,,,,,,,,,,,,,,,,,,,,,,,,,,,,,,,,,,,,,,,,,,,,,,,,,,,,,,,,,,,,,,,,,,,,,,,,,
,,,,,,,,,,stimuli/images/PICTURE_208.png,SPIRIT,5ea166af93435d0008a8a341,21/08/1953,2020-09-10_14h14.51.894,proactive3.1,2020.1.2,Win32,60,5f599a131af4471f3d752b7b,5f5a26a4def27f07c2332f7e,5,,,,,,microphone,,,,,,0,40,40,28,1,3,2,,,,,,,,,,,,,,,,,,,,,,,,,,,,,,,,,,,,,,,,,,,,,,,,,,,,,,,,,,,,,,,,,,,,,,,,,,,,,,,,,,,,,,,,,,,,,,,,,,,,,,,,,,,,,
,,,,,,,,,,stimuli/images/PICTURE_297.png,BODY,5ea166af93435d0008a8a341,21/08/1953,2020-09-10_14h14.51.894,proactive3.1,2020.1.2,Win32,60,5f599a131af4471f3d752b7b,5f5a26a4def27f07c2332f7e,5,,,,,,aeroplane,,,,,,0,41,41,51,1,6,2,,,,,,,,,,,,,,,,,,,,,,,,,,,,,,,,,,,,,,,,,,,,,,,,,,,,,,,,,,,,,,,,,,,,,,,,,,,,,,,,,,,,,,,,,,,,,,,,,,,,,,,,,,,,,
,,,,,,,,,,stimuli/images/PICTURE_57.png,NATION,5ea166af93435d0008a8a341,21/08/1953,2020-09-10_14h14.51.894,proactive3.1,2020.1.2,Win32,60,5f599a131af4471f3d752b7b,5f5a26a4def27f07c2332f7e,5,,,,,,stamp,,,,,,0,42,42,21,1,3,2,,,,,,,,,,,,,,,,,,,,,,,,,,,,,,,,,,,,,,,,,,,,,,,,,,,,,,,,,,,,,,,,,,,,,,,,,,,,,,,,,,,,,,,,,,,,,,,,,,,,,,,,,,,,,
,,,,,,,,,,stimuli/images/PICTURE_314.png,SPEECH,5ea166af93435d0008a8a341,21/08/1953,2020-09-10_14h14.51.894,proactive3.1,2020.1.2,Win32,60,5f599a131af4471f3d752b7b,5f5a26a4def27f07c2332f7e,5,,,,,,perfume,,,,,,0,43,43,35,1,4,2,,,,,,,,,,,,,,,,,,,,,,,,,,,,,,,,,,,,,,,,,,,,,,,,,,,,,,,,,,,,,,,,,,,,,,,,,,,,,,,,,,,,,,,,,,,,,,,,,,,,,,,,,,,,,
,,,,,,,,,,stimuli/images/PICTURE_2.png,YARD,5ea166af93435d0008a8a341,21/08/1953,2020-09-10_14h14.51.894,proactive3.1,2020.1.2,Win32,60,5f599a131af4471f3d752b7b,5f5a26a4def27f07c2332f7e,5,,,,,,tyre,,,,,,0,44,44,55,1,6,2,,,,,,,,,,,,,,,,,,,,,,,,,,,,,,,,,,,,,,,,,,,,,,,,,,,,,,,,,,,,,,,,,,,,,,,,,,,,,,,,,,,,,,,,,,,,,,,,,,,,,,,,,,,,,
,,,,,,,,,,stimuli/images/PICTURE_147.png,LEADER,5ea166af93435d0008a8a341,21/08/1953,2020-09-10_14h14.51.894,proactive3.1,2020.1.2,Win32,60,5f599a131af4471f3d752b7b,5f5a26a4def27f07c2332f7e,5,,,,,,hanger,,,,,,0,45,45,33,1,4,2,,,,,,,,,,,,,,,,,,,,,,,,,,,,,,,,,,,,,,,,,,,,,,,,,,,,,,,,,,,,,,,,,,,,,,,,,,,,,,,,,,,,,,,,,,,,,,,,,,,,,,,,,,,,,
,,,,,,,,,,stimuli/images/PICTURE_677.png,FAMILY,5ea166af93435d0008a8a341,21/08/1953,2020-09-10_14h14.51.894,proactive3.1,2020.1.2,Win32,60,5f599a131af4471f3d752b7b,5f5a26a4def27f07c2332f7e,5,,,,,,map,,,,,,0,46,46,53,1,6,2,,,,,,,,,,,,,,,,,,,,,,,,,,,,,,,,,,,,,,,,,,,,,,,,,,,,,,,,,,,,,,,,,,,,,,,,,,,,,,,,,,,,,,,,,,,,,,,,,,,,,,,,,,,,,
,,,,,,,,,,stimuli/images/PICTURE_491.png,SERIES,5ea166af93435d0008a8a341,21/08/1953,2020-09-10_14h14.51.894,proactive3.1,2020.1.2,Win32,60,5f599a131af4471f3d752b7b,5f5a26a4def27f07c2332f7e,5,,,,,,rug,,,,,,0,47,47,39,1,4,2,,,,,,,,,,,,,,,,,,,,,,,,,,,,,,,,,,,,,,,,,,,,,,,,,,,,,,,,,,,,,,,,,,,,,,,,,,,,,,,,,,,,,,,,,,,,,,,,,,,,,,,,,,,,,
,,,,,,,,,,stimuli/images/PICTURE_509.png,APPLE,5ea166af93435d0008a8a341,21/08/1953,2020-09-10_14h14.51.894,proactive3.1,2020.1.2,Win32,60,5f599a131af4471f3d752b7b,5f5a26a4def27f07c2332f7e,5,,,,,,telephone,,,,,,0,48,48,38,1,4,2,,,,,,,,,,,,,,,,,,,,,,,,,,,,,,,,,,,,,,,,,,,,,,,,,,,,,,,,,,,,,,,,,,,,,,,,,,,,,,,,,,,,,,,,,,,,,,,,,,,,,,,,,,,,,
,,,,,,,,,,stimuli/images/PICTURE_18.png,RIVER,5ea166af93435d0008a8a341,21/08/1953,2020-09-10_14h14.51.894,proactive3.1,2020.1.2,Win32,60,5f599a131af4471f3d752b7b,5f5a26a4def27f07c2332f7e,5,,,,,,planet,,,,,,0,49,49,22,1,3,2,,,,,,,,,,,,,,,,,,,,,,,,,,,,,,,,,,,,,,,,,,,,,,,,,,,,,,,,,,,,,,,,,,,,,,,,,,,,,,,,,,,,,,,,,,,,,,,,,,,,,,,,,,,,,
,,,,,,,,,,stimuli/images/PICTURE_509.png,MILLER,5ea166af93435d0008a8a341,21/08/1953,2020-09-10_14h14.51.894,proactive3.1,2020.1.2,Win32,60,5f599a131af4471f3d752b7b,5f5a26a4def27f07c2332f7e,5,,,,,,telephone,,,,,,0,50,50,49,1,5,2,,,,,,,,,,,,,,,,,,,,,,,,,,,,,,,,,,,,,,,,,,,,,,,,,,,,,,,,,,,,,,,,,,,,,,,,,,,,,,,,,,,,,,,,,,,,,,,,,,,,,,,,,,,,,
,,,,,,,,,,stimuli/images/PICTURE_667.png,GLASS,5ea166af93435d0008a8a341,21/08/1953,2020-09-10_14h14.51.894,proactive3.1,2020.1.2,Win32,60,5f599a131af4471f3d752b7b,5f5a26a4def27f07c2332f7e,5,,,,,,daisy,,,,,,0,51,51,27,1,3,2,,,,,,,,,,,,,,,,,,,,,,,,,,,,,,,,,,,,,,,,,,,,,,,,,,,,,,,,,,,,,,,,,,,,,,,,,,,,,,,,,,,,,,,,,,,,,,,,,,,,,,,,,,,,,
,,,,,,,,,,stimuli/images/PICTURE_215.png,FOOD,5ea166af93435d0008a8a341,21/08/1953,2020-09-10_14h14.51.894,proactive3.1,2020.1.2,Win32,60,5f599a131af4471f3d752b7b,5f5a26a4def27f07c2332f7e,5,,,,,,boot,,,,,,0,52,52,5,1,1,2,,,,,,,,,,,,,,,,,,,,,,,,,,,,,,,,,,,,,,,,,,,,,,,,,,,,,,,,,,,,,,,,,,,,,,,,,,,,,,,,,,,,,,,,,,,,,,,,,,,,,,,,,,,,,
,,,,,,,,,,stimuli/images/PICTURE_311.png,FLESH,5ea166af93435d0008a8a341,21/08/1953,2020-09-10_14h14.51.894,proactive3.1,2020.1.2,Win32,60,5f599a131af4471f3d752b7b,5f5a26a4def27f07c2332f7e,5,,,,,,razor,,,,,,0,53,53,3,1,1,2,,,,,,,,,,,,,,,,,,,,,,,,,,,,,,,,,,,,,,,,,,,,,,,,,,,,,,,,,,,,,,,,,,,,,,,,,,,,,,,,,,,,,,,,,,,,,,,,,,,,,,,,,,,,,
,,,,,,,,,,stimuli/images/PICTURE_296.png,CLOCK,5ea166af93435d0008a8a341,21/08/1953,2020-09-10_14h14.51.894,proactive3.1,2020.1.2,Win32,60,5f599a131af4471f3d752b7b,5f5a26a4def27f07c2332f7e,5,,,,,,bolt,,,,,,0,54,54,18,1,2,2,,,,,,,,,,,,,,,,,,,,,,,,,,,,,,,,,,,,,,,,,,,,,,,,,,,,,,,,,,,,,,,,,,,,,,,,,,,,,,,,,,,,,,,,,,,,,,,,,,,,,,,,,,,,,
,,,,,,,,,,stimuli/images/PICTURE_708.png,VALLEY,5ea166af93435d0008a8a341,21/08/1953,2020-09-10_14h14.51.894,proactive3.1,2020.1.2,Win32,60,5f599a131af4471f3d752b7b,5f5a26a4def27f07c2332f7e,5,,,,,,monkey,,,,,,0,55,55,45,1,5,2,,,,,,,,,,,,,,,,,,,,,,,,,,,,,,,,,,,,,,,,,,,,,,,,,,,,,,,,,,,,,,,,,,,,,,,,,,,,,,,,,,,,,,,,,,,,,,,,,,,,,,,,,,,,,
,,,,,,,,,,stimuli/images/PICTURE_57.png,CANDY,5ea166af93435d0008a8a341,21/08/1953,2020-09-10_14h14.51.894,proactive3.1,2020.1.2,Win32,60,5f599a131af4471f3d752b7b,5f5a26a4def27f07c2332f7e,5,,,,,,stamp,,,,,,0,56,56,52,1,6,2,,,,,,,,,,,,,,,,,,,,,,,,,,,,,,,,,,,,,,,,,,,,,,,,,,,,,,,,,,,,,,,,,,,,,,,,,,,,,,,,,,,,,,,,,,,,,,,,,,,,,,,,,,,,,
,,,,,,,,,,stimuli/images/PICTURE_348.png,DUDE,5ea166af93435d0008a8a341,21/08/1953,2020-09-10_14h14.51.894,proactive3.1,2020.1.2,Win32,60,5f599a131af4471f3d752b7b,5f5a26a4def27f07c2332f7e,5,,,,,,pepper,,,,,,0,57,57,59,1,6,2,,,,,,,,,,,,,,,,,,,,,,,,,,,,,,,,,,,,,,,,,,,,,,,,,,,,,,,,,,,,,,,,,,,,,,,,,,,,,,,,,,,,,,,,,,,,,,,,,,,,,,,,,,,,,
,,,,,,,,,,stimuli/images/PICTURE_452.png,COPS,5ea166af93435d0008a8a341,21/08/1953,2020-09-10_14h14.51.894,proactive3.1,2020.1.2,Win32,60,5f599a131af4471f3d752b7b,5f5a26a4def27f07c2332f7e,5,,,,,,watch,,,,,,0,58,58,0,1,1,2,,,,,,,,,,,,,,,,,,,,,,,,,,,,,,,,,,,,,,,,,,,,,,,,,,,,,,,,,,,,,,,,,,,,,,,,,,,,,,,,,,,,,,,,,,,,,,,,,,,,,,,,,,,,,
,,?,5.56208,0,,,,,,stimuli/images/PICTURE_470.png,MOMENT,5ea166af93435d0008a8a341,21/08/1953,2020-09-10_14h14.51.894,proactive3.1,2020.1.2,Win32,60,5f599a131af4471f3d752b7b,5f5a26a4def27f07c2332f7e,5,,,,,,motorbike,,,,,,,,,,,5,2,0,0,0,40,1,,,,,,,,,,,,,,,,,,,,,,,,,,,,,,,,,,,,,,,,,,,,,,,,,,,,,,,,,,,,,,,,,,,,,,,,,,,,,,,,,,,,,,,,,,,,,,,,,,,,,,,,
,,?,0.00125,0,,,,,,stimuli/images/PICTURE_348.png,DUDE,5ea166af93435d0008a8a341,21/08/1953,2020-09-10_14h14.51.894,proactive3.1,2020.1.2,Win32,60,5f599a131af4471f3d752b7b,5f5a26a4def27f07c2332f7e,5,,,,,,pepper,,,,,,,,,,,6,2,0,1,1,59,1,,,,,,,,,,,,,,,,,,,,,,,,,,,,,,,,,,,,,,,,,,,,,,,,,,,,,,,,,,,,,,,,,,,,,,,,,,,,,,,,,,,,,,,,,,,,,,,,,,,,,,,,
,,?,6.73273,0,,,,,,stimuli/images/PICTURE_356.png,CANDY,5ea166af93435d0008a8a341,21/08/1953,2020-09-10_14h14.51.894,proactive3.1,2020.1.2,Win32,60,5f599a131af4471f3d752b7b,5f5a26a4def27f07c2332f7e,5,,,,,,pawn,,,,,,,,,,,5,2,0,2,2,46,1,,,,,,,,,,,,,,,,,,,,,,,,,,,,,,,,,,,,,,,,,,,,,,,,,,,,,,,,,,,,,,,,,,,,,,,,,,,,,,,,,,,,,,,,,,,,,,,,,,,,,,,,
,,?,5.902035,0,,,,,,stimuli/images/PICTURE_654.png,YEAR,5ea166af93435d0008a8a341,21/08/1953,2020-09-10_14h14.51.894,proactive3.1,2020.1.2,Win32,60,5f599a131af4471f3d752b7b,5f5a26a4def27f07c2332f7e,5,,,,,,pencil,,,,,,,,,,,5,2,0,3,3,41,1,,,,,,,,,,,,,,,,,,,,,,,,,,,,,,,,,,,,,,,,,,,,,,,,,,,,,,,,,,,,,,,,,,,,,,,,,,,,,,,,,,,,,,,,,,,,,,,,,,,,,,,,
,,?,0.0012,0,,,,,,stimuli/images/PICTURE_93.png,GIRL,5ea166af93435d0008a8a341,21/08/1953,2020-09-10_14h14.51.894,proactive3.1,2020.1.2,Win32,60,5f599a131af4471f3d752b7b,5f5a26a4def27f07c2332f7e,5,,,,,,skateboard,,,,,,,,,,,4,2,0,4,4,31,1,,,,,,,,,,,,,,,,,,,,,,,,,,,,,,,,,,,,,,,,,,,,,,,,,,,,,,,,,,,,,,,,,,,,,,,,,,,,,,,,,,,,,,,,,,,,,,,,,,,,,,,,
,,?,0.00078,0,,,,,,stimuli/images/PICTURE_311.png,FLESH,5ea166af93435d0008a8a341,21/08/1953,2020-09-10_14h14.51.894,proactive3.1,2020.1.2,Win32,60,5f599a131af4471f3d752b7b,5f5a26a4def27f07c2332f7e,5,,,,,,razor,,,,,,,,,,,1,2,0,5,5,3,1,,,,,,,,,,,,,,,,,,,,,,,,,,,,,,,,,,,,,,,,,,,,,,,,,,,,,,,,,,,,,,,,,,,,,,,,,,,,,,,,,,,,,,,,,,,,,,,,,,,,,,,,
,,?,0.000685,0,,,,,,stimuli/images/PICTURE_215.png,BOYS,5ea166af93435d0008a8a341,21/08/1953,2020-09-10_14h14.51.894,proactive3.1,2020.1.2,Win32,60,5f599a131af4471f3d752b7b,5f5a26a4def27f07c2332f7e,5,,,,,,boot,,,,,,,,,,,3,2,0,6,6,24,1,,,,,,,,,,,,,,,,,,,,,,,,,,,,,,,,,,,,,,,,,,,,,,,,,,,,,,,,,,,,,,,,,,,,,,,,,,,,,,,,,,,,,,,,,,,,,,,,,,,,,,,,
,,?,0.00184,0,,,,,,stimuli/images/PICTURE_509.png,BATH,5ea166af93435d0008a8a341,21/08/1953,2020-09-10_14h14.51.894,proactive3.1,2020.1.2,Win32,60,5f599a131af4471f3d752b7b,5f5a26a4def27f07c2332f7e,5,,,,,,telephone,,,,,,,,,,,2,2,0,7,7,15,1,,,,,,,,,,,,,,,,,,,,,,,,,,,,,,,,,,,,,,,,,,,,,,,,,,,,,,,,,,,,,,,,,,,,,,,,,,,,,,,,,,,,,,,,,,,,,,,,,,,,,,,,
,,?,6.69393,0,,,,,,stimuli/images/PICTURE_708.png,VALLEY,5ea166af93435d0008a8a341,21/08/1953,2020-09-10_14h14.51.894,proactive3.1,2020.1.2,Win32,60,5f599a131af4471f3d752b7b,5f5a26a4def27f07c2332f7e,5,,,,,,monkey,,,,,,,,,,,5,2,0,8,8,45,1,,,,,,,,,,,,,,,,,,,,,,,,,,,,,,,,,,,,,,,,,,,,,,,,,,,,,,,,,,,,,,,,,,,,,,,,,,,,,,,,,,,,,,,,,,,,,,,,,,,,,,,,
,,?,0.00126,0,,,,,,stimuli/images/PICTURE_403.png,FAMILY,5ea166af93435d0008a8a341,21/08/1953,2020-09-10_14h14.51.894,proactive3.1,2020.1.2,Win32,60,5f599a131af4471f3d752b7b,5f5a26a4def27f07c2332f7e,5,,,,,,cathedral,,,,,,,,,,,1,2,0,9,9,9,1,,,,,,,,,,,,,,,,,,,,,,,,,,,,,,,,,,,,,,,,,,,,,,,,,,,,,,,,,,,,,,,,,,,,,,,,,,,,,,,,,,,,,,,,,,,,,,,,,,,,,,,,
,,?,0.000685,0,,,,,,stimuli/images/PICTURE_177.png,HOUSE,5ea166af93435d0008a8a341,21/08/1953,2020-09-10_14h14.51.894,proactive3.1,2020.1.2,Win32,60,5f599a131af4471f3d752b7b,5f5a26a4def27f07c2332f7e,5,,,,,,mushroom,,,,,,,,,,,3,2,0,10,10,25,1,,,,,,,,,,,,,,,,,,,,,,,,,,,,,,,,,,,,,,,,,,,,,,,,,,,,,,,,,,,,,,,,,,,,,,,,,,,,,,,,,,,,,,,,,,,,,,,,,,,,,,,,
,,?,0.000395,0,,,,,,stimuli/images/PICTURE_57.png,CANDY,5ea166af93435d0008a8a341,21/08/1953,2020-09-10_14h14.51.894,proactive3.1,2020.1.2,Win32,60,5f599a131af4471f3d752b7b,5f5a26a4def27f07c2332f7e,5,,,,,,stamp,,,,,,,,,,,6,2,0,11,11,52,1,,,,,,,,,,,,,,,,,,,,,,,,,,,,,,,,,,,,,,,,,,,,,,,,,,,,,,,,,,,,,,,,,,,,,,,,,,,,,,,,,,,,,,,,,,,,,,,,,,,,,,,,
,,?,0.000435,0,,,,,,stimuli/images/PICTURE_57.png,NATION,5ea166af93435d0008a8a341,21/08/1953,2020-09-10_14h14.51.894,proactive3.1,2020.1.2,Win32,60,5f599a131af4471f3d752b7b,5f5a26a4def27f07c2332f7e,5,,,,,,stamp,,,,,,,,,,,3,2,0,12,12,21,1,,,,,,,,,,,,,,,,,,,,,,,,,,,,,,,,,,,,,,,,,,,,,,,,,,,,,,,,,,,,,,,,,,,,,,,,,,,,,,,,,,,,,,,,,,,,,,,,,,,,,,,,
,,?,0.00038,0,,,,,,stimuli/images/PICTURE_311.png,TOILET,5ea166af93435d0008a8a341,21/08/1953,2020-09-10_14h14.51.894,proactive3.1,2020.1.2,Win32,60,5f599a131af4471f3d752b7b,5f5a26a4def27f07c2332f7e,5,,,,,,razor,,,,,,,,,,,6,2,0,13,13,54,1,,,,,,,,,,,,,,,,,,,,,,,,,,,,,,,,,,,,,,,,,,,,,,,,,,,,,,,,,,,,,,,,,,,,,,,,,,,,,,,,,,,,,,,,,,,,,,,,,,,,,,,,
,,?,0.000415,0,,,,,,stimuli/images/PICTURE_504.png,HOUSE,5ea166af93435d0008a8a341,21/08/1953,2020-09-10_14h14.51.894,proactive3.1,2020.1.2,Win32,60,5f599a131af4471f3d752b7b,5f5a26a4def27f07c2332f7e,5,,,,,,wheel,,,,,,,,,,,4,2,0,14,14,36,1,,,,,,,,,,,,,,,,,,,,,,,,,,,,,,,,,,,,,,,,,,,,,,,,,,,,,,,,,,,,,,,,,,,,,,,,,,,,,,,,,,,,,,,,,,,,,,,,,,,,,,,,
,,?,0.00042,0,,,,,,stimuli/images/PICTURE_405.png,JUNGLE,5ea166af93435d0008a8a341,21/08/1953,2020-09-10_14h14.51.894,proactive3.1,2020.1.2,Win32,60,5f599a131af4471f3d752b7b,5f5a26a4def27f07c2332f7e,5,,,,,,anchor,,,,,,,,,,,6,2,0,15,15,58,1,,,,,,,,,,,,,,,,,,,,,,,,,,,,,,,,,,,,,,,,,,,,,,,,,,,,,,,,,,,,,,,,,,,,,,,,,,,,,,,,,,,,,,,,,,,,,,,,,,,,,,,,
,,?,8.99378,0,,,,,,stimuli/images/PICTURE_215.png,LEADER,5ea166af93435d0008a8a341,21/08/1953,2020-09-10_14h14.51.894,proactive3.1,2020.1.2,Win32,60,5f599a131af4471f3d752b7b,5f5a26a4def27f07c2332f7e,5,,,,,,boot,,,,,,,,,,,5,2,0,16,16,43,1,,,,,,,,,,,,,,,,,,,,,,,,,,,,,,,,,,,,,,,,,,,,,,,,,,,,,,,,,,,,,,,,,,,,,,,,,,,,,,,,,,,,,,,,,,,,,,,,,,,,,,,,
,,HOME,9.93516,0,,,,,,stimuli/images/PICTURE_509.png,MILLER,5ea166af93435d0008a8a341,21/08/1953,2020-09-10_14h14.51.894,proactive3.1,2020.1.2,Win32,60,5f599a131af4471f3d752b7b,5f5a26a4def27f07c2332f7e,5,,,,,,telephone,,,,,,,,,,,5,2,0,17,17,49,1,,,,,,,,,,,,,,,,,,,,,,,,,,,,,,,,,,,,,,,,,,,,,,,,,,,,,,,,,,,,,,,,,,,,,,,,,,,,,,,,,,,,,,,,,,,,,,,,,,,,,,,,
,,?,0.00099,0,,,,,,stimuli/images/PICTURE_215.png,FOOD,5ea166af93435d0008a8a341,21/08/1953,2020-09-10_14h14.51.894,proactive3.1,2020.1.2,Win32,60,5f599a131af4471f3d752b7b,5f5a26a4def27f07c2332f7e,5,,,,,,boot,,,,,,,,,,,1,2,0,18,18,5,1,,,,,,,,,,,,,,,,,,,,,,,,,,,,,,,,,,,,,,,,,,,,,,,,,,,,,,,,,,,,,,,,,,,,,,,,,,,,,,,,,,,,,,,,,,,,,,,,,,,,,,,,
,,?,0.00197,0,,,,,,stimuli/images/PICTURE_654.png,COPS,5ea166af93435d0008a8a341,21/08/1953,2020-09-10_14h14.51.894,proactive3.1,2020.1.2,Win32,60,5f599a131af4471f3d752b7b,5f5a26a4def27f07c2332f7e,5,,,,,,pencil,,,,,,,,,,,2,2,0,19,19,10,1,,,,,,,,,,,,,,,,,,,,,,,,,,,,,,,,,,,,,,,,,,,,,,,,,,,,,,,,,,,,,,,,,,,,,,,,,,,,,,,,,,,,,,,,,,,,,,,,,,,,,,,,
,,?,0.000375,0,,,,,,stimuli/images/PICTURE_509.png,SHOTS,5ea166af93435d0008a8a341,21/08/1953,2020-09-10_14h14.51.894,proactive3.1,2020.1.2,Win32,60,5f599a131af4471f3d752b7b,5f5a26a4def27f07c2332f7e,5,,,,,,telephone,,,,,,,,,,,1,2,0,20,20,7,1,,,,,,,,,,,,,,,,,,,,,,,,,,,,,,,,,,,,,,,,,,,,,,,,,,,,,,,,,,,,,,,,,,,,,,,,,,,,,,,,,,,,,,,,,,,,,,,,,,,,,,,,
,,?,0.00036,0,,,,,,stimuli/images/PICTURE_147.png,LEADER,5ea166af93435d0008a8a341,21/08/1953,2020-09-10_14h14.51.894,proactive3.1,2020.1.2,Win32,60,5f599a131af4471f3d752b7b,5f5a26a4def27f07c2332f7e,5,,,,,,hanger,,,,,,,,,,,4,2,0,21,21,33,1,,,,,,,,,,,,,,,,,,,,,,,,,,,,,,,,,,,,,,,,,,,,,,,,,,,,,,,,,,,,,,,,,,,,,,,,,,,,,,,,,,,,,,,,,,,,,,,,,,,,,,,,
,,?,0.00039,0,,,,,,stimuli/images/PICTURE_655.png,SALE,5ea166af93435d0008a8a341,21/08/1953,2020-09-10_14h14.51.894,proactive3.1,2020.1.2,Win32,60,5f599a131af4471f3d752b7b,5f5a26a4def27f07c2332f7e,5,,,,,,megaphone,,,,,,,,,,,6,2,0,22,22,57,1,,,,,,,,,,,,,,,,,,,,,,,,,,,,,,,,,,,,,,,,,,,,,,,,,,,,,,,,,,,,,,,,,,,,,,,,,,,,,,,,,,,,,,,,,,,,,,,,,,,,,,,,
,,?,0.000355,0,,,,,,stimuli/images/PICTURE_95.png,NIGHT,5ea166af93435d0008a8a341,21/08/1953,2020-09-10_14h14.51.894,proactive3.1,2020.1.2,Win32,60,5f599a131af4471f3d752b7b,5f5a26a4def27f07c2332f7e,5,,,,,,suitcase,,,,,,,,,,,4,2,0,23,23,37,1,,,,,,,,,,,,,,,,,,,,,,,,,,,,,,,,,,,,,,,,,,,,,,,,,,,,,,,,,,,,,,,,,,,,,,,,,,,,,,,,,,,,,,,,,,,,,,,,,,,,,,,,
,,?,0.000355,0,,,,,,stimuli/images/PICTURE_491.png,SERIES,5ea166af93435d0008a8a341,21/08/1953,2020-09-10_14h14.51.894,proactive3.1,2020.1.2,Win32,60,5f599a131af4471f3d752b7b,5f5a26a4def27f07c2332f7e,5,,,,,,rug,,,,,,,,,,,4,2,0,24,24,39,1,,,,,,,,,,,,,,,,,,,,,,,,,,,,,,,,,,,,,,,,,,,,,,,,,,,,,,,,,,,,,,,,,,,,,,,,,,,,,,,,,,,,,,,,,,,,,,,,,,,,,,,,
,,?,0.00032,0,,,,,,stimuli/images/PICTURE_208.png,SPIRIT,5ea166af93435d0008a8a341,21/08/1953,2020-09-10_14h14.51.894,proactive3.1,2020.1.2,Win32,60,5f599a131af4471f3d752b7b,5f5a26a4def27f07c2332f7e,5,,,,,,microphone,,,,,,,,,,,3,2,0,25,25,28,1,,,,,,,,,,,,,,,,,,,,,,,,,,,,,,,,,,,,,,,,,,,,,,,,,,,,,,,,,,,,,,,,,,,,,,,,,,,,,,,,,,,,,,,,,,,,,,,,,,,,,,,,
,,?,0.000615,0,,,,,,stimuli/images/PICTURE_18.png,RIVER,5ea166af93435d0008a8a341,21/08/1953,2020-09-10_14h14.51.894,proactive3.1,2020.1.2,Win32,60,5f599a131af4471f3d752b7b,5f5a26a4def27f07c2332f7e,5,,,,,,planet,,,,,,,,,,,3,2,0,26,26,22,1,,,,,,,,,,,,,,,,,,,,,,,,,,,,,,,,,,,,,,,,,,,,,,,,,,,,,,,,,,,,,,,,,,,,,,,,,,,,,,,,,,,,,,,,,,,,,,,,,,,,,,,,
,,?,3.85595,0,,,,,,stimuli/images/PICTURE_750.png,POLICY,5ea166af93435d0008a8a341,21/08/1953,2020-09-10_14h14.51.894,proactive3.1,2020.1.2,Win32,60,5f599a131af4471f3d752b7b,5f5a26a4def27f07c2332f7e,5,,,,,,kettle,,,,,,,,,,,5,2,0,27,27,44,1,,,,,,,,,,,,,,,,,,,,,,,,,,,,,,,,,,,,,,,,,,,,,,,,,,,,,,,,,,,,,,,,,,,,,,,,,,,,,,,,,,,,,,,,,,,,,,,,,,,,,,,,
,,?,0.000585,0,,,,,,stimuli/images/PICTURE_2.png,AREA,5ea166af93435d0008a8a341,21/08/1953,2020-09-10_14h14.51.894,proactive3.1,2020.1.2,Win32,60,5f599a131af4471f3d752b7b,5f5a26a4def27f07c2332f7e,5,,,,,,tyre,,,,,,,,,,,4,2,0,28,28,32,1,,,,,,,,,,,,,,,,,,,,,,,,,,,,,,,,,,,,,,,,,,,,,,,,,,,,,,,,,,,,,,,,,,,,,,,,,,,,,,,,,,,,,,,,,,,,,,,,,,,,,,,,
,,FAMILY,4.13314,1,,,,,,stimuli/images/PICTURE_453.png,FAMILY,5ea166af93435d0008a8a341,21/08/1953,2020-09-10_14h14.51.894,proactive3.1,2020.1.2,Win32,60,5f599a131af4471f3d752b7b,5f5a26a4def27f07c2332f7e,5,,,,,,scissors,,,,,,,,,,,5,2,0,29,29,48,1,,,,,,,,,,,,,,,,,,,,,,,,,,,,,,,,,,,,,,,,,,,,,,,,,,,,,,,,,,,,,,,,,,,,,,,,,,,,,,,,,,,,,,,,,,,,,,,,,,,,,,,,
,,?,0.001095,0,,,,,,stimuli/images/PICTURE_405.png,HOUSE,5ea166af93435d0008a8a341,21/08/1953,2020-09-10_14h14.51.894,proactive3.1,2020.1.2,Win32,60,5f599a131af4471f3d752b7b,5f5a26a4def27f07c2332f7e,5,,,,,,anchor,,,,,,,,,,,1,2,0,30,30,2,1,,,,,,,,,,,,,,,,,,,,,,,,,,,,,,,,,,,,,,,,,,,,,,,,,,,,,,,,,,,,,,,,,,,,,,,,,,,,,,,,,,,,,,,,,,,,,,,,,,,,,,,,
,,?,0.000675,0,,,,,,stimuli/images/PICTURE_487.png,ROOF,5ea166af93435d0008a8a341,21/08/1953,2020-09-10_14h14.51.894,proactive3.1,2020.1.2,Win32,60,5f599a131af4471f3d752b7b,5f5a26a4def27f07c2332f7e,5,,,,,,basket,,,,,,,,,,,6,2,0,31,31,50,1,,,,,,,,,,,,,,,,,,,,,,,,,,,,,,,,,,,,,,,,,,,,,,,,,,,,,,,,,,,,,,,,,,,,,,,,,,,,,,,,,,,,,,,,,,,,,,,,,,,,,,,,
,,BOOT,10.16387,0,,,,,,stimuli/images/PICTURE_688.png,CLOCK,5ea166af93435d0008a8a341,21/08/1953,2020-09-10_14h14.51.894,proactive3.1,2020.1.2,Win32,60,5f599a131af4471f3d752b7b,5f5a26a4def27f07c2332f7e,5,,,,,,runner,,,,,,,,,,,5,2,0,32,32,42,1,,,,,,,,,,,,,,,,,,,,,,,,,,,,,,,,,,,,,,,,,,,,,,,,,,,,,,,,,,,,,,,,,,,,,,,,,,,,,,,,,,,,,,,,,,,,,,,,,,,,,,,,
,,?,0.001225,0,,,,,,stimuli/images/PICTURE_564.png,PLENTY,5ea166af93435d0008a8a341,21/08/1953,2020-09-10_14h14.51.894,proactive3.1,2020.1.2,Win32,60,5f599a131af4471f3d752b7b,5f5a26a4def27f07c2332f7e,5,,,,,,spoon,,,,,,,,,,,2,2,0,33,33,11,1,,,,,,,,,,,,,,,,,,,,,,,,,,,,,,,,,,,,,,,,,,,,,,,,,,,,,,,,,,,,,,,,,,,,,,,,,,,,,,,,,,,,,,,,,,,,,,,,,,,,,,,,
,,?,0.000735,0,,,,,,stimuli/images/PICTURE_32.png,LETTER,5ea166af93435d0008a8a341,21/08/1953,2020-09-10_14h14.51.894,proactive3.1,2020.1.2,Win32,60,5f599a131af4471f3d752b7b,5f5a26a4def27f07c2332f7e,5,,,,,,crown,,,,,,,,,,,6,2,0,34,34,56,1,,,,,,,,,,,,,,,,,,,,,,,,,,,,,,,,,,,,,,,,,,,,,,,,,,,,,,,,,,,,,,,,,,,,,,,,,,,,,,,,,,,,,,,,,,,,,,,,,,,,,,,,
,,?,0.000535,0,,,,,,stimuli/images/PICTURE_509.png,APPLE,5ea166af93435d0008a8a341,21/08/1953,2020-09-10_14h14.51.894,proactive3.1,2020.1.2,Win32,60,5f599a131af4471f3d752b7b,5f5a26a4def27f07c2332f7e,5,,,,,,telephone,,,,,,,,,,,4,2,0,35,35,38,1,,,,,,,,,,,,,,,,,,,,,,,,,,,,,,,,,,,,,,,,,,,,,,,,,,,,,,,,,,,,,,,,,,,,,,,,,,,,,,,,,,,,,,,,,,,,,,,,,,,,,,,,
,,?,0.00037,0,,,,,,stimuli/images/PICTURE_470.png,BEAUTY,5ea166af93435d0008a8a341,21/08/1953,2020-09-10_14h14.51.894,proactive3.1,2020.1.2,Win32,60,5f599a131af4471f3d752b7b,5f5a26a4def27f07c2332f7e,5,,,,,,motorbike,,,,,,,,,,,3,2,0,36,36,26,1,,,,,,,,,,,,,,,,,,,,,,,,,,,,,,,,,,,,,,,,,,,,,,,,,,,,,,,,,,,,,,,,,,,,,,,,,,,,,,,,,,,,,,,,,,,,,,,,,,,,,,,,
,,?,0.000945,0,,,,,,stimuli/images/PICTURE_667.png,GLASS,5ea166af93435d0008a8a341,21/08/1953,2020-09-10_14h14.51.894,proactive3.1,2020.1.2,Win32,60,5f599a131af4471f3d752b7b,5f5a26a4def27f07c2332f7e,5,,,,,,daisy,,,,,,,,,,,3,2,0,37,37,27,1,,,,,,,,,,,,,,,,,,,,,,,,,,,,,,,,,,,,,,,,,,,,,,,,,,,,,,,,,,,,,,,,,,,,,,,,,,,,,,,,,,,,,,,,,,,,,,,,,,,,,,,,
,,?,0.00032,0,,,,,,stimuli/images/PICTURE_677.png,PHOTO,5ea166af93435d0008a8a341,21/08/1953,2020-09-10_14h14.51.894,proactive3.1,2020.1.2,Win32,60,5f599a131af4471f3d752b7b,5f5a26a4def27f07c2332f7e,5,,,,,,map,,,,,,,,,,,2,2,0,38,38,14,1,,,,,,,,,,,,,,,,,,,,,,,,,,,,,,,,,,,,,,,,,,,,,,,,,,,,,,,,,,,,,,,,,,,,,,,,,,,,,,,,,,,,,,,,,,,,,,,,,,,,,,,,
,,?,0.00048,0,,,,,,stimuli/images/PICTURE_487.png,POLICY,5ea166af93435d0008a8a341,21/08/1953,2020-09-10_14h14.51.894,proactive3.1,2020.1.2,Win32,60,5f599a131af4471f3d752b7b,5f5a26a4def27f07c2332f7e,5,,,,,,basket,,,,,,,,,,,4,2,0,39,39,34,1,,,,,,,,,,,,,,,,,,,,,,,,,,,,,,,,,,,,,,,,,,,,,,,,,,,,,,,,,,,,,,,,,,,,,,,,,,,,,,,,,,,,,,,,,,,,,,,,,,,,,,,,
,,DUDE,7.689625,1,,,,,,stimuli/images/PICTURE_692.png,DUDE,5ea166af93435d0008a8a341,21/08/1953,2020-09-10_14h14.51.894,proactive3.1,2020.1.2,Win32,60,5f599a131af4471f3d752b7b,5f5a26a4def27f07c2332f7e,5,,,,,,cherry,,,,,,,,,,,5,2,0,40,40,47,1,,,,,,,,,,,,,,,,,,,,,,,,,,,,,,,,,,,,,,,,,,,,,,,,,,,,,,,,,,,,,,,,,,,,,,,,,,,,,,,,,,,,,,,,,,,,,,,,,,,,,,,,
,,?,0.001075,0,,,,,,stimuli/images/PICTURE_405.png,JUNGLE,5ea166af93435d0008a8a341,21/08/1953,2020-09-10_14h14.51.894,proactive3.1,2020.1.2,Win32,60,5f599a131af4471f3d752b7b,5f5a26a4def27f07c2332f7e,5,,,,,,anchor,,,,,,,,,,,2,2,0,41,41,13,1,,,,,,,,,,,,,,,,,,,,,,,,,,,,,,,,,,,,,,,,,,,,,,,,,,,,,,,,,,,,,,,,,,,,,,,,,,,,,,,,,,,,,,,,,,,,,,,,,,,,,,,,
,,?,0.000745,0,,,,,,stimuli/images/PICTURE_285.png,PRINCE,5ea166af93435d0008a8a341,21/08/1953,2020-09-10_14h14.51.894,proactive3.1,2020.1.2,Win32,60,5f599a131af4471f3d752b7b,5f5a26a4def27f07c2332f7e,5,,,,,,carrot,,,,,,,,,,,3,2,0,42,42,20,1,,,,,,,,,,,,,,,,,,,,,,,,,,,,,,,,,,,,,,,,,,,,,,,,,,,,,,,,,,,,,,,,,,,,,,,,,,,,,,,,,,,,,,,,,,,,,,,,,,,,,,,,
,,?,0.00071,0,,,,,,stimuli/images/PICTURE_160.png,HOTEL,5ea166af93435d0008a8a341,21/08/1953,2020-09-10_14h14.51.894,proactive3.1,2020.1.2,Win32,60,5f599a131af4471f3d752b7b,5f5a26a4def27f07c2332f7e,5,,,,,,wheelbarrow,,,,,,,,,,,2,2,0,43,43,16,1,,,,,,,,,,,,,,,,,,,,,,,,,,,,,,,,,,,,,,,,,,,,,,,,,,,,,,,,,,,,,,,,,,,,,,,,,,,,,,,,,,,,,,,,,,,,,,,,,,,,,,,,
,,?,0.00045,0,,,,,,stimuli/images/PICTURE_677.png,FAMILY,5ea166af93435d0008a8a341,21/08/1953,2020-09-10_14h14.51.894,proactive3.1,2020.1.2,Win32,60,5f599a131af4471f3d752b7b,5f5a26a4def27f07c2332f7e,5,,,,,,map,,,,,,,,,,,6,2,0,44,44,53,1,,,,,,,,,,,,,,,,,,,,,,,,,,,,,,,,,,,,,,,,,,,,,,,,,,,,,,,,,,,,,,,,,,,,,,,,,,,,,,,,,,,,,,,,,,,,,,,,,,,,,,,,
,,?,0.000475,0,,,,,,stimuli/images/PICTURE_141.png,CLIENT,5ea166af93435d0008a8a341,21/08/1953,2020-09-10_14h14.51.894,proactive3.1,2020.1.2,Win32,60,5f599a131af4471f3d752b7b,5f5a26a4def27f07c2332f7e,5,,,,,,sunflower,,,,,,,,,,,4,2,0,45,45,30,1,,,,,,,,,,,,,,,,,,,,,,,,,,,,,,,,,,,,,,,,,,,,,,,,,,,,,,,,,,,,,,,,,,,,,,,,,,,,,,,,,,,,,,,,,,,,,,,,,,,,,,,,
,,?,0.00028,0,,,,,,stimuli/images/PICTURE_68.png,KIND,5ea166af93435d0008a8a341,21/08/1953,2020-09-10_14h14.51.894,proactive3.1,2020.1.2,Win32,60,5f599a131af4471f3d752b7b,5f5a26a4def27f07c2332f7e,5,,,,,,candle,,,,,,,,,,,3,2,0,46,46,23,1,,,,,,,,,,,,,,,,,,,,,,,,,,,,,,,,,,,,,,,,,,,,,,,,,,,,,,,,,,,,,,,,,,,,,,,,,,,,,,,,,,,,,,,,,,,,,,,,,,,,,,,,
,,?,0.00023,0,,,,,,stimuli/images/PICTURE_2.png,YARD,5ea166af93435d0008a8a341,21/08/1953,2020-09-10_14h14.51.894,proactive3.1,2020.1.2,Win32,60,5f599a131af4471f3d752b7b,5f5a26a4def27f07c2332f7e,5,,,,,,tyre,,,,,,,,,,,6,2,0,47,47,55,1,,,,,,,,,,,,,,,,,,,,,,,,,,,,,,,,,,,,,,,,,,,,,,,,,,,,,,,,,,,,,,,,,,,,,,,,,,,,,,,,,,,,,,,,,,,,,,,,,,,,,,,,
,,?,0.000325,0,,,,,,stimuli/images/PICTURE_285.png,WRITER,5ea166af93435d0008a8a341,21/08/1953,2020-09-10_14h14.51.894,proactive3.1,2020.1.2,Win32,60,5f599a131af4471f3d752b7b,5f5a26a4def27f07c2332f7e,5,,,,,,carrot,,,,,,,,,,,1,2,0,48,48,6,1,,,,,,,,,,,,,,,,,,,,,,,,,,,,,,,,,,,,,,,,,,,,,,,,,,,,,,,,,,,,,,,,,,,,,,,,,,,,,,,,,,,,,,,,,,,,,,,,,,,,,,,,
,,?,0.000255,0,,,,,,stimuli/images/PICTURE_297.png,BODY,5ea166af93435d0008a8a341,21/08/1953,2020-09-10_14h14.51.894,proactive3.1,2020.1.2,Win32,60,5f599a131af4471f3d752b7b,5f5a26a4def27f07c2332f7e,5,,,,,,aeroplane,,,,,,,,,,,6,2,0,49,49,51,1,,,,,,,,,,,,,,,,,,,,,,,,,,,,,,,,,,,,,,,,,,,,,,,,,,,,,,,,,,,,,,,,,,,,,,,,,,,,,,,,,,,,,,,,,,,,,,,,,,,,,,,,
,,?,0.0003,0,,,,,,stimuli/images/PICTURE_452.png,COPS,5ea166af93435d0008a8a341,21/08/1953,2020-09-10_14h14.51.894,proactive3.1,2020.1.2,Win32,60,5f599a131af4471f3d752b7b,5f5a26a4def27f07c2332f7e,5,,,,,,watch,,,,,,,,,,,1,2,0,50,50,0,1,,,,,,,,,,,,,,,,,,,,,,,,,,,,,,,,,,,,,,,,,,,,,,,,,,,,,,,,,,,,,,,,,,,,,,,,,,,,,,,,,,,,,,,,,,,,,,,,,,,,,,,,
,,?,0.00305,0,,,,,,stimuli/images/PICTURE_33.png,COPS,5ea166af93435d0008a8a341,21/08/1953,2020-09-10_14h14.51.894,proactive3.1,2020.1.2,Win32,60,5f599a131af4471f3d752b7b,5f5a26a4def27f07c2332f7e,5,,,,,,frame,,,,,,,,,,,3,2,0,51,51,29,1,,,,,,,,,,,,,,,,,,,,,,,,,,,,,,,,,,,,,,,,,,,,,,,,,,,,,,,,,,,,,,,,,,,,,,,,,,,,,,,,,,,,,,,,,,,,,,,,,,,,,,,,
,,?,0.00038,0,,,,,,stimuli/images/PICTURE_123.png,SALE,5ea166af93435d0008a8a341,21/08/1953,2020-09-10_14h14.51.894,proactive3.1,2020.1.2,Win32,60,5f599a131af4471f3d752b7b,5f5a26a4def27f07c2332f7e,5,,,,,,dart,,,,,,,,,,,1,2,0,52,52,8,1,,,,,,,,,,,,,,,,,,,,,,,,,,,,,,,,,,,,,,,,,,,,,,,,,,,,,,,,,,,,,,,,,,,,,,,,,,,,,,,,,,,,,,,,,,,,,,,,,,,,,,,,
,,?,0.00037,0,,,,,,stimuli/images/PICTURE_314.png,SPEECH,5ea166af93435d0008a8a341,21/08/1953,2020-09-10_14h14.51.894,proactive3.1,2020.1.2,Win32,60,5f599a131af4471f3d752b7b,5f5a26a4def27f07c2332f7e,5,,,,,,perfume,,,,,,,,,,,4,2,0,53,53,35,1,,,,,,,,,,,,,,,,,,,,,,,,,,,,,,,,,,,,,,,,,,,,,,,,,,,,,,,,,,,,,,,,,,,,,,,,,,,,,,,,,,,,,,,,,,,,,,,,,,,,,,,,
,,?,0.000505,0,,,,,,stimuli/images/PICTURE_296.png,CLOCK,5ea166af93435d0008a8a341,21/08/1953,2020-09-10_14h14.51.894,proactive3.1,2020.1.2,Win32,60,5f599a131af4471f3d752b7b,5f5a26a4def27f07c2332f7e,5,,,,,,bolt,,,,,,,,,,,2,2,0,54,54,18,1,,,,,,,,,,,,,,,,,,,,,,,,,,,,,,,,,,,,,,,,,,,,,,,,,,,,,,,,,,,,,,,,,,,,,,,,,,,,,,,,,,,,,,,,,,,,,,,,,,,,,,,,
,,?,0.00029,0,,,,,,stimuli/images/PICTURE_57.png,CASINO,5ea166af93435d0008a8a341,21/08/1953,2020-09-10_14h14.51.894,proactive3.1,2020.1.2,Win32,60,5f599a131af4471f3d752b7b,5f5a26a4def27f07c2332f7e,5,,,,,,stamp,,,,,,,,,,,2,2,0,55,55,12,1,,,,,,,,,,,,,,,,,,,,,,,,,,,,,,,,,,,,,,,,,,,,,,,,,,,,,,,,,,,,,,,,,,,,,,,,,,,,,,,,,,,,,,,,,,,,,,,,,,,,,,,,
,,?,0.00029,0,,,,,,stimuli/images/PICTURE_255.png,PENNY,5ea166af93435d0008a8a341,21/08/1953,2020-09-10_14h14.51.894,proactive3.1,2020.1.2,Win32,60,5f599a131af4471f3d752b7b,5f5a26a4def27f07c2332f7e,5,,,,,,shovel,,,,,,,,,,,2,2,0,56,56,19,1,,,,,,,,,,,,,,,,,,,,,,,,,,,,,,,,,,,,,,,,,,,,,,,,,,,,,,,,,,,,,,,,,,,,,,,,,,,,,,,,,,,,,,,,,,,,,,,,,,,,,,,,
,,?,0.00027,0,,,,,,stimuli/images/PICTURE_348.png,TOILET,5ea166af93435d0008a8a341,21/08/1953,2020-09-10_14h14.51.894,proactive3.1,2020.1.2,Win32,60,5f599a131af4471f3d752b7b,5f5a26a4def27f07c2332f7e,5,,,,,,pepper,,,,,,,,,,,1,2,0,57,57,4,1,,,,,,,,,,,,,,,,,,,,,,,,,,,,,,,,,,,,,,,,,,,,,,,,,,,,,,,,,,,,,,,,,,,,,,,,,,,,,,,,,,,,,,,,,,,,,,,,,,,,,,,,
,,?,0.000405,0,,,,,,stimuli/images/PICTURE_327.png,LEADER,5ea166af93435d0008a8a341,21/08/1953,2020-09-10_14h14.51.894,proactive3.1,2020.1.2,Win32,60,5f599a131af4471f3d752b7b,5f5a26a4def27f07c2332f7e,5,,,,,,helmet,,,,,,,,,,,2,2,0,58,58,17,1,,,,,,,,,,,,,,,,,,,,,,,,,,,,,,,,,,,,,,,,,,,,,,,,,,,,,,,,,,,,,,,,,,,,,,,,,,,,,,,,,,,,,,,,,,,,,,,,,,,,,,,,
,,?,0.00025,0,,,,,,stimuli/images/PICTURE_2.png,JUNGLE,5ea166af93435d0008a8a341,21/08/1953,2020-09-10_14h14.51.894,proactive3.1,2020.1.2,Win32,60,5f599a131af4471f3d752b7b,5f5a26a4def27f07c2332f7e,5,,,,,,tyre,,,,,,,,,,,1,2,0,59,59,1,1,,,,,,,,,,,,,,,,,,,,,,,,,,,,,,,,,,,,,,,,,,,,,,,,,,,,,,,,,,,,,,,,,,,,,,,,,,,,,,,,,,,,,,,,,,,,,,,,,,,,,,,,
,,,,,,,,,,,,5ea166af93435d0008a8a341,21/08/1953,2020-09-10_14h14.51.894,proactive3.1,2020.1.2,Win32,60,5f599a131af4471f3d752b7b,5f5a26a4def27f07c2332f7e,5,,,,,,,,,,,,,,,,,,,,,,,,0,0,0,2,1,stimuli/learn-block3.csv,,,,,,,,,,,,,,,,,,,,,,,,,,,,,,,,,,,,,,,,,,,,,,,,,,,,,,,,,,,,,,,,,,,,,,,,,,,,,,,,,,,,,,,,,,,,,,,,,,
,,,,,,,,,,stimuli/images/PICTURE_340.png,VALLEY,5ea166af93435d0008a8a341,21/08/1953,2020-09-10_14h14.51.894,proactive3.1,2020.1.2,Win32,60,5f599a131af4471f3d752b7b,5f5a26a4def27f07c2332f7e,5,,,,,,mirror,,,,,,0,0,0,54,1,6,1,,,,,,,,,,,,,,,,,,,,,,,,,,,,,,,,,,,,,,,,,,,,,,,,,,,,,,,,,,,,,,,,,,,,,,,,,,,,,,,,,,,,,,,,,,,,,,,,,,,,,,,,,,,,,
,,,,,,,,,,stimuli/images/PICTURE_68.png,ROOF,5ea166af93435d0008a8a341,21/08/1953,2020-09-10_14h14.51.894,proactive3.1,2020.1.2,Win32,60,5f599a131af4471f3d752b7b,5f5a26a4def27f07c2332f7e,5,,,,,,candle,,,,,,0,1,1,38,1,4,1,,,,,,,,,,,,,,,,,,,,,,,,,,,,,,,,,,,,,,,,,,,,,,,,,,,,,,,,,,,,,,,,,,,,,,,,,,,,,,,,,,,,,,,,,,,,,,,,,,,,,,,,,,,,,
,,,,,,,,,,stimuli/images/PICTURE_449.png,DUDE,5ea166af93435d0008a8a341,21/08/1953,2020-09-10_14h14.51.894,proactive3.1,2020.1.2,Win32,60,5f599a131af4471f3d752b7b,5f5a26a4def27f07c2332f7e,5,,,,,,bench,,,,,,0,2,2,17,1,2,1,,,,,,,,,,,,,,,,,,,,,,,,,,,,,,,,,,,,,,,,,,,,,,,,,,,,,,,,,,,,,,,,,,,,,,,,,,,,,,,,,,,,,,,,,,,,,,,,,,,,,,,,,,,,,
,,,,,,,,,,stimuli/images/PICTURE_491.png,GLASS,5ea166af93435d0008a8a341,21/08/1953,2020-09-10_14h14.51.894,proactive3.1,2020.1.2,Win32,60,5f599a131af4471f3d752b7b,5f5a26a4def27f07c2332f7e,5,,,,,,rug,,,,,,0,3,3,14,1,2,1,,,,,,,,,,,,,,,,,,,,,,,,,,,,,,,,,,,,,,,,,,,,,,,,,,,,,,,,,,,,,,,,,,,,,,,,,,,,,,,,,,,,,,,,,,,,,,,,,,,,,,,,,,,,,
,,,,,,,,,,stimuli/images/PICTURE_95.png,HONEY,5ea166af93435d0008a8a341,21/08/1953,2020-09-10_14h14.51.894,proactive3.1,2020.1.2,Win32,60,5f599a131af4471f3d752b7b,5f5a26a4def27f07c2332f7e,5,,,,,,suitcase,,,,,,0,4,4,44,1,5,1,,,,,,,,,,,,,,,,,,,,,,,,,,,,,,,,,,,,,,,,,,,,,,,,,,,,,,,,,,,,,,,,,,,,,,,,,,,,,,,,,,,,,,,,,,,,,,,,,,,,,,,,,,,,,
,,,,,,,,,,stimuli/images/PICTURE_308.png,FAMILY,5ea166af93435d0008a8a341,21/08/1953,2020-09-10_14h14.51.894,proactive3.1,2020.1.2,Win32,60,5f599a131af4471f3d752b7b,5f5a26a4def27f07c2332f7e,5,,,,,,dice,,,,,,0,5,5,36,1,4,1,,,,,,,,,,,,,,,,,,,,,,,,,,,,,,,,,,,,,,,,,,,,,,,,,,,,,,,,,,,,,,,,,,,,,,,,,,,,,,,,,,,,,,,,,,,,,,,,,,,,,,,,,,,,,
,,,,,,,,,,stimuli/images/PICTURE_340.png,LETTER,5ea166af93435d0008a8a341,21/08/1953,2020-09-10_14h14.51.894,proactive3.1,2020.1.2,Win32,60,5f599a131af4471f3d752b7b,5f5a26a4def27f07c2332f7e,5,,,,,,mirror,,,,,,0,6,6,24,1,3,1,,,,,,,,,,,,,,,,,,,,,,,,,,,,,,,,,,,,,,,,,,,,,,,,,,,,,,,,,,,,,,,,,,,,,,,,,,,,,,,,,,,,,,,,,,,,,,,,,,,,,,,,,,,,,
,,,,,,,,,,stimuli/images/PICTURE_677.png,APPLE,5ea166af93435d0008a8a341,21/08/1953,2020-09-10_14h14.51.894,proactive3.1,2020.1.2,Win32,60,5f599a131af4471f3d752b7b,5f5a26a4def27f07c2332f7e,5,,,,,,map,,,,,,0,7,7,43,1,5,1,,,,,,,,,,,,,,,,,,,,,,,,,,,,,,,,,,,,,,,,,,,,,,,,,,,,,,,,,,,,,,,,,,,,,,,,,,,,,,,,,,,,,,,,,,,,,,,,,,,,,,,,,,,,,
,,,,,,,,,,stimuli/images/PICTURE_655.png,TOILET,5ea166af93435d0008a8a341,21/08/1953,2020-09-10_14h14.51.894,proactive3.1,2020.1.2,Win32,60,5f599a131af4471f3d752b7b,5f5a26a4def27f07c2332f7e,5,,,,,,megaphone,,,,,,0,8,8,12,1,2,1,,,,,,,,,,,,,,,,,,,,,,,,,,,,,,,,,,,,,,,,,,,,,,,,,,,,,,,,,,,,,,,,,,,,,,,,,,,,,,,,,,,,,,,,,,,,,,,,,,,,,,,,,,,,,
,,,,,,,,,,stimuli/images/PICTURE_750.png,HOTEL,5ea166af93435d0008a8a341,21/08/1953,2020-09-10_14h14.51.894,proactive3.1,2020.1.2,Win32,60,5f599a131af4471f3d752b7b,5f5a26a4def27f07c2332f7e,5,,,,,,kettle,,,,,,0,9,9,27,1,3,1,,,,,,,,,,,,,,,,,,,,,,,,,,,,,,,,,,,,,,,,,,,,,,,,,,,,,,,,,,,,,,,,,,,,,,,,,,,,,,,,,,,,,,,,,,,,,,,,,,,,,,,,,,,,,
,,,,,,,,,,stimuli/images/PICTURE_33.png,FRIEND,5ea166af93435d0008a8a341,21/08/1953,2020-09-10_14h14.51.894,proactive3.1,2020.1.2,Win32,60,5f599a131af4471f3d752b7b,5f5a26a4def27f07c2332f7e,5,,,,,,frame,,,,,,0,10,10,8,1,1,1,,,,,,,,,,,,,,,,,,,,,,,,,,,,,,,,,,,,,,,,,,,,,,,,,,,,,,,,,,,,,,,,,,,,,,,,,,,,,,,,,,,,,,,,,,,,,,,,,,,,,,,,,,,,,
,,,,,,,,,,stimuli/images/PICTURE_467.png,POLICY,5ea166af93435d0008a8a341,21/08/1953,2020-09-10_14h14.51.894,proactive3.1,2020.1.2,Win32,60,5f599a131af4471f3d752b7b,5f5a26a4def27f07c2332f7e,5,,,,,,peg,,,,,,0,11,11,53,1,6,1,,,,,,,,,,,,,,,,,,,,,,,,,,,,,,,,,,,,,,,,,,,,,,,,,,,,,,,,,,,,,,,,,,,,,,,,,,,,,,,,,,,,,,,,,,,,,,,,,,,,,,,,,,,,,
,,,,,,,,,,stimuli/images/PICTURE_685.png,PENNY,5ea166af93435d0008a8a341,21/08/1953,2020-09-10_14h14.51.894,proactive3.1,2020.1.2,Win32,60,5f599a131af4471f3d752b7b,5f5a26a4def27f07c2332f7e,5,,,,,,goose,,,,,,0,12,12,4,1,1,1,,,,,,,,,,,,,,,,,,,,,,,,,,,,,,,,,,,,,,,,,,,,,,,,,,,,,,,,,,,,,,,,,,,,,,,,,,,,,,,,,,,,,,,,,,,,,,,,,,,,,,,,,,,,,
,,,,,,,,,,stimuli/images/PICTURE_85.png,NATION,5ea166af93435d0008a8a341,21/08/1953,2020-09-10_14h14.51.894,proactive3.1,2020.1.2,Win32,60,5f599a131af4471f3d752b7b,5f5a26a4def27f07c2332f7e,5,,,,,,diamond,,,,,,0,13,13,5,1,1,1,,,,,,,,,,,,,,,,,,,,,,,,,,,,,,,,,,,,,,,,,,,,,,,,,,,,,,,,,,,,,,,,,,,,,,,,,,,,,,,,,,,,,,,,,,,,,,,,,,,,,,,,,,,,,
,,,,,,,,,,stimuli/images/PICTURE_491.png,RIVER,5ea166af93435d0008a8a341,21/08/1953,2020-09-10_14h14.51.894,proactive3.1,2020.1.2,Win32,60,5f599a131af4471f3d752b7b,5f5a26a4def27f07c2332f7e,5,,,,,,rug,,,,,,0,14,14,6,1,1,1,,,,,,,,,,,,,,,,,,,,,,,,,,,,,,,,,,,,,,,,,,,,,,,,,,,,,,,,,,,,,,,,,,,,,,,,,,,,,,,,,,,,,,,,,,,,,,,,,,,,,,,,,,,,,
,,,,,,,,,,stimuli/images/PICTURE_85.png,TOILET,5ea166af93435d0008a8a341,21/08/1953,2020-09-10_14h14.51.894,proactive3.1,2020.1.2,Win32,60,5f599a131af4471f3d752b7b,5f5a26a4def27f07c2332f7e,5,,,,,,diamond,,,,,,0,15,15,48,1,5,1,,,,,,,,,,,,,,,,,,,,,,,,,,,,,,,,,,,,,,,,,,,,,,,,,,,,,,,,,,,,,,,,,,,,,,,,,,,,,,,,,,,,,,,,,,,,,,,,,,,,,,,,,,,,,
,,,,,,,,,,stimuli/images/PICTURE_403.png,RIVER,5ea166af93435d0008a8a341,21/08/1953,2020-09-10_14h14.51.894,proactive3.1,2020.1.2,Win32,60,5f599a131af4471f3d752b7b,5f5a26a4def27f07c2332f7e,5,,,,,,cathedral,,,,,,0,16,16,40,1,5,1,,,,,,,,,,,,,,,,,,,,,,,,,,,,,,,,,,,,,,,,,,,,,,,,,,,,,,,,,,,,,,,,,,,,,,,,,,,,,,,,,,,,,,,,,,,,,,,,,,,,,,,,,,,,,
,,,,,,,,,,stimuli/images/PICTURE_383.png,SERIES,5ea166af93435d0008a8a341,21/08/1953,2020-09-10_14h14.51.894,proactive3.1,2020.1.2,Win32,60,5f599a131af4471f3d752b7b,5f5a26a4def27f07c2332f7e,5,,,,,,coin,,,,,,0,17,17,46,1,5,1,,,,,,,,,,,,,,,,,,,,,,,,,,,,,,,,,,,,,,,,,,,,,,,,,,,,,,,,,,,,,,,,,,,,,,,,,,,,,,,,,,,,,,,,,,,,,,,,,,,,,,,,,,,,,
,,,,,,,,,,stimuli/images/PICTURE_380.png,CANDY,5ea166af93435d0008a8a341,21/08/1953,2020-09-10_14h14.51.894,proactive3.1,2020.1.2,Win32,60,5f599a131af4471f3d752b7b,5f5a26a4def27f07c2332f7e,5,,,,,,gorilla,,,,,,0,18,18,0,1,1,1,,,,,,,,,,,,,,,,,,,,,,,,,,,,,,,,,,,,,,,,,,,,,,,,,,,,,,,,,,,,,,,,,,,,,,,,,,,,,,,,,,,,,,,,,,,,,,,,,,,,,,,,,,,,,
,,,,,,,,,,stimuli/images/PICTURE_380.png,HONEY,5ea166af93435d0008a8a341,21/08/1953,2020-09-10_14h14.51.894,proactive3.1,2020.1.2,Win32,60,5f599a131af4471f3d752b7b,5f5a26a4def27f07c2332f7e,5,,,,,,gorilla,,,,,,0,19,19,19,1,2,1,,,,,,,,,,,,,,,,,,,,,,,,,,,,,,,,,,,,,,,,,,,,,,,,,,,,,,,,,,,,,,,,,,,,,,,,,,,,,,,,,,,,,,,,,,,,,,,,,,,,,,,,,,,,,
,,,,,,,,,,stimuli/images/PICTURE_403.png,WRITER,5ea166af93435d0008a8a341,21/08/1953,2020-09-10_14h14.51.894,proactive3.1,2020.1.2,Win32,60,5f599a131af4471f3d752b7b,5f5a26a4def27f07c2332f7e,5,,,,,,cathedral,,,,,,0,20,20,31,1,4,1,,,,,,,,,,,,,,,,,,,,,,,,,,,,,,,,,,,,,,,,,,,,,,,,,,,,,,,,,,,,,,,,,,,,,,,,,,,,,,,,,,,,,,,,,,,,,,,,,,,,,,,,,,,,,
,,,,,,,,,,stimuli/images/PICTURE_233.png,LOTS,5ea166af93435d0008a8a341,21/08/1953,2020-09-10_14h14.51.894,proactive3.1,2020.1.2,Win32,60,5f599a131af4471f3d752b7b,5f5a26a4def27f07c2332f7e,5,,,,,,salt,,,,,,0,21,21,42,1,5,1,,,,,,,,,,,,,,,,,,,,,,,,,,,,,,,,,,,,,,,,,,,,,,,,,,,,,,,,,,,,,,,,,,,,,,,,,,,,,,,,,,,,,,,,,,,,,,,,,,,,,,,,,,,,,
,,,,,,,,,,stimuli/images/PICTURE_177.png,WRITER,5ea166af93435d0008a8a341,21/08/1953,2020-09-10_14h14.51.894,proactive3.1,2020.1.2,Win32,60,5f599a131af4471f3d752b7b,5f5a26a4def27f07c2332f7e,5,,,,,,mushroom,,,,,,0,22,22,41,1,5,1,,,,,,,,,,,,,,,,,,,,,,,,,,,,,,,,,,,,,,,,,,,,,,,,,,,,,,,,,,,,,,,,,,,,,,,,,,,,,,,,,,,,,,,,,,,,,,,,,,,,,,,,,,,,,
,,,,,,,,,,stimuli/images/PICTURE_654.png,MONTH,5ea166af93435d0008a8a341,21/08/1953,2020-09-10_14h14.51.894,proactive3.1,2020.1.2,Win32,60,5f599a131af4471f3d752b7b,5f5a26a4def27f07c2332f7e,5,,,,,,pencil,,,,,,0,23,23,29,1,3,1,,,,,,,,,,,,,,,,,,,,,,,,,,,,,,,,,,,,,,,,,,,,,,,,,,,,,,,,,,,,,,,,,,,,,,,,,,,,,,,,,,,,,,,,,,,,,,,,,,,,,,,,,,,,,
,,,,,,,,,,stimuli/images/PICTURE_469.png,AGENT,5ea166af93435d0008a8a341,21/08/1953,2020-09-10_14h14.51.894,proactive3.1,2020.1.2,Win32,60,5f599a131af4471f3d752b7b,5f5a26a4def27f07c2332f7e,5,,,,,,stool,,,,,,0,24,24,16,1,2,1,,,,,,,,,,,,,,,,,,,,,,,,,,,,,,,,,,,,,,,,,,,,,,,,,,,,,,,,,,,,,,,,,,,,,,,,,,,,,,,,,,,,,,,,,,,,,,,,,,,,,,,,,,,,,
,,,,,,,,,,stimuli/images/PICTURE_203.png,NIGHT,5ea166af93435d0008a8a341,21/08/1953,2020-09-10_14h14.51.894,proactive3.1,2020.1.2,Win32,60,5f599a131af4471f3d752b7b,5f5a26a4def27f07c2332f7e,5,,,,,,cap,,,,,,0,25,25,2,1,1,1,,,,,,,,,,,,,,,,,,,,,,,,,,,,,,,,,,,,,,,,,,,,,,,,,,,,,,,,,,,,,,,,,,,,,,,,,,,,,,,,,,,,,,,,,,,,,,,,,,,,,,,,,,,,,
,,,,,,,,,,stimuli/images/PICTURE_504.png,YEAR,5ea166af93435d0008a8a341,21/08/1953,2020-09-10_14h14.51.894,proactive3.1,2020.1.2,Win32,60,5f599a131af4471f3d752b7b,5f5a26a4def27f07c2332f7e,5,,,,,,wheel,,,,,,0,26,26,13,1,2,1,,,,,,,,,,,,,,,,,,,,,,,,,,,,,,,,,,,,,,,,,,,,,,,,,,,,,,,,,,,,,,,,,,,,,,,,,,,,,,,,,,,,,,,,,,,,,,,,,,,,,,,,,,,,,
,,,,,,,,,,stimuli/images/PICTURE_42.png,BOYS,5ea166af93435d0008a8a341,21/08/1953,2020-09-10_14h14.51.894,proactive3.1,2020.1.2,Win32,60,5f599a131af4471f3d752b7b,5f5a26a4def27f07c2332f7e,5,,,,,,pear,,,,,,0,27,27,55,1,6,1,,,,,,,,,,,,,,,,,,,,,,,,,,,,,,,,,,,,,,,,,,,,,,,,,,,,,,,,,,,,,,,,,,,,,,,,,,,,,,,,,,,,,,,,,,,,,,,,,,,,,,,,,,,,,
,,,,,,,,,,stimuli/images/PICTURE_108.png,FLIGHT,5ea166af93435d0008a8a341,21/08/1953,2020-09-10_14h14.51.894,proactive3.1,2020.1.2,Win32,60,5f599a131af4471f3d752b7b,5f5a26a4def27f07c2332f7e,5,,,,,,calendar,,,,,,0,28,28,59,1,6,1,,,,,,,,,,,,,,,,,,,,,,,,,,,,,,,,,,,,,,,,,,,,,,,,,,,,,,,,,,,,,,,,,,,,,,,,,,,,,,,,,,,,,,,,,,,,,,,,,,,,,,,,,,,,,
,,,,,,,,,,stimuli/images/PICTURE_405.png,YEAR,5ea166af93435d0008a8a341,21/08/1953,2020-09-10_14h14.51.894,proactive3.1,2020.1.2,Win32,60,5f599a131af4471f3d752b7b,5f5a26a4def27f07c2332f7e,5,,,,,,anchor,,,,,,0,29,29,34,1,4,1,,,,,,,,,,,,,,,,,,,,,,,,,,,,,,,,,,,,,,,,,,,,,,,,,,,,,,,,,,,,,,,,,,,,,,,,,,,,,,,,,,,,,,,,,,,,,,,,,,,,,,,,,,,,,
,,,,,,,,,,stimuli/images/PICTURE_744.png,WEAPON,5ea166af93435d0008a8a341,21/08/1953,2020-09-10_14h14.51.894,proactive3.1,2020.1.2,Win32,60,5f599a131af4471f3d752b7b,5f5a26a4def27f07c2332f7e,5,,,,,,ring,,,,,,0,30,30,50,1,6,1,,,,,,,,,,,,,,,,,,,,,,,,,,,,,,,,,,,,,,,,,,,,,,,,,,,,,,,,,,,,,,,,,,,,,,,,,,,,,,,,,,,,,,,,,,,,,,,,,,,,,,,,,,,,,
,,,,,,,,,,stimuli/images/PICTURE_147.png,YEAR,5ea166af93435d0008a8a341,21/08/1953,2020-09-10_14h14.51.894,proactive3.1,2020.1.2,Win32,60,5f599a131af4471f3d752b7b,5f5a26a4def27f07c2332f7e,5,,,,,,hanger,,,,,,0,31,31,21,1,3,1,,,,,,,,,,,,,,,,,,,,,,,,,,,,,,,,,,,,,,,,,,,,,,,,,,,,,,,,,,,,,,,,,,,,,,,,,,,,,,,,,,,,,,,,,,,,,,,,,,,,,,,,,,,,,
,,,,,,,,,,stimuli/images/PICTURE_339.png,CLIENT,5ea166af93435d0008a8a341,21/08/1953,2020-09-10_14h14.51.894,proactive3.1,2020.1.2,Win32,60,5f599a131af4471f3d752b7b,5f5a26a4def27f07c2332f7e,5,,,,,,backpack,,,,,,0,32,32,11,1,2,1,,,,,,,,,,,,,,,,,,,,,,,,,,,,,,,,,,,,,,,,,,,,,,,,,,,,,,,,,,,,,,,,,,,,,,,,,,,,,,,,,,,,,,,,,,,,,,,,,,,,,,,,,,,,,
,,,,,,,,,,stimuli/images/PICTURE_403.png,TOILET,5ea166af93435d0008a8a341,21/08/1953,2020-09-10_14h14.51.894,proactive3.1,2020.1.2,Win32,60,5f599a131af4471f3d752b7b,5f5a26a4def27f07c2332f7e,5,,,,,,cathedral,,,,,,0,33,33,25,1,3,1,,,,,,,,,,,,,,,,,,,,,,,,,,,,,,,,,,,,,,,,,,,,,,,,,,,,,,,,,,,,,,,,,,,,,,,,,,,,,,,,,,,,,,,,,,,,,,,,,,,,,,,,,,,,,
,,,,,,,,,,stimuli/images/PICTURE_32.png,KIND,5ea166af93435d0008a8a341,21/08/1953,2020-09-10_14h14.51.894,proactive3.1,2020.1.2,Win32,60,5f599a131af4471f3d752b7b,5f5a26a4def27f07c2332f7e,5,,,,,,crown,,,,,,0,34,34,35,1,4,1,,,,,,,,,,,,,,,,,,,,,,,,,,,,,,,,,,,,,,,,,,,,,,,,,,,,,,,,,,,,,,,,,,,,,,,,,,,,,,,,,,,,,,,,,,,,,,,,,,,,,,,,,,,,,
,,,,,,,,,,stimuli/images/PICTURE_708.png,RECORD,5ea166af93435d0008a8a341,21/08/1953,2020-09-10_14h14.51.894,proactive3.1,2020.1.2,Win32,60,5f599a131af4471f3d752b7b,5f5a26a4def27f07c2332f7e,5,,,,,,monkey,,,,,,0,35,35,58,1,6,1,,,,,,,,,,,,,,,,,,,,,,,,,,,,,,,,,,,,,,,,,,,,,,,,,,,,,,,,,,,,,,,,,,,,,,,,,,,,,,,,,,,,,,,,,,,,,,,,,,,,,,,,,,,,,
,,,,,,,,,,stimuli/images/PICTURE_32.png,PILLS,5ea166af93435d0008a8a341,21/08/1953,2020-09-10_14h14.51.894,proactive3.1,2020.1.2,Win32,60,5f599a131af4471f3d752b7b,5f5a26a4def27f07c2332f7e,5,,,,,,crown,,,,,,0,36,36,18,1,2,1,,,,,,,,,,,,,,,,,,,,,,,,,,,,,,,,,,,,,,,,,,,,,,,,,,,,,,,,,,,,,,,,,,,,,,,,,,,,,,,,,,,,,,,,,,,,,,,,,,,,,,,,,,,,,
,,,,,,,,,,stimuli/images/PICTURE_297.png,RIVER,5ea166af93435d0008a8a341,21/08/1953,2020-09-10_14h14.51.894,proactive3.1,2020.1.2,Win32,60,5f599a131af4471f3d752b7b,5f5a26a4def27f07c2332f7e,5,,,,,,aeroplane,,,,,,0,37,37,39,1,4,1,,,,,,,,,,,,,,,,,,,,,,,,,,,,,,,,,,,,,,,,,,,,,,,,,,,,,,,,,,,,,,,,,,,,,,,,,,,,,,,,,,,,,,,,,,,,,,,,,,,,,,,,,,,,,
,,,,,,,,,,stimuli/images/PICTURE_68.png,MILE,5ea166af93435d0008a8a341,21/08/1953,2020-09-10_14h14.51.894,proactive3.1,2020.1.2,Win32,60,5f599a131af4471f3d752b7b,5f5a26a4def27f07c2332f7e,5,,,,,,candle,,,,,,0,38,38,51,1,6,1,,,,,,,,,,,,,,,,,,,,,,,,,,,,,,,,,,,,,,,,,,,,,,,,,,,,,,,,,,,,,,,,,,,,,,,,,,,,,,,,,,,,,,,,,,,,,,,,,,,,,,,,,,,,,
,,,,,,,,,,stimuli/images/PICTURE_147.png,WOMEN,5ea166af93435d0008a8a341,21/08/1953,2020-09-10_14h14.51.894,proactive3.1,2020.1.2,Win32,60,5f599a131af4471f3d752b7b,5f5a26a4def27f07c2332f7e,5,,,,,,hanger,,,,,,0,39,39,7,1,1,1,,,,,,,,,,,,,,,,,,,,,,,,,,,,,,,,,,,,,,,,,,,,,,,,,,,,,,,,,,,,,,,,,,,,,,,,,,,,,,,,,,,,,,,,,,,,,,,,,,,,,,,,,,,,,
,,,,,,,,,,stimuli/images/PICTURE_327.png,SERIES,5ea166af93435d0008a8a341,21/08/1953,2020-09-10_14h14.51.894,proactive3.1,2020.1.2,Win32,60,5f599a131af4471f3d752b7b,5f5a26a4def27f07c2332f7e,5,,,,,,helmet,,,,,,0,40,40,3,1,1,1,,,,,,,,,,,,,,,,,,,,,,,,,,,,,,,,,,,,,,,,,,,,,,,,,,,,,,,,,,,,,,,,,,,,,,,,,,,,,,,,,,,,,,,,,,,,,,,,,,,,,,,,,,,,,
,,,,,,,,,,stimuli/images/PICTURE_667.png,RIVER,5ea166af93435d0008a8a341,21/08/1953,2020-09-10_14h14.51.894,proactive3.1,2020.1.2,Win32,60,5f599a131af4471f3d752b7b,5f5a26a4def27f07c2332f7e,5,,,,,,daisy,,,,,,0,41,41,10,1,2,1,,,,,,,,,,,,,,,,,,,,,,,,,,,,,,,,,,,,,,,,,,,,,,,,,,,,,,,,,,,,,,,,,,,,,,,,,,,,,,,,,,,,,,,,,,,,,,,,,,,,,,,,,,,,,
,,,,,,,,,,stimuli/images/PICTURE_95.png,BOYS,5ea166af93435d0008a8a341,21/08/1953,2020-09-10_14h14.51.894,proactive3.1,2020.1.2,Win32,60,5f599a131af4471f3d752b7b,5f5a26a4def27f07c2332f7e,5,,,,,,suitcase,,,,,,0,42,42,1,1,1,1,,,,,,,,,,,,,,,,,,,,,,,,,,,,,,,,,,,,,,,,,,,,,,,,,,,,,,,,,,,,,,,,,,,,,,,,,,,,,,,,,,,,,,,,,,,,,,,,,,,,,,,,,,,,,
,,,,,,,,,,stimuli/images/PICTURE_296.png,LIFE,5ea166af93435d0008a8a341,21/08/1953,2020-09-10_14h14.51.894,proactive3.1,2020.1.2,Win32,60,5f599a131af4471f3d752b7b,5f5a26a4def27f07c2332f7e,5,,,,,,bolt,,,,,,0,43,43,57,1,6,1,,,,,,,,,,,,,,,,,,,,,,,,,,,,,,,,,,,,,,,,,,,,,,,,,,,,,,,,,,,,,,,,,,,,,,,,,,,,,,,,,,,,,,,,,,,,,,,,,,,,,,,,,,,,,
,,,,,,,,,,stimuli/images/PICTURE_327.png,CASINO,5ea166af93435d0008a8a341,21/08/1953,2020-09-10_14h14.51.894,proactive3.1,2020.1.2,Win32,60,5f599a131af4471f3d752b7b,5f5a26a4def27f07c2332f7e,5,,,,,,helmet,,,,,,0,44,44,20,1,3,1,,,,,,,,,,,,,,,,,,,,,,,,,,,,,,,,,,,,,,,,,,,,,,,,,,,,,,,,,,,,,,,,,,,,,,,,,,,,,,,,,,,,,,,,,,,,,,,,,,,,,,,,,,,,,
,,,,,,,,,,stimuli/images/PICTURE_208.png,SYSTEM,5ea166af93435d0008a8a341,21/08/1953,2020-09-10_14h14.51.894,proactive3.1,2020.1.2,Win32,60,5f599a131af4471f3d752b7b,5f5a26a4def27f07c2332f7e,5,,,,,,microphone,,,,,,0,45,45,32,1,4,1,,,,,,,,,,,,,,,,,,,,,,,,,,,,,,,,,,,,,,,,,,,,,,,,,,,,,,,,,,,,,,,,,,,,,,,,,,,,,,,,,,,,,,,,,,,,,,,,,,,,,,,,,,,,,
,,,,,,,,,,stimuli/images/PICTURE_405.png,PLENTY,5ea166af93435d0008a8a341,21/08/1953,2020-09-10_14h14.51.894,proactive3.1,2020.1.2,Win32,60,5f599a131af4471f3d752b7b,5f5a26a4def27f07c2332f7e,5,,,,,,anchor,,,,,,0,46,46,23,1,3,1,,,,,,,,,,,,,,,,,,,,,,,,,,,,,,,,,,,,,,,,,,,,,,,,,,,,,,,,,,,,,,,,,,,,,,,,,,,,,,,,,,,,,,,,,,,,,,,,,,,,,,,,,,,,,
,,,,,,,,,,stimuli/images/PICTURE_675.png,SALE,5ea166af93435d0008a8a341,21/08/1953,2020-09-10_14h14.51.894,proactive3.1,2020.1.2,Win32,60,5f599a131af4471f3d752b7b,5f5a26a4def27f07c2332f7e,5,,,,,,windmill,,,,,,0,47,47,47,1,5,1,,,,,,,,,,,,,,,,,,,,,,,,,,,,,,,,,,,,,,,,,,,,,,,,,,,,,,,,,,,,,,,,,,,,,,,,,,,,,,,,,,,,,,,,,,,,,,,,,,,,,,,,,,,,,
,,,,,,,,,,stimuli/images/PICTURE_504.png,COPS,5ea166af93435d0008a8a341,21/08/1953,2020-09-10_14h14.51.894,proactive3.1,2020.1.2,Win32,60,5f599a131af4471f3d752b7b,5f5a26a4def27f07c2332f7e,5,,,,,,wheel,,,,,,0,48,48,52,1,6,1,,,,,,,,,,,,,,,,,,,,,,,,,,,,,,,,,,,,,,,,,,,,,,,,,,,,,,,,,,,,,,,,,,,,,,,,,,,,,,,,,,,,,,,,,,,,,,,,,,,,,,,,,,,,,
,,,,,,,,,,stimuli/images/PICTURE_95.png,MILLER,5ea166af93435d0008a8a341,21/08/1953,2020-09-10_14h14.51.894,proactive3.1,2020.1.2,Win32,60,5f599a131af4471f3d752b7b,5f5a26a4def27f07c2332f7e,5,,,,,,suitcase,,,,,,0,49,49,56,1,6,1,,,,,,,,,,,,,,,,,,,,,,,,,,,,,,,,,,,,,,,,,,,,,,,,,,,,,,,,,,,,,,,,,,,,,,,,,,,,,,,,,,,,,,,,,,,,,,,,,,,,,,,,,,,,,
,,,,,,,,,,stimuli/images/PICTURE_296.png,LOTS,5ea166af93435d0008a8a341,21/08/1953,2020-09-10_14h14.51.894,proactive3.1,2020.1.2,Win32,60,5f599a131af4471f3d752b7b,5f5a26a4def27f07c2332f7e,5,,,,,,bolt,,,,,,0,50,50,9,1,1,1,,,,,,,,,,,,,,,,,,,,,,,,,,,,,,,,,,,,,,,,,,,,,,,,,,,,,,,,,,,,,,,,,,,,,,,,,,,,,,,,,,,,,,,,,,,,,,,,,,,,,,,,,,,,,
,,,,,,,,,,stimuli/images/PICTURE_57.png,MOMENT,5ea166af93435d0008a8a341,21/08/1953,2020-09-10_14h14.51.894,proactive3.1,2020.1.2,Win32,60,5f599a131af4471f3d752b7b,5f5a26a4def27f07c2332f7e,5,,,,,,stamp,,,,,,0,51,51,37,1,4,1,,,,,,,,,,,,,,,,,,,,,,,,,,,,,,,,,,,,,,,,,,,,,,,,,,,,,,,,,,,,,,,,,,,,,,,,,,,,,,,,,,,,,,,,,,,,,,,,,,,,,,,,,,,,,
,,,,,,,,,,stimuli/images/PICTURE_2.png,FLIGHT,5ea166af93435d0008a8a341,21/08/1953,2020-09-10_14h14.51.894,proactive3.1,2020.1.2,Win32,60,5f599a131af4471f3d752b7b,5f5a26a4def27f07c2332f7e,5,,,,,,tyre,,,,,,0,52,52,15,1,2,1,,,,,,,,,,,,,,,,,,,,,,,,,,,,,,,,,,,,,,,,,,,,,,,,,,,,,,,,,,,,,,,,,,,,,,,,,,,,,,,,,,,,,,,,,,,,,,,,,,,,,,,,,,,,,
,,,,,,,,,,stimuli/images/PICTURE_108.png,POLICY,5ea166af93435d0008a8a341,21/08/1953,2020-09-10_14h14.51.894,proactive3.1,2020.1.2,Win32,60,5f599a131af4471f3d752b7b,5f5a26a4def27f07c2332f7e,5,,,,,,calendar,,,,,,0,53,53,22,1,3,1,,,,,,,,,,,,,,,,,,,,,,,,,,,,,,,,,,,,,,,,,,,,,,,,,,,,,,,,,,,,,,,,,,,,,,,,,,,,,,,,,,,,,,,,,,,,,,,,,,,,,,,,,,,,,
,,,,,,,,,,stimuli/images/PICTURE_383.png,WRITER,5ea166af93435d0008a8a341,21/08/1953,2020-09-10_14h14.51.894,proactive3.1,2020.1.2,Win32,60,5f599a131af4471f3d752b7b,5f5a26a4def27f07c2332f7e,5,,,,,,coin,,,,,,0,54,54,28,1,3,1,,,,,,,,,,,,,,,,,,,,,,,,,,,,,,,,,,,,,,,,,,,,,,,,,,,,,,,,,,,,,,,,,,,,,,,,,,,,,,,,,,,,,,,,,,,,,,,,,,,,,,,,,,,,,
,,,,,,,,,,stimuli/images/PICTURE_285.png,LIFE,5ea166af93435d0008a8a341,21/08/1953,2020-09-10_14h14.51.894,proactive3.1,2020.1.2,Win32,60,5f599a131af4471f3d752b7b,5f5a26a4def27f07c2332f7e,5,,,,,,carrot,,,,,,0,55,55,33,1,4,1,,,,,,,,,,,,,,,,,,,,,,,,,,,,,,,,,,,,,,,,,,,,,,,,,,,,,,,,,,,,,,,,,,,,,,,,,,,,,,,,,,,,,,,,,,,,,,,,,,,,,,,,,,,,,
,,,,,,,,,,stimuli/images/PICTURE_504.png,ARTIST,5ea166af93435d0008a8a341,21/08/1953,2020-09-10_14h14.51.894,proactive3.1,2020.1.2,Win32,60,5f599a131af4471f3d752b7b,5f5a26a4def27f07c2332f7e,5,,,,,,wheel,,,,,,0,56,56,49,1,5,1,,,,,,,,,,,,,,,,,,,,,,,,,,,,,,,,,,,,,,,,,,,,,,,,,,,,,,,,,,,,,,,,,,,,,,,,,,,,,,,,,,,,,,,,,,,,,,,,,,,,,,,,,,,,,
,,,,,,,,,,stimuli/images/PICTURE_487.png,GIRL,5ea166af93435d0008a8a341,21/08/1953,2020-09-10_14h14.51.894,proactive3.1,2020.1.2,Win32,60,5f599a131af4471f3d752b7b,5f5a26a4def27f07c2332f7e,5,,,,,,basket,,,,,,0,57,57,45,1,5,1,,,,,,,,,,,,,,,,,,,,,,,,,,,,,,,,,,,,,,,,,,,,,,,,,,,,,,,,,,,,,,,,,,,,,,,,,,,,,,,,,,,,,,,,,,,,,,,,,,,,,,,,,,,,,
,,,,,,,,,,stimuli/images/PICTURE_564.png,BATH,5ea166af93435d0008a8a341,21/08/1953,2020-09-10_14h14.51.894,proactive3.1,2020.1.2,Win32,60,5f599a131af4471f3d752b7b,5f5a26a4def27f07c2332f7e,5,,,,,,spoon,,,,,,0,58,58,26,1,3,1,,,,,,,,,,,,,,,,,,,,,,,,,,,,,,,,,,,,,,,,,,,,,,,,,,,,,,,,,,,,,,,,,,,,,,,,,,,,,,,,,,,,,,,,,,,,,,,,,,,,,,,,,,,,,
,,?,7.73176,0,,,,,,stimuli/images/PICTURE_85.png,TOILET,5ea166af93435d0008a8a341,21/08/1953,2020-09-10_14h14.51.894,proactive3.1,2020.1.2,Win32,60,5f599a131af4471f3d752b7b,5f5a26a4def27f07c2332f7e,5,,,,,,diamond,,,,,,,,,,,5,1,0,0,0,48,1,,,,,,,,,,,,,,,,,,,,,,,,,,,,,,,,,,,,,,,,,,,,,,,,,,,,,,,,,,,,,,,,,,,,,,,,,,,,,,,,,,,,,,,,,,,,,,,,,,,,,,,,
,,RIVER,5.301245,1,,,,,,stimuli/images/PICTURE_403.png,RIVER,5ea166af93435d0008a8a341,21/08/1953,2020-09-10_14h14.51.894,proactive3.1,2020.1.2,Win32,60,5f599a131af4471f3d752b7b,5f5a26a4def27f07c2332f7e,5,,,,,,cathedral,,,,,,,,,,,5,1,0,1,1,40,1,,,,,,,,,,,,,,,,,,,,,,,,,,,,,,,,,,,,,,,,,,,,,,,,,,,,,,,,,,,,,,,,,,,,,,,,,,,,,,,,,,,,,,,,,,,,,,,,,,,,,,,,
,,?,5.036425,0,,,,,,stimuli/images/PICTURE_504.png,ARTIST,5ea166af93435d0008a8a341,21/08/1953,2020-09-10_14h14.51.894,proactive3.1,2020.1.2,Win32,60,5f599a131af4471f3d752b7b,5f5a26a4def27f07c2332f7e,5,,,,,,wheel,,,,,,,,,,,5,1,0,2,2,49,1,,,,,,,,,,,,,,,,,,,,,,,,,,,,,,,,,,,,,,,,,,,,,,,,,,,,,,,,,,,,,,,,,,,,,,,,,,,,,,,,,,,,,,,,,,,,,,,,,,,,,,,,
,,?,0.002905,0,,,,,,stimuli/images/PICTURE_708.png,RECORD,5ea166af93435d0008a8a341,21/08/1953,2020-09-10_14h14.51.894,proactive3.1,2020.1.2,Win32,60,5f599a131af4471f3d752b7b,5f5a26a4def27f07c2332f7e,5,,,,,,monkey,,,,,,,,,,,6,1,0,3,3,58,1,,,,,,,,,,,,,,,,,,,,,,,,,,,,,,,,,,,,,,,,,,,,,,,,,,,,,,,,,,,,,,,,,,,,,,,,,,,,,,,,,,,,,,,,,,,,,,,,,,,,,,,,
,,?,0.00049,0,,,,,,stimuli/images/PICTURE_308.png,FAMILY,5ea166af93435d0008a8a341,21/08/1953,2020-09-10_14h14.51.894,proactive3.1,2020.1.2,Win32,60,5f599a131af4471f3d752b7b,5f5a26a4def27f07c2332f7e,5,,,,,,dice,,,,,,,,,,,4,1,0,4,4,36,1,,,,,,,,,,,,,,,,,,,,,,,,,,,,,,,,,,,,,,,,,,,,,,,,,,,,,,,,,,,,,,,,,,,,,,,,,,,,,,,,,,,,,,,,,,,,,,,,,,,,,,,,
,,?,0.00049,0,,,,,,stimuli/images/PICTURE_297.png,RIVER,5ea166af93435d0008a8a341,21/08/1953,2020-09-10_14h14.51.894,proactive3.1,2020.1.2,Win32,60,5f599a131af4471f3d752b7b,5f5a26a4def27f07c2332f7e,5,,,,,,aeroplane,,,,,,,,,,,4,1,0,5,5,39,1,,,,,,,,,,,,,,,,,,,,,,,,,,,,,,,,,,,,,,,,,,,,,,,,,,,,,,,,,,,,,,,,,,,,,,,,,,,,,,,,,,,,,,,,,,,,,,,,,,,,,,,,
,,SAIL,7.22842,0,,,,,,stimuli/images/PICTURE_675.png,SALE,5ea166af93435d0008a8a341,21/08/1953,2020-09-10_14h14.51.894,proactive3.1,2020.1.2,Win32,60,5f599a131af4471f3d752b7b,5f5a26a4def27f07c2332f7e,5,,,,,,windmill,,,,,,,,,,,5,1,0,6,6,47,1,,,,,,,,,,,,,,,,,,,,,,,,,,,,,,,,,,,,,,,,,,,,,,,,,,,,,,,,,,,,,,,,,,,,,,,,,,,,,,,,,,,,,,,,,,,,,,,,,,,,,,,,
,,?,0.001095,0,,,,,,stimuli/images/PICTURE_147.png,YEAR,5ea166af93435d0008a8a341,21/08/1953,2020-09-10_14h14.51.894,proactive3.1,2020.1.2,Win32,60,5f599a131af4471f3d752b7b,5f5a26a4def27f07c2332f7e,5,,,,,,hanger,,,,,,,,,,,3,1,0,7,7,21,1,,,,,,,,,,,,,,,,,,,,,,,,,,,,,,,,,,,,,,,,,,,,,,,,,,,,,,,,,,,,,,,,,,,,,,,,,,,,,,,,,,,,,,,,,,,,,,,,,,,,,,,,
,,?,0.000455,0,,,,,,stimuli/images/PICTURE_95.png,BOYS,5ea166af93435d0008a8a341,21/08/1953,2020-09-10_14h14.51.894,proactive3.1,2020.1.2,Win32,60,5f599a131af4471f3d752b7b,5f5a26a4def27f07c2332f7e,5,,,,,,suitcase,,,,,,,,,,,1,1,0,8,8,1,1,,,,,,,,,,,,,,,,,,,,,,,,,,,,,,,,,,,,,,,,,,,,,,,,,,,,,,,,,,,,,,,,,,,,,,,,,,,,,,,,,,,,,,,,,,,,,,,,,,,,,,,,
,,?,0.001065,0,,,,,,stimuli/images/PICTURE_68.png,MILE,5ea166af93435d0008a8a341,21/08/1953,2020-09-10_14h14.51.894,proactive3.1,2020.1.2,Win32,60,5f599a131af4471f3d752b7b,5f5a26a4def27f07c2332f7e,5,,,,,,candle,,,,,,,,,,,6,1,0,9,9,51,1,,,,,,,,,,,,,,,,,,,,,,,,,,,,,,,,,,,,,,,,,,,,,,,,,,,,,,,,,,,,,,,,,,,,,,,,,,,,,,,,,,,,,,,,,,,,,,,,,,,,,,,,
,,?,0.000245,0,,,,,,stimuli/images/PICTURE_504.png,COPS,5ea166af93435d0008a8a341,21/08/1953,2020-09-10_14h14.51.894,proactive3.1,2020.1.2,Win32,60,5f599a131af4471f3d752b7b,5f5a26a4def27f07c2332f7e,5,,,,,,wheel,,,,,,,,,,,6,1,0,10,10,52,1,,,,,,,,,,,,,,,,,,,,,,,,,,,,,,,,,,,,,,,,,,,,,,,,,,,,,,,,,,,,,,,,,,,,,,,,,,,,,,,,,,,,,,,,,,,,,,,,,,,,,,,,
,,LOTS,3.82552,1,,,,,,stimuli/images/PICTURE_233.png,LOTS,5ea166af93435d0008a8a341,21/08/1953,2020-09-10_14h14.51.894,proactive3.1,2020.1.2,Win32,60,5f599a131af4471f3d752b7b,5f5a26a4def27f07c2332f7e,5,,,,,,salt,,,,,,,,,,,5,1,0,11,11,42,1,,,,,,,,,,,,,,,,,,,,,,,,,,,,,,,,,,,,,,,,,,,,,,,,,,,,,,,,,,,,,,,,,,,,,,,,,,,,,,,,,,,,,,,,,,,,,,,,,,,,,,,,
,,?,0.00112,0,,,,,,stimuli/images/PICTURE_491.png,GLASS,5ea166af93435d0008a8a341,21/08/1953,2020-09-10_14h14.51.894,proactive3.1,2020.1.2,Win32,60,5f599a131af4471f3d752b7b,5f5a26a4def27f07c2332f7e,5,,,,,,rug,,,,,,,,,,,2,1,0,12,12,14,1,,,,,,,,,,,,,,,,,,,,,,,,,,,,,,,,,,,,,,,,,,,,,,,,,,,,,,,,,,,,,,,,,,,,,,,,,,,,,,,,,,,,,,,,,,,,,,,,,,,,,,,,
,,?,0.000695,0,,,,,,stimuli/images/PICTURE_2.png,FLIGHT,5ea166af93435d0008a8a341,21/08/1953,2020-09-10_14h14.51.894,proactive3.1,2020.1.2,Win32,60,5f599a131af4471f3d752b7b,5f5a26a4def27f07c2332f7e,5,,,,,,tyre,,,,,,,,,,,2,1,0,13,13,15,1,,,,,,,,,,,,,,,,,,,,,,,,,,,,,,,,,,,,,,,,,,,,,,,,,,,,,,,,,,,,,,,,,,,,,,,,,,,,,,,,,,,,,,,,,,,,,,,,,,,,,,,,
,,?,0.00039,0,,,,,,stimuli/images/PICTURE_339.png,CLIENT,5ea166af93435d0008a8a341,21/08/1953,2020-09-10_14h14.51.894,proactive3.1,2020.1.2,Win32,60,5f599a131af4471f3d752b7b,5f5a26a4def27f07c2332f7e,5,,,,,,backpack,,,,,,,,,,,2,1,0,14,14,11,1,,,,,,,,,,,,,,,,,,,,,,,,,,,,,,,,,,,,,,,,,,,,,,,,,,,,,,,,,,,,,,,,,,,,,,,,,,,,,,,,,,,,,,,,,,,,,,,,,,,,,,,,
,,?,5.828385,0,,,,,,stimuli/images/PICTURE_95.png,HONEY,5ea166af93435d0008a8a341,21/08/1953,2020-09-10_14h14.51.894,proactive3.1,2020.1.2,Win32,60,5f599a131af4471f3d752b7b,5f5a26a4def27f07c2332f7e,5,,,,,,suitcase,,,,,,,,,,,5,1,0,15,15,44,1,,,,,,,,,,,,,,,,,,,,,,,,,,,,,,,,,,,,,,,,,,,,,,,,,,,,,,,,,,,,,,,,,,,,,,,,,,,,,,,,,,,,,,,,,,,,,,,,,,,,,,,,
,,?,0.00116,0,,,,,,stimuli/images/PICTURE_203.png,GODS,5ea166af93435d0008a8a341,21/08/1953,2020-09-10_14h14.51.894,proactive3.1,2020.1.2,Win32,60,5f599a131af4471f3d752b7b,5f5a26a4def27f07c2332f7e,5,,,,,,cap,,,,,,,,,,,4,1,0,16,16,30,1,,,,,,,,,,,,,,,,,,,,,,,,,,,,,,,,,,,,,,,,,,,,,,,,,,,,,,,,,,,,,,,,,,,,,,,,,,,,,,,,,,,,,,,,,,,,,,,,,,,,,,,,
,,WRITER,5.13179,1,,,,,,stimuli/images/PICTURE_177.png,WRITER,5ea166af93435d0008a8a341,21/08/1953,2020-09-10_14h14.51.894,proactive3.1,2020.1.2,Win32,60,5f599a131af4471f3d752b7b,5f5a26a4def27f07c2332f7e,5,,,,,,mushroom,,,,,,,,,,,5,1,0,17,17,41,1,,,,,,,,,,,,,,,,,,,,,,,,,,,,,,,,,,,,,,,,,,,,,,,,,,,,,,,,,,,,,,,,,,,,,,,,,,,,,,,,,,,,,,,,,,,,,,,,,,,,,,,,
,,?,0.001005,0,,,,,,stimuli/images/PICTURE_467.png,POLICY,5ea166af93435d0008a8a341,21/08/1953,2020-09-10_14h14.51.894,proactive3.1,2020.1.2,Win32,60,5f599a131af4471f3d752b7b,5f5a26a4def27f07c2332f7e,5,,,,,,peg,,,,,,,,,,,6,1,0,18,18,53,1,,,,,,,,,,,,,,,,,,,,,,,,,,,,,,,,,,,,,,,,,,,,,,,,,,,,,,,,,,,,,,,,,,,,,,,,,,,,,,,,,,,,,,,,,,,,,,,,,,,,,,,,
,,?,0.00058,0,,,,,,stimuli/images/PICTURE_380.png,HONEY,5ea166af93435d0008a8a341,21/08/1953,2020-09-10_14h14.51.894,proactive3.1,2020.1.2,Win32,60,5f599a131af4471f3d752b7b,5f5a26a4def27f07c2332f7e,5,,,,,,gorilla,,,,,,,,,,,2,1,0,19,19,19,1,,,,,,,,,,,,,,,,,,,,,,,,,,,,,,,,,,,,,,,,,,,,,,,,,,,,,,,,,,,,,,,,,,,,,,,,,,,,,,,,,,,,,,,,,,,,,,,,,,,,,,,,
,,?,0.000425,0,,,,,,stimuli/images/PICTURE_33.png,FRIEND,5ea166af93435d0008a8a341,21/08/1953,2020-09-10_14h14.51.894,proactive3.1,2020.1.2,Win32,60,5f599a131af4471f3d752b7b,5f5a26a4def27f07c2332f7e,5,,,,,,frame,,,,,,,,,,,1,1,0,20,20,8,1,,,,,,,,,,,,,,,,,,,,,,,,,,,,,,,,,,,,,,,,,,,,,,,,,,,,,,,,,,,,,,,,,,,,,,,,,,,,,,,,,,,,,,,,,,,,,,,,,,,,,,,,
,,?,0.000405,0,,,,,,stimuli/images/PICTURE_108.png,FLIGHT,5ea166af93435d0008a8a341,21/08/1953,2020-09-10_14h14.51.894,proactive3.1,2020.1.2,Win32,60,5f599a131af4471f3d752b7b,5f5a26a4def27f07c2332f7e,5,,,,,,calendar,,,,,,,,,,,6,1,0,21,21,59,1,,,,,,,,,,,,,,,,,,,,,,,,,,,,,,,,,,,,,,,,,,,,,,,,,,,,,,,,,,,,,,,,,,,,,,,,,,,,,,,,,,,,,,,,,,,,,,,,,,,,,,,,
,,?,0.00045,0,,,,,,stimuli/images/PICTURE_383.png,WRITER,5ea166af93435d0008a8a341,21/08/1953,2020-09-10_14h14.51.894,proactive3.1,2020.1.2,Win32,60,5f599a131af4471f3d752b7b,5f5a26a4def27f07c2332f7e,5,,,,,,coin,,,,,,,,,,,3,1,0,22,22,28,1,,,,,,,,,,,,,,,,,,,,,,,,,,,,,,,,,,,,,,,,,,,,,,,,,,,,,,,,,,,,,,,,,,,,,,,,,,,,,,,,,,,,,,,,,,,,,,,,,,,,,,,,
,,?,0.000245,0,,,,,,stimuli/images/PICTURE_68.png,ROOF,5ea166af93435d0008a8a341,21/08/1953,2020-09-10_14h14.51.894,proactive3.1,2020.1.2,Win32,60,5f599a131af4471f3d752b7b,5f5a26a4def27f07c2332f7e,5,,,,,,candle,,,,,,,,,,,4,1,0,23,23,38,1,,,,,,,,,,,,,,,,,,,,,,,,,,,,,,,,,,,,,,,,,,,,,,,,,,,,,,,,,,,,,,,,,,,,,,,,,,,,,,,,,,,,,,,,,,,,,,,,,,,,,,,,
,,?,0.000235,0,,,,,,stimuli/images/PICTURE_403.png,TOILET,5ea166af93435d0008a8a341,21/08/1953,2020-09-10_14h14.51.894,proactive3.1,2020.1.2,Win32,60,5f599a131af4471f3d752b7b,5f5a26a4def27f07c2332f7e,5,,,,,,cathedral,,,,,,,,,,,3,1,0,24,24,25,1,,,,,,,,,,,,,,,,,,,,,,,,,,,,,,,,,,,,,,,,,,,,,,,,,,,,,,,,,,,,,,,,,,,,,,,,,,,,,,,,,,,,,,,,,,,,,,,,,,,,,,,,
,,GIRL,4.56012,1,,,,,,stimuli/images/PICTURE_487.png,GIRL,5ea166af93435d0008a8a341,21/08/1953,2020-09-10_14h14.51.894,proactive3.1,2020.1.2,Win32,60,5f599a131af4471f3d752b7b,5f5a26a4def27f07c2332f7e,5,,,,,,basket,,,,,,,,,,,5,1,0,25,25,45,1,,,,,,,,,,,,,,,,,,,,,,,,,,,,,,,,,,,,,,,,,,,,,,,,,,,,,,,,,,,,,,,,,,,,,,,,,,,,,,,,,,,,,,,,,,,,,,,,,,,,,,,,
,,?,0.001175,0,,,,,,stimuli/images/PICTURE_403.png,WRITER,5ea166af93435d0008a8a341,21/08/1953,2020-09-10_14h14.51.894,proactive3.1,2020.1.2,Win32,60,5f599a131af4471f3d752b7b,5f5a26a4def27f07c2332f7e,5,,,,,,cathedral,,,,,,,,,,,4,1,0,26,26,31,1,,,,,,,,,,,,,,,,,,,,,,,,,,,,,,,,,,,,,,,,,,,,,,,,,,,,,,,,,,,,,,,,,,,,,,,,,,,,,,,,,,,,,,,,,,,,,,,,,,,,,,,,
,,?,0.00052,0,,,,,,stimuli/images/PICTURE_203.png,NIGHT,5ea166af93435d0008a8a341,21/08/1953,2020-09-10_14h14.51.894,proactive3.1,2020.1.2,Win32,60,5f599a131af4471f3d752b7b,5f5a26a4def27f07c2332f7e,5,,,,,,cap,,,,,,,,,,,1,1,0,27,27,2,1,,,,,,,,,,,,,,,,,,,,,,,,,,,,,,,,,,,,,,,,,,,,,,,,,,,,,,,,,,,,,,,,,,,,,,,,,,,,,,,,,,,,,,,,,,,,,,,,,,,,,,,,
,,?,0.00053,0,,,,,,stimuli/images/PICTURE_469.png,AGENT,5ea166af93435d0008a8a341,21/08/1953,2020-09-10_14h14.51.894,proactive3.1,2020.1.2,Win32,60,5f599a131af4471f3d752b7b,5f5a26a4def27f07c2332f7e,5,,,,,,stool,,,,,,,,,,,2,1,0,28,28,16,1,,,,,,,,,,,,,,,,,,,,,,,,,,,,,,,,,,,,,,,,,,,,,,,,,,,,,,,,,,,,,,,,,,,,,,,,,,,,,,,,,,,,,,,,,,,,,,,,,,,,,,,,
,,?,0.000395,0,,,,,,stimuli/images/PICTURE_285.png,LIFE,5ea166af93435d0008a8a341,21/08/1953,2020-09-10_14h14.51.894,proactive3.1,2020.1.2,Win32,60,5f599a131af4471f3d752b7b,5f5a26a4def27f07c2332f7e,5,,,,,,carrot,,,,,,,,,,,4,1,0,29,29,33,1,,,,,,,,,,,,,,,,,,,,,,,,,,,,,,,,,,,,,,,,,,,,,,,,,,,,,,,,,,,,,,,,,,,,,,,,,,,,,,,,,,,,,,,,,,,,,,,,,,,,,,,,
,,?,0.00028,0,,,,,,stimuli/images/PICTURE_449.png,DUDE,5ea166af93435d0008a8a341,21/08/1953,2020-09-10_14h14.51.894,proactive3.1,2020.1.2,Win32,60,5f599a131af4471f3d752b7b,5f5a26a4def27f07c2332f7e,5,,,,,,bench,,,,,,,,,,,2,1,0,30,30,17,1,,,,,,,,,,,,,,,,,,,,,,,,,,,,,,,,,,,,,,,,,,,,,,,,,,,,,,,,,,,,,,,,,,,,,,,,,,,,,,,,,,,,,,,,,,,,,,,,,,,,,,,,
,,?,4.62819,0,,,,,,stimuli/images/PICTURE_677.png,APPLE,5ea166af93435d0008a8a341,21/08/1953,2020-09-10_14h14.51.894,proactive3.1,2020.1.2,Win32,60,5f599a131af4471f3d752b7b,5f5a26a4def27f07c2332f7e,5,,,,,,map,,,,,,,,,,,5,1,0,31,31,43,1,,,,,,,,,,,,,,,,,,,,,,,,,,,,,,,,,,,,,,,,,,,,,,,,,,,,,,,,,,,,,,,,,,,,,,,,,,,,,,,,,,,,,,,,,,,,,,,,,,,,,,,,
,,?,0.001035,0,,,,,,stimuli/images/PICTURE_95.png,MILLER,5ea166af93435d0008a8a341,21/08/1953,2020-09-10_14h14.51.894,proactive3.1,2020.1.2,Win32,60,5f599a131af4471f3d752b7b,5f5a26a4def27f07c2332f7e,5,,,,,,suitcase,,,,,,,,,,,6,1,0,32,32,56,1,,,,,,,,,,,,,,,,,,,,,,,,,,,,,,,,,,,,,,,,,,,,,,,,,,,,,,,,,,,,,,,,,,,,,,,,,,,,,,,,,,,,,,,,,,,,,,,,,,,,,,,,
,,?,0.00071,0,,,,,,stimuli/images/PICTURE_667.png,RIVER,5ea166af93435d0008a8a341,21/08/1953,2020-09-10_14h14.51.894,proactive3.1,2020.1.2,Win32,60,5f599a131af4471f3d752b7b,5f5a26a4def27f07c2332f7e,5,,,,,,daisy,,,,,,,,,,,2,1,0,33,33,10,1,,,,,,,,,,,,,,,,,,,,,,,,,,,,,,,,,,,,,,,,,,,,,,,,,,,,,,,,,,,,,,,,,,,,,,,,,,,,,,,,,,,,,,,,,,,,,,,,,,,,,,,,
,,?,0.00067,0,,,,,,stimuli/images/PICTURE_685.png,PENNY,5ea166af93435d0008a8a341,21/08/1953,2020-09-10_14h14.51.894,proactive3.1,2020.1.2,Win32,60,5f599a131af4471f3d752b7b,5f5a26a4def27f07c2332f7e,5,,,,,,goose,,,,,,,,,,,1,1,0,34,34,4,1,,,,,,,,,,,,,,,,,,,,,,,,,,,,,,,,,,,,,,,,,,,,,,,,,,,,,,,,,,,,,,,,,,,,,,,,,,,,,,,,,,,,,,,,,,,,,,,,,,,,,,,,
,,?,0.000425,0,,,,,,stimuli/images/PICTURE_504.png,YEAR,5ea166af93435d0008a8a341,21/08/1953,2020-09-10_14h14.51.894,proactive3.1,2020.1.2,Win32,60,5f599a131af4471f3d752b7b,5f5a26a4def27f07c2332f7e,5,,,,,,wheel,,,,,,,,,,,2,1,0,35,35,13,1,,,,,,,,,,,,,,,,,,,,,,,,,,,,,,,,,,,,,,,,,,,,,,,,,,,,,,,,,,,,,,,,,,,,,,,,,,,,,,,,,,,,,,,,,,,,,,,,,,,,,,,,
,,?,0.000465,0,,,,,,stimuli/images/PICTURE_296.png,LOTS,5ea166af93435d0008a8a341,21/08/1953,2020-09-10_14h14.51.894,proactive3.1,2020.1.2,Win32,60,5f599a131af4471f3d752b7b,5f5a26a4def27f07c2332f7e,5,,,,,,bolt,,,,,,,,,,,1,1,0,36,36,9,1,,,,,,,,,,,,,,,,,,,,,,,,,,,,,,,,,,,,,,,,,,,,,,,,,,,,,,,,,,,,,,,,,,,,,,,,,,,,,,,,,,,,,,,,,,,,,,,,,,,,,,,,
,,?,0.000375,0,,,,,,stimuli/images/PICTURE_42.png,BOYS,5ea166af93435d0008a8a341,21/08/1953,2020-09-10_14h14.51.894,proactive3.1,2020.1.2,Win32,60,5f599a131af4471f3d752b7b,5f5a26a4def27f07c2332f7e,5,,,,,,pear,,,,,,,,,,,6,1,0,37,37,55,1,,,,,,,,,,,,,,,,,,,,,,,,,,,,,,,,,,,,,,,,,,,,,,,,,,,,,,,,,,,,,,,,,,,,,,,,,,,,,,,,,,,,,,,,,,,,,,,,,,,,,,,,
,,?,0.00023,0,,,,,,stimuli/images/PICTURE_744.png,WEAPON,5ea166af93435d0008a8a341,21/08/1953,2020-09-10_14h14.51.894,proactive3.1,2020.1.2,Win32,60,5f599a131af4471f3d752b7b,5f5a26a4def27f07c2332f7e,5,,,,,,ring,,,,,,,,,,,6,1,0,38,38,50,1,,,,,,,,,,,,,,,,,,,,,,,,,,,,,,,,,,,,,,,,,,,,,,,,,,,,,,,,,,,,,,,,,,,,,,,,,,,,,,,,,,,,,,,,,,,,,,,,,,,,,,,,
,,?,0.000215,0,,,,,,stimuli/images/PICTURE_32.png,PILLS,5ea166af93435d0008a8a341,21/08/1953,2020-09-10_14h14.51.894,proactive3.1,2020.1.2,Win32,60,5f599a131af4471f3d752b7b,5f5a26a4def27f07c2332f7e,5,,,,,,crown,,,,,,,,,,,2,1,0,39,39,18,1,,,,,,,,,,,,,,,,,,,,,,,,,,,,,,,,,,,,,,,,,,,,,,,,,,,,,,,,,,,,,,,,,,,,,,,,,,,,,,,,,,,,,,,,,,,,,,,,,,,,,,,,
,,?,0.00038,0,,,,,,stimuli/images/PICTURE_380.png,CANDY,5ea166af93435d0008a8a341,21/08/1953,2020-09-10_14h14.51.894,proactive3.1,2020.1.2,Win32,60,5f599a131af4471f3d752b7b,5f5a26a4def27f07c2332f7e,5,,,,,,gorilla,,,,,,,,,,,1,1,0,40,40,0,1,,,,,,,,,,,,,,,,,,,,,,,,,,,,,,,,,,,,,,,,,,,,,,,,,,,,,,,,,,,,,,,,,,,,,,,,,,,,,,,,,,,,,,,,,,,,,,,,,,,,,,,,
,,?,0.00041,0,,,,,,stimuli/images/PICTURE_655.png,TOILET,5ea166af93435d0008a8a341,21/08/1953,2020-09-10_14h14.51.894,proactive3.1,2020.1.2,Win32,60,5f599a131af4471f3d752b7b,5f5a26a4def27f07c2332f7e,5,,,,,,megaphone,,,,,,,,,,,2,1,0,41,41,12,1,,,,,,,,,,,,,,,,,,,,,,,,,,,,,,,,,,,,,,,,,,,,,,,,,,,,,,,,,,,,,,,,,,,,,,,,,,,,,,,,,,,,,,,,,,,,,,,,,,,,,,,,
,,?,0.00037,0,,,,,,stimuli/images/PICTURE_147.png,WOMEN,5ea166af93435d0008a8a341,21/08/1953,2020-09-10_14h14.51.894,proactive3.1,2020.1.2,Win32,60,5f599a131af4471f3d752b7b,5f5a26a4def27f07c2332f7e,5,,,,,,hanger,,,,,,,,,,,1,1,0,42,42,7,1,,,,,,,,,,,,,,,,,,,,,,,,,,,,,,,,,,,,,,,,,,,,,,,,,,,,,,,,,,,,,,,,,,,,,,,,,,,,,,,,,,,,,,,,,,,,,,,,,,,,,,,,
,,?,0.00034,0,,,,,,stimuli/images/PICTURE_85.png,NATION,5ea166af93435d0008a8a341,21/08/1953,2020-09-10_14h14.51.894,proactive3.1,2020.1.2,Win32,60,5f599a131af4471f3d752b7b,5f5a26a4def27f07c2332f7e,5,,,,,,diamond,,,,,,,,,,,1,1,0,43,43,5,1,,,,,,,,,,,,,,,,,,,,,,,,,,,,,,,,,,,,,,,,,,,,,,,,,,,,,,,,,,,,,,,,,,,,,,,,,,,,,,,,,,,,,,,,,,,,,,,,,,,,,,,,
,,SERIES,4.616555,1,,,,,,stimuli/images/PICTURE_383.png,SERIES,5ea166af93435d0008a8a341,21/08/1953,2020-09-10_14h14.51.894,proactive3.1,2020.1.2,Win32,60,5f599a131af4471f3d752b7b,5f5a26a4def27f07c2332f7e,5,,,,,,coin,,,,,,,,,,,5,1,0,44,44,46,1,,,,,,,,,,,,,,,,,,,,,,,,,,,,,,,,,,,,,,,,,,,,,,,,,,,,,,,,,,,,,,,,,,,,,,,,,,,,,,,,,,,,,,,,,,,,,,,,,,,,,,,,
,,?,0.001155,0,,,,,,stimuli/images/PICTURE_327.png,CASINO,5ea166af93435d0008a8a341,21/08/1953,2020-09-10_14h14.51.894,proactive3.1,2020.1.2,Win32,60,5f599a131af4471f3d752b7b,5f5a26a4def27f07c2332f7e,5,,,,,,helmet,,,,,,,,,,,3,1,0,45,45,20,1,,,,,,,,,,,,,,,,,,,,,,,,,,,,,,,,,,,,,,,,,,,,,,,,,,,,,,,,,,,,,,,,,,,,,,,,,,,,,,,,,,,,,,,,,,,,,,,,,,,,,,,,
,,?,0.0007,0,,,,,,stimuli/images/PICTURE_208.png,SYSTEM,5ea166af93435d0008a8a341,21/08/1953,2020-09-10_14h14.51.894,proactive3.1,2020.1.2,Win32,60,5f599a131af4471f3d752b7b,5f5a26a4def27f07c2332f7e,5,,,,,,microphone,,,,,,,,,,,4,1,0,46,46,32,1,,,,,,,,,,,,,,,,,,,,,,,,,,,,,,,,,,,,,,,,,,,,,,,,,,,,,,,,,,,,,,,,,,,,,,,,,,,,,,,,,,,,,,,,,,,,,,,,,,,,,,,,
,,?,0.00059,0,,,,,,stimuli/images/PICTURE_405.png,PLENTY,5ea166af93435d0008a8a341,21/08/1953,2020-09-10_14h14.51.894,proactive3.1,2020.1.2,Win32,60,5f599a131af4471f3d752b7b,5f5a26a4def27f07c2332f7e,5,,,,,,anchor,,,,,,,,,,,3,1,0,47,47,23,1,,,,,,,,,,,,,,,,,,,,,,,,,,,,,,,,,,,,,,,,,,,,,,,,,,,,,,,,,,,,,,,,,,,,,,,,,,,,,,,,,,,,,,,,,,,,,,,,,,,,,,,,
,,?,0.000545,0,,,,,,stimuli/images/PICTURE_405.png,YEAR,5ea166af93435d0008a8a341,21/08/1953,2020-09-10_14h14.51.894,proactive3.1,2020.1.2,Win32,60,5f599a131af4471f3d752b7b,5f5a26a4def27f07c2332f7e,5,,,,,,anchor,,,,,,,,,,,4,1,0,48,48,34,1,,,,,,,,,,,,,,,,,,,,,,,,,,,,,,,,,,,,,,,,,,,,,,,,,,,,,,,,,,,,,,,,,,,,,,,,,,,,,,,,,,,,,,,,,,,,,,,,,,,,,,,,
,,?,0.00031,0,,,,,,stimuli/images/PICTURE_32.png,KIND,5ea166af93435d0008a8a341,21/08/1953,2020-09-10_14h14.51.894,proactive3.1,2020.1.2,Win32,60,5f599a131af4471f3d752b7b,5f5a26a4def27f07c2332f7e,5,,,,,,crown,,,,,,,,,,,4,1,0,49,49,35,1,,,,,,,,,,,,,,,,,,,,,,,,,,,,,,,,,,,,,,,,,,,,,,,,,,,,,,,,,,,,,,,,,,,,,,,,,,,,,,,,,,,,,,,,,,,,,,,,,,,,,,,,
,,?,0.00029,0,,,,,,stimuli/images/PICTURE_564.png,BATH,5ea166af93435d0008a8a341,21/08/1953,2020-09-10_14h14.51.894,proactive3.1,2020.1.2,Win32,60,5f599a131af4471f3d752b7b,5f5a26a4def27f07c2332f7e,5,,,,,,spoon,,,,,,,,,,,3,1,0,50,50,26,1,,,,,,,,,,,,,,,,,,,,,,,,,,,,,,,,,,,,,,,,,,,,,,,,,,,,,,,,,,,,,,,,,,,,,,,,,,,,,,,,,,,,,,,,,,,,,,,,,,,,,,,,
,,?,0.00025,0,,,,,,stimuli/images/PICTURE_750.png,HOTEL,5ea166af93435d0008a8a341,21/08/1953,2020-09-10_14h14.51.894,proactive3.1,2020.1.2,Win32,60,5f599a131af4471f3d752b7b,5f5a26a4def27f07c2332f7e,5,,,,,,kettle,,,,,,,,,,,3,1,0,51,51,27,1,,,,,,,,,,,,,,,,,,,,,,,,,,,,,,,,,,,,,,,,,,,,,,,,,,,,,,,,,,,,,,,,,,,,,,,,,,,,,,,,,,,,,,,,,,,,,,,,,,,,,,,,
,,?,0.00026,0,,,,,,stimuli/images/PICTURE_340.png,VALLEY,5ea166af93435d0008a8a341,21/08/1953,2020-09-10_14h14.51.894,proactive3.1,2020.1.2,Win32,60,5f599a131af4471f3d752b7b,5f5a26a4def27f07c2332f7e,5,,,,,,mirror,,,,,,,,,,,6,1,0,52,52,54,1,,,,,,,,,,,,,,,,,,,,,,,,,,,,,,,,,,,,,,,,,,,,,,,,,,,,,,,,,,,,,,,,,,,,,,,,,,,,,,,,,,,,,,,,,,,,,,,,,,,,,,,,
,,?,0.000435,0,,,,,,stimuli/images/PICTURE_491.png,RIVER,5ea166af93435d0008a8a341,21/08/1953,2020-09-10_14h14.51.894,proactive3.1,2020.1.2,Win32,60,5f599a131af4471f3d752b7b,5f5a26a4def27f07c2332f7e,5,,,,,,rug,,,,,,,,,,,1,1,0,53,53,6,1,,,,,,,,,,,,,,,,,,,,,,,,,,,,,,,,,,,,,,,,,,,,,,,,,,,,,,,,,,,,,,,,,,,,,,,,,,,,,,,,,,,,,,,,,,,,,,,,,,,,,,,,
,,?,0.000385,0,,,,,,stimuli/images/PICTURE_327.png,SERIES,5ea166af93435d0008a8a341,21/08/1953,2020-09-10_14h14.51.894,proactive3.1,2020.1.2,Win32,60,5f599a131af4471f3d752b7b,5f5a26a4def27f07c2332f7e,5,,,,,,helmet,,,,,,,,,,,1,1,0,54,54,3,1,,,,,,,,,,,,,,,,,,,,,,,,,,,,,,,,,,,,,,,,,,,,,,,,,,,,,,,,,,,,,,,,,,,,,,,,,,,,,,,,,,,,,,,,,,,,,,,,,,,,,,,,
,,?,0.000545,0,,,,,,stimuli/images/PICTURE_654.png,MONTH,5ea166af93435d0008a8a341,21/08/1953,2020-09-10_14h14.51.894,proactive3.1,2020.1.2,Win32,60,5f599a131af4471f3d752b7b,5f5a26a4def27f07c2332f7e,5,,,,,,pencil,,,,,,,,,,,3,1,0,55,55,29,1,,,,,,,,,,,,,,,,,,,,,,,,,,,,,,,,,,,,,,,,,,,,,,,,,,,,,,,,,,,,,,,,,,,,,,,,,,,,,,,,,,,,,,,,,,,,,,,,,,,,,,,,
,,?,0.000785,0,,,,,,stimuli/images/PICTURE_296.png,LIFE,5ea166af93435d0008a8a341,21/08/1953,2020-09-10_14h14.51.894,proactive3.1,2020.1.2,Win32,60,5f599a131af4471f3d752b7b,5f5a26a4def27f07c2332f7e,5,,,,,,bolt,,,,,,,,,,,6,1,0,56,56,57,1,,,,,,,,,,,,,,,,,,,,,,,,,,,,,,,,,,,,,,,,,,,,,,,,,,,,,,,,,,,,,,,,,,,,,,,,,,,,,,,,,,,,,,,,,,,,,,,,,,,,,,,,
,,?,0.000315,0,,,,,,stimuli/images/PICTURE_340.png,LETTER,5ea166af93435d0008a8a341,21/08/1953,2020-09-10_14h14.51.894,proactive3.1,2020.1.2,Win32,60,5f599a131af4471f3d752b7b,5f5a26a4def27f07c2332f7e,5,,,,,,mirror,,,,,,,,,,,3,1,0,57,57,24,1,,,,,,,,,,,,,,,,,,,,,,,,,,,,,,,,,,,,,,,,,,,,,,,,,,,,,,,,,,,,,,,,,,,,,,,,,,,,,,,,,,,,,,,,,,,,,,,,,,,,,,,,
,,?,0.00024,0,,,,,,stimuli/images/PICTURE_108.png,POLICY,5ea166af93435d0008a8a341,21/08/1953,2020-09-10_14h14.51.894,proactive3.1,2020.1.2,Win32,60,5f599a131af4471f3d752b7b,5f5a26a4def27f07c2332f7e,5,,,,,,calendar,,,,,,,,,,,3,1,0,58,58,22,1,,,,,,,,,,,,,,,,,,,,,,,,,,,,,,,,,,,,,,,,,,,,,,,,,,,,,,,,,,,,,,,,,,,,,,,,,,,,,,,,,,,,,,,,,,,,,,,,,,,,,,,,
,,?,0.000305,0,,,,,,stimuli/images/PICTURE_57.png,MOMENT,5ea166af93435d0008a8a341,21/08/1953,2020-09-10_14h14.51.894,proactive3.1,2020.1.2,Win32,60,5f599a131af4471f3d752b7b,5f5a26a4def27f07c2332f7e,5,,,,,,stamp,,,,,,,,,,,4,1,0,59,59,37,1,,,,,,,,,,,,,,,,,,,,,,,,,,,,,,,,,,,,,,,,,,,,,,,,,,,,,,,,,,,,,,,,,,,,,,,,,,,,,,,,,,,,,,,,,,,,,,,,,,,,,,,,
,,,,,,,,,,,,5ea166af93435d0008a8a341,21/08/1953,2020-09-10_14h14.51.894,proactive3.1,2020.1.2,Win32,60,5f599a131af4471f3d752b7b,5f5a26a4def27f07c2332f7e,5,,,,,,,,,,,,,,,,,,,,,,,,0,1,1,1,1,stimuli/learn-block2.csv,,,,,,,,,,,,,,,,,,,,,,,,,,,,,,,,,,,,,,,,,,,,,,,,,,,,,,,,,,,,,,,,,,,,,,,,,,,,,,,,,,,,,,,,,,,,,,,,,,
,,,,,,,,,,stimuli/images/PICTURE_677.png,MILE,5ea166af93435d0008a8a341,21/08/1953,2020-09-10_14h14.51.894,proactive3.1,2020.1.2,Win32,60,5f599a131af4471f3d752b7b,5f5a26a4def27f07c2332f7e,5,,,,,,map,,,,,,0,0,0,30,1,4,0,,,,,,,,,,,,,,,,,,,,,,,,,,,,,,,,,,,,,,,,,,,,,,,,,,,,,,,,,,,,,,,,,,,,,,,,,,,,,,,,,,,,,,,,,,,,,,,,,,,,,,,,,,,,,
,,,,,,,,,,stimuli/images/PICTURE_453.png,PLENTY,5ea166af93435d0008a8a341,21/08/1953,2020-09-10_14h14.51.894,proactive3.1,2020.1.2,Win32,60,5f599a131af4471f3d752b7b,5f5a26a4def27f07c2332f7e,5,,,,,,scissors,,,,,,0,1,1,56,1,6,0,,,,,,,,,,,,,,,,,,,,,,,,,,,,,,,,,,,,,,,,,,,,,,,,,,,,,,,,,,,,,,,,,,,,,,,,,,,,,,,,,,,,,,,,,,,,,,,,,,,,,,,,,,,,,
,,,,,,,,,,stimuli/images/PICTURE_85.png,THING,5ea166af93435d0008a8a341,21/08/1953,2020-09-10_14h14.51.894,proactive3.1,2020.1.2,Win32,60,5f599a131af4471f3d752b7b,5f5a26a4def27f07c2332f7e,5,,,,,,diamond,,,,,,0,2,2,15,1,2,0,,,,,,,,,,,,,,,,,,,,,,,,,,,,,,,,,,,,,,,,,,,,,,,,,,,,,,,,,,,,,,,,,,,,,,,,,,,,,,,,,,,,,,,,,,,,,,,,,,,,,,,,,,,,,
,,,,,,,,,,stimuli/images/PICTURE_488.png,STYLE,5ea166af93435d0008a8a341,21/08/1953,2020-09-10_14h14.51.894,proactive3.1,2020.1.2,Win32,60,5f599a131af4471f3d752b7b,5f5a26a4def27f07c2332f7e,5,,,,,,sun,,,,,,0,3,3,33,1,4,0,,,,,,,,,,,,,,,,,,,,,,,,,,,,,,,,,,,,,,,,,,,,,,,,,,,,,,,,,,,,,,,,,,,,,,,,,,,,,,,,,,,,,,,,,,,,,,,,,,,,,,,,,,,,,
,,,,,,,,,,stimuli/images/PICTURE_688.png,WOMEN,5ea166af93435d0008a8a341,21/08/1953,2020-09-10_14h14.51.894,proactive3.1,2020.1.2,Win32,60,5f599a131af4471f3d752b7b,5f5a26a4def27f07c2332f7e,5,,,,,,runner,,,,,,0,4,4,14,1,2,0,,,,,,,,,,,,,,,,,,,,,,,,,,,,,,,,,,,,,,,,,,,,,,,,,,,,,,,,,,,,,,,,,,,,,,,,,,,,,,,,,,,,,,,,,,,,,,,,,,,,,,,,,,,,,
,,,,,,,,,,stimuli/images/PICTURE_453.png,DUDE,5ea166af93435d0008a8a341,21/08/1953,2020-09-10_14h14.51.894,proactive3.1,2020.1.2,Win32,60,5f599a131af4471f3d752b7b,5f5a26a4def27f07c2332f7e,5,,,,,,scissors,,,,,,0,5,5,27,1,3,0,,,,,,,,,,,,,,,,,,,,,,,,,,,,,,,,,,,,,,,,,,,,,,,,,,,,,,,,,,,,,,,,,,,,,,,,,,,,,,,,,,,,,,,,,,,,,,,,,,,,,,,,,,,,,
,,,,,,,,,,stimuli/images/PICTURE_160.png,LEADER,5ea166af93435d0008a8a341,21/08/1953,2020-09-10_14h14.51.894,proactive3.1,2020.1.2,Win32,60,5f599a131af4471f3d752b7b,5f5a26a4def27f07c2332f7e,5,,,,,,wheelbarrow,,,,,,0,6,6,3,1,1,0,,,,,,,,,,,,,,,,,,,,,,,,,,,,,,,,,,,,,,,,,,,,,,,,,,,,,,,,,,,,,,,,,,,,,,,,,,,,,,,,,,,,,,,,,,,,,,,,,,,,,,,,,,,,,
,,,,,,,,,,stimuli/images/PICTURE_744.png,SYSTEM,5ea166af93435d0008a8a341,21/08/1953,2020-09-10_14h14.51.894,proactive3.1,2020.1.2,Win32,60,5f599a131af4471f3d752b7b,5f5a26a4def27f07c2332f7e,5,,,,,,ring,,,,,,0,7,7,43,1,5,0,,,,,,,,,,,,,,,,,,,,,,,,,,,,,,,,,,,,,,,,,,,,,,,,,,,,,,,,,,,,,,,,,,,,,,,,,,,,,,,,,,,,,,,,,,,,,,,,,,,,,,,,,,,,,
,,,,,,,,,,stimuli/images/PICTURE_356.png,DANGER,5ea166af93435d0008a8a341,21/08/1953,2020-09-10_14h14.51.894,proactive3.1,2020.1.2,Win32,60,5f599a131af4471f3d752b7b,5f5a26a4def27f07c2332f7e,5,,,,,,pawn,,,,,,0,8,8,55,1,6,0,,,,,,,,,,,,,,,,,,,,,,,,,,,,,,,,,,,,,,,,,,,,,,,,,,,,,,,,,,,,,,,,,,,,,,,,,,,,,,,,,,,,,,,,,,,,,,,,,,,,,,,,,,,,,
,,,,,,,,,,stimuli/images/PICTURE_308.png,ESTATE,5ea166af93435d0008a8a341,21/08/1953,2020-09-10_14h14.51.894,proactive3.1,2020.1.2,Win32,60,5f599a131af4471f3d752b7b,5f5a26a4def27f07c2332f7e,5,,,,,,dice,,,,,,0,9,9,46,1,5,0,,,,,,,,,,,,,,,,,,,,,,,,,,,,,,,,,,,,,,,,,,,,,,,,,,,,,,,,,,,,,,,,,,,,,,,,,,,,,,,,,,,,,,,,,,,,,,,,,,,,,,,,,,,,,
,,,,,,,,,,stimuli/images/PICTURE_314.png,GODS,5ea166af93435d0008a8a341,21/08/1953,2020-09-10_14h14.51.894,proactive3.1,2020.1.2,Win32,60,5f599a131af4471f3d752b7b,5f5a26a4def27f07c2332f7e,5,,,,,,perfume,,,,,,0,10,10,11,1,2,0,,,,,,,,,,,,,,,,,,,,,,,,,,,,,,,,,,,,,,,,,,,,,,,,,,,,,,,,,,,,,,,,,,,,,,,,,,,,,,,,,,,,,,,,,,,,,,,,,,,,,,,,,,,,,
,,,,,,,,,,stimuli/images/PICTURE_123.png,ADVICE,5ea166af93435d0008a8a341,21/08/1953,2020-09-10_14h14.51.894,proactive3.1,2020.1.2,Win32,60,5f599a131af4471f3d752b7b,5f5a26a4def27f07c2332f7e,5,,,,,,dart,,,,,,0,11,11,40,1,5,0,,,,,,,,,,,,,,,,,,,,,,,,,,,,,,,,,,,,,,,,,,,,,,,,,,,,,,,,,,,,,,,,,,,,,,,,,,,,,,,,,,,,,,,,,,,,,,,,,,,,,,,,,,,,,
,,,,,,,,,,stimuli/images/PICTURE_95.png,STYLE,5ea166af93435d0008a8a341,21/08/1953,2020-09-10_14h14.51.894,proactive3.1,2020.1.2,Win32,60,5f599a131af4471f3d752b7b,5f5a26a4def27f07c2332f7e,5,,,,,,suitcase,,,,,,0,12,12,25,1,3,0,,,,,,,,,,,,,,,,,,,,,,,,,,,,,,,,,,,,,,,,,,,,,,,,,,,,,,,,,,,,,,,,,,,,,,,,,,,,,,,,,,,,,,,,,,,,,,,,,,,,,,,,,,,,,
,,,,,,,,,,stimuli/images/PICTURE_160.png,FEET,5ea166af93435d0008a8a341,21/08/1953,2020-09-10_14h14.51.894,proactive3.1,2020.1.2,Win32,60,5f599a131af4471f3d752b7b,5f5a26a4def27f07c2332f7e,5,,,,,,wheelbarrow,,,,,,0,13,13,58,1,6,0,,,,,,,,,,,,,,,,,,,,,,,,,,,,,,,,,,,,,,,,,,,,,,,,,,,,,,,,,,,,,,,,,,,,,,,,,,,,,,,,,,,,,,,,,,,,,,,,,,,,,,,,,,,,,
,,,,,,,,,,stimuli/images/PICTURE_327.png,BEAUTY,5ea166af93435d0008a8a341,21/08/1953,2020-09-10_14h14.51.894,proactive3.1,2020.1.2,Win32,60,5f599a131af4471f3d752b7b,5f5a26a4def27f07c2332f7e,5,,,,,,helmet,,,,,,0,14,14,48,1,5,0,,,,,,,,,,,,,,,,,,,,,,,,,,,,,,,,,,,,,,,,,,,,,,,,,,,,,,,,,,,,,,,,,,,,,,,,,,,,,,,,,,,,,,,,,,,,,,,,,,,,,,,,,,,,,
,,,,,,,,,,stimuli/images/PICTURE_675.png,WEAPON,5ea166af93435d0008a8a341,21/08/1953,2020-09-10_14h14.51.894,proactive3.1,2020.1.2,Win32,60,5f599a131af4471f3d752b7b,5f5a26a4def27f07c2332f7e,5,,,,,,windmill,,,,,,0,15,15,32,1,4,0,,,,,,,,,,,,,,,,,,,,,,,,,,,,,,,,,,,,,,,,,,,,,,,,,,,,,,,,,,,,,,,,,,,,,,,,,,,,,,,,,,,,,,,,,,,,,,,,,,,,,,,,,,,,,
,,,,,,,,,,stimuli/images/PICTURE_708.png,PENNY,5ea166af93435d0008a8a341,21/08/1953,2020-09-10_14h14.51.894,proactive3.1,2020.1.2,Win32,60,5f599a131af4471f3d752b7b,5f5a26a4def27f07c2332f7e,5,,,,,,monkey,,,,,,0,16,16,31,1,4,0,,,,,,,,,,,,,,,,,,,,,,,,,,,,,,,,,,,,,,,,,,,,,,,,,,,,,,,,,,,,,,,,,,,,,,,,,,,,,,,,,,,,,,,,,,,,,,,,,,,,,,,,,,,,,
,,,,,,,,,,stimuli/images/PICTURE_708.png,CLIENT,5ea166af93435d0008a8a341,21/08/1953,2020-09-10_14h14.51.894,proactive3.1,2020.1.2,Win32,60,5f599a131af4471f3d752b7b,5f5a26a4def27f07c2332f7e,5,,,,,,monkey,,,,,,0,17,17,5,1,1,0,,,,,,,,,,,,,,,,,,,,,,,,,,,,,,,,,,,,,,,,,,,,,,,,,,,,,,,,,,,,,,,,,,,,,,,,,,,,,,,,,,,,,,,,,,,,,,,,,,,,,,,,,,,,,
,,,,,,,,,,stimuli/images/PICTURE_208.png,THING,5ea166af93435d0008a8a341,21/08/1953,2020-09-10_14h14.51.894,proactive3.1,2020.1.2,Win32,60,5f599a131af4471f3d752b7b,5f5a26a4def27f07c2332f7e,5,,,,,,microphone,,,,,,0,18,18,47,1,5,0,,,,,,,,,,,,,,,,,,,,,,,,,,,,,,,,,,,,,,,,,,,,,,,,,,,,,,,,,,,,,,,,,,,,,,,,,,,,,,,,,,,,,,,,,,,,,,,,,,,,,,,,,,,,,
,,,,,,,,,,stimuli/images/PICTURE_32.png,JUNGLE,5ea166af93435d0008a8a341,21/08/1953,2020-09-10_14h14.51.894,proactive3.1,2020.1.2,Win32,60,5f599a131af4471f3d752b7b,5f5a26a4def27f07c2332f7e,5,,,,,,crown,,,,,,0,19,19,45,1,5,0,,,,,,,,,,,,,,,,,,,,,,,,,,,,,,,,,,,,,,,,,,,,,,,,,,,,,,,,,,,,,,,,,,,,,,,,,,,,,,,,,,,,,,,,,,,,,,,,,,,,,,,,,,,,,
,,,,,,,,,,stimuli/images/PICTURE_509.png,PHOTO,5ea166af93435d0008a8a341,21/08/1953,2020-09-10_14h14.51.894,proactive3.1,2020.1.2,Win32,60,5f599a131af4471f3d752b7b,5f5a26a4def27f07c2332f7e,5,,,,,,telephone,,,,,,0,20,20,21,1,3,0,,,,,,,,,,,,,,,,,,,,,,,,,,,,,,,,,,,,,,,,,,,,,,,,,,,,,,,,,,,,,,,,,,,,,,,,,,,,,,,,,,,,,,,,,,,,,,,,,,,,,,,,,,,,,
,,,,,,,,,,stimuli/images/PICTURE_708.png,YARD,5ea166af93435d0008a8a341,21/08/1953,2020-09-10_14h14.51.894,proactive3.1,2020.1.2,Win32,60,5f599a131af4471f3d752b7b,5f5a26a4def27f07c2332f7e,5,,,,,,monkey,,,,,,0,21,21,29,1,3,0,,,,,,,,,,,,,,,,,,,,,,,,,,,,,,,,,,,,,,,,,,,,,,,,,,,,,,,,,,,,,,,,,,,,,,,,,,,,,,,,,,,,,,,,,,,,,,,,,,,,,,,,,,,,,
,,,,,,,,,,stimuli/images/PICTURE_449.png,THING,5ea166af93435d0008a8a341,21/08/1953,2020-09-10_14h14.51.894,proactive3.1,2020.1.2,Win32,60,5f599a131af4471f3d752b7b,5f5a26a4def27f07c2332f7e,5,,,,,,bench,,,,,,0,22,22,59,1,6,0,,,,,,,,,,,,,,,,,,,,,,,,,,,,,,,,,,,,,,,,,,,,,,,,,,,,,,,,,,,,,,,,,,,,,,,,,,,,,,,,,,,,,,,,,,,,,,,,,,,,,,,,,,,,,
,,,,,,,,,,stimuli/images/PICTURE_470.png,CASINO,5ea166af93435d0008a8a341,21/08/1953,2020-09-10_14h14.51.894,proactive3.1,2020.1.2,Win32,60,5f599a131af4471f3d752b7b,5f5a26a4def27f07c2332f7e,5,,,,,,motorbike,,,,,,0,23,23,36,1,4,0,,,,,,,,,,,,,,,,,,,,,,,,,,,,,,,,,,,,,,,,,,,,,,,,,,,,,,,,,,,,,,,,,,,,,,,,,,,,,,,,,,,,,,,,,,,,,,,,,,,,,,,,,,,,,
,,,,,,,,,,stimuli/images/PICTURE_504.png,BODY,5ea166af93435d0008a8a341,21/08/1953,2020-09-10_14h14.51.894,proactive3.1,2020.1.2,Win32,60,5f599a131af4471f3d752b7b,5f5a26a4def27f07c2332f7e,5,,,,,,wheel,,,,,,0,24,24,8,1,1,0,,,,,,,,,,,,,,,,,,,,,,,,,,,,,,,,,,,,,,,,,,,,,,,,,,,,,,,,,,,,,,,,,,,,,,,,,,,,,,,,,,,,,,,,,,,,,,,,,,,,,,,,,,,,,
,,,,,,,,,,stimuli/images/PICTURE_147.png,MOMENT,5ea166af93435d0008a8a341,21/08/1953,2020-09-10_14h14.51.894,proactive3.1,2020.1.2,Win32,60,5f599a131af4471f3d752b7b,5f5a26a4def27f07c2332f7e,5,,,,,,hanger,,,,,,0,25,25,51,1,6,0,,,,,,,,,,,,,,,,,,,,,,,,,,,,,,,,,,,,,,,,,,,,,,,,,,,,,,,,,,,,,,,,,,,,,,,,,,,,,,,,,,,,,,,,,,,,,,,,,,,,,,,,,,,,,
,,,,,,,,,,stimuli/images/PICTURE_469.png,ARTIST,5ea166af93435d0008a8a341,21/08/1953,2020-09-10_14h14.51.894,proactive3.1,2020.1.2,Win32,60,5f599a131af4471f3d752b7b,5f5a26a4def27f07c2332f7e,5,,,,,,stool,,,,,,0,26,26,6,1,1,0,,,,,,,,,,,,,,,,,,,,,,,,,,,,,,,,,,,,,,,,,,,,,,,,,,,,,,,,,,,,,,,,,,,,,,,,,,,,,,,,,,,,,,,,,,,,,,,,,,,,,,,,,,,,,
,,,,,,,,,,stimuli/images/PICTURE_348.png,SPEECH,5ea166af93435d0008a8a341,21/08/1953,2020-09-10_14h14.51.894,proactive3.1,2020.1.2,Win32,60,5f599a131af4471f3d752b7b,5f5a26a4def27f07c2332f7e,5,,,,,,pepper,,,,,,0,27,27,20,1,3,0,,,,,,,,,,,,,,,,,,,,,,,,,,,,,,,,,,,,,,,,,,,,,,,,,,,,,,,,,,,,,,,,,,,,,,,,,,,,,,,,,,,,,,,,,,,,,,,,,,,,,,,,,,,,,
,,,,,,,,,,stimuli/images/PICTURE_215.png,PLENTY,5ea166af93435d0008a8a341,21/08/1953,2020-09-10_14h14.51.894,proactive3.1,2020.1.2,Win32,60,5f599a131af4471f3d752b7b,5f5a26a4def27f07c2332f7e,5,,,,,,boot,,,,,,0,28,28,37,1,4,0,,,,,,,,,,,,,,,,,,,,,,,,,,,,,,,,,,,,,,,,,,,,,,,,,,,,,,,,,,,,,,,,,,,,,,,,,,,,,,,,,,,,,,,,,,,,,,,,,,,,,,,,,,,,,
,,,,,,,,,,stimuli/images/PICTURE_380.png,PHOTO,5ea166af93435d0008a8a341,21/08/1953,2020-09-10_14h14.51.894,proactive3.1,2020.1.2,Win32,60,5f599a131af4471f3d752b7b,5f5a26a4def27f07c2332f7e,5,,,,,,gorilla,,,,,,0,29,29,52,1,6,0,,,,,,,,,,,,,,,,,,,,,,,,,,,,,,,,,,,,,,,,,,,,,,,,,,,,,,,,,,,,,,,,,,,,,,,,,,,,,,,,,,,,,,,,,,,,,,,,,,,,,,,,,,,,,
,,,,,,,,,,stimuli/images/PICTURE_233.png,WOMEN,5ea166af93435d0008a8a341,21/08/1953,2020-09-10_14h14.51.894,proactive3.1,2020.1.2,Win32,60,5f599a131af4471f3d752b7b,5f5a26a4def27f07c2332f7e,5,,,,,,salt,,,,,,0,30,30,38,1,4,0,,,,,,,,,,,,,,,,,,,,,,,,,,,,,,,,,,,,,,,,,,,,,,,,,,,,,,,,,,,,,,,,,,,,,,,,,,,,,,,,,,,,,,,,,,,,,,,,,,,,,,,,,,,,,
,,,,,,,,,,stimuli/images/PICTURE_380.png,DEATH,5ea166af93435d0008a8a341,21/08/1953,2020-09-10_14h14.51.894,proactive3.1,2020.1.2,Win32,60,5f599a131af4471f3d752b7b,5f5a26a4def27f07c2332f7e,5,,,,,,gorilla,,,,,,0,31,31,49,1,5,0,,,,,,,,,,,,,,,,,,,,,,,,,,,,,,,,,,,,,,,,,,,,,,,,,,,,,,,,,,,,,,,,,,,,,,,,,,,,,,,,,,,,,,,,,,,,,,,,,,,,,,,,,,,,,
,,,,,,,,,,stimuli/images/PICTURE_744.png,SAKE,5ea166af93435d0008a8a341,21/08/1953,2020-09-10_14h14.51.894,proactive3.1,2020.1.2,Win32,60,5f599a131af4471f3d752b7b,5f5a26a4def27f07c2332f7e,5,,,,,,ring,,,,,,0,32,32,17,1,2,0,,,,,,,,,,,,,,,,,,,,,,,,,,,,,,,,,,,,,,,,,,,,,,,,,,,,,,,,,,,,,,,,,,,,,,,,,,,,,,,,,,,,,,,,,,,,,,,,,,,,,,,,,,,,,
,,,,,,,,,,stimuli/images/PICTURE_248.png,DOZEN,5ea166af93435d0008a8a341,21/08/1953,2020-09-10_14h14.51.894,proactive3.1,2020.1.2,Win32,60,5f599a131af4471f3d752b7b,5f5a26a4def27f07c2332f7e,5,,,,,,cart,,,,,,0,33,33,39,1,4,0,,,,,,,,,,,,,,,,,,,,,,,,,,,,,,,,,,,,,,,,,,,,,,,,,,,,,,,,,,,,,,,,,,,,,,,,,,,,,,,,,,,,,,,,,,,,,,,,,,,,,,,,,,,,,
,,,,,,,,,,stimuli/images/PICTURE_208.png,MONTH,5ea166af93435d0008a8a341,21/08/1953,2020-09-10_14h14.51.894,proactive3.1,2020.1.2,Win32,60,5f599a131af4471f3d752b7b,5f5a26a4def27f07c2332f7e,5,,,,,,microphone,,,,,,0,34,34,53,1,6,0,,,,,,,,,,,,,,,,,,,,,,,,,,,,,,,,,,,,,,,,,,,,,,,,,,,,,,,,,,,,,,,,,,,,,,,,,,,,,,,,,,,,,,,,,,,,,,,,,,,,,,,,,,,,,
,,,,,,,,,,stimuli/images/PICTURE_314.png,SAKE,5ea166af93435d0008a8a341,21/08/1953,2020-09-10_14h14.51.894,proactive3.1,2020.1.2,Win32,60,5f599a131af4471f3d752b7b,5f5a26a4def27f07c2332f7e,5,,,,,,perfume,,,,,,0,35,35,7,1,1,0,,,,,,,,,,,,,,,,,,,,,,,,,,,,,,,,,,,,,,,,,,,,,,,,,,,,,,,,,,,,,,,,,,,,,,,,,,,,,,,,,,,,,,,,,,,,,,,,,,,,,,,,,,,,,
,,,,,,,,,,stimuli/images/PICTURE_491.png,ROOF,5ea166af93435d0008a8a341,21/08/1953,2020-09-10_14h14.51.894,proactive3.1,2020.1.2,Win32,60,5f599a131af4471f3d752b7b,5f5a26a4def27f07c2332f7e,5,,,,,,rug,,,,,,0,36,36,24,1,3,0,,,,,,,,,,,,,,,,,,,,,,,,,,,,,,,,,,,,,,,,,,,,,,,,,,,,,,,,,,,,,,,,,,,,,,,,,,,,,,,,,,,,,,,,,,,,,,,,,,,,,,,,,,,,,
,,,,,,,,,,stimuli/images/PICTURE_233.png,IDEAS,5ea166af93435d0008a8a341,21/08/1953,2020-09-10_14h14.51.894,proactive3.1,2020.1.2,Win32,60,5f599a131af4471f3d752b7b,5f5a26a4def27f07c2332f7e,5,,,,,,salt,,,,,,0,37,37,28,1,3,0,,,,,,,,,,,,,,,,,,,,,,,,,,,,,,,,,,,,,,,,,,,,,,,,,,,,,,,,,,,,,,,,,,,,,,,,,,,,,,,,,,,,,,,,,,,,,,,,,,,,,,,,,,,,,
,,,,,,,,,,stimuli/images/PICTURE_68.png,MILE,5ea166af93435d0008a8a341,21/08/1953,2020-09-10_14h14.51.894,proactive3.1,2020.1.2,Win32,60,5f599a131af4471f3d752b7b,5f5a26a4def27f07c2332f7e,5,,,,,,candle,,,,,,0,38,38,44,1,5,0,,,,,,,,,,,,,,,,,,,,,,,,,,,,,,,,,,,,,,,,,,,,,,,,,,,,,,,,,,,,,,,,,,,,,,,,,,,,,,,,,,,,,,,,,,,,,,,,,,,,,,,,,,,,,
