consent_key.keys,consent_key.rt,recalled,recalled_rt,recall_acc,example_recall.thisRepN,example_recall.thisTrialN,example_recall.thisN,example_recall.thisIndex,example_recall.ran,file,word,participant,please enter your date of birth (dd/mm/yyyy),date,expName,psychopyVersion,OS,frameRate,STUDY_ID,SESSION_ID,list,prac_learn_study_loop.thisRepN,prac_learn_study_loop.thisTrialN,prac_learn_study_loop.thisN,prac_learn_study_loop.thisIndex,prac_learn_study_loop.ran,image,prac_learn_test_loop.thisRepN,prac_learn_test_loop.thisTrialN,prac_learn_test_loop.thisN,prac_learn_test_loop.thisIndex,prac_learn_test_loop.ran,learn_study_loop.thisRepN,learn_study_loop.thisTrialN,learn_study_loop.thisN,learn_study_loop.thisIndex,learn_study_loop.ran,list_no,block_no,learn_test_loop.thisRepN,learn_test_loop.thisTrialN,learn_test_loop.thisN,learn_test_loop.thisIndex,learn_test_loop.ran,learn_blocks.thisRepN,learn_blocks.thisTrialN,learn_blocks.thisN,learn_blocks.thisIndex,learn_blocks.ran,block_csv,key_resp_13.keys,key_resp_13.rt,learn_blocks_loop.thisRepN,learn_blocks_loop.thisTrialN,learn_blocks_loop.thisN,learn_blocks_loop.thisIndex,learn_blocks_loop.ran,final_learn_test.thisRepN,final_learn_test.thisTrialN,final_learn_test.thisN,final_learn_test.thisIndex,final_learn_test.ran,s_im1,s_im2,s_im3,s_im4,s_im5,s_im6,s_im7,s_im8,s_im1pos,s_im2pos,s_im3pos,s_im4pos,s_im5pos,s_im6pos,s_im7pos,s_im8pos,s_tarright,search_resp.keys,search_resp.rt,search_loop.thisRepN,search_loop.thisTrialN,search_loop.thisN,search_loop.thisIndex,search_loop.ran,prac_wm_search_loop.thisRepN,prac_wm_search_loop.thisTrialN,prac_wm_search_loop.thisN,prac_wm_search_loop.thisIndex,prac_wm_search_loop.ran,prac_wm_test_loop.thisRepN,prac_wm_test_loop.thisTrialN,prac_wm_test_loop.thisN,prac_wm_test_loop.thisIndex,prac_wm_test_loop.ran,wm_recalled1,wm_recall_rt1,wm_probed1,wm_recall_acc1,wm_recalled2,wm_recall_rt2,wm_probed2,wm_recall_acc2,wm_recalled3,wm_recall_rt3,wm_probed3,wm_recall_acc3,wm_recalled4,wm_recall_rt4,wm_probed4,wm_recall_acc4,prac_wm_trial_loop.thisRepN,prac_wm_trial_loop.thisTrialN,prac_wm_trial_loop.thisN,prac_wm_trial_loop.thisIndex,prac_wm_trial_loop.ran,word1,image1,file1,item_type1,word2,image2,file2,item_type2,word4,image4,file4,item_type4,word3,image3,file3,item_type3,wm_search_loop.thisRepN,wm_search_loop.thisTrialN,wm_search_loop.thisN,wm_search_loop.thisIndex,wm_search_loop.ran,wm_test_loop.thisRepN,wm_test_loop.thisTrialN,wm_test_loop.thisN,wm_test_loop.thisIndex,wm_test_loop.ran,wm_trial_loop.thisRepN,wm_trial_loop.thisTrialN,wm_trial_loop.thisN,wm_trial_loop.thisIndex,wm_trial_loop.ran
y,12.255365,TOUGH,5.23869,1,0,0,0,0,1,stimuli/images/PICTURE_747.png,TOUGH,5ea7434507a21c11406c58d6,04/10/2000,2020-09-02_07h28.10.955,proactive3.1,2020.1.2,MacIntel,60,5f47c29a48bd2a1e651a6eb7,5f4f8181fe322903ef371243,6,,,,,,,,,,,,,,,,,,,,,,,,,,,,,,,,,,,,,,,,,,,,,,,,,,,,,,,,,,,,,,,,,,,,,,,,,,,,,,,,,,,,,,,,,,,,,,,,,,,,,,,,,,,,,,,,,,,,,,,,,,,,,,,
,,,,,,,,,,stimuli/images/PICTURE_378.png,LOSS,5ea7434507a21c11406c58d6,04/10/2000,2020-09-02_07h28.10.955,proactive3.1,2020.1.2,MacIntel,60,5f47c29a48bd2a1e651a6eb7,5f4f8181fe322903ef371243,6,0,0,0,2,1,lobster,,,,,,,,,,,,,,,,,,,,,,,,,,,,,,,,,,,,,,,,,,,,,,,,,,,,,,,,,,,,,,,,,,,,,,,,,,,,,,,,,,,,,,,,,,,,,,,,,,,,,,,,,,,,,,,,,,,,,,,,,
,,,,,,,,,,stimuli/images/PICTURE_658.png,DEVIL,5ea7434507a21c11406c58d6,04/10/2000,2020-09-02_07h28.10.955,proactive3.1,2020.1.2,MacIntel,60,5f47c29a48bd2a1e651a6eb7,5f4f8181fe322903ef371243,6,0,1,1,3,1,crow,,,,,,,,,,,,,,,,,,,,,,,,,,,,,,,,,,,,,,,,,,,,,,,,,,,,,,,,,,,,,,,,,,,,,,,,,,,,,,,,,,,,,,,,,,,,,,,,,,,,,,,,,,,,,,,,,,,,,,,,,
,,,,,,,,,,stimuli/images/PICTURE_697.png,KILLER,5ea7434507a21c11406c58d6,04/10/2000,2020-09-02_07h28.10.955,proactive3.1,2020.1.2,MacIntel,60,5f47c29a48bd2a1e651a6eb7,5f4f8181fe322903ef371243,6,0,2,2,4,1,peach,,,,,,,,,,,,,,,,,,,,,,,,,,,,,,,,,,,,,,,,,,,,,,,,,,,,,,,,,,,,,,,,,,,,,,,,,,,,,,,,,,,,,,,,,,,,,,,,,,,,,,,,,,,,,,,,,,,,,,,,,
,,,,,,,,,,stimuli/images/PICTURE_727.png,CELL,5ea7434507a21c11406c58d6,04/10/2000,2020-09-02_07h28.10.955,proactive3.1,2020.1.2,MacIntel,60,5f47c29a48bd2a1e651a6eb7,5f4f8181fe322903ef371243,6,0,3,3,1,1,hose,,,,,,,,,,,,,,,,,,,,,,,,,,,,,,,,,,,,,,,,,,,,,,,,,,,,,,,,,,,,,,,,,,,,,,,,,,,,,,,,,,,,,,,,,,,,,,,,,,,,,,,,,,,,,,,,,,,,,,,,,
,,LOSS,1.796815,1,,,,,,stimuli/images/PICTURE_378.png,LOSS,5ea7434507a21c11406c58d6,04/10/2000,2020-09-02_07h28.10.955,proactive3.1,2020.1.2,MacIntel,60,5f47c29a48bd2a1e651a6eb7,5f4f8181fe322903ef371243,6,,,,,,lobster,0,0,0,2,1,,,,,,,,,,,,,,,,,,,,,,,,,,,,,,,,,,,,,,,,,,,,,,,,,,,,,,,,,,,,,,,,,,,,,,,,,,,,,,,,,,,,,,,,,,,,,,,,,,,,,,,,,,,,,,,,,,,,
,,GENIUS,3.23253,1,,,,,,stimuli/images/PICTURE_269.png,GENIUS,5ea7434507a21c11406c58d6,04/10/2000,2020-09-02_07h28.10.955,proactive3.1,2020.1.2,MacIntel,60,5f47c29a48bd2a1e651a6eb7,5f4f8181fe322903ef371243,6,,,,,,chameleon,0,1,1,0,1,,,,,,,,,,,,,,,,,,,,,,,,,,,,,,,,,,,,,,,,,,,,,,,,,,,,,,,,,,,,,,,,,,,,,,,,,,,,,,,,,,,,,,,,,,,,,,,,,,,,,,,,,,,,,,,,,,,,
,,KILLER,1.86454,1,,,,,,stimuli/images/PICTURE_697.png,KILLER,5ea7434507a21c11406c58d6,04/10/2000,2020-09-02_07h28.10.955,proactive3.1,2020.1.2,MacIntel,60,5f47c29a48bd2a1e651a6eb7,5f4f8181fe322903ef371243,6,,,,,,peach,0,2,2,4,1,,,,,,,,,,,,,,,,,,,,,,,,,,,,,,,,,,,,,,,,,,,,,,,,,,,,,,,,,,,,,,,,,,,,,,,,,,,,,,,,,,,,,,,,,,,,,,,,,,,,,,,,,,,,,,,,,,,,
,,CELL,1.46497,1,,,,,,stimuli/images/PICTURE_727.png,CELL,5ea7434507a21c11406c58d6,04/10/2000,2020-09-02_07h28.10.955,proactive3.1,2020.1.2,MacIntel,60,5f47c29a48bd2a1e651a6eb7,5f4f8181fe322903ef371243,6,,,,,,hose,0,3,3,1,1,,,,,,,,,,,,,,,,,,,,,,,,,,,,,,,,,,,,,,,,,,,,,,,,,,,,,,,,,,,,,,,,,,,,,,,,,,,,,,,,,,,,,,,,,,,,,,,,,,,,,,,,,,,,,,,,,,,,
,,DEVIL,0.84956,1,,,,,,stimuli/images/PICTURE_658.png,DEVIL,5ea7434507a21c11406c58d6,04/10/2000,2020-09-02_07h28.10.955,proactive3.1,2020.1.2,MacIntel,60,5f47c29a48bd2a1e651a6eb7,5f4f8181fe322903ef371243,6,,,,,,crow,0,4,4,3,1,,,,,,,,,,,,,,,,,,,,,,,,,,,,,,,,,,,,,,,,,,,,,,,,,,,,,,,,,,,,,,,,,,,,,,,,,,,,,,,,,,,,,,,,,,,,,,,,,,,,,,,,,,,,,,,,,,,,
,,,,,,,,,,stimuli/images/PICTURE_655.png,TOILET,5ea7434507a21c11406c58d6,04/10/2000,2020-09-02_07h28.10.955,proactive3.1,2020.1.2,MacIntel,60,5f47c29a48bd2a1e651a6eb7,5f4f8181fe322903ef371243,6,,,,,,megaphone,,,,,,0,0,0,12,1,2,1,,,,,,,,,,,,,,,,,,,,,,,,,,,,,,,,,,,,,,,,,,,,,,,,,,,,,,,,,,,,,,,,,,,,,,,,,,,,,,,,,,,,,,,,,,,,,,,,,,,,,,,,,,,,,
,,,,,,,,,,stimuli/images/PICTURE_108.png,POLICY,5ea7434507a21c11406c58d6,04/10/2000,2020-09-02_07h28.10.955,proactive3.1,2020.1.2,MacIntel,60,5f47c29a48bd2a1e651a6eb7,5f4f8181fe322903ef371243,6,,,,,,calendar,,,,,,0,1,1,22,1,3,1,,,,,,,,,,,,,,,,,,,,,,,,,,,,,,,,,,,,,,,,,,,,,,,,,,,,,,,,,,,,,,,,,,,,,,,,,,,,,,,,,,,,,,,,,,,,,,,,,,,,,,,,,,,,,
,,,,,,,,,,stimuli/images/PICTURE_177.png,WRITER,5ea7434507a21c11406c58d6,04/10/2000,2020-09-02_07h28.10.955,proactive3.1,2020.1.2,MacIntel,60,5f47c29a48bd2a1e651a6eb7,5f4f8181fe322903ef371243,6,,,,,,mushroom,,,,,,0,2,2,41,1,5,1,,,,,,,,,,,,,,,,,,,,,,,,,,,,,,,,,,,,,,,,,,,,,,,,,,,,,,,,,,,,,,,,,,,,,,,,,,,,,,,,,,,,,,,,,,,,,,,,,,,,,,,,,,,,,
,,,,,,,,,,stimuli/images/PICTURE_285.png,LIFE,5ea7434507a21c11406c58d6,04/10/2000,2020-09-02_07h28.10.955,proactive3.1,2020.1.2,MacIntel,60,5f47c29a48bd2a1e651a6eb7,5f4f8181fe322903ef371243,6,,,,,,carrot,,,,,,0,3,3,33,1,4,1,,,,,,,,,,,,,,,,,,,,,,,,,,,,,,,,,,,,,,,,,,,,,,,,,,,,,,,,,,,,,,,,,,,,,,,,,,,,,,,,,,,,,,,,,,,,,,,,,,,,,,,,,,,,,
,,,,,,,,,,stimuli/images/PICTURE_405.png,PLENTY,5ea7434507a21c11406c58d6,04/10/2000,2020-09-02_07h28.10.955,proactive3.1,2020.1.2,MacIntel,60,5f47c29a48bd2a1e651a6eb7,5f4f8181fe322903ef371243,6,,,,,,anchor,,,,,,0,4,4,23,1,3,1,,,,,,,,,,,,,,,,,,,,,,,,,,,,,,,,,,,,,,,,,,,,,,,,,,,,,,,,,,,,,,,,,,,,,,,,,,,,,,,,,,,,,,,,,,,,,,,,,,,,,,,,,,,,,
,,,,,,,,,,stimuli/images/PICTURE_449.png,DUDE,5ea7434507a21c11406c58d6,04/10/2000,2020-09-02_07h28.10.955,proactive3.1,2020.1.2,MacIntel,60,5f47c29a48bd2a1e651a6eb7,5f4f8181fe322903ef371243,6,,,,,,bench,,,,,,0,5,5,17,1,2,1,,,,,,,,,,,,,,,,,,,,,,,,,,,,,,,,,,,,,,,,,,,,,,,,,,,,,,,,,,,,,,,,,,,,,,,,,,,,,,,,,,,,,,,,,,,,,,,,,,,,,,,,,,,,,
,,,,,,,,,,stimuli/images/PICTURE_233.png,LOTS,5ea7434507a21c11406c58d6,04/10/2000,2020-09-02_07h28.10.955,proactive3.1,2020.1.2,MacIntel,60,5f47c29a48bd2a1e651a6eb7,5f4f8181fe322903ef371243,6,,,,,,salt,,,,,,0,6,6,42,1,5,1,,,,,,,,,,,,,,,,,,,,,,,,,,,,,,,,,,,,,,,,,,,,,,,,,,,,,,,,,,,,,,,,,,,,,,,,,,,,,,,,,,,,,,,,,,,,,,,,,,,,,,,,,,,,,
,,,,,,,,,,stimuli/images/PICTURE_297.png,RIVER,5ea7434507a21c11406c58d6,04/10/2000,2020-09-02_07h28.10.955,proactive3.1,2020.1.2,MacIntel,60,5f47c29a48bd2a1e651a6eb7,5f4f8181fe322903ef371243,6,,,,,,aeroplane,,,,,,0,7,7,39,1,4,1,,,,,,,,,,,,,,,,,,,,,,,,,,,,,,,,,,,,,,,,,,,,,,,,,,,,,,,,,,,,,,,,,,,,,,,,,,,,,,,,,,,,,,,,,,,,,,,,,,,,,,,,,,,,,
,,,,,,,,,,stimuli/images/PICTURE_147.png,YEAR,5ea7434507a21c11406c58d6,04/10/2000,2020-09-02_07h28.10.955,proactive3.1,2020.1.2,MacIntel,60,5f47c29a48bd2a1e651a6eb7,5f4f8181fe322903ef371243,6,,,,,,hanger,,,,,,0,8,8,21,1,3,1,,,,,,,,,,,,,,,,,,,,,,,,,,,,,,,,,,,,,,,,,,,,,,,,,,,,,,,,,,,,,,,,,,,,,,,,,,,,,,,,,,,,,,,,,,,,,,,,,,,,,,,,,,,,,
,,,,,,,,,,stimuli/images/PICTURE_108.png,FLIGHT,5ea7434507a21c11406c58d6,04/10/2000,2020-09-02_07h28.10.955,proactive3.1,2020.1.2,MacIntel,60,5f47c29a48bd2a1e651a6eb7,5f4f8181fe322903ef371243,6,,,,,,calendar,,,,,,0,9,9,59,1,6,1,,,,,,,,,,,,,,,,,,,,,,,,,,,,,,,,,,,,,,,,,,,,,,,,,,,,,,,,,,,,,,,,,,,,,,,,,,,,,,,,,,,,,,,,,,,,,,,,,,,,,,,,,,,,,
,,,,,,,,,,stimuli/images/PICTURE_95.png,MILLER,5ea7434507a21c11406c58d6,04/10/2000,2020-09-02_07h28.10.955,proactive3.1,2020.1.2,MacIntel,60,5f47c29a48bd2a1e651a6eb7,5f4f8181fe322903ef371243,6,,,,,,suitcase,,,,,,0,10,10,56,1,6,1,,,,,,,,,,,,,,,,,,,,,,,,,,,,,,,,,,,,,,,,,,,,,,,,,,,,,,,,,,,,,,,,,,,,,,,,,,,,,,,,,,,,,,,,,,,,,,,,,,,,,,,,,,,,,
,,,,,,,,,,stimuli/images/PICTURE_383.png,WRITER,5ea7434507a21c11406c58d6,04/10/2000,2020-09-02_07h28.10.955,proactive3.1,2020.1.2,MacIntel,60,5f47c29a48bd2a1e651a6eb7,5f4f8181fe322903ef371243,6,,,,,,coin,,,,,,0,11,11,28,1,3,1,,,,,,,,,,,,,,,,,,,,,,,,,,,,,,,,,,,,,,,,,,,,,,,,,,,,,,,,,,,,,,,,,,,,,,,,,,,,,,,,,,,,,,,,,,,,,,,,,,,,,,,,,,,,,
,,,,,,,,,,stimuli/images/PICTURE_296.png,LOTS,5ea7434507a21c11406c58d6,04/10/2000,2020-09-02_07h28.10.955,proactive3.1,2020.1.2,MacIntel,60,5f47c29a48bd2a1e651a6eb7,5f4f8181fe322903ef371243,6,,,,,,bolt,,,,,,0,12,12,9,1,1,1,,,,,,,,,,,,,,,,,,,,,,,,,,,,,,,,,,,,,,,,,,,,,,,,,,,,,,,,,,,,,,,,,,,,,,,,,,,,,,,,,,,,,,,,,,,,,,,,,,,,,,,,,,,,,
,,,,,,,,,,stimuli/images/PICTURE_208.png,SYSTEM,5ea7434507a21c11406c58d6,04/10/2000,2020-09-02_07h28.10.955,proactive3.1,2020.1.2,MacIntel,60,5f47c29a48bd2a1e651a6eb7,5f4f8181fe322903ef371243,6,,,,,,microphone,,,,,,0,13,13,32,1,4,1,,,,,,,,,,,,,,,,,,,,,,,,,,,,,,,,,,,,,,,,,,,,,,,,,,,,,,,,,,,,,,,,,,,,,,,,,,,,,,,,,,,,,,,,,,,,,,,,,,,,,,,,,,,,,
,,,,,,,,,,stimuli/images/PICTURE_327.png,CASINO,5ea7434507a21c11406c58d6,04/10/2000,2020-09-02_07h28.10.955,proactive3.1,2020.1.2,MacIntel,60,5f47c29a48bd2a1e651a6eb7,5f4f8181fe322903ef371243,6,,,,,,helmet,,,,,,0,14,14,20,1,3,1,,,,,,,,,,,,,,,,,,,,,,,,,,,,,,,,,,,,,,,,,,,,,,,,,,,,,,,,,,,,,,,,,,,,,,,,,,,,,,,,,,,,,,,,,,,,,,,,,,,,,,,,,,,,,
,,,,,,,,,,stimuli/images/PICTURE_85.png,TOILET,5ea7434507a21c11406c58d6,04/10/2000,2020-09-02_07h28.10.955,proactive3.1,2020.1.2,MacIntel,60,5f47c29a48bd2a1e651a6eb7,5f4f8181fe322903ef371243,6,,,,,,diamond,,,,,,0,15,15,48,1,5,1,,,,,,,,,,,,,,,,,,,,,,,,,,,,,,,,,,,,,,,,,,,,,,,,,,,,,,,,,,,,,,,,,,,,,,,,,,,,,,,,,,,,,,,,,,,,,,,,,,,,,,,,,,,,,
,,,,,,,,,,stimuli/images/PICTURE_380.png,HONEY,5ea7434507a21c11406c58d6,04/10/2000,2020-09-02_07h28.10.955,proactive3.1,2020.1.2,MacIntel,60,5f47c29a48bd2a1e651a6eb7,5f4f8181fe322903ef371243,6,,,,,,gorilla,,,,,,0,16,16,19,1,2,1,,,,,,,,,,,,,,,,,,,,,,,,,,,,,,,,,,,,,,,,,,,,,,,,,,,,,,,,,,,,,,,,,,,,,,,,,,,,,,,,,,,,,,,,,,,,,,,,,,,,,,,,,,,,,
,,,,,,,,,,stimuli/images/PICTURE_32.png,KIND,5ea7434507a21c11406c58d6,04/10/2000,2020-09-02_07h28.10.955,proactive3.1,2020.1.2,MacIntel,60,5f47c29a48bd2a1e651a6eb7,5f4f8181fe322903ef371243,6,,,,,,crown,,,,,,0,17,17,35,1,4,1,,,,,,,,,,,,,,,,,,,,,,,,,,,,,,,,,,,,,,,,,,,,,,,,,,,,,,,,,,,,,,,,,,,,,,,,,,,,,,,,,,,,,,,,,,,,,,,,,,,,,,,,,,,,,
,,,,,,,,,,stimuli/images/PICTURE_405.png,YEAR,5ea7434507a21c11406c58d6,04/10/2000,2020-09-02_07h28.10.955,proactive3.1,2020.1.2,MacIntel,60,5f47c29a48bd2a1e651a6eb7,5f4f8181fe322903ef371243,6,,,,,,anchor,,,,,,0,18,18,34,1,4,1,,,,,,,,,,,,,,,,,,,,,,,,,,,,,,,,,,,,,,,,,,,,,,,,,,,,,,,,,,,,,,,,,,,,,,,,,,,,,,,,,,,,,,,,,,,,,,,,,,,,,,,,,,,,,
,,,,,,,,,,stimuli/images/PICTURE_403.png,WRITER,5ea7434507a21c11406c58d6,04/10/2000,2020-09-02_07h28.10.955,proactive3.1,2020.1.2,MacIntel,60,5f47c29a48bd2a1e651a6eb7,5f4f8181fe322903ef371243,6,,,,,,cathedral,,,,,,0,19,19,31,1,4,1,,,,,,,,,,,,,,,,,,,,,,,,,,,,,,,,,,,,,,,,,,,,,,,,,,,,,,,,,,,,,,,,,,,,,,,,,,,,,,,,,,,,,,,,,,,,,,,,,,,,,,,,,,,,,
,,,,,,,,,,stimuli/images/PICTURE_203.png,NIGHT,5ea7434507a21c11406c58d6,04/10/2000,2020-09-02_07h28.10.955,proactive3.1,2020.1.2,MacIntel,60,5f47c29a48bd2a1e651a6eb7,5f4f8181fe322903ef371243,6,,,,,,cap,,,,,,0,20,20,2,1,1,1,,,,,,,,,,,,,,,,,,,,,,,,,,,,,,,,,,,,,,,,,,,,,,,,,,,,,,,,,,,,,,,,,,,,,,,,,,,,,,,,,,,,,,,,,,,,,,,,,,,,,,,,,,,,,
,,,,,,,,,,stimuli/images/PICTURE_32.png,PILLS,5ea7434507a21c11406c58d6,04/10/2000,2020-09-02_07h28.10.955,proactive3.1,2020.1.2,MacIntel,60,5f47c29a48bd2a1e651a6eb7,5f4f8181fe322903ef371243,6,,,,,,crown,,,,,,0,21,21,18,1,2,1,,,,,,,,,,,,,,,,,,,,,,,,,,,,,,,,,,,,,,,,,,,,,,,,,,,,,,,,,,,,,,,,,,,,,,,,,,,,,,,,,,,,,,,,,,,,,,,,,,,,,,,,,,,,,
,,,,,,,,,,stimuli/images/PICTURE_340.png,LETTER,5ea7434507a21c11406c58d6,04/10/2000,2020-09-02_07h28.10.955,proactive3.1,2020.1.2,MacIntel,60,5f47c29a48bd2a1e651a6eb7,5f4f8181fe322903ef371243,6,,,,,,mirror,,,,,,0,22,22,24,1,3,1,,,,,,,,,,,,,,,,,,,,,,,,,,,,,,,,,,,,,,,,,,,,,,,,,,,,,,,,,,,,,,,,,,,,,,,,,,,,,,,,,,,,,,,,,,,,,,,,,,,,,,,,,,,,,
,,,,,,,,,,stimuli/images/PICTURE_654.png,MONTH,5ea7434507a21c11406c58d6,04/10/2000,2020-09-02_07h28.10.955,proactive3.1,2020.1.2,MacIntel,60,5f47c29a48bd2a1e651a6eb7,5f4f8181fe322903ef371243,6,,,,,,pencil,,,,,,0,23,23,29,1,3,1,,,,,,,,,,,,,,,,,,,,,,,,,,,,,,,,,,,,,,,,,,,,,,,,,,,,,,,,,,,,,,,,,,,,,,,,,,,,,,,,,,,,,,,,,,,,,,,,,,,,,,,,,,,,,
,,,,,,,,,,stimuli/images/PICTURE_677.png,APPLE,5ea7434507a21c11406c58d6,04/10/2000,2020-09-02_07h28.10.955,proactive3.1,2020.1.2,MacIntel,60,5f47c29a48bd2a1e651a6eb7,5f4f8181fe322903ef371243,6,,,,,,map,,,,,,0,24,24,43,1,5,1,,,,,,,,,,,,,,,,,,,,,,,,,,,,,,,,,,,,,,,,,,,,,,,,,,,,,,,,,,,,,,,,,,,,,,,,,,,,,,,,,,,,,,,,,,,,,,,,,,,,,,,,,,,,,
,,,,,,,,,,stimuli/images/PICTURE_42.png,BOYS,5ea7434507a21c11406c58d6,04/10/2000,2020-09-02_07h28.10.955,proactive3.1,2020.1.2,MacIntel,60,5f47c29a48bd2a1e651a6eb7,5f4f8181fe322903ef371243,6,,,,,,pear,,,,,,0,25,25,55,1,6,1,,,,,,,,,,,,,,,,,,,,,,,,,,,,,,,,,,,,,,,,,,,,,,,,,,,,,,,,,,,,,,,,,,,,,,,,,,,,,,,,,,,,,,,,,,,,,,,,,,,,,,,,,,,,,
,,,,,,,,,,stimuli/images/PICTURE_469.png,AGENT,5ea7434507a21c11406c58d6,04/10/2000,2020-09-02_07h28.10.955,proactive3.1,2020.1.2,MacIntel,60,5f47c29a48bd2a1e651a6eb7,5f4f8181fe322903ef371243,6,,,,,,stool,,,,,,0,26,26,16,1,2,1,,,,,,,,,,,,,,,,,,,,,,,,,,,,,,,,,,,,,,,,,,,,,,,,,,,,,,,,,,,,,,,,,,,,,,,,,,,,,,,,,,,,,,,,,,,,,,,,,,,,,,,,,,,,,
,,,,,,,,,,stimuli/images/PICTURE_68.png,MILE,5ea7434507a21c11406c58d6,04/10/2000,2020-09-02_07h28.10.955,proactive3.1,2020.1.2,MacIntel,60,5f47c29a48bd2a1e651a6eb7,5f4f8181fe322903ef371243,6,,,,,,candle,,,,,,0,27,27,51,1,6,1,,,,,,,,,,,,,,,,,,,,,,,,,,,,,,,,,,,,,,,,,,,,,,,,,,,,,,,,,,,,,,,,,,,,,,,,,,,,,,,,,,,,,,,,,,,,,,,,,,,,,,,,,,,,,
,,,,,,,,,,stimuli/images/PICTURE_308.png,FAMILY,5ea7434507a21c11406c58d6,04/10/2000,2020-09-02_07h28.10.955,proactive3.1,2020.1.2,MacIntel,60,5f47c29a48bd2a1e651a6eb7,5f4f8181fe322903ef371243,6,,,,,,dice,,,,,,0,28,28,36,1,4,1,,,,,,,,,,,,,,,,,,,,,,,,,,,,,,,,,,,,,,,,,,,,,,,,,,,,,,,,,,,,,,,,,,,,,,,,,,,,,,,,,,,,,,,,,,,,,,,,,,,,,,,,,,,,,
,,,,,,,,,,stimuli/images/PICTURE_339.png,CLIENT,5ea7434507a21c11406c58d6,04/10/2000,2020-09-02_07h28.10.955,proactive3.1,2020.1.2,MacIntel,60,5f47c29a48bd2a1e651a6eb7,5f4f8181fe322903ef371243,6,,,,,,backpack,,,,,,0,29,29,11,1,2,1,,,,,,,,,,,,,,,,,,,,,,,,,,,,,,,,,,,,,,,,,,,,,,,,,,,,,,,,,,,,,,,,,,,,,,,,,,,,,,,,,,,,,,,,,,,,,,,,,,,,,,,,,,,,,
,,,,,,,,,,stimuli/images/PICTURE_95.png,BOYS,5ea7434507a21c11406c58d6,04/10/2000,2020-09-02_07h28.10.955,proactive3.1,2020.1.2,MacIntel,60,5f47c29a48bd2a1e651a6eb7,5f4f8181fe322903ef371243,6,,,,,,suitcase,,,,,,0,30,30,1,1,1,1,,,,,,,,,,,,,,,,,,,,,,,,,,,,,,,,,,,,,,,,,,,,,,,,,,,,,,,,,,,,,,,,,,,,,,,,,,,,,,,,,,,,,,,,,,,,,,,,,,,,,,,,,,,,,
,,,,,,,,,,stimuli/images/PICTURE_491.png,GLASS,5ea7434507a21c11406c58d6,04/10/2000,2020-09-02_07h28.10.955,proactive3.1,2020.1.2,MacIntel,60,5f47c29a48bd2a1e651a6eb7,5f4f8181fe322903ef371243,6,,,,,,rug,,,,,,0,31,31,14,1,2,1,,,,,,,,,,,,,,,,,,,,,,,,,,,,,,,,,,,,,,,,,,,,,,,,,,,,,,,,,,,,,,,,,,,,,,,,,,,,,,,,,,,,,,,,,,,,,,,,,,,,,,,,,,,,,
,,,,,,,,,,stimuli/images/PICTURE_383.png,SERIES,5ea7434507a21c11406c58d6,04/10/2000,2020-09-02_07h28.10.955,proactive3.1,2020.1.2,MacIntel,60,5f47c29a48bd2a1e651a6eb7,5f4f8181fe322903ef371243,6,,,,,,coin,,,,,,0,32,32,46,1,5,1,,,,,,,,,,,,,,,,,,,,,,,,,,,,,,,,,,,,,,,,,,,,,,,,,,,,,,,,,,,,,,,,,,,,,,,,,,,,,,,,,,,,,,,,,,,,,,,,,,,,,,,,,,,,,
,,,,,,,,,,stimuli/images/PICTURE_95.png,HONEY,5ea7434507a21c11406c58d6,04/10/2000,2020-09-02_07h28.10.955,proactive3.1,2020.1.2,MacIntel,60,5f47c29a48bd2a1e651a6eb7,5f4f8181fe322903ef371243,6,,,,,,suitcase,,,,,,0,33,33,44,1,5,1,,,,,,,,,,,,,,,,,,,,,,,,,,,,,,,,,,,,,,,,,,,,,,,,,,,,,,,,,,,,,,,,,,,,,,,,,,,,,,,,,,,,,,,,,,,,,,,,,,,,,,,,,,,,,
,,,,,,,,,,stimuli/images/PICTURE_327.png,SERIES,5ea7434507a21c11406c58d6,04/10/2000,2020-09-02_07h28.10.955,proactive3.1,2020.1.2,MacIntel,60,5f47c29a48bd2a1e651a6eb7,5f4f8181fe322903ef371243,6,,,,,,helmet,,,,,,0,34,34,3,1,1,1,,,,,,,,,,,,,,,,,,,,,,,,,,,,,,,,,,,,,,,,,,,,,,,,,,,,,,,,,,,,,,,,,,,,,,,,,,,,,,,,,,,,,,,,,,,,,,,,,,,,,,,,,,,,,
,,,,,,,,,,stimuli/images/PICTURE_491.png,RIVER,5ea7434507a21c11406c58d6,04/10/2000,2020-09-02_07h28.10.955,proactive3.1,2020.1.2,MacIntel,60,5f47c29a48bd2a1e651a6eb7,5f4f8181fe322903ef371243,6,,,,,,rug,,,,,,0,35,35,6,1,1,1,,,,,,,,,,,,,,,,,,,,,,,,,,,,,,,,,,,,,,,,,,,,,,,,,,,,,,,,,,,,,,,,,,,,,,,,,,,,,,,,,,,,,,,,,,,,,,,,,,,,,,,,,,,,,
,,,,,,,,,,stimuli/images/PICTURE_467.png,POLICY,5ea7434507a21c11406c58d6,04/10/2000,2020-09-02_07h28.10.955,proactive3.1,2020.1.2,MacIntel,60,5f47c29a48bd2a1e651a6eb7,5f4f8181fe322903ef371243,6,,,,,,peg,,,,,,0,36,36,53,1,6,1,,,,,,,,,,,,,,,,,,,,,,,,,,,,,,,,,,,,,,,,,,,,,,,,,,,,,,,,,,,,,,,,,,,,,,,,,,,,,,,,,,,,,,,,,,,,,,,,,,,,,,,,,,,,,
,,,,,,,,,,stimuli/images/PICTURE_504.png,COPS,5ea7434507a21c11406c58d6,04/10/2000,2020-09-02_07h28.10.955,proactive3.1,2020.1.2,MacIntel,60,5f47c29a48bd2a1e651a6eb7,5f4f8181fe322903ef371243,6,,,,,,wheel,,,,,,0,37,37,52,1,6,1,,,,,,,,,,,,,,,,,,,,,,,,,,,,,,,,,,,,,,,,,,,,,,,,,,,,,,,,,,,,,,,,,,,,,,,,,,,,,,,,,,,,,,,,,,,,,,,,,,,,,,,,,,,,,
,,,,,,,,,,stimuli/images/PICTURE_340.png,VALLEY,5ea7434507a21c11406c58d6,04/10/2000,2020-09-02_07h28.10.955,proactive3.1,2020.1.2,MacIntel,60,5f47c29a48bd2a1e651a6eb7,5f4f8181fe322903ef371243,6,,,,,,mirror,,,,,,0,38,38,54,1,6,1,,,,,,,,,,,,,,,,,,,,,,,,,,,,,,,,,,,,,,,,,,,,,,,,,,,,,,,,,,,,,,,,,,,,,,,,,,,,,,,,,,,,,,,,,,,,,,,,,,,,,,,,,,,,,
,,,,,,,,,,stimuli/images/PICTURE_708.png,RECORD,5ea7434507a21c11406c58d6,04/10/2000,2020-09-02_07h28.10.955,proactive3.1,2020.1.2,MacIntel,60,5f47c29a48bd2a1e651a6eb7,5f4f8181fe322903ef371243,6,,,,,,monkey,,,,,,0,39,39,58,1,6,1,,,,,,,,,,,,,,,,,,,,,,,,,,,,,,,,,,,,,,,,,,,,,,,,,,,,,,,,,,,,,,,,,,,,,,,,,,,,,,,,,,,,,,,,,,,,,,,,,,,,,,,,,,,,,
,,,,,,,,,,stimuli/images/PICTURE_504.png,ARTIST,5ea7434507a21c11406c58d6,04/10/2000,2020-09-02_07h28.10.955,proactive3.1,2020.1.2,MacIntel,60,5f47c29a48bd2a1e651a6eb7,5f4f8181fe322903ef371243,6,,,,,,wheel,,,,,,0,40,40,49,1,5,1,,,,,,,,,,,,,,,,,,,,,,,,,,,,,,,,,,,,,,,,,,,,,,,,,,,,,,,,,,,,,,,,,,,,,,,,,,,,,,,,,,,,,,,,,,,,,,,,,,,,,,,,,,,,,
,,,,,,,,,,stimuli/images/PICTURE_744.png,WEAPON,5ea7434507a21c11406c58d6,04/10/2000,2020-09-02_07h28.10.955,proactive3.1,2020.1.2,MacIntel,60,5f47c29a48bd2a1e651a6eb7,5f4f8181fe322903ef371243,6,,,,,,ring,,,,,,0,41,41,50,1,6,1,,,,,,,,,,,,,,,,,,,,,,,,,,,,,,,,,,,,,,,,,,,,,,,,,,,,,,,,,,,,,,,,,,,,,,,,,,,,,,,,,,,,,,,,,,,,,,,,,,,,,,,,,,,,,
,,,,,,,,,,stimuli/images/PICTURE_203.png,GODS,5ea7434507a21c11406c58d6,04/10/2000,2020-09-02_07h28.10.955,proactive3.1,2020.1.2,MacIntel,60,5f47c29a48bd2a1e651a6eb7,5f4f8181fe322903ef371243,6,,,,,,cap,,,,,,0,42,42,30,1,4,1,,,,,,,,,,,,,,,,,,,,,,,,,,,,,,,,,,,,,,,,,,,,,,,,,,,,,,,,,,,,,,,,,,,,,,,,,,,,,,,,,,,,,,,,,,,,,,,,,,,,,,,,,,,,,
,,,,,,,,,,stimuli/images/PICTURE_403.png,RIVER,5ea7434507a21c11406c58d6,04/10/2000,2020-09-02_07h28.10.955,proactive3.1,2020.1.2,MacIntel,60,5f47c29a48bd2a1e651a6eb7,5f4f8181fe322903ef371243,6,,,,,,cathedral,,,,,,0,43,43,40,1,5,1,,,,,,,,,,,,,,,,,,,,,,,,,,,,,,,,,,,,,,,,,,,,,,,,,,,,,,,,,,,,,,,,,,,,,,,,,,,,,,,,,,,,,,,,,,,,,,,,,,,,,,,,,,,,,
,,,,,,,,,,stimuli/images/PICTURE_57.png,MOMENT,5ea7434507a21c11406c58d6,04/10/2000,2020-09-02_07h28.10.955,proactive3.1,2020.1.2,MacIntel,60,5f47c29a48bd2a1e651a6eb7,5f4f8181fe322903ef371243,6,,,,,,stamp,,,,,,0,44,44,37,1,4,1,,,,,,,,,,,,,,,,,,,,,,,,,,,,,,,,,,,,,,,,,,,,,,,,,,,,,,,,,,,,,,,,,,,,,,,,,,,,,,,,,,,,,,,,,,,,,,,,,,,,,,,,,,,,,
,,,,,,,,,,stimuli/images/PICTURE_675.png,SALE,5ea7434507a21c11406c58d6,04/10/2000,2020-09-02_07h28.10.955,proactive3.1,2020.1.2,MacIntel,60,5f47c29a48bd2a1e651a6eb7,5f4f8181fe322903ef371243,6,,,,,,windmill,,,,,,0,45,45,47,1,5,1,,,,,,,,,,,,,,,,,,,,,,,,,,,,,,,,,,,,,,,,,,,,,,,,,,,,,,,,,,,,,,,,,,,,,,,,,,,,,,,,,,,,,,,,,,,,,,,,,,,,,,,,,,,,,
,,,,,,,,,,stimuli/images/PICTURE_380.png,CANDY,5ea7434507a21c11406c58d6,04/10/2000,2020-09-02_07h28.10.955,proactive3.1,2020.1.2,MacIntel,60,5f47c29a48bd2a1e651a6eb7,5f4f8181fe322903ef371243,6,,,,,,gorilla,,,,,,0,46,46,0,1,1,1,,,,,,,,,,,,,,,,,,,,,,,,,,,,,,,,,,,,,,,,,,,,,,,,,,,,,,,,,,,,,,,,,,,,,,,,,,,,,,,,,,,,,,,,,,,,,,,,,,,,,,,,,,,,,
,,,,,,,,,,stimuli/images/PICTURE_564.png,BATH,5ea7434507a21c11406c58d6,04/10/2000,2020-09-02_07h28.10.955,proactive3.1,2020.1.2,MacIntel,60,5f47c29a48bd2a1e651a6eb7,5f4f8181fe322903ef371243,6,,,,,,spoon,,,,,,0,47,47,26,1,3,1,,,,,,,,,,,,,,,,,,,,,,,,,,,,,,,,,,,,,,,,,,,,,,,,,,,,,,,,,,,,,,,,,,,,,,,,,,,,,,,,,,,,,,,,,,,,,,,,,,,,,,,,,,,,,
,,,,,,,,,,stimuli/images/PICTURE_487.png,GIRL,5ea7434507a21c11406c58d6,04/10/2000,2020-09-02_07h28.10.955,proactive3.1,2020.1.2,MacIntel,60,5f47c29a48bd2a1e651a6eb7,5f4f8181fe322903ef371243,6,,,,,,basket,,,,,,0,48,48,45,1,5,1,,,,,,,,,,,,,,,,,,,,,,,,,,,,,,,,,,,,,,,,,,,,,,,,,,,,,,,,,,,,,,,,,,,,,,,,,,,,,,,,,,,,,,,,,,,,,,,,,,,,,,,,,,,,,
,,,,,,,,,,stimuli/images/PICTURE_685.png,PENNY,5ea7434507a21c11406c58d6,04/10/2000,2020-09-02_07h28.10.955,proactive3.1,2020.1.2,MacIntel,60,5f47c29a48bd2a1e651a6eb7,5f4f8181fe322903ef371243,6,,,,,,goose,,,,,,0,49,49,4,1,1,1,,,,,,,,,,,,,,,,,,,,,,,,,,,,,,,,,,,,,,,,,,,,,,,,,,,,,,,,,,,,,,,,,,,,,,,,,,,,,,,,,,,,,,,,,,,,,,,,,,,,,,,,,,,,,
,,,,,,,,,,stimuli/images/PICTURE_147.png,WOMEN,5ea7434507a21c11406c58d6,04/10/2000,2020-09-02_07h28.10.955,proactive3.1,2020.1.2,MacIntel,60,5f47c29a48bd2a1e651a6eb7,5f4f8181fe322903ef371243,6,,,,,,hanger,,,,,,0,50,50,7,1,1,1,,,,,,,,,,,,,,,,,,,,,,,,,,,,,,,,,,,,,,,,,,,,,,,,,,,,,,,,,,,,,,,,,,,,,,,,,,,,,,,,,,,,,,,,,,,,,,,,,,,,,,,,,,,,,
,,,,,,,,,,stimuli/images/PICTURE_68.png,ROOF,5ea7434507a21c11406c58d6,04/10/2000,2020-09-02_07h28.10.955,proactive3.1,2020.1.2,MacIntel,60,5f47c29a48bd2a1e651a6eb7,5f4f8181fe322903ef371243,6,,,,,,candle,,,,,,0,51,51,38,1,4,1,,,,,,,,,,,,,,,,,,,,,,,,,,,,,,,,,,,,,,,,,,,,,,,,,,,,,,,,,,,,,,,,,,,,,,,,,,,,,,,,,,,,,,,,,,,,,,,,,,,,,,,,,,,,,
,,,,,,,,,,stimuli/images/PICTURE_2.png,FLIGHT,5ea7434507a21c11406c58d6,04/10/2000,2020-09-02_07h28.10.955,proactive3.1,2020.1.2,MacIntel,60,5f47c29a48bd2a1e651a6eb7,5f4f8181fe322903ef371243,6,,,,,,tyre,,,,,,0,52,52,15,1,2,1,,,,,,,,,,,,,,,,,,,,,,,,,,,,,,,,,,,,,,,,,,,,,,,,,,,,,,,,,,,,,,,,,,,,,,,,,,,,,,,,,,,,,,,,,,,,,,,,,,,,,,,,,,,,,
,,,,,,,,,,stimuli/images/PICTURE_504.png,YEAR,5ea7434507a21c11406c58d6,04/10/2000,2020-09-02_07h28.10.955,proactive3.1,2020.1.2,MacIntel,60,5f47c29a48bd2a1e651a6eb7,5f4f8181fe322903ef371243,6,,,,,,wheel,,,,,,0,53,53,13,1,2,1,,,,,,,,,,,,,,,,,,,,,,,,,,,,,,,,,,,,,,,,,,,,,,,,,,,,,,,,,,,,,,,,,,,,,,,,,,,,,,,,,,,,,,,,,,,,,,,,,,,,,,,,,,,,,
,,,,,,,,,,stimuli/images/PICTURE_403.png,TOILET,5ea7434507a21c11406c58d6,04/10/2000,2020-09-02_07h28.10.955,proactive3.1,2020.1.2,MacIntel,60,5f47c29a48bd2a1e651a6eb7,5f4f8181fe322903ef371243,6,,,,,,cathedral,,,,,,0,54,54,25,1,3,1,,,,,,,,,,,,,,,,,,,,,,,,,,,,,,,,,,,,,,,,,,,,,,,,,,,,,,,,,,,,,,,,,,,,,,,,,,,,,,,,,,,,,,,,,,,,,,,,,,,,,,,,,,,,,
,,,,,,,,,,stimuli/images/PICTURE_667.png,RIVER,5ea7434507a21c11406c58d6,04/10/2000,2020-09-02_07h28.10.955,proactive3.1,2020.1.2,MacIntel,60,5f47c29a48bd2a1e651a6eb7,5f4f8181fe322903ef371243,6,,,,,,daisy,,,,,,0,55,55,10,1,2,1,,,,,,,,,,,,,,,,,,,,,,,,,,,,,,,,,,,,,,,,,,,,,,,,,,,,,,,,,,,,,,,,,,,,,,,,,,,,,,,,,,,,,,,,,,,,,,,,,,,,,,,,,,,,,
,,,,,,,,,,stimuli/images/PICTURE_750.png,HOTEL,5ea7434507a21c11406c58d6,04/10/2000,2020-09-02_07h28.10.955,proactive3.1,2020.1.2,MacIntel,60,5f47c29a48bd2a1e651a6eb7,5f4f8181fe322903ef371243,6,,,,,,kettle,,,,,,0,56,56,27,1,3,1,,,,,,,,,,,,,,,,,,,,,,,,,,,,,,,,,,,,,,,,,,,,,,,,,,,,,,,,,,,,,,,,,,,,,,,,,,,,,,,,,,,,,,,,,,,,,,,,,,,,,,,,,,,,,
,,,,,,,,,,stimuli/images/PICTURE_85.png,NATION,5ea7434507a21c11406c58d6,04/10/2000,2020-09-02_07h28.10.955,proactive3.1,2020.1.2,MacIntel,60,5f47c29a48bd2a1e651a6eb7,5f4f8181fe322903ef371243,6,,,,,,diamond,,,,,,0,57,57,5,1,1,1,,,,,,,,,,,,,,,,,,,,,,,,,,,,,,,,,,,,,,,,,,,,,,,,,,,,,,,,,,,,,,,,,,,,,,,,,,,,,,,,,,,,,,,,,,,,,,,,,,,,,,,,,,,,,
,,,,,,,,,,stimuli/images/PICTURE_296.png,LIFE,5ea7434507a21c11406c58d6,04/10/2000,2020-09-02_07h28.10.955,proactive3.1,2020.1.2,MacIntel,60,5f47c29a48bd2a1e651a6eb7,5f4f8181fe322903ef371243,6,,,,,,bolt,,,,,,0,58,58,57,1,6,1,,,,,,,,,,,,,,,,,,,,,,,,,,,,,,,,,,,,,,,,,,,,,,,,,,,,,,,,,,,,,,,,,,,,,,,,,,,,,,,,,,,,,,,,,,,,,,,,,,,,,,,,,,,,,
,,?,0.000865,0,,,,,,stimuli/images/PICTURE_233.png,LOTS,5ea7434507a21c11406c58d6,04/10/2000,2020-09-02_07h28.10.955,proactive3.1,2020.1.2,MacIntel,60,5f47c29a48bd2a1e651a6eb7,5f4f8181fe322903ef371243,6,,,,,,salt,,,,,,,,,,,5,1,0,0,0,42,1,,,,,,,,,,,,,,,,,,,,,,,,,,,,,,,,,,,,,,,,,,,,,,,,,,,,,,,,,,,,,,,,,,,,,,,,,,,,,,,,,,,,,,,,,,,,,,,,,,,,,,,,
,,?,0.00069,0,,,,,,stimuli/images/PICTURE_95.png,HONEY,5ea7434507a21c11406c58d6,04/10/2000,2020-09-02_07h28.10.955,proactive3.1,2020.1.2,MacIntel,60,5f47c29a48bd2a1e651a6eb7,5f4f8181fe322903ef371243,6,,,,,,suitcase,,,,,,,,,,,5,1,0,1,1,44,1,,,,,,,,,,,,,,,,,,,,,,,,,,,,,,,,,,,,,,,,,,,,,,,,,,,,,,,,,,,,,,,,,,,,,,,,,,,,,,,,,,,,,,,,,,,,,,,,,,,,,,,,
,,?,0.000585,0,,,,,,stimuli/images/PICTURE_383.png,WRITER,5ea7434507a21c11406c58d6,04/10/2000,2020-09-02_07h28.10.955,proactive3.1,2020.1.2,MacIntel,60,5f47c29a48bd2a1e651a6eb7,5f4f8181fe322903ef371243,6,,,,,,coin,,,,,,,,,,,3,1,0,2,2,28,1,,,,,,,,,,,,,,,,,,,,,,,,,,,,,,,,,,,,,,,,,,,,,,,,,,,,,,,,,,,,,,,,,,,,,,,,,,,,,,,,,,,,,,,,,,,,,,,,,,,,,,,,
,,?,0.000505,0,,,,,,stimuli/images/PICTURE_491.png,GLASS,5ea7434507a21c11406c58d6,04/10/2000,2020-09-02_07h28.10.955,proactive3.1,2020.1.2,MacIntel,60,5f47c29a48bd2a1e651a6eb7,5f4f8181fe322903ef371243,6,,,,,,rug,,,,,,,,,,,2,1,0,3,3,14,1,,,,,,,,,,,,,,,,,,,,,,,,,,,,,,,,,,,,,,,,,,,,,,,,,,,,,,,,,,,,,,,,,,,,,,,,,,,,,,,,,,,,,,,,,,,,,,,,,,,,,,,,
,,?,0.000505,0,,,,,,stimuli/images/PICTURE_308.png,FAMILY,5ea7434507a21c11406c58d6,04/10/2000,2020-09-02_07h28.10.955,proactive3.1,2020.1.2,MacIntel,60,5f47c29a48bd2a1e651a6eb7,5f4f8181fe322903ef371243,6,,,,,,dice,,,,,,,,,,,4,1,0,4,4,36,1,,,,,,,,,,,,,,,,,,,,,,,,,,,,,,,,,,,,,,,,,,,,,,,,,,,,,,,,,,,,,,,,,,,,,,,,,,,,,,,,,,,,,,,,,,,,,,,,,,,,,,,,
,,?,0.0005,0,,,,,,stimuli/images/PICTURE_449.png,DUDE,5ea7434507a21c11406c58d6,04/10/2000,2020-09-02_07h28.10.955,proactive3.1,2020.1.2,MacIntel,60,5f47c29a48bd2a1e651a6eb7,5f4f8181fe322903ef371243,6,,,,,,bench,,,,,,,,,,,2,1,0,5,5,17,1,,,,,,,,,,,,,,,,,,,,,,,,,,,,,,,,,,,,,,,,,,,,,,,,,,,,,,,,,,,,,,,,,,,,,,,,,,,,,,,,,,,,,,,,,,,,,,,,,,,,,,,,
,,?,0.0005,0,,,,,,stimuli/images/PICTURE_403.png,RIVER,5ea7434507a21c11406c58d6,04/10/2000,2020-09-02_07h28.10.955,proactive3.1,2020.1.2,MacIntel,60,5f47c29a48bd2a1e651a6eb7,5f4f8181fe322903ef371243,6,,,,,,cathedral,,,,,,,,,,,5,1,0,6,6,40,1,,,,,,,,,,,,,,,,,,,,,,,,,,,,,,,,,,,,,,,,,,,,,,,,,,,,,,,,,,,,,,,,,,,,,,,,,,,,,,,,,,,,,,,,,,,,,,,,,,,,,,,,
,,?,0.00053,0,,,,,,stimuli/images/PICTURE_504.png,ARTIST,5ea7434507a21c11406c58d6,04/10/2000,2020-09-02_07h28.10.955,proactive3.1,2020.1.2,MacIntel,60,5f47c29a48bd2a1e651a6eb7,5f4f8181fe322903ef371243,6,,,,,,wheel,,,,,,,,,,,5,1,0,7,7,49,1,,,,,,,,,,,,,,,,,,,,,,,,,,,,,,,,,,,,,,,,,,,,,,,,,,,,,,,,,,,,,,,,,,,,,,,,,,,,,,,,,,,,,,,,,,,,,,,,,,,,,,,,
,,?,0.00044,0,,,,,,stimuli/images/PICTURE_85.png,NATION,5ea7434507a21c11406c58d6,04/10/2000,2020-09-02_07h28.10.955,proactive3.1,2020.1.2,MacIntel,60,5f47c29a48bd2a1e651a6eb7,5f4f8181fe322903ef371243,6,,,,,,diamond,,,,,,,,,,,1,1,0,8,8,5,1,,,,,,,,,,,,,,,,,,,,,,,,,,,,,,,,,,,,,,,,,,,,,,,,,,,,,,,,,,,,,,,,,,,,,,,,,,,,,,,,,,,,,,,,,,,,,,,,,,,,,,,,
,,FLIGHT,3.031085,0,,,,,,stimuli/images/PICTURE_95.png,MILLER,5ea7434507a21c11406c58d6,04/10/2000,2020-09-02_07h28.10.955,proactive3.1,2020.1.2,MacIntel,60,5f47c29a48bd2a1e651a6eb7,5f4f8181fe322903ef371243,6,,,,,,suitcase,,,,,,,,,,,6,1,0,9,9,56,1,,,,,,,,,,,,,,,,,,,,,,,,,,,,,,,,,,,,,,,,,,,,,,,,,,,,,,,,,,,,,,,,,,,,,,,,,,,,,,,,,,,,,,,,,,,,,,,,,,,,,,,,
,,?,0.000685,0,,,,,,stimuli/images/PICTURE_296.png,LOTS,5ea7434507a21c11406c58d6,04/10/2000,2020-09-02_07h28.10.955,proactive3.1,2020.1.2,MacIntel,60,5f47c29a48bd2a1e651a6eb7,5f4f8181fe322903ef371243,6,,,,,,bolt,,,,,,,,,,,1,1,0,10,10,9,1,,,,,,,,,,,,,,,,,,,,,,,,,,,,,,,,,,,,,,,,,,,,,,,,,,,,,,,,,,,,,,,,,,,,,,,,,,,,,,,,,,,,,,,,,,,,,,,,,,,,,,,,
,,MILE,3.132175,1,,,,,,stimuli/images/PICTURE_68.png,MILE,5ea7434507a21c11406c58d6,04/10/2000,2020-09-02_07h28.10.955,proactive3.1,2020.1.2,MacIntel,60,5f47c29a48bd2a1e651a6eb7,5f4f8181fe322903ef371243,6,,,,,,candle,,,,,,,,,,,6,1,0,11,11,51,1,,,,,,,,,,,,,,,,,,,,,,,,,,,,,,,,,,,,,,,,,,,,,,,,,,,,,,,,,,,,,,,,,,,,,,,,,,,,,,,,,,,,,,,,,,,,,,,,,,,,,,,,
,,?,0.000715,0,,,,,,stimuli/images/PICTURE_655.png,TOILET,5ea7434507a21c11406c58d6,04/10/2000,2020-09-02_07h28.10.955,proactive3.1,2020.1.2,MacIntel,60,5f47c29a48bd2a1e651a6eb7,5f4f8181fe322903ef371243,6,,,,,,megaphone,,,,,,,,,,,2,1,0,12,12,12,1,,,,,,,,,,,,,,,,,,,,,,,,,,,,,,,,,,,,,,,,,,,,,,,,,,,,,,,,,,,,,,,,,,,,,,,,,,,,,,,,,,,,,,,,,,,,,,,,,,,,,,,,
,,?,0.000445,0,,,,,,stimuli/images/PICTURE_203.png,NIGHT,5ea7434507a21c11406c58d6,04/10/2000,2020-09-02_07h28.10.955,proactive3.1,2020.1.2,MacIntel,60,5f47c29a48bd2a1e651a6eb7,5f4f8181fe322903ef371243,6,,,,,,cap,,,,,,,,,,,1,1,0,13,13,2,1,,,,,,,,,,,,,,,,,,,,,,,,,,,,,,,,,,,,,,,,,,,,,,,,,,,,,,,,,,,,,,,,,,,,,,,,,,,,,,,,,,,,,,,,,,,,,,,,,,,,,,,,
,,?,0.000445,0,,,,,,stimuli/images/PICTURE_68.png,ROOF,5ea7434507a21c11406c58d6,04/10/2000,2020-09-02_07h28.10.955,proactive3.1,2020.1.2,MacIntel,60,5f47c29a48bd2a1e651a6eb7,5f4f8181fe322903ef371243,6,,,,,,candle,,,,,,,,,,,4,1,0,14,14,38,1,,,,,,,,,,,,,,,,,,,,,,,,,,,,,,,,,,,,,,,,,,,,,,,,,,,,,,,,,,,,,,,,,,,,,,,,,,,,,,,,,,,,,,,,,,,,,,,,,,,,,,,,
,,WEAPON,1.82662,1,,,,,,stimuli/images/PICTURE_744.png,WEAPON,5ea7434507a21c11406c58d6,04/10/2000,2020-09-02_07h28.10.955,proactive3.1,2020.1.2,MacIntel,60,5f47c29a48bd2a1e651a6eb7,5f4f8181fe322903ef371243,6,,,,,,ring,,,,,,,,,,,6,1,0,15,15,50,1,,,,,,,,,,,,,,,,,,,,,,,,,,,,,,,,,,,,,,,,,,,,,,,,,,,,,,,,,,,,,,,,,,,,,,,,,,,,,,,,,,,,,,,,,,,,,,,,,,,,,,,,
,,?,0.00114,0,,,,,,stimuli/images/PICTURE_403.png,TOILET,5ea7434507a21c11406c58d6,04/10/2000,2020-09-02_07h28.10.955,proactive3.1,2020.1.2,MacIntel,60,5f47c29a48bd2a1e651a6eb7,5f4f8181fe322903ef371243,6,,,,,,cathedral,,,,,,,,,,,3,1,0,16,16,25,1,,,,,,,,,,,,,,,,,,,,,,,,,,,,,,,,,,,,,,,,,,,,,,,,,,,,,,,,,,,,,,,,,,,,,,,,,,,,,,,,,,,,,,,,,,,,,,,,,,,,,,,,
,,?,0.00064,0,,,,,,stimuli/images/PICTURE_340.png,LETTER,5ea7434507a21c11406c58d6,04/10/2000,2020-09-02_07h28.10.955,proactive3.1,2020.1.2,MacIntel,60,5f47c29a48bd2a1e651a6eb7,5f4f8181fe322903ef371243,6,,,,,,mirror,,,,,,,,,,,3,1,0,17,17,24,1,,,,,,,,,,,,,,,,,,,,,,,,,,,,,,,,,,,,,,,,,,,,,,,,,,,,,,,,,,,,,,,,,,,,,,,,,,,,,,,,,,,,,,,,,,,,,,,,,,,,,,,,
,,?,0.000635,0,,,,,,stimuli/images/PICTURE_405.png,YEAR,5ea7434507a21c11406c58d6,04/10/2000,2020-09-02_07h28.10.955,proactive3.1,2020.1.2,MacIntel,60,5f47c29a48bd2a1e651a6eb7,5f4f8181fe322903ef371243,6,,,,,,anchor,,,,,,,,,,,4,1,0,18,18,34,1,,,,,,,,,,,,,,,,,,,,,,,,,,,,,,,,,,,,,,,,,,,,,,,,,,,,,,,,,,,,,,,,,,,,,,,,,,,,,,,,,,,,,,,,,,,,,,,,,,,,,,,,
,,?,0.00071,0,,,,,,stimuli/images/PICTURE_108.png,POLICY,5ea7434507a21c11406c58d6,04/10/2000,2020-09-02_07h28.10.955,proactive3.1,2020.1.2,MacIntel,60,5f47c29a48bd2a1e651a6eb7,5f4f8181fe322903ef371243,6,,,,,,calendar,,,,,,,,,,,3,1,0,19,19,22,1,,,,,,,,,,,,,,,,,,,,,,,,,,,,,,,,,,,,,,,,,,,,,,,,,,,,,,,,,,,,,,,,,,,,,,,,,,,,,,,,,,,,,,,,,,,,,,,,,,,,,,,,
,,?,0.00065,0,,,,,,stimuli/images/PICTURE_491.png,RIVER,5ea7434507a21c11406c58d6,04/10/2000,2020-09-02_07h28.10.955,proactive3.1,2020.1.2,MacIntel,60,5f47c29a48bd2a1e651a6eb7,5f4f8181fe322903ef371243,6,,,,,,rug,,,,,,,,,,,1,1,0,20,20,6,1,,,,,,,,,,,,,,,,,,,,,,,,,,,,,,,,,,,,,,,,,,,,,,,,,,,,,,,,,,,,,,,,,,,,,,,,,,,,,,,,,,,,,,,,,,,,,,,,,,,,,,,,
,,?,0.00049,0,,,,,,stimuli/images/PICTURE_487.png,GIRL,5ea7434507a21c11406c58d6,04/10/2000,2020-09-02_07h28.10.955,proactive3.1,2020.1.2,MacIntel,60,5f47c29a48bd2a1e651a6eb7,5f4f8181fe322903ef371243,6,,,,,,basket,,,,,,,,,,,5,1,0,21,21,45,1,,,,,,,,,,,,,,,,,,,,,,,,,,,,,,,,,,,,,,,,,,,,,,,,,,,,,,,,,,,,,,,,,,,,,,,,,,,,,,,,,,,,,,,,,,,,,,,,,,,,,,,,
,,POLICY,3.207035,1,,,,,,stimuli/images/PICTURE_467.png,POLICY,5ea7434507a21c11406c58d6,04/10/2000,2020-09-02_07h28.10.955,proactive3.1,2020.1.2,MacIntel,60,5f47c29a48bd2a1e651a6eb7,5f4f8181fe322903ef371243,6,,,,,,peg,,,,,,,,,,,6,1,0,22,22,53,1,,,,,,,,,,,,,,,,,,,,,,,,,,,,,,,,,,,,,,,,,,,,,,,,,,,,,,,,,,,,,,,,,,,,,,,,,,,,,,,,,,,,,,,,,,,,,,,,,,,,,,,,
,,?,0.001235,0,,,,,,stimuli/images/PICTURE_405.png,PLENTY,5ea7434507a21c11406c58d6,04/10/2000,2020-09-02_07h28.10.955,proactive3.1,2020.1.2,MacIntel,60,5f47c29a48bd2a1e651a6eb7,5f4f8181fe322903ef371243,6,,,,,,anchor,,,,,,,,,,,3,1,0,23,23,23,1,,,,,,,,,,,,,,,,,,,,,,,,,,,,,,,,,,,,,,,,,,,,,,,,,,,,,,,,,,,,,,,,,,,,,,,,,,,,,,,,,,,,,,,,,,,,,,,,,,,,,,,,
,,?,0.000725,0,,,,,,stimuli/images/PICTURE_677.png,APPLE,5ea7434507a21c11406c58d6,04/10/2000,2020-09-02_07h28.10.955,proactive3.1,2020.1.2,MacIntel,60,5f47c29a48bd2a1e651a6eb7,5f4f8181fe322903ef371243,6,,,,,,map,,,,,,,,,,,5,1,0,24,24,43,1,,,,,,,,,,,,,,,,,,,,,,,,,,,,,,,,,,,,,,,,,,,,,,,,,,,,,,,,,,,,,,,,,,,,,,,,,,,,,,,,,,,,,,,,,,,,,,,,,,,,,,,,
,,?,0.00078,0,,,,,,stimuli/images/PICTURE_57.png,MOMENT,5ea7434507a21c11406c58d6,04/10/2000,2020-09-02_07h28.10.955,proactive3.1,2020.1.2,MacIntel,60,5f47c29a48bd2a1e651a6eb7,5f4f8181fe322903ef371243,6,,,,,,stamp,,,,,,,,,,,4,1,0,25,25,37,1,,,,,,,,,,,,,,,,,,,,,,,,,,,,,,,,,,,,,,,,,,,,,,,,,,,,,,,,,,,,,,,,,,,,,,,,,,,,,,,,,,,,,,,,,,,,,,,,,,,,,,,,
,,?,0.000645,0,,,,,,stimuli/images/PICTURE_95.png,BOYS,5ea7434507a21c11406c58d6,04/10/2000,2020-09-02_07h28.10.955,proactive3.1,2020.1.2,MacIntel,60,5f47c29a48bd2a1e651a6eb7,5f4f8181fe322903ef371243,6,,,,,,suitcase,,,,,,,,,,,1,1,0,26,26,1,1,,,,,,,,,,,,,,,,,,,,,,,,,,,,,,,,,,,,,,,,,,,,,,,,,,,,,,,,,,,,,,,,,,,,,,,,,,,,,,,,,,,,,,,,,,,,,,,,,,,,,,,,
,,?,0.000715,0,,,,,,stimuli/images/PICTURE_32.png,PILLS,5ea7434507a21c11406c58d6,04/10/2000,2020-09-02_07h28.10.955,proactive3.1,2020.1.2,MacIntel,60,5f47c29a48bd2a1e651a6eb7,5f4f8181fe322903ef371243,6,,,,,,crown,,,,,,,,,,,2,1,0,27,27,18,1,,,,,,,,,,,,,,,,,,,,,,,,,,,,,,,,,,,,,,,,,,,,,,,,,,,,,,,,,,,,,,,,,,,,,,,,,,,,,,,,,,,,,,,,,,,,,,,,,,,,,,,,
,,?,0.000605,0,,,,,,stimuli/images/PICTURE_203.png,GODS,5ea7434507a21c11406c58d6,04/10/2000,2020-09-02_07h28.10.955,proactive3.1,2020.1.2,MacIntel,60,5f47c29a48bd2a1e651a6eb7,5f4f8181fe322903ef371243,6,,,,,,cap,,,,,,,,,,,4,1,0,28,28,30,1,,,,,,,,,,,,,,,,,,,,,,,,,,,,,,,,,,,,,,,,,,,,,,,,,,,,,,,,,,,,,,,,,,,,,,,,,,,,,,,,,,,,,,,,,,,,,,,,,,,,,,,,
,,?,0.000465,0,,,,,,stimuli/images/PICTURE_504.png,YEAR,5ea7434507a21c11406c58d6,04/10/2000,2020-09-02_07h28.10.955,proactive3.1,2020.1.2,MacIntel,60,5f47c29a48bd2a1e651a6eb7,5f4f8181fe322903ef371243,6,,,,,,wheel,,,,,,,,,,,2,1,0,29,29,13,1,,,,,,,,,,,,,,,,,,,,,,,,,,,,,,,,,,,,,,,,,,,,,,,,,,,,,,,,,,,,,,,,,,,,,,,,,,,,,,,,,,,,,,,,,,,,,,,,,,,,,,,,
,,?,0.00046,0,,,,,,stimuli/images/PICTURE_297.png,RIVER,5ea7434507a21c11406c58d6,04/10/2000,2020-09-02_07h28.10.955,proactive3.1,2020.1.2,MacIntel,60,5f47c29a48bd2a1e651a6eb7,5f4f8181fe322903ef371243,6,,,,,,aeroplane,,,,,,,,,,,4,1,0,30,30,39,1,,,,,,,,,,,,,,,,,,,,,,,,,,,,,,,,,,,,,,,,,,,,,,,,,,,,,,,,,,,,,,,,,,,,,,,,,,,,,,,,,,,,,,,,,,,,,,,,,,,,,,,,
,,?,0.000535,0,,,,,,stimuli/images/PICTURE_285.png,LIFE,5ea7434507a21c11406c58d6,04/10/2000,2020-09-02_07h28.10.955,proactive3.1,2020.1.2,MacIntel,60,5f47c29a48bd2a1e651a6eb7,5f4f8181fe322903ef371243,6,,,,,,carrot,,,,,,,,,,,4,1,0,31,31,33,1,,,,,,,,,,,,,,,,,,,,,,,,,,,,,,,,,,,,,,,,,,,,,,,,,,,,,,,,,,,,,,,,,,,,,,,,,,,,,,,,,,,,,,,,,,,,,,,,,,,,,,,,
,,?,0.000505,0,,,,,,stimuli/images/PICTURE_85.png,TOILET,5ea7434507a21c11406c58d6,04/10/2000,2020-09-02_07h28.10.955,proactive3.1,2020.1.2,MacIntel,60,5f47c29a48bd2a1e651a6eb7,5f4f8181fe322903ef371243,6,,,,,,diamond,,,,,,,,,,,5,1,0,32,32,48,1,,,,,,,,,,,,,,,,,,,,,,,,,,,,,,,,,,,,,,,,,,,,,,,,,,,,,,,,,,,,,,,,,,,,,,,,,,,,,,,,,,,,,,,,,,,,,,,,,,,,,,,,
,,?,0.000495,0,,,,,,stimuli/images/PICTURE_380.png,CANDY,5ea7434507a21c11406c58d6,04/10/2000,2020-09-02_07h28.10.955,proactive3.1,2020.1.2,MacIntel,60,5f47c29a48bd2a1e651a6eb7,5f4f8181fe322903ef371243,6,,,,,,gorilla,,,,,,,,,,,1,1,0,33,33,0,1,,,,,,,,,,,,,,,,,,,,,,,,,,,,,,,,,,,,,,,,,,,,,,,,,,,,,,,,,,,,,,,,,,,,,,,,,,,,,,,,,,,,,,,,,,,,,,,,,,,,,,,,
,,?,0.00044,0,,,,,,stimuli/images/PICTURE_147.png,YEAR,5ea7434507a21c11406c58d6,04/10/2000,2020-09-02_07h28.10.955,proactive3.1,2020.1.2,MacIntel,60,5f47c29a48bd2a1e651a6eb7,5f4f8181fe322903ef371243,6,,,,,,hanger,,,,,,,,,,,3,1,0,34,34,21,1,,,,,,,,,,,,,,,,,,,,,,,,,,,,,,,,,,,,,,,,,,,,,,,,,,,,,,,,,,,,,,,,,,,,,,,,,,,,,,,,,,,,,,,,,,,,,,,,,,,,,,,,
,,?,0.000445,0,,,,,,stimuli/images/PICTURE_654.png,MONTH,5ea7434507a21c11406c58d6,04/10/2000,2020-09-02_07h28.10.955,proactive3.1,2020.1.2,MacIntel,60,5f47c29a48bd2a1e651a6eb7,5f4f8181fe322903ef371243,6,,,,,,pencil,,,,,,,,,,,3,1,0,35,35,29,1,,,,,,,,,,,,,,,,,,,,,,,,,,,,,,,,,,,,,,,,,,,,,,,,,,,,,,,,,,,,,,,,,,,,,,,,,,,,,,,,,,,,,,,,,,,,,,,,,,,,,,,,
,,?,0.000395,0,,,,,,stimuli/images/PICTURE_380.png,HONEY,5ea7434507a21c11406c58d6,04/10/2000,2020-09-02_07h28.10.955,proactive3.1,2020.1.2,MacIntel,60,5f47c29a48bd2a1e651a6eb7,5f4f8181fe322903ef371243,6,,,,,,gorilla,,,,,,,,,,,2,1,0,36,36,19,1,,,,,,,,,,,,,,,,,,,,,,,,,,,,,,,,,,,,,,,,,,,,,,,,,,,,,,,,,,,,,,,,,,,,,,,,,,,,,,,,,,,,,,,,,,,,,,,,,,,,,,,,
,,?,0.00044,0,,,,,,stimuli/images/PICTURE_667.png,RIVER,5ea7434507a21c11406c58d6,04/10/2000,2020-09-02_07h28.10.955,proactive3.1,2020.1.2,MacIntel,60,5f47c29a48bd2a1e651a6eb7,5f4f8181fe322903ef371243,6,,,,,,daisy,,,,,,,,,,,2,1,0,37,37,10,1,,,,,,,,,,,,,,,,,,,,,,,,,,,,,,,,,,,,,,,,,,,,,,,,,,,,,,,,,,,,,,,,,,,,,,,,,,,,,,,,,,,,,,,,,,,,,,,,,,,,,,,,
,,?,0.000395,0,,,,,,stimuli/images/PICTURE_2.png,FLIGHT,5ea7434507a21c11406c58d6,04/10/2000,2020-09-02_07h28.10.955,proactive3.1,2020.1.2,MacIntel,60,5f47c29a48bd2a1e651a6eb7,5f4f8181fe322903ef371243,6,,,,,,tyre,,,,,,,,,,,2,1,0,38,38,15,1,,,,,,,,,,,,,,,,,,,,,,,,,,,,,,,,,,,,,,,,,,,,,,,,,,,,,,,,,,,,,,,,,,,,,,,,,,,,,,,,,,,,,,,,,,,,,,,,,,,,,,,,
,,FLIGHT,1.776845,1,,,,,,stimuli/images/PICTURE_108.png,FLIGHT,5ea7434507a21c11406c58d6,04/10/2000,2020-09-02_07h28.10.955,proactive3.1,2020.1.2,MacIntel,60,5f47c29a48bd2a1e651a6eb7,5f4f8181fe322903ef371243,6,,,,,,calendar,,,,,,,,,,,6,1,0,39,39,59,1,,,,,,,,,,,,,,,,,,,,,,,,,,,,,,,,,,,,,,,,,,,,,,,,,,,,,,,,,,,,,,,,,,,,,,,,,,,,,,,,,,,,,,,,,,,,,,,,,,,,,,,,
,,?,0.00071,0,,,,,,stimuli/images/PICTURE_177.png,WRITER,5ea7434507a21c11406c58d6,04/10/2000,2020-09-02_07h28.10.955,proactive3.1,2020.1.2,MacIntel,60,5f47c29a48bd2a1e651a6eb7,5f4f8181fe322903ef371243,6,,,,,,mushroom,,,,,,,,,,,5,1,0,40,40,41,1,,,,,,,,,,,,,,,,,,,,,,,,,,,,,,,,,,,,,,,,,,,,,,,,,,,,,,,,,,,,,,,,,,,,,,,,,,,,,,,,,,,,,,,,,,,,,,,,,,,,,,,,
,,?,0.000395,0,,,,,,stimuli/images/PICTURE_675.png,SALE,5ea7434507a21c11406c58d6,04/10/2000,2020-09-02_07h28.10.955,proactive3.1,2020.1.2,MacIntel,60,5f47c29a48bd2a1e651a6eb7,5f4f8181fe322903ef371243,6,,,,,,windmill,,,,,,,,,,,5,1,0,41,41,47,1,,,,,,,,,,,,,,,,,,,,,,,,,,,,,,,,,,,,,,,,,,,,,,,,,,,,,,,,,,,,,,,,,,,,,,,,,,,,,,,,,,,,,,,,,,,,,,,,,,,,,,,,
,,RECORD,4.013375,1,,,,,,stimuli/images/PICTURE_708.png,RECORD,5ea7434507a21c11406c58d6,04/10/2000,2020-09-02_07h28.10.955,proactive3.1,2020.1.2,MacIntel,60,5f47c29a48bd2a1e651a6eb7,5f4f8181fe322903ef371243,6,,,,,,monkey,,,,,,,,,,,6,1,0,42,42,58,1,,,,,,,,,,,,,,,,,,,,,,,,,,,,,,,,,,,,,,,,,,,,,,,,,,,,,,,,,,,,,,,,,,,,,,,,,,,,,,,,,,,,,,,,,,,,,,,,,,,,,,,,
,,?,0.0014,0,,,,,,stimuli/images/PICTURE_383.png,SERIES,5ea7434507a21c11406c58d6,04/10/2000,2020-09-02_07h28.10.955,proactive3.1,2020.1.2,MacIntel,60,5f47c29a48bd2a1e651a6eb7,5f4f8181fe322903ef371243,6,,,,,,coin,,,,,,,,,,,5,1,0,43,43,46,1,,,,,,,,,,,,,,,,,,,,,,,,,,,,,,,,,,,,,,,,,,,,,,,,,,,,,,,,,,,,,,,,,,,,,,,,,,,,,,,,,,,,,,,,,,,,,,,,,,,,,,,,
,,?,0.000845,0,,,,,,stimuli/images/PICTURE_403.png,WRITER,5ea7434507a21c11406c58d6,04/10/2000,2020-09-02_07h28.10.955,proactive3.1,2020.1.2,MacIntel,60,5f47c29a48bd2a1e651a6eb7,5f4f8181fe322903ef371243,6,,,,,,cathedral,,,,,,,,,,,4,1,0,44,44,31,1,,,,,,,,,,,,,,,,,,,,,,,,,,,,,,,,,,,,,,,,,,,,,,,,,,,,,,,,,,,,,,,,,,,,,,,,,,,,,,,,,,,,,,,,,,,,,,,,,,,,,,,,
,,?,0.000835,0,,,,,,stimuli/images/PICTURE_208.png,SYSTEM,5ea7434507a21c11406c58d6,04/10/2000,2020-09-02_07h28.10.955,proactive3.1,2020.1.2,MacIntel,60,5f47c29a48bd2a1e651a6eb7,5f4f8181fe322903ef371243,6,,,,,,microphone,,,,,,,,,,,4,1,0,45,45,32,1,,,,,,,,,,,,,,,,,,,,,,,,,,,,,,,,,,,,,,,,,,,,,,,,,,,,,,,,,,,,,,,,,,,,,,,,,,,,,,,,,,,,,,,,,,,,,,,,,,,,,,,,
,,?,0.00073,0,,,,,,stimuli/images/PICTURE_469.png,AGENT,5ea7434507a21c11406c58d6,04/10/2000,2020-09-02_07h28.10.955,proactive3.1,2020.1.2,MacIntel,60,5f47c29a48bd2a1e651a6eb7,5f4f8181fe322903ef371243,6,,,,,,stool,,,,,,,,,,,2,1,0,46,46,16,1,,,,,,,,,,,,,,,,,,,,,,,,,,,,,,,,,,,,,,,,,,,,,,,,,,,,,,,,,,,,,,,,,,,,,,,,,,,,,,,,,,,,,,,,,,,,,,,,,,,,,,,,
,,VALLEY,1.807425,1,,,,,,stimuli/images/PICTURE_340.png,VALLEY,5ea7434507a21c11406c58d6,04/10/2000,2020-09-02_07h28.10.955,proactive3.1,2020.1.2,MacIntel,60,5f47c29a48bd2a1e651a6eb7,5f4f8181fe322903ef371243,6,,,,,,mirror,,,,,,,,,,,6,1,0,47,47,54,1,,,,,,,,,,,,,,,,,,,,,,,,,,,,,,,,,,,,,,,,,,,,,,,,,,,,,,,,,,,,,,,,,,,,,,,,,,,,,,,,,,,,,,,,,,,,,,,,,,,,,,,,
,,COPS,3.61489,1,,,,,,stimuli/images/PICTURE_504.png,COPS,5ea7434507a21c11406c58d6,04/10/2000,2020-09-02_07h28.10.955,proactive3.1,2020.1.2,MacIntel,60,5f47c29a48bd2a1e651a6eb7,5f4f8181fe322903ef371243,6,,,,,,wheel,,,,,,,,,,,6,1,0,48,48,52,1,,,,,,,,,,,,,,,,,,,,,,,,,,,,,,,,,,,,,,,,,,,,,,,,,,,,,,,,,,,,,,,,,,,,,,,,,,,,,,,,,,,,,,,,,,,,,,,,,,,,,,,,
,,LIFE,3.717045,1,,,,,,stimuli/images/PICTURE_296.png,LIFE,5ea7434507a21c11406c58d6,04/10/2000,2020-09-02_07h28.10.955,proactive3.1,2020.1.2,MacIntel,60,5f47c29a48bd2a1e651a6eb7,5f4f8181fe322903ef371243,6,,,,,,bolt,,,,,,,,,,,6,1,0,49,49,57,1,,,,,,,,,,,,,,,,,,,,,,,,,,,,,,,,,,,,,,,,,,,,,,,,,,,,,,,,,,,,,,,,,,,,,,,,,,,,,,,,,,,,,,,,,,,,,,,,,,,,,,,,
,,?,0.000765,0,,,,,,stimuli/images/PICTURE_32.png,KIND,5ea7434507a21c11406c58d6,04/10/2000,2020-09-02_07h28.10.955,proactive3.1,2020.1.2,MacIntel,60,5f47c29a48bd2a1e651a6eb7,5f4f8181fe322903ef371243,6,,,,,,crown,,,,,,,,,,,4,1,0,50,50,35,1,,,,,,,,,,,,,,,,,,,,,,,,,,,,,,,,,,,,,,,,,,,,,,,,,,,,,,,,,,,,,,,,,,,,,,,,,,,,,,,,,,,,,,,,,,,,,,,,,,,,,,,,
,,?,0.000555,0,,,,,,stimuli/images/PICTURE_147.png,WOMEN,5ea7434507a21c11406c58d6,04/10/2000,2020-09-02_07h28.10.955,proactive3.1,2020.1.2,MacIntel,60,5f47c29a48bd2a1e651a6eb7,5f4f8181fe322903ef371243,6,,,,,,hanger,,,,,,,,,,,1,1,0,51,51,7,1,,,,,,,,,,,,,,,,,,,,,,,,,,,,,,,,,,,,,,,,,,,,,,,,,,,,,,,,,,,,,,,,,,,,,,,,,,,,,,,,,,,,,,,,,,,,,,,,,,,,,,,,
,,?,0.00055,0,,,,,,stimuli/images/PICTURE_327.png,SERIES,5ea7434507a21c11406c58d6,04/10/2000,2020-09-02_07h28.10.955,proactive3.1,2020.1.2,MacIntel,60,5f47c29a48bd2a1e651a6eb7,5f4f8181fe322903ef371243,6,,,,,,helmet,,,,,,,,,,,1,1,0,52,52,3,1,,,,,,,,,,,,,,,,,,,,,,,,,,,,,,,,,,,,,,,,,,,,,,,,,,,,,,,,,,,,,,,,,,,,,,,,,,,,,,,,,,,,,,,,,,,,,,,,,,,,,,,,
,,?,0.000575,0,,,,,,stimuli/images/PICTURE_564.png,BATH,5ea7434507a21c11406c58d6,04/10/2000,2020-09-02_07h28.10.955,proactive3.1,2020.1.2,MacIntel,60,5f47c29a48bd2a1e651a6eb7,5f4f8181fe322903ef371243,6,,,,,,spoon,,,,,,,,,,,3,1,0,53,53,26,1,,,,,,,,,,,,,,,,,,,,,,,,,,,,,,,,,,,,,,,,,,,,,,,,,,,,,,,,,,,,,,,,,,,,,,,,,,,,,,,,,,,,,,,,,,,,,,,,,,,,,,,,
,,?,0.00045,0,,,,,,stimuli/images/PICTURE_33.png,FRIEND,5ea7434507a21c11406c58d6,04/10/2000,2020-09-02_07h28.10.955,proactive3.1,2020.1.2,MacIntel,60,5f47c29a48bd2a1e651a6eb7,5f4f8181fe322903ef371243,6,,,,,,frame,,,,,,,,,,,1,1,0,54,54,8,1,,,,,,,,,,,,,,,,,,,,,,,,,,,,,,,,,,,,,,,,,,,,,,,,,,,,,,,,,,,,,,,,,,,,,,,,,,,,,,,,,,,,,,,,,,,,,,,,,,,,,,,,
,,?,0.00045,0,,,,,,stimuli/images/PICTURE_750.png,HOTEL,5ea7434507a21c11406c58d6,04/10/2000,2020-09-02_07h28.10.955,proactive3.1,2020.1.2,MacIntel,60,5f47c29a48bd2a1e651a6eb7,5f4f8181fe322903ef371243,6,,,,,,kettle,,,,,,,,,,,3,1,0,55,55,27,1,,,,,,,,,,,,,,,,,,,,,,,,,,,,,,,,,,,,,,,,,,,,,,,,,,,,,,,,,,,,,,,,,,,,,,,,,,,,,,,,,,,,,,,,,,,,,,,,,,,,,,,,
,,?,0.00044,0,,,,,,stimuli/images/PICTURE_339.png,CLIENT,5ea7434507a21c11406c58d6,04/10/2000,2020-09-02_07h28.10.955,proactive3.1,2020.1.2,MacIntel,60,5f47c29a48bd2a1e651a6eb7,5f4f8181fe322903ef371243,6,,,,,,backpack,,,,,,,,,,,2,1,0,56,56,11,1,,,,,,,,,,,,,,,,,,,,,,,,,,,,,,,,,,,,,,,,,,,,,,,,,,,,,,,,,,,,,,,,,,,,,,,,,,,,,,,,,,,,,,,,,,,,,,,,,,,,,,,,
,,BOYS,3.340375,1,,,,,,stimuli/images/PICTURE_42.png,BOYS,5ea7434507a21c11406c58d6,04/10/2000,2020-09-02_07h28.10.955,proactive3.1,2020.1.2,MacIntel,60,5f47c29a48bd2a1e651a6eb7,5f4f8181fe322903ef371243,6,,,,,,pear,,,,,,,,,,,6,1,0,57,57,55,1,,,,,,,,,,,,,,,,,,,,,,,,,,,,,,,,,,,,,,,,,,,,,,,,,,,,,,,,,,,,,,,,,,,,,,,,,,,,,,,,,,,,,,,,,,,,,,,,,,,,,,,,
,,?,0.000895,0,,,,,,stimuli/images/PICTURE_327.png,CASINO,5ea7434507a21c11406c58d6,04/10/2000,2020-09-02_07h28.10.955,proactive3.1,2020.1.2,MacIntel,60,5f47c29a48bd2a1e651a6eb7,5f4f8181fe322903ef371243,6,,,,,,helmet,,,,,,,,,,,3,1,0,58,58,20,1,,,,,,,,,,,,,,,,,,,,,,,,,,,,,,,,,,,,,,,,,,,,,,,,,,,,,,,,,,,,,,,,,,,,,,,,,,,,,,,,,,,,,,,,,,,,,,,,,,,,,,,,
,,?,0.000655,0,,,,,,stimuli/images/PICTURE_685.png,PENNY,5ea7434507a21c11406c58d6,04/10/2000,2020-09-02_07h28.10.955,proactive3.1,2020.1.2,MacIntel,60,5f47c29a48bd2a1e651a6eb7,5f4f8181fe322903ef371243,6,,,,,,goose,,,,,,,,,,,1,1,0,59,59,4,1,,,,,,,,,,,,,,,,,,,,,,,,,,,,,,,,,,,,,,,,,,,,,,,,,,,,,,,,,,,,,,,,,,,,,,,,,,,,,,,,,,,,,,,,,,,,,,,,,,,,,,,,
,,,,,,,,,,,,5ea7434507a21c11406c58d6,04/10/2000,2020-09-02_07h28.10.955,proactive3.1,2020.1.2,MacIntel,60,5f47c29a48bd2a1e651a6eb7,5f4f8181fe322903ef371243,6,,,,,,,,,,,,,,,,,,,,,,,,0,0,0,1,1,stimuli/learn-block2.csv,,,,,,,,,,,,,,,,,,,,,,,,,,,,,,,,,,,,,,,,,,,,,,,,,,,,,,,,,,,,,,,,,,,,,,,,,,,,,,,,,,,,,,,,,,,,,,,,,,
,,,,,,,,,,stimuli/images/PICTURE_453.png,PLENTY,5ea7434507a21c11406c58d6,04/10/2000,2020-09-02_07h28.10.955,proactive3.1,2020.1.2,MacIntel,60,5f47c29a48bd2a1e651a6eb7,5f4f8181fe322903ef371243,6,,,,,,scissors,,,,,,0,0,0,56,1,6,0,,,,,,,,,,,,,,,,,,,,,,,,,,,,,,,,,,,,,,,,,,,,,,,,,,,,,,,,,,,,,,,,,,,,,,,,,,,,,,,,,,,,,,,,,,,,,,,,,,,,,,,,,,,,,
,,,,,,,,,,stimuli/images/PICTURE_68.png,MILE,5ea7434507a21c11406c58d6,04/10/2000,2020-09-02_07h28.10.955,proactive3.1,2020.1.2,MacIntel,60,5f47c29a48bd2a1e651a6eb7,5f4f8181fe322903ef371243,6,,,,,,candle,,,,,,0,1,1,44,1,5,0,,,,,,,,,,,,,,,,,,,,,,,,,,,,,,,,,,,,,,,,,,,,,,,,,,,,,,,,,,,,,,,,,,,,,,,,,,,,,,,,,,,,,,,,,,,,,,,,,,,,,,,,,,,,,
,,,,,,,,,,stimuli/images/PICTURE_233.png,IDEAS,5ea7434507a21c11406c58d6,04/10/2000,2020-09-02_07h28.10.955,proactive3.1,2020.1.2,MacIntel,60,5f47c29a48bd2a1e651a6eb7,5f4f8181fe322903ef371243,6,,,,,,salt,,,,,,0,2,2,28,1,3,0,,,,,,,,,,,,,,,,,,,,,,,,,,,,,,,,,,,,,,,,,,,,,,,,,,,,,,,,,,,,,,,,,,,,,,,,,,,,,,,,,,,,,,,,,,,,,,,,,,,,,,,,,,,,,
,,,,,,,,,,stimuli/images/PICTURE_356.png,DANGER,5ea7434507a21c11406c58d6,04/10/2000,2020-09-02_07h28.10.955,proactive3.1,2020.1.2,MacIntel,60,5f47c29a48bd2a1e651a6eb7,5f4f8181fe322903ef371243,6,,,,,,pawn,,,,,,0,3,3,55,1,6,0,,,,,,,,,,,,,,,,,,,,,,,,,,,,,,,,,,,,,,,,,,,,,,,,,,,,,,,,,,,,,,,,,,,,,,,,,,,,,,,,,,,,,,,,,,,,,,,,,,,,,,,,,,,,,
,,,,,,,,,,stimuli/images/PICTURE_314.png,SAKE,5ea7434507a21c11406c58d6,04/10/2000,2020-09-02_07h28.10.955,proactive3.1,2020.1.2,MacIntel,60,5f47c29a48bd2a1e651a6eb7,5f4f8181fe322903ef371243,6,,,,,,perfume,,,,,,0,4,4,7,1,1,0,,,,,,,,,,,,,,,,,,,,,,,,,,,,,,,,,,,,,,,,,,,,,,,,,,,,,,,,,,,,,,,,,,,,,,,,,,,,,,,,,,,,,,,,,,,,,,,,,,,,,,,,,,,,,
,,,,,,,,,,stimuli/images/PICTURE_744.png,SAKE,5ea7434507a21c11406c58d6,04/10/2000,2020-09-02_07h28.10.955,proactive3.1,2020.1.2,MacIntel,60,5f47c29a48bd2a1e651a6eb7,5f4f8181fe322903ef371243,6,,,,,,ring,,,,,,0,5,5,17,1,2,0,,,,,,,,,,,,,,,,,,,,,,,,,,,,,,,,,,,,,,,,,,,,,,,,,,,,,,,,,,,,,,,,,,,,,,,,,,,,,,,,,,,,,,,,,,,,,,,,,,,,,,,,,,,,,
,,,,,,,,,,stimuli/images/PICTURE_147.png,MOMENT,5ea7434507a21c11406c58d6,04/10/2000,2020-09-02_07h28.10.955,proactive3.1,2020.1.2,MacIntel,60,5f47c29a48bd2a1e651a6eb7,5f4f8181fe322903ef371243,6,,,,,,hanger,,,,,,0,6,6,51,1,6,0,,,,,,,,,,,,,,,,,,,,,,,,,,,,,,,,,,,,,,,,,,,,,,,,,,,,,,,,,,,,,,,,,,,,,,,,,,,,,,,,,,,,,,,,,,,,,,,,,,,,,,,,,,,,,
,,,,,,,,,,stimuli/images/PICTURE_449.png,THING,5ea7434507a21c11406c58d6,04/10/2000,2020-09-02_07h28.10.955,proactive3.1,2020.1.2,MacIntel,60,5f47c29a48bd2a1e651a6eb7,5f4f8181fe322903ef371243,6,,,,,,bench,,,,,,0,7,7,59,1,6,0,,,,,,,,,,,,,,,,,,,,,,,,,,,,,,,,,,,,,,,,,,,,,,,,,,,,,,,,,,,,,,,,,,,,,,,,,,,,,,,,,,,,,,,,,,,,,,,,,,,,,,,,,,,,,
,,,,,,,,,,stimuli/images/PICTURE_677.png,MILE,5ea7434507a21c11406c58d6,04/10/2000,2020-09-02_07h28.10.955,proactive3.1,2020.1.2,MacIntel,60,5f47c29a48bd2a1e651a6eb7,5f4f8181fe322903ef371243,6,,,,,,map,,,,,,0,8,8,30,1,4,0,,,,,,,,,,,,,,,,,,,,,,,,,,,,,,,,,,,,,,,,,,,,,,,,,,,,,,,,,,,,,,,,,,,,,,,,,,,,,,,,,,,,,,,,,,,,,,,,,,,,,,,,,,,,,
,,,,,,,,,,stimuli/images/PICTURE_95.png,STYLE,5ea7434507a21c11406c58d6,04/10/2000,2020-09-02_07h28.10.955,proactive3.1,2020.1.2,MacIntel,60,5f47c29a48bd2a1e651a6eb7,5f4f8181fe322903ef371243,6,,,,,,suitcase,,,,,,0,9,9,25,1,3,0,,,,,,,,,,,,,,,,,,,,,,,,,,,,,,,,,,,,,,,,,,,,,,,,,,,,,,,,,,,,,,,,,,,,,,,,,,,,,,,,,,,,,,,,,,,,,,,,,,,,,,,,,,,,,
,,,,,,,,,,stimuli/images/PICTURE_491.png,ROOF,5ea7434507a21c11406c58d6,04/10/2000,2020-09-02_07h28.10.955,proactive3.1,2020.1.2,MacIntel,60,5f47c29a48bd2a1e651a6eb7,5f4f8181fe322903ef371243,6,,,,,,rug,,,,,,0,10,10,24,1,3,0,,,,,,,,,,,,,,,,,,,,,,,,,,,,,,,,,,,,,,,,,,,,,,,,,,,,,,,,,,,,,,,,,,,,,,,,,,,,,,,,,,,,,,,,,,,,,,,,,,,,,,,,,,,,,
,,,,,,,,,,stimuli/images/PICTURE_708.png,CLIENT,5ea7434507a21c11406c58d6,04/10/2000,2020-09-02_07h28.10.955,proactive3.1,2020.1.2,MacIntel,60,5f47c29a48bd2a1e651a6eb7,5f4f8181fe322903ef371243,6,,,,,,monkey,,,,,,0,11,11,5,1,1,0,,,,,,,,,,,,,,,,,,,,,,,,,,,,,,,,,,,,,,,,,,,,,,,,,,,,,,,,,,,,,,,,,,,,,,,,,,,,,,,,,,,,,,,,,,,,,,,,,,,,,,,,,,,,,
,,,,,,,,,,stimuli/images/PICTURE_311.png,FRIEND,5ea7434507a21c11406c58d6,04/10/2000,2020-09-02_07h28.10.955,proactive3.1,2020.1.2,MacIntel,60,5f47c29a48bd2a1e651a6eb7,5f4f8181fe322903ef371243,6,,,,,,razor,,,,,,0,12,12,34,1,4,0,,,,,,,,,,,,,,,,,,,,,,,,,,,,,,,,,,,,,,,,,,,,,,,,,,,,,,,,,,,,,,,,,,,,,,,,,,,,,,,,,,,,,,,,,,,,,,,,,,,,,,,,,,,,,
,,,,,,,,,,stimuli/images/PICTURE_339.png,PLENTY,5ea7434507a21c11406c58d6,04/10/2000,2020-09-02_07h28.10.955,proactive3.1,2020.1.2,MacIntel,60,5f47c29a48bd2a1e651a6eb7,5f4f8181fe322903ef371243,6,,,,,,backpack,,,,,,0,13,13,0,1,1,0,,,,,,,,,,,,,,,,,,,,,,,,,,,,,,,,,,,,,,,,,,,,,,,,,,,,,,,,,,,,,,,,,,,,,,,,,,,,,,,,,,,,,,,,,,,,,,,,,,,,,,,,,,,,,
,,,,,,,,,,stimuli/images/PICTURE_467.png,DEMON,5ea7434507a21c11406c58d6,04/10/2000,2020-09-02_07h28.10.955,proactive3.1,2020.1.2,MacIntel,60,5f47c29a48bd2a1e651a6eb7,5f4f8181fe322903ef371243,6,,,,,,peg,,,,,,0,14,14,23,1,3,0,,,,,,,,,,,,,,,,,,,,,,,,,,,,,,,,,,,,,,,,,,,,,,,,,,,,,,,,,,,,,,,,,,,,,,,,,,,,,,,,,,,,,,,,,,,,,,,,,,,,,,,,,,,,,
,,,,,,,,,,stimuli/images/PICTURE_215.png,PLENTY,5ea7434507a21c11406c58d6,04/10/2000,2020-09-02_07h28.10.955,proactive3.1,2020.1.2,MacIntel,60,5f47c29a48bd2a1e651a6eb7,5f4f8181fe322903ef371243,6,,,,,,boot,,,,,,0,15,15,37,1,4,0,,,,,,,,,,,,,,,,,,,,,,,,,,,,,,,,,,,,,,,,,,,,,,,,,,,,,,,,,,,,,,,,,,,,,,,,,,,,,,,,,,,,,,,,,,,,,,,,,,,,,,,,,,,,,
,,,,,,,,,,stimuli/images/PICTURE_123.png,ADVICE,5ea7434507a21c11406c58d6,04/10/2000,2020-09-02_07h28.10.955,proactive3.1,2020.1.2,MacIntel,60,5f47c29a48bd2a1e651a6eb7,5f4f8181fe322903ef371243,6,,,,,,dart,,,,,,0,16,16,50,1,6,0,,,,,,,,,,,,,,,,,,,,,,,,,,,,,,,,,,,,,,,,,,,,,,,,,,,,,,,,,,,,,,,,,,,,,,,,,,,,,,,,,,,,,,,,,,,,,,,,,,,,,,,,,,,,,
,,,,,,,,,,stimuli/images/PICTURE_203.png,ARTIST,5ea7434507a21c11406c58d6,04/10/2000,2020-09-02_07h28.10.955,proactive3.1,2020.1.2,MacIntel,60,5f47c29a48bd2a1e651a6eb7,5f4f8181fe322903ef371243,6,,,,,,cap,,,,,,0,17,17,26,1,3,0,,,,,,,,,,,,,,,,,,,,,,,,,,,,,,,,,,,,,,,,,,,,,,,,,,,,,,,,,,,,,,,,,,,,,,,,,,,,,,,,,,,,,,,,,,,,,,,,,,,,,,,,,,,,,
,,,,,,,,,,stimuli/images/PICTURE_285.png,ADVICE,5ea7434507a21c11406c58d6,04/10/2000,2020-09-02_07h28.10.955,proactive3.1,2020.1.2,MacIntel,60,5f47c29a48bd2a1e651a6eb7,5f4f8181fe322903ef371243,6,,,,,,carrot,,,,,,0,18,18,12,1,2,0,,,,,,,,,,,,,,,,,,,,,,,,,,,,,,,,,,,,,,,,,,,,,,,,,,,,,,,,,,,,,,,,,,,,,,,,,,,,,,,,,,,,,,,,,,,,,,,,,,,,,,,,,,,,,
,,,,,,,,,,stimuli/images/PICTURE_255.png,AREA,5ea7434507a21c11406c58d6,04/10/2000,2020-09-02_07h28.10.955,proactive3.1,2020.1.2,MacIntel,60,5f47c29a48bd2a1e651a6eb7,5f4f8181fe322903ef371243,6,,,,,,shovel,,,,,,0,19,19,22,1,3,0,,,,,,,,,,,,,,,,,,,,,,,,,,,,,,,,,,,,,,,,,,,,,,,,,,,,,,,,,,,,,,,,,,,,,,,,,,,,,,,,,,,,,,,,,,,,,,,,,,,,,,,,,,,,,
,,,,,,,,,,stimuli/images/PICTURE_302.png,FAMILY,5ea7434507a21c11406c58d6,04/10/2000,2020-09-02_07h28.10.955,proactive3.1,2020.1.2,MacIntel,60,5f47c29a48bd2a1e651a6eb7,5f4f8181fe322903ef371243,6,,,,,,taxi,,,,,,0,20,20,18,1,2,0,,,,,,,,,,,,,,,,,,,,,,,,,,,,,,,,,,,,,,,,,,,,,,,,,,,,,,,,,,,,,,,,,,,,,,,,,,,,,,,,,,,,,,,,,,,,,,,,,,,,,,,,,,,,,
,,,,,,,,,,stimuli/images/PICTURE_208.png,THING,5ea7434507a21c11406c58d6,04/10/2000,2020-09-02_07h28.10.955,proactive3.1,2020.1.2,MacIntel,60,5f47c29a48bd2a1e651a6eb7,5f4f8181fe322903ef371243,6,,,,,,microphone,,,,,,0,21,21,47,1,5,0,,,,,,,,,,,,,,,,,,,,,,,,,,,,,,,,,,,,,,,,,,,,,,,,,,,,,,,,,,,,,,,,,,,,,,,,,,,,,,,,,,,,,,,,,,,,,,,,,,,,,,,,,,,,,
,,,,,,,,,,stimuli/images/PICTURE_314.png,GODS,5ea7434507a21c11406c58d6,04/10/2000,2020-09-02_07h28.10.955,proactive3.1,2020.1.2,MacIntel,60,5f47c29a48bd2a1e651a6eb7,5f4f8181fe322903ef371243,6,,,,,,perfume,,,,,,0,22,22,11,1,2,0,,,,,,,,,,,,,,,,,,,,,,,,,,,,,,,,,,,,,,,,,,,,,,,,,,,,,,,,,,,,,,,,,,,,,,,,,,,,,,,,,,,,,,,,,,,,,,,,,,,,,,,,,,,,,
,,,,,,,,,,stimuli/images/PICTURE_208.png,MONTH,5ea7434507a21c11406c58d6,04/10/2000,2020-09-02_07h28.10.955,proactive3.1,2020.1.2,MacIntel,60,5f47c29a48bd2a1e651a6eb7,5f4f8181fe322903ef371243,6,,,,,,microphone,,,,,,0,23,23,53,1,6,0,,,,,,,,,,,,,,,,,,,,,,,,,,,,,,,,,,,,,,,,,,,,,,,,,,,,,,,,,,,,,,,,,,,,,,,,,,,,,,,,,,,,,,,,,,,,,,,,,,,,,,,,,,,,,
,,,,,,,,,,stimuli/images/PICTURE_469.png,ARTIST,5ea7434507a21c11406c58d6,04/10/2000,2020-09-02_07h28.10.955,proactive3.1,2020.1.2,MacIntel,60,5f47c29a48bd2a1e651a6eb7,5f4f8181fe322903ef371243,6,,,,,,stool,,,,,,0,24,24,6,1,1,0,,,,,,,,,,,,,,,,,,,,,,,,,,,,,,,,,,,,,,,,,,,,,,,,,,,,,,,,,,,,,,,,,,,,,,,,,,,,,,,,,,,,,,,,,,,,,,,,,,,,,,,,,,,,,
,,,,,,,,,,stimuli/images/PICTURE_667.png,PLENTY,5ea7434507a21c11406c58d6,04/10/2000,2020-09-02_07h28.10.955,proactive3.1,2020.1.2,MacIntel,60,5f47c29a48bd2a1e651a6eb7,5f4f8181fe322903ef371243,6,,,,,,daisy,,,,,,0,25,25,41,1,5,0,,,,,,,,,,,,,,,,,,,,,,,,,,,,,,,,,,,,,,,,,,,,,,,,,,,,,,,,,,,,,,,,,,,,,,,,,,,,,,,,,,,,,,,,,,,,,,,,,,,,,,,,,,,,,
,,,,,,,,,,stimuli/images/PICTURE_348.png,SPEECH,5ea7434507a21c11406c58d6,04/10/2000,2020-09-02_07h28.10.955,proactive3.1,2020.1.2,MacIntel,60,5f47c29a48bd2a1e651a6eb7,5f4f8181fe322903ef371243,6,,,,,,pepper,,,,,,0,26,26,20,1,3,0,,,,,,,,,,,,,,,,,,,,,,,,,,,,,,,,,,,,,,,,,,,,,,,,,,,,,,,,,,,,,,,,,,,,,,,,,,,,,,,,,,,,,,,,,,,,,,,,,,,,,,,,,,,,,
,,,,,,,,,,stimuli/images/PICTURE_708.png,YARD,5ea7434507a21c11406c58d6,04/10/2000,2020-09-02_07h28.10.955,proactive3.1,2020.1.2,MacIntel,60,5f47c29a48bd2a1e651a6eb7,5f4f8181fe322903ef371243,6,,,,,,monkey,,,,,,0,27,27,29,1,3,0,,,,,,,,,,,,,,,,,,,,,,,,,,,,,,,,,,,,,,,,,,,,,,,,,,,,,,,,,,,,,,,,,,,,,,,,,,,,,,,,,,,,,,,,,,,,,,,,,,,,,,,,,,,,,
,,,,,,,,,,stimuli/images/PICTURE_744.png,SYSTEM,5ea7434507a21c11406c58d6,04/10/2000,2020-09-02_07h28.10.955,proactive3.1,2020.1.2,MacIntel,60,5f47c29a48bd2a1e651a6eb7,5f4f8181fe322903ef371243,6,,,,,,ring,,,,,,0,28,28,43,1,5,0,,,,,,,,,,,,,,,,,,,,,,,,,,,,,,,,,,,,,,,,,,,,,,,,,,,,,,,,,,,,,,,,,,,,,,,,,,,,,,,,,,,,,,,,,,,,,,,,,,,,,,,,,,,,,
,,,,,,,,,,stimuli/images/PICTURE_491.png,WRITER,5ea7434507a21c11406c58d6,04/10/2000,2020-09-02_07h28.10.955,proactive3.1,2020.1.2,MacIntel,60,5f47c29a48bd2a1e651a6eb7,5f4f8181fe322903ef371243,6,,,,,,rug,,,,,,0,29,29,57,1,6,0,,,,,,,,,,,,,,,,,,,,,,,,,,,,,,,,,,,,,,,,,,,,,,,,,,,,,,,,,,,,,,,,,,,,,,,,,,,,,,,,,,,,,,,,,,,,,,,,,,,,,,,,,,,,,
,,,,,,,,,,stimuli/images/PICTURE_208.png,LOTS,5ea7434507a21c11406c58d6,04/10/2000,2020-09-02_07h28.10.955,proactive3.1,2020.1.2,MacIntel,60,5f47c29a48bd2a1e651a6eb7,5f4f8181fe322903ef371243,6,,,,,,microphone,,,,,,0,30,30,10,1,2,0,,,,,,,,,,,,,,,,,,,,,,,,,,,,,,,,,,,,,,,,,,,,,,,,,,,,,,,,,,,,,,,,,,,,,,,,,,,,,,,,,,,,,,,,,,,,,,,,,,,,,,,,,,,,,
,,,,,,,,,,stimuli/images/PICTURE_177.png,CARS,5ea7434507a21c11406c58d6,04/10/2000,2020-09-02_07h28.10.955,proactive3.1,2020.1.2,MacIntel,60,5f47c29a48bd2a1e651a6eb7,5f4f8181fe322903ef371243,6,,,,,,mushroom,,,,,,0,31,31,35,1,4,0,,,,,,,,,,,,,,,,,,,,,,,,,,,,,,,,,,,,,,,,,,,,,,,,,,,,,,,,,,,,,,,,,,,,,,,,,,,,,,,,,,,,,,,,,,,,,,,,,,,,,,,,,,,,,
,,,,,,,,,,stimuli/images/PICTURE_488.png,STYLE,5ea7434507a21c11406c58d6,04/10/2000,2020-09-02_07h28.10.955,proactive3.1,2020.1.2,MacIntel,60,5f47c29a48bd2a1e651a6eb7,5f4f8181fe322903ef371243,6,,,,,,sun,,,,,,0,32,32,33,1,4,0,,,,,,,,,,,,,,,,,,,,,,,,,,,,,,,,,,,,,,,,,,,,,,,,,,,,,,,,,,,,,,,,,,,,,,,,,,,,,,,,,,,,,,,,,,,,,,,,,,,,,,,,,,,,,
,,,,,,,,,,stimuli/images/PICTURE_504.png,BODY,5ea7434507a21c11406c58d6,04/10/2000,2020-09-02_07h28.10.955,proactive3.1,2020.1.2,MacIntel,60,5f47c29a48bd2a1e651a6eb7,5f4f8181fe322903ef371243,6,,,,,,wheel,,,,,,0,33,33,8,1,1,0,,,,,,,,,,,,,,,,,,,,,,,,,,,,,,,,,,,,,,,,,,,,,,,,,,,,,,,,,,,,,,,,,,,,,,,,,,,,,,,,,,,,,,,,,,,,,,,,,,,,,,,,,,,,,
,,,,,,,,,,stimuli/images/PICTURE_380.png,PHOTO,5ea7434507a21c11406c58d6,04/10/2000,2020-09-02_07h28.10.955,proactive3.1,2020.1.2,MacIntel,60,5f47c29a48bd2a1e651a6eb7,5f4f8181fe322903ef371243,6,,,,,,gorilla,,,,,,0,34,34,52,1,6,0,,,,,,,,,,,,,,,,,,,,,,,,,,,,,,,,,,,,,,,,,,,,,,,,,,,,,,,,,,,,,,,,,,,,,,,,,,,,,,,,,,,,,,,,,,,,,,,,,,,,,,,,,,,,,
,,,,,,,,,,stimuli/images/PICTURE_151.png,GIRL,5ea7434507a21c11406c58d6,04/10/2000,2020-09-02_07h28.10.955,proactive3.1,2020.1.2,MacIntel,60,5f47c29a48bd2a1e651a6eb7,5f4f8181fe322903ef371243,6,,,,,,tray,,,,,,0,35,35,19,1,2,0,,,,,,,,,,,,,,,,,,,,,,,,,,,,,,,,,,,,,,,,,,,,,,,,,,,,,,,,,,,,,,,,,,,,,,,,,,,,,,,,,,,,,,,,,,,,,,,,,,,,,,,,,,,,,
,,,,,,,,,,stimuli/images/PICTURE_123.png,ADVICE,5ea7434507a21c11406c58d6,04/10/2000,2020-09-02_07h28.10.955,proactive3.1,2020.1.2,MacIntel,60,5f47c29a48bd2a1e651a6eb7,5f4f8181fe322903ef371243,6,,,,,,dart,,,,,,0,36,36,40,1,5,0,,,,,,,,,,,,,,,,,,,,,,,,,,,,,,,,,,,,,,,,,,,,,,,,,,,,,,,,,,,,,,,,,,,,,,,,,,,,,,,,,,,,,,,,,,,,,,,,,,,,,,,,,,,,,
,,,,,,,,,,stimuli/images/PICTURE_675.png,WEAPON,5ea7434507a21c11406c58d6,04/10/2000,2020-09-02_07h28.10.955,proactive3.1,2020.1.2,MacIntel,60,5f47c29a48bd2a1e651a6eb7,5f4f8181fe322903ef371243,6,,,,,,windmill,,,,,,0,37,37,32,1,4,0,,,,,,,,,,,,,,,,,,,,,,,,,,,,,,,,,,,,,,,,,,,,,,,,,,,,,,,,,,,,,,,,,,,,,,,,,,,,,,,,,,,,,,,,,,,,,,,,,,,,,,,,,,,,,
,,,,,,,,,,stimuli/images/PICTURE_380.png,DEATH,5ea7434507a21c11406c58d6,04/10/2000,2020-09-02_07h28.10.955,proactive3.1,2020.1.2,MacIntel,60,5f47c29a48bd2a1e651a6eb7,5f4f8181fe322903ef371243,6,,,,,,gorilla,,,,,,0,38,38,49,1,5,0,,,,,,,,,,,,,,,,,,,,,,,,,,,,,,,,,,,,,,,,,,,,,,,,,,,,,,,,,,,,,,,,,,,,,,,,,,,,,,,,,,,,,,,,,,,,,,,,,,,,,,,,,,,,,
,,,,,,,,,,stimuli/images/PICTURE_654.png,VALLEY,5ea7434507a21c11406c58d6,04/10/2000,2020-09-02_07h28.10.955,proactive3.1,2020.1.2,MacIntel,60,5f47c29a48bd2a1e651a6eb7,5f4f8181fe322903ef371243,6,,,,,,pencil,,,,,,0,39,39,1,1,1,0,,,,,,,,,,,,,,,,,,,,,,,,,,,,,,,,,,,,,,,,,,,,,,,,,,,,,,,,,,,,,,,,,,,,,,,,,,,,,,,,,,,,,,,,,,,,,,,,,,,,,,,,,,,,,
,,,,,,,,,,stimuli/images/PICTURE_308.png,KIND,5ea7434507a21c11406c58d6,04/10/2000,2020-09-02_07h28.10.955,proactive3.1,2020.1.2,MacIntel,60,5f47c29a48bd2a1e651a6eb7,5f4f8181fe322903ef371243,6,,,,,,dice,,,,,,0,40,40,54,1,6,0,,,,,,,,,,,,,,,,,,,,,,,,,,,,,,,,,,,,,,,,,,,,,,,,,,,,,,,,,,,,,,,,,,,,,,,,,,,,,,,,,,,,,,,,,,,,,,,,,,,,,,,,,,,,,
,,,,,,,,,,stimuli/images/PICTURE_233.png,WOMEN,5ea7434507a21c11406c58d6,04/10/2000,2020-09-02_07h28.10.955,proactive3.1,2020.1.2,MacIntel,60,5f47c29a48bd2a1e651a6eb7,5f4f8181fe322903ef371243,6,,,,,,salt,,,,,,0,41,41,38,1,4,0,,,,,,,,,,,,,,,,,,,,,,,,,,,,,,,,,,,,,,,,,,,,,,,,,,,,,,,,,,,,,,,,,,,,,,,,,,,,,,,,,,,,,,,,,,,,,,,,,,,,,,,,,,,,,
,,,,,,,,,,stimuli/images/PICTURE_160.png,LEADER,5ea7434507a21c11406c58d6,04/10/2000,2020-09-02_07h28.10.955,proactive3.1,2020.1.2,MacIntel,60,5f47c29a48bd2a1e651a6eb7,5f4f8181fe322903ef371243,6,,,,,,wheelbarrow,,,,,,0,42,42,3,1,1,0,,,,,,,,,,,,,,,,,,,,,,,,,,,,,,,,,,,,,,,,,,,,,,,,,,,,,,,,,,,,,,,,,,,,,,,,,,,,,,,,,,,,,,,,,,,,,,,,,,,,,,,,,,,,,
,,,,,,,,,,stimuli/images/PICTURE_311.png,BEAUTY,5ea7434507a21c11406c58d6,04/10/2000,2020-09-02_07h28.10.955,proactive3.1,2020.1.2,MacIntel,60,5f47c29a48bd2a1e651a6eb7,5f4f8181fe322903ef371243,6,,,,,,razor,,,,,,0,43,43,13,1,2,0,,,,,,,,,,,,,,,,,,,,,,,,,,,,,,,,,,,,,,,,,,,,,,,,,,,,,,,,,,,,,,,,,,,,,,,,,,,,,,,,,,,,,,,,,,,,,,,,,,,,,,,,,,,,,
,,,,,,,,,,stimuli/images/PICTURE_85.png,THING,5ea7434507a21c11406c58d6,04/10/2000,2020-09-02_07h28.10.955,proactive3.1,2020.1.2,MacIntel,60,5f47c29a48bd2a1e651a6eb7,5f4f8181fe322903ef371243,6,,,,,,diamond,,,,,,0,44,44,15,1,2,0,,,,,,,,,,,,,,,,,,,,,,,,,,,,,,,,,,,,,,,,,,,,,,,,,,,,,,,,,,,,,,,,,,,,,,,,,,,,,,,,,,,,,,,,,,,,,,,,,,,,,,,,,,,,,
,,,,,,,,,,stimuli/images/PICTURE_667.png,BATH,5ea7434507a21c11406c58d6,04/10/2000,2020-09-02_07h28.10.955,proactive3.1,2020.1.2,MacIntel,60,5f47c29a48bd2a1e651a6eb7,5f4f8181fe322903ef371243,6,,,,,,daisy,,,,,,0,45,45,4,1,1,0,,,,,,,,,,,,,,,,,,,,,,,,,,,,,,,,,,,,,,,,,,,,,,,,,,,,,,,,,,,,,,,,,,,,,,,,,,,,,,,,,,,,,,,,,,,,,,,,,,,,,,,,,,,,,
,,,,,,,,,,stimuli/images/PICTURE_308.png,ESTATE,5ea7434507a21c11406c58d6,04/10/2000,2020-09-02_07h28.10.955,proactive3.1,2020.1.2,MacIntel,60,5f47c29a48bd2a1e651a6eb7,5f4f8181fe322903ef371243,6,,,,,,dice,,,,,,0,46,46,46,1,5,0,,,,,,,,,,,,,,,,,,,,,,,,,,,,,,,,,,,,,,,,,,,,,,,,,,,,,,,,,,,,,,,,,,,,,,,,,,,,,,,,,,,,,,,,,,,,,,,,,,,,,,,,,,,,,
,,,,,,,,,,stimuli/images/PICTURE_32.png,JUNGLE,5ea7434507a21c11406c58d6,04/10/2000,2020-09-02_07h28.10.955,proactive3.1,2020.1.2,MacIntel,60,5f47c29a48bd2a1e651a6eb7,5f4f8181fe322903ef371243,6,,,,,,crown,,,,,,0,47,47,45,1,5,0,,,,,,,,,,,,,,,,,,,,,,,,,,,,,,,,,,,,,,,,,,,,,,,,,,,,,,,,,,,,,,,,,,,,,,,,,,,,,,,,,,,,,,,,,,,,,,,,,,,,,,,,,,,,,
,,,,,,,,,,stimuli/images/PICTURE_688.png,CASINO,5ea7434507a21c11406c58d6,04/10/2000,2020-09-02_07h28.10.955,proactive3.1,2020.1.2,MacIntel,60,5f47c29a48bd2a1e651a6eb7,5f4f8181fe322903ef371243,6,,,,,,runner,,,,,,0,48,48,2,1,1,0,,,,,,,,,,,,,,,,,,,,,,,,,,,,,,,,,,,,,,,,,,,,,,,,,,,,,,,,,,,,,,,,,,,,,,,,,,,,,,,,,,,,,,,,,,,,,,,,,,,,,,,,,,,,,
,,,,,,,,,,stimuli/images/PICTURE_708.png,PENNY,5ea7434507a21c11406c58d6,04/10/2000,2020-09-02_07h28.10.955,proactive3.1,2020.1.2,MacIntel,60,5f47c29a48bd2a1e651a6eb7,5f4f8181fe322903ef371243,6,,,,,,monkey,,,,,,0,49,49,31,1,4,0,,,,,,,,,,,,,,,,,,,,,,,,,,,,,,,,,,,,,,,,,,,,,,,,,,,,,,,,,,,,,,,,,,,,,,,,,,,,,,,,,,,,,,,,,,,,,,,,,,,,,,,,,,,,,
,,,,,,,,,,stimuli/images/PICTURE_470.png,CASINO,5ea7434507a21c11406c58d6,04/10/2000,2020-09-02_07h28.10.955,proactive3.1,2020.1.2,MacIntel,60,5f47c29a48bd2a1e651a6eb7,5f4f8181fe322903ef371243,6,,,,,,motorbike,,,,,,0,50,50,36,1,4,0,,,,,,,,,,,,,,,,,,,,,,,,,,,,,,,,,,,,,,,,,,,,,,,,,,,,,,,,,,,,,,,,,,,,,,,,,,,,,,,,,,,,,,,,,,,,,,,,,,,,,,,,,,,,,
,,,,,,,,,,stimuli/images/PICTURE_509.png,PHOTO,5ea7434507a21c11406c58d6,04/10/2000,2020-09-02_07h28.10.955,proactive3.1,2020.1.2,MacIntel,60,5f47c29a48bd2a1e651a6eb7,5f4f8181fe322903ef371243,6,,,,,,telephone,,,,,,0,51,51,21,1,3,0,,,,,,,,,,,,,,,,,,,,,,,,,,,,,,,,,,,,,,,,,,,,,,,,,,,,,,,,,,,,,,,,,,,,,,,,,,,,,,,,,,,,,,,,,,,,,,,,,,,,,,,,,,,,,
,,,,,,,,,,stimuli/images/PICTURE_453.png,DUDE,5ea7434507a21c11406c58d6,04/10/2000,2020-09-02_07h28.10.955,proactive3.1,2020.1.2,MacIntel,60,5f47c29a48bd2a1e651a6eb7,5f4f8181fe322903ef371243,6,,,,,,scissors,,,,,,0,52,52,27,1,3,0,,,,,,,,,,,,,,,,,,,,,,,,,,,,,,,,,,,,,,,,,,,,,,,,,,,,,,,,,,,,,,,,,,,,,,,,,,,,,,,,,,,,,,,,,,,,,,,,,,,,,,,,,,,,,
,,,,,,,,,,stimuli/images/PICTURE_160.png,FEET,5ea7434507a21c11406c58d6,04/10/2000,2020-09-02_07h28.10.955,proactive3.1,2020.1.2,MacIntel,60,5f47c29a48bd2a1e651a6eb7,5f4f8181fe322903ef371243,6,,,,,,wheelbarrow,,,,,,0,53,53,58,1,6,0,,,,,,,,,,,,,,,,,,,,,,,,,,,,,,,,,,,,,,,,,,,,,,,,,,,,,,,,,,,,,,,,,,,,,,,,,,,,,,,,,,,,,,,,,,,,,,,,,,,,,,,,,,,,,
,,,,,,,,,,stimuli/images/PICTURE_248.png,DOZEN,5ea7434507a21c11406c58d6,04/10/2000,2020-09-02_07h28.10.955,proactive3.1,2020.1.2,MacIntel,60,5f47c29a48bd2a1e651a6eb7,5f4f8181fe322903ef371243,6,,,,,,cart,,,,,,0,54,54,39,1,4,0,,,,,,,,,,,,,,,,,,,,,,,,,,,,,,,,,,,,,,,,,,,,,,,,,,,,,,,,,,,,,,,,,,,,,,,,,,,,,,,,,,,,,,,,,,,,,,,,,,,,,,,,,,,,,
,,,,,,,,,,stimuli/images/PICTURE_327.png,BEAUTY,5ea7434507a21c11406c58d6,04/10/2000,2020-09-02_07h28.10.955,proactive3.1,2020.1.2,MacIntel,60,5f47c29a48bd2a1e651a6eb7,5f4f8181fe322903ef371243,6,,,,,,helmet,,,,,,0,55,55,48,1,5,0,,,,,,,,,,,,,,,,,,,,,,,,,,,,,,,,,,,,,,,,,,,,,,,,,,,,,,,,,,,,,,,,,,,,,,,,,,,,,,,,,,,,,,,,,,,,,,,,,,,,,,,,,,,,,
,,,,,,,,,,stimuli/images/PICTURE_469.png,LETTER,5ea7434507a21c11406c58d6,04/10/2000,2020-09-02_07h28.10.955,proactive3.1,2020.1.2,MacIntel,60,5f47c29a48bd2a1e651a6eb7,5f4f8181fe322903ef371243,6,,,,,,stool,,,,,,0,56,56,42,1,5,0,,,,,,,,,,,,,,,,,,,,,,,,,,,,,,,,,,,,,,,,,,,,,,,,,,,,,,,,,,,,,,,,,,,,,,,,,,,,,,,,,,,,,,,,,,,,,,,,,,,,,,,,,,,,,
,,,,,,,,,,stimuli/images/PICTURE_688.png,WOMEN,5ea7434507a21c11406c58d6,04/10/2000,2020-09-02_07h28.10.955,proactive3.1,2020.1.2,MacIntel,60,5f47c29a48bd2a1e651a6eb7,5f4f8181fe322903ef371243,6,,,,,,runner,,,,,,0,57,57,14,1,2,0,,,,,,,,,,,,,,,,,,,,,,,,,,,,,,,,,,,,,,,,,,,,,,,,,,,,,,,,,,,,,,,,,,,,,,,,,,,,,,,,,,,,,,,,,,,,,,,,,,,,,,,,,,,,,
,,,,,,,,,,stimuli/images/PICTURE_692.png,MONTH,5ea7434507a21c11406c58d6,04/10/2000,2020-09-02_07h28.10.955,proactive3.1,2020.1.2,MacIntel,60,5f47c29a48bd2a1e651a6eb7,5f4f8181fe322903ef371243,6,,,,,,cherry,,,,,,0,58,58,16,1,2,0,,,,,,,,,,,,,,,,,,,,,,,,,,,,,,,,,,,,,,,,,,,,,,,,,,,,,,,,,,,,,,,,,,,,,,,,,,,,,,,,,,,,,,,,,,,,,,,,,,,,,,,,,,,,,
,,?,0.00118,0,,,,,,stimuli/images/PICTURE_68.png,MILE,5ea7434507a21c11406c58d6,04/10/2000,2020-09-02_07h28.10.955,proactive3.1,2020.1.2,MacIntel,60,5f47c29a48bd2a1e651a6eb7,5f4f8181fe322903ef371243,6,,,,,,candle,,,,,,,,,,,5,0,0,0,0,44,1,,,,,,,,,,,,,,,,,,,,,,,,,,,,,,,,,,,,,,,,,,,,,,,,,,,,,,,,,,,,,,,,,,,,,,,,,,,,,,,,,,,,,,,,,,,,,,,,,,,,,,,,
,,MOMENT,3.790135,1,,,,,,stimuli/images/PICTURE_147.png,MOMENT,5ea7434507a21c11406c58d6,04/10/2000,2020-09-02_07h28.10.955,proactive3.1,2020.1.2,MacIntel,60,5f47c29a48bd2a1e651a6eb7,5f4f8181fe322903ef371243,6,,,,,,hanger,,,,,,,,,,,6,0,0,1,1,51,1,,,,,,,,,,,,,,,,,,,,,,,,,,,,,,,,,,,,,,,,,,,,,,,,,,,,,,,,,,,,,,,,,,,,,,,,,,,,,,,,,,,,,,,,,,,,,,,,,,,,,,,,
,,?,0.001075,0,,,,,,stimuli/images/PICTURE_95.png,STYLE,5ea7434507a21c11406c58d6,04/10/2000,2020-09-02_07h28.10.955,proactive3.1,2020.1.2,MacIntel,60,5f47c29a48bd2a1e651a6eb7,5f4f8181fe322903ef371243,6,,,,,,suitcase,,,,,,,,,,,3,0,0,2,2,25,1,,,,,,,,,,,,,,,,,,,,,,,,,,,,,,,,,,,,,,,,,,,,,,,,,,,,,,,,,,,,,,,,,,,,,,,,,,,,,,,,,,,,,,,,,,,,,,,,,,,,,,,,
,,?,0.000735,0,,,,,,stimuli/images/PICTURE_467.png,DEMON,5ea7434507a21c11406c58d6,04/10/2000,2020-09-02_07h28.10.955,proactive3.1,2020.1.2,MacIntel,60,5f47c29a48bd2a1e651a6eb7,5f4f8181fe322903ef371243,6,,,,,,peg,,,,,,,,,,,3,0,0,3,3,23,1,,,,,,,,,,,,,,,,,,,,,,,,,,,,,,,,,,,,,,,,,,,,,,,,,,,,,,,,,,,,,,,,,,,,,,,,,,,,,,,,,,,,,,,,,,,,,,,,,,,,,,,,
,,?,0.000545,0,,,,,,stimuli/images/PICTURE_692.png,MONTH,5ea7434507a21c11406c58d6,04/10/2000,2020-09-02_07h28.10.955,proactive3.1,2020.1.2,MacIntel,60,5f47c29a48bd2a1e651a6eb7,5f4f8181fe322903ef371243,6,,,,,,cherry,,,,,,,,,,,2,0,0,4,4,16,1,,,,,,,,,,,,,,,,,,,,,,,,,,,,,,,,,,,,,,,,,,,,,,,,,,,,,,,,,,,,,,,,,,,,,,,,,,,,,,,,,,,,,,,,,,,,,,,,,,,,,,,,
,,?,0.00059,0,,,,,,stimuli/images/PICTURE_470.png,CASINO,5ea7434507a21c11406c58d6,04/10/2000,2020-09-02_07h28.10.955,proactive3.1,2020.1.2,MacIntel,60,5f47c29a48bd2a1e651a6eb7,5f4f8181fe322903ef371243,6,,,,,,motorbike,,,,,,,,,,,4,0,0,5,5,36,1,,,,,,,,,,,,,,,,,,,,,,,,,,,,,,,,,,,,,,,,,,,,,,,,,,,,,,,,,,,,,,,,,,,,,,,,,,,,,,,,,,,,,,,,,,,,,,,,,,,,,,,,
,,?,0.000465,0,,,,,,stimuli/images/PICTURE_380.png,DEATH,5ea7434507a21c11406c58d6,04/10/2000,2020-09-02_07h28.10.955,proactive3.1,2020.1.2,MacIntel,60,5f47c29a48bd2a1e651a6eb7,5f4f8181fe322903ef371243,6,,,,,,gorilla,,,,,,,,,,,5,0,0,6,6,49,1,,,,,,,,,,,,,,,,,,,,,,,,,,,,,,,,,,,,,,,,,,,,,,,,,,,,,,,,,,,,,,,,,,,,,,,,,,,,,,,,,,,,,,,,,,,,,,,,,,,,,,,,
,,THING,2.96019,1,,,,,,stimuli/images/PICTURE_449.png,THING,5ea7434507a21c11406c58d6,04/10/2000,2020-09-02_07h28.10.955,proactive3.1,2020.1.2,MacIntel,60,5f47c29a48bd2a1e651a6eb7,5f4f8181fe322903ef371243,6,,,,,,bench,,,,,,,,,,,6,0,0,7,7,59,1,,,,,,,,,,,,,,,,,,,,,,,,,,,,,,,,,,,,,,,,,,,,,,,,,,,,,,,,,,,,,,,,,,,,,,,,,,,,,,,,,,,,,,,,,,,,,,,,,,,,,,,,
,,?,0.000655,0,,,,,,stimuli/images/PICTURE_509.png,PHOTO,5ea7434507a21c11406c58d6,04/10/2000,2020-09-02_07h28.10.955,proactive3.1,2020.1.2,MacIntel,60,5f47c29a48bd2a1e651a6eb7,5f4f8181fe322903ef371243,6,,,,,,telephone,,,,,,,,,,,3,0,0,8,8,21,1,,,,,,,,,,,,,,,,,,,,,,,,,,,,,,,,,,,,,,,,,,,,,,,,,,,,,,,,,,,,,,,,,,,,,,,,,,,,,,,,,,,,,,,,,,,,,,,,,,,,,,,,
,,?,0.00035,0,,,,,,stimuli/images/PICTURE_744.png,SYSTEM,5ea7434507a21c11406c58d6,04/10/2000,2020-09-02_07h28.10.955,proactive3.1,2020.1.2,MacIntel,60,5f47c29a48bd2a1e651a6eb7,5f4f8181fe322903ef371243,6,,,,,,ring,,,,,,,,,,,5,0,0,9,9,43,1,,,,,,,,,,,,,,,,,,,,,,,,,,,,,,,,,,,,,,,,,,,,,,,,,,,,,,,,,,,,,,,,,,,,,,,,,,,,,,,,,,,,,,,,,,,,,,,,,,,,,,,,
,,?,0.000345,0,,,,,,stimuli/images/PICTURE_708.png,CLIENT,5ea7434507a21c11406c58d6,04/10/2000,2020-09-02_07h28.10.955,proactive3.1,2020.1.2,MacIntel,60,5f47c29a48bd2a1e651a6eb7,5f4f8181fe322903ef371243,6,,,,,,monkey,,,,,,,,,,,1,0,0,10,10,5,1,,,,,,,,,,,,,,,,,,,,,,,,,,,,,,,,,,,,,,,,,,,,,,,,,,,,,,,,,,,,,,,,,,,,,,,,,,,,,,,,,,,,,,,,,,,,,,,,,,,,,,,,
,,?,0.000425,0,,,,,,stimuli/images/PICTURE_311.png,FRIEND,5ea7434507a21c11406c58d6,04/10/2000,2020-09-02_07h28.10.955,proactive3.1,2020.1.2,MacIntel,60,5f47c29a48bd2a1e651a6eb7,5f4f8181fe322903ef371243,6,,,,,,razor,,,,,,,,,,,4,0,0,11,11,34,1,,,,,,,,,,,,,,,,,,,,,,,,,,,,,,,,,,,,,,,,,,,,,,,,,,,,,,,,,,,,,,,,,,,,,,,,,,,,,,,,,,,,,,,,,,,,,,,,,,,,,,,,
,,?,0.000345,0,,,,,,stimuli/images/PICTURE_504.png,BODY,5ea7434507a21c11406c58d6,04/10/2000,2020-09-02_07h28.10.955,proactive3.1,2020.1.2,MacIntel,60,5f47c29a48bd2a1e651a6eb7,5f4f8181fe322903ef371243,6,,,,,,wheel,,,,,,,,,,,1,0,0,12,12,8,1,,,,,,,,,,,,,,,,,,,,,,,,,,,,,,,,,,,,,,,,,,,,,,,,,,,,,,,,,,,,,,,,,,,,,,,,,,,,,,,,,,,,,,,,,,,,,,,,,,,,,,,,
,,PLENTY,2.561635,1,,,,,,stimuli/images/PICTURE_453.png,PLENTY,5ea7434507a21c11406c58d6,04/10/2000,2020-09-02_07h28.10.955,proactive3.1,2020.1.2,MacIntel,60,5f47c29a48bd2a1e651a6eb7,5f4f8181fe322903ef371243,6,,,,,,scissors,,,,,,,,,,,6,0,0,13,13,56,1,,,,,,,,,,,,,,,,,,,,,,,,,,,,,,,,,,,,,,,,,,,,,,,,,,,,,,,,,,,,,,,,,,,,,,,,,,,,,,,,,,,,,,,,,,,,,,,,,,,,,,,,
,,?,0.001145,0,,,,,,stimuli/images/PICTURE_208.png,LOTS,5ea7434507a21c11406c58d6,04/10/2000,2020-09-02_07h28.10.955,proactive3.1,2020.1.2,MacIntel,60,5f47c29a48bd2a1e651a6eb7,5f4f8181fe322903ef371243,6,,,,,,microphone,,,,,,,,,,,2,0,0,14,14,10,1,,,,,,,,,,,,,,,,,,,,,,,,,,,,,,,,,,,,,,,,,,,,,,,,,,,,,,,,,,,,,,,,,,,,,,,,,,,,,,,,,,,,,,,,,,,,,,,,,,,,,,,,
,,?,0.000625,0,,,,,,stimuli/images/PICTURE_491.png,ROOF,5ea7434507a21c11406c58d6,04/10/2000,2020-09-02_07h28.10.955,proactive3.1,2020.1.2,MacIntel,60,5f47c29a48bd2a1e651a6eb7,5f4f8181fe322903ef371243,6,,,,,,rug,,,,,,,,,,,3,0,0,15,15,24,1,,,,,,,,,,,,,,,,,,,,,,,,,,,,,,,,,,,,,,,,,,,,,,,,,,,,,,,,,,,,,,,,,,,,,,,,,,,,,,,,,,,,,,,,,,,,,,,,,,,,,,,,
,,?,0.00054,0,,,,,,stimuli/images/PICTURE_285.png,ADVICE,5ea7434507a21c11406c58d6,04/10/2000,2020-09-02_07h28.10.955,proactive3.1,2020.1.2,MacIntel,60,5f47c29a48bd2a1e651a6eb7,5f4f8181fe322903ef371243,6,,,,,,carrot,,,,,,,,,,,2,0,0,16,16,12,1,,,,,,,,,,,,,,,,,,,,,,,,,,,,,,,,,,,,,,,,,,,,,,,,,,,,,,,,,,,,,,,,,,,,,,,,,,,,,,,,,,,,,,,,,,,,,,,,,,,,,,,,
,,?,0.00056,0,,,,,,stimuli/images/PICTURE_208.png,THING,5ea7434507a21c11406c58d6,04/10/2000,2020-09-02_07h28.10.955,proactive3.1,2020.1.2,MacIntel,60,5f47c29a48bd2a1e651a6eb7,5f4f8181fe322903ef371243,6,,,,,,microphone,,,,,,,,,,,5,0,0,17,17,47,1,,,,,,,,,,,,,,,,,,,,,,,,,,,,,,,,,,,,,,,,,,,,,,,,,,,,,,,,,,,,,,,,,,,,,,,,,,,,,,,,,,,,,,,,,,,,,,,,,,,,,,,,
,,?,0.000525,0,,,,,,stimuli/images/PICTURE_654.png,VALLEY,5ea7434507a21c11406c58d6,04/10/2000,2020-09-02_07h28.10.955,proactive3.1,2020.1.2,MacIntel,60,5f47c29a48bd2a1e651a6eb7,5f4f8181fe322903ef371243,6,,,,,,pencil,,,,,,,,,,,1,0,0,18,18,1,1,,,,,,,,,,,,,,,,,,,,,,,,,,,,,,,,,,,,,,,,,,,,,,,,,,,,,,,,,,,,,,,,,,,,,,,,,,,,,,,,,,,,,,,,,,,,,,,,,,,,,,,,
,,?,0.00052,0,,,,,,stimuli/images/PICTURE_302.png,FAMILY,5ea7434507a21c11406c58d6,04/10/2000,2020-09-02_07h28.10.955,proactive3.1,2020.1.2,MacIntel,60,5f47c29a48bd2a1e651a6eb7,5f4f8181fe322903ef371243,6,,,,,,taxi,,,,,,,,,,,2,0,0,19,19,18,1,,,,,,,,,,,,,,,,,,,,,,,,,,,,,,,,,,,,,,,,,,,,,,,,,,,,,,,,,,,,,,,,,,,,,,,,,,,,,,,,,,,,,,,,,,,,,,,,,,,,,,,,
,,PLUSH,6.23948,0,,,,,,stimuli/images/PICTURE_380.png,PHOTO,5ea7434507a21c11406c58d6,04/10/2000,2020-09-02_07h28.10.955,proactive3.1,2020.1.2,MacIntel,60,5f47c29a48bd2a1e651a6eb7,5f4f8181fe322903ef371243,6,,,,,,gorilla,,,,,,,,,,,6,0,0,20,20,52,1,,,,,,,,,,,,,,,,,,,,,,,,,,,,,,,,,,,,,,,,,,,,,,,,,,,,,,,,,,,,,,,,,,,,,,,,,,,,,,,,,,,,,,,,,,,,,,,,,,,,,,,,
,,?,0.000965,0,,,,,,stimuli/images/PICTURE_215.png,PLENTY,5ea7434507a21c11406c58d6,04/10/2000,2020-09-02_07h28.10.955,proactive3.1,2020.1.2,MacIntel,60,5f47c29a48bd2a1e651a6eb7,5f4f8181fe322903ef371243,6,,,,,,boot,,,,,,,,,,,4,0,0,21,21,37,1,,,,,,,,,,,,,,,,,,,,,,,,,,,,,,,,,,,,,,,,,,,,,,,,,,,,,,,,,,,,,,,,,,,,,,,,,,,,,,,,,,,,,,,,,,,,,,,,,,,,,,,,
,,?,0.00054,0,,,,,,stimuli/images/PICTURE_308.png,ESTATE,5ea7434507a21c11406c58d6,04/10/2000,2020-09-02_07h28.10.955,proactive3.1,2020.1.2,MacIntel,60,5f47c29a48bd2a1e651a6eb7,5f4f8181fe322903ef371243,6,,,,,,dice,,,,,,,,,,,5,0,0,22,22,46,1,,,,,,,,,,,,,,,,,,,,,,,,,,,,,,,,,,,,,,,,,,,,,,,,,,,,,,,,,,,,,,,,,,,,,,,,,,,,,,,,,,,,,,,,,,,,,,,,,,,,,,,,
,,?,0.00075,0,,,,,,stimuli/images/PICTURE_255.png,AREA,5ea7434507a21c11406c58d6,04/10/2000,2020-09-02_07h28.10.955,proactive3.1,2020.1.2,MacIntel,60,5f47c29a48bd2a1e651a6eb7,5f4f8181fe322903ef371243,6,,,,,,shovel,,,,,,,,,,,3,0,0,23,23,22,1,,,,,,,,,,,,,,,,,,,,,,,,,,,,,,,,,,,,,,,,,,,,,,,,,,,,,,,,,,,,,,,,,,,,,,,,,,,,,,,,,,,,,,,,,,,,,,,,,,,,,,,,
,,?,0.000565,0,,,,,,stimuli/images/PICTURE_688.png,WOMEN,5ea7434507a21c11406c58d6,04/10/2000,2020-09-02_07h28.10.955,proactive3.1,2020.1.2,MacIntel,60,5f47c29a48bd2a1e651a6eb7,5f4f8181fe322903ef371243,6,,,,,,runner,,,,,,,,,,,2,0,0,24,24,14,1,,,,,,,,,,,,,,,,,,,,,,,,,,,,,,,,,,,,,,,,,,,,,,,,,,,,,,,,,,,,,,,,,,,,,,,,,,,,,,,,,,,,,,,,,,,,,,,,,,,,,,,,
,,?,0.00055,0,,,,,,stimuli/images/PICTURE_675.png,WEAPON,5ea7434507a21c11406c58d6,04/10/2000,2020-09-02_07h28.10.955,proactive3.1,2020.1.2,MacIntel,60,5f47c29a48bd2a1e651a6eb7,5f4f8181fe322903ef371243,6,,,,,,windmill,,,,,,,,,,,4,0,0,25,25,32,1,,,,,,,,,,,,,,,,,,,,,,,,,,,,,,,,,,,,,,,,,,,,,,,,,,,,,,,,,,,,,,,,,,,,,,,,,,,,,,,,,,,,,,,,,,,,,,,,,,,,,,,,
,,?,0.00053,0,,,,,,stimuli/images/PICTURE_314.png,SAKE,5ea7434507a21c11406c58d6,04/10/2000,2020-09-02_07h28.10.955,proactive3.1,2020.1.2,MacIntel,60,5f47c29a48bd2a1e651a6eb7,5f4f8181fe322903ef371243,6,,,,,,perfume,,,,,,,,,,,1,0,0,26,26,7,1,,,,,,,,,,,,,,,,,,,,,,,,,,,,,,,,,,,,,,,,,,,,,,,,,,,,,,,,,,,,,,,,,,,,,,,,,,,,,,,,,,,,,,,,,,,,,,,,,,,,,,,,
,,KIND,2.28903,1,,,,,,stimuli/images/PICTURE_308.png,KIND,5ea7434507a21c11406c58d6,04/10/2000,2020-09-02_07h28.10.955,proactive3.1,2020.1.2,MacIntel,60,5f47c29a48bd2a1e651a6eb7,5f4f8181fe322903ef371243,6,,,,,,dice,,,,,,,,,,,6,0,0,27,27,54,1,,,,,,,,,,,,,,,,,,,,,,,,,,,,,,,,,,,,,,,,,,,,,,,,,,,,,,,,,,,,,,,,,,,,,,,,,,,,,,,,,,,,,,,,,,,,,,,,,,,,,,,,
,,?,0.001075,0,,,,,,stimuli/images/PICTURE_311.png,BEAUTY,5ea7434507a21c11406c58d6,04/10/2000,2020-09-02_07h28.10.955,proactive3.1,2020.1.2,MacIntel,60,5f47c29a48bd2a1e651a6eb7,5f4f8181fe322903ef371243,6,,,,,,razor,,,,,,,,,,,2,0,0,28,28,13,1,,,,,,,,,,,,,,,,,,,,,,,,,,,,,,,,,,,,,,,,,,,,,,,,,,,,,,,,,,,,,,,,,,,,,,,,,,,,,,,,,,,,,,,,,,,,,,,,,,,,,,,,
,,?,0.000675,0,,,,,,stimuli/images/PICTURE_469.png,ARTIST,5ea7434507a21c11406c58d6,04/10/2000,2020-09-02_07h28.10.955,proactive3.1,2020.1.2,MacIntel,60,5f47c29a48bd2a1e651a6eb7,5f4f8181fe322903ef371243,6,,,,,,stool,,,,,,,,,,,1,0,0,29,29,6,1,,,,,,,,,,,,,,,,,,,,,,,,,,,,,,,,,,,,,,,,,,,,,,,,,,,,,,,,,,,,,,,,,,,,,,,,,,,,,,,,,,,,,,,,,,,,,,,,,,,,,,,,
,,DANGER,2.628775,1,,,,,,stimuli/images/PICTURE_356.png,DANGER,5ea7434507a21c11406c58d6,04/10/2000,2020-09-02_07h28.10.955,proactive3.1,2020.1.2,MacIntel,60,5f47c29a48bd2a1e651a6eb7,5f4f8181fe322903ef371243,6,,,,,,pawn,,,,,,,,,,,6,0,0,30,30,55,1,,,,,,,,,,,,,,,,,,,,,,,,,,,,,,,,,,,,,,,,,,,,,,,,,,,,,,,,,,,,,,,,,,,,,,,,,,,,,,,,,,,,,,,,,,,,,,,,,,,,,,,,
,,?,0.000585,0,,,,,,stimuli/images/PICTURE_744.png,SAKE,5ea7434507a21c11406c58d6,04/10/2000,2020-09-02_07h28.10.955,proactive3.1,2020.1.2,MacIntel,60,5f47c29a48bd2a1e651a6eb7,5f4f8181fe322903ef371243,6,,,,,,ring,,,,,,,,,,,2,0,0,31,31,17,1,,,,,,,,,,,,,,,,,,,,,,,,,,,,,,,,,,,,,,,,,,,,,,,,,,,,,,,,,,,,,,,,,,,,,,,,,,,,,,,,,,,,,,,,,,,,,,,,,,,,,,,,
,,?,0.000355,0,,,,,,stimuli/images/PICTURE_233.png,IDEAS,5ea7434507a21c11406c58d6,04/10/2000,2020-09-02_07h28.10.955,proactive3.1,2020.1.2,MacIntel,60,5f47c29a48bd2a1e651a6eb7,5f4f8181fe322903ef371243,6,,,,,,salt,,,,,,,,,,,3,0,0,32,32,28,1,,,,,,,,,,,,,,,,,,,,,,,,,,,,,,,,,,,,,,,,,,,,,,,,,,,,,,,,,,,,,,,,,,,,,,,,,,,,,,,,,,,,,,,,,,,,,,,,,,,,,,,,
,,?,0.000355,0,,,,,,stimuli/images/PICTURE_348.png,SPEECH,5ea7434507a21c11406c58d6,04/10/2000,2020-09-02_07h28.10.955,proactive3.1,2020.1.2,MacIntel,60,5f47c29a48bd2a1e651a6eb7,5f4f8181fe322903ef371243,6,,,,,,pepper,,,,,,,,,,,3,0,0,33,33,20,1,,,,,,,,,,,,,,,,,,,,,,,,,,,,,,,,,,,,,,,,,,,,,,,,,,,,,,,,,,,,,,,,,,,,,,,,,,,,,,,,,,,,,,,,,,,,,,,,,,,,,,,,
,,?,0.00036,0,,,,,,stimuli/images/PICTURE_160.png,LEADER,5ea7434507a21c11406c58d6,04/10/2000,2020-09-02_07h28.10.955,proactive3.1,2020.1.2,MacIntel,60,5f47c29a48bd2a1e651a6eb7,5f4f8181fe322903ef371243,6,,,,,,wheelbarrow,,,,,,,,,,,1,0,0,34,34,3,1,,,,,,,,,,,,,,,,,,,,,,,,,,,,,,,,,,,,,,,,,,,,,,,,,,,,,,,,,,,,,,,,,,,,,,,,,,,,,,,,,,,,,,,,,,,,,,,,,,,,,,,,
,,?,0.00034,0,,,,,,stimuli/images/PICTURE_453.png,DUDE,5ea7434507a21c11406c58d6,04/10/2000,2020-09-02_07h28.10.955,proactive3.1,2020.1.2,MacIntel,60,5f47c29a48bd2a1e651a6eb7,5f4f8181fe322903ef371243,6,,,,,,scissors,,,,,,,,,,,3,0,0,35,35,27,1,,,,,,,,,,,,,,,,,,,,,,,,,,,,,,,,,,,,,,,,,,,,,,,,,,,,,,,,,,,,,,,,,,,,,,,,,,,,,,,,,,,,,,,,,,,,,,,,,,,,,,,,
,,?,0.000365,0,,,,,,stimuli/images/PICTURE_339.png,PLENTY,5ea7434507a21c11406c58d6,04/10/2000,2020-09-02_07h28.10.955,proactive3.1,2020.1.2,MacIntel,60,5f47c29a48bd2a1e651a6eb7,5f4f8181fe322903ef371243,6,,,,,,backpack,,,,,,,,,,,1,0,0,36,36,0,1,,,,,,,,,,,,,,,,,,,,,,,,,,,,,,,,,,,,,,,,,,,,,,,,,,,,,,,,,,,,,,,,,,,,,,,,,,,,,,,,,,,,,,,,,,,,,,,,,,,,,,,,
,,?,0.00034,0,,,,,,stimuli/images/PICTURE_469.png,LETTER,5ea7434507a21c11406c58d6,04/10/2000,2020-09-02_07h28.10.955,proactive3.1,2020.1.2,MacIntel,60,5f47c29a48bd2a1e651a6eb7,5f4f8181fe322903ef371243,6,,,,,,stool,,,,,,,,,,,5,0,0,37,37,42,1,,,,,,,,,,,,,,,,,,,,,,,,,,,,,,,,,,,,,,,,,,,,,,,,,,,,,,,,,,,,,,,,,,,,,,,,,,,,,,,,,,,,,,,,,,,,,,,,,,,,,,,,
,,?,0.00034,0,,,,,,stimuli/images/PICTURE_151.png,GIRL,5ea7434507a21c11406c58d6,04/10/2000,2020-09-02_07h28.10.955,proactive3.1,2020.1.2,MacIntel,60,5f47c29a48bd2a1e651a6eb7,5f4f8181fe322903ef371243,6,,,,,,tray,,,,,,,,,,,2,0,0,38,38,19,1,,,,,,,,,,,,,,,,,,,,,,,,,,,,,,,,,,,,,,,,,,,,,,,,,,,,,,,,,,,,,,,,,,,,,,,,,,,,,,,,,,,,,,,,,,,,,,,,,,,,,,,,
,,MONTH,4.709195,1,,,,,,stimuli/images/PICTURE_208.png,MONTH,5ea7434507a21c11406c58d6,04/10/2000,2020-09-02_07h28.10.955,proactive3.1,2020.1.2,MacIntel,60,5f47c29a48bd2a1e651a6eb7,5f4f8181fe322903ef371243,6,,,,,,microphone,,,,,,,,,,,6,0,0,39,39,53,1,,,,,,,,,,,,,,,,,,,,,,,,,,,,,,,,,,,,,,,,,,,,,,,,,,,,,,,,,,,,,,,,,,,,,,,,,,,,,,,,,,,,,,,,,,,,,,,,,,,,,,,,
,,?,0.000965,0,,,,,,stimuli/images/PICTURE_677.png,MILE,5ea7434507a21c11406c58d6,04/10/2000,2020-09-02_07h28.10.955,proactive3.1,2020.1.2,MacIntel,60,5f47c29a48bd2a1e651a6eb7,5f4f8181fe322903ef371243,6,,,,,,map,,,,,,,,,,,4,0,0,40,40,30,1,,,,,,,,,,,,,,,,,,,,,,,,,,,,,,,,,,,,,,,,,,,,,,,,,,,,,,,,,,,,,,,,,,,,,,,,,,,,,,,,,,,,,,,,,,,,,,,,,,,,,,,,
,,?,0.000735,0,,,,,,stimuli/images/PICTURE_248.png,DOZEN,5ea7434507a21c11406c58d6,04/10/2000,2020-09-02_07h28.10.955,proactive3.1,2020.1.2,MacIntel,60,5f47c29a48bd2a1e651a6eb7,5f4f8181fe322903ef371243,6,,,,,,cart,,,,,,,,,,,4,0,0,41,41,39,1,,,,,,,,,,,,,,,,,,,,,,,,,,,,,,,,,,,,,,,,,,,,,,,,,,,,,,,,,,,,,,,,,,,,,,,,,,,,,,,,,,,,,,,,,,,,,,,,,,,,,,,,
,,?,0.000525,0,,,,,,stimuli/images/PICTURE_203.png,ARTIST,5ea7434507a21c11406c58d6,04/10/2000,2020-09-02_07h28.10.955,proactive3.1,2020.1.2,MacIntel,60,5f47c29a48bd2a1e651a6eb7,5f4f8181fe322903ef371243,6,,,,,,cap,,,,,,,,,,,3,0,0,42,42,26,1,,,,,,,,,,,,,,,,,,,,,,,,,,,,,,,,,,,,,,,,,,,,,,,,,,,,,,,,,,,,,,,,,,,,,,,,,,,,,,,,,,,,,,,,,,,,,,,,,,,,,,,,
,,?,0.00072,0,,,,,,stimuli/images/PICTURE_688.png,CASINO,5ea7434507a21c11406c58d6,04/10/2000,2020-09-02_07h28.10.955,proactive3.1,2020.1.2,MacIntel,60,5f47c29a48bd2a1e651a6eb7,5f4f8181fe322903ef371243,6,,,,,,runner,,,,,,,,,,,1,0,0,43,43,2,1,,,,,,,,,,,,,,,,,,,,,,,,,,,,,,,,,,,,,,,,,,,,,,,,,,,,,,,,,,,,,,,,,,,,,,,,,,,,,,,,,,,,,,,,,,,,,,,,,,,,,,,,
,,ADVICE,3.8594,1,,,,,,stimuli/images/PICTURE_123.png,ADVICE,5ea7434507a21c11406c58d6,04/10/2000,2020-09-02_07h28.10.955,proactive3.1,2020.1.2,MacIntel,60,5f47c29a48bd2a1e651a6eb7,5f4f8181fe322903ef371243,6,,,,,,dart,,,,,,,,,,,6,0,0,44,44,50,1,,,,,,,,,,,,,,,,,,,,,,,,,,,,,,,,,,,,,,,,,,,,,,,,,,,,,,,,,,,,,,,,,,,,,,,,,,,,,,,,,,,,,,,,,,,,,,,,,,,,,,,,
,,?,0.00099,0,,,,,,stimuli/images/PICTURE_32.png,JUNGLE,5ea7434507a21c11406c58d6,04/10/2000,2020-09-02_07h28.10.955,proactive3.1,2020.1.2,MacIntel,60,5f47c29a48bd2a1e651a6eb7,5f4f8181fe322903ef371243,6,,,,,,crown,,,,,,,,,,,5,0,0,45,45,45,1,,,,,,,,,,,,,,,,,,,,,,,,,,,,,,,,,,,,,,,,,,,,,,,,,,,,,,,,,,,,,,,,,,,,,,,,,,,,,,,,,,,,,,,,,,,,,,,,,,,,,,,,
,,?,0.001475,0,,,,,,stimuli/images/PICTURE_233.png,WOMEN,5ea7434507a21c11406c58d6,04/10/2000,2020-09-02_07h28.10.955,proactive3.1,2020.1.2,MacIntel,60,5f47c29a48bd2a1e651a6eb7,5f4f8181fe322903ef371243,6,,,,,,salt,,,,,,,,,,,4,0,0,46,46,38,1,,,,,,,,,,,,,,,,,,,,,,,,,,,,,,,,,,,,,,,,,,,,,,,,,,,,,,,,,,,,,,,,,,,,,,,,,,,,,,,,,,,,,,,,,,,,,,,,,,,,,,,,
,,?,0.000345,0,,,,,,stimuli/images/PICTURE_314.png,GODS,5ea7434507a21c11406c58d6,04/10/2000,2020-09-02_07h28.10.955,proactive3.1,2020.1.2,MacIntel,60,5f47c29a48bd2a1e651a6eb7,5f4f8181fe322903ef371243,6,,,,,,perfume,,,,,,,,,,,2,0,0,47,47,11,1,,,,,,,,,,,,,,,,,,,,,,,,,,,,,,,,,,,,,,,,,,,,,,,,,,,,,,,,,,,,,,,,,,,,,,,,,,,,,,,,,,,,,,,,,,,,,,,,,,,,,,,,
,,?,0.000355,0,,,,,,stimuli/images/PICTURE_123.png,ADVICE,5ea7434507a21c11406c58d6,04/10/2000,2020-09-02_07h28.10.955,proactive3.1,2020.1.2,MacIntel,60,5f47c29a48bd2a1e651a6eb7,5f4f8181fe322903ef371243,6,,,,,,dart,,,,,,,,,,,5,0,0,48,48,40,1,,,,,,,,,,,,,,,,,,,,,,,,,,,,,,,,,,,,,,,,,,,,,,,,,,,,,,,,,,,,,,,,,,,,,,,,,,,,,,,,,,,,,,,,,,,,,,,,,,,,,,,,
,,?,0.00032,0,,,,,,stimuli/images/PICTURE_85.png,THING,5ea7434507a21c11406c58d6,04/10/2000,2020-09-02_07h28.10.955,proactive3.1,2020.1.2,MacIntel,60,5f47c29a48bd2a1e651a6eb7,5f4f8181fe322903ef371243,6,,,,,,diamond,,,,,,,,,,,2,0,0,49,49,15,1,,,,,,,,,,,,,,,,,,,,,,,,,,,,,,,,,,,,,,,,,,,,,,,,,,,,,,,,,,,,,,,,,,,,,,,,,,,,,,,,,,,,,,,,,,,,,,,,,,,,,,,,
,,?,0.00032,0,,,,,,stimuli/images/PICTURE_667.png,BATH,5ea7434507a21c11406c58d6,04/10/2000,2020-09-02_07h28.10.955,proactive3.1,2020.1.2,MacIntel,60,5f47c29a48bd2a1e651a6eb7,5f4f8181fe322903ef371243,6,,,,,,daisy,,,,,,,,,,,1,0,0,50,50,4,1,,,,,,,,,,,,,,,,,,,,,,,,,,,,,,,,,,,,,,,,,,,,,,,,,,,,,,,,,,,,,,,,,,,,,,,,,,,,,,,,,,,,,,,,,,,,,,,,,,,,,,,,
,,?,0.000325,0,,,,,,stimuli/images/PICTURE_708.png,PENNY,5ea7434507a21c11406c58d6,04/10/2000,2020-09-02_07h28.10.955,proactive3.1,2020.1.2,MacIntel,60,5f47c29a48bd2a1e651a6eb7,5f4f8181fe322903ef371243,6,,,,,,monkey,,,,,,,,,,,4,0,0,51,51,31,1,,,,,,,,,,,,,,,,,,,,,,,,,,,,,,,,,,,,,,,,,,,,,,,,,,,,,,,,,,,,,,,,,,,,,,,,,,,,,,,,,,,,,,,,,,,,,,,,,,,,,,,,
,,WRITER,1.72398,0,,,,,,stimuli/images/PICTURE_160.png,FEET,5ea7434507a21c11406c58d6,04/10/2000,2020-09-02_07h28.10.955,proactive3.1,2020.1.2,MacIntel,60,5f47c29a48bd2a1e651a6eb7,5f4f8181fe322903ef371243,6,,,,,,wheelbarrow,,,,,,,,,,,6,0,0,52,52,58,1,,,,,,,,,,,,,,,,,,,,,,,,,,,,,,,,,,,,,,,,,,,,,,,,,,,,,,,,,,,,,,,,,,,,,,,,,,,,,,,,,,,,,,,,,,,,,,,,,,,,,,,,
,,?,0.001045,0,,,,,,stimuli/images/PICTURE_708.png,YARD,5ea7434507a21c11406c58d6,04/10/2000,2020-09-02_07h28.10.955,proactive3.1,2020.1.2,MacIntel,60,5f47c29a48bd2a1e651a6eb7,5f4f8181fe322903ef371243,6,,,,,,monkey,,,,,,,,,,,3,0,0,53,53,29,1,,,,,,,,,,,,,,,,,,,,,,,,,,,,,,,,,,,,,,,,,,,,,,,,,,,,,,,,,,,,,,,,,,,,,,,,,,,,,,,,,,,,,,,,,,,,,,,,,,,,,,,,
,,?,0.000405,0,,,,,,stimuli/images/PICTURE_667.png,PLENTY,5ea7434507a21c11406c58d6,04/10/2000,2020-09-02_07h28.10.955,proactive3.1,2020.1.2,MacIntel,60,5f47c29a48bd2a1e651a6eb7,5f4f8181fe322903ef371243,6,,,,,,daisy,,,,,,,,,,,5,0,0,54,54,41,1,,,,,,,,,,,,,,,,,,,,,,,,,,,,,,,,,,,,,,,,,,,,,,,,,,,,,,,,,,,,,,,,,,,,,,,,,,,,,,,,,,,,,,,,,,,,,,,,,,,,,,,,
,,?,0.00041,0,,,,,,stimuli/images/PICTURE_177.png,CARS,5ea7434507a21c11406c58d6,04/10/2000,2020-09-02_07h28.10.955,proactive3.1,2020.1.2,MacIntel,60,5f47c29a48bd2a1e651a6eb7,5f4f8181fe322903ef371243,6,,,,,,mushroom,,,,,,,,,,,4,0,0,55,55,35,1,,,,,,,,,,,,,,,,,,,,,,,,,,,,,,,,,,,,,,,,,,,,,,,,,,,,,,,,,,,,,,,,,,,,,,,,,,,,,,,,,,,,,,,,,,,,,,,,,,,,,,,,
,,?,0.00041,0,,,,,,stimuli/images/PICTURE_487.png,FLIGHT,5ea7434507a21c11406c58d6,04/10/2000,2020-09-02_07h28.10.955,proactive3.1,2020.1.2,MacIntel,60,5f47c29a48bd2a1e651a6eb7,5f4f8181fe322903ef371243,6,,,,,,basket,,,,,,,,,,,1,0,0,56,56,9,1,,,,,,,,,,,,,,,,,,,,,,,,,,,,,,,,,,,,,,,,,,,,,,,,,,,,,,,,,,,,,,,,,,,,,,,,,,,,,,,,,,,,,,,,,,,,,,,,,,,,,,,,
,,?,0.00126,0,,,,,,stimuli/images/PICTURE_327.png,BEAUTY,5ea7434507a21c11406c58d6,04/10/2000,2020-09-02_07h28.10.955,proactive3.1,2020.1.2,MacIntel,60,5f47c29a48bd2a1e651a6eb7,5f4f8181fe322903ef371243,6,,,,,,helmet,,,,,,,,,,,5,0,0,57,57,48,1,,,,,,,,,,,,,,,,,,,,,,,,,,,,,,,,,,,,,,,,,,,,,,,,,,,,,,,,,,,,,,,,,,,,,,,,,,,,,,,,,,,,,,,,,,,,,,,,,,,,,,,,
,,WRITER,1.64088,1,,,,,,stimuli/images/PICTURE_491.png,WRITER,5ea7434507a21c11406c58d6,04/10/2000,2020-09-02_07h28.10.955,proactive3.1,2020.1.2,MacIntel,60,5f47c29a48bd2a1e651a6eb7,5f4f8181fe322903ef371243,6,,,,,,rug,,,,,,,,,,,6,0,0,58,58,57,1,,,,,,,,,,,,,,,,,,,,,,,,,,,,,,,,,,,,,,,,,,,,,,,,,,,,,,,,,,,,,,,,,,,,,,,,,,,,,,,,,,,,,,,,,,,,,,,,,,,,,,,,
,,?,0.001655,0,,,,,,stimuli/images/PICTURE_488.png,STYLE,5ea7434507a21c11406c58d6,04/10/2000,2020-09-02_07h28.10.955,proactive3.1,2020.1.2,MacIntel,60,5f47c29a48bd2a1e651a6eb7,5f4f8181fe322903ef371243,6,,,,,,sun,,,,,,,,,,,4,0,0,59,59,33,1,,,,,,,,,,,,,,,,,,,,,,,,,,,,,,,,,,,,,,,,,,,,,,,,,,,,,,,,,,,,,,,,,,,,,,,,,,,,,,,,,,,,,,,,,,,,,,,,,,,,,,,,
,,,,,,,,,,,,5ea7434507a21c11406c58d6,04/10/2000,2020-09-02_07h28.10.955,proactive3.1,2020.1.2,MacIntel,60,5f47c29a48bd2a1e651a6eb7,5f4f8181fe322903ef371243,6,,,,,,,,,,,,,,,,,,,,,,,,0,1,1,0,1,stimuli/learn-block1.csv,,,,,,,,,,,,,,,,,,,,,,,,,,,,,,,,,,,,,,,,,,,,,,,,,,,,,,,,,,,,,,,,,,,,,,,,,,,,,,,,,,,,,,,,,,,,,,,,,,
,,,,,,,,,,stimuli/images/PICTURE_68.png,KIND,5ea7434507a21c11406c58d6,04/10/2000,2020-09-02_07h28.10.955,proactive3.1,2020.1.2,MacIntel,60,5f47c29a48bd2a1e651a6eb7,5f4f8181fe322903ef371243,6,,,,,,candle,,,,,,0,0,0,23,1,3,2,,,,,,,,,,,,,,,,,,,,,,,,,,,,,,,,,,,,,,,,,,,,,,,,,,,,,,,,,,,,,,,,,,,,,,,,,,,,,,,,,,,,,,,,,,,,,,,,,,,,,,,,,,,,,
,,,,,,,,,,stimuli/images/PICTURE_57.png,NATION,5ea7434507a21c11406c58d6,04/10/2000,2020-09-02_07h28.10.955,proactive3.1,2020.1.2,MacIntel,60,5f47c29a48bd2a1e651a6eb7,5f4f8181fe322903ef371243,6,,,,,,stamp,,,,,,0,1,1,21,1,3,2,,,,,,,,,,,,,,,,,,,,,,,,,,,,,,,,,,,,,,,,,,,,,,,,,,,,,,,,,,,,,,,,,,,,,,,,,,,,,,,,,,,,,,,,,,,,,,,,,,,,,,,,,,,,,
,,,,,,,,,,stimuli/images/PICTURE_708.png,VALLEY,5ea7434507a21c11406c58d6,04/10/2000,2020-09-02_07h28.10.955,proactive3.1,2020.1.2,MacIntel,60,5f47c29a48bd2a1e651a6eb7,5f4f8181fe322903ef371243,6,,,,,,monkey,,,,,,0,2,2,45,1,5,2,,,,,,,,,,,,,,,,,,,,,,,,,,,,,,,,,,,,,,,,,,,,,,,,,,,,,,,,,,,,,,,,,,,,,,,,,,,,,,,,,,,,,,,,,,,,,,,,,,,,,,,,,,,,,
,,,,,,,,,,stimuli/images/PICTURE_285.png,PRINCE,5ea7434507a21c11406c58d6,04/10/2000,2020-09-02_07h28.10.955,proactive3.1,2020.1.2,MacIntel,60,5f47c29a48bd2a1e651a6eb7,5f4f8181fe322903ef371243,6,,,,,,carrot,,,,,,0,3,3,20,1,3,2,,,,,,,,,,,,,,,,,,,,,,,,,,,,,,,,,,,,,,,,,,,,,,,,,,,,,,,,,,,,,,,,,,,,,,,,,,,,,,,,,,,,,,,,,,,,,,,,,,,,,,,,,,,,,
,,,,,,,,,,stimuli/images/PICTURE_255.png,PENNY,5ea7434507a21c11406c58d6,04/10/2000,2020-09-02_07h28.10.955,proactive3.1,2020.1.2,MacIntel,60,5f47c29a48bd2a1e651a6eb7,5f4f8181fe322903ef371243,6,,,,,,shovel,,,,,,0,4,4,19,1,2,2,,,,,,,,,,,,,,,,,,,,,,,,,,,,,,,,,,,,,,,,,,,,,,,,,,,,,,,,,,,,,,,,,,,,,,,,,,,,,,,,,,,,,,,,,,,,,,,,,,,,,,,,,,,,,
,,,,,,,,,,stimuli/images/PICTURE_564.png,PLENTY,5ea7434507a21c11406c58d6,04/10/2000,2020-09-02_07h28.10.955,proactive3.1,2020.1.2,MacIntel,60,5f47c29a48bd2a1e651a6eb7,5f4f8181fe322903ef371243,6,,,,,,spoon,,,,,,0,5,5,11,1,2,2,,,,,,,,,,,,,,,,,,,,,,,,,,,,,,,,,,,,,,,,,,,,,,,,,,,,,,,,,,,,,,,,,,,,,,,,,,,,,,,,,,,,,,,,,,,,,,,,,,,,,,,,,,,,,
,,,,,,,,,,stimuli/images/PICTURE_452.png,COPS,5ea7434507a21c11406c58d6,04/10/2000,2020-09-02_07h28.10.955,proactive3.1,2020.1.2,MacIntel,60,5f47c29a48bd2a1e651a6eb7,5f4f8181fe322903ef371243,6,,,,,,watch,,,,,,0,6,6,0,1,1,2,,,,,,,,,,,,,,,,,,,,,,,,,,,,,,,,,,,,,,,,,,,,,,,,,,,,,,,,,,,,,,,,,,,,,,,,,,,,,,,,,,,,,,,,,,,,,,,,,,,,,,,,,,,,,
,,,,,,,,,,stimuli/images/PICTURE_2.png,JUNGLE,5ea7434507a21c11406c58d6,04/10/2000,2020-09-02_07h28.10.955,proactive3.1,2020.1.2,MacIntel,60,5f47c29a48bd2a1e651a6eb7,5f4f8181fe322903ef371243,6,,,,,,tyre,,,,,,0,7,7,1,1,1,2,,,,,,,,,,,,,,,,,,,,,,,,,,,,,,,,,,,,,,,,,,,,,,,,,,,,,,,,,,,,,,,,,,,,,,,,,,,,,,,,,,,,,,,,,,,,,,,,,,,,,,,,,,,,,
,,,,,,,,,,stimuli/images/PICTURE_504.png,HOUSE,5ea7434507a21c11406c58d6,04/10/2000,2020-09-02_07h28.10.955,proactive3.1,2020.1.2,MacIntel,60,5f47c29a48bd2a1e651a6eb7,5f4f8181fe322903ef371243,6,,,,,,wheel,,,,,,0,8,8,36,1,4,2,,,,,,,,,,,,,,,,,,,,,,,,,,,,,,,,,,,,,,,,,,,,,,,,,,,,,,,,,,,,,,,,,,,,,,,,,,,,,,,,,,,,,,,,,,,,,,,,,,,,,,,,,,,,,
,,,,,,,,,,stimuli/images/PICTURE_403.png,FAMILY,5ea7434507a21c11406c58d6,04/10/2000,2020-09-02_07h28.10.955,proactive3.1,2020.1.2,MacIntel,60,5f47c29a48bd2a1e651a6eb7,5f4f8181fe322903ef371243,6,,,,,,cathedral,,,,,,0,9,9,9,1,1,2,,,,,,,,,,,,,,,,,,,,,,,,,,,,,,,,,,,,,,,,,,,,,,,,,,,,,,,,,,,,,,,,,,,,,,,,,,,,,,,,,,,,,,,,,,,,,,,,,,,,,,,,,,,,,
,,,,,,,,,,stimuli/images/PICTURE_688.png,CLOCK,5ea7434507a21c11406c58d6,04/10/2000,2020-09-02_07h28.10.955,proactive3.1,2020.1.2,MacIntel,60,5f47c29a48bd2a1e651a6eb7,5f4f8181fe322903ef371243,6,,,,,,runner,,,,,,0,10,10,42,1,5,2,,,,,,,,,,,,,,,,,,,,,,,,,,,,,,,,,,,,,,,,,,,,,,,,,,,,,,,,,,,,,,,,,,,,,,,,,,,,,,,,,,,,,,,,,,,,,,,,,,,,,,,,,,,,,
,,,,,,,,,,stimuli/images/PICTURE_95.png,NIGHT,5ea7434507a21c11406c58d6,04/10/2000,2020-09-02_07h28.10.955,proactive3.1,2020.1.2,MacIntel,60,5f47c29a48bd2a1e651a6eb7,5f4f8181fe322903ef371243,6,,,,,,suitcase,,,,,,0,11,11,37,1,4,2,,,,,,,,,,,,,,,,,,,,,,,,,,,,,,,,,,,,,,,,,,,,,,,,,,,,,,,,,,,,,,,,,,,,,,,,,,,,,,,,,,,,,,,,,,,,,,,,,,,,,,,,,,,,,
,,,,,,,,,,stimuli/images/PICTURE_667.png,GLASS,5ea7434507a21c11406c58d6,04/10/2000,2020-09-02_07h28.10.955,proactive3.1,2020.1.2,MacIntel,60,5f47c29a48bd2a1e651a6eb7,5f4f8181fe322903ef371243,6,,,,,,daisy,,,,,,0,12,12,27,1,3,2,,,,,,,,,,,,,,,,,,,,,,,,,,,,,,,,,,,,,,,,,,,,,,,,,,,,,,,,,,,,,,,,,,,,,,,,,,,,,,,,,,,,,,,,,,,,,,,,,,,,,,,,,,,,,
,,,,,,,,,,stimuli/images/PICTURE_18.png,RIVER,5ea7434507a21c11406c58d6,04/10/2000,2020-09-02_07h28.10.955,proactive3.1,2020.1.2,MacIntel,60,5f47c29a48bd2a1e651a6eb7,5f4f8181fe322903ef371243,6,,,,,,planet,,,,,,0,13,13,22,1,3,2,,,,,,,,,,,,,,,,,,,,,,,,,,,,,,,,,,,,,,,,,,,,,,,,,,,,,,,,,,,,,,,,,,,,,,,,,,,,,,,,,,,,,,,,,,,,,,,,,,,,,,,,,,,,,
,,,,,,,,,,stimuli/images/PICTURE_509.png,APPLE,5ea7434507a21c11406c58d6,04/10/2000,2020-09-02_07h28.10.955,proactive3.1,2020.1.2,MacIntel,60,5f47c29a48bd2a1e651a6eb7,5f4f8181fe322903ef371243,6,,,,,,telephone,,,,,,0,14,14,38,1,4,2,,,,,,,,,,,,,,,,,,,,,,,,,,,,,,,,,,,,,,,,,,,,,,,,,,,,,,,,,,,,,,,,,,,,,,,,,,,,,,,,,,,,,,,,,,,,,,,,,,,,,,,,,,,,,
,,,,,,,,,,stimuli/images/PICTURE_509.png,SHOTS,5ea7434507a21c11406c58d6,04/10/2000,2020-09-02_07h28.10.955,proactive3.1,2020.1.2,MacIntel,60,5f47c29a48bd2a1e651a6eb7,5f4f8181fe322903ef371243,6,,,,,,telephone,,,,,,0,15,15,7,1,1,2,,,,,,,,,,,,,,,,,,,,,,,,,,,,,,,,,,,,,,,,,,,,,,,,,,,,,,,,,,,,,,,,,,,,,,,,,,,,,,,,,,,,,,,,,,,,,,,,,,,,,,,,,,,,,
,,,,,,,,,,stimuli/images/PICTURE_147.png,LEADER,5ea7434507a21c11406c58d6,04/10/2000,2020-09-02_07h28.10.955,proactive3.1,2020.1.2,MacIntel,60,5f47c29a48bd2a1e651a6eb7,5f4f8181fe322903ef371243,6,,,,,,hanger,,,,,,0,16,16,33,1,4,2,,,,,,,,,,,,,,,,,,,,,,,,,,,,,,,,,,,,,,,,,,,,,,,,,,,,,,,,,,,,,,,,,,,,,,,,,,,,,,,,,,,,,,,,,,,,,,,,,,,,,,,,,,,,,
,,,,,,,,,,stimuli/images/PICTURE_356.png,CANDY,5ea7434507a21c11406c58d6,04/10/2000,2020-09-02_07h28.10.955,proactive3.1,2020.1.2,MacIntel,60,5f47c29a48bd2a1e651a6eb7,5f4f8181fe322903ef371243,6,,,,,,pawn,,,,,,0,17,17,46,1,5,2,,,,,,,,,,,,,,,,,,,,,,,,,,,,,,,,,,,,,,,,,,,,,,,,,,,,,,,,,,,,,,,,,,,,,,,,,,,,,,,,,,,,,,,,,,,,,,,,,,,,,,,,,,,,,
,,,,,,,,,,stimuli/images/PICTURE_405.png,HOUSE,5ea7434507a21c11406c58d6,04/10/2000,2020-09-02_07h28.10.955,proactive3.1,2020.1.2,MacIntel,60,5f47c29a48bd2a1e651a6eb7,5f4f8181fe322903ef371243,6,,,,,,anchor,,,,,,0,18,18,2,1,1,2,,,,,,,,,,,,,,,,,,,,,,,,,,,,,,,,,,,,,,,,,,,,,,,,,,,,,,,,,,,,,,,,,,,,,,,,,,,,,,,,,,,,,,,,,,,,,,,,,,,,,,,,,,,,,
,,,,,,,,,,stimuli/images/PICTURE_677.png,FAMILY,5ea7434507a21c11406c58d6,04/10/2000,2020-09-02_07h28.10.955,proactive3.1,2020.1.2,MacIntel,60,5f47c29a48bd2a1e651a6eb7,5f4f8181fe322903ef371243,6,,,,,,map,,,,,,0,19,19,53,1,6,2,,,,,,,,,,,,,,,,,,,,,,,,,,,,,,,,,,,,,,,,,,,,,,,,,,,,,,,,,,,,,,,,,,,,,,,,,,,,,,,,,,,,,,,,,,,,,,,,,,,,,,,,,,,,,
,,,,,,,,,,stimuli/images/PICTURE_215.png,BOYS,5ea7434507a21c11406c58d6,04/10/2000,2020-09-02_07h28.10.955,proactive3.1,2020.1.2,MacIntel,60,5f47c29a48bd2a1e651a6eb7,5f4f8181fe322903ef371243,6,,,,,,boot,,,,,,0,20,20,24,1,3,2,,,,,,,,,,,,,,,,,,,,,,,,,,,,,,,,,,,,,,,,,,,,,,,,,,,,,,,,,,,,,,,,,,,,,,,,,,,,,,,,,,,,,,,,,,,,,,,,,,,,,,,,,,,,,
,,,,,,,,,,stimuli/images/PICTURE_509.png,BATH,5ea7434507a21c11406c58d6,04/10/2000,2020-09-02_07h28.10.955,proactive3.1,2020.1.2,MacIntel,60,5f47c29a48bd2a1e651a6eb7,5f4f8181fe322903ef371243,6,,,,,,telephone,,,,,,0,21,21,15,1,2,2,,,,,,,,,,,,,,,,,,,,,,,,,,,,,,,,,,,,,,,,,,,,,,,,,,,,,,,,,,,,,,,,,,,,,,,,,,,,,,,,,,,,,,,,,,,,,,,,,,,,,,,,,,,,,
,,,,,,,,,,stimuli/images/PICTURE_348.png,DUDE,5ea7434507a21c11406c58d6,04/10/2000,2020-09-02_07h28.10.955,proactive3.1,2020.1.2,MacIntel,60,5f47c29a48bd2a1e651a6eb7,5f4f8181fe322903ef371243,6,,,,,,pepper,,,,,,0,22,22,59,1,6,2,,,,,,,,,,,,,,,,,,,,,,,,,,,,,,,,,,,,,,,,,,,,,,,,,,,,,,,,,,,,,,,,,,,,,,,,,,,,,,,,,,,,,,,,,,,,,,,,,,,,,,,,,,,,,
,,,,,,,,,,stimuli/images/PICTURE_215.png,LEADER,5ea7434507a21c11406c58d6,04/10/2000,2020-09-02_07h28.10.955,proactive3.1,2020.1.2,MacIntel,60,5f47c29a48bd2a1e651a6eb7,5f4f8181fe322903ef371243,6,,,,,,boot,,,,,,0,23,23,43,1,5,2,,,,,,,,,,,,,,,,,,,,,,,,,,,,,,,,,,,,,,,,,,,,,,,,,,,,,,,,,,,,,,,,,,,,,,,,,,,,,,,,,,,,,,,,,,,,,,,,,,,,,,,,,,,,,
,,,,,,,,,,stimuli/images/PICTURE_491.png,SERIES,5ea7434507a21c11406c58d6,04/10/2000,2020-09-02_07h28.10.955,proactive3.1,2020.1.2,MacIntel,60,5f47c29a48bd2a1e651a6eb7,5f4f8181fe322903ef371243,6,,,,,,rug,,,,,,0,24,24,39,1,4,2,,,,,,,,,,,,,,,,,,,,,,,,,,,,,,,,,,,,,,,,,,,,,,,,,,,,,,,,,,,,,,,,,,,,,,,,,,,,,,,,,,,,,,,,,,,,,,,,,,,,,,,,,,,,,
,,,,,,,,,,stimuli/images/PICTURE_348.png,TOILET,5ea7434507a21c11406c58d6,04/10/2000,2020-09-02_07h28.10.955,proactive3.1,2020.1.2,MacIntel,60,5f47c29a48bd2a1e651a6eb7,5f4f8181fe322903ef371243,6,,,,,,pepper,,,,,,0,25,25,4,1,1,2,,,,,,,,,,,,,,,,,,,,,,,,,,,,,,,,,,,,,,,,,,,,,,,,,,,,,,,,,,,,,,,,,,,,,,,,,,,,,,,,,,,,,,,,,,,,,,,,,,,,,,,,,,,,,
,,,,,,,,,,stimuli/images/PICTURE_487.png,POLICY,5ea7434507a21c11406c58d6,04/10/2000,2020-09-02_07h28.10.955,proactive3.1,2020.1.2,MacIntel,60,5f47c29a48bd2a1e651a6eb7,5f4f8181fe322903ef371243,6,,,,,,basket,,,,,,0,26,26,34,1,4,2,,,,,,,,,,,,,,,,,,,,,,,,,,,,,,,,,,,,,,,,,,,,,,,,,,,,,,,,,,,,,,,,,,,,,,,,,,,,,,,,,,,,,,,,,,,,,,,,,,,,,,,,,,,,,
,,,,,,,,,,stimuli/images/PICTURE_2.png,YARD,5ea7434507a21c11406c58d6,04/10/2000,2020-09-02_07h28.10.955,proactive3.1,2020.1.2,MacIntel,60,5f47c29a48bd2a1e651a6eb7,5f4f8181fe322903ef371243,6,,,,,,tyre,,,,,,0,27,27,55,1,6,2,,,,,,,,,,,,,,,,,,,,,,,,,,,,,,,,,,,,,,,,,,,,,,,,,,,,,,,,,,,,,,,,,,,,,,,,,,,,,,,,,,,,,,,,,,,,,,,,,,,,,,,,,,,,,
,,,,,,,,,,stimuli/images/PICTURE_654.png,COPS,5ea7434507a21c11406c58d6,04/10/2000,2020-09-02_07h28.10.955,proactive3.1,2020.1.2,MacIntel,60,5f47c29a48bd2a1e651a6eb7,5f4f8181fe322903ef371243,6,,,,,,pencil,,,,,,0,28,28,10,1,2,2,,,,,,,,,,,,,,,,,,,,,,,,,,,,,,,,,,,,,,,,,,,,,,,,,,,,,,,,,,,,,,,,,,,,,,,,,,,,,,,,,,,,,,,,,,,,,,,,,,,,,,,,,,,,,
,,,,,,,,,,stimuli/images/PICTURE_311.png,FLESH,5ea7434507a21c11406c58d6,04/10/2000,2020-09-02_07h28.10.955,proactive3.1,2020.1.2,MacIntel,60,5f47c29a48bd2a1e651a6eb7,5f4f8181fe322903ef371243,6,,,,,,razor,,,,,,0,29,29,3,1,1,2,,,,,,,,,,,,,,,,,,,,,,,,,,,,,,,,,,,,,,,,,,,,,,,,,,,,,,,,,,,,,,,,,,,,,,,,,,,,,,,,,,,,,,,,,,,,,,,,,,,,,,,,,,,,,
,,,,,,,,,,stimuli/images/PICTURE_677.png,PHOTO,5ea7434507a21c11406c58d6,04/10/2000,2020-09-02_07h28.10.955,proactive3.1,2020.1.2,MacIntel,60,5f47c29a48bd2a1e651a6eb7,5f4f8181fe322903ef371243,6,,,,,,map,,,,,,0,30,30,14,1,2,2,,,,,,,,,,,,,,,,,,,,,,,,,,,,,,,,,,,,,,,,,,,,,,,,,,,,,,,,,,,,,,,,,,,,,,,,,,,,,,,,,,,,,,,,,,,,,,,,,,,,,,,,,,,,,
,,,,,,,,,,stimuli/images/PICTURE_405.png,JUNGLE,5ea7434507a21c11406c58d6,04/10/2000,2020-09-02_07h28.10.955,proactive3.1,2020.1.2,MacIntel,60,5f47c29a48bd2a1e651a6eb7,5f4f8181fe322903ef371243,6,,,,,,anchor,,,,,,0,31,31,58,1,6,2,,,,,,,,,,,,,,,,,,,,,,,,,,,,,,,,,,,,,,,,,,,,,,,,,,,,,,,,,,,,,,,,,,,,,,,,,,,,,,,,,,,,,,,,,,,,,,,,,,,,,,,,,,,,,
,,,,,,,,,,stimuli/images/PICTURE_177.png,HOUSE,5ea7434507a21c11406c58d6,04/10/2000,2020-09-02_07h28.10.955,proactive3.1,2020.1.2,MacIntel,60,5f47c29a48bd2a1e651a6eb7,5f4f8181fe322903ef371243,6,,,,,,mushroom,,,,,,0,32,32,25,1,3,2,,,,,,,,,,,,,,,,,,,,,,,,,,,,,,,,,,,,,,,,,,,,,,,,,,,,,,,,,,,,,,,,,,,,,,,,,,,,,,,,,,,,,,,,,,,,,,,,,,,,,,,,,,,,,
,,,,,,,,,,stimuli/images/PICTURE_2.png,AREA,5ea7434507a21c11406c58d6,04/10/2000,2020-09-02_07h28.10.955,proactive3.1,2020.1.2,MacIntel,60,5f47c29a48bd2a1e651a6eb7,5f4f8181fe322903ef371243,6,,,,,,tyre,,,,,,0,33,33,32,1,4,2,,,,,,,,,,,,,,,,,,,,,,,,,,,,,,,,,,,,,,,,,,,,,,,,,,,,,,,,,,,,,,,,,,,,,,,,,,,,,,,,,,,,,,,,,,,,,,,,,,,,,,,,,,,,,
,,,,,,,,,,stimuli/images/PICTURE_123.png,SALE,5ea7434507a21c11406c58d6,04/10/2000,2020-09-02_07h28.10.955,proactive3.1,2020.1.2,MacIntel,60,5f47c29a48bd2a1e651a6eb7,5f4f8181fe322903ef371243,6,,,,,,dart,,,,,,0,34,34,8,1,1,2,,,,,,,,,,,,,,,,,,,,,,,,,,,,,,,,,,,,,,,,,,,,,,,,,,,,,,,,,,,,,,,,,,,,,,,,,,,,,,,,,,,,,,,,,,,,,,,,,,,,,,,,,,,,,
,,,,,,,,,,stimuli/images/PICTURE_655.png,SALE,5ea7434507a21c11406c58d6,04/10/2000,2020-09-02_07h28.10.955,proactive3.1,2020.1.2,MacIntel,60,5f47c29a48bd2a1e651a6eb7,5f4f8181fe322903ef371243,6,,,,,,megaphone,,,,,,0,35,35,57,1,6,2,,,,,,,,,,,,,,,,,,,,,,,,,,,,,,,,,,,,,,,,,,,,,,,,,,,,,,,,,,,,,,,,,,,,,,,,,,,,,,,,,,,,,,,,,,,,,,,,,,,,,,,,,,,,,
