consent_key.keys,consent_key.rt,recalled,recalled_rt,recall_acc,example_recall.thisRepN,example_recall.thisTrialN,example_recall.thisN,example_recall.thisIndex,example_recall.ran,file,word,participant,please enter your date of birth (dd/mm/yyyy),date,expName,psychopyVersion,OS,frameRate,STUDY_ID,SESSION_ID,list,prac_learn_study_loop.thisRepN,prac_learn_study_loop.thisTrialN,prac_learn_study_loop.thisN,prac_learn_study_loop.thisIndex,prac_learn_study_loop.ran,image,prac_learn_test_loop.thisRepN,prac_learn_test_loop.thisTrialN,prac_learn_test_loop.thisN,prac_learn_test_loop.thisIndex,prac_learn_test_loop.ran,learn_study_loop.thisRepN,learn_study_loop.thisTrialN,learn_study_loop.thisN,learn_study_loop.thisIndex,learn_study_loop.ran,list_no,block_no,learn_test_loop.thisRepN,learn_test_loop.thisTrialN,learn_test_loop.thisN,learn_test_loop.thisIndex,learn_test_loop.ran,learn_blocks.thisRepN,learn_blocks.thisTrialN,learn_blocks.thisN,learn_blocks.thisIndex,learn_blocks.ran,block_csv,key_resp_13.keys,key_resp_13.rt,learn_blocks_loop.thisRepN,learn_blocks_loop.thisTrialN,learn_blocks_loop.thisN,learn_blocks_loop.thisIndex,learn_blocks_loop.ran,final_learn_test.thisRepN,final_learn_test.thisTrialN,final_learn_test.thisN,final_learn_test.thisIndex,final_learn_test.ran,s_im1,s_im2,s_im3,s_im4,s_im5,s_im6,s_im7,s_im8,s_im1pos,s_im2pos,s_im3pos,s_im4pos,s_im5pos,s_im6pos,s_im7pos,s_im8pos,s_tarright,search_resp.keys,search_loop.thisRepN,search_loop.thisTrialN,search_loop.thisN,search_loop.thisIndex,search_loop.ran,search_resp.rt,prac_wm_search_loop.thisRepN,prac_wm_search_loop.thisTrialN,prac_wm_search_loop.thisN,prac_wm_search_loop.thisIndex,prac_wm_search_loop.ran,prac_wm_test_loop.thisRepN,prac_wm_test_loop.thisTrialN,prac_wm_test_loop.thisN,prac_wm_test_loop.thisIndex,prac_wm_test_loop.ran,wm_recalled1,wm_recall_rt1,wm_probed1,wm_recall_acc1,wm_recalled2,wm_recall_rt2,wm_probed2,wm_recall_acc2,wm_recalled3,wm_recall_rt3,wm_probed3,wm_recall_acc3,wm_recalled4,wm_recall_rt4,wm_probed4,wm_recall_acc4,prac_wm_trial_loop.thisRepN,prac_wm_trial_loop.thisTrialN,prac_wm_trial_loop.thisN,prac_wm_trial_loop.thisIndex,prac_wm_trial_loop.ran,word1,image1,file1,item_type1,word2,image2,file2,item_type2,word4,image4,file4,item_type4,word3,image3,file3,item_type3,wm_search_loop.thisRepN,wm_search_loop.thisTrialN,wm_search_loop.thisN,wm_search_loop.thisIndex,wm_search_loop.ran,wm_test_loop.thisRepN,wm_test_loop.thisTrialN,wm_test_loop.thisN,wm_test_loop.thisIndex,wm_test_loop.ran,wm_trial_loop.thisRepN,wm_trial_loop.thisTrialN,wm_trial_loop.thisN,wm_trial_loop.thisIndex,wm_trial_loop.ran
y,44.495555,TOUGH,6.83287,1,0,0,0,0,1,stimuli/images/PICTURE_747.png,TOUGH,5eb175cb50f4320854a67dcf,10/03/1954,2020-09-10_14h40.16.899,proactive3.1,2020.1.2,Win32,60,5f599a131af4471f3d752b7b,5f5a2c4ed979940876c7660a,3,,,,,,,,,,,,,,,,,,,,,,,,,,,,,,,,,,,,,,,,,,,,,,,,,,,,,,,,,,,,,,,,,,,,,,,,,,,,,,,,,,,,,,,,,,,,,,,,,,,,,,,,,,,,,,,,,,,,,,,,,,,,,,,
,,,,,,,,,,stimuli/images/PICTURE_727.png,CELL,5eb175cb50f4320854a67dcf,10/03/1954,2020-09-10_14h40.16.899,proactive3.1,2020.1.2,Win32,60,5f599a131af4471f3d752b7b,5f5a2c4ed979940876c7660a,3,0,0,0,1,1,hose,,,,,,,,,,,,,,,,,,,,,,,,,,,,,,,,,,,,,,,,,,,,,,,,,,,,,,,,,,,,,,,,,,,,,,,,,,,,,,,,,,,,,,,,,,,,,,,,,,,,,,,,,,,,,,,,,,,,,,,,,
,,,,,,,,,,stimuli/images/PICTURE_269.png,GENIUS,5eb175cb50f4320854a67dcf,10/03/1954,2020-09-10_14h40.16.899,proactive3.1,2020.1.2,Win32,60,5f599a131af4471f3d752b7b,5f5a2c4ed979940876c7660a,3,0,1,1,0,1,chameleon,,,,,,,,,,,,,,,,,,,,,,,,,,,,,,,,,,,,,,,,,,,,,,,,,,,,,,,,,,,,,,,,,,,,,,,,,,,,,,,,,,,,,,,,,,,,,,,,,,,,,,,,,,,,,,,,,,,,,,,,,
,,,,,,,,,,stimuli/images/PICTURE_697.png,KILLER,5eb175cb50f4320854a67dcf,10/03/1954,2020-09-10_14h40.16.899,proactive3.1,2020.1.2,Win32,60,5f599a131af4471f3d752b7b,5f5a2c4ed979940876c7660a,3,0,2,2,4,1,peach,,,,,,,,,,,,,,,,,,,,,,,,,,,,,,,,,,,,,,,,,,,,,,,,,,,,,,,,,,,,,,,,,,,,,,,,,,,,,,,,,,,,,,,,,,,,,,,,,,,,,,,,,,,,,,,,,,,,,,,,,
,,,,,,,,,,stimuli/images/PICTURE_658.png,DEVIL,5eb175cb50f4320854a67dcf,10/03/1954,2020-09-10_14h40.16.899,proactive3.1,2020.1.2,Win32,60,5f599a131af4471f3d752b7b,5f5a2c4ed979940876c7660a,3,0,3,3,3,1,crow,,,,,,,,,,,,,,,,,,,,,,,,,,,,,,,,,,,,,,,,,,,,,,,,,,,,,,,,,,,,,,,,,,,,,,,,,,,,,,,,,,,,,,,,,,,,,,,,,,,,,,,,,,,,,,,,,,,,,,,,,
,,GENIUS,10.5601,1,,,,,,stimuli/images/PICTURE_269.png,GENIUS,5eb175cb50f4320854a67dcf,10/03/1954,2020-09-10_14h40.16.899,proactive3.1,2020.1.2,Win32,60,5f599a131af4471f3d752b7b,5f5a2c4ed979940876c7660a,3,,,,,,chameleon,0,0,0,0,1,,,,,,,,,,,,,,,,,,,,,,,,,,,,,,,,,,,,,,,,,,,,,,,,,,,,,,,,,,,,,,,,,,,,,,,,,,,,,,,,,,,,,,,,,,,,,,,,,,,,,,,,,,,,,,,,,,,,
,,CELL,4.34809,1,,,,,,stimuli/images/PICTURE_727.png,CELL,5eb175cb50f4320854a67dcf,10/03/1954,2020-09-10_14h40.16.899,proactive3.1,2020.1.2,Win32,60,5f599a131af4471f3d752b7b,5f5a2c4ed979940876c7660a,3,,,,,,hose,0,1,1,1,1,,,,,,,,,,,,,,,,,,,,,,,,,,,,,,,,,,,,,,,,,,,,,,,,,,,,,,,,,,,,,,,,,,,,,,,,,,,,,,,,,,,,,,,,,,,,,,,,,,,,,,,,,,,,,,,,,,,,
,,LOSS,9.31537,0,,,,,,stimuli/images/PICTURE_697.png,KILLER,5eb175cb50f4320854a67dcf,10/03/1954,2020-09-10_14h40.16.899,proactive3.1,2020.1.2,Win32,60,5f599a131af4471f3d752b7b,5f5a2c4ed979940876c7660a,3,,,,,,peach,0,2,2,4,1,,,,,,,,,,,,,,,,,,,,,,,,,,,,,,,,,,,,,,,,,,,,,,,,,,,,,,,,,,,,,,,,,,,,,,,,,,,,,,,,,,,,,,,,,,,,,,,,,,,,,,,,,,,,,,,,,,,,
,,DEVIL,3.72853,1,,,,,,stimuli/images/PICTURE_658.png,DEVIL,5eb175cb50f4320854a67dcf,10/03/1954,2020-09-10_14h40.16.899,proactive3.1,2020.1.2,Win32,60,5f599a131af4471f3d752b7b,5f5a2c4ed979940876c7660a,3,,,,,,crow,0,3,3,3,1,,,,,,,,,,,,,,,,,,,,,,,,,,,,,,,,,,,,,,,,,,,,,,,,,,,,,,,,,,,,,,,,,,,,,,,,,,,,,,,,,,,,,,,,,,,,,,,,,,,,,,,,,,,,,,,,,,,,
,,LOSS,6.799025,1,,,,,,stimuli/images/PICTURE_378.png,LOSS,5eb175cb50f4320854a67dcf,10/03/1954,2020-09-10_14h40.16.899,proactive3.1,2020.1.2,Win32,60,5f599a131af4471f3d752b7b,5f5a2c4ed979940876c7660a,3,,,,,,lobster,0,4,4,2,1,,,,,,,,,,,,,,,,,,,,,,,,,,,,,,,,,,,,,,,,,,,,,,,,,,,,,,,,,,,,,,,,,,,,,,,,,,,,,,,,,,,,,,,,,,,,,,,,,,,,,,,,,,,,,,,,,,,,
,,,,,,,,,,stimuli/images/PICTURE_296.png,LOTS,5eb175cb50f4320854a67dcf,10/03/1954,2020-09-10_14h40.16.899,proactive3.1,2020.1.2,Win32,60,5f599a131af4471f3d752b7b,5f5a2c4ed979940876c7660a,3,,,,,,bolt,,,,,,0,0,0,9,1,1,1,,,,,,,,,,,,,,,,,,,,,,,,,,,,,,,,,,,,,,,,,,,,,,,,,,,,,,,,,,,,,,,,,,,,,,,,,,,,,,,,,,,,,,,,,,,,,,,,,,,,,,,,,,,,,
,,,,,,,,,,stimuli/images/PICTURE_380.png,HONEY,5eb175cb50f4320854a67dcf,10/03/1954,2020-09-10_14h40.16.899,proactive3.1,2020.1.2,Win32,60,5f599a131af4471f3d752b7b,5f5a2c4ed979940876c7660a,3,,,,,,gorilla,,,,,,0,1,1,19,1,2,1,,,,,,,,,,,,,,,,,,,,,,,,,,,,,,,,,,,,,,,,,,,,,,,,,,,,,,,,,,,,,,,,,,,,,,,,,,,,,,,,,,,,,,,,,,,,,,,,,,,,,,,,,,,,,
,,,,,,,,,,stimuli/images/PICTURE_449.png,DUDE,5eb175cb50f4320854a67dcf,10/03/1954,2020-09-10_14h40.16.899,proactive3.1,2020.1.2,Win32,60,5f599a131af4471f3d752b7b,5f5a2c4ed979940876c7660a,3,,,,,,bench,,,,,,0,2,2,17,1,2,1,,,,,,,,,,,,,,,,,,,,,,,,,,,,,,,,,,,,,,,,,,,,,,,,,,,,,,,,,,,,,,,,,,,,,,,,,,,,,,,,,,,,,,,,,,,,,,,,,,,,,,,,,,,,,
,,,,,,,,,,stimuli/images/PICTURE_57.png,MOMENT,5eb175cb50f4320854a67dcf,10/03/1954,2020-09-10_14h40.16.899,proactive3.1,2020.1.2,Win32,60,5f599a131af4471f3d752b7b,5f5a2c4ed979940876c7660a,3,,,,,,stamp,,,,,,0,3,3,37,1,4,1,,,,,,,,,,,,,,,,,,,,,,,,,,,,,,,,,,,,,,,,,,,,,,,,,,,,,,,,,,,,,,,,,,,,,,,,,,,,,,,,,,,,,,,,,,,,,,,,,,,,,,,,,,,,,
,,,,,,,,,,stimuli/images/PICTURE_467.png,POLICY,5eb175cb50f4320854a67dcf,10/03/1954,2020-09-10_14h40.16.899,proactive3.1,2020.1.2,Win32,60,5f599a131af4471f3d752b7b,5f5a2c4ed979940876c7660a,3,,,,,,peg,,,,,,0,4,4,53,1,6,1,,,,,,,,,,,,,,,,,,,,,,,,,,,,,,,,,,,,,,,,,,,,,,,,,,,,,,,,,,,,,,,,,,,,,,,,,,,,,,,,,,,,,,,,,,,,,,,,,,,,,,,,,,,,,
,,,,,,,,,,stimuli/images/PICTURE_177.png,WRITER,5eb175cb50f4320854a67dcf,10/03/1954,2020-09-10_14h40.16.899,proactive3.1,2020.1.2,Win32,60,5f599a131af4471f3d752b7b,5f5a2c4ed979940876c7660a,3,,,,,,mushroom,,,,,,0,5,5,41,1,5,1,,,,,,,,,,,,,,,,,,,,,,,,,,,,,,,,,,,,,,,,,,,,,,,,,,,,,,,,,,,,,,,,,,,,,,,,,,,,,,,,,,,,,,,,,,,,,,,,,,,,,,,,,,,,,
,,,,,,,,,,stimuli/images/PICTURE_68.png,ROOF,5eb175cb50f4320854a67dcf,10/03/1954,2020-09-10_14h40.16.899,proactive3.1,2020.1.2,Win32,60,5f599a131af4471f3d752b7b,5f5a2c4ed979940876c7660a,3,,,,,,candle,,,,,,0,6,6,38,1,4,1,,,,,,,,,,,,,,,,,,,,,,,,,,,,,,,,,,,,,,,,,,,,,,,,,,,,,,,,,,,,,,,,,,,,,,,,,,,,,,,,,,,,,,,,,,,,,,,,,,,,,,,,,,,,,
,,,,,,,,,,stimuli/images/PICTURE_504.png,YEAR,5eb175cb50f4320854a67dcf,10/03/1954,2020-09-10_14h40.16.899,proactive3.1,2020.1.2,Win32,60,5f599a131af4471f3d752b7b,5f5a2c4ed979940876c7660a,3,,,,,,wheel,,,,,,0,7,7,13,1,2,1,,,,,,,,,,,,,,,,,,,,,,,,,,,,,,,,,,,,,,,,,,,,,,,,,,,,,,,,,,,,,,,,,,,,,,,,,,,,,,,,,,,,,,,,,,,,,,,,,,,,,,,,,,,,,
,,,,,,,,,,stimuli/images/PICTURE_383.png,SERIES,5eb175cb50f4320854a67dcf,10/03/1954,2020-09-10_14h40.16.899,proactive3.1,2020.1.2,Win32,60,5f599a131af4471f3d752b7b,5f5a2c4ed979940876c7660a,3,,,,,,coin,,,,,,0,8,8,46,1,5,1,,,,,,,,,,,,,,,,,,,,,,,,,,,,,,,,,,,,,,,,,,,,,,,,,,,,,,,,,,,,,,,,,,,,,,,,,,,,,,,,,,,,,,,,,,,,,,,,,,,,,,,,,,,,,
,,,,,,,,,,stimuli/images/PICTURE_675.png,SALE,5eb175cb50f4320854a67dcf,10/03/1954,2020-09-10_14h40.16.899,proactive3.1,2020.1.2,Win32,60,5f599a131af4471f3d752b7b,5f5a2c4ed979940876c7660a,3,,,,,,windmill,,,,,,0,9,9,47,1,5,1,,,,,,,,,,,,,,,,,,,,,,,,,,,,,,,,,,,,,,,,,,,,,,,,,,,,,,,,,,,,,,,,,,,,,,,,,,,,,,,,,,,,,,,,,,,,,,,,,,,,,,,,,,,,,
,,,,,,,,,,stimuli/images/PICTURE_203.png,NIGHT,5eb175cb50f4320854a67dcf,10/03/1954,2020-09-10_14h40.16.899,proactive3.1,2020.1.2,Win32,60,5f599a131af4471f3d752b7b,5f5a2c4ed979940876c7660a,3,,,,,,cap,,,,,,0,10,10,2,1,1,1,,,,,,,,,,,,,,,,,,,,,,,,,,,,,,,,,,,,,,,,,,,,,,,,,,,,,,,,,,,,,,,,,,,,,,,,,,,,,,,,,,,,,,,,,,,,,,,,,,,,,,,,,,,,,
,,,,,,,,,,stimuli/images/PICTURE_32.png,PILLS,5eb175cb50f4320854a67dcf,10/03/1954,2020-09-10_14h40.16.899,proactive3.1,2020.1.2,Win32,60,5f599a131af4471f3d752b7b,5f5a2c4ed979940876c7660a,3,,,,,,crown,,,,,,0,11,11,18,1,2,1,,,,,,,,,,,,,,,,,,,,,,,,,,,,,,,,,,,,,,,,,,,,,,,,,,,,,,,,,,,,,,,,,,,,,,,,,,,,,,,,,,,,,,,,,,,,,,,,,,,,,,,,,,,,,
,,,,,,,,,,stimuli/images/PICTURE_95.png,MILLER,5eb175cb50f4320854a67dcf,10/03/1954,2020-09-10_14h40.16.899,proactive3.1,2020.1.2,Win32,60,5f599a131af4471f3d752b7b,5f5a2c4ed979940876c7660a,3,,,,,,suitcase,,,,,,0,12,12,56,1,6,1,,,,,,,,,,,,,,,,,,,,,,,,,,,,,,,,,,,,,,,,,,,,,,,,,,,,,,,,,,,,,,,,,,,,,,,,,,,,,,,,,,,,,,,,,,,,,,,,,,,,,,,,,,,,,
,,,,,,,,,,stimuli/images/PICTURE_327.png,SERIES,5eb175cb50f4320854a67dcf,10/03/1954,2020-09-10_14h40.16.899,proactive3.1,2020.1.2,Win32,60,5f599a131af4471f3d752b7b,5f5a2c4ed979940876c7660a,3,,,,,,helmet,,,,,,0,13,13,3,1,1,1,,,,,,,,,,,,,,,,,,,,,,,,,,,,,,,,,,,,,,,,,,,,,,,,,,,,,,,,,,,,,,,,,,,,,,,,,,,,,,,,,,,,,,,,,,,,,,,,,,,,,,,,,,,,,
,,,,,,,,,,stimuli/images/PICTURE_32.png,KIND,5eb175cb50f4320854a67dcf,10/03/1954,2020-09-10_14h40.16.899,proactive3.1,2020.1.2,Win32,60,5f599a131af4471f3d752b7b,5f5a2c4ed979940876c7660a,3,,,,,,crown,,,,,,0,14,14,35,1,4,1,,,,,,,,,,,,,,,,,,,,,,,,,,,,,,,,,,,,,,,,,,,,,,,,,,,,,,,,,,,,,,,,,,,,,,,,,,,,,,,,,,,,,,,,,,,,,,,,,,,,,,,,,,,,,
,,,,,,,,,,stimuli/images/PICTURE_380.png,CANDY,5eb175cb50f4320854a67dcf,10/03/1954,2020-09-10_14h40.16.899,proactive3.1,2020.1.2,Win32,60,5f599a131af4471f3d752b7b,5f5a2c4ed979940876c7660a,3,,,,,,gorilla,,,,,,0,15,15,0,1,1,1,,,,,,,,,,,,,,,,,,,,,,,,,,,,,,,,,,,,,,,,,,,,,,,,,,,,,,,,,,,,,,,,,,,,,,,,,,,,,,,,,,,,,,,,,,,,,,,,,,,,,,,,,,,,,
,,,,,,,,,,stimuli/images/PICTURE_491.png,GLASS,5eb175cb50f4320854a67dcf,10/03/1954,2020-09-10_14h40.16.899,proactive3.1,2020.1.2,Win32,60,5f599a131af4471f3d752b7b,5f5a2c4ed979940876c7660a,3,,,,,,rug,,,,,,0,16,16,14,1,2,1,,,,,,,,,,,,,,,,,,,,,,,,,,,,,,,,,,,,,,,,,,,,,,,,,,,,,,,,,,,,,,,,,,,,,,,,,,,,,,,,,,,,,,,,,,,,,,,,,,,,,,,,,,,,,
,,,,,,,,,,stimuli/images/PICTURE_340.png,LETTER,5eb175cb50f4320854a67dcf,10/03/1954,2020-09-10_14h40.16.899,proactive3.1,2020.1.2,Win32,60,5f599a131af4471f3d752b7b,5f5a2c4ed979940876c7660a,3,,,,,,mirror,,,,,,0,17,17,24,1,3,1,,,,,,,,,,,,,,,,,,,,,,,,,,,,,,,,,,,,,,,,,,,,,,,,,,,,,,,,,,,,,,,,,,,,,,,,,,,,,,,,,,,,,,,,,,,,,,,,,,,,,,,,,,,,,
,,,,,,,,,,stimuli/images/PICTURE_327.png,CASINO,5eb175cb50f4320854a67dcf,10/03/1954,2020-09-10_14h40.16.899,proactive3.1,2020.1.2,Win32,60,5f599a131af4471f3d752b7b,5f5a2c4ed979940876c7660a,3,,,,,,helmet,,,,,,0,18,18,20,1,3,1,,,,,,,,,,,,,,,,,,,,,,,,,,,,,,,,,,,,,,,,,,,,,,,,,,,,,,,,,,,,,,,,,,,,,,,,,,,,,,,,,,,,,,,,,,,,,,,,,,,,,,,,,,,,,
,,,,,,,,,,stimuli/images/PICTURE_2.png,FLIGHT,5eb175cb50f4320854a67dcf,10/03/1954,2020-09-10_14h40.16.899,proactive3.1,2020.1.2,Win32,60,5f599a131af4471f3d752b7b,5f5a2c4ed979940876c7660a,3,,,,,,tyre,,,,,,0,19,19,15,1,2,1,,,,,,,,,,,,,,,,,,,,,,,,,,,,,,,,,,,,,,,,,,,,,,,,,,,,,,,,,,,,,,,,,,,,,,,,,,,,,,,,,,,,,,,,,,,,,,,,,,,,,,,,,,,,,
,,,,,,,,,,stimuli/images/PICTURE_95.png,HONEY,5eb175cb50f4320854a67dcf,10/03/1954,2020-09-10_14h40.16.899,proactive3.1,2020.1.2,Win32,60,5f599a131af4471f3d752b7b,5f5a2c4ed979940876c7660a,3,,,,,,suitcase,,,,,,0,20,20,44,1,5,1,,,,,,,,,,,,,,,,,,,,,,,,,,,,,,,,,,,,,,,,,,,,,,,,,,,,,,,,,,,,,,,,,,,,,,,,,,,,,,,,,,,,,,,,,,,,,,,,,,,,,,,,,,,,,
,,,,,,,,,,stimuli/images/PICTURE_147.png,YEAR,5eb175cb50f4320854a67dcf,10/03/1954,2020-09-10_14h40.16.899,proactive3.1,2020.1.2,Win32,60,5f599a131af4471f3d752b7b,5f5a2c4ed979940876c7660a,3,,,,,,hanger,,,,,,0,21,21,21,1,3,1,,,,,,,,,,,,,,,,,,,,,,,,,,,,,,,,,,,,,,,,,,,,,,,,,,,,,,,,,,,,,,,,,,,,,,,,,,,,,,,,,,,,,,,,,,,,,,,,,,,,,,,,,,,,,
,,,,,,,,,,stimuli/images/PICTURE_95.png,BOYS,5eb175cb50f4320854a67dcf,10/03/1954,2020-09-10_14h40.16.899,proactive3.1,2020.1.2,Win32,60,5f599a131af4471f3d752b7b,5f5a2c4ed979940876c7660a,3,,,,,,suitcase,,,,,,0,22,22,1,1,1,1,,,,,,,,,,,,,,,,,,,,,,,,,,,,,,,,,,,,,,,,,,,,,,,,,,,,,,,,,,,,,,,,,,,,,,,,,,,,,,,,,,,,,,,,,,,,,,,,,,,,,,,,,,,,,
,,,,,,,,,,stimuli/images/PICTURE_504.png,COPS,5eb175cb50f4320854a67dcf,10/03/1954,2020-09-10_14h40.16.899,proactive3.1,2020.1.2,Win32,60,5f599a131af4471f3d752b7b,5f5a2c4ed979940876c7660a,3,,,,,,wheel,,,,,,0,23,23,52,1,6,1,,,,,,,,,,,,,,,,,,,,,,,,,,,,,,,,,,,,,,,,,,,,,,,,,,,,,,,,,,,,,,,,,,,,,,,,,,,,,,,,,,,,,,,,,,,,,,,,,,,,,,,,,,,,,
,,,,,,,,,,stimuli/images/PICTURE_297.png,RIVER,5eb175cb50f4320854a67dcf,10/03/1954,2020-09-10_14h40.16.899,proactive3.1,2020.1.2,Win32,60,5f599a131af4471f3d752b7b,5f5a2c4ed979940876c7660a,3,,,,,,aeroplane,,,,,,0,24,24,39,1,4,1,,,,,,,,,,,,,,,,,,,,,,,,,,,,,,,,,,,,,,,,,,,,,,,,,,,,,,,,,,,,,,,,,,,,,,,,,,,,,,,,,,,,,,,,,,,,,,,,,,,,,,,,,,,,,
,,,,,,,,,,stimuli/images/PICTURE_203.png,GODS,5eb175cb50f4320854a67dcf,10/03/1954,2020-09-10_14h40.16.899,proactive3.1,2020.1.2,Win32,60,5f599a131af4471f3d752b7b,5f5a2c4ed979940876c7660a,3,,,,,,cap,,,,,,0,25,25,30,1,4,1,,,,,,,,,,,,,,,,,,,,,,,,,,,,,,,,,,,,,,,,,,,,,,,,,,,,,,,,,,,,,,,,,,,,,,,,,,,,,,,,,,,,,,,,,,,,,,,,,,,,,,,,,,,,,
,,,,,,,,,,stimuli/images/PICTURE_654.png,MONTH,5eb175cb50f4320854a67dcf,10/03/1954,2020-09-10_14h40.16.899,proactive3.1,2020.1.2,Win32,60,5f599a131af4471f3d752b7b,5f5a2c4ed979940876c7660a,3,,,,,,pencil,,,,,,0,26,26,29,1,3,1,,,,,,,,,,,,,,,,,,,,,,,,,,,,,,,,,,,,,,,,,,,,,,,,,,,,,,,,,,,,,,,,,,,,,,,,,,,,,,,,,,,,,,,,,,,,,,,,,,,,,,,,,,,,,
,,,,,,,,,,stimuli/images/PICTURE_340.png,VALLEY,5eb175cb50f4320854a67dcf,10/03/1954,2020-09-10_14h40.16.899,proactive3.1,2020.1.2,Win32,60,5f599a131af4471f3d752b7b,5f5a2c4ed979940876c7660a,3,,,,,,mirror,,,,,,0,27,27,54,1,6,1,,,,,,,,,,,,,,,,,,,,,,,,,,,,,,,,,,,,,,,,,,,,,,,,,,,,,,,,,,,,,,,,,,,,,,,,,,,,,,,,,,,,,,,,,,,,,,,,,,,,,,,,,,,,,
,,,,,,,,,,stimuli/images/PICTURE_85.png,TOILET,5eb175cb50f4320854a67dcf,10/03/1954,2020-09-10_14h40.16.899,proactive3.1,2020.1.2,Win32,60,5f599a131af4471f3d752b7b,5f5a2c4ed979940876c7660a,3,,,,,,diamond,,,,,,0,28,28,48,1,5,1,,,,,,,,,,,,,,,,,,,,,,,,,,,,,,,,,,,,,,,,,,,,,,,,,,,,,,,,,,,,,,,,,,,,,,,,,,,,,,,,,,,,,,,,,,,,,,,,,,,,,,,,,,,,,
,,,,,,,,,,stimuli/images/PICTURE_285.png,LIFE,5eb175cb50f4320854a67dcf,10/03/1954,2020-09-10_14h40.16.899,proactive3.1,2020.1.2,Win32,60,5f599a131af4471f3d752b7b,5f5a2c4ed979940876c7660a,3,,,,,,carrot,,,,,,0,29,29,33,1,4,1,,,,,,,,,,,,,,,,,,,,,,,,,,,,,,,,,,,,,,,,,,,,,,,,,,,,,,,,,,,,,,,,,,,,,,,,,,,,,,,,,,,,,,,,,,,,,,,,,,,,,,,,,,,,,
,,,,,,,,,,stimuli/images/PICTURE_744.png,WEAPON,5eb175cb50f4320854a67dcf,10/03/1954,2020-09-10_14h40.16.899,proactive3.1,2020.1.2,Win32,60,5f599a131af4471f3d752b7b,5f5a2c4ed979940876c7660a,3,,,,,,ring,,,,,,0,30,30,50,1,6,1,,,,,,,,,,,,,,,,,,,,,,,,,,,,,,,,,,,,,,,,,,,,,,,,,,,,,,,,,,,,,,,,,,,,,,,,,,,,,,,,,,,,,,,,,,,,,,,,,,,,,,,,,,,,,
,,,,,,,,,,stimuli/images/PICTURE_685.png,PENNY,5eb175cb50f4320854a67dcf,10/03/1954,2020-09-10_14h40.16.899,proactive3.1,2020.1.2,Win32,60,5f599a131af4471f3d752b7b,5f5a2c4ed979940876c7660a,3,,,,,,goose,,,,,,0,31,31,4,1,1,1,,,,,,,,,,,,,,,,,,,,,,,,,,,,,,,,,,,,,,,,,,,,,,,,,,,,,,,,,,,,,,,,,,,,,,,,,,,,,,,,,,,,,,,,,,,,,,,,,,,,,,,,,,,,,
,,,,,,,,,,stimuli/images/PICTURE_296.png,LIFE,5eb175cb50f4320854a67dcf,10/03/1954,2020-09-10_14h40.16.899,proactive3.1,2020.1.2,Win32,60,5f599a131af4471f3d752b7b,5f5a2c4ed979940876c7660a,3,,,,,,bolt,,,,,,0,32,32,57,1,6,1,,,,,,,,,,,,,,,,,,,,,,,,,,,,,,,,,,,,,,,,,,,,,,,,,,,,,,,,,,,,,,,,,,,,,,,,,,,,,,,,,,,,,,,,,,,,,,,,,,,,,,,,,,,,,
,,,,,,,,,,stimuli/images/PICTURE_487.png,GIRL,5eb175cb50f4320854a67dcf,10/03/1954,2020-09-10_14h40.16.899,proactive3.1,2020.1.2,Win32,60,5f599a131af4471f3d752b7b,5f5a2c4ed979940876c7660a,3,,,,,,basket,,,,,,0,33,33,45,1,5,1,,,,,,,,,,,,,,,,,,,,,,,,,,,,,,,,,,,,,,,,,,,,,,,,,,,,,,,,,,,,,,,,,,,,,,,,,,,,,,,,,,,,,,,,,,,,,,,,,,,,,,,,,,,,,
,,,,,,,,,,stimuli/images/PICTURE_405.png,YEAR,5eb175cb50f4320854a67dcf,10/03/1954,2020-09-10_14h40.16.899,proactive3.1,2020.1.2,Win32,60,5f599a131af4471f3d752b7b,5f5a2c4ed979940876c7660a,3,,,,,,anchor,,,,,,0,34,34,34,1,4,1,,,,,,,,,,,,,,,,,,,,,,,,,,,,,,,,,,,,,,,,,,,,,,,,,,,,,,,,,,,,,,,,,,,,,,,,,,,,,,,,,,,,,,,,,,,,,,,,,,,,,,,,,,,,,
,,,,,,,,,,stimuli/images/PICTURE_708.png,RECORD,5eb175cb50f4320854a67dcf,10/03/1954,2020-09-10_14h40.16.899,proactive3.1,2020.1.2,Win32,60,5f599a131af4471f3d752b7b,5f5a2c4ed979940876c7660a,3,,,,,,monkey,,,,,,0,35,35,58,1,6,1,,,,,,,,,,,,,,,,,,,,,,,,,,,,,,,,,,,,,,,,,,,,,,,,,,,,,,,,,,,,,,,,,,,,,,,,,,,,,,,,,,,,,,,,,,,,,,,,,,,,,,,,,,,,,
,,,,,,,,,,stimuli/images/PICTURE_308.png,FAMILY,5eb175cb50f4320854a67dcf,10/03/1954,2020-09-10_14h40.16.899,proactive3.1,2020.1.2,Win32,60,5f599a131af4471f3d752b7b,5f5a2c4ed979940876c7660a,3,,,,,,dice,,,,,,0,36,36,36,1,4,1,,,,,,,,,,,,,,,,,,,,,,,,,,,,,,,,,,,,,,,,,,,,,,,,,,,,,,,,,,,,,,,,,,,,,,,,,,,,,,,,,,,,,,,,,,,,,,,,,,,,,,,,,,,,,
,,,,,,,,,,stimuli/images/PICTURE_677.png,APPLE,5eb175cb50f4320854a67dcf,10/03/1954,2020-09-10_14h40.16.899,proactive3.1,2020.1.2,Win32,60,5f599a131af4471f3d752b7b,5f5a2c4ed979940876c7660a,3,,,,,,map,,,,,,0,37,37,43,1,5,1,,,,,,,,,,,,,,,,,,,,,,,,,,,,,,,,,,,,,,,,,,,,,,,,,,,,,,,,,,,,,,,,,,,,,,,,,,,,,,,,,,,,,,,,,,,,,,,,,,,,,,,,,,,,,
,,,,,,,,,,stimuli/images/PICTURE_564.png,BATH,5eb175cb50f4320854a67dcf,10/03/1954,2020-09-10_14h40.16.899,proactive3.1,2020.1.2,Win32,60,5f599a131af4471f3d752b7b,5f5a2c4ed979940876c7660a,3,,,,,,spoon,,,,,,0,38,38,26,1,3,1,,,,,,,,,,,,,,,,,,,,,,,,,,,,,,,,,,,,,,,,,,,,,,,,,,,,,,,,,,,,,,,,,,,,,,,,,,,,,,,,,,,,,,,,,,,,,,,,,,,,,,,,,,,,,
,,,,,,,,,,stimuli/images/PICTURE_108.png,FLIGHT,5eb175cb50f4320854a67dcf,10/03/1954,2020-09-10_14h40.16.899,proactive3.1,2020.1.2,Win32,60,5f599a131af4471f3d752b7b,5f5a2c4ed979940876c7660a,3,,,,,,calendar,,,,,,0,39,39,59,1,6,1,,,,,,,,,,,,,,,,,,,,,,,,,,,,,,,,,,,,,,,,,,,,,,,,,,,,,,,,,,,,,,,,,,,,,,,,,,,,,,,,,,,,,,,,,,,,,,,,,,,,,,,,,,,,,
,,,,,,,,,,stimuli/images/PICTURE_469.png,AGENT,5eb175cb50f4320854a67dcf,10/03/1954,2020-09-10_14h40.16.899,proactive3.1,2020.1.2,Win32,60,5f599a131af4471f3d752b7b,5f5a2c4ed979940876c7660a,3,,,,,,stool,,,,,,0,40,40,16,1,2,1,,,,,,,,,,,,,,,,,,,,,,,,,,,,,,,,,,,,,,,,,,,,,,,,,,,,,,,,,,,,,,,,,,,,,,,,,,,,,,,,,,,,,,,,,,,,,,,,,,,,,,,,,,,,,
,,,,,,,,,,stimuli/images/PICTURE_403.png,RIVER,5eb175cb50f4320854a67dcf,10/03/1954,2020-09-10_14h40.16.899,proactive3.1,2020.1.2,Win32,60,5f599a131af4471f3d752b7b,5f5a2c4ed979940876c7660a,3,,,,,,cathedral,,,,,,0,41,41,40,1,5,1,,,,,,,,,,,,,,,,,,,,,,,,,,,,,,,,,,,,,,,,,,,,,,,,,,,,,,,,,,,,,,,,,,,,,,,,,,,,,,,,,,,,,,,,,,,,,,,,,,,,,,,,,,,,,
,,,,,,,,,,stimuli/images/PICTURE_85.png,NATION,5eb175cb50f4320854a67dcf,10/03/1954,2020-09-10_14h40.16.899,proactive3.1,2020.1.2,Win32,60,5f599a131af4471f3d752b7b,5f5a2c4ed979940876c7660a,3,,,,,,diamond,,,,,,0,42,42,5,1,1,1,,,,,,,,,,,,,,,,,,,,,,,,,,,,,,,,,,,,,,,,,,,,,,,,,,,,,,,,,,,,,,,,,,,,,,,,,,,,,,,,,,,,,,,,,,,,,,,,,,,,,,,,,,,,,
,,,,,,,,,,stimuli/images/PICTURE_208.png,SYSTEM,5eb175cb50f4320854a67dcf,10/03/1954,2020-09-10_14h40.16.899,proactive3.1,2020.1.2,Win32,60,5f599a131af4471f3d752b7b,5f5a2c4ed979940876c7660a,3,,,,,,microphone,,,,,,0,43,43,32,1,4,1,,,,,,,,,,,,,,,,,,,,,,,,,,,,,,,,,,,,,,,,,,,,,,,,,,,,,,,,,,,,,,,,,,,,,,,,,,,,,,,,,,,,,,,,,,,,,,,,,,,,,,,,,,,,,
,,,,,,,,,,stimuli/images/PICTURE_403.png,WRITER,5eb175cb50f4320854a67dcf,10/03/1954,2020-09-10_14h40.16.899,proactive3.1,2020.1.2,Win32,60,5f599a131af4471f3d752b7b,5f5a2c4ed979940876c7660a,3,,,,,,cathedral,,,,,,0,44,44,31,1,4,1,,,,,,,,,,,,,,,,,,,,,,,,,,,,,,,,,,,,,,,,,,,,,,,,,,,,,,,,,,,,,,,,,,,,,,,,,,,,,,,,,,,,,,,,,,,,,,,,,,,,,,,,,,,,,
,,,,,,,,,,stimuli/images/PICTURE_491.png,RIVER,5eb175cb50f4320854a67dcf,10/03/1954,2020-09-10_14h40.16.899,proactive3.1,2020.1.2,Win32,60,5f599a131af4471f3d752b7b,5f5a2c4ed979940876c7660a,3,,,,,,rug,,,,,,0,45,45,6,1,1,1,,,,,,,,,,,,,,,,,,,,,,,,,,,,,,,,,,,,,,,,,,,,,,,,,,,,,,,,,,,,,,,,,,,,,,,,,,,,,,,,,,,,,,,,,,,,,,,,,,,,,,,,,,,,,
,,,,,,,,,,stimuli/images/PICTURE_108.png,POLICY,5eb175cb50f4320854a67dcf,10/03/1954,2020-09-10_14h40.16.899,proactive3.1,2020.1.2,Win32,60,5f599a131af4471f3d752b7b,5f5a2c4ed979940876c7660a,3,,,,,,calendar,,,,,,0,46,46,22,1,3,1,,,,,,,,,,,,,,,,,,,,,,,,,,,,,,,,,,,,,,,,,,,,,,,,,,,,,,,,,,,,,,,,,,,,,,,,,,,,,,,,,,,,,,,,,,,,,,,,,,,,,,,,,,,,,
,,,,,,,,,,stimuli/images/PICTURE_403.png,TOILET,5eb175cb50f4320854a67dcf,10/03/1954,2020-09-10_14h40.16.899,proactive3.1,2020.1.2,Win32,60,5f599a131af4471f3d752b7b,5f5a2c4ed979940876c7660a,3,,,,,,cathedral,,,,,,0,47,47,25,1,3,1,,,,,,,,,,,,,,,,,,,,,,,,,,,,,,,,,,,,,,,,,,,,,,,,,,,,,,,,,,,,,,,,,,,,,,,,,,,,,,,,,,,,,,,,,,,,,,,,,,,,,,,,,,,,,
,,,,,,,,,,stimuli/images/PICTURE_655.png,TOILET,5eb175cb50f4320854a67dcf,10/03/1954,2020-09-10_14h40.16.899,proactive3.1,2020.1.2,Win32,60,5f599a131af4471f3d752b7b,5f5a2c4ed979940876c7660a,3,,,,,,megaphone,,,,,,0,48,48,12,1,2,1,,,,,,,,,,,,,,,,,,,,,,,,,,,,,,,,,,,,,,,,,,,,,,,,,,,,,,,,,,,,,,,,,,,,,,,,,,,,,,,,,,,,,,,,,,,,,,,,,,,,,,,,,,,,,
,,,,,,,,,,stimuli/images/PICTURE_33.png,FRIEND,5eb175cb50f4320854a67dcf,10/03/1954,2020-09-10_14h40.16.899,proactive3.1,2020.1.2,Win32,60,5f599a131af4471f3d752b7b,5f5a2c4ed979940876c7660a,3,,,,,,frame,,,,,,0,49,49,8,1,1,1,,,,,,,,,,,,,,,,,,,,,,,,,,,,,,,,,,,,,,,,,,,,,,,,,,,,,,,,,,,,,,,,,,,,,,,,,,,,,,,,,,,,,,,,,,,,,,,,,,,,,,,,,,,,,
,,,,,,,,,,stimuli/images/PICTURE_405.png,PLENTY,5eb175cb50f4320854a67dcf,10/03/1954,2020-09-10_14h40.16.899,proactive3.1,2020.1.2,Win32,60,5f599a131af4471f3d752b7b,5f5a2c4ed979940876c7660a,3,,,,,,anchor,,,,,,0,50,50,23,1,3,1,,,,,,,,,,,,,,,,,,,,,,,,,,,,,,,,,,,,,,,,,,,,,,,,,,,,,,,,,,,,,,,,,,,,,,,,,,,,,,,,,,,,,,,,,,,,,,,,,,,,,,,,,,,,,
,,,,,,,,,,stimuli/images/PICTURE_339.png,CLIENT,5eb175cb50f4320854a67dcf,10/03/1954,2020-09-10_14h40.16.899,proactive3.1,2020.1.2,Win32,60,5f599a131af4471f3d752b7b,5f5a2c4ed979940876c7660a,3,,,,,,backpack,,,,,,0,51,51,11,1,2,1,,,,,,,,,,,,,,,,,,,,,,,,,,,,,,,,,,,,,,,,,,,,,,,,,,,,,,,,,,,,,,,,,,,,,,,,,,,,,,,,,,,,,,,,,,,,,,,,,,,,,,,,,,,,,
,,,,,,,,,,stimuli/images/PICTURE_68.png,MILE,5eb175cb50f4320854a67dcf,10/03/1954,2020-09-10_14h40.16.899,proactive3.1,2020.1.2,Win32,60,5f599a131af4471f3d752b7b,5f5a2c4ed979940876c7660a,3,,,,,,candle,,,,,,0,52,52,51,1,6,1,,,,,,,,,,,,,,,,,,,,,,,,,,,,,,,,,,,,,,,,,,,,,,,,,,,,,,,,,,,,,,,,,,,,,,,,,,,,,,,,,,,,,,,,,,,,,,,,,,,,,,,,,,,,,
,,,,,,,,,,stimuli/images/PICTURE_233.png,LOTS,5eb175cb50f4320854a67dcf,10/03/1954,2020-09-10_14h40.16.899,proactive3.1,2020.1.2,Win32,60,5f599a131af4471f3d752b7b,5f5a2c4ed979940876c7660a,3,,,,,,salt,,,,,,0,53,53,42,1,5,1,,,,,,,,,,,,,,,,,,,,,,,,,,,,,,,,,,,,,,,,,,,,,,,,,,,,,,,,,,,,,,,,,,,,,,,,,,,,,,,,,,,,,,,,,,,,,,,,,,,,,,,,,,,,,
,,,,,,,,,,stimuli/images/PICTURE_42.png,BOYS,5eb175cb50f4320854a67dcf,10/03/1954,2020-09-10_14h40.16.899,proactive3.1,2020.1.2,Win32,60,5f599a131af4471f3d752b7b,5f5a2c4ed979940876c7660a,3,,,,,,pear,,,,,,0,54,54,55,1,6,1,,,,,,,,,,,,,,,,,,,,,,,,,,,,,,,,,,,,,,,,,,,,,,,,,,,,,,,,,,,,,,,,,,,,,,,,,,,,,,,,,,,,,,,,,,,,,,,,,,,,,,,,,,,,,
,,,,,,,,,,stimuli/images/PICTURE_750.png,HOTEL,5eb175cb50f4320854a67dcf,10/03/1954,2020-09-10_14h40.16.899,proactive3.1,2020.1.2,Win32,60,5f599a131af4471f3d752b7b,5f5a2c4ed979940876c7660a,3,,,,,,kettle,,,,,,0,55,55,27,1,3,1,,,,,,,,,,,,,,,,,,,,,,,,,,,,,,,,,,,,,,,,,,,,,,,,,,,,,,,,,,,,,,,,,,,,,,,,,,,,,,,,,,,,,,,,,,,,,,,,,,,,,,,,,,,,,
,,,,,,,,,,stimuli/images/PICTURE_504.png,ARTIST,5eb175cb50f4320854a67dcf,10/03/1954,2020-09-10_14h40.16.899,proactive3.1,2020.1.2,Win32,60,5f599a131af4471f3d752b7b,5f5a2c4ed979940876c7660a,3,,,,,,wheel,,,,,,0,56,56,49,1,5,1,,,,,,,,,,,,,,,,,,,,,,,,,,,,,,,,,,,,,,,,,,,,,,,,,,,,,,,,,,,,,,,,,,,,,,,,,,,,,,,,,,,,,,,,,,,,,,,,,,,,,,,,,,,,,
,,,,,,,,,,stimuli/images/PICTURE_147.png,WOMEN,5eb175cb50f4320854a67dcf,10/03/1954,2020-09-10_14h40.16.899,proactive3.1,2020.1.2,Win32,60,5f599a131af4471f3d752b7b,5f5a2c4ed979940876c7660a,3,,,,,,hanger,,,,,,0,57,57,7,1,1,1,,,,,,,,,,,,,,,,,,,,,,,,,,,,,,,,,,,,,,,,,,,,,,,,,,,,,,,,,,,,,,,,,,,,,,,,,,,,,,,,,,,,,,,,,,,,,,,,,,,,,,,,,,,,,
,,,,,,,,,,stimuli/images/PICTURE_383.png,WRITER,5eb175cb50f4320854a67dcf,10/03/1954,2020-09-10_14h40.16.899,proactive3.1,2020.1.2,Win32,60,5f599a131af4471f3d752b7b,5f5a2c4ed979940876c7660a,3,,,,,,coin,,,,,,0,58,58,28,1,3,1,,,,,,,,,,,,,,,,,,,,,,,,,,,,,,,,,,,,,,,,,,,,,,,,,,,,,,,,,,,,,,,,,,,,,,,,,,,,,,,,,,,,,,,,,,,,,,,,,,,,,,,,,,,,,
,,?,0.00204,0,,,,,,stimuli/images/PICTURE_296.png,LIFE,5eb175cb50f4320854a67dcf,10/03/1954,2020-09-10_14h40.16.899,proactive3.1,2020.1.2,Win32,60,5f599a131af4471f3d752b7b,5f5a2c4ed979940876c7660a,3,,,,,,bolt,,,,,,,,,,,6,1,0,0,0,57,1,,,,,,,,,,,,,,,,,,,,,,,,,,,,,,,,,,,,,,,,,,,,,,,,,,,,,,,,,,,,,,,,,,,,,,,,,,,,,,,,,,,,,,,,,,,,,,,,,,,,,,,,
,,?,0.001525,0,,,,,,stimuli/images/PICTURE_147.png,WOMEN,5eb175cb50f4320854a67dcf,10/03/1954,2020-09-10_14h40.16.899,proactive3.1,2020.1.2,Win32,60,5f599a131af4471f3d752b7b,5f5a2c4ed979940876c7660a,3,,,,,,hanger,,,,,,,,,,,1,1,0,1,1,7,1,,,,,,,,,,,,,,,,,,,,,,,,,,,,,,,,,,,,,,,,,,,,,,,,,,,,,,,,,,,,,,,,,,,,,,,,,,,,,,,,,,,,,,,,,,,,,,,,,,,,,,,,
,,?,0.001725,0,,,,,,stimuli/images/PICTURE_95.png,MILLER,5eb175cb50f4320854a67dcf,10/03/1954,2020-09-10_14h40.16.899,proactive3.1,2020.1.2,Win32,60,5f599a131af4471f3d752b7b,5f5a2c4ed979940876c7660a,3,,,,,,suitcase,,,,,,,,,,,6,1,0,2,2,56,1,,,,,,,,,,,,,,,,,,,,,,,,,,,,,,,,,,,,,,,,,,,,,,,,,,,,,,,,,,,,,,,,,,,,,,,,,,,,,,,,,,,,,,,,,,,,,,,,,,,,,,,,
,,?,0.005585,0,,,,,,stimuli/images/PICTURE_177.png,WRITER,5eb175cb50f4320854a67dcf,10/03/1954,2020-09-10_14h40.16.899,proactive3.1,2020.1.2,Win32,60,5f599a131af4471f3d752b7b,5f5a2c4ed979940876c7660a,3,,,,,,mushroom,,,,,,,,,,,5,1,0,3,3,41,1,,,,,,,,,,,,,,,,,,,,,,,,,,,,,,,,,,,,,,,,,,,,,,,,,,,,,,,,,,,,,,,,,,,,,,,,,,,,,,,,,,,,,,,,,,,,,,,,,,,,,,,,
,,WRITER,3.728885,1,,,,,,stimuli/images/PICTURE_383.png,WRITER,5eb175cb50f4320854a67dcf,10/03/1954,2020-09-10_14h40.16.899,proactive3.1,2020.1.2,Win32,60,5f599a131af4471f3d752b7b,5f5a2c4ed979940876c7660a,3,,,,,,coin,,,,,,,,,,,3,1,0,4,4,28,1,,,,,,,,,,,,,,,,,,,,,,,,,,,,,,,,,,,,,,,,,,,,,,,,,,,,,,,,,,,,,,,,,,,,,,,,,,,,,,,,,,,,,,,,,,,,,,,,,,,,,,,,
,,?,0.004165,0,,,,,,stimuli/images/PICTURE_203.png,GODS,5eb175cb50f4320854a67dcf,10/03/1954,2020-09-10_14h40.16.899,proactive3.1,2020.1.2,Win32,60,5f599a131af4471f3d752b7b,5f5a2c4ed979940876c7660a,3,,,,,,cap,,,,,,,,,,,4,1,0,5,5,30,1,,,,,,,,,,,,,,,,,,,,,,,,,,,,,,,,,,,,,,,,,,,,,,,,,,,,,,,,,,,,,,,,,,,,,,,,,,,,,,,,,,,,,,,,,,,,,,,,,,,,,,,,
,,?,0.000995,0,,,,,,stimuli/images/PICTURE_33.png,FRIEND,5eb175cb50f4320854a67dcf,10/03/1954,2020-09-10_14h40.16.899,proactive3.1,2020.1.2,Win32,60,5f599a131af4471f3d752b7b,5f5a2c4ed979940876c7660a,3,,,,,,frame,,,,,,,,,,,1,1,0,6,6,8,1,,,,,,,,,,,,,,,,,,,,,,,,,,,,,,,,,,,,,,,,,,,,,,,,,,,,,,,,,,,,,,,,,,,,,,,,,,,,,,,,,,,,,,,,,,,,,,,,,,,,,,,,
,,?,0.001165,0,,,,,,stimuli/images/PICTURE_296.png,LOTS,5eb175cb50f4320854a67dcf,10/03/1954,2020-09-10_14h40.16.899,proactive3.1,2020.1.2,Win32,60,5f599a131af4471f3d752b7b,5f5a2c4ed979940876c7660a,3,,,,,,bolt,,,,,,,,,,,1,1,0,7,7,9,1,,,,,,,,,,,,,,,,,,,,,,,,,,,,,,,,,,,,,,,,,,,,,,,,,,,,,,,,,,,,,,,,,,,,,,,,,,,,,,,,,,,,,,,,,,,,,,,,,,,,,,,,
,,?,0.00114,0,,,,,,stimuli/images/PICTURE_340.png,VALLEY,5eb175cb50f4320854a67dcf,10/03/1954,2020-09-10_14h40.16.899,proactive3.1,2020.1.2,Win32,60,5f599a131af4471f3d752b7b,5f5a2c4ed979940876c7660a,3,,,,,,mirror,,,,,,,,,,,6,1,0,8,8,54,1,,,,,,,,,,,,,,,,,,,,,,,,,,,,,,,,,,,,,,,,,,,,,,,,,,,,,,,,,,,,,,,,,,,,,,,,,,,,,,,,,,,,,,,,,,,,,,,,,,,,,,,,
,,?,0.001435,0,,,,,,stimuli/images/PICTURE_405.png,YEAR,5eb175cb50f4320854a67dcf,10/03/1954,2020-09-10_14h40.16.899,proactive3.1,2020.1.2,Win32,60,5f599a131af4471f3d752b7b,5f5a2c4ed979940876c7660a,3,,,,,,anchor,,,,,,,,,,,4,1,0,9,9,34,1,,,,,,,,,,,,,,,,,,,,,,,,,,,,,,,,,,,,,,,,,,,,,,,,,,,,,,,,,,,,,,,,,,,,,,,,,,,,,,,,,,,,,,,,,,,,,,,,,,,,,,,,
,,?,0.000935,0,,,,,,stimuli/images/PICTURE_467.png,POLICY,5eb175cb50f4320854a67dcf,10/03/1954,2020-09-10_14h40.16.899,proactive3.1,2020.1.2,Win32,60,5f599a131af4471f3d752b7b,5f5a2c4ed979940876c7660a,3,,,,,,peg,,,,,,,,,,,6,1,0,10,10,53,1,,,,,,,,,,,,,,,,,,,,,,,,,,,,,,,,,,,,,,,,,,,,,,,,,,,,,,,,,,,,,,,,,,,,,,,,,,,,,,,,,,,,,,,,,,,,,,,,,,,,,,,,
,,?,0.000915,0,,,,,,stimuli/images/PICTURE_667.png,RIVER,5eb175cb50f4320854a67dcf,10/03/1954,2020-09-10_14h40.16.899,proactive3.1,2020.1.2,Win32,60,5f599a131af4471f3d752b7b,5f5a2c4ed979940876c7660a,3,,,,,,daisy,,,,,,,,,,,2,1,0,11,11,10,1,,,,,,,,,,,,,,,,,,,,,,,,,,,,,,,,,,,,,,,,,,,,,,,,,,,,,,,,,,,,,,,,,,,,,,,,,,,,,,,,,,,,,,,,,,,,,,,,,,,,,,,,
,,?,0.000945,0,,,,,,stimuli/images/PICTURE_491.png,RIVER,5eb175cb50f4320854a67dcf,10/03/1954,2020-09-10_14h40.16.899,proactive3.1,2020.1.2,Win32,60,5f599a131af4471f3d752b7b,5f5a2c4ed979940876c7660a,3,,,,,,rug,,,,,,,,,,,1,1,0,12,12,6,1,,,,,,,,,,,,,,,,,,,,,,,,,,,,,,,,,,,,,,,,,,,,,,,,,,,,,,,,,,,,,,,,,,,,,,,,,,,,,,,,,,,,,,,,,,,,,,,,,,,,,,,,
,,?,0.00121,0,,,,,,stimuli/images/PICTURE_57.png,MOMENT,5eb175cb50f4320854a67dcf,10/03/1954,2020-09-10_14h40.16.899,proactive3.1,2020.1.2,Win32,60,5f599a131af4471f3d752b7b,5f5a2c4ed979940876c7660a,3,,,,,,stamp,,,,,,,,,,,4,1,0,13,13,37,1,,,,,,,,,,,,,,,,,,,,,,,,,,,,,,,,,,,,,,,,,,,,,,,,,,,,,,,,,,,,,,,,,,,,,,,,,,,,,,,,,,,,,,,,,,,,,,,,,,,,,,,,
,,?,0.00114,0,,,,,,stimuli/images/PICTURE_285.png,LIFE,5eb175cb50f4320854a67dcf,10/03/1954,2020-09-10_14h40.16.899,proactive3.1,2020.1.2,Win32,60,5f599a131af4471f3d752b7b,5f5a2c4ed979940876c7660a,3,,,,,,carrot,,,,,,,,,,,4,1,0,14,14,33,1,,,,,,,,,,,,,,,,,,,,,,,,,,,,,,,,,,,,,,,,,,,,,,,,,,,,,,,,,,,,,,,,,,,,,,,,,,,,,,,,,,,,,,,,,,,,,,,,,,,,,,,,
,,?,0.000885,0,,,,,,stimuli/images/PICTURE_85.png,TOILET,5eb175cb50f4320854a67dcf,10/03/1954,2020-09-10_14h40.16.899,proactive3.1,2020.1.2,Win32,60,5f599a131af4471f3d752b7b,5f5a2c4ed979940876c7660a,3,,,,,,diamond,,,,,,,,,,,5,1,0,15,15,48,1,,,,,,,,,,,,,,,,,,,,,,,,,,,,,,,,,,,,,,,,,,,,,,,,,,,,,,,,,,,,,,,,,,,,,,,,,,,,,,,,,,,,,,,,,,,,,,,,,,,,,,,,
,,?,0.00181,0,,,,,,stimuli/images/PICTURE_68.png,MILE,5eb175cb50f4320854a67dcf,10/03/1954,2020-09-10_14h40.16.899,proactive3.1,2020.1.2,Win32,60,5f599a131af4471f3d752b7b,5f5a2c4ed979940876c7660a,3,,,,,,candle,,,,,,,,,,,6,1,0,16,16,51,1,,,,,,,,,,,,,,,,,,,,,,,,,,,,,,,,,,,,,,,,,,,,,,,,,,,,,,,,,,,,,,,,,,,,,,,,,,,,,,,,,,,,,,,,,,,,,,,,,,,,,,,,
,,?,0.002185,0,,,,,,stimuli/images/PICTURE_380.png,HONEY,5eb175cb50f4320854a67dcf,10/03/1954,2020-09-10_14h40.16.899,proactive3.1,2020.1.2,Win32,60,5f599a131af4471f3d752b7b,5f5a2c4ed979940876c7660a,3,,,,,,gorilla,,,,,,,,,,,2,1,0,17,17,19,1,,,,,,,,,,,,,,,,,,,,,,,,,,,,,,,,,,,,,,,,,,,,,,,,,,,,,,,,,,,,,,,,,,,,,,,,,,,,,,,,,,,,,,,,,,,,,,,,,,,,,,,,
,,BATH,6.97718,0,,,,,,stimuli/images/PICTURE_340.png,LETTER,5eb175cb50f4320854a67dcf,10/03/1954,2020-09-10_14h40.16.899,proactive3.1,2020.1.2,Win32,60,5f599a131af4471f3d752b7b,5f5a2c4ed979940876c7660a,3,,,,,,mirror,,,,,,,,,,,3,1,0,18,18,24,1,,,,,,,,,,,,,,,,,,,,,,,,,,,,,,,,,,,,,,,,,,,,,,,,,,,,,,,,,,,,,,,,,,,,,,,,,,,,,,,,,,,,,,,,,,,,,,,,,,,,,,,,
,,?,0.00182,0,,,,,,stimuli/images/PICTURE_308.png,FAMILY,5eb175cb50f4320854a67dcf,10/03/1954,2020-09-10_14h40.16.899,proactive3.1,2020.1.2,Win32,60,5f599a131af4471f3d752b7b,5f5a2c4ed979940876c7660a,3,,,,,,dice,,,,,,,,,,,4,1,0,19,19,36,1,,,,,,,,,,,,,,,,,,,,,,,,,,,,,,,,,,,,,,,,,,,,,,,,,,,,,,,,,,,,,,,,,,,,,,,,,,,,,,,,,,,,,,,,,,,,,,,,,,,,,,,,
,,?,0.001805,0,,,,,,stimuli/images/PICTURE_504.png,COPS,5eb175cb50f4320854a67dcf,10/03/1954,2020-09-10_14h40.16.899,proactive3.1,2020.1.2,Win32,60,5f599a131af4471f3d752b7b,5f5a2c4ed979940876c7660a,3,,,,,,wheel,,,,,,,,,,,6,1,0,20,20,52,1,,,,,,,,,,,,,,,,,,,,,,,,,,,,,,,,,,,,,,,,,,,,,,,,,,,,,,,,,,,,,,,,,,,,,,,,,,,,,,,,,,,,,,,,,,,,,,,,,,,,,,,,
,,COIN,12.20637,0,,,,,,stimuli/images/PICTURE_654.png,MONTH,5eb175cb50f4320854a67dcf,10/03/1954,2020-09-10_14h40.16.899,proactive3.1,2020.1.2,Win32,60,5f599a131af4471f3d752b7b,5f5a2c4ed979940876c7660a,3,,,,,,pencil,,,,,,,,,,,3,1,0,21,21,29,1,,,,,,,,,,,,,,,,,,,,,,,,,,,,,,,,,,,,,,,,,,,,,,,,,,,,,,,,,,,,,,,,,,,,,,,,,,,,,,,,,,,,,,,,,,,,,,,,,,,,,,,,
,,TOILET,4.215595,1,,,,,,stimuli/images/PICTURE_403.png,TOILET,5eb175cb50f4320854a67dcf,10/03/1954,2020-09-10_14h40.16.899,proactive3.1,2020.1.2,Win32,60,5f599a131af4471f3d752b7b,5f5a2c4ed979940876c7660a,3,,,,,,cathedral,,,,,,,,,,,3,1,0,22,22,25,1,,,,,,,,,,,,,,,,,,,,,,,,,,,,,,,,,,,,,,,,,,,,,,,,,,,,,,,,,,,,,,,,,,,,,,,,,,,,,,,,,,,,,,,,,,,,,,,,,,,,,,,,
,,?,0.001715,0,,,,,,stimuli/images/PICTURE_677.png,APPLE,5eb175cb50f4320854a67dcf,10/03/1954,2020-09-10_14h40.16.899,proactive3.1,2020.1.2,Win32,60,5f599a131af4471f3d752b7b,5f5a2c4ed979940876c7660a,3,,,,,,map,,,,,,,,,,,5,1,0,23,23,43,1,,,,,,,,,,,,,,,,,,,,,,,,,,,,,,,,,,,,,,,,,,,,,,,,,,,,,,,,,,,,,,,,,,,,,,,,,,,,,,,,,,,,,,,,,,,,,,,,,,,,,,,,
,,?,0.001175,0,,,,,,stimuli/images/PICTURE_383.png,SERIES,5eb175cb50f4320854a67dcf,10/03/1954,2020-09-10_14h40.16.899,proactive3.1,2020.1.2,Win32,60,5f599a131af4471f3d752b7b,5f5a2c4ed979940876c7660a,3,,,,,,coin,,,,,,,,,,,5,1,0,24,24,46,1,,,,,,,,,,,,,,,,,,,,,,,,,,,,,,,,,,,,,,,,,,,,,,,,,,,,,,,,,,,,,,,,,,,,,,,,,,,,,,,,,,,,,,,,,,,,,,,,,,,,,,,,
,,?,0.00118,0,,,,,,stimuli/images/PICTURE_491.png,GLASS,5eb175cb50f4320854a67dcf,10/03/1954,2020-09-10_14h40.16.899,proactive3.1,2020.1.2,Win32,60,5f599a131af4471f3d752b7b,5f5a2c4ed979940876c7660a,3,,,,,,rug,,,,,,,,,,,2,1,0,25,25,14,1,,,,,,,,,,,,,,,,,,,,,,,,,,,,,,,,,,,,,,,,,,,,,,,,,,,,,,,,,,,,,,,,,,,,,,,,,,,,,,,,,,,,,,,,,,,,,,,,,,,,,,,,
,,WRITER,5.95575,0,,,,,,stimuli/images/PICTURE_108.png,POLICY,5eb175cb50f4320854a67dcf,10/03/1954,2020-09-10_14h40.16.899,proactive3.1,2020.1.2,Win32,60,5f599a131af4471f3d752b7b,5f5a2c4ed979940876c7660a,3,,,,,,calendar,,,,,,,,,,,3,1,0,26,26,22,1,,,,,,,,,,,,,,,,,,,,,,,,,,,,,,,,,,,,,,,,,,,,,,,,,,,,,,,,,,,,,,,,,,,,,,,,,,,,,,,,,,,,,,,,,,,,,,,,,,,,,,,,
,,?,0.0027,0,,,,,,stimuli/images/PICTURE_95.png,BOYS,5eb175cb50f4320854a67dcf,10/03/1954,2020-09-10_14h40.16.899,proactive3.1,2020.1.2,Win32,60,5f599a131af4471f3d752b7b,5f5a2c4ed979940876c7660a,3,,,,,,suitcase,,,,,,,,,,,1,1,0,27,27,1,1,,,,,,,,,,,,,,,,,,,,,,,,,,,,,,,,,,,,,,,,,,,,,,,,,,,,,,,,,,,,,,,,,,,,,,,,,,,,,,,,,,,,,,,,,,,,,,,,,,,,,,,,
,,?,0.00056,0,,,,,,stimuli/images/PICTURE_469.png,AGENT,5eb175cb50f4320854a67dcf,10/03/1954,2020-09-10_14h40.16.899,proactive3.1,2020.1.2,Win32,60,5f599a131af4471f3d752b7b,5f5a2c4ed979940876c7660a,3,,,,,,stool,,,,,,,,,,,2,1,0,28,28,16,1,,,,,,,,,,,,,,,,,,,,,,,,,,,,,,,,,,,,,,,,,,,,,,,,,,,,,,,,,,,,,,,,,,,,,,,,,,,,,,,,,,,,,,,,,,,,,,,,,,,,,,,,
,,?,0.000595,0,,,,,,stimuli/images/PICTURE_403.png,RIVER,5eb175cb50f4320854a67dcf,10/03/1954,2020-09-10_14h40.16.899,proactive3.1,2020.1.2,Win32,60,5f599a131af4471f3d752b7b,5f5a2c4ed979940876c7660a,3,,,,,,cathedral,,,,,,,,,,,5,1,0,29,29,40,1,,,,,,,,,,,,,,,,,,,,,,,,,,,,,,,,,,,,,,,,,,,,,,,,,,,,,,,,,,,,,,,,,,,,,,,,,,,,,,,,,,,,,,,,,,,,,,,,,,,,,,,,
,,WRITER,5.70954,0,,,,,,stimuli/images/PICTURE_405.png,PLENTY,5eb175cb50f4320854a67dcf,10/03/1954,2020-09-10_14h40.16.899,proactive3.1,2020.1.2,Win32,60,5f599a131af4471f3d752b7b,5f5a2c4ed979940876c7660a,3,,,,,,anchor,,,,,,,,,,,3,1,0,30,30,23,1,,,,,,,,,,,,,,,,,,,,,,,,,,,,,,,,,,,,,,,,,,,,,,,,,,,,,,,,,,,,,,,,,,,,,,,,,,,,,,,,,,,,,,,,,,,,,,,,,,,,,,,,
,,?,0.00093,0,,,,,,stimuli/images/PICTURE_68.png,ROOF,5eb175cb50f4320854a67dcf,10/03/1954,2020-09-10_14h40.16.899,proactive3.1,2020.1.2,Win32,60,5f599a131af4471f3d752b7b,5f5a2c4ed979940876c7660a,3,,,,,,candle,,,,,,,,,,,4,1,0,31,31,38,1,,,,,,,,,,,,,,,,,,,,,,,,,,,,,,,,,,,,,,,,,,,,,,,,,,,,,,,,,,,,,,,,,,,,,,,,,,,,,,,,,,,,,,,,,,,,,,,,,,,,,,,,
,,?,0.00069,0,,,,,,stimuli/images/PICTURE_85.png,NATION,5eb175cb50f4320854a67dcf,10/03/1954,2020-09-10_14h40.16.899,proactive3.1,2020.1.2,Win32,60,5f599a131af4471f3d752b7b,5f5a2c4ed979940876c7660a,3,,,,,,diamond,,,,,,,,,,,1,1,0,32,32,5,1,,,,,,,,,,,,,,,,,,,,,,,,,,,,,,,,,,,,,,,,,,,,,,,,,,,,,,,,,,,,,,,,,,,,,,,,,,,,,,,,,,,,,,,,,,,,,,,,,,,,,,,,
,,?,0.000635,0,,,,,,stimuli/images/PICTURE_108.png,FLIGHT,5eb175cb50f4320854a67dcf,10/03/1954,2020-09-10_14h40.16.899,proactive3.1,2020.1.2,Win32,60,5f599a131af4471f3d752b7b,5f5a2c4ed979940876c7660a,3,,,,,,calendar,,,,,,,,,,,6,1,0,33,33,59,1,,,,,,,,,,,,,,,,,,,,,,,,,,,,,,,,,,,,,,,,,,,,,,,,,,,,,,,,,,,,,,,,,,,,,,,,,,,,,,,,,,,,,,,,,,,,,,,,,,,,,,,,
,,?,0.000695,0,,,,,,stimuli/images/PICTURE_487.png,GIRL,5eb175cb50f4320854a67dcf,10/03/1954,2020-09-10_14h40.16.899,proactive3.1,2020.1.2,Win32,60,5f599a131af4471f3d752b7b,5f5a2c4ed979940876c7660a,3,,,,,,basket,,,,,,,,,,,5,1,0,34,34,45,1,,,,,,,,,,,,,,,,,,,,,,,,,,,,,,,,,,,,,,,,,,,,,,,,,,,,,,,,,,,,,,,,,,,,,,,,,,,,,,,,,,,,,,,,,,,,,,,,,,,,,,,,
,,?,0.000695,0,,,,,,stimuli/images/PICTURE_655.png,TOILET,5eb175cb50f4320854a67dcf,10/03/1954,2020-09-10_14h40.16.899,proactive3.1,2020.1.2,Win32,60,5f599a131af4471f3d752b7b,5f5a2c4ed979940876c7660a,3,,,,,,megaphone,,,,,,,,,,,2,1,0,35,35,12,1,,,,,,,,,,,,,,,,,,,,,,,,,,,,,,,,,,,,,,,,,,,,,,,,,,,,,,,,,,,,,,,,,,,,,,,,,,,,,,,,,,,,,,,,,,,,,,,,,,,,,,,,
,,?,0.00066,0,,,,,,stimuli/images/PICTURE_339.png,CLIENT,5eb175cb50f4320854a67dcf,10/03/1954,2020-09-10_14h40.16.899,proactive3.1,2020.1.2,Win32,60,5f599a131af4471f3d752b7b,5f5a2c4ed979940876c7660a,3,,,,,,backpack,,,,,,,,,,,2,1,0,36,36,11,1,,,,,,,,,,,,,,,,,,,,,,,,,,,,,,,,,,,,,,,,,,,,,,,,,,,,,,,,,,,,,,,,,,,,,,,,,,,,,,,,,,,,,,,,,,,,,,,,,,,,,,,,
,,?,0.000675,0,,,,,,stimuli/images/PICTURE_42.png,BOYS,5eb175cb50f4320854a67dcf,10/03/1954,2020-09-10_14h40.16.899,proactive3.1,2020.1.2,Win32,60,5f599a131af4471f3d752b7b,5f5a2c4ed979940876c7660a,3,,,,,,pear,,,,,,,,,,,6,1,0,37,37,55,1,,,,,,,,,,,,,,,,,,,,,,,,,,,,,,,,,,,,,,,,,,,,,,,,,,,,,,,,,,,,,,,,,,,,,,,,,,,,,,,,,,,,,,,,,,,,,,,,,,,,,,,,
,,?,0.000715,0,,,,,,stimuli/images/PICTURE_32.png,PILLS,5eb175cb50f4320854a67dcf,10/03/1954,2020-09-10_14h40.16.899,proactive3.1,2020.1.2,Win32,60,5f599a131af4471f3d752b7b,5f5a2c4ed979940876c7660a,3,,,,,,crown,,,,,,,,,,,2,1,0,38,38,18,1,,,,,,,,,,,,,,,,,,,,,,,,,,,,,,,,,,,,,,,,,,,,,,,,,,,,,,,,,,,,,,,,,,,,,,,,,,,,,,,,,,,,,,,,,,,,,,,,,,,,,,,,
,,?,0.00077,0,,,,,,stimuli/images/PICTURE_504.png,YEAR,5eb175cb50f4320854a67dcf,10/03/1954,2020-09-10_14h40.16.899,proactive3.1,2020.1.2,Win32,60,5f599a131af4471f3d752b7b,5f5a2c4ed979940876c7660a,3,,,,,,wheel,,,,,,,,,,,2,1,0,39,39,13,1,,,,,,,,,,,,,,,,,,,,,,,,,,,,,,,,,,,,,,,,,,,,,,,,,,,,,,,,,,,,,,,,,,,,,,,,,,,,,,,,,,,,,,,,,,,,,,,,,,,,,,,,
,,HOOK,9.964785,0,,,,,,stimuli/images/PICTURE_147.png,YEAR,5eb175cb50f4320854a67dcf,10/03/1954,2020-09-10_14h40.16.899,proactive3.1,2020.1.2,Win32,60,5f599a131af4471f3d752b7b,5f5a2c4ed979940876c7660a,3,,,,,,hanger,,,,,,,,,,,3,1,0,40,40,21,1,,,,,,,,,,,,,,,,,,,,,,,,,,,,,,,,,,,,,,,,,,,,,,,,,,,,,,,,,,,,,,,,,,,,,,,,,,,,,,,,,,,,,,,,,,,,,,,,,,,,,,,,
,,?,0.001435,0,,,,,,stimuli/images/PICTURE_2.png,FLIGHT,5eb175cb50f4320854a67dcf,10/03/1954,2020-09-10_14h40.16.899,proactive3.1,2020.1.2,Win32,60,5f599a131af4471f3d752b7b,5f5a2c4ed979940876c7660a,3,,,,,,tyre,,,,,,,,,,,2,1,0,41,41,15,1,,,,,,,,,,,,,,,,,,,,,,,,,,,,,,,,,,,,,,,,,,,,,,,,,,,,,,,,,,,,,,,,,,,,,,,,,,,,,,,,,,,,,,,,,,,,,,,,,,,,,,,,
,,?,0.00129,0,,,,,,stimuli/images/PICTURE_744.png,WEAPON,5eb175cb50f4320854a67dcf,10/03/1954,2020-09-10_14h40.16.899,proactive3.1,2020.1.2,Win32,60,5f599a131af4471f3d752b7b,5f5a2c4ed979940876c7660a,3,,,,,,ring,,,,,,,,,,,6,1,0,42,42,50,1,,,,,,,,,,,,,,,,,,,,,,,,,,,,,,,,,,,,,,,,,,,,,,,,,,,,,,,,,,,,,,,,,,,,,,,,,,,,,,,,,,,,,,,,,,,,,,,,,,,,,,,,
,,?,0.001255,0,,,,,,stimuli/images/PICTURE_675.png,SALE,5eb175cb50f4320854a67dcf,10/03/1954,2020-09-10_14h40.16.899,proactive3.1,2020.1.2,Win32,60,5f599a131af4471f3d752b7b,5f5a2c4ed979940876c7660a,3,,,,,,windmill,,,,,,,,,,,5,1,0,43,43,47,1,,,,,,,,,,,,,,,,,,,,,,,,,,,,,,,,,,,,,,,,,,,,,,,,,,,,,,,,,,,,,,,,,,,,,,,,,,,,,,,,,,,,,,,,,,,,,,,,,,,,,,,,
,,?,0.0027,0,,,,,,stimuli/images/PICTURE_95.png,HONEY,5eb175cb50f4320854a67dcf,10/03/1954,2020-09-10_14h40.16.899,proactive3.1,2020.1.2,Win32,60,5f599a131af4471f3d752b7b,5f5a2c4ed979940876c7660a,3,,,,,,suitcase,,,,,,,,,,,5,1,0,44,44,44,1,,,,,,,,,,,,,,,,,,,,,,,,,,,,,,,,,,,,,,,,,,,,,,,,,,,,,,,,,,,,,,,,,,,,,,,,,,,,,,,,,,,,,,,,,,,,,,,,,,,,,,,,
,,?,0.000905,0,,,,,,stimuli/images/PICTURE_233.png,LOTS,5eb175cb50f4320854a67dcf,10/03/1954,2020-09-10_14h40.16.899,proactive3.1,2020.1.2,Win32,60,5f599a131af4471f3d752b7b,5f5a2c4ed979940876c7660a,3,,,,,,salt,,,,,,,,,,,5,1,0,45,45,42,1,,,,,,,,,,,,,,,,,,,,,,,,,,,,,,,,,,,,,,,,,,,,,,,,,,,,,,,,,,,,,,,,,,,,,,,,,,,,,,,,,,,,,,,,,,,,,,,,,,,,,,,,
,,?,0.000845,0,,,,,,stimuli/images/PICTURE_208.png,SYSTEM,5eb175cb50f4320854a67dcf,10/03/1954,2020-09-10_14h40.16.899,proactive3.1,2020.1.2,Win32,60,5f599a131af4471f3d752b7b,5f5a2c4ed979940876c7660a,3,,,,,,microphone,,,,,,,,,,,4,1,0,46,46,32,1,,,,,,,,,,,,,,,,,,,,,,,,,,,,,,,,,,,,,,,,,,,,,,,,,,,,,,,,,,,,,,,,,,,,,,,,,,,,,,,,,,,,,,,,,,,,,,,,,,,,,,,,
,,?,0.000825,0,,,,,,stimuli/images/PICTURE_297.png,RIVER,5eb175cb50f4320854a67dcf,10/03/1954,2020-09-10_14h40.16.899,proactive3.1,2020.1.2,Win32,60,5f599a131af4471f3d752b7b,5f5a2c4ed979940876c7660a,3,,,,,,aeroplane,,,,,,,,,,,4,1,0,47,47,39,1,,,,,,,,,,,,,,,,,,,,,,,,,,,,,,,,,,,,,,,,,,,,,,,,,,,,,,,,,,,,,,,,,,,,,,,,,,,,,,,,,,,,,,,,,,,,,,,,,,,,,,,,
,,?,0.00088,0,,,,,,stimuli/images/PICTURE_449.png,DUDE,5eb175cb50f4320854a67dcf,10/03/1954,2020-09-10_14h40.16.899,proactive3.1,2020.1.2,Win32,60,5f599a131af4471f3d752b7b,5f5a2c4ed979940876c7660a,3,,,,,,bench,,,,,,,,,,,2,1,0,48,48,17,1,,,,,,,,,,,,,,,,,,,,,,,,,,,,,,,,,,,,,,,,,,,,,,,,,,,,,,,,,,,,,,,,,,,,,,,,,,,,,,,,,,,,,,,,,,,,,,,,,,,,,,,,
,,?,0.00092,0,,,,,,stimuli/images/PICTURE_203.png,NIGHT,5eb175cb50f4320854a67dcf,10/03/1954,2020-09-10_14h40.16.899,proactive3.1,2020.1.2,Win32,60,5f599a131af4471f3d752b7b,5f5a2c4ed979940876c7660a,3,,,,,,cap,,,,,,,,,,,1,1,0,49,49,2,1,,,,,,,,,,,,,,,,,,,,,,,,,,,,,,,,,,,,,,,,,,,,,,,,,,,,,,,,,,,,,,,,,,,,,,,,,,,,,,,,,,,,,,,,,,,,,,,,,,,,,,,,
,,?,0.0009,0,,,,,,stimuli/images/PICTURE_685.png,PENNY,5eb175cb50f4320854a67dcf,10/03/1954,2020-09-10_14h40.16.899,proactive3.1,2020.1.2,Win32,60,5f599a131af4471f3d752b7b,5f5a2c4ed979940876c7660a,3,,,,,,goose,,,,,,,,,,,1,1,0,50,50,4,1,,,,,,,,,,,,,,,,,,,,,,,,,,,,,,,,,,,,,,,,,,,,,,,,,,,,,,,,,,,,,,,,,,,,,,,,,,,,,,,,,,,,,,,,,,,,,,,,,,,,,,,,
,,?,0.0011,0,,,,,,stimuli/images/PICTURE_708.png,RECORD,5eb175cb50f4320854a67dcf,10/03/1954,2020-09-10_14h40.16.899,proactive3.1,2020.1.2,Win32,60,5f599a131af4471f3d752b7b,5f5a2c4ed979940876c7660a,3,,,,,,monkey,,,,,,,,,,,6,1,0,51,51,58,1,,,,,,,,,,,,,,,,,,,,,,,,,,,,,,,,,,,,,,,,,,,,,,,,,,,,,,,,,,,,,,,,,,,,,,,,,,,,,,,,,,,,,,,,,,,,,,,,,,,,,,,,
,,?,0.00105,0,,,,,,stimuli/images/PICTURE_504.png,ARTIST,5eb175cb50f4320854a67dcf,10/03/1954,2020-09-10_14h40.16.899,proactive3.1,2020.1.2,Win32,60,5f599a131af4471f3d752b7b,5f5a2c4ed979940876c7660a,3,,,,,,wheel,,,,,,,,,,,5,1,0,52,52,49,1,,,,,,,,,,,,,,,,,,,,,,,,,,,,,,,,,,,,,,,,,,,,,,,,,,,,,,,,,,,,,,,,,,,,,,,,,,,,,,,,,,,,,,,,,,,,,,,,,,,,,,,,
,,WRIER,8.444355,0,,,,,,stimuli/images/PICTURE_327.png,CASINO,5eb175cb50f4320854a67dcf,10/03/1954,2020-09-10_14h40.16.899,proactive3.1,2020.1.2,Win32,60,5f599a131af4471f3d752b7b,5f5a2c4ed979940876c7660a,3,,,,,,helmet,,,,,,,,,,,3,1,0,53,53,20,1,,,,,,,,,,,,,,,,,,,,,,,,,,,,,,,,,,,,,,,,,,,,,,,,,,,,,,,,,,,,,,,,,,,,,,,,,,,,,,,,,,,,,,,,,,,,,,,,,,,,,,,,
,,?,0.00165,0,,,,,,stimuli/images/PICTURE_380.png,CANDY,5eb175cb50f4320854a67dcf,10/03/1954,2020-09-10_14h40.16.899,proactive3.1,2020.1.2,Win32,60,5f599a131af4471f3d752b7b,5f5a2c4ed979940876c7660a,3,,,,,,gorilla,,,,,,,,,,,1,1,0,54,54,0,1,,,,,,,,,,,,,,,,,,,,,,,,,,,,,,,,,,,,,,,,,,,,,,,,,,,,,,,,,,,,,,,,,,,,,,,,,,,,,,,,,,,,,,,,,,,,,,,,,,,,,,,,
,,?,10.492555,0,,,,,,stimuli/images/PICTURE_564.png,BATH,5eb175cb50f4320854a67dcf,10/03/1954,2020-09-10_14h40.16.899,proactive3.1,2020.1.2,Win32,60,5f599a131af4471f3d752b7b,5f5a2c4ed979940876c7660a,3,,,,,,spoon,,,,,,,,,,,3,1,0,55,55,26,1,,,,,,,,,,,,,,,,,,,,,,,,,,,,,,,,,,,,,,,,,,,,,,,,,,,,,,,,,,,,,,,,,,,,,,,,,,,,,,,,,,,,,,,,,,,,,,,,,,,,,,,,
,,?,0.001765,0,,,,,,stimuli/images/PICTURE_32.png,KIND,5eb175cb50f4320854a67dcf,10/03/1954,2020-09-10_14h40.16.899,proactive3.1,2020.1.2,Win32,60,5f599a131af4471f3d752b7b,5f5a2c4ed979940876c7660a,3,,,,,,crown,,,,,,,,,,,4,1,0,56,56,35,1,,,,,,,,,,,,,,,,,,,,,,,,,,,,,,,,,,,,,,,,,,,,,,,,,,,,,,,,,,,,,,,,,,,,,,,,,,,,,,,,,,,,,,,,,,,,,,,,,,,,,,,,
,,?,0.001515,0,,,,,,stimuli/images/PICTURE_327.png,SERIES,5eb175cb50f4320854a67dcf,10/03/1954,2020-09-10_14h40.16.899,proactive3.1,2020.1.2,Win32,60,5f599a131af4471f3d752b7b,5f5a2c4ed979940876c7660a,3,,,,,,helmet,,,,,,,,,,,1,1,0,57,57,3,1,,,,,,,,,,,,,,,,,,,,,,,,,,,,,,,,,,,,,,,,,,,,,,,,,,,,,,,,,,,,,,,,,,,,,,,,,,,,,,,,,,,,,,,,,,,,,,,,,,,,,,,,
,,?,10.289125,0,,,,,,stimuli/images/PICTURE_750.png,HOTEL,5eb175cb50f4320854a67dcf,10/03/1954,2020-09-10_14h40.16.899,proactive3.1,2020.1.2,Win32,60,5f599a131af4471f3d752b7b,5f5a2c4ed979940876c7660a,3,,,,,,kettle,,,,,,,,,,,3,1,0,58,58,27,1,,,,,,,,,,,,,,,,,,,,,,,,,,,,,,,,,,,,,,,,,,,,,,,,,,,,,,,,,,,,,,,,,,,,,,,,,,,,,,,,,,,,,,,,,,,,,,,,,,,,,,,,
,,?,0.00078,0,,,,,,stimuli/images/PICTURE_403.png,WRITER,5eb175cb50f4320854a67dcf,10/03/1954,2020-09-10_14h40.16.899,proactive3.1,2020.1.2,Win32,60,5f599a131af4471f3d752b7b,5f5a2c4ed979940876c7660a,3,,,,,,cathedral,,,,,,,,,,,4,1,0,59,59,31,1,,,,,,,,,,,,,,,,,,,,,,,,,,,,,,,,,,,,,,,,,,,,,,,,,,,,,,,,,,,,,,,,,,,,,,,,,,,,,,,,,,,,,,,,,,,,,,,,,,,,,,,,
,,,,,,,,,,,,5eb175cb50f4320854a67dcf,10/03/1954,2020-09-10_14h40.16.899,proactive3.1,2020.1.2,Win32,60,5f599a131af4471f3d752b7b,5f5a2c4ed979940876c7660a,3,,,,,,,,,,,,,,,,,,,,,,,,0,0,0,1,1,stimuli/learn-block2.csv,,,,,,,,,,,,,,,,,,,,,,,,,,,,,,,,,,,,,,,,,,,,,,,,,,,,,,,,,,,,,,,,,,,,,,,,,,,,,,,,,,,,,,,,,,,,,,,,,,
,,,,,,,,,,stimuli/images/PICTURE_488.png,STYLE,5eb175cb50f4320854a67dcf,10/03/1954,2020-09-10_14h40.16.899,proactive3.1,2020.1.2,Win32,60,5f599a131af4471f3d752b7b,5f5a2c4ed979940876c7660a,3,,,,,,sun,,,,,,0,0,0,33,1,4,0,,,,,,,,,,,,,,,,,,,,,,,,,,,,,,,,,,,,,,,,,,,,,,,,,,,,,,,,,,,,,,,,,,,,,,,,,,,,,,,,,,,,,,,,,,,,,,,,,,,,,,,,,,,,,
,,,,,,,,,,stimuli/images/PICTURE_85.png,THING,5eb175cb50f4320854a67dcf,10/03/1954,2020-09-10_14h40.16.899,proactive3.1,2020.1.2,Win32,60,5f599a131af4471f3d752b7b,5f5a2c4ed979940876c7660a,3,,,,,,diamond,,,,,,0,1,1,15,1,2,0,,,,,,,,,,,,,,,,,,,,,,,,,,,,,,,,,,,,,,,,,,,,,,,,,,,,,,,,,,,,,,,,,,,,,,,,,,,,,,,,,,,,,,,,,,,,,,,,,,,,,,,,,,,,,
,,,,,,,,,,stimuli/images/PICTURE_491.png,ROOF,5eb175cb50f4320854a67dcf,10/03/1954,2020-09-10_14h40.16.899,proactive3.1,2020.1.2,Win32,60,5f599a131af4471f3d752b7b,5f5a2c4ed979940876c7660a,3,,,,,,rug,,,,,,0,2,2,24,1,3,0,,,,,,,,,,,,,,,,,,,,,,,,,,,,,,,,,,,,,,,,,,,,,,,,,,,,,,,,,,,,,,,,,,,,,,,,,,,,,,,,,,,,,,,,,,,,,,,,,,,,,,,,,,,,,
,,,,,,,,,,stimuli/images/PICTURE_160.png,FEET,5eb175cb50f4320854a67dcf,10/03/1954,2020-09-10_14h40.16.899,proactive3.1,2020.1.2,Win32,60,5f599a131af4471f3d752b7b,5f5a2c4ed979940876c7660a,3,,,,,,wheelbarrow,,,,,,0,3,3,58,1,6,0,,,,,,,,,,,,,,,,,,,,,,,,,,,,,,,,,,,,,,,,,,,,,,,,,,,,,,,,,,,,,,,,,,,,,,,,,,,,,,,,,,,,,,,,,,,,,,,,,,,,,,,,,,,,,
,,,,,,,,,,stimuli/images/PICTURE_308.png,KIND,5eb175cb50f4320854a67dcf,10/03/1954,2020-09-10_14h40.16.899,proactive3.1,2020.1.2,Win32,60,5f599a131af4471f3d752b7b,5f5a2c4ed979940876c7660a,3,,,,,,dice,,,,,,0,4,4,54,1,6,0,,,,,,,,,,,,,,,,,,,,,,,,,,,,,,,,,,,,,,,,,,,,,,,,,,,,,,,,,,,,,,,,,,,,,,,,,,,,,,,,,,,,,,,,,,,,,,,,,,,,,,,,,,,,,
,,,,,,,,,,stimuli/images/PICTURE_708.png,YARD,5eb175cb50f4320854a67dcf,10/03/1954,2020-09-10_14h40.16.899,proactive3.1,2020.1.2,Win32,60,5f599a131af4471f3d752b7b,5f5a2c4ed979940876c7660a,3,,,,,,monkey,,,,,,0,5,5,29,1,3,0,,,,,,,,,,,,,,,,,,,,,,,,,,,,,,,,,,,,,,,,,,,,,,,,,,,,,,,,,,,,,,,,,,,,,,,,,,,,,,,,,,,,,,,,,,,,,,,,,,,,,,,,,,,,,
,,,,,,,,,,stimuli/images/PICTURE_675.png,WEAPON,5eb175cb50f4320854a67dcf,10/03/1954,2020-09-10_14h40.16.899,proactive3.1,2020.1.2,Win32,60,5f599a131af4471f3d752b7b,5f5a2c4ed979940876c7660a,3,,,,,,windmill,,,,,,0,6,6,32,1,4,0,,,,,,,,,,,,,,,,,,,,,,,,,,,,,,,,,,,,,,,,,,,,,,,,,,,,,,,,,,,,,,,,,,,,,,,,,,,,,,,,,,,,,,,,,,,,,,,,,,,,,,,,,,,,,
,,,,,,,,,,stimuli/images/PICTURE_449.png,THING,5eb175cb50f4320854a67dcf,10/03/1954,2020-09-10_14h40.16.899,proactive3.1,2020.1.2,Win32,60,5f599a131af4471f3d752b7b,5f5a2c4ed979940876c7660a,3,,,,,,bench,,,,,,0,7,7,59,1,6,0,,,,,,,,,,,,,,,,,,,,,,,,,,,,,,,,,,,,,,,,,,,,,,,,,,,,,,,,,,,,,,,,,,,,,,,,,,,,,,,,,,,,,,,,,,,,,,,,,,,,,,,,,,,,,
,,,,,,,,,,stimuli/images/PICTURE_688.png,CASINO,5eb175cb50f4320854a67dcf,10/03/1954,2020-09-10_14h40.16.899,proactive3.1,2020.1.2,Win32,60,5f599a131af4471f3d752b7b,5f5a2c4ed979940876c7660a,3,,,,,,runner,,,,,,0,8,8,2,1,1,0,,,,,,,,,,,,,,,,,,,,,,,,,,,,,,,,,,,,,,,,,,,,,,,,,,,,,,,,,,,,,,,,,,,,,,,,,,,,,,,,,,,,,,,,,,,,,,,,,,,,,,,,,,,,,
,,,,,,,,,,stimuli/images/PICTURE_708.png,PENNY,5eb175cb50f4320854a67dcf,10/03/1954,2020-09-10_14h40.16.899,proactive3.1,2020.1.2,Win32,60,5f599a131af4471f3d752b7b,5f5a2c4ed979940876c7660a,3,,,,,,monkey,,,,,,0,9,9,31,1,4,0,,,,,,,,,,,,,,,,,,,,,,,,,,,,,,,,,,,,,,,,,,,,,,,,,,,,,,,,,,,,,,,,,,,,,,,,,,,,,,,,,,,,,,,,,,,,,,,,,,,,,,,,,,,,,
,,,,,,,,,,stimuli/images/PICTURE_453.png,DUDE,5eb175cb50f4320854a67dcf,10/03/1954,2020-09-10_14h40.16.899,proactive3.1,2020.1.2,Win32,60,5f599a131af4471f3d752b7b,5f5a2c4ed979940876c7660a,3,,,,,,scissors,,,,,,0,10,10,27,1,3,0,,,,,,,,,,,,,,,,,,,,,,,,,,,,,,,,,,,,,,,,,,,,,,,,,,,,,,,,,,,,,,,,,,,,,,,,,,,,,,,,,,,,,,,,,,,,,,,,,,,,,,,,,,,,,
,,,,,,,,,,stimuli/images/PICTURE_160.png,LEADER,5eb175cb50f4320854a67dcf,10/03/1954,2020-09-10_14h40.16.899,proactive3.1,2020.1.2,Win32,60,5f599a131af4471f3d752b7b,5f5a2c4ed979940876c7660a,3,,,,,,wheelbarrow,,,,,,0,11,11,3,1,1,0,,,,,,,,,,,,,,,,,,,,,,,,,,,,,,,,,,,,,,,,,,,,,,,,,,,,,,,,,,,,,,,,,,,,,,,,,,,,,,,,,,,,,,,,,,,,,,,,,,,,,,,,,,,,,
,,,,,,,,,,stimuli/images/PICTURE_233.png,IDEAS,5eb175cb50f4320854a67dcf,10/03/1954,2020-09-10_14h40.16.899,proactive3.1,2020.1.2,Win32,60,5f599a131af4471f3d752b7b,5f5a2c4ed979940876c7660a,3,,,,,,salt,,,,,,0,12,12,28,1,3,0,,,,,,,,,,,,,,,,,,,,,,,,,,,,,,,,,,,,,,,,,,,,,,,,,,,,,,,,,,,,,,,,,,,,,,,,,,,,,,,,,,,,,,,,,,,,,,,,,,,,,,,,,,,,,
,,,,,,,,,,stimuli/images/PICTURE_469.png,LETTER,5eb175cb50f4320854a67dcf,10/03/1954,2020-09-10_14h40.16.899,proactive3.1,2020.1.2,Win32,60,5f599a131af4471f3d752b7b,5f5a2c4ed979940876c7660a,3,,,,,,stool,,,,,,0,13,13,42,1,5,0,,,,,,,,,,,,,,,,,,,,,,,,,,,,,,,,,,,,,,,,,,,,,,,,,,,,,,,,,,,,,,,,,,,,,,,,,,,,,,,,,,,,,,,,,,,,,,,,,,,,,,,,,,,,,
,,,,,,,,,,stimuli/images/PICTURE_453.png,PLENTY,5eb175cb50f4320854a67dcf,10/03/1954,2020-09-10_14h40.16.899,proactive3.1,2020.1.2,Win32,60,5f599a131af4471f3d752b7b,5f5a2c4ed979940876c7660a,3,,,,,,scissors,,,,,,0,14,14,56,1,6,0,,,,,,,,,,,,,,,,,,,,,,,,,,,,,,,,,,,,,,,,,,,,,,,,,,,,,,,,,,,,,,,,,,,,,,,,,,,,,,,,,,,,,,,,,,,,,,,,,,,,,,,,,,,,,
,,,,,,,,,,stimuli/images/PICTURE_491.png,WRITER,5eb175cb50f4320854a67dcf,10/03/1954,2020-09-10_14h40.16.899,proactive3.1,2020.1.2,Win32,60,5f599a131af4471f3d752b7b,5f5a2c4ed979940876c7660a,3,,,,,,rug,,,,,,0,15,15,57,1,6,0,,,,,,,,,,,,,,,,,,,,,,,,,,,,,,,,,,,,,,,,,,,,,,,,,,,,,,,,,,,,,,,,,,,,,,,,,,,,,,,,,,,,,,,,,,,,,,,,,,,,,,,,,,,,,
,,,,,,,,,,stimuli/images/PICTURE_208.png,THING,5eb175cb50f4320854a67dcf,10/03/1954,2020-09-10_14h40.16.899,proactive3.1,2020.1.2,Win32,60,5f599a131af4471f3d752b7b,5f5a2c4ed979940876c7660a,3,,,,,,microphone,,,,,,0,16,16,47,1,5,0,,,,,,,,,,,,,,,,,,,,,,,,,,,,,,,,,,,,,,,,,,,,,,,,,,,,,,,,,,,,,,,,,,,,,,,,,,,,,,,,,,,,,,,,,,,,,,,,,,,,,,,,,,,,,
,,,,,,,,,,stimuli/images/PICTURE_233.png,WOMEN,5eb175cb50f4320854a67dcf,10/03/1954,2020-09-10_14h40.16.899,proactive3.1,2020.1.2,Win32,60,5f599a131af4471f3d752b7b,5f5a2c4ed979940876c7660a,3,,,,,,salt,,,,,,0,17,17,38,1,4,0,,,,,,,,,,,,,,,,,,,,,,,,,,,,,,,,,,,,,,,,,,,,,,,,,,,,,,,,,,,,,,,,,,,,,,,,,,,,,,,,,,,,,,,,,,,,,,,,,,,,,,,,,,,,,
,,,,,,,,,,stimuli/images/PICTURE_285.png,ADVICE,5eb175cb50f4320854a67dcf,10/03/1954,2020-09-10_14h40.16.899,proactive3.1,2020.1.2,Win32,60,5f599a131af4471f3d752b7b,5f5a2c4ed979940876c7660a,3,,,,,,carrot,,,,,,0,18,18,12,1,2,0,,,,,,,,,,,,,,,,,,,,,,,,,,,,,,,,,,,,,,,,,,,,,,,,,,,,,,,,,,,,,,,,,,,,,,,,,,,,,,,,,,,,,,,,,,,,,,,,,,,,,,,,,,,,,
,,,,,,,,,,stimuli/images/PICTURE_151.png,GIRL,5eb175cb50f4320854a67dcf,10/03/1954,2020-09-10_14h40.16.899,proactive3.1,2020.1.2,Win32,60,5f599a131af4471f3d752b7b,5f5a2c4ed979940876c7660a,3,,,,,,tray,,,,,,0,19,19,19,1,2,0,,,,,,,,,,,,,,,,,,,,,,,,,,,,,,,,,,,,,,,,,,,,,,,,,,,,,,,,,,,,,,,,,,,,,,,,,,,,,,,,,,,,,,,,,,,,,,,,,,,,,,,,,,,,,
,,,,,,,,,,stimuli/images/PICTURE_469.png,ARTIST,5eb175cb50f4320854a67dcf,10/03/1954,2020-09-10_14h40.16.899,proactive3.1,2020.1.2,Win32,60,5f599a131af4471f3d752b7b,5f5a2c4ed979940876c7660a,3,,,,,,stool,,,,,,0,20,20,6,1,1,0,,,,,,,,,,,,,,,,,,,,,,,,,,,,,,,,,,,,,,,,,,,,,,,,,,,,,,,,,,,,,,,,,,,,,,,,,,,,,,,,,,,,,,,,,,,,,,,,,,,,,,,,,,,,,
,,,,,,,,,,stimuli/images/PICTURE_708.png,CLIENT,5eb175cb50f4320854a67dcf,10/03/1954,2020-09-10_14h40.16.899,proactive3.1,2020.1.2,Win32,60,5f599a131af4471f3d752b7b,5f5a2c4ed979940876c7660a,3,,,,,,monkey,,,,,,0,21,21,5,1,1,0,,,,,,,,,,,,,,,,,,,,,,,,,,,,,,,,,,,,,,,,,,,,,,,,,,,,,,,,,,,,,,,,,,,,,,,,,,,,,,,,,,,,,,,,,,,,,,,,,,,,,,,,,,,,,
,,,,,,,,,,stimuli/images/PICTURE_327.png,BEAUTY,5eb175cb50f4320854a67dcf,10/03/1954,2020-09-10_14h40.16.899,proactive3.1,2020.1.2,Win32,60,5f599a131af4471f3d752b7b,5f5a2c4ed979940876c7660a,3,,,,,,helmet,,,,,,0,22,22,48,1,5,0,,,,,,,,,,,,,,,,,,,,,,,,,,,,,,,,,,,,,,,,,,,,,,,,,,,,,,,,,,,,,,,,,,,,,,,,,,,,,,,,,,,,,,,,,,,,,,,,,,,,,,,,,,,,,
,,,,,,,,,,stimuli/images/PICTURE_248.png,DOZEN,5eb175cb50f4320854a67dcf,10/03/1954,2020-09-10_14h40.16.899,proactive3.1,2020.1.2,Win32,60,5f599a131af4471f3d752b7b,5f5a2c4ed979940876c7660a,3,,,,,,cart,,,,,,0,23,23,39,1,4,0,,,,,,,,,,,,,,,,,,,,,,,,,,,,,,,,,,,,,,,,,,,,,,,,,,,,,,,,,,,,,,,,,,,,,,,,,,,,,,,,,,,,,,,,,,,,,,,,,,,,,,,,,,,,,
,,,,,,,,,,stimuli/images/PICTURE_208.png,MONTH,5eb175cb50f4320854a67dcf,10/03/1954,2020-09-10_14h40.16.899,proactive3.1,2020.1.2,Win32,60,5f599a131af4471f3d752b7b,5f5a2c4ed979940876c7660a,3,,,,,,microphone,,,,,,0,24,24,53,1,6,0,,,,,,,,,,,,,,,,,,,,,,,,,,,,,,,,,,,,,,,,,,,,,,,,,,,,,,,,,,,,,,,,,,,,,,,,,,,,,,,,,,,,,,,,,,,,,,,,,,,,,,,,,,,,,
,,,,,,,,,,stimuli/images/PICTURE_470.png,CASINO,5eb175cb50f4320854a67dcf,10/03/1954,2020-09-10_14h40.16.899,proactive3.1,2020.1.2,Win32,60,5f599a131af4471f3d752b7b,5f5a2c4ed979940876c7660a,3,,,,,,motorbike,,,,,,0,25,25,36,1,4,0,,,,,,,,,,,,,,,,,,,,,,,,,,,,,,,,,,,,,,,,,,,,,,,,,,,,,,,,,,,,,,,,,,,,,,,,,,,,,,,,,,,,,,,,,,,,,,,,,,,,,,,,,,,,,
,,,,,,,,,,stimuli/images/PICTURE_177.png,CARS,5eb175cb50f4320854a67dcf,10/03/1954,2020-09-10_14h40.16.899,proactive3.1,2020.1.2,Win32,60,5f599a131af4471f3d752b7b,5f5a2c4ed979940876c7660a,3,,,,,,mushroom,,,,,,0,26,26,35,1,4,0,,,,,,,,,,,,,,,,,,,,,,,,,,,,,,,,,,,,,,,,,,,,,,,,,,,,,,,,,,,,,,,,,,,,,,,,,,,,,,,,,,,,,,,,,,,,,,,,,,,,,,,,,,,,,
,,,,,,,,,,stimuli/images/PICTURE_255.png,AREA,5eb175cb50f4320854a67dcf,10/03/1954,2020-09-10_14h40.16.899,proactive3.1,2020.1.2,Win32,60,5f599a131af4471f3d752b7b,5f5a2c4ed979940876c7660a,3,,,,,,shovel,,,,,,0,27,27,22,1,3,0,,,,,,,,,,,,,,,,,,,,,,,,,,,,,,,,,,,,,,,,,,,,,,,,,,,,,,,,,,,,,,,,,,,,,,,,,,,,,,,,,,,,,,,,,,,,,,,,,,,,,,,,,,,,,
,,,,,,,,,,stimuli/images/PICTURE_509.png,PHOTO,5eb175cb50f4320854a67dcf,10/03/1954,2020-09-10_14h40.16.899,proactive3.1,2020.1.2,Win32,60,5f599a131af4471f3d752b7b,5f5a2c4ed979940876c7660a,3,,,,,,telephone,,,,,,0,28,28,21,1,3,0,,,,,,,,,,,,,,,,,,,,,,,,,,,,,,,,,,,,,,,,,,,,,,,,,,,,,,,,,,,,,,,,,,,,,,,,,,,,,,,,,,,,,,,,,,,,,,,,,,,,,,,,,,,,,
,,,,,,,,,,stimuli/images/PICTURE_68.png,MILE,5eb175cb50f4320854a67dcf,10/03/1954,2020-09-10_14h40.16.899,proactive3.1,2020.1.2,Win32,60,5f599a131af4471f3d752b7b,5f5a2c4ed979940876c7660a,3,,,,,,candle,,,,,,0,29,29,44,1,5,0,,,,,,,,,,,,,,,,,,,,,,,,,,,,,,,,,,,,,,,,,,,,,,,,,,,,,,,,,,,,,,,,,,,,,,,,,,,,,,,,,,,,,,,,,,,,,,,,,,,,,,,,,,,,,
,,,,,,,,,,stimuli/images/PICTURE_208.png,LOTS,5eb175cb50f4320854a67dcf,10/03/1954,2020-09-10_14h40.16.899,proactive3.1,2020.1.2,Win32,60,5f599a131af4471f3d752b7b,5f5a2c4ed979940876c7660a,3,,,,,,microphone,,,,,,0,30,30,10,1,2,0,,,,,,,,,,,,,,,,,,,,,,,,,,,,,,,,,,,,,,,,,,,,,,,,,,,,,,,,,,,,,,,,,,,,,,,,,,,,,,,,,,,,,,,,,,,,,,,,,,,,,,,,,,,,,
,,,,,,,,,,stimuli/images/PICTURE_744.png,SYSTEM,5eb175cb50f4320854a67dcf,10/03/1954,2020-09-10_14h40.16.899,proactive3.1,2020.1.2,Win32,60,5f599a131af4471f3d752b7b,5f5a2c4ed979940876c7660a,3,,,,,,ring,,,,,,0,31,31,43,1,5,0,,,,,,,,,,,,,,,,,,,,,,,,,,,,,,,,,,,,,,,,,,,,,,,,,,,,,,,,,,,,,,,,,,,,,,,,,,,,,,,,,,,,,,,,,,,,,,,,,,,,,,,,,,,,,
,,,,,,,,,,stimuli/images/PICTURE_667.png,PLENTY,5eb175cb50f4320854a67dcf,10/03/1954,2020-09-10_14h40.16.899,proactive3.1,2020.1.2,Win32,60,5f599a131af4471f3d752b7b,5f5a2c4ed979940876c7660a,3,,,,,,daisy,,,,,,0,32,32,41,1,5,0,,,,,,,,,,,,,,,,,,,,,,,,,,,,,,,,,,,,,,,,,,,,,,,,,,,,,,,,,,,,,,,,,,,,,,,,,,,,,,,,,,,,,,,,,,,,,,,,,,,,,,,,,,,,,
,,,,,,,,,,stimuli/images/PICTURE_123.png,ADVICE,5eb175cb50f4320854a67dcf,10/03/1954,2020-09-10_14h40.16.899,proactive3.1,2020.1.2,Win32,60,5f599a131af4471f3d752b7b,5f5a2c4ed979940876c7660a,3,,,,,,dart,,,,,,0,33,33,40,1,5,0,,,,,,,,,,,,,,,,,,,,,,,,,,,,,,,,,,,,,,,,,,,,,,,,,,,,,,,,,,,,,,,,,,,,,,,,,,,,,,,,,,,,,,,,,,,,,,,,,,,,,,,,,,,,,
,,,,,,,,,,stimuli/images/PICTURE_380.png,DEATH,5eb175cb50f4320854a67dcf,10/03/1954,2020-09-10_14h40.16.899,proactive3.1,2020.1.2,Win32,60,5f599a131af4471f3d752b7b,5f5a2c4ed979940876c7660a,3,,,,,,gorilla,,,,,,0,34,34,49,1,5,0,,,,,,,,,,,,,,,,,,,,,,,,,,,,,,,,,,,,,,,,,,,,,,,,,,,,,,,,,,,,,,,,,,,,,,,,,,,,,,,,,,,,,,,,,,,,,,,,,,,,,,,,,,,,,
,,,,,,,,,,stimuli/images/PICTURE_692.png,MONTH,5eb175cb50f4320854a67dcf,10/03/1954,2020-09-10_14h40.16.899,proactive3.1,2020.1.2,Win32,60,5f599a131af4471f3d752b7b,5f5a2c4ed979940876c7660a,3,,,,,,cherry,,,,,,0,35,35,16,1,2,0,,,,,,,,,,,,,,,,,,,,,,,,,,,,,,,,,,,,,,,,,,,,,,,,,,,,,,,,,,,,,,,,,,,,,,,,,,,,,,,,,,,,,,,,,,,,,,,,,,,,,,,,,,,,,
,,,,,,,,,,stimuli/images/PICTURE_380.png,PHOTO,5eb175cb50f4320854a67dcf,10/03/1954,2020-09-10_14h40.16.899,proactive3.1,2020.1.2,Win32,60,5f599a131af4471f3d752b7b,5f5a2c4ed979940876c7660a,3,,,,,,gorilla,,,,,,0,36,36,52,1,6,0,,,,,,,,,,,,,,,,,,,,,,,,,,,,,,,,,,,,,,,,,,,,,,,,,,,,,,,,,,,,,,,,,,,,,,,,,,,,,,,,,,,,,,,,,,,,,,,,,,,,,,,,,,,,,
,,,,,,,,,,stimuli/images/PICTURE_504.png,BODY,5eb175cb50f4320854a67dcf,10/03/1954,2020-09-10_14h40.16.899,proactive3.1,2020.1.2,Win32,60,5f599a131af4471f3d752b7b,5f5a2c4ed979940876c7660a,3,,,,,,wheel,,,,,,0,37,37,8,1,1,0,,,,,,,,,,,,,,,,,,,,,,,,,,,,,,,,,,,,,,,,,,,,,,,,,,,,,,,,,,,,,,,,,,,,,,,,,,,,,,,,,,,,,,,,,,,,,,,,,,,,,,,,,,,,,
,,,,,,,,,,stimuli/images/PICTURE_147.png,MOMENT,5eb175cb50f4320854a67dcf,10/03/1954,2020-09-10_14h40.16.899,proactive3.1,2020.1.2,Win32,60,5f599a131af4471f3d752b7b,5f5a2c4ed979940876c7660a,3,,,,,,hanger,,,,,,0,38,38,51,1,6,0,,,,,,,,,,,,,,,,,,,,,,,,,,,,,,,,,,,,,,,,,,,,,,,,,,,,,,,,,,,,,,,,,,,,,,,,,,,,,,,,,,,,,,,,,,,,,,,,,,,,,,,,,,,,,
,,,,,,,,,,stimuli/images/PICTURE_32.png,JUNGLE,5eb175cb50f4320854a67dcf,10/03/1954,2020-09-10_14h40.16.899,proactive3.1,2020.1.2,Win32,60,5f599a131af4471f3d752b7b,5f5a2c4ed979940876c7660a,3,,,,,,crown,,,,,,0,39,39,45,1,5,0,,,,,,,,,,,,,,,,,,,,,,,,,,,,,,,,,,,,,,,,,,,,,,,,,,,,,,,,,,,,,,,,,,,,,,,,,,,,,,,,,,,,,,,,,,,,,,,,,,,,,,,,,,,,,
,,,,,,,,,,stimuli/images/PICTURE_487.png,FLIGHT,5eb175cb50f4320854a67dcf,10/03/1954,2020-09-10_14h40.16.899,proactive3.1,2020.1.2,Win32,60,5f599a131af4471f3d752b7b,5f5a2c4ed979940876c7660a,3,,,,,,basket,,,,,,0,40,40,9,1,1,0,,,,,,,,,,,,,,,,,,,,,,,,,,,,,,,,,,,,,,,,,,,,,,,,,,,,,,,,,,,,,,,,,,,,,,,,,,,,,,,,,,,,,,,,,,,,,,,,,,,,,,,,,,,,,
,,,,,,,,,,stimuli/images/PICTURE_667.png,BATH,5eb175cb50f4320854a67dcf,10/03/1954,2020-09-10_14h40.16.899,proactive3.1,2020.1.2,Win32,60,5f599a131af4471f3d752b7b,5f5a2c4ed979940876c7660a,3,,,,,,daisy,,,,,,0,41,41,4,1,1,0,,,,,,,,,,,,,,,,,,,,,,,,,,,,,,,,,,,,,,,,,,,,,,,,,,,,,,,,,,,,,,,,,,,,,,,,,,,,,,,,,,,,,,,,,,,,,,,,,,,,,,,,,,,,,
,,,,,,,,,,stimuli/images/PICTURE_311.png,FRIEND,5eb175cb50f4320854a67dcf,10/03/1954,2020-09-10_14h40.16.899,proactive3.1,2020.1.2,Win32,60,5f599a131af4471f3d752b7b,5f5a2c4ed979940876c7660a,3,,,,,,razor,,,,,,0,42,42,34,1,4,0,,,,,,,,,,,,,,,,,,,,,,,,,,,,,,,,,,,,,,,,,,,,,,,,,,,,,,,,,,,,,,,,,,,,,,,,,,,,,,,,,,,,,,,,,,,,,,,,,,,,,,,,,,,,,
,,,,,,,,,,stimuli/images/PICTURE_302.png,FAMILY,5eb175cb50f4320854a67dcf,10/03/1954,2020-09-10_14h40.16.899,proactive3.1,2020.1.2,Win32,60,5f599a131af4471f3d752b7b,5f5a2c4ed979940876c7660a,3,,,,,,taxi,,,,,,0,43,43,18,1,2,0,,,,,,,,,,,,,,,,,,,,,,,,,,,,,,,,,,,,,,,,,,,,,,,,,,,,,,,,,,,,,,,,,,,,,,,,,,,,,,,,,,,,,,,,,,,,,,,,,,,,,,,,,,,,,
,,,,,,,,,,stimuli/images/PICTURE_314.png,SAKE,5eb175cb50f4320854a67dcf,10/03/1954,2020-09-10_14h40.16.899,proactive3.1,2020.1.2,Win32,60,5f599a131af4471f3d752b7b,5f5a2c4ed979940876c7660a,3,,,,,,perfume,,,,,,0,44,44,7,1,1,0,,,,,,,,,,,,,,,,,,,,,,,,,,,,,,,,,,,,,,,,,,,,,,,,,,,,,,,,,,,,,,,,,,,,,,,,,,,,,,,,,,,,,,,,,,,,,,,,,,,,,,,,,,,,,
,,,,,,,,,,stimuli/images/PICTURE_688.png,WOMEN,5eb175cb50f4320854a67dcf,10/03/1954,2020-09-10_14h40.16.899,proactive3.1,2020.1.2,Win32,60,5f599a131af4471f3d752b7b,5f5a2c4ed979940876c7660a,3,,,,,,runner,,,,,,0,45,45,14,1,2,0,,,,,,,,,,,,,,,,,,,,,,,,,,,,,,,,,,,,,,,,,,,,,,,,,,,,,,,,,,,,,,,,,,,,,,,,,,,,,,,,,,,,,,,,,,,,,,,,,,,,,,,,,,,,,
,,,,,,,,,,stimuli/images/PICTURE_348.png,SPEECH,5eb175cb50f4320854a67dcf,10/03/1954,2020-09-10_14h40.16.899,proactive3.1,2020.1.2,Win32,60,5f599a131af4471f3d752b7b,5f5a2c4ed979940876c7660a,3,,,,,,pepper,,,,,,0,46,46,20,1,3,0,,,,,,,,,,,,,,,,,,,,,,,,,,,,,,,,,,,,,,,,,,,,,,,,,,,,,,,,,,,,,,,,,,,,,,,,,,,,,,,,,,,,,,,,,,,,,,,,,,,,,,,,,,,,,
,,,,,,,,,,stimuli/images/PICTURE_677.png,MILE,5eb175cb50f4320854a67dcf,10/03/1954,2020-09-10_14h40.16.899,proactive3.1,2020.1.2,Win32,60,5f599a131af4471f3d752b7b,5f5a2c4ed979940876c7660a,3,,,,,,map,,,,,,0,47,47,30,1,4,0,,,,,,,,,,,,,,,,,,,,,,,,,,,,,,,,,,,,,,,,,,,,,,,,,,,,,,,,,,,,,,,,,,,,,,,,,,,,,,,,,,,,,,,,,,,,,,,,,,,,,,,,,,,,,
,,,,,,,,,,stimuli/images/PICTURE_311.png,BEAUTY,5eb175cb50f4320854a67dcf,10/03/1954,2020-09-10_14h40.16.899,proactive3.1,2020.1.2,Win32,60,5f599a131af4471f3d752b7b,5f5a2c4ed979940876c7660a,3,,,,,,razor,,,,,,0,48,48,13,1,2,0,,,,,,,,,,,,,,,,,,,,,,,,,,,,,,,,,,,,,,,,,,,,,,,,,,,,,,,,,,,,,,,,,,,,,,,,,,,,,,,,,,,,,,,,,,,,,,,,,,,,,,,,,,,,,
,,,,,,,,,,stimuli/images/PICTURE_467.png,DEMON,5eb175cb50f4320854a67dcf,10/03/1954,2020-09-10_14h40.16.899,proactive3.1,2020.1.2,Win32,60,5f599a131af4471f3d752b7b,5f5a2c4ed979940876c7660a,3,,,,,,peg,,,,,,0,49,49,23,1,3,0,,,,,,,,,,,,,,,,,,,,,,,,,,,,,,,,,,,,,,,,,,,,,,,,,,,,,,,,,,,,,,,,,,,,,,,,,,,,,,,,,,,,,,,,,,,,,,,,,,,,,,,,,,,,,
,,,,,,,,,,stimuli/images/PICTURE_95.png,STYLE,5eb175cb50f4320854a67dcf,10/03/1954,2020-09-10_14h40.16.899,proactive3.1,2020.1.2,Win32,60,5f599a131af4471f3d752b7b,5f5a2c4ed979940876c7660a,3,,,,,,suitcase,,,,,,0,50,50,25,1,3,0,,,,,,,,,,,,,,,,,,,,,,,,,,,,,,,,,,,,,,,,,,,,,,,,,,,,,,,,,,,,,,,,,,,,,,,,,,,,,,,,,,,,,,,,,,,,,,,,,,,,,,,,,,,,,
,,,,,,,,,,stimuli/images/PICTURE_203.png,ARTIST,5eb175cb50f4320854a67dcf,10/03/1954,2020-09-10_14h40.16.899,proactive3.1,2020.1.2,Win32,60,5f599a131af4471f3d752b7b,5f5a2c4ed979940876c7660a,3,,,,,,cap,,,,,,0,51,51,26,1,3,0,,,,,,,,,,,,,,,,,,,,,,,,,,,,,,,,,,,,,,,,,,,,,,,,,,,,,,,,,,,,,,,,,,,,,,,,,,,,,,,,,,,,,,,,,,,,,,,,,,,,,,,,,,,,,
,,,,,,,,,,stimuli/images/PICTURE_339.png,PLENTY,5eb175cb50f4320854a67dcf,10/03/1954,2020-09-10_14h40.16.899,proactive3.1,2020.1.2,Win32,60,5f599a131af4471f3d752b7b,5f5a2c4ed979940876c7660a,3,,,,,,backpack,,,,,,0,52,52,0,1,1,0,,,,,,,,,,,,,,,,,,,,,,,,,,,,,,,,,,,,,,,,,,,,,,,,,,,,,,,,,,,,,,,,,,,,,,,,,,,,,,,,,,,,,,,,,,,,,,,,,,,,,,,,,,,,,
,,,,,,,,,,stimuli/images/PICTURE_308.png,ESTATE,5eb175cb50f4320854a67dcf,10/03/1954,2020-09-10_14h40.16.899,proactive3.1,2020.1.2,Win32,60,5f599a131af4471f3d752b7b,5f5a2c4ed979940876c7660a,3,,,,,,dice,,,,,,0,53,53,46,1,5,0,,,,,,,,,,,,,,,,,,,,,,,,,,,,,,,,,,,,,,,,,,,,,,,,,,,,,,,,,,,,,,,,,,,,,,,,,,,,,,,,,,,,,,,,,,,,,,,,,,,,,,,,,,,,,
,,,,,,,,,,stimuli/images/PICTURE_654.png,VALLEY,5eb175cb50f4320854a67dcf,10/03/1954,2020-09-10_14h40.16.899,proactive3.1,2020.1.2,Win32,60,5f599a131af4471f3d752b7b,5f5a2c4ed979940876c7660a,3,,,,,,pencil,,,,,,0,54,54,1,1,1,0,,,,,,,,,,,,,,,,,,,,,,,,,,,,,,,,,,,,,,,,,,,,,,,,,,,,,,,,,,,,,,,,,,,,,,,,,,,,,,,,,,,,,,,,,,,,,,,,,,,,,,,,,,,,,
,,,,,,,,,,stimuli/images/PICTURE_744.png,SAKE,5eb175cb50f4320854a67dcf,10/03/1954,2020-09-10_14h40.16.899,proactive3.1,2020.1.2,Win32,60,5f599a131af4471f3d752b7b,5f5a2c4ed979940876c7660a,3,,,,,,ring,,,,,,0,55,55,17,1,2,0,,,,,,,,,,,,,,,,,,,,,,,,,,,,,,,,,,,,,,,,,,,,,,,,,,,,,,,,,,,,,,,,,,,,,,,,,,,,,,,,,,,,,,,,,,,,,,,,,,,,,,,,,,,,,
,,,,,,,,,,stimuli/images/PICTURE_215.png,PLENTY,5eb175cb50f4320854a67dcf,10/03/1954,2020-09-10_14h40.16.899,proactive3.1,2020.1.2,Win32,60,5f599a131af4471f3d752b7b,5f5a2c4ed979940876c7660a,3,,,,,,boot,,,,,,0,56,56,37,1,4,0,,,,,,,,,,,,,,,,,,,,,,,,,,,,,,,,,,,,,,,,,,,,,,,,,,,,,,,,,,,,,,,,,,,,,,,,,,,,,,,,,,,,,,,,,,,,,,,,,,,,,,,,,,,,,
,,,,,,,,,,stimuli/images/PICTURE_314.png,GODS,5eb175cb50f4320854a67dcf,10/03/1954,2020-09-10_14h40.16.899,proactive3.1,2020.1.2,Win32,60,5f599a131af4471f3d752b7b,5f5a2c4ed979940876c7660a,3,,,,,,perfume,,,,,,0,57,57,11,1,2,0,,,,,,,,,,,,,,,,,,,,,,,,,,,,,,,,,,,,,,,,,,,,,,,,,,,,,,,,,,,,,,,,,,,,,,,,,,,,,,,,,,,,,,,,,,,,,,,,,,,,,,,,,,,,,
,,,,,,,,,,stimuli/images/PICTURE_123.png,ADVICE,5eb175cb50f4320854a67dcf,10/03/1954,2020-09-10_14h40.16.899,proactive3.1,2020.1.2,Win32,60,5f599a131af4471f3d752b7b,5f5a2c4ed979940876c7660a,3,,,,,,dart,,,,,,0,58,58,50,1,6,0,,,,,,,,,,,,,,,,,,,,,,,,,,,,,,,,,,,,,,,,,,,,,,,,,,,,,,,,,,,,,,,,,,,,,,,,,,,,,,,,,,,,,,,,,,,,,,,,,,,,,,,,,,,,,
,,?,0.00188,0,,,,,,stimuli/images/PICTURE_327.png,BEAUTY,5eb175cb50f4320854a67dcf,10/03/1954,2020-09-10_14h40.16.899,proactive3.1,2020.1.2,Win32,60,5f599a131af4471f3d752b7b,5f5a2c4ed979940876c7660a,3,,,,,,helmet,,,,,,,,,,,5,0,0,0,0,48,1,,,,,,,,,,,,,,,,,,,,,,,,,,,,,,,,,,,,,,,,,,,,,,,,,,,,,,,,,,,,,,,,,,,,,,,,,,,,,,,,,,,,,,,,,,,,,,,,,,,,,,,,
,,?,0.001505,0,,,,,,stimuli/images/PICTURE_339.png,PLENTY,5eb175cb50f4320854a67dcf,10/03/1954,2020-09-10_14h40.16.899,proactive3.1,2020.1.2,Win32,60,5f599a131af4471f3d752b7b,5f5a2c4ed979940876c7660a,3,,,,,,backpack,,,,,,,,,,,1,0,0,1,1,0,1,,,,,,,,,,,,,,,,,,,,,,,,,,,,,,,,,,,,,,,,,,,,,,,,,,,,,,,,,,,,,,,,,,,,,,,,,,,,,,,,,,,,,,,,,,,,,,,,,,,,,,,,
,,?,0.001425,0,,,,,,stimuli/images/PICTURE_68.png,MILE,5eb175cb50f4320854a67dcf,10/03/1954,2020-09-10_14h40.16.899,proactive3.1,2020.1.2,Win32,60,5f599a131af4471f3d752b7b,5f5a2c4ed979940876c7660a,3,,,,,,candle,,,,,,,,,,,5,0,0,2,2,44,1,,,,,,,,,,,,,,,,,,,,,,,,,,,,,,,,,,,,,,,,,,,,,,,,,,,,,,,,,,,,,,,,,,,,,,,,,,,,,,,,,,,,,,,,,,,,,,,,,,,,,,,,
,,?,0.00137,0,,,,,,stimuli/images/PICTURE_314.png,GODS,5eb175cb50f4320854a67dcf,10/03/1954,2020-09-10_14h40.16.899,proactive3.1,2020.1.2,Win32,60,5f599a131af4471f3d752b7b,5f5a2c4ed979940876c7660a,3,,,,,,perfume,,,,,,,,,,,2,0,0,3,3,11,1,,,,,,,,,,,,,,,,,,,,,,,,,,,,,,,,,,,,,,,,,,,,,,,,,,,,,,,,,,,,,,,,,,,,,,,,,,,,,,,,,,,,,,,,,,,,,,,,,,,,,,,,
,,?,0.001545,0,,,,,,stimuli/images/PICTURE_488.png,STYLE,5eb175cb50f4320854a67dcf,10/03/1954,2020-09-10_14h40.16.899,proactive3.1,2020.1.2,Win32,60,5f599a131af4471f3d752b7b,5f5a2c4ed979940876c7660a,3,,,,,,sun,,,,,,,,,,,4,0,0,4,4,33,1,,,,,,,,,,,,,,,,,,,,,,,,,,,,,,,,,,,,,,,,,,,,,,,,,,,,,,,,,,,,,,,,,,,,,,,,,,,,,,,,,,,,,,,,,,,,,,,,,,,,,,,,
,,?,0.00154,0,,,,,,stimuli/images/PICTURE_453.png,PLENTY,5eb175cb50f4320854a67dcf,10/03/1954,2020-09-10_14h40.16.899,proactive3.1,2020.1.2,Win32,60,5f599a131af4471f3d752b7b,5f5a2c4ed979940876c7660a,3,,,,,,scissors,,,,,,,,,,,6,0,0,5,5,56,1,,,,,,,,,,,,,,,,,,,,,,,,,,,,,,,,,,,,,,,,,,,,,,,,,,,,,,,,,,,,,,,,,,,,,,,,,,,,,,,,,,,,,,,,,,,,,,,,,,,,,,,,
,,?,0.001535,0,,,,,,stimuli/images/PICTURE_675.png,WEAPON,5eb175cb50f4320854a67dcf,10/03/1954,2020-09-10_14h40.16.899,proactive3.1,2020.1.2,Win32,60,5f599a131af4471f3d752b7b,5f5a2c4ed979940876c7660a,3,,,,,,windmill,,,,,,,,,,,4,0,0,6,6,32,1,,,,,,,,,,,,,,,,,,,,,,,,,,,,,,,,,,,,,,,,,,,,,,,,,,,,,,,,,,,,,,,,,,,,,,,,,,,,,,,,,,,,,,,,,,,,,,,,,,,,,,,,
,,STYLE,5.38916,1,,,,,,stimuli/images/PICTURE_95.png,STYLE,5eb175cb50f4320854a67dcf,10/03/1954,2020-09-10_14h40.16.899,proactive3.1,2020.1.2,Win32,60,5f599a131af4471f3d752b7b,5f5a2c4ed979940876c7660a,3,,,,,,suitcase,,,,,,,,,,,3,0,0,7,7,25,1,,,,,,,,,,,,,,,,,,,,,,,,,,,,,,,,,,,,,,,,,,,,,,,,,,,,,,,,,,,,,,,,,,,,,,,,,,,,,,,,,,,,,,,,,,,,,,,,,,,,,,,,
,,?,0.001425,0,,,,,,stimuli/images/PICTURE_692.png,MONTH,5eb175cb50f4320854a67dcf,10/03/1954,2020-09-10_14h40.16.899,proactive3.1,2020.1.2,Win32,60,5f599a131af4471f3d752b7b,5f5a2c4ed979940876c7660a,3,,,,,,cherry,,,,,,,,,,,2,0,0,8,8,16,1,,,,,,,,,,,,,,,,,,,,,,,,,,,,,,,,,,,,,,,,,,,,,,,,,,,,,,,,,,,,,,,,,,,,,,,,,,,,,,,,,,,,,,,,,,,,,,,,,,,,,,,,
,,?,0.000985,0,,,,,,stimuli/images/PICTURE_160.png,FEET,5eb175cb50f4320854a67dcf,10/03/1954,2020-09-10_14h40.16.899,proactive3.1,2020.1.2,Win32,60,5f599a131af4471f3d752b7b,5f5a2c4ed979940876c7660a,3,,,,,,wheelbarrow,,,,,,,,,,,6,0,0,9,9,58,1,,,,,,,,,,,,,,,,,,,,,,,,,,,,,,,,,,,,,,,,,,,,,,,,,,,,,,,,,,,,,,,,,,,,,,,,,,,,,,,,,,,,,,,,,,,,,,,,,,,,,,,,
,,?,8.396405,0,,,,,,stimuli/images/PICTURE_509.png,PHOTO,5eb175cb50f4320854a67dcf,10/03/1954,2020-09-10_14h40.16.899,proactive3.1,2020.1.2,Win32,60,5f599a131af4471f3d752b7b,5f5a2c4ed979940876c7660a,3,,,,,,telephone,,,,,,,,,,,3,0,0,10,10,21,1,,,,,,,,,,,,,,,,,,,,,,,,,,,,,,,,,,,,,,,,,,,,,,,,,,,,,,,,,,,,,,,,,,,,,,,,,,,,,,,,,,,,,,,,,,,,,,,,,,,,,,,,
,,?,0.00181,0,,,,,,stimuli/images/PICTURE_470.png,CASINO,5eb175cb50f4320854a67dcf,10/03/1954,2020-09-10_14h40.16.899,proactive3.1,2020.1.2,Win32,60,5f599a131af4471f3d752b7b,5f5a2c4ed979940876c7660a,3,,,,,,motorbike,,,,,,,,,,,4,0,0,11,11,36,1,,,,,,,,,,,,,,,,,,,,,,,,,,,,,,,,,,,,,,,,,,,,,,,,,,,,,,,,,,,,,,,,,,,,,,,,,,,,,,,,,,,,,,,,,,,,,,,,,,,,,,,,
,,?,0.001575,0,,,,,,stimuli/images/PICTURE_32.png,JUNGLE,5eb175cb50f4320854a67dcf,10/03/1954,2020-09-10_14h40.16.899,proactive3.1,2020.1.2,Win32,60,5f599a131af4471f3d752b7b,5f5a2c4ed979940876c7660a,3,,,,,,crown,,,,,,,,,,,5,0,0,12,12,45,1,,,,,,,,,,,,,,,,,,,,,,,,,,,,,,,,,,,,,,,,,,,,,,,,,,,,,,,,,,,,,,,,,,,,,,,,,,,,,,,,,,,,,,,,,,,,,,,,,,,,,,,,
,,?,0.001505,0,,,,,,stimuli/images/PICTURE_123.png,ADVICE,5eb175cb50f4320854a67dcf,10/03/1954,2020-09-10_14h40.16.899,proactive3.1,2020.1.2,Win32,60,5f599a131af4471f3d752b7b,5f5a2c4ed979940876c7660a,3,,,,,,dart,,,,,,,,,,,5,0,0,13,13,40,1,,,,,,,,,,,,,,,,,,,,,,,,,,,,,,,,,,,,,,,,,,,,,,,,,,,,,,,,,,,,,,,,,,,,,,,,,,,,,,,,,,,,,,,,,,,,,,,,,,,,,,,,
,,?,0.00178,0,,,,,,stimuli/images/PICTURE_215.png,PLENTY,5eb175cb50f4320854a67dcf,10/03/1954,2020-09-10_14h40.16.899,proactive3.1,2020.1.2,Win32,60,5f599a131af4471f3d752b7b,5f5a2c4ed979940876c7660a,3,,,,,,boot,,,,,,,,,,,4,0,0,14,14,37,1,,,,,,,,,,,,,,,,,,,,,,,,,,,,,,,,,,,,,,,,,,,,,,,,,,,,,,,,,,,,,,,,,,,,,,,,,,,,,,,,,,,,,,,,,,,,,,,,,,,,,,,,
,,?,0.00141,0,,,,,,stimuli/images/PICTURE_654.png,VALLEY,5eb175cb50f4320854a67dcf,10/03/1954,2020-09-10_14h40.16.899,proactive3.1,2020.1.2,Win32,60,5f599a131af4471f3d752b7b,5f5a2c4ed979940876c7660a,3,,,,,,pencil,,,,,,,,,,,1,0,0,15,15,1,1,,,,,,,,,,,,,,,,,,,,,,,,,,,,,,,,,,,,,,,,,,,,,,,,,,,,,,,,,,,,,,,,,,,,,,,,,,,,,,,,,,,,,,,,,,,,,,,,,,,,,,,,
,,?,0.00133,0,,,,,,stimuli/images/PICTURE_491.png,WRITER,5eb175cb50f4320854a67dcf,10/03/1954,2020-09-10_14h40.16.899,proactive3.1,2020.1.2,Win32,60,5f599a131af4471f3d752b7b,5f5a2c4ed979940876c7660a,3,,,,,,rug,,,,,,,,,,,6,0,0,16,16,57,1,,,,,,,,,,,,,,,,,,,,,,,,,,,,,,,,,,,,,,,,,,,,,,,,,,,,,,,,,,,,,,,,,,,,,,,,,,,,,,,,,,,,,,,,,,,,,,,,,,,,,,,,
,,?,0.00154,0,,,,,,stimuli/images/PICTURE_708.png,PENNY,5eb175cb50f4320854a67dcf,10/03/1954,2020-09-10_14h40.16.899,proactive3.1,2020.1.2,Win32,60,5f599a131af4471f3d752b7b,5f5a2c4ed979940876c7660a,3,,,,,,monkey,,,,,,,,,,,4,0,0,17,17,31,1,,,,,,,,,,,,,,,,,,,,,,,,,,,,,,,,,,,,,,,,,,,,,,,,,,,,,,,,,,,,,,,,,,,,,,,,,,,,,,,,,,,,,,,,,,,,,,,,,,,,,,,,
,,?,0.001525,0,,,,,,stimuli/images/PICTURE_160.png,LEADER,5eb175cb50f4320854a67dcf,10/03/1954,2020-09-10_14h40.16.899,proactive3.1,2020.1.2,Win32,60,5f599a131af4471f3d752b7b,5f5a2c4ed979940876c7660a,3,,,,,,wheelbarrow,,,,,,,,,,,1,0,0,18,18,3,1,,,,,,,,,,,,,,,,,,,,,,,,,,,,,,,,,,,,,,,,,,,,,,,,,,,,,,,,,,,,,,,,,,,,,,,,,,,,,,,,,,,,,,,,,,,,,,,,,,,,,,,,
,,?,0.00079,0,,,,,,stimuli/images/PICTURE_285.png,ADVICE,5eb175cb50f4320854a67dcf,10/03/1954,2020-09-10_14h40.16.899,proactive3.1,2020.1.2,Win32,60,5f599a131af4471f3d752b7b,5f5a2c4ed979940876c7660a,3,,,,,,carrot,,,,,,,,,,,2,0,0,19,19,12,1,,,,,,,,,,,,,,,,,,,,,,,,,,,,,,,,,,,,,,,,,,,,,,,,,,,,,,,,,,,,,,,,,,,,,,,,,,,,,,,,,,,,,,,,,,,,,,,,,,,,,,,,
,,?,0.00077,0,,,,,,stimuli/images/PICTURE_688.png,CASINO,5eb175cb50f4320854a67dcf,10/03/1954,2020-09-10_14h40.16.899,proactive3.1,2020.1.2,Win32,60,5f599a131af4471f3d752b7b,5f5a2c4ed979940876c7660a,3,,,,,,runner,,,,,,,,,,,1,0,0,20,20,2,1,,,,,,,,,,,,,,,,,,,,,,,,,,,,,,,,,,,,,,,,,,,,,,,,,,,,,,,,,,,,,,,,,,,,,,,,,,,,,,,,,,,,,,,,,,,,,,,,,,,,,,,,
,,?,0.00076,0,,,,,,stimuli/images/PICTURE_311.png,FRIEND,5eb175cb50f4320854a67dcf,10/03/1954,2020-09-10_14h40.16.899,proactive3.1,2020.1.2,Win32,60,5f599a131af4471f3d752b7b,5f5a2c4ed979940876c7660a,3,,,,,,razor,,,,,,,,,,,4,0,0,21,21,34,1,,,,,,,,,,,,,,,,,,,,,,,,,,,,,,,,,,,,,,,,,,,,,,,,,,,,,,,,,,,,,,,,,,,,,,,,,,,,,,,,,,,,,,,,,,,,,,,,,,,,,,,,
,,?,0.000785,0,,,,,,stimuli/images/PICTURE_380.png,DEATH,5eb175cb50f4320854a67dcf,10/03/1954,2020-09-10_14h40.16.899,proactive3.1,2020.1.2,Win32,60,5f599a131af4471f3d752b7b,5f5a2c4ed979940876c7660a,3,,,,,,gorilla,,,,,,,,,,,5,0,0,22,22,49,1,,,,,,,,,,,,,,,,,,,,,,,,,,,,,,,,,,,,,,,,,,,,,,,,,,,,,,,,,,,,,,,,,,,,,,,,,,,,,,,,,,,,,,,,,,,,,,,,,,,,,,,,
,,?,0.00081,0,,,,,,stimuli/images/PICTURE_311.png,BEAUTY,5eb175cb50f4320854a67dcf,10/03/1954,2020-09-10_14h40.16.899,proactive3.1,2020.1.2,Win32,60,5f599a131af4471f3d752b7b,5f5a2c4ed979940876c7660a,3,,,,,,razor,,,,,,,,,,,2,0,0,23,23,13,1,,,,,,,,,,,,,,,,,,,,,,,,,,,,,,,,,,,,,,,,,,,,,,,,,,,,,,,,,,,,,,,,,,,,,,,,,,,,,,,,,,,,,,,,,,,,,,,,,,,,,,,,
,,?,0.00104,0,,,,,,stimuli/images/PICTURE_504.png,BODY,5eb175cb50f4320854a67dcf,10/03/1954,2020-09-10_14h40.16.899,proactive3.1,2020.1.2,Win32,60,5f599a131af4471f3d752b7b,5f5a2c4ed979940876c7660a,3,,,,,,wheel,,,,,,,,,,,1,0,0,24,24,8,1,,,,,,,,,,,,,,,,,,,,,,,,,,,,,,,,,,,,,,,,,,,,,,,,,,,,,,,,,,,,,,,,,,,,,,,,,,,,,,,,,,,,,,,,,,,,,,,,,,,,,,,,
,,?,0.001755,0,,,,,,stimuli/images/PICTURE_314.png,SAKE,5eb175cb50f4320854a67dcf,10/03/1954,2020-09-10_14h40.16.899,proactive3.1,2020.1.2,Win32,60,5f599a131af4471f3d752b7b,5f5a2c4ed979940876c7660a,3,,,,,,perfume,,,,,,,,,,,1,0,0,25,25,7,1,,,,,,,,,,,,,,,,,,,,,,,,,,,,,,,,,,,,,,,,,,,,,,,,,,,,,,,,,,,,,,,,,,,,,,,,,,,,,,,,,,,,,,,,,,,,,,,,,,,,,,,,
,,DEMON,6.595445,1,,,,,,stimuli/images/PICTURE_467.png,DEMON,5eb175cb50f4320854a67dcf,10/03/1954,2020-09-10_14h40.16.899,proactive3.1,2020.1.2,Win32,60,5f599a131af4471f3d752b7b,5f5a2c4ed979940876c7660a,3,,,,,,peg,,,,,,,,,,,3,0,0,26,26,23,1,,,,,,,,,,,,,,,,,,,,,,,,,,,,,,,,,,,,,,,,,,,,,,,,,,,,,,,,,,,,,,,,,,,,,,,,,,,,,,,,,,,,,,,,,,,,,,,,,,,,,,,,
,,?,0.00288,0,,,,,,stimuli/images/PICTURE_308.png,KIND,5eb175cb50f4320854a67dcf,10/03/1954,2020-09-10_14h40.16.899,proactive3.1,2020.1.2,Win32,60,5f599a131af4471f3d752b7b,5f5a2c4ed979940876c7660a,3,,,,,,dice,,,,,,,,,,,6,0,0,27,27,54,1,,,,,,,,,,,,,,,,,,,,,,,,,,,,,,,,,,,,,,,,,,,,,,,,,,,,,,,,,,,,,,,,,,,,,,,,,,,,,,,,,,,,,,,,,,,,,,,,,,,,,,,,
,,?,0.00105,0,,,,,,stimuli/images/PICTURE_744.png,SYSTEM,5eb175cb50f4320854a67dcf,10/03/1954,2020-09-10_14h40.16.899,proactive3.1,2020.1.2,Win32,60,5f599a131af4471f3d752b7b,5f5a2c4ed979940876c7660a,3,,,,,,ring,,,,,,,,,,,5,0,0,28,28,43,1,,,,,,,,,,,,,,,,,,,,,,,,,,,,,,,,,,,,,,,,,,,,,,,,,,,,,,,,,,,,,,,,,,,,,,,,,,,,,,,,,,,,,,,,,,,,,,,,,,,,,,,,
,,?,0.001445,0,,,,,,stimuli/images/PICTURE_208.png,MONTH,5eb175cb50f4320854a67dcf,10/03/1954,2020-09-10_14h40.16.899,proactive3.1,2020.1.2,Win32,60,5f599a131af4471f3d752b7b,5f5a2c4ed979940876c7660a,3,,,,,,microphone,,,,,,,,,,,6,0,0,29,29,53,1,,,,,,,,,,,,,,,,,,,,,,,,,,,,,,,,,,,,,,,,,,,,,,,,,,,,,,,,,,,,,,,,,,,,,,,,,,,,,,,,,,,,,,,,,,,,,,,,,,,,,,,,
,,?,0.00192,0,,,,,,stimuli/images/PICTURE_380.png,PHOTO,5eb175cb50f4320854a67dcf,10/03/1954,2020-09-10_14h40.16.899,proactive3.1,2020.1.2,Win32,60,5f599a131af4471f3d752b7b,5f5a2c4ed979940876c7660a,3,,,,,,gorilla,,,,,,,,,,,6,0,0,30,30,52,1,,,,,,,,,,,,,,,,,,,,,,,,,,,,,,,,,,,,,,,,,,,,,,,,,,,,,,,,,,,,,,,,,,,,,,,,,,,,,,,,,,,,,,,,,,,,,,,,,,,,,,,,
,,YARD,4.08231,1,,,,,,stimuli/images/PICTURE_708.png,YARD,5eb175cb50f4320854a67dcf,10/03/1954,2020-09-10_14h40.16.899,proactive3.1,2020.1.2,Win32,60,5f599a131af4471f3d752b7b,5f5a2c4ed979940876c7660a,3,,,,,,monkey,,,,,,,,,,,3,0,0,31,31,29,1,,,,,,,,,,,,,,,,,,,,,,,,,,,,,,,,,,,,,,,,,,,,,,,,,,,,,,,,,,,,,,,,,,,,,,,,,,,,,,,,,,,,,,,,,,,,,,,,,,,,,,,,
,,?,0.002895,0,,,,,,stimuli/images/PICTURE_449.png,THING,5eb175cb50f4320854a67dcf,10/03/1954,2020-09-10_14h40.16.899,proactive3.1,2020.1.2,Win32,60,5f599a131af4471f3d752b7b,5f5a2c4ed979940876c7660a,3,,,,,,bench,,,,,,,,,,,6,0,0,32,32,59,1,,,,,,,,,,,,,,,,,,,,,,,,,,,,,,,,,,,,,,,,,,,,,,,,,,,,,,,,,,,,,,,,,,,,,,,,,,,,,,,,,,,,,,,,,,,,,,,,,,,,,,,,
,,?,0.000955,0,,,,,,stimuli/images/PICTURE_177.png,CARS,5eb175cb50f4320854a67dcf,10/03/1954,2020-09-10_14h40.16.899,proactive3.1,2020.1.2,Win32,60,5f599a131af4471f3d752b7b,5f5a2c4ed979940876c7660a,3,,,,,,mushroom,,,,,,,,,,,4,0,0,33,33,35,1,,,,,,,,,,,,,,,,,,,,,,,,,,,,,,,,,,,,,,,,,,,,,,,,,,,,,,,,,,,,,,,,,,,,,,,,,,,,,,,,,,,,,,,,,,,,,,,,,,,,,,,,
,,?,0.00097,0,,,,,,stimuli/images/PICTURE_302.png,FAMILY,5eb175cb50f4320854a67dcf,10/03/1954,2020-09-10_14h40.16.899,proactive3.1,2020.1.2,Win32,60,5f599a131af4471f3d752b7b,5f5a2c4ed979940876c7660a,3,,,,,,taxi,,,,,,,,,,,2,0,0,34,34,18,1,,,,,,,,,,,,,,,,,,,,,,,,,,,,,,,,,,,,,,,,,,,,,,,,,,,,,,,,,,,,,,,,,,,,,,,,,,,,,,,,,,,,,,,,,,,,,,,,,,,,,,,,
,,?,0.001595,0,,,,,,stimuli/images/PICTURE_356.png,DANGER,5eb175cb50f4320854a67dcf,10/03/1954,2020-09-10_14h40.16.899,proactive3.1,2020.1.2,Win32,60,5f599a131af4471f3d752b7b,5f5a2c4ed979940876c7660a,3,,,,,,pawn,,,,,,,,,,,6,0,0,35,35,55,1,,,,,,,,,,,,,,,,,,,,,,,,,,,,,,,,,,,,,,,,,,,,,,,,,,,,,,,,,,,,,,,,,,,,,,,,,,,,,,,,,,,,,,,,,,,,,,,,,,,,,,,,
,,ARTIST,8.421585,0,,,,,,stimuli/images/PICTURE_348.png,SPEECH,5eb175cb50f4320854a67dcf,10/03/1954,2020-09-10_14h40.16.899,proactive3.1,2020.1.2,Win32,60,5f599a131af4471f3d752b7b,5f5a2c4ed979940876c7660a,3,,,,,,pepper,,,,,,,,,,,3,0,0,36,36,20,1,,,,,,,,,,,,,,,,,,,,,,,,,,,,,,,,,,,,,,,,,,,,,,,,,,,,,,,,,,,,,,,,,,,,,,,,,,,,,,,,,,,,,,,,,,,,,,,,,,,,,,,,
,,?,0.000885,0,,,,,,stimuli/images/PICTURE_469.png,LETTER,5eb175cb50f4320854a67dcf,10/03/1954,2020-09-10_14h40.16.899,proactive3.1,2020.1.2,Win32,60,5f599a131af4471f3d752b7b,5f5a2c4ed979940876c7660a,3,,,,,,stool,,,,,,,,,,,5,0,0,37,37,42,1,,,,,,,,,,,,,,,,,,,,,,,,,,,,,,,,,,,,,,,,,,,,,,,,,,,,,,,,,,,,,,,,,,,,,,,,,,,,,,,,,,,,,,,,,,,,,,,,,,,,,,,,
,,?,0.00069,0,,,,,,stimuli/images/PICTURE_677.png,MILE,5eb175cb50f4320854a67dcf,10/03/1954,2020-09-10_14h40.16.899,proactive3.1,2020.1.2,Win32,60,5f599a131af4471f3d752b7b,5f5a2c4ed979940876c7660a,3,,,,,,map,,,,,,,,,,,4,0,0,38,38,30,1,,,,,,,,,,,,,,,,,,,,,,,,,,,,,,,,,,,,,,,,,,,,,,,,,,,,,,,,,,,,,,,,,,,,,,,,,,,,,,,,,,,,,,,,,,,,,,,,,,,,,,,,
,,ARTIST,3.32834,1,,,,,,stimuli/images/PICTURE_203.png,ARTIST,5eb175cb50f4320854a67dcf,10/03/1954,2020-09-10_14h40.16.899,proactive3.1,2020.1.2,Win32,60,5f599a131af4471f3d752b7b,5f5a2c4ed979940876c7660a,3,,,,,,cap,,,,,,,,,,,3,0,0,39,39,26,1,,,,,,,,,,,,,,,,,,,,,,,,,,,,,,,,,,,,,,,,,,,,,,,,,,,,,,,,,,,,,,,,,,,,,,,,,,,,,,,,,,,,,,,,,,,,,,,,,,,,,,,,
,,?,0.00225,0,,,,,,stimuli/images/PICTURE_123.png,ADVICE,5eb175cb50f4320854a67dcf,10/03/1954,2020-09-10_14h40.16.899,proactive3.1,2020.1.2,Win32,60,5f599a131af4471f3d752b7b,5f5a2c4ed979940876c7660a,3,,,,,,dart,,,,,,,,,,,6,0,0,40,40,50,1,,,,,,,,,,,,,,,,,,,,,,,,,,,,,,,,,,,,,,,,,,,,,,,,,,,,,,,,,,,,,,,,,,,,,,,,,,,,,,,,,,,,,,,,,,,,,,,,,,,,,,,,
,,?,10.380835,0,,,,,,stimuli/images/PICTURE_233.png,IDEAS,5eb175cb50f4320854a67dcf,10/03/1954,2020-09-10_14h40.16.899,proactive3.1,2020.1.2,Win32,60,5f599a131af4471f3d752b7b,5f5a2c4ed979940876c7660a,3,,,,,,salt,,,,,,,,,,,3,0,0,41,41,28,1,,,,,,,,,,,,,,,,,,,,,,,,,,,,,,,,,,,,,,,,,,,,,,,,,,,,,,,,,,,,,,,,,,,,,,,,,,,,,,,,,,,,,,,,,,,,,,,,,,,,,,,,
,,?,0.00069,0,,,,,,stimuli/images/PICTURE_667.png,PLENTY,5eb175cb50f4320854a67dcf,10/03/1954,2020-09-10_14h40.16.899,proactive3.1,2020.1.2,Win32,60,5f599a131af4471f3d752b7b,5f5a2c4ed979940876c7660a,3,,,,,,daisy,,,,,,,,,,,5,0,0,42,42,41,1,,,,,,,,,,,,,,,,,,,,,,,,,,,,,,,,,,,,,,,,,,,,,,,,,,,,,,,,,,,,,,,,,,,,,,,,,,,,,,,,,,,,,,,,,,,,,,,,,,,,,,,,
,,?,0.000435,0,,,,,,stimuli/images/PICTURE_487.png,FLIGHT,5eb175cb50f4320854a67dcf,10/03/1954,2020-09-10_14h40.16.899,proactive3.1,2020.1.2,Win32,60,5f599a131af4471f3d752b7b,5f5a2c4ed979940876c7660a,3,,,,,,basket,,,,,,,,,,,1,0,0,43,43,9,1,,,,,,,,,,,,,,,,,,,,,,,,,,,,,,,,,,,,,,,,,,,,,,,,,,,,,,,,,,,,,,,,,,,,,,,,,,,,,,,,,,,,,,,,,,,,,,,,,,,,,,,,
,,ROOF,2.946645,1,,,,,,stimuli/images/PICTURE_491.png,ROOF,5eb175cb50f4320854a67dcf,10/03/1954,2020-09-10_14h40.16.899,proactive3.1,2020.1.2,Win32,60,5f599a131af4471f3d752b7b,5f5a2c4ed979940876c7660a,3,,,,,,rug,,,,,,,,,,,3,0,0,44,44,24,1,,,,,,,,,,,,,,,,,,,,,,,,,,,,,,,,,,,,,,,,,,,,,,,,,,,,,,,,,,,,,,,,,,,,,,,,,,,,,,,,,,,,,,,,,,,,,,,,,,,,,,,,
,,?,0.00145,0,,,,,,stimuli/images/PICTURE_469.png,ARTIST,5eb175cb50f4320854a67dcf,10/03/1954,2020-09-10_14h40.16.899,proactive3.1,2020.1.2,Win32,60,5f599a131af4471f3d752b7b,5f5a2c4ed979940876c7660a,3,,,,,,stool,,,,,,,,,,,1,0,0,45,45,6,1,,,,,,,,,,,,,,,,,,,,,,,,,,,,,,,,,,,,,,,,,,,,,,,,,,,,,,,,,,,,,,,,,,,,,,,,,,,,,,,,,,,,,,,,,,,,,,,,,,,,,,,,
,,?,0.000965,0,,,,,,stimuli/images/PICTURE_308.png,ESTATE,5eb175cb50f4320854a67dcf,10/03/1954,2020-09-10_14h40.16.899,proactive3.1,2020.1.2,Win32,60,5f599a131af4471f3d752b7b,5f5a2c4ed979940876c7660a,3,,,,,,dice,,,,,,,,,,,5,0,0,46,46,46,1,,,,,,,,,,,,,,,,,,,,,,,,,,,,,,,,,,,,,,,,,,,,,,,,,,,,,,,,,,,,,,,,,,,,,,,,,,,,,,,,,,,,,,,,,,,,,,,,,,,,,,,,
,,?,0.00096,0,,,,,,stimuli/images/PICTURE_85.png,THING,5eb175cb50f4320854a67dcf,10/03/1954,2020-09-10_14h40.16.899,proactive3.1,2020.1.2,Win32,60,5f599a131af4471f3d752b7b,5f5a2c4ed979940876c7660a,3,,,,,,diamond,,,,,,,,,,,2,0,0,47,47,15,1,,,,,,,,,,,,,,,,,,,,,,,,,,,,,,,,,,,,,,,,,,,,,,,,,,,,,,,,,,,,,,,,,,,,,,,,,,,,,,,,,,,,,,,,,,,,,,,,,,,,,,,,
,,?,5.17704,0,,,,,,stimuli/images/PICTURE_453.png,DUDE,5eb175cb50f4320854a67dcf,10/03/1954,2020-09-10_14h40.16.899,proactive3.1,2020.1.2,Win32,60,5f599a131af4471f3d752b7b,5f5a2c4ed979940876c7660a,3,,,,,,scissors,,,,,,,,,,,3,0,0,48,48,27,1,,,,,,,,,,,,,,,,,,,,,,,,,,,,,,,,,,,,,,,,,,,,,,,,,,,,,,,,,,,,,,,,,,,,,,,,,,,,,,,,,,,,,,,,,,,,,,,,,,,,,,,,
,,?,0.001145,0,,,,,,stimuli/images/PICTURE_667.png,BATH,5eb175cb50f4320854a67dcf,10/03/1954,2020-09-10_14h40.16.899,proactive3.1,2020.1.2,Win32,60,5f599a131af4471f3d752b7b,5f5a2c4ed979940876c7660a,3,,,,,,daisy,,,,,,,,,,,1,0,0,49,49,4,1,,,,,,,,,,,,,,,,,,,,,,,,,,,,,,,,,,,,,,,,,,,,,,,,,,,,,,,,,,,,,,,,,,,,,,,,,,,,,,,,,,,,,,,,,,,,,,,,,,,,,,,,
,,?,0.000625,0,,,,,,stimuli/images/PICTURE_151.png,GIRL,5eb175cb50f4320854a67dcf,10/03/1954,2020-09-10_14h40.16.899,proactive3.1,2020.1.2,Win32,60,5f599a131af4471f3d752b7b,5f5a2c4ed979940876c7660a,3,,,,,,tray,,,,,,,,,,,2,0,0,50,50,19,1,,,,,,,,,,,,,,,,,,,,,,,,,,,,,,,,,,,,,,,,,,,,,,,,,,,,,,,,,,,,,,,,,,,,,,,,,,,,,,,,,,,,,,,,,,,,,,,,,,,,,,,,
,,?,0.00065,0,,,,,,stimuli/images/PICTURE_233.png,WOMEN,5eb175cb50f4320854a67dcf,10/03/1954,2020-09-10_14h40.16.899,proactive3.1,2020.1.2,Win32,60,5f599a131af4471f3d752b7b,5f5a2c4ed979940876c7660a,3,,,,,,salt,,,,,,,,,,,4,0,0,51,51,38,1,,,,,,,,,,,,,,,,,,,,,,,,,,,,,,,,,,,,,,,,,,,,,,,,,,,,,,,,,,,,,,,,,,,,,,,,,,,,,,,,,,,,,,,,,,,,,,,,,,,,,,,,
,,?,0.000635,0,,,,,,stimuli/images/PICTURE_744.png,SAKE,5eb175cb50f4320854a67dcf,10/03/1954,2020-09-10_14h40.16.899,proactive3.1,2020.1.2,Win32,60,5f599a131af4471f3d752b7b,5f5a2c4ed979940876c7660a,3,,,,,,ring,,,,,,,,,,,2,0,0,52,52,17,1,,,,,,,,,,,,,,,,,,,,,,,,,,,,,,,,,,,,,,,,,,,,,,,,,,,,,,,,,,,,,,,,,,,,,,,,,,,,,,,,,,,,,,,,,,,,,,,,,,,,,,,,
,,SPACE,7.09202,0,,,,,,stimuli/images/PICTURE_255.png,AREA,5eb175cb50f4320854a67dcf,10/03/1954,2020-09-10_14h40.16.899,proactive3.1,2020.1.2,Win32,60,5f599a131af4471f3d752b7b,5f5a2c4ed979940876c7660a,3,,,,,,shovel,,,,,,,,,,,3,0,0,53,53,22,1,,,,,,,,,,,,,,,,,,,,,,,,,,,,,,,,,,,,,,,,,,,,,,,,,,,,,,,,,,,,,,,,,,,,,,,,,,,,,,,,,,,,,,,,,,,,,,,,,,,,,,,,
,,?,0.001325,0,,,,,,stimuli/images/PICTURE_248.png,DOZEN,5eb175cb50f4320854a67dcf,10/03/1954,2020-09-10_14h40.16.899,proactive3.1,2020.1.2,Win32,60,5f599a131af4471f3d752b7b,5f5a2c4ed979940876c7660a,3,,,,,,cart,,,,,,,,,,,4,0,0,54,54,39,1,,,,,,,,,,,,,,,,,,,,,,,,,,,,,,,,,,,,,,,,,,,,,,,,,,,,,,,,,,,,,,,,,,,,,,,,,,,,,,,,,,,,,,,,,,,,,,,,,,,,,,,,
,,?,0.001105,0,,,,,,stimuli/images/PICTURE_208.png,THING,5eb175cb50f4320854a67dcf,10/03/1954,2020-09-10_14h40.16.899,proactive3.1,2020.1.2,Win32,60,5f599a131af4471f3d752b7b,5f5a2c4ed979940876c7660a,3,,,,,,microphone,,,,,,,,,,,5,0,0,55,55,47,1,,,,,,,,,,,,,,,,,,,,,,,,,,,,,,,,,,,,,,,,,,,,,,,,,,,,,,,,,,,,,,,,,,,,,,,,,,,,,,,,,,,,,,,,,,,,,,,,,,,,,,,,
,,?,0.00102,0,,,,,,stimuli/images/PICTURE_708.png,CLIENT,5eb175cb50f4320854a67dcf,10/03/1954,2020-09-10_14h40.16.899,proactive3.1,2020.1.2,Win32,60,5f599a131af4471f3d752b7b,5f5a2c4ed979940876c7660a,3,,,,,,monkey,,,,,,,,,,,1,0,0,56,56,5,1,,,,,,,,,,,,,,,,,,,,,,,,,,,,,,,,,,,,,,,,,,,,,,,,,,,,,,,,,,,,,,,,,,,,,,,,,,,,,,,,,,,,,,,,,,,,,,,,,,,,,,,,
,,?,0.00127,0,,,,,,stimuli/images/PICTURE_688.png,WOMEN,5eb175cb50f4320854a67dcf,10/03/1954,2020-09-10_14h40.16.899,proactive3.1,2020.1.2,Win32,60,5f599a131af4471f3d752b7b,5f5a2c4ed979940876c7660a,3,,,,,,runner,,,,,,,,,,,2,0,0,57,57,14,1,,,,,,,,,,,,,,,,,,,,,,,,,,,,,,,,,,,,,,,,,,,,,,,,,,,,,,,,,,,,,,,,,,,,,,,,,,,,,,,,,,,,,,,,,,,,,,,,,,,,,,,,
,,?,0.001065,0,,,,,,stimuli/images/PICTURE_208.png,LOTS,5eb175cb50f4320854a67dcf,10/03/1954,2020-09-10_14h40.16.899,proactive3.1,2020.1.2,Win32,60,5f599a131af4471f3d752b7b,5f5a2c4ed979940876c7660a,3,,,,,,microphone,,,,,,,,,,,2,0,0,58,58,10,1,,,,,,,,,,,,,,,,,,,,,,,,,,,,,,,,,,,,,,,,,,,,,,,,,,,,,,,,,,,,,,,,,,,,,,,,,,,,,,,,,,,,,,,,,,,,,,,,,,,,,,,,
,,?,0.00121,0,,,,,,stimuli/images/PICTURE_147.png,MOMENT,5eb175cb50f4320854a67dcf,10/03/1954,2020-09-10_14h40.16.899,proactive3.1,2020.1.2,Win32,60,5f599a131af4471f3d752b7b,5f5a2c4ed979940876c7660a,3,,,,,,hanger,,,,,,,,,,,6,0,0,59,59,51,1,,,,,,,,,,,,,,,,,,,,,,,,,,,,,,,,,,,,,,,,,,,,,,,,,,,,,,,,,,,,,,,,,,,,,,,,,,,,,,,,,,,,,,,,,,,,,,,,,,,,,,,,
,,,,,,,,,,,,5eb175cb50f4320854a67dcf,10/03/1954,2020-09-10_14h40.16.899,proactive3.1,2020.1.2,Win32,60,5f599a131af4471f3d752b7b,5f5a2c4ed979940876c7660a,3,,,,,,,,,,,,,,,,,,,,,,,,0,1,1,0,1,stimuli/learn-block1.csv,,,,,,,,,,,,,,,,,,,,,,,,,,,,,,,,,,,,,,,,,,,,,,,,,,,,,,,,,,,,,,,,,,,,,,,,,,,,,,,,,,,,,,,,,,,,,,,,,,
,,,,,,,,,,stimuli/images/PICTURE_491.png,SERIES,5eb175cb50f4320854a67dcf,10/03/1954,2020-09-10_14h40.16.899,proactive3.1,2020.1.2,Win32,60,5f599a131af4471f3d752b7b,5f5a2c4ed979940876c7660a,3,,,,,,rug,,,,,,0,0,0,39,1,4,2,,,,,,,,,,,,,,,,,,,,,,,,,,,,,,,,,,,,,,,,,,,,,,,,,,,,,,,,,,,,,,,,,,,,,,,,,,,,,,,,,,,,,,,,,,,,,,,,,,,,,,,,,,,,,
,,,,,,,,,,stimuli/images/PICTURE_2.png,JUNGLE,5eb175cb50f4320854a67dcf,10/03/1954,2020-09-10_14h40.16.899,proactive3.1,2020.1.2,Win32,60,5f599a131af4471f3d752b7b,5f5a2c4ed979940876c7660a,3,,,,,,tyre,,,,,,0,1,1,1,1,1,2,,,,,,,,,,,,,,,,,,,,,,,,,,,,,,,,,,,,,,,,,,,,,,,,,,,,,,,,,,,,,,,,,,,,,,,,,,,,,,,,,,,,,,,,,,,,,,,,,,,,,,,,,,,,,
,,,,,,,,,,stimuli/images/PICTURE_470.png,MOMENT,5eb175cb50f4320854a67dcf,10/03/1954,2020-09-10_14h40.16.899,proactive3.1,2020.1.2,Win32,60,5f599a131af4471f3d752b7b,5f5a2c4ed979940876c7660a,3,,,,,,motorbike,,,,,,0,2,2,40,1,5,2,,,,,,,,,,,,,,,,,,,,,,,,,,,,,,,,,,,,,,,,,,,,,,,,,,,,,,,,,,,,,,,,,,,,,,,,,,,,,,,,,,,,,,,,,,,,,,,,,,,,,,,,,,,,,
,,,,,,,,,,stimuli/images/PICTURE_654.png,COPS,5eb175cb50f4320854a67dcf,10/03/1954,2020-09-10_14h40.16.899,proactive3.1,2020.1.2,Win32,60,5f599a131af4471f3d752b7b,5f5a2c4ed979940876c7660a,3,,,,,,pencil,,,,,,0,3,3,10,1,2,2,,,,,,,,,,,,,,,,,,,,,,,,,,,,,,,,,,,,,,,,,,,,,,,,,,,,,,,,,,,,,,,,,,,,,,,,,,,,,,,,,,,,,,,,,,,,,,,,,,,,,,,,,,,,,
,,,,,,,,,,stimuli/images/PICTURE_348.png,TOILET,5eb175cb50f4320854a67dcf,10/03/1954,2020-09-10_14h40.16.899,proactive3.1,2020.1.2,Win32,60,5f599a131af4471f3d752b7b,5f5a2c4ed979940876c7660a,3,,,,,,pepper,,,,,,0,4,4,4,1,1,2,,,,,,,,,,,,,,,,,,,,,,,,,,,,,,,,,,,,,,,,,,,,,,,,,,,,,,,,,,,,,,,,,,,,,,,,,,,,,,,,,,,,,,,,,,,,,,,,,,,,,,,,,,,,,
,,,,,,,,,,stimuli/images/PICTURE_677.png,PHOTO,5eb175cb50f4320854a67dcf,10/03/1954,2020-09-10_14h40.16.899,proactive3.1,2020.1.2,Win32,60,5f599a131af4471f3d752b7b,5f5a2c4ed979940876c7660a,3,,,,,,map,,,,,,0,5,5,14,1,2,2,,,,,,,,,,,,,,,,,,,,,,,,,,,,,,,,,,,,,,,,,,,,,,,,,,,,,,,,,,,,,,,,,,,,,,,,,,,,,,,,,,,,,,,,,,,,,,,,,,,,,,,,,,,,,
,,,,,,,,,,stimuli/images/PICTURE_93.png,GIRL,5eb175cb50f4320854a67dcf,10/03/1954,2020-09-10_14h40.16.899,proactive3.1,2020.1.2,Win32,60,5f599a131af4471f3d752b7b,5f5a2c4ed979940876c7660a,3,,,,,,skateboard,,,,,,0,6,6,31,1,4,2,,,,,,,,,,,,,,,,,,,,,,,,,,,,,,,,,,,,,,,,,,,,,,,,,,,,,,,,,,,,,,,,,,,,,,,,,,,,,,,,,,,,,,,,,,,,,,,,,,,,,,,,,,,,,
,,,,,,,,,,stimuli/images/PICTURE_57.png,NATION,5eb175cb50f4320854a67dcf,10/03/1954,2020-09-10_14h40.16.899,proactive3.1,2020.1.2,Win32,60,5f599a131af4471f3d752b7b,5f5a2c4ed979940876c7660a,3,,,,,,stamp,,,,,,0,7,7,21,1,3,2,,,,,,,,,,,,,,,,,,,,,,,,,,,,,,,,,,,,,,,,,,,,,,,,,,,,,,,,,,,,,,,,,,,,,,,,,,,,,,,,,,,,,,,,,,,,,,,,,,,,,,,,,,,,,
,,,,,,,,,,stimuli/images/PICTURE_2.png,AREA,5eb175cb50f4320854a67dcf,10/03/1954,2020-09-10_14h40.16.899,proactive3.1,2020.1.2,Win32,60,5f599a131af4471f3d752b7b,5f5a2c4ed979940876c7660a,3,,,,,,tyre,,,,,,0,8,8,32,1,4,2,,,,,,,,,,,,,,,,,,,,,,,,,,,,,,,,,,,,,,,,,,,,,,,,,,,,,,,,,,,,,,,,,,,,,,,,,,,,,,,,,,,,,,,,,,,,,,,,,,,,,,,,,,,,,
,,,,,,,,,,stimuli/images/PICTURE_452.png,COPS,5eb175cb50f4320854a67dcf,10/03/1954,2020-09-10_14h40.16.899,proactive3.1,2020.1.2,Win32,60,5f599a131af4471f3d752b7b,5f5a2c4ed979940876c7660a,3,,,,,,watch,,,,,,0,9,9,0,1,1,2,,,,,,,,,,,,,,,,,,,,,,,,,,,,,,,,,,,,,,,,,,,,,,,,,,,,,,,,,,,,,,,,,,,,,,,,,,,,,,,,,,,,,,,,,,,,,,,,,,,,,,,,,,,,,
,,,,,,,,,,stimuli/images/PICTURE_255.png,PENNY,5eb175cb50f4320854a67dcf,10/03/1954,2020-09-10_14h40.16.899,proactive3.1,2020.1.2,Win32,60,5f599a131af4471f3d752b7b,5f5a2c4ed979940876c7660a,3,,,,,,shovel,,,,,,0,10,10,19,1,2,2,,,,,,,,,,,,,,,,,,,,,,,,,,,,,,,,,,,,,,,,,,,,,,,,,,,,,,,,,,,,,,,,,,,,,,,,,,,,,,,,,,,,,,,,,,,,,,,,,,,,,,,,,,,,,
,,,,,,,,,,stimuli/images/PICTURE_487.png,ROOF,5eb175cb50f4320854a67dcf,10/03/1954,2020-09-10_14h40.16.899,proactive3.1,2020.1.2,Win32,60,5f599a131af4471f3d752b7b,5f5a2c4ed979940876c7660a,3,,,,,,basket,,,,,,0,11,11,50,1,6,2,,,,,,,,,,,,,,,,,,,,,,,,,,,,,,,,,,,,,,,,,,,,,,,,,,,,,,,,,,,,,,,,,,,,,,,,,,,,,,,,,,,,,,,,,,,,,,,,,,,,,,,,,,,,,
,,,,,,,,,,stimuli/images/PICTURE_33.png,COPS,5eb175cb50f4320854a67dcf,10/03/1954,2020-09-10_14h40.16.899,proactive3.1,2020.1.2,Win32,60,5f599a131af4471f3d752b7b,5f5a2c4ed979940876c7660a,3,,,,,,frame,,,,,,0,12,12,29,1,3,2,,,,,,,,,,,,,,,,,,,,,,,,,,,,,,,,,,,,,,,,,,,,,,,,,,,,,,,,,,,,,,,,,,,,,,,,,,,,,,,,,,,,,,,,,,,,,,,,,,,,,,,,,,,,,
,,,,,,,,,,stimuli/images/PICTURE_296.png,CLOCK,5eb175cb50f4320854a67dcf,10/03/1954,2020-09-10_14h40.16.899,proactive3.1,2020.1.2,Win32,60,5f599a131af4471f3d752b7b,5f5a2c4ed979940876c7660a,3,,,,,,bolt,,,,,,0,13,13,18,1,2,2,,,,,,,,,,,,,,,,,,,,,,,,,,,,,,,,,,,,,,,,,,,,,,,,,,,,,,,,,,,,,,,,,,,,,,,,,,,,,,,,,,,,,,,,,,,,,,,,,,,,,,,,,,,,,
,,,,,,,,,,stimuli/images/PICTURE_57.png,CANDY,5eb175cb50f4320854a67dcf,10/03/1954,2020-09-10_14h40.16.899,proactive3.1,2020.1.2,Win32,60,5f599a131af4471f3d752b7b,5f5a2c4ed979940876c7660a,3,,,,,,stamp,,,,,,0,14,14,52,1,6,2,,,,,,,,,,,,,,,,,,,,,,,,,,,,,,,,,,,,,,,,,,,,,,,,,,,,,,,,,,,,,,,,,,,,,,,,,,,,,,,,,,,,,,,,,,,,,,,,,,,,,,,,,,,,,
,,,,,,,,,,stimuli/images/PICTURE_509.png,MILLER,5eb175cb50f4320854a67dcf,10/03/1954,2020-09-10_14h40.16.899,proactive3.1,2020.1.2,Win32,60,5f599a131af4471f3d752b7b,5f5a2c4ed979940876c7660a,3,,,,,,telephone,,,,,,0,15,15,49,1,5,2,,,,,,,,,,,,,,,,,,,,,,,,,,,,,,,,,,,,,,,,,,,,,,,,,,,,,,,,,,,,,,,,,,,,,,,,,,,,,,,,,,,,,,,,,,,,,,,,,,,,,,,,,,,,,
,,,,,,,,,,stimuli/images/PICTURE_147.png,LEADER,5eb175cb50f4320854a67dcf,10/03/1954,2020-09-10_14h40.16.899,proactive3.1,2020.1.2,Win32,60,5f599a131af4471f3d752b7b,5f5a2c4ed979940876c7660a,3,,,,,,hanger,,,,,,0,16,16,33,1,4,2,,,,,,,,,,,,,,,,,,,,,,,,,,,,,,,,,,,,,,,,,,,,,,,,,,,,,,,,,,,,,,,,,,,,,,,,,,,,,,,,,,,,,,,,,,,,,,,,,,,,,,,,,,,,,
,,,,,,,,,,stimuli/images/PICTURE_405.png,JUNGLE,5eb175cb50f4320854a67dcf,10/03/1954,2020-09-10_14h40.16.899,proactive3.1,2020.1.2,Win32,60,5f599a131af4471f3d752b7b,5f5a2c4ed979940876c7660a,3,,,,,,anchor,,,,,,0,17,17,13,1,2,2,,,,,,,,,,,,,,,,,,,,,,,,,,,,,,,,,,,,,,,,,,,,,,,,,,,,,,,,,,,,,,,,,,,,,,,,,,,,,,,,,,,,,,,,,,,,,,,,,,,,,,,,,,,,,
,,,,,,,,,,stimuli/images/PICTURE_208.png,SPIRIT,5eb175cb50f4320854a67dcf,10/03/1954,2020-09-10_14h40.16.899,proactive3.1,2020.1.2,Win32,60,5f599a131af4471f3d752b7b,5f5a2c4ed979940876c7660a,3,,,,,,microphone,,,,,,0,18,18,28,1,3,2,,,,,,,,,,,,,,,,,,,,,,,,,,,,,,,,,,,,,,,,,,,,,,,,,,,,,,,,,,,,,,,,,,,,,,,,,,,,,,,,,,,,,,,,,,,,,,,,,,,,,,,,,,,,,
,,,,,,,,,,stimuli/images/PICTURE_453.png,FAMILY,5eb175cb50f4320854a67dcf,10/03/1954,2020-09-10_14h40.16.899,proactive3.1,2020.1.2,Win32,60,5f599a131af4471f3d752b7b,5f5a2c4ed979940876c7660a,3,,,,,,scissors,,,,,,0,19,19,48,1,5,2,,,,,,,,,,,,,,,,,,,,,,,,,,,,,,,,,,,,,,,,,,,,,,,,,,,,,,,,,,,,,,,,,,,,,,,,,,,,,,,,,,,,,,,,,,,,,,,,,,,,,,,,,,,,,
,,,,,,,,,,stimuli/images/PICTURE_509.png,SHOTS,5eb175cb50f4320854a67dcf,10/03/1954,2020-09-10_14h40.16.899,proactive3.1,2020.1.2,Win32,60,5f599a131af4471f3d752b7b,5f5a2c4ed979940876c7660a,3,,,,,,telephone,,,,,,0,20,20,7,1,1,2,,,,,,,,,,,,,,,,,,,,,,,,,,,,,,,,,,,,,,,,,,,,,,,,,,,,,,,,,,,,,,,,,,,,,,,,,,,,,,,,,,,,,,,,,,,,,,,,,,,,,,,,,,,,,
,,,,,,,,,,stimuli/images/PICTURE_403.png,FAMILY,5eb175cb50f4320854a67dcf,10/03/1954,2020-09-10_14h40.16.899,proactive3.1,2020.1.2,Win32,60,5f599a131af4471f3d752b7b,5f5a2c4ed979940876c7660a,3,,,,,,cathedral,,,,,,0,21,21,9,1,1,2,,,,,,,,,,,,,,,,,,,,,,,,,,,,,,,,,,,,,,,,,,,,,,,,,,,,,,,,,,,,,,,,,,,,,,,,,,,,,,,,,,,,,,,,,,,,,,,,,,,,,,,,,,,,,
,,,,,,,,,,stimuli/images/PICTURE_655.png,SALE,5eb175cb50f4320854a67dcf,10/03/1954,2020-09-10_14h40.16.899,proactive3.1,2020.1.2,Win32,60,5f599a131af4471f3d752b7b,5f5a2c4ed979940876c7660a,3,,,,,,megaphone,,,,,,0,22,22,57,1,6,2,,,,,,,,,,,,,,,,,,,,,,,,,,,,,,,,,,,,,,,,,,,,,,,,,,,,,,,,,,,,,,,,,,,,,,,,,,,,,,,,,,,,,,,,,,,,,,,,,,,,,,,,,,,,,
,,,,,,,,,,stimuli/images/PICTURE_667.png,GLASS,5eb175cb50f4320854a67dcf,10/03/1954,2020-09-10_14h40.16.899,proactive3.1,2020.1.2,Win32,60,5f599a131af4471f3d752b7b,5f5a2c4ed979940876c7660a,3,,,,,,daisy,,,,,,0,23,23,27,1,3,2,,,,,,,,,,,,,,,,,,,,,,,,,,,,,,,,,,,,,,,,,,,,,,,,,,,,,,,,,,,,,,,,,,,,,,,,,,,,,,,,,,,,,,,,,,,,,,,,,,,,,,,,,,,,,
,,,,,,,,,,stimuli/images/PICTURE_95.png,NIGHT,5eb175cb50f4320854a67dcf,10/03/1954,2020-09-10_14h40.16.899,proactive3.1,2020.1.2,Win32,60,5f599a131af4471f3d752b7b,5f5a2c4ed979940876c7660a,3,,,,,,suitcase,,,,,,0,24,24,37,1,4,2,,,,,,,,,,,,,,,,,,,,,,,,,,,,,,,,,,,,,,,,,,,,,,,,,,,,,,,,,,,,,,,,,,,,,,,,,,,,,,,,,,,,,,,,,,,,,,,,,,,,,,,,,,,,,
,,,,,,,,,,stimuli/images/PICTURE_297.png,BODY,5eb175cb50f4320854a67dcf,10/03/1954,2020-09-10_14h40.16.899,proactive3.1,2020.1.2,Win32,60,5f599a131af4471f3d752b7b,5f5a2c4ed979940876c7660a,3,,,,,,aeroplane,,,,,,0,25,25,51,1,6,2,,,,,,,,,,,,,,,,,,,,,,,,,,,,,,,,,,,,,,,,,,,,,,,,,,,,,,,,,,,,,,,,,,,,,,,,,,,,,,,,,,,,,,,,,,,,,,,,,,,,,,,,,,,,,
,,,,,,,,,,stimuli/images/PICTURE_356.png,CANDY,5eb175cb50f4320854a67dcf,10/03/1954,2020-09-10_14h40.16.899,proactive3.1,2020.1.2,Win32,60,5f599a131af4471f3d752b7b,5f5a2c4ed979940876c7660a,3,,,,,,pawn,,,,,,0,26,26,46,1,5,2,,,,,,,,,,,,,,,,,,,,,,,,,,,,,,,,,,,,,,,,,,,,,,,,,,,,,,,,,,,,,,,,,,,,,,,,,,,,,,,,,,,,,,,,,,,,,,,,,,,,,,,,,,,,,
,,,,,,,,,,stimuli/images/PICTURE_504.png,HOUSE,5eb175cb50f4320854a67dcf,10/03/1954,2020-09-10_14h40.16.899,proactive3.1,2020.1.2,Win32,60,5f599a131af4471f3d752b7b,5f5a2c4ed979940876c7660a,3,,,,,,wheel,,,,,,0,27,27,36,1,4,2,,,,,,,,,,,,,,,,,,,,,,,,,,,,,,,,,,,,,,,,,,,,,,,,,,,,,,,,,,,,,,,,,,,,,,,,,,,,,,,,,,,,,,,,,,,,,,,,,,,,,,,,,,,,,
,,,,,,,,,,stimuli/images/PICTURE_141.png,CLIENT,5eb175cb50f4320854a67dcf,10/03/1954,2020-09-10_14h40.16.899,proactive3.1,2020.1.2,Win32,60,5f599a131af4471f3d752b7b,5f5a2c4ed979940876c7660a,3,,,,,,sunflower,,,,,,0,28,28,30,1,4,2,,,,,,,,,,,,,,,,,,,,,,,,,,,,,,,,,,,,,,,,,,,,,,,,,,,,,,,,,,,,,,,,,,,,,,,,,,,,,,,,,,,,,,,,,,,,,,,,,,,,,,,,,,,,,
,,,,,,,,,,stimuli/images/PICTURE_215.png,FOOD,5eb175cb50f4320854a67dcf,10/03/1954,2020-09-10_14h40.16.899,proactive3.1,2020.1.2,Win32,60,5f599a131af4471f3d752b7b,5f5a2c4ed979940876c7660a,3,,,,,,boot,,,,,,0,29,29,5,1,1,2,,,,,,,,,,,,,,,,,,,,,,,,,,,,,,,,,,,,,,,,,,,,,,,,,,,,,,,,,,,,,,,,,,,,,,,,,,,,,,,,,,,,,,,,,,,,,,,,,,,,,,,,,,,,,
,,,,,,,,,,stimuli/images/PICTURE_314.png,SPEECH,5eb175cb50f4320854a67dcf,10/03/1954,2020-09-10_14h40.16.899,proactive3.1,2020.1.2,Win32,60,5f599a131af4471f3d752b7b,5f5a2c4ed979940876c7660a,3,,,,,,perfume,,,,,,0,30,30,35,1,4,2,,,,,,,,,,,,,,,,,,,,,,,,,,,,,,,,,,,,,,,,,,,,,,,,,,,,,,,,,,,,,,,,,,,,,,,,,,,,,,,,,,,,,,,,,,,,,,,,,,,,,,,,,,,,,
,,,,,,,,,,stimuli/images/PICTURE_509.png,BATH,5eb175cb50f4320854a67dcf,10/03/1954,2020-09-10_14h40.16.899,proactive3.1,2020.1.2,Win32,60,5f599a131af4471f3d752b7b,5f5a2c4ed979940876c7660a,3,,,,,,telephone,,,,,,0,31,31,15,1,2,2,,,,,,,,,,,,,,,,,,,,,,,,,,,,,,,,,,,,,,,,,,,,,,,,,,,,,,,,,,,,,,,,,,,,,,,,,,,,,,,,,,,,,,,,,,,,,,,,,,,,,,,,,,,,,
,,,,,,,,,,stimuli/images/PICTURE_285.png,WRITER,5eb175cb50f4320854a67dcf,10/03/1954,2020-09-10_14h40.16.899,proactive3.1,2020.1.2,Win32,60,5f599a131af4471f3d752b7b,5f5a2c4ed979940876c7660a,3,,,,,,carrot,,,,,,0,32,32,6,1,1,2,,,,,,,,,,,,,,,,,,,,,,,,,,,,,,,,,,,,,,,,,,,,,,,,,,,,,,,,,,,,,,,,,,,,,,,,,,,,,,,,,,,,,,,,,,,,,,,,,,,,,,,,,,,,,
,,,,,,,,,,stimuli/images/PICTURE_32.png,LETTER,5eb175cb50f4320854a67dcf,10/03/1954,2020-09-10_14h40.16.899,proactive3.1,2020.1.2,Win32,60,5f599a131af4471f3d752b7b,5f5a2c4ed979940876c7660a,3,,,,,,crown,,,,,,0,33,33,56,1,6,2,,,,,,,,,,,,,,,,,,,,,,,,,,,,,,,,,,,,,,,,,,,,,,,,,,,,,,,,,,,,,,,,,,,,,,,,,,,,,,,,,,,,,,,,,,,,,,,,,,,,,,,,,,,,,
,,,,,,,,,,stimuli/images/PICTURE_509.png,APPLE,5eb175cb50f4320854a67dcf,10/03/1954,2020-09-10_14h40.16.899,proactive3.1,2020.1.2,Win32,60,5f599a131af4471f3d752b7b,5f5a2c4ed979940876c7660a,3,,,,,,telephone,,,,,,0,34,34,38,1,4,2,,,,,,,,,,,,,,,,,,,,,,,,,,,,,,,,,,,,,,,,,,,,,,,,,,,,,,,,,,,,,,,,,,,,,,,,,,,,,,,,,,,,,,,,,,,,,,,,,,,,,,,,,,,,,
,,,,,,,,,,stimuli/images/PICTURE_123.png,SALE,5eb175cb50f4320854a67dcf,10/03/1954,2020-09-10_14h40.16.899,proactive3.1,2020.1.2,Win32,60,5f599a131af4471f3d752b7b,5f5a2c4ed979940876c7660a,3,,,,,,dart,,,,,,0,35,35,8,1,1,2,,,,,,,,,,,,,,,,,,,,,,,,,,,,,,,,,,,,,,,,,,,,,,,,,,,,,,,,,,,,,,,,,,,,,,,,,,,,,,,,,,,,,,,,,,,,,,,,,,,,,,,,,,,,,
,,,,,,,,,,stimuli/images/PICTURE_750.png,POLICY,5eb175cb50f4320854a67dcf,10/03/1954,2020-09-10_14h40.16.899,proactive3.1,2020.1.2,Win32,60,5f599a131af4471f3d752b7b,5f5a2c4ed979940876c7660a,3,,,,,,kettle,,,,,,0,36,36,44,1,5,2,,,,,,,,,,,,,,,,,,,,,,,,,,,,,,,,,,,,,,,,,,,,,,,,,,,,,,,,,,,,,,,,,,,,,,,,,,,,,,,,,,,,,,,,,,,,,,,,,,,,,,,,,,,,,
,,,,,,,,,,stimuli/images/PICTURE_654.png,YEAR,5eb175cb50f4320854a67dcf,10/03/1954,2020-09-10_14h40.16.899,proactive3.1,2020.1.2,Win32,60,5f599a131af4471f3d752b7b,5f5a2c4ed979940876c7660a,3,,,,,,pencil,,,,,,0,37,37,41,1,5,2,,,,,,,,,,,,,,,,,,,,,,,,,,,,,,,,,,,,,,,,,,,,,,,,,,,,,,,,,,,,,,,,,,,,,,,,,,,,,,,,,,,,,,,,,,,,,,,,,,,,,,,,,,,,,
,,,,,,,,,,stimuli/images/PICTURE_18.png,RIVER,5eb175cb50f4320854a67dcf,10/03/1954,2020-09-10_14h40.16.899,proactive3.1,2020.1.2,Win32,60,5f599a131af4471f3d752b7b,5f5a2c4ed979940876c7660a,3,,,,,,planet,,,,,,0,38,38,22,1,3,2,,,,,,,,,,,,,,,,,,,,,,,,,,,,,,,,,,,,,,,,,,,,,,,,,,,,,,,,,,,,,,,,,,,,,,,,,,,,,,,,,,,,,,,,,,,,,,,,,,,,,,,,,,,,,
