consent_key.keys,consent_key.rt,recalled,recalled_rt,recall_acc,example_recall.thisRepN,example_recall.thisTrialN,example_recall.thisN,example_recall.thisIndex,example_recall.ran,file,word,participant,please enter your date of birth (dd/mm/yyyy),date,expName,psychopyVersion,OS,frameRate,STUDY_ID,SESSION_ID,list,prac_learn_study_loop.thisRepN,prac_learn_study_loop.thisTrialN,prac_learn_study_loop.thisN,prac_learn_study_loop.thisIndex,prac_learn_study_loop.ran,image,prac_learn_test_loop.thisRepN,prac_learn_test_loop.thisTrialN,prac_learn_test_loop.thisN,prac_learn_test_loop.thisIndex,prac_learn_test_loop.ran,learn_study_loop.thisRepN,learn_study_loop.thisTrialN,learn_study_loop.thisN,learn_study_loop.thisIndex,learn_study_loop.ran,list_no,block_no,learn_test_loop.thisRepN,learn_test_loop.thisTrialN,learn_test_loop.thisN,learn_test_loop.thisIndex,learn_test_loop.ran,learn_blocks.thisRepN,learn_blocks.thisTrialN,learn_blocks.thisN,learn_blocks.thisIndex,learn_blocks.ran,block_csv,key_resp_13.keys,key_resp_13.rt,learn_blocks_loop.thisRepN,learn_blocks_loop.thisTrialN,learn_blocks_loop.thisN,learn_blocks_loop.thisIndex,learn_blocks_loop.ran,final_learn_test.thisRepN,final_learn_test.thisTrialN,final_learn_test.thisN,final_learn_test.thisIndex,final_learn_test.ran,s_im1,s_im2,s_im3,s_im4,s_im5,s_im6,s_im7,s_im8,s_im1pos,s_im2pos,s_im3pos,s_im4pos,s_im5pos,s_im6pos,s_im7pos,s_im8pos,s_tarright,search_resp.keys,search_loop.thisRepN,search_loop.thisTrialN,search_loop.thisN,search_loop.thisIndex,search_loop.ran,search_resp.rt,prac_wm_search_loop.thisRepN,prac_wm_search_loop.thisTrialN,prac_wm_search_loop.thisN,prac_wm_search_loop.thisIndex,prac_wm_search_loop.ran,prac_wm_test_loop.thisRepN,prac_wm_test_loop.thisTrialN,prac_wm_test_loop.thisN,prac_wm_test_loop.thisIndex,prac_wm_test_loop.ran,wm_recalled1,wm_recall_rt1,wm_probed1,wm_recall_acc1,wm_recalled2,wm_recall_rt2,wm_probed2,wm_recall_acc2,wm_recalled3,wm_recall_rt3,wm_probed3,wm_recall_acc3,wm_recalled4,wm_recall_rt4,wm_probed4,wm_recall_acc4,prac_wm_trial_loop.thisRepN,prac_wm_trial_loop.thisTrialN,prac_wm_trial_loop.thisN,prac_wm_trial_loop.thisIndex,prac_wm_trial_loop.ran,word1,image1,file1,item_type1,word2,image2,file2,item_type2,word4,image4,file4,item_type4,word3,image3,file3,item_type3,wm_search_loop.thisRepN,wm_search_loop.thisTrialN,wm_search_loop.thisN,wm_search_loop.thisIndex,wm_search_loop.ran,wm_test_loop.thisRepN,wm_test_loop.thisTrialN,wm_test_loop.thisN,wm_test_loop.thisIndex,wm_test_loop.ran,wm_trial_loop.thisRepN,wm_trial_loop.thisTrialN,wm_trial_loop.thisN,wm_trial_loop.thisIndex,wm_trial_loop.ran
y,9.85208,?,7.024385,0,0,0,0,0,1,stimuli/images/PICTURE_747.png,TOUGH,5ed8220554fe0533e3c394fd,19/03/2002,2020-09-02_12h27.45.460,proactive3.1,2020.1.2,Win32,60,5f47c29a48bd2a1e651a6eb7,5f4f8188bb2be403f872281d,1,,,,,,,,,,,,,,,,,,,,,,,,,,,,,,,,,,,,,,,,,,,,,,,,,,,,,,,,,,,,,,,,,,,,,,,,,,,,,,,,,,,,,,,,,,,,,,,,,,,,,,,,,,,,,,,,,,,,,,,,,,,,,,,
,,,,,,,,,,stimuli/images/PICTURE_727.png,CELL,5ed8220554fe0533e3c394fd,19/03/2002,2020-09-02_12h27.45.460,proactive3.1,2020.1.2,Win32,60,5f47c29a48bd2a1e651a6eb7,5f4f8188bb2be403f872281d,1,0,0,0,1,1,hose,,,,,,,,,,,,,,,,,,,,,,,,,,,,,,,,,,,,,,,,,,,,,,,,,,,,,,,,,,,,,,,,,,,,,,,,,,,,,,,,,,,,,,,,,,,,,,,,,,,,,,,,,,,,,,,,,,,,,,,,,
,,,,,,,,,,stimuli/images/PICTURE_378.png,LOSS,5ed8220554fe0533e3c394fd,19/03/2002,2020-09-02_12h27.45.460,proactive3.1,2020.1.2,Win32,60,5f47c29a48bd2a1e651a6eb7,5f4f8188bb2be403f872281d,1,0,1,1,2,1,lobster,,,,,,,,,,,,,,,,,,,,,,,,,,,,,,,,,,,,,,,,,,,,,,,,,,,,,,,,,,,,,,,,,,,,,,,,,,,,,,,,,,,,,,,,,,,,,,,,,,,,,,,,,,,,,,,,,,,,,,,,,
,,,,,,,,,,stimuli/images/PICTURE_658.png,DEVIL,5ed8220554fe0533e3c394fd,19/03/2002,2020-09-02_12h27.45.460,proactive3.1,2020.1.2,Win32,60,5f47c29a48bd2a1e651a6eb7,5f4f8188bb2be403f872281d,1,0,2,2,3,1,crow,,,,,,,,,,,,,,,,,,,,,,,,,,,,,,,,,,,,,,,,,,,,,,,,,,,,,,,,,,,,,,,,,,,,,,,,,,,,,,,,,,,,,,,,,,,,,,,,,,,,,,,,,,,,,,,,,,,,,,,,,
,,,,,,,,,,stimuli/images/PICTURE_269.png,GENIUS,5ed8220554fe0533e3c394fd,19/03/2002,2020-09-02_12h27.45.460,proactive3.1,2020.1.2,Win32,60,5f47c29a48bd2a1e651a6eb7,5f4f8188bb2be403f872281d,1,0,3,3,0,1,chameleon,,,,,,,,,,,,,,,,,,,,,,,,,,,,,,,,,,,,,,,,,,,,,,,,,,,,,,,,,,,,,,,,,,,,,,,,,,,,,,,,,,,,,,,,,,,,,,,,,,,,,,,,,,,,,,,,,,,,,,,,,
,,KILLER,3.46385,1,,,,,,stimuli/images/PICTURE_697.png,KILLER,5ed8220554fe0533e3c394fd,19/03/2002,2020-09-02_12h27.45.460,proactive3.1,2020.1.2,Win32,60,5f47c29a48bd2a1e651a6eb7,5f4f8188bb2be403f872281d,1,,,,,,peach,0,0,0,4,1,,,,,,,,,,,,,,,,,,,,,,,,,,,,,,,,,,,,,,,,,,,,,,,,,,,,,,,,,,,,,,,,,,,,,,,,,,,,,,,,,,,,,,,,,,,,,,,,,,,,,,,,,,,,,,,,,,,,
,,GENIUS,4.132565,1,,,,,,stimuli/images/PICTURE_269.png,GENIUS,5ed8220554fe0533e3c394fd,19/03/2002,2020-09-02_12h27.45.460,proactive3.1,2020.1.2,Win32,60,5f47c29a48bd2a1e651a6eb7,5f4f8188bb2be403f872281d,1,,,,,,chameleon,0,1,1,0,1,,,,,,,,,,,,,,,,,,,,,,,,,,,,,,,,,,,,,,,,,,,,,,,,,,,,,,,,,,,,,,,,,,,,,,,,,,,,,,,,,,,,,,,,,,,,,,,,,,,,,,,,,,,,,,,,,,,,
,,DEVIL,2.132755,1,,,,,,stimuli/images/PICTURE_658.png,DEVIL,5ed8220554fe0533e3c394fd,19/03/2002,2020-09-02_12h27.45.460,proactive3.1,2020.1.2,Win32,60,5f47c29a48bd2a1e651a6eb7,5f4f8188bb2be403f872281d,1,,,,,,crow,0,2,2,3,1,,,,,,,,,,,,,,,,,,,,,,,,,,,,,,,,,,,,,,,,,,,,,,,,,,,,,,,,,,,,,,,,,,,,,,,,,,,,,,,,,,,,,,,,,,,,,,,,,,,,,,,,,,,,,,,,,,,,
,,LOSS,3.916435,1,,,,,,stimuli/images/PICTURE_378.png,LOSS,5ed8220554fe0533e3c394fd,19/03/2002,2020-09-02_12h27.45.460,proactive3.1,2020.1.2,Win32,60,5f47c29a48bd2a1e651a6eb7,5f4f8188bb2be403f872281d,1,,,,,,lobster,0,3,3,2,1,,,,,,,,,,,,,,,,,,,,,,,,,,,,,,,,,,,,,,,,,,,,,,,,,,,,,,,,,,,,,,,,,,,,,,,,,,,,,,,,,,,,,,,,,,,,,,,,,,,,,,,,,,,,,,,,,,,,
,,CELL,1.366115,1,,,,,,stimuli/images/PICTURE_727.png,CELL,5ed8220554fe0533e3c394fd,19/03/2002,2020-09-02_12h27.45.460,proactive3.1,2020.1.2,Win32,60,5f47c29a48bd2a1e651a6eb7,5f4f8188bb2be403f872281d,1,,,,,,hose,0,4,4,1,1,,,,,,,,,,,,,,,,,,,,,,,,,,,,,,,,,,,,,,,,,,,,,,,,,,,,,,,,,,,,,,,,,,,,,,,,,,,,,,,,,,,,,,,,,,,,,,,,,,,,,,,,,,,,,,,,,,,,
,,,,,,,,,,stimuli/images/PICTURE_453.png,PLENTY,5ed8220554fe0533e3c394fd,19/03/2002,2020-09-02_12h27.45.460,proactive3.1,2020.1.2,Win32,60,5f47c29a48bd2a1e651a6eb7,5f4f8188bb2be403f872281d,1,,,,,,scissors,,,,,,0,0,0,56,1,6,0,,,,,,,,,,,,,,,,,,,,,,,,,,,,,,,,,,,,,,,,,,,,,,,,,,,,,,,,,,,,,,,,,,,,,,,,,,,,,,,,,,,,,,,,,,,,,,,,,,,,,,,,,,,,,
,,,,,,,,,,stimuli/images/PICTURE_708.png,PENNY,5ed8220554fe0533e3c394fd,19/03/2002,2020-09-02_12h27.45.460,proactive3.1,2020.1.2,Win32,60,5f47c29a48bd2a1e651a6eb7,5f4f8188bb2be403f872281d,1,,,,,,monkey,,,,,,0,1,1,31,1,4,0,,,,,,,,,,,,,,,,,,,,,,,,,,,,,,,,,,,,,,,,,,,,,,,,,,,,,,,,,,,,,,,,,,,,,,,,,,,,,,,,,,,,,,,,,,,,,,,,,,,,,,,,,,,,,
,,,,,,,,,,stimuli/images/PICTURE_177.png,CARS,5ed8220554fe0533e3c394fd,19/03/2002,2020-09-02_12h27.45.460,proactive3.1,2020.1.2,Win32,60,5f47c29a48bd2a1e651a6eb7,5f4f8188bb2be403f872281d,1,,,,,,mushroom,,,,,,0,2,2,35,1,4,0,,,,,,,,,,,,,,,,,,,,,,,,,,,,,,,,,,,,,,,,,,,,,,,,,,,,,,,,,,,,,,,,,,,,,,,,,,,,,,,,,,,,,,,,,,,,,,,,,,,,,,,,,,,,,
,,,,,,,,,,stimuli/images/PICTURE_285.png,ADVICE,5ed8220554fe0533e3c394fd,19/03/2002,2020-09-02_12h27.45.460,proactive3.1,2020.1.2,Win32,60,5f47c29a48bd2a1e651a6eb7,5f4f8188bb2be403f872281d,1,,,,,,carrot,,,,,,0,3,3,12,1,2,0,,,,,,,,,,,,,,,,,,,,,,,,,,,,,,,,,,,,,,,,,,,,,,,,,,,,,,,,,,,,,,,,,,,,,,,,,,,,,,,,,,,,,,,,,,,,,,,,,,,,,,,,,,,,,
,,,,,,,,,,stimuli/images/PICTURE_327.png,BEAUTY,5ed8220554fe0533e3c394fd,19/03/2002,2020-09-02_12h27.45.460,proactive3.1,2020.1.2,Win32,60,5f47c29a48bd2a1e651a6eb7,5f4f8188bb2be403f872281d,1,,,,,,helmet,,,,,,0,4,4,48,1,5,0,,,,,,,,,,,,,,,,,,,,,,,,,,,,,,,,,,,,,,,,,,,,,,,,,,,,,,,,,,,,,,,,,,,,,,,,,,,,,,,,,,,,,,,,,,,,,,,,,,,,,,,,,,,,,
,,,,,,,,,,stimuli/images/PICTURE_488.png,STYLE,5ed8220554fe0533e3c394fd,19/03/2002,2020-09-02_12h27.45.460,proactive3.1,2020.1.2,Win32,60,5f47c29a48bd2a1e651a6eb7,5f4f8188bb2be403f872281d,1,,,,,,sun,,,,,,0,5,5,33,1,4,0,,,,,,,,,,,,,,,,,,,,,,,,,,,,,,,,,,,,,,,,,,,,,,,,,,,,,,,,,,,,,,,,,,,,,,,,,,,,,,,,,,,,,,,,,,,,,,,,,,,,,,,,,,,,,
,,,,,,,,,,stimuli/images/PICTURE_314.png,GODS,5ed8220554fe0533e3c394fd,19/03/2002,2020-09-02_12h27.45.460,proactive3.1,2020.1.2,Win32,60,5f47c29a48bd2a1e651a6eb7,5f4f8188bb2be403f872281d,1,,,,,,perfume,,,,,,0,6,6,11,1,2,0,,,,,,,,,,,,,,,,,,,,,,,,,,,,,,,,,,,,,,,,,,,,,,,,,,,,,,,,,,,,,,,,,,,,,,,,,,,,,,,,,,,,,,,,,,,,,,,,,,,,,,,,,,,,,
,,,,,,,,,,stimuli/images/PICTURE_744.png,SYSTEM,5ed8220554fe0533e3c394fd,19/03/2002,2020-09-02_12h27.45.460,proactive3.1,2020.1.2,Win32,60,5f47c29a48bd2a1e651a6eb7,5f4f8188bb2be403f872281d,1,,,,,,ring,,,,,,0,7,7,43,1,5,0,,,,,,,,,,,,,,,,,,,,,,,,,,,,,,,,,,,,,,,,,,,,,,,,,,,,,,,,,,,,,,,,,,,,,,,,,,,,,,,,,,,,,,,,,,,,,,,,,,,,,,,,,,,,,
,,,,,,,,,,stimuli/images/PICTURE_314.png,SAKE,5ed8220554fe0533e3c394fd,19/03/2002,2020-09-02_12h27.45.460,proactive3.1,2020.1.2,Win32,60,5f47c29a48bd2a1e651a6eb7,5f4f8188bb2be403f872281d,1,,,,,,perfume,,,,,,0,8,8,7,1,1,0,,,,,,,,,,,,,,,,,,,,,,,,,,,,,,,,,,,,,,,,,,,,,,,,,,,,,,,,,,,,,,,,,,,,,,,,,,,,,,,,,,,,,,,,,,,,,,,,,,,,,,,,,,,,,
,,,,,,,,,,stimuli/images/PICTURE_208.png,THING,5ed8220554fe0533e3c394fd,19/03/2002,2020-09-02_12h27.45.460,proactive3.1,2020.1.2,Win32,60,5f47c29a48bd2a1e651a6eb7,5f4f8188bb2be403f872281d,1,,,,,,microphone,,,,,,0,9,9,47,1,5,0,,,,,,,,,,,,,,,,,,,,,,,,,,,,,,,,,,,,,,,,,,,,,,,,,,,,,,,,,,,,,,,,,,,,,,,,,,,,,,,,,,,,,,,,,,,,,,,,,,,,,,,,,,,,,
,,,,,,,,,,stimuli/images/PICTURE_203.png,ARTIST,5ed8220554fe0533e3c394fd,19/03/2002,2020-09-02_12h27.45.460,proactive3.1,2020.1.2,Win32,60,5f47c29a48bd2a1e651a6eb7,5f4f8188bb2be403f872281d,1,,,,,,cap,,,,,,0,10,10,26,1,3,0,,,,,,,,,,,,,,,,,,,,,,,,,,,,,,,,,,,,,,,,,,,,,,,,,,,,,,,,,,,,,,,,,,,,,,,,,,,,,,,,,,,,,,,,,,,,,,,,,,,,,,,,,,,,,
,,,,,,,,,,stimuli/images/PICTURE_123.png,ADVICE,5ed8220554fe0533e3c394fd,19/03/2002,2020-09-02_12h27.45.460,proactive3.1,2020.1.2,Win32,60,5f47c29a48bd2a1e651a6eb7,5f4f8188bb2be403f872281d,1,,,,,,dart,,,,,,0,11,11,50,1,6,0,,,,,,,,,,,,,,,,,,,,,,,,,,,,,,,,,,,,,,,,,,,,,,,,,,,,,,,,,,,,,,,,,,,,,,,,,,,,,,,,,,,,,,,,,,,,,,,,,,,,,,,,,,,,,
,,,,,,,,,,stimuli/images/PICTURE_380.png,DEATH,5ed8220554fe0533e3c394fd,19/03/2002,2020-09-02_12h27.45.460,proactive3.1,2020.1.2,Win32,60,5f47c29a48bd2a1e651a6eb7,5f4f8188bb2be403f872281d,1,,,,,,gorilla,,,,,,0,12,12,49,1,5,0,,,,,,,,,,,,,,,,,,,,,,,,,,,,,,,,,,,,,,,,,,,,,,,,,,,,,,,,,,,,,,,,,,,,,,,,,,,,,,,,,,,,,,,,,,,,,,,,,,,,,,,,,,,,,
,,,,,,,,,,stimuli/images/PICTURE_449.png,THING,5ed8220554fe0533e3c394fd,19/03/2002,2020-09-02_12h27.45.460,proactive3.1,2020.1.2,Win32,60,5f47c29a48bd2a1e651a6eb7,5f4f8188bb2be403f872281d,1,,,,,,bench,,,,,,0,13,13,59,1,6,0,,,,,,,,,,,,,,,,,,,,,,,,,,,,,,,,,,,,,,,,,,,,,,,,,,,,,,,,,,,,,,,,,,,,,,,,,,,,,,,,,,,,,,,,,,,,,,,,,,,,,,,,,,,,,
,,,,,,,,,,stimuli/images/PICTURE_380.png,PHOTO,5ed8220554fe0533e3c394fd,19/03/2002,2020-09-02_12h27.45.460,proactive3.1,2020.1.2,Win32,60,5f47c29a48bd2a1e651a6eb7,5f4f8188bb2be403f872281d,1,,,,,,gorilla,,,,,,0,14,14,52,1,6,0,,,,,,,,,,,,,,,,,,,,,,,,,,,,,,,,,,,,,,,,,,,,,,,,,,,,,,,,,,,,,,,,,,,,,,,,,,,,,,,,,,,,,,,,,,,,,,,,,,,,,,,,,,,,,
,,,,,,,,,,stimuli/images/PICTURE_744.png,SAKE,5ed8220554fe0533e3c394fd,19/03/2002,2020-09-02_12h27.45.460,proactive3.1,2020.1.2,Win32,60,5f47c29a48bd2a1e651a6eb7,5f4f8188bb2be403f872281d,1,,,,,,ring,,,,,,0,15,15,17,1,2,0,,,,,,,,,,,,,,,,,,,,,,,,,,,,,,,,,,,,,,,,,,,,,,,,,,,,,,,,,,,,,,,,,,,,,,,,,,,,,,,,,,,,,,,,,,,,,,,,,,,,,,,,,,,,,
,,,,,,,,,,stimuli/images/PICTURE_233.png,WOMEN,5ed8220554fe0533e3c394fd,19/03/2002,2020-09-02_12h27.45.460,proactive3.1,2020.1.2,Win32,60,5f47c29a48bd2a1e651a6eb7,5f4f8188bb2be403f872281d,1,,,,,,salt,,,,,,0,16,16,38,1,4,0,,,,,,,,,,,,,,,,,,,,,,,,,,,,,,,,,,,,,,,,,,,,,,,,,,,,,,,,,,,,,,,,,,,,,,,,,,,,,,,,,,,,,,,,,,,,,,,,,,,,,,,,,,,,,
,,,,,,,,,,stimuli/images/PICTURE_467.png,DEMON,5ed8220554fe0533e3c394fd,19/03/2002,2020-09-02_12h27.45.460,proactive3.1,2020.1.2,Win32,60,5f47c29a48bd2a1e651a6eb7,5f4f8188bb2be403f872281d,1,,,,,,peg,,,,,,0,17,17,23,1,3,0,,,,,,,,,,,,,,,,,,,,,,,,,,,,,,,,,,,,,,,,,,,,,,,,,,,,,,,,,,,,,,,,,,,,,,,,,,,,,,,,,,,,,,,,,,,,,,,,,,,,,,,,,,,,,
,,,,,,,,,,stimuli/images/PICTURE_453.png,DUDE,5ed8220554fe0533e3c394fd,19/03/2002,2020-09-02_12h27.45.460,proactive3.1,2020.1.2,Win32,60,5f47c29a48bd2a1e651a6eb7,5f4f8188bb2be403f872281d,1,,,,,,scissors,,,,,,0,18,18,27,1,3,0,,,,,,,,,,,,,,,,,,,,,,,,,,,,,,,,,,,,,,,,,,,,,,,,,,,,,,,,,,,,,,,,,,,,,,,,,,,,,,,,,,,,,,,,,,,,,,,,,,,,,,,,,,,,,
,,,,,,,,,,stimuli/images/PICTURE_255.png,AREA,5ed8220554fe0533e3c394fd,19/03/2002,2020-09-02_12h27.45.460,proactive3.1,2020.1.2,Win32,60,5f47c29a48bd2a1e651a6eb7,5f4f8188bb2be403f872281d,1,,,,,,shovel,,,,,,0,19,19,22,1,3,0,,,,,,,,,,,,,,,,,,,,,,,,,,,,,,,,,,,,,,,,,,,,,,,,,,,,,,,,,,,,,,,,,,,,,,,,,,,,,,,,,,,,,,,,,,,,,,,,,,,,,,,,,,,,,
,,,,,,,,,,stimuli/images/PICTURE_654.png,VALLEY,5ed8220554fe0533e3c394fd,19/03/2002,2020-09-02_12h27.45.460,proactive3.1,2020.1.2,Win32,60,5f47c29a48bd2a1e651a6eb7,5f4f8188bb2be403f872281d,1,,,,,,pencil,,,,,,0,20,20,1,1,1,0,,,,,,,,,,,,,,,,,,,,,,,,,,,,,,,,,,,,,,,,,,,,,,,,,,,,,,,,,,,,,,,,,,,,,,,,,,,,,,,,,,,,,,,,,,,,,,,,,,,,,,,,,,,,,
,,,,,,,,,,stimuli/images/PICTURE_667.png,PLENTY,5ed8220554fe0533e3c394fd,19/03/2002,2020-09-02_12h27.45.460,proactive3.1,2020.1.2,Win32,60,5f47c29a48bd2a1e651a6eb7,5f4f8188bb2be403f872281d,1,,,,,,daisy,,,,,,0,21,21,41,1,5,0,,,,,,,,,,,,,,,,,,,,,,,,,,,,,,,,,,,,,,,,,,,,,,,,,,,,,,,,,,,,,,,,,,,,,,,,,,,,,,,,,,,,,,,,,,,,,,,,,,,,,,,,,,,,,
,,,,,,,,,,stimuli/images/PICTURE_302.png,FAMILY,5ed8220554fe0533e3c394fd,19/03/2002,2020-09-02_12h27.45.460,proactive3.1,2020.1.2,Win32,60,5f47c29a48bd2a1e651a6eb7,5f4f8188bb2be403f872281d,1,,,,,,taxi,,,,,,0,22,22,18,1,2,0,,,,,,,,,,,,,,,,,,,,,,,,,,,,,,,,,,,,,,,,,,,,,,,,,,,,,,,,,,,,,,,,,,,,,,,,,,,,,,,,,,,,,,,,,,,,,,,,,,,,,,,,,,,,,
,,,,,,,,,,stimuli/images/PICTURE_248.png,DOZEN,5ed8220554fe0533e3c394fd,19/03/2002,2020-09-02_12h27.45.460,proactive3.1,2020.1.2,Win32,60,5f47c29a48bd2a1e651a6eb7,5f4f8188bb2be403f872281d,1,,,,,,cart,,,,,,0,23,23,39,1,4,0,,,,,,,,,,,,,,,,,,,,,,,,,,,,,,,,,,,,,,,,,,,,,,,,,,,,,,,,,,,,,,,,,,,,,,,,,,,,,,,,,,,,,,,,,,,,,,,,,,,,,,,,,,,,,
,,,,,,,,,,stimuli/images/PICTURE_504.png,BODY,5ed8220554fe0533e3c394fd,19/03/2002,2020-09-02_12h27.45.460,proactive3.1,2020.1.2,Win32,60,5f47c29a48bd2a1e651a6eb7,5f4f8188bb2be403f872281d,1,,,,,,wheel,,,,,,0,24,24,8,1,1,0,,,,,,,,,,,,,,,,,,,,,,,,,,,,,,,,,,,,,,,,,,,,,,,,,,,,,,,,,,,,,,,,,,,,,,,,,,,,,,,,,,,,,,,,,,,,,,,,,,,,,,,,,,,,,
,,,,,,,,,,stimuli/images/PICTURE_68.png,MILE,5ed8220554fe0533e3c394fd,19/03/2002,2020-09-02_12h27.45.460,proactive3.1,2020.1.2,Win32,60,5f47c29a48bd2a1e651a6eb7,5f4f8188bb2be403f872281d,1,,,,,,candle,,,,,,0,25,25,44,1,5,0,,,,,,,,,,,,,,,,,,,,,,,,,,,,,,,,,,,,,,,,,,,,,,,,,,,,,,,,,,,,,,,,,,,,,,,,,,,,,,,,,,,,,,,,,,,,,,,,,,,,,,,,,,,,,
,,,,,,,,,,stimuli/images/PICTURE_675.png,WEAPON,5ed8220554fe0533e3c394fd,19/03/2002,2020-09-02_12h27.45.460,proactive3.1,2020.1.2,Win32,60,5f47c29a48bd2a1e651a6eb7,5f4f8188bb2be403f872281d,1,,,,,,windmill,,,,,,0,26,26,32,1,4,0,,,,,,,,,,,,,,,,,,,,,,,,,,,,,,,,,,,,,,,,,,,,,,,,,,,,,,,,,,,,,,,,,,,,,,,,,,,,,,,,,,,,,,,,,,,,,,,,,,,,,,,,,,,,,
,,,,,,,,,,stimuli/images/PICTURE_708.png,YARD,5ed8220554fe0533e3c394fd,19/03/2002,2020-09-02_12h27.45.460,proactive3.1,2020.1.2,Win32,60,5f47c29a48bd2a1e651a6eb7,5f4f8188bb2be403f872281d,1,,,,,,monkey,,,,,,0,27,27,29,1,3,0,,,,,,,,,,,,,,,,,,,,,,,,,,,,,,,,,,,,,,,,,,,,,,,,,,,,,,,,,,,,,,,,,,,,,,,,,,,,,,,,,,,,,,,,,,,,,,,,,,,,,,,,,,,,,
,,,,,,,,,,stimuli/images/PICTURE_311.png,FRIEND,5ed8220554fe0533e3c394fd,19/03/2002,2020-09-02_12h27.45.460,proactive3.1,2020.1.2,Win32,60,5f47c29a48bd2a1e651a6eb7,5f4f8188bb2be403f872281d,1,,,,,,razor,,,,,,0,28,28,34,1,4,0,,,,,,,,,,,,,,,,,,,,,,,,,,,,,,,,,,,,,,,,,,,,,,,,,,,,,,,,,,,,,,,,,,,,,,,,,,,,,,,,,,,,,,,,,,,,,,,,,,,,,,,,,,,,,
,,,,,,,,,,stimuli/images/PICTURE_311.png,BEAUTY,5ed8220554fe0533e3c394fd,19/03/2002,2020-09-02_12h27.45.460,proactive3.1,2020.1.2,Win32,60,5f47c29a48bd2a1e651a6eb7,5f4f8188bb2be403f872281d,1,,,,,,razor,,,,,,0,29,29,13,1,2,0,,,,,,,,,,,,,,,,,,,,,,,,,,,,,,,,,,,,,,,,,,,,,,,,,,,,,,,,,,,,,,,,,,,,,,,,,,,,,,,,,,,,,,,,,,,,,,,,,,,,,,,,,,,,,
,,,,,,,,,,stimuli/images/PICTURE_491.png,ROOF,5ed8220554fe0533e3c394fd,19/03/2002,2020-09-02_12h27.45.460,proactive3.1,2020.1.2,Win32,60,5f47c29a48bd2a1e651a6eb7,5f4f8188bb2be403f872281d,1,,,,,,rug,,,,,,0,30,30,24,1,3,0,,,,,,,,,,,,,,,,,,,,,,,,,,,,,,,,,,,,,,,,,,,,,,,,,,,,,,,,,,,,,,,,,,,,,,,,,,,,,,,,,,,,,,,,,,,,,,,,,,,,,,,,,,,,,
,,,,,,,,,,stimuli/images/PICTURE_123.png,ADVICE,5ed8220554fe0533e3c394fd,19/03/2002,2020-09-02_12h27.45.460,proactive3.1,2020.1.2,Win32,60,5f47c29a48bd2a1e651a6eb7,5f4f8188bb2be403f872281d,1,,,,,,dart,,,,,,0,31,31,40,1,5,0,,,,,,,,,,,,,,,,,,,,,,,,,,,,,,,,,,,,,,,,,,,,,,,,,,,,,,,,,,,,,,,,,,,,,,,,,,,,,,,,,,,,,,,,,,,,,,,,,,,,,,,,,,,,,
,,,,,,,,,,stimuli/images/PICTURE_667.png,BATH,5ed8220554fe0533e3c394fd,19/03/2002,2020-09-02_12h27.45.460,proactive3.1,2020.1.2,Win32,60,5f47c29a48bd2a1e651a6eb7,5f4f8188bb2be403f872281d,1,,,,,,daisy,,,,,,0,32,32,4,1,1,0,,,,,,,,,,,,,,,,,,,,,,,,,,,,,,,,,,,,,,,,,,,,,,,,,,,,,,,,,,,,,,,,,,,,,,,,,,,,,,,,,,,,,,,,,,,,,,,,,,,,,,,,,,,,,
,,,,,,,,,,stimuli/images/PICTURE_308.png,ESTATE,5ed8220554fe0533e3c394fd,19/03/2002,2020-09-02_12h27.45.460,proactive3.1,2020.1.2,Win32,60,5f47c29a48bd2a1e651a6eb7,5f4f8188bb2be403f872281d,1,,,,,,dice,,,,,,0,33,33,46,1,5,0,,,,,,,,,,,,,,,,,,,,,,,,,,,,,,,,,,,,,,,,,,,,,,,,,,,,,,,,,,,,,,,,,,,,,,,,,,,,,,,,,,,,,,,,,,,,,,,,,,,,,,,,,,,,,
,,,,,,,,,,stimuli/images/PICTURE_151.png,GIRL,5ed8220554fe0533e3c394fd,19/03/2002,2020-09-02_12h27.45.460,proactive3.1,2020.1.2,Win32,60,5f47c29a48bd2a1e651a6eb7,5f4f8188bb2be403f872281d,1,,,,,,tray,,,,,,0,34,34,19,1,2,0,,,,,,,,,,,,,,,,,,,,,,,,,,,,,,,,,,,,,,,,,,,,,,,,,,,,,,,,,,,,,,,,,,,,,,,,,,,,,,,,,,,,,,,,,,,,,,,,,,,,,,,,,,,,,
,,,,,,,,,,stimuli/images/PICTURE_95.png,STYLE,5ed8220554fe0533e3c394fd,19/03/2002,2020-09-02_12h27.45.460,proactive3.1,2020.1.2,Win32,60,5f47c29a48bd2a1e651a6eb7,5f4f8188bb2be403f872281d,1,,,,,,suitcase,,,,,,0,35,35,25,1,3,0,,,,,,,,,,,,,,,,,,,,,,,,,,,,,,,,,,,,,,,,,,,,,,,,,,,,,,,,,,,,,,,,,,,,,,,,,,,,,,,,,,,,,,,,,,,,,,,,,,,,,,,,,,,,,
,,,,,,,,,,stimuli/images/PICTURE_160.png,LEADER,5ed8220554fe0533e3c394fd,19/03/2002,2020-09-02_12h27.45.460,proactive3.1,2020.1.2,Win32,60,5f47c29a48bd2a1e651a6eb7,5f4f8188bb2be403f872281d,1,,,,,,wheelbarrow,,,,,,0,36,36,3,1,1,0,,,,,,,,,,,,,,,,,,,,,,,,,,,,,,,,,,,,,,,,,,,,,,,,,,,,,,,,,,,,,,,,,,,,,,,,,,,,,,,,,,,,,,,,,,,,,,,,,,,,,,,,,,,,,
,,,,,,,,,,stimuli/images/PICTURE_32.png,JUNGLE,5ed8220554fe0533e3c394fd,19/03/2002,2020-09-02_12h27.45.460,proactive3.1,2020.1.2,Win32,60,5f47c29a48bd2a1e651a6eb7,5f4f8188bb2be403f872281d,1,,,,,,crown,,,,,,0,37,37,45,1,5,0,,,,,,,,,,,,,,,,,,,,,,,,,,,,,,,,,,,,,,,,,,,,,,,,,,,,,,,,,,,,,,,,,,,,,,,,,,,,,,,,,,,,,,,,,,,,,,,,,,,,,,,,,,,,,
,,,,,,,,,,stimuli/images/PICTURE_487.png,FLIGHT,5ed8220554fe0533e3c394fd,19/03/2002,2020-09-02_12h27.45.460,proactive3.1,2020.1.2,Win32,60,5f47c29a48bd2a1e651a6eb7,5f4f8188bb2be403f872281d,1,,,,,,basket,,,,,,0,38,38,9,1,1,0,,,,,,,,,,,,,,,,,,,,,,,,,,,,,,,,,,,,,,,,,,,,,,,,,,,,,,,,,,,,,,,,,,,,,,,,,,,,,,,,,,,,,,,,,,,,,,,,,,,,,,,,,,,,,
,,,,,,,,,,stimuli/images/PICTURE_233.png,IDEAS,5ed8220554fe0533e3c394fd,19/03/2002,2020-09-02_12h27.45.460,proactive3.1,2020.1.2,Win32,60,5f47c29a48bd2a1e651a6eb7,5f4f8188bb2be403f872281d,1,,,,,,salt,,,,,,0,39,39,28,1,3,0,,,,,,,,,,,,,,,,,,,,,,,,,,,,,,,,,,,,,,,,,,,,,,,,,,,,,,,,,,,,,,,,,,,,,,,,,,,,,,,,,,,,,,,,,,,,,,,,,,,,,,,,,,,,,
,,,,,,,,,,stimuli/images/PICTURE_677.png,MILE,5ed8220554fe0533e3c394fd,19/03/2002,2020-09-02_12h27.45.460,proactive3.1,2020.1.2,Win32,60,5f47c29a48bd2a1e651a6eb7,5f4f8188bb2be403f872281d,1,,,,,,map,,,,,,0,40,40,30,1,4,0,,,,,,,,,,,,,,,,,,,,,,,,,,,,,,,,,,,,,,,,,,,,,,,,,,,,,,,,,,,,,,,,,,,,,,,,,,,,,,,,,,,,,,,,,,,,,,,,,,,,,,,,,,,,,
,,,,,,,,,,stimuli/images/PICTURE_469.png,ARTIST,5ed8220554fe0533e3c394fd,19/03/2002,2020-09-02_12h27.45.460,proactive3.1,2020.1.2,Win32,60,5f47c29a48bd2a1e651a6eb7,5f4f8188bb2be403f872281d,1,,,,,,stool,,,,,,0,41,41,6,1,1,0,,,,,,,,,,,,,,,,,,,,,,,,,,,,,,,,,,,,,,,,,,,,,,,,,,,,,,,,,,,,,,,,,,,,,,,,,,,,,,,,,,,,,,,,,,,,,,,,,,,,,,,,,,,,,
,,,,,,,,,,stimuli/images/PICTURE_348.png,SPEECH,5ed8220554fe0533e3c394fd,19/03/2002,2020-09-02_12h27.45.460,proactive3.1,2020.1.2,Win32,60,5f47c29a48bd2a1e651a6eb7,5f4f8188bb2be403f872281d,1,,,,,,pepper,,,,,,0,42,42,20,1,3,0,,,,,,,,,,,,,,,,,,,,,,,,,,,,,,,,,,,,,,,,,,,,,,,,,,,,,,,,,,,,,,,,,,,,,,,,,,,,,,,,,,,,,,,,,,,,,,,,,,,,,,,,,,,,,
,,,,,,,,,,stimuli/images/PICTURE_215.png,PLENTY,5ed8220554fe0533e3c394fd,19/03/2002,2020-09-02_12h27.45.460,proactive3.1,2020.1.2,Win32,60,5f47c29a48bd2a1e651a6eb7,5f4f8188bb2be403f872281d,1,,,,,,boot,,,,,,0,43,43,37,1,4,0,,,,,,,,,,,,,,,,,,,,,,,,,,,,,,,,,,,,,,,,,,,,,,,,,,,,,,,,,,,,,,,,,,,,,,,,,,,,,,,,,,,,,,,,,,,,,,,,,,,,,,,,,,,,,
,,,,,,,,,,stimuli/images/PICTURE_308.png,KIND,5ed8220554fe0533e3c394fd,19/03/2002,2020-09-02_12h27.45.460,proactive3.1,2020.1.2,Win32,60,5f47c29a48bd2a1e651a6eb7,5f4f8188bb2be403f872281d,1,,,,,,dice,,,,,,0,44,44,54,1,6,0,,,,,,,,,,,,,,,,,,,,,,,,,,,,,,,,,,,,,,,,,,,,,,,,,,,,,,,,,,,,,,,,,,,,,,,,,,,,,,,,,,,,,,,,,,,,,,,,,,,,,,,,,,,,,
,,,,,,,,,,stimuli/images/PICTURE_469.png,LETTER,5ed8220554fe0533e3c394fd,19/03/2002,2020-09-02_12h27.45.460,proactive3.1,2020.1.2,Win32,60,5f47c29a48bd2a1e651a6eb7,5f4f8188bb2be403f872281d,1,,,,,,stool,,,,,,0,45,45,42,1,5,0,,,,,,,,,,,,,,,,,,,,,,,,,,,,,,,,,,,,,,,,,,,,,,,,,,,,,,,,,,,,,,,,,,,,,,,,,,,,,,,,,,,,,,,,,,,,,,,,,,,,,,,,,,,,,
,,,,,,,,,,stimuli/images/PICTURE_160.png,FEET,5ed8220554fe0533e3c394fd,19/03/2002,2020-09-02_12h27.45.460,proactive3.1,2020.1.2,Win32,60,5f47c29a48bd2a1e651a6eb7,5f4f8188bb2be403f872281d,1,,,,,,wheelbarrow,,,,,,0,46,46,58,1,6,0,,,,,,,,,,,,,,,,,,,,,,,,,,,,,,,,,,,,,,,,,,,,,,,,,,,,,,,,,,,,,,,,,,,,,,,,,,,,,,,,,,,,,,,,,,,,,,,,,,,,,,,,,,,,,
,,,,,,,,,,stimuli/images/PICTURE_491.png,WRITER,5ed8220554fe0533e3c394fd,19/03/2002,2020-09-02_12h27.45.460,proactive3.1,2020.1.2,Win32,60,5f47c29a48bd2a1e651a6eb7,5f4f8188bb2be403f872281d,1,,,,,,rug,,,,,,0,47,47,57,1,6,0,,,,,,,,,,,,,,,,,,,,,,,,,,,,,,,,,,,,,,,,,,,,,,,,,,,,,,,,,,,,,,,,,,,,,,,,,,,,,,,,,,,,,,,,,,,,,,,,,,,,,,,,,,,,,
,,,,,,,,,,stimuli/images/PICTURE_688.png,CASINO,5ed8220554fe0533e3c394fd,19/03/2002,2020-09-02_12h27.45.460,proactive3.1,2020.1.2,Win32,60,5f47c29a48bd2a1e651a6eb7,5f4f8188bb2be403f872281d,1,,,,,,runner,,,,,,0,48,48,2,1,1,0,,,,,,,,,,,,,,,,,,,,,,,,,,,,,,,,,,,,,,,,,,,,,,,,,,,,,,,,,,,,,,,,,,,,,,,,,,,,,,,,,,,,,,,,,,,,,,,,,,,,,,,,,,,,,
,,,,,,,,,,stimuli/images/PICTURE_708.png,CLIENT,5ed8220554fe0533e3c394fd,19/03/2002,2020-09-02_12h27.45.460,proactive3.1,2020.1.2,Win32,60,5f47c29a48bd2a1e651a6eb7,5f4f8188bb2be403f872281d,1,,,,,,monkey,,,,,,0,49,49,5,1,1,0,,,,,,,,,,,,,,,,,,,,,,,,,,,,,,,,,,,,,,,,,,,,,,,,,,,,,,,,,,,,,,,,,,,,,,,,,,,,,,,,,,,,,,,,,,,,,,,,,,,,,,,,,,,,,
,,,,,,,,,,stimuli/images/PICTURE_688.png,WOMEN,5ed8220554fe0533e3c394fd,19/03/2002,2020-09-02_12h27.45.460,proactive3.1,2020.1.2,Win32,60,5f47c29a48bd2a1e651a6eb7,5f4f8188bb2be403f872281d,1,,,,,,runner,,,,,,0,50,50,14,1,2,0,,,,,,,,,,,,,,,,,,,,,,,,,,,,,,,,,,,,,,,,,,,,,,,,,,,,,,,,,,,,,,,,,,,,,,,,,,,,,,,,,,,,,,,,,,,,,,,,,,,,,,,,,,,,,
,,,,,,,,,,stimuli/images/PICTURE_470.png,CASINO,5ed8220554fe0533e3c394fd,19/03/2002,2020-09-02_12h27.45.460,proactive3.1,2020.1.2,Win32,60,5f47c29a48bd2a1e651a6eb7,5f4f8188bb2be403f872281d,1,,,,,,motorbike,,,,,,0,51,51,36,1,4,0,,,,,,,,,,,,,,,,,,,,,,,,,,,,,,,,,,,,,,,,,,,,,,,,,,,,,,,,,,,,,,,,,,,,,,,,,,,,,,,,,,,,,,,,,,,,,,,,,,,,,,,,,,,,,
,,,,,,,,,,stimuli/images/PICTURE_692.png,MONTH,5ed8220554fe0533e3c394fd,19/03/2002,2020-09-02_12h27.45.460,proactive3.1,2020.1.2,Win32,60,5f47c29a48bd2a1e651a6eb7,5f4f8188bb2be403f872281d,1,,,,,,cherry,,,,,,0,52,52,16,1,2,0,,,,,,,,,,,,,,,,,,,,,,,,,,,,,,,,,,,,,,,,,,,,,,,,,,,,,,,,,,,,,,,,,,,,,,,,,,,,,,,,,,,,,,,,,,,,,,,,,,,,,,,,,,,,,
,,,,,,,,,,stimuli/images/PICTURE_339.png,PLENTY,5ed8220554fe0533e3c394fd,19/03/2002,2020-09-02_12h27.45.460,proactive3.1,2020.1.2,Win32,60,5f47c29a48bd2a1e651a6eb7,5f4f8188bb2be403f872281d,1,,,,,,backpack,,,,,,0,53,53,0,1,1,0,,,,,,,,,,,,,,,,,,,,,,,,,,,,,,,,,,,,,,,,,,,,,,,,,,,,,,,,,,,,,,,,,,,,,,,,,,,,,,,,,,,,,,,,,,,,,,,,,,,,,,,,,,,,,
,,,,,,,,,,stimuli/images/PICTURE_85.png,THING,5ed8220554fe0533e3c394fd,19/03/2002,2020-09-02_12h27.45.460,proactive3.1,2020.1.2,Win32,60,5f47c29a48bd2a1e651a6eb7,5f4f8188bb2be403f872281d,1,,,,,,diamond,,,,,,0,54,54,15,1,2,0,,,,,,,,,,,,,,,,,,,,,,,,,,,,,,,,,,,,,,,,,,,,,,,,,,,,,,,,,,,,,,,,,,,,,,,,,,,,,,,,,,,,,,,,,,,,,,,,,,,,,,,,,,,,,
,,,,,,,,,,stimuli/images/PICTURE_147.png,MOMENT,5ed8220554fe0533e3c394fd,19/03/2002,2020-09-02_12h27.45.460,proactive3.1,2020.1.2,Win32,60,5f47c29a48bd2a1e651a6eb7,5f4f8188bb2be403f872281d,1,,,,,,hanger,,,,,,0,55,55,51,1,6,0,,,,,,,,,,,,,,,,,,,,,,,,,,,,,,,,,,,,,,,,,,,,,,,,,,,,,,,,,,,,,,,,,,,,,,,,,,,,,,,,,,,,,,,,,,,,,,,,,,,,,,,,,,,,,
,,,,,,,,,,stimuli/images/PICTURE_356.png,DANGER,5ed8220554fe0533e3c394fd,19/03/2002,2020-09-02_12h27.45.460,proactive3.1,2020.1.2,Win32,60,5f47c29a48bd2a1e651a6eb7,5f4f8188bb2be403f872281d,1,,,,,,pawn,,,,,,0,56,56,55,1,6,0,,,,,,,,,,,,,,,,,,,,,,,,,,,,,,,,,,,,,,,,,,,,,,,,,,,,,,,,,,,,,,,,,,,,,,,,,,,,,,,,,,,,,,,,,,,,,,,,,,,,,,,,,,,,,
,,,,,,,,,,stimuli/images/PICTURE_208.png,MONTH,5ed8220554fe0533e3c394fd,19/03/2002,2020-09-02_12h27.45.460,proactive3.1,2020.1.2,Win32,60,5f47c29a48bd2a1e651a6eb7,5f4f8188bb2be403f872281d,1,,,,,,microphone,,,,,,0,57,57,53,1,6,0,,,,,,,,,,,,,,,,,,,,,,,,,,,,,,,,,,,,,,,,,,,,,,,,,,,,,,,,,,,,,,,,,,,,,,,,,,,,,,,,,,,,,,,,,,,,,,,,,,,,,,,,,,,,,
,,,,,,,,,,stimuli/images/PICTURE_509.png,PHOTO,5ed8220554fe0533e3c394fd,19/03/2002,2020-09-02_12h27.45.460,proactive3.1,2020.1.2,Win32,60,5f47c29a48bd2a1e651a6eb7,5f4f8188bb2be403f872281d,1,,,,,,telephone,,,,,,0,58,58,21,1,3,0,,,,,,,,,,,,,,,,,,,,,,,,,,,,,,,,,,,,,,,,,,,,,,,,,,,,,,,,,,,,,,,,,,,,,,,,,,,,,,,,,,,,,,,,,,,,,,,,,,,,,,,,,,,,,
,,?,0.00082,0,,,,,,stimuli/images/PICTURE_688.png,WOMEN,5ed8220554fe0533e3c394fd,19/03/2002,2020-09-02_12h27.45.460,proactive3.1,2020.1.2,Win32,60,5f47c29a48bd2a1e651a6eb7,5f4f8188bb2be403f872281d,1,,,,,,runner,,,,,,,,,,,2,0,0,0,0,14,1,,,,,,,,,,,,,,,,,,,,,,,,,,,,,,,,,,,,,,,,,,,,,,,,,,,,,,,,,,,,,,,,,,,,,,,,,,,,,,,,,,,,,,,,,,,,,,,,,,,,,,,,
,,?,0.000595,0,,,,,,stimuli/images/PICTURE_123.png,ADVICE,5ed8220554fe0533e3c394fd,19/03/2002,2020-09-02_12h27.45.460,proactive3.1,2020.1.2,Win32,60,5f47c29a48bd2a1e651a6eb7,5f4f8188bb2be403f872281d,1,,,,,,dart,,,,,,,,,,,5,0,0,1,1,40,1,,,,,,,,,,,,,,,,,,,,,,,,,,,,,,,,,,,,,,,,,,,,,,,,,,,,,,,,,,,,,,,,,,,,,,,,,,,,,,,,,,,,,,,,,,,,,,,,,,,,,,,,
,,FLIGHT,6.026025,1,,,,,,stimuli/images/PICTURE_487.png,FLIGHT,5ed8220554fe0533e3c394fd,19/03/2002,2020-09-02_12h27.45.460,proactive3.1,2020.1.2,Win32,60,5f47c29a48bd2a1e651a6eb7,5f4f8188bb2be403f872281d,1,,,,,,basket,,,,,,,,,,,1,0,0,2,2,9,1,,,,,,,,,,,,,,,,,,,,,,,,,,,,,,,,,,,,,,,,,,,,,,,,,,,,,,,,,,,,,,,,,,,,,,,,,,,,,,,,,,,,,,,,,,,,,,,,,,,,,,,,
,,?,0.00117,0,,,,,,stimuli/images/PICTURE_123.png,ADVICE,5ed8220554fe0533e3c394fd,19/03/2002,2020-09-02_12h27.45.460,proactive3.1,2020.1.2,Win32,60,5f47c29a48bd2a1e651a6eb7,5f4f8188bb2be403f872281d,1,,,,,,dart,,,,,,,,,,,6,0,0,3,3,50,1,,,,,,,,,,,,,,,,,,,,,,,,,,,,,,,,,,,,,,,,,,,,,,,,,,,,,,,,,,,,,,,,,,,,,,,,,,,,,,,,,,,,,,,,,,,,,,,,,,,,,,,,
,,?,0.00063,0,,,,,,stimuli/images/PICTURE_151.png,GIRL,5ed8220554fe0533e3c394fd,19/03/2002,2020-09-02_12h27.45.460,proactive3.1,2020.1.2,Win32,60,5f47c29a48bd2a1e651a6eb7,5f4f8188bb2be403f872281d,1,,,,,,tray,,,,,,,,,,,2,0,0,4,4,19,1,,,,,,,,,,,,,,,,,,,,,,,,,,,,,,,,,,,,,,,,,,,,,,,,,,,,,,,,,,,,,,,,,,,,,,,,,,,,,,,,,,,,,,,,,,,,,,,,,,,,,,,,
,,?,0.000405,0,,,,,,stimuli/images/PICTURE_215.png,PLENTY,5ed8220554fe0533e3c394fd,19/03/2002,2020-09-02_12h27.45.460,proactive3.1,2020.1.2,Win32,60,5f47c29a48bd2a1e651a6eb7,5f4f8188bb2be403f872281d,1,,,,,,boot,,,,,,,,,,,4,0,0,5,5,37,1,,,,,,,,,,,,,,,,,,,,,,,,,,,,,,,,,,,,,,,,,,,,,,,,,,,,,,,,,,,,,,,,,,,,,,,,,,,,,,,,,,,,,,,,,,,,,,,,,,,,,,,,
,,?,0.000405,0,,,,,,stimuli/images/PICTURE_488.png,STYLE,5ed8220554fe0533e3c394fd,19/03/2002,2020-09-02_12h27.45.460,proactive3.1,2020.1.2,Win32,60,5f47c29a48bd2a1e651a6eb7,5f4f8188bb2be403f872281d,1,,,,,,sun,,,,,,,,,,,4,0,0,6,6,33,1,,,,,,,,,,,,,,,,,,,,,,,,,,,,,,,,,,,,,,,,,,,,,,,,,,,,,,,,,,,,,,,,,,,,,,,,,,,,,,,,,,,,,,,,,,,,,,,,,,,,,,,,
,,?,0.000465,0,,,,,,stimuli/images/PICTURE_208.png,THING,5ed8220554fe0533e3c394fd,19/03/2002,2020-09-02_12h27.45.460,proactive3.1,2020.1.2,Win32,60,5f47c29a48bd2a1e651a6eb7,5f4f8188bb2be403f872281d,1,,,,,,microphone,,,,,,,,,,,5,0,0,7,7,47,1,,,,,,,,,,,,,,,,,,,,,,,,,,,,,,,,,,,,,,,,,,,,,,,,,,,,,,,,,,,,,,,,,,,,,,,,,,,,,,,,,,,,,,,,,,,,,,,,,,,,,,,,
,,?,0.0005,0,,,,,,stimuli/images/PICTURE_453.png,DUDE,5ed8220554fe0533e3c394fd,19/03/2002,2020-09-02_12h27.45.460,proactive3.1,2020.1.2,Win32,60,5f47c29a48bd2a1e651a6eb7,5f4f8188bb2be403f872281d,1,,,,,,scissors,,,,,,,,,,,3,0,0,8,8,27,1,,,,,,,,,,,,,,,,,,,,,,,,,,,,,,,,,,,,,,,,,,,,,,,,,,,,,,,,,,,,,,,,,,,,,,,,,,,,,,,,,,,,,,,,,,,,,,,,,,,,,,,,
,,?,0.00124,0,,,,,,stimuli/images/PICTURE_491.png,ROOF,5ed8220554fe0533e3c394fd,19/03/2002,2020-09-02_12h27.45.460,proactive3.1,2020.1.2,Win32,60,5f47c29a48bd2a1e651a6eb7,5f4f8188bb2be403f872281d,1,,,,,,rug,,,,,,,,,,,3,0,0,9,9,24,1,,,,,,,,,,,,,,,,,,,,,,,,,,,,,,,,,,,,,,,,,,,,,,,,,,,,,,,,,,,,,,,,,,,,,,,,,,,,,,,,,,,,,,,,,,,,,,,,,,,,,,,,
,,?,0.00036,0,,,,,,stimuli/images/PICTURE_491.png,WRITER,5ed8220554fe0533e3c394fd,19/03/2002,2020-09-02_12h27.45.460,proactive3.1,2020.1.2,Win32,60,5f47c29a48bd2a1e651a6eb7,5f4f8188bb2be403f872281d,1,,,,,,rug,,,,,,,,,,,6,0,0,10,10,57,1,,,,,,,,,,,,,,,,,,,,,,,,,,,,,,,,,,,,,,,,,,,,,,,,,,,,,,,,,,,,,,,,,,,,,,,,,,,,,,,,,,,,,,,,,,,,,,,,,,,,,,,,
,,?,0.000355,0,,,,,,stimuli/images/PICTURE_692.png,MONTH,5ed8220554fe0533e3c394fd,19/03/2002,2020-09-02_12h27.45.460,proactive3.1,2020.1.2,Win32,60,5f47c29a48bd2a1e651a6eb7,5f4f8188bb2be403f872281d,1,,,,,,cherry,,,,,,,,,,,2,0,0,11,11,16,1,,,,,,,,,,,,,,,,,,,,,,,,,,,,,,,,,,,,,,,,,,,,,,,,,,,,,,,,,,,,,,,,,,,,,,,,,,,,,,,,,,,,,,,,,,,,,,,,,,,,,,,,
,,?,0.00032,0,,,,,,stimuli/images/PICTURE_208.png,MONTH,5ed8220554fe0533e3c394fd,19/03/2002,2020-09-02_12h27.45.460,proactive3.1,2020.1.2,Win32,60,5f47c29a48bd2a1e651a6eb7,5f4f8188bb2be403f872281d,1,,,,,,microphone,,,,,,,,,,,6,0,0,12,12,53,1,,,,,,,,,,,,,,,,,,,,,,,,,,,,,,,,,,,,,,,,,,,,,,,,,,,,,,,,,,,,,,,,,,,,,,,,,,,,,,,,,,,,,,,,,,,,,,,,,,,,,,,,
,,?,0.000365,0,,,,,,stimuli/images/PICTURE_744.png,SYSTEM,5ed8220554fe0533e3c394fd,19/03/2002,2020-09-02_12h27.45.460,proactive3.1,2020.1.2,Win32,60,5f47c29a48bd2a1e651a6eb7,5f4f8188bb2be403f872281d,1,,,,,,ring,,,,,,,,,,,5,0,0,13,13,43,1,,,,,,,,,,,,,,,,,,,,,,,,,,,,,,,,,,,,,,,,,,,,,,,,,,,,,,,,,,,,,,,,,,,,,,,,,,,,,,,,,,,,,,,,,,,,,,,,,,,,,,,,
,,?,0.0003,0,,,,,,stimuli/images/PICTURE_177.png,CARS,5ed8220554fe0533e3c394fd,19/03/2002,2020-09-02_12h27.45.460,proactive3.1,2020.1.2,Win32,60,5f47c29a48bd2a1e651a6eb7,5f4f8188bb2be403f872281d,1,,,,,,mushroom,,,,,,,,,,,4,0,0,14,14,35,1,,,,,,,,,,,,,,,,,,,,,,,,,,,,,,,,,,,,,,,,,,,,,,,,,,,,,,,,,,,,,,,,,,,,,,,,,,,,,,,,,,,,,,,,,,,,,,,,,,,,,,,,
,,?,0.000615,0,,,,,,stimuli/images/PICTURE_708.png,YARD,5ed8220554fe0533e3c394fd,19/03/2002,2020-09-02_12h27.45.460,proactive3.1,2020.1.2,Win32,60,5f47c29a48bd2a1e651a6eb7,5f4f8188bb2be403f872281d,1,,,,,,monkey,,,,,,,,,,,3,0,0,15,15,29,1,,,,,,,,,,,,,,,,,,,,,,,,,,,,,,,,,,,,,,,,,,,,,,,,,,,,,,,,,,,,,,,,,,,,,,,,,,,,,,,,,,,,,,,,,,,,,,,,,,,,,,,,
,,?,0.0003,0,,,,,,stimuli/images/PICTURE_380.png,DEATH,5ed8220554fe0533e3c394fd,19/03/2002,2020-09-02_12h27.45.460,proactive3.1,2020.1.2,Win32,60,5f47c29a48bd2a1e651a6eb7,5f4f8188bb2be403f872281d,1,,,,,,gorilla,,,,,,,,,,,5,0,0,16,16,49,1,,,,,,,,,,,,,,,,,,,,,,,,,,,,,,,,,,,,,,,,,,,,,,,,,,,,,,,,,,,,,,,,,,,,,,,,,,,,,,,,,,,,,,,,,,,,,,,,,,,,,,,,
,,BODY,3.881965,1,,,,,,stimuli/images/PICTURE_504.png,BODY,5ed8220554fe0533e3c394fd,19/03/2002,2020-09-02_12h27.45.460,proactive3.1,2020.1.2,Win32,60,5f47c29a48bd2a1e651a6eb7,5f4f8188bb2be403f872281d,1,,,,,,wheel,,,,,,,,,,,1,0,0,17,17,8,1,,,,,,,,,,,,,,,,,,,,,,,,,,,,,,,,,,,,,,,,,,,,,,,,,,,,,,,,,,,,,,,,,,,,,,,,,,,,,,,,,,,,,,,,,,,,,,,,,,,,,,,,
,,?,0.00087,0,,,,,,stimuli/images/PICTURE_160.png,FEET,5ed8220554fe0533e3c394fd,19/03/2002,2020-09-02_12h27.45.460,proactive3.1,2020.1.2,Win32,60,5f47c29a48bd2a1e651a6eb7,5f4f8188bb2be403f872281d,1,,,,,,wheelbarrow,,,,,,,,,,,6,0,0,18,18,58,1,,,,,,,,,,,,,,,,,,,,,,,,,,,,,,,,,,,,,,,,,,,,,,,,,,,,,,,,,,,,,,,,,,,,,,,,,,,,,,,,,,,,,,,,,,,,,,,,,,,,,,,,
,,?,0.00029,0,,,,,,stimuli/images/PICTURE_285.png,ADVICE,5ed8220554fe0533e3c394fd,19/03/2002,2020-09-02_12h27.45.460,proactive3.1,2020.1.2,Win32,60,5f47c29a48bd2a1e651a6eb7,5f4f8188bb2be403f872281d,1,,,,,,carrot,,,,,,,,,,,2,0,0,19,19,12,1,,,,,,,,,,,,,,,,,,,,,,,,,,,,,,,,,,,,,,,,,,,,,,,,,,,,,,,,,,,,,,,,,,,,,,,,,,,,,,,,,,,,,,,,,,,,,,,,,,,,,,,,
,,?,6.197615,0,,,,,,stimuli/images/PICTURE_688.png,CASINO,5ed8220554fe0533e3c394fd,19/03/2002,2020-09-02_12h27.45.460,proactive3.1,2020.1.2,Win32,60,5f47c29a48bd2a1e651a6eb7,5f4f8188bb2be403f872281d,1,,,,,,runner,,,,,,,,,,,1,0,0,20,20,2,1,,,,,,,,,,,,,,,,,,,,,,,,,,,,,,,,,,,,,,,,,,,,,,,,,,,,,,,,,,,,,,,,,,,,,,,,,,,,,,,,,,,,,,,,,,,,,,,,,,,,,,,,
,,SALE,2.66541,0,,,,,,stimuli/images/PICTURE_314.png,SAKE,5ed8220554fe0533e3c394fd,19/03/2002,2020-09-02_12h27.45.460,proactive3.1,2020.1.2,Win32,60,5f47c29a48bd2a1e651a6eb7,5f4f8188bb2be403f872281d,1,,,,,,perfume,,,,,,,,,,,1,0,0,21,21,7,1,,,,,,,,,,,,,,,,,,,,,,,,,,,,,,,,,,,,,,,,,,,,,,,,,,,,,,,,,,,,,,,,,,,,,,,,,,,,,,,,,,,,,,,,,,,,,,,,,,,,,,,,
,,?,0.000765,0,,,,,,stimuli/images/PICTURE_675.png,WEAPON,5ed8220554fe0533e3c394fd,19/03/2002,2020-09-02_12h27.45.460,proactive3.1,2020.1.2,Win32,60,5f47c29a48bd2a1e651a6eb7,5f4f8188bb2be403f872281d,1,,,,,,windmill,,,,,,,,,,,4,0,0,22,22,32,1,,,,,,,,,,,,,,,,,,,,,,,,,,,,,,,,,,,,,,,,,,,,,,,,,,,,,,,,,,,,,,,,,,,,,,,,,,,,,,,,,,,,,,,,,,,,,,,,,,,,,,,,
,,?,0.0004,0,,,,,,stimuli/images/PICTURE_311.png,BEAUTY,5ed8220554fe0533e3c394fd,19/03/2002,2020-09-02_12h27.45.460,proactive3.1,2020.1.2,Win32,60,5f47c29a48bd2a1e651a6eb7,5f4f8188bb2be403f872281d,1,,,,,,razor,,,,,,,,,,,2,0,0,23,23,13,1,,,,,,,,,,,,,,,,,,,,,,,,,,,,,,,,,,,,,,,,,,,,,,,,,,,,,,,,,,,,,,,,,,,,,,,,,,,,,,,,,,,,,,,,,,,,,,,,,,,,,,,,
,,?,0.000425,0,,,,,,stimuli/images/PICTURE_95.png,STYLE,5ed8220554fe0533e3c394fd,19/03/2002,2020-09-02_12h27.45.460,proactive3.1,2020.1.2,Win32,60,5f47c29a48bd2a1e651a6eb7,5f4f8188bb2be403f872281d,1,,,,,,suitcase,,,,,,,,,,,3,0,0,24,24,25,1,,,,,,,,,,,,,,,,,,,,,,,,,,,,,,,,,,,,,,,,,,,,,,,,,,,,,,,,,,,,,,,,,,,,,,,,,,,,,,,,,,,,,,,,,,,,,,,,,,,,,,,,
,,CLIENT,2.97873,1,,,,,,stimuli/images/PICTURE_708.png,CLIENT,5ed8220554fe0533e3c394fd,19/03/2002,2020-09-02_12h27.45.460,proactive3.1,2020.1.2,Win32,60,5f47c29a48bd2a1e651a6eb7,5f4f8188bb2be403f872281d,1,,,,,,monkey,,,,,,,,,,,1,0,0,25,25,5,1,,,,,,,,,,,,,,,,,,,,,,,,,,,,,,,,,,,,,,,,,,,,,,,,,,,,,,,,,,,,,,,,,,,,,,,,,,,,,,,,,,,,,,,,,,,,,,,,,,,,,,,,
,,?,0.001085,0,,,,,,stimuli/images/PICTURE_667.png,PLENTY,5ed8220554fe0533e3c394fd,19/03/2002,2020-09-02_12h27.45.460,proactive3.1,2020.1.2,Win32,60,5f47c29a48bd2a1e651a6eb7,5f4f8188bb2be403f872281d,1,,,,,,daisy,,,,,,,,,,,5,0,0,26,26,41,1,,,,,,,,,,,,,,,,,,,,,,,,,,,,,,,,,,,,,,,,,,,,,,,,,,,,,,,,,,,,,,,,,,,,,,,,,,,,,,,,,,,,,,,,,,,,,,,,,,,,,,,,
,,?,0.00049,0,,,,,,stimuli/images/PICTURE_467.png,DEMON,5ed8220554fe0533e3c394fd,19/03/2002,2020-09-02_12h27.45.460,proactive3.1,2020.1.2,Win32,60,5f47c29a48bd2a1e651a6eb7,5f4f8188bb2be403f872281d,1,,,,,,peg,,,,,,,,,,,3,0,0,27,27,23,1,,,,,,,,,,,,,,,,,,,,,,,,,,,,,,,,,,,,,,,,,,,,,,,,,,,,,,,,,,,,,,,,,,,,,,,,,,,,,,,,,,,,,,,,,,,,,,,,,,,,,,,,
,,?,0.000395,0,,,,,,stimuli/images/PICTURE_147.png,MOMENT,5ed8220554fe0533e3c394fd,19/03/2002,2020-09-02_12h27.45.460,proactive3.1,2020.1.2,Win32,60,5f47c29a48bd2a1e651a6eb7,5f4f8188bb2be403f872281d,1,,,,,,hanger,,,,,,,,,,,6,0,0,28,28,51,1,,,,,,,,,,,,,,,,,,,,,,,,,,,,,,,,,,,,,,,,,,,,,,,,,,,,,,,,,,,,,,,,,,,,,,,,,,,,,,,,,,,,,,,,,,,,,,,,,,,,,,,,
,,?,0.00042,0,,,,,,stimuli/images/PICTURE_380.png,PHOTO,5ed8220554fe0533e3c394fd,19/03/2002,2020-09-02_12h27.45.460,proactive3.1,2020.1.2,Win32,60,5f47c29a48bd2a1e651a6eb7,5f4f8188bb2be403f872281d,1,,,,,,gorilla,,,,,,,,,,,6,0,0,29,29,52,1,,,,,,,,,,,,,,,,,,,,,,,,,,,,,,,,,,,,,,,,,,,,,,,,,,,,,,,,,,,,,,,,,,,,,,,,,,,,,,,,,,,,,,,,,,,,,,,,,,,,,,,,
,,?,0.00031,0,,,,,,stimuli/images/PICTURE_85.png,THING,5ed8220554fe0533e3c394fd,19/03/2002,2020-09-02_12h27.45.460,proactive3.1,2020.1.2,Win32,60,5f47c29a48bd2a1e651a6eb7,5f4f8188bb2be403f872281d,1,,,,,,diamond,,,,,,,,,,,2,0,0,30,30,15,1,,,,,,,,,,,,,,,,,,,,,,,,,,,,,,,,,,,,,,,,,,,,,,,,,,,,,,,,,,,,,,,,,,,,,,,,,,,,,,,,,,,,,,,,,,,,,,,,,,,,,,,,
,,?,0.00053,0,,,,,,stimuli/images/PICTURE_327.png,BEAUTY,5ed8220554fe0533e3c394fd,19/03/2002,2020-09-02_12h27.45.460,proactive3.1,2020.1.2,Win32,60,5f47c29a48bd2a1e651a6eb7,5f4f8188bb2be403f872281d,1,,,,,,helmet,,,,,,,,,,,5,0,0,31,31,48,1,,,,,,,,,,,,,,,,,,,,,,,,,,,,,,,,,,,,,,,,,,,,,,,,,,,,,,,,,,,,,,,,,,,,,,,,,,,,,,,,,,,,,,,,,,,,,,,,,,,,,,,,
,,?,0.001145,0,,,,,,stimuli/images/PICTURE_311.png,FRIEND,5ed8220554fe0533e3c394fd,19/03/2002,2020-09-02_12h27.45.460,proactive3.1,2020.1.2,Win32,60,5f47c29a48bd2a1e651a6eb7,5f4f8188bb2be403f872281d,1,,,,,,razor,,,,,,,,,,,4,0,0,32,32,34,1,,,,,,,,,,,,,,,,,,,,,,,,,,,,,,,,,,,,,,,,,,,,,,,,,,,,,,,,,,,,,,,,,,,,,,,,,,,,,,,,,,,,,,,,,,,,,,,,,,,,,,,,
,,?,0.0003,0,,,,,,stimuli/images/PICTURE_314.png,GODS,5ed8220554fe0533e3c394fd,19/03/2002,2020-09-02_12h27.45.460,proactive3.1,2020.1.2,Win32,60,5f47c29a48bd2a1e651a6eb7,5f4f8188bb2be403f872281d,1,,,,,,perfume,,,,,,,,,,,2,0,0,33,33,11,1,,,,,,,,,,,,,,,,,,,,,,,,,,,,,,,,,,,,,,,,,,,,,,,,,,,,,,,,,,,,,,,,,,,,,,,,,,,,,,,,,,,,,,,,,,,,,,,,,,,,,,,,
,,?,0.00037,0,,,,,,stimuli/images/PICTURE_308.png,KIND,5ed8220554fe0533e3c394fd,19/03/2002,2020-09-02_12h27.45.460,proactive3.1,2020.1.2,Win32,60,5f47c29a48bd2a1e651a6eb7,5f4f8188bb2be403f872281d,1,,,,,,dice,,,,,,,,,,,6,0,0,34,34,54,1,,,,,,,,,,,,,,,,,,,,,,,,,,,,,,,,,,,,,,,,,,,,,,,,,,,,,,,,,,,,,,,,,,,,,,,,,,,,,,,,,,,,,,,,,,,,,,,,,,,,,,,,
,,LEADER,3.472265,1,,,,,,stimuli/images/PICTURE_160.png,LEADER,5ed8220554fe0533e3c394fd,19/03/2002,2020-09-02_12h27.45.460,proactive3.1,2020.1.2,Win32,60,5f47c29a48bd2a1e651a6eb7,5f4f8188bb2be403f872281d,1,,,,,,wheelbarrow,,,,,,,,,,,1,0,0,35,35,3,1,,,,,,,,,,,,,,,,,,,,,,,,,,,,,,,,,,,,,,,,,,,,,,,,,,,,,,,,,,,,,,,,,,,,,,,,,,,,,,,,,,,,,,,,,,,,,,,,,,,,,,,,
,,?,0.00095,0,,,,,,stimuli/images/PICTURE_356.png,DANGER,5ed8220554fe0533e3c394fd,19/03/2002,2020-09-02_12h27.45.460,proactive3.1,2020.1.2,Win32,60,5f47c29a48bd2a1e651a6eb7,5f4f8188bb2be403f872281d,1,,,,,,pawn,,,,,,,,,,,6,0,0,36,36,55,1,,,,,,,,,,,,,,,,,,,,,,,,,,,,,,,,,,,,,,,,,,,,,,,,,,,,,,,,,,,,,,,,,,,,,,,,,,,,,,,,,,,,,,,,,,,,,,,,,,,,,,,,
,,BATH,2.913865,1,,,,,,stimuli/images/PICTURE_667.png,BATH,5ed8220554fe0533e3c394fd,19/03/2002,2020-09-02_12h27.45.460,proactive3.1,2020.1.2,Win32,60,5f47c29a48bd2a1e651a6eb7,5f4f8188bb2be403f872281d,1,,,,,,daisy,,,,,,,,,,,1,0,0,37,37,4,1,,,,,,,,,,,,,,,,,,,,,,,,,,,,,,,,,,,,,,,,,,,,,,,,,,,,,,,,,,,,,,,,,,,,,,,,,,,,,,,,,,,,,,,,,,,,,,,,,,,,,,,,
,,?,0.001,0,,,,,,stimuli/images/PICTURE_68.png,MILE,5ed8220554fe0533e3c394fd,19/03/2002,2020-09-02_12h27.45.460,proactive3.1,2020.1.2,Win32,60,5f47c29a48bd2a1e651a6eb7,5f4f8188bb2be403f872281d,1,,,,,,candle,,,,,,,,,,,5,0,0,38,38,44,1,,,,,,,,,,,,,,,,,,,,,,,,,,,,,,,,,,,,,,,,,,,,,,,,,,,,,,,,,,,,,,,,,,,,,,,,,,,,,,,,,,,,,,,,,,,,,,,,,,,,,,,,
,,?,0.0005,0,,,,,,stimuli/images/PICTURE_449.png,THING,5ed8220554fe0533e3c394fd,19/03/2002,2020-09-02_12h27.45.460,proactive3.1,2020.1.2,Win32,60,5f47c29a48bd2a1e651a6eb7,5f4f8188bb2be403f872281d,1,,,,,,bench,,,,,,,,,,,6,0,0,39,39,59,1,,,,,,,,,,,,,,,,,,,,,,,,,,,,,,,,,,,,,,,,,,,,,,,,,,,,,,,,,,,,,,,,,,,,,,,,,,,,,,,,,,,,,,,,,,,,,,,,,,,,,,,,
,,?,0.00037,0,,,,,,stimuli/images/PICTURE_255.png,AREA,5ed8220554fe0533e3c394fd,19/03/2002,2020-09-02_12h27.45.460,proactive3.1,2020.1.2,Win32,60,5f47c29a48bd2a1e651a6eb7,5f4f8188bb2be403f872281d,1,,,,,,shovel,,,,,,,,,,,3,0,0,40,40,22,1,,,,,,,,,,,,,,,,,,,,,,,,,,,,,,,,,,,,,,,,,,,,,,,,,,,,,,,,,,,,,,,,,,,,,,,,,,,,,,,,,,,,,,,,,,,,,,,,,,,,,,,,
,,?,0.000445,0,,,,,,stimuli/images/PICTURE_302.png,FAMILY,5ed8220554fe0533e3c394fd,19/03/2002,2020-09-02_12h27.45.460,proactive3.1,2020.1.2,Win32,60,5f47c29a48bd2a1e651a6eb7,5f4f8188bb2be403f872281d,1,,,,,,taxi,,,,,,,,,,,2,0,0,41,41,18,1,,,,,,,,,,,,,,,,,,,,,,,,,,,,,,,,,,,,,,,,,,,,,,,,,,,,,,,,,,,,,,,,,,,,,,,,,,,,,,,,,,,,,,,,,,,,,,,,,,,,,,,,
,,?,0.000345,0,,,,,,stimuli/images/PICTURE_248.png,DOZEN,5ed8220554fe0533e3c394fd,19/03/2002,2020-09-02_12h27.45.460,proactive3.1,2020.1.2,Win32,60,5f47c29a48bd2a1e651a6eb7,5f4f8188bb2be403f872281d,1,,,,,,cart,,,,,,,,,,,4,0,0,42,42,39,1,,,,,,,,,,,,,,,,,,,,,,,,,,,,,,,,,,,,,,,,,,,,,,,,,,,,,,,,,,,,,,,,,,,,,,,,,,,,,,,,,,,,,,,,,,,,,,,,,,,,,,,,
,,?,0.000355,0,,,,,,stimuli/images/PICTURE_308.png,ESTATE,5ed8220554fe0533e3c394fd,19/03/2002,2020-09-02_12h27.45.460,proactive3.1,2020.1.2,Win32,60,5f47c29a48bd2a1e651a6eb7,5f4f8188bb2be403f872281d,1,,,,,,dice,,,,,,,,,,,5,0,0,43,43,46,1,,,,,,,,,,,,,,,,,,,,,,,,,,,,,,,,,,,,,,,,,,,,,,,,,,,,,,,,,,,,,,,,,,,,,,,,,,,,,,,,,,,,,,,,,,,,,,,,,,,,,,,,
,,?,0.000485,0,,,,,,stimuli/images/PICTURE_32.png,JUNGLE,5ed8220554fe0533e3c394fd,19/03/2002,2020-09-02_12h27.45.460,proactive3.1,2020.1.2,Win32,60,5f47c29a48bd2a1e651a6eb7,5f4f8188bb2be403f872281d,1,,,,,,crown,,,,,,,,,,,5,0,0,44,44,45,1,,,,,,,,,,,,,,,,,,,,,,,,,,,,,,,,,,,,,,,,,,,,,,,,,,,,,,,,,,,,,,,,,,,,,,,,,,,,,,,,,,,,,,,,,,,,,,,,,,,,,,,,
,,?,0.000385,0,,,,,,stimuli/images/PICTURE_677.png,MILE,5ed8220554fe0533e3c394fd,19/03/2002,2020-09-02_12h27.45.460,proactive3.1,2020.1.2,Win32,60,5f47c29a48bd2a1e651a6eb7,5f4f8188bb2be403f872281d,1,,,,,,map,,,,,,,,,,,4,0,0,45,45,30,1,,,,,,,,,,,,,,,,,,,,,,,,,,,,,,,,,,,,,,,,,,,,,,,,,,,,,,,,,,,,,,,,,,,,,,,,,,,,,,,,,,,,,,,,,,,,,,,,,,,,,,,,
,,?,0.00031,0,,,,,,stimuli/images/PICTURE_233.png,IDEAS,5ed8220554fe0533e3c394fd,19/03/2002,2020-09-02_12h27.45.460,proactive3.1,2020.1.2,Win32,60,5f47c29a48bd2a1e651a6eb7,5f4f8188bb2be403f872281d,1,,,,,,salt,,,,,,,,,,,3,0,0,46,46,28,1,,,,,,,,,,,,,,,,,,,,,,,,,,,,,,,,,,,,,,,,,,,,,,,,,,,,,,,,,,,,,,,,,,,,,,,,,,,,,,,,,,,,,,,,,,,,,,,,,,,,,,,,
,,?,0.000425,0,,,,,,stimuli/images/PICTURE_509.png,PHOTO,5ed8220554fe0533e3c394fd,19/03/2002,2020-09-02_12h27.45.460,proactive3.1,2020.1.2,Win32,60,5f47c29a48bd2a1e651a6eb7,5f4f8188bb2be403f872281d,1,,,,,,telephone,,,,,,,,,,,3,0,0,47,47,21,1,,,,,,,,,,,,,,,,,,,,,,,,,,,,,,,,,,,,,,,,,,,,,,,,,,,,,,,,,,,,,,,,,,,,,,,,,,,,,,,,,,,,,,,,,,,,,,,,,,,,,,,,
,,?,0.000455,0,,,,,,stimuli/images/PICTURE_708.png,PENNY,5ed8220554fe0533e3c394fd,19/03/2002,2020-09-02_12h27.45.460,proactive3.1,2020.1.2,Win32,60,5f47c29a48bd2a1e651a6eb7,5f4f8188bb2be403f872281d,1,,,,,,monkey,,,,,,,,,,,4,0,0,48,48,31,1,,,,,,,,,,,,,,,,,,,,,,,,,,,,,,,,,,,,,,,,,,,,,,,,,,,,,,,,,,,,,,,,,,,,,,,,,,,,,,,,,,,,,,,,,,,,,,,,,,,,,,,,
,,?,9.091325,0,,,,,,stimuli/images/PICTURE_654.png,VALLEY,5ed8220554fe0533e3c394fd,19/03/2002,2020-09-02_12h27.45.460,proactive3.1,2020.1.2,Win32,60,5f47c29a48bd2a1e651a6eb7,5f4f8188bb2be403f872281d,1,,,,,,pencil,,,,,,,,,,,1,0,0,49,49,1,1,,,,,,,,,,,,,,,,,,,,,,,,,,,,,,,,,,,,,,,,,,,,,,,,,,,,,,,,,,,,,,,,,,,,,,,,,,,,,,,,,,,,,,,,,,,,,,,,,,,,,,,,
,,ARTIST,2.232445,1,,,,,,stimuli/images/PICTURE_469.png,ARTIST,5ed8220554fe0533e3c394fd,19/03/2002,2020-09-02_12h27.45.460,proactive3.1,2020.1.2,Win32,60,5f47c29a48bd2a1e651a6eb7,5f4f8188bb2be403f872281d,1,,,,,,stool,,,,,,,,,,,1,0,0,50,50,6,1,,,,,,,,,,,,,,,,,,,,,,,,,,,,,,,,,,,,,,,,,,,,,,,,,,,,,,,,,,,,,,,,,,,,,,,,,,,,,,,,,,,,,,,,,,,,,,,,,,,,,,,,
,,?,0.00101,0,,,,,,stimuli/images/PICTURE_453.png,PLENTY,5ed8220554fe0533e3c394fd,19/03/2002,2020-09-02_12h27.45.460,proactive3.1,2020.1.2,Win32,60,5f47c29a48bd2a1e651a6eb7,5f4f8188bb2be403f872281d,1,,,,,,scissors,,,,,,,,,,,6,0,0,51,51,56,1,,,,,,,,,,,,,,,,,,,,,,,,,,,,,,,,,,,,,,,,,,,,,,,,,,,,,,,,,,,,,,,,,,,,,,,,,,,,,,,,,,,,,,,,,,,,,,,,,,,,,,,,
,,?,0.00049,0,,,,,,stimuli/images/PICTURE_203.png,ARTIST,5ed8220554fe0533e3c394fd,19/03/2002,2020-09-02_12h27.45.460,proactive3.1,2020.1.2,Win32,60,5f47c29a48bd2a1e651a6eb7,5f4f8188bb2be403f872281d,1,,,,,,cap,,,,,,,,,,,3,0,0,52,52,26,1,,,,,,,,,,,,,,,,,,,,,,,,,,,,,,,,,,,,,,,,,,,,,,,,,,,,,,,,,,,,,,,,,,,,,,,,,,,,,,,,,,,,,,,,,,,,,,,,,,,,,,,,
,,?,0.00044,0,,,,,,stimuli/images/PICTURE_744.png,SAKE,5ed8220554fe0533e3c394fd,19/03/2002,2020-09-02_12h27.45.460,proactive3.1,2020.1.2,Win32,60,5f47c29a48bd2a1e651a6eb7,5f4f8188bb2be403f872281d,1,,,,,,ring,,,,,,,,,,,2,0,0,53,53,17,1,,,,,,,,,,,,,,,,,,,,,,,,,,,,,,,,,,,,,,,,,,,,,,,,,,,,,,,,,,,,,,,,,,,,,,,,,,,,,,,,,,,,,,,,,,,,,,,,,,,,,,,,
,,?,0.00027,0,,,,,,stimuli/images/PICTURE_348.png,SPEECH,5ed8220554fe0533e3c394fd,19/03/2002,2020-09-02_12h27.45.460,proactive3.1,2020.1.2,Win32,60,5f47c29a48bd2a1e651a6eb7,5f4f8188bb2be403f872281d,1,,,,,,pepper,,,,,,,,,,,3,0,0,54,54,20,1,,,,,,,,,,,,,,,,,,,,,,,,,,,,,,,,,,,,,,,,,,,,,,,,,,,,,,,,,,,,,,,,,,,,,,,,,,,,,,,,,,,,,,,,,,,,,,,,,,,,,,,,
,,?,0.00029,0,,,,,,stimuli/images/PICTURE_208.png,LOTS,5ed8220554fe0533e3c394fd,19/03/2002,2020-09-02_12h27.45.460,proactive3.1,2020.1.2,Win32,60,5f47c29a48bd2a1e651a6eb7,5f4f8188bb2be403f872281d,1,,,,,,microphone,,,,,,,,,,,2,0,0,55,55,10,1,,,,,,,,,,,,,,,,,,,,,,,,,,,,,,,,,,,,,,,,,,,,,,,,,,,,,,,,,,,,,,,,,,,,,,,,,,,,,,,,,,,,,,,,,,,,,,,,,,,,,,,,
,,PLENTY,4.776405,1,,,,,,stimuli/images/PICTURE_339.png,PLENTY,5ed8220554fe0533e3c394fd,19/03/2002,2020-09-02_12h27.45.460,proactive3.1,2020.1.2,Win32,60,5f47c29a48bd2a1e651a6eb7,5f4f8188bb2be403f872281d,1,,,,,,backpack,,,,,,,,,,,1,0,0,56,56,0,1,,,,,,,,,,,,,,,,,,,,,,,,,,,,,,,,,,,,,,,,,,,,,,,,,,,,,,,,,,,,,,,,,,,,,,,,,,,,,,,,,,,,,,,,,,,,,,,,,,,,,,,,
,,?,0.0013,0,,,,,,stimuli/images/PICTURE_469.png,LETTER,5ed8220554fe0533e3c394fd,19/03/2002,2020-09-02_12h27.45.460,proactive3.1,2020.1.2,Win32,60,5f47c29a48bd2a1e651a6eb7,5f4f8188bb2be403f872281d,1,,,,,,stool,,,,,,,,,,,5,0,0,57,57,42,1,,,,,,,,,,,,,,,,,,,,,,,,,,,,,,,,,,,,,,,,,,,,,,,,,,,,,,,,,,,,,,,,,,,,,,,,,,,,,,,,,,,,,,,,,,,,,,,,,,,,,,,,
,,?,0.000365,0,,,,,,stimuli/images/PICTURE_233.png,WOMEN,5ed8220554fe0533e3c394fd,19/03/2002,2020-09-02_12h27.45.460,proactive3.1,2020.1.2,Win32,60,5f47c29a48bd2a1e651a6eb7,5f4f8188bb2be403f872281d,1,,,,,,salt,,,,,,,,,,,4,0,0,58,58,38,1,,,,,,,,,,,,,,,,,,,,,,,,,,,,,,,,,,,,,,,,,,,,,,,,,,,,,,,,,,,,,,,,,,,,,,,,,,,,,,,,,,,,,,,,,,,,,,,,,,,,,,,,
,,?,0.000335,0,,,,,,stimuli/images/PICTURE_470.png,CASINO,5ed8220554fe0533e3c394fd,19/03/2002,2020-09-02_12h27.45.460,proactive3.1,2020.1.2,Win32,60,5f47c29a48bd2a1e651a6eb7,5f4f8188bb2be403f872281d,1,,,,,,motorbike,,,,,,,,,,,4,0,0,59,59,36,1,,,,,,,,,,,,,,,,,,,,,,,,,,,,,,,,,,,,,,,,,,,,,,,,,,,,,,,,,,,,,,,,,,,,,,,,,,,,,,,,,,,,,,,,,,,,,,,,,,,,,,,,
,,,,,,,,,,,,5ed8220554fe0533e3c394fd,19/03/2002,2020-09-02_12h27.45.460,proactive3.1,2020.1.2,Win32,60,5f47c29a48bd2a1e651a6eb7,5f4f8188bb2be403f872281d,1,,,,,,,,,,,,,,,,,,,,,,,,0,0,0,0,1,stimuli/learn-block1.csv,,,,,,,,,,,,,,,,,,,,,,,,,,,,,,,,,,,,,,,,,,,,,,,,,,,,,,,,,,,,,,,,,,,,,,,,,,,,,,,,,,,,,,,,,,,,,,,,,,
,,,,,,,,,,stimuli/images/PICTURE_147.png,WOMEN,5ed8220554fe0533e3c394fd,19/03/2002,2020-09-02_12h27.45.460,proactive3.1,2020.1.2,Win32,60,5f47c29a48bd2a1e651a6eb7,5f4f8188bb2be403f872281d,1,,,,,,hanger,,,,,,0,0,0,7,1,1,1,,,,,,,,,,,,,,,,,,,,,,,,,,,,,,,,,,,,,,,,,,,,,,,,,,,,,,,,,,,,,,,,,,,,,,,,,,,,,,,,,,,,,,,,,,,,,,,,,,,,,,,,,,,,,
,,,,,,,,,,stimuli/images/PICTURE_685.png,PENNY,5ed8220554fe0533e3c394fd,19/03/2002,2020-09-02_12h27.45.460,proactive3.1,2020.1.2,Win32,60,5f47c29a48bd2a1e651a6eb7,5f4f8188bb2be403f872281d,1,,,,,,goose,,,,,,0,1,1,4,1,1,1,,,,,,,,,,,,,,,,,,,,,,,,,,,,,,,,,,,,,,,,,,,,,,,,,,,,,,,,,,,,,,,,,,,,,,,,,,,,,,,,,,,,,,,,,,,,,,,,,,,,,,,,,,,,,
,,,,,,,,,,stimuli/images/PICTURE_108.png,FLIGHT,5ed8220554fe0533e3c394fd,19/03/2002,2020-09-02_12h27.45.460,proactive3.1,2020.1.2,Win32,60,5f47c29a48bd2a1e651a6eb7,5f4f8188bb2be403f872281d,1,,,,,,calendar,,,,,,0,2,2,59,1,6,1,,,,,,,,,,,,,,,,,,,,,,,,,,,,,,,,,,,,,,,,,,,,,,,,,,,,,,,,,,,,,,,,,,,,,,,,,,,,,,,,,,,,,,,,,,,,,,,,,,,,,,,,,,,,,
,,,,,,,,,,stimuli/images/PICTURE_744.png,WEAPON,5ed8220554fe0533e3c394fd,19/03/2002,2020-09-02_12h27.45.460,proactive3.1,2020.1.2,Win32,60,5f47c29a48bd2a1e651a6eb7,5f4f8188bb2be403f872281d,1,,,,,,ring,,,,,,0,3,3,50,1,6,1,,,,,,,,,,,,,,,,,,,,,,,,,,,,,,,,,,,,,,,,,,,,,,,,,,,,,,,,,,,,,,,,,,,,,,,,,,,,,,,,,,,,,,,,,,,,,,,,,,,,,,,,,,,,,
,,,,,,,,,,stimuli/images/PICTURE_708.png,RECORD,5ed8220554fe0533e3c394fd,19/03/2002,2020-09-02_12h27.45.460,proactive3.1,2020.1.2,Win32,60,5f47c29a48bd2a1e651a6eb7,5f4f8188bb2be403f872281d,1,,,,,,monkey,,,,,,0,4,4,58,1,6,1,,,,,,,,,,,,,,,,,,,,,,,,,,,,,,,,,,,,,,,,,,,,,,,,,,,,,,,,,,,,,,,,,,,,,,,,,,,,,,,,,,,,,,,,,,,,,,,,,,,,,,,,,,,,,
,,,,,,,,,,stimuli/images/PICTURE_203.png,GODS,5ed8220554fe0533e3c394fd,19/03/2002,2020-09-02_12h27.45.460,proactive3.1,2020.1.2,Win32,60,5f47c29a48bd2a1e651a6eb7,5f4f8188bb2be403f872281d,1,,,,,,cap,,,,,,0,5,5,30,1,4,1,,,,,,,,,,,,,,,,,,,,,,,,,,,,,,,,,,,,,,,,,,,,,,,,,,,,,,,,,,,,,,,,,,,,,,,,,,,,,,,,,,,,,,,,,,,,,,,,,,,,,,,,,,,,,
,,,,,,,,,,stimuli/images/PICTURE_340.png,VALLEY,5ed8220554fe0533e3c394fd,19/03/2002,2020-09-02_12h27.45.460,proactive3.1,2020.1.2,Win32,60,5f47c29a48bd2a1e651a6eb7,5f4f8188bb2be403f872281d,1,,,,,,mirror,,,,,,0,6,6,54,1,6,1,,,,,,,,,,,,,,,,,,,,,,,,,,,,,,,,,,,,,,,,,,,,,,,,,,,,,,,,,,,,,,,,,,,,,,,,,,,,,,,,,,,,,,,,,,,,,,,,,,,,,,,,,,,,,
,,,,,,,,,,stimuli/images/PICTURE_33.png,FRIEND,5ed8220554fe0533e3c394fd,19/03/2002,2020-09-02_12h27.45.460,proactive3.1,2020.1.2,Win32,60,5f47c29a48bd2a1e651a6eb7,5f4f8188bb2be403f872281d,1,,,,,,frame,,,,,,0,7,7,8,1,1,1,,,,,,,,,,,,,,,,,,,,,,,,,,,,,,,,,,,,,,,,,,,,,,,,,,,,,,,,,,,,,,,,,,,,,,,,,,,,,,,,,,,,,,,,,,,,,,,,,,,,,,,,,,,,,
,,,,,,,,,,stimuli/images/PICTURE_95.png,HONEY,5ed8220554fe0533e3c394fd,19/03/2002,2020-09-02_12h27.45.460,proactive3.1,2020.1.2,Win32,60,5f47c29a48bd2a1e651a6eb7,5f4f8188bb2be403f872281d,1,,,,,,suitcase,,,,,,0,8,8,44,1,5,1,,,,,,,,,,,,,,,,,,,,,,,,,,,,,,,,,,,,,,,,,,,,,,,,,,,,,,,,,,,,,,,,,,,,,,,,,,,,,,,,,,,,,,,,,,,,,,,,,,,,,,,,,,,,,
,,,,,,,,,,stimuli/images/PICTURE_177.png,WRITER,5ed8220554fe0533e3c394fd,19/03/2002,2020-09-02_12h27.45.460,proactive3.1,2020.1.2,Win32,60,5f47c29a48bd2a1e651a6eb7,5f4f8188bb2be403f872281d,1,,,,,,mushroom,,,,,,0,9,9,41,1,5,1,,,,,,,,,,,,,,,,,,,,,,,,,,,,,,,,,,,,,,,,,,,,,,,,,,,,,,,,,,,,,,,,,,,,,,,,,,,,,,,,,,,,,,,,,,,,,,,,,,,,,,,,,,,,,
,,,,,,,,,,stimuli/images/PICTURE_449.png,DUDE,5ed8220554fe0533e3c394fd,19/03/2002,2020-09-02_12h27.45.460,proactive3.1,2020.1.2,Win32,60,5f47c29a48bd2a1e651a6eb7,5f4f8188bb2be403f872281d,1,,,,,,bench,,,,,,0,10,10,17,1,2,1,,,,,,,,,,,,,,,,,,,,,,,,,,,,,,,,,,,,,,,,,,,,,,,,,,,,,,,,,,,,,,,,,,,,,,,,,,,,,,,,,,,,,,,,,,,,,,,,,,,,,,,,,,,,,
,,,,,,,,,,stimuli/images/PICTURE_108.png,POLICY,5ed8220554fe0533e3c394fd,19/03/2002,2020-09-02_12h27.45.460,proactive3.1,2020.1.2,Win32,60,5f47c29a48bd2a1e651a6eb7,5f4f8188bb2be403f872281d,1,,,,,,calendar,,,,,,0,11,11,22,1,3,1,,,,,,,,,,,,,,,,,,,,,,,,,,,,,,,,,,,,,,,,,,,,,,,,,,,,,,,,,,,,,,,,,,,,,,,,,,,,,,,,,,,,,,,,,,,,,,,,,,,,,,,,,,,,,
,,,,,,,,,,stimuli/images/PICTURE_297.png,RIVER,5ed8220554fe0533e3c394fd,19/03/2002,2020-09-02_12h27.45.460,proactive3.1,2020.1.2,Win32,60,5f47c29a48bd2a1e651a6eb7,5f4f8188bb2be403f872281d,1,,,,,,aeroplane,,,,,,0,12,12,39,1,4,1,,,,,,,,,,,,,,,,,,,,,,,,,,,,,,,,,,,,,,,,,,,,,,,,,,,,,,,,,,,,,,,,,,,,,,,,,,,,,,,,,,,,,,,,,,,,,,,,,,,,,,,,,,,,,
,,,,,,,,,,stimuli/images/PICTURE_467.png,POLICY,5ed8220554fe0533e3c394fd,19/03/2002,2020-09-02_12h27.45.460,proactive3.1,2020.1.2,Win32,60,5f47c29a48bd2a1e651a6eb7,5f4f8188bb2be403f872281d,1,,,,,,peg,,,,,,0,13,13,53,1,6,1,,,,,,,,,,,,,,,,,,,,,,,,,,,,,,,,,,,,,,,,,,,,,,,,,,,,,,,,,,,,,,,,,,,,,,,,,,,,,,,,,,,,,,,,,,,,,,,,,,,,,,,,,,,,,
,,,,,,,,,,stimuli/images/PICTURE_380.png,HONEY,5ed8220554fe0533e3c394fd,19/03/2002,2020-09-02_12h27.45.460,proactive3.1,2020.1.2,Win32,60,5f47c29a48bd2a1e651a6eb7,5f4f8188bb2be403f872281d,1,,,,,,gorilla,,,,,,0,14,14,19,1,2,1,,,,,,,,,,,,,,,,,,,,,,,,,,,,,,,,,,,,,,,,,,,,,,,,,,,,,,,,,,,,,,,,,,,,,,,,,,,,,,,,,,,,,,,,,,,,,,,,,,,,,,,,,,,,,
,,,,,,,,,,stimuli/images/PICTURE_32.png,KIND,5ed8220554fe0533e3c394fd,19/03/2002,2020-09-02_12h27.45.460,proactive3.1,2020.1.2,Win32,60,5f47c29a48bd2a1e651a6eb7,5f4f8188bb2be403f872281d,1,,,,,,crown,,,,,,0,15,15,35,1,4,1,,,,,,,,,,,,,,,,,,,,,,,,,,,,,,,,,,,,,,,,,,,,,,,,,,,,,,,,,,,,,,,,,,,,,,,,,,,,,,,,,,,,,,,,,,,,,,,,,,,,,,,,,,,,,
,,,,,,,,,,stimuli/images/PICTURE_675.png,SALE,5ed8220554fe0533e3c394fd,19/03/2002,2020-09-02_12h27.45.460,proactive3.1,2020.1.2,Win32,60,5f47c29a48bd2a1e651a6eb7,5f4f8188bb2be403f872281d,1,,,,,,windmill,,,,,,0,16,16,47,1,5,1,,,,,,,,,,,,,,,,,,,,,,,,,,,,,,,,,,,,,,,,,,,,,,,,,,,,,,,,,,,,,,,,,,,,,,,,,,,,,,,,,,,,,,,,,,,,,,,,,,,,,,,,,,,,,
,,,,,,,,,,stimuli/images/PICTURE_750.png,HOTEL,5ed8220554fe0533e3c394fd,19/03/2002,2020-09-02_12h27.45.460,proactive3.1,2020.1.2,Win32,60,5f47c29a48bd2a1e651a6eb7,5f4f8188bb2be403f872281d,1,,,,,,kettle,,,,,,0,17,17,27,1,3,1,,,,,,,,,,,,,,,,,,,,,,,,,,,,,,,,,,,,,,,,,,,,,,,,,,,,,,,,,,,,,,,,,,,,,,,,,,,,,,,,,,,,,,,,,,,,,,,,,,,,,,,,,,,,,
,,,,,,,,,,stimuli/images/PICTURE_308.png,FAMILY,5ed8220554fe0533e3c394fd,19/03/2002,2020-09-02_12h27.45.460,proactive3.1,2020.1.2,Win32,60,5f47c29a48bd2a1e651a6eb7,5f4f8188bb2be403f872281d,1,,,,,,dice,,,,,,0,18,18,36,1,4,1,,,,,,,,,,,,,,,,,,,,,,,,,,,,,,,,,,,,,,,,,,,,,,,,,,,,,,,,,,,,,,,,,,,,,,,,,,,,,,,,,,,,,,,,,,,,,,,,,,,,,,,,,,,,,
,,,,,,,,,,stimuli/images/PICTURE_383.png,WRITER,5ed8220554fe0533e3c394fd,19/03/2002,2020-09-02_12h27.45.460,proactive3.1,2020.1.2,Win32,60,5f47c29a48bd2a1e651a6eb7,5f4f8188bb2be403f872281d,1,,,,,,coin,,,,,,0,19,19,28,1,3,1,,,,,,,,,,,,,,,,,,,,,,,,,,,,,,,,,,,,,,,,,,,,,,,,,,,,,,,,,,,,,,,,,,,,,,,,,,,,,,,,,,,,,,,,,,,,,,,,,,,,,,,,,,,,,
,,,,,,,,,,stimuli/images/PICTURE_32.png,PILLS,5ed8220554fe0533e3c394fd,19/03/2002,2020-09-02_12h27.45.460,proactive3.1,2020.1.2,Win32,60,5f47c29a48bd2a1e651a6eb7,5f4f8188bb2be403f872281d,1,,,,,,crown,,,,,,0,20,20,18,1,2,1,,,,,,,,,,,,,,,,,,,,,,,,,,,,,,,,,,,,,,,,,,,,,,,,,,,,,,,,,,,,,,,,,,,,,,,,,,,,,,,,,,,,,,,,,,,,,,,,,,,,,,,,,,,,,
,,,,,,,,,,stimuli/images/PICTURE_296.png,LOTS,5ed8220554fe0533e3c394fd,19/03/2002,2020-09-02_12h27.45.460,proactive3.1,2020.1.2,Win32,60,5f47c29a48bd2a1e651a6eb7,5f4f8188bb2be403f872281d,1,,,,,,bolt,,,,,,0,21,21,9,1,1,1,,,,,,,,,,,,,,,,,,,,,,,,,,,,,,,,,,,,,,,,,,,,,,,,,,,,,,,,,,,,,,,,,,,,,,,,,,,,,,,,,,,,,,,,,,,,,,,,,,,,,,,,,,,,,
,,,,,,,,,,stimuli/images/PICTURE_85.png,NATION,5ed8220554fe0533e3c394fd,19/03/2002,2020-09-02_12h27.45.460,proactive3.1,2020.1.2,Win32,60,5f47c29a48bd2a1e651a6eb7,5f4f8188bb2be403f872281d,1,,,,,,diamond,,,,,,0,22,22,5,1,1,1,,,,,,,,,,,,,,,,,,,,,,,,,,,,,,,,,,,,,,,,,,,,,,,,,,,,,,,,,,,,,,,,,,,,,,,,,,,,,,,,,,,,,,,,,,,,,,,,,,,,,,,,,,,,,
,,,,,,,,,,stimuli/images/PICTURE_504.png,YEAR,5ed8220554fe0533e3c394fd,19/03/2002,2020-09-02_12h27.45.460,proactive3.1,2020.1.2,Win32,60,5f47c29a48bd2a1e651a6eb7,5f4f8188bb2be403f872281d,1,,,,,,wheel,,,,,,0,23,23,13,1,2,1,,,,,,,,,,,,,,,,,,,,,,,,,,,,,,,,,,,,,,,,,,,,,,,,,,,,,,,,,,,,,,,,,,,,,,,,,,,,,,,,,,,,,,,,,,,,,,,,,,,,,,,,,,,,,
,,,,,,,,,,stimuli/images/PICTURE_2.png,FLIGHT,5ed8220554fe0533e3c394fd,19/03/2002,2020-09-02_12h27.45.460,proactive3.1,2020.1.2,Win32,60,5f47c29a48bd2a1e651a6eb7,5f4f8188bb2be403f872281d,1,,,,,,tyre,,,,,,0,24,24,15,1,2,1,,,,,,,,,,,,,,,,,,,,,,,,,,,,,,,,,,,,,,,,,,,,,,,,,,,,,,,,,,,,,,,,,,,,,,,,,,,,,,,,,,,,,,,,,,,,,,,,,,,,,,,,,,,,,
,,,,,,,,,,stimuli/images/PICTURE_147.png,YEAR,5ed8220554fe0533e3c394fd,19/03/2002,2020-09-02_12h27.45.460,proactive3.1,2020.1.2,Win32,60,5f47c29a48bd2a1e651a6eb7,5f4f8188bb2be403f872281d,1,,,,,,hanger,,,,,,0,25,25,21,1,3,1,,,,,,,,,,,,,,,,,,,,,,,,,,,,,,,,,,,,,,,,,,,,,,,,,,,,,,,,,,,,,,,,,,,,,,,,,,,,,,,,,,,,,,,,,,,,,,,,,,,,,,,,,,,,,
,,,,,,,,,,stimuli/images/PICTURE_42.png,BOYS,5ed8220554fe0533e3c394fd,19/03/2002,2020-09-02_12h27.45.460,proactive3.1,2020.1.2,Win32,60,5f47c29a48bd2a1e651a6eb7,5f4f8188bb2be403f872281d,1,,,,,,pear,,,,,,0,26,26,55,1,6,1,,,,,,,,,,,,,,,,,,,,,,,,,,,,,,,,,,,,,,,,,,,,,,,,,,,,,,,,,,,,,,,,,,,,,,,,,,,,,,,,,,,,,,,,,,,,,,,,,,,,,,,,,,,,,
,,,,,,,,,,stimuli/images/PICTURE_564.png,BATH,5ed8220554fe0533e3c394fd,19/03/2002,2020-09-02_12h27.45.460,proactive3.1,2020.1.2,Win32,60,5f47c29a48bd2a1e651a6eb7,5f4f8188bb2be403f872281d,1,,,,,,spoon,,,,,,0,27,27,26,1,3,1,,,,,,,,,,,,,,,,,,,,,,,,,,,,,,,,,,,,,,,,,,,,,,,,,,,,,,,,,,,,,,,,,,,,,,,,,,,,,,,,,,,,,,,,,,,,,,,,,,,,,,,,,,,,,
,,,,,,,,,,stimuli/images/PICTURE_95.png,BOYS,5ed8220554fe0533e3c394fd,19/03/2002,2020-09-02_12h27.45.460,proactive3.1,2020.1.2,Win32,60,5f47c29a48bd2a1e651a6eb7,5f4f8188bb2be403f872281d,1,,,,,,suitcase,,,,,,0,28,28,1,1,1,1,,,,,,,,,,,,,,,,,,,,,,,,,,,,,,,,,,,,,,,,,,,,,,,,,,,,,,,,,,,,,,,,,,,,,,,,,,,,,,,,,,,,,,,,,,,,,,,,,,,,,,,,,,,,,
,,,,,,,,,,stimuli/images/PICTURE_405.png,PLENTY,5ed8220554fe0533e3c394fd,19/03/2002,2020-09-02_12h27.45.460,proactive3.1,2020.1.2,Win32,60,5f47c29a48bd2a1e651a6eb7,5f4f8188bb2be403f872281d,1,,,,,,anchor,,,,,,0,29,29,23,1,3,1,,,,,,,,,,,,,,,,,,,,,,,,,,,,,,,,,,,,,,,,,,,,,,,,,,,,,,,,,,,,,,,,,,,,,,,,,,,,,,,,,,,,,,,,,,,,,,,,,,,,,,,,,,,,,
,,,,,,,,,,stimuli/images/PICTURE_339.png,CLIENT,5ed8220554fe0533e3c394fd,19/03/2002,2020-09-02_12h27.45.460,proactive3.1,2020.1.2,Win32,60,5f47c29a48bd2a1e651a6eb7,5f4f8188bb2be403f872281d,1,,,,,,backpack,,,,,,0,30,30,11,1,2,1,,,,,,,,,,,,,,,,,,,,,,,,,,,,,,,,,,,,,,,,,,,,,,,,,,,,,,,,,,,,,,,,,,,,,,,,,,,,,,,,,,,,,,,,,,,,,,,,,,,,,,,,,,,,,
,,,,,,,,,,stimuli/images/PICTURE_203.png,NIGHT,5ed8220554fe0533e3c394fd,19/03/2002,2020-09-02_12h27.45.460,proactive3.1,2020.1.2,Win32,60,5f47c29a48bd2a1e651a6eb7,5f4f8188bb2be403f872281d,1,,,,,,cap,,,,,,0,31,31,2,1,1,1,,,,,,,,,,,,,,,,,,,,,,,,,,,,,,,,,,,,,,,,,,,,,,,,,,,,,,,,,,,,,,,,,,,,,,,,,,,,,,,,,,,,,,,,,,,,,,,,,,,,,,,,,,,,,
,,,,,,,,,,stimuli/images/PICTURE_285.png,LIFE,5ed8220554fe0533e3c394fd,19/03/2002,2020-09-02_12h27.45.460,proactive3.1,2020.1.2,Win32,60,5f47c29a48bd2a1e651a6eb7,5f4f8188bb2be403f872281d,1,,,,,,carrot,,,,,,0,32,32,33,1,4,1,,,,,,,,,,,,,,,,,,,,,,,,,,,,,,,,,,,,,,,,,,,,,,,,,,,,,,,,,,,,,,,,,,,,,,,,,,,,,,,,,,,,,,,,,,,,,,,,,,,,,,,,,,,,,
,,,,,,,,,,stimuli/images/PICTURE_296.png,LIFE,5ed8220554fe0533e3c394fd,19/03/2002,2020-09-02_12h27.45.460,proactive3.1,2020.1.2,Win32,60,5f47c29a48bd2a1e651a6eb7,5f4f8188bb2be403f872281d,1,,,,,,bolt,,,,,,0,33,33,57,1,6,1,,,,,,,,,,,,,,,,,,,,,,,,,,,,,,,,,,,,,,,,,,,,,,,,,,,,,,,,,,,,,,,,,,,,,,,,,,,,,,,,,,,,,,,,,,,,,,,,,,,,,,,,,,,,,
,,,,,,,,,,stimuli/images/PICTURE_383.png,SERIES,5ed8220554fe0533e3c394fd,19/03/2002,2020-09-02_12h27.45.460,proactive3.1,2020.1.2,Win32,60,5f47c29a48bd2a1e651a6eb7,5f4f8188bb2be403f872281d,1,,,,,,coin,,,,,,0,34,34,46,1,5,1,,,,,,,,,,,,,,,,,,,,,,,,,,,,,,,,,,,,,,,,,,,,,,,,,,,,,,,,,,,,,,,,,,,,,,,,,,,,,,,,,,,,,,,,,,,,,,,,,,,,,,,,,,,,,
,,,,,,,,,,stimuli/images/PICTURE_677.png,APPLE,5ed8220554fe0533e3c394fd,19/03/2002,2020-09-02_12h27.45.460,proactive3.1,2020.1.2,Win32,60,5f47c29a48bd2a1e651a6eb7,5f4f8188bb2be403f872281d,1,,,,,,map,,,,,,0,35,35,43,1,5,1,,,,,,,,,,,,,,,,,,,,,,,,,,,,,,,,,,,,,,,,,,,,,,,,,,,,,,,,,,,,,,,,,,,,,,,,,,,,,,,,,,,,,,,,,,,,,,,,,,,,,,,,,,,,,
,,,,,,,,,,stimuli/images/PICTURE_504.png,ARTIST,5ed8220554fe0533e3c394fd,19/03/2002,2020-09-02_12h27.45.460,proactive3.1,2020.1.2,Win32,60,5f47c29a48bd2a1e651a6eb7,5f4f8188bb2be403f872281d,1,,,,,,wheel,,,,,,0,36,36,49,1,5,1,,,,,,,,,,,,,,,,,,,,,,,,,,,,,,,,,,,,,,,,,,,,,,,,,,,,,,,,,,,,,,,,,,,,,,,,,,,,,,,,,,,,,,,,,,,,,,,,,,,,,,,,,,,,,
,,,,,,,,,,stimuli/images/PICTURE_487.png,GIRL,5ed8220554fe0533e3c394fd,19/03/2002,2020-09-02_12h27.45.460,proactive3.1,2020.1.2,Win32,60,5f47c29a48bd2a1e651a6eb7,5f4f8188bb2be403f872281d,1,,,,,,basket,,,,,,0,37,37,45,1,5,1,,,,,,,,,,,,,,,,,,,,,,,,,,,,,,,,,,,,,,,,,,,,,,,,,,,,,,,,,,,,,,,,,,,,,,,,,,,,,,,,,,,,,,,,,,,,,,,,,,,,,,,,,,,,,
,,,,,,,,,,stimuli/images/PICTURE_403.png,TOILET,5ed8220554fe0533e3c394fd,19/03/2002,2020-09-02_12h27.45.460,proactive3.1,2020.1.2,Win32,60,5f47c29a48bd2a1e651a6eb7,5f4f8188bb2be403f872281d,1,,,,,,cathedral,,,,,,0,38,38,25,1,3,1,,,,,,,,,,,,,,,,,,,,,,,,,,,,,,,,,,,,,,,,,,,,,,,,,,,,,,,,,,,,,,,,,,,,,,,,,,,,,,,,,,,,,,,,,,,,,,,,,,,,,,,,,,,,,
,,,,,,,,,,stimuli/images/PICTURE_491.png,RIVER,5ed8220554fe0533e3c394fd,19/03/2002,2020-09-02_12h27.45.460,proactive3.1,2020.1.2,Win32,60,5f47c29a48bd2a1e651a6eb7,5f4f8188bb2be403f872281d,1,,,,,,rug,,,,,,0,39,39,6,1,1,1,,,,,,,,,,,,,,,,,,,,,,,,,,,,,,,,,,,,,,,,,,,,,,,,,,,,,,,,,,,,,,,,,,,,,,,,,,,,,,,,,,,,,,,,,,,,,,,,,,,,,,,,,,,,,
,,,,,,,,,,stimuli/images/PICTURE_403.png,RIVER,5ed8220554fe0533e3c394fd,19/03/2002,2020-09-02_12h27.45.460,proactive3.1,2020.1.2,Win32,60,5f47c29a48bd2a1e651a6eb7,5f4f8188bb2be403f872281d,1,,,,,,cathedral,,,,,,0,40,40,40,1,5,1,,,,,,,,,,,,,,,,,,,,,,,,,,,,,,,,,,,,,,,,,,,,,,,,,,,,,,,,,,,,,,,,,,,,,,,,,,,,,,,,,,,,,,,,,,,,,,,,,,,,,,,,,,,,,
,,,,,,,,,,stimuli/images/PICTURE_95.png,MILLER,5ed8220554fe0533e3c394fd,19/03/2002,2020-09-02_12h27.45.460,proactive3.1,2020.1.2,Win32,60,5f47c29a48bd2a1e651a6eb7,5f4f8188bb2be403f872281d,1,,,,,,suitcase,,,,,,0,41,41,56,1,6,1,,,,,,,,,,,,,,,,,,,,,,,,,,,,,,,,,,,,,,,,,,,,,,,,,,,,,,,,,,,,,,,,,,,,,,,,,,,,,,,,,,,,,,,,,,,,,,,,,,,,,,,,,,,,,
,,,,,,,,,,stimuli/images/PICTURE_380.png,CANDY,5ed8220554fe0533e3c394fd,19/03/2002,2020-09-02_12h27.45.460,proactive3.1,2020.1.2,Win32,60,5f47c29a48bd2a1e651a6eb7,5f4f8188bb2be403f872281d,1,,,,,,gorilla,,,,,,0,42,42,0,1,1,1,,,,,,,,,,,,,,,,,,,,,,,,,,,,,,,,,,,,,,,,,,,,,,,,,,,,,,,,,,,,,,,,,,,,,,,,,,,,,,,,,,,,,,,,,,,,,,,,,,,,,,,,,,,,,
,,,,,,,,,,stimuli/images/PICTURE_667.png,RIVER,5ed8220554fe0533e3c394fd,19/03/2002,2020-09-02_12h27.45.460,proactive3.1,2020.1.2,Win32,60,5f47c29a48bd2a1e651a6eb7,5f4f8188bb2be403f872281d,1,,,,,,daisy,,,,,,0,43,43,10,1,2,1,,,,,,,,,,,,,,,,,,,,,,,,,,,,,,,,,,,,,,,,,,,,,,,,,,,,,,,,,,,,,,,,,,,,,,,,,,,,,,,,,,,,,,,,,,,,,,,,,,,,,,,,,,,,,
,,,,,,,,,,stimuli/images/PICTURE_327.png,SERIES,5ed8220554fe0533e3c394fd,19/03/2002,2020-09-02_12h27.45.460,proactive3.1,2020.1.2,Win32,60,5f47c29a48bd2a1e651a6eb7,5f4f8188bb2be403f872281d,1,,,,,,helmet,,,,,,0,44,44,3,1,1,1,,,,,,,,,,,,,,,,,,,,,,,,,,,,,,,,,,,,,,,,,,,,,,,,,,,,,,,,,,,,,,,,,,,,,,,,,,,,,,,,,,,,,,,,,,,,,,,,,,,,,,,,,,,,,
,,,,,,,,,,stimuli/images/PICTURE_504.png,COPS,5ed8220554fe0533e3c394fd,19/03/2002,2020-09-02_12h27.45.460,proactive3.1,2020.1.2,Win32,60,5f47c29a48bd2a1e651a6eb7,5f4f8188bb2be403f872281d,1,,,,,,wheel,,,,,,0,45,45,52,1,6,1,,,,,,,,,,,,,,,,,,,,,,,,,,,,,,,,,,,,,,,,,,,,,,,,,,,,,,,,,,,,,,,,,,,,,,,,,,,,,,,,,,,,,,,,,,,,,,,,,,,,,,,,,,,,,
,,,,,,,,,,stimuli/images/PICTURE_85.png,TOILET,5ed8220554fe0533e3c394fd,19/03/2002,2020-09-02_12h27.45.460,proactive3.1,2020.1.2,Win32,60,5f47c29a48bd2a1e651a6eb7,5f4f8188bb2be403f872281d,1,,,,,,diamond,,,,,,0,46,46,48,1,5,1,,,,,,,,,,,,,,,,,,,,,,,,,,,,,,,,,,,,,,,,,,,,,,,,,,,,,,,,,,,,,,,,,,,,,,,,,,,,,,,,,,,,,,,,,,,,,,,,,,,,,,,,,,,,,
,,,,,,,,,,stimuli/images/PICTURE_654.png,MONTH,5ed8220554fe0533e3c394fd,19/03/2002,2020-09-02_12h27.45.460,proactive3.1,2020.1.2,Win32,60,5f47c29a48bd2a1e651a6eb7,5f4f8188bb2be403f872281d,1,,,,,,pencil,,,,,,0,47,47,29,1,3,1,,,,,,,,,,,,,,,,,,,,,,,,,,,,,,,,,,,,,,,,,,,,,,,,,,,,,,,,,,,,,,,,,,,,,,,,,,,,,,,,,,,,,,,,,,,,,,,,,,,,,,,,,,,,,
,,,,,,,,,,stimuli/images/PICTURE_340.png,LETTER,5ed8220554fe0533e3c394fd,19/03/2002,2020-09-02_12h27.45.460,proactive3.1,2020.1.2,Win32,60,5f47c29a48bd2a1e651a6eb7,5f4f8188bb2be403f872281d,1,,,,,,mirror,,,,,,0,48,48,24,1,3,1,,,,,,,,,,,,,,,,,,,,,,,,,,,,,,,,,,,,,,,,,,,,,,,,,,,,,,,,,,,,,,,,,,,,,,,,,,,,,,,,,,,,,,,,,,,,,,,,,,,,,,,,,,,,,
,,,,,,,,,,stimuli/images/PICTURE_403.png,WRITER,5ed8220554fe0533e3c394fd,19/03/2002,2020-09-02_12h27.45.460,proactive3.1,2020.1.2,Win32,60,5f47c29a48bd2a1e651a6eb7,5f4f8188bb2be403f872281d,1,,,,,,cathedral,,,,,,0,49,49,31,1,4,1,,,,,,,,,,,,,,,,,,,,,,,,,,,,,,,,,,,,,,,,,,,,,,,,,,,,,,,,,,,,,,,,,,,,,,,,,,,,,,,,,,,,,,,,,,,,,,,,,,,,,,,,,,,,,
,,,,,,,,,,stimuli/images/PICTURE_469.png,AGENT,5ed8220554fe0533e3c394fd,19/03/2002,2020-09-02_12h27.45.460,proactive3.1,2020.1.2,Win32,60,5f47c29a48bd2a1e651a6eb7,5f4f8188bb2be403f872281d,1,,,,,,stool,,,,,,0,50,50,16,1,2,1,,,,,,,,,,,,,,,,,,,,,,,,,,,,,,,,,,,,,,,,,,,,,,,,,,,,,,,,,,,,,,,,,,,,,,,,,,,,,,,,,,,,,,,,,,,,,,,,,,,,,,,,,,,,,
,,,,,,,,,,stimuli/images/PICTURE_327.png,CASINO,5ed8220554fe0533e3c394fd,19/03/2002,2020-09-02_12h27.45.460,proactive3.1,2020.1.2,Win32,60,5f47c29a48bd2a1e651a6eb7,5f4f8188bb2be403f872281d,1,,,,,,helmet,,,,,,0,51,51,20,1,3,1,,,,,,,,,,,,,,,,,,,,,,,,,,,,,,,,,,,,,,,,,,,,,,,,,,,,,,,,,,,,,,,,,,,,,,,,,,,,,,,,,,,,,,,,,,,,,,,,,,,,,,,,,,,,,
,,,,,,,,,,stimuli/images/PICTURE_233.png,LOTS,5ed8220554fe0533e3c394fd,19/03/2002,2020-09-02_12h27.45.460,proactive3.1,2020.1.2,Win32,60,5f47c29a48bd2a1e651a6eb7,5f4f8188bb2be403f872281d,1,,,,,,salt,,,,,,0,52,52,42,1,5,1,,,,,,,,,,,,,,,,,,,,,,,,,,,,,,,,,,,,,,,,,,,,,,,,,,,,,,,,,,,,,,,,,,,,,,,,,,,,,,,,,,,,,,,,,,,,,,,,,,,,,,,,,,,,,
,,,,,,,,,,stimuli/images/PICTURE_208.png,SYSTEM,5ed8220554fe0533e3c394fd,19/03/2002,2020-09-02_12h27.45.460,proactive3.1,2020.1.2,Win32,60,5f47c29a48bd2a1e651a6eb7,5f4f8188bb2be403f872281d,1,,,,,,microphone,,,,,,0,53,53,32,1,4,1,,,,,,,,,,,,,,,,,,,,,,,,,,,,,,,,,,,,,,,,,,,,,,,,,,,,,,,,,,,,,,,,,,,,,,,,,,,,,,,,,,,,,,,,,,,,,,,,,,,,,,,,,,,,,
,,,,,,,,,,stimuli/images/PICTURE_57.png,MOMENT,5ed8220554fe0533e3c394fd,19/03/2002,2020-09-02_12h27.45.460,proactive3.1,2020.1.2,Win32,60,5f47c29a48bd2a1e651a6eb7,5f4f8188bb2be403f872281d,1,,,,,,stamp,,,,,,0,54,54,37,1,4,1,,,,,,,,,,,,,,,,,,,,,,,,,,,,,,,,,,,,,,,,,,,,,,,,,,,,,,,,,,,,,,,,,,,,,,,,,,,,,,,,,,,,,,,,,,,,,,,,,,,,,,,,,,,,,
,,,,,,,,,,stimuli/images/PICTURE_405.png,YEAR,5ed8220554fe0533e3c394fd,19/03/2002,2020-09-02_12h27.45.460,proactive3.1,2020.1.2,Win32,60,5f47c29a48bd2a1e651a6eb7,5f4f8188bb2be403f872281d,1,,,,,,anchor,,,,,,0,55,55,34,1,4,1,,,,,,,,,,,,,,,,,,,,,,,,,,,,,,,,,,,,,,,,,,,,,,,,,,,,,,,,,,,,,,,,,,,,,,,,,,,,,,,,,,,,,,,,,,,,,,,,,,,,,,,,,,,,,
,,,,,,,,,,stimuli/images/PICTURE_655.png,TOILET,5ed8220554fe0533e3c394fd,19/03/2002,2020-09-02_12h27.45.460,proactive3.1,2020.1.2,Win32,60,5f47c29a48bd2a1e651a6eb7,5f4f8188bb2be403f872281d,1,,,,,,megaphone,,,,,,0,56,56,12,1,2,1,,,,,,,,,,,,,,,,,,,,,,,,,,,,,,,,,,,,,,,,,,,,,,,,,,,,,,,,,,,,,,,,,,,,,,,,,,,,,,,,,,,,,,,,,,,,,,,,,,,,,,,,,,,,,
,,,,,,,,,,stimuli/images/PICTURE_68.png,MILE,5ed8220554fe0533e3c394fd,19/03/2002,2020-09-02_12h27.45.460,proactive3.1,2020.1.2,Win32,60,5f47c29a48bd2a1e651a6eb7,5f4f8188bb2be403f872281d,1,,,,,,candle,,,,,,0,57,57,51,1,6,1,,,,,,,,,,,,,,,,,,,,,,,,,,,,,,,,,,,,,,,,,,,,,,,,,,,,,,,,,,,,,,,,,,,,,,,,,,,,,,,,,,,,,,,,,,,,,,,,,,,,,,,,,,,,,
,,,,,,,,,,stimuli/images/PICTURE_68.png,ROOF,5ed8220554fe0533e3c394fd,19/03/2002,2020-09-02_12h27.45.460,proactive3.1,2020.1.2,Win32,60,5f47c29a48bd2a1e651a6eb7,5f4f8188bb2be403f872281d,1,,,,,,candle,,,,,,0,58,58,38,1,4,1,,,,,,,,,,,,,,,,,,,,,,,,,,,,,,,,,,,,,,,,,,,,,,,,,,,,,,,,,,,,,,,,,,,,,,,,,,,,,,,,,,,,,,,,,,,,,,,,,,,,,,,,,,,,,
,,?,0.00056,0,,,,,,stimuli/images/PICTURE_208.png,SYSTEM,5ed8220554fe0533e3c394fd,19/03/2002,2020-09-02_12h27.45.460,proactive3.1,2020.1.2,Win32,60,5f47c29a48bd2a1e651a6eb7,5f4f8188bb2be403f872281d,1,,,,,,microphone,,,,,,,,,,,4,1,0,0,0,32,1,,,,,,,,,,,,,,,,,,,,,,,,,,,,,,,,,,,,,,,,,,,,,,,,,,,,,,,,,,,,,,,,,,,,,,,,,,,,,,,,,,,,,,,,,,,,,,,,,,,,,,,,
,,WOMAN,2.176615,0,,,,,,stimuli/images/PICTURE_147.png,WOMEN,5ed8220554fe0533e3c394fd,19/03/2002,2020-09-02_12h27.45.460,proactive3.1,2020.1.2,Win32,60,5f47c29a48bd2a1e651a6eb7,5f4f8188bb2be403f872281d,1,,,,,,hanger,,,,,,,,,,,1,1,0,1,1,7,1,,,,,,,,,,,,,,,,,,,,,,,,,,,,,,,,,,,,,,,,,,,,,,,,,,,,,,,,,,,,,,,,,,,,,,,,,,,,,,,,,,,,,,,,,,,,,,,,,,,,,,,,
,,?,0.00099,0,,,,,,stimuli/images/PICTURE_32.png,PILLS,5ed8220554fe0533e3c394fd,19/03/2002,2020-09-02_12h27.45.460,proactive3.1,2020.1.2,Win32,60,5f47c29a48bd2a1e651a6eb7,5f4f8188bb2be403f872281d,1,,,,,,crown,,,,,,,,,,,2,1,0,2,2,18,1,,,,,,,,,,,,,,,,,,,,,,,,,,,,,,,,,,,,,,,,,,,,,,,,,,,,,,,,,,,,,,,,,,,,,,,,,,,,,,,,,,,,,,,,,,,,,,,,,,,,,,,,
,,?,0.00055,0,,,,,,stimuli/images/PICTURE_677.png,APPLE,5ed8220554fe0533e3c394fd,19/03/2002,2020-09-02_12h27.45.460,proactive3.1,2020.1.2,Win32,60,5f47c29a48bd2a1e651a6eb7,5f4f8188bb2be403f872281d,1,,,,,,map,,,,,,,,,,,5,1,0,3,3,43,1,,,,,,,,,,,,,,,,,,,,,,,,,,,,,,,,,,,,,,,,,,,,,,,,,,,,,,,,,,,,,,,,,,,,,,,,,,,,,,,,,,,,,,,,,,,,,,,,,,,,,,,,
,,?,0.00051,0,,,,,,stimuli/images/PICTURE_491.png,GLASS,5ed8220554fe0533e3c394fd,19/03/2002,2020-09-02_12h27.45.460,proactive3.1,2020.1.2,Win32,60,5f47c29a48bd2a1e651a6eb7,5f4f8188bb2be403f872281d,1,,,,,,rug,,,,,,,,,,,2,1,0,4,4,14,1,,,,,,,,,,,,,,,,,,,,,,,,,,,,,,,,,,,,,,,,,,,,,,,,,,,,,,,,,,,,,,,,,,,,,,,,,,,,,,,,,,,,,,,,,,,,,,,,,,,,,,,,
,,?,0.00041,0,,,,,,stimuli/images/PICTURE_147.png,YEAR,5ed8220554fe0533e3c394fd,19/03/2002,2020-09-02_12h27.45.460,proactive3.1,2020.1.2,Win32,60,5f47c29a48bd2a1e651a6eb7,5f4f8188bb2be403f872281d,1,,,,,,hanger,,,,,,,,,,,3,1,0,5,5,21,1,,,,,,,,,,,,,,,,,,,,,,,,,,,,,,,,,,,,,,,,,,,,,,,,,,,,,,,,,,,,,,,,,,,,,,,,,,,,,,,,,,,,,,,,,,,,,,,,,,,,,,,,
,,?,0.00027,0,,,,,,stimuli/images/PICTURE_403.png,WRITER,5ed8220554fe0533e3c394fd,19/03/2002,2020-09-02_12h27.45.460,proactive3.1,2020.1.2,Win32,60,5f47c29a48bd2a1e651a6eb7,5f4f8188bb2be403f872281d,1,,,,,,cathedral,,,,,,,,,,,4,1,0,6,6,31,1,,,,,,,,,,,,,,,,,,,,,,,,,,,,,,,,,,,,,,,,,,,,,,,,,,,,,,,,,,,,,,,,,,,,,,,,,,,,,,,,,,,,,,,,,,,,,,,,,,,,,,,,
,,?,0.00026,0,,,,,,stimuli/images/PICTURE_177.png,WRITER,5ed8220554fe0533e3c394fd,19/03/2002,2020-09-02_12h27.45.460,proactive3.1,2020.1.2,Win32,60,5f47c29a48bd2a1e651a6eb7,5f4f8188bb2be403f872281d,1,,,,,,mushroom,,,,,,,,,,,5,1,0,7,7,41,1,,,,,,,,,,,,,,,,,,,,,,,,,,,,,,,,,,,,,,,,,,,,,,,,,,,,,,,,,,,,,,,,,,,,,,,,,,,,,,,,,,,,,,,,,,,,,,,,,,,,,,,,
,,?,0.000325,0,,,,,,stimuli/images/PICTURE_57.png,MOMENT,5ed8220554fe0533e3c394fd,19/03/2002,2020-09-02_12h27.45.460,proactive3.1,2020.1.2,Win32,60,5f47c29a48bd2a1e651a6eb7,5f4f8188bb2be403f872281d,1,,,,,,stamp,,,,,,,,,,,4,1,0,8,8,37,1,,,,,,,,,,,,,,,,,,,,,,,,,,,,,,,,,,,,,,,,,,,,,,,,,,,,,,,,,,,,,,,,,,,,,,,,,,,,,,,,,,,,,,,,,,,,,,,,,,,,,,,,
,,?,0.00024,0,,,,,,stimuli/images/PICTURE_68.png,MILE,5ed8220554fe0533e3c394fd,19/03/2002,2020-09-02_12h27.45.460,proactive3.1,2020.1.2,Win32,60,5f47c29a48bd2a1e651a6eb7,5f4f8188bb2be403f872281d,1,,,,,,candle,,,,,,,,,,,6,1,0,9,9,51,1,,,,,,,,,,,,,,,,,,,,,,,,,,,,,,,,,,,,,,,,,,,,,,,,,,,,,,,,,,,,,,,,,,,,,,,,,,,,,,,,,,,,,,,,,,,,,,,,,,,,,,,,
,,?,0.000225,0,,,,,,stimuli/images/PICTURE_403.png,RIVER,5ed8220554fe0533e3c394fd,19/03/2002,2020-09-02_12h27.45.460,proactive3.1,2020.1.2,Win32,60,5f47c29a48bd2a1e651a6eb7,5f4f8188bb2be403f872281d,1,,,,,,cathedral,,,,,,,,,,,5,1,0,10,10,40,1,,,,,,,,,,,,,,,,,,,,,,,,,,,,,,,,,,,,,,,,,,,,,,,,,,,,,,,,,,,,,,,,,,,,,,,,,,,,,,,,,,,,,,,,,,,,,,,,,,,,,,,,
,,?,0.000295,0,,,,,,stimuli/images/PICTURE_667.png,RIVER,5ed8220554fe0533e3c394fd,19/03/2002,2020-09-02_12h27.45.460,proactive3.1,2020.1.2,Win32,60,5f47c29a48bd2a1e651a6eb7,5f4f8188bb2be403f872281d,1,,,,,,daisy,,,,,,,,,,,2,1,0,11,11,10,1,,,,,,,,,,,,,,,,,,,,,,,,,,,,,,,,,,,,,,,,,,,,,,,,,,,,,,,,,,,,,,,,,,,,,,,,,,,,,,,,,,,,,,,,,,,,,,,,,,,,,,,,
,,?,0.000455,0,,,,,,stimuli/images/PICTURE_744.png,WEAPON,5ed8220554fe0533e3c394fd,19/03/2002,2020-09-02_12h27.45.460,proactive3.1,2020.1.2,Win32,60,5f47c29a48bd2a1e651a6eb7,5f4f8188bb2be403f872281d,1,,,,,,ring,,,,,,,,,,,6,1,0,12,12,50,1,,,,,,,,,,,,,,,,,,,,,,,,,,,,,,,,,,,,,,,,,,,,,,,,,,,,,,,,,,,,,,,,,,,,,,,,,,,,,,,,,,,,,,,,,,,,,,,,,,,,,,,,
,,?,0.000235,0,,,,,,stimuli/images/PICTURE_655.png,TOILET,5ed8220554fe0533e3c394fd,19/03/2002,2020-09-02_12h27.45.460,proactive3.1,2020.1.2,Win32,60,5f47c29a48bd2a1e651a6eb7,5f4f8188bb2be403f872281d,1,,,,,,megaphone,,,,,,,,,,,2,1,0,13,13,12,1,,,,,,,,,,,,,,,,,,,,,,,,,,,,,,,,,,,,,,,,,,,,,,,,,,,,,,,,,,,,,,,,,,,,,,,,,,,,,,,,,,,,,,,,,,,,,,,,,,,,,,,,
,,?,0.000255,0,,,,,,stimuli/images/PICTURE_2.png,FLIGHT,5ed8220554fe0533e3c394fd,19/03/2002,2020-09-02_12h27.45.460,proactive3.1,2020.1.2,Win32,60,5f47c29a48bd2a1e651a6eb7,5f4f8188bb2be403f872281d,1,,,,,,tyre,,,,,,,,,,,2,1,0,14,14,15,1,,,,,,,,,,,,,,,,,,,,,,,,,,,,,,,,,,,,,,,,,,,,,,,,,,,,,,,,,,,,,,,,,,,,,,,,,,,,,,,,,,,,,,,,,,,,,,,,,,,,,,,,
,,?,0.00023,0,,,,,,stimuli/images/PICTURE_405.png,YEAR,5ed8220554fe0533e3c394fd,19/03/2002,2020-09-02_12h27.45.460,proactive3.1,2020.1.2,Win32,60,5f47c29a48bd2a1e651a6eb7,5f4f8188bb2be403f872281d,1,,,,,,anchor,,,,,,,,,,,4,1,0,15,15,34,1,,,,,,,,,,,,,,,,,,,,,,,,,,,,,,,,,,,,,,,,,,,,,,,,,,,,,,,,,,,,,,,,,,,,,,,,,,,,,,,,,,,,,,,,,,,,,,,,,,,,,,,,
,,LOTS,2.468355,1,,,,,,stimuli/images/PICTURE_296.png,LOTS,5ed8220554fe0533e3c394fd,19/03/2002,2020-09-02_12h27.45.460,proactive3.1,2020.1.2,Win32,60,5f47c29a48bd2a1e651a6eb7,5f4f8188bb2be403f872281d,1,,,,,,bolt,,,,,,,,,,,1,1,0,16,16,9,1,,,,,,,,,,,,,,,,,,,,,,,,,,,,,,,,,,,,,,,,,,,,,,,,,,,,,,,,,,,,,,,,,,,,,,,,,,,,,,,,,,,,,,,,,,,,,,,,,,,,,,,,
,,BOYS,2.032705,1,,,,,,stimuli/images/PICTURE_95.png,BOYS,5ed8220554fe0533e3c394fd,19/03/2002,2020-09-02_12h27.45.460,proactive3.1,2020.1.2,Win32,60,5f47c29a48bd2a1e651a6eb7,5f4f8188bb2be403f872281d,1,,,,,,suitcase,,,,,,,,,,,1,1,0,17,17,1,1,,,,,,,,,,,,,,,,,,,,,,,,,,,,,,,,,,,,,,,,,,,,,,,,,,,,,,,,,,,,,,,,,,,,,,,,,,,,,,,,,,,,,,,,,,,,,,,,,,,,,,,,
,,?,0.001205,0,,,,,,stimuli/images/PICTURE_108.png,POLICY,5ed8220554fe0533e3c394fd,19/03/2002,2020-09-02_12h27.45.460,proactive3.1,2020.1.2,Win32,60,5f47c29a48bd2a1e651a6eb7,5f4f8188bb2be403f872281d,1,,,,,,calendar,,,,,,,,,,,3,1,0,18,18,22,1,,,,,,,,,,,,,,,,,,,,,,,,,,,,,,,,,,,,,,,,,,,,,,,,,,,,,,,,,,,,,,,,,,,,,,,,,,,,,,,,,,,,,,,,,,,,,,,,,,,,,,,,
,,?,0.00053,0,,,,,,stimuli/images/PICTURE_654.png,MONTH,5ed8220554fe0533e3c394fd,19/03/2002,2020-09-02_12h27.45.460,proactive3.1,2020.1.2,Win32,60,5f47c29a48bd2a1e651a6eb7,5f4f8188bb2be403f872281d,1,,,,,,pencil,,,,,,,,,,,3,1,0,19,19,29,1,,,,,,,,,,,,,,,,,,,,,,,,,,,,,,,,,,,,,,,,,,,,,,,,,,,,,,,,,,,,,,,,,,,,,,,,,,,,,,,,,,,,,,,,,,,,,,,,,,,,,,,,
,,?,0.000305,0,,,,,,stimuli/images/PICTURE_383.png,SERIES,5ed8220554fe0533e3c394fd,19/03/2002,2020-09-02_12h27.45.460,proactive3.1,2020.1.2,Win32,60,5f47c29a48bd2a1e651a6eb7,5f4f8188bb2be403f872281d,1,,,,,,coin,,,,,,,,,,,5,1,0,20,20,46,1,,,,,,,,,,,,,,,,,,,,,,,,,,,,,,,,,,,,,,,,,,,,,,,,,,,,,,,,,,,,,,,,,,,,,,,,,,,,,,,,,,,,,,,,,,,,,,,,,,,,,,,,
,,?,0.000305,0,,,,,,stimuli/images/PICTURE_42.png,BOYS,5ed8220554fe0533e3c394fd,19/03/2002,2020-09-02_12h27.45.460,proactive3.1,2020.1.2,Win32,60,5f47c29a48bd2a1e651a6eb7,5f4f8188bb2be403f872281d,1,,,,,,pear,,,,,,,,,,,6,1,0,21,21,55,1,,,,,,,,,,,,,,,,,,,,,,,,,,,,,,,,,,,,,,,,,,,,,,,,,,,,,,,,,,,,,,,,,,,,,,,,,,,,,,,,,,,,,,,,,,,,,,,,,,,,,,,,
,,SERIES,1.961065,1,,,,,,stimuli/images/PICTURE_327.png,SERIES,5ed8220554fe0533e3c394fd,19/03/2002,2020-09-02_12h27.45.460,proactive3.1,2020.1.2,Win32,60,5f47c29a48bd2a1e651a6eb7,5f4f8188bb2be403f872281d,1,,,,,,helmet,,,,,,,,,,,1,1,0,22,22,3,1,,,,,,,,,,,,,,,,,,,,,,,,,,,,,,,,,,,,,,,,,,,,,,,,,,,,,,,,,,,,,,,,,,,,,,,,,,,,,,,,,,,,,,,,,,,,,,,,,,,,,,,,
,,?,0.000725,0,,,,,,stimuli/images/PICTURE_504.png,COPS,5ed8220554fe0533e3c394fd,19/03/2002,2020-09-02_12h27.45.460,proactive3.1,2020.1.2,Win32,60,5f47c29a48bd2a1e651a6eb7,5f4f8188bb2be403f872281d,1,,,,,,wheel,,,,,,,,,,,6,1,0,23,23,52,1,,,,,,,,,,,,,,,,,,,,,,,,,,,,,,,,,,,,,,,,,,,,,,,,,,,,,,,,,,,,,,,,,,,,,,,,,,,,,,,,,,,,,,,,,,,,,,,,,,,,,,,,
,,?,0.00029,0,,,,,,stimuli/images/PICTURE_327.png,CASINO,5ed8220554fe0533e3c394fd,19/03/2002,2020-09-02_12h27.45.460,proactive3.1,2020.1.2,Win32,60,5f47c29a48bd2a1e651a6eb7,5f4f8188bb2be403f872281d,1,,,,,,helmet,,,,,,,,,,,3,1,0,24,24,20,1,,,,,,,,,,,,,,,,,,,,,,,,,,,,,,,,,,,,,,,,,,,,,,,,,,,,,,,,,,,,,,,,,,,,,,,,,,,,,,,,,,,,,,,,,,,,,,,,,,,,,,,,
,,?,0.00025,0,,,,,,stimuli/images/PICTURE_296.png,LIFE,5ed8220554fe0533e3c394fd,19/03/2002,2020-09-02_12h27.45.460,proactive3.1,2020.1.2,Win32,60,5f47c29a48bd2a1e651a6eb7,5f4f8188bb2be403f872281d,1,,,,,,bolt,,,,,,,,,,,6,1,0,25,25,57,1,,,,,,,,,,,,,,,,,,,,,,,,,,,,,,,,,,,,,,,,,,,,,,,,,,,,,,,,,,,,,,,,,,,,,,,,,,,,,,,,,,,,,,,,,,,,,,,,,,,,,,,,
,,?,0.00025,0,,,,,,stimuli/images/PICTURE_340.png,LETTER,5ed8220554fe0533e3c394fd,19/03/2002,2020-09-02_12h27.45.460,proactive3.1,2020.1.2,Win32,60,5f47c29a48bd2a1e651a6eb7,5f4f8188bb2be403f872281d,1,,,,,,mirror,,,,,,,,,,,3,1,0,26,26,24,1,,,,,,,,,,,,,,,,,,,,,,,,,,,,,,,,,,,,,,,,,,,,,,,,,,,,,,,,,,,,,,,,,,,,,,,,,,,,,,,,,,,,,,,,,,,,,,,,,,,,,,,,
,,?,0.000255,0,,,,,,stimuli/images/PICTURE_233.png,LOTS,5ed8220554fe0533e3c394fd,19/03/2002,2020-09-02_12h27.45.460,proactive3.1,2020.1.2,Win32,60,5f47c29a48bd2a1e651a6eb7,5f4f8188bb2be403f872281d,1,,,,,,salt,,,,,,,,,,,5,1,0,27,27,42,1,,,,,,,,,,,,,,,,,,,,,,,,,,,,,,,,,,,,,,,,,,,,,,,,,,,,,,,,,,,,,,,,,,,,,,,,,,,,,,,,,,,,,,,,,,,,,,,,,,,,,,,,
,,?,0.00042,0,,,,,,stimuli/images/PICTURE_68.png,ROOF,5ed8220554fe0533e3c394fd,19/03/2002,2020-09-02_12h27.45.460,proactive3.1,2020.1.2,Win32,60,5f47c29a48bd2a1e651a6eb7,5f4f8188bb2be403f872281d,1,,,,,,candle,,,,,,,,,,,4,1,0,28,28,38,1,,,,,,,,,,,,,,,,,,,,,,,,,,,,,,,,,,,,,,,,,,,,,,,,,,,,,,,,,,,,,,,,,,,,,,,,,,,,,,,,,,,,,,,,,,,,,,,,,,,,,,,,
,,?,0.00047,0,,,,,,stimuli/images/PICTURE_285.png,LIFE,5ed8220554fe0533e3c394fd,19/03/2002,2020-09-02_12h27.45.460,proactive3.1,2020.1.2,Win32,60,5f47c29a48bd2a1e651a6eb7,5f4f8188bb2be403f872281d,1,,,,,,carrot,,,,,,,,,,,4,1,0,29,29,33,1,,,,,,,,,,,,,,,,,,,,,,,,,,,,,,,,,,,,,,,,,,,,,,,,,,,,,,,,,,,,,,,,,,,,,,,,,,,,,,,,,,,,,,,,,,,,,,,,,,,,,,,,
,,?,0.000445,0,,,,,,stimuli/images/PICTURE_467.png,POLICY,5ed8220554fe0533e3c394fd,19/03/2002,2020-09-02_12h27.45.460,proactive3.1,2020.1.2,Win32,60,5f47c29a48bd2a1e651a6eb7,5f4f8188bb2be403f872281d,1,,,,,,peg,,,,,,,,,,,6,1,0,30,30,53,1,,,,,,,,,,,,,,,,,,,,,,,,,,,,,,,,,,,,,,,,,,,,,,,,,,,,,,,,,,,,,,,,,,,,,,,,,,,,,,,,,,,,,,,,,,,,,,,,,,,,,,,,
,,?,0.000295,0,,,,,,stimuli/images/PICTURE_564.png,BATH,5ed8220554fe0533e3c394fd,19/03/2002,2020-09-02_12h27.45.460,proactive3.1,2020.1.2,Win32,60,5f47c29a48bd2a1e651a6eb7,5f4f8188bb2be403f872281d,1,,,,,,spoon,,,,,,,,,,,3,1,0,31,31,26,1,,,,,,,,,,,,,,,,,,,,,,,,,,,,,,,,,,,,,,,,,,,,,,,,,,,,,,,,,,,,,,,,,,,,,,,,,,,,,,,,,,,,,,,,,,,,,,,,,,,,,,,,
,,PENNY,1.858315,1,,,,,,stimuli/images/PICTURE_685.png,PENNY,5ed8220554fe0533e3c394fd,19/03/2002,2020-09-02_12h27.45.460,proactive3.1,2020.1.2,Win32,60,5f47c29a48bd2a1e651a6eb7,5f4f8188bb2be403f872281d,1,,,,,,goose,,,,,,,,,,,1,1,0,32,32,4,1,,,,,,,,,,,,,,,,,,,,,,,,,,,,,,,,,,,,,,,,,,,,,,,,,,,,,,,,,,,,,,,,,,,,,,,,,,,,,,,,,,,,,,,,,,,,,,,,,,,,,,,,
,,NIGHT,2.866165,1,,,,,,stimuli/images/PICTURE_203.png,NIGHT,5ed8220554fe0533e3c394fd,19/03/2002,2020-09-02_12h27.45.460,proactive3.1,2020.1.2,Win32,60,5f47c29a48bd2a1e651a6eb7,5f4f8188bb2be403f872281d,1,,,,,,cap,,,,,,,,,,,1,1,0,33,33,2,1,,,,,,,,,,,,,,,,,,,,,,,,,,,,,,,,,,,,,,,,,,,,,,,,,,,,,,,,,,,,,,,,,,,,,,,,,,,,,,,,,,,,,,,,,,,,,,,,,,,,,,,,
,,?,0.001165,0,,,,,,stimuli/images/PICTURE_675.png,SALE,5ed8220554fe0533e3c394fd,19/03/2002,2020-09-02_12h27.45.460,proactive3.1,2020.1.2,Win32,60,5f47c29a48bd2a1e651a6eb7,5f4f8188bb2be403f872281d,1,,,,,,windmill,,,,,,,,,,,5,1,0,34,34,47,1,,,,,,,,,,,,,,,,,,,,,,,,,,,,,,,,,,,,,,,,,,,,,,,,,,,,,,,,,,,,,,,,,,,,,,,,,,,,,,,,,,,,,,,,,,,,,,,,,,,,,,,,
,,?,0.00048,0,,,,,,stimuli/images/PICTURE_203.png,GODS,5ed8220554fe0533e3c394fd,19/03/2002,2020-09-02_12h27.45.460,proactive3.1,2020.1.2,Win32,60,5f47c29a48bd2a1e651a6eb7,5f4f8188bb2be403f872281d,1,,,,,,cap,,,,,,,,,,,4,1,0,35,35,30,1,,,,,,,,,,,,,,,,,,,,,,,,,,,,,,,,,,,,,,,,,,,,,,,,,,,,,,,,,,,,,,,,,,,,,,,,,,,,,,,,,,,,,,,,,,,,,,,,,,,,,,,,
,,?,0.000445,0,,,,,,stimuli/images/PICTURE_708.png,RECORD,5ed8220554fe0533e3c394fd,19/03/2002,2020-09-02_12h27.45.460,proactive3.1,2020.1.2,Win32,60,5f47c29a48bd2a1e651a6eb7,5f4f8188bb2be403f872281d,1,,,,,,monkey,,,,,,,,,,,6,1,0,36,36,58,1,,,,,,,,,,,,,,,,,,,,,,,,,,,,,,,,,,,,,,,,,,,,,,,,,,,,,,,,,,,,,,,,,,,,,,,,,,,,,,,,,,,,,,,,,,,,,,,,,,,,,,,,
,,?,0.000245,0,,,,,,stimuli/images/PICTURE_95.png,HONEY,5ed8220554fe0533e3c394fd,19/03/2002,2020-09-02_12h27.45.460,proactive3.1,2020.1.2,Win32,60,5f47c29a48bd2a1e651a6eb7,5f4f8188bb2be403f872281d,1,,,,,,suitcase,,,,,,,,,,,5,1,0,37,37,44,1,,,,,,,,,,,,,,,,,,,,,,,,,,,,,,,,,,,,,,,,,,,,,,,,,,,,,,,,,,,,,,,,,,,,,,,,,,,,,,,,,,,,,,,,,,,,,,,,,,,,,,,,
,,?,0.00022,0,,,,,,stimuli/images/PICTURE_380.png,HONEY,5ed8220554fe0533e3c394fd,19/03/2002,2020-09-02_12h27.45.460,proactive3.1,2020.1.2,Win32,60,5f47c29a48bd2a1e651a6eb7,5f4f8188bb2be403f872281d,1,,,,,,gorilla,,,,,,,,,,,2,1,0,38,38,19,1,,,,,,,,,,,,,,,,,,,,,,,,,,,,,,,,,,,,,,,,,,,,,,,,,,,,,,,,,,,,,,,,,,,,,,,,,,,,,,,,,,,,,,,,,,,,,,,,,,,,,,,,
,,?,0.00022,0,,,,,,stimuli/images/PICTURE_405.png,PLENTY,5ed8220554fe0533e3c394fd,19/03/2002,2020-09-02_12h27.45.460,proactive3.1,2020.1.2,Win32,60,5f47c29a48bd2a1e651a6eb7,5f4f8188bb2be403f872281d,1,,,,,,anchor,,,,,,,,,,,3,1,0,39,39,23,1,,,,,,,,,,,,,,,,,,,,,,,,,,,,,,,,,,,,,,,,,,,,,,,,,,,,,,,,,,,,,,,,,,,,,,,,,,,,,,,,,,,,,,,,,,,,,,,,,,,,,,,,
,,?,0.000215,0,,,,,,stimuli/images/PICTURE_95.png,MILLER,5ed8220554fe0533e3c394fd,19/03/2002,2020-09-02_12h27.45.460,proactive3.1,2020.1.2,Win32,60,5f47c29a48bd2a1e651a6eb7,5f4f8188bb2be403f872281d,1,,,,,,suitcase,,,,,,,,,,,6,1,0,40,40,56,1,,,,,,,,,,,,,,,,,,,,,,,,,,,,,,,,,,,,,,,,,,,,,,,,,,,,,,,,,,,,,,,,,,,,,,,,,,,,,,,,,,,,,,,,,,,,,,,,,,,,,,,,
,,?,0.000235,0,,,,,,stimuli/images/PICTURE_487.png,GIRL,5ed8220554fe0533e3c394fd,19/03/2002,2020-09-02_12h27.45.460,proactive3.1,2020.1.2,Win32,60,5f47c29a48bd2a1e651a6eb7,5f4f8188bb2be403f872281d,1,,,,,,basket,,,,,,,,,,,5,1,0,41,41,45,1,,,,,,,,,,,,,,,,,,,,,,,,,,,,,,,,,,,,,,,,,,,,,,,,,,,,,,,,,,,,,,,,,,,,,,,,,,,,,,,,,,,,,,,,,,,,,,,,,,,,,,,,
,,FRIENDS,2.40894,0,,,,,,stimuli/images/PICTURE_33.png,FRIEND,5ed8220554fe0533e3c394fd,19/03/2002,2020-09-02_12h27.45.460,proactive3.1,2020.1.2,Win32,60,5f47c29a48bd2a1e651a6eb7,5f4f8188bb2be403f872281d,1,,,,,,frame,,,,,,,,,,,1,1,0,42,42,8,1,,,,,,,,,,,,,,,,,,,,,,,,,,,,,,,,,,,,,,,,,,,,,,,,,,,,,,,,,,,,,,,,,,,,,,,,,,,,,,,,,,,,,,,,,,,,,,,,,,,,,,,,
,,?,0.001035,0,,,,,,stimuli/images/PICTURE_85.png,TOILET,5ed8220554fe0533e3c394fd,19/03/2002,2020-09-02_12h27.45.460,proactive3.1,2020.1.2,Win32,60,5f47c29a48bd2a1e651a6eb7,5f4f8188bb2be403f872281d,1,,,,,,diamond,,,,,,,,,,,5,1,0,43,43,48,1,,,,,,,,,,,,,,,,,,,,,,,,,,,,,,,,,,,,,,,,,,,,,,,,,,,,,,,,,,,,,,,,,,,,,,,,,,,,,,,,,,,,,,,,,,,,,,,,,,,,,,,,
,,CANDY,1.893625,1,,,,,,stimuli/images/PICTURE_380.png,CANDY,5ed8220554fe0533e3c394fd,19/03/2002,2020-09-02_12h27.45.460,proactive3.1,2020.1.2,Win32,60,5f47c29a48bd2a1e651a6eb7,5f4f8188bb2be403f872281d,1,,,,,,gorilla,,,,,,,,,,,1,1,0,44,44,0,1,,,,,,,,,,,,,,,,,,,,,,,,,,,,,,,,,,,,,,,,,,,,,,,,,,,,,,,,,,,,,,,,,,,,,,,,,,,,,,,,,,,,,,,,,,,,,,,,,,,,,,,,
,,?,0.00102,0,,,,,,stimuli/images/PICTURE_504.png,ARTIST,5ed8220554fe0533e3c394fd,19/03/2002,2020-09-02_12h27.45.460,proactive3.1,2020.1.2,Win32,60,5f47c29a48bd2a1e651a6eb7,5f4f8188bb2be403f872281d,1,,,,,,wheel,,,,,,,,,,,5,1,0,45,45,49,1,,,,,,,,,,,,,,,,,,,,,,,,,,,,,,,,,,,,,,,,,,,,,,,,,,,,,,,,,,,,,,,,,,,,,,,,,,,,,,,,,,,,,,,,,,,,,,,,,,,,,,,,
,,?,0.000465,0,,,,,,stimuli/images/PICTURE_504.png,YEAR,5ed8220554fe0533e3c394fd,19/03/2002,2020-09-02_12h27.45.460,proactive3.1,2020.1.2,Win32,60,5f47c29a48bd2a1e651a6eb7,5f4f8188bb2be403f872281d,1,,,,,,wheel,,,,,,,,,,,2,1,0,46,46,13,1,,,,,,,,,,,,,,,,,,,,,,,,,,,,,,,,,,,,,,,,,,,,,,,,,,,,,,,,,,,,,,,,,,,,,,,,,,,,,,,,,,,,,,,,,,,,,,,,,,,,,,,,
,,?,0.000445,0,,,,,,stimuli/images/PICTURE_308.png,FAMILY,5ed8220554fe0533e3c394fd,19/03/2002,2020-09-02_12h27.45.460,proactive3.1,2020.1.2,Win32,60,5f47c29a48bd2a1e651a6eb7,5f4f8188bb2be403f872281d,1,,,,,,dice,,,,,,,,,,,4,1,0,47,47,36,1,,,,,,,,,,,,,,,,,,,,,,,,,,,,,,,,,,,,,,,,,,,,,,,,,,,,,,,,,,,,,,,,,,,,,,,,,,,,,,,,,,,,,,,,,,,,,,,,,,,,,,,,
,,?,0.00039,0,,,,,,stimuli/images/PICTURE_449.png,DUDE,5ed8220554fe0533e3c394fd,19/03/2002,2020-09-02_12h27.45.460,proactive3.1,2020.1.2,Win32,60,5f47c29a48bd2a1e651a6eb7,5f4f8188bb2be403f872281d,1,,,,,,bench,,,,,,,,,,,2,1,0,48,48,17,1,,,,,,,,,,,,,,,,,,,,,,,,,,,,,,,,,,,,,,,,,,,,,,,,,,,,,,,,,,,,,,,,,,,,,,,,,,,,,,,,,,,,,,,,,,,,,,,,,,,,,,,,
,,?,0.000225,0,,,,,,stimuli/images/PICTURE_339.png,CLIENT,5ed8220554fe0533e3c394fd,19/03/2002,2020-09-02_12h27.45.460,proactive3.1,2020.1.2,Win32,60,5f47c29a48bd2a1e651a6eb7,5f4f8188bb2be403f872281d,1,,,,,,backpack,,,,,,,,,,,2,1,0,49,49,11,1,,,,,,,,,,,,,,,,,,,,,,,,,,,,,,,,,,,,,,,,,,,,,,,,,,,,,,,,,,,,,,,,,,,,,,,,,,,,,,,,,,,,,,,,,,,,,,,,,,,,,,,,
,,?,0.000215,0,,,,,,stimuli/images/PICTURE_403.png,TOILET,5ed8220554fe0533e3c394fd,19/03/2002,2020-09-02_12h27.45.460,proactive3.1,2020.1.2,Win32,60,5f47c29a48bd2a1e651a6eb7,5f4f8188bb2be403f872281d,1,,,,,,cathedral,,,,,,,,,,,3,1,0,50,50,25,1,,,,,,,,,,,,,,,,,,,,,,,,,,,,,,,,,,,,,,,,,,,,,,,,,,,,,,,,,,,,,,,,,,,,,,,,,,,,,,,,,,,,,,,,,,,,,,,,,,,,,,,,
,,NATION,1.95921,1,,,,,,stimuli/images/PICTURE_85.png,NATION,5ed8220554fe0533e3c394fd,19/03/2002,2020-09-02_12h27.45.460,proactive3.1,2020.1.2,Win32,60,5f47c29a48bd2a1e651a6eb7,5f4f8188bb2be403f872281d,1,,,,,,diamond,,,,,,,,,,,1,1,0,51,51,5,1,,,,,,,,,,,,,,,,,,,,,,,,,,,,,,,,,,,,,,,,,,,,,,,,,,,,,,,,,,,,,,,,,,,,,,,,,,,,,,,,,,,,,,,,,,,,,,,,,,,,,,,,
,,RIVER,7.715755,1,,,,,,stimuli/images/PICTURE_491.png,RIVER,5ed8220554fe0533e3c394fd,19/03/2002,2020-09-02_12h27.45.460,proactive3.1,2020.1.2,Win32,60,5f47c29a48bd2a1e651a6eb7,5f4f8188bb2be403f872281d,1,,,,,,rug,,,,,,,,,,,1,1,0,52,52,6,1,,,,,,,,,,,,,,,,,,,,,,,,,,,,,,,,,,,,,,,,,,,,,,,,,,,,,,,,,,,,,,,,,,,,,,,,,,,,,,,,,,,,,,,,,,,,,,,,,,,,,,,,
,,?,0.000925,0,,,,,,stimuli/images/PICTURE_750.png,HOTEL,5ed8220554fe0533e3c394fd,19/03/2002,2020-09-02_12h27.45.460,proactive3.1,2020.1.2,Win32,60,5f47c29a48bd2a1e651a6eb7,5f4f8188bb2be403f872281d,1,,,,,,kettle,,,,,,,,,,,3,1,0,53,53,27,1,,,,,,,,,,,,,,,,,,,,,,,,,,,,,,,,,,,,,,,,,,,,,,,,,,,,,,,,,,,,,,,,,,,,,,,,,,,,,,,,,,,,,,,,,,,,,,,,,,,,,,,,
,,?,0.000485,0,,,,,,stimuli/images/PICTURE_108.png,FLIGHT,5ed8220554fe0533e3c394fd,19/03/2002,2020-09-02_12h27.45.460,proactive3.1,2020.1.2,Win32,60,5f47c29a48bd2a1e651a6eb7,5f4f8188bb2be403f872281d,1,,,,,,calendar,,,,,,,,,,,6,1,0,54,54,59,1,,,,,,,,,,,,,,,,,,,,,,,,,,,,,,,,,,,,,,,,,,,,,,,,,,,,,,,,,,,,,,,,,,,,,,,,,,,,,,,,,,,,,,,,,,,,,,,,,,,,,,,,
,,?,0.00037,0,,,,,,stimuli/images/PICTURE_469.png,AGENT,5ed8220554fe0533e3c394fd,19/03/2002,2020-09-02_12h27.45.460,proactive3.1,2020.1.2,Win32,60,5f47c29a48bd2a1e651a6eb7,5f4f8188bb2be403f872281d,1,,,,,,stool,,,,,,,,,,,2,1,0,55,55,16,1,,,,,,,,,,,,,,,,,,,,,,,,,,,,,,,,,,,,,,,,,,,,,,,,,,,,,,,,,,,,,,,,,,,,,,,,,,,,,,,,,,,,,,,,,,,,,,,,,,,,,,,,
,,?,0.000395,0,,,,,,stimuli/images/PICTURE_383.png,WRITER,5ed8220554fe0533e3c394fd,19/03/2002,2020-09-02_12h27.45.460,proactive3.1,2020.1.2,Win32,60,5f47c29a48bd2a1e651a6eb7,5f4f8188bb2be403f872281d,1,,,,,,coin,,,,,,,,,,,3,1,0,56,56,28,1,,,,,,,,,,,,,,,,,,,,,,,,,,,,,,,,,,,,,,,,,,,,,,,,,,,,,,,,,,,,,,,,,,,,,,,,,,,,,,,,,,,,,,,,,,,,,,,,,,,,,,,,
,,?,0.00032,0,,,,,,stimuli/images/PICTURE_340.png,VALLEY,5ed8220554fe0533e3c394fd,19/03/2002,2020-09-02_12h27.45.460,proactive3.1,2020.1.2,Win32,60,5f47c29a48bd2a1e651a6eb7,5f4f8188bb2be403f872281d,1,,,,,,mirror,,,,,,,,,,,6,1,0,57,57,54,1,,,,,,,,,,,,,,,,,,,,,,,,,,,,,,,,,,,,,,,,,,,,,,,,,,,,,,,,,,,,,,,,,,,,,,,,,,,,,,,,,,,,,,,,,,,,,,,,,,,,,,,,
,,?,0.00054,0,,,,,,stimuli/images/PICTURE_297.png,RIVER,5ed8220554fe0533e3c394fd,19/03/2002,2020-09-02_12h27.45.460,proactive3.1,2020.1.2,Win32,60,5f47c29a48bd2a1e651a6eb7,5f4f8188bb2be403f872281d,1,,,,,,aeroplane,,,,,,,,,,,4,1,0,58,58,39,1,,,,,,,,,,,,,,,,,,,,,,,,,,,,,,,,,,,,,,,,,,,,,,,,,,,,,,,,,,,,,,,,,,,,,,,,,,,,,,,,,,,,,,,,,,,,,,,,,,,,,,,,
,,?,0.00043,0,,,,,,stimuli/images/PICTURE_32.png,KIND,5ed8220554fe0533e3c394fd,19/03/2002,2020-09-02_12h27.45.460,proactive3.1,2020.1.2,Win32,60,5f47c29a48bd2a1e651a6eb7,5f4f8188bb2be403f872281d,1,,,,,,crown,,,,,,,,,,,4,1,0,59,59,35,1,,,,,,,,,,,,,,,,,,,,,,,,,,,,,,,,,,,,,,,,,,,,,,,,,,,,,,,,,,,,,,,,,,,,,,,,,,,,,,,,,,,,,,,,,,,,,,,,,,,,,,,,
,,,,,,,,,,,,5ed8220554fe0533e3c394fd,19/03/2002,2020-09-02_12h27.45.460,proactive3.1,2020.1.2,Win32,60,5f47c29a48bd2a1e651a6eb7,5f4f8188bb2be403f872281d,1,,,,,,,,,,,,,,,,,,,,,,,,0,1,1,1,1,stimuli/learn-block2.csv,,,,,,,,,,,,,,,,,,,,,,,,,,,,,,,,,,,,,,,,,,,,,,,,,,,,,,,,,,,,,,,,,,,,,,,,,,,,,,,,,,,,,,,,,,,,,,,,,,
,,,,,,,,,,stimuli/images/PICTURE_57.png,NATION,5ed8220554fe0533e3c394fd,19/03/2002,2020-09-02_12h27.45.460,proactive3.1,2020.1.2,Win32,60,5f47c29a48bd2a1e651a6eb7,5f4f8188bb2be403f872281d,1,,,,,,stamp,,,,,,0,0,0,21,1,3,2,,,,,,,,,,,,,,,,,,,,,,,,,,,,,,,,,,,,,,,,,,,,,,,,,,,,,,,,,,,,,,,,,,,,,,,,,,,,,,,,,,,,,,,,,,,,,,,,,,,,,,,,,,,,,
,,,,,,,,,,stimuli/images/PICTURE_348.png,DUDE,5ed8220554fe0533e3c394fd,19/03/2002,2020-09-02_12h27.45.460,proactive3.1,2020.1.2,Win32,60,5f47c29a48bd2a1e651a6eb7,5f4f8188bb2be403f872281d,1,,,,,,pepper,,,,,,0,1,1,59,1,6,2,,,,,,,,,,,,,,,,,,,,,,,,,,,,,,,,,,,,,,,,,,,,,,,,,,,,,,,,,,,,,,,,,,,,,,,,,,,,,,,,,,,,,,,,,,,,,,,,,,,,,,,,,,,,,
,,,,,,,,,,stimuli/images/PICTURE_356.png,CANDY,5ed8220554fe0533e3c394fd,19/03/2002,2020-09-02_12h27.45.460,proactive3.1,2020.1.2,Win32,60,5f47c29a48bd2a1e651a6eb7,5f4f8188bb2be403f872281d,1,,,,,,pawn,,,,,,0,2,2,46,1,5,2,,,,,,,,,,,,,,,,,,,,,,,,,,,,,,,,,,,,,,,,,,,,,,,,,,,,,,,,,,,,,,,,,,,,,,,,,,,,,,,,,,,,,,,,,,,,,,,,,,,,,,,,,,,,,
,,,,,,,,,,stimuli/images/PICTURE_215.png,LEADER,5ed8220554fe0533e3c394fd,19/03/2002,2020-09-02_12h27.45.460,proactive3.1,2020.1.2,Win32,60,5f47c29a48bd2a1e651a6eb7,5f4f8188bb2be403f872281d,1,,,,,,boot,,,,,,0,3,3,43,1,5,2,,,,,,,,,,,,,,,,,,,,,,,,,,,,,,,,,,,,,,,,,,,,,,,,,,,,,,,,,,,,,,,,,,,,,,,,,,,,,,,,,,,,,,,,,,,,,,,,,,,,,,,,,,,,,
,,,,,,,,,,stimuli/images/PICTURE_18.png,RIVER,5ed8220554fe0533e3c394fd,19/03/2002,2020-09-02_12h27.45.460,proactive3.1,2020.1.2,Win32,60,5f47c29a48bd2a1e651a6eb7,5f4f8188bb2be403f872281d,1,,,,,,planet,,,,,,0,4,4,22,1,3,2,,,,,,,,,,,,,,,,,,,,,,,,,,,,,,,,,,,,,,,,,,,,,,,,,,,,,,,,,,,,,,,,,,,,,,,,,,,,,,,,,,,,,,,,,,,,,,,,,,,,,,,,,,,,,
,,,,,,,,,,stimuli/images/PICTURE_491.png,SERIES,5ed8220554fe0533e3c394fd,19/03/2002,2020-09-02_12h27.45.460,proactive3.1,2020.1.2,Win32,60,5f47c29a48bd2a1e651a6eb7,5f4f8188bb2be403f872281d,1,,,,,,rug,,,,,,0,5,5,39,1,4,2,,,,,,,,,,,,,,,,,,,,,,,,,,,,,,,,,,,,,,,,,,,,,,,,,,,,,,,,,,,,,,,,,,,,,,,,,,,,,,,,,,,,,,,,,,,,,,,,,,,,,,,,,,,,,
,,,,,,,,,,stimuli/images/PICTURE_57.png,CASINO,5ed8220554fe0533e3c394fd,19/03/2002,2020-09-02_12h27.45.460,proactive3.1,2020.1.2,Win32,60,5f47c29a48bd2a1e651a6eb7,5f4f8188bb2be403f872281d,1,,,,,,stamp,,,,,,0,6,6,12,1,2,2,,,,,,,,,,,,,,,,,,,,,,,,,,,,,,,,,,,,,,,,,,,,,,,,,,,,,,,,,,,,,,,,,,,,,,,,,,,,,,,,,,,,,,,,,,,,,,,,,,,,,,,,,,,,,
,,,,,,,,,,stimuli/images/PICTURE_348.png,TOILET,5ed8220554fe0533e3c394fd,19/03/2002,2020-09-02_12h27.45.460,proactive3.1,2020.1.2,Win32,60,5f47c29a48bd2a1e651a6eb7,5f4f8188bb2be403f872281d,1,,,,,,pepper,,,,,,0,7,7,4,1,1,2,,,,,,,,,,,,,,,,,,,,,,,,,,,,,,,,,,,,,,,,,,,,,,,,,,,,,,,,,,,,,,,,,,,,,,,,,,,,,,,,,,,,,,,,,,,,,,,,,,,,,,,,,,,,,
,,,,,,,,,,stimuli/images/PICTURE_470.png,BEAUTY,5ed8220554fe0533e3c394fd,19/03/2002,2020-09-02_12h27.45.460,proactive3.1,2020.1.2,Win32,60,5f47c29a48bd2a1e651a6eb7,5f4f8188bb2be403f872281d,1,,,,,,motorbike,,,,,,0,8,8,26,1,3,2,,,,,,,,,,,,,,,,,,,,,,,,,,,,,,,,,,,,,,,,,,,,,,,,,,,,,,,,,,,,,,,,,,,,,,,,,,,,,,,,,,,,,,,,,,,,,,,,,,,,,,,,,,,,,
,,,,,,,,,,stimuli/images/PICTURE_708.png,VALLEY,5ed8220554fe0533e3c394fd,19/03/2002,2020-09-02_12h27.45.460,proactive3.1,2020.1.2,Win32,60,5f47c29a48bd2a1e651a6eb7,5f4f8188bb2be403f872281d,1,,,,,,monkey,,,,,,0,9,9,45,1,5,2,,,,,,,,,,,,,,,,,,,,,,,,,,,,,,,,,,,,,,,,,,,,,,,,,,,,,,,,,,,,,,,,,,,,,,,,,,,,,,,,,,,,,,,,,,,,,,,,,,,,,,,,,,,,,
,,,,,,,,,,stimuli/images/PICTURE_487.png,ROOF,5ed8220554fe0533e3c394fd,19/03/2002,2020-09-02_12h27.45.460,proactive3.1,2020.1.2,Win32,60,5f47c29a48bd2a1e651a6eb7,5f4f8188bb2be403f872281d,1,,,,,,basket,,,,,,0,10,10,50,1,6,2,,,,,,,,,,,,,,,,,,,,,,,,,,,,,,,,,,,,,,,,,,,,,,,,,,,,,,,,,,,,,,,,,,,,,,,,,,,,,,,,,,,,,,,,,,,,,,,,,,,,,,,,,,,,,
,,,,,,,,,,stimuli/images/PICTURE_68.png,KIND,5ed8220554fe0533e3c394fd,19/03/2002,2020-09-02_12h27.45.460,proactive3.1,2020.1.2,Win32,60,5f47c29a48bd2a1e651a6eb7,5f4f8188bb2be403f872281d,1,,,,,,candle,,,,,,0,11,11,23,1,3,2,,,,,,,,,,,,,,,,,,,,,,,,,,,,,,,,,,,,,,,,,,,,,,,,,,,,,,,,,,,,,,,,,,,,,,,,,,,,,,,,,,,,,,,,,,,,,,,,,,,,,,,,,,,,,
,,,,,,,,,,stimuli/images/PICTURE_311.png,TOILET,5ed8220554fe0533e3c394fd,19/03/2002,2020-09-02_12h27.45.460,proactive3.1,2020.1.2,Win32,60,5f47c29a48bd2a1e651a6eb7,5f4f8188bb2be403f872281d,1,,,,,,razor,,,,,,0,12,12,54,1,6,2,,,,,,,,,,,,,,,,,,,,,,,,,,,,,,,,,,,,,,,,,,,,,,,,,,,,,,,,,,,,,,,,,,,,,,,,,,,,,,,,,,,,,,,,,,,,,,,,,,,,,,,,,,,,,
,,,,,,,,,,stimuli/images/PICTURE_141.png,CLIENT,5ed8220554fe0533e3c394fd,19/03/2002,2020-09-02_12h27.45.460,proactive3.1,2020.1.2,Win32,60,5f47c29a48bd2a1e651a6eb7,5f4f8188bb2be403f872281d,1,,,,,,sunflower,,,,,,0,13,13,30,1,4,2,,,,,,,,,,,,,,,,,,,,,,,,,,,,,,,,,,,,,,,,,,,,,,,,,,,,,,,,,,,,,,,,,,,,,,,,,,,,,,,,,,,,,,,,,,,,,,,,,,,,,,,,,,,,,
,,,,,,,,,,stimuli/images/PICTURE_654.png,YEAR,5ed8220554fe0533e3c394fd,19/03/2002,2020-09-02_12h27.45.460,proactive3.1,2020.1.2,Win32,60,5f47c29a48bd2a1e651a6eb7,5f4f8188bb2be403f872281d,1,,,,,,pencil,,,,,,0,14,14,41,1,5,2,,,,,,,,,,,,,,,,,,,,,,,,,,,,,,,,,,,,,,,,,,,,,,,,,,,,,,,,,,,,,,,,,,,,,,,,,,,,,,,,,,,,,,,,,,,,,,,,,,,,,,,,,,,,,
,,,,,,,,,,stimuli/images/PICTURE_215.png,FOOD,5ed8220554fe0533e3c394fd,19/03/2002,2020-09-02_12h27.45.460,proactive3.1,2020.1.2,Win32,60,5f47c29a48bd2a1e651a6eb7,5f4f8188bb2be403f872281d,1,,,,,,boot,,,,,,0,15,15,5,1,1,2,,,,,,,,,,,,,,,,,,,,,,,,,,,,,,,,,,,,,,,,,,,,,,,,,,,,,,,,,,,,,,,,,,,,,,,,,,,,,,,,,,,,,,,,,,,,,,,,,,,,,,,,,,,,,
,,,,,,,,,,stimuli/images/PICTURE_208.png,SPIRIT,5ed8220554fe0533e3c394fd,19/03/2002,2020-09-02_12h27.45.460,proactive3.1,2020.1.2,Win32,60,5f47c29a48bd2a1e651a6eb7,5f4f8188bb2be403f872281d,1,,,,,,microphone,,,,,,0,16,16,28,1,3,2,,,,,,,,,,,,,,,,,,,,,,,,,,,,,,,,,,,,,,,,,,,,,,,,,,,,,,,,,,,,,,,,,,,,,,,,,,,,,,,,,,,,,,,,,,,,,,,,,,,,,,,,,,,,,
,,,,,,,,,,stimuli/images/PICTURE_2.png,YARD,5ed8220554fe0533e3c394fd,19/03/2002,2020-09-02_12h27.45.460,proactive3.1,2020.1.2,Win32,60,5f47c29a48bd2a1e651a6eb7,5f4f8188bb2be403f872281d,1,,,,,,tyre,,,,,,0,17,17,55,1,6,2,,,,,,,,,,,,,,,,,,,,,,,,,,,,,,,,,,,,,,,,,,,,,,,,,,,,,,,,,,,,,,,,,,,,,,,,,,,,,,,,,,,,,,,,,,,,,,,,,,,,,,,,,,,,,
,,,,,,,,,,stimuli/images/PICTURE_285.png,PRINCE,5ed8220554fe0533e3c394fd,19/03/2002,2020-09-02_12h27.45.460,proactive3.1,2020.1.2,Win32,60,5f47c29a48bd2a1e651a6eb7,5f4f8188bb2be403f872281d,1,,,,,,carrot,,,,,,0,18,18,20,1,3,2,,,,,,,,,,,,,,,,,,,,,,,,,,,,,,,,,,,,,,,,,,,,,,,,,,,,,,,,,,,,,,,,,,,,,,,,,,,,,,,,,,,,,,,,,,,,,,,,,,,,,,,,,,,,,
,,,,,,,,,,stimuli/images/PICTURE_311.png,FLESH,5ed8220554fe0533e3c394fd,19/03/2002,2020-09-02_12h27.45.460,proactive3.1,2020.1.2,Win32,60,5f47c29a48bd2a1e651a6eb7,5f4f8188bb2be403f872281d,1,,,,,,razor,,,,,,0,19,19,3,1,1,2,,,,,,,,,,,,,,,,,,,,,,,,,,,,,,,,,,,,,,,,,,,,,,,,,,,,,,,,,,,,,,,,,,,,,,,,,,,,,,,,,,,,,,,,,,,,,,,,,,,,,,,,,,,,,
,,,,,,,,,,stimuli/images/PICTURE_677.png,FAMILY,5ed8220554fe0533e3c394fd,19/03/2002,2020-09-02_12h27.45.460,proactive3.1,2020.1.2,Win32,60,5f47c29a48bd2a1e651a6eb7,5f4f8188bb2be403f872281d,1,,,,,,map,,,,,,0,20,20,53,1,6,2,,,,,,,,,,,,,,,,,,,,,,,,,,,,,,,,,,,,,,,,,,,,,,,,,,,,,,,,,,,,,,,,,,,,,,,,,,,,,,,,,,,,,,,,,,,,,,,,,,,,,,,,,,,,,
,,,,,,,,,,stimuli/images/PICTURE_470.png,MOMENT,5ed8220554fe0533e3c394fd,19/03/2002,2020-09-02_12h27.45.460,proactive3.1,2020.1.2,Win32,60,5f47c29a48bd2a1e651a6eb7,5f4f8188bb2be403f872281d,1,,,,,,motorbike,,,,,,0,21,21,40,1,5,2,,,,,,,,,,,,,,,,,,,,,,,,,,,,,,,,,,,,,,,,,,,,,,,,,,,,,,,,,,,,,,,,,,,,,,,,,,,,,,,,,,,,,,,,,,,,,,,,,,,,,,,,,,,,,
,,,,,,,,,,stimuli/images/PICTURE_405.png,JUNGLE,5ed8220554fe0533e3c394fd,19/03/2002,2020-09-02_12h27.45.460,proactive3.1,2020.1.2,Win32,60,5f47c29a48bd2a1e651a6eb7,5f4f8188bb2be403f872281d,1,,,,,,anchor,,,,,,0,22,22,58,1,6,2,,,,,,,,,,,,,,,,,,,,,,,,,,,,,,,,,,,,,,,,,,,,,,,,,,,,,,,,,,,,,,,,,,,,,,,,,,,,,,,,,,,,,,,,,,,,,,,,,,,,,,,,,,,,,
,,,,,,,,,,stimuli/images/PICTURE_405.png,JUNGLE,5ed8220554fe0533e3c394fd,19/03/2002,2020-09-02_12h27.45.460,proactive3.1,2020.1.2,Win32,60,5f47c29a48bd2a1e651a6eb7,5f4f8188bb2be403f872281d,1,,,,,,anchor,,,,,,0,23,23,13,1,2,2,,,,,,,,,,,,,,,,,,,,,,,,,,,,,,,,,,,,,,,,,,,,,,,,,,,,,,,,,,,,,,,,,,,,,,,,,,,,,,,,,,,,,,,,,,,,,,,,,,,,,,,,,,,,,
,,,,,,,,,,stimuli/images/PICTURE_564.png,PLENTY,5ed8220554fe0533e3c394fd,19/03/2002,2020-09-02_12h27.45.460,proactive3.1,2020.1.2,Win32,60,5f47c29a48bd2a1e651a6eb7,5f4f8188bb2be403f872281d,1,,,,,,spoon,,,,,,0,24,24,11,1,2,2,,,,,,,,,,,,,,,,,,,,,,,,,,,,,,,,,,,,,,,,,,,,,,,,,,,,,,,,,,,,,,,,,,,,,,,,,,,,,,,,,,,,,,,,,,,,,,,,,,,,,,,,,,,,,
,,,,,,,,,,stimuli/images/PICTURE_654.png,COPS,5ed8220554fe0533e3c394fd,19/03/2002,2020-09-02_12h27.45.460,proactive3.1,2020.1.2,Win32,60,5f47c29a48bd2a1e651a6eb7,5f4f8188bb2be403f872281d,1,,,,,,pencil,,,,,,0,25,25,10,1,2,2,,,,,,,,,,,,,,,,,,,,,,,,,,,,,,,,,,,,,,,,,,,,,,,,,,,,,,,,,,,,,,,,,,,,,,,,,,,,,,,,,,,,,,,,,,,,,,,,,,,,,,,,,,,,,
,,,,,,,,,,stimuli/images/PICTURE_405.png,HOUSE,5ed8220554fe0533e3c394fd,19/03/2002,2020-09-02_12h27.45.460,proactive3.1,2020.1.2,Win32,60,5f47c29a48bd2a1e651a6eb7,5f4f8188bb2be403f872281d,1,,,,,,anchor,,,,,,0,26,26,2,1,1,2,,,,,,,,,,,,,,,,,,,,,,,,,,,,,,,,,,,,,,,,,,,,,,,,,,,,,,,,,,,,,,,,,,,,,,,,,,,,,,,,,,,,,,,,,,,,,,,,,,,,,,,,,,,,,
,,,,,,,,,,stimuli/images/PICTURE_509.png,APPLE,5ed8220554fe0533e3c394fd,19/03/2002,2020-09-02_12h27.45.460,proactive3.1,2020.1.2,Win32,60,5f47c29a48bd2a1e651a6eb7,5f4f8188bb2be403f872281d,1,,,,,,telephone,,,,,,0,27,27,38,1,4,2,,,,,,,,,,,,,,,,,,,,,,,,,,,,,,,,,,,,,,,,,,,,,,,,,,,,,,,,,,,,,,,,,,,,,,,,,,,,,,,,,,,,,,,,,,,,,,,,,,,,,,,,,,,,,
,,,,,,,,,,stimuli/images/PICTURE_677.png,PHOTO,5ed8220554fe0533e3c394fd,19/03/2002,2020-09-02_12h27.45.460,proactive3.1,2020.1.2,Win32,60,5f47c29a48bd2a1e651a6eb7,5f4f8188bb2be403f872281d,1,,,,,,map,,,,,,0,28,28,14,1,2,2,,,,,,,,,,,,,,,,,,,,,,,,,,,,,,,,,,,,,,,,,,,,,,,,,,,,,,,,,,,,,,,,,,,,,,,,,,,,,,,,,,,,,,,,,,,,,,,,,,,,,,,,,,,,,
,,,,,,,,,,stimuli/images/PICTURE_487.png,POLICY,5ed8220554fe0533e3c394fd,19/03/2002,2020-09-02_12h27.45.460,proactive3.1,2020.1.2,Win32,60,5f47c29a48bd2a1e651a6eb7,5f4f8188bb2be403f872281d,1,,,,,,basket,,,,,,0,29,29,34,1,4,2,,,,,,,,,,,,,,,,,,,,,,,,,,,,,,,,,,,,,,,,,,,,,,,,,,,,,,,,,,,,,,,,,,,,,,,,,,,,,,,,,,,,,,,,,,,,,,,,,,,,,,,,,,,,,
,,,,,,,,,,stimuli/images/PICTURE_655.png,SALE,5ed8220554fe0533e3c394fd,19/03/2002,2020-09-02_12h27.45.460,proactive3.1,2020.1.2,Win32,60,5f47c29a48bd2a1e651a6eb7,5f4f8188bb2be403f872281d,1,,,,,,megaphone,,,,,,0,30,30,57,1,6,2,,,,,,,,,,,,,,,,,,,,,,,,,,,,,,,,,,,,,,,,,,,,,,,,,,,,,,,,,,,,,,,,,,,,,,,,,,,,,,,,,,,,,,,,,,,,,,,,,,,,,,,,,,,,,
,,,,,,,,,,stimuli/images/PICTURE_314.png,SPEECH,5ed8220554fe0533e3c394fd,19/03/2002,2020-09-02_12h27.45.460,proactive3.1,2020.1.2,Win32,60,5f47c29a48bd2a1e651a6eb7,5f4f8188bb2be403f872281d,1,,,,,,perfume,,,,,,0,31,31,35,1,4,2,,,,,,,,,,,,,,,,,,,,,,,,,,,,,,,,,,,,,,,,,,,,,,,,,,,,,,,,,,,,,,,,,,,,,,,,,,,,,,,,,,,,,,,,,,,,,,,,,,,,,,,,,,,,,
,,,,,,,,,,stimuli/images/PICTURE_95.png,NIGHT,5ed8220554fe0533e3c394fd,19/03/2002,2020-09-02_12h27.45.460,proactive3.1,2020.1.2,Win32,60,5f47c29a48bd2a1e651a6eb7,5f4f8188bb2be403f872281d,1,,,,,,suitcase,,,,,,0,32,32,37,1,4,2,,,,,,,,,,,,,,,,,,,,,,,,,,,,,,,,,,,,,,,,,,,,,,,,,,,,,,,,,,,,,,,,,,,,,,,,,,,,,,,,,,,,,,,,,,,,,,,,,,,,,,,,,,,,,
,,,,,,,,,,stimuli/images/PICTURE_688.png,CLOCK,5ed8220554fe0533e3c394fd,19/03/2002,2020-09-02_12h27.45.460,proactive3.1,2020.1.2,Win32,60,5f47c29a48bd2a1e651a6eb7,5f4f8188bb2be403f872281d,1,,,,,,runner,,,,,,0,33,33,42,1,5,2,,,,,,,,,,,,,,,,,,,,,,,,,,,,,,,,,,,,,,,,,,,,,,,,,,,,,,,,,,,,,,,,,,,,,,,,,,,,,,,,,,,,,,,,,,,,,,,,,,,,,,,,,,,,,
,,,,,,,,,,stimuli/images/PICTURE_403.png,FAMILY,5ed8220554fe0533e3c394fd,19/03/2002,2020-09-02_12h27.45.460,proactive3.1,2020.1.2,Win32,60,5f47c29a48bd2a1e651a6eb7,5f4f8188bb2be403f872281d,1,,,,,,cathedral,,,,,,0,34,34,9,1,1,2,,,,,,,,,,,,,,,,,,,,,,,,,,,,,,,,,,,,,,,,,,,,,,,,,,,,,,,,,,,,,,,,,,,,,,,,,,,,,,,,,,,,,,,,,,,,,,,,,,,,,,,,,,,,,
,,,,,,,,,,stimuli/images/PICTURE_297.png,BODY,5ed8220554fe0533e3c394fd,19/03/2002,2020-09-02_12h27.45.460,proactive3.1,2020.1.2,Win32,60,5f47c29a48bd2a1e651a6eb7,5f4f8188bb2be403f872281d,1,,,,,,aeroplane,,,,,,0,35,35,51,1,6,2,,,,,,,,,,,,,,,,,,,,,,,,,,,,,,,,,,,,,,,,,,,,,,,,,,,,,,,,,,,,,,,,,,,,,,,,,,,,,,,,,,,,,,,,,,,,,,,,,,,,,,,,,,,,,
,,,,,,,,,,stimuli/images/PICTURE_57.png,CANDY,5ed8220554fe0533e3c394fd,19/03/2002,2020-09-02_12h27.45.460,proactive3.1,2020.1.2,Win32,60,5f47c29a48bd2a1e651a6eb7,5f4f8188bb2be403f872281d,1,,,,,,stamp,,,,,,0,36,36,52,1,6,2,,,,,,,,,,,,,,,,,,,,,,,,,,,,,,,,,,,,,,,,,,,,,,,,,,,,,,,,,,,,,,,,,,,,,,,,,,,,,,,,,,,,,,,,,,,,,,,,,,,,,,,,,,,,,
,,,,,,,,,,stimuli/images/PICTURE_750.png,POLICY,5ed8220554fe0533e3c394fd,19/03/2002,2020-09-02_12h27.45.460,proactive3.1,2020.1.2,Win32,60,5f47c29a48bd2a1e651a6eb7,5f4f8188bb2be403f872281d,1,,,,,,kettle,,,,,,0,37,37,44,1,5,2,,,,,,,,,,,,,,,,,,,,,,,,,,,,,,,,,,,,,,,,,,,,,,,,,,,,,,,,,,,,,,,,,,,,,,,,,,,,,,,,,,,,,,,,,,,,,,,,,,,,,,,,,,,,,
,,,,,,,,,,stimuli/images/PICTURE_33.png,COPS,5ed8220554fe0533e3c394fd,19/03/2002,2020-09-02_12h27.45.460,proactive3.1,2020.1.2,Win32,60,5f47c29a48bd2a1e651a6eb7,5f4f8188bb2be403f872281d,1,,,,,,frame,,,,,,0,38,38,29,1,3,2,,,,,,,,,,,,,,,,,,,,,,,,,,,,,,,,,,,,,,,,,,,,,,,,,,,,,,,,,,,,,,,,,,,,,,,,,,,,,,,,,,,,,,,,,,,,,,,,,,,,,,,,,,,,,
