consent_key.keys,consent_key.rt,recalled,recalled_rt,recall_acc,example_recall.thisRepN,example_recall.thisTrialN,example_recall.thisN,example_recall.thisIndex,example_recall.ran,file,word,participant,please enter your date of birth (dd/mm/yyyy),date,expName,psychopyVersion,OS,frameRate,STUDY_ID,SESSION_ID,list,prac_learn_study_loop.thisRepN,prac_learn_study_loop.thisTrialN,prac_learn_study_loop.thisN,prac_learn_study_loop.thisIndex,prac_learn_study_loop.ran,image,prac_learn_test_loop.thisRepN,prac_learn_test_loop.thisTrialN,prac_learn_test_loop.thisN,prac_learn_test_loop.thisIndex,prac_learn_test_loop.ran,learn_study_loop.thisRepN,learn_study_loop.thisTrialN,learn_study_loop.thisN,learn_study_loop.thisIndex,learn_study_loop.ran,list_no,block_no,learn_test_loop.thisRepN,learn_test_loop.thisTrialN,learn_test_loop.thisN,learn_test_loop.thisIndex,learn_test_loop.ran,learn_blocks.thisRepN,learn_blocks.thisTrialN,learn_blocks.thisN,learn_blocks.thisIndex,learn_blocks.ran,block_csv,key_resp_13.keys,key_resp_13.rt,learn_blocks_loop.thisRepN,learn_blocks_loop.thisTrialN,learn_blocks_loop.thisN,learn_blocks_loop.thisIndex,learn_blocks_loop.ran,final_learn_test.thisRepN,final_learn_test.thisTrialN,final_learn_test.thisN,final_learn_test.thisIndex,final_learn_test.ran,s_im1,s_im2,s_im3,s_im4,s_im5,s_im6,s_im7,s_im8,s_im1pos,s_im2pos,s_im3pos,s_im4pos,s_im5pos,s_im6pos,s_im7pos,s_im8pos,s_tarright,search_resp.keys,search_loop.thisRepN,search_loop.thisTrialN,search_loop.thisN,search_loop.thisIndex,search_loop.ran,search_resp.rt,prac_wm_search_loop.thisRepN,prac_wm_search_loop.thisTrialN,prac_wm_search_loop.thisN,prac_wm_search_loop.thisIndex,prac_wm_search_loop.ran,prac_wm_test_loop.thisRepN,prac_wm_test_loop.thisTrialN,prac_wm_test_loop.thisN,prac_wm_test_loop.thisIndex,prac_wm_test_loop.ran,wm_recalled1,wm_recall_rt1,wm_probed1,wm_recall_acc1,wm_recalled2,wm_recall_rt2,wm_probed2,wm_recall_acc2,wm_recalled3,wm_recall_rt3,wm_probed3,wm_recall_acc3,wm_recalled4,wm_recall_rt4,wm_probed4,wm_recall_acc4,prac_wm_trial_loop.thisRepN,prac_wm_trial_loop.thisTrialN,prac_wm_trial_loop.thisN,prac_wm_trial_loop.thisIndex,prac_wm_trial_loop.ran,word1,image1,file1,item_type1,word2,image2,file2,item_type2,word4,image4,file4,item_type4,word3,image3,file3,item_type3,wm_search_loop.thisRepN,wm_search_loop.thisTrialN,wm_search_loop.thisN,wm_search_loop.thisIndex,wm_search_loop.ran,wm_test_loop.thisRepN,wm_test_loop.thisTrialN,wm_test_loop.thisN,wm_test_loop.thisIndex,wm_test_loop.ran,wm_trial_loop.thisRepN,wm_trial_loop.thisTrialN,wm_trial_loop.thisN,wm_trial_loop.thisIndex,wm_trial_loop.ran
y,46.21724,TOUGH,3.370905,1,0,0,0,0,1,stimuli/images/PICTURE_747.png,TOUGH,5efb2e99f4926b0467487421,30/05/1953,2020-09-10_15h22.21.394,proactive3.1,2020.1.2,Win32,60,5f599a131af4471f3d752b7b,5f5a355b84c0b1096a994552,2,,,,,,,,,,,,,,,,,,,,,,,,,,,,,,,,,,,,,,,,,,,,,,,,,,,,,,,,,,,,,,,,,,,,,,,,,,,,,,,,,,,,,,,,,,,,,,,,,,,,,,,,,,,,,,,,,,,,,,,,,,,,,,,
,,,,,,,,,,stimuli/images/PICTURE_697.png,KILLER,5efb2e99f4926b0467487421,30/05/1953,2020-09-10_15h22.21.394,proactive3.1,2020.1.2,Win32,60,5f599a131af4471f3d752b7b,5f5a355b84c0b1096a994552,2,0,0,0,4,1,peach,,,,,,,,,,,,,,,,,,,,,,,,,,,,,,,,,,,,,,,,,,,,,,,,,,,,,,,,,,,,,,,,,,,,,,,,,,,,,,,,,,,,,,,,,,,,,,,,,,,,,,,,,,,,,,,,,,,,,,,,,
,,,,,,,,,,stimuli/images/PICTURE_727.png,CELL,5efb2e99f4926b0467487421,30/05/1953,2020-09-10_15h22.21.394,proactive3.1,2020.1.2,Win32,60,5f599a131af4471f3d752b7b,5f5a355b84c0b1096a994552,2,0,1,1,1,1,hose,,,,,,,,,,,,,,,,,,,,,,,,,,,,,,,,,,,,,,,,,,,,,,,,,,,,,,,,,,,,,,,,,,,,,,,,,,,,,,,,,,,,,,,,,,,,,,,,,,,,,,,,,,,,,,,,,,,,,,,,,
,,,,,,,,,,stimuli/images/PICTURE_269.png,GENIUS,5efb2e99f4926b0467487421,30/05/1953,2020-09-10_15h22.21.394,proactive3.1,2020.1.2,Win32,60,5f599a131af4471f3d752b7b,5f5a355b84c0b1096a994552,2,0,2,2,0,1,chameleon,,,,,,,,,,,,,,,,,,,,,,,,,,,,,,,,,,,,,,,,,,,,,,,,,,,,,,,,,,,,,,,,,,,,,,,,,,,,,,,,,,,,,,,,,,,,,,,,,,,,,,,,,,,,,,,,,,,,,,,,,
,,,,,,,,,,stimuli/images/PICTURE_658.png,DEVIL,5efb2e99f4926b0467487421,30/05/1953,2020-09-10_15h22.21.394,proactive3.1,2020.1.2,Win32,60,5f599a131af4471f3d752b7b,5f5a355b84c0b1096a994552,2,0,3,3,3,1,crow,,,,,,,,,,,,,,,,,,,,,,,,,,,,,,,,,,,,,,,,,,,,,,,,,,,,,,,,,,,,,,,,,,,,,,,,,,,,,,,,,,,,,,,,,,,,,,,,,,,,,,,,,,,,,,,,,,,,,,,,,
,,LOSS,6.67473,1,,,,,,stimuli/images/PICTURE_378.png,LOSS,5efb2e99f4926b0467487421,30/05/1953,2020-09-10_15h22.21.394,proactive3.1,2020.1.2,Win32,60,5f599a131af4471f3d752b7b,5f5a355b84c0b1096a994552,2,,,,,,lobster,0,0,0,2,1,,,,,,,,,,,,,,,,,,,,,,,,,,,,,,,,,,,,,,,,,,,,,,,,,,,,,,,,,,,,,,,,,,,,,,,,,,,,,,,,,,,,,,,,,,,,,,,,,,,,,,,,,,,,,,,,,,,,
,,KILLER,4.49797,1,,,,,,stimuli/images/PICTURE_697.png,KILLER,5efb2e99f4926b0467487421,30/05/1953,2020-09-10_15h22.21.394,proactive3.1,2020.1.2,Win32,60,5f599a131af4471f3d752b7b,5f5a355b84c0b1096a994552,2,,,,,,peach,0,1,1,4,1,,,,,,,,,,,,,,,,,,,,,,,,,,,,,,,,,,,,,,,,,,,,,,,,,,,,,,,,,,,,,,,,,,,,,,,,,,,,,,,,,,,,,,,,,,,,,,,,,,,,,,,,,,,,,,,,,,,,
,,?,11.99818,0,,,,,,stimuli/images/PICTURE_727.png,CELL,5efb2e99f4926b0467487421,30/05/1953,2020-09-10_15h22.21.394,proactive3.1,2020.1.2,Win32,60,5f599a131af4471f3d752b7b,5f5a355b84c0b1096a994552,2,,,,,,hose,0,2,2,1,1,,,,,,,,,,,,,,,,,,,,,,,,,,,,,,,,,,,,,,,,,,,,,,,,,,,,,,,,,,,,,,,,,,,,,,,,,,,,,,,,,,,,,,,,,,,,,,,,,,,,,,,,,,,,,,,,,,,,
,,DEVIL,4.509925,1,,,,,,stimuli/images/PICTURE_658.png,DEVIL,5efb2e99f4926b0467487421,30/05/1953,2020-09-10_15h22.21.394,proactive3.1,2020.1.2,Win32,60,5f599a131af4471f3d752b7b,5f5a355b84c0b1096a994552,2,,,,,,crow,0,3,3,3,1,,,,,,,,,,,,,,,,,,,,,,,,,,,,,,,,,,,,,,,,,,,,,,,,,,,,,,,,,,,,,,,,,,,,,,,,,,,,,,,,,,,,,,,,,,,,,,,,,,,,,,,,,,,,,,,,,,,,
,,BRAVE,14.8159,0,,,,,,stimuli/images/PICTURE_269.png,GENIUS,5efb2e99f4926b0467487421,30/05/1953,2020-09-10_15h22.21.394,proactive3.1,2020.1.2,Win32,60,5f599a131af4471f3d752b7b,5f5a355b84c0b1096a994552,2,,,,,,chameleon,0,4,4,0,1,,,,,,,,,,,,,,,,,,,,,,,,,,,,,,,,,,,,,,,,,,,,,,,,,,,,,,,,,,,,,,,,,,,,,,,,,,,,,,,,,,,,,,,,,,,,,,,,,,,,,,,,,,,,,,,,,,,,
,,,,,,,,,,stimuli/images/PICTURE_685.png,PENNY,5efb2e99f4926b0467487421,30/05/1953,2020-09-10_15h22.21.394,proactive3.1,2020.1.2,Win32,60,5f599a131af4471f3d752b7b,5f5a355b84c0b1096a994552,2,,,,,,goose,,,,,,0,0,0,4,1,1,1,,,,,,,,,,,,,,,,,,,,,,,,,,,,,,,,,,,,,,,,,,,,,,,,,,,,,,,,,,,,,,,,,,,,,,,,,,,,,,,,,,,,,,,,,,,,,,,,,,,,,,,,,,,,,
,,,,,,,,,,stimuli/images/PICTURE_487.png,GIRL,5efb2e99f4926b0467487421,30/05/1953,2020-09-10_15h22.21.394,proactive3.1,2020.1.2,Win32,60,5f599a131af4471f3d752b7b,5f5a355b84c0b1096a994552,2,,,,,,basket,,,,,,0,1,1,45,1,5,1,,,,,,,,,,,,,,,,,,,,,,,,,,,,,,,,,,,,,,,,,,,,,,,,,,,,,,,,,,,,,,,,,,,,,,,,,,,,,,,,,,,,,,,,,,,,,,,,,,,,,,,,,,,,,
,,,,,,,,,,stimuli/images/PICTURE_108.png,FLIGHT,5efb2e99f4926b0467487421,30/05/1953,2020-09-10_15h22.21.394,proactive3.1,2020.1.2,Win32,60,5f599a131af4471f3d752b7b,5f5a355b84c0b1096a994552,2,,,,,,calendar,,,,,,0,2,2,59,1,6,1,,,,,,,,,,,,,,,,,,,,,,,,,,,,,,,,,,,,,,,,,,,,,,,,,,,,,,,,,,,,,,,,,,,,,,,,,,,,,,,,,,,,,,,,,,,,,,,,,,,,,,,,,,,,,
,,,,,,,,,,stimuli/images/PICTURE_327.png,SERIES,5efb2e99f4926b0467487421,30/05/1953,2020-09-10_15h22.21.394,proactive3.1,2020.1.2,Win32,60,5f599a131af4471f3d752b7b,5f5a355b84c0b1096a994552,2,,,,,,helmet,,,,,,0,3,3,3,1,1,1,,,,,,,,,,,,,,,,,,,,,,,,,,,,,,,,,,,,,,,,,,,,,,,,,,,,,,,,,,,,,,,,,,,,,,,,,,,,,,,,,,,,,,,,,,,,,,,,,,,,,,,,,,,,,
,,,,,,,,,,stimuli/images/PICTURE_32.png,PILLS,5efb2e99f4926b0467487421,30/05/1953,2020-09-10_15h22.21.394,proactive3.1,2020.1.2,Win32,60,5f599a131af4471f3d752b7b,5f5a355b84c0b1096a994552,2,,,,,,crown,,,,,,0,4,4,18,1,2,1,,,,,,,,,,,,,,,,,,,,,,,,,,,,,,,,,,,,,,,,,,,,,,,,,,,,,,,,,,,,,,,,,,,,,,,,,,,,,,,,,,,,,,,,,,,,,,,,,,,,,,,,,,,,,
,,,,,,,,,,stimuli/images/PICTURE_203.png,GODS,5efb2e99f4926b0467487421,30/05/1953,2020-09-10_15h22.21.394,proactive3.1,2020.1.2,Win32,60,5f599a131af4471f3d752b7b,5f5a355b84c0b1096a994552,2,,,,,,cap,,,,,,0,5,5,30,1,4,1,,,,,,,,,,,,,,,,,,,,,,,,,,,,,,,,,,,,,,,,,,,,,,,,,,,,,,,,,,,,,,,,,,,,,,,,,,,,,,,,,,,,,,,,,,,,,,,,,,,,,,,,,,,,,
,,,,,,,,,,stimuli/images/PICTURE_504.png,ARTIST,5efb2e99f4926b0467487421,30/05/1953,2020-09-10_15h22.21.394,proactive3.1,2020.1.2,Win32,60,5f599a131af4471f3d752b7b,5f5a355b84c0b1096a994552,2,,,,,,wheel,,,,,,0,6,6,49,1,5,1,,,,,,,,,,,,,,,,,,,,,,,,,,,,,,,,,,,,,,,,,,,,,,,,,,,,,,,,,,,,,,,,,,,,,,,,,,,,,,,,,,,,,,,,,,,,,,,,,,,,,,,,,,,,,
,,,,,,,,,,stimuli/images/PICTURE_744.png,WEAPON,5efb2e99f4926b0467487421,30/05/1953,2020-09-10_15h22.21.394,proactive3.1,2020.1.2,Win32,60,5f599a131af4471f3d752b7b,5f5a355b84c0b1096a994552,2,,,,,,ring,,,,,,0,7,7,50,1,6,1,,,,,,,,,,,,,,,,,,,,,,,,,,,,,,,,,,,,,,,,,,,,,,,,,,,,,,,,,,,,,,,,,,,,,,,,,,,,,,,,,,,,,,,,,,,,,,,,,,,,,,,,,,,,,
,,,,,,,,,,stimuli/images/PICTURE_708.png,RECORD,5efb2e99f4926b0467487421,30/05/1953,2020-09-10_15h22.21.394,proactive3.1,2020.1.2,Win32,60,5f599a131af4471f3d752b7b,5f5a355b84c0b1096a994552,2,,,,,,monkey,,,,,,0,8,8,58,1,6,1,,,,,,,,,,,,,,,,,,,,,,,,,,,,,,,,,,,,,,,,,,,,,,,,,,,,,,,,,,,,,,,,,,,,,,,,,,,,,,,,,,,,,,,,,,,,,,,,,,,,,,,,,,,,,
,,,,,,,,,,stimuli/images/PICTURE_2.png,FLIGHT,5efb2e99f4926b0467487421,30/05/1953,2020-09-10_15h22.21.394,proactive3.1,2020.1.2,Win32,60,5f599a131af4471f3d752b7b,5f5a355b84c0b1096a994552,2,,,,,,tyre,,,,,,0,9,9,15,1,2,1,,,,,,,,,,,,,,,,,,,,,,,,,,,,,,,,,,,,,,,,,,,,,,,,,,,,,,,,,,,,,,,,,,,,,,,,,,,,,,,,,,,,,,,,,,,,,,,,,,,,,,,,,,,,,
,,,,,,,,,,stimuli/images/PICTURE_380.png,HONEY,5efb2e99f4926b0467487421,30/05/1953,2020-09-10_15h22.21.394,proactive3.1,2020.1.2,Win32,60,5f599a131af4471f3d752b7b,5f5a355b84c0b1096a994552,2,,,,,,gorilla,,,,,,0,10,10,19,1,2,1,,,,,,,,,,,,,,,,,,,,,,,,,,,,,,,,,,,,,,,,,,,,,,,,,,,,,,,,,,,,,,,,,,,,,,,,,,,,,,,,,,,,,,,,,,,,,,,,,,,,,,,,,,,,,
,,,,,,,,,,stimuli/images/PICTURE_750.png,HOTEL,5efb2e99f4926b0467487421,30/05/1953,2020-09-10_15h22.21.394,proactive3.1,2020.1.2,Win32,60,5f599a131af4471f3d752b7b,5f5a355b84c0b1096a994552,2,,,,,,kettle,,,,,,0,11,11,27,1,3,1,,,,,,,,,,,,,,,,,,,,,,,,,,,,,,,,,,,,,,,,,,,,,,,,,,,,,,,,,,,,,,,,,,,,,,,,,,,,,,,,,,,,,,,,,,,,,,,,,,,,,,,,,,,,,
,,,,,,,,,,stimuli/images/PICTURE_340.png,VALLEY,5efb2e99f4926b0467487421,30/05/1953,2020-09-10_15h22.21.394,proactive3.1,2020.1.2,Win32,60,5f599a131af4471f3d752b7b,5f5a355b84c0b1096a994552,2,,,,,,mirror,,,,,,0,12,12,54,1,6,1,,,,,,,,,,,,,,,,,,,,,,,,,,,,,,,,,,,,,,,,,,,,,,,,,,,,,,,,,,,,,,,,,,,,,,,,,,,,,,,,,,,,,,,,,,,,,,,,,,,,,,,,,,,,,
,,,,,,,,,,stimuli/images/PICTURE_405.png,PLENTY,5efb2e99f4926b0467487421,30/05/1953,2020-09-10_15h22.21.394,proactive3.1,2020.1.2,Win32,60,5f599a131af4471f3d752b7b,5f5a355b84c0b1096a994552,2,,,,,,anchor,,,,,,0,13,13,23,1,3,1,,,,,,,,,,,,,,,,,,,,,,,,,,,,,,,,,,,,,,,,,,,,,,,,,,,,,,,,,,,,,,,,,,,,,,,,,,,,,,,,,,,,,,,,,,,,,,,,,,,,,,,,,,,,,
,,,,,,,,,,stimuli/images/PICTURE_380.png,CANDY,5efb2e99f4926b0467487421,30/05/1953,2020-09-10_15h22.21.394,proactive3.1,2020.1.2,Win32,60,5f599a131af4471f3d752b7b,5f5a355b84c0b1096a994552,2,,,,,,gorilla,,,,,,0,14,14,0,1,1,1,,,,,,,,,,,,,,,,,,,,,,,,,,,,,,,,,,,,,,,,,,,,,,,,,,,,,,,,,,,,,,,,,,,,,,,,,,,,,,,,,,,,,,,,,,,,,,,,,,,,,,,,,,,,,
,,,,,,,,,,stimuli/images/PICTURE_405.png,YEAR,5efb2e99f4926b0467487421,30/05/1953,2020-09-10_15h22.21.394,proactive3.1,2020.1.2,Win32,60,5f599a131af4471f3d752b7b,5f5a355b84c0b1096a994552,2,,,,,,anchor,,,,,,0,15,15,34,1,4,1,,,,,,,,,,,,,,,,,,,,,,,,,,,,,,,,,,,,,,,,,,,,,,,,,,,,,,,,,,,,,,,,,,,,,,,,,,,,,,,,,,,,,,,,,,,,,,,,,,,,,,,,,,,,,
,,,,,,,,,,stimuli/images/PICTURE_491.png,GLASS,5efb2e99f4926b0467487421,30/05/1953,2020-09-10_15h22.21.394,proactive3.1,2020.1.2,Win32,60,5f599a131af4471f3d752b7b,5f5a355b84c0b1096a994552,2,,,,,,rug,,,,,,0,16,16,14,1,2,1,,,,,,,,,,,,,,,,,,,,,,,,,,,,,,,,,,,,,,,,,,,,,,,,,,,,,,,,,,,,,,,,,,,,,,,,,,,,,,,,,,,,,,,,,,,,,,,,,,,,,,,,,,,,,
,,,,,,,,,,stimuli/images/PICTURE_667.png,RIVER,5efb2e99f4926b0467487421,30/05/1953,2020-09-10_15h22.21.394,proactive3.1,2020.1.2,Win32,60,5f599a131af4471f3d752b7b,5f5a355b84c0b1096a994552,2,,,,,,daisy,,,,,,0,17,17,10,1,2,1,,,,,,,,,,,,,,,,,,,,,,,,,,,,,,,,,,,,,,,,,,,,,,,,,,,,,,,,,,,,,,,,,,,,,,,,,,,,,,,,,,,,,,,,,,,,,,,,,,,,,,,,,,,,,
,,,,,,,,,,stimuli/images/PICTURE_469.png,AGENT,5efb2e99f4926b0467487421,30/05/1953,2020-09-10_15h22.21.394,proactive3.1,2020.1.2,Win32,60,5f599a131af4471f3d752b7b,5f5a355b84c0b1096a994552,2,,,,,,stool,,,,,,0,18,18,16,1,2,1,,,,,,,,,,,,,,,,,,,,,,,,,,,,,,,,,,,,,,,,,,,,,,,,,,,,,,,,,,,,,,,,,,,,,,,,,,,,,,,,,,,,,,,,,,,,,,,,,,,,,,,,,,,,,
,,,,,,,,,,stimuli/images/PICTURE_147.png,YEAR,5efb2e99f4926b0467487421,30/05/1953,2020-09-10_15h22.21.394,proactive3.1,2020.1.2,Win32,60,5f599a131af4471f3d752b7b,5f5a355b84c0b1096a994552,2,,,,,,hanger,,,,,,0,19,19,21,1,3,1,,,,,,,,,,,,,,,,,,,,,,,,,,,,,,,,,,,,,,,,,,,,,,,,,,,,,,,,,,,,,,,,,,,,,,,,,,,,,,,,,,,,,,,,,,,,,,,,,,,,,,,,,,,,,
,,,,,,,,,,stimuli/images/PICTURE_655.png,TOILET,5efb2e99f4926b0467487421,30/05/1953,2020-09-10_15h22.21.394,proactive3.1,2020.1.2,Win32,60,5f599a131af4471f3d752b7b,5f5a355b84c0b1096a994552,2,,,,,,megaphone,,,,,,0,20,20,12,1,2,1,,,,,,,,,,,,,,,,,,,,,,,,,,,,,,,,,,,,,,,,,,,,,,,,,,,,,,,,,,,,,,,,,,,,,,,,,,,,,,,,,,,,,,,,,,,,,,,,,,,,,,,,,,,,,
,,,,,,,,,,stimuli/images/PICTURE_449.png,DUDE,5efb2e99f4926b0467487421,30/05/1953,2020-09-10_15h22.21.394,proactive3.1,2020.1.2,Win32,60,5f599a131af4471f3d752b7b,5f5a355b84c0b1096a994552,2,,,,,,bench,,,,,,0,21,21,17,1,2,1,,,,,,,,,,,,,,,,,,,,,,,,,,,,,,,,,,,,,,,,,,,,,,,,,,,,,,,,,,,,,,,,,,,,,,,,,,,,,,,,,,,,,,,,,,,,,,,,,,,,,,,,,,,,,
,,,,,,,,,,stimuli/images/PICTURE_340.png,LETTER,5efb2e99f4926b0467487421,30/05/1953,2020-09-10_15h22.21.394,proactive3.1,2020.1.2,Win32,60,5f599a131af4471f3d752b7b,5f5a355b84c0b1096a994552,2,,,,,,mirror,,,,,,0,22,22,24,1,3,1,,,,,,,,,,,,,,,,,,,,,,,,,,,,,,,,,,,,,,,,,,,,,,,,,,,,,,,,,,,,,,,,,,,,,,,,,,,,,,,,,,,,,,,,,,,,,,,,,,,,,,,,,,,,,
,,,,,,,,,,stimuli/images/PICTURE_95.png,MILLER,5efb2e99f4926b0467487421,30/05/1953,2020-09-10_15h22.21.394,proactive3.1,2020.1.2,Win32,60,5f599a131af4471f3d752b7b,5f5a355b84c0b1096a994552,2,,,,,,suitcase,,,,,,0,23,23,56,1,6,1,,,,,,,,,,,,,,,,,,,,,,,,,,,,,,,,,,,,,,,,,,,,,,,,,,,,,,,,,,,,,,,,,,,,,,,,,,,,,,,,,,,,,,,,,,,,,,,,,,,,,,,,,,,,,
,,,,,,,,,,stimuli/images/PICTURE_177.png,WRITER,5efb2e99f4926b0467487421,30/05/1953,2020-09-10_15h22.21.394,proactive3.1,2020.1.2,Win32,60,5f599a131af4471f3d752b7b,5f5a355b84c0b1096a994552,2,,,,,,mushroom,,,,,,0,24,24,41,1,5,1,,,,,,,,,,,,,,,,,,,,,,,,,,,,,,,,,,,,,,,,,,,,,,,,,,,,,,,,,,,,,,,,,,,,,,,,,,,,,,,,,,,,,,,,,,,,,,,,,,,,,,,,,,,,,
,,,,,,,,,,stimuli/images/PICTURE_108.png,POLICY,5efb2e99f4926b0467487421,30/05/1953,2020-09-10_15h22.21.394,proactive3.1,2020.1.2,Win32,60,5f599a131af4471f3d752b7b,5f5a355b84c0b1096a994552,2,,,,,,calendar,,,,,,0,25,25,22,1,3,1,,,,,,,,,,,,,,,,,,,,,,,,,,,,,,,,,,,,,,,,,,,,,,,,,,,,,,,,,,,,,,,,,,,,,,,,,,,,,,,,,,,,,,,,,,,,,,,,,,,,,,,,,,,,,
,,,,,,,,,,stimuli/images/PICTURE_308.png,FAMILY,5efb2e99f4926b0467487421,30/05/1953,2020-09-10_15h22.21.394,proactive3.1,2020.1.2,Win32,60,5f599a131af4471f3d752b7b,5f5a355b84c0b1096a994552,2,,,,,,dice,,,,,,0,26,26,36,1,4,1,,,,,,,,,,,,,,,,,,,,,,,,,,,,,,,,,,,,,,,,,,,,,,,,,,,,,,,,,,,,,,,,,,,,,,,,,,,,,,,,,,,,,,,,,,,,,,,,,,,,,,,,,,,,,
,,,,,,,,,,stimuli/images/PICTURE_675.png,SALE,5efb2e99f4926b0467487421,30/05/1953,2020-09-10_15h22.21.394,proactive3.1,2020.1.2,Win32,60,5f599a131af4471f3d752b7b,5f5a355b84c0b1096a994552,2,,,,,,windmill,,,,,,0,27,27,47,1,5,1,,,,,,,,,,,,,,,,,,,,,,,,,,,,,,,,,,,,,,,,,,,,,,,,,,,,,,,,,,,,,,,,,,,,,,,,,,,,,,,,,,,,,,,,,,,,,,,,,,,,,,,,,,,,,
,,,,,,,,,,stimuli/images/PICTURE_677.png,APPLE,5efb2e99f4926b0467487421,30/05/1953,2020-09-10_15h22.21.394,proactive3.1,2020.1.2,Win32,60,5f599a131af4471f3d752b7b,5f5a355b84c0b1096a994552,2,,,,,,map,,,,,,0,28,28,43,1,5,1,,,,,,,,,,,,,,,,,,,,,,,,,,,,,,,,,,,,,,,,,,,,,,,,,,,,,,,,,,,,,,,,,,,,,,,,,,,,,,,,,,,,,,,,,,,,,,,,,,,,,,,,,,,,,
,,,,,,,,,,stimuli/images/PICTURE_42.png,BOYS,5efb2e99f4926b0467487421,30/05/1953,2020-09-10_15h22.21.394,proactive3.1,2020.1.2,Win32,60,5f599a131af4471f3d752b7b,5f5a355b84c0b1096a994552,2,,,,,,pear,,,,,,0,29,29,55,1,6,1,,,,,,,,,,,,,,,,,,,,,,,,,,,,,,,,,,,,,,,,,,,,,,,,,,,,,,,,,,,,,,,,,,,,,,,,,,,,,,,,,,,,,,,,,,,,,,,,,,,,,,,,,,,,,
,,,,,,,,,,stimuli/images/PICTURE_85.png,NATION,5efb2e99f4926b0467487421,30/05/1953,2020-09-10_15h22.21.394,proactive3.1,2020.1.2,Win32,60,5f599a131af4471f3d752b7b,5f5a355b84c0b1096a994552,2,,,,,,diamond,,,,,,0,30,30,5,1,1,1,,,,,,,,,,,,,,,,,,,,,,,,,,,,,,,,,,,,,,,,,,,,,,,,,,,,,,,,,,,,,,,,,,,,,,,,,,,,,,,,,,,,,,,,,,,,,,,,,,,,,,,,,,,,,
,,,,,,,,,,stimuli/images/PICTURE_296.png,LOTS,5efb2e99f4926b0467487421,30/05/1953,2020-09-10_15h22.21.394,proactive3.1,2020.1.2,Win32,60,5f599a131af4471f3d752b7b,5f5a355b84c0b1096a994552,2,,,,,,bolt,,,,,,0,31,31,9,1,1,1,,,,,,,,,,,,,,,,,,,,,,,,,,,,,,,,,,,,,,,,,,,,,,,,,,,,,,,,,,,,,,,,,,,,,,,,,,,,,,,,,,,,,,,,,,,,,,,,,,,,,,,,,,,,,
,,,,,,,,,,stimuli/images/PICTURE_85.png,TOILET,5efb2e99f4926b0467487421,30/05/1953,2020-09-10_15h22.21.394,proactive3.1,2020.1.2,Win32,60,5f599a131af4471f3d752b7b,5f5a355b84c0b1096a994552,2,,,,,,diamond,,,,,,0,32,32,48,1,5,1,,,,,,,,,,,,,,,,,,,,,,,,,,,,,,,,,,,,,,,,,,,,,,,,,,,,,,,,,,,,,,,,,,,,,,,,,,,,,,,,,,,,,,,,,,,,,,,,,,,,,,,,,,,,,
,,,,,,,,,,stimuli/images/PICTURE_403.png,WRITER,5efb2e99f4926b0467487421,30/05/1953,2020-09-10_15h22.21.394,proactive3.1,2020.1.2,Win32,60,5f599a131af4471f3d752b7b,5f5a355b84c0b1096a994552,2,,,,,,cathedral,,,,,,0,33,33,31,1,4,1,,,,,,,,,,,,,,,,,,,,,,,,,,,,,,,,,,,,,,,,,,,,,,,,,,,,,,,,,,,,,,,,,,,,,,,,,,,,,,,,,,,,,,,,,,,,,,,,,,,,,,,,,,,,,
,,,,,,,,,,stimuli/images/PICTURE_564.png,BATH,5efb2e99f4926b0467487421,30/05/1953,2020-09-10_15h22.21.394,proactive3.1,2020.1.2,Win32,60,5f599a131af4471f3d752b7b,5f5a355b84c0b1096a994552,2,,,,,,spoon,,,,,,0,34,34,26,1,3,1,,,,,,,,,,,,,,,,,,,,,,,,,,,,,,,,,,,,,,,,,,,,,,,,,,,,,,,,,,,,,,,,,,,,,,,,,,,,,,,,,,,,,,,,,,,,,,,,,,,,,,,,,,,,,
,,,,,,,,,,stimuli/images/PICTURE_95.png,BOYS,5efb2e99f4926b0467487421,30/05/1953,2020-09-10_15h22.21.394,proactive3.1,2020.1.2,Win32,60,5f599a131af4471f3d752b7b,5f5a355b84c0b1096a994552,2,,,,,,suitcase,,,,,,0,35,35,1,1,1,1,,,,,,,,,,,,,,,,,,,,,,,,,,,,,,,,,,,,,,,,,,,,,,,,,,,,,,,,,,,,,,,,,,,,,,,,,,,,,,,,,,,,,,,,,,,,,,,,,,,,,,,,,,,,,
,,,,,,,,,,stimuli/images/PICTURE_297.png,RIVER,5efb2e99f4926b0467487421,30/05/1953,2020-09-10_15h22.21.394,proactive3.1,2020.1.2,Win32,60,5f599a131af4471f3d752b7b,5f5a355b84c0b1096a994552,2,,,,,,aeroplane,,,,,,0,36,36,39,1,4,1,,,,,,,,,,,,,,,,,,,,,,,,,,,,,,,,,,,,,,,,,,,,,,,,,,,,,,,,,,,,,,,,,,,,,,,,,,,,,,,,,,,,,,,,,,,,,,,,,,,,,,,,,,,,,
,,,,,,,,,,stimuli/images/PICTURE_95.png,HONEY,5efb2e99f4926b0467487421,30/05/1953,2020-09-10_15h22.21.394,proactive3.1,2020.1.2,Win32,60,5f599a131af4471f3d752b7b,5f5a355b84c0b1096a994552,2,,,,,,suitcase,,,,,,0,37,37,44,1,5,1,,,,,,,,,,,,,,,,,,,,,,,,,,,,,,,,,,,,,,,,,,,,,,,,,,,,,,,,,,,,,,,,,,,,,,,,,,,,,,,,,,,,,,,,,,,,,,,,,,,,,,,,,,,,,
,,,,,,,,,,stimuli/images/PICTURE_383.png,WRITER,5efb2e99f4926b0467487421,30/05/1953,2020-09-10_15h22.21.394,proactive3.1,2020.1.2,Win32,60,5f599a131af4471f3d752b7b,5f5a355b84c0b1096a994552,2,,,,,,coin,,,,,,0,38,38,28,1,3,1,,,,,,,,,,,,,,,,,,,,,,,,,,,,,,,,,,,,,,,,,,,,,,,,,,,,,,,,,,,,,,,,,,,,,,,,,,,,,,,,,,,,,,,,,,,,,,,,,,,,,,,,,,,,,
,,,,,,,,,,stimuli/images/PICTURE_467.png,POLICY,5efb2e99f4926b0467487421,30/05/1953,2020-09-10_15h22.21.394,proactive3.1,2020.1.2,Win32,60,5f599a131af4471f3d752b7b,5f5a355b84c0b1096a994552,2,,,,,,peg,,,,,,0,39,39,53,1,6,1,,,,,,,,,,,,,,,,,,,,,,,,,,,,,,,,,,,,,,,,,,,,,,,,,,,,,,,,,,,,,,,,,,,,,,,,,,,,,,,,,,,,,,,,,,,,,,,,,,,,,,,,,,,,,
,,,,,,,,,,stimuli/images/PICTURE_147.png,WOMEN,5efb2e99f4926b0467487421,30/05/1953,2020-09-10_15h22.21.394,proactive3.1,2020.1.2,Win32,60,5f599a131af4471f3d752b7b,5f5a355b84c0b1096a994552,2,,,,,,hanger,,,,,,0,40,40,7,1,1,1,,,,,,,,,,,,,,,,,,,,,,,,,,,,,,,,,,,,,,,,,,,,,,,,,,,,,,,,,,,,,,,,,,,,,,,,,,,,,,,,,,,,,,,,,,,,,,,,,,,,,,,,,,,,,
,,,,,,,,,,stimuli/images/PICTURE_504.png,YEAR,5efb2e99f4926b0467487421,30/05/1953,2020-09-10_15h22.21.394,proactive3.1,2020.1.2,Win32,60,5f599a131af4471f3d752b7b,5f5a355b84c0b1096a994552,2,,,,,,wheel,,,,,,0,41,41,13,1,2,1,,,,,,,,,,,,,,,,,,,,,,,,,,,,,,,,,,,,,,,,,,,,,,,,,,,,,,,,,,,,,,,,,,,,,,,,,,,,,,,,,,,,,,,,,,,,,,,,,,,,,,,,,,,,,
,,,,,,,,,,stimuli/images/PICTURE_403.png,TOILET,5efb2e99f4926b0467487421,30/05/1953,2020-09-10_15h22.21.394,proactive3.1,2020.1.2,Win32,60,5f599a131af4471f3d752b7b,5f5a355b84c0b1096a994552,2,,,,,,cathedral,,,,,,0,42,42,25,1,3,1,,,,,,,,,,,,,,,,,,,,,,,,,,,,,,,,,,,,,,,,,,,,,,,,,,,,,,,,,,,,,,,,,,,,,,,,,,,,,,,,,,,,,,,,,,,,,,,,,,,,,,,,,,,,,
,,,,,,,,,,stimuli/images/PICTURE_491.png,RIVER,5efb2e99f4926b0467487421,30/05/1953,2020-09-10_15h22.21.394,proactive3.1,2020.1.2,Win32,60,5f599a131af4471f3d752b7b,5f5a355b84c0b1096a994552,2,,,,,,rug,,,,,,0,43,43,6,1,1,1,,,,,,,,,,,,,,,,,,,,,,,,,,,,,,,,,,,,,,,,,,,,,,,,,,,,,,,,,,,,,,,,,,,,,,,,,,,,,,,,,,,,,,,,,,,,,,,,,,,,,,,,,,,,,
,,,,,,,,,,stimuli/images/PICTURE_403.png,RIVER,5efb2e99f4926b0467487421,30/05/1953,2020-09-10_15h22.21.394,proactive3.1,2020.1.2,Win32,60,5f599a131af4471f3d752b7b,5f5a355b84c0b1096a994552,2,,,,,,cathedral,,,,,,0,44,44,40,1,5,1,,,,,,,,,,,,,,,,,,,,,,,,,,,,,,,,,,,,,,,,,,,,,,,,,,,,,,,,,,,,,,,,,,,,,,,,,,,,,,,,,,,,,,,,,,,,,,,,,,,,,,,,,,,,,
,,,,,,,,,,stimuli/images/PICTURE_654.png,MONTH,5efb2e99f4926b0467487421,30/05/1953,2020-09-10_15h22.21.394,proactive3.1,2020.1.2,Win32,60,5f599a131af4471f3d752b7b,5f5a355b84c0b1096a994552,2,,,,,,pencil,,,,,,0,45,45,29,1,3,1,,,,,,,,,,,,,,,,,,,,,,,,,,,,,,,,,,,,,,,,,,,,,,,,,,,,,,,,,,,,,,,,,,,,,,,,,,,,,,,,,,,,,,,,,,,,,,,,,,,,,,,,,,,,,
,,,,,,,,,,stimuli/images/PICTURE_208.png,SYSTEM,5efb2e99f4926b0467487421,30/05/1953,2020-09-10_15h22.21.394,proactive3.1,2020.1.2,Win32,60,5f599a131af4471f3d752b7b,5f5a355b84c0b1096a994552,2,,,,,,microphone,,,,,,0,46,46,32,1,4,1,,,,,,,,,,,,,,,,,,,,,,,,,,,,,,,,,,,,,,,,,,,,,,,,,,,,,,,,,,,,,,,,,,,,,,,,,,,,,,,,,,,,,,,,,,,,,,,,,,,,,,,,,,,,,
,,,,,,,,,,stimuli/images/PICTURE_339.png,CLIENT,5efb2e99f4926b0467487421,30/05/1953,2020-09-10_15h22.21.394,proactive3.1,2020.1.2,Win32,60,5f599a131af4471f3d752b7b,5f5a355b84c0b1096a994552,2,,,,,,backpack,,,,,,0,47,47,11,1,2,1,,,,,,,,,,,,,,,,,,,,,,,,,,,,,,,,,,,,,,,,,,,,,,,,,,,,,,,,,,,,,,,,,,,,,,,,,,,,,,,,,,,,,,,,,,,,,,,,,,,,,,,,,,,,,
,,,,,,,,,,stimuli/images/PICTURE_68.png,MILE,5efb2e99f4926b0467487421,30/05/1953,2020-09-10_15h22.21.394,proactive3.1,2020.1.2,Win32,60,5f599a131af4471f3d752b7b,5f5a355b84c0b1096a994552,2,,,,,,candle,,,,,,0,48,48,51,1,6,1,,,,,,,,,,,,,,,,,,,,,,,,,,,,,,,,,,,,,,,,,,,,,,,,,,,,,,,,,,,,,,,,,,,,,,,,,,,,,,,,,,,,,,,,,,,,,,,,,,,,,,,,,,,,,
,,,,,,,,,,stimuli/images/PICTURE_33.png,FRIEND,5efb2e99f4926b0467487421,30/05/1953,2020-09-10_15h22.21.394,proactive3.1,2020.1.2,Win32,60,5f599a131af4471f3d752b7b,5f5a355b84c0b1096a994552,2,,,,,,frame,,,,,,0,49,49,8,1,1,1,,,,,,,,,,,,,,,,,,,,,,,,,,,,,,,,,,,,,,,,,,,,,,,,,,,,,,,,,,,,,,,,,,,,,,,,,,,,,,,,,,,,,,,,,,,,,,,,,,,,,,,,,,,,,
,,,,,,,,,,stimuli/images/PICTURE_68.png,ROOF,5efb2e99f4926b0467487421,30/05/1953,2020-09-10_15h22.21.394,proactive3.1,2020.1.2,Win32,60,5f599a131af4471f3d752b7b,5f5a355b84c0b1096a994552,2,,,,,,candle,,,,,,0,50,50,38,1,4,1,,,,,,,,,,,,,,,,,,,,,,,,,,,,,,,,,,,,,,,,,,,,,,,,,,,,,,,,,,,,,,,,,,,,,,,,,,,,,,,,,,,,,,,,,,,,,,,,,,,,,,,,,,,,,
,,,,,,,,,,stimuli/images/PICTURE_327.png,CASINO,5efb2e99f4926b0467487421,30/05/1953,2020-09-10_15h22.21.394,proactive3.1,2020.1.2,Win32,60,5f599a131af4471f3d752b7b,5f5a355b84c0b1096a994552,2,,,,,,helmet,,,,,,0,51,51,20,1,3,1,,,,,,,,,,,,,,,,,,,,,,,,,,,,,,,,,,,,,,,,,,,,,,,,,,,,,,,,,,,,,,,,,,,,,,,,,,,,,,,,,,,,,,,,,,,,,,,,,,,,,,,,,,,,,
,,,,,,,,,,stimuli/images/PICTURE_57.png,MOMENT,5efb2e99f4926b0467487421,30/05/1953,2020-09-10_15h22.21.394,proactive3.1,2020.1.2,Win32,60,5f599a131af4471f3d752b7b,5f5a355b84c0b1096a994552,2,,,,,,stamp,,,,,,0,52,52,37,1,4,1,,,,,,,,,,,,,,,,,,,,,,,,,,,,,,,,,,,,,,,,,,,,,,,,,,,,,,,,,,,,,,,,,,,,,,,,,,,,,,,,,,,,,,,,,,,,,,,,,,,,,,,,,,,,,
,,,,,,,,,,stimuli/images/PICTURE_203.png,NIGHT,5efb2e99f4926b0467487421,30/05/1953,2020-09-10_15h22.21.394,proactive3.1,2020.1.2,Win32,60,5f599a131af4471f3d752b7b,5f5a355b84c0b1096a994552,2,,,,,,cap,,,,,,0,53,53,2,1,1,1,,,,,,,,,,,,,,,,,,,,,,,,,,,,,,,,,,,,,,,,,,,,,,,,,,,,,,,,,,,,,,,,,,,,,,,,,,,,,,,,,,,,,,,,,,,,,,,,,,,,,,,,,,,,,
,,,,,,,,,,stimuli/images/PICTURE_383.png,SERIES,5efb2e99f4926b0467487421,30/05/1953,2020-09-10_15h22.21.394,proactive3.1,2020.1.2,Win32,60,5f599a131af4471f3d752b7b,5f5a355b84c0b1096a994552,2,,,,,,coin,,,,,,0,54,54,46,1,5,1,,,,,,,,,,,,,,,,,,,,,,,,,,,,,,,,,,,,,,,,,,,,,,,,,,,,,,,,,,,,,,,,,,,,,,,,,,,,,,,,,,,,,,,,,,,,,,,,,,,,,,,,,,,,,
,,,,,,,,,,stimuli/images/PICTURE_32.png,KIND,5efb2e99f4926b0467487421,30/05/1953,2020-09-10_15h22.21.394,proactive3.1,2020.1.2,Win32,60,5f599a131af4471f3d752b7b,5f5a355b84c0b1096a994552,2,,,,,,crown,,,,,,0,55,55,35,1,4,1,,,,,,,,,,,,,,,,,,,,,,,,,,,,,,,,,,,,,,,,,,,,,,,,,,,,,,,,,,,,,,,,,,,,,,,,,,,,,,,,,,,,,,,,,,,,,,,,,,,,,,,,,,,,,
,,,,,,,,,,stimuli/images/PICTURE_296.png,LIFE,5efb2e99f4926b0467487421,30/05/1953,2020-09-10_15h22.21.394,proactive3.1,2020.1.2,Win32,60,5f599a131af4471f3d752b7b,5f5a355b84c0b1096a994552,2,,,,,,bolt,,,,,,0,56,56,57,1,6,1,,,,,,,,,,,,,,,,,,,,,,,,,,,,,,,,,,,,,,,,,,,,,,,,,,,,,,,,,,,,,,,,,,,,,,,,,,,,,,,,,,,,,,,,,,,,,,,,,,,,,,,,,,,,,
,,,,,,,,,,stimuli/images/PICTURE_285.png,LIFE,5efb2e99f4926b0467487421,30/05/1953,2020-09-10_15h22.21.394,proactive3.1,2020.1.2,Win32,60,5f599a131af4471f3d752b7b,5f5a355b84c0b1096a994552,2,,,,,,carrot,,,,,,0,57,57,33,1,4,1,,,,,,,,,,,,,,,,,,,,,,,,,,,,,,,,,,,,,,,,,,,,,,,,,,,,,,,,,,,,,,,,,,,,,,,,,,,,,,,,,,,,,,,,,,,,,,,,,,,,,,,,,,,,,
,,,,,,,,,,stimuli/images/PICTURE_504.png,COPS,5efb2e99f4926b0467487421,30/05/1953,2020-09-10_15h22.21.394,proactive3.1,2020.1.2,Win32,60,5f599a131af4471f3d752b7b,5f5a355b84c0b1096a994552,2,,,,,,wheel,,,,,,0,58,58,52,1,6,1,,,,,,,,,,,,,,,,,,,,,,,,,,,,,,,,,,,,,,,,,,,,,,,,,,,,,,,,,,,,,,,,,,,,,,,,,,,,,,,,,,,,,,,,,,,,,,,,,,,,,,,,,,,,,
,,?,0.00305,0,,,,,,stimuli/images/PICTURE_504.png,ARTIST,5efb2e99f4926b0467487421,30/05/1953,2020-09-10_15h22.21.394,proactive3.1,2020.1.2,Win32,60,5f599a131af4471f3d752b7b,5f5a355b84c0b1096a994552,2,,,,,,wheel,,,,,,,,,,,5,1,0,0,0,49,1,,,,,,,,,,,,,,,,,,,,,,,,,,,,,,,,,,,,,,,,,,,,,,,,,,,,,,,,,,,,,,,,,,,,,,,,,,,,,,,,,,,,,,,,,,,,,,,,,,,,,,,,
,,?,0.002035,0,,,,,,stimuli/images/PICTURE_208.png,SYSTEM,5efb2e99f4926b0467487421,30/05/1953,2020-09-10_15h22.21.394,proactive3.1,2020.1.2,Win32,60,5f599a131af4471f3d752b7b,5f5a355b84c0b1096a994552,2,,,,,,microphone,,,,,,,,,,,4,1,0,1,1,32,1,,,,,,,,,,,,,,,,,,,,,,,,,,,,,,,,,,,,,,,,,,,,,,,,,,,,,,,,,,,,,,,,,,,,,,,,,,,,,,,,,,,,,,,,,,,,,,,,,,,,,,,,
,,?,11.2328,0,,,,,,stimuli/images/PICTURE_449.png,DUDE,5efb2e99f4926b0467487421,30/05/1953,2020-09-10_15h22.21.394,proactive3.1,2020.1.2,Win32,60,5f599a131af4471f3d752b7b,5f5a355b84c0b1096a994552,2,,,,,,bench,,,,,,,,,,,2,1,0,2,2,17,1,,,,,,,,,,,,,,,,,,,,,,,,,,,,,,,,,,,,,,,,,,,,,,,,,,,,,,,,,,,,,,,,,,,,,,,,,,,,,,,,,,,,,,,,,,,,,,,,,,,,,,,,
,,?,0.001875,0,,,,,,stimuli/images/PICTURE_233.png,LOTS,5efb2e99f4926b0467487421,30/05/1953,2020-09-10_15h22.21.394,proactive3.1,2020.1.2,Win32,60,5f599a131af4471f3d752b7b,5f5a355b84c0b1096a994552,2,,,,,,salt,,,,,,,,,,,5,1,0,3,3,42,1,,,,,,,,,,,,,,,,,,,,,,,,,,,,,,,,,,,,,,,,,,,,,,,,,,,,,,,,,,,,,,,,,,,,,,,,,,,,,,,,,,,,,,,,,,,,,,,,,,,,,,,,
,,?,0.001655,0,,,,,,stimuli/images/PICTURE_85.png,TOILET,5efb2e99f4926b0467487421,30/05/1953,2020-09-10_15h22.21.394,proactive3.1,2020.1.2,Win32,60,5f599a131af4471f3d752b7b,5f5a355b84c0b1096a994552,2,,,,,,diamond,,,,,,,,,,,5,1,0,4,4,48,1,,,,,,,,,,,,,,,,,,,,,,,,,,,,,,,,,,,,,,,,,,,,,,,,,,,,,,,,,,,,,,,,,,,,,,,,,,,,,,,,,,,,,,,,,,,,,,,,,,,,,,,,
,,?,0.001585,0,,,,,,stimuli/images/PICTURE_708.png,RECORD,5efb2e99f4926b0467487421,30/05/1953,2020-09-10_15h22.21.394,proactive3.1,2020.1.2,Win32,60,5f599a131af4471f3d752b7b,5f5a355b84c0b1096a994552,2,,,,,,monkey,,,,,,,,,,,6,1,0,5,5,58,1,,,,,,,,,,,,,,,,,,,,,,,,,,,,,,,,,,,,,,,,,,,,,,,,,,,,,,,,,,,,,,,,,,,,,,,,,,,,,,,,,,,,,,,,,,,,,,,,,,,,,,,,
,,?,0.001635,0,,,,,,stimuli/images/PICTURE_297.png,RIVER,5efb2e99f4926b0467487421,30/05/1953,2020-09-10_15h22.21.394,proactive3.1,2020.1.2,Win32,60,5f599a131af4471f3d752b7b,5f5a355b84c0b1096a994552,2,,,,,,aeroplane,,,,,,,,,,,4,1,0,6,6,39,1,,,,,,,,,,,,,,,,,,,,,,,,,,,,,,,,,,,,,,,,,,,,,,,,,,,,,,,,,,,,,,,,,,,,,,,,,,,,,,,,,,,,,,,,,,,,,,,,,,,,,,,,
,,?,0.00148,0,,,,,,stimuli/images/PICTURE_405.png,YEAR,5efb2e99f4926b0467487421,30/05/1953,2020-09-10_15h22.21.394,proactive3.1,2020.1.2,Win32,60,5f599a131af4471f3d752b7b,5f5a355b84c0b1096a994552,2,,,,,,anchor,,,,,,,,,,,4,1,0,7,7,34,1,,,,,,,,,,,,,,,,,,,,,,,,,,,,,,,,,,,,,,,,,,,,,,,,,,,,,,,,,,,,,,,,,,,,,,,,,,,,,,,,,,,,,,,,,,,,,,,,,,,,,,,,
,,?,0.001755,0,,,,,,stimuli/images/PICTURE_147.png,WOMEN,5efb2e99f4926b0467487421,30/05/1953,2020-09-10_15h22.21.394,proactive3.1,2020.1.2,Win32,60,5f599a131af4471f3d752b7b,5f5a355b84c0b1096a994552,2,,,,,,hanger,,,,,,,,,,,1,1,0,8,8,7,1,,,,,,,,,,,,,,,,,,,,,,,,,,,,,,,,,,,,,,,,,,,,,,,,,,,,,,,,,,,,,,,,,,,,,,,,,,,,,,,,,,,,,,,,,,,,,,,,,,,,,,,,
,,?,0.00148,0,,,,,,stimuli/images/PICTURE_57.png,MOMENT,5efb2e99f4926b0467487421,30/05/1953,2020-09-10_15h22.21.394,proactive3.1,2020.1.2,Win32,60,5f599a131af4471f3d752b7b,5f5a355b84c0b1096a994552,2,,,,,,stamp,,,,,,,,,,,4,1,0,9,9,37,1,,,,,,,,,,,,,,,,,,,,,,,,,,,,,,,,,,,,,,,,,,,,,,,,,,,,,,,,,,,,,,,,,,,,,,,,,,,,,,,,,,,,,,,,,,,,,,,,,,,,,,,,
,,?,0.001545,0,,,,,,stimuli/images/PICTURE_147.png,YEAR,5efb2e99f4926b0467487421,30/05/1953,2020-09-10_15h22.21.394,proactive3.1,2020.1.2,Win32,60,5f599a131af4471f3d752b7b,5f5a355b84c0b1096a994552,2,,,,,,hanger,,,,,,,,,,,3,1,0,10,10,21,1,,,,,,,,,,,,,,,,,,,,,,,,,,,,,,,,,,,,,,,,,,,,,,,,,,,,,,,,,,,,,,,,,,,,,,,,,,,,,,,,,,,,,,,,,,,,,,,,,,,,,,,,
,,?,0.000605,0,,,,,,stimuli/images/PICTURE_285.png,LIFE,5efb2e99f4926b0467487421,30/05/1953,2020-09-10_15h22.21.394,proactive3.1,2020.1.2,Win32,60,5f599a131af4471f3d752b7b,5f5a355b84c0b1096a994552,2,,,,,,carrot,,,,,,,,,,,4,1,0,11,11,33,1,,,,,,,,,,,,,,,,,,,,,,,,,,,,,,,,,,,,,,,,,,,,,,,,,,,,,,,,,,,,,,,,,,,,,,,,,,,,,,,,,,,,,,,,,,,,,,,,,,,,,,,,
,,?,0.000575,0,,,,,,stimuli/images/PICTURE_654.png,MONTH,5efb2e99f4926b0467487421,30/05/1953,2020-09-10_15h22.21.394,proactive3.1,2020.1.2,Win32,60,5f599a131af4471f3d752b7b,5f5a355b84c0b1096a994552,2,,,,,,pencil,,,,,,,,,,,3,1,0,12,12,29,1,,,,,,,,,,,,,,,,,,,,,,,,,,,,,,,,,,,,,,,,,,,,,,,,,,,,,,,,,,,,,,,,,,,,,,,,,,,,,,,,,,,,,,,,,,,,,,,,,,,,,,,,
,,?,0.00059,0,,,,,,stimuli/images/PICTURE_327.png,SERIES,5efb2e99f4926b0467487421,30/05/1953,2020-09-10_15h22.21.394,proactive3.1,2020.1.2,Win32,60,5f599a131af4471f3d752b7b,5f5a355b84c0b1096a994552,2,,,,,,helmet,,,,,,,,,,,1,1,0,13,13,3,1,,,,,,,,,,,,,,,,,,,,,,,,,,,,,,,,,,,,,,,,,,,,,,,,,,,,,,,,,,,,,,,,,,,,,,,,,,,,,,,,,,,,,,,,,,,,,,,,,,,,,,,,
,,?,0.000595,0,,,,,,stimuli/images/PICTURE_491.png,RIVER,5efb2e99f4926b0467487421,30/05/1953,2020-09-10_15h22.21.394,proactive3.1,2020.1.2,Win32,60,5f599a131af4471f3d752b7b,5f5a355b84c0b1096a994552,2,,,,,,rug,,,,,,,,,,,1,1,0,14,14,6,1,,,,,,,,,,,,,,,,,,,,,,,,,,,,,,,,,,,,,,,,,,,,,,,,,,,,,,,,,,,,,,,,,,,,,,,,,,,,,,,,,,,,,,,,,,,,,,,,,,,,,,,,
,,?,0.00062,0,,,,,,stimuli/images/PICTURE_403.png,TOILET,5efb2e99f4926b0467487421,30/05/1953,2020-09-10_15h22.21.394,proactive3.1,2020.1.2,Win32,60,5f599a131af4471f3d752b7b,5f5a355b84c0b1096a994552,2,,,,,,cathedral,,,,,,,,,,,3,1,0,15,15,25,1,,,,,,,,,,,,,,,,,,,,,,,,,,,,,,,,,,,,,,,,,,,,,,,,,,,,,,,,,,,,,,,,,,,,,,,,,,,,,,,,,,,,,,,,,,,,,,,,,,,,,,,,
,,?,0.00069,0,,,,,,stimuli/images/PICTURE_108.png,FLIGHT,5efb2e99f4926b0467487421,30/05/1953,2020-09-10_15h22.21.394,proactive3.1,2020.1.2,Win32,60,5f599a131af4471f3d752b7b,5f5a355b84c0b1096a994552,2,,,,,,calendar,,,,,,,,,,,6,1,0,16,16,59,1,,,,,,,,,,,,,,,,,,,,,,,,,,,,,,,,,,,,,,,,,,,,,,,,,,,,,,,,,,,,,,,,,,,,,,,,,,,,,,,,,,,,,,,,,,,,,,,,,,,,,,,,
,,?,0.00073,0,,,,,,stimuli/images/PICTURE_95.png,MILLER,5efb2e99f4926b0467487421,30/05/1953,2020-09-10_15h22.21.394,proactive3.1,2020.1.2,Win32,60,5f599a131af4471f3d752b7b,5f5a355b84c0b1096a994552,2,,,,,,suitcase,,,,,,,,,,,6,1,0,17,17,56,1,,,,,,,,,,,,,,,,,,,,,,,,,,,,,,,,,,,,,,,,,,,,,,,,,,,,,,,,,,,,,,,,,,,,,,,,,,,,,,,,,,,,,,,,,,,,,,,,,,,,,,,,
,,?,0.0006,0,,,,,,stimuli/images/PICTURE_296.png,LIFE,5efb2e99f4926b0467487421,30/05/1953,2020-09-10_15h22.21.394,proactive3.1,2020.1.2,Win32,60,5f599a131af4471f3d752b7b,5f5a355b84c0b1096a994552,2,,,,,,bolt,,,,,,,,,,,6,1,0,18,18,57,1,,,,,,,,,,,,,,,,,,,,,,,,,,,,,,,,,,,,,,,,,,,,,,,,,,,,,,,,,,,,,,,,,,,,,,,,,,,,,,,,,,,,,,,,,,,,,,,,,,,,,,,,
,,?,0.000605,0,,,,,,stimuli/images/PICTURE_42.png,BOYS,5efb2e99f4926b0467487421,30/05/1953,2020-09-10_15h22.21.394,proactive3.1,2020.1.2,Win32,60,5f599a131af4471f3d752b7b,5f5a355b84c0b1096a994552,2,,,,,,pear,,,,,,,,,,,6,1,0,19,19,55,1,,,,,,,,,,,,,,,,,,,,,,,,,,,,,,,,,,,,,,,,,,,,,,,,,,,,,,,,,,,,,,,,,,,,,,,,,,,,,,,,,,,,,,,,,,,,,,,,,,,,,,,,
,,?,0.002545,0,,,,,,stimuli/images/PICTURE_308.png,FAMILY,5efb2e99f4926b0467487421,30/05/1953,2020-09-10_15h22.21.394,proactive3.1,2020.1.2,Win32,60,5f599a131af4471f3d752b7b,5f5a355b84c0b1096a994552,2,,,,,,dice,,,,,,,,,,,4,1,0,20,20,36,1,,,,,,,,,,,,,,,,,,,,,,,,,,,,,,,,,,,,,,,,,,,,,,,,,,,,,,,,,,,,,,,,,,,,,,,,,,,,,,,,,,,,,,,,,,,,,,,,,,,,,,,,
,,?,0.000595,0,,,,,,stimuli/images/PICTURE_504.png,COPS,5efb2e99f4926b0467487421,30/05/1953,2020-09-10_15h22.21.394,proactive3.1,2020.1.2,Win32,60,5f599a131af4471f3d752b7b,5f5a355b84c0b1096a994552,2,,,,,,wheel,,,,,,,,,,,6,1,0,21,21,52,1,,,,,,,,,,,,,,,,,,,,,,,,,,,,,,,,,,,,,,,,,,,,,,,,,,,,,,,,,,,,,,,,,,,,,,,,,,,,,,,,,,,,,,,,,,,,,,,,,,,,,,,,
,,?,0.000585,0,,,,,,stimuli/images/PICTURE_95.png,HONEY,5efb2e99f4926b0467487421,30/05/1953,2020-09-10_15h22.21.394,proactive3.1,2020.1.2,Win32,60,5f599a131af4471f3d752b7b,5f5a355b84c0b1096a994552,2,,,,,,suitcase,,,,,,,,,,,5,1,0,22,22,44,1,,,,,,,,,,,,,,,,,,,,,,,,,,,,,,,,,,,,,,,,,,,,,,,,,,,,,,,,,,,,,,,,,,,,,,,,,,,,,,,,,,,,,,,,,,,,,,,,,,,,,,,,
,,AGENT,7.65891,1,,,,,,stimuli/images/PICTURE_469.png,AGENT,5efb2e99f4926b0467487421,30/05/1953,2020-09-10_15h22.21.394,proactive3.1,2020.1.2,Win32,60,5f599a131af4471f3d752b7b,5f5a355b84c0b1096a994552,2,,,,,,stool,,,,,,,,,,,2,1,0,23,23,16,1,,,,,,,,,,,,,,,,,,,,,,,,,,,,,,,,,,,,,,,,,,,,,,,,,,,,,,,,,,,,,,,,,,,,,,,,,,,,,,,,,,,,,,,,,,,,,,,,,,,,,,,,
,,?,0.002405,0,,,,,,stimuli/images/PICTURE_383.png,WRITER,5efb2e99f4926b0467487421,30/05/1953,2020-09-10_15h22.21.394,proactive3.1,2020.1.2,Win32,60,5f599a131af4471f3d752b7b,5f5a355b84c0b1096a994552,2,,,,,,coin,,,,,,,,,,,3,1,0,24,24,28,1,,,,,,,,,,,,,,,,,,,,,,,,,,,,,,,,,,,,,,,,,,,,,,,,,,,,,,,,,,,,,,,,,,,,,,,,,,,,,,,,,,,,,,,,,,,,,,,,,,,,,,,,
,,?,0.001945,0,,,,,,stimuli/images/PICTURE_296.png,LOTS,5efb2e99f4926b0467487421,30/05/1953,2020-09-10_15h22.21.394,proactive3.1,2020.1.2,Win32,60,5f599a131af4471f3d752b7b,5f5a355b84c0b1096a994552,2,,,,,,bolt,,,,,,,,,,,1,1,0,25,25,9,1,,,,,,,,,,,,,,,,,,,,,,,,,,,,,,,,,,,,,,,,,,,,,,,,,,,,,,,,,,,,,,,,,,,,,,,,,,,,,,,,,,,,,,,,,,,,,,,,,,,,,,,,
,,CLIENT,6.95489,1,,,,,,stimuli/images/PICTURE_339.png,CLIENT,5efb2e99f4926b0467487421,30/05/1953,2020-09-10_15h22.21.394,proactive3.1,2020.1.2,Win32,60,5f599a131af4471f3d752b7b,5f5a355b84c0b1096a994552,2,,,,,,backpack,,,,,,,,,,,2,1,0,26,26,11,1,,,,,,,,,,,,,,,,,,,,,,,,,,,,,,,,,,,,,,,,,,,,,,,,,,,,,,,,,,,,,,,,,,,,,,,,,,,,,,,,,,,,,,,,,,,,,,,,,,,,,,,,
,,?,0.001445,0,,,,,,stimuli/images/PICTURE_95.png,BOYS,5efb2e99f4926b0467487421,30/05/1953,2020-09-10_15h22.21.394,proactive3.1,2020.1.2,Win32,60,5f599a131af4471f3d752b7b,5f5a355b84c0b1096a994552,2,,,,,,suitcase,,,,,,,,,,,1,1,0,27,27,1,1,,,,,,,,,,,,,,,,,,,,,,,,,,,,,,,,,,,,,,,,,,,,,,,,,,,,,,,,,,,,,,,,,,,,,,,,,,,,,,,,,,,,,,,,,,,,,,,,,,,,,,,,
,,?,0.001225,0,,,,,,stimuli/images/PICTURE_685.png,PENNY,5efb2e99f4926b0467487421,30/05/1953,2020-09-10_15h22.21.394,proactive3.1,2020.1.2,Win32,60,5f599a131af4471f3d752b7b,5f5a355b84c0b1096a994552,2,,,,,,goose,,,,,,,,,,,1,1,0,28,28,4,1,,,,,,,,,,,,,,,,,,,,,,,,,,,,,,,,,,,,,,,,,,,,,,,,,,,,,,,,,,,,,,,,,,,,,,,,,,,,,,,,,,,,,,,,,,,,,,,,,,,,,,,,
,,?,0.001075,0,,,,,,stimuli/images/PICTURE_177.png,WRITER,5efb2e99f4926b0467487421,30/05/1953,2020-09-10_15h22.21.394,proactive3.1,2020.1.2,Win32,60,5f599a131af4471f3d752b7b,5f5a355b84c0b1096a994552,2,,,,,,mushroom,,,,,,,,,,,5,1,0,29,29,41,1,,,,,,,,,,,,,,,,,,,,,,,,,,,,,,,,,,,,,,,,,,,,,,,,,,,,,,,,,,,,,,,,,,,,,,,,,,,,,,,,,,,,,,,,,,,,,,,,,,,,,,,,
,,YE,15.007365,0,,,,,,stimuli/images/PICTURE_655.png,TOILET,5efb2e99f4926b0467487421,30/05/1953,2020-09-10_15h22.21.394,proactive3.1,2020.1.2,Win32,60,5f599a131af4471f3d752b7b,5f5a355b84c0b1096a994552,2,,,,,,megaphone,,,,,,,,,,,2,1,0,30,30,12,1,,,,,,,,,,,,,,,,,,,,,,,,,,,,,,,,,,,,,,,,,,,,,,,,,,,,,,,,,,,,,,,,,,,,,,,,,,,,,,,,,,,,,,,,,,,,,,,,,,,,,,,,
,,?,0.00154,0,,,,,,stimuli/images/PICTURE_203.png,NIGHT,5efb2e99f4926b0467487421,30/05/1953,2020-09-10_15h22.21.394,proactive3.1,2020.1.2,Win32,60,5f599a131af4471f3d752b7b,5f5a355b84c0b1096a994552,2,,,,,,cap,,,,,,,,,,,1,1,0,31,31,2,1,,,,,,,,,,,,,,,,,,,,,,,,,,,,,,,,,,,,,,,,,,,,,,,,,,,,,,,,,,,,,,,,,,,,,,,,,,,,,,,,,,,,,,,,,,,,,,,,,,,,,,,,
,,?,0.001155,0,,,,,,stimuli/images/PICTURE_68.png,MILE,5efb2e99f4926b0467487421,30/05/1953,2020-09-10_15h22.21.394,proactive3.1,2020.1.2,Win32,60,5f599a131af4471f3d752b7b,5f5a355b84c0b1096a994552,2,,,,,,candle,,,,,,,,,,,6,1,0,32,32,51,1,,,,,,,,,,,,,,,,,,,,,,,,,,,,,,,,,,,,,,,,,,,,,,,,,,,,,,,,,,,,,,,,,,,,,,,,,,,,,,,,,,,,,,,,,,,,,,,,,,,,,,,,
,,?,0.00114,0,,,,,,stimuli/images/PICTURE_203.png,GODS,5efb2e99f4926b0467487421,30/05/1953,2020-09-10_15h22.21.394,proactive3.1,2020.1.2,Win32,60,5f599a131af4471f3d752b7b,5f5a355b84c0b1096a994552,2,,,,,,cap,,,,,,,,,,,4,1,0,33,33,30,1,,,,,,,,,,,,,,,,,,,,,,,,,,,,,,,,,,,,,,,,,,,,,,,,,,,,,,,,,,,,,,,,,,,,,,,,,,,,,,,,,,,,,,,,,,,,,,,,,,,,,,,,
,,?,0.001145,0,,,,,,stimuli/images/PICTURE_380.png,CANDY,5efb2e99f4926b0467487421,30/05/1953,2020-09-10_15h22.21.394,proactive3.1,2020.1.2,Win32,60,5f599a131af4471f3d752b7b,5f5a355b84c0b1096a994552,2,,,,,,gorilla,,,,,,,,,,,1,1,0,34,34,0,1,,,,,,,,,,,,,,,,,,,,,,,,,,,,,,,,,,,,,,,,,,,,,,,,,,,,,,,,,,,,,,,,,,,,,,,,,,,,,,,,,,,,,,,,,,,,,,,,,,,,,,,,
,,?,13.16943,0,,,,,,stimuli/images/PICTURE_504.png,YEAR,5efb2e99f4926b0467487421,30/05/1953,2020-09-10_15h22.21.394,proactive3.1,2020.1.2,Win32,60,5f599a131af4471f3d752b7b,5f5a355b84c0b1096a994552,2,,,,,,wheel,,,,,,,,,,,2,1,0,35,35,13,1,,,,,,,,,,,,,,,,,,,,,,,,,,,,,,,,,,,,,,,,,,,,,,,,,,,,,,,,,,,,,,,,,,,,,,,,,,,,,,,,,,,,,,,,,,,,,,,,,,,,,,,,
,,?,0.002215,0,,,,,,stimuli/images/PICTURE_405.png,PLENTY,5efb2e99f4926b0467487421,30/05/1953,2020-09-10_15h22.21.394,proactive3.1,2020.1.2,Win32,60,5f599a131af4471f3d752b7b,5f5a355b84c0b1096a994552,2,,,,,,anchor,,,,,,,,,,,3,1,0,36,36,23,1,,,,,,,,,,,,,,,,,,,,,,,,,,,,,,,,,,,,,,,,,,,,,,,,,,,,,,,,,,,,,,,,,,,,,,,,,,,,,,,,,,,,,,,,,,,,,,,,,,,,,,,,
,,?,0.001865,0,,,,,,stimuli/images/PICTURE_403.png,WRITER,5efb2e99f4926b0467487421,30/05/1953,2020-09-10_15h22.21.394,proactive3.1,2020.1.2,Win32,60,5f599a131af4471f3d752b7b,5f5a355b84c0b1096a994552,2,,,,,,cathedral,,,,,,,,,,,4,1,0,37,37,31,1,,,,,,,,,,,,,,,,,,,,,,,,,,,,,,,,,,,,,,,,,,,,,,,,,,,,,,,,,,,,,,,,,,,,,,,,,,,,,,,,,,,,,,,,,,,,,,,,,,,,,,,,
,,?,0.001815,0,,,,,,stimuli/images/PICTURE_33.png,FRIEND,5efb2e99f4926b0467487421,30/05/1953,2020-09-10_15h22.21.394,proactive3.1,2020.1.2,Win32,60,5f599a131af4471f3d752b7b,5f5a355b84c0b1096a994552,2,,,,,,frame,,,,,,,,,,,1,1,0,38,38,8,1,,,,,,,,,,,,,,,,,,,,,,,,,,,,,,,,,,,,,,,,,,,,,,,,,,,,,,,,,,,,,,,,,,,,,,,,,,,,,,,,,,,,,,,,,,,,,,,,,,,,,,,,
,,TOILET,6.94917,0,,,,,,stimuli/images/PICTURE_491.png,GLASS,5efb2e99f4926b0467487421,30/05/1953,2020-09-10_15h22.21.394,proactive3.1,2020.1.2,Win32,60,5f599a131af4471f3d752b7b,5f5a355b84c0b1096a994552,2,,,,,,rug,,,,,,,,,,,2,1,0,39,39,14,1,,,,,,,,,,,,,,,,,,,,,,,,,,,,,,,,,,,,,,,,,,,,,,,,,,,,,,,,,,,,,,,,,,,,,,,,,,,,,,,,,,,,,,,,,,,,,,,,,,,,,,,,
,,?,0.002175,0,,,,,,stimuli/images/PICTURE_564.png,BATH,5efb2e99f4926b0467487421,30/05/1953,2020-09-10_15h22.21.394,proactive3.1,2020.1.2,Win32,60,5f599a131af4471f3d752b7b,5f5a355b84c0b1096a994552,2,,,,,,spoon,,,,,,,,,,,3,1,0,40,40,26,1,,,,,,,,,,,,,,,,,,,,,,,,,,,,,,,,,,,,,,,,,,,,,,,,,,,,,,,,,,,,,,,,,,,,,,,,,,,,,,,,,,,,,,,,,,,,,,,,,,,,,,,,
,,RIVER,9.675025,1,,,,,,stimuli/images/PICTURE_667.png,RIVER,5efb2e99f4926b0467487421,30/05/1953,2020-09-10_15h22.21.394,proactive3.1,2020.1.2,Win32,60,5f599a131af4471f3d752b7b,5f5a355b84c0b1096a994552,2,,,,,,daisy,,,,,,,,,,,2,1,0,41,41,10,1,,,,,,,,,,,,,,,,,,,,,,,,,,,,,,,,,,,,,,,,,,,,,,,,,,,,,,,,,,,,,,,,,,,,,,,,,,,,,,,,,,,,,,,,,,,,,,,,,,,,,,,,
,,?,0.002165,0,,,,,,stimuli/images/PICTURE_68.png,ROOF,5efb2e99f4926b0467487421,30/05/1953,2020-09-10_15h22.21.394,proactive3.1,2020.1.2,Win32,60,5f599a131af4471f3d752b7b,5f5a355b84c0b1096a994552,2,,,,,,candle,,,,,,,,,,,4,1,0,42,42,38,1,,,,,,,,,,,,,,,,,,,,,,,,,,,,,,,,,,,,,,,,,,,,,,,,,,,,,,,,,,,,,,,,,,,,,,,,,,,,,,,,,,,,,,,,,,,,,,,,,,,,,,,,
,,?,0.001915,0,,,,,,stimuli/images/PICTURE_675.png,SALE,5efb2e99f4926b0467487421,30/05/1953,2020-09-10_15h22.21.394,proactive3.1,2020.1.2,Win32,60,5f599a131af4471f3d752b7b,5f5a355b84c0b1096a994552,2,,,,,,windmill,,,,,,,,,,,5,1,0,43,43,47,1,,,,,,,,,,,,,,,,,,,,,,,,,,,,,,,,,,,,,,,,,,,,,,,,,,,,,,,,,,,,,,,,,,,,,,,,,,,,,,,,,,,,,,,,,,,,,,,,,,,,,,,,
,,?,0.00177,0,,,,,,stimuli/images/PICTURE_340.png,VALLEY,5efb2e99f4926b0467487421,30/05/1953,2020-09-10_15h22.21.394,proactive3.1,2020.1.2,Win32,60,5f599a131af4471f3d752b7b,5f5a355b84c0b1096a994552,2,,,,,,mirror,,,,,,,,,,,6,1,0,44,44,54,1,,,,,,,,,,,,,,,,,,,,,,,,,,,,,,,,,,,,,,,,,,,,,,,,,,,,,,,,,,,,,,,,,,,,,,,,,,,,,,,,,,,,,,,,,,,,,,,,,,,,,,,,
,,HOME,5.517155,0,,,,,,stimuli/images/PICTURE_380.png,HONEY,5efb2e99f4926b0467487421,30/05/1953,2020-09-10_15h22.21.394,proactive3.1,2020.1.2,Win32,60,5f599a131af4471f3d752b7b,5f5a355b84c0b1096a994552,2,,,,,,gorilla,,,,,,,,,,,2,1,0,45,45,19,1,,,,,,,,,,,,,,,,,,,,,,,,,,,,,,,,,,,,,,,,,,,,,,,,,,,,,,,,,,,,,,,,,,,,,,,,,,,,,,,,,,,,,,,,,,,,,,,,,,,,,,,,
,,?,0.0024,0,,,,,,stimuli/images/PICTURE_340.png,LETTER,5efb2e99f4926b0467487421,30/05/1953,2020-09-10_15h22.21.394,proactive3.1,2020.1.2,Win32,60,5f599a131af4471f3d752b7b,5f5a355b84c0b1096a994552,2,,,,,,mirror,,,,,,,,,,,3,1,0,46,46,24,1,,,,,,,,,,,,,,,,,,,,,,,,,,,,,,,,,,,,,,,,,,,,,,,,,,,,,,,,,,,,,,,,,,,,,,,,,,,,,,,,,,,,,,,,,,,,,,,,,,,,,,,,
,,PILLS,11.274835,1,,,,,,stimuli/images/PICTURE_32.png,PILLS,5efb2e99f4926b0467487421,30/05/1953,2020-09-10_15h22.21.394,proactive3.1,2020.1.2,Win32,60,5f599a131af4471f3d752b7b,5f5a355b84c0b1096a994552,2,,,,,,crown,,,,,,,,,,,2,1,0,47,47,18,1,,,,,,,,,,,,,,,,,,,,,,,,,,,,,,,,,,,,,,,,,,,,,,,,,,,,,,,,,,,,,,,,,,,,,,,,,,,,,,,,,,,,,,,,,,,,,,,,,,,,,,,,
,,?,0.002295,0,,,,,,stimuli/images/PICTURE_327.png,CASINO,5efb2e99f4926b0467487421,30/05/1953,2020-09-10_15h22.21.394,proactive3.1,2020.1.2,Win32,60,5f599a131af4471f3d752b7b,5f5a355b84c0b1096a994552,2,,,,,,helmet,,,,,,,,,,,3,1,0,48,48,20,1,,,,,,,,,,,,,,,,,,,,,,,,,,,,,,,,,,,,,,,,,,,,,,,,,,,,,,,,,,,,,,,,,,,,,,,,,,,,,,,,,,,,,,,,,,,,,,,,,,,,,,,,
,,?,0.001775,0,,,,,,stimuli/images/PICTURE_467.png,POLICY,5efb2e99f4926b0467487421,30/05/1953,2020-09-10_15h22.21.394,proactive3.1,2020.1.2,Win32,60,5f599a131af4471f3d752b7b,5f5a355b84c0b1096a994552,2,,,,,,peg,,,,,,,,,,,6,1,0,49,49,53,1,,,,,,,,,,,,,,,,,,,,,,,,,,,,,,,,,,,,,,,,,,,,,,,,,,,,,,,,,,,,,,,,,,,,,,,,,,,,,,,,,,,,,,,,,,,,,,,,,,,,,,,,
,,?,0.001915,0,,,,,,stimuli/images/PICTURE_32.png,KIND,5efb2e99f4926b0467487421,30/05/1953,2020-09-10_15h22.21.394,proactive3.1,2020.1.2,Win32,60,5f599a131af4471f3d752b7b,5f5a355b84c0b1096a994552,2,,,,,,crown,,,,,,,,,,,4,1,0,50,50,35,1,,,,,,,,,,,,,,,,,,,,,,,,,,,,,,,,,,,,,,,,,,,,,,,,,,,,,,,,,,,,,,,,,,,,,,,,,,,,,,,,,,,,,,,,,,,,,,,,,,,,,,,,
,,?,0.00222,0,,,,,,stimuli/images/PICTURE_744.png,WEAPON,5efb2e99f4926b0467487421,30/05/1953,2020-09-10_15h22.21.394,proactive3.1,2020.1.2,Win32,60,5f599a131af4471f3d752b7b,5f5a355b84c0b1096a994552,2,,,,,,ring,,,,,,,,,,,6,1,0,51,51,50,1,,,,,,,,,,,,,,,,,,,,,,,,,,,,,,,,,,,,,,,,,,,,,,,,,,,,,,,,,,,,,,,,,,,,,,,,,,,,,,,,,,,,,,,,,,,,,,,,,,,,,,,,
,,?,0.00198,0,,,,,,stimuli/images/PICTURE_750.png,HOTEL,5efb2e99f4926b0467487421,30/05/1953,2020-09-10_15h22.21.394,proactive3.1,2020.1.2,Win32,60,5f599a131af4471f3d752b7b,5f5a355b84c0b1096a994552,2,,,,,,kettle,,,,,,,,,,,3,1,0,52,52,27,1,,,,,,,,,,,,,,,,,,,,,,,,,,,,,,,,,,,,,,,,,,,,,,,,,,,,,,,,,,,,,,,,,,,,,,,,,,,,,,,,,,,,,,,,,,,,,,,,,,,,,,,,
,,YEAR,11.67284,0,,,,,,stimuli/images/PICTURE_2.png,FLIGHT,5efb2e99f4926b0467487421,30/05/1953,2020-09-10_15h22.21.394,proactive3.1,2020.1.2,Win32,60,5f599a131af4471f3d752b7b,5f5a355b84c0b1096a994552,2,,,,,,tyre,,,,,,,,,,,2,1,0,53,53,15,1,,,,,,,,,,,,,,,,,,,,,,,,,,,,,,,,,,,,,,,,,,,,,,,,,,,,,,,,,,,,,,,,,,,,,,,,,,,,,,,,,,,,,,,,,,,,,,,,,,,,,,,,
,,?,0.001165,0,,,,,,stimuli/images/PICTURE_403.png,RIVER,5efb2e99f4926b0467487421,30/05/1953,2020-09-10_15h22.21.394,proactive3.1,2020.1.2,Win32,60,5f599a131af4471f3d752b7b,5f5a355b84c0b1096a994552,2,,,,,,cathedral,,,,,,,,,,,5,1,0,54,54,40,1,,,,,,,,,,,,,,,,,,,,,,,,,,,,,,,,,,,,,,,,,,,,,,,,,,,,,,,,,,,,,,,,,,,,,,,,,,,,,,,,,,,,,,,,,,,,,,,,,,,,,,,,
,,?,0.000605,0,,,,,,stimuli/images/PICTURE_108.png,POLICY,5efb2e99f4926b0467487421,30/05/1953,2020-09-10_15h22.21.394,proactive3.1,2020.1.2,Win32,60,5f599a131af4471f3d752b7b,5f5a355b84c0b1096a994552,2,,,,,,calendar,,,,,,,,,,,3,1,0,55,55,22,1,,,,,,,,,,,,,,,,,,,,,,,,,,,,,,,,,,,,,,,,,,,,,,,,,,,,,,,,,,,,,,,,,,,,,,,,,,,,,,,,,,,,,,,,,,,,,,,,,,,,,,,,
,,?,0.000585,0,,,,,,stimuli/images/PICTURE_383.png,SERIES,5efb2e99f4926b0467487421,30/05/1953,2020-09-10_15h22.21.394,proactive3.1,2020.1.2,Win32,60,5f599a131af4471f3d752b7b,5f5a355b84c0b1096a994552,2,,,,,,coin,,,,,,,,,,,5,1,0,56,56,46,1,,,,,,,,,,,,,,,,,,,,,,,,,,,,,,,,,,,,,,,,,,,,,,,,,,,,,,,,,,,,,,,,,,,,,,,,,,,,,,,,,,,,,,,,,,,,,,,,,,,,,,,,
,,?,0.00059,0,,,,,,stimuli/images/PICTURE_85.png,NATION,5efb2e99f4926b0467487421,30/05/1953,2020-09-10_15h22.21.394,proactive3.1,2020.1.2,Win32,60,5f599a131af4471f3d752b7b,5f5a355b84c0b1096a994552,2,,,,,,diamond,,,,,,,,,,,1,1,0,57,57,5,1,,,,,,,,,,,,,,,,,,,,,,,,,,,,,,,,,,,,,,,,,,,,,,,,,,,,,,,,,,,,,,,,,,,,,,,,,,,,,,,,,,,,,,,,,,,,,,,,,,,,,,,,
,,?,0.00058,0,,,,,,stimuli/images/PICTURE_677.png,APPLE,5efb2e99f4926b0467487421,30/05/1953,2020-09-10_15h22.21.394,proactive3.1,2020.1.2,Win32,60,5f599a131af4471f3d752b7b,5f5a355b84c0b1096a994552,2,,,,,,map,,,,,,,,,,,5,1,0,58,58,43,1,,,,,,,,,,,,,,,,,,,,,,,,,,,,,,,,,,,,,,,,,,,,,,,,,,,,,,,,,,,,,,,,,,,,,,,,,,,,,,,,,,,,,,,,,,,,,,,,,,,,,,,,
,,?,0.00056,0,,,,,,stimuli/images/PICTURE_487.png,GIRL,5efb2e99f4926b0467487421,30/05/1953,2020-09-10_15h22.21.394,proactive3.1,2020.1.2,Win32,60,5f599a131af4471f3d752b7b,5f5a355b84c0b1096a994552,2,,,,,,basket,,,,,,,,,,,5,1,0,59,59,45,1,,,,,,,,,,,,,,,,,,,,,,,,,,,,,,,,,,,,,,,,,,,,,,,,,,,,,,,,,,,,,,,,,,,,,,,,,,,,,,,,,,,,,,,,,,,,,,,,,,,,,,,,
,,,,,,,,,,,,5efb2e99f4926b0467487421,30/05/1953,2020-09-10_15h22.21.394,proactive3.1,2020.1.2,Win32,60,5f599a131af4471f3d752b7b,5f5a355b84c0b1096a994552,2,,,,,,,,,,,,,,,,,,,,,,,,0,0,0,1,1,stimuli/learn-block2.csv,,,,,,,,,,,,,,,,,,,,,,,,,,,,,,,,,,,,,,,,,,,,,,,,,,,,,,,,,,,,,,,,,,,,,,,,,,,,,,,,,,,,,,,,,,,,,,,,,,
,,,,,,,,,,stimuli/images/PICTURE_708.png,CLIENT,5efb2e99f4926b0467487421,30/05/1953,2020-09-10_15h22.21.394,proactive3.1,2020.1.2,Win32,60,5f599a131af4471f3d752b7b,5f5a355b84c0b1096a994552,2,,,,,,monkey,,,,,,0,0,0,5,1,1,0,,,,,,,,,,,,,,,,,,,,,,,,,,,,,,,,,,,,,,,,,,,,,,,,,,,,,,,,,,,,,,,,,,,,,,,,,,,,,,,,,,,,,,,,,,,,,,,,,,,,,,,,,,,,,
,,,,,,,,,,stimuli/images/PICTURE_160.png,LEADER,5efb2e99f4926b0467487421,30/05/1953,2020-09-10_15h22.21.394,proactive3.1,2020.1.2,Win32,60,5f599a131af4471f3d752b7b,5f5a355b84c0b1096a994552,2,,,,,,wheelbarrow,,,,,,0,1,1,3,1,1,0,,,,,,,,,,,,,,,,,,,,,,,,,,,,,,,,,,,,,,,,,,,,,,,,,,,,,,,,,,,,,,,,,,,,,,,,,,,,,,,,,,,,,,,,,,,,,,,,,,,,,,,,,,,,,
,,,,,,,,,,stimuli/images/PICTURE_453.png,DUDE,5efb2e99f4926b0467487421,30/05/1953,2020-09-10_15h22.21.394,proactive3.1,2020.1.2,Win32,60,5f599a131af4471f3d752b7b,5f5a355b84c0b1096a994552,2,,,,,,scissors,,,,,,0,2,2,27,1,3,0,,,,,,,,,,,,,,,,,,,,,,,,,,,,,,,,,,,,,,,,,,,,,,,,,,,,,,,,,,,,,,,,,,,,,,,,,,,,,,,,,,,,,,,,,,,,,,,,,,,,,,,,,,,,,
,,,,,,,,,,stimuli/images/PICTURE_708.png,PENNY,5efb2e99f4926b0467487421,30/05/1953,2020-09-10_15h22.21.394,proactive3.1,2020.1.2,Win32,60,5f599a131af4471f3d752b7b,5f5a355b84c0b1096a994552,2,,,,,,monkey,,,,,,0,3,3,31,1,4,0,,,,,,,,,,,,,,,,,,,,,,,,,,,,,,,,,,,,,,,,,,,,,,,,,,,,,,,,,,,,,,,,,,,,,,,,,,,,,,,,,,,,,,,,,,,,,,,,,,,,,,,,,,,,,
,,,,,,,,,,stimuli/images/PICTURE_469.png,LETTER,5efb2e99f4926b0467487421,30/05/1953,2020-09-10_15h22.21.394,proactive3.1,2020.1.2,Win32,60,5f599a131af4471f3d752b7b,5f5a355b84c0b1096a994552,2,,,,,,stool,,,,,,0,4,4,42,1,5,0,,,,,,,,,,,,,,,,,,,,,,,,,,,,,,,,,,,,,,,,,,,,,,,,,,,,,,,,,,,,,,,,,,,,,,,,,,,,,,,,,,,,,,,,,,,,,,,,,,,,,,,,,,,,,
,,,,,,,,,,stimuli/images/PICTURE_675.png,WEAPON,5efb2e99f4926b0467487421,30/05/1953,2020-09-10_15h22.21.394,proactive3.1,2020.1.2,Win32,60,5f599a131af4471f3d752b7b,5f5a355b84c0b1096a994552,2,,,,,,windmill,,,,,,0,5,5,32,1,4,0,,,,,,,,,,,,,,,,,,,,,,,,,,,,,,,,,,,,,,,,,,,,,,,,,,,,,,,,,,,,,,,,,,,,,,,,,,,,,,,,,,,,,,,,,,,,,,,,,,,,,,,,,,,,,
,,,,,,,,,,stimuli/images/PICTURE_327.png,BEAUTY,5efb2e99f4926b0467487421,30/05/1953,2020-09-10_15h22.21.394,proactive3.1,2020.1.2,Win32,60,5f599a131af4471f3d752b7b,5f5a355b84c0b1096a994552,2,,,,,,helmet,,,,,,0,6,6,48,1,5,0,,,,,,,,,,,,,,,,,,,,,,,,,,,,,,,,,,,,,,,,,,,,,,,,,,,,,,,,,,,,,,,,,,,,,,,,,,,,,,,,,,,,,,,,,,,,,,,,,,,,,,,,,,,,,
,,,,,,,,,,stimuli/images/PICTURE_491.png,WRITER,5efb2e99f4926b0467487421,30/05/1953,2020-09-10_15h22.21.394,proactive3.1,2020.1.2,Win32,60,5f599a131af4471f3d752b7b,5f5a355b84c0b1096a994552,2,,,,,,rug,,,,,,0,7,7,57,1,6,0,,,,,,,,,,,,,,,,,,,,,,,,,,,,,,,,,,,,,,,,,,,,,,,,,,,,,,,,,,,,,,,,,,,,,,,,,,,,,,,,,,,,,,,,,,,,,,,,,,,,,,,,,,,,,
,,,,,,,,,,stimuli/images/PICTURE_449.png,THING,5efb2e99f4926b0467487421,30/05/1953,2020-09-10_15h22.21.394,proactive3.1,2020.1.2,Win32,60,5f599a131af4471f3d752b7b,5f5a355b84c0b1096a994552,2,,,,,,bench,,,,,,0,8,8,59,1,6,0,,,,,,,,,,,,,,,,,,,,,,,,,,,,,,,,,,,,,,,,,,,,,,,,,,,,,,,,,,,,,,,,,,,,,,,,,,,,,,,,,,,,,,,,,,,,,,,,,,,,,,,,,,,,,
,,,,,,,,,,stimuli/images/PICTURE_356.png,DANGER,5efb2e99f4926b0467487421,30/05/1953,2020-09-10_15h22.21.394,proactive3.1,2020.1.2,Win32,60,5f599a131af4471f3d752b7b,5f5a355b84c0b1096a994552,2,,,,,,pawn,,,,,,0,9,9,55,1,6,0,,,,,,,,,,,,,,,,,,,,,,,,,,,,,,,,,,,,,,,,,,,,,,,,,,,,,,,,,,,,,,,,,,,,,,,,,,,,,,,,,,,,,,,,,,,,,,,,,,,,,,,,,,,,,
,,,,,,,,,,stimuli/images/PICTURE_151.png,GIRL,5efb2e99f4926b0467487421,30/05/1953,2020-09-10_15h22.21.394,proactive3.1,2020.1.2,Win32,60,5f599a131af4471f3d752b7b,5f5a355b84c0b1096a994552,2,,,,,,tray,,,,,,0,10,10,19,1,2,0,,,,,,,,,,,,,,,,,,,,,,,,,,,,,,,,,,,,,,,,,,,,,,,,,,,,,,,,,,,,,,,,,,,,,,,,,,,,,,,,,,,,,,,,,,,,,,,,,,,,,,,,,,,,,
,,,,,,,,,,stimuli/images/PICTURE_509.png,PHOTO,5efb2e99f4926b0467487421,30/05/1953,2020-09-10_15h22.21.394,proactive3.1,2020.1.2,Win32,60,5f599a131af4471f3d752b7b,5f5a355b84c0b1096a994552,2,,,,,,telephone,,,,,,0,11,11,21,1,3,0,,,,,,,,,,,,,,,,,,,,,,,,,,,,,,,,,,,,,,,,,,,,,,,,,,,,,,,,,,,,,,,,,,,,,,,,,,,,,,,,,,,,,,,,,,,,,,,,,,,,,,,,,,,,,
,,,,,,,,,,stimuli/images/PICTURE_311.png,BEAUTY,5efb2e99f4926b0467487421,30/05/1953,2020-09-10_15h22.21.394,proactive3.1,2020.1.2,Win32,60,5f599a131af4471f3d752b7b,5f5a355b84c0b1096a994552,2,,,,,,razor,,,,,,0,12,12,13,1,2,0,,,,,,,,,,,,,,,,,,,,,,,,,,,,,,,,,,,,,,,,,,,,,,,,,,,,,,,,,,,,,,,,,,,,,,,,,,,,,,,,,,,,,,,,,,,,,,,,,,,,,,,,,,,,,
,,,,,,,,,,stimuli/images/PICTURE_160.png,FEET,5efb2e99f4926b0467487421,30/05/1953,2020-09-10_15h22.21.394,proactive3.1,2020.1.2,Win32,60,5f599a131af4471f3d752b7b,5f5a355b84c0b1096a994552,2,,,,,,wheelbarrow,,,,,,0,13,13,58,1,6,0,,,,,,,,,,,,,,,,,,,,,,,,,,,,,,,,,,,,,,,,,,,,,,,,,,,,,,,,,,,,,,,,,,,,,,,,,,,,,,,,,,,,,,,,,,,,,,,,,,,,,,,,,,,,,
,,,,,,,,,,stimuli/images/PICTURE_744.png,SAKE,5efb2e99f4926b0467487421,30/05/1953,2020-09-10_15h22.21.394,proactive3.1,2020.1.2,Win32,60,5f599a131af4471f3d752b7b,5f5a355b84c0b1096a994552,2,,,,,,ring,,,,,,0,14,14,17,1,2,0,,,,,,,,,,,,,,,,,,,,,,,,,,,,,,,,,,,,,,,,,,,,,,,,,,,,,,,,,,,,,,,,,,,,,,,,,,,,,,,,,,,,,,,,,,,,,,,,,,,,,,,,,,,,,
,,,,,,,,,,stimuli/images/PICTURE_248.png,DOZEN,5efb2e99f4926b0467487421,30/05/1953,2020-09-10_15h22.21.394,proactive3.1,2020.1.2,Win32,60,5f599a131af4471f3d752b7b,5f5a355b84c0b1096a994552,2,,,,,,cart,,,,,,0,15,15,39,1,4,0,,,,,,,,,,,,,,,,,,,,,,,,,,,,,,,,,,,,,,,,,,,,,,,,,,,,,,,,,,,,,,,,,,,,,,,,,,,,,,,,,,,,,,,,,,,,,,,,,,,,,,,,,,,,,
,,,,,,,,,,stimuli/images/PICTURE_123.png,ADVICE,5efb2e99f4926b0467487421,30/05/1953,2020-09-10_15h22.21.394,proactive3.1,2020.1.2,Win32,60,5f599a131af4471f3d752b7b,5f5a355b84c0b1096a994552,2,,,,,,dart,,,,,,0,16,16,50,1,6,0,,,,,,,,,,,,,,,,,,,,,,,,,,,,,,,,,,,,,,,,,,,,,,,,,,,,,,,,,,,,,,,,,,,,,,,,,,,,,,,,,,,,,,,,,,,,,,,,,,,,,,,,,,,,,
,,,,,,,,,,stimuli/images/PICTURE_654.png,VALLEY,5efb2e99f4926b0467487421,30/05/1953,2020-09-10_15h22.21.394,proactive3.1,2020.1.2,Win32,60,5f599a131af4471f3d752b7b,5f5a355b84c0b1096a994552,2,,,,,,pencil,,,,,,0,17,17,1,1,1,0,,,,,,,,,,,,,,,,,,,,,,,,,,,,,,,,,,,,,,,,,,,,,,,,,,,,,,,,,,,,,,,,,,,,,,,,,,,,,,,,,,,,,,,,,,,,,,,,,,,,,,,,,,,,,
,,,,,,,,,,stimuli/images/PICTURE_692.png,MONTH,5efb2e99f4926b0467487421,30/05/1953,2020-09-10_15h22.21.394,proactive3.1,2020.1.2,Win32,60,5f599a131af4471f3d752b7b,5f5a355b84c0b1096a994552,2,,,,,,cherry,,,,,,0,18,18,16,1,2,0,,,,,,,,,,,,,,,,,,,,,,,,,,,,,,,,,,,,,,,,,,,,,,,,,,,,,,,,,,,,,,,,,,,,,,,,,,,,,,,,,,,,,,,,,,,,,,,,,,,,,,,,,,,,,
,,,,,,,,,,stimuli/images/PICTURE_348.png,SPEECH,5efb2e99f4926b0467487421,30/05/1953,2020-09-10_15h22.21.394,proactive3.1,2020.1.2,Win32,60,5f599a131af4471f3d752b7b,5f5a355b84c0b1096a994552,2,,,,,,pepper,,,,,,0,19,19,20,1,3,0,,,,,,,,,,,,,,,,,,,,,,,,,,,,,,,,,,,,,,,,,,,,,,,,,,,,,,,,,,,,,,,,,,,,,,,,,,,,,,,,,,,,,,,,,,,,,,,,,,,,,,,,,,,,,
,,,,,,,,,,stimuli/images/PICTURE_95.png,STYLE,5efb2e99f4926b0467487421,30/05/1953,2020-09-10_15h22.21.394,proactive3.1,2020.1.2,Win32,60,5f599a131af4471f3d752b7b,5f5a355b84c0b1096a994552,2,,,,,,suitcase,,,,,,0,20,20,25,1,3,0,,,,,,,,,,,,,,,,,,,,,,,,,,,,,,,,,,,,,,,,,,,,,,,,,,,,,,,,,,,,,,,,,,,,,,,,,,,,,,,,,,,,,,,,,,,,,,,,,,,,,,,,,,,,,
,,,,,,,,,,stimuli/images/PICTURE_208.png,THING,5efb2e99f4926b0467487421,30/05/1953,2020-09-10_15h22.21.394,proactive3.1,2020.1.2,Win32,60,5f599a131af4471f3d752b7b,5f5a355b84c0b1096a994552,2,,,,,,microphone,,,,,,0,21,21,47,1,5,0,,,,,,,,,,,,,,,,,,,,,,,,,,,,,,,,,,,,,,,,,,,,,,,,,,,,,,,,,,,,,,,,,,,,,,,,,,,,,,,,,,,,,,,,,,,,,,,,,,,,,,,,,,,,,
,,,,,,,,,,stimuli/images/PICTURE_233.png,WOMEN,5efb2e99f4926b0467487421,30/05/1953,2020-09-10_15h22.21.394,proactive3.1,2020.1.2,Win32,60,5f599a131af4471f3d752b7b,5f5a355b84c0b1096a994552,2,,,,,,salt,,,,,,0,22,22,38,1,4,0,,,,,,,,,,,,,,,,,,,,,,,,,,,,,,,,,,,,,,,,,,,,,,,,,,,,,,,,,,,,,,,,,,,,,,,,,,,,,,,,,,,,,,,,,,,,,,,,,,,,,,,,,,,,,
,,,,,,,,,,stimuli/images/PICTURE_233.png,IDEAS,5efb2e99f4926b0467487421,30/05/1953,2020-09-10_15h22.21.394,proactive3.1,2020.1.2,Win32,60,5f599a131af4471f3d752b7b,5f5a355b84c0b1096a994552,2,,,,,,salt,,,,,,0,23,23,28,1,3,0,,,,,,,,,,,,,,,,,,,,,,,,,,,,,,,,,,,,,,,,,,,,,,,,,,,,,,,,,,,,,,,,,,,,,,,,,,,,,,,,,,,,,,,,,,,,,,,,,,,,,,,,,,,,,
,,,,,,,,,,stimuli/images/PICTURE_467.png,DEMON,5efb2e99f4926b0467487421,30/05/1953,2020-09-10_15h22.21.394,proactive3.1,2020.1.2,Win32,60,5f599a131af4471f3d752b7b,5f5a355b84c0b1096a994552,2,,,,,,peg,,,,,,0,24,24,23,1,3,0,,,,,,,,,,,,,,,,,,,,,,,,,,,,,,,,,,,,,,,,,,,,,,,,,,,,,,,,,,,,,,,,,,,,,,,,,,,,,,,,,,,,,,,,,,,,,,,,,,,,,,,,,,,,,
,,,,,,,,,,stimuli/images/PICTURE_677.png,MILE,5efb2e99f4926b0467487421,30/05/1953,2020-09-10_15h22.21.394,proactive3.1,2020.1.2,Win32,60,5f599a131af4471f3d752b7b,5f5a355b84c0b1096a994552,2,,,,,,map,,,,,,0,25,25,30,1,4,0,,,,,,,,,,,,,,,,,,,,,,,,,,,,,,,,,,,,,,,,,,,,,,,,,,,,,,,,,,,,,,,,,,,,,,,,,,,,,,,,,,,,,,,,,,,,,,,,,,,,,,,,,,,,,
,,,,,,,,,,stimuli/images/PICTURE_488.png,STYLE,5efb2e99f4926b0467487421,30/05/1953,2020-09-10_15h22.21.394,proactive3.1,2020.1.2,Win32,60,5f599a131af4471f3d752b7b,5f5a355b84c0b1096a994552,2,,,,,,sun,,,,,,0,26,26,33,1,4,0,,,,,,,,,,,,,,,,,,,,,,,,,,,,,,,,,,,,,,,,,,,,,,,,,,,,,,,,,,,,,,,,,,,,,,,,,,,,,,,,,,,,,,,,,,,,,,,,,,,,,,,,,,,,,
,,,,,,,,,,stimuli/images/PICTURE_470.png,CASINO,5efb2e99f4926b0467487421,30/05/1953,2020-09-10_15h22.21.394,proactive3.1,2020.1.2,Win32,60,5f599a131af4471f3d752b7b,5f5a355b84c0b1096a994552,2,,,,,,motorbike,,,,,,0,27,27,36,1,4,0,,,,,,,,,,,,,,,,,,,,,,,,,,,,,,,,,,,,,,,,,,,,,,,,,,,,,,,,,,,,,,,,,,,,,,,,,,,,,,,,,,,,,,,,,,,,,,,,,,,,,,,,,,,,,
,,,,,,,,,,stimuli/images/PICTURE_177.png,CARS,5efb2e99f4926b0467487421,30/05/1953,2020-09-10_15h22.21.394,proactive3.1,2020.1.2,Win32,60,5f599a131af4471f3d752b7b,5f5a355b84c0b1096a994552,2,,,,,,mushroom,,,,,,0,28,28,35,1,4,0,,,,,,,,,,,,,,,,,,,,,,,,,,,,,,,,,,,,,,,,,,,,,,,,,,,,,,,,,,,,,,,,,,,,,,,,,,,,,,,,,,,,,,,,,,,,,,,,,,,,,,,,,,,,,
,,,,,,,,,,stimuli/images/PICTURE_708.png,YARD,5efb2e99f4926b0467487421,30/05/1953,2020-09-10_15h22.21.394,proactive3.1,2020.1.2,Win32,60,5f599a131af4471f3d752b7b,5f5a355b84c0b1096a994552,2,,,,,,monkey,,,,,,0,29,29,29,1,3,0,,,,,,,,,,,,,,,,,,,,,,,,,,,,,,,,,,,,,,,,,,,,,,,,,,,,,,,,,,,,,,,,,,,,,,,,,,,,,,,,,,,,,,,,,,,,,,,,,,,,,,,,,,,,,
,,,,,,,,,,stimuli/images/PICTURE_285.png,ADVICE,5efb2e99f4926b0467487421,30/05/1953,2020-09-10_15h22.21.394,proactive3.1,2020.1.2,Win32,60,5f599a131af4471f3d752b7b,5f5a355b84c0b1096a994552,2,,,,,,carrot,,,,,,0,30,30,12,1,2,0,,,,,,,,,,,,,,,,,,,,,,,,,,,,,,,,,,,,,,,,,,,,,,,,,,,,,,,,,,,,,,,,,,,,,,,,,,,,,,,,,,,,,,,,,,,,,,,,,,,,,,,,,,,,,
,,,,,,,,,,stimuli/images/PICTURE_667.png,PLENTY,5efb2e99f4926b0467487421,30/05/1953,2020-09-10_15h22.21.394,proactive3.1,2020.1.2,Win32,60,5f599a131af4471f3d752b7b,5f5a355b84c0b1096a994552,2,,,,,,daisy,,,,,,0,31,31,41,1,5,0,,,,,,,,,,,,,,,,,,,,,,,,,,,,,,,,,,,,,,,,,,,,,,,,,,,,,,,,,,,,,,,,,,,,,,,,,,,,,,,,,,,,,,,,,,,,,,,,,,,,,,,,,,,,,
,,,,,,,,,,stimuli/images/PICTURE_688.png,WOMEN,5efb2e99f4926b0467487421,30/05/1953,2020-09-10_15h22.21.394,proactive3.1,2020.1.2,Win32,60,5f599a131af4471f3d752b7b,5f5a355b84c0b1096a994552,2,,,,,,runner,,,,,,0,32,32,14,1,2,0,,,,,,,,,,,,,,,,,,,,,,,,,,,,,,,,,,,,,,,,,,,,,,,,,,,,,,,,,,,,,,,,,,,,,,,,,,,,,,,,,,,,,,,,,,,,,,,,,,,,,,,,,,,,,
,,,,,,,,,,stimuli/images/PICTURE_32.png,JUNGLE,5efb2e99f4926b0467487421,30/05/1953,2020-09-10_15h22.21.394,proactive3.1,2020.1.2,Win32,60,5f599a131af4471f3d752b7b,5f5a355b84c0b1096a994552,2,,,,,,crown,,,,,,0,33,33,45,1,5,0,,,,,,,,,,,,,,,,,,,,,,,,,,,,,,,,,,,,,,,,,,,,,,,,,,,,,,,,,,,,,,,,,,,,,,,,,,,,,,,,,,,,,,,,,,,,,,,,,,,,,,,,,,,,,
,,,,,,,,,,stimuli/images/PICTURE_85.png,THING,5efb2e99f4926b0467487421,30/05/1953,2020-09-10_15h22.21.394,proactive3.1,2020.1.2,Win32,60,5f599a131af4471f3d752b7b,5f5a355b84c0b1096a994552,2,,,,,,diamond,,,,,,0,34,34,15,1,2,0,,,,,,,,,,,,,,,,,,,,,,,,,,,,,,,,,,,,,,,,,,,,,,,,,,,,,,,,,,,,,,,,,,,,,,,,,,,,,,,,,,,,,,,,,,,,,,,,,,,,,,,,,,,,,
,,,,,,,,,,stimuli/images/PICTURE_469.png,ARTIST,5efb2e99f4926b0467487421,30/05/1953,2020-09-10_15h22.21.394,proactive3.1,2020.1.2,Win32,60,5f599a131af4471f3d752b7b,5f5a355b84c0b1096a994552,2,,,,,,stool,,,,,,0,35,35,6,1,1,0,,,,,,,,,,,,,,,,,,,,,,,,,,,,,,,,,,,,,,,,,,,,,,,,,,,,,,,,,,,,,,,,,,,,,,,,,,,,,,,,,,,,,,,,,,,,,,,,,,,,,,,,,,,,,
,,,,,,,,,,stimuli/images/PICTURE_203.png,ARTIST,5efb2e99f4926b0467487421,30/05/1953,2020-09-10_15h22.21.394,proactive3.1,2020.1.2,Win32,60,5f599a131af4471f3d752b7b,5f5a355b84c0b1096a994552,2,,,,,,cap,,,,,,0,36,36,26,1,3,0,,,,,,,,,,,,,,,,,,,,,,,,,,,,,,,,,,,,,,,,,,,,,,,,,,,,,,,,,,,,,,,,,,,,,,,,,,,,,,,,,,,,,,,,,,,,,,,,,,,,,,,,,,,,,
,,,,,,,,,,stimuli/images/PICTURE_380.png,PHOTO,5efb2e99f4926b0467487421,30/05/1953,2020-09-10_15h22.21.394,proactive3.1,2020.1.2,Win32,60,5f599a131af4471f3d752b7b,5f5a355b84c0b1096a994552,2,,,,,,gorilla,,,,,,0,37,37,52,1,6,0,,,,,,,,,,,,,,,,,,,,,,,,,,,,,,,,,,,,,,,,,,,,,,,,,,,,,,,,,,,,,,,,,,,,,,,,,,,,,,,,,,,,,,,,,,,,,,,,,,,,,,,,,,,,,
,,,,,,,,,,stimuli/images/PICTURE_487.png,FLIGHT,5efb2e99f4926b0467487421,30/05/1953,2020-09-10_15h22.21.394,proactive3.1,2020.1.2,Win32,60,5f599a131af4471f3d752b7b,5f5a355b84c0b1096a994552,2,,,,,,basket,,,,,,0,38,38,9,1,1,0,,,,,,,,,,,,,,,,,,,,,,,,,,,,,,,,,,,,,,,,,,,,,,,,,,,,,,,,,,,,,,,,,,,,,,,,,,,,,,,,,,,,,,,,,,,,,,,,,,,,,,,,,,,,,
,,,,,,,,,,stimuli/images/PICTURE_147.png,MOMENT,5efb2e99f4926b0467487421,30/05/1953,2020-09-10_15h22.21.394,proactive3.1,2020.1.2,Win32,60,5f599a131af4471f3d752b7b,5f5a355b84c0b1096a994552,2,,,,,,hanger,,,,,,0,39,39,51,1,6,0,,,,,,,,,,,,,,,,,,,,,,,,,,,,,,,,,,,,,,,,,,,,,,,,,,,,,,,,,,,,,,,,,,,,,,,,,,,,,,,,,,,,,,,,,,,,,,,,,,,,,,,,,,,,,
,,,,,,,,,,stimuli/images/PICTURE_744.png,SYSTEM,5efb2e99f4926b0467487421,30/05/1953,2020-09-10_15h22.21.394,proactive3.1,2020.1.2,Win32,60,5f599a131af4471f3d752b7b,5f5a355b84c0b1096a994552,2,,,,,,ring,,,,,,0,40,40,43,1,5,0,,,,,,,,,,,,,,,,,,,,,,,,,,,,,,,,,,,,,,,,,,,,,,,,,,,,,,,,,,,,,,,,,,,,,,,,,,,,,,,,,,,,,,,,,,,,,,,,,,,,,,,,,,,,,
,,,,,,,,,,stimuli/images/PICTURE_208.png,LOTS,5efb2e99f4926b0467487421,30/05/1953,2020-09-10_15h22.21.394,proactive3.1,2020.1.2,Win32,60,5f599a131af4471f3d752b7b,5f5a355b84c0b1096a994552,2,,,,,,microphone,,,,,,0,41,41,10,1,2,0,,,,,,,,,,,,,,,,,,,,,,,,,,,,,,,,,,,,,,,,,,,,,,,,,,,,,,,,,,,,,,,,,,,,,,,,,,,,,,,,,,,,,,,,,,,,,,,,,,,,,,,,,,,,,
,,,,,,,,,,stimuli/images/PICTURE_311.png,FRIEND,5efb2e99f4926b0467487421,30/05/1953,2020-09-10_15h22.21.394,proactive3.1,2020.1.2,Win32,60,5f599a131af4471f3d752b7b,5f5a355b84c0b1096a994552,2,,,,,,razor,,,,,,0,42,42,34,1,4,0,,,,,,,,,,,,,,,,,,,,,,,,,,,,,,,,,,,,,,,,,,,,,,,,,,,,,,,,,,,,,,,,,,,,,,,,,,,,,,,,,,,,,,,,,,,,,,,,,,,,,,,,,,,,,
,,,,,,,,,,stimuli/images/PICTURE_302.png,FAMILY,5efb2e99f4926b0467487421,30/05/1953,2020-09-10_15h22.21.394,proactive3.1,2020.1.2,Win32,60,5f599a131af4471f3d752b7b,5f5a355b84c0b1096a994552,2,,,,,,taxi,,,,,,0,43,43,18,1,2,0,,,,,,,,,,,,,,,,,,,,,,,,,,,,,,,,,,,,,,,,,,,,,,,,,,,,,,,,,,,,,,,,,,,,,,,,,,,,,,,,,,,,,,,,,,,,,,,,,,,,,,,,,,,,,
,,,,,,,,,,stimuli/images/PICTURE_339.png,PLENTY,5efb2e99f4926b0467487421,30/05/1953,2020-09-10_15h22.21.394,proactive3.1,2020.1.2,Win32,60,5f599a131af4471f3d752b7b,5f5a355b84c0b1096a994552,2,,,,,,backpack,,,,,,0,44,44,0,1,1,0,,,,,,,,,,,,,,,,,,,,,,,,,,,,,,,,,,,,,,,,,,,,,,,,,,,,,,,,,,,,,,,,,,,,,,,,,,,,,,,,,,,,,,,,,,,,,,,,,,,,,,,,,,,,,
,,,,,,,,,,stimuli/images/PICTURE_255.png,AREA,5efb2e99f4926b0467487421,30/05/1953,2020-09-10_15h22.21.394,proactive3.1,2020.1.2,Win32,60,5f599a131af4471f3d752b7b,5f5a355b84c0b1096a994552,2,,,,,,shovel,,,,,,0,45,45,22,1,3,0,,,,,,,,,,,,,,,,,,,,,,,,,,,,,,,,,,,,,,,,,,,,,,,,,,,,,,,,,,,,,,,,,,,,,,,,,,,,,,,,,,,,,,,,,,,,,,,,,,,,,,,,,,,,,
,,,,,,,,,,stimuli/images/PICTURE_215.png,PLENTY,5efb2e99f4926b0467487421,30/05/1953,2020-09-10_15h22.21.394,proactive3.1,2020.1.2,Win32,60,5f599a131af4471f3d752b7b,5f5a355b84c0b1096a994552,2,,,,,,boot,,,,,,0,46,46,37,1,4,0,,,,,,,,,,,,,,,,,,,,,,,,,,,,,,,,,,,,,,,,,,,,,,,,,,,,,,,,,,,,,,,,,,,,,,,,,,,,,,,,,,,,,,,,,,,,,,,,,,,,,,,,,,,,,
,,,,,,,,,,stimuli/images/PICTURE_667.png,BATH,5efb2e99f4926b0467487421,30/05/1953,2020-09-10_15h22.21.394,proactive3.1,2020.1.2,Win32,60,5f599a131af4471f3d752b7b,5f5a355b84c0b1096a994552,2,,,,,,daisy,,,,,,0,47,47,4,1,1,0,,,,,,,,,,,,,,,,,,,,,,,,,,,,,,,,,,,,,,,,,,,,,,,,,,,,,,,,,,,,,,,,,,,,,,,,,,,,,,,,,,,,,,,,,,,,,,,,,,,,,,,,,,,,,
,,,,,,,,,,stimuli/images/PICTURE_453.png,PLENTY,5efb2e99f4926b0467487421,30/05/1953,2020-09-10_15h22.21.394,proactive3.1,2020.1.2,Win32,60,5f599a131af4471f3d752b7b,5f5a355b84c0b1096a994552,2,,,,,,scissors,,,,,,0,48,48,56,1,6,0,,,,,,,,,,,,,,,,,,,,,,,,,,,,,,,,,,,,,,,,,,,,,,,,,,,,,,,,,,,,,,,,,,,,,,,,,,,,,,,,,,,,,,,,,,,,,,,,,,,,,,,,,,,,,
,,,,,,,,,,stimuli/images/PICTURE_314.png,SAKE,5efb2e99f4926b0467487421,30/05/1953,2020-09-10_15h22.21.394,proactive3.1,2020.1.2,Win32,60,5f599a131af4471f3d752b7b,5f5a355b84c0b1096a994552,2,,,,,,perfume,,,,,,0,49,49,7,1,1,0,,,,,,,,,,,,,,,,,,,,,,,,,,,,,,,,,,,,,,,,,,,,,,,,,,,,,,,,,,,,,,,,,,,,,,,,,,,,,,,,,,,,,,,,,,,,,,,,,,,,,,,,,,,,,
,,,,,,,,,,stimuli/images/PICTURE_380.png,DEATH,5efb2e99f4926b0467487421,30/05/1953,2020-09-10_15h22.21.394,proactive3.1,2020.1.2,Win32,60,5f599a131af4471f3d752b7b,5f5a355b84c0b1096a994552,2,,,,,,gorilla,,,,,,0,50,50,49,1,5,0,,,,,,,,,,,,,,,,,,,,,,,,,,,,,,,,,,,,,,,,,,,,,,,,,,,,,,,,,,,,,,,,,,,,,,,,,,,,,,,,,,,,,,,,,,,,,,,,,,,,,,,,,,,,,
,,,,,,,,,,stimuli/images/PICTURE_123.png,ADVICE,5efb2e99f4926b0467487421,30/05/1953,2020-09-10_15h22.21.394,proactive3.1,2020.1.2,Win32,60,5f599a131af4471f3d752b7b,5f5a355b84c0b1096a994552,2,,,,,,dart,,,,,,0,51,51,40,1,5,0,,,,,,,,,,,,,,,,,,,,,,,,,,,,,,,,,,,,,,,,,,,,,,,,,,,,,,,,,,,,,,,,,,,,,,,,,,,,,,,,,,,,,,,,,,,,,,,,,,,,,,,,,,,,,
,,,,,,,,,,stimuli/images/PICTURE_504.png,BODY,5efb2e99f4926b0467487421,30/05/1953,2020-09-10_15h22.21.394,proactive3.1,2020.1.2,Win32,60,5f599a131af4471f3d752b7b,5f5a355b84c0b1096a994552,2,,,,,,wheel,,,,,,0,52,52,8,1,1,0,,,,,,,,,,,,,,,,,,,,,,,,,,,,,,,,,,,,,,,,,,,,,,,,,,,,,,,,,,,,,,,,,,,,,,,,,,,,,,,,,,,,,,,,,,,,,,,,,,,,,,,,,,,,,
,,,,,,,,,,stimuli/images/PICTURE_308.png,ESTATE,5efb2e99f4926b0467487421,30/05/1953,2020-09-10_15h22.21.394,proactive3.1,2020.1.2,Win32,60,5f599a131af4471f3d752b7b,5f5a355b84c0b1096a994552,2,,,,,,dice,,,,,,0,53,53,46,1,5,0,,,,,,,,,,,,,,,,,,,,,,,,,,,,,,,,,,,,,,,,,,,,,,,,,,,,,,,,,,,,,,,,,,,,,,,,,,,,,,,,,,,,,,,,,,,,,,,,,,,,,,,,,,,,,
,,,,,,,,,,stimuli/images/PICTURE_208.png,MONTH,5efb2e99f4926b0467487421,30/05/1953,2020-09-10_15h22.21.394,proactive3.1,2020.1.2,Win32,60,5f599a131af4471f3d752b7b,5f5a355b84c0b1096a994552,2,,,,,,microphone,,,,,,0,54,54,53,1,6,0,,,,,,,,,,,,,,,,,,,,,,,,,,,,,,,,,,,,,,,,,,,,,,,,,,,,,,,,,,,,,,,,,,,,,,,,,,,,,,,,,,,,,,,,,,,,,,,,,,,,,,,,,,,,,
,,,,,,,,,,stimuli/images/PICTURE_688.png,CASINO,5efb2e99f4926b0467487421,30/05/1953,2020-09-10_15h22.21.394,proactive3.1,2020.1.2,Win32,60,5f599a131af4471f3d752b7b,5f5a355b84c0b1096a994552,2,,,,,,runner,,,,,,0,55,55,2,1,1,0,,,,,,,,,,,,,,,,,,,,,,,,,,,,,,,,,,,,,,,,,,,,,,,,,,,,,,,,,,,,,,,,,,,,,,,,,,,,,,,,,,,,,,,,,,,,,,,,,,,,,,,,,,,,,
,,,,,,,,,,stimuli/images/PICTURE_68.png,MILE,5efb2e99f4926b0467487421,30/05/1953,2020-09-10_15h22.21.394,proactive3.1,2020.1.2,Win32,60,5f599a131af4471f3d752b7b,5f5a355b84c0b1096a994552,2,,,,,,candle,,,,,,0,56,56,44,1,5,0,,,,,,,,,,,,,,,,,,,,,,,,,,,,,,,,,,,,,,,,,,,,,,,,,,,,,,,,,,,,,,,,,,,,,,,,,,,,,,,,,,,,,,,,,,,,,,,,,,,,,,,,,,,,,
,,,,,,,,,,stimuli/images/PICTURE_314.png,GODS,5efb2e99f4926b0467487421,30/05/1953,2020-09-10_15h22.21.394,proactive3.1,2020.1.2,Win32,60,5f599a131af4471f3d752b7b,5f5a355b84c0b1096a994552,2,,,,,,perfume,,,,,,0,57,57,11,1,2,0,,,,,,,,,,,,,,,,,,,,,,,,,,,,,,,,,,,,,,,,,,,,,,,,,,,,,,,,,,,,,,,,,,,,,,,,,,,,,,,,,,,,,,,,,,,,,,,,,,,,,,,,,,,,,
,,,,,,,,,,stimuli/images/PICTURE_308.png,KIND,5efb2e99f4926b0467487421,30/05/1953,2020-09-10_15h22.21.394,proactive3.1,2020.1.2,Win32,60,5f599a131af4471f3d752b7b,5f5a355b84c0b1096a994552,2,,,,,,dice,,,,,,0,58,58,54,1,6,0,,,,,,,,,,,,,,,,,,,,,,,,,,,,,,,,,,,,,,,,,,,,,,,,,,,,,,,,,,,,,,,,,,,,,,,,,,,,,,,,,,,,,,,,,,,,,,,,,,,,,,,,,,,,,
,,?,0.00214,0,,,,,,stimuli/images/PICTURE_675.png,WEAPON,5efb2e99f4926b0467487421,30/05/1953,2020-09-10_15h22.21.394,proactive3.1,2020.1.2,Win32,60,5f599a131af4471f3d752b7b,5f5a355b84c0b1096a994552,2,,,,,,windmill,,,,,,,,,,,4,0,0,0,0,32,1,,,,,,,,,,,,,,,,,,,,,,,,,,,,,,,,,,,,,,,,,,,,,,,,,,,,,,,,,,,,,,,,,,,,,,,,,,,,,,,,,,,,,,,,,,,,,,,,,,,,,,,,
,,?,0.00177,0,,,,,,stimuli/images/PICTURE_487.png,FLIGHT,5efb2e99f4926b0467487421,30/05/1953,2020-09-10_15h22.21.394,proactive3.1,2020.1.2,Win32,60,5f599a131af4471f3d752b7b,5f5a355b84c0b1096a994552,2,,,,,,basket,,,,,,,,,,,1,0,0,1,1,9,1,,,,,,,,,,,,,,,,,,,,,,,,,,,,,,,,,,,,,,,,,,,,,,,,,,,,,,,,,,,,,,,,,,,,,,,,,,,,,,,,,,,,,,,,,,,,,,,,,,,,,,,,
,,?,0.001775,0,,,,,,stimuli/images/PICTURE_339.png,PLENTY,5efb2e99f4926b0467487421,30/05/1953,2020-09-10_15h22.21.394,proactive3.1,2020.1.2,Win32,60,5f599a131af4471f3d752b7b,5f5a355b84c0b1096a994552,2,,,,,,backpack,,,,,,,,,,,1,0,0,2,2,0,1,,,,,,,,,,,,,,,,,,,,,,,,,,,,,,,,,,,,,,,,,,,,,,,,,,,,,,,,,,,,,,,,,,,,,,,,,,,,,,,,,,,,,,,,,,,,,,,,,,,,,,,,
,,?,0.001835,0,,,,,,stimuli/images/PICTURE_488.png,STYLE,5efb2e99f4926b0467487421,30/05/1953,2020-09-10_15h22.21.394,proactive3.1,2020.1.2,Win32,60,5f599a131af4471f3d752b7b,5f5a355b84c0b1096a994552,2,,,,,,sun,,,,,,,,,,,4,0,0,3,3,33,1,,,,,,,,,,,,,,,,,,,,,,,,,,,,,,,,,,,,,,,,,,,,,,,,,,,,,,,,,,,,,,,,,,,,,,,,,,,,,,,,,,,,,,,,,,,,,,,,,,,,,,,,
,,?,0.00181,0,,,,,,stimuli/images/PICTURE_380.png,DEATH,5efb2e99f4926b0467487421,30/05/1953,2020-09-10_15h22.21.394,proactive3.1,2020.1.2,Win32,60,5f599a131af4471f3d752b7b,5f5a355b84c0b1096a994552,2,,,,,,gorilla,,,,,,,,,,,5,0,0,4,4,49,1,,,,,,,,,,,,,,,,,,,,,,,,,,,,,,,,,,,,,,,,,,,,,,,,,,,,,,,,,,,,,,,,,,,,,,,,,,,,,,,,,,,,,,,,,,,,,,,,,,,,,,,,
,,?,0.00657,0,,,,,,stimuli/images/PICTURE_453.png,PLENTY,5efb2e99f4926b0467487421,30/05/1953,2020-09-10_15h22.21.394,proactive3.1,2020.1.2,Win32,60,5f599a131af4471f3d752b7b,5f5a355b84c0b1096a994552,2,,,,,,scissors,,,,,,,,,,,6,0,0,5,5,56,1,,,,,,,,,,,,,,,,,,,,,,,,,,,,,,,,,,,,,,,,,,,,,,,,,,,,,,,,,,,,,,,,,,,,,,,,,,,,,,,,,,,,,,,,,,,,,,,,,,,,,,,,
,,?,0.00074,0,,,,,,stimuli/images/PICTURE_677.png,MILE,5efb2e99f4926b0467487421,30/05/1953,2020-09-10_15h22.21.394,proactive3.1,2020.1.2,Win32,60,5f599a131af4471f3d752b7b,5f5a355b84c0b1096a994552,2,,,,,,map,,,,,,,,,,,4,0,0,6,6,30,1,,,,,,,,,,,,,,,,,,,,,,,,,,,,,,,,,,,,,,,,,,,,,,,,,,,,,,,,,,,,,,,,,,,,,,,,,,,,,,,,,,,,,,,,,,,,,,,,,,,,,,,,
,,?,0.00057,0,,,,,,stimuli/images/PICTURE_160.png,LEADER,5efb2e99f4926b0467487421,30/05/1953,2020-09-10_15h22.21.394,proactive3.1,2020.1.2,Win32,60,5f599a131af4471f3d752b7b,5f5a355b84c0b1096a994552,2,,,,,,wheelbarrow,,,,,,,,,,,1,0,0,7,7,3,1,,,,,,,,,,,,,,,,,,,,,,,,,,,,,,,,,,,,,,,,,,,,,,,,,,,,,,,,,,,,,,,,,,,,,,,,,,,,,,,,,,,,,,,,,,,,,,,,,,,,,,,,
,,?,0.000795,0,,,,,,stimuli/images/PICTURE_469.png,ARTIST,5efb2e99f4926b0467487421,30/05/1953,2020-09-10_15h22.21.394,proactive3.1,2020.1.2,Win32,60,5f599a131af4471f3d752b7b,5f5a355b84c0b1096a994552,2,,,,,,stool,,,,,,,,,,,1,0,0,8,8,6,1,,,,,,,,,,,,,,,,,,,,,,,,,,,,,,,,,,,,,,,,,,,,,,,,,,,,,,,,,,,,,,,,,,,,,,,,,,,,,,,,,,,,,,,,,,,,,,,,,,,,,,,,
,,?,0.00082,0,,,,,,stimuli/images/PICTURE_215.png,PLENTY,5efb2e99f4926b0467487421,30/05/1953,2020-09-10_15h22.21.394,proactive3.1,2020.1.2,Win32,60,5f599a131af4471f3d752b7b,5f5a355b84c0b1096a994552,2,,,,,,boot,,,,,,,,,,,4,0,0,9,9,37,1,,,,,,,,,,,,,,,,,,,,,,,,,,,,,,,,,,,,,,,,,,,,,,,,,,,,,,,,,,,,,,,,,,,,,,,,,,,,,,,,,,,,,,,,,,,,,,,,,,,,,,,,
,,?,0.00078,0,,,,,,stimuli/images/PICTURE_233.png,IDEAS,5efb2e99f4926b0467487421,30/05/1953,2020-09-10_15h22.21.394,proactive3.1,2020.1.2,Win32,60,5f599a131af4471f3d752b7b,5f5a355b84c0b1096a994552,2,,,,,,salt,,,,,,,,,,,3,0,0,10,10,28,1,,,,,,,,,,,,,,,,,,,,,,,,,,,,,,,,,,,,,,,,,,,,,,,,,,,,,,,,,,,,,,,,,,,,,,,,,,,,,,,,,,,,,,,,,,,,,,,,,,,,,,,,
,,?,0.000595,0,,,,,,stimuli/images/PICTURE_177.png,CARS,5efb2e99f4926b0467487421,30/05/1953,2020-09-10_15h22.21.394,proactive3.1,2020.1.2,Win32,60,5f599a131af4471f3d752b7b,5f5a355b84c0b1096a994552,2,,,,,,mushroom,,,,,,,,,,,4,0,0,11,11,35,1,,,,,,,,,,,,,,,,,,,,,,,,,,,,,,,,,,,,,,,,,,,,,,,,,,,,,,,,,,,,,,,,,,,,,,,,,,,,,,,,,,,,,,,,,,,,,,,,,,,,,,,,
,,?,0.000555,0,,,,,,stimuli/images/PICTURE_449.png,THING,5efb2e99f4926b0467487421,30/05/1953,2020-09-10_15h22.21.394,proactive3.1,2020.1.2,Win32,60,5f599a131af4471f3d752b7b,5f5a355b84c0b1096a994552,2,,,,,,bench,,,,,,,,,,,6,0,0,12,12,59,1,,,,,,,,,,,,,,,,,,,,,,,,,,,,,,,,,,,,,,,,,,,,,,,,,,,,,,,,,,,,,,,,,,,,,,,,,,,,,,,,,,,,,,,,,,,,,,,,,,,,,,,,
,,?,0.00069,0,,,,,,stimuli/images/PICTURE_308.png,KIND,5efb2e99f4926b0467487421,30/05/1953,2020-09-10_15h22.21.394,proactive3.1,2020.1.2,Win32,60,5f599a131af4471f3d752b7b,5f5a355b84c0b1096a994552,2,,,,,,dice,,,,,,,,,,,6,0,0,13,13,54,1,,,,,,,,,,,,,,,,,,,,,,,,,,,,,,,,,,,,,,,,,,,,,,,,,,,,,,,,,,,,,,,,,,,,,,,,,,,,,,,,,,,,,,,,,,,,,,,,,,,,,,,,
,,?,0.0006,0,,,,,,stimuli/images/PICTURE_708.png,PENNY,5efb2e99f4926b0467487421,30/05/1953,2020-09-10_15h22.21.394,proactive3.1,2020.1.2,Win32,60,5f599a131af4471f3d752b7b,5f5a355b84c0b1096a994552,2,,,,,,monkey,,,,,,,,,,,4,0,0,14,14,31,1,,,,,,,,,,,,,,,,,,,,,,,,,,,,,,,,,,,,,,,,,,,,,,,,,,,,,,,,,,,,,,,,,,,,,,,,,,,,,,,,,,,,,,,,,,,,,,,,,,,,,,,,
,,?,0.00058,0,,,,,,stimuli/images/PICTURE_469.png,LETTER,5efb2e99f4926b0467487421,30/05/1953,2020-09-10_15h22.21.394,proactive3.1,2020.1.2,Win32,60,5f599a131af4471f3d752b7b,5f5a355b84c0b1096a994552,2,,,,,,stool,,,,,,,,,,,5,0,0,15,15,42,1,,,,,,,,,,,,,,,,,,,,,,,,,,,,,,,,,,,,,,,,,,,,,,,,,,,,,,,,,,,,,,,,,,,,,,,,,,,,,,,,,,,,,,,,,,,,,,,,,,,,,,,,
,,?,0.00057,0,,,,,,stimuli/images/PICTURE_123.png,ADVICE,5efb2e99f4926b0467487421,30/05/1953,2020-09-10_15h22.21.394,proactive3.1,2020.1.2,Win32,60,5f599a131af4471f3d752b7b,5f5a355b84c0b1096a994552,2,,,,,,dart,,,,,,,,,,,5,0,0,16,16,40,1,,,,,,,,,,,,,,,,,,,,,,,,,,,,,,,,,,,,,,,,,,,,,,,,,,,,,,,,,,,,,,,,,,,,,,,,,,,,,,,,,,,,,,,,,,,,,,,,,,,,,,,,
,,?,0.00052,0,,,,,,stimuli/images/PICTURE_314.png,SAKE,5efb2e99f4926b0467487421,30/05/1953,2020-09-10_15h22.21.394,proactive3.1,2020.1.2,Win32,60,5f599a131af4471f3d752b7b,5f5a355b84c0b1096a994552,2,,,,,,perfume,,,,,,,,,,,1,0,0,17,17,7,1,,,,,,,,,,,,,,,,,,,,,,,,,,,,,,,,,,,,,,,,,,,,,,,,,,,,,,,,,,,,,,,,,,,,,,,,,,,,,,,,,,,,,,,,,,,,,,,,,,,,,,,,
,,?,0.00053,0,,,,,,stimuli/images/PICTURE_327.png,BEAUTY,5efb2e99f4926b0467487421,30/05/1953,2020-09-10_15h22.21.394,proactive3.1,2020.1.2,Win32,60,5f599a131af4471f3d752b7b,5f5a355b84c0b1096a994552,2,,,,,,helmet,,,,,,,,,,,5,0,0,18,18,48,1,,,,,,,,,,,,,,,,,,,,,,,,,,,,,,,,,,,,,,,,,,,,,,,,,,,,,,,,,,,,,,,,,,,,,,,,,,,,,,,,,,,,,,,,,,,,,,,,,,,,,,,,
,,?,0.000575,0,,,,,,stimuli/images/PICTURE_311.png,FRIEND,5efb2e99f4926b0467487421,30/05/1953,2020-09-10_15h22.21.394,proactive3.1,2020.1.2,Win32,60,5f599a131af4471f3d752b7b,5f5a355b84c0b1096a994552,2,,,,,,razor,,,,,,,,,,,4,0,0,19,19,34,1,,,,,,,,,,,,,,,,,,,,,,,,,,,,,,,,,,,,,,,,,,,,,,,,,,,,,,,,,,,,,,,,,,,,,,,,,,,,,,,,,,,,,,,,,,,,,,,,,,,,,,,,
,,?,0.00056,0,,,,,,stimuli/images/PICTURE_203.png,ARTIST,5efb2e99f4926b0467487421,30/05/1953,2020-09-10_15h22.21.394,proactive3.1,2020.1.2,Win32,60,5f599a131af4471f3d752b7b,5f5a355b84c0b1096a994552,2,,,,,,cap,,,,,,,,,,,3,0,0,20,20,26,1,,,,,,,,,,,,,,,,,,,,,,,,,,,,,,,,,,,,,,,,,,,,,,,,,,,,,,,,,,,,,,,,,,,,,,,,,,,,,,,,,,,,,,,,,,,,,,,,,,,,,,,,
,,?,0.000565,0,,,,,,stimuli/images/PICTURE_123.png,ADVICE,5efb2e99f4926b0467487421,30/05/1953,2020-09-10_15h22.21.394,proactive3.1,2020.1.2,Win32,60,5f599a131af4471f3d752b7b,5f5a355b84c0b1096a994552,2,,,,,,dart,,,,,,,,,,,6,0,0,21,21,50,1,,,,,,,,,,,,,,,,,,,,,,,,,,,,,,,,,,,,,,,,,,,,,,,,,,,,,,,,,,,,,,,,,,,,,,,,,,,,,,,,,,,,,,,,,,,,,,,,,,,,,,,,
,,?,0.000545,0,,,,,,stimuli/images/PICTURE_255.png,AREA,5efb2e99f4926b0467487421,30/05/1953,2020-09-10_15h22.21.394,proactive3.1,2020.1.2,Win32,60,5f599a131af4471f3d752b7b,5f5a355b84c0b1096a994552,2,,,,,,shovel,,,,,,,,,,,3,0,0,22,22,22,1,,,,,,,,,,,,,,,,,,,,,,,,,,,,,,,,,,,,,,,,,,,,,,,,,,,,,,,,,,,,,,,,,,,,,,,,,,,,,,,,,,,,,,,,,,,,,,,,,,,,,,,,
,,SAKE,5.98579,1,,,,,,stimuli/images/PICTURE_744.png,SAKE,5efb2e99f4926b0467487421,30/05/1953,2020-09-10_15h22.21.394,proactive3.1,2020.1.2,Win32,60,5f599a131af4471f3d752b7b,5f5a355b84c0b1096a994552,2,,,,,,ring,,,,,,,,,,,2,0,0,23,23,17,1,,,,,,,,,,,,,,,,,,,,,,,,,,,,,,,,,,,,,,,,,,,,,,,,,,,,,,,,,,,,,,,,,,,,,,,,,,,,,,,,,,,,,,,,,,,,,,,,,,,,,,,,
,,?,0.00163,0,,,,,,stimuli/images/PICTURE_504.png,BODY,5efb2e99f4926b0467487421,30/05/1953,2020-09-10_15h22.21.394,proactive3.1,2020.1.2,Win32,60,5f599a131af4471f3d752b7b,5f5a355b84c0b1096a994552,2,,,,,,wheel,,,,,,,,,,,1,0,0,24,24,8,1,,,,,,,,,,,,,,,,,,,,,,,,,,,,,,,,,,,,,,,,,,,,,,,,,,,,,,,,,,,,,,,,,,,,,,,,,,,,,,,,,,,,,,,,,,,,,,,,,,,,,,,,
,,?,0.001235,0,,,,,,stimuli/images/PICTURE_348.png,SPEECH,5efb2e99f4926b0467487421,30/05/1953,2020-09-10_15h22.21.394,proactive3.1,2020.1.2,Win32,60,5f599a131af4471f3d752b7b,5f5a355b84c0b1096a994552,2,,,,,,pepper,,,,,,,,,,,3,0,0,25,25,20,1,,,,,,,,,,,,,,,,,,,,,,,,,,,,,,,,,,,,,,,,,,,,,,,,,,,,,,,,,,,,,,,,,,,,,,,,,,,,,,,,,,,,,,,,,,,,,,,,,,,,,,,,
,,FAMILY,10.14208,0,,,,,,stimuli/images/PICTURE_285.png,ADVICE,5efb2e99f4926b0467487421,30/05/1953,2020-09-10_15h22.21.394,proactive3.1,2020.1.2,Win32,60,5f599a131af4471f3d752b7b,5f5a355b84c0b1096a994552,2,,,,,,carrot,,,,,,,,,,,2,0,0,26,26,12,1,,,,,,,,,,,,,,,,,,,,,,,,,,,,,,,,,,,,,,,,,,,,,,,,,,,,,,,,,,,,,,,,,,,,,,,,,,,,,,,,,,,,,,,,,,,,,,,,,,,,,,,,
,,?,0.002195,0,,,,,,stimuli/images/PICTURE_208.png,MONTH,5efb2e99f4926b0467487421,30/05/1953,2020-09-10_15h22.21.394,proactive3.1,2020.1.2,Win32,60,5f599a131af4471f3d752b7b,5f5a355b84c0b1096a994552,2,,,,,,microphone,,,,,,,,,,,6,0,0,27,27,53,1,,,,,,,,,,,,,,,,,,,,,,,,,,,,,,,,,,,,,,,,,,,,,,,,,,,,,,,,,,,,,,,,,,,,,,,,,,,,,,,,,,,,,,,,,,,,,,,,,,,,,,,,
,,?,0.00206,0,,,,,,stimuli/images/PICTURE_233.png,WOMEN,5efb2e99f4926b0467487421,30/05/1953,2020-09-10_15h22.21.394,proactive3.1,2020.1.2,Win32,60,5f599a131af4471f3d752b7b,5f5a355b84c0b1096a994552,2,,,,,,salt,,,,,,,,,,,4,0,0,28,28,38,1,,,,,,,,,,,,,,,,,,,,,,,,,,,,,,,,,,,,,,,,,,,,,,,,,,,,,,,,,,,,,,,,,,,,,,,,,,,,,,,,,,,,,,,,,,,,,,,,,,,,,,,,
,,?,0.00193,0,,,,,,stimuli/images/PICTURE_453.png,DUDE,5efb2e99f4926b0467487421,30/05/1953,2020-09-10_15h22.21.394,proactive3.1,2020.1.2,Win32,60,5f599a131af4471f3d752b7b,5f5a355b84c0b1096a994552,2,,,,,,scissors,,,,,,,,,,,3,0,0,29,29,27,1,,,,,,,,,,,,,,,,,,,,,,,,,,,,,,,,,,,,,,,,,,,,,,,,,,,,,,,,,,,,,,,,,,,,,,,,,,,,,,,,,,,,,,,,,,,,,,,,,,,,,,,,
,,?,0.002205,0,,,,,,stimuli/images/PICTURE_509.png,PHOTO,5efb2e99f4926b0467487421,30/05/1953,2020-09-10_15h22.21.394,proactive3.1,2020.1.2,Win32,60,5f599a131af4471f3d752b7b,5f5a355b84c0b1096a994552,2,,,,,,telephone,,,,,,,,,,,3,0,0,30,30,21,1,,,,,,,,,,,,,,,,,,,,,,,,,,,,,,,,,,,,,,,,,,,,,,,,,,,,,,,,,,,,,,,,,,,,,,,,,,,,,,,,,,,,,,,,,,,,,,,,,,,,,,,,
,,?,0.002145,0,,,,,,stimuli/images/PICTURE_708.png,CLIENT,5efb2e99f4926b0467487421,30/05/1953,2020-09-10_15h22.21.394,proactive3.1,2020.1.2,Win32,60,5f599a131af4471f3d752b7b,5f5a355b84c0b1096a994552,2,,,,,,monkey,,,,,,,,,,,1,0,0,31,31,5,1,,,,,,,,,,,,,,,,,,,,,,,,,,,,,,,,,,,,,,,,,,,,,,,,,,,,,,,,,,,,,,,,,,,,,,,,,,,,,,,,,,,,,,,,,,,,,,,,,,,,,,,,
,,?,0.00124,0,,,,,,stimuli/images/PICTURE_68.png,MILE,5efb2e99f4926b0467487421,30/05/1953,2020-09-10_15h22.21.394,proactive3.1,2020.1.2,Win32,60,5f599a131af4471f3d752b7b,5f5a355b84c0b1096a994552,2,,,,,,candle,,,,,,,,,,,5,0,0,32,32,44,1,,,,,,,,,,,,,,,,,,,,,,,,,,,,,,,,,,,,,,,,,,,,,,,,,,,,,,,,,,,,,,,,,,,,,,,,,,,,,,,,,,,,,,,,,,,,,,,,,,,,,,,,
,,?,0.001645,0,,,,,,stimuli/images/PICTURE_708.png,YARD,5efb2e99f4926b0467487421,30/05/1953,2020-09-10_15h22.21.394,proactive3.1,2020.1.2,Win32,60,5f599a131af4471f3d752b7b,5f5a355b84c0b1096a994552,2,,,,,,monkey,,,,,,,,,,,3,0,0,33,33,29,1,,,,,,,,,,,,,,,,,,,,,,,,,,,,,,,,,,,,,,,,,,,,,,,,,,,,,,,,,,,,,,,,,,,,,,,,,,,,,,,,,,,,,,,,,,,,,,,,,,,,,,,,
,,THING,7.014485,0,,,,,,stimuli/images/PICTURE_314.png,GODS,5efb2e99f4926b0467487421,30/05/1953,2020-09-10_15h22.21.394,proactive3.1,2020.1.2,Win32,60,5f599a131af4471f3d752b7b,5f5a355b84c0b1096a994552,2,,,,,,perfume,,,,,,,,,,,2,0,0,34,34,11,1,,,,,,,,,,,,,,,,,,,,,,,,,,,,,,,,,,,,,,,,,,,,,,,,,,,,,,,,,,,,,,,,,,,,,,,,,,,,,,,,,,,,,,,,,,,,,,,,,,,,,,,,
,,?,15.0132,0,,,,,,stimuli/images/PICTURE_208.png,LOTS,5efb2e99f4926b0467487421,30/05/1953,2020-09-10_15h22.21.394,proactive3.1,2020.1.2,Win32,60,5f599a131af4471f3d752b7b,5f5a355b84c0b1096a994552,2,,,,,,microphone,,,,,,,,,,,2,0,0,35,35,10,1,,,,,,,,,,,,,,,,,,,,,,,,,,,,,,,,,,,,,,,,,,,,,,,,,,,,,,,,,,,,,,,,,,,,,,,,,,,,,,,,,,,,,,,,,,,,,,,,,,,,,,,,
,,?,0.002225,0,,,,,,stimuli/images/PICTURE_491.png,ROOF,5efb2e99f4926b0467487421,30/05/1953,2020-09-10_15h22.21.394,proactive3.1,2020.1.2,Win32,60,5f599a131af4471f3d752b7b,5f5a355b84c0b1096a994552,2,,,,,,rug,,,,,,,,,,,3,0,0,36,36,24,1,,,,,,,,,,,,,,,,,,,,,,,,,,,,,,,,,,,,,,,,,,,,,,,,,,,,,,,,,,,,,,,,,,,,,,,,,,,,,,,,,,,,,,,,,,,,,,,,,,,,,,,,
,,?,11.52479,0,,,,,,stimuli/images/PICTURE_692.png,MONTH,5efb2e99f4926b0467487421,30/05/1953,2020-09-10_15h22.21.394,proactive3.1,2020.1.2,Win32,60,5f599a131af4471f3d752b7b,5f5a355b84c0b1096a994552,2,,,,,,cherry,,,,,,,,,,,2,0,0,37,37,16,1,,,,,,,,,,,,,,,,,,,,,,,,,,,,,,,,,,,,,,,,,,,,,,,,,,,,,,,,,,,,,,,,,,,,,,,,,,,,,,,,,,,,,,,,,,,,,,,,,,,,,,,,
,,?,0.00231,0,,,,,,stimuli/images/PICTURE_160.png,FEET,5efb2e99f4926b0467487421,30/05/1953,2020-09-10_15h22.21.394,proactive3.1,2020.1.2,Win32,60,5f599a131af4471f3d752b7b,5f5a355b84c0b1096a994552,2,,,,,,wheelbarrow,,,,,,,,,,,6,0,0,38,38,58,1,,,,,,,,,,,,,,,,,,,,,,,,,,,,,,,,,,,,,,,,,,,,,,,,,,,,,,,,,,,,,,,,,,,,,,,,,,,,,,,,,,,,,,,,,,,,,,,,,,,,,,,,
,,?,0.00185,0,,,,,,stimuli/images/PICTURE_491.png,WRITER,5efb2e99f4926b0467487421,30/05/1953,2020-09-10_15h22.21.394,proactive3.1,2020.1.2,Win32,60,5f599a131af4471f3d752b7b,5f5a355b84c0b1096a994552,2,,,,,,rug,,,,,,,,,,,6,0,0,39,39,57,1,,,,,,,,,,,,,,,,,,,,,,,,,,,,,,,,,,,,,,,,,,,,,,,,,,,,,,,,,,,,,,,,,,,,,,,,,,,,,,,,,,,,,,,,,,,,,,,,,,,,,,,,
,,?,0.001795,0,,,,,,stimuli/images/PICTURE_467.png,DEMON,5efb2e99f4926b0467487421,30/05/1953,2020-09-10_15h22.21.394,proactive3.1,2020.1.2,Win32,60,5f599a131af4471f3d752b7b,5f5a355b84c0b1096a994552,2,,,,,,peg,,,,,,,,,,,3,0,0,40,40,23,1,,,,,,,,,,,,,,,,,,,,,,,,,,,,,,,,,,,,,,,,,,,,,,,,,,,,,,,,,,,,,,,,,,,,,,,,,,,,,,,,,,,,,,,,,,,,,,,,,,,,,,,,
,,?,0.001985,0,,,,,,stimuli/images/PICTURE_32.png,JUNGLE,5efb2e99f4926b0467487421,30/05/1953,2020-09-10_15h22.21.394,proactive3.1,2020.1.2,Win32,60,5f599a131af4471f3d752b7b,5f5a355b84c0b1096a994552,2,,,,,,crown,,,,,,,,,,,5,0,0,41,41,45,1,,,,,,,,,,,,,,,,,,,,,,,,,,,,,,,,,,,,,,,,,,,,,,,,,,,,,,,,,,,,,,,,,,,,,,,,,,,,,,,,,,,,,,,,,,,,,,,,,,,,,,,,
,,?,0.001425,0,,,,,,stimuli/images/PICTURE_147.png,MOMENT,5efb2e99f4926b0467487421,30/05/1953,2020-09-10_15h22.21.394,proactive3.1,2020.1.2,Win32,60,5f599a131af4471f3d752b7b,5f5a355b84c0b1096a994552,2,,,,,,hanger,,,,,,,,,,,6,0,0,42,42,51,1,,,,,,,,,,,,,,,,,,,,,,,,,,,,,,,,,,,,,,,,,,,,,,,,,,,,,,,,,,,,,,,,,,,,,,,,,,,,,,,,,,,,,,,,,,,,,,,,,,,,,,,,
,,?,0.00101,0,,,,,,stimuli/images/PICTURE_95.png,STYLE,5efb2e99f4926b0467487421,30/05/1953,2020-09-10_15h22.21.394,proactive3.1,2020.1.2,Win32,60,5f599a131af4471f3d752b7b,5f5a355b84c0b1096a994552,2,,,,,,suitcase,,,,,,,,,,,3,0,0,43,43,25,1,,,,,,,,,,,,,,,,,,,,,,,,,,,,,,,,,,,,,,,,,,,,,,,,,,,,,,,,,,,,,,,,,,,,,,,,,,,,,,,,,,,,,,,,,,,,,,,,,,,,,,,,
,,?,0.001305,0,,,,,,stimuli/images/PICTURE_248.png,DOZEN,5efb2e99f4926b0467487421,30/05/1953,2020-09-10_15h22.21.394,proactive3.1,2020.1.2,Win32,60,5f599a131af4471f3d752b7b,5f5a355b84c0b1096a994552,2,,,,,,cart,,,,,,,,,,,4,0,0,44,44,39,1,,,,,,,,,,,,,,,,,,,,,,,,,,,,,,,,,,,,,,,,,,,,,,,,,,,,,,,,,,,,,,,,,,,,,,,,,,,,,,,,,,,,,,,,,,,,,,,,,,,,,,,,
,,?,0.001045,0,,,,,,stimuli/images/PICTURE_744.png,SYSTEM,5efb2e99f4926b0467487421,30/05/1953,2020-09-10_15h22.21.394,proactive3.1,2020.1.2,Win32,60,5f599a131af4471f3d752b7b,5f5a355b84c0b1096a994552,2,,,,,,ring,,,,,,,,,,,5,0,0,45,45,43,1,,,,,,,,,,,,,,,,,,,,,,,,,,,,,,,,,,,,,,,,,,,,,,,,,,,,,,,,,,,,,,,,,,,,,,,,,,,,,,,,,,,,,,,,,,,,,,,,,,,,,,,,
,,?,0.00115,0,,,,,,stimuli/images/PICTURE_356.png,DANGER,5efb2e99f4926b0467487421,30/05/1953,2020-09-10_15h22.21.394,proactive3.1,2020.1.2,Win32,60,5f599a131af4471f3d752b7b,5f5a355b84c0b1096a994552,2,,,,,,pawn,,,,,,,,,,,6,0,0,46,46,55,1,,,,,,,,,,,,,,,,,,,,,,,,,,,,,,,,,,,,,,,,,,,,,,,,,,,,,,,,,,,,,,,,,,,,,,,,,,,,,,,,,,,,,,,,,,,,,,,,,,,,,,,,
,,?,0.001055,0,,,,,,stimuli/images/PICTURE_308.png,ESTATE,5efb2e99f4926b0467487421,30/05/1953,2020-09-10_15h22.21.394,proactive3.1,2020.1.2,Win32,60,5f599a131af4471f3d752b7b,5f5a355b84c0b1096a994552,2,,,,,,dice,,,,,,,,,,,5,0,0,47,47,46,1,,,,,,,,,,,,,,,,,,,,,,,,,,,,,,,,,,,,,,,,,,,,,,,,,,,,,,,,,,,,,,,,,,,,,,,,,,,,,,,,,,,,,,,,,,,,,,,,,,,,,,,,
,,?,0.001075,0,,,,,,stimuli/images/PICTURE_667.png,BATH,5efb2e99f4926b0467487421,30/05/1953,2020-09-10_15h22.21.394,proactive3.1,2020.1.2,Win32,60,5f599a131af4471f3d752b7b,5f5a355b84c0b1096a994552,2,,,,,,daisy,,,,,,,,,,,1,0,0,48,48,4,1,,,,,,,,,,,,,,,,,,,,,,,,,,,,,,,,,,,,,,,,,,,,,,,,,,,,,,,,,,,,,,,,,,,,,,,,,,,,,,,,,,,,,,,,,,,,,,,,,,,,,,,,
,,?,0.00109,0,,,,,,stimuli/images/PICTURE_667.png,PLENTY,5efb2e99f4926b0467487421,30/05/1953,2020-09-10_15h22.21.394,proactive3.1,2020.1.2,Win32,60,5f599a131af4471f3d752b7b,5f5a355b84c0b1096a994552,2,,,,,,daisy,,,,,,,,,,,5,0,0,49,49,41,1,,,,,,,,,,,,,,,,,,,,,,,,,,,,,,,,,,,,,,,,,,,,,,,,,,,,,,,,,,,,,,,,,,,,,,,,,,,,,,,,,,,,,,,,,,,,,,,,,,,,,,,,
,,WOMEN,5.817625,1,,,,,,stimuli/images/PICTURE_688.png,WOMEN,5efb2e99f4926b0467487421,30/05/1953,2020-09-10_15h22.21.394,proactive3.1,2020.1.2,Win32,60,5f599a131af4471f3d752b7b,5f5a355b84c0b1096a994552,2,,,,,,runner,,,,,,,,,,,2,0,0,50,50,14,1,,,,,,,,,,,,,,,,,,,,,,,,,,,,,,,,,,,,,,,,,,,,,,,,,,,,,,,,,,,,,,,,,,,,,,,,,,,,,,,,,,,,,,,,,,,,,,,,,,,,,,,,
,,?,0.00228,0,,,,,,stimuli/images/PICTURE_380.png,PHOTO,5efb2e99f4926b0467487421,30/05/1953,2020-09-10_15h22.21.394,proactive3.1,2020.1.2,Win32,60,5f599a131af4471f3d752b7b,5f5a355b84c0b1096a994552,2,,,,,,gorilla,,,,,,,,,,,6,0,0,51,51,52,1,,,,,,,,,,,,,,,,,,,,,,,,,,,,,,,,,,,,,,,,,,,,,,,,,,,,,,,,,,,,,,,,,,,,,,,,,,,,,,,,,,,,,,,,,,,,,,,,,,,,,,,,
,,PILLS,9.9066,0,,,,,,stimuli/images/PICTURE_302.png,FAMILY,5efb2e99f4926b0467487421,30/05/1953,2020-09-10_15h22.21.394,proactive3.1,2020.1.2,Win32,60,5f599a131af4471f3d752b7b,5f5a355b84c0b1096a994552,2,,,,,,taxi,,,,,,,,,,,2,0,0,52,52,18,1,,,,,,,,,,,,,,,,,,,,,,,,,,,,,,,,,,,,,,,,,,,,,,,,,,,,,,,,,,,,,,,,,,,,,,,,,,,,,,,,,,,,,,,,,,,,,,,,,,,,,,,,
,,THING,7.04681,0,,,,,,stimuli/images/PICTURE_151.png,GIRL,5efb2e99f4926b0467487421,30/05/1953,2020-09-10_15h22.21.394,proactive3.1,2020.1.2,Win32,60,5f599a131af4471f3d752b7b,5f5a355b84c0b1096a994552,2,,,,,,tray,,,,,,,,,,,2,0,0,53,53,19,1,,,,,,,,,,,,,,,,,,,,,,,,,,,,,,,,,,,,,,,,,,,,,,,,,,,,,,,,,,,,,,,,,,,,,,,,,,,,,,,,,,,,,,,,,,,,,,,,,,,,,,,,
,,?,9.78228,0,,,,,,stimuli/images/PICTURE_311.png,BEAUTY,5efb2e99f4926b0467487421,30/05/1953,2020-09-10_15h22.21.394,proactive3.1,2020.1.2,Win32,60,5f599a131af4471f3d752b7b,5f5a355b84c0b1096a994552,2,,,,,,razor,,,,,,,,,,,2,0,0,54,54,13,1,,,,,,,,,,,,,,,,,,,,,,,,,,,,,,,,,,,,,,,,,,,,,,,,,,,,,,,,,,,,,,,,,,,,,,,,,,,,,,,,,,,,,,,,,,,,,,,,,,,,,,,,
,,THING,5.849195,1,,,,,,stimuli/images/PICTURE_85.png,THING,5efb2e99f4926b0467487421,30/05/1953,2020-09-10_15h22.21.394,proactive3.1,2020.1.2,Win32,60,5f599a131af4471f3d752b7b,5f5a355b84c0b1096a994552,2,,,,,,diamond,,,,,,,,,,,2,0,0,55,55,15,1,,,,,,,,,,,,,,,,,,,,,,,,,,,,,,,,,,,,,,,,,,,,,,,,,,,,,,,,,,,,,,,,,,,,,,,,,,,,,,,,,,,,,,,,,,,,,,,,,,,,,,,,
,,?,0.002265,0,,,,,,stimuli/images/PICTURE_208.png,THING,5efb2e99f4926b0467487421,30/05/1953,2020-09-10_15h22.21.394,proactive3.1,2020.1.2,Win32,60,5f599a131af4471f3d752b7b,5f5a355b84c0b1096a994552,2,,,,,,microphone,,,,,,,,,,,5,0,0,56,56,47,1,,,,,,,,,,,,,,,,,,,,,,,,,,,,,,,,,,,,,,,,,,,,,,,,,,,,,,,,,,,,,,,,,,,,,,,,,,,,,,,,,,,,,,,,,,,,,,,,,,,,,,,,
,,?,0.002045,0,,,,,,stimuli/images/PICTURE_470.png,CASINO,5efb2e99f4926b0467487421,30/05/1953,2020-09-10_15h22.21.394,proactive3.1,2020.1.2,Win32,60,5f599a131af4471f3d752b7b,5f5a355b84c0b1096a994552,2,,,,,,motorbike,,,,,,,,,,,4,0,0,57,57,36,1,,,,,,,,,,,,,,,,,,,,,,,,,,,,,,,,,,,,,,,,,,,,,,,,,,,,,,,,,,,,,,,,,,,,,,,,,,,,,,,,,,,,,,,,,,,,,,,,,,,,,,,,
,,?,0.001885,0,,,,,,stimuli/images/PICTURE_654.png,VALLEY,5efb2e99f4926b0467487421,30/05/1953,2020-09-10_15h22.21.394,proactive3.1,2020.1.2,Win32,60,5f599a131af4471f3d752b7b,5f5a355b84c0b1096a994552,2,,,,,,pencil,,,,,,,,,,,1,0,0,58,58,1,1,,,,,,,,,,,,,,,,,,,,,,,,,,,,,,,,,,,,,,,,,,,,,,,,,,,,,,,,,,,,,,,,,,,,,,,,,,,,,,,,,,,,,,,,,,,,,,,,,,,,,,,,
,,?,0.002315,0,,,,,,stimuli/images/PICTURE_688.png,CASINO,5efb2e99f4926b0467487421,30/05/1953,2020-09-10_15h22.21.394,proactive3.1,2020.1.2,Win32,60,5f599a131af4471f3d752b7b,5f5a355b84c0b1096a994552,2,,,,,,runner,,,,,,,,,,,1,0,0,59,59,2,1,,,,,,,,,,,,,,,,,,,,,,,,,,,,,,,,,,,,,,,,,,,,,,,,,,,,,,,,,,,,,,,,,,,,,,,,,,,,,,,,,,,,,,,,,,,,,,,,,,,,,,,,
,,,,,,,,,,,,5efb2e99f4926b0467487421,30/05/1953,2020-09-10_15h22.21.394,proactive3.1,2020.1.2,Win32,60,5f599a131af4471f3d752b7b,5f5a355b84c0b1096a994552,2,,,,,,,,,,,,,,,,,,,,,,,,0,1,1,0,1,stimuli/learn-block1.csv,,,,,,,,,,,,,,,,,,,,,,,,,,,,,,,,,,,,,,,,,,,,,,,,,,,,,,,,,,,,,,,,,,,,,,,,,,,,,,,,,,,,,,,,,,,,,,,,,,
,,,,,,,,,,stimuli/images/PICTURE_654.png,COPS,5efb2e99f4926b0467487421,30/05/1953,2020-09-10_15h22.21.394,proactive3.1,2020.1.2,Win32,60,5f599a131af4471f3d752b7b,5f5a355b84c0b1096a994552,2,,,,,,pencil,,,,,,0,0,0,10,1,2,2,,,,,,,,,,,,,,,,,,,,,,,,,,,,,,,,,,,,,,,,,,,,,,,,,,,,,,,,,,,,,,,,,,,,,,,,,,,,,,,,,,,,,,,,,,,,,,,,,,,,,,,,,,,,,
,,,,,,,,,,stimuli/images/PICTURE_509.png,APPLE,5efb2e99f4926b0467487421,30/05/1953,2020-09-10_15h22.21.394,proactive3.1,2020.1.2,Win32,60,5f599a131af4471f3d752b7b,5f5a355b84c0b1096a994552,2,,,,,,telephone,,,,,,0,1,1,38,1,4,2,,,,,,,,,,,,,,,,,,,,,,,,,,,,,,,,,,,,,,,,,,,,,,,,,,,,,,,,,,,,,,,,,,,,,,,,,,,,,,,,,,,,,,,,,,,,,,,,,,,,,,,,,,,,,
,,,,,,,,,,stimuli/images/PICTURE_405.png,JUNGLE,5efb2e99f4926b0467487421,30/05/1953,2020-09-10_15h22.21.394,proactive3.1,2020.1.2,Win32,60,5f599a131af4471f3d752b7b,5f5a355b84c0b1096a994552,2,,,,,,anchor,,,,,,0,2,2,13,1,2,2,,,,,,,,,,,,,,,,,,,,,,,,,,,,,,,,,,,,,,,,,,,,,,,,,,,,,,,,,,,,,,,,,,,,,,,,,,,,,,,,,,,,,,,,,,,,,,,,,,,,,,,,,,,,,
,,,,,,,,,,stimuli/images/PICTURE_405.png,HOUSE,5efb2e99f4926b0467487421,30/05/1953,2020-09-10_15h22.21.394,proactive3.1,2020.1.2,Win32,60,5f599a131af4471f3d752b7b,5f5a355b84c0b1096a994552,2,,,,,,anchor,,,,,,0,3,3,2,1,1,2,,,,,,,,,,,,,,,,,,,,,,,,,,,,,,,,,,,,,,,,,,,,,,,,,,,,,,,,,,,,,,,,,,,,,,,,,,,,,,,,,,,,,,,,,,,,,,,,,,,,,,,,,,,,,
,,,,,,,,,,stimuli/images/PICTURE_452.png,COPS,5efb2e99f4926b0467487421,30/05/1953,2020-09-10_15h22.21.394,proactive3.1,2020.1.2,Win32,60,5f599a131af4471f3d752b7b,5f5a355b84c0b1096a994552,2,,,,,,watch,,,,,,0,4,4,0,1,1,2,,,,,,,,,,,,,,,,,,,,,,,,,,,,,,,,,,,,,,,,,,,,,,,,,,,,,,,,,,,,,,,,,,,,,,,,,,,,,,,,,,,,,,,,,,,,,,,,,,,,,,,,,,,,,
,,,,,,,,,,stimuli/images/PICTURE_348.png,TOILET,5efb2e99f4926b0467487421,30/05/1953,2020-09-10_15h22.21.394,proactive3.1,2020.1.2,Win32,60,5f599a131af4471f3d752b7b,5f5a355b84c0b1096a994552,2,,,,,,pepper,,,,,,0,5,5,4,1,1,2,,,,,,,,,,,,,,,,,,,,,,,,,,,,,,,,,,,,,,,,,,,,,,,,,,,,,,,,,,,,,,,,,,,,,,,,,,,,,,,,,,,,,,,,,,,,,,,,,,,,,,,,,,,,,
,,,,,,,,,,stimuli/images/PICTURE_564.png,PLENTY,5efb2e99f4926b0467487421,30/05/1953,2020-09-10_15h22.21.394,proactive3.1,2020.1.2,Win32,60,5f599a131af4471f3d752b7b,5f5a355b84c0b1096a994552,2,,,,,,spoon,,,,,,0,6,6,11,1,2,2,,,,,,,,,,,,,,,,,,,,,,,,,,,,,,,,,,,,,,,,,,,,,,,,,,,,,,,,,,,,,,,,,,,,,,,,,,,,,,,,,,,,,,,,,,,,,,,,,,,,,,,,,,,,,
,,,,,,,,,,stimuli/images/PICTURE_33.png,COPS,5efb2e99f4926b0467487421,30/05/1953,2020-09-10_15h22.21.394,proactive3.1,2020.1.2,Win32,60,5f599a131af4471f3d752b7b,5f5a355b84c0b1096a994552,2,,,,,,frame,,,,,,0,7,7,29,1,3,2,,,,,,,,,,,,,,,,,,,,,,,,,,,,,,,,,,,,,,,,,,,,,,,,,,,,,,,,,,,,,,,,,,,,,,,,,,,,,,,,,,,,,,,,,,,,,,,,,,,,,,,,,,,,,
,,,,,,,,,,stimuli/images/PICTURE_327.png,LEADER,5efb2e99f4926b0467487421,30/05/1953,2020-09-10_15h22.21.394,proactive3.1,2020.1.2,Win32,60,5f599a131af4471f3d752b7b,5f5a355b84c0b1096a994552,2,,,,,,helmet,,,,,,0,8,8,17,1,2,2,,,,,,,,,,,,,,,,,,,,,,,,,,,,,,,,,,,,,,,,,,,,,,,,,,,,,,,,,,,,,,,,,,,,,,,,,,,,,,,,,,,,,,,,,,,,,,,,,,,,,,,,,,,,,
,,,,,,,,,,stimuli/images/PICTURE_453.png,FAMILY,5efb2e99f4926b0467487421,30/05/1953,2020-09-10_15h22.21.394,proactive3.1,2020.1.2,Win32,60,5f599a131af4471f3d752b7b,5f5a355b84c0b1096a994552,2,,,,,,scissors,,,,,,0,9,9,48,1,5,2,,,,,,,,,,,,,,,,,,,,,,,,,,,,,,,,,,,,,,,,,,,,,,,,,,,,,,,,,,,,,,,,,,,,,,,,,,,,,,,,,,,,,,,,,,,,,,,,,,,,,,,,,,,,,
,,,,,,,,,,stimuli/images/PICTURE_215.png,LEADER,5efb2e99f4926b0467487421,30/05/1953,2020-09-10_15h22.21.394,proactive3.1,2020.1.2,Win32,60,5f599a131af4471f3d752b7b,5f5a355b84c0b1096a994552,2,,,,,,boot,,,,,,0,10,10,43,1,5,2,,,,,,,,,,,,,,,,,,,,,,,,,,,,,,,,,,,,,,,,,,,,,,,,,,,,,,,,,,,,,,,,,,,,,,,,,,,,,,,,,,,,,,,,,,,,,,,,,,,,,,,,,,,,,
,,,,,,,,,,stimuli/images/PICTURE_654.png,YEAR,5efb2e99f4926b0467487421,30/05/1953,2020-09-10_15h22.21.394,proactive3.1,2020.1.2,Win32,60,5f599a131af4471f3d752b7b,5f5a355b84c0b1096a994552,2,,,,,,pencil,,,,,,0,11,11,41,1,5,2,,,,,,,,,,,,,,,,,,,,,,,,,,,,,,,,,,,,,,,,,,,,,,,,,,,,,,,,,,,,,,,,,,,,,,,,,,,,,,,,,,,,,,,,,,,,,,,,,,,,,,,,,,,,,
,,,,,,,,,,stimuli/images/PICTURE_57.png,CASINO,5efb2e99f4926b0467487421,30/05/1953,2020-09-10_15h22.21.394,proactive3.1,2020.1.2,Win32,60,5f599a131af4471f3d752b7b,5f5a355b84c0b1096a994552,2,,,,,,stamp,,,,,,0,12,12,12,1,2,2,,,,,,,,,,,,,,,,,,,,,,,,,,,,,,,,,,,,,,,,,,,,,,,,,,,,,,,,,,,,,,,,,,,,,,,,,,,,,,,,,,,,,,,,,,,,,,,,,,,,,,,,,,,,,
,,,,,,,,,,stimuli/images/PICTURE_677.png,PHOTO,5efb2e99f4926b0467487421,30/05/1953,2020-09-10_15h22.21.394,proactive3.1,2020.1.2,Win32,60,5f599a131af4471f3d752b7b,5f5a355b84c0b1096a994552,2,,,,,,map,,,,,,0,13,13,14,1,2,2,,,,,,,,,,,,,,,,,,,,,,,,,,,,,,,,,,,,,,,,,,,,,,,,,,,,,,,,,,,,,,,,,,,,,,,,,,,,,,,,,,,,,,,,,,,,,,,,,,,,,,,,,,,,,
,,,,,,,,,,stimuli/images/PICTURE_504.png,HOUSE,5efb2e99f4926b0467487421,30/05/1953,2020-09-10_15h22.21.394,proactive3.1,2020.1.2,Win32,60,5f599a131af4471f3d752b7b,5f5a355b84c0b1096a994552,2,,,,,,wheel,,,,,,0,14,14,36,1,4,2,,,,,,,,,,,,,,,,,,,,,,,,,,,,,,,,,,,,,,,,,,,,,,,,,,,,,,,,,,,,,,,,,,,,,,,,,,,,,,,,,,,,,,,,,,,,,,,,,,,,,,,,,,,,,
,,,,,,,,,,stimuli/images/PICTURE_57.png,NATION,5efb2e99f4926b0467487421,30/05/1953,2020-09-10_15h22.21.394,proactive3.1,2020.1.2,Win32,60,5f599a131af4471f3d752b7b,5f5a355b84c0b1096a994552,2,,,,,,stamp,,,,,,0,15,15,21,1,3,2,,,,,,,,,,,,,,,,,,,,,,,,,,,,,,,,,,,,,,,,,,,,,,,,,,,,,,,,,,,,,,,,,,,,,,,,,,,,,,,,,,,,,,,,,,,,,,,,,,,,,,,,,,,,,
,,,,,,,,,,stimuli/images/PICTURE_255.png,PENNY,5efb2e99f4926b0467487421,30/05/1953,2020-09-10_15h22.21.394,proactive3.1,2020.1.2,Win32,60,5f599a131af4471f3d752b7b,5f5a355b84c0b1096a994552,2,,,,,,shovel,,,,,,0,16,16,19,1,2,2,,,,,,,,,,,,,,,,,,,,,,,,,,,,,,,,,,,,,,,,,,,,,,,,,,,,,,,,,,,,,,,,,,,,,,,,,,,,,,,,,,,,,,,,,,,,,,,,,,,,,,,,,,,,,
,,,,,,,,,,stimuli/images/PICTURE_677.png,FAMILY,5efb2e99f4926b0467487421,30/05/1953,2020-09-10_15h22.21.394,proactive3.1,2020.1.2,Win32,60,5f599a131af4471f3d752b7b,5f5a355b84c0b1096a994552,2,,,,,,map,,,,,,0,17,17,53,1,6,2,,,,,,,,,,,,,,,,,,,,,,,,,,,,,,,,,,,,,,,,,,,,,,,,,,,,,,,,,,,,,,,,,,,,,,,,,,,,,,,,,,,,,,,,,,,,,,,,,,,,,,,,,,,,,
,,,,,,,,,,stimuli/images/PICTURE_2.png,AREA,5efb2e99f4926b0467487421,30/05/1953,2020-09-10_15h22.21.394,proactive3.1,2020.1.2,Win32,60,5f599a131af4471f3d752b7b,5f5a355b84c0b1096a994552,2,,,,,,tyre,,,,,,0,18,18,32,1,4,2,,,,,,,,,,,,,,,,,,,,,,,,,,,,,,,,,,,,,,,,,,,,,,,,,,,,,,,,,,,,,,,,,,,,,,,,,,,,,,,,,,,,,,,,,,,,,,,,,,,,,,,,,,,,,
,,,,,,,,,,stimuli/images/PICTURE_147.png,LEADER,5efb2e99f4926b0467487421,30/05/1953,2020-09-10_15h22.21.394,proactive3.1,2020.1.2,Win32,60,5f599a131af4471f3d752b7b,5f5a355b84c0b1096a994552,2,,,,,,hanger,,,,,,0,19,19,33,1,4,2,,,,,,,,,,,,,,,,,,,,,,,,,,,,,,,,,,,,,,,,,,,,,,,,,,,,,,,,,,,,,,,,,,,,,,,,,,,,,,,,,,,,,,,,,,,,,,,,,,,,,,,,,,,,,
,,,,,,,,,,stimuli/images/PICTURE_348.png,DUDE,5efb2e99f4926b0467487421,30/05/1953,2020-09-10_15h22.21.394,proactive3.1,2020.1.2,Win32,60,5f599a131af4471f3d752b7b,5f5a355b84c0b1096a994552,2,,,,,,pepper,,,,,,0,20,20,59,1,6,2,,,,,,,,,,,,,,,,,,,,,,,,,,,,,,,,,,,,,,,,,,,,,,,,,,,,,,,,,,,,,,,,,,,,,,,,,,,,,,,,,,,,,,,,,,,,,,,,,,,,,,,,,,,,,
,,,,,,,,,,stimuli/images/PICTURE_160.png,HOTEL,5efb2e99f4926b0467487421,30/05/1953,2020-09-10_15h22.21.394,proactive3.1,2020.1.2,Win32,60,5f599a131af4471f3d752b7b,5f5a355b84c0b1096a994552,2,,,,,,wheelbarrow,,,,,,0,21,21,16,1,2,2,,,,,,,,,,,,,,,,,,,,,,,,,,,,,,,,,,,,,,,,,,,,,,,,,,,,,,,,,,,,,,,,,,,,,,,,,,,,,,,,,,,,,,,,,,,,,,,,,,,,,,,,,,,,,
,,,,,,,,,,stimuli/images/PICTURE_667.png,GLASS,5efb2e99f4926b0467487421,30/05/1953,2020-09-10_15h22.21.394,proactive3.1,2020.1.2,Win32,60,5f599a131af4471f3d752b7b,5f5a355b84c0b1096a994552,2,,,,,,daisy,,,,,,0,22,22,27,1,3,2,,,,,,,,,,,,,,,,,,,,,,,,,,,,,,,,,,,,,,,,,,,,,,,,,,,,,,,,,,,,,,,,,,,,,,,,,,,,,,,,,,,,,,,,,,,,,,,,,,,,,,,,,,,,,
,,,,,,,,,,stimuli/images/PICTURE_215.png,FOOD,5efb2e99f4926b0467487421,30/05/1953,2020-09-10_15h22.21.394,proactive3.1,2020.1.2,Win32,60,5f599a131af4471f3d752b7b,5f5a355b84c0b1096a994552,2,,,,,,boot,,,,,,0,23,23,5,1,1,2,,,,,,,,,,,,,,,,,,,,,,,,,,,,,,,,,,,,,,,,,,,,,,,,,,,,,,,,,,,,,,,,,,,,,,,,,,,,,,,,,,,,,,,,,,,,,,,,,,,,,,,,,,,,,
,,,,,,,,,,stimuli/images/PICTURE_655.png,SALE,5efb2e99f4926b0467487421,30/05/1953,2020-09-10_15h22.21.394,proactive3.1,2020.1.2,Win32,60,5f599a131af4471f3d752b7b,5f5a355b84c0b1096a994552,2,,,,,,megaphone,,,,,,0,24,24,57,1,6,2,,,,,,,,,,,,,,,,,,,,,,,,,,,,,,,,,,,,,,,,,,,,,,,,,,,,,,,,,,,,,,,,,,,,,,,,,,,,,,,,,,,,,,,,,,,,,,,,,,,,,,,,,,,,,
,,,,,,,,,,stimuli/images/PICTURE_509.png,BATH,5efb2e99f4926b0467487421,30/05/1953,2020-09-10_15h22.21.394,proactive3.1,2020.1.2,Win32,60,5f599a131af4471f3d752b7b,5f5a355b84c0b1096a994552,2,,,,,,telephone,,,,,,0,25,25,15,1,2,2,,,,,,,,,,,,,,,,,,,,,,,,,,,,,,,,,,,,,,,,,,,,,,,,,,,,,,,,,,,,,,,,,,,,,,,,,,,,,,,,,,,,,,,,,,,,,,,,,,,,,,,,,,,,,
,,,,,,,,,,stimuli/images/PICTURE_487.png,ROOF,5efb2e99f4926b0467487421,30/05/1953,2020-09-10_15h22.21.394,proactive3.1,2020.1.2,Win32,60,5f599a131af4471f3d752b7b,5f5a355b84c0b1096a994552,2,,,,,,basket,,,,,,0,26,26,50,1,6,2,,,,,,,,,,,,,,,,,,,,,,,,,,,,,,,,,,,,,,,,,,,,,,,,,,,,,,,,,,,,,,,,,,,,,,,,,,,,,,,,,,,,,,,,,,,,,,,,,,,,,,,,,,,,,
,,,,,,,,,,stimuli/images/PICTURE_487.png,POLICY,5efb2e99f4926b0467487421,30/05/1953,2020-09-10_15h22.21.394,proactive3.1,2020.1.2,Win32,60,5f599a131af4471f3d752b7b,5f5a355b84c0b1096a994552,2,,,,,,basket,,,,,,0,27,27,34,1,4,2,,,,,,,,,,,,,,,,,,,,,,,,,,,,,,,,,,,,,,,,,,,,,,,,,,,,,,,,,,,,,,,,,,,,,,,,,,,,,,,,,,,,,,,,,,,,,,,,,,,,,,,,,,,,,
,,,,,,,,,,stimuli/images/PICTURE_18.png,RIVER,5efb2e99f4926b0467487421,30/05/1953,2020-09-10_15h22.21.394,proactive3.1,2020.1.2,Win32,60,5f599a131af4471f3d752b7b,5f5a355b84c0b1096a994552,2,,,,,,planet,,,,,,0,28,28,22,1,3,2,,,,,,,,,,,,,,,,,,,,,,,,,,,,,,,,,,,,,,,,,,,,,,,,,,,,,,,,,,,,,,,,,,,,,,,,,,,,,,,,,,,,,,,,,,,,,,,,,,,,,,,,,,,,,
,,,,,,,,,,stimuli/images/PICTURE_296.png,CLOCK,5efb2e99f4926b0467487421,30/05/1953,2020-09-10_15h22.21.394,proactive3.1,2020.1.2,Win32,60,5f599a131af4471f3d752b7b,5f5a355b84c0b1096a994552,2,,,,,,bolt,,,,,,0,29,29,18,1,2,2,,,,,,,,,,,,,,,,,,,,,,,,,,,,,,,,,,,,,,,,,,,,,,,,,,,,,,,,,,,,,,,,,,,,,,,,,,,,,,,,,,,,,,,,,,,,,,,,,,,,,,,,,,,,,
,,,,,,,,,,stimuli/images/PICTURE_215.png,BOYS,5efb2e99f4926b0467487421,30/05/1953,2020-09-10_15h22.21.394,proactive3.1,2020.1.2,Win32,60,5f599a131af4471f3d752b7b,5f5a355b84c0b1096a994552,2,,,,,,boot,,,,,,0,30,30,24,1,3,2,,,,,,,,,,,,,,,,,,,,,,,,,,,,,,,,,,,,,,,,,,,,,,,,,,,,,,,,,,,,,,,,,,,,,,,,,,,,,,,,,,,,,,,,,,,,,,,,,,,,,,,,,,,,,
,,,,,,,,,,stimuli/images/PICTURE_123.png,SALE,5efb2e99f4926b0467487421,30/05/1953,2020-09-10_15h22.21.394,proactive3.1,2020.1.2,Win32,60,5f599a131af4471f3d752b7b,5f5a355b84c0b1096a994552,2,,,,,,dart,,,,,,0,31,31,8,1,1,2,,,,,,,,,,,,,,,,,,,,,,,,,,,,,,,,,,,,,,,,,,,,,,,,,,,,,,,,,,,,,,,,,,,,,,,,,,,,,,,,,,,,,,,,,,,,,,,,,,,,,,,,,,,,,
,,,,,,,,,,stimuli/images/PICTURE_95.png,NIGHT,5efb2e99f4926b0467487421,30/05/1953,2020-09-10_15h22.21.394,proactive3.1,2020.1.2,Win32,60,5f599a131af4471f3d752b7b,5f5a355b84c0b1096a994552,2,,,,,,suitcase,,,,,,0,32,32,37,1,4,2,,,,,,,,,,,,,,,,,,,,,,,,,,,,,,,,,,,,,,,,,,,,,,,,,,,,,,,,,,,,,,,,,,,,,,,,,,,,,,,,,,,,,,,,,,,,,,,,,,,,,,,,,,,,,
,,,,,,,,,,stimuli/images/PICTURE_509.png,MILLER,5efb2e99f4926b0467487421,30/05/1953,2020-09-10_15h22.21.394,proactive3.1,2020.1.2,Win32,60,5f599a131af4471f3d752b7b,5f5a355b84c0b1096a994552,2,,,,,,telephone,,,,,,0,33,33,49,1,5,2,,,,,,,,,,,,,,,,,,,,,,,,,,,,,,,,,,,,,,,,,,,,,,,,,,,,,,,,,,,,,,,,,,,,,,,,,,,,,,,,,,,,,,,,,,,,,,,,,,,,,,,,,,,,,
,,,,,,,,,,stimuli/images/PICTURE_509.png,SHOTS,5efb2e99f4926b0467487421,30/05/1953,2020-09-10_15h22.21.394,proactive3.1,2020.1.2,Win32,60,5f599a131af4471f3d752b7b,5f5a355b84c0b1096a994552,2,,,,,,telephone,,,,,,0,34,34,7,1,1,2,,,,,,,,,,,,,,,,,,,,,,,,,,,,,,,,,,,,,,,,,,,,,,,,,,,,,,,,,,,,,,,,,,,,,,,,,,,,,,,,,,,,,,,,,,,,,,,,,,,,,,,,,,,,,
,,,,,,,,,,stimuli/images/PICTURE_708.png,VALLEY,5efb2e99f4926b0467487421,30/05/1953,2020-09-10_15h22.21.394,proactive3.1,2020.1.2,Win32,60,5f599a131af4471f3d752b7b,5f5a355b84c0b1096a994552,2,,,,,,monkey,,,,,,0,35,35,45,1,5,2,,,,,,,,,,,,,,,,,,,,,,,,,,,,,,,,,,,,,,,,,,,,,,,,,,,,,,,,,,,,,,,,,,,,,,,,,,,,,,,,,,,,,,,,,,,,,,,,,,,,,,,,,,,,,
,,,,,,,,,,stimuli/images/PICTURE_405.png,JUNGLE,5efb2e99f4926b0467487421,30/05/1953,2020-09-10_15h22.21.394,proactive3.1,2020.1.2,Win32,60,5f599a131af4471f3d752b7b,5f5a355b84c0b1096a994552,2,,,,,,anchor,,,,,,0,36,36,58,1,6,2,,,,,,,,,,,,,,,,,,,,,,,,,,,,,,,,,,,,,,,,,,,,,,,,,,,,,,,,,,,,,,,,,,,,,,,,,,,,,,,,,,,,,,,,,,,,,,,,,,,,,,,,,,,,,
,,,,,,,,,,stimuli/images/PICTURE_57.png,CANDY,5efb2e99f4926b0467487421,30/05/1953,2020-09-10_15h22.21.394,proactive3.1,2020.1.2,Win32,60,5f599a131af4471f3d752b7b,5f5a355b84c0b1096a994552,2,,,,,,stamp,,,,,,0,37,37,52,1,6,2,,,,,,,,,,,,,,,,,,,,,,,,,,,,,,,,,,,,,,,,,,,,,,,,,,,,,,,,,,,,,,,,,,,,,,,,,,,,,,,,,,,,,,,,,,,,,,,,,,,,,,,,,,,,,
,,,,,,,,,,stimuli/images/PICTURE_2.png,YARD,5efb2e99f4926b0467487421,30/05/1953,2020-09-10_15h22.21.394,proactive3.1,2020.1.2,Win32,60,5f599a131af4471f3d752b7b,5f5a355b84c0b1096a994552,2,,,,,,tyre,,,,,,0,38,38,55,1,6,2,,,,,,,,,,,,,,,,,,,,,,,,,,,,,,,,,,,,,,,,,,,,,,,,,,,,,,,,,,,,,,,,,,,,,,,,,,,,,,,,,,,,,,,,,,,,,,,,,,,,,,,,,,,,,
