consent_key.keys,consent_key.rt,recalled,recalled_rt,recall_acc,example_recall.thisRepN,example_recall.thisTrialN,example_recall.thisN,example_recall.thisIndex,example_recall.ran,file,word,participant,please enter your date of birth (dd/mm/yyyy),date,expName,psychopyVersion,OS,frameRate,STUDY_ID,SESSION_ID,list,prac_learn_study_loop.thisRepN,prac_learn_study_loop.thisTrialN,prac_learn_study_loop.thisN,prac_learn_study_loop.thisIndex,prac_learn_study_loop.ran,image,prac_learn_test_loop.thisRepN,prac_learn_test_loop.thisTrialN,prac_learn_test_loop.thisN,prac_learn_test_loop.thisIndex,prac_learn_test_loop.ran,learn_study_loop.thisRepN,learn_study_loop.thisTrialN,learn_study_loop.thisN,learn_study_loop.thisIndex,learn_study_loop.ran,list_no,block_no,learn_test_loop.thisRepN,learn_test_loop.thisTrialN,learn_test_loop.thisN,learn_test_loop.thisIndex,learn_test_loop.ran,learn_blocks.thisRepN,learn_blocks.thisTrialN,learn_blocks.thisN,learn_blocks.thisIndex,learn_blocks.ran,block_csv,key_resp_13.keys,key_resp_13.rt,learn_blocks_loop.thisRepN,learn_blocks_loop.thisTrialN,learn_blocks_loop.thisN,learn_blocks_loop.thisIndex,learn_blocks_loop.ran,final_learn_test.thisRepN,final_learn_test.thisTrialN,final_learn_test.thisN,final_learn_test.thisIndex,final_learn_test.ran,s_im1,s_im2,s_im3,s_im4,s_im5,s_im6,s_im7,s_im8,s_im1pos,s_im2pos,s_im3pos,s_im4pos,s_im5pos,s_im6pos,s_im7pos,s_im8pos,s_tarright,search_resp.keys,search_resp.rt,search_loop.thisRepN,search_loop.thisTrialN,search_loop.thisN,search_loop.thisIndex,search_loop.ran,prac_wm_search_loop.thisRepN,prac_wm_search_loop.thisTrialN,prac_wm_search_loop.thisN,prac_wm_search_loop.thisIndex,prac_wm_search_loop.ran,prac_wm_test_loop.thisRepN,prac_wm_test_loop.thisTrialN,prac_wm_test_loop.thisN,prac_wm_test_loop.thisIndex,prac_wm_test_loop.ran,wm_recalled1,wm_recall_rt1,wm_probed1,wm_recall_acc1,wm_recalled2,wm_recall_rt2,wm_probed2,wm_recall_acc2,wm_recalled3,wm_recall_rt3,wm_probed3,wm_recall_acc3,wm_recalled4,wm_recall_rt4,wm_probed4,wm_recall_acc4,prac_wm_trial_loop.thisRepN,prac_wm_trial_loop.thisTrialN,prac_wm_trial_loop.thisN,prac_wm_trial_loop.thisIndex,prac_wm_trial_loop.ran,word1,image1,file1,item_type1,word2,image2,file2,item_type2,word4,image4,file4,item_type4,word3,image3,file3,item_type3,wm_search_loop.thisRepN,wm_search_loop.thisTrialN,wm_search_loop.thisN,wm_search_loop.thisIndex,wm_search_loop.ran,wm_test_loop.thisRepN,wm_test_loop.thisTrialN,wm_test_loop.thisN,wm_test_loop.thisIndex,wm_test_loop.ran,wm_trial_loop.thisRepN,wm_trial_loop.thisTrialN,wm_trial_loop.thisN,wm_trial_loop.thisIndex,wm_trial_loop.ran
y,37.8068,TOUGH,3.17336,1,0,0,0,0,1,stimuli/images/PICTURE_747.png,TOUGH,5f04d0572128737a2fda3ce3,29/02/1992,2020-09-02_12h27.49.623,proactive3.1,2020.1.2,MacIntel,60,5f47c29a48bd2a1e651a6eb7,5f4f818380ec780346d06211,4,,,,,,,,,,,,,,,,,,,,,,,,,,,,,,,,,,,,,,,,,,,,,,,,,,,,,,,,,,,,,,,,,,,,,,,,,,,,,,,,,,,,,,,,,,,,,,,,,,,,,,,,,,,,,,,,,,,,,,,,,,,,,,,
,,,,,,,,,,stimuli/images/PICTURE_658.png,DEVIL,5f04d0572128737a2fda3ce3,29/02/1992,2020-09-02_12h27.49.623,proactive3.1,2020.1.2,MacIntel,60,5f47c29a48bd2a1e651a6eb7,5f4f818380ec780346d06211,4,0,0,0,3,1,crow,,,,,,,,,,,,,,,,,,,,,,,,,,,,,,,,,,,,,,,,,,,,,,,,,,,,,,,,,,,,,,,,,,,,,,,,,,,,,,,,,,,,,,,,,,,,,,,,,,,,,,,,,,,,,,,,,,,,,,,,,
,,,,,,,,,,stimuli/images/PICTURE_269.png,GENIUS,5f04d0572128737a2fda3ce3,29/02/1992,2020-09-02_12h27.49.623,proactive3.1,2020.1.2,MacIntel,60,5f47c29a48bd2a1e651a6eb7,5f4f818380ec780346d06211,4,0,1,1,0,1,chameleon,,,,,,,,,,,,,,,,,,,,,,,,,,,,,,,,,,,,,,,,,,,,,,,,,,,,,,,,,,,,,,,,,,,,,,,,,,,,,,,,,,,,,,,,,,,,,,,,,,,,,,,,,,,,,,,,,,,,,,,,,
,,,,,,,,,,stimuli/images/PICTURE_727.png,CELL,5f04d0572128737a2fda3ce3,29/02/1992,2020-09-02_12h27.49.623,proactive3.1,2020.1.2,MacIntel,60,5f47c29a48bd2a1e651a6eb7,5f4f818380ec780346d06211,4,0,2,2,1,1,hose,,,,,,,,,,,,,,,,,,,,,,,,,,,,,,,,,,,,,,,,,,,,,,,,,,,,,,,,,,,,,,,,,,,,,,,,,,,,,,,,,,,,,,,,,,,,,,,,,,,,,,,,,,,,,,,,,,,,,,,,,
,,,,,,,,,,stimuli/images/PICTURE_697.png,KILLER,5f04d0572128737a2fda3ce3,29/02/1992,2020-09-02_12h27.49.623,proactive3.1,2020.1.2,MacIntel,60,5f47c29a48bd2a1e651a6eb7,5f4f818380ec780346d06211,4,0,3,3,4,1,peach,,,,,,,,,,,,,,,,,,,,,,,,,,,,,,,,,,,,,,,,,,,,,,,,,,,,,,,,,,,,,,,,,,,,,,,,,,,,,,,,,,,,,,,,,,,,,,,,,,,,,,,,,,,,,,,,,,,,,,,,,
,,LOSS,2.900265,1,,,,,,stimuli/images/PICTURE_378.png,LOSS,5f04d0572128737a2fda3ce3,29/02/1992,2020-09-02_12h27.49.623,proactive3.1,2020.1.2,MacIntel,60,5f47c29a48bd2a1e651a6eb7,5f4f818380ec780346d06211,4,,,,,,lobster,0,0,0,2,1,,,,,,,,,,,,,,,,,,,,,,,,,,,,,,,,,,,,,,,,,,,,,,,,,,,,,,,,,,,,,,,,,,,,,,,,,,,,,,,,,,,,,,,,,,,,,,,,,,,,,,,,,,,,,,,,,,,,
,,GUN,2.503675,0,,,,,,stimuli/images/PICTURE_727.png,CELL,5f04d0572128737a2fda3ce3,29/02/1992,2020-09-02_12h27.49.623,proactive3.1,2020.1.2,MacIntel,60,5f47c29a48bd2a1e651a6eb7,5f4f818380ec780346d06211,4,,,,,,hose,0,1,1,1,1,,,,,,,,,,,,,,,,,,,,,,,,,,,,,,,,,,,,,,,,,,,,,,,,,,,,,,,,,,,,,,,,,,,,,,,,,,,,,,,,,,,,,,,,,,,,,,,,,,,,,,,,,,,,,,,,,,,,
,,CLEVER,2.20289,0,,,,,,stimuli/images/PICTURE_269.png,GENIUS,5f04d0572128737a2fda3ce3,29/02/1992,2020-09-02_12h27.49.623,proactive3.1,2020.1.2,MacIntel,60,5f47c29a48bd2a1e651a6eb7,5f4f818380ec780346d06211,4,,,,,,chameleon,0,2,2,0,1,,,,,,,,,,,,,,,,,,,,,,,,,,,,,,,,,,,,,,,,,,,,,,,,,,,,,,,,,,,,,,,,,,,,,,,,,,,,,,,,,,,,,,,,,,,,,,,,,,,,,,,,,,,,,,,,,,,,
,,KILLER,2.537985,1,,,,,,stimuli/images/PICTURE_697.png,KILLER,5f04d0572128737a2fda3ce3,29/02/1992,2020-09-02_12h27.49.623,proactive3.1,2020.1.2,MacIntel,60,5f47c29a48bd2a1e651a6eb7,5f4f818380ec780346d06211,4,,,,,,peach,0,3,3,4,1,,,,,,,,,,,,,,,,,,,,,,,,,,,,,,,,,,,,,,,,,,,,,,,,,,,,,,,,,,,,,,,,,,,,,,,,,,,,,,,,,,,,,,,,,,,,,,,,,,,,,,,,,,,,,,,,,,,,
,,CLEVER,3.624275,0,,,,,,stimuli/images/PICTURE_658.png,DEVIL,5f04d0572128737a2fda3ce3,29/02/1992,2020-09-02_12h27.49.623,proactive3.1,2020.1.2,MacIntel,60,5f47c29a48bd2a1e651a6eb7,5f4f818380ec780346d06211,4,,,,,,crow,0,4,4,3,1,,,,,,,,,,,,,,,,,,,,,,,,,,,,,,,,,,,,,,,,,,,,,,,,,,,,,,,,,,,,,,,,,,,,,,,,,,,,,,,,,,,,,,,,,,,,,,,,,,,,,,,,,,,,,,,,,,,,
,,,,,,,,,,stimuli/images/PICTURE_308.png,KIND,5f04d0572128737a2fda3ce3,29/02/1992,2020-09-02_12h27.49.623,proactive3.1,2020.1.2,MacIntel,60,5f47c29a48bd2a1e651a6eb7,5f4f818380ec780346d06211,4,,,,,,dice,,,,,,0,0,0,54,1,6,0,,,,,,,,,,,,,,,,,,,,,,,,,,,,,,,,,,,,,,,,,,,,,,,,,,,,,,,,,,,,,,,,,,,,,,,,,,,,,,,,,,,,,,,,,,,,,,,,,,,,,,,,,,,,,
,,,,,,,,,,stimuli/images/PICTURE_380.png,PHOTO,5f04d0572128737a2fda3ce3,29/02/1992,2020-09-02_12h27.49.623,proactive3.1,2020.1.2,MacIntel,60,5f47c29a48bd2a1e651a6eb7,5f4f818380ec780346d06211,4,,,,,,gorilla,,,,,,0,1,1,52,1,6,0,,,,,,,,,,,,,,,,,,,,,,,,,,,,,,,,,,,,,,,,,,,,,,,,,,,,,,,,,,,,,,,,,,,,,,,,,,,,,,,,,,,,,,,,,,,,,,,,,,,,,,,,,,,,,
,,,,,,,,,,stimuli/images/PICTURE_208.png,THING,5f04d0572128737a2fda3ce3,29/02/1992,2020-09-02_12h27.49.623,proactive3.1,2020.1.2,MacIntel,60,5f47c29a48bd2a1e651a6eb7,5f4f818380ec780346d06211,4,,,,,,microphone,,,,,,0,2,2,47,1,5,0,,,,,,,,,,,,,,,,,,,,,,,,,,,,,,,,,,,,,,,,,,,,,,,,,,,,,,,,,,,,,,,,,,,,,,,,,,,,,,,,,,,,,,,,,,,,,,,,,,,,,,,,,,,,,
,,,,,,,,,,stimuli/images/PICTURE_314.png,SAKE,5f04d0572128737a2fda3ce3,29/02/1992,2020-09-02_12h27.49.623,proactive3.1,2020.1.2,MacIntel,60,5f47c29a48bd2a1e651a6eb7,5f4f818380ec780346d06211,4,,,,,,perfume,,,,,,0,3,3,7,1,1,0,,,,,,,,,,,,,,,,,,,,,,,,,,,,,,,,,,,,,,,,,,,,,,,,,,,,,,,,,,,,,,,,,,,,,,,,,,,,,,,,,,,,,,,,,,,,,,,,,,,,,,,,,,,,,
,,,,,,,,,,stimuli/images/PICTURE_233.png,WOMEN,5f04d0572128737a2fda3ce3,29/02/1992,2020-09-02_12h27.49.623,proactive3.1,2020.1.2,MacIntel,60,5f47c29a48bd2a1e651a6eb7,5f4f818380ec780346d06211,4,,,,,,salt,,,,,,0,4,4,38,1,4,0,,,,,,,,,,,,,,,,,,,,,,,,,,,,,,,,,,,,,,,,,,,,,,,,,,,,,,,,,,,,,,,,,,,,,,,,,,,,,,,,,,,,,,,,,,,,,,,,,,,,,,,,,,,,,
,,,,,,,,,,stimuli/images/PICTURE_311.png,BEAUTY,5f04d0572128737a2fda3ce3,29/02/1992,2020-09-02_12h27.49.623,proactive3.1,2020.1.2,MacIntel,60,5f47c29a48bd2a1e651a6eb7,5f4f818380ec780346d06211,4,,,,,,razor,,,,,,0,5,5,13,1,2,0,,,,,,,,,,,,,,,,,,,,,,,,,,,,,,,,,,,,,,,,,,,,,,,,,,,,,,,,,,,,,,,,,,,,,,,,,,,,,,,,,,,,,,,,,,,,,,,,,,,,,,,,,,,,,
,,,,,,,,,,stimuli/images/PICTURE_248.png,DOZEN,5f04d0572128737a2fda3ce3,29/02/1992,2020-09-02_12h27.49.623,proactive3.1,2020.1.2,MacIntel,60,5f47c29a48bd2a1e651a6eb7,5f4f818380ec780346d06211,4,,,,,,cart,,,,,,0,6,6,39,1,4,0,,,,,,,,,,,,,,,,,,,,,,,,,,,,,,,,,,,,,,,,,,,,,,,,,,,,,,,,,,,,,,,,,,,,,,,,,,,,,,,,,,,,,,,,,,,,,,,,,,,,,,,,,,,,,
,,,,,,,,,,stimuli/images/PICTURE_177.png,CARS,5f04d0572128737a2fda3ce3,29/02/1992,2020-09-02_12h27.49.623,proactive3.1,2020.1.2,MacIntel,60,5f47c29a48bd2a1e651a6eb7,5f4f818380ec780346d06211,4,,,,,,mushroom,,,,,,0,7,7,35,1,4,0,,,,,,,,,,,,,,,,,,,,,,,,,,,,,,,,,,,,,,,,,,,,,,,,,,,,,,,,,,,,,,,,,,,,,,,,,,,,,,,,,,,,,,,,,,,,,,,,,,,,,,,,,,,,,
,,,,,,,,,,stimuli/images/PICTURE_32.png,JUNGLE,5f04d0572128737a2fda3ce3,29/02/1992,2020-09-02_12h27.49.623,proactive3.1,2020.1.2,MacIntel,60,5f47c29a48bd2a1e651a6eb7,5f4f818380ec780346d06211,4,,,,,,crown,,,,,,0,8,8,45,1,5,0,,,,,,,,,,,,,,,,,,,,,,,,,,,,,,,,,,,,,,,,,,,,,,,,,,,,,,,,,,,,,,,,,,,,,,,,,,,,,,,,,,,,,,,,,,,,,,,,,,,,,,,,,,,,,
,,,,,,,,,,stimuli/images/PICTURE_708.png,PENNY,5f04d0572128737a2fda3ce3,29/02/1992,2020-09-02_12h27.49.623,proactive3.1,2020.1.2,MacIntel,60,5f47c29a48bd2a1e651a6eb7,5f4f818380ec780346d06211,4,,,,,,monkey,,,,,,0,9,9,31,1,4,0,,,,,,,,,,,,,,,,,,,,,,,,,,,,,,,,,,,,,,,,,,,,,,,,,,,,,,,,,,,,,,,,,,,,,,,,,,,,,,,,,,,,,,,,,,,,,,,,,,,,,,,,,,,,,
,,,,,,,,,,stimuli/images/PICTURE_314.png,GODS,5f04d0572128737a2fda3ce3,29/02/1992,2020-09-02_12h27.49.623,proactive3.1,2020.1.2,MacIntel,60,5f47c29a48bd2a1e651a6eb7,5f4f818380ec780346d06211,4,,,,,,perfume,,,,,,0,10,10,11,1,2,0,,,,,,,,,,,,,,,,,,,,,,,,,,,,,,,,,,,,,,,,,,,,,,,,,,,,,,,,,,,,,,,,,,,,,,,,,,,,,,,,,,,,,,,,,,,,,,,,,,,,,,,,,,,,,
,,,,,,,,,,stimuli/images/PICTURE_160.png,FEET,5f04d0572128737a2fda3ce3,29/02/1992,2020-09-02_12h27.49.623,proactive3.1,2020.1.2,MacIntel,60,5f47c29a48bd2a1e651a6eb7,5f4f818380ec780346d06211,4,,,,,,wheelbarrow,,,,,,0,11,11,58,1,6,0,,,,,,,,,,,,,,,,,,,,,,,,,,,,,,,,,,,,,,,,,,,,,,,,,,,,,,,,,,,,,,,,,,,,,,,,,,,,,,,,,,,,,,,,,,,,,,,,,,,,,,,,,,,,,
,,,,,,,,,,stimuli/images/PICTURE_688.png,WOMEN,5f04d0572128737a2fda3ce3,29/02/1992,2020-09-02_12h27.49.623,proactive3.1,2020.1.2,MacIntel,60,5f47c29a48bd2a1e651a6eb7,5f4f818380ec780346d06211,4,,,,,,runner,,,,,,0,12,12,14,1,2,0,,,,,,,,,,,,,,,,,,,,,,,,,,,,,,,,,,,,,,,,,,,,,,,,,,,,,,,,,,,,,,,,,,,,,,,,,,,,,,,,,,,,,,,,,,,,,,,,,,,,,,,,,,,,,
,,,,,,,,,,stimuli/images/PICTURE_688.png,CASINO,5f04d0572128737a2fda3ce3,29/02/1992,2020-09-02_12h27.49.623,proactive3.1,2020.1.2,MacIntel,60,5f47c29a48bd2a1e651a6eb7,5f4f818380ec780346d06211,4,,,,,,runner,,,,,,0,13,13,2,1,1,0,,,,,,,,,,,,,,,,,,,,,,,,,,,,,,,,,,,,,,,,,,,,,,,,,,,,,,,,,,,,,,,,,,,,,,,,,,,,,,,,,,,,,,,,,,,,,,,,,,,,,,,,,,,,,
,,,,,,,,,,stimuli/images/PICTURE_708.png,YARD,5f04d0572128737a2fda3ce3,29/02/1992,2020-09-02_12h27.49.623,proactive3.1,2020.1.2,MacIntel,60,5f47c29a48bd2a1e651a6eb7,5f4f818380ec780346d06211,4,,,,,,monkey,,,,,,0,14,14,29,1,3,0,,,,,,,,,,,,,,,,,,,,,,,,,,,,,,,,,,,,,,,,,,,,,,,,,,,,,,,,,,,,,,,,,,,,,,,,,,,,,,,,,,,,,,,,,,,,,,,,,,,,,,,,,,,,,
,,,,,,,,,,stimuli/images/PICTURE_123.png,ADVICE,5f04d0572128737a2fda3ce3,29/02/1992,2020-09-02_12h27.49.623,proactive3.1,2020.1.2,MacIntel,60,5f47c29a48bd2a1e651a6eb7,5f4f818380ec780346d06211,4,,,,,,dart,,,,,,0,15,15,50,1,6,0,,,,,,,,,,,,,,,,,,,,,,,,,,,,,,,,,,,,,,,,,,,,,,,,,,,,,,,,,,,,,,,,,,,,,,,,,,,,,,,,,,,,,,,,,,,,,,,,,,,,,,,,,,,,,
,,,,,,,,,,stimuli/images/PICTURE_467.png,DEMON,5f04d0572128737a2fda3ce3,29/02/1992,2020-09-02_12h27.49.623,proactive3.1,2020.1.2,MacIntel,60,5f47c29a48bd2a1e651a6eb7,5f4f818380ec780346d06211,4,,,,,,peg,,,,,,0,16,16,23,1,3,0,,,,,,,,,,,,,,,,,,,,,,,,,,,,,,,,,,,,,,,,,,,,,,,,,,,,,,,,,,,,,,,,,,,,,,,,,,,,,,,,,,,,,,,,,,,,,,,,,,,,,,,,,,,,,
,,,,,,,,,,stimuli/images/PICTURE_85.png,THING,5f04d0572128737a2fda3ce3,29/02/1992,2020-09-02_12h27.49.623,proactive3.1,2020.1.2,MacIntel,60,5f47c29a48bd2a1e651a6eb7,5f4f818380ec780346d06211,4,,,,,,diamond,,,,,,0,17,17,15,1,2,0,,,,,,,,,,,,,,,,,,,,,,,,,,,,,,,,,,,,,,,,,,,,,,,,,,,,,,,,,,,,,,,,,,,,,,,,,,,,,,,,,,,,,,,,,,,,,,,,,,,,,,,,,,,,,
,,,,,,,,,,stimuli/images/PICTURE_667.png,PLENTY,5f04d0572128737a2fda3ce3,29/02/1992,2020-09-02_12h27.49.623,proactive3.1,2020.1.2,MacIntel,60,5f47c29a48bd2a1e651a6eb7,5f4f818380ec780346d06211,4,,,,,,daisy,,,,,,0,18,18,41,1,5,0,,,,,,,,,,,,,,,,,,,,,,,,,,,,,,,,,,,,,,,,,,,,,,,,,,,,,,,,,,,,,,,,,,,,,,,,,,,,,,,,,,,,,,,,,,,,,,,,,,,,,,,,,,,,,
,,,,,,,,,,stimuli/images/PICTURE_327.png,BEAUTY,5f04d0572128737a2fda3ce3,29/02/1992,2020-09-02_12h27.49.623,proactive3.1,2020.1.2,MacIntel,60,5f47c29a48bd2a1e651a6eb7,5f4f818380ec780346d06211,4,,,,,,helmet,,,,,,0,19,19,48,1,5,0,,,,,,,,,,,,,,,,,,,,,,,,,,,,,,,,,,,,,,,,,,,,,,,,,,,,,,,,,,,,,,,,,,,,,,,,,,,,,,,,,,,,,,,,,,,,,,,,,,,,,,,,,,,,,
,,,,,,,,,,stimuli/images/PICTURE_470.png,CASINO,5f04d0572128737a2fda3ce3,29/02/1992,2020-09-02_12h27.49.623,proactive3.1,2020.1.2,MacIntel,60,5f47c29a48bd2a1e651a6eb7,5f4f818380ec780346d06211,4,,,,,,motorbike,,,,,,0,20,20,36,1,4,0,,,,,,,,,,,,,,,,,,,,,,,,,,,,,,,,,,,,,,,,,,,,,,,,,,,,,,,,,,,,,,,,,,,,,,,,,,,,,,,,,,,,,,,,,,,,,,,,,,,,,,,,,,,,,
,,,,,,,,,,stimuli/images/PICTURE_348.png,SPEECH,5f04d0572128737a2fda3ce3,29/02/1992,2020-09-02_12h27.49.623,proactive3.1,2020.1.2,MacIntel,60,5f47c29a48bd2a1e651a6eb7,5f4f818380ec780346d06211,4,,,,,,pepper,,,,,,0,21,21,20,1,3,0,,,,,,,,,,,,,,,,,,,,,,,,,,,,,,,,,,,,,,,,,,,,,,,,,,,,,,,,,,,,,,,,,,,,,,,,,,,,,,,,,,,,,,,,,,,,,,,,,,,,,,,,,,,,,
,,,,,,,,,,stimuli/images/PICTURE_677.png,MILE,5f04d0572128737a2fda3ce3,29/02/1992,2020-09-02_12h27.49.623,proactive3.1,2020.1.2,MacIntel,60,5f47c29a48bd2a1e651a6eb7,5f4f818380ec780346d06211,4,,,,,,map,,,,,,0,22,22,30,1,4,0,,,,,,,,,,,,,,,,,,,,,,,,,,,,,,,,,,,,,,,,,,,,,,,,,,,,,,,,,,,,,,,,,,,,,,,,,,,,,,,,,,,,,,,,,,,,,,,,,,,,,,,,,,,,,
,,,,,,,,,,stimuli/images/PICTURE_667.png,BATH,5f04d0572128737a2fda3ce3,29/02/1992,2020-09-02_12h27.49.623,proactive3.1,2020.1.2,MacIntel,60,5f47c29a48bd2a1e651a6eb7,5f4f818380ec780346d06211,4,,,,,,daisy,,,,,,0,23,23,4,1,1,0,,,,,,,,,,,,,,,,,,,,,,,,,,,,,,,,,,,,,,,,,,,,,,,,,,,,,,,,,,,,,,,,,,,,,,,,,,,,,,,,,,,,,,,,,,,,,,,,,,,,,,,,,,,,,
,,,,,,,,,,stimuli/images/PICTURE_380.png,DEATH,5f04d0572128737a2fda3ce3,29/02/1992,2020-09-02_12h27.49.623,proactive3.1,2020.1.2,MacIntel,60,5f47c29a48bd2a1e651a6eb7,5f4f818380ec780346d06211,4,,,,,,gorilla,,,,,,0,24,24,49,1,5,0,,,,,,,,,,,,,,,,,,,,,,,,,,,,,,,,,,,,,,,,,,,,,,,,,,,,,,,,,,,,,,,,,,,,,,,,,,,,,,,,,,,,,,,,,,,,,,,,,,,,,,,,,,,,,
,,,,,,,,,,stimuli/images/PICTURE_453.png,PLENTY,5f04d0572128737a2fda3ce3,29/02/1992,2020-09-02_12h27.49.623,proactive3.1,2020.1.2,MacIntel,60,5f47c29a48bd2a1e651a6eb7,5f4f818380ec780346d06211,4,,,,,,scissors,,,,,,0,25,25,56,1,6,0,,,,,,,,,,,,,,,,,,,,,,,,,,,,,,,,,,,,,,,,,,,,,,,,,,,,,,,,,,,,,,,,,,,,,,,,,,,,,,,,,,,,,,,,,,,,,,,,,,,,,,,,,,,,,
,,,,,,,,,,stimuli/images/PICTURE_449.png,THING,5f04d0572128737a2fda3ce3,29/02/1992,2020-09-02_12h27.49.623,proactive3.1,2020.1.2,MacIntel,60,5f47c29a48bd2a1e651a6eb7,5f4f818380ec780346d06211,4,,,,,,bench,,,,,,0,26,26,59,1,6,0,,,,,,,,,,,,,,,,,,,,,,,,,,,,,,,,,,,,,,,,,,,,,,,,,,,,,,,,,,,,,,,,,,,,,,,,,,,,,,,,,,,,,,,,,,,,,,,,,,,,,,,,,,,,,
,,,,,,,,,,stimuli/images/PICTURE_233.png,IDEAS,5f04d0572128737a2fda3ce3,29/02/1992,2020-09-02_12h27.49.623,proactive3.1,2020.1.2,MacIntel,60,5f47c29a48bd2a1e651a6eb7,5f4f818380ec780346d06211,4,,,,,,salt,,,,,,0,27,27,28,1,3,0,,,,,,,,,,,,,,,,,,,,,,,,,,,,,,,,,,,,,,,,,,,,,,,,,,,,,,,,,,,,,,,,,,,,,,,,,,,,,,,,,,,,,,,,,,,,,,,,,,,,,,,,,,,,,
,,,,,,,,,,stimuli/images/PICTURE_68.png,MILE,5f04d0572128737a2fda3ce3,29/02/1992,2020-09-02_12h27.49.623,proactive3.1,2020.1.2,MacIntel,60,5f47c29a48bd2a1e651a6eb7,5f4f818380ec780346d06211,4,,,,,,candle,,,,,,0,28,28,44,1,5,0,,,,,,,,,,,,,,,,,,,,,,,,,,,,,,,,,,,,,,,,,,,,,,,,,,,,,,,,,,,,,,,,,,,,,,,,,,,,,,,,,,,,,,,,,,,,,,,,,,,,,,,,,,,,,
,,,,,,,,,,stimuli/images/PICTURE_708.png,CLIENT,5f04d0572128737a2fda3ce3,29/02/1992,2020-09-02_12h27.49.623,proactive3.1,2020.1.2,MacIntel,60,5f47c29a48bd2a1e651a6eb7,5f4f818380ec780346d06211,4,,,,,,monkey,,,,,,0,29,29,5,1,1,0,,,,,,,,,,,,,,,,,,,,,,,,,,,,,,,,,,,,,,,,,,,,,,,,,,,,,,,,,,,,,,,,,,,,,,,,,,,,,,,,,,,,,,,,,,,,,,,,,,,,,,,,,,,,,
,,,,,,,,,,stimuli/images/PICTURE_487.png,FLIGHT,5f04d0572128737a2fda3ce3,29/02/1992,2020-09-02_12h27.49.623,proactive3.1,2020.1.2,MacIntel,60,5f47c29a48bd2a1e651a6eb7,5f4f818380ec780346d06211,4,,,,,,basket,,,,,,0,30,30,9,1,1,0,,,,,,,,,,,,,,,,,,,,,,,,,,,,,,,,,,,,,,,,,,,,,,,,,,,,,,,,,,,,,,,,,,,,,,,,,,,,,,,,,,,,,,,,,,,,,,,,,,,,,,,,,,,,,
,,,,,,,,,,stimuli/images/PICTURE_203.png,ARTIST,5f04d0572128737a2fda3ce3,29/02/1992,2020-09-02_12h27.49.623,proactive3.1,2020.1.2,MacIntel,60,5f47c29a48bd2a1e651a6eb7,5f4f818380ec780346d06211,4,,,,,,cap,,,,,,0,31,31,26,1,3,0,,,,,,,,,,,,,,,,,,,,,,,,,,,,,,,,,,,,,,,,,,,,,,,,,,,,,,,,,,,,,,,,,,,,,,,,,,,,,,,,,,,,,,,,,,,,,,,,,,,,,,,,,,,,,
,,,,,,,,,,stimuli/images/PICTURE_255.png,AREA,5f04d0572128737a2fda3ce3,29/02/1992,2020-09-02_12h27.49.623,proactive3.1,2020.1.2,MacIntel,60,5f47c29a48bd2a1e651a6eb7,5f4f818380ec780346d06211,4,,,,,,shovel,,,,,,0,32,32,22,1,3,0,,,,,,,,,,,,,,,,,,,,,,,,,,,,,,,,,,,,,,,,,,,,,,,,,,,,,,,,,,,,,,,,,,,,,,,,,,,,,,,,,,,,,,,,,,,,,,,,,,,,,,,,,,,,,
,,,,,,,,,,stimuli/images/PICTURE_491.png,ROOF,5f04d0572128737a2fda3ce3,29/02/1992,2020-09-02_12h27.49.623,proactive3.1,2020.1.2,MacIntel,60,5f47c29a48bd2a1e651a6eb7,5f4f818380ec780346d06211,4,,,,,,rug,,,,,,0,33,33,24,1,3,0,,,,,,,,,,,,,,,,,,,,,,,,,,,,,,,,,,,,,,,,,,,,,,,,,,,,,,,,,,,,,,,,,,,,,,,,,,,,,,,,,,,,,,,,,,,,,,,,,,,,,,,,,,,,,
,,,,,,,,,,stimuli/images/PICTURE_339.png,PLENTY,5f04d0572128737a2fda3ce3,29/02/1992,2020-09-02_12h27.49.623,proactive3.1,2020.1.2,MacIntel,60,5f47c29a48bd2a1e651a6eb7,5f4f818380ec780346d06211,4,,,,,,backpack,,,,,,0,34,34,0,1,1,0,,,,,,,,,,,,,,,,,,,,,,,,,,,,,,,,,,,,,,,,,,,,,,,,,,,,,,,,,,,,,,,,,,,,,,,,,,,,,,,,,,,,,,,,,,,,,,,,,,,,,,,,,,,,,
,,,,,,,,,,stimuli/images/PICTURE_488.png,STYLE,5f04d0572128737a2fda3ce3,29/02/1992,2020-09-02_12h27.49.623,proactive3.1,2020.1.2,MacIntel,60,5f47c29a48bd2a1e651a6eb7,5f4f818380ec780346d06211,4,,,,,,sun,,,,,,0,35,35,33,1,4,0,,,,,,,,,,,,,,,,,,,,,,,,,,,,,,,,,,,,,,,,,,,,,,,,,,,,,,,,,,,,,,,,,,,,,,,,,,,,,,,,,,,,,,,,,,,,,,,,,,,,,,,,,,,,,
,,,,,,,,,,stimuli/images/PICTURE_692.png,MONTH,5f04d0572128737a2fda3ce3,29/02/1992,2020-09-02_12h27.49.623,proactive3.1,2020.1.2,MacIntel,60,5f47c29a48bd2a1e651a6eb7,5f4f818380ec780346d06211,4,,,,,,cherry,,,,,,0,36,36,16,1,2,0,,,,,,,,,,,,,,,,,,,,,,,,,,,,,,,,,,,,,,,,,,,,,,,,,,,,,,,,,,,,,,,,,,,,,,,,,,,,,,,,,,,,,,,,,,,,,,,,,,,,,,,,,,,,,
,,,,,,,,,,stimuli/images/PICTURE_469.png,LETTER,5f04d0572128737a2fda3ce3,29/02/1992,2020-09-02_12h27.49.623,proactive3.1,2020.1.2,MacIntel,60,5f47c29a48bd2a1e651a6eb7,5f4f818380ec780346d06211,4,,,,,,stool,,,,,,0,37,37,42,1,5,0,,,,,,,,,,,,,,,,,,,,,,,,,,,,,,,,,,,,,,,,,,,,,,,,,,,,,,,,,,,,,,,,,,,,,,,,,,,,,,,,,,,,,,,,,,,,,,,,,,,,,,,,,,,,,
,,,,,,,,,,stimuli/images/PICTURE_302.png,FAMILY,5f04d0572128737a2fda3ce3,29/02/1992,2020-09-02_12h27.49.623,proactive3.1,2020.1.2,MacIntel,60,5f47c29a48bd2a1e651a6eb7,5f4f818380ec780346d06211,4,,,,,,taxi,,,,,,0,38,38,18,1,2,0,,,,,,,,,,,,,,,,,,,,,,,,,,,,,,,,,,,,,,,,,,,,,,,,,,,,,,,,,,,,,,,,,,,,,,,,,,,,,,,,,,,,,,,,,,,,,,,,,,,,,,,,,,,,,
,,,,,,,,,,stimuli/images/PICTURE_311.png,FRIEND,5f04d0572128737a2fda3ce3,29/02/1992,2020-09-02_12h27.49.623,proactive3.1,2020.1.2,MacIntel,60,5f47c29a48bd2a1e651a6eb7,5f4f818380ec780346d06211,4,,,,,,razor,,,,,,0,39,39,34,1,4,0,,,,,,,,,,,,,,,,,,,,,,,,,,,,,,,,,,,,,,,,,,,,,,,,,,,,,,,,,,,,,,,,,,,,,,,,,,,,,,,,,,,,,,,,,,,,,,,,,,,,,,,,,,,,,
,,,,,,,,,,stimuli/images/PICTURE_469.png,ARTIST,5f04d0572128737a2fda3ce3,29/02/1992,2020-09-02_12h27.49.623,proactive3.1,2020.1.2,MacIntel,60,5f47c29a48bd2a1e651a6eb7,5f4f818380ec780346d06211,4,,,,,,stool,,,,,,0,40,40,6,1,1,0,,,,,,,,,,,,,,,,,,,,,,,,,,,,,,,,,,,,,,,,,,,,,,,,,,,,,,,,,,,,,,,,,,,,,,,,,,,,,,,,,,,,,,,,,,,,,,,,,,,,,,,,,,,,,
,,,,,,,,,,stimuli/images/PICTURE_654.png,VALLEY,5f04d0572128737a2fda3ce3,29/02/1992,2020-09-02_12h27.49.623,proactive3.1,2020.1.2,MacIntel,60,5f47c29a48bd2a1e651a6eb7,5f4f818380ec780346d06211,4,,,,,,pencil,,,,,,0,41,41,1,1,1,0,,,,,,,,,,,,,,,,,,,,,,,,,,,,,,,,,,,,,,,,,,,,,,,,,,,,,,,,,,,,,,,,,,,,,,,,,,,,,,,,,,,,,,,,,,,,,,,,,,,,,,,,,,,,,
,,,,,,,,,,stimuli/images/PICTURE_208.png,MONTH,5f04d0572128737a2fda3ce3,29/02/1992,2020-09-02_12h27.49.623,proactive3.1,2020.1.2,MacIntel,60,5f47c29a48bd2a1e651a6eb7,5f4f818380ec780346d06211,4,,,,,,microphone,,,,,,0,42,42,53,1,6,0,,,,,,,,,,,,,,,,,,,,,,,,,,,,,,,,,,,,,,,,,,,,,,,,,,,,,,,,,,,,,,,,,,,,,,,,,,,,,,,,,,,,,,,,,,,,,,,,,,,,,,,,,,,,,
,,,,,,,,,,stimuli/images/PICTURE_509.png,PHOTO,5f04d0572128737a2fda3ce3,29/02/1992,2020-09-02_12h27.49.623,proactive3.1,2020.1.2,MacIntel,60,5f47c29a48bd2a1e651a6eb7,5f4f818380ec780346d06211,4,,,,,,telephone,,,,,,0,43,43,21,1,3,0,,,,,,,,,,,,,,,,,,,,,,,,,,,,,,,,,,,,,,,,,,,,,,,,,,,,,,,,,,,,,,,,,,,,,,,,,,,,,,,,,,,,,,,,,,,,,,,,,,,,,,,,,,,,,
,,,,,,,,,,stimuli/images/PICTURE_151.png,GIRL,5f04d0572128737a2fda3ce3,29/02/1992,2020-09-02_12h27.49.623,proactive3.1,2020.1.2,MacIntel,60,5f47c29a48bd2a1e651a6eb7,5f4f818380ec780346d06211,4,,,,,,tray,,,,,,0,44,44,19,1,2,0,,,,,,,,,,,,,,,,,,,,,,,,,,,,,,,,,,,,,,,,,,,,,,,,,,,,,,,,,,,,,,,,,,,,,,,,,,,,,,,,,,,,,,,,,,,,,,,,,,,,,,,,,,,,,
,,,,,,,,,,stimuli/images/PICTURE_744.png,SYSTEM,5f04d0572128737a2fda3ce3,29/02/1992,2020-09-02_12h27.49.623,proactive3.1,2020.1.2,MacIntel,60,5f47c29a48bd2a1e651a6eb7,5f4f818380ec780346d06211,4,,,,,,ring,,,,,,0,45,45,43,1,5,0,,,,,,,,,,,,,,,,,,,,,,,,,,,,,,,,,,,,,,,,,,,,,,,,,,,,,,,,,,,,,,,,,,,,,,,,,,,,,,,,,,,,,,,,,,,,,,,,,,,,,,,,,,,,,
,,,,,,,,,,stimuli/images/PICTURE_308.png,ESTATE,5f04d0572128737a2fda3ce3,29/02/1992,2020-09-02_12h27.49.623,proactive3.1,2020.1.2,MacIntel,60,5f47c29a48bd2a1e651a6eb7,5f4f818380ec780346d06211,4,,,,,,dice,,,,,,0,46,46,46,1,5,0,,,,,,,,,,,,,,,,,,,,,,,,,,,,,,,,,,,,,,,,,,,,,,,,,,,,,,,,,,,,,,,,,,,,,,,,,,,,,,,,,,,,,,,,,,,,,,,,,,,,,,,,,,,,,
,,,,,,,,,,stimuli/images/PICTURE_504.png,BODY,5f04d0572128737a2fda3ce3,29/02/1992,2020-09-02_12h27.49.623,proactive3.1,2020.1.2,MacIntel,60,5f47c29a48bd2a1e651a6eb7,5f4f818380ec780346d06211,4,,,,,,wheel,,,,,,0,47,47,8,1,1,0,,,,,,,,,,,,,,,,,,,,,,,,,,,,,,,,,,,,,,,,,,,,,,,,,,,,,,,,,,,,,,,,,,,,,,,,,,,,,,,,,,,,,,,,,,,,,,,,,,,,,,,,,,,,,
,,,,,,,,,,stimuli/images/PICTURE_453.png,DUDE,5f04d0572128737a2fda3ce3,29/02/1992,2020-09-02_12h27.49.623,proactive3.1,2020.1.2,MacIntel,60,5f47c29a48bd2a1e651a6eb7,5f4f818380ec780346d06211,4,,,,,,scissors,,,,,,0,48,48,27,1,3,0,,,,,,,,,,,,,,,,,,,,,,,,,,,,,,,,,,,,,,,,,,,,,,,,,,,,,,,,,,,,,,,,,,,,,,,,,,,,,,,,,,,,,,,,,,,,,,,,,,,,,,,,,,,,,
,,,,,,,,,,stimuli/images/PICTURE_95.png,STYLE,5f04d0572128737a2fda3ce3,29/02/1992,2020-09-02_12h27.49.623,proactive3.1,2020.1.2,MacIntel,60,5f47c29a48bd2a1e651a6eb7,5f4f818380ec780346d06211,4,,,,,,suitcase,,,,,,0,49,49,25,1,3,0,,,,,,,,,,,,,,,,,,,,,,,,,,,,,,,,,,,,,,,,,,,,,,,,,,,,,,,,,,,,,,,,,,,,,,,,,,,,,,,,,,,,,,,,,,,,,,,,,,,,,,,,,,,,,
,,,,,,,,,,stimuli/images/PICTURE_160.png,LEADER,5f04d0572128737a2fda3ce3,29/02/1992,2020-09-02_12h27.49.623,proactive3.1,2020.1.2,MacIntel,60,5f47c29a48bd2a1e651a6eb7,5f4f818380ec780346d06211,4,,,,,,wheelbarrow,,,,,,0,50,50,3,1,1,0,,,,,,,,,,,,,,,,,,,,,,,,,,,,,,,,,,,,,,,,,,,,,,,,,,,,,,,,,,,,,,,,,,,,,,,,,,,,,,,,,,,,,,,,,,,,,,,,,,,,,,,,,,,,,
,,,,,,,,,,stimuli/images/PICTURE_744.png,SAKE,5f04d0572128737a2fda3ce3,29/02/1992,2020-09-02_12h27.49.623,proactive3.1,2020.1.2,MacIntel,60,5f47c29a48bd2a1e651a6eb7,5f4f818380ec780346d06211,4,,,,,,ring,,,,,,0,51,51,17,1,2,0,,,,,,,,,,,,,,,,,,,,,,,,,,,,,,,,,,,,,,,,,,,,,,,,,,,,,,,,,,,,,,,,,,,,,,,,,,,,,,,,,,,,,,,,,,,,,,,,,,,,,,,,,,,,,
,,,,,,,,,,stimuli/images/PICTURE_208.png,LOTS,5f04d0572128737a2fda3ce3,29/02/1992,2020-09-02_12h27.49.623,proactive3.1,2020.1.2,MacIntel,60,5f47c29a48bd2a1e651a6eb7,5f4f818380ec780346d06211,4,,,,,,microphone,,,,,,0,52,52,10,1,2,0,,,,,,,,,,,,,,,,,,,,,,,,,,,,,,,,,,,,,,,,,,,,,,,,,,,,,,,,,,,,,,,,,,,,,,,,,,,,,,,,,,,,,,,,,,,,,,,,,,,,,,,,,,,,,
,,,,,,,,,,stimuli/images/PICTURE_123.png,ADVICE,5f04d0572128737a2fda3ce3,29/02/1992,2020-09-02_12h27.49.623,proactive3.1,2020.1.2,MacIntel,60,5f47c29a48bd2a1e651a6eb7,5f4f818380ec780346d06211,4,,,,,,dart,,,,,,0,53,53,40,1,5,0,,,,,,,,,,,,,,,,,,,,,,,,,,,,,,,,,,,,,,,,,,,,,,,,,,,,,,,,,,,,,,,,,,,,,,,,,,,,,,,,,,,,,,,,,,,,,,,,,,,,,,,,,,,,,
,,,,,,,,,,stimuli/images/PICTURE_147.png,MOMENT,5f04d0572128737a2fda3ce3,29/02/1992,2020-09-02_12h27.49.623,proactive3.1,2020.1.2,MacIntel,60,5f47c29a48bd2a1e651a6eb7,5f4f818380ec780346d06211,4,,,,,,hanger,,,,,,0,54,54,51,1,6,0,,,,,,,,,,,,,,,,,,,,,,,,,,,,,,,,,,,,,,,,,,,,,,,,,,,,,,,,,,,,,,,,,,,,,,,,,,,,,,,,,,,,,,,,,,,,,,,,,,,,,,,,,,,,,
,,,,,,,,,,stimuli/images/PICTURE_285.png,ADVICE,5f04d0572128737a2fda3ce3,29/02/1992,2020-09-02_12h27.49.623,proactive3.1,2020.1.2,MacIntel,60,5f47c29a48bd2a1e651a6eb7,5f4f818380ec780346d06211,4,,,,,,carrot,,,,,,0,55,55,12,1,2,0,,,,,,,,,,,,,,,,,,,,,,,,,,,,,,,,,,,,,,,,,,,,,,,,,,,,,,,,,,,,,,,,,,,,,,,,,,,,,,,,,,,,,,,,,,,,,,,,,,,,,,,,,,,,,
,,,,,,,,,,stimuli/images/PICTURE_356.png,DANGER,5f04d0572128737a2fda3ce3,29/02/1992,2020-09-02_12h27.49.623,proactive3.1,2020.1.2,MacIntel,60,5f47c29a48bd2a1e651a6eb7,5f4f818380ec780346d06211,4,,,,,,pawn,,,,,,0,56,56,55,1,6,0,,,,,,,,,,,,,,,,,,,,,,,,,,,,,,,,,,,,,,,,,,,,,,,,,,,,,,,,,,,,,,,,,,,,,,,,,,,,,,,,,,,,,,,,,,,,,,,,,,,,,,,,,,,,,
,,,,,,,,,,stimuli/images/PICTURE_675.png,WEAPON,5f04d0572128737a2fda3ce3,29/02/1992,2020-09-02_12h27.49.623,proactive3.1,2020.1.2,MacIntel,60,5f47c29a48bd2a1e651a6eb7,5f4f818380ec780346d06211,4,,,,,,windmill,,,,,,0,57,57,32,1,4,0,,,,,,,,,,,,,,,,,,,,,,,,,,,,,,,,,,,,,,,,,,,,,,,,,,,,,,,,,,,,,,,,,,,,,,,,,,,,,,,,,,,,,,,,,,,,,,,,,,,,,,,,,,,,,
,,,,,,,,,,stimuli/images/PICTURE_215.png,PLENTY,5f04d0572128737a2fda3ce3,29/02/1992,2020-09-02_12h27.49.623,proactive3.1,2020.1.2,MacIntel,60,5f47c29a48bd2a1e651a6eb7,5f4f818380ec780346d06211,4,,,,,,boot,,,,,,0,58,58,37,1,4,0,,,,,,,,,,,,,,,,,,,,,,,,,,,,,,,,,,,,,,,,,,,,,,,,,,,,,,,,,,,,,,,,,,,,,,,,,,,,,,,,,,,,,,,,,,,,,,,,,,,,,,,,,,,,,
,,?,0.00136,0,,,,,,stimuli/images/PICTURE_123.png,ADVICE,5f04d0572128737a2fda3ce3,29/02/1992,2020-09-02_12h27.49.623,proactive3.1,2020.1.2,MacIntel,60,5f47c29a48bd2a1e651a6eb7,5f4f818380ec780346d06211,4,,,,,,dart,,,,,,,,,,,5,0,0,0,0,40,1,,,,,,,,,,,,,,,,,,,,,,,,,,,,,,,,,,,,,,,,,,,,,,,,,,,,,,,,,,,,,,,,,,,,,,,,,,,,,,,,,,,,,,,,,,,,,,,,,,,,,,,,
,,?,0.001295,0,,,,,,stimuli/images/PICTURE_339.png,PLENTY,5f04d0572128737a2fda3ce3,29/02/1992,2020-09-02_12h27.49.623,proactive3.1,2020.1.2,MacIntel,60,5f47c29a48bd2a1e651a6eb7,5f4f818380ec780346d06211,4,,,,,,backpack,,,,,,,,,,,1,0,0,1,1,0,1,,,,,,,,,,,,,,,,,,,,,,,,,,,,,,,,,,,,,,,,,,,,,,,,,,,,,,,,,,,,,,,,,,,,,,,,,,,,,,,,,,,,,,,,,,,,,,,,,,,,,,,,
,,?,0.00112,0,,,,,,stimuli/images/PICTURE_708.png,CLIENT,5f04d0572128737a2fda3ce3,29/02/1992,2020-09-02_12h27.49.623,proactive3.1,2020.1.2,MacIntel,60,5f47c29a48bd2a1e651a6eb7,5f4f818380ec780346d06211,4,,,,,,monkey,,,,,,,,,,,1,0,0,2,2,5,1,,,,,,,,,,,,,,,,,,,,,,,,,,,,,,,,,,,,,,,,,,,,,,,,,,,,,,,,,,,,,,,,,,,,,,,,,,,,,,,,,,,,,,,,,,,,,,,,,,,,,,,,
,,?,0.001055,0,,,,,,stimuli/images/PICTURE_151.png,GIRL,5f04d0572128737a2fda3ce3,29/02/1992,2020-09-02_12h27.49.623,proactive3.1,2020.1.2,MacIntel,60,5f47c29a48bd2a1e651a6eb7,5f4f818380ec780346d06211,4,,,,,,tray,,,,,,,,,,,2,0,0,3,3,19,1,,,,,,,,,,,,,,,,,,,,,,,,,,,,,,,,,,,,,,,,,,,,,,,,,,,,,,,,,,,,,,,,,,,,,,,,,,,,,,,,,,,,,,,,,,,,,,,,,,,,,,,,
,,CASINO,3.08349,1,,,,,,stimuli/images/PICTURE_470.png,CASINO,5f04d0572128737a2fda3ce3,29/02/1992,2020-09-02_12h27.49.623,proactive3.1,2020.1.2,MacIntel,60,5f47c29a48bd2a1e651a6eb7,5f4f818380ec780346d06211,4,,,,,,motorbike,,,,,,,,,,,4,0,0,4,4,36,1,,,,,,,,,,,,,,,,,,,,,,,,,,,,,,,,,,,,,,,,,,,,,,,,,,,,,,,,,,,,,,,,,,,,,,,,,,,,,,,,,,,,,,,,,,,,,,,,,,,,,,,,
,,WOMEN,2.370355,1,,,,,,stimuli/images/PICTURE_233.png,WOMEN,5f04d0572128737a2fda3ce3,29/02/1992,2020-09-02_12h27.49.623,proactive3.1,2020.1.2,MacIntel,60,5f47c29a48bd2a1e651a6eb7,5f4f818380ec780346d06211,4,,,,,,salt,,,,,,,,,,,4,0,0,5,5,38,1,,,,,,,,,,,,,,,,,,,,,,,,,,,,,,,,,,,,,,,,,,,,,,,,,,,,,,,,,,,,,,,,,,,,,,,,,,,,,,,,,,,,,,,,,,,,,,,,,,,,,,,,
,,DOZEN,2.303755,1,,,,,,stimuli/images/PICTURE_248.png,DOZEN,5f04d0572128737a2fda3ce3,29/02/1992,2020-09-02_12h27.49.623,proactive3.1,2020.1.2,MacIntel,60,5f47c29a48bd2a1e651a6eb7,5f4f818380ec780346d06211,4,,,,,,cart,,,,,,,,,,,4,0,0,6,6,39,1,,,,,,,,,,,,,,,,,,,,,,,,,,,,,,,,,,,,,,,,,,,,,,,,,,,,,,,,,,,,,,,,,,,,,,,,,,,,,,,,,,,,,,,,,,,,,,,,,,,,,,,,
,,?,0.00212,0,,,,,,stimuli/images/PICTURE_85.png,THING,5f04d0572128737a2fda3ce3,29/02/1992,2020-09-02_12h27.49.623,proactive3.1,2020.1.2,MacIntel,60,5f47c29a48bd2a1e651a6eb7,5f4f818380ec780346d06211,4,,,,,,diamond,,,,,,,,,,,2,0,0,7,7,15,1,,,,,,,,,,,,,,,,,,,,,,,,,,,,,,,,,,,,,,,,,,,,,,,,,,,,,,,,,,,,,,,,,,,,,,,,,,,,,,,,,,,,,,,,,,,,,,,,,,,,,,,,
,,?,0.000875,0,,,,,,stimuli/images/PICTURE_95.png,STYLE,5f04d0572128737a2fda3ce3,29/02/1992,2020-09-02_12h27.49.623,proactive3.1,2020.1.2,MacIntel,60,5f47c29a48bd2a1e651a6eb7,5f4f818380ec780346d06211,4,,,,,,suitcase,,,,,,,,,,,3,0,0,8,8,25,1,,,,,,,,,,,,,,,,,,,,,,,,,,,,,,,,,,,,,,,,,,,,,,,,,,,,,,,,,,,,,,,,,,,,,,,,,,,,,,,,,,,,,,,,,,,,,,,,,,,,,,,,
,,?,0.000845,0,,,,,,stimuli/images/PICTURE_208.png,LOTS,5f04d0572128737a2fda3ce3,29/02/1992,2020-09-02_12h27.49.623,proactive3.1,2020.1.2,MacIntel,60,5f47c29a48bd2a1e651a6eb7,5f4f818380ec780346d06211,4,,,,,,microphone,,,,,,,,,,,2,0,0,9,9,10,1,,,,,,,,,,,,,,,,,,,,,,,,,,,,,,,,,,,,,,,,,,,,,,,,,,,,,,,,,,,,,,,,,,,,,,,,,,,,,,,,,,,,,,,,,,,,,,,,,,,,,,,,
,,?,0.000725,0,,,,,,stimuli/images/PICTURE_688.png,WOMEN,5f04d0572128737a2fda3ce3,29/02/1992,2020-09-02_12h27.49.623,proactive3.1,2020.1.2,MacIntel,60,5f47c29a48bd2a1e651a6eb7,5f4f818380ec780346d06211,4,,,,,,runner,,,,,,,,,,,2,0,0,10,10,14,1,,,,,,,,,,,,,,,,,,,,,,,,,,,,,,,,,,,,,,,,,,,,,,,,,,,,,,,,,,,,,,,,,,,,,,,,,,,,,,,,,,,,,,,,,,,,,,,,,,,,,,,,
,,?,0.000825,0,,,,,,stimuli/images/PICTURE_491.png,WRITER,5f04d0572128737a2fda3ce3,29/02/1992,2020-09-02_12h27.49.623,proactive3.1,2020.1.2,MacIntel,60,5f47c29a48bd2a1e651a6eb7,5f4f818380ec780346d06211,4,,,,,,rug,,,,,,,,,,,6,0,0,11,11,57,1,,,,,,,,,,,,,,,,,,,,,,,,,,,,,,,,,,,,,,,,,,,,,,,,,,,,,,,,,,,,,,,,,,,,,,,,,,,,,,,,,,,,,,,,,,,,,,,,,,,,,,,,
,,?,0.0008,0,,,,,,stimuli/images/PICTURE_327.png,BEAUTY,5f04d0572128737a2fda3ce3,29/02/1992,2020-09-02_12h27.49.623,proactive3.1,2020.1.2,MacIntel,60,5f47c29a48bd2a1e651a6eb7,5f4f818380ec780346d06211,4,,,,,,helmet,,,,,,,,,,,5,0,0,12,12,48,1,,,,,,,,,,,,,,,,,,,,,,,,,,,,,,,,,,,,,,,,,,,,,,,,,,,,,,,,,,,,,,,,,,,,,,,,,,,,,,,,,,,,,,,,,,,,,,,,,,,,,,,,
,,?,0.00082,0,,,,,,stimuli/images/PICTURE_32.png,JUNGLE,5f04d0572128737a2fda3ce3,29/02/1992,2020-09-02_12h27.49.623,proactive3.1,2020.1.2,MacIntel,60,5f47c29a48bd2a1e651a6eb7,5f4f818380ec780346d06211,4,,,,,,crown,,,,,,,,,,,5,0,0,13,13,45,1,,,,,,,,,,,,,,,,,,,,,,,,,,,,,,,,,,,,,,,,,,,,,,,,,,,,,,,,,,,,,,,,,,,,,,,,,,,,,,,,,,,,,,,,,,,,,,,,,,,,,,,,
,,MILE,1.671105,1,,,,,,stimuli/images/PICTURE_677.png,MILE,5f04d0572128737a2fda3ce3,29/02/1992,2020-09-02_12h27.49.623,proactive3.1,2020.1.2,MacIntel,60,5f47c29a48bd2a1e651a6eb7,5f4f818380ec780346d06211,4,,,,,,map,,,,,,,,,,,4,0,0,14,14,30,1,,,,,,,,,,,,,,,,,,,,,,,,,,,,,,,,,,,,,,,,,,,,,,,,,,,,,,,,,,,,,,,,,,,,,,,,,,,,,,,,,,,,,,,,,,,,,,,,,,,,,,,,
,,?,0.001385,0,,,,,,stimuli/images/PICTURE_308.png,ESTATE,5f04d0572128737a2fda3ce3,29/02/1992,2020-09-02_12h27.49.623,proactive3.1,2020.1.2,MacIntel,60,5f47c29a48bd2a1e651a6eb7,5f4f818380ec780346d06211,4,,,,,,dice,,,,,,,,,,,5,0,0,15,15,46,1,,,,,,,,,,,,,,,,,,,,,,,,,,,,,,,,,,,,,,,,,,,,,,,,,,,,,,,,,,,,,,,,,,,,,,,,,,,,,,,,,,,,,,,,,,,,,,,,,,,,,,,,
,,?,0.00094,0,,,,,,stimuli/images/PICTURE_348.png,SPEECH,5f04d0572128737a2fda3ce3,29/02/1992,2020-09-02_12h27.49.623,proactive3.1,2020.1.2,MacIntel,60,5f47c29a48bd2a1e651a6eb7,5f4f818380ec780346d06211,4,,,,,,pepper,,,,,,,,,,,3,0,0,16,16,20,1,,,,,,,,,,,,,,,,,,,,,,,,,,,,,,,,,,,,,,,,,,,,,,,,,,,,,,,,,,,,,,,,,,,,,,,,,,,,,,,,,,,,,,,,,,,,,,,,,,,,,,,,
,,MANY,8.14593,0,,,,,,stimuli/images/PICTURE_215.png,PLENTY,5f04d0572128737a2fda3ce3,29/02/1992,2020-09-02_12h27.49.623,proactive3.1,2020.1.2,MacIntel,60,5f47c29a48bd2a1e651a6eb7,5f4f818380ec780346d06211,4,,,,,,boot,,,,,,,,,,,4,0,0,17,17,37,1,,,,,,,,,,,,,,,,,,,,,,,,,,,,,,,,,,,,,,,,,,,,,,,,,,,,,,,,,,,,,,,,,,,,,,,,,,,,,,,,,,,,,,,,,,,,,,,,,,,,,,,,
,,?,0.00136,0,,,,,,stimuli/images/PICTURE_68.png,MILE,5f04d0572128737a2fda3ce3,29/02/1992,2020-09-02_12h27.49.623,proactive3.1,2020.1.2,MacIntel,60,5f47c29a48bd2a1e651a6eb7,5f4f818380ec780346d06211,4,,,,,,candle,,,,,,,,,,,5,0,0,18,18,44,1,,,,,,,,,,,,,,,,,,,,,,,,,,,,,,,,,,,,,,,,,,,,,,,,,,,,,,,,,,,,,,,,,,,,,,,,,,,,,,,,,,,,,,,,,,,,,,,,,,,,,,,,
,,?,0.00089,0,,,,,,stimuli/images/PICTURE_692.png,MONTH,5f04d0572128737a2fda3ce3,29/02/1992,2020-09-02_12h27.49.623,proactive3.1,2020.1.2,MacIntel,60,5f47c29a48bd2a1e651a6eb7,5f4f818380ec780346d06211,4,,,,,,cherry,,,,,,,,,,,2,0,0,19,19,16,1,,,,,,,,,,,,,,,,,,,,,,,,,,,,,,,,,,,,,,,,,,,,,,,,,,,,,,,,,,,,,,,,,,,,,,,,,,,,,,,,,,,,,,,,,,,,,,,,,,,,,,,,
,,FRIEND,3.1845,1,,,,,,stimuli/images/PICTURE_311.png,FRIEND,5f04d0572128737a2fda3ce3,29/02/1992,2020-09-02_12h27.49.623,proactive3.1,2020.1.2,MacIntel,60,5f47c29a48bd2a1e651a6eb7,5f4f818380ec780346d06211,4,,,,,,razor,,,,,,,,,,,4,0,0,20,20,34,1,,,,,,,,,,,,,,,,,,,,,,,,,,,,,,,,,,,,,,,,,,,,,,,,,,,,,,,,,,,,,,,,,,,,,,,,,,,,,,,,,,,,,,,,,,,,,,,,,,,,,,,,
,,?,0.001045,0,,,,,,stimuli/images/PICTURE_208.png,THING,5f04d0572128737a2fda3ce3,29/02/1992,2020-09-02_12h27.49.623,proactive3.1,2020.1.2,MacIntel,60,5f47c29a48bd2a1e651a6eb7,5f4f818380ec780346d06211,4,,,,,,microphone,,,,,,,,,,,5,0,0,21,21,47,1,,,,,,,,,,,,,,,,,,,,,,,,,,,,,,,,,,,,,,,,,,,,,,,,,,,,,,,,,,,,,,,,,,,,,,,,,,,,,,,,,,,,,,,,,,,,,,,,,,,,,,,,
,,?,0.00128,0,,,,,,stimuli/images/PICTURE_255.png,AREA,5f04d0572128737a2fda3ce3,29/02/1992,2020-09-02_12h27.49.623,proactive3.1,2020.1.2,MacIntel,60,5f47c29a48bd2a1e651a6eb7,5f4f818380ec780346d06211,4,,,,,,shovel,,,,,,,,,,,3,0,0,22,22,22,1,,,,,,,,,,,,,,,,,,,,,,,,,,,,,,,,,,,,,,,,,,,,,,,,,,,,,,,,,,,,,,,,,,,,,,,,,,,,,,,,,,,,,,,,,,,,,,,,,,,,,,,,
,,?,0.00073,0,,,,,,stimuli/images/PICTURE_469.png,ARTIST,5f04d0572128737a2fda3ce3,29/02/1992,2020-09-02_12h27.49.623,proactive3.1,2020.1.2,MacIntel,60,5f47c29a48bd2a1e651a6eb7,5f4f818380ec780346d06211,4,,,,,,stool,,,,,,,,,,,1,0,0,23,23,6,1,,,,,,,,,,,,,,,,,,,,,,,,,,,,,,,,,,,,,,,,,,,,,,,,,,,,,,,,,,,,,,,,,,,,,,,,,,,,,,,,,,,,,,,,,,,,,,,,,,,,,,,,
,,?,0.000735,0,,,,,,stimuli/images/PICTURE_504.png,BODY,5f04d0572128737a2fda3ce3,29/02/1992,2020-09-02_12h27.49.623,proactive3.1,2020.1.2,MacIntel,60,5f47c29a48bd2a1e651a6eb7,5f4f818380ec780346d06211,4,,,,,,wheel,,,,,,,,,,,1,0,0,24,24,8,1,,,,,,,,,,,,,,,,,,,,,,,,,,,,,,,,,,,,,,,,,,,,,,,,,,,,,,,,,,,,,,,,,,,,,,,,,,,,,,,,,,,,,,,,,,,,,,,,,,,,,,,,
,,?,0.00088,0,,,,,,stimuli/images/PICTURE_208.png,MONTH,5f04d0572128737a2fda3ce3,29/02/1992,2020-09-02_12h27.49.623,proactive3.1,2020.1.2,MacIntel,60,5f47c29a48bd2a1e651a6eb7,5f4f818380ec780346d06211,4,,,,,,microphone,,,,,,,,,,,6,0,0,25,25,53,1,,,,,,,,,,,,,,,,,,,,,,,,,,,,,,,,,,,,,,,,,,,,,,,,,,,,,,,,,,,,,,,,,,,,,,,,,,,,,,,,,,,,,,,,,,,,,,,,,,,,,,,,
,,STYLE,2.61228,1,,,,,,stimuli/images/PICTURE_488.png,STYLE,5f04d0572128737a2fda3ce3,29/02/1992,2020-09-02_12h27.49.623,proactive3.1,2020.1.2,MacIntel,60,5f47c29a48bd2a1e651a6eb7,5f4f818380ec780346d06211,4,,,,,,sun,,,,,,,,,,,4,0,0,26,26,33,1,,,,,,,,,,,,,,,,,,,,,,,,,,,,,,,,,,,,,,,,,,,,,,,,,,,,,,,,,,,,,,,,,,,,,,,,,,,,,,,,,,,,,,,,,,,,,,,,,,,,,,,,
,,?,0.00092,0,,,,,,stimuli/images/PICTURE_380.png,PHOTO,5f04d0572128737a2fda3ce3,29/02/1992,2020-09-02_12h27.49.623,proactive3.1,2020.1.2,MacIntel,60,5f47c29a48bd2a1e651a6eb7,5f4f818380ec780346d06211,4,,,,,,gorilla,,,,,,,,,,,6,0,0,27,27,52,1,,,,,,,,,,,,,,,,,,,,,,,,,,,,,,,,,,,,,,,,,,,,,,,,,,,,,,,,,,,,,,,,,,,,,,,,,,,,,,,,,,,,,,,,,,,,,,,,,,,,,,,,
,,?,0.000865,0,,,,,,stimuli/images/PICTURE_654.png,VALLEY,5f04d0572128737a2fda3ce3,29/02/1992,2020-09-02_12h27.49.623,proactive3.1,2020.1.2,MacIntel,60,5f47c29a48bd2a1e651a6eb7,5f4f818380ec780346d06211,4,,,,,,pencil,,,,,,,,,,,1,0,0,28,28,1,1,,,,,,,,,,,,,,,,,,,,,,,,,,,,,,,,,,,,,,,,,,,,,,,,,,,,,,,,,,,,,,,,,,,,,,,,,,,,,,,,,,,,,,,,,,,,,,,,,,,,,,,,
,,?,0.000895,0,,,,,,stimuli/images/PICTURE_509.png,PHOTO,5f04d0572128737a2fda3ce3,29/02/1992,2020-09-02_12h27.49.623,proactive3.1,2020.1.2,MacIntel,60,5f47c29a48bd2a1e651a6eb7,5f4f818380ec780346d06211,4,,,,,,telephone,,,,,,,,,,,3,0,0,29,29,21,1,,,,,,,,,,,,,,,,,,,,,,,,,,,,,,,,,,,,,,,,,,,,,,,,,,,,,,,,,,,,,,,,,,,,,,,,,,,,,,,,,,,,,,,,,,,,,,,,,,,,,,,,
,,?,0.000675,0,,,,,,stimuli/images/PICTURE_160.png,LEADER,5f04d0572128737a2fda3ce3,29/02/1992,2020-09-02_12h27.49.623,proactive3.1,2020.1.2,MacIntel,60,5f47c29a48bd2a1e651a6eb7,5f4f818380ec780346d06211,4,,,,,,wheelbarrow,,,,,,,,,,,1,0,0,30,30,3,1,,,,,,,,,,,,,,,,,,,,,,,,,,,,,,,,,,,,,,,,,,,,,,,,,,,,,,,,,,,,,,,,,,,,,,,,,,,,,,,,,,,,,,,,,,,,,,,,,,,,,,,,
,,?,0.00069,0,,,,,,stimuli/images/PICTURE_380.png,DEATH,5f04d0572128737a2fda3ce3,29/02/1992,2020-09-02_12h27.49.623,proactive3.1,2020.1.2,MacIntel,60,5f47c29a48bd2a1e651a6eb7,5f4f818380ec780346d06211,4,,,,,,gorilla,,,,,,,,,,,5,0,0,31,31,49,1,,,,,,,,,,,,,,,,,,,,,,,,,,,,,,,,,,,,,,,,,,,,,,,,,,,,,,,,,,,,,,,,,,,,,,,,,,,,,,,,,,,,,,,,,,,,,,,,,,,,,,,,
,,?,0.00082,0,,,,,,stimuli/images/PICTURE_667.png,BATH,5f04d0572128737a2fda3ce3,29/02/1992,2020-09-02_12h27.49.623,proactive3.1,2020.1.2,MacIntel,60,5f47c29a48bd2a1e651a6eb7,5f4f818380ec780346d06211,4,,,,,,daisy,,,,,,,,,,,1,0,0,32,32,4,1,,,,,,,,,,,,,,,,,,,,,,,,,,,,,,,,,,,,,,,,,,,,,,,,,,,,,,,,,,,,,,,,,,,,,,,,,,,,,,,,,,,,,,,,,,,,,,,,,,,,,,,,
,,?,0.000805,0,,,,,,stimuli/images/PICTURE_708.png,YARD,5f04d0572128737a2fda3ce3,29/02/1992,2020-09-02_12h27.49.623,proactive3.1,2020.1.2,MacIntel,60,5f47c29a48bd2a1e651a6eb7,5f4f818380ec780346d06211,4,,,,,,monkey,,,,,,,,,,,3,0,0,33,33,29,1,,,,,,,,,,,,,,,,,,,,,,,,,,,,,,,,,,,,,,,,,,,,,,,,,,,,,,,,,,,,,,,,,,,,,,,,,,,,,,,,,,,,,,,,,,,,,,,,,,,,,,,,
,,?,0.00084,0,,,,,,stimuli/images/PICTURE_302.png,FAMILY,5f04d0572128737a2fda3ce3,29/02/1992,2020-09-02_12h27.49.623,proactive3.1,2020.1.2,MacIntel,60,5f47c29a48bd2a1e651a6eb7,5f4f818380ec780346d06211,4,,,,,,taxi,,,,,,,,,,,2,0,0,34,34,18,1,,,,,,,,,,,,,,,,,,,,,,,,,,,,,,,,,,,,,,,,,,,,,,,,,,,,,,,,,,,,,,,,,,,,,,,,,,,,,,,,,,,,,,,,,,,,,,,,,,,,,,,,
,,?,0.0008,0,,,,,,stimuli/images/PICTURE_160.png,FEET,5f04d0572128737a2fda3ce3,29/02/1992,2020-09-02_12h27.49.623,proactive3.1,2020.1.2,MacIntel,60,5f47c29a48bd2a1e651a6eb7,5f4f818380ec780346d06211,4,,,,,,wheelbarrow,,,,,,,,,,,6,0,0,35,35,58,1,,,,,,,,,,,,,,,,,,,,,,,,,,,,,,,,,,,,,,,,,,,,,,,,,,,,,,,,,,,,,,,,,,,,,,,,,,,,,,,,,,,,,,,,,,,,,,,,,,,,,,,,
,,?,0.00086,0,,,,,,stimuli/images/PICTURE_314.png,GODS,5f04d0572128737a2fda3ce3,29/02/1992,2020-09-02_12h27.49.623,proactive3.1,2020.1.2,MacIntel,60,5f47c29a48bd2a1e651a6eb7,5f4f818380ec780346d06211,4,,,,,,perfume,,,,,,,,,,,2,0,0,36,36,11,1,,,,,,,,,,,,,,,,,,,,,,,,,,,,,,,,,,,,,,,,,,,,,,,,,,,,,,,,,,,,,,,,,,,,,,,,,,,,,,,,,,,,,,,,,,,,,,,,,,,,,,,,
,,?,0.000805,0,,,,,,stimuli/images/PICTURE_453.png,DUDE,5f04d0572128737a2fda3ce3,29/02/1992,2020-09-02_12h27.49.623,proactive3.1,2020.1.2,MacIntel,60,5f47c29a48bd2a1e651a6eb7,5f4f818380ec780346d06211,4,,,,,,scissors,,,,,,,,,,,3,0,0,37,37,27,1,,,,,,,,,,,,,,,,,,,,,,,,,,,,,,,,,,,,,,,,,,,,,,,,,,,,,,,,,,,,,,,,,,,,,,,,,,,,,,,,,,,,,,,,,,,,,,,,,,,,,,,,
,,?,0.00091,0,,,,,,stimuli/images/PICTURE_491.png,ROOF,5f04d0572128737a2fda3ce3,29/02/1992,2020-09-02_12h27.49.623,proactive3.1,2020.1.2,MacIntel,60,5f47c29a48bd2a1e651a6eb7,5f4f818380ec780346d06211,4,,,,,,rug,,,,,,,,,,,3,0,0,38,38,24,1,,,,,,,,,,,,,,,,,,,,,,,,,,,,,,,,,,,,,,,,,,,,,,,,,,,,,,,,,,,,,,,,,,,,,,,,,,,,,,,,,,,,,,,,,,,,,,,,,,,,,,,,
,,?,0.000845,0,,,,,,stimuli/images/PICTURE_449.png,THING,5f04d0572128737a2fda3ce3,29/02/1992,2020-09-02_12h27.49.623,proactive3.1,2020.1.2,MacIntel,60,5f47c29a48bd2a1e651a6eb7,5f4f818380ec780346d06211,4,,,,,,bench,,,,,,,,,,,6,0,0,39,39,59,1,,,,,,,,,,,,,,,,,,,,,,,,,,,,,,,,,,,,,,,,,,,,,,,,,,,,,,,,,,,,,,,,,,,,,,,,,,,,,,,,,,,,,,,,,,,,,,,,,,,,,,,,
,,?,0.000815,0,,,,,,stimuli/images/PICTURE_285.png,ADVICE,5f04d0572128737a2fda3ce3,29/02/1992,2020-09-02_12h27.49.623,proactive3.1,2020.1.2,MacIntel,60,5f47c29a48bd2a1e651a6eb7,5f4f818380ec780346d06211,4,,,,,,carrot,,,,,,,,,,,2,0,0,40,40,12,1,,,,,,,,,,,,,,,,,,,,,,,,,,,,,,,,,,,,,,,,,,,,,,,,,,,,,,,,,,,,,,,,,,,,,,,,,,,,,,,,,,,,,,,,,,,,,,,,,,,,,,,,
,,?,0.000785,0,,,,,,stimuli/images/PICTURE_123.png,ADVICE,5f04d0572128737a2fda3ce3,29/02/1992,2020-09-02_12h27.49.623,proactive3.1,2020.1.2,MacIntel,60,5f47c29a48bd2a1e651a6eb7,5f4f818380ec780346d06211,4,,,,,,dart,,,,,,,,,,,6,0,0,41,41,50,1,,,,,,,,,,,,,,,,,,,,,,,,,,,,,,,,,,,,,,,,,,,,,,,,,,,,,,,,,,,,,,,,,,,,,,,,,,,,,,,,,,,,,,,,,,,,,,,,,,,,,,,,
,,?,0.000835,0,,,,,,stimuli/images/PICTURE_744.png,SYSTEM,5f04d0572128737a2fda3ce3,29/02/1992,2020-09-02_12h27.49.623,proactive3.1,2020.1.2,MacIntel,60,5f47c29a48bd2a1e651a6eb7,5f4f818380ec780346d06211,4,,,,,,ring,,,,,,,,,,,5,0,0,42,42,43,1,,,,,,,,,,,,,,,,,,,,,,,,,,,,,,,,,,,,,,,,,,,,,,,,,,,,,,,,,,,,,,,,,,,,,,,,,,,,,,,,,,,,,,,,,,,,,,,,,,,,,,,,
,,?,0.000815,0,,,,,,stimuli/images/PICTURE_667.png,PLENTY,5f04d0572128737a2fda3ce3,29/02/1992,2020-09-02_12h27.49.623,proactive3.1,2020.1.2,MacIntel,60,5f47c29a48bd2a1e651a6eb7,5f4f818380ec780346d06211,4,,,,,,daisy,,,,,,,,,,,5,0,0,43,43,41,1,,,,,,,,,,,,,,,,,,,,,,,,,,,,,,,,,,,,,,,,,,,,,,,,,,,,,,,,,,,,,,,,,,,,,,,,,,,,,,,,,,,,,,,,,,,,,,,,,,,,,,,,
,,WEAPON,3.205055,1,,,,,,stimuli/images/PICTURE_675.png,WEAPON,5f04d0572128737a2fda3ce3,29/02/1992,2020-09-02_12h27.49.623,proactive3.1,2020.1.2,MacIntel,60,5f47c29a48bd2a1e651a6eb7,5f4f818380ec780346d06211,4,,,,,,windmill,,,,,,,,,,,4,0,0,44,44,32,1,,,,,,,,,,,,,,,,,,,,,,,,,,,,,,,,,,,,,,,,,,,,,,,,,,,,,,,,,,,,,,,,,,,,,,,,,,,,,,,,,,,,,,,,,,,,,,,,,,,,,,,,
,,?,0.00229,0,,,,,,stimuli/images/PICTURE_233.png,IDEAS,5f04d0572128737a2fda3ce3,29/02/1992,2020-09-02_12h27.49.623,proactive3.1,2020.1.2,MacIntel,60,5f47c29a48bd2a1e651a6eb7,5f4f818380ec780346d06211,4,,,,,,salt,,,,,,,,,,,3,0,0,45,45,28,1,,,,,,,,,,,,,,,,,,,,,,,,,,,,,,,,,,,,,,,,,,,,,,,,,,,,,,,,,,,,,,,,,,,,,,,,,,,,,,,,,,,,,,,,,,,,,,,,,,,,,,,,
,,?,0.00146,0,,,,,,stimuli/images/PICTURE_308.png,KIND,5f04d0572128737a2fda3ce3,29/02/1992,2020-09-02_12h27.49.623,proactive3.1,2020.1.2,MacIntel,60,5f47c29a48bd2a1e651a6eb7,5f4f818380ec780346d06211,4,,,,,,dice,,,,,,,,,,,6,0,0,46,46,54,1,,,,,,,,,,,,,,,,,,,,,,,,,,,,,,,,,,,,,,,,,,,,,,,,,,,,,,,,,,,,,,,,,,,,,,,,,,,,,,,,,,,,,,,,,,,,,,,,,,,,,,,,
,,?,0.00125,0,,,,,,stimuli/images/PICTURE_203.png,ARTIST,5f04d0572128737a2fda3ce3,29/02/1992,2020-09-02_12h27.49.623,proactive3.1,2020.1.2,MacIntel,60,5f47c29a48bd2a1e651a6eb7,5f4f818380ec780346d06211,4,,,,,,cap,,,,,,,,,,,3,0,0,47,47,26,1,,,,,,,,,,,,,,,,,,,,,,,,,,,,,,,,,,,,,,,,,,,,,,,,,,,,,,,,,,,,,,,,,,,,,,,,,,,,,,,,,,,,,,,,,,,,,,,,,,,,,,,,
,,?,0.00109,0,,,,,,stimuli/images/PICTURE_467.png,DEMON,5f04d0572128737a2fda3ce3,29/02/1992,2020-09-02_12h27.49.623,proactive3.1,2020.1.2,MacIntel,60,5f47c29a48bd2a1e651a6eb7,5f4f818380ec780346d06211,4,,,,,,peg,,,,,,,,,,,3,0,0,48,48,23,1,,,,,,,,,,,,,,,,,,,,,,,,,,,,,,,,,,,,,,,,,,,,,,,,,,,,,,,,,,,,,,,,,,,,,,,,,,,,,,,,,,,,,,,,,,,,,,,,,,,,,,,,
,,?,0.00097,0,,,,,,stimuli/images/PICTURE_744.png,SAKE,5f04d0572128737a2fda3ce3,29/02/1992,2020-09-02_12h27.49.623,proactive3.1,2020.1.2,MacIntel,60,5f47c29a48bd2a1e651a6eb7,5f4f818380ec780346d06211,4,,,,,,ring,,,,,,,,,,,2,0,0,49,49,17,1,,,,,,,,,,,,,,,,,,,,,,,,,,,,,,,,,,,,,,,,,,,,,,,,,,,,,,,,,,,,,,,,,,,,,,,,,,,,,,,,,,,,,,,,,,,,,,,,,,,,,,,,
,,?,0.000795,0,,,,,,stimuli/images/PICTURE_688.png,CASINO,5f04d0572128737a2fda3ce3,29/02/1992,2020-09-02_12h27.49.623,proactive3.1,2020.1.2,MacIntel,60,5f47c29a48bd2a1e651a6eb7,5f4f818380ec780346d06211,4,,,,,,runner,,,,,,,,,,,1,0,0,50,50,2,1,,,,,,,,,,,,,,,,,,,,,,,,,,,,,,,,,,,,,,,,,,,,,,,,,,,,,,,,,,,,,,,,,,,,,,,,,,,,,,,,,,,,,,,,,,,,,,,,,,,,,,,,
,,?,0.00078,0,,,,,,stimuli/images/PICTURE_487.png,FLIGHT,5f04d0572128737a2fda3ce3,29/02/1992,2020-09-02_12h27.49.623,proactive3.1,2020.1.2,MacIntel,60,5f47c29a48bd2a1e651a6eb7,5f4f818380ec780346d06211,4,,,,,,basket,,,,,,,,,,,1,0,0,51,51,9,1,,,,,,,,,,,,,,,,,,,,,,,,,,,,,,,,,,,,,,,,,,,,,,,,,,,,,,,,,,,,,,,,,,,,,,,,,,,,,,,,,,,,,,,,,,,,,,,,,,,,,,,,
,,?,0.000815,0,,,,,,stimuli/images/PICTURE_356.png,DANGER,5f04d0572128737a2fda3ce3,29/02/1992,2020-09-02_12h27.49.623,proactive3.1,2020.1.2,MacIntel,60,5f47c29a48bd2a1e651a6eb7,5f4f818380ec780346d06211,4,,,,,,pawn,,,,,,,,,,,6,0,0,52,52,55,1,,,,,,,,,,,,,,,,,,,,,,,,,,,,,,,,,,,,,,,,,,,,,,,,,,,,,,,,,,,,,,,,,,,,,,,,,,,,,,,,,,,,,,,,,,,,,,,,,,,,,,,,
,,?,0.000805,0,,,,,,stimuli/images/PICTURE_453.png,PLENTY,5f04d0572128737a2fda3ce3,29/02/1992,2020-09-02_12h27.49.623,proactive3.1,2020.1.2,MacIntel,60,5f47c29a48bd2a1e651a6eb7,5f4f818380ec780346d06211,4,,,,,,scissors,,,,,,,,,,,6,0,0,53,53,56,1,,,,,,,,,,,,,,,,,,,,,,,,,,,,,,,,,,,,,,,,,,,,,,,,,,,,,,,,,,,,,,,,,,,,,,,,,,,,,,,,,,,,,,,,,,,,,,,,,,,,,,,,
,,DOZEN,5.503515,0,,,,,,stimuli/images/PICTURE_708.png,PENNY,5f04d0572128737a2fda3ce3,29/02/1992,2020-09-02_12h27.49.623,proactive3.1,2020.1.2,MacIntel,60,5f47c29a48bd2a1e651a6eb7,5f4f818380ec780346d06211,4,,,,,,monkey,,,,,,,,,,,4,0,0,54,54,31,1,,,,,,,,,,,,,,,,,,,,,,,,,,,,,,,,,,,,,,,,,,,,,,,,,,,,,,,,,,,,,,,,,,,,,,,,,,,,,,,,,,,,,,,,,,,,,,,,,,,,,,,,
,,CARS,3.055915,1,,,,,,stimuli/images/PICTURE_177.png,CARS,5f04d0572128737a2fda3ce3,29/02/1992,2020-09-02_12h27.49.623,proactive3.1,2020.1.2,MacIntel,60,5f47c29a48bd2a1e651a6eb7,5f4f818380ec780346d06211,4,,,,,,mushroom,,,,,,,,,,,4,0,0,55,55,35,1,,,,,,,,,,,,,,,,,,,,,,,,,,,,,,,,,,,,,,,,,,,,,,,,,,,,,,,,,,,,,,,,,,,,,,,,,,,,,,,,,,,,,,,,,,,,,,,,,,,,,,,,
,,?,0.00152,0,,,,,,stimuli/images/PICTURE_469.png,LETTER,5f04d0572128737a2fda3ce3,29/02/1992,2020-09-02_12h27.49.623,proactive3.1,2020.1.2,MacIntel,60,5f47c29a48bd2a1e651a6eb7,5f4f818380ec780346d06211,4,,,,,,stool,,,,,,,,,,,5,0,0,56,56,42,1,,,,,,,,,,,,,,,,,,,,,,,,,,,,,,,,,,,,,,,,,,,,,,,,,,,,,,,,,,,,,,,,,,,,,,,,,,,,,,,,,,,,,,,,,,,,,,,,,,,,,,,,
,,?,0.000785,0,,,,,,stimuli/images/PICTURE_311.png,BEAUTY,5f04d0572128737a2fda3ce3,29/02/1992,2020-09-02_12h27.49.623,proactive3.1,2020.1.2,MacIntel,60,5f47c29a48bd2a1e651a6eb7,5f4f818380ec780346d06211,4,,,,,,razor,,,,,,,,,,,2,0,0,57,57,13,1,,,,,,,,,,,,,,,,,,,,,,,,,,,,,,,,,,,,,,,,,,,,,,,,,,,,,,,,,,,,,,,,,,,,,,,,,,,,,,,,,,,,,,,,,,,,,,,,,,,,,,,,
,,?,0.00089,0,,,,,,stimuli/images/PICTURE_147.png,MOMENT,5f04d0572128737a2fda3ce3,29/02/1992,2020-09-02_12h27.49.623,proactive3.1,2020.1.2,MacIntel,60,5f47c29a48bd2a1e651a6eb7,5f4f818380ec780346d06211,4,,,,,,hanger,,,,,,,,,,,6,0,0,58,58,51,1,,,,,,,,,,,,,,,,,,,,,,,,,,,,,,,,,,,,,,,,,,,,,,,,,,,,,,,,,,,,,,,,,,,,,,,,,,,,,,,,,,,,,,,,,,,,,,,,,,,,,,,,
,,?,0.000645,0,,,,,,stimuli/images/PICTURE_314.png,SAKE,5f04d0572128737a2fda3ce3,29/02/1992,2020-09-02_12h27.49.623,proactive3.1,2020.1.2,MacIntel,60,5f47c29a48bd2a1e651a6eb7,5f4f818380ec780346d06211,4,,,,,,perfume,,,,,,,,,,,1,0,0,59,59,7,1,,,,,,,,,,,,,,,,,,,,,,,,,,,,,,,,,,,,,,,,,,,,,,,,,,,,,,,,,,,,,,,,,,,,,,,,,,,,,,,,,,,,,,,,,,,,,,,,,,,,,,,,
,,,,,,,,,,,,5f04d0572128737a2fda3ce3,29/02/1992,2020-09-02_12h27.49.623,proactive3.1,2020.1.2,MacIntel,60,5f47c29a48bd2a1e651a6eb7,5f4f818380ec780346d06211,4,,,,,,,,,,,,,,,,,,,,,,,,0,0,0,0,1,stimuli/learn-block1.csv,,,,,,,,,,,,,,,,,,,,,,,,,,,,,,,,,,,,,,,,,,,,,,,,,,,,,,,,,,,,,,,,,,,,,,,,,,,,,,,,,,,,,,,,,,,,,,,,,,
,,,,,,,,,,stimuli/images/PICTURE_340.png,LETTER,5f04d0572128737a2fda3ce3,29/02/1992,2020-09-02_12h27.49.623,proactive3.1,2020.1.2,MacIntel,60,5f47c29a48bd2a1e651a6eb7,5f4f818380ec780346d06211,4,,,,,,mirror,,,,,,0,0,0,24,1,3,1,,,,,,,,,,,,,,,,,,,,,,,,,,,,,,,,,,,,,,,,,,,,,,,,,,,,,,,,,,,,,,,,,,,,,,,,,,,,,,,,,,,,,,,,,,,,,,,,,,,,,,,,,,,,,
,,,,,,,,,,stimuli/images/PICTURE_147.png,WOMEN,5f04d0572128737a2fda3ce3,29/02/1992,2020-09-02_12h27.49.623,proactive3.1,2020.1.2,MacIntel,60,5f47c29a48bd2a1e651a6eb7,5f4f818380ec780346d06211,4,,,,,,hanger,,,,,,0,1,1,7,1,1,1,,,,,,,,,,,,,,,,,,,,,,,,,,,,,,,,,,,,,,,,,,,,,,,,,,,,,,,,,,,,,,,,,,,,,,,,,,,,,,,,,,,,,,,,,,,,,,,,,,,,,,,,,,,,,
,,,,,,,,,,stimuli/images/PICTURE_203.png,GODS,5f04d0572128737a2fda3ce3,29/02/1992,2020-09-02_12h27.49.623,proactive3.1,2020.1.2,MacIntel,60,5f47c29a48bd2a1e651a6eb7,5f4f818380ec780346d06211,4,,,,,,cap,,,,,,0,2,2,30,1,4,1,,,,,,,,,,,,,,,,,,,,,,,,,,,,,,,,,,,,,,,,,,,,,,,,,,,,,,,,,,,,,,,,,,,,,,,,,,,,,,,,,,,,,,,,,,,,,,,,,,,,,,,,,,,,,
,,,,,,,,,,stimuli/images/PICTURE_487.png,GIRL,5f04d0572128737a2fda3ce3,29/02/1992,2020-09-02_12h27.49.623,proactive3.1,2020.1.2,MacIntel,60,5f47c29a48bd2a1e651a6eb7,5f4f818380ec780346d06211,4,,,,,,basket,,,,,,0,3,3,45,1,5,1,,,,,,,,,,,,,,,,,,,,,,,,,,,,,,,,,,,,,,,,,,,,,,,,,,,,,,,,,,,,,,,,,,,,,,,,,,,,,,,,,,,,,,,,,,,,,,,,,,,,,,,,,,,,,
,,,,,,,,,,stimuli/images/PICTURE_68.png,MILE,5f04d0572128737a2fda3ce3,29/02/1992,2020-09-02_12h27.49.623,proactive3.1,2020.1.2,MacIntel,60,5f47c29a48bd2a1e651a6eb7,5f4f818380ec780346d06211,4,,,,,,candle,,,,,,0,4,4,51,1,6,1,,,,,,,,,,,,,,,,,,,,,,,,,,,,,,,,,,,,,,,,,,,,,,,,,,,,,,,,,,,,,,,,,,,,,,,,,,,,,,,,,,,,,,,,,,,,,,,,,,,,,,,,,,,,,
,,,,,,,,,,stimuli/images/PICTURE_327.png,SERIES,5f04d0572128737a2fda3ce3,29/02/1992,2020-09-02_12h27.49.623,proactive3.1,2020.1.2,MacIntel,60,5f47c29a48bd2a1e651a6eb7,5f4f818380ec780346d06211,4,,,,,,helmet,,,,,,0,5,5,3,1,1,1,,,,,,,,,,,,,,,,,,,,,,,,,,,,,,,,,,,,,,,,,,,,,,,,,,,,,,,,,,,,,,,,,,,,,,,,,,,,,,,,,,,,,,,,,,,,,,,,,,,,,,,,,,,,,
,,,,,,,,,,stimuli/images/PICTURE_708.png,RECORD,5f04d0572128737a2fda3ce3,29/02/1992,2020-09-02_12h27.49.623,proactive3.1,2020.1.2,MacIntel,60,5f47c29a48bd2a1e651a6eb7,5f4f818380ec780346d06211,4,,,,,,monkey,,,,,,0,6,6,58,1,6,1,,,,,,,,,,,,,,,,,,,,,,,,,,,,,,,,,,,,,,,,,,,,,,,,,,,,,,,,,,,,,,,,,,,,,,,,,,,,,,,,,,,,,,,,,,,,,,,,,,,,,,,,,,,,,
,,,,,,,,,,stimuli/images/PICTURE_405.png,YEAR,5f04d0572128737a2fda3ce3,29/02/1992,2020-09-02_12h27.49.623,proactive3.1,2020.1.2,MacIntel,60,5f47c29a48bd2a1e651a6eb7,5f4f818380ec780346d06211,4,,,,,,anchor,,,,,,0,7,7,34,1,4,1,,,,,,,,,,,,,,,,,,,,,,,,,,,,,,,,,,,,,,,,,,,,,,,,,,,,,,,,,,,,,,,,,,,,,,,,,,,,,,,,,,,,,,,,,,,,,,,,,,,,,,,,,,,,,
,,,,,,,,,,stimuli/images/PICTURE_108.png,FLIGHT,5f04d0572128737a2fda3ce3,29/02/1992,2020-09-02_12h27.49.623,proactive3.1,2020.1.2,MacIntel,60,5f47c29a48bd2a1e651a6eb7,5f4f818380ec780346d06211,4,,,,,,calendar,,,,,,0,8,8,59,1,6,1,,,,,,,,,,,,,,,,,,,,,,,,,,,,,,,,,,,,,,,,,,,,,,,,,,,,,,,,,,,,,,,,,,,,,,,,,,,,,,,,,,,,,,,,,,,,,,,,,,,,,,,,,,,,,
,,,,,,,,,,stimuli/images/PICTURE_504.png,COPS,5f04d0572128737a2fda3ce3,29/02/1992,2020-09-02_12h27.49.623,proactive3.1,2020.1.2,MacIntel,60,5f47c29a48bd2a1e651a6eb7,5f4f818380ec780346d06211,4,,,,,,wheel,,,,,,0,9,9,52,1,6,1,,,,,,,,,,,,,,,,,,,,,,,,,,,,,,,,,,,,,,,,,,,,,,,,,,,,,,,,,,,,,,,,,,,,,,,,,,,,,,,,,,,,,,,,,,,,,,,,,,,,,,,,,,,,,
,,,,,,,,,,stimuli/images/PICTURE_504.png,YEAR,5f04d0572128737a2fda3ce3,29/02/1992,2020-09-02_12h27.49.623,proactive3.1,2020.1.2,MacIntel,60,5f47c29a48bd2a1e651a6eb7,5f4f818380ec780346d06211,4,,,,,,wheel,,,,,,0,10,10,13,1,2,1,,,,,,,,,,,,,,,,,,,,,,,,,,,,,,,,,,,,,,,,,,,,,,,,,,,,,,,,,,,,,,,,,,,,,,,,,,,,,,,,,,,,,,,,,,,,,,,,,,,,,,,,,,,,,
,,,,,,,,,,stimuli/images/PICTURE_383.png,WRITER,5f04d0572128737a2fda3ce3,29/02/1992,2020-09-02_12h27.49.623,proactive3.1,2020.1.2,MacIntel,60,5f47c29a48bd2a1e651a6eb7,5f4f818380ec780346d06211,4,,,,,,coin,,,,,,0,11,11,28,1,3,1,,,,,,,,,,,,,,,,,,,,,,,,,,,,,,,,,,,,,,,,,,,,,,,,,,,,,,,,,,,,,,,,,,,,,,,,,,,,,,,,,,,,,,,,,,,,,,,,,,,,,,,,,,,,,
,,,,,,,,,,stimuli/images/PICTURE_403.png,RIVER,5f04d0572128737a2fda3ce3,29/02/1992,2020-09-02_12h27.49.623,proactive3.1,2020.1.2,MacIntel,60,5f47c29a48bd2a1e651a6eb7,5f4f818380ec780346d06211,4,,,,,,cathedral,,,,,,0,12,12,40,1,5,1,,,,,,,,,,,,,,,,,,,,,,,,,,,,,,,,,,,,,,,,,,,,,,,,,,,,,,,,,,,,,,,,,,,,,,,,,,,,,,,,,,,,,,,,,,,,,,,,,,,,,,,,,,,,,
,,,,,,,,,,stimuli/images/PICTURE_296.png,LOTS,5f04d0572128737a2fda3ce3,29/02/1992,2020-09-02_12h27.49.623,proactive3.1,2020.1.2,MacIntel,60,5f47c29a48bd2a1e651a6eb7,5f4f818380ec780346d06211,4,,,,,,bolt,,,,,,0,13,13,9,1,1,1,,,,,,,,,,,,,,,,,,,,,,,,,,,,,,,,,,,,,,,,,,,,,,,,,,,,,,,,,,,,,,,,,,,,,,,,,,,,,,,,,,,,,,,,,,,,,,,,,,,,,,,,,,,,,
,,,,,,,,,,stimuli/images/PICTURE_491.png,GLASS,5f04d0572128737a2fda3ce3,29/02/1992,2020-09-02_12h27.49.623,proactive3.1,2020.1.2,MacIntel,60,5f47c29a48bd2a1e651a6eb7,5f4f818380ec780346d06211,4,,,,,,rug,,,,,,0,14,14,14,1,2,1,,,,,,,,,,,,,,,,,,,,,,,,,,,,,,,,,,,,,,,,,,,,,,,,,,,,,,,,,,,,,,,,,,,,,,,,,,,,,,,,,,,,,,,,,,,,,,,,,,,,,,,,,,,,,
,,,,,,,,,,stimuli/images/PICTURE_296.png,LIFE,5f04d0572128737a2fda3ce3,29/02/1992,2020-09-02_12h27.49.623,proactive3.1,2020.1.2,MacIntel,60,5f47c29a48bd2a1e651a6eb7,5f4f818380ec780346d06211,4,,,,,,bolt,,,,,,0,15,15,57,1,6,1,,,,,,,,,,,,,,,,,,,,,,,,,,,,,,,,,,,,,,,,,,,,,,,,,,,,,,,,,,,,,,,,,,,,,,,,,,,,,,,,,,,,,,,,,,,,,,,,,,,,,,,,,,,,,
,,,,,,,,,,stimuli/images/PICTURE_33.png,FRIEND,5f04d0572128737a2fda3ce3,29/02/1992,2020-09-02_12h27.49.623,proactive3.1,2020.1.2,MacIntel,60,5f47c29a48bd2a1e651a6eb7,5f4f818380ec780346d06211,4,,,,,,frame,,,,,,0,16,16,8,1,1,1,,,,,,,,,,,,,,,,,,,,,,,,,,,,,,,,,,,,,,,,,,,,,,,,,,,,,,,,,,,,,,,,,,,,,,,,,,,,,,,,,,,,,,,,,,,,,,,,,,,,,,,,,,,,,
,,,,,,,,,,stimuli/images/PICTURE_68.png,ROOF,5f04d0572128737a2fda3ce3,29/02/1992,2020-09-02_12h27.49.623,proactive3.1,2020.1.2,MacIntel,60,5f47c29a48bd2a1e651a6eb7,5f4f818380ec780346d06211,4,,,,,,candle,,,,,,0,17,17,38,1,4,1,,,,,,,,,,,,,,,,,,,,,,,,,,,,,,,,,,,,,,,,,,,,,,,,,,,,,,,,,,,,,,,,,,,,,,,,,,,,,,,,,,,,,,,,,,,,,,,,,,,,,,,,,,,,,
,,,,,,,,,,stimuli/images/PICTURE_2.png,FLIGHT,5f04d0572128737a2fda3ce3,29/02/1992,2020-09-02_12h27.49.623,proactive3.1,2020.1.2,MacIntel,60,5f47c29a48bd2a1e651a6eb7,5f4f818380ec780346d06211,4,,,,,,tyre,,,,,,0,18,18,15,1,2,1,,,,,,,,,,,,,,,,,,,,,,,,,,,,,,,,,,,,,,,,,,,,,,,,,,,,,,,,,,,,,,,,,,,,,,,,,,,,,,,,,,,,,,,,,,,,,,,,,,,,,,,,,,,,,
,,,,,,,,,,stimuli/images/PICTURE_85.png,NATION,5f04d0572128737a2fda3ce3,29/02/1992,2020-09-02_12h27.49.623,proactive3.1,2020.1.2,MacIntel,60,5f47c29a48bd2a1e651a6eb7,5f4f818380ec780346d06211,4,,,,,,diamond,,,,,,0,19,19,5,1,1,1,,,,,,,,,,,,,,,,,,,,,,,,,,,,,,,,,,,,,,,,,,,,,,,,,,,,,,,,,,,,,,,,,,,,,,,,,,,,,,,,,,,,,,,,,,,,,,,,,,,,,,,,,,,,,
,,,,,,,,,,stimuli/images/PICTURE_95.png,MILLER,5f04d0572128737a2fda3ce3,29/02/1992,2020-09-02_12h27.49.623,proactive3.1,2020.1.2,MacIntel,60,5f47c29a48bd2a1e651a6eb7,5f4f818380ec780346d06211,4,,,,,,suitcase,,,,,,0,20,20,56,1,6,1,,,,,,,,,,,,,,,,,,,,,,,,,,,,,,,,,,,,,,,,,,,,,,,,,,,,,,,,,,,,,,,,,,,,,,,,,,,,,,,,,,,,,,,,,,,,,,,,,,,,,,,,,,,,,
,,,,,,,,,,stimuli/images/PICTURE_208.png,SYSTEM,5f04d0572128737a2fda3ce3,29/02/1992,2020-09-02_12h27.49.623,proactive3.1,2020.1.2,MacIntel,60,5f47c29a48bd2a1e651a6eb7,5f4f818380ec780346d06211,4,,,,,,microphone,,,,,,0,21,21,32,1,4,1,,,,,,,,,,,,,,,,,,,,,,,,,,,,,,,,,,,,,,,,,,,,,,,,,,,,,,,,,,,,,,,,,,,,,,,,,,,,,,,,,,,,,,,,,,,,,,,,,,,,,,,,,,,,,
,,,,,,,,,,stimuli/images/PICTURE_233.png,LOTS,5f04d0572128737a2fda3ce3,29/02/1992,2020-09-02_12h27.49.623,proactive3.1,2020.1.2,MacIntel,60,5f47c29a48bd2a1e651a6eb7,5f4f818380ec780346d06211,4,,,,,,salt,,,,,,0,22,22,42,1,5,1,,,,,,,,,,,,,,,,,,,,,,,,,,,,,,,,,,,,,,,,,,,,,,,,,,,,,,,,,,,,,,,,,,,,,,,,,,,,,,,,,,,,,,,,,,,,,,,,,,,,,,,,,,,,,
,,,,,,,,,,stimuli/images/PICTURE_380.png,CANDY,5f04d0572128737a2fda3ce3,29/02/1992,2020-09-02_12h27.49.623,proactive3.1,2020.1.2,MacIntel,60,5f47c29a48bd2a1e651a6eb7,5f4f818380ec780346d06211,4,,,,,,gorilla,,,,,,0,23,23,0,1,1,1,,,,,,,,,,,,,,,,,,,,,,,,,,,,,,,,,,,,,,,,,,,,,,,,,,,,,,,,,,,,,,,,,,,,,,,,,,,,,,,,,,,,,,,,,,,,,,,,,,,,,,,,,,,,,
,,,,,,,,,,stimuli/images/PICTURE_564.png,BATH,5f04d0572128737a2fda3ce3,29/02/1992,2020-09-02_12h27.49.623,proactive3.1,2020.1.2,MacIntel,60,5f47c29a48bd2a1e651a6eb7,5f4f818380ec780346d06211,4,,,,,,spoon,,,,,,0,24,24,26,1,3,1,,,,,,,,,,,,,,,,,,,,,,,,,,,,,,,,,,,,,,,,,,,,,,,,,,,,,,,,,,,,,,,,,,,,,,,,,,,,,,,,,,,,,,,,,,,,,,,,,,,,,,,,,,,,,
,,,,,,,,,,stimuli/images/PICTURE_285.png,LIFE,5f04d0572128737a2fda3ce3,29/02/1992,2020-09-02_12h27.49.623,proactive3.1,2020.1.2,MacIntel,60,5f47c29a48bd2a1e651a6eb7,5f4f818380ec780346d06211,4,,,,,,carrot,,,,,,0,25,25,33,1,4,1,,,,,,,,,,,,,,,,,,,,,,,,,,,,,,,,,,,,,,,,,,,,,,,,,,,,,,,,,,,,,,,,,,,,,,,,,,,,,,,,,,,,,,,,,,,,,,,,,,,,,,,,,,,,,
,,,,,,,,,,stimuli/images/PICTURE_108.png,POLICY,5f04d0572128737a2fda3ce3,29/02/1992,2020-09-02_12h27.49.623,proactive3.1,2020.1.2,MacIntel,60,5f47c29a48bd2a1e651a6eb7,5f4f818380ec780346d06211,4,,,,,,calendar,,,,,,0,26,26,22,1,3,1,,,,,,,,,,,,,,,,,,,,,,,,,,,,,,,,,,,,,,,,,,,,,,,,,,,,,,,,,,,,,,,,,,,,,,,,,,,,,,,,,,,,,,,,,,,,,,,,,,,,,,,,,,,,,
,,,,,,,,,,stimuli/images/PICTURE_744.png,WEAPON,5f04d0572128737a2fda3ce3,29/02/1992,2020-09-02_12h27.49.623,proactive3.1,2020.1.2,MacIntel,60,5f47c29a48bd2a1e651a6eb7,5f4f818380ec780346d06211,4,,,,,,ring,,,,,,0,27,27,50,1,6,1,,,,,,,,,,,,,,,,,,,,,,,,,,,,,,,,,,,,,,,,,,,,,,,,,,,,,,,,,,,,,,,,,,,,,,,,,,,,,,,,,,,,,,,,,,,,,,,,,,,,,,,,,,,,,
,,,,,,,,,,stimuli/images/PICTURE_340.png,VALLEY,5f04d0572128737a2fda3ce3,29/02/1992,2020-09-02_12h27.49.623,proactive3.1,2020.1.2,MacIntel,60,5f47c29a48bd2a1e651a6eb7,5f4f818380ec780346d06211,4,,,,,,mirror,,,,,,0,28,28,54,1,6,1,,,,,,,,,,,,,,,,,,,,,,,,,,,,,,,,,,,,,,,,,,,,,,,,,,,,,,,,,,,,,,,,,,,,,,,,,,,,,,,,,,,,,,,,,,,,,,,,,,,,,,,,,,,,,
,,,,,,,,,,stimuli/images/PICTURE_655.png,TOILET,5f04d0572128737a2fda3ce3,29/02/1992,2020-09-02_12h27.49.623,proactive3.1,2020.1.2,MacIntel,60,5f47c29a48bd2a1e651a6eb7,5f4f818380ec780346d06211,4,,,,,,megaphone,,,,,,0,29,29,12,1,2,1,,,,,,,,,,,,,,,,,,,,,,,,,,,,,,,,,,,,,,,,,,,,,,,,,,,,,,,,,,,,,,,,,,,,,,,,,,,,,,,,,,,,,,,,,,,,,,,,,,,,,,,,,,,,,
,,,,,,,,,,stimuli/images/PICTURE_405.png,PLENTY,5f04d0572128737a2fda3ce3,29/02/1992,2020-09-02_12h27.49.623,proactive3.1,2020.1.2,MacIntel,60,5f47c29a48bd2a1e651a6eb7,5f4f818380ec780346d06211,4,,,,,,anchor,,,,,,0,30,30,23,1,3,1,,,,,,,,,,,,,,,,,,,,,,,,,,,,,,,,,,,,,,,,,,,,,,,,,,,,,,,,,,,,,,,,,,,,,,,,,,,,,,,,,,,,,,,,,,,,,,,,,,,,,,,,,,,,,
,,,,,,,,,,stimuli/images/PICTURE_469.png,AGENT,5f04d0572128737a2fda3ce3,29/02/1992,2020-09-02_12h27.49.623,proactive3.1,2020.1.2,MacIntel,60,5f47c29a48bd2a1e651a6eb7,5f4f818380ec780346d06211,4,,,,,,stool,,,,,,0,31,31,16,1,2,1,,,,,,,,,,,,,,,,,,,,,,,,,,,,,,,,,,,,,,,,,,,,,,,,,,,,,,,,,,,,,,,,,,,,,,,,,,,,,,,,,,,,,,,,,,,,,,,,,,,,,,,,,,,,,
,,,,,,,,,,stimuli/images/PICTURE_85.png,TOILET,5f04d0572128737a2fda3ce3,29/02/1992,2020-09-02_12h27.49.623,proactive3.1,2020.1.2,MacIntel,60,5f47c29a48bd2a1e651a6eb7,5f4f818380ec780346d06211,4,,,,,,diamond,,,,,,0,32,32,48,1,5,1,,,,,,,,,,,,,,,,,,,,,,,,,,,,,,,,,,,,,,,,,,,,,,,,,,,,,,,,,,,,,,,,,,,,,,,,,,,,,,,,,,,,,,,,,,,,,,,,,,,,,,,,,,,,,
,,,,,,,,,,stimuli/images/PICTURE_677.png,APPLE,5f04d0572128737a2fda3ce3,29/02/1992,2020-09-02_12h27.49.623,proactive3.1,2020.1.2,MacIntel,60,5f47c29a48bd2a1e651a6eb7,5f4f818380ec780346d06211,4,,,,,,map,,,,,,0,33,33,43,1,5,1,,,,,,,,,,,,,,,,,,,,,,,,,,,,,,,,,,,,,,,,,,,,,,,,,,,,,,,,,,,,,,,,,,,,,,,,,,,,,,,,,,,,,,,,,,,,,,,,,,,,,,,,,,,,,
,,,,,,,,,,stimuli/images/PICTURE_297.png,RIVER,5f04d0572128737a2fda3ce3,29/02/1992,2020-09-02_12h27.49.623,proactive3.1,2020.1.2,MacIntel,60,5f47c29a48bd2a1e651a6eb7,5f4f818380ec780346d06211,4,,,,,,aeroplane,,,,,,0,34,34,39,1,4,1,,,,,,,,,,,,,,,,,,,,,,,,,,,,,,,,,,,,,,,,,,,,,,,,,,,,,,,,,,,,,,,,,,,,,,,,,,,,,,,,,,,,,,,,,,,,,,,,,,,,,,,,,,,,,
,,,,,,,,,,stimuli/images/PICTURE_32.png,PILLS,5f04d0572128737a2fda3ce3,29/02/1992,2020-09-02_12h27.49.623,proactive3.1,2020.1.2,MacIntel,60,5f47c29a48bd2a1e651a6eb7,5f4f818380ec780346d06211,4,,,,,,crown,,,,,,0,35,35,18,1,2,1,,,,,,,,,,,,,,,,,,,,,,,,,,,,,,,,,,,,,,,,,,,,,,,,,,,,,,,,,,,,,,,,,,,,,,,,,,,,,,,,,,,,,,,,,,,,,,,,,,,,,,,,,,,,,
,,,,,,,,,,stimuli/images/PICTURE_403.png,WRITER,5f04d0572128737a2fda3ce3,29/02/1992,2020-09-02_12h27.49.623,proactive3.1,2020.1.2,MacIntel,60,5f47c29a48bd2a1e651a6eb7,5f4f818380ec780346d06211,4,,,,,,cathedral,,,,,,0,36,36,31,1,4,1,,,,,,,,,,,,,,,,,,,,,,,,,,,,,,,,,,,,,,,,,,,,,,,,,,,,,,,,,,,,,,,,,,,,,,,,,,,,,,,,,,,,,,,,,,,,,,,,,,,,,,,,,,,,,
,,,,,,,,,,stimuli/images/PICTURE_685.png,PENNY,5f04d0572128737a2fda3ce3,29/02/1992,2020-09-02_12h27.49.623,proactive3.1,2020.1.2,MacIntel,60,5f47c29a48bd2a1e651a6eb7,5f4f818380ec780346d06211,4,,,,,,goose,,,,,,0,37,37,4,1,1,1,,,,,,,,,,,,,,,,,,,,,,,,,,,,,,,,,,,,,,,,,,,,,,,,,,,,,,,,,,,,,,,,,,,,,,,,,,,,,,,,,,,,,,,,,,,,,,,,,,,,,,,,,,,,,
,,,,,,,,,,stimuli/images/PICTURE_380.png,HONEY,5f04d0572128737a2fda3ce3,29/02/1992,2020-09-02_12h27.49.623,proactive3.1,2020.1.2,MacIntel,60,5f47c29a48bd2a1e651a6eb7,5f4f818380ec780346d06211,4,,,,,,gorilla,,,,,,0,38,38,19,1,2,1,,,,,,,,,,,,,,,,,,,,,,,,,,,,,,,,,,,,,,,,,,,,,,,,,,,,,,,,,,,,,,,,,,,,,,,,,,,,,,,,,,,,,,,,,,,,,,,,,,,,,,,,,,,,,
,,,,,,,,,,stimuli/images/PICTURE_95.png,BOYS,5f04d0572128737a2fda3ce3,29/02/1992,2020-09-02_12h27.49.623,proactive3.1,2020.1.2,MacIntel,60,5f47c29a48bd2a1e651a6eb7,5f4f818380ec780346d06211,4,,,,,,suitcase,,,,,,0,39,39,1,1,1,1,,,,,,,,,,,,,,,,,,,,,,,,,,,,,,,,,,,,,,,,,,,,,,,,,,,,,,,,,,,,,,,,,,,,,,,,,,,,,,,,,,,,,,,,,,,,,,,,,,,,,,,,,,,,,
,,,,,,,,,,stimuli/images/PICTURE_667.png,RIVER,5f04d0572128737a2fda3ce3,29/02/1992,2020-09-02_12h27.49.623,proactive3.1,2020.1.2,MacIntel,60,5f47c29a48bd2a1e651a6eb7,5f4f818380ec780346d06211,4,,,,,,daisy,,,,,,0,40,40,10,1,2,1,,,,,,,,,,,,,,,,,,,,,,,,,,,,,,,,,,,,,,,,,,,,,,,,,,,,,,,,,,,,,,,,,,,,,,,,,,,,,,,,,,,,,,,,,,,,,,,,,,,,,,,,,,,,,
,,,,,,,,,,stimuli/images/PICTURE_491.png,RIVER,5f04d0572128737a2fda3ce3,29/02/1992,2020-09-02_12h27.49.623,proactive3.1,2020.1.2,MacIntel,60,5f47c29a48bd2a1e651a6eb7,5f4f818380ec780346d06211,4,,,,,,rug,,,,,,0,41,41,6,1,1,1,,,,,,,,,,,,,,,,,,,,,,,,,,,,,,,,,,,,,,,,,,,,,,,,,,,,,,,,,,,,,,,,,,,,,,,,,,,,,,,,,,,,,,,,,,,,,,,,,,,,,,,,,,,,,
,,,,,,,,,,stimuli/images/PICTURE_147.png,YEAR,5f04d0572128737a2fda3ce3,29/02/1992,2020-09-02_12h27.49.623,proactive3.1,2020.1.2,MacIntel,60,5f47c29a48bd2a1e651a6eb7,5f4f818380ec780346d06211,4,,,,,,hanger,,,,,,0,42,42,21,1,3,1,,,,,,,,,,,,,,,,,,,,,,,,,,,,,,,,,,,,,,,,,,,,,,,,,,,,,,,,,,,,,,,,,,,,,,,,,,,,,,,,,,,,,,,,,,,,,,,,,,,,,,,,,,,,,
,,,,,,,,,,stimuli/images/PICTURE_339.png,CLIENT,5f04d0572128737a2fda3ce3,29/02/1992,2020-09-02_12h27.49.623,proactive3.1,2020.1.2,MacIntel,60,5f47c29a48bd2a1e651a6eb7,5f4f818380ec780346d06211,4,,,,,,backpack,,,,,,0,43,43,11,1,2,1,,,,,,,,,,,,,,,,,,,,,,,,,,,,,,,,,,,,,,,,,,,,,,,,,,,,,,,,,,,,,,,,,,,,,,,,,,,,,,,,,,,,,,,,,,,,,,,,,,,,,,,,,,,,,
,,,,,,,,,,stimuli/images/PICTURE_675.png,SALE,5f04d0572128737a2fda3ce3,29/02/1992,2020-09-02_12h27.49.623,proactive3.1,2020.1.2,MacIntel,60,5f47c29a48bd2a1e651a6eb7,5f4f818380ec780346d06211,4,,,,,,windmill,,,,,,0,44,44,47,1,5,1,,,,,,,,,,,,,,,,,,,,,,,,,,,,,,,,,,,,,,,,,,,,,,,,,,,,,,,,,,,,,,,,,,,,,,,,,,,,,,,,,,,,,,,,,,,,,,,,,,,,,,,,,,,,,
,,,,,,,,,,stimuli/images/PICTURE_42.png,BOYS,5f04d0572128737a2fda3ce3,29/02/1992,2020-09-02_12h27.49.623,proactive3.1,2020.1.2,MacIntel,60,5f47c29a48bd2a1e651a6eb7,5f4f818380ec780346d06211,4,,,,,,pear,,,,,,0,45,45,55,1,6,1,,,,,,,,,,,,,,,,,,,,,,,,,,,,,,,,,,,,,,,,,,,,,,,,,,,,,,,,,,,,,,,,,,,,,,,,,,,,,,,,,,,,,,,,,,,,,,,,,,,,,,,,,,,,,
,,,,,,,,,,stimuli/images/PICTURE_504.png,ARTIST,5f04d0572128737a2fda3ce3,29/02/1992,2020-09-02_12h27.49.623,proactive3.1,2020.1.2,MacIntel,60,5f47c29a48bd2a1e651a6eb7,5f4f818380ec780346d06211,4,,,,,,wheel,,,,,,0,46,46,49,1,5,1,,,,,,,,,,,,,,,,,,,,,,,,,,,,,,,,,,,,,,,,,,,,,,,,,,,,,,,,,,,,,,,,,,,,,,,,,,,,,,,,,,,,,,,,,,,,,,,,,,,,,,,,,,,,,
,,,,,,,,,,stimuli/images/PICTURE_383.png,SERIES,5f04d0572128737a2fda3ce3,29/02/1992,2020-09-02_12h27.49.623,proactive3.1,2020.1.2,MacIntel,60,5f47c29a48bd2a1e651a6eb7,5f4f818380ec780346d06211,4,,,,,,coin,,,,,,0,47,47,46,1,5,1,,,,,,,,,,,,,,,,,,,,,,,,,,,,,,,,,,,,,,,,,,,,,,,,,,,,,,,,,,,,,,,,,,,,,,,,,,,,,,,,,,,,,,,,,,,,,,,,,,,,,,,,,,,,,
,,,,,,,,,,stimuli/images/PICTURE_467.png,POLICY,5f04d0572128737a2fda3ce3,29/02/1992,2020-09-02_12h27.49.623,proactive3.1,2020.1.2,MacIntel,60,5f47c29a48bd2a1e651a6eb7,5f4f818380ec780346d06211,4,,,,,,peg,,,,,,0,48,48,53,1,6,1,,,,,,,,,,,,,,,,,,,,,,,,,,,,,,,,,,,,,,,,,,,,,,,,,,,,,,,,,,,,,,,,,,,,,,,,,,,,,,,,,,,,,,,,,,,,,,,,,,,,,,,,,,,,,
,,,,,,,,,,stimuli/images/PICTURE_177.png,WRITER,5f04d0572128737a2fda3ce3,29/02/1992,2020-09-02_12h27.49.623,proactive3.1,2020.1.2,MacIntel,60,5f47c29a48bd2a1e651a6eb7,5f4f818380ec780346d06211,4,,,,,,mushroom,,,,,,0,49,49,41,1,5,1,,,,,,,,,,,,,,,,,,,,,,,,,,,,,,,,,,,,,,,,,,,,,,,,,,,,,,,,,,,,,,,,,,,,,,,,,,,,,,,,,,,,,,,,,,,,,,,,,,,,,,,,,,,,,
,,,,,,,,,,stimuli/images/PICTURE_57.png,MOMENT,5f04d0572128737a2fda3ce3,29/02/1992,2020-09-02_12h27.49.623,proactive3.1,2020.1.2,MacIntel,60,5f47c29a48bd2a1e651a6eb7,5f4f818380ec780346d06211,4,,,,,,stamp,,,,,,0,50,50,37,1,4,1,,,,,,,,,,,,,,,,,,,,,,,,,,,,,,,,,,,,,,,,,,,,,,,,,,,,,,,,,,,,,,,,,,,,,,,,,,,,,,,,,,,,,,,,,,,,,,,,,,,,,,,,,,,,,
,,,,,,,,,,stimuli/images/PICTURE_308.png,FAMILY,5f04d0572128737a2fda3ce3,29/02/1992,2020-09-02_12h27.49.623,proactive3.1,2020.1.2,MacIntel,60,5f47c29a48bd2a1e651a6eb7,5f4f818380ec780346d06211,4,,,,,,dice,,,,,,0,51,51,36,1,4,1,,,,,,,,,,,,,,,,,,,,,,,,,,,,,,,,,,,,,,,,,,,,,,,,,,,,,,,,,,,,,,,,,,,,,,,,,,,,,,,,,,,,,,,,,,,,,,,,,,,,,,,,,,,,,
,,,,,,,,,,stimuli/images/PICTURE_654.png,MONTH,5f04d0572128737a2fda3ce3,29/02/1992,2020-09-02_12h27.49.623,proactive3.1,2020.1.2,MacIntel,60,5f47c29a48bd2a1e651a6eb7,5f4f818380ec780346d06211,4,,,,,,pencil,,,,,,0,52,52,29,1,3,1,,,,,,,,,,,,,,,,,,,,,,,,,,,,,,,,,,,,,,,,,,,,,,,,,,,,,,,,,,,,,,,,,,,,,,,,,,,,,,,,,,,,,,,,,,,,,,,,,,,,,,,,,,,,,
,,,,,,,,,,stimuli/images/PICTURE_327.png,CASINO,5f04d0572128737a2fda3ce3,29/02/1992,2020-09-02_12h27.49.623,proactive3.1,2020.1.2,MacIntel,60,5f47c29a48bd2a1e651a6eb7,5f4f818380ec780346d06211,4,,,,,,helmet,,,,,,0,53,53,20,1,3,1,,,,,,,,,,,,,,,,,,,,,,,,,,,,,,,,,,,,,,,,,,,,,,,,,,,,,,,,,,,,,,,,,,,,,,,,,,,,,,,,,,,,,,,,,,,,,,,,,,,,,,,,,,,,,
,,,,,,,,,,stimuli/images/PICTURE_95.png,HONEY,5f04d0572128737a2fda3ce3,29/02/1992,2020-09-02_12h27.49.623,proactive3.1,2020.1.2,MacIntel,60,5f47c29a48bd2a1e651a6eb7,5f4f818380ec780346d06211,4,,,,,,suitcase,,,,,,0,54,54,44,1,5,1,,,,,,,,,,,,,,,,,,,,,,,,,,,,,,,,,,,,,,,,,,,,,,,,,,,,,,,,,,,,,,,,,,,,,,,,,,,,,,,,,,,,,,,,,,,,,,,,,,,,,,,,,,,,,
,,,,,,,,,,stimuli/images/PICTURE_449.png,DUDE,5f04d0572128737a2fda3ce3,29/02/1992,2020-09-02_12h27.49.623,proactive3.1,2020.1.2,MacIntel,60,5f47c29a48bd2a1e651a6eb7,5f4f818380ec780346d06211,4,,,,,,bench,,,,,,0,55,55,17,1,2,1,,,,,,,,,,,,,,,,,,,,,,,,,,,,,,,,,,,,,,,,,,,,,,,,,,,,,,,,,,,,,,,,,,,,,,,,,,,,,,,,,,,,,,,,,,,,,,,,,,,,,,,,,,,,,
,,,,,,,,,,stimuli/images/PICTURE_32.png,KIND,5f04d0572128737a2fda3ce3,29/02/1992,2020-09-02_12h27.49.623,proactive3.1,2020.1.2,MacIntel,60,5f47c29a48bd2a1e651a6eb7,5f4f818380ec780346d06211,4,,,,,,crown,,,,,,0,56,56,35,1,4,1,,,,,,,,,,,,,,,,,,,,,,,,,,,,,,,,,,,,,,,,,,,,,,,,,,,,,,,,,,,,,,,,,,,,,,,,,,,,,,,,,,,,,,,,,,,,,,,,,,,,,,,,,,,,,
,,,,,,,,,,stimuli/images/PICTURE_750.png,HOTEL,5f04d0572128737a2fda3ce3,29/02/1992,2020-09-02_12h27.49.623,proactive3.1,2020.1.2,MacIntel,60,5f47c29a48bd2a1e651a6eb7,5f4f818380ec780346d06211,4,,,,,,kettle,,,,,,0,57,57,27,1,3,1,,,,,,,,,,,,,,,,,,,,,,,,,,,,,,,,,,,,,,,,,,,,,,,,,,,,,,,,,,,,,,,,,,,,,,,,,,,,,,,,,,,,,,,,,,,,,,,,,,,,,,,,,,,,,
,,,,,,,,,,stimuli/images/PICTURE_403.png,TOILET,5f04d0572128737a2fda3ce3,29/02/1992,2020-09-02_12h27.49.623,proactive3.1,2020.1.2,MacIntel,60,5f47c29a48bd2a1e651a6eb7,5f4f818380ec780346d06211,4,,,,,,cathedral,,,,,,0,58,58,25,1,3,1,,,,,,,,,,,,,,,,,,,,,,,,,,,,,,,,,,,,,,,,,,,,,,,,,,,,,,,,,,,,,,,,,,,,,,,,,,,,,,,,,,,,,,,,,,,,,,,,,,,,,,,,,,,,,
,,?,0.001095,0,,,,,,stimuli/images/PICTURE_147.png,YEAR,5f04d0572128737a2fda3ce3,29/02/1992,2020-09-02_12h27.49.623,proactive3.1,2020.1.2,MacIntel,60,5f47c29a48bd2a1e651a6eb7,5f4f818380ec780346d06211,4,,,,,,hanger,,,,,,,,,,,3,1,0,0,0,21,1,,,,,,,,,,,,,,,,,,,,,,,,,,,,,,,,,,,,,,,,,,,,,,,,,,,,,,,,,,,,,,,,,,,,,,,,,,,,,,,,,,,,,,,,,,,,,,,,,,,,,,,,
,,?,0.0008,0,,,,,,stimuli/images/PICTURE_685.png,PENNY,5f04d0572128737a2fda3ce3,29/02/1992,2020-09-02_12h27.49.623,proactive3.1,2020.1.2,MacIntel,60,5f47c29a48bd2a1e651a6eb7,5f4f818380ec780346d06211,4,,,,,,goose,,,,,,,,,,,1,1,0,1,1,4,1,,,,,,,,,,,,,,,,,,,,,,,,,,,,,,,,,,,,,,,,,,,,,,,,,,,,,,,,,,,,,,,,,,,,,,,,,,,,,,,,,,,,,,,,,,,,,,,,,,,,,,,,
,,?,0.000775,0,,,,,,stimuli/images/PICTURE_654.png,MONTH,5f04d0572128737a2fda3ce3,29/02/1992,2020-09-02_12h27.49.623,proactive3.1,2020.1.2,MacIntel,60,5f47c29a48bd2a1e651a6eb7,5f4f818380ec780346d06211,4,,,,,,pencil,,,,,,,,,,,3,1,0,2,2,29,1,,,,,,,,,,,,,,,,,,,,,,,,,,,,,,,,,,,,,,,,,,,,,,,,,,,,,,,,,,,,,,,,,,,,,,,,,,,,,,,,,,,,,,,,,,,,,,,,,,,,,,,,
,,?,0.00096,0,,,,,,stimuli/images/PICTURE_380.png,HONEY,5f04d0572128737a2fda3ce3,29/02/1992,2020-09-02_12h27.49.623,proactive3.1,2020.1.2,MacIntel,60,5f47c29a48bd2a1e651a6eb7,5f4f818380ec780346d06211,4,,,,,,gorilla,,,,,,,,,,,2,1,0,3,3,19,1,,,,,,,,,,,,,,,,,,,,,,,,,,,,,,,,,,,,,,,,,,,,,,,,,,,,,,,,,,,,,,,,,,,,,,,,,,,,,,,,,,,,,,,,,,,,,,,,,,,,,,,,
,,?,0.001045,0,,,,,,stimuli/images/PICTURE_504.png,YEAR,5f04d0572128737a2fda3ce3,29/02/1992,2020-09-02_12h27.49.623,proactive3.1,2020.1.2,MacIntel,60,5f47c29a48bd2a1e651a6eb7,5f4f818380ec780346d06211,4,,,,,,wheel,,,,,,,,,,,2,1,0,4,4,13,1,,,,,,,,,,,,,,,,,,,,,,,,,,,,,,,,,,,,,,,,,,,,,,,,,,,,,,,,,,,,,,,,,,,,,,,,,,,,,,,,,,,,,,,,,,,,,,,,,,,,,,,,
,,?,0.000825,0,,,,,,stimuli/images/PICTURE_380.png,CANDY,5f04d0572128737a2fda3ce3,29/02/1992,2020-09-02_12h27.49.623,proactive3.1,2020.1.2,MacIntel,60,5f47c29a48bd2a1e651a6eb7,5f4f818380ec780346d06211,4,,,,,,gorilla,,,,,,,,,,,1,1,0,5,5,0,1,,,,,,,,,,,,,,,,,,,,,,,,,,,,,,,,,,,,,,,,,,,,,,,,,,,,,,,,,,,,,,,,,,,,,,,,,,,,,,,,,,,,,,,,,,,,,,,,,,,,,,,,
,,?,0.00071,0,,,,,,stimuli/images/PICTURE_95.png,HONEY,5f04d0572128737a2fda3ce3,29/02/1992,2020-09-02_12h27.49.623,proactive3.1,2020.1.2,MacIntel,60,5f47c29a48bd2a1e651a6eb7,5f4f818380ec780346d06211,4,,,,,,suitcase,,,,,,,,,,,5,1,0,6,6,44,1,,,,,,,,,,,,,,,,,,,,,,,,,,,,,,,,,,,,,,,,,,,,,,,,,,,,,,,,,,,,,,,,,,,,,,,,,,,,,,,,,,,,,,,,,,,,,,,,,,,,,,,,
,,?,0.00074,0,,,,,,stimuli/images/PICTURE_708.png,RECORD,5f04d0572128737a2fda3ce3,29/02/1992,2020-09-02_12h27.49.623,proactive3.1,2020.1.2,MacIntel,60,5f47c29a48bd2a1e651a6eb7,5f4f818380ec780346d06211,4,,,,,,monkey,,,,,,,,,,,6,1,0,7,7,58,1,,,,,,,,,,,,,,,,,,,,,,,,,,,,,,,,,,,,,,,,,,,,,,,,,,,,,,,,,,,,,,,,,,,,,,,,,,,,,,,,,,,,,,,,,,,,,,,,,,,,,,,,
,,?,0.00066,0,,,,,,stimuli/images/PICTURE_296.png,LIFE,5f04d0572128737a2fda3ce3,29/02/1992,2020-09-02_12h27.49.623,proactive3.1,2020.1.2,MacIntel,60,5f47c29a48bd2a1e651a6eb7,5f4f818380ec780346d06211,4,,,,,,bolt,,,,,,,,,,,6,1,0,8,8,57,1,,,,,,,,,,,,,,,,,,,,,,,,,,,,,,,,,,,,,,,,,,,,,,,,,,,,,,,,,,,,,,,,,,,,,,,,,,,,,,,,,,,,,,,,,,,,,,,,,,,,,,,,
,,?,0.00063,0,,,,,,stimuli/images/PICTURE_677.png,APPLE,5f04d0572128737a2fda3ce3,29/02/1992,2020-09-02_12h27.49.623,proactive3.1,2020.1.2,MacIntel,60,5f47c29a48bd2a1e651a6eb7,5f4f818380ec780346d06211,4,,,,,,map,,,,,,,,,,,5,1,0,9,9,43,1,,,,,,,,,,,,,,,,,,,,,,,,,,,,,,,,,,,,,,,,,,,,,,,,,,,,,,,,,,,,,,,,,,,,,,,,,,,,,,,,,,,,,,,,,,,,,,,,,,,,,,,,
,,?,0.000745,0,,,,,,stimuli/images/PICTURE_85.png,NATION,5f04d0572128737a2fda3ce3,29/02/1992,2020-09-02_12h27.49.623,proactive3.1,2020.1.2,MacIntel,60,5f47c29a48bd2a1e651a6eb7,5f4f818380ec780346d06211,4,,,,,,diamond,,,,,,,,,,,1,1,0,10,10,5,1,,,,,,,,,,,,,,,,,,,,,,,,,,,,,,,,,,,,,,,,,,,,,,,,,,,,,,,,,,,,,,,,,,,,,,,,,,,,,,,,,,,,,,,,,,,,,,,,,,,,,,,,
,,ROOF,1.682765,1,,,,,,stimuli/images/PICTURE_68.png,ROOF,5f04d0572128737a2fda3ce3,29/02/1992,2020-09-02_12h27.49.623,proactive3.1,2020.1.2,MacIntel,60,5f47c29a48bd2a1e651a6eb7,5f4f818380ec780346d06211,4,,,,,,candle,,,,,,,,,,,4,1,0,11,11,38,1,,,,,,,,,,,,,,,,,,,,,,,,,,,,,,,,,,,,,,,,,,,,,,,,,,,,,,,,,,,,,,,,,,,,,,,,,,,,,,,,,,,,,,,,,,,,,,,,,,,,,,,,
,,?,0.002165,0,,,,,,stimuli/images/PICTURE_32.png,PILLS,5f04d0572128737a2fda3ce3,29/02/1992,2020-09-02_12h27.49.623,proactive3.1,2020.1.2,MacIntel,60,5f47c29a48bd2a1e651a6eb7,5f4f818380ec780346d06211,4,,,,,,crown,,,,,,,,,,,2,1,0,12,12,18,1,,,,,,,,,,,,,,,,,,,,,,,,,,,,,,,,,,,,,,,,,,,,,,,,,,,,,,,,,,,,,,,,,,,,,,,,,,,,,,,,,,,,,,,,,,,,,,,,,,,,,,,,
,,?,0.00187,0,,,,,,stimuli/images/PICTURE_33.png,FRIEND,5f04d0572128737a2fda3ce3,29/02/1992,2020-09-02_12h27.49.623,proactive3.1,2020.1.2,MacIntel,60,5f47c29a48bd2a1e651a6eb7,5f4f818380ec780346d06211,4,,,,,,frame,,,,,,,,,,,1,1,0,13,13,8,1,,,,,,,,,,,,,,,,,,,,,,,,,,,,,,,,,,,,,,,,,,,,,,,,,,,,,,,,,,,,,,,,,,,,,,,,,,,,,,,,,,,,,,,,,,,,,,,,,,,,,,,,
,,?,0.0011,0,,,,,,stimuli/images/PICTURE_340.png,VALLEY,5f04d0572128737a2fda3ce3,29/02/1992,2020-09-02_12h27.49.623,proactive3.1,2020.1.2,MacIntel,60,5f47c29a48bd2a1e651a6eb7,5f4f818380ec780346d06211,4,,,,,,mirror,,,,,,,,,,,6,1,0,14,14,54,1,,,,,,,,,,,,,,,,,,,,,,,,,,,,,,,,,,,,,,,,,,,,,,,,,,,,,,,,,,,,,,,,,,,,,,,,,,,,,,,,,,,,,,,,,,,,,,,,,,,,,,,,
,,?,0.001035,0,,,,,,stimuli/images/PICTURE_491.png,GLASS,5f04d0572128737a2fda3ce3,29/02/1992,2020-09-02_12h27.49.623,proactive3.1,2020.1.2,MacIntel,60,5f47c29a48bd2a1e651a6eb7,5f4f818380ec780346d06211,4,,,,,,rug,,,,,,,,,,,2,1,0,15,15,14,1,,,,,,,,,,,,,,,,,,,,,,,,,,,,,,,,,,,,,,,,,,,,,,,,,,,,,,,,,,,,,,,,,,,,,,,,,,,,,,,,,,,,,,,,,,,,,,,,,,,,,,,,
,,?,0.00148,0,,,,,,stimuli/images/PICTURE_405.png,PLENTY,5f04d0572128737a2fda3ce3,29/02/1992,2020-09-02_12h27.49.623,proactive3.1,2020.1.2,MacIntel,60,5f47c29a48bd2a1e651a6eb7,5f4f818380ec780346d06211,4,,,,,,anchor,,,,,,,,,,,3,1,0,16,16,23,1,,,,,,,,,,,,,,,,,,,,,,,,,,,,,,,,,,,,,,,,,,,,,,,,,,,,,,,,,,,,,,,,,,,,,,,,,,,,,,,,,,,,,,,,,,,,,,,,,,,,,,,,
,,?,0.0012,0,,,,,,stimuli/images/PICTURE_383.png,SERIES,5f04d0572128737a2fda3ce3,29/02/1992,2020-09-02_12h27.49.623,proactive3.1,2020.1.2,MacIntel,60,5f47c29a48bd2a1e651a6eb7,5f4f818380ec780346d06211,4,,,,,,coin,,,,,,,,,,,5,1,0,17,17,46,1,,,,,,,,,,,,,,,,,,,,,,,,,,,,,,,,,,,,,,,,,,,,,,,,,,,,,,,,,,,,,,,,,,,,,,,,,,,,,,,,,,,,,,,,,,,,,,,,,,,,,,,,
,,RIVER,1.94889,1,,,,,,stimuli/images/PICTURE_297.png,RIVER,5f04d0572128737a2fda3ce3,29/02/1992,2020-09-02_12h27.49.623,proactive3.1,2020.1.2,MacIntel,60,5f47c29a48bd2a1e651a6eb7,5f4f818380ec780346d06211,4,,,,,,aeroplane,,,,,,,,,,,4,1,0,18,18,39,1,,,,,,,,,,,,,,,,,,,,,,,,,,,,,,,,,,,,,,,,,,,,,,,,,,,,,,,,,,,,,,,,,,,,,,,,,,,,,,,,,,,,,,,,,,,,,,,,,,,,,,,,
,,?,0.00224,0,,,,,,stimuli/images/PICTURE_403.png,TOILET,5f04d0572128737a2fda3ce3,29/02/1992,2020-09-02_12h27.49.623,proactive3.1,2020.1.2,MacIntel,60,5f47c29a48bd2a1e651a6eb7,5f4f818380ec780346d06211,4,,,,,,cathedral,,,,,,,,,,,3,1,0,19,19,25,1,,,,,,,,,,,,,,,,,,,,,,,,,,,,,,,,,,,,,,,,,,,,,,,,,,,,,,,,,,,,,,,,,,,,,,,,,,,,,,,,,,,,,,,,,,,,,,,,,,,,,,,,
,,?,0.001365,0,,,,,,stimuli/images/PICTURE_340.png,LETTER,5f04d0572128737a2fda3ce3,29/02/1992,2020-09-02_12h27.49.623,proactive3.1,2020.1.2,MacIntel,60,5f47c29a48bd2a1e651a6eb7,5f4f818380ec780346d06211,4,,,,,,mirror,,,,,,,,,,,3,1,0,20,20,24,1,,,,,,,,,,,,,,,,,,,,,,,,,,,,,,,,,,,,,,,,,,,,,,,,,,,,,,,,,,,,,,,,,,,,,,,,,,,,,,,,,,,,,,,,,,,,,,,,,,,,,,,,
,,?,0.0011,0,,,,,,stimuli/images/PICTURE_467.png,POLICY,5f04d0572128737a2fda3ce3,29/02/1992,2020-09-02_12h27.49.623,proactive3.1,2020.1.2,MacIntel,60,5f47c29a48bd2a1e651a6eb7,5f4f818380ec780346d06211,4,,,,,,peg,,,,,,,,,,,6,1,0,21,21,53,1,,,,,,,,,,,,,,,,,,,,,,,,,,,,,,,,,,,,,,,,,,,,,,,,,,,,,,,,,,,,,,,,,,,,,,,,,,,,,,,,,,,,,,,,,,,,,,,,,,,,,,,,
,,?,0.00101,0,,,,,,stimuli/images/PICTURE_504.png,COPS,5f04d0572128737a2fda3ce3,29/02/1992,2020-09-02_12h27.49.623,proactive3.1,2020.1.2,MacIntel,60,5f47c29a48bd2a1e651a6eb7,5f4f818380ec780346d06211,4,,,,,,wheel,,,,,,,,,,,6,1,0,22,22,52,1,,,,,,,,,,,,,,,,,,,,,,,,,,,,,,,,,,,,,,,,,,,,,,,,,,,,,,,,,,,,,,,,,,,,,,,,,,,,,,,,,,,,,,,,,,,,,,,,,,,,,,,,
,,?,0.000875,0,,,,,,stimuli/images/PICTURE_449.png,DUDE,5f04d0572128737a2fda3ce3,29/02/1992,2020-09-02_12h27.49.623,proactive3.1,2020.1.2,MacIntel,60,5f47c29a48bd2a1e651a6eb7,5f4f818380ec780346d06211,4,,,,,,bench,,,,,,,,,,,2,1,0,23,23,17,1,,,,,,,,,,,,,,,,,,,,,,,,,,,,,,,,,,,,,,,,,,,,,,,,,,,,,,,,,,,,,,,,,,,,,,,,,,,,,,,,,,,,,,,,,,,,,,,,,,,,,,,,
,,WRITER,2.53888,1,,,,,,stimuli/images/PICTURE_403.png,WRITER,5f04d0572128737a2fda3ce3,29/02/1992,2020-09-02_12h27.49.623,proactive3.1,2020.1.2,MacIntel,60,5f47c29a48bd2a1e651a6eb7,5f4f818380ec780346d06211,4,,,,,,cathedral,,,,,,,,,,,4,1,0,24,24,31,1,,,,,,,,,,,,,,,,,,,,,,,,,,,,,,,,,,,,,,,,,,,,,,,,,,,,,,,,,,,,,,,,,,,,,,,,,,,,,,,,,,,,,,,,,,,,,,,,,,,,,,,,
,,?,0.00213,0,,,,,,stimuli/images/PICTURE_469.png,AGENT,5f04d0572128737a2fda3ce3,29/02/1992,2020-09-02_12h27.49.623,proactive3.1,2020.1.2,MacIntel,60,5f47c29a48bd2a1e651a6eb7,5f4f818380ec780346d06211,4,,,,,,stool,,,,,,,,,,,2,1,0,25,25,16,1,,,,,,,,,,,,,,,,,,,,,,,,,,,,,,,,,,,,,,,,,,,,,,,,,,,,,,,,,,,,,,,,,,,,,,,,,,,,,,,,,,,,,,,,,,,,,,,,,,,,,,,,
,,?,0.001125,0,,,,,,stimuli/images/PICTURE_108.png,FLIGHT,5f04d0572128737a2fda3ce3,29/02/1992,2020-09-02_12h27.49.623,proactive3.1,2020.1.2,MacIntel,60,5f47c29a48bd2a1e651a6eb7,5f4f818380ec780346d06211,4,,,,,,calendar,,,,,,,,,,,6,1,0,26,26,59,1,,,,,,,,,,,,,,,,,,,,,,,,,,,,,,,,,,,,,,,,,,,,,,,,,,,,,,,,,,,,,,,,,,,,,,,,,,,,,,,,,,,,,,,,,,,,,,,,,,,,,,,,
,,?,0.00079,0,,,,,,stimuli/images/PICTURE_504.png,ARTIST,5f04d0572128737a2fda3ce3,29/02/1992,2020-09-02_12h27.49.623,proactive3.1,2020.1.2,MacIntel,60,5f47c29a48bd2a1e651a6eb7,5f4f818380ec780346d06211,4,,,,,,wheel,,,,,,,,,,,5,1,0,27,27,49,1,,,,,,,,,,,,,,,,,,,,,,,,,,,,,,,,,,,,,,,,,,,,,,,,,,,,,,,,,,,,,,,,,,,,,,,,,,,,,,,,,,,,,,,,,,,,,,,,,,,,,,,,
,,?,0.00086,0,,,,,,stimuli/images/PICTURE_327.png,SERIES,5f04d0572128737a2fda3ce3,29/02/1992,2020-09-02_12h27.49.623,proactive3.1,2020.1.2,MacIntel,60,5f47c29a48bd2a1e651a6eb7,5f4f818380ec780346d06211,4,,,,,,helmet,,,,,,,,,,,1,1,0,28,28,3,1,,,,,,,,,,,,,,,,,,,,,,,,,,,,,,,,,,,,,,,,,,,,,,,,,,,,,,,,,,,,,,,,,,,,,,,,,,,,,,,,,,,,,,,,,,,,,,,,,,,,,,,,
,,?,0.001015,0,,,,,,stimuli/images/PICTURE_667.png,RIVER,5f04d0572128737a2fda3ce3,29/02/1992,2020-09-02_12h27.49.623,proactive3.1,2020.1.2,MacIntel,60,5f47c29a48bd2a1e651a6eb7,5f4f818380ec780346d06211,4,,,,,,daisy,,,,,,,,,,,2,1,0,29,29,10,1,,,,,,,,,,,,,,,,,,,,,,,,,,,,,,,,,,,,,,,,,,,,,,,,,,,,,,,,,,,,,,,,,,,,,,,,,,,,,,,,,,,,,,,,,,,,,,,,,,,,,,,,
,,?,0.00072,0,,,,,,stimuli/images/PICTURE_85.png,TOILET,5f04d0572128737a2fda3ce3,29/02/1992,2020-09-02_12h27.49.623,proactive3.1,2020.1.2,MacIntel,60,5f47c29a48bd2a1e651a6eb7,5f4f818380ec780346d06211,4,,,,,,diamond,,,,,,,,,,,5,1,0,30,30,48,1,,,,,,,,,,,,,,,,,,,,,,,,,,,,,,,,,,,,,,,,,,,,,,,,,,,,,,,,,,,,,,,,,,,,,,,,,,,,,,,,,,,,,,,,,,,,,,,,,,,,,,,,
,,?,0.000565,0,,,,,,stimuli/images/PICTURE_147.png,WOMEN,5f04d0572128737a2fda3ce3,29/02/1992,2020-09-02_12h27.49.623,proactive3.1,2020.1.2,MacIntel,60,5f47c29a48bd2a1e651a6eb7,5f4f818380ec780346d06211,4,,,,,,hanger,,,,,,,,,,,1,1,0,31,31,7,1,,,,,,,,,,,,,,,,,,,,,,,,,,,,,,,,,,,,,,,,,,,,,,,,,,,,,,,,,,,,,,,,,,,,,,,,,,,,,,,,,,,,,,,,,,,,,,,,,,,,,,,,
,,?,0.000625,0,,,,,,stimuli/images/PICTURE_108.png,POLICY,5f04d0572128737a2fda3ce3,29/02/1992,2020-09-02_12h27.49.623,proactive3.1,2020.1.2,MacIntel,60,5f47c29a48bd2a1e651a6eb7,5f4f818380ec780346d06211,4,,,,,,calendar,,,,,,,,,,,3,1,0,32,32,22,1,,,,,,,,,,,,,,,,,,,,,,,,,,,,,,,,,,,,,,,,,,,,,,,,,,,,,,,,,,,,,,,,,,,,,,,,,,,,,,,,,,,,,,,,,,,,,,,,,,,,,,,,
,,KIND,2.4345,1,,,,,,stimuli/images/PICTURE_32.png,KIND,5f04d0572128737a2fda3ce3,29/02/1992,2020-09-02_12h27.49.623,proactive3.1,2020.1.2,MacIntel,60,5f47c29a48bd2a1e651a6eb7,5f4f818380ec780346d06211,4,,,,,,crown,,,,,,,,,,,4,1,0,33,33,35,1,,,,,,,,,,,,,,,,,,,,,,,,,,,,,,,,,,,,,,,,,,,,,,,,,,,,,,,,,,,,,,,,,,,,,,,,,,,,,,,,,,,,,,,,,,,,,,,,,,,,,,,,
,,?,0.001805,0,,,,,,stimuli/images/PICTURE_177.png,WRITER,5f04d0572128737a2fda3ce3,29/02/1992,2020-09-02_12h27.49.623,proactive3.1,2020.1.2,MacIntel,60,5f47c29a48bd2a1e651a6eb7,5f4f818380ec780346d06211,4,,,,,,mushroom,,,,,,,,,,,5,1,0,34,34,41,1,,,,,,,,,,,,,,,,,,,,,,,,,,,,,,,,,,,,,,,,,,,,,,,,,,,,,,,,,,,,,,,,,,,,,,,,,,,,,,,,,,,,,,,,,,,,,,,,,,,,,,,,
,,?,0.001185,0,,,,,,stimuli/images/PICTURE_42.png,BOYS,5f04d0572128737a2fda3ce3,29/02/1992,2020-09-02_12h27.49.623,proactive3.1,2020.1.2,MacIntel,60,5f47c29a48bd2a1e651a6eb7,5f4f818380ec780346d06211,4,,,,,,pear,,,,,,,,,,,6,1,0,35,35,55,1,,,,,,,,,,,,,,,,,,,,,,,,,,,,,,,,,,,,,,,,,,,,,,,,,,,,,,,,,,,,,,,,,,,,,,,,,,,,,,,,,,,,,,,,,,,,,,,,,,,,,,,,
,,?,0.002775,0,,,,,,stimuli/images/PICTURE_383.png,WRITER,5f04d0572128737a2fda3ce3,29/02/1992,2020-09-02_12h27.49.623,proactive3.1,2020.1.2,MacIntel,60,5f47c29a48bd2a1e651a6eb7,5f4f818380ec780346d06211,4,,,,,,coin,,,,,,,,,,,3,1,0,36,36,28,1,,,,,,,,,,,,,,,,,,,,,,,,,,,,,,,,,,,,,,,,,,,,,,,,,,,,,,,,,,,,,,,,,,,,,,,,,,,,,,,,,,,,,,,,,,,,,,,,,,,,,,,,
,,?,0.001115,0,,,,,,stimuli/images/PICTURE_95.png,BOYS,5f04d0572128737a2fda3ce3,29/02/1992,2020-09-02_12h27.49.623,proactive3.1,2020.1.2,MacIntel,60,5f47c29a48bd2a1e651a6eb7,5f4f818380ec780346d06211,4,,,,,,suitcase,,,,,,,,,,,1,1,0,37,37,1,1,,,,,,,,,,,,,,,,,,,,,,,,,,,,,,,,,,,,,,,,,,,,,,,,,,,,,,,,,,,,,,,,,,,,,,,,,,,,,,,,,,,,,,,,,,,,,,,,,,,,,,,,
,,SYSTEM,2.607595,1,,,,,,stimuli/images/PICTURE_208.png,SYSTEM,5f04d0572128737a2fda3ce3,29/02/1992,2020-09-02_12h27.49.623,proactive3.1,2020.1.2,MacIntel,60,5f47c29a48bd2a1e651a6eb7,5f4f818380ec780346d06211,4,,,,,,microphone,,,,,,,,,,,4,1,0,38,38,32,1,,,,,,,,,,,,,,,,,,,,,,,,,,,,,,,,,,,,,,,,,,,,,,,,,,,,,,,,,,,,,,,,,,,,,,,,,,,,,,,,,,,,,,,,,,,,,,,,,,,,,,,,
,,MOMENT,6.196205,1,,,,,,stimuli/images/PICTURE_57.png,MOMENT,5f04d0572128737a2fda3ce3,29/02/1992,2020-09-02_12h27.49.623,proactive3.1,2020.1.2,MacIntel,60,5f47c29a48bd2a1e651a6eb7,5f4f818380ec780346d06211,4,,,,,,stamp,,,,,,,,,,,4,1,0,39,39,37,1,,,,,,,,,,,,,,,,,,,,,,,,,,,,,,,,,,,,,,,,,,,,,,,,,,,,,,,,,,,,,,,,,,,,,,,,,,,,,,,,,,,,,,,,,,,,,,,,,,,,,,,,
,,FAMILY,2.08701,1,,,,,,stimuli/images/PICTURE_308.png,FAMILY,5f04d0572128737a2fda3ce3,29/02/1992,2020-09-02_12h27.49.623,proactive3.1,2020.1.2,MacIntel,60,5f47c29a48bd2a1e651a6eb7,5f4f818380ec780346d06211,4,,,,,,dice,,,,,,,,,,,4,1,0,40,40,36,1,,,,,,,,,,,,,,,,,,,,,,,,,,,,,,,,,,,,,,,,,,,,,,,,,,,,,,,,,,,,,,,,,,,,,,,,,,,,,,,,,,,,,,,,,,,,,,,,,,,,,,,,
,,KING,7.39917,0,,,,,,stimuli/images/PICTURE_203.png,GODS,5f04d0572128737a2fda3ce3,29/02/1992,2020-09-02_12h27.49.623,proactive3.1,2020.1.2,MacIntel,60,5f47c29a48bd2a1e651a6eb7,5f4f818380ec780346d06211,4,,,,,,cap,,,,,,,,,,,4,1,0,41,41,30,1,,,,,,,,,,,,,,,,,,,,,,,,,,,,,,,,,,,,,,,,,,,,,,,,,,,,,,,,,,,,,,,,,,,,,,,,,,,,,,,,,,,,,,,,,,,,,,,,,,,,,,,,
,,HOME,3.906555,0,,,,,,stimuli/images/PICTURE_405.png,YEAR,5f04d0572128737a2fda3ce3,29/02/1992,2020-09-02_12h27.49.623,proactive3.1,2020.1.2,MacIntel,60,5f47c29a48bd2a1e651a6eb7,5f4f818380ec780346d06211,4,,,,,,anchor,,,,,,,,,,,4,1,0,42,42,34,1,,,,,,,,,,,,,,,,,,,,,,,,,,,,,,,,,,,,,,,,,,,,,,,,,,,,,,,,,,,,,,,,,,,,,,,,,,,,,,,,,,,,,,,,,,,,,,,,,,,,,,,,
,,?,0.001535,0,,,,,,stimuli/images/PICTURE_2.png,FLIGHT,5f04d0572128737a2fda3ce3,29/02/1992,2020-09-02_12h27.49.623,proactive3.1,2020.1.2,MacIntel,60,5f47c29a48bd2a1e651a6eb7,5f4f818380ec780346d06211,4,,,,,,tyre,,,,,,,,,,,2,1,0,43,43,15,1,,,,,,,,,,,,,,,,,,,,,,,,,,,,,,,,,,,,,,,,,,,,,,,,,,,,,,,,,,,,,,,,,,,,,,,,,,,,,,,,,,,,,,,,,,,,,,,,,,,,,,,,
,,?,0.001055,0,,,,,,stimuli/images/PICTURE_750.png,HOTEL,5f04d0572128737a2fda3ce3,29/02/1992,2020-09-02_12h27.49.623,proactive3.1,2020.1.2,MacIntel,60,5f47c29a48bd2a1e651a6eb7,5f4f818380ec780346d06211,4,,,,,,kettle,,,,,,,,,,,3,1,0,44,44,27,1,,,,,,,,,,,,,,,,,,,,,,,,,,,,,,,,,,,,,,,,,,,,,,,,,,,,,,,,,,,,,,,,,,,,,,,,,,,,,,,,,,,,,,,,,,,,,,,,,,,,,,,,
,,?,0.000765,0,,,,,,stimuli/images/PICTURE_339.png,CLIENT,5f04d0572128737a2fda3ce3,29/02/1992,2020-09-02_12h27.49.623,proactive3.1,2020.1.2,MacIntel,60,5f47c29a48bd2a1e651a6eb7,5f4f818380ec780346d06211,4,,,,,,backpack,,,,,,,,,,,2,1,0,45,45,11,1,,,,,,,,,,,,,,,,,,,,,,,,,,,,,,,,,,,,,,,,,,,,,,,,,,,,,,,,,,,,,,,,,,,,,,,,,,,,,,,,,,,,,,,,,,,,,,,,,,,,,,,,
,,?,0.000775,0,,,,,,stimuli/images/PICTURE_95.png,MILLER,5f04d0572128737a2fda3ce3,29/02/1992,2020-09-02_12h27.49.623,proactive3.1,2020.1.2,MacIntel,60,5f47c29a48bd2a1e651a6eb7,5f4f818380ec780346d06211,4,,,,,,suitcase,,,,,,,,,,,6,1,0,46,46,56,1,,,,,,,,,,,,,,,,,,,,,,,,,,,,,,,,,,,,,,,,,,,,,,,,,,,,,,,,,,,,,,,,,,,,,,,,,,,,,,,,,,,,,,,,,,,,,,,,,,,,,,,,
,,LIFE,1.857805,1,,,,,,stimuli/images/PICTURE_285.png,LIFE,5f04d0572128737a2fda3ce3,29/02/1992,2020-09-02_12h27.49.623,proactive3.1,2020.1.2,MacIntel,60,5f47c29a48bd2a1e651a6eb7,5f4f818380ec780346d06211,4,,,,,,carrot,,,,,,,,,,,4,1,0,47,47,33,1,,,,,,,,,,,,,,,,,,,,,,,,,,,,,,,,,,,,,,,,,,,,,,,,,,,,,,,,,,,,,,,,,,,,,,,,,,,,,,,,,,,,,,,,,,,,,,,,,,,,,,,,
,,?,0.00159,0,,,,,,stimuli/images/PICTURE_564.png,BATH,5f04d0572128737a2fda3ce3,29/02/1992,2020-09-02_12h27.49.623,proactive3.1,2020.1.2,MacIntel,60,5f47c29a48bd2a1e651a6eb7,5f4f818380ec780346d06211,4,,,,,,spoon,,,,,,,,,,,3,1,0,48,48,26,1,,,,,,,,,,,,,,,,,,,,,,,,,,,,,,,,,,,,,,,,,,,,,,,,,,,,,,,,,,,,,,,,,,,,,,,,,,,,,,,,,,,,,,,,,,,,,,,,,,,,,,,,
,,?,0.000835,0,,,,,,stimuli/images/PICTURE_491.png,RIVER,5f04d0572128737a2fda3ce3,29/02/1992,2020-09-02_12h27.49.623,proactive3.1,2020.1.2,MacIntel,60,5f47c29a48bd2a1e651a6eb7,5f4f818380ec780346d06211,4,,,,,,rug,,,,,,,,,,,1,1,0,49,49,6,1,,,,,,,,,,,,,,,,,,,,,,,,,,,,,,,,,,,,,,,,,,,,,,,,,,,,,,,,,,,,,,,,,,,,,,,,,,,,,,,,,,,,,,,,,,,,,,,,,,,,,,,,
,,?,0.000865,0,,,,,,stimuli/images/PICTURE_296.png,LOTS,5f04d0572128737a2fda3ce3,29/02/1992,2020-09-02_12h27.49.623,proactive3.1,2020.1.2,MacIntel,60,5f47c29a48bd2a1e651a6eb7,5f4f818380ec780346d06211,4,,,,,,bolt,,,,,,,,,,,1,1,0,50,50,9,1,,,,,,,,,,,,,,,,,,,,,,,,,,,,,,,,,,,,,,,,,,,,,,,,,,,,,,,,,,,,,,,,,,,,,,,,,,,,,,,,,,,,,,,,,,,,,,,,,,,,,,,,
,,?,0.00074,0,,,,,,stimuli/images/PICTURE_403.png,RIVER,5f04d0572128737a2fda3ce3,29/02/1992,2020-09-02_12h27.49.623,proactive3.1,2020.1.2,MacIntel,60,5f47c29a48bd2a1e651a6eb7,5f4f818380ec780346d06211,4,,,,,,cathedral,,,,,,,,,,,5,1,0,51,51,40,1,,,,,,,,,,,,,,,,,,,,,,,,,,,,,,,,,,,,,,,,,,,,,,,,,,,,,,,,,,,,,,,,,,,,,,,,,,,,,,,,,,,,,,,,,,,,,,,,,,,,,,,,
,,?,0.00074,0,,,,,,stimuli/images/PICTURE_203.png,NIGHT,5f04d0572128737a2fda3ce3,29/02/1992,2020-09-02_12h27.49.623,proactive3.1,2020.1.2,MacIntel,60,5f47c29a48bd2a1e651a6eb7,5f4f818380ec780346d06211,4,,,,,,cap,,,,,,,,,,,1,1,0,52,52,2,1,,,,,,,,,,,,,,,,,,,,,,,,,,,,,,,,,,,,,,,,,,,,,,,,,,,,,,,,,,,,,,,,,,,,,,,,,,,,,,,,,,,,,,,,,,,,,,,,,,,,,,,,
,,?,0.000585,0,,,,,,stimuli/images/PICTURE_233.png,LOTS,5f04d0572128737a2fda3ce3,29/02/1992,2020-09-02_12h27.49.623,proactive3.1,2020.1.2,MacIntel,60,5f47c29a48bd2a1e651a6eb7,5f4f818380ec780346d06211,4,,,,,,salt,,,,,,,,,,,5,1,0,53,53,42,1,,,,,,,,,,,,,,,,,,,,,,,,,,,,,,,,,,,,,,,,,,,,,,,,,,,,,,,,,,,,,,,,,,,,,,,,,,,,,,,,,,,,,,,,,,,,,,,,,,,,,,,,
,,?,0.00075,0,,,,,,stimuli/images/PICTURE_655.png,TOILET,5f04d0572128737a2fda3ce3,29/02/1992,2020-09-02_12h27.49.623,proactive3.1,2020.1.2,MacIntel,60,5f47c29a48bd2a1e651a6eb7,5f4f818380ec780346d06211,4,,,,,,megaphone,,,,,,,,,,,2,1,0,54,54,12,1,,,,,,,,,,,,,,,,,,,,,,,,,,,,,,,,,,,,,,,,,,,,,,,,,,,,,,,,,,,,,,,,,,,,,,,,,,,,,,,,,,,,,,,,,,,,,,,,,,,,,,,,
,,?,0.000755,0,,,,,,stimuli/images/PICTURE_744.png,WEAPON,5f04d0572128737a2fda3ce3,29/02/1992,2020-09-02_12h27.49.623,proactive3.1,2020.1.2,MacIntel,60,5f47c29a48bd2a1e651a6eb7,5f4f818380ec780346d06211,4,,,,,,ring,,,,,,,,,,,6,1,0,55,55,50,1,,,,,,,,,,,,,,,,,,,,,,,,,,,,,,,,,,,,,,,,,,,,,,,,,,,,,,,,,,,,,,,,,,,,,,,,,,,,,,,,,,,,,,,,,,,,,,,,,,,,,,,,
,,?,0.000695,0,,,,,,stimuli/images/PICTURE_487.png,GIRL,5f04d0572128737a2fda3ce3,29/02/1992,2020-09-02_12h27.49.623,proactive3.1,2020.1.2,MacIntel,60,5f47c29a48bd2a1e651a6eb7,5f4f818380ec780346d06211,4,,,,,,basket,,,,,,,,,,,5,1,0,56,56,45,1,,,,,,,,,,,,,,,,,,,,,,,,,,,,,,,,,,,,,,,,,,,,,,,,,,,,,,,,,,,,,,,,,,,,,,,,,,,,,,,,,,,,,,,,,,,,,,,,,,,,,,,,
,,?,0.00055,0,,,,,,stimuli/images/PICTURE_68.png,MILE,5f04d0572128737a2fda3ce3,29/02/1992,2020-09-02_12h27.49.623,proactive3.1,2020.1.2,MacIntel,60,5f47c29a48bd2a1e651a6eb7,5f4f818380ec780346d06211,4,,,,,,candle,,,,,,,,,,,6,1,0,57,57,51,1,,,,,,,,,,,,,,,,,,,,,,,,,,,,,,,,,,,,,,,,,,,,,,,,,,,,,,,,,,,,,,,,,,,,,,,,,,,,,,,,,,,,,,,,,,,,,,,,,,,,,,,,
,,?,0.00056,0,,,,,,stimuli/images/PICTURE_675.png,SALE,5f04d0572128737a2fda3ce3,29/02/1992,2020-09-02_12h27.49.623,proactive3.1,2020.1.2,MacIntel,60,5f47c29a48bd2a1e651a6eb7,5f4f818380ec780346d06211,4,,,,,,windmill,,,,,,,,,,,5,1,0,58,58,47,1,,,,,,,,,,,,,,,,,,,,,,,,,,,,,,,,,,,,,,,,,,,,,,,,,,,,,,,,,,,,,,,,,,,,,,,,,,,,,,,,,,,,,,,,,,,,,,,,,,,,,,,,
,,?,0.00059,0,,,,,,stimuli/images/PICTURE_327.png,CASINO,5f04d0572128737a2fda3ce3,29/02/1992,2020-09-02_12h27.49.623,proactive3.1,2020.1.2,MacIntel,60,5f47c29a48bd2a1e651a6eb7,5f4f818380ec780346d06211,4,,,,,,helmet,,,,,,,,,,,3,1,0,59,59,20,1,,,,,,,,,,,,,,,,,,,,,,,,,,,,,,,,,,,,,,,,,,,,,,,,,,,,,,,,,,,,,,,,,,,,,,,,,,,,,,,,,,,,,,,,,,,,,,,,,,,,,,,,
,,,,,,,,,,,,5f04d0572128737a2fda3ce3,29/02/1992,2020-09-02_12h27.49.623,proactive3.1,2020.1.2,MacIntel,60,5f47c29a48bd2a1e651a6eb7,5f4f818380ec780346d06211,4,,,,,,,,,,,,,,,,,,,,,,,,0,1,1,1,1,stimuli/learn-block2.csv,,,,,,,,,,,,,,,,,,,,,,,,,,,,,,,,,,,,,,,,,,,,,,,,,,,,,,,,,,,,,,,,,,,,,,,,,,,,,,,,,,,,,,,,,,,,,,,,,,
,,,,,,,,,,stimuli/images/PICTURE_95.png,NIGHT,5f04d0572128737a2fda3ce3,29/02/1992,2020-09-02_12h27.49.623,proactive3.1,2020.1.2,MacIntel,60,5f47c29a48bd2a1e651a6eb7,5f4f818380ec780346d06211,4,,,,,,suitcase,,,,,,0,0,0,37,1,4,2,,,,,,,,,,,,,,,,,,,,,,,,,,,,,,,,,,,,,,,,,,,,,,,,,,,,,,,,,,,,,,,,,,,,,,,,,,,,,,,,,,,,,,,,,,,,,,,,,,,,,,,,,,,,,
,,,,,,,,,,stimuli/images/PICTURE_509.png,BATH,5f04d0572128737a2fda3ce3,29/02/1992,2020-09-02_12h27.49.623,proactive3.1,2020.1.2,MacIntel,60,5f47c29a48bd2a1e651a6eb7,5f4f818380ec780346d06211,4,,,,,,telephone,,,,,,0,1,1,15,1,2,2,,,,,,,,,,,,,,,,,,,,,,,,,,,,,,,,,,,,,,,,,,,,,,,,,,,,,,,,,,,,,,,,,,,,,,,,,,,,,,,,,,,,,,,,,,,,,,,,,,,,,,,,,,,,,
,,,,,,,,,,stimuli/images/PICTURE_215.png,BOYS,5f04d0572128737a2fda3ce3,29/02/1992,2020-09-02_12h27.49.623,proactive3.1,2020.1.2,MacIntel,60,5f47c29a48bd2a1e651a6eb7,5f4f818380ec780346d06211,4,,,,,,boot,,,,,,0,2,2,24,1,3,2,,,,,,,,,,,,,,,,,,,,,,,,,,,,,,,,,,,,,,,,,,,,,,,,,,,,,,,,,,,,,,,,,,,,,,,,,,,,,,,,,,,,,,,,,,,,,,,,,,,,,,,,,,,,,
,,,,,,,,,,stimuli/images/PICTURE_93.png,GIRL,5f04d0572128737a2fda3ce3,29/02/1992,2020-09-02_12h27.49.623,proactive3.1,2020.1.2,MacIntel,60,5f47c29a48bd2a1e651a6eb7,5f4f818380ec780346d06211,4,,,,,,skateboard,,,,,,0,3,3,31,1,4,2,,,,,,,,,,,,,,,,,,,,,,,,,,,,,,,,,,,,,,,,,,,,,,,,,,,,,,,,,,,,,,,,,,,,,,,,,,,,,,,,,,,,,,,,,,,,,,,,,,,,,,,,,,,,,
,,,,,,,,,,stimuli/images/PICTURE_311.png,TOILET,5f04d0572128737a2fda3ce3,29/02/1992,2020-09-02_12h27.49.623,proactive3.1,2020.1.2,MacIntel,60,5f47c29a48bd2a1e651a6eb7,5f4f818380ec780346d06211,4,,,,,,razor,,,,,,0,4,4,54,1,6,2,,,,,,,,,,,,,,,,,,,,,,,,,,,,,,,,,,,,,,,,,,,,,,,,,,,,,,,,,,,,,,,,,,,,,,,,,,,,,,,,,,,,,,,,,,,,,,,,,,,,,,,,,,,,,
,,,,,,,,,,stimuli/images/PICTURE_405.png,JUNGLE,5f04d0572128737a2fda3ce3,29/02/1992,2020-09-02_12h27.49.623,proactive3.1,2020.1.2,MacIntel,60,5f47c29a48bd2a1e651a6eb7,5f4f818380ec780346d06211,4,,,,,,anchor,,,,,,0,5,5,58,1,6,2,,,,,,,,,,,,,,,,,,,,,,,,,,,,,,,,,,,,,,,,,,,,,,,,,,,,,,,,,,,,,,,,,,,,,,,,,,,,,,,,,,,,,,,,,,,,,,,,,,,,,,,,,,,,,
,,,,,,,,,,stimuli/images/PICTURE_654.png,COPS,5f04d0572128737a2fda3ce3,29/02/1992,2020-09-02_12h27.49.623,proactive3.1,2020.1.2,MacIntel,60,5f47c29a48bd2a1e651a6eb7,5f4f818380ec780346d06211,4,,,,,,pencil,,,,,,0,6,6,10,1,2,2,,,,,,,,,,,,,,,,,,,,,,,,,,,,,,,,,,,,,,,,,,,,,,,,,,,,,,,,,,,,,,,,,,,,,,,,,,,,,,,,,,,,,,,,,,,,,,,,,,,,,,,,,,,,,
,,,,,,,,,,stimuli/images/PICTURE_296.png,CLOCK,5f04d0572128737a2fda3ce3,29/02/1992,2020-09-02_12h27.49.623,proactive3.1,2020.1.2,MacIntel,60,5f47c29a48bd2a1e651a6eb7,5f4f818380ec780346d06211,4,,,,,,bolt,,,,,,0,7,7,18,1,2,2,,,,,,,,,,,,,,,,,,,,,,,,,,,,,,,,,,,,,,,,,,,,,,,,,,,,,,,,,,,,,,,,,,,,,,,,,,,,,,,,,,,,,,,,,,,,,,,,,,,,,,,,,,,,,
,,,,,,,,,,stimuli/images/PICTURE_504.png,HOUSE,5f04d0572128737a2fda3ce3,29/02/1992,2020-09-02_12h27.49.623,proactive3.1,2020.1.2,MacIntel,60,5f47c29a48bd2a1e651a6eb7,5f4f818380ec780346d06211,4,,,,,,wheel,,,,,,0,8,8,36,1,4,2,,,,,,,,,,,,,,,,,,,,,,,,,,,,,,,,,,,,,,,,,,,,,,,,,,,,,,,,,,,,,,,,,,,,,,,,,,,,,,,,,,,,,,,,,,,,,,,,,,,,,,,,,,,,,
,,,,,,,,,,stimuli/images/PICTURE_403.png,FAMILY,5f04d0572128737a2fda3ce3,29/02/1992,2020-09-02_12h27.49.623,proactive3.1,2020.1.2,MacIntel,60,5f47c29a48bd2a1e651a6eb7,5f4f818380ec780346d06211,4,,,,,,cathedral,,,,,,0,9,9,9,1,1,2,,,,,,,,,,,,,,,,,,,,,,,,,,,,,,,,,,,,,,,,,,,,,,,,,,,,,,,,,,,,,,,,,,,,,,,,,,,,,,,,,,,,,,,,,,,,,,,,,,,,,,,,,,,,,
,,,,,,,,,,stimuli/images/PICTURE_68.png,KIND,5f04d0572128737a2fda3ce3,29/02/1992,2020-09-02_12h27.49.623,proactive3.1,2020.1.2,MacIntel,60,5f47c29a48bd2a1e651a6eb7,5f4f818380ec780346d06211,4,,,,,,candle,,,,,,0,10,10,23,1,3,2,,,,,,,,,,,,,,,,,,,,,,,,,,,,,,,,,,,,,,,,,,,,,,,,,,,,,,,,,,,,,,,,,,,,,,,,,,,,,,,,,,,,,,,,,,,,,,,,,,,,,,,,,,,,,
,,,,,,,,,,stimuli/images/PICTURE_208.png,SPIRIT,5f04d0572128737a2fda3ce3,29/02/1992,2020-09-02_12h27.49.623,proactive3.1,2020.1.2,MacIntel,60,5f47c29a48bd2a1e651a6eb7,5f4f818380ec780346d06211,4,,,,,,microphone,,,,,,0,11,11,28,1,3,2,,,,,,,,,,,,,,,,,,,,,,,,,,,,,,,,,,,,,,,,,,,,,,,,,,,,,,,,,,,,,,,,,,,,,,,,,,,,,,,,,,,,,,,,,,,,,,,,,,,,,,,,,,,,,
,,,,,,,,,,stimuli/images/PICTURE_141.png,CLIENT,5f04d0572128737a2fda3ce3,29/02/1992,2020-09-02_12h27.49.623,proactive3.1,2020.1.2,MacIntel,60,5f47c29a48bd2a1e651a6eb7,5f4f818380ec780346d06211,4,,,,,,sunflower,,,,,,0,12,12,30,1,4,2,,,,,,,,,,,,,,,,,,,,,,,,,,,,,,,,,,,,,,,,,,,,,,,,,,,,,,,,,,,,,,,,,,,,,,,,,,,,,,,,,,,,,,,,,,,,,,,,,,,,,,,,,,,,,
,,,,,,,,,,stimuli/images/PICTURE_509.png,MILLER,5f04d0572128737a2fda3ce3,29/02/1992,2020-09-02_12h27.49.623,proactive3.1,2020.1.2,MacIntel,60,5f47c29a48bd2a1e651a6eb7,5f4f818380ec780346d06211,4,,,,,,telephone,,,,,,0,13,13,49,1,5,2,,,,,,,,,,,,,,,,,,,,,,,,,,,,,,,,,,,,,,,,,,,,,,,,,,,,,,,,,,,,,,,,,,,,,,,,,,,,,,,,,,,,,,,,,,,,,,,,,,,,,,,,,,,,,
,,,,,,,,,,stimuli/images/PICTURE_57.png,NATION,5f04d0572128737a2fda3ce3,29/02/1992,2020-09-02_12h27.49.623,proactive3.1,2020.1.2,MacIntel,60,5f47c29a48bd2a1e651a6eb7,5f4f818380ec780346d06211,4,,,,,,stamp,,,,,,0,14,14,21,1,3,2,,,,,,,,,,,,,,,,,,,,,,,,,,,,,,,,,,,,,,,,,,,,,,,,,,,,,,,,,,,,,,,,,,,,,,,,,,,,,,,,,,,,,,,,,,,,,,,,,,,,,,,,,,,,,
,,,,,,,,,,stimuli/images/PICTURE_348.png,DUDE,5f04d0572128737a2fda3ce3,29/02/1992,2020-09-02_12h27.49.623,proactive3.1,2020.1.2,MacIntel,60,5f47c29a48bd2a1e651a6eb7,5f4f818380ec780346d06211,4,,,,,,pepper,,,,,,0,15,15,59,1,6,2,,,,,,,,,,,,,,,,,,,,,,,,,,,,,,,,,,,,,,,,,,,,,,,,,,,,,,,,,,,,,,,,,,,,,,,,,,,,,,,,,,,,,,,,,,,,,,,,,,,,,,,,,,,,,
,,,,,,,,,,stimuli/images/PICTURE_654.png,YEAR,5f04d0572128737a2fda3ce3,29/02/1992,2020-09-02_12h27.49.623,proactive3.1,2020.1.2,MacIntel,60,5f47c29a48bd2a1e651a6eb7,5f4f818380ec780346d06211,4,,,,,,pencil,,,,,,0,16,16,41,1,5,2,,,,,,,,,,,,,,,,,,,,,,,,,,,,,,,,,,,,,,,,,,,,,,,,,,,,,,,,,,,,,,,,,,,,,,,,,,,,,,,,,,,,,,,,,,,,,,,,,,,,,,,,,,,,,
,,,,,,,,,,stimuli/images/PICTURE_255.png,PENNY,5f04d0572128737a2fda3ce3,29/02/1992,2020-09-02_12h27.49.623,proactive3.1,2020.1.2,MacIntel,60,5f47c29a48bd2a1e651a6eb7,5f4f818380ec780346d06211,4,,,,,,shovel,,,,,,0,17,17,19,1,2,2,,,,,,,,,,,,,,,,,,,,,,,,,,,,,,,,,,,,,,,,,,,,,,,,,,,,,,,,,,,,,,,,,,,,,,,,,,,,,,,,,,,,,,,,,,,,,,,,,,,,,,,,,,,,,
,,,,,,,,,,stimuli/images/PICTURE_692.png,DUDE,5f04d0572128737a2fda3ce3,29/02/1992,2020-09-02_12h27.49.623,proactive3.1,2020.1.2,MacIntel,60,5f47c29a48bd2a1e651a6eb7,5f4f818380ec780346d06211,4,,,,,,cherry,,,,,,0,18,18,47,1,5,2,,,,,,,,,,,,,,,,,,,,,,,,,,,,,,,,,,,,,,,,,,,,,,,,,,,,,,,,,,,,,,,,,,,,,,,,,,,,,,,,,,,,,,,,,,,,,,,,,,,,,,,,,,,,,
,,,,,,,,,,stimuli/images/PICTURE_509.png,APPLE,5f04d0572128737a2fda3ce3,29/02/1992,2020-09-02_12h27.49.623,proactive3.1,2020.1.2,MacIntel,60,5f47c29a48bd2a1e651a6eb7,5f4f818380ec780346d06211,4,,,,,,telephone,,,,,,0,19,19,38,1,4,2,,,,,,,,,,,,,,,,,,,,,,,,,,,,,,,,,,,,,,,,,,,,,,,,,,,,,,,,,,,,,,,,,,,,,,,,,,,,,,,,,,,,,,,,,,,,,,,,,,,,,,,,,,,,,
,,,,,,,,,,stimuli/images/PICTURE_677.png,FAMILY,5f04d0572128737a2fda3ce3,29/02/1992,2020-09-02_12h27.49.623,proactive3.1,2020.1.2,MacIntel,60,5f47c29a48bd2a1e651a6eb7,5f4f818380ec780346d06211,4,,,,,,map,,,,,,0,20,20,53,1,6,2,,,,,,,,,,,,,,,,,,,,,,,,,,,,,,,,,,,,,,,,,,,,,,,,,,,,,,,,,,,,,,,,,,,,,,,,,,,,,,,,,,,,,,,,,,,,,,,,,,,,,,,,,,,,,
,,,,,,,,,,stimuli/images/PICTURE_564.png,PLENTY,5f04d0572128737a2fda3ce3,29/02/1992,2020-09-02_12h27.49.623,proactive3.1,2020.1.2,MacIntel,60,5f47c29a48bd2a1e651a6eb7,5f4f818380ec780346d06211,4,,,,,,spoon,,,,,,0,21,21,11,1,2,2,,,,,,,,,,,,,,,,,,,,,,,,,,,,,,,,,,,,,,,,,,,,,,,,,,,,,,,,,,,,,,,,,,,,,,,,,,,,,,,,,,,,,,,,,,,,,,,,,,,,,,,,,,,,,
,,,,,,,,,,stimuli/images/PICTURE_215.png,FOOD,5f04d0572128737a2fda3ce3,29/02/1992,2020-09-02_12h27.49.623,proactive3.1,2020.1.2,MacIntel,60,5f47c29a48bd2a1e651a6eb7,5f4f818380ec780346d06211,4,,,,,,boot,,,,,,0,22,22,5,1,1,2,,,,,,,,,,,,,,,,,,,,,,,,,,,,,,,,,,,,,,,,,,,,,,,,,,,,,,,,,,,,,,,,,,,,,,,,,,,,,,,,,,,,,,,,,,,,,,,,,,,,,,,,,,,,,
,,,,,,,,,,stimuli/images/PICTURE_2.png,AREA,5f04d0572128737a2fda3ce3,29/02/1992,2020-09-02_12h27.49.623,proactive3.1,2020.1.2,MacIntel,60,5f47c29a48bd2a1e651a6eb7,5f4f818380ec780346d06211,4,,,,,,tyre,,,,,,0,23,23,32,1,4,2,,,,,,,,,,,,,,,,,,,,,,,,,,,,,,,,,,,,,,,,,,,,,,,,,,,,,,,,,,,,,,,,,,,,,,,,,,,,,,,,,,,,,,,,,,,,,,,,,,,,,,,,,,,,,
,,,,,,,,,,stimuli/images/PICTURE_509.png,SHOTS,5f04d0572128737a2fda3ce3,29/02/1992,2020-09-02_12h27.49.623,proactive3.1,2020.1.2,MacIntel,60,5f47c29a48bd2a1e651a6eb7,5f4f818380ec780346d06211,4,,,,,,telephone,,,,,,0,24,24,7,1,1,2,,,,,,,,,,,,,,,,,,,,,,,,,,,,,,,,,,,,,,,,,,,,,,,,,,,,,,,,,,,,,,,,,,,,,,,,,,,,,,,,,,,,,,,,,,,,,,,,,,,,,,,,,,,,,
,,,,,,,,,,stimuli/images/PICTURE_750.png,POLICY,5f04d0572128737a2fda3ce3,29/02/1992,2020-09-02_12h27.49.623,proactive3.1,2020.1.2,MacIntel,60,5f47c29a48bd2a1e651a6eb7,5f4f818380ec780346d06211,4,,,,,,kettle,,,,,,0,25,25,44,1,5,2,,,,,,,,,,,,,,,,,,,,,,,,,,,,,,,,,,,,,,,,,,,,,,,,,,,,,,,,,,,,,,,,,,,,,,,,,,,,,,,,,,,,,,,,,,,,,,,,,,,,,,,,,,,,,
,,,,,,,,,,stimuli/images/PICTURE_405.png,HOUSE,5f04d0572128737a2fda3ce3,29/02/1992,2020-09-02_12h27.49.623,proactive3.1,2020.1.2,MacIntel,60,5f47c29a48bd2a1e651a6eb7,5f4f818380ec780346d06211,4,,,,,,anchor,,,,,,0,26,26,2,1,1,2,,,,,,,,,,,,,,,,,,,,,,,,,,,,,,,,,,,,,,,,,,,,,,,,,,,,,,,,,,,,,,,,,,,,,,,,,,,,,,,,,,,,,,,,,,,,,,,,,,,,,,,,,,,,,
,,,,,,,,,,stimuli/images/PICTURE_147.png,LEADER,5f04d0572128737a2fda3ce3,29/02/1992,2020-09-02_12h27.49.623,proactive3.1,2020.1.2,MacIntel,60,5f47c29a48bd2a1e651a6eb7,5f4f818380ec780346d06211,4,,,,,,hanger,,,,,,0,27,27,33,1,4,2,,,,,,,,,,,,,,,,,,,,,,,,,,,,,,,,,,,,,,,,,,,,,,,,,,,,,,,,,,,,,,,,,,,,,,,,,,,,,,,,,,,,,,,,,,,,,,,,,,,,,,,,,,,,,
,,,,,,,,,,stimuli/images/PICTURE_470.png,BEAUTY,5f04d0572128737a2fda3ce3,29/02/1992,2020-09-02_12h27.49.623,proactive3.1,2020.1.2,MacIntel,60,5f47c29a48bd2a1e651a6eb7,5f4f818380ec780346d06211,4,,,,,,motorbike,,,,,,0,28,28,26,1,3,2,,,,,,,,,,,,,,,,,,,,,,,,,,,,,,,,,,,,,,,,,,,,,,,,,,,,,,,,,,,,,,,,,,,,,,,,,,,,,,,,,,,,,,,,,,,,,,,,,,,,,,,,,,,,,
,,,,,,,,,,stimuli/images/PICTURE_348.png,TOILET,5f04d0572128737a2fda3ce3,29/02/1992,2020-09-02_12h27.49.623,proactive3.1,2020.1.2,MacIntel,60,5f47c29a48bd2a1e651a6eb7,5f4f818380ec780346d06211,4,,,,,,pepper,,,,,,0,29,29,4,1,1,2,,,,,,,,,,,,,,,,,,,,,,,,,,,,,,,,,,,,,,,,,,,,,,,,,,,,,,,,,,,,,,,,,,,,,,,,,,,,,,,,,,,,,,,,,,,,,,,,,,,,,,,,,,,,,
,,,,,,,,,,stimuli/images/PICTURE_33.png,COPS,5f04d0572128737a2fda3ce3,29/02/1992,2020-09-02_12h27.49.623,proactive3.1,2020.1.2,MacIntel,60,5f47c29a48bd2a1e651a6eb7,5f4f818380ec780346d06211,4,,,,,,frame,,,,,,0,30,30,29,1,3,2,,,,,,,,,,,,,,,,,,,,,,,,,,,,,,,,,,,,,,,,,,,,,,,,,,,,,,,,,,,,,,,,,,,,,,,,,,,,,,,,,,,,,,,,,,,,,,,,,,,,,,,,,,,,,
,,,,,,,,,,stimuli/images/PICTURE_215.png,LEADER,5f04d0572128737a2fda3ce3,29/02/1992,2020-09-02_12h27.49.623,proactive3.1,2020.1.2,MacIntel,60,5f47c29a48bd2a1e651a6eb7,5f4f818380ec780346d06211,4,,,,,,boot,,,,,,0,31,31,43,1,5,2,,,,,,,,,,,,,,,,,,,,,,,,,,,,,,,,,,,,,,,,,,,,,,,,,,,,,,,,,,,,,,,,,,,,,,,,,,,,,,,,,,,,,,,,,,,,,,,,,,,,,,,,,,,,,
,,,,,,,,,,stimuli/images/PICTURE_177.png,HOUSE,5f04d0572128737a2fda3ce3,29/02/1992,2020-09-02_12h27.49.623,proactive3.1,2020.1.2,MacIntel,60,5f47c29a48bd2a1e651a6eb7,5f4f818380ec780346d06211,4,,,,,,mushroom,,,,,,0,32,32,25,1,3,2,,,,,,,,,,,,,,,,,,,,,,,,,,,,,,,,,,,,,,,,,,,,,,,,,,,,,,,,,,,,,,,,,,,,,,,,,,,,,,,,,,,,,,,,,,,,,,,,,,,,,,,,,,,,,
,,,,,,,,,,stimuli/images/PICTURE_677.png,PHOTO,5f04d0572128737a2fda3ce3,29/02/1992,2020-09-02_12h27.49.623,proactive3.1,2020.1.2,MacIntel,60,5f47c29a48bd2a1e651a6eb7,5f4f818380ec780346d06211,4,,,,,,map,,,,,,0,33,33,14,1,2,2,,,,,,,,,,,,,,,,,,,,,,,,,,,,,,,,,,,,,,,,,,,,,,,,,,,,,,,,,,,,,,,,,,,,,,,,,,,,,,,,,,,,,,,,,,,,,,,,,,,,,,,,,,,,,
,,,,,,,,,,stimuli/images/PICTURE_688.png,CLOCK,5f04d0572128737a2fda3ce3,29/02/1992,2020-09-02_12h27.49.623,proactive3.1,2020.1.2,MacIntel,60,5f47c29a48bd2a1e651a6eb7,5f4f818380ec780346d06211,4,,,,,,runner,,,,,,0,34,34,42,1,5,2,,,,,,,,,,,,,,,,,,,,,,,,,,,,,,,,,,,,,,,,,,,,,,,,,,,,,,,,,,,,,,,,,,,,,,,,,,,,,,,,,,,,,,,,,,,,,,,,,,,,,,,,,,,,,
,,,,,,,,,,stimuli/images/PICTURE_285.png,PRINCE,5f04d0572128737a2fda3ce3,29/02/1992,2020-09-02_12h27.49.623,proactive3.1,2020.1.2,MacIntel,60,5f47c29a48bd2a1e651a6eb7,5f4f818380ec780346d06211,4,,,,,,carrot,,,,,,0,35,35,20,1,3,2,,,,,,,,,,,,,,,,,,,,,,,,,,,,,,,,,,,,,,,,,,,,,,,,,,,,,,,,,,,,,,,,,,,,,,,,,,,,,,,,,,,,,,,,,,,,,,,,,,,,,,,,,,,,,
