consent_key.keys,consent_key.rt,recalled,recalled_rt,recall_acc,example_recall.thisRepN,example_recall.thisTrialN,example_recall.thisN,example_recall.thisIndex,example_recall.ran,file,word,participant,please enter your date of birth (dd/mm/yyyy),date,expName,psychopyVersion,OS,frameRate,STUDY_ID,SESSION_ID,list,prac_learn_study_loop.thisRepN,prac_learn_study_loop.thisTrialN,prac_learn_study_loop.thisN,prac_learn_study_loop.thisIndex,prac_learn_study_loop.ran,image,prac_learn_test_loop.thisRepN,prac_learn_test_loop.thisTrialN,prac_learn_test_loop.thisN,prac_learn_test_loop.thisIndex,prac_learn_test_loop.ran,learn_study_loop.thisRepN,learn_study_loop.thisTrialN,learn_study_loop.thisN,learn_study_loop.thisIndex,learn_study_loop.ran,list_no,block_no,learn_test_loop.thisRepN,learn_test_loop.thisTrialN,learn_test_loop.thisN,learn_test_loop.thisIndex,learn_test_loop.ran,learn_blocks.thisRepN,learn_blocks.thisTrialN,learn_blocks.thisN,learn_blocks.thisIndex,learn_blocks.ran,block_csv,key_resp_13.keys,key_resp_13.rt,learn_blocks_loop.thisRepN,learn_blocks_loop.thisTrialN,learn_blocks_loop.thisN,learn_blocks_loop.thisIndex,learn_blocks_loop.ran,final_learn_test.thisRepN,final_learn_test.thisTrialN,final_learn_test.thisN,final_learn_test.thisIndex,final_learn_test.ran,s_im1,s_im2,s_im3,s_im4,s_im5,s_im6,s_im7,s_im8,s_im1pos,s_im2pos,s_im3pos,s_im4pos,s_im5pos,s_im6pos,s_im7pos,s_im8pos,s_tarright,search_resp.keys,search_loop.thisRepN,search_loop.thisTrialN,search_loop.thisN,search_loop.thisIndex,search_loop.ran,search_resp.rt,prac_wm_search_loop.thisRepN,prac_wm_search_loop.thisTrialN,prac_wm_search_loop.thisN,prac_wm_search_loop.thisIndex,prac_wm_search_loop.ran,prac_wm_test_loop.thisRepN,prac_wm_test_loop.thisTrialN,prac_wm_test_loop.thisN,prac_wm_test_loop.thisIndex,prac_wm_test_loop.ran,wm_recalled1,wm_recall_rt1,wm_probed1,wm_recall_acc1,wm_recalled2,wm_recall_rt2,wm_probed2,wm_recall_acc2,wm_recalled3,wm_recall_rt3,wm_probed3,wm_recall_acc3,wm_recalled4,wm_recall_rt4,wm_probed4,wm_recall_acc4,prac_wm_trial_loop.thisRepN,prac_wm_trial_loop.thisTrialN,prac_wm_trial_loop.thisN,prac_wm_trial_loop.thisIndex,prac_wm_trial_loop.ran,word1,image1,file1,item_type1,word2,image2,file2,item_type2,word4,image4,file4,item_type4,word3,image3,file3,item_type3,wm_search_loop.thisRepN,wm_search_loop.thisTrialN,wm_search_loop.thisN,wm_search_loop.thisIndex,wm_search_loop.ran,wm_test_loop.thisRepN,wm_test_loop.thisTrialN,wm_test_loop.thisN,wm_test_loop.thisIndex,wm_test_loop.ran,wm_trial_loop.thisRepN,wm_trial_loop.thisTrialN,wm_trial_loop.thisN,wm_trial_loop.thisIndex,wm_trial_loop.ran
y,11.737,BATHTUB,12.186,0,0,0,0,0,1,stimuli/images/PICTURE_747.png,TOUGH,5f0b2c58b8ce4241add340ea,05/12/1995,2020-09-02_12h35.36.415,proactive3.1,2020.1.2,MacIntel,60,5f47c29a48bd2a1e651a6eb7,5f4f816d3cd4d603f1750ba9,1,,,,,,,,,,,,,,,,,,,,,,,,,,,,,,,,,,,,,,,,,,,,,,,,,,,,,,,,,,,,,,,,,,,,,,,,,,,,,,,,,,,,,,,,,,,,,,,,,,,,,,,,,,,,,,,,,,,,,,,,,,,,,,,
,,,,,,,,,,stimuli/images/PICTURE_697.png,KILLER,5f0b2c58b8ce4241add340ea,05/12/1995,2020-09-02_12h35.36.415,proactive3.1,2020.1.2,MacIntel,60,5f47c29a48bd2a1e651a6eb7,5f4f816d3cd4d603f1750ba9,1,0,0,0,4,1,peach,,,,,,,,,,,,,,,,,,,,,,,,,,,,,,,,,,,,,,,,,,,,,,,,,,,,,,,,,,,,,,,,,,,,,,,,,,,,,,,,,,,,,,,,,,,,,,,,,,,,,,,,,,,,,,,,,,,,,,,,,
,,,,,,,,,,stimuli/images/PICTURE_658.png,DEVIL,5f0b2c58b8ce4241add340ea,05/12/1995,2020-09-02_12h35.36.415,proactive3.1,2020.1.2,MacIntel,60,5f47c29a48bd2a1e651a6eb7,5f4f816d3cd4d603f1750ba9,1,0,1,1,3,1,crow,,,,,,,,,,,,,,,,,,,,,,,,,,,,,,,,,,,,,,,,,,,,,,,,,,,,,,,,,,,,,,,,,,,,,,,,,,,,,,,,,,,,,,,,,,,,,,,,,,,,,,,,,,,,,,,,,,,,,,,,,
,,,,,,,,,,stimuli/images/PICTURE_378.png,LOSS,5f0b2c58b8ce4241add340ea,05/12/1995,2020-09-02_12h35.36.415,proactive3.1,2020.1.2,MacIntel,60,5f47c29a48bd2a1e651a6eb7,5f4f816d3cd4d603f1750ba9,1,0,2,2,2,1,lobster,,,,,,,,,,,,,,,,,,,,,,,,,,,,,,,,,,,,,,,,,,,,,,,,,,,,,,,,,,,,,,,,,,,,,,,,,,,,,,,,,,,,,,,,,,,,,,,,,,,,,,,,,,,,,,,,,,,,,,,,,
,,,,,,,,,,stimuli/images/PICTURE_727.png,CELL,5f0b2c58b8ce4241add340ea,05/12/1995,2020-09-02_12h35.36.415,proactive3.1,2020.1.2,MacIntel,60,5f47c29a48bd2a1e651a6eb7,5f4f816d3cd4d603f1750ba9,1,0,3,3,1,1,hose,,,,,,,,,,,,,,,,,,,,,,,,,,,,,,,,,,,,,,,,,,,,,,,,,,,,,,,,,,,,,,,,,,,,,,,,,,,,,,,,,,,,,,,,,,,,,,,,,,,,,,,,,,,,,,,,,,,,,,,,,
,,KILLER,2.901,1,,,,,,stimuli/images/PICTURE_697.png,KILLER,5f0b2c58b8ce4241add340ea,05/12/1995,2020-09-02_12h35.36.415,proactive3.1,2020.1.2,MacIntel,60,5f47c29a48bd2a1e651a6eb7,5f4f816d3cd4d603f1750ba9,1,,,,,,peach,0,0,0,4,1,,,,,,,,,,,,,,,,,,,,,,,,,,,,,,,,,,,,,,,,,,,,,,,,,,,,,,,,,,,,,,,,,,,,,,,,,,,,,,,,,,,,,,,,,,,,,,,,,,,,,,,,,,,,,,,,,,,,
,,DEVIL,2.215,0,,,,,,stimuli/images/PICTURE_269.png,GENIUS,5f0b2c58b8ce4241add340ea,05/12/1995,2020-09-02_12h35.36.415,proactive3.1,2020.1.2,MacIntel,60,5f47c29a48bd2a1e651a6eb7,5f4f816d3cd4d603f1750ba9,1,,,,,,chameleon,0,1,1,0,1,,,,,,,,,,,,,,,,,,,,,,,,,,,,,,,,,,,,,,,,,,,,,,,,,,,,,,,,,,,,,,,,,,,,,,,,,,,,,,,,,,,,,,,,,,,,,,,,,,,,,,,,,,,,,,,,,,,,
,,LOST,2.937,0,,,,,,stimuli/images/PICTURE_378.png,LOSS,5f0b2c58b8ce4241add340ea,05/12/1995,2020-09-02_12h35.36.415,proactive3.1,2020.1.2,MacIntel,60,5f47c29a48bd2a1e651a6eb7,5f4f816d3cd4d603f1750ba9,1,,,,,,lobster,0,2,2,2,1,,,,,,,,,,,,,,,,,,,,,,,,,,,,,,,,,,,,,,,,,,,,,,,,,,,,,,,,,,,,,,,,,,,,,,,,,,,,,,,,,,,,,,,,,,,,,,,,,,,,,,,,,,,,,,,,,,,,
,,BIRD,4.819,0,,,,,,stimuli/images/PICTURE_658.png,DEVIL,5f0b2c58b8ce4241add340ea,05/12/1995,2020-09-02_12h35.36.415,proactive3.1,2020.1.2,MacIntel,60,5f47c29a48bd2a1e651a6eb7,5f4f816d3cd4d603f1750ba9,1,,,,,,crow,0,3,3,3,1,,,,,,,,,,,,,,,,,,,,,,,,,,,,,,,,,,,,,,,,,,,,,,,,,,,,,,,,,,,,,,,,,,,,,,,,,,,,,,,,,,,,,,,,,,,,,,,,,,,,,,,,,,,,,,,,,,,,
,,WIRE,4.203,0,,,,,,stimuli/images/PICTURE_727.png,CELL,5f0b2c58b8ce4241add340ea,05/12/1995,2020-09-02_12h35.36.415,proactive3.1,2020.1.2,MacIntel,60,5f47c29a48bd2a1e651a6eb7,5f4f816d3cd4d603f1750ba9,1,,,,,,hose,0,4,4,1,1,,,,,,,,,,,,,,,,,,,,,,,,,,,,,,,,,,,,,,,,,,,,,,,,,,,,,,,,,,,,,,,,,,,,,,,,,,,,,,,,,,,,,,,,,,,,,,,,,,,,,,,,,,,,,,,,,,,,
,,,,,,,,,,stimuli/images/PICTURE_504.png,YEAR,5f0b2c58b8ce4241add340ea,05/12/1995,2020-09-02_12h35.36.415,proactive3.1,2020.1.2,MacIntel,60,5f47c29a48bd2a1e651a6eb7,5f4f816d3cd4d603f1750ba9,1,,,,,,wheel,,,,,,0,0,0,13,1,2,1,,,,,,,,,,,,,,,,,,,,,,,,,,,,,,,,,,,,,,,,,,,,,,,,,,,,,,,,,,,,,,,,,,,,,,,,,,,,,,,,,,,,,,,,,,,,,,,,,,,,,,,,,,,,,
,,,,,,,,,,stimuli/images/PICTURE_57.png,MOMENT,5f0b2c58b8ce4241add340ea,05/12/1995,2020-09-02_12h35.36.415,proactive3.1,2020.1.2,MacIntel,60,5f47c29a48bd2a1e651a6eb7,5f4f816d3cd4d603f1750ba9,1,,,,,,stamp,,,,,,0,1,1,37,1,4,1,,,,,,,,,,,,,,,,,,,,,,,,,,,,,,,,,,,,,,,,,,,,,,,,,,,,,,,,,,,,,,,,,,,,,,,,,,,,,,,,,,,,,,,,,,,,,,,,,,,,,,,,,,,,,
,,,,,,,,,,stimuli/images/PICTURE_383.png,WRITER,5f0b2c58b8ce4241add340ea,05/12/1995,2020-09-02_12h35.36.415,proactive3.1,2020.1.2,MacIntel,60,5f47c29a48bd2a1e651a6eb7,5f4f816d3cd4d603f1750ba9,1,,,,,,coin,,,,,,0,2,2,28,1,3,1,,,,,,,,,,,,,,,,,,,,,,,,,,,,,,,,,,,,,,,,,,,,,,,,,,,,,,,,,,,,,,,,,,,,,,,,,,,,,,,,,,,,,,,,,,,,,,,,,,,,,,,,,,,,,
,,,,,,,,,,stimuli/images/PICTURE_403.png,RIVER,5f0b2c58b8ce4241add340ea,05/12/1995,2020-09-02_12h35.36.415,proactive3.1,2020.1.2,MacIntel,60,5f47c29a48bd2a1e651a6eb7,5f4f816d3cd4d603f1750ba9,1,,,,,,cathedral,,,,,,0,3,3,40,1,5,1,,,,,,,,,,,,,,,,,,,,,,,,,,,,,,,,,,,,,,,,,,,,,,,,,,,,,,,,,,,,,,,,,,,,,,,,,,,,,,,,,,,,,,,,,,,,,,,,,,,,,,,,,,,,,
,,,,,,,,,,stimuli/images/PICTURE_42.png,BOYS,5f0b2c58b8ce4241add340ea,05/12/1995,2020-09-02_12h35.36.415,proactive3.1,2020.1.2,MacIntel,60,5f47c29a48bd2a1e651a6eb7,5f4f816d3cd4d603f1750ba9,1,,,,,,pear,,,,,,0,4,4,55,1,6,1,,,,,,,,,,,,,,,,,,,,,,,,,,,,,,,,,,,,,,,,,,,,,,,,,,,,,,,,,,,,,,,,,,,,,,,,,,,,,,,,,,,,,,,,,,,,,,,,,,,,,,,,,,,,,
,,,,,,,,,,stimuli/images/PICTURE_469.png,AGENT,5f0b2c58b8ce4241add340ea,05/12/1995,2020-09-02_12h35.36.415,proactive3.1,2020.1.2,MacIntel,60,5f47c29a48bd2a1e651a6eb7,5f4f816d3cd4d603f1750ba9,1,,,,,,stool,,,,,,0,5,5,16,1,2,1,,,,,,,,,,,,,,,,,,,,,,,,,,,,,,,,,,,,,,,,,,,,,,,,,,,,,,,,,,,,,,,,,,,,,,,,,,,,,,,,,,,,,,,,,,,,,,,,,,,,,,,,,,,,,
,,,,,,,,,,stimuli/images/PICTURE_327.png,SERIES,5f0b2c58b8ce4241add340ea,05/12/1995,2020-09-02_12h35.36.415,proactive3.1,2020.1.2,MacIntel,60,5f47c29a48bd2a1e651a6eb7,5f4f816d3cd4d603f1750ba9,1,,,,,,helmet,,,,,,0,6,6,3,1,1,1,,,,,,,,,,,,,,,,,,,,,,,,,,,,,,,,,,,,,,,,,,,,,,,,,,,,,,,,,,,,,,,,,,,,,,,,,,,,,,,,,,,,,,,,,,,,,,,,,,,,,,,,,,,,,
,,,,,,,,,,stimuli/images/PICTURE_677.png,APPLE,5f0b2c58b8ce4241add340ea,05/12/1995,2020-09-02_12h35.36.415,proactive3.1,2020.1.2,MacIntel,60,5f47c29a48bd2a1e651a6eb7,5f4f816d3cd4d603f1750ba9,1,,,,,,map,,,,,,0,7,7,43,1,5,1,,,,,,,,,,,,,,,,,,,,,,,,,,,,,,,,,,,,,,,,,,,,,,,,,,,,,,,,,,,,,,,,,,,,,,,,,,,,,,,,,,,,,,,,,,,,,,,,,,,,,,,,,,,,,
,,,,,,,,,,stimuli/images/PICTURE_405.png,PLENTY,5f0b2c58b8ce4241add340ea,05/12/1995,2020-09-02_12h35.36.415,proactive3.1,2020.1.2,MacIntel,60,5f47c29a48bd2a1e651a6eb7,5f4f816d3cd4d603f1750ba9,1,,,,,,anchor,,,,,,0,8,8,23,1,3,1,,,,,,,,,,,,,,,,,,,,,,,,,,,,,,,,,,,,,,,,,,,,,,,,,,,,,,,,,,,,,,,,,,,,,,,,,,,,,,,,,,,,,,,,,,,,,,,,,,,,,,,,,,,,,
,,,,,,,,,,stimuli/images/PICTURE_403.png,WRITER,5f0b2c58b8ce4241add340ea,05/12/1995,2020-09-02_12h35.36.415,proactive3.1,2020.1.2,MacIntel,60,5f47c29a48bd2a1e651a6eb7,5f4f816d3cd4d603f1750ba9,1,,,,,,cathedral,,,,,,0,9,9,31,1,4,1,,,,,,,,,,,,,,,,,,,,,,,,,,,,,,,,,,,,,,,,,,,,,,,,,,,,,,,,,,,,,,,,,,,,,,,,,,,,,,,,,,,,,,,,,,,,,,,,,,,,,,,,,,,,,
,,,,,,,,,,stimuli/images/PICTURE_297.png,RIVER,5f0b2c58b8ce4241add340ea,05/12/1995,2020-09-02_12h35.36.415,proactive3.1,2020.1.2,MacIntel,60,5f47c29a48bd2a1e651a6eb7,5f4f816d3cd4d603f1750ba9,1,,,,,,aeroplane,,,,,,0,10,10,39,1,4,1,,,,,,,,,,,,,,,,,,,,,,,,,,,,,,,,,,,,,,,,,,,,,,,,,,,,,,,,,,,,,,,,,,,,,,,,,,,,,,,,,,,,,,,,,,,,,,,,,,,,,,,,,,,,,
,,,,,,,,,,stimuli/images/PICTURE_308.png,FAMILY,5f0b2c58b8ce4241add340ea,05/12/1995,2020-09-02_12h35.36.415,proactive3.1,2020.1.2,MacIntel,60,5f47c29a48bd2a1e651a6eb7,5f4f816d3cd4d603f1750ba9,1,,,,,,dice,,,,,,0,11,11,36,1,4,1,,,,,,,,,,,,,,,,,,,,,,,,,,,,,,,,,,,,,,,,,,,,,,,,,,,,,,,,,,,,,,,,,,,,,,,,,,,,,,,,,,,,,,,,,,,,,,,,,,,,,,,,,,,,,
,,,,,,,,,,stimuli/images/PICTURE_655.png,TOILET,5f0b2c58b8ce4241add340ea,05/12/1995,2020-09-02_12h35.36.415,proactive3.1,2020.1.2,MacIntel,60,5f47c29a48bd2a1e651a6eb7,5f4f816d3cd4d603f1750ba9,1,,,,,,megaphone,,,,,,0,12,12,12,1,2,1,,,,,,,,,,,,,,,,,,,,,,,,,,,,,,,,,,,,,,,,,,,,,,,,,,,,,,,,,,,,,,,,,,,,,,,,,,,,,,,,,,,,,,,,,,,,,,,,,,,,,,,,,,,,,
,,,,,,,,,,stimuli/images/PICTURE_685.png,PENNY,5f0b2c58b8ce4241add340ea,05/12/1995,2020-09-02_12h35.36.415,proactive3.1,2020.1.2,MacIntel,60,5f47c29a48bd2a1e651a6eb7,5f4f816d3cd4d603f1750ba9,1,,,,,,goose,,,,,,0,13,13,4,1,1,1,,,,,,,,,,,,,,,,,,,,,,,,,,,,,,,,,,,,,,,,,,,,,,,,,,,,,,,,,,,,,,,,,,,,,,,,,,,,,,,,,,,,,,,,,,,,,,,,,,,,,,,,,,,,,
,,,,,,,,,,stimuli/images/PICTURE_68.png,ROOF,5f0b2c58b8ce4241add340ea,05/12/1995,2020-09-02_12h35.36.415,proactive3.1,2020.1.2,MacIntel,60,5f47c29a48bd2a1e651a6eb7,5f4f816d3cd4d603f1750ba9,1,,,,,,candle,,,,,,0,14,14,38,1,4,1,,,,,,,,,,,,,,,,,,,,,,,,,,,,,,,,,,,,,,,,,,,,,,,,,,,,,,,,,,,,,,,,,,,,,,,,,,,,,,,,,,,,,,,,,,,,,,,,,,,,,,,,,,,,,
,,,,,,,,,,stimuli/images/PICTURE_449.png,DUDE,5f0b2c58b8ce4241add340ea,05/12/1995,2020-09-02_12h35.36.415,proactive3.1,2020.1.2,MacIntel,60,5f47c29a48bd2a1e651a6eb7,5f4f816d3cd4d603f1750ba9,1,,,,,,bench,,,,,,0,15,15,17,1,2,1,,,,,,,,,,,,,,,,,,,,,,,,,,,,,,,,,,,,,,,,,,,,,,,,,,,,,,,,,,,,,,,,,,,,,,,,,,,,,,,,,,,,,,,,,,,,,,,,,,,,,,,,,,,,,
,,,,,,,,,,stimuli/images/PICTURE_340.png,LETTER,5f0b2c58b8ce4241add340ea,05/12/1995,2020-09-02_12h35.36.415,proactive3.1,2020.1.2,MacIntel,60,5f47c29a48bd2a1e651a6eb7,5f4f816d3cd4d603f1750ba9,1,,,,,,mirror,,,,,,0,16,16,24,1,3,1,,,,,,,,,,,,,,,,,,,,,,,,,,,,,,,,,,,,,,,,,,,,,,,,,,,,,,,,,,,,,,,,,,,,,,,,,,,,,,,,,,,,,,,,,,,,,,,,,,,,,,,,,,,,,
,,,,,,,,,,stimuli/images/PICTURE_203.png,GODS,5f0b2c58b8ce4241add340ea,05/12/1995,2020-09-02_12h35.36.415,proactive3.1,2020.1.2,MacIntel,60,5f47c29a48bd2a1e651a6eb7,5f4f816d3cd4d603f1750ba9,1,,,,,,cap,,,,,,0,17,17,30,1,4,1,,,,,,,,,,,,,,,,,,,,,,,,,,,,,,,,,,,,,,,,,,,,,,,,,,,,,,,,,,,,,,,,,,,,,,,,,,,,,,,,,,,,,,,,,,,,,,,,,,,,,,,,,,,,,
,,,,,,,,,,stimuli/images/PICTURE_2.png,FLIGHT,5f0b2c58b8ce4241add340ea,05/12/1995,2020-09-02_12h35.36.415,proactive3.1,2020.1.2,MacIntel,60,5f47c29a48bd2a1e651a6eb7,5f4f816d3cd4d603f1750ba9,1,,,,,,tyre,,,,,,0,18,18,15,1,2,1,,,,,,,,,,,,,,,,,,,,,,,,,,,,,,,,,,,,,,,,,,,,,,,,,,,,,,,,,,,,,,,,,,,,,,,,,,,,,,,,,,,,,,,,,,,,,,,,,,,,,,,,,,,,,
,,,,,,,,,,stimuli/images/PICTURE_147.png,WOMEN,5f0b2c58b8ce4241add340ea,05/12/1995,2020-09-02_12h35.36.415,proactive3.1,2020.1.2,MacIntel,60,5f47c29a48bd2a1e651a6eb7,5f4f816d3cd4d603f1750ba9,1,,,,,,hanger,,,,,,0,19,19,7,1,1,1,,,,,,,,,,,,,,,,,,,,,,,,,,,,,,,,,,,,,,,,,,,,,,,,,,,,,,,,,,,,,,,,,,,,,,,,,,,,,,,,,,,,,,,,,,,,,,,,,,,,,,,,,,,,,
,,,,,,,,,,stimuli/images/PICTURE_33.png,FRIEND,5f0b2c58b8ce4241add340ea,05/12/1995,2020-09-02_12h35.36.415,proactive3.1,2020.1.2,MacIntel,60,5f47c29a48bd2a1e651a6eb7,5f4f816d3cd4d603f1750ba9,1,,,,,,frame,,,,,,0,20,20,8,1,1,1,,,,,,,,,,,,,,,,,,,,,,,,,,,,,,,,,,,,,,,,,,,,,,,,,,,,,,,,,,,,,,,,,,,,,,,,,,,,,,,,,,,,,,,,,,,,,,,,,,,,,,,,,,,,,
,,,,,,,,,,stimuli/images/PICTURE_564.png,BATH,5f0b2c58b8ce4241add340ea,05/12/1995,2020-09-02_12h35.36.415,proactive3.1,2020.1.2,MacIntel,60,5f47c29a48bd2a1e651a6eb7,5f4f816d3cd4d603f1750ba9,1,,,,,,spoon,,,,,,0,21,21,26,1,3,1,,,,,,,,,,,,,,,,,,,,,,,,,,,,,,,,,,,,,,,,,,,,,,,,,,,,,,,,,,,,,,,,,,,,,,,,,,,,,,,,,,,,,,,,,,,,,,,,,,,,,,,,,,,,,
,,,,,,,,,,stimuli/images/PICTURE_95.png,MILLER,5f0b2c58b8ce4241add340ea,05/12/1995,2020-09-02_12h35.36.415,proactive3.1,2020.1.2,MacIntel,60,5f47c29a48bd2a1e651a6eb7,5f4f816d3cd4d603f1750ba9,1,,,,,,suitcase,,,,,,0,22,22,56,1,6,1,,,,,,,,,,,,,,,,,,,,,,,,,,,,,,,,,,,,,,,,,,,,,,,,,,,,,,,,,,,,,,,,,,,,,,,,,,,,,,,,,,,,,,,,,,,,,,,,,,,,,,,,,,,,,
,,,,,,,,,,stimuli/images/PICTURE_667.png,RIVER,5f0b2c58b8ce4241add340ea,05/12/1995,2020-09-02_12h35.36.415,proactive3.1,2020.1.2,MacIntel,60,5f47c29a48bd2a1e651a6eb7,5f4f816d3cd4d603f1750ba9,1,,,,,,daisy,,,,,,0,23,23,10,1,2,1,,,,,,,,,,,,,,,,,,,,,,,,,,,,,,,,,,,,,,,,,,,,,,,,,,,,,,,,,,,,,,,,,,,,,,,,,,,,,,,,,,,,,,,,,,,,,,,,,,,,,,,,,,,,,
,,,,,,,,,,stimuli/images/PICTURE_467.png,POLICY,5f0b2c58b8ce4241add340ea,05/12/1995,2020-09-02_12h35.36.415,proactive3.1,2020.1.2,MacIntel,60,5f47c29a48bd2a1e651a6eb7,5f4f816d3cd4d603f1750ba9,1,,,,,,peg,,,,,,0,24,24,53,1,6,1,,,,,,,,,,,,,,,,,,,,,,,,,,,,,,,,,,,,,,,,,,,,,,,,,,,,,,,,,,,,,,,,,,,,,,,,,,,,,,,,,,,,,,,,,,,,,,,,,,,,,,,,,,,,,
,,,,,,,,,,stimuli/images/PICTURE_750.png,HOTEL,5f0b2c58b8ce4241add340ea,05/12/1995,2020-09-02_12h35.36.415,proactive3.1,2020.1.2,MacIntel,60,5f47c29a48bd2a1e651a6eb7,5f4f816d3cd4d603f1750ba9,1,,,,,,kettle,,,,,,0,25,25,27,1,3,1,,,,,,,,,,,,,,,,,,,,,,,,,,,,,,,,,,,,,,,,,,,,,,,,,,,,,,,,,,,,,,,,,,,,,,,,,,,,,,,,,,,,,,,,,,,,,,,,,,,,,,,,,,,,,
,,,,,,,,,,stimuli/images/PICTURE_108.png,POLICY,5f0b2c58b8ce4241add340ea,05/12/1995,2020-09-02_12h35.36.415,proactive3.1,2020.1.2,MacIntel,60,5f47c29a48bd2a1e651a6eb7,5f4f816d3cd4d603f1750ba9,1,,,,,,calendar,,,,,,0,26,26,22,1,3,1,,,,,,,,,,,,,,,,,,,,,,,,,,,,,,,,,,,,,,,,,,,,,,,,,,,,,,,,,,,,,,,,,,,,,,,,,,,,,,,,,,,,,,,,,,,,,,,,,,,,,,,,,,,,,
,,,,,,,,,,stimuli/images/PICTURE_491.png,RIVER,5f0b2c58b8ce4241add340ea,05/12/1995,2020-09-02_12h35.36.415,proactive3.1,2020.1.2,MacIntel,60,5f47c29a48bd2a1e651a6eb7,5f4f816d3cd4d603f1750ba9,1,,,,,,rug,,,,,,0,27,27,6,1,1,1,,,,,,,,,,,,,,,,,,,,,,,,,,,,,,,,,,,,,,,,,,,,,,,,,,,,,,,,,,,,,,,,,,,,,,,,,,,,,,,,,,,,,,,,,,,,,,,,,,,,,,,,,,,,,
,,,,,,,,,,stimuli/images/PICTURE_95.png,HONEY,5f0b2c58b8ce4241add340ea,05/12/1995,2020-09-02_12h35.36.415,proactive3.1,2020.1.2,MacIntel,60,5f47c29a48bd2a1e651a6eb7,5f4f816d3cd4d603f1750ba9,1,,,,,,suitcase,,,,,,0,28,28,44,1,5,1,,,,,,,,,,,,,,,,,,,,,,,,,,,,,,,,,,,,,,,,,,,,,,,,,,,,,,,,,,,,,,,,,,,,,,,,,,,,,,,,,,,,,,,,,,,,,,,,,,,,,,,,,,,,,
,,,,,,,,,,stimuli/images/PICTURE_487.png,GIRL,5f0b2c58b8ce4241add340ea,05/12/1995,2020-09-02_12h35.36.415,proactive3.1,2020.1.2,MacIntel,60,5f47c29a48bd2a1e651a6eb7,5f4f816d3cd4d603f1750ba9,1,,,,,,basket,,,,,,0,29,29,45,1,5,1,,,,,,,,,,,,,,,,,,,,,,,,,,,,,,,,,,,,,,,,,,,,,,,,,,,,,,,,,,,,,,,,,,,,,,,,,,,,,,,,,,,,,,,,,,,,,,,,,,,,,,,,,,,,,
,,,,,,,,,,stimuli/images/PICTURE_744.png,WEAPON,5f0b2c58b8ce4241add340ea,05/12/1995,2020-09-02_12h35.36.415,proactive3.1,2020.1.2,MacIntel,60,5f47c29a48bd2a1e651a6eb7,5f4f816d3cd4d603f1750ba9,1,,,,,,ring,,,,,,0,30,30,50,1,6,1,,,,,,,,,,,,,,,,,,,,,,,,,,,,,,,,,,,,,,,,,,,,,,,,,,,,,,,,,,,,,,,,,,,,,,,,,,,,,,,,,,,,,,,,,,,,,,,,,,,,,,,,,,,,,
,,,,,,,,,,stimuli/images/PICTURE_327.png,CASINO,5f0b2c58b8ce4241add340ea,05/12/1995,2020-09-02_12h35.36.415,proactive3.1,2020.1.2,MacIntel,60,5f47c29a48bd2a1e651a6eb7,5f4f816d3cd4d603f1750ba9,1,,,,,,helmet,,,,,,0,31,31,20,1,3,1,,,,,,,,,,,,,,,,,,,,,,,,,,,,,,,,,,,,,,,,,,,,,,,,,,,,,,,,,,,,,,,,,,,,,,,,,,,,,,,,,,,,,,,,,,,,,,,,,,,,,,,,,,,,,
,,,,,,,,,,stimuli/images/PICTURE_654.png,MONTH,5f0b2c58b8ce4241add340ea,05/12/1995,2020-09-02_12h35.36.415,proactive3.1,2020.1.2,MacIntel,60,5f47c29a48bd2a1e651a6eb7,5f4f816d3cd4d603f1750ba9,1,,,,,,pencil,,,,,,0,32,32,29,1,3,1,,,,,,,,,,,,,,,,,,,,,,,,,,,,,,,,,,,,,,,,,,,,,,,,,,,,,,,,,,,,,,,,,,,,,,,,,,,,,,,,,,,,,,,,,,,,,,,,,,,,,,,,,,,,,
,,,,,,,,,,stimuli/images/PICTURE_68.png,MILE,5f0b2c58b8ce4241add340ea,05/12/1995,2020-09-02_12h35.36.415,proactive3.1,2020.1.2,MacIntel,60,5f47c29a48bd2a1e651a6eb7,5f4f816d3cd4d603f1750ba9,1,,,,,,candle,,,,,,0,33,33,51,1,6,1,,,,,,,,,,,,,,,,,,,,,,,,,,,,,,,,,,,,,,,,,,,,,,,,,,,,,,,,,,,,,,,,,,,,,,,,,,,,,,,,,,,,,,,,,,,,,,,,,,,,,,,,,,,,,
,,,,,,,,,,stimuli/images/PICTURE_108.png,FLIGHT,5f0b2c58b8ce4241add340ea,05/12/1995,2020-09-02_12h35.36.415,proactive3.1,2020.1.2,MacIntel,60,5f47c29a48bd2a1e651a6eb7,5f4f816d3cd4d603f1750ba9,1,,,,,,calendar,,,,,,0,34,34,59,1,6,1,,,,,,,,,,,,,,,,,,,,,,,,,,,,,,,,,,,,,,,,,,,,,,,,,,,,,,,,,,,,,,,,,,,,,,,,,,,,,,,,,,,,,,,,,,,,,,,,,,,,,,,,,,,,,
,,,,,,,,,,stimuli/images/PICTURE_147.png,YEAR,5f0b2c58b8ce4241add340ea,05/12/1995,2020-09-02_12h35.36.415,proactive3.1,2020.1.2,MacIntel,60,5f47c29a48bd2a1e651a6eb7,5f4f816d3cd4d603f1750ba9,1,,,,,,hanger,,,,,,0,35,35,21,1,3,1,,,,,,,,,,,,,,,,,,,,,,,,,,,,,,,,,,,,,,,,,,,,,,,,,,,,,,,,,,,,,,,,,,,,,,,,,,,,,,,,,,,,,,,,,,,,,,,,,,,,,,,,,,,,,
,,,,,,,,,,stimuli/images/PICTURE_203.png,NIGHT,5f0b2c58b8ce4241add340ea,05/12/1995,2020-09-02_12h35.36.415,proactive3.1,2020.1.2,MacIntel,60,5f47c29a48bd2a1e651a6eb7,5f4f816d3cd4d603f1750ba9,1,,,,,,cap,,,,,,0,36,36,2,1,1,1,,,,,,,,,,,,,,,,,,,,,,,,,,,,,,,,,,,,,,,,,,,,,,,,,,,,,,,,,,,,,,,,,,,,,,,,,,,,,,,,,,,,,,,,,,,,,,,,,,,,,,,,,,,,,
,,,,,,,,,,stimuli/images/PICTURE_491.png,GLASS,5f0b2c58b8ce4241add340ea,05/12/1995,2020-09-02_12h35.36.415,proactive3.1,2020.1.2,MacIntel,60,5f47c29a48bd2a1e651a6eb7,5f4f816d3cd4d603f1750ba9,1,,,,,,rug,,,,,,0,37,37,14,1,2,1,,,,,,,,,,,,,,,,,,,,,,,,,,,,,,,,,,,,,,,,,,,,,,,,,,,,,,,,,,,,,,,,,,,,,,,,,,,,,,,,,,,,,,,,,,,,,,,,,,,,,,,,,,,,,
,,,,,,,,,,stimuli/images/PICTURE_340.png,VALLEY,5f0b2c58b8ce4241add340ea,05/12/1995,2020-09-02_12h35.36.415,proactive3.1,2020.1.2,MacIntel,60,5f47c29a48bd2a1e651a6eb7,5f4f816d3cd4d603f1750ba9,1,,,,,,mirror,,,,,,0,38,38,54,1,6,1,,,,,,,,,,,,,,,,,,,,,,,,,,,,,,,,,,,,,,,,,,,,,,,,,,,,,,,,,,,,,,,,,,,,,,,,,,,,,,,,,,,,,,,,,,,,,,,,,,,,,,,,,,,,,
,,,,,,,,,,stimuli/images/PICTURE_85.png,TOILET,5f0b2c58b8ce4241add340ea,05/12/1995,2020-09-02_12h35.36.415,proactive3.1,2020.1.2,MacIntel,60,5f47c29a48bd2a1e651a6eb7,5f4f816d3cd4d603f1750ba9,1,,,,,,diamond,,,,,,0,39,39,48,1,5,1,,,,,,,,,,,,,,,,,,,,,,,,,,,,,,,,,,,,,,,,,,,,,,,,,,,,,,,,,,,,,,,,,,,,,,,,,,,,,,,,,,,,,,,,,,,,,,,,,,,,,,,,,,,,,
,,,,,,,,,,stimuli/images/PICTURE_296.png,LOTS,5f0b2c58b8ce4241add340ea,05/12/1995,2020-09-02_12h35.36.415,proactive3.1,2020.1.2,MacIntel,60,5f47c29a48bd2a1e651a6eb7,5f4f816d3cd4d603f1750ba9,1,,,,,,bolt,,,,,,0,40,40,9,1,1,1,,,,,,,,,,,,,,,,,,,,,,,,,,,,,,,,,,,,,,,,,,,,,,,,,,,,,,,,,,,,,,,,,,,,,,,,,,,,,,,,,,,,,,,,,,,,,,,,,,,,,,,,,,,,,
,,,,,,,,,,stimuli/images/PICTURE_95.png,BOYS,5f0b2c58b8ce4241add340ea,05/12/1995,2020-09-02_12h35.36.415,proactive3.1,2020.1.2,MacIntel,60,5f47c29a48bd2a1e651a6eb7,5f4f816d3cd4d603f1750ba9,1,,,,,,suitcase,,,,,,0,41,41,1,1,1,1,,,,,,,,,,,,,,,,,,,,,,,,,,,,,,,,,,,,,,,,,,,,,,,,,,,,,,,,,,,,,,,,,,,,,,,,,,,,,,,,,,,,,,,,,,,,,,,,,,,,,,,,,,,,,
,,,,,,,,,,stimuli/images/PICTURE_405.png,YEAR,5f0b2c58b8ce4241add340ea,05/12/1995,2020-09-02_12h35.36.415,proactive3.1,2020.1.2,MacIntel,60,5f47c29a48bd2a1e651a6eb7,5f4f816d3cd4d603f1750ba9,1,,,,,,anchor,,,,,,0,42,42,34,1,4,1,,,,,,,,,,,,,,,,,,,,,,,,,,,,,,,,,,,,,,,,,,,,,,,,,,,,,,,,,,,,,,,,,,,,,,,,,,,,,,,,,,,,,,,,,,,,,,,,,,,,,,,,,,,,,
,,,,,,,,,,stimuli/images/PICTURE_296.png,LIFE,5f0b2c58b8ce4241add340ea,05/12/1995,2020-09-02_12h35.36.415,proactive3.1,2020.1.2,MacIntel,60,5f47c29a48bd2a1e651a6eb7,5f4f816d3cd4d603f1750ba9,1,,,,,,bolt,,,,,,0,43,43,57,1,6,1,,,,,,,,,,,,,,,,,,,,,,,,,,,,,,,,,,,,,,,,,,,,,,,,,,,,,,,,,,,,,,,,,,,,,,,,,,,,,,,,,,,,,,,,,,,,,,,,,,,,,,,,,,,,,
,,,,,,,,,,stimuli/images/PICTURE_32.png,KIND,5f0b2c58b8ce4241add340ea,05/12/1995,2020-09-02_12h35.36.415,proactive3.1,2020.1.2,MacIntel,60,5f47c29a48bd2a1e651a6eb7,5f4f816d3cd4d603f1750ba9,1,,,,,,crown,,,,,,0,44,44,35,1,4,1,,,,,,,,,,,,,,,,,,,,,,,,,,,,,,,,,,,,,,,,,,,,,,,,,,,,,,,,,,,,,,,,,,,,,,,,,,,,,,,,,,,,,,,,,,,,,,,,,,,,,,,,,,,,,
,,,,,,,,,,stimuli/images/PICTURE_32.png,PILLS,5f0b2c58b8ce4241add340ea,05/12/1995,2020-09-02_12h35.36.415,proactive3.1,2020.1.2,MacIntel,60,5f47c29a48bd2a1e651a6eb7,5f4f816d3cd4d603f1750ba9,1,,,,,,crown,,,,,,0,45,45,18,1,2,1,,,,,,,,,,,,,,,,,,,,,,,,,,,,,,,,,,,,,,,,,,,,,,,,,,,,,,,,,,,,,,,,,,,,,,,,,,,,,,,,,,,,,,,,,,,,,,,,,,,,,,,,,,,,,
,,,,,,,,,,stimuli/images/PICTURE_403.png,TOILET,5f0b2c58b8ce4241add340ea,05/12/1995,2020-09-02_12h35.36.415,proactive3.1,2020.1.2,MacIntel,60,5f47c29a48bd2a1e651a6eb7,5f4f816d3cd4d603f1750ba9,1,,,,,,cathedral,,,,,,0,46,46,25,1,3,1,,,,,,,,,,,,,,,,,,,,,,,,,,,,,,,,,,,,,,,,,,,,,,,,,,,,,,,,,,,,,,,,,,,,,,,,,,,,,,,,,,,,,,,,,,,,,,,,,,,,,,,,,,,,,
,,,,,,,,,,stimuli/images/PICTURE_380.png,HONEY,5f0b2c58b8ce4241add340ea,05/12/1995,2020-09-02_12h35.36.415,proactive3.1,2020.1.2,MacIntel,60,5f47c29a48bd2a1e651a6eb7,5f4f816d3cd4d603f1750ba9,1,,,,,,gorilla,,,,,,0,47,47,19,1,2,1,,,,,,,,,,,,,,,,,,,,,,,,,,,,,,,,,,,,,,,,,,,,,,,,,,,,,,,,,,,,,,,,,,,,,,,,,,,,,,,,,,,,,,,,,,,,,,,,,,,,,,,,,,,,,
,,,,,,,,,,stimuli/images/PICTURE_504.png,COPS,5f0b2c58b8ce4241add340ea,05/12/1995,2020-09-02_12h35.36.415,proactive3.1,2020.1.2,MacIntel,60,5f47c29a48bd2a1e651a6eb7,5f4f816d3cd4d603f1750ba9,1,,,,,,wheel,,,,,,0,48,48,52,1,6,1,,,,,,,,,,,,,,,,,,,,,,,,,,,,,,,,,,,,,,,,,,,,,,,,,,,,,,,,,,,,,,,,,,,,,,,,,,,,,,,,,,,,,,,,,,,,,,,,,,,,,,,,,,,,,
,,,,,,,,,,stimuli/images/PICTURE_380.png,CANDY,5f0b2c58b8ce4241add340ea,05/12/1995,2020-09-02_12h35.36.415,proactive3.1,2020.1.2,MacIntel,60,5f47c29a48bd2a1e651a6eb7,5f4f816d3cd4d603f1750ba9,1,,,,,,gorilla,,,,,,0,49,49,0,1,1,1,,,,,,,,,,,,,,,,,,,,,,,,,,,,,,,,,,,,,,,,,,,,,,,,,,,,,,,,,,,,,,,,,,,,,,,,,,,,,,,,,,,,,,,,,,,,,,,,,,,,,,,,,,,,,
,,,,,,,,,,stimuli/images/PICTURE_177.png,WRITER,5f0b2c58b8ce4241add340ea,05/12/1995,2020-09-02_12h35.36.415,proactive3.1,2020.1.2,MacIntel,60,5f47c29a48bd2a1e651a6eb7,5f4f816d3cd4d603f1750ba9,1,,,,,,mushroom,,,,,,0,50,50,41,1,5,1,,,,,,,,,,,,,,,,,,,,,,,,,,,,,,,,,,,,,,,,,,,,,,,,,,,,,,,,,,,,,,,,,,,,,,,,,,,,,,,,,,,,,,,,,,,,,,,,,,,,,,,,,,,,,
,,,,,,,,,,stimuli/images/PICTURE_85.png,NATION,5f0b2c58b8ce4241add340ea,05/12/1995,2020-09-02_12h35.36.415,proactive3.1,2020.1.2,MacIntel,60,5f47c29a48bd2a1e651a6eb7,5f4f816d3cd4d603f1750ba9,1,,,,,,diamond,,,,,,0,51,51,5,1,1,1,,,,,,,,,,,,,,,,,,,,,,,,,,,,,,,,,,,,,,,,,,,,,,,,,,,,,,,,,,,,,,,,,,,,,,,,,,,,,,,,,,,,,,,,,,,,,,,,,,,,,,,,,,,,,
,,,,,,,,,,stimuli/images/PICTURE_285.png,LIFE,5f0b2c58b8ce4241add340ea,05/12/1995,2020-09-02_12h35.36.415,proactive3.1,2020.1.2,MacIntel,60,5f47c29a48bd2a1e651a6eb7,5f4f816d3cd4d603f1750ba9,1,,,,,,carrot,,,,,,0,52,52,33,1,4,1,,,,,,,,,,,,,,,,,,,,,,,,,,,,,,,,,,,,,,,,,,,,,,,,,,,,,,,,,,,,,,,,,,,,,,,,,,,,,,,,,,,,,,,,,,,,,,,,,,,,,,,,,,,,,
,,,,,,,,,,stimuli/images/PICTURE_675.png,SALE,5f0b2c58b8ce4241add340ea,05/12/1995,2020-09-02_12h35.36.415,proactive3.1,2020.1.2,MacIntel,60,5f47c29a48bd2a1e651a6eb7,5f4f816d3cd4d603f1750ba9,1,,,,,,windmill,,,,,,0,53,53,47,1,5,1,,,,,,,,,,,,,,,,,,,,,,,,,,,,,,,,,,,,,,,,,,,,,,,,,,,,,,,,,,,,,,,,,,,,,,,,,,,,,,,,,,,,,,,,,,,,,,,,,,,,,,,,,,,,,
,,,,,,,,,,stimuli/images/PICTURE_233.png,LOTS,5f0b2c58b8ce4241add340ea,05/12/1995,2020-09-02_12h35.36.415,proactive3.1,2020.1.2,MacIntel,60,5f47c29a48bd2a1e651a6eb7,5f4f816d3cd4d603f1750ba9,1,,,,,,salt,,,,,,0,54,54,42,1,5,1,,,,,,,,,,,,,,,,,,,,,,,,,,,,,,,,,,,,,,,,,,,,,,,,,,,,,,,,,,,,,,,,,,,,,,,,,,,,,,,,,,,,,,,,,,,,,,,,,,,,,,,,,,,,,
,,,,,,,,,,stimuli/images/PICTURE_208.png,SYSTEM,5f0b2c58b8ce4241add340ea,05/12/1995,2020-09-02_12h35.36.415,proactive3.1,2020.1.2,MacIntel,60,5f47c29a48bd2a1e651a6eb7,5f4f816d3cd4d603f1750ba9,1,,,,,,microphone,,,,,,0,55,55,32,1,4,1,,,,,,,,,,,,,,,,,,,,,,,,,,,,,,,,,,,,,,,,,,,,,,,,,,,,,,,,,,,,,,,,,,,,,,,,,,,,,,,,,,,,,,,,,,,,,,,,,,,,,,,,,,,,,
,,,,,,,,,,stimuli/images/PICTURE_708.png,RECORD,5f0b2c58b8ce4241add340ea,05/12/1995,2020-09-02_12h35.36.415,proactive3.1,2020.1.2,MacIntel,60,5f47c29a48bd2a1e651a6eb7,5f4f816d3cd4d603f1750ba9,1,,,,,,monkey,,,,,,0,56,56,58,1,6,1,,,,,,,,,,,,,,,,,,,,,,,,,,,,,,,,,,,,,,,,,,,,,,,,,,,,,,,,,,,,,,,,,,,,,,,,,,,,,,,,,,,,,,,,,,,,,,,,,,,,,,,,,,,,,
,,,,,,,,,,stimuli/images/PICTURE_383.png,SERIES,5f0b2c58b8ce4241add340ea,05/12/1995,2020-09-02_12h35.36.415,proactive3.1,2020.1.2,MacIntel,60,5f47c29a48bd2a1e651a6eb7,5f4f816d3cd4d603f1750ba9,1,,,,,,coin,,,,,,0,57,57,46,1,5,1,,,,,,,,,,,,,,,,,,,,,,,,,,,,,,,,,,,,,,,,,,,,,,,,,,,,,,,,,,,,,,,,,,,,,,,,,,,,,,,,,,,,,,,,,,,,,,,,,,,,,,,,,,,,,
,,,,,,,,,,stimuli/images/PICTURE_504.png,ARTIST,5f0b2c58b8ce4241add340ea,05/12/1995,2020-09-02_12h35.36.415,proactive3.1,2020.1.2,MacIntel,60,5f47c29a48bd2a1e651a6eb7,5f4f816d3cd4d603f1750ba9,1,,,,,,wheel,,,,,,0,58,58,49,1,5,1,,,,,,,,,,,,,,,,,,,,,,,,,,,,,,,,,,,,,,,,,,,,,,,,,,,,,,,,,,,,,,,,,,,,,,,,,,,,,,,,,,,,,,,,,,,,,,,,,,,,,,,,,,,,,
,,SERI,15.004,0,,,,,,stimuli/images/PICTURE_327.png,SERIES,5f0b2c58b8ce4241add340ea,05/12/1995,2020-09-02_12h35.36.415,proactive3.1,2020.1.2,MacIntel,60,5f47c29a48bd2a1e651a6eb7,5f4f816d3cd4d603f1750ba9,1,,,,,,helmet,,,,,,,,,,,1,1,0,0,0,3,1,,,,,,,,,,,,,,,,,,,,,,,,,,,,,,,,,,,,,,,,,,,,,,,,,,,,,,,,,,,,,,,,,,,,,,,,,,,,,,,,,,,,,,,,,,,,,,,,,,,,,,,,
,,?,0.001,0,,,,,,stimuli/images/PICTURE_564.png,BATH,5f0b2c58b8ce4241add340ea,05/12/1995,2020-09-02_12h35.36.415,proactive3.1,2020.1.2,MacIntel,60,5f47c29a48bd2a1e651a6eb7,5f4f816d3cd4d603f1750ba9,1,,,,,,spoon,,,,,,,,,,,3,1,0,1,1,26,1,,,,,,,,,,,,,,,,,,,,,,,,,,,,,,,,,,,,,,,,,,,,,,,,,,,,,,,,,,,,,,,,,,,,,,,,,,,,,,,,,,,,,,,,,,,,,,,,,,,,,,,,
,,?,0.001,0,,,,,,stimuli/images/PICTURE_108.png,FLIGHT,5f0b2c58b8ce4241add340ea,05/12/1995,2020-09-02_12h35.36.415,proactive3.1,2020.1.2,MacIntel,60,5f47c29a48bd2a1e651a6eb7,5f4f816d3cd4d603f1750ba9,1,,,,,,calendar,,,,,,,,,,,6,1,0,2,2,59,1,,,,,,,,,,,,,,,,,,,,,,,,,,,,,,,,,,,,,,,,,,,,,,,,,,,,,,,,,,,,,,,,,,,,,,,,,,,,,,,,,,,,,,,,,,,,,,,,,,,,,,,,
,,PENNY,8.701,0,,,,,,stimuli/images/PICTURE_33.png,FRIEND,5f0b2c58b8ce4241add340ea,05/12/1995,2020-09-02_12h35.36.415,proactive3.1,2020.1.2,MacIntel,60,5f47c29a48bd2a1e651a6eb7,5f4f816d3cd4d603f1750ba9,1,,,,,,frame,,,,,,,,,,,1,1,0,3,3,8,1,,,,,,,,,,,,,,,,,,,,,,,,,,,,,,,,,,,,,,,,,,,,,,,,,,,,,,,,,,,,,,,,,,,,,,,,,,,,,,,,,,,,,,,,,,,,,,,,,,,,,,,,
,,?,0.001,0,,,,,,stimuli/images/PICTURE_339.png,CLIENT,5f0b2c58b8ce4241add340ea,05/12/1995,2020-09-02_12h35.36.415,proactive3.1,2020.1.2,MacIntel,60,5f47c29a48bd2a1e651a6eb7,5f4f816d3cd4d603f1750ba9,1,,,,,,backpack,,,,,,,,,,,2,1,0,4,4,11,1,,,,,,,,,,,,,,,,,,,,,,,,,,,,,,,,,,,,,,,,,,,,,,,,,,,,,,,,,,,,,,,,,,,,,,,,,,,,,,,,,,,,,,,,,,,,,,,,,,,,,,,,
,,?,0.001,0,,,,,,stimuli/images/PICTURE_177.png,WRITER,5f0b2c58b8ce4241add340ea,05/12/1995,2020-09-02_12h35.36.415,proactive3.1,2020.1.2,MacIntel,60,5f47c29a48bd2a1e651a6eb7,5f4f816d3cd4d603f1750ba9,1,,,,,,mushroom,,,,,,,,,,,5,1,0,5,5,41,1,,,,,,,,,,,,,,,,,,,,,,,,,,,,,,,,,,,,,,,,,,,,,,,,,,,,,,,,,,,,,,,,,,,,,,,,,,,,,,,,,,,,,,,,,,,,,,,,,,,,,,,,
,,?,0.001,0,,,,,,stimuli/images/PICTURE_467.png,POLICY,5f0b2c58b8ce4241add340ea,05/12/1995,2020-09-02_12h35.36.415,proactive3.1,2020.1.2,MacIntel,60,5f47c29a48bd2a1e651a6eb7,5f4f816d3cd4d603f1750ba9,1,,,,,,peg,,,,,,,,,,,6,1,0,6,6,53,1,,,,,,,,,,,,,,,,,,,,,,,,,,,,,,,,,,,,,,,,,,,,,,,,,,,,,,,,,,,,,,,,,,,,,,,,,,,,,,,,,,,,,,,,,,,,,,,,,,,,,,,,
,,?,0.002,0,,,,,,stimuli/images/PICTURE_403.png,TOILET,5f0b2c58b8ce4241add340ea,05/12/1995,2020-09-02_12h35.36.415,proactive3.1,2020.1.2,MacIntel,60,5f47c29a48bd2a1e651a6eb7,5f4f816d3cd4d603f1750ba9,1,,,,,,cathedral,,,,,,,,,,,3,1,0,7,7,25,1,,,,,,,,,,,,,,,,,,,,,,,,,,,,,,,,,,,,,,,,,,,,,,,,,,,,,,,,,,,,,,,,,,,,,,,,,,,,,,,,,,,,,,,,,,,,,,,,,,,,,,,,
,,?,0.001,0,,,,,,stimuli/images/PICTURE_68.png,MILE,5f0b2c58b8ce4241add340ea,05/12/1995,2020-09-02_12h35.36.415,proactive3.1,2020.1.2,MacIntel,60,5f47c29a48bd2a1e651a6eb7,5f4f816d3cd4d603f1750ba9,1,,,,,,candle,,,,,,,,,,,6,1,0,8,8,51,1,,,,,,,,,,,,,,,,,,,,,,,,,,,,,,,,,,,,,,,,,,,,,,,,,,,,,,,,,,,,,,,,,,,,,,,,,,,,,,,,,,,,,,,,,,,,,,,,,,,,,,,,
,,?,0.001,0,,,,,,stimuli/images/PICTURE_203.png,GODS,5f0b2c58b8ce4241add340ea,05/12/1995,2020-09-02_12h35.36.415,proactive3.1,2020.1.2,MacIntel,60,5f47c29a48bd2a1e651a6eb7,5f4f816d3cd4d603f1750ba9,1,,,,,,cap,,,,,,,,,,,4,1,0,9,9,30,1,,,,,,,,,,,,,,,,,,,,,,,,,,,,,,,,,,,,,,,,,,,,,,,,,,,,,,,,,,,,,,,,,,,,,,,,,,,,,,,,,,,,,,,,,,,,,,,,,,,,,,,,
,,BOYS,11.647,1,,,,,,stimuli/images/PICTURE_95.png,BOYS,5f0b2c58b8ce4241add340ea,05/12/1995,2020-09-02_12h35.36.415,proactive3.1,2020.1.2,MacIntel,60,5f47c29a48bd2a1e651a6eb7,5f4f816d3cd4d603f1750ba9,1,,,,,,suitcase,,,,,,,,,,,1,1,0,10,10,1,1,,,,,,,,,,,,,,,,,,,,,,,,,,,,,,,,,,,,,,,,,,,,,,,,,,,,,,,,,,,,,,,,,,,,,,,,,,,,,,,,,,,,,,,,,,,,,,,,,,,,,,,,
,,?,0.002,0,,,,,,stimuli/images/PICTURE_504.png,YEAR,5f0b2c58b8ce4241add340ea,05/12/1995,2020-09-02_12h35.36.415,proactive3.1,2020.1.2,MacIntel,60,5f47c29a48bd2a1e651a6eb7,5f4f816d3cd4d603f1750ba9,1,,,,,,wheel,,,,,,,,,,,2,1,0,11,11,13,1,,,,,,,,,,,,,,,,,,,,,,,,,,,,,,,,,,,,,,,,,,,,,,,,,,,,,,,,,,,,,,,,,,,,,,,,,,,,,,,,,,,,,,,,,,,,,,,,,,,,,,,,
,,?,0.001,0,,,,,,stimuli/images/PICTURE_667.png,RIVER,5f0b2c58b8ce4241add340ea,05/12/1995,2020-09-02_12h35.36.415,proactive3.1,2020.1.2,MacIntel,60,5f47c29a48bd2a1e651a6eb7,5f4f816d3cd4d603f1750ba9,1,,,,,,daisy,,,,,,,,,,,2,1,0,12,12,10,1,,,,,,,,,,,,,,,,,,,,,,,,,,,,,,,,,,,,,,,,,,,,,,,,,,,,,,,,,,,,,,,,,,,,,,,,,,,,,,,,,,,,,,,,,,,,,,,,,,,,,,,,
,,RIVER,6.779,1,,,,,,stimuli/images/PICTURE_491.png,RIVER,5f0b2c58b8ce4241add340ea,05/12/1995,2020-09-02_12h35.36.415,proactive3.1,2020.1.2,MacIntel,60,5f47c29a48bd2a1e651a6eb7,5f4f816d3cd4d603f1750ba9,1,,,,,,rug,,,,,,,,,,,1,1,0,13,13,6,1,,,,,,,,,,,,,,,,,,,,,,,,,,,,,,,,,,,,,,,,,,,,,,,,,,,,,,,,,,,,,,,,,,,,,,,,,,,,,,,,,,,,,,,,,,,,,,,,,,,,,,,,
,,?,0.001,0,,,,,,stimuli/images/PICTURE_42.png,BOYS,5f0b2c58b8ce4241add340ea,05/12/1995,2020-09-02_12h35.36.415,proactive3.1,2020.1.2,MacIntel,60,5f47c29a48bd2a1e651a6eb7,5f4f816d3cd4d603f1750ba9,1,,,,,,pear,,,,,,,,,,,6,1,0,14,14,55,1,,,,,,,,,,,,,,,,,,,,,,,,,,,,,,,,,,,,,,,,,,,,,,,,,,,,,,,,,,,,,,,,,,,,,,,,,,,,,,,,,,,,,,,,,,,,,,,,,,,,,,,,
,,?,0.001,0,,,,,,stimuli/images/PICTURE_68.png,ROOF,5f0b2c58b8ce4241add340ea,05/12/1995,2020-09-02_12h35.36.415,proactive3.1,2020.1.2,MacIntel,60,5f47c29a48bd2a1e651a6eb7,5f4f816d3cd4d603f1750ba9,1,,,,,,candle,,,,,,,,,,,4,1,0,15,15,38,1,,,,,,,,,,,,,,,,,,,,,,,,,,,,,,,,,,,,,,,,,,,,,,,,,,,,,,,,,,,,,,,,,,,,,,,,,,,,,,,,,,,,,,,,,,,,,,,,,,,,,,,,
,,?,0.002,0,,,,,,stimuli/images/PICTURE_750.png,HOTEL,5f0b2c58b8ce4241add340ea,05/12/1995,2020-09-02_12h35.36.415,proactive3.1,2020.1.2,MacIntel,60,5f47c29a48bd2a1e651a6eb7,5f4f816d3cd4d603f1750ba9,1,,,,,,kettle,,,,,,,,,,,3,1,0,16,16,27,1,,,,,,,,,,,,,,,,,,,,,,,,,,,,,,,,,,,,,,,,,,,,,,,,,,,,,,,,,,,,,,,,,,,,,,,,,,,,,,,,,,,,,,,,,,,,,,,,,,,,,,,,
,,PENNY,2.561,0,,,,,,stimuli/images/PICTURE_380.png,CANDY,5f0b2c58b8ce4241add340ea,05/12/1995,2020-09-02_12h35.36.415,proactive3.1,2020.1.2,MacIntel,60,5f47c29a48bd2a1e651a6eb7,5f4f816d3cd4d603f1750ba9,1,,,,,,gorilla,,,,,,,,,,,1,1,0,17,17,0,1,,,,,,,,,,,,,,,,,,,,,,,,,,,,,,,,,,,,,,,,,,,,,,,,,,,,,,,,,,,,,,,,,,,,,,,,,,,,,,,,,,,,,,,,,,,,,,,,,,,,,,,,
,,?,0.002,0,,,,,,stimuli/images/PICTURE_655.png,TOILET,5f0b2c58b8ce4241add340ea,05/12/1995,2020-09-02_12h35.36.415,proactive3.1,2020.1.2,MacIntel,60,5f47c29a48bd2a1e651a6eb7,5f4f816d3cd4d603f1750ba9,1,,,,,,megaphone,,,,,,,,,,,2,1,0,18,18,12,1,,,,,,,,,,,,,,,,,,,,,,,,,,,,,,,,,,,,,,,,,,,,,,,,,,,,,,,,,,,,,,,,,,,,,,,,,,,,,,,,,,,,,,,,,,,,,,,,,,,,,,,,
,,?,0.002,0,,,,,,stimuli/images/PICTURE_405.png,YEAR,5f0b2c58b8ce4241add340ea,05/12/1995,2020-09-02_12h35.36.415,proactive3.1,2020.1.2,MacIntel,60,5f47c29a48bd2a1e651a6eb7,5f4f816d3cd4d603f1750ba9,1,,,,,,anchor,,,,,,,,,,,4,1,0,19,19,34,1,,,,,,,,,,,,,,,,,,,,,,,,,,,,,,,,,,,,,,,,,,,,,,,,,,,,,,,,,,,,,,,,,,,,,,,,,,,,,,,,,,,,,,,,,,,,,,,,,,,,,,,,
,,?,0.001,0,,,,,,stimuli/images/PICTURE_95.png,HONEY,5f0b2c58b8ce4241add340ea,05/12/1995,2020-09-02_12h35.36.415,proactive3.1,2020.1.2,MacIntel,60,5f47c29a48bd2a1e651a6eb7,5f4f816d3cd4d603f1750ba9,1,,,,,,suitcase,,,,,,,,,,,5,1,0,20,20,44,1,,,,,,,,,,,,,,,,,,,,,,,,,,,,,,,,,,,,,,,,,,,,,,,,,,,,,,,,,,,,,,,,,,,,,,,,,,,,,,,,,,,,,,,,,,,,,,,,,,,,,,,,
,,SERIES,4.761,0,,,,,,stimuli/images/PICTURE_85.png,NATION,5f0b2c58b8ce4241add340ea,05/12/1995,2020-09-02_12h35.36.415,proactive3.1,2020.1.2,MacIntel,60,5f47c29a48bd2a1e651a6eb7,5f4f816d3cd4d603f1750ba9,1,,,,,,diamond,,,,,,,,,,,1,1,0,21,21,5,1,,,,,,,,,,,,,,,,,,,,,,,,,,,,,,,,,,,,,,,,,,,,,,,,,,,,,,,,,,,,,,,,,,,,,,,,,,,,,,,,,,,,,,,,,,,,,,,,,,,,,,,,
,,?,0.002,0,,,,,,stimuli/images/PICTURE_403.png,RIVER,5f0b2c58b8ce4241add340ea,05/12/1995,2020-09-02_12h35.36.415,proactive3.1,2020.1.2,MacIntel,60,5f47c29a48bd2a1e651a6eb7,5f4f816d3cd4d603f1750ba9,1,,,,,,cathedral,,,,,,,,,,,5,1,0,22,22,40,1,,,,,,,,,,,,,,,,,,,,,,,,,,,,,,,,,,,,,,,,,,,,,,,,,,,,,,,,,,,,,,,,,,,,,,,,,,,,,,,,,,,,,,,,,,,,,,,,,,,,,,,,
,,?,0.001,0,,,,,,stimuli/images/PICTURE_654.png,MONTH,5f0b2c58b8ce4241add340ea,05/12/1995,2020-09-02_12h35.36.415,proactive3.1,2020.1.2,MacIntel,60,5f47c29a48bd2a1e651a6eb7,5f4f816d3cd4d603f1750ba9,1,,,,,,pencil,,,,,,,,,,,3,1,0,23,23,29,1,,,,,,,,,,,,,,,,,,,,,,,,,,,,,,,,,,,,,,,,,,,,,,,,,,,,,,,,,,,,,,,,,,,,,,,,,,,,,,,,,,,,,,,,,,,,,,,,,,,,,,,,
,,?,0.001,0,,,,,,stimuli/images/PICTURE_675.png,SALE,5f0b2c58b8ce4241add340ea,05/12/1995,2020-09-02_12h35.36.415,proactive3.1,2020.1.2,MacIntel,60,5f47c29a48bd2a1e651a6eb7,5f4f816d3cd4d603f1750ba9,1,,,,,,windmill,,,,,,,,,,,5,1,0,24,24,47,1,,,,,,,,,,,,,,,,,,,,,,,,,,,,,,,,,,,,,,,,,,,,,,,,,,,,,,,,,,,,,,,,,,,,,,,,,,,,,,,,,,,,,,,,,,,,,,,,,,,,,,,,
,,HAT,2.089,0,,,,,,stimuli/images/PICTURE_203.png,NIGHT,5f0b2c58b8ce4241add340ea,05/12/1995,2020-09-02_12h35.36.415,proactive3.1,2020.1.2,MacIntel,60,5f47c29a48bd2a1e651a6eb7,5f4f816d3cd4d603f1750ba9,1,,,,,,cap,,,,,,,,,,,1,1,0,25,25,2,1,,,,,,,,,,,,,,,,,,,,,,,,,,,,,,,,,,,,,,,,,,,,,,,,,,,,,,,,,,,,,,,,,,,,,,,,,,,,,,,,,,,,,,,,,,,,,,,,,,,,,,,,
,,?,0.002,0,,,,,,stimuli/images/PICTURE_297.png,RIVER,5f0b2c58b8ce4241add340ea,05/12/1995,2020-09-02_12h35.36.415,proactive3.1,2020.1.2,MacIntel,60,5f47c29a48bd2a1e651a6eb7,5f4f816d3cd4d603f1750ba9,1,,,,,,aeroplane,,,,,,,,,,,4,1,0,26,26,39,1,,,,,,,,,,,,,,,,,,,,,,,,,,,,,,,,,,,,,,,,,,,,,,,,,,,,,,,,,,,,,,,,,,,,,,,,,,,,,,,,,,,,,,,,,,,,,,,,,,,,,,,,
,,?,0.001,0,,,,,,stimuli/images/PICTURE_285.png,LIFE,5f0b2c58b8ce4241add340ea,05/12/1995,2020-09-02_12h35.36.415,proactive3.1,2020.1.2,MacIntel,60,5f47c29a48bd2a1e651a6eb7,5f4f816d3cd4d603f1750ba9,1,,,,,,carrot,,,,,,,,,,,4,1,0,27,27,33,1,,,,,,,,,,,,,,,,,,,,,,,,,,,,,,,,,,,,,,,,,,,,,,,,,,,,,,,,,,,,,,,,,,,,,,,,,,,,,,,,,,,,,,,,,,,,,,,,,,,,,,,,
,,?,0.001,0,,,,,,stimuli/images/PICTURE_95.png,MILLER,5f0b2c58b8ce4241add340ea,05/12/1995,2020-09-02_12h35.36.415,proactive3.1,2020.1.2,MacIntel,60,5f47c29a48bd2a1e651a6eb7,5f4f816d3cd4d603f1750ba9,1,,,,,,suitcase,,,,,,,,,,,6,1,0,28,28,56,1,,,,,,,,,,,,,,,,,,,,,,,,,,,,,,,,,,,,,,,,,,,,,,,,,,,,,,,,,,,,,,,,,,,,,,,,,,,,,,,,,,,,,,,,,,,,,,,,,,,,,,,,
,,?,0.001,0,,,,,,stimuli/images/PICTURE_57.png,MOMENT,5f0b2c58b8ce4241add340ea,05/12/1995,2020-09-02_12h35.36.415,proactive3.1,2020.1.2,MacIntel,60,5f47c29a48bd2a1e651a6eb7,5f4f816d3cd4d603f1750ba9,1,,,,,,stamp,,,,,,,,,,,4,1,0,29,29,37,1,,,,,,,,,,,,,,,,,,,,,,,,,,,,,,,,,,,,,,,,,,,,,,,,,,,,,,,,,,,,,,,,,,,,,,,,,,,,,,,,,,,,,,,,,,,,,,,,,,,,,,,,
,,TYRE,6.446,0,,,,,,stimuli/images/PICTURE_296.png,LOTS,5f0b2c58b8ce4241add340ea,05/12/1995,2020-09-02_12h35.36.415,proactive3.1,2020.1.2,MacIntel,60,5f47c29a48bd2a1e651a6eb7,5f4f816d3cd4d603f1750ba9,1,,,,,,bolt,,,,,,,,,,,1,1,0,30,30,9,1,,,,,,,,,,,,,,,,,,,,,,,,,,,,,,,,,,,,,,,,,,,,,,,,,,,,,,,,,,,,,,,,,,,,,,,,,,,,,,,,,,,,,,,,,,,,,,,,,,,,,,,,
,,?,0.001,0,,,,,,stimuli/images/PICTURE_380.png,HONEY,5f0b2c58b8ce4241add340ea,05/12/1995,2020-09-02_12h35.36.415,proactive3.1,2020.1.2,MacIntel,60,5f47c29a48bd2a1e651a6eb7,5f4f816d3cd4d603f1750ba9,1,,,,,,gorilla,,,,,,,,,,,2,1,0,31,31,19,1,,,,,,,,,,,,,,,,,,,,,,,,,,,,,,,,,,,,,,,,,,,,,,,,,,,,,,,,,,,,,,,,,,,,,,,,,,,,,,,,,,,,,,,,,,,,,,,,,,,,,,,,
,,?,0.001,0,,,,,,stimuli/images/PICTURE_296.png,LIFE,5f0b2c58b8ce4241add340ea,05/12/1995,2020-09-02_12h35.36.415,proactive3.1,2020.1.2,MacIntel,60,5f47c29a48bd2a1e651a6eb7,5f4f816d3cd4d603f1750ba9,1,,,,,,bolt,,,,,,,,,,,6,1,0,32,32,57,1,,,,,,,,,,,,,,,,,,,,,,,,,,,,,,,,,,,,,,,,,,,,,,,,,,,,,,,,,,,,,,,,,,,,,,,,,,,,,,,,,,,,,,,,,,,,,,,,,,,,,,,,
,,?,0.001,0,,,,,,stimuli/images/PICTURE_677.png,APPLE,5f0b2c58b8ce4241add340ea,05/12/1995,2020-09-02_12h35.36.415,proactive3.1,2020.1.2,MacIntel,60,5f47c29a48bd2a1e651a6eb7,5f4f816d3cd4d603f1750ba9,1,,,,,,map,,,,,,,,,,,5,1,0,33,33,43,1,,,,,,,,,,,,,,,,,,,,,,,,,,,,,,,,,,,,,,,,,,,,,,,,,,,,,,,,,,,,,,,,,,,,,,,,,,,,,,,,,,,,,,,,,,,,,,,,,,,,,,,,
,,?,0,0,,,,,,stimuli/images/PICTURE_233.png,LOTS,5f0b2c58b8ce4241add340ea,05/12/1995,2020-09-02_12h35.36.415,proactive3.1,2020.1.2,MacIntel,60,5f47c29a48bd2a1e651a6eb7,5f4f816d3cd4d603f1750ba9,1,,,,,,salt,,,,,,,,,,,5,1,0,34,34,42,1,,,,,,,,,,,,,,,,,,,,,,,,,,,,,,,,,,,,,,,,,,,,,,,,,,,,,,,,,,,,,,,,,,,,,,,,,,,,,,,,,,,,,,,,,,,,,,,,,,,,,,,,
,,?,0.001,0,,,,,,stimuli/images/PICTURE_85.png,TOILET,5f0b2c58b8ce4241add340ea,05/12/1995,2020-09-02_12h35.36.415,proactive3.1,2020.1.2,MacIntel,60,5f47c29a48bd2a1e651a6eb7,5f4f816d3cd4d603f1750ba9,1,,,,,,diamond,,,,,,,,,,,5,1,0,35,35,48,1,,,,,,,,,,,,,,,,,,,,,,,,,,,,,,,,,,,,,,,,,,,,,,,,,,,,,,,,,,,,,,,,,,,,,,,,,,,,,,,,,,,,,,,,,,,,,,,,,,,,,,,,
,,?,0.001,0,,,,,,stimuli/images/PICTURE_504.png,COPS,5f0b2c58b8ce4241add340ea,05/12/1995,2020-09-02_12h35.36.415,proactive3.1,2020.1.2,MacIntel,60,5f47c29a48bd2a1e651a6eb7,5f4f816d3cd4d603f1750ba9,1,,,,,,wheel,,,,,,,,,,,6,1,0,36,36,52,1,,,,,,,,,,,,,,,,,,,,,,,,,,,,,,,,,,,,,,,,,,,,,,,,,,,,,,,,,,,,,,,,,,,,,,,,,,,,,,,,,,,,,,,,,,,,,,,,,,,,,,,,
,,?,0.001,0,,,,,,stimuli/images/PICTURE_208.png,SYSTEM,5f0b2c58b8ce4241add340ea,05/12/1995,2020-09-02_12h35.36.415,proactive3.1,2020.1.2,MacIntel,60,5f47c29a48bd2a1e651a6eb7,5f4f816d3cd4d603f1750ba9,1,,,,,,microphone,,,,,,,,,,,4,1,0,37,37,32,1,,,,,,,,,,,,,,,,,,,,,,,,,,,,,,,,,,,,,,,,,,,,,,,,,,,,,,,,,,,,,,,,,,,,,,,,,,,,,,,,,,,,,,,,,,,,,,,,,,,,,,,,
,,?,0,0,,,,,,stimuli/images/PICTURE_2.png,FLIGHT,5f0b2c58b8ce4241add340ea,05/12/1995,2020-09-02_12h35.36.415,proactive3.1,2020.1.2,MacIntel,60,5f47c29a48bd2a1e651a6eb7,5f4f816d3cd4d603f1750ba9,1,,,,,,tyre,,,,,,,,,,,2,1,0,38,38,15,1,,,,,,,,,,,,,,,,,,,,,,,,,,,,,,,,,,,,,,,,,,,,,,,,,,,,,,,,,,,,,,,,,,,,,,,,,,,,,,,,,,,,,,,,,,,,,,,,,,,,,,,,
,,HANGER,2.034,0,,,,,,stimuli/images/PICTURE_147.png,WOMEN,5f0b2c58b8ce4241add340ea,05/12/1995,2020-09-02_12h35.36.415,proactive3.1,2020.1.2,MacIntel,60,5f47c29a48bd2a1e651a6eb7,5f4f816d3cd4d603f1750ba9,1,,,,,,hanger,,,,,,,,,,,1,1,0,39,39,7,1,,,,,,,,,,,,,,,,,,,,,,,,,,,,,,,,,,,,,,,,,,,,,,,,,,,,,,,,,,,,,,,,,,,,,,,,,,,,,,,,,,,,,,,,,,,,,,,,,,,,,,,,
,,?,0.002,0,,,,,,stimuli/images/PICTURE_708.png,RECORD,5f0b2c58b8ce4241add340ea,05/12/1995,2020-09-02_12h35.36.415,proactive3.1,2020.1.2,MacIntel,60,5f47c29a48bd2a1e651a6eb7,5f4f816d3cd4d603f1750ba9,1,,,,,,monkey,,,,,,,,,,,6,1,0,40,40,58,1,,,,,,,,,,,,,,,,,,,,,,,,,,,,,,,,,,,,,,,,,,,,,,,,,,,,,,,,,,,,,,,,,,,,,,,,,,,,,,,,,,,,,,,,,,,,,,,,,,,,,,,,
,,?,0.001,0,,,,,,stimuli/images/PICTURE_340.png,VALLEY,5f0b2c58b8ce4241add340ea,05/12/1995,2020-09-02_12h35.36.415,proactive3.1,2020.1.2,MacIntel,60,5f47c29a48bd2a1e651a6eb7,5f4f816d3cd4d603f1750ba9,1,,,,,,mirror,,,,,,,,,,,6,1,0,41,41,54,1,,,,,,,,,,,,,,,,,,,,,,,,,,,,,,,,,,,,,,,,,,,,,,,,,,,,,,,,,,,,,,,,,,,,,,,,,,,,,,,,,,,,,,,,,,,,,,,,,,,,,,,,
,,?,0.001,0,,,,,,stimuli/images/PICTURE_327.png,CASINO,5f0b2c58b8ce4241add340ea,05/12/1995,2020-09-02_12h35.36.415,proactive3.1,2020.1.2,MacIntel,60,5f47c29a48bd2a1e651a6eb7,5f4f816d3cd4d603f1750ba9,1,,,,,,helmet,,,,,,,,,,,3,1,0,42,42,20,1,,,,,,,,,,,,,,,,,,,,,,,,,,,,,,,,,,,,,,,,,,,,,,,,,,,,,,,,,,,,,,,,,,,,,,,,,,,,,,,,,,,,,,,,,,,,,,,,,,,,,,,,
,,?,0.001,0,,,,,,stimuli/images/PICTURE_744.png,WEAPON,5f0b2c58b8ce4241add340ea,05/12/1995,2020-09-02_12h35.36.415,proactive3.1,2020.1.2,MacIntel,60,5f47c29a48bd2a1e651a6eb7,5f4f816d3cd4d603f1750ba9,1,,,,,,ring,,,,,,,,,,,6,1,0,43,43,50,1,,,,,,,,,,,,,,,,,,,,,,,,,,,,,,,,,,,,,,,,,,,,,,,,,,,,,,,,,,,,,,,,,,,,,,,,,,,,,,,,,,,,,,,,,,,,,,,,,,,,,,,,
,,?,0.001,0,,,,,,stimuli/images/PICTURE_469.png,AGENT,5f0b2c58b8ce4241add340ea,05/12/1995,2020-09-02_12h35.36.415,proactive3.1,2020.1.2,MacIntel,60,5f47c29a48bd2a1e651a6eb7,5f4f816d3cd4d603f1750ba9,1,,,,,,stool,,,,,,,,,,,2,1,0,44,44,16,1,,,,,,,,,,,,,,,,,,,,,,,,,,,,,,,,,,,,,,,,,,,,,,,,,,,,,,,,,,,,,,,,,,,,,,,,,,,,,,,,,,,,,,,,,,,,,,,,,,,,,,,,
,,?,0,0,,,,,,stimuli/images/PICTURE_147.png,YEAR,5f0b2c58b8ce4241add340ea,05/12/1995,2020-09-02_12h35.36.415,proactive3.1,2020.1.2,MacIntel,60,5f47c29a48bd2a1e651a6eb7,5f4f816d3cd4d603f1750ba9,1,,,,,,hanger,,,,,,,,,,,3,1,0,45,45,21,1,,,,,,,,,,,,,,,,,,,,,,,,,,,,,,,,,,,,,,,,,,,,,,,,,,,,,,,,,,,,,,,,,,,,,,,,,,,,,,,,,,,,,,,,,,,,,,,,,,,,,,,,
,,?,0.001,0,,,,,,stimuli/images/PICTURE_340.png,LETTER,5f0b2c58b8ce4241add340ea,05/12/1995,2020-09-02_12h35.36.415,proactive3.1,2020.1.2,MacIntel,60,5f47c29a48bd2a1e651a6eb7,5f4f816d3cd4d603f1750ba9,1,,,,,,mirror,,,,,,,,,,,3,1,0,46,46,24,1,,,,,,,,,,,,,,,,,,,,,,,,,,,,,,,,,,,,,,,,,,,,,,,,,,,,,,,,,,,,,,,,,,,,,,,,,,,,,,,,,,,,,,,,,,,,,,,,,,,,,,,,
,,?,0.001,0,,,,,,stimuli/images/PICTURE_383.png,SERIES,5f0b2c58b8ce4241add340ea,05/12/1995,2020-09-02_12h35.36.415,proactive3.1,2020.1.2,MacIntel,60,5f47c29a48bd2a1e651a6eb7,5f4f816d3cd4d603f1750ba9,1,,,,,,coin,,,,,,,,,,,5,1,0,47,47,46,1,,,,,,,,,,,,,,,,,,,,,,,,,,,,,,,,,,,,,,,,,,,,,,,,,,,,,,,,,,,,,,,,,,,,,,,,,,,,,,,,,,,,,,,,,,,,,,,,,,,,,,,,
,,?,0.001,0,,,,,,stimuli/images/PICTURE_491.png,GLASS,5f0b2c58b8ce4241add340ea,05/12/1995,2020-09-02_12h35.36.415,proactive3.1,2020.1.2,MacIntel,60,5f47c29a48bd2a1e651a6eb7,5f4f816d3cd4d603f1750ba9,1,,,,,,rug,,,,,,,,,,,2,1,0,48,48,14,1,,,,,,,,,,,,,,,,,,,,,,,,,,,,,,,,,,,,,,,,,,,,,,,,,,,,,,,,,,,,,,,,,,,,,,,,,,,,,,,,,,,,,,,,,,,,,,,,,,,,,,,,
,,BIRD,2.402,0,,,,,,stimuli/images/PICTURE_685.png,PENNY,5f0b2c58b8ce4241add340ea,05/12/1995,2020-09-02_12h35.36.415,proactive3.1,2020.1.2,MacIntel,60,5f47c29a48bd2a1e651a6eb7,5f4f816d3cd4d603f1750ba9,1,,,,,,goose,,,,,,,,,,,1,1,0,49,49,4,1,,,,,,,,,,,,,,,,,,,,,,,,,,,,,,,,,,,,,,,,,,,,,,,,,,,,,,,,,,,,,,,,,,,,,,,,,,,,,,,,,,,,,,,,,,,,,,,,,,,,,,,,
,,?,0.001,0,,,,,,stimuli/images/PICTURE_403.png,WRITER,5f0b2c58b8ce4241add340ea,05/12/1995,2020-09-02_12h35.36.415,proactive3.1,2020.1.2,MacIntel,60,5f47c29a48bd2a1e651a6eb7,5f4f816d3cd4d603f1750ba9,1,,,,,,cathedral,,,,,,,,,,,4,1,0,50,50,31,1,,,,,,,,,,,,,,,,,,,,,,,,,,,,,,,,,,,,,,,,,,,,,,,,,,,,,,,,,,,,,,,,,,,,,,,,,,,,,,,,,,,,,,,,,,,,,,,,,,,,,,,,
,,?,0.003,0,,,,,,stimuli/images/PICTURE_32.png,PILLS,5f0b2c58b8ce4241add340ea,05/12/1995,2020-09-02_12h35.36.415,proactive3.1,2020.1.2,MacIntel,60,5f47c29a48bd2a1e651a6eb7,5f4f816d3cd4d603f1750ba9,1,,,,,,crown,,,,,,,,,,,2,1,0,51,51,18,1,,,,,,,,,,,,,,,,,,,,,,,,,,,,,,,,,,,,,,,,,,,,,,,,,,,,,,,,,,,,,,,,,,,,,,,,,,,,,,,,,,,,,,,,,,,,,,,,,,,,,,,,
,,?,0.001,0,,,,,,stimuli/images/PICTURE_108.png,POLICY,5f0b2c58b8ce4241add340ea,05/12/1995,2020-09-02_12h35.36.415,proactive3.1,2020.1.2,MacIntel,60,5f47c29a48bd2a1e651a6eb7,5f4f816d3cd4d603f1750ba9,1,,,,,,calendar,,,,,,,,,,,3,1,0,52,52,22,1,,,,,,,,,,,,,,,,,,,,,,,,,,,,,,,,,,,,,,,,,,,,,,,,,,,,,,,,,,,,,,,,,,,,,,,,,,,,,,,,,,,,,,,,,,,,,,,,,,,,,,,,
,,?,0.001,0,,,,,,stimuli/images/PICTURE_308.png,FAMILY,5f0b2c58b8ce4241add340ea,05/12/1995,2020-09-02_12h35.36.415,proactive3.1,2020.1.2,MacIntel,60,5f47c29a48bd2a1e651a6eb7,5f4f816d3cd4d603f1750ba9,1,,,,,,dice,,,,,,,,,,,4,1,0,53,53,36,1,,,,,,,,,,,,,,,,,,,,,,,,,,,,,,,,,,,,,,,,,,,,,,,,,,,,,,,,,,,,,,,,,,,,,,,,,,,,,,,,,,,,,,,,,,,,,,,,,,,,,,,,
,,?,0.001,0,,,,,,stimuli/images/PICTURE_449.png,DUDE,5f0b2c58b8ce4241add340ea,05/12/1995,2020-09-02_12h35.36.415,proactive3.1,2020.1.2,MacIntel,60,5f47c29a48bd2a1e651a6eb7,5f4f816d3cd4d603f1750ba9,1,,,,,,bench,,,,,,,,,,,2,1,0,54,54,17,1,,,,,,,,,,,,,,,,,,,,,,,,,,,,,,,,,,,,,,,,,,,,,,,,,,,,,,,,,,,,,,,,,,,,,,,,,,,,,,,,,,,,,,,,,,,,,,,,,,,,,,,,
,,?,0.001,0,,,,,,stimuli/images/PICTURE_487.png,GIRL,5f0b2c58b8ce4241add340ea,05/12/1995,2020-09-02_12h35.36.415,proactive3.1,2020.1.2,MacIntel,60,5f47c29a48bd2a1e651a6eb7,5f4f816d3cd4d603f1750ba9,1,,,,,,basket,,,,,,,,,,,5,1,0,55,55,45,1,,,,,,,,,,,,,,,,,,,,,,,,,,,,,,,,,,,,,,,,,,,,,,,,,,,,,,,,,,,,,,,,,,,,,,,,,,,,,,,,,,,,,,,,,,,,,,,,,,,,,,,,
,,?,0,0,,,,,,stimuli/images/PICTURE_504.png,ARTIST,5f0b2c58b8ce4241add340ea,05/12/1995,2020-09-02_12h35.36.415,proactive3.1,2020.1.2,MacIntel,60,5f47c29a48bd2a1e651a6eb7,5f4f816d3cd4d603f1750ba9,1,,,,,,wheel,,,,,,,,,,,5,1,0,56,56,49,1,,,,,,,,,,,,,,,,,,,,,,,,,,,,,,,,,,,,,,,,,,,,,,,,,,,,,,,,,,,,,,,,,,,,,,,,,,,,,,,,,,,,,,,,,,,,,,,,,,,,,,,,
,,?,0.001,0,,,,,,stimuli/images/PICTURE_383.png,WRITER,5f0b2c58b8ce4241add340ea,05/12/1995,2020-09-02_12h35.36.415,proactive3.1,2020.1.2,MacIntel,60,5f47c29a48bd2a1e651a6eb7,5f4f816d3cd4d603f1750ba9,1,,,,,,coin,,,,,,,,,,,3,1,0,57,57,28,1,,,,,,,,,,,,,,,,,,,,,,,,,,,,,,,,,,,,,,,,,,,,,,,,,,,,,,,,,,,,,,,,,,,,,,,,,,,,,,,,,,,,,,,,,,,,,,,,,,,,,,,,
,,?,0.001,0,,,,,,stimuli/images/PICTURE_405.png,PLENTY,5f0b2c58b8ce4241add340ea,05/12/1995,2020-09-02_12h35.36.415,proactive3.1,2020.1.2,MacIntel,60,5f47c29a48bd2a1e651a6eb7,5f4f816d3cd4d603f1750ba9,1,,,,,,anchor,,,,,,,,,,,3,1,0,58,58,23,1,,,,,,,,,,,,,,,,,,,,,,,,,,,,,,,,,,,,,,,,,,,,,,,,,,,,,,,,,,,,,,,,,,,,,,,,,,,,,,,,,,,,,,,,,,,,,,,,,,,,,,,,
,,?,0.001,0,,,,,,stimuli/images/PICTURE_32.png,KIND,5f0b2c58b8ce4241add340ea,05/12/1995,2020-09-02_12h35.36.415,proactive3.1,2020.1.2,MacIntel,60,5f47c29a48bd2a1e651a6eb7,5f4f816d3cd4d603f1750ba9,1,,,,,,crown,,,,,,,,,,,4,1,0,59,59,35,1,,,,,,,,,,,,,,,,,,,,,,,,,,,,,,,,,,,,,,,,,,,,,,,,,,,,,,,,,,,,,,,,,,,,,,,,,,,,,,,,,,,,,,,,,,,,,,,,,,,,,,,,
,,,,,,,,,,,,5f0b2c58b8ce4241add340ea,05/12/1995,2020-09-02_12h35.36.415,proactive3.1,2020.1.2,MacIntel,60,5f47c29a48bd2a1e651a6eb7,5f4f816d3cd4d603f1750ba9,1,,,,,,,,,,,,,,,,,,,,,,,,0,0,0,1,1,stimuli/learn-block2.csv,,,,,,,,,,,,,,,,,,,,,,,,,,,,,,,,,,,,,,,,,,,,,,,,,,,,,,,,,,,,,,,,,,,,,,,,,,,,,,,,,,,,,,,,,,,,,,,,,,
,,,,,,,,,,stimuli/images/PICTURE_177.png,CARS,5f0b2c58b8ce4241add340ea,05/12/1995,2020-09-02_12h35.36.415,proactive3.1,2020.1.2,MacIntel,60,5f47c29a48bd2a1e651a6eb7,5f4f816d3cd4d603f1750ba9,1,,,,,,mushroom,,,,,,0,0,0,35,1,4,0,,,,,,,,,,,,,,,,,,,,,,,,,,,,,,,,,,,,,,,,,,,,,,,,,,,,,,,,,,,,,,,,,,,,,,,,,,,,,,,,,,,,,,,,,,,,,,,,,,,,,,,,,,,,,
,,,,,,,,,,stimuli/images/PICTURE_449.png,THING,5f0b2c58b8ce4241add340ea,05/12/1995,2020-09-02_12h35.36.415,proactive3.1,2020.1.2,MacIntel,60,5f47c29a48bd2a1e651a6eb7,5f4f816d3cd4d603f1750ba9,1,,,,,,bench,,,,,,0,1,1,59,1,6,0,,,,,,,,,,,,,,,,,,,,,,,,,,,,,,,,,,,,,,,,,,,,,,,,,,,,,,,,,,,,,,,,,,,,,,,,,,,,,,,,,,,,,,,,,,,,,,,,,,,,,,,,,,,,,
,,,,,,,,,,stimuli/images/PICTURE_308.png,KIND,5f0b2c58b8ce4241add340ea,05/12/1995,2020-09-02_12h35.36.415,proactive3.1,2020.1.2,MacIntel,60,5f47c29a48bd2a1e651a6eb7,5f4f816d3cd4d603f1750ba9,1,,,,,,dice,,,,,,0,2,2,54,1,6,0,,,,,,,,,,,,,,,,,,,,,,,,,,,,,,,,,,,,,,,,,,,,,,,,,,,,,,,,,,,,,,,,,,,,,,,,,,,,,,,,,,,,,,,,,,,,,,,,,,,,,,,,,,,,,
,,,,,,,,,,stimuli/images/PICTURE_677.png,MILE,5f0b2c58b8ce4241add340ea,05/12/1995,2020-09-02_12h35.36.415,proactive3.1,2020.1.2,MacIntel,60,5f47c29a48bd2a1e651a6eb7,5f4f816d3cd4d603f1750ba9,1,,,,,,map,,,,,,0,3,3,30,1,4,0,,,,,,,,,,,,,,,,,,,,,,,,,,,,,,,,,,,,,,,,,,,,,,,,,,,,,,,,,,,,,,,,,,,,,,,,,,,,,,,,,,,,,,,,,,,,,,,,,,,,,,,,,,,,,
,,,,,,,,,,stimuli/images/PICTURE_208.png,LOTS,5f0b2c58b8ce4241add340ea,05/12/1995,2020-09-02_12h35.36.415,proactive3.1,2020.1.2,MacIntel,60,5f47c29a48bd2a1e651a6eb7,5f4f816d3cd4d603f1750ba9,1,,,,,,microphone,,,,,,0,4,4,10,1,2,0,,,,,,,,,,,,,,,,,,,,,,,,,,,,,,,,,,,,,,,,,,,,,,,,,,,,,,,,,,,,,,,,,,,,,,,,,,,,,,,,,,,,,,,,,,,,,,,,,,,,,,,,,,,,,
,,,,,,,,,,stimuli/images/PICTURE_509.png,PHOTO,5f0b2c58b8ce4241add340ea,05/12/1995,2020-09-02_12h35.36.415,proactive3.1,2020.1.2,MacIntel,60,5f47c29a48bd2a1e651a6eb7,5f4f816d3cd4d603f1750ba9,1,,,,,,telephone,,,,,,0,5,5,21,1,3,0,,,,,,,,,,,,,,,,,,,,,,,,,,,,,,,,,,,,,,,,,,,,,,,,,,,,,,,,,,,,,,,,,,,,,,,,,,,,,,,,,,,,,,,,,,,,,,,,,,,,,,,,,,,,,
,,,,,,,,,,stimuli/images/PICTURE_311.png,BEAUTY,5f0b2c58b8ce4241add340ea,05/12/1995,2020-09-02_12h35.36.415,proactive3.1,2020.1.2,MacIntel,60,5f47c29a48bd2a1e651a6eb7,5f4f816d3cd4d603f1750ba9,1,,,,,,razor,,,,,,0,6,6,13,1,2,0,,,,,,,,,,,,,,,,,,,,,,,,,,,,,,,,,,,,,,,,,,,,,,,,,,,,,,,,,,,,,,,,,,,,,,,,,,,,,,,,,,,,,,,,,,,,,,,,,,,,,,,,,,,,,
,,,,,,,,,,stimuli/images/PICTURE_147.png,MOMENT,5f0b2c58b8ce4241add340ea,05/12/1995,2020-09-02_12h35.36.415,proactive3.1,2020.1.2,MacIntel,60,5f47c29a48bd2a1e651a6eb7,5f4f816d3cd4d603f1750ba9,1,,,,,,hanger,,,,,,0,7,7,51,1,6,0,,,,,,,,,,,,,,,,,,,,,,,,,,,,,,,,,,,,,,,,,,,,,,,,,,,,,,,,,,,,,,,,,,,,,,,,,,,,,,,,,,,,,,,,,,,,,,,,,,,,,,,,,,,,,
,,,,,,,,,,stimuli/images/PICTURE_302.png,FAMILY,5f0b2c58b8ce4241add340ea,05/12/1995,2020-09-02_12h35.36.415,proactive3.1,2020.1.2,MacIntel,60,5f47c29a48bd2a1e651a6eb7,5f4f816d3cd4d603f1750ba9,1,,,,,,taxi,,,,,,0,8,8,18,1,2,0,,,,,,,,,,,,,,,,,,,,,,,,,,,,,,,,,,,,,,,,,,,,,,,,,,,,,,,,,,,,,,,,,,,,,,,,,,,,,,,,,,,,,,,,,,,,,,,,,,,,,,,,,,,,,
,,,,,,,,,,stimuli/images/PICTURE_356.png,DANGER,5f0b2c58b8ce4241add340ea,05/12/1995,2020-09-02_12h35.36.415,proactive3.1,2020.1.2,MacIntel,60,5f47c29a48bd2a1e651a6eb7,5f4f816d3cd4d603f1750ba9,1,,,,,,pawn,,,,,,0,9,9,55,1,6,0,,,,,,,,,,,,,,,,,,,,,,,,,,,,,,,,,,,,,,,,,,,,,,,,,,,,,,,,,,,,,,,,,,,,,,,,,,,,,,,,,,,,,,,,,,,,,,,,,,,,,,,,,,,,,
,,,,,,,,,,stimuli/images/PICTURE_123.png,ADVICE,5f0b2c58b8ce4241add340ea,05/12/1995,2020-09-02_12h35.36.415,proactive3.1,2020.1.2,MacIntel,60,5f47c29a48bd2a1e651a6eb7,5f4f816d3cd4d603f1750ba9,1,,,,,,dart,,,,,,0,10,10,40,1,5,0,,,,,,,,,,,,,,,,,,,,,,,,,,,,,,,,,,,,,,,,,,,,,,,,,,,,,,,,,,,,,,,,,,,,,,,,,,,,,,,,,,,,,,,,,,,,,,,,,,,,,,,,,,,,,
,,,,,,,,,,stimuli/images/PICTURE_32.png,JUNGLE,5f0b2c58b8ce4241add340ea,05/12/1995,2020-09-02_12h35.36.415,proactive3.1,2020.1.2,MacIntel,60,5f47c29a48bd2a1e651a6eb7,5f4f816d3cd4d603f1750ba9,1,,,,,,crown,,,,,,0,11,11,45,1,5,0,,,,,,,,,,,,,,,,,,,,,,,,,,,,,,,,,,,,,,,,,,,,,,,,,,,,,,,,,,,,,,,,,,,,,,,,,,,,,,,,,,,,,,,,,,,,,,,,,,,,,,,,,,,,,
,,,,,,,,,,stimuli/images/PICTURE_160.png,FEET,5f0b2c58b8ce4241add340ea,05/12/1995,2020-09-02_12h35.36.415,proactive3.1,2020.1.2,MacIntel,60,5f47c29a48bd2a1e651a6eb7,5f4f816d3cd4d603f1750ba9,1,,,,,,wheelbarrow,,,,,,0,12,12,58,1,6,0,,,,,,,,,,,,,,,,,,,,,,,,,,,,,,,,,,,,,,,,,,,,,,,,,,,,,,,,,,,,,,,,,,,,,,,,,,,,,,,,,,,,,,,,,,,,,,,,,,,,,,,,,,,,,
,,,,,,,,,,stimuli/images/PICTURE_744.png,SAKE,5f0b2c58b8ce4241add340ea,05/12/1995,2020-09-02_12h35.36.415,proactive3.1,2020.1.2,MacIntel,60,5f47c29a48bd2a1e651a6eb7,5f4f816d3cd4d603f1750ba9,1,,,,,,ring,,,,,,0,13,13,17,1,2,0,,,,,,,,,,,,,,,,,,,,,,,,,,,,,,,,,,,,,,,,,,,,,,,,,,,,,,,,,,,,,,,,,,,,,,,,,,,,,,,,,,,,,,,,,,,,,,,,,,,,,,,,,,,,,
,,,,,,,,,,stimuli/images/PICTURE_675.png,WEAPON,5f0b2c58b8ce4241add340ea,05/12/1995,2020-09-02_12h35.36.415,proactive3.1,2020.1.2,MacIntel,60,5f47c29a48bd2a1e651a6eb7,5f4f816d3cd4d603f1750ba9,1,,,,,,windmill,,,,,,0,14,14,32,1,4,0,,,,,,,,,,,,,,,,,,,,,,,,,,,,,,,,,,,,,,,,,,,,,,,,,,,,,,,,,,,,,,,,,,,,,,,,,,,,,,,,,,,,,,,,,,,,,,,,,,,,,,,,,,,,,
,,,,,,,,,,stimuli/images/PICTURE_667.png,PLENTY,5f0b2c58b8ce4241add340ea,05/12/1995,2020-09-02_12h35.36.415,proactive3.1,2020.1.2,MacIntel,60,5f47c29a48bd2a1e651a6eb7,5f4f816d3cd4d603f1750ba9,1,,,,,,daisy,,,,,,0,15,15,41,1,5,0,,,,,,,,,,,,,,,,,,,,,,,,,,,,,,,,,,,,,,,,,,,,,,,,,,,,,,,,,,,,,,,,,,,,,,,,,,,,,,,,,,,,,,,,,,,,,,,,,,,,,,,,,,,,,
,,,,,,,,,,stimuli/images/PICTURE_95.png,STYLE,5f0b2c58b8ce4241add340ea,05/12/1995,2020-09-02_12h35.36.415,proactive3.1,2020.1.2,MacIntel,60,5f47c29a48bd2a1e651a6eb7,5f4f816d3cd4d603f1750ba9,1,,,,,,suitcase,,,,,,0,16,16,25,1,3,0,,,,,,,,,,,,,,,,,,,,,,,,,,,,,,,,,,,,,,,,,,,,,,,,,,,,,,,,,,,,,,,,,,,,,,,,,,,,,,,,,,,,,,,,,,,,,,,,,,,,,,,,,,,,,
,,,,,,,,,,stimuli/images/PICTURE_348.png,SPEECH,5f0b2c58b8ce4241add340ea,05/12/1995,2020-09-02_12h35.36.415,proactive3.1,2020.1.2,MacIntel,60,5f47c29a48bd2a1e651a6eb7,5f4f816d3cd4d603f1750ba9,1,,,,,,pepper,,,,,,0,17,17,20,1,3,0,,,,,,,,,,,,,,,,,,,,,,,,,,,,,,,,,,,,,,,,,,,,,,,,,,,,,,,,,,,,,,,,,,,,,,,,,,,,,,,,,,,,,,,,,,,,,,,,,,,,,,,,,,,,,
,,,,,,,,,,stimuli/images/PICTURE_688.png,CASINO,5f0b2c58b8ce4241add340ea,05/12/1995,2020-09-02_12h35.36.415,proactive3.1,2020.1.2,MacIntel,60,5f47c29a48bd2a1e651a6eb7,5f4f816d3cd4d603f1750ba9,1,,,,,,runner,,,,,,0,18,18,2,1,1,0,,,,,,,,,,,,,,,,,,,,,,,,,,,,,,,,,,,,,,,,,,,,,,,,,,,,,,,,,,,,,,,,,,,,,,,,,,,,,,,,,,,,,,,,,,,,,,,,,,,,,,,,,,,,,
,,,,,,,,,,stimuli/images/PICTURE_160.png,LEADER,5f0b2c58b8ce4241add340ea,05/12/1995,2020-09-02_12h35.36.415,proactive3.1,2020.1.2,MacIntel,60,5f47c29a48bd2a1e651a6eb7,5f4f816d3cd4d603f1750ba9,1,,,,,,wheelbarrow,,,,,,0,19,19,3,1,1,0,,,,,,,,,,,,,,,,,,,,,,,,,,,,,,,,,,,,,,,,,,,,,,,,,,,,,,,,,,,,,,,,,,,,,,,,,,,,,,,,,,,,,,,,,,,,,,,,,,,,,,,,,,,,,
,,,,,,,,,,stimuli/images/PICTURE_233.png,IDEAS,5f0b2c58b8ce4241add340ea,05/12/1995,2020-09-02_12h35.36.415,proactive3.1,2020.1.2,MacIntel,60,5f47c29a48bd2a1e651a6eb7,5f4f816d3cd4d603f1750ba9,1,,,,,,salt,,,,,,0,20,20,28,1,3,0,,,,,,,,,,,,,,,,,,,,,,,,,,,,,,,,,,,,,,,,,,,,,,,,,,,,,,,,,,,,,,,,,,,,,,,,,,,,,,,,,,,,,,,,,,,,,,,,,,,,,,,,,,,,,
,,,,,,,,,,stimuli/images/PICTURE_487.png,FLIGHT,5f0b2c58b8ce4241add340ea,05/12/1995,2020-09-02_12h35.36.415,proactive3.1,2020.1.2,MacIntel,60,5f47c29a48bd2a1e651a6eb7,5f4f816d3cd4d603f1750ba9,1,,,,,,basket,,,,,,0,21,21,9,1,1,0,,,,,,,,,,,,,,,,,,,,,,,,,,,,,,,,,,,,,,,,,,,,,,,,,,,,,,,,,,,,,,,,,,,,,,,,,,,,,,,,,,,,,,,,,,,,,,,,,,,,,,,,,,,,,
,,,,,,,,,,stimuli/images/PICTURE_248.png,DOZEN,5f0b2c58b8ce4241add340ea,05/12/1995,2020-09-02_12h35.36.415,proactive3.1,2020.1.2,MacIntel,60,5f47c29a48bd2a1e651a6eb7,5f4f816d3cd4d603f1750ba9,1,,,,,,cart,,,,,,0,22,22,39,1,4,0,,,,,,,,,,,,,,,,,,,,,,,,,,,,,,,,,,,,,,,,,,,,,,,,,,,,,,,,,,,,,,,,,,,,,,,,,,,,,,,,,,,,,,,,,,,,,,,,,,,,,,,,,,,,,
,,,,,,,,,,stimuli/images/PICTURE_311.png,FRIEND,5f0b2c58b8ce4241add340ea,05/12/1995,2020-09-02_12h35.36.415,proactive3.1,2020.1.2,MacIntel,60,5f47c29a48bd2a1e651a6eb7,5f4f816d3cd4d603f1750ba9,1,,,,,,razor,,,,,,0,23,23,34,1,4,0,,,,,,,,,,,,,,,,,,,,,,,,,,,,,,,,,,,,,,,,,,,,,,,,,,,,,,,,,,,,,,,,,,,,,,,,,,,,,,,,,,,,,,,,,,,,,,,,,,,,,,,,,,,,,
,,,,,,,,,,stimuli/images/PICTURE_215.png,PLENTY,5f0b2c58b8ce4241add340ea,05/12/1995,2020-09-02_12h35.36.415,proactive3.1,2020.1.2,MacIntel,60,5f47c29a48bd2a1e651a6eb7,5f4f816d3cd4d603f1750ba9,1,,,,,,boot,,,,,,0,24,24,37,1,4,0,,,,,,,,,,,,,,,,,,,,,,,,,,,,,,,,,,,,,,,,,,,,,,,,,,,,,,,,,,,,,,,,,,,,,,,,,,,,,,,,,,,,,,,,,,,,,,,,,,,,,,,,,,,,,
,,,,,,,,,,stimuli/images/PICTURE_469.png,ARTIST,5f0b2c58b8ce4241add340ea,05/12/1995,2020-09-02_12h35.36.415,proactive3.1,2020.1.2,MacIntel,60,5f47c29a48bd2a1e651a6eb7,5f4f816d3cd4d603f1750ba9,1,,,,,,stool,,,,,,0,25,25,6,1,1,0,,,,,,,,,,,,,,,,,,,,,,,,,,,,,,,,,,,,,,,,,,,,,,,,,,,,,,,,,,,,,,,,,,,,,,,,,,,,,,,,,,,,,,,,,,,,,,,,,,,,,,,,,,,,,
,,,,,,,,,,stimuli/images/PICTURE_380.png,PHOTO,5f0b2c58b8ce4241add340ea,05/12/1995,2020-09-02_12h35.36.415,proactive3.1,2020.1.2,MacIntel,60,5f47c29a48bd2a1e651a6eb7,5f4f816d3cd4d603f1750ba9,1,,,,,,gorilla,,,,,,0,26,26,52,1,6,0,,,,,,,,,,,,,,,,,,,,,,,,,,,,,,,,,,,,,,,,,,,,,,,,,,,,,,,,,,,,,,,,,,,,,,,,,,,,,,,,,,,,,,,,,,,,,,,,,,,,,,,,,,,,,
,,,,,,,,,,stimuli/images/PICTURE_491.png,WRITER,5f0b2c58b8ce4241add340ea,05/12/1995,2020-09-02_12h35.36.415,proactive3.1,2020.1.2,MacIntel,60,5f47c29a48bd2a1e651a6eb7,5f4f816d3cd4d603f1750ba9,1,,,,,,rug,,,,,,0,27,27,57,1,6,0,,,,,,,,,,,,,,,,,,,,,,,,,,,,,,,,,,,,,,,,,,,,,,,,,,,,,,,,,,,,,,,,,,,,,,,,,,,,,,,,,,,,,,,,,,,,,,,,,,,,,,,,,,,,,
,,,,,,,,,,stimuli/images/PICTURE_203.png,ARTIST,5f0b2c58b8ce4241add340ea,05/12/1995,2020-09-02_12h35.36.415,proactive3.1,2020.1.2,MacIntel,60,5f47c29a48bd2a1e651a6eb7,5f4f816d3cd4d603f1750ba9,1,,,,,,cap,,,,,,0,28,28,26,1,3,0,,,,,,,,,,,,,,,,,,,,,,,,,,,,,,,,,,,,,,,,,,,,,,,,,,,,,,,,,,,,,,,,,,,,,,,,,,,,,,,,,,,,,,,,,,,,,,,,,,,,,,,,,,,,,
,,,,,,,,,,stimuli/images/PICTURE_123.png,ADVICE,5f0b2c58b8ce4241add340ea,05/12/1995,2020-09-02_12h35.36.415,proactive3.1,2020.1.2,MacIntel,60,5f47c29a48bd2a1e651a6eb7,5f4f816d3cd4d603f1750ba9,1,,,,,,dart,,,,,,0,29,29,50,1,6,0,,,,,,,,,,,,,,,,,,,,,,,,,,,,,,,,,,,,,,,,,,,,,,,,,,,,,,,,,,,,,,,,,,,,,,,,,,,,,,,,,,,,,,,,,,,,,,,,,,,,,,,,,,,,,
,,,,,,,,,,stimuli/images/PICTURE_504.png,BODY,5f0b2c58b8ce4241add340ea,05/12/1995,2020-09-02_12h35.36.415,proactive3.1,2020.1.2,MacIntel,60,5f47c29a48bd2a1e651a6eb7,5f4f816d3cd4d603f1750ba9,1,,,,,,wheel,,,,,,0,30,30,8,1,1,0,,,,,,,,,,,,,,,,,,,,,,,,,,,,,,,,,,,,,,,,,,,,,,,,,,,,,,,,,,,,,,,,,,,,,,,,,,,,,,,,,,,,,,,,,,,,,,,,,,,,,,,,,,,,,
,,,,,,,,,,stimuli/images/PICTURE_491.png,ROOF,5f0b2c58b8ce4241add340ea,05/12/1995,2020-09-02_12h35.36.415,proactive3.1,2020.1.2,MacIntel,60,5f47c29a48bd2a1e651a6eb7,5f4f816d3cd4d603f1750ba9,1,,,,,,rug,,,,,,0,31,31,24,1,3,0,,,,,,,,,,,,,,,,,,,,,,,,,,,,,,,,,,,,,,,,,,,,,,,,,,,,,,,,,,,,,,,,,,,,,,,,,,,,,,,,,,,,,,,,,,,,,,,,,,,,,,,,,,,,,
,,,,,,,,,,stimuli/images/PICTURE_208.png,MONTH,5f0b2c58b8ce4241add340ea,05/12/1995,2020-09-02_12h35.36.415,proactive3.1,2020.1.2,MacIntel,60,5f47c29a48bd2a1e651a6eb7,5f4f816d3cd4d603f1750ba9,1,,,,,,microphone,,,,,,0,32,32,53,1,6,0,,,,,,,,,,,,,,,,,,,,,,,,,,,,,,,,,,,,,,,,,,,,,,,,,,,,,,,,,,,,,,,,,,,,,,,,,,,,,,,,,,,,,,,,,,,,,,,,,,,,,,,,,,,,,
,,,,,,,,,,stimuli/images/PICTURE_453.png,DUDE,5f0b2c58b8ce4241add340ea,05/12/1995,2020-09-02_12h35.36.415,proactive3.1,2020.1.2,MacIntel,60,5f47c29a48bd2a1e651a6eb7,5f4f816d3cd4d603f1750ba9,1,,,,,,scissors,,,,,,0,33,33,27,1,3,0,,,,,,,,,,,,,,,,,,,,,,,,,,,,,,,,,,,,,,,,,,,,,,,,,,,,,,,,,,,,,,,,,,,,,,,,,,,,,,,,,,,,,,,,,,,,,,,,,,,,,,,,,,,,,
,,,,,,,,,,stimuli/images/PICTURE_708.png,CLIENT,5f0b2c58b8ce4241add340ea,05/12/1995,2020-09-02_12h35.36.415,proactive3.1,2020.1.2,MacIntel,60,5f47c29a48bd2a1e651a6eb7,5f4f816d3cd4d603f1750ba9,1,,,,,,monkey,,,,,,0,34,34,5,1,1,0,,,,,,,,,,,,,,,,,,,,,,,,,,,,,,,,,,,,,,,,,,,,,,,,,,,,,,,,,,,,,,,,,,,,,,,,,,,,,,,,,,,,,,,,,,,,,,,,,,,,,,,,,,,,,
,,,,,,,,,,stimuli/images/PICTURE_308.png,ESTATE,5f0b2c58b8ce4241add340ea,05/12/1995,2020-09-02_12h35.36.415,proactive3.1,2020.1.2,MacIntel,60,5f47c29a48bd2a1e651a6eb7,5f4f816d3cd4d603f1750ba9,1,,,,,,dice,,,,,,0,35,35,46,1,5,0,,,,,,,,,,,,,,,,,,,,,,,,,,,,,,,,,,,,,,,,,,,,,,,,,,,,,,,,,,,,,,,,,,,,,,,,,,,,,,,,,,,,,,,,,,,,,,,,,,,,,,,,,,,,,
,,,,,,,,,,stimuli/images/PICTURE_488.png,STYLE,5f0b2c58b8ce4241add340ea,05/12/1995,2020-09-02_12h35.36.415,proactive3.1,2020.1.2,MacIntel,60,5f47c29a48bd2a1e651a6eb7,5f4f816d3cd4d603f1750ba9,1,,,,,,sun,,,,,,0,36,36,33,1,4,0,,,,,,,,,,,,,,,,,,,,,,,,,,,,,,,,,,,,,,,,,,,,,,,,,,,,,,,,,,,,,,,,,,,,,,,,,,,,,,,,,,,,,,,,,,,,,,,,,,,,,,,,,,,,,
,,,,,,,,,,stimuli/images/PICTURE_470.png,CASINO,5f0b2c58b8ce4241add340ea,05/12/1995,2020-09-02_12h35.36.415,proactive3.1,2020.1.2,MacIntel,60,5f47c29a48bd2a1e651a6eb7,5f4f816d3cd4d603f1750ba9,1,,,,,,motorbike,,,,,,0,37,37,36,1,4,0,,,,,,,,,,,,,,,,,,,,,,,,,,,,,,,,,,,,,,,,,,,,,,,,,,,,,,,,,,,,,,,,,,,,,,,,,,,,,,,,,,,,,,,,,,,,,,,,,,,,,,,,,,,,,
,,,,,,,,,,stimuli/images/PICTURE_285.png,ADVICE,5f0b2c58b8ce4241add340ea,05/12/1995,2020-09-02_12h35.36.415,proactive3.1,2020.1.2,MacIntel,60,5f47c29a48bd2a1e651a6eb7,5f4f816d3cd4d603f1750ba9,1,,,,,,carrot,,,,,,0,38,38,12,1,2,0,,,,,,,,,,,,,,,,,,,,,,,,,,,,,,,,,,,,,,,,,,,,,,,,,,,,,,,,,,,,,,,,,,,,,,,,,,,,,,,,,,,,,,,,,,,,,,,,,,,,,,,,,,,,,
,,,,,,,,,,stimuli/images/PICTURE_85.png,THING,5f0b2c58b8ce4241add340ea,05/12/1995,2020-09-02_12h35.36.415,proactive3.1,2020.1.2,MacIntel,60,5f47c29a48bd2a1e651a6eb7,5f4f816d3cd4d603f1750ba9,1,,,,,,diamond,,,,,,0,39,39,15,1,2,0,,,,,,,,,,,,,,,,,,,,,,,,,,,,,,,,,,,,,,,,,,,,,,,,,,,,,,,,,,,,,,,,,,,,,,,,,,,,,,,,,,,,,,,,,,,,,,,,,,,,,,,,,,,,,
,,,,,,,,,,stimuli/images/PICTURE_255.png,AREA,5f0b2c58b8ce4241add340ea,05/12/1995,2020-09-02_12h35.36.415,proactive3.1,2020.1.2,MacIntel,60,5f47c29a48bd2a1e651a6eb7,5f4f816d3cd4d603f1750ba9,1,,,,,,shovel,,,,,,0,40,40,22,1,3,0,,,,,,,,,,,,,,,,,,,,,,,,,,,,,,,,,,,,,,,,,,,,,,,,,,,,,,,,,,,,,,,,,,,,,,,,,,,,,,,,,,,,,,,,,,,,,,,,,,,,,,,,,,,,,
,,,,,,,,,,stimuli/images/PICTURE_467.png,DEMON,5f0b2c58b8ce4241add340ea,05/12/1995,2020-09-02_12h35.36.415,proactive3.1,2020.1.2,MacIntel,60,5f47c29a48bd2a1e651a6eb7,5f4f816d3cd4d603f1750ba9,1,,,,,,peg,,,,,,0,41,41,23,1,3,0,,,,,,,,,,,,,,,,,,,,,,,,,,,,,,,,,,,,,,,,,,,,,,,,,,,,,,,,,,,,,,,,,,,,,,,,,,,,,,,,,,,,,,,,,,,,,,,,,,,,,,,,,,,,,
,,,,,,,,,,stimuli/images/PICTURE_708.png,PENNY,5f0b2c58b8ce4241add340ea,05/12/1995,2020-09-02_12h35.36.415,proactive3.1,2020.1.2,MacIntel,60,5f47c29a48bd2a1e651a6eb7,5f4f816d3cd4d603f1750ba9,1,,,,,,monkey,,,,,,0,42,42,31,1,4,0,,,,,,,,,,,,,,,,,,,,,,,,,,,,,,,,,,,,,,,,,,,,,,,,,,,,,,,,,,,,,,,,,,,,,,,,,,,,,,,,,,,,,,,,,,,,,,,,,,,,,,,,,,,,,
,,,,,,,,,,stimuli/images/PICTURE_327.png,BEAUTY,5f0b2c58b8ce4241add340ea,05/12/1995,2020-09-02_12h35.36.415,proactive3.1,2020.1.2,MacIntel,60,5f47c29a48bd2a1e651a6eb7,5f4f816d3cd4d603f1750ba9,1,,,,,,helmet,,,,,,0,43,43,48,1,5,0,,,,,,,,,,,,,,,,,,,,,,,,,,,,,,,,,,,,,,,,,,,,,,,,,,,,,,,,,,,,,,,,,,,,,,,,,,,,,,,,,,,,,,,,,,,,,,,,,,,,,,,,,,,,,
,,,,,,,,,,stimuli/images/PICTURE_380.png,DEATH,5f0b2c58b8ce4241add340ea,05/12/1995,2020-09-02_12h35.36.415,proactive3.1,2020.1.2,MacIntel,60,5f47c29a48bd2a1e651a6eb7,5f4f816d3cd4d603f1750ba9,1,,,,,,gorilla,,,,,,0,44,44,49,1,5,0,,,,,,,,,,,,,,,,,,,,,,,,,,,,,,,,,,,,,,,,,,,,,,,,,,,,,,,,,,,,,,,,,,,,,,,,,,,,,,,,,,,,,,,,,,,,,,,,,,,,,,,,,,,,,
,,,,,,,,,,stimuli/images/PICTURE_314.png,SAKE,5f0b2c58b8ce4241add340ea,05/12/1995,2020-09-02_12h35.36.415,proactive3.1,2020.1.2,MacIntel,60,5f47c29a48bd2a1e651a6eb7,5f4f816d3cd4d603f1750ba9,1,,,,,,perfume,,,,,,0,45,45,7,1,1,0,,,,,,,,,,,,,,,,,,,,,,,,,,,,,,,,,,,,,,,,,,,,,,,,,,,,,,,,,,,,,,,,,,,,,,,,,,,,,,,,,,,,,,,,,,,,,,,,,,,,,,,,,,,,,
,,,,,,,,,,stimuli/images/PICTURE_692.png,MONTH,5f0b2c58b8ce4241add340ea,05/12/1995,2020-09-02_12h35.36.415,proactive3.1,2020.1.2,MacIntel,60,5f47c29a48bd2a1e651a6eb7,5f4f816d3cd4d603f1750ba9,1,,,,,,cherry,,,,,,0,46,46,16,1,2,0,,,,,,,,,,,,,,,,,,,,,,,,,,,,,,,,,,,,,,,,,,,,,,,,,,,,,,,,,,,,,,,,,,,,,,,,,,,,,,,,,,,,,,,,,,,,,,,,,,,,,,,,,,,,,
,,,,,,,,,,stimuli/images/PICTURE_208.png,THING,5f0b2c58b8ce4241add340ea,05/12/1995,2020-09-02_12h35.36.415,proactive3.1,2020.1.2,MacIntel,60,5f47c29a48bd2a1e651a6eb7,5f4f816d3cd4d603f1750ba9,1,,,,,,microphone,,,,,,0,47,47,47,1,5,0,,,,,,,,,,,,,,,,,,,,,,,,,,,,,,,,,,,,,,,,,,,,,,,,,,,,,,,,,,,,,,,,,,,,,,,,,,,,,,,,,,,,,,,,,,,,,,,,,,,,,,,,,,,,,
,,,,,,,,,,stimuli/images/PICTURE_708.png,YARD,5f0b2c58b8ce4241add340ea,05/12/1995,2020-09-02_12h35.36.415,proactive3.1,2020.1.2,MacIntel,60,5f47c29a48bd2a1e651a6eb7,5f4f816d3cd4d603f1750ba9,1,,,,,,monkey,,,,,,0,48,48,29,1,3,0,,,,,,,,,,,,,,,,,,,,,,,,,,,,,,,,,,,,,,,,,,,,,,,,,,,,,,,,,,,,,,,,,,,,,,,,,,,,,,,,,,,,,,,,,,,,,,,,,,,,,,,,,,,,,
,,,,,,,,,,stimuli/images/PICTURE_688.png,WOMEN,5f0b2c58b8ce4241add340ea,05/12/1995,2020-09-02_12h35.36.415,proactive3.1,2020.1.2,MacIntel,60,5f47c29a48bd2a1e651a6eb7,5f4f816d3cd4d603f1750ba9,1,,,,,,runner,,,,,,0,49,49,14,1,2,0,,,,,,,,,,,,,,,,,,,,,,,,,,,,,,,,,,,,,,,,,,,,,,,,,,,,,,,,,,,,,,,,,,,,,,,,,,,,,,,,,,,,,,,,,,,,,,,,,,,,,,,,,,,,,
,,,,,,,,,,stimuli/images/PICTURE_68.png,MILE,5f0b2c58b8ce4241add340ea,05/12/1995,2020-09-02_12h35.36.415,proactive3.1,2020.1.2,MacIntel,60,5f47c29a48bd2a1e651a6eb7,5f4f816d3cd4d603f1750ba9,1,,,,,,candle,,,,,,0,50,50,44,1,5,0,,,,,,,,,,,,,,,,,,,,,,,,,,,,,,,,,,,,,,,,,,,,,,,,,,,,,,,,,,,,,,,,,,,,,,,,,,,,,,,,,,,,,,,,,,,,,,,,,,,,,,,,,,,,,
,,,,,,,,,,stimuli/images/PICTURE_667.png,BATH,5f0b2c58b8ce4241add340ea,05/12/1995,2020-09-02_12h35.36.415,proactive3.1,2020.1.2,MacIntel,60,5f47c29a48bd2a1e651a6eb7,5f4f816d3cd4d603f1750ba9,1,,,,,,daisy,,,,,,0,51,51,4,1,1,0,,,,,,,,,,,,,,,,,,,,,,,,,,,,,,,,,,,,,,,,,,,,,,,,,,,,,,,,,,,,,,,,,,,,,,,,,,,,,,,,,,,,,,,,,,,,,,,,,,,,,,,,,,,,,
,,,,,,,,,,stimuli/images/PICTURE_453.png,PLENTY,5f0b2c58b8ce4241add340ea,05/12/1995,2020-09-02_12h35.36.415,proactive3.1,2020.1.2,MacIntel,60,5f47c29a48bd2a1e651a6eb7,5f4f816d3cd4d603f1750ba9,1,,,,,,scissors,,,,,,0,52,52,56,1,6,0,,,,,,,,,,,,,,,,,,,,,,,,,,,,,,,,,,,,,,,,,,,,,,,,,,,,,,,,,,,,,,,,,,,,,,,,,,,,,,,,,,,,,,,,,,,,,,,,,,,,,,,,,,,,,
,,,,,,,,,,stimuli/images/PICTURE_469.png,LETTER,5f0b2c58b8ce4241add340ea,05/12/1995,2020-09-02_12h35.36.415,proactive3.1,2020.1.2,MacIntel,60,5f47c29a48bd2a1e651a6eb7,5f4f816d3cd4d603f1750ba9,1,,,,,,stool,,,,,,0,53,53,42,1,5,0,,,,,,,,,,,,,,,,,,,,,,,,,,,,,,,,,,,,,,,,,,,,,,,,,,,,,,,,,,,,,,,,,,,,,,,,,,,,,,,,,,,,,,,,,,,,,,,,,,,,,,,,,,,,,
,,,,,,,,,,stimuli/images/PICTURE_233.png,WOMEN,5f0b2c58b8ce4241add340ea,05/12/1995,2020-09-02_12h35.36.415,proactive3.1,2020.1.2,MacIntel,60,5f47c29a48bd2a1e651a6eb7,5f4f816d3cd4d603f1750ba9,1,,,,,,salt,,,,,,0,54,54,38,1,4,0,,,,,,,,,,,,,,,,,,,,,,,,,,,,,,,,,,,,,,,,,,,,,,,,,,,,,,,,,,,,,,,,,,,,,,,,,,,,,,,,,,,,,,,,,,,,,,,,,,,,,,,,,,,,,
,,,,,,,,,,stimuli/images/PICTURE_744.png,SYSTEM,5f0b2c58b8ce4241add340ea,05/12/1995,2020-09-02_12h35.36.415,proactive3.1,2020.1.2,MacIntel,60,5f47c29a48bd2a1e651a6eb7,5f4f816d3cd4d603f1750ba9,1,,,,,,ring,,,,,,0,55,55,43,1,5,0,,,,,,,,,,,,,,,,,,,,,,,,,,,,,,,,,,,,,,,,,,,,,,,,,,,,,,,,,,,,,,,,,,,,,,,,,,,,,,,,,,,,,,,,,,,,,,,,,,,,,,,,,,,,,
,,,,,,,,,,stimuli/images/PICTURE_314.png,GODS,5f0b2c58b8ce4241add340ea,05/12/1995,2020-09-02_12h35.36.415,proactive3.1,2020.1.2,MacIntel,60,5f47c29a48bd2a1e651a6eb7,5f4f816d3cd4d603f1750ba9,1,,,,,,perfume,,,,,,0,56,56,11,1,2,0,,,,,,,,,,,,,,,,,,,,,,,,,,,,,,,,,,,,,,,,,,,,,,,,,,,,,,,,,,,,,,,,,,,,,,,,,,,,,,,,,,,,,,,,,,,,,,,,,,,,,,,,,,,,,
,,,,,,,,,,stimuli/images/PICTURE_654.png,VALLEY,5f0b2c58b8ce4241add340ea,05/12/1995,2020-09-02_12h35.36.415,proactive3.1,2020.1.2,MacIntel,60,5f47c29a48bd2a1e651a6eb7,5f4f816d3cd4d603f1750ba9,1,,,,,,pencil,,,,,,0,57,57,1,1,1,0,,,,,,,,,,,,,,,,,,,,,,,,,,,,,,,,,,,,,,,,,,,,,,,,,,,,,,,,,,,,,,,,,,,,,,,,,,,,,,,,,,,,,,,,,,,,,,,,,,,,,,,,,,,,,
,,,,,,,,,,stimuli/images/PICTURE_339.png,PLENTY,5f0b2c58b8ce4241add340ea,05/12/1995,2020-09-02_12h35.36.415,proactive3.1,2020.1.2,MacIntel,60,5f47c29a48bd2a1e651a6eb7,5f4f816d3cd4d603f1750ba9,1,,,,,,backpack,,,,,,0,58,58,0,1,1,0,,,,,,,,,,,,,,,,,,,,,,,,,,,,,,,,,,,,,,,,,,,,,,,,,,,,,,,,,,,,,,,,,,,,,,,,,,,,,,,,,,,,,,,,,,,,,,,,,,,,,,,,,,,,,
,,?,0.001,0,,,,,,stimuli/images/PICTURE_488.png,STYLE,5f0b2c58b8ce4241add340ea,05/12/1995,2020-09-02_12h35.36.415,proactive3.1,2020.1.2,MacIntel,60,5f47c29a48bd2a1e651a6eb7,5f4f816d3cd4d603f1750ba9,1,,,,,,sun,,,,,,,,,,,4,0,0,0,0,33,1,,,,,,,,,,,,,,,,,,,,,,,,,,,,,,,,,,,,,,,,,,,,,,,,,,,,,,,,,,,,,,,,,,,,,,,,,,,,,,,,,,,,,,,,,,,,,,,,,,,,,,,,
,,?,0.001,0,,,,,,stimuli/images/PICTURE_233.png,WOMEN,5f0b2c58b8ce4241add340ea,05/12/1995,2020-09-02_12h35.36.415,proactive3.1,2020.1.2,MacIntel,60,5f47c29a48bd2a1e651a6eb7,5f4f816d3cd4d603f1750ba9,1,,,,,,salt,,,,,,,,,,,4,0,0,1,1,38,1,,,,,,,,,,,,,,,,,,,,,,,,,,,,,,,,,,,,,,,,,,,,,,,,,,,,,,,,,,,,,,,,,,,,,,,,,,,,,,,,,,,,,,,,,,,,,,,,,,,,,,,,
,,?,0,0,,,,,,stimuli/images/PICTURE_449.png,THING,5f0b2c58b8ce4241add340ea,05/12/1995,2020-09-02_12h35.36.415,proactive3.1,2020.1.2,MacIntel,60,5f47c29a48bd2a1e651a6eb7,5f4f816d3cd4d603f1750ba9,1,,,,,,bench,,,,,,,,,,,6,0,0,2,2,59,1,,,,,,,,,,,,,,,,,,,,,,,,,,,,,,,,,,,,,,,,,,,,,,,,,,,,,,,,,,,,,,,,,,,,,,,,,,,,,,,,,,,,,,,,,,,,,,,,,,,,,,,,
,,?,0.001,0,,,,,,stimuli/images/PICTURE_677.png,MILE,5f0b2c58b8ce4241add340ea,05/12/1995,2020-09-02_12h35.36.415,proactive3.1,2020.1.2,MacIntel,60,5f47c29a48bd2a1e651a6eb7,5f4f816d3cd4d603f1750ba9,1,,,,,,map,,,,,,,,,,,4,0,0,3,3,30,1,,,,,,,,,,,,,,,,,,,,,,,,,,,,,,,,,,,,,,,,,,,,,,,,,,,,,,,,,,,,,,,,,,,,,,,,,,,,,,,,,,,,,,,,,,,,,,,,,,,,,,,,
,,?,0.001,0,,,,,,stimuli/images/PICTURE_248.png,DOZEN,5f0b2c58b8ce4241add340ea,05/12/1995,2020-09-02_12h35.36.415,proactive3.1,2020.1.2,MacIntel,60,5f47c29a48bd2a1e651a6eb7,5f4f816d3cd4d603f1750ba9,1,,,,,,cart,,,,,,,,,,,4,0,0,4,4,39,1,,,,,,,,,,,,,,,,,,,,,,,,,,,,,,,,,,,,,,,,,,,,,,,,,,,,,,,,,,,,,,,,,,,,,,,,,,,,,,,,,,,,,,,,,,,,,,,,,,,,,,,,
,,?,0,0,,,,,,stimuli/images/PICTURE_203.png,ARTIST,5f0b2c58b8ce4241add340ea,05/12/1995,2020-09-02_12h35.36.415,proactive3.1,2020.1.2,MacIntel,60,5f47c29a48bd2a1e651a6eb7,5f4f816d3cd4d603f1750ba9,1,,,,,,cap,,,,,,,,,,,3,0,0,5,5,26,1,,,,,,,,,,,,,,,,,,,,,,,,,,,,,,,,,,,,,,,,,,,,,,,,,,,,,,,,,,,,,,,,,,,,,,,,,,,,,,,,,,,,,,,,,,,,,,,,,,,,,,,,
,,?,0.001,0,,,,,,stimuli/images/PICTURE_311.png,BEAUTY,5f0b2c58b8ce4241add340ea,05/12/1995,2020-09-02_12h35.36.415,proactive3.1,2020.1.2,MacIntel,60,5f47c29a48bd2a1e651a6eb7,5f4f816d3cd4d603f1750ba9,1,,,,,,razor,,,,,,,,,,,2,0,0,6,6,13,1,,,,,,,,,,,,,,,,,,,,,,,,,,,,,,,,,,,,,,,,,,,,,,,,,,,,,,,,,,,,,,,,,,,,,,,,,,,,,,,,,,,,,,,,,,,,,,,,,,,,,,,,
,,?,0.001,0,,,,,,stimuli/images/PICTURE_147.png,MOMENT,5f0b2c58b8ce4241add340ea,05/12/1995,2020-09-02_12h35.36.415,proactive3.1,2020.1.2,MacIntel,60,5f47c29a48bd2a1e651a6eb7,5f4f816d3cd4d603f1750ba9,1,,,,,,hanger,,,,,,,,,,,6,0,0,7,7,51,1,,,,,,,,,,,,,,,,,,,,,,,,,,,,,,,,,,,,,,,,,,,,,,,,,,,,,,,,,,,,,,,,,,,,,,,,,,,,,,,,,,,,,,,,,,,,,,,,,,,,,,,,
,,?,0,0,,,,,,stimuli/images/PICTURE_123.png,ADVICE,5f0b2c58b8ce4241add340ea,05/12/1995,2020-09-02_12h35.36.415,proactive3.1,2020.1.2,MacIntel,60,5f47c29a48bd2a1e651a6eb7,5f4f816d3cd4d603f1750ba9,1,,,,,,dart,,,,,,,,,,,6,0,0,8,8,50,1,,,,,,,,,,,,,,,,,,,,,,,,,,,,,,,,,,,,,,,,,,,,,,,,,,,,,,,,,,,,,,,,,,,,,,,,,,,,,,,,,,,,,,,,,,,,,,,,,,,,,,,,
,,?,0.001,0,,,,,,stimuli/images/PICTURE_302.png,FAMILY,5f0b2c58b8ce4241add340ea,05/12/1995,2020-09-02_12h35.36.415,proactive3.1,2020.1.2,MacIntel,60,5f47c29a48bd2a1e651a6eb7,5f4f816d3cd4d603f1750ba9,1,,,,,,taxi,,,,,,,,,,,2,0,0,9,9,18,1,,,,,,,,,,,,,,,,,,,,,,,,,,,,,,,,,,,,,,,,,,,,,,,,,,,,,,,,,,,,,,,,,,,,,,,,,,,,,,,,,,,,,,,,,,,,,,,,,,,,,,,,
,,?,0.001,0,,,,,,stimuli/images/PICTURE_467.png,DEMON,5f0b2c58b8ce4241add340ea,05/12/1995,2020-09-02_12h35.36.415,proactive3.1,2020.1.2,MacIntel,60,5f47c29a48bd2a1e651a6eb7,5f4f816d3cd4d603f1750ba9,1,,,,,,peg,,,,,,,,,,,3,0,0,10,10,23,1,,,,,,,,,,,,,,,,,,,,,,,,,,,,,,,,,,,,,,,,,,,,,,,,,,,,,,,,,,,,,,,,,,,,,,,,,,,,,,,,,,,,,,,,,,,,,,,,,,,,,,,,
,,?,0.001,0,,,,,,stimuli/images/PICTURE_744.png,SAKE,5f0b2c58b8ce4241add340ea,05/12/1995,2020-09-02_12h35.36.415,proactive3.1,2020.1.2,MacIntel,60,5f47c29a48bd2a1e651a6eb7,5f4f816d3cd4d603f1750ba9,1,,,,,,ring,,,,,,,,,,,2,0,0,11,11,17,1,,,,,,,,,,,,,,,,,,,,,,,,,,,,,,,,,,,,,,,,,,,,,,,,,,,,,,,,,,,,,,,,,,,,,,,,,,,,,,,,,,,,,,,,,,,,,,,,,,,,,,,,
,,?,0.001,0,,,,,,stimuli/images/PICTURE_692.png,MONTH,5f0b2c58b8ce4241add340ea,05/12/1995,2020-09-02_12h35.36.415,proactive3.1,2020.1.2,MacIntel,60,5f47c29a48bd2a1e651a6eb7,5f4f816d3cd4d603f1750ba9,1,,,,,,cherry,,,,,,,,,,,2,0,0,12,12,16,1,,,,,,,,,,,,,,,,,,,,,,,,,,,,,,,,,,,,,,,,,,,,,,,,,,,,,,,,,,,,,,,,,,,,,,,,,,,,,,,,,,,,,,,,,,,,,,,,,,,,,,,,
,,?,0,0,,,,,,stimuli/images/PICTURE_311.png,FRIEND,5f0b2c58b8ce4241add340ea,05/12/1995,2020-09-02_12h35.36.415,proactive3.1,2020.1.2,MacIntel,60,5f47c29a48bd2a1e651a6eb7,5f4f816d3cd4d603f1750ba9,1,,,,,,razor,,,,,,,,,,,4,0,0,13,13,34,1,,,,,,,,,,,,,,,,,,,,,,,,,,,,,,,,,,,,,,,,,,,,,,,,,,,,,,,,,,,,,,,,,,,,,,,,,,,,,,,,,,,,,,,,,,,,,,,,,,,,,,,,
,,?,0.001,0,,,,,,stimuli/images/PICTURE_68.png,MILE,5f0b2c58b8ce4241add340ea,05/12/1995,2020-09-02_12h35.36.415,proactive3.1,2020.1.2,MacIntel,60,5f47c29a48bd2a1e651a6eb7,5f4f816d3cd4d603f1750ba9,1,,,,,,candle,,,,,,,,,,,5,0,0,14,14,44,1,,,,,,,,,,,,,,,,,,,,,,,,,,,,,,,,,,,,,,,,,,,,,,,,,,,,,,,,,,,,,,,,,,,,,,,,,,,,,,,,,,,,,,,,,,,,,,,,,,,,,,,,
,,?,0,0,,,,,,stimuli/images/PICTURE_744.png,SYSTEM,5f0b2c58b8ce4241add340ea,05/12/1995,2020-09-02_12h35.36.415,proactive3.1,2020.1.2,MacIntel,60,5f47c29a48bd2a1e651a6eb7,5f4f816d3cd4d603f1750ba9,1,,,,,,ring,,,,,,,,,,,5,0,0,15,15,43,1,,,,,,,,,,,,,,,,,,,,,,,,,,,,,,,,,,,,,,,,,,,,,,,,,,,,,,,,,,,,,,,,,,,,,,,,,,,,,,,,,,,,,,,,,,,,,,,,,,,,,,,,
,,?,0.001,0,,,,,,stimuli/images/PICTURE_215.png,PLENTY,5f0b2c58b8ce4241add340ea,05/12/1995,2020-09-02_12h35.36.415,proactive3.1,2020.1.2,MacIntel,60,5f47c29a48bd2a1e651a6eb7,5f4f816d3cd4d603f1750ba9,1,,,,,,boot,,,,,,,,,,,4,0,0,16,16,37,1,,,,,,,,,,,,,,,,,,,,,,,,,,,,,,,,,,,,,,,,,,,,,,,,,,,,,,,,,,,,,,,,,,,,,,,,,,,,,,,,,,,,,,,,,,,,,,,,,,,,,,,,
,,?,0.001,0,,,,,,stimuli/images/PICTURE_85.png,THING,5f0b2c58b8ce4241add340ea,05/12/1995,2020-09-02_12h35.36.415,proactive3.1,2020.1.2,MacIntel,60,5f47c29a48bd2a1e651a6eb7,5f4f816d3cd4d603f1750ba9,1,,,,,,diamond,,,,,,,,,,,2,0,0,17,17,15,1,,,,,,,,,,,,,,,,,,,,,,,,,,,,,,,,,,,,,,,,,,,,,,,,,,,,,,,,,,,,,,,,,,,,,,,,,,,,,,,,,,,,,,,,,,,,,,,,,,,,,,,,
,,?,0.001,0,,,,,,stimuli/images/PICTURE_491.png,WRITER,5f0b2c58b8ce4241add340ea,05/12/1995,2020-09-02_12h35.36.415,proactive3.1,2020.1.2,MacIntel,60,5f47c29a48bd2a1e651a6eb7,5f4f816d3cd4d603f1750ba9,1,,,,,,rug,,,,,,,,,,,6,0,0,18,18,57,1,,,,,,,,,,,,,,,,,,,,,,,,,,,,,,,,,,,,,,,,,,,,,,,,,,,,,,,,,,,,,,,,,,,,,,,,,,,,,,,,,,,,,,,,,,,,,,,,,,,,,,,,
,,?,0,0,,,,,,stimuli/images/PICTURE_491.png,ROOF,5f0b2c58b8ce4241add340ea,05/12/1995,2020-09-02_12h35.36.415,proactive3.1,2020.1.2,MacIntel,60,5f47c29a48bd2a1e651a6eb7,5f4f816d3cd4d603f1750ba9,1,,,,,,rug,,,,,,,,,,,3,0,0,19,19,24,1,,,,,,,,,,,,,,,,,,,,,,,,,,,,,,,,,,,,,,,,,,,,,,,,,,,,,,,,,,,,,,,,,,,,,,,,,,,,,,,,,,,,,,,,,,,,,,,,,,,,,,,,
,,?,0.001,0,,,,,,stimuli/images/PICTURE_151.png,GIRL,5f0b2c58b8ce4241add340ea,05/12/1995,2020-09-02_12h35.36.415,proactive3.1,2020.1.2,MacIntel,60,5f47c29a48bd2a1e651a6eb7,5f4f816d3cd4d603f1750ba9,1,,,,,,tray,,,,,,,,,,,2,0,0,20,20,19,1,,,,,,,,,,,,,,,,,,,,,,,,,,,,,,,,,,,,,,,,,,,,,,,,,,,,,,,,,,,,,,,,,,,,,,,,,,,,,,,,,,,,,,,,,,,,,,,,,,,,,,,,
,,?,0,0,,,,,,stimuli/images/PICTURE_356.png,DANGER,5f0b2c58b8ce4241add340ea,05/12/1995,2020-09-02_12h35.36.415,proactive3.1,2020.1.2,MacIntel,60,5f47c29a48bd2a1e651a6eb7,5f4f816d3cd4d603f1750ba9,1,,,,,,pawn,,,,,,,,,,,6,0,0,21,21,55,1,,,,,,,,,,,,,,,,,,,,,,,,,,,,,,,,,,,,,,,,,,,,,,,,,,,,,,,,,,,,,,,,,,,,,,,,,,,,,,,,,,,,,,,,,,,,,,,,,,,,,,,,
,,?,0.001,0,,,,,,stimuli/images/PICTURE_208.png,THING,5f0b2c58b8ce4241add340ea,05/12/1995,2020-09-02_12h35.36.415,proactive3.1,2020.1.2,MacIntel,60,5f47c29a48bd2a1e651a6eb7,5f4f816d3cd4d603f1750ba9,1,,,,,,microphone,,,,,,,,,,,5,0,0,22,22,47,1,,,,,,,,,,,,,,,,,,,,,,,,,,,,,,,,,,,,,,,,,,,,,,,,,,,,,,,,,,,,,,,,,,,,,,,,,,,,,,,,,,,,,,,,,,,,,,,,,,,,,,,,
,,?,0.001,0,,,,,,stimuli/images/PICTURE_314.png,GODS,5f0b2c58b8ce4241add340ea,05/12/1995,2020-09-02_12h35.36.415,proactive3.1,2020.1.2,MacIntel,60,5f47c29a48bd2a1e651a6eb7,5f4f816d3cd4d603f1750ba9,1,,,,,,perfume,,,,,,,,,,,2,0,0,23,23,11,1,,,,,,,,,,,,,,,,,,,,,,,,,,,,,,,,,,,,,,,,,,,,,,,,,,,,,,,,,,,,,,,,,,,,,,,,,,,,,,,,,,,,,,,,,,,,,,,,,,,,,,,,
,,?,0.001,0,,,,,,stimuli/images/PICTURE_208.png,MONTH,5f0b2c58b8ce4241add340ea,05/12/1995,2020-09-02_12h35.36.415,proactive3.1,2020.1.2,MacIntel,60,5f47c29a48bd2a1e651a6eb7,5f4f816d3cd4d603f1750ba9,1,,,,,,microphone,,,,,,,,,,,6,0,0,24,24,53,1,,,,,,,,,,,,,,,,,,,,,,,,,,,,,,,,,,,,,,,,,,,,,,,,,,,,,,,,,,,,,,,,,,,,,,,,,,,,,,,,,,,,,,,,,,,,,,,,,,,,,,,,
,,?,0.001,0,,,,,,stimuli/images/PICTURE_327.png,BEAUTY,5f0b2c58b8ce4241add340ea,05/12/1995,2020-09-02_12h35.36.415,proactive3.1,2020.1.2,MacIntel,60,5f47c29a48bd2a1e651a6eb7,5f4f816d3cd4d603f1750ba9,1,,,,,,helmet,,,,,,,,,,,5,0,0,25,25,48,1,,,,,,,,,,,,,,,,,,,,,,,,,,,,,,,,,,,,,,,,,,,,,,,,,,,,,,,,,,,,,,,,,,,,,,,,,,,,,,,,,,,,,,,,,,,,,,,,,,,,,,,,
,,?,0.001,0,,,,,,stimuli/images/PICTURE_453.png,PLENTY,5f0b2c58b8ce4241add340ea,05/12/1995,2020-09-02_12h35.36.415,proactive3.1,2020.1.2,MacIntel,60,5f47c29a48bd2a1e651a6eb7,5f4f816d3cd4d603f1750ba9,1,,,,,,scissors,,,,,,,,,,,6,0,0,26,26,56,1,,,,,,,,,,,,,,,,,,,,,,,,,,,,,,,,,,,,,,,,,,,,,,,,,,,,,,,,,,,,,,,,,,,,,,,,,,,,,,,,,,,,,,,,,,,,,,,,,,,,,,,,
,,?,0.001,0,,,,,,stimuli/images/PICTURE_160.png,FEET,5f0b2c58b8ce4241add340ea,05/12/1995,2020-09-02_12h35.36.415,proactive3.1,2020.1.2,MacIntel,60,5f47c29a48bd2a1e651a6eb7,5f4f816d3cd4d603f1750ba9,1,,,,,,wheelbarrow,,,,,,,,,,,6,0,0,27,27,58,1,,,,,,,,,,,,,,,,,,,,,,,,,,,,,,,,,,,,,,,,,,,,,,,,,,,,,,,,,,,,,,,,,,,,,,,,,,,,,,,,,,,,,,,,,,,,,,,,,,,,,,,,
,,BATH,6.738,1,,,,,,stimuli/images/PICTURE_667.png,BATH,5f0b2c58b8ce4241add340ea,05/12/1995,2020-09-02_12h35.36.415,proactive3.1,2020.1.2,MacIntel,60,5f47c29a48bd2a1e651a6eb7,5f4f816d3cd4d603f1750ba9,1,,,,,,daisy,,,,,,,,,,,1,0,0,28,28,4,1,,,,,,,,,,,,,,,,,,,,,,,,,,,,,,,,,,,,,,,,,,,,,,,,,,,,,,,,,,,,,,,,,,,,,,,,,,,,,,,,,,,,,,,,,,,,,,,,,,,,,,,,
,,?,0.002,0,,,,,,stimuli/images/PICTURE_233.png,IDEAS,5f0b2c58b8ce4241add340ea,05/12/1995,2020-09-02_12h35.36.415,proactive3.1,2020.1.2,MacIntel,60,5f47c29a48bd2a1e651a6eb7,5f4f816d3cd4d603f1750ba9,1,,,,,,salt,,,,,,,,,,,3,0,0,29,29,28,1,,,,,,,,,,,,,,,,,,,,,,,,,,,,,,,,,,,,,,,,,,,,,,,,,,,,,,,,,,,,,,,,,,,,,,,,,,,,,,,,,,,,,,,,,,,,,,,,,,,,,,,,
,,?,0.001,0,,,,,,stimuli/images/PICTURE_509.png,PHOTO,5f0b2c58b8ce4241add340ea,05/12/1995,2020-09-02_12h35.36.415,proactive3.1,2020.1.2,MacIntel,60,5f47c29a48bd2a1e651a6eb7,5f4f816d3cd4d603f1750ba9,1,,,,,,telephone,,,,,,,,,,,3,0,0,30,30,21,1,,,,,,,,,,,,,,,,,,,,,,,,,,,,,,,,,,,,,,,,,,,,,,,,,,,,,,,,,,,,,,,,,,,,,,,,,,,,,,,,,,,,,,,,,,,,,,,,,,,,,,,,
,,?,0.001,0,,,,,,stimuli/images/PICTURE_708.png,PENNY,5f0b2c58b8ce4241add340ea,05/12/1995,2020-09-02_12h35.36.415,proactive3.1,2020.1.2,MacIntel,60,5f47c29a48bd2a1e651a6eb7,5f4f816d3cd4d603f1750ba9,1,,,,,,monkey,,,,,,,,,,,4,0,0,31,31,31,1,,,,,,,,,,,,,,,,,,,,,,,,,,,,,,,,,,,,,,,,,,,,,,,,,,,,,,,,,,,,,,,,,,,,,,,,,,,,,,,,,,,,,,,,,,,,,,,,,,,,,,,,
,,CLIENT,3.995,1,,,,,,stimuli/images/PICTURE_708.png,CLIENT,5f0b2c58b8ce4241add340ea,05/12/1995,2020-09-02_12h35.36.415,proactive3.1,2020.1.2,MacIntel,60,5f47c29a48bd2a1e651a6eb7,5f4f816d3cd4d603f1750ba9,1,,,,,,monkey,,,,,,,,,,,1,0,0,32,32,5,1,,,,,,,,,,,,,,,,,,,,,,,,,,,,,,,,,,,,,,,,,,,,,,,,,,,,,,,,,,,,,,,,,,,,,,,,,,,,,,,,,,,,,,,,,,,,,,,,,,,,,,,,
,,?,0.001,0,,,,,,stimuli/images/PICTURE_308.png,KIND,5f0b2c58b8ce4241add340ea,05/12/1995,2020-09-02_12h35.36.415,proactive3.1,2020.1.2,MacIntel,60,5f47c29a48bd2a1e651a6eb7,5f4f816d3cd4d603f1750ba9,1,,,,,,dice,,,,,,,,,,,6,0,0,33,33,54,1,,,,,,,,,,,,,,,,,,,,,,,,,,,,,,,,,,,,,,,,,,,,,,,,,,,,,,,,,,,,,,,,,,,,,,,,,,,,,,,,,,,,,,,,,,,,,,,,,,,,,,,,
,,VALLEY,4.366,1,,,,,,stimuli/images/PICTURE_654.png,VALLEY,5f0b2c58b8ce4241add340ea,05/12/1995,2020-09-02_12h35.36.415,proactive3.1,2020.1.2,MacIntel,60,5f47c29a48bd2a1e651a6eb7,5f4f816d3cd4d603f1750ba9,1,,,,,,pencil,,,,,,,,,,,1,0,0,34,34,1,1,,,,,,,,,,,,,,,,,,,,,,,,,,,,,,,,,,,,,,,,,,,,,,,,,,,,,,,,,,,,,,,,,,,,,,,,,,,,,,,,,,,,,,,,,,,,,,,,,,,,,,,,
,,PLENTY,3.821,1,,,,,,stimuli/images/PICTURE_339.png,PLENTY,5f0b2c58b8ce4241add340ea,05/12/1995,2020-09-02_12h35.36.415,proactive3.1,2020.1.2,MacIntel,60,5f47c29a48bd2a1e651a6eb7,5f4f816d3cd4d603f1750ba9,1,,,,,,backpack,,,,,,,,,,,1,0,0,35,35,0,1,,,,,,,,,,,,,,,,,,,,,,,,,,,,,,,,,,,,,,,,,,,,,,,,,,,,,,,,,,,,,,,,,,,,,,,,,,,,,,,,,,,,,,,,,,,,,,,,,,,,,,,,
,,?,0.001,0,,,,,,stimuli/images/PICTURE_123.png,ADVICE,5f0b2c58b8ce4241add340ea,05/12/1995,2020-09-02_12h35.36.415,proactive3.1,2020.1.2,MacIntel,60,5f47c29a48bd2a1e651a6eb7,5f4f816d3cd4d603f1750ba9,1,,,,,,dart,,,,,,,,,,,5,0,0,36,36,40,1,,,,,,,,,,,,,,,,,,,,,,,,,,,,,,,,,,,,,,,,,,,,,,,,,,,,,,,,,,,,,,,,,,,,,,,,,,,,,,,,,,,,,,,,,,,,,,,,,,,,,,,,
,,CASINO,6.567,1,,,,,,stimuli/images/PICTURE_688.png,CASINO,5f0b2c58b8ce4241add340ea,05/12/1995,2020-09-02_12h35.36.415,proactive3.1,2020.1.2,MacIntel,60,5f47c29a48bd2a1e651a6eb7,5f4f816d3cd4d603f1750ba9,1,,,,,,runner,,,,,,,,,,,1,0,0,37,37,2,1,,,,,,,,,,,,,,,,,,,,,,,,,,,,,,,,,,,,,,,,,,,,,,,,,,,,,,,,,,,,,,,,,,,,,,,,,,,,,,,,,,,,,,,,,,,,,,,,,,,,,,,,
,,ARTIST,7.32,1,,,,,,stimuli/images/PICTURE_469.png,ARTIST,5f0b2c58b8ce4241add340ea,05/12/1995,2020-09-02_12h35.36.415,proactive3.1,2020.1.2,MacIntel,60,5f47c29a48bd2a1e651a6eb7,5f4f816d3cd4d603f1750ba9,1,,,,,,stool,,,,,,,,,,,1,0,0,38,38,6,1,,,,,,,,,,,,,,,,,,,,,,,,,,,,,,,,,,,,,,,,,,,,,,,,,,,,,,,,,,,,,,,,,,,,,,,,,,,,,,,,,,,,,,,,,,,,,,,,,,,,,,,,
,,?,0.002,0,,,,,,stimuli/images/PICTURE_675.png,WEAPON,5f0b2c58b8ce4241add340ea,05/12/1995,2020-09-02_12h35.36.415,proactive3.1,2020.1.2,MacIntel,60,5f47c29a48bd2a1e651a6eb7,5f4f816d3cd4d603f1750ba9,1,,,,,,windmill,,,,,,,,,,,4,0,0,39,39,32,1,,,,,,,,,,,,,,,,,,,,,,,,,,,,,,,,,,,,,,,,,,,,,,,,,,,,,,,,,,,,,,,,,,,,,,,,,,,,,,,,,,,,,,,,,,,,,,,,,,,,,,,,
,,LEADER,4.951,1,,,,,,stimuli/images/PICTURE_160.png,LEADER,5f0b2c58b8ce4241add340ea,05/12/1995,2020-09-02_12h35.36.415,proactive3.1,2020.1.2,MacIntel,60,5f47c29a48bd2a1e651a6eb7,5f4f816d3cd4d603f1750ba9,1,,,,,,wheelbarrow,,,,,,,,,,,1,0,0,40,40,3,1,,,,,,,,,,,,,,,,,,,,,,,,,,,,,,,,,,,,,,,,,,,,,,,,,,,,,,,,,,,,,,,,,,,,,,,,,,,,,,,,,,,,,,,,,,,,,,,,,,,,,,,,
,,?,0.002,0,,,,,,stimuli/images/PICTURE_380.png,PHOTO,5f0b2c58b8ce4241add340ea,05/12/1995,2020-09-02_12h35.36.415,proactive3.1,2020.1.2,MacIntel,60,5f47c29a48bd2a1e651a6eb7,5f4f816d3cd4d603f1750ba9,1,,,,,,gorilla,,,,,,,,,,,6,0,0,41,41,52,1,,,,,,,,,,,,,,,,,,,,,,,,,,,,,,,,,,,,,,,,,,,,,,,,,,,,,,,,,,,,,,,,,,,,,,,,,,,,,,,,,,,,,,,,,,,,,,,,,,,,,,,,
,,?,0.002,0,,,,,,stimuli/images/PICTURE_469.png,LETTER,5f0b2c58b8ce4241add340ea,05/12/1995,2020-09-02_12h35.36.415,proactive3.1,2020.1.2,MacIntel,60,5f47c29a48bd2a1e651a6eb7,5f4f816d3cd4d603f1750ba9,1,,,,,,stool,,,,,,,,,,,5,0,0,42,42,42,1,,,,,,,,,,,,,,,,,,,,,,,,,,,,,,,,,,,,,,,,,,,,,,,,,,,,,,,,,,,,,,,,,,,,,,,,,,,,,,,,,,,,,,,,,,,,,,,,,,,,,,,,
,,?,0.001,0,,,,,,stimuli/images/PICTURE_285.png,ADVICE,5f0b2c58b8ce4241add340ea,05/12/1995,2020-09-02_12h35.36.415,proactive3.1,2020.1.2,MacIntel,60,5f47c29a48bd2a1e651a6eb7,5f4f816d3cd4d603f1750ba9,1,,,,,,carrot,,,,,,,,,,,2,0,0,43,43,12,1,,,,,,,,,,,,,,,,,,,,,,,,,,,,,,,,,,,,,,,,,,,,,,,,,,,,,,,,,,,,,,,,,,,,,,,,,,,,,,,,,,,,,,,,,,,,,,,,,,,,,,,,
,,?,0.001,0,,,,,,stimuli/images/PICTURE_308.png,ESTATE,5f0b2c58b8ce4241add340ea,05/12/1995,2020-09-02_12h35.36.415,proactive3.1,2020.1.2,MacIntel,60,5f47c29a48bd2a1e651a6eb7,5f4f816d3cd4d603f1750ba9,1,,,,,,dice,,,,,,,,,,,5,0,0,44,44,46,1,,,,,,,,,,,,,,,,,,,,,,,,,,,,,,,,,,,,,,,,,,,,,,,,,,,,,,,,,,,,,,,,,,,,,,,,,,,,,,,,,,,,,,,,,,,,,,,,,,,,,,,,
,,FLIGHT,3.889,1,,,,,,stimuli/images/PICTURE_487.png,FLIGHT,5f0b2c58b8ce4241add340ea,05/12/1995,2020-09-02_12h35.36.415,proactive3.1,2020.1.2,MacIntel,60,5f47c29a48bd2a1e651a6eb7,5f4f816d3cd4d603f1750ba9,1,,,,,,basket,,,,,,,,,,,1,0,0,45,45,9,1,,,,,,,,,,,,,,,,,,,,,,,,,,,,,,,,,,,,,,,,,,,,,,,,,,,,,,,,,,,,,,,,,,,,,,,,,,,,,,,,,,,,,,,,,,,,,,,,,,,,,,,,
,,?,0.002,0,,,,,,stimuli/images/PICTURE_348.png,SPEECH,5f0b2c58b8ce4241add340ea,05/12/1995,2020-09-02_12h35.36.415,proactive3.1,2020.1.2,MacIntel,60,5f47c29a48bd2a1e651a6eb7,5f4f816d3cd4d603f1750ba9,1,,,,,,pepper,,,,,,,,,,,3,0,0,46,46,20,1,,,,,,,,,,,,,,,,,,,,,,,,,,,,,,,,,,,,,,,,,,,,,,,,,,,,,,,,,,,,,,,,,,,,,,,,,,,,,,,,,,,,,,,,,,,,,,,,,,,,,,,,
,,?,0.002,0,,,,,,stimuli/images/PICTURE_177.png,CARS,5f0b2c58b8ce4241add340ea,05/12/1995,2020-09-02_12h35.36.415,proactive3.1,2020.1.2,MacIntel,60,5f47c29a48bd2a1e651a6eb7,5f4f816d3cd4d603f1750ba9,1,,,,,,mushroom,,,,,,,,,,,4,0,0,47,47,35,1,,,,,,,,,,,,,,,,,,,,,,,,,,,,,,,,,,,,,,,,,,,,,,,,,,,,,,,,,,,,,,,,,,,,,,,,,,,,,,,,,,,,,,,,,,,,,,,,,,,,,,,,
,,?,0.001,0,,,,,,stimuli/images/PICTURE_688.png,WOMEN,5f0b2c58b8ce4241add340ea,05/12/1995,2020-09-02_12h35.36.415,proactive3.1,2020.1.2,MacIntel,60,5f47c29a48bd2a1e651a6eb7,5f4f816d3cd4d603f1750ba9,1,,,,,,runner,,,,,,,,,,,2,0,0,48,48,14,1,,,,,,,,,,,,,,,,,,,,,,,,,,,,,,,,,,,,,,,,,,,,,,,,,,,,,,,,,,,,,,,,,,,,,,,,,,,,,,,,,,,,,,,,,,,,,,,,,,,,,,,,
,,?,0.001,0,,,,,,stimuli/images/PICTURE_255.png,AREA,5f0b2c58b8ce4241add340ea,05/12/1995,2020-09-02_12h35.36.415,proactive3.1,2020.1.2,MacIntel,60,5f47c29a48bd2a1e651a6eb7,5f4f816d3cd4d603f1750ba9,1,,,,,,shovel,,,,,,,,,,,3,0,0,49,49,22,1,,,,,,,,,,,,,,,,,,,,,,,,,,,,,,,,,,,,,,,,,,,,,,,,,,,,,,,,,,,,,,,,,,,,,,,,,,,,,,,,,,,,,,,,,,,,,,,,,,,,,,,,
,,?,0.001,0,,,,,,stimuli/images/PICTURE_470.png,CASINO,5f0b2c58b8ce4241add340ea,05/12/1995,2020-09-02_12h35.36.415,proactive3.1,2020.1.2,MacIntel,60,5f47c29a48bd2a1e651a6eb7,5f4f816d3cd4d603f1750ba9,1,,,,,,motorbike,,,,,,,,,,,4,0,0,50,50,36,1,,,,,,,,,,,,,,,,,,,,,,,,,,,,,,,,,,,,,,,,,,,,,,,,,,,,,,,,,,,,,,,,,,,,,,,,,,,,,,,,,,,,,,,,,,,,,,,,,,,,,,,,
,,SAKE,4.456,1,,,,,,stimuli/images/PICTURE_314.png,SAKE,5f0b2c58b8ce4241add340ea,05/12/1995,2020-09-02_12h35.36.415,proactive3.1,2020.1.2,MacIntel,60,5f47c29a48bd2a1e651a6eb7,5f4f816d3cd4d603f1750ba9,1,,,,,,perfume,,,,,,,,,,,1,0,0,51,51,7,1,,,,,,,,,,,,,,,,,,,,,,,,,,,,,,,,,,,,,,,,,,,,,,,,,,,,,,,,,,,,,,,,,,,,,,,,,,,,,,,,,,,,,,,,,,,,,,,,,,,,,,,,
,,BODY,4.188,1,,,,,,stimuli/images/PICTURE_504.png,BODY,5f0b2c58b8ce4241add340ea,05/12/1995,2020-09-02_12h35.36.415,proactive3.1,2020.1.2,MacIntel,60,5f47c29a48bd2a1e651a6eb7,5f4f816d3cd4d603f1750ba9,1,,,,,,wheel,,,,,,,,,,,1,0,0,52,52,8,1,,,,,,,,,,,,,,,,,,,,,,,,,,,,,,,,,,,,,,,,,,,,,,,,,,,,,,,,,,,,,,,,,,,,,,,,,,,,,,,,,,,,,,,,,,,,,,,,,,,,,,,,
,,?,0.002,0,,,,,,stimuli/images/PICTURE_208.png,LOTS,5f0b2c58b8ce4241add340ea,05/12/1995,2020-09-02_12h35.36.415,proactive3.1,2020.1.2,MacIntel,60,5f47c29a48bd2a1e651a6eb7,5f4f816d3cd4d603f1750ba9,1,,,,,,microphone,,,,,,,,,,,2,0,0,53,53,10,1,,,,,,,,,,,,,,,,,,,,,,,,,,,,,,,,,,,,,,,,,,,,,,,,,,,,,,,,,,,,,,,,,,,,,,,,,,,,,,,,,,,,,,,,,,,,,,,,,,,,,,,,
,,?,0.001,0,,,,,,stimuli/images/PICTURE_453.png,DUDE,5f0b2c58b8ce4241add340ea,05/12/1995,2020-09-02_12h35.36.415,proactive3.1,2020.1.2,MacIntel,60,5f47c29a48bd2a1e651a6eb7,5f4f816d3cd4d603f1750ba9,1,,,,,,scissors,,,,,,,,,,,3,0,0,54,54,27,1,,,,,,,,,,,,,,,,,,,,,,,,,,,,,,,,,,,,,,,,,,,,,,,,,,,,,,,,,,,,,,,,,,,,,,,,,,,,,,,,,,,,,,,,,,,,,,,,,,,,,,,,
,,?,0.001,0,,,,,,stimuli/images/PICTURE_708.png,YARD,5f0b2c58b8ce4241add340ea,05/12/1995,2020-09-02_12h35.36.415,proactive3.1,2020.1.2,MacIntel,60,5f47c29a48bd2a1e651a6eb7,5f4f816d3cd4d603f1750ba9,1,,,,,,monkey,,,,,,,,,,,3,0,0,55,55,29,1,,,,,,,,,,,,,,,,,,,,,,,,,,,,,,,,,,,,,,,,,,,,,,,,,,,,,,,,,,,,,,,,,,,,,,,,,,,,,,,,,,,,,,,,,,,,,,,,,,,,,,,,
,,?,0.001,0,,,,,,stimuli/images/PICTURE_32.png,JUNGLE,5f0b2c58b8ce4241add340ea,05/12/1995,2020-09-02_12h35.36.415,proactive3.1,2020.1.2,MacIntel,60,5f47c29a48bd2a1e651a6eb7,5f4f816d3cd4d603f1750ba9,1,,,,,,crown,,,,,,,,,,,5,0,0,56,56,45,1,,,,,,,,,,,,,,,,,,,,,,,,,,,,,,,,,,,,,,,,,,,,,,,,,,,,,,,,,,,,,,,,,,,,,,,,,,,,,,,,,,,,,,,,,,,,,,,,,,,,,,,,
,,?,0.001,0,,,,,,stimuli/images/PICTURE_380.png,DEATH,5f0b2c58b8ce4241add340ea,05/12/1995,2020-09-02_12h35.36.415,proactive3.1,2020.1.2,MacIntel,60,5f47c29a48bd2a1e651a6eb7,5f4f816d3cd4d603f1750ba9,1,,,,,,gorilla,,,,,,,,,,,5,0,0,57,57,49,1,,,,,,,,,,,,,,,,,,,,,,,,,,,,,,,,,,,,,,,,,,,,,,,,,,,,,,,,,,,,,,,,,,,,,,,,,,,,,,,,,,,,,,,,,,,,,,,,,,,,,,,,
,,?,0.001,0,,,,,,stimuli/images/PICTURE_667.png,PLENTY,5f0b2c58b8ce4241add340ea,05/12/1995,2020-09-02_12h35.36.415,proactive3.1,2020.1.2,MacIntel,60,5f47c29a48bd2a1e651a6eb7,5f4f816d3cd4d603f1750ba9,1,,,,,,daisy,,,,,,,,,,,5,0,0,58,58,41,1,,,,,,,,,,,,,,,,,,,,,,,,,,,,,,,,,,,,,,,,,,,,,,,,,,,,,,,,,,,,,,,,,,,,,,,,,,,,,,,,,,,,,,,,,,,,,,,,,,,,,,,,
,,?,0.001,0,,,,,,stimuli/images/PICTURE_95.png,STYLE,5f0b2c58b8ce4241add340ea,05/12/1995,2020-09-02_12h35.36.415,proactive3.1,2020.1.2,MacIntel,60,5f47c29a48bd2a1e651a6eb7,5f4f816d3cd4d603f1750ba9,1,,,,,,suitcase,,,,,,,,,,,3,0,0,59,59,25,1,,,,,,,,,,,,,,,,,,,,,,,,,,,,,,,,,,,,,,,,,,,,,,,,,,,,,,,,,,,,,,,,,,,,,,,,,,,,,,,,,,,,,,,,,,,,,,,,,,,,,,,,
,,,,,,,,,,,,5f0b2c58b8ce4241add340ea,05/12/1995,2020-09-02_12h35.36.415,proactive3.1,2020.1.2,MacIntel,60,5f47c29a48bd2a1e651a6eb7,5f4f816d3cd4d603f1750ba9,1,,,,,,,,,,,,,,,,,,,,,,,,0,1,1,0,1,stimuli/learn-block1.csv,,,,,,,,,,,,,,,,,,,,,,,,,,,,,,,,,,,,,,,,,,,,,,,,,,,,,,,,,,,,,,,,,,,,,,,,,,,,,,,,,,,,,,,,,,,,,,,,,,
,,,,,,,,,,stimuli/images/PICTURE_215.png,FOOD,5f0b2c58b8ce4241add340ea,05/12/1995,2020-09-02_12h35.36.415,proactive3.1,2020.1.2,MacIntel,60,5f47c29a48bd2a1e651a6eb7,5f4f816d3cd4d603f1750ba9,1,,,,,,boot,,,,,,0,0,0,5,1,1,2,,,,,,,,,,,,,,,,,,,,,,,,,,,,,,,,,,,,,,,,,,,,,,,,,,,,,,,,,,,,,,,,,,,,,,,,,,,,,,,,,,,,,,,,,,,,,,,,,,,,,,,,,,,,,
,,,,,,,,,,stimuli/images/PICTURE_356.png,CANDY,5f0b2c58b8ce4241add340ea,05/12/1995,2020-09-02_12h35.36.415,proactive3.1,2020.1.2,MacIntel,60,5f47c29a48bd2a1e651a6eb7,5f4f816d3cd4d603f1750ba9,1,,,,,,pawn,,,,,,0,1,1,46,1,5,2,,,,,,,,,,,,,,,,,,,,,,,,,,,,,,,,,,,,,,,,,,,,,,,,,,,,,,,,,,,,,,,,,,,,,,,,,,,,,,,,,,,,,,,,,,,,,,,,,,,,,,,,,,,,,
,,,,,,,,,,stimuli/images/PICTURE_470.png,BEAUTY,5f0b2c58b8ce4241add340ea,05/12/1995,2020-09-02_12h35.36.415,proactive3.1,2020.1.2,MacIntel,60,5f47c29a48bd2a1e651a6eb7,5f4f816d3cd4d603f1750ba9,1,,,,,,motorbike,,,,,,0,2,2,26,1,3,2,,,,,,,,,,,,,,,,,,,,,,,,,,,,,,,,,,,,,,,,,,,,,,,,,,,,,,,,,,,,,,,,,,,,,,,,,,,,,,,,,,,,,,,,,,,,,,,,,,,,,,,,,,,,,
,,,,,,,,,,stimuli/images/PICTURE_509.png,SHOTS,5f0b2c58b8ce4241add340ea,05/12/1995,2020-09-02_12h35.36.415,proactive3.1,2020.1.2,MacIntel,60,5f47c29a48bd2a1e651a6eb7,5f4f816d3cd4d603f1750ba9,1,,,,,,telephone,,,,,,0,3,3,7,1,1,2,,,,,,,,,,,,,,,,,,,,,,,,,,,,,,,,,,,,,,,,,,,,,,,,,,,,,,,,,,,,,,,,,,,,,,,,,,,,,,,,,,,,,,,,,,,,,,,,,,,,,,,,,,,,,
,,,,,,,,,,stimuli/images/PICTURE_215.png,LEADER,5f0b2c58b8ce4241add340ea,05/12/1995,2020-09-02_12h35.36.415,proactive3.1,2020.1.2,MacIntel,60,5f47c29a48bd2a1e651a6eb7,5f4f816d3cd4d603f1750ba9,1,,,,,,boot,,,,,,0,4,4,43,1,5,2,,,,,,,,,,,,,,,,,,,,,,,,,,,,,,,,,,,,,,,,,,,,,,,,,,,,,,,,,,,,,,,,,,,,,,,,,,,,,,,,,,,,,,,,,,,,,,,,,,,,,,,,,,,,,
,,,,,,,,,,stimuli/images/PICTURE_405.png,JUNGLE,5f0b2c58b8ce4241add340ea,05/12/1995,2020-09-02_12h35.36.415,proactive3.1,2020.1.2,MacIntel,60,5f47c29a48bd2a1e651a6eb7,5f4f816d3cd4d603f1750ba9,1,,,,,,anchor,,,,,,0,5,5,58,1,6,2,,,,,,,,,,,,,,,,,,,,,,,,,,,,,,,,,,,,,,,,,,,,,,,,,,,,,,,,,,,,,,,,,,,,,,,,,,,,,,,,,,,,,,,,,,,,,,,,,,,,,,,,,,,,,
,,,,,,,,,,stimuli/images/PICTURE_692.png,DUDE,5f0b2c58b8ce4241add340ea,05/12/1995,2020-09-02_12h35.36.415,proactive3.1,2020.1.2,MacIntel,60,5f47c29a48bd2a1e651a6eb7,5f4f816d3cd4d603f1750ba9,1,,,,,,cherry,,,,,,0,6,6,47,1,5,2,,,,,,,,,,,,,,,,,,,,,,,,,,,,,,,,,,,,,,,,,,,,,,,,,,,,,,,,,,,,,,,,,,,,,,,,,,,,,,,,,,,,,,,,,,,,,,,,,,,,,,,,,,,,,
,,,,,,,,,,stimuli/images/PICTURE_677.png,FAMILY,5f0b2c58b8ce4241add340ea,05/12/1995,2020-09-02_12h35.36.415,proactive3.1,2020.1.2,MacIntel,60,5f47c29a48bd2a1e651a6eb7,5f4f816d3cd4d603f1750ba9,1,,,,,,map,,,,,,0,7,7,53,1,6,2,,,,,,,,,,,,,,,,,,,,,,,,,,,,,,,,,,,,,,,,,,,,,,,,,,,,,,,,,,,,,,,,,,,,,,,,,,,,,,,,,,,,,,,,,,,,,,,,,,,,,,,,,,,,,
,,,,,,,,,,stimuli/images/PICTURE_654.png,YEAR,5f0b2c58b8ce4241add340ea,05/12/1995,2020-09-02_12h35.36.415,proactive3.1,2020.1.2,MacIntel,60,5f47c29a48bd2a1e651a6eb7,5f4f816d3cd4d603f1750ba9,1,,,,,,pencil,,,,,,0,8,8,41,1,5,2,,,,,,,,,,,,,,,,,,,,,,,,,,,,,,,,,,,,,,,,,,,,,,,,,,,,,,,,,,,,,,,,,,,,,,,,,,,,,,,,,,,,,,,,,,,,,,,,,,,,,,,,,,,,,
,,,,,,,,,,stimuli/images/PICTURE_470.png,MOMENT,5f0b2c58b8ce4241add340ea,05/12/1995,2020-09-02_12h35.36.415,proactive3.1,2020.1.2,MacIntel,60,5f47c29a48bd2a1e651a6eb7,5f4f816d3cd4d603f1750ba9,1,,,,,,motorbike,,,,,,0,9,9,40,1,5,2,,,,,,,,,,,,,,,,,,,,,,,,,,,,,,,,,,,,,,,,,,,,,,,,,,,,,,,,,,,,,,,,,,,,,,,,,,,,,,,,,,,,,,,,,,,,,,,,,,,,,,,,,,,,,
,,,,,,,,,,stimuli/images/PICTURE_654.png,COPS,5f0b2c58b8ce4241add340ea,05/12/1995,2020-09-02_12h35.36.415,proactive3.1,2020.1.2,MacIntel,60,5f47c29a48bd2a1e651a6eb7,5f4f816d3cd4d603f1750ba9,1,,,,,,pencil,,,,,,0,10,10,10,1,2,2,,,,,,,,,,,,,,,,,,,,,,,,,,,,,,,,,,,,,,,,,,,,,,,,,,,,,,,,,,,,,,,,,,,,,,,,,,,,,,,,,,,,,,,,,,,,,,,,,,,,,,,,,,,,,
,,,,,,,,,,stimuli/images/PICTURE_33.png,COPS,5f0b2c58b8ce4241add340ea,05/12/1995,2020-09-02_12h35.36.415,proactive3.1,2020.1.2,MacIntel,60,5f47c29a48bd2a1e651a6eb7,5f4f816d3cd4d603f1750ba9,1,,,,,,frame,,,,,,0,11,11,29,1,3,2,,,,,,,,,,,,,,,,,,,,,,,,,,,,,,,,,,,,,,,,,,,,,,,,,,,,,,,,,,,,,,,,,,,,,,,,,,,,,,,,,,,,,,,,,,,,,,,,,,,,,,,,,,,,,
,,,,,,,,,,stimuli/images/PICTURE_285.png,WRITER,5f0b2c58b8ce4241add340ea,05/12/1995,2020-09-02_12h35.36.415,proactive3.1,2020.1.2,MacIntel,60,5f47c29a48bd2a1e651a6eb7,5f4f816d3cd4d603f1750ba9,1,,,,,,carrot,,,,,,0,12,12,6,1,1,2,,,,,,,,,,,,,,,,,,,,,,,,,,,,,,,,,,,,,,,,,,,,,,,,,,,,,,,,,,,,,,,,,,,,,,,,,,,,,,,,,,,,,,,,,,,,,,,,,,,,,,,,,,,,,
,,,,,,,,,,stimuli/images/PICTURE_95.png,NIGHT,5f0b2c58b8ce4241add340ea,05/12/1995,2020-09-02_12h35.36.415,proactive3.1,2020.1.2,MacIntel,60,5f47c29a48bd2a1e651a6eb7,5f4f816d3cd4d603f1750ba9,1,,,,,,suitcase,,,,,,0,13,13,37,1,4,2,,,,,,,,,,,,,,,,,,,,,,,,,,,,,,,,,,,,,,,,,,,,,,,,,,,,,,,,,,,,,,,,,,,,,,,,,,,,,,,,,,,,,,,,,,,,,,,,,,,,,,,,,,,,,
,,,,,,,,,,stimuli/images/PICTURE_177.png,HOUSE,5f0b2c58b8ce4241add340ea,05/12/1995,2020-09-02_12h35.36.415,proactive3.1,2020.1.2,MacIntel,60,5f47c29a48bd2a1e651a6eb7,5f4f816d3cd4d603f1750ba9,1,,,,,,mushroom,,,,,,0,14,14,25,1,3,2,,,,,,,,,,,,,,,,,,,,,,,,,,,,,,,,,,,,,,,,,,,,,,,,,,,,,,,,,,,,,,,,,,,,,,,,,,,,,,,,,,,,,,,,,,,,,,,,,,,,,,,,,,,,,
,,,,,,,,,,stimuli/images/PICTURE_453.png,FAMILY,5f0b2c58b8ce4241add340ea,05/12/1995,2020-09-02_12h35.36.415,proactive3.1,2020.1.2,MacIntel,60,5f47c29a48bd2a1e651a6eb7,5f4f816d3cd4d603f1750ba9,1,,,,,,scissors,,,,,,0,15,15,48,1,5,2,,,,,,,,,,,,,,,,,,,,,,,,,,,,,,,,,,,,,,,,,,,,,,,,,,,,,,,,,,,,,,,,,,,,,,,,,,,,,,,,,,,,,,,,,,,,,,,,,,,,,,,,,,,,,
,,,,,,,,,,stimuli/images/PICTURE_147.png,LEADER,5f0b2c58b8ce4241add340ea,05/12/1995,2020-09-02_12h35.36.415,proactive3.1,2020.1.2,MacIntel,60,5f47c29a48bd2a1e651a6eb7,5f4f816d3cd4d603f1750ba9,1,,,,,,hanger,,,,,,0,16,16,33,1,4,2,,,,,,,,,,,,,,,,,,,,,,,,,,,,,,,,,,,,,,,,,,,,,,,,,,,,,,,,,,,,,,,,,,,,,,,,,,,,,,,,,,,,,,,,,,,,,,,,,,,,,,,,,,,,,
,,,,,,,,,,stimuli/images/PICTURE_667.png,GLASS,5f0b2c58b8ce4241add340ea,05/12/1995,2020-09-02_12h35.36.415,proactive3.1,2020.1.2,MacIntel,60,5f47c29a48bd2a1e651a6eb7,5f4f816d3cd4d603f1750ba9,1,,,,,,daisy,,,,,,0,17,17,27,1,3,2,,,,,,,,,,,,,,,,,,,,,,,,,,,,,,,,,,,,,,,,,,,,,,,,,,,,,,,,,,,,,,,,,,,,,,,,,,,,,,,,,,,,,,,,,,,,,,,,,,,,,,,,,,,,,
,,,,,,,,,,stimuli/images/PICTURE_491.png,SERIES,5f0b2c58b8ce4241add340ea,05/12/1995,2020-09-02_12h35.36.415,proactive3.1,2020.1.2,MacIntel,60,5f47c29a48bd2a1e651a6eb7,5f4f816d3cd4d603f1750ba9,1,,,,,,rug,,,,,,0,18,18,39,1,4,2,,,,,,,,,,,,,,,,,,,,,,,,,,,,,,,,,,,,,,,,,,,,,,,,,,,,,,,,,,,,,,,,,,,,,,,,,,,,,,,,,,,,,,,,,,,,,,,,,,,,,,,,,,,,,
,,,,,,,,,,stimuli/images/PICTURE_452.png,COPS,5f0b2c58b8ce4241add340ea,05/12/1995,2020-09-02_12h35.36.415,proactive3.1,2020.1.2,MacIntel,60,5f47c29a48bd2a1e651a6eb7,5f4f816d3cd4d603f1750ba9,1,,,,,,watch,,,,,,0,19,19,0,1,1,2,,,,,,,,,,,,,,,,,,,,,,,,,,,,,,,,,,,,,,,,,,,,,,,,,,,,,,,,,,,,,,,,,,,,,,,,,,,,,,,,,,,,,,,,,,,,,,,,,,,,,,,,,,,,,
,,,,,,,,,,stimuli/images/PICTURE_2.png,JUNGLE,5f0b2c58b8ce4241add340ea,05/12/1995,2020-09-02_12h35.36.415,proactive3.1,2020.1.2,MacIntel,60,5f47c29a48bd2a1e651a6eb7,5f4f816d3cd4d603f1750ba9,1,,,,,,tyre,,,,,,0,20,20,1,1,1,2,,,,,,,,,,,,,,,,,,,,,,,,,,,,,,,,,,,,,,,,,,,,,,,,,,,,,,,,,,,,,,,,,,,,,,,,,,,,,,,,,,,,,,,,,,,,,,,,,,,,,,,,,,,,,
,,,,,,,,,,stimuli/images/PICTURE_311.png,TOILET,5f0b2c58b8ce4241add340ea,05/12/1995,2020-09-02_12h35.36.415,proactive3.1,2020.1.2,MacIntel,60,5f47c29a48bd2a1e651a6eb7,5f4f816d3cd4d603f1750ba9,1,,,,,,razor,,,,,,0,21,21,54,1,6,2,,,,,,,,,,,,,,,,,,,,,,,,,,,,,,,,,,,,,,,,,,,,,,,,,,,,,,,,,,,,,,,,,,,,,,,,,,,,,,,,,,,,,,,,,,,,,,,,,,,,,,,,,,,,,
,,,,,,,,,,stimuli/images/PICTURE_327.png,LEADER,5f0b2c58b8ce4241add340ea,05/12/1995,2020-09-02_12h35.36.415,proactive3.1,2020.1.2,MacIntel,60,5f47c29a48bd2a1e651a6eb7,5f4f816d3cd4d603f1750ba9,1,,,,,,helmet,,,,,,0,22,22,17,1,2,2,,,,,,,,,,,,,,,,,,,,,,,,,,,,,,,,,,,,,,,,,,,,,,,,,,,,,,,,,,,,,,,,,,,,,,,,,,,,,,,,,,,,,,,,,,,,,,,,,,,,,,,,,,,,,
,,,,,,,,,,stimuli/images/PICTURE_57.png,CASINO,5f0b2c58b8ce4241add340ea,05/12/1995,2020-09-02_12h35.36.415,proactive3.1,2020.1.2,MacIntel,60,5f47c29a48bd2a1e651a6eb7,5f4f816d3cd4d603f1750ba9,1,,,,,,stamp,,,,,,0,23,23,12,1,2,2,,,,,,,,,,,,,,,,,,,,,,,,,,,,,,,,,,,,,,,,,,,,,,,,,,,,,,,,,,,,,,,,,,,,,,,,,,,,,,,,,,,,,,,,,,,,,,,,,,,,,,,,,,,,,
,,,,,,,,,,stimuli/images/PICTURE_255.png,PENNY,5f0b2c58b8ce4241add340ea,05/12/1995,2020-09-02_12h35.36.415,proactive3.1,2020.1.2,MacIntel,60,5f47c29a48bd2a1e651a6eb7,5f4f816d3cd4d603f1750ba9,1,,,,,,shovel,,,,,,0,24,24,19,1,2,2,,,,,,,,,,,,,,,,,,,,,,,,,,,,,,,,,,,,,,,,,,,,,,,,,,,,,,,,,,,,,,,,,,,,,,,,,,,,,,,,,,,,,,,,,,,,,,,,,,,,,,,,,,,,,
,,,,,,,,,,stimuli/images/PICTURE_93.png,GIRL,5f0b2c58b8ce4241add340ea,05/12/1995,2020-09-02_12h35.36.415,proactive3.1,2020.1.2,MacIntel,60,5f47c29a48bd2a1e651a6eb7,5f4f816d3cd4d603f1750ba9,1,,,,,,skateboard,,,,,,0,25,25,31,1,4,2,,,,,,,,,,,,,,,,,,,,,,,,,,,,,,,,,,,,,,,,,,,,,,,,,,,,,,,,,,,,,,,,,,,,,,,,,,,,,,,,,,,,,,,,,,,,,,,,,,,,,,,,,,,,,
,,,,,,,,,,stimuli/images/PICTURE_750.png,POLICY,5f0b2c58b8ce4241add340ea,05/12/1995,2020-09-02_12h35.36.415,proactive3.1,2020.1.2,MacIntel,60,5f47c29a48bd2a1e651a6eb7,5f4f816d3cd4d603f1750ba9,1,,,,,,kettle,,,,,,0,26,26,44,1,5,2,,,,,,,,,,,,,,,,,,,,,,,,,,,,,,,,,,,,,,,,,,,,,,,,,,,,,,,,,,,,,,,,,,,,,,,,,,,,,,,,,,,,,,,,,,,,,,,,,,,,,,,,,,,,,
,,,,,,,,,,stimuli/images/PICTURE_405.png,JUNGLE,5f0b2c58b8ce4241add340ea,05/12/1995,2020-09-02_12h35.36.415,proactive3.1,2020.1.2,MacIntel,60,5f47c29a48bd2a1e651a6eb7,5f4f816d3cd4d603f1750ba9,1,,,,,,anchor,,,,,,0,27,27,13,1,2,2,,,,,,,,,,,,,,,,,,,,,,,,,,,,,,,,,,,,,,,,,,,,,,,,,,,,,,,,,,,,,,,,,,,,,,,,,,,,,,,,,,,,,,,,,,,,,,,,,,,,,,,,,,,,,
,,,,,,,,,,stimuli/images/PICTURE_348.png,TOILET,5f0b2c58b8ce4241add340ea,05/12/1995,2020-09-02_12h35.36.415,proactive3.1,2020.1.2,MacIntel,60,5f47c29a48bd2a1e651a6eb7,5f4f816d3cd4d603f1750ba9,1,,,,,,pepper,,,,,,0,28,28,4,1,1,2,,,,,,,,,,,,,,,,,,,,,,,,,,,,,,,,,,,,,,,,,,,,,,,,,,,,,,,,,,,,,,,,,,,,,,,,,,,,,,,,,,,,,,,,,,,,,,,,,,,,,,,,,,,,,
,,,,,,,,,,stimuli/images/PICTURE_160.png,HOTEL,5f0b2c58b8ce4241add340ea,05/12/1995,2020-09-02_12h35.36.415,proactive3.1,2020.1.2,MacIntel,60,5f47c29a48bd2a1e651a6eb7,5f4f816d3cd4d603f1750ba9,1,,,,,,wheelbarrow,,,,,,0,29,29,16,1,2,2,,,,,,,,,,,,,,,,,,,,,,,,,,,,,,,,,,,,,,,,,,,,,,,,,,,,,,,,,,,,,,,,,,,,,,,,,,,,,,,,,,,,,,,,,,,,,,,,,,,,,,,,,,,,,
,,,,,,,,,,stimuli/images/PICTURE_2.png,YARD,5f0b2c58b8ce4241add340ea,05/12/1995,2020-09-02_12h35.36.415,proactive3.1,2020.1.2,MacIntel,60,5f47c29a48bd2a1e651a6eb7,5f4f816d3cd4d603f1750ba9,1,,,,,,tyre,,,,,,0,30,30,55,1,6,2,,,,,,,,,,,,,,,,,,,,,,,,,,,,,,,,,,,,,,,,,,,,,,,,,,,,,,,,,,,,,,,,,,,,,,,,,,,,,,,,,,,,,,,,,,,,,,,,,,,,,,,,,,,,,
,,,,,,,,,,stimuli/images/PICTURE_311.png,FLESH,5f0b2c58b8ce4241add340ea,05/12/1995,2020-09-02_12h35.36.415,proactive3.1,2020.1.2,MacIntel,60,5f47c29a48bd2a1e651a6eb7,5f4f816d3cd4d603f1750ba9,1,,,,,,razor,,,,,,0,31,31,3,1,1,2,,,,,,,,,,,,,,,,,,,,,,,,,,,,,,,,,,,,,,,,,,,,,,,,,,,,,,,,,,,,,,,,,,,,,,,,,,,,,,,,,,,,,,,,,,,,,,,,,,,,,,,,,,,,,
,,,,,,,,,,stimuli/images/PICTURE_564.png,PLENTY,5f0b2c58b8ce4241add340ea,05/12/1995,2020-09-02_12h35.36.415,proactive3.1,2020.1.2,MacIntel,60,5f47c29a48bd2a1e651a6eb7,5f4f816d3cd4d603f1750ba9,1,,,,,,spoon,,,,,,0,32,32,11,1,2,2,,,,,,,,,,,,,,,,,,,,,,,,,,,,,,,,,,,,,,,,,,,,,,,,,,,,,,,,,,,,,,,,,,,,,,,,,,,,,,,,,,,,,,,,,,,,,,,,,,,,,,,,,,,,,
,,,,,,,,,,stimuli/images/PICTURE_487.png,ROOF,5f0b2c58b8ce4241add340ea,05/12/1995,2020-09-02_12h35.36.415,proactive3.1,2020.1.2,MacIntel,60,5f47c29a48bd2a1e651a6eb7,5f4f816d3cd4d603f1750ba9,1,,,,,,basket,,,,,,0,33,33,50,1,6,2,,,,,,,,,,,,,,,,,,,,,,,,,,,,,,,,,,,,,,,,,,,,,,,,,,,,,,,,,,,,,,,,,,,,,,,,,,,,,,,,,,,,,,,,,,,,,,,,,,,,,,,,,,,,,
,,,,,,,,,,stimuli/images/PICTURE_2.png,AREA,5f0b2c58b8ce4241add340ea,05/12/1995,2020-09-02_12h35.36.415,proactive3.1,2020.1.2,MacIntel,60,5f47c29a48bd2a1e651a6eb7,5f4f816d3cd4d603f1750ba9,1,,,,,,tyre,,,,,,0,34,34,32,1,4,2,,,,,,,,,,,,,,,,,,,,,,,,,,,,,,,,,,,,,,,,,,,,,,,,,,,,,,,,,,,,,,,,,,,,,,,,,,,,,,,,,,,,,,,,,,,,,,,,,,,,,,,,,,,,,
,,,,,,,,,,stimuli/images/PICTURE_405.png,HOUSE,5f0b2c58b8ce4241add340ea,05/12/1995,2020-09-02_12h35.36.415,proactive3.1,2020.1.2,MacIntel,60,5f47c29a48bd2a1e651a6eb7,5f4f816d3cd4d603f1750ba9,1,,,,,,anchor,,,,,,0,35,35,2,1,1,2,,,,,,,,,,,,,,,,,,,,,,,,,,,,,,,,,,,,,,,,,,,,,,,,,,,,,,,,,,,,,,,,,,,,,,,,,,,,,,,,,,,,,,,,,,,,,,,,,,,,,,,,,,,,,
,,,,,,,,,,stimuli/images/PICTURE_509.png,BATH,5f0b2c58b8ce4241add340ea,05/12/1995,2020-09-02_12h35.36.415,proactive3.1,2020.1.2,MacIntel,60,5f47c29a48bd2a1e651a6eb7,5f4f816d3cd4d603f1750ba9,1,,,,,,telephone,,,,,,0,36,36,15,1,2,2,,,,,,,,,,,,,,,,,,,,,,,,,,,,,,,,,,,,,,,,,,,,,,,,,,,,,,,,,,,,,,,,,,,,,,,,,,,,,,,,,,,,,,,,,,,,,,,,,,,,,,,,,,,,,
