consent_key.keys,consent_key.rt,recalled,recalled_rt,recall_acc,example_recall.thisRepN,example_recall.thisTrialN,example_recall.thisN,example_recall.thisIndex,example_recall.ran,file,word,participant,please enter your date of birth (dd/mm/yyyy),date,expName,psychopyVersion,OS,frameRate,STUDY_ID,SESSION_ID,list,prac_learn_study_loop.thisRepN,prac_learn_study_loop.thisTrialN,prac_learn_study_loop.thisN,prac_learn_study_loop.thisIndex,prac_learn_study_loop.ran,image,prac_learn_test_loop.thisRepN,prac_learn_test_loop.thisTrialN,prac_learn_test_loop.thisN,prac_learn_test_loop.thisIndex,prac_learn_test_loop.ran,learn_study_loop.thisRepN,learn_study_loop.thisTrialN,learn_study_loop.thisN,learn_study_loop.thisIndex,learn_study_loop.ran,list_no,block_no,learn_test_loop.thisRepN,learn_test_loop.thisTrialN,learn_test_loop.thisN,learn_test_loop.thisIndex,learn_test_loop.ran,learn_blocks.thisRepN,learn_blocks.thisTrialN,learn_blocks.thisN,learn_blocks.thisIndex,learn_blocks.ran,block_csv,key_resp_13.keys,key_resp_13.rt,learn_blocks_loop.thisRepN,learn_blocks_loop.thisTrialN,learn_blocks_loop.thisN,learn_blocks_loop.thisIndex,learn_blocks_loop.ran,final_learn_test.thisRepN,final_learn_test.thisTrialN,final_learn_test.thisN,final_learn_test.thisIndex,final_learn_test.ran,s_im1,s_im2,s_im3,s_im4,s_im5,s_im6,s_im7,s_im8,s_im1pos,s_im2pos,s_im3pos,s_im4pos,s_im5pos,s_im6pos,s_im7pos,s_im8pos,s_tarright,search_resp.keys,search_loop.thisRepN,search_loop.thisTrialN,search_loop.thisN,search_loop.thisIndex,search_loop.ran,search_resp.rt,prac_wm_search_loop.thisRepN,prac_wm_search_loop.thisTrialN,prac_wm_search_loop.thisN,prac_wm_search_loop.thisIndex,prac_wm_search_loop.ran,prac_wm_test_loop.thisRepN,prac_wm_test_loop.thisTrialN,prac_wm_test_loop.thisN,prac_wm_test_loop.thisIndex,prac_wm_test_loop.ran,wm_recalled1,wm_recall_rt1,wm_probed1,wm_recall_acc1,wm_recalled2,wm_recall_rt2,wm_probed2,wm_recall_acc2,wm_recalled3,wm_recall_rt3,wm_probed3,wm_recall_acc3,wm_recalled4,wm_recall_rt4,wm_probed4,wm_recall_acc4,prac_wm_trial_loop.thisRepN,prac_wm_trial_loop.thisTrialN,prac_wm_trial_loop.thisN,prac_wm_trial_loop.thisIndex,prac_wm_trial_loop.ran,word1,image1,file1,item_type1,word2,image2,file2,item_type2,word4,image4,file4,item_type4,word3,image3,file3,item_type3,wm_search_loop.thisRepN,wm_search_loop.thisTrialN,wm_search_loop.thisN,wm_search_loop.thisIndex,wm_search_loop.ran,wm_test_loop.thisRepN,wm_test_loop.thisTrialN,wm_test_loop.thisN,wm_test_loop.thisIndex,wm_test_loop.ran,wm_trial_loop.thisRepN,wm_trial_loop.thisTrialN,wm_trial_loop.thisN,wm_trial_loop.thisIndex,wm_trial_loop.ran
y,45.102435,?,15.01333,0,0,0,0,0,1,stimuli/images/PICTURE_747.png,TOUGH,5f1230c4f57b2f06e2465477,02/10/1942,2020-09-10_07h33.30.090,proactive3.1,2020.1.2,Win32,60,5f599a131af4471f3d752b7b,5f5a2a95c9d65f08b1791153,3,,,,,,,,,,,,,,,,,,,,,,,,,,,,,,,,,,,,,,,,,,,,,,,,,,,,,,,,,,,,,,,,,,,,,,,,,,,,,,,,,,,,,,,,,,,,,,,,,,,,,,,,,,,,,,,,,,,,,,,,,,,,,,,
,,,,,,,,,,stimuli/images/PICTURE_378.png,LOSS,5f1230c4f57b2f06e2465477,02/10/1942,2020-09-10_07h33.30.090,proactive3.1,2020.1.2,Win32,60,5f599a131af4471f3d752b7b,5f5a2a95c9d65f08b1791153,3,0,0,0,2,1,lobster,,,,,,,,,,,,,,,,,,,,,,,,,,,,,,,,,,,,,,,,,,,,,,,,,,,,,,,,,,,,,,,,,,,,,,,,,,,,,,,,,,,,,,,,,,,,,,,,,,,,,,,,,,,,,,,,,,,,,,,,,
,,,,,,,,,,stimuli/images/PICTURE_658.png,DEVIL,5f1230c4f57b2f06e2465477,02/10/1942,2020-09-10_07h33.30.090,proactive3.1,2020.1.2,Win32,60,5f599a131af4471f3d752b7b,5f5a2a95c9d65f08b1791153,3,0,1,1,3,1,crow,,,,,,,,,,,,,,,,,,,,,,,,,,,,,,,,,,,,,,,,,,,,,,,,,,,,,,,,,,,,,,,,,,,,,,,,,,,,,,,,,,,,,,,,,,,,,,,,,,,,,,,,,,,,,,,,,,,,,,,,,
,,,,,,,,,,stimuli/images/PICTURE_727.png,CELL,5f1230c4f57b2f06e2465477,02/10/1942,2020-09-10_07h33.30.090,proactive3.1,2020.1.2,Win32,60,5f599a131af4471f3d752b7b,5f5a2a95c9d65f08b1791153,3,0,2,2,1,1,hose,,,,,,,,,,,,,,,,,,,,,,,,,,,,,,,,,,,,,,,,,,,,,,,,,,,,,,,,,,,,,,,,,,,,,,,,,,,,,,,,,,,,,,,,,,,,,,,,,,,,,,,,,,,,,,,,,,,,,,,,,
,,,,,,,,,,stimuli/images/PICTURE_697.png,KILLER,5f1230c4f57b2f06e2465477,02/10/1942,2020-09-10_07h33.30.090,proactive3.1,2020.1.2,Win32,60,5f599a131af4471f3d752b7b,5f5a2a95c9d65f08b1791153,3,0,3,3,4,1,peach,,,,,,,,,,,,,,,,,,,,,,,,,,,,,,,,,,,,,,,,,,,,,,,,,,,,,,,,,,,,,,,,,,,,,,,,,,,,,,,,,,,,,,,,,,,,,,,,,,,,,,,,,,,,,,,,,,,,,,,,,
,,DEVIL,7.060555,0,,,,,,stimuli/images/PICTURE_697.png,KILLER,5f1230c4f57b2f06e2465477,02/10/1942,2020-09-10_07h33.30.090,proactive3.1,2020.1.2,Win32,60,5f599a131af4471f3d752b7b,5f5a2a95c9d65f08b1791153,3,,,,,,peach,0,0,0,4,1,,,,,,,,,,,,,,,,,,,,,,,,,,,,,,,,,,,,,,,,,,,,,,,,,,,,,,,,,,,,,,,,,,,,,,,,,,,,,,,,,,,,,,,,,,,,,,,,,,,,,,,,,,,,,,,,,,,,
,,GENIUS,3.413825,1,,,,,,stimuli/images/PICTURE_269.png,GENIUS,5f1230c4f57b2f06e2465477,02/10/1942,2020-09-10_07h33.30.090,proactive3.1,2020.1.2,Win32,60,5f599a131af4471f3d752b7b,5f5a2a95c9d65f08b1791153,3,,,,,,chameleon,0,1,1,0,1,,,,,,,,,,,,,,,,,,,,,,,,,,,,,,,,,,,,,,,,,,,,,,,,,,,,,,,,,,,,,,,,,,,,,,,,,,,,,,,,,,,,,,,,,,,,,,,,,,,,,,,,,,,,,,,,,,,,
,,CELL,3.032025,1,,,,,,stimuli/images/PICTURE_727.png,CELL,5f1230c4f57b2f06e2465477,02/10/1942,2020-09-10_07h33.30.090,proactive3.1,2020.1.2,Win32,60,5f599a131af4471f3d752b7b,5f5a2a95c9d65f08b1791153,3,,,,,,hose,0,2,2,1,1,,,,,,,,,,,,,,,,,,,,,,,,,,,,,,,,,,,,,,,,,,,,,,,,,,,,,,,,,,,,,,,,,,,,,,,,,,,,,,,,,,,,,,,,,,,,,,,,,,,,,,,,,,,,,,,,,,,,
,,?,3.88943,0,,,,,,stimuli/images/PICTURE_378.png,LOSS,5f1230c4f57b2f06e2465477,02/10/1942,2020-09-10_07h33.30.090,proactive3.1,2020.1.2,Win32,60,5f599a131af4471f3d752b7b,5f5a2a95c9d65f08b1791153,3,,,,,,lobster,0,3,3,2,1,,,,,,,,,,,,,,,,,,,,,,,,,,,,,,,,,,,,,,,,,,,,,,,,,,,,,,,,,,,,,,,,,,,,,,,,,,,,,,,,,,,,,,,,,,,,,,,,,,,,,,,,,,,,,,,,,,,,
,,?,4.573925,0,,,,,,stimuli/images/PICTURE_658.png,DEVIL,5f1230c4f57b2f06e2465477,02/10/1942,2020-09-10_07h33.30.090,proactive3.1,2020.1.2,Win32,60,5f599a131af4471f3d752b7b,5f5a2a95c9d65f08b1791153,3,,,,,,crow,0,4,4,3,1,,,,,,,,,,,,,,,,,,,,,,,,,,,,,,,,,,,,,,,,,,,,,,,,,,,,,,,,,,,,,,,,,,,,,,,,,,,,,,,,,,,,,,,,,,,,,,,,,,,,,,,,,,,,,,,,,,,,
,,,,,,,,,,stimuli/images/PICTURE_491.png,WRITER,5f1230c4f57b2f06e2465477,02/10/1942,2020-09-10_07h33.30.090,proactive3.1,2020.1.2,Win32,60,5f599a131af4471f3d752b7b,5f5a2a95c9d65f08b1791153,3,,,,,,rug,,,,,,0,0,0,57,1,6,0,,,,,,,,,,,,,,,,,,,,,,,,,,,,,,,,,,,,,,,,,,,,,,,,,,,,,,,,,,,,,,,,,,,,,,,,,,,,,,,,,,,,,,,,,,,,,,,,,,,,,,,,,,,,,
,,,,,,,,,,stimuli/images/PICTURE_348.png,SPEECH,5f1230c4f57b2f06e2465477,02/10/1942,2020-09-10_07h33.30.090,proactive3.1,2020.1.2,Win32,60,5f599a131af4471f3d752b7b,5f5a2a95c9d65f08b1791153,3,,,,,,pepper,,,,,,0,1,1,20,1,3,0,,,,,,,,,,,,,,,,,,,,,,,,,,,,,,,,,,,,,,,,,,,,,,,,,,,,,,,,,,,,,,,,,,,,,,,,,,,,,,,,,,,,,,,,,,,,,,,,,,,,,,,,,,,,,
,,,,,,,,,,stimuli/images/PICTURE_208.png,THING,5f1230c4f57b2f06e2465477,02/10/1942,2020-09-10_07h33.30.090,proactive3.1,2020.1.2,Win32,60,5f599a131af4471f3d752b7b,5f5a2a95c9d65f08b1791153,3,,,,,,microphone,,,,,,0,2,2,47,1,5,0,,,,,,,,,,,,,,,,,,,,,,,,,,,,,,,,,,,,,,,,,,,,,,,,,,,,,,,,,,,,,,,,,,,,,,,,,,,,,,,,,,,,,,,,,,,,,,,,,,,,,,,,,,,,,
,,,,,,,,,,stimuli/images/PICTURE_491.png,ROOF,5f1230c4f57b2f06e2465477,02/10/1942,2020-09-10_07h33.30.090,proactive3.1,2020.1.2,Win32,60,5f599a131af4471f3d752b7b,5f5a2a95c9d65f08b1791153,3,,,,,,rug,,,,,,0,3,3,24,1,3,0,,,,,,,,,,,,,,,,,,,,,,,,,,,,,,,,,,,,,,,,,,,,,,,,,,,,,,,,,,,,,,,,,,,,,,,,,,,,,,,,,,,,,,,,,,,,,,,,,,,,,,,,,,,,,
,,,,,,,,,,stimuli/images/PICTURE_488.png,STYLE,5f1230c4f57b2f06e2465477,02/10/1942,2020-09-10_07h33.30.090,proactive3.1,2020.1.2,Win32,60,5f599a131af4471f3d752b7b,5f5a2a95c9d65f08b1791153,3,,,,,,sun,,,,,,0,4,4,33,1,4,0,,,,,,,,,,,,,,,,,,,,,,,,,,,,,,,,,,,,,,,,,,,,,,,,,,,,,,,,,,,,,,,,,,,,,,,,,,,,,,,,,,,,,,,,,,,,,,,,,,,,,,,,,,,,,
,,,,,,,,,,stimuli/images/PICTURE_160.png,LEADER,5f1230c4f57b2f06e2465477,02/10/1942,2020-09-10_07h33.30.090,proactive3.1,2020.1.2,Win32,60,5f599a131af4471f3d752b7b,5f5a2a95c9d65f08b1791153,3,,,,,,wheelbarrow,,,,,,0,5,5,3,1,1,0,,,,,,,,,,,,,,,,,,,,,,,,,,,,,,,,,,,,,,,,,,,,,,,,,,,,,,,,,,,,,,,,,,,,,,,,,,,,,,,,,,,,,,,,,,,,,,,,,,,,,,,,,,,,,
,,,,,,,,,,stimuli/images/PICTURE_308.png,ESTATE,5f1230c4f57b2f06e2465477,02/10/1942,2020-09-10_07h33.30.090,proactive3.1,2020.1.2,Win32,60,5f599a131af4471f3d752b7b,5f5a2a95c9d65f08b1791153,3,,,,,,dice,,,,,,0,6,6,46,1,5,0,,,,,,,,,,,,,,,,,,,,,,,,,,,,,,,,,,,,,,,,,,,,,,,,,,,,,,,,,,,,,,,,,,,,,,,,,,,,,,,,,,,,,,,,,,,,,,,,,,,,,,,,,,,,,
,,,,,,,,,,stimuli/images/PICTURE_208.png,LOTS,5f1230c4f57b2f06e2465477,02/10/1942,2020-09-10_07h33.30.090,proactive3.1,2020.1.2,Win32,60,5f599a131af4471f3d752b7b,5f5a2a95c9d65f08b1791153,3,,,,,,microphone,,,,,,0,7,7,10,1,2,0,,,,,,,,,,,,,,,,,,,,,,,,,,,,,,,,,,,,,,,,,,,,,,,,,,,,,,,,,,,,,,,,,,,,,,,,,,,,,,,,,,,,,,,,,,,,,,,,,,,,,,,,,,,,,
,,,,,,,,,,stimuli/images/PICTURE_708.png,YARD,5f1230c4f57b2f06e2465477,02/10/1942,2020-09-10_07h33.30.090,proactive3.1,2020.1.2,Win32,60,5f599a131af4471f3d752b7b,5f5a2a95c9d65f08b1791153,3,,,,,,monkey,,,,,,0,8,8,29,1,3,0,,,,,,,,,,,,,,,,,,,,,,,,,,,,,,,,,,,,,,,,,,,,,,,,,,,,,,,,,,,,,,,,,,,,,,,,,,,,,,,,,,,,,,,,,,,,,,,,,,,,,,,,,,,,,
,,,,,,,,,,stimuli/images/PICTURE_123.png,ADVICE,5f1230c4f57b2f06e2465477,02/10/1942,2020-09-10_07h33.30.090,proactive3.1,2020.1.2,Win32,60,5f599a131af4471f3d752b7b,5f5a2a95c9d65f08b1791153,3,,,,,,dart,,,,,,0,9,9,40,1,5,0,,,,,,,,,,,,,,,,,,,,,,,,,,,,,,,,,,,,,,,,,,,,,,,,,,,,,,,,,,,,,,,,,,,,,,,,,,,,,,,,,,,,,,,,,,,,,,,,,,,,,,,,,,,,,
,,,,,,,,,,stimuli/images/PICTURE_449.png,THING,5f1230c4f57b2f06e2465477,02/10/1942,2020-09-10_07h33.30.090,proactive3.1,2020.1.2,Win32,60,5f599a131af4471f3d752b7b,5f5a2a95c9d65f08b1791153,3,,,,,,bench,,,,,,0,10,10,59,1,6,0,,,,,,,,,,,,,,,,,,,,,,,,,,,,,,,,,,,,,,,,,,,,,,,,,,,,,,,,,,,,,,,,,,,,,,,,,,,,,,,,,,,,,,,,,,,,,,,,,,,,,,,,,,,,,
,,,,,,,,,,stimuli/images/PICTURE_311.png,FRIEND,5f1230c4f57b2f06e2465477,02/10/1942,2020-09-10_07h33.30.090,proactive3.1,2020.1.2,Win32,60,5f599a131af4471f3d752b7b,5f5a2a95c9d65f08b1791153,3,,,,,,razor,,,,,,0,11,11,34,1,4,0,,,,,,,,,,,,,,,,,,,,,,,,,,,,,,,,,,,,,,,,,,,,,,,,,,,,,,,,,,,,,,,,,,,,,,,,,,,,,,,,,,,,,,,,,,,,,,,,,,,,,,,,,,,,,
,,,,,,,,,,stimuli/images/PICTURE_692.png,MONTH,5f1230c4f57b2f06e2465477,02/10/1942,2020-09-10_07h33.30.090,proactive3.1,2020.1.2,Win32,60,5f599a131af4471f3d752b7b,5f5a2a95c9d65f08b1791153,3,,,,,,cherry,,,,,,0,12,12,16,1,2,0,,,,,,,,,,,,,,,,,,,,,,,,,,,,,,,,,,,,,,,,,,,,,,,,,,,,,,,,,,,,,,,,,,,,,,,,,,,,,,,,,,,,,,,,,,,,,,,,,,,,,,,,,,,,,
,,,,,,,,,,stimuli/images/PICTURE_311.png,BEAUTY,5f1230c4f57b2f06e2465477,02/10/1942,2020-09-10_07h33.30.090,proactive3.1,2020.1.2,Win32,60,5f599a131af4471f3d752b7b,5f5a2a95c9d65f08b1791153,3,,,,,,razor,,,,,,0,13,13,13,1,2,0,,,,,,,,,,,,,,,,,,,,,,,,,,,,,,,,,,,,,,,,,,,,,,,,,,,,,,,,,,,,,,,,,,,,,,,,,,,,,,,,,,,,,,,,,,,,,,,,,,,,,,,,,,,,,
,,,,,,,,,,stimuli/images/PICTURE_215.png,PLENTY,5f1230c4f57b2f06e2465477,02/10/1942,2020-09-10_07h33.30.090,proactive3.1,2020.1.2,Win32,60,5f599a131af4471f3d752b7b,5f5a2a95c9d65f08b1791153,3,,,,,,boot,,,,,,0,14,14,37,1,4,0,,,,,,,,,,,,,,,,,,,,,,,,,,,,,,,,,,,,,,,,,,,,,,,,,,,,,,,,,,,,,,,,,,,,,,,,,,,,,,,,,,,,,,,,,,,,,,,,,,,,,,,,,,,,,
,,,,,,,,,,stimuli/images/PICTURE_467.png,DEMON,5f1230c4f57b2f06e2465477,02/10/1942,2020-09-10_07h33.30.090,proactive3.1,2020.1.2,Win32,60,5f599a131af4471f3d752b7b,5f5a2a95c9d65f08b1791153,3,,,,,,peg,,,,,,0,15,15,23,1,3,0,,,,,,,,,,,,,,,,,,,,,,,,,,,,,,,,,,,,,,,,,,,,,,,,,,,,,,,,,,,,,,,,,,,,,,,,,,,,,,,,,,,,,,,,,,,,,,,,,,,,,,,,,,,,,
,,,,,,,,,,stimuli/images/PICTURE_380.png,PHOTO,5f1230c4f57b2f06e2465477,02/10/1942,2020-09-10_07h33.30.090,proactive3.1,2020.1.2,Win32,60,5f599a131af4471f3d752b7b,5f5a2a95c9d65f08b1791153,3,,,,,,gorilla,,,,,,0,16,16,52,1,6,0,,,,,,,,,,,,,,,,,,,,,,,,,,,,,,,,,,,,,,,,,,,,,,,,,,,,,,,,,,,,,,,,,,,,,,,,,,,,,,,,,,,,,,,,,,,,,,,,,,,,,,,,,,,,,
,,,,,,,,,,stimuli/images/PICTURE_248.png,DOZEN,5f1230c4f57b2f06e2465477,02/10/1942,2020-09-10_07h33.30.090,proactive3.1,2020.1.2,Win32,60,5f599a131af4471f3d752b7b,5f5a2a95c9d65f08b1791153,3,,,,,,cart,,,,,,0,17,17,39,1,4,0,,,,,,,,,,,,,,,,,,,,,,,,,,,,,,,,,,,,,,,,,,,,,,,,,,,,,,,,,,,,,,,,,,,,,,,,,,,,,,,,,,,,,,,,,,,,,,,,,,,,,,,,,,,,,
,,,,,,,,,,stimuli/images/PICTURE_667.png,BATH,5f1230c4f57b2f06e2465477,02/10/1942,2020-09-10_07h33.30.090,proactive3.1,2020.1.2,Win32,60,5f599a131af4471f3d752b7b,5f5a2a95c9d65f08b1791153,3,,,,,,daisy,,,,,,0,18,18,4,1,1,0,,,,,,,,,,,,,,,,,,,,,,,,,,,,,,,,,,,,,,,,,,,,,,,,,,,,,,,,,,,,,,,,,,,,,,,,,,,,,,,,,,,,,,,,,,,,,,,,,,,,,,,,,,,,,
,,,,,,,,,,stimuli/images/PICTURE_285.png,ADVICE,5f1230c4f57b2f06e2465477,02/10/1942,2020-09-10_07h33.30.090,proactive3.1,2020.1.2,Win32,60,5f599a131af4471f3d752b7b,5f5a2a95c9d65f08b1791153,3,,,,,,carrot,,,,,,0,19,19,12,1,2,0,,,,,,,,,,,,,,,,,,,,,,,,,,,,,,,,,,,,,,,,,,,,,,,,,,,,,,,,,,,,,,,,,,,,,,,,,,,,,,,,,,,,,,,,,,,,,,,,,,,,,,,,,,,,,
,,,,,,,,,,stimuli/images/PICTURE_453.png,PLENTY,5f1230c4f57b2f06e2465477,02/10/1942,2020-09-10_07h33.30.090,proactive3.1,2020.1.2,Win32,60,5f599a131af4471f3d752b7b,5f5a2a95c9d65f08b1791153,3,,,,,,scissors,,,,,,0,20,20,56,1,6,0,,,,,,,,,,,,,,,,,,,,,,,,,,,,,,,,,,,,,,,,,,,,,,,,,,,,,,,,,,,,,,,,,,,,,,,,,,,,,,,,,,,,,,,,,,,,,,,,,,,,,,,,,,,,,
,,,,,,,,,,stimuli/images/PICTURE_151.png,GIRL,5f1230c4f57b2f06e2465477,02/10/1942,2020-09-10_07h33.30.090,proactive3.1,2020.1.2,Win32,60,5f599a131af4471f3d752b7b,5f5a2a95c9d65f08b1791153,3,,,,,,tray,,,,,,0,21,21,19,1,2,0,,,,,,,,,,,,,,,,,,,,,,,,,,,,,,,,,,,,,,,,,,,,,,,,,,,,,,,,,,,,,,,,,,,,,,,,,,,,,,,,,,,,,,,,,,,,,,,,,,,,,,,,,,,,,
,,,,,,,,,,stimuli/images/PICTURE_302.png,FAMILY,5f1230c4f57b2f06e2465477,02/10/1942,2020-09-10_07h33.30.090,proactive3.1,2020.1.2,Win32,60,5f599a131af4471f3d752b7b,5f5a2a95c9d65f08b1791153,3,,,,,,taxi,,,,,,0,22,22,18,1,2,0,,,,,,,,,,,,,,,,,,,,,,,,,,,,,,,,,,,,,,,,,,,,,,,,,,,,,,,,,,,,,,,,,,,,,,,,,,,,,,,,,,,,,,,,,,,,,,,,,,,,,,,,,,,,,
,,,,,,,,,,stimuli/images/PICTURE_314.png,GODS,5f1230c4f57b2f06e2465477,02/10/1942,2020-09-10_07h33.30.090,proactive3.1,2020.1.2,Win32,60,5f599a131af4471f3d752b7b,5f5a2a95c9d65f08b1791153,3,,,,,,perfume,,,,,,0,23,23,11,1,2,0,,,,,,,,,,,,,,,,,,,,,,,,,,,,,,,,,,,,,,,,,,,,,,,,,,,,,,,,,,,,,,,,,,,,,,,,,,,,,,,,,,,,,,,,,,,,,,,,,,,,,,,,,,,,,
,,,,,,,,,,stimuli/images/PICTURE_708.png,CLIENT,5f1230c4f57b2f06e2465477,02/10/1942,2020-09-10_07h33.30.090,proactive3.1,2020.1.2,Win32,60,5f599a131af4471f3d752b7b,5f5a2a95c9d65f08b1791153,3,,,,,,monkey,,,,,,0,24,24,5,1,1,0,,,,,,,,,,,,,,,,,,,,,,,,,,,,,,,,,,,,,,,,,,,,,,,,,,,,,,,,,,,,,,,,,,,,,,,,,,,,,,,,,,,,,,,,,,,,,,,,,,,,,,,,,,,,,
,,,,,,,,,,stimuli/images/PICTURE_509.png,PHOTO,5f1230c4f57b2f06e2465477,02/10/1942,2020-09-10_07h33.30.090,proactive3.1,2020.1.2,Win32,60,5f599a131af4471f3d752b7b,5f5a2a95c9d65f08b1791153,3,,,,,,telephone,,,,,,0,25,25,21,1,3,0,,,,,,,,,,,,,,,,,,,,,,,,,,,,,,,,,,,,,,,,,,,,,,,,,,,,,,,,,,,,,,,,,,,,,,,,,,,,,,,,,,,,,,,,,,,,,,,,,,,,,,,,,,,,,
,,,,,,,,,,stimuli/images/PICTURE_677.png,MILE,5f1230c4f57b2f06e2465477,02/10/1942,2020-09-10_07h33.30.090,proactive3.1,2020.1.2,Win32,60,5f599a131af4471f3d752b7b,5f5a2a95c9d65f08b1791153,3,,,,,,map,,,,,,0,26,26,30,1,4,0,,,,,,,,,,,,,,,,,,,,,,,,,,,,,,,,,,,,,,,,,,,,,,,,,,,,,,,,,,,,,,,,,,,,,,,,,,,,,,,,,,,,,,,,,,,,,,,,,,,,,,,,,,,,,
,,,,,,,,,,stimuli/images/PICTURE_744.png,SYSTEM,5f1230c4f57b2f06e2465477,02/10/1942,2020-09-10_07h33.30.090,proactive3.1,2020.1.2,Win32,60,5f599a131af4471f3d752b7b,5f5a2a95c9d65f08b1791153,3,,,,,,ring,,,,,,0,27,27,43,1,5,0,,,,,,,,,,,,,,,,,,,,,,,,,,,,,,,,,,,,,,,,,,,,,,,,,,,,,,,,,,,,,,,,,,,,,,,,,,,,,,,,,,,,,,,,,,,,,,,,,,,,,,,,,,,,,
,,,,,,,,,,stimuli/images/PICTURE_160.png,FEET,5f1230c4f57b2f06e2465477,02/10/1942,2020-09-10_07h33.30.090,proactive3.1,2020.1.2,Win32,60,5f599a131af4471f3d752b7b,5f5a2a95c9d65f08b1791153,3,,,,,,wheelbarrow,,,,,,0,28,28,58,1,6,0,,,,,,,,,,,,,,,,,,,,,,,,,,,,,,,,,,,,,,,,,,,,,,,,,,,,,,,,,,,,,,,,,,,,,,,,,,,,,,,,,,,,,,,,,,,,,,,,,,,,,,,,,,,,,
,,,,,,,,,,stimuli/images/PICTURE_85.png,THING,5f1230c4f57b2f06e2465477,02/10/1942,2020-09-10_07h33.30.090,proactive3.1,2020.1.2,Win32,60,5f599a131af4471f3d752b7b,5f5a2a95c9d65f08b1791153,3,,,,,,diamond,,,,,,0,29,29,15,1,2,0,,,,,,,,,,,,,,,,,,,,,,,,,,,,,,,,,,,,,,,,,,,,,,,,,,,,,,,,,,,,,,,,,,,,,,,,,,,,,,,,,,,,,,,,,,,,,,,,,,,,,,,,,,,,,
,,,,,,,,,,stimuli/images/PICTURE_380.png,DEATH,5f1230c4f57b2f06e2465477,02/10/1942,2020-09-10_07h33.30.090,proactive3.1,2020.1.2,Win32,60,5f599a131af4471f3d752b7b,5f5a2a95c9d65f08b1791153,3,,,,,,gorilla,,,,,,0,30,30,49,1,5,0,,,,,,,,,,,,,,,,,,,,,,,,,,,,,,,,,,,,,,,,,,,,,,,,,,,,,,,,,,,,,,,,,,,,,,,,,,,,,,,,,,,,,,,,,,,,,,,,,,,,,,,,,,,,,
,,,,,,,,,,stimuli/images/PICTURE_308.png,KIND,5f1230c4f57b2f06e2465477,02/10/1942,2020-09-10_07h33.30.090,proactive3.1,2020.1.2,Win32,60,5f599a131af4471f3d752b7b,5f5a2a95c9d65f08b1791153,3,,,,,,dice,,,,,,0,31,31,54,1,6,0,,,,,,,,,,,,,,,,,,,,,,,,,,,,,,,,,,,,,,,,,,,,,,,,,,,,,,,,,,,,,,,,,,,,,,,,,,,,,,,,,,,,,,,,,,,,,,,,,,,,,,,,,,,,,
,,,,,,,,,,stimuli/images/PICTURE_469.png,LETTER,5f1230c4f57b2f06e2465477,02/10/1942,2020-09-10_07h33.30.090,proactive3.1,2020.1.2,Win32,60,5f599a131af4471f3d752b7b,5f5a2a95c9d65f08b1791153,3,,,,,,stool,,,,,,0,32,32,42,1,5,0,,,,,,,,,,,,,,,,,,,,,,,,,,,,,,,,,,,,,,,,,,,,,,,,,,,,,,,,,,,,,,,,,,,,,,,,,,,,,,,,,,,,,,,,,,,,,,,,,,,,,,,,,,,,,
,,,,,,,,,,stimuli/images/PICTURE_32.png,JUNGLE,5f1230c4f57b2f06e2465477,02/10/1942,2020-09-10_07h33.30.090,proactive3.1,2020.1.2,Win32,60,5f599a131af4471f3d752b7b,5f5a2a95c9d65f08b1791153,3,,,,,,crown,,,,,,0,33,33,45,1,5,0,,,,,,,,,,,,,,,,,,,,,,,,,,,,,,,,,,,,,,,,,,,,,,,,,,,,,,,,,,,,,,,,,,,,,,,,,,,,,,,,,,,,,,,,,,,,,,,,,,,,,,,,,,,,,
,,,,,,,,,,stimuli/images/PICTURE_95.png,STYLE,5f1230c4f57b2f06e2465477,02/10/1942,2020-09-10_07h33.30.090,proactive3.1,2020.1.2,Win32,60,5f599a131af4471f3d752b7b,5f5a2a95c9d65f08b1791153,3,,,,,,suitcase,,,,,,0,34,34,25,1,3,0,,,,,,,,,,,,,,,,,,,,,,,,,,,,,,,,,,,,,,,,,,,,,,,,,,,,,,,,,,,,,,,,,,,,,,,,,,,,,,,,,,,,,,,,,,,,,,,,,,,,,,,,,,,,,
,,,,,,,,,,stimuli/images/PICTURE_255.png,AREA,5f1230c4f57b2f06e2465477,02/10/1942,2020-09-10_07h33.30.090,proactive3.1,2020.1.2,Win32,60,5f599a131af4471f3d752b7b,5f5a2a95c9d65f08b1791153,3,,,,,,shovel,,,,,,0,35,35,22,1,3,0,,,,,,,,,,,,,,,,,,,,,,,,,,,,,,,,,,,,,,,,,,,,,,,,,,,,,,,,,,,,,,,,,,,,,,,,,,,,,,,,,,,,,,,,,,,,,,,,,,,,,,,,,,,,,
,,,,,,,,,,stimuli/images/PICTURE_314.png,SAKE,5f1230c4f57b2f06e2465477,02/10/1942,2020-09-10_07h33.30.090,proactive3.1,2020.1.2,Win32,60,5f599a131af4471f3d752b7b,5f5a2a95c9d65f08b1791153,3,,,,,,perfume,,,,,,0,36,36,7,1,1,0,,,,,,,,,,,,,,,,,,,,,,,,,,,,,,,,,,,,,,,,,,,,,,,,,,,,,,,,,,,,,,,,,,,,,,,,,,,,,,,,,,,,,,,,,,,,,,,,,,,,,,,,,,,,,
,,,,,,,,,,stimuli/images/PICTURE_147.png,MOMENT,5f1230c4f57b2f06e2465477,02/10/1942,2020-09-10_07h33.30.090,proactive3.1,2020.1.2,Win32,60,5f599a131af4471f3d752b7b,5f5a2a95c9d65f08b1791153,3,,,,,,hanger,,,,,,0,37,37,51,1,6,0,,,,,,,,,,,,,,,,,,,,,,,,,,,,,,,,,,,,,,,,,,,,,,,,,,,,,,,,,,,,,,,,,,,,,,,,,,,,,,,,,,,,,,,,,,,,,,,,,,,,,,,,,,,,,
,,,,,,,,,,stimuli/images/PICTURE_453.png,DUDE,5f1230c4f57b2f06e2465477,02/10/1942,2020-09-10_07h33.30.090,proactive3.1,2020.1.2,Win32,60,5f599a131af4471f3d752b7b,5f5a2a95c9d65f08b1791153,3,,,,,,scissors,,,,,,0,38,38,27,1,3,0,,,,,,,,,,,,,,,,,,,,,,,,,,,,,,,,,,,,,,,,,,,,,,,,,,,,,,,,,,,,,,,,,,,,,,,,,,,,,,,,,,,,,,,,,,,,,,,,,,,,,,,,,,,,,
,,,,,,,,,,stimuli/images/PICTURE_688.png,CASINO,5f1230c4f57b2f06e2465477,02/10/1942,2020-09-10_07h33.30.090,proactive3.1,2020.1.2,Win32,60,5f599a131af4471f3d752b7b,5f5a2a95c9d65f08b1791153,3,,,,,,runner,,,,,,0,39,39,2,1,1,0,,,,,,,,,,,,,,,,,,,,,,,,,,,,,,,,,,,,,,,,,,,,,,,,,,,,,,,,,,,,,,,,,,,,,,,,,,,,,,,,,,,,,,,,,,,,,,,,,,,,,,,,,,,,,
,,,,,,,,,,stimuli/images/PICTURE_233.png,IDEAS,5f1230c4f57b2f06e2465477,02/10/1942,2020-09-10_07h33.30.090,proactive3.1,2020.1.2,Win32,60,5f599a131af4471f3d752b7b,5f5a2a95c9d65f08b1791153,3,,,,,,salt,,,,,,0,40,40,28,1,3,0,,,,,,,,,,,,,,,,,,,,,,,,,,,,,,,,,,,,,,,,,,,,,,,,,,,,,,,,,,,,,,,,,,,,,,,,,,,,,,,,,,,,,,,,,,,,,,,,,,,,,,,,,,,,,
,,,,,,,,,,stimuli/images/PICTURE_469.png,ARTIST,5f1230c4f57b2f06e2465477,02/10/1942,2020-09-10_07h33.30.090,proactive3.1,2020.1.2,Win32,60,5f599a131af4471f3d752b7b,5f5a2a95c9d65f08b1791153,3,,,,,,stool,,,,,,0,41,41,6,1,1,0,,,,,,,,,,,,,,,,,,,,,,,,,,,,,,,,,,,,,,,,,,,,,,,,,,,,,,,,,,,,,,,,,,,,,,,,,,,,,,,,,,,,,,,,,,,,,,,,,,,,,,,,,,,,,
,,,,,,,,,,stimuli/images/PICTURE_487.png,FLIGHT,5f1230c4f57b2f06e2465477,02/10/1942,2020-09-10_07h33.30.090,proactive3.1,2020.1.2,Win32,60,5f599a131af4471f3d752b7b,5f5a2a95c9d65f08b1791153,3,,,,,,basket,,,,,,0,42,42,9,1,1,0,,,,,,,,,,,,,,,,,,,,,,,,,,,,,,,,,,,,,,,,,,,,,,,,,,,,,,,,,,,,,,,,,,,,,,,,,,,,,,,,,,,,,,,,,,,,,,,,,,,,,,,,,,,,,
,,,,,,,,,,stimuli/images/PICTURE_123.png,ADVICE,5f1230c4f57b2f06e2465477,02/10/1942,2020-09-10_07h33.30.090,proactive3.1,2020.1.2,Win32,60,5f599a131af4471f3d752b7b,5f5a2a95c9d65f08b1791153,3,,,,,,dart,,,,,,0,43,43,50,1,6,0,,,,,,,,,,,,,,,,,,,,,,,,,,,,,,,,,,,,,,,,,,,,,,,,,,,,,,,,,,,,,,,,,,,,,,,,,,,,,,,,,,,,,,,,,,,,,,,,,,,,,,,,,,,,,
,,,,,,,,,,stimuli/images/PICTURE_470.png,CASINO,5f1230c4f57b2f06e2465477,02/10/1942,2020-09-10_07h33.30.090,proactive3.1,2020.1.2,Win32,60,5f599a131af4471f3d752b7b,5f5a2a95c9d65f08b1791153,3,,,,,,motorbike,,,,,,0,44,44,36,1,4,0,,,,,,,,,,,,,,,,,,,,,,,,,,,,,,,,,,,,,,,,,,,,,,,,,,,,,,,,,,,,,,,,,,,,,,,,,,,,,,,,,,,,,,,,,,,,,,,,,,,,,,,,,,,,,
,,,,,,,,,,stimuli/images/PICTURE_327.png,BEAUTY,5f1230c4f57b2f06e2465477,02/10/1942,2020-09-10_07h33.30.090,proactive3.1,2020.1.2,Win32,60,5f599a131af4471f3d752b7b,5f5a2a95c9d65f08b1791153,3,,,,,,helmet,,,,,,0,45,45,48,1,5,0,,,,,,,,,,,,,,,,,,,,,,,,,,,,,,,,,,,,,,,,,,,,,,,,,,,,,,,,,,,,,,,,,,,,,,,,,,,,,,,,,,,,,,,,,,,,,,,,,,,,,,,,,,,,,
,,,,,,,,,,stimuli/images/PICTURE_708.png,PENNY,5f1230c4f57b2f06e2465477,02/10/1942,2020-09-10_07h33.30.090,proactive3.1,2020.1.2,Win32,60,5f599a131af4471f3d752b7b,5f5a2a95c9d65f08b1791153,3,,,,,,monkey,,,,,,0,46,46,31,1,4,0,,,,,,,,,,,,,,,,,,,,,,,,,,,,,,,,,,,,,,,,,,,,,,,,,,,,,,,,,,,,,,,,,,,,,,,,,,,,,,,,,,,,,,,,,,,,,,,,,,,,,,,,,,,,,
,,,,,,,,,,stimuli/images/PICTURE_233.png,WOMEN,5f1230c4f57b2f06e2465477,02/10/1942,2020-09-10_07h33.30.090,proactive3.1,2020.1.2,Win32,60,5f599a131af4471f3d752b7b,5f5a2a95c9d65f08b1791153,3,,,,,,salt,,,,,,0,47,47,38,1,4,0,,,,,,,,,,,,,,,,,,,,,,,,,,,,,,,,,,,,,,,,,,,,,,,,,,,,,,,,,,,,,,,,,,,,,,,,,,,,,,,,,,,,,,,,,,,,,,,,,,,,,,,,,,,,,
,,,,,,,,,,stimuli/images/PICTURE_667.png,PLENTY,5f1230c4f57b2f06e2465477,02/10/1942,2020-09-10_07h33.30.090,proactive3.1,2020.1.2,Win32,60,5f599a131af4471f3d752b7b,5f5a2a95c9d65f08b1791153,3,,,,,,daisy,,,,,,0,48,48,41,1,5,0,,,,,,,,,,,,,,,,,,,,,,,,,,,,,,,,,,,,,,,,,,,,,,,,,,,,,,,,,,,,,,,,,,,,,,,,,,,,,,,,,,,,,,,,,,,,,,,,,,,,,,,,,,,,,
,,,,,,,,,,stimuli/images/PICTURE_675.png,WEAPON,5f1230c4f57b2f06e2465477,02/10/1942,2020-09-10_07h33.30.090,proactive3.1,2020.1.2,Win32,60,5f599a131af4471f3d752b7b,5f5a2a95c9d65f08b1791153,3,,,,,,windmill,,,,,,0,49,49,32,1,4,0,,,,,,,,,,,,,,,,,,,,,,,,,,,,,,,,,,,,,,,,,,,,,,,,,,,,,,,,,,,,,,,,,,,,,,,,,,,,,,,,,,,,,,,,,,,,,,,,,,,,,,,,,,,,,
,,,,,,,,,,stimuli/images/PICTURE_208.png,MONTH,5f1230c4f57b2f06e2465477,02/10/1942,2020-09-10_07h33.30.090,proactive3.1,2020.1.2,Win32,60,5f599a131af4471f3d752b7b,5f5a2a95c9d65f08b1791153,3,,,,,,microphone,,,,,,0,50,50,53,1,6,0,,,,,,,,,,,,,,,,,,,,,,,,,,,,,,,,,,,,,,,,,,,,,,,,,,,,,,,,,,,,,,,,,,,,,,,,,,,,,,,,,,,,,,,,,,,,,,,,,,,,,,,,,,,,,
,,,,,,,,,,stimuli/images/PICTURE_68.png,MILE,5f1230c4f57b2f06e2465477,02/10/1942,2020-09-10_07h33.30.090,proactive3.1,2020.1.2,Win32,60,5f599a131af4471f3d752b7b,5f5a2a95c9d65f08b1791153,3,,,,,,candle,,,,,,0,51,51,44,1,5,0,,,,,,,,,,,,,,,,,,,,,,,,,,,,,,,,,,,,,,,,,,,,,,,,,,,,,,,,,,,,,,,,,,,,,,,,,,,,,,,,,,,,,,,,,,,,,,,,,,,,,,,,,,,,,
,,,,,,,,,,stimuli/images/PICTURE_203.png,ARTIST,5f1230c4f57b2f06e2465477,02/10/1942,2020-09-10_07h33.30.090,proactive3.1,2020.1.2,Win32,60,5f599a131af4471f3d752b7b,5f5a2a95c9d65f08b1791153,3,,,,,,cap,,,,,,0,52,52,26,1,3,0,,,,,,,,,,,,,,,,,,,,,,,,,,,,,,,,,,,,,,,,,,,,,,,,,,,,,,,,,,,,,,,,,,,,,,,,,,,,,,,,,,,,,,,,,,,,,,,,,,,,,,,,,,,,,
,,,,,,,,,,stimuli/images/PICTURE_688.png,WOMEN,5f1230c4f57b2f06e2465477,02/10/1942,2020-09-10_07h33.30.090,proactive3.1,2020.1.2,Win32,60,5f599a131af4471f3d752b7b,5f5a2a95c9d65f08b1791153,3,,,,,,runner,,,,,,0,53,53,14,1,2,0,,,,,,,,,,,,,,,,,,,,,,,,,,,,,,,,,,,,,,,,,,,,,,,,,,,,,,,,,,,,,,,,,,,,,,,,,,,,,,,,,,,,,,,,,,,,,,,,,,,,,,,,,,,,,
,,,,,,,,,,stimuli/images/PICTURE_744.png,SAKE,5f1230c4f57b2f06e2465477,02/10/1942,2020-09-10_07h33.30.090,proactive3.1,2020.1.2,Win32,60,5f599a131af4471f3d752b7b,5f5a2a95c9d65f08b1791153,3,,,,,,ring,,,,,,0,54,54,17,1,2,0,,,,,,,,,,,,,,,,,,,,,,,,,,,,,,,,,,,,,,,,,,,,,,,,,,,,,,,,,,,,,,,,,,,,,,,,,,,,,,,,,,,,,,,,,,,,,,,,,,,,,,,,,,,,,
,,,,,,,,,,stimuli/images/PICTURE_339.png,PLENTY,5f1230c4f57b2f06e2465477,02/10/1942,2020-09-10_07h33.30.090,proactive3.1,2020.1.2,Win32,60,5f599a131af4471f3d752b7b,5f5a2a95c9d65f08b1791153,3,,,,,,backpack,,,,,,0,55,55,0,1,1,0,,,,,,,,,,,,,,,,,,,,,,,,,,,,,,,,,,,,,,,,,,,,,,,,,,,,,,,,,,,,,,,,,,,,,,,,,,,,,,,,,,,,,,,,,,,,,,,,,,,,,,,,,,,,,
,,,,,,,,,,stimuli/images/PICTURE_654.png,VALLEY,5f1230c4f57b2f06e2465477,02/10/1942,2020-09-10_07h33.30.090,proactive3.1,2020.1.2,Win32,60,5f599a131af4471f3d752b7b,5f5a2a95c9d65f08b1791153,3,,,,,,pencil,,,,,,0,56,56,1,1,1,0,,,,,,,,,,,,,,,,,,,,,,,,,,,,,,,,,,,,,,,,,,,,,,,,,,,,,,,,,,,,,,,,,,,,,,,,,,,,,,,,,,,,,,,,,,,,,,,,,,,,,,,,,,,,,
,,,,,,,,,,stimuli/images/PICTURE_177.png,CARS,5f1230c4f57b2f06e2465477,02/10/1942,2020-09-10_07h33.30.090,proactive3.1,2020.1.2,Win32,60,5f599a131af4471f3d752b7b,5f5a2a95c9d65f08b1791153,3,,,,,,mushroom,,,,,,0,57,57,35,1,4,0,,,,,,,,,,,,,,,,,,,,,,,,,,,,,,,,,,,,,,,,,,,,,,,,,,,,,,,,,,,,,,,,,,,,,,,,,,,,,,,,,,,,,,,,,,,,,,,,,,,,,,,,,,,,,
,,,,,,,,,,stimuli/images/PICTURE_356.png,DANGER,5f1230c4f57b2f06e2465477,02/10/1942,2020-09-10_07h33.30.090,proactive3.1,2020.1.2,Win32,60,5f599a131af4471f3d752b7b,5f5a2a95c9d65f08b1791153,3,,,,,,pawn,,,,,,0,58,58,55,1,6,0,,,,,,,,,,,,,,,,,,,,,,,,,,,,,,,,,,,,,,,,,,,,,,,,,,,,,,,,,,,,,,,,,,,,,,,,,,,,,,,,,,,,,,,,,,,,,,,,,,,,,,,,,,,,,
,,DEMON,8.654435,1,,,,,,stimuli/images/PICTURE_467.png,DEMON,5f1230c4f57b2f06e2465477,02/10/1942,2020-09-10_07h33.30.090,proactive3.1,2020.1.2,Win32,60,5f599a131af4471f3d752b7b,5f5a2a95c9d65f08b1791153,3,,,,,,peg,,,,,,,,,,,3,0,0,0,0,23,1,,,,,,,,,,,,,,,,,,,,,,,,,,,,,,,,,,,,,,,,,,,,,,,,,,,,,,,,,,,,,,,,,,,,,,,,,,,,,,,,,,,,,,,,,,,,,,,,,,,,,,,,
,,?,0.001695,0,,,,,,stimuli/images/PICTURE_339.png,PLENTY,5f1230c4f57b2f06e2465477,02/10/1942,2020-09-10_07h33.30.090,proactive3.1,2020.1.2,Win32,60,5f599a131af4471f3d752b7b,5f5a2a95c9d65f08b1791153,3,,,,,,backpack,,,,,,,,,,,1,0,0,1,1,0,1,,,,,,,,,,,,,,,,,,,,,,,,,,,,,,,,,,,,,,,,,,,,,,,,,,,,,,,,,,,,,,,,,,,,,,,,,,,,,,,,,,,,,,,,,,,,,,,,,,,,,,,,
,,?,0.00147,0,,,,,,stimuli/images/PICTURE_160.png,FEET,5f1230c4f57b2f06e2465477,02/10/1942,2020-09-10_07h33.30.090,proactive3.1,2020.1.2,Win32,60,5f599a131af4471f3d752b7b,5f5a2a95c9d65f08b1791153,3,,,,,,wheelbarrow,,,,,,,,,,,6,0,0,2,2,58,1,,,,,,,,,,,,,,,,,,,,,,,,,,,,,,,,,,,,,,,,,,,,,,,,,,,,,,,,,,,,,,,,,,,,,,,,,,,,,,,,,,,,,,,,,,,,,,,,,,,,,,,,
,,?,0.000985,0,,,,,,stimuli/images/PICTURE_356.png,DANGER,5f1230c4f57b2f06e2465477,02/10/1942,2020-09-10_07h33.30.090,proactive3.1,2020.1.2,Win32,60,5f599a131af4471f3d752b7b,5f5a2a95c9d65f08b1791153,3,,,,,,pawn,,,,,,,,,,,6,0,0,3,3,55,1,,,,,,,,,,,,,,,,,,,,,,,,,,,,,,,,,,,,,,,,,,,,,,,,,,,,,,,,,,,,,,,,,,,,,,,,,,,,,,,,,,,,,,,,,,,,,,,,,,,,,,,,
,,PHOTO,6.300345,1,,,,,,stimuli/images/PICTURE_509.png,PHOTO,5f1230c4f57b2f06e2465477,02/10/1942,2020-09-10_07h33.30.090,proactive3.1,2020.1.2,Win32,60,5f599a131af4471f3d752b7b,5f5a2a95c9d65f08b1791153,3,,,,,,telephone,,,,,,,,,,,3,0,0,4,4,21,1,,,,,,,,,,,,,,,,,,,,,,,,,,,,,,,,,,,,,,,,,,,,,,,,,,,,,,,,,,,,,,,,,,,,,,,,,,,,,,,,,,,,,,,,,,,,,,,,,,,,,,,,
,,?,0.0019,0,,,,,,stimuli/images/PICTURE_667.png,BATH,5f1230c4f57b2f06e2465477,02/10/1942,2020-09-10_07h33.30.090,proactive3.1,2020.1.2,Win32,60,5f599a131af4471f3d752b7b,5f5a2a95c9d65f08b1791153,3,,,,,,daisy,,,,,,,,,,,1,0,0,5,5,4,1,,,,,,,,,,,,,,,,,,,,,,,,,,,,,,,,,,,,,,,,,,,,,,,,,,,,,,,,,,,,,,,,,,,,,,,,,,,,,,,,,,,,,,,,,,,,,,,,,,,,,,,,
,,?,0.001115,0,,,,,,stimuli/images/PICTURE_311.png,BEAUTY,5f1230c4f57b2f06e2465477,02/10/1942,2020-09-10_07h33.30.090,proactive3.1,2020.1.2,Win32,60,5f599a131af4471f3d752b7b,5f5a2a95c9d65f08b1791153,3,,,,,,razor,,,,,,,,,,,2,0,0,6,6,13,1,,,,,,,,,,,,,,,,,,,,,,,,,,,,,,,,,,,,,,,,,,,,,,,,,,,,,,,,,,,,,,,,,,,,,,,,,,,,,,,,,,,,,,,,,,,,,,,,,,,,,,,,
,,?,0.00108,0,,,,,,stimuli/images/PICTURE_708.png,PENNY,5f1230c4f57b2f06e2465477,02/10/1942,2020-09-10_07h33.30.090,proactive3.1,2020.1.2,Win32,60,5f599a131af4471f3d752b7b,5f5a2a95c9d65f08b1791153,3,,,,,,monkey,,,,,,,,,,,4,0,0,7,7,31,1,,,,,,,,,,,,,,,,,,,,,,,,,,,,,,,,,,,,,,,,,,,,,,,,,,,,,,,,,,,,,,,,,,,,,,,,,,,,,,,,,,,,,,,,,,,,,,,,,,,,,,,,
,,AREA,7.572275,1,,,,,,stimuli/images/PICTURE_255.png,AREA,5f1230c4f57b2f06e2465477,02/10/1942,2020-09-10_07h33.30.090,proactive3.1,2020.1.2,Win32,60,5f599a131af4471f3d752b7b,5f5a2a95c9d65f08b1791153,3,,,,,,shovel,,,,,,,,,,,3,0,0,8,8,22,1,,,,,,,,,,,,,,,,,,,,,,,,,,,,,,,,,,,,,,,,,,,,,,,,,,,,,,,,,,,,,,,,,,,,,,,,,,,,,,,,,,,,,,,,,,,,,,,,,,,,,,,,
,,?,0.00204,0,,,,,,stimuli/images/PICTURE_327.png,BEAUTY,5f1230c4f57b2f06e2465477,02/10/1942,2020-09-10_07h33.30.090,proactive3.1,2020.1.2,Win32,60,5f599a131af4471f3d752b7b,5f5a2a95c9d65f08b1791153,3,,,,,,helmet,,,,,,,,,,,5,0,0,9,9,48,1,,,,,,,,,,,,,,,,,,,,,,,,,,,,,,,,,,,,,,,,,,,,,,,,,,,,,,,,,,,,,,,,,,,,,,,,,,,,,,,,,,,,,,,,,,,,,,,,,,,,,,,,
,,?,0.00186,0,,,,,,stimuli/images/PICTURE_308.png,KIND,5f1230c4f57b2f06e2465477,02/10/1942,2020-09-10_07h33.30.090,proactive3.1,2020.1.2,Win32,60,5f599a131af4471f3d752b7b,5f5a2a95c9d65f08b1791153,3,,,,,,dice,,,,,,,,,,,6,0,0,10,10,54,1,,,,,,,,,,,,,,,,,,,,,,,,,,,,,,,,,,,,,,,,,,,,,,,,,,,,,,,,,,,,,,,,,,,,,,,,,,,,,,,,,,,,,,,,,,,,,,,,,,,,,,,,
,,?,0.00178,0,,,,,,stimuli/images/PICTURE_667.png,PLENTY,5f1230c4f57b2f06e2465477,02/10/1942,2020-09-10_07h33.30.090,proactive3.1,2020.1.2,Win32,60,5f599a131af4471f3d752b7b,5f5a2a95c9d65f08b1791153,3,,,,,,daisy,,,,,,,,,,,5,0,0,11,11,41,1,,,,,,,,,,,,,,,,,,,,,,,,,,,,,,,,,,,,,,,,,,,,,,,,,,,,,,,,,,,,,,,,,,,,,,,,,,,,,,,,,,,,,,,,,,,,,,,,,,,,,,,,
,,SPEECH,9.099835,1,,,,,,stimuli/images/PICTURE_348.png,SPEECH,5f1230c4f57b2f06e2465477,02/10/1942,2020-09-10_07h33.30.090,proactive3.1,2020.1.2,Win32,60,5f599a131af4471f3d752b7b,5f5a2a95c9d65f08b1791153,3,,,,,,pepper,,,,,,,,,,,3,0,0,12,12,20,1,,,,,,,,,,,,,,,,,,,,,,,,,,,,,,,,,,,,,,,,,,,,,,,,,,,,,,,,,,,,,,,,,,,,,,,,,,,,,,,,,,,,,,,,,,,,,,,,,,,,,,,,
,,?,0.001905,0,,,,,,stimuli/images/PICTURE_151.png,GIRL,5f1230c4f57b2f06e2465477,02/10/1942,2020-09-10_07h33.30.090,proactive3.1,2020.1.2,Win32,60,5f599a131af4471f3d752b7b,5f5a2a95c9d65f08b1791153,3,,,,,,tray,,,,,,,,,,,2,0,0,13,13,19,1,,,,,,,,,,,,,,,,,,,,,,,,,,,,,,,,,,,,,,,,,,,,,,,,,,,,,,,,,,,,,,,,,,,,,,,,,,,,,,,,,,,,,,,,,,,,,,,,,,,,,,,,
,,?,0.001155,0,,,,,,stimuli/images/PICTURE_688.png,WOMEN,5f1230c4f57b2f06e2465477,02/10/1942,2020-09-10_07h33.30.090,proactive3.1,2020.1.2,Win32,60,5f599a131af4471f3d752b7b,5f5a2a95c9d65f08b1791153,3,,,,,,runner,,,,,,,,,,,2,0,0,14,14,14,1,,,,,,,,,,,,,,,,,,,,,,,,,,,,,,,,,,,,,,,,,,,,,,,,,,,,,,,,,,,,,,,,,,,,,,,,,,,,,,,,,,,,,,,,,,,,,,,,,,,,,,,,
,,IDEAS,7.657975,1,,,,,,stimuli/images/PICTURE_233.png,IDEAS,5f1230c4f57b2f06e2465477,02/10/1942,2020-09-10_07h33.30.090,proactive3.1,2020.1.2,Win32,60,5f599a131af4471f3d752b7b,5f5a2a95c9d65f08b1791153,3,,,,,,salt,,,,,,,,,,,3,0,0,15,15,28,1,,,,,,,,,,,,,,,,,,,,,,,,,,,,,,,,,,,,,,,,,,,,,,,,,,,,,,,,,,,,,,,,,,,,,,,,,,,,,,,,,,,,,,,,,,,,,,,,,,,,,,,,
,,?,0.00199,0,,,,,,stimuli/images/PICTURE_208.png,LOTS,5f1230c4f57b2f06e2465477,02/10/1942,2020-09-10_07h33.30.090,proactive3.1,2020.1.2,Win32,60,5f599a131af4471f3d752b7b,5f5a2a95c9d65f08b1791153,3,,,,,,microphone,,,,,,,,,,,2,0,0,16,16,10,1,,,,,,,,,,,,,,,,,,,,,,,,,,,,,,,,,,,,,,,,,,,,,,,,,,,,,,,,,,,,,,,,,,,,,,,,,,,,,,,,,,,,,,,,,,,,,,,,,,,,,,,,
,,?,0.001505,0,,,,,,stimuli/images/PICTURE_248.png,DOZEN,5f1230c4f57b2f06e2465477,02/10/1942,2020-09-10_07h33.30.090,proactive3.1,2020.1.2,Win32,60,5f599a131af4471f3d752b7b,5f5a2a95c9d65f08b1791153,3,,,,,,cart,,,,,,,,,,,4,0,0,17,17,39,1,,,,,,,,,,,,,,,,,,,,,,,,,,,,,,,,,,,,,,,,,,,,,,,,,,,,,,,,,,,,,,,,,,,,,,,,,,,,,,,,,,,,,,,,,,,,,,,,,,,,,,,,
,,?,0.001245,0,,,,,,stimuli/images/PICTURE_208.png,MONTH,5f1230c4f57b2f06e2465477,02/10/1942,2020-09-10_07h33.30.090,proactive3.1,2020.1.2,Win32,60,5f599a131af4471f3d752b7b,5f5a2a95c9d65f08b1791153,3,,,,,,microphone,,,,,,,,,,,6,0,0,18,18,53,1,,,,,,,,,,,,,,,,,,,,,,,,,,,,,,,,,,,,,,,,,,,,,,,,,,,,,,,,,,,,,,,,,,,,,,,,,,,,,,,,,,,,,,,,,,,,,,,,,,,,,,,,
,,?,0.001225,0,,,,,,stimuli/images/PICTURE_285.png,ADVICE,5f1230c4f57b2f06e2465477,02/10/1942,2020-09-10_07h33.30.090,proactive3.1,2020.1.2,Win32,60,5f599a131af4471f3d752b7b,5f5a2a95c9d65f08b1791153,3,,,,,,carrot,,,,,,,,,,,2,0,0,19,19,12,1,,,,,,,,,,,,,,,,,,,,,,,,,,,,,,,,,,,,,,,,,,,,,,,,,,,,,,,,,,,,,,,,,,,,,,,,,,,,,,,,,,,,,,,,,,,,,,,,,,,,,,,,
,,?,0.00104,0,,,,,,stimuli/images/PICTURE_147.png,MOMENT,5f1230c4f57b2f06e2465477,02/10/1942,2020-09-10_07h33.30.090,proactive3.1,2020.1.2,Win32,60,5f599a131af4471f3d752b7b,5f5a2a95c9d65f08b1791153,3,,,,,,hanger,,,,,,,,,,,6,0,0,20,20,51,1,,,,,,,,,,,,,,,,,,,,,,,,,,,,,,,,,,,,,,,,,,,,,,,,,,,,,,,,,,,,,,,,,,,,,,,,,,,,,,,,,,,,,,,,,,,,,,,,,,,,,,,,
,,?,0.00156,0,,,,,,stimuli/images/PICTURE_123.png,ADVICE,5f1230c4f57b2f06e2465477,02/10/1942,2020-09-10_07h33.30.090,proactive3.1,2020.1.2,Win32,60,5f599a131af4471f3d752b7b,5f5a2a95c9d65f08b1791153,3,,,,,,dart,,,,,,,,,,,5,0,0,21,21,40,1,,,,,,,,,,,,,,,,,,,,,,,,,,,,,,,,,,,,,,,,,,,,,,,,,,,,,,,,,,,,,,,,,,,,,,,,,,,,,,,,,,,,,,,,,,,,,,,,,,,,,,,,
,,?,0.000675,0,,,,,,stimuli/images/PICTURE_215.png,PLENTY,5f1230c4f57b2f06e2465477,02/10/1942,2020-09-10_07h33.30.090,proactive3.1,2020.1.2,Win32,60,5f599a131af4471f3d752b7b,5f5a2a95c9d65f08b1791153,3,,,,,,boot,,,,,,,,,,,4,0,0,22,22,37,1,,,,,,,,,,,,,,,,,,,,,,,,,,,,,,,,,,,,,,,,,,,,,,,,,,,,,,,,,,,,,,,,,,,,,,,,,,,,,,,,,,,,,,,,,,,,,,,,,,,,,,,,
,,?,0.000655,0,,,,,,stimuli/images/PICTURE_487.png,FLIGHT,5f1230c4f57b2f06e2465477,02/10/1942,2020-09-10_07h33.30.090,proactive3.1,2020.1.2,Win32,60,5f599a131af4471f3d752b7b,5f5a2a95c9d65f08b1791153,3,,,,,,basket,,,,,,,,,,,1,0,0,23,23,9,1,,,,,,,,,,,,,,,,,,,,,,,,,,,,,,,,,,,,,,,,,,,,,,,,,,,,,,,,,,,,,,,,,,,,,,,,,,,,,,,,,,,,,,,,,,,,,,,,,,,,,,,,
,,?,0.00064,0,,,,,,stimuli/images/PICTURE_380.png,DEATH,5f1230c4f57b2f06e2465477,02/10/1942,2020-09-10_07h33.30.090,proactive3.1,2020.1.2,Win32,60,5f599a131af4471f3d752b7b,5f5a2a95c9d65f08b1791153,3,,,,,,gorilla,,,,,,,,,,,5,0,0,24,24,49,1,,,,,,,,,,,,,,,,,,,,,,,,,,,,,,,,,,,,,,,,,,,,,,,,,,,,,,,,,,,,,,,,,,,,,,,,,,,,,,,,,,,,,,,,,,,,,,,,,,,,,,,,
,,?,0.00051,0,,,,,,stimuli/images/PICTURE_177.png,CARS,5f1230c4f57b2f06e2465477,02/10/1942,2020-09-10_07h33.30.090,proactive3.1,2020.1.2,Win32,60,5f599a131af4471f3d752b7b,5f5a2a95c9d65f08b1791153,3,,,,,,mushroom,,,,,,,,,,,4,0,0,25,25,35,1,,,,,,,,,,,,,,,,,,,,,,,,,,,,,,,,,,,,,,,,,,,,,,,,,,,,,,,,,,,,,,,,,,,,,,,,,,,,,,,,,,,,,,,,,,,,,,,,,,,,,,,,
,,?,0.00056,0,,,,,,stimuli/images/PICTURE_675.png,WEAPON,5f1230c4f57b2f06e2465477,02/10/1942,2020-09-10_07h33.30.090,proactive3.1,2020.1.2,Win32,60,5f599a131af4471f3d752b7b,5f5a2a95c9d65f08b1791153,3,,,,,,windmill,,,,,,,,,,,4,0,0,26,26,32,1,,,,,,,,,,,,,,,,,,,,,,,,,,,,,,,,,,,,,,,,,,,,,,,,,,,,,,,,,,,,,,,,,,,,,,,,,,,,,,,,,,,,,,,,,,,,,,,,,,,,,,,,
,,?,0.000515,0,,,,,,stimuli/images/PICTURE_311.png,FRIEND,5f1230c4f57b2f06e2465477,02/10/1942,2020-09-10_07h33.30.090,proactive3.1,2020.1.2,Win32,60,5f599a131af4471f3d752b7b,5f5a2a95c9d65f08b1791153,3,,,,,,razor,,,,,,,,,,,4,0,0,27,27,34,1,,,,,,,,,,,,,,,,,,,,,,,,,,,,,,,,,,,,,,,,,,,,,,,,,,,,,,,,,,,,,,,,,,,,,,,,,,,,,,,,,,,,,,,,,,,,,,,,,,,,,,,,
,,?,0.000485,0,,,,,,stimuli/images/PICTURE_233.png,WOMEN,5f1230c4f57b2f06e2465477,02/10/1942,2020-09-10_07h33.30.090,proactive3.1,2020.1.2,Win32,60,5f599a131af4471f3d752b7b,5f5a2a95c9d65f08b1791153,3,,,,,,salt,,,,,,,,,,,4,0,0,28,28,38,1,,,,,,,,,,,,,,,,,,,,,,,,,,,,,,,,,,,,,,,,,,,,,,,,,,,,,,,,,,,,,,,,,,,,,,,,,,,,,,,,,,,,,,,,,,,,,,,,,,,,,,,,
,,?,0.000425,0,,,,,,stimuli/images/PICTURE_123.png,ADVICE,5f1230c4f57b2f06e2465477,02/10/1942,2020-09-10_07h33.30.090,proactive3.1,2020.1.2,Win32,60,5f599a131af4471f3d752b7b,5f5a2a95c9d65f08b1791153,3,,,,,,dart,,,,,,,,,,,6,0,0,29,29,50,1,,,,,,,,,,,,,,,,,,,,,,,,,,,,,,,,,,,,,,,,,,,,,,,,,,,,,,,,,,,,,,,,,,,,,,,,,,,,,,,,,,,,,,,,,,,,,,,,,,,,,,,,
,,?,0.00166,0,,,,,,stimuli/images/PICTURE_208.png,THING,5f1230c4f57b2f06e2465477,02/10/1942,2020-09-10_07h33.30.090,proactive3.1,2020.1.2,Win32,60,5f599a131af4471f3d752b7b,5f5a2a95c9d65f08b1791153,3,,,,,,microphone,,,,,,,,,,,5,0,0,30,30,47,1,,,,,,,,,,,,,,,,,,,,,,,,,,,,,,,,,,,,,,,,,,,,,,,,,,,,,,,,,,,,,,,,,,,,,,,,,,,,,,,,,,,,,,,,,,,,,,,,,,,,,,,,
,,?,0.000475,0,,,,,,stimuli/images/PICTURE_692.png,MONTH,5f1230c4f57b2f06e2465477,02/10/1942,2020-09-10_07h33.30.090,proactive3.1,2020.1.2,Win32,60,5f599a131af4471f3d752b7b,5f5a2a95c9d65f08b1791153,3,,,,,,cherry,,,,,,,,,,,2,0,0,31,31,16,1,,,,,,,,,,,,,,,,,,,,,,,,,,,,,,,,,,,,,,,,,,,,,,,,,,,,,,,,,,,,,,,,,,,,,,,,,,,,,,,,,,,,,,,,,,,,,,,,,,,,,,,,
,,?,0.000395,0,,,,,,stimuli/images/PICTURE_314.png,SAKE,5f1230c4f57b2f06e2465477,02/10/1942,2020-09-10_07h33.30.090,proactive3.1,2020.1.2,Win32,60,5f599a131af4471f3d752b7b,5f5a2a95c9d65f08b1791153,3,,,,,,perfume,,,,,,,,,,,1,0,0,32,32,7,1,,,,,,,,,,,,,,,,,,,,,,,,,,,,,,,,,,,,,,,,,,,,,,,,,,,,,,,,,,,,,,,,,,,,,,,,,,,,,,,,,,,,,,,,,,,,,,,,,,,,,,,,
,,?,0.000465,0,,,,,,stimuli/images/PICTURE_708.png,CLIENT,5f1230c4f57b2f06e2465477,02/10/1942,2020-09-10_07h33.30.090,proactive3.1,2020.1.2,Win32,60,5f599a131af4471f3d752b7b,5f5a2a95c9d65f08b1791153,3,,,,,,monkey,,,,,,,,,,,1,0,0,33,33,5,1,,,,,,,,,,,,,,,,,,,,,,,,,,,,,,,,,,,,,,,,,,,,,,,,,,,,,,,,,,,,,,,,,,,,,,,,,,,,,,,,,,,,,,,,,,,,,,,,,,,,,,,,
,,?,6.578855,0,,,,,,stimuli/images/PICTURE_203.png,ARTIST,5f1230c4f57b2f06e2465477,02/10/1942,2020-09-10_07h33.30.090,proactive3.1,2020.1.2,Win32,60,5f599a131af4471f3d752b7b,5f5a2a95c9d65f08b1791153,3,,,,,,cap,,,,,,,,,,,3,0,0,34,34,26,1,,,,,,,,,,,,,,,,,,,,,,,,,,,,,,,,,,,,,,,,,,,,,,,,,,,,,,,,,,,,,,,,,,,,,,,,,,,,,,,,,,,,,,,,,,,,,,,,,,,,,,,,
,,?,0.001935,0,,,,,,stimuli/images/PICTURE_85.png,THING,5f1230c4f57b2f06e2465477,02/10/1942,2020-09-10_07h33.30.090,proactive3.1,2020.1.2,Win32,60,5f599a131af4471f3d752b7b,5f5a2a95c9d65f08b1791153,3,,,,,,diamond,,,,,,,,,,,2,0,0,35,35,15,1,,,,,,,,,,,,,,,,,,,,,,,,,,,,,,,,,,,,,,,,,,,,,,,,,,,,,,,,,,,,,,,,,,,,,,,,,,,,,,,,,,,,,,,,,,,,,,,,,,,,,,,,
,,?,0.001395,0,,,,,,stimuli/images/PICTURE_488.png,STYLE,5f1230c4f57b2f06e2465477,02/10/1942,2020-09-10_07h33.30.090,proactive3.1,2020.1.2,Win32,60,5f599a131af4471f3d752b7b,5f5a2a95c9d65f08b1791153,3,,,,,,sun,,,,,,,,,,,4,0,0,36,36,33,1,,,,,,,,,,,,,,,,,,,,,,,,,,,,,,,,,,,,,,,,,,,,,,,,,,,,,,,,,,,,,,,,,,,,,,,,,,,,,,,,,,,,,,,,,,,,,,,,,,,,,,,,
,,?,0.00119,0,,,,,,stimuli/images/PICTURE_308.png,ESTATE,5f1230c4f57b2f06e2465477,02/10/1942,2020-09-10_07h33.30.090,proactive3.1,2020.1.2,Win32,60,5f599a131af4471f3d752b7b,5f5a2a95c9d65f08b1791153,3,,,,,,dice,,,,,,,,,,,5,0,0,37,37,46,1,,,,,,,,,,,,,,,,,,,,,,,,,,,,,,,,,,,,,,,,,,,,,,,,,,,,,,,,,,,,,,,,,,,,,,,,,,,,,,,,,,,,,,,,,,,,,,,,,,,,,,,,
,,?,0.00098,0,,,,,,stimuli/images/PICTURE_677.png,MILE,5f1230c4f57b2f06e2465477,02/10/1942,2020-09-10_07h33.30.090,proactive3.1,2020.1.2,Win32,60,5f599a131af4471f3d752b7b,5f5a2a95c9d65f08b1791153,3,,,,,,map,,,,,,,,,,,4,0,0,38,38,30,1,,,,,,,,,,,,,,,,,,,,,,,,,,,,,,,,,,,,,,,,,,,,,,,,,,,,,,,,,,,,,,,,,,,,,,,,,,,,,,,,,,,,,,,,,,,,,,,,,,,,,,,,
,,ROOF,5.482935,1,,,,,,stimuli/images/PICTURE_491.png,ROOF,5f1230c4f57b2f06e2465477,02/10/1942,2020-09-10_07h33.30.090,proactive3.1,2020.1.2,Win32,60,5f599a131af4471f3d752b7b,5f5a2a95c9d65f08b1791153,3,,,,,,rug,,,,,,,,,,,3,0,0,39,39,24,1,,,,,,,,,,,,,,,,,,,,,,,,,,,,,,,,,,,,,,,,,,,,,,,,,,,,,,,,,,,,,,,,,,,,,,,,,,,,,,,,,,,,,,,,,,,,,,,,,,,,,,,,
,,?,0.00169,0,,,,,,stimuli/images/PICTURE_32.png,JUNGLE,5f1230c4f57b2f06e2465477,02/10/1942,2020-09-10_07h33.30.090,proactive3.1,2020.1.2,Win32,60,5f599a131af4471f3d752b7b,5f5a2a95c9d65f08b1791153,3,,,,,,crown,,,,,,,,,,,5,0,0,40,40,45,1,,,,,,,,,,,,,,,,,,,,,,,,,,,,,,,,,,,,,,,,,,,,,,,,,,,,,,,,,,,,,,,,,,,,,,,,,,,,,,,,,,,,,,,,,,,,,,,,,,,,,,,,
,,YARD,8.14457,1,,,,,,stimuli/images/PICTURE_708.png,YARD,5f1230c4f57b2f06e2465477,02/10/1942,2020-09-10_07h33.30.090,proactive3.1,2020.1.2,Win32,60,5f599a131af4471f3d752b7b,5f5a2a95c9d65f08b1791153,3,,,,,,monkey,,,,,,,,,,,3,0,0,41,41,29,1,,,,,,,,,,,,,,,,,,,,,,,,,,,,,,,,,,,,,,,,,,,,,,,,,,,,,,,,,,,,,,,,,,,,,,,,,,,,,,,,,,,,,,,,,,,,,,,,,,,,,,,,
,,?,0.001975,0,,,,,,stimuli/images/PICTURE_453.png,PLENTY,5f1230c4f57b2f06e2465477,02/10/1942,2020-09-10_07h33.30.090,proactive3.1,2020.1.2,Win32,60,5f599a131af4471f3d752b7b,5f5a2a95c9d65f08b1791153,3,,,,,,scissors,,,,,,,,,,,6,0,0,42,42,56,1,,,,,,,,,,,,,,,,,,,,,,,,,,,,,,,,,,,,,,,,,,,,,,,,,,,,,,,,,,,,,,,,,,,,,,,,,,,,,,,,,,,,,,,,,,,,,,,,,,,,,,,,
,,?,0.0012,0,,,,,,stimuli/images/PICTURE_469.png,ARTIST,5f1230c4f57b2f06e2465477,02/10/1942,2020-09-10_07h33.30.090,proactive3.1,2020.1.2,Win32,60,5f599a131af4471f3d752b7b,5f5a2a95c9d65f08b1791153,3,,,,,,stool,,,,,,,,,,,1,0,0,43,43,6,1,,,,,,,,,,,,,,,,,,,,,,,,,,,,,,,,,,,,,,,,,,,,,,,,,,,,,,,,,,,,,,,,,,,,,,,,,,,,,,,,,,,,,,,,,,,,,,,,,,,,,,,,
,,?,0.001125,0,,,,,,stimuli/images/PICTURE_470.png,CASINO,5f1230c4f57b2f06e2465477,02/10/1942,2020-09-10_07h33.30.090,proactive3.1,2020.1.2,Win32,60,5f599a131af4471f3d752b7b,5f5a2a95c9d65f08b1791153,3,,,,,,motorbike,,,,,,,,,,,4,0,0,44,44,36,1,,,,,,,,,,,,,,,,,,,,,,,,,,,,,,,,,,,,,,,,,,,,,,,,,,,,,,,,,,,,,,,,,,,,,,,,,,,,,,,,,,,,,,,,,,,,,,,,,,,,,,,,
,,?,0.00092,0,,,,,,stimuli/images/PICTURE_302.png,FAMILY,5f1230c4f57b2f06e2465477,02/10/1942,2020-09-10_07h33.30.090,proactive3.1,2020.1.2,Win32,60,5f599a131af4471f3d752b7b,5f5a2a95c9d65f08b1791153,3,,,,,,taxi,,,,,,,,,,,2,0,0,45,45,18,1,,,,,,,,,,,,,,,,,,,,,,,,,,,,,,,,,,,,,,,,,,,,,,,,,,,,,,,,,,,,,,,,,,,,,,,,,,,,,,,,,,,,,,,,,,,,,,,,,,,,,,,,
,,?,0.00272,0,,,,,,stimuli/images/PICTURE_449.png,THING,5f1230c4f57b2f06e2465477,02/10/1942,2020-09-10_07h33.30.090,proactive3.1,2020.1.2,Win32,60,5f599a131af4471f3d752b7b,5f5a2a95c9d65f08b1791153,3,,,,,,bench,,,,,,,,,,,6,0,0,46,46,59,1,,,,,,,,,,,,,,,,,,,,,,,,,,,,,,,,,,,,,,,,,,,,,,,,,,,,,,,,,,,,,,,,,,,,,,,,,,,,,,,,,,,,,,,,,,,,,,,,,,,,,,,,
,,?,0.000905,0,,,,,,stimuli/images/PICTURE_688.png,CASINO,5f1230c4f57b2f06e2465477,02/10/1942,2020-09-10_07h33.30.090,proactive3.1,2020.1.2,Win32,60,5f599a131af4471f3d752b7b,5f5a2a95c9d65f08b1791153,3,,,,,,runner,,,,,,,,,,,1,0,0,47,47,2,1,,,,,,,,,,,,,,,,,,,,,,,,,,,,,,,,,,,,,,,,,,,,,,,,,,,,,,,,,,,,,,,,,,,,,,,,,,,,,,,,,,,,,,,,,,,,,,,,,,,,,,,,
,,DUDE,7.629435,1,,,,,,stimuli/images/PICTURE_453.png,DUDE,5f1230c4f57b2f06e2465477,02/10/1942,2020-09-10_07h33.30.090,proactive3.1,2020.1.2,Win32,60,5f599a131af4471f3d752b7b,5f5a2a95c9d65f08b1791153,3,,,,,,scissors,,,,,,,,,,,3,0,0,48,48,27,1,,,,,,,,,,,,,,,,,,,,,,,,,,,,,,,,,,,,,,,,,,,,,,,,,,,,,,,,,,,,,,,,,,,,,,,,,,,,,,,,,,,,,,,,,,,,,,,,,,,,,,,,
,,?,0.001315,0,,,,,,stimuli/images/PICTURE_160.png,LEADER,5f1230c4f57b2f06e2465477,02/10/1942,2020-09-10_07h33.30.090,proactive3.1,2020.1.2,Win32,60,5f599a131af4471f3d752b7b,5f5a2a95c9d65f08b1791153,3,,,,,,wheelbarrow,,,,,,,,,,,1,0,0,49,49,3,1,,,,,,,,,,,,,,,,,,,,,,,,,,,,,,,,,,,,,,,,,,,,,,,,,,,,,,,,,,,,,,,,,,,,,,,,,,,,,,,,,,,,,,,,,,,,,,,,,,,,,,,,
,,?,0.001295,0,,,,,,stimuli/images/PICTURE_744.png,SYSTEM,5f1230c4f57b2f06e2465477,02/10/1942,2020-09-10_07h33.30.090,proactive3.1,2020.1.2,Win32,60,5f599a131af4471f3d752b7b,5f5a2a95c9d65f08b1791153,3,,,,,,ring,,,,,,,,,,,5,0,0,50,50,43,1,,,,,,,,,,,,,,,,,,,,,,,,,,,,,,,,,,,,,,,,,,,,,,,,,,,,,,,,,,,,,,,,,,,,,,,,,,,,,,,,,,,,,,,,,,,,,,,,,,,,,,,,
,,?,0.00066,0,,,,,,stimuli/images/PICTURE_68.png,MILE,5f1230c4f57b2f06e2465477,02/10/1942,2020-09-10_07h33.30.090,proactive3.1,2020.1.2,Win32,60,5f599a131af4471f3d752b7b,5f5a2a95c9d65f08b1791153,3,,,,,,candle,,,,,,,,,,,5,0,0,51,51,44,1,,,,,,,,,,,,,,,,,,,,,,,,,,,,,,,,,,,,,,,,,,,,,,,,,,,,,,,,,,,,,,,,,,,,,,,,,,,,,,,,,,,,,,,,,,,,,,,,,,,,,,,,
,,?,0.000745,0,,,,,,stimuli/images/PICTURE_380.png,PHOTO,5f1230c4f57b2f06e2465477,02/10/1942,2020-09-10_07h33.30.090,proactive3.1,2020.1.2,Win32,60,5f599a131af4471f3d752b7b,5f5a2a95c9d65f08b1791153,3,,,,,,gorilla,,,,,,,,,,,6,0,0,52,52,52,1,,,,,,,,,,,,,,,,,,,,,,,,,,,,,,,,,,,,,,,,,,,,,,,,,,,,,,,,,,,,,,,,,,,,,,,,,,,,,,,,,,,,,,,,,,,,,,,,,,,,,,,,
,,?,0.001875,0,,,,,,stimuli/images/PICTURE_314.png,GODS,5f1230c4f57b2f06e2465477,02/10/1942,2020-09-10_07h33.30.090,proactive3.1,2020.1.2,Win32,60,5f599a131af4471f3d752b7b,5f5a2a95c9d65f08b1791153,3,,,,,,perfume,,,,,,,,,,,2,0,0,53,53,11,1,,,,,,,,,,,,,,,,,,,,,,,,,,,,,,,,,,,,,,,,,,,,,,,,,,,,,,,,,,,,,,,,,,,,,,,,,,,,,,,,,,,,,,,,,,,,,,,,,,,,,,,,
,,?,8.72659,0,,,,,,stimuli/images/PICTURE_95.png,STYLE,5f1230c4f57b2f06e2465477,02/10/1942,2020-09-10_07h33.30.090,proactive3.1,2020.1.2,Win32,60,5f599a131af4471f3d752b7b,5f5a2a95c9d65f08b1791153,3,,,,,,suitcase,,,,,,,,,,,3,0,0,54,54,25,1,,,,,,,,,,,,,,,,,,,,,,,,,,,,,,,,,,,,,,,,,,,,,,,,,,,,,,,,,,,,,,,,,,,,,,,,,,,,,,,,,,,,,,,,,,,,,,,,,,,,,,,,
,,?,0.001715,0,,,,,,stimuli/images/PICTURE_469.png,LETTER,5f1230c4f57b2f06e2465477,02/10/1942,2020-09-10_07h33.30.090,proactive3.1,2020.1.2,Win32,60,5f599a131af4471f3d752b7b,5f5a2a95c9d65f08b1791153,3,,,,,,stool,,,,,,,,,,,5,0,0,55,55,42,1,,,,,,,,,,,,,,,,,,,,,,,,,,,,,,,,,,,,,,,,,,,,,,,,,,,,,,,,,,,,,,,,,,,,,,,,,,,,,,,,,,,,,,,,,,,,,,,,,,,,,,,,
,,?,0.001145,0,,,,,,stimuli/images/PICTURE_654.png,VALLEY,5f1230c4f57b2f06e2465477,02/10/1942,2020-09-10_07h33.30.090,proactive3.1,2020.1.2,Win32,60,5f599a131af4471f3d752b7b,5f5a2a95c9d65f08b1791153,3,,,,,,pencil,,,,,,,,,,,1,0,0,56,56,1,1,,,,,,,,,,,,,,,,,,,,,,,,,,,,,,,,,,,,,,,,,,,,,,,,,,,,,,,,,,,,,,,,,,,,,,,,,,,,,,,,,,,,,,,,,,,,,,,,,,,,,,,,
,,?,0.00106,0,,,,,,stimuli/images/PICTURE_504.png,BODY,5f1230c4f57b2f06e2465477,02/10/1942,2020-09-10_07h33.30.090,proactive3.1,2020.1.2,Win32,60,5f599a131af4471f3d752b7b,5f5a2a95c9d65f08b1791153,3,,,,,,wheel,,,,,,,,,,,1,0,0,57,57,8,1,,,,,,,,,,,,,,,,,,,,,,,,,,,,,,,,,,,,,,,,,,,,,,,,,,,,,,,,,,,,,,,,,,,,,,,,,,,,,,,,,,,,,,,,,,,,,,,,,,,,,,,,
,,?,0.001115,0,,,,,,stimuli/images/PICTURE_491.png,WRITER,5f1230c4f57b2f06e2465477,02/10/1942,2020-09-10_07h33.30.090,proactive3.1,2020.1.2,Win32,60,5f599a131af4471f3d752b7b,5f5a2a95c9d65f08b1791153,3,,,,,,rug,,,,,,,,,,,6,0,0,58,58,57,1,,,,,,,,,,,,,,,,,,,,,,,,,,,,,,,,,,,,,,,,,,,,,,,,,,,,,,,,,,,,,,,,,,,,,,,,,,,,,,,,,,,,,,,,,,,,,,,,,,,,,,,,
,,?,0.000825,0,,,,,,stimuli/images/PICTURE_744.png,SAKE,5f1230c4f57b2f06e2465477,02/10/1942,2020-09-10_07h33.30.090,proactive3.1,2020.1.2,Win32,60,5f599a131af4471f3d752b7b,5f5a2a95c9d65f08b1791153,3,,,,,,ring,,,,,,,,,,,2,0,0,59,59,17,1,,,,,,,,,,,,,,,,,,,,,,,,,,,,,,,,,,,,,,,,,,,,,,,,,,,,,,,,,,,,,,,,,,,,,,,,,,,,,,,,,,,,,,,,,,,,,,,,,,,,,,,,
,,,,,,,,,,,,5f1230c4f57b2f06e2465477,02/10/1942,2020-09-10_07h33.30.090,proactive3.1,2020.1.2,Win32,60,5f599a131af4471f3d752b7b,5f5a2a95c9d65f08b1791153,3,,,,,,,,,,,,,,,,,,,,,,,,0,0,0,0,1,stimuli/learn-block1.csv,,,,,,,,,,,,,,,,,,,,,,,,,,,,,,,,,,,,,,,,,,,,,,,,,,,,,,,,,,,,,,,,,,,,,,,,,,,,,,,,,,,,,,,,,,,,,,,,,,
,,,,,,,,,,stimuli/images/PICTURE_449.png,DUDE,5f1230c4f57b2f06e2465477,02/10/1942,2020-09-10_07h33.30.090,proactive3.1,2020.1.2,Win32,60,5f599a131af4471f3d752b7b,5f5a2a95c9d65f08b1791153,3,,,,,,bench,,,,,,0,0,0,17,1,2,1,,,,,,,,,,,,,,,,,,,,,,,,,,,,,,,,,,,,,,,,,,,,,,,,,,,,,,,,,,,,,,,,,,,,,,,,,,,,,,,,,,,,,,,,,,,,,,,,,,,,,,,,,,,,,
,,,,,,,,,,stimuli/images/PICTURE_405.png,YEAR,5f1230c4f57b2f06e2465477,02/10/1942,2020-09-10_07h33.30.090,proactive3.1,2020.1.2,Win32,60,5f599a131af4471f3d752b7b,5f5a2a95c9d65f08b1791153,3,,,,,,anchor,,,,,,0,1,1,34,1,4,1,,,,,,,,,,,,,,,,,,,,,,,,,,,,,,,,,,,,,,,,,,,,,,,,,,,,,,,,,,,,,,,,,,,,,,,,,,,,,,,,,,,,,,,,,,,,,,,,,,,,,,,,,,,,,
,,,,,,,,,,stimuli/images/PICTURE_208.png,SYSTEM,5f1230c4f57b2f06e2465477,02/10/1942,2020-09-10_07h33.30.090,proactive3.1,2020.1.2,Win32,60,5f599a131af4471f3d752b7b,5f5a2a95c9d65f08b1791153,3,,,,,,microphone,,,,,,0,2,2,32,1,4,1,,,,,,,,,,,,,,,,,,,,,,,,,,,,,,,,,,,,,,,,,,,,,,,,,,,,,,,,,,,,,,,,,,,,,,,,,,,,,,,,,,,,,,,,,,,,,,,,,,,,,,,,,,,,,
,,,,,,,,,,stimuli/images/PICTURE_380.png,HONEY,5f1230c4f57b2f06e2465477,02/10/1942,2020-09-10_07h33.30.090,proactive3.1,2020.1.2,Win32,60,5f599a131af4471f3d752b7b,5f5a2a95c9d65f08b1791153,3,,,,,,gorilla,,,,,,0,3,3,19,1,2,1,,,,,,,,,,,,,,,,,,,,,,,,,,,,,,,,,,,,,,,,,,,,,,,,,,,,,,,,,,,,,,,,,,,,,,,,,,,,,,,,,,,,,,,,,,,,,,,,,,,,,,,,,,,,,
,,,,,,,,,,stimuli/images/PICTURE_491.png,GLASS,5f1230c4f57b2f06e2465477,02/10/1942,2020-09-10_07h33.30.090,proactive3.1,2020.1.2,Win32,60,5f599a131af4471f3d752b7b,5f5a2a95c9d65f08b1791153,3,,,,,,rug,,,,,,0,4,4,14,1,2,1,,,,,,,,,,,,,,,,,,,,,,,,,,,,,,,,,,,,,,,,,,,,,,,,,,,,,,,,,,,,,,,,,,,,,,,,,,,,,,,,,,,,,,,,,,,,,,,,,,,,,,,,,,,,,
,,,,,,,,,,stimuli/images/PICTURE_685.png,PENNY,5f1230c4f57b2f06e2465477,02/10/1942,2020-09-10_07h33.30.090,proactive3.1,2020.1.2,Win32,60,5f599a131af4471f3d752b7b,5f5a2a95c9d65f08b1791153,3,,,,,,goose,,,,,,0,5,5,4,1,1,1,,,,,,,,,,,,,,,,,,,,,,,,,,,,,,,,,,,,,,,,,,,,,,,,,,,,,,,,,,,,,,,,,,,,,,,,,,,,,,,,,,,,,,,,,,,,,,,,,,,,,,,,,,,,,
,,,,,,,,,,stimuli/images/PICTURE_744.png,WEAPON,5f1230c4f57b2f06e2465477,02/10/1942,2020-09-10_07h33.30.090,proactive3.1,2020.1.2,Win32,60,5f599a131af4471f3d752b7b,5f5a2a95c9d65f08b1791153,3,,,,,,ring,,,,,,0,6,6,50,1,6,1,,,,,,,,,,,,,,,,,,,,,,,,,,,,,,,,,,,,,,,,,,,,,,,,,,,,,,,,,,,,,,,,,,,,,,,,,,,,,,,,,,,,,,,,,,,,,,,,,,,,,,,,,,,,,
,,,,,,,,,,stimuli/images/PICTURE_383.png,SERIES,5f1230c4f57b2f06e2465477,02/10/1942,2020-09-10_07h33.30.090,proactive3.1,2020.1.2,Win32,60,5f599a131af4471f3d752b7b,5f5a2a95c9d65f08b1791153,3,,,,,,coin,,,,,,0,7,7,46,1,5,1,,,,,,,,,,,,,,,,,,,,,,,,,,,,,,,,,,,,,,,,,,,,,,,,,,,,,,,,,,,,,,,,,,,,,,,,,,,,,,,,,,,,,,,,,,,,,,,,,,,,,,,,,,,,,
,,,,,,,,,,stimuli/images/PICTURE_403.png,WRITER,5f1230c4f57b2f06e2465477,02/10/1942,2020-09-10_07h33.30.090,proactive3.1,2020.1.2,Win32,60,5f599a131af4471f3d752b7b,5f5a2a95c9d65f08b1791153,3,,,,,,cathedral,,,,,,0,8,8,31,1,4,1,,,,,,,,,,,,,,,,,,,,,,,,,,,,,,,,,,,,,,,,,,,,,,,,,,,,,,,,,,,,,,,,,,,,,,,,,,,,,,,,,,,,,,,,,,,,,,,,,,,,,,,,,,,,,
,,,,,,,,,,stimuli/images/PICTURE_203.png,GODS,5f1230c4f57b2f06e2465477,02/10/1942,2020-09-10_07h33.30.090,proactive3.1,2020.1.2,Win32,60,5f599a131af4471f3d752b7b,5f5a2a95c9d65f08b1791153,3,,,,,,cap,,,,,,0,9,9,30,1,4,1,,,,,,,,,,,,,,,,,,,,,,,,,,,,,,,,,,,,,,,,,,,,,,,,,,,,,,,,,,,,,,,,,,,,,,,,,,,,,,,,,,,,,,,,,,,,,,,,,,,,,,,,,,,,,
,,,,,,,,,,stimuli/images/PICTURE_403.png,RIVER,5f1230c4f57b2f06e2465477,02/10/1942,2020-09-10_07h33.30.090,proactive3.1,2020.1.2,Win32,60,5f599a131af4471f3d752b7b,5f5a2a95c9d65f08b1791153,3,,,,,,cathedral,,,,,,0,10,10,40,1,5,1,,,,,,,,,,,,,,,,,,,,,,,,,,,,,,,,,,,,,,,,,,,,,,,,,,,,,,,,,,,,,,,,,,,,,,,,,,,,,,,,,,,,,,,,,,,,,,,,,,,,,,,,,,,,,
,,,,,,,,,,stimuli/images/PICTURE_750.png,HOTEL,5f1230c4f57b2f06e2465477,02/10/1942,2020-09-10_07h33.30.090,proactive3.1,2020.1.2,Win32,60,5f599a131af4471f3d752b7b,5f5a2a95c9d65f08b1791153,3,,,,,,kettle,,,,,,0,11,11,27,1,3,1,,,,,,,,,,,,,,,,,,,,,,,,,,,,,,,,,,,,,,,,,,,,,,,,,,,,,,,,,,,,,,,,,,,,,,,,,,,,,,,,,,,,,,,,,,,,,,,,,,,,,,,,,,,,,
,,,,,,,,,,stimuli/images/PICTURE_85.png,TOILET,5f1230c4f57b2f06e2465477,02/10/1942,2020-09-10_07h33.30.090,proactive3.1,2020.1.2,Win32,60,5f599a131af4471f3d752b7b,5f5a2a95c9d65f08b1791153,3,,,,,,diamond,,,,,,0,12,12,48,1,5,1,,,,,,,,,,,,,,,,,,,,,,,,,,,,,,,,,,,,,,,,,,,,,,,,,,,,,,,,,,,,,,,,,,,,,,,,,,,,,,,,,,,,,,,,,,,,,,,,,,,,,,,,,,,,,
,,,,,,,,,,stimuli/images/PICTURE_68.png,MILE,5f1230c4f57b2f06e2465477,02/10/1942,2020-09-10_07h33.30.090,proactive3.1,2020.1.2,Win32,60,5f599a131af4471f3d752b7b,5f5a2a95c9d65f08b1791153,3,,,,,,candle,,,,,,0,13,13,51,1,6,1,,,,,,,,,,,,,,,,,,,,,,,,,,,,,,,,,,,,,,,,,,,,,,,,,,,,,,,,,,,,,,,,,,,,,,,,,,,,,,,,,,,,,,,,,,,,,,,,,,,,,,,,,,,,,
,,,,,,,,,,stimuli/images/PICTURE_383.png,WRITER,5f1230c4f57b2f06e2465477,02/10/1942,2020-09-10_07h33.30.090,proactive3.1,2020.1.2,Win32,60,5f599a131af4471f3d752b7b,5f5a2a95c9d65f08b1791153,3,,,,,,coin,,,,,,0,14,14,28,1,3,1,,,,,,,,,,,,,,,,,,,,,,,,,,,,,,,,,,,,,,,,,,,,,,,,,,,,,,,,,,,,,,,,,,,,,,,,,,,,,,,,,,,,,,,,,,,,,,,,,,,,,,,,,,,,,
,,,,,,,,,,stimuli/images/PICTURE_108.png,POLICY,5f1230c4f57b2f06e2465477,02/10/1942,2020-09-10_07h33.30.090,proactive3.1,2020.1.2,Win32,60,5f599a131af4471f3d752b7b,5f5a2a95c9d65f08b1791153,3,,,,,,calendar,,,,,,0,15,15,22,1,3,1,,,,,,,,,,,,,,,,,,,,,,,,,,,,,,,,,,,,,,,,,,,,,,,,,,,,,,,,,,,,,,,,,,,,,,,,,,,,,,,,,,,,,,,,,,,,,,,,,,,,,,,,,,,,,
,,,,,,,,,,stimuli/images/PICTURE_296.png,LOTS,5f1230c4f57b2f06e2465477,02/10/1942,2020-09-10_07h33.30.090,proactive3.1,2020.1.2,Win32,60,5f599a131af4471f3d752b7b,5f5a2a95c9d65f08b1791153,3,,,,,,bolt,,,,,,0,16,16,9,1,1,1,,,,,,,,,,,,,,,,,,,,,,,,,,,,,,,,,,,,,,,,,,,,,,,,,,,,,,,,,,,,,,,,,,,,,,,,,,,,,,,,,,,,,,,,,,,,,,,,,,,,,,,,,,,,,
,,,,,,,,,,stimuli/images/PICTURE_504.png,YEAR,5f1230c4f57b2f06e2465477,02/10/1942,2020-09-10_07h33.30.090,proactive3.1,2020.1.2,Win32,60,5f599a131af4471f3d752b7b,5f5a2a95c9d65f08b1791153,3,,,,,,wheel,,,,,,0,17,17,13,1,2,1,,,,,,,,,,,,,,,,,,,,,,,,,,,,,,,,,,,,,,,,,,,,,,,,,,,,,,,,,,,,,,,,,,,,,,,,,,,,,,,,,,,,,,,,,,,,,,,,,,,,,,,,,,,,,
,,,,,,,,,,stimuli/images/PICTURE_85.png,NATION,5f1230c4f57b2f06e2465477,02/10/1942,2020-09-10_07h33.30.090,proactive3.1,2020.1.2,Win32,60,5f599a131af4471f3d752b7b,5f5a2a95c9d65f08b1791153,3,,,,,,diamond,,,,,,0,18,18,5,1,1,1,,,,,,,,,,,,,,,,,,,,,,,,,,,,,,,,,,,,,,,,,,,,,,,,,,,,,,,,,,,,,,,,,,,,,,,,,,,,,,,,,,,,,,,,,,,,,,,,,,,,,,,,,,,,,
,,,,,,,,,,stimuli/images/PICTURE_405.png,PLENTY,5f1230c4f57b2f06e2465477,02/10/1942,2020-09-10_07h33.30.090,proactive3.1,2020.1.2,Win32,60,5f599a131af4471f3d752b7b,5f5a2a95c9d65f08b1791153,3,,,,,,anchor,,,,,,0,19,19,23,1,3,1,,,,,,,,,,,,,,,,,,,,,,,,,,,,,,,,,,,,,,,,,,,,,,,,,,,,,,,,,,,,,,,,,,,,,,,,,,,,,,,,,,,,,,,,,,,,,,,,,,,,,,,,,,,,,
,,,,,,,,,,stimuli/images/PICTURE_285.png,LIFE,5f1230c4f57b2f06e2465477,02/10/1942,2020-09-10_07h33.30.090,proactive3.1,2020.1.2,Win32,60,5f599a131af4471f3d752b7b,5f5a2a95c9d65f08b1791153,3,,,,,,carrot,,,,,,0,20,20,33,1,4,1,,,,,,,,,,,,,,,,,,,,,,,,,,,,,,,,,,,,,,,,,,,,,,,,,,,,,,,,,,,,,,,,,,,,,,,,,,,,,,,,,,,,,,,,,,,,,,,,,,,,,,,,,,,,,
,,,,,,,,,,stimuli/images/PICTURE_147.png,YEAR,5f1230c4f57b2f06e2465477,02/10/1942,2020-09-10_07h33.30.090,proactive3.1,2020.1.2,Win32,60,5f599a131af4471f3d752b7b,5f5a2a95c9d65f08b1791153,3,,,,,,hanger,,,,,,0,21,21,21,1,3,1,,,,,,,,,,,,,,,,,,,,,,,,,,,,,,,,,,,,,,,,,,,,,,,,,,,,,,,,,,,,,,,,,,,,,,,,,,,,,,,,,,,,,,,,,,,,,,,,,,,,,,,,,,,,,
,,,,,,,,,,stimuli/images/PICTURE_308.png,FAMILY,5f1230c4f57b2f06e2465477,02/10/1942,2020-09-10_07h33.30.090,proactive3.1,2020.1.2,Win32,60,5f599a131af4471f3d752b7b,5f5a2a95c9d65f08b1791153,3,,,,,,dice,,,,,,0,22,22,36,1,4,1,,,,,,,,,,,,,,,,,,,,,,,,,,,,,,,,,,,,,,,,,,,,,,,,,,,,,,,,,,,,,,,,,,,,,,,,,,,,,,,,,,,,,,,,,,,,,,,,,,,,,,,,,,,,,
,,,,,,,,,,stimuli/images/PICTURE_504.png,ARTIST,5f1230c4f57b2f06e2465477,02/10/1942,2020-09-10_07h33.30.090,proactive3.1,2020.1.2,Win32,60,5f599a131af4471f3d752b7b,5f5a2a95c9d65f08b1791153,3,,,,,,wheel,,,,,,0,23,23,49,1,5,1,,,,,,,,,,,,,,,,,,,,,,,,,,,,,,,,,,,,,,,,,,,,,,,,,,,,,,,,,,,,,,,,,,,,,,,,,,,,,,,,,,,,,,,,,,,,,,,,,,,,,,,,,,,,,
,,,,,,,,,,stimuli/images/PICTURE_708.png,RECORD,5f1230c4f57b2f06e2465477,02/10/1942,2020-09-10_07h33.30.090,proactive3.1,2020.1.2,Win32,60,5f599a131af4471f3d752b7b,5f5a2a95c9d65f08b1791153,3,,,,,,monkey,,,,,,0,24,24,58,1,6,1,,,,,,,,,,,,,,,,,,,,,,,,,,,,,,,,,,,,,,,,,,,,,,,,,,,,,,,,,,,,,,,,,,,,,,,,,,,,,,,,,,,,,,,,,,,,,,,,,,,,,,,,,,,,,
,,,,,,,,,,stimuli/images/PICTURE_467.png,POLICY,5f1230c4f57b2f06e2465477,02/10/1942,2020-09-10_07h33.30.090,proactive3.1,2020.1.2,Win32,60,5f599a131af4471f3d752b7b,5f5a2a95c9d65f08b1791153,3,,,,,,peg,,,,,,0,25,25,53,1,6,1,,,,,,,,,,,,,,,,,,,,,,,,,,,,,,,,,,,,,,,,,,,,,,,,,,,,,,,,,,,,,,,,,,,,,,,,,,,,,,,,,,,,,,,,,,,,,,,,,,,,,,,,,,,,,
,,,,,,,,,,stimuli/images/PICTURE_654.png,MONTH,5f1230c4f57b2f06e2465477,02/10/1942,2020-09-10_07h33.30.090,proactive3.1,2020.1.2,Win32,60,5f599a131af4471f3d752b7b,5f5a2a95c9d65f08b1791153,3,,,,,,pencil,,,,,,0,26,26,29,1,3,1,,,,,,,,,,,,,,,,,,,,,,,,,,,,,,,,,,,,,,,,,,,,,,,,,,,,,,,,,,,,,,,,,,,,,,,,,,,,,,,,,,,,,,,,,,,,,,,,,,,,,,,,,,,,,
,,,,,,,,,,stimuli/images/PICTURE_403.png,TOILET,5f1230c4f57b2f06e2465477,02/10/1942,2020-09-10_07h33.30.090,proactive3.1,2020.1.2,Win32,60,5f599a131af4471f3d752b7b,5f5a2a95c9d65f08b1791153,3,,,,,,cathedral,,,,,,0,27,27,25,1,3,1,,,,,,,,,,,,,,,,,,,,,,,,,,,,,,,,,,,,,,,,,,,,,,,,,,,,,,,,,,,,,,,,,,,,,,,,,,,,,,,,,,,,,,,,,,,,,,,,,,,,,,,,,,,,,
,,,,,,,,,,stimuli/images/PICTURE_2.png,FLIGHT,5f1230c4f57b2f06e2465477,02/10/1942,2020-09-10_07h33.30.090,proactive3.1,2020.1.2,Win32,60,5f599a131af4471f3d752b7b,5f5a2a95c9d65f08b1791153,3,,,,,,tyre,,,,,,0,28,28,15,1,2,1,,,,,,,,,,,,,,,,,,,,,,,,,,,,,,,,,,,,,,,,,,,,,,,,,,,,,,,,,,,,,,,,,,,,,,,,,,,,,,,,,,,,,,,,,,,,,,,,,,,,,,,,,,,,,
,,,,,,,,,,stimuli/images/PICTURE_655.png,TOILET,5f1230c4f57b2f06e2465477,02/10/1942,2020-09-10_07h33.30.090,proactive3.1,2020.1.2,Win32,60,5f599a131af4471f3d752b7b,5f5a2a95c9d65f08b1791153,3,,,,,,megaphone,,,,,,0,29,29,12,1,2,1,,,,,,,,,,,,,,,,,,,,,,,,,,,,,,,,,,,,,,,,,,,,,,,,,,,,,,,,,,,,,,,,,,,,,,,,,,,,,,,,,,,,,,,,,,,,,,,,,,,,,,,,,,,,,
,,,,,,,,,,stimuli/images/PICTURE_68.png,ROOF,5f1230c4f57b2f06e2465477,02/10/1942,2020-09-10_07h33.30.090,proactive3.1,2020.1.2,Win32,60,5f599a131af4471f3d752b7b,5f5a2a95c9d65f08b1791153,3,,,,,,candle,,,,,,0,30,30,38,1,4,1,,,,,,,,,,,,,,,,,,,,,,,,,,,,,,,,,,,,,,,,,,,,,,,,,,,,,,,,,,,,,,,,,,,,,,,,,,,,,,,,,,,,,,,,,,,,,,,,,,,,,,,,,,,,,
,,,,,,,,,,stimuli/images/PICTURE_504.png,COPS,5f1230c4f57b2f06e2465477,02/10/1942,2020-09-10_07h33.30.090,proactive3.1,2020.1.2,Win32,60,5f599a131af4471f3d752b7b,5f5a2a95c9d65f08b1791153,3,,,,,,wheel,,,,,,0,31,31,52,1,6,1,,,,,,,,,,,,,,,,,,,,,,,,,,,,,,,,,,,,,,,,,,,,,,,,,,,,,,,,,,,,,,,,,,,,,,,,,,,,,,,,,,,,,,,,,,,,,,,,,,,,,,,,,,,,,
,,,,,,,,,,stimuli/images/PICTURE_340.png,VALLEY,5f1230c4f57b2f06e2465477,02/10/1942,2020-09-10_07h33.30.090,proactive3.1,2020.1.2,Win32,60,5f599a131af4471f3d752b7b,5f5a2a95c9d65f08b1791153,3,,,,,,mirror,,,,,,0,32,32,54,1,6,1,,,,,,,,,,,,,,,,,,,,,,,,,,,,,,,,,,,,,,,,,,,,,,,,,,,,,,,,,,,,,,,,,,,,,,,,,,,,,,,,,,,,,,,,,,,,,,,,,,,,,,,,,,,,,
,,,,,,,,,,stimuli/images/PICTURE_675.png,SALE,5f1230c4f57b2f06e2465477,02/10/1942,2020-09-10_07h33.30.090,proactive3.1,2020.1.2,Win32,60,5f599a131af4471f3d752b7b,5f5a2a95c9d65f08b1791153,3,,,,,,windmill,,,,,,0,33,33,47,1,5,1,,,,,,,,,,,,,,,,,,,,,,,,,,,,,,,,,,,,,,,,,,,,,,,,,,,,,,,,,,,,,,,,,,,,,,,,,,,,,,,,,,,,,,,,,,,,,,,,,,,,,,,,,,,,,
,,,,,,,,,,stimuli/images/PICTURE_677.png,APPLE,5f1230c4f57b2f06e2465477,02/10/1942,2020-09-10_07h33.30.090,proactive3.1,2020.1.2,Win32,60,5f599a131af4471f3d752b7b,5f5a2a95c9d65f08b1791153,3,,,,,,map,,,,,,0,34,34,43,1,5,1,,,,,,,,,,,,,,,,,,,,,,,,,,,,,,,,,,,,,,,,,,,,,,,,,,,,,,,,,,,,,,,,,,,,,,,,,,,,,,,,,,,,,,,,,,,,,,,,,,,,,,,,,,,,,
,,,,,,,,,,stimuli/images/PICTURE_95.png,BOYS,5f1230c4f57b2f06e2465477,02/10/1942,2020-09-10_07h33.30.090,proactive3.1,2020.1.2,Win32,60,5f599a131af4471f3d752b7b,5f5a2a95c9d65f08b1791153,3,,,,,,suitcase,,,,,,0,35,35,1,1,1,1,,,,,,,,,,,,,,,,,,,,,,,,,,,,,,,,,,,,,,,,,,,,,,,,,,,,,,,,,,,,,,,,,,,,,,,,,,,,,,,,,,,,,,,,,,,,,,,,,,,,,,,,,,,,,
,,,,,,,,,,stimuli/images/PICTURE_177.png,WRITER,5f1230c4f57b2f06e2465477,02/10/1942,2020-09-10_07h33.30.090,proactive3.1,2020.1.2,Win32,60,5f599a131af4471f3d752b7b,5f5a2a95c9d65f08b1791153,3,,,,,,mushroom,,,,,,0,36,36,41,1,5,1,,,,,,,,,,,,,,,,,,,,,,,,,,,,,,,,,,,,,,,,,,,,,,,,,,,,,,,,,,,,,,,,,,,,,,,,,,,,,,,,,,,,,,,,,,,,,,,,,,,,,,,,,,,,,
,,,,,,,,,,stimuli/images/PICTURE_297.png,RIVER,5f1230c4f57b2f06e2465477,02/10/1942,2020-09-10_07h33.30.090,proactive3.1,2020.1.2,Win32,60,5f599a131af4471f3d752b7b,5f5a2a95c9d65f08b1791153,3,,,,,,aeroplane,,,,,,0,37,37,39,1,4,1,,,,,,,,,,,,,,,,,,,,,,,,,,,,,,,,,,,,,,,,,,,,,,,,,,,,,,,,,,,,,,,,,,,,,,,,,,,,,,,,,,,,,,,,,,,,,,,,,,,,,,,,,,,,,
,,,,,,,,,,stimuli/images/PICTURE_564.png,BATH,5f1230c4f57b2f06e2465477,02/10/1942,2020-09-10_07h33.30.090,proactive3.1,2020.1.2,Win32,60,5f599a131af4471f3d752b7b,5f5a2a95c9d65f08b1791153,3,,,,,,spoon,,,,,,0,38,38,26,1,3,1,,,,,,,,,,,,,,,,,,,,,,,,,,,,,,,,,,,,,,,,,,,,,,,,,,,,,,,,,,,,,,,,,,,,,,,,,,,,,,,,,,,,,,,,,,,,,,,,,,,,,,,,,,,,,
,,,,,,,,,,stimuli/images/PICTURE_42.png,BOYS,5f1230c4f57b2f06e2465477,02/10/1942,2020-09-10_07h33.30.090,proactive3.1,2020.1.2,Win32,60,5f599a131af4471f3d752b7b,5f5a2a95c9d65f08b1791153,3,,,,,,pear,,,,,,0,39,39,55,1,6,1,,,,,,,,,,,,,,,,,,,,,,,,,,,,,,,,,,,,,,,,,,,,,,,,,,,,,,,,,,,,,,,,,,,,,,,,,,,,,,,,,,,,,,,,,,,,,,,,,,,,,,,,,,,,,
,,,,,,,,,,stimuli/images/PICTURE_327.png,CASINO,5f1230c4f57b2f06e2465477,02/10/1942,2020-09-10_07h33.30.090,proactive3.1,2020.1.2,Win32,60,5f599a131af4471f3d752b7b,5f5a2a95c9d65f08b1791153,3,,,,,,helmet,,,,,,0,40,40,20,1,3,1,,,,,,,,,,,,,,,,,,,,,,,,,,,,,,,,,,,,,,,,,,,,,,,,,,,,,,,,,,,,,,,,,,,,,,,,,,,,,,,,,,,,,,,,,,,,,,,,,,,,,,,,,,,,,
,,,,,,,,,,stimuli/images/PICTURE_95.png,MILLER,5f1230c4f57b2f06e2465477,02/10/1942,2020-09-10_07h33.30.090,proactive3.1,2020.1.2,Win32,60,5f599a131af4471f3d752b7b,5f5a2a95c9d65f08b1791153,3,,,,,,suitcase,,,,,,0,41,41,56,1,6,1,,,,,,,,,,,,,,,,,,,,,,,,,,,,,,,,,,,,,,,,,,,,,,,,,,,,,,,,,,,,,,,,,,,,,,,,,,,,,,,,,,,,,,,,,,,,,,,,,,,,,,,,,,,,,
,,,,,,,,,,stimuli/images/PICTURE_469.png,AGENT,5f1230c4f57b2f06e2465477,02/10/1942,2020-09-10_07h33.30.090,proactive3.1,2020.1.2,Win32,60,5f599a131af4471f3d752b7b,5f5a2a95c9d65f08b1791153,3,,,,,,stool,,,,,,0,42,42,16,1,2,1,,,,,,,,,,,,,,,,,,,,,,,,,,,,,,,,,,,,,,,,,,,,,,,,,,,,,,,,,,,,,,,,,,,,,,,,,,,,,,,,,,,,,,,,,,,,,,,,,,,,,,,,,,,,,
,,,,,,,,,,stimuli/images/PICTURE_57.png,MOMENT,5f1230c4f57b2f06e2465477,02/10/1942,2020-09-10_07h33.30.090,proactive3.1,2020.1.2,Win32,60,5f599a131af4471f3d752b7b,5f5a2a95c9d65f08b1791153,3,,,,,,stamp,,,,,,0,43,43,37,1,4,1,,,,,,,,,,,,,,,,,,,,,,,,,,,,,,,,,,,,,,,,,,,,,,,,,,,,,,,,,,,,,,,,,,,,,,,,,,,,,,,,,,,,,,,,,,,,,,,,,,,,,,,,,,,,,
,,,,,,,,,,stimuli/images/PICTURE_233.png,LOTS,5f1230c4f57b2f06e2465477,02/10/1942,2020-09-10_07h33.30.090,proactive3.1,2020.1.2,Win32,60,5f599a131af4471f3d752b7b,5f5a2a95c9d65f08b1791153,3,,,,,,salt,,,,,,0,44,44,42,1,5,1,,,,,,,,,,,,,,,,,,,,,,,,,,,,,,,,,,,,,,,,,,,,,,,,,,,,,,,,,,,,,,,,,,,,,,,,,,,,,,,,,,,,,,,,,,,,,,,,,,,,,,,,,,,,,
,,,,,,,,,,stimuli/images/PICTURE_32.png,PILLS,5f1230c4f57b2f06e2465477,02/10/1942,2020-09-10_07h33.30.090,proactive3.1,2020.1.2,Win32,60,5f599a131af4471f3d752b7b,5f5a2a95c9d65f08b1791153,3,,,,,,crown,,,,,,0,45,45,18,1,2,1,,,,,,,,,,,,,,,,,,,,,,,,,,,,,,,,,,,,,,,,,,,,,,,,,,,,,,,,,,,,,,,,,,,,,,,,,,,,,,,,,,,,,,,,,,,,,,,,,,,,,,,,,,,,,
,,,,,,,,,,stimuli/images/PICTURE_203.png,NIGHT,5f1230c4f57b2f06e2465477,02/10/1942,2020-09-10_07h33.30.090,proactive3.1,2020.1.2,Win32,60,5f599a131af4471f3d752b7b,5f5a2a95c9d65f08b1791153,3,,,,,,cap,,,,,,0,46,46,2,1,1,1,,,,,,,,,,,,,,,,,,,,,,,,,,,,,,,,,,,,,,,,,,,,,,,,,,,,,,,,,,,,,,,,,,,,,,,,,,,,,,,,,,,,,,,,,,,,,,,,,,,,,,,,,,,,,
,,,,,,,,,,stimuli/images/PICTURE_487.png,GIRL,5f1230c4f57b2f06e2465477,02/10/1942,2020-09-10_07h33.30.090,proactive3.1,2020.1.2,Win32,60,5f599a131af4471f3d752b7b,5f5a2a95c9d65f08b1791153,3,,,,,,basket,,,,,,0,47,47,45,1,5,1,,,,,,,,,,,,,,,,,,,,,,,,,,,,,,,,,,,,,,,,,,,,,,,,,,,,,,,,,,,,,,,,,,,,,,,,,,,,,,,,,,,,,,,,,,,,,,,,,,,,,,,,,,,,,
,,,,,,,,,,stimuli/images/PICTURE_95.png,HONEY,5f1230c4f57b2f06e2465477,02/10/1942,2020-09-10_07h33.30.090,proactive3.1,2020.1.2,Win32,60,5f599a131af4471f3d752b7b,5f5a2a95c9d65f08b1791153,3,,,,,,suitcase,,,,,,0,48,48,44,1,5,1,,,,,,,,,,,,,,,,,,,,,,,,,,,,,,,,,,,,,,,,,,,,,,,,,,,,,,,,,,,,,,,,,,,,,,,,,,,,,,,,,,,,,,,,,,,,,,,,,,,,,,,,,,,,,
,,,,,,,,,,stimuli/images/PICTURE_32.png,KIND,5f1230c4f57b2f06e2465477,02/10/1942,2020-09-10_07h33.30.090,proactive3.1,2020.1.2,Win32,60,5f599a131af4471f3d752b7b,5f5a2a95c9d65f08b1791153,3,,,,,,crown,,,,,,0,49,49,35,1,4,1,,,,,,,,,,,,,,,,,,,,,,,,,,,,,,,,,,,,,,,,,,,,,,,,,,,,,,,,,,,,,,,,,,,,,,,,,,,,,,,,,,,,,,,,,,,,,,,,,,,,,,,,,,,,,
,,,,,,,,,,stimuli/images/PICTURE_327.png,SERIES,5f1230c4f57b2f06e2465477,02/10/1942,2020-09-10_07h33.30.090,proactive3.1,2020.1.2,Win32,60,5f599a131af4471f3d752b7b,5f5a2a95c9d65f08b1791153,3,,,,,,helmet,,,,,,0,50,50,3,1,1,1,,,,,,,,,,,,,,,,,,,,,,,,,,,,,,,,,,,,,,,,,,,,,,,,,,,,,,,,,,,,,,,,,,,,,,,,,,,,,,,,,,,,,,,,,,,,,,,,,,,,,,,,,,,,,
,,,,,,,,,,stimuli/images/PICTURE_147.png,WOMEN,5f1230c4f57b2f06e2465477,02/10/1942,2020-09-10_07h33.30.090,proactive3.1,2020.1.2,Win32,60,5f599a131af4471f3d752b7b,5f5a2a95c9d65f08b1791153,3,,,,,,hanger,,,,,,0,51,51,7,1,1,1,,,,,,,,,,,,,,,,,,,,,,,,,,,,,,,,,,,,,,,,,,,,,,,,,,,,,,,,,,,,,,,,,,,,,,,,,,,,,,,,,,,,,,,,,,,,,,,,,,,,,,,,,,,,,
,,,,,,,,,,stimuli/images/PICTURE_33.png,FRIEND,5f1230c4f57b2f06e2465477,02/10/1942,2020-09-10_07h33.30.090,proactive3.1,2020.1.2,Win32,60,5f599a131af4471f3d752b7b,5f5a2a95c9d65f08b1791153,3,,,,,,frame,,,,,,0,52,52,8,1,1,1,,,,,,,,,,,,,,,,,,,,,,,,,,,,,,,,,,,,,,,,,,,,,,,,,,,,,,,,,,,,,,,,,,,,,,,,,,,,,,,,,,,,,,,,,,,,,,,,,,,,,,,,,,,,,
,,,,,,,,,,stimuli/images/PICTURE_667.png,RIVER,5f1230c4f57b2f06e2465477,02/10/1942,2020-09-10_07h33.30.090,proactive3.1,2020.1.2,Win32,60,5f599a131af4471f3d752b7b,5f5a2a95c9d65f08b1791153,3,,,,,,daisy,,,,,,0,53,53,10,1,2,1,,,,,,,,,,,,,,,,,,,,,,,,,,,,,,,,,,,,,,,,,,,,,,,,,,,,,,,,,,,,,,,,,,,,,,,,,,,,,,,,,,,,,,,,,,,,,,,,,,,,,,,,,,,,,
,,,,,,,,,,stimuli/images/PICTURE_380.png,CANDY,5f1230c4f57b2f06e2465477,02/10/1942,2020-09-10_07h33.30.090,proactive3.1,2020.1.2,Win32,60,5f599a131af4471f3d752b7b,5f5a2a95c9d65f08b1791153,3,,,,,,gorilla,,,,,,0,54,54,0,1,1,1,,,,,,,,,,,,,,,,,,,,,,,,,,,,,,,,,,,,,,,,,,,,,,,,,,,,,,,,,,,,,,,,,,,,,,,,,,,,,,,,,,,,,,,,,,,,,,,,,,,,,,,,,,,,,
,,,,,,,,,,stimuli/images/PICTURE_340.png,LETTER,5f1230c4f57b2f06e2465477,02/10/1942,2020-09-10_07h33.30.090,proactive3.1,2020.1.2,Win32,60,5f599a131af4471f3d752b7b,5f5a2a95c9d65f08b1791153,3,,,,,,mirror,,,,,,0,55,55,24,1,3,1,,,,,,,,,,,,,,,,,,,,,,,,,,,,,,,,,,,,,,,,,,,,,,,,,,,,,,,,,,,,,,,,,,,,,,,,,,,,,,,,,,,,,,,,,,,,,,,,,,,,,,,,,,,,,
,,,,,,,,,,stimuli/images/PICTURE_108.png,FLIGHT,5f1230c4f57b2f06e2465477,02/10/1942,2020-09-10_07h33.30.090,proactive3.1,2020.1.2,Win32,60,5f599a131af4471f3d752b7b,5f5a2a95c9d65f08b1791153,3,,,,,,calendar,,,,,,0,56,56,59,1,6,1,,,,,,,,,,,,,,,,,,,,,,,,,,,,,,,,,,,,,,,,,,,,,,,,,,,,,,,,,,,,,,,,,,,,,,,,,,,,,,,,,,,,,,,,,,,,,,,,,,,,,,,,,,,,,
,,,,,,,,,,stimuli/images/PICTURE_339.png,CLIENT,5f1230c4f57b2f06e2465477,02/10/1942,2020-09-10_07h33.30.090,proactive3.1,2020.1.2,Win32,60,5f599a131af4471f3d752b7b,5f5a2a95c9d65f08b1791153,3,,,,,,backpack,,,,,,0,57,57,11,1,2,1,,,,,,,,,,,,,,,,,,,,,,,,,,,,,,,,,,,,,,,,,,,,,,,,,,,,,,,,,,,,,,,,,,,,,,,,,,,,,,,,,,,,,,,,,,,,,,,,,,,,,,,,,,,,,
,,,,,,,,,,stimuli/images/PICTURE_296.png,LIFE,5f1230c4f57b2f06e2465477,02/10/1942,2020-09-10_07h33.30.090,proactive3.1,2020.1.2,Win32,60,5f599a131af4471f3d752b7b,5f5a2a95c9d65f08b1791153,3,,,,,,bolt,,,,,,0,58,58,57,1,6,1,,,,,,,,,,,,,,,,,,,,,,,,,,,,,,,,,,,,,,,,,,,,,,,,,,,,,,,,,,,,,,,,,,,,,,,,,,,,,,,,,,,,,,,,,,,,,,,,,,,,,,,,,,,,,
,,?,0.00201,0,,,,,,stimuli/images/PICTURE_469.png,AGENT,5f1230c4f57b2f06e2465477,02/10/1942,2020-09-10_07h33.30.090,proactive3.1,2020.1.2,Win32,60,5f599a131af4471f3d752b7b,5f5a2a95c9d65f08b1791153,3,,,,,,stool,,,,,,,,,,,2,1,0,0,0,16,1,,,,,,,,,,,,,,,,,,,,,,,,,,,,,,,,,,,,,,,,,,,,,,,,,,,,,,,,,,,,,,,,,,,,,,,,,,,,,,,,,,,,,,,,,,,,,,,,,,,,,,,,
,,?,0.00154,0,,,,,,stimuli/images/PICTURE_491.png,GLASS,5f1230c4f57b2f06e2465477,02/10/1942,2020-09-10_07h33.30.090,proactive3.1,2020.1.2,Win32,60,5f599a131af4471f3d752b7b,5f5a2a95c9d65f08b1791153,3,,,,,,rug,,,,,,,,,,,2,1,0,1,1,14,1,,,,,,,,,,,,,,,,,,,,,,,,,,,,,,,,,,,,,,,,,,,,,,,,,,,,,,,,,,,,,,,,,,,,,,,,,,,,,,,,,,,,,,,,,,,,,,,,,,,,,,,,
,,?,0.000905,0,,,,,,stimuli/images/PICTURE_339.png,CLIENT,5f1230c4f57b2f06e2465477,02/10/1942,2020-09-10_07h33.30.090,proactive3.1,2020.1.2,Win32,60,5f599a131af4471f3d752b7b,5f5a2a95c9d65f08b1791153,3,,,,,,backpack,,,,,,,,,,,2,1,0,2,2,11,1,,,,,,,,,,,,,,,,,,,,,,,,,,,,,,,,,,,,,,,,,,,,,,,,,,,,,,,,,,,,,,,,,,,,,,,,,,,,,,,,,,,,,,,,,,,,,,,,,,,,,,,,
,,?,0.000865,0,,,,,,stimuli/images/PICTURE_380.png,HONEY,5f1230c4f57b2f06e2465477,02/10/1942,2020-09-10_07h33.30.090,proactive3.1,2020.1.2,Win32,60,5f599a131af4471f3d752b7b,5f5a2a95c9d65f08b1791153,3,,,,,,gorilla,,,,,,,,,,,2,1,0,3,3,19,1,,,,,,,,,,,,,,,,,,,,,,,,,,,,,,,,,,,,,,,,,,,,,,,,,,,,,,,,,,,,,,,,,,,,,,,,,,,,,,,,,,,,,,,,,,,,,,,,,,,,,,,,
,,?,0.000655,0,,,,,,stimuli/images/PICTURE_340.png,VALLEY,5f1230c4f57b2f06e2465477,02/10/1942,2020-09-10_07h33.30.090,proactive3.1,2020.1.2,Win32,60,5f599a131af4471f3d752b7b,5f5a2a95c9d65f08b1791153,3,,,,,,mirror,,,,,,,,,,,6,1,0,4,4,54,1,,,,,,,,,,,,,,,,,,,,,,,,,,,,,,,,,,,,,,,,,,,,,,,,,,,,,,,,,,,,,,,,,,,,,,,,,,,,,,,,,,,,,,,,,,,,,,,,,,,,,,,,
,,?,0.00063,0,,,,,,stimuli/images/PICTURE_504.png,COPS,5f1230c4f57b2f06e2465477,02/10/1942,2020-09-10_07h33.30.090,proactive3.1,2020.1.2,Win32,60,5f599a131af4471f3d752b7b,5f5a2a95c9d65f08b1791153,3,,,,,,wheel,,,,,,,,,,,6,1,0,5,5,52,1,,,,,,,,,,,,,,,,,,,,,,,,,,,,,,,,,,,,,,,,,,,,,,,,,,,,,,,,,,,,,,,,,,,,,,,,,,,,,,,,,,,,,,,,,,,,,,,,,,,,,,,,
,,?,0.00079,0,,,,,,stimuli/images/PICTURE_85.png,TOILET,5f1230c4f57b2f06e2465477,02/10/1942,2020-09-10_07h33.30.090,proactive3.1,2020.1.2,Win32,60,5f599a131af4471f3d752b7b,5f5a2a95c9d65f08b1791153,3,,,,,,diamond,,,,,,,,,,,5,1,0,6,6,48,1,,,,,,,,,,,,,,,,,,,,,,,,,,,,,,,,,,,,,,,,,,,,,,,,,,,,,,,,,,,,,,,,,,,,,,,,,,,,,,,,,,,,,,,,,,,,,,,,,,,,,,,,
,,?,0.00065,0,,,,,,stimuli/images/PICTURE_504.png,ARTIST,5f1230c4f57b2f06e2465477,02/10/1942,2020-09-10_07h33.30.090,proactive3.1,2020.1.2,Win32,60,5f599a131af4471f3d752b7b,5f5a2a95c9d65f08b1791153,3,,,,,,wheel,,,,,,,,,,,5,1,0,7,7,49,1,,,,,,,,,,,,,,,,,,,,,,,,,,,,,,,,,,,,,,,,,,,,,,,,,,,,,,,,,,,,,,,,,,,,,,,,,,,,,,,,,,,,,,,,,,,,,,,,,,,,,,,,
,,?,0.00066,0,,,,,,stimuli/images/PICTURE_504.png,YEAR,5f1230c4f57b2f06e2465477,02/10/1942,2020-09-10_07h33.30.090,proactive3.1,2020.1.2,Win32,60,5f599a131af4471f3d752b7b,5f5a2a95c9d65f08b1791153,3,,,,,,wheel,,,,,,,,,,,2,1,0,8,8,13,1,,,,,,,,,,,,,,,,,,,,,,,,,,,,,,,,,,,,,,,,,,,,,,,,,,,,,,,,,,,,,,,,,,,,,,,,,,,,,,,,,,,,,,,,,,,,,,,,,,,,,,,,
,,?,0.00055,0,,,,,,stimuli/images/PICTURE_32.png,KIND,5f1230c4f57b2f06e2465477,02/10/1942,2020-09-10_07h33.30.090,proactive3.1,2020.1.2,Win32,60,5f599a131af4471f3d752b7b,5f5a2a95c9d65f08b1791153,3,,,,,,crown,,,,,,,,,,,4,1,0,9,9,35,1,,,,,,,,,,,,,,,,,,,,,,,,,,,,,,,,,,,,,,,,,,,,,,,,,,,,,,,,,,,,,,,,,,,,,,,,,,,,,,,,,,,,,,,,,,,,,,,,,,,,,,,,
,,?,0.00042,0,,,,,,stimuli/images/PICTURE_177.png,WRITER,5f1230c4f57b2f06e2465477,02/10/1942,2020-09-10_07h33.30.090,proactive3.1,2020.1.2,Win32,60,5f599a131af4471f3d752b7b,5f5a2a95c9d65f08b1791153,3,,,,,,mushroom,,,,,,,,,,,5,1,0,10,10,41,1,,,,,,,,,,,,,,,,,,,,,,,,,,,,,,,,,,,,,,,,,,,,,,,,,,,,,,,,,,,,,,,,,,,,,,,,,,,,,,,,,,,,,,,,,,,,,,,,,,,,,,,,
,,?,0.00042,0,,,,,,stimuli/images/PICTURE_85.png,NATION,5f1230c4f57b2f06e2465477,02/10/1942,2020-09-10_07h33.30.090,proactive3.1,2020.1.2,Win32,60,5f599a131af4471f3d752b7b,5f5a2a95c9d65f08b1791153,3,,,,,,diamond,,,,,,,,,,,1,1,0,11,11,5,1,,,,,,,,,,,,,,,,,,,,,,,,,,,,,,,,,,,,,,,,,,,,,,,,,,,,,,,,,,,,,,,,,,,,,,,,,,,,,,,,,,,,,,,,,,,,,,,,,,,,,,,,
,,?,0.000415,0,,,,,,stimuli/images/PICTURE_744.png,WEAPON,5f1230c4f57b2f06e2465477,02/10/1942,2020-09-10_07h33.30.090,proactive3.1,2020.1.2,Win32,60,5f599a131af4471f3d752b7b,5f5a2a95c9d65f08b1791153,3,,,,,,ring,,,,,,,,,,,6,1,0,12,12,50,1,,,,,,,,,,,,,,,,,,,,,,,,,,,,,,,,,,,,,,,,,,,,,,,,,,,,,,,,,,,,,,,,,,,,,,,,,,,,,,,,,,,,,,,,,,,,,,,,,,,,,,,,
,,?,0.000415,0,,,,,,stimuli/images/PICTURE_675.png,SALE,5f1230c4f57b2f06e2465477,02/10/1942,2020-09-10_07h33.30.090,proactive3.1,2020.1.2,Win32,60,5f599a131af4471f3d752b7b,5f5a2a95c9d65f08b1791153,3,,,,,,windmill,,,,,,,,,,,5,1,0,13,13,47,1,,,,,,,,,,,,,,,,,,,,,,,,,,,,,,,,,,,,,,,,,,,,,,,,,,,,,,,,,,,,,,,,,,,,,,,,,,,,,,,,,,,,,,,,,,,,,,,,,,,,,,,,
,,?,0.000415,0,,,,,,stimuli/images/PICTURE_233.png,LOTS,5f1230c4f57b2f06e2465477,02/10/1942,2020-09-10_07h33.30.090,proactive3.1,2020.1.2,Win32,60,5f599a131af4471f3d752b7b,5f5a2a95c9d65f08b1791153,3,,,,,,salt,,,,,,,,,,,5,1,0,14,14,42,1,,,,,,,,,,,,,,,,,,,,,,,,,,,,,,,,,,,,,,,,,,,,,,,,,,,,,,,,,,,,,,,,,,,,,,,,,,,,,,,,,,,,,,,,,,,,,,,,,,,,,,,,
,,MONTH,10.058615,1,,,,,,stimuli/images/PICTURE_654.png,MONTH,5f1230c4f57b2f06e2465477,02/10/1942,2020-09-10_07h33.30.090,proactive3.1,2020.1.2,Win32,60,5f599a131af4471f3d752b7b,5f5a2a95c9d65f08b1791153,3,,,,,,pencil,,,,,,,,,,,3,1,0,15,15,29,1,,,,,,,,,,,,,,,,,,,,,,,,,,,,,,,,,,,,,,,,,,,,,,,,,,,,,,,,,,,,,,,,,,,,,,,,,,,,,,,,,,,,,,,,,,,,,,,,,,,,,,,,
,,?,0.001805,0,,,,,,stimuli/images/PICTURE_685.png,PENNY,5f1230c4f57b2f06e2465477,02/10/1942,2020-09-10_07h33.30.090,proactive3.1,2020.1.2,Win32,60,5f599a131af4471f3d752b7b,5f5a2a95c9d65f08b1791153,3,,,,,,goose,,,,,,,,,,,1,1,0,16,16,4,1,,,,,,,,,,,,,,,,,,,,,,,,,,,,,,,,,,,,,,,,,,,,,,,,,,,,,,,,,,,,,,,,,,,,,,,,,,,,,,,,,,,,,,,,,,,,,,,,,,,,,,,,
,,?,0.00144,0,,,,,,stimuli/images/PICTURE_95.png,MILLER,5f1230c4f57b2f06e2465477,02/10/1942,2020-09-10_07h33.30.090,proactive3.1,2020.1.2,Win32,60,5f599a131af4471f3d752b7b,5f5a2a95c9d65f08b1791153,3,,,,,,suitcase,,,,,,,,,,,6,1,0,17,17,56,1,,,,,,,,,,,,,,,,,,,,,,,,,,,,,,,,,,,,,,,,,,,,,,,,,,,,,,,,,,,,,,,,,,,,,,,,,,,,,,,,,,,,,,,,,,,,,,,,,,,,,,,,
,,?,0.00131,0,,,,,,stimuli/images/PICTURE_32.png,PILLS,5f1230c4f57b2f06e2465477,02/10/1942,2020-09-10_07h33.30.090,proactive3.1,2020.1.2,Win32,60,5f599a131af4471f3d752b7b,5f5a2a95c9d65f08b1791153,3,,,,,,crown,,,,,,,,,,,2,1,0,18,18,18,1,,,,,,,,,,,,,,,,,,,,,,,,,,,,,,,,,,,,,,,,,,,,,,,,,,,,,,,,,,,,,,,,,,,,,,,,,,,,,,,,,,,,,,,,,,,,,,,,,,,,,,,,
,,?,0.001195,0,,,,,,stimuli/images/PICTURE_57.png,MOMENT,5f1230c4f57b2f06e2465477,02/10/1942,2020-09-10_07h33.30.090,proactive3.1,2020.1.2,Win32,60,5f599a131af4471f3d752b7b,5f5a2a95c9d65f08b1791153,3,,,,,,stamp,,,,,,,,,,,4,1,0,19,19,37,1,,,,,,,,,,,,,,,,,,,,,,,,,,,,,,,,,,,,,,,,,,,,,,,,,,,,,,,,,,,,,,,,,,,,,,,,,,,,,,,,,,,,,,,,,,,,,,,,,,,,,,,,
,,CASINO,8.199145,1,,,,,,stimuli/images/PICTURE_327.png,CASINO,5f1230c4f57b2f06e2465477,02/10/1942,2020-09-10_07h33.30.090,proactive3.1,2020.1.2,Win32,60,5f599a131af4471f3d752b7b,5f5a2a95c9d65f08b1791153,3,,,,,,helmet,,,,,,,,,,,3,1,0,20,20,20,1,,,,,,,,,,,,,,,,,,,,,,,,,,,,,,,,,,,,,,,,,,,,,,,,,,,,,,,,,,,,,,,,,,,,,,,,,,,,,,,,,,,,,,,,,,,,,,,,,,,,,,,,
,,?,0.001825,0,,,,,,stimuli/images/PICTURE_491.png,RIVER,5f1230c4f57b2f06e2465477,02/10/1942,2020-09-10_07h33.30.090,proactive3.1,2020.1.2,Win32,60,5f599a131af4471f3d752b7b,5f5a2a95c9d65f08b1791153,3,,,,,,rug,,,,,,,,,,,1,1,0,21,21,6,1,,,,,,,,,,,,,,,,,,,,,,,,,,,,,,,,,,,,,,,,,,,,,,,,,,,,,,,,,,,,,,,,,,,,,,,,,,,,,,,,,,,,,,,,,,,,,,,,,,,,,,,,
,,PLENTY,9.809175,1,,,,,,stimuli/images/PICTURE_405.png,PLENTY,5f1230c4f57b2f06e2465477,02/10/1942,2020-09-10_07h33.30.090,proactive3.1,2020.1.2,Win32,60,5f599a131af4471f3d752b7b,5f5a2a95c9d65f08b1791153,3,,,,,,anchor,,,,,,,,,,,3,1,0,22,22,23,1,,,,,,,,,,,,,,,,,,,,,,,,,,,,,,,,,,,,,,,,,,,,,,,,,,,,,,,,,,,,,,,,,,,,,,,,,,,,,,,,,,,,,,,,,,,,,,,,,,,,,,,,
,,?,0.00177,0,,,,,,stimuli/images/PICTURE_308.png,FAMILY,5f1230c4f57b2f06e2465477,02/10/1942,2020-09-10_07h33.30.090,proactive3.1,2020.1.2,Win32,60,5f599a131af4471f3d752b7b,5f5a2a95c9d65f08b1791153,3,,,,,,dice,,,,,,,,,,,4,1,0,23,23,36,1,,,,,,,,,,,,,,,,,,,,,,,,,,,,,,,,,,,,,,,,,,,,,,,,,,,,,,,,,,,,,,,,,,,,,,,,,,,,,,,,,,,,,,,,,,,,,,,,,,,,,,,,
,,?,0.001395,0,,,,,,stimuli/images/PICTURE_655.png,TOILET,5f1230c4f57b2f06e2465477,02/10/1942,2020-09-10_07h33.30.090,proactive3.1,2020.1.2,Win32,60,5f599a131af4471f3d752b7b,5f5a2a95c9d65f08b1791153,3,,,,,,megaphone,,,,,,,,,,,2,1,0,24,24,12,1,,,,,,,,,,,,,,,,,,,,,,,,,,,,,,,,,,,,,,,,,,,,,,,,,,,,,,,,,,,,,,,,,,,,,,,,,,,,,,,,,,,,,,,,,,,,,,,,,,,,,,,,
,,TOILET,8.40512,1,,,,,,stimuli/images/PICTURE_403.png,TOILET,5f1230c4f57b2f06e2465477,02/10/1942,2020-09-10_07h33.30.090,proactive3.1,2020.1.2,Win32,60,5f599a131af4471f3d752b7b,5f5a2a95c9d65f08b1791153,3,,,,,,cathedral,,,,,,,,,,,3,1,0,25,25,25,1,,,,,,,,,,,,,,,,,,,,,,,,,,,,,,,,,,,,,,,,,,,,,,,,,,,,,,,,,,,,,,,,,,,,,,,,,,,,,,,,,,,,,,,,,,,,,,,,,,,,,,,,
,,?,0.001775,0,,,,,,stimuli/images/PICTURE_68.png,ROOF,5f1230c4f57b2f06e2465477,02/10/1942,2020-09-10_07h33.30.090,proactive3.1,2020.1.2,Win32,60,5f599a131af4471f3d752b7b,5f5a2a95c9d65f08b1791153,3,,,,,,candle,,,,,,,,,,,4,1,0,26,26,38,1,,,,,,,,,,,,,,,,,,,,,,,,,,,,,,,,,,,,,,,,,,,,,,,,,,,,,,,,,,,,,,,,,,,,,,,,,,,,,,,,,,,,,,,,,,,,,,,,,,,,,,,,
,,HOTEL,6.077635,1,,,,,,stimuli/images/PICTURE_750.png,HOTEL,5f1230c4f57b2f06e2465477,02/10/1942,2020-09-10_07h33.30.090,proactive3.1,2020.1.2,Win32,60,5f599a131af4471f3d752b7b,5f5a2a95c9d65f08b1791153,3,,,,,,kettle,,,,,,,,,,,3,1,0,27,27,27,1,,,,,,,,,,,,,,,,,,,,,,,,,,,,,,,,,,,,,,,,,,,,,,,,,,,,,,,,,,,,,,,,,,,,,,,,,,,,,,,,,,,,,,,,,,,,,,,,,,,,,,,,
,,?,0.0019,0,,,,,,stimuli/images/PICTURE_467.png,POLICY,5f1230c4f57b2f06e2465477,02/10/1942,2020-09-10_07h33.30.090,proactive3.1,2020.1.2,Win32,60,5f599a131af4471f3d752b7b,5f5a2a95c9d65f08b1791153,3,,,,,,peg,,,,,,,,,,,6,1,0,28,28,53,1,,,,,,,,,,,,,,,,,,,,,,,,,,,,,,,,,,,,,,,,,,,,,,,,,,,,,,,,,,,,,,,,,,,,,,,,,,,,,,,,,,,,,,,,,,,,,,,,,,,,,,,,
,,?,0.00114,0,,,,,,stimuli/images/PICTURE_380.png,CANDY,5f1230c4f57b2f06e2465477,02/10/1942,2020-09-10_07h33.30.090,proactive3.1,2020.1.2,Win32,60,5f599a131af4471f3d752b7b,5f5a2a95c9d65f08b1791153,3,,,,,,gorilla,,,,,,,,,,,1,1,0,29,29,0,1,,,,,,,,,,,,,,,,,,,,,,,,,,,,,,,,,,,,,,,,,,,,,,,,,,,,,,,,,,,,,,,,,,,,,,,,,,,,,,,,,,,,,,,,,,,,,,,,,,,,,,,,
,,?,0.001115,0,,,,,,stimuli/images/PICTURE_33.png,FRIEND,5f1230c4f57b2f06e2465477,02/10/1942,2020-09-10_07h33.30.090,proactive3.1,2020.1.2,Win32,60,5f599a131af4471f3d752b7b,5f5a2a95c9d65f08b1791153,3,,,,,,frame,,,,,,,,,,,1,1,0,30,30,8,1,,,,,,,,,,,,,,,,,,,,,,,,,,,,,,,,,,,,,,,,,,,,,,,,,,,,,,,,,,,,,,,,,,,,,,,,,,,,,,,,,,,,,,,,,,,,,,,,,,,,,,,,
,,?,0.001105,0,,,,,,stimuli/images/PICTURE_487.png,GIRL,5f1230c4f57b2f06e2465477,02/10/1942,2020-09-10_07h33.30.090,proactive3.1,2020.1.2,Win32,60,5f599a131af4471f3d752b7b,5f5a2a95c9d65f08b1791153,3,,,,,,basket,,,,,,,,,,,5,1,0,31,31,45,1,,,,,,,,,,,,,,,,,,,,,,,,,,,,,,,,,,,,,,,,,,,,,,,,,,,,,,,,,,,,,,,,,,,,,,,,,,,,,,,,,,,,,,,,,,,,,,,,,,,,,,,,
,,?,0.001115,0,,,,,,stimuli/images/PICTURE_285.png,LIFE,5f1230c4f57b2f06e2465477,02/10/1942,2020-09-10_07h33.30.090,proactive3.1,2020.1.2,Win32,60,5f599a131af4471f3d752b7b,5f5a2a95c9d65f08b1791153,3,,,,,,carrot,,,,,,,,,,,4,1,0,32,32,33,1,,,,,,,,,,,,,,,,,,,,,,,,,,,,,,,,,,,,,,,,,,,,,,,,,,,,,,,,,,,,,,,,,,,,,,,,,,,,,,,,,,,,,,,,,,,,,,,,,,,,,,,,
,,?,0.001145,0,,,,,,stimuli/images/PICTURE_297.png,RIVER,5f1230c4f57b2f06e2465477,02/10/1942,2020-09-10_07h33.30.090,proactive3.1,2020.1.2,Win32,60,5f599a131af4471f3d752b7b,5f5a2a95c9d65f08b1791153,3,,,,,,aeroplane,,,,,,,,,,,4,1,0,33,33,39,1,,,,,,,,,,,,,,,,,,,,,,,,,,,,,,,,,,,,,,,,,,,,,,,,,,,,,,,,,,,,,,,,,,,,,,,,,,,,,,,,,,,,,,,,,,,,,,,,,,,,,,,,
,,?,0.00094,0,,,,,,stimuli/images/PICTURE_108.png,FLIGHT,5f1230c4f57b2f06e2465477,02/10/1942,2020-09-10_07h33.30.090,proactive3.1,2020.1.2,Win32,60,5f599a131af4471f3d752b7b,5f5a2a95c9d65f08b1791153,3,,,,,,calendar,,,,,,,,,,,6,1,0,34,34,59,1,,,,,,,,,,,,,,,,,,,,,,,,,,,,,,,,,,,,,,,,,,,,,,,,,,,,,,,,,,,,,,,,,,,,,,,,,,,,,,,,,,,,,,,,,,,,,,,,,,,,,,,,
,,BATH,6.111005,1,,,,,,stimuli/images/PICTURE_564.png,BATH,5f1230c4f57b2f06e2465477,02/10/1942,2020-09-10_07h33.30.090,proactive3.1,2020.1.2,Win32,60,5f599a131af4471f3d752b7b,5f5a2a95c9d65f08b1791153,3,,,,,,spoon,,,,,,,,,,,3,1,0,35,35,26,1,,,,,,,,,,,,,,,,,,,,,,,,,,,,,,,,,,,,,,,,,,,,,,,,,,,,,,,,,,,,,,,,,,,,,,,,,,,,,,,,,,,,,,,,,,,,,,,,,,,,,,,,
,,?,0.00212,0,,,,,,stimuli/images/PICTURE_2.png,FLIGHT,5f1230c4f57b2f06e2465477,02/10/1942,2020-09-10_07h33.30.090,proactive3.1,2020.1.2,Win32,60,5f599a131af4471f3d752b7b,5f5a2a95c9d65f08b1791153,3,,,,,,tyre,,,,,,,,,,,2,1,0,36,36,15,1,,,,,,,,,,,,,,,,,,,,,,,,,,,,,,,,,,,,,,,,,,,,,,,,,,,,,,,,,,,,,,,,,,,,,,,,,,,,,,,,,,,,,,,,,,,,,,,,,,,,,,,,
,,?,0.001445,0,,,,,,stimuli/images/PICTURE_449.png,DUDE,5f1230c4f57b2f06e2465477,02/10/1942,2020-09-10_07h33.30.090,proactive3.1,2020.1.2,Win32,60,5f599a131af4471f3d752b7b,5f5a2a95c9d65f08b1791153,3,,,,,,bench,,,,,,,,,,,2,1,0,37,37,17,1,,,,,,,,,,,,,,,,,,,,,,,,,,,,,,,,,,,,,,,,,,,,,,,,,,,,,,,,,,,,,,,,,,,,,,,,,,,,,,,,,,,,,,,,,,,,,,,,,,,,,,,,
,,?,0.001245,0,,,,,,stimuli/images/PICTURE_405.png,YEAR,5f1230c4f57b2f06e2465477,02/10/1942,2020-09-10_07h33.30.090,proactive3.1,2020.1.2,Win32,60,5f599a131af4471f3d752b7b,5f5a2a95c9d65f08b1791153,3,,,,,,anchor,,,,,,,,,,,4,1,0,38,38,34,1,,,,,,,,,,,,,,,,,,,,,,,,,,,,,,,,,,,,,,,,,,,,,,,,,,,,,,,,,,,,,,,,,,,,,,,,,,,,,,,,,,,,,,,,,,,,,,,,,,,,,,,,
,,?,0.00086,0,,,,,,stimuli/images/PICTURE_296.png,LIFE,5f1230c4f57b2f06e2465477,02/10/1942,2020-09-10_07h33.30.090,proactive3.1,2020.1.2,Win32,60,5f599a131af4471f3d752b7b,5f5a2a95c9d65f08b1791153,3,,,,,,bolt,,,,,,,,,,,6,1,0,39,39,57,1,,,,,,,,,,,,,,,,,,,,,,,,,,,,,,,,,,,,,,,,,,,,,,,,,,,,,,,,,,,,,,,,,,,,,,,,,,,,,,,,,,,,,,,,,,,,,,,,,,,,,,,,
,,WRITER,6.918765,1,,,,,,stimuli/images/PICTURE_383.png,WRITER,5f1230c4f57b2f06e2465477,02/10/1942,2020-09-10_07h33.30.090,proactive3.1,2020.1.2,Win32,60,5f599a131af4471f3d752b7b,5f5a2a95c9d65f08b1791153,3,,,,,,coin,,,,,,,,,,,3,1,0,40,40,28,1,,,,,,,,,,,,,,,,,,,,,,,,,,,,,,,,,,,,,,,,,,,,,,,,,,,,,,,,,,,,,,,,,,,,,,,,,,,,,,,,,,,,,,,,,,,,,,,,,,,,,,,,
,,?,0.001985,0,,,,,,stimuli/images/PICTURE_68.png,MILE,5f1230c4f57b2f06e2465477,02/10/1942,2020-09-10_07h33.30.090,proactive3.1,2020.1.2,Win32,60,5f599a131af4471f3d752b7b,5f5a2a95c9d65f08b1791153,3,,,,,,candle,,,,,,,,,,,6,1,0,41,41,51,1,,,,,,,,,,,,,,,,,,,,,,,,,,,,,,,,,,,,,,,,,,,,,,,,,,,,,,,,,,,,,,,,,,,,,,,,,,,,,,,,,,,,,,,,,,,,,,,,,,,,,,,,
,,?,5.639405,0,,,,,,stimuli/images/PICTURE_108.png,POLICY,5f1230c4f57b2f06e2465477,02/10/1942,2020-09-10_07h33.30.090,proactive3.1,2020.1.2,Win32,60,5f599a131af4471f3d752b7b,5f5a2a95c9d65f08b1791153,3,,,,,,calendar,,,,,,,,,,,3,1,0,42,42,22,1,,,,,,,,,,,,,,,,,,,,,,,,,,,,,,,,,,,,,,,,,,,,,,,,,,,,,,,,,,,,,,,,,,,,,,,,,,,,,,,,,,,,,,,,,,,,,,,,,,,,,,,,
,,?,0.00241,0,,,,,,stimuli/images/PICTURE_95.png,BOYS,5f1230c4f57b2f06e2465477,02/10/1942,2020-09-10_07h33.30.090,proactive3.1,2020.1.2,Win32,60,5f599a131af4471f3d752b7b,5f5a2a95c9d65f08b1791153,3,,,,,,suitcase,,,,,,,,,,,1,1,0,43,43,1,1,,,,,,,,,,,,,,,,,,,,,,,,,,,,,,,,,,,,,,,,,,,,,,,,,,,,,,,,,,,,,,,,,,,,,,,,,,,,,,,,,,,,,,,,,,,,,,,,,,,,,,,,
,,?,0.00118,0,,,,,,stimuli/images/PICTURE_208.png,SYSTEM,5f1230c4f57b2f06e2465477,02/10/1942,2020-09-10_07h33.30.090,proactive3.1,2020.1.2,Win32,60,5f599a131af4471f3d752b7b,5f5a2a95c9d65f08b1791153,3,,,,,,microphone,,,,,,,,,,,4,1,0,44,44,32,1,,,,,,,,,,,,,,,,,,,,,,,,,,,,,,,,,,,,,,,,,,,,,,,,,,,,,,,,,,,,,,,,,,,,,,,,,,,,,,,,,,,,,,,,,,,,,,,,,,,,,,,,
,,?,0.001135,0,,,,,,stimuli/images/PICTURE_677.png,APPLE,5f1230c4f57b2f06e2465477,02/10/1942,2020-09-10_07h33.30.090,proactive3.1,2020.1.2,Win32,60,5f599a131af4471f3d752b7b,5f5a2a95c9d65f08b1791153,3,,,,,,map,,,,,,,,,,,5,1,0,45,45,43,1,,,,,,,,,,,,,,,,,,,,,,,,,,,,,,,,,,,,,,,,,,,,,,,,,,,,,,,,,,,,,,,,,,,,,,,,,,,,,,,,,,,,,,,,,,,,,,,,,,,,,,,,
,,?,0.00115,0,,,,,,stimuli/images/PICTURE_42.png,BOYS,5f1230c4f57b2f06e2465477,02/10/1942,2020-09-10_07h33.30.090,proactive3.1,2020.1.2,Win32,60,5f599a131af4471f3d752b7b,5f5a2a95c9d65f08b1791153,3,,,,,,pear,,,,,,,,,,,6,1,0,46,46,55,1,,,,,,,,,,,,,,,,,,,,,,,,,,,,,,,,,,,,,,,,,,,,,,,,,,,,,,,,,,,,,,,,,,,,,,,,,,,,,,,,,,,,,,,,,,,,,,,,,,,,,,,,
,,?,0.001185,0,,,,,,stimuli/images/PICTURE_403.png,WRITER,5f1230c4f57b2f06e2465477,02/10/1942,2020-09-10_07h33.30.090,proactive3.1,2020.1.2,Win32,60,5f599a131af4471f3d752b7b,5f5a2a95c9d65f08b1791153,3,,,,,,cathedral,,,,,,,,,,,4,1,0,47,47,31,1,,,,,,,,,,,,,,,,,,,,,,,,,,,,,,,,,,,,,,,,,,,,,,,,,,,,,,,,,,,,,,,,,,,,,,,,,,,,,,,,,,,,,,,,,,,,,,,,,,,,,,,,
,,?,0.000795,0,,,,,,stimuli/images/PICTURE_147.png,WOMEN,5f1230c4f57b2f06e2465477,02/10/1942,2020-09-10_07h33.30.090,proactive3.1,2020.1.2,Win32,60,5f599a131af4471f3d752b7b,5f5a2a95c9d65f08b1791153,3,,,,,,hanger,,,,,,,,,,,1,1,0,48,48,7,1,,,,,,,,,,,,,,,,,,,,,,,,,,,,,,,,,,,,,,,,,,,,,,,,,,,,,,,,,,,,,,,,,,,,,,,,,,,,,,,,,,,,,,,,,,,,,,,,,,,,,,,,
,,?,0.000775,0,,,,,,stimuli/images/PICTURE_708.png,RECORD,5f1230c4f57b2f06e2465477,02/10/1942,2020-09-10_07h33.30.090,proactive3.1,2020.1.2,Win32,60,5f599a131af4471f3d752b7b,5f5a2a95c9d65f08b1791153,3,,,,,,monkey,,,,,,,,,,,6,1,0,49,49,58,1,,,,,,,,,,,,,,,,,,,,,,,,,,,,,,,,,,,,,,,,,,,,,,,,,,,,,,,,,,,,,,,,,,,,,,,,,,,,,,,,,,,,,,,,,,,,,,,,,,,,,,,,
,,?,0.00059,0,,,,,,stimuli/images/PICTURE_327.png,SERIES,5f1230c4f57b2f06e2465477,02/10/1942,2020-09-10_07h33.30.090,proactive3.1,2020.1.2,Win32,60,5f599a131af4471f3d752b7b,5f5a2a95c9d65f08b1791153,3,,,,,,helmet,,,,,,,,,,,1,1,0,50,50,3,1,,,,,,,,,,,,,,,,,,,,,,,,,,,,,,,,,,,,,,,,,,,,,,,,,,,,,,,,,,,,,,,,,,,,,,,,,,,,,,,,,,,,,,,,,,,,,,,,,,,,,,,,
,,?,0.00059,0,,,,,,stimuli/images/PICTURE_403.png,RIVER,5f1230c4f57b2f06e2465477,02/10/1942,2020-09-10_07h33.30.090,proactive3.1,2020.1.2,Win32,60,5f599a131af4471f3d752b7b,5f5a2a95c9d65f08b1791153,3,,,,,,cathedral,,,,,,,,,,,5,1,0,51,51,40,1,,,,,,,,,,,,,,,,,,,,,,,,,,,,,,,,,,,,,,,,,,,,,,,,,,,,,,,,,,,,,,,,,,,,,,,,,,,,,,,,,,,,,,,,,,,,,,,,,,,,,,,,
,,YEAR,5.508225,1,,,,,,stimuli/images/PICTURE_147.png,YEAR,5f1230c4f57b2f06e2465477,02/10/1942,2020-09-10_07h33.30.090,proactive3.1,2020.1.2,Win32,60,5f599a131af4471f3d752b7b,5f5a2a95c9d65f08b1791153,3,,,,,,hanger,,,,,,,,,,,3,1,0,52,52,21,1,,,,,,,,,,,,,,,,,,,,,,,,,,,,,,,,,,,,,,,,,,,,,,,,,,,,,,,,,,,,,,,,,,,,,,,,,,,,,,,,,,,,,,,,,,,,,,,,,,,,,,,,
,,?,0.00165,0,,,,,,stimuli/images/PICTURE_296.png,LOTS,5f1230c4f57b2f06e2465477,02/10/1942,2020-09-10_07h33.30.090,proactive3.1,2020.1.2,Win32,60,5f599a131af4471f3d752b7b,5f5a2a95c9d65f08b1791153,3,,,,,,bolt,,,,,,,,,,,1,1,0,53,53,9,1,,,,,,,,,,,,,,,,,,,,,,,,,,,,,,,,,,,,,,,,,,,,,,,,,,,,,,,,,,,,,,,,,,,,,,,,,,,,,,,,,,,,,,,,,,,,,,,,,,,,,,,,
,,?,0.00143,0,,,,,,stimuli/images/PICTURE_203.png,NIGHT,5f1230c4f57b2f06e2465477,02/10/1942,2020-09-10_07h33.30.090,proactive3.1,2020.1.2,Win32,60,5f599a131af4471f3d752b7b,5f5a2a95c9d65f08b1791153,3,,,,,,cap,,,,,,,,,,,1,1,0,54,54,2,1,,,,,,,,,,,,,,,,,,,,,,,,,,,,,,,,,,,,,,,,,,,,,,,,,,,,,,,,,,,,,,,,,,,,,,,,,,,,,,,,,,,,,,,,,,,,,,,,,,,,,,,,
,,LETTER,8.724545,1,,,,,,stimuli/images/PICTURE_340.png,LETTER,5f1230c4f57b2f06e2465477,02/10/1942,2020-09-10_07h33.30.090,proactive3.1,2020.1.2,Win32,60,5f599a131af4471f3d752b7b,5f5a2a95c9d65f08b1791153,3,,,,,,mirror,,,,,,,,,,,3,1,0,55,55,24,1,,,,,,,,,,,,,,,,,,,,,,,,,,,,,,,,,,,,,,,,,,,,,,,,,,,,,,,,,,,,,,,,,,,,,,,,,,,,,,,,,,,,,,,,,,,,,,,,,,,,,,,,
,,?,0.00182,0,,,,,,stimuli/images/PICTURE_383.png,SERIES,5f1230c4f57b2f06e2465477,02/10/1942,2020-09-10_07h33.30.090,proactive3.1,2020.1.2,Win32,60,5f599a131af4471f3d752b7b,5f5a2a95c9d65f08b1791153,3,,,,,,coin,,,,,,,,,,,5,1,0,56,56,46,1,,,,,,,,,,,,,,,,,,,,,,,,,,,,,,,,,,,,,,,,,,,,,,,,,,,,,,,,,,,,,,,,,,,,,,,,,,,,,,,,,,,,,,,,,,,,,,,,,,,,,,,,
,,?,0.00148,0,,,,,,stimuli/images/PICTURE_203.png,GODS,5f1230c4f57b2f06e2465477,02/10/1942,2020-09-10_07h33.30.090,proactive3.1,2020.1.2,Win32,60,5f599a131af4471f3d752b7b,5f5a2a95c9d65f08b1791153,3,,,,,,cap,,,,,,,,,,,4,1,0,57,57,30,1,,,,,,,,,,,,,,,,,,,,,,,,,,,,,,,,,,,,,,,,,,,,,,,,,,,,,,,,,,,,,,,,,,,,,,,,,,,,,,,,,,,,,,,,,,,,,,,,,,,,,,,,
,,?,0.00134,0,,,,,,stimuli/images/PICTURE_95.png,HONEY,5f1230c4f57b2f06e2465477,02/10/1942,2020-09-10_07h33.30.090,proactive3.1,2020.1.2,Win32,60,5f599a131af4471f3d752b7b,5f5a2a95c9d65f08b1791153,3,,,,,,suitcase,,,,,,,,,,,5,1,0,58,58,44,1,,,,,,,,,,,,,,,,,,,,,,,,,,,,,,,,,,,,,,,,,,,,,,,,,,,,,,,,,,,,,,,,,,,,,,,,,,,,,,,,,,,,,,,,,,,,,,,,,,,,,,,,
,,?,0.00109,0,,,,,,stimuli/images/PICTURE_667.png,RIVER,5f1230c4f57b2f06e2465477,02/10/1942,2020-09-10_07h33.30.090,proactive3.1,2020.1.2,Win32,60,5f599a131af4471f3d752b7b,5f5a2a95c9d65f08b1791153,3,,,,,,daisy,,,,,,,,,,,2,1,0,59,59,10,1,,,,,,,,,,,,,,,,,,,,,,,,,,,,,,,,,,,,,,,,,,,,,,,,,,,,,,,,,,,,,,,,,,,,,,,,,,,,,,,,,,,,,,,,,,,,,,,,,,,,,,,,
,,,,,,,,,,,,5f1230c4f57b2f06e2465477,02/10/1942,2020-09-10_07h33.30.090,proactive3.1,2020.1.2,Win32,60,5f599a131af4471f3d752b7b,5f5a2a95c9d65f08b1791153,3,,,,,,,,,,,,,,,,,,,,,,,,0,1,1,1,1,stimuli/learn-block2.csv,,,,,,,,,,,,,,,,,,,,,,,,,,,,,,,,,,,,,,,,,,,,,,,,,,,,,,,,,,,,,,,,,,,,,,,,,,,,,,,,,,,,,,,,,,,,,,,,,,
,,,,,,,,,,stimuli/images/PICTURE_141.png,CLIENT,5f1230c4f57b2f06e2465477,02/10/1942,2020-09-10_07h33.30.090,proactive3.1,2020.1.2,Win32,60,5f599a131af4471f3d752b7b,5f5a2a95c9d65f08b1791153,3,,,,,,sunflower,,,,,,0,0,0,30,1,4,2,,,,,,,,,,,,,,,,,,,,,,,,,,,,,,,,,,,,,,,,,,,,,,,,,,,,,,,,,,,,,,,,,,,,,,,,,,,,,,,,,,,,,,,,,,,,,,,,,,,,,,,,,,,,,
,,,,,,,,,,stimuli/images/PICTURE_509.png,BATH,5f1230c4f57b2f06e2465477,02/10/1942,2020-09-10_07h33.30.090,proactive3.1,2020.1.2,Win32,60,5f599a131af4471f3d752b7b,5f5a2a95c9d65f08b1791153,3,,,,,,telephone,,,,,,0,1,1,15,1,2,2,,,,,,,,,,,,,,,,,,,,,,,,,,,,,,,,,,,,,,,,,,,,,,,,,,,,,,,,,,,,,,,,,,,,,,,,,,,,,,,,,,,,,,,,,,,,,,,,,,,,,,,,,,,,,
,,,,,,,,,,stimuli/images/PICTURE_311.png,FLESH,5f1230c4f57b2f06e2465477,02/10/1942,2020-09-10_07h33.30.090,proactive3.1,2020.1.2,Win32,60,5f599a131af4471f3d752b7b,5f5a2a95c9d65f08b1791153,3,,,,,,razor,,,,,,0,2,2,3,1,1,2,,,,,,,,,,,,,,,,,,,,,,,,,,,,,,,,,,,,,,,,,,,,,,,,,,,,,,,,,,,,,,,,,,,,,,,,,,,,,,,,,,,,,,,,,,,,,,,,,,,,,,,,,,,,,
,,,,,,,,,,stimuli/images/PICTURE_564.png,PLENTY,5f1230c4f57b2f06e2465477,02/10/1942,2020-09-10_07h33.30.090,proactive3.1,2020.1.2,Win32,60,5f599a131af4471f3d752b7b,5f5a2a95c9d65f08b1791153,3,,,,,,spoon,,,,,,0,3,3,11,1,2,2,,,,,,,,,,,,,,,,,,,,,,,,,,,,,,,,,,,,,,,,,,,,,,,,,,,,,,,,,,,,,,,,,,,,,,,,,,,,,,,,,,,,,,,,,,,,,,,,,,,,,,,,,,,,,
,,,,,,,,,,stimuli/images/PICTURE_509.png,MILLER,5f1230c4f57b2f06e2465477,02/10/1942,2020-09-10_07h33.30.090,proactive3.1,2020.1.2,Win32,60,5f599a131af4471f3d752b7b,5f5a2a95c9d65f08b1791153,3,,,,,,telephone,,,,,,0,4,4,49,1,5,2,,,,,,,,,,,,,,,,,,,,,,,,,,,,,,,,,,,,,,,,,,,,,,,,,,,,,,,,,,,,,,,,,,,,,,,,,,,,,,,,,,,,,,,,,,,,,,,,,,,,,,,,,,,,,
,,,,,,,,,,stimuli/images/PICTURE_667.png,GLASS,5f1230c4f57b2f06e2465477,02/10/1942,2020-09-10_07h33.30.090,proactive3.1,2020.1.2,Win32,60,5f599a131af4471f3d752b7b,5f5a2a95c9d65f08b1791153,3,,,,,,daisy,,,,,,0,5,5,27,1,3,2,,,,,,,,,,,,,,,,,,,,,,,,,,,,,,,,,,,,,,,,,,,,,,,,,,,,,,,,,,,,,,,,,,,,,,,,,,,,,,,,,,,,,,,,,,,,,,,,,,,,,,,,,,,,,
,,,,,,,,,,stimuli/images/PICTURE_255.png,PENNY,5f1230c4f57b2f06e2465477,02/10/1942,2020-09-10_07h33.30.090,proactive3.1,2020.1.2,Win32,60,5f599a131af4471f3d752b7b,5f5a2a95c9d65f08b1791153,3,,,,,,shovel,,,,,,0,6,6,19,1,2,2,,,,,,,,,,,,,,,,,,,,,,,,,,,,,,,,,,,,,,,,,,,,,,,,,,,,,,,,,,,,,,,,,,,,,,,,,,,,,,,,,,,,,,,,,,,,,,,,,,,,,,,,,,,,,
,,,,,,,,,,stimuli/images/PICTURE_57.png,CANDY,5f1230c4f57b2f06e2465477,02/10/1942,2020-09-10_07h33.30.090,proactive3.1,2020.1.2,Win32,60,5f599a131af4471f3d752b7b,5f5a2a95c9d65f08b1791153,3,,,,,,stamp,,,,,,0,7,7,52,1,6,2,,,,,,,,,,,,,,,,,,,,,,,,,,,,,,,,,,,,,,,,,,,,,,,,,,,,,,,,,,,,,,,,,,,,,,,,,,,,,,,,,,,,,,,,,,,,,,,,,,,,,,,,,,,,,
,,,,,,,,,,stimuli/images/PICTURE_348.png,DUDE,5f1230c4f57b2f06e2465477,02/10/1942,2020-09-10_07h33.30.090,proactive3.1,2020.1.2,Win32,60,5f599a131af4471f3d752b7b,5f5a2a95c9d65f08b1791153,3,,,,,,pepper,,,,,,0,8,8,59,1,6,2,,,,,,,,,,,,,,,,,,,,,,,,,,,,,,,,,,,,,,,,,,,,,,,,,,,,,,,,,,,,,,,,,,,,,,,,,,,,,,,,,,,,,,,,,,,,,,,,,,,,,,,,,,,,,
,,,,,,,,,,stimuli/images/PICTURE_470.png,BEAUTY,5f1230c4f57b2f06e2465477,02/10/1942,2020-09-10_07h33.30.090,proactive3.1,2020.1.2,Win32,60,5f599a131af4471f3d752b7b,5f5a2a95c9d65f08b1791153,3,,,,,,motorbike,,,,,,0,9,9,26,1,3,2,,,,,,,,,,,,,,,,,,,,,,,,,,,,,,,,,,,,,,,,,,,,,,,,,,,,,,,,,,,,,,,,,,,,,,,,,,,,,,,,,,,,,,,,,,,,,,,,,,,,,,,,,,,,,
,,,,,,,,,,stimuli/images/PICTURE_177.png,HOUSE,5f1230c4f57b2f06e2465477,02/10/1942,2020-09-10_07h33.30.090,proactive3.1,2020.1.2,Win32,60,5f599a131af4471f3d752b7b,5f5a2a95c9d65f08b1791153,3,,,,,,mushroom,,,,,,0,10,10,25,1,3,2,,,,,,,,,,,,,,,,,,,,,,,,,,,,,,,,,,,,,,,,,,,,,,,,,,,,,,,,,,,,,,,,,,,,,,,,,,,,,,,,,,,,,,,,,,,,,,,,,,,,,,,,,,,,,
,,,,,,,,,,stimuli/images/PICTURE_314.png,SPEECH,5f1230c4f57b2f06e2465477,02/10/1942,2020-09-10_07h33.30.090,proactive3.1,2020.1.2,Win32,60,5f599a131af4471f3d752b7b,5f5a2a95c9d65f08b1791153,3,,,,,,perfume,,,,,,0,11,11,35,1,4,2,,,,,,,,,,,,,,,,,,,,,,,,,,,,,,,,,,,,,,,,,,,,,,,,,,,,,,,,,,,,,,,,,,,,,,,,,,,,,,,,,,,,,,,,,,,,,,,,,,,,,,,,,,,,,
,,,,,,,,,,stimuli/images/PICTURE_93.png,GIRL,5f1230c4f57b2f06e2465477,02/10/1942,2020-09-10_07h33.30.090,proactive3.1,2020.1.2,Win32,60,5f599a131af4471f3d752b7b,5f5a2a95c9d65f08b1791153,3,,,,,,skateboard,,,,,,0,12,12,31,1,4,2,,,,,,,,,,,,,,,,,,,,,,,,,,,,,,,,,,,,,,,,,,,,,,,,,,,,,,,,,,,,,,,,,,,,,,,,,,,,,,,,,,,,,,,,,,,,,,,,,,,,,,,,,,,,,
,,,,,,,,,,stimuli/images/PICTURE_285.png,PRINCE,5f1230c4f57b2f06e2465477,02/10/1942,2020-09-10_07h33.30.090,proactive3.1,2020.1.2,Win32,60,5f599a131af4471f3d752b7b,5f5a2a95c9d65f08b1791153,3,,,,,,carrot,,,,,,0,13,13,20,1,3,2,,,,,,,,,,,,,,,,,,,,,,,,,,,,,,,,,,,,,,,,,,,,,,,,,,,,,,,,,,,,,,,,,,,,,,,,,,,,,,,,,,,,,,,,,,,,,,,,,,,,,,,,,,,,,
,,,,,,,,,,stimuli/images/PICTURE_311.png,TOILET,5f1230c4f57b2f06e2465477,02/10/1942,2020-09-10_07h33.30.090,proactive3.1,2020.1.2,Win32,60,5f599a131af4471f3d752b7b,5f5a2a95c9d65f08b1791153,3,,,,,,razor,,,,,,0,14,14,54,1,6,2,,,,,,,,,,,,,,,,,,,,,,,,,,,,,,,,,,,,,,,,,,,,,,,,,,,,,,,,,,,,,,,,,,,,,,,,,,,,,,,,,,,,,,,,,,,,,,,,,,,,,,,,,,,,,
,,,,,,,,,,stimuli/images/PICTURE_470.png,MOMENT,5f1230c4f57b2f06e2465477,02/10/1942,2020-09-10_07h33.30.090,proactive3.1,2020.1.2,Win32,60,5f599a131af4471f3d752b7b,5f5a2a95c9d65f08b1791153,3,,,,,,motorbike,,,,,,0,15,15,40,1,5,2,,,,,,,,,,,,,,,,,,,,,,,,,,,,,,,,,,,,,,,,,,,,,,,,,,,,,,,,,,,,,,,,,,,,,,,,,,,,,,,,,,,,,,,,,,,,,,,,,,,,,,,,,,,,,
,,,,,,,,,,stimuli/images/PICTURE_509.png,APPLE,5f1230c4f57b2f06e2465477,02/10/1942,2020-09-10_07h33.30.090,proactive3.1,2020.1.2,Win32,60,5f599a131af4471f3d752b7b,5f5a2a95c9d65f08b1791153,3,,,,,,telephone,,,,,,0,16,16,38,1,4,2,,,,,,,,,,,,,,,,,,,,,,,,,,,,,,,,,,,,,,,,,,,,,,,,,,,,,,,,,,,,,,,,,,,,,,,,,,,,,,,,,,,,,,,,,,,,,,,,,,,,,,,,,,,,,
,,,,,,,,,,stimuli/images/PICTURE_57.png,CASINO,5f1230c4f57b2f06e2465477,02/10/1942,2020-09-10_07h33.30.090,proactive3.1,2020.1.2,Win32,60,5f599a131af4471f3d752b7b,5f5a2a95c9d65f08b1791153,3,,,,,,stamp,,,,,,0,17,17,12,1,2,2,,,,,,,,,,,,,,,,,,,,,,,,,,,,,,,,,,,,,,,,,,,,,,,,,,,,,,,,,,,,,,,,,,,,,,,,,,,,,,,,,,,,,,,,,,,,,,,,,,,,,,,,,,,,,
,,,,,,,,,,stimuli/images/PICTURE_452.png,COPS,5f1230c4f57b2f06e2465477,02/10/1942,2020-09-10_07h33.30.090,proactive3.1,2020.1.2,Win32,60,5f599a131af4471f3d752b7b,5f5a2a95c9d65f08b1791153,3,,,,,,watch,,,,,,0,18,18,0,1,1,2,,,,,,,,,,,,,,,,,,,,,,,,,,,,,,,,,,,,,,,,,,,,,,,,,,,,,,,,,,,,,,,,,,,,,,,,,,,,,,,,,,,,,,,,,,,,,,,,,,,,,,,,,,,,,
,,,,,,,,,,stimuli/images/PICTURE_405.png,JUNGLE,5f1230c4f57b2f06e2465477,02/10/1942,2020-09-10_07h33.30.090,proactive3.1,2020.1.2,Win32,60,5f599a131af4471f3d752b7b,5f5a2a95c9d65f08b1791153,3,,,,,,anchor,,,,,,0,19,19,13,1,2,2,,,,,,,,,,,,,,,,,,,,,,,,,,,,,,,,,,,,,,,,,,,,,,,,,,,,,,,,,,,,,,,,,,,,,,,,,,,,,,,,,,,,,,,,,,,,,,,,,,,,,,,,,,,,,
,,,,,,,,,,stimuli/images/PICTURE_215.png,BOYS,5f1230c4f57b2f06e2465477,02/10/1942,2020-09-10_07h33.30.090,proactive3.1,2020.1.2,Win32,60,5f599a131af4471f3d752b7b,5f5a2a95c9d65f08b1791153,3,,,,,,boot,,,,,,0,20,20,24,1,3,2,,,,,,,,,,,,,,,,,,,,,,,,,,,,,,,,,,,,,,,,,,,,,,,,,,,,,,,,,,,,,,,,,,,,,,,,,,,,,,,,,,,,,,,,,,,,,,,,,,,,,,,,,,,,,
,,,,,,,,,,stimuli/images/PICTURE_57.png,NATION,5f1230c4f57b2f06e2465477,02/10/1942,2020-09-10_07h33.30.090,proactive3.1,2020.1.2,Win32,60,5f599a131af4471f3d752b7b,5f5a2a95c9d65f08b1791153,3,,,,,,stamp,,,,,,0,21,21,21,1,3,2,,,,,,,,,,,,,,,,,,,,,,,,,,,,,,,,,,,,,,,,,,,,,,,,,,,,,,,,,,,,,,,,,,,,,,,,,,,,,,,,,,,,,,,,,,,,,,,,,,,,,,,,,,,,,
,,,,,,,,,,stimuli/images/PICTURE_285.png,WRITER,5f1230c4f57b2f06e2465477,02/10/1942,2020-09-10_07h33.30.090,proactive3.1,2020.1.2,Win32,60,5f599a131af4471f3d752b7b,5f5a2a95c9d65f08b1791153,3,,,,,,carrot,,,,,,0,22,22,6,1,1,2,,,,,,,,,,,,,,,,,,,,,,,,,,,,,,,,,,,,,,,,,,,,,,,,,,,,,,,,,,,,,,,,,,,,,,,,,,,,,,,,,,,,,,,,,,,,,,,,,,,,,,,,,,,,,
,,,,,,,,,,stimuli/images/PICTURE_348.png,TOILET,5f1230c4f57b2f06e2465477,02/10/1942,2020-09-10_07h33.30.090,proactive3.1,2020.1.2,Win32,60,5f599a131af4471f3d752b7b,5f5a2a95c9d65f08b1791153,3,,,,,,pepper,,,,,,0,23,23,4,1,1,2,,,,,,,,,,,,,,,,,,,,,,,,,,,,,,,,,,,,,,,,,,,,,,,,,,,,,,,,,,,,,,,,,,,,,,,,,,,,,,,,,,,,,,,,,,,,,,,,,,,,,,,,,,,,,
,,,,,,,,,,stimuli/images/PICTURE_655.png,SALE,5f1230c4f57b2f06e2465477,02/10/1942,2020-09-10_07h33.30.090,proactive3.1,2020.1.2,Win32,60,5f599a131af4471f3d752b7b,5f5a2a95c9d65f08b1791153,3,,,,,,megaphone,,,,,,0,24,24,57,1,6,2,,,,,,,,,,,,,,,,,,,,,,,,,,,,,,,,,,,,,,,,,,,,,,,,,,,,,,,,,,,,,,,,,,,,,,,,,,,,,,,,,,,,,,,,,,,,,,,,,,,,,,,,,,,,,
,,,,,,,,,,stimuli/images/PICTURE_123.png,SALE,5f1230c4f57b2f06e2465477,02/10/1942,2020-09-10_07h33.30.090,proactive3.1,2020.1.2,Win32,60,5f599a131af4471f3d752b7b,5f5a2a95c9d65f08b1791153,3,,,,,,dart,,,,,,0,25,25,8,1,1,2,,,,,,,,,,,,,,,,,,,,,,,,,,,,,,,,,,,,,,,,,,,,,,,,,,,,,,,,,,,,,,,,,,,,,,,,,,,,,,,,,,,,,,,,,,,,,,,,,,,,,,,,,,,,,
,,,,,,,,,,stimuli/images/PICTURE_95.png,NIGHT,5f1230c4f57b2f06e2465477,02/10/1942,2020-09-10_07h33.30.090,proactive3.1,2020.1.2,Win32,60,5f599a131af4471f3d752b7b,5f5a2a95c9d65f08b1791153,3,,,,,,suitcase,,,,,,0,26,26,37,1,4,2,,,,,,,,,,,,,,,,,,,,,,,,,,,,,,,,,,,,,,,,,,,,,,,,,,,,,,,,,,,,,,,,,,,,,,,,,,,,,,,,,,,,,,,,,,,,,,,,,,,,,,,,,,,,,
,,,,,,,,,,stimuli/images/PICTURE_33.png,COPS,5f1230c4f57b2f06e2465477,02/10/1942,2020-09-10_07h33.30.090,proactive3.1,2020.1.2,Win32,60,5f599a131af4471f3d752b7b,5f5a2a95c9d65f08b1791153,3,,,,,,frame,,,,,,0,27,27,29,1,3,2,,,,,,,,,,,,,,,,,,,,,,,,,,,,,,,,,,,,,,,,,,,,,,,,,,,,,,,,,,,,,,,,,,,,,,,,,,,,,,,,,,,,,,,,,,,,,,,,,,,,,,,,,,,,,
,,,,,,,,,,stimuli/images/PICTURE_403.png,FAMILY,5f1230c4f57b2f06e2465477,02/10/1942,2020-09-10_07h33.30.090,proactive3.1,2020.1.2,Win32,60,5f599a131af4471f3d752b7b,5f5a2a95c9d65f08b1791153,3,,,,,,cathedral,,,,,,0,28,28,9,1,1,2,,,,,,,,,,,,,,,,,,,,,,,,,,,,,,,,,,,,,,,,,,,,,,,,,,,,,,,,,,,,,,,,,,,,,,,,,,,,,,,,,,,,,,,,,,,,,,,,,,,,,,,,,,,,,
,,,,,,,,,,stimuli/images/PICTURE_327.png,LEADER,5f1230c4f57b2f06e2465477,02/10/1942,2020-09-10_07h33.30.090,proactive3.1,2020.1.2,Win32,60,5f599a131af4471f3d752b7b,5f5a2a95c9d65f08b1791153,3,,,,,,helmet,,,,,,0,29,29,17,1,2,2,,,,,,,,,,,,,,,,,,,,,,,,,,,,,,,,,,,,,,,,,,,,,,,,,,,,,,,,,,,,,,,,,,,,,,,,,,,,,,,,,,,,,,,,,,,,,,,,,,,,,,,,,,,,,
,,,,,,,,,,stimuli/images/PICTURE_160.png,HOTEL,5f1230c4f57b2f06e2465477,02/10/1942,2020-09-10_07h33.30.090,proactive3.1,2020.1.2,Win32,60,5f599a131af4471f3d752b7b,5f5a2a95c9d65f08b1791153,3,,,,,,wheelbarrow,,,,,,0,30,30,16,1,2,2,,,,,,,,,,,,,,,,,,,,,,,,,,,,,,,,,,,,,,,,,,,,,,,,,,,,,,,,,,,,,,,,,,,,,,,,,,,,,,,,,,,,,,,,,,,,,,,,,,,,,,,,,,,,,
,,,,,,,,,,stimuli/images/PICTURE_215.png,LEADER,5f1230c4f57b2f06e2465477,02/10/1942,2020-09-10_07h33.30.090,proactive3.1,2020.1.2,Win32,60,5f599a131af4471f3d752b7b,5f5a2a95c9d65f08b1791153,3,,,,,,boot,,,,,,0,31,31,43,1,5,2,,,,,,,,,,,,,,,,,,,,,,,,,,,,,,,,,,,,,,,,,,,,,,,,,,,,,,,,,,,,,,,,,,,,,,,,,,,,,,,,,,,,,,,,,,,,,,,,,,,,,,,,,,,,,
,,,,,,,,,,stimuli/images/PICTURE_453.png,FAMILY,5f1230c4f57b2f06e2465477,02/10/1942,2020-09-10_07h33.30.090,proactive3.1,2020.1.2,Win32,60,5f599a131af4471f3d752b7b,5f5a2a95c9d65f08b1791153,3,,,,,,scissors,,,,,,0,32,32,48,1,5,2,,,,,,,,,,,,,,,,,,,,,,,,,,,,,,,,,,,,,,,,,,,,,,,,,,,,,,,,,,,,,,,,,,,,,,,,,,,,,,,,,,,,,,,,,,,,,,,,,,,,,,,,,,,,,
,,,,,,,,,,stimuli/images/PICTURE_18.png,RIVER,5f1230c4f57b2f06e2465477,02/10/1942,2020-09-10_07h33.30.090,proactive3.1,2020.1.2,Win32,60,5f599a131af4471f3d752b7b,5f5a2a95c9d65f08b1791153,3,,,,,,planet,,,,,,0,33,33,22,1,3,2,,,,,,,,,,,,,,,,,,,,,,,,,,,,,,,,,,,,,,,,,,,,,,,,,,,,,,,,,,,,,,,,,,,,,,,,,,,,,,,,,,,,,,,,,,,,,,,,,,,,,,,,,,,,,
,,,,,,,,,,stimuli/images/PICTURE_654.png,YEAR,5f1230c4f57b2f06e2465477,02/10/1942,2020-09-10_07h33.30.090,proactive3.1,2020.1.2,Win32,60,5f599a131af4471f3d752b7b,5f5a2a95c9d65f08b1791153,3,,,,,,pencil,,,,,,0,34,34,41,1,5,2,,,,,,,,,,,,,,,,,,,,,,,,,,,,,,,,,,,,,,,,,,,,,,,,,,,,,,,,,,,,,,,,,,,,,,,,,,,,,,,,,,,,,,,,,,,,,,,,,,,,,,,,,,,,,
,,,,,,,,,,stimuli/images/PICTURE_688.png,CLOCK,5f1230c4f57b2f06e2465477,02/10/1942,2020-09-10_07h33.30.090,proactive3.1,2020.1.2,Win32,60,5f599a131af4471f3d752b7b,5f5a2a95c9d65f08b1791153,3,,,,,,runner,,,,,,0,35,35,42,1,5,2,,,,,,,,,,,,,,,,,,,,,,,,,,,,,,,,,,,,,,,,,,,,,,,,,,,,,,,,,,,,,,,,,,,,,,,,,,,,,,,,,,,,,,,,,,,,,,,,,,,,,,,,,,,,,
,,,,,,,,,,stimuli/images/PICTURE_491.png,SERIES,5f1230c4f57b2f06e2465477,02/10/1942,2020-09-10_07h33.30.090,proactive3.1,2020.1.2,Win32,60,5f599a131af4471f3d752b7b,5f5a2a95c9d65f08b1791153,3,,,,,,rug,,,,,,0,36,36,39,1,4,2,,,,,,,,,,,,,,,,,,,,,,,,,,,,,,,,,,,,,,,,,,,,,,,,,,,,,,,,,,,,,,,,,,,,,,,,,,,,,,,,,,,,,,,,,,,,,,,,,,,,,,,,,,,,,
,,,,,,,,,,stimuli/images/PICTURE_68.png,KIND,5f1230c4f57b2f06e2465477,02/10/1942,2020-09-10_07h33.30.090,proactive3.1,2020.1.2,Win32,60,5f599a131af4471f3d752b7b,5f5a2a95c9d65f08b1791153,3,,,,,,candle,,,,,,0,37,37,23,1,3,2,,,,,,,,,,,,,,,,,,,,,,,,,,,,,,,,,,,,,,,,,,,,,,,,,,,,,,,,,,,,,,,,,,,,,,,,,,,,,,,,,,,,,,,,,,,,,,,,,,,,,,,,,,,,,
,,,,,,,,,,stimuli/images/PICTURE_405.png,HOUSE,5f1230c4f57b2f06e2465477,02/10/1942,2020-09-10_07h33.30.090,proactive3.1,2020.1.2,Win32,60,5f599a131af4471f3d752b7b,5f5a2a95c9d65f08b1791153,3,,,,,,anchor,,,,,,0,38,38,2,1,1,2,,,,,,,,,,,,,,,,,,,,,,,,,,,,,,,,,,,,,,,,,,,,,,,,,,,,,,,,,,,,,,,,,,,,,,,,,,,,,,,,,,,,,,,,,,,,,,,,,,,,,,,,,,,,,
