consent_key.keys,consent_key.rt,recalled,recalled_rt,recall_acc,example_recall.thisRepN,example_recall.thisTrialN,example_recall.thisN,example_recall.thisIndex,example_recall.ran,file,word,participant,please enter your date of birth (dd/mm/yyyy),date,expName,psychopyVersion,OS,frameRate,STUDY_ID,SESSION_ID,list,prac_learn_study_loop.thisRepN,prac_learn_study_loop.thisTrialN,prac_learn_study_loop.thisN,prac_learn_study_loop.thisIndex,prac_learn_study_loop.ran,image,prac_learn_test_loop.thisRepN,prac_learn_test_loop.thisTrialN,prac_learn_test_loop.thisN,prac_learn_test_loop.thisIndex,prac_learn_test_loop.ran,learn_study_loop.thisRepN,learn_study_loop.thisTrialN,learn_study_loop.thisN,learn_study_loop.thisIndex,learn_study_loop.ran,list_no,block_no,learn_test_loop.thisRepN,learn_test_loop.thisTrialN,learn_test_loop.thisN,learn_test_loop.thisIndex,learn_test_loop.ran,learn_blocks.thisRepN,learn_blocks.thisTrialN,learn_blocks.thisN,learn_blocks.thisIndex,learn_blocks.ran,block_csv,key_resp_13.keys,key_resp_13.rt,learn_blocks_loop.thisRepN,learn_blocks_loop.thisTrialN,learn_blocks_loop.thisN,learn_blocks_loop.thisIndex,learn_blocks_loop.ran,final_learn_test.thisRepN,final_learn_test.thisTrialN,final_learn_test.thisN,final_learn_test.thisIndex,final_learn_test.ran,s_im1,s_im2,s_im3,s_im4,s_im5,s_im6,s_im7,s_im8,s_im1pos,s_im2pos,s_im3pos,s_im4pos,s_im5pos,s_im6pos,s_im7pos,s_im8pos,s_tarright,search_resp.keys,search_loop.thisRepN,search_loop.thisTrialN,search_loop.thisN,search_loop.thisIndex,search_loop.ran,search_resp.rt,prac_wm_search_loop.thisRepN,prac_wm_search_loop.thisTrialN,prac_wm_search_loop.thisN,prac_wm_search_loop.thisIndex,prac_wm_search_loop.ran,prac_wm_test_loop.thisRepN,prac_wm_test_loop.thisTrialN,prac_wm_test_loop.thisN,prac_wm_test_loop.thisIndex,prac_wm_test_loop.ran,wm_recalled1,wm_recall_rt1,wm_probed1,wm_recall_acc1,wm_recalled2,wm_recall_rt2,wm_probed2,wm_recall_acc2,wm_recalled3,wm_recall_rt3,wm_probed3,wm_recall_acc3,wm_recalled4,wm_recall_rt4,wm_probed4,wm_recall_acc4,prac_wm_trial_loop.thisRepN,prac_wm_trial_loop.thisTrialN,prac_wm_trial_loop.thisN,prac_wm_trial_loop.thisIndex,prac_wm_trial_loop.ran,word1,image1,file1,item_type1,word2,image2,file2,item_type2,word4,image4,file4,item_type4,word3,image3,file3,item_type3,wm_search_loop.thisRepN,wm_search_loop.thisTrialN,wm_search_loop.thisN,wm_search_loop.thisIndex,wm_search_loop.ran,wm_test_loop.thisRepN,wm_test_loop.thisTrialN,wm_test_loop.thisN,wm_test_loop.thisIndex,wm_test_loop.ran,wm_trial_loop.thisRepN,wm_trial_loop.thisTrialN,wm_trial_loop.thisN,wm_trial_loop.thisIndex,wm_trial_loop.ran
y,23.92781,TOUGH,7.580515,1,0,0,0,0,1,stimuli/images/PICTURE_747.png,TOUGH,5f132c87a20cca09bd4d8884,28/11/2001,2020-08-27_19h09.53.854,proactive3.1,2020.1.2,Win32,60,5f47c29a48bd2a1e651a6eb7,5f47f6d483588026e1bf7777,5,,,,,,,,,,,,,,,,,,,,,,,,,,,,,,,,,,,,,,,,,,,,,,,,,,,,,,,,,,,,,,,,,,,,,,,,,,,,,,,,,,,,,,,,,,,,,,,,,,,,,,,,,,,,,,,,,,,,,,,,,,,,,,,
,,,,,,,,,,stimuli/images/PICTURE_727.png,CELL,5f132c87a20cca09bd4d8884,28/11/2001,2020-08-27_19h09.53.854,proactive3.1,2020.1.2,Win32,60,5f47c29a48bd2a1e651a6eb7,5f47f6d483588026e1bf7777,5,0,0,0,1,1,hose,,,,,,,,,,,,,,,,,,,,,,,,,,,,,,,,,,,,,,,,,,,,,,,,,,,,,,,,,,,,,,,,,,,,,,,,,,,,,,,,,,,,,,,,,,,,,,,,,,,,,,,,,,,,,,,,,,,,,,,,,
,,,,,,,,,,stimuli/images/PICTURE_269.png,GENIUS,5f132c87a20cca09bd4d8884,28/11/2001,2020-08-27_19h09.53.854,proactive3.1,2020.1.2,Win32,60,5f47c29a48bd2a1e651a6eb7,5f47f6d483588026e1bf7777,5,0,1,1,0,1,chameleon,,,,,,,,,,,,,,,,,,,,,,,,,,,,,,,,,,,,,,,,,,,,,,,,,,,,,,,,,,,,,,,,,,,,,,,,,,,,,,,,,,,,,,,,,,,,,,,,,,,,,,,,,,,,,,,,,,,,,,,,,
,,,,,,,,,,stimuli/images/PICTURE_378.png,LOSS,5f132c87a20cca09bd4d8884,28/11/2001,2020-08-27_19h09.53.854,proactive3.1,2020.1.2,Win32,60,5f47c29a48bd2a1e651a6eb7,5f47f6d483588026e1bf7777,5,0,2,2,2,1,lobster,,,,,,,,,,,,,,,,,,,,,,,,,,,,,,,,,,,,,,,,,,,,,,,,,,,,,,,,,,,,,,,,,,,,,,,,,,,,,,,,,,,,,,,,,,,,,,,,,,,,,,,,,,,,,,,,,,,,,,,,,
,,,,,,,,,,stimuli/images/PICTURE_697.png,KILLER,5f132c87a20cca09bd4d8884,28/11/2001,2020-08-27_19h09.53.854,proactive3.1,2020.1.2,Win32,60,5f47c29a48bd2a1e651a6eb7,5f47f6d483588026e1bf7777,5,0,3,3,4,1,peach,,,,,,,,,,,,,,,,,,,,,,,,,,,,,,,,,,,,,,,,,,,,,,,,,,,,,,,,,,,,,,,,,,,,,,,,,,,,,,,,,,,,,,,,,,,,,,,,,,,,,,,,,,,,,,,,,,,,,,,,,
,,CELL,2.858765,1,,,,,,stimuli/images/PICTURE_727.png,CELL,5f132c87a20cca09bd4d8884,28/11/2001,2020-08-27_19h09.53.854,proactive3.1,2020.1.2,Win32,60,5f47c29a48bd2a1e651a6eb7,5f47f6d483588026e1bf7777,5,,,,,,hose,0,0,0,1,1,,,,,,,,,,,,,,,,,,,,,,,,,,,,,,,,,,,,,,,,,,,,,,,,,,,,,,,,,,,,,,,,,,,,,,,,,,,,,,,,,,,,,,,,,,,,,,,,,,,,,,,,,,,,,,,,,,,,
,,KILLER,4.327655,1,,,,,,stimuli/images/PICTURE_697.png,KILLER,5f132c87a20cca09bd4d8884,28/11/2001,2020-08-27_19h09.53.854,proactive3.1,2020.1.2,Win32,60,5f47c29a48bd2a1e651a6eb7,5f47f6d483588026e1bf7777,5,,,,,,peach,0,1,1,4,1,,,,,,,,,,,,,,,,,,,,,,,,,,,,,,,,,,,,,,,,,,,,,,,,,,,,,,,,,,,,,,,,,,,,,,,,,,,,,,,,,,,,,,,,,,,,,,,,,,,,,,,,,,,,,,,,,,,,
,,LOSS,3.612015,0,,,,,,stimuli/images/PICTURE_658.png,DEVIL,5f132c87a20cca09bd4d8884,28/11/2001,2020-08-27_19h09.53.854,proactive3.1,2020.1.2,Win32,60,5f47c29a48bd2a1e651a6eb7,5f47f6d483588026e1bf7777,5,,,,,,crow,0,2,2,3,1,,,,,,,,,,,,,,,,,,,,,,,,,,,,,,,,,,,,,,,,,,,,,,,,,,,,,,,,,,,,,,,,,,,,,,,,,,,,,,,,,,,,,,,,,,,,,,,,,,,,,,,,,,,,,,,,,,,,
,,GENIUS,4.143475,1,,,,,,stimuli/images/PICTURE_269.png,GENIUS,5f132c87a20cca09bd4d8884,28/11/2001,2020-08-27_19h09.53.854,proactive3.1,2020.1.2,Win32,60,5f47c29a48bd2a1e651a6eb7,5f47f6d483588026e1bf7777,5,,,,,,chameleon,0,3,3,0,1,,,,,,,,,,,,,,,,,,,,,,,,,,,,,,,,,,,,,,,,,,,,,,,,,,,,,,,,,,,,,,,,,,,,,,,,,,,,,,,,,,,,,,,,,,,,,,,,,,,,,,,,,,,,,,,,,,,,
,,LOSS,2.62956,1,,,,,,stimuli/images/PICTURE_378.png,LOSS,5f132c87a20cca09bd4d8884,28/11/2001,2020-08-27_19h09.53.854,proactive3.1,2020.1.2,Win32,60,5f47c29a48bd2a1e651a6eb7,5f47f6d483588026e1bf7777,5,,,,,,lobster,0,4,4,2,1,,,,,,,,,,,,,,,,,,,,,,,,,,,,,,,,,,,,,,,,,,,,,,,,,,,,,,,,,,,,,,,,,,,,,,,,,,,,,,,,,,,,,,,,,,,,,,,,,,,,,,,,,,,,,,,,,,,,
,,,,,,,,,,stimuli/images/PICTURE_32.png,LETTER,5f132c87a20cca09bd4d8884,28/11/2001,2020-08-27_19h09.53.854,proactive3.1,2020.1.2,Win32,60,5f47c29a48bd2a1e651a6eb7,5f47f6d483588026e1bf7777,5,,,,,,crown,,,,,,0,0,0,56,1,6,2,,,,,,,,,,,,,,,,,,,,,,,,,,,,,,,,,,,,,,,,,,,,,,,,,,,,,,,,,,,,,,,,,,,,,,,,,,,,,,,,,,,,,,,,,,,,,,,,,,,,,,,,,,,,,
,,,,,,,,,,stimuli/images/PICTURE_348.png,TOILET,5f132c87a20cca09bd4d8884,28/11/2001,2020-08-27_19h09.53.854,proactive3.1,2020.1.2,Win32,60,5f47c29a48bd2a1e651a6eb7,5f47f6d483588026e1bf7777,5,,,,,,pepper,,,,,,0,1,1,4,1,1,2,,,,,,,,,,,,,,,,,,,,,,,,,,,,,,,,,,,,,,,,,,,,,,,,,,,,,,,,,,,,,,,,,,,,,,,,,,,,,,,,,,,,,,,,,,,,,,,,,,,,,,,,,,,,,
,,,,,,,,,,stimuli/images/PICTURE_2.png,YARD,5f132c87a20cca09bd4d8884,28/11/2001,2020-08-27_19h09.53.854,proactive3.1,2020.1.2,Win32,60,5f47c29a48bd2a1e651a6eb7,5f47f6d483588026e1bf7777,5,,,,,,tyre,,,,,,0,2,2,55,1,6,2,,,,,,,,,,,,,,,,,,,,,,,,,,,,,,,,,,,,,,,,,,,,,,,,,,,,,,,,,,,,,,,,,,,,,,,,,,,,,,,,,,,,,,,,,,,,,,,,,,,,,,,,,,,,,
,,,,,,,,,,stimuli/images/PICTURE_348.png,DUDE,5f132c87a20cca09bd4d8884,28/11/2001,2020-08-27_19h09.53.854,proactive3.1,2020.1.2,Win32,60,5f47c29a48bd2a1e651a6eb7,5f47f6d483588026e1bf7777,5,,,,,,pepper,,,,,,0,3,3,59,1,6,2,,,,,,,,,,,,,,,,,,,,,,,,,,,,,,,,,,,,,,,,,,,,,,,,,,,,,,,,,,,,,,,,,,,,,,,,,,,,,,,,,,,,,,,,,,,,,,,,,,,,,,,,,,,,,
,,,,,,,,,,stimuli/images/PICTURE_311.png,TOILET,5f132c87a20cca09bd4d8884,28/11/2001,2020-08-27_19h09.53.854,proactive3.1,2020.1.2,Win32,60,5f47c29a48bd2a1e651a6eb7,5f47f6d483588026e1bf7777,5,,,,,,razor,,,,,,0,4,4,54,1,6,2,,,,,,,,,,,,,,,,,,,,,,,,,,,,,,,,,,,,,,,,,,,,,,,,,,,,,,,,,,,,,,,,,,,,,,,,,,,,,,,,,,,,,,,,,,,,,,,,,,,,,,,,,,,,,
,,,,,,,,,,stimuli/images/PICTURE_215.png,BOYS,5f132c87a20cca09bd4d8884,28/11/2001,2020-08-27_19h09.53.854,proactive3.1,2020.1.2,Win32,60,5f47c29a48bd2a1e651a6eb7,5f47f6d483588026e1bf7777,5,,,,,,boot,,,,,,0,5,5,24,1,3,2,,,,,,,,,,,,,,,,,,,,,,,,,,,,,,,,,,,,,,,,,,,,,,,,,,,,,,,,,,,,,,,,,,,,,,,,,,,,,,,,,,,,,,,,,,,,,,,,,,,,,,,,,,,,,
,,,,,,,,,,stimuli/images/PICTURE_509.png,SHOTS,5f132c87a20cca09bd4d8884,28/11/2001,2020-08-27_19h09.53.854,proactive3.1,2020.1.2,Win32,60,5f47c29a48bd2a1e651a6eb7,5f47f6d483588026e1bf7777,5,,,,,,telephone,,,,,,0,6,6,7,1,1,2,,,,,,,,,,,,,,,,,,,,,,,,,,,,,,,,,,,,,,,,,,,,,,,,,,,,,,,,,,,,,,,,,,,,,,,,,,,,,,,,,,,,,,,,,,,,,,,,,,,,,,,,,,,,,
,,,,,,,,,,stimuli/images/PICTURE_57.png,CASINO,5f132c87a20cca09bd4d8884,28/11/2001,2020-08-27_19h09.53.854,proactive3.1,2020.1.2,Win32,60,5f47c29a48bd2a1e651a6eb7,5f47f6d483588026e1bf7777,5,,,,,,stamp,,,,,,0,7,7,12,1,2,2,,,,,,,,,,,,,,,,,,,,,,,,,,,,,,,,,,,,,,,,,,,,,,,,,,,,,,,,,,,,,,,,,,,,,,,,,,,,,,,,,,,,,,,,,,,,,,,,,,,,,,,,,,,,,
,,,,,,,,,,stimuli/images/PICTURE_68.png,KIND,5f132c87a20cca09bd4d8884,28/11/2001,2020-08-27_19h09.53.854,proactive3.1,2020.1.2,Win32,60,5f47c29a48bd2a1e651a6eb7,5f47f6d483588026e1bf7777,5,,,,,,candle,,,,,,0,8,8,23,1,3,2,,,,,,,,,,,,,,,,,,,,,,,,,,,,,,,,,,,,,,,,,,,,,,,,,,,,,,,,,,,,,,,,,,,,,,,,,,,,,,,,,,,,,,,,,,,,,,,,,,,,,,,,,,,,,
,,,,,,,,,,stimuli/images/PICTURE_147.png,LEADER,5f132c87a20cca09bd4d8884,28/11/2001,2020-08-27_19h09.53.854,proactive3.1,2020.1.2,Win32,60,5f47c29a48bd2a1e651a6eb7,5f47f6d483588026e1bf7777,5,,,,,,hanger,,,,,,0,9,9,33,1,4,2,,,,,,,,,,,,,,,,,,,,,,,,,,,,,,,,,,,,,,,,,,,,,,,,,,,,,,,,,,,,,,,,,,,,,,,,,,,,,,,,,,,,,,,,,,,,,,,,,,,,,,,,,,,,,
,,,,,,,,,,stimuli/images/PICTURE_487.png,ROOF,5f132c87a20cca09bd4d8884,28/11/2001,2020-08-27_19h09.53.854,proactive3.1,2020.1.2,Win32,60,5f47c29a48bd2a1e651a6eb7,5f47f6d483588026e1bf7777,5,,,,,,basket,,,,,,0,10,10,50,1,6,2,,,,,,,,,,,,,,,,,,,,,,,,,,,,,,,,,,,,,,,,,,,,,,,,,,,,,,,,,,,,,,,,,,,,,,,,,,,,,,,,,,,,,,,,,,,,,,,,,,,,,,,,,,,,,
,,,,,,,,,,stimuli/images/PICTURE_57.png,NATION,5f132c87a20cca09bd4d8884,28/11/2001,2020-08-27_19h09.53.854,proactive3.1,2020.1.2,Win32,60,5f47c29a48bd2a1e651a6eb7,5f47f6d483588026e1bf7777,5,,,,,,stamp,,,,,,0,11,11,21,1,3,2,,,,,,,,,,,,,,,,,,,,,,,,,,,,,,,,,,,,,,,,,,,,,,,,,,,,,,,,,,,,,,,,,,,,,,,,,,,,,,,,,,,,,,,,,,,,,,,,,,,,,,,,,,,,,
,,,,,,,,,,stimuli/images/PICTURE_255.png,PENNY,5f132c87a20cca09bd4d8884,28/11/2001,2020-08-27_19h09.53.854,proactive3.1,2020.1.2,Win32,60,5f47c29a48bd2a1e651a6eb7,5f47f6d483588026e1bf7777,5,,,,,,shovel,,,,,,0,12,12,19,1,2,2,,,,,,,,,,,,,,,,,,,,,,,,,,,,,,,,,,,,,,,,,,,,,,,,,,,,,,,,,,,,,,,,,,,,,,,,,,,,,,,,,,,,,,,,,,,,,,,,,,,,,,,,,,,,,
,,,,,,,,,,stimuli/images/PICTURE_452.png,COPS,5f132c87a20cca09bd4d8884,28/11/2001,2020-08-27_19h09.53.854,proactive3.1,2020.1.2,Win32,60,5f47c29a48bd2a1e651a6eb7,5f47f6d483588026e1bf7777,5,,,,,,watch,,,,,,0,13,13,0,1,1,2,,,,,,,,,,,,,,,,,,,,,,,,,,,,,,,,,,,,,,,,,,,,,,,,,,,,,,,,,,,,,,,,,,,,,,,,,,,,,,,,,,,,,,,,,,,,,,,,,,,,,,,,,,,,,
,,,,,,,,,,stimuli/images/PICTURE_141.png,CLIENT,5f132c87a20cca09bd4d8884,28/11/2001,2020-08-27_19h09.53.854,proactive3.1,2020.1.2,Win32,60,5f47c29a48bd2a1e651a6eb7,5f47f6d483588026e1bf7777,5,,,,,,sunflower,,,,,,0,14,14,30,1,4,2,,,,,,,,,,,,,,,,,,,,,,,,,,,,,,,,,,,,,,,,,,,,,,,,,,,,,,,,,,,,,,,,,,,,,,,,,,,,,,,,,,,,,,,,,,,,,,,,,,,,,,,,,,,,,
,,,,,,,,,,stimuli/images/PICTURE_160.png,HOTEL,5f132c87a20cca09bd4d8884,28/11/2001,2020-08-27_19h09.53.854,proactive3.1,2020.1.2,Win32,60,5f47c29a48bd2a1e651a6eb7,5f47f6d483588026e1bf7777,5,,,,,,wheelbarrow,,,,,,0,15,15,16,1,2,2,,,,,,,,,,,,,,,,,,,,,,,,,,,,,,,,,,,,,,,,,,,,,,,,,,,,,,,,,,,,,,,,,,,,,,,,,,,,,,,,,,,,,,,,,,,,,,,,,,,,,,,,,,,,,
,,,,,,,,,,stimuli/images/PICTURE_750.png,POLICY,5f132c87a20cca09bd4d8884,28/11/2001,2020-08-27_19h09.53.854,proactive3.1,2020.1.2,Win32,60,5f47c29a48bd2a1e651a6eb7,5f47f6d483588026e1bf7777,5,,,,,,kettle,,,,,,0,16,16,44,1,5,2,,,,,,,,,,,,,,,,,,,,,,,,,,,,,,,,,,,,,,,,,,,,,,,,,,,,,,,,,,,,,,,,,,,,,,,,,,,,,,,,,,,,,,,,,,,,,,,,,,,,,,,,,,,,,
,,,,,,,,,,stimuli/images/PICTURE_654.png,COPS,5f132c87a20cca09bd4d8884,28/11/2001,2020-08-27_19h09.53.854,proactive3.1,2020.1.2,Win32,60,5f47c29a48bd2a1e651a6eb7,5f47f6d483588026e1bf7777,5,,,,,,pencil,,,,,,0,17,17,10,1,2,2,,,,,,,,,,,,,,,,,,,,,,,,,,,,,,,,,,,,,,,,,,,,,,,,,,,,,,,,,,,,,,,,,,,,,,,,,,,,,,,,,,,,,,,,,,,,,,,,,,,,,,,,,,,,,
,,,,,,,,,,stimuli/images/PICTURE_405.png,JUNGLE,5f132c87a20cca09bd4d8884,28/11/2001,2020-08-27_19h09.53.854,proactive3.1,2020.1.2,Win32,60,5f47c29a48bd2a1e651a6eb7,5f47f6d483588026e1bf7777,5,,,,,,anchor,,,,,,0,18,18,58,1,6,2,,,,,,,,,,,,,,,,,,,,,,,,,,,,,,,,,,,,,,,,,,,,,,,,,,,,,,,,,,,,,,,,,,,,,,,,,,,,,,,,,,,,,,,,,,,,,,,,,,,,,,,,,,,,,
,,,,,,,,,,stimuli/images/PICTURE_509.png,BATH,5f132c87a20cca09bd4d8884,28/11/2001,2020-08-27_19h09.53.854,proactive3.1,2020.1.2,Win32,60,5f47c29a48bd2a1e651a6eb7,5f47f6d483588026e1bf7777,5,,,,,,telephone,,,,,,0,19,19,15,1,2,2,,,,,,,,,,,,,,,,,,,,,,,,,,,,,,,,,,,,,,,,,,,,,,,,,,,,,,,,,,,,,,,,,,,,,,,,,,,,,,,,,,,,,,,,,,,,,,,,,,,,,,,,,,,,,
,,,,,,,,,,stimuli/images/PICTURE_509.png,MILLER,5f132c87a20cca09bd4d8884,28/11/2001,2020-08-27_19h09.53.854,proactive3.1,2020.1.2,Win32,60,5f47c29a48bd2a1e651a6eb7,5f47f6d483588026e1bf7777,5,,,,,,telephone,,,,,,0,20,20,49,1,5,2,,,,,,,,,,,,,,,,,,,,,,,,,,,,,,,,,,,,,,,,,,,,,,,,,,,,,,,,,,,,,,,,,,,,,,,,,,,,,,,,,,,,,,,,,,,,,,,,,,,,,,,,,,,,,
,,,,,,,,,,stimuli/images/PICTURE_297.png,BODY,5f132c87a20cca09bd4d8884,28/11/2001,2020-08-27_19h09.53.854,proactive3.1,2020.1.2,Win32,60,5f47c29a48bd2a1e651a6eb7,5f47f6d483588026e1bf7777,5,,,,,,aeroplane,,,,,,0,21,21,51,1,6,2,,,,,,,,,,,,,,,,,,,,,,,,,,,,,,,,,,,,,,,,,,,,,,,,,,,,,,,,,,,,,,,,,,,,,,,,,,,,,,,,,,,,,,,,,,,,,,,,,,,,,,,,,,,,,
,,,,,,,,,,stimuli/images/PICTURE_2.png,JUNGLE,5f132c87a20cca09bd4d8884,28/11/2001,2020-08-27_19h09.53.854,proactive3.1,2020.1.2,Win32,60,5f47c29a48bd2a1e651a6eb7,5f47f6d483588026e1bf7777,5,,,,,,tyre,,,,,,0,22,22,1,1,1,2,,,,,,,,,,,,,,,,,,,,,,,,,,,,,,,,,,,,,,,,,,,,,,,,,,,,,,,,,,,,,,,,,,,,,,,,,,,,,,,,,,,,,,,,,,,,,,,,,,,,,,,,,,,,,
,,,,,,,,,,stimuli/images/PICTURE_314.png,SPEECH,5f132c87a20cca09bd4d8884,28/11/2001,2020-08-27_19h09.53.854,proactive3.1,2020.1.2,Win32,60,5f47c29a48bd2a1e651a6eb7,5f47f6d483588026e1bf7777,5,,,,,,perfume,,,,,,0,23,23,35,1,4,2,,,,,,,,,,,,,,,,,,,,,,,,,,,,,,,,,,,,,,,,,,,,,,,,,,,,,,,,,,,,,,,,,,,,,,,,,,,,,,,,,,,,,,,,,,,,,,,,,,,,,,,,,,,,,
,,,,,,,,,,stimuli/images/PICTURE_57.png,CANDY,5f132c87a20cca09bd4d8884,28/11/2001,2020-08-27_19h09.53.854,proactive3.1,2020.1.2,Win32,60,5f47c29a48bd2a1e651a6eb7,5f47f6d483588026e1bf7777,5,,,,,,stamp,,,,,,0,24,24,52,1,6,2,,,,,,,,,,,,,,,,,,,,,,,,,,,,,,,,,,,,,,,,,,,,,,,,,,,,,,,,,,,,,,,,,,,,,,,,,,,,,,,,,,,,,,,,,,,,,,,,,,,,,,,,,,,,,
,,,,,,,,,,stimuli/images/PICTURE_123.png,SALE,5f132c87a20cca09bd4d8884,28/11/2001,2020-08-27_19h09.53.854,proactive3.1,2020.1.2,Win32,60,5f47c29a48bd2a1e651a6eb7,5f47f6d483588026e1bf7777,5,,,,,,dart,,,,,,0,25,25,8,1,1,2,,,,,,,,,,,,,,,,,,,,,,,,,,,,,,,,,,,,,,,,,,,,,,,,,,,,,,,,,,,,,,,,,,,,,,,,,,,,,,,,,,,,,,,,,,,,,,,,,,,,,,,,,,,,,
,,,,,,,,,,stimuli/images/PICTURE_296.png,CLOCK,5f132c87a20cca09bd4d8884,28/11/2001,2020-08-27_19h09.53.854,proactive3.1,2020.1.2,Win32,60,5f47c29a48bd2a1e651a6eb7,5f47f6d483588026e1bf7777,5,,,,,,bolt,,,,,,0,26,26,18,1,2,2,,,,,,,,,,,,,,,,,,,,,,,,,,,,,,,,,,,,,,,,,,,,,,,,,,,,,,,,,,,,,,,,,,,,,,,,,,,,,,,,,,,,,,,,,,,,,,,,,,,,,,,,,,,,,
,,,,,,,,,,stimuli/images/PICTURE_356.png,CANDY,5f132c87a20cca09bd4d8884,28/11/2001,2020-08-27_19h09.53.854,proactive3.1,2020.1.2,Win32,60,5f47c29a48bd2a1e651a6eb7,5f47f6d483588026e1bf7777,5,,,,,,pawn,,,,,,0,27,27,46,1,5,2,,,,,,,,,,,,,,,,,,,,,,,,,,,,,,,,,,,,,,,,,,,,,,,,,,,,,,,,,,,,,,,,,,,,,,,,,,,,,,,,,,,,,,,,,,,,,,,,,,,,,,,,,,,,,
,,,,,,,,,,stimuli/images/PICTURE_487.png,POLICY,5f132c87a20cca09bd4d8884,28/11/2001,2020-08-27_19h09.53.854,proactive3.1,2020.1.2,Win32,60,5f47c29a48bd2a1e651a6eb7,5f47f6d483588026e1bf7777,5,,,,,,basket,,,,,,0,28,28,34,1,4,2,,,,,,,,,,,,,,,,,,,,,,,,,,,,,,,,,,,,,,,,,,,,,,,,,,,,,,,,,,,,,,,,,,,,,,,,,,,,,,,,,,,,,,,,,,,,,,,,,,,,,,,,,,,,,
,,,,,,,,,,stimuli/images/PICTURE_453.png,FAMILY,5f132c87a20cca09bd4d8884,28/11/2001,2020-08-27_19h09.53.854,proactive3.1,2020.1.2,Win32,60,5f47c29a48bd2a1e651a6eb7,5f47f6d483588026e1bf7777,5,,,,,,scissors,,,,,,0,29,29,48,1,5,2,,,,,,,,,,,,,,,,,,,,,,,,,,,,,,,,,,,,,,,,,,,,,,,,,,,,,,,,,,,,,,,,,,,,,,,,,,,,,,,,,,,,,,,,,,,,,,,,,,,,,,,,,,,,,
,,,,,,,,,,stimuli/images/PICTURE_311.png,FLESH,5f132c87a20cca09bd4d8884,28/11/2001,2020-08-27_19h09.53.854,proactive3.1,2020.1.2,Win32,60,5f47c29a48bd2a1e651a6eb7,5f47f6d483588026e1bf7777,5,,,,,,razor,,,,,,0,30,30,3,1,1,2,,,,,,,,,,,,,,,,,,,,,,,,,,,,,,,,,,,,,,,,,,,,,,,,,,,,,,,,,,,,,,,,,,,,,,,,,,,,,,,,,,,,,,,,,,,,,,,,,,,,,,,,,,,,,
,,,,,,,,,,stimuli/images/PICTURE_403.png,FAMILY,5f132c87a20cca09bd4d8884,28/11/2001,2020-08-27_19h09.53.854,proactive3.1,2020.1.2,Win32,60,5f47c29a48bd2a1e651a6eb7,5f47f6d483588026e1bf7777,5,,,,,,cathedral,,,,,,0,31,31,9,1,1,2,,,,,,,,,,,,,,,,,,,,,,,,,,,,,,,,,,,,,,,,,,,,,,,,,,,,,,,,,,,,,,,,,,,,,,,,,,,,,,,,,,,,,,,,,,,,,,,,,,,,,,,,,,,,,
,,,,,,,,,,stimuli/images/PICTURE_677.png,PHOTO,5f132c87a20cca09bd4d8884,28/11/2001,2020-08-27_19h09.53.854,proactive3.1,2020.1.2,Win32,60,5f47c29a48bd2a1e651a6eb7,5f47f6d483588026e1bf7777,5,,,,,,map,,,,,,0,32,32,14,1,2,2,,,,,,,,,,,,,,,,,,,,,,,,,,,,,,,,,,,,,,,,,,,,,,,,,,,,,,,,,,,,,,,,,,,,,,,,,,,,,,,,,,,,,,,,,,,,,,,,,,,,,,,,,,,,,
,,,,,,,,,,stimuli/images/PICTURE_692.png,DUDE,5f132c87a20cca09bd4d8884,28/11/2001,2020-08-27_19h09.53.854,proactive3.1,2020.1.2,Win32,60,5f47c29a48bd2a1e651a6eb7,5f47f6d483588026e1bf7777,5,,,,,,cherry,,,,,,0,33,33,47,1,5,2,,,,,,,,,,,,,,,,,,,,,,,,,,,,,,,,,,,,,,,,,,,,,,,,,,,,,,,,,,,,,,,,,,,,,,,,,,,,,,,,,,,,,,,,,,,,,,,,,,,,,,,,,,,,,
,,,,,,,,,,stimuli/images/PICTURE_327.png,LEADER,5f132c87a20cca09bd4d8884,28/11/2001,2020-08-27_19h09.53.854,proactive3.1,2020.1.2,Win32,60,5f47c29a48bd2a1e651a6eb7,5f47f6d483588026e1bf7777,5,,,,,,helmet,,,,,,0,34,34,17,1,2,2,,,,,,,,,,,,,,,,,,,,,,,,,,,,,,,,,,,,,,,,,,,,,,,,,,,,,,,,,,,,,,,,,,,,,,,,,,,,,,,,,,,,,,,,,,,,,,,,,,,,,,,,,,,,,
,,,,,,,,,,stimuli/images/PICTURE_655.png,SALE,5f132c87a20cca09bd4d8884,28/11/2001,2020-08-27_19h09.53.854,proactive3.1,2020.1.2,Win32,60,5f47c29a48bd2a1e651a6eb7,5f47f6d483588026e1bf7777,5,,,,,,megaphone,,,,,,0,35,35,57,1,6,2,,,,,,,,,,,,,,,,,,,,,,,,,,,,,,,,,,,,,,,,,,,,,,,,,,,,,,,,,,,,,,,,,,,,,,,,,,,,,,,,,,,,,,,,,,,,,,,,,,,,,,,,,,,,,
,,,,,,,,,,stimuli/images/PICTURE_688.png,CLOCK,5f132c87a20cca09bd4d8884,28/11/2001,2020-08-27_19h09.53.854,proactive3.1,2020.1.2,Win32,60,5f47c29a48bd2a1e651a6eb7,5f47f6d483588026e1bf7777,5,,,,,,runner,,,,,,0,36,36,42,1,5,2,,,,,,,,,,,,,,,,,,,,,,,,,,,,,,,,,,,,,,,,,,,,,,,,,,,,,,,,,,,,,,,,,,,,,,,,,,,,,,,,,,,,,,,,,,,,,,,,,,,,,,,,,,,,,
,,,,,,,,,,stimuli/images/PICTURE_33.png,COPS,5f132c87a20cca09bd4d8884,28/11/2001,2020-08-27_19h09.53.854,proactive3.1,2020.1.2,Win32,60,5f47c29a48bd2a1e651a6eb7,5f47f6d483588026e1bf7777,5,,,,,,frame,,,,,,0,37,37,29,1,3,2,,,,,,,,,,,,,,,,,,,,,,,,,,,,,,,,,,,,,,,,,,,,,,,,,,,,,,,,,,,,,,,,,,,,,,,,,,,,,,,,,,,,,,,,,,,,,,,,,,,,,,,,,,,,,
,,,,,,,,,,stimuli/images/PICTURE_405.png,JUNGLE,5f132c87a20cca09bd4d8884,28/11/2001,2020-08-27_19h09.53.854,proactive3.1,2020.1.2,Win32,60,5f47c29a48bd2a1e651a6eb7,5f47f6d483588026e1bf7777,5,,,,,,anchor,,,,,,0,38,38,13,1,2,2,,,,,,,,,,,,,,,,,,,,,,,,,,,,,,,,,,,,,,,,,,,,,,,,,,,,,,,,,,,,,,,,,,,,,,,,,,,,,,,,,,,,,,,,,,,,,,,,,,,,,,,,,,,,,
,,,,,,,,,,stimuli/images/PICTURE_677.png,FAMILY,5f132c87a20cca09bd4d8884,28/11/2001,2020-08-27_19h09.53.854,proactive3.1,2020.1.2,Win32,60,5f47c29a48bd2a1e651a6eb7,5f47f6d483588026e1bf7777,5,,,,,,map,,,,,,0,39,39,53,1,6,2,,,,,,,,,,,,,,,,,,,,,,,,,,,,,,,,,,,,,,,,,,,,,,,,,,,,,,,,,,,,,,,,,,,,,,,,,,,,,,,,,,,,,,,,,,,,,,,,,,,,,,,,,,,,,
,,,,,,,,,,stimuli/images/PICTURE_708.png,VALLEY,5f132c87a20cca09bd4d8884,28/11/2001,2020-08-27_19h09.53.854,proactive3.1,2020.1.2,Win32,60,5f47c29a48bd2a1e651a6eb7,5f47f6d483588026e1bf7777,5,,,,,,monkey,,,,,,0,40,40,45,1,5,2,,,,,,,,,,,,,,,,,,,,,,,,,,,,,,,,,,,,,,,,,,,,,,,,,,,,,,,,,,,,,,,,,,,,,,,,,,,,,,,,,,,,,,,,,,,,,,,,,,,,,,,,,,,,,
,,,,,,,,,,stimuli/images/PICTURE_215.png,LEADER,5f132c87a20cca09bd4d8884,28/11/2001,2020-08-27_19h09.53.854,proactive3.1,2020.1.2,Win32,60,5f47c29a48bd2a1e651a6eb7,5f47f6d483588026e1bf7777,5,,,,,,boot,,,,,,0,41,41,43,1,5,2,,,,,,,,,,,,,,,,,,,,,,,,,,,,,,,,,,,,,,,,,,,,,,,,,,,,,,,,,,,,,,,,,,,,,,,,,,,,,,,,,,,,,,,,,,,,,,,,,,,,,,,,,,,,,
,,,,,,,,,,stimuli/images/PICTURE_564.png,PLENTY,5f132c87a20cca09bd4d8884,28/11/2001,2020-08-27_19h09.53.854,proactive3.1,2020.1.2,Win32,60,5f47c29a48bd2a1e651a6eb7,5f47f6d483588026e1bf7777,5,,,,,,spoon,,,,,,0,42,42,11,1,2,2,,,,,,,,,,,,,,,,,,,,,,,,,,,,,,,,,,,,,,,,,,,,,,,,,,,,,,,,,,,,,,,,,,,,,,,,,,,,,,,,,,,,,,,,,,,,,,,,,,,,,,,,,,,,,
,,,,,,,,,,stimuli/images/PICTURE_285.png,PRINCE,5f132c87a20cca09bd4d8884,28/11/2001,2020-08-27_19h09.53.854,proactive3.1,2020.1.2,Win32,60,5f47c29a48bd2a1e651a6eb7,5f47f6d483588026e1bf7777,5,,,,,,carrot,,,,,,0,43,43,20,1,3,2,,,,,,,,,,,,,,,,,,,,,,,,,,,,,,,,,,,,,,,,,,,,,,,,,,,,,,,,,,,,,,,,,,,,,,,,,,,,,,,,,,,,,,,,,,,,,,,,,,,,,,,,,,,,,
,,,,,,,,,,stimuli/images/PICTURE_491.png,SERIES,5f132c87a20cca09bd4d8884,28/11/2001,2020-08-27_19h09.53.854,proactive3.1,2020.1.2,Win32,60,5f47c29a48bd2a1e651a6eb7,5f47f6d483588026e1bf7777,5,,,,,,rug,,,,,,0,44,44,39,1,4,2,,,,,,,,,,,,,,,,,,,,,,,,,,,,,,,,,,,,,,,,,,,,,,,,,,,,,,,,,,,,,,,,,,,,,,,,,,,,,,,,,,,,,,,,,,,,,,,,,,,,,,,,,,,,,
,,,,,,,,,,stimuli/images/PICTURE_667.png,GLASS,5f132c87a20cca09bd4d8884,28/11/2001,2020-08-27_19h09.53.854,proactive3.1,2020.1.2,Win32,60,5f47c29a48bd2a1e651a6eb7,5f47f6d483588026e1bf7777,5,,,,,,daisy,,,,,,0,45,45,27,1,3,2,,,,,,,,,,,,,,,,,,,,,,,,,,,,,,,,,,,,,,,,,,,,,,,,,,,,,,,,,,,,,,,,,,,,,,,,,,,,,,,,,,,,,,,,,,,,,,,,,,,,,,,,,,,,,
,,,,,,,,,,stimuli/images/PICTURE_654.png,YEAR,5f132c87a20cca09bd4d8884,28/11/2001,2020-08-27_19h09.53.854,proactive3.1,2020.1.2,Win32,60,5f47c29a48bd2a1e651a6eb7,5f47f6d483588026e1bf7777,5,,,,,,pencil,,,,,,0,46,46,41,1,5,2,,,,,,,,,,,,,,,,,,,,,,,,,,,,,,,,,,,,,,,,,,,,,,,,,,,,,,,,,,,,,,,,,,,,,,,,,,,,,,,,,,,,,,,,,,,,,,,,,,,,,,,,,,,,,
,,,,,,,,,,stimuli/images/PICTURE_470.png,MOMENT,5f132c87a20cca09bd4d8884,28/11/2001,2020-08-27_19h09.53.854,proactive3.1,2020.1.2,Win32,60,5f47c29a48bd2a1e651a6eb7,5f47f6d483588026e1bf7777,5,,,,,,motorbike,,,,,,0,47,47,40,1,5,2,,,,,,,,,,,,,,,,,,,,,,,,,,,,,,,,,,,,,,,,,,,,,,,,,,,,,,,,,,,,,,,,,,,,,,,,,,,,,,,,,,,,,,,,,,,,,,,,,,,,,,,,,,,,,
,,,,,,,,,,stimuli/images/PICTURE_470.png,BEAUTY,5f132c87a20cca09bd4d8884,28/11/2001,2020-08-27_19h09.53.854,proactive3.1,2020.1.2,Win32,60,5f47c29a48bd2a1e651a6eb7,5f47f6d483588026e1bf7777,5,,,,,,motorbike,,,,,,0,48,48,26,1,3,2,,,,,,,,,,,,,,,,,,,,,,,,,,,,,,,,,,,,,,,,,,,,,,,,,,,,,,,,,,,,,,,,,,,,,,,,,,,,,,,,,,,,,,,,,,,,,,,,,,,,,,,,,,,,,
,,,,,,,,,,stimuli/images/PICTURE_177.png,HOUSE,5f132c87a20cca09bd4d8884,28/11/2001,2020-08-27_19h09.53.854,proactive3.1,2020.1.2,Win32,60,5f47c29a48bd2a1e651a6eb7,5f47f6d483588026e1bf7777,5,,,,,,mushroom,,,,,,0,49,49,25,1,3,2,,,,,,,,,,,,,,,,,,,,,,,,,,,,,,,,,,,,,,,,,,,,,,,,,,,,,,,,,,,,,,,,,,,,,,,,,,,,,,,,,,,,,,,,,,,,,,,,,,,,,,,,,,,,,
,,,,,,,,,,stimuli/images/PICTURE_208.png,SPIRIT,5f132c87a20cca09bd4d8884,28/11/2001,2020-08-27_19h09.53.854,proactive3.1,2020.1.2,Win32,60,5f47c29a48bd2a1e651a6eb7,5f47f6d483588026e1bf7777,5,,,,,,microphone,,,,,,0,50,50,28,1,3,2,,,,,,,,,,,,,,,,,,,,,,,,,,,,,,,,,,,,,,,,,,,,,,,,,,,,,,,,,,,,,,,,,,,,,,,,,,,,,,,,,,,,,,,,,,,,,,,,,,,,,,,,,,,,,
,,,,,,,,,,stimuli/images/PICTURE_95.png,NIGHT,5f132c87a20cca09bd4d8884,28/11/2001,2020-08-27_19h09.53.854,proactive3.1,2020.1.2,Win32,60,5f47c29a48bd2a1e651a6eb7,5f47f6d483588026e1bf7777,5,,,,,,suitcase,,,,,,0,51,51,37,1,4,2,,,,,,,,,,,,,,,,,,,,,,,,,,,,,,,,,,,,,,,,,,,,,,,,,,,,,,,,,,,,,,,,,,,,,,,,,,,,,,,,,,,,,,,,,,,,,,,,,,,,,,,,,,,,,
,,,,,,,,,,stimuli/images/PICTURE_504.png,HOUSE,5f132c87a20cca09bd4d8884,28/11/2001,2020-08-27_19h09.53.854,proactive3.1,2020.1.2,Win32,60,5f47c29a48bd2a1e651a6eb7,5f47f6d483588026e1bf7777,5,,,,,,wheel,,,,,,0,52,52,36,1,4,2,,,,,,,,,,,,,,,,,,,,,,,,,,,,,,,,,,,,,,,,,,,,,,,,,,,,,,,,,,,,,,,,,,,,,,,,,,,,,,,,,,,,,,,,,,,,,,,,,,,,,,,,,,,,,
,,,,,,,,,,stimuli/images/PICTURE_18.png,RIVER,5f132c87a20cca09bd4d8884,28/11/2001,2020-08-27_19h09.53.854,proactive3.1,2020.1.2,Win32,60,5f47c29a48bd2a1e651a6eb7,5f47f6d483588026e1bf7777,5,,,,,,planet,,,,,,0,53,53,22,1,3,2,,,,,,,,,,,,,,,,,,,,,,,,,,,,,,,,,,,,,,,,,,,,,,,,,,,,,,,,,,,,,,,,,,,,,,,,,,,,,,,,,,,,,,,,,,,,,,,,,,,,,,,,,,,,,
,,,,,,,,,,stimuli/images/PICTURE_285.png,WRITER,5f132c87a20cca09bd4d8884,28/11/2001,2020-08-27_19h09.53.854,proactive3.1,2020.1.2,Win32,60,5f47c29a48bd2a1e651a6eb7,5f47f6d483588026e1bf7777,5,,,,,,carrot,,,,,,0,54,54,6,1,1,2,,,,,,,,,,,,,,,,,,,,,,,,,,,,,,,,,,,,,,,,,,,,,,,,,,,,,,,,,,,,,,,,,,,,,,,,,,,,,,,,,,,,,,,,,,,,,,,,,,,,,,,,,,,,,
,,,,,,,,,,stimuli/images/PICTURE_93.png,GIRL,5f132c87a20cca09bd4d8884,28/11/2001,2020-08-27_19h09.53.854,proactive3.1,2020.1.2,Win32,60,5f47c29a48bd2a1e651a6eb7,5f47f6d483588026e1bf7777,5,,,,,,skateboard,,,,,,0,55,55,31,1,4,2,,,,,,,,,,,,,,,,,,,,,,,,,,,,,,,,,,,,,,,,,,,,,,,,,,,,,,,,,,,,,,,,,,,,,,,,,,,,,,,,,,,,,,,,,,,,,,,,,,,,,,,,,,,,,
,,,,,,,,,,stimuli/images/PICTURE_2.png,AREA,5f132c87a20cca09bd4d8884,28/11/2001,2020-08-27_19h09.53.854,proactive3.1,2020.1.2,Win32,60,5f47c29a48bd2a1e651a6eb7,5f47f6d483588026e1bf7777,5,,,,,,tyre,,,,,,0,56,56,32,1,4,2,,,,,,,,,,,,,,,,,,,,,,,,,,,,,,,,,,,,,,,,,,,,,,,,,,,,,,,,,,,,,,,,,,,,,,,,,,,,,,,,,,,,,,,,,,,,,,,,,,,,,,,,,,,,,
,,,,,,,,,,stimuli/images/PICTURE_509.png,APPLE,5f132c87a20cca09bd4d8884,28/11/2001,2020-08-27_19h09.53.854,proactive3.1,2020.1.2,Win32,60,5f47c29a48bd2a1e651a6eb7,5f47f6d483588026e1bf7777,5,,,,,,telephone,,,,,,0,57,57,38,1,4,2,,,,,,,,,,,,,,,,,,,,,,,,,,,,,,,,,,,,,,,,,,,,,,,,,,,,,,,,,,,,,,,,,,,,,,,,,,,,,,,,,,,,,,,,,,,,,,,,,,,,,,,,,,,,,
,,,,,,,,,,stimuli/images/PICTURE_405.png,HOUSE,5f132c87a20cca09bd4d8884,28/11/2001,2020-08-27_19h09.53.854,proactive3.1,2020.1.2,Win32,60,5f47c29a48bd2a1e651a6eb7,5f47f6d483588026e1bf7777,5,,,,,,anchor,,,,,,0,58,58,2,1,1,2,,,,,,,,,,,,,,,,,,,,,,,,,,,,,,,,,,,,,,,,,,,,,,,,,,,,,,,,,,,,,,,,,,,,,,,,,,,,,,,,,,,,,,,,,,,,,,,,,,,,,,,,,,,,,
,,?,0.002185,0,,,,,,stimuli/images/PICTURE_2.png,JUNGLE,5f132c87a20cca09bd4d8884,28/11/2001,2020-08-27_19h09.53.854,proactive3.1,2020.1.2,Win32,60,5f47c29a48bd2a1e651a6eb7,5f47f6d483588026e1bf7777,5,,,,,,tyre,,,,,,,,,,,1,2,0,0,0,1,1,,,,,,,,,,,,,,,,,,,,,,,,,,,,,,,,,,,,,,,,,,,,,,,,,,,,,,,,,,,,,,,,,,,,,,,,,,,,,,,,,,,,,,,,,,,,,,,,,,,,,,,,
,,?,0.001825,0,,,,,,stimuli/images/PICTURE_487.png,ROOF,5f132c87a20cca09bd4d8884,28/11/2001,2020-08-27_19h09.53.854,proactive3.1,2020.1.2,Win32,60,5f47c29a48bd2a1e651a6eb7,5f47f6d483588026e1bf7777,5,,,,,,basket,,,,,,,,,,,6,2,0,1,1,50,1,,,,,,,,,,,,,,,,,,,,,,,,,,,,,,,,,,,,,,,,,,,,,,,,,,,,,,,,,,,,,,,,,,,,,,,,,,,,,,,,,,,,,,,,,,,,,,,,,,,,,,,,
,,?,0.0016,0,,,,,,stimuli/images/PICTURE_491.png,SERIES,5f132c87a20cca09bd4d8884,28/11/2001,2020-08-27_19h09.53.854,proactive3.1,2020.1.2,Win32,60,5f47c29a48bd2a1e651a6eb7,5f47f6d483588026e1bf7777,5,,,,,,rug,,,,,,,,,,,4,2,0,2,2,39,1,,,,,,,,,,,,,,,,,,,,,,,,,,,,,,,,,,,,,,,,,,,,,,,,,,,,,,,,,,,,,,,,,,,,,,,,,,,,,,,,,,,,,,,,,,,,,,,,,,,,,,,,
,,?,0.00168,0,,,,,,stimuli/images/PICTURE_255.png,PENNY,5f132c87a20cca09bd4d8884,28/11/2001,2020-08-27_19h09.53.854,proactive3.1,2020.1.2,Win32,60,5f47c29a48bd2a1e651a6eb7,5f47f6d483588026e1bf7777,5,,,,,,shovel,,,,,,,,,,,2,2,0,3,3,19,1,,,,,,,,,,,,,,,,,,,,,,,,,,,,,,,,,,,,,,,,,,,,,,,,,,,,,,,,,,,,,,,,,,,,,,,,,,,,,,,,,,,,,,,,,,,,,,,,,,,,,,,,
,,?,0.00171,0,,,,,,stimuli/images/PICTURE_509.png,APPLE,5f132c87a20cca09bd4d8884,28/11/2001,2020-08-27_19h09.53.854,proactive3.1,2020.1.2,Win32,60,5f47c29a48bd2a1e651a6eb7,5f47f6d483588026e1bf7777,5,,,,,,telephone,,,,,,,,,,,4,2,0,4,4,38,1,,,,,,,,,,,,,,,,,,,,,,,,,,,,,,,,,,,,,,,,,,,,,,,,,,,,,,,,,,,,,,,,,,,,,,,,,,,,,,,,,,,,,,,,,,,,,,,,,,,,,,,,
,,?,0.00161,0,,,,,,stimuli/images/PICTURE_57.png,CANDY,5f132c87a20cca09bd4d8884,28/11/2001,2020-08-27_19h09.53.854,proactive3.1,2020.1.2,Win32,60,5f47c29a48bd2a1e651a6eb7,5f47f6d483588026e1bf7777,5,,,,,,stamp,,,,,,,,,,,6,2,0,5,5,52,1,,,,,,,,,,,,,,,,,,,,,,,,,,,,,,,,,,,,,,,,,,,,,,,,,,,,,,,,,,,,,,,,,,,,,,,,,,,,,,,,,,,,,,,,,,,,,,,,,,,,,,,,
,,?,0.001825,0,,,,,,stimuli/images/PICTURE_655.png,SALE,5f132c87a20cca09bd4d8884,28/11/2001,2020-08-27_19h09.53.854,proactive3.1,2020.1.2,Win32,60,5f47c29a48bd2a1e651a6eb7,5f47f6d483588026e1bf7777,5,,,,,,megaphone,,,,,,,,,,,6,2,0,6,6,57,1,,,,,,,,,,,,,,,,,,,,,,,,,,,,,,,,,,,,,,,,,,,,,,,,,,,,,,,,,,,,,,,,,,,,,,,,,,,,,,,,,,,,,,,,,,,,,,,,,,,,,,,,
,,?,0.00164,0,,,,,,stimuli/images/PICTURE_487.png,POLICY,5f132c87a20cca09bd4d8884,28/11/2001,2020-08-27_19h09.53.854,proactive3.1,2020.1.2,Win32,60,5f47c29a48bd2a1e651a6eb7,5f47f6d483588026e1bf7777,5,,,,,,basket,,,,,,,,,,,4,2,0,7,7,34,1,,,,,,,,,,,,,,,,,,,,,,,,,,,,,,,,,,,,,,,,,,,,,,,,,,,,,,,,,,,,,,,,,,,,,,,,,,,,,,,,,,,,,,,,,,,,,,,,,,,,,,,,
,,?,0.001625,0,,,,,,stimuli/images/PICTURE_327.png,LEADER,5f132c87a20cca09bd4d8884,28/11/2001,2020-08-27_19h09.53.854,proactive3.1,2020.1.2,Win32,60,5f47c29a48bd2a1e651a6eb7,5f47f6d483588026e1bf7777,5,,,,,,helmet,,,,,,,,,,,2,2,0,8,8,17,1,,,,,,,,,,,,,,,,,,,,,,,,,,,,,,,,,,,,,,,,,,,,,,,,,,,,,,,,,,,,,,,,,,,,,,,,,,,,,,,,,,,,,,,,,,,,,,,,,,,,,,,,
,,VALLEY,15.015265,1,,,,,,stimuli/images/PICTURE_708.png,VALLEY,5f132c87a20cca09bd4d8884,28/11/2001,2020-08-27_19h09.53.854,proactive3.1,2020.1.2,Win32,60,5f47c29a48bd2a1e651a6eb7,5f47f6d483588026e1bf7777,5,,,,,,monkey,,,,,,,,,,,5,2,0,9,9,45,1,,,,,,,,,,,,,,,,,,,,,,,,,,,,,,,,,,,,,,,,,,,,,,,,,,,,,,,,,,,,,,,,,,,,,,,,,,,,,,,,,,,,,,,,,,,,,,,,,,,,,,,,
,,?,0.00157,0,,,,,,stimuli/images/PICTURE_285.png,PRINCE,5f132c87a20cca09bd4d8884,28/11/2001,2020-08-27_19h09.53.854,proactive3.1,2020.1.2,Win32,60,5f47c29a48bd2a1e651a6eb7,5f47f6d483588026e1bf7777,5,,,,,,carrot,,,,,,,,,,,3,2,0,10,10,20,1,,,,,,,,,,,,,,,,,,,,,,,,,,,,,,,,,,,,,,,,,,,,,,,,,,,,,,,,,,,,,,,,,,,,,,,,,,,,,,,,,,,,,,,,,,,,,,,,,,,,,,,,
,,?,0.00143,0,,,,,,stimuli/images/PICTURE_677.png,PHOTO,5f132c87a20cca09bd4d8884,28/11/2001,2020-08-27_19h09.53.854,proactive3.1,2020.1.2,Win32,60,5f47c29a48bd2a1e651a6eb7,5f47f6d483588026e1bf7777,5,,,,,,map,,,,,,,,,,,2,2,0,11,11,14,1,,,,,,,,,,,,,,,,,,,,,,,,,,,,,,,,,,,,,,,,,,,,,,,,,,,,,,,,,,,,,,,,,,,,,,,,,,,,,,,,,,,,,,,,,,,,,,,,,,,,,,,,
,,?,0.001325,0,,,,,,stimuli/images/PICTURE_297.png,BODY,5f132c87a20cca09bd4d8884,28/11/2001,2020-08-27_19h09.53.854,proactive3.1,2020.1.2,Win32,60,5f47c29a48bd2a1e651a6eb7,5f47f6d483588026e1bf7777,5,,,,,,aeroplane,,,,,,,,,,,6,2,0,12,12,51,1,,,,,,,,,,,,,,,,,,,,,,,,,,,,,,,,,,,,,,,,,,,,,,,,,,,,,,,,,,,,,,,,,,,,,,,,,,,,,,,,,,,,,,,,,,,,,,,,,,,,,,,,
,,?,0.001335,0,,,,,,stimuli/images/PICTURE_509.png,SHOTS,5f132c87a20cca09bd4d8884,28/11/2001,2020-08-27_19h09.53.854,proactive3.1,2020.1.2,Win32,60,5f47c29a48bd2a1e651a6eb7,5f47f6d483588026e1bf7777,5,,,,,,telephone,,,,,,,,,,,1,2,0,13,13,7,1,,,,,,,,,,,,,,,,,,,,,,,,,,,,,,,,,,,,,,,,,,,,,,,,,,,,,,,,,,,,,,,,,,,,,,,,,,,,,,,,,,,,,,,,,,,,,,,,,,,,,,,,
,,?,0.00134,0,,,,,,stimuli/images/PICTURE_405.png,JUNGLE,5f132c87a20cca09bd4d8884,28/11/2001,2020-08-27_19h09.53.854,proactive3.1,2020.1.2,Win32,60,5f47c29a48bd2a1e651a6eb7,5f47f6d483588026e1bf7777,5,,,,,,anchor,,,,,,,,,,,2,2,0,14,14,13,1,,,,,,,,,,,,,,,,,,,,,,,,,,,,,,,,,,,,,,,,,,,,,,,,,,,,,,,,,,,,,,,,,,,,,,,,,,,,,,,,,,,,,,,,,,,,,,,,,,,,,,,,
,,?,0.00134,0,,,,,,stimuli/images/PICTURE_68.png,KIND,5f132c87a20cca09bd4d8884,28/11/2001,2020-08-27_19h09.53.854,proactive3.1,2020.1.2,Win32,60,5f47c29a48bd2a1e651a6eb7,5f47f6d483588026e1bf7777,5,,,,,,candle,,,,,,,,,,,3,2,0,15,15,23,1,,,,,,,,,,,,,,,,,,,,,,,,,,,,,,,,,,,,,,,,,,,,,,,,,,,,,,,,,,,,,,,,,,,,,,,,,,,,,,,,,,,,,,,,,,,,,,,,,,,,,,,,
,,?,0.001255,0,,,,,,stimuli/images/PICTURE_18.png,RIVER,5f132c87a20cca09bd4d8884,28/11/2001,2020-08-27_19h09.53.854,proactive3.1,2020.1.2,Win32,60,5f47c29a48bd2a1e651a6eb7,5f47f6d483588026e1bf7777,5,,,,,,planet,,,,,,,,,,,3,2,0,16,16,22,1,,,,,,,,,,,,,,,,,,,,,,,,,,,,,,,,,,,,,,,,,,,,,,,,,,,,,,,,,,,,,,,,,,,,,,,,,,,,,,,,,,,,,,,,,,,,,,,,,,,,,,,,
,,?,0.001945,0,,,,,,stimuli/images/PICTURE_123.png,SALE,5f132c87a20cca09bd4d8884,28/11/2001,2020-08-27_19h09.53.854,proactive3.1,2020.1.2,Win32,60,5f47c29a48bd2a1e651a6eb7,5f47f6d483588026e1bf7777,5,,,,,,dart,,,,,,,,,,,1,2,0,17,17,8,1,,,,,,,,,,,,,,,,,,,,,,,,,,,,,,,,,,,,,,,,,,,,,,,,,,,,,,,,,,,,,,,,,,,,,,,,,,,,,,,,,,,,,,,,,,,,,,,,,,,,,,,,
,,?,0.00217,0,,,,,,stimuli/images/PICTURE_57.png,NATION,5f132c87a20cca09bd4d8884,28/11/2001,2020-08-27_19h09.53.854,proactive3.1,2020.1.2,Win32,60,5f47c29a48bd2a1e651a6eb7,5f47f6d483588026e1bf7777,5,,,,,,stamp,,,,,,,,,,,3,2,0,18,18,21,1,,,,,,,,,,,,,,,,,,,,,,,,,,,,,,,,,,,,,,,,,,,,,,,,,,,,,,,,,,,,,,,,,,,,,,,,,,,,,,,,,,,,,,,,,,,,,,,,,,,,,,,,
,,?,0.0014,0,,,,,,stimuli/images/PICTURE_160.png,HOTEL,5f132c87a20cca09bd4d8884,28/11/2001,2020-08-27_19h09.53.854,proactive3.1,2020.1.2,Win32,60,5f47c29a48bd2a1e651a6eb7,5f47f6d483588026e1bf7777,5,,,,,,wheelbarrow,,,,,,,,,,,2,2,0,19,19,16,1,,,,,,,,,,,,,,,,,,,,,,,,,,,,,,,,,,,,,,,,,,,,,,,,,,,,,,,,,,,,,,,,,,,,,,,,,,,,,,,,,,,,,,,,,,,,,,,,,,,,,,,,
,,?,15.009065,0,,,,,,stimuli/images/PICTURE_215.png,LEADER,5f132c87a20cca09bd4d8884,28/11/2001,2020-08-27_19h09.53.854,proactive3.1,2020.1.2,Win32,60,5f47c29a48bd2a1e651a6eb7,5f47f6d483588026e1bf7777,5,,,,,,boot,,,,,,,,,,,5,2,0,20,20,43,1,,,,,,,,,,,,,,,,,,,,,,,,,,,,,,,,,,,,,,,,,,,,,,,,,,,,,,,,,,,,,,,,,,,,,,,,,,,,,,,,,,,,,,,,,,,,,,,,,,,,,,,,
,,?,0.00147,0,,,,,,stimuli/images/PICTURE_311.png,FLESH,5f132c87a20cca09bd4d8884,28/11/2001,2020-08-27_19h09.53.854,proactive3.1,2020.1.2,Win32,60,5f47c29a48bd2a1e651a6eb7,5f47f6d483588026e1bf7777,5,,,,,,razor,,,,,,,,,,,1,2,0,21,21,3,1,,,,,,,,,,,,,,,,,,,,,,,,,,,,,,,,,,,,,,,,,,,,,,,,,,,,,,,,,,,,,,,,,,,,,,,,,,,,,,,,,,,,,,,,,,,,,,,,,,,,,,,,
,,?,0.00119,0,,,,,,stimuli/images/PICTURE_208.png,SPIRIT,5f132c87a20cca09bd4d8884,28/11/2001,2020-08-27_19h09.53.854,proactive3.1,2020.1.2,Win32,60,5f47c29a48bd2a1e651a6eb7,5f47f6d483588026e1bf7777,5,,,,,,microphone,,,,,,,,,,,3,2,0,22,22,28,1,,,,,,,,,,,,,,,,,,,,,,,,,,,,,,,,,,,,,,,,,,,,,,,,,,,,,,,,,,,,,,,,,,,,,,,,,,,,,,,,,,,,,,,,,,,,,,,,,,,,,,,,
,,?,0.001345,0,,,,,,stimuli/images/PICTURE_2.png,AREA,5f132c87a20cca09bd4d8884,28/11/2001,2020-08-27_19h09.53.854,proactive3.1,2020.1.2,Win32,60,5f47c29a48bd2a1e651a6eb7,5f47f6d483588026e1bf7777,5,,,,,,tyre,,,,,,,,,,,4,2,0,23,23,32,1,,,,,,,,,,,,,,,,,,,,,,,,,,,,,,,,,,,,,,,,,,,,,,,,,,,,,,,,,,,,,,,,,,,,,,,,,,,,,,,,,,,,,,,,,,,,,,,,,,,,,,,,
,,?,0.001155,0,,,,,,stimuli/images/PICTURE_95.png,NIGHT,5f132c87a20cca09bd4d8884,28/11/2001,2020-08-27_19h09.53.854,proactive3.1,2020.1.2,Win32,60,5f47c29a48bd2a1e651a6eb7,5f47f6d483588026e1bf7777,5,,,,,,suitcase,,,,,,,,,,,4,2,0,24,24,37,1,,,,,,,,,,,,,,,,,,,,,,,,,,,,,,,,,,,,,,,,,,,,,,,,,,,,,,,,,,,,,,,,,,,,,,,,,,,,,,,,,,,,,,,,,,,,,,,,,,,,,,,,
,,?,0.001285,0,,,,,,stimuli/images/PICTURE_348.png,TOILET,5f132c87a20cca09bd4d8884,28/11/2001,2020-08-27_19h09.53.854,proactive3.1,2020.1.2,Win32,60,5f47c29a48bd2a1e651a6eb7,5f47f6d483588026e1bf7777,5,,,,,,pepper,,,,,,,,,,,1,2,0,25,25,4,1,,,,,,,,,,,,,,,,,,,,,,,,,,,,,,,,,,,,,,,,,,,,,,,,,,,,,,,,,,,,,,,,,,,,,,,,,,,,,,,,,,,,,,,,,,,,,,,,,,,,,,,,
,,?,0.001235,0,,,,,,stimuli/images/PICTURE_564.png,PLENTY,5f132c87a20cca09bd4d8884,28/11/2001,2020-08-27_19h09.53.854,proactive3.1,2020.1.2,Win32,60,5f47c29a48bd2a1e651a6eb7,5f47f6d483588026e1bf7777,5,,,,,,spoon,,,,,,,,,,,2,2,0,26,26,11,1,,,,,,,,,,,,,,,,,,,,,,,,,,,,,,,,,,,,,,,,,,,,,,,,,,,,,,,,,,,,,,,,,,,,,,,,,,,,,,,,,,,,,,,,,,,,,,,,,,,,,,,,
,,,15.01538,0,,,,,,stimuli/images/PICTURE_654.png,YEAR,5f132c87a20cca09bd4d8884,28/11/2001,2020-08-27_19h09.53.854,proactive3.1,2020.1.2,Win32,60,5f47c29a48bd2a1e651a6eb7,5f47f6d483588026e1bf7777,5,,,,,,pencil,,,,,,,,,,,5,2,0,27,27,41,1,,,,,,,,,,,,,,,,,,,,,,,,,,,,,,,,,,,,,,,,,,,,,,,,,,,,,,,,,,,,,,,,,,,,,,,,,,,,,,,,,,,,,,,,,,,,,,,,,,,,,,,,
,,?,0.00167,0,,,,,,stimuli/images/PICTURE_677.png,FAMILY,5f132c87a20cca09bd4d8884,28/11/2001,2020-08-27_19h09.53.854,proactive3.1,2020.1.2,Win32,60,5f47c29a48bd2a1e651a6eb7,5f47f6d483588026e1bf7777,5,,,,,,map,,,,,,,,,,,6,2,0,28,28,53,1,,,,,,,,,,,,,,,,,,,,,,,,,,,,,,,,,,,,,,,,,,,,,,,,,,,,,,,,,,,,,,,,,,,,,,,,,,,,,,,,,,,,,,,,,,,,,,,,,,,,,,,,
,,CELL,11.932905,0,,,,,,stimuli/images/PICTURE_750.png,POLICY,5f132c87a20cca09bd4d8884,28/11/2001,2020-08-27_19h09.53.854,proactive3.1,2020.1.2,Win32,60,5f47c29a48bd2a1e651a6eb7,5f47f6d483588026e1bf7777,5,,,,,,kettle,,,,,,,,,,,5,2,0,29,29,44,1,,,,,,,,,,,,,,,,,,,,,,,,,,,,,,,,,,,,,,,,,,,,,,,,,,,,,,,,,,,,,,,,,,,,,,,,,,,,,,,,,,,,,,,,,,,,,,,,,,,,,,,,
,,?,13.002395,0,,,,,,stimuli/images/PICTURE_509.png,MILLER,5f132c87a20cca09bd4d8884,28/11/2001,2020-08-27_19h09.53.854,proactive3.1,2020.1.2,Win32,60,5f47c29a48bd2a1e651a6eb7,5f47f6d483588026e1bf7777,5,,,,,,telephone,,,,,,,,,,,5,2,0,30,30,49,1,,,,,,,,,,,,,,,,,,,,,,,,,,,,,,,,,,,,,,,,,,,,,,,,,,,,,,,,,,,,,,,,,,,,,,,,,,,,,,,,,,,,,,,,,,,,,,,,,,,,,,,,
,,?,0.00159,0,,,,,,stimuli/images/PICTURE_405.png,HOUSE,5f132c87a20cca09bd4d8884,28/11/2001,2020-08-27_19h09.53.854,proactive3.1,2020.1.2,Win32,60,5f47c29a48bd2a1e651a6eb7,5f47f6d483588026e1bf7777,5,,,,,,anchor,,,,,,,,,,,1,2,0,31,31,2,1,,,,,,,,,,,,,,,,,,,,,,,,,,,,,,,,,,,,,,,,,,,,,,,,,,,,,,,,,,,,,,,,,,,,,,,,,,,,,,,,,,,,,,,,,,,,,,,,,,,,,,,,
,,?,0.00124,0,,,,,,stimuli/images/PICTURE_504.png,HOUSE,5f132c87a20cca09bd4d8884,28/11/2001,2020-08-27_19h09.53.854,proactive3.1,2020.1.2,Win32,60,5f47c29a48bd2a1e651a6eb7,5f47f6d483588026e1bf7777,5,,,,,,wheel,,,,,,,,,,,4,2,0,32,32,36,1,,,,,,,,,,,,,,,,,,,,,,,,,,,,,,,,,,,,,,,,,,,,,,,,,,,,,,,,,,,,,,,,,,,,,,,,,,,,,,,,,,,,,,,,,,,,,,,,,,,,,,,,
,,DUDE,12.04822,1,,,,,,stimuli/images/PICTURE_692.png,DUDE,5f132c87a20cca09bd4d8884,28/11/2001,2020-08-27_19h09.53.854,proactive3.1,2020.1.2,Win32,60,5f47c29a48bd2a1e651a6eb7,5f47f6d483588026e1bf7777,5,,,,,,cherry,,,,,,,,,,,5,2,0,33,33,47,1,,,,,,,,,,,,,,,,,,,,,,,,,,,,,,,,,,,,,,,,,,,,,,,,,,,,,,,,,,,,,,,,,,,,,,,,,,,,,,,,,,,,,,,,,,,,,,,,,,,,,,,,
,,?,0.001525,0,,,,,,stimuli/images/PICTURE_405.png,JUNGLE,5f132c87a20cca09bd4d8884,28/11/2001,2020-08-27_19h09.53.854,proactive3.1,2020.1.2,Win32,60,5f47c29a48bd2a1e651a6eb7,5f47f6d483588026e1bf7777,5,,,,,,anchor,,,,,,,,,,,6,2,0,34,34,58,1,,,,,,,,,,,,,,,,,,,,,,,,,,,,,,,,,,,,,,,,,,,,,,,,,,,,,,,,,,,,,,,,,,,,,,,,,,,,,,,,,,,,,,,,,,,,,,,,,,,,,,,,
,,?,0.00139,0,,,,,,stimuli/images/PICTURE_348.png,DUDE,5f132c87a20cca09bd4d8884,28/11/2001,2020-08-27_19h09.53.854,proactive3.1,2020.1.2,Win32,60,5f47c29a48bd2a1e651a6eb7,5f47f6d483588026e1bf7777,5,,,,,,pepper,,,,,,,,,,,6,2,0,35,35,59,1,,,,,,,,,,,,,,,,,,,,,,,,,,,,,,,,,,,,,,,,,,,,,,,,,,,,,,,,,,,,,,,,,,,,,,,,,,,,,,,,,,,,,,,,,,,,,,,,,,,,,,,,
,,?,0.00125,0,,,,,,stimuli/images/PICTURE_403.png,FAMILY,5f132c87a20cca09bd4d8884,28/11/2001,2020-08-27_19h09.53.854,proactive3.1,2020.1.2,Win32,60,5f47c29a48bd2a1e651a6eb7,5f47f6d483588026e1bf7777,5,,,,,,cathedral,,,,,,,,,,,1,2,0,36,36,9,1,,,,,,,,,,,,,,,,,,,,,,,,,,,,,,,,,,,,,,,,,,,,,,,,,,,,,,,,,,,,,,,,,,,,,,,,,,,,,,,,,,,,,,,,,,,,,,,,,,,,,,,,
,,?,0.00125,0,,,,,,stimuli/images/PICTURE_509.png,BATH,5f132c87a20cca09bd4d8884,28/11/2001,2020-08-27_19h09.53.854,proactive3.1,2020.1.2,Win32,60,5f47c29a48bd2a1e651a6eb7,5f47f6d483588026e1bf7777,5,,,,,,telephone,,,,,,,,,,,2,2,0,37,37,15,1,,,,,,,,,,,,,,,,,,,,,,,,,,,,,,,,,,,,,,,,,,,,,,,,,,,,,,,,,,,,,,,,,,,,,,,,,,,,,,,,,,,,,,,,,,,,,,,,,,,,,,,,
,,?,0.00144,0,,,,,,stimuli/images/PICTURE_177.png,HOUSE,5f132c87a20cca09bd4d8884,28/11/2001,2020-08-27_19h09.53.854,proactive3.1,2020.1.2,Win32,60,5f47c29a48bd2a1e651a6eb7,5f47f6d483588026e1bf7777,5,,,,,,mushroom,,,,,,,,,,,3,2,0,38,38,25,1,,,,,,,,,,,,,,,,,,,,,,,,,,,,,,,,,,,,,,,,,,,,,,,,,,,,,,,,,,,,,,,,,,,,,,,,,,,,,,,,,,,,,,,,,,,,,,,,,,,,,,,,
,,?,0.0014,0,,,,,,stimuli/images/PICTURE_147.png,LEADER,5f132c87a20cca09bd4d8884,28/11/2001,2020-08-27_19h09.53.854,proactive3.1,2020.1.2,Win32,60,5f47c29a48bd2a1e651a6eb7,5f47f6d483588026e1bf7777,5,,,,,,hanger,,,,,,,,,,,4,2,0,39,39,33,1,,,,,,,,,,,,,,,,,,,,,,,,,,,,,,,,,,,,,,,,,,,,,,,,,,,,,,,,,,,,,,,,,,,,,,,,,,,,,,,,,,,,,,,,,,,,,,,,,,,,,,,,
,,?,0.00125,0,,,,,,stimuli/images/PICTURE_296.png,CLOCK,5f132c87a20cca09bd4d8884,28/11/2001,2020-08-27_19h09.53.854,proactive3.1,2020.1.2,Win32,60,5f47c29a48bd2a1e651a6eb7,5f47f6d483588026e1bf7777,5,,,,,,bolt,,,,,,,,,,,2,2,0,40,40,18,1,,,,,,,,,,,,,,,,,,,,,,,,,,,,,,,,,,,,,,,,,,,,,,,,,,,,,,,,,,,,,,,,,,,,,,,,,,,,,,,,,,,,,,,,,,,,,,,,,,,,,,,,
,,?,0.0013,0,,,,,,stimuli/images/PICTURE_470.png,BEAUTY,5f132c87a20cca09bd4d8884,28/11/2001,2020-08-27_19h09.53.854,proactive3.1,2020.1.2,Win32,60,5f47c29a48bd2a1e651a6eb7,5f47f6d483588026e1bf7777,5,,,,,,motorbike,,,,,,,,,,,3,2,0,41,41,26,1,,,,,,,,,,,,,,,,,,,,,,,,,,,,,,,,,,,,,,,,,,,,,,,,,,,,,,,,,,,,,,,,,,,,,,,,,,,,,,,,,,,,,,,,,,,,,,,,,,,,,,,,
,,CRAZE,15.009075,0,,,,,,stimuli/images/PICTURE_356.png,CANDY,5f132c87a20cca09bd4d8884,28/11/2001,2020-08-27_19h09.53.854,proactive3.1,2020.1.2,Win32,60,5f47c29a48bd2a1e651a6eb7,5f47f6d483588026e1bf7777,5,,,,,,pawn,,,,,,,,,,,5,2,0,42,42,46,1,,,,,,,,,,,,,,,,,,,,,,,,,,,,,,,,,,,,,,,,,,,,,,,,,,,,,,,,,,,,,,,,,,,,,,,,,,,,,,,,,,,,,,,,,,,,,,,,,,,,,,,,
,,?,0.001475,0,,,,,,stimuli/images/PICTURE_2.png,YARD,5f132c87a20cca09bd4d8884,28/11/2001,2020-08-27_19h09.53.854,proactive3.1,2020.1.2,Win32,60,5f47c29a48bd2a1e651a6eb7,5f47f6d483588026e1bf7777,5,,,,,,tyre,,,,,,,,,,,6,2,0,43,43,55,1,,,,,,,,,,,,,,,,,,,,,,,,,,,,,,,,,,,,,,,,,,,,,,,,,,,,,,,,,,,,,,,,,,,,,,,,,,,,,,,,,,,,,,,,,,,,,,,,,,,,,,,,
,,?,0.001255,0,,,,,,stimuli/images/PICTURE_667.png,GLASS,5f132c87a20cca09bd4d8884,28/11/2001,2020-08-27_19h09.53.854,proactive3.1,2020.1.2,Win32,60,5f47c29a48bd2a1e651a6eb7,5f47f6d483588026e1bf7777,5,,,,,,daisy,,,,,,,,,,,3,2,0,44,44,27,1,,,,,,,,,,,,,,,,,,,,,,,,,,,,,,,,,,,,,,,,,,,,,,,,,,,,,,,,,,,,,,,,,,,,,,,,,,,,,,,,,,,,,,,,,,,,,,,,,,,,,,,,
,,?,4.469785,0,,,,,,stimuli/images/PICTURE_688.png,CLOCK,5f132c87a20cca09bd4d8884,28/11/2001,2020-08-27_19h09.53.854,proactive3.1,2020.1.2,Win32,60,5f47c29a48bd2a1e651a6eb7,5f47f6d483588026e1bf7777,5,,,,,,runner,,,,,,,,,,,5,2,0,45,45,42,1,,,,,,,,,,,,,,,,,,,,,,,,,,,,,,,,,,,,,,,,,,,,,,,,,,,,,,,,,,,,,,,,,,,,,,,,,,,,,,,,,,,,,,,,,,,,,,,,,,,,,,,,
,,?,0.001595,0,,,,,,stimuli/images/PICTURE_32.png,LETTER,5f132c87a20cca09bd4d8884,28/11/2001,2020-08-27_19h09.53.854,proactive3.1,2020.1.2,Win32,60,5f47c29a48bd2a1e651a6eb7,5f47f6d483588026e1bf7777,5,,,,,,crown,,,,,,,,,,,6,2,0,46,46,56,1,,,,,,,,,,,,,,,,,,,,,,,,,,,,,,,,,,,,,,,,,,,,,,,,,,,,,,,,,,,,,,,,,,,,,,,,,,,,,,,,,,,,,,,,,,,,,,,,,,,,,,,,
,,?,0.001265,0,,,,,,stimuli/images/PICTURE_215.png,FOOD,5f132c87a20cca09bd4d8884,28/11/2001,2020-08-27_19h09.53.854,proactive3.1,2020.1.2,Win32,60,5f47c29a48bd2a1e651a6eb7,5f47f6d483588026e1bf7777,5,,,,,,boot,,,,,,,,,,,1,2,0,47,47,5,1,,,,,,,,,,,,,,,,,,,,,,,,,,,,,,,,,,,,,,,,,,,,,,,,,,,,,,,,,,,,,,,,,,,,,,,,,,,,,,,,,,,,,,,,,,,,,,,,,,,,,,,,
,,?,0.001265,0,,,,,,stimuli/images/PICTURE_141.png,CLIENT,5f132c87a20cca09bd4d8884,28/11/2001,2020-08-27_19h09.53.854,proactive3.1,2020.1.2,Win32,60,5f47c29a48bd2a1e651a6eb7,5f47f6d483588026e1bf7777,5,,,,,,sunflower,,,,,,,,,,,4,2,0,48,48,30,1,,,,,,,,,,,,,,,,,,,,,,,,,,,,,,,,,,,,,,,,,,,,,,,,,,,,,,,,,,,,,,,,,,,,,,,,,,,,,,,,,,,,,,,,,,,,,,,,,,,,,,,,
,,?,0.001455,0,,,,,,stimuli/images/PICTURE_452.png,COPS,5f132c87a20cca09bd4d8884,28/11/2001,2020-08-27_19h09.53.854,proactive3.1,2020.1.2,Win32,60,5f47c29a48bd2a1e651a6eb7,5f47f6d483588026e1bf7777,5,,,,,,watch,,,,,,,,,,,1,2,0,49,49,0,1,,,,,,,,,,,,,,,,,,,,,,,,,,,,,,,,,,,,,,,,,,,,,,,,,,,,,,,,,,,,,,,,,,,,,,,,,,,,,,,,,,,,,,,,,,,,,,,,,,,,,,,,
,,?,0.001335,0,,,,,,stimuli/images/PICTURE_33.png,COPS,5f132c87a20cca09bd4d8884,28/11/2001,2020-08-27_19h09.53.854,proactive3.1,2020.1.2,Win32,60,5f47c29a48bd2a1e651a6eb7,5f47f6d483588026e1bf7777,5,,,,,,frame,,,,,,,,,,,3,2,0,50,50,29,1,,,,,,,,,,,,,,,,,,,,,,,,,,,,,,,,,,,,,,,,,,,,,,,,,,,,,,,,,,,,,,,,,,,,,,,,,,,,,,,,,,,,,,,,,,,,,,,,,,,,,,,,
,,?,0.001295,0,,,,,,stimuli/images/PICTURE_314.png,SPEECH,5f132c87a20cca09bd4d8884,28/11/2001,2020-08-27_19h09.53.854,proactive3.1,2020.1.2,Win32,60,5f47c29a48bd2a1e651a6eb7,5f47f6d483588026e1bf7777,5,,,,,,perfume,,,,,,,,,,,4,2,0,51,51,35,1,,,,,,,,,,,,,,,,,,,,,,,,,,,,,,,,,,,,,,,,,,,,,,,,,,,,,,,,,,,,,,,,,,,,,,,,,,,,,,,,,,,,,,,,,,,,,,,,,,,,,,,,
,,?,1.40604,0,,,,,,stimuli/images/PICTURE_470.png,MOMENT,5f132c87a20cca09bd4d8884,28/11/2001,2020-08-27_19h09.53.854,proactive3.1,2020.1.2,Win32,60,5f47c29a48bd2a1e651a6eb7,5f47f6d483588026e1bf7777,5,,,,,,motorbike,,,,,,,,,,,5,2,0,52,52,40,1,,,,,,,,,,,,,,,,,,,,,,,,,,,,,,,,,,,,,,,,,,,,,,,,,,,,,,,,,,,,,,,,,,,,,,,,,,,,,,,,,,,,,,,,,,,,,,,,,,,,,,,,
,,?,0.001535,0,,,,,,stimuli/images/PICTURE_215.png,BOYS,5f132c87a20cca09bd4d8884,28/11/2001,2020-08-27_19h09.53.854,proactive3.1,2020.1.2,Win32,60,5f47c29a48bd2a1e651a6eb7,5f47f6d483588026e1bf7777,5,,,,,,boot,,,,,,,,,,,3,2,0,53,53,24,1,,,,,,,,,,,,,,,,,,,,,,,,,,,,,,,,,,,,,,,,,,,,,,,,,,,,,,,,,,,,,,,,,,,,,,,,,,,,,,,,,,,,,,,,,,,,,,,,,,,,,,,,
,,?,0.126715,0,,,,,,stimuli/images/PICTURE_453.png,FAMILY,5f132c87a20cca09bd4d8884,28/11/2001,2020-08-27_19h09.53.854,proactive3.1,2020.1.2,Win32,60,5f47c29a48bd2a1e651a6eb7,5f47f6d483588026e1bf7777,5,,,,,,scissors,,,,,,,,,,,5,2,0,54,54,48,1,,,,,,,,,,,,,,,,,,,,,,,,,,,,,,,,,,,,,,,,,,,,,,,,,,,,,,,,,,,,,,,,,,,,,,,,,,,,,,,,,,,,,,,,,,,,,,,,,,,,,,,,
,,?,0.001625,0,,,,,,stimuli/images/PICTURE_285.png,WRITER,5f132c87a20cca09bd4d8884,28/11/2001,2020-08-27_19h09.53.854,proactive3.1,2020.1.2,Win32,60,5f47c29a48bd2a1e651a6eb7,5f47f6d483588026e1bf7777,5,,,,,,carrot,,,,,,,,,,,1,2,0,55,55,6,1,,,,,,,,,,,,,,,,,,,,,,,,,,,,,,,,,,,,,,,,,,,,,,,,,,,,,,,,,,,,,,,,,,,,,,,,,,,,,,,,,,,,,,,,,,,,,,,,,,,,,,,,
,,?,0.00137,0,,,,,,stimuli/images/PICTURE_57.png,CASINO,5f132c87a20cca09bd4d8884,28/11/2001,2020-08-27_19h09.53.854,proactive3.1,2020.1.2,Win32,60,5f47c29a48bd2a1e651a6eb7,5f47f6d483588026e1bf7777,5,,,,,,stamp,,,,,,,,,,,2,2,0,56,56,12,1,,,,,,,,,,,,,,,,,,,,,,,,,,,,,,,,,,,,,,,,,,,,,,,,,,,,,,,,,,,,,,,,,,,,,,,,,,,,,,,,,,,,,,,,,,,,,,,,,,,,,,,,
,,?,0.005555,0,,,,,,stimuli/images/PICTURE_93.png,GIRL,5f132c87a20cca09bd4d8884,28/11/2001,2020-08-27_19h09.53.854,proactive3.1,2020.1.2,Win32,60,5f47c29a48bd2a1e651a6eb7,5f47f6d483588026e1bf7777,5,,,,,,skateboard,,,,,,,,,,,4,2,0,57,57,31,1,,,,,,,,,,,,,,,,,,,,,,,,,,,,,,,,,,,,,,,,,,,,,,,,,,,,,,,,,,,,,,,,,,,,,,,,,,,,,,,,,,,,,,,,,,,,,,,,,,,,,,,,
,,?,0.001375,0,,,,,,stimuli/images/PICTURE_311.png,TOILET,5f132c87a20cca09bd4d8884,28/11/2001,2020-08-27_19h09.53.854,proactive3.1,2020.1.2,Win32,60,5f47c29a48bd2a1e651a6eb7,5f47f6d483588026e1bf7777,5,,,,,,razor,,,,,,,,,,,6,2,0,58,58,54,1,,,,,,,,,,,,,,,,,,,,,,,,,,,,,,,,,,,,,,,,,,,,,,,,,,,,,,,,,,,,,,,,,,,,,,,,,,,,,,,,,,,,,,,,,,,,,,,,,,,,,,,,
,,?,0.0014,0,,,,,,stimuli/images/PICTURE_654.png,COPS,5f132c87a20cca09bd4d8884,28/11/2001,2020-08-27_19h09.53.854,proactive3.1,2020.1.2,Win32,60,5f47c29a48bd2a1e651a6eb7,5f47f6d483588026e1bf7777,5,,,,,,pencil,,,,,,,,,,,2,2,0,59,59,10,1,,,,,,,,,,,,,,,,,,,,,,,,,,,,,,,,,,,,,,,,,,,,,,,,,,,,,,,,,,,,,,,,,,,,,,,,,,,,,,,,,,,,,,,,,,,,,,,,,,,,,,,,
,,,,,,,,,,,,5f132c87a20cca09bd4d8884,28/11/2001,2020-08-27_19h09.53.854,proactive3.1,2020.1.2,Win32,60,5f47c29a48bd2a1e651a6eb7,5f47f6d483588026e1bf7777,5,,,,,,,,,,,,,,,,,,,,,,,,0,0,0,2,1,stimuli/learn-block3.csv,,,,,,,,,,,,,,,,,,,,,,,,,,,,,,,,,,,,,,,,,,,,,,,,,,,,,,,,,,,,,,,,,,,,,,,,,,,,,,,,,,,,,,,,,,,,,,,,,,
,,,,,,,,,,stimuli/images/PICTURE_380.png,CANDY,5f132c87a20cca09bd4d8884,28/11/2001,2020-08-27_19h09.53.854,proactive3.1,2020.1.2,Win32,60,5f47c29a48bd2a1e651a6eb7,5f47f6d483588026e1bf7777,5,,,,,,gorilla,,,,,,0,0,0,0,1,1,1,,,,,,,,,,,,,,,,,,,,,,,,,,,,,,,,,,,,,,,,,,,,,,,,,,,,,,,,,,,,,,,,,,,,,,,,,,,,,,,,,,,,,,,,,,,,,,,,,,,,,,,,,,,,,
,,,,,,,,,,stimuli/images/PICTURE_33.png,FRIEND,5f132c87a20cca09bd4d8884,28/11/2001,2020-08-27_19h09.53.854,proactive3.1,2020.1.2,Win32,60,5f47c29a48bd2a1e651a6eb7,5f47f6d483588026e1bf7777,5,,,,,,frame,,,,,,0,1,1,8,1,1,1,,,,,,,,,,,,,,,,,,,,,,,,,,,,,,,,,,,,,,,,,,,,,,,,,,,,,,,,,,,,,,,,,,,,,,,,,,,,,,,,,,,,,,,,,,,,,,,,,,,,,,,,,,,,,
,,,,,,,,,,stimuli/images/PICTURE_108.png,POLICY,5f132c87a20cca09bd4d8884,28/11/2001,2020-08-27_19h09.53.854,proactive3.1,2020.1.2,Win32,60,5f47c29a48bd2a1e651a6eb7,5f47f6d483588026e1bf7777,5,,,,,,calendar,,,,,,0,2,2,22,1,3,1,,,,,,,,,,,,,,,,,,,,,,,,,,,,,,,,,,,,,,,,,,,,,,,,,,,,,,,,,,,,,,,,,,,,,,,,,,,,,,,,,,,,,,,,,,,,,,,,,,,,,,,,,,,,,
,,,,,,,,,,stimuli/images/PICTURE_339.png,CLIENT,5f132c87a20cca09bd4d8884,28/11/2001,2020-08-27_19h09.53.854,proactive3.1,2020.1.2,Win32,60,5f47c29a48bd2a1e651a6eb7,5f47f6d483588026e1bf7777,5,,,,,,backpack,,,,,,0,3,3,11,1,2,1,,,,,,,,,,,,,,,,,,,,,,,,,,,,,,,,,,,,,,,,,,,,,,,,,,,,,,,,,,,,,,,,,,,,,,,,,,,,,,,,,,,,,,,,,,,,,,,,,,,,,,,,,,,,,
,,,,,,,,,,stimuli/images/PICTURE_308.png,FAMILY,5f132c87a20cca09bd4d8884,28/11/2001,2020-08-27_19h09.53.854,proactive3.1,2020.1.2,Win32,60,5f47c29a48bd2a1e651a6eb7,5f47f6d483588026e1bf7777,5,,,,,,dice,,,,,,0,4,4,36,1,4,1,,,,,,,,,,,,,,,,,,,,,,,,,,,,,,,,,,,,,,,,,,,,,,,,,,,,,,,,,,,,,,,,,,,,,,,,,,,,,,,,,,,,,,,,,,,,,,,,,,,,,,,,,,,,,
,,,,,,,,,,stimuli/images/PICTURE_85.png,NATION,5f132c87a20cca09bd4d8884,28/11/2001,2020-08-27_19h09.53.854,proactive3.1,2020.1.2,Win32,60,5f47c29a48bd2a1e651a6eb7,5f47f6d483588026e1bf7777,5,,,,,,diamond,,,,,,0,5,5,5,1,1,1,,,,,,,,,,,,,,,,,,,,,,,,,,,,,,,,,,,,,,,,,,,,,,,,,,,,,,,,,,,,,,,,,,,,,,,,,,,,,,,,,,,,,,,,,,,,,,,,,,,,,,,,,,,,,
,,,,,,,,,,stimuli/images/PICTURE_403.png,TOILET,5f132c87a20cca09bd4d8884,28/11/2001,2020-08-27_19h09.53.854,proactive3.1,2020.1.2,Win32,60,5f47c29a48bd2a1e651a6eb7,5f47f6d483588026e1bf7777,5,,,,,,cathedral,,,,,,0,6,6,25,1,3,1,,,,,,,,,,,,,,,,,,,,,,,,,,,,,,,,,,,,,,,,,,,,,,,,,,,,,,,,,,,,,,,,,,,,,,,,,,,,,,,,,,,,,,,,,,,,,,,,,,,,,,,,,,,,,
,,,,,,,,,,stimuli/images/PICTURE_405.png,PLENTY,5f132c87a20cca09bd4d8884,28/11/2001,2020-08-27_19h09.53.854,proactive3.1,2020.1.2,Win32,60,5f47c29a48bd2a1e651a6eb7,5f47f6d483588026e1bf7777,5,,,,,,anchor,,,,,,0,7,7,23,1,3,1,,,,,,,,,,,,,,,,,,,,,,,,,,,,,,,,,,,,,,,,,,,,,,,,,,,,,,,,,,,,,,,,,,,,,,,,,,,,,,,,,,,,,,,,,,,,,,,,,,,,,,,,,,,,,
,,,,,,,,,,stimuli/images/PICTURE_85.png,TOILET,5f132c87a20cca09bd4d8884,28/11/2001,2020-08-27_19h09.53.854,proactive3.1,2020.1.2,Win32,60,5f47c29a48bd2a1e651a6eb7,5f47f6d483588026e1bf7777,5,,,,,,diamond,,,,,,0,8,8,48,1,5,1,,,,,,,,,,,,,,,,,,,,,,,,,,,,,,,,,,,,,,,,,,,,,,,,,,,,,,,,,,,,,,,,,,,,,,,,,,,,,,,,,,,,,,,,,,,,,,,,,,,,,,,,,,,,,
,,,,,,,,,,stimuli/images/PICTURE_380.png,HONEY,5f132c87a20cca09bd4d8884,28/11/2001,2020-08-27_19h09.53.854,proactive3.1,2020.1.2,Win32,60,5f47c29a48bd2a1e651a6eb7,5f47f6d483588026e1bf7777,5,,,,,,gorilla,,,,,,0,9,9,19,1,2,1,,,,,,,,,,,,,,,,,,,,,,,,,,,,,,,,,,,,,,,,,,,,,,,,,,,,,,,,,,,,,,,,,,,,,,,,,,,,,,,,,,,,,,,,,,,,,,,,,,,,,,,,,,,,,
,,,,,,,,,,stimuli/images/PICTURE_750.png,HOTEL,5f132c87a20cca09bd4d8884,28/11/2001,2020-08-27_19h09.53.854,proactive3.1,2020.1.2,Win32,60,5f47c29a48bd2a1e651a6eb7,5f47f6d483588026e1bf7777,5,,,,,,kettle,,,,,,0,10,10,27,1,3,1,,,,,,,,,,,,,,,,,,,,,,,,,,,,,,,,,,,,,,,,,,,,,,,,,,,,,,,,,,,,,,,,,,,,,,,,,,,,,,,,,,,,,,,,,,,,,,,,,,,,,,,,,,,,,
,,,,,,,,,,stimuli/images/PICTURE_405.png,YEAR,5f132c87a20cca09bd4d8884,28/11/2001,2020-08-27_19h09.53.854,proactive3.1,2020.1.2,Win32,60,5f47c29a48bd2a1e651a6eb7,5f47f6d483588026e1bf7777,5,,,,,,anchor,,,,,,0,11,11,34,1,4,1,,,,,,,,,,,,,,,,,,,,,,,,,,,,,,,,,,,,,,,,,,,,,,,,,,,,,,,,,,,,,,,,,,,,,,,,,,,,,,,,,,,,,,,,,,,,,,,,,,,,,,,,,,,,,
,,,,,,,,,,stimuli/images/PICTURE_95.png,BOYS,5f132c87a20cca09bd4d8884,28/11/2001,2020-08-27_19h09.53.854,proactive3.1,2020.1.2,Win32,60,5f47c29a48bd2a1e651a6eb7,5f47f6d483588026e1bf7777,5,,,,,,suitcase,,,,,,0,12,12,1,1,1,1,,,,,,,,,,,,,,,,,,,,,,,,,,,,,,,,,,,,,,,,,,,,,,,,,,,,,,,,,,,,,,,,,,,,,,,,,,,,,,,,,,,,,,,,,,,,,,,,,,,,,,,,,,,,,
,,,,,,,,,,stimuli/images/PICTURE_744.png,WEAPON,5f132c87a20cca09bd4d8884,28/11/2001,2020-08-27_19h09.53.854,proactive3.1,2020.1.2,Win32,60,5f47c29a48bd2a1e651a6eb7,5f47f6d483588026e1bf7777,5,,,,,,ring,,,,,,0,13,13,50,1,6,1,,,,,,,,,,,,,,,,,,,,,,,,,,,,,,,,,,,,,,,,,,,,,,,,,,,,,,,,,,,,,,,,,,,,,,,,,,,,,,,,,,,,,,,,,,,,,,,,,,,,,,,,,,,,,
,,,,,,,,,,stimuli/images/PICTURE_95.png,MILLER,5f132c87a20cca09bd4d8884,28/11/2001,2020-08-27_19h09.53.854,proactive3.1,2020.1.2,Win32,60,5f47c29a48bd2a1e651a6eb7,5f47f6d483588026e1bf7777,5,,,,,,suitcase,,,,,,0,14,14,56,1,6,1,,,,,,,,,,,,,,,,,,,,,,,,,,,,,,,,,,,,,,,,,,,,,,,,,,,,,,,,,,,,,,,,,,,,,,,,,,,,,,,,,,,,,,,,,,,,,,,,,,,,,,,,,,,,,
,,,,,,,,,,stimuli/images/PICTURE_677.png,APPLE,5f132c87a20cca09bd4d8884,28/11/2001,2020-08-27_19h09.53.854,proactive3.1,2020.1.2,Win32,60,5f47c29a48bd2a1e651a6eb7,5f47f6d483588026e1bf7777,5,,,,,,map,,,,,,0,15,15,43,1,5,1,,,,,,,,,,,,,,,,,,,,,,,,,,,,,,,,,,,,,,,,,,,,,,,,,,,,,,,,,,,,,,,,,,,,,,,,,,,,,,,,,,,,,,,,,,,,,,,,,,,,,,,,,,,,,
,,,,,,,,,,stimuli/images/PICTURE_403.png,RIVER,5f132c87a20cca09bd4d8884,28/11/2001,2020-08-27_19h09.53.854,proactive3.1,2020.1.2,Win32,60,5f47c29a48bd2a1e651a6eb7,5f47f6d483588026e1bf7777,5,,,,,,cathedral,,,,,,0,16,16,40,1,5,1,,,,,,,,,,,,,,,,,,,,,,,,,,,,,,,,,,,,,,,,,,,,,,,,,,,,,,,,,,,,,,,,,,,,,,,,,,,,,,,,,,,,,,,,,,,,,,,,,,,,,,,,,,,,,
,,,,,,,,,,stimuli/images/PICTURE_383.png,WRITER,5f132c87a20cca09bd4d8884,28/11/2001,2020-08-27_19h09.53.854,proactive3.1,2020.1.2,Win32,60,5f47c29a48bd2a1e651a6eb7,5f47f6d483588026e1bf7777,5,,,,,,coin,,,,,,0,17,17,28,1,3,1,,,,,,,,,,,,,,,,,,,,,,,,,,,,,,,,,,,,,,,,,,,,,,,,,,,,,,,,,,,,,,,,,,,,,,,,,,,,,,,,,,,,,,,,,,,,,,,,,,,,,,,,,,,,,
,,,,,,,,,,stimuli/images/PICTURE_68.png,MILE,5f132c87a20cca09bd4d8884,28/11/2001,2020-08-27_19h09.53.854,proactive3.1,2020.1.2,Win32,60,5f47c29a48bd2a1e651a6eb7,5f47f6d483588026e1bf7777,5,,,,,,candle,,,,,,0,18,18,51,1,6,1,,,,,,,,,,,,,,,,,,,,,,,,,,,,,,,,,,,,,,,,,,,,,,,,,,,,,,,,,,,,,,,,,,,,,,,,,,,,,,,,,,,,,,,,,,,,,,,,,,,,,,,,,,,,,
,,,,,,,,,,stimuli/images/PICTURE_449.png,DUDE,5f132c87a20cca09bd4d8884,28/11/2001,2020-08-27_19h09.53.854,proactive3.1,2020.1.2,Win32,60,5f47c29a48bd2a1e651a6eb7,5f47f6d483588026e1bf7777,5,,,,,,bench,,,,,,0,19,19,17,1,2,1,,,,,,,,,,,,,,,,,,,,,,,,,,,,,,,,,,,,,,,,,,,,,,,,,,,,,,,,,,,,,,,,,,,,,,,,,,,,,,,,,,,,,,,,,,,,,,,,,,,,,,,,,,,,,
,,,,,,,,,,stimuli/images/PICTURE_487.png,GIRL,5f132c87a20cca09bd4d8884,28/11/2001,2020-08-27_19h09.53.854,proactive3.1,2020.1.2,Win32,60,5f47c29a48bd2a1e651a6eb7,5f47f6d483588026e1bf7777,5,,,,,,basket,,,,,,0,20,20,45,1,5,1,,,,,,,,,,,,,,,,,,,,,,,,,,,,,,,,,,,,,,,,,,,,,,,,,,,,,,,,,,,,,,,,,,,,,,,,,,,,,,,,,,,,,,,,,,,,,,,,,,,,,,,,,,,,,
,,,,,,,,,,stimuli/images/PICTURE_467.png,POLICY,5f132c87a20cca09bd4d8884,28/11/2001,2020-08-27_19h09.53.854,proactive3.1,2020.1.2,Win32,60,5f47c29a48bd2a1e651a6eb7,5f47f6d483588026e1bf7777,5,,,,,,peg,,,,,,0,21,21,53,1,6,1,,,,,,,,,,,,,,,,,,,,,,,,,,,,,,,,,,,,,,,,,,,,,,,,,,,,,,,,,,,,,,,,,,,,,,,,,,,,,,,,,,,,,,,,,,,,,,,,,,,,,,,,,,,,,
,,,,,,,,,,stimuli/images/PICTURE_327.png,SERIES,5f132c87a20cca09bd4d8884,28/11/2001,2020-08-27_19h09.53.854,proactive3.1,2020.1.2,Win32,60,5f47c29a48bd2a1e651a6eb7,5f47f6d483588026e1bf7777,5,,,,,,helmet,,,,,,0,22,22,3,1,1,1,,,,,,,,,,,,,,,,,,,,,,,,,,,,,,,,,,,,,,,,,,,,,,,,,,,,,,,,,,,,,,,,,,,,,,,,,,,,,,,,,,,,,,,,,,,,,,,,,,,,,,,,,,,,,
,,,,,,,,,,stimuli/images/PICTURE_203.png,GODS,5f132c87a20cca09bd4d8884,28/11/2001,2020-08-27_19h09.53.854,proactive3.1,2020.1.2,Win32,60,5f47c29a48bd2a1e651a6eb7,5f47f6d483588026e1bf7777,5,,,,,,cap,,,,,,0,23,23,30,1,4,1,,,,,,,,,,,,,,,,,,,,,,,,,,,,,,,,,,,,,,,,,,,,,,,,,,,,,,,,,,,,,,,,,,,,,,,,,,,,,,,,,,,,,,,,,,,,,,,,,,,,,,,,,,,,,
,,,,,,,,,,stimuli/images/PICTURE_383.png,SERIES,5f132c87a20cca09bd4d8884,28/11/2001,2020-08-27_19h09.53.854,proactive3.1,2020.1.2,Win32,60,5f47c29a48bd2a1e651a6eb7,5f47f6d483588026e1bf7777,5,,,,,,coin,,,,,,0,24,24,46,1,5,1,,,,,,,,,,,,,,,,,,,,,,,,,,,,,,,,,,,,,,,,,,,,,,,,,,,,,,,,,,,,,,,,,,,,,,,,,,,,,,,,,,,,,,,,,,,,,,,,,,,,,,,,,,,,,
,,,,,,,,,,stimuli/images/PICTURE_42.png,BOYS,5f132c87a20cca09bd4d8884,28/11/2001,2020-08-27_19h09.53.854,proactive3.1,2020.1.2,Win32,60,5f47c29a48bd2a1e651a6eb7,5f47f6d483588026e1bf7777,5,,,,,,pear,,,,,,0,25,25,55,1,6,1,,,,,,,,,,,,,,,,,,,,,,,,,,,,,,,,,,,,,,,,,,,,,,,,,,,,,,,,,,,,,,,,,,,,,,,,,,,,,,,,,,,,,,,,,,,,,,,,,,,,,,,,,,,,,
,,,,,,,,,,stimuli/images/PICTURE_655.png,TOILET,5f132c87a20cca09bd4d8884,28/11/2001,2020-08-27_19h09.53.854,proactive3.1,2020.1.2,Win32,60,5f47c29a48bd2a1e651a6eb7,5f47f6d483588026e1bf7777,5,,,,,,megaphone,,,,,,0,26,26,12,1,2,1,,,,,,,,,,,,,,,,,,,,,,,,,,,,,,,,,,,,,,,,,,,,,,,,,,,,,,,,,,,,,,,,,,,,,,,,,,,,,,,,,,,,,,,,,,,,,,,,,,,,,,,,,,,,,
,,,,,,,,,,stimuli/images/PICTURE_564.png,BATH,5f132c87a20cca09bd4d8884,28/11/2001,2020-08-27_19h09.53.854,proactive3.1,2020.1.2,Win32,60,5f47c29a48bd2a1e651a6eb7,5f47f6d483588026e1bf7777,5,,,,,,spoon,,,,,,0,27,27,26,1,3,1,,,,,,,,,,,,,,,,,,,,,,,,,,,,,,,,,,,,,,,,,,,,,,,,,,,,,,,,,,,,,,,,,,,,,,,,,,,,,,,,,,,,,,,,,,,,,,,,,,,,,,,,,,,,,
,,,,,,,,,,stimuli/images/PICTURE_469.png,AGENT,5f132c87a20cca09bd4d8884,28/11/2001,2020-08-27_19h09.53.854,proactive3.1,2020.1.2,Win32,60,5f47c29a48bd2a1e651a6eb7,5f47f6d483588026e1bf7777,5,,,,,,stool,,,,,,0,28,28,16,1,2,1,,,,,,,,,,,,,,,,,,,,,,,,,,,,,,,,,,,,,,,,,,,,,,,,,,,,,,,,,,,,,,,,,,,,,,,,,,,,,,,,,,,,,,,,,,,,,,,,,,,,,,,,,,,,,
,,,,,,,,,,stimuli/images/PICTURE_108.png,FLIGHT,5f132c87a20cca09bd4d8884,28/11/2001,2020-08-27_19h09.53.854,proactive3.1,2020.1.2,Win32,60,5f47c29a48bd2a1e651a6eb7,5f47f6d483588026e1bf7777,5,,,,,,calendar,,,,,,0,29,29,59,1,6,1,,,,,,,,,,,,,,,,,,,,,,,,,,,,,,,,,,,,,,,,,,,,,,,,,,,,,,,,,,,,,,,,,,,,,,,,,,,,,,,,,,,,,,,,,,,,,,,,,,,,,,,,,,,,,
,,,,,,,,,,stimuli/images/PICTURE_177.png,WRITER,5f132c87a20cca09bd4d8884,28/11/2001,2020-08-27_19h09.53.854,proactive3.1,2020.1.2,Win32,60,5f47c29a48bd2a1e651a6eb7,5f47f6d483588026e1bf7777,5,,,,,,mushroom,,,,,,0,30,30,41,1,5,1,,,,,,,,,,,,,,,,,,,,,,,,,,,,,,,,,,,,,,,,,,,,,,,,,,,,,,,,,,,,,,,,,,,,,,,,,,,,,,,,,,,,,,,,,,,,,,,,,,,,,,,,,,,,,
,,,,,,,,,,stimuli/images/PICTURE_32.png,PILLS,5f132c87a20cca09bd4d8884,28/11/2001,2020-08-27_19h09.53.854,proactive3.1,2020.1.2,Win32,60,5f47c29a48bd2a1e651a6eb7,5f47f6d483588026e1bf7777,5,,,,,,crown,,,,,,0,31,31,18,1,2,1,,,,,,,,,,,,,,,,,,,,,,,,,,,,,,,,,,,,,,,,,,,,,,,,,,,,,,,,,,,,,,,,,,,,,,,,,,,,,,,,,,,,,,,,,,,,,,,,,,,,,,,,,,,,,
,,,,,,,,,,stimuli/images/PICTURE_297.png,RIVER,5f132c87a20cca09bd4d8884,28/11/2001,2020-08-27_19h09.53.854,proactive3.1,2020.1.2,Win32,60,5f47c29a48bd2a1e651a6eb7,5f47f6d483588026e1bf7777,5,,,,,,aeroplane,,,,,,0,32,32,39,1,4,1,,,,,,,,,,,,,,,,,,,,,,,,,,,,,,,,,,,,,,,,,,,,,,,,,,,,,,,,,,,,,,,,,,,,,,,,,,,,,,,,,,,,,,,,,,,,,,,,,,,,,,,,,,,,,
,,,,,,,,,,stimuli/images/PICTURE_296.png,LIFE,5f132c87a20cca09bd4d8884,28/11/2001,2020-08-27_19h09.53.854,proactive3.1,2020.1.2,Win32,60,5f47c29a48bd2a1e651a6eb7,5f47f6d483588026e1bf7777,5,,,,,,bolt,,,,,,0,33,33,57,1,6,1,,,,,,,,,,,,,,,,,,,,,,,,,,,,,,,,,,,,,,,,,,,,,,,,,,,,,,,,,,,,,,,,,,,,,,,,,,,,,,,,,,,,,,,,,,,,,,,,,,,,,,,,,,,,,
,,,,,,,,,,stimuli/images/PICTURE_233.png,LOTS,5f132c87a20cca09bd4d8884,28/11/2001,2020-08-27_19h09.53.854,proactive3.1,2020.1.2,Win32,60,5f47c29a48bd2a1e651a6eb7,5f47f6d483588026e1bf7777,5,,,,,,salt,,,,,,0,34,34,42,1,5,1,,,,,,,,,,,,,,,,,,,,,,,,,,,,,,,,,,,,,,,,,,,,,,,,,,,,,,,,,,,,,,,,,,,,,,,,,,,,,,,,,,,,,,,,,,,,,,,,,,,,,,,,,,,,,
,,,,,,,,,,stimuli/images/PICTURE_667.png,RIVER,5f132c87a20cca09bd4d8884,28/11/2001,2020-08-27_19h09.53.854,proactive3.1,2020.1.2,Win32,60,5f47c29a48bd2a1e651a6eb7,5f47f6d483588026e1bf7777,5,,,,,,daisy,,,,,,0,35,35,10,1,2,1,,,,,,,,,,,,,,,,,,,,,,,,,,,,,,,,,,,,,,,,,,,,,,,,,,,,,,,,,,,,,,,,,,,,,,,,,,,,,,,,,,,,,,,,,,,,,,,,,,,,,,,,,,,,,
,,,,,,,,,,stimuli/images/PICTURE_208.png,SYSTEM,5f132c87a20cca09bd4d8884,28/11/2001,2020-08-27_19h09.53.854,proactive3.1,2020.1.2,Win32,60,5f47c29a48bd2a1e651a6eb7,5f47f6d483588026e1bf7777,5,,,,,,microphone,,,,,,0,36,36,32,1,4,1,,,,,,,,,,,,,,,,,,,,,,,,,,,,,,,,,,,,,,,,,,,,,,,,,,,,,,,,,,,,,,,,,,,,,,,,,,,,,,,,,,,,,,,,,,,,,,,,,,,,,,,,,,,,,
,,,,,,,,,,stimuli/images/PICTURE_340.png,LETTER,5f132c87a20cca09bd4d8884,28/11/2001,2020-08-27_19h09.53.854,proactive3.1,2020.1.2,Win32,60,5f47c29a48bd2a1e651a6eb7,5f47f6d483588026e1bf7777,5,,,,,,mirror,,,,,,0,37,37,24,1,3,1,,,,,,,,,,,,,,,,,,,,,,,,,,,,,,,,,,,,,,,,,,,,,,,,,,,,,,,,,,,,,,,,,,,,,,,,,,,,,,,,,,,,,,,,,,,,,,,,,,,,,,,,,,,,,
,,,,,,,,,,stimuli/images/PICTURE_203.png,NIGHT,5f132c87a20cca09bd4d8884,28/11/2001,2020-08-27_19h09.53.854,proactive3.1,2020.1.2,Win32,60,5f47c29a48bd2a1e651a6eb7,5f47f6d483588026e1bf7777,5,,,,,,cap,,,,,,0,38,38,2,1,1,1,,,,,,,,,,,,,,,,,,,,,,,,,,,,,,,,,,,,,,,,,,,,,,,,,,,,,,,,,,,,,,,,,,,,,,,,,,,,,,,,,,,,,,,,,,,,,,,,,,,,,,,,,,,,,
,,,,,,,,,,stimuli/images/PICTURE_504.png,ARTIST,5f132c87a20cca09bd4d8884,28/11/2001,2020-08-27_19h09.53.854,proactive3.1,2020.1.2,Win32,60,5f47c29a48bd2a1e651a6eb7,5f47f6d483588026e1bf7777,5,,,,,,wheel,,,,,,0,39,39,49,1,5,1,,,,,,,,,,,,,,,,,,,,,,,,,,,,,,,,,,,,,,,,,,,,,,,,,,,,,,,,,,,,,,,,,,,,,,,,,,,,,,,,,,,,,,,,,,,,,,,,,,,,,,,,,,,,,
,,,,,,,,,,stimuli/images/PICTURE_32.png,KIND,5f132c87a20cca09bd4d8884,28/11/2001,2020-08-27_19h09.53.854,proactive3.1,2020.1.2,Win32,60,5f47c29a48bd2a1e651a6eb7,5f47f6d483588026e1bf7777,5,,,,,,crown,,,,,,0,40,40,35,1,4,1,,,,,,,,,,,,,,,,,,,,,,,,,,,,,,,,,,,,,,,,,,,,,,,,,,,,,,,,,,,,,,,,,,,,,,,,,,,,,,,,,,,,,,,,,,,,,,,,,,,,,,,,,,,,,
,,,,,,,,,,stimuli/images/PICTURE_327.png,CASINO,5f132c87a20cca09bd4d8884,28/11/2001,2020-08-27_19h09.53.854,proactive3.1,2020.1.2,Win32,60,5f47c29a48bd2a1e651a6eb7,5f47f6d483588026e1bf7777,5,,,,,,helmet,,,,,,0,41,41,20,1,3,1,,,,,,,,,,,,,,,,,,,,,,,,,,,,,,,,,,,,,,,,,,,,,,,,,,,,,,,,,,,,,,,,,,,,,,,,,,,,,,,,,,,,,,,,,,,,,,,,,,,,,,,,,,,,,
,,,,,,,,,,stimuli/images/PICTURE_504.png,COPS,5f132c87a20cca09bd4d8884,28/11/2001,2020-08-27_19h09.53.854,proactive3.1,2020.1.2,Win32,60,5f47c29a48bd2a1e651a6eb7,5f47f6d483588026e1bf7777,5,,,,,,wheel,,,,,,0,42,42,52,1,6,1,,,,,,,,,,,,,,,,,,,,,,,,,,,,,,,,,,,,,,,,,,,,,,,,,,,,,,,,,,,,,,,,,,,,,,,,,,,,,,,,,,,,,,,,,,,,,,,,,,,,,,,,,,,,,
,,,,,,,,,,stimuli/images/PICTURE_340.png,VALLEY,5f132c87a20cca09bd4d8884,28/11/2001,2020-08-27_19h09.53.854,proactive3.1,2020.1.2,Win32,60,5f47c29a48bd2a1e651a6eb7,5f47f6d483588026e1bf7777,5,,,,,,mirror,,,,,,0,43,43,54,1,6,1,,,,,,,,,,,,,,,,,,,,,,,,,,,,,,,,,,,,,,,,,,,,,,,,,,,,,,,,,,,,,,,,,,,,,,,,,,,,,,,,,,,,,,,,,,,,,,,,,,,,,,,,,,,,,
,,,,,,,,,,stimuli/images/PICTURE_57.png,MOMENT,5f132c87a20cca09bd4d8884,28/11/2001,2020-08-27_19h09.53.854,proactive3.1,2020.1.2,Win32,60,5f47c29a48bd2a1e651a6eb7,5f47f6d483588026e1bf7777,5,,,,,,stamp,,,,,,0,44,44,37,1,4,1,,,,,,,,,,,,,,,,,,,,,,,,,,,,,,,,,,,,,,,,,,,,,,,,,,,,,,,,,,,,,,,,,,,,,,,,,,,,,,,,,,,,,,,,,,,,,,,,,,,,,,,,,,,,,
,,,,,,,,,,stimuli/images/PICTURE_491.png,GLASS,5f132c87a20cca09bd4d8884,28/11/2001,2020-08-27_19h09.53.854,proactive3.1,2020.1.2,Win32,60,5f47c29a48bd2a1e651a6eb7,5f47f6d483588026e1bf7777,5,,,,,,rug,,,,,,0,45,45,14,1,2,1,,,,,,,,,,,,,,,,,,,,,,,,,,,,,,,,,,,,,,,,,,,,,,,,,,,,,,,,,,,,,,,,,,,,,,,,,,,,,,,,,,,,,,,,,,,,,,,,,,,,,,,,,,,,,
,,,,,,,,,,stimuli/images/PICTURE_403.png,WRITER,5f132c87a20cca09bd4d8884,28/11/2001,2020-08-27_19h09.53.854,proactive3.1,2020.1.2,Win32,60,5f47c29a48bd2a1e651a6eb7,5f47f6d483588026e1bf7777,5,,,,,,cathedral,,,,,,0,46,46,31,1,4,1,,,,,,,,,,,,,,,,,,,,,,,,,,,,,,,,,,,,,,,,,,,,,,,,,,,,,,,,,,,,,,,,,,,,,,,,,,,,,,,,,,,,,,,,,,,,,,,,,,,,,,,,,,,,,
,,,,,,,,,,stimuli/images/PICTURE_675.png,SALE,5f132c87a20cca09bd4d8884,28/11/2001,2020-08-27_19h09.53.854,proactive3.1,2020.1.2,Win32,60,5f47c29a48bd2a1e651a6eb7,5f47f6d483588026e1bf7777,5,,,,,,windmill,,,,,,0,47,47,47,1,5,1,,,,,,,,,,,,,,,,,,,,,,,,,,,,,,,,,,,,,,,,,,,,,,,,,,,,,,,,,,,,,,,,,,,,,,,,,,,,,,,,,,,,,,,,,,,,,,,,,,,,,,,,,,,,,
,,,,,,,,,,stimuli/images/PICTURE_654.png,MONTH,5f132c87a20cca09bd4d8884,28/11/2001,2020-08-27_19h09.53.854,proactive3.1,2020.1.2,Win32,60,5f47c29a48bd2a1e651a6eb7,5f47f6d483588026e1bf7777,5,,,,,,pencil,,,,,,0,48,48,29,1,3,1,,,,,,,,,,,,,,,,,,,,,,,,,,,,,,,,,,,,,,,,,,,,,,,,,,,,,,,,,,,,,,,,,,,,,,,,,,,,,,,,,,,,,,,,,,,,,,,,,,,,,,,,,,,,,
,,,,,,,,,,stimuli/images/PICTURE_491.png,RIVER,5f132c87a20cca09bd4d8884,28/11/2001,2020-08-27_19h09.53.854,proactive3.1,2020.1.2,Win32,60,5f47c29a48bd2a1e651a6eb7,5f47f6d483588026e1bf7777,5,,,,,,rug,,,,,,0,49,49,6,1,1,1,,,,,,,,,,,,,,,,,,,,,,,,,,,,,,,,,,,,,,,,,,,,,,,,,,,,,,,,,,,,,,,,,,,,,,,,,,,,,,,,,,,,,,,,,,,,,,,,,,,,,,,,,,,,,
,,,,,,,,,,stimuli/images/PICTURE_685.png,PENNY,5f132c87a20cca09bd4d8884,28/11/2001,2020-08-27_19h09.53.854,proactive3.1,2020.1.2,Win32,60,5f47c29a48bd2a1e651a6eb7,5f47f6d483588026e1bf7777,5,,,,,,goose,,,,,,0,50,50,4,1,1,1,,,,,,,,,,,,,,,,,,,,,,,,,,,,,,,,,,,,,,,,,,,,,,,,,,,,,,,,,,,,,,,,,,,,,,,,,,,,,,,,,,,,,,,,,,,,,,,,,,,,,,,,,,,,,
,,,,,,,,,,stimuli/images/PICTURE_2.png,FLIGHT,5f132c87a20cca09bd4d8884,28/11/2001,2020-08-27_19h09.53.854,proactive3.1,2020.1.2,Win32,60,5f47c29a48bd2a1e651a6eb7,5f47f6d483588026e1bf7777,5,,,,,,tyre,,,,,,0,51,51,15,1,2,1,,,,,,,,,,,,,,,,,,,,,,,,,,,,,,,,,,,,,,,,,,,,,,,,,,,,,,,,,,,,,,,,,,,,,,,,,,,,,,,,,,,,,,,,,,,,,,,,,,,,,,,,,,,,,
,,,,,,,,,,stimuli/images/PICTURE_504.png,YEAR,5f132c87a20cca09bd4d8884,28/11/2001,2020-08-27_19h09.53.854,proactive3.1,2020.1.2,Win32,60,5f47c29a48bd2a1e651a6eb7,5f47f6d483588026e1bf7777,5,,,,,,wheel,,,,,,0,52,52,13,1,2,1,,,,,,,,,,,,,,,,,,,,,,,,,,,,,,,,,,,,,,,,,,,,,,,,,,,,,,,,,,,,,,,,,,,,,,,,,,,,,,,,,,,,,,,,,,,,,,,,,,,,,,,,,,,,,
,,,,,,,,,,stimuli/images/PICTURE_147.png,YEAR,5f132c87a20cca09bd4d8884,28/11/2001,2020-08-27_19h09.53.854,proactive3.1,2020.1.2,Win32,60,5f47c29a48bd2a1e651a6eb7,5f47f6d483588026e1bf7777,5,,,,,,hanger,,,,,,0,53,53,21,1,3,1,,,,,,,,,,,,,,,,,,,,,,,,,,,,,,,,,,,,,,,,,,,,,,,,,,,,,,,,,,,,,,,,,,,,,,,,,,,,,,,,,,,,,,,,,,,,,,,,,,,,,,,,,,,,,
,,,,,,,,,,stimuli/images/PICTURE_708.png,RECORD,5f132c87a20cca09bd4d8884,28/11/2001,2020-08-27_19h09.53.854,proactive3.1,2020.1.2,Win32,60,5f47c29a48bd2a1e651a6eb7,5f47f6d483588026e1bf7777,5,,,,,,monkey,,,,,,0,54,54,58,1,6,1,,,,,,,,,,,,,,,,,,,,,,,,,,,,,,,,,,,,,,,,,,,,,,,,,,,,,,,,,,,,,,,,,,,,,,,,,,,,,,,,,,,,,,,,,,,,,,,,,,,,,,,,,,,,,
,,,,,,,,,,stimuli/images/PICTURE_68.png,ROOF,5f132c87a20cca09bd4d8884,28/11/2001,2020-08-27_19h09.53.854,proactive3.1,2020.1.2,Win32,60,5f47c29a48bd2a1e651a6eb7,5f47f6d483588026e1bf7777,5,,,,,,candle,,,,,,0,55,55,38,1,4,1,,,,,,,,,,,,,,,,,,,,,,,,,,,,,,,,,,,,,,,,,,,,,,,,,,,,,,,,,,,,,,,,,,,,,,,,,,,,,,,,,,,,,,,,,,,,,,,,,,,,,,,,,,,,,
,,,,,,,,,,stimuli/images/PICTURE_147.png,WOMEN,5f132c87a20cca09bd4d8884,28/11/2001,2020-08-27_19h09.53.854,proactive3.1,2020.1.2,Win32,60,5f47c29a48bd2a1e651a6eb7,5f47f6d483588026e1bf7777,5,,,,,,hanger,,,,,,0,56,56,7,1,1,1,,,,,,,,,,,,,,,,,,,,,,,,,,,,,,,,,,,,,,,,,,,,,,,,,,,,,,,,,,,,,,,,,,,,,,,,,,,,,,,,,,,,,,,,,,,,,,,,,,,,,,,,,,,,,
,,,,,,,,,,stimuli/images/PICTURE_285.png,LIFE,5f132c87a20cca09bd4d8884,28/11/2001,2020-08-27_19h09.53.854,proactive3.1,2020.1.2,Win32,60,5f47c29a48bd2a1e651a6eb7,5f47f6d483588026e1bf7777,5,,,,,,carrot,,,,,,0,57,57,33,1,4,1,,,,,,,,,,,,,,,,,,,,,,,,,,,,,,,,,,,,,,,,,,,,,,,,,,,,,,,,,,,,,,,,,,,,,,,,,,,,,,,,,,,,,,,,,,,,,,,,,,,,,,,,,,,,,
,,,,,,,,,,stimuli/images/PICTURE_95.png,HONEY,5f132c87a20cca09bd4d8884,28/11/2001,2020-08-27_19h09.53.854,proactive3.1,2020.1.2,Win32,60,5f47c29a48bd2a1e651a6eb7,5f47f6d483588026e1bf7777,5,,,,,,suitcase,,,,,,0,58,58,44,1,5,1,,,,,,,,,,,,,,,,,,,,,,,,,,,,,,,,,,,,,,,,,,,,,,,,,,,,,,,,,,,,,,,,,,,,,,,,,,,,,,,,,,,,,,,,,,,,,,,,,,,,,,,,,,,,,
,,?,0.001745,0,,,,,,stimuli/images/PICTURE_449.png,DUDE,5f132c87a20cca09bd4d8884,28/11/2001,2020-08-27_19h09.53.854,proactive3.1,2020.1.2,Win32,60,5f47c29a48bd2a1e651a6eb7,5f47f6d483588026e1bf7777,5,,,,,,bench,,,,,,,,,,,2,1,0,0,0,17,1,,,,,,,,,,,,,,,,,,,,,,,,,,,,,,,,,,,,,,,,,,,,,,,,,,,,,,,,,,,,,,,,,,,,,,,,,,,,,,,,,,,,,,,,,,,,,,,,,,,,,,,,
,,?,0.001395,0,,,,,,stimuli/images/PICTURE_296.png,LOTS,5f132c87a20cca09bd4d8884,28/11/2001,2020-08-27_19h09.53.854,proactive3.1,2020.1.2,Win32,60,5f47c29a48bd2a1e651a6eb7,5f47f6d483588026e1bf7777,5,,,,,,bolt,,,,,,,,,,,1,1,0,1,1,9,1,,,,,,,,,,,,,,,,,,,,,,,,,,,,,,,,,,,,,,,,,,,,,,,,,,,,,,,,,,,,,,,,,,,,,,,,,,,,,,,,,,,,,,,,,,,,,,,,,,,,,,,,
,,?,0.001245,0,,,,,,stimuli/images/PICTURE_32.png,PILLS,5f132c87a20cca09bd4d8884,28/11/2001,2020-08-27_19h09.53.854,proactive3.1,2020.1.2,Win32,60,5f47c29a48bd2a1e651a6eb7,5f47f6d483588026e1bf7777,5,,,,,,crown,,,,,,,,,,,2,1,0,2,2,18,1,,,,,,,,,,,,,,,,,,,,,,,,,,,,,,,,,,,,,,,,,,,,,,,,,,,,,,,,,,,,,,,,,,,,,,,,,,,,,,,,,,,,,,,,,,,,,,,,,,,,,,,,
,,SAIL,10.697135,0,,,,,,stimuli/images/PICTURE_675.png,SALE,5f132c87a20cca09bd4d8884,28/11/2001,2020-08-27_19h09.53.854,proactive3.1,2020.1.2,Win32,60,5f47c29a48bd2a1e651a6eb7,5f47f6d483588026e1bf7777,5,,,,,,windmill,,,,,,,,,,,5,1,0,3,3,47,1,,,,,,,,,,,,,,,,,,,,,,,,,,,,,,,,,,,,,,,,,,,,,,,,,,,,,,,,,,,,,,,,,,,,,,,,,,,,,,,,,,,,,,,,,,,,,,,,,,,,,,,,
,,?,0.00138,0,,,,,,stimuli/images/PICTURE_405.png,YEAR,5f132c87a20cca09bd4d8884,28/11/2001,2020-08-27_19h09.53.854,proactive3.1,2020.1.2,Win32,60,5f47c29a48bd2a1e651a6eb7,5f47f6d483588026e1bf7777,5,,,,,,anchor,,,,,,,,,,,4,1,0,4,4,34,1,,,,,,,,,,,,,,,,,,,,,,,,,,,,,,,,,,,,,,,,,,,,,,,,,,,,,,,,,,,,,,,,,,,,,,,,,,,,,,,,,,,,,,,,,,,,,,,,,,,,,,,,
,,?,0.0012,0,,,,,,stimuli/images/PICTURE_744.png,WEAPON,5f132c87a20cca09bd4d8884,28/11/2001,2020-08-27_19h09.53.854,proactive3.1,2020.1.2,Win32,60,5f47c29a48bd2a1e651a6eb7,5f47f6d483588026e1bf7777,5,,,,,,ring,,,,,,,,,,,6,1,0,5,5,50,1,,,,,,,,,,,,,,,,,,,,,,,,,,,,,,,,,,,,,,,,,,,,,,,,,,,,,,,,,,,,,,,,,,,,,,,,,,,,,,,,,,,,,,,,,,,,,,,,,,,,,,,,
,,?,0.00123,0,,,,,,stimuli/images/PICTURE_469.png,AGENT,5f132c87a20cca09bd4d8884,28/11/2001,2020-08-27_19h09.53.854,proactive3.1,2020.1.2,Win32,60,5f47c29a48bd2a1e651a6eb7,5f47f6d483588026e1bf7777,5,,,,,,stool,,,,,,,,,,,2,1,0,6,6,16,1,,,,,,,,,,,,,,,,,,,,,,,,,,,,,,,,,,,,,,,,,,,,,,,,,,,,,,,,,,,,,,,,,,,,,,,,,,,,,,,,,,,,,,,,,,,,,,,,,,,,,,,,
,,?,0.001245,0,,,,,,stimuli/images/PICTURE_57.png,MOMENT,5f132c87a20cca09bd4d8884,28/11/2001,2020-08-27_19h09.53.854,proactive3.1,2020.1.2,Win32,60,5f47c29a48bd2a1e651a6eb7,5f47f6d483588026e1bf7777,5,,,,,,stamp,,,,,,,,,,,4,1,0,7,7,37,1,,,,,,,,,,,,,,,,,,,,,,,,,,,,,,,,,,,,,,,,,,,,,,,,,,,,,,,,,,,,,,,,,,,,,,,,,,,,,,,,,,,,,,,,,,,,,,,,,,,,,,,,
,,?,0.0012,0,,,,,,stimuli/images/PICTURE_564.png,BATH,5f132c87a20cca09bd4d8884,28/11/2001,2020-08-27_19h09.53.854,proactive3.1,2020.1.2,Win32,60,5f47c29a48bd2a1e651a6eb7,5f47f6d483588026e1bf7777,5,,,,,,spoon,,,,,,,,,,,3,1,0,8,8,26,1,,,,,,,,,,,,,,,,,,,,,,,,,,,,,,,,,,,,,,,,,,,,,,,,,,,,,,,,,,,,,,,,,,,,,,,,,,,,,,,,,,,,,,,,,,,,,,,,,,,,,,,,
,,?,0.00112,0,,,,,,stimuli/images/PICTURE_340.png,LETTER,5f132c87a20cca09bd4d8884,28/11/2001,2020-08-27_19h09.53.854,proactive3.1,2020.1.2,Win32,60,5f47c29a48bd2a1e651a6eb7,5f47f6d483588026e1bf7777,5,,,,,,mirror,,,,,,,,,,,3,1,0,9,9,24,1,,,,,,,,,,,,,,,,,,,,,,,,,,,,,,,,,,,,,,,,,,,,,,,,,,,,,,,,,,,,,,,,,,,,,,,,,,,,,,,,,,,,,,,,,,,,,,,,,,,,,,,,
,,?,0.001115,0,,,,,,stimuli/images/PICTURE_380.png,HONEY,5f132c87a20cca09bd4d8884,28/11/2001,2020-08-27_19h09.53.854,proactive3.1,2020.1.2,Win32,60,5f47c29a48bd2a1e651a6eb7,5f47f6d483588026e1bf7777,5,,,,,,gorilla,,,,,,,,,,,2,1,0,10,10,19,1,,,,,,,,,,,,,,,,,,,,,,,,,,,,,,,,,,,,,,,,,,,,,,,,,,,,,,,,,,,,,,,,,,,,,,,,,,,,,,,,,,,,,,,,,,,,,,,,,,,,,,,,
,,?,0.00126,0,,,,,,stimuli/images/PICTURE_339.png,CLIENT,5f132c87a20cca09bd4d8884,28/11/2001,2020-08-27_19h09.53.854,proactive3.1,2020.1.2,Win32,60,5f47c29a48bd2a1e651a6eb7,5f47f6d483588026e1bf7777,5,,,,,,backpack,,,,,,,,,,,2,1,0,11,11,11,1,,,,,,,,,,,,,,,,,,,,,,,,,,,,,,,,,,,,,,,,,,,,,,,,,,,,,,,,,,,,,,,,,,,,,,,,,,,,,,,,,,,,,,,,,,,,,,,,,,,,,,,,
,,?,0.001135,0,,,,,,stimuli/images/PICTURE_2.png,FLIGHT,5f132c87a20cca09bd4d8884,28/11/2001,2020-08-27_19h09.53.854,proactive3.1,2020.1.2,Win32,60,5f47c29a48bd2a1e651a6eb7,5f47f6d483588026e1bf7777,5,,,,,,tyre,,,,,,,,,,,2,1,0,12,12,15,1,,,,,,,,,,,,,,,,,,,,,,,,,,,,,,,,,,,,,,,,,,,,,,,,,,,,,,,,,,,,,,,,,,,,,,,,,,,,,,,,,,,,,,,,,,,,,,,,,,,,,,,,
,,?,0.00112,0,,,,,,stimuli/images/PICTURE_68.png,MILE,5f132c87a20cca09bd4d8884,28/11/2001,2020-08-27_19h09.53.854,proactive3.1,2020.1.2,Win32,60,5f47c29a48bd2a1e651a6eb7,5f47f6d483588026e1bf7777,5,,,,,,candle,,,,,,,,,,,6,1,0,13,13,51,1,,,,,,,,,,,,,,,,,,,,,,,,,,,,,,,,,,,,,,,,,,,,,,,,,,,,,,,,,,,,,,,,,,,,,,,,,,,,,,,,,,,,,,,,,,,,,,,,,,,,,,,,
,,?,0.001145,0,,,,,,stimuli/images/PICTURE_297.png,RIVER,5f132c87a20cca09bd4d8884,28/11/2001,2020-08-27_19h09.53.854,proactive3.1,2020.1.2,Win32,60,5f47c29a48bd2a1e651a6eb7,5f47f6d483588026e1bf7777,5,,,,,,aeroplane,,,,,,,,,,,4,1,0,14,14,39,1,,,,,,,,,,,,,,,,,,,,,,,,,,,,,,,,,,,,,,,,,,,,,,,,,,,,,,,,,,,,,,,,,,,,,,,,,,,,,,,,,,,,,,,,,,,,,,,,,,,,,,,,
,,?,0.00111,0,,,,,,stimuli/images/PICTURE_33.png,FRIEND,5f132c87a20cca09bd4d8884,28/11/2001,2020-08-27_19h09.53.854,proactive3.1,2020.1.2,Win32,60,5f47c29a48bd2a1e651a6eb7,5f47f6d483588026e1bf7777,5,,,,,,frame,,,,,,,,,,,1,1,0,15,15,8,1,,,,,,,,,,,,,,,,,,,,,,,,,,,,,,,,,,,,,,,,,,,,,,,,,,,,,,,,,,,,,,,,,,,,,,,,,,,,,,,,,,,,,,,,,,,,,,,,,,,,,,,,
,,?,0.00123,0,,,,,,stimuli/images/PICTURE_95.png,MILLER,5f132c87a20cca09bd4d8884,28/11/2001,2020-08-27_19h09.53.854,proactive3.1,2020.1.2,Win32,60,5f47c29a48bd2a1e651a6eb7,5f47f6d483588026e1bf7777,5,,,,,,suitcase,,,,,,,,,,,6,1,0,16,16,56,1,,,,,,,,,,,,,,,,,,,,,,,,,,,,,,,,,,,,,,,,,,,,,,,,,,,,,,,,,,,,,,,,,,,,,,,,,,,,,,,,,,,,,,,,,,,,,,,,,,,,,,,,
,,?,0.001195,0,,,,,,stimuli/images/PICTURE_42.png,BOYS,5f132c87a20cca09bd4d8884,28/11/2001,2020-08-27_19h09.53.854,proactive3.1,2020.1.2,Win32,60,5f47c29a48bd2a1e651a6eb7,5f47f6d483588026e1bf7777,5,,,,,,pear,,,,,,,,,,,6,1,0,17,17,55,1,,,,,,,,,,,,,,,,,,,,,,,,,,,,,,,,,,,,,,,,,,,,,,,,,,,,,,,,,,,,,,,,,,,,,,,,,,,,,,,,,,,,,,,,,,,,,,,,,,,,,,,,
,,GIRL,2.818775,1,,,,,,stimuli/images/PICTURE_487.png,GIRL,5f132c87a20cca09bd4d8884,28/11/2001,2020-08-27_19h09.53.854,proactive3.1,2020.1.2,Win32,60,5f47c29a48bd2a1e651a6eb7,5f47f6d483588026e1bf7777,5,,,,,,basket,,,,,,,,,,,5,1,0,18,18,45,1,,,,,,,,,,,,,,,,,,,,,,,,,,,,,,,,,,,,,,,,,,,,,,,,,,,,,,,,,,,,,,,,,,,,,,,,,,,,,,,,,,,,,,,,,,,,,,,,,,,,,,,,
,,?,0.00144,0,,,,,,stimuli/images/PICTURE_85.png,NATION,5f132c87a20cca09bd4d8884,28/11/2001,2020-08-27_19h09.53.854,proactive3.1,2020.1.2,Win32,60,5f47c29a48bd2a1e651a6eb7,5f47f6d483588026e1bf7777,5,,,,,,diamond,,,,,,,,,,,1,1,0,19,19,5,1,,,,,,,,,,,,,,,,,,,,,,,,,,,,,,,,,,,,,,,,,,,,,,,,,,,,,,,,,,,,,,,,,,,,,,,,,,,,,,,,,,,,,,,,,,,,,,,,,,,,,,,,
,,RIVER,3.8752,1,,,,,,stimuli/images/PICTURE_403.png,RIVER,5f132c87a20cca09bd4d8884,28/11/2001,2020-08-27_19h09.53.854,proactive3.1,2020.1.2,Win32,60,5f47c29a48bd2a1e651a6eb7,5f47f6d483588026e1bf7777,5,,,,,,cathedral,,,,,,,,,,,5,1,0,20,20,40,1,,,,,,,,,,,,,,,,,,,,,,,,,,,,,,,,,,,,,,,,,,,,,,,,,,,,,,,,,,,,,,,,,,,,,,,,,,,,,,,,,,,,,,,,,,,,,,,,,,,,,,,,
,,?,0.001405,0,,,,,,stimuli/images/PICTURE_504.png,YEAR,5f132c87a20cca09bd4d8884,28/11/2001,2020-08-27_19h09.53.854,proactive3.1,2020.1.2,Win32,60,5f47c29a48bd2a1e651a6eb7,5f47f6d483588026e1bf7777,5,,,,,,wheel,,,,,,,,,,,2,1,0,21,21,13,1,,,,,,,,,,,,,,,,,,,,,,,,,,,,,,,,,,,,,,,,,,,,,,,,,,,,,,,,,,,,,,,,,,,,,,,,,,,,,,,,,,,,,,,,,,,,,,,,,,,,,,,,
,,SERIES,3.309325,1,,,,,,stimuli/images/PICTURE_383.png,SERIES,5f132c87a20cca09bd4d8884,28/11/2001,2020-08-27_19h09.53.854,proactive3.1,2020.1.2,Win32,60,5f47c29a48bd2a1e651a6eb7,5f47f6d483588026e1bf7777,5,,,,,,coin,,,,,,,,,,,5,1,0,22,22,46,1,,,,,,,,,,,,,,,,,,,,,,,,,,,,,,,,,,,,,,,,,,,,,,,,,,,,,,,,,,,,,,,,,,,,,,,,,,,,,,,,,,,,,,,,,,,,,,,,,,,,,,,,
,,?,0.002335,0,,,,,,stimuli/images/PICTURE_504.png,COPS,5f132c87a20cca09bd4d8884,28/11/2001,2020-08-27_19h09.53.854,proactive3.1,2020.1.2,Win32,60,5f47c29a48bd2a1e651a6eb7,5f47f6d483588026e1bf7777,5,,,,,,wheel,,,,,,,,,,,6,1,0,23,23,52,1,,,,,,,,,,,,,,,,,,,,,,,,,,,,,,,,,,,,,,,,,,,,,,,,,,,,,,,,,,,,,,,,,,,,,,,,,,,,,,,,,,,,,,,,,,,,,,,,,,,,,,,,
,,?,0.001365,0,,,,,,stimuli/images/PICTURE_405.png,PLENTY,5f132c87a20cca09bd4d8884,28/11/2001,2020-08-27_19h09.53.854,proactive3.1,2020.1.2,Win32,60,5f47c29a48bd2a1e651a6eb7,5f47f6d483588026e1bf7777,5,,,,,,anchor,,,,,,,,,,,3,1,0,24,24,23,1,,,,,,,,,,,,,,,,,,,,,,,,,,,,,,,,,,,,,,,,,,,,,,,,,,,,,,,,,,,,,,,,,,,,,,,,,,,,,,,,,,,,,,,,,,,,,,,,,,,,,,,,
,,?,15.01109,0,,,,,,stimuli/images/PICTURE_177.png,WRITER,5f132c87a20cca09bd4d8884,28/11/2001,2020-08-27_19h09.53.854,proactive3.1,2020.1.2,Win32,60,5f47c29a48bd2a1e651a6eb7,5f47f6d483588026e1bf7777,5,,,,,,mushroom,,,,,,,,,,,5,1,0,25,25,41,1,,,,,,,,,,,,,,,,,,,,,,,,,,,,,,,,,,,,,,,,,,,,,,,,,,,,,,,,,,,,,,,,,,,,,,,,,,,,,,,,,,,,,,,,,,,,,,,,,,,,,,,,
,,?,0.00143,0,,,,,,stimuli/images/PICTURE_68.png,ROOF,5f132c87a20cca09bd4d8884,28/11/2001,2020-08-27_19h09.53.854,proactive3.1,2020.1.2,Win32,60,5f47c29a48bd2a1e651a6eb7,5f47f6d483588026e1bf7777,5,,,,,,candle,,,,,,,,,,,4,1,0,26,26,38,1,,,,,,,,,,,,,,,,,,,,,,,,,,,,,,,,,,,,,,,,,,,,,,,,,,,,,,,,,,,,,,,,,,,,,,,,,,,,,,,,,,,,,,,,,,,,,,,,,,,,,,,,
,,?,0.00115,0,,,,,,stimuli/images/PICTURE_203.png,GODS,5f132c87a20cca09bd4d8884,28/11/2001,2020-08-27_19h09.53.854,proactive3.1,2020.1.2,Win32,60,5f47c29a48bd2a1e651a6eb7,5f47f6d483588026e1bf7777,5,,,,,,cap,,,,,,,,,,,4,1,0,27,27,30,1,,,,,,,,,,,,,,,,,,,,,,,,,,,,,,,,,,,,,,,,,,,,,,,,,,,,,,,,,,,,,,,,,,,,,,,,,,,,,,,,,,,,,,,,,,,,,,,,,,,,,,,,
,,?,0.001165,0,,,,,,stimuli/images/PICTURE_491.png,RIVER,5f132c87a20cca09bd4d8884,28/11/2001,2020-08-27_19h09.53.854,proactive3.1,2020.1.2,Win32,60,5f47c29a48bd2a1e651a6eb7,5f47f6d483588026e1bf7777,5,,,,,,rug,,,,,,,,,,,1,1,0,28,28,6,1,,,,,,,,,,,,,,,,,,,,,,,,,,,,,,,,,,,,,,,,,,,,,,,,,,,,,,,,,,,,,,,,,,,,,,,,,,,,,,,,,,,,,,,,,,,,,,,,,,,,,,,,
,,?,0.001165,0,,,,,,stimuli/images/PICTURE_467.png,POLICY,5f132c87a20cca09bd4d8884,28/11/2001,2020-08-27_19h09.53.854,proactive3.1,2020.1.2,Win32,60,5f47c29a48bd2a1e651a6eb7,5f47f6d483588026e1bf7777,5,,,,,,peg,,,,,,,,,,,6,1,0,29,29,53,1,,,,,,,,,,,,,,,,,,,,,,,,,,,,,,,,,,,,,,,,,,,,,,,,,,,,,,,,,,,,,,,,,,,,,,,,,,,,,,,,,,,,,,,,,,,,,,,,,,,,,,,,
,,?,0.001145,0,,,,,,stimuli/images/PICTURE_327.png,SERIES,5f132c87a20cca09bd4d8884,28/11/2001,2020-08-27_19h09.53.854,proactive3.1,2020.1.2,Win32,60,5f47c29a48bd2a1e651a6eb7,5f47f6d483588026e1bf7777,5,,,,,,helmet,,,,,,,,,,,1,1,0,30,30,3,1,,,,,,,,,,,,,,,,,,,,,,,,,,,,,,,,,,,,,,,,,,,,,,,,,,,,,,,,,,,,,,,,,,,,,,,,,,,,,,,,,,,,,,,,,,,,,,,,,,,,,,,,
,,?,0.001245,0,,,,,,stimuli/images/PICTURE_654.png,MONTH,5f132c87a20cca09bd4d8884,28/11/2001,2020-08-27_19h09.53.854,proactive3.1,2020.1.2,Win32,60,5f47c29a48bd2a1e651a6eb7,5f47f6d483588026e1bf7777,5,,,,,,pencil,,,,,,,,,,,3,1,0,31,31,29,1,,,,,,,,,,,,,,,,,,,,,,,,,,,,,,,,,,,,,,,,,,,,,,,,,,,,,,,,,,,,,,,,,,,,,,,,,,,,,,,,,,,,,,,,,,,,,,,,,,,,,,,,
,,?,0.00452,0,,,,,,stimuli/images/PICTURE_340.png,VALLEY,5f132c87a20cca09bd4d8884,28/11/2001,2020-08-27_19h09.53.854,proactive3.1,2020.1.2,Win32,60,5f47c29a48bd2a1e651a6eb7,5f47f6d483588026e1bf7777,5,,,,,,mirror,,,,,,,,,,,6,1,0,32,32,54,1,,,,,,,,,,,,,,,,,,,,,,,,,,,,,,,,,,,,,,,,,,,,,,,,,,,,,,,,,,,,,,,,,,,,,,,,,,,,,,,,,,,,,,,,,,,,,,,,,,,,,,,,
,,?,0.00116,0,,,,,,stimuli/images/PICTURE_327.png,CASINO,5f132c87a20cca09bd4d8884,28/11/2001,2020-08-27_19h09.53.854,proactive3.1,2020.1.2,Win32,60,5f47c29a48bd2a1e651a6eb7,5f47f6d483588026e1bf7777,5,,,,,,helmet,,,,,,,,,,,3,1,0,33,33,20,1,,,,,,,,,,,,,,,,,,,,,,,,,,,,,,,,,,,,,,,,,,,,,,,,,,,,,,,,,,,,,,,,,,,,,,,,,,,,,,,,,,,,,,,,,,,,,,,,,,,,,,,,
,,?,0.00132,0,,,,,,stimuli/images/PICTURE_655.png,TOILET,5f132c87a20cca09bd4d8884,28/11/2001,2020-08-27_19h09.53.854,proactive3.1,2020.1.2,Win32,60,5f47c29a48bd2a1e651a6eb7,5f47f6d483588026e1bf7777,5,,,,,,megaphone,,,,,,,,,,,2,1,0,34,34,12,1,,,,,,,,,,,,,,,,,,,,,,,,,,,,,,,,,,,,,,,,,,,,,,,,,,,,,,,,,,,,,,,,,,,,,,,,,,,,,,,,,,,,,,,,,,,,,,,,,,,,,,,,
,,?,0.001135,0,,,,,,stimuli/images/PICTURE_491.png,GLASS,5f132c87a20cca09bd4d8884,28/11/2001,2020-08-27_19h09.53.854,proactive3.1,2020.1.2,Win32,60,5f47c29a48bd2a1e651a6eb7,5f47f6d483588026e1bf7777,5,,,,,,rug,,,,,,,,,,,2,1,0,35,35,14,1,,,,,,,,,,,,,,,,,,,,,,,,,,,,,,,,,,,,,,,,,,,,,,,,,,,,,,,,,,,,,,,,,,,,,,,,,,,,,,,,,,,,,,,,,,,,,,,,,,,,,,,,
,,?,0.001155,0,,,,,,stimuli/images/PICTURE_308.png,FAMILY,5f132c87a20cca09bd4d8884,28/11/2001,2020-08-27_19h09.53.854,proactive3.1,2020.1.2,Win32,60,5f47c29a48bd2a1e651a6eb7,5f47f6d483588026e1bf7777,5,,,,,,dice,,,,,,,,,,,4,1,0,36,36,36,1,,,,,,,,,,,,,,,,,,,,,,,,,,,,,,,,,,,,,,,,,,,,,,,,,,,,,,,,,,,,,,,,,,,,,,,,,,,,,,,,,,,,,,,,,,,,,,,,,,,,,,,,
,,?,0.00117,0,,,,,,stimuli/images/PICTURE_95.png,BOYS,5f132c87a20cca09bd4d8884,28/11/2001,2020-08-27_19h09.53.854,proactive3.1,2020.1.2,Win32,60,5f47c29a48bd2a1e651a6eb7,5f47f6d483588026e1bf7777,5,,,,,,suitcase,,,,,,,,,,,1,1,0,37,37,1,1,,,,,,,,,,,,,,,,,,,,,,,,,,,,,,,,,,,,,,,,,,,,,,,,,,,,,,,,,,,,,,,,,,,,,,,,,,,,,,,,,,,,,,,,,,,,,,,,,,,,,,,,
,,?,0.001175,0,,,,,,stimuli/images/PICTURE_708.png,RECORD,5f132c87a20cca09bd4d8884,28/11/2001,2020-08-27_19h09.53.854,proactive3.1,2020.1.2,Win32,60,5f47c29a48bd2a1e651a6eb7,5f47f6d483588026e1bf7777,5,,,,,,monkey,,,,,,,,,,,6,1,0,38,38,58,1,,,,,,,,,,,,,,,,,,,,,,,,,,,,,,,,,,,,,,,,,,,,,,,,,,,,,,,,,,,,,,,,,,,,,,,,,,,,,,,,,,,,,,,,,,,,,,,,,,,,,,,,
,,?,0.001195,0,,,,,,stimuli/images/PICTURE_750.png,HOTEL,5f132c87a20cca09bd4d8884,28/11/2001,2020-08-27_19h09.53.854,proactive3.1,2020.1.2,Win32,60,5f47c29a48bd2a1e651a6eb7,5f47f6d483588026e1bf7777,5,,,,,,kettle,,,,,,,,,,,3,1,0,39,39,27,1,,,,,,,,,,,,,,,,,,,,,,,,,,,,,,,,,,,,,,,,,,,,,,,,,,,,,,,,,,,,,,,,,,,,,,,,,,,,,,,,,,,,,,,,,,,,,,,,,,,,,,,,
,,?,0.00114,0,,,,,,stimuli/images/PICTURE_667.png,RIVER,5f132c87a20cca09bd4d8884,28/11/2001,2020-08-27_19h09.53.854,proactive3.1,2020.1.2,Win32,60,5f47c29a48bd2a1e651a6eb7,5f47f6d483588026e1bf7777,5,,,,,,daisy,,,,,,,,,,,2,1,0,40,40,10,1,,,,,,,,,,,,,,,,,,,,,,,,,,,,,,,,,,,,,,,,,,,,,,,,,,,,,,,,,,,,,,,,,,,,,,,,,,,,,,,,,,,,,,,,,,,,,,,,,,,,,,,,
,,LOTS,2.96271,1,,,,,,stimuli/images/PICTURE_233.png,LOTS,5f132c87a20cca09bd4d8884,28/11/2001,2020-08-27_19h09.53.854,proactive3.1,2020.1.2,Win32,60,5f47c29a48bd2a1e651a6eb7,5f47f6d483588026e1bf7777,5,,,,,,salt,,,,,,,,,,,5,1,0,41,41,42,1,,,,,,,,,,,,,,,,,,,,,,,,,,,,,,,,,,,,,,,,,,,,,,,,,,,,,,,,,,,,,,,,,,,,,,,,,,,,,,,,,,,,,,,,,,,,,,,,,,,,,,,,
,,?,0.001495,0,,,,,,stimuli/images/PICTURE_32.png,KIND,5f132c87a20cca09bd4d8884,28/11/2001,2020-08-27_19h09.53.854,proactive3.1,2020.1.2,Win32,60,5f47c29a48bd2a1e651a6eb7,5f47f6d483588026e1bf7777,5,,,,,,crown,,,,,,,,,,,4,1,0,42,42,35,1,,,,,,,,,,,,,,,,,,,,,,,,,,,,,,,,,,,,,,,,,,,,,,,,,,,,,,,,,,,,,,,,,,,,,,,,,,,,,,,,,,,,,,,,,,,,,,,,,,,,,,,,
,,?,0.001215,0,,,,,,stimuli/images/PICTURE_147.png,YEAR,5f132c87a20cca09bd4d8884,28/11/2001,2020-08-27_19h09.53.854,proactive3.1,2020.1.2,Win32,60,5f47c29a48bd2a1e651a6eb7,5f47f6d483588026e1bf7777,5,,,,,,hanger,,,,,,,,,,,3,1,0,43,43,21,1,,,,,,,,,,,,,,,,,,,,,,,,,,,,,,,,,,,,,,,,,,,,,,,,,,,,,,,,,,,,,,,,,,,,,,,,,,,,,,,,,,,,,,,,,,,,,,,,,,,,,,,,
,,TOILET,4.13878,1,,,,,,stimuli/images/PICTURE_85.png,TOILET,5f132c87a20cca09bd4d8884,28/11/2001,2020-08-27_19h09.53.854,proactive3.1,2020.1.2,Win32,60,5f47c29a48bd2a1e651a6eb7,5f47f6d483588026e1bf7777,5,,,,,,diamond,,,,,,,,,,,5,1,0,44,44,48,1,,,,,,,,,,,,,,,,,,,,,,,,,,,,,,,,,,,,,,,,,,,,,,,,,,,,,,,,,,,,,,,,,,,,,,,,,,,,,,,,,,,,,,,,,,,,,,,,,,,,,,,,
,,?,0.00154,0,,,,,,stimuli/images/PICTURE_383.png,WRITER,5f132c87a20cca09bd4d8884,28/11/2001,2020-08-27_19h09.53.854,proactive3.1,2020.1.2,Win32,60,5f47c29a48bd2a1e651a6eb7,5f47f6d483588026e1bf7777,5,,,,,,coin,,,,,,,,,,,3,1,0,45,45,28,1,,,,,,,,,,,,,,,,,,,,,,,,,,,,,,,,,,,,,,,,,,,,,,,,,,,,,,,,,,,,,,,,,,,,,,,,,,,,,,,,,,,,,,,,,,,,,,,,,,,,,,,,
,,?,0.001175,0,,,,,,stimuli/images/PICTURE_403.png,TOILET,5f132c87a20cca09bd4d8884,28/11/2001,2020-08-27_19h09.53.854,proactive3.1,2020.1.2,Win32,60,5f47c29a48bd2a1e651a6eb7,5f47f6d483588026e1bf7777,5,,,,,,cathedral,,,,,,,,,,,3,1,0,46,46,25,1,,,,,,,,,,,,,,,,,,,,,,,,,,,,,,,,,,,,,,,,,,,,,,,,,,,,,,,,,,,,,,,,,,,,,,,,,,,,,,,,,,,,,,,,,,,,,,,,,,,,,,,,
,,?,0.001185,0,,,,,,stimuli/images/PICTURE_208.png,SYSTEM,5f132c87a20cca09bd4d8884,28/11/2001,2020-08-27_19h09.53.854,proactive3.1,2020.1.2,Win32,60,5f47c29a48bd2a1e651a6eb7,5f47f6d483588026e1bf7777,5,,,,,,microphone,,,,,,,,,,,4,1,0,47,47,32,1,,,,,,,,,,,,,,,,,,,,,,,,,,,,,,,,,,,,,,,,,,,,,,,,,,,,,,,,,,,,,,,,,,,,,,,,,,,,,,,,,,,,,,,,,,,,,,,,,,,,,,,,
,,?,0.00114,0,,,,,,stimuli/images/PICTURE_108.png,FLIGHT,5f132c87a20cca09bd4d8884,28/11/2001,2020-08-27_19h09.53.854,proactive3.1,2020.1.2,Win32,60,5f47c29a48bd2a1e651a6eb7,5f47f6d483588026e1bf7777,5,,,,,,calendar,,,,,,,,,,,6,1,0,48,48,59,1,,,,,,,,,,,,,,,,,,,,,,,,,,,,,,,,,,,,,,,,,,,,,,,,,,,,,,,,,,,,,,,,,,,,,,,,,,,,,,,,,,,,,,,,,,,,,,,,,,,,,,,,
,,APPLE,9.42797,1,,,,,,stimuli/images/PICTURE_677.png,APPLE,5f132c87a20cca09bd4d8884,28/11/2001,2020-08-27_19h09.53.854,proactive3.1,2020.1.2,Win32,60,5f47c29a48bd2a1e651a6eb7,5f47f6d483588026e1bf7777,5,,,,,,map,,,,,,,,,,,5,1,0,49,49,43,1,,,,,,,,,,,,,,,,,,,,,,,,,,,,,,,,,,,,,,,,,,,,,,,,,,,,,,,,,,,,,,,,,,,,,,,,,,,,,,,,,,,,,,,,,,,,,,,,,,,,,,,,
,,?,0.001585,0,,,,,,stimuli/images/PICTURE_203.png,NIGHT,5f132c87a20cca09bd4d8884,28/11/2001,2020-08-27_19h09.53.854,proactive3.1,2020.1.2,Win32,60,5f47c29a48bd2a1e651a6eb7,5f47f6d483588026e1bf7777,5,,,,,,cap,,,,,,,,,,,1,1,0,50,50,2,1,,,,,,,,,,,,,,,,,,,,,,,,,,,,,,,,,,,,,,,,,,,,,,,,,,,,,,,,,,,,,,,,,,,,,,,,,,,,,,,,,,,,,,,,,,,,,,,,,,,,,,,,
,,?,0.00129,0,,,,,,stimuli/images/PICTURE_380.png,CANDY,5f132c87a20cca09bd4d8884,28/11/2001,2020-08-27_19h09.53.854,proactive3.1,2020.1.2,Win32,60,5f47c29a48bd2a1e651a6eb7,5f47f6d483588026e1bf7777,5,,,,,,gorilla,,,,,,,,,,,1,1,0,51,51,0,1,,,,,,,,,,,,,,,,,,,,,,,,,,,,,,,,,,,,,,,,,,,,,,,,,,,,,,,,,,,,,,,,,,,,,,,,,,,,,,,,,,,,,,,,,,,,,,,,,,,,,,,,
,,?,0.001285,0,,,,,,stimuli/images/PICTURE_285.png,LIFE,5f132c87a20cca09bd4d8884,28/11/2001,2020-08-27_19h09.53.854,proactive3.1,2020.1.2,Win32,60,5f47c29a48bd2a1e651a6eb7,5f47f6d483588026e1bf7777,5,,,,,,carrot,,,,,,,,,,,4,1,0,52,52,33,1,,,,,,,,,,,,,,,,,,,,,,,,,,,,,,,,,,,,,,,,,,,,,,,,,,,,,,,,,,,,,,,,,,,,,,,,,,,,,,,,,,,,,,,,,,,,,,,,,,,,,,,,
,,?,0.00134,0,,,,,,stimuli/images/PICTURE_403.png,WRITER,5f132c87a20cca09bd4d8884,28/11/2001,2020-08-27_19h09.53.854,proactive3.1,2020.1.2,Win32,60,5f47c29a48bd2a1e651a6eb7,5f47f6d483588026e1bf7777,5,,,,,,cathedral,,,,,,,,,,,4,1,0,53,53,31,1,,,,,,,,,,,,,,,,,,,,,,,,,,,,,,,,,,,,,,,,,,,,,,,,,,,,,,,,,,,,,,,,,,,,,,,,,,,,,,,,,,,,,,,,,,,,,,,,,,,,,,,,
,,?,0.004795,0,,,,,,stimuli/images/PICTURE_296.png,LIFE,5f132c87a20cca09bd4d8884,28/11/2001,2020-08-27_19h09.53.854,proactive3.1,2020.1.2,Win32,60,5f47c29a48bd2a1e651a6eb7,5f47f6d483588026e1bf7777,5,,,,,,bolt,,,,,,,,,,,6,1,0,54,54,57,1,,,,,,,,,,,,,,,,,,,,,,,,,,,,,,,,,,,,,,,,,,,,,,,,,,,,,,,,,,,,,,,,,,,,,,,,,,,,,,,,,,,,,,,,,,,,,,,,,,,,,,,,
,,ARTIST,4.573705,1,,,,,,stimuli/images/PICTURE_504.png,ARTIST,5f132c87a20cca09bd4d8884,28/11/2001,2020-08-27_19h09.53.854,proactive3.1,2020.1.2,Win32,60,5f47c29a48bd2a1e651a6eb7,5f47f6d483588026e1bf7777,5,,,,,,wheel,,,,,,,,,,,5,1,0,55,55,49,1,,,,,,,,,,,,,,,,,,,,,,,,,,,,,,,,,,,,,,,,,,,,,,,,,,,,,,,,,,,,,,,,,,,,,,,,,,,,,,,,,,,,,,,,,,,,,,,,,,,,,,,,
,,?,0.001465,0,,,,,,stimuli/images/PICTURE_108.png,POLICY,5f132c87a20cca09bd4d8884,28/11/2001,2020-08-27_19h09.53.854,proactive3.1,2020.1.2,Win32,60,5f47c29a48bd2a1e651a6eb7,5f47f6d483588026e1bf7777,5,,,,,,calendar,,,,,,,,,,,3,1,0,56,56,22,1,,,,,,,,,,,,,,,,,,,,,,,,,,,,,,,,,,,,,,,,,,,,,,,,,,,,,,,,,,,,,,,,,,,,,,,,,,,,,,,,,,,,,,,,,,,,,,,,,,,,,,,,
,,HONEY,4.774115,1,,,,,,stimuli/images/PICTURE_95.png,HONEY,5f132c87a20cca09bd4d8884,28/11/2001,2020-08-27_19h09.53.854,proactive3.1,2020.1.2,Win32,60,5f47c29a48bd2a1e651a6eb7,5f47f6d483588026e1bf7777,5,,,,,,suitcase,,,,,,,,,,,5,1,0,57,57,44,1,,,,,,,,,,,,,,,,,,,,,,,,,,,,,,,,,,,,,,,,,,,,,,,,,,,,,,,,,,,,,,,,,,,,,,,,,,,,,,,,,,,,,,,,,,,,,,,,,,,,,,,,
,,?,0.00143,0,,,,,,stimuli/images/PICTURE_685.png,PENNY,5f132c87a20cca09bd4d8884,28/11/2001,2020-08-27_19h09.53.854,proactive3.1,2020.1.2,Win32,60,5f47c29a48bd2a1e651a6eb7,5f47f6d483588026e1bf7777,5,,,,,,goose,,,,,,,,,,,1,1,0,58,58,4,1,,,,,,,,,,,,,,,,,,,,,,,,,,,,,,,,,,,,,,,,,,,,,,,,,,,,,,,,,,,,,,,,,,,,,,,,,,,,,,,,,,,,,,,,,,,,,,,,,,,,,,,,
,,?,0.00115,0,,,,,,stimuli/images/PICTURE_147.png,WOMEN,5f132c87a20cca09bd4d8884,28/11/2001,2020-08-27_19h09.53.854,proactive3.1,2020.1.2,Win32,60,5f47c29a48bd2a1e651a6eb7,5f47f6d483588026e1bf7777,5,,,,,,hanger,,,,,,,,,,,1,1,0,59,59,7,1,,,,,,,,,,,,,,,,,,,,,,,,,,,,,,,,,,,,,,,,,,,,,,,,,,,,,,,,,,,,,,,,,,,,,,,,,,,,,,,,,,,,,,,,,,,,,,,,,,,,,,,,
,,,,,,,,,,,,5f132c87a20cca09bd4d8884,28/11/2001,2020-08-27_19h09.53.854,proactive3.1,2020.1.2,Win32,60,5f47c29a48bd2a1e651a6eb7,5f47f6d483588026e1bf7777,5,,,,,,,,,,,,,,,,,,,,,,,,0,1,1,1,1,stimuli/learn-block2.csv,,,,,,,,,,,,,,,,,,,,,,,,,,,,,,,,,,,,,,,,,,,,,,,,,,,,,,,,,,,,,,,,,,,,,,,,,,,,,,,,,,,,,,,,,,,,,,,,,,
,,,,,,,,,,stimuli/images/PICTURE_667.png,PLENTY,5f132c87a20cca09bd4d8884,28/11/2001,2020-08-27_19h09.53.854,proactive3.1,2020.1.2,Win32,60,5f47c29a48bd2a1e651a6eb7,5f47f6d483588026e1bf7777,5,,,,,,daisy,,,,,,0,0,0,41,1,5,0,,,,,,,,,,,,,,,,,,,,,,,,,,,,,,,,,,,,,,,,,,,,,,,,,,,,,,,,,,,,,,,,,,,,,,,,,,,,,,,,,,,,,,,,,,,,,,,,,,,,,,,,,,,,,
,,,,,,,,,,stimuli/images/PICTURE_449.png,THING,5f132c87a20cca09bd4d8884,28/11/2001,2020-08-27_19h09.53.854,proactive3.1,2020.1.2,Win32,60,5f47c29a48bd2a1e651a6eb7,5f47f6d483588026e1bf7777,5,,,,,,bench,,,,,,0,1,1,59,1,6,0,,,,,,,,,,,,,,,,,,,,,,,,,,,,,,,,,,,,,,,,,,,,,,,,,,,,,,,,,,,,,,,,,,,,,,,,,,,,,,,,,,,,,,,,,,,,,,,,,,,,,,,,,,,,,
,,,,,,,,,,stimuli/images/PICTURE_203.png,ARTIST,5f132c87a20cca09bd4d8884,28/11/2001,2020-08-27_19h09.53.854,proactive3.1,2020.1.2,Win32,60,5f47c29a48bd2a1e651a6eb7,5f47f6d483588026e1bf7777,5,,,,,,cap,,,,,,0,2,2,26,1,3,0,,,,,,,,,,,,,,,,,,,,,,,,,,,,,,,,,,,,,,,,,,,,,,,,,,,,,,,,,,,,,,,,,,,,,,,,,,,,,,,,,,,,,,,,,,,,,,,,,,,,,,,,,,,,,
,,,,,,,,,,stimuli/images/PICTURE_470.png,CASINO,5f132c87a20cca09bd4d8884,28/11/2001,2020-08-27_19h09.53.854,proactive3.1,2020.1.2,Win32,60,5f47c29a48bd2a1e651a6eb7,5f47f6d483588026e1bf7777,5,,,,,,motorbike,,,,,,0,3,3,36,1,4,0,,,,,,,,,,,,,,,,,,,,,,,,,,,,,,,,,,,,,,,,,,,,,,,,,,,,,,,,,,,,,,,,,,,,,,,,,,,,,,,,,,,,,,,,,,,,,,,,,,,,,,,,,,,,,
,,,,,,,,,,stimuli/images/PICTURE_467.png,DEMON,5f132c87a20cca09bd4d8884,28/11/2001,2020-08-27_19h09.53.854,proactive3.1,2020.1.2,Win32,60,5f47c29a48bd2a1e651a6eb7,5f47f6d483588026e1bf7777,5,,,,,,peg,,,,,,0,4,4,23,1,3,0,,,,,,,,,,,,,,,,,,,,,,,,,,,,,,,,,,,,,,,,,,,,,,,,,,,,,,,,,,,,,,,,,,,,,,,,,,,,,,,,,,,,,,,,,,,,,,,,,,,,,,,,,,,,,
,,,,,,,,,,stimuli/images/PICTURE_311.png,BEAUTY,5f132c87a20cca09bd4d8884,28/11/2001,2020-08-27_19h09.53.854,proactive3.1,2020.1.2,Win32,60,5f47c29a48bd2a1e651a6eb7,5f47f6d483588026e1bf7777,5,,,,,,razor,,,,,,0,5,5,13,1,2,0,,,,,,,,,,,,,,,,,,,,,,,,,,,,,,,,,,,,,,,,,,,,,,,,,,,,,,,,,,,,,,,,,,,,,,,,,,,,,,,,,,,,,,,,,,,,,,,,,,,,,,,,,,,,,
,,,,,,,,,,stimuli/images/PICTURE_302.png,FAMILY,5f132c87a20cca09bd4d8884,28/11/2001,2020-08-27_19h09.53.854,proactive3.1,2020.1.2,Win32,60,5f47c29a48bd2a1e651a6eb7,5f47f6d483588026e1bf7777,5,,,,,,taxi,,,,,,0,6,6,18,1,2,0,,,,,,,,,,,,,,,,,,,,,,,,,,,,,,,,,,,,,,,,,,,,,,,,,,,,,,,,,,,,,,,,,,,,,,,,,,,,,,,,,,,,,,,,,,,,,,,,,,,,,,,,,,,,,
,,,,,,,,,,stimuli/images/PICTURE_675.png,WEAPON,5f132c87a20cca09bd4d8884,28/11/2001,2020-08-27_19h09.53.854,proactive3.1,2020.1.2,Win32,60,5f47c29a48bd2a1e651a6eb7,5f47f6d483588026e1bf7777,5,,,,,,windmill,,,,,,0,7,7,32,1,4,0,,,,,,,,,,,,,,,,,,,,,,,,,,,,,,,,,,,,,,,,,,,,,,,,,,,,,,,,,,,,,,,,,,,,,,,,,,,,,,,,,,,,,,,,,,,,,,,,,,,,,,,,,,,,,
,,,,,,,,,,stimuli/images/PICTURE_151.png,GIRL,5f132c87a20cca09bd4d8884,28/11/2001,2020-08-27_19h09.53.854,proactive3.1,2020.1.2,Win32,60,5f47c29a48bd2a1e651a6eb7,5f47f6d483588026e1bf7777,5,,,,,,tray,,,,,,0,8,8,19,1,2,0,,,,,,,,,,,,,,,,,,,,,,,,,,,,,,,,,,,,,,,,,,,,,,,,,,,,,,,,,,,,,,,,,,,,,,,,,,,,,,,,,,,,,,,,,,,,,,,,,,,,,,,,,,,,,
,,,,,,,,,,stimuli/images/PICTURE_453.png,DUDE,5f132c87a20cca09bd4d8884,28/11/2001,2020-08-27_19h09.53.854,proactive3.1,2020.1.2,Win32,60,5f47c29a48bd2a1e651a6eb7,5f47f6d483588026e1bf7777,5,,,,,,scissors,,,,,,0,9,9,27,1,3,0,,,,,,,,,,,,,,,,,,,,,,,,,,,,,,,,,,,,,,,,,,,,,,,,,,,,,,,,,,,,,,,,,,,,,,,,,,,,,,,,,,,,,,,,,,,,,,,,,,,,,,,,,,,,,
,,,,,,,,,,stimuli/images/PICTURE_314.png,GODS,5f132c87a20cca09bd4d8884,28/11/2001,2020-08-27_19h09.53.854,proactive3.1,2020.1.2,Win32,60,5f47c29a48bd2a1e651a6eb7,5f47f6d483588026e1bf7777,5,,,,,,perfume,,,,,,0,10,10,11,1,2,0,,,,,,,,,,,,,,,,,,,,,,,,,,,,,,,,,,,,,,,,,,,,,,,,,,,,,,,,,,,,,,,,,,,,,,,,,,,,,,,,,,,,,,,,,,,,,,,,,,,,,,,,,,,,,
,,,,,,,,,,stimuli/images/PICTURE_95.png,STYLE,5f132c87a20cca09bd4d8884,28/11/2001,2020-08-27_19h09.53.854,proactive3.1,2020.1.2,Win32,60,5f47c29a48bd2a1e651a6eb7,5f47f6d483588026e1bf7777,5,,,,,,suitcase,,,,,,0,11,11,25,1,3,0,,,,,,,,,,,,,,,,,,,,,,,,,,,,,,,,,,,,,,,,,,,,,,,,,,,,,,,,,,,,,,,,,,,,,,,,,,,,,,,,,,,,,,,,,,,,,,,,,,,,,,,,,,,,,
,,,,,,,,,,stimuli/images/PICTURE_708.png,PENNY,5f132c87a20cca09bd4d8884,28/11/2001,2020-08-27_19h09.53.854,proactive3.1,2020.1.2,Win32,60,5f47c29a48bd2a1e651a6eb7,5f47f6d483588026e1bf7777,5,,,,,,monkey,,,,,,0,12,12,31,1,4,0,,,,,,,,,,,,,,,,,,,,,,,,,,,,,,,,,,,,,,,,,,,,,,,,,,,,,,,,,,,,,,,,,,,,,,,,,,,,,,,,,,,,,,,,,,,,,,,,,,,,,,,,,,,,,
,,,,,,,,,,stimuli/images/PICTURE_248.png,DOZEN,5f132c87a20cca09bd4d8884,28/11/2001,2020-08-27_19h09.53.854,proactive3.1,2020.1.2,Win32,60,5f47c29a48bd2a1e651a6eb7,5f47f6d483588026e1bf7777,5,,,,,,cart,,,,,,0,13,13,39,1,4,0,,,,,,,,,,,,,,,,,,,,,,,,,,,,,,,,,,,,,,,,,,,,,,,,,,,,,,,,,,,,,,,,,,,,,,,,,,,,,,,,,,,,,,,,,,,,,,,,,,,,,,,,,,,,,
,,,,,,,,,,stimuli/images/PICTURE_491.png,ROOF,5f132c87a20cca09bd4d8884,28/11/2001,2020-08-27_19h09.53.854,proactive3.1,2020.1.2,Win32,60,5f47c29a48bd2a1e651a6eb7,5f47f6d483588026e1bf7777,5,,,,,,rug,,,,,,0,14,14,24,1,3,0,,,,,,,,,,,,,,,,,,,,,,,,,,,,,,,,,,,,,,,,,,,,,,,,,,,,,,,,,,,,,,,,,,,,,,,,,,,,,,,,,,,,,,,,,,,,,,,,,,,,,,,,,,,,,
,,,,,,,,,,stimuli/images/PICTURE_509.png,PHOTO,5f132c87a20cca09bd4d8884,28/11/2001,2020-08-27_19h09.53.854,proactive3.1,2020.1.2,Win32,60,5f47c29a48bd2a1e651a6eb7,5f47f6d483588026e1bf7777,5,,,,,,telephone,,,,,,0,15,15,21,1,3,0,,,,,,,,,,,,,,,,,,,,,,,,,,,,,,,,,,,,,,,,,,,,,,,,,,,,,,,,,,,,,,,,,,,,,,,,,,,,,,,,,,,,,,,,,,,,,,,,,,,,,,,,,,,,,
,,,,,,,,,,stimuli/images/PICTURE_147.png,MOMENT,5f132c87a20cca09bd4d8884,28/11/2001,2020-08-27_19h09.53.854,proactive3.1,2020.1.2,Win32,60,5f47c29a48bd2a1e651a6eb7,5f47f6d483588026e1bf7777,5,,,,,,hanger,,,,,,0,16,16,51,1,6,0,,,,,,,,,,,,,,,,,,,,,,,,,,,,,,,,,,,,,,,,,,,,,,,,,,,,,,,,,,,,,,,,,,,,,,,,,,,,,,,,,,,,,,,,,,,,,,,,,,,,,,,,,,,,,
,,,,,,,,,,stimuli/images/PICTURE_285.png,ADVICE,5f132c87a20cca09bd4d8884,28/11/2001,2020-08-27_19h09.53.854,proactive3.1,2020.1.2,Win32,60,5f47c29a48bd2a1e651a6eb7,5f47f6d483588026e1bf7777,5,,,,,,carrot,,,,,,0,17,17,12,1,2,0,,,,,,,,,,,,,,,,,,,,,,,,,,,,,,,,,,,,,,,,,,,,,,,,,,,,,,,,,,,,,,,,,,,,,,,,,,,,,,,,,,,,,,,,,,,,,,,,,,,,,,,,,,,,,
,,,,,,,,,,stimuli/images/PICTURE_453.png,PLENTY,5f132c87a20cca09bd4d8884,28/11/2001,2020-08-27_19h09.53.854,proactive3.1,2020.1.2,Win32,60,5f47c29a48bd2a1e651a6eb7,5f47f6d483588026e1bf7777,5,,,,,,scissors,,,,,,0,18,18,56,1,6,0,,,,,,,,,,,,,,,,,,,,,,,,,,,,,,,,,,,,,,,,,,,,,,,,,,,,,,,,,,,,,,,,,,,,,,,,,,,,,,,,,,,,,,,,,,,,,,,,,,,,,,,,,,,,,
,,,,,,,,,,stimuli/images/PICTURE_233.png,IDEAS,5f132c87a20cca09bd4d8884,28/11/2001,2020-08-27_19h09.53.854,proactive3.1,2020.1.2,Win32,60,5f47c29a48bd2a1e651a6eb7,5f47f6d483588026e1bf7777,5,,,,,,salt,,,,,,0,19,19,28,1,3,0,,,,,,,,,,,,,,,,,,,,,,,,,,,,,,,,,,,,,,,,,,,,,,,,,,,,,,,,,,,,,,,,,,,,,,,,,,,,,,,,,,,,,,,,,,,,,,,,,,,,,,,,,,,,,
,,,,,,,,,,stimuli/images/PICTURE_677.png,MILE,5f132c87a20cca09bd4d8884,28/11/2001,2020-08-27_19h09.53.854,proactive3.1,2020.1.2,Win32,60,5f47c29a48bd2a1e651a6eb7,5f47f6d483588026e1bf7777,5,,,,,,map,,,,,,0,20,20,30,1,4,0,,,,,,,,,,,,,,,,,,,,,,,,,,,,,,,,,,,,,,,,,,,,,,,,,,,,,,,,,,,,,,,,,,,,,,,,,,,,,,,,,,,,,,,,,,,,,,,,,,,,,,,,,,,,,
,,,,,,,,,,stimuli/images/PICTURE_504.png,BODY,5f132c87a20cca09bd4d8884,28/11/2001,2020-08-27_19h09.53.854,proactive3.1,2020.1.2,Win32,60,5f47c29a48bd2a1e651a6eb7,5f47f6d483588026e1bf7777,5,,,,,,wheel,,,,,,0,21,21,8,1,1,0,,,,,,,,,,,,,,,,,,,,,,,,,,,,,,,,,,,,,,,,,,,,,,,,,,,,,,,,,,,,,,,,,,,,,,,,,,,,,,,,,,,,,,,,,,,,,,,,,,,,,,,,,,,,,
,,,,,,,,,,stimuli/images/PICTURE_688.png,WOMEN,5f132c87a20cca09bd4d8884,28/11/2001,2020-08-27_19h09.53.854,proactive3.1,2020.1.2,Win32,60,5f47c29a48bd2a1e651a6eb7,5f47f6d483588026e1bf7777,5,,,,,,runner,,,,,,0,22,22,14,1,2,0,,,,,,,,,,,,,,,,,,,,,,,,,,,,,,,,,,,,,,,,,,,,,,,,,,,,,,,,,,,,,,,,,,,,,,,,,,,,,,,,,,,,,,,,,,,,,,,,,,,,,,,,,,,,,
,,,,,,,,,,stimuli/images/PICTURE_208.png,THING,5f132c87a20cca09bd4d8884,28/11/2001,2020-08-27_19h09.53.854,proactive3.1,2020.1.2,Win32,60,5f47c29a48bd2a1e651a6eb7,5f47f6d483588026e1bf7777,5,,,,,,microphone,,,,,,0,23,23,47,1,5,0,,,,,,,,,,,,,,,,,,,,,,,,,,,,,,,,,,,,,,,,,,,,,,,,,,,,,,,,,,,,,,,,,,,,,,,,,,,,,,,,,,,,,,,,,,,,,,,,,,,,,,,,,,,,,
,,,,,,,,,,stimuli/images/PICTURE_123.png,ADVICE,5f132c87a20cca09bd4d8884,28/11/2001,2020-08-27_19h09.53.854,proactive3.1,2020.1.2,Win32,60,5f47c29a48bd2a1e651a6eb7,5f47f6d483588026e1bf7777,5,,,,,,dart,,,,,,0,24,24,50,1,6,0,,,,,,,,,,,,,,,,,,,,,,,,,,,,,,,,,,,,,,,,,,,,,,,,,,,,,,,,,,,,,,,,,,,,,,,,,,,,,,,,,,,,,,,,,,,,,,,,,,,,,,,,,,,,,
,,,,,,,,,,stimuli/images/PICTURE_233.png,WOMEN,5f132c87a20cca09bd4d8884,28/11/2001,2020-08-27_19h09.53.854,proactive3.1,2020.1.2,Win32,60,5f47c29a48bd2a1e651a6eb7,5f47f6d483588026e1bf7777,5,,,,,,salt,,,,,,0,25,25,38,1,4,0,,,,,,,,,,,,,,,,,,,,,,,,,,,,,,,,,,,,,,,,,,,,,,,,,,,,,,,,,,,,,,,,,,,,,,,,,,,,,,,,,,,,,,,,,,,,,,,,,,,,,,,,,,,,,
,,,,,,,,,,stimuli/images/PICTURE_491.png,WRITER,5f132c87a20cca09bd4d8884,28/11/2001,2020-08-27_19h09.53.854,proactive3.1,2020.1.2,Win32,60,5f47c29a48bd2a1e651a6eb7,5f47f6d483588026e1bf7777,5,,,,,,rug,,,,,,0,26,26,57,1,6,0,,,,,,,,,,,,,,,,,,,,,,,,,,,,,,,,,,,,,,,,,,,,,,,,,,,,,,,,,,,,,,,,,,,,,,,,,,,,,,,,,,,,,,,,,,,,,,,,,,,,,,,,,,,,,
,,,,,,,,,,stimuli/images/PICTURE_123.png,ADVICE,5f132c87a20cca09bd4d8884,28/11/2001,2020-08-27_19h09.53.854,proactive3.1,2020.1.2,Win32,60,5f47c29a48bd2a1e651a6eb7,5f47f6d483588026e1bf7777,5,,,,,,dart,,,,,,0,27,27,40,1,5,0,,,,,,,,,,,,,,,,,,,,,,,,,,,,,,,,,,,,,,,,,,,,,,,,,,,,,,,,,,,,,,,,,,,,,,,,,,,,,,,,,,,,,,,,,,,,,,,,,,,,,,,,,,,,,
,,,,,,,,,,stimuli/images/PICTURE_654.png,VALLEY,5f132c87a20cca09bd4d8884,28/11/2001,2020-08-27_19h09.53.854,proactive3.1,2020.1.2,Win32,60,5f47c29a48bd2a1e651a6eb7,5f47f6d483588026e1bf7777,5,,,,,,pencil,,,,,,0,28,28,1,1,1,0,,,,,,,,,,,,,,,,,,,,,,,,,,,,,,,,,,,,,,,,,,,,,,,,,,,,,,,,,,,,,,,,,,,,,,,,,,,,,,,,,,,,,,,,,,,,,,,,,,,,,,,,,,,,,
,,,,,,,,,,stimuli/images/PICTURE_208.png,LOTS,5f132c87a20cca09bd4d8884,28/11/2001,2020-08-27_19h09.53.854,proactive3.1,2020.1.2,Win32,60,5f47c29a48bd2a1e651a6eb7,5f47f6d483588026e1bf7777,5,,,,,,microphone,,,,,,0,29,29,10,1,2,0,,,,,,,,,,,,,,,,,,,,,,,,,,,,,,,,,,,,,,,,,,,,,,,,,,,,,,,,,,,,,,,,,,,,,,,,,,,,,,,,,,,,,,,,,,,,,,,,,,,,,,,,,,,,,
,,,,,,,,,,stimuli/images/PICTURE_32.png,JUNGLE,5f132c87a20cca09bd4d8884,28/11/2001,2020-08-27_19h09.53.854,proactive3.1,2020.1.2,Win32,60,5f47c29a48bd2a1e651a6eb7,5f47f6d483588026e1bf7777,5,,,,,,crown,,,,,,0,30,30,45,1,5,0,,,,,,,,,,,,,,,,,,,,,,,,,,,,,,,,,,,,,,,,,,,,,,,,,,,,,,,,,,,,,,,,,,,,,,,,,,,,,,,,,,,,,,,,,,,,,,,,,,,,,,,,,,,,,
,,,,,,,,,,stimuli/images/PICTURE_356.png,DANGER,5f132c87a20cca09bd4d8884,28/11/2001,2020-08-27_19h09.53.854,proactive3.1,2020.1.2,Win32,60,5f47c29a48bd2a1e651a6eb7,5f47f6d483588026e1bf7777,5,,,,,,pawn,,,,,,0,31,31,55,1,6,0,,,,,,,,,,,,,,,,,,,,,,,,,,,,,,,,,,,,,,,,,,,,,,,,,,,,,,,,,,,,,,,,,,,,,,,,,,,,,,,,,,,,,,,,,,,,,,,,,,,,,,,,,,,,,
,,,,,,,,,,stimuli/images/PICTURE_339.png,PLENTY,5f132c87a20cca09bd4d8884,28/11/2001,2020-08-27_19h09.53.854,proactive3.1,2020.1.2,Win32,60,5f47c29a48bd2a1e651a6eb7,5f47f6d483588026e1bf7777,5,,,,,,backpack,,,,,,0,32,32,0,1,1,0,,,,,,,,,,,,,,,,,,,,,,,,,,,,,,,,,,,,,,,,,,,,,,,,,,,,,,,,,,,,,,,,,,,,,,,,,,,,,,,,,,,,,,,,,,,,,,,,,,,,,,,,,,,,,
,,,,,,,,,,stimuli/images/PICTURE_208.png,MONTH,5f132c87a20cca09bd4d8884,28/11/2001,2020-08-27_19h09.53.854,proactive3.1,2020.1.2,Win32,60,5f47c29a48bd2a1e651a6eb7,5f47f6d483588026e1bf7777,5,,,,,,microphone,,,,,,0,33,33,53,1,6,0,,,,,,,,,,,,,,,,,,,,,,,,,,,,,,,,,,,,,,,,,,,,,,,,,,,,,,,,,,,,,,,,,,,,,,,,,,,,,,,,,,,,,,,,,,,,,,,,,,,,,,,,,,,,,
,,,,,,,,,,stimuli/images/PICTURE_692.png,MONTH,5f132c87a20cca09bd4d8884,28/11/2001,2020-08-27_19h09.53.854,proactive3.1,2020.1.2,Win32,60,5f47c29a48bd2a1e651a6eb7,5f47f6d483588026e1bf7777,5,,,,,,cherry,,,,,,0,34,34,16,1,2,0,,,,,,,,,,,,,,,,,,,,,,,,,,,,,,,,,,,,,,,,,,,,,,,,,,,,,,,,,,,,,,,,,,,,,,,,,,,,,,,,,,,,,,,,,,,,,,,,,,,,,,,,,,,,,
,,,,,,,,,,stimuli/images/PICTURE_688.png,CASINO,5f132c87a20cca09bd4d8884,28/11/2001,2020-08-27_19h09.53.854,proactive3.1,2020.1.2,Win32,60,5f47c29a48bd2a1e651a6eb7,5f47f6d483588026e1bf7777,5,,,,,,runner,,,,,,0,35,35,2,1,1,0,,,,,,,,,,,,,,,,,,,,,,,,,,,,,,,,,,,,,,,,,,,,,,,,,,,,,,,,,,,,,,,,,,,,,,,,,,,,,,,,,,,,,,,,,,,,,,,,,,,,,,,,,,,,,
,,,,,,,,,,stimuli/images/PICTURE_488.png,STYLE,5f132c87a20cca09bd4d8884,28/11/2001,2020-08-27_19h09.53.854,proactive3.1,2020.1.2,Win32,60,5f47c29a48bd2a1e651a6eb7,5f47f6d483588026e1bf7777,5,,,,,,sun,,,,,,0,36,36,33,1,4,0,,,,,,,,,,,,,,,,,,,,,,,,,,,,,,,,,,,,,,,,,,,,,,,,,,,,,,,,,,,,,,,,,,,,,,,,,,,,,,,,,,,,,,,,,,,,,,,,,,,,,,,,,,,,,
,,,,,,,,,,stimuli/images/PICTURE_68.png,MILE,5f132c87a20cca09bd4d8884,28/11/2001,2020-08-27_19h09.53.854,proactive3.1,2020.1.2,Win32,60,5f47c29a48bd2a1e651a6eb7,5f47f6d483588026e1bf7777,5,,,,,,candle,,,,,,0,37,37,44,1,5,0,,,,,,,,,,,,,,,,,,,,,,,,,,,,,,,,,,,,,,,,,,,,,,,,,,,,,,,,,,,,,,,,,,,,,,,,,,,,,,,,,,,,,,,,,,,,,,,,,,,,,,,,,,,,,
,,,,,,,,,,stimuli/images/PICTURE_308.png,KIND,5f132c87a20cca09bd4d8884,28/11/2001,2020-08-27_19h09.53.854,proactive3.1,2020.1.2,Win32,60,5f47c29a48bd2a1e651a6eb7,5f47f6d483588026e1bf7777,5,,,,,,dice,,,,,,0,38,38,54,1,6,0,,,,,,,,,,,,,,,,,,,,,,,,,,,,,,,,,,,,,,,,,,,,,,,,,,,,,,,,,,,,,,,,,,,,,,,,,,,,,,,,,,,,,,,,,,,,,,,,,,,,,,,,,,,,,
