consent_key.keys,consent_key.rt,recalled,recalled_rt,recall_acc,example_recall.thisRepN,example_recall.thisTrialN,example_recall.thisN,example_recall.thisIndex,example_recall.ran,file,word,participant,please enter your date of birth (dd/mm/yyyy),date,expName,psychopyVersion,OS,frameRate,STUDY_ID,SESSION_ID,list,prac_learn_study_loop.thisRepN,prac_learn_study_loop.thisTrialN,prac_learn_study_loop.thisN,prac_learn_study_loop.thisIndex,prac_learn_study_loop.ran,image,prac_learn_test_loop.thisRepN,prac_learn_test_loop.thisTrialN,prac_learn_test_loop.thisN,prac_learn_test_loop.thisIndex,prac_learn_test_loop.ran,learn_study_loop.thisRepN,learn_study_loop.thisTrialN,learn_study_loop.thisN,learn_study_loop.thisIndex,learn_study_loop.ran,list_no,block_no,learn_test_loop.thisRepN,learn_test_loop.thisTrialN,learn_test_loop.thisN,learn_test_loop.thisIndex,learn_test_loop.ran,learn_blocks.thisRepN,learn_blocks.thisTrialN,learn_blocks.thisN,learn_blocks.thisIndex,learn_blocks.ran,block_csv,key_resp_13.keys,key_resp_13.rt,learn_blocks_loop.thisRepN,learn_blocks_loop.thisTrialN,learn_blocks_loop.thisN,learn_blocks_loop.thisIndex,learn_blocks_loop.ran,final_learn_test.thisRepN,final_learn_test.thisTrialN,final_learn_test.thisN,final_learn_test.thisIndex,final_learn_test.ran,s_im1,s_im2,s_im3,s_im4,s_im5,s_im6,s_im7,s_im8,s_im1pos,s_im2pos,s_im3pos,s_im4pos,s_im5pos,s_im6pos,s_im7pos,s_im8pos,s_tarright,search_resp.keys,search_loop.thisRepN,search_loop.thisTrialN,search_loop.thisN,search_loop.thisIndex,search_loop.ran,prac_wm_search_loop.thisRepN,prac_wm_search_loop.thisTrialN,prac_wm_search_loop.thisN,prac_wm_search_loop.thisIndex,prac_wm_search_loop.ran,prac_wm_test_loop.thisRepN,prac_wm_test_loop.thisTrialN,prac_wm_test_loop.thisN,prac_wm_test_loop.thisIndex,prac_wm_test_loop.ran,wm_recalled1,wm_recall_rt1,wm_probed1,wm_recall_acc1,wm_recalled2,wm_recall_rt2,wm_probed2,wm_recall_acc2,wm_recalled3,wm_recall_rt3,wm_probed3,wm_recall_acc3,wm_recalled4,wm_recall_rt4,wm_probed4,wm_recall_acc4,prac_wm_trial_loop.thisRepN,prac_wm_trial_loop.thisTrialN,prac_wm_trial_loop.thisN,prac_wm_trial_loop.thisIndex,prac_wm_trial_loop.ran,word1,image1,file1,item_type1,word2,image2,file2,item_type2,word4,image4,file4,item_type4,word3,image3,file3,item_type3,wm_search_loop.thisRepN,wm_search_loop.thisTrialN,wm_search_loop.thisN,wm_search_loop.thisIndex,wm_search_loop.ran,wm_test_loop.thisRepN,wm_test_loop.thisTrialN,wm_test_loop.thisN,wm_test_loop.thisIndex,wm_test_loop.ran,wm_trial_loop.thisRepN,wm_trial_loop.thisTrialN,wm_trial_loop.thisN,wm_trial_loop.thisIndex,wm_trial_loop.ran
y,28.026505,BATH,7.15871,0,0,0,0,0,1,stimuli/images/PICTURE_747.png,TOUGH,5f182cf45ce5af05a9ef92a1,16/11/1950,2020-09-10_14h41.13.072,proactive3.1,2020.1.2,Win32,60,5f599a131af4471f3d752b7b,5f5a2c5a55bc9f08b3a47cac,5,,,,,,,,,,,,,,,,,,,,,,,,,,,,,,,,,,,,,,,,,,,,,,,,,,,,,,,,,,,,,,,,,,,,,,,,,,,,,,,,,,,,,,,,,,,,,,,,,,,,,,,,,,,,,,,,,,,,,,,,,,,,,,
,,,,,,,,,,stimuli/images/PICTURE_727.png,CELL,5f182cf45ce5af05a9ef92a1,16/11/1950,2020-09-10_14h41.13.072,proactive3.1,2020.1.2,Win32,60,5f599a131af4471f3d752b7b,5f5a2c5a55bc9f08b3a47cac,5,0,0,0,1,1,hose,,,,,,,,,,,,,,,,,,,,,,,,,,,,,,,,,,,,,,,,,,,,,,,,,,,,,,,,,,,,,,,,,,,,,,,,,,,,,,,,,,,,,,,,,,,,,,,,,,,,,,,,,,,,,,,,,,,,,,,,
,,,,,,,,,,stimuli/images/PICTURE_378.png,LOSS,5f182cf45ce5af05a9ef92a1,16/11/1950,2020-09-10_14h41.13.072,proactive3.1,2020.1.2,Win32,60,5f599a131af4471f3d752b7b,5f5a2c5a55bc9f08b3a47cac,5,0,1,1,2,1,lobster,,,,,,,,,,,,,,,,,,,,,,,,,,,,,,,,,,,,,,,,,,,,,,,,,,,,,,,,,,,,,,,,,,,,,,,,,,,,,,,,,,,,,,,,,,,,,,,,,,,,,,,,,,,,,,,,,,,,,,,,
,,,,,,,,,,stimuli/images/PICTURE_658.png,DEVIL,5f182cf45ce5af05a9ef92a1,16/11/1950,2020-09-10_14h41.13.072,proactive3.1,2020.1.2,Win32,60,5f599a131af4471f3d752b7b,5f5a2c5a55bc9f08b3a47cac,5,0,2,2,3,1,crow,,,,,,,,,,,,,,,,,,,,,,,,,,,,,,,,,,,,,,,,,,,,,,,,,,,,,,,,,,,,,,,,,,,,,,,,,,,,,,,,,,,,,,,,,,,,,,,,,,,,,,,,,,,,,,,,,,,,,,,,
,,,,,,,,,,stimuli/images/PICTURE_697.png,KILLER,5f182cf45ce5af05a9ef92a1,16/11/1950,2020-09-10_14h41.13.072,proactive3.1,2020.1.2,Win32,60,5f599a131af4471f3d752b7b,5f5a2c5a55bc9f08b3a47cac,5,0,3,3,4,1,peach,,,,,,,,,,,,,,,,,,,,,,,,,,,,,,,,,,,,,,,,,,,,,,,,,,,,,,,,,,,,,,,,,,,,,,,,,,,,,,,,,,,,,,,,,,,,,,,,,,,,,,,,,,,,,,,,,,,,,,,,
,,?,12.878285,0,,,,,,stimuli/images/PICTURE_697.png,KILLER,5f182cf45ce5af05a9ef92a1,16/11/1950,2020-09-10_14h41.13.072,proactive3.1,2020.1.2,Win32,60,5f599a131af4471f3d752b7b,5f5a2c5a55bc9f08b3a47cac,5,,,,,,peach,0,0,0,4,1,,,,,,,,,,,,,,,,,,,,,,,,,,,,,,,,,,,,,,,,,,,,,,,,,,,,,,,,,,,,,,,,,,,,,,,,,,,,,,,,,,,,,,,,,,,,,,,,,,,,,,,,,,,,,,,,,,,
,,?,11.514395,0,,,,,,stimuli/images/PICTURE_658.png,DEVIL,5f182cf45ce5af05a9ef92a1,16/11/1950,2020-09-10_14h41.13.072,proactive3.1,2020.1.2,Win32,60,5f599a131af4471f3d752b7b,5f5a2c5a55bc9f08b3a47cac,5,,,,,,crow,0,1,1,3,1,,,,,,,,,,,,,,,,,,,,,,,,,,,,,,,,,,,,,,,,,,,,,,,,,,,,,,,,,,,,,,,,,,,,,,,,,,,,,,,,,,,,,,,,,,,,,,,,,,,,,,,,,,,,,,,,,,,
,,?,6.91516,0,,,,,,stimuli/images/PICTURE_269.png,GENIUS,5f182cf45ce5af05a9ef92a1,16/11/1950,2020-09-10_14h41.13.072,proactive3.1,2020.1.2,Win32,60,5f599a131af4471f3d752b7b,5f5a2c5a55bc9f08b3a47cac,5,,,,,,chameleon,0,2,2,0,1,,,,,,,,,,,,,,,,,,,,,,,,,,,,,,,,,,,,,,,,,,,,,,,,,,,,,,,,,,,,,,,,,,,,,,,,,,,,,,,,,,,,,,,,,,,,,,,,,,,,,,,,,,,,,,,,,,,
,,LOSS,2.715335,1,,,,,,stimuli/images/PICTURE_378.png,LOSS,5f182cf45ce5af05a9ef92a1,16/11/1950,2020-09-10_14h41.13.072,proactive3.1,2020.1.2,Win32,60,5f599a131af4471f3d752b7b,5f5a2c5a55bc9f08b3a47cac,5,,,,,,lobster,0,3,3,2,1,,,,,,,,,,,,,,,,,,,,,,,,,,,,,,,,,,,,,,,,,,,,,,,,,,,,,,,,,,,,,,,,,,,,,,,,,,,,,,,,,,,,,,,,,,,,,,,,,,,,,,,,,,,,,,,,,,,
,,CELL,4.632965,1,,,,,,stimuli/images/PICTURE_727.png,CELL,5f182cf45ce5af05a9ef92a1,16/11/1950,2020-09-10_14h41.13.072,proactive3.1,2020.1.2,Win32,60,5f599a131af4471f3d752b7b,5f5a2c5a55bc9f08b3a47cac,5,,,,,,hose,0,4,4,1,1,,,,,,,,,,,,,,,,,,,,,,,,,,,,,,,,,,,,,,,,,,,,,,,,,,,,,,,,,,,,,,,,,,,,,,,,,,,,,,,,,,,,,,,,,,,,,,,,,,,,,,,,,,,,,,,,,,,
,,,,,,,,,,stimuli/images/PICTURE_340.png,VALLEY,5f182cf45ce5af05a9ef92a1,16/11/1950,2020-09-10_14h41.13.072,proactive3.1,2020.1.2,Win32,60,5f599a131af4471f3d752b7b,5f5a2c5a55bc9f08b3a47cac,5,,,,,,mirror,,,,,,0,0,0,54,1,6,1,,,,,,,,,,,,,,,,,,,,,,,,,,,,,,,,,,,,,,,,,,,,,,,,,,,,,,,,,,,,,,,,,,,,,,,,,,,,,,,,,,,,,,,,,,,,,,,,,,,,,,,,,,,,
,,,,,,,,,,stimuli/images/PICTURE_95.png,HONEY,5f182cf45ce5af05a9ef92a1,16/11/1950,2020-09-10_14h41.13.072,proactive3.1,2020.1.2,Win32,60,5f599a131af4471f3d752b7b,5f5a2c5a55bc9f08b3a47cac,5,,,,,,suitcase,,,,,,0,1,1,44,1,5,1,,,,,,,,,,,,,,,,,,,,,,,,,,,,,,,,,,,,,,,,,,,,,,,,,,,,,,,,,,,,,,,,,,,,,,,,,,,,,,,,,,,,,,,,,,,,,,,,,,,,,,,,,,,,
,,,,,,,,,,stimuli/images/PICTURE_708.png,RECORD,5f182cf45ce5af05a9ef92a1,16/11/1950,2020-09-10_14h41.13.072,proactive3.1,2020.1.2,Win32,60,5f599a131af4471f3d752b7b,5f5a2c5a55bc9f08b3a47cac,5,,,,,,monkey,,,,,,0,2,2,58,1,6,1,,,,,,,,,,,,,,,,,,,,,,,,,,,,,,,,,,,,,,,,,,,,,,,,,,,,,,,,,,,,,,,,,,,,,,,,,,,,,,,,,,,,,,,,,,,,,,,,,,,,,,,,,,,,
,,,,,,,,,,stimuli/images/PICTURE_68.png,ROOF,5f182cf45ce5af05a9ef92a1,16/11/1950,2020-09-10_14h41.13.072,proactive3.1,2020.1.2,Win32,60,5f599a131af4471f3d752b7b,5f5a2c5a55bc9f08b3a47cac,5,,,,,,candle,,,,,,0,3,3,38,1,4,1,,,,,,,,,,,,,,,,,,,,,,,,,,,,,,,,,,,,,,,,,,,,,,,,,,,,,,,,,,,,,,,,,,,,,,,,,,,,,,,,,,,,,,,,,,,,,,,,,,,,,,,,,,,,
,,,,,,,,,,stimuli/images/PICTURE_504.png,COPS,5f182cf45ce5af05a9ef92a1,16/11/1950,2020-09-10_14h41.13.072,proactive3.1,2020.1.2,Win32,60,5f599a131af4471f3d752b7b,5f5a2c5a55bc9f08b3a47cac,5,,,,,,wheel,,,,,,0,4,4,52,1,6,1,,,,,,,,,,,,,,,,,,,,,,,,,,,,,,,,,,,,,,,,,,,,,,,,,,,,,,,,,,,,,,,,,,,,,,,,,,,,,,,,,,,,,,,,,,,,,,,,,,,,,,,,,,,,
,,,,,,,,,,stimuli/images/PICTURE_327.png,SERIES,5f182cf45ce5af05a9ef92a1,16/11/1950,2020-09-10_14h41.13.072,proactive3.1,2020.1.2,Win32,60,5f599a131af4471f3d752b7b,5f5a2c5a55bc9f08b3a47cac,5,,,,,,helmet,,,,,,0,5,5,3,1,1,1,,,,,,,,,,,,,,,,,,,,,,,,,,,,,,,,,,,,,,,,,,,,,,,,,,,,,,,,,,,,,,,,,,,,,,,,,,,,,,,,,,,,,,,,,,,,,,,,,,,,,,,,,,,,
,,,,,,,,,,stimuli/images/PICTURE_233.png,LOTS,5f182cf45ce5af05a9ef92a1,16/11/1950,2020-09-10_14h41.13.072,proactive3.1,2020.1.2,Win32,60,5f599a131af4471f3d752b7b,5f5a2c5a55bc9f08b3a47cac,5,,,,,,salt,,,,,,0,6,6,42,1,5,1,,,,,,,,,,,,,,,,,,,,,,,,,,,,,,,,,,,,,,,,,,,,,,,,,,,,,,,,,,,,,,,,,,,,,,,,,,,,,,,,,,,,,,,,,,,,,,,,,,,,,,,,,,,,
,,,,,,,,,,stimuli/images/PICTURE_308.png,FAMILY,5f182cf45ce5af05a9ef92a1,16/11/1950,2020-09-10_14h41.13.072,proactive3.1,2020.1.2,Win32,60,5f599a131af4471f3d752b7b,5f5a2c5a55bc9f08b3a47cac,5,,,,,,dice,,,,,,0,7,7,36,1,4,1,,,,,,,,,,,,,,,,,,,,,,,,,,,,,,,,,,,,,,,,,,,,,,,,,,,,,,,,,,,,,,,,,,,,,,,,,,,,,,,,,,,,,,,,,,,,,,,,,,,,,,,,,,,,
,,,,,,,,,,stimuli/images/PICTURE_564.png,BATH,5f182cf45ce5af05a9ef92a1,16/11/1950,2020-09-10_14h41.13.072,proactive3.1,2020.1.2,Win32,60,5f599a131af4471f3d752b7b,5f5a2c5a55bc9f08b3a47cac,5,,,,,,spoon,,,,,,0,8,8,26,1,3,1,,,,,,,,,,,,,,,,,,,,,,,,,,,,,,,,,,,,,,,,,,,,,,,,,,,,,,,,,,,,,,,,,,,,,,,,,,,,,,,,,,,,,,,,,,,,,,,,,,,,,,,,,,,,
,,,,,,,,,,stimuli/images/PICTURE_57.png,MOMENT,5f182cf45ce5af05a9ef92a1,16/11/1950,2020-09-10_14h41.13.072,proactive3.1,2020.1.2,Win32,60,5f599a131af4471f3d752b7b,5f5a2c5a55bc9f08b3a47cac,5,,,,,,stamp,,,,,,0,9,9,37,1,4,1,,,,,,,,,,,,,,,,,,,,,,,,,,,,,,,,,,,,,,,,,,,,,,,,,,,,,,,,,,,,,,,,,,,,,,,,,,,,,,,,,,,,,,,,,,,,,,,,,,,,,,,,,,,,
,,,,,,,,,,stimuli/images/PICTURE_487.png,GIRL,5f182cf45ce5af05a9ef92a1,16/11/1950,2020-09-10_14h41.13.072,proactive3.1,2020.1.2,Win32,60,5f599a131af4471f3d752b7b,5f5a2c5a55bc9f08b3a47cac,5,,,,,,basket,,,,,,0,10,10,45,1,5,1,,,,,,,,,,,,,,,,,,,,,,,,,,,,,,,,,,,,,,,,,,,,,,,,,,,,,,,,,,,,,,,,,,,,,,,,,,,,,,,,,,,,,,,,,,,,,,,,,,,,,,,,,,,,
,,,,,,,,,,stimuli/images/PICTURE_405.png,PLENTY,5f182cf45ce5af05a9ef92a1,16/11/1950,2020-09-10_14h41.13.072,proactive3.1,2020.1.2,Win32,60,5f599a131af4471f3d752b7b,5f5a2c5a55bc9f08b3a47cac,5,,,,,,anchor,,,,,,0,11,11,23,1,3,1,,,,,,,,,,,,,,,,,,,,,,,,,,,,,,,,,,,,,,,,,,,,,,,,,,,,,,,,,,,,,,,,,,,,,,,,,,,,,,,,,,,,,,,,,,,,,,,,,,,,,,,,,,,,
,,,,,,,,,,stimuli/images/PICTURE_108.png,FLIGHT,5f182cf45ce5af05a9ef92a1,16/11/1950,2020-09-10_14h41.13.072,proactive3.1,2020.1.2,Win32,60,5f599a131af4471f3d752b7b,5f5a2c5a55bc9f08b3a47cac,5,,,,,,calendar,,,,,,0,12,12,59,1,6,1,,,,,,,,,,,,,,,,,,,,,,,,,,,,,,,,,,,,,,,,,,,,,,,,,,,,,,,,,,,,,,,,,,,,,,,,,,,,,,,,,,,,,,,,,,,,,,,,,,,,,,,,,,,,
,,,,,,,,,,stimuli/images/PICTURE_340.png,LETTER,5f182cf45ce5af05a9ef92a1,16/11/1950,2020-09-10_14h41.13.072,proactive3.1,2020.1.2,Win32,60,5f599a131af4471f3d752b7b,5f5a2c5a55bc9f08b3a47cac,5,,,,,,mirror,,,,,,0,13,13,24,1,3,1,,,,,,,,,,,,,,,,,,,,,,,,,,,,,,,,,,,,,,,,,,,,,,,,,,,,,,,,,,,,,,,,,,,,,,,,,,,,,,,,,,,,,,,,,,,,,,,,,,,,,,,,,,,,
,,,,,,,,,,stimuli/images/PICTURE_68.png,MILE,5f182cf45ce5af05a9ef92a1,16/11/1950,2020-09-10_14h41.13.072,proactive3.1,2020.1.2,Win32,60,5f599a131af4471f3d752b7b,5f5a2c5a55bc9f08b3a47cac,5,,,,,,candle,,,,,,0,14,14,51,1,6,1,,,,,,,,,,,,,,,,,,,,,,,,,,,,,,,,,,,,,,,,,,,,,,,,,,,,,,,,,,,,,,,,,,,,,,,,,,,,,,,,,,,,,,,,,,,,,,,,,,,,,,,,,,,,
,,,,,,,,,,stimuli/images/PICTURE_504.png,ARTIST,5f182cf45ce5af05a9ef92a1,16/11/1950,2020-09-10_14h41.13.072,proactive3.1,2020.1.2,Win32,60,5f599a131af4471f3d752b7b,5f5a2c5a55bc9f08b3a47cac,5,,,,,,wheel,,,,,,0,15,15,49,1,5,1,,,,,,,,,,,,,,,,,,,,,,,,,,,,,,,,,,,,,,,,,,,,,,,,,,,,,,,,,,,,,,,,,,,,,,,,,,,,,,,,,,,,,,,,,,,,,,,,,,,,,,,,,,,,
,,,,,,,,,,stimuli/images/PICTURE_403.png,TOILET,5f182cf45ce5af05a9ef92a1,16/11/1950,2020-09-10_14h41.13.072,proactive3.1,2020.1.2,Win32,60,5f599a131af4471f3d752b7b,5f5a2c5a55bc9f08b3a47cac,5,,,,,,cathedral,,,,,,0,16,16,25,1,3,1,,,,,,,,,,,,,,,,,,,,,,,,,,,,,,,,,,,,,,,,,,,,,,,,,,,,,,,,,,,,,,,,,,,,,,,,,,,,,,,,,,,,,,,,,,,,,,,,,,,,,,,,,,,,
,,,,,,,,,,stimuli/images/PICTURE_655.png,TOILET,5f182cf45ce5af05a9ef92a1,16/11/1950,2020-09-10_14h41.13.072,proactive3.1,2020.1.2,Win32,60,5f599a131af4471f3d752b7b,5f5a2c5a55bc9f08b3a47cac,5,,,,,,megaphone,,,,,,0,17,17,12,1,2,1,,,,,,,,,,,,,,,,,,,,,,,,,,,,,,,,,,,,,,,,,,,,,,,,,,,,,,,,,,,,,,,,,,,,,,,,,,,,,,,,,,,,,,,,,,,,,,,,,,,,,,,,,,,,
,,,,,,,,,,stimuli/images/PICTURE_403.png,RIVER,5f182cf45ce5af05a9ef92a1,16/11/1950,2020-09-10_14h41.13.072,proactive3.1,2020.1.2,Win32,60,5f599a131af4471f3d752b7b,5f5a2c5a55bc9f08b3a47cac,5,,,,,,cathedral,,,,,,0,18,18,40,1,5,1,,,,,,,,,,,,,,,,,,,,,,,,,,,,,,,,,,,,,,,,,,,,,,,,,,,,,,,,,,,,,,,,,,,,,,,,,,,,,,,,,,,,,,,,,,,,,,,,,,,,,,,,,,,,
,,,,,,,,,,stimuli/images/PICTURE_203.png,GODS,5f182cf45ce5af05a9ef92a1,16/11/1950,2020-09-10_14h41.13.072,proactive3.1,2020.1.2,Win32,60,5f599a131af4471f3d752b7b,5f5a2c5a55bc9f08b3a47cac,5,,,,,,cap,,,,,,0,19,19,30,1,4,1,,,,,,,,,,,,,,,,,,,,,,,,,,,,,,,,,,,,,,,,,,,,,,,,,,,,,,,,,,,,,,,,,,,,,,,,,,,,,,,,,,,,,,,,,,,,,,,,,,,,,,,,,,,,
,,,,,,,,,,stimuli/images/PICTURE_208.png,SYSTEM,5f182cf45ce5af05a9ef92a1,16/11/1950,2020-09-10_14h41.13.072,proactive3.1,2020.1.2,Win32,60,5f599a131af4471f3d752b7b,5f5a2c5a55bc9f08b3a47cac,5,,,,,,microphone,,,,,,0,20,20,32,1,4,1,,,,,,,,,,,,,,,,,,,,,,,,,,,,,,,,,,,,,,,,,,,,,,,,,,,,,,,,,,,,,,,,,,,,,,,,,,,,,,,,,,,,,,,,,,,,,,,,,,,,,,,,,,,,
,,,,,,,,,,stimuli/images/PICTURE_297.png,RIVER,5f182cf45ce5af05a9ef92a1,16/11/1950,2020-09-10_14h41.13.072,proactive3.1,2020.1.2,Win32,60,5f599a131af4471f3d752b7b,5f5a2c5a55bc9f08b3a47cac,5,,,,,,aeroplane,,,,,,0,21,21,39,1,4,1,,,,,,,,,,,,,,,,,,,,,,,,,,,,,,,,,,,,,,,,,,,,,,,,,,,,,,,,,,,,,,,,,,,,,,,,,,,,,,,,,,,,,,,,,,,,,,,,,,,,,,,,,,,,
,,,,,,,,,,stimuli/images/PICTURE_2.png,FLIGHT,5f182cf45ce5af05a9ef92a1,16/11/1950,2020-09-10_14h41.13.072,proactive3.1,2020.1.2,Win32,60,5f599a131af4471f3d752b7b,5f5a2c5a55bc9f08b3a47cac,5,,,,,,tyre,,,,,,0,22,22,15,1,2,1,,,,,,,,,,,,,,,,,,,,,,,,,,,,,,,,,,,,,,,,,,,,,,,,,,,,,,,,,,,,,,,,,,,,,,,,,,,,,,,,,,,,,,,,,,,,,,,,,,,,,,,,,,,,
,,,,,,,,,,stimuli/images/PICTURE_147.png,YEAR,5f182cf45ce5af05a9ef92a1,16/11/1950,2020-09-10_14h41.13.072,proactive3.1,2020.1.2,Win32,60,5f599a131af4471f3d752b7b,5f5a2c5a55bc9f08b3a47cac,5,,,,,,hanger,,,,,,0,23,23,21,1,3,1,,,,,,,,,,,,,,,,,,,,,,,,,,,,,,,,,,,,,,,,,,,,,,,,,,,,,,,,,,,,,,,,,,,,,,,,,,,,,,,,,,,,,,,,,,,,,,,,,,,,,,,,,,,,
,,,,,,,,,,stimuli/images/PICTURE_203.png,NIGHT,5f182cf45ce5af05a9ef92a1,16/11/1950,2020-09-10_14h41.13.072,proactive3.1,2020.1.2,Win32,60,5f599a131af4471f3d752b7b,5f5a2c5a55bc9f08b3a47cac,5,,,,,,cap,,,,,,0,24,24,2,1,1,1,,,,,,,,,,,,,,,,,,,,,,,,,,,,,,,,,,,,,,,,,,,,,,,,,,,,,,,,,,,,,,,,,,,,,,,,,,,,,,,,,,,,,,,,,,,,,,,,,,,,,,,,,,,,
,,,,,,,,,,stimuli/images/PICTURE_147.png,WOMEN,5f182cf45ce5af05a9ef92a1,16/11/1950,2020-09-10_14h41.13.072,proactive3.1,2020.1.2,Win32,60,5f599a131af4471f3d752b7b,5f5a2c5a55bc9f08b3a47cac,5,,,,,,hanger,,,,,,0,25,25,7,1,1,1,,,,,,,,,,,,,,,,,,,,,,,,,,,,,,,,,,,,,,,,,,,,,,,,,,,,,,,,,,,,,,,,,,,,,,,,,,,,,,,,,,,,,,,,,,,,,,,,,,,,,,,,,,,,
,,,,,,,,,,stimuli/images/PICTURE_95.png,MILLER,5f182cf45ce5af05a9ef92a1,16/11/1950,2020-09-10_14h41.13.072,proactive3.1,2020.1.2,Win32,60,5f599a131af4471f3d752b7b,5f5a2c5a55bc9f08b3a47cac,5,,,,,,suitcase,,,,,,0,26,26,56,1,6,1,,,,,,,,,,,,,,,,,,,,,,,,,,,,,,,,,,,,,,,,,,,,,,,,,,,,,,,,,,,,,,,,,,,,,,,,,,,,,,,,,,,,,,,,,,,,,,,,,,,,,,,,,,,,
,,,,,,,,,,stimuli/images/PICTURE_177.png,WRITER,5f182cf45ce5af05a9ef92a1,16/11/1950,2020-09-10_14h41.13.072,proactive3.1,2020.1.2,Win32,60,5f599a131af4471f3d752b7b,5f5a2c5a55bc9f08b3a47cac,5,,,,,,mushroom,,,,,,0,27,27,41,1,5,1,,,,,,,,,,,,,,,,,,,,,,,,,,,,,,,,,,,,,,,,,,,,,,,,,,,,,,,,,,,,,,,,,,,,,,,,,,,,,,,,,,,,,,,,,,,,,,,,,,,,,,,,,,,,
,,,,,,,,,,stimuli/images/PICTURE_667.png,RIVER,5f182cf45ce5af05a9ef92a1,16/11/1950,2020-09-10_14h41.13.072,proactive3.1,2020.1.2,Win32,60,5f599a131af4471f3d752b7b,5f5a2c5a55bc9f08b3a47cac,5,,,,,,daisy,,,,,,0,28,28,10,1,2,1,,,,,,,,,,,,,,,,,,,,,,,,,,,,,,,,,,,,,,,,,,,,,,,,,,,,,,,,,,,,,,,,,,,,,,,,,,,,,,,,,,,,,,,,,,,,,,,,,,,,,,,,,,,,
,,,,,,,,,,stimuli/images/PICTURE_750.png,HOTEL,5f182cf45ce5af05a9ef92a1,16/11/1950,2020-09-10_14h41.13.072,proactive3.1,2020.1.2,Win32,60,5f599a131af4471f3d752b7b,5f5a2c5a55bc9f08b3a47cac,5,,,,,,kettle,,,,,,0,29,29,27,1,3,1,,,,,,,,,,,,,,,,,,,,,,,,,,,,,,,,,,,,,,,,,,,,,,,,,,,,,,,,,,,,,,,,,,,,,,,,,,,,,,,,,,,,,,,,,,,,,,,,,,,,,,,,,,,,
,,,,,,,,,,stimuli/images/PICTURE_685.png,PENNY,5f182cf45ce5af05a9ef92a1,16/11/1950,2020-09-10_14h41.13.072,proactive3.1,2020.1.2,Win32,60,5f599a131af4471f3d752b7b,5f5a2c5a55bc9f08b3a47cac,5,,,,,,goose,,,,,,0,30,30,4,1,1,1,,,,,,,,,,,,,,,,,,,,,,,,,,,,,,,,,,,,,,,,,,,,,,,,,,,,,,,,,,,,,,,,,,,,,,,,,,,,,,,,,,,,,,,,,,,,,,,,,,,,,,,,,,,,
,,,,,,,,,,stimuli/images/PICTURE_403.png,WRITER,5f182cf45ce5af05a9ef92a1,16/11/1950,2020-09-10_14h41.13.072,proactive3.1,2020.1.2,Win32,60,5f599a131af4471f3d752b7b,5f5a2c5a55bc9f08b3a47cac,5,,,,,,cathedral,,,,,,0,31,31,31,1,4,1,,,,,,,,,,,,,,,,,,,,,,,,,,,,,,,,,,,,,,,,,,,,,,,,,,,,,,,,,,,,,,,,,,,,,,,,,,,,,,,,,,,,,,,,,,,,,,,,,,,,,,,,,,,,
,,,,,,,,,,stimuli/images/PICTURE_339.png,CLIENT,5f182cf45ce5af05a9ef92a1,16/11/1950,2020-09-10_14h41.13.072,proactive3.1,2020.1.2,Win32,60,5f599a131af4471f3d752b7b,5f5a2c5a55bc9f08b3a47cac,5,,,,,,backpack,,,,,,0,32,32,11,1,2,1,,,,,,,,,,,,,,,,,,,,,,,,,,,,,,,,,,,,,,,,,,,,,,,,,,,,,,,,,,,,,,,,,,,,,,,,,,,,,,,,,,,,,,,,,,,,,,,,,,,,,,,,,,,,
,,,,,,,,,,stimuli/images/PICTURE_85.png,NATION,5f182cf45ce5af05a9ef92a1,16/11/1950,2020-09-10_14h41.13.072,proactive3.1,2020.1.2,Win32,60,5f599a131af4471f3d752b7b,5f5a2c5a55bc9f08b3a47cac,5,,,,,,diamond,,,,,,0,33,33,5,1,1,1,,,,,,,,,,,,,,,,,,,,,,,,,,,,,,,,,,,,,,,,,,,,,,,,,,,,,,,,,,,,,,,,,,,,,,,,,,,,,,,,,,,,,,,,,,,,,,,,,,,,,,,,,,,,
,,,,,,,,,,stimuli/images/PICTURE_491.png,RIVER,5f182cf45ce5af05a9ef92a1,16/11/1950,2020-09-10_14h41.13.072,proactive3.1,2020.1.2,Win32,60,5f599a131af4471f3d752b7b,5f5a2c5a55bc9f08b3a47cac,5,,,,,,rug,,,,,,0,34,34,6,1,1,1,,,,,,,,,,,,,,,,,,,,,,,,,,,,,,,,,,,,,,,,,,,,,,,,,,,,,,,,,,,,,,,,,,,,,,,,,,,,,,,,,,,,,,,,,,,,,,,,,,,,,,,,,,,,
,,,,,,,,,,stimuli/images/PICTURE_677.png,APPLE,5f182cf45ce5af05a9ef92a1,16/11/1950,2020-09-10_14h41.13.072,proactive3.1,2020.1.2,Win32,60,5f599a131af4471f3d752b7b,5f5a2c5a55bc9f08b3a47cac,5,,,,,,map,,,,,,0,35,35,43,1,5,1,,,,,,,,,,,,,,,,,,,,,,,,,,,,,,,,,,,,,,,,,,,,,,,,,,,,,,,,,,,,,,,,,,,,,,,,,,,,,,,,,,,,,,,,,,,,,,,,,,,,,,,,,,,,
,,,,,,,,,,stimuli/images/PICTURE_42.png,BOYS,5f182cf45ce5af05a9ef92a1,16/11/1950,2020-09-10_14h41.13.072,proactive3.1,2020.1.2,Win32,60,5f599a131af4471f3d752b7b,5f5a2c5a55bc9f08b3a47cac,5,,,,,,pear,,,,,,0,36,36,55,1,6,1,,,,,,,,,,,,,,,,,,,,,,,,,,,,,,,,,,,,,,,,,,,,,,,,,,,,,,,,,,,,,,,,,,,,,,,,,,,,,,,,,,,,,,,,,,,,,,,,,,,,,,,,,,,,
,,,,,,,,,,stimuli/images/PICTURE_744.png,WEAPON,5f182cf45ce5af05a9ef92a1,16/11/1950,2020-09-10_14h41.13.072,proactive3.1,2020.1.2,Win32,60,5f599a131af4471f3d752b7b,5f5a2c5a55bc9f08b3a47cac,5,,,,,,ring,,,,,,0,37,37,50,1,6,1,,,,,,,,,,,,,,,,,,,,,,,,,,,,,,,,,,,,,,,,,,,,,,,,,,,,,,,,,,,,,,,,,,,,,,,,,,,,,,,,,,,,,,,,,,,,,,,,,,,,,,,,,,,,
,,,,,,,,,,stimuli/images/PICTURE_32.png,PILLS,5f182cf45ce5af05a9ef92a1,16/11/1950,2020-09-10_14h41.13.072,proactive3.1,2020.1.2,Win32,60,5f599a131af4471f3d752b7b,5f5a2c5a55bc9f08b3a47cac,5,,,,,,crown,,,,,,0,38,38,18,1,2,1,,,,,,,,,,,,,,,,,,,,,,,,,,,,,,,,,,,,,,,,,,,,,,,,,,,,,,,,,,,,,,,,,,,,,,,,,,,,,,,,,,,,,,,,,,,,,,,,,,,,,,,,,,,,
,,,,,,,,,,stimuli/images/PICTURE_467.png,POLICY,5f182cf45ce5af05a9ef92a1,16/11/1950,2020-09-10_14h41.13.072,proactive3.1,2020.1.2,Win32,60,5f599a131af4471f3d752b7b,5f5a2c5a55bc9f08b3a47cac,5,,,,,,peg,,,,,,0,39,39,53,1,6,1,,,,,,,,,,,,,,,,,,,,,,,,,,,,,,,,,,,,,,,,,,,,,,,,,,,,,,,,,,,,,,,,,,,,,,,,,,,,,,,,,,,,,,,,,,,,,,,,,,,,,,,,,,,,
,,,,,,,,,,stimuli/images/PICTURE_95.png,BOYS,5f182cf45ce5af05a9ef92a1,16/11/1950,2020-09-10_14h41.13.072,proactive3.1,2020.1.2,Win32,60,5f599a131af4471f3d752b7b,5f5a2c5a55bc9f08b3a47cac,5,,,,,,suitcase,,,,,,0,40,40,1,1,1,1,,,,,,,,,,,,,,,,,,,,,,,,,,,,,,,,,,,,,,,,,,,,,,,,,,,,,,,,,,,,,,,,,,,,,,,,,,,,,,,,,,,,,,,,,,,,,,,,,,,,,,,,,,,,
,,,,,,,,,,stimuli/images/PICTURE_296.png,LOTS,5f182cf45ce5af05a9ef92a1,16/11/1950,2020-09-10_14h41.13.072,proactive3.1,2020.1.2,Win32,60,5f599a131af4471f3d752b7b,5f5a2c5a55bc9f08b3a47cac,5,,,,,,bolt,,,,,,0,41,41,9,1,1,1,,,,,,,,,,,,,,,,,,,,,,,,,,,,,,,,,,,,,,,,,,,,,,,,,,,,,,,,,,,,,,,,,,,,,,,,,,,,,,,,,,,,,,,,,,,,,,,,,,,,,,,,,,,,
,,,,,,,,,,stimuli/images/PICTURE_33.png,FRIEND,5f182cf45ce5af05a9ef92a1,16/11/1950,2020-09-10_14h41.13.072,proactive3.1,2020.1.2,Win32,60,5f599a131af4471f3d752b7b,5f5a2c5a55bc9f08b3a47cac,5,,,,,,frame,,,,,,0,42,42,8,1,1,1,,,,,,,,,,,,,,,,,,,,,,,,,,,,,,,,,,,,,,,,,,,,,,,,,,,,,,,,,,,,,,,,,,,,,,,,,,,,,,,,,,,,,,,,,,,,,,,,,,,,,,,,,,,,
,,,,,,,,,,stimuli/images/PICTURE_383.png,WRITER,5f182cf45ce5af05a9ef92a1,16/11/1950,2020-09-10_14h41.13.072,proactive3.1,2020.1.2,Win32,60,5f599a131af4471f3d752b7b,5f5a2c5a55bc9f08b3a47cac,5,,,,,,coin,,,,,,0,43,43,28,1,3,1,,,,,,,,,,,,,,,,,,,,,,,,,,,,,,,,,,,,,,,,,,,,,,,,,,,,,,,,,,,,,,,,,,,,,,,,,,,,,,,,,,,,,,,,,,,,,,,,,,,,,,,,,,,,
,,,,,,,,,,stimuli/images/PICTURE_327.png,CASINO,5f182cf45ce5af05a9ef92a1,16/11/1950,2020-09-10_14h41.13.072,proactive3.1,2020.1.2,Win32,60,5f599a131af4471f3d752b7b,5f5a2c5a55bc9f08b3a47cac,5,,,,,,helmet,,,,,,0,44,44,20,1,3,1,,,,,,,,,,,,,,,,,,,,,,,,,,,,,,,,,,,,,,,,,,,,,,,,,,,,,,,,,,,,,,,,,,,,,,,,,,,,,,,,,,,,,,,,,,,,,,,,,,,,,,,,,,,,
,,,,,,,,,,stimuli/images/PICTURE_285.png,LIFE,5f182cf45ce5af05a9ef92a1,16/11/1950,2020-09-10_14h41.13.072,proactive3.1,2020.1.2,Win32,60,5f599a131af4471f3d752b7b,5f5a2c5a55bc9f08b3a47cac,5,,,,,,carrot,,,,,,0,45,45,33,1,4,1,,,,,,,,,,,,,,,,,,,,,,,,,,,,,,,,,,,,,,,,,,,,,,,,,,,,,,,,,,,,,,,,,,,,,,,,,,,,,,,,,,,,,,,,,,,,,,,,,,,,,,,,,,,,
,,,,,,,,,,stimuli/images/PICTURE_108.png,POLICY,5f182cf45ce5af05a9ef92a1,16/11/1950,2020-09-10_14h41.13.072,proactive3.1,2020.1.2,Win32,60,5f599a131af4471f3d752b7b,5f5a2c5a55bc9f08b3a47cac,5,,,,,,calendar,,,,,,0,46,46,22,1,3,1,,,,,,,,,,,,,,,,,,,,,,,,,,,,,,,,,,,,,,,,,,,,,,,,,,,,,,,,,,,,,,,,,,,,,,,,,,,,,,,,,,,,,,,,,,,,,,,,,,,,,,,,,,,,
,,,,,,,,,,stimuli/images/PICTURE_469.png,AGENT,5f182cf45ce5af05a9ef92a1,16/11/1950,2020-09-10_14h41.13.072,proactive3.1,2020.1.2,Win32,60,5f599a131af4471f3d752b7b,5f5a2c5a55bc9f08b3a47cac,5,,,,,,stool,,,,,,0,47,47,16,1,2,1,,,,,,,,,,,,,,,,,,,,,,,,,,,,,,,,,,,,,,,,,,,,,,,,,,,,,,,,,,,,,,,,,,,,,,,,,,,,,,,,,,,,,,,,,,,,,,,,,,,,,,,,,,,,
,,,,,,,,,,stimuli/images/PICTURE_449.png,DUDE,5f182cf45ce5af05a9ef92a1,16/11/1950,2020-09-10_14h41.13.072,proactive3.1,2020.1.2,Win32,60,5f599a131af4471f3d752b7b,5f5a2c5a55bc9f08b3a47cac,5,,,,,,bench,,,,,,0,48,48,17,1,2,1,,,,,,,,,,,,,,,,,,,,,,,,,,,,,,,,,,,,,,,,,,,,,,,,,,,,,,,,,,,,,,,,,,,,,,,,,,,,,,,,,,,,,,,,,,,,,,,,,,,,,,,,,,,,
,,,,,,,,,,stimuli/images/PICTURE_383.png,SERIES,5f182cf45ce5af05a9ef92a1,16/11/1950,2020-09-10_14h41.13.072,proactive3.1,2020.1.2,Win32,60,5f599a131af4471f3d752b7b,5f5a2c5a55bc9f08b3a47cac,5,,,,,,coin,,,,,,0,49,49,46,1,5,1,,,,,,,,,,,,,,,,,,,,,,,,,,,,,,,,,,,,,,,,,,,,,,,,,,,,,,,,,,,,,,,,,,,,,,,,,,,,,,,,,,,,,,,,,,,,,,,,,,,,,,,,,,,,
,,,,,,,,,,stimuli/images/PICTURE_380.png,CANDY,5f182cf45ce5af05a9ef92a1,16/11/1950,2020-09-10_14h41.13.072,proactive3.1,2020.1.2,Win32,60,5f599a131af4471f3d752b7b,5f5a2c5a55bc9f08b3a47cac,5,,,,,,gorilla,,,,,,0,50,50,0,1,1,1,,,,,,,,,,,,,,,,,,,,,,,,,,,,,,,,,,,,,,,,,,,,,,,,,,,,,,,,,,,,,,,,,,,,,,,,,,,,,,,,,,,,,,,,,,,,,,,,,,,,,,,,,,,,
,,,,,,,,,,stimuli/images/PICTURE_504.png,YEAR,5f182cf45ce5af05a9ef92a1,16/11/1950,2020-09-10_14h41.13.072,proactive3.1,2020.1.2,Win32,60,5f599a131af4471f3d752b7b,5f5a2c5a55bc9f08b3a47cac,5,,,,,,wheel,,,,,,0,51,51,13,1,2,1,,,,,,,,,,,,,,,,,,,,,,,,,,,,,,,,,,,,,,,,,,,,,,,,,,,,,,,,,,,,,,,,,,,,,,,,,,,,,,,,,,,,,,,,,,,,,,,,,,,,,,,,,,,,
,,,,,,,,,,stimuli/images/PICTURE_405.png,YEAR,5f182cf45ce5af05a9ef92a1,16/11/1950,2020-09-10_14h41.13.072,proactive3.1,2020.1.2,Win32,60,5f599a131af4471f3d752b7b,5f5a2c5a55bc9f08b3a47cac,5,,,,,,anchor,,,,,,0,52,52,34,1,4,1,,,,,,,,,,,,,,,,,,,,,,,,,,,,,,,,,,,,,,,,,,,,,,,,,,,,,,,,,,,,,,,,,,,,,,,,,,,,,,,,,,,,,,,,,,,,,,,,,,,,,,,,,,,,
,,,,,,,,,,stimuli/images/PICTURE_296.png,LIFE,5f182cf45ce5af05a9ef92a1,16/11/1950,2020-09-10_14h41.13.072,proactive3.1,2020.1.2,Win32,60,5f599a131af4471f3d752b7b,5f5a2c5a55bc9f08b3a47cac,5,,,,,,bolt,,,,,,0,53,53,57,1,6,1,,,,,,,,,,,,,,,,,,,,,,,,,,,,,,,,,,,,,,,,,,,,,,,,,,,,,,,,,,,,,,,,,,,,,,,,,,,,,,,,,,,,,,,,,,,,,,,,,,,,,,,,,,,,
,,,,,,,,,,stimuli/images/PICTURE_491.png,GLASS,5f182cf45ce5af05a9ef92a1,16/11/1950,2020-09-10_14h41.13.072,proactive3.1,2020.1.2,Win32,60,5f599a131af4471f3d752b7b,5f5a2c5a55bc9f08b3a47cac,5,,,,,,rug,,,,,,0,54,54,14,1,2,1,,,,,,,,,,,,,,,,,,,,,,,,,,,,,,,,,,,,,,,,,,,,,,,,,,,,,,,,,,,,,,,,,,,,,,,,,,,,,,,,,,,,,,,,,,,,,,,,,,,,,,,,,,,,
,,,,,,,,,,stimuli/images/PICTURE_32.png,KIND,5f182cf45ce5af05a9ef92a1,16/11/1950,2020-09-10_14h41.13.072,proactive3.1,2020.1.2,Win32,60,5f599a131af4471f3d752b7b,5f5a2c5a55bc9f08b3a47cac,5,,,,,,crown,,,,,,0,55,55,35,1,4,1,,,,,,,,,,,,,,,,,,,,,,,,,,,,,,,,,,,,,,,,,,,,,,,,,,,,,,,,,,,,,,,,,,,,,,,,,,,,,,,,,,,,,,,,,,,,,,,,,,,,,,,,,,,,
,,,,,,,,,,stimuli/images/PICTURE_85.png,TOILET,5f182cf45ce5af05a9ef92a1,16/11/1950,2020-09-10_14h41.13.072,proactive3.1,2020.1.2,Win32,60,5f599a131af4471f3d752b7b,5f5a2c5a55bc9f08b3a47cac,5,,,,,,diamond,,,,,,0,56,56,48,1,5,1,,,,,,,,,,,,,,,,,,,,,,,,,,,,,,,,,,,,,,,,,,,,,,,,,,,,,,,,,,,,,,,,,,,,,,,,,,,,,,,,,,,,,,,,,,,,,,,,,,,,,,,,,,,,
,,,,,,,,,,stimuli/images/PICTURE_380.png,HONEY,5f182cf45ce5af05a9ef92a1,16/11/1950,2020-09-10_14h41.13.072,proactive3.1,2020.1.2,Win32,60,5f599a131af4471f3d752b7b,5f5a2c5a55bc9f08b3a47cac,5,,,,,,gorilla,,,,,,0,57,57,19,1,2,1,,,,,,,,,,,,,,,,,,,,,,,,,,,,,,,,,,,,,,,,,,,,,,,,,,,,,,,,,,,,,,,,,,,,,,,,,,,,,,,,,,,,,,,,,,,,,,,,,,,,,,,,,,,,
,,,,,,,,,,stimuli/images/PICTURE_675.png,SALE,5f182cf45ce5af05a9ef92a1,16/11/1950,2020-09-10_14h41.13.072,proactive3.1,2020.1.2,Win32,60,5f599a131af4471f3d752b7b,5f5a2c5a55bc9f08b3a47cac,5,,,,,,windmill,,,,,,0,58,58,47,1,5,1,,,,,,,,,,,,,,,,,,,,,,,,,,,,,,,,,,,,,,,,,,,,,,,,,,,,,,,,,,,,,,,,,,,,,,,,,,,,,,,,,,,,,,,,,,,,,,,,,,,,,,,,,,,,
,,?,0.002685,0,,,,,,stimuli/images/PICTURE_308.png,FAMILY,5f182cf45ce5af05a9ef92a1,16/11/1950,2020-09-10_14h41.13.072,proactive3.1,2020.1.2,Win32,60,5f599a131af4471f3d752b7b,5f5a2c5a55bc9f08b3a47cac,5,,,,,,dice,,,,,,,,,,,4,1,0,0,0,36,1,,,,,,,,,,,,,,,,,,,,,,,,,,,,,,,,,,,,,,,,,,,,,,,,,,,,,,,,,,,,,,,,,,,,,,,,,,,,,,,,,,,,,,,,,,,,,,,,,,,,,,,
,,?,0.001795,0,,,,,,stimuli/images/PICTURE_667.png,RIVER,5f182cf45ce5af05a9ef92a1,16/11/1950,2020-09-10_14h41.13.072,proactive3.1,2020.1.2,Win32,60,5f599a131af4471f3d752b7b,5f5a2c5a55bc9f08b3a47cac,5,,,,,,daisy,,,,,,,,,,,2,1,0,1,1,10,1,,,,,,,,,,,,,,,,,,,,,,,,,,,,,,,,,,,,,,,,,,,,,,,,,,,,,,,,,,,,,,,,,,,,,,,,,,,,,,,,,,,,,,,,,,,,,,,,,,,,,,,
,,?,0.001965,0,,,,,,stimuli/images/PICTURE_405.png,YEAR,5f182cf45ce5af05a9ef92a1,16/11/1950,2020-09-10_14h41.13.072,proactive3.1,2020.1.2,Win32,60,5f599a131af4471f3d752b7b,5f5a2c5a55bc9f08b3a47cac,5,,,,,,anchor,,,,,,,,,,,4,1,0,2,2,34,1,,,,,,,,,,,,,,,,,,,,,,,,,,,,,,,,,,,,,,,,,,,,,,,,,,,,,,,,,,,,,,,,,,,,,,,,,,,,,,,,,,,,,,,,,,,,,,,,,,,,,,,
,,?,0.00185,0,,,,,,stimuli/images/PICTURE_403.png,WRITER,5f182cf45ce5af05a9ef92a1,16/11/1950,2020-09-10_14h41.13.072,proactive3.1,2020.1.2,Win32,60,5f599a131af4471f3d752b7b,5f5a2c5a55bc9f08b3a47cac,5,,,,,,cathedral,,,,,,,,,,,4,1,0,3,3,31,1,,,,,,,,,,,,,,,,,,,,,,,,,,,,,,,,,,,,,,,,,,,,,,,,,,,,,,,,,,,,,,,,,,,,,,,,,,,,,,,,,,,,,,,,,,,,,,,,,,,,,,,
,,?,0.00191,0,,,,,,stimuli/images/PICTURE_708.png,RECORD,5f182cf45ce5af05a9ef92a1,16/11/1950,2020-09-10_14h41.13.072,proactive3.1,2020.1.2,Win32,60,5f599a131af4471f3d752b7b,5f5a2c5a55bc9f08b3a47cac,5,,,,,,monkey,,,,,,,,,,,6,1,0,4,4,58,1,,,,,,,,,,,,,,,,,,,,,,,,,,,,,,,,,,,,,,,,,,,,,,,,,,,,,,,,,,,,,,,,,,,,,,,,,,,,,,,,,,,,,,,,,,,,,,,,,,,,,,,
,,?,0.001605,0,,,,,,stimuli/images/PICTURE_108.png,FLIGHT,5f182cf45ce5af05a9ef92a1,16/11/1950,2020-09-10_14h41.13.072,proactive3.1,2020.1.2,Win32,60,5f599a131af4471f3d752b7b,5f5a2c5a55bc9f08b3a47cac,5,,,,,,calendar,,,,,,,,,,,6,1,0,5,5,59,1,,,,,,,,,,,,,,,,,,,,,,,,,,,,,,,,,,,,,,,,,,,,,,,,,,,,,,,,,,,,,,,,,,,,,,,,,,,,,,,,,,,,,,,,,,,,,,,,,,,,,,,
,,?,7.15672,0,,,,,,stimuli/images/PICTURE_383.png,SERIES,5f182cf45ce5af05a9ef92a1,16/11/1950,2020-09-10_14h41.13.072,proactive3.1,2020.1.2,Win32,60,5f599a131af4471f3d752b7b,5f5a2c5a55bc9f08b3a47cac,5,,,,,,coin,,,,,,,,,,,5,1,0,6,6,46,1,,,,,,,,,,,,,,,,,,,,,,,,,,,,,,,,,,,,,,,,,,,,,,,,,,,,,,,,,,,,,,,,,,,,,,,,,,,,,,,,,,,,,,,,,,,,,,,,,,,,,,,
,,?,0.00196,0,,,,,,stimuli/images/PICTURE_327.png,SERIES,5f182cf45ce5af05a9ef92a1,16/11/1950,2020-09-10_14h41.13.072,proactive3.1,2020.1.2,Win32,60,5f599a131af4471f3d752b7b,5f5a2c5a55bc9f08b3a47cac,5,,,,,,helmet,,,,,,,,,,,1,1,0,7,7,3,1,,,,,,,,,,,,,,,,,,,,,,,,,,,,,,,,,,,,,,,,,,,,,,,,,,,,,,,,,,,,,,,,,,,,,,,,,,,,,,,,,,,,,,,,,,,,,,,,,,,,,,,
,,?,9.52586,0,,,,,,stimuli/images/PICTURE_95.png,HONEY,5f182cf45ce5af05a9ef92a1,16/11/1950,2020-09-10_14h41.13.072,proactive3.1,2020.1.2,Win32,60,5f599a131af4471f3d752b7b,5f5a2c5a55bc9f08b3a47cac,5,,,,,,suitcase,,,,,,,,,,,5,1,0,8,8,44,1,,,,,,,,,,,,,,,,,,,,,,,,,,,,,,,,,,,,,,,,,,,,,,,,,,,,,,,,,,,,,,,,,,,,,,,,,,,,,,,,,,,,,,,,,,,,,,,,,,,,,,,
,,?,0.00573,0,,,,,,stimuli/images/PICTURE_327.png,CASINO,5f182cf45ce5af05a9ef92a1,16/11/1950,2020-09-10_14h41.13.072,proactive3.1,2020.1.2,Win32,60,5f599a131af4471f3d752b7b,5f5a2c5a55bc9f08b3a47cac,5,,,,,,helmet,,,,,,,,,,,3,1,0,9,9,20,1,,,,,,,,,,,,,,,,,,,,,,,,,,,,,,,,,,,,,,,,,,,,,,,,,,,,,,,,,,,,,,,,,,,,,,,,,,,,,,,,,,,,,,,,,,,,,,,,,,,,,,,
,,?,0.00477,0,,,,,,stimuli/images/PICTURE_504.png,YEAR,5f182cf45ce5af05a9ef92a1,16/11/1950,2020-09-10_14h41.13.072,proactive3.1,2020.1.2,Win32,60,5f599a131af4471f3d752b7b,5f5a2c5a55bc9f08b3a47cac,5,,,,,,wheel,,,,,,,,,,,2,1,0,10,10,13,1,,,,,,,,,,,,,,,,,,,,,,,,,,,,,,,,,,,,,,,,,,,,,,,,,,,,,,,,,,,,,,,,,,,,,,,,,,,,,,,,,,,,,,,,,,,,,,,,,,,,,,,
,,?,0.006145,0,,,,,,stimuli/images/PICTURE_340.png,VALLEY,5f182cf45ce5af05a9ef92a1,16/11/1950,2020-09-10_14h41.13.072,proactive3.1,2020.1.2,Win32,60,5f599a131af4471f3d752b7b,5f5a2c5a55bc9f08b3a47cac,5,,,,,,mirror,,,,,,,,,,,6,1,0,11,11,54,1,,,,,,,,,,,,,,,,,,,,,,,,,,,,,,,,,,,,,,,,,,,,,,,,,,,,,,,,,,,,,,,,,,,,,,,,,,,,,,,,,,,,,,,,,,,,,,,,,,,,,,,
,,?,0.004905,0,,,,,,stimuli/images/PICTURE_147.png,WOMEN,5f182cf45ce5af05a9ef92a1,16/11/1950,2020-09-10_14h41.13.072,proactive3.1,2020.1.2,Win32,60,5f599a131af4471f3d752b7b,5f5a2c5a55bc9f08b3a47cac,5,,,,,,hanger,,,,,,,,,,,1,1,0,12,12,7,1,,,,,,,,,,,,,,,,,,,,,,,,,,,,,,,,,,,,,,,,,,,,,,,,,,,,,,,,,,,,,,,,,,,,,,,,,,,,,,,,,,,,,,,,,,,,,,,,,,,,,,,
,,LOT,13.80861,0,,,,,,stimuli/images/PICTURE_233.png,LOTS,5f182cf45ce5af05a9ef92a1,16/11/1950,2020-09-10_14h41.13.072,proactive3.1,2020.1.2,Win32,60,5f599a131af4471f3d752b7b,5f5a2c5a55bc9f08b3a47cac,5,,,,,,salt,,,,,,,,,,,5,1,0,13,13,42,1,,,,,,,,,,,,,,,,,,,,,,,,,,,,,,,,,,,,,,,,,,,,,,,,,,,,,,,,,,,,,,,,,,,,,,,,,,,,,,,,,,,,,,,,,,,,,,,,,,,,,,,
,,?,0.002005,0,,,,,,stimuli/images/PICTURE_208.png,SYSTEM,5f182cf45ce5af05a9ef92a1,16/11/1950,2020-09-10_14h41.13.072,proactive3.1,2020.1.2,Win32,60,5f599a131af4471f3d752b7b,5f5a2c5a55bc9f08b3a47cac,5,,,,,,microphone,,,,,,,,,,,4,1,0,14,14,32,1,,,,,,,,,,,,,,,,,,,,,,,,,,,,,,,,,,,,,,,,,,,,,,,,,,,,,,,,,,,,,,,,,,,,,,,,,,,,,,,,,,,,,,,,,,,,,,,,,,,,,,,
,,?,0.00183,0,,,,,,stimuli/images/PICTURE_85.png,NATION,5f182cf45ce5af05a9ef92a1,16/11/1950,2020-09-10_14h41.13.072,proactive3.1,2020.1.2,Win32,60,5f599a131af4471f3d752b7b,5f5a2c5a55bc9f08b3a47cac,5,,,,,,diamond,,,,,,,,,,,1,1,0,15,15,5,1,,,,,,,,,,,,,,,,,,,,,,,,,,,,,,,,,,,,,,,,,,,,,,,,,,,,,,,,,,,,,,,,,,,,,,,,,,,,,,,,,,,,,,,,,,,,,,,,,,,,,,,
,,?,0.001795,0,,,,,,stimuli/images/PICTURE_750.png,HOTEL,5f182cf45ce5af05a9ef92a1,16/11/1950,2020-09-10_14h41.13.072,proactive3.1,2020.1.2,Win32,60,5f599a131af4471f3d752b7b,5f5a2c5a55bc9f08b3a47cac,5,,,,,,kettle,,,,,,,,,,,3,1,0,16,16,27,1,,,,,,,,,,,,,,,,,,,,,,,,,,,,,,,,,,,,,,,,,,,,,,,,,,,,,,,,,,,,,,,,,,,,,,,,,,,,,,,,,,,,,,,,,,,,,,,,,,,,,,,
,,?,0.005575,0,,,,,,stimuli/images/PICTURE_33.png,FRIEND,5f182cf45ce5af05a9ef92a1,16/11/1950,2020-09-10_14h41.13.072,proactive3.1,2020.1.2,Win32,60,5f599a131af4471f3d752b7b,5f5a2c5a55bc9f08b3a47cac,5,,,,,,frame,,,,,,,,,,,1,1,0,17,17,8,1,,,,,,,,,,,,,,,,,,,,,,,,,,,,,,,,,,,,,,,,,,,,,,,,,,,,,,,,,,,,,,,,,,,,,,,,,,,,,,,,,,,,,,,,,,,,,,,,,,,,,,,
,,?,0.00171,0,,,,,,stimuli/images/PICTURE_491.png,RIVER,5f182cf45ce5af05a9ef92a1,16/11/1950,2020-09-10_14h41.13.072,proactive3.1,2020.1.2,Win32,60,5f599a131af4471f3d752b7b,5f5a2c5a55bc9f08b3a47cac,5,,,,,,rug,,,,,,,,,,,1,1,0,18,18,6,1,,,,,,,,,,,,,,,,,,,,,,,,,,,,,,,,,,,,,,,,,,,,,,,,,,,,,,,,,,,,,,,,,,,,,,,,,,,,,,,,,,,,,,,,,,,,,,,,,,,,,,,
,,?,0.001815,0,,,,,,stimuli/images/PICTURE_744.png,WEAPON,5f182cf45ce5af05a9ef92a1,16/11/1950,2020-09-10_14h41.13.072,proactive3.1,2020.1.2,Win32,60,5f599a131af4471f3d752b7b,5f5a2c5a55bc9f08b3a47cac,5,,,,,,ring,,,,,,,,,,,6,1,0,19,19,50,1,,,,,,,,,,,,,,,,,,,,,,,,,,,,,,,,,,,,,,,,,,,,,,,,,,,,,,,,,,,,,,,,,,,,,,,,,,,,,,,,,,,,,,,,,,,,,,,,,,,,,,,
,,?,0.00211,0,,,,,,stimuli/images/PICTURE_285.png,LIFE,5f182cf45ce5af05a9ef92a1,16/11/1950,2020-09-10_14h41.13.072,proactive3.1,2020.1.2,Win32,60,5f599a131af4471f3d752b7b,5f5a2c5a55bc9f08b3a47cac,5,,,,,,carrot,,,,,,,,,,,4,1,0,20,20,33,1,,,,,,,,,,,,,,,,,,,,,,,,,,,,,,,,,,,,,,,,,,,,,,,,,,,,,,,,,,,,,,,,,,,,,,,,,,,,,,,,,,,,,,,,,,,,,,,,,,,,,,,
,,RIVER,3.66329,1,,,,,,stimuli/images/PICTURE_403.png,RIVER,5f182cf45ce5af05a9ef92a1,16/11/1950,2020-09-10_14h41.13.072,proactive3.1,2020.1.2,Win32,60,5f599a131af4471f3d752b7b,5f5a2c5a55bc9f08b3a47cac,5,,,,,,cathedral,,,,,,,,,,,5,1,0,21,21,40,1,,,,,,,,,,,,,,,,,,,,,,,,,,,,,,,,,,,,,,,,,,,,,,,,,,,,,,,,,,,,,,,,,,,,,,,,,,,,,,,,,,,,,,,,,,,,,,,,,,,,,,,
,,?,0.003795,0,,,,,,stimuli/images/PICTURE_685.png,PENNY,5f182cf45ce5af05a9ef92a1,16/11/1950,2020-09-10_14h41.13.072,proactive3.1,2020.1.2,Win32,60,5f599a131af4471f3d752b7b,5f5a2c5a55bc9f08b3a47cac,5,,,,,,goose,,,,,,,,,,,1,1,0,22,22,4,1,,,,,,,,,,,,,,,,,,,,,,,,,,,,,,,,,,,,,,,,,,,,,,,,,,,,,,,,,,,,,,,,,,,,,,,,,,,,,,,,,,,,,,,,,,,,,,,,,,,,,,,
,,?,0.002765,0,,,,,,stimuli/images/PICTURE_68.png,MILE,5f182cf45ce5af05a9ef92a1,16/11/1950,2020-09-10_14h41.13.072,proactive3.1,2020.1.2,Win32,60,5f599a131af4471f3d752b7b,5f5a2c5a55bc9f08b3a47cac,5,,,,,,candle,,,,,,,,,,,6,1,0,23,23,51,1,,,,,,,,,,,,,,,,,,,,,,,,,,,,,,,,,,,,,,,,,,,,,,,,,,,,,,,,,,,,,,,,,,,,,,,,,,,,,,,,,,,,,,,,,,,,,,,,,,,,,,,
,,GIRL,2.497965,1,,,,,,stimuli/images/PICTURE_487.png,GIRL,5f182cf45ce5af05a9ef92a1,16/11/1950,2020-09-10_14h41.13.072,proactive3.1,2020.1.2,Win32,60,5f599a131af4471f3d752b7b,5f5a2c5a55bc9f08b3a47cac,5,,,,,,basket,,,,,,,,,,,5,1,0,24,24,45,1,,,,,,,,,,,,,,,,,,,,,,,,,,,,,,,,,,,,,,,,,,,,,,,,,,,,,,,,,,,,,,,,,,,,,,,,,,,,,,,,,,,,,,,,,,,,,,,,,,,,,,,
,,?,0.002255,0,,,,,,stimuli/images/PICTURE_68.png,ROOF,5f182cf45ce5af05a9ef92a1,16/11/1950,2020-09-10_14h41.13.072,proactive3.1,2020.1.2,Win32,60,5f599a131af4471f3d752b7b,5f5a2c5a55bc9f08b3a47cac,5,,,,,,candle,,,,,,,,,,,4,1,0,25,25,38,1,,,,,,,,,,,,,,,,,,,,,,,,,,,,,,,,,,,,,,,,,,,,,,,,,,,,,,,,,,,,,,,,,,,,,,,,,,,,,,,,,,,,,,,,,,,,,,,,,,,,,,,
,,?,0.002295,0,,,,,,stimuli/images/PICTURE_32.png,PILLS,5f182cf45ce5af05a9ef92a1,16/11/1950,2020-09-10_14h41.13.072,proactive3.1,2020.1.2,Win32,60,5f599a131af4471f3d752b7b,5f5a2c5a55bc9f08b3a47cac,5,,,,,,crown,,,,,,,,,,,2,1,0,26,26,18,1,,,,,,,,,,,,,,,,,,,,,,,,,,,,,,,,,,,,,,,,,,,,,,,,,,,,,,,,,,,,,,,,,,,,,,,,,,,,,,,,,,,,,,,,,,,,,,,,,,,,,,,
,,?,0.0041,0,,,,,,stimuli/images/PICTURE_2.png,FLIGHT,5f182cf45ce5af05a9ef92a1,16/11/1950,2020-09-10_14h41.13.072,proactive3.1,2020.1.2,Win32,60,5f599a131af4471f3d752b7b,5f5a2c5a55bc9f08b3a47cac,5,,,,,,tyre,,,,,,,,,,,2,1,0,27,27,15,1,,,,,,,,,,,,,,,,,,,,,,,,,,,,,,,,,,,,,,,,,,,,,,,,,,,,,,,,,,,,,,,,,,,,,,,,,,,,,,,,,,,,,,,,,,,,,,,,,,,,,,,
,,?,0.003575,0,,,,,,stimuli/images/PICTURE_380.png,HONEY,5f182cf45ce5af05a9ef92a1,16/11/1950,2020-09-10_14h41.13.072,proactive3.1,2020.1.2,Win32,60,5f599a131af4471f3d752b7b,5f5a2c5a55bc9f08b3a47cac,5,,,,,,gorilla,,,,,,,,,,,2,1,0,28,28,19,1,,,,,,,,,,,,,,,,,,,,,,,,,,,,,,,,,,,,,,,,,,,,,,,,,,,,,,,,,,,,,,,,,,,,,,,,,,,,,,,,,,,,,,,,,,,,,,,,,,,,,,,
,,?,0.004085,0,,,,,,stimuli/images/PICTURE_564.png,BATH,5f182cf45ce5af05a9ef92a1,16/11/1950,2020-09-10_14h41.13.072,proactive3.1,2020.1.2,Win32,60,5f599a131af4471f3d752b7b,5f5a2c5a55bc9f08b3a47cac,5,,,,,,spoon,,,,,,,,,,,3,1,0,29,29,26,1,,,,,,,,,,,,,,,,,,,,,,,,,,,,,,,,,,,,,,,,,,,,,,,,,,,,,,,,,,,,,,,,,,,,,,,,,,,,,,,,,,,,,,,,,,,,,,,,,,,,,,,
,,APPLE,3.224055,1,,,,,,stimuli/images/PICTURE_677.png,APPLE,5f182cf45ce5af05a9ef92a1,16/11/1950,2020-09-10_14h41.13.072,proactive3.1,2020.1.2,Win32,60,5f599a131af4471f3d752b7b,5f5a2c5a55bc9f08b3a47cac,5,,,,,,map,,,,,,,,,,,5,1,0,30,30,43,1,,,,,,,,,,,,,,,,,,,,,,,,,,,,,,,,,,,,,,,,,,,,,,,,,,,,,,,,,,,,,,,,,,,,,,,,,,,,,,,,,,,,,,,,,,,,,,,,,,,,,,,
,,?,0.003195,0,,,,,,stimuli/images/PICTURE_296.png,LOTS,5f182cf45ce5af05a9ef92a1,16/11/1950,2020-09-10_14h41.13.072,proactive3.1,2020.1.2,Win32,60,5f599a131af4471f3d752b7b,5f5a2c5a55bc9f08b3a47cac,5,,,,,,bolt,,,,,,,,,,,1,1,0,31,31,9,1,,,,,,,,,,,,,,,,,,,,,,,,,,,,,,,,,,,,,,,,,,,,,,,,,,,,,,,,,,,,,,,,,,,,,,,,,,,,,,,,,,,,,,,,,,,,,,,,,,,,,,,
,,?,8.44226,0,,,,,,stimuli/images/PICTURE_85.png,TOILET,5f182cf45ce5af05a9ef92a1,16/11/1950,2020-09-10_14h41.13.072,proactive3.1,2020.1.2,Win32,60,5f599a131af4471f3d752b7b,5f5a2c5a55bc9f08b3a47cac,5,,,,,,diamond,,,,,,,,,,,5,1,0,32,32,48,1,,,,,,,,,,,,,,,,,,,,,,,,,,,,,,,,,,,,,,,,,,,,,,,,,,,,,,,,,,,,,,,,,,,,,,,,,,,,,,,,,,,,,,,,,,,,,,,,,,,,,,,
,,?,12.382285,0,,,,,,stimuli/images/PICTURE_504.png,ARTIST,5f182cf45ce5af05a9ef92a1,16/11/1950,2020-09-10_14h41.13.072,proactive3.1,2020.1.2,Win32,60,5f599a131af4471f3d752b7b,5f5a2c5a55bc9f08b3a47cac,5,,,,,,wheel,,,,,,,,,,,5,1,0,33,33,49,1,,,,,,,,,,,,,,,,,,,,,,,,,,,,,,,,,,,,,,,,,,,,,,,,,,,,,,,,,,,,,,,,,,,,,,,,,,,,,,,,,,,,,,,,,,,,,,,,,,,,,,,
,,?,0.00257,0,,,,,,stimuli/images/PICTURE_42.png,BOYS,5f182cf45ce5af05a9ef92a1,16/11/1950,2020-09-10_14h41.13.072,proactive3.1,2020.1.2,Win32,60,5f599a131af4471f3d752b7b,5f5a2c5a55bc9f08b3a47cac,5,,,,,,pear,,,,,,,,,,,6,1,0,34,34,55,1,,,,,,,,,,,,,,,,,,,,,,,,,,,,,,,,,,,,,,,,,,,,,,,,,,,,,,,,,,,,,,,,,,,,,,,,,,,,,,,,,,,,,,,,,,,,,,,,,,,,,,,
,,?,0.0033,0,,,,,,stimuli/images/PICTURE_339.png,CLIENT,5f182cf45ce5af05a9ef92a1,16/11/1950,2020-09-10_14h41.13.072,proactive3.1,2020.1.2,Win32,60,5f599a131af4471f3d752b7b,5f5a2c5a55bc9f08b3a47cac,5,,,,,,backpack,,,,,,,,,,,2,1,0,35,35,11,1,,,,,,,,,,,,,,,,,,,,,,,,,,,,,,,,,,,,,,,,,,,,,,,,,,,,,,,,,,,,,,,,,,,,,,,,,,,,,,,,,,,,,,,,,,,,,,,,,,,,,,,
,,?,0.003905,0,,,,,,stimuli/images/PICTURE_203.png,GODS,5f182cf45ce5af05a9ef92a1,16/11/1950,2020-09-10_14h41.13.072,proactive3.1,2020.1.2,Win32,60,5f599a131af4471f3d752b7b,5f5a2c5a55bc9f08b3a47cac,5,,,,,,cap,,,,,,,,,,,4,1,0,36,36,30,1,,,,,,,,,,,,,,,,,,,,,,,,,,,,,,,,,,,,,,,,,,,,,,,,,,,,,,,,,,,,,,,,,,,,,,,,,,,,,,,,,,,,,,,,,,,,,,,,,,,,,,,
,,?,0.003935,0,,,,,,stimuli/images/PICTURE_467.png,POLICY,5f182cf45ce5af05a9ef92a1,16/11/1950,2020-09-10_14h41.13.072,proactive3.1,2020.1.2,Win32,60,5f599a131af4471f3d752b7b,5f5a2c5a55bc9f08b3a47cac,5,,,,,,peg,,,,,,,,,,,6,1,0,37,37,53,1,,,,,,,,,,,,,,,,,,,,,,,,,,,,,,,,,,,,,,,,,,,,,,,,,,,,,,,,,,,,,,,,,,,,,,,,,,,,,,,,,,,,,,,,,,,,,,,,,,,,,,,
,,?,0.002535,0,,,,,,stimuli/images/PICTURE_655.png,TOILET,5f182cf45ce5af05a9ef92a1,16/11/1950,2020-09-10_14h41.13.072,proactive3.1,2020.1.2,Win32,60,5f599a131af4471f3d752b7b,5f5a2c5a55bc9f08b3a47cac,5,,,,,,megaphone,,,,,,,,,,,2,1,0,38,38,12,1,,,,,,,,,,,,,,,,,,,,,,,,,,,,,,,,,,,,,,,,,,,,,,,,,,,,,,,,,,,,,,,,,,,,,,,,,,,,,,,,,,,,,,,,,,,,,,,,,,,,,,,
,,?,0.00287,0,,,,,,stimuli/images/PICTURE_108.png,POLICY,5f182cf45ce5af05a9ef92a1,16/11/1950,2020-09-10_14h41.13.072,proactive3.1,2020.1.2,Win32,60,5f599a131af4471f3d752b7b,5f5a2c5a55bc9f08b3a47cac,5,,,,,,calendar,,,,,,,,,,,3,1,0,39,39,22,1,,,,,,,,,,,,,,,,,,,,,,,,,,,,,,,,,,,,,,,,,,,,,,,,,,,,,,,,,,,,,,,,,,,,,,,,,,,,,,,,,,,,,,,,,,,,,,,,,,,,,,,
,,?,0.002685,0,,,,,,stimuli/images/PICTURE_95.png,MILLER,5f182cf45ce5af05a9ef92a1,16/11/1950,2020-09-10_14h41.13.072,proactive3.1,2020.1.2,Win32,60,5f599a131af4471f3d752b7b,5f5a2c5a55bc9f08b3a47cac,5,,,,,,suitcase,,,,,,,,,,,6,1,0,40,40,56,1,,,,,,,,,,,,,,,,,,,,,,,,,,,,,,,,,,,,,,,,,,,,,,,,,,,,,,,,,,,,,,,,,,,,,,,,,,,,,,,,,,,,,,,,,,,,,,,,,,,,,,,
,,SALE,3.035165,1,,,,,,stimuli/images/PICTURE_675.png,SALE,5f182cf45ce5af05a9ef92a1,16/11/1950,2020-09-10_14h41.13.072,proactive3.1,2020.1.2,Win32,60,5f599a131af4471f3d752b7b,5f5a2c5a55bc9f08b3a47cac,5,,,,,,windmill,,,,,,,,,,,5,1,0,41,41,47,1,,,,,,,,,,,,,,,,,,,,,,,,,,,,,,,,,,,,,,,,,,,,,,,,,,,,,,,,,,,,,,,,,,,,,,,,,,,,,,,,,,,,,,,,,,,,,,,,,,,,,,,
,,?,0.002695,0,,,,,,stimuli/images/PICTURE_57.png,MOMENT,5f182cf45ce5af05a9ef92a1,16/11/1950,2020-09-10_14h41.13.072,proactive3.1,2020.1.2,Win32,60,5f599a131af4471f3d752b7b,5f5a2c5a55bc9f08b3a47cac,5,,,,,,stamp,,,,,,,,,,,4,1,0,42,42,37,1,,,,,,,,,,,,,,,,,,,,,,,,,,,,,,,,,,,,,,,,,,,,,,,,,,,,,,,,,,,,,,,,,,,,,,,,,,,,,,,,,,,,,,,,,,,,,,,,,,,,,,,
,,?,0.002985,0,,,,,,stimuli/images/PICTURE_296.png,LIFE,5f182cf45ce5af05a9ef92a1,16/11/1950,2020-09-10_14h41.13.072,proactive3.1,2020.1.2,Win32,60,5f599a131af4471f3d752b7b,5f5a2c5a55bc9f08b3a47cac,5,,,,,,bolt,,,,,,,,,,,6,1,0,43,43,57,1,,,,,,,,,,,,,,,,,,,,,,,,,,,,,,,,,,,,,,,,,,,,,,,,,,,,,,,,,,,,,,,,,,,,,,,,,,,,,,,,,,,,,,,,,,,,,,,,,,,,,,,
,,?,0.003495,0,,,,,,stimuli/images/PICTURE_403.png,TOILET,5f182cf45ce5af05a9ef92a1,16/11/1950,2020-09-10_14h41.13.072,proactive3.1,2020.1.2,Win32,60,5f599a131af4471f3d752b7b,5f5a2c5a55bc9f08b3a47cac,5,,,,,,cathedral,,,,,,,,,,,3,1,0,44,44,25,1,,,,,,,,,,,,,,,,,,,,,,,,,,,,,,,,,,,,,,,,,,,,,,,,,,,,,,,,,,,,,,,,,,,,,,,,,,,,,,,,,,,,,,,,,,,,,,,,,,,,,,,
,,?,0.00254,0,,,,,,stimuli/images/PICTURE_380.png,CANDY,5f182cf45ce5af05a9ef92a1,16/11/1950,2020-09-10_14h41.13.072,proactive3.1,2020.1.2,Win32,60,5f599a131af4471f3d752b7b,5f5a2c5a55bc9f08b3a47cac,5,,,,,,gorilla,,,,,,,,,,,1,1,0,45,45,0,1,,,,,,,,,,,,,,,,,,,,,,,,,,,,,,,,,,,,,,,,,,,,,,,,,,,,,,,,,,,,,,,,,,,,,,,,,,,,,,,,,,,,,,,,,,,,,,,,,,,,,,,
,,?,0.002905,0,,,,,,stimuli/images/PICTURE_340.png,LETTER,5f182cf45ce5af05a9ef92a1,16/11/1950,2020-09-10_14h41.13.072,proactive3.1,2020.1.2,Win32,60,5f599a131af4471f3d752b7b,5f5a2c5a55bc9f08b3a47cac,5,,,,,,mirror,,,,,,,,,,,3,1,0,46,46,24,1,,,,,,,,,,,,,,,,,,,,,,,,,,,,,,,,,,,,,,,,,,,,,,,,,,,,,,,,,,,,,,,,,,,,,,,,,,,,,,,,,,,,,,,,,,,,,,,,,,,,,,,
,,?,0.00305,0,,,,,,stimuli/images/PICTURE_654.png,MONTH,5f182cf45ce5af05a9ef92a1,16/11/1950,2020-09-10_14h41.13.072,proactive3.1,2020.1.2,Win32,60,5f599a131af4471f3d752b7b,5f5a2c5a55bc9f08b3a47cac,5,,,,,,pencil,,,,,,,,,,,3,1,0,47,47,29,1,,,,,,,,,,,,,,,,,,,,,,,,,,,,,,,,,,,,,,,,,,,,,,,,,,,,,,,,,,,,,,,,,,,,,,,,,,,,,,,,,,,,,,,,,,,,,,,,,,,,,,,
,,?,0.002565,0,,,,,,stimuli/images/PICTURE_203.png,NIGHT,5f182cf45ce5af05a9ef92a1,16/11/1950,2020-09-10_14h41.13.072,proactive3.1,2020.1.2,Win32,60,5f599a131af4471f3d752b7b,5f5a2c5a55bc9f08b3a47cac,5,,,,,,cap,,,,,,,,,,,1,1,0,48,48,2,1,,,,,,,,,,,,,,,,,,,,,,,,,,,,,,,,,,,,,,,,,,,,,,,,,,,,,,,,,,,,,,,,,,,,,,,,,,,,,,,,,,,,,,,,,,,,,,,,,,,,,,,
,,?,0.002775,0,,,,,,stimuli/images/PICTURE_147.png,YEAR,5f182cf45ce5af05a9ef92a1,16/11/1950,2020-09-10_14h41.13.072,proactive3.1,2020.1.2,Win32,60,5f599a131af4471f3d752b7b,5f5a2c5a55bc9f08b3a47cac,5,,,,,,hanger,,,,,,,,,,,3,1,0,49,49,21,1,,,,,,,,,,,,,,,,,,,,,,,,,,,,,,,,,,,,,,,,,,,,,,,,,,,,,,,,,,,,,,,,,,,,,,,,,,,,,,,,,,,,,,,,,,,,,,,,,,,,,,,
,,?,0.0036,0,,,,,,stimuli/images/PICTURE_469.png,AGENT,5f182cf45ce5af05a9ef92a1,16/11/1950,2020-09-10_14h41.13.072,proactive3.1,2020.1.2,Win32,60,5f599a131af4471f3d752b7b,5f5a2c5a55bc9f08b3a47cac,5,,,,,,stool,,,,,,,,,,,2,1,0,50,50,16,1,,,,,,,,,,,,,,,,,,,,,,,,,,,,,,,,,,,,,,,,,,,,,,,,,,,,,,,,,,,,,,,,,,,,,,,,,,,,,,,,,,,,,,,,,,,,,,,,,,,,,,,
,,?,0.002145,0,,,,,,stimuli/images/PICTURE_383.png,WRITER,5f182cf45ce5af05a9ef92a1,16/11/1950,2020-09-10_14h41.13.072,proactive3.1,2020.1.2,Win32,60,5f599a131af4471f3d752b7b,5f5a2c5a55bc9f08b3a47cac,5,,,,,,coin,,,,,,,,,,,3,1,0,51,51,28,1,,,,,,,,,,,,,,,,,,,,,,,,,,,,,,,,,,,,,,,,,,,,,,,,,,,,,,,,,,,,,,,,,,,,,,,,,,,,,,,,,,,,,,,,,,,,,,,,,,,,,,,
,,?,0.001515,0,,,,,,stimuli/images/PICTURE_449.png,DUDE,5f182cf45ce5af05a9ef92a1,16/11/1950,2020-09-10_14h41.13.072,proactive3.1,2020.1.2,Win32,60,5f599a131af4471f3d752b7b,5f5a2c5a55bc9f08b3a47cac,5,,,,,,bench,,,,,,,,,,,2,1,0,52,52,17,1,,,,,,,,,,,,,,,,,,,,,,,,,,,,,,,,,,,,,,,,,,,,,,,,,,,,,,,,,,,,,,,,,,,,,,,,,,,,,,,,,,,,,,,,,,,,,,,,,,,,,,,
,,?,0.001535,0,,,,,,stimuli/images/PICTURE_32.png,KIND,5f182cf45ce5af05a9ef92a1,16/11/1950,2020-09-10_14h41.13.072,proactive3.1,2020.1.2,Win32,60,5f599a131af4471f3d752b7b,5f5a2c5a55bc9f08b3a47cac,5,,,,,,crown,,,,,,,,,,,4,1,0,53,53,35,1,,,,,,,,,,,,,,,,,,,,,,,,,,,,,,,,,,,,,,,,,,,,,,,,,,,,,,,,,,,,,,,,,,,,,,,,,,,,,,,,,,,,,,,,,,,,,,,,,,,,,,,
,,?,0.00164,0,,,,,,stimuli/images/PICTURE_504.png,COPS,5f182cf45ce5af05a9ef92a1,16/11/1950,2020-09-10_14h41.13.072,proactive3.1,2020.1.2,Win32,60,5f599a131af4471f3d752b7b,5f5a2c5a55bc9f08b3a47cac,5,,,,,,wheel,,,,,,,,,,,6,1,0,54,54,52,1,,,,,,,,,,,,,,,,,,,,,,,,,,,,,,,,,,,,,,,,,,,,,,,,,,,,,,,,,,,,,,,,,,,,,,,,,,,,,,,,,,,,,,,,,,,,,,,,,,,,,,,
,,?,0.00149,0,,,,,,stimuli/images/PICTURE_297.png,RIVER,5f182cf45ce5af05a9ef92a1,16/11/1950,2020-09-10_14h41.13.072,proactive3.1,2020.1.2,Win32,60,5f599a131af4471f3d752b7b,5f5a2c5a55bc9f08b3a47cac,5,,,,,,aeroplane,,,,,,,,,,,4,1,0,55,55,39,1,,,,,,,,,,,,,,,,,,,,,,,,,,,,,,,,,,,,,,,,,,,,,,,,,,,,,,,,,,,,,,,,,,,,,,,,,,,,,,,,,,,,,,,,,,,,,,,,,,,,,,,
,,?,0.00149,0,,,,,,stimuli/images/PICTURE_491.png,GLASS,5f182cf45ce5af05a9ef92a1,16/11/1950,2020-09-10_14h41.13.072,proactive3.1,2020.1.2,Win32,60,5f599a131af4471f3d752b7b,5f5a2c5a55bc9f08b3a47cac,5,,,,,,rug,,,,,,,,,,,2,1,0,56,56,14,1,,,,,,,,,,,,,,,,,,,,,,,,,,,,,,,,,,,,,,,,,,,,,,,,,,,,,,,,,,,,,,,,,,,,,,,,,,,,,,,,,,,,,,,,,,,,,,,,,,,,,,,
,,?,0.00208,0,,,,,,stimuli/images/PICTURE_405.png,PLENTY,5f182cf45ce5af05a9ef92a1,16/11/1950,2020-09-10_14h41.13.072,proactive3.1,2020.1.2,Win32,60,5f599a131af4471f3d752b7b,5f5a2c5a55bc9f08b3a47cac,5,,,,,,anchor,,,,,,,,,,,3,1,0,57,57,23,1,,,,,,,,,,,,,,,,,,,,,,,,,,,,,,,,,,,,,,,,,,,,,,,,,,,,,,,,,,,,,,,,,,,,,,,,,,,,,,,,,,,,,,,,,,,,,,,,,,,,,,,
,,WRITER,3.151515,1,,,,,,stimuli/images/PICTURE_177.png,WRITER,5f182cf45ce5af05a9ef92a1,16/11/1950,2020-09-10_14h41.13.072,proactive3.1,2020.1.2,Win32,60,5f599a131af4471f3d752b7b,5f5a2c5a55bc9f08b3a47cac,5,,,,,,mushroom,,,,,,,,,,,5,1,0,58,58,41,1,,,,,,,,,,,,,,,,,,,,,,,,,,,,,,,,,,,,,,,,,,,,,,,,,,,,,,,,,,,,,,,,,,,,,,,,,,,,,,,,,,,,,,,,,,,,,,,,,,,,,,,
,,?,0.00217,0,,,,,,stimuli/images/PICTURE_95.png,BOYS,5f182cf45ce5af05a9ef92a1,16/11/1950,2020-09-10_14h41.13.072,proactive3.1,2020.1.2,Win32,60,5f599a131af4471f3d752b7b,5f5a2c5a55bc9f08b3a47cac,5,,,,,,suitcase,,,,,,,,,,,1,1,0,59,59,1,1,,,,,,,,,,,,,,,,,,,,,,,,,,,,,,,,,,,,,,,,,,,,,,,,,,,,,,,,,,,,,,,,,,,,,,,,,,,,,,,,,,,,,,,,,,,,,,,,,,,,,,,
,,,,,,,,,,,,5f182cf45ce5af05a9ef92a1,16/11/1950,2020-09-10_14h41.13.072,proactive3.1,2020.1.2,Win32,60,5f599a131af4471f3d752b7b,5f5a2c5a55bc9f08b3a47cac,5,,,,,,,,,,,,,,,,,,,,,,,,0,0,0,1,1,stimuli/learn-block2.csv,,,,,,,,,,,,,,,,,,,,,,,,,,,,,,,,,,,,,,,,,,,,,,,,,,,,,,,,,,,,,,,,,,,,,,,,,,,,,,,,,,,,,,,,,,,,,,,,,
,,,,,,,,,,stimuli/images/PICTURE_380.png,DEATH,5f182cf45ce5af05a9ef92a1,16/11/1950,2020-09-10_14h41.13.072,proactive3.1,2020.1.2,Win32,60,5f599a131af4471f3d752b7b,5f5a2c5a55bc9f08b3a47cac,5,,,,,,gorilla,,,,,,0,0,0,49,1,5,0,,,,,,,,,,,,,,,,,,,,,,,,,,,,,,,,,,,,,,,,,,,,,,,,,,,,,,,,,,,,,,,,,,,,,,,,,,,,,,,,,,,,,,,,,,,,,,,,,,,,,,,,,,,,
,,,,,,,,,,stimuli/images/PICTURE_469.png,LETTER,5f182cf45ce5af05a9ef92a1,16/11/1950,2020-09-10_14h41.13.072,proactive3.1,2020.1.2,Win32,60,5f599a131af4471f3d752b7b,5f5a2c5a55bc9f08b3a47cac,5,,,,,,stool,,,,,,0,1,1,42,1,5,0,,,,,,,,,,,,,,,,,,,,,,,,,,,,,,,,,,,,,,,,,,,,,,,,,,,,,,,,,,,,,,,,,,,,,,,,,,,,,,,,,,,,,,,,,,,,,,,,,,,,,,,,,,,,
,,,,,,,,,,stimuli/images/PICTURE_177.png,CARS,5f182cf45ce5af05a9ef92a1,16/11/1950,2020-09-10_14h41.13.072,proactive3.1,2020.1.2,Win32,60,5f599a131af4471f3d752b7b,5f5a2c5a55bc9f08b3a47cac,5,,,,,,mushroom,,,,,,0,2,2,35,1,4,0,,,,,,,,,,,,,,,,,,,,,,,,,,,,,,,,,,,,,,,,,,,,,,,,,,,,,,,,,,,,,,,,,,,,,,,,,,,,,,,,,,,,,,,,,,,,,,,,,,,,,,,,,,,,
,,,,,,,,,,stimuli/images/PICTURE_667.png,PLENTY,5f182cf45ce5af05a9ef92a1,16/11/1950,2020-09-10_14h41.13.072,proactive3.1,2020.1.2,Win32,60,5f599a131af4471f3d752b7b,5f5a2c5a55bc9f08b3a47cac,5,,,,,,daisy,,,,,,0,3,3,41,1,5,0,,,,,,,,,,,,,,,,,,,,,,,,,,,,,,,,,,,,,,,,,,,,,,,,,,,,,,,,,,,,,,,,,,,,,,,,,,,,,,,,,,,,,,,,,,,,,,,,,,,,,,,,,,,,
,,,,,,,,,,stimuli/images/PICTURE_308.png,ESTATE,5f182cf45ce5af05a9ef92a1,16/11/1950,2020-09-10_14h41.13.072,proactive3.1,2020.1.2,Win32,60,5f599a131af4471f3d752b7b,5f5a2c5a55bc9f08b3a47cac,5,,,,,,dice,,,,,,0,4,4,46,1,5,0,,,,,,,,,,,,,,,,,,,,,,,,,,,,,,,,,,,,,,,,,,,,,,,,,,,,,,,,,,,,,,,,,,,,,,,,,,,,,,,,,,,,,,,,,,,,,,,,,,,,,,,,,,,,
,,,,,,,,,,stimuli/images/PICTURE_95.png,STYLE,5f182cf45ce5af05a9ef92a1,16/11/1950,2020-09-10_14h41.13.072,proactive3.1,2020.1.2,Win32,60,5f599a131af4471f3d752b7b,5f5a2c5a55bc9f08b3a47cac,5,,,,,,suitcase,,,,,,0,5,5,25,1,3,0,,,,,,,,,,,,,,,,,,,,,,,,,,,,,,,,,,,,,,,,,,,,,,,,,,,,,,,,,,,,,,,,,,,,,,,,,,,,,,,,,,,,,,,,,,,,,,,,,,,,,,,,,,,,
,,,,,,,,,,stimuli/images/PICTURE_308.png,KIND,5f182cf45ce5af05a9ef92a1,16/11/1950,2020-09-10_14h41.13.072,proactive3.1,2020.1.2,Win32,60,5f599a131af4471f3d752b7b,5f5a2c5a55bc9f08b3a47cac,5,,,,,,dice,,,,,,0,6,6,54,1,6,0,,,,,,,,,,,,,,,,,,,,,,,,,,,,,,,,,,,,,,,,,,,,,,,,,,,,,,,,,,,,,,,,,,,,,,,,,,,,,,,,,,,,,,,,,,,,,,,,,,,,,,,,,,,,
,,,,,,,,,,stimuli/images/PICTURE_453.png,PLENTY,5f182cf45ce5af05a9ef92a1,16/11/1950,2020-09-10_14h41.13.072,proactive3.1,2020.1.2,Win32,60,5f599a131af4471f3d752b7b,5f5a2c5a55bc9f08b3a47cac,5,,,,,,scissors,,,,,,0,7,7,56,1,6,0,,,,,,,,,,,,,,,,,,,,,,,,,,,,,,,,,,,,,,,,,,,,,,,,,,,,,,,,,,,,,,,,,,,,,,,,,,,,,,,,,,,,,,,,,,,,,,,,,,,,,,,,,,,,
,,,,,,,,,,stimuli/images/PICTURE_675.png,WEAPON,5f182cf45ce5af05a9ef92a1,16/11/1950,2020-09-10_14h41.13.072,proactive3.1,2020.1.2,Win32,60,5f599a131af4471f3d752b7b,5f5a2c5a55bc9f08b3a47cac,5,,,,,,windmill,,,,,,0,8,8,32,1,4,0,,,,,,,,,,,,,,,,,,,,,,,,,,,,,,,,,,,,,,,,,,,,,,,,,,,,,,,,,,,,,,,,,,,,,,,,,,,,,,,,,,,,,,,,,,,,,,,,,,,,,,,,,,,,
,,,,,,,,,,stimuli/images/PICTURE_380.png,PHOTO,5f182cf45ce5af05a9ef92a1,16/11/1950,2020-09-10_14h41.13.072,proactive3.1,2020.1.2,Win32,60,5f599a131af4471f3d752b7b,5f5a2c5a55bc9f08b3a47cac,5,,,,,,gorilla,,,,,,0,9,9,52,1,6,0,,,,,,,,,,,,,,,,,,,,,,,,,,,,,,,,,,,,,,,,,,,,,,,,,,,,,,,,,,,,,,,,,,,,,,,,,,,,,,,,,,,,,,,,,,,,,,,,,,,,,,,,,,,,
,,,,,,,,,,stimuli/images/PICTURE_215.png,PLENTY,5f182cf45ce5af05a9ef92a1,16/11/1950,2020-09-10_14h41.13.072,proactive3.1,2020.1.2,Win32,60,5f599a131af4471f3d752b7b,5f5a2c5a55bc9f08b3a47cac,5,,,,,,boot,,,,,,0,10,10,37,1,4,0,,,,,,,,,,,,,,,,,,,,,,,,,,,,,,,,,,,,,,,,,,,,,,,,,,,,,,,,,,,,,,,,,,,,,,,,,,,,,,,,,,,,,,,,,,,,,,,,,,,,,,,,,,,,
,,,,,,,,,,stimuli/images/PICTURE_708.png,PENNY,5f182cf45ce5af05a9ef92a1,16/11/1950,2020-09-10_14h41.13.072,proactive3.1,2020.1.2,Win32,60,5f599a131af4471f3d752b7b,5f5a2c5a55bc9f08b3a47cac,5,,,,,,monkey,,,,,,0,11,11,31,1,4,0,,,,,,,,,,,,,,,,,,,,,,,,,,,,,,,,,,,,,,,,,,,,,,,,,,,,,,,,,,,,,,,,,,,,,,,,,,,,,,,,,,,,,,,,,,,,,,,,,,,,,,,,,,,,
,,,,,,,,,,stimuli/images/PICTURE_123.png,ADVICE,5f182cf45ce5af05a9ef92a1,16/11/1950,2020-09-10_14h41.13.072,proactive3.1,2020.1.2,Win32,60,5f599a131af4471f3d752b7b,5f5a2c5a55bc9f08b3a47cac,5,,,,,,dart,,,,,,0,12,12,40,1,5,0,,,,,,,,,,,,,,,,,,,,,,,,,,,,,,,,,,,,,,,,,,,,,,,,,,,,,,,,,,,,,,,,,,,,,,,,,,,,,,,,,,,,,,,,,,,,,,,,,,,,,,,,,,,,
,,,,,,,,,,stimuli/images/PICTURE_311.png,BEAUTY,5f182cf45ce5af05a9ef92a1,16/11/1950,2020-09-10_14h41.13.072,proactive3.1,2020.1.2,Win32,60,5f599a131af4471f3d752b7b,5f5a2c5a55bc9f08b3a47cac,5,,,,,,razor,,,,,,0,13,13,13,1,2,0,,,,,,,,,,,,,,,,,,,,,,,,,,,,,,,,,,,,,,,,,,,,,,,,,,,,,,,,,,,,,,,,,,,,,,,,,,,,,,,,,,,,,,,,,,,,,,,,,,,,,,,,,,,,
,,,,,,,,,,stimuli/images/PICTURE_744.png,SYSTEM,5f182cf45ce5af05a9ef92a1,16/11/1950,2020-09-10_14h41.13.072,proactive3.1,2020.1.2,Win32,60,5f599a131af4471f3d752b7b,5f5a2c5a55bc9f08b3a47cac,5,,,,,,ring,,,,,,0,14,14,43,1,5,0,,,,,,,,,,,,,,,,,,,,,,,,,,,,,,,,,,,,,,,,,,,,,,,,,,,,,,,,,,,,,,,,,,,,,,,,,,,,,,,,,,,,,,,,,,,,,,,,,,,,,,,,,,,,
,,,,,,,,,,stimuli/images/PICTURE_453.png,DUDE,5f182cf45ce5af05a9ef92a1,16/11/1950,2020-09-10_14h41.13.072,proactive3.1,2020.1.2,Win32,60,5f599a131af4471f3d752b7b,5f5a2c5a55bc9f08b3a47cac,5,,,,,,scissors,,,,,,0,15,15,27,1,3,0,,,,,,,,,,,,,,,,,,,,,,,,,,,,,,,,,,,,,,,,,,,,,,,,,,,,,,,,,,,,,,,,,,,,,,,,,,,,,,,,,,,,,,,,,,,,,,,,,,,,,,,,,,,,
,,,,,,,,,,stimuli/images/PICTURE_667.png,BATH,5f182cf45ce5af05a9ef92a1,16/11/1950,2020-09-10_14h41.13.072,proactive3.1,2020.1.2,Win32,60,5f599a131af4471f3d752b7b,5f5a2c5a55bc9f08b3a47cac,5,,,,,,daisy,,,,,,0,16,16,4,1,1,0,,,,,,,,,,,,,,,,,,,,,,,,,,,,,,,,,,,,,,,,,,,,,,,,,,,,,,,,,,,,,,,,,,,,,,,,,,,,,,,,,,,,,,,,,,,,,,,,,,,,,,,,,,,,
,,,,,,,,,,stimuli/images/PICTURE_677.png,MILE,5f182cf45ce5af05a9ef92a1,16/11/1950,2020-09-10_14h41.13.072,proactive3.1,2020.1.2,Win32,60,5f599a131af4471f3d752b7b,5f5a2c5a55bc9f08b3a47cac,5,,,,,,map,,,,,,0,17,17,30,1,4,0,,,,,,,,,,,,,,,,,,,,,,,,,,,,,,,,,,,,,,,,,,,,,,,,,,,,,,,,,,,,,,,,,,,,,,,,,,,,,,,,,,,,,,,,,,,,,,,,,,,,,,,,,,,,
,,,,,,,,,,stimuli/images/PICTURE_688.png,CASINO,5f182cf45ce5af05a9ef92a1,16/11/1950,2020-09-10_14h41.13.072,proactive3.1,2020.1.2,Win32,60,5f599a131af4471f3d752b7b,5f5a2c5a55bc9f08b3a47cac,5,,,,,,runner,,,,,,0,18,18,2,1,1,0,,,,,,,,,,,,,,,,,,,,,,,,,,,,,,,,,,,,,,,,,,,,,,,,,,,,,,,,,,,,,,,,,,,,,,,,,,,,,,,,,,,,,,,,,,,,,,,,,,,,,,,,,,,,
,,,,,,,,,,stimuli/images/PICTURE_85.png,THING,5f182cf45ce5af05a9ef92a1,16/11/1950,2020-09-10_14h41.13.072,proactive3.1,2020.1.2,Win32,60,5f599a131af4471f3d752b7b,5f5a2c5a55bc9f08b3a47cac,5,,,,,,diamond,,,,,,0,19,19,15,1,2,0,,,,,,,,,,,,,,,,,,,,,,,,,,,,,,,,,,,,,,,,,,,,,,,,,,,,,,,,,,,,,,,,,,,,,,,,,,,,,,,,,,,,,,,,,,,,,,,,,,,,,,,,,,,,
,,,,,,,,,,stimuli/images/PICTURE_449.png,THING,5f182cf45ce5af05a9ef92a1,16/11/1950,2020-09-10_14h41.13.072,proactive3.1,2020.1.2,Win32,60,5f599a131af4471f3d752b7b,5f5a2c5a55bc9f08b3a47cac,5,,,,,,bench,,,,,,0,20,20,59,1,6,0,,,,,,,,,,,,,,,,,,,,,,,,,,,,,,,,,,,,,,,,,,,,,,,,,,,,,,,,,,,,,,,,,,,,,,,,,,,,,,,,,,,,,,,,,,,,,,,,,,,,,,,,,,,,
,,,,,,,,,,stimuli/images/PICTURE_203.png,ARTIST,5f182cf45ce5af05a9ef92a1,16/11/1950,2020-09-10_14h41.13.072,proactive3.1,2020.1.2,Win32,60,5f599a131af4471f3d752b7b,5f5a2c5a55bc9f08b3a47cac,5,,,,,,cap,,,,,,0,21,21,26,1,3,0,,,,,,,,,,,,,,,,,,,,,,,,,,,,,,,,,,,,,,,,,,,,,,,,,,,,,,,,,,,,,,,,,,,,,,,,,,,,,,,,,,,,,,,,,,,,,,,,,,,,,,,,,,,,
,,,,,,,,,,stimuli/images/PICTURE_233.png,IDEAS,5f182cf45ce5af05a9ef92a1,16/11/1950,2020-09-10_14h41.13.072,proactive3.1,2020.1.2,Win32,60,5f599a131af4471f3d752b7b,5f5a2c5a55bc9f08b3a47cac,5,,,,,,salt,,,,,,0,22,22,28,1,3,0,,,,,,,,,,,,,,,,,,,,,,,,,,,,,,,,,,,,,,,,,,,,,,,,,,,,,,,,,,,,,,,,,,,,,,,,,,,,,,,,,,,,,,,,,,,,,,,,,,,,,,,,,,,,
,,,,,,,,,,stimuli/images/PICTURE_327.png,BEAUTY,5f182cf45ce5af05a9ef92a1,16/11/1950,2020-09-10_14h41.13.072,proactive3.1,2020.1.2,Win32,60,5f599a131af4471f3d752b7b,5f5a2c5a55bc9f08b3a47cac,5,,,,,,helmet,,,,,,0,23,23,48,1,5,0,,,,,,,,,,,,,,,,,,,,,,,,,,,,,,,,,,,,,,,,,,,,,,,,,,,,,,,,,,,,,,,,,,,,,,,,,,,,,,,,,,,,,,,,,,,,,,,,,,,,,,,,,,,,
,,,,,,,,,,stimuli/images/PICTURE_160.png,FEET,5f182cf45ce5af05a9ef92a1,16/11/1950,2020-09-10_14h41.13.072,proactive3.1,2020.1.2,Win32,60,5f599a131af4471f3d752b7b,5f5a2c5a55bc9f08b3a47cac,5,,,,,,wheelbarrow,,,,,,0,24,24,58,1,6,0,,,,,,,,,,,,,,,,,,,,,,,,,,,,,,,,,,,,,,,,,,,,,,,,,,,,,,,,,,,,,,,,,,,,,,,,,,,,,,,,,,,,,,,,,,,,,,,,,,,,,,,,,,,,
,,,,,,,,,,stimuli/images/PICTURE_491.png,WRITER,5f182cf45ce5af05a9ef92a1,16/11/1950,2020-09-10_14h41.13.072,proactive3.1,2020.1.2,Win32,60,5f599a131af4471f3d752b7b,5f5a2c5a55bc9f08b3a47cac,5,,,,,,rug,,,,,,0,25,25,57,1,6,0,,,,,,,,,,,,,,,,,,,,,,,,,,,,,,,,,,,,,,,,,,,,,,,,,,,,,,,,,,,,,,,,,,,,,,,,,,,,,,,,,,,,,,,,,,,,,,,,,,,,,,,,,,,,
,,,,,,,,,,stimuli/images/PICTURE_708.png,CLIENT,5f182cf45ce5af05a9ef92a1,16/11/1950,2020-09-10_14h41.13.072,proactive3.1,2020.1.2,Win32,60,5f599a131af4471f3d752b7b,5f5a2c5a55bc9f08b3a47cac,5,,,,,,monkey,,,,,,0,26,26,5,1,1,0,,,,,,,,,,,,,,,,,,,,,,,,,,,,,,,,,,,,,,,,,,,,,,,,,,,,,,,,,,,,,,,,,,,,,,,,,,,,,,,,,,,,,,,,,,,,,,,,,,,,,,,,,,,,
,,,,,,,,,,stimuli/images/PICTURE_356.png,DANGER,5f182cf45ce5af05a9ef92a1,16/11/1950,2020-09-10_14h41.13.072,proactive3.1,2020.1.2,Win32,60,5f599a131af4471f3d752b7b,5f5a2c5a55bc9f08b3a47cac,5,,,,,,pawn,,,,,,0,27,27,55,1,6,0,,,,,,,,,,,,,,,,,,,,,,,,,,,,,,,,,,,,,,,,,,,,,,,,,,,,,,,,,,,,,,,,,,,,,,,,,,,,,,,,,,,,,,,,,,,,,,,,,,,,,,,,,,,,
,,,,,,,,,,stimuli/images/PICTURE_151.png,GIRL,5f182cf45ce5af05a9ef92a1,16/11/1950,2020-09-10_14h41.13.072,proactive3.1,2020.1.2,Win32,60,5f599a131af4471f3d752b7b,5f5a2c5a55bc9f08b3a47cac,5,,,,,,tray,,,,,,0,28,28,19,1,2,0,,,,,,,,,,,,,,,,,,,,,,,,,,,,,,,,,,,,,,,,,,,,,,,,,,,,,,,,,,,,,,,,,,,,,,,,,,,,,,,,,,,,,,,,,,,,,,,,,,,,,,,,,,,,
,,,,,,,,,,stimuli/images/PICTURE_311.png,FRIEND,5f182cf45ce5af05a9ef92a1,16/11/1950,2020-09-10_14h41.13.072,proactive3.1,2020.1.2,Win32,60,5f599a131af4471f3d752b7b,5f5a2c5a55bc9f08b3a47cac,5,,,,,,razor,,,,,,0,29,29,34,1,4,0,,,,,,,,,,,,,,,,,,,,,,,,,,,,,,,,,,,,,,,,,,,,,,,,,,,,,,,,,,,,,,,,,,,,,,,,,,,,,,,,,,,,,,,,,,,,,,,,,,,,,,,,,,,,
,,,,,,,,,,stimuli/images/PICTURE_255.png,AREA,5f182cf45ce5af05a9ef92a1,16/11/1950,2020-09-10_14h41.13.072,proactive3.1,2020.1.2,Win32,60,5f599a131af4471f3d752b7b,5f5a2c5a55bc9f08b3a47cac,5,,,,,,shovel,,,,,,0,30,30,22,1,3,0,,,,,,,,,,,,,,,,,,,,,,,,,,,,,,,,,,,,,,,,,,,,,,,,,,,,,,,,,,,,,,,,,,,,,,,,,,,,,,,,,,,,,,,,,,,,,,,,,,,,,,,,,,,,
,,,,,,,,,,stimuli/images/PICTURE_208.png,THING,5f182cf45ce5af05a9ef92a1,16/11/1950,2020-09-10_14h41.13.072,proactive3.1,2020.1.2,Win32,60,5f599a131af4471f3d752b7b,5f5a2c5a55bc9f08b3a47cac,5,,,,,,microphone,,,,,,0,31,31,47,1,5,0,,,,,,,,,,,,,,,,,,,,,,,,,,,,,,,,,,,,,,,,,,,,,,,,,,,,,,,,,,,,,,,,,,,,,,,,,,,,,,,,,,,,,,,,,,,,,,,,,,,,,,,,,,,,
,,,,,,,,,,stimuli/images/PICTURE_692.png,MONTH,5f182cf45ce5af05a9ef92a1,16/11/1950,2020-09-10_14h41.13.072,proactive3.1,2020.1.2,Win32,60,5f599a131af4471f3d752b7b,5f5a2c5a55bc9f08b3a47cac,5,,,,,,cherry,,,,,,0,32,32,16,1,2,0,,,,,,,,,,,,,,,,,,,,,,,,,,,,,,,,,,,,,,,,,,,,,,,,,,,,,,,,,,,,,,,,,,,,,,,,,,,,,,,,,,,,,,,,,,,,,,,,,,,,,,,,,,,,
,,,,,,,,,,stimuli/images/PICTURE_285.png,ADVICE,5f182cf45ce5af05a9ef92a1,16/11/1950,2020-09-10_14h41.13.072,proactive3.1,2020.1.2,Win32,60,5f599a131af4471f3d752b7b,5f5a2c5a55bc9f08b3a47cac,5,,,,,,carrot,,,,,,0,33,33,12,1,2,0,,,,,,,,,,,,,,,,,,,,,,,,,,,,,,,,,,,,,,,,,,,,,,,,,,,,,,,,,,,,,,,,,,,,,,,,,,,,,,,,,,,,,,,,,,,,,,,,,,,,,,,,,,,,
,,,,,,,,,,stimuli/images/PICTURE_248.png,DOZEN,5f182cf45ce5af05a9ef92a1,16/11/1950,2020-09-10_14h41.13.072,proactive3.1,2020.1.2,Win32,60,5f599a131af4471f3d752b7b,5f5a2c5a55bc9f08b3a47cac,5,,,,,,cart,,,,,,0,34,34,39,1,4,0,,,,,,,,,,,,,,,,,,,,,,,,,,,,,,,,,,,,,,,,,,,,,,,,,,,,,,,,,,,,,,,,,,,,,,,,,,,,,,,,,,,,,,,,,,,,,,,,,,,,,,,,,,,,
,,,,,,,,,,stimuli/images/PICTURE_744.png,SAKE,5f182cf45ce5af05a9ef92a1,16/11/1950,2020-09-10_14h41.13.072,proactive3.1,2020.1.2,Win32,60,5f599a131af4471f3d752b7b,5f5a2c5a55bc9f08b3a47cac,5,,,,,,ring,,,,,,0,35,35,17,1,2,0,,,,,,,,,,,,,,,,,,,,,,,,,,,,,,,,,,,,,,,,,,,,,,,,,,,,,,,,,,,,,,,,,,,,,,,,,,,,,,,,,,,,,,,,,,,,,,,,,,,,,,,,,,,,
,,,,,,,,,,stimuli/images/PICTURE_339.png,PLENTY,5f182cf45ce5af05a9ef92a1,16/11/1950,2020-09-10_14h41.13.072,proactive3.1,2020.1.2,Win32,60,5f599a131af4471f3d752b7b,5f5a2c5a55bc9f08b3a47cac,5,,,,,,backpack,,,,,,0,36,36,0,1,1,0,,,,,,,,,,,,,,,,,,,,,,,,,,,,,,,,,,,,,,,,,,,,,,,,,,,,,,,,,,,,,,,,,,,,,,,,,,,,,,,,,,,,,,,,,,,,,,,,,,,,,,,,,,,,
,,,,,,,,,,stimuli/images/PICTURE_688.png,WOMEN,5f182cf45ce5af05a9ef92a1,16/11/1950,2020-09-10_14h41.13.072,proactive3.1,2020.1.2,Win32,60,5f599a131af4471f3d752b7b,5f5a2c5a55bc9f08b3a47cac,5,,,,,,runner,,,,,,0,37,37,14,1,2,0,,,,,,,,,,,,,,,,,,,,,,,,,,,,,,,,,,,,,,,,,,,,,,,,,,,,,,,,,,,,,,,,,,,,,,,,,,,,,,,,,,,,,,,,,,,,,,,,,,,,,,,,,,,,
,,,,,,,,,,stimuli/images/PICTURE_654.png,VALLEY,5f182cf45ce5af05a9ef92a1,16/11/1950,2020-09-10_14h41.13.072,proactive3.1,2020.1.2,Win32,60,5f599a131af4471f3d752b7b,5f5a2c5a55bc9f08b3a47cac,5,,,,,,pencil,,,,,,0,38,38,1,1,1,0,,,,,,,,,,,,,,,,,,,,,,,,,,,,,,,,,,,,,,,,,,,,,,,,,,,,,,,,,,,,,,,,,,,,,,,,,,,,,,,,,,,,,,,,,,,,,,,,,,,,,,,,,,,,
,,,,,,,,,,stimuli/images/PICTURE_208.png,LOTS,5f182cf45ce5af05a9ef92a1,16/11/1950,2020-09-10_14h41.13.072,proactive3.1,2020.1.2,Win32,60,5f599a131af4471f3d752b7b,5f5a2c5a55bc9f08b3a47cac,5,,,,,,microphone,,,,,,0,39,39,10,1,2,0,,,,,,,,,,,,,,,,,,,,,,,,,,,,,,,,,,,,,,,,,,,,,,,,,,,,,,,,,,,,,,,,,,,,,,,,,,,,,,,,,,,,,,,,,,,,,,,,,,,,,,,,,,,,
,,,,,,,,,,stimuli/images/PICTURE_469.png,ARTIST,5f182cf45ce5af05a9ef92a1,16/11/1950,2020-09-10_14h41.13.072,proactive3.1,2020.1.2,Win32,60,5f599a131af4471f3d752b7b,5f5a2c5a55bc9f08b3a47cac,5,,,,,,stool,,,,,,0,40,40,6,1,1,0,,,,,,,,,,,,,,,,,,,,,,,,,,,,,,,,,,,,,,,,,,,,,,,,,,,,,,,,,,,,,,,,,,,,,,,,,,,,,,,,,,,,,,,,,,,,,,,,,,,,,,,,,,,,
,,,,,,,,,,stimuli/images/PICTURE_314.png,SAKE,5f182cf45ce5af05a9ef92a1,16/11/1950,2020-09-10_14h41.13.072,proactive3.1,2020.1.2,Win32,60,5f599a131af4471f3d752b7b,5f5a2c5a55bc9f08b3a47cac,5,,,,,,perfume,,,,,,0,41,41,7,1,1,0,,,,,,,,,,,,,,,,,,,,,,,,,,,,,,,,,,,,,,,,,,,,,,,,,,,,,,,,,,,,,,,,,,,,,,,,,,,,,,,,,,,,,,,,,,,,,,,,,,,,,,,,,,,,
,,,,,,,,,,stimuli/images/PICTURE_488.png,STYLE,5f182cf45ce5af05a9ef92a1,16/11/1950,2020-09-10_14h41.13.072,proactive3.1,2020.1.2,Win32,60,5f599a131af4471f3d752b7b,5f5a2c5a55bc9f08b3a47cac,5,,,,,,sun,,,,,,0,42,42,33,1,4,0,,,,,,,,,,,,,,,,,,,,,,,,,,,,,,,,,,,,,,,,,,,,,,,,,,,,,,,,,,,,,,,,,,,,,,,,,,,,,,,,,,,,,,,,,,,,,,,,,,,,,,,,,,,,
,,,,,,,,,,stimuli/images/PICTURE_147.png,MOMENT,5f182cf45ce5af05a9ef92a1,16/11/1950,2020-09-10_14h41.13.072,proactive3.1,2020.1.2,Win32,60,5f599a131af4471f3d752b7b,5f5a2c5a55bc9f08b3a47cac,5,,,,,,hanger,,,,,,0,43,43,51,1,6,0,,,,,,,,,,,,,,,,,,,,,,,,,,,,,,,,,,,,,,,,,,,,,,,,,,,,,,,,,,,,,,,,,,,,,,,,,,,,,,,,,,,,,,,,,,,,,,,,,,,,,,,,,,,,
,,,,,,,,,,stimuli/images/PICTURE_302.png,FAMILY,5f182cf45ce5af05a9ef92a1,16/11/1950,2020-09-10_14h41.13.072,proactive3.1,2020.1.2,Win32,60,5f599a131af4471f3d752b7b,5f5a2c5a55bc9f08b3a47cac,5,,,,,,taxi,,,,,,0,44,44,18,1,2,0,,,,,,,,,,,,,,,,,,,,,,,,,,,,,,,,,,,,,,,,,,,,,,,,,,,,,,,,,,,,,,,,,,,,,,,,,,,,,,,,,,,,,,,,,,,,,,,,,,,,,,,,,,,,
,,,,,,,,,,stimuli/images/PICTURE_504.png,BODY,5f182cf45ce5af05a9ef92a1,16/11/1950,2020-09-10_14h41.13.072,proactive3.1,2020.1.2,Win32,60,5f599a131af4471f3d752b7b,5f5a2c5a55bc9f08b3a47cac,5,,,,,,wheel,,,,,,0,45,45,8,1,1,0,,,,,,,,,,,,,,,,,,,,,,,,,,,,,,,,,,,,,,,,,,,,,,,,,,,,,,,,,,,,,,,,,,,,,,,,,,,,,,,,,,,,,,,,,,,,,,,,,,,,,,,,,,,,
,,,,,,,,,,stimuli/images/PICTURE_32.png,JUNGLE,5f182cf45ce5af05a9ef92a1,16/11/1950,2020-09-10_14h41.13.072,proactive3.1,2020.1.2,Win32,60,5f599a131af4471f3d752b7b,5f5a2c5a55bc9f08b3a47cac,5,,,,,,crown,,,,,,0,46,46,45,1,5,0,,,,,,,,,,,,,,,,,,,,,,,,,,,,,,,,,,,,,,,,,,,,,,,,,,,,,,,,,,,,,,,,,,,,,,,,,,,,,,,,,,,,,,,,,,,,,,,,,,,,,,,,,,,,
,,,,,,,,,,stimuli/images/PICTURE_233.png,WOMEN,5f182cf45ce5af05a9ef92a1,16/11/1950,2020-09-10_14h41.13.072,proactive3.1,2020.1.2,Win32,60,5f599a131af4471f3d752b7b,5f5a2c5a55bc9f08b3a47cac,5,,,,,,salt,,,,,,0,47,47,38,1,4,0,,,,,,,,,,,,,,,,,,,,,,,,,,,,,,,,,,,,,,,,,,,,,,,,,,,,,,,,,,,,,,,,,,,,,,,,,,,,,,,,,,,,,,,,,,,,,,,,,,,,,,,,,,,,
,,,,,,,,,,stimuli/images/PICTURE_160.png,LEADER,5f182cf45ce5af05a9ef92a1,16/11/1950,2020-09-10_14h41.13.072,proactive3.1,2020.1.2,Win32,60,5f599a131af4471f3d752b7b,5f5a2c5a55bc9f08b3a47cac,5,,,,,,wheelbarrow,,,,,,0,48,48,3,1,1,0,,,,,,,,,,,,,,,,,,,,,,,,,,,,,,,,,,,,,,,,,,,,,,,,,,,,,,,,,,,,,,,,,,,,,,,,,,,,,,,,,,,,,,,,,,,,,,,,,,,,,,,,,,,,
,,,,,,,,,,stimuli/images/PICTURE_470.png,CASINO,5f182cf45ce5af05a9ef92a1,16/11/1950,2020-09-10_14h41.13.072,proactive3.1,2020.1.2,Win32,60,5f599a131af4471f3d752b7b,5f5a2c5a55bc9f08b3a47cac,5,,,,,,motorbike,,,,,,0,49,49,36,1,4,0,,,,,,,,,,,,,,,,,,,,,,,,,,,,,,,,,,,,,,,,,,,,,,,,,,,,,,,,,,,,,,,,,,,,,,,,,,,,,,,,,,,,,,,,,,,,,,,,,,,,,,,,,,,,
,,,,,,,,,,stimuli/images/PICTURE_487.png,FLIGHT,5f182cf45ce5af05a9ef92a1,16/11/1950,2020-09-10_14h41.13.072,proactive3.1,2020.1.2,Win32,60,5f599a131af4471f3d752b7b,5f5a2c5a55bc9f08b3a47cac,5,,,,,,basket,,,,,,0,50,50,9,1,1,0,,,,,,,,,,,,,,,,,,,,,,,,,,,,,,,,,,,,,,,,,,,,,,,,,,,,,,,,,,,,,,,,,,,,,,,,,,,,,,,,,,,,,,,,,,,,,,,,,,,,,,,,,,,,
,,,,,,,,,,stimuli/images/PICTURE_509.png,PHOTO,5f182cf45ce5af05a9ef92a1,16/11/1950,2020-09-10_14h41.13.072,proactive3.1,2020.1.2,Win32,60,5f599a131af4471f3d752b7b,5f5a2c5a55bc9f08b3a47cac,5,,,,,,telephone,,,,,,0,51,51,21,1,3,0,,,,,,,,,,,,,,,,,,,,,,,,,,,,,,,,,,,,,,,,,,,,,,,,,,,,,,,,,,,,,,,,,,,,,,,,,,,,,,,,,,,,,,,,,,,,,,,,,,,,,,,,,,,,
,,,,,,,,,,stimuli/images/PICTURE_68.png,MILE,5f182cf45ce5af05a9ef92a1,16/11/1950,2020-09-10_14h41.13.072,proactive3.1,2020.1.2,Win32,60,5f599a131af4471f3d752b7b,5f5a2c5a55bc9f08b3a47cac,5,,,,,,candle,,,,,,0,52,52,44,1,5,0,,,,,,,,,,,,,,,,,,,,,,,,,,,,,,,,,,,,,,,,,,,,,,,,,,,,,,,,,,,,,,,,,,,,,,,,,,,,,,,,,,,,,,,,,,,,,,,,,,,,,,,,,,,,
,,,,,,,,,,stimuli/images/PICTURE_708.png,YARD,5f182cf45ce5af05a9ef92a1,16/11/1950,2020-09-10_14h41.13.072,proactive3.1,2020.1.2,Win32,60,5f599a131af4471f3d752b7b,5f5a2c5a55bc9f08b3a47cac,5,,,,,,monkey,,,,,,0,53,53,29,1,3,0,,,,,,,,,,,,,,,,,,,,,,,,,,,,,,,,,,,,,,,,,,,,,,,,,,,,,,,,,,,,,,,,,,,,,,,,,,,,,,,,,,,,,,,,,,,,,,,,,,,,,,,,,,,,
,,,,,,,,,,stimuli/images/PICTURE_467.png,DEMON,5f182cf45ce5af05a9ef92a1,16/11/1950,2020-09-10_14h41.13.072,proactive3.1,2020.1.2,Win32,60,5f599a131af4471f3d752b7b,5f5a2c5a55bc9f08b3a47cac,5,,,,,,peg,,,,,,0,54,54,23,1,3,0,,,,,,,,,,,,,,,,,,,,,,,,,,,,,,,,,,,,,,,,,,,,,,,,,,,,,,,,,,,,,,,,,,,,,,,,,,,,,,,,,,,,,,,,,,,,,,,,,,,,,,,,,,,,
,,,,,,,,,,stimuli/images/PICTURE_348.png,SPEECH,5f182cf45ce5af05a9ef92a1,16/11/1950,2020-09-10_14h41.13.072,proactive3.1,2020.1.2,Win32,60,5f599a131af4471f3d752b7b,5f5a2c5a55bc9f08b3a47cac,5,,,,,,pepper,,,,,,0,55,55,20,1,3,0,,,,,,,,,,,,,,,,,,,,,,,,,,,,,,,,,,,,,,,,,,,,,,,,,,,,,,,,,,,,,,,,,,,,,,,,,,,,,,,,,,,,,,,,,,,,,,,,,,,,,,,,,,,,
,,,,,,,,,,stimuli/images/PICTURE_314.png,GODS,5f182cf45ce5af05a9ef92a1,16/11/1950,2020-09-10_14h41.13.072,proactive3.1,2020.1.2,Win32,60,5f599a131af4471f3d752b7b,5f5a2c5a55bc9f08b3a47cac,5,,,,,,perfume,,,,,,0,56,56,11,1,2,0,,,,,,,,,,,,,,,,,,,,,,,,,,,,,,,,,,,,,,,,,,,,,,,,,,,,,,,,,,,,,,,,,,,,,,,,,,,,,,,,,,,,,,,,,,,,,,,,,,,,,,,,,,,,
,,,,,,,,,,stimuli/images/PICTURE_208.png,MONTH,5f182cf45ce5af05a9ef92a1,16/11/1950,2020-09-10_14h41.13.072,proactive3.1,2020.1.2,Win32,60,5f599a131af4471f3d752b7b,5f5a2c5a55bc9f08b3a47cac,5,,,,,,microphone,,,,,,0,57,57,53,1,6,0,,,,,,,,,,,,,,,,,,,,,,,,,,,,,,,,,,,,,,,,,,,,,,,,,,,,,,,,,,,,,,,,,,,,,,,,,,,,,,,,,,,,,,,,,,,,,,,,,,,,,,,,,,,,
,,,,,,,,,,stimuli/images/PICTURE_123.png,ADVICE,5f182cf45ce5af05a9ef92a1,16/11/1950,2020-09-10_14h41.13.072,proactive3.1,2020.1.2,Win32,60,5f599a131af4471f3d752b7b,5f5a2c5a55bc9f08b3a47cac,5,,,,,,dart,,,,,,0,58,58,50,1,6,0,,,,,,,,,,,,,,,,,,,,,,,,,,,,,,,,,,,,,,,,,,,,,,,,,,,,,,,,,,,,,,,,,,,,,,,,,,,,,,,,,,,,,,,,,,,,,,,,,,,,,,,,,,,,
,,?,0.003485,0,,,,,,stimuli/images/PICTURE_667.png,BATH,5f182cf45ce5af05a9ef92a1,16/11/1950,2020-09-10_14h41.13.072,proactive3.1,2020.1.2,Win32,60,5f599a131af4471f3d752b7b,5f5a2c5a55bc9f08b3a47cac,5,,,,,,daisy,,,,,,,,,,,1,0,0,0,0,4,1,,,,,,,,,,,,,,,,,,,,,,,,,,,,,,,,,,,,,,,,,,,,,,,,,,,,,,,,,,,,,,,,,,,,,,,,,,,,,,,,,,,,,,,,,,,,,,,,,,,,,,,
,,SYSTEM,3.811215,0,,,,,,stimuli/images/PICTURE_469.png,LETTER,5f182cf45ce5af05a9ef92a1,16/11/1950,2020-09-10_14h41.13.072,proactive3.1,2020.1.2,Win32,60,5f599a131af4471f3d752b7b,5f5a2c5a55bc9f08b3a47cac,5,,,,,,stool,,,,,,,,,,,5,0,0,1,1,42,1,,,,,,,,,,,,,,,,,,,,,,,,,,,,,,,,,,,,,,,,,,,,,,,,,,,,,,,,,,,,,,,,,,,,,,,,,,,,,,,,,,,,,,,,,,,,,,,,,,,,,,,
,,?,0.001695,0,,,,,,stimuli/images/PICTURE_654.png,VALLEY,5f182cf45ce5af05a9ef92a1,16/11/1950,2020-09-10_14h41.13.072,proactive3.1,2020.1.2,Win32,60,5f599a131af4471f3d752b7b,5f5a2c5a55bc9f08b3a47cac,5,,,,,,pencil,,,,,,,,,,,1,0,0,2,2,1,1,,,,,,,,,,,,,,,,,,,,,,,,,,,,,,,,,,,,,,,,,,,,,,,,,,,,,,,,,,,,,,,,,,,,,,,,,,,,,,,,,,,,,,,,,,,,,,,,,,,,,,,
,,?,0.00154,0,,,,,,stimuli/images/PICTURE_692.png,MONTH,5f182cf45ce5af05a9ef92a1,16/11/1950,2020-09-10_14h41.13.072,proactive3.1,2020.1.2,Win32,60,5f599a131af4471f3d752b7b,5f5a2c5a55bc9f08b3a47cac,5,,,,,,cherry,,,,,,,,,,,2,0,0,3,3,16,1,,,,,,,,,,,,,,,,,,,,,,,,,,,,,,,,,,,,,,,,,,,,,,,,,,,,,,,,,,,,,,,,,,,,,,,,,,,,,,,,,,,,,,,,,,,,,,,,,,,,,,,
,,?,0.00166,0,,,,,,stimuli/images/PICTURE_308.png,KIND,5f182cf45ce5af05a9ef92a1,16/11/1950,2020-09-10_14h41.13.072,proactive3.1,2020.1.2,Win32,60,5f599a131af4471f3d752b7b,5f5a2c5a55bc9f08b3a47cac,5,,,,,,dice,,,,,,,,,,,6,0,0,4,4,54,1,,,,,,,,,,,,,,,,,,,,,,,,,,,,,,,,,,,,,,,,,,,,,,,,,,,,,,,,,,,,,,,,,,,,,,,,,,,,,,,,,,,,,,,,,,,,,,,,,,,,,,,
,,?,0.00187,0,,,,,,stimuli/images/PICTURE_677.png,MILE,5f182cf45ce5af05a9ef92a1,16/11/1950,2020-09-10_14h41.13.072,proactive3.1,2020.1.2,Win32,60,5f599a131af4471f3d752b7b,5f5a2c5a55bc9f08b3a47cac,5,,,,,,map,,,,,,,,,,,4,0,0,5,5,30,1,,,,,,,,,,,,,,,,,,,,,,,,,,,,,,,,,,,,,,,,,,,,,,,,,,,,,,,,,,,,,,,,,,,,,,,,,,,,,,,,,,,,,,,,,,,,,,,,,,,,,,,
,,?,0.001645,0,,,,,,stimuli/images/PICTURE_177.png,CARS,5f182cf45ce5af05a9ef92a1,16/11/1950,2020-09-10_14h41.13.072,proactive3.1,2020.1.2,Win32,60,5f599a131af4471f3d752b7b,5f5a2c5a55bc9f08b3a47cac,5,,,,,,mushroom,,,,,,,,,,,4,0,0,6,6,35,1,,,,,,,,,,,,,,,,,,,,,,,,,,,,,,,,,,,,,,,,,,,,,,,,,,,,,,,,,,,,,,,,,,,,,,,,,,,,,,,,,,,,,,,,,,,,,,,,,,,,,,,
,,?,0.002275,0,,,,,,stimuli/images/PICTURE_469.png,ARTIST,5f182cf45ce5af05a9ef92a1,16/11/1950,2020-09-10_14h41.13.072,proactive3.1,2020.1.2,Win32,60,5f599a131af4471f3d752b7b,5f5a2c5a55bc9f08b3a47cac,5,,,,,,stool,,,,,,,,,,,1,0,0,7,7,6,1,,,,,,,,,,,,,,,,,,,,,,,,,,,,,,,,,,,,,,,,,,,,,,,,,,,,,,,,,,,,,,,,,,,,,,,,,,,,,,,,,,,,,,,,,,,,,,,,,,,,,,,
,,?,0.002335,0,,,,,,stimuli/images/PICTURE_467.png,DEMON,5f182cf45ce5af05a9ef92a1,16/11/1950,2020-09-10_14h41.13.072,proactive3.1,2020.1.2,Win32,60,5f599a131af4471f3d752b7b,5f5a2c5a55bc9f08b3a47cac,5,,,,,,peg,,,,,,,,,,,3,0,0,8,8,23,1,,,,,,,,,,,,,,,,,,,,,,,,,,,,,,,,,,,,,,,,,,,,,,,,,,,,,,,,,,,,,,,,,,,,,,,,,,,,,,,,,,,,,,,,,,,,,,,,,,,,,,,
,,?,0.002365,0,,,,,,stimuli/images/PICTURE_314.png,GODS,5f182cf45ce5af05a9ef92a1,16/11/1950,2020-09-10_14h41.13.072,proactive3.1,2020.1.2,Win32,60,5f599a131af4471f3d752b7b,5f5a2c5a55bc9f08b3a47cac,5,,,,,,perfume,,,,,,,,,,,2,0,0,9,9,11,1,,,,,,,,,,,,,,,,,,,,,,,,,,,,,,,,,,,,,,,,,,,,,,,,,,,,,,,,,,,,,,,,,,,,,,,,,,,,,,,,,,,,,,,,,,,,,,,,,,,,,,,
,,?,0.00226,0,,,,,,stimuli/images/PICTURE_708.png,PENNY,5f182cf45ce5af05a9ef92a1,16/11/1950,2020-09-10_14h41.13.072,proactive3.1,2020.1.2,Win32,60,5f599a131af4471f3d752b7b,5f5a2c5a55bc9f08b3a47cac,5,,,,,,monkey,,,,,,,,,,,4,0,0,10,10,31,1,,,,,,,,,,,,,,,,,,,,,,,,,,,,,,,,,,,,,,,,,,,,,,,,,,,,,,,,,,,,,,,,,,,,,,,,,,,,,,,,,,,,,,,,,,,,,,,,,,,,,,,
,,?,0.00256,0,,,,,,stimuli/images/PICTURE_487.png,FLIGHT,5f182cf45ce5af05a9ef92a1,16/11/1950,2020-09-10_14h41.13.072,proactive3.1,2020.1.2,Win32,60,5f599a131af4471f3d752b7b,5f5a2c5a55bc9f08b3a47cac,5,,,,,,basket,,,,,,,,,,,1,0,0,11,11,9,1,,,,,,,,,,,,,,,,,,,,,,,,,,,,,,,,,,,,,,,,,,,,,,,,,,,,,,,,,,,,,,,,,,,,,,,,,,,,,,,,,,,,,,,,,,,,,,,,,,,,,,,
,,?,0.002445,0,,,,,,stimuli/images/PICTURE_488.png,STYLE,5f182cf45ce5af05a9ef92a1,16/11/1950,2020-09-10_14h41.13.072,proactive3.1,2020.1.2,Win32,60,5f599a131af4471f3d752b7b,5f5a2c5a55bc9f08b3a47cac,5,,,,,,sun,,,,,,,,,,,4,0,0,12,12,33,1,,,,,,,,,,,,,,,,,,,,,,,,,,,,,,,,,,,,,,,,,,,,,,,,,,,,,,,,,,,,,,,,,,,,,,,,,,,,,,,,,,,,,,,,,,,,,,,,,,,,,,,
,,?,0.00245,0,,,,,,stimuli/images/PICTURE_302.png,FAMILY,5f182cf45ce5af05a9ef92a1,16/11/1950,2020-09-10_14h41.13.072,proactive3.1,2020.1.2,Win32,60,5f599a131af4471f3d752b7b,5f5a2c5a55bc9f08b3a47cac,5,,,,,,taxi,,,,,,,,,,,2,0,0,13,13,18,1,,,,,,,,,,,,,,,,,,,,,,,,,,,,,,,,,,,,,,,,,,,,,,,,,,,,,,,,,,,,,,,,,,,,,,,,,,,,,,,,,,,,,,,,,,,,,,,,,,,,,,,
,,?,0.002355,0,,,,,,stimuli/images/PICTURE_470.png,CASINO,5f182cf45ce5af05a9ef92a1,16/11/1950,2020-09-10_14h41.13.072,proactive3.1,2020.1.2,Win32,60,5f599a131af4471f3d752b7b,5f5a2c5a55bc9f08b3a47cac,5,,,,,,motorbike,,,,,,,,,,,4,0,0,14,14,36,1,,,,,,,,,,,,,,,,,,,,,,,,,,,,,,,,,,,,,,,,,,,,,,,,,,,,,,,,,,,,,,,,,,,,,,,,,,,,,,,,,,,,,,,,,,,,,,,,,,,,,,,
,,?,0.00237,0,,,,,,stimuli/images/PICTURE_233.png,IDEAS,5f182cf45ce5af05a9ef92a1,16/11/1950,2020-09-10_14h41.13.072,proactive3.1,2020.1.2,Win32,60,5f599a131af4471f3d752b7b,5f5a2c5a55bc9f08b3a47cac,5,,,,,,salt,,,,,,,,,,,3,0,0,15,15,28,1,,,,,,,,,,,,,,,,,,,,,,,,,,,,,,,,,,,,,,,,,,,,,,,,,,,,,,,,,,,,,,,,,,,,,,,,,,,,,,,,,,,,,,,,,,,,,,,,,,,,,,,
,,?,0.00223,0,,,,,,stimuli/images/PICTURE_688.png,WOMEN,5f182cf45ce5af05a9ef92a1,16/11/1950,2020-09-10_14h41.13.072,proactive3.1,2020.1.2,Win32,60,5f599a131af4471f3d752b7b,5f5a2c5a55bc9f08b3a47cac,5,,,,,,runner,,,,,,,,,,,2,0,0,16,16,14,1,,,,,,,,,,,,,,,,,,,,,,,,,,,,,,,,,,,,,,,,,,,,,,,,,,,,,,,,,,,,,,,,,,,,,,,,,,,,,,,,,,,,,,,,,,,,,,,,,,,,,,,
,,?,0.001665,0,,,,,,stimuli/images/PICTURE_708.png,YARD,5f182cf45ce5af05a9ef92a1,16/11/1950,2020-09-10_14h41.13.072,proactive3.1,2020.1.2,Win32,60,5f599a131af4471f3d752b7b,5f5a2c5a55bc9f08b3a47cac,5,,,,,,monkey,,,,,,,,,,,3,0,0,17,17,29,1,,,,,,,,,,,,,,,,,,,,,,,,,,,,,,,,,,,,,,,,,,,,,,,,,,,,,,,,,,,,,,,,,,,,,,,,,,,,,,,,,,,,,,,,,,,,,,,,,,,,,,,
,,?,7.47966,0,,,,,,stimuli/images/PICTURE_327.png,BEAUTY,5f182cf45ce5af05a9ef92a1,16/11/1950,2020-09-10_14h41.13.072,proactive3.1,2020.1.2,Win32,60,5f599a131af4471f3d752b7b,5f5a2c5a55bc9f08b3a47cac,5,,,,,,helmet,,,,,,,,,,,5,0,0,18,18,48,1,,,,,,,,,,,,,,,,,,,,,,,,,,,,,,,,,,,,,,,,,,,,,,,,,,,,,,,,,,,,,,,,,,,,,,,,,,,,,,,,,,,,,,,,,,,,,,,,,,,,,,,
,,?,0.00446,0,,,,,,stimuli/images/PICTURE_380.png,PHOTO,5f182cf45ce5af05a9ef92a1,16/11/1950,2020-09-10_14h41.13.072,proactive3.1,2020.1.2,Win32,60,5f599a131af4471f3d752b7b,5f5a2c5a55bc9f08b3a47cac,5,,,,,,gorilla,,,,,,,,,,,6,0,0,19,19,52,1,,,,,,,,,,,,,,,,,,,,,,,,,,,,,,,,,,,,,,,,,,,,,,,,,,,,,,,,,,,,,,,,,,,,,,,,,,,,,,,,,,,,,,,,,,,,,,,,,,,,,,,
,,?,0.004865,0,,,,,,stimuli/images/PICTURE_203.png,ARTIST,5f182cf45ce5af05a9ef92a1,16/11/1950,2020-09-10_14h41.13.072,proactive3.1,2020.1.2,Win32,60,5f599a131af4471f3d752b7b,5f5a2c5a55bc9f08b3a47cac,5,,,,,,cap,,,,,,,,,,,3,0,0,20,20,26,1,,,,,,,,,,,,,,,,,,,,,,,,,,,,,,,,,,,,,,,,,,,,,,,,,,,,,,,,,,,,,,,,,,,,,,,,,,,,,,,,,,,,,,,,,,,,,,,,,,,,,,,
,,?,0.005795,0,,,,,,stimuli/images/PICTURE_356.png,DANGER,5f182cf45ce5af05a9ef92a1,16/11/1950,2020-09-10_14h41.13.072,proactive3.1,2020.1.2,Win32,60,5f599a131af4471f3d752b7b,5f5a2c5a55bc9f08b3a47cac,5,,,,,,pawn,,,,,,,,,,,6,0,0,21,21,55,1,,,,,,,,,,,,,,,,,,,,,,,,,,,,,,,,,,,,,,,,,,,,,,,,,,,,,,,,,,,,,,,,,,,,,,,,,,,,,,,,,,,,,,,,,,,,,,,,,,,,,,,
,,?,0.004705,0,,,,,,stimuli/images/PICTURE_744.png,SAKE,5f182cf45ce5af05a9ef92a1,16/11/1950,2020-09-10_14h41.13.072,proactive3.1,2020.1.2,Win32,60,5f599a131af4471f3d752b7b,5f5a2c5a55bc9f08b3a47cac,5,,,,,,ring,,,,,,,,,,,2,0,0,22,22,17,1,,,,,,,,,,,,,,,,,,,,,,,,,,,,,,,,,,,,,,,,,,,,,,,,,,,,,,,,,,,,,,,,,,,,,,,,,,,,,,,,,,,,,,,,,,,,,,,,,,,,,,,
,,?,0.004635,0,,,,,,stimuli/images/PICTURE_160.png,FEET,5f182cf45ce5af05a9ef92a1,16/11/1950,2020-09-10_14h41.13.072,proactive3.1,2020.1.2,Win32,60,5f599a131af4471f3d752b7b,5f5a2c5a55bc9f08b3a47cac,5,,,,,,wheelbarrow,,,,,,,,,,,6,0,0,23,23,58,1,,,,,,,,,,,,,,,,,,,,,,,,,,,,,,,,,,,,,,,,,,,,,,,,,,,,,,,,,,,,,,,,,,,,,,,,,,,,,,,,,,,,,,,,,,,,,,,,,,,,,,,
,,?,0.004965,0,,,,,,stimuli/images/PICTURE_95.png,STYLE,5f182cf45ce5af05a9ef92a1,16/11/1950,2020-09-10_14h41.13.072,proactive3.1,2020.1.2,Win32,60,5f599a131af4471f3d752b7b,5f5a2c5a55bc9f08b3a47cac,5,,,,,,suitcase,,,,,,,,,,,3,0,0,24,24,25,1,,,,,,,,,,,,,,,,,,,,,,,,,,,,,,,,,,,,,,,,,,,,,,,,,,,,,,,,,,,,,,,,,,,,,,,,,,,,,,,,,,,,,,,,,,,,,,,,,,,,,,,
,,SYSTEM,3.303625,1,,,,,,stimuli/images/PICTURE_744.png,SYSTEM,5f182cf45ce5af05a9ef92a1,16/11/1950,2020-09-10_14h41.13.072,proactive3.1,2020.1.2,Win32,60,5f599a131af4471f3d752b7b,5f5a2c5a55bc9f08b3a47cac,5,,,,,,ring,,,,,,,,,,,5,0,0,25,25,43,1,,,,,,,,,,,,,,,,,,,,,,,,,,,,,,,,,,,,,,,,,,,,,,,,,,,,,,,,,,,,,,,,,,,,,,,,,,,,,,,,,,,,,,,,,,,,,,,,,,,,,,,
,,?,0.001875,0,,,,,,stimuli/images/PICTURE_688.png,CASINO,5f182cf45ce5af05a9ef92a1,16/11/1950,2020-09-10_14h41.13.072,proactive3.1,2020.1.2,Win32,60,5f599a131af4471f3d752b7b,5f5a2c5a55bc9f08b3a47cac,5,,,,,,runner,,,,,,,,,,,1,0,0,26,26,2,1,,,,,,,,,,,,,,,,,,,,,,,,,,,,,,,,,,,,,,,,,,,,,,,,,,,,,,,,,,,,,,,,,,,,,,,,,,,,,,,,,,,,,,,,,,,,,,,,,,,,,,,
,,?,0.001625,0,,,,,,stimuli/images/PICTURE_151.png,GIRL,5f182cf45ce5af05a9ef92a1,16/11/1950,2020-09-10_14h41.13.072,proactive3.1,2020.1.2,Win32,60,5f599a131af4471f3d752b7b,5f5a2c5a55bc9f08b3a47cac,5,,,,,,tray,,,,,,,,,,,2,0,0,27,27,19,1,,,,,,,,,,,,,,,,,,,,,,,,,,,,,,,,,,,,,,,,,,,,,,,,,,,,,,,,,,,,,,,,,,,,,,,,,,,,,,,,,,,,,,,,,,,,,,,,,,,,,,,
,,JUNGLE,4.440985,1,,,,,,stimuli/images/PICTURE_32.png,JUNGLE,5f182cf45ce5af05a9ef92a1,16/11/1950,2020-09-10_14h41.13.072,proactive3.1,2020.1.2,Win32,60,5f599a131af4471f3d752b7b,5f5a2c5a55bc9f08b3a47cac,5,,,,,,crown,,,,,,,,,,,5,0,0,28,28,45,1,,,,,,,,,,,,,,,,,,,,,,,,,,,,,,,,,,,,,,,,,,,,,,,,,,,,,,,,,,,,,,,,,,,,,,,,,,,,,,,,,,,,,,,,,,,,,,,,,,,,,,,
,,MILE,4.146865,1,,,,,,stimuli/images/PICTURE_68.png,MILE,5f182cf45ce5af05a9ef92a1,16/11/1950,2020-09-10_14h41.13.072,proactive3.1,2020.1.2,Win32,60,5f599a131af4471f3d752b7b,5f5a2c5a55bc9f08b3a47cac,5,,,,,,candle,,,,,,,,,,,5,0,0,29,29,44,1,,,,,,,,,,,,,,,,,,,,,,,,,,,,,,,,,,,,,,,,,,,,,,,,,,,,,,,,,,,,,,,,,,,,,,,,,,,,,,,,,,,,,,,,,,,,,,,,,,,,,,,
,,?,0.00521,0,,,,,,stimuli/images/PICTURE_504.png,BODY,5f182cf45ce5af05a9ef92a1,16/11/1950,2020-09-10_14h41.13.072,proactive3.1,2020.1.2,Win32,60,5f599a131af4471f3d752b7b,5f5a2c5a55bc9f08b3a47cac,5,,,,,,wheel,,,,,,,,,,,1,0,0,30,30,8,1,,,,,,,,,,,,,,,,,,,,,,,,,,,,,,,,,,,,,,,,,,,,,,,,,,,,,,,,,,,,,,,,,,,,,,,,,,,,,,,,,,,,,,,,,,,,,,,,,,,,,,,
,,?,0.005325,0,,,,,,stimuli/images/PICTURE_491.png,ROOF,5f182cf45ce5af05a9ef92a1,16/11/1950,2020-09-10_14h41.13.072,proactive3.1,2020.1.2,Win32,60,5f599a131af4471f3d752b7b,5f5a2c5a55bc9f08b3a47cac,5,,,,,,rug,,,,,,,,,,,3,0,0,31,31,24,1,,,,,,,,,,,,,,,,,,,,,,,,,,,,,,,,,,,,,,,,,,,,,,,,,,,,,,,,,,,,,,,,,,,,,,,,,,,,,,,,,,,,,,,,,,,,,,,,,,,,,,,
,,?,0.003845,0,,,,,,stimuli/images/PICTURE_339.png,PLENTY,5f182cf45ce5af05a9ef92a1,16/11/1950,2020-09-10_14h41.13.072,proactive3.1,2020.1.2,Win32,60,5f599a131af4471f3d752b7b,5f5a2c5a55bc9f08b3a47cac,5,,,,,,backpack,,,,,,,,,,,1,0,0,32,32,0,1,,,,,,,,,,,,,,,,,,,,,,,,,,,,,,,,,,,,,,,,,,,,,,,,,,,,,,,,,,,,,,,,,,,,,,,,,,,,,,,,,,,,,,,,,,,,,,,,,,,,,,,
,,?,0.003665,0,,,,,,stimuli/images/PICTURE_215.png,PLENTY,5f182cf45ce5af05a9ef92a1,16/11/1950,2020-09-10_14h41.13.072,proactive3.1,2020.1.2,Win32,60,5f599a131af4471f3d752b7b,5f5a2c5a55bc9f08b3a47cac,5,,,,,,boot,,,,,,,,,,,4,0,0,33,33,37,1,,,,,,,,,,,,,,,,,,,,,,,,,,,,,,,,,,,,,,,,,,,,,,,,,,,,,,,,,,,,,,,,,,,,,,,,,,,,,,,,,,,,,,,,,,,,,,,,,,,,,,,
,,?,0.00365,0,,,,,,stimuli/images/PICTURE_85.png,THING,5f182cf45ce5af05a9ef92a1,16/11/1950,2020-09-10_14h41.13.072,proactive3.1,2020.1.2,Win32,60,5f599a131af4471f3d752b7b,5f5a2c5a55bc9f08b3a47cac,5,,,,,,diamond,,,,,,,,,,,2,0,0,34,34,15,1,,,,,,,,,,,,,,,,,,,,,,,,,,,,,,,,,,,,,,,,,,,,,,,,,,,,,,,,,,,,,,,,,,,,,,,,,,,,,,,,,,,,,,,,,,,,,,,,,,,,,,,
,,?,0.00421,0,,,,,,stimuli/images/PICTURE_708.png,CLIENT,5f182cf45ce5af05a9ef92a1,16/11/1950,2020-09-10_14h41.13.072,proactive3.1,2020.1.2,Win32,60,5f599a131af4471f3d752b7b,5f5a2c5a55bc9f08b3a47cac,5,,,,,,monkey,,,,,,,,,,,1,0,0,35,35,5,1,,,,,,,,,,,,,,,,,,,,,,,,,,,,,,,,,,,,,,,,,,,,,,,,,,,,,,,,,,,,,,,,,,,,,,,,,,,,,,,,,,,,,,,,,,,,,,,,,,,,,,,
,,?,7.257875,0,,,,,,stimuli/images/PICTURE_308.png,ESTATE,5f182cf45ce5af05a9ef92a1,16/11/1950,2020-09-10_14h41.13.072,proactive3.1,2020.1.2,Win32,60,5f599a131af4471f3d752b7b,5f5a2c5a55bc9f08b3a47cac,5,,,,,,dice,,,,,,,,,,,5,0,0,36,36,46,1,,,,,,,,,,,,,,,,,,,,,,,,,,,,,,,,,,,,,,,,,,,,,,,,,,,,,,,,,,,,,,,,,,,,,,,,,,,,,,,,,,,,,,,,,,,,,,,,,,,,,,,
,,?,0.00245,0,,,,,,stimuli/images/PICTURE_255.png,AREA,5f182cf45ce5af05a9ef92a1,16/11/1950,2020-09-10_14h41.13.072,proactive3.1,2020.1.2,Win32,60,5f599a131af4471f3d752b7b,5f5a2c5a55bc9f08b3a47cac,5,,,,,,shovel,,,,,,,,,,,3,0,0,37,37,22,1,,,,,,,,,,,,,,,,,,,,,,,,,,,,,,,,,,,,,,,,,,,,,,,,,,,,,,,,,,,,,,,,,,,,,,,,,,,,,,,,,,,,,,,,,,,,,,,,,,,,,,,
,,?,0.002335,0,,,,,,stimuli/images/PICTURE_675.png,WEAPON,5f182cf45ce5af05a9ef92a1,16/11/1950,2020-09-10_14h41.13.072,proactive3.1,2020.1.2,Win32,60,5f599a131af4471f3d752b7b,5f5a2c5a55bc9f08b3a47cac,5,,,,,,windmill,,,,,,,,,,,4,0,0,38,38,32,1,,,,,,,,,,,,,,,,,,,,,,,,,,,,,,,,,,,,,,,,,,,,,,,,,,,,,,,,,,,,,,,,,,,,,,,,,,,,,,,,,,,,,,,,,,,,,,,,,,,,,,,
,,?,0.002665,0,,,,,,stimuli/images/PICTURE_160.png,LEADER,5f182cf45ce5af05a9ef92a1,16/11/1950,2020-09-10_14h41.13.072,proactive3.1,2020.1.2,Win32,60,5f599a131af4471f3d752b7b,5f5a2c5a55bc9f08b3a47cac,5,,,,,,wheelbarrow,,,,,,,,,,,1,0,0,39,39,3,1,,,,,,,,,,,,,,,,,,,,,,,,,,,,,,,,,,,,,,,,,,,,,,,,,,,,,,,,,,,,,,,,,,,,,,,,,,,,,,,,,,,,,,,,,,,,,,,,,,,,,,,
,,?,3.71087,0,,,,,,stimuli/images/PICTURE_667.png,PLENTY,5f182cf45ce5af05a9ef92a1,16/11/1950,2020-09-10_14h41.13.072,proactive3.1,2020.1.2,Win32,60,5f599a131af4471f3d752b7b,5f5a2c5a55bc9f08b3a47cac,5,,,,,,daisy,,,,,,,,,,,5,0,0,40,40,41,1,,,,,,,,,,,,,,,,,,,,,,,,,,,,,,,,,,,,,,,,,,,,,,,,,,,,,,,,,,,,,,,,,,,,,,,,,,,,,,,,,,,,,,,,,,,,,,,,,,,,,,,
,,?,0.005,0,,,,,,stimuli/images/PICTURE_453.png,PLENTY,5f182cf45ce5af05a9ef92a1,16/11/1950,2020-09-10_14h41.13.072,proactive3.1,2020.1.2,Win32,60,5f599a131af4471f3d752b7b,5f5a2c5a55bc9f08b3a47cac,5,,,,,,scissors,,,,,,,,,,,6,0,0,41,41,56,1,,,,,,,,,,,,,,,,,,,,,,,,,,,,,,,,,,,,,,,,,,,,,,,,,,,,,,,,,,,,,,,,,,,,,,,,,,,,,,,,,,,,,,,,,,,,,,,,,,,,,,,
,,?,0.0057,0,,,,,,stimuli/images/PICTURE_208.png,LOTS,5f182cf45ce5af05a9ef92a1,16/11/1950,2020-09-10_14h41.13.072,proactive3.1,2020.1.2,Win32,60,5f599a131af4471f3d752b7b,5f5a2c5a55bc9f08b3a47cac,5,,,,,,microphone,,,,,,,,,,,2,0,0,42,42,10,1,,,,,,,,,,,,,,,,,,,,,,,,,,,,,,,,,,,,,,,,,,,,,,,,,,,,,,,,,,,,,,,,,,,,,,,,,,,,,,,,,,,,,,,,,,,,,,,,,,,,,,,
,,?,0.00232,0,,,,,,stimuli/images/PICTURE_123.png,ADVICE,5f182cf45ce5af05a9ef92a1,16/11/1950,2020-09-10_14h41.13.072,proactive3.1,2020.1.2,Win32,60,5f599a131af4471f3d752b7b,5f5a2c5a55bc9f08b3a47cac,5,,,,,,dart,,,,,,,,,,,6,0,0,43,43,50,1,,,,,,,,,,,,,,,,,,,,,,,,,,,,,,,,,,,,,,,,,,,,,,,,,,,,,,,,,,,,,,,,,,,,,,,,,,,,,,,,,,,,,,,,,,,,,,,,,,,,,,,
,,?,0.002115,0,,,,,,stimuli/images/PICTURE_509.png,PHOTO,5f182cf45ce5af05a9ef92a1,16/11/1950,2020-09-10_14h41.13.072,proactive3.1,2020.1.2,Win32,60,5f599a131af4471f3d752b7b,5f5a2c5a55bc9f08b3a47cac,5,,,,,,telephone,,,,,,,,,,,3,0,0,44,44,21,1,,,,,,,,,,,,,,,,,,,,,,,,,,,,,,,,,,,,,,,,,,,,,,,,,,,,,,,,,,,,,,,,,,,,,,,,,,,,,,,,,,,,,,,,,,,,,,,,,,,,,,,
,,?,0.002085,0,,,,,,stimuli/images/PICTURE_285.png,ADVICE,5f182cf45ce5af05a9ef92a1,16/11/1950,2020-09-10_14h41.13.072,proactive3.1,2020.1.2,Win32,60,5f599a131af4471f3d752b7b,5f5a2c5a55bc9f08b3a47cac,5,,,,,,carrot,,,,,,,,,,,2,0,0,45,45,12,1,,,,,,,,,,,,,,,,,,,,,,,,,,,,,,,,,,,,,,,,,,,,,,,,,,,,,,,,,,,,,,,,,,,,,,,,,,,,,,,,,,,,,,,,,,,,,,,,,,,,,,,
,,?,0.00202,0,,,,,,stimuli/images/PICTURE_491.png,WRITER,5f182cf45ce5af05a9ef92a1,16/11/1950,2020-09-10_14h41.13.072,proactive3.1,2020.1.2,Win32,60,5f599a131af4471f3d752b7b,5f5a2c5a55bc9f08b3a47cac,5,,,,,,rug,,,,,,,,,,,6,0,0,46,46,57,1,,,,,,,,,,,,,,,,,,,,,,,,,,,,,,,,,,,,,,,,,,,,,,,,,,,,,,,,,,,,,,,,,,,,,,,,,,,,,,,,,,,,,,,,,,,,,,,,,,,,,,,
,,?,0.002005,0,,,,,,stimuli/images/PICTURE_248.png,DOZEN,5f182cf45ce5af05a9ef92a1,16/11/1950,2020-09-10_14h41.13.072,proactive3.1,2020.1.2,Win32,60,5f599a131af4471f3d752b7b,5f5a2c5a55bc9f08b3a47cac,5,,,,,,cart,,,,,,,,,,,4,0,0,47,47,39,1,,,,,,,,,,,,,,,,,,,,,,,,,,,,,,,,,,,,,,,,,,,,,,,,,,,,,,,,,,,,,,,,,,,,,,,,,,,,,,,,,,,,,,,,,,,,,,,,,,,,,,,
,,?,0.002375,0,,,,,,stimuli/images/PICTURE_208.png,MONTH,5f182cf45ce5af05a9ef92a1,16/11/1950,2020-09-10_14h41.13.072,proactive3.1,2020.1.2,Win32,60,5f599a131af4471f3d752b7b,5f5a2c5a55bc9f08b3a47cac,5,,,,,,microphone,,,,,,,,,,,6,0,0,48,48,53,1,,,,,,,,,,,,,,,,,,,,,,,,,,,,,,,,,,,,,,,,,,,,,,,,,,,,,,,,,,,,,,,,,,,,,,,,,,,,,,,,,,,,,,,,,,,,,,,,,,,,,,,
,,?,4.01701,0,,,,,,stimuli/images/PICTURE_208.png,THING,5f182cf45ce5af05a9ef92a1,16/11/1950,2020-09-10_14h41.13.072,proactive3.1,2020.1.2,Win32,60,5f599a131af4471f3d752b7b,5f5a2c5a55bc9f08b3a47cac,5,,,,,,microphone,,,,,,,,,,,5,0,0,49,49,47,1,,,,,,,,,,,,,,,,,,,,,,,,,,,,,,,,,,,,,,,,,,,,,,,,,,,,,,,,,,,,,,,,,,,,,,,,,,,,,,,,,,,,,,,,,,,,,,,,,,,,,,,
,,?,0.0044,0,,,,,,stimuli/images/PICTURE_311.png,BEAUTY,5f182cf45ce5af05a9ef92a1,16/11/1950,2020-09-10_14h41.13.072,proactive3.1,2020.1.2,Win32,60,5f599a131af4471f3d752b7b,5f5a2c5a55bc9f08b3a47cac,5,,,,,,razor,,,,,,,,,,,2,0,0,50,50,13,1,,,,,,,,,,,,,,,,,,,,,,,,,,,,,,,,,,,,,,,,,,,,,,,,,,,,,,,,,,,,,,,,,,,,,,,,,,,,,,,,,,,,,,,,,,,,,,,,,,,,,,,
,,?,0.002635,0,,,,,,stimuli/images/PICTURE_449.png,THING,5f182cf45ce5af05a9ef92a1,16/11/1950,2020-09-10_14h41.13.072,proactive3.1,2020.1.2,Win32,60,5f599a131af4471f3d752b7b,5f5a2c5a55bc9f08b3a47cac,5,,,,,,bench,,,,,,,,,,,6,0,0,51,51,59,1,,,,,,,,,,,,,,,,,,,,,,,,,,,,,,,,,,,,,,,,,,,,,,,,,,,,,,,,,,,,,,,,,,,,,,,,,,,,,,,,,,,,,,,,,,,,,,,,,,,,,,,
,,?,0.00454,0,,,,,,stimuli/images/PICTURE_233.png,WOMEN,5f182cf45ce5af05a9ef92a1,16/11/1950,2020-09-10_14h41.13.072,proactive3.1,2020.1.2,Win32,60,5f599a131af4471f3d752b7b,5f5a2c5a55bc9f08b3a47cac,5,,,,,,salt,,,,,,,,,,,4,0,0,52,52,38,1,,,,,,,,,,,,,,,,,,,,,,,,,,,,,,,,,,,,,,,,,,,,,,,,,,,,,,,,,,,,,,,,,,,,,,,,,,,,,,,,,,,,,,,,,,,,,,,,,,,,,,,
,,?,8.94663,0,,,,,,stimuli/images/PICTURE_380.png,DEATH,5f182cf45ce5af05a9ef92a1,16/11/1950,2020-09-10_14h41.13.072,proactive3.1,2020.1.2,Win32,60,5f599a131af4471f3d752b7b,5f5a2c5a55bc9f08b3a47cac,5,,,,,,gorilla,,,,,,,,,,,5,0,0,53,53,49,1,,,,,,,,,,,,,,,,,,,,,,,,,,,,,,,,,,,,,,,,,,,,,,,,,,,,,,,,,,,,,,,,,,,,,,,,,,,,,,,,,,,,,,,,,,,,,,,,,,,,,,,
,,?,4.094835,0,,,,,,stimuli/images/PICTURE_123.png,ADVICE,5f182cf45ce5af05a9ef92a1,16/11/1950,2020-09-10_14h41.13.072,proactive3.1,2020.1.2,Win32,60,5f599a131af4471f3d752b7b,5f5a2c5a55bc9f08b3a47cac,5,,,,,,dart,,,,,,,,,,,5,0,0,54,54,40,1,,,,,,,,,,,,,,,,,,,,,,,,,,,,,,,,,,,,,,,,,,,,,,,,,,,,,,,,,,,,,,,,,,,,,,,,,,,,,,,,,,,,,,,,,,,,,,,,,,,,,,,
,,?,0.00461,0,,,,,,stimuli/images/PICTURE_348.png,SPEECH,5f182cf45ce5af05a9ef92a1,16/11/1950,2020-09-10_14h41.13.072,proactive3.1,2020.1.2,Win32,60,5f599a131af4471f3d752b7b,5f5a2c5a55bc9f08b3a47cac,5,,,,,,pepper,,,,,,,,,,,3,0,0,55,55,20,1,,,,,,,,,,,,,,,,,,,,,,,,,,,,,,,,,,,,,,,,,,,,,,,,,,,,,,,,,,,,,,,,,,,,,,,,,,,,,,,,,,,,,,,,,,,,,,,,,,,,,,,
,,?,0.004705,0,,,,,,stimuli/images/PICTURE_311.png,FRIEND,5f182cf45ce5af05a9ef92a1,16/11/1950,2020-09-10_14h41.13.072,proactive3.1,2020.1.2,Win32,60,5f599a131af4471f3d752b7b,5f5a2c5a55bc9f08b3a47cac,5,,,,,,razor,,,,,,,,,,,4,0,0,56,56,34,1,,,,,,,,,,,,,,,,,,,,,,,,,,,,,,,,,,,,,,,,,,,,,,,,,,,,,,,,,,,,,,,,,,,,,,,,,,,,,,,,,,,,,,,,,,,,,,,,,,,,,,,
,,?,0.005505,0,,,,,,stimuli/images/PICTURE_147.png,MOMENT,5f182cf45ce5af05a9ef92a1,16/11/1950,2020-09-10_14h41.13.072,proactive3.1,2020.1.2,Win32,60,5f599a131af4471f3d752b7b,5f5a2c5a55bc9f08b3a47cac,5,,,,,,hanger,,,,,,,,,,,6,0,0,57,57,51,1,,,,,,,,,,,,,,,,,,,,,,,,,,,,,,,,,,,,,,,,,,,,,,,,,,,,,,,,,,,,,,,,,,,,,,,,,,,,,,,,,,,,,,,,,,,,,,,,,,,,,,,
,,?,0.00206,0,,,,,,stimuli/images/PICTURE_314.png,SAKE,5f182cf45ce5af05a9ef92a1,16/11/1950,2020-09-10_14h41.13.072,proactive3.1,2020.1.2,Win32,60,5f599a131af4471f3d752b7b,5f5a2c5a55bc9f08b3a47cac,5,,,,,,perfume,,,,,,,,,,,1,0,0,58,58,7,1,,,,,,,,,,,,,,,,,,,,,,,,,,,,,,,,,,,,,,,,,,,,,,,,,,,,,,,,,,,,,,,,,,,,,,,,,,,,,,,,,,,,,,,,,,,,,,,,,,,,,,,
,,?,0.001905,0,,,,,,stimuli/images/PICTURE_453.png,DUDE,5f182cf45ce5af05a9ef92a1,16/11/1950,2020-09-10_14h41.13.072,proactive3.1,2020.1.2,Win32,60,5f599a131af4471f3d752b7b,5f5a2c5a55bc9f08b3a47cac,5,,,,,,scissors,,,,,,,,,,,3,0,0,59,59,27,1,,,,,,,,,,,,,,,,,,,,,,,,,,,,,,,,,,,,,,,,,,,,,,,,,,,,,,,,,,,,,,,,,,,,,,,,,,,,,,,,,,,,,,,,,,,,,,,,,,,,,,,
,,,,,,,,,,,,5f182cf45ce5af05a9ef92a1,16/11/1950,2020-09-10_14h41.13.072,proactive3.1,2020.1.2,Win32,60,5f599a131af4471f3d752b7b,5f5a2c5a55bc9f08b3a47cac,5,,,,,,,,,,,,,,,,,,,,,,,,0,1,1,0,1,stimuli/learn-block1.csv,,,,,,,,,,,,,,,,,,,,,,,,,,,,,,,,,,,,,,,,,,,,,,,,,,,,,,,,,,,,,,,,,,,,,,,,,,,,,,,,,,,,,,,,,,,,,,,,,
,,,,,,,,,,stimuli/images/PICTURE_509.png,BATH,5f182cf45ce5af05a9ef92a1,16/11/1950,2020-09-10_14h41.13.072,proactive3.1,2020.1.2,Win32,60,5f599a131af4471f3d752b7b,5f5a2c5a55bc9f08b3a47cac,5,,,,,,telephone,,,,,,0,0,0,15,1,2,2,,,,,,,,,,,,,,,,,,,,,,,,,,,,,,,,,,,,,,,,,,,,,,,,,,,,,,,,,,,,,,,,,,,,,,,,,,,,,,,,,,,,,,,,,,,,,,,,,,,,,,,,,,,,
,,,,,,,,,,stimuli/images/PICTURE_453.png,FAMILY,5f182cf45ce5af05a9ef92a1,16/11/1950,2020-09-10_14h41.13.072,proactive3.1,2020.1.2,Win32,60,5f599a131af4471f3d752b7b,5f5a2c5a55bc9f08b3a47cac,5,,,,,,scissors,,,,,,0,1,1,48,1,5,2,,,,,,,,,,,,,,,,,,,,,,,,,,,,,,,,,,,,,,,,,,,,,,,,,,,,,,,,,,,,,,,,,,,,,,,,,,,,,,,,,,,,,,,,,,,,,,,,,,,,,,,,,,,,
,,,,,,,,,,stimuli/images/PICTURE_487.png,POLICY,5f182cf45ce5af05a9ef92a1,16/11/1950,2020-09-10_14h41.13.072,proactive3.1,2020.1.2,Win32,60,5f599a131af4471f3d752b7b,5f5a2c5a55bc9f08b3a47cac,5,,,,,,basket,,,,,,0,2,2,34,1,4,2,,,,,,,,,,,,,,,,,,,,,,,,,,,,,,,,,,,,,,,,,,,,,,,,,,,,,,,,,,,,,,,,,,,,,,,,,,,,,,,,,,,,,,,,,,,,,,,,,,,,,,,,,,,,
,,,,,,,,,,stimuli/images/PICTURE_654.png,YEAR,5f182cf45ce5af05a9ef92a1,16/11/1950,2020-09-10_14h41.13.072,proactive3.1,2020.1.2,Win32,60,5f599a131af4471f3d752b7b,5f5a2c5a55bc9f08b3a47cac,5,,,,,,pencil,,,,,,0,3,3,41,1,5,2,,,,,,,,,,,,,,,,,,,,,,,,,,,,,,,,,,,,,,,,,,,,,,,,,,,,,,,,,,,,,,,,,,,,,,,,,,,,,,,,,,,,,,,,,,,,,,,,,,,,,,,,,,,,
,,,,,,,,,,stimuli/images/PICTURE_692.png,DUDE,5f182cf45ce5af05a9ef92a1,16/11/1950,2020-09-10_14h41.13.072,proactive3.1,2020.1.2,Win32,60,5f599a131af4471f3d752b7b,5f5a2c5a55bc9f08b3a47cac,5,,,,,,cherry,,,,,,0,4,4,47,1,5,2,,,,,,,,,,,,,,,,,,,,,,,,,,,,,,,,,,,,,,,,,,,,,,,,,,,,,,,,,,,,,,,,,,,,,,,,,,,,,,,,,,,,,,,,,,,,,,,,,,,,,,,,,,,,
,,,,,,,,,,stimuli/images/PICTURE_33.png,COPS,5f182cf45ce5af05a9ef92a1,16/11/1950,2020-09-10_14h41.13.072,proactive3.1,2020.1.2,Win32,60,5f599a131af4471f3d752b7b,5f5a2c5a55bc9f08b3a47cac,5,,,,,,frame,,,,,,0,5,5,29,1,3,2,,,,,,,,,,,,,,,,,,,,,,,,,,,,,,,,,,,,,,,,,,,,,,,,,,,,,,,,,,,,,,,,,,,,,,,,,,,,,,,,,,,,,,,,,,,,,,,,,,,,,,,,,,,,
,,,,,,,,,,stimuli/images/PICTURE_667.png,GLASS,5f182cf45ce5af05a9ef92a1,16/11/1950,2020-09-10_14h41.13.072,proactive3.1,2020.1.2,Win32,60,5f599a131af4471f3d752b7b,5f5a2c5a55bc9f08b3a47cac,5,,,,,,daisy,,,,,,0,6,6,27,1,3,2,,,,,,,,,,,,,,,,,,,,,,,,,,,,,,,,,,,,,,,,,,,,,,,,,,,,,,,,,,,,,,,,,,,,,,,,,,,,,,,,,,,,,,,,,,,,,,,,,,,,,,,,,,,,
,,,,,,,,,,stimuli/images/PICTURE_470.png,MOMENT,5f182cf45ce5af05a9ef92a1,16/11/1950,2020-09-10_14h41.13.072,proactive3.1,2020.1.2,Win32,60,5f599a131af4471f3d752b7b,5f5a2c5a55bc9f08b3a47cac,5,,,,,,motorbike,,,,,,0,7,7,40,1,5,2,,,,,,,,,,,,,,,,,,,,,,,,,,,,,,,,,,,,,,,,,,,,,,,,,,,,,,,,,,,,,,,,,,,,,,,,,,,,,,,,,,,,,,,,,,,,,,,,,,,,,,,,,,,,
,,,,,,,,,,stimuli/images/PICTURE_564.png,PLENTY,5f182cf45ce5af05a9ef92a1,16/11/1950,2020-09-10_14h41.13.072,proactive3.1,2020.1.2,Win32,60,5f599a131af4471f3d752b7b,5f5a2c5a55bc9f08b3a47cac,5,,,,,,spoon,,,,,,0,8,8,11,1,2,2,,,,,,,,,,,,,,,,,,,,,,,,,,,,,,,,,,,,,,,,,,,,,,,,,,,,,,,,,,,,,,,,,,,,,,,,,,,,,,,,,,,,,,,,,,,,,,,,,,,,,,,,,,,,
,,,,,,,,,,stimuli/images/PICTURE_708.png,VALLEY,5f182cf45ce5af05a9ef92a1,16/11/1950,2020-09-10_14h41.13.072,proactive3.1,2020.1.2,Win32,60,5f599a131af4471f3d752b7b,5f5a2c5a55bc9f08b3a47cac,5,,,,,,monkey,,,,,,0,9,9,45,1,5,2,,,,,,,,,,,,,,,,,,,,,,,,,,,,,,,,,,,,,,,,,,,,,,,,,,,,,,,,,,,,,,,,,,,,,,,,,,,,,,,,,,,,,,,,,,,,,,,,,,,,,,,,,,,,
,,,,,,,,,,stimuli/images/PICTURE_297.png,BODY,5f182cf45ce5af05a9ef92a1,16/11/1950,2020-09-10_14h41.13.072,proactive3.1,2020.1.2,Win32,60,5f599a131af4471f3d752b7b,5f5a2c5a55bc9f08b3a47cac,5,,,,,,aeroplane,,,,,,0,10,10,51,1,6,2,,,,,,,,,,,,,,,,,,,,,,,,,,,,,,,,,,,,,,,,,,,,,,,,,,,,,,,,,,,,,,,,,,,,,,,,,,,,,,,,,,,,,,,,,,,,,,,,,,,,,,,,,,,,
,,,,,,,,,,stimuli/images/PICTURE_470.png,BEAUTY,5f182cf45ce5af05a9ef92a1,16/11/1950,2020-09-10_14h41.13.072,proactive3.1,2020.1.2,Win32,60,5f599a131af4471f3d752b7b,5f5a2c5a55bc9f08b3a47cac,5,,,,,,motorbike,,,,,,0,11,11,26,1,3,2,,,,,,,,,,,,,,,,,,,,,,,,,,,,,,,,,,,,,,,,,,,,,,,,,,,,,,,,,,,,,,,,,,,,,,,,,,,,,,,,,,,,,,,,,,,,,,,,,,,,,,,,,,,,
,,,,,,,,,,stimuli/images/PICTURE_314.png,SPEECH,5f182cf45ce5af05a9ef92a1,16/11/1950,2020-09-10_14h41.13.072,proactive3.1,2020.1.2,Win32,60,5f599a131af4471f3d752b7b,5f5a2c5a55bc9f08b3a47cac,5,,,,,,perfume,,,,,,0,12,12,35,1,4,2,,,,,,,,,,,,,,,,,,,,,,,,,,,,,,,,,,,,,,,,,,,,,,,,,,,,,,,,,,,,,,,,,,,,,,,,,,,,,,,,,,,,,,,,,,,,,,,,,,,,,,,,,,,,
,,,,,,,,,,stimuli/images/PICTURE_655.png,SALE,5f182cf45ce5af05a9ef92a1,16/11/1950,2020-09-10_14h41.13.072,proactive3.1,2020.1.2,Win32,60,5f599a131af4471f3d752b7b,5f5a2c5a55bc9f08b3a47cac,5,,,,,,megaphone,,,,,,0,13,13,57,1,6,2,,,,,,,,,,,,,,,,,,,,,,,,,,,,,,,,,,,,,,,,,,,,,,,,,,,,,,,,,,,,,,,,,,,,,,,,,,,,,,,,,,,,,,,,,,,,,,,,,,,,,,,,,,,,
,,,,,,,,,,stimuli/images/PICTURE_93.png,GIRL,5f182cf45ce5af05a9ef92a1,16/11/1950,2020-09-10_14h41.13.072,proactive3.1,2020.1.2,Win32,60,5f599a131af4471f3d752b7b,5f5a2c5a55bc9f08b3a47cac,5,,,,,,skateboard,,,,,,0,14,14,31,1,4,2,,,,,,,,,,,,,,,,,,,,,,,,,,,,,,,,,,,,,,,,,,,,,,,,,,,,,,,,,,,,,,,,,,,,,,,,,,,,,,,,,,,,,,,,,,,,,,,,,,,,,,,,,,,,
,,,,,,,,,,stimuli/images/PICTURE_491.png,SERIES,5f182cf45ce5af05a9ef92a1,16/11/1950,2020-09-10_14h41.13.072,proactive3.1,2020.1.2,Win32,60,5f599a131af4471f3d752b7b,5f5a2c5a55bc9f08b3a47cac,5,,,,,,rug,,,,,,0,15,15,39,1,4,2,,,,,,,,,,,,,,,,,,,,,,,,,,,,,,,,,,,,,,,,,,,,,,,,,,,,,,,,,,,,,,,,,,,,,,,,,,,,,,,,,,,,,,,,,,,,,,,,,,,,,,,,,,,,
,,,,,,,,,,stimuli/images/PICTURE_405.png,JUNGLE,5f182cf45ce5af05a9ef92a1,16/11/1950,2020-09-10_14h41.13.072,proactive3.1,2020.1.2,Win32,60,5f599a131af4471f3d752b7b,5f5a2c5a55bc9f08b3a47cac,5,,,,,,anchor,,,,,,0,16,16,13,1,2,2,,,,,,,,,,,,,,,,,,,,,,,,,,,,,,,,,,,,,,,,,,,,,,,,,,,,,,,,,,,,,,,,,,,,,,,,,,,,,,,,,,,,,,,,,,,,,,,,,,,,,,,,,,,,
,,,,,,,,,,stimuli/images/PICTURE_296.png,CLOCK,5f182cf45ce5af05a9ef92a1,16/11/1950,2020-09-10_14h41.13.072,proactive3.1,2020.1.2,Win32,60,5f599a131af4471f3d752b7b,5f5a2c5a55bc9f08b3a47cac,5,,,,,,bolt,,,,,,0,17,17,18,1,2,2,,,,,,,,,,,,,,,,,,,,,,,,,,,,,,,,,,,,,,,,,,,,,,,,,,,,,,,,,,,,,,,,,,,,,,,,,,,,,,,,,,,,,,,,,,,,,,,,,,,,,,,,,,,,
,,,,,,,,,,stimuli/images/PICTURE_57.png,CANDY,5f182cf45ce5af05a9ef92a1,16/11/1950,2020-09-10_14h41.13.072,proactive3.1,2020.1.2,Win32,60,5f599a131af4471f3d752b7b,5f5a2c5a55bc9f08b3a47cac,5,,,,,,stamp,,,,,,0,18,18,52,1,6,2,,,,,,,,,,,,,,,,,,,,,,,,,,,,,,,,,,,,,,,,,,,,,,,,,,,,,,,,,,,,,,,,,,,,,,,,,,,,,,,,,,,,,,,,,,,,,,,,,,,,,,,,,,,,
,,,,,,,,,,stimuli/images/PICTURE_123.png,SALE,5f182cf45ce5af05a9ef92a1,16/11/1950,2020-09-10_14h41.13.072,proactive3.1,2020.1.2,Win32,60,5f599a131af4471f3d752b7b,5f5a2c5a55bc9f08b3a47cac,5,,,,,,dart,,,,,,0,19,19,8,1,1,2,,,,,,,,,,,,,,,,,,,,,,,,,,,,,,,,,,,,,,,,,,,,,,,,,,,,,,,,,,,,,,,,,,,,,,,,,,,,,,,,,,,,,,,,,,,,,,,,,,,,,,,,,,,,
,,,,,,,,,,stimuli/images/PICTURE_57.png,NATION,5f182cf45ce5af05a9ef92a1,16/11/1950,2020-09-10_14h41.13.072,proactive3.1,2020.1.2,Win32,60,5f599a131af4471f3d752b7b,5f5a2c5a55bc9f08b3a47cac,5,,,,,,stamp,,,,,,0,20,20,21,1,3,2,,,,,,,,,,,,,,,,,,,,,,,,,,,,,,,,,,,,,,,,,,,,,,,,,,,,,,,,,,,,,,,,,,,,,,,,,,,,,,,,,,,,,,,,,,,,,,,,,,,,,,,,,,,,
,,,,,,,,,,stimuli/images/PICTURE_147.png,LEADER,5f182cf45ce5af05a9ef92a1,16/11/1950,2020-09-10_14h41.13.072,proactive3.1,2020.1.2,Win32,60,5f599a131af4471f3d752b7b,5f5a2c5a55bc9f08b3a47cac,5,,,,,,hanger,,,,,,0,21,21,33,1,4,2,,,,,,,,,,,,,,,,,,,,,,,,,,,,,,,,,,,,,,,,,,,,,,,,,,,,,,,,,,,,,,,,,,,,,,,,,,,,,,,,,,,,,,,,,,,,,,,,,,,,,,,,,,,,
,,,,,,,,,,stimuli/images/PICTURE_356.png,CANDY,5f182cf45ce5af05a9ef92a1,16/11/1950,2020-09-10_14h41.13.072,proactive3.1,2020.1.2,Win32,60,5f599a131af4471f3d752b7b,5f5a2c5a55bc9f08b3a47cac,5,,,,,,pawn,,,,,,0,22,22,46,1,5,2,,,,,,,,,,,,,,,,,,,,,,,,,,,,,,,,,,,,,,,,,,,,,,,,,,,,,,,,,,,,,,,,,,,,,,,,,,,,,,,,,,,,,,,,,,,,,,,,,,,,,,,,,,,,
,,,,,,,,,,stimuli/images/PICTURE_215.png,FOOD,5f182cf45ce5af05a9ef92a1,16/11/1950,2020-09-10_14h41.13.072,proactive3.1,2020.1.2,Win32,60,5f599a131af4471f3d752b7b,5f5a2c5a55bc9f08b3a47cac,5,,,,,,boot,,,,,,0,23,23,5,1,1,2,,,,,,,,,,,,,,,,,,,,,,,,,,,,,,,,,,,,,,,,,,,,,,,,,,,,,,,,,,,,,,,,,,,,,,,,,,,,,,,,,,,,,,,,,,,,,,,,,,,,,,,,,,,,
,,,,,,,,,,stimuli/images/PICTURE_677.png,PHOTO,5f182cf45ce5af05a9ef92a1,16/11/1950,2020-09-10_14h41.13.072,proactive3.1,2020.1.2,Win32,60,5f599a131af4471f3d752b7b,5f5a2c5a55bc9f08b3a47cac,5,,,,,,map,,,,,,0,24,24,14,1,2,2,,,,,,,,,,,,,,,,,,,,,,,,,,,,,,,,,,,,,,,,,,,,,,,,,,,,,,,,,,,,,,,,,,,,,,,,,,,,,,,,,,,,,,,,,,,,,,,,,,,,,,,,,,,,
,,,,,,,,,,stimuli/images/PICTURE_509.png,SHOTS,5f182cf45ce5af05a9ef92a1,16/11/1950,2020-09-10_14h41.13.072,proactive3.1,2020.1.2,Win32,60,5f599a131af4471f3d752b7b,5f5a2c5a55bc9f08b3a47cac,5,,,,,,telephone,,,,,,0,25,25,7,1,1,2,,,,,,,,,,,,,,,,,,,,,,,,,,,,,,,,,,,,,,,,,,,,,,,,,,,,,,,,,,,,,,,,,,,,,,,,,,,,,,,,,,,,,,,,,,,,,,,,,,,,,,,,,,,,
,,,,,,,,,,stimuli/images/PICTURE_2.png,JUNGLE,5f182cf45ce5af05a9ef92a1,16/11/1950,2020-09-10_14h41.13.072,proactive3.1,2020.1.2,Win32,60,5f599a131af4471f3d752b7b,5f5a2c5a55bc9f08b3a47cac,5,,,,,,tyre,,,,,,0,26,26,1,1,1,2,,,,,,,,,,,,,,,,,,,,,,,,,,,,,,,,,,,,,,,,,,,,,,,,,,,,,,,,,,,,,,,,,,,,,,,,,,,,,,,,,,,,,,,,,,,,,,,,,,,,,,,,,,,,
,,,,,,,,,,stimuli/images/PICTURE_95.png,NIGHT,5f182cf45ce5af05a9ef92a1,16/11/1950,2020-09-10_14h41.13.072,proactive3.1,2020.1.2,Win32,60,5f599a131af4471f3d752b7b,5f5a2c5a55bc9f08b3a47cac,5,,,,,,suitcase,,,,,,0,27,27,37,1,4,2,,,,,,,,,,,,,,,,,,,,,,,,,,,,,,,,,,,,,,,,,,,,,,,,,,,,,,,,,,,,,,,,,,,,,,,,,,,,,,,,,,,,,,,,,,,,,,,,,,,,,,,,,,,,
,,,,,,,,,,stimuli/images/PICTURE_348.png,TOILET,5f182cf45ce5af05a9ef92a1,16/11/1950,2020-09-10_14h41.13.072,proactive3.1,2020.1.2,Win32,60,5f599a131af4471f3d752b7b,5f5a2c5a55bc9f08b3a47cac,5,,,,,,pepper,,,,,,0,28,28,4,1,1,2,,,,,,,,,,,,,,,,,,,,,,,,,,,,,,,,,,,,,,,,,,,,,,,,,,,,,,,,,,,,,,,,,,,,,,,,,,,,,,,,,,,,,,,,,,,,,,,,,,,,,,,,,,,,
,,,,,,,,,,stimuli/images/PICTURE_750.png,POLICY,5f182cf45ce5af05a9ef92a1,16/11/1950,2020-09-10_14h41.13.072,proactive3.1,2020.1.2,Win32,60,5f599a131af4471f3d752b7b,5f5a2c5a55bc9f08b3a47cac,5,,,,,,kettle,,,,,,0,29,29,44,1,5,2,,,,,,,,,,,,,,,,,,,,,,,,,,,,,,,,,,,,,,,,,,,,,,,,,,,,,,,,,,,,,,,,,,,,,,,,,,,,,,,,,,,,,,,,,,,,,,,,,,,,,,,,,,,,
,,,,,,,,,,stimuli/images/PICTURE_487.png,ROOF,5f182cf45ce5af05a9ef92a1,16/11/1950,2020-09-10_14h41.13.072,proactive3.1,2020.1.2,Win32,60,5f599a131af4471f3d752b7b,5f5a2c5a55bc9f08b3a47cac,5,,,,,,basket,,,,,,0,30,30,50,1,6,2,,,,,,,,,,,,,,,,,,,,,,,,,,,,,,,,,,,,,,,,,,,,,,,,,,,,,,,,,,,,,,,,,,,,,,,,,,,,,,,,,,,,,,,,,,,,,,,,,,,,,,,,,,,,
,,,,,,,,,,stimuli/images/PICTURE_311.png,FLESH,5f182cf45ce5af05a9ef92a1,16/11/1950,2020-09-10_14h41.13.072,proactive3.1,2020.1.2,Win32,60,5f599a131af4471f3d752b7b,5f5a2c5a55bc9f08b3a47cac,5,,,,,,razor,,,,,,0,31,31,3,1,1,2,,,,,,,,,,,,,,,,,,,,,,,,,,,,,,,,,,,,,,,,,,,,,,,,,,,,,,,,,,,,,,,,,,,,,,,,,,,,,,,,,,,,,,,,,,,,,,,,,,,,,,,,,,,,
,,,,,,,,,,stimuli/images/PICTURE_405.png,JUNGLE,5f182cf45ce5af05a9ef92a1,16/11/1950,2020-09-10_14h41.13.072,proactive3.1,2020.1.2,Win32,60,5f599a131af4471f3d752b7b,5f5a2c5a55bc9f08b3a47cac,5,,,,,,anchor,,,,,,0,32,32,58,1,6,2,,,,,,,,,,,,,,,,,,,,,,,,,,,,,,,,,,,,,,,,,,,,,,,,,,,,,,,,,,,,,,,,,,,,,,,,,,,,,,,,,,,,,,,,,,,,,,,,,,,,,,,,,,,,
,,,,,,,,,,stimuli/images/PICTURE_509.png,MILLER,5f182cf45ce5af05a9ef92a1,16/11/1950,2020-09-10_14h41.13.072,proactive3.1,2020.1.2,Win32,60,5f599a131af4471f3d752b7b,5f5a2c5a55bc9f08b3a47cac,5,,,,,,telephone,,,,,,0,33,33,49,1,5,2,,,,,,,,,,,,,,,,,,,,,,,,,,,,,,,,,,,,,,,,,,,,,,,,,,,,,,,,,,,,,,,,,,,,,,,,,,,,,,,,,,,,,,,,,,,,,,,,,,,,,,,,,,,,
,,,,,,,,,,stimuli/images/PICTURE_504.png,HOUSE,5f182cf45ce5af05a9ef92a1,16/11/1950,2020-09-10_14h41.13.072,proactive3.1,2020.1.2,Win32,60,5f599a131af4471f3d752b7b,5f5a2c5a55bc9f08b3a47cac,5,,,,,,wheel,,,,,,0,34,34,36,1,4,2,,,,,,,,,,,,,,,,,,,,,,,,,,,,,,,,,,,,,,,,,,,,,,,,,,,,,,,,,,,,,,,,,,,,,,,,,,,,,,,,,,,,,,,,,,,,,,,,,,,,,,,,,,,,
,,,,,,,,,,stimuli/images/PICTURE_2.png,YARD,5f182cf45ce5af05a9ef92a1,16/11/1950,2020-09-10_14h41.13.072,proactive3.1,2020.1.2,Win32,60,5f599a131af4471f3d752b7b,5f5a2c5a55bc9f08b3a47cac,5,,,,,,tyre,,,,,,0,35,35,55,1,6,2,,,,,,,,,,,,,,,,,,,,,,,,,,,,,,,,,,,,,,,,,,,,,,,,,,,,,,,,,,,,,,,,,,,,,,,,,,,,,,,,,,,,,,,,,,,,,,,,,,,,,,,,,,,,
,,,,,,,,,,stimuli/images/PICTURE_452.png,COPS,5f182cf45ce5af05a9ef92a1,16/11/1950,2020-09-10_14h41.13.072,proactive3.1,2020.1.2,Win32,60,5f599a131af4471f3d752b7b,5f5a2c5a55bc9f08b3a47cac,5,,,,,,watch,,,,,,0,36,36,0,1,1,2,,,,,,,,,,,,,,,,,,,,,,,,,,,,,,,,,,,,,,,,,,,,,,,,,,,,,,,,,,,,,,,,,,,,,,,,,,,,,,,,,,,,,,,,,,,,,,,,,,,,,,,,,,,,
,,,,,,,,,,stimuli/images/PICTURE_18.png,RIVER,5f182cf45ce5af05a9ef92a1,16/11/1950,2020-09-10_14h41.13.072,proactive3.1,2020.1.2,Win32,60,5f599a131af4471f3d752b7b,5f5a2c5a55bc9f08b3a47cac,5,,,,,,planet,,,,,,0,37,37,22,1,3,2,,,,,,,,,,,,,,,,,,,,,,,,,,,,,,,,,,,,,,,,,,,,,,,,,,,,,,,,,,,,,,,,,,,,,,,,,,,,,,,,,,,,,,,,,,,,,,,,,,,,,,,,,,,,
,,,,,,,,,,stimuli/images/PICTURE_215.png,LEADER,5f182cf45ce5af05a9ef92a1,16/11/1950,2020-09-10_14h41.13.072,proactive3.1,2020.1.2,Win32,60,5f599a131af4471f3d752b7b,5f5a2c5a55bc9f08b3a47cac,5,,,,,,boot,,,,,,0,38,38,43,1,5,2,,,,,,,,,,,,,,,,,,,,,,,,,,,,,,,,,,,,,,,,,,,,,,,,,,,,,,,,,,,,,,,,,,,,,,,,,,,,,,,,,,,,,,,,,,,,,,,,,,,,,,,,,,,,
,,,,,,,,,,stimuli/images/PICTURE_255.png,PENNY,5f182cf45ce5af05a9ef92a1,16/11/1950,2020-09-10_14h41.13.072,proactive3.1,2020.1.2,Win32,60,5f599a131af4471f3d752b7b,5f5a2c5a55bc9f08b3a47cac,5,,,,,,shovel,,,,,,0,39,39,19,1,2,2,,,,,,,,,,,,,,,,,,,,,,,,,,,,,,,,,,,,,,,,,,,,,,,,,,,,,,,,,,,,,,,,,,,,,,,,,,,,,,,,,,,,,,,,,,,,,,,,,,,,,,,,,,,,
