consent_key.keys,consent_key.rt,recalled,recalled_rt,recall_acc,example_recall.thisRepN,example_recall.thisTrialN,example_recall.thisN,example_recall.thisIndex,example_recall.ran,file,word,participant,please enter your date of birth (dd/mm/yyyy),date,expName,psychopyVersion,OS,frameRate,STUDY_ID,SESSION_ID,list,prac_learn_study_loop.thisRepN,prac_learn_study_loop.thisTrialN,prac_learn_study_loop.thisN,prac_learn_study_loop.thisIndex,prac_learn_study_loop.ran,image,prac_learn_test_loop.thisRepN,prac_learn_test_loop.thisTrialN,prac_learn_test_loop.thisN,prac_learn_test_loop.thisIndex,prac_learn_test_loop.ran,learn_study_loop.thisRepN,learn_study_loop.thisTrialN,learn_study_loop.thisN,learn_study_loop.thisIndex,learn_study_loop.ran,list_no,block_no,learn_test_loop.thisRepN,learn_test_loop.thisTrialN,learn_test_loop.thisN,learn_test_loop.thisIndex,learn_test_loop.ran,learn_blocks.thisRepN,learn_blocks.thisTrialN,learn_blocks.thisN,learn_blocks.thisIndex,learn_blocks.ran,block_csv,key_resp_13.keys,key_resp_13.rt,learn_blocks_loop.thisRepN,learn_blocks_loop.thisTrialN,learn_blocks_loop.thisN,learn_blocks_loop.thisIndex,learn_blocks_loop.ran,final_learn_test.thisRepN,final_learn_test.thisTrialN,final_learn_test.thisN,final_learn_test.thisIndex,final_learn_test.ran,s_im1,s_im2,s_im3,s_im4,s_im5,s_im6,s_im7,s_im8,s_im1pos,s_im2pos,s_im3pos,s_im4pos,s_im5pos,s_im6pos,s_im7pos,s_im8pos,s_tarright,search_resp.keys,search_loop.thisRepN,search_loop.thisTrialN,search_loop.thisN,search_loop.thisIndex,search_loop.ran,search_resp.rt,prac_wm_search_loop.thisRepN,prac_wm_search_loop.thisTrialN,prac_wm_search_loop.thisN,prac_wm_search_loop.thisIndex,prac_wm_search_loop.ran,prac_wm_test_loop.thisRepN,prac_wm_test_loop.thisTrialN,prac_wm_test_loop.thisN,prac_wm_test_loop.thisIndex,prac_wm_test_loop.ran,wm_recalled1,wm_recall_rt1,wm_probed1,wm_recall_acc1,wm_recalled2,wm_recall_rt2,wm_probed2,wm_recall_acc2,wm_recalled3,wm_recall_rt3,wm_probed3,wm_recall_acc3,wm_recalled4,wm_recall_rt4,wm_probed4,wm_recall_acc4,prac_wm_trial_loop.thisRepN,prac_wm_trial_loop.thisTrialN,prac_wm_trial_loop.thisN,prac_wm_trial_loop.thisIndex,prac_wm_trial_loop.ran,word1,image1,file1,item_type1,word2,image2,file2,item_type2,word4,image4,file4,item_type4,word3,image3,file3,item_type3,wm_search_loop.thisRepN,wm_search_loop.thisTrialN,wm_search_loop.thisN,wm_search_loop.thisIndex,wm_search_loop.ran,wm_test_loop.thisRepN,wm_test_loop.thisTrialN,wm_test_loop.thisN,wm_test_loop.thisIndex,wm_test_loop.ran,wm_trial_loop.thisRepN,wm_trial_loop.thisTrialN,wm_trial_loop.thisN,wm_trial_loop.thisIndex,wm_trial_loop.ran
y,38.186,TOUGH,14.489,1,0,0,0,0,1,stimuli/images/PICTURE_747.png,TOUGH,5f20572705b3e931faf561d5,30/04/1949,2020-09-10_15h04.15.844,proactive3.1,2020.1.2,MacIntel,60,5f599a131af4471f3d752b7b,5f5a324d5356a7092324d544,2,,,,,,,,,,,,,,,,,,,,,,,,,,,,,,,,,,,,,,,,,,,,,,,,,,,,,,,,,,,,,,,,,,,,,,,,,,,,,,,,,,,,,,,,,,,,,,,,,,,,,,,,,,,,,,,,,,,,,,,,,,,,,,,
,,,,,,,,,,stimuli/images/PICTURE_378.png,LOSS,5f20572705b3e931faf561d5,30/04/1949,2020-09-10_15h04.15.844,proactive3.1,2020.1.2,MacIntel,60,5f599a131af4471f3d752b7b,5f5a324d5356a7092324d544,2,0,0,0,2,1,lobster,,,,,,,,,,,,,,,,,,,,,,,,,,,,,,,,,,,,,,,,,,,,,,,,,,,,,,,,,,,,,,,,,,,,,,,,,,,,,,,,,,,,,,,,,,,,,,,,,,,,,,,,,,,,,,,,,,,,,,,,,
,,,,,,,,,,stimuli/images/PICTURE_727.png,CELL,5f20572705b3e931faf561d5,30/04/1949,2020-09-10_15h04.15.844,proactive3.1,2020.1.2,MacIntel,60,5f599a131af4471f3d752b7b,5f5a324d5356a7092324d544,2,0,1,1,1,1,hose,,,,,,,,,,,,,,,,,,,,,,,,,,,,,,,,,,,,,,,,,,,,,,,,,,,,,,,,,,,,,,,,,,,,,,,,,,,,,,,,,,,,,,,,,,,,,,,,,,,,,,,,,,,,,,,,,,,,,,,,,
,,,,,,,,,,stimuli/images/PICTURE_658.png,DEVIL,5f20572705b3e931faf561d5,30/04/1949,2020-09-10_15h04.15.844,proactive3.1,2020.1.2,MacIntel,60,5f599a131af4471f3d752b7b,5f5a324d5356a7092324d544,2,0,2,2,3,1,crow,,,,,,,,,,,,,,,,,,,,,,,,,,,,,,,,,,,,,,,,,,,,,,,,,,,,,,,,,,,,,,,,,,,,,,,,,,,,,,,,,,,,,,,,,,,,,,,,,,,,,,,,,,,,,,,,,,,,,,,,,
,,,,,,,,,,stimuli/images/PICTURE_697.png,KILLER,5f20572705b3e931faf561d5,30/04/1949,2020-09-10_15h04.15.844,proactive3.1,2020.1.2,MacIntel,60,5f599a131af4471f3d752b7b,5f5a324d5356a7092324d544,2,0,3,3,4,1,peach,,,,,,,,,,,,,,,,,,,,,,,,,,,,,,,,,,,,,,,,,,,,,,,,,,,,,,,,,,,,,,,,,,,,,,,,,,,,,,,,,,,,,,,,,,,,,,,,,,,,,,,,,,,,,,,,,,,,,,,,,
,,KILLER,4.381,1,,,,,,stimuli/images/PICTURE_697.png,KILLER,5f20572705b3e931faf561d5,30/04/1949,2020-09-10_15h04.15.844,proactive3.1,2020.1.2,MacIntel,60,5f599a131af4471f3d752b7b,5f5a324d5356a7092324d544,2,,,,,,peach,0,0,0,4,1,,,,,,,,,,,,,,,,,,,,,,,,,,,,,,,,,,,,,,,,,,,,,,,,,,,,,,,,,,,,,,,,,,,,,,,,,,,,,,,,,,,,,,,,,,,,,,,,,,,,,,,,,,,,,,,,,,,,
,,LOSS,3.017,1,,,,,,stimuli/images/PICTURE_378.png,LOSS,5f20572705b3e931faf561d5,30/04/1949,2020-09-10_15h04.15.844,proactive3.1,2020.1.2,MacIntel,60,5f599a131af4471f3d752b7b,5f5a324d5356a7092324d544,2,,,,,,lobster,0,1,1,2,1,,,,,,,,,,,,,,,,,,,,,,,,,,,,,,,,,,,,,,,,,,,,,,,,,,,,,,,,,,,,,,,,,,,,,,,,,,,,,,,,,,,,,,,,,,,,,,,,,,,,,,,,,,,,,,,,,,,,
,,?,11.407,0,,,,,,stimuli/images/PICTURE_727.png,CELL,5f20572705b3e931faf561d5,30/04/1949,2020-09-10_15h04.15.844,proactive3.1,2020.1.2,MacIntel,60,5f599a131af4471f3d752b7b,5f5a324d5356a7092324d544,2,,,,,,hose,0,2,2,1,1,,,,,,,,,,,,,,,,,,,,,,,,,,,,,,,,,,,,,,,,,,,,,,,,,,,,,,,,,,,,,,,,,,,,,,,,,,,,,,,,,,,,,,,,,,,,,,,,,,,,,,,,,,,,,,,,,,,,
,,GENIUS,6.62,1,,,,,,stimuli/images/PICTURE_269.png,GENIUS,5f20572705b3e931faf561d5,30/04/1949,2020-09-10_15h04.15.844,proactive3.1,2020.1.2,MacIntel,60,5f599a131af4471f3d752b7b,5f5a324d5356a7092324d544,2,,,,,,chameleon,0,3,3,0,1,,,,,,,,,,,,,,,,,,,,,,,,,,,,,,,,,,,,,,,,,,,,,,,,,,,,,,,,,,,,,,,,,,,,,,,,,,,,,,,,,,,,,,,,,,,,,,,,,,,,,,,,,,,,,,,,,,,,
,,DEVIL,3.703,1,,,,,,stimuli/images/PICTURE_658.png,DEVIL,5f20572705b3e931faf561d5,30/04/1949,2020-09-10_15h04.15.844,proactive3.1,2020.1.2,MacIntel,60,5f599a131af4471f3d752b7b,5f5a324d5356a7092324d544,2,,,,,,crow,0,4,4,3,1,,,,,,,,,,,,,,,,,,,,,,,,,,,,,,,,,,,,,,,,,,,,,,,,,,,,,,,,,,,,,,,,,,,,,,,,,,,,,,,,,,,,,,,,,,,,,,,,,,,,,,,,,,,,,,,,,,,,
,,,,,,,,,,stimuli/images/PICTURE_215.png,FOOD,5f20572705b3e931faf561d5,30/04/1949,2020-09-10_15h04.15.844,proactive3.1,2020.1.2,MacIntel,60,5f599a131af4471f3d752b7b,5f5a324d5356a7092324d544,2,,,,,,boot,,,,,,0,0,0,5,1,1,2,,,,,,,,,,,,,,,,,,,,,,,,,,,,,,,,,,,,,,,,,,,,,,,,,,,,,,,,,,,,,,,,,,,,,,,,,,,,,,,,,,,,,,,,,,,,,,,,,,,,,,,,,,,,,
,,,,,,,,,,stimuli/images/PICTURE_141.png,CLIENT,5f20572705b3e931faf561d5,30/04/1949,2020-09-10_15h04.15.844,proactive3.1,2020.1.2,MacIntel,60,5f599a131af4471f3d752b7b,5f5a324d5356a7092324d544,2,,,,,,sunflower,,,,,,0,1,1,30,1,4,2,,,,,,,,,,,,,,,,,,,,,,,,,,,,,,,,,,,,,,,,,,,,,,,,,,,,,,,,,,,,,,,,,,,,,,,,,,,,,,,,,,,,,,,,,,,,,,,,,,,,,,,,,,,,,
,,,,,,,,,,stimuli/images/PICTURE_314.png,SPEECH,5f20572705b3e931faf561d5,30/04/1949,2020-09-10_15h04.15.844,proactive3.1,2020.1.2,MacIntel,60,5f599a131af4471f3d752b7b,5f5a324d5356a7092324d544,2,,,,,,perfume,,,,,,0,2,2,35,1,4,2,,,,,,,,,,,,,,,,,,,,,,,,,,,,,,,,,,,,,,,,,,,,,,,,,,,,,,,,,,,,,,,,,,,,,,,,,,,,,,,,,,,,,,,,,,,,,,,,,,,,,,,,,,,,,
,,,,,,,,,,stimuli/images/PICTURE_692.png,DUDE,5f20572705b3e931faf561d5,30/04/1949,2020-09-10_15h04.15.844,proactive3.1,2020.1.2,MacIntel,60,5f599a131af4471f3d752b7b,5f5a324d5356a7092324d544,2,,,,,,cherry,,,,,,0,3,3,47,1,5,2,,,,,,,,,,,,,,,,,,,,,,,,,,,,,,,,,,,,,,,,,,,,,,,,,,,,,,,,,,,,,,,,,,,,,,,,,,,,,,,,,,,,,,,,,,,,,,,,,,,,,,,,,,,,,
,,,,,,,,,,stimuli/images/PICTURE_2.png,JUNGLE,5f20572705b3e931faf561d5,30/04/1949,2020-09-10_15h04.15.844,proactive3.1,2020.1.2,MacIntel,60,5f599a131af4471f3d752b7b,5f5a324d5356a7092324d544,2,,,,,,tyre,,,,,,0,4,4,1,1,1,2,,,,,,,,,,,,,,,,,,,,,,,,,,,,,,,,,,,,,,,,,,,,,,,,,,,,,,,,,,,,,,,,,,,,,,,,,,,,,,,,,,,,,,,,,,,,,,,,,,,,,,,,,,,,,
,,,,,,,,,,stimuli/images/PICTURE_57.png,CANDY,5f20572705b3e931faf561d5,30/04/1949,2020-09-10_15h04.15.844,proactive3.1,2020.1.2,MacIntel,60,5f599a131af4471f3d752b7b,5f5a324d5356a7092324d544,2,,,,,,stamp,,,,,,0,5,5,52,1,6,2,,,,,,,,,,,,,,,,,,,,,,,,,,,,,,,,,,,,,,,,,,,,,,,,,,,,,,,,,,,,,,,,,,,,,,,,,,,,,,,,,,,,,,,,,,,,,,,,,,,,,,,,,,,,,
,,,,,,,,,,stimuli/images/PICTURE_68.png,KIND,5f20572705b3e931faf561d5,30/04/1949,2020-09-10_15h04.15.844,proactive3.1,2020.1.2,MacIntel,60,5f599a131af4471f3d752b7b,5f5a324d5356a7092324d544,2,,,,,,candle,,,,,,0,6,6,23,1,3,2,,,,,,,,,,,,,,,,,,,,,,,,,,,,,,,,,,,,,,,,,,,,,,,,,,,,,,,,,,,,,,,,,,,,,,,,,,,,,,,,,,,,,,,,,,,,,,,,,,,,,,,,,,,,,
,,,,,,,,,,stimuli/images/PICTURE_750.png,POLICY,5f20572705b3e931faf561d5,30/04/1949,2020-09-10_15h04.15.844,proactive3.1,2020.1.2,MacIntel,60,5f599a131af4471f3d752b7b,5f5a324d5356a7092324d544,2,,,,,,kettle,,,,,,0,7,7,44,1,5,2,,,,,,,,,,,,,,,,,,,,,,,,,,,,,,,,,,,,,,,,,,,,,,,,,,,,,,,,,,,,,,,,,,,,,,,,,,,,,,,,,,,,,,,,,,,,,,,,,,,,,,,,,,,,,
,,,,,,,,,,stimuli/images/PICTURE_177.png,HOUSE,5f20572705b3e931faf561d5,30/04/1949,2020-09-10_15h04.15.844,proactive3.1,2020.1.2,MacIntel,60,5f599a131af4471f3d752b7b,5f5a324d5356a7092324d544,2,,,,,,mushroom,,,,,,0,8,8,25,1,3,2,,,,,,,,,,,,,,,,,,,,,,,,,,,,,,,,,,,,,,,,,,,,,,,,,,,,,,,,,,,,,,,,,,,,,,,,,,,,,,,,,,,,,,,,,,,,,,,,,,,,,,,,,,,,,
,,,,,,,,,,stimuli/images/PICTURE_487.png,ROOF,5f20572705b3e931faf561d5,30/04/1949,2020-09-10_15h04.15.844,proactive3.1,2020.1.2,MacIntel,60,5f599a131af4471f3d752b7b,5f5a324d5356a7092324d544,2,,,,,,basket,,,,,,0,9,9,50,1,6,2,,,,,,,,,,,,,,,,,,,,,,,,,,,,,,,,,,,,,,,,,,,,,,,,,,,,,,,,,,,,,,,,,,,,,,,,,,,,,,,,,,,,,,,,,,,,,,,,,,,,,,,,,,,,,
,,,,,,,,,,stimuli/images/PICTURE_654.png,YEAR,5f20572705b3e931faf561d5,30/04/1949,2020-09-10_15h04.15.844,proactive3.1,2020.1.2,MacIntel,60,5f599a131af4471f3d752b7b,5f5a324d5356a7092324d544,2,,,,,,pencil,,,,,,0,10,10,41,1,5,2,,,,,,,,,,,,,,,,,,,,,,,,,,,,,,,,,,,,,,,,,,,,,,,,,,,,,,,,,,,,,,,,,,,,,,,,,,,,,,,,,,,,,,,,,,,,,,,,,,,,,,,,,,,,,
,,,,,,,,,,stimuli/images/PICTURE_57.png,NATION,5f20572705b3e931faf561d5,30/04/1949,2020-09-10_15h04.15.844,proactive3.1,2020.1.2,MacIntel,60,5f599a131af4471f3d752b7b,5f5a324d5356a7092324d544,2,,,,,,stamp,,,,,,0,11,11,21,1,3,2,,,,,,,,,,,,,,,,,,,,,,,,,,,,,,,,,,,,,,,,,,,,,,,,,,,,,,,,,,,,,,,,,,,,,,,,,,,,,,,,,,,,,,,,,,,,,,,,,,,,,,,,,,,,,
,,,,,,,,,,stimuli/images/PICTURE_348.png,TOILET,5f20572705b3e931faf561d5,30/04/1949,2020-09-10_15h04.15.844,proactive3.1,2020.1.2,MacIntel,60,5f599a131af4471f3d752b7b,5f5a324d5356a7092324d544,2,,,,,,pepper,,,,,,0,12,12,4,1,1,2,,,,,,,,,,,,,,,,,,,,,,,,,,,,,,,,,,,,,,,,,,,,,,,,,,,,,,,,,,,,,,,,,,,,,,,,,,,,,,,,,,,,,,,,,,,,,,,,,,,,,,,,,,,,,
,,,,,,,,,,stimuli/images/PICTURE_2.png,YARD,5f20572705b3e931faf561d5,30/04/1949,2020-09-10_15h04.15.844,proactive3.1,2020.1.2,MacIntel,60,5f599a131af4471f3d752b7b,5f5a324d5356a7092324d544,2,,,,,,tyre,,,,,,0,13,13,55,1,6,2,,,,,,,,,,,,,,,,,,,,,,,,,,,,,,,,,,,,,,,,,,,,,,,,,,,,,,,,,,,,,,,,,,,,,,,,,,,,,,,,,,,,,,,,,,,,,,,,,,,,,,,,,,,,,
,,,,,,,,,,stimuli/images/PICTURE_491.png,SERIES,5f20572705b3e931faf561d5,30/04/1949,2020-09-10_15h04.15.844,proactive3.1,2020.1.2,MacIntel,60,5f599a131af4471f3d752b7b,5f5a324d5356a7092324d544,2,,,,,,rug,,,,,,0,14,14,39,1,4,2,,,,,,,,,,,,,,,,,,,,,,,,,,,,,,,,,,,,,,,,,,,,,,,,,,,,,,,,,,,,,,,,,,,,,,,,,,,,,,,,,,,,,,,,,,,,,,,,,,,,,,,,,,,,,
,,,,,,,,,,stimuli/images/PICTURE_95.png,NIGHT,5f20572705b3e931faf561d5,30/04/1949,2020-09-10_15h04.15.844,proactive3.1,2020.1.2,MacIntel,60,5f599a131af4471f3d752b7b,5f5a324d5356a7092324d544,2,,,,,,suitcase,,,,,,0,15,15,37,1,4,2,,,,,,,,,,,,,,,,,,,,,,,,,,,,,,,,,,,,,,,,,,,,,,,,,,,,,,,,,,,,,,,,,,,,,,,,,,,,,,,,,,,,,,,,,,,,,,,,,,,,,,,,,,,,,
,,,,,,,,,,stimuli/images/PICTURE_297.png,BODY,5f20572705b3e931faf561d5,30/04/1949,2020-09-10_15h04.15.844,proactive3.1,2020.1.2,MacIntel,60,5f599a131af4471f3d752b7b,5f5a324d5356a7092324d544,2,,,,,,aeroplane,,,,,,0,16,16,51,1,6,2,,,,,,,,,,,,,,,,,,,,,,,,,,,,,,,,,,,,,,,,,,,,,,,,,,,,,,,,,,,,,,,,,,,,,,,,,,,,,,,,,,,,,,,,,,,,,,,,,,,,,,,,,,,,,
,,,,,,,,,,stimuli/images/PICTURE_32.png,LETTER,5f20572705b3e931faf561d5,30/04/1949,2020-09-10_15h04.15.844,proactive3.1,2020.1.2,MacIntel,60,5f599a131af4471f3d752b7b,5f5a324d5356a7092324d544,2,,,,,,crown,,,,,,0,17,17,56,1,6,2,,,,,,,,,,,,,,,,,,,,,,,,,,,,,,,,,,,,,,,,,,,,,,,,,,,,,,,,,,,,,,,,,,,,,,,,,,,,,,,,,,,,,,,,,,,,,,,,,,,,,,,,,,,,,
,,,,,,,,,,stimuli/images/PICTURE_509.png,BATH,5f20572705b3e931faf561d5,30/04/1949,2020-09-10_15h04.15.844,proactive3.1,2020.1.2,MacIntel,60,5f599a131af4471f3d752b7b,5f5a324d5356a7092324d544,2,,,,,,telephone,,,,,,0,18,18,15,1,2,2,,,,,,,,,,,,,,,,,,,,,,,,,,,,,,,,,,,,,,,,,,,,,,,,,,,,,,,,,,,,,,,,,,,,,,,,,,,,,,,,,,,,,,,,,,,,,,,,,,,,,,,,,,,,,
,,,,,,,,,,stimuli/images/PICTURE_18.png,RIVER,5f20572705b3e931faf561d5,30/04/1949,2020-09-10_15h04.15.844,proactive3.1,2020.1.2,MacIntel,60,5f599a131af4471f3d752b7b,5f5a324d5356a7092324d544,2,,,,,,planet,,,,,,0,19,19,22,1,3,2,,,,,,,,,,,,,,,,,,,,,,,,,,,,,,,,,,,,,,,,,,,,,,,,,,,,,,,,,,,,,,,,,,,,,,,,,,,,,,,,,,,,,,,,,,,,,,,,,,,,,,,,,,,,,
,,,,,,,,,,stimuli/images/PICTURE_708.png,VALLEY,5f20572705b3e931faf561d5,30/04/1949,2020-09-10_15h04.15.844,proactive3.1,2020.1.2,MacIntel,60,5f599a131af4471f3d752b7b,5f5a324d5356a7092324d544,2,,,,,,monkey,,,,,,0,20,20,45,1,5,2,,,,,,,,,,,,,,,,,,,,,,,,,,,,,,,,,,,,,,,,,,,,,,,,,,,,,,,,,,,,,,,,,,,,,,,,,,,,,,,,,,,,,,,,,,,,,,,,,,,,,,,,,,,,,
,,,,,,,,,,stimuli/images/PICTURE_311.png,FLESH,5f20572705b3e931faf561d5,30/04/1949,2020-09-10_15h04.15.844,proactive3.1,2020.1.2,MacIntel,60,5f599a131af4471f3d752b7b,5f5a324d5356a7092324d544,2,,,,,,razor,,,,,,0,21,21,3,1,1,2,,,,,,,,,,,,,,,,,,,,,,,,,,,,,,,,,,,,,,,,,,,,,,,,,,,,,,,,,,,,,,,,,,,,,,,,,,,,,,,,,,,,,,,,,,,,,,,,,,,,,,,,,,,,,
,,,,,,,,,,stimuli/images/PICTURE_403.png,FAMILY,5f20572705b3e931faf561d5,30/04/1949,2020-09-10_15h04.15.844,proactive3.1,2020.1.2,MacIntel,60,5f599a131af4471f3d752b7b,5f5a324d5356a7092324d544,2,,,,,,cathedral,,,,,,0,22,22,9,1,1,2,,,,,,,,,,,,,,,,,,,,,,,,,,,,,,,,,,,,,,,,,,,,,,,,,,,,,,,,,,,,,,,,,,,,,,,,,,,,,,,,,,,,,,,,,,,,,,,,,,,,,,,,,,,,,
,,,,,,,,,,stimuli/images/PICTURE_509.png,MILLER,5f20572705b3e931faf561d5,30/04/1949,2020-09-10_15h04.15.844,proactive3.1,2020.1.2,MacIntel,60,5f599a131af4471f3d752b7b,5f5a324d5356a7092324d544,2,,,,,,telephone,,,,,,0,23,23,49,1,5,2,,,,,,,,,,,,,,,,,,,,,,,,,,,,,,,,,,,,,,,,,,,,,,,,,,,,,,,,,,,,,,,,,,,,,,,,,,,,,,,,,,,,,,,,,,,,,,,,,,,,,,,,,,,,,
,,,,,,,,,,stimuli/images/PICTURE_215.png,BOYS,5f20572705b3e931faf561d5,30/04/1949,2020-09-10_15h04.15.844,proactive3.1,2020.1.2,MacIntel,60,5f599a131af4471f3d752b7b,5f5a324d5356a7092324d544,2,,,,,,boot,,,,,,0,24,24,24,1,3,2,,,,,,,,,,,,,,,,,,,,,,,,,,,,,,,,,,,,,,,,,,,,,,,,,,,,,,,,,,,,,,,,,,,,,,,,,,,,,,,,,,,,,,,,,,,,,,,,,,,,,,,,,,,,,
,,,,,,,,,,stimuli/images/PICTURE_285.png,WRITER,5f20572705b3e931faf561d5,30/04/1949,2020-09-10_15h04.15.844,proactive3.1,2020.1.2,MacIntel,60,5f599a131af4471f3d752b7b,5f5a324d5356a7092324d544,2,,,,,,carrot,,,,,,0,25,25,6,1,1,2,,,,,,,,,,,,,,,,,,,,,,,,,,,,,,,,,,,,,,,,,,,,,,,,,,,,,,,,,,,,,,,,,,,,,,,,,,,,,,,,,,,,,,,,,,,,,,,,,,,,,,,,,,,,,
,,,,,,,,,,stimuli/images/PICTURE_655.png,SALE,5f20572705b3e931faf561d5,30/04/1949,2020-09-10_15h04.15.844,proactive3.1,2020.1.2,MacIntel,60,5f599a131af4471f3d752b7b,5f5a324d5356a7092324d544,2,,,,,,megaphone,,,,,,0,26,26,57,1,6,2,,,,,,,,,,,,,,,,,,,,,,,,,,,,,,,,,,,,,,,,,,,,,,,,,,,,,,,,,,,,,,,,,,,,,,,,,,,,,,,,,,,,,,,,,,,,,,,,,,,,,,,,,,,,,
,,,,,,,,,,stimuli/images/PICTURE_470.png,BEAUTY,5f20572705b3e931faf561d5,30/04/1949,2020-09-10_15h04.15.844,proactive3.1,2020.1.2,MacIntel,60,5f599a131af4471f3d752b7b,5f5a324d5356a7092324d544,2,,,,,,motorbike,,,,,,0,27,27,26,1,3,2,,,,,,,,,,,,,,,,,,,,,,,,,,,,,,,,,,,,,,,,,,,,,,,,,,,,,,,,,,,,,,,,,,,,,,,,,,,,,,,,,,,,,,,,,,,,,,,,,,,,,,,,,,,,,
,,,,,,,,,,stimuli/images/PICTURE_564.png,PLENTY,5f20572705b3e931faf561d5,30/04/1949,2020-09-10_15h04.15.844,proactive3.1,2020.1.2,MacIntel,60,5f599a131af4471f3d752b7b,5f5a324d5356a7092324d544,2,,,,,,spoon,,,,,,0,28,28,11,1,2,2,,,,,,,,,,,,,,,,,,,,,,,,,,,,,,,,,,,,,,,,,,,,,,,,,,,,,,,,,,,,,,,,,,,,,,,,,,,,,,,,,,,,,,,,,,,,,,,,,,,,,,,,,,,,,
,,,,,,,,,,stimuli/images/PICTURE_654.png,COPS,5f20572705b3e931faf561d5,30/04/1949,2020-09-10_15h04.15.844,proactive3.1,2020.1.2,MacIntel,60,5f599a131af4471f3d752b7b,5f5a324d5356a7092324d544,2,,,,,,pencil,,,,,,0,29,29,10,1,2,2,,,,,,,,,,,,,,,,,,,,,,,,,,,,,,,,,,,,,,,,,,,,,,,,,,,,,,,,,,,,,,,,,,,,,,,,,,,,,,,,,,,,,,,,,,,,,,,,,,,,,,,,,,,,,
,,,,,,,,,,stimuli/images/PICTURE_160.png,HOTEL,5f20572705b3e931faf561d5,30/04/1949,2020-09-10_15h04.15.844,proactive3.1,2020.1.2,MacIntel,60,5f599a131af4471f3d752b7b,5f5a324d5356a7092324d544,2,,,,,,wheelbarrow,,,,,,0,30,30,16,1,2,2,,,,,,,,,,,,,,,,,,,,,,,,,,,,,,,,,,,,,,,,,,,,,,,,,,,,,,,,,,,,,,,,,,,,,,,,,,,,,,,,,,,,,,,,,,,,,,,,,,,,,,,,,,,,,
,,,,,,,,,,stimuli/images/PICTURE_93.png,GIRL,5f20572705b3e931faf561d5,30/04/1949,2020-09-10_15h04.15.844,proactive3.1,2020.1.2,MacIntel,60,5f599a131af4471f3d752b7b,5f5a324d5356a7092324d544,2,,,,,,skateboard,,,,,,0,31,31,31,1,4,2,,,,,,,,,,,,,,,,,,,,,,,,,,,,,,,,,,,,,,,,,,,,,,,,,,,,,,,,,,,,,,,,,,,,,,,,,,,,,,,,,,,,,,,,,,,,,,,,,,,,,,,,,,,,,
,,,,,,,,,,stimuli/images/PICTURE_2.png,AREA,5f20572705b3e931faf561d5,30/04/1949,2020-09-10_15h04.15.844,proactive3.1,2020.1.2,MacIntel,60,5f599a131af4471f3d752b7b,5f5a324d5356a7092324d544,2,,,,,,tyre,,,,,,0,32,32,32,1,4,2,,,,,,,,,,,,,,,,,,,,,,,,,,,,,,,,,,,,,,,,,,,,,,,,,,,,,,,,,,,,,,,,,,,,,,,,,,,,,,,,,,,,,,,,,,,,,,,,,,,,,,,,,,,,,
,,,,,,,,,,stimuli/images/PICTURE_405.png,JUNGLE,5f20572705b3e931faf561d5,30/04/1949,2020-09-10_15h04.15.844,proactive3.1,2020.1.2,MacIntel,60,5f599a131af4471f3d752b7b,5f5a324d5356a7092324d544,2,,,,,,anchor,,,,,,0,33,33,58,1,6,2,,,,,,,,,,,,,,,,,,,,,,,,,,,,,,,,,,,,,,,,,,,,,,,,,,,,,,,,,,,,,,,,,,,,,,,,,,,,,,,,,,,,,,,,,,,,,,,,,,,,,,,,,,,,,
,,,,,,,,,,stimuli/images/PICTURE_677.png,PHOTO,5f20572705b3e931faf561d5,30/04/1949,2020-09-10_15h04.15.844,proactive3.1,2020.1.2,MacIntel,60,5f599a131af4471f3d752b7b,5f5a324d5356a7092324d544,2,,,,,,map,,,,,,0,34,34,14,1,2,2,,,,,,,,,,,,,,,,,,,,,,,,,,,,,,,,,,,,,,,,,,,,,,,,,,,,,,,,,,,,,,,,,,,,,,,,,,,,,,,,,,,,,,,,,,,,,,,,,,,,,,,,,,,,,
,,,,,,,,,,stimuli/images/PICTURE_470.png,MOMENT,5f20572705b3e931faf561d5,30/04/1949,2020-09-10_15h04.15.844,proactive3.1,2020.1.2,MacIntel,60,5f599a131af4471f3d752b7b,5f5a324d5356a7092324d544,2,,,,,,motorbike,,,,,,0,35,35,40,1,5,2,,,,,,,,,,,,,,,,,,,,,,,,,,,,,,,,,,,,,,,,,,,,,,,,,,,,,,,,,,,,,,,,,,,,,,,,,,,,,,,,,,,,,,,,,,,,,,,,,,,,,,,,,,,,,
,,,,,,,,,,stimuli/images/PICTURE_405.png,JUNGLE,5f20572705b3e931faf561d5,30/04/1949,2020-09-10_15h04.15.844,proactive3.1,2020.1.2,MacIntel,60,5f599a131af4471f3d752b7b,5f5a324d5356a7092324d544,2,,,,,,anchor,,,,,,0,36,36,13,1,2,2,,,,,,,,,,,,,,,,,,,,,,,,,,,,,,,,,,,,,,,,,,,,,,,,,,,,,,,,,,,,,,,,,,,,,,,,,,,,,,,,,,,,,,,,,,,,,,,,,,,,,,,,,,,,,
,,,,,,,,,,stimuli/images/PICTURE_311.png,TOILET,5f20572705b3e931faf561d5,30/04/1949,2020-09-10_15h04.15.844,proactive3.1,2020.1.2,MacIntel,60,5f599a131af4471f3d752b7b,5f5a324d5356a7092324d544,2,,,,,,razor,,,,,,0,37,37,54,1,6,2,,,,,,,,,,,,,,,,,,,,,,,,,,,,,,,,,,,,,,,,,,,,,,,,,,,,,,,,,,,,,,,,,,,,,,,,,,,,,,,,,,,,,,,,,,,,,,,,,,,,,,,,,,,,,
,,,,,,,,,,stimuli/images/PICTURE_405.png,HOUSE,5f20572705b3e931faf561d5,30/04/1949,2020-09-10_15h04.15.844,proactive3.1,2020.1.2,MacIntel,60,5f599a131af4471f3d752b7b,5f5a324d5356a7092324d544,2,,,,,,anchor,,,,,,0,38,38,2,1,1,2,,,,,,,,,,,,,,,,,,,,,,,,,,,,,,,,,,,,,,,,,,,,,,,,,,,,,,,,,,,,,,,,,,,,,,,,,,,,,,,,,,,,,,,,,,,,,,,,,,,,,,,,,,,,,
,,,,,,,,,,stimuli/images/PICTURE_215.png,LEADER,5f20572705b3e931faf561d5,30/04/1949,2020-09-10_15h04.15.844,proactive3.1,2020.1.2,MacIntel,60,5f599a131af4471f3d752b7b,5f5a324d5356a7092324d544,2,,,,,,boot,,,,,,0,39,39,43,1,5,2,,,,,,,,,,,,,,,,,,,,,,,,,,,,,,,,,,,,,,,,,,,,,,,,,,,,,,,,,,,,,,,,,,,,,,,,,,,,,,,,,,,,,,,,,,,,,,,,,,,,,,,,,,,,,
,,,,,,,,,,stimuli/images/PICTURE_504.png,HOUSE,5f20572705b3e931faf561d5,30/04/1949,2020-09-10_15h04.15.844,proactive3.1,2020.1.2,MacIntel,60,5f599a131af4471f3d752b7b,5f5a324d5356a7092324d544,2,,,,,,wheel,,,,,,0,40,40,36,1,4,2,,,,,,,,,,,,,,,,,,,,,,,,,,,,,,,,,,,,,,,,,,,,,,,,,,,,,,,,,,,,,,,,,,,,,,,,,,,,,,,,,,,,,,,,,,,,,,,,,,,,,,,,,,,,,
,,,,,,,,,,stimuli/images/PICTURE_327.png,LEADER,5f20572705b3e931faf561d5,30/04/1949,2020-09-10_15h04.15.844,proactive3.1,2020.1.2,MacIntel,60,5f599a131af4471f3d752b7b,5f5a324d5356a7092324d544,2,,,,,,helmet,,,,,,0,41,41,17,1,2,2,,,,,,,,,,,,,,,,,,,,,,,,,,,,,,,,,,,,,,,,,,,,,,,,,,,,,,,,,,,,,,,,,,,,,,,,,,,,,,,,,,,,,,,,,,,,,,,,,,,,,,,,,,,,,
,,,,,,,,,,stimuli/images/PICTURE_509.png,SHOTS,5f20572705b3e931faf561d5,30/04/1949,2020-09-10_15h04.15.844,proactive3.1,2020.1.2,MacIntel,60,5f599a131af4471f3d752b7b,5f5a324d5356a7092324d544,2,,,,,,telephone,,,,,,0,42,42,7,1,1,2,,,,,,,,,,,,,,,,,,,,,,,,,,,,,,,,,,,,,,,,,,,,,,,,,,,,,,,,,,,,,,,,,,,,,,,,,,,,,,,,,,,,,,,,,,,,,,,,,,,,,,,,,,,,,
,,,,,,,,,,stimuli/images/PICTURE_453.png,FAMILY,5f20572705b3e931faf561d5,30/04/1949,2020-09-10_15h04.15.844,proactive3.1,2020.1.2,MacIntel,60,5f599a131af4471f3d752b7b,5f5a324d5356a7092324d544,2,,,,,,scissors,,,,,,0,43,43,48,1,5,2,,,,,,,,,,,,,,,,,,,,,,,,,,,,,,,,,,,,,,,,,,,,,,,,,,,,,,,,,,,,,,,,,,,,,,,,,,,,,,,,,,,,,,,,,,,,,,,,,,,,,,,,,,,,,
,,,,,,,,,,stimuli/images/PICTURE_147.png,LEADER,5f20572705b3e931faf561d5,30/04/1949,2020-09-10_15h04.15.844,proactive3.1,2020.1.2,MacIntel,60,5f599a131af4471f3d752b7b,5f5a324d5356a7092324d544,2,,,,,,hanger,,,,,,0,44,44,33,1,4,2,,,,,,,,,,,,,,,,,,,,,,,,,,,,,,,,,,,,,,,,,,,,,,,,,,,,,,,,,,,,,,,,,,,,,,,,,,,,,,,,,,,,,,,,,,,,,,,,,,,,,,,,,,,,,
,,,,,,,,,,stimuli/images/PICTURE_688.png,CLOCK,5f20572705b3e931faf561d5,30/04/1949,2020-09-10_15h04.15.844,proactive3.1,2020.1.2,MacIntel,60,5f599a131af4471f3d752b7b,5f5a324d5356a7092324d544,2,,,,,,runner,,,,,,0,45,45,42,1,5,2,,,,,,,,,,,,,,,,,,,,,,,,,,,,,,,,,,,,,,,,,,,,,,,,,,,,,,,,,,,,,,,,,,,,,,,,,,,,,,,,,,,,,,,,,,,,,,,,,,,,,,,,,,,,,
,,,,,,,,,,stimuli/images/PICTURE_208.png,SPIRIT,5f20572705b3e931faf561d5,30/04/1949,2020-09-10_15h04.15.844,proactive3.1,2020.1.2,MacIntel,60,5f599a131af4471f3d752b7b,5f5a324d5356a7092324d544,2,,,,,,microphone,,,,,,0,46,46,28,1,3,2,,,,,,,,,,,,,,,,,,,,,,,,,,,,,,,,,,,,,,,,,,,,,,,,,,,,,,,,,,,,,,,,,,,,,,,,,,,,,,,,,,,,,,,,,,,,,,,,,,,,,,,,,,,,,
,,,,,,,,,,stimuli/images/PICTURE_348.png,DUDE,5f20572705b3e931faf561d5,30/04/1949,2020-09-10_15h04.15.844,proactive3.1,2020.1.2,MacIntel,60,5f599a131af4471f3d752b7b,5f5a324d5356a7092324d544,2,,,,,,pepper,,,,,,0,47,47,59,1,6,2,,,,,,,,,,,,,,,,,,,,,,,,,,,,,,,,,,,,,,,,,,,,,,,,,,,,,,,,,,,,,,,,,,,,,,,,,,,,,,,,,,,,,,,,,,,,,,,,,,,,,,,,,,,,,
,,,,,,,,,,stimuli/images/PICTURE_677.png,FAMILY,5f20572705b3e931faf561d5,30/04/1949,2020-09-10_15h04.15.844,proactive3.1,2020.1.2,MacIntel,60,5f599a131af4471f3d752b7b,5f5a324d5356a7092324d544,2,,,,,,map,,,,,,0,48,48,53,1,6,2,,,,,,,,,,,,,,,,,,,,,,,,,,,,,,,,,,,,,,,,,,,,,,,,,,,,,,,,,,,,,,,,,,,,,,,,,,,,,,,,,,,,,,,,,,,,,,,,,,,,,,,,,,,,,
,,,,,,,,,,stimuli/images/PICTURE_33.png,COPS,5f20572705b3e931faf561d5,30/04/1949,2020-09-10_15h04.15.844,proactive3.1,2020.1.2,MacIntel,60,5f599a131af4471f3d752b7b,5f5a324d5356a7092324d544,2,,,,,,frame,,,,,,0,49,49,29,1,3,2,,,,,,,,,,,,,,,,,,,,,,,,,,,,,,,,,,,,,,,,,,,,,,,,,,,,,,,,,,,,,,,,,,,,,,,,,,,,,,,,,,,,,,,,,,,,,,,,,,,,,,,,,,,,,
,,,,,,,,,,stimuli/images/PICTURE_487.png,POLICY,5f20572705b3e931faf561d5,30/04/1949,2020-09-10_15h04.15.844,proactive3.1,2020.1.2,MacIntel,60,5f599a131af4471f3d752b7b,5f5a324d5356a7092324d544,2,,,,,,basket,,,,,,0,50,50,34,1,4,2,,,,,,,,,,,,,,,,,,,,,,,,,,,,,,,,,,,,,,,,,,,,,,,,,,,,,,,,,,,,,,,,,,,,,,,,,,,,,,,,,,,,,,,,,,,,,,,,,,,,,,,,,,,,,
,,,,,,,,,,stimuli/images/PICTURE_255.png,PENNY,5f20572705b3e931faf561d5,30/04/1949,2020-09-10_15h04.15.844,proactive3.1,2020.1.2,MacIntel,60,5f599a131af4471f3d752b7b,5f5a324d5356a7092324d544,2,,,,,,shovel,,,,,,0,51,51,19,1,2,2,,,,,,,,,,,,,,,,,,,,,,,,,,,,,,,,,,,,,,,,,,,,,,,,,,,,,,,,,,,,,,,,,,,,,,,,,,,,,,,,,,,,,,,,,,,,,,,,,,,,,,,,,,,,,
,,,,,,,,,,stimuli/images/PICTURE_509.png,APPLE,5f20572705b3e931faf561d5,30/04/1949,2020-09-10_15h04.15.844,proactive3.1,2020.1.2,MacIntel,60,5f599a131af4471f3d752b7b,5f5a324d5356a7092324d544,2,,,,,,telephone,,,,,,0,52,52,38,1,4,2,,,,,,,,,,,,,,,,,,,,,,,,,,,,,,,,,,,,,,,,,,,,,,,,,,,,,,,,,,,,,,,,,,,,,,,,,,,,,,,,,,,,,,,,,,,,,,,,,,,,,,,,,,,,,
,,,,,,,,,,stimuli/images/PICTURE_123.png,SALE,5f20572705b3e931faf561d5,30/04/1949,2020-09-10_15h04.15.844,proactive3.1,2020.1.2,MacIntel,60,5f599a131af4471f3d752b7b,5f5a324d5356a7092324d544,2,,,,,,dart,,,,,,0,53,53,8,1,1,2,,,,,,,,,,,,,,,,,,,,,,,,,,,,,,,,,,,,,,,,,,,,,,,,,,,,,,,,,,,,,,,,,,,,,,,,,,,,,,,,,,,,,,,,,,,,,,,,,,,,,,,,,,,,,
,,,,,,,,,,stimuli/images/PICTURE_667.png,GLASS,5f20572705b3e931faf561d5,30/04/1949,2020-09-10_15h04.15.844,proactive3.1,2020.1.2,MacIntel,60,5f599a131af4471f3d752b7b,5f5a324d5356a7092324d544,2,,,,,,daisy,,,,,,0,54,54,27,1,3,2,,,,,,,,,,,,,,,,,,,,,,,,,,,,,,,,,,,,,,,,,,,,,,,,,,,,,,,,,,,,,,,,,,,,,,,,,,,,,,,,,,,,,,,,,,,,,,,,,,,,,,,,,,,,,
,,,,,,,,,,stimuli/images/PICTURE_356.png,CANDY,5f20572705b3e931faf561d5,30/04/1949,2020-09-10_15h04.15.844,proactive3.1,2020.1.2,MacIntel,60,5f599a131af4471f3d752b7b,5f5a324d5356a7092324d544,2,,,,,,pawn,,,,,,0,55,55,46,1,5,2,,,,,,,,,,,,,,,,,,,,,,,,,,,,,,,,,,,,,,,,,,,,,,,,,,,,,,,,,,,,,,,,,,,,,,,,,,,,,,,,,,,,,,,,,,,,,,,,,,,,,,,,,,,,,
,,,,,,,,,,stimuli/images/PICTURE_285.png,PRINCE,5f20572705b3e931faf561d5,30/04/1949,2020-09-10_15h04.15.844,proactive3.1,2020.1.2,MacIntel,60,5f599a131af4471f3d752b7b,5f5a324d5356a7092324d544,2,,,,,,carrot,,,,,,0,56,56,20,1,3,2,,,,,,,,,,,,,,,,,,,,,,,,,,,,,,,,,,,,,,,,,,,,,,,,,,,,,,,,,,,,,,,,,,,,,,,,,,,,,,,,,,,,,,,,,,,,,,,,,,,,,,,,,,,,,
,,,,,,,,,,stimuli/images/PICTURE_57.png,CASINO,5f20572705b3e931faf561d5,30/04/1949,2020-09-10_15h04.15.844,proactive3.1,2020.1.2,MacIntel,60,5f599a131af4471f3d752b7b,5f5a324d5356a7092324d544,2,,,,,,stamp,,,,,,0,57,57,12,1,2,2,,,,,,,,,,,,,,,,,,,,,,,,,,,,,,,,,,,,,,,,,,,,,,,,,,,,,,,,,,,,,,,,,,,,,,,,,,,,,,,,,,,,,,,,,,,,,,,,,,,,,,,,,,,,,
,,,,,,,,,,stimuli/images/PICTURE_452.png,COPS,5f20572705b3e931faf561d5,30/04/1949,2020-09-10_15h04.15.844,proactive3.1,2020.1.2,MacIntel,60,5f599a131af4471f3d752b7b,5f5a324d5356a7092324d544,2,,,,,,watch,,,,,,0,58,58,0,1,1,2,,,,,,,,,,,,,,,,,,,,,,,,,,,,,,,,,,,,,,,,,,,,,,,,,,,,,,,,,,,,,,,,,,,,,,,,,,,,,,,,,,,,,,,,,,,,,,,,,,,,,,,,,,,,,
,,?,0.001,0,,,,,,stimuli/images/PICTURE_692.png,DUDE,5f20572705b3e931faf561d5,30/04/1949,2020-09-10_15h04.15.844,proactive3.1,2020.1.2,MacIntel,60,5f599a131af4471f3d752b7b,5f5a324d5356a7092324d544,2,,,,,,cherry,,,,,,,,,,,5,2,0,0,0,47,1,,,,,,,,,,,,,,,,,,,,,,,,,,,,,,,,,,,,,,,,,,,,,,,,,,,,,,,,,,,,,,,,,,,,,,,,,,,,,,,,,,,,,,,,,,,,,,,,,,,,,,,,
,,?,0.001,0,,,,,,stimuli/images/PICTURE_123.png,SALE,5f20572705b3e931faf561d5,30/04/1949,2020-09-10_15h04.15.844,proactive3.1,2020.1.2,MacIntel,60,5f599a131af4471f3d752b7b,5f5a324d5356a7092324d544,2,,,,,,dart,,,,,,,,,,,1,2,0,1,1,8,1,,,,,,,,,,,,,,,,,,,,,,,,,,,,,,,,,,,,,,,,,,,,,,,,,,,,,,,,,,,,,,,,,,,,,,,,,,,,,,,,,,,,,,,,,,,,,,,,,,,,,,,,
,,?,0.001,0,,,,,,stimuli/images/PICTURE_677.png,FAMILY,5f20572705b3e931faf561d5,30/04/1949,2020-09-10_15h04.15.844,proactive3.1,2020.1.2,MacIntel,60,5f599a131af4471f3d752b7b,5f5a324d5356a7092324d544,2,,,,,,map,,,,,,,,,,,6,2,0,2,2,53,1,,,,,,,,,,,,,,,,,,,,,,,,,,,,,,,,,,,,,,,,,,,,,,,,,,,,,,,,,,,,,,,,,,,,,,,,,,,,,,,,,,,,,,,,,,,,,,,,,,,,,,,,
,,?,0,0,,,,,,stimuli/images/PICTURE_215.png,FOOD,5f20572705b3e931faf561d5,30/04/1949,2020-09-10_15h04.15.844,proactive3.1,2020.1.2,MacIntel,60,5f599a131af4471f3d752b7b,5f5a324d5356a7092324d544,2,,,,,,boot,,,,,,,,,,,1,2,0,3,3,5,1,,,,,,,,,,,,,,,,,,,,,,,,,,,,,,,,,,,,,,,,,,,,,,,,,,,,,,,,,,,,,,,,,,,,,,,,,,,,,,,,,,,,,,,,,,,,,,,,,,,,,,,,
,,?,0,0,,,,,,stimuli/images/PICTURE_215.png,BOYS,5f20572705b3e931faf561d5,30/04/1949,2020-09-10_15h04.15.844,proactive3.1,2020.1.2,MacIntel,60,5f599a131af4471f3d752b7b,5f5a324d5356a7092324d544,2,,,,,,boot,,,,,,,,,,,3,2,0,4,4,24,1,,,,,,,,,,,,,,,,,,,,,,,,,,,,,,,,,,,,,,,,,,,,,,,,,,,,,,,,,,,,,,,,,,,,,,,,,,,,,,,,,,,,,,,,,,,,,,,,,,,,,,,,
,,?,2.025,0,,,,,,stimuli/images/PICTURE_255.png,PENNY,5f20572705b3e931faf561d5,30/04/1949,2020-09-10_15h04.15.844,proactive3.1,2020.1.2,MacIntel,60,5f599a131af4471f3d752b7b,5f5a324d5356a7092324d544,2,,,,,,shovel,,,,,,,,,,,2,2,0,5,5,19,1,,,,,,,,,,,,,,,,,,,,,,,,,,,,,,,,,,,,,,,,,,,,,,,,,,,,,,,,,,,,,,,,,,,,,,,,,,,,,,,,,,,,,,,,,,,,,,,,,,,,,,,,
,,?,0.001,0,,,,,,stimuli/images/PICTURE_504.png,HOUSE,5f20572705b3e931faf561d5,30/04/1949,2020-09-10_15h04.15.844,proactive3.1,2020.1.2,MacIntel,60,5f599a131af4471f3d752b7b,5f5a324d5356a7092324d544,2,,,,,,wheel,,,,,,,,,,,4,2,0,6,6,36,1,,,,,,,,,,,,,,,,,,,,,,,,,,,,,,,,,,,,,,,,,,,,,,,,,,,,,,,,,,,,,,,,,,,,,,,,,,,,,,,,,,,,,,,,,,,,,,,,,,,,,,,,
,,?,0,0,,,,,,stimuli/images/PICTURE_708.png,VALLEY,5f20572705b3e931faf561d5,30/04/1949,2020-09-10_15h04.15.844,proactive3.1,2020.1.2,MacIntel,60,5f599a131af4471f3d752b7b,5f5a324d5356a7092324d544,2,,,,,,monkey,,,,,,,,,,,5,2,0,7,7,45,1,,,,,,,,,,,,,,,,,,,,,,,,,,,,,,,,,,,,,,,,,,,,,,,,,,,,,,,,,,,,,,,,,,,,,,,,,,,,,,,,,,,,,,,,,,,,,,,,,,,,,,,,
,,?,0,0,,,,,,stimuli/images/PICTURE_285.png,WRITER,5f20572705b3e931faf561d5,30/04/1949,2020-09-10_15h04.15.844,proactive3.1,2020.1.2,MacIntel,60,5f599a131af4471f3d752b7b,5f5a324d5356a7092324d544,2,,,,,,carrot,,,,,,,,,,,1,2,0,8,8,6,1,,,,,,,,,,,,,,,,,,,,,,,,,,,,,,,,,,,,,,,,,,,,,,,,,,,,,,,,,,,,,,,,,,,,,,,,,,,,,,,,,,,,,,,,,,,,,,,,,,,,,,,,
,,?,0,0,,,,,,stimuli/images/PICTURE_655.png,SALE,5f20572705b3e931faf561d5,30/04/1949,2020-09-10_15h04.15.844,proactive3.1,2020.1.2,MacIntel,60,5f599a131af4471f3d752b7b,5f5a324d5356a7092324d544,2,,,,,,megaphone,,,,,,,,,,,6,2,0,9,9,57,1,,,,,,,,,,,,,,,,,,,,,,,,,,,,,,,,,,,,,,,,,,,,,,,,,,,,,,,,,,,,,,,,,,,,,,,,,,,,,,,,,,,,,,,,,,,,,,,,,,,,,,,,
,,PHONE,6.266,0,,,,,,stimuli/images/PICTURE_677.png,PHOTO,5f20572705b3e931faf561d5,30/04/1949,2020-09-10_15h04.15.844,proactive3.1,2020.1.2,MacIntel,60,5f599a131af4471f3d752b7b,5f5a324d5356a7092324d544,2,,,,,,map,,,,,,,,,,,2,2,0,10,10,14,1,,,,,,,,,,,,,,,,,,,,,,,,,,,,,,,,,,,,,,,,,,,,,,,,,,,,,,,,,,,,,,,,,,,,,,,,,,,,,,,,,,,,,,,,,,,,,,,,,,,,,,,,
,,?,0,0,,,,,,stimuli/images/PICTURE_177.png,HOUSE,5f20572705b3e931faf561d5,30/04/1949,2020-09-10_15h04.15.844,proactive3.1,2020.1.2,MacIntel,60,5f599a131af4471f3d752b7b,5f5a324d5356a7092324d544,2,,,,,,mushroom,,,,,,,,,,,3,2,0,11,11,25,1,,,,,,,,,,,,,,,,,,,,,,,,,,,,,,,,,,,,,,,,,,,,,,,,,,,,,,,,,,,,,,,,,,,,,,,,,,,,,,,,,,,,,,,,,,,,,,,,,,,,,,,,
,,?,0.001,0,,,,,,stimuli/images/PICTURE_215.png,LEADER,5f20572705b3e931faf561d5,30/04/1949,2020-09-10_15h04.15.844,proactive3.1,2020.1.2,MacIntel,60,5f599a131af4471f3d752b7b,5f5a324d5356a7092324d544,2,,,,,,boot,,,,,,,,,,,5,2,0,12,12,43,1,,,,,,,,,,,,,,,,,,,,,,,,,,,,,,,,,,,,,,,,,,,,,,,,,,,,,,,,,,,,,,,,,,,,,,,,,,,,,,,,,,,,,,,,,,,,,,,,,,,,,,,,
,,?,0.001,0,,,,,,stimuli/images/PICTURE_403.png,FAMILY,5f20572705b3e931faf561d5,30/04/1949,2020-09-10_15h04.15.844,proactive3.1,2020.1.2,MacIntel,60,5f599a131af4471f3d752b7b,5f5a324d5356a7092324d544,2,,,,,,cathedral,,,,,,,,,,,1,2,0,13,13,9,1,,,,,,,,,,,,,,,,,,,,,,,,,,,,,,,,,,,,,,,,,,,,,,,,,,,,,,,,,,,,,,,,,,,,,,,,,,,,,,,,,,,,,,,,,,,,,,,,,,,,,,,,
,,?,0.001,0,,,,,,stimuli/images/PICTURE_348.png,DUDE,5f20572705b3e931faf561d5,30/04/1949,2020-09-10_15h04.15.844,proactive3.1,2020.1.2,MacIntel,60,5f599a131af4471f3d752b7b,5f5a324d5356a7092324d544,2,,,,,,pepper,,,,,,,,,,,6,2,0,14,14,59,1,,,,,,,,,,,,,,,,,,,,,,,,,,,,,,,,,,,,,,,,,,,,,,,,,,,,,,,,,,,,,,,,,,,,,,,,,,,,,,,,,,,,,,,,,,,,,,,,,,,,,,,,
,,?,0.001,0,,,,,,stimuli/images/PICTURE_311.png,FLESH,5f20572705b3e931faf561d5,30/04/1949,2020-09-10_15h04.15.844,proactive3.1,2020.1.2,MacIntel,60,5f599a131af4471f3d752b7b,5f5a324d5356a7092324d544,2,,,,,,razor,,,,,,,,,,,1,2,0,15,15,3,1,,,,,,,,,,,,,,,,,,,,,,,,,,,,,,,,,,,,,,,,,,,,,,,,,,,,,,,,,,,,,,,,,,,,,,,,,,,,,,,,,,,,,,,,,,,,,,,,,,,,,,,,
,,?,0,0,,,,,,stimuli/images/PICTURE_57.png,CANDY,5f20572705b3e931faf561d5,30/04/1949,2020-09-10_15h04.15.844,proactive3.1,2020.1.2,MacIntel,60,5f599a131af4471f3d752b7b,5f5a324d5356a7092324d544,2,,,,,,stamp,,,,,,,,,,,6,2,0,16,16,52,1,,,,,,,,,,,,,,,,,,,,,,,,,,,,,,,,,,,,,,,,,,,,,,,,,,,,,,,,,,,,,,,,,,,,,,,,,,,,,,,,,,,,,,,,,,,,,,,,,,,,,,,,
,,?,0,0,,,,,,stimuli/images/PICTURE_491.png,SERIES,5f20572705b3e931faf561d5,30/04/1949,2020-09-10_15h04.15.844,proactive3.1,2020.1.2,MacIntel,60,5f599a131af4471f3d752b7b,5f5a324d5356a7092324d544,2,,,,,,rug,,,,,,,,,,,4,2,0,17,17,39,1,,,,,,,,,,,,,,,,,,,,,,,,,,,,,,,,,,,,,,,,,,,,,,,,,,,,,,,,,,,,,,,,,,,,,,,,,,,,,,,,,,,,,,,,,,,,,,,,,,,,,,,,
,,?,0,0,,,,,,stimuli/images/PICTURE_487.png,POLICY,5f20572705b3e931faf561d5,30/04/1949,2020-09-10_15h04.15.844,proactive3.1,2020.1.2,MacIntel,60,5f599a131af4471f3d752b7b,5f5a324d5356a7092324d544,2,,,,,,basket,,,,,,,,,,,4,2,0,18,18,34,1,,,,,,,,,,,,,,,,,,,,,,,,,,,,,,,,,,,,,,,,,,,,,,,,,,,,,,,,,,,,,,,,,,,,,,,,,,,,,,,,,,,,,,,,,,,,,,,,,,,,,,,,
,,?,0,0,,,,,,stimuli/images/PICTURE_314.png,SPEECH,5f20572705b3e931faf561d5,30/04/1949,2020-09-10_15h04.15.844,proactive3.1,2020.1.2,MacIntel,60,5f599a131af4471f3d752b7b,5f5a324d5356a7092324d544,2,,,,,,perfume,,,,,,,,,,,4,2,0,19,19,35,1,,,,,,,,,,,,,,,,,,,,,,,,,,,,,,,,,,,,,,,,,,,,,,,,,,,,,,,,,,,,,,,,,,,,,,,,,,,,,,,,,,,,,,,,,,,,,,,,,,,,,,,,
,,?,0.001,0,,,,,,stimuli/images/PICTURE_208.png,SPIRIT,5f20572705b3e931faf561d5,30/04/1949,2020-09-10_15h04.15.844,proactive3.1,2020.1.2,MacIntel,60,5f599a131af4471f3d752b7b,5f5a324d5356a7092324d544,2,,,,,,microphone,,,,,,,,,,,3,2,0,20,20,28,1,,,,,,,,,,,,,,,,,,,,,,,,,,,,,,,,,,,,,,,,,,,,,,,,,,,,,,,,,,,,,,,,,,,,,,,,,,,,,,,,,,,,,,,,,,,,,,,,,,,,,,,,
,,?,0.001,0,,,,,,stimuli/images/PICTURE_470.png,MOMENT,5f20572705b3e931faf561d5,30/04/1949,2020-09-10_15h04.15.844,proactive3.1,2020.1.2,MacIntel,60,5f599a131af4471f3d752b7b,5f5a324d5356a7092324d544,2,,,,,,motorbike,,,,,,,,,,,5,2,0,21,21,40,1,,,,,,,,,,,,,,,,,,,,,,,,,,,,,,,,,,,,,,,,,,,,,,,,,,,,,,,,,,,,,,,,,,,,,,,,,,,,,,,,,,,,,,,,,,,,,,,,,,,,,,,,
,,?,0,0,,,,,,stimuli/images/PICTURE_147.png,LEADER,5f20572705b3e931faf561d5,30/04/1949,2020-09-10_15h04.15.844,proactive3.1,2020.1.2,MacIntel,60,5f599a131af4471f3d752b7b,5f5a324d5356a7092324d544,2,,,,,,hanger,,,,,,,,,,,4,2,0,22,22,33,1,,,,,,,,,,,,,,,,,,,,,,,,,,,,,,,,,,,,,,,,,,,,,,,,,,,,,,,,,,,,,,,,,,,,,,,,,,,,,,,,,,,,,,,,,,,,,,,,,,,,,,,,
,,PLENTY,3.941,1,,,,,,stimuli/images/PICTURE_564.png,PLENTY,5f20572705b3e931faf561d5,30/04/1949,2020-09-10_15h04.15.844,proactive3.1,2020.1.2,MacIntel,60,5f599a131af4471f3d752b7b,5f5a324d5356a7092324d544,2,,,,,,spoon,,,,,,,,,,,2,2,0,23,23,11,1,,,,,,,,,,,,,,,,,,,,,,,,,,,,,,,,,,,,,,,,,,,,,,,,,,,,,,,,,,,,,,,,,,,,,,,,,,,,,,,,,,,,,,,,,,,,,,,,,,,,,,,,
,,?,0,0,,,,,,stimuli/images/PICTURE_2.png,AREA,5f20572705b3e931faf561d5,30/04/1949,2020-09-10_15h04.15.844,proactive3.1,2020.1.2,MacIntel,60,5f599a131af4471f3d752b7b,5f5a324d5356a7092324d544,2,,,,,,tyre,,,,,,,,,,,4,2,0,24,24,32,1,,,,,,,,,,,,,,,,,,,,,,,,,,,,,,,,,,,,,,,,,,,,,,,,,,,,,,,,,,,,,,,,,,,,,,,,,,,,,,,,,,,,,,,,,,,,,,,,,,,,,,,,
,,?,0,0,,,,,,stimuli/images/PICTURE_2.png,YARD,5f20572705b3e931faf561d5,30/04/1949,2020-09-10_15h04.15.844,proactive3.1,2020.1.2,MacIntel,60,5f599a131af4471f3d752b7b,5f5a324d5356a7092324d544,2,,,,,,tyre,,,,,,,,,,,6,2,0,25,25,55,1,,,,,,,,,,,,,,,,,,,,,,,,,,,,,,,,,,,,,,,,,,,,,,,,,,,,,,,,,,,,,,,,,,,,,,,,,,,,,,,,,,,,,,,,,,,,,,,,,,,,,,,,
,,?,0,0,,,,,,stimuli/images/PICTURE_487.png,ROOF,5f20572705b3e931faf561d5,30/04/1949,2020-09-10_15h04.15.844,proactive3.1,2020.1.2,MacIntel,60,5f599a131af4471f3d752b7b,5f5a324d5356a7092324d544,2,,,,,,basket,,,,,,,,,,,6,2,0,26,26,50,1,,,,,,,,,,,,,,,,,,,,,,,,,,,,,,,,,,,,,,,,,,,,,,,,,,,,,,,,,,,,,,,,,,,,,,,,,,,,,,,,,,,,,,,,,,,,,,,,,,,,,,,,
,,?,0,0,,,,,,stimuli/images/PICTURE_141.png,CLIENT,5f20572705b3e931faf561d5,30/04/1949,2020-09-10_15h04.15.844,proactive3.1,2020.1.2,MacIntel,60,5f599a131af4471f3d752b7b,5f5a324d5356a7092324d544,2,,,,,,sunflower,,,,,,,,,,,4,2,0,27,27,30,1,,,,,,,,,,,,,,,,,,,,,,,,,,,,,,,,,,,,,,,,,,,,,,,,,,,,,,,,,,,,,,,,,,,,,,,,,,,,,,,,,,,,,,,,,,,,,,,,,,,,,,,,
,,?,0.001,0,,,,,,stimuli/images/PICTURE_667.png,GLASS,5f20572705b3e931faf561d5,30/04/1949,2020-09-10_15h04.15.844,proactive3.1,2020.1.2,MacIntel,60,5f599a131af4471f3d752b7b,5f5a324d5356a7092324d544,2,,,,,,daisy,,,,,,,,,,,3,2,0,28,28,27,1,,,,,,,,,,,,,,,,,,,,,,,,,,,,,,,,,,,,,,,,,,,,,,,,,,,,,,,,,,,,,,,,,,,,,,,,,,,,,,,,,,,,,,,,,,,,,,,,,,,,,,,,
,,?,0,0,,,,,,stimuli/images/PICTURE_405.png,JUNGLE,5f20572705b3e931faf561d5,30/04/1949,2020-09-10_15h04.15.844,proactive3.1,2020.1.2,MacIntel,60,5f599a131af4471f3d752b7b,5f5a324d5356a7092324d544,2,,,,,,anchor,,,,,,,,,,,6,2,0,29,29,58,1,,,,,,,,,,,,,,,,,,,,,,,,,,,,,,,,,,,,,,,,,,,,,,,,,,,,,,,,,,,,,,,,,,,,,,,,,,,,,,,,,,,,,,,,,,,,,,,,,,,,,,,,
,,?,0,0,,,,,,stimuli/images/PICTURE_470.png,BEAUTY,5f20572705b3e931faf561d5,30/04/1949,2020-09-10_15h04.15.844,proactive3.1,2020.1.2,MacIntel,60,5f599a131af4471f3d752b7b,5f5a324d5356a7092324d544,2,,,,,,motorbike,,,,,,,,,,,3,2,0,30,30,26,1,,,,,,,,,,,,,,,,,,,,,,,,,,,,,,,,,,,,,,,,,,,,,,,,,,,,,,,,,,,,,,,,,,,,,,,,,,,,,,,,,,,,,,,,,,,,,,,,,,,,,,,,
,,LEADER,3.697,1,,,,,,stimuli/images/PICTURE_327.png,LEADER,5f20572705b3e931faf561d5,30/04/1949,2020-09-10_15h04.15.844,proactive3.1,2020.1.2,MacIntel,60,5f599a131af4471f3d752b7b,5f5a324d5356a7092324d544,2,,,,,,helmet,,,,,,,,,,,2,2,0,31,31,17,1,,,,,,,,,,,,,,,,,,,,,,,,,,,,,,,,,,,,,,,,,,,,,,,,,,,,,,,,,,,,,,,,,,,,,,,,,,,,,,,,,,,,,,,,,,,,,,,,,,,,,,,,
,,?,0.001,0,,,,,,stimuli/images/PICTURE_95.png,NIGHT,5f20572705b3e931faf561d5,30/04/1949,2020-09-10_15h04.15.844,proactive3.1,2020.1.2,MacIntel,60,5f599a131af4471f3d752b7b,5f5a324d5356a7092324d544,2,,,,,,suitcase,,,,,,,,,,,4,2,0,32,32,37,1,,,,,,,,,,,,,,,,,,,,,,,,,,,,,,,,,,,,,,,,,,,,,,,,,,,,,,,,,,,,,,,,,,,,,,,,,,,,,,,,,,,,,,,,,,,,,,,,,,,,,,,,
,,?,0,0,,,,,,stimuli/images/PICTURE_509.png,APPLE,5f20572705b3e931faf561d5,30/04/1949,2020-09-10_15h04.15.844,proactive3.1,2020.1.2,MacIntel,60,5f599a131af4471f3d752b7b,5f5a324d5356a7092324d544,2,,,,,,telephone,,,,,,,,,,,4,2,0,33,33,38,1,,,,,,,,,,,,,,,,,,,,,,,,,,,,,,,,,,,,,,,,,,,,,,,,,,,,,,,,,,,,,,,,,,,,,,,,,,,,,,,,,,,,,,,,,,,,,,,,,,,,,,,,
,,?,0,0,,,,,,stimuli/images/PICTURE_57.png,NATION,5f20572705b3e931faf561d5,30/04/1949,2020-09-10_15h04.15.844,proactive3.1,2020.1.2,MacIntel,60,5f599a131af4471f3d752b7b,5f5a324d5356a7092324d544,2,,,,,,stamp,,,,,,,,,,,3,2,0,34,34,21,1,,,,,,,,,,,,,,,,,,,,,,,,,,,,,,,,,,,,,,,,,,,,,,,,,,,,,,,,,,,,,,,,,,,,,,,,,,,,,,,,,,,,,,,,,,,,,,,,,,,,,,,,
,,?,0,0,,,,,,stimuli/images/PICTURE_654.png,YEAR,5f20572705b3e931faf561d5,30/04/1949,2020-09-10_15h04.15.844,proactive3.1,2020.1.2,MacIntel,60,5f599a131af4471f3d752b7b,5f5a324d5356a7092324d544,2,,,,,,pencil,,,,,,,,,,,5,2,0,35,35,41,1,,,,,,,,,,,,,,,,,,,,,,,,,,,,,,,,,,,,,,,,,,,,,,,,,,,,,,,,,,,,,,,,,,,,,,,,,,,,,,,,,,,,,,,,,,,,,,,,,,,,,,,,
,,?,0,0,,,,,,stimuli/images/PICTURE_68.png,KIND,5f20572705b3e931faf561d5,30/04/1949,2020-09-10_15h04.15.844,proactive3.1,2020.1.2,MacIntel,60,5f599a131af4471f3d752b7b,5f5a324d5356a7092324d544,2,,,,,,candle,,,,,,,,,,,3,2,0,36,36,23,1,,,,,,,,,,,,,,,,,,,,,,,,,,,,,,,,,,,,,,,,,,,,,,,,,,,,,,,,,,,,,,,,,,,,,,,,,,,,,,,,,,,,,,,,,,,,,,,,,,,,,,,,
,,?,0,0,,,,,,stimuli/images/PICTURE_356.png,CANDY,5f20572705b3e931faf561d5,30/04/1949,2020-09-10_15h04.15.844,proactive3.1,2020.1.2,MacIntel,60,5f599a131af4471f3d752b7b,5f5a324d5356a7092324d544,2,,,,,,pawn,,,,,,,,,,,5,2,0,37,37,46,1,,,,,,,,,,,,,,,,,,,,,,,,,,,,,,,,,,,,,,,,,,,,,,,,,,,,,,,,,,,,,,,,,,,,,,,,,,,,,,,,,,,,,,,,,,,,,,,,,,,,,,,,
,,?,0.001,0,,,,,,stimuli/images/PICTURE_285.png,PRINCE,5f20572705b3e931faf561d5,30/04/1949,2020-09-10_15h04.15.844,proactive3.1,2020.1.2,MacIntel,60,5f599a131af4471f3d752b7b,5f5a324d5356a7092324d544,2,,,,,,carrot,,,,,,,,,,,3,2,0,38,38,20,1,,,,,,,,,,,,,,,,,,,,,,,,,,,,,,,,,,,,,,,,,,,,,,,,,,,,,,,,,,,,,,,,,,,,,,,,,,,,,,,,,,,,,,,,,,,,,,,,,,,,,,,,
,,HOTEL,6.196,1,,,,,,stimuli/images/PICTURE_160.png,HOTEL,5f20572705b3e931faf561d5,30/04/1949,2020-09-10_15h04.15.844,proactive3.1,2020.1.2,MacIntel,60,5f599a131af4471f3d752b7b,5f5a324d5356a7092324d544,2,,,,,,wheelbarrow,,,,,,,,,,,2,2,0,39,39,16,1,,,,,,,,,,,,,,,,,,,,,,,,,,,,,,,,,,,,,,,,,,,,,,,,,,,,,,,,,,,,,,,,,,,,,,,,,,,,,,,,,,,,,,,,,,,,,,,,,,,,,,,,
,,?,0.001,0,,,,,,stimuli/images/PICTURE_452.png,COPS,5f20572705b3e931faf561d5,30/04/1949,2020-09-10_15h04.15.844,proactive3.1,2020.1.2,MacIntel,60,5f599a131af4471f3d752b7b,5f5a324d5356a7092324d544,2,,,,,,watch,,,,,,,,,,,1,2,0,40,40,0,1,,,,,,,,,,,,,,,,,,,,,,,,,,,,,,,,,,,,,,,,,,,,,,,,,,,,,,,,,,,,,,,,,,,,,,,,,,,,,,,,,,,,,,,,,,,,,,,,,,,,,,,,
,,BATH,4.233,1,,,,,,stimuli/images/PICTURE_509.png,BATH,5f20572705b3e931faf561d5,30/04/1949,2020-09-10_15h04.15.844,proactive3.1,2020.1.2,MacIntel,60,5f599a131af4471f3d752b7b,5f5a324d5356a7092324d544,2,,,,,,telephone,,,,,,,,,,,2,2,0,41,41,15,1,,,,,,,,,,,,,,,,,,,,,,,,,,,,,,,,,,,,,,,,,,,,,,,,,,,,,,,,,,,,,,,,,,,,,,,,,,,,,,,,,,,,,,,,,,,,,,,,,,,,,,,,
,,?,0.001,0,,,,,,stimuli/images/PICTURE_688.png,CLOCK,5f20572705b3e931faf561d5,30/04/1949,2020-09-10_15h04.15.844,proactive3.1,2020.1.2,MacIntel,60,5f599a131af4471f3d752b7b,5f5a324d5356a7092324d544,2,,,,,,runner,,,,,,,,,,,5,2,0,42,42,42,1,,,,,,,,,,,,,,,,,,,,,,,,,,,,,,,,,,,,,,,,,,,,,,,,,,,,,,,,,,,,,,,,,,,,,,,,,,,,,,,,,,,,,,,,,,,,,,,,,,,,,,,,
,,?,0.001,0,,,,,,stimuli/images/PICTURE_311.png,TOILET,5f20572705b3e931faf561d5,30/04/1949,2020-09-10_15h04.15.844,proactive3.1,2020.1.2,MacIntel,60,5f599a131af4471f3d752b7b,5f5a324d5356a7092324d544,2,,,,,,razor,,,,,,,,,,,6,2,0,43,43,54,1,,,,,,,,,,,,,,,,,,,,,,,,,,,,,,,,,,,,,,,,,,,,,,,,,,,,,,,,,,,,,,,,,,,,,,,,,,,,,,,,,,,,,,,,,,,,,,,,,,,,,,,,
,,?,0.001,0,,,,,,stimuli/images/PICTURE_93.png,GIRL,5f20572705b3e931faf561d5,30/04/1949,2020-09-10_15h04.15.844,proactive3.1,2020.1.2,MacIntel,60,5f599a131af4471f3d752b7b,5f5a324d5356a7092324d544,2,,,,,,skateboard,,,,,,,,,,,4,2,0,44,44,31,1,,,,,,,,,,,,,,,,,,,,,,,,,,,,,,,,,,,,,,,,,,,,,,,,,,,,,,,,,,,,,,,,,,,,,,,,,,,,,,,,,,,,,,,,,,,,,,,,,,,,,,,,
,,?,0.001,0,,,,,,stimuli/images/PICTURE_509.png,SHOTS,5f20572705b3e931faf561d5,30/04/1949,2020-09-10_15h04.15.844,proactive3.1,2020.1.2,MacIntel,60,5f599a131af4471f3d752b7b,5f5a324d5356a7092324d544,2,,,,,,telephone,,,,,,,,,,,1,2,0,45,45,7,1,,,,,,,,,,,,,,,,,,,,,,,,,,,,,,,,,,,,,,,,,,,,,,,,,,,,,,,,,,,,,,,,,,,,,,,,,,,,,,,,,,,,,,,,,,,,,,,,,,,,,,,,
,,?,0,0,,,,,,stimuli/images/PICTURE_453.png,FAMILY,5f20572705b3e931faf561d5,30/04/1949,2020-09-10_15h04.15.844,proactive3.1,2020.1.2,MacIntel,60,5f599a131af4471f3d752b7b,5f5a324d5356a7092324d544,2,,,,,,scissors,,,,,,,,,,,5,2,0,46,46,48,1,,,,,,,,,,,,,,,,,,,,,,,,,,,,,,,,,,,,,,,,,,,,,,,,,,,,,,,,,,,,,,,,,,,,,,,,,,,,,,,,,,,,,,,,,,,,,,,,,,,,,,,,
,,?,0,0,,,,,,stimuli/images/PICTURE_33.png,COPS,5f20572705b3e931faf561d5,30/04/1949,2020-09-10_15h04.15.844,proactive3.1,2020.1.2,MacIntel,60,5f599a131af4471f3d752b7b,5f5a324d5356a7092324d544,2,,,,,,frame,,,,,,,,,,,3,2,0,47,47,29,1,,,,,,,,,,,,,,,,,,,,,,,,,,,,,,,,,,,,,,,,,,,,,,,,,,,,,,,,,,,,,,,,,,,,,,,,,,,,,,,,,,,,,,,,,,,,,,,,,,,,,,,,
,,?,0,0,,,,,,stimuli/images/PICTURE_32.png,LETTER,5f20572705b3e931faf561d5,30/04/1949,2020-09-10_15h04.15.844,proactive3.1,2020.1.2,MacIntel,60,5f599a131af4471f3d752b7b,5f5a324d5356a7092324d544,2,,,,,,crown,,,,,,,,,,,6,2,0,48,48,56,1,,,,,,,,,,,,,,,,,,,,,,,,,,,,,,,,,,,,,,,,,,,,,,,,,,,,,,,,,,,,,,,,,,,,,,,,,,,,,,,,,,,,,,,,,,,,,,,,,,,,,,,,
,,?,0.001,0,,,,,,stimuli/images/PICTURE_750.png,POLICY,5f20572705b3e931faf561d5,30/04/1949,2020-09-10_15h04.15.844,proactive3.1,2020.1.2,MacIntel,60,5f599a131af4471f3d752b7b,5f5a324d5356a7092324d544,2,,,,,,kettle,,,,,,,,,,,5,2,0,49,49,44,1,,,,,,,,,,,,,,,,,,,,,,,,,,,,,,,,,,,,,,,,,,,,,,,,,,,,,,,,,,,,,,,,,,,,,,,,,,,,,,,,,,,,,,,,,,,,,,,,,,,,,,,,
,,?,0,0,,,,,,stimuli/images/PICTURE_405.png,HOUSE,5f20572705b3e931faf561d5,30/04/1949,2020-09-10_15h04.15.844,proactive3.1,2020.1.2,MacIntel,60,5f599a131af4471f3d752b7b,5f5a324d5356a7092324d544,2,,,,,,anchor,,,,,,,,,,,1,2,0,50,50,2,1,,,,,,,,,,,,,,,,,,,,,,,,,,,,,,,,,,,,,,,,,,,,,,,,,,,,,,,,,,,,,,,,,,,,,,,,,,,,,,,,,,,,,,,,,,,,,,,,,,,,,,,,
,,?,0,0,,,,,,stimuli/images/PICTURE_348.png,TOILET,5f20572705b3e931faf561d5,30/04/1949,2020-09-10_15h04.15.844,proactive3.1,2020.1.2,MacIntel,60,5f599a131af4471f3d752b7b,5f5a324d5356a7092324d544,2,,,,,,pepper,,,,,,,,,,,1,2,0,51,51,4,1,,,,,,,,,,,,,,,,,,,,,,,,,,,,,,,,,,,,,,,,,,,,,,,,,,,,,,,,,,,,,,,,,,,,,,,,,,,,,,,,,,,,,,,,,,,,,,,,,,,,,,,,
,,COPS,3.391,1,,,,,,stimuli/images/PICTURE_654.png,COPS,5f20572705b3e931faf561d5,30/04/1949,2020-09-10_15h04.15.844,proactive3.1,2020.1.2,MacIntel,60,5f599a131af4471f3d752b7b,5f5a324d5356a7092324d544,2,,,,,,pencil,,,,,,,,,,,2,2,0,52,52,10,1,,,,,,,,,,,,,,,,,,,,,,,,,,,,,,,,,,,,,,,,,,,,,,,,,,,,,,,,,,,,,,,,,,,,,,,,,,,,,,,,,,,,,,,,,,,,,,,,,,,,,,,,
,,?,3.885,0,,,,,,stimuli/images/PICTURE_296.png,CLOCK,5f20572705b3e931faf561d5,30/04/1949,2020-09-10_15h04.15.844,proactive3.1,2020.1.2,MacIntel,60,5f599a131af4471f3d752b7b,5f5a324d5356a7092324d544,2,,,,,,bolt,,,,,,,,,,,2,2,0,53,53,18,1,,,,,,,,,,,,,,,,,,,,,,,,,,,,,,,,,,,,,,,,,,,,,,,,,,,,,,,,,,,,,,,,,,,,,,,,,,,,,,,,,,,,,,,,,,,,,,,,,,,,,,,,
,,?,0.001,0,,,,,,stimuli/images/PICTURE_509.png,MILLER,5f20572705b3e931faf561d5,30/04/1949,2020-09-10_15h04.15.844,proactive3.1,2020.1.2,MacIntel,60,5f599a131af4471f3d752b7b,5f5a324d5356a7092324d544,2,,,,,,telephone,,,,,,,,,,,5,2,0,54,54,49,1,,,,,,,,,,,,,,,,,,,,,,,,,,,,,,,,,,,,,,,,,,,,,,,,,,,,,,,,,,,,,,,,,,,,,,,,,,,,,,,,,,,,,,,,,,,,,,,,,,,,,,,,
,,?,3.567,0,,,,,,stimuli/images/PICTURE_405.png,JUNGLE,5f20572705b3e931faf561d5,30/04/1949,2020-09-10_15h04.15.844,proactive3.1,2020.1.2,MacIntel,60,5f599a131af4471f3d752b7b,5f5a324d5356a7092324d544,2,,,,,,anchor,,,,,,,,,,,2,2,0,55,55,13,1,,,,,,,,,,,,,,,,,,,,,,,,,,,,,,,,,,,,,,,,,,,,,,,,,,,,,,,,,,,,,,,,,,,,,,,,,,,,,,,,,,,,,,,,,,,,,,,,,,,,,,,,
,,?,0.001,0,,,,,,stimuli/images/PICTURE_2.png,JUNGLE,5f20572705b3e931faf561d5,30/04/1949,2020-09-10_15h04.15.844,proactive3.1,2020.1.2,MacIntel,60,5f599a131af4471f3d752b7b,5f5a324d5356a7092324d544,2,,,,,,tyre,,,,,,,,,,,1,2,0,56,56,1,1,,,,,,,,,,,,,,,,,,,,,,,,,,,,,,,,,,,,,,,,,,,,,,,,,,,,,,,,,,,,,,,,,,,,,,,,,,,,,,,,,,,,,,,,,,,,,,,,,,,,,,,,
,,?,0.001,0,,,,,,stimuli/images/PICTURE_18.png,RIVER,5f20572705b3e931faf561d5,30/04/1949,2020-09-10_15h04.15.844,proactive3.1,2020.1.2,MacIntel,60,5f599a131af4471f3d752b7b,5f5a324d5356a7092324d544,2,,,,,,planet,,,,,,,,,,,3,2,0,57,57,22,1,,,,,,,,,,,,,,,,,,,,,,,,,,,,,,,,,,,,,,,,,,,,,,,,,,,,,,,,,,,,,,,,,,,,,,,,,,,,,,,,,,,,,,,,,,,,,,,,,,,,,,,,
,,MAP,4.1,0,,,,,,stimuli/images/PICTURE_57.png,CASINO,5f20572705b3e931faf561d5,30/04/1949,2020-09-10_15h04.15.844,proactive3.1,2020.1.2,MacIntel,60,5f599a131af4471f3d752b7b,5f5a324d5356a7092324d544,2,,,,,,stamp,,,,,,,,,,,2,2,0,58,58,12,1,,,,,,,,,,,,,,,,,,,,,,,,,,,,,,,,,,,,,,,,,,,,,,,,,,,,,,,,,,,,,,,,,,,,,,,,,,,,,,,,,,,,,,,,,,,,,,,,,,,,,,,,
,,?,0.001,0,,,,,,stimuli/images/PICTURE_297.png,BODY,5f20572705b3e931faf561d5,30/04/1949,2020-09-10_15h04.15.844,proactive3.1,2020.1.2,MacIntel,60,5f599a131af4471f3d752b7b,5f5a324d5356a7092324d544,2,,,,,,aeroplane,,,,,,,,,,,6,2,0,59,59,51,1,,,,,,,,,,,,,,,,,,,,,,,,,,,,,,,,,,,,,,,,,,,,,,,,,,,,,,,,,,,,,,,,,,,,,,,,,,,,,,,,,,,,,,,,,,,,,,,,,,,,,,,,
,,,,,,,,,,,,5f20572705b3e931faf561d5,30/04/1949,2020-09-10_15h04.15.844,proactive3.1,2020.1.2,MacIntel,60,5f599a131af4471f3d752b7b,5f5a324d5356a7092324d544,2,,,,,,,,,,,,,,,,,,,,,,,,0,0,0,2,1,stimuli/learn-block3.csv,,,,,,,,,,,,,,,,,,,,,,,,,,,,,,,,,,,,,,,,,,,,,,,,,,,,,,,,,,,,,,,,,,,,,,,,,,,,,,,,,,,,,,,,,,,,,,,,,,
,,,,,,,,,,stimuli/images/PICTURE_327.png,SERIES,5f20572705b3e931faf561d5,30/04/1949,2020-09-10_15h04.15.844,proactive3.1,2020.1.2,MacIntel,60,5f599a131af4471f3d752b7b,5f5a324d5356a7092324d544,2,,,,,,helmet,,,,,,0,0,0,3,1,1,1,,,,,,,,,,,,,,,,,,,,,,,,,,,,,,,,,,,,,,,,,,,,,,,,,,,,,,,,,,,,,,,,,,,,,,,,,,,,,,,,,,,,,,,,,,,,,,,,,,,,,,,,,,,,,
,,,,,,,,,,stimuli/images/PICTURE_654.png,MONTH,5f20572705b3e931faf561d5,30/04/1949,2020-09-10_15h04.15.844,proactive3.1,2020.1.2,MacIntel,60,5f599a131af4471f3d752b7b,5f5a324d5356a7092324d544,2,,,,,,pencil,,,,,,0,1,1,29,1,3,1,,,,,,,,,,,,,,,,,,,,,,,,,,,,,,,,,,,,,,,,,,,,,,,,,,,,,,,,,,,,,,,,,,,,,,,,,,,,,,,,,,,,,,,,,,,,,,,,,,,,,,,,,,,,,
,,,,,,,,,,stimuli/images/PICTURE_380.png,HONEY,5f20572705b3e931faf561d5,30/04/1949,2020-09-10_15h04.15.844,proactive3.1,2020.1.2,MacIntel,60,5f599a131af4471f3d752b7b,5f5a324d5356a7092324d544,2,,,,,,gorilla,,,,,,0,2,2,19,1,2,1,,,,,,,,,,,,,,,,,,,,,,,,,,,,,,,,,,,,,,,,,,,,,,,,,,,,,,,,,,,,,,,,,,,,,,,,,,,,,,,,,,,,,,,,,,,,,,,,,,,,,,,,,,,,,
,,,,,,,,,,stimuli/images/PICTURE_95.png,BOYS,5f20572705b3e931faf561d5,30/04/1949,2020-09-10_15h04.15.844,proactive3.1,2020.1.2,MacIntel,60,5f599a131af4471f3d752b7b,5f5a324d5356a7092324d544,2,,,,,,suitcase,,,,,,0,3,3,1,1,1,1,,,,,,,,,,,,,,,,,,,,,,,,,,,,,,,,,,,,,,,,,,,,,,,,,,,,,,,,,,,,,,,,,,,,,,,,,,,,,,,,,,,,,,,,,,,,,,,,,,,,,,,,,,,,,
,,,,,,,,,,stimuli/images/PICTURE_504.png,YEAR,5f20572705b3e931faf561d5,30/04/1949,2020-09-10_15h04.15.844,proactive3.1,2020.1.2,MacIntel,60,5f599a131af4471f3d752b7b,5f5a324d5356a7092324d544,2,,,,,,wheel,,,,,,0,4,4,13,1,2,1,,,,,,,,,,,,,,,,,,,,,,,,,,,,,,,,,,,,,,,,,,,,,,,,,,,,,,,,,,,,,,,,,,,,,,,,,,,,,,,,,,,,,,,,,,,,,,,,,,,,,,,,,,,,,
,,,,,,,,,,stimuli/images/PICTURE_467.png,POLICY,5f20572705b3e931faf561d5,30/04/1949,2020-09-10_15h04.15.844,proactive3.1,2020.1.2,MacIntel,60,5f599a131af4471f3d752b7b,5f5a324d5356a7092324d544,2,,,,,,peg,,,,,,0,5,5,53,1,6,1,,,,,,,,,,,,,,,,,,,,,,,,,,,,,,,,,,,,,,,,,,,,,,,,,,,,,,,,,,,,,,,,,,,,,,,,,,,,,,,,,,,,,,,,,,,,,,,,,,,,,,,,,,,,,
,,,,,,,,,,stimuli/images/PICTURE_340.png,VALLEY,5f20572705b3e931faf561d5,30/04/1949,2020-09-10_15h04.15.844,proactive3.1,2020.1.2,MacIntel,60,5f599a131af4471f3d752b7b,5f5a324d5356a7092324d544,2,,,,,,mirror,,,,,,0,6,6,54,1,6,1,,,,,,,,,,,,,,,,,,,,,,,,,,,,,,,,,,,,,,,,,,,,,,,,,,,,,,,,,,,,,,,,,,,,,,,,,,,,,,,,,,,,,,,,,,,,,,,,,,,,,,,,,,,,,
,,,,,,,,,,stimuli/images/PICTURE_147.png,YEAR,5f20572705b3e931faf561d5,30/04/1949,2020-09-10_15h04.15.844,proactive3.1,2020.1.2,MacIntel,60,5f599a131af4471f3d752b7b,5f5a324d5356a7092324d544,2,,,,,,hanger,,,,,,0,7,7,21,1,3,1,,,,,,,,,,,,,,,,,,,,,,,,,,,,,,,,,,,,,,,,,,,,,,,,,,,,,,,,,,,,,,,,,,,,,,,,,,,,,,,,,,,,,,,,,,,,,,,,,,,,,,,,,,,,,
,,,,,,,,,,stimuli/images/PICTURE_203.png,NIGHT,5f20572705b3e931faf561d5,30/04/1949,2020-09-10_15h04.15.844,proactive3.1,2020.1.2,MacIntel,60,5f599a131af4471f3d752b7b,5f5a324d5356a7092324d544,2,,,,,,cap,,,,,,0,8,8,2,1,1,1,,,,,,,,,,,,,,,,,,,,,,,,,,,,,,,,,,,,,,,,,,,,,,,,,,,,,,,,,,,,,,,,,,,,,,,,,,,,,,,,,,,,,,,,,,,,,,,,,,,,,,,,,,,,,
,,,,,,,,,,stimuli/images/PICTURE_708.png,RECORD,5f20572705b3e931faf561d5,30/04/1949,2020-09-10_15h04.15.844,proactive3.1,2020.1.2,MacIntel,60,5f599a131af4471f3d752b7b,5f5a324d5356a7092324d544,2,,,,,,monkey,,,,,,0,9,9,58,1,6,1,,,,,,,,,,,,,,,,,,,,,,,,,,,,,,,,,,,,,,,,,,,,,,,,,,,,,,,,,,,,,,,,,,,,,,,,,,,,,,,,,,,,,,,,,,,,,,,,,,,,,,,,,,,,,
,,,,,,,,,,stimuli/images/PICTURE_285.png,LIFE,5f20572705b3e931faf561d5,30/04/1949,2020-09-10_15h04.15.844,proactive3.1,2020.1.2,MacIntel,60,5f599a131af4471f3d752b7b,5f5a324d5356a7092324d544,2,,,,,,carrot,,,,,,0,10,10,33,1,4,1,,,,,,,,,,,,,,,,,,,,,,,,,,,,,,,,,,,,,,,,,,,,,,,,,,,,,,,,,,,,,,,,,,,,,,,,,,,,,,,,,,,,,,,,,,,,,,,,,,,,,,,,,,,,,
,,,,,,,,,,stimuli/images/PICTURE_469.png,AGENT,5f20572705b3e931faf561d5,30/04/1949,2020-09-10_15h04.15.844,proactive3.1,2020.1.2,MacIntel,60,5f599a131af4471f3d752b7b,5f5a324d5356a7092324d544,2,,,,,,stool,,,,,,0,11,11,16,1,2,1,,,,,,,,,,,,,,,,,,,,,,,,,,,,,,,,,,,,,,,,,,,,,,,,,,,,,,,,,,,,,,,,,,,,,,,,,,,,,,,,,,,,,,,,,,,,,,,,,,,,,,,,,,,,,
,,,,,,,,,,stimuli/images/PICTURE_744.png,WEAPON,5f20572705b3e931faf561d5,30/04/1949,2020-09-10_15h04.15.844,proactive3.1,2020.1.2,MacIntel,60,5f599a131af4471f3d752b7b,5f5a324d5356a7092324d544,2,,,,,,ring,,,,,,0,12,12,50,1,6,1,,,,,,,,,,,,,,,,,,,,,,,,,,,,,,,,,,,,,,,,,,,,,,,,,,,,,,,,,,,,,,,,,,,,,,,,,,,,,,,,,,,,,,,,,,,,,,,,,,,,,,,,,,,,,
,,,,,,,,,,stimuli/images/PICTURE_147.png,WOMEN,5f20572705b3e931faf561d5,30/04/1949,2020-09-10_15h04.15.844,proactive3.1,2020.1.2,MacIntel,60,5f599a131af4471f3d752b7b,5f5a324d5356a7092324d544,2,,,,,,hanger,,,,,,0,13,13,7,1,1,1,,,,,,,,,,,,,,,,,,,,,,,,,,,,,,,,,,,,,,,,,,,,,,,,,,,,,,,,,,,,,,,,,,,,,,,,,,,,,,,,,,,,,,,,,,,,,,,,,,,,,,,,,,,,,
,,,,,,,,,,stimuli/images/PICTURE_85.png,NATION,5f20572705b3e931faf561d5,30/04/1949,2020-09-10_15h04.15.844,proactive3.1,2020.1.2,MacIntel,60,5f599a131af4471f3d752b7b,5f5a324d5356a7092324d544,2,,,,,,diamond,,,,,,0,14,14,5,1,1,1,,,,,,,,,,,,,,,,,,,,,,,,,,,,,,,,,,,,,,,,,,,,,,,,,,,,,,,,,,,,,,,,,,,,,,,,,,,,,,,,,,,,,,,,,,,,,,,,,,,,,,,,,,,,,
,,,,,,,,,,stimuli/images/PICTURE_203.png,GODS,5f20572705b3e931faf561d5,30/04/1949,2020-09-10_15h04.15.844,proactive3.1,2020.1.2,MacIntel,60,5f599a131af4471f3d752b7b,5f5a324d5356a7092324d544,2,,,,,,cap,,,,,,0,15,15,30,1,4,1,,,,,,,,,,,,,,,,,,,,,,,,,,,,,,,,,,,,,,,,,,,,,,,,,,,,,,,,,,,,,,,,,,,,,,,,,,,,,,,,,,,,,,,,,,,,,,,,,,,,,,,,,,,,,
,,,,,,,,,,stimuli/images/PICTURE_32.png,PILLS,5f20572705b3e931faf561d5,30/04/1949,2020-09-10_15h04.15.844,proactive3.1,2020.1.2,MacIntel,60,5f599a131af4471f3d752b7b,5f5a324d5356a7092324d544,2,,,,,,crown,,,,,,0,16,16,18,1,2,1,,,,,,,,,,,,,,,,,,,,,,,,,,,,,,,,,,,,,,,,,,,,,,,,,,,,,,,,,,,,,,,,,,,,,,,,,,,,,,,,,,,,,,,,,,,,,,,,,,,,,,,,,,,,,
,,,,,,,,,,stimuli/images/PICTURE_685.png,PENNY,5f20572705b3e931faf561d5,30/04/1949,2020-09-10_15h04.15.844,proactive3.1,2020.1.2,MacIntel,60,5f599a131af4471f3d752b7b,5f5a324d5356a7092324d544,2,,,,,,goose,,,,,,0,17,17,4,1,1,1,,,,,,,,,,,,,,,,,,,,,,,,,,,,,,,,,,,,,,,,,,,,,,,,,,,,,,,,,,,,,,,,,,,,,,,,,,,,,,,,,,,,,,,,,,,,,,,,,,,,,,,,,,,,,
,,,,,,,,,,stimuli/images/PICTURE_340.png,LETTER,5f20572705b3e931faf561d5,30/04/1949,2020-09-10_15h04.15.844,proactive3.1,2020.1.2,MacIntel,60,5f599a131af4471f3d752b7b,5f5a324d5356a7092324d544,2,,,,,,mirror,,,,,,0,18,18,24,1,3,1,,,,,,,,,,,,,,,,,,,,,,,,,,,,,,,,,,,,,,,,,,,,,,,,,,,,,,,,,,,,,,,,,,,,,,,,,,,,,,,,,,,,,,,,,,,,,,,,,,,,,,,,,,,,,
,,,,,,,,,,stimuli/images/PICTURE_296.png,LOTS,5f20572705b3e931faf561d5,30/04/1949,2020-09-10_15h04.15.844,proactive3.1,2020.1.2,MacIntel,60,5f599a131af4471f3d752b7b,5f5a324d5356a7092324d544,2,,,,,,bolt,,,,,,0,19,19,9,1,1,1,,,,,,,,,,,,,,,,,,,,,,,,,,,,,,,,,,,,,,,,,,,,,,,,,,,,,,,,,,,,,,,,,,,,,,,,,,,,,,,,,,,,,,,,,,,,,,,,,,,,,,,,,,,,,
,,,,,,,,,,stimuli/images/PICTURE_32.png,KIND,5f20572705b3e931faf561d5,30/04/1949,2020-09-10_15h04.15.844,proactive3.1,2020.1.2,MacIntel,60,5f599a131af4471f3d752b7b,5f5a324d5356a7092324d544,2,,,,,,crown,,,,,,0,20,20,35,1,4,1,,,,,,,,,,,,,,,,,,,,,,,,,,,,,,,,,,,,,,,,,,,,,,,,,,,,,,,,,,,,,,,,,,,,,,,,,,,,,,,,,,,,,,,,,,,,,,,,,,,,,,,,,,,,,
,,,,,,,,,,stimuli/images/PICTURE_327.png,CASINO,5f20572705b3e931faf561d5,30/04/1949,2020-09-10_15h04.15.844,proactive3.1,2020.1.2,MacIntel,60,5f599a131af4471f3d752b7b,5f5a324d5356a7092324d544,2,,,,,,helmet,,,,,,0,21,21,20,1,3,1,,,,,,,,,,,,,,,,,,,,,,,,,,,,,,,,,,,,,,,,,,,,,,,,,,,,,,,,,,,,,,,,,,,,,,,,,,,,,,,,,,,,,,,,,,,,,,,,,,,,,,,,,,,,,
,,,,,,,,,,stimuli/images/PICTURE_233.png,LOTS,5f20572705b3e931faf561d5,30/04/1949,2020-09-10_15h04.15.844,proactive3.1,2020.1.2,MacIntel,60,5f599a131af4471f3d752b7b,5f5a324d5356a7092324d544,2,,,,,,salt,,,,,,0,22,22,42,1,5,1,,,,,,,,,,,,,,,,,,,,,,,,,,,,,,,,,,,,,,,,,,,,,,,,,,,,,,,,,,,,,,,,,,,,,,,,,,,,,,,,,,,,,,,,,,,,,,,,,,,,,,,,,,,,,
,,,,,,,,,,stimuli/images/PICTURE_380.png,CANDY,5f20572705b3e931faf561d5,30/04/1949,2020-09-10_15h04.15.844,proactive3.1,2020.1.2,MacIntel,60,5f599a131af4471f3d752b7b,5f5a324d5356a7092324d544,2,,,,,,gorilla,,,,,,0,23,23,0,1,1,1,,,,,,,,,,,,,,,,,,,,,,,,,,,,,,,,,,,,,,,,,,,,,,,,,,,,,,,,,,,,,,,,,,,,,,,,,,,,,,,,,,,,,,,,,,,,,,,,,,,,,,,,,,,,,
,,,,,,,,,,stimuli/images/PICTURE_403.png,WRITER,5f20572705b3e931faf561d5,30/04/1949,2020-09-10_15h04.15.844,proactive3.1,2020.1.2,MacIntel,60,5f599a131af4471f3d752b7b,5f5a324d5356a7092324d544,2,,,,,,cathedral,,,,,,0,24,24,31,1,4,1,,,,,,,,,,,,,,,,,,,,,,,,,,,,,,,,,,,,,,,,,,,,,,,,,,,,,,,,,,,,,,,,,,,,,,,,,,,,,,,,,,,,,,,,,,,,,,,,,,,,,,,,,,,,,
,,,,,,,,,,stimuli/images/PICTURE_405.png,YEAR,5f20572705b3e931faf561d5,30/04/1949,2020-09-10_15h04.15.844,proactive3.1,2020.1.2,MacIntel,60,5f599a131af4471f3d752b7b,5f5a324d5356a7092324d544,2,,,,,,anchor,,,,,,0,25,25,34,1,4,1,,,,,,,,,,,,,,,,,,,,,,,,,,,,,,,,,,,,,,,,,,,,,,,,,,,,,,,,,,,,,,,,,,,,,,,,,,,,,,,,,,,,,,,,,,,,,,,,,,,,,,,,,,,,,
,,,,,,,,,,stimuli/images/PICTURE_108.png,FLIGHT,5f20572705b3e931faf561d5,30/04/1949,2020-09-10_15h04.15.844,proactive3.1,2020.1.2,MacIntel,60,5f599a131af4471f3d752b7b,5f5a324d5356a7092324d544,2,,,,,,calendar,,,,,,0,26,26,59,1,6,1,,,,,,,,,,,,,,,,,,,,,,,,,,,,,,,,,,,,,,,,,,,,,,,,,,,,,,,,,,,,,,,,,,,,,,,,,,,,,,,,,,,,,,,,,,,,,,,,,,,,,,,,,,,,,
,,,,,,,,,,stimuli/images/PICTURE_85.png,TOILET,5f20572705b3e931faf561d5,30/04/1949,2020-09-10_15h04.15.844,proactive3.1,2020.1.2,MacIntel,60,5f599a131af4471f3d752b7b,5f5a324d5356a7092324d544,2,,,,,,diamond,,,,,,0,27,27,48,1,5,1,,,,,,,,,,,,,,,,,,,,,,,,,,,,,,,,,,,,,,,,,,,,,,,,,,,,,,,,,,,,,,,,,,,,,,,,,,,,,,,,,,,,,,,,,,,,,,,,,,,,,,,,,,,,,
,,,,,,,,,,stimuli/images/PICTURE_750.png,HOTEL,5f20572705b3e931faf561d5,30/04/1949,2020-09-10_15h04.15.844,proactive3.1,2020.1.2,MacIntel,60,5f599a131af4471f3d752b7b,5f5a324d5356a7092324d544,2,,,,,,kettle,,,,,,0,28,28,27,1,3,1,,,,,,,,,,,,,,,,,,,,,,,,,,,,,,,,,,,,,,,,,,,,,,,,,,,,,,,,,,,,,,,,,,,,,,,,,,,,,,,,,,,,,,,,,,,,,,,,,,,,,,,,,,,,,
,,,,,,,,,,stimuli/images/PICTURE_95.png,MILLER,5f20572705b3e931faf561d5,30/04/1949,2020-09-10_15h04.15.844,proactive3.1,2020.1.2,MacIntel,60,5f599a131af4471f3d752b7b,5f5a324d5356a7092324d544,2,,,,,,suitcase,,,,,,0,29,29,56,1,6,1,,,,,,,,,,,,,,,,,,,,,,,,,,,,,,,,,,,,,,,,,,,,,,,,,,,,,,,,,,,,,,,,,,,,,,,,,,,,,,,,,,,,,,,,,,,,,,,,,,,,,,,,,,,,,
,,,,,,,,,,stimuli/images/PICTURE_491.png,RIVER,5f20572705b3e931faf561d5,30/04/1949,2020-09-10_15h04.15.844,proactive3.1,2020.1.2,MacIntel,60,5f599a131af4471f3d752b7b,5f5a324d5356a7092324d544,2,,,,,,rug,,,,,,0,30,30,6,1,1,1,,,,,,,,,,,,,,,,,,,,,,,,,,,,,,,,,,,,,,,,,,,,,,,,,,,,,,,,,,,,,,,,,,,,,,,,,,,,,,,,,,,,,,,,,,,,,,,,,,,,,,,,,,,,,
,,,,,,,,,,stimuli/images/PICTURE_33.png,FRIEND,5f20572705b3e931faf561d5,30/04/1949,2020-09-10_15h04.15.844,proactive3.1,2020.1.2,MacIntel,60,5f599a131af4471f3d752b7b,5f5a324d5356a7092324d544,2,,,,,,frame,,,,,,0,31,31,8,1,1,1,,,,,,,,,,,,,,,,,,,,,,,,,,,,,,,,,,,,,,,,,,,,,,,,,,,,,,,,,,,,,,,,,,,,,,,,,,,,,,,,,,,,,,,,,,,,,,,,,,,,,,,,,,,,,
,,,,,,,,,,stimuli/images/PICTURE_108.png,POLICY,5f20572705b3e931faf561d5,30/04/1949,2020-09-10_15h04.15.844,proactive3.1,2020.1.2,MacIntel,60,5f599a131af4471f3d752b7b,5f5a324d5356a7092324d544,2,,,,,,calendar,,,,,,0,32,32,22,1,3,1,,,,,,,,,,,,,,,,,,,,,,,,,,,,,,,,,,,,,,,,,,,,,,,,,,,,,,,,,,,,,,,,,,,,,,,,,,,,,,,,,,,,,,,,,,,,,,,,,,,,,,,,,,,,,
,,,,,,,,,,stimuli/images/PICTURE_296.png,LIFE,5f20572705b3e931faf561d5,30/04/1949,2020-09-10_15h04.15.844,proactive3.1,2020.1.2,MacIntel,60,5f599a131af4471f3d752b7b,5f5a324d5356a7092324d544,2,,,,,,bolt,,,,,,0,33,33,57,1,6,1,,,,,,,,,,,,,,,,,,,,,,,,,,,,,,,,,,,,,,,,,,,,,,,,,,,,,,,,,,,,,,,,,,,,,,,,,,,,,,,,,,,,,,,,,,,,,,,,,,,,,,,,,,,,,
,,,,,,,,,,stimuli/images/PICTURE_42.png,BOYS,5f20572705b3e931faf561d5,30/04/1949,2020-09-10_15h04.15.844,proactive3.1,2020.1.2,MacIntel,60,5f599a131af4471f3d752b7b,5f5a324d5356a7092324d544,2,,,,,,pear,,,,,,0,34,34,55,1,6,1,,,,,,,,,,,,,,,,,,,,,,,,,,,,,,,,,,,,,,,,,,,,,,,,,,,,,,,,,,,,,,,,,,,,,,,,,,,,,,,,,,,,,,,,,,,,,,,,,,,,,,,,,,,,,
,,,,,,,,,,stimuli/images/PICTURE_491.png,GLASS,5f20572705b3e931faf561d5,30/04/1949,2020-09-10_15h04.15.844,proactive3.1,2020.1.2,MacIntel,60,5f599a131af4471f3d752b7b,5f5a324d5356a7092324d544,2,,,,,,rug,,,,,,0,35,35,14,1,2,1,,,,,,,,,,,,,,,,,,,,,,,,,,,,,,,,,,,,,,,,,,,,,,,,,,,,,,,,,,,,,,,,,,,,,,,,,,,,,,,,,,,,,,,,,,,,,,,,,,,,,,,,,,,,,
,,,,,,,,,,stimuli/images/PICTURE_504.png,COPS,5f20572705b3e931faf561d5,30/04/1949,2020-09-10_15h04.15.844,proactive3.1,2020.1.2,MacIntel,60,5f599a131af4471f3d752b7b,5f5a324d5356a7092324d544,2,,,,,,wheel,,,,,,0,36,36,52,1,6,1,,,,,,,,,,,,,,,,,,,,,,,,,,,,,,,,,,,,,,,,,,,,,,,,,,,,,,,,,,,,,,,,,,,,,,,,,,,,,,,,,,,,,,,,,,,,,,,,,,,,,,,,,,,,,
,,,,,,,,,,stimuli/images/PICTURE_383.png,SERIES,5f20572705b3e931faf561d5,30/04/1949,2020-09-10_15h04.15.844,proactive3.1,2020.1.2,MacIntel,60,5f599a131af4471f3d752b7b,5f5a324d5356a7092324d544,2,,,,,,coin,,,,,,0,37,37,46,1,5,1,,,,,,,,,,,,,,,,,,,,,,,,,,,,,,,,,,,,,,,,,,,,,,,,,,,,,,,,,,,,,,,,,,,,,,,,,,,,,,,,,,,,,,,,,,,,,,,,,,,,,,,,,,,,,
,,,,,,,,,,stimuli/images/PICTURE_68.png,MILE,5f20572705b3e931faf561d5,30/04/1949,2020-09-10_15h04.15.844,proactive3.1,2020.1.2,MacIntel,60,5f599a131af4471f3d752b7b,5f5a324d5356a7092324d544,2,,,,,,candle,,,,,,0,38,38,51,1,6,1,,,,,,,,,,,,,,,,,,,,,,,,,,,,,,,,,,,,,,,,,,,,,,,,,,,,,,,,,,,,,,,,,,,,,,,,,,,,,,,,,,,,,,,,,,,,,,,,,,,,,,,,,,,,,
,,,,,,,,,,stimuli/images/PICTURE_95.png,HONEY,5f20572705b3e931faf561d5,30/04/1949,2020-09-10_15h04.15.844,proactive3.1,2020.1.2,MacIntel,60,5f599a131af4471f3d752b7b,5f5a324d5356a7092324d544,2,,,,,,suitcase,,,,,,0,39,39,44,1,5,1,,,,,,,,,,,,,,,,,,,,,,,,,,,,,,,,,,,,,,,,,,,,,,,,,,,,,,,,,,,,,,,,,,,,,,,,,,,,,,,,,,,,,,,,,,,,,,,,,,,,,,,,,,,,,
,,,,,,,,,,stimuli/images/PICTURE_57.png,MOMENT,5f20572705b3e931faf561d5,30/04/1949,2020-09-10_15h04.15.844,proactive3.1,2020.1.2,MacIntel,60,5f599a131af4471f3d752b7b,5f5a324d5356a7092324d544,2,,,,,,stamp,,,,,,0,40,40,37,1,4,1,,,,,,,,,,,,,,,,,,,,,,,,,,,,,,,,,,,,,,,,,,,,,,,,,,,,,,,,,,,,,,,,,,,,,,,,,,,,,,,,,,,,,,,,,,,,,,,,,,,,,,,,,,,,,
,,,,,,,,,,stimuli/images/PICTURE_405.png,PLENTY,5f20572705b3e931faf561d5,30/04/1949,2020-09-10_15h04.15.844,proactive3.1,2020.1.2,MacIntel,60,5f599a131af4471f3d752b7b,5f5a324d5356a7092324d544,2,,,,,,anchor,,,,,,0,41,41,23,1,3,1,,,,,,,,,,,,,,,,,,,,,,,,,,,,,,,,,,,,,,,,,,,,,,,,,,,,,,,,,,,,,,,,,,,,,,,,,,,,,,,,,,,,,,,,,,,,,,,,,,,,,,,,,,,,,
,,,,,,,,,,stimuli/images/PICTURE_564.png,BATH,5f20572705b3e931faf561d5,30/04/1949,2020-09-10_15h04.15.844,proactive3.1,2020.1.2,MacIntel,60,5f599a131af4471f3d752b7b,5f5a324d5356a7092324d544,2,,,,,,spoon,,,,,,0,42,42,26,1,3,1,,,,,,,,,,,,,,,,,,,,,,,,,,,,,,,,,,,,,,,,,,,,,,,,,,,,,,,,,,,,,,,,,,,,,,,,,,,,,,,,,,,,,,,,,,,,,,,,,,,,,,,,,,,,,
,,,,,,,,,,stimuli/images/PICTURE_208.png,SYSTEM,5f20572705b3e931faf561d5,30/04/1949,2020-09-10_15h04.15.844,proactive3.1,2020.1.2,MacIntel,60,5f599a131af4471f3d752b7b,5f5a324d5356a7092324d544,2,,,,,,microphone,,,,,,0,43,43,32,1,4,1,,,,,,,,,,,,,,,,,,,,,,,,,,,,,,,,,,,,,,,,,,,,,,,,,,,,,,,,,,,,,,,,,,,,,,,,,,,,,,,,,,,,,,,,,,,,,,,,,,,,,,,,,,,,,
,,,,,,,,,,stimuli/images/PICTURE_308.png,FAMILY,5f20572705b3e931faf561d5,30/04/1949,2020-09-10_15h04.15.844,proactive3.1,2020.1.2,MacIntel,60,5f599a131af4471f3d752b7b,5f5a324d5356a7092324d544,2,,,,,,dice,,,,,,0,44,44,36,1,4,1,,,,,,,,,,,,,,,,,,,,,,,,,,,,,,,,,,,,,,,,,,,,,,,,,,,,,,,,,,,,,,,,,,,,,,,,,,,,,,,,,,,,,,,,,,,,,,,,,,,,,,,,,,,,,
,,,,,,,,,,stimuli/images/PICTURE_675.png,SALE,5f20572705b3e931faf561d5,30/04/1949,2020-09-10_15h04.15.844,proactive3.1,2020.1.2,MacIntel,60,5f599a131af4471f3d752b7b,5f5a324d5356a7092324d544,2,,,,,,windmill,,,,,,0,45,45,47,1,5,1,,,,,,,,,,,,,,,,,,,,,,,,,,,,,,,,,,,,,,,,,,,,,,,,,,,,,,,,,,,,,,,,,,,,,,,,,,,,,,,,,,,,,,,,,,,,,,,,,,,,,,,,,,,,,
,,,,,,,,,,stimuli/images/PICTURE_487.png,GIRL,5f20572705b3e931faf561d5,30/04/1949,2020-09-10_15h04.15.844,proactive3.1,2020.1.2,MacIntel,60,5f599a131af4471f3d752b7b,5f5a324d5356a7092324d544,2,,,,,,basket,,,,,,0,46,46,45,1,5,1,,,,,,,,,,,,,,,,,,,,,,,,,,,,,,,,,,,,,,,,,,,,,,,,,,,,,,,,,,,,,,,,,,,,,,,,,,,,,,,,,,,,,,,,,,,,,,,,,,,,,,,,,,,,,
,,,,,,,,,,stimuli/images/PICTURE_177.png,WRITER,5f20572705b3e931faf561d5,30/04/1949,2020-09-10_15h04.15.844,proactive3.1,2020.1.2,MacIntel,60,5f599a131af4471f3d752b7b,5f5a324d5356a7092324d544,2,,,,,,mushroom,,,,,,0,47,47,41,1,5,1,,,,,,,,,,,,,,,,,,,,,,,,,,,,,,,,,,,,,,,,,,,,,,,,,,,,,,,,,,,,,,,,,,,,,,,,,,,,,,,,,,,,,,,,,,,,,,,,,,,,,,,,,,,,,
,,,,,,,,,,stimuli/images/PICTURE_449.png,DUDE,5f20572705b3e931faf561d5,30/04/1949,2020-09-10_15h04.15.844,proactive3.1,2020.1.2,MacIntel,60,5f599a131af4471f3d752b7b,5f5a324d5356a7092324d544,2,,,,,,bench,,,,,,0,48,48,17,1,2,1,,,,,,,,,,,,,,,,,,,,,,,,,,,,,,,,,,,,,,,,,,,,,,,,,,,,,,,,,,,,,,,,,,,,,,,,,,,,,,,,,,,,,,,,,,,,,,,,,,,,,,,,,,,,,
,,,,,,,,,,stimuli/images/PICTURE_403.png,TOILET,5f20572705b3e931faf561d5,30/04/1949,2020-09-10_15h04.15.844,proactive3.1,2020.1.2,MacIntel,60,5f599a131af4471f3d752b7b,5f5a324d5356a7092324d544,2,,,,,,cathedral,,,,,,0,49,49,25,1,3,1,,,,,,,,,,,,,,,,,,,,,,,,,,,,,,,,,,,,,,,,,,,,,,,,,,,,,,,,,,,,,,,,,,,,,,,,,,,,,,,,,,,,,,,,,,,,,,,,,,,,,,,,,,,,,
,,,,,,,,,,stimuli/images/PICTURE_677.png,APPLE,5f20572705b3e931faf561d5,30/04/1949,2020-09-10_15h04.15.844,proactive3.1,2020.1.2,MacIntel,60,5f599a131af4471f3d752b7b,5f5a324d5356a7092324d544,2,,,,,,map,,,,,,0,50,50,43,1,5,1,,,,,,,,,,,,,,,,,,,,,,,,,,,,,,,,,,,,,,,,,,,,,,,,,,,,,,,,,,,,,,,,,,,,,,,,,,,,,,,,,,,,,,,,,,,,,,,,,,,,,,,,,,,,,
,,,,,,,,,,stimuli/images/PICTURE_68.png,ROOF,5f20572705b3e931faf561d5,30/04/1949,2020-09-10_15h04.15.844,proactive3.1,2020.1.2,MacIntel,60,5f599a131af4471f3d752b7b,5f5a324d5356a7092324d544,2,,,,,,candle,,,,,,0,51,51,38,1,4,1,,,,,,,,,,,,,,,,,,,,,,,,,,,,,,,,,,,,,,,,,,,,,,,,,,,,,,,,,,,,,,,,,,,,,,,,,,,,,,,,,,,,,,,,,,,,,,,,,,,,,,,,,,,,,
,,,,,,,,,,stimuli/images/PICTURE_297.png,RIVER,5f20572705b3e931faf561d5,30/04/1949,2020-09-10_15h04.15.844,proactive3.1,2020.1.2,MacIntel,60,5f599a131af4471f3d752b7b,5f5a324d5356a7092324d544,2,,,,,,aeroplane,,,,,,0,52,52,39,1,4,1,,,,,,,,,,,,,,,,,,,,,,,,,,,,,,,,,,,,,,,,,,,,,,,,,,,,,,,,,,,,,,,,,,,,,,,,,,,,,,,,,,,,,,,,,,,,,,,,,,,,,,,,,,,,,
,,,,,,,,,,stimuli/images/PICTURE_339.png,CLIENT,5f20572705b3e931faf561d5,30/04/1949,2020-09-10_15h04.15.844,proactive3.1,2020.1.2,MacIntel,60,5f599a131af4471f3d752b7b,5f5a324d5356a7092324d544,2,,,,,,backpack,,,,,,0,53,53,11,1,2,1,,,,,,,,,,,,,,,,,,,,,,,,,,,,,,,,,,,,,,,,,,,,,,,,,,,,,,,,,,,,,,,,,,,,,,,,,,,,,,,,,,,,,,,,,,,,,,,,,,,,,,,,,,,,,
,,,,,,,,,,stimuli/images/PICTURE_667.png,RIVER,5f20572705b3e931faf561d5,30/04/1949,2020-09-10_15h04.15.844,proactive3.1,2020.1.2,MacIntel,60,5f599a131af4471f3d752b7b,5f5a324d5356a7092324d544,2,,,,,,daisy,,,,,,0,54,54,10,1,2,1,,,,,,,,,,,,,,,,,,,,,,,,,,,,,,,,,,,,,,,,,,,,,,,,,,,,,,,,,,,,,,,,,,,,,,,,,,,,,,,,,,,,,,,,,,,,,,,,,,,,,,,,,,,,,
,,,,,,,,,,stimuli/images/PICTURE_504.png,ARTIST,5f20572705b3e931faf561d5,30/04/1949,2020-09-10_15h04.15.844,proactive3.1,2020.1.2,MacIntel,60,5f599a131af4471f3d752b7b,5f5a324d5356a7092324d544,2,,,,,,wheel,,,,,,0,55,55,49,1,5,1,,,,,,,,,,,,,,,,,,,,,,,,,,,,,,,,,,,,,,,,,,,,,,,,,,,,,,,,,,,,,,,,,,,,,,,,,,,,,,,,,,,,,,,,,,,,,,,,,,,,,,,,,,,,,
,,,,,,,,,,stimuli/images/PICTURE_655.png,TOILET,5f20572705b3e931faf561d5,30/04/1949,2020-09-10_15h04.15.844,proactive3.1,2020.1.2,MacIntel,60,5f599a131af4471f3d752b7b,5f5a324d5356a7092324d544,2,,,,,,megaphone,,,,,,0,56,56,12,1,2,1,,,,,,,,,,,,,,,,,,,,,,,,,,,,,,,,,,,,,,,,,,,,,,,,,,,,,,,,,,,,,,,,,,,,,,,,,,,,,,,,,,,,,,,,,,,,,,,,,,,,,,,,,,,,,
,,,,,,,,,,stimuli/images/PICTURE_2.png,FLIGHT,5f20572705b3e931faf561d5,30/04/1949,2020-09-10_15h04.15.844,proactive3.1,2020.1.2,MacIntel,60,5f599a131af4471f3d752b7b,5f5a324d5356a7092324d544,2,,,,,,tyre,,,,,,0,57,57,15,1,2,1,,,,,,,,,,,,,,,,,,,,,,,,,,,,,,,,,,,,,,,,,,,,,,,,,,,,,,,,,,,,,,,,,,,,,,,,,,,,,,,,,,,,,,,,,,,,,,,,,,,,,,,,,,,,,
,,,,,,,,,,stimuli/images/PICTURE_403.png,RIVER,5f20572705b3e931faf561d5,30/04/1949,2020-09-10_15h04.15.844,proactive3.1,2020.1.2,MacIntel,60,5f599a131af4471f3d752b7b,5f5a324d5356a7092324d544,2,,,,,,cathedral,,,,,,0,58,58,40,1,5,1,,,,,,,,,,,,,,,,,,,,,,,,,,,,,,,,,,,,,,,,,,,,,,,,,,,,,,,,,,,,,,,,,,,,,,,,,,,,,,,,,,,,,,,,,,,,,,,,,,,,,,,,,,,,,
,,PILLS,4.783,1,,,,,,stimuli/images/PICTURE_32.png,PILLS,5f20572705b3e931faf561d5,30/04/1949,2020-09-10_15h04.15.844,proactive3.1,2020.1.2,MacIntel,60,5f599a131af4471f3d752b7b,5f5a324d5356a7092324d544,2,,,,,,crown,,,,,,,,,,,2,1,0,0,0,18,1,,,,,,,,,,,,,,,,,,,,,,,,,,,,,,,,,,,,,,,,,,,,,,,,,,,,,,,,,,,,,,,,,,,,,,,,,,,,,,,,,,,,,,,,,,,,,,,,,,,,,,,,
,,?,0.001,0,,,,,,stimuli/images/PICTURE_750.png,HOTEL,5f20572705b3e931faf561d5,30/04/1949,2020-09-10_15h04.15.844,proactive3.1,2020.1.2,MacIntel,60,5f599a131af4471f3d752b7b,5f5a324d5356a7092324d544,2,,,,,,kettle,,,,,,,,,,,3,1,0,1,1,27,1,,,,,,,,,,,,,,,,,,,,,,,,,,,,,,,,,,,,,,,,,,,,,,,,,,,,,,,,,,,,,,,,,,,,,,,,,,,,,,,,,,,,,,,,,,,,,,,,,,,,,,,,
,,?,0,0,,,,,,stimuli/images/PICTURE_744.png,WEAPON,5f20572705b3e931faf561d5,30/04/1949,2020-09-10_15h04.15.844,proactive3.1,2020.1.2,MacIntel,60,5f599a131af4471f3d752b7b,5f5a324d5356a7092324d544,2,,,,,,ring,,,,,,,,,,,6,1,0,2,2,50,1,,,,,,,,,,,,,,,,,,,,,,,,,,,,,,,,,,,,,,,,,,,,,,,,,,,,,,,,,,,,,,,,,,,,,,,,,,,,,,,,,,,,,,,,,,,,,,,,,,,,,,,,
,,?,0.001,0,,,,,,stimuli/images/PICTURE_203.png,NIGHT,5f20572705b3e931faf561d5,30/04/1949,2020-09-10_15h04.15.844,proactive3.1,2020.1.2,MacIntel,60,5f599a131af4471f3d752b7b,5f5a324d5356a7092324d544,2,,,,,,cap,,,,,,,,,,,1,1,0,3,3,2,1,,,,,,,,,,,,,,,,,,,,,,,,,,,,,,,,,,,,,,,,,,,,,,,,,,,,,,,,,,,,,,,,,,,,,,,,,,,,,,,,,,,,,,,,,,,,,,,,,,,,,,,,
,,?,0.001,0,,,,,,stimuli/images/PICTURE_297.png,RIVER,5f20572705b3e931faf561d5,30/04/1949,2020-09-10_15h04.15.844,proactive3.1,2020.1.2,MacIntel,60,5f599a131af4471f3d752b7b,5f5a324d5356a7092324d544,2,,,,,,aeroplane,,,,,,,,,,,4,1,0,4,4,39,1,,,,,,,,,,,,,,,,,,,,,,,,,,,,,,,,,,,,,,,,,,,,,,,,,,,,,,,,,,,,,,,,,,,,,,,,,,,,,,,,,,,,,,,,,,,,,,,,,,,,,,,,
,,?,0,0,,,,,,stimuli/images/PICTURE_380.png,CANDY,5f20572705b3e931faf561d5,30/04/1949,2020-09-10_15h04.15.844,proactive3.1,2020.1.2,MacIntel,60,5f599a131af4471f3d752b7b,5f5a324d5356a7092324d544,2,,,,,,gorilla,,,,,,,,,,,1,1,0,5,5,0,1,,,,,,,,,,,,,,,,,,,,,,,,,,,,,,,,,,,,,,,,,,,,,,,,,,,,,,,,,,,,,,,,,,,,,,,,,,,,,,,,,,,,,,,,,,,,,,,,,,,,,,,,
,,?,0,0,,,,,,stimuli/images/PICTURE_340.png,LETTER,5f20572705b3e931faf561d5,30/04/1949,2020-09-10_15h04.15.844,proactive3.1,2020.1.2,MacIntel,60,5f599a131af4471f3d752b7b,5f5a324d5356a7092324d544,2,,,,,,mirror,,,,,,,,,,,3,1,0,6,6,24,1,,,,,,,,,,,,,,,,,,,,,,,,,,,,,,,,,,,,,,,,,,,,,,,,,,,,,,,,,,,,,,,,,,,,,,,,,,,,,,,,,,,,,,,,,,,,,,,,,,,,,,,,
,,?,0,0,,,,,,stimuli/images/PICTURE_403.png,WRITER,5f20572705b3e931faf561d5,30/04/1949,2020-09-10_15h04.15.844,proactive3.1,2020.1.2,MacIntel,60,5f599a131af4471f3d752b7b,5f5a324d5356a7092324d544,2,,,,,,cathedral,,,,,,,,,,,4,1,0,7,7,31,1,,,,,,,,,,,,,,,,,,,,,,,,,,,,,,,,,,,,,,,,,,,,,,,,,,,,,,,,,,,,,,,,,,,,,,,,,,,,,,,,,,,,,,,,,,,,,,,,,,,,,,,,
,,?,0.001,0,,,,,,stimuli/images/PICTURE_296.png,LIFE,5f20572705b3e931faf561d5,30/04/1949,2020-09-10_15h04.15.844,proactive3.1,2020.1.2,MacIntel,60,5f599a131af4471f3d752b7b,5f5a324d5356a7092324d544,2,,,,,,bolt,,,,,,,,,,,6,1,0,8,8,57,1,,,,,,,,,,,,,,,,,,,,,,,,,,,,,,,,,,,,,,,,,,,,,,,,,,,,,,,,,,,,,,,,,,,,,,,,,,,,,,,,,,,,,,,,,,,,,,,,,,,,,,,,
,,?,0.001,0,,,,,,stimuli/images/PICTURE_491.png,RIVER,5f20572705b3e931faf561d5,30/04/1949,2020-09-10_15h04.15.844,proactive3.1,2020.1.2,MacIntel,60,5f599a131af4471f3d752b7b,5f5a324d5356a7092324d544,2,,,,,,rug,,,,,,,,,,,1,1,0,9,9,6,1,,,,,,,,,,,,,,,,,,,,,,,,,,,,,,,,,,,,,,,,,,,,,,,,,,,,,,,,,,,,,,,,,,,,,,,,,,,,,,,,,,,,,,,,,,,,,,,,,,,,,,,,
,,?,9.265,0,,,,,,stimuli/images/PICTURE_504.png,YEAR,5f20572705b3e931faf561d5,30/04/1949,2020-09-10_15h04.15.844,proactive3.1,2020.1.2,MacIntel,60,5f599a131af4471f3d752b7b,5f5a324d5356a7092324d544,2,,,,,,wheel,,,,,,,,,,,2,1,0,10,10,13,1,,,,,,,,,,,,,,,,,,,,,,,,,,,,,,,,,,,,,,,,,,,,,,,,,,,,,,,,,,,,,,,,,,,,,,,,,,,,,,,,,,,,,,,,,,,,,,,,,,,,,,,,
,,?,0.001,0,,,,,,stimuli/images/PICTURE_108.png,FLIGHT,5f20572705b3e931faf561d5,30/04/1949,2020-09-10_15h04.15.844,proactive3.1,2020.1.2,MacIntel,60,5f599a131af4471f3d752b7b,5f5a324d5356a7092324d544,2,,,,,,calendar,,,,,,,,,,,6,1,0,11,11,59,1,,,,,,,,,,,,,,,,,,,,,,,,,,,,,,,,,,,,,,,,,,,,,,,,,,,,,,,,,,,,,,,,,,,,,,,,,,,,,,,,,,,,,,,,,,,,,,,,,,,,,,,,
,,?,0,0,,,,,,stimuli/images/PICTURE_675.png,SALE,5f20572705b3e931faf561d5,30/04/1949,2020-09-10_15h04.15.844,proactive3.1,2020.1.2,MacIntel,60,5f599a131af4471f3d752b7b,5f5a324d5356a7092324d544,2,,,,,,windmill,,,,,,,,,,,5,1,0,12,12,47,1,,,,,,,,,,,,,,,,,,,,,,,,,,,,,,,,,,,,,,,,,,,,,,,,,,,,,,,,,,,,,,,,,,,,,,,,,,,,,,,,,,,,,,,,,,,,,,,,,,,,,,,,
,,?,0,0,,,,,,stimuli/images/PICTURE_147.png,WOMEN,5f20572705b3e931faf561d5,30/04/1949,2020-09-10_15h04.15.844,proactive3.1,2020.1.2,MacIntel,60,5f599a131af4471f3d752b7b,5f5a324d5356a7092324d544,2,,,,,,hanger,,,,,,,,,,,1,1,0,13,13,7,1,,,,,,,,,,,,,,,,,,,,,,,,,,,,,,,,,,,,,,,,,,,,,,,,,,,,,,,,,,,,,,,,,,,,,,,,,,,,,,,,,,,,,,,,,,,,,,,,,,,,,,,,
,,?,0,0,,,,,,stimuli/images/PICTURE_208.png,SYSTEM,5f20572705b3e931faf561d5,30/04/1949,2020-09-10_15h04.15.844,proactive3.1,2020.1.2,MacIntel,60,5f599a131af4471f3d752b7b,5f5a324d5356a7092324d544,2,,,,,,microphone,,,,,,,,,,,4,1,0,14,14,32,1,,,,,,,,,,,,,,,,,,,,,,,,,,,,,,,,,,,,,,,,,,,,,,,,,,,,,,,,,,,,,,,,,,,,,,,,,,,,,,,,,,,,,,,,,,,,,,,,,,,,,,,,
,,COPS,5.566,0,,,,,,stimuli/images/PICTURE_449.png,DUDE,5f20572705b3e931faf561d5,30/04/1949,2020-09-10_15h04.15.844,proactive3.1,2020.1.2,MacIntel,60,5f599a131af4471f3d752b7b,5f5a324d5356a7092324d544,2,,,,,,bench,,,,,,,,,,,2,1,0,15,15,17,1,,,,,,,,,,,,,,,,,,,,,,,,,,,,,,,,,,,,,,,,,,,,,,,,,,,,,,,,,,,,,,,,,,,,,,,,,,,,,,,,,,,,,,,,,,,,,,,,,,,,,,,,
,,?,0,0,,,,,,stimuli/images/PICTURE_68.png,MILE,5f20572705b3e931faf561d5,30/04/1949,2020-09-10_15h04.15.844,proactive3.1,2020.1.2,MacIntel,60,5f599a131af4471f3d752b7b,5f5a324d5356a7092324d544,2,,,,,,candle,,,,,,,,,,,6,1,0,16,16,51,1,,,,,,,,,,,,,,,,,,,,,,,,,,,,,,,,,,,,,,,,,,,,,,,,,,,,,,,,,,,,,,,,,,,,,,,,,,,,,,,,,,,,,,,,,,,,,,,,,,,,,,,,
,,?,0,0,,,,,,stimuli/images/PICTURE_487.png,GIRL,5f20572705b3e931faf561d5,30/04/1949,2020-09-10_15h04.15.844,proactive3.1,2020.1.2,MacIntel,60,5f599a131af4471f3d752b7b,5f5a324d5356a7092324d544,2,,,,,,basket,,,,,,,,,,,5,1,0,17,17,45,1,,,,,,,,,,,,,,,,,,,,,,,,,,,,,,,,,,,,,,,,,,,,,,,,,,,,,,,,,,,,,,,,,,,,,,,,,,,,,,,,,,,,,,,,,,,,,,,,,,,,,,,,
,,?,0,0,,,,,,stimuli/images/PICTURE_95.png,BOYS,5f20572705b3e931faf561d5,30/04/1949,2020-09-10_15h04.15.844,proactive3.1,2020.1.2,MacIntel,60,5f599a131af4471f3d752b7b,5f5a324d5356a7092324d544,2,,,,,,suitcase,,,,,,,,,,,1,1,0,18,18,1,1,,,,,,,,,,,,,,,,,,,,,,,,,,,,,,,,,,,,,,,,,,,,,,,,,,,,,,,,,,,,,,,,,,,,,,,,,,,,,,,,,,,,,,,,,,,,,,,,,,,,,,,,
,,CHEER,3.232,0,,,,,,stimuli/images/PICTURE_339.png,CLIENT,5f20572705b3e931faf561d5,30/04/1949,2020-09-10_15h04.15.844,proactive3.1,2020.1.2,MacIntel,60,5f599a131af4471f3d752b7b,5f5a324d5356a7092324d544,2,,,,,,backpack,,,,,,,,,,,2,1,0,19,19,11,1,,,,,,,,,,,,,,,,,,,,,,,,,,,,,,,,,,,,,,,,,,,,,,,,,,,,,,,,,,,,,,,,,,,,,,,,,,,,,,,,,,,,,,,,,,,,,,,,,,,,,,,,
,,?,0.001,0,,,,,,stimuli/images/PICTURE_383.png,SERIES,5f20572705b3e931faf561d5,30/04/1949,2020-09-10_15h04.15.844,proactive3.1,2020.1.2,MacIntel,60,5f599a131af4471f3d752b7b,5f5a324d5356a7092324d544,2,,,,,,coin,,,,,,,,,,,5,1,0,20,20,46,1,,,,,,,,,,,,,,,,,,,,,,,,,,,,,,,,,,,,,,,,,,,,,,,,,,,,,,,,,,,,,,,,,,,,,,,,,,,,,,,,,,,,,,,,,,,,,,,,,,,,,,,,
,,?,0,0,,,,,,stimuli/images/PICTURE_68.png,ROOF,5f20572705b3e931faf561d5,30/04/1949,2020-09-10_15h04.15.844,proactive3.1,2020.1.2,MacIntel,60,5f599a131af4471f3d752b7b,5f5a324d5356a7092324d544,2,,,,,,candle,,,,,,,,,,,4,1,0,21,21,38,1,,,,,,,,,,,,,,,,,,,,,,,,,,,,,,,,,,,,,,,,,,,,,,,,,,,,,,,,,,,,,,,,,,,,,,,,,,,,,,,,,,,,,,,,,,,,,,,,,,,,,,,,
,,HONEY,5.183,1,,,,,,stimuli/images/PICTURE_380.png,HONEY,5f20572705b3e931faf561d5,30/04/1949,2020-09-10_15h04.15.844,proactive3.1,2020.1.2,MacIntel,60,5f599a131af4471f3d752b7b,5f5a324d5356a7092324d544,2,,,,,,gorilla,,,,,,,,,,,2,1,0,22,22,19,1,,,,,,,,,,,,,,,,,,,,,,,,,,,,,,,,,,,,,,,,,,,,,,,,,,,,,,,,,,,,,,,,,,,,,,,,,,,,,,,,,,,,,,,,,,,,,,,,,,,,,,,,
,,?,0,0,,,,,,stimuli/images/PICTURE_654.png,MONTH,5f20572705b3e931faf561d5,30/04/1949,2020-09-10_15h04.15.844,proactive3.1,2020.1.2,MacIntel,60,5f599a131af4471f3d752b7b,5f5a324d5356a7092324d544,2,,,,,,pencil,,,,,,,,,,,3,1,0,23,23,29,1,,,,,,,,,,,,,,,,,,,,,,,,,,,,,,,,,,,,,,,,,,,,,,,,,,,,,,,,,,,,,,,,,,,,,,,,,,,,,,,,,,,,,,,,,,,,,,,,,,,,,,,,
,,?,0.001,0,,,,,,stimuli/images/PICTURE_405.png,YEAR,5f20572705b3e931faf561d5,30/04/1949,2020-09-10_15h04.15.844,proactive3.1,2020.1.2,MacIntel,60,5f599a131af4471f3d752b7b,5f5a324d5356a7092324d544,2,,,,,,anchor,,,,,,,,,,,4,1,0,24,24,34,1,,,,,,,,,,,,,,,,,,,,,,,,,,,,,,,,,,,,,,,,,,,,,,,,,,,,,,,,,,,,,,,,,,,,,,,,,,,,,,,,,,,,,,,,,,,,,,,,,,,,,,,,
,,?,0.001,0,,,,,,stimuli/images/PICTURE_340.png,VALLEY,5f20572705b3e931faf561d5,30/04/1949,2020-09-10_15h04.15.844,proactive3.1,2020.1.2,MacIntel,60,5f599a131af4471f3d752b7b,5f5a324d5356a7092324d544,2,,,,,,mirror,,,,,,,,,,,6,1,0,25,25,54,1,,,,,,,,,,,,,,,,,,,,,,,,,,,,,,,,,,,,,,,,,,,,,,,,,,,,,,,,,,,,,,,,,,,,,,,,,,,,,,,,,,,,,,,,,,,,,,,,,,,,,,,,
,,?,0.001,0,,,,,,stimuli/images/PICTURE_95.png,MILLER,5f20572705b3e931faf561d5,30/04/1949,2020-09-10_15h04.15.844,proactive3.1,2020.1.2,MacIntel,60,5f599a131af4471f3d752b7b,5f5a324d5356a7092324d544,2,,,,,,suitcase,,,,,,,,,,,6,1,0,26,26,56,1,,,,,,,,,,,,,,,,,,,,,,,,,,,,,,,,,,,,,,,,,,,,,,,,,,,,,,,,,,,,,,,,,,,,,,,,,,,,,,,,,,,,,,,,,,,,,,,,,,,,,,,,
,,?,0.001,0,,,,,,stimuli/images/PICTURE_405.png,PLENTY,5f20572705b3e931faf561d5,30/04/1949,2020-09-10_15h04.15.844,proactive3.1,2020.1.2,MacIntel,60,5f599a131af4471f3d752b7b,5f5a324d5356a7092324d544,2,,,,,,anchor,,,,,,,,,,,3,1,0,27,27,23,1,,,,,,,,,,,,,,,,,,,,,,,,,,,,,,,,,,,,,,,,,,,,,,,,,,,,,,,,,,,,,,,,,,,,,,,,,,,,,,,,,,,,,,,,,,,,,,,,,,,,,,,,
,,?,0,0,,,,,,stimuli/images/PICTURE_504.png,COPS,5f20572705b3e931faf561d5,30/04/1949,2020-09-10_15h04.15.844,proactive3.1,2020.1.2,MacIntel,60,5f599a131af4471f3d752b7b,5f5a324d5356a7092324d544,2,,,,,,wheel,,,,,,,,,,,6,1,0,28,28,52,1,,,,,,,,,,,,,,,,,,,,,,,,,,,,,,,,,,,,,,,,,,,,,,,,,,,,,,,,,,,,,,,,,,,,,,,,,,,,,,,,,,,,,,,,,,,,,,,,,,,,,,,,
,,?,0,0,,,,,,stimuli/images/PICTURE_308.png,FAMILY,5f20572705b3e931faf561d5,30/04/1949,2020-09-10_15h04.15.844,proactive3.1,2020.1.2,MacIntel,60,5f599a131af4471f3d752b7b,5f5a324d5356a7092324d544,2,,,,,,dice,,,,,,,,,,,4,1,0,29,29,36,1,,,,,,,,,,,,,,,,,,,,,,,,,,,,,,,,,,,,,,,,,,,,,,,,,,,,,,,,,,,,,,,,,,,,,,,,,,,,,,,,,,,,,,,,,,,,,,,,,,,,,,,,
,,?,0.001,0,,,,,,stimuli/images/PICTURE_383.png,WRITER,5f20572705b3e931faf561d5,30/04/1949,2020-09-10_15h04.15.844,proactive3.1,2020.1.2,MacIntel,60,5f599a131af4471f3d752b7b,5f5a324d5356a7092324d544,2,,,,,,coin,,,,,,,,,,,3,1,0,30,30,28,1,,,,,,,,,,,,,,,,,,,,,,,,,,,,,,,,,,,,,,,,,,,,,,,,,,,,,,,,,,,,,,,,,,,,,,,,,,,,,,,,,,,,,,,,,,,,,,,,,,,,,,,,
,,?,0.001,0,,,,,,stimuli/images/PICTURE_403.png,RIVER,5f20572705b3e931faf561d5,30/04/1949,2020-09-10_15h04.15.844,proactive3.1,2020.1.2,MacIntel,60,5f599a131af4471f3d752b7b,5f5a324d5356a7092324d544,2,,,,,,cathedral,,,,,,,,,,,5,1,0,31,31,40,1,,,,,,,,,,,,,,,,,,,,,,,,,,,,,,,,,,,,,,,,,,,,,,,,,,,,,,,,,,,,,,,,,,,,,,,,,,,,,,,,,,,,,,,,,,,,,,,,,,,,,,,,
,,?,0,0,,,,,,stimuli/images/PICTURE_677.png,APPLE,5f20572705b3e931faf561d5,30/04/1949,2020-09-10_15h04.15.844,proactive3.1,2020.1.2,MacIntel,60,5f599a131af4471f3d752b7b,5f5a324d5356a7092324d544,2,,,,,,map,,,,,,,,,,,5,1,0,32,32,43,1,,,,,,,,,,,,,,,,,,,,,,,,,,,,,,,,,,,,,,,,,,,,,,,,,,,,,,,,,,,,,,,,,,,,,,,,,,,,,,,,,,,,,,,,,,,,,,,,,,,,,,,,
,,?,0,0,,,,,,stimuli/images/PICTURE_108.png,POLICY,5f20572705b3e931faf561d5,30/04/1949,2020-09-10_15h04.15.844,proactive3.1,2020.1.2,MacIntel,60,5f599a131af4471f3d752b7b,5f5a324d5356a7092324d544,2,,,,,,calendar,,,,,,,,,,,3,1,0,33,33,22,1,,,,,,,,,,,,,,,,,,,,,,,,,,,,,,,,,,,,,,,,,,,,,,,,,,,,,,,,,,,,,,,,,,,,,,,,,,,,,,,,,,,,,,,,,,,,,,,,,,,,,,,,
,,?,0,0,,,,,,stimuli/images/PICTURE_57.png,MOMENT,5f20572705b3e931faf561d5,30/04/1949,2020-09-10_15h04.15.844,proactive3.1,2020.1.2,MacIntel,60,5f599a131af4471f3d752b7b,5f5a324d5356a7092324d544,2,,,,,,stamp,,,,,,,,,,,4,1,0,34,34,37,1,,,,,,,,,,,,,,,,,,,,,,,,,,,,,,,,,,,,,,,,,,,,,,,,,,,,,,,,,,,,,,,,,,,,,,,,,,,,,,,,,,,,,,,,,,,,,,,,,,,,,,,,
,,FLIGHT,3.826,1,,,,,,stimuli/images/PICTURE_2.png,FLIGHT,5f20572705b3e931faf561d5,30/04/1949,2020-09-10_15h04.15.844,proactive3.1,2020.1.2,MacIntel,60,5f599a131af4471f3d752b7b,5f5a324d5356a7092324d544,2,,,,,,tyre,,,,,,,,,,,2,1,0,35,35,15,1,,,,,,,,,,,,,,,,,,,,,,,,,,,,,,,,,,,,,,,,,,,,,,,,,,,,,,,,,,,,,,,,,,,,,,,,,,,,,,,,,,,,,,,,,,,,,,,,,,,,,,,,
,,?,0,0,,,,,,stimuli/images/PICTURE_327.png,SERIES,5f20572705b3e931faf561d5,30/04/1949,2020-09-10_15h04.15.844,proactive3.1,2020.1.2,MacIntel,60,5f599a131af4471f3d752b7b,5f5a324d5356a7092324d544,2,,,,,,helmet,,,,,,,,,,,1,1,0,36,36,3,1,,,,,,,,,,,,,,,,,,,,,,,,,,,,,,,,,,,,,,,,,,,,,,,,,,,,,,,,,,,,,,,,,,,,,,,,,,,,,,,,,,,,,,,,,,,,,,,,,,,,,,,,
,,?,0.001,0,,,,,,stimuli/images/PICTURE_177.png,WRITER,5f20572705b3e931faf561d5,30/04/1949,2020-09-10_15h04.15.844,proactive3.1,2020.1.2,MacIntel,60,5f599a131af4471f3d752b7b,5f5a324d5356a7092324d544,2,,,,,,mushroom,,,,,,,,,,,5,1,0,37,37,41,1,,,,,,,,,,,,,,,,,,,,,,,,,,,,,,,,,,,,,,,,,,,,,,,,,,,,,,,,,,,,,,,,,,,,,,,,,,,,,,,,,,,,,,,,,,,,,,,,,,,,,,,,
,,?,0.001,0,,,,,,stimuli/images/PICTURE_467.png,POLICY,5f20572705b3e931faf561d5,30/04/1949,2020-09-10_15h04.15.844,proactive3.1,2020.1.2,MacIntel,60,5f599a131af4471f3d752b7b,5f5a324d5356a7092324d544,2,,,,,,peg,,,,,,,,,,,6,1,0,38,38,53,1,,,,,,,,,,,,,,,,,,,,,,,,,,,,,,,,,,,,,,,,,,,,,,,,,,,,,,,,,,,,,,,,,,,,,,,,,,,,,,,,,,,,,,,,,,,,,,,,,,,,,,,,
,,?,0.001,0,,,,,,stimuli/images/PICTURE_327.png,CASINO,5f20572705b3e931faf561d5,30/04/1949,2020-09-10_15h04.15.844,proactive3.1,2020.1.2,MacIntel,60,5f599a131af4471f3d752b7b,5f5a324d5356a7092324d544,2,,,,,,helmet,,,,,,,,,,,3,1,0,39,39,20,1,,,,,,,,,,,,,,,,,,,,,,,,,,,,,,,,,,,,,,,,,,,,,,,,,,,,,,,,,,,,,,,,,,,,,,,,,,,,,,,,,,,,,,,,,,,,,,,,,,,,,,,,
,,?,6.983,0,,,,,,stimuli/images/PICTURE_491.png,GLASS,5f20572705b3e931faf561d5,30/04/1949,2020-09-10_15h04.15.844,proactive3.1,2020.1.2,MacIntel,60,5f599a131af4471f3d752b7b,5f5a324d5356a7092324d544,2,,,,,,rug,,,,,,,,,,,2,1,0,40,40,14,1,,,,,,,,,,,,,,,,,,,,,,,,,,,,,,,,,,,,,,,,,,,,,,,,,,,,,,,,,,,,,,,,,,,,,,,,,,,,,,,,,,,,,,,,,,,,,,,,,,,,,,,,
,,?,0.001,0,,,,,,stimuli/images/PICTURE_203.png,GODS,5f20572705b3e931faf561d5,30/04/1949,2020-09-10_15h04.15.844,proactive3.1,2020.1.2,MacIntel,60,5f599a131af4471f3d752b7b,5f5a324d5356a7092324d544,2,,,,,,cap,,,,,,,,,,,4,1,0,41,41,30,1,,,,,,,,,,,,,,,,,,,,,,,,,,,,,,,,,,,,,,,,,,,,,,,,,,,,,,,,,,,,,,,,,,,,,,,,,,,,,,,,,,,,,,,,,,,,,,,,,,,,,,,,
,,?,0.001,0,,,,,,stimuli/images/PICTURE_564.png,BATH,5f20572705b3e931faf561d5,30/04/1949,2020-09-10_15h04.15.844,proactive3.1,2020.1.2,MacIntel,60,5f599a131af4471f3d752b7b,5f5a324d5356a7092324d544,2,,,,,,spoon,,,,,,,,,,,3,1,0,42,42,26,1,,,,,,,,,,,,,,,,,,,,,,,,,,,,,,,,,,,,,,,,,,,,,,,,,,,,,,,,,,,,,,,,,,,,,,,,,,,,,,,,,,,,,,,,,,,,,,,,,,,,,,,,
,,?,0,0,,,,,,stimuli/images/PICTURE_85.png,TOILET,5f20572705b3e931faf561d5,30/04/1949,2020-09-10_15h04.15.844,proactive3.1,2020.1.2,MacIntel,60,5f599a131af4471f3d752b7b,5f5a324d5356a7092324d544,2,,,,,,diamond,,,,,,,,,,,5,1,0,43,43,48,1,,,,,,,,,,,,,,,,,,,,,,,,,,,,,,,,,,,,,,,,,,,,,,,,,,,,,,,,,,,,,,,,,,,,,,,,,,,,,,,,,,,,,,,,,,,,,,,,,,,,,,,,
,,?,0,0,,,,,,stimuli/images/PICTURE_296.png,LOTS,5f20572705b3e931faf561d5,30/04/1949,2020-09-10_15h04.15.844,proactive3.1,2020.1.2,MacIntel,60,5f599a131af4471f3d752b7b,5f5a324d5356a7092324d544,2,,,,,,bolt,,,,,,,,,,,1,1,0,44,44,9,1,,,,,,,,,,,,,,,,,,,,,,,,,,,,,,,,,,,,,,,,,,,,,,,,,,,,,,,,,,,,,,,,,,,,,,,,,,,,,,,,,,,,,,,,,,,,,,,,,,,,,,,,
,,?,0.001,0,,,,,,stimuli/images/PICTURE_147.png,YEAR,5f20572705b3e931faf561d5,30/04/1949,2020-09-10_15h04.15.844,proactive3.1,2020.1.2,MacIntel,60,5f599a131af4471f3d752b7b,5f5a324d5356a7092324d544,2,,,,,,hanger,,,,,,,,,,,3,1,0,45,45,21,1,,,,,,,,,,,,,,,,,,,,,,,,,,,,,,,,,,,,,,,,,,,,,,,,,,,,,,,,,,,,,,,,,,,,,,,,,,,,,,,,,,,,,,,,,,,,,,,,,,,,,,,,
,,?,0.001,0,,,,,,stimuli/images/PICTURE_233.png,LOTS,5f20572705b3e931faf561d5,30/04/1949,2020-09-10_15h04.15.844,proactive3.1,2020.1.2,MacIntel,60,5f599a131af4471f3d752b7b,5f5a324d5356a7092324d544,2,,,,,,salt,,,,,,,,,,,5,1,0,46,46,42,1,,,,,,,,,,,,,,,,,,,,,,,,,,,,,,,,,,,,,,,,,,,,,,,,,,,,,,,,,,,,,,,,,,,,,,,,,,,,,,,,,,,,,,,,,,,,,,,,,,,,,,,,
,,?,0.001,0,,,,,,stimuli/images/PICTURE_708.png,RECORD,5f20572705b3e931faf561d5,30/04/1949,2020-09-10_15h04.15.844,proactive3.1,2020.1.2,MacIntel,60,5f599a131af4471f3d752b7b,5f5a324d5356a7092324d544,2,,,,,,monkey,,,,,,,,,,,6,1,0,47,47,58,1,,,,,,,,,,,,,,,,,,,,,,,,,,,,,,,,,,,,,,,,,,,,,,,,,,,,,,,,,,,,,,,,,,,,,,,,,,,,,,,,,,,,,,,,,,,,,,,,,,,,,,,,
,,?,0.001,0,,,,,,stimuli/images/PICTURE_42.png,BOYS,5f20572705b3e931faf561d5,30/04/1949,2020-09-10_15h04.15.844,proactive3.1,2020.1.2,MacIntel,60,5f599a131af4471f3d752b7b,5f5a324d5356a7092324d544,2,,,,,,pear,,,,,,,,,,,6,1,0,48,48,55,1,,,,,,,,,,,,,,,,,,,,,,,,,,,,,,,,,,,,,,,,,,,,,,,,,,,,,,,,,,,,,,,,,,,,,,,,,,,,,,,,,,,,,,,,,,,,,,,,,,,,,,,,
,,?,2.293,0,,,,,,stimuli/images/PICTURE_655.png,TOILET,5f20572705b3e931faf561d5,30/04/1949,2020-09-10_15h04.15.844,proactive3.1,2020.1.2,MacIntel,60,5f599a131af4471f3d752b7b,5f5a324d5356a7092324d544,2,,,,,,megaphone,,,,,,,,,,,2,1,0,49,49,12,1,,,,,,,,,,,,,,,,,,,,,,,,,,,,,,,,,,,,,,,,,,,,,,,,,,,,,,,,,,,,,,,,,,,,,,,,,,,,,,,,,,,,,,,,,,,,,,,,,,,,,,,,
,,?,0.001,0,,,,,,stimuli/images/PICTURE_33.png,FRIEND,5f20572705b3e931faf561d5,30/04/1949,2020-09-10_15h04.15.844,proactive3.1,2020.1.2,MacIntel,60,5f599a131af4471f3d752b7b,5f5a324d5356a7092324d544,2,,,,,,frame,,,,,,,,,,,1,1,0,50,50,8,1,,,,,,,,,,,,,,,,,,,,,,,,,,,,,,,,,,,,,,,,,,,,,,,,,,,,,,,,,,,,,,,,,,,,,,,,,,,,,,,,,,,,,,,,,,,,,,,,,,,,,,,,
,,?,0.001,0,,,,,,stimuli/images/PICTURE_95.png,HONEY,5f20572705b3e931faf561d5,30/04/1949,2020-09-10_15h04.15.844,proactive3.1,2020.1.2,MacIntel,60,5f599a131af4471f3d752b7b,5f5a324d5356a7092324d544,2,,,,,,suitcase,,,,,,,,,,,5,1,0,51,51,44,1,,,,,,,,,,,,,,,,,,,,,,,,,,,,,,,,,,,,,,,,,,,,,,,,,,,,,,,,,,,,,,,,,,,,,,,,,,,,,,,,,,,,,,,,,,,,,,,,,,,,,,,,
,,AGENT,7.452,1,,,,,,stimuli/images/PICTURE_469.png,AGENT,5f20572705b3e931faf561d5,30/04/1949,2020-09-10_15h04.15.844,proactive3.1,2020.1.2,MacIntel,60,5f599a131af4471f3d752b7b,5f5a324d5356a7092324d544,2,,,,,,stool,,,,,,,,,,,2,1,0,52,52,16,1,,,,,,,,,,,,,,,,,,,,,,,,,,,,,,,,,,,,,,,,,,,,,,,,,,,,,,,,,,,,,,,,,,,,,,,,,,,,,,,,,,,,,,,,,,,,,,,,,,,,,,,,
,,?,0.001,0,,,,,,stimuli/images/PICTURE_504.png,ARTIST,5f20572705b3e931faf561d5,30/04/1949,2020-09-10_15h04.15.844,proactive3.1,2020.1.2,MacIntel,60,5f599a131af4471f3d752b7b,5f5a324d5356a7092324d544,2,,,,,,wheel,,,,,,,,,,,5,1,0,53,53,49,1,,,,,,,,,,,,,,,,,,,,,,,,,,,,,,,,,,,,,,,,,,,,,,,,,,,,,,,,,,,,,,,,,,,,,,,,,,,,,,,,,,,,,,,,,,,,,,,,,,,,,,,,
,,?,0.001,0,,,,,,stimuli/images/PICTURE_685.png,PENNY,5f20572705b3e931faf561d5,30/04/1949,2020-09-10_15h04.15.844,proactive3.1,2020.1.2,MacIntel,60,5f599a131af4471f3d752b7b,5f5a324d5356a7092324d544,2,,,,,,goose,,,,,,,,,,,1,1,0,54,54,4,1,,,,,,,,,,,,,,,,,,,,,,,,,,,,,,,,,,,,,,,,,,,,,,,,,,,,,,,,,,,,,,,,,,,,,,,,,,,,,,,,,,,,,,,,,,,,,,,,,,,,,,,,
,,?,0,0,,,,,,stimuli/images/PICTURE_403.png,TOILET,5f20572705b3e931faf561d5,30/04/1949,2020-09-10_15h04.15.844,proactive3.1,2020.1.2,MacIntel,60,5f599a131af4471f3d752b7b,5f5a324d5356a7092324d544,2,,,,,,cathedral,,,,,,,,,,,3,1,0,55,55,25,1,,,,,,,,,,,,,,,,,,,,,,,,,,,,,,,,,,,,,,,,,,,,,,,,,,,,,,,,,,,,,,,,,,,,,,,,,,,,,,,,,,,,,,,,,,,,,,,,,,,,,,,,
,,?,0.001,0,,,,,,stimuli/images/PICTURE_85.png,NATION,5f20572705b3e931faf561d5,30/04/1949,2020-09-10_15h04.15.844,proactive3.1,2020.1.2,MacIntel,60,5f599a131af4471f3d752b7b,5f5a324d5356a7092324d544,2,,,,,,diamond,,,,,,,,,,,1,1,0,56,56,5,1,,,,,,,,,,,,,,,,,,,,,,,,,,,,,,,,,,,,,,,,,,,,,,,,,,,,,,,,,,,,,,,,,,,,,,,,,,,,,,,,,,,,,,,,,,,,,,,,,,,,,,,,
,,?,5.065,0,,,,,,stimuli/images/PICTURE_667.png,RIVER,5f20572705b3e931faf561d5,30/04/1949,2020-09-10_15h04.15.844,proactive3.1,2020.1.2,MacIntel,60,5f599a131af4471f3d752b7b,5f5a324d5356a7092324d544,2,,,,,,daisy,,,,,,,,,,,2,1,0,57,57,10,1,,,,,,,,,,,,,,,,,,,,,,,,,,,,,,,,,,,,,,,,,,,,,,,,,,,,,,,,,,,,,,,,,,,,,,,,,,,,,,,,,,,,,,,,,,,,,,,,,,,,,,,,
,,?,0.001,0,,,,,,stimuli/images/PICTURE_32.png,KIND,5f20572705b3e931faf561d5,30/04/1949,2020-09-10_15h04.15.844,proactive3.1,2020.1.2,MacIntel,60,5f599a131af4471f3d752b7b,5f5a324d5356a7092324d544,2,,,,,,crown,,,,,,,,,,,4,1,0,58,58,35,1,,,,,,,,,,,,,,,,,,,,,,,,,,,,,,,,,,,,,,,,,,,,,,,,,,,,,,,,,,,,,,,,,,,,,,,,,,,,,,,,,,,,,,,,,,,,,,,,,,,,,,,,
,,?,0,0,,,,,,stimuli/images/PICTURE_285.png,LIFE,5f20572705b3e931faf561d5,30/04/1949,2020-09-10_15h04.15.844,proactive3.1,2020.1.2,MacIntel,60,5f599a131af4471f3d752b7b,5f5a324d5356a7092324d544,2,,,,,,carrot,,,,,,,,,,,4,1,0,59,59,33,1,,,,,,,,,,,,,,,,,,,,,,,,,,,,,,,,,,,,,,,,,,,,,,,,,,,,,,,,,,,,,,,,,,,,,,,,,,,,,,,,,,,,,,,,,,,,,,,,,,,,,,,,
,,,,,,,,,,,,5f20572705b3e931faf561d5,30/04/1949,2020-09-10_15h04.15.844,proactive3.1,2020.1.2,MacIntel,60,5f599a131af4471f3d752b7b,5f5a324d5356a7092324d544,2,,,,,,,,,,,,,,,,,,,,,,,,0,1,1,1,1,stimuli/learn-block2.csv,,,,,,,,,,,,,,,,,,,,,,,,,,,,,,,,,,,,,,,,,,,,,,,,,,,,,,,,,,,,,,,,,,,,,,,,,,,,,,,,,,,,,,,,,,,,,,,,,,
,,,,,,,,,,stimuli/images/PICTURE_692.png,MONTH,5f20572705b3e931faf561d5,30/04/1949,2020-09-10_15h04.15.844,proactive3.1,2020.1.2,MacIntel,60,5f599a131af4471f3d752b7b,5f5a324d5356a7092324d544,2,,,,,,cherry,,,,,,0,0,0,16,1,2,0,,,,,,,,,,,,,,,,,,,,,,,,,,,,,,,,,,,,,,,,,,,,,,,,,,,,,,,,,,,,,,,,,,,,,,,,,,,,,,,,,,,,,,,,,,,,,,,,,,,,,,,,,,,,,
,,,,,,,,,,stimuli/images/PICTURE_177.png,CARS,5f20572705b3e931faf561d5,30/04/1949,2020-09-10_15h04.15.844,proactive3.1,2020.1.2,MacIntel,60,5f599a131af4471f3d752b7b,5f5a324d5356a7092324d544,2,,,,,,mushroom,,,,,,0,1,1,35,1,4,0,,,,,,,,,,,,,,,,,,,,,,,,,,,,,,,,,,,,,,,,,,,,,,,,,,,,,,,,,,,,,,,,,,,,,,,,,,,,,,,,,,,,,,,,,,,,,,,,,,,,,,,,,,,,,
,,,,,,,,,,stimuli/images/PICTURE_708.png,CLIENT,5f20572705b3e931faf561d5,30/04/1949,2020-09-10_15h04.15.844,proactive3.1,2020.1.2,MacIntel,60,5f599a131af4471f3d752b7b,5f5a324d5356a7092324d544,2,,,,,,monkey,,,,,,0,2,2,5,1,1,0,,,,,,,,,,,,,,,,,,,,,,,,,,,,,,,,,,,,,,,,,,,,,,,,,,,,,,,,,,,,,,,,,,,,,,,,,,,,,,,,,,,,,,,,,,,,,,,,,,,,,,,,,,,,,
,,,,,,,,,,stimuli/images/PICTURE_147.png,MOMENT,5f20572705b3e931faf561d5,30/04/1949,2020-09-10_15h04.15.844,proactive3.1,2020.1.2,MacIntel,60,5f599a131af4471f3d752b7b,5f5a324d5356a7092324d544,2,,,,,,hanger,,,,,,0,3,3,51,1,6,0,,,,,,,,,,,,,,,,,,,,,,,,,,,,,,,,,,,,,,,,,,,,,,,,,,,,,,,,,,,,,,,,,,,,,,,,,,,,,,,,,,,,,,,,,,,,,,,,,,,,,,,,,,,,,
,,,,,,,,,,stimuli/images/PICTURE_509.png,PHOTO,5f20572705b3e931faf561d5,30/04/1949,2020-09-10_15h04.15.844,proactive3.1,2020.1.2,MacIntel,60,5f599a131af4471f3d752b7b,5f5a324d5356a7092324d544,2,,,,,,telephone,,,,,,0,4,4,21,1,3,0,,,,,,,,,,,,,,,,,,,,,,,,,,,,,,,,,,,,,,,,,,,,,,,,,,,,,,,,,,,,,,,,,,,,,,,,,,,,,,,,,,,,,,,,,,,,,,,,,,,,,,,,,,,,,
,,,,,,,,,,stimuli/images/PICTURE_675.png,WEAPON,5f20572705b3e931faf561d5,30/04/1949,2020-09-10_15h04.15.844,proactive3.1,2020.1.2,MacIntel,60,5f599a131af4471f3d752b7b,5f5a324d5356a7092324d544,2,,,,,,windmill,,,,,,0,5,5,32,1,4,0,,,,,,,,,,,,,,,,,,,,,,,,,,,,,,,,,,,,,,,,,,,,,,,,,,,,,,,,,,,,,,,,,,,,,,,,,,,,,,,,,,,,,,,,,,,,,,,,,,,,,,,,,,,,,
,,,,,,,,,,stimuli/images/PICTURE_314.png,GODS,5f20572705b3e931faf561d5,30/04/1949,2020-09-10_15h04.15.844,proactive3.1,2020.1.2,MacIntel,60,5f599a131af4471f3d752b7b,5f5a324d5356a7092324d544,2,,,,,,perfume,,,,,,0,6,6,11,1,2,0,,,,,,,,,,,,,,,,,,,,,,,,,,,,,,,,,,,,,,,,,,,,,,,,,,,,,,,,,,,,,,,,,,,,,,,,,,,,,,,,,,,,,,,,,,,,,,,,,,,,,,,,,,,,,
,,,,,,,,,,stimuli/images/PICTURE_215.png,PLENTY,5f20572705b3e931faf561d5,30/04/1949,2020-09-10_15h04.15.844,proactive3.1,2020.1.2,MacIntel,60,5f599a131af4471f3d752b7b,5f5a324d5356a7092324d544,2,,,,,,boot,,,,,,0,7,7,37,1,4,0,,,,,,,,,,,,,,,,,,,,,,,,,,,,,,,,,,,,,,,,,,,,,,,,,,,,,,,,,,,,,,,,,,,,,,,,,,,,,,,,,,,,,,,,,,,,,,,,,,,,,,,,,,,,,
,,,,,,,,,,stimuli/images/PICTURE_208.png,MONTH,5f20572705b3e931faf561d5,30/04/1949,2020-09-10_15h04.15.844,proactive3.1,2020.1.2,MacIntel,60,5f599a131af4471f3d752b7b,5f5a324d5356a7092324d544,2,,,,,,microphone,,,,,,0,8,8,53,1,6,0,,,,,,,,,,,,,,,,,,,,,,,,,,,,,,,,,,,,,,,,,,,,,,,,,,,,,,,,,,,,,,,,,,,,,,,,,,,,,,,,,,,,,,,,,,,,,,,,,,,,,,,,,,,,,
,,,,,,,,,,stimuli/images/PICTURE_667.png,PLENTY,5f20572705b3e931faf561d5,30/04/1949,2020-09-10_15h04.15.844,proactive3.1,2020.1.2,MacIntel,60,5f599a131af4471f3d752b7b,5f5a324d5356a7092324d544,2,,,,,,daisy,,,,,,0,9,9,41,1,5,0,,,,,,,,,,,,,,,,,,,,,,,,,,,,,,,,,,,,,,,,,,,,,,,,,,,,,,,,,,,,,,,,,,,,,,,,,,,,,,,,,,,,,,,,,,,,,,,,,,,,,,,,,,,,,
,,,,,,,,,,stimuli/images/PICTURE_744.png,SAKE,5f20572705b3e931faf561d5,30/04/1949,2020-09-10_15h04.15.844,proactive3.1,2020.1.2,MacIntel,60,5f599a131af4471f3d752b7b,5f5a324d5356a7092324d544,2,,,,,,ring,,,,,,0,10,10,17,1,2,0,,,,,,,,,,,,,,,,,,,,,,,,,,,,,,,,,,,,,,,,,,,,,,,,,,,,,,,,,,,,,,,,,,,,,,,,,,,,,,,,,,,,,,,,,,,,,,,,,,,,,,,,,,,,,
,,,,,,,,,,stimuli/images/PICTURE_302.png,FAMILY,5f20572705b3e931faf561d5,30/04/1949,2020-09-10_15h04.15.844,proactive3.1,2020.1.2,MacIntel,60,5f599a131af4471f3d752b7b,5f5a324d5356a7092324d544,2,,,,,,taxi,,,,,,0,11,11,18,1,2,0,,,,,,,,,,,,,,,,,,,,,,,,,,,,,,,,,,,,,,,,,,,,,,,,,,,,,,,,,,,,,,,,,,,,,,,,,,,,,,,,,,,,,,,,,,,,,,,,,,,,,,,,,,,,,
,,,,,,,,,,stimuli/images/PICTURE_308.png,KIND,5f20572705b3e931faf561d5,30/04/1949,2020-09-10_15h04.15.844,proactive3.1,2020.1.2,MacIntel,60,5f599a131af4471f3d752b7b,5f5a324d5356a7092324d544,2,,,,,,dice,,,,,,0,12,12,54,1,6,0,,,,,,,,,,,,,,,,,,,,,,,,,,,,,,,,,,,,,,,,,,,,,,,,,,,,,,,,,,,,,,,,,,,,,,,,,,,,,,,,,,,,,,,,,,,,,,,,,,,,,,,,,,,,,
,,,,,,,,,,stimuli/images/PICTURE_233.png,WOMEN,5f20572705b3e931faf561d5,30/04/1949,2020-09-10_15h04.15.844,proactive3.1,2020.1.2,MacIntel,60,5f599a131af4471f3d752b7b,5f5a324d5356a7092324d544,2,,,,,,salt,,,,,,0,13,13,38,1,4,0,,,,,,,,,,,,,,,,,,,,,,,,,,,,,,,,,,,,,,,,,,,,,,,,,,,,,,,,,,,,,,,,,,,,,,,,,,,,,,,,,,,,,,,,,,,,,,,,,,,,,,,,,,,,,
,,,,,,,,,,stimuli/images/PICTURE_453.png,PLENTY,5f20572705b3e931faf561d5,30/04/1949,2020-09-10_15h04.15.844,proactive3.1,2020.1.2,MacIntel,60,5f599a131af4471f3d752b7b,5f5a324d5356a7092324d544,2,,,,,,scissors,,,,,,0,14,14,56,1,6,0,,,,,,,,,,,,,,,,,,,,,,,,,,,,,,,,,,,,,,,,,,,,,,,,,,,,,,,,,,,,,,,,,,,,,,,,,,,,,,,,,,,,,,,,,,,,,,,,,,,,,,,,,,,,,
,,,,,,,,,,stimuli/images/PICTURE_308.png,ESTATE,5f20572705b3e931faf561d5,30/04/1949,2020-09-10_15h04.15.844,proactive3.1,2020.1.2,MacIntel,60,5f599a131af4471f3d752b7b,5f5a324d5356a7092324d544,2,,,,,,dice,,,,,,0,15,15,46,1,5,0,,,,,,,,,,,,,,,,,,,,,,,,,,,,,,,,,,,,,,,,,,,,,,,,,,,,,,,,,,,,,,,,,,,,,,,,,,,,,,,,,,,,,,,,,,,,,,,,,,,,,,,,,,,,,
,,,,,,,,,,stimuli/images/PICTURE_708.png,YARD,5f20572705b3e931faf561d5,30/04/1949,2020-09-10_15h04.15.844,proactive3.1,2020.1.2,MacIntel,60,5f599a131af4471f3d752b7b,5f5a324d5356a7092324d544,2,,,,,,monkey,,,,,,0,16,16,29,1,3,0,,,,,,,,,,,,,,,,,,,,,,,,,,,,,,,,,,,,,,,,,,,,,,,,,,,,,,,,,,,,,,,,,,,,,,,,,,,,,,,,,,,,,,,,,,,,,,,,,,,,,,,,,,,,,
,,,,,,,,,,stimuli/images/PICTURE_32.png,JUNGLE,5f20572705b3e931faf561d5,30/04/1949,2020-09-10_15h04.15.844,proactive3.1,2020.1.2,MacIntel,60,5f599a131af4471f3d752b7b,5f5a324d5356a7092324d544,2,,,,,,crown,,,,,,0,17,17,45,1,5,0,,,,,,,,,,,,,,,,,,,,,,,,,,,,,,,,,,,,,,,,,,,,,,,,,,,,,,,,,,,,,,,,,,,,,,,,,,,,,,,,,,,,,,,,,,,,,,,,,,,,,,,,,,,,,
,,,,,,,,,,stimuli/images/PICTURE_68.png,MILE,5f20572705b3e931faf561d5,30/04/1949,2020-09-10_15h04.15.844,proactive3.1,2020.1.2,MacIntel,60,5f599a131af4471f3d752b7b,5f5a324d5356a7092324d544,2,,,,,,candle,,,,,,0,18,18,44,1,5,0,,,,,,,,,,,,,,,,,,,,,,,,,,,,,,,,,,,,,,,,,,,,,,,,,,,,,,,,,,,,,,,,,,,,,,,,,,,,,,,,,,,,,,,,,,,,,,,,,,,,,,,,,,,,,
,,,,,,,,,,stimuli/images/PICTURE_95.png,STYLE,5f20572705b3e931faf561d5,30/04/1949,2020-09-10_15h04.15.844,proactive3.1,2020.1.2,MacIntel,60,5f599a131af4471f3d752b7b,5f5a324d5356a7092324d544,2,,,,,,suitcase,,,,,,0,19,19,25,1,3,0,,,,,,,,,,,,,,,,,,,,,,,,,,,,,,,,,,,,,,,,,,,,,,,,,,,,,,,,,,,,,,,,,,,,,,,,,,,,,,,,,,,,,,,,,,,,,,,,,,,,,,,,,,,,,
,,,,,,,,,,stimuli/images/PICTURE_348.png,SPEECH,5f20572705b3e931faf561d5,30/04/1949,2020-09-10_15h04.15.844,proactive3.1,2020.1.2,MacIntel,60,5f599a131af4471f3d752b7b,5f5a324d5356a7092324d544,2,,,,,,pepper,,,,,,0,20,20,20,1,3,0,,,,,,,,,,,,,,,,,,,,,,,,,,,,,,,,,,,,,,,,,,,,,,,,,,,,,,,,,,,,,,,,,,,,,,,,,,,,,,,,,,,,,,,,,,,,,,,,,,,,,,,,,,,,,
,,,,,,,,,,stimuli/images/PICTURE_708.png,PENNY,5f20572705b3e931faf561d5,30/04/1949,2020-09-10_15h04.15.844,proactive3.1,2020.1.2,MacIntel,60,5f599a131af4471f3d752b7b,5f5a324d5356a7092324d544,2,,,,,,monkey,,,,,,0,21,21,31,1,4,0,,,,,,,,,,,,,,,,,,,,,,,,,,,,,,,,,,,,,,,,,,,,,,,,,,,,,,,,,,,,,,,,,,,,,,,,,,,,,,,,,,,,,,,,,,,,,,,,,,,,,,,,,,,,,
,,,,,,,,,,stimuli/images/PICTURE_255.png,AREA,5f20572705b3e931faf561d5,30/04/1949,2020-09-10_15h04.15.844,proactive3.1,2020.1.2,MacIntel,60,5f599a131af4471f3d752b7b,5f5a324d5356a7092324d544,2,,,,,,shovel,,,,,,0,22,22,22,1,3,0,,,,,,,,,,,,,,,,,,,,,,,,,,,,,,,,,,,,,,,,,,,,,,,,,,,,,,,,,,,,,,,,,,,,,,,,,,,,,,,,,,,,,,,,,,,,,,,,,,,,,,,,,,,,,
,,,,,,,,,,stimuli/images/PICTURE_688.png,CASINO,5f20572705b3e931faf561d5,30/04/1949,2020-09-10_15h04.15.844,proactive3.1,2020.1.2,MacIntel,60,5f599a131af4471f3d752b7b,5f5a324d5356a7092324d544,2,,,,,,runner,,,,,,0,23,23,2,1,1,0,,,,,,,,,,,,,,,,,,,,,,,,,,,,,,,,,,,,,,,,,,,,,,,,,,,,,,,,,,,,,,,,,,,,,,,,,,,,,,,,,,,,,,,,,,,,,,,,,,,,,,,,,,,,,
,,,,,,,,,,stimuli/images/PICTURE_677.png,MILE,5f20572705b3e931faf561d5,30/04/1949,2020-09-10_15h04.15.844,proactive3.1,2020.1.2,MacIntel,60,5f599a131af4471f3d752b7b,5f5a324d5356a7092324d544,2,,,,,,map,,,,,,0,24,24,30,1,4,0,,,,,,,,,,,,,,,,,,,,,,,,,,,,,,,,,,,,,,,,,,,,,,,,,,,,,,,,,,,,,,,,,,,,,,,,,,,,,,,,,,,,,,,,,,,,,,,,,,,,,,,,,,,,,
,,,,,,,,,,stimuli/images/PICTURE_285.png,ADVICE,5f20572705b3e931faf561d5,30/04/1949,2020-09-10_15h04.15.844,proactive3.1,2020.1.2,MacIntel,60,5f599a131af4471f3d752b7b,5f5a324d5356a7092324d544,2,,,,,,carrot,,,,,,0,25,25,12,1,2,0,,,,,,,,,,,,,,,,,,,,,,,,,,,,,,,,,,,,,,,,,,,,,,,,,,,,,,,,,,,,,,,,,,,,,,,,,,,,,,,,,,,,,,,,,,,,,,,,,,,,,,,,,,,,,
,,,,,,,,,,stimuli/images/PICTURE_487.png,FLIGHT,5f20572705b3e931faf561d5,30/04/1949,2020-09-10_15h04.15.844,proactive3.1,2020.1.2,MacIntel,60,5f599a131af4471f3d752b7b,5f5a324d5356a7092324d544,2,,,,,,basket,,,,,,0,26,26,9,1,1,0,,,,,,,,,,,,,,,,,,,,,,,,,,,,,,,,,,,,,,,,,,,,,,,,,,,,,,,,,,,,,,,,,,,,,,,,,,,,,,,,,,,,,,,,,,,,,,,,,,,,,,,,,,,,,
,,,,,,,,,,stimuli/images/PICTURE_248.png,DOZEN,5f20572705b3e931faf561d5,30/04/1949,2020-09-10_15h04.15.844,proactive3.1,2020.1.2,MacIntel,60,5f599a131af4471f3d752b7b,5f5a324d5356a7092324d544,2,,,,,,cart,,,,,,0,27,27,39,1,4,0,,,,,,,,,,,,,,,,,,,,,,,,,,,,,,,,,,,,,,,,,,,,,,,,,,,,,,,,,,,,,,,,,,,,,,,,,,,,,,,,,,,,,,,,,,,,,,,,,,,,,,,,,,,,,
,,,,,,,,,,stimuli/images/PICTURE_667.png,BATH,5f20572705b3e931faf561d5,30/04/1949,2020-09-10_15h04.15.844,proactive3.1,2020.1.2,MacIntel,60,5f599a131af4471f3d752b7b,5f5a324d5356a7092324d544,2,,,,,,daisy,,,,,,0,28,28,4,1,1,0,,,,,,,,,,,,,,,,,,,,,,,,,,,,,,,,,,,,,,,,,,,,,,,,,,,,,,,,,,,,,,,,,,,,,,,,,,,,,,,,,,,,,,,,,,,,,,,,,,,,,,,,,,,,,
,,,,,,,,,,stimuli/images/PICTURE_208.png,LOTS,5f20572705b3e931faf561d5,30/04/1949,2020-09-10_15h04.15.844,proactive3.1,2020.1.2,MacIntel,60,5f599a131af4471f3d752b7b,5f5a324d5356a7092324d544,2,,,,,,microphone,,,,,,0,29,29,10,1,2,0,,,,,,,,,,,,,,,,,,,,,,,,,,,,,,,,,,,,,,,,,,,,,,,,,,,,,,,,,,,,,,,,,,,,,,,,,,,,,,,,,,,,,,,,,,,,,,,,,,,,,,,,,,,,,
,,,,,,,,,,stimuli/images/PICTURE_744.png,SYSTEM,5f20572705b3e931faf561d5,30/04/1949,2020-09-10_15h04.15.844,proactive3.1,2020.1.2,MacIntel,60,5f599a131af4471f3d752b7b,5f5a324d5356a7092324d544,2,,,,,,ring,,,,,,0,30,30,43,1,5,0,,,,,,,,,,,,,,,,,,,,,,,,,,,,,,,,,,,,,,,,,,,,,,,,,,,,,,,,,,,,,,,,,,,,,,,,,,,,,,,,,,,,,,,,,,,,,,,,,,,,,,,,,,,,,
,,,,,,,,,,stimuli/images/PICTURE_491.png,WRITER,5f20572705b3e931faf561d5,30/04/1949,2020-09-10_15h04.15.844,proactive3.1,2020.1.2,MacIntel,60,5f599a131af4471f3d752b7b,5f5a324d5356a7092324d544,2,,,,,,rug,,,,,,0,31,31,57,1,6,0,,,,,,,,,,,,,,,,,,,,,,,,,,,,,,,,,,,,,,,,,,,,,,,,,,,,,,,,,,,,,,,,,,,,,,,,,,,,,,,,,,,,,,,,,,,,,,,,,,,,,,,,,,,,,
,,,,,,,,,,stimuli/images/PICTURE_449.png,THING,5f20572705b3e931faf561d5,30/04/1949,2020-09-10_15h04.15.844,proactive3.1,2020.1.2,MacIntel,60,5f599a131af4471f3d752b7b,5f5a324d5356a7092324d544,2,,,,,,bench,,,,,,0,32,32,59,1,6,0,,,,,,,,,,,,,,,,,,,,,,,,,,,,,,,,,,,,,,,,,,,,,,,,,,,,,,,,,,,,,,,,,,,,,,,,,,,,,,,,,,,,,,,,,,,,,,,,,,,,,,,,,,,,,
,,,,,,,,,,stimuli/images/PICTURE_467.png,DEMON,5f20572705b3e931faf561d5,30/04/1949,2020-09-10_15h04.15.844,proactive3.1,2020.1.2,MacIntel,60,5f599a131af4471f3d752b7b,5f5a324d5356a7092324d544,2,,,,,,peg,,,,,,0,33,33,23,1,3,0,,,,,,,,,,,,,,,,,,,,,,,,,,,,,,,,,,,,,,,,,,,,,,,,,,,,,,,,,,,,,,,,,,,,,,,,,,,,,,,,,,,,,,,,,,,,,,,,,,,,,,,,,,,,,
,,,,,,,,,,stimuli/images/PICTURE_311.png,BEAUTY,5f20572705b3e931faf561d5,30/04/1949,2020-09-10_15h04.15.844,proactive3.1,2020.1.2,MacIntel,60,5f599a131af4471f3d752b7b,5f5a324d5356a7092324d544,2,,,,,,razor,,,,,,0,34,34,13,1,2,0,,,,,,,,,,,,,,,,,,,,,,,,,,,,,,,,,,,,,,,,,,,,,,,,,,,,,,,,,,,,,,,,,,,,,,,,,,,,,,,,,,,,,,,,,,,,,,,,,,,,,,,,,,,,,
,,,,,,,,,,stimuli/images/PICTURE_356.png,DANGER,5f20572705b3e931faf561d5,30/04/1949,2020-09-10_15h04.15.844,proactive3.1,2020.1.2,MacIntel,60,5f599a131af4471f3d752b7b,5f5a324d5356a7092324d544,2,,,,,,pawn,,,,,,0,35,35,55,1,6,0,,,,,,,,,,,,,,,,,,,,,,,,,,,,,,,,,,,,,,,,,,,,,,,,,,,,,,,,,,,,,,,,,,,,,,,,,,,,,,,,,,,,,,,,,,,,,,,,,,,,,,,,,,,,,
,,,,,,,,,,stimuli/images/PICTURE_233.png,IDEAS,5f20572705b3e931faf561d5,30/04/1949,2020-09-10_15h04.15.844,proactive3.1,2020.1.2,MacIntel,60,5f599a131af4471f3d752b7b,5f5a324d5356a7092324d544,2,,,,,,salt,,,,,,0,36,36,28,1,3,0,,,,,,,,,,,,,,,,,,,,,,,,,,,,,,,,,,,,,,,,,,,,,,,,,,,,,,,,,,,,,,,,,,,,,,,,,,,,,,,,,,,,,,,,,,,,,,,,,,,,,,,,,,,,,
,,,,,,,,,,stimuli/images/PICTURE_470.png,CASINO,5f20572705b3e931faf561d5,30/04/1949,2020-09-10_15h04.15.844,proactive3.1,2020.1.2,MacIntel,60,5f599a131af4471f3d752b7b,5f5a324d5356a7092324d544,2,,,,,,motorbike,,,,,,0,37,37,36,1,4,0,,,,,,,,,,,,,,,,,,,,,,,,,,,,,,,,,,,,,,,,,,,,,,,,,,,,,,,,,,,,,,,,,,,,,,,,,,,,,,,,,,,,,,,,,,,,,,,,,,,,,,,,,,,,,
