consent_key.keys,consent_key.rt,recalled,recalled_rt,recall_acc,example_recall.thisRepN,example_recall.thisTrialN,example_recall.thisN,example_recall.thisIndex,example_recall.ran,file,word,participant,please enter your date of birth (dd/mm/yyyy),date,expName,psychopyVersion,OS,frameRate,STUDY_ID,SESSION_ID,list,prac_learn_study_loop.thisRepN,prac_learn_study_loop.thisTrialN,prac_learn_study_loop.thisN,prac_learn_study_loop.thisIndex,prac_learn_study_loop.ran,image,prac_learn_test_loop.thisRepN,prac_learn_test_loop.thisTrialN,prac_learn_test_loop.thisN,prac_learn_test_loop.thisIndex,prac_learn_test_loop.ran,learn_study_loop.thisRepN,learn_study_loop.thisTrialN,learn_study_loop.thisN,learn_study_loop.thisIndex,learn_study_loop.ran,list_no,block_no,learn_test_loop.thisRepN,learn_test_loop.thisTrialN,learn_test_loop.thisN,learn_test_loop.thisIndex,learn_test_loop.ran,learn_blocks.thisRepN,learn_blocks.thisTrialN,learn_blocks.thisN,learn_blocks.thisIndex,learn_blocks.ran,block_csv,key_resp_13.keys,key_resp_13.rt,learn_blocks_loop.thisRepN,learn_blocks_loop.thisTrialN,learn_blocks_loop.thisN,learn_blocks_loop.thisIndex,learn_blocks_loop.ran,final_learn_test.thisRepN,final_learn_test.thisTrialN,final_learn_test.thisN,final_learn_test.thisIndex,final_learn_test.ran,s_im1,s_im2,s_im3,s_im4,s_im5,s_im6,s_im7,s_im8,s_im1pos,s_im2pos,s_im3pos,s_im4pos,s_im5pos,s_im6pos,s_im7pos,s_im8pos,s_tarright,search_resp.keys,search_resp.rt,search_loop.thisRepN,search_loop.thisTrialN,search_loop.thisN,search_loop.thisIndex,search_loop.ran,prac_wm_search_loop.thisRepN,prac_wm_search_loop.thisTrialN,prac_wm_search_loop.thisN,prac_wm_search_loop.thisIndex,prac_wm_search_loop.ran,prac_wm_test_loop.thisRepN,prac_wm_test_loop.thisTrialN,prac_wm_test_loop.thisN,prac_wm_test_loop.thisIndex,prac_wm_test_loop.ran,wm_recalled1,wm_recall_rt1,wm_probed1,wm_recall_acc1,wm_recalled2,wm_recall_rt2,wm_probed2,wm_recall_acc2,wm_recalled3,wm_recall_rt3,wm_probed3,wm_recall_acc3,wm_recalled4,wm_recall_rt4,wm_probed4,wm_recall_acc4,prac_wm_trial_loop.thisRepN,prac_wm_trial_loop.thisTrialN,prac_wm_trial_loop.thisN,prac_wm_trial_loop.thisIndex,prac_wm_trial_loop.ran,word1,image1,file1,item_type1,word2,image2,file2,item_type2,word4,image4,file4,item_type4,word3,image3,file3,item_type3,wm_search_loop.thisRepN,wm_search_loop.thisTrialN,wm_search_loop.thisN,wm_search_loop.thisIndex,wm_search_loop.ran,wm_test_loop.thisRepN,wm_test_loop.thisTrialN,wm_test_loop.thisN,wm_test_loop.thisIndex,wm_test_loop.ran,wm_trial_loop.thisRepN,wm_trial_loop.thisTrialN,wm_trial_loop.thisN,wm_trial_loop.thisIndex,wm_trial_loop.ran
y,31.379225,TOUGH,6.693815,1,0,0,0,0,1,stimuli/images/PICTURE_747.png,TOUGH,5f25b1a200ed0b27e21db196,19/11/2001,2020-08-27_18h30.52.238,proactive3.1,2020.1.2,Win32,60,5f47c29a48bd2a1e651a6eb7,5f47ed95d8292a23dfbe5dc1,2,,,,,,,,,,,,,,,,,,,,,,,,,,,,,,,,,,,,,,,,,,,,,,,,,,,,,,,,,,,,,,,,,,,,,,,,,,,,,,,,,,,,,,,,,,,,,,,,,,,,,,,,,,,,,,,,,,,,,,,,,,,,,,,
,,,,,,,,,,stimuli/images/PICTURE_658.png,DEVIL,5f25b1a200ed0b27e21db196,19/11/2001,2020-08-27_18h30.52.238,proactive3.1,2020.1.2,Win32,60,5f47c29a48bd2a1e651a6eb7,5f47ed95d8292a23dfbe5dc1,2,0,0,0,3,1,crow,,,,,,,,,,,,,,,,,,,,,,,,,,,,,,,,,,,,,,,,,,,,,,,,,,,,,,,,,,,,,,,,,,,,,,,,,,,,,,,,,,,,,,,,,,,,,,,,,,,,,,,,,,,,,,,,,,,,,,,,,
,,,,,,,,,,stimuli/images/PICTURE_727.png,CELL,5f25b1a200ed0b27e21db196,19/11/2001,2020-08-27_18h30.52.238,proactive3.1,2020.1.2,Win32,60,5f47c29a48bd2a1e651a6eb7,5f47ed95d8292a23dfbe5dc1,2,0,1,1,1,1,hose,,,,,,,,,,,,,,,,,,,,,,,,,,,,,,,,,,,,,,,,,,,,,,,,,,,,,,,,,,,,,,,,,,,,,,,,,,,,,,,,,,,,,,,,,,,,,,,,,,,,,,,,,,,,,,,,,,,,,,,,,
,,,,,,,,,,stimuli/images/PICTURE_697.png,KILLER,5f25b1a200ed0b27e21db196,19/11/2001,2020-08-27_18h30.52.238,proactive3.1,2020.1.2,Win32,60,5f47c29a48bd2a1e651a6eb7,5f47ed95d8292a23dfbe5dc1,2,0,2,2,4,1,peach,,,,,,,,,,,,,,,,,,,,,,,,,,,,,,,,,,,,,,,,,,,,,,,,,,,,,,,,,,,,,,,,,,,,,,,,,,,,,,,,,,,,,,,,,,,,,,,,,,,,,,,,,,,,,,,,,,,,,,,,,
,,,,,,,,,,stimuli/images/PICTURE_378.png,LOSS,5f25b1a200ed0b27e21db196,19/11/2001,2020-08-27_18h30.52.238,proactive3.1,2020.1.2,Win32,60,5f47c29a48bd2a1e651a6eb7,5f47ed95d8292a23dfbe5dc1,2,0,3,3,2,1,lobster,,,,,,,,,,,,,,,,,,,,,,,,,,,,,,,,,,,,,,,,,,,,,,,,,,,,,,,,,,,,,,,,,,,,,,,,,,,,,,,,,,,,,,,,,,,,,,,,,,,,,,,,,,,,,,,,,,,,,,,,,
,,DEVIL,3.37269,1,,,,,,stimuli/images/PICTURE_658.png,DEVIL,5f25b1a200ed0b27e21db196,19/11/2001,2020-08-27_18h30.52.238,proactive3.1,2020.1.2,Win32,60,5f47c29a48bd2a1e651a6eb7,5f47ed95d8292a23dfbe5dc1,2,,,,,,crow,0,0,0,3,1,,,,,,,,,,,,,,,,,,,,,,,,,,,,,,,,,,,,,,,,,,,,,,,,,,,,,,,,,,,,,,,,,,,,,,,,,,,,,,,,,,,,,,,,,,,,,,,,,,,,,,,,,,,,,,,,,,,,
,,GENIUS,3.112875,1,,,,,,stimuli/images/PICTURE_269.png,GENIUS,5f25b1a200ed0b27e21db196,19/11/2001,2020-08-27_18h30.52.238,proactive3.1,2020.1.2,Win32,60,5f47c29a48bd2a1e651a6eb7,5f47ed95d8292a23dfbe5dc1,2,,,,,,chameleon,0,1,1,0,1,,,,,,,,,,,,,,,,,,,,,,,,,,,,,,,,,,,,,,,,,,,,,,,,,,,,,,,,,,,,,,,,,,,,,,,,,,,,,,,,,,,,,,,,,,,,,,,,,,,,,,,,,,,,,,,,,,,,
,,LOSS,2.04943,1,,,,,,stimuli/images/PICTURE_378.png,LOSS,5f25b1a200ed0b27e21db196,19/11/2001,2020-08-27_18h30.52.238,proactive3.1,2020.1.2,Win32,60,5f47c29a48bd2a1e651a6eb7,5f47ed95d8292a23dfbe5dc1,2,,,,,,lobster,0,2,2,2,1,,,,,,,,,,,,,,,,,,,,,,,,,,,,,,,,,,,,,,,,,,,,,,,,,,,,,,,,,,,,,,,,,,,,,,,,,,,,,,,,,,,,,,,,,,,,,,,,,,,,,,,,,,,,,,,,,,,,
,,CELL,2.59804,1,,,,,,stimuli/images/PICTURE_727.png,CELL,5f25b1a200ed0b27e21db196,19/11/2001,2020-08-27_18h30.52.238,proactive3.1,2020.1.2,Win32,60,5f47c29a48bd2a1e651a6eb7,5f47ed95d8292a23dfbe5dc1,2,,,,,,hose,0,3,3,1,1,,,,,,,,,,,,,,,,,,,,,,,,,,,,,,,,,,,,,,,,,,,,,,,,,,,,,,,,,,,,,,,,,,,,,,,,,,,,,,,,,,,,,,,,,,,,,,,,,,,,,,,,,,,,,,,,,,,,
,,?,15.01352,0,,,,,,stimuli/images/PICTURE_697.png,KILLER,5f25b1a200ed0b27e21db196,19/11/2001,2020-08-27_18h30.52.238,proactive3.1,2020.1.2,Win32,60,5f47c29a48bd2a1e651a6eb7,5f47ed95d8292a23dfbe5dc1,2,,,,,,peach,0,4,4,4,1,,,,,,,,,,,,,,,,,,,,,,,,,,,,,,,,,,,,,,,,,,,,,,,,,,,,,,,,,,,,,,,,,,,,,,,,,,,,,,,,,,,,,,,,,,,,,,,,,,,,,,,,,,,,,,,,,,,,
,,,,,,,,,,stimuli/images/PICTURE_383.png,WRITER,5f25b1a200ed0b27e21db196,19/11/2001,2020-08-27_18h30.52.238,proactive3.1,2020.1.2,Win32,60,5f47c29a48bd2a1e651a6eb7,5f47ed95d8292a23dfbe5dc1,2,,,,,,coin,,,,,,0,0,0,28,1,3,1,,,,,,,,,,,,,,,,,,,,,,,,,,,,,,,,,,,,,,,,,,,,,,,,,,,,,,,,,,,,,,,,,,,,,,,,,,,,,,,,,,,,,,,,,,,,,,,,,,,,,,,,,,,,,
,,,,,,,,,,stimuli/images/PICTURE_285.png,LIFE,5f25b1a200ed0b27e21db196,19/11/2001,2020-08-27_18h30.52.238,proactive3.1,2020.1.2,Win32,60,5f47c29a48bd2a1e651a6eb7,5f47ed95d8292a23dfbe5dc1,2,,,,,,carrot,,,,,,0,1,1,33,1,4,1,,,,,,,,,,,,,,,,,,,,,,,,,,,,,,,,,,,,,,,,,,,,,,,,,,,,,,,,,,,,,,,,,,,,,,,,,,,,,,,,,,,,,,,,,,,,,,,,,,,,,,,,,,,,,
,,,,,,,,,,stimuli/images/PICTURE_203.png,NIGHT,5f25b1a200ed0b27e21db196,19/11/2001,2020-08-27_18h30.52.238,proactive3.1,2020.1.2,Win32,60,5f47c29a48bd2a1e651a6eb7,5f47ed95d8292a23dfbe5dc1,2,,,,,,cap,,,,,,0,2,2,2,1,1,1,,,,,,,,,,,,,,,,,,,,,,,,,,,,,,,,,,,,,,,,,,,,,,,,,,,,,,,,,,,,,,,,,,,,,,,,,,,,,,,,,,,,,,,,,,,,,,,,,,,,,,,,,,,,,
,,,,,,,,,,stimuli/images/PICTURE_68.png,MILE,5f25b1a200ed0b27e21db196,19/11/2001,2020-08-27_18h30.52.238,proactive3.1,2020.1.2,Win32,60,5f47c29a48bd2a1e651a6eb7,5f47ed95d8292a23dfbe5dc1,2,,,,,,candle,,,,,,0,3,3,51,1,6,1,,,,,,,,,,,,,,,,,,,,,,,,,,,,,,,,,,,,,,,,,,,,,,,,,,,,,,,,,,,,,,,,,,,,,,,,,,,,,,,,,,,,,,,,,,,,,,,,,,,,,,,,,,,,,
,,,,,,,,,,stimuli/images/PICTURE_327.png,SERIES,5f25b1a200ed0b27e21db196,19/11/2001,2020-08-27_18h30.52.238,proactive3.1,2020.1.2,Win32,60,5f47c29a48bd2a1e651a6eb7,5f47ed95d8292a23dfbe5dc1,2,,,,,,helmet,,,,,,0,4,4,3,1,1,1,,,,,,,,,,,,,,,,,,,,,,,,,,,,,,,,,,,,,,,,,,,,,,,,,,,,,,,,,,,,,,,,,,,,,,,,,,,,,,,,,,,,,,,,,,,,,,,,,,,,,,,,,,,,,
,,,,,,,,,,stimuli/images/PICTURE_233.png,LOTS,5f25b1a200ed0b27e21db196,19/11/2001,2020-08-27_18h30.52.238,proactive3.1,2020.1.2,Win32,60,5f47c29a48bd2a1e651a6eb7,5f47ed95d8292a23dfbe5dc1,2,,,,,,salt,,,,,,0,5,5,42,1,5,1,,,,,,,,,,,,,,,,,,,,,,,,,,,,,,,,,,,,,,,,,,,,,,,,,,,,,,,,,,,,,,,,,,,,,,,,,,,,,,,,,,,,,,,,,,,,,,,,,,,,,,,,,,,,,
,,,,,,,,,,stimuli/images/PICTURE_208.png,SYSTEM,5f25b1a200ed0b27e21db196,19/11/2001,2020-08-27_18h30.52.238,proactive3.1,2020.1.2,Win32,60,5f47c29a48bd2a1e651a6eb7,5f47ed95d8292a23dfbe5dc1,2,,,,,,microphone,,,,,,0,6,6,32,1,4,1,,,,,,,,,,,,,,,,,,,,,,,,,,,,,,,,,,,,,,,,,,,,,,,,,,,,,,,,,,,,,,,,,,,,,,,,,,,,,,,,,,,,,,,,,,,,,,,,,,,,,,,,,,,,,
,,,,,,,,,,stimuli/images/PICTURE_147.png,YEAR,5f25b1a200ed0b27e21db196,19/11/2001,2020-08-27_18h30.52.238,proactive3.1,2020.1.2,Win32,60,5f47c29a48bd2a1e651a6eb7,5f47ed95d8292a23dfbe5dc1,2,,,,,,hanger,,,,,,0,7,7,21,1,3,1,,,,,,,,,,,,,,,,,,,,,,,,,,,,,,,,,,,,,,,,,,,,,,,,,,,,,,,,,,,,,,,,,,,,,,,,,,,,,,,,,,,,,,,,,,,,,,,,,,,,,,,,,,,,,
,,,,,,,,,,stimuli/images/PICTURE_383.png,SERIES,5f25b1a200ed0b27e21db196,19/11/2001,2020-08-27_18h30.52.238,proactive3.1,2020.1.2,Win32,60,5f47c29a48bd2a1e651a6eb7,5f47ed95d8292a23dfbe5dc1,2,,,,,,coin,,,,,,0,8,8,46,1,5,1,,,,,,,,,,,,,,,,,,,,,,,,,,,,,,,,,,,,,,,,,,,,,,,,,,,,,,,,,,,,,,,,,,,,,,,,,,,,,,,,,,,,,,,,,,,,,,,,,,,,,,,,,,,,,
,,,,,,,,,,stimuli/images/PICTURE_42.png,BOYS,5f25b1a200ed0b27e21db196,19/11/2001,2020-08-27_18h30.52.238,proactive3.1,2020.1.2,Win32,60,5f47c29a48bd2a1e651a6eb7,5f47ed95d8292a23dfbe5dc1,2,,,,,,pear,,,,,,0,9,9,55,1,6,1,,,,,,,,,,,,,,,,,,,,,,,,,,,,,,,,,,,,,,,,,,,,,,,,,,,,,,,,,,,,,,,,,,,,,,,,,,,,,,,,,,,,,,,,,,,,,,,,,,,,,,,,,,,,,
,,,,,,,,,,stimuli/images/PICTURE_491.png,RIVER,5f25b1a200ed0b27e21db196,19/11/2001,2020-08-27_18h30.52.238,proactive3.1,2020.1.2,Win32,60,5f47c29a48bd2a1e651a6eb7,5f47ed95d8292a23dfbe5dc1,2,,,,,,rug,,,,,,0,10,10,6,1,1,1,,,,,,,,,,,,,,,,,,,,,,,,,,,,,,,,,,,,,,,,,,,,,,,,,,,,,,,,,,,,,,,,,,,,,,,,,,,,,,,,,,,,,,,,,,,,,,,,,,,,,,,,,,,,,
,,,,,,,,,,stimuli/images/PICTURE_491.png,GLASS,5f25b1a200ed0b27e21db196,19/11/2001,2020-08-27_18h30.52.238,proactive3.1,2020.1.2,Win32,60,5f47c29a48bd2a1e651a6eb7,5f47ed95d8292a23dfbe5dc1,2,,,,,,rug,,,,,,0,11,11,14,1,2,1,,,,,,,,,,,,,,,,,,,,,,,,,,,,,,,,,,,,,,,,,,,,,,,,,,,,,,,,,,,,,,,,,,,,,,,,,,,,,,,,,,,,,,,,,,,,,,,,,,,,,,,,,,,,,
,,,,,,,,,,stimuli/images/PICTURE_33.png,FRIEND,5f25b1a200ed0b27e21db196,19/11/2001,2020-08-27_18h30.52.238,proactive3.1,2020.1.2,Win32,60,5f47c29a48bd2a1e651a6eb7,5f47ed95d8292a23dfbe5dc1,2,,,,,,frame,,,,,,0,12,12,8,1,1,1,,,,,,,,,,,,,,,,,,,,,,,,,,,,,,,,,,,,,,,,,,,,,,,,,,,,,,,,,,,,,,,,,,,,,,,,,,,,,,,,,,,,,,,,,,,,,,,,,,,,,,,,,,,,,
,,,,,,,,,,stimuli/images/PICTURE_403.png,RIVER,5f25b1a200ed0b27e21db196,19/11/2001,2020-08-27_18h30.52.238,proactive3.1,2020.1.2,Win32,60,5f47c29a48bd2a1e651a6eb7,5f47ed95d8292a23dfbe5dc1,2,,,,,,cathedral,,,,,,0,13,13,40,1,5,1,,,,,,,,,,,,,,,,,,,,,,,,,,,,,,,,,,,,,,,,,,,,,,,,,,,,,,,,,,,,,,,,,,,,,,,,,,,,,,,,,,,,,,,,,,,,,,,,,,,,,,,,,,,,,
,,,,,,,,,,stimuli/images/PICTURE_340.png,LETTER,5f25b1a200ed0b27e21db196,19/11/2001,2020-08-27_18h30.52.238,proactive3.1,2020.1.2,Win32,60,5f47c29a48bd2a1e651a6eb7,5f47ed95d8292a23dfbe5dc1,2,,,,,,mirror,,,,,,0,14,14,24,1,3,1,,,,,,,,,,,,,,,,,,,,,,,,,,,,,,,,,,,,,,,,,,,,,,,,,,,,,,,,,,,,,,,,,,,,,,,,,,,,,,,,,,,,,,,,,,,,,,,,,,,,,,,,,,,,,
,,,,,,,,,,stimuli/images/PICTURE_380.png,CANDY,5f25b1a200ed0b27e21db196,19/11/2001,2020-08-27_18h30.52.238,proactive3.1,2020.1.2,Win32,60,5f47c29a48bd2a1e651a6eb7,5f47ed95d8292a23dfbe5dc1,2,,,,,,gorilla,,,,,,0,15,15,0,1,1,1,,,,,,,,,,,,,,,,,,,,,,,,,,,,,,,,,,,,,,,,,,,,,,,,,,,,,,,,,,,,,,,,,,,,,,,,,,,,,,,,,,,,,,,,,,,,,,,,,,,,,,,,,,,,,
,,,,,,,,,,stimuli/images/PICTURE_177.png,WRITER,5f25b1a200ed0b27e21db196,19/11/2001,2020-08-27_18h30.52.238,proactive3.1,2020.1.2,Win32,60,5f47c29a48bd2a1e651a6eb7,5f47ed95d8292a23dfbe5dc1,2,,,,,,mushroom,,,,,,0,16,16,41,1,5,1,,,,,,,,,,,,,,,,,,,,,,,,,,,,,,,,,,,,,,,,,,,,,,,,,,,,,,,,,,,,,,,,,,,,,,,,,,,,,,,,,,,,,,,,,,,,,,,,,,,,,,,,,,,,,
,,,,,,,,,,stimuli/images/PICTURE_340.png,VALLEY,5f25b1a200ed0b27e21db196,19/11/2001,2020-08-27_18h30.52.238,proactive3.1,2020.1.2,Win32,60,5f47c29a48bd2a1e651a6eb7,5f47ed95d8292a23dfbe5dc1,2,,,,,,mirror,,,,,,0,17,17,54,1,6,1,,,,,,,,,,,,,,,,,,,,,,,,,,,,,,,,,,,,,,,,,,,,,,,,,,,,,,,,,,,,,,,,,,,,,,,,,,,,,,,,,,,,,,,,,,,,,,,,,,,,,,,,,,,,,
,,,,,,,,,,stimuli/images/PICTURE_296.png,LIFE,5f25b1a200ed0b27e21db196,19/11/2001,2020-08-27_18h30.52.238,proactive3.1,2020.1.2,Win32,60,5f47c29a48bd2a1e651a6eb7,5f47ed95d8292a23dfbe5dc1,2,,,,,,bolt,,,,,,0,18,18,57,1,6,1,,,,,,,,,,,,,,,,,,,,,,,,,,,,,,,,,,,,,,,,,,,,,,,,,,,,,,,,,,,,,,,,,,,,,,,,,,,,,,,,,,,,,,,,,,,,,,,,,,,,,,,,,,,,,
,,,,,,,,,,stimuli/images/PICTURE_85.png,TOILET,5f25b1a200ed0b27e21db196,19/11/2001,2020-08-27_18h30.52.238,proactive3.1,2020.1.2,Win32,60,5f47c29a48bd2a1e651a6eb7,5f47ed95d8292a23dfbe5dc1,2,,,,,,diamond,,,,,,0,19,19,48,1,5,1,,,,,,,,,,,,,,,,,,,,,,,,,,,,,,,,,,,,,,,,,,,,,,,,,,,,,,,,,,,,,,,,,,,,,,,,,,,,,,,,,,,,,,,,,,,,,,,,,,,,,,,,,,,,,
,,,,,,,,,,stimuli/images/PICTURE_504.png,YEAR,5f25b1a200ed0b27e21db196,19/11/2001,2020-08-27_18h30.52.238,proactive3.1,2020.1.2,Win32,60,5f47c29a48bd2a1e651a6eb7,5f47ed95d8292a23dfbe5dc1,2,,,,,,wheel,,,,,,0,20,20,13,1,2,1,,,,,,,,,,,,,,,,,,,,,,,,,,,,,,,,,,,,,,,,,,,,,,,,,,,,,,,,,,,,,,,,,,,,,,,,,,,,,,,,,,,,,,,,,,,,,,,,,,,,,,,,,,,,,
,,,,,,,,,,stimuli/images/PICTURE_403.png,TOILET,5f25b1a200ed0b27e21db196,19/11/2001,2020-08-27_18h30.52.238,proactive3.1,2020.1.2,Win32,60,5f47c29a48bd2a1e651a6eb7,5f47ed95d8292a23dfbe5dc1,2,,,,,,cathedral,,,,,,0,21,21,25,1,3,1,,,,,,,,,,,,,,,,,,,,,,,,,,,,,,,,,,,,,,,,,,,,,,,,,,,,,,,,,,,,,,,,,,,,,,,,,,,,,,,,,,,,,,,,,,,,,,,,,,,,,,,,,,,,,
,,,,,,,,,,stimuli/images/PICTURE_108.png,POLICY,5f25b1a200ed0b27e21db196,19/11/2001,2020-08-27_18h30.52.238,proactive3.1,2020.1.2,Win32,60,5f47c29a48bd2a1e651a6eb7,5f47ed95d8292a23dfbe5dc1,2,,,,,,calendar,,,,,,0,22,22,22,1,3,1,,,,,,,,,,,,,,,,,,,,,,,,,,,,,,,,,,,,,,,,,,,,,,,,,,,,,,,,,,,,,,,,,,,,,,,,,,,,,,,,,,,,,,,,,,,,,,,,,,,,,,,,,,,,,
,,,,,,,,,,stimuli/images/PICTURE_467.png,POLICY,5f25b1a200ed0b27e21db196,19/11/2001,2020-08-27_18h30.52.238,proactive3.1,2020.1.2,Win32,60,5f47c29a48bd2a1e651a6eb7,5f47ed95d8292a23dfbe5dc1,2,,,,,,peg,,,,,,0,23,23,53,1,6,1,,,,,,,,,,,,,,,,,,,,,,,,,,,,,,,,,,,,,,,,,,,,,,,,,,,,,,,,,,,,,,,,,,,,,,,,,,,,,,,,,,,,,,,,,,,,,,,,,,,,,,,,,,,,,
,,,,,,,,,,stimuli/images/PICTURE_68.png,ROOF,5f25b1a200ed0b27e21db196,19/11/2001,2020-08-27_18h30.52.238,proactive3.1,2020.1.2,Win32,60,5f47c29a48bd2a1e651a6eb7,5f47ed95d8292a23dfbe5dc1,2,,,,,,candle,,,,,,0,24,24,38,1,4,1,,,,,,,,,,,,,,,,,,,,,,,,,,,,,,,,,,,,,,,,,,,,,,,,,,,,,,,,,,,,,,,,,,,,,,,,,,,,,,,,,,,,,,,,,,,,,,,,,,,,,,,,,,,,,
,,,,,,,,,,stimuli/images/PICTURE_487.png,GIRL,5f25b1a200ed0b27e21db196,19/11/2001,2020-08-27_18h30.52.238,proactive3.1,2020.1.2,Win32,60,5f47c29a48bd2a1e651a6eb7,5f47ed95d8292a23dfbe5dc1,2,,,,,,basket,,,,,,0,25,25,45,1,5,1,,,,,,,,,,,,,,,,,,,,,,,,,,,,,,,,,,,,,,,,,,,,,,,,,,,,,,,,,,,,,,,,,,,,,,,,,,,,,,,,,,,,,,,,,,,,,,,,,,,,,,,,,,,,,
,,,,,,,,,,stimuli/images/PICTURE_405.png,PLENTY,5f25b1a200ed0b27e21db196,19/11/2001,2020-08-27_18h30.52.238,proactive3.1,2020.1.2,Win32,60,5f47c29a48bd2a1e651a6eb7,5f47ed95d8292a23dfbe5dc1,2,,,,,,anchor,,,,,,0,26,26,23,1,3,1,,,,,,,,,,,,,,,,,,,,,,,,,,,,,,,,,,,,,,,,,,,,,,,,,,,,,,,,,,,,,,,,,,,,,,,,,,,,,,,,,,,,,,,,,,,,,,,,,,,,,,,,,,,,,
,,,,,,,,,,stimuli/images/PICTURE_297.png,RIVER,5f25b1a200ed0b27e21db196,19/11/2001,2020-08-27_18h30.52.238,proactive3.1,2020.1.2,Win32,60,5f47c29a48bd2a1e651a6eb7,5f47ed95d8292a23dfbe5dc1,2,,,,,,aeroplane,,,,,,0,27,27,39,1,4,1,,,,,,,,,,,,,,,,,,,,,,,,,,,,,,,,,,,,,,,,,,,,,,,,,,,,,,,,,,,,,,,,,,,,,,,,,,,,,,,,,,,,,,,,,,,,,,,,,,,,,,,,,,,,,
,,,,,,,,,,stimuli/images/PICTURE_95.png,BOYS,5f25b1a200ed0b27e21db196,19/11/2001,2020-08-27_18h30.52.238,proactive3.1,2020.1.2,Win32,60,5f47c29a48bd2a1e651a6eb7,5f47ed95d8292a23dfbe5dc1,2,,,,,,suitcase,,,,,,0,28,28,1,1,1,1,,,,,,,,,,,,,,,,,,,,,,,,,,,,,,,,,,,,,,,,,,,,,,,,,,,,,,,,,,,,,,,,,,,,,,,,,,,,,,,,,,,,,,,,,,,,,,,,,,,,,,,,,,,,,
,,,,,,,,,,stimuli/images/PICTURE_339.png,CLIENT,5f25b1a200ed0b27e21db196,19/11/2001,2020-08-27_18h30.52.238,proactive3.1,2020.1.2,Win32,60,5f47c29a48bd2a1e651a6eb7,5f47ed95d8292a23dfbe5dc1,2,,,,,,backpack,,,,,,0,29,29,11,1,2,1,,,,,,,,,,,,,,,,,,,,,,,,,,,,,,,,,,,,,,,,,,,,,,,,,,,,,,,,,,,,,,,,,,,,,,,,,,,,,,,,,,,,,,,,,,,,,,,,,,,,,,,,,,,,,
,,,,,,,,,,stimuli/images/PICTURE_2.png,FLIGHT,5f25b1a200ed0b27e21db196,19/11/2001,2020-08-27_18h30.52.238,proactive3.1,2020.1.2,Win32,60,5f47c29a48bd2a1e651a6eb7,5f47ed95d8292a23dfbe5dc1,2,,,,,,tyre,,,,,,0,30,30,15,1,2,1,,,,,,,,,,,,,,,,,,,,,,,,,,,,,,,,,,,,,,,,,,,,,,,,,,,,,,,,,,,,,,,,,,,,,,,,,,,,,,,,,,,,,,,,,,,,,,,,,,,,,,,,,,,,,
,,,,,,,,,,stimuli/images/PICTURE_667.png,RIVER,5f25b1a200ed0b27e21db196,19/11/2001,2020-08-27_18h30.52.238,proactive3.1,2020.1.2,Win32,60,5f47c29a48bd2a1e651a6eb7,5f47ed95d8292a23dfbe5dc1,2,,,,,,daisy,,,,,,0,31,31,10,1,2,1,,,,,,,,,,,,,,,,,,,,,,,,,,,,,,,,,,,,,,,,,,,,,,,,,,,,,,,,,,,,,,,,,,,,,,,,,,,,,,,,,,,,,,,,,,,,,,,,,,,,,,,,,,,,,
,,,,,,,,,,stimuli/images/PICTURE_744.png,WEAPON,5f25b1a200ed0b27e21db196,19/11/2001,2020-08-27_18h30.52.238,proactive3.1,2020.1.2,Win32,60,5f47c29a48bd2a1e651a6eb7,5f47ed95d8292a23dfbe5dc1,2,,,,,,ring,,,,,,0,32,32,50,1,6,1,,,,,,,,,,,,,,,,,,,,,,,,,,,,,,,,,,,,,,,,,,,,,,,,,,,,,,,,,,,,,,,,,,,,,,,,,,,,,,,,,,,,,,,,,,,,,,,,,,,,,,,,,,,,,
,,,,,,,,,,stimuli/images/PICTURE_750.png,HOTEL,5f25b1a200ed0b27e21db196,19/11/2001,2020-08-27_18h30.52.238,proactive3.1,2020.1.2,Win32,60,5f47c29a48bd2a1e651a6eb7,5f47ed95d8292a23dfbe5dc1,2,,,,,,kettle,,,,,,0,33,33,27,1,3,1,,,,,,,,,,,,,,,,,,,,,,,,,,,,,,,,,,,,,,,,,,,,,,,,,,,,,,,,,,,,,,,,,,,,,,,,,,,,,,,,,,,,,,,,,,,,,,,,,,,,,,,,,,,,,
,,,,,,,,,,stimuli/images/PICTURE_564.png,BATH,5f25b1a200ed0b27e21db196,19/11/2001,2020-08-27_18h30.52.238,proactive3.1,2020.1.2,Win32,60,5f47c29a48bd2a1e651a6eb7,5f47ed95d8292a23dfbe5dc1,2,,,,,,spoon,,,,,,0,34,34,26,1,3,1,,,,,,,,,,,,,,,,,,,,,,,,,,,,,,,,,,,,,,,,,,,,,,,,,,,,,,,,,,,,,,,,,,,,,,,,,,,,,,,,,,,,,,,,,,,,,,,,,,,,,,,,,,,,,
,,,,,,,,,,stimuli/images/PICTURE_95.png,HONEY,5f25b1a200ed0b27e21db196,19/11/2001,2020-08-27_18h30.52.238,proactive3.1,2020.1.2,Win32,60,5f47c29a48bd2a1e651a6eb7,5f47ed95d8292a23dfbe5dc1,2,,,,,,suitcase,,,,,,0,35,35,44,1,5,1,,,,,,,,,,,,,,,,,,,,,,,,,,,,,,,,,,,,,,,,,,,,,,,,,,,,,,,,,,,,,,,,,,,,,,,,,,,,,,,,,,,,,,,,,,,,,,,,,,,,,,,,,,,,,
,,,,,,,,,,stimuli/images/PICTURE_655.png,TOILET,5f25b1a200ed0b27e21db196,19/11/2001,2020-08-27_18h30.52.238,proactive3.1,2020.1.2,Win32,60,5f47c29a48bd2a1e651a6eb7,5f47ed95d8292a23dfbe5dc1,2,,,,,,megaphone,,,,,,0,36,36,12,1,2,1,,,,,,,,,,,,,,,,,,,,,,,,,,,,,,,,,,,,,,,,,,,,,,,,,,,,,,,,,,,,,,,,,,,,,,,,,,,,,,,,,,,,,,,,,,,,,,,,,,,,,,,,,,,,,
,,,,,,,,,,stimuli/images/PICTURE_405.png,YEAR,5f25b1a200ed0b27e21db196,19/11/2001,2020-08-27_18h30.52.238,proactive3.1,2020.1.2,Win32,60,5f47c29a48bd2a1e651a6eb7,5f47ed95d8292a23dfbe5dc1,2,,,,,,anchor,,,,,,0,37,37,34,1,4,1,,,,,,,,,,,,,,,,,,,,,,,,,,,,,,,,,,,,,,,,,,,,,,,,,,,,,,,,,,,,,,,,,,,,,,,,,,,,,,,,,,,,,,,,,,,,,,,,,,,,,,,,,,,,,
,,,,,,,,,,stimuli/images/PICTURE_57.png,MOMENT,5f25b1a200ed0b27e21db196,19/11/2001,2020-08-27_18h30.52.238,proactive3.1,2020.1.2,Win32,60,5f47c29a48bd2a1e651a6eb7,5f47ed95d8292a23dfbe5dc1,2,,,,,,stamp,,,,,,0,38,38,37,1,4,1,,,,,,,,,,,,,,,,,,,,,,,,,,,,,,,,,,,,,,,,,,,,,,,,,,,,,,,,,,,,,,,,,,,,,,,,,,,,,,,,,,,,,,,,,,,,,,,,,,,,,,,,,,,,,
,,,,,,,,,,stimuli/images/PICTURE_449.png,DUDE,5f25b1a200ed0b27e21db196,19/11/2001,2020-08-27_18h30.52.238,proactive3.1,2020.1.2,Win32,60,5f47c29a48bd2a1e651a6eb7,5f47ed95d8292a23dfbe5dc1,2,,,,,,bench,,,,,,0,39,39,17,1,2,1,,,,,,,,,,,,,,,,,,,,,,,,,,,,,,,,,,,,,,,,,,,,,,,,,,,,,,,,,,,,,,,,,,,,,,,,,,,,,,,,,,,,,,,,,,,,,,,,,,,,,,,,,,,,,
,,,,,,,,,,stimuli/images/PICTURE_708.png,RECORD,5f25b1a200ed0b27e21db196,19/11/2001,2020-08-27_18h30.52.238,proactive3.1,2020.1.2,Win32,60,5f47c29a48bd2a1e651a6eb7,5f47ed95d8292a23dfbe5dc1,2,,,,,,monkey,,,,,,0,40,40,58,1,6,1,,,,,,,,,,,,,,,,,,,,,,,,,,,,,,,,,,,,,,,,,,,,,,,,,,,,,,,,,,,,,,,,,,,,,,,,,,,,,,,,,,,,,,,,,,,,,,,,,,,,,,,,,,,,,
,,,,,,,,,,stimuli/images/PICTURE_327.png,CASINO,5f25b1a200ed0b27e21db196,19/11/2001,2020-08-27_18h30.52.238,proactive3.1,2020.1.2,Win32,60,5f47c29a48bd2a1e651a6eb7,5f47ed95d8292a23dfbe5dc1,2,,,,,,helmet,,,,,,0,41,41,20,1,3,1,,,,,,,,,,,,,,,,,,,,,,,,,,,,,,,,,,,,,,,,,,,,,,,,,,,,,,,,,,,,,,,,,,,,,,,,,,,,,,,,,,,,,,,,,,,,,,,,,,,,,,,,,,,,,
,,,,,,,,,,stimuli/images/PICTURE_685.png,PENNY,5f25b1a200ed0b27e21db196,19/11/2001,2020-08-27_18h30.52.238,proactive3.1,2020.1.2,Win32,60,5f47c29a48bd2a1e651a6eb7,5f47ed95d8292a23dfbe5dc1,2,,,,,,goose,,,,,,0,42,42,4,1,1,1,,,,,,,,,,,,,,,,,,,,,,,,,,,,,,,,,,,,,,,,,,,,,,,,,,,,,,,,,,,,,,,,,,,,,,,,,,,,,,,,,,,,,,,,,,,,,,,,,,,,,,,,,,,,,
,,,,,,,,,,stimuli/images/PICTURE_308.png,FAMILY,5f25b1a200ed0b27e21db196,19/11/2001,2020-08-27_18h30.52.238,proactive3.1,2020.1.2,Win32,60,5f47c29a48bd2a1e651a6eb7,5f47ed95d8292a23dfbe5dc1,2,,,,,,dice,,,,,,0,43,43,36,1,4,1,,,,,,,,,,,,,,,,,,,,,,,,,,,,,,,,,,,,,,,,,,,,,,,,,,,,,,,,,,,,,,,,,,,,,,,,,,,,,,,,,,,,,,,,,,,,,,,,,,,,,,,,,,,,,
,,,,,,,,,,stimuli/images/PICTURE_296.png,LOTS,5f25b1a200ed0b27e21db196,19/11/2001,2020-08-27_18h30.52.238,proactive3.1,2020.1.2,Win32,60,5f47c29a48bd2a1e651a6eb7,5f47ed95d8292a23dfbe5dc1,2,,,,,,bolt,,,,,,0,44,44,9,1,1,1,,,,,,,,,,,,,,,,,,,,,,,,,,,,,,,,,,,,,,,,,,,,,,,,,,,,,,,,,,,,,,,,,,,,,,,,,,,,,,,,,,,,,,,,,,,,,,,,,,,,,,,,,,,,,
,,,,,,,,,,stimuli/images/PICTURE_32.png,PILLS,5f25b1a200ed0b27e21db196,19/11/2001,2020-08-27_18h30.52.238,proactive3.1,2020.1.2,Win32,60,5f47c29a48bd2a1e651a6eb7,5f47ed95d8292a23dfbe5dc1,2,,,,,,crown,,,,,,0,45,45,18,1,2,1,,,,,,,,,,,,,,,,,,,,,,,,,,,,,,,,,,,,,,,,,,,,,,,,,,,,,,,,,,,,,,,,,,,,,,,,,,,,,,,,,,,,,,,,,,,,,,,,,,,,,,,,,,,,,
,,,,,,,,,,stimuli/images/PICTURE_654.png,MONTH,5f25b1a200ed0b27e21db196,19/11/2001,2020-08-27_18h30.52.238,proactive3.1,2020.1.2,Win32,60,5f47c29a48bd2a1e651a6eb7,5f47ed95d8292a23dfbe5dc1,2,,,,,,pencil,,,,,,0,46,46,29,1,3,1,,,,,,,,,,,,,,,,,,,,,,,,,,,,,,,,,,,,,,,,,,,,,,,,,,,,,,,,,,,,,,,,,,,,,,,,,,,,,,,,,,,,,,,,,,,,,,,,,,,,,,,,,,,,,
,,,,,,,,,,stimuli/images/PICTURE_469.png,AGENT,5f25b1a200ed0b27e21db196,19/11/2001,2020-08-27_18h30.52.238,proactive3.1,2020.1.2,Win32,60,5f47c29a48bd2a1e651a6eb7,5f47ed95d8292a23dfbe5dc1,2,,,,,,stool,,,,,,0,47,47,16,1,2,1,,,,,,,,,,,,,,,,,,,,,,,,,,,,,,,,,,,,,,,,,,,,,,,,,,,,,,,,,,,,,,,,,,,,,,,,,,,,,,,,,,,,,,,,,,,,,,,,,,,,,,,,,,,,,
,,,,,,,,,,stimuli/images/PICTURE_203.png,GODS,5f25b1a200ed0b27e21db196,19/11/2001,2020-08-27_18h30.52.238,proactive3.1,2020.1.2,Win32,60,5f47c29a48bd2a1e651a6eb7,5f47ed95d8292a23dfbe5dc1,2,,,,,,cap,,,,,,0,48,48,30,1,4,1,,,,,,,,,,,,,,,,,,,,,,,,,,,,,,,,,,,,,,,,,,,,,,,,,,,,,,,,,,,,,,,,,,,,,,,,,,,,,,,,,,,,,,,,,,,,,,,,,,,,,,,,,,,,,
,,,,,,,,,,stimuli/images/PICTURE_95.png,MILLER,5f25b1a200ed0b27e21db196,19/11/2001,2020-08-27_18h30.52.238,proactive3.1,2020.1.2,Win32,60,5f47c29a48bd2a1e651a6eb7,5f47ed95d8292a23dfbe5dc1,2,,,,,,suitcase,,,,,,0,49,49,56,1,6,1,,,,,,,,,,,,,,,,,,,,,,,,,,,,,,,,,,,,,,,,,,,,,,,,,,,,,,,,,,,,,,,,,,,,,,,,,,,,,,,,,,,,,,,,,,,,,,,,,,,,,,,,,,,,,
,,,,,,,,,,stimuli/images/PICTURE_403.png,WRITER,5f25b1a200ed0b27e21db196,19/11/2001,2020-08-27_18h30.52.238,proactive3.1,2020.1.2,Win32,60,5f47c29a48bd2a1e651a6eb7,5f47ed95d8292a23dfbe5dc1,2,,,,,,cathedral,,,,,,0,50,50,31,1,4,1,,,,,,,,,,,,,,,,,,,,,,,,,,,,,,,,,,,,,,,,,,,,,,,,,,,,,,,,,,,,,,,,,,,,,,,,,,,,,,,,,,,,,,,,,,,,,,,,,,,,,,,,,,,,,
,,,,,,,,,,stimuli/images/PICTURE_675.png,SALE,5f25b1a200ed0b27e21db196,19/11/2001,2020-08-27_18h30.52.238,proactive3.1,2020.1.2,Win32,60,5f47c29a48bd2a1e651a6eb7,5f47ed95d8292a23dfbe5dc1,2,,,,,,windmill,,,,,,0,51,51,47,1,5,1,,,,,,,,,,,,,,,,,,,,,,,,,,,,,,,,,,,,,,,,,,,,,,,,,,,,,,,,,,,,,,,,,,,,,,,,,,,,,,,,,,,,,,,,,,,,,,,,,,,,,,,,,,,,,
,,,,,,,,,,stimuli/images/PICTURE_32.png,KIND,5f25b1a200ed0b27e21db196,19/11/2001,2020-08-27_18h30.52.238,proactive3.1,2020.1.2,Win32,60,5f47c29a48bd2a1e651a6eb7,5f47ed95d8292a23dfbe5dc1,2,,,,,,crown,,,,,,0,52,52,35,1,4,1,,,,,,,,,,,,,,,,,,,,,,,,,,,,,,,,,,,,,,,,,,,,,,,,,,,,,,,,,,,,,,,,,,,,,,,,,,,,,,,,,,,,,,,,,,,,,,,,,,,,,,,,,,,,,
,,,,,,,,,,stimuli/images/PICTURE_380.png,HONEY,5f25b1a200ed0b27e21db196,19/11/2001,2020-08-27_18h30.52.238,proactive3.1,2020.1.2,Win32,60,5f47c29a48bd2a1e651a6eb7,5f47ed95d8292a23dfbe5dc1,2,,,,,,gorilla,,,,,,0,53,53,19,1,2,1,,,,,,,,,,,,,,,,,,,,,,,,,,,,,,,,,,,,,,,,,,,,,,,,,,,,,,,,,,,,,,,,,,,,,,,,,,,,,,,,,,,,,,,,,,,,,,,,,,,,,,,,,,,,,
,,,,,,,,,,stimuli/images/PICTURE_677.png,APPLE,5f25b1a200ed0b27e21db196,19/11/2001,2020-08-27_18h30.52.238,proactive3.1,2020.1.2,Win32,60,5f47c29a48bd2a1e651a6eb7,5f47ed95d8292a23dfbe5dc1,2,,,,,,map,,,,,,0,54,54,43,1,5,1,,,,,,,,,,,,,,,,,,,,,,,,,,,,,,,,,,,,,,,,,,,,,,,,,,,,,,,,,,,,,,,,,,,,,,,,,,,,,,,,,,,,,,,,,,,,,,,,,,,,,,,,,,,,,
,,,,,,,,,,stimuli/images/PICTURE_147.png,WOMEN,5f25b1a200ed0b27e21db196,19/11/2001,2020-08-27_18h30.52.238,proactive3.1,2020.1.2,Win32,60,5f47c29a48bd2a1e651a6eb7,5f47ed95d8292a23dfbe5dc1,2,,,,,,hanger,,,,,,0,55,55,7,1,1,1,,,,,,,,,,,,,,,,,,,,,,,,,,,,,,,,,,,,,,,,,,,,,,,,,,,,,,,,,,,,,,,,,,,,,,,,,,,,,,,,,,,,,,,,,,,,,,,,,,,,,,,,,,,,,
,,,,,,,,,,stimuli/images/PICTURE_85.png,NATION,5f25b1a200ed0b27e21db196,19/11/2001,2020-08-27_18h30.52.238,proactive3.1,2020.1.2,Win32,60,5f47c29a48bd2a1e651a6eb7,5f47ed95d8292a23dfbe5dc1,2,,,,,,diamond,,,,,,0,56,56,5,1,1,1,,,,,,,,,,,,,,,,,,,,,,,,,,,,,,,,,,,,,,,,,,,,,,,,,,,,,,,,,,,,,,,,,,,,,,,,,,,,,,,,,,,,,,,,,,,,,,,,,,,,,,,,,,,,,
,,,,,,,,,,stimuli/images/PICTURE_504.png,ARTIST,5f25b1a200ed0b27e21db196,19/11/2001,2020-08-27_18h30.52.238,proactive3.1,2020.1.2,Win32,60,5f47c29a48bd2a1e651a6eb7,5f47ed95d8292a23dfbe5dc1,2,,,,,,wheel,,,,,,0,57,57,49,1,5,1,,,,,,,,,,,,,,,,,,,,,,,,,,,,,,,,,,,,,,,,,,,,,,,,,,,,,,,,,,,,,,,,,,,,,,,,,,,,,,,,,,,,,,,,,,,,,,,,,,,,,,,,,,,,,
,,,,,,,,,,stimuli/images/PICTURE_108.png,FLIGHT,5f25b1a200ed0b27e21db196,19/11/2001,2020-08-27_18h30.52.238,proactive3.1,2020.1.2,Win32,60,5f47c29a48bd2a1e651a6eb7,5f47ed95d8292a23dfbe5dc1,2,,,,,,calendar,,,,,,0,58,58,59,1,6,1,,,,,,,,,,,,,,,,,,,,,,,,,,,,,,,,,,,,,,,,,,,,,,,,,,,,,,,,,,,,,,,,,,,,,,,,,,,,,,,,,,,,,,,,,,,,,,,,,,,,,,,,,,,,,
,,?,0.003455,0,,,,,,stimuli/images/PICTURE_405.png,PLENTY,5f25b1a200ed0b27e21db196,19/11/2001,2020-08-27_18h30.52.238,proactive3.1,2020.1.2,Win32,60,5f47c29a48bd2a1e651a6eb7,5f47ed95d8292a23dfbe5dc1,2,,,,,,anchor,,,,,,,,,,,3,1,0,0,0,23,1,,,,,,,,,,,,,,,,,,,,,,,,,,,,,,,,,,,,,,,,,,,,,,,,,,,,,,,,,,,,,,,,,,,,,,,,,,,,,,,,,,,,,,,,,,,,,,,,,,,,,,,,
,,?,0.00526,0,,,,,,stimuli/images/PICTURE_95.png,BOYS,5f25b1a200ed0b27e21db196,19/11/2001,2020-08-27_18h30.52.238,proactive3.1,2020.1.2,Win32,60,5f47c29a48bd2a1e651a6eb7,5f47ed95d8292a23dfbe5dc1,2,,,,,,suitcase,,,,,,,,,,,1,1,0,1,1,1,1,,,,,,,,,,,,,,,,,,,,,,,,,,,,,,,,,,,,,,,,,,,,,,,,,,,,,,,,,,,,,,,,,,,,,,,,,,,,,,,,,,,,,,,,,,,,,,,,,,,,,,,,
,,?,0.00498,0,,,,,,stimuli/images/PICTURE_675.png,SALE,5f25b1a200ed0b27e21db196,19/11/2001,2020-08-27_18h30.52.238,proactive3.1,2020.1.2,Win32,60,5f47c29a48bd2a1e651a6eb7,5f47ed95d8292a23dfbe5dc1,2,,,,,,windmill,,,,,,,,,,,5,1,0,2,2,47,1,,,,,,,,,,,,,,,,,,,,,,,,,,,,,,,,,,,,,,,,,,,,,,,,,,,,,,,,,,,,,,,,,,,,,,,,,,,,,,,,,,,,,,,,,,,,,,,,,,,,,,,,
,,CLIENT,9.97816,0,,,,,,stimuli/images/PICTURE_655.png,TOILET,5f25b1a200ed0b27e21db196,19/11/2001,2020-08-27_18h30.52.238,proactive3.1,2020.1.2,Win32,60,5f47c29a48bd2a1e651a6eb7,5f47ed95d8292a23dfbe5dc1,2,,,,,,megaphone,,,,,,,,,,,2,1,0,3,3,12,1,,,,,,,,,,,,,,,,,,,,,,,,,,,,,,,,,,,,,,,,,,,,,,,,,,,,,,,,,,,,,,,,,,,,,,,,,,,,,,,,,,,,,,,,,,,,,,,,,,,,,,,,
,,YEAR,2.495535,1,,,,,,stimuli/images/PICTURE_504.png,YEAR,5f25b1a200ed0b27e21db196,19/11/2001,2020-08-27_18h30.52.238,proactive3.1,2020.1.2,Win32,60,5f47c29a48bd2a1e651a6eb7,5f47ed95d8292a23dfbe5dc1,2,,,,,,wheel,,,,,,,,,,,2,1,0,4,4,13,1,,,,,,,,,,,,,,,,,,,,,,,,,,,,,,,,,,,,,,,,,,,,,,,,,,,,,,,,,,,,,,,,,,,,,,,,,,,,,,,,,,,,,,,,,,,,,,,,,,,,,,,,
,,HONEY,3.131235,1,,,,,,stimuli/images/PICTURE_380.png,HONEY,5f25b1a200ed0b27e21db196,19/11/2001,2020-08-27_18h30.52.238,proactive3.1,2020.1.2,Win32,60,5f47c29a48bd2a1e651a6eb7,5f47ed95d8292a23dfbe5dc1,2,,,,,,gorilla,,,,,,,,,,,2,1,0,5,5,19,1,,,,,,,,,,,,,,,,,,,,,,,,,,,,,,,,,,,,,,,,,,,,,,,,,,,,,,,,,,,,,,,,,,,,,,,,,,,,,,,,,,,,,,,,,,,,,,,,,,,,,,,,
,,?,0.00333,0,,,,,,stimuli/images/PICTURE_487.png,GIRL,5f25b1a200ed0b27e21db196,19/11/2001,2020-08-27_18h30.52.238,proactive3.1,2020.1.2,Win32,60,5f47c29a48bd2a1e651a6eb7,5f47ed95d8292a23dfbe5dc1,2,,,,,,basket,,,,,,,,,,,5,1,0,6,6,45,1,,,,,,,,,,,,,,,,,,,,,,,,,,,,,,,,,,,,,,,,,,,,,,,,,,,,,,,,,,,,,,,,,,,,,,,,,,,,,,,,,,,,,,,,,,,,,,,,,,,,,,,,
,,?,0.00301,0,,,,,,stimuli/images/PICTURE_708.png,RECORD,5f25b1a200ed0b27e21db196,19/11/2001,2020-08-27_18h30.52.238,proactive3.1,2020.1.2,Win32,60,5f47c29a48bd2a1e651a6eb7,5f47ed95d8292a23dfbe5dc1,2,,,,,,monkey,,,,,,,,,,,6,1,0,7,7,58,1,,,,,,,,,,,,,,,,,,,,,,,,,,,,,,,,,,,,,,,,,,,,,,,,,,,,,,,,,,,,,,,,,,,,,,,,,,,,,,,,,,,,,,,,,,,,,,,,,,,,,,,,
,,?,0.00292,0,,,,,,stimuli/images/PICTURE_403.png,TOILET,5f25b1a200ed0b27e21db196,19/11/2001,2020-08-27_18h30.52.238,proactive3.1,2020.1.2,Win32,60,5f47c29a48bd2a1e651a6eb7,5f47ed95d8292a23dfbe5dc1,2,,,,,,cathedral,,,,,,,,,,,3,1,0,8,8,25,1,,,,,,,,,,,,,,,,,,,,,,,,,,,,,,,,,,,,,,,,,,,,,,,,,,,,,,,,,,,,,,,,,,,,,,,,,,,,,,,,,,,,,,,,,,,,,,,,,,,,,,,,
,,?,0.00304,0,,,,,,stimuli/images/PICTURE_296.png,LIFE,5f25b1a200ed0b27e21db196,19/11/2001,2020-08-27_18h30.52.238,proactive3.1,2020.1.2,Win32,60,5f47c29a48bd2a1e651a6eb7,5f47ed95d8292a23dfbe5dc1,2,,,,,,bolt,,,,,,,,,,,6,1,0,9,9,57,1,,,,,,,,,,,,,,,,,,,,,,,,,,,,,,,,,,,,,,,,,,,,,,,,,,,,,,,,,,,,,,,,,,,,,,,,,,,,,,,,,,,,,,,,,,,,,,,,,,,,,,,,
,,?,0.002935,0,,,,,,stimuli/images/PICTURE_68.png,ROOF,5f25b1a200ed0b27e21db196,19/11/2001,2020-08-27_18h30.52.238,proactive3.1,2020.1.2,Win32,60,5f47c29a48bd2a1e651a6eb7,5f47ed95d8292a23dfbe5dc1,2,,,,,,candle,,,,,,,,,,,4,1,0,10,10,38,1,,,,,,,,,,,,,,,,,,,,,,,,,,,,,,,,,,,,,,,,,,,,,,,,,,,,,,,,,,,,,,,,,,,,,,,,,,,,,,,,,,,,,,,,,,,,,,,,,,,,,,,,
,,?,0.003425,0,,,,,,stimuli/images/PICTURE_383.png,SERIES,5f25b1a200ed0b27e21db196,19/11/2001,2020-08-27_18h30.52.238,proactive3.1,2020.1.2,Win32,60,5f47c29a48bd2a1e651a6eb7,5f47ed95d8292a23dfbe5dc1,2,,,,,,coin,,,,,,,,,,,5,1,0,11,11,46,1,,,,,,,,,,,,,,,,,,,,,,,,,,,,,,,,,,,,,,,,,,,,,,,,,,,,,,,,,,,,,,,,,,,,,,,,,,,,,,,,,,,,,,,,,,,,,,,,,,,,,,,,
,,?,0.00305,0,,,,,,stimuli/images/PICTURE_504.png,ARTIST,5f25b1a200ed0b27e21db196,19/11/2001,2020-08-27_18h30.52.238,proactive3.1,2020.1.2,Win32,60,5f47c29a48bd2a1e651a6eb7,5f47ed95d8292a23dfbe5dc1,2,,,,,,wheel,,,,,,,,,,,5,1,0,12,12,49,1,,,,,,,,,,,,,,,,,,,,,,,,,,,,,,,,,,,,,,,,,,,,,,,,,,,,,,,,,,,,,,,,,,,,,,,,,,,,,,,,,,,,,,,,,,,,,,,,,,,,,,,,
,,?,0.002045,0,,,,,,stimuli/images/PICTURE_297.png,RIVER,5f25b1a200ed0b27e21db196,19/11/2001,2020-08-27_18h30.52.238,proactive3.1,2020.1.2,Win32,60,5f47c29a48bd2a1e651a6eb7,5f47ed95d8292a23dfbe5dc1,2,,,,,,aeroplane,,,,,,,,,,,4,1,0,13,13,39,1,,,,,,,,,,,,,,,,,,,,,,,,,,,,,,,,,,,,,,,,,,,,,,,,,,,,,,,,,,,,,,,,,,,,,,,,,,,,,,,,,,,,,,,,,,,,,,,,,,,,,,,,
,,?,0.00197,0,,,,,,stimuli/images/PICTURE_68.png,MILE,5f25b1a200ed0b27e21db196,19/11/2001,2020-08-27_18h30.52.238,proactive3.1,2020.1.2,Win32,60,5f47c29a48bd2a1e651a6eb7,5f47ed95d8292a23dfbe5dc1,2,,,,,,candle,,,,,,,,,,,6,1,0,14,14,51,1,,,,,,,,,,,,,,,,,,,,,,,,,,,,,,,,,,,,,,,,,,,,,,,,,,,,,,,,,,,,,,,,,,,,,,,,,,,,,,,,,,,,,,,,,,,,,,,,,,,,,,,,
,,?,0.00197,0,,,,,,stimuli/images/PICTURE_685.png,PENNY,5f25b1a200ed0b27e21db196,19/11/2001,2020-08-27_18h30.52.238,proactive3.1,2020.1.2,Win32,60,5f47c29a48bd2a1e651a6eb7,5f47ed95d8292a23dfbe5dc1,2,,,,,,goose,,,,,,,,,,,1,1,0,15,15,4,1,,,,,,,,,,,,,,,,,,,,,,,,,,,,,,,,,,,,,,,,,,,,,,,,,,,,,,,,,,,,,,,,,,,,,,,,,,,,,,,,,,,,,,,,,,,,,,,,,,,,,,,,
,,?,0.002245,0,,,,,,stimuli/images/PICTURE_57.png,MOMENT,5f25b1a200ed0b27e21db196,19/11/2001,2020-08-27_18h30.52.238,proactive3.1,2020.1.2,Win32,60,5f47c29a48bd2a1e651a6eb7,5f47ed95d8292a23dfbe5dc1,2,,,,,,stamp,,,,,,,,,,,4,1,0,16,16,37,1,,,,,,,,,,,,,,,,,,,,,,,,,,,,,,,,,,,,,,,,,,,,,,,,,,,,,,,,,,,,,,,,,,,,,,,,,,,,,,,,,,,,,,,,,,,,,,,,,,,,,,,,
,,?,0.004745,0,,,,,,stimuli/images/PICTURE_744.png,WEAPON,5f25b1a200ed0b27e21db196,19/11/2001,2020-08-27_18h30.52.238,proactive3.1,2020.1.2,Win32,60,5f47c29a48bd2a1e651a6eb7,5f47ed95d8292a23dfbe5dc1,2,,,,,,ring,,,,,,,,,,,6,1,0,17,17,50,1,,,,,,,,,,,,,,,,,,,,,,,,,,,,,,,,,,,,,,,,,,,,,,,,,,,,,,,,,,,,,,,,,,,,,,,,,,,,,,,,,,,,,,,,,,,,,,,,,,,,,,,,
,,?,0.00256,0,,,,,,stimuli/images/PICTURE_654.png,MONTH,5f25b1a200ed0b27e21db196,19/11/2001,2020-08-27_18h30.52.238,proactive3.1,2020.1.2,Win32,60,5f47c29a48bd2a1e651a6eb7,5f47ed95d8292a23dfbe5dc1,2,,,,,,pencil,,,,,,,,,,,3,1,0,18,18,29,1,,,,,,,,,,,,,,,,,,,,,,,,,,,,,,,,,,,,,,,,,,,,,,,,,,,,,,,,,,,,,,,,,,,,,,,,,,,,,,,,,,,,,,,,,,,,,,,,,,,,,,,,
,,?,0.00198,0,,,,,,stimuli/images/PICTURE_177.png,WRITER,5f25b1a200ed0b27e21db196,19/11/2001,2020-08-27_18h30.52.238,proactive3.1,2020.1.2,Win32,60,5f47c29a48bd2a1e651a6eb7,5f47ed95d8292a23dfbe5dc1,2,,,,,,mushroom,,,,,,,,,,,5,1,0,19,19,41,1,,,,,,,,,,,,,,,,,,,,,,,,,,,,,,,,,,,,,,,,,,,,,,,,,,,,,,,,,,,,,,,,,,,,,,,,,,,,,,,,,,,,,,,,,,,,,,,,,,,,,,,,
,,?,0.00221,0,,,,,,stimuli/images/PICTURE_340.png,VALLEY,5f25b1a200ed0b27e21db196,19/11/2001,2020-08-27_18h30.52.238,proactive3.1,2020.1.2,Win32,60,5f47c29a48bd2a1e651a6eb7,5f47ed95d8292a23dfbe5dc1,2,,,,,,mirror,,,,,,,,,,,6,1,0,20,20,54,1,,,,,,,,,,,,,,,,,,,,,,,,,,,,,,,,,,,,,,,,,,,,,,,,,,,,,,,,,,,,,,,,,,,,,,,,,,,,,,,,,,,,,,,,,,,,,,,,,,,,,,,,
,,?,0.00211,0,,,,,,stimuli/images/PICTURE_32.png,KIND,5f25b1a200ed0b27e21db196,19/11/2001,2020-08-27_18h30.52.238,proactive3.1,2020.1.2,Win32,60,5f47c29a48bd2a1e651a6eb7,5f47ed95d8292a23dfbe5dc1,2,,,,,,crown,,,,,,,,,,,4,1,0,21,21,35,1,,,,,,,,,,,,,,,,,,,,,,,,,,,,,,,,,,,,,,,,,,,,,,,,,,,,,,,,,,,,,,,,,,,,,,,,,,,,,,,,,,,,,,,,,,,,,,,,,,,,,,,,
,,?,0.00195,0,,,,,,stimuli/images/PICTURE_33.png,FRIEND,5f25b1a200ed0b27e21db196,19/11/2001,2020-08-27_18h30.52.238,proactive3.1,2020.1.2,Win32,60,5f47c29a48bd2a1e651a6eb7,5f47ed95d8292a23dfbe5dc1,2,,,,,,frame,,,,,,,,,,,1,1,0,22,22,8,1,,,,,,,,,,,,,,,,,,,,,,,,,,,,,,,,,,,,,,,,,,,,,,,,,,,,,,,,,,,,,,,,,,,,,,,,,,,,,,,,,,,,,,,,,,,,,,,,,,,,,,,,
,,?,0.00204,0,,,,,,stimuli/images/PICTURE_147.png,YEAR,5f25b1a200ed0b27e21db196,19/11/2001,2020-08-27_18h30.52.238,proactive3.1,2020.1.2,Win32,60,5f47c29a48bd2a1e651a6eb7,5f47ed95d8292a23dfbe5dc1,2,,,,,,hanger,,,,,,,,,,,3,1,0,23,23,21,1,,,,,,,,,,,,,,,,,,,,,,,,,,,,,,,,,,,,,,,,,,,,,,,,,,,,,,,,,,,,,,,,,,,,,,,,,,,,,,,,,,,,,,,,,,,,,,,,,,,,,,,,
,,?,0.001945,0,,,,,,stimuli/images/PICTURE_383.png,WRITER,5f25b1a200ed0b27e21db196,19/11/2001,2020-08-27_18h30.52.238,proactive3.1,2020.1.2,Win32,60,5f47c29a48bd2a1e651a6eb7,5f47ed95d8292a23dfbe5dc1,2,,,,,,coin,,,,,,,,,,,3,1,0,24,24,28,1,,,,,,,,,,,,,,,,,,,,,,,,,,,,,,,,,,,,,,,,,,,,,,,,,,,,,,,,,,,,,,,,,,,,,,,,,,,,,,,,,,,,,,,,,,,,,,,,,,,,,,,,
,,?,0.003395,0,,,,,,stimuli/images/PICTURE_95.png,MILLER,5f25b1a200ed0b27e21db196,19/11/2001,2020-08-27_18h30.52.238,proactive3.1,2020.1.2,Win32,60,5f47c29a48bd2a1e651a6eb7,5f47ed95d8292a23dfbe5dc1,2,,,,,,suitcase,,,,,,,,,,,6,1,0,25,25,56,1,,,,,,,,,,,,,,,,,,,,,,,,,,,,,,,,,,,,,,,,,,,,,,,,,,,,,,,,,,,,,,,,,,,,,,,,,,,,,,,,,,,,,,,,,,,,,,,,,,,,,,,,
,,?,0.00208,0,,,,,,stimuli/images/PICTURE_285.png,LIFE,5f25b1a200ed0b27e21db196,19/11/2001,2020-08-27_18h30.52.238,proactive3.1,2020.1.2,Win32,60,5f47c29a48bd2a1e651a6eb7,5f47ed95d8292a23dfbe5dc1,2,,,,,,carrot,,,,,,,,,,,4,1,0,26,26,33,1,,,,,,,,,,,,,,,,,,,,,,,,,,,,,,,,,,,,,,,,,,,,,,,,,,,,,,,,,,,,,,,,,,,,,,,,,,,,,,,,,,,,,,,,,,,,,,,,,,,,,,,,
,,?,0.00191,0,,,,,,stimuli/images/PICTURE_208.png,SYSTEM,5f25b1a200ed0b27e21db196,19/11/2001,2020-08-27_18h30.52.238,proactive3.1,2020.1.2,Win32,60,5f47c29a48bd2a1e651a6eb7,5f47ed95d8292a23dfbe5dc1,2,,,,,,microphone,,,,,,,,,,,4,1,0,27,27,32,1,,,,,,,,,,,,,,,,,,,,,,,,,,,,,,,,,,,,,,,,,,,,,,,,,,,,,,,,,,,,,,,,,,,,,,,,,,,,,,,,,,,,,,,,,,,,,,,,,,,,,,,,
,,?,0.001905,0,,,,,,stimuli/images/PICTURE_108.png,FLIGHT,5f25b1a200ed0b27e21db196,19/11/2001,2020-08-27_18h30.52.238,proactive3.1,2020.1.2,Win32,60,5f47c29a48bd2a1e651a6eb7,5f47ed95d8292a23dfbe5dc1,2,,,,,,calendar,,,,,,,,,,,6,1,0,28,28,59,1,,,,,,,,,,,,,,,,,,,,,,,,,,,,,,,,,,,,,,,,,,,,,,,,,,,,,,,,,,,,,,,,,,,,,,,,,,,,,,,,,,,,,,,,,,,,,,,,,,,,,,,,
,,PILLS,3.266705,1,,,,,,stimuli/images/PICTURE_32.png,PILLS,5f25b1a200ed0b27e21db196,19/11/2001,2020-08-27_18h30.52.238,proactive3.1,2020.1.2,Win32,60,5f47c29a48bd2a1e651a6eb7,5f47ed95d8292a23dfbe5dc1,2,,,,,,crown,,,,,,,,,,,2,1,0,29,29,18,1,,,,,,,,,,,,,,,,,,,,,,,,,,,,,,,,,,,,,,,,,,,,,,,,,,,,,,,,,,,,,,,,,,,,,,,,,,,,,,,,,,,,,,,,,,,,,,,,,,,,,,,,
,,?,0.003815,0,,,,,,stimuli/images/PICTURE_85.png,NATION,5f25b1a200ed0b27e21db196,19/11/2001,2020-08-27_18h30.52.238,proactive3.1,2020.1.2,Win32,60,5f47c29a48bd2a1e651a6eb7,5f47ed95d8292a23dfbe5dc1,2,,,,,,diamond,,,,,,,,,,,1,1,0,30,30,5,1,,,,,,,,,,,,,,,,,,,,,,,,,,,,,,,,,,,,,,,,,,,,,,,,,,,,,,,,,,,,,,,,,,,,,,,,,,,,,,,,,,,,,,,,,,,,,,,,,,,,,,,,
,,?,0.005705,0,,,,,,stimuli/images/PICTURE_147.png,WOMEN,5f25b1a200ed0b27e21db196,19/11/2001,2020-08-27_18h30.52.238,proactive3.1,2020.1.2,Win32,60,5f47c29a48bd2a1e651a6eb7,5f47ed95d8292a23dfbe5dc1,2,,,,,,hanger,,,,,,,,,,,1,1,0,31,31,7,1,,,,,,,,,,,,,,,,,,,,,,,,,,,,,,,,,,,,,,,,,,,,,,,,,,,,,,,,,,,,,,,,,,,,,,,,,,,,,,,,,,,,,,,,,,,,,,,,,,,,,,,,
,,?,0.00359,0,,,,,,stimuli/images/PICTURE_108.png,POLICY,5f25b1a200ed0b27e21db196,19/11/2001,2020-08-27_18h30.52.238,proactive3.1,2020.1.2,Win32,60,5f47c29a48bd2a1e651a6eb7,5f47ed95d8292a23dfbe5dc1,2,,,,,,calendar,,,,,,,,,,,3,1,0,32,32,22,1,,,,,,,,,,,,,,,,,,,,,,,,,,,,,,,,,,,,,,,,,,,,,,,,,,,,,,,,,,,,,,,,,,,,,,,,,,,,,,,,,,,,,,,,,,,,,,,,,,,,,,,,
,,?,0.0028,0,,,,,,stimuli/images/PICTURE_467.png,POLICY,5f25b1a200ed0b27e21db196,19/11/2001,2020-08-27_18h30.52.238,proactive3.1,2020.1.2,Win32,60,5f47c29a48bd2a1e651a6eb7,5f47ed95d8292a23dfbe5dc1,2,,,,,,peg,,,,,,,,,,,6,1,0,33,33,53,1,,,,,,,,,,,,,,,,,,,,,,,,,,,,,,,,,,,,,,,,,,,,,,,,,,,,,,,,,,,,,,,,,,,,,,,,,,,,,,,,,,,,,,,,,,,,,,,,,,,,,,,,
,,RIVER,3.195,1,,,,,,stimuli/images/PICTURE_667.png,RIVER,5f25b1a200ed0b27e21db196,19/11/2001,2020-08-27_18h30.52.238,proactive3.1,2020.1.2,Win32,60,5f47c29a48bd2a1e651a6eb7,5f47ed95d8292a23dfbe5dc1,2,,,,,,daisy,,,,,,,,,,,2,1,0,34,34,10,1,,,,,,,,,,,,,,,,,,,,,,,,,,,,,,,,,,,,,,,,,,,,,,,,,,,,,,,,,,,,,,,,,,,,,,,,,,,,,,,,,,,,,,,,,,,,,,,,,,,,,,,,
,,LOST,6.446495,0,,,,,,stimuli/images/PICTURE_449.png,DUDE,5f25b1a200ed0b27e21db196,19/11/2001,2020-08-27_18h30.52.238,proactive3.1,2020.1.2,Win32,60,5f47c29a48bd2a1e651a6eb7,5f47ed95d8292a23dfbe5dc1,2,,,,,,bench,,,,,,,,,,,2,1,0,35,35,17,1,,,,,,,,,,,,,,,,,,,,,,,,,,,,,,,,,,,,,,,,,,,,,,,,,,,,,,,,,,,,,,,,,,,,,,,,,,,,,,,,,,,,,,,,,,,,,,,,,,,,,,,,
,,?,0.00326,0,,,,,,stimuli/images/PICTURE_405.png,YEAR,5f25b1a200ed0b27e21db196,19/11/2001,2020-08-27_18h30.52.238,proactive3.1,2020.1.2,Win32,60,5f47c29a48bd2a1e651a6eb7,5f47ed95d8292a23dfbe5dc1,2,,,,,,anchor,,,,,,,,,,,4,1,0,36,36,34,1,,,,,,,,,,,,,,,,,,,,,,,,,,,,,,,,,,,,,,,,,,,,,,,,,,,,,,,,,,,,,,,,,,,,,,,,,,,,,,,,,,,,,,,,,,,,,,,,,,,,,,,,
,,?,5.753725,0,,,,,,stimuli/images/PICTURE_469.png,AGENT,5f25b1a200ed0b27e21db196,19/11/2001,2020-08-27_18h30.52.238,proactive3.1,2020.1.2,Win32,60,5f47c29a48bd2a1e651a6eb7,5f47ed95d8292a23dfbe5dc1,2,,,,,,stool,,,,,,,,,,,2,1,0,37,37,16,1,,,,,,,,,,,,,,,,,,,,,,,,,,,,,,,,,,,,,,,,,,,,,,,,,,,,,,,,,,,,,,,,,,,,,,,,,,,,,,,,,,,,,,,,,,,,,,,,,,,,,,,,
,,?,4.563215,0,,,,,,stimuli/images/PICTURE_2.png,FLIGHT,5f25b1a200ed0b27e21db196,19/11/2001,2020-08-27_18h30.52.238,proactive3.1,2020.1.2,Win32,60,5f47c29a48bd2a1e651a6eb7,5f47ed95d8292a23dfbe5dc1,2,,,,,,tyre,,,,,,,,,,,2,1,0,38,38,15,1,,,,,,,,,,,,,,,,,,,,,,,,,,,,,,,,,,,,,,,,,,,,,,,,,,,,,,,,,,,,,,,,,,,,,,,,,,,,,,,,,,,,,,,,,,,,,,,,,,,,,,,,
,,?,0.003315,0,,,,,,stimuli/images/PICTURE_296.png,LOTS,5f25b1a200ed0b27e21db196,19/11/2001,2020-08-27_18h30.52.238,proactive3.1,2020.1.2,Win32,60,5f47c29a48bd2a1e651a6eb7,5f47ed95d8292a23dfbe5dc1,2,,,,,,bolt,,,,,,,,,,,1,1,0,39,39,9,1,,,,,,,,,,,,,,,,,,,,,,,,,,,,,,,,,,,,,,,,,,,,,,,,,,,,,,,,,,,,,,,,,,,,,,,,,,,,,,,,,,,,,,,,,,,,,,,,,,,,,,,,
,,?,0.00438,0,,,,,,stimuli/images/PICTURE_564.png,BATH,5f25b1a200ed0b27e21db196,19/11/2001,2020-08-27_18h30.52.238,proactive3.1,2020.1.2,Win32,60,5f47c29a48bd2a1e651a6eb7,5f47ed95d8292a23dfbe5dc1,2,,,,,,spoon,,,,,,,,,,,3,1,0,40,40,26,1,,,,,,,,,,,,,,,,,,,,,,,,,,,,,,,,,,,,,,,,,,,,,,,,,,,,,,,,,,,,,,,,,,,,,,,,,,,,,,,,,,,,,,,,,,,,,,,,,,,,,,,,
,,CLIENT,3.010385,1,,,,,,stimuli/images/PICTURE_339.png,CLIENT,5f25b1a200ed0b27e21db196,19/11/2001,2020-08-27_18h30.52.238,proactive3.1,2020.1.2,Win32,60,5f47c29a48bd2a1e651a6eb7,5f47ed95d8292a23dfbe5dc1,2,,,,,,backpack,,,,,,,,,,,2,1,0,41,41,11,1,,,,,,,,,,,,,,,,,,,,,,,,,,,,,,,,,,,,,,,,,,,,,,,,,,,,,,,,,,,,,,,,,,,,,,,,,,,,,,,,,,,,,,,,,,,,,,,,,,,,,,,,
,,LOST,9.896825,0,,,,,,stimuli/images/PICTURE_491.png,GLASS,5f25b1a200ed0b27e21db196,19/11/2001,2020-08-27_18h30.52.238,proactive3.1,2020.1.2,Win32,60,5f47c29a48bd2a1e651a6eb7,5f47ed95d8292a23dfbe5dc1,2,,,,,,rug,,,,,,,,,,,2,1,0,42,42,14,1,,,,,,,,,,,,,,,,,,,,,,,,,,,,,,,,,,,,,,,,,,,,,,,,,,,,,,,,,,,,,,,,,,,,,,,,,,,,,,,,,,,,,,,,,,,,,,,,,,,,,,,,
,,?,0.00292,0,,,,,,stimuli/images/PICTURE_308.png,FAMILY,5f25b1a200ed0b27e21db196,19/11/2001,2020-08-27_18h30.52.238,proactive3.1,2020.1.2,Win32,60,5f47c29a48bd2a1e651a6eb7,5f47ed95d8292a23dfbe5dc1,2,,,,,,dice,,,,,,,,,,,4,1,0,43,43,36,1,,,,,,,,,,,,,,,,,,,,,,,,,,,,,,,,,,,,,,,,,,,,,,,,,,,,,,,,,,,,,,,,,,,,,,,,,,,,,,,,,,,,,,,,,,,,,,,,,,,,,,,,
,,?,0.00292,0,,,,,,stimuli/images/PICTURE_403.png,RIVER,5f25b1a200ed0b27e21db196,19/11/2001,2020-08-27_18h30.52.238,proactive3.1,2020.1.2,Win32,60,5f47c29a48bd2a1e651a6eb7,5f47ed95d8292a23dfbe5dc1,2,,,,,,cathedral,,,,,,,,,,,5,1,0,44,44,40,1,,,,,,,,,,,,,,,,,,,,,,,,,,,,,,,,,,,,,,,,,,,,,,,,,,,,,,,,,,,,,,,,,,,,,,,,,,,,,,,,,,,,,,,,,,,,,,,,,,,,,,,,
,,?,0.002765,0,,,,,,stimuli/images/PICTURE_85.png,TOILET,5f25b1a200ed0b27e21db196,19/11/2001,2020-08-27_18h30.52.238,proactive3.1,2020.1.2,Win32,60,5f47c29a48bd2a1e651a6eb7,5f47ed95d8292a23dfbe5dc1,2,,,,,,diamond,,,,,,,,,,,5,1,0,45,45,48,1,,,,,,,,,,,,,,,,,,,,,,,,,,,,,,,,,,,,,,,,,,,,,,,,,,,,,,,,,,,,,,,,,,,,,,,,,,,,,,,,,,,,,,,,,,,,,,,,,,,,,,,,
,,?,0.002835,0,,,,,,stimuli/images/PICTURE_42.png,BOYS,5f25b1a200ed0b27e21db196,19/11/2001,2020-08-27_18h30.52.238,proactive3.1,2020.1.2,Win32,60,5f47c29a48bd2a1e651a6eb7,5f47ed95d8292a23dfbe5dc1,2,,,,,,pear,,,,,,,,,,,6,1,0,46,46,55,1,,,,,,,,,,,,,,,,,,,,,,,,,,,,,,,,,,,,,,,,,,,,,,,,,,,,,,,,,,,,,,,,,,,,,,,,,,,,,,,,,,,,,,,,,,,,,,,,,,,,,,,,
,,?,0.004015,0,,,,,,stimuli/images/PICTURE_380.png,CANDY,5f25b1a200ed0b27e21db196,19/11/2001,2020-08-27_18h30.52.238,proactive3.1,2020.1.2,Win32,60,5f47c29a48bd2a1e651a6eb7,5f47ed95d8292a23dfbe5dc1,2,,,,,,gorilla,,,,,,,,,,,1,1,0,47,47,0,1,,,,,,,,,,,,,,,,,,,,,,,,,,,,,,,,,,,,,,,,,,,,,,,,,,,,,,,,,,,,,,,,,,,,,,,,,,,,,,,,,,,,,,,,,,,,,,,,,,,,,,,,
,,?,0.003085,0,,,,,,stimuli/images/PICTURE_750.png,HOTEL,5f25b1a200ed0b27e21db196,19/11/2001,2020-08-27_18h30.52.238,proactive3.1,2020.1.2,Win32,60,5f47c29a48bd2a1e651a6eb7,5f47ed95d8292a23dfbe5dc1,2,,,,,,kettle,,,,,,,,,,,3,1,0,48,48,27,1,,,,,,,,,,,,,,,,,,,,,,,,,,,,,,,,,,,,,,,,,,,,,,,,,,,,,,,,,,,,,,,,,,,,,,,,,,,,,,,,,,,,,,,,,,,,,,,,,,,,,,,,
,,?,0.002455,0,,,,,,stimuli/images/PICTURE_95.png,HONEY,5f25b1a200ed0b27e21db196,19/11/2001,2020-08-27_18h30.52.238,proactive3.1,2020.1.2,Win32,60,5f47c29a48bd2a1e651a6eb7,5f47ed95d8292a23dfbe5dc1,2,,,,,,suitcase,,,,,,,,,,,5,1,0,49,49,44,1,,,,,,,,,,,,,,,,,,,,,,,,,,,,,,,,,,,,,,,,,,,,,,,,,,,,,,,,,,,,,,,,,,,,,,,,,,,,,,,,,,,,,,,,,,,,,,,,,,,,,,,,
,,?,0.001935,0,,,,,,stimuli/images/PICTURE_677.png,APPLE,5f25b1a200ed0b27e21db196,19/11/2001,2020-08-27_18h30.52.238,proactive3.1,2020.1.2,Win32,60,5f47c29a48bd2a1e651a6eb7,5f47ed95d8292a23dfbe5dc1,2,,,,,,map,,,,,,,,,,,5,1,0,50,50,43,1,,,,,,,,,,,,,,,,,,,,,,,,,,,,,,,,,,,,,,,,,,,,,,,,,,,,,,,,,,,,,,,,,,,,,,,,,,,,,,,,,,,,,,,,,,,,,,,,,,,,,,,,
,,?,0.001875,0,,,,,,stimuli/images/PICTURE_203.png,NIGHT,5f25b1a200ed0b27e21db196,19/11/2001,2020-08-27_18h30.52.238,proactive3.1,2020.1.2,Win32,60,5f47c29a48bd2a1e651a6eb7,5f47ed95d8292a23dfbe5dc1,2,,,,,,cap,,,,,,,,,,,1,1,0,51,51,2,1,,,,,,,,,,,,,,,,,,,,,,,,,,,,,,,,,,,,,,,,,,,,,,,,,,,,,,,,,,,,,,,,,,,,,,,,,,,,,,,,,,,,,,,,,,,,,,,,,,,,,,,,
,,?,0.006155,0,,,,,,stimuli/images/PICTURE_491.png,RIVER,5f25b1a200ed0b27e21db196,19/11/2001,2020-08-27_18h30.52.238,proactive3.1,2020.1.2,Win32,60,5f47c29a48bd2a1e651a6eb7,5f47ed95d8292a23dfbe5dc1,2,,,,,,rug,,,,,,,,,,,1,1,0,52,52,6,1,,,,,,,,,,,,,,,,,,,,,,,,,,,,,,,,,,,,,,,,,,,,,,,,,,,,,,,,,,,,,,,,,,,,,,,,,,,,,,,,,,,,,,,,,,,,,,,,,,,,,,,,
,,?,0.00181,0,,,,,,stimuli/images/PICTURE_504.png,COPS,5f25b1a200ed0b27e21db196,19/11/2001,2020-08-27_18h30.52.238,proactive3.1,2020.1.2,Win32,60,5f47c29a48bd2a1e651a6eb7,5f47ed95d8292a23dfbe5dc1,2,,,,,,wheel,,,,,,,,,,,6,1,0,53,53,52,1,,,,,,,,,,,,,,,,,,,,,,,,,,,,,,,,,,,,,,,,,,,,,,,,,,,,,,,,,,,,,,,,,,,,,,,,,,,,,,,,,,,,,,,,,,,,,,,,,,,,,,,,
,,?,0.002125,0,,,,,,stimuli/images/PICTURE_203.png,GODS,5f25b1a200ed0b27e21db196,19/11/2001,2020-08-27_18h30.52.238,proactive3.1,2020.1.2,Win32,60,5f47c29a48bd2a1e651a6eb7,5f47ed95d8292a23dfbe5dc1,2,,,,,,cap,,,,,,,,,,,4,1,0,54,54,30,1,,,,,,,,,,,,,,,,,,,,,,,,,,,,,,,,,,,,,,,,,,,,,,,,,,,,,,,,,,,,,,,,,,,,,,,,,,,,,,,,,,,,,,,,,,,,,,,,,,,,,,,,
,,?,0.00205,0,,,,,,stimuli/images/PICTURE_327.png,CASINO,5f25b1a200ed0b27e21db196,19/11/2001,2020-08-27_18h30.52.238,proactive3.1,2020.1.2,Win32,60,5f47c29a48bd2a1e651a6eb7,5f47ed95d8292a23dfbe5dc1,2,,,,,,helmet,,,,,,,,,,,3,1,0,55,55,20,1,,,,,,,,,,,,,,,,,,,,,,,,,,,,,,,,,,,,,,,,,,,,,,,,,,,,,,,,,,,,,,,,,,,,,,,,,,,,,,,,,,,,,,,,,,,,,,,,,,,,,,,,
,,?,0.001895,0,,,,,,stimuli/images/PICTURE_327.png,SERIES,5f25b1a200ed0b27e21db196,19/11/2001,2020-08-27_18h30.52.238,proactive3.1,2020.1.2,Win32,60,5f47c29a48bd2a1e651a6eb7,5f47ed95d8292a23dfbe5dc1,2,,,,,,helmet,,,,,,,,,,,1,1,0,56,56,3,1,,,,,,,,,,,,,,,,,,,,,,,,,,,,,,,,,,,,,,,,,,,,,,,,,,,,,,,,,,,,,,,,,,,,,,,,,,,,,,,,,,,,,,,,,,,,,,,,,,,,,,,,
,,?,0.00205,0,,,,,,stimuli/images/PICTURE_403.png,WRITER,5f25b1a200ed0b27e21db196,19/11/2001,2020-08-27_18h30.52.238,proactive3.1,2020.1.2,Win32,60,5f47c29a48bd2a1e651a6eb7,5f47ed95d8292a23dfbe5dc1,2,,,,,,cathedral,,,,,,,,,,,4,1,0,57,57,31,1,,,,,,,,,,,,,,,,,,,,,,,,,,,,,,,,,,,,,,,,,,,,,,,,,,,,,,,,,,,,,,,,,,,,,,,,,,,,,,,,,,,,,,,,,,,,,,,,,,,,,,,,
,,?,0.0019,0,,,,,,stimuli/images/PICTURE_340.png,LETTER,5f25b1a200ed0b27e21db196,19/11/2001,2020-08-27_18h30.52.238,proactive3.1,2020.1.2,Win32,60,5f47c29a48bd2a1e651a6eb7,5f47ed95d8292a23dfbe5dc1,2,,,,,,mirror,,,,,,,,,,,3,1,0,58,58,24,1,,,,,,,,,,,,,,,,,,,,,,,,,,,,,,,,,,,,,,,,,,,,,,,,,,,,,,,,,,,,,,,,,,,,,,,,,,,,,,,,,,,,,,,,,,,,,,,,,,,,,,,,
,,?,0.001865,0,,,,,,stimuli/images/PICTURE_233.png,LOTS,5f25b1a200ed0b27e21db196,19/11/2001,2020-08-27_18h30.52.238,proactive3.1,2020.1.2,Win32,60,5f47c29a48bd2a1e651a6eb7,5f47ed95d8292a23dfbe5dc1,2,,,,,,salt,,,,,,,,,,,5,1,0,59,59,42,1,,,,,,,,,,,,,,,,,,,,,,,,,,,,,,,,,,,,,,,,,,,,,,,,,,,,,,,,,,,,,,,,,,,,,,,,,,,,,,,,,,,,,,,,,,,,,,,,,,,,,,,,
,,,,,,,,,,,,5f25b1a200ed0b27e21db196,19/11/2001,2020-08-27_18h30.52.238,proactive3.1,2020.1.2,Win32,60,5f47c29a48bd2a1e651a6eb7,5f47ed95d8292a23dfbe5dc1,2,,,,,,,,,,,,,,,,,,,,,,,,0,0,0,1,1,stimuli/learn-block2.csv,,,,,,,,,,,,,,,,,,,,,,,,,,,,,,,,,,,,,,,,,,,,,,,,,,,,,,,,,,,,,,,,,,,,,,,,,,,,,,,,,,,,,,,,,,,,,,,,,,
,,,,,,,,,,stimuli/images/PICTURE_487.png,FLIGHT,5f25b1a200ed0b27e21db196,19/11/2001,2020-08-27_18h30.52.238,proactive3.1,2020.1.2,Win32,60,5f47c29a48bd2a1e651a6eb7,5f47ed95d8292a23dfbe5dc1,2,,,,,,basket,,,,,,0,0,0,9,1,1,0,,,,,,,,,,,,,,,,,,,,,,,,,,,,,,,,,,,,,,,,,,,,,,,,,,,,,,,,,,,,,,,,,,,,,,,,,,,,,,,,,,,,,,,,,,,,,,,,,,,,,,,,,,,,,
,,,,,,,,,,stimuli/images/PICTURE_491.png,ROOF,5f25b1a200ed0b27e21db196,19/11/2001,2020-08-27_18h30.52.238,proactive3.1,2020.1.2,Win32,60,5f47c29a48bd2a1e651a6eb7,5f47ed95d8292a23dfbe5dc1,2,,,,,,rug,,,,,,0,1,1,24,1,3,0,,,,,,,,,,,,,,,,,,,,,,,,,,,,,,,,,,,,,,,,,,,,,,,,,,,,,,,,,,,,,,,,,,,,,,,,,,,,,,,,,,,,,,,,,,,,,,,,,,,,,,,,,,,,,
,,,,,,,,,,stimuli/images/PICTURE_380.png,DEATH,5f25b1a200ed0b27e21db196,19/11/2001,2020-08-27_18h30.52.238,proactive3.1,2020.1.2,Win32,60,5f47c29a48bd2a1e651a6eb7,5f47ed95d8292a23dfbe5dc1,2,,,,,,gorilla,,,,,,0,2,2,49,1,5,0,,,,,,,,,,,,,,,,,,,,,,,,,,,,,,,,,,,,,,,,,,,,,,,,,,,,,,,,,,,,,,,,,,,,,,,,,,,,,,,,,,,,,,,,,,,,,,,,,,,,,,,,,,,,,
,,,,,,,,,,stimuli/images/PICTURE_95.png,STYLE,5f25b1a200ed0b27e21db196,19/11/2001,2020-08-27_18h30.52.238,proactive3.1,2020.1.2,Win32,60,5f47c29a48bd2a1e651a6eb7,5f47ed95d8292a23dfbe5dc1,2,,,,,,suitcase,,,,,,0,3,3,25,1,3,0,,,,,,,,,,,,,,,,,,,,,,,,,,,,,,,,,,,,,,,,,,,,,,,,,,,,,,,,,,,,,,,,,,,,,,,,,,,,,,,,,,,,,,,,,,,,,,,,,,,,,,,,,,,,,
,,,,,,,,,,stimuli/images/PICTURE_314.png,SAKE,5f25b1a200ed0b27e21db196,19/11/2001,2020-08-27_18h30.52.238,proactive3.1,2020.1.2,Win32,60,5f47c29a48bd2a1e651a6eb7,5f47ed95d8292a23dfbe5dc1,2,,,,,,perfume,,,,,,0,4,4,7,1,1,0,,,,,,,,,,,,,,,,,,,,,,,,,,,,,,,,,,,,,,,,,,,,,,,,,,,,,,,,,,,,,,,,,,,,,,,,,,,,,,,,,,,,,,,,,,,,,,,,,,,,,,,,,,,,,
,,,,,,,,,,stimuli/images/PICTURE_308.png,KIND,5f25b1a200ed0b27e21db196,19/11/2001,2020-08-27_18h30.52.238,proactive3.1,2020.1.2,Win32,60,5f47c29a48bd2a1e651a6eb7,5f47ed95d8292a23dfbe5dc1,2,,,,,,dice,,,,,,0,5,5,54,1,6,0,,,,,,,,,,,,,,,,,,,,,,,,,,,,,,,,,,,,,,,,,,,,,,,,,,,,,,,,,,,,,,,,,,,,,,,,,,,,,,,,,,,,,,,,,,,,,,,,,,,,,,,,,,,,,
,,,,,,,,,,stimuli/images/PICTURE_469.png,ARTIST,5f25b1a200ed0b27e21db196,19/11/2001,2020-08-27_18h30.52.238,proactive3.1,2020.1.2,Win32,60,5f47c29a48bd2a1e651a6eb7,5f47ed95d8292a23dfbe5dc1,2,,,,,,stool,,,,,,0,6,6,6,1,1,0,,,,,,,,,,,,,,,,,,,,,,,,,,,,,,,,,,,,,,,,,,,,,,,,,,,,,,,,,,,,,,,,,,,,,,,,,,,,,,,,,,,,,,,,,,,,,,,,,,,,,,,,,,,,,
,,,,,,,,,,stimuli/images/PICTURE_509.png,PHOTO,5f25b1a200ed0b27e21db196,19/11/2001,2020-08-27_18h30.52.238,proactive3.1,2020.1.2,Win32,60,5f47c29a48bd2a1e651a6eb7,5f47ed95d8292a23dfbe5dc1,2,,,,,,telephone,,,,,,0,7,7,21,1,3,0,,,,,,,,,,,,,,,,,,,,,,,,,,,,,,,,,,,,,,,,,,,,,,,,,,,,,,,,,,,,,,,,,,,,,,,,,,,,,,,,,,,,,,,,,,,,,,,,,,,,,,,,,,,,,
,,,,,,,,,,stimuli/images/PICTURE_203.png,ARTIST,5f25b1a200ed0b27e21db196,19/11/2001,2020-08-27_18h30.52.238,proactive3.1,2020.1.2,Win32,60,5f47c29a48bd2a1e651a6eb7,5f47ed95d8292a23dfbe5dc1,2,,,,,,cap,,,,,,0,8,8,26,1,3,0,,,,,,,,,,,,,,,,,,,,,,,,,,,,,,,,,,,,,,,,,,,,,,,,,,,,,,,,,,,,,,,,,,,,,,,,,,,,,,,,,,,,,,,,,,,,,,,,,,,,,,,,,,,,,
,,,,,,,,,,stimuli/images/PICTURE_667.png,BATH,5f25b1a200ed0b27e21db196,19/11/2001,2020-08-27_18h30.52.238,proactive3.1,2020.1.2,Win32,60,5f47c29a48bd2a1e651a6eb7,5f47ed95d8292a23dfbe5dc1,2,,,,,,daisy,,,,,,0,9,9,4,1,1,0,,,,,,,,,,,,,,,,,,,,,,,,,,,,,,,,,,,,,,,,,,,,,,,,,,,,,,,,,,,,,,,,,,,,,,,,,,,,,,,,,,,,,,,,,,,,,,,,,,,,,,,,,,,,,
,,,,,,,,,,stimuli/images/PICTURE_708.png,YARD,5f25b1a200ed0b27e21db196,19/11/2001,2020-08-27_18h30.52.238,proactive3.1,2020.1.2,Win32,60,5f47c29a48bd2a1e651a6eb7,5f47ed95d8292a23dfbe5dc1,2,,,,,,monkey,,,,,,0,10,10,29,1,3,0,,,,,,,,,,,,,,,,,,,,,,,,,,,,,,,,,,,,,,,,,,,,,,,,,,,,,,,,,,,,,,,,,,,,,,,,,,,,,,,,,,,,,,,,,,,,,,,,,,,,,,,,,,,,,
,,,,,,,,,,stimuli/images/PICTURE_688.png,CASINO,5f25b1a200ed0b27e21db196,19/11/2001,2020-08-27_18h30.52.238,proactive3.1,2020.1.2,Win32,60,5f47c29a48bd2a1e651a6eb7,5f47ed95d8292a23dfbe5dc1,2,,,,,,runner,,,,,,0,11,11,2,1,1,0,,,,,,,,,,,,,,,,,,,,,,,,,,,,,,,,,,,,,,,,,,,,,,,,,,,,,,,,,,,,,,,,,,,,,,,,,,,,,,,,,,,,,,,,,,,,,,,,,,,,,,,,,,,,,
,,,,,,,,,,stimuli/images/PICTURE_504.png,BODY,5f25b1a200ed0b27e21db196,19/11/2001,2020-08-27_18h30.52.238,proactive3.1,2020.1.2,Win32,60,5f47c29a48bd2a1e651a6eb7,5f47ed95d8292a23dfbe5dc1,2,,,,,,wheel,,,,,,0,12,12,8,1,1,0,,,,,,,,,,,,,,,,,,,,,,,,,,,,,,,,,,,,,,,,,,,,,,,,,,,,,,,,,,,,,,,,,,,,,,,,,,,,,,,,,,,,,,,,,,,,,,,,,,,,,,,,,,,,,
,,,,,,,,,,stimuli/images/PICTURE_708.png,PENNY,5f25b1a200ed0b27e21db196,19/11/2001,2020-08-27_18h30.52.238,proactive3.1,2020.1.2,Win32,60,5f47c29a48bd2a1e651a6eb7,5f47ed95d8292a23dfbe5dc1,2,,,,,,monkey,,,,,,0,13,13,31,1,4,0,,,,,,,,,,,,,,,,,,,,,,,,,,,,,,,,,,,,,,,,,,,,,,,,,,,,,,,,,,,,,,,,,,,,,,,,,,,,,,,,,,,,,,,,,,,,,,,,,,,,,,,,,,,,,
,,,,,,,,,,stimuli/images/PICTURE_692.png,MONTH,5f25b1a200ed0b27e21db196,19/11/2001,2020-08-27_18h30.52.238,proactive3.1,2020.1.2,Win32,60,5f47c29a48bd2a1e651a6eb7,5f47ed95d8292a23dfbe5dc1,2,,,,,,cherry,,,,,,0,14,14,16,1,2,0,,,,,,,,,,,,,,,,,,,,,,,,,,,,,,,,,,,,,,,,,,,,,,,,,,,,,,,,,,,,,,,,,,,,,,,,,,,,,,,,,,,,,,,,,,,,,,,,,,,,,,,,,,,,,
,,,,,,,,,,stimuli/images/PICTURE_68.png,MILE,5f25b1a200ed0b27e21db196,19/11/2001,2020-08-27_18h30.52.238,proactive3.1,2020.1.2,Win32,60,5f47c29a48bd2a1e651a6eb7,5f47ed95d8292a23dfbe5dc1,2,,,,,,candle,,,,,,0,15,15,44,1,5,0,,,,,,,,,,,,,,,,,,,,,,,,,,,,,,,,,,,,,,,,,,,,,,,,,,,,,,,,,,,,,,,,,,,,,,,,,,,,,,,,,,,,,,,,,,,,,,,,,,,,,,,,,,,,,
,,,,,,,,,,stimuli/images/PICTURE_491.png,WRITER,5f25b1a200ed0b27e21db196,19/11/2001,2020-08-27_18h30.52.238,proactive3.1,2020.1.2,Win32,60,5f47c29a48bd2a1e651a6eb7,5f47ed95d8292a23dfbe5dc1,2,,,,,,rug,,,,,,0,16,16,57,1,6,0,,,,,,,,,,,,,,,,,,,,,,,,,,,,,,,,,,,,,,,,,,,,,,,,,,,,,,,,,,,,,,,,,,,,,,,,,,,,,,,,,,,,,,,,,,,,,,,,,,,,,,,,,,,,,
,,,,,,,,,,stimuli/images/PICTURE_677.png,MILE,5f25b1a200ed0b27e21db196,19/11/2001,2020-08-27_18h30.52.238,proactive3.1,2020.1.2,Win32,60,5f47c29a48bd2a1e651a6eb7,5f47ed95d8292a23dfbe5dc1,2,,,,,,map,,,,,,0,17,17,30,1,4,0,,,,,,,,,,,,,,,,,,,,,,,,,,,,,,,,,,,,,,,,,,,,,,,,,,,,,,,,,,,,,,,,,,,,,,,,,,,,,,,,,,,,,,,,,,,,,,,,,,,,,,,,,,,,,
,,,,,,,,,,stimuli/images/PICTURE_348.png,SPEECH,5f25b1a200ed0b27e21db196,19/11/2001,2020-08-27_18h30.52.238,proactive3.1,2020.1.2,Win32,60,5f47c29a48bd2a1e651a6eb7,5f47ed95d8292a23dfbe5dc1,2,,,,,,pepper,,,,,,0,18,18,20,1,3,0,,,,,,,,,,,,,,,,,,,,,,,,,,,,,,,,,,,,,,,,,,,,,,,,,,,,,,,,,,,,,,,,,,,,,,,,,,,,,,,,,,,,,,,,,,,,,,,,,,,,,,,,,,,,,
,,,,,,,,,,stimuli/images/PICTURE_327.png,BEAUTY,5f25b1a200ed0b27e21db196,19/11/2001,2020-08-27_18h30.52.238,proactive3.1,2020.1.2,Win32,60,5f47c29a48bd2a1e651a6eb7,5f47ed95d8292a23dfbe5dc1,2,,,,,,helmet,,,,,,0,19,19,48,1,5,0,,,,,,,,,,,,,,,,,,,,,,,,,,,,,,,,,,,,,,,,,,,,,,,,,,,,,,,,,,,,,,,,,,,,,,,,,,,,,,,,,,,,,,,,,,,,,,,,,,,,,,,,,,,,,
,,,,,,,,,,stimuli/images/PICTURE_453.png,DUDE,5f25b1a200ed0b27e21db196,19/11/2001,2020-08-27_18h30.52.238,proactive3.1,2020.1.2,Win32,60,5f47c29a48bd2a1e651a6eb7,5f47ed95d8292a23dfbe5dc1,2,,,,,,scissors,,,,,,0,20,20,27,1,3,0,,,,,,,,,,,,,,,,,,,,,,,,,,,,,,,,,,,,,,,,,,,,,,,,,,,,,,,,,,,,,,,,,,,,,,,,,,,,,,,,,,,,,,,,,,,,,,,,,,,,,,,,,,,,,
,,,,,,,,,,stimuli/images/PICTURE_233.png,WOMEN,5f25b1a200ed0b27e21db196,19/11/2001,2020-08-27_18h30.52.238,proactive3.1,2020.1.2,Win32,60,5f47c29a48bd2a1e651a6eb7,5f47ed95d8292a23dfbe5dc1,2,,,,,,salt,,,,,,0,21,21,38,1,4,0,,,,,,,,,,,,,,,,,,,,,,,,,,,,,,,,,,,,,,,,,,,,,,,,,,,,,,,,,,,,,,,,,,,,,,,,,,,,,,,,,,,,,,,,,,,,,,,,,,,,,,,,,,,,,
,,,,,,,,,,stimuli/images/PICTURE_32.png,JUNGLE,5f25b1a200ed0b27e21db196,19/11/2001,2020-08-27_18h30.52.238,proactive3.1,2020.1.2,Win32,60,5f47c29a48bd2a1e651a6eb7,5f47ed95d8292a23dfbe5dc1,2,,,,,,crown,,,,,,0,22,22,45,1,5,0,,,,,,,,,,,,,,,,,,,,,,,,,,,,,,,,,,,,,,,,,,,,,,,,,,,,,,,,,,,,,,,,,,,,,,,,,,,,,,,,,,,,,,,,,,,,,,,,,,,,,,,,,,,,,
,,,,,,,,,,stimuli/images/PICTURE_208.png,MONTH,5f25b1a200ed0b27e21db196,19/11/2001,2020-08-27_18h30.52.238,proactive3.1,2020.1.2,Win32,60,5f47c29a48bd2a1e651a6eb7,5f47ed95d8292a23dfbe5dc1,2,,,,,,microphone,,,,,,0,23,23,53,1,6,0,,,,,,,,,,,,,,,,,,,,,,,,,,,,,,,,,,,,,,,,,,,,,,,,,,,,,,,,,,,,,,,,,,,,,,,,,,,,,,,,,,,,,,,,,,,,,,,,,,,,,,,,,,,,,
,,,,,,,,,,stimuli/images/PICTURE_160.png,LEADER,5f25b1a200ed0b27e21db196,19/11/2001,2020-08-27_18h30.52.238,proactive3.1,2020.1.2,Win32,60,5f47c29a48bd2a1e651a6eb7,5f47ed95d8292a23dfbe5dc1,2,,,,,,wheelbarrow,,,,,,0,24,24,3,1,1,0,,,,,,,,,,,,,,,,,,,,,,,,,,,,,,,,,,,,,,,,,,,,,,,,,,,,,,,,,,,,,,,,,,,,,,,,,,,,,,,,,,,,,,,,,,,,,,,,,,,,,,,,,,,,,
,,,,,,,,,,stimuli/images/PICTURE_85.png,THING,5f25b1a200ed0b27e21db196,19/11/2001,2020-08-27_18h30.52.238,proactive3.1,2020.1.2,Win32,60,5f47c29a48bd2a1e651a6eb7,5f47ed95d8292a23dfbe5dc1,2,,,,,,diamond,,,,,,0,25,25,15,1,2,0,,,,,,,,,,,,,,,,,,,,,,,,,,,,,,,,,,,,,,,,,,,,,,,,,,,,,,,,,,,,,,,,,,,,,,,,,,,,,,,,,,,,,,,,,,,,,,,,,,,,,,,,,,,,,
,,,,,,,,,,stimuli/images/PICTURE_688.png,WOMEN,5f25b1a200ed0b27e21db196,19/11/2001,2020-08-27_18h30.52.238,proactive3.1,2020.1.2,Win32,60,5f47c29a48bd2a1e651a6eb7,5f47ed95d8292a23dfbe5dc1,2,,,,,,runner,,,,,,0,26,26,14,1,2,0,,,,,,,,,,,,,,,,,,,,,,,,,,,,,,,,,,,,,,,,,,,,,,,,,,,,,,,,,,,,,,,,,,,,,,,,,,,,,,,,,,,,,,,,,,,,,,,,,,,,,,,,,,,,,
,,,,,,,,,,stimuli/images/PICTURE_123.png,ADVICE,5f25b1a200ed0b27e21db196,19/11/2001,2020-08-27_18h30.52.238,proactive3.1,2020.1.2,Win32,60,5f47c29a48bd2a1e651a6eb7,5f47ed95d8292a23dfbe5dc1,2,,,,,,dart,,,,,,0,27,27,50,1,6,0,,,,,,,,,,,,,,,,,,,,,,,,,,,,,,,,,,,,,,,,,,,,,,,,,,,,,,,,,,,,,,,,,,,,,,,,,,,,,,,,,,,,,,,,,,,,,,,,,,,,,,,,,,,,,
,,,,,,,,,,stimuli/images/PICTURE_311.png,FRIEND,5f25b1a200ed0b27e21db196,19/11/2001,2020-08-27_18h30.52.238,proactive3.1,2020.1.2,Win32,60,5f47c29a48bd2a1e651a6eb7,5f47ed95d8292a23dfbe5dc1,2,,,,,,razor,,,,,,0,28,28,34,1,4,0,,,,,,,,,,,,,,,,,,,,,,,,,,,,,,,,,,,,,,,,,,,,,,,,,,,,,,,,,,,,,,,,,,,,,,,,,,,,,,,,,,,,,,,,,,,,,,,,,,,,,,,,,,,,,
,,,,,,,,,,stimuli/images/PICTURE_356.png,DANGER,5f25b1a200ed0b27e21db196,19/11/2001,2020-08-27_18h30.52.238,proactive3.1,2020.1.2,Win32,60,5f47c29a48bd2a1e651a6eb7,5f47ed95d8292a23dfbe5dc1,2,,,,,,pawn,,,,,,0,29,29,55,1,6,0,,,,,,,,,,,,,,,,,,,,,,,,,,,,,,,,,,,,,,,,,,,,,,,,,,,,,,,,,,,,,,,,,,,,,,,,,,,,,,,,,,,,,,,,,,,,,,,,,,,,,,,,,,,,,
,,,,,,,,,,stimuli/images/PICTURE_675.png,WEAPON,5f25b1a200ed0b27e21db196,19/11/2001,2020-08-27_18h30.52.238,proactive3.1,2020.1.2,Win32,60,5f47c29a48bd2a1e651a6eb7,5f47ed95d8292a23dfbe5dc1,2,,,,,,windmill,,,,,,0,30,30,32,1,4,0,,,,,,,,,,,,,,,,,,,,,,,,,,,,,,,,,,,,,,,,,,,,,,,,,,,,,,,,,,,,,,,,,,,,,,,,,,,,,,,,,,,,,,,,,,,,,,,,,,,,,,,,,,,,,
,,,,,,,,,,stimuli/images/PICTURE_744.png,SYSTEM,5f25b1a200ed0b27e21db196,19/11/2001,2020-08-27_18h30.52.238,proactive3.1,2020.1.2,Win32,60,5f47c29a48bd2a1e651a6eb7,5f47ed95d8292a23dfbe5dc1,2,,,,,,ring,,,,,,0,31,31,43,1,5,0,,,,,,,,,,,,,,,,,,,,,,,,,,,,,,,,,,,,,,,,,,,,,,,,,,,,,,,,,,,,,,,,,,,,,,,,,,,,,,,,,,,,,,,,,,,,,,,,,,,,,,,,,,,,,
,,,,,,,,,,stimuli/images/PICTURE_248.png,DOZEN,5f25b1a200ed0b27e21db196,19/11/2001,2020-08-27_18h30.52.238,proactive3.1,2020.1.2,Win32,60,5f47c29a48bd2a1e651a6eb7,5f47ed95d8292a23dfbe5dc1,2,,,,,,cart,,,,,,0,32,32,39,1,4,0,,,,,,,,,,,,,,,,,,,,,,,,,,,,,,,,,,,,,,,,,,,,,,,,,,,,,,,,,,,,,,,,,,,,,,,,,,,,,,,,,,,,,,,,,,,,,,,,,,,,,,,,,,,,,
,,,,,,,,,,stimuli/images/PICTURE_311.png,BEAUTY,5f25b1a200ed0b27e21db196,19/11/2001,2020-08-27_18h30.52.238,proactive3.1,2020.1.2,Win32,60,5f47c29a48bd2a1e651a6eb7,5f47ed95d8292a23dfbe5dc1,2,,,,,,razor,,,,,,0,33,33,13,1,2,0,,,,,,,,,,,,,,,,,,,,,,,,,,,,,,,,,,,,,,,,,,,,,,,,,,,,,,,,,,,,,,,,,,,,,,,,,,,,,,,,,,,,,,,,,,,,,,,,,,,,,,,,,,,,,
,,,,,,,,,,stimuli/images/PICTURE_215.png,PLENTY,5f25b1a200ed0b27e21db196,19/11/2001,2020-08-27_18h30.52.238,proactive3.1,2020.1.2,Win32,60,5f47c29a48bd2a1e651a6eb7,5f47ed95d8292a23dfbe5dc1,2,,,,,,boot,,,,,,0,34,34,37,1,4,0,,,,,,,,,,,,,,,,,,,,,,,,,,,,,,,,,,,,,,,,,,,,,,,,,,,,,,,,,,,,,,,,,,,,,,,,,,,,,,,,,,,,,,,,,,,,,,,,,,,,,,,,,,,,,
,,,,,,,,,,stimuli/images/PICTURE_470.png,CASINO,5f25b1a200ed0b27e21db196,19/11/2001,2020-08-27_18h30.52.238,proactive3.1,2020.1.2,Win32,60,5f47c29a48bd2a1e651a6eb7,5f47ed95d8292a23dfbe5dc1,2,,,,,,motorbike,,,,,,0,35,35,36,1,4,0,,,,,,,,,,,,,,,,,,,,,,,,,,,,,,,,,,,,,,,,,,,,,,,,,,,,,,,,,,,,,,,,,,,,,,,,,,,,,,,,,,,,,,,,,,,,,,,,,,,,,,,,,,,,,
,,,,,,,,,,stimuli/images/PICTURE_667.png,PLENTY,5f25b1a200ed0b27e21db196,19/11/2001,2020-08-27_18h30.52.238,proactive3.1,2020.1.2,Win32,60,5f47c29a48bd2a1e651a6eb7,5f47ed95d8292a23dfbe5dc1,2,,,,,,daisy,,,,,,0,36,36,41,1,5,0,,,,,,,,,,,,,,,,,,,,,,,,,,,,,,,,,,,,,,,,,,,,,,,,,,,,,,,,,,,,,,,,,,,,,,,,,,,,,,,,,,,,,,,,,,,,,,,,,,,,,,,,,,,,,
,,,,,,,,,,stimuli/images/PICTURE_123.png,ADVICE,5f25b1a200ed0b27e21db196,19/11/2001,2020-08-27_18h30.52.238,proactive3.1,2020.1.2,Win32,60,5f47c29a48bd2a1e651a6eb7,5f47ed95d8292a23dfbe5dc1,2,,,,,,dart,,,,,,0,37,37,40,1,5,0,,,,,,,,,,,,,,,,,,,,,,,,,,,,,,,,,,,,,,,,,,,,,,,,,,,,,,,,,,,,,,,,,,,,,,,,,,,,,,,,,,,,,,,,,,,,,,,,,,,,,,,,,,,,,
,,,,,,,,,,stimuli/images/PICTURE_308.png,ESTATE,5f25b1a200ed0b27e21db196,19/11/2001,2020-08-27_18h30.52.238,proactive3.1,2020.1.2,Win32,60,5f47c29a48bd2a1e651a6eb7,5f47ed95d8292a23dfbe5dc1,2,,,,,,dice,,,,,,0,38,38,46,1,5,0,,,,,,,,,,,,,,,,,,,,,,,,,,,,,,,,,,,,,,,,,,,,,,,,,,,,,,,,,,,,,,,,,,,,,,,,,,,,,,,,,,,,,,,,,,,,,,,,,,,,,,,,,,,,,
,,,,,,,,,,stimuli/images/PICTURE_449.png,THING,5f25b1a200ed0b27e21db196,19/11/2001,2020-08-27_18h30.52.238,proactive3.1,2020.1.2,Win32,60,5f47c29a48bd2a1e651a6eb7,5f47ed95d8292a23dfbe5dc1,2,,,,,,bench,,,,,,0,39,39,59,1,6,0,,,,,,,,,,,,,,,,,,,,,,,,,,,,,,,,,,,,,,,,,,,,,,,,,,,,,,,,,,,,,,,,,,,,,,,,,,,,,,,,,,,,,,,,,,,,,,,,,,,,,,,,,,,,,
,,,,,,,,,,stimuli/images/PICTURE_708.png,CLIENT,5f25b1a200ed0b27e21db196,19/11/2001,2020-08-27_18h30.52.238,proactive3.1,2020.1.2,Win32,60,5f47c29a48bd2a1e651a6eb7,5f47ed95d8292a23dfbe5dc1,2,,,,,,monkey,,,,,,0,40,40,5,1,1,0,,,,,,,,,,,,,,,,,,,,,,,,,,,,,,,,,,,,,,,,,,,,,,,,,,,,,,,,,,,,,,,,,,,,,,,,,,,,,,,,,,,,,,,,,,,,,,,,,,,,,,,,,,,,,
,,,,,,,,,,stimuli/images/PICTURE_177.png,CARS,5f25b1a200ed0b27e21db196,19/11/2001,2020-08-27_18h30.52.238,proactive3.1,2020.1.2,Win32,60,5f47c29a48bd2a1e651a6eb7,5f47ed95d8292a23dfbe5dc1,2,,,,,,mushroom,,,,,,0,41,41,35,1,4,0,,,,,,,,,,,,,,,,,,,,,,,,,,,,,,,,,,,,,,,,,,,,,,,,,,,,,,,,,,,,,,,,,,,,,,,,,,,,,,,,,,,,,,,,,,,,,,,,,,,,,,,,,,,,,
,,,,,,,,,,stimuli/images/PICTURE_285.png,ADVICE,5f25b1a200ed0b27e21db196,19/11/2001,2020-08-27_18h30.52.238,proactive3.1,2020.1.2,Win32,60,5f47c29a48bd2a1e651a6eb7,5f47ed95d8292a23dfbe5dc1,2,,,,,,carrot,,,,,,0,42,42,12,1,2,0,,,,,,,,,,,,,,,,,,,,,,,,,,,,,,,,,,,,,,,,,,,,,,,,,,,,,,,,,,,,,,,,,,,,,,,,,,,,,,,,,,,,,,,,,,,,,,,,,,,,,,,,,,,,,
,,,,,,,,,,stimuli/images/PICTURE_453.png,PLENTY,5f25b1a200ed0b27e21db196,19/11/2001,2020-08-27_18h30.52.238,proactive3.1,2020.1.2,Win32,60,5f47c29a48bd2a1e651a6eb7,5f47ed95d8292a23dfbe5dc1,2,,,,,,scissors,,,,,,0,43,43,56,1,6,0,,,,,,,,,,,,,,,,,,,,,,,,,,,,,,,,,,,,,,,,,,,,,,,,,,,,,,,,,,,,,,,,,,,,,,,,,,,,,,,,,,,,,,,,,,,,,,,,,,,,,,,,,,,,,
,,,,,,,,,,stimuli/images/PICTURE_314.png,GODS,5f25b1a200ed0b27e21db196,19/11/2001,2020-08-27_18h30.52.238,proactive3.1,2020.1.2,Win32,60,5f47c29a48bd2a1e651a6eb7,5f47ed95d8292a23dfbe5dc1,2,,,,,,perfume,,,,,,0,44,44,11,1,2,0,,,,,,,,,,,,,,,,,,,,,,,,,,,,,,,,,,,,,,,,,,,,,,,,,,,,,,,,,,,,,,,,,,,,,,,,,,,,,,,,,,,,,,,,,,,,,,,,,,,,,,,,,,,,,
,,,,,,,,,,stimuli/images/PICTURE_208.png,THING,5f25b1a200ed0b27e21db196,19/11/2001,2020-08-27_18h30.52.238,proactive3.1,2020.1.2,Win32,60,5f47c29a48bd2a1e651a6eb7,5f47ed95d8292a23dfbe5dc1,2,,,,,,microphone,,,,,,0,45,45,47,1,5,0,,,,,,,,,,,,,,,,,,,,,,,,,,,,,,,,,,,,,,,,,,,,,,,,,,,,,,,,,,,,,,,,,,,,,,,,,,,,,,,,,,,,,,,,,,,,,,,,,,,,,,,,,,,,,
,,,,,,,,,,stimuli/images/PICTURE_233.png,IDEAS,5f25b1a200ed0b27e21db196,19/11/2001,2020-08-27_18h30.52.238,proactive3.1,2020.1.2,Win32,60,5f47c29a48bd2a1e651a6eb7,5f47ed95d8292a23dfbe5dc1,2,,,,,,salt,,,,,,0,46,46,28,1,3,0,,,,,,,,,,,,,,,,,,,,,,,,,,,,,,,,,,,,,,,,,,,,,,,,,,,,,,,,,,,,,,,,,,,,,,,,,,,,,,,,,,,,,,,,,,,,,,,,,,,,,,,,,,,,,
,,,,,,,,,,stimuli/images/PICTURE_147.png,MOMENT,5f25b1a200ed0b27e21db196,19/11/2001,2020-08-27_18h30.52.238,proactive3.1,2020.1.2,Win32,60,5f47c29a48bd2a1e651a6eb7,5f47ed95d8292a23dfbe5dc1,2,,,,,,hanger,,,,,,0,47,47,51,1,6,0,,,,,,,,,,,,,,,,,,,,,,,,,,,,,,,,,,,,,,,,,,,,,,,,,,,,,,,,,,,,,,,,,,,,,,,,,,,,,,,,,,,,,,,,,,,,,,,,,,,,,,,,,,,,,
,,,,,,,,,,stimuli/images/PICTURE_744.png,SAKE,5f25b1a200ed0b27e21db196,19/11/2001,2020-08-27_18h30.52.238,proactive3.1,2020.1.2,Win32,60,5f47c29a48bd2a1e651a6eb7,5f47ed95d8292a23dfbe5dc1,2,,,,,,ring,,,,,,0,48,48,17,1,2,0,,,,,,,,,,,,,,,,,,,,,,,,,,,,,,,,,,,,,,,,,,,,,,,,,,,,,,,,,,,,,,,,,,,,,,,,,,,,,,,,,,,,,,,,,,,,,,,,,,,,,,,,,,,,,
,,,,,,,,,,stimuli/images/PICTURE_208.png,LOTS,5f25b1a200ed0b27e21db196,19/11/2001,2020-08-27_18h30.52.238,proactive3.1,2020.1.2,Win32,60,5f47c29a48bd2a1e651a6eb7,5f47ed95d8292a23dfbe5dc1,2,,,,,,microphone,,,,,,0,49,49,10,1,2,0,,,,,,,,,,,,,,,,,,,,,,,,,,,,,,,,,,,,,,,,,,,,,,,,,,,,,,,,,,,,,,,,,,,,,,,,,,,,,,,,,,,,,,,,,,,,,,,,,,,,,,,,,,,,,
,,,,,,,,,,stimuli/images/PICTURE_339.png,PLENTY,5f25b1a200ed0b27e21db196,19/11/2001,2020-08-27_18h30.52.238,proactive3.1,2020.1.2,Win32,60,5f47c29a48bd2a1e651a6eb7,5f47ed95d8292a23dfbe5dc1,2,,,,,,backpack,,,,,,0,50,50,0,1,1,0,,,,,,,,,,,,,,,,,,,,,,,,,,,,,,,,,,,,,,,,,,,,,,,,,,,,,,,,,,,,,,,,,,,,,,,,,,,,,,,,,,,,,,,,,,,,,,,,,,,,,,,,,,,,,
,,,,,,,,,,stimuli/images/PICTURE_255.png,AREA,5f25b1a200ed0b27e21db196,19/11/2001,2020-08-27_18h30.52.238,proactive3.1,2020.1.2,Win32,60,5f47c29a48bd2a1e651a6eb7,5f47ed95d8292a23dfbe5dc1,2,,,,,,shovel,,,,,,0,51,51,22,1,3,0,,,,,,,,,,,,,,,,,,,,,,,,,,,,,,,,,,,,,,,,,,,,,,,,,,,,,,,,,,,,,,,,,,,,,,,,,,,,,,,,,,,,,,,,,,,,,,,,,,,,,,,,,,,,,
,,,,,,,,,,stimuli/images/PICTURE_151.png,GIRL,5f25b1a200ed0b27e21db196,19/11/2001,2020-08-27_18h30.52.238,proactive3.1,2020.1.2,Win32,60,5f47c29a48bd2a1e651a6eb7,5f47ed95d8292a23dfbe5dc1,2,,,,,,tray,,,,,,0,52,52,19,1,2,0,,,,,,,,,,,,,,,,,,,,,,,,,,,,,,,,,,,,,,,,,,,,,,,,,,,,,,,,,,,,,,,,,,,,,,,,,,,,,,,,,,,,,,,,,,,,,,,,,,,,,,,,,,,,,
,,,,,,,,,,stimuli/images/PICTURE_469.png,LETTER,5f25b1a200ed0b27e21db196,19/11/2001,2020-08-27_18h30.52.238,proactive3.1,2020.1.2,Win32,60,5f47c29a48bd2a1e651a6eb7,5f47ed95d8292a23dfbe5dc1,2,,,,,,stool,,,,,,0,53,53,42,1,5,0,,,,,,,,,,,,,,,,,,,,,,,,,,,,,,,,,,,,,,,,,,,,,,,,,,,,,,,,,,,,,,,,,,,,,,,,,,,,,,,,,,,,,,,,,,,,,,,,,,,,,,,,,,,,,
,,,,,,,,,,stimuli/images/PICTURE_488.png,STYLE,5f25b1a200ed0b27e21db196,19/11/2001,2020-08-27_18h30.52.238,proactive3.1,2020.1.2,Win32,60,5f47c29a48bd2a1e651a6eb7,5f47ed95d8292a23dfbe5dc1,2,,,,,,sun,,,,,,0,54,54,33,1,4,0,,,,,,,,,,,,,,,,,,,,,,,,,,,,,,,,,,,,,,,,,,,,,,,,,,,,,,,,,,,,,,,,,,,,,,,,,,,,,,,,,,,,,,,,,,,,,,,,,,,,,,,,,,,,,
,,,,,,,,,,stimuli/images/PICTURE_302.png,FAMILY,5f25b1a200ed0b27e21db196,19/11/2001,2020-08-27_18h30.52.238,proactive3.1,2020.1.2,Win32,60,5f47c29a48bd2a1e651a6eb7,5f47ed95d8292a23dfbe5dc1,2,,,,,,taxi,,,,,,0,55,55,18,1,2,0,,,,,,,,,,,,,,,,,,,,,,,,,,,,,,,,,,,,,,,,,,,,,,,,,,,,,,,,,,,,,,,,,,,,,,,,,,,,,,,,,,,,,,,,,,,,,,,,,,,,,,,,,,,,,
,,,,,,,,,,stimuli/images/PICTURE_467.png,DEMON,5f25b1a200ed0b27e21db196,19/11/2001,2020-08-27_18h30.52.238,proactive3.1,2020.1.2,Win32,60,5f47c29a48bd2a1e651a6eb7,5f47ed95d8292a23dfbe5dc1,2,,,,,,peg,,,,,,0,56,56,23,1,3,0,,,,,,,,,,,,,,,,,,,,,,,,,,,,,,,,,,,,,,,,,,,,,,,,,,,,,,,,,,,,,,,,,,,,,,,,,,,,,,,,,,,,,,,,,,,,,,,,,,,,,,,,,,,,,
,,,,,,,,,,stimuli/images/PICTURE_160.png,FEET,5f25b1a200ed0b27e21db196,19/11/2001,2020-08-27_18h30.52.238,proactive3.1,2020.1.2,Win32,60,5f47c29a48bd2a1e651a6eb7,5f47ed95d8292a23dfbe5dc1,2,,,,,,wheelbarrow,,,,,,0,57,57,58,1,6,0,,,,,,,,,,,,,,,,,,,,,,,,,,,,,,,,,,,,,,,,,,,,,,,,,,,,,,,,,,,,,,,,,,,,,,,,,,,,,,,,,,,,,,,,,,,,,,,,,,,,,,,,,,,,,
,,,,,,,,,,stimuli/images/PICTURE_380.png,PHOTO,5f25b1a200ed0b27e21db196,19/11/2001,2020-08-27_18h30.52.238,proactive3.1,2020.1.2,Win32,60,5f47c29a48bd2a1e651a6eb7,5f47ed95d8292a23dfbe5dc1,2,,,,,,gorilla,,,,,,0,58,58,52,1,6,0,,,,,,,,,,,,,,,,,,,,,,,,,,,,,,,,,,,,,,,,,,,,,,,,,,,,,,,,,,,,,,,,,,,,,,,,,,,,,,,,,,,,,,,,,,,,,,,,,,,,,,,,,,,,,
,,?,0.00432,0,,,,,,stimuli/images/PICTURE_667.png,PLENTY,5f25b1a200ed0b27e21db196,19/11/2001,2020-08-27_18h30.52.238,proactive3.1,2020.1.2,Win32,60,5f47c29a48bd2a1e651a6eb7,5f47ed95d8292a23dfbe5dc1,2,,,,,,daisy,,,,,,,,,,,5,0,0,0,0,41,1,,,,,,,,,,,,,,,,,,,,,,,,,,,,,,,,,,,,,,,,,,,,,,,,,,,,,,,,,,,,,,,,,,,,,,,,,,,,,,,,,,,,,,,,,,,,,,,,,,,,,,,,
,,?,0.00243,0,,,,,,stimuli/images/PICTURE_677.png,MILE,5f25b1a200ed0b27e21db196,19/11/2001,2020-08-27_18h30.52.238,proactive3.1,2020.1.2,Win32,60,5f47c29a48bd2a1e651a6eb7,5f47ed95d8292a23dfbe5dc1,2,,,,,,map,,,,,,,,,,,4,0,0,1,1,30,1,,,,,,,,,,,,,,,,,,,,,,,,,,,,,,,,,,,,,,,,,,,,,,,,,,,,,,,,,,,,,,,,,,,,,,,,,,,,,,,,,,,,,,,,,,,,,,,,,,,,,,,,
,,?,0.002085,0,,,,,,stimuli/images/PICTURE_314.png,SAKE,5f25b1a200ed0b27e21db196,19/11/2001,2020-08-27_18h30.52.238,proactive3.1,2020.1.2,Win32,60,5f47c29a48bd2a1e651a6eb7,5f47ed95d8292a23dfbe5dc1,2,,,,,,perfume,,,,,,,,,,,1,0,0,2,2,7,1,,,,,,,,,,,,,,,,,,,,,,,,,,,,,,,,,,,,,,,,,,,,,,,,,,,,,,,,,,,,,,,,,,,,,,,,,,,,,,,,,,,,,,,,,,,,,,,,,,,,,,,,
,,LOTS,2.569855,1,,,,,,stimuli/images/PICTURE_208.png,LOTS,5f25b1a200ed0b27e21db196,19/11/2001,2020-08-27_18h30.52.238,proactive3.1,2020.1.2,Win32,60,5f47c29a48bd2a1e651a6eb7,5f47ed95d8292a23dfbe5dc1,2,,,,,,microphone,,,,,,,,,,,2,0,0,3,3,10,1,,,,,,,,,,,,,,,,,,,,,,,,,,,,,,,,,,,,,,,,,,,,,,,,,,,,,,,,,,,,,,,,,,,,,,,,,,,,,,,,,,,,,,,,,,,,,,,,,,,,,,,,
,,GODS,2.39919,1,,,,,,stimuli/images/PICTURE_314.png,GODS,5f25b1a200ed0b27e21db196,19/11/2001,2020-08-27_18h30.52.238,proactive3.1,2020.1.2,Win32,60,5f47c29a48bd2a1e651a6eb7,5f47ed95d8292a23dfbe5dc1,2,,,,,,perfume,,,,,,,,,,,2,0,0,4,4,11,1,,,,,,,,,,,,,,,,,,,,,,,,,,,,,,,,,,,,,,,,,,,,,,,,,,,,,,,,,,,,,,,,,,,,,,,,,,,,,,,,,,,,,,,,,,,,,,,,,,,,,,,,
,,BEAUTY,3.749265,1,,,,,,stimuli/images/PICTURE_311.png,BEAUTY,5f25b1a200ed0b27e21db196,19/11/2001,2020-08-27_18h30.52.238,proactive3.1,2020.1.2,Win32,60,5f47c29a48bd2a1e651a6eb7,5f47ed95d8292a23dfbe5dc1,2,,,,,,razor,,,,,,,,,,,2,0,0,5,5,13,1,,,,,,,,,,,,,,,,,,,,,,,,,,,,,,,,,,,,,,,,,,,,,,,,,,,,,,,,,,,,,,,,,,,,,,,,,,,,,,,,,,,,,,,,,,,,,,,,,,,,,,,,
,,GIRL,2.46371,1,,,,,,stimuli/images/PICTURE_151.png,GIRL,5f25b1a200ed0b27e21db196,19/11/2001,2020-08-27_18h30.52.238,proactive3.1,2020.1.2,Win32,60,5f47c29a48bd2a1e651a6eb7,5f47ed95d8292a23dfbe5dc1,2,,,,,,tray,,,,,,,,,,,2,0,0,6,6,19,1,,,,,,,,,,,,,,,,,,,,,,,,,,,,,,,,,,,,,,,,,,,,,,,,,,,,,,,,,,,,,,,,,,,,,,,,,,,,,,,,,,,,,,,,,,,,,,,,,,,,,,,,
,,?,0.002955,0,,,,,,stimuli/images/PICTURE_233.png,WOMEN,5f25b1a200ed0b27e21db196,19/11/2001,2020-08-27_18h30.52.238,proactive3.1,2020.1.2,Win32,60,5f47c29a48bd2a1e651a6eb7,5f47ed95d8292a23dfbe5dc1,2,,,,,,salt,,,,,,,,,,,4,0,0,7,7,38,1,,,,,,,,,,,,,,,,,,,,,,,,,,,,,,,,,,,,,,,,,,,,,,,,,,,,,,,,,,,,,,,,,,,,,,,,,,,,,,,,,,,,,,,,,,,,,,,,,,,,,,,,
,,?,0.003625,0,,,,,,stimuli/images/PICTURE_449.png,THING,5f25b1a200ed0b27e21db196,19/11/2001,2020-08-27_18h30.52.238,proactive3.1,2020.1.2,Win32,60,5f47c29a48bd2a1e651a6eb7,5f47ed95d8292a23dfbe5dc1,2,,,,,,bench,,,,,,,,,,,6,0,0,8,8,59,1,,,,,,,,,,,,,,,,,,,,,,,,,,,,,,,,,,,,,,,,,,,,,,,,,,,,,,,,,,,,,,,,,,,,,,,,,,,,,,,,,,,,,,,,,,,,,,,,,,,,,,,,
,,?,0.002715,0,,,,,,stimuli/images/PICTURE_356.png,DANGER,5f25b1a200ed0b27e21db196,19/11/2001,2020-08-27_18h30.52.238,proactive3.1,2020.1.2,Win32,60,5f47c29a48bd2a1e651a6eb7,5f47ed95d8292a23dfbe5dc1,2,,,,,,pawn,,,,,,,,,,,6,0,0,9,9,55,1,,,,,,,,,,,,,,,,,,,,,,,,,,,,,,,,,,,,,,,,,,,,,,,,,,,,,,,,,,,,,,,,,,,,,,,,,,,,,,,,,,,,,,,,,,,,,,,,,,,,,,,,
,,SAKE,2.724505,1,,,,,,stimuli/images/PICTURE_744.png,SAKE,5f25b1a200ed0b27e21db196,19/11/2001,2020-08-27_18h30.52.238,proactive3.1,2020.1.2,Win32,60,5f47c29a48bd2a1e651a6eb7,5f47ed95d8292a23dfbe5dc1,2,,,,,,ring,,,,,,,,,,,2,0,0,10,10,17,1,,,,,,,,,,,,,,,,,,,,,,,,,,,,,,,,,,,,,,,,,,,,,,,,,,,,,,,,,,,,,,,,,,,,,,,,,,,,,,,,,,,,,,,,,,,,,,,,,,,,,,,,
,,?,0.002595,0,,,,,,stimuli/images/PICTURE_488.png,STYLE,5f25b1a200ed0b27e21db196,19/11/2001,2020-08-27_18h30.52.238,proactive3.1,2020.1.2,Win32,60,5f47c29a48bd2a1e651a6eb7,5f47ed95d8292a23dfbe5dc1,2,,,,,,sun,,,,,,,,,,,4,0,0,11,11,33,1,,,,,,,,,,,,,,,,,,,,,,,,,,,,,,,,,,,,,,,,,,,,,,,,,,,,,,,,,,,,,,,,,,,,,,,,,,,,,,,,,,,,,,,,,,,,,,,,,,,,,,,,
,,?,5.059905,0,,,,,,stimuli/images/PICTURE_85.png,THING,5f25b1a200ed0b27e21db196,19/11/2001,2020-08-27_18h30.52.238,proactive3.1,2020.1.2,Win32,60,5f47c29a48bd2a1e651a6eb7,5f47ed95d8292a23dfbe5dc1,2,,,,,,diamond,,,,,,,,,,,2,0,0,12,12,15,1,,,,,,,,,,,,,,,,,,,,,,,,,,,,,,,,,,,,,,,,,,,,,,,,,,,,,,,,,,,,,,,,,,,,,,,,,,,,,,,,,,,,,,,,,,,,,,,,,,,,,,,,
,,?,0.00268,0,,,,,,stimuli/images/PICTURE_248.png,DOZEN,5f25b1a200ed0b27e21db196,19/11/2001,2020-08-27_18h30.52.238,proactive3.1,2020.1.2,Win32,60,5f47c29a48bd2a1e651a6eb7,5f47ed95d8292a23dfbe5dc1,2,,,,,,cart,,,,,,,,,,,4,0,0,13,13,39,1,,,,,,,,,,,,,,,,,,,,,,,,,,,,,,,,,,,,,,,,,,,,,,,,,,,,,,,,,,,,,,,,,,,,,,,,,,,,,,,,,,,,,,,,,,,,,,,,,,,,,,,,
,,?,0.003595,0,,,,,,stimuli/images/PICTURE_147.png,MOMENT,5f25b1a200ed0b27e21db196,19/11/2001,2020-08-27_18h30.52.238,proactive3.1,2020.1.2,Win32,60,5f47c29a48bd2a1e651a6eb7,5f47ed95d8292a23dfbe5dc1,2,,,,,,hanger,,,,,,,,,,,6,0,0,14,14,51,1,,,,,,,,,,,,,,,,,,,,,,,,,,,,,,,,,,,,,,,,,,,,,,,,,,,,,,,,,,,,,,,,,,,,,,,,,,,,,,,,,,,,,,,,,,,,,,,,,,,,,,,,
,,?,0.002685,0,,,,,,stimuli/images/PICTURE_708.png,YARD,5f25b1a200ed0b27e21db196,19/11/2001,2020-08-27_18h30.52.238,proactive3.1,2020.1.2,Win32,60,5f47c29a48bd2a1e651a6eb7,5f47ed95d8292a23dfbe5dc1,2,,,,,,monkey,,,,,,,,,,,3,0,0,15,15,29,1,,,,,,,,,,,,,,,,,,,,,,,,,,,,,,,,,,,,,,,,,,,,,,,,,,,,,,,,,,,,,,,,,,,,,,,,,,,,,,,,,,,,,,,,,,,,,,,,,,,,,,,,
,,?,0.00241,0,,,,,,stimuli/images/PICTURE_95.png,STYLE,5f25b1a200ed0b27e21db196,19/11/2001,2020-08-27_18h30.52.238,proactive3.1,2020.1.2,Win32,60,5f47c29a48bd2a1e651a6eb7,5f47ed95d8292a23dfbe5dc1,2,,,,,,suitcase,,,,,,,,,,,3,0,0,16,16,25,1,,,,,,,,,,,,,,,,,,,,,,,,,,,,,,,,,,,,,,,,,,,,,,,,,,,,,,,,,,,,,,,,,,,,,,,,,,,,,,,,,,,,,,,,,,,,,,,,,,,,,,,,
,,?,0.002215,0,,,,,,stimuli/images/PICTURE_470.png,CASINO,5f25b1a200ed0b27e21db196,19/11/2001,2020-08-27_18h30.52.238,proactive3.1,2020.1.2,Win32,60,5f47c29a48bd2a1e651a6eb7,5f47ed95d8292a23dfbe5dc1,2,,,,,,motorbike,,,,,,,,,,,4,0,0,17,17,36,1,,,,,,,,,,,,,,,,,,,,,,,,,,,,,,,,,,,,,,,,,,,,,,,,,,,,,,,,,,,,,,,,,,,,,,,,,,,,,,,,,,,,,,,,,,,,,,,,,,,,,,,,
,,?,0.0022,0,,,,,,stimuli/images/PICTURE_469.png,LETTER,5f25b1a200ed0b27e21db196,19/11/2001,2020-08-27_18h30.52.238,proactive3.1,2020.1.2,Win32,60,5f47c29a48bd2a1e651a6eb7,5f47ed95d8292a23dfbe5dc1,2,,,,,,stool,,,,,,,,,,,5,0,0,18,18,42,1,,,,,,,,,,,,,,,,,,,,,,,,,,,,,,,,,,,,,,,,,,,,,,,,,,,,,,,,,,,,,,,,,,,,,,,,,,,,,,,,,,,,,,,,,,,,,,,,,,,,,,,,
,,?,0.00245,0,,,,,,stimuli/images/PICTURE_654.png,VALLEY,5f25b1a200ed0b27e21db196,19/11/2001,2020-08-27_18h30.52.238,proactive3.1,2020.1.2,Win32,60,5f47c29a48bd2a1e651a6eb7,5f47ed95d8292a23dfbe5dc1,2,,,,,,pencil,,,,,,,,,,,1,0,0,19,19,1,1,,,,,,,,,,,,,,,,,,,,,,,,,,,,,,,,,,,,,,,,,,,,,,,,,,,,,,,,,,,,,,,,,,,,,,,,,,,,,,,,,,,,,,,,,,,,,,,,,,,,,,,,
,,?,0.00291,0,,,,,,stimuli/images/PICTURE_491.png,WRITER,5f25b1a200ed0b27e21db196,19/11/2001,2020-08-27_18h30.52.238,proactive3.1,2020.1.2,Win32,60,5f47c29a48bd2a1e651a6eb7,5f47ed95d8292a23dfbe5dc1,2,,,,,,rug,,,,,,,,,,,6,0,0,20,20,57,1,,,,,,,,,,,,,,,,,,,,,,,,,,,,,,,,,,,,,,,,,,,,,,,,,,,,,,,,,,,,,,,,,,,,,,,,,,,,,,,,,,,,,,,,,,,,,,,,,,,,,,,,
,,?,0.002355,0,,,,,,stimuli/images/PICTURE_123.png,ADVICE,5f25b1a200ed0b27e21db196,19/11/2001,2020-08-27_18h30.52.238,proactive3.1,2020.1.2,Win32,60,5f47c29a48bd2a1e651a6eb7,5f47ed95d8292a23dfbe5dc1,2,,,,,,dart,,,,,,,,,,,5,0,0,21,21,40,1,,,,,,,,,,,,,,,,,,,,,,,,,,,,,,,,,,,,,,,,,,,,,,,,,,,,,,,,,,,,,,,,,,,,,,,,,,,,,,,,,,,,,,,,,,,,,,,,,,,,,,,,
,,?,0.002515,0,,,,,,stimuli/images/PICTURE_32.png,JUNGLE,5f25b1a200ed0b27e21db196,19/11/2001,2020-08-27_18h30.52.238,proactive3.1,2020.1.2,Win32,60,5f47c29a48bd2a1e651a6eb7,5f47ed95d8292a23dfbe5dc1,2,,,,,,crown,,,,,,,,,,,5,0,0,22,22,45,1,,,,,,,,,,,,,,,,,,,,,,,,,,,,,,,,,,,,,,,,,,,,,,,,,,,,,,,,,,,,,,,,,,,,,,,,,,,,,,,,,,,,,,,,,,,,,,,,,,,,,,,,
,,?,0.00223,0,,,,,,stimuli/images/PICTURE_160.png,FEET,5f25b1a200ed0b27e21db196,19/11/2001,2020-08-27_18h30.52.238,proactive3.1,2020.1.2,Win32,60,5f47c29a48bd2a1e651a6eb7,5f47ed95d8292a23dfbe5dc1,2,,,,,,wheelbarrow,,,,,,,,,,,6,0,0,23,23,58,1,,,,,,,,,,,,,,,,,,,,,,,,,,,,,,,,,,,,,,,,,,,,,,,,,,,,,,,,,,,,,,,,,,,,,,,,,,,,,,,,,,,,,,,,,,,,,,,,,,,,,,,,
,,?,0.002515,0,,,,,,stimuli/images/PICTURE_453.png,DUDE,5f25b1a200ed0b27e21db196,19/11/2001,2020-08-27_18h30.52.238,proactive3.1,2020.1.2,Win32,60,5f47c29a48bd2a1e651a6eb7,5f47ed95d8292a23dfbe5dc1,2,,,,,,scissors,,,,,,,,,,,3,0,0,24,24,27,1,,,,,,,,,,,,,,,,,,,,,,,,,,,,,,,,,,,,,,,,,,,,,,,,,,,,,,,,,,,,,,,,,,,,,,,,,,,,,,,,,,,,,,,,,,,,,,,,,,,,,,,,
,,?,0.00193,0,,,,,,stimuli/images/PICTURE_708.png,CLIENT,5f25b1a200ed0b27e21db196,19/11/2001,2020-08-27_18h30.52.238,proactive3.1,2020.1.2,Win32,60,5f47c29a48bd2a1e651a6eb7,5f47ed95d8292a23dfbe5dc1,2,,,,,,monkey,,,,,,,,,,,1,0,0,25,25,5,1,,,,,,,,,,,,,,,,,,,,,,,,,,,,,,,,,,,,,,,,,,,,,,,,,,,,,,,,,,,,,,,,,,,,,,,,,,,,,,,,,,,,,,,,,,,,,,,,,,,,,,,,
,,FAMILY,3.3647,1,,,,,,stimuli/images/PICTURE_302.png,FAMILY,5f25b1a200ed0b27e21db196,19/11/2001,2020-08-27_18h30.52.238,proactive3.1,2020.1.2,Win32,60,5f47c29a48bd2a1e651a6eb7,5f47ed95d8292a23dfbe5dc1,2,,,,,,taxi,,,,,,,,,,,2,0,0,26,26,18,1,,,,,,,,,,,,,,,,,,,,,,,,,,,,,,,,,,,,,,,,,,,,,,,,,,,,,,,,,,,,,,,,,,,,,,,,,,,,,,,,,,,,,,,,,,,,,,,,,,,,,,,,
,,?,0.003295,0,,,,,,stimuli/images/PICTURE_467.png,DEMON,5f25b1a200ed0b27e21db196,19/11/2001,2020-08-27_18h30.52.238,proactive3.1,2020.1.2,Win32,60,5f47c29a48bd2a1e651a6eb7,5f47ed95d8292a23dfbe5dc1,2,,,,,,peg,,,,,,,,,,,3,0,0,27,27,23,1,,,,,,,,,,,,,,,,,,,,,,,,,,,,,,,,,,,,,,,,,,,,,,,,,,,,,,,,,,,,,,,,,,,,,,,,,,,,,,,,,,,,,,,,,,,,,,,,,,,,,,,,
,,?,0.003405,0,,,,,,stimuli/images/PICTURE_160.png,LEADER,5f25b1a200ed0b27e21db196,19/11/2001,2020-08-27_18h30.52.238,proactive3.1,2020.1.2,Win32,60,5f47c29a48bd2a1e651a6eb7,5f47ed95d8292a23dfbe5dc1,2,,,,,,wheelbarrow,,,,,,,,,,,1,0,0,28,28,3,1,,,,,,,,,,,,,,,,,,,,,,,,,,,,,,,,,,,,,,,,,,,,,,,,,,,,,,,,,,,,,,,,,,,,,,,,,,,,,,,,,,,,,,,,,,,,,,,,,,,,,,,,
,,WOMAN,3.22987,0,,,,,,stimuli/images/PICTURE_688.png,WOMEN,5f25b1a200ed0b27e21db196,19/11/2001,2020-08-27_18h30.52.238,proactive3.1,2020.1.2,Win32,60,5f47c29a48bd2a1e651a6eb7,5f47ed95d8292a23dfbe5dc1,2,,,,,,runner,,,,,,,,,,,2,0,0,29,29,14,1,,,,,,,,,,,,,,,,,,,,,,,,,,,,,,,,,,,,,,,,,,,,,,,,,,,,,,,,,,,,,,,,,,,,,,,,,,,,,,,,,,,,,,,,,,,,,,,,,,,,,,,,
,,?,0.00315,0,,,,,,stimuli/images/PICTURE_453.png,PLENTY,5f25b1a200ed0b27e21db196,19/11/2001,2020-08-27_18h30.52.238,proactive3.1,2020.1.2,Win32,60,5f47c29a48bd2a1e651a6eb7,5f47ed95d8292a23dfbe5dc1,2,,,,,,scissors,,,,,,,,,,,6,0,0,30,30,56,1,,,,,,,,,,,,,,,,,,,,,,,,,,,,,,,,,,,,,,,,,,,,,,,,,,,,,,,,,,,,,,,,,,,,,,,,,,,,,,,,,,,,,,,,,,,,,,,,,,,,,,,,
,,MONTH,5.55528,1,,,,,,stimuli/images/PICTURE_692.png,MONTH,5f25b1a200ed0b27e21db196,19/11/2001,2020-08-27_18h30.52.238,proactive3.1,2020.1.2,Win32,60,5f47c29a48bd2a1e651a6eb7,5f47ed95d8292a23dfbe5dc1,2,,,,,,cherry,,,,,,,,,,,2,0,0,31,31,16,1,,,,,,,,,,,,,,,,,,,,,,,,,,,,,,,,,,,,,,,,,,,,,,,,,,,,,,,,,,,,,,,,,,,,,,,,,,,,,,,,,,,,,,,,,,,,,,,,,,,,,,,,
,,?,0.00391,0,,,,,,stimuli/images/PICTURE_675.png,WEAPON,5f25b1a200ed0b27e21db196,19/11/2001,2020-08-27_18h30.52.238,proactive3.1,2020.1.2,Win32,60,5f47c29a48bd2a1e651a6eb7,5f47ed95d8292a23dfbe5dc1,2,,,,,,windmill,,,,,,,,,,,4,0,0,32,32,32,1,,,,,,,,,,,,,,,,,,,,,,,,,,,,,,,,,,,,,,,,,,,,,,,,,,,,,,,,,,,,,,,,,,,,,,,,,,,,,,,,,,,,,,,,,,,,,,,,,,,,,,,,
,,?,0.004305,0,,,,,,stimuli/images/PICTURE_203.png,ARTIST,5f25b1a200ed0b27e21db196,19/11/2001,2020-08-27_18h30.52.238,proactive3.1,2020.1.2,Win32,60,5f47c29a48bd2a1e651a6eb7,5f47ed95d8292a23dfbe5dc1,2,,,,,,cap,,,,,,,,,,,3,0,0,33,33,26,1,,,,,,,,,,,,,,,,,,,,,,,,,,,,,,,,,,,,,,,,,,,,,,,,,,,,,,,,,,,,,,,,,,,,,,,,,,,,,,,,,,,,,,,,,,,,,,,,,,,,,,,,
,,?,0.004125,0,,,,,,stimuli/images/PICTURE_491.png,ROOF,5f25b1a200ed0b27e21db196,19/11/2001,2020-08-27_18h30.52.238,proactive3.1,2020.1.2,Win32,60,5f47c29a48bd2a1e651a6eb7,5f47ed95d8292a23dfbe5dc1,2,,,,,,rug,,,,,,,,,,,3,0,0,34,34,24,1,,,,,,,,,,,,,,,,,,,,,,,,,,,,,,,,,,,,,,,,,,,,,,,,,,,,,,,,,,,,,,,,,,,,,,,,,,,,,,,,,,,,,,,,,,,,,,,,,,,,,,,,
,,?,0.00472,0,,,,,,stimuli/images/PICTURE_667.png,BATH,5f25b1a200ed0b27e21db196,19/11/2001,2020-08-27_18h30.52.238,proactive3.1,2020.1.2,Win32,60,5f47c29a48bd2a1e651a6eb7,5f47ed95d8292a23dfbe5dc1,2,,,,,,daisy,,,,,,,,,,,1,0,0,35,35,4,1,,,,,,,,,,,,,,,,,,,,,,,,,,,,,,,,,,,,,,,,,,,,,,,,,,,,,,,,,,,,,,,,,,,,,,,,,,,,,,,,,,,,,,,,,,,,,,,,,,,,,,,,
,,?,0.00464,0,,,,,,stimuli/images/PICTURE_348.png,SPEECH,5f25b1a200ed0b27e21db196,19/11/2001,2020-08-27_18h30.52.238,proactive3.1,2020.1.2,Win32,60,5f47c29a48bd2a1e651a6eb7,5f47ed95d8292a23dfbe5dc1,2,,,,,,pepper,,,,,,,,,,,3,0,0,36,36,20,1,,,,,,,,,,,,,,,,,,,,,,,,,,,,,,,,,,,,,,,,,,,,,,,,,,,,,,,,,,,,,,,,,,,,,,,,,,,,,,,,,,,,,,,,,,,,,,,,,,,,,,,,
,,?,0.003465,0,,,,,,stimuli/images/PICTURE_380.png,PHOTO,5f25b1a200ed0b27e21db196,19/11/2001,2020-08-27_18h30.52.238,proactive3.1,2020.1.2,Win32,60,5f47c29a48bd2a1e651a6eb7,5f47ed95d8292a23dfbe5dc1,2,,,,,,gorilla,,,,,,,,,,,6,0,0,37,37,52,1,,,,,,,,,,,,,,,,,,,,,,,,,,,,,,,,,,,,,,,,,,,,,,,,,,,,,,,,,,,,,,,,,,,,,,,,,,,,,,,,,,,,,,,,,,,,,,,,,,,,,,,,
,,?,0.002995,0,,,,,,stimuli/images/PICTURE_255.png,AREA,5f25b1a200ed0b27e21db196,19/11/2001,2020-08-27_18h30.52.238,proactive3.1,2020.1.2,Win32,60,5f47c29a48bd2a1e651a6eb7,5f47ed95d8292a23dfbe5dc1,2,,,,,,shovel,,,,,,,,,,,3,0,0,38,38,22,1,,,,,,,,,,,,,,,,,,,,,,,,,,,,,,,,,,,,,,,,,,,,,,,,,,,,,,,,,,,,,,,,,,,,,,,,,,,,,,,,,,,,,,,,,,,,,,,,,,,,,,,,
,,?,0.002935,0,,,,,,stimuli/images/PICTURE_487.png,FLIGHT,5f25b1a200ed0b27e21db196,19/11/2001,2020-08-27_18h30.52.238,proactive3.1,2020.1.2,Win32,60,5f47c29a48bd2a1e651a6eb7,5f47ed95d8292a23dfbe5dc1,2,,,,,,basket,,,,,,,,,,,1,0,0,39,39,9,1,,,,,,,,,,,,,,,,,,,,,,,,,,,,,,,,,,,,,,,,,,,,,,,,,,,,,,,,,,,,,,,,,,,,,,,,,,,,,,,,,,,,,,,,,,,,,,,,,,,,,,,,
,,?,0.002885,0,,,,,,stimuli/images/PICTURE_311.png,FRIEND,5f25b1a200ed0b27e21db196,19/11/2001,2020-08-27_18h30.52.238,proactive3.1,2020.1.2,Win32,60,5f47c29a48bd2a1e651a6eb7,5f47ed95d8292a23dfbe5dc1,2,,,,,,razor,,,,,,,,,,,4,0,0,40,40,34,1,,,,,,,,,,,,,,,,,,,,,,,,,,,,,,,,,,,,,,,,,,,,,,,,,,,,,,,,,,,,,,,,,,,,,,,,,,,,,,,,,,,,,,,,,,,,,,,,,,,,,,,,
,,?,0.001765,0,,,,,,stimuli/images/PICTURE_177.png,CARS,5f25b1a200ed0b27e21db196,19/11/2001,2020-08-27_18h30.52.238,proactive3.1,2020.1.2,Win32,60,5f47c29a48bd2a1e651a6eb7,5f47ed95d8292a23dfbe5dc1,2,,,,,,mushroom,,,,,,,,,,,4,0,0,41,41,35,1,,,,,,,,,,,,,,,,,,,,,,,,,,,,,,,,,,,,,,,,,,,,,,,,,,,,,,,,,,,,,,,,,,,,,,,,,,,,,,,,,,,,,,,,,,,,,,,,,,,,,,,,
,,?,0.002065,0,,,,,,stimuli/images/PICTURE_688.png,CASINO,5f25b1a200ed0b27e21db196,19/11/2001,2020-08-27_18h30.52.238,proactive3.1,2020.1.2,Win32,60,5f47c29a48bd2a1e651a6eb7,5f47ed95d8292a23dfbe5dc1,2,,,,,,runner,,,,,,,,,,,1,0,0,42,42,2,1,,,,,,,,,,,,,,,,,,,,,,,,,,,,,,,,,,,,,,,,,,,,,,,,,,,,,,,,,,,,,,,,,,,,,,,,,,,,,,,,,,,,,,,,,,,,,,,,,,,,,,,,
,,?,0.002095,0,,,,,,stimuli/images/PICTURE_327.png,BEAUTY,5f25b1a200ed0b27e21db196,19/11/2001,2020-08-27_18h30.52.238,proactive3.1,2020.1.2,Win32,60,5f47c29a48bd2a1e651a6eb7,5f47ed95d8292a23dfbe5dc1,2,,,,,,helmet,,,,,,,,,,,5,0,0,43,43,48,1,,,,,,,,,,,,,,,,,,,,,,,,,,,,,,,,,,,,,,,,,,,,,,,,,,,,,,,,,,,,,,,,,,,,,,,,,,,,,,,,,,,,,,,,,,,,,,,,,,,,,,,,
,,?,0.002685,0,,,,,,stimuli/images/PICTURE_308.png,ESTATE,5f25b1a200ed0b27e21db196,19/11/2001,2020-08-27_18h30.52.238,proactive3.1,2020.1.2,Win32,60,5f47c29a48bd2a1e651a6eb7,5f47ed95d8292a23dfbe5dc1,2,,,,,,dice,,,,,,,,,,,5,0,0,44,44,46,1,,,,,,,,,,,,,,,,,,,,,,,,,,,,,,,,,,,,,,,,,,,,,,,,,,,,,,,,,,,,,,,,,,,,,,,,,,,,,,,,,,,,,,,,,,,,,,,,,,,,,,,,
,,?,0.001925,0,,,,,,stimuli/images/PICTURE_509.png,PHOTO,5f25b1a200ed0b27e21db196,19/11/2001,2020-08-27_18h30.52.238,proactive3.1,2020.1.2,Win32,60,5f47c29a48bd2a1e651a6eb7,5f47ed95d8292a23dfbe5dc1,2,,,,,,telephone,,,,,,,,,,,3,0,0,45,45,21,1,,,,,,,,,,,,,,,,,,,,,,,,,,,,,,,,,,,,,,,,,,,,,,,,,,,,,,,,,,,,,,,,,,,,,,,,,,,,,,,,,,,,,,,,,,,,,,,,,,,,,,,,
,,?,0.002055,0,,,,,,stimuli/images/PICTURE_215.png,PLENTY,5f25b1a200ed0b27e21db196,19/11/2001,2020-08-27_18h30.52.238,proactive3.1,2020.1.2,Win32,60,5f47c29a48bd2a1e651a6eb7,5f47ed95d8292a23dfbe5dc1,2,,,,,,boot,,,,,,,,,,,4,0,0,46,46,37,1,,,,,,,,,,,,,,,,,,,,,,,,,,,,,,,,,,,,,,,,,,,,,,,,,,,,,,,,,,,,,,,,,,,,,,,,,,,,,,,,,,,,,,,,,,,,,,,,,,,,,,,,
,,?,0.00197,0,,,,,,stimuli/images/PICTURE_208.png,THING,5f25b1a200ed0b27e21db196,19/11/2001,2020-08-27_18h30.52.238,proactive3.1,2020.1.2,Win32,60,5f47c29a48bd2a1e651a6eb7,5f47ed95d8292a23dfbe5dc1,2,,,,,,microphone,,,,,,,,,,,5,0,0,47,47,47,1,,,,,,,,,,,,,,,,,,,,,,,,,,,,,,,,,,,,,,,,,,,,,,,,,,,,,,,,,,,,,,,,,,,,,,,,,,,,,,,,,,,,,,,,,,,,,,,,,,,,,,,,
,,?,0.00677,0,,,,,,stimuli/images/PICTURE_123.png,ADVICE,5f25b1a200ed0b27e21db196,19/11/2001,2020-08-27_18h30.52.238,proactive3.1,2020.1.2,Win32,60,5f47c29a48bd2a1e651a6eb7,5f47ed95d8292a23dfbe5dc1,2,,,,,,dart,,,,,,,,,,,6,0,0,48,48,50,1,,,,,,,,,,,,,,,,,,,,,,,,,,,,,,,,,,,,,,,,,,,,,,,,,,,,,,,,,,,,,,,,,,,,,,,,,,,,,,,,,,,,,,,,,,,,,,,,,,,,,,,,
,,?,0.0019,0,,,,,,stimuli/images/PICTURE_380.png,DEATH,5f25b1a200ed0b27e21db196,19/11/2001,2020-08-27_18h30.52.238,proactive3.1,2020.1.2,Win32,60,5f47c29a48bd2a1e651a6eb7,5f47ed95d8292a23dfbe5dc1,2,,,,,,gorilla,,,,,,,,,,,5,0,0,49,49,49,1,,,,,,,,,,,,,,,,,,,,,,,,,,,,,,,,,,,,,,,,,,,,,,,,,,,,,,,,,,,,,,,,,,,,,,,,,,,,,,,,,,,,,,,,,,,,,,,,,,,,,,,,
,,?,0.002045,0,,,,,,stimuli/images/PICTURE_708.png,PENNY,5f25b1a200ed0b27e21db196,19/11/2001,2020-08-27_18h30.52.238,proactive3.1,2020.1.2,Win32,60,5f47c29a48bd2a1e651a6eb7,5f47ed95d8292a23dfbe5dc1,2,,,,,,monkey,,,,,,,,,,,4,0,0,50,50,31,1,,,,,,,,,,,,,,,,,,,,,,,,,,,,,,,,,,,,,,,,,,,,,,,,,,,,,,,,,,,,,,,,,,,,,,,,,,,,,,,,,,,,,,,,,,,,,,,,,,,,,,,,
,,?,0.00186,0,,,,,,stimuli/images/PICTURE_744.png,SYSTEM,5f25b1a200ed0b27e21db196,19/11/2001,2020-08-27_18h30.52.238,proactive3.1,2020.1.2,Win32,60,5f47c29a48bd2a1e651a6eb7,5f47ed95d8292a23dfbe5dc1,2,,,,,,ring,,,,,,,,,,,5,0,0,51,51,43,1,,,,,,,,,,,,,,,,,,,,,,,,,,,,,,,,,,,,,,,,,,,,,,,,,,,,,,,,,,,,,,,,,,,,,,,,,,,,,,,,,,,,,,,,,,,,,,,,,,,,,,,,
,,?,0.002075,0,,,,,,stimuli/images/PICTURE_208.png,MONTH,5f25b1a200ed0b27e21db196,19/11/2001,2020-08-27_18h30.52.238,proactive3.1,2020.1.2,Win32,60,5f47c29a48bd2a1e651a6eb7,5f47ed95d8292a23dfbe5dc1,2,,,,,,microphone,,,,,,,,,,,6,0,0,52,52,53,1,,,,,,,,,,,,,,,,,,,,,,,,,,,,,,,,,,,,,,,,,,,,,,,,,,,,,,,,,,,,,,,,,,,,,,,,,,,,,,,,,,,,,,,,,,,,,,,,,,,,,,,,
,,?,0.002495,0,,,,,,stimuli/images/PICTURE_233.png,IDEAS,5f25b1a200ed0b27e21db196,19/11/2001,2020-08-27_18h30.52.238,proactive3.1,2020.1.2,Win32,60,5f47c29a48bd2a1e651a6eb7,5f47ed95d8292a23dfbe5dc1,2,,,,,,salt,,,,,,,,,,,3,0,0,53,53,28,1,,,,,,,,,,,,,,,,,,,,,,,,,,,,,,,,,,,,,,,,,,,,,,,,,,,,,,,,,,,,,,,,,,,,,,,,,,,,,,,,,,,,,,,,,,,,,,,,,,,,,,,,
,,?,0.002015,0,,,,,,stimuli/images/PICTURE_339.png,PLENTY,5f25b1a200ed0b27e21db196,19/11/2001,2020-08-27_18h30.52.238,proactive3.1,2020.1.2,Win32,60,5f47c29a48bd2a1e651a6eb7,5f47ed95d8292a23dfbe5dc1,2,,,,,,backpack,,,,,,,,,,,1,0,0,54,54,0,1,,,,,,,,,,,,,,,,,,,,,,,,,,,,,,,,,,,,,,,,,,,,,,,,,,,,,,,,,,,,,,,,,,,,,,,,,,,,,,,,,,,,,,,,,,,,,,,,,,,,,,,,
,,?,0.002115,0,,,,,,stimuli/images/PICTURE_68.png,MILE,5f25b1a200ed0b27e21db196,19/11/2001,2020-08-27_18h30.52.238,proactive3.1,2020.1.2,Win32,60,5f47c29a48bd2a1e651a6eb7,5f47ed95d8292a23dfbe5dc1,2,,,,,,candle,,,,,,,,,,,5,0,0,55,55,44,1,,,,,,,,,,,,,,,,,,,,,,,,,,,,,,,,,,,,,,,,,,,,,,,,,,,,,,,,,,,,,,,,,,,,,,,,,,,,,,,,,,,,,,,,,,,,,,,,,,,,,,,,
,,?,0.00192,0,,,,,,stimuli/images/PICTURE_469.png,ARTIST,5f25b1a200ed0b27e21db196,19/11/2001,2020-08-27_18h30.52.238,proactive3.1,2020.1.2,Win32,60,5f47c29a48bd2a1e651a6eb7,5f47ed95d8292a23dfbe5dc1,2,,,,,,stool,,,,,,,,,,,1,0,0,56,56,6,1,,,,,,,,,,,,,,,,,,,,,,,,,,,,,,,,,,,,,,,,,,,,,,,,,,,,,,,,,,,,,,,,,,,,,,,,,,,,,,,,,,,,,,,,,,,,,,,,,,,,,,,,
,,?,0.001945,0,,,,,,stimuli/images/PICTURE_504.png,BODY,5f25b1a200ed0b27e21db196,19/11/2001,2020-08-27_18h30.52.238,proactive3.1,2020.1.2,Win32,60,5f47c29a48bd2a1e651a6eb7,5f47ed95d8292a23dfbe5dc1,2,,,,,,wheel,,,,,,,,,,,1,0,0,57,57,8,1,,,,,,,,,,,,,,,,,,,,,,,,,,,,,,,,,,,,,,,,,,,,,,,,,,,,,,,,,,,,,,,,,,,,,,,,,,,,,,,,,,,,,,,,,,,,,,,,,,,,,,,,
,,?,0.00186,0,,,,,,stimuli/images/PICTURE_308.png,KIND,5f25b1a200ed0b27e21db196,19/11/2001,2020-08-27_18h30.52.238,proactive3.1,2020.1.2,Win32,60,5f47c29a48bd2a1e651a6eb7,5f47ed95d8292a23dfbe5dc1,2,,,,,,dice,,,,,,,,,,,6,0,0,58,58,54,1,,,,,,,,,,,,,,,,,,,,,,,,,,,,,,,,,,,,,,,,,,,,,,,,,,,,,,,,,,,,,,,,,,,,,,,,,,,,,,,,,,,,,,,,,,,,,,,,,,,,,,,,
,,ADVICE,4.91607,1,,,,,,stimuli/images/PICTURE_285.png,ADVICE,5f25b1a200ed0b27e21db196,19/11/2001,2020-08-27_18h30.52.238,proactive3.1,2020.1.2,Win32,60,5f47c29a48bd2a1e651a6eb7,5f47ed95d8292a23dfbe5dc1,2,,,,,,carrot,,,,,,,,,,,2,0,0,59,59,12,1,,,,,,,,,,,,,,,,,,,,,,,,,,,,,,,,,,,,,,,,,,,,,,,,,,,,,,,,,,,,,,,,,,,,,,,,,,,,,,,,,,,,,,,,,,,,,,,,,,,,,,,,
,,,,,,,,,,,,5f25b1a200ed0b27e21db196,19/11/2001,2020-08-27_18h30.52.238,proactive3.1,2020.1.2,Win32,60,5f47c29a48bd2a1e651a6eb7,5f47ed95d8292a23dfbe5dc1,2,,,,,,,,,,,,,,,,,,,,,,,,0,1,1,0,1,stimuli/learn-block1.csv,,,,,,,,,,,,,,,,,,,,,,,,,,,,,,,,,,,,,,,,,,,,,,,,,,,,,,,,,,,,,,,,,,,,,,,,,,,,,,,,,,,,,,,,,,,,,,,,,,
,,,,,,,,,,stimuli/images/PICTURE_470.png,BEAUTY,5f25b1a200ed0b27e21db196,19/11/2001,2020-08-27_18h30.52.238,proactive3.1,2020.1.2,Win32,60,5f47c29a48bd2a1e651a6eb7,5f47ed95d8292a23dfbe5dc1,2,,,,,,motorbike,,,,,,0,0,0,26,1,3,2,,,,,,,,,,,,,,,,,,,,,,,,,,,,,,,,,,,,,,,,,,,,,,,,,,,,,,,,,,,,,,,,,,,,,,,,,,,,,,,,,,,,,,,,,,,,,,,,,,,,,,,,,,,,,
,,,,,,,,,,stimuli/images/PICTURE_32.png,LETTER,5f25b1a200ed0b27e21db196,19/11/2001,2020-08-27_18h30.52.238,proactive3.1,2020.1.2,Win32,60,5f47c29a48bd2a1e651a6eb7,5f47ed95d8292a23dfbe5dc1,2,,,,,,crown,,,,,,0,1,1,56,1,6,2,,,,,,,,,,,,,,,,,,,,,,,,,,,,,,,,,,,,,,,,,,,,,,,,,,,,,,,,,,,,,,,,,,,,,,,,,,,,,,,,,,,,,,,,,,,,,,,,,,,,,,,,,,,,,
,,,,,,,,,,stimuli/images/PICTURE_356.png,CANDY,5f25b1a200ed0b27e21db196,19/11/2001,2020-08-27_18h30.52.238,proactive3.1,2020.1.2,Win32,60,5f47c29a48bd2a1e651a6eb7,5f47ed95d8292a23dfbe5dc1,2,,,,,,pawn,,,,,,0,2,2,46,1,5,2,,,,,,,,,,,,,,,,,,,,,,,,,,,,,,,,,,,,,,,,,,,,,,,,,,,,,,,,,,,,,,,,,,,,,,,,,,,,,,,,,,,,,,,,,,,,,,,,,,,,,,,,,,,,,
,,,,,,,,,,stimuli/images/PICTURE_654.png,YEAR,5f25b1a200ed0b27e21db196,19/11/2001,2020-08-27_18h30.52.238,proactive3.1,2020.1.2,Win32,60,5f47c29a48bd2a1e651a6eb7,5f47ed95d8292a23dfbe5dc1,2,,,,,,pencil,,,,,,0,3,3,41,1,5,2,,,,,,,,,,,,,,,,,,,,,,,,,,,,,,,,,,,,,,,,,,,,,,,,,,,,,,,,,,,,,,,,,,,,,,,,,,,,,,,,,,,,,,,,,,,,,,,,,,,,,,,,,,,,,
,,,,,,,,,,stimuli/images/PICTURE_677.png,PHOTO,5f25b1a200ed0b27e21db196,19/11/2001,2020-08-27_18h30.52.238,proactive3.1,2020.1.2,Win32,60,5f47c29a48bd2a1e651a6eb7,5f47ed95d8292a23dfbe5dc1,2,,,,,,map,,,,,,0,4,4,14,1,2,2,,,,,,,,,,,,,,,,,,,,,,,,,,,,,,,,,,,,,,,,,,,,,,,,,,,,,,,,,,,,,,,,,,,,,,,,,,,,,,,,,,,,,,,,,,,,,,,,,,,,,,,,,,,,,
,,,,,,,,,,stimuli/images/PICTURE_18.png,RIVER,5f25b1a200ed0b27e21db196,19/11/2001,2020-08-27_18h30.52.238,proactive3.1,2020.1.2,Win32,60,5f47c29a48bd2a1e651a6eb7,5f47ed95d8292a23dfbe5dc1,2,,,,,,planet,,,,,,0,5,5,22,1,3,2,,,,,,,,,,,,,,,,,,,,,,,,,,,,,,,,,,,,,,,,,,,,,,,,,,,,,,,,,,,,,,,,,,,,,,,,,,,,,,,,,,,,,,,,,,,,,,,,,,,,,,,,,,,,,
,,,,,,,,,,stimuli/images/PICTURE_57.png,CASINO,5f25b1a200ed0b27e21db196,19/11/2001,2020-08-27_18h30.52.238,proactive3.1,2020.1.2,Win32,60,5f47c29a48bd2a1e651a6eb7,5f47ed95d8292a23dfbe5dc1,2,,,,,,stamp,,,,,,0,6,6,12,1,2,2,,,,,,,,,,,,,,,,,,,,,,,,,,,,,,,,,,,,,,,,,,,,,,,,,,,,,,,,,,,,,,,,,,,,,,,,,,,,,,,,,,,,,,,,,,,,,,,,,,,,,,,,,,,,,
,,,,,,,,,,stimuli/images/PICTURE_160.png,HOTEL,5f25b1a200ed0b27e21db196,19/11/2001,2020-08-27_18h30.52.238,proactive3.1,2020.1.2,Win32,60,5f47c29a48bd2a1e651a6eb7,5f47ed95d8292a23dfbe5dc1,2,,,,,,wheelbarrow,,,,,,0,7,7,16,1,2,2,,,,,,,,,,,,,,,,,,,,,,,,,,,,,,,,,,,,,,,,,,,,,,,,,,,,,,,,,,,,,,,,,,,,,,,,,,,,,,,,,,,,,,,,,,,,,,,,,,,,,,,,,,,,,
,,,,,,,,,,stimuli/images/PICTURE_2.png,AREA,5f25b1a200ed0b27e21db196,19/11/2001,2020-08-27_18h30.52.238,proactive3.1,2020.1.2,Win32,60,5f47c29a48bd2a1e651a6eb7,5f47ed95d8292a23dfbe5dc1,2,,,,,,tyre,,,,,,0,8,8,32,1,4,2,,,,,,,,,,,,,,,,,,,,,,,,,,,,,,,,,,,,,,,,,,,,,,,,,,,,,,,,,,,,,,,,,,,,,,,,,,,,,,,,,,,,,,,,,,,,,,,,,,,,,,,,,,,,,
,,,,,,,,,,stimuli/images/PICTURE_93.png,GIRL,5f25b1a200ed0b27e21db196,19/11/2001,2020-08-27_18h30.52.238,proactive3.1,2020.1.2,Win32,60,5f47c29a48bd2a1e651a6eb7,5f47ed95d8292a23dfbe5dc1,2,,,,,,skateboard,,,,,,0,9,9,31,1,4,2,,,,,,,,,,,,,,,,,,,,,,,,,,,,,,,,,,,,,,,,,,,,,,,,,,,,,,,,,,,,,,,,,,,,,,,,,,,,,,,,,,,,,,,,,,,,,,,,,,,,,,,,,,,,,
,,,,,,,,,,stimuli/images/PICTURE_208.png,SPIRIT,5f25b1a200ed0b27e21db196,19/11/2001,2020-08-27_18h30.52.238,proactive3.1,2020.1.2,Win32,60,5f47c29a48bd2a1e651a6eb7,5f47ed95d8292a23dfbe5dc1,2,,,,,,microphone,,,,,,0,10,10,28,1,3,2,,,,,,,,,,,,,,,,,,,,,,,,,,,,,,,,,,,,,,,,,,,,,,,,,,,,,,,,,,,,,,,,,,,,,,,,,,,,,,,,,,,,,,,,,,,,,,,,,,,,,,,,,,,,,
,,,,,,,,,,stimuli/images/PICTURE_215.png,BOYS,5f25b1a200ed0b27e21db196,19/11/2001,2020-08-27_18h30.52.238,proactive3.1,2020.1.2,Win32,60,5f47c29a48bd2a1e651a6eb7,5f47ed95d8292a23dfbe5dc1,2,,,,,,boot,,,,,,0,11,11,24,1,3,2,,,,,,,,,,,,,,,,,,,,,,,,,,,,,,,,,,,,,,,,,,,,,,,,,,,,,,,,,,,,,,,,,,,,,,,,,,,,,,,,,,,,,,,,,,,,,,,,,,,,,,,,,,,,,
,,,,,,,,,,stimuli/images/PICTURE_147.png,LEADER,5f25b1a200ed0b27e21db196,19/11/2001,2020-08-27_18h30.52.238,proactive3.1,2020.1.2,Win32,60,5f47c29a48bd2a1e651a6eb7,5f47ed95d8292a23dfbe5dc1,2,,,,,,hanger,,,,,,0,12,12,33,1,4,2,,,,,,,,,,,,,,,,,,,,,,,,,,,,,,,,,,,,,,,,,,,,,,,,,,,,,,,,,,,,,,,,,,,,,,,,,,,,,,,,,,,,,,,,,,,,,,,,,,,,,,,,,,,,,
,,,,,,,,,,stimuli/images/PICTURE_141.png,CLIENT,5f25b1a200ed0b27e21db196,19/11/2001,2020-08-27_18h30.52.238,proactive3.1,2020.1.2,Win32,60,5f47c29a48bd2a1e651a6eb7,5f47ed95d8292a23dfbe5dc1,2,,,,,,sunflower,,,,,,0,13,13,30,1,4,2,,,,,,,,,,,,,,,,,,,,,,,,,,,,,,,,,,,,,,,,,,,,,,,,,,,,,,,,,,,,,,,,,,,,,,,,,,,,,,,,,,,,,,,,,,,,,,,,,,,,,,,,,,,,,
,,,,,,,,,,stimuli/images/PICTURE_57.png,NATION,5f25b1a200ed0b27e21db196,19/11/2001,2020-08-27_18h30.52.238,proactive3.1,2020.1.2,Win32,60,5f47c29a48bd2a1e651a6eb7,5f47ed95d8292a23dfbe5dc1,2,,,,,,stamp,,,,,,0,14,14,21,1,3,2,,,,,,,,,,,,,,,,,,,,,,,,,,,,,,,,,,,,,,,,,,,,,,,,,,,,,,,,,,,,,,,,,,,,,,,,,,,,,,,,,,,,,,,,,,,,,,,,,,,,,,,,,,,,,
,,,,,,,,,,stimuli/images/PICTURE_255.png,PENNY,5f25b1a200ed0b27e21db196,19/11/2001,2020-08-27_18h30.52.238,proactive3.1,2020.1.2,Win32,60,5f47c29a48bd2a1e651a6eb7,5f47ed95d8292a23dfbe5dc1,2,,,,,,shovel,,,,,,0,15,15,19,1,2,2,,,,,,,,,,,,,,,,,,,,,,,,,,,,,,,,,,,,,,,,,,,,,,,,,,,,,,,,,,,,,,,,,,,,,,,,,,,,,,,,,,,,,,,,,,,,,,,,,,,,,,,,,,,,,
,,,,,,,,,,stimuli/images/PICTURE_311.png,TOILET,5f25b1a200ed0b27e21db196,19/11/2001,2020-08-27_18h30.52.238,proactive3.1,2020.1.2,Win32,60,5f47c29a48bd2a1e651a6eb7,5f47ed95d8292a23dfbe5dc1,2,,,,,,razor,,,,,,0,16,16,54,1,6,2,,,,,,,,,,,,,,,,,,,,,,,,,,,,,,,,,,,,,,,,,,,,,,,,,,,,,,,,,,,,,,,,,,,,,,,,,,,,,,,,,,,,,,,,,,,,,,,,,,,,,,,,,,,,,
,,,,,,,,,,stimuli/images/PICTURE_405.png,JUNGLE,5f25b1a200ed0b27e21db196,19/11/2001,2020-08-27_18h30.52.238,proactive3.1,2020.1.2,Win32,60,5f47c29a48bd2a1e651a6eb7,5f47ed95d8292a23dfbe5dc1,2,,,,,,anchor,,,,,,0,17,17,58,1,6,2,,,,,,,,,,,,,,,,,,,,,,,,,,,,,,,,,,,,,,,,,,,,,,,,,,,,,,,,,,,,,,,,,,,,,,,,,,,,,,,,,,,,,,,,,,,,,,,,,,,,,,,,,,,,,
,,,,,,,,,,stimuli/images/PICTURE_564.png,PLENTY,5f25b1a200ed0b27e21db196,19/11/2001,2020-08-27_18h30.52.238,proactive3.1,2020.1.2,Win32,60,5f47c29a48bd2a1e651a6eb7,5f47ed95d8292a23dfbe5dc1,2,,,,,,spoon,,,,,,0,18,18,11,1,2,2,,,,,,,,,,,,,,,,,,,,,,,,,,,,,,,,,,,,,,,,,,,,,,,,,,,,,,,,,,,,,,,,,,,,,,,,,,,,,,,,,,,,,,,,,,,,,,,,,,,,,,,,,,,,,
,,,,,,,,,,stimuli/images/PICTURE_509.png,MILLER,5f25b1a200ed0b27e21db196,19/11/2001,2020-08-27_18h30.52.238,proactive3.1,2020.1.2,Win32,60,5f47c29a48bd2a1e651a6eb7,5f47ed95d8292a23dfbe5dc1,2,,,,,,telephone,,,,,,0,19,19,49,1,5,2,,,,,,,,,,,,,,,,,,,,,,,,,,,,,,,,,,,,,,,,,,,,,,,,,,,,,,,,,,,,,,,,,,,,,,,,,,,,,,,,,,,,,,,,,,,,,,,,,,,,,,,,,,,,,
,,,,,,,,,,stimuli/images/PICTURE_314.png,SPEECH,5f25b1a200ed0b27e21db196,19/11/2001,2020-08-27_18h30.52.238,proactive3.1,2020.1.2,Win32,60,5f47c29a48bd2a1e651a6eb7,5f47ed95d8292a23dfbe5dc1,2,,,,,,perfume,,,,,,0,20,20,35,1,4,2,,,,,,,,,,,,,,,,,,,,,,,,,,,,,,,,,,,,,,,,,,,,,,,,,,,,,,,,,,,,,,,,,,,,,,,,,,,,,,,,,,,,,,,,,,,,,,,,,,,,,,,,,,,,,
,,,,,,,,,,stimuli/images/PICTURE_453.png,FAMILY,5f25b1a200ed0b27e21db196,19/11/2001,2020-08-27_18h30.52.238,proactive3.1,2020.1.2,Win32,60,5f47c29a48bd2a1e651a6eb7,5f47ed95d8292a23dfbe5dc1,2,,,,,,scissors,,,,,,0,21,21,48,1,5,2,,,,,,,,,,,,,,,,,,,,,,,,,,,,,,,,,,,,,,,,,,,,,,,,,,,,,,,,,,,,,,,,,,,,,,,,,,,,,,,,,,,,,,,,,,,,,,,,,,,,,,,,,,,,,
,,,,,,,,,,stimuli/images/PICTURE_348.png,TOILET,5f25b1a200ed0b27e21db196,19/11/2001,2020-08-27_18h30.52.238,proactive3.1,2020.1.2,Win32,60,5f47c29a48bd2a1e651a6eb7,5f47ed95d8292a23dfbe5dc1,2,,,,,,pepper,,,,,,0,22,22,4,1,1,2,,,,,,,,,,,,,,,,,,,,,,,,,,,,,,,,,,,,,,,,,,,,,,,,,,,,,,,,,,,,,,,,,,,,,,,,,,,,,,,,,,,,,,,,,,,,,,,,,,,,,,,,,,,,,
,,,,,,,,,,stimuli/images/PICTURE_655.png,SALE,5f25b1a200ed0b27e21db196,19/11/2001,2020-08-27_18h30.52.238,proactive3.1,2020.1.2,Win32,60,5f47c29a48bd2a1e651a6eb7,5f47ed95d8292a23dfbe5dc1,2,,,,,,megaphone,,,,,,0,23,23,57,1,6,2,,,,,,,,,,,,,,,,,,,,,,,,,,,,,,,,,,,,,,,,,,,,,,,,,,,,,,,,,,,,,,,,,,,,,,,,,,,,,,,,,,,,,,,,,,,,,,,,,,,,,,,,,,,,,
,,,,,,,,,,stimuli/images/PICTURE_688.png,CLOCK,5f25b1a200ed0b27e21db196,19/11/2001,2020-08-27_18h30.52.238,proactive3.1,2020.1.2,Win32,60,5f47c29a48bd2a1e651a6eb7,5f47ed95d8292a23dfbe5dc1,2,,,,,,runner,,,,,,0,24,24,42,1,5,2,,,,,,,,,,,,,,,,,,,,,,,,,,,,,,,,,,,,,,,,,,,,,,,,,,,,,,,,,,,,,,,,,,,,,,,,,,,,,,,,,,,,,,,,,,,,,,,,,,,,,,,,,,,,,
,,,,,,,,,,stimuli/images/PICTURE_470.png,MOMENT,5f25b1a200ed0b27e21db196,19/11/2001,2020-08-27_18h30.52.238,proactive3.1,2020.1.2,Win32,60,5f47c29a48bd2a1e651a6eb7,5f47ed95d8292a23dfbe5dc1,2,,,,,,motorbike,,,,,,0,25,25,40,1,5,2,,,,,,,,,,,,,,,,,,,,,,,,,,,,,,,,,,,,,,,,,,,,,,,,,,,,,,,,,,,,,,,,,,,,,,,,,,,,,,,,,,,,,,,,,,,,,,,,,,,,,,,,,,,,,
,,,,,,,,,,stimuli/images/PICTURE_177.png,HOUSE,5f25b1a200ed0b27e21db196,19/11/2001,2020-08-27_18h30.52.238,proactive3.1,2020.1.2,Win32,60,5f47c29a48bd2a1e651a6eb7,5f47ed95d8292a23dfbe5dc1,2,,,,,,mushroom,,,,,,0,26,26,25,1,3,2,,,,,,,,,,,,,,,,,,,,,,,,,,,,,,,,,,,,,,,,,,,,,,,,,,,,,,,,,,,,,,,,,,,,,,,,,,,,,,,,,,,,,,,,,,,,,,,,,,,,,,,,,,,,,
,,,,,,,,,,stimuli/images/PICTURE_487.png,POLICY,5f25b1a200ed0b27e21db196,19/11/2001,2020-08-27_18h30.52.238,proactive3.1,2020.1.2,Win32,60,5f47c29a48bd2a1e651a6eb7,5f47ed95d8292a23dfbe5dc1,2,,,,,,basket,,,,,,0,27,27,34,1,4,2,,,,,,,,,,,,,,,,,,,,,,,,,,,,,,,,,,,,,,,,,,,,,,,,,,,,,,,,,,,,,,,,,,,,,,,,,,,,,,,,,,,,,,,,,,,,,,,,,,,,,,,,,,,,,
,,,,,,,,,,stimuli/images/PICTURE_327.png,LEADER,5f25b1a200ed0b27e21db196,19/11/2001,2020-08-27_18h30.52.238,proactive3.1,2020.1.2,Win32,60,5f47c29a48bd2a1e651a6eb7,5f47ed95d8292a23dfbe5dc1,2,,,,,,helmet,,,,,,0,28,28,17,1,2,2,,,,,,,,,,,,,,,,,,,,,,,,,,,,,,,,,,,,,,,,,,,,,,,,,,,,,,,,,,,,,,,,,,,,,,,,,,,,,,,,,,,,,,,,,,,,,,,,,,,,,,,,,,,,,
,,,,,,,,,,stimuli/images/PICTURE_491.png,SERIES,5f25b1a200ed0b27e21db196,19/11/2001,2020-08-27_18h30.52.238,proactive3.1,2020.1.2,Win32,60,5f47c29a48bd2a1e651a6eb7,5f47ed95d8292a23dfbe5dc1,2,,,,,,rug,,,,,,0,29,29,39,1,4,2,,,,,,,,,,,,,,,,,,,,,,,,,,,,,,,,,,,,,,,,,,,,,,,,,,,,,,,,,,,,,,,,,,,,,,,,,,,,,,,,,,,,,,,,,,,,,,,,,,,,,,,,,,,,,
,,,,,,,,,,stimuli/images/PICTURE_285.png,PRINCE,5f25b1a200ed0b27e21db196,19/11/2001,2020-08-27_18h30.52.238,proactive3.1,2020.1.2,Win32,60,5f47c29a48bd2a1e651a6eb7,5f47ed95d8292a23dfbe5dc1,2,,,,,,carrot,,,,,,0,30,30,20,1,3,2,,,,,,,,,,,,,,,,,,,,,,,,,,,,,,,,,,,,,,,,,,,,,,,,,,,,,,,,,,,,,,,,,,,,,,,,,,,,,,,,,,,,,,,,,,,,,,,,,,,,,,,,,,,,,
,,,,,,,,,,stimuli/images/PICTURE_403.png,FAMILY,5f25b1a200ed0b27e21db196,19/11/2001,2020-08-27_18h30.52.238,proactive3.1,2020.1.2,Win32,60,5f47c29a48bd2a1e651a6eb7,5f47ed95d8292a23dfbe5dc1,2,,,,,,cathedral,,,,,,0,31,31,9,1,1,2,,,,,,,,,,,,,,,,,,,,,,,,,,,,,,,,,,,,,,,,,,,,,,,,,,,,,,,,,,,,,,,,,,,,,,,,,,,,,,,,,,,,,,,,,,,,,,,,,,,,,,,,,,,,,
,,,,,,,,,,stimuli/images/PICTURE_750.png,POLICY,5f25b1a200ed0b27e21db196,19/11/2001,2020-08-27_18h30.52.238,proactive3.1,2020.1.2,Win32,60,5f47c29a48bd2a1e651a6eb7,5f47ed95d8292a23dfbe5dc1,2,,,,,,kettle,,,,,,0,32,32,44,1,5,2,,,,,,,,,,,,,,,,,,,,,,,,,,,,,,,,,,,,,,,,,,,,,,,,,,,,,,,,,,,,,,,,,,,,,,,,,,,,,,,,,,,,,,,,,,,,,,,,,,,,,,,,,,,,,
,,,,,,,,,,stimuli/images/PICTURE_285.png,WRITER,5f25b1a200ed0b27e21db196,19/11/2001,2020-08-27_18h30.52.238,proactive3.1,2020.1.2,Win32,60,5f47c29a48bd2a1e651a6eb7,5f47ed95d8292a23dfbe5dc1,2,,,,,,carrot,,,,,,0,33,33,6,1,1,2,,,,,,,,,,,,,,,,,,,,,,,,,,,,,,,,,,,,,,,,,,,,,,,,,,,,,,,,,,,,,,,,,,,,,,,,,,,,,,,,,,,,,,,,,,,,,,,,,,,,,,,,,,,,,
,,,,,,,,,,stimuli/images/PICTURE_667.png,GLASS,5f25b1a200ed0b27e21db196,19/11/2001,2020-08-27_18h30.52.238,proactive3.1,2020.1.2,Win32,60,5f47c29a48bd2a1e651a6eb7,5f47ed95d8292a23dfbe5dc1,2,,,,,,daisy,,,,,,0,34,34,27,1,3,2,,,,,,,,,,,,,,,,,,,,,,,,,,,,,,,,,,,,,,,,,,,,,,,,,,,,,,,,,,,,,,,,,,,,,,,,,,,,,,,,,,,,,,,,,,,,,,,,,,,,,,,,,,,,,
,,,,,,,,,,stimuli/images/PICTURE_215.png,FOOD,5f25b1a200ed0b27e21db196,19/11/2001,2020-08-27_18h30.52.238,proactive3.1,2020.1.2,Win32,60,5f47c29a48bd2a1e651a6eb7,5f47ed95d8292a23dfbe5dc1,2,,,,,,boot,,,,,,0,35,35,5,1,1,2,,,,,,,,,,,,,,,,,,,,,,,,,,,,,,,,,,,,,,,,,,,,,,,,,,,,,,,,,,,,,,,,,,,,,,,,,,,,,,,,,,,,,,,,,,,,,,,,,,,,,,,,,,,,,
,,,,,,,,,,stimuli/images/PICTURE_677.png,FAMILY,5f25b1a200ed0b27e21db196,19/11/2001,2020-08-27_18h30.52.238,proactive3.1,2020.1.2,Win32,60,5f47c29a48bd2a1e651a6eb7,5f47ed95d8292a23dfbe5dc1,2,,,,,,map,,,,,,0,36,36,53,1,6,2,,,,,,,,,,,,,,,,,,,,,,,,,,,,,,,,,,,,,,,,,,,,,,,,,,,,,,,,,,,,,,,,,,,,,,,,,,,,,,,,,,,,,,,,,,,,,,,,,,,,,,,,,,,,,
,,,,,,,,,,stimuli/images/PICTURE_509.png,APPLE,5f25b1a200ed0b27e21db196,19/11/2001,2020-08-27_18h30.52.238,proactive3.1,2020.1.2,Win32,60,5f47c29a48bd2a1e651a6eb7,5f47ed95d8292a23dfbe5dc1,2,,,,,,telephone,,,,,,0,37,37,38,1,4,2,,,,,,,,,,,,,,,,,,,,,,,,,,,,,,,,,,,,,,,,,,,,,,,,,,,,,,,,,,,,,,,,,,,,,,,,,,,,,,,,,,,,,,,,,,,,,,,,,,,,,,,,,,,,,
,,,,,,,,,,stimuli/images/PICTURE_405.png,JUNGLE,5f25b1a200ed0b27e21db196,19/11/2001,2020-08-27_18h30.52.238,proactive3.1,2020.1.2,Win32,60,5f47c29a48bd2a1e651a6eb7,5f47ed95d8292a23dfbe5dc1,2,,,,,,anchor,,,,,,0,38,38,13,1,2,2,,,,,,,,,,,,,,,,,,,,,,,,,,,,,,,,,,,,,,,,,,,,,,,,,,,,,,,,,,,,,,,,,,,,,,,,,,,,,,,,,,,,,,,,,,,,,,,,,,,,,,,,,,,,,
