consent_key.keys,consent_key.rt,recalled,recalled_rt,recall_acc,example_recall.thisRepN,example_recall.thisTrialN,example_recall.thisN,example_recall.thisIndex,example_recall.ran,file,word,participant,please enter your date of birth (dd/mm/yyyy),date,expName,psychopyVersion,OS,frameRate,STUDY_ID,SESSION_ID,list,prac_learn_study_loop.thisRepN,prac_learn_study_loop.thisTrialN,prac_learn_study_loop.thisN,prac_learn_study_loop.thisIndex,prac_learn_study_loop.ran,image,prac_learn_test_loop.thisRepN,prac_learn_test_loop.thisTrialN,prac_learn_test_loop.thisN,prac_learn_test_loop.thisIndex,prac_learn_test_loop.ran,learn_study_loop.thisRepN,learn_study_loop.thisTrialN,learn_study_loop.thisN,learn_study_loop.thisIndex,learn_study_loop.ran,list_no,block_no,learn_test_loop.thisRepN,learn_test_loop.thisTrialN,learn_test_loop.thisN,learn_test_loop.thisIndex,learn_test_loop.ran,learn_blocks.thisRepN,learn_blocks.thisTrialN,learn_blocks.thisN,learn_blocks.thisIndex,learn_blocks.ran,block_csv,key_resp_13.keys,key_resp_13.rt,learn_blocks_loop.thisRepN,learn_blocks_loop.thisTrialN,learn_blocks_loop.thisN,learn_blocks_loop.thisIndex,learn_blocks_loop.ran,final_learn_test.thisRepN,final_learn_test.thisTrialN,final_learn_test.thisN,final_learn_test.thisIndex,final_learn_test.ran,s_im1,s_im2,s_im3,s_im4,s_im5,s_im6,s_im7,s_im8,s_im1pos,s_im2pos,s_im3pos,s_im4pos,s_im5pos,s_im6pos,s_im7pos,s_im8pos,s_tarright,search_resp.keys,search_loop.thisRepN,search_loop.thisTrialN,search_loop.thisN,search_loop.thisIndex,search_loop.ran,search_resp.rt,prac_wm_search_loop.thisRepN,prac_wm_search_loop.thisTrialN,prac_wm_search_loop.thisN,prac_wm_search_loop.thisIndex,prac_wm_search_loop.ran,prac_wm_test_loop.thisRepN,prac_wm_test_loop.thisTrialN,prac_wm_test_loop.thisN,prac_wm_test_loop.thisIndex,prac_wm_test_loop.ran,wm_recalled1,wm_recall_rt1,wm_probed1,wm_recall_acc1,wm_recalled2,wm_recall_rt2,wm_probed2,wm_recall_acc2,wm_recalled3,wm_recall_rt3,wm_probed3,wm_recall_acc3,wm_recalled4,wm_recall_rt4,wm_probed4,wm_recall_acc4,prac_wm_trial_loop.thisRepN,prac_wm_trial_loop.thisTrialN,prac_wm_trial_loop.thisN,prac_wm_trial_loop.thisIndex,prac_wm_trial_loop.ran,word1,image1,file1,item_type1,word2,image2,file2,item_type2,word4,image4,file4,item_type4,word3,image3,file3,item_type3,wm_search_loop.thisRepN,wm_search_loop.thisTrialN,wm_search_loop.thisN,wm_search_loop.thisIndex,wm_search_loop.ran,wm_test_loop.thisRepN,wm_test_loop.thisTrialN,wm_test_loop.thisN,wm_test_loop.thisIndex,wm_test_loop.ran,wm_trial_loop.thisRepN,wm_trial_loop.thisTrialN,wm_trial_loop.thisN,wm_trial_loop.thisIndex,wm_trial_loop.ran
y,57.594055,TOUGH,8.257415,1,0,0,0,0,1,stimuli/images/PICTURE_747.png,TOUGH,5f29c35127bcc61497b0b1ac,10/31/1950,2020-09-10_08h49.24.183,proactive3.1,2020.1.2,Win32,60,5f599a131af4471f3d752b7b,5f5a2eb66f1f7109006b1546,3,,,,,,,,,,,,,,,,,,,,,,,,,,,,,,,,,,,,,,,,,,,,,,,,,,,,,,,,,,,,,,,,,,,,,,,,,,,,,,,,,,,,,,,,,,,,,,,,,,,,,,,,,,,,,,,,,,,,,,,,,,,,,,,
,,,,,,,,,,stimuli/images/PICTURE_269.png,GENIUS,5f29c35127bcc61497b0b1ac,10/31/1950,2020-09-10_08h49.24.183,proactive3.1,2020.1.2,Win32,60,5f599a131af4471f3d752b7b,5f5a2eb66f1f7109006b1546,3,0,0,0,0,1,chameleon,,,,,,,,,,,,,,,,,,,,,,,,,,,,,,,,,,,,,,,,,,,,,,,,,,,,,,,,,,,,,,,,,,,,,,,,,,,,,,,,,,,,,,,,,,,,,,,,,,,,,,,,,,,,,,,,,,,,,,,,,
,,,,,,,,,,stimuli/images/PICTURE_697.png,KILLER,5f29c35127bcc61497b0b1ac,10/31/1950,2020-09-10_08h49.24.183,proactive3.1,2020.1.2,Win32,60,5f599a131af4471f3d752b7b,5f5a2eb66f1f7109006b1546,3,0,1,1,4,1,peach,,,,,,,,,,,,,,,,,,,,,,,,,,,,,,,,,,,,,,,,,,,,,,,,,,,,,,,,,,,,,,,,,,,,,,,,,,,,,,,,,,,,,,,,,,,,,,,,,,,,,,,,,,,,,,,,,,,,,,,,,
,,,,,,,,,,stimuli/images/PICTURE_727.png,CELL,5f29c35127bcc61497b0b1ac,10/31/1950,2020-09-10_08h49.24.183,proactive3.1,2020.1.2,Win32,60,5f599a131af4471f3d752b7b,5f5a2eb66f1f7109006b1546,3,0,2,2,1,1,hose,,,,,,,,,,,,,,,,,,,,,,,,,,,,,,,,,,,,,,,,,,,,,,,,,,,,,,,,,,,,,,,,,,,,,,,,,,,,,,,,,,,,,,,,,,,,,,,,,,,,,,,,,,,,,,,,,,,,,,,,,
,,,,,,,,,,stimuli/images/PICTURE_658.png,DEVIL,5f29c35127bcc61497b0b1ac,10/31/1950,2020-09-10_08h49.24.183,proactive3.1,2020.1.2,Win32,60,5f599a131af4471f3d752b7b,5f5a2eb66f1f7109006b1546,3,0,3,3,3,1,crow,,,,,,,,,,,,,,,,,,,,,,,,,,,,,,,,,,,,,,,,,,,,,,,,,,,,,,,,,,,,,,,,,,,,,,,,,,,,,,,,,,,,,,,,,,,,,,,,,,,,,,,,,,,,,,,,,,,,,,,,,
,,?,7.99696,0,,,,,,stimuli/images/PICTURE_727.png,CELL,5f29c35127bcc61497b0b1ac,10/31/1950,2020-09-10_08h49.24.183,proactive3.1,2020.1.2,Win32,60,5f599a131af4471f3d752b7b,5f5a2eb66f1f7109006b1546,3,,,,,,hose,0,0,0,1,1,,,,,,,,,,,,,,,,,,,,,,,,,,,,,,,,,,,,,,,,,,,,,,,,,,,,,,,,,,,,,,,,,,,,,,,,,,,,,,,,,,,,,,,,,,,,,,,,,,,,,,,,,,,,,,,,,,,,
,,LOSS,4.14879,1,,,,,,stimuli/images/PICTURE_378.png,LOSS,5f29c35127bcc61497b0b1ac,10/31/1950,2020-09-10_08h49.24.183,proactive3.1,2020.1.2,Win32,60,5f599a131af4471f3d752b7b,5f5a2eb66f1f7109006b1546,3,,,,,,lobster,0,1,1,2,1,,,,,,,,,,,,,,,,,,,,,,,,,,,,,,,,,,,,,,,,,,,,,,,,,,,,,,,,,,,,,,,,,,,,,,,,,,,,,,,,,,,,,,,,,,,,,,,,,,,,,,,,,,,,,,,,,,,,
,,?,6.884355,0,,,,,,stimuli/images/PICTURE_269.png,GENIUS,5f29c35127bcc61497b0b1ac,10/31/1950,2020-09-10_08h49.24.183,proactive3.1,2020.1.2,Win32,60,5f599a131af4471f3d752b7b,5f5a2eb66f1f7109006b1546,3,,,,,,chameleon,0,2,2,0,1,,,,,,,,,,,,,,,,,,,,,,,,,,,,,,,,,,,,,,,,,,,,,,,,,,,,,,,,,,,,,,,,,,,,,,,,,,,,,,,,,,,,,,,,,,,,,,,,,,,,,,,,,,,,,,,,,,,,
,,?,15.002615,0,,,,,,stimuli/images/PICTURE_697.png,KILLER,5f29c35127bcc61497b0b1ac,10/31/1950,2020-09-10_08h49.24.183,proactive3.1,2020.1.2,Win32,60,5f599a131af4471f3d752b7b,5f5a2eb66f1f7109006b1546,3,,,,,,peach,0,3,3,4,1,,,,,,,,,,,,,,,,,,,,,,,,,,,,,,,,,,,,,,,,,,,,,,,,,,,,,,,,,,,,,,,,,,,,,,,,,,,,,,,,,,,,,,,,,,,,,,,,,,,,,,,,,,,,,,,,,,,,
,,DEVIL,4.815705,1,,,,,,stimuli/images/PICTURE_658.png,DEVIL,5f29c35127bcc61497b0b1ac,10/31/1950,2020-09-10_08h49.24.183,proactive3.1,2020.1.2,Win32,60,5f599a131af4471f3d752b7b,5f5a2eb66f1f7109006b1546,3,,,,,,crow,0,4,4,3,1,,,,,,,,,,,,,,,,,,,,,,,,,,,,,,,,,,,,,,,,,,,,,,,,,,,,,,,,,,,,,,,,,,,,,,,,,,,,,,,,,,,,,,,,,,,,,,,,,,,,,,,,,,,,,,,,,,,,
,,,,,,,,,,stimuli/images/PICTURE_348.png,TOILET,5f29c35127bcc61497b0b1ac,10/31/1950,2020-09-10_08h49.24.183,proactive3.1,2020.1.2,Win32,60,5f599a131af4471f3d752b7b,5f5a2eb66f1f7109006b1546,3,,,,,,pepper,,,,,,0,0,0,4,1,1,2,,,,,,,,,,,,,,,,,,,,,,,,,,,,,,,,,,,,,,,,,,,,,,,,,,,,,,,,,,,,,,,,,,,,,,,,,,,,,,,,,,,,,,,,,,,,,,,,,,,,,,,,,,,,,
,,,,,,,,,,stimuli/images/PICTURE_57.png,NATION,5f29c35127bcc61497b0b1ac,10/31/1950,2020-09-10_08h49.24.183,proactive3.1,2020.1.2,Win32,60,5f599a131af4471f3d752b7b,5f5a2eb66f1f7109006b1546,3,,,,,,stamp,,,,,,0,1,1,21,1,3,2,,,,,,,,,,,,,,,,,,,,,,,,,,,,,,,,,,,,,,,,,,,,,,,,,,,,,,,,,,,,,,,,,,,,,,,,,,,,,,,,,,,,,,,,,,,,,,,,,,,,,,,,,,,,,
,,,,,,,,,,stimuli/images/PICTURE_509.png,BATH,5f29c35127bcc61497b0b1ac,10/31/1950,2020-09-10_08h49.24.183,proactive3.1,2020.1.2,Win32,60,5f599a131af4471f3d752b7b,5f5a2eb66f1f7109006b1546,3,,,,,,telephone,,,,,,0,2,2,15,1,2,2,,,,,,,,,,,,,,,,,,,,,,,,,,,,,,,,,,,,,,,,,,,,,,,,,,,,,,,,,,,,,,,,,,,,,,,,,,,,,,,,,,,,,,,,,,,,,,,,,,,,,,,,,,,,,
,,,,,,,,,,stimuli/images/PICTURE_255.png,PENNY,5f29c35127bcc61497b0b1ac,10/31/1950,2020-09-10_08h49.24.183,proactive3.1,2020.1.2,Win32,60,5f599a131af4471f3d752b7b,5f5a2eb66f1f7109006b1546,3,,,,,,shovel,,,,,,0,3,3,19,1,2,2,,,,,,,,,,,,,,,,,,,,,,,,,,,,,,,,,,,,,,,,,,,,,,,,,,,,,,,,,,,,,,,,,,,,,,,,,,,,,,,,,,,,,,,,,,,,,,,,,,,,,,,,,,,,,
,,,,,,,,,,stimuli/images/PICTURE_677.png,FAMILY,5f29c35127bcc61497b0b1ac,10/31/1950,2020-09-10_08h49.24.183,proactive3.1,2020.1.2,Win32,60,5f599a131af4471f3d752b7b,5f5a2eb66f1f7109006b1546,3,,,,,,map,,,,,,0,4,4,53,1,6,2,,,,,,,,,,,,,,,,,,,,,,,,,,,,,,,,,,,,,,,,,,,,,,,,,,,,,,,,,,,,,,,,,,,,,,,,,,,,,,,,,,,,,,,,,,,,,,,,,,,,,,,,,,,,,
,,,,,,,,,,stimuli/images/PICTURE_57.png,CASINO,5f29c35127bcc61497b0b1ac,10/31/1950,2020-09-10_08h49.24.183,proactive3.1,2020.1.2,Win32,60,5f599a131af4471f3d752b7b,5f5a2eb66f1f7109006b1546,3,,,,,,stamp,,,,,,0,5,5,12,1,2,2,,,,,,,,,,,,,,,,,,,,,,,,,,,,,,,,,,,,,,,,,,,,,,,,,,,,,,,,,,,,,,,,,,,,,,,,,,,,,,,,,,,,,,,,,,,,,,,,,,,,,,,,,,,,,
,,,,,,,,,,stimuli/images/PICTURE_491.png,SERIES,5f29c35127bcc61497b0b1ac,10/31/1950,2020-09-10_08h49.24.183,proactive3.1,2020.1.2,Win32,60,5f599a131af4471f3d752b7b,5f5a2eb66f1f7109006b1546,3,,,,,,rug,,,,,,0,6,6,39,1,4,2,,,,,,,,,,,,,,,,,,,,,,,,,,,,,,,,,,,,,,,,,,,,,,,,,,,,,,,,,,,,,,,,,,,,,,,,,,,,,,,,,,,,,,,,,,,,,,,,,,,,,,,,,,,,,
,,,,,,,,,,stimuli/images/PICTURE_93.png,GIRL,5f29c35127bcc61497b0b1ac,10/31/1950,2020-09-10_08h49.24.183,proactive3.1,2020.1.2,Win32,60,5f599a131af4471f3d752b7b,5f5a2eb66f1f7109006b1546,3,,,,,,skateboard,,,,,,0,7,7,31,1,4,2,,,,,,,,,,,,,,,,,,,,,,,,,,,,,,,,,,,,,,,,,,,,,,,,,,,,,,,,,,,,,,,,,,,,,,,,,,,,,,,,,,,,,,,,,,,,,,,,,,,,,,,,,,,,,
,,,,,,,,,,stimuli/images/PICTURE_654.png,YEAR,5f29c35127bcc61497b0b1ac,10/31/1950,2020-09-10_08h49.24.183,proactive3.1,2020.1.2,Win32,60,5f599a131af4471f3d752b7b,5f5a2eb66f1f7109006b1546,3,,,,,,pencil,,,,,,0,8,8,41,1,5,2,,,,,,,,,,,,,,,,,,,,,,,,,,,,,,,,,,,,,,,,,,,,,,,,,,,,,,,,,,,,,,,,,,,,,,,,,,,,,,,,,,,,,,,,,,,,,,,,,,,,,,,,,,,,,
,,,,,,,,,,stimuli/images/PICTURE_215.png,LEADER,5f29c35127bcc61497b0b1ac,10/31/1950,2020-09-10_08h49.24.183,proactive3.1,2020.1.2,Win32,60,5f599a131af4471f3d752b7b,5f5a2eb66f1f7109006b1546,3,,,,,,boot,,,,,,0,9,9,43,1,5,2,,,,,,,,,,,,,,,,,,,,,,,,,,,,,,,,,,,,,,,,,,,,,,,,,,,,,,,,,,,,,,,,,,,,,,,,,,,,,,,,,,,,,,,,,,,,,,,,,,,,,,,,,,,,,
,,,,,,,,,,stimuli/images/PICTURE_470.png,MOMENT,5f29c35127bcc61497b0b1ac,10/31/1950,2020-09-10_08h49.24.183,proactive3.1,2020.1.2,Win32,60,5f599a131af4471f3d752b7b,5f5a2eb66f1f7109006b1546,3,,,,,,motorbike,,,,,,0,10,10,40,1,5,2,,,,,,,,,,,,,,,,,,,,,,,,,,,,,,,,,,,,,,,,,,,,,,,,,,,,,,,,,,,,,,,,,,,,,,,,,,,,,,,,,,,,,,,,,,,,,,,,,,,,,,,,,,,,,
,,,,,,,,,,stimuli/images/PICTURE_509.png,APPLE,5f29c35127bcc61497b0b1ac,10/31/1950,2020-09-10_08h49.24.183,proactive3.1,2020.1.2,Win32,60,5f599a131af4471f3d752b7b,5f5a2eb66f1f7109006b1546,3,,,,,,telephone,,,,,,0,11,11,38,1,4,2,,,,,,,,,,,,,,,,,,,,,,,,,,,,,,,,,,,,,,,,,,,,,,,,,,,,,,,,,,,,,,,,,,,,,,,,,,,,,,,,,,,,,,,,,,,,,,,,,,,,,,,,,,,,,
,,,,,,,,,,stimuli/images/PICTURE_18.png,RIVER,5f29c35127bcc61497b0b1ac,10/31/1950,2020-09-10_08h49.24.183,proactive3.1,2020.1.2,Win32,60,5f599a131af4471f3d752b7b,5f5a2eb66f1f7109006b1546,3,,,,,,planet,,,,,,0,12,12,22,1,3,2,,,,,,,,,,,,,,,,,,,,,,,,,,,,,,,,,,,,,,,,,,,,,,,,,,,,,,,,,,,,,,,,,,,,,,,,,,,,,,,,,,,,,,,,,,,,,,,,,,,,,,,,,,,,,
,,,,,,,,,,stimuli/images/PICTURE_311.png,FLESH,5f29c35127bcc61497b0b1ac,10/31/1950,2020-09-10_08h49.24.183,proactive3.1,2020.1.2,Win32,60,5f599a131af4471f3d752b7b,5f5a2eb66f1f7109006b1546,3,,,,,,razor,,,,,,0,13,13,3,1,1,2,,,,,,,,,,,,,,,,,,,,,,,,,,,,,,,,,,,,,,,,,,,,,,,,,,,,,,,,,,,,,,,,,,,,,,,,,,,,,,,,,,,,,,,,,,,,,,,,,,,,,,,,,,,,,
,,,,,,,,,,stimuli/images/PICTURE_215.png,FOOD,5f29c35127bcc61497b0b1ac,10/31/1950,2020-09-10_08h49.24.183,proactive3.1,2020.1.2,Win32,60,5f599a131af4471f3d752b7b,5f5a2eb66f1f7109006b1546,3,,,,,,boot,,,,,,0,14,14,5,1,1,2,,,,,,,,,,,,,,,,,,,,,,,,,,,,,,,,,,,,,,,,,,,,,,,,,,,,,,,,,,,,,,,,,,,,,,,,,,,,,,,,,,,,,,,,,,,,,,,,,,,,,,,,,,,,,
,,,,,,,,,,stimuli/images/PICTURE_314.png,SPEECH,5f29c35127bcc61497b0b1ac,10/31/1950,2020-09-10_08h49.24.183,proactive3.1,2020.1.2,Win32,60,5f599a131af4471f3d752b7b,5f5a2eb66f1f7109006b1546,3,,,,,,perfume,,,,,,0,15,15,35,1,4,2,,,,,,,,,,,,,,,,,,,,,,,,,,,,,,,,,,,,,,,,,,,,,,,,,,,,,,,,,,,,,,,,,,,,,,,,,,,,,,,,,,,,,,,,,,,,,,,,,,,,,,,,,,,,,
,,,,,,,,,,stimuli/images/PICTURE_405.png,JUNGLE,5f29c35127bcc61497b0b1ac,10/31/1950,2020-09-10_08h49.24.183,proactive3.1,2020.1.2,Win32,60,5f599a131af4471f3d752b7b,5f5a2eb66f1f7109006b1546,3,,,,,,anchor,,,,,,0,16,16,58,1,6,2,,,,,,,,,,,,,,,,,,,,,,,,,,,,,,,,,,,,,,,,,,,,,,,,,,,,,,,,,,,,,,,,,,,,,,,,,,,,,,,,,,,,,,,,,,,,,,,,,,,,,,,,,,,,,
,,,,,,,,,,stimuli/images/PICTURE_487.png,POLICY,5f29c35127bcc61497b0b1ac,10/31/1950,2020-09-10_08h49.24.183,proactive3.1,2020.1.2,Win32,60,5f599a131af4471f3d752b7b,5f5a2eb66f1f7109006b1546,3,,,,,,basket,,,,,,0,17,17,34,1,4,2,,,,,,,,,,,,,,,,,,,,,,,,,,,,,,,,,,,,,,,,,,,,,,,,,,,,,,,,,,,,,,,,,,,,,,,,,,,,,,,,,,,,,,,,,,,,,,,,,,,,,,,,,,,,,
,,,,,,,,,,stimuli/images/PICTURE_2.png,AREA,5f29c35127bcc61497b0b1ac,10/31/1950,2020-09-10_08h49.24.183,proactive3.1,2020.1.2,Win32,60,5f599a131af4471f3d752b7b,5f5a2eb66f1f7109006b1546,3,,,,,,tyre,,,,,,0,18,18,32,1,4,2,,,,,,,,,,,,,,,,,,,,,,,,,,,,,,,,,,,,,,,,,,,,,,,,,,,,,,,,,,,,,,,,,,,,,,,,,,,,,,,,,,,,,,,,,,,,,,,,,,,,,,,,,,,,,
,,,,,,,,,,stimuli/images/PICTURE_509.png,SHOTS,5f29c35127bcc61497b0b1ac,10/31/1950,2020-09-10_08h49.24.183,proactive3.1,2020.1.2,Win32,60,5f599a131af4471f3d752b7b,5f5a2eb66f1f7109006b1546,3,,,,,,telephone,,,,,,0,19,19,7,1,1,2,,,,,,,,,,,,,,,,,,,,,,,,,,,,,,,,,,,,,,,,,,,,,,,,,,,,,,,,,,,,,,,,,,,,,,,,,,,,,,,,,,,,,,,,,,,,,,,,,,,,,,,,,,,,,
,,,,,,,,,,stimuli/images/PICTURE_123.png,SALE,5f29c35127bcc61497b0b1ac,10/31/1950,2020-09-10_08h49.24.183,proactive3.1,2020.1.2,Win32,60,5f599a131af4471f3d752b7b,5f5a2eb66f1f7109006b1546,3,,,,,,dart,,,,,,0,20,20,8,1,1,2,,,,,,,,,,,,,,,,,,,,,,,,,,,,,,,,,,,,,,,,,,,,,,,,,,,,,,,,,,,,,,,,,,,,,,,,,,,,,,,,,,,,,,,,,,,,,,,,,,,,,,,,,,,,,
,,,,,,,,,,stimuli/images/PICTURE_160.png,HOTEL,5f29c35127bcc61497b0b1ac,10/31/1950,2020-09-10_08h49.24.183,proactive3.1,2020.1.2,Win32,60,5f599a131af4471f3d752b7b,5f5a2eb66f1f7109006b1546,3,,,,,,wheelbarrow,,,,,,0,21,21,16,1,2,2,,,,,,,,,,,,,,,,,,,,,,,,,,,,,,,,,,,,,,,,,,,,,,,,,,,,,,,,,,,,,,,,,,,,,,,,,,,,,,,,,,,,,,,,,,,,,,,,,,,,,,,,,,,,,
,,,,,,,,,,stimuli/images/PICTURE_2.png,YARD,5f29c35127bcc61497b0b1ac,10/31/1950,2020-09-10_08h49.24.183,proactive3.1,2020.1.2,Win32,60,5f599a131af4471f3d752b7b,5f5a2eb66f1f7109006b1546,3,,,,,,tyre,,,,,,0,22,22,55,1,6,2,,,,,,,,,,,,,,,,,,,,,,,,,,,,,,,,,,,,,,,,,,,,,,,,,,,,,,,,,,,,,,,,,,,,,,,,,,,,,,,,,,,,,,,,,,,,,,,,,,,,,,,,,,,,,
,,,,,,,,,,stimuli/images/PICTURE_327.png,LEADER,5f29c35127bcc61497b0b1ac,10/31/1950,2020-09-10_08h49.24.183,proactive3.1,2020.1.2,Win32,60,5f599a131af4471f3d752b7b,5f5a2eb66f1f7109006b1546,3,,,,,,helmet,,,,,,0,23,23,17,1,2,2,,,,,,,,,,,,,,,,,,,,,,,,,,,,,,,,,,,,,,,,,,,,,,,,,,,,,,,,,,,,,,,,,,,,,,,,,,,,,,,,,,,,,,,,,,,,,,,,,,,,,,,,,,,,,
,,,,,,,,,,stimuli/images/PICTURE_504.png,HOUSE,5f29c35127bcc61497b0b1ac,10/31/1950,2020-09-10_08h49.24.183,proactive3.1,2020.1.2,Win32,60,5f599a131af4471f3d752b7b,5f5a2eb66f1f7109006b1546,3,,,,,,wheel,,,,,,0,24,24,36,1,4,2,,,,,,,,,,,,,,,,,,,,,,,,,,,,,,,,,,,,,,,,,,,,,,,,,,,,,,,,,,,,,,,,,,,,,,,,,,,,,,,,,,,,,,,,,,,,,,,,,,,,,,,,,,,,,
,,,,,,,,,,stimuli/images/PICTURE_403.png,FAMILY,5f29c35127bcc61497b0b1ac,10/31/1950,2020-09-10_08h49.24.183,proactive3.1,2020.1.2,Win32,60,5f599a131af4471f3d752b7b,5f5a2eb66f1f7109006b1546,3,,,,,,cathedral,,,,,,0,25,25,9,1,1,2,,,,,,,,,,,,,,,,,,,,,,,,,,,,,,,,,,,,,,,,,,,,,,,,,,,,,,,,,,,,,,,,,,,,,,,,,,,,,,,,,,,,,,,,,,,,,,,,,,,,,,,,,,,,,
,,,,,,,,,,stimuli/images/PICTURE_708.png,VALLEY,5f29c35127bcc61497b0b1ac,10/31/1950,2020-09-10_08h49.24.183,proactive3.1,2020.1.2,Win32,60,5f599a131af4471f3d752b7b,5f5a2eb66f1f7109006b1546,3,,,,,,monkey,,,,,,0,26,26,45,1,5,2,,,,,,,,,,,,,,,,,,,,,,,,,,,,,,,,,,,,,,,,,,,,,,,,,,,,,,,,,,,,,,,,,,,,,,,,,,,,,,,,,,,,,,,,,,,,,,,,,,,,,,,,,,,,,
,,,,,,,,,,stimuli/images/PICTURE_147.png,LEADER,5f29c35127bcc61497b0b1ac,10/31/1950,2020-09-10_08h49.24.183,proactive3.1,2020.1.2,Win32,60,5f599a131af4471f3d752b7b,5f5a2eb66f1f7109006b1546,3,,,,,,hanger,,,,,,0,27,27,33,1,4,2,,,,,,,,,,,,,,,,,,,,,,,,,,,,,,,,,,,,,,,,,,,,,,,,,,,,,,,,,,,,,,,,,,,,,,,,,,,,,,,,,,,,,,,,,,,,,,,,,,,,,,,,,,,,,
,,,,,,,,,,stimuli/images/PICTURE_208.png,SPIRIT,5f29c35127bcc61497b0b1ac,10/31/1950,2020-09-10_08h49.24.183,proactive3.1,2020.1.2,Win32,60,5f599a131af4471f3d752b7b,5f5a2eb66f1f7109006b1546,3,,,,,,microphone,,,,,,0,28,28,28,1,3,2,,,,,,,,,,,,,,,,,,,,,,,,,,,,,,,,,,,,,,,,,,,,,,,,,,,,,,,,,,,,,,,,,,,,,,,,,,,,,,,,,,,,,,,,,,,,,,,,,,,,,,,,,,,,,
,,,,,,,,,,stimuli/images/PICTURE_688.png,CLOCK,5f29c35127bcc61497b0b1ac,10/31/1950,2020-09-10_08h49.24.183,proactive3.1,2020.1.2,Win32,60,5f599a131af4471f3d752b7b,5f5a2eb66f1f7109006b1546,3,,,,,,runner,,,,,,0,29,29,42,1,5,2,,,,,,,,,,,,,,,,,,,,,,,,,,,,,,,,,,,,,,,,,,,,,,,,,,,,,,,,,,,,,,,,,,,,,,,,,,,,,,,,,,,,,,,,,,,,,,,,,,,,,,,,,,,,,
,,,,,,,,,,stimuli/images/PICTURE_655.png,SALE,5f29c35127bcc61497b0b1ac,10/31/1950,2020-09-10_08h49.24.183,proactive3.1,2020.1.2,Win32,60,5f599a131af4471f3d752b7b,5f5a2eb66f1f7109006b1546,3,,,,,,megaphone,,,,,,0,30,30,57,1,6,2,,,,,,,,,,,,,,,,,,,,,,,,,,,,,,,,,,,,,,,,,,,,,,,,,,,,,,,,,,,,,,,,,,,,,,,,,,,,,,,,,,,,,,,,,,,,,,,,,,,,,,,,,,,,,
,,,,,,,,,,stimuli/images/PICTURE_453.png,FAMILY,5f29c35127bcc61497b0b1ac,10/31/1950,2020-09-10_08h49.24.183,proactive3.1,2020.1.2,Win32,60,5f599a131af4471f3d752b7b,5f5a2eb66f1f7109006b1546,3,,,,,,scissors,,,,,,0,31,31,48,1,5,2,,,,,,,,,,,,,,,,,,,,,,,,,,,,,,,,,,,,,,,,,,,,,,,,,,,,,,,,,,,,,,,,,,,,,,,,,,,,,,,,,,,,,,,,,,,,,,,,,,,,,,,,,,,,,
,,,,,,,,,,stimuli/images/PICTURE_2.png,JUNGLE,5f29c35127bcc61497b0b1ac,10/31/1950,2020-09-10_08h49.24.183,proactive3.1,2020.1.2,Win32,60,5f599a131af4471f3d752b7b,5f5a2eb66f1f7109006b1546,3,,,,,,tyre,,,,,,0,32,32,1,1,1,2,,,,,,,,,,,,,,,,,,,,,,,,,,,,,,,,,,,,,,,,,,,,,,,,,,,,,,,,,,,,,,,,,,,,,,,,,,,,,,,,,,,,,,,,,,,,,,,,,,,,,,,,,,,,,
,,,,,,,,,,stimuli/images/PICTURE_470.png,BEAUTY,5f29c35127bcc61497b0b1ac,10/31/1950,2020-09-10_08h49.24.183,proactive3.1,2020.1.2,Win32,60,5f599a131af4471f3d752b7b,5f5a2eb66f1f7109006b1546,3,,,,,,motorbike,,,,,,0,33,33,26,1,3,2,,,,,,,,,,,,,,,,,,,,,,,,,,,,,,,,,,,,,,,,,,,,,,,,,,,,,,,,,,,,,,,,,,,,,,,,,,,,,,,,,,,,,,,,,,,,,,,,,,,,,,,,,,,,,
,,,,,,,,,,stimuli/images/PICTURE_297.png,BODY,5f29c35127bcc61497b0b1ac,10/31/1950,2020-09-10_08h49.24.183,proactive3.1,2020.1.2,Win32,60,5f599a131af4471f3d752b7b,5f5a2eb66f1f7109006b1546,3,,,,,,aeroplane,,,,,,0,34,34,51,1,6,2,,,,,,,,,,,,,,,,,,,,,,,,,,,,,,,,,,,,,,,,,,,,,,,,,,,,,,,,,,,,,,,,,,,,,,,,,,,,,,,,,,,,,,,,,,,,,,,,,,,,,,,,,,,,,
,,,,,,,,,,stimuli/images/PICTURE_452.png,COPS,5f29c35127bcc61497b0b1ac,10/31/1950,2020-09-10_08h49.24.183,proactive3.1,2020.1.2,Win32,60,5f599a131af4471f3d752b7b,5f5a2eb66f1f7109006b1546,3,,,,,,watch,,,,,,0,35,35,0,1,1,2,,,,,,,,,,,,,,,,,,,,,,,,,,,,,,,,,,,,,,,,,,,,,,,,,,,,,,,,,,,,,,,,,,,,,,,,,,,,,,,,,,,,,,,,,,,,,,,,,,,,,,,,,,,,,
,,,,,,,,,,stimuli/images/PICTURE_692.png,DUDE,5f29c35127bcc61497b0b1ac,10/31/1950,2020-09-10_08h49.24.183,proactive3.1,2020.1.2,Win32,60,5f599a131af4471f3d752b7b,5f5a2eb66f1f7109006b1546,3,,,,,,cherry,,,,,,0,36,36,47,1,5,2,,,,,,,,,,,,,,,,,,,,,,,,,,,,,,,,,,,,,,,,,,,,,,,,,,,,,,,,,,,,,,,,,,,,,,,,,,,,,,,,,,,,,,,,,,,,,,,,,,,,,,,,,,,,,
,,,,,,,,,,stimuli/images/PICTURE_141.png,CLIENT,5f29c35127bcc61497b0b1ac,10/31/1950,2020-09-10_08h49.24.183,proactive3.1,2020.1.2,Win32,60,5f599a131af4471f3d752b7b,5f5a2eb66f1f7109006b1546,3,,,,,,sunflower,,,,,,0,37,37,30,1,4,2,,,,,,,,,,,,,,,,,,,,,,,,,,,,,,,,,,,,,,,,,,,,,,,,,,,,,,,,,,,,,,,,,,,,,,,,,,,,,,,,,,,,,,,,,,,,,,,,,,,,,,,,,,,,,
,,,,,,,,,,stimuli/images/PICTURE_667.png,GLASS,5f29c35127bcc61497b0b1ac,10/31/1950,2020-09-10_08h49.24.183,proactive3.1,2020.1.2,Win32,60,5f599a131af4471f3d752b7b,5f5a2eb66f1f7109006b1546,3,,,,,,daisy,,,,,,0,38,38,27,1,3,2,,,,,,,,,,,,,,,,,,,,,,,,,,,,,,,,,,,,,,,,,,,,,,,,,,,,,,,,,,,,,,,,,,,,,,,,,,,,,,,,,,,,,,,,,,,,,,,,,,,,,,,,,,,,,
,,,,,,,,,,stimuli/images/PICTURE_215.png,BOYS,5f29c35127bcc61497b0b1ac,10/31/1950,2020-09-10_08h49.24.183,proactive3.1,2020.1.2,Win32,60,5f599a131af4471f3d752b7b,5f5a2eb66f1f7109006b1546,3,,,,,,boot,,,,,,0,39,39,24,1,3,2,,,,,,,,,,,,,,,,,,,,,,,,,,,,,,,,,,,,,,,,,,,,,,,,,,,,,,,,,,,,,,,,,,,,,,,,,,,,,,,,,,,,,,,,,,,,,,,,,,,,,,,,,,,,,
,,,,,,,,,,stimuli/images/PICTURE_405.png,JUNGLE,5f29c35127bcc61497b0b1ac,10/31/1950,2020-09-10_08h49.24.183,proactive3.1,2020.1.2,Win32,60,5f599a131af4471f3d752b7b,5f5a2eb66f1f7109006b1546,3,,,,,,anchor,,,,,,0,40,40,13,1,2,2,,,,,,,,,,,,,,,,,,,,,,,,,,,,,,,,,,,,,,,,,,,,,,,,,,,,,,,,,,,,,,,,,,,,,,,,,,,,,,,,,,,,,,,,,,,,,,,,,,,,,,,,,,,,,
,,,,,,,,,,stimuli/images/PICTURE_356.png,CANDY,5f29c35127bcc61497b0b1ac,10/31/1950,2020-09-10_08h49.24.183,proactive3.1,2020.1.2,Win32,60,5f599a131af4471f3d752b7b,5f5a2eb66f1f7109006b1546,3,,,,,,pawn,,,,,,0,41,41,46,1,5,2,,,,,,,,,,,,,,,,,,,,,,,,,,,,,,,,,,,,,,,,,,,,,,,,,,,,,,,,,,,,,,,,,,,,,,,,,,,,,,,,,,,,,,,,,,,,,,,,,,,,,,,,,,,,,
,,,,,,,,,,stimuli/images/PICTURE_95.png,NIGHT,5f29c35127bcc61497b0b1ac,10/31/1950,2020-09-10_08h49.24.183,proactive3.1,2020.1.2,Win32,60,5f599a131af4471f3d752b7b,5f5a2eb66f1f7109006b1546,3,,,,,,suitcase,,,,,,0,42,42,37,1,4,2,,,,,,,,,,,,,,,,,,,,,,,,,,,,,,,,,,,,,,,,,,,,,,,,,,,,,,,,,,,,,,,,,,,,,,,,,,,,,,,,,,,,,,,,,,,,,,,,,,,,,,,,,,,,,
,,,,,,,,,,stimuli/images/PICTURE_177.png,HOUSE,5f29c35127bcc61497b0b1ac,10/31/1950,2020-09-10_08h49.24.183,proactive3.1,2020.1.2,Win32,60,5f599a131af4471f3d752b7b,5f5a2eb66f1f7109006b1546,3,,,,,,mushroom,,,,,,0,43,43,25,1,3,2,,,,,,,,,,,,,,,,,,,,,,,,,,,,,,,,,,,,,,,,,,,,,,,,,,,,,,,,,,,,,,,,,,,,,,,,,,,,,,,,,,,,,,,,,,,,,,,,,,,,,,,,,,,,,
,,,,,,,,,,stimuli/images/PICTURE_677.png,PHOTO,5f29c35127bcc61497b0b1ac,10/31/1950,2020-09-10_08h49.24.183,proactive3.1,2020.1.2,Win32,60,5f599a131af4471f3d752b7b,5f5a2eb66f1f7109006b1546,3,,,,,,map,,,,,,0,44,44,14,1,2,2,,,,,,,,,,,,,,,,,,,,,,,,,,,,,,,,,,,,,,,,,,,,,,,,,,,,,,,,,,,,,,,,,,,,,,,,,,,,,,,,,,,,,,,,,,,,,,,,,,,,,,,,,,,,,
,,,,,,,,,,stimuli/images/PICTURE_509.png,MILLER,5f29c35127bcc61497b0b1ac,10/31/1950,2020-09-10_08h49.24.183,proactive3.1,2020.1.2,Win32,60,5f599a131af4471f3d752b7b,5f5a2eb66f1f7109006b1546,3,,,,,,telephone,,,,,,0,45,45,49,1,5,2,,,,,,,,,,,,,,,,,,,,,,,,,,,,,,,,,,,,,,,,,,,,,,,,,,,,,,,,,,,,,,,,,,,,,,,,,,,,,,,,,,,,,,,,,,,,,,,,,,,,,,,,,,,,,
,,,,,,,,,,stimuli/images/PICTURE_285.png,WRITER,5f29c35127bcc61497b0b1ac,10/31/1950,2020-09-10_08h49.24.183,proactive3.1,2020.1.2,Win32,60,5f599a131af4471f3d752b7b,5f5a2eb66f1f7109006b1546,3,,,,,,carrot,,,,,,0,46,46,6,1,1,2,,,,,,,,,,,,,,,,,,,,,,,,,,,,,,,,,,,,,,,,,,,,,,,,,,,,,,,,,,,,,,,,,,,,,,,,,,,,,,,,,,,,,,,,,,,,,,,,,,,,,,,,,,,,,
,,,,,,,,,,stimuli/images/PICTURE_405.png,HOUSE,5f29c35127bcc61497b0b1ac,10/31/1950,2020-09-10_08h49.24.183,proactive3.1,2020.1.2,Win32,60,5f599a131af4471f3d752b7b,5f5a2eb66f1f7109006b1546,3,,,,,,anchor,,,,,,0,47,47,2,1,1,2,,,,,,,,,,,,,,,,,,,,,,,,,,,,,,,,,,,,,,,,,,,,,,,,,,,,,,,,,,,,,,,,,,,,,,,,,,,,,,,,,,,,,,,,,,,,,,,,,,,,,,,,,,,,,
,,,,,,,,,,stimuli/images/PICTURE_57.png,CANDY,5f29c35127bcc61497b0b1ac,10/31/1950,2020-09-10_08h49.24.183,proactive3.1,2020.1.2,Win32,60,5f599a131af4471f3d752b7b,5f5a2eb66f1f7109006b1546,3,,,,,,stamp,,,,,,0,48,48,52,1,6,2,,,,,,,,,,,,,,,,,,,,,,,,,,,,,,,,,,,,,,,,,,,,,,,,,,,,,,,,,,,,,,,,,,,,,,,,,,,,,,,,,,,,,,,,,,,,,,,,,,,,,,,,,,,,,
,,,,,,,,,,stimuli/images/PICTURE_654.png,COPS,5f29c35127bcc61497b0b1ac,10/31/1950,2020-09-10_08h49.24.183,proactive3.1,2020.1.2,Win32,60,5f599a131af4471f3d752b7b,5f5a2eb66f1f7109006b1546,3,,,,,,pencil,,,,,,0,49,49,10,1,2,2,,,,,,,,,,,,,,,,,,,,,,,,,,,,,,,,,,,,,,,,,,,,,,,,,,,,,,,,,,,,,,,,,,,,,,,,,,,,,,,,,,,,,,,,,,,,,,,,,,,,,,,,,,,,,
,,,,,,,,,,stimuli/images/PICTURE_68.png,KIND,5f29c35127bcc61497b0b1ac,10/31/1950,2020-09-10_08h49.24.183,proactive3.1,2020.1.2,Win32,60,5f599a131af4471f3d752b7b,5f5a2eb66f1f7109006b1546,3,,,,,,candle,,,,,,0,50,50,23,1,3,2,,,,,,,,,,,,,,,,,,,,,,,,,,,,,,,,,,,,,,,,,,,,,,,,,,,,,,,,,,,,,,,,,,,,,,,,,,,,,,,,,,,,,,,,,,,,,,,,,,,,,,,,,,,,,
,,,,,,,,,,stimuli/images/PICTURE_285.png,PRINCE,5f29c35127bcc61497b0b1ac,10/31/1950,2020-09-10_08h49.24.183,proactive3.1,2020.1.2,Win32,60,5f599a131af4471f3d752b7b,5f5a2eb66f1f7109006b1546,3,,,,,,carrot,,,,,,0,51,51,20,1,3,2,,,,,,,,,,,,,,,,,,,,,,,,,,,,,,,,,,,,,,,,,,,,,,,,,,,,,,,,,,,,,,,,,,,,,,,,,,,,,,,,,,,,,,,,,,,,,,,,,,,,,,,,,,,,,
,,,,,,,,,,stimuli/images/PICTURE_750.png,POLICY,5f29c35127bcc61497b0b1ac,10/31/1950,2020-09-10_08h49.24.183,proactive3.1,2020.1.2,Win32,60,5f599a131af4471f3d752b7b,5f5a2eb66f1f7109006b1546,3,,,,,,kettle,,,,,,0,52,52,44,1,5,2,,,,,,,,,,,,,,,,,,,,,,,,,,,,,,,,,,,,,,,,,,,,,,,,,,,,,,,,,,,,,,,,,,,,,,,,,,,,,,,,,,,,,,,,,,,,,,,,,,,,,,,,,,,,,
,,,,,,,,,,stimuli/images/PICTURE_32.png,LETTER,5f29c35127bcc61497b0b1ac,10/31/1950,2020-09-10_08h49.24.183,proactive3.1,2020.1.2,Win32,60,5f599a131af4471f3d752b7b,5f5a2eb66f1f7109006b1546,3,,,,,,crown,,,,,,0,53,53,56,1,6,2,,,,,,,,,,,,,,,,,,,,,,,,,,,,,,,,,,,,,,,,,,,,,,,,,,,,,,,,,,,,,,,,,,,,,,,,,,,,,,,,,,,,,,,,,,,,,,,,,,,,,,,,,,,,,
,,,,,,,,,,stimuli/images/PICTURE_311.png,TOILET,5f29c35127bcc61497b0b1ac,10/31/1950,2020-09-10_08h49.24.183,proactive3.1,2020.1.2,Win32,60,5f599a131af4471f3d752b7b,5f5a2eb66f1f7109006b1546,3,,,,,,razor,,,,,,0,54,54,54,1,6,2,,,,,,,,,,,,,,,,,,,,,,,,,,,,,,,,,,,,,,,,,,,,,,,,,,,,,,,,,,,,,,,,,,,,,,,,,,,,,,,,,,,,,,,,,,,,,,,,,,,,,,,,,,,,,
,,,,,,,,,,stimuli/images/PICTURE_348.png,DUDE,5f29c35127bcc61497b0b1ac,10/31/1950,2020-09-10_08h49.24.183,proactive3.1,2020.1.2,Win32,60,5f599a131af4471f3d752b7b,5f5a2eb66f1f7109006b1546,3,,,,,,pepper,,,,,,0,55,55,59,1,6,2,,,,,,,,,,,,,,,,,,,,,,,,,,,,,,,,,,,,,,,,,,,,,,,,,,,,,,,,,,,,,,,,,,,,,,,,,,,,,,,,,,,,,,,,,,,,,,,,,,,,,,,,,,,,,
,,,,,,,,,,stimuli/images/PICTURE_296.png,CLOCK,5f29c35127bcc61497b0b1ac,10/31/1950,2020-09-10_08h49.24.183,proactive3.1,2020.1.2,Win32,60,5f599a131af4471f3d752b7b,5f5a2eb66f1f7109006b1546,3,,,,,,bolt,,,,,,0,56,56,18,1,2,2,,,,,,,,,,,,,,,,,,,,,,,,,,,,,,,,,,,,,,,,,,,,,,,,,,,,,,,,,,,,,,,,,,,,,,,,,,,,,,,,,,,,,,,,,,,,,,,,,,,,,,,,,,,,,
,,,,,,,,,,stimuli/images/PICTURE_564.png,PLENTY,5f29c35127bcc61497b0b1ac,10/31/1950,2020-09-10_08h49.24.183,proactive3.1,2020.1.2,Win32,60,5f599a131af4471f3d752b7b,5f5a2eb66f1f7109006b1546,3,,,,,,spoon,,,,,,0,57,57,11,1,2,2,,,,,,,,,,,,,,,,,,,,,,,,,,,,,,,,,,,,,,,,,,,,,,,,,,,,,,,,,,,,,,,,,,,,,,,,,,,,,,,,,,,,,,,,,,,,,,,,,,,,,,,,,,,,,
,,,,,,,,,,stimuli/images/PICTURE_33.png,COPS,5f29c35127bcc61497b0b1ac,10/31/1950,2020-09-10_08h49.24.183,proactive3.1,2020.1.2,Win32,60,5f599a131af4471f3d752b7b,5f5a2eb66f1f7109006b1546,3,,,,,,frame,,,,,,0,58,58,29,1,3,2,,,,,,,,,,,,,,,,,,,,,,,,,,,,,,,,,,,,,,,,,,,,,,,,,,,,,,,,,,,,,,,,,,,,,,,,,,,,,,,,,,,,,,,,,,,,,,,,,,,,,,,,,,,,,
,,?,0.00205,0,,,,,,stimuli/images/PICTURE_255.png,PENNY,5f29c35127bcc61497b0b1ac,10/31/1950,2020-09-10_08h49.24.183,proactive3.1,2020.1.2,Win32,60,5f599a131af4471f3d752b7b,5f5a2eb66f1f7109006b1546,3,,,,,,shovel,,,,,,,,,,,2,2,0,0,0,19,1,,,,,,,,,,,,,,,,,,,,,,,,,,,,,,,,,,,,,,,,,,,,,,,,,,,,,,,,,,,,,,,,,,,,,,,,,,,,,,,,,,,,,,,,,,,,,,,,,,,,,,,,
,,?,0.00165,0,,,,,,stimuli/images/PICTURE_93.png,GIRL,5f29c35127bcc61497b0b1ac,10/31/1950,2020-09-10_08h49.24.183,proactive3.1,2020.1.2,Win32,60,5f599a131af4471f3d752b7b,5f5a2eb66f1f7109006b1546,3,,,,,,skateboard,,,,,,,,,,,4,2,0,1,1,31,1,,,,,,,,,,,,,,,,,,,,,,,,,,,,,,,,,,,,,,,,,,,,,,,,,,,,,,,,,,,,,,,,,,,,,,,,,,,,,,,,,,,,,,,,,,,,,,,,,,,,,,,,
,,COPS,6.0644,1,,,,,,stimuli/images/PICTURE_33.png,COPS,5f29c35127bcc61497b0b1ac,10/31/1950,2020-09-10_08h49.24.183,proactive3.1,2020.1.2,Win32,60,5f599a131af4471f3d752b7b,5f5a2eb66f1f7109006b1546,3,,,,,,frame,,,,,,,,,,,3,2,0,2,2,29,1,,,,,,,,,,,,,,,,,,,,,,,,,,,,,,,,,,,,,,,,,,,,,,,,,,,,,,,,,,,,,,,,,,,,,,,,,,,,,,,,,,,,,,,,,,,,,,,,,,,,,,,,
,,?,0.001555,0,,,,,,stimuli/images/PICTURE_509.png,APPLE,5f29c35127bcc61497b0b1ac,10/31/1950,2020-09-10_08h49.24.183,proactive3.1,2020.1.2,Win32,60,5f599a131af4471f3d752b7b,5f5a2eb66f1f7109006b1546,3,,,,,,telephone,,,,,,,,,,,4,2,0,3,3,38,1,,,,,,,,,,,,,,,,,,,,,,,,,,,,,,,,,,,,,,,,,,,,,,,,,,,,,,,,,,,,,,,,,,,,,,,,,,,,,,,,,,,,,,,,,,,,,,,,,,,,,,,,
,,?,0.0013,0,,,,,,stimuli/images/PICTURE_215.png,FOOD,5f29c35127bcc61497b0b1ac,10/31/1950,2020-09-10_08h49.24.183,proactive3.1,2020.1.2,Win32,60,5f599a131af4471f3d752b7b,5f5a2eb66f1f7109006b1546,3,,,,,,boot,,,,,,,,,,,1,2,0,4,4,5,1,,,,,,,,,,,,,,,,,,,,,,,,,,,,,,,,,,,,,,,,,,,,,,,,,,,,,,,,,,,,,,,,,,,,,,,,,,,,,,,,,,,,,,,,,,,,,,,,,,,,,,,,
,,?,0.001305,0,,,,,,stimuli/images/PICTURE_453.png,FAMILY,5f29c35127bcc61497b0b1ac,10/31/1950,2020-09-10_08h49.24.183,proactive3.1,2020.1.2,Win32,60,5f599a131af4471f3d752b7b,5f5a2eb66f1f7109006b1546,3,,,,,,scissors,,,,,,,,,,,5,2,0,5,5,48,1,,,,,,,,,,,,,,,,,,,,,,,,,,,,,,,,,,,,,,,,,,,,,,,,,,,,,,,,,,,,,,,,,,,,,,,,,,,,,,,,,,,,,,,,,,,,,,,,,,,,,,,,
,,?,0.001295,0,,,,,,stimuli/images/PICTURE_285.png,WRITER,5f29c35127bcc61497b0b1ac,10/31/1950,2020-09-10_08h49.24.183,proactive3.1,2020.1.2,Win32,60,5f599a131af4471f3d752b7b,5f5a2eb66f1f7109006b1546,3,,,,,,carrot,,,,,,,,,,,1,2,0,6,6,6,1,,,,,,,,,,,,,,,,,,,,,,,,,,,,,,,,,,,,,,,,,,,,,,,,,,,,,,,,,,,,,,,,,,,,,,,,,,,,,,,,,,,,,,,,,,,,,,,,,,,,,,,,
,,GLASS,5.469985,1,,,,,,stimuli/images/PICTURE_667.png,GLASS,5f29c35127bcc61497b0b1ac,10/31/1950,2020-09-10_08h49.24.183,proactive3.1,2020.1.2,Win32,60,5f599a131af4471f3d752b7b,5f5a2eb66f1f7109006b1546,3,,,,,,daisy,,,,,,,,,,,3,2,0,7,7,27,1,,,,,,,,,,,,,,,,,,,,,,,,,,,,,,,,,,,,,,,,,,,,,,,,,,,,,,,,,,,,,,,,,,,,,,,,,,,,,,,,,,,,,,,,,,,,,,,,,,,,,,,,
,,?,0.00148,0,,,,,,stimuli/images/PICTURE_123.png,SALE,5f29c35127bcc61497b0b1ac,10/31/1950,2020-09-10_08h49.24.183,proactive3.1,2020.1.2,Win32,60,5f599a131af4471f3d752b7b,5f5a2eb66f1f7109006b1546,3,,,,,,dart,,,,,,,,,,,1,2,0,8,8,8,1,,,,,,,,,,,,,,,,,,,,,,,,,,,,,,,,,,,,,,,,,,,,,,,,,,,,,,,,,,,,,,,,,,,,,,,,,,,,,,,,,,,,,,,,,,,,,,,,,,,,,,,,
,,?,0.001275,0,,,,,,stimuli/images/PICTURE_655.png,SALE,5f29c35127bcc61497b0b1ac,10/31/1950,2020-09-10_08h49.24.183,proactive3.1,2020.1.2,Win32,60,5f599a131af4471f3d752b7b,5f5a2eb66f1f7109006b1546,3,,,,,,megaphone,,,,,,,,,,,6,2,0,9,9,57,1,,,,,,,,,,,,,,,,,,,,,,,,,,,,,,,,,,,,,,,,,,,,,,,,,,,,,,,,,,,,,,,,,,,,,,,,,,,,,,,,,,,,,,,,,,,,,,,,,,,,,,,,
,,?,0.001255,0,,,,,,stimuli/images/PICTURE_509.png,MILLER,5f29c35127bcc61497b0b1ac,10/31/1950,2020-09-10_08h49.24.183,proactive3.1,2020.1.2,Win32,60,5f599a131af4471f3d752b7b,5f5a2eb66f1f7109006b1546,3,,,,,,telephone,,,,,,,,,,,5,2,0,10,10,49,1,,,,,,,,,,,,,,,,,,,,,,,,,,,,,,,,,,,,,,,,,,,,,,,,,,,,,,,,,,,,,,,,,,,,,,,,,,,,,,,,,,,,,,,,,,,,,,,,,,,,,,,,
,,?,0.00125,0,,,,,,stimuli/images/PICTURE_2.png,YARD,5f29c35127bcc61497b0b1ac,10/31/1950,2020-09-10_08h49.24.183,proactive3.1,2020.1.2,Win32,60,5f599a131af4471f3d752b7b,5f5a2eb66f1f7109006b1546,3,,,,,,tyre,,,,,,,,,,,6,2,0,11,11,55,1,,,,,,,,,,,,,,,,,,,,,,,,,,,,,,,,,,,,,,,,,,,,,,,,,,,,,,,,,,,,,,,,,,,,,,,,,,,,,,,,,,,,,,,,,,,,,,,,,,,,,,,,
,,?,0.001385,0,,,,,,stimuli/images/PICTURE_141.png,CLIENT,5f29c35127bcc61497b0b1ac,10/31/1950,2020-09-10_08h49.24.183,proactive3.1,2020.1.2,Win32,60,5f599a131af4471f3d752b7b,5f5a2eb66f1f7109006b1546,3,,,,,,sunflower,,,,,,,,,,,4,2,0,12,12,30,1,,,,,,,,,,,,,,,,,,,,,,,,,,,,,,,,,,,,,,,,,,,,,,,,,,,,,,,,,,,,,,,,,,,,,,,,,,,,,,,,,,,,,,,,,,,,,,,,,,,,,,,,
,,?,0.00136,0,,,,,,stimuli/images/PICTURE_470.png,MOMENT,5f29c35127bcc61497b0b1ac,10/31/1950,2020-09-10_08h49.24.183,proactive3.1,2020.1.2,Win32,60,5f599a131af4471f3d752b7b,5f5a2eb66f1f7109006b1546,3,,,,,,motorbike,,,,,,,,,,,5,2,0,13,13,40,1,,,,,,,,,,,,,,,,,,,,,,,,,,,,,,,,,,,,,,,,,,,,,,,,,,,,,,,,,,,,,,,,,,,,,,,,,,,,,,,,,,,,,,,,,,,,,,,,,,,,,,,,
,,?,0.001345,0,,,,,,stimuli/images/PICTURE_504.png,HOUSE,5f29c35127bcc61497b0b1ac,10/31/1950,2020-09-10_08h49.24.183,proactive3.1,2020.1.2,Win32,60,5f599a131af4471f3d752b7b,5f5a2eb66f1f7109006b1546,3,,,,,,wheel,,,,,,,,,,,4,2,0,14,14,36,1,,,,,,,,,,,,,,,,,,,,,,,,,,,,,,,,,,,,,,,,,,,,,,,,,,,,,,,,,,,,,,,,,,,,,,,,,,,,,,,,,,,,,,,,,,,,,,,,,,,,,,,,
,,?,0.00124,0,,,,,,stimuli/images/PICTURE_487.png,POLICY,5f29c35127bcc61497b0b1ac,10/31/1950,2020-09-10_08h49.24.183,proactive3.1,2020.1.2,Win32,60,5f599a131af4471f3d752b7b,5f5a2eb66f1f7109006b1546,3,,,,,,basket,,,,,,,,,,,4,2,0,15,15,34,1,,,,,,,,,,,,,,,,,,,,,,,,,,,,,,,,,,,,,,,,,,,,,,,,,,,,,,,,,,,,,,,,,,,,,,,,,,,,,,,,,,,,,,,,,,,,,,,,,,,,,,,,
,,BEAUTY,6.60723,1,,,,,,stimuli/images/PICTURE_470.png,BEAUTY,5f29c35127bcc61497b0b1ac,10/31/1950,2020-09-10_08h49.24.183,proactive3.1,2020.1.2,Win32,60,5f599a131af4471f3d752b7b,5f5a2eb66f1f7109006b1546,3,,,,,,motorbike,,,,,,,,,,,3,2,0,16,16,26,1,,,,,,,,,,,,,,,,,,,,,,,,,,,,,,,,,,,,,,,,,,,,,,,,,,,,,,,,,,,,,,,,,,,,,,,,,,,,,,,,,,,,,,,,,,,,,,,,,,,,,,,,
,,?,0.001475,0,,,,,,stimuli/images/PICTURE_311.png,FLESH,5f29c35127bcc61497b0b1ac,10/31/1950,2020-09-10_08h49.24.183,proactive3.1,2020.1.2,Win32,60,5f599a131af4471f3d752b7b,5f5a2eb66f1f7109006b1546,3,,,,,,razor,,,,,,,,,,,1,2,0,17,17,3,1,,,,,,,,,,,,,,,,,,,,,,,,,,,,,,,,,,,,,,,,,,,,,,,,,,,,,,,,,,,,,,,,,,,,,,,,,,,,,,,,,,,,,,,,,,,,,,,,,,,,,,,,
,,NATION,6.297455,1,,,,,,stimuli/images/PICTURE_57.png,NATION,5f29c35127bcc61497b0b1ac,10/31/1950,2020-09-10_08h49.24.183,proactive3.1,2020.1.2,Win32,60,5f599a131af4471f3d752b7b,5f5a2eb66f1f7109006b1546,3,,,,,,stamp,,,,,,,,,,,3,2,0,18,18,21,1,,,,,,,,,,,,,,,,,,,,,,,,,,,,,,,,,,,,,,,,,,,,,,,,,,,,,,,,,,,,,,,,,,,,,,,,,,,,,,,,,,,,,,,,,,,,,,,,,,,,,,,,
,,?,0.00258,0,,,,,,stimuli/images/PICTURE_314.png,SPEECH,5f29c35127bcc61497b0b1ac,10/31/1950,2020-09-10_08h49.24.183,proactive3.1,2020.1.2,Win32,60,5f599a131af4471f3d752b7b,5f5a2eb66f1f7109006b1546,3,,,,,,perfume,,,,,,,,,,,4,2,0,19,19,35,1,,,,,,,,,,,,,,,,,,,,,,,,,,,,,,,,,,,,,,,,,,,,,,,,,,,,,,,,,,,,,,,,,,,,,,,,,,,,,,,,,,,,,,,,,,,,,,,,,,,,,,,,
,,PRINCE,10.89725,1,,,,,,stimuli/images/PICTURE_285.png,PRINCE,5f29c35127bcc61497b0b1ac,10/31/1950,2020-09-10_08h49.24.183,proactive3.1,2020.1.2,Win32,60,5f599a131af4471f3d752b7b,5f5a2eb66f1f7109006b1546,3,,,,,,carrot,,,,,,,,,,,3,2,0,20,20,20,1,,,,,,,,,,,,,,,,,,,,,,,,,,,,,,,,,,,,,,,,,,,,,,,,,,,,,,,,,,,,,,,,,,,,,,,,,,,,,,,,,,,,,,,,,,,,,,,,,,,,,,,,
,,?,0.001605,0,,,,,,stimuli/images/PICTURE_32.png,LETTER,5f29c35127bcc61497b0b1ac,10/31/1950,2020-09-10_08h49.24.183,proactive3.1,2020.1.2,Win32,60,5f599a131af4471f3d752b7b,5f5a2eb66f1f7109006b1546,3,,,,,,crown,,,,,,,,,,,6,2,0,21,21,56,1,,,,,,,,,,,,,,,,,,,,,,,,,,,,,,,,,,,,,,,,,,,,,,,,,,,,,,,,,,,,,,,,,,,,,,,,,,,,,,,,,,,,,,,,,,,,,,,,,,,,,,,,
,,?,0.001285,0,,,,,,stimuli/images/PICTURE_327.png,LEADER,5f29c35127bcc61497b0b1ac,10/31/1950,2020-09-10_08h49.24.183,proactive3.1,2020.1.2,Win32,60,5f599a131af4471f3d752b7b,5f5a2eb66f1f7109006b1546,3,,,,,,helmet,,,,,,,,,,,2,2,0,22,22,17,1,,,,,,,,,,,,,,,,,,,,,,,,,,,,,,,,,,,,,,,,,,,,,,,,,,,,,,,,,,,,,,,,,,,,,,,,,,,,,,,,,,,,,,,,,,,,,,,,,,,,,,,,
,,RIVER,5.426965,1,,,,,,stimuli/images/PICTURE_18.png,RIVER,5f29c35127bcc61497b0b1ac,10/31/1950,2020-09-10_08h49.24.183,proactive3.1,2020.1.2,Win32,60,5f599a131af4471f3d752b7b,5f5a2eb66f1f7109006b1546,3,,,,,,planet,,,,,,,,,,,3,2,0,23,23,22,1,,,,,,,,,,,,,,,,,,,,,,,,,,,,,,,,,,,,,,,,,,,,,,,,,,,,,,,,,,,,,,,,,,,,,,,,,,,,,,,,,,,,,,,,,,,,,,,,,,,,,,,,
,,?,0.001435,0,,,,,,stimuli/images/PICTURE_95.png,NIGHT,5f29c35127bcc61497b0b1ac,10/31/1950,2020-09-10_08h49.24.183,proactive3.1,2020.1.2,Win32,60,5f599a131af4471f3d752b7b,5f5a2eb66f1f7109006b1546,3,,,,,,suitcase,,,,,,,,,,,4,2,0,24,24,37,1,,,,,,,,,,,,,,,,,,,,,,,,,,,,,,,,,,,,,,,,,,,,,,,,,,,,,,,,,,,,,,,,,,,,,,,,,,,,,,,,,,,,,,,,,,,,,,,,,,,,,,,,
,,?,0.00125,0,,,,,,stimuli/images/PICTURE_750.png,POLICY,5f29c35127bcc61497b0b1ac,10/31/1950,2020-09-10_08h49.24.183,proactive3.1,2020.1.2,Win32,60,5f599a131af4471f3d752b7b,5f5a2eb66f1f7109006b1546,3,,,,,,kettle,,,,,,,,,,,5,2,0,25,25,44,1,,,,,,,,,,,,,,,,,,,,,,,,,,,,,,,,,,,,,,,,,,,,,,,,,,,,,,,,,,,,,,,,,,,,,,,,,,,,,,,,,,,,,,,,,,,,,,,,,,,,,,,,
,,?,0.001275,0,,,,,,stimuli/images/PICTURE_708.png,VALLEY,5f29c35127bcc61497b0b1ac,10/31/1950,2020-09-10_08h49.24.183,proactive3.1,2020.1.2,Win32,60,5f599a131af4471f3d752b7b,5f5a2eb66f1f7109006b1546,3,,,,,,monkey,,,,,,,,,,,5,2,0,26,26,45,1,,,,,,,,,,,,,,,,,,,,,,,,,,,,,,,,,,,,,,,,,,,,,,,,,,,,,,,,,,,,,,,,,,,,,,,,,,,,,,,,,,,,,,,,,,,,,,,,,,,,,,,,
,,BOYS,8.672465,0,,,,,,stimuli/images/PICTURE_68.png,KIND,5f29c35127bcc61497b0b1ac,10/31/1950,2020-09-10_08h49.24.183,proactive3.1,2020.1.2,Win32,60,5f599a131af4471f3d752b7b,5f5a2eb66f1f7109006b1546,3,,,,,,candle,,,,,,,,,,,3,2,0,27,27,23,1,,,,,,,,,,,,,,,,,,,,,,,,,,,,,,,,,,,,,,,,,,,,,,,,,,,,,,,,,,,,,,,,,,,,,,,,,,,,,,,,,,,,,,,,,,,,,,,,,,,,,,,,
,,?,0.004705,0,,,,,,stimuli/images/PICTURE_692.png,DUDE,5f29c35127bcc61497b0b1ac,10/31/1950,2020-09-10_08h49.24.183,proactive3.1,2020.1.2,Win32,60,5f599a131af4471f3d752b7b,5f5a2eb66f1f7109006b1546,3,,,,,,cherry,,,,,,,,,,,5,2,0,28,28,47,1,,,,,,,,,,,,,,,,,,,,,,,,,,,,,,,,,,,,,,,,,,,,,,,,,,,,,,,,,,,,,,,,,,,,,,,,,,,,,,,,,,,,,,,,,,,,,,,,,,,,,,,,
,,SPIRIT,4.35906,1,,,,,,stimuli/images/PICTURE_208.png,SPIRIT,5f29c35127bcc61497b0b1ac,10/31/1950,2020-09-10_08h49.24.183,proactive3.1,2020.1.2,Win32,60,5f599a131af4471f3d752b7b,5f5a2eb66f1f7109006b1546,3,,,,,,microphone,,,,,,,,,,,3,2,0,29,29,28,1,,,,,,,,,,,,,,,,,,,,,,,,,,,,,,,,,,,,,,,,,,,,,,,,,,,,,,,,,,,,,,,,,,,,,,,,,,,,,,,,,,,,,,,,,,,,,,,,,,,,,,,,
,,?,0.001445,0,,,,,,stimuli/images/PICTURE_564.png,PLENTY,5f29c35127bcc61497b0b1ac,10/31/1950,2020-09-10_08h49.24.183,proactive3.1,2020.1.2,Win32,60,5f599a131af4471f3d752b7b,5f5a2eb66f1f7109006b1546,3,,,,,,spoon,,,,,,,,,,,2,2,0,30,30,11,1,,,,,,,,,,,,,,,,,,,,,,,,,,,,,,,,,,,,,,,,,,,,,,,,,,,,,,,,,,,,,,,,,,,,,,,,,,,,,,,,,,,,,,,,,,,,,,,,,,,,,,,,
,,?,0.001205,0,,,,,,stimuli/images/PICTURE_491.png,SERIES,5f29c35127bcc61497b0b1ac,10/31/1950,2020-09-10_08h49.24.183,proactive3.1,2020.1.2,Win32,60,5f599a131af4471f3d752b7b,5f5a2eb66f1f7109006b1546,3,,,,,,rug,,,,,,,,,,,4,2,0,31,31,39,1,,,,,,,,,,,,,,,,,,,,,,,,,,,,,,,,,,,,,,,,,,,,,,,,,,,,,,,,,,,,,,,,,,,,,,,,,,,,,,,,,,,,,,,,,,,,,,,,,,,,,,,,
,,?,0.001235,0,,,,,,stimuli/images/PICTURE_405.png,JUNGLE,5f29c35127bcc61497b0b1ac,10/31/1950,2020-09-10_08h49.24.183,proactive3.1,2020.1.2,Win32,60,5f599a131af4471f3d752b7b,5f5a2eb66f1f7109006b1546,3,,,,,,anchor,,,,,,,,,,,6,2,0,32,32,58,1,,,,,,,,,,,,,,,,,,,,,,,,,,,,,,,,,,,,,,,,,,,,,,,,,,,,,,,,,,,,,,,,,,,,,,,,,,,,,,,,,,,,,,,,,,,,,,,,,,,,,,,,
,,?,0.00134,0,,,,,,stimuli/images/PICTURE_677.png,PHOTO,5f29c35127bcc61497b0b1ac,10/31/1950,2020-09-10_08h49.24.183,proactive3.1,2020.1.2,Win32,60,5f599a131af4471f3d752b7b,5f5a2eb66f1f7109006b1546,3,,,,,,map,,,,,,,,,,,2,2,0,33,33,14,1,,,,,,,,,,,,,,,,,,,,,,,,,,,,,,,,,,,,,,,,,,,,,,,,,,,,,,,,,,,,,,,,,,,,,,,,,,,,,,,,,,,,,,,,,,,,,,,,,,,,,,,,
,,?,0.001865,0,,,,,,stimuli/images/PICTURE_57.png,CASINO,5f29c35127bcc61497b0b1ac,10/31/1950,2020-09-10_08h49.24.183,proactive3.1,2020.1.2,Win32,60,5f599a131af4471f3d752b7b,5f5a2eb66f1f7109006b1546,3,,,,,,stamp,,,,,,,,,,,2,2,0,34,34,12,1,,,,,,,,,,,,,,,,,,,,,,,,,,,,,,,,,,,,,,,,,,,,,,,,,,,,,,,,,,,,,,,,,,,,,,,,,,,,,,,,,,,,,,,,,,,,,,,,,,,,,,,,
,,?,0.001215,0,,,,,,stimuli/images/PICTURE_297.png,BODY,5f29c35127bcc61497b0b1ac,10/31/1950,2020-09-10_08h49.24.183,proactive3.1,2020.1.2,Win32,60,5f599a131af4471f3d752b7b,5f5a2eb66f1f7109006b1546,3,,,,,,aeroplane,,,,,,,,,,,6,2,0,35,35,51,1,,,,,,,,,,,,,,,,,,,,,,,,,,,,,,,,,,,,,,,,,,,,,,,,,,,,,,,,,,,,,,,,,,,,,,,,,,,,,,,,,,,,,,,,,,,,,,,,,,,,,,,,
,,BOYS,4.19411,1,,,,,,stimuli/images/PICTURE_215.png,BOYS,5f29c35127bcc61497b0b1ac,10/31/1950,2020-09-10_08h49.24.183,proactive3.1,2020.1.2,Win32,60,5f599a131af4471f3d752b7b,5f5a2eb66f1f7109006b1546,3,,,,,,boot,,,,,,,,,,,3,2,0,36,36,24,1,,,,,,,,,,,,,,,,,,,,,,,,,,,,,,,,,,,,,,,,,,,,,,,,,,,,,,,,,,,,,,,,,,,,,,,,,,,,,,,,,,,,,,,,,,,,,,,,,,,,,,,,
,,?,0.00145,0,,,,,,stimuli/images/PICTURE_509.png,SHOTS,5f29c35127bcc61497b0b1ac,10/31/1950,2020-09-10_08h49.24.183,proactive3.1,2020.1.2,Win32,60,5f599a131af4471f3d752b7b,5f5a2eb66f1f7109006b1546,3,,,,,,telephone,,,,,,,,,,,1,2,0,37,37,7,1,,,,,,,,,,,,,,,,,,,,,,,,,,,,,,,,,,,,,,,,,,,,,,,,,,,,,,,,,,,,,,,,,,,,,,,,,,,,,,,,,,,,,,,,,,,,,,,,,,,,,,,,
,,?,0.001225,0,,,,,,stimuli/images/PICTURE_654.png,COPS,5f29c35127bcc61497b0b1ac,10/31/1950,2020-09-10_08h49.24.183,proactive3.1,2020.1.2,Win32,60,5f599a131af4471f3d752b7b,5f5a2eb66f1f7109006b1546,3,,,,,,pencil,,,,,,,,,,,2,2,0,38,38,10,1,,,,,,,,,,,,,,,,,,,,,,,,,,,,,,,,,,,,,,,,,,,,,,,,,,,,,,,,,,,,,,,,,,,,,,,,,,,,,,,,,,,,,,,,,,,,,,,,,,,,,,,,
,,?,0.00121,0,,,,,,stimuli/images/PICTURE_348.png,TOILET,5f29c35127bcc61497b0b1ac,10/31/1950,2020-09-10_08h49.24.183,proactive3.1,2020.1.2,Win32,60,5f599a131af4471f3d752b7b,5f5a2eb66f1f7109006b1546,3,,,,,,pepper,,,,,,,,,,,1,2,0,39,39,4,1,,,,,,,,,,,,,,,,,,,,,,,,,,,,,,,,,,,,,,,,,,,,,,,,,,,,,,,,,,,,,,,,,,,,,,,,,,,,,,,,,,,,,,,,,,,,,,,,,,,,,,,,
,,?,0.001185,0,,,,,,stimuli/images/PICTURE_2.png,JUNGLE,5f29c35127bcc61497b0b1ac,10/31/1950,2020-09-10_08h49.24.183,proactive3.1,2020.1.2,Win32,60,5f599a131af4471f3d752b7b,5f5a2eb66f1f7109006b1546,3,,,,,,tyre,,,,,,,,,,,1,2,0,40,40,1,1,,,,,,,,,,,,,,,,,,,,,,,,,,,,,,,,,,,,,,,,,,,,,,,,,,,,,,,,,,,,,,,,,,,,,,,,,,,,,,,,,,,,,,,,,,,,,,,,,,,,,,,,
,,?,0.00119,0,,,,,,stimuli/images/PICTURE_2.png,AREA,5f29c35127bcc61497b0b1ac,10/31/1950,2020-09-10_08h49.24.183,proactive3.1,2020.1.2,Win32,60,5f599a131af4471f3d752b7b,5f5a2eb66f1f7109006b1546,3,,,,,,tyre,,,,,,,,,,,4,2,0,41,41,32,1,,,,,,,,,,,,,,,,,,,,,,,,,,,,,,,,,,,,,,,,,,,,,,,,,,,,,,,,,,,,,,,,,,,,,,,,,,,,,,,,,,,,,,,,,,,,,,,,,,,,,,,,
,,?,0.00149,0,,,,,,stimuli/images/PICTURE_677.png,FAMILY,5f29c35127bcc61497b0b1ac,10/31/1950,2020-09-10_08h49.24.183,proactive3.1,2020.1.2,Win32,60,5f599a131af4471f3d752b7b,5f5a2eb66f1f7109006b1546,3,,,,,,map,,,,,,,,,,,6,2,0,42,42,53,1,,,,,,,,,,,,,,,,,,,,,,,,,,,,,,,,,,,,,,,,,,,,,,,,,,,,,,,,,,,,,,,,,,,,,,,,,,,,,,,,,,,,,,,,,,,,,,,,,,,,,,,,
,,?,0.00121,0,,,,,,stimuli/images/PICTURE_405.png,JUNGLE,5f29c35127bcc61497b0b1ac,10/31/1950,2020-09-10_08h49.24.183,proactive3.1,2020.1.2,Win32,60,5f599a131af4471f3d752b7b,5f5a2eb66f1f7109006b1546,3,,,,,,anchor,,,,,,,,,,,2,2,0,43,43,13,1,,,,,,,,,,,,,,,,,,,,,,,,,,,,,,,,,,,,,,,,,,,,,,,,,,,,,,,,,,,,,,,,,,,,,,,,,,,,,,,,,,,,,,,,,,,,,,,,,,,,,,,,
,,?,0.001205,0,,,,,,stimuli/images/PICTURE_57.png,CANDY,5f29c35127bcc61497b0b1ac,10/31/1950,2020-09-10_08h49.24.183,proactive3.1,2020.1.2,Win32,60,5f599a131af4471f3d752b7b,5f5a2eb66f1f7109006b1546,3,,,,,,stamp,,,,,,,,,,,6,2,0,44,44,52,1,,,,,,,,,,,,,,,,,,,,,,,,,,,,,,,,,,,,,,,,,,,,,,,,,,,,,,,,,,,,,,,,,,,,,,,,,,,,,,,,,,,,,,,,,,,,,,,,,,,,,,,,
,,?,0.001185,0,,,,,,stimuli/images/PICTURE_405.png,HOUSE,5f29c35127bcc61497b0b1ac,10/31/1950,2020-09-10_08h49.24.183,proactive3.1,2020.1.2,Win32,60,5f599a131af4471f3d752b7b,5f5a2eb66f1f7109006b1546,3,,,,,,anchor,,,,,,,,,,,1,2,0,45,45,2,1,,,,,,,,,,,,,,,,,,,,,,,,,,,,,,,,,,,,,,,,,,,,,,,,,,,,,,,,,,,,,,,,,,,,,,,,,,,,,,,,,,,,,,,,,,,,,,,,,,,,,,,,
,,HOUSE,5.137745,1,,,,,,stimuli/images/PICTURE_177.png,HOUSE,5f29c35127bcc61497b0b1ac,10/31/1950,2020-09-10_08h49.24.183,proactive3.1,2020.1.2,Win32,60,5f599a131af4471f3d752b7b,5f5a2eb66f1f7109006b1546,3,,,,,,mushroom,,,,,,,,,,,3,2,0,46,46,25,1,,,,,,,,,,,,,,,,,,,,,,,,,,,,,,,,,,,,,,,,,,,,,,,,,,,,,,,,,,,,,,,,,,,,,,,,,,,,,,,,,,,,,,,,,,,,,,,,,,,,,,,,
,,?,0.00203,0,,,,,,stimuli/images/PICTURE_509.png,BATH,5f29c35127bcc61497b0b1ac,10/31/1950,2020-09-10_08h49.24.183,proactive3.1,2020.1.2,Win32,60,5f599a131af4471f3d752b7b,5f5a2eb66f1f7109006b1546,3,,,,,,telephone,,,,,,,,,,,2,2,0,47,47,15,1,,,,,,,,,,,,,,,,,,,,,,,,,,,,,,,,,,,,,,,,,,,,,,,,,,,,,,,,,,,,,,,,,,,,,,,,,,,,,,,,,,,,,,,,,,,,,,,,,,,,,,,,
,,?,0.00126,0,,,,,,stimuli/images/PICTURE_688.png,CLOCK,5f29c35127bcc61497b0b1ac,10/31/1950,2020-09-10_08h49.24.183,proactive3.1,2020.1.2,Win32,60,5f599a131af4471f3d752b7b,5f5a2eb66f1f7109006b1546,3,,,,,,runner,,,,,,,,,,,5,2,0,48,48,42,1,,,,,,,,,,,,,,,,,,,,,,,,,,,,,,,,,,,,,,,,,,,,,,,,,,,,,,,,,,,,,,,,,,,,,,,,,,,,,,,,,,,,,,,,,,,,,,,,,,,,,,,,
,,?,0.00121,0,,,,,,stimuli/images/PICTURE_147.png,LEADER,5f29c35127bcc61497b0b1ac,10/31/1950,2020-09-10_08h49.24.183,proactive3.1,2020.1.2,Win32,60,5f599a131af4471f3d752b7b,5f5a2eb66f1f7109006b1546,3,,,,,,hanger,,,,,,,,,,,4,2,0,49,49,33,1,,,,,,,,,,,,,,,,,,,,,,,,,,,,,,,,,,,,,,,,,,,,,,,,,,,,,,,,,,,,,,,,,,,,,,,,,,,,,,,,,,,,,,,,,,,,,,,,,,,,,,,,
,,?,0.00152,0,,,,,,stimuli/images/PICTURE_348.png,DUDE,5f29c35127bcc61497b0b1ac,10/31/1950,2020-09-10_08h49.24.183,proactive3.1,2020.1.2,Win32,60,5f599a131af4471f3d752b7b,5f5a2eb66f1f7109006b1546,3,,,,,,pepper,,,,,,,,,,,6,2,0,50,50,59,1,,,,,,,,,,,,,,,,,,,,,,,,,,,,,,,,,,,,,,,,,,,,,,,,,,,,,,,,,,,,,,,,,,,,,,,,,,,,,,,,,,,,,,,,,,,,,,,,,,,,,,,,
,,?,0.001535,0,,,,,,stimuli/images/PICTURE_356.png,CANDY,5f29c35127bcc61497b0b1ac,10/31/1950,2020-09-10_08h49.24.183,proactive3.1,2020.1.2,Win32,60,5f599a131af4471f3d752b7b,5f5a2eb66f1f7109006b1546,3,,,,,,pawn,,,,,,,,,,,5,2,0,51,51,46,1,,,,,,,,,,,,,,,,,,,,,,,,,,,,,,,,,,,,,,,,,,,,,,,,,,,,,,,,,,,,,,,,,,,,,,,,,,,,,,,,,,,,,,,,,,,,,,,,,,,,,,,,
,,?,0.00119,0,,,,,,stimuli/images/PICTURE_654.png,YEAR,5f29c35127bcc61497b0b1ac,10/31/1950,2020-09-10_08h49.24.183,proactive3.1,2020.1.2,Win32,60,5f599a131af4471f3d752b7b,5f5a2eb66f1f7109006b1546,3,,,,,,pencil,,,,,,,,,,,5,2,0,52,52,41,1,,,,,,,,,,,,,,,,,,,,,,,,,,,,,,,,,,,,,,,,,,,,,,,,,,,,,,,,,,,,,,,,,,,,,,,,,,,,,,,,,,,,,,,,,,,,,,,,,,,,,,,,
,,?,0.00122,0,,,,,,stimuli/images/PICTURE_311.png,TOILET,5f29c35127bcc61497b0b1ac,10/31/1950,2020-09-10_08h49.24.183,proactive3.1,2020.1.2,Win32,60,5f599a131af4471f3d752b7b,5f5a2eb66f1f7109006b1546,3,,,,,,razor,,,,,,,,,,,6,2,0,53,53,54,1,,,,,,,,,,,,,,,,,,,,,,,,,,,,,,,,,,,,,,,,,,,,,,,,,,,,,,,,,,,,,,,,,,,,,,,,,,,,,,,,,,,,,,,,,,,,,,,,,,,,,,,,
,,?,0.001175,0,,,,,,stimuli/images/PICTURE_487.png,ROOF,5f29c35127bcc61497b0b1ac,10/31/1950,2020-09-10_08h49.24.183,proactive3.1,2020.1.2,Win32,60,5f599a131af4471f3d752b7b,5f5a2eb66f1f7109006b1546,3,,,,,,basket,,,,,,,,,,,6,2,0,54,54,50,1,,,,,,,,,,,,,,,,,,,,,,,,,,,,,,,,,,,,,,,,,,,,,,,,,,,,,,,,,,,,,,,,,,,,,,,,,,,,,,,,,,,,,,,,,,,,,,,,,,,,,,,,
,,?,0.001185,0,,,,,,stimuli/images/PICTURE_296.png,CLOCK,5f29c35127bcc61497b0b1ac,10/31/1950,2020-09-10_08h49.24.183,proactive3.1,2020.1.2,Win32,60,5f599a131af4471f3d752b7b,5f5a2eb66f1f7109006b1546,3,,,,,,bolt,,,,,,,,,,,2,2,0,55,55,18,1,,,,,,,,,,,,,,,,,,,,,,,,,,,,,,,,,,,,,,,,,,,,,,,,,,,,,,,,,,,,,,,,,,,,,,,,,,,,,,,,,,,,,,,,,,,,,,,,,,,,,,,,
,,?,0.0012,0,,,,,,stimuli/images/PICTURE_160.png,HOTEL,5f29c35127bcc61497b0b1ac,10/31/1950,2020-09-10_08h49.24.183,proactive3.1,2020.1.2,Win32,60,5f599a131af4471f3d752b7b,5f5a2eb66f1f7109006b1546,3,,,,,,wheelbarrow,,,,,,,,,,,2,2,0,56,56,16,1,,,,,,,,,,,,,,,,,,,,,,,,,,,,,,,,,,,,,,,,,,,,,,,,,,,,,,,,,,,,,,,,,,,,,,,,,,,,,,,,,,,,,,,,,,,,,,,,,,,,,,,,
,,?,0.00124,0,,,,,,stimuli/images/PICTURE_403.png,FAMILY,5f29c35127bcc61497b0b1ac,10/31/1950,2020-09-10_08h49.24.183,proactive3.1,2020.1.2,Win32,60,5f599a131af4471f3d752b7b,5f5a2eb66f1f7109006b1546,3,,,,,,cathedral,,,,,,,,,,,1,2,0,57,57,9,1,,,,,,,,,,,,,,,,,,,,,,,,,,,,,,,,,,,,,,,,,,,,,,,,,,,,,,,,,,,,,,,,,,,,,,,,,,,,,,,,,,,,,,,,,,,,,,,,,,,,,,,,
,,?,0.000755,0,,,,,,stimuli/images/PICTURE_452.png,COPS,5f29c35127bcc61497b0b1ac,10/31/1950,2020-09-10_08h49.24.183,proactive3.1,2020.1.2,Win32,60,5f599a131af4471f3d752b7b,5f5a2eb66f1f7109006b1546,3,,,,,,watch,,,,,,,,,,,1,2,0,58,58,0,1,,,,,,,,,,,,,,,,,,,,,,,,,,,,,,,,,,,,,,,,,,,,,,,,,,,,,,,,,,,,,,,,,,,,,,,,,,,,,,,,,,,,,,,,,,,,,,,,,,,,,,,,
,,?,0.00079,0,,,,,,stimuli/images/PICTURE_215.png,LEADER,5f29c35127bcc61497b0b1ac,10/31/1950,2020-09-10_08h49.24.183,proactive3.1,2020.1.2,Win32,60,5f599a131af4471f3d752b7b,5f5a2eb66f1f7109006b1546,3,,,,,,boot,,,,,,,,,,,5,2,0,59,59,43,1,,,,,,,,,,,,,,,,,,,,,,,,,,,,,,,,,,,,,,,,,,,,,,,,,,,,,,,,,,,,,,,,,,,,,,,,,,,,,,,,,,,,,,,,,,,,,,,,,,,,,,,,
,,,,,,,,,,,,5f29c35127bcc61497b0b1ac,10/31/1950,2020-09-10_08h49.24.183,proactive3.1,2020.1.2,Win32,60,5f599a131af4471f3d752b7b,5f5a2eb66f1f7109006b1546,3,,,,,,,,,,,,,,,,,,,,,,,,0,0,0,2,1,stimuli/learn-block3.csv,,,,,,,,,,,,,,,,,,,,,,,,,,,,,,,,,,,,,,,,,,,,,,,,,,,,,,,,,,,,,,,,,,,,,,,,,,,,,,,,,,,,,,,,,,,,,,,,,,
,,,,,,,,,,stimuli/images/PICTURE_160.png,LEADER,5f29c35127bcc61497b0b1ac,10/31/1950,2020-09-10_08h49.24.183,proactive3.1,2020.1.2,Win32,60,5f599a131af4471f3d752b7b,5f5a2eb66f1f7109006b1546,3,,,,,,wheelbarrow,,,,,,0,0,0,3,1,1,0,,,,,,,,,,,,,,,,,,,,,,,,,,,,,,,,,,,,,,,,,,,,,,,,,,,,,,,,,,,,,,,,,,,,,,,,,,,,,,,,,,,,,,,,,,,,,,,,,,,,,,,,,,,,,
,,,,,,,,,,stimuli/images/PICTURE_469.png,ARTIST,5f29c35127bcc61497b0b1ac,10/31/1950,2020-09-10_08h49.24.183,proactive3.1,2020.1.2,Win32,60,5f599a131af4471f3d752b7b,5f5a2eb66f1f7109006b1546,3,,,,,,stool,,,,,,0,1,1,6,1,1,0,,,,,,,,,,,,,,,,,,,,,,,,,,,,,,,,,,,,,,,,,,,,,,,,,,,,,,,,,,,,,,,,,,,,,,,,,,,,,,,,,,,,,,,,,,,,,,,,,,,,,,,,,,,,,
,,,,,,,,,,stimuli/images/PICTURE_208.png,THING,5f29c35127bcc61497b0b1ac,10/31/1950,2020-09-10_08h49.24.183,proactive3.1,2020.1.2,Win32,60,5f599a131af4471f3d752b7b,5f5a2eb66f1f7109006b1546,3,,,,,,microphone,,,,,,0,2,2,47,1,5,0,,,,,,,,,,,,,,,,,,,,,,,,,,,,,,,,,,,,,,,,,,,,,,,,,,,,,,,,,,,,,,,,,,,,,,,,,,,,,,,,,,,,,,,,,,,,,,,,,,,,,,,,,,,,,
,,,,,,,,,,stimuli/images/PICTURE_708.png,CLIENT,5f29c35127bcc61497b0b1ac,10/31/1950,2020-09-10_08h49.24.183,proactive3.1,2020.1.2,Win32,60,5f599a131af4471f3d752b7b,5f5a2eb66f1f7109006b1546,3,,,,,,monkey,,,,,,0,3,3,5,1,1,0,,,,,,,,,,,,,,,,,,,,,,,,,,,,,,,,,,,,,,,,,,,,,,,,,,,,,,,,,,,,,,,,,,,,,,,,,,,,,,,,,,,,,,,,,,,,,,,,,,,,,,,,,,,,,
,,,,,,,,,,stimuli/images/PICTURE_203.png,ARTIST,5f29c35127bcc61497b0b1ac,10/31/1950,2020-09-10_08h49.24.183,proactive3.1,2020.1.2,Win32,60,5f599a131af4471f3d752b7b,5f5a2eb66f1f7109006b1546,3,,,,,,cap,,,,,,0,4,4,26,1,3,0,,,,,,,,,,,,,,,,,,,,,,,,,,,,,,,,,,,,,,,,,,,,,,,,,,,,,,,,,,,,,,,,,,,,,,,,,,,,,,,,,,,,,,,,,,,,,,,,,,,,,,,,,,,,,
,,,,,,,,,,stimuli/images/PICTURE_248.png,DOZEN,5f29c35127bcc61497b0b1ac,10/31/1950,2020-09-10_08h49.24.183,proactive3.1,2020.1.2,Win32,60,5f599a131af4471f3d752b7b,5f5a2eb66f1f7109006b1546,3,,,,,,cart,,,,,,0,5,5,39,1,4,0,,,,,,,,,,,,,,,,,,,,,,,,,,,,,,,,,,,,,,,,,,,,,,,,,,,,,,,,,,,,,,,,,,,,,,,,,,,,,,,,,,,,,,,,,,,,,,,,,,,,,,,,,,,,,
,,,,,,,,,,stimuli/images/PICTURE_453.png,PLENTY,5f29c35127bcc61497b0b1ac,10/31/1950,2020-09-10_08h49.24.183,proactive3.1,2020.1.2,Win32,60,5f599a131af4471f3d752b7b,5f5a2eb66f1f7109006b1546,3,,,,,,scissors,,,,,,0,6,6,56,1,6,0,,,,,,,,,,,,,,,,,,,,,,,,,,,,,,,,,,,,,,,,,,,,,,,,,,,,,,,,,,,,,,,,,,,,,,,,,,,,,,,,,,,,,,,,,,,,,,,,,,,,,,,,,,,,,
,,,,,,,,,,stimuli/images/PICTURE_327.png,BEAUTY,5f29c35127bcc61497b0b1ac,10/31/1950,2020-09-10_08h49.24.183,proactive3.1,2020.1.2,Win32,60,5f599a131af4471f3d752b7b,5f5a2eb66f1f7109006b1546,3,,,,,,helmet,,,,,,0,7,7,48,1,5,0,,,,,,,,,,,,,,,,,,,,,,,,,,,,,,,,,,,,,,,,,,,,,,,,,,,,,,,,,,,,,,,,,,,,,,,,,,,,,,,,,,,,,,,,,,,,,,,,,,,,,,,,,,,,,
,,,,,,,,,,stimuli/images/PICTURE_708.png,YARD,5f29c35127bcc61497b0b1ac,10/31/1950,2020-09-10_08h49.24.183,proactive3.1,2020.1.2,Win32,60,5f599a131af4471f3d752b7b,5f5a2eb66f1f7109006b1546,3,,,,,,monkey,,,,,,0,8,8,29,1,3,0,,,,,,,,,,,,,,,,,,,,,,,,,,,,,,,,,,,,,,,,,,,,,,,,,,,,,,,,,,,,,,,,,,,,,,,,,,,,,,,,,,,,,,,,,,,,,,,,,,,,,,,,,,,,,
,,,,,,,,,,stimuli/images/PICTURE_123.png,ADVICE,5f29c35127bcc61497b0b1ac,10/31/1950,2020-09-10_08h49.24.183,proactive3.1,2020.1.2,Win32,60,5f599a131af4471f3d752b7b,5f5a2eb66f1f7109006b1546,3,,,,,,dart,,,,,,0,9,9,50,1,6,0,,,,,,,,,,,,,,,,,,,,,,,,,,,,,,,,,,,,,,,,,,,,,,,,,,,,,,,,,,,,,,,,,,,,,,,,,,,,,,,,,,,,,,,,,,,,,,,,,,,,,,,,,,,,,
,,,,,,,,,,stimuli/images/PICTURE_160.png,FEET,5f29c35127bcc61497b0b1ac,10/31/1950,2020-09-10_08h49.24.183,proactive3.1,2020.1.2,Win32,60,5f599a131af4471f3d752b7b,5f5a2eb66f1f7109006b1546,3,,,,,,wheelbarrow,,,,,,0,10,10,58,1,6,0,,,,,,,,,,,,,,,,,,,,,,,,,,,,,,,,,,,,,,,,,,,,,,,,,,,,,,,,,,,,,,,,,,,,,,,,,,,,,,,,,,,,,,,,,,,,,,,,,,,,,,,,,,,,,
,,,,,,,,,,stimuli/images/PICTURE_356.png,DANGER,5f29c35127bcc61497b0b1ac,10/31/1950,2020-09-10_08h49.24.183,proactive3.1,2020.1.2,Win32,60,5f599a131af4471f3d752b7b,5f5a2eb66f1f7109006b1546,3,,,,,,pawn,,,,,,0,11,11,55,1,6,0,,,,,,,,,,,,,,,,,,,,,,,,,,,,,,,,,,,,,,,,,,,,,,,,,,,,,,,,,,,,,,,,,,,,,,,,,,,,,,,,,,,,,,,,,,,,,,,,,,,,,,,,,,,,,
,,,,,,,,,,stimuli/images/PICTURE_339.png,PLENTY,5f29c35127bcc61497b0b1ac,10/31/1950,2020-09-10_08h49.24.183,proactive3.1,2020.1.2,Win32,60,5f599a131af4471f3d752b7b,5f5a2eb66f1f7109006b1546,3,,,,,,backpack,,,,,,0,12,12,0,1,1,0,,,,,,,,,,,,,,,,,,,,,,,,,,,,,,,,,,,,,,,,,,,,,,,,,,,,,,,,,,,,,,,,,,,,,,,,,,,,,,,,,,,,,,,,,,,,,,,,,,,,,,,,,,,,,
,,,,,,,,,,stimuli/images/PICTURE_177.png,CARS,5f29c35127bcc61497b0b1ac,10/31/1950,2020-09-10_08h49.24.183,proactive3.1,2020.1.2,Win32,60,5f599a131af4471f3d752b7b,5f5a2eb66f1f7109006b1546,3,,,,,,mushroom,,,,,,0,13,13,35,1,4,0,,,,,,,,,,,,,,,,,,,,,,,,,,,,,,,,,,,,,,,,,,,,,,,,,,,,,,,,,,,,,,,,,,,,,,,,,,,,,,,,,,,,,,,,,,,,,,,,,,,,,,,,,,,,,
,,,,,,,,,,stimuli/images/PICTURE_123.png,ADVICE,5f29c35127bcc61497b0b1ac,10/31/1950,2020-09-10_08h49.24.183,proactive3.1,2020.1.2,Win32,60,5f599a131af4471f3d752b7b,5f5a2eb66f1f7109006b1546,3,,,,,,dart,,,,,,0,14,14,40,1,5,0,,,,,,,,,,,,,,,,,,,,,,,,,,,,,,,,,,,,,,,,,,,,,,,,,,,,,,,,,,,,,,,,,,,,,,,,,,,,,,,,,,,,,,,,,,,,,,,,,,,,,,,,,,,,,
,,,,,,,,,,stimuli/images/PICTURE_488.png,STYLE,5f29c35127bcc61497b0b1ac,10/31/1950,2020-09-10_08h49.24.183,proactive3.1,2020.1.2,Win32,60,5f599a131af4471f3d752b7b,5f5a2eb66f1f7109006b1546,3,,,,,,sun,,,,,,0,15,15,33,1,4,0,,,,,,,,,,,,,,,,,,,,,,,,,,,,,,,,,,,,,,,,,,,,,,,,,,,,,,,,,,,,,,,,,,,,,,,,,,,,,,,,,,,,,,,,,,,,,,,,,,,,,,,,,,,,,
,,,,,,,,,,stimuli/images/PICTURE_467.png,DEMON,5f29c35127bcc61497b0b1ac,10/31/1950,2020-09-10_08h49.24.183,proactive3.1,2020.1.2,Win32,60,5f599a131af4471f3d752b7b,5f5a2eb66f1f7109006b1546,3,,,,,,peg,,,,,,0,16,16,23,1,3,0,,,,,,,,,,,,,,,,,,,,,,,,,,,,,,,,,,,,,,,,,,,,,,,,,,,,,,,,,,,,,,,,,,,,,,,,,,,,,,,,,,,,,,,,,,,,,,,,,,,,,,,,,,,,,
,,,,,,,,,,stimuli/images/PICTURE_654.png,VALLEY,5f29c35127bcc61497b0b1ac,10/31/1950,2020-09-10_08h49.24.183,proactive3.1,2020.1.2,Win32,60,5f599a131af4471f3d752b7b,5f5a2eb66f1f7109006b1546,3,,,,,,pencil,,,,,,0,17,17,1,1,1,0,,,,,,,,,,,,,,,,,,,,,,,,,,,,,,,,,,,,,,,,,,,,,,,,,,,,,,,,,,,,,,,,,,,,,,,,,,,,,,,,,,,,,,,,,,,,,,,,,,,,,,,,,,,,,
,,,,,,,,,,stimuli/images/PICTURE_677.png,MILE,5f29c35127bcc61497b0b1ac,10/31/1950,2020-09-10_08h49.24.183,proactive3.1,2020.1.2,Win32,60,5f599a131af4471f3d752b7b,5f5a2eb66f1f7109006b1546,3,,,,,,map,,,,,,0,18,18,30,1,4,0,,,,,,,,,,,,,,,,,,,,,,,,,,,,,,,,,,,,,,,,,,,,,,,,,,,,,,,,,,,,,,,,,,,,,,,,,,,,,,,,,,,,,,,,,,,,,,,,,,,,,,,,,,,,,
,,,,,,,,,,stimuli/images/PICTURE_380.png,PHOTO,5f29c35127bcc61497b0b1ac,10/31/1950,2020-09-10_08h49.24.183,proactive3.1,2020.1.2,Win32,60,5f599a131af4471f3d752b7b,5f5a2eb66f1f7109006b1546,3,,,,,,gorilla,,,,,,0,19,19,52,1,6,0,,,,,,,,,,,,,,,,,,,,,,,,,,,,,,,,,,,,,,,,,,,,,,,,,,,,,,,,,,,,,,,,,,,,,,,,,,,,,,,,,,,,,,,,,,,,,,,,,,,,,,,,,,,,,
,,,,,,,,,,stimuli/images/PICTURE_667.png,PLENTY,5f29c35127bcc61497b0b1ac,10/31/1950,2020-09-10_08h49.24.183,proactive3.1,2020.1.2,Win32,60,5f599a131af4471f3d752b7b,5f5a2eb66f1f7109006b1546,3,,,,,,daisy,,,,,,0,20,20,41,1,5,0,,,,,,,,,,,,,,,,,,,,,,,,,,,,,,,,,,,,,,,,,,,,,,,,,,,,,,,,,,,,,,,,,,,,,,,,,,,,,,,,,,,,,,,,,,,,,,,,,,,,,,,,,,,,,
,,,,,,,,,,stimuli/images/PICTURE_208.png,MONTH,5f29c35127bcc61497b0b1ac,10/31/1950,2020-09-10_08h49.24.183,proactive3.1,2020.1.2,Win32,60,5f599a131af4471f3d752b7b,5f5a2eb66f1f7109006b1546,3,,,,,,microphone,,,,,,0,21,21,53,1,6,0,,,,,,,,,,,,,,,,,,,,,,,,,,,,,,,,,,,,,,,,,,,,,,,,,,,,,,,,,,,,,,,,,,,,,,,,,,,,,,,,,,,,,,,,,,,,,,,,,,,,,,,,,,,,,
,,,,,,,,,,stimuli/images/PICTURE_708.png,PENNY,5f29c35127bcc61497b0b1ac,10/31/1950,2020-09-10_08h49.24.183,proactive3.1,2020.1.2,Win32,60,5f599a131af4471f3d752b7b,5f5a2eb66f1f7109006b1546,3,,,,,,monkey,,,,,,0,22,22,31,1,4,0,,,,,,,,,,,,,,,,,,,,,,,,,,,,,,,,,,,,,,,,,,,,,,,,,,,,,,,,,,,,,,,,,,,,,,,,,,,,,,,,,,,,,,,,,,,,,,,,,,,,,,,,,,,,,
,,,,,,,,,,stimuli/images/PICTURE_667.png,BATH,5f29c35127bcc61497b0b1ac,10/31/1950,2020-09-10_08h49.24.183,proactive3.1,2020.1.2,Win32,60,5f599a131af4471f3d752b7b,5f5a2eb66f1f7109006b1546,3,,,,,,daisy,,,,,,0,23,23,4,1,1,0,,,,,,,,,,,,,,,,,,,,,,,,,,,,,,,,,,,,,,,,,,,,,,,,,,,,,,,,,,,,,,,,,,,,,,,,,,,,,,,,,,,,,,,,,,,,,,,,,,,,,,,,,,,,,
,,,,,,,,,,stimuli/images/PICTURE_688.png,CASINO,5f29c35127bcc61497b0b1ac,10/31/1950,2020-09-10_08h49.24.183,proactive3.1,2020.1.2,Win32,60,5f599a131af4471f3d752b7b,5f5a2eb66f1f7109006b1546,3,,,,,,runner,,,,,,0,24,24,2,1,1,0,,,,,,,,,,,,,,,,,,,,,,,,,,,,,,,,,,,,,,,,,,,,,,,,,,,,,,,,,,,,,,,,,,,,,,,,,,,,,,,,,,,,,,,,,,,,,,,,,,,,,,,,,,,,,
,,,,,,,,,,stimuli/images/PICTURE_308.png,ESTATE,5f29c35127bcc61497b0b1ac,10/31/1950,2020-09-10_08h49.24.183,proactive3.1,2020.1.2,Win32,60,5f599a131af4471f3d752b7b,5f5a2eb66f1f7109006b1546,3,,,,,,dice,,,,,,0,25,25,46,1,5,0,,,,,,,,,,,,,,,,,,,,,,,,,,,,,,,,,,,,,,,,,,,,,,,,,,,,,,,,,,,,,,,,,,,,,,,,,,,,,,,,,,,,,,,,,,,,,,,,,,,,,,,,,,,,,
,,,,,,,,,,stimuli/images/PICTURE_32.png,JUNGLE,5f29c35127bcc61497b0b1ac,10/31/1950,2020-09-10_08h49.24.183,proactive3.1,2020.1.2,Win32,60,5f599a131af4471f3d752b7b,5f5a2eb66f1f7109006b1546,3,,,,,,crown,,,,,,0,26,26,45,1,5,0,,,,,,,,,,,,,,,,,,,,,,,,,,,,,,,,,,,,,,,,,,,,,,,,,,,,,,,,,,,,,,,,,,,,,,,,,,,,,,,,,,,,,,,,,,,,,,,,,,,,,,,,,,,,,
,,,,,,,,,,stimuli/images/PICTURE_95.png,STYLE,5f29c35127bcc61497b0b1ac,10/31/1950,2020-09-10_08h49.24.183,proactive3.1,2020.1.2,Win32,60,5f599a131af4471f3d752b7b,5f5a2eb66f1f7109006b1546,3,,,,,,suitcase,,,,,,0,27,27,25,1,3,0,,,,,,,,,,,,,,,,,,,,,,,,,,,,,,,,,,,,,,,,,,,,,,,,,,,,,,,,,,,,,,,,,,,,,,,,,,,,,,,,,,,,,,,,,,,,,,,,,,,,,,,,,,,,,
,,,,,,,,,,stimuli/images/PICTURE_302.png,FAMILY,5f29c35127bcc61497b0b1ac,10/31/1950,2020-09-10_08h49.24.183,proactive3.1,2020.1.2,Win32,60,5f599a131af4471f3d752b7b,5f5a2eb66f1f7109006b1546,3,,,,,,taxi,,,,,,0,28,28,18,1,2,0,,,,,,,,,,,,,,,,,,,,,,,,,,,,,,,,,,,,,,,,,,,,,,,,,,,,,,,,,,,,,,,,,,,,,,,,,,,,,,,,,,,,,,,,,,,,,,,,,,,,,,,,,,,,,
,,,,,,,,,,stimuli/images/PICTURE_688.png,WOMEN,5f29c35127bcc61497b0b1ac,10/31/1950,2020-09-10_08h49.24.183,proactive3.1,2020.1.2,Win32,60,5f599a131af4471f3d752b7b,5f5a2eb66f1f7109006b1546,3,,,,,,runner,,,,,,0,29,29,14,1,2,0,,,,,,,,,,,,,,,,,,,,,,,,,,,,,,,,,,,,,,,,,,,,,,,,,,,,,,,,,,,,,,,,,,,,,,,,,,,,,,,,,,,,,,,,,,,,,,,,,,,,,,,,,,,,,
,,,,,,,,,,stimuli/images/PICTURE_233.png,IDEAS,5f29c35127bcc61497b0b1ac,10/31/1950,2020-09-10_08h49.24.183,proactive3.1,2020.1.2,Win32,60,5f599a131af4471f3d752b7b,5f5a2eb66f1f7109006b1546,3,,,,,,salt,,,,,,0,30,30,28,1,3,0,,,,,,,,,,,,,,,,,,,,,,,,,,,,,,,,,,,,,,,,,,,,,,,,,,,,,,,,,,,,,,,,,,,,,,,,,,,,,,,,,,,,,,,,,,,,,,,,,,,,,,,,,,,,,
,,,,,,,,,,stimuli/images/PICTURE_491.png,WRITER,5f29c35127bcc61497b0b1ac,10/31/1950,2020-09-10_08h49.24.183,proactive3.1,2020.1.2,Win32,60,5f599a131af4471f3d752b7b,5f5a2eb66f1f7109006b1546,3,,,,,,rug,,,,,,0,31,31,57,1,6,0,,,,,,,,,,,,,,,,,,,,,,,,,,,,,,,,,,,,,,,,,,,,,,,,,,,,,,,,,,,,,,,,,,,,,,,,,,,,,,,,,,,,,,,,,,,,,,,,,,,,,,,,,,,,,
,,,,,,,,,,stimuli/images/PICTURE_449.png,THING,5f29c35127bcc61497b0b1ac,10/31/1950,2020-09-10_08h49.24.183,proactive3.1,2020.1.2,Win32,60,5f599a131af4471f3d752b7b,5f5a2eb66f1f7109006b1546,3,,,,,,bench,,,,,,0,32,32,59,1,6,0,,,,,,,,,,,,,,,,,,,,,,,,,,,,,,,,,,,,,,,,,,,,,,,,,,,,,,,,,,,,,,,,,,,,,,,,,,,,,,,,,,,,,,,,,,,,,,,,,,,,,,,,,,,,,
,,,,,,,,,,stimuli/images/PICTURE_470.png,CASINO,5f29c35127bcc61497b0b1ac,10/31/1950,2020-09-10_08h49.24.183,proactive3.1,2020.1.2,Win32,60,5f599a131af4471f3d752b7b,5f5a2eb66f1f7109006b1546,3,,,,,,motorbike,,,,,,0,33,33,36,1,4,0,,,,,,,,,,,,,,,,,,,,,,,,,,,,,,,,,,,,,,,,,,,,,,,,,,,,,,,,,,,,,,,,,,,,,,,,,,,,,,,,,,,,,,,,,,,,,,,,,,,,,,,,,,,,,
,,,,,,,,,,stimuli/images/PICTURE_491.png,ROOF,5f29c35127bcc61497b0b1ac,10/31/1950,2020-09-10_08h49.24.183,proactive3.1,2020.1.2,Win32,60,5f599a131af4471f3d752b7b,5f5a2eb66f1f7109006b1546,3,,,,,,rug,,,,,,0,34,34,24,1,3,0,,,,,,,,,,,,,,,,,,,,,,,,,,,,,,,,,,,,,,,,,,,,,,,,,,,,,,,,,,,,,,,,,,,,,,,,,,,,,,,,,,,,,,,,,,,,,,,,,,,,,,,,,,,,,
,,,,,,,,,,stimuli/images/PICTURE_504.png,BODY,5f29c35127bcc61497b0b1ac,10/31/1950,2020-09-10_08h49.24.183,proactive3.1,2020.1.2,Win32,60,5f599a131af4471f3d752b7b,5f5a2eb66f1f7109006b1546,3,,,,,,wheel,,,,,,0,35,35,8,1,1,0,,,,,,,,,,,,,,,,,,,,,,,,,,,,,,,,,,,,,,,,,,,,,,,,,,,,,,,,,,,,,,,,,,,,,,,,,,,,,,,,,,,,,,,,,,,,,,,,,,,,,,,,,,,,,
,,,,,,,,,,stimuli/images/PICTURE_308.png,KIND,5f29c35127bcc61497b0b1ac,10/31/1950,2020-09-10_08h49.24.183,proactive3.1,2020.1.2,Win32,60,5f599a131af4471f3d752b7b,5f5a2eb66f1f7109006b1546,3,,,,,,dice,,,,,,0,36,36,54,1,6,0,,,,,,,,,,,,,,,,,,,,,,,,,,,,,,,,,,,,,,,,,,,,,,,,,,,,,,,,,,,,,,,,,,,,,,,,,,,,,,,,,,,,,,,,,,,,,,,,,,,,,,,,,,,,,
,,,,,,,,,,stimuli/images/PICTURE_744.png,SAKE,5f29c35127bcc61497b0b1ac,10/31/1950,2020-09-10_08h49.24.183,proactive3.1,2020.1.2,Win32,60,5f599a131af4471f3d752b7b,5f5a2eb66f1f7109006b1546,3,,,,,,ring,,,,,,0,37,37,17,1,2,0,,,,,,,,,,,,,,,,,,,,,,,,,,,,,,,,,,,,,,,,,,,,,,,,,,,,,,,,,,,,,,,,,,,,,,,,,,,,,,,,,,,,,,,,,,,,,,,,,,,,,,,,,,,,,
,,,,,,,,,,stimuli/images/PICTURE_675.png,WEAPON,5f29c35127bcc61497b0b1ac,10/31/1950,2020-09-10_08h49.24.183,proactive3.1,2020.1.2,Win32,60,5f599a131af4471f3d752b7b,5f5a2eb66f1f7109006b1546,3,,,,,,windmill,,,,,,0,38,38,32,1,4,0,,,,,,,,,,,,,,,,,,,,,,,,,,,,,,,,,,,,,,,,,,,,,,,,,,,,,,,,,,,,,,,,,,,,,,,,,,,,,,,,,,,,,,,,,,,,,,,,,,,,,,,,,,,,,
,,,,,,,,,,stimuli/images/PICTURE_380.png,DEATH,5f29c35127bcc61497b0b1ac,10/31/1950,2020-09-10_08h49.24.183,proactive3.1,2020.1.2,Win32,60,5f599a131af4471f3d752b7b,5f5a2eb66f1f7109006b1546,3,,,,,,gorilla,,,,,,0,39,39,49,1,5,0,,,,,,,,,,,,,,,,,,,,,,,,,,,,,,,,,,,,,,,,,,,,,,,,,,,,,,,,,,,,,,,,,,,,,,,,,,,,,,,,,,,,,,,,,,,,,,,,,,,,,,,,,,,,,
,,,,,,,,,,stimuli/images/PICTURE_255.png,AREA,5f29c35127bcc61497b0b1ac,10/31/1950,2020-09-10_08h49.24.183,proactive3.1,2020.1.2,Win32,60,5f599a131af4471f3d752b7b,5f5a2eb66f1f7109006b1546,3,,,,,,shovel,,,,,,0,40,40,22,1,3,0,,,,,,,,,,,,,,,,,,,,,,,,,,,,,,,,,,,,,,,,,,,,,,,,,,,,,,,,,,,,,,,,,,,,,,,,,,,,,,,,,,,,,,,,,,,,,,,,,,,,,,,,,,,,,
,,,,,,,,,,stimuli/images/PICTURE_68.png,MILE,5f29c35127bcc61497b0b1ac,10/31/1950,2020-09-10_08h49.24.183,proactive3.1,2020.1.2,Win32,60,5f599a131af4471f3d752b7b,5f5a2eb66f1f7109006b1546,3,,,,,,candle,,,,,,0,41,41,44,1,5,0,,,,,,,,,,,,,,,,,,,,,,,,,,,,,,,,,,,,,,,,,,,,,,,,,,,,,,,,,,,,,,,,,,,,,,,,,,,,,,,,,,,,,,,,,,,,,,,,,,,,,,,,,,,,,
,,,,,,,,,,stimuli/images/PICTURE_692.png,MONTH,5f29c35127bcc61497b0b1ac,10/31/1950,2020-09-10_08h49.24.183,proactive3.1,2020.1.2,Win32,60,5f599a131af4471f3d752b7b,5f5a2eb66f1f7109006b1546,3,,,,,,cherry,,,,,,0,42,42,16,1,2,0,,,,,,,,,,,,,,,,,,,,,,,,,,,,,,,,,,,,,,,,,,,,,,,,,,,,,,,,,,,,,,,,,,,,,,,,,,,,,,,,,,,,,,,,,,,,,,,,,,,,,,,,,,,,,
,,,,,,,,,,stimuli/images/PICTURE_311.png,FRIEND,5f29c35127bcc61497b0b1ac,10/31/1950,2020-09-10_08h49.24.183,proactive3.1,2020.1.2,Win32,60,5f599a131af4471f3d752b7b,5f5a2eb66f1f7109006b1546,3,,,,,,razor,,,,,,0,43,43,34,1,4,0,,,,,,,,,,,,,,,,,,,,,,,,,,,,,,,,,,,,,,,,,,,,,,,,,,,,,,,,,,,,,,,,,,,,,,,,,,,,,,,,,,,,,,,,,,,,,,,,,,,,,,,,,,,,,
,,,,,,,,,,stimuli/images/PICTURE_453.png,DUDE,5f29c35127bcc61497b0b1ac,10/31/1950,2020-09-10_08h49.24.183,proactive3.1,2020.1.2,Win32,60,5f599a131af4471f3d752b7b,5f5a2eb66f1f7109006b1546,3,,,,,,scissors,,,,,,0,44,44,27,1,3,0,,,,,,,,,,,,,,,,,,,,,,,,,,,,,,,,,,,,,,,,,,,,,,,,,,,,,,,,,,,,,,,,,,,,,,,,,,,,,,,,,,,,,,,,,,,,,,,,,,,,,,,,,,,,,
,,,,,,,,,,stimuli/images/PICTURE_314.png,GODS,5f29c35127bcc61497b0b1ac,10/31/1950,2020-09-10_08h49.24.183,proactive3.1,2020.1.2,Win32,60,5f599a131af4471f3d752b7b,5f5a2eb66f1f7109006b1546,3,,,,,,perfume,,,,,,0,45,45,11,1,2,0,,,,,,,,,,,,,,,,,,,,,,,,,,,,,,,,,,,,,,,,,,,,,,,,,,,,,,,,,,,,,,,,,,,,,,,,,,,,,,,,,,,,,,,,,,,,,,,,,,,,,,,,,,,,,
,,,,,,,,,,stimuli/images/PICTURE_311.png,BEAUTY,5f29c35127bcc61497b0b1ac,10/31/1950,2020-09-10_08h49.24.183,proactive3.1,2020.1.2,Win32,60,5f599a131af4471f3d752b7b,5f5a2eb66f1f7109006b1546,3,,,,,,razor,,,,,,0,46,46,13,1,2,0,,,,,,,,,,,,,,,,,,,,,,,,,,,,,,,,,,,,,,,,,,,,,,,,,,,,,,,,,,,,,,,,,,,,,,,,,,,,,,,,,,,,,,,,,,,,,,,,,,,,,,,,,,,,,
,,,,,,,,,,stimuli/images/PICTURE_509.png,PHOTO,5f29c35127bcc61497b0b1ac,10/31/1950,2020-09-10_08h49.24.183,proactive3.1,2020.1.2,Win32,60,5f599a131af4471f3d752b7b,5f5a2eb66f1f7109006b1546,3,,,,,,telephone,,,,,,0,47,47,21,1,3,0,,,,,,,,,,,,,,,,,,,,,,,,,,,,,,,,,,,,,,,,,,,,,,,,,,,,,,,,,,,,,,,,,,,,,,,,,,,,,,,,,,,,,,,,,,,,,,,,,,,,,,,,,,,,,
,,,,,,,,,,stimuli/images/PICTURE_208.png,LOTS,5f29c35127bcc61497b0b1ac,10/31/1950,2020-09-10_08h49.24.183,proactive3.1,2020.1.2,Win32,60,5f599a131af4471f3d752b7b,5f5a2eb66f1f7109006b1546,3,,,,,,microphone,,,,,,0,48,48,10,1,2,0,,,,,,,,,,,,,,,,,,,,,,,,,,,,,,,,,,,,,,,,,,,,,,,,,,,,,,,,,,,,,,,,,,,,,,,,,,,,,,,,,,,,,,,,,,,,,,,,,,,,,,,,,,,,,
,,,,,,,,,,stimuli/images/PICTURE_348.png,SPEECH,5f29c35127bcc61497b0b1ac,10/31/1950,2020-09-10_08h49.24.183,proactive3.1,2020.1.2,Win32,60,5f599a131af4471f3d752b7b,5f5a2eb66f1f7109006b1546,3,,,,,,pepper,,,,,,0,49,49,20,1,3,0,,,,,,,,,,,,,,,,,,,,,,,,,,,,,,,,,,,,,,,,,,,,,,,,,,,,,,,,,,,,,,,,,,,,,,,,,,,,,,,,,,,,,,,,,,,,,,,,,,,,,,,,,,,,,
,,,,,,,,,,stimuli/images/PICTURE_215.png,PLENTY,5f29c35127bcc61497b0b1ac,10/31/1950,2020-09-10_08h49.24.183,proactive3.1,2020.1.2,Win32,60,5f599a131af4471f3d752b7b,5f5a2eb66f1f7109006b1546,3,,,,,,boot,,,,,,0,50,50,37,1,4,0,,,,,,,,,,,,,,,,,,,,,,,,,,,,,,,,,,,,,,,,,,,,,,,,,,,,,,,,,,,,,,,,,,,,,,,,,,,,,,,,,,,,,,,,,,,,,,,,,,,,,,,,,,,,,
,,,,,,,,,,stimuli/images/PICTURE_469.png,LETTER,5f29c35127bcc61497b0b1ac,10/31/1950,2020-09-10_08h49.24.183,proactive3.1,2020.1.2,Win32,60,5f599a131af4471f3d752b7b,5f5a2eb66f1f7109006b1546,3,,,,,,stool,,,,,,0,51,51,42,1,5,0,,,,,,,,,,,,,,,,,,,,,,,,,,,,,,,,,,,,,,,,,,,,,,,,,,,,,,,,,,,,,,,,,,,,,,,,,,,,,,,,,,,,,,,,,,,,,,,,,,,,,,,,,,,,,
,,,,,,,,,,stimuli/images/PICTURE_233.png,WOMEN,5f29c35127bcc61497b0b1ac,10/31/1950,2020-09-10_08h49.24.183,proactive3.1,2020.1.2,Win32,60,5f599a131af4471f3d752b7b,5f5a2eb66f1f7109006b1546,3,,,,,,salt,,,,,,0,52,52,38,1,4,0,,,,,,,,,,,,,,,,,,,,,,,,,,,,,,,,,,,,,,,,,,,,,,,,,,,,,,,,,,,,,,,,,,,,,,,,,,,,,,,,,,,,,,,,,,,,,,,,,,,,,,,,,,,,,
,,,,,,,,,,stimuli/images/PICTURE_151.png,GIRL,5f29c35127bcc61497b0b1ac,10/31/1950,2020-09-10_08h49.24.183,proactive3.1,2020.1.2,Win32,60,5f599a131af4471f3d752b7b,5f5a2eb66f1f7109006b1546,3,,,,,,tray,,,,,,0,53,53,19,1,2,0,,,,,,,,,,,,,,,,,,,,,,,,,,,,,,,,,,,,,,,,,,,,,,,,,,,,,,,,,,,,,,,,,,,,,,,,,,,,,,,,,,,,,,,,,,,,,,,,,,,,,,,,,,,,,
,,,,,,,,,,stimuli/images/PICTURE_147.png,MOMENT,5f29c35127bcc61497b0b1ac,10/31/1950,2020-09-10_08h49.24.183,proactive3.1,2020.1.2,Win32,60,5f599a131af4471f3d752b7b,5f5a2eb66f1f7109006b1546,3,,,,,,hanger,,,,,,0,54,54,51,1,6,0,,,,,,,,,,,,,,,,,,,,,,,,,,,,,,,,,,,,,,,,,,,,,,,,,,,,,,,,,,,,,,,,,,,,,,,,,,,,,,,,,,,,,,,,,,,,,,,,,,,,,,,,,,,,,
,,,,,,,,,,stimuli/images/PICTURE_314.png,SAKE,5f29c35127bcc61497b0b1ac,10/31/1950,2020-09-10_08h49.24.183,proactive3.1,2020.1.2,Win32,60,5f599a131af4471f3d752b7b,5f5a2eb66f1f7109006b1546,3,,,,,,perfume,,,,,,0,55,55,7,1,1,0,,,,,,,,,,,,,,,,,,,,,,,,,,,,,,,,,,,,,,,,,,,,,,,,,,,,,,,,,,,,,,,,,,,,,,,,,,,,,,,,,,,,,,,,,,,,,,,,,,,,,,,,,,,,,
,,,,,,,,,,stimuli/images/PICTURE_285.png,ADVICE,5f29c35127bcc61497b0b1ac,10/31/1950,2020-09-10_08h49.24.183,proactive3.1,2020.1.2,Win32,60,5f599a131af4471f3d752b7b,5f5a2eb66f1f7109006b1546,3,,,,,,carrot,,,,,,0,56,56,12,1,2,0,,,,,,,,,,,,,,,,,,,,,,,,,,,,,,,,,,,,,,,,,,,,,,,,,,,,,,,,,,,,,,,,,,,,,,,,,,,,,,,,,,,,,,,,,,,,,,,,,,,,,,,,,,,,,
,,,,,,,,,,stimuli/images/PICTURE_487.png,FLIGHT,5f29c35127bcc61497b0b1ac,10/31/1950,2020-09-10_08h49.24.183,proactive3.1,2020.1.2,Win32,60,5f599a131af4471f3d752b7b,5f5a2eb66f1f7109006b1546,3,,,,,,basket,,,,,,0,57,57,9,1,1,0,,,,,,,,,,,,,,,,,,,,,,,,,,,,,,,,,,,,,,,,,,,,,,,,,,,,,,,,,,,,,,,,,,,,,,,,,,,,,,,,,,,,,,,,,,,,,,,,,,,,,,,,,,,,,
,,,,,,,,,,stimuli/images/PICTURE_744.png,SYSTEM,5f29c35127bcc61497b0b1ac,10/31/1950,2020-09-10_08h49.24.183,proactive3.1,2020.1.2,Win32,60,5f599a131af4471f3d752b7b,5f5a2eb66f1f7109006b1546,3,,,,,,ring,,,,,,0,58,58,43,1,5,0,,,,,,,,,,,,,,,,,,,,,,,,,,,,,,,,,,,,,,,,,,,,,,,,,,,,,,,,,,,,,,,,,,,,,,,,,,,,,,,,,,,,,,,,,,,,,,,,,,,,,,,,,,,,,
,,?,0.0017,0,,,,,,stimuli/images/PICTURE_208.png,THING,5f29c35127bcc61497b0b1ac,10/31/1950,2020-09-10_08h49.24.183,proactive3.1,2020.1.2,Win32,60,5f599a131af4471f3d752b7b,5f5a2eb66f1f7109006b1546,3,,,,,,microphone,,,,,,,,,,,5,0,0,0,0,47,1,,,,,,,,,,,,,,,,,,,,,,,,,,,,,,,,,,,,,,,,,,,,,,,,,,,,,,,,,,,,,,,,,,,,,,,,,,,,,,,,,,,,,,,,,,,,,,,,,,,,,,,,
,,?,0.00122,0,,,,,,stimuli/images/PICTURE_311.png,BEAUTY,5f29c35127bcc61497b0b1ac,10/31/1950,2020-09-10_08h49.24.183,proactive3.1,2020.1.2,Win32,60,5f599a131af4471f3d752b7b,5f5a2eb66f1f7109006b1546,3,,,,,,razor,,,,,,,,,,,2,0,0,1,1,13,1,,,,,,,,,,,,,,,,,,,,,,,,,,,,,,,,,,,,,,,,,,,,,,,,,,,,,,,,,,,,,,,,,,,,,,,,,,,,,,,,,,,,,,,,,,,,,,,,,,,,,,,,
,,?,0.00132,0,,,,,,stimuli/images/PICTURE_160.png,FEET,5f29c35127bcc61497b0b1ac,10/31/1950,2020-09-10_08h49.24.183,proactive3.1,2020.1.2,Win32,60,5f599a131af4471f3d752b7b,5f5a2eb66f1f7109006b1546,3,,,,,,wheelbarrow,,,,,,,,,,,6,0,0,2,2,58,1,,,,,,,,,,,,,,,,,,,,,,,,,,,,,,,,,,,,,,,,,,,,,,,,,,,,,,,,,,,,,,,,,,,,,,,,,,,,,,,,,,,,,,,,,,,,,,,,,,,,,,,,
,,?,0.001225,0,,,,,,stimuli/images/PICTURE_311.png,FRIEND,5f29c35127bcc61497b0b1ac,10/31/1950,2020-09-10_08h49.24.183,proactive3.1,2020.1.2,Win32,60,5f599a131af4471f3d752b7b,5f5a2eb66f1f7109006b1546,3,,,,,,razor,,,,,,,,,,,4,0,0,3,3,34,1,,,,,,,,,,,,,,,,,,,,,,,,,,,,,,,,,,,,,,,,,,,,,,,,,,,,,,,,,,,,,,,,,,,,,,,,,,,,,,,,,,,,,,,,,,,,,,,,,,,,,,,,
,,?,0.0012,0,,,,,,stimuli/images/PICTURE_327.png,BEAUTY,5f29c35127bcc61497b0b1ac,10/31/1950,2020-09-10_08h49.24.183,proactive3.1,2020.1.2,Win32,60,5f599a131af4471f3d752b7b,5f5a2eb66f1f7109006b1546,3,,,,,,helmet,,,,,,,,,,,5,0,0,4,4,48,1,,,,,,,,,,,,,,,,,,,,,,,,,,,,,,,,,,,,,,,,,,,,,,,,,,,,,,,,,,,,,,,,,,,,,,,,,,,,,,,,,,,,,,,,,,,,,,,,,,,,,,,,
,,?,0.00118,0,,,,,,stimuli/images/PICTURE_692.png,MONTH,5f29c35127bcc61497b0b1ac,10/31/1950,2020-09-10_08h49.24.183,proactive3.1,2020.1.2,Win32,60,5f599a131af4471f3d752b7b,5f5a2eb66f1f7109006b1546,3,,,,,,cherry,,,,,,,,,,,2,0,0,5,5,16,1,,,,,,,,,,,,,,,,,,,,,,,,,,,,,,,,,,,,,,,,,,,,,,,,,,,,,,,,,,,,,,,,,,,,,,,,,,,,,,,,,,,,,,,,,,,,,,,,,,,,,,,,
,,?,0.00121,0,,,,,,stimuli/images/PICTURE_677.png,MILE,5f29c35127bcc61497b0b1ac,10/31/1950,2020-09-10_08h49.24.183,proactive3.1,2020.1.2,Win32,60,5f599a131af4471f3d752b7b,5f5a2eb66f1f7109006b1546,3,,,,,,map,,,,,,,,,,,4,0,0,6,6,30,1,,,,,,,,,,,,,,,,,,,,,,,,,,,,,,,,,,,,,,,,,,,,,,,,,,,,,,,,,,,,,,,,,,,,,,,,,,,,,,,,,,,,,,,,,,,,,,,,,,,,,,,,
,,?,0.001175,0,,,,,,stimuli/images/PICTURE_708.png,CLIENT,5f29c35127bcc61497b0b1ac,10/31/1950,2020-09-10_08h49.24.183,proactive3.1,2020.1.2,Win32,60,5f599a131af4471f3d752b7b,5f5a2eb66f1f7109006b1546,3,,,,,,monkey,,,,,,,,,,,1,0,0,7,7,5,1,,,,,,,,,,,,,,,,,,,,,,,,,,,,,,,,,,,,,,,,,,,,,,,,,,,,,,,,,,,,,,,,,,,,,,,,,,,,,,,,,,,,,,,,,,,,,,,,,,,,,,,,
,,?,0.00066,0,,,,,,stimuli/images/PICTURE_491.png,WRITER,5f29c35127bcc61497b0b1ac,10/31/1950,2020-09-10_08h49.24.183,proactive3.1,2020.1.2,Win32,60,5f599a131af4471f3d752b7b,5f5a2eb66f1f7109006b1546,3,,,,,,rug,,,,,,,,,,,6,0,0,8,8,57,1,,,,,,,,,,,,,,,,,,,,,,,,,,,,,,,,,,,,,,,,,,,,,,,,,,,,,,,,,,,,,,,,,,,,,,,,,,,,,,,,,,,,,,,,,,,,,,,,,,,,,,,,
,,DEMON,6.62473,1,,,,,,stimuli/images/PICTURE_467.png,DEMON,5f29c35127bcc61497b0b1ac,10/31/1950,2020-09-10_08h49.24.183,proactive3.1,2020.1.2,Win32,60,5f599a131af4471f3d752b7b,5f5a2eb66f1f7109006b1546,3,,,,,,peg,,,,,,,,,,,3,0,0,9,9,23,1,,,,,,,,,,,,,,,,,,,,,,,,,,,,,,,,,,,,,,,,,,,,,,,,,,,,,,,,,,,,,,,,,,,,,,,,,,,,,,,,,,,,,,,,,,,,,,,,,,,,,,,,
,,?,0.00141,0,,,,,,stimuli/images/PICTURE_302.png,FAMILY,5f29c35127bcc61497b0b1ac,10/31/1950,2020-09-10_08h49.24.183,proactive3.1,2020.1.2,Win32,60,5f599a131af4471f3d752b7b,5f5a2eb66f1f7109006b1546,3,,,,,,taxi,,,,,,,,,,,2,0,0,10,10,18,1,,,,,,,,,,,,,,,,,,,,,,,,,,,,,,,,,,,,,,,,,,,,,,,,,,,,,,,,,,,,,,,,,,,,,,,,,,,,,,,,,,,,,,,,,,,,,,,,,,,,,,,,
,,?,0.001185,0,,,,,,stimuli/images/PICTURE_308.png,ESTATE,5f29c35127bcc61497b0b1ac,10/31/1950,2020-09-10_08h49.24.183,proactive3.1,2020.1.2,Win32,60,5f599a131af4471f3d752b7b,5f5a2eb66f1f7109006b1546,3,,,,,,dice,,,,,,,,,,,5,0,0,11,11,46,1,,,,,,,,,,,,,,,,,,,,,,,,,,,,,,,,,,,,,,,,,,,,,,,,,,,,,,,,,,,,,,,,,,,,,,,,,,,,,,,,,,,,,,,,,,,,,,,,,,,,,,,,
,,?,0.00132,0,,,,,,stimuli/images/PICTURE_147.png,MOMENT,5f29c35127bcc61497b0b1ac,10/31/1950,2020-09-10_08h49.24.183,proactive3.1,2020.1.2,Win32,60,5f599a131af4471f3d752b7b,5f5a2eb66f1f7109006b1546,3,,,,,,hanger,,,,,,,,,,,6,0,0,12,12,51,1,,,,,,,,,,,,,,,,,,,,,,,,,,,,,,,,,,,,,,,,,,,,,,,,,,,,,,,,,,,,,,,,,,,,,,,,,,,,,,,,,,,,,,,,,,,,,,,,,,,,,,,,
,,?,0.001375,0,,,,,,stimuli/images/PICTURE_339.png,PLENTY,5f29c35127bcc61497b0b1ac,10/31/1950,2020-09-10_08h49.24.183,proactive3.1,2020.1.2,Win32,60,5f599a131af4471f3d752b7b,5f5a2eb66f1f7109006b1546,3,,,,,,backpack,,,,,,,,,,,1,0,0,13,13,0,1,,,,,,,,,,,,,,,,,,,,,,,,,,,,,,,,,,,,,,,,,,,,,,,,,,,,,,,,,,,,,,,,,,,,,,,,,,,,,,,,,,,,,,,,,,,,,,,,,,,,,,,,
,,?,0.00154,0,,,,,,stimuli/images/PICTURE_215.png,PLENTY,5f29c35127bcc61497b0b1ac,10/31/1950,2020-09-10_08h49.24.183,proactive3.1,2020.1.2,Win32,60,5f599a131af4471f3d752b7b,5f5a2eb66f1f7109006b1546,3,,,,,,boot,,,,,,,,,,,4,0,0,14,14,37,1,,,,,,,,,,,,,,,,,,,,,,,,,,,,,,,,,,,,,,,,,,,,,,,,,,,,,,,,,,,,,,,,,,,,,,,,,,,,,,,,,,,,,,,,,,,,,,,,,,,,,,,,
,,?,0.00122,0,,,,,,stimuli/images/PICTURE_449.png,THING,5f29c35127bcc61497b0b1ac,10/31/1950,2020-09-10_08h49.24.183,proactive3.1,2020.1.2,Win32,60,5f599a131af4471f3d752b7b,5f5a2eb66f1f7109006b1546,3,,,,,,bench,,,,,,,,,,,6,0,0,15,15,59,1,,,,,,,,,,,,,,,,,,,,,,,,,,,,,,,,,,,,,,,,,,,,,,,,,,,,,,,,,,,,,,,,,,,,,,,,,,,,,,,,,,,,,,,,,,,,,,,,,,,,,,,,
,,YARD,6.912235,1,,,,,,stimuli/images/PICTURE_708.png,YARD,5f29c35127bcc61497b0b1ac,10/31/1950,2020-09-10_08h49.24.183,proactive3.1,2020.1.2,Win32,60,5f599a131af4471f3d752b7b,5f5a2eb66f1f7109006b1546,3,,,,,,monkey,,,,,,,,,,,3,0,0,16,16,29,1,,,,,,,,,,,,,,,,,,,,,,,,,,,,,,,,,,,,,,,,,,,,,,,,,,,,,,,,,,,,,,,,,,,,,,,,,,,,,,,,,,,,,,,,,,,,,,,,,,,,,,,,
,,?,0.00141,0,,,,,,stimuli/images/PICTURE_675.png,WEAPON,5f29c35127bcc61497b0b1ac,10/31/1950,2020-09-10_08h49.24.183,proactive3.1,2020.1.2,Win32,60,5f599a131af4471f3d752b7b,5f5a2eb66f1f7109006b1546,3,,,,,,windmill,,,,,,,,,,,4,0,0,17,17,32,1,,,,,,,,,,,,,,,,,,,,,,,,,,,,,,,,,,,,,,,,,,,,,,,,,,,,,,,,,,,,,,,,,,,,,,,,,,,,,,,,,,,,,,,,,,,,,,,,,,,,,,,,
,,STYLE,5.38007,0,,,,,,stimuli/images/PICTURE_203.png,ARTIST,5f29c35127bcc61497b0b1ac,10/31/1950,2020-09-10_08h49.24.183,proactive3.1,2020.1.2,Win32,60,5f599a131af4471f3d752b7b,5f5a2eb66f1f7109006b1546,3,,,,,,cap,,,,,,,,,,,3,0,0,18,18,26,1,,,,,,,,,,,,,,,,,,,,,,,,,,,,,,,,,,,,,,,,,,,,,,,,,,,,,,,,,,,,,,,,,,,,,,,,,,,,,,,,,,,,,,,,,,,,,,,,,,,,,,,,
,,?,0.00157,0,,,,,,stimuli/images/PICTURE_744.png,SAKE,5f29c35127bcc61497b0b1ac,10/31/1950,2020-09-10_08h49.24.183,proactive3.1,2020.1.2,Win32,60,5f599a131af4471f3d752b7b,5f5a2eb66f1f7109006b1546,3,,,,,,ring,,,,,,,,,,,2,0,0,19,19,17,1,,,,,,,,,,,,,,,,,,,,,,,,,,,,,,,,,,,,,,,,,,,,,,,,,,,,,,,,,,,,,,,,,,,,,,,,,,,,,,,,,,,,,,,,,,,,,,,,,,,,,,,,
,,?,0.00126,0,,,,,,stimuli/images/PICTURE_314.png,SAKE,5f29c35127bcc61497b0b1ac,10/31/1950,2020-09-10_08h49.24.183,proactive3.1,2020.1.2,Win32,60,5f599a131af4471f3d752b7b,5f5a2eb66f1f7109006b1546,3,,,,,,perfume,,,,,,,,,,,1,0,0,20,20,7,1,,,,,,,,,,,,,,,,,,,,,,,,,,,,,,,,,,,,,,,,,,,,,,,,,,,,,,,,,,,,,,,,,,,,,,,,,,,,,,,,,,,,,,,,,,,,,,,,,,,,,,,,
,,DUDE,6.309465,1,,,,,,stimuli/images/PICTURE_453.png,DUDE,5f29c35127bcc61497b0b1ac,10/31/1950,2020-09-10_08h49.24.183,proactive3.1,2020.1.2,Win32,60,5f599a131af4471f3d752b7b,5f5a2eb66f1f7109006b1546,3,,,,,,scissors,,,,,,,,,,,3,0,0,21,21,27,1,,,,,,,,,,,,,,,,,,,,,,,,,,,,,,,,,,,,,,,,,,,,,,,,,,,,,,,,,,,,,,,,,,,,,,,,,,,,,,,,,,,,,,,,,,,,,,,,,,,,,,,,
,,?,0.00156,0,,,,,,stimuli/images/PICTURE_708.png,PENNY,5f29c35127bcc61497b0b1ac,10/31/1950,2020-09-10_08h49.24.183,proactive3.1,2020.1.2,Win32,60,5f599a131af4471f3d752b7b,5f5a2eb66f1f7109006b1546,3,,,,,,monkey,,,,,,,,,,,4,0,0,22,22,31,1,,,,,,,,,,,,,,,,,,,,,,,,,,,,,,,,,,,,,,,,,,,,,,,,,,,,,,,,,,,,,,,,,,,,,,,,,,,,,,,,,,,,,,,,,,,,,,,,,,,,,,,,
,,IDEAS,10.38168,1,,,,,,stimuli/images/PICTURE_233.png,IDEAS,5f29c35127bcc61497b0b1ac,10/31/1950,2020-09-10_08h49.24.183,proactive3.1,2020.1.2,Win32,60,5f599a131af4471f3d752b7b,5f5a2eb66f1f7109006b1546,3,,,,,,salt,,,,,,,,,,,3,0,0,23,23,28,1,,,,,,,,,,,,,,,,,,,,,,,,,,,,,,,,,,,,,,,,,,,,,,,,,,,,,,,,,,,,,,,,,,,,,,,,,,,,,,,,,,,,,,,,,,,,,,,,,,,,,,,,
,,?,0.001405,0,,,,,,stimuli/images/PICTURE_308.png,KIND,5f29c35127bcc61497b0b1ac,10/31/1950,2020-09-10_08h49.24.183,proactive3.1,2020.1.2,Win32,60,5f599a131af4471f3d752b7b,5f5a2eb66f1f7109006b1546,3,,,,,,dice,,,,,,,,,,,6,0,0,24,24,54,1,,,,,,,,,,,,,,,,,,,,,,,,,,,,,,,,,,,,,,,,,,,,,,,,,,,,,,,,,,,,,,,,,,,,,,,,,,,,,,,,,,,,,,,,,,,,,,,,,,,,,,,,
,,STYLE,7.39779,0,,,,,,stimuli/images/PICTURE_491.png,ROOF,5f29c35127bcc61497b0b1ac,10/31/1950,2020-09-10_08h49.24.183,proactive3.1,2020.1.2,Win32,60,5f599a131af4471f3d752b7b,5f5a2eb66f1f7109006b1546,3,,,,,,rug,,,,,,,,,,,3,0,0,25,25,24,1,,,,,,,,,,,,,,,,,,,,,,,,,,,,,,,,,,,,,,,,,,,,,,,,,,,,,,,,,,,,,,,,,,,,,,,,,,,,,,,,,,,,,,,,,,,,,,,,,,,,,,,,
,,?,0.00143,0,,,,,,stimuli/images/PICTURE_314.png,GODS,5f29c35127bcc61497b0b1ac,10/31/1950,2020-09-10_08h49.24.183,proactive3.1,2020.1.2,Win32,60,5f599a131af4471f3d752b7b,5f5a2eb66f1f7109006b1546,3,,,,,,perfume,,,,,,,,,,,2,0,0,26,26,11,1,,,,,,,,,,,,,,,,,,,,,,,,,,,,,,,,,,,,,,,,,,,,,,,,,,,,,,,,,,,,,,,,,,,,,,,,,,,,,,,,,,,,,,,,,,,,,,,,,,,,,,,,
,,?,0.001235,0,,,,,,stimuli/images/PICTURE_248.png,DOZEN,5f29c35127bcc61497b0b1ac,10/31/1950,2020-09-10_08h49.24.183,proactive3.1,2020.1.2,Win32,60,5f599a131af4471f3d752b7b,5f5a2eb66f1f7109006b1546,3,,,,,,cart,,,,,,,,,,,4,0,0,27,27,39,1,,,,,,,,,,,,,,,,,,,,,,,,,,,,,,,,,,,,,,,,,,,,,,,,,,,,,,,,,,,,,,,,,,,,,,,,,,,,,,,,,,,,,,,,,,,,,,,,,,,,,,,,
,,?,0.001205,0,,,,,,stimuli/images/PICTURE_469.png,ARTIST,5f29c35127bcc61497b0b1ac,10/31/1950,2020-09-10_08h49.24.183,proactive3.1,2020.1.2,Win32,60,5f599a131af4471f3d752b7b,5f5a2eb66f1f7109006b1546,3,,,,,,stool,,,,,,,,,,,1,0,0,28,28,6,1,,,,,,,,,,,,,,,,,,,,,,,,,,,,,,,,,,,,,,,,,,,,,,,,,,,,,,,,,,,,,,,,,,,,,,,,,,,,,,,,,,,,,,,,,,,,,,,,,,,,,,,,
,,YARD,5.13958,0,,,,,,stimuli/images/PICTURE_255.png,AREA,5f29c35127bcc61497b0b1ac,10/31/1950,2020-09-10_08h49.24.183,proactive3.1,2020.1.2,Win32,60,5f599a131af4471f3d752b7b,5f5a2eb66f1f7109006b1546,3,,,,,,shovel,,,,,,,,,,,3,0,0,29,29,22,1,,,,,,,,,,,,,,,,,,,,,,,,,,,,,,,,,,,,,,,,,,,,,,,,,,,,,,,,,,,,,,,,,,,,,,,,,,,,,,,,,,,,,,,,,,,,,,,,,,,,,,,,
,,?,0.00145,0,,,,,,stimuli/images/PICTURE_208.png,LOTS,5f29c35127bcc61497b0b1ac,10/31/1950,2020-09-10_08h49.24.183,proactive3.1,2020.1.2,Win32,60,5f599a131af4471f3d752b7b,5f5a2eb66f1f7109006b1546,3,,,,,,microphone,,,,,,,,,,,2,0,0,30,30,10,1,,,,,,,,,,,,,,,,,,,,,,,,,,,,,,,,,,,,,,,,,,,,,,,,,,,,,,,,,,,,,,,,,,,,,,,,,,,,,,,,,,,,,,,,,,,,,,,,,,,,,,,,
,,?,0.001155,0,,,,,,stimuli/images/PICTURE_470.png,CASINO,5f29c35127bcc61497b0b1ac,10/31/1950,2020-09-10_08h49.24.183,proactive3.1,2020.1.2,Win32,60,5f599a131af4471f3d752b7b,5f5a2eb66f1f7109006b1546,3,,,,,,motorbike,,,,,,,,,,,4,0,0,31,31,36,1,,,,,,,,,,,,,,,,,,,,,,,,,,,,,,,,,,,,,,,,,,,,,,,,,,,,,,,,,,,,,,,,,,,,,,,,,,,,,,,,,,,,,,,,,,,,,,,,,,,,,,,,
,,?,0.00119,0,,,,,,stimuli/images/PICTURE_380.png,DEATH,5f29c35127bcc61497b0b1ac,10/31/1950,2020-09-10_08h49.24.183,proactive3.1,2020.1.2,Win32,60,5f599a131af4471f3d752b7b,5f5a2eb66f1f7109006b1546,3,,,,,,gorilla,,,,,,,,,,,5,0,0,32,32,49,1,,,,,,,,,,,,,,,,,,,,,,,,,,,,,,,,,,,,,,,,,,,,,,,,,,,,,,,,,,,,,,,,,,,,,,,,,,,,,,,,,,,,,,,,,,,,,,,,,,,,,,,,
,,?,0.00119,0,,,,,,stimuli/images/PICTURE_469.png,LETTER,5f29c35127bcc61497b0b1ac,10/31/1950,2020-09-10_08h49.24.183,proactive3.1,2020.1.2,Win32,60,5f599a131af4471f3d752b7b,5f5a2eb66f1f7109006b1546,3,,,,,,stool,,,,,,,,,,,5,0,0,33,33,42,1,,,,,,,,,,,,,,,,,,,,,,,,,,,,,,,,,,,,,,,,,,,,,,,,,,,,,,,,,,,,,,,,,,,,,,,,,,,,,,,,,,,,,,,,,,,,,,,,,,,,,,,,
,,?,0.00118,0,,,,,,stimuli/images/PICTURE_667.png,BATH,5f29c35127bcc61497b0b1ac,10/31/1950,2020-09-10_08h49.24.183,proactive3.1,2020.1.2,Win32,60,5f599a131af4471f3d752b7b,5f5a2eb66f1f7109006b1546,3,,,,,,daisy,,,,,,,,,,,1,0,0,34,34,4,1,,,,,,,,,,,,,,,,,,,,,,,,,,,,,,,,,,,,,,,,,,,,,,,,,,,,,,,,,,,,,,,,,,,,,,,,,,,,,,,,,,,,,,,,,,,,,,,,,,,,,,,,
,,PHOTO,9.731475,0,,,,,,stimuli/images/PICTURE_348.png,SPEECH,5f29c35127bcc61497b0b1ac,10/31/1950,2020-09-10_08h49.24.183,proactive3.1,2020.1.2,Win32,60,5f599a131af4471f3d752b7b,5f5a2eb66f1f7109006b1546,3,,,,,,pepper,,,,,,,,,,,3,0,0,35,35,20,1,,,,,,,,,,,,,,,,,,,,,,,,,,,,,,,,,,,,,,,,,,,,,,,,,,,,,,,,,,,,,,,,,,,,,,,,,,,,,,,,,,,,,,,,,,,,,,,,,,,,,,,,
,,SPEECH,8.450225,0,,,,,,stimuli/images/PICTURE_509.png,PHOTO,5f29c35127bcc61497b0b1ac,10/31/1950,2020-09-10_08h49.24.183,proactive3.1,2020.1.2,Win32,60,5f599a131af4471f3d752b7b,5f5a2eb66f1f7109006b1546,3,,,,,,telephone,,,,,,,,,,,3,0,0,36,36,21,1,,,,,,,,,,,,,,,,,,,,,,,,,,,,,,,,,,,,,,,,,,,,,,,,,,,,,,,,,,,,,,,,,,,,,,,,,,,,,,,,,,,,,,,,,,,,,,,,,,,,,,,,
,,?,0.00146,0,,,,,,stimuli/images/PICTURE_85.png,THING,5f29c35127bcc61497b0b1ac,10/31/1950,2020-09-10_08h49.24.183,proactive3.1,2020.1.2,Win32,60,5f599a131af4471f3d752b7b,5f5a2eb66f1f7109006b1546,3,,,,,,diamond,,,,,,,,,,,2,0,0,37,37,15,1,,,,,,,,,,,,,,,,,,,,,,,,,,,,,,,,,,,,,,,,,,,,,,,,,,,,,,,,,,,,,,,,,,,,,,,,,,,,,,,,,,,,,,,,,,,,,,,,,,,,,,,,
,,?,0.001245,0,,,,,,stimuli/images/PICTURE_688.png,CASINO,5f29c35127bcc61497b0b1ac,10/31/1950,2020-09-10_08h49.24.183,proactive3.1,2020.1.2,Win32,60,5f599a131af4471f3d752b7b,5f5a2eb66f1f7109006b1546,3,,,,,,runner,,,,,,,,,,,1,0,0,38,38,2,1,,,,,,,,,,,,,,,,,,,,,,,,,,,,,,,,,,,,,,,,,,,,,,,,,,,,,,,,,,,,,,,,,,,,,,,,,,,,,,,,,,,,,,,,,,,,,,,,,,,,,,,,
,,?,0.001185,0,,,,,,stimuli/images/PICTURE_151.png,GIRL,5f29c35127bcc61497b0b1ac,10/31/1950,2020-09-10_08h49.24.183,proactive3.1,2020.1.2,Win32,60,5f599a131af4471f3d752b7b,5f5a2eb66f1f7109006b1546,3,,,,,,tray,,,,,,,,,,,2,0,0,39,39,19,1,,,,,,,,,,,,,,,,,,,,,,,,,,,,,,,,,,,,,,,,,,,,,,,,,,,,,,,,,,,,,,,,,,,,,,,,,,,,,,,,,,,,,,,,,,,,,,,,,,,,,,,,
,,?,0.001185,0,,,,,,stimuli/images/PICTURE_123.png,ADVICE,5f29c35127bcc61497b0b1ac,10/31/1950,2020-09-10_08h49.24.183,proactive3.1,2020.1.2,Win32,60,5f599a131af4471f3d752b7b,5f5a2eb66f1f7109006b1546,3,,,,,,dart,,,,,,,,,,,5,0,0,40,40,40,1,,,,,,,,,,,,,,,,,,,,,,,,,,,,,,,,,,,,,,,,,,,,,,,,,,,,,,,,,,,,,,,,,,,,,,,,,,,,,,,,,,,,,,,,,,,,,,,,,,,,,,,,
,,?,0.003635,0,,,,,,stimuli/images/PICTURE_123.png,ADVICE,5f29c35127bcc61497b0b1ac,10/31/1950,2020-09-10_08h49.24.183,proactive3.1,2020.1.2,Win32,60,5f599a131af4471f3d752b7b,5f5a2eb66f1f7109006b1546,3,,,,,,dart,,,,,,,,,,,6,0,0,41,41,50,1,,,,,,,,,,,,,,,,,,,,,,,,,,,,,,,,,,,,,,,,,,,,,,,,,,,,,,,,,,,,,,,,,,,,,,,,,,,,,,,,,,,,,,,,,,,,,,,,,,,,,,,,
,,?,0.00123,0,,,,,,stimuli/images/PICTURE_32.png,JUNGLE,5f29c35127bcc61497b0b1ac,10/31/1950,2020-09-10_08h49.24.183,proactive3.1,2020.1.2,Win32,60,5f599a131af4471f3d752b7b,5f5a2eb66f1f7109006b1546,3,,,,,,crown,,,,,,,,,,,5,0,0,42,42,45,1,,,,,,,,,,,,,,,,,,,,,,,,,,,,,,,,,,,,,,,,,,,,,,,,,,,,,,,,,,,,,,,,,,,,,,,,,,,,,,,,,,,,,,,,,,,,,,,,,,,,,,,,
,,?,0.00131,0,,,,,,stimuli/images/PICTURE_654.png,VALLEY,5f29c35127bcc61497b0b1ac,10/31/1950,2020-09-10_08h49.24.183,proactive3.1,2020.1.2,Win32,60,5f599a131af4471f3d752b7b,5f5a2eb66f1f7109006b1546,3,,,,,,pencil,,,,,,,,,,,1,0,0,43,43,1,1,,,,,,,,,,,,,,,,,,,,,,,,,,,,,,,,,,,,,,,,,,,,,,,,,,,,,,,,,,,,,,,,,,,,,,,,,,,,,,,,,,,,,,,,,,,,,,,,,,,,,,,,
,,?,0.00118,0,,,,,,stimuli/images/PICTURE_160.png,LEADER,5f29c35127bcc61497b0b1ac,10/31/1950,2020-09-10_08h49.24.183,proactive3.1,2020.1.2,Win32,60,5f599a131af4471f3d752b7b,5f5a2eb66f1f7109006b1546,3,,,,,,wheelbarrow,,,,,,,,,,,1,0,0,44,44,3,1,,,,,,,,,,,,,,,,,,,,,,,,,,,,,,,,,,,,,,,,,,,,,,,,,,,,,,,,,,,,,,,,,,,,,,,,,,,,,,,,,,,,,,,,,,,,,,,,,,,,,,,,
,,?,0.00123,0,,,,,,stimuli/images/PICTURE_504.png,BODY,5f29c35127bcc61497b0b1ac,10/31/1950,2020-09-10_08h49.24.183,proactive3.1,2020.1.2,Win32,60,5f599a131af4471f3d752b7b,5f5a2eb66f1f7109006b1546,3,,,,,,wheel,,,,,,,,,,,1,0,0,45,45,8,1,,,,,,,,,,,,,,,,,,,,,,,,,,,,,,,,,,,,,,,,,,,,,,,,,,,,,,,,,,,,,,,,,,,,,,,,,,,,,,,,,,,,,,,,,,,,,,,,,,,,,,,,
,,?,0.001375,0,,,,,,stimuli/images/PICTURE_744.png,SYSTEM,5f29c35127bcc61497b0b1ac,10/31/1950,2020-09-10_08h49.24.183,proactive3.1,2020.1.2,Win32,60,5f599a131af4471f3d752b7b,5f5a2eb66f1f7109006b1546,3,,,,,,ring,,,,,,,,,,,5,0,0,46,46,43,1,,,,,,,,,,,,,,,,,,,,,,,,,,,,,,,,,,,,,,,,,,,,,,,,,,,,,,,,,,,,,,,,,,,,,,,,,,,,,,,,,,,,,,,,,,,,,,,,,,,,,,,,
,,?,0.00121,0,,,,,,stimuli/images/PICTURE_667.png,PLENTY,5f29c35127bcc61497b0b1ac,10/31/1950,2020-09-10_08h49.24.183,proactive3.1,2020.1.2,Win32,60,5f599a131af4471f3d752b7b,5f5a2eb66f1f7109006b1546,3,,,,,,daisy,,,,,,,,,,,5,0,0,47,47,41,1,,,,,,,,,,,,,,,,,,,,,,,,,,,,,,,,,,,,,,,,,,,,,,,,,,,,,,,,,,,,,,,,,,,,,,,,,,,,,,,,,,,,,,,,,,,,,,,,,,,,,,,,
,,?,0.001345,0,,,,,,stimuli/images/PICTURE_356.png,DANGER,5f29c35127bcc61497b0b1ac,10/31/1950,2020-09-10_08h49.24.183,proactive3.1,2020.1.2,Win32,60,5f599a131af4471f3d752b7b,5f5a2eb66f1f7109006b1546,3,,,,,,pawn,,,,,,,,,,,6,0,0,48,48,55,1,,,,,,,,,,,,,,,,,,,,,,,,,,,,,,,,,,,,,,,,,,,,,,,,,,,,,,,,,,,,,,,,,,,,,,,,,,,,,,,,,,,,,,,,,,,,,,,,,,,,,,,,
,,AREA,6.592085,0,,,,,,stimuli/images/PICTURE_95.png,STYLE,5f29c35127bcc61497b0b1ac,10/31/1950,2020-09-10_08h49.24.183,proactive3.1,2020.1.2,Win32,60,5f599a131af4471f3d752b7b,5f5a2eb66f1f7109006b1546,3,,,,,,suitcase,,,,,,,,,,,3,0,0,49,49,25,1,,,,,,,,,,,,,,,,,,,,,,,,,,,,,,,,,,,,,,,,,,,,,,,,,,,,,,,,,,,,,,,,,,,,,,,,,,,,,,,,,,,,,,,,,,,,,,,,,,,,,,,,
,,?,0.00145,0,,,,,,stimuli/images/PICTURE_453.png,PLENTY,5f29c35127bcc61497b0b1ac,10/31/1950,2020-09-10_08h49.24.183,proactive3.1,2020.1.2,Win32,60,5f599a131af4471f3d752b7b,5f5a2eb66f1f7109006b1546,3,,,,,,scissors,,,,,,,,,,,6,0,0,50,50,56,1,,,,,,,,,,,,,,,,,,,,,,,,,,,,,,,,,,,,,,,,,,,,,,,,,,,,,,,,,,,,,,,,,,,,,,,,,,,,,,,,,,,,,,,,,,,,,,,,,,,,,,,,
,,?,0.00125,0,,,,,,stimuli/images/PICTURE_688.png,WOMEN,5f29c35127bcc61497b0b1ac,10/31/1950,2020-09-10_08h49.24.183,proactive3.1,2020.1.2,Win32,60,5f599a131af4471f3d752b7b,5f5a2eb66f1f7109006b1546,3,,,,,,runner,,,,,,,,,,,2,0,0,51,51,14,1,,,,,,,,,,,,,,,,,,,,,,,,,,,,,,,,,,,,,,,,,,,,,,,,,,,,,,,,,,,,,,,,,,,,,,,,,,,,,,,,,,,,,,,,,,,,,,,,,,,,,,,,
,,?,0.00121,0,,,,,,stimuli/images/PICTURE_177.png,CARS,5f29c35127bcc61497b0b1ac,10/31/1950,2020-09-10_08h49.24.183,proactive3.1,2020.1.2,Win32,60,5f599a131af4471f3d752b7b,5f5a2eb66f1f7109006b1546,3,,,,,,mushroom,,,,,,,,,,,4,0,0,52,52,35,1,,,,,,,,,,,,,,,,,,,,,,,,,,,,,,,,,,,,,,,,,,,,,,,,,,,,,,,,,,,,,,,,,,,,,,,,,,,,,,,,,,,,,,,,,,,,,,,,,,,,,,,,
,,?,0.00156,0,,,,,,stimuli/images/PICTURE_380.png,PHOTO,5f29c35127bcc61497b0b1ac,10/31/1950,2020-09-10_08h49.24.183,proactive3.1,2020.1.2,Win32,60,5f599a131af4471f3d752b7b,5f5a2eb66f1f7109006b1546,3,,,,,,gorilla,,,,,,,,,,,6,0,0,53,53,52,1,,,,,,,,,,,,,,,,,,,,,,,,,,,,,,,,,,,,,,,,,,,,,,,,,,,,,,,,,,,,,,,,,,,,,,,,,,,,,,,,,,,,,,,,,,,,,,,,,,,,,,,,
,,?,0.001175,0,,,,,,stimuli/images/PICTURE_233.png,WOMEN,5f29c35127bcc61497b0b1ac,10/31/1950,2020-09-10_08h49.24.183,proactive3.1,2020.1.2,Win32,60,5f599a131af4471f3d752b7b,5f5a2eb66f1f7109006b1546,3,,,,,,salt,,,,,,,,,,,4,0,0,54,54,38,1,,,,,,,,,,,,,,,,,,,,,,,,,,,,,,,,,,,,,,,,,,,,,,,,,,,,,,,,,,,,,,,,,,,,,,,,,,,,,,,,,,,,,,,,,,,,,,,,,,,,,,,,
,,?,0.001215,0,,,,,,stimuli/images/PICTURE_68.png,MILE,5f29c35127bcc61497b0b1ac,10/31/1950,2020-09-10_08h49.24.183,proactive3.1,2020.1.2,Win32,60,5f599a131af4471f3d752b7b,5f5a2eb66f1f7109006b1546,3,,,,,,candle,,,,,,,,,,,5,0,0,55,55,44,1,,,,,,,,,,,,,,,,,,,,,,,,,,,,,,,,,,,,,,,,,,,,,,,,,,,,,,,,,,,,,,,,,,,,,,,,,,,,,,,,,,,,,,,,,,,,,,,,,,,,,,,,
,,?,0.00068,0,,,,,,stimuli/images/PICTURE_488.png,STYLE,5f29c35127bcc61497b0b1ac,10/31/1950,2020-09-10_08h49.24.183,proactive3.1,2020.1.2,Win32,60,5f599a131af4471f3d752b7b,5f5a2eb66f1f7109006b1546,3,,,,,,sun,,,,,,,,,,,4,0,0,56,56,33,1,,,,,,,,,,,,,,,,,,,,,,,,,,,,,,,,,,,,,,,,,,,,,,,,,,,,,,,,,,,,,,,,,,,,,,,,,,,,,,,,,,,,,,,,,,,,,,,,,,,,,,,,
,,?,0.00068,0,,,,,,stimuli/images/PICTURE_285.png,ADVICE,5f29c35127bcc61497b0b1ac,10/31/1950,2020-09-10_08h49.24.183,proactive3.1,2020.1.2,Win32,60,5f599a131af4471f3d752b7b,5f5a2eb66f1f7109006b1546,3,,,,,,carrot,,,,,,,,,,,2,0,0,57,57,12,1,,,,,,,,,,,,,,,,,,,,,,,,,,,,,,,,,,,,,,,,,,,,,,,,,,,,,,,,,,,,,,,,,,,,,,,,,,,,,,,,,,,,,,,,,,,,,,,,,,,,,,,,
,,?,0.000655,0,,,,,,stimuli/images/PICTURE_487.png,FLIGHT,5f29c35127bcc61497b0b1ac,10/31/1950,2020-09-10_08h49.24.183,proactive3.1,2020.1.2,Win32,60,5f599a131af4471f3d752b7b,5f5a2eb66f1f7109006b1546,3,,,,,,basket,,,,,,,,,,,1,0,0,58,58,9,1,,,,,,,,,,,,,,,,,,,,,,,,,,,,,,,,,,,,,,,,,,,,,,,,,,,,,,,,,,,,,,,,,,,,,,,,,,,,,,,,,,,,,,,,,,,,,,,,,,,,,,,,
,,?,0.00066,0,,,,,,stimuli/images/PICTURE_208.png,MONTH,5f29c35127bcc61497b0b1ac,10/31/1950,2020-09-10_08h49.24.183,proactive3.1,2020.1.2,Win32,60,5f599a131af4471f3d752b7b,5f5a2eb66f1f7109006b1546,3,,,,,,microphone,,,,,,,,,,,6,0,0,59,59,53,1,,,,,,,,,,,,,,,,,,,,,,,,,,,,,,,,,,,,,,,,,,,,,,,,,,,,,,,,,,,,,,,,,,,,,,,,,,,,,,,,,,,,,,,,,,,,,,,,,,,,,,,,
,,,,,,,,,,,,5f29c35127bcc61497b0b1ac,10/31/1950,2020-09-10_08h49.24.183,proactive3.1,2020.1.2,Win32,60,5f599a131af4471f3d752b7b,5f5a2eb66f1f7109006b1546,3,,,,,,,,,,,,,,,,,,,,,,,,0,1,1,0,1,stimuli/learn-block1.csv,,,,,,,,,,,,,,,,,,,,,,,,,,,,,,,,,,,,,,,,,,,,,,,,,,,,,,,,,,,,,,,,,,,,,,,,,,,,,,,,,,,,,,,,,,,,,,,,,,
,,,,,,,,,,stimuli/images/PICTURE_504.png,YEAR,5f29c35127bcc61497b0b1ac,10/31/1950,2020-09-10_08h49.24.183,proactive3.1,2020.1.2,Win32,60,5f599a131af4471f3d752b7b,5f5a2eb66f1f7109006b1546,3,,,,,,wheel,,,,,,0,0,0,13,1,2,1,,,,,,,,,,,,,,,,,,,,,,,,,,,,,,,,,,,,,,,,,,,,,,,,,,,,,,,,,,,,,,,,,,,,,,,,,,,,,,,,,,,,,,,,,,,,,,,,,,,,,,,,,,,,,
,,,,,,,,,,stimuli/images/PICTURE_2.png,FLIGHT,5f29c35127bcc61497b0b1ac,10/31/1950,2020-09-10_08h49.24.183,proactive3.1,2020.1.2,Win32,60,5f599a131af4471f3d752b7b,5f5a2eb66f1f7109006b1546,3,,,,,,tyre,,,,,,0,1,1,15,1,2,1,,,,,,,,,,,,,,,,,,,,,,,,,,,,,,,,,,,,,,,,,,,,,,,,,,,,,,,,,,,,,,,,,,,,,,,,,,,,,,,,,,,,,,,,,,,,,,,,,,,,,,,,,,,,,
,,,,,,,,,,stimuli/images/PICTURE_383.png,WRITER,5f29c35127bcc61497b0b1ac,10/31/1950,2020-09-10_08h49.24.183,proactive3.1,2020.1.2,Win32,60,5f599a131af4471f3d752b7b,5f5a2eb66f1f7109006b1546,3,,,,,,coin,,,,,,0,2,2,28,1,3,1,,,,,,,,,,,,,,,,,,,,,,,,,,,,,,,,,,,,,,,,,,,,,,,,,,,,,,,,,,,,,,,,,,,,,,,,,,,,,,,,,,,,,,,,,,,,,,,,,,,,,,,,,,,,,
,,,,,,,,,,stimuli/images/PICTURE_744.png,WEAPON,5f29c35127bcc61497b0b1ac,10/31/1950,2020-09-10_08h49.24.183,proactive3.1,2020.1.2,Win32,60,5f599a131af4471f3d752b7b,5f5a2eb66f1f7109006b1546,3,,,,,,ring,,,,,,0,3,3,50,1,6,1,,,,,,,,,,,,,,,,,,,,,,,,,,,,,,,,,,,,,,,,,,,,,,,,,,,,,,,,,,,,,,,,,,,,,,,,,,,,,,,,,,,,,,,,,,,,,,,,,,,,,,,,,,,,,
,,,,,,,,,,stimuli/images/PICTURE_654.png,MONTH,5f29c35127bcc61497b0b1ac,10/31/1950,2020-09-10_08h49.24.183,proactive3.1,2020.1.2,Win32,60,5f599a131af4471f3d752b7b,5f5a2eb66f1f7109006b1546,3,,,,,,pencil,,,,,,0,4,4,29,1,3,1,,,,,,,,,,,,,,,,,,,,,,,,,,,,,,,,,,,,,,,,,,,,,,,,,,,,,,,,,,,,,,,,,,,,,,,,,,,,,,,,,,,,,,,,,,,,,,,,,,,,,,,,,,,,,
,,,,,,,,,,stimuli/images/PICTURE_685.png,PENNY,5f29c35127bcc61497b0b1ac,10/31/1950,2020-09-10_08h49.24.183,proactive3.1,2020.1.2,Win32,60,5f599a131af4471f3d752b7b,5f5a2eb66f1f7109006b1546,3,,,,,,goose,,,,,,0,5,5,4,1,1,1,,,,,,,,,,,,,,,,,,,,,,,,,,,,,,,,,,,,,,,,,,,,,,,,,,,,,,,,,,,,,,,,,,,,,,,,,,,,,,,,,,,,,,,,,,,,,,,,,,,,,,,,,,,,,
,,,,,,,,,,stimuli/images/PICTURE_32.png,KIND,5f29c35127bcc61497b0b1ac,10/31/1950,2020-09-10_08h49.24.183,proactive3.1,2020.1.2,Win32,60,5f599a131af4471f3d752b7b,5f5a2eb66f1f7109006b1546,3,,,,,,crown,,,,,,0,6,6,35,1,4,1,,,,,,,,,,,,,,,,,,,,,,,,,,,,,,,,,,,,,,,,,,,,,,,,,,,,,,,,,,,,,,,,,,,,,,,,,,,,,,,,,,,,,,,,,,,,,,,,,,,,,,,,,,,,,
,,,,,,,,,,stimuli/images/PICTURE_405.png,YEAR,5f29c35127bcc61497b0b1ac,10/31/1950,2020-09-10_08h49.24.183,proactive3.1,2020.1.2,Win32,60,5f599a131af4471f3d752b7b,5f5a2eb66f1f7109006b1546,3,,,,,,anchor,,,,,,0,7,7,34,1,4,1,,,,,,,,,,,,,,,,,,,,,,,,,,,,,,,,,,,,,,,,,,,,,,,,,,,,,,,,,,,,,,,,,,,,,,,,,,,,,,,,,,,,,,,,,,,,,,,,,,,,,,,,,,,,,
,,,,,,,,,,stimuli/images/PICTURE_68.png,MILE,5f29c35127bcc61497b0b1ac,10/31/1950,2020-09-10_08h49.24.183,proactive3.1,2020.1.2,Win32,60,5f599a131af4471f3d752b7b,5f5a2eb66f1f7109006b1546,3,,,,,,candle,,,,,,0,8,8,51,1,6,1,,,,,,,,,,,,,,,,,,,,,,,,,,,,,,,,,,,,,,,,,,,,,,,,,,,,,,,,,,,,,,,,,,,,,,,,,,,,,,,,,,,,,,,,,,,,,,,,,,,,,,,,,,,,,
,,,,,,,,,,stimuli/images/PICTURE_147.png,YEAR,5f29c35127bcc61497b0b1ac,10/31/1950,2020-09-10_08h49.24.183,proactive3.1,2020.1.2,Win32,60,5f599a131af4471f3d752b7b,5f5a2eb66f1f7109006b1546,3,,,,,,hanger,,,,,,0,9,9,21,1,3,1,,,,,,,,,,,,,,,,,,,,,,,,,,,,,,,,,,,,,,,,,,,,,,,,,,,,,,,,,,,,,,,,,,,,,,,,,,,,,,,,,,,,,,,,,,,,,,,,,,,,,,,,,,,,,
,,,,,,,,,,stimuli/images/PICTURE_383.png,SERIES,5f29c35127bcc61497b0b1ac,10/31/1950,2020-09-10_08h49.24.183,proactive3.1,2020.1.2,Win32,60,5f599a131af4471f3d752b7b,5f5a2eb66f1f7109006b1546,3,,,,,,coin,,,,,,0,10,10,46,1,5,1,,,,,,,,,,,,,,,,,,,,,,,,,,,,,,,,,,,,,,,,,,,,,,,,,,,,,,,,,,,,,,,,,,,,,,,,,,,,,,,,,,,,,,,,,,,,,,,,,,,,,,,,,,,,,
,,,,,,,,,,stimuli/images/PICTURE_32.png,PILLS,5f29c35127bcc61497b0b1ac,10/31/1950,2020-09-10_08h49.24.183,proactive3.1,2020.1.2,Win32,60,5f599a131af4471f3d752b7b,5f5a2eb66f1f7109006b1546,3,,,,,,crown,,,,,,0,11,11,18,1,2,1,,,,,,,,,,,,,,,,,,,,,,,,,,,,,,,,,,,,,,,,,,,,,,,,,,,,,,,,,,,,,,,,,,,,,,,,,,,,,,,,,,,,,,,,,,,,,,,,,,,,,,,,,,,,,
,,,,,,,,,,stimuli/images/PICTURE_308.png,FAMILY,5f29c35127bcc61497b0b1ac,10/31/1950,2020-09-10_08h49.24.183,proactive3.1,2020.1.2,Win32,60,5f599a131af4471f3d752b7b,5f5a2eb66f1f7109006b1546,3,,,,,,dice,,,,,,0,12,12,36,1,4,1,,,,,,,,,,,,,,,,,,,,,,,,,,,,,,,,,,,,,,,,,,,,,,,,,,,,,,,,,,,,,,,,,,,,,,,,,,,,,,,,,,,,,,,,,,,,,,,,,,,,,,,,,,,,,
,,,,,,,,,,stimuli/images/PICTURE_449.png,DUDE,5f29c35127bcc61497b0b1ac,10/31/1950,2020-09-10_08h49.24.183,proactive3.1,2020.1.2,Win32,60,5f599a131af4471f3d752b7b,5f5a2eb66f1f7109006b1546,3,,,,,,bench,,,,,,0,13,13,17,1,2,1,,,,,,,,,,,,,,,,,,,,,,,,,,,,,,,,,,,,,,,,,,,,,,,,,,,,,,,,,,,,,,,,,,,,,,,,,,,,,,,,,,,,,,,,,,,,,,,,,,,,,,,,,,,,,
,,,,,,,,,,stimuli/images/PICTURE_340.png,LETTER,5f29c35127bcc61497b0b1ac,10/31/1950,2020-09-10_08h49.24.183,proactive3.1,2020.1.2,Win32,60,5f599a131af4471f3d752b7b,5f5a2eb66f1f7109006b1546,3,,,,,,mirror,,,,,,0,14,14,24,1,3,1,,,,,,,,,,,,,,,,,,,,,,,,,,,,,,,,,,,,,,,,,,,,,,,,,,,,,,,,,,,,,,,,,,,,,,,,,,,,,,,,,,,,,,,,,,,,,,,,,,,,,,,,,,,,,
,,,,,,,,,,stimuli/images/PICTURE_68.png,ROOF,5f29c35127bcc61497b0b1ac,10/31/1950,2020-09-10_08h49.24.183,proactive3.1,2020.1.2,Win32,60,5f599a131af4471f3d752b7b,5f5a2eb66f1f7109006b1546,3,,,,,,candle,,,,,,0,15,15,38,1,4,1,,,,,,,,,,,,,,,,,,,,,,,,,,,,,,,,,,,,,,,,,,,,,,,,,,,,,,,,,,,,,,,,,,,,,,,,,,,,,,,,,,,,,,,,,,,,,,,,,,,,,,,,,,,,,
,,,,,,,,,,stimuli/images/PICTURE_203.png,NIGHT,5f29c35127bcc61497b0b1ac,10/31/1950,2020-09-10_08h49.24.183,proactive3.1,2020.1.2,Win32,60,5f599a131af4471f3d752b7b,5f5a2eb66f1f7109006b1546,3,,,,,,cap,,,,,,0,16,16,2,1,1,1,,,,,,,,,,,,,,,,,,,,,,,,,,,,,,,,,,,,,,,,,,,,,,,,,,,,,,,,,,,,,,,,,,,,,,,,,,,,,,,,,,,,,,,,,,,,,,,,,,,,,,,,,,,,,
,,,,,,,,,,stimuli/images/PICTURE_655.png,TOILET,5f29c35127bcc61497b0b1ac,10/31/1950,2020-09-10_08h49.24.183,proactive3.1,2020.1.2,Win32,60,5f599a131af4471f3d752b7b,5f5a2eb66f1f7109006b1546,3,,,,,,megaphone,,,,,,0,17,17,12,1,2,1,,,,,,,,,,,,,,,,,,,,,,,,,,,,,,,,,,,,,,,,,,,,,,,,,,,,,,,,,,,,,,,,,,,,,,,,,,,,,,,,,,,,,,,,,,,,,,,,,,,,,,,,,,,,,
,,,,,,,,,,stimuli/images/PICTURE_750.png,HOTEL,5f29c35127bcc61497b0b1ac,10/31/1950,2020-09-10_08h49.24.183,proactive3.1,2020.1.2,Win32,60,5f599a131af4471f3d752b7b,5f5a2eb66f1f7109006b1546,3,,,,,,kettle,,,,,,0,18,18,27,1,3,1,,,,,,,,,,,,,,,,,,,,,,,,,,,,,,,,,,,,,,,,,,,,,,,,,,,,,,,,,,,,,,,,,,,,,,,,,,,,,,,,,,,,,,,,,,,,,,,,,,,,,,,,,,,,,
,,,,,,,,,,stimuli/images/PICTURE_297.png,RIVER,5f29c35127bcc61497b0b1ac,10/31/1950,2020-09-10_08h49.24.183,proactive3.1,2020.1.2,Win32,60,5f599a131af4471f3d752b7b,5f5a2eb66f1f7109006b1546,3,,,,,,aeroplane,,,,,,0,19,19,39,1,4,1,,,,,,,,,,,,,,,,,,,,,,,,,,,,,,,,,,,,,,,,,,,,,,,,,,,,,,,,,,,,,,,,,,,,,,,,,,,,,,,,,,,,,,,,,,,,,,,,,,,,,,,,,,,,,
,,,,,,,,,,stimuli/images/PICTURE_380.png,HONEY,5f29c35127bcc61497b0b1ac,10/31/1950,2020-09-10_08h49.24.183,proactive3.1,2020.1.2,Win32,60,5f599a131af4471f3d752b7b,5f5a2eb66f1f7109006b1546,3,,,,,,gorilla,,,,,,0,20,20,19,1,2,1,,,,,,,,,,,,,,,,,,,,,,,,,,,,,,,,,,,,,,,,,,,,,,,,,,,,,,,,,,,,,,,,,,,,,,,,,,,,,,,,,,,,,,,,,,,,,,,,,,,,,,,,,,,,,
,,,,,,,,,,stimuli/images/PICTURE_296.png,LOTS,5f29c35127bcc61497b0b1ac,10/31/1950,2020-09-10_08h49.24.183,proactive3.1,2020.1.2,Win32,60,5f599a131af4471f3d752b7b,5f5a2eb66f1f7109006b1546,3,,,,,,bolt,,,,,,0,21,21,9,1,1,1,,,,,,,,,,,,,,,,,,,,,,,,,,,,,,,,,,,,,,,,,,,,,,,,,,,,,,,,,,,,,,,,,,,,,,,,,,,,,,,,,,,,,,,,,,,,,,,,,,,,,,,,,,,,,
,,,,,,,,,,stimuli/images/PICTURE_327.png,CASINO,5f29c35127bcc61497b0b1ac,10/31/1950,2020-09-10_08h49.24.183,proactive3.1,2020.1.2,Win32,60,5f599a131af4471f3d752b7b,5f5a2eb66f1f7109006b1546,3,,,,,,helmet,,,,,,0,22,22,20,1,3,1,,,,,,,,,,,,,,,,,,,,,,,,,,,,,,,,,,,,,,,,,,,,,,,,,,,,,,,,,,,,,,,,,,,,,,,,,,,,,,,,,,,,,,,,,,,,,,,,,,,,,,,,,,,,,
,,,,,,,,,,stimuli/images/PICTURE_504.png,ARTIST,5f29c35127bcc61497b0b1ac,10/31/1950,2020-09-10_08h49.24.183,proactive3.1,2020.1.2,Win32,60,5f599a131af4471f3d752b7b,5f5a2eb66f1f7109006b1546,3,,,,,,wheel,,,,,,0,23,23,49,1,5,1,,,,,,,,,,,,,,,,,,,,,,,,,,,,,,,,,,,,,,,,,,,,,,,,,,,,,,,,,,,,,,,,,,,,,,,,,,,,,,,,,,,,,,,,,,,,,,,,,,,,,,,,,,,,,
,,,,,,,,,,stimuli/images/PICTURE_85.png,TOILET,5f29c35127bcc61497b0b1ac,10/31/1950,2020-09-10_08h49.24.183,proactive3.1,2020.1.2,Win32,60,5f599a131af4471f3d752b7b,5f5a2eb66f1f7109006b1546,3,,,,,,diamond,,,,,,0,24,24,48,1,5,1,,,,,,,,,,,,,,,,,,,,,,,,,,,,,,,,,,,,,,,,,,,,,,,,,,,,,,,,,,,,,,,,,,,,,,,,,,,,,,,,,,,,,,,,,,,,,,,,,,,,,,,,,,,,,
,,,,,,,,,,stimuli/images/PICTURE_208.png,SYSTEM,5f29c35127bcc61497b0b1ac,10/31/1950,2020-09-10_08h49.24.183,proactive3.1,2020.1.2,Win32,60,5f599a131af4471f3d752b7b,5f5a2eb66f1f7109006b1546,3,,,,,,microphone,,,,,,0,25,25,32,1,4,1,,,,,,,,,,,,,,,,,,,,,,,,,,,,,,,,,,,,,,,,,,,,,,,,,,,,,,,,,,,,,,,,,,,,,,,,,,,,,,,,,,,,,,,,,,,,,,,,,,,,,,,,,,,,,
,,,,,,,,,,stimuli/images/PICTURE_467.png,POLICY,5f29c35127bcc61497b0b1ac,10/31/1950,2020-09-10_08h49.24.183,proactive3.1,2020.1.2,Win32,60,5f599a131af4471f3d752b7b,5f5a2eb66f1f7109006b1546,3,,,,,,peg,,,,,,0,26,26,53,1,6,1,,,,,,,,,,,,,,,,,,,,,,,,,,,,,,,,,,,,,,,,,,,,,,,,,,,,,,,,,,,,,,,,,,,,,,,,,,,,,,,,,,,,,,,,,,,,,,,,,,,,,,,,,,,,,
,,,,,,,,,,stimuli/images/PICTURE_95.png,BOYS,5f29c35127bcc61497b0b1ac,10/31/1950,2020-09-10_08h49.24.183,proactive3.1,2020.1.2,Win32,60,5f599a131af4471f3d752b7b,5f5a2eb66f1f7109006b1546,3,,,,,,suitcase,,,,,,0,27,27,1,1,1,1,,,,,,,,,,,,,,,,,,,,,,,,,,,,,,,,,,,,,,,,,,,,,,,,,,,,,,,,,,,,,,,,,,,,,,,,,,,,,,,,,,,,,,,,,,,,,,,,,,,,,,,,,,,,,
,,,,,,,,,,stimuli/images/PICTURE_85.png,NATION,5f29c35127bcc61497b0b1ac,10/31/1950,2020-09-10_08h49.24.183,proactive3.1,2020.1.2,Win32,60,5f599a131af4471f3d752b7b,5f5a2eb66f1f7109006b1546,3,,,,,,diamond,,,,,,0,28,28,5,1,1,1,,,,,,,,,,,,,,,,,,,,,,,,,,,,,,,,,,,,,,,,,,,,,,,,,,,,,,,,,,,,,,,,,,,,,,,,,,,,,,,,,,,,,,,,,,,,,,,,,,,,,,,,,,,,,
,,,,,,,,,,stimuli/images/PICTURE_57.png,MOMENT,5f29c35127bcc61497b0b1ac,10/31/1950,2020-09-10_08h49.24.183,proactive3.1,2020.1.2,Win32,60,5f599a131af4471f3d752b7b,5f5a2eb66f1f7109006b1546,3,,,,,,stamp,,,,,,0,29,29,37,1,4,1,,,,,,,,,,,,,,,,,,,,,,,,,,,,,,,,,,,,,,,,,,,,,,,,,,,,,,,,,,,,,,,,,,,,,,,,,,,,,,,,,,,,,,,,,,,,,,,,,,,,,,,,,,,,,
,,,,,,,,,,stimuli/images/PICTURE_147.png,WOMEN,5f29c35127bcc61497b0b1ac,10/31/1950,2020-09-10_08h49.24.183,proactive3.1,2020.1.2,Win32,60,5f599a131af4471f3d752b7b,5f5a2eb66f1f7109006b1546,3,,,,,,hanger,,,,,,0,30,30,7,1,1,1,,,,,,,,,,,,,,,,,,,,,,,,,,,,,,,,,,,,,,,,,,,,,,,,,,,,,,,,,,,,,,,,,,,,,,,,,,,,,,,,,,,,,,,,,,,,,,,,,,,,,,,,,,,,,
,,,,,,,,,,stimuli/images/PICTURE_504.png,COPS,5f29c35127bcc61497b0b1ac,10/31/1950,2020-09-10_08h49.24.183,proactive3.1,2020.1.2,Win32,60,5f599a131af4471f3d752b7b,5f5a2eb66f1f7109006b1546,3,,,,,,wheel,,,,,,0,31,31,52,1,6,1,,,,,,,,,,,,,,,,,,,,,,,,,,,,,,,,,,,,,,,,,,,,,,,,,,,,,,,,,,,,,,,,,,,,,,,,,,,,,,,,,,,,,,,,,,,,,,,,,,,,,,,,,,,,,
,,,,,,,,,,stimuli/images/PICTURE_380.png,CANDY,5f29c35127bcc61497b0b1ac,10/31/1950,2020-09-10_08h49.24.183,proactive3.1,2020.1.2,Win32,60,5f599a131af4471f3d752b7b,5f5a2eb66f1f7109006b1546,3,,,,,,gorilla,,,,,,0,32,32,0,1,1,1,,,,,,,,,,,,,,,,,,,,,,,,,,,,,,,,,,,,,,,,,,,,,,,,,,,,,,,,,,,,,,,,,,,,,,,,,,,,,,,,,,,,,,,,,,,,,,,,,,,,,,,,,,,,,
,,,,,,,,,,stimuli/images/PICTURE_469.png,AGENT,5f29c35127bcc61497b0b1ac,10/31/1950,2020-09-10_08h49.24.183,proactive3.1,2020.1.2,Win32,60,5f599a131af4471f3d752b7b,5f5a2eb66f1f7109006b1546,3,,,,,,stool,,,,,,0,33,33,16,1,2,1,,,,,,,,,,,,,,,,,,,,,,,,,,,,,,,,,,,,,,,,,,,,,,,,,,,,,,,,,,,,,,,,,,,,,,,,,,,,,,,,,,,,,,,,,,,,,,,,,,,,,,,,,,,,,
,,,,,,,,,,stimuli/images/PICTURE_675.png,SALE,5f29c35127bcc61497b0b1ac,10/31/1950,2020-09-10_08h49.24.183,proactive3.1,2020.1.2,Win32,60,5f599a131af4471f3d752b7b,5f5a2eb66f1f7109006b1546,3,,,,,,windmill,,,,,,0,34,34,47,1,5,1,,,,,,,,,,,,,,,,,,,,,,,,,,,,,,,,,,,,,,,,,,,,,,,,,,,,,,,,,,,,,,,,,,,,,,,,,,,,,,,,,,,,,,,,,,,,,,,,,,,,,,,,,,,,,
,,,,,,,,,,stimuli/images/PICTURE_177.png,WRITER,5f29c35127bcc61497b0b1ac,10/31/1950,2020-09-10_08h49.24.183,proactive3.1,2020.1.2,Win32,60,5f599a131af4471f3d752b7b,5f5a2eb66f1f7109006b1546,3,,,,,,mushroom,,,,,,0,35,35,41,1,5,1,,,,,,,,,,,,,,,,,,,,,,,,,,,,,,,,,,,,,,,,,,,,,,,,,,,,,,,,,,,,,,,,,,,,,,,,,,,,,,,,,,,,,,,,,,,,,,,,,,,,,,,,,,,,,
,,,,,,,,,,stimuli/images/PICTURE_340.png,VALLEY,5f29c35127bcc61497b0b1ac,10/31/1950,2020-09-10_08h49.24.183,proactive3.1,2020.1.2,Win32,60,5f599a131af4471f3d752b7b,5f5a2eb66f1f7109006b1546,3,,,,,,mirror,,,,,,0,36,36,54,1,6,1,,,,,,,,,,,,,,,,,,,,,,,,,,,,,,,,,,,,,,,,,,,,,,,,,,,,,,,,,,,,,,,,,,,,,,,,,,,,,,,,,,,,,,,,,,,,,,,,,,,,,,,,,,,,,
,,,,,,,,,,stimuli/images/PICTURE_667.png,RIVER,5f29c35127bcc61497b0b1ac,10/31/1950,2020-09-10_08h49.24.183,proactive3.1,2020.1.2,Win32,60,5f599a131af4471f3d752b7b,5f5a2eb66f1f7109006b1546,3,,,,,,daisy,,,,,,0,37,37,10,1,2,1,,,,,,,,,,,,,,,,,,,,,,,,,,,,,,,,,,,,,,,,,,,,,,,,,,,,,,,,,,,,,,,,,,,,,,,,,,,,,,,,,,,,,,,,,,,,,,,,,,,,,,,,,,,,,
,,,,,,,,,,stimuli/images/PICTURE_487.png,GIRL,5f29c35127bcc61497b0b1ac,10/31/1950,2020-09-10_08h49.24.183,proactive3.1,2020.1.2,Win32,60,5f599a131af4471f3d752b7b,5f5a2eb66f1f7109006b1546,3,,,,,,basket,,,,,,0,38,38,45,1,5,1,,,,,,,,,,,,,,,,,,,,,,,,,,,,,,,,,,,,,,,,,,,,,,,,,,,,,,,,,,,,,,,,,,,,,,,,,,,,,,,,,,,,,,,,,,,,,,,,,,,,,,,,,,,,,
