consent_key.keys,consent_key.rt,recalled,recalled_rt,recall_acc,example_recall.thisRepN,example_recall.thisTrialN,example_recall.thisN,example_recall.thisIndex,example_recall.ran,file,word,participant,please enter your date of birth (dd/mm/yyyy),date,expName,psychopyVersion,OS,frameRate,STUDY_ID,SESSION_ID,list,prac_learn_study_loop.thisRepN,prac_learn_study_loop.thisTrialN,prac_learn_study_loop.thisN,prac_learn_study_loop.thisIndex,prac_learn_study_loop.ran,image,prac_learn_test_loop.thisRepN,prac_learn_test_loop.thisTrialN,prac_learn_test_loop.thisN,prac_learn_test_loop.thisIndex,prac_learn_test_loop.ran,learn_study_loop.thisRepN,learn_study_loop.thisTrialN,learn_study_loop.thisN,learn_study_loop.thisIndex,learn_study_loop.ran,list_no,block_no,learn_test_loop.thisRepN,learn_test_loop.thisTrialN,learn_test_loop.thisN,learn_test_loop.thisIndex,learn_test_loop.ran,learn_blocks.thisRepN,learn_blocks.thisTrialN,learn_blocks.thisN,learn_blocks.thisIndex,learn_blocks.ran,block_csv,key_resp_13.keys,key_resp_13.rt,learn_blocks_loop.thisRepN,learn_blocks_loop.thisTrialN,learn_blocks_loop.thisN,learn_blocks_loop.thisIndex,learn_blocks_loop.ran,final_learn_test.thisRepN,final_learn_test.thisTrialN,final_learn_test.thisN,final_learn_test.thisIndex,final_learn_test.ran,s_im1,s_im2,s_im3,s_im4,s_im5,s_im6,s_im7,s_im8,s_im1pos,s_im2pos,s_im3pos,s_im4pos,s_im5pos,s_im6pos,s_im7pos,s_im8pos,s_tarright,search_resp.keys,search_resp.rt,search_loop.thisRepN,search_loop.thisTrialN,search_loop.thisN,search_loop.thisIndex,search_loop.ran,prac_wm_search_loop.thisRepN,prac_wm_search_loop.thisTrialN,prac_wm_search_loop.thisN,prac_wm_search_loop.thisIndex,prac_wm_search_loop.ran,prac_wm_test_loop.thisRepN,prac_wm_test_loop.thisTrialN,prac_wm_test_loop.thisN,prac_wm_test_loop.thisIndex,prac_wm_test_loop.ran,wm_recalled1,wm_recall_rt1,wm_probed1,wm_recall_acc1,wm_recalled2,wm_recall_rt2,wm_probed2,wm_recall_acc2,wm_recalled3,wm_recall_rt3,wm_probed3,wm_recall_acc3,wm_recalled4,wm_recall_rt4,wm_probed4,wm_recall_acc4,prac_wm_trial_loop.thisRepN,prac_wm_trial_loop.thisTrialN,prac_wm_trial_loop.thisN,prac_wm_trial_loop.thisIndex,prac_wm_trial_loop.ran,word1,image1,file1,item_type1,word2,image2,file2,item_type2,word4,image4,file4,item_type4,word3,image3,file3,item_type3,wm_search_loop.thisRepN,wm_search_loop.thisTrialN,wm_search_loop.thisN,wm_search_loop.thisIndex,wm_search_loop.ran,wm_test_loop.thisRepN,wm_test_loop.thisTrialN,wm_test_loop.thisN,wm_test_loop.thisIndex,wm_test_loop.ran,wm_trial_loop.thisRepN,wm_trial_loop.thisTrialN,wm_trial_loop.thisN,wm_trial_loop.thisIndex,wm_trial_loop.ran
y,11.58436,?,15.00401,0,0,0,0,0,1,stimuli/images/PICTURE_747.png,TOUGH,5f2f19107e19512f94ede28b,22/07/1999,2020-08-27_18h33.31.866,proactive3.1,2020.1.2,Win32,60,5f47c29a48bd2a1e651a6eb7,5f47ee4b84ba2724c92aa8e1,5,,,,,,,,,,,,,,,,,,,,,,,,,,,,,,,,,,,,,,,,,,,,,,,,,,,,,,,,,,,,,,,,,,,,,,,,,,,,,,,,,,,,,,,,,,,,,,,,,,,,,,,,,,,,,,,,,,,,,,,,,,,,,,,
,,,,,,,,,,stimuli/images/PICTURE_378.png,LOSS,5f2f19107e19512f94ede28b,22/07/1999,2020-08-27_18h33.31.866,proactive3.1,2020.1.2,Win32,60,5f47c29a48bd2a1e651a6eb7,5f47ee4b84ba2724c92aa8e1,5,0,0,0,2,1,lobster,,,,,,,,,,,,,,,,,,,,,,,,,,,,,,,,,,,,,,,,,,,,,,,,,,,,,,,,,,,,,,,,,,,,,,,,,,,,,,,,,,,,,,,,,,,,,,,,,,,,,,,,,,,,,,,,,,,,,,,,,
,,,,,,,,,,stimuli/images/PICTURE_727.png,CELL,5f2f19107e19512f94ede28b,22/07/1999,2020-08-27_18h33.31.866,proactive3.1,2020.1.2,Win32,60,5f47c29a48bd2a1e651a6eb7,5f47ee4b84ba2724c92aa8e1,5,0,1,1,1,1,hose,,,,,,,,,,,,,,,,,,,,,,,,,,,,,,,,,,,,,,,,,,,,,,,,,,,,,,,,,,,,,,,,,,,,,,,,,,,,,,,,,,,,,,,,,,,,,,,,,,,,,,,,,,,,,,,,,,,,,,,,,
,,,,,,,,,,stimuli/images/PICTURE_269.png,GENIUS,5f2f19107e19512f94ede28b,22/07/1999,2020-08-27_18h33.31.866,proactive3.1,2020.1.2,Win32,60,5f47c29a48bd2a1e651a6eb7,5f47ee4b84ba2724c92aa8e1,5,0,2,2,0,1,chameleon,,,,,,,,,,,,,,,,,,,,,,,,,,,,,,,,,,,,,,,,,,,,,,,,,,,,,,,,,,,,,,,,,,,,,,,,,,,,,,,,,,,,,,,,,,,,,,,,,,,,,,,,,,,,,,,,,,,,,,,,,
,,,,,,,,,,stimuli/images/PICTURE_697.png,KILLER,5f2f19107e19512f94ede28b,22/07/1999,2020-08-27_18h33.31.866,proactive3.1,2020.1.2,Win32,60,5f47c29a48bd2a1e651a6eb7,5f47ee4b84ba2724c92aa8e1,5,0,3,3,4,1,peach,,,,,,,,,,,,,,,,,,,,,,,,,,,,,,,,,,,,,,,,,,,,,,,,,,,,,,,,,,,,,,,,,,,,,,,,,,,,,,,,,,,,,,,,,,,,,,,,,,,,,,,,,,,,,,,,,,,,,,,,,
,,DEVIL,15.006805,1,,,,,,stimuli/images/PICTURE_658.png,DEVIL,5f2f19107e19512f94ede28b,22/07/1999,2020-08-27_18h33.31.866,proactive3.1,2020.1.2,Win32,60,5f47c29a48bd2a1e651a6eb7,5f47ee4b84ba2724c92aa8e1,5,,,,,,crow,0,0,0,3,1,,,,,,,,,,,,,,,,,,,,,,,,,,,,,,,,,,,,,,,,,,,,,,,,,,,,,,,,,,,,,,,,,,,,,,,,,,,,,,,,,,,,,,,,,,,,,,,,,,,,,,,,,,,,,,,,,,,,
,,LOSS,15.012575,1,,,,,,stimuli/images/PICTURE_378.png,LOSS,5f2f19107e19512f94ede28b,22/07/1999,2020-08-27_18h33.31.866,proactive3.1,2020.1.2,Win32,60,5f47c29a48bd2a1e651a6eb7,5f47ee4b84ba2724c92aa8e1,5,,,,,,lobster,0,1,1,2,1,,,,,,,,,,,,,,,,,,,,,,,,,,,,,,,,,,,,,,,,,,,,,,,,,,,,,,,,,,,,,,,,,,,,,,,,,,,,,,,,,,,,,,,,,,,,,,,,,,,,,,,,,,,,,,,,,,,,
,,CELL,15.01251,1,,,,,,stimuli/images/PICTURE_727.png,CELL,5f2f19107e19512f94ede28b,22/07/1999,2020-08-27_18h33.31.866,proactive3.1,2020.1.2,Win32,60,5f47c29a48bd2a1e651a6eb7,5f47ee4b84ba2724c92aa8e1,5,,,,,,hose,0,2,2,1,1,,,,,,,,,,,,,,,,,,,,,,,,,,,,,,,,,,,,,,,,,,,,,,,,,,,,,,,,,,,,,,,,,,,,,,,,,,,,,,,,,,,,,,,,,,,,,,,,,,,,,,,,,,,,,,,,,,,,
,,KILLER,15.01303,0,,,,,,stimuli/images/PICTURE_269.png,GENIUS,5f2f19107e19512f94ede28b,22/07/1999,2020-08-27_18h33.31.866,proactive3.1,2020.1.2,Win32,60,5f47c29a48bd2a1e651a6eb7,5f47ee4b84ba2724c92aa8e1,5,,,,,,chameleon,0,3,3,0,1,,,,,,,,,,,,,,,,,,,,,,,,,,,,,,,,,,,,,,,,,,,,,,,,,,,,,,,,,,,,,,,,,,,,,,,,,,,,,,,,,,,,,,,,,,,,,,,,,,,,,,,,,,,,,,,,,,,,
,,KILLER,15.01096,1,,,,,,stimuli/images/PICTURE_697.png,KILLER,5f2f19107e19512f94ede28b,22/07/1999,2020-08-27_18h33.31.866,proactive3.1,2020.1.2,Win32,60,5f47c29a48bd2a1e651a6eb7,5f47ee4b84ba2724c92aa8e1,5,,,,,,peach,0,4,4,4,1,,,,,,,,,,,,,,,,,,,,,,,,,,,,,,,,,,,,,,,,,,,,,,,,,,,,,,,,,,,,,,,,,,,,,,,,,,,,,,,,,,,,,,,,,,,,,,,,,,,,,,,,,,,,,,,,,,,,
,,,,,,,,,,stimuli/images/PICTURE_403.png,FAMILY,5f2f19107e19512f94ede28b,22/07/1999,2020-08-27_18h33.31.866,proactive3.1,2020.1.2,Win32,60,5f47c29a48bd2a1e651a6eb7,5f47ee4b84ba2724c92aa8e1,5,,,,,,cathedral,,,,,,0,0,0,9,1,1,2,,,,,,,,,,,,,,,,,,,,,,,,,,,,,,,,,,,,,,,,,,,,,,,,,,,,,,,,,,,,,,,,,,,,,,,,,,,,,,,,,,,,,,,,,,,,,,,,,,,,,,,,,,,,,
,,,,,,,,,,stimuli/images/PICTURE_564.png,PLENTY,5f2f19107e19512f94ede28b,22/07/1999,2020-08-27_18h33.31.866,proactive3.1,2020.1.2,Win32,60,5f47c29a48bd2a1e651a6eb7,5f47ee4b84ba2724c92aa8e1,5,,,,,,spoon,,,,,,0,1,1,11,1,2,2,,,,,,,,,,,,,,,,,,,,,,,,,,,,,,,,,,,,,,,,,,,,,,,,,,,,,,,,,,,,,,,,,,,,,,,,,,,,,,,,,,,,,,,,,,,,,,,,,,,,,,,,,,,,,
,,,,,,,,,,stimuli/images/PICTURE_314.png,SPEECH,5f2f19107e19512f94ede28b,22/07/1999,2020-08-27_18h33.31.866,proactive3.1,2020.1.2,Win32,60,5f47c29a48bd2a1e651a6eb7,5f47ee4b84ba2724c92aa8e1,5,,,,,,perfume,,,,,,0,2,2,35,1,4,2,,,,,,,,,,,,,,,,,,,,,,,,,,,,,,,,,,,,,,,,,,,,,,,,,,,,,,,,,,,,,,,,,,,,,,,,,,,,,,,,,,,,,,,,,,,,,,,,,,,,,,,,,,,,,
,,,,,,,,,,stimuli/images/PICTURE_160.png,HOTEL,5f2f19107e19512f94ede28b,22/07/1999,2020-08-27_18h33.31.866,proactive3.1,2020.1.2,Win32,60,5f47c29a48bd2a1e651a6eb7,5f47ee4b84ba2724c92aa8e1,5,,,,,,wheelbarrow,,,,,,0,3,3,16,1,2,2,,,,,,,,,,,,,,,,,,,,,,,,,,,,,,,,,,,,,,,,,,,,,,,,,,,,,,,,,,,,,,,,,,,,,,,,,,,,,,,,,,,,,,,,,,,,,,,,,,,,,,,,,,,,,
,,,,,,,,,,stimuli/images/PICTURE_453.png,FAMILY,5f2f19107e19512f94ede28b,22/07/1999,2020-08-27_18h33.31.866,proactive3.1,2020.1.2,Win32,60,5f47c29a48bd2a1e651a6eb7,5f47ee4b84ba2724c92aa8e1,5,,,,,,scissors,,,,,,0,4,4,48,1,5,2,,,,,,,,,,,,,,,,,,,,,,,,,,,,,,,,,,,,,,,,,,,,,,,,,,,,,,,,,,,,,,,,,,,,,,,,,,,,,,,,,,,,,,,,,,,,,,,,,,,,,,,,,,,,,
,,,,,,,,,,stimuli/images/PICTURE_405.png,HOUSE,5f2f19107e19512f94ede28b,22/07/1999,2020-08-27_18h33.31.866,proactive3.1,2020.1.2,Win32,60,5f47c29a48bd2a1e651a6eb7,5f47ee4b84ba2724c92aa8e1,5,,,,,,anchor,,,,,,0,5,5,2,1,1,2,,,,,,,,,,,,,,,,,,,,,,,,,,,,,,,,,,,,,,,,,,,,,,,,,,,,,,,,,,,,,,,,,,,,,,,,,,,,,,,,,,,,,,,,,,,,,,,,,,,,,,,,,,,,,
,,,,,,,,,,stimuli/images/PICTURE_311.png,FLESH,5f2f19107e19512f94ede28b,22/07/1999,2020-08-27_18h33.31.866,proactive3.1,2020.1.2,Win32,60,5f47c29a48bd2a1e651a6eb7,5f47ee4b84ba2724c92aa8e1,5,,,,,,razor,,,,,,0,6,6,3,1,1,2,,,,,,,,,,,,,,,,,,,,,,,,,,,,,,,,,,,,,,,,,,,,,,,,,,,,,,,,,,,,,,,,,,,,,,,,,,,,,,,,,,,,,,,,,,,,,,,,,,,,,,,,,,,,,
,,,,,,,,,,stimuli/images/PICTURE_750.png,POLICY,5f2f19107e19512f94ede28b,22/07/1999,2020-08-27_18h33.31.866,proactive3.1,2020.1.2,Win32,60,5f47c29a48bd2a1e651a6eb7,5f47ee4b84ba2724c92aa8e1,5,,,,,,kettle,,,,,,0,7,7,44,1,5,2,,,,,,,,,,,,,,,,,,,,,,,,,,,,,,,,,,,,,,,,,,,,,,,,,,,,,,,,,,,,,,,,,,,,,,,,,,,,,,,,,,,,,,,,,,,,,,,,,,,,,,,,,,,,,
,,,,,,,,,,stimuli/images/PICTURE_509.png,SHOTS,5f2f19107e19512f94ede28b,22/07/1999,2020-08-27_18h33.31.866,proactive3.1,2020.1.2,Win32,60,5f47c29a48bd2a1e651a6eb7,5f47ee4b84ba2724c92aa8e1,5,,,,,,telephone,,,,,,0,8,8,7,1,1,2,,,,,,,,,,,,,,,,,,,,,,,,,,,,,,,,,,,,,,,,,,,,,,,,,,,,,,,,,,,,,,,,,,,,,,,,,,,,,,,,,,,,,,,,,,,,,,,,,,,,,,,,,,,,,
,,,,,,,,,,stimuli/images/PICTURE_470.png,MOMENT,5f2f19107e19512f94ede28b,22/07/1999,2020-08-27_18h33.31.866,proactive3.1,2020.1.2,Win32,60,5f47c29a48bd2a1e651a6eb7,5f47ee4b84ba2724c92aa8e1,5,,,,,,motorbike,,,,,,0,9,9,40,1,5,2,,,,,,,,,,,,,,,,,,,,,,,,,,,,,,,,,,,,,,,,,,,,,,,,,,,,,,,,,,,,,,,,,,,,,,,,,,,,,,,,,,,,,,,,,,,,,,,,,,,,,,,,,,,,,
,,,,,,,,,,stimuli/images/PICTURE_688.png,CLOCK,5f2f19107e19512f94ede28b,22/07/1999,2020-08-27_18h33.31.866,proactive3.1,2020.1.2,Win32,60,5f47c29a48bd2a1e651a6eb7,5f47ee4b84ba2724c92aa8e1,5,,,,,,runner,,,,,,0,10,10,42,1,5,2,,,,,,,,,,,,,,,,,,,,,,,,,,,,,,,,,,,,,,,,,,,,,,,,,,,,,,,,,,,,,,,,,,,,,,,,,,,,,,,,,,,,,,,,,,,,,,,,,,,,,,,,,,,,,
,,,,,,,,,,stimuli/images/PICTURE_215.png,BOYS,5f2f19107e19512f94ede28b,22/07/1999,2020-08-27_18h33.31.866,proactive3.1,2020.1.2,Win32,60,5f47c29a48bd2a1e651a6eb7,5f47ee4b84ba2724c92aa8e1,5,,,,,,boot,,,,,,0,11,11,24,1,3,2,,,,,,,,,,,,,,,,,,,,,,,,,,,,,,,,,,,,,,,,,,,,,,,,,,,,,,,,,,,,,,,,,,,,,,,,,,,,,,,,,,,,,,,,,,,,,,,,,,,,,,,,,,,,,
,,,,,,,,,,stimuli/images/PICTURE_677.png,PHOTO,5f2f19107e19512f94ede28b,22/07/1999,2020-08-27_18h33.31.866,proactive3.1,2020.1.2,Win32,60,5f47c29a48bd2a1e651a6eb7,5f47ee4b84ba2724c92aa8e1,5,,,,,,map,,,,,,0,12,12,14,1,2,2,,,,,,,,,,,,,,,,,,,,,,,,,,,,,,,,,,,,,,,,,,,,,,,,,,,,,,,,,,,,,,,,,,,,,,,,,,,,,,,,,,,,,,,,,,,,,,,,,,,,,,,,,,,,,
,,,,,,,,,,stimuli/images/PICTURE_667.png,GLASS,5f2f19107e19512f94ede28b,22/07/1999,2020-08-27_18h33.31.866,proactive3.1,2020.1.2,Win32,60,5f47c29a48bd2a1e651a6eb7,5f47ee4b84ba2724c92aa8e1,5,,,,,,daisy,,,,,,0,13,13,27,1,3,2,,,,,,,,,,,,,,,,,,,,,,,,,,,,,,,,,,,,,,,,,,,,,,,,,,,,,,,,,,,,,,,,,,,,,,,,,,,,,,,,,,,,,,,,,,,,,,,,,,,,,,,,,,,,,
,,,,,,,,,,stimuli/images/PICTURE_33.png,COPS,5f2f19107e19512f94ede28b,22/07/1999,2020-08-27_18h33.31.866,proactive3.1,2020.1.2,Win32,60,5f47c29a48bd2a1e651a6eb7,5f47ee4b84ba2724c92aa8e1,5,,,,,,frame,,,,,,0,14,14,29,1,3,2,,,,,,,,,,,,,,,,,,,,,,,,,,,,,,,,,,,,,,,,,,,,,,,,,,,,,,,,,,,,,,,,,,,,,,,,,,,,,,,,,,,,,,,,,,,,,,,,,,,,,,,,,,,,,
,,,,,,,,,,stimuli/images/PICTURE_348.png,TOILET,5f2f19107e19512f94ede28b,22/07/1999,2020-08-27_18h33.31.866,proactive3.1,2020.1.2,Win32,60,5f47c29a48bd2a1e651a6eb7,5f47ee4b84ba2724c92aa8e1,5,,,,,,pepper,,,,,,0,15,15,4,1,1,2,,,,,,,,,,,,,,,,,,,,,,,,,,,,,,,,,,,,,,,,,,,,,,,,,,,,,,,,,,,,,,,,,,,,,,,,,,,,,,,,,,,,,,,,,,,,,,,,,,,,,,,,,,,,,
,,,,,,,,,,stimuli/images/PICTURE_285.png,WRITER,5f2f19107e19512f94ede28b,22/07/1999,2020-08-27_18h33.31.866,proactive3.1,2020.1.2,Win32,60,5f47c29a48bd2a1e651a6eb7,5f47ee4b84ba2724c92aa8e1,5,,,,,,carrot,,,,,,0,16,16,6,1,1,2,,,,,,,,,,,,,,,,,,,,,,,,,,,,,,,,,,,,,,,,,,,,,,,,,,,,,,,,,,,,,,,,,,,,,,,,,,,,,,,,,,,,,,,,,,,,,,,,,,,,,,,,,,,,,
,,,,,,,,,,stimuli/images/PICTURE_654.png,COPS,5f2f19107e19512f94ede28b,22/07/1999,2020-08-27_18h33.31.866,proactive3.1,2020.1.2,Win32,60,5f47c29a48bd2a1e651a6eb7,5f47ee4b84ba2724c92aa8e1,5,,,,,,pencil,,,,,,0,17,17,10,1,2,2,,,,,,,,,,,,,,,,,,,,,,,,,,,,,,,,,,,,,,,,,,,,,,,,,,,,,,,,,,,,,,,,,,,,,,,,,,,,,,,,,,,,,,,,,,,,,,,,,,,,,,,,,,,,,
,,,,,,,,,,stimuli/images/PICTURE_208.png,SPIRIT,5f2f19107e19512f94ede28b,22/07/1999,2020-08-27_18h33.31.866,proactive3.1,2020.1.2,Win32,60,5f47c29a48bd2a1e651a6eb7,5f47ee4b84ba2724c92aa8e1,5,,,,,,microphone,,,,,,0,18,18,28,1,3,2,,,,,,,,,,,,,,,,,,,,,,,,,,,,,,,,,,,,,,,,,,,,,,,,,,,,,,,,,,,,,,,,,,,,,,,,,,,,,,,,,,,,,,,,,,,,,,,,,,,,,,,,,,,,,
,,,,,,,,,,stimuli/images/PICTURE_215.png,LEADER,5f2f19107e19512f94ede28b,22/07/1999,2020-08-27_18h33.31.866,proactive3.1,2020.1.2,Win32,60,5f47c29a48bd2a1e651a6eb7,5f47ee4b84ba2724c92aa8e1,5,,,,,,boot,,,,,,0,19,19,43,1,5,2,,,,,,,,,,,,,,,,,,,,,,,,,,,,,,,,,,,,,,,,,,,,,,,,,,,,,,,,,,,,,,,,,,,,,,,,,,,,,,,,,,,,,,,,,,,,,,,,,,,,,,,,,,,,,
,,,,,,,,,,stimuli/images/PICTURE_405.png,JUNGLE,5f2f19107e19512f94ede28b,22/07/1999,2020-08-27_18h33.31.866,proactive3.1,2020.1.2,Win32,60,5f47c29a48bd2a1e651a6eb7,5f47ee4b84ba2724c92aa8e1,5,,,,,,anchor,,,,,,0,20,20,13,1,2,2,,,,,,,,,,,,,,,,,,,,,,,,,,,,,,,,,,,,,,,,,,,,,,,,,,,,,,,,,,,,,,,,,,,,,,,,,,,,,,,,,,,,,,,,,,,,,,,,,,,,,,,,,,,,,
,,,,,,,,,,stimuli/images/PICTURE_296.png,CLOCK,5f2f19107e19512f94ede28b,22/07/1999,2020-08-27_18h33.31.866,proactive3.1,2020.1.2,Win32,60,5f47c29a48bd2a1e651a6eb7,5f47ee4b84ba2724c92aa8e1,5,,,,,,bolt,,,,,,0,21,21,18,1,2,2,,,,,,,,,,,,,,,,,,,,,,,,,,,,,,,,,,,,,,,,,,,,,,,,,,,,,,,,,,,,,,,,,,,,,,,,,,,,,,,,,,,,,,,,,,,,,,,,,,,,,,,,,,,,,
,,,,,,,,,,stimuli/images/PICTURE_2.png,JUNGLE,5f2f19107e19512f94ede28b,22/07/1999,2020-08-27_18h33.31.866,proactive3.1,2020.1.2,Win32,60,5f47c29a48bd2a1e651a6eb7,5f47ee4b84ba2724c92aa8e1,5,,,,,,tyre,,,,,,0,22,22,1,1,1,2,,,,,,,,,,,,,,,,,,,,,,,,,,,,,,,,,,,,,,,,,,,,,,,,,,,,,,,,,,,,,,,,,,,,,,,,,,,,,,,,,,,,,,,,,,,,,,,,,,,,,,,,,,,,,
,,,,,,,,,,stimuli/images/PICTURE_677.png,FAMILY,5f2f19107e19512f94ede28b,22/07/1999,2020-08-27_18h33.31.866,proactive3.1,2020.1.2,Win32,60,5f47c29a48bd2a1e651a6eb7,5f47ee4b84ba2724c92aa8e1,5,,,,,,map,,,,,,0,23,23,53,1,6,2,,,,,,,,,,,,,,,,,,,,,,,,,,,,,,,,,,,,,,,,,,,,,,,,,,,,,,,,,,,,,,,,,,,,,,,,,,,,,,,,,,,,,,,,,,,,,,,,,,,,,,,,,,,,,
,,,,,,,,,,stimuli/images/PICTURE_655.png,SALE,5f2f19107e19512f94ede28b,22/07/1999,2020-08-27_18h33.31.866,proactive3.1,2020.1.2,Win32,60,5f47c29a48bd2a1e651a6eb7,5f47ee4b84ba2724c92aa8e1,5,,,,,,megaphone,,,,,,0,24,24,57,1,6,2,,,,,,,,,,,,,,,,,,,,,,,,,,,,,,,,,,,,,,,,,,,,,,,,,,,,,,,,,,,,,,,,,,,,,,,,,,,,,,,,,,,,,,,,,,,,,,,,,,,,,,,,,,,,,
,,,,,,,,,,stimuli/images/PICTURE_708.png,VALLEY,5f2f19107e19512f94ede28b,22/07/1999,2020-08-27_18h33.31.866,proactive3.1,2020.1.2,Win32,60,5f47c29a48bd2a1e651a6eb7,5f47ee4b84ba2724c92aa8e1,5,,,,,,monkey,,,,,,0,25,25,45,1,5,2,,,,,,,,,,,,,,,,,,,,,,,,,,,,,,,,,,,,,,,,,,,,,,,,,,,,,,,,,,,,,,,,,,,,,,,,,,,,,,,,,,,,,,,,,,,,,,,,,,,,,,,,,,,,,
,,,,,,,,,,stimuli/images/PICTURE_348.png,DUDE,5f2f19107e19512f94ede28b,22/07/1999,2020-08-27_18h33.31.866,proactive3.1,2020.1.2,Win32,60,5f47c29a48bd2a1e651a6eb7,5f47ee4b84ba2724c92aa8e1,5,,,,,,pepper,,,,,,0,26,26,59,1,6,2,,,,,,,,,,,,,,,,,,,,,,,,,,,,,,,,,,,,,,,,,,,,,,,,,,,,,,,,,,,,,,,,,,,,,,,,,,,,,,,,,,,,,,,,,,,,,,,,,,,,,,,,,,,,,
,,,,,,,,,,stimuli/images/PICTURE_147.png,LEADER,5f2f19107e19512f94ede28b,22/07/1999,2020-08-27_18h33.31.866,proactive3.1,2020.1.2,Win32,60,5f47c29a48bd2a1e651a6eb7,5f47ee4b84ba2724c92aa8e1,5,,,,,,hanger,,,,,,0,27,27,33,1,4,2,,,,,,,,,,,,,,,,,,,,,,,,,,,,,,,,,,,,,,,,,,,,,,,,,,,,,,,,,,,,,,,,,,,,,,,,,,,,,,,,,,,,,,,,,,,,,,,,,,,,,,,,,,,,,
,,,,,,,,,,stimuli/images/PICTURE_509.png,APPLE,5f2f19107e19512f94ede28b,22/07/1999,2020-08-27_18h33.31.866,proactive3.1,2020.1.2,Win32,60,5f47c29a48bd2a1e651a6eb7,5f47ee4b84ba2724c92aa8e1,5,,,,,,telephone,,,,,,0,28,28,38,1,4,2,,,,,,,,,,,,,,,,,,,,,,,,,,,,,,,,,,,,,,,,,,,,,,,,,,,,,,,,,,,,,,,,,,,,,,,,,,,,,,,,,,,,,,,,,,,,,,,,,,,,,,,,,,,,,
,,,,,,,,,,stimuli/images/PICTURE_68.png,KIND,5f2f19107e19512f94ede28b,22/07/1999,2020-08-27_18h33.31.866,proactive3.1,2020.1.2,Win32,60,5f47c29a48bd2a1e651a6eb7,5f47ee4b84ba2724c92aa8e1,5,,,,,,candle,,,,,,0,29,29,23,1,3,2,,,,,,,,,,,,,,,,,,,,,,,,,,,,,,,,,,,,,,,,,,,,,,,,,,,,,,,,,,,,,,,,,,,,,,,,,,,,,,,,,,,,,,,,,,,,,,,,,,,,,,,,,,,,,
,,,,,,,,,,stimuli/images/PICTURE_57.png,CASINO,5f2f19107e19512f94ede28b,22/07/1999,2020-08-27_18h33.31.866,proactive3.1,2020.1.2,Win32,60,5f47c29a48bd2a1e651a6eb7,5f47ee4b84ba2724c92aa8e1,5,,,,,,stamp,,,,,,0,30,30,12,1,2,2,,,,,,,,,,,,,,,,,,,,,,,,,,,,,,,,,,,,,,,,,,,,,,,,,,,,,,,,,,,,,,,,,,,,,,,,,,,,,,,,,,,,,,,,,,,,,,,,,,,,,,,,,,,,,
,,,,,,,,,,stimuli/images/PICTURE_504.png,HOUSE,5f2f19107e19512f94ede28b,22/07/1999,2020-08-27_18h33.31.866,proactive3.1,2020.1.2,Win32,60,5f47c29a48bd2a1e651a6eb7,5f47ee4b84ba2724c92aa8e1,5,,,,,,wheel,,,,,,0,31,31,36,1,4,2,,,,,,,,,,,,,,,,,,,,,,,,,,,,,,,,,,,,,,,,,,,,,,,,,,,,,,,,,,,,,,,,,,,,,,,,,,,,,,,,,,,,,,,,,,,,,,,,,,,,,,,,,,,,,
,,,,,,,,,,stimuli/images/PICTURE_18.png,RIVER,5f2f19107e19512f94ede28b,22/07/1999,2020-08-27_18h33.31.866,proactive3.1,2020.1.2,Win32,60,5f47c29a48bd2a1e651a6eb7,5f47ee4b84ba2724c92aa8e1,5,,,,,,planet,,,,,,0,32,32,22,1,3,2,,,,,,,,,,,,,,,,,,,,,,,,,,,,,,,,,,,,,,,,,,,,,,,,,,,,,,,,,,,,,,,,,,,,,,,,,,,,,,,,,,,,,,,,,,,,,,,,,,,,,,,,,,,,,
,,,,,,,,,,stimuli/images/PICTURE_297.png,BODY,5f2f19107e19512f94ede28b,22/07/1999,2020-08-27_18h33.31.866,proactive3.1,2020.1.2,Win32,60,5f47c29a48bd2a1e651a6eb7,5f47ee4b84ba2724c92aa8e1,5,,,,,,aeroplane,,,,,,0,33,33,51,1,6,2,,,,,,,,,,,,,,,,,,,,,,,,,,,,,,,,,,,,,,,,,,,,,,,,,,,,,,,,,,,,,,,,,,,,,,,,,,,,,,,,,,,,,,,,,,,,,,,,,,,,,,,,,,,,,
,,,,,,,,,,stimuli/images/PICTURE_177.png,HOUSE,5f2f19107e19512f94ede28b,22/07/1999,2020-08-27_18h33.31.866,proactive3.1,2020.1.2,Win32,60,5f47c29a48bd2a1e651a6eb7,5f47ee4b84ba2724c92aa8e1,5,,,,,,mushroom,,,,,,0,34,34,25,1,3,2,,,,,,,,,,,,,,,,,,,,,,,,,,,,,,,,,,,,,,,,,,,,,,,,,,,,,,,,,,,,,,,,,,,,,,,,,,,,,,,,,,,,,,,,,,,,,,,,,,,,,,,,,,,,,
,,,,,,,,,,stimuli/images/PICTURE_692.png,DUDE,5f2f19107e19512f94ede28b,22/07/1999,2020-08-27_18h33.31.866,proactive3.1,2020.1.2,Win32,60,5f47c29a48bd2a1e651a6eb7,5f47ee4b84ba2724c92aa8e1,5,,,,,,cherry,,,,,,0,35,35,47,1,5,2,,,,,,,,,,,,,,,,,,,,,,,,,,,,,,,,,,,,,,,,,,,,,,,,,,,,,,,,,,,,,,,,,,,,,,,,,,,,,,,,,,,,,,,,,,,,,,,,,,,,,,,,,,,,,
,,,,,,,,,,stimuli/images/PICTURE_2.png,AREA,5f2f19107e19512f94ede28b,22/07/1999,2020-08-27_18h33.31.866,proactive3.1,2020.1.2,Win32,60,5f47c29a48bd2a1e651a6eb7,5f47ee4b84ba2724c92aa8e1,5,,,,,,tyre,,,,,,0,36,36,32,1,4,2,,,,,,,,,,,,,,,,,,,,,,,,,,,,,,,,,,,,,,,,,,,,,,,,,,,,,,,,,,,,,,,,,,,,,,,,,,,,,,,,,,,,,,,,,,,,,,,,,,,,,,,,,,,,,
,,,,,,,,,,stimuli/images/PICTURE_123.png,SALE,5f2f19107e19512f94ede28b,22/07/1999,2020-08-27_18h33.31.866,proactive3.1,2020.1.2,Win32,60,5f47c29a48bd2a1e651a6eb7,5f47ee4b84ba2724c92aa8e1,5,,,,,,dart,,,,,,0,37,37,8,1,1,2,,,,,,,,,,,,,,,,,,,,,,,,,,,,,,,,,,,,,,,,,,,,,,,,,,,,,,,,,,,,,,,,,,,,,,,,,,,,,,,,,,,,,,,,,,,,,,,,,,,,,,,,,,,,,
,,,,,,,,,,stimuli/images/PICTURE_452.png,COPS,5f2f19107e19512f94ede28b,22/07/1999,2020-08-27_18h33.31.866,proactive3.1,2020.1.2,Win32,60,5f47c29a48bd2a1e651a6eb7,5f47ee4b84ba2724c92aa8e1,5,,,,,,watch,,,,,,0,38,38,0,1,1,2,,,,,,,,,,,,,,,,,,,,,,,,,,,,,,,,,,,,,,,,,,,,,,,,,,,,,,,,,,,,,,,,,,,,,,,,,,,,,,,,,,,,,,,,,,,,,,,,,,,,,,,,,,,,,
,,,,,,,,,,stimuli/images/PICTURE_57.png,NATION,5f2f19107e19512f94ede28b,22/07/1999,2020-08-27_18h33.31.866,proactive3.1,2020.1.2,Win32,60,5f47c29a48bd2a1e651a6eb7,5f47ee4b84ba2724c92aa8e1,5,,,,,,stamp,,,,,,0,39,39,21,1,3,2,,,,,,,,,,,,,,,,,,,,,,,,,,,,,,,,,,,,,,,,,,,,,,,,,,,,,,,,,,,,,,,,,,,,,,,,,,,,,,,,,,,,,,,,,,,,,,,,,,,,,,,,,,,,,
,,,,,,,,,,stimuli/images/PICTURE_509.png,BATH,5f2f19107e19512f94ede28b,22/07/1999,2020-08-27_18h33.31.866,proactive3.1,2020.1.2,Win32,60,5f47c29a48bd2a1e651a6eb7,5f47ee4b84ba2724c92aa8e1,5,,,,,,telephone,,,,,,0,40,40,15,1,2,2,,,,,,,,,,,,,,,,,,,,,,,,,,,,,,,,,,,,,,,,,,,,,,,,,,,,,,,,,,,,,,,,,,,,,,,,,,,,,,,,,,,,,,,,,,,,,,,,,,,,,,,,,,,,,
,,,,,,,,,,stimuli/images/PICTURE_57.png,CANDY,5f2f19107e19512f94ede28b,22/07/1999,2020-08-27_18h33.31.866,proactive3.1,2020.1.2,Win32,60,5f47c29a48bd2a1e651a6eb7,5f47ee4b84ba2724c92aa8e1,5,,,,,,stamp,,,,,,0,41,41,52,1,6,2,,,,,,,,,,,,,,,,,,,,,,,,,,,,,,,,,,,,,,,,,,,,,,,,,,,,,,,,,,,,,,,,,,,,,,,,,,,,,,,,,,,,,,,,,,,,,,,,,,,,,,,,,,,,,
,,,,,,,,,,stimuli/images/PICTURE_654.png,YEAR,5f2f19107e19512f94ede28b,22/07/1999,2020-08-27_18h33.31.866,proactive3.1,2020.1.2,Win32,60,5f47c29a48bd2a1e651a6eb7,5f47ee4b84ba2724c92aa8e1,5,,,,,,pencil,,,,,,0,42,42,41,1,5,2,,,,,,,,,,,,,,,,,,,,,,,,,,,,,,,,,,,,,,,,,,,,,,,,,,,,,,,,,,,,,,,,,,,,,,,,,,,,,,,,,,,,,,,,,,,,,,,,,,,,,,,,,,,,,
,,,,,,,,,,stimuli/images/PICTURE_141.png,CLIENT,5f2f19107e19512f94ede28b,22/07/1999,2020-08-27_18h33.31.866,proactive3.1,2020.1.2,Win32,60,5f47c29a48bd2a1e651a6eb7,5f47ee4b84ba2724c92aa8e1,5,,,,,,sunflower,,,,,,0,43,43,30,1,4,2,,,,,,,,,,,,,,,,,,,,,,,,,,,,,,,,,,,,,,,,,,,,,,,,,,,,,,,,,,,,,,,,,,,,,,,,,,,,,,,,,,,,,,,,,,,,,,,,,,,,,,,,,,,,,
,,,,,,,,,,stimuli/images/PICTURE_32.png,LETTER,5f2f19107e19512f94ede28b,22/07/1999,2020-08-27_18h33.31.866,proactive3.1,2020.1.2,Win32,60,5f47c29a48bd2a1e651a6eb7,5f47ee4b84ba2724c92aa8e1,5,,,,,,crown,,,,,,0,44,44,56,1,6,2,,,,,,,,,,,,,,,,,,,,,,,,,,,,,,,,,,,,,,,,,,,,,,,,,,,,,,,,,,,,,,,,,,,,,,,,,,,,,,,,,,,,,,,,,,,,,,,,,,,,,,,,,,,,,
,,,,,,,,,,stimuli/images/PICTURE_509.png,MILLER,5f2f19107e19512f94ede28b,22/07/1999,2020-08-27_18h33.31.866,proactive3.1,2020.1.2,Win32,60,5f47c29a48bd2a1e651a6eb7,5f47ee4b84ba2724c92aa8e1,5,,,,,,telephone,,,,,,0,45,45,49,1,5,2,,,,,,,,,,,,,,,,,,,,,,,,,,,,,,,,,,,,,,,,,,,,,,,,,,,,,,,,,,,,,,,,,,,,,,,,,,,,,,,,,,,,,,,,,,,,,,,,,,,,,,,,,,,,,
,,,,,,,,,,stimuli/images/PICTURE_285.png,PRINCE,5f2f19107e19512f94ede28b,22/07/1999,2020-08-27_18h33.31.866,proactive3.1,2020.1.2,Win32,60,5f47c29a48bd2a1e651a6eb7,5f47ee4b84ba2724c92aa8e1,5,,,,,,carrot,,,,,,0,46,46,20,1,3,2,,,,,,,,,,,,,,,,,,,,,,,,,,,,,,,,,,,,,,,,,,,,,,,,,,,,,,,,,,,,,,,,,,,,,,,,,,,,,,,,,,,,,,,,,,,,,,,,,,,,,,,,,,,,,
,,,,,,,,,,stimuli/images/PICTURE_93.png,GIRL,5f2f19107e19512f94ede28b,22/07/1999,2020-08-27_18h33.31.866,proactive3.1,2020.1.2,Win32,60,5f47c29a48bd2a1e651a6eb7,5f47ee4b84ba2724c92aa8e1,5,,,,,,skateboard,,,,,,0,47,47,31,1,4,2,,,,,,,,,,,,,,,,,,,,,,,,,,,,,,,,,,,,,,,,,,,,,,,,,,,,,,,,,,,,,,,,,,,,,,,,,,,,,,,,,,,,,,,,,,,,,,,,,,,,,,,,,,,,,
,,,,,,,,,,stimuli/images/PICTURE_356.png,CANDY,5f2f19107e19512f94ede28b,22/07/1999,2020-08-27_18h33.31.866,proactive3.1,2020.1.2,Win32,60,5f47c29a48bd2a1e651a6eb7,5f47ee4b84ba2724c92aa8e1,5,,,,,,pawn,,,,,,0,48,48,46,1,5,2,,,,,,,,,,,,,,,,,,,,,,,,,,,,,,,,,,,,,,,,,,,,,,,,,,,,,,,,,,,,,,,,,,,,,,,,,,,,,,,,,,,,,,,,,,,,,,,,,,,,,,,,,,,,,
,,,,,,,,,,stimuli/images/PICTURE_487.png,POLICY,5f2f19107e19512f94ede28b,22/07/1999,2020-08-27_18h33.31.866,proactive3.1,2020.1.2,Win32,60,5f47c29a48bd2a1e651a6eb7,5f47ee4b84ba2724c92aa8e1,5,,,,,,basket,,,,,,0,49,49,34,1,4,2,,,,,,,,,,,,,,,,,,,,,,,,,,,,,,,,,,,,,,,,,,,,,,,,,,,,,,,,,,,,,,,,,,,,,,,,,,,,,,,,,,,,,,,,,,,,,,,,,,,,,,,,,,,,,
,,,,,,,,,,stimuli/images/PICTURE_487.png,ROOF,5f2f19107e19512f94ede28b,22/07/1999,2020-08-27_18h33.31.866,proactive3.1,2020.1.2,Win32,60,5f47c29a48bd2a1e651a6eb7,5f47ee4b84ba2724c92aa8e1,5,,,,,,basket,,,,,,0,50,50,50,1,6,2,,,,,,,,,,,,,,,,,,,,,,,,,,,,,,,,,,,,,,,,,,,,,,,,,,,,,,,,,,,,,,,,,,,,,,,,,,,,,,,,,,,,,,,,,,,,,,,,,,,,,,,,,,,,,
,,,,,,,,,,stimuli/images/PICTURE_405.png,JUNGLE,5f2f19107e19512f94ede28b,22/07/1999,2020-08-27_18h33.31.866,proactive3.1,2020.1.2,Win32,60,5f47c29a48bd2a1e651a6eb7,5f47ee4b84ba2724c92aa8e1,5,,,,,,anchor,,,,,,0,51,51,58,1,6,2,,,,,,,,,,,,,,,,,,,,,,,,,,,,,,,,,,,,,,,,,,,,,,,,,,,,,,,,,,,,,,,,,,,,,,,,,,,,,,,,,,,,,,,,,,,,,,,,,,,,,,,,,,,,,
,,,,,,,,,,stimuli/images/PICTURE_255.png,PENNY,5f2f19107e19512f94ede28b,22/07/1999,2020-08-27_18h33.31.866,proactive3.1,2020.1.2,Win32,60,5f47c29a48bd2a1e651a6eb7,5f47ee4b84ba2724c92aa8e1,5,,,,,,shovel,,,,,,0,52,52,19,1,2,2,,,,,,,,,,,,,,,,,,,,,,,,,,,,,,,,,,,,,,,,,,,,,,,,,,,,,,,,,,,,,,,,,,,,,,,,,,,,,,,,,,,,,,,,,,,,,,,,,,,,,,,,,,,,,
,,,,,,,,,,stimuli/images/PICTURE_470.png,BEAUTY,5f2f19107e19512f94ede28b,22/07/1999,2020-08-27_18h33.31.866,proactive3.1,2020.1.2,Win32,60,5f47c29a48bd2a1e651a6eb7,5f47ee4b84ba2724c92aa8e1,5,,,,,,motorbike,,,,,,0,53,53,26,1,3,2,,,,,,,,,,,,,,,,,,,,,,,,,,,,,,,,,,,,,,,,,,,,,,,,,,,,,,,,,,,,,,,,,,,,,,,,,,,,,,,,,,,,,,,,,,,,,,,,,,,,,,,,,,,,,
,,,,,,,,,,stimuli/images/PICTURE_491.png,SERIES,5f2f19107e19512f94ede28b,22/07/1999,2020-08-27_18h33.31.866,proactive3.1,2020.1.2,Win32,60,5f47c29a48bd2a1e651a6eb7,5f47ee4b84ba2724c92aa8e1,5,,,,,,rug,,,,,,0,54,54,39,1,4,2,,,,,,,,,,,,,,,,,,,,,,,,,,,,,,,,,,,,,,,,,,,,,,,,,,,,,,,,,,,,,,,,,,,,,,,,,,,,,,,,,,,,,,,,,,,,,,,,,,,,,,,,,,,,,
,,,,,,,,,,stimuli/images/PICTURE_95.png,NIGHT,5f2f19107e19512f94ede28b,22/07/1999,2020-08-27_18h33.31.866,proactive3.1,2020.1.2,Win32,60,5f47c29a48bd2a1e651a6eb7,5f47ee4b84ba2724c92aa8e1,5,,,,,,suitcase,,,,,,0,55,55,37,1,4,2,,,,,,,,,,,,,,,,,,,,,,,,,,,,,,,,,,,,,,,,,,,,,,,,,,,,,,,,,,,,,,,,,,,,,,,,,,,,,,,,,,,,,,,,,,,,,,,,,,,,,,,,,,,,,
,,,,,,,,,,stimuli/images/PICTURE_2.png,YARD,5f2f19107e19512f94ede28b,22/07/1999,2020-08-27_18h33.31.866,proactive3.1,2020.1.2,Win32,60,5f47c29a48bd2a1e651a6eb7,5f47ee4b84ba2724c92aa8e1,5,,,,,,tyre,,,,,,0,56,56,55,1,6,2,,,,,,,,,,,,,,,,,,,,,,,,,,,,,,,,,,,,,,,,,,,,,,,,,,,,,,,,,,,,,,,,,,,,,,,,,,,,,,,,,,,,,,,,,,,,,,,,,,,,,,,,,,,,,
,,,,,,,,,,stimuli/images/PICTURE_311.png,TOILET,5f2f19107e19512f94ede28b,22/07/1999,2020-08-27_18h33.31.866,proactive3.1,2020.1.2,Win32,60,5f47c29a48bd2a1e651a6eb7,5f47ee4b84ba2724c92aa8e1,5,,,,,,razor,,,,,,0,57,57,54,1,6,2,,,,,,,,,,,,,,,,,,,,,,,,,,,,,,,,,,,,,,,,,,,,,,,,,,,,,,,,,,,,,,,,,,,,,,,,,,,,,,,,,,,,,,,,,,,,,,,,,,,,,,,,,,,,,
,,,,,,,,,,stimuli/images/PICTURE_327.png,LEADER,5f2f19107e19512f94ede28b,22/07/1999,2020-08-27_18h33.31.866,proactive3.1,2020.1.2,Win32,60,5f47c29a48bd2a1e651a6eb7,5f47ee4b84ba2724c92aa8e1,5,,,,,,helmet,,,,,,0,58,58,17,1,2,2,,,,,,,,,,,,,,,,,,,,,,,,,,,,,,,,,,,,,,,,,,,,,,,,,,,,,,,,,,,,,,,,,,,,,,,,,,,,,,,,,,,,,,,,,,,,,,,,,,,,,,,,,,,,,
,,?,0.002975,0,,,,,,stimuli/images/PICTURE_314.png,SPEECH,5f2f19107e19512f94ede28b,22/07/1999,2020-08-27_18h33.31.866,proactive3.1,2020.1.2,Win32,60,5f47c29a48bd2a1e651a6eb7,5f47ee4b84ba2724c92aa8e1,5,,,,,,perfume,,,,,,,,,,,4,2,0,0,0,35,1,,,,,,,,,,,,,,,,,,,,,,,,,,,,,,,,,,,,,,,,,,,,,,,,,,,,,,,,,,,,,,,,,,,,,,,,,,,,,,,,,,,,,,,,,,,,,,,,,,,,,,,,
,,?,0.002065,0,,,,,,stimuli/images/PICTURE_491.png,SERIES,5f2f19107e19512f94ede28b,22/07/1999,2020-08-27_18h33.31.866,proactive3.1,2020.1.2,Win32,60,5f47c29a48bd2a1e651a6eb7,5f47ee4b84ba2724c92aa8e1,5,,,,,,rug,,,,,,,,,,,4,2,0,1,1,39,1,,,,,,,,,,,,,,,,,,,,,,,,,,,,,,,,,,,,,,,,,,,,,,,,,,,,,,,,,,,,,,,,,,,,,,,,,,,,,,,,,,,,,,,,,,,,,,,,,,,,,,,,
,,?,0.002325,0,,,,,,stimuli/images/PICTURE_285.png,WRITER,5f2f19107e19512f94ede28b,22/07/1999,2020-08-27_18h33.31.866,proactive3.1,2020.1.2,Win32,60,5f47c29a48bd2a1e651a6eb7,5f47ee4b84ba2724c92aa8e1,5,,,,,,carrot,,,,,,,,,,,1,2,0,2,2,6,1,,,,,,,,,,,,,,,,,,,,,,,,,,,,,,,,,,,,,,,,,,,,,,,,,,,,,,,,,,,,,,,,,,,,,,,,,,,,,,,,,,,,,,,,,,,,,,,,,,,,,,,,
,,?,0.00224,0,,,,,,stimuli/images/PICTURE_348.png,DUDE,5f2f19107e19512f94ede28b,22/07/1999,2020-08-27_18h33.31.866,proactive3.1,2020.1.2,Win32,60,5f47c29a48bd2a1e651a6eb7,5f47ee4b84ba2724c92aa8e1,5,,,,,,pepper,,,,,,,,,,,6,2,0,3,3,59,1,,,,,,,,,,,,,,,,,,,,,,,,,,,,,,,,,,,,,,,,,,,,,,,,,,,,,,,,,,,,,,,,,,,,,,,,,,,,,,,,,,,,,,,,,,,,,,,,,,,,,,,,
,,?,0.0018,0,,,,,,stimuli/images/PICTURE_667.png,GLASS,5f2f19107e19512f94ede28b,22/07/1999,2020-08-27_18h33.31.866,proactive3.1,2020.1.2,Win32,60,5f47c29a48bd2a1e651a6eb7,5f47ee4b84ba2724c92aa8e1,5,,,,,,daisy,,,,,,,,,,,3,2,0,4,4,27,1,,,,,,,,,,,,,,,,,,,,,,,,,,,,,,,,,,,,,,,,,,,,,,,,,,,,,,,,,,,,,,,,,,,,,,,,,,,,,,,,,,,,,,,,,,,,,,,,,,,,,,,,
,,?,0.00372,0,,,,,,stimuli/images/PICTURE_327.png,LEADER,5f2f19107e19512f94ede28b,22/07/1999,2020-08-27_18h33.31.866,proactive3.1,2020.1.2,Win32,60,5f47c29a48bd2a1e651a6eb7,5f47ee4b84ba2724c92aa8e1,5,,,,,,helmet,,,,,,,,,,,2,2,0,5,5,17,1,,,,,,,,,,,,,,,,,,,,,,,,,,,,,,,,,,,,,,,,,,,,,,,,,,,,,,,,,,,,,,,,,,,,,,,,,,,,,,,,,,,,,,,,,,,,,,,,,,,,,,,,
,,?,0.00272,0,,,,,,stimuli/images/PICTURE_677.png,PHOTO,5f2f19107e19512f94ede28b,22/07/1999,2020-08-27_18h33.31.866,proactive3.1,2020.1.2,Win32,60,5f47c29a48bd2a1e651a6eb7,5f47ee4b84ba2724c92aa8e1,5,,,,,,map,,,,,,,,,,,2,2,0,6,6,14,1,,,,,,,,,,,,,,,,,,,,,,,,,,,,,,,,,,,,,,,,,,,,,,,,,,,,,,,,,,,,,,,,,,,,,,,,,,,,,,,,,,,,,,,,,,,,,,,,,,,,,,,,
,,?,0.002,0,,,,,,stimuli/images/PICTURE_2.png,JUNGLE,5f2f19107e19512f94ede28b,22/07/1999,2020-08-27_18h33.31.866,proactive3.1,2020.1.2,Win32,60,5f47c29a48bd2a1e651a6eb7,5f47ee4b84ba2724c92aa8e1,5,,,,,,tyre,,,,,,,,,,,1,2,0,7,7,1,1,,,,,,,,,,,,,,,,,,,,,,,,,,,,,,,,,,,,,,,,,,,,,,,,,,,,,,,,,,,,,,,,,,,,,,,,,,,,,,,,,,,,,,,,,,,,,,,,,,,,,,,,
,,VALLEY,15.01416,1,,,,,,stimuli/images/PICTURE_708.png,VALLEY,5f2f19107e19512f94ede28b,22/07/1999,2020-08-27_18h33.31.866,proactive3.1,2020.1.2,Win32,60,5f47c29a48bd2a1e651a6eb7,5f47ee4b84ba2724c92aa8e1,5,,,,,,monkey,,,,,,,,,,,5,2,0,8,8,45,1,,,,,,,,,,,,,,,,,,,,,,,,,,,,,,,,,,,,,,,,,,,,,,,,,,,,,,,,,,,,,,,,,,,,,,,,,,,,,,,,,,,,,,,,,,,,,,,,,,,,,,,,
,,LEADER,15.013415,0,,,,,,stimuli/images/PICTURE_509.png,MILLER,5f2f19107e19512f94ede28b,22/07/1999,2020-08-27_18h33.31.866,proactive3.1,2020.1.2,Win32,60,5f47c29a48bd2a1e651a6eb7,5f47ee4b84ba2724c92aa8e1,5,,,,,,telephone,,,,,,,,,,,5,2,0,9,9,49,1,,,,,,,,,,,,,,,,,,,,,,,,,,,,,,,,,,,,,,,,,,,,,,,,,,,,,,,,,,,,,,,,,,,,,,,,,,,,,,,,,,,,,,,,,,,,,,,,,,,,,,,,
,,?,0.00236,0,,,,,,stimuli/images/PICTURE_470.png,BEAUTY,5f2f19107e19512f94ede28b,22/07/1999,2020-08-27_18h33.31.866,proactive3.1,2020.1.2,Win32,60,5f47c29a48bd2a1e651a6eb7,5f47ee4b84ba2724c92aa8e1,5,,,,,,motorbike,,,,,,,,,,,3,2,0,10,10,26,1,,,,,,,,,,,,,,,,,,,,,,,,,,,,,,,,,,,,,,,,,,,,,,,,,,,,,,,,,,,,,,,,,,,,,,,,,,,,,,,,,,,,,,,,,,,,,,,,,,,,,,,,
,,?,0.00291,0,,,,,,stimuli/images/PICTURE_123.png,SALE,5f2f19107e19512f94ede28b,22/07/1999,2020-08-27_18h33.31.866,proactive3.1,2020.1.2,Win32,60,5f47c29a48bd2a1e651a6eb7,5f47ee4b84ba2724c92aa8e1,5,,,,,,dart,,,,,,,,,,,1,2,0,11,11,8,1,,,,,,,,,,,,,,,,,,,,,,,,,,,,,,,,,,,,,,,,,,,,,,,,,,,,,,,,,,,,,,,,,,,,,,,,,,,,,,,,,,,,,,,,,,,,,,,,,,,,,,,,
,,?,0.00453,0,,,,,,stimuli/images/PICTURE_215.png,BOYS,5f2f19107e19512f94ede28b,22/07/1999,2020-08-27_18h33.31.866,proactive3.1,2020.1.2,Win32,60,5f47c29a48bd2a1e651a6eb7,5f47ee4b84ba2724c92aa8e1,5,,,,,,boot,,,,,,,,,,,3,2,0,12,12,24,1,,,,,,,,,,,,,,,,,,,,,,,,,,,,,,,,,,,,,,,,,,,,,,,,,,,,,,,,,,,,,,,,,,,,,,,,,,,,,,,,,,,,,,,,,,,,,,,,,,,,,,,,
,,?,0.00184,0,,,,,,stimuli/images/PICTURE_311.png,FLESH,5f2f19107e19512f94ede28b,22/07/1999,2020-08-27_18h33.31.866,proactive3.1,2020.1.2,Win32,60,5f47c29a48bd2a1e651a6eb7,5f47ee4b84ba2724c92aa8e1,5,,,,,,razor,,,,,,,,,,,1,2,0,13,13,3,1,,,,,,,,,,,,,,,,,,,,,,,,,,,,,,,,,,,,,,,,,,,,,,,,,,,,,,,,,,,,,,,,,,,,,,,,,,,,,,,,,,,,,,,,,,,,,,,,,,,,,,,,
,,CANDY,15.00217,1,,,,,,stimuli/images/PICTURE_356.png,CANDY,5f2f19107e19512f94ede28b,22/07/1999,2020-08-27_18h33.31.866,proactive3.1,2020.1.2,Win32,60,5f47c29a48bd2a1e651a6eb7,5f47ee4b84ba2724c92aa8e1,5,,,,,,pawn,,,,,,,,,,,5,2,0,14,14,46,1,,,,,,,,,,,,,,,,,,,,,,,,,,,,,,,,,,,,,,,,,,,,,,,,,,,,,,,,,,,,,,,,,,,,,,,,,,,,,,,,,,,,,,,,,,,,,,,,,,,,,,,,
,,?,0.002025,0,,,,,,stimuli/images/PICTURE_452.png,COPS,5f2f19107e19512f94ede28b,22/07/1999,2020-08-27_18h33.31.866,proactive3.1,2020.1.2,Win32,60,5f47c29a48bd2a1e651a6eb7,5f47ee4b84ba2724c92aa8e1,5,,,,,,watch,,,,,,,,,,,1,2,0,15,15,0,1,,,,,,,,,,,,,,,,,,,,,,,,,,,,,,,,,,,,,,,,,,,,,,,,,,,,,,,,,,,,,,,,,,,,,,,,,,,,,,,,,,,,,,,,,,,,,,,,,,,,,,,,
,,?,0.00236,0,,,,,,stimuli/images/PICTURE_487.png,POLICY,5f2f19107e19512f94ede28b,22/07/1999,2020-08-27_18h33.31.866,proactive3.1,2020.1.2,Win32,60,5f47c29a48bd2a1e651a6eb7,5f47ee4b84ba2724c92aa8e1,5,,,,,,basket,,,,,,,,,,,4,2,0,16,16,34,1,,,,,,,,,,,,,,,,,,,,,,,,,,,,,,,,,,,,,,,,,,,,,,,,,,,,,,,,,,,,,,,,,,,,,,,,,,,,,,,,,,,,,,,,,,,,,,,,,,,,,,,,
,,?,0.002175,0,,,,,,stimuli/images/PICTURE_296.png,CLOCK,5f2f19107e19512f94ede28b,22/07/1999,2020-08-27_18h33.31.866,proactive3.1,2020.1.2,Win32,60,5f47c29a48bd2a1e651a6eb7,5f47ee4b84ba2724c92aa8e1,5,,,,,,bolt,,,,,,,,,,,2,2,0,17,17,18,1,,,,,,,,,,,,,,,,,,,,,,,,,,,,,,,,,,,,,,,,,,,,,,,,,,,,,,,,,,,,,,,,,,,,,,,,,,,,,,,,,,,,,,,,,,,,,,,,,,,,,,,,
,,MOMENT,15.012785,1,,,,,,stimuli/images/PICTURE_470.png,MOMENT,5f2f19107e19512f94ede28b,22/07/1999,2020-08-27_18h33.31.866,proactive3.1,2020.1.2,Win32,60,5f47c29a48bd2a1e651a6eb7,5f47ee4b84ba2724c92aa8e1,5,,,,,,motorbike,,,,,,,,,,,5,2,0,18,18,40,1,,,,,,,,,,,,,,,,,,,,,,,,,,,,,,,,,,,,,,,,,,,,,,,,,,,,,,,,,,,,,,,,,,,,,,,,,,,,,,,,,,,,,,,,,,,,,,,,,,,,,,,,
,,?,0.002595,0,,,,,,stimuli/images/PICTURE_93.png,GIRL,5f2f19107e19512f94ede28b,22/07/1999,2020-08-27_18h33.31.866,proactive3.1,2020.1.2,Win32,60,5f47c29a48bd2a1e651a6eb7,5f47ee4b84ba2724c92aa8e1,5,,,,,,skateboard,,,,,,,,,,,4,2,0,19,19,31,1,,,,,,,,,,,,,,,,,,,,,,,,,,,,,,,,,,,,,,,,,,,,,,,,,,,,,,,,,,,,,,,,,,,,,,,,,,,,,,,,,,,,,,,,,,,,,,,,,,,,,,,,
,,?,0.003815,0,,,,,,stimuli/images/PICTURE_285.png,PRINCE,5f2f19107e19512f94ede28b,22/07/1999,2020-08-27_18h33.31.866,proactive3.1,2020.1.2,Win32,60,5f47c29a48bd2a1e651a6eb7,5f47ee4b84ba2724c92aa8e1,5,,,,,,carrot,,,,,,,,,,,3,2,0,20,20,20,1,,,,,,,,,,,,,,,,,,,,,,,,,,,,,,,,,,,,,,,,,,,,,,,,,,,,,,,,,,,,,,,,,,,,,,,,,,,,,,,,,,,,,,,,,,,,,,,,,,,,,,,,
,,?,0.00298,0,,,,,,stimuli/images/PICTURE_509.png,APPLE,5f2f19107e19512f94ede28b,22/07/1999,2020-08-27_18h33.31.866,proactive3.1,2020.1.2,Win32,60,5f47c29a48bd2a1e651a6eb7,5f47ee4b84ba2724c92aa8e1,5,,,,,,telephone,,,,,,,,,,,4,2,0,21,21,38,1,,,,,,,,,,,,,,,,,,,,,,,,,,,,,,,,,,,,,,,,,,,,,,,,,,,,,,,,,,,,,,,,,,,,,,,,,,,,,,,,,,,,,,,,,,,,,,,,,,,,,,,,
,,?,0.00198,0,,,,,,stimuli/images/PICTURE_68.png,KIND,5f2f19107e19512f94ede28b,22/07/1999,2020-08-27_18h33.31.866,proactive3.1,2020.1.2,Win32,60,5f47c29a48bd2a1e651a6eb7,5f47ee4b84ba2724c92aa8e1,5,,,,,,candle,,,,,,,,,,,3,2,0,22,22,23,1,,,,,,,,,,,,,,,,,,,,,,,,,,,,,,,,,,,,,,,,,,,,,,,,,,,,,,,,,,,,,,,,,,,,,,,,,,,,,,,,,,,,,,,,,,,,,,,,,,,,,,,,
,,LEADER,15.013265,1,,,,,,stimuli/images/PICTURE_215.png,LEADER,5f2f19107e19512f94ede28b,22/07/1999,2020-08-27_18h33.31.866,proactive3.1,2020.1.2,Win32,60,5f47c29a48bd2a1e651a6eb7,5f47ee4b84ba2724c92aa8e1,5,,,,,,boot,,,,,,,,,,,5,2,0,23,23,43,1,,,,,,,,,,,,,,,,,,,,,,,,,,,,,,,,,,,,,,,,,,,,,,,,,,,,,,,,,,,,,,,,,,,,,,,,,,,,,,,,,,,,,,,,,,,,,,,,,,,,,,,,
,,?,0.00202,0,,,,,,stimuli/images/PICTURE_504.png,HOUSE,5f2f19107e19512f94ede28b,22/07/1999,2020-08-27_18h33.31.866,proactive3.1,2020.1.2,Win32,60,5f47c29a48bd2a1e651a6eb7,5f47ee4b84ba2724c92aa8e1,5,,,,,,wheel,,,,,,,,,,,4,2,0,24,24,36,1,,,,,,,,,,,,,,,,,,,,,,,,,,,,,,,,,,,,,,,,,,,,,,,,,,,,,,,,,,,,,,,,,,,,,,,,,,,,,,,,,,,,,,,,,,,,,,,,,,,,,,,,
,,?,0.00177,0,,,,,,stimuli/images/PICTURE_403.png,FAMILY,5f2f19107e19512f94ede28b,22/07/1999,2020-08-27_18h33.31.866,proactive3.1,2020.1.2,Win32,60,5f47c29a48bd2a1e651a6eb7,5f47ee4b84ba2724c92aa8e1,5,,,,,,cathedral,,,,,,,,,,,1,2,0,25,25,9,1,,,,,,,,,,,,,,,,,,,,,,,,,,,,,,,,,,,,,,,,,,,,,,,,,,,,,,,,,,,,,,,,,,,,,,,,,,,,,,,,,,,,,,,,,,,,,,,,,,,,,,,,
,,?,0.002035,0,,,,,,stimuli/images/PICTURE_18.png,RIVER,5f2f19107e19512f94ede28b,22/07/1999,2020-08-27_18h33.31.866,proactive3.1,2020.1.2,Win32,60,5f47c29a48bd2a1e651a6eb7,5f47ee4b84ba2724c92aa8e1,5,,,,,,planet,,,,,,,,,,,3,2,0,26,26,22,1,,,,,,,,,,,,,,,,,,,,,,,,,,,,,,,,,,,,,,,,,,,,,,,,,,,,,,,,,,,,,,,,,,,,,,,,,,,,,,,,,,,,,,,,,,,,,,,,,,,,,,,,
,,?,0.00286,0,,,,,,stimuli/images/PICTURE_32.png,LETTER,5f2f19107e19512f94ede28b,22/07/1999,2020-08-27_18h33.31.866,proactive3.1,2020.1.2,Win32,60,5f47c29a48bd2a1e651a6eb7,5f47ee4b84ba2724c92aa8e1,5,,,,,,crown,,,,,,,,,,,6,2,0,27,27,56,1,,,,,,,,,,,,,,,,,,,,,,,,,,,,,,,,,,,,,,,,,,,,,,,,,,,,,,,,,,,,,,,,,,,,,,,,,,,,,,,,,,,,,,,,,,,,,,,,,,,,,,,,
,,?,0.002225,0,,,,,,stimuli/images/PICTURE_348.png,TOILET,5f2f19107e19512f94ede28b,22/07/1999,2020-08-27_18h33.31.866,proactive3.1,2020.1.2,Win32,60,5f47c29a48bd2a1e651a6eb7,5f47ee4b84ba2724c92aa8e1,5,,,,,,pepper,,,,,,,,,,,1,2,0,28,28,4,1,,,,,,,,,,,,,,,,,,,,,,,,,,,,,,,,,,,,,,,,,,,,,,,,,,,,,,,,,,,,,,,,,,,,,,,,,,,,,,,,,,,,,,,,,,,,,,,,,,,,,,,,
,,?,0.0023,0,,,,,,stimuli/images/PICTURE_57.png,NATION,5f2f19107e19512f94ede28b,22/07/1999,2020-08-27_18h33.31.866,proactive3.1,2020.1.2,Win32,60,5f47c29a48bd2a1e651a6eb7,5f47ee4b84ba2724c92aa8e1,5,,,,,,stamp,,,,,,,,,,,3,2,0,29,29,21,1,,,,,,,,,,,,,,,,,,,,,,,,,,,,,,,,,,,,,,,,,,,,,,,,,,,,,,,,,,,,,,,,,,,,,,,,,,,,,,,,,,,,,,,,,,,,,,,,,,,,,,,,
,,?,0.00155,0,,,,,,stimuli/images/PICTURE_677.png,FAMILY,5f2f19107e19512f94ede28b,22/07/1999,2020-08-27_18h33.31.866,proactive3.1,2020.1.2,Win32,60,5f47c29a48bd2a1e651a6eb7,5f47ee4b84ba2724c92aa8e1,5,,,,,,map,,,,,,,,,,,6,2,0,30,30,53,1,,,,,,,,,,,,,,,,,,,,,,,,,,,,,,,,,,,,,,,,,,,,,,,,,,,,,,,,,,,,,,,,,,,,,,,,,,,,,,,,,,,,,,,,,,,,,,,,,,,,,,,,
,,?,0.00198,0,,,,,,stimuli/images/PICTURE_405.png,JUNGLE,5f2f19107e19512f94ede28b,22/07/1999,2020-08-27_18h33.31.866,proactive3.1,2020.1.2,Win32,60,5f47c29a48bd2a1e651a6eb7,5f47ee4b84ba2724c92aa8e1,5,,,,,,anchor,,,,,,,,,,,2,2,0,31,31,13,1,,,,,,,,,,,,,,,,,,,,,,,,,,,,,,,,,,,,,,,,,,,,,,,,,,,,,,,,,,,,,,,,,,,,,,,,,,,,,,,,,,,,,,,,,,,,,,,,,,,,,,,,
,,?,0.00167,0,,,,,,stimuli/images/PICTURE_654.png,COPS,5f2f19107e19512f94ede28b,22/07/1999,2020-08-27_18h33.31.866,proactive3.1,2020.1.2,Win32,60,5f47c29a48bd2a1e651a6eb7,5f47ee4b84ba2724c92aa8e1,5,,,,,,pencil,,,,,,,,,,,2,2,0,32,32,10,1,,,,,,,,,,,,,,,,,,,,,,,,,,,,,,,,,,,,,,,,,,,,,,,,,,,,,,,,,,,,,,,,,,,,,,,,,,,,,,,,,,,,,,,,,,,,,,,,,,,,,,,,
,,YEAR,15.01497,1,,,,,,stimuli/images/PICTURE_654.png,YEAR,5f2f19107e19512f94ede28b,22/07/1999,2020-08-27_18h33.31.866,proactive3.1,2020.1.2,Win32,60,5f47c29a48bd2a1e651a6eb7,5f47ee4b84ba2724c92aa8e1,5,,,,,,pencil,,,,,,,,,,,5,2,0,33,33,41,1,,,,,,,,,,,,,,,,,,,,,,,,,,,,,,,,,,,,,,,,,,,,,,,,,,,,,,,,,,,,,,,,,,,,,,,,,,,,,,,,,,,,,,,,,,,,,,,,,,,,,,,,
,,?,0.00266,0,,,,,,stimuli/images/PICTURE_141.png,CLIENT,5f2f19107e19512f94ede28b,22/07/1999,2020-08-27_18h33.31.866,proactive3.1,2020.1.2,Win32,60,5f47c29a48bd2a1e651a6eb7,5f47ee4b84ba2724c92aa8e1,5,,,,,,sunflower,,,,,,,,,,,4,2,0,34,34,30,1,,,,,,,,,,,,,,,,,,,,,,,,,,,,,,,,,,,,,,,,,,,,,,,,,,,,,,,,,,,,,,,,,,,,,,,,,,,,,,,,,,,,,,,,,,,,,,,,,,,,,,,,
,,?,0.008045,0,,,,,,stimuli/images/PICTURE_311.png,TOILET,5f2f19107e19512f94ede28b,22/07/1999,2020-08-27_18h33.31.866,proactive3.1,2020.1.2,Win32,60,5f47c29a48bd2a1e651a6eb7,5f47ee4b84ba2724c92aa8e1,5,,,,,,razor,,,,,,,,,,,6,2,0,35,35,54,1,,,,,,,,,,,,,,,,,,,,,,,,,,,,,,,,,,,,,,,,,,,,,,,,,,,,,,,,,,,,,,,,,,,,,,,,,,,,,,,,,,,,,,,,,,,,,,,,,,,,,,,,
,,CLOCK,15.01229,1,,,,,,stimuli/images/PICTURE_688.png,CLOCK,5f2f19107e19512f94ede28b,22/07/1999,2020-08-27_18h33.31.866,proactive3.1,2020.1.2,Win32,60,5f47c29a48bd2a1e651a6eb7,5f47ee4b84ba2724c92aa8e1,5,,,,,,runner,,,,,,,,,,,5,2,0,36,36,42,1,,,,,,,,,,,,,,,,,,,,,,,,,,,,,,,,,,,,,,,,,,,,,,,,,,,,,,,,,,,,,,,,,,,,,,,,,,,,,,,,,,,,,,,,,,,,,,,,,,,,,,,,
,,DUDE,15.012785,1,,,,,,stimuli/images/PICTURE_692.png,DUDE,5f2f19107e19512f94ede28b,22/07/1999,2020-08-27_18h33.31.866,proactive3.1,2020.1.2,Win32,60,5f47c29a48bd2a1e651a6eb7,5f47ee4b84ba2724c92aa8e1,5,,,,,,cherry,,,,,,,,,,,5,2,0,37,37,47,1,,,,,,,,,,,,,,,,,,,,,,,,,,,,,,,,,,,,,,,,,,,,,,,,,,,,,,,,,,,,,,,,,,,,,,,,,,,,,,,,,,,,,,,,,,,,,,,,,,,,,,,,
,,POLICY,15.01405,1,,,,,,stimuli/images/PICTURE_750.png,POLICY,5f2f19107e19512f94ede28b,22/07/1999,2020-08-27_18h33.31.866,proactive3.1,2020.1.2,Win32,60,5f47c29a48bd2a1e651a6eb7,5f47ee4b84ba2724c92aa8e1,5,,,,,,kettle,,,,,,,,,,,5,2,0,38,38,44,1,,,,,,,,,,,,,,,,,,,,,,,,,,,,,,,,,,,,,,,,,,,,,,,,,,,,,,,,,,,,,,,,,,,,,,,,,,,,,,,,,,,,,,,,,,,,,,,,,,,,,,,,
,,?,0.002605,0,,,,,,stimuli/images/PICTURE_147.png,LEADER,5f2f19107e19512f94ede28b,22/07/1999,2020-08-27_18h33.31.866,proactive3.1,2020.1.2,Win32,60,5f47c29a48bd2a1e651a6eb7,5f47ee4b84ba2724c92aa8e1,5,,,,,,hanger,,,,,,,,,,,4,2,0,39,39,33,1,,,,,,,,,,,,,,,,,,,,,,,,,,,,,,,,,,,,,,,,,,,,,,,,,,,,,,,,,,,,,,,,,,,,,,,,,,,,,,,,,,,,,,,,,,,,,,,,,,,,,,,,
,,?,0.002165,0,,,,,,stimuli/images/PICTURE_215.png,FOOD,5f2f19107e19512f94ede28b,22/07/1999,2020-08-27_18h33.31.866,proactive3.1,2020.1.2,Win32,60,5f47c29a48bd2a1e651a6eb7,5f47ee4b84ba2724c92aa8e1,5,,,,,,boot,,,,,,,,,,,1,2,0,40,40,5,1,,,,,,,,,,,,,,,,,,,,,,,,,,,,,,,,,,,,,,,,,,,,,,,,,,,,,,,,,,,,,,,,,,,,,,,,,,,,,,,,,,,,,,,,,,,,,,,,,,,,,,,,
,,?,0.00279,0,,,,,,stimuli/images/PICTURE_405.png,HOUSE,5f2f19107e19512f94ede28b,22/07/1999,2020-08-27_18h33.31.866,proactive3.1,2020.1.2,Win32,60,5f47c29a48bd2a1e651a6eb7,5f47ee4b84ba2724c92aa8e1,5,,,,,,anchor,,,,,,,,,,,1,2,0,41,41,2,1,,,,,,,,,,,,,,,,,,,,,,,,,,,,,,,,,,,,,,,,,,,,,,,,,,,,,,,,,,,,,,,,,,,,,,,,,,,,,,,,,,,,,,,,,,,,,,,,,,,,,,,,
,,?,0.00284,0,,,,,,stimuli/images/PICTURE_160.png,HOTEL,5f2f19107e19512f94ede28b,22/07/1999,2020-08-27_18h33.31.866,proactive3.1,2020.1.2,Win32,60,5f47c29a48bd2a1e651a6eb7,5f47ee4b84ba2724c92aa8e1,5,,,,,,wheelbarrow,,,,,,,,,,,2,2,0,42,42,16,1,,,,,,,,,,,,,,,,,,,,,,,,,,,,,,,,,,,,,,,,,,,,,,,,,,,,,,,,,,,,,,,,,,,,,,,,,,,,,,,,,,,,,,,,,,,,,,,,,,,,,,,,
,,?,0.002985,0,,,,,,stimuli/images/PICTURE_57.png,CASINO,5f2f19107e19512f94ede28b,22/07/1999,2020-08-27_18h33.31.866,proactive3.1,2020.1.2,Win32,60,5f47c29a48bd2a1e651a6eb7,5f47ee4b84ba2724c92aa8e1,5,,,,,,stamp,,,,,,,,,,,2,2,0,43,43,12,1,,,,,,,,,,,,,,,,,,,,,,,,,,,,,,,,,,,,,,,,,,,,,,,,,,,,,,,,,,,,,,,,,,,,,,,,,,,,,,,,,,,,,,,,,,,,,,,,,,,,,,,,
,,?,0.00303,0,,,,,,stimuli/images/PICTURE_2.png,YARD,5f2f19107e19512f94ede28b,22/07/1999,2020-08-27_18h33.31.866,proactive3.1,2020.1.2,Win32,60,5f47c29a48bd2a1e651a6eb7,5f47ee4b84ba2724c92aa8e1,5,,,,,,tyre,,,,,,,,,,,6,2,0,44,44,55,1,,,,,,,,,,,,,,,,,,,,,,,,,,,,,,,,,,,,,,,,,,,,,,,,,,,,,,,,,,,,,,,,,,,,,,,,,,,,,,,,,,,,,,,,,,,,,,,,,,,,,,,,
,,?,0.001935,0,,,,,,stimuli/images/PICTURE_297.png,BODY,5f2f19107e19512f94ede28b,22/07/1999,2020-08-27_18h33.31.866,proactive3.1,2020.1.2,Win32,60,5f47c29a48bd2a1e651a6eb7,5f47ee4b84ba2724c92aa8e1,5,,,,,,aeroplane,,,,,,,,,,,6,2,0,45,45,51,1,,,,,,,,,,,,,,,,,,,,,,,,,,,,,,,,,,,,,,,,,,,,,,,,,,,,,,,,,,,,,,,,,,,,,,,,,,,,,,,,,,,,,,,,,,,,,,,,,,,,,,,,
,,?,0.002915,0,,,,,,stimuli/images/PICTURE_509.png,SHOTS,5f2f19107e19512f94ede28b,22/07/1999,2020-08-27_18h33.31.866,proactive3.1,2020.1.2,Win32,60,5f47c29a48bd2a1e651a6eb7,5f47ee4b84ba2724c92aa8e1,5,,,,,,telephone,,,,,,,,,,,1,2,0,46,46,7,1,,,,,,,,,,,,,,,,,,,,,,,,,,,,,,,,,,,,,,,,,,,,,,,,,,,,,,,,,,,,,,,,,,,,,,,,,,,,,,,,,,,,,,,,,,,,,,,,,,,,,,,,
,,?,0.0023,0,,,,,,stimuli/images/PICTURE_57.png,CANDY,5f2f19107e19512f94ede28b,22/07/1999,2020-08-27_18h33.31.866,proactive3.1,2020.1.2,Win32,60,5f47c29a48bd2a1e651a6eb7,5f47ee4b84ba2724c92aa8e1,5,,,,,,stamp,,,,,,,,,,,6,2,0,47,47,52,1,,,,,,,,,,,,,,,,,,,,,,,,,,,,,,,,,,,,,,,,,,,,,,,,,,,,,,,,,,,,,,,,,,,,,,,,,,,,,,,,,,,,,,,,,,,,,,,,,,,,,,,,
,,?,0.00189,0,,,,,,stimuli/images/PICTURE_405.png,JUNGLE,5f2f19107e19512f94ede28b,22/07/1999,2020-08-27_18h33.31.866,proactive3.1,2020.1.2,Win32,60,5f47c29a48bd2a1e651a6eb7,5f47ee4b84ba2724c92aa8e1,5,,,,,,anchor,,,,,,,,,,,6,2,0,48,48,58,1,,,,,,,,,,,,,,,,,,,,,,,,,,,,,,,,,,,,,,,,,,,,,,,,,,,,,,,,,,,,,,,,,,,,,,,,,,,,,,,,,,,,,,,,,,,,,,,,,,,,,,,,
,,?,0.002355,0,,,,,,stimuli/images/PICTURE_487.png,ROOF,5f2f19107e19512f94ede28b,22/07/1999,2020-08-27_18h33.31.866,proactive3.1,2020.1.2,Win32,60,5f47c29a48bd2a1e651a6eb7,5f47ee4b84ba2724c92aa8e1,5,,,,,,basket,,,,,,,,,,,6,2,0,49,49,50,1,,,,,,,,,,,,,,,,,,,,,,,,,,,,,,,,,,,,,,,,,,,,,,,,,,,,,,,,,,,,,,,,,,,,,,,,,,,,,,,,,,,,,,,,,,,,,,,,,,,,,,,,
,,?,0.00181,0,,,,,,stimuli/images/PICTURE_564.png,PLENTY,5f2f19107e19512f94ede28b,22/07/1999,2020-08-27_18h33.31.866,proactive3.1,2020.1.2,Win32,60,5f47c29a48bd2a1e651a6eb7,5f47ee4b84ba2724c92aa8e1,5,,,,,,spoon,,,,,,,,,,,2,2,0,50,50,11,1,,,,,,,,,,,,,,,,,,,,,,,,,,,,,,,,,,,,,,,,,,,,,,,,,,,,,,,,,,,,,,,,,,,,,,,,,,,,,,,,,,,,,,,,,,,,,,,,,,,,,,,,
,,?,0.00735,0,,,,,,stimuli/images/PICTURE_208.png,SPIRIT,5f2f19107e19512f94ede28b,22/07/1999,2020-08-27_18h33.31.866,proactive3.1,2020.1.2,Win32,60,5f47c29a48bd2a1e651a6eb7,5f47ee4b84ba2724c92aa8e1,5,,,,,,microphone,,,,,,,,,,,3,2,0,51,51,28,1,,,,,,,,,,,,,,,,,,,,,,,,,,,,,,,,,,,,,,,,,,,,,,,,,,,,,,,,,,,,,,,,,,,,,,,,,,,,,,,,,,,,,,,,,,,,,,,,,,,,,,,,
,,TALL,15.012385,0,,,,,,stimuli/images/PICTURE_453.png,FAMILY,5f2f19107e19512f94ede28b,22/07/1999,2020-08-27_18h33.31.866,proactive3.1,2020.1.2,Win32,60,5f47c29a48bd2a1e651a6eb7,5f47ee4b84ba2724c92aa8e1,5,,,,,,scissors,,,,,,,,,,,5,2,0,52,52,48,1,,,,,,,,,,,,,,,,,,,,,,,,,,,,,,,,,,,,,,,,,,,,,,,,,,,,,,,,,,,,,,,,,,,,,,,,,,,,,,,,,,,,,,,,,,,,,,,,,,,,,,,,
,,?,0.002845,0,,,,,,stimuli/images/PICTURE_655.png,SALE,5f2f19107e19512f94ede28b,22/07/1999,2020-08-27_18h33.31.866,proactive3.1,2020.1.2,Win32,60,5f47c29a48bd2a1e651a6eb7,5f47ee4b84ba2724c92aa8e1,5,,,,,,megaphone,,,,,,,,,,,6,2,0,53,53,57,1,,,,,,,,,,,,,,,,,,,,,,,,,,,,,,,,,,,,,,,,,,,,,,,,,,,,,,,,,,,,,,,,,,,,,,,,,,,,,,,,,,,,,,,,,,,,,,,,,,,,,,,,
,,?,0.00272,0,,,,,,stimuli/images/PICTURE_509.png,BATH,5f2f19107e19512f94ede28b,22/07/1999,2020-08-27_18h33.31.866,proactive3.1,2020.1.2,Win32,60,5f47c29a48bd2a1e651a6eb7,5f47ee4b84ba2724c92aa8e1,5,,,,,,telephone,,,,,,,,,,,2,2,0,54,54,15,1,,,,,,,,,,,,,,,,,,,,,,,,,,,,,,,,,,,,,,,,,,,,,,,,,,,,,,,,,,,,,,,,,,,,,,,,,,,,,,,,,,,,,,,,,,,,,,,,,,,,,,,,
,,?,0.00332,0,,,,,,stimuli/images/PICTURE_95.png,NIGHT,5f2f19107e19512f94ede28b,22/07/1999,2020-08-27_18h33.31.866,proactive3.1,2020.1.2,Win32,60,5f47c29a48bd2a1e651a6eb7,5f47ee4b84ba2724c92aa8e1,5,,,,,,suitcase,,,,,,,,,,,4,2,0,55,55,37,1,,,,,,,,,,,,,,,,,,,,,,,,,,,,,,,,,,,,,,,,,,,,,,,,,,,,,,,,,,,,,,,,,,,,,,,,,,,,,,,,,,,,,,,,,,,,,,,,,,,,,,,,
,,?,0.002335,0,,,,,,stimuli/images/PICTURE_177.png,HOUSE,5f2f19107e19512f94ede28b,22/07/1999,2020-08-27_18h33.31.866,proactive3.1,2020.1.2,Win32,60,5f47c29a48bd2a1e651a6eb7,5f47ee4b84ba2724c92aa8e1,5,,,,,,mushroom,,,,,,,,,,,3,2,0,56,56,25,1,,,,,,,,,,,,,,,,,,,,,,,,,,,,,,,,,,,,,,,,,,,,,,,,,,,,,,,,,,,,,,,,,,,,,,,,,,,,,,,,,,,,,,,,,,,,,,,,,,,,,,,,
,,?,0.003815,0,,,,,,stimuli/images/PICTURE_255.png,PENNY,5f2f19107e19512f94ede28b,22/07/1999,2020-08-27_18h33.31.866,proactive3.1,2020.1.2,Win32,60,5f47c29a48bd2a1e651a6eb7,5f47ee4b84ba2724c92aa8e1,5,,,,,,shovel,,,,,,,,,,,2,2,0,57,57,19,1,,,,,,,,,,,,,,,,,,,,,,,,,,,,,,,,,,,,,,,,,,,,,,,,,,,,,,,,,,,,,,,,,,,,,,,,,,,,,,,,,,,,,,,,,,,,,,,,,,,,,,,,
,,?,0.002495,0,,,,,,stimuli/images/PICTURE_2.png,AREA,5f2f19107e19512f94ede28b,22/07/1999,2020-08-27_18h33.31.866,proactive3.1,2020.1.2,Win32,60,5f47c29a48bd2a1e651a6eb7,5f47ee4b84ba2724c92aa8e1,5,,,,,,tyre,,,,,,,,,,,4,2,0,58,58,32,1,,,,,,,,,,,,,,,,,,,,,,,,,,,,,,,,,,,,,,,,,,,,,,,,,,,,,,,,,,,,,,,,,,,,,,,,,,,,,,,,,,,,,,,,,,,,,,,,,,,,,,,,
,,?,0.002625,0,,,,,,stimuli/images/PICTURE_33.png,COPS,5f2f19107e19512f94ede28b,22/07/1999,2020-08-27_18h33.31.866,proactive3.1,2020.1.2,Win32,60,5f47c29a48bd2a1e651a6eb7,5f47ee4b84ba2724c92aa8e1,5,,,,,,frame,,,,,,,,,,,3,2,0,59,59,29,1,,,,,,,,,,,,,,,,,,,,,,,,,,,,,,,,,,,,,,,,,,,,,,,,,,,,,,,,,,,,,,,,,,,,,,,,,,,,,,,,,,,,,,,,,,,,,,,,,,,,,,,,
,,,,,,,,,,,,5f2f19107e19512f94ede28b,22/07/1999,2020-08-27_18h33.31.866,proactive3.1,2020.1.2,Win32,60,5f47c29a48bd2a1e651a6eb7,5f47ee4b84ba2724c92aa8e1,5,,,,,,,,,,,,,,,,,,,,,,,,0,0,0,2,1,stimuli/learn-block3.csv,,,,,,,,,,,,,,,,,,,,,,,,,,,,,,,,,,,,,,,,,,,,,,,,,,,,,,,,,,,,,,,,,,,,,,,,,,,,,,,,,,,,,,,,,,,,,,,,,,
,,,,,,,,,,stimuli/images/PICTURE_68.png,MILE,5f2f19107e19512f94ede28b,22/07/1999,2020-08-27_18h33.31.866,proactive3.1,2020.1.2,Win32,60,5f47c29a48bd2a1e651a6eb7,5f47ee4b84ba2724c92aa8e1,5,,,,,,candle,,,,,,0,0,0,51,1,6,1,,,,,,,,,,,,,,,,,,,,,,,,,,,,,,,,,,,,,,,,,,,,,,,,,,,,,,,,,,,,,,,,,,,,,,,,,,,,,,,,,,,,,,,,,,,,,,,,,,,,,,,,,,,,,
,,,,,,,,,,stimuli/images/PICTURE_708.png,RECORD,5f2f19107e19512f94ede28b,22/07/1999,2020-08-27_18h33.31.866,proactive3.1,2020.1.2,Win32,60,5f47c29a48bd2a1e651a6eb7,5f47ee4b84ba2724c92aa8e1,5,,,,,,monkey,,,,,,0,1,1,58,1,6,1,,,,,,,,,,,,,,,,,,,,,,,,,,,,,,,,,,,,,,,,,,,,,,,,,,,,,,,,,,,,,,,,,,,,,,,,,,,,,,,,,,,,,,,,,,,,,,,,,,,,,,,,,,,,,
,,,,,,,,,,stimuli/images/PICTURE_285.png,LIFE,5f2f19107e19512f94ede28b,22/07/1999,2020-08-27_18h33.31.866,proactive3.1,2020.1.2,Win32,60,5f47c29a48bd2a1e651a6eb7,5f47ee4b84ba2724c92aa8e1,5,,,,,,carrot,,,,,,0,2,2,33,1,4,1,,,,,,,,,,,,,,,,,,,,,,,,,,,,,,,,,,,,,,,,,,,,,,,,,,,,,,,,,,,,,,,,,,,,,,,,,,,,,,,,,,,,,,,,,,,,,,,,,,,,,,,,,,,,,
,,,,,,,,,,stimuli/images/PICTURE_564.png,BATH,5f2f19107e19512f94ede28b,22/07/1999,2020-08-27_18h33.31.866,proactive3.1,2020.1.2,Win32,60,5f47c29a48bd2a1e651a6eb7,5f47ee4b84ba2724c92aa8e1,5,,,,,,spoon,,,,,,0,3,3,26,1,3,1,,,,,,,,,,,,,,,,,,,,,,,,,,,,,,,,,,,,,,,,,,,,,,,,,,,,,,,,,,,,,,,,,,,,,,,,,,,,,,,,,,,,,,,,,,,,,,,,,,,,,,,,,,,,,
,,,,,,,,,,stimuli/images/PICTURE_327.png,CASINO,5f2f19107e19512f94ede28b,22/07/1999,2020-08-27_18h33.31.866,proactive3.1,2020.1.2,Win32,60,5f47c29a48bd2a1e651a6eb7,5f47ee4b84ba2724c92aa8e1,5,,,,,,helmet,,,,,,0,4,4,20,1,3,1,,,,,,,,,,,,,,,,,,,,,,,,,,,,,,,,,,,,,,,,,,,,,,,,,,,,,,,,,,,,,,,,,,,,,,,,,,,,,,,,,,,,,,,,,,,,,,,,,,,,,,,,,,,,,
,,,,,,,,,,stimuli/images/PICTURE_68.png,ROOF,5f2f19107e19512f94ede28b,22/07/1999,2020-08-27_18h33.31.866,proactive3.1,2020.1.2,Win32,60,5f47c29a48bd2a1e651a6eb7,5f47ee4b84ba2724c92aa8e1,5,,,,,,candle,,,,,,0,5,5,38,1,4,1,,,,,,,,,,,,,,,,,,,,,,,,,,,,,,,,,,,,,,,,,,,,,,,,,,,,,,,,,,,,,,,,,,,,,,,,,,,,,,,,,,,,,,,,,,,,,,,,,,,,,,,,,,,,,
,,,,,,,,,,stimuli/images/PICTURE_177.png,WRITER,5f2f19107e19512f94ede28b,22/07/1999,2020-08-27_18h33.31.866,proactive3.1,2020.1.2,Win32,60,5f47c29a48bd2a1e651a6eb7,5f47ee4b84ba2724c92aa8e1,5,,,,,,mushroom,,,,,,0,6,6,41,1,5,1,,,,,,,,,,,,,,,,,,,,,,,,,,,,,,,,,,,,,,,,,,,,,,,,,,,,,,,,,,,,,,,,,,,,,,,,,,,,,,,,,,,,,,,,,,,,,,,,,,,,,,,,,,,,,
,,,,,,,,,,stimuli/images/PICTURE_147.png,WOMEN,5f2f19107e19512f94ede28b,22/07/1999,2020-08-27_18h33.31.866,proactive3.1,2020.1.2,Win32,60,5f47c29a48bd2a1e651a6eb7,5f47ee4b84ba2724c92aa8e1,5,,,,,,hanger,,,,,,0,7,7,7,1,1,1,,,,,,,,,,,,,,,,,,,,,,,,,,,,,,,,,,,,,,,,,,,,,,,,,,,,,,,,,,,,,,,,,,,,,,,,,,,,,,,,,,,,,,,,,,,,,,,,,,,,,,,,,,,,,
,,,,,,,,,,stimuli/images/PICTURE_403.png,TOILET,5f2f19107e19512f94ede28b,22/07/1999,2020-08-27_18h33.31.866,proactive3.1,2020.1.2,Win32,60,5f47c29a48bd2a1e651a6eb7,5f47ee4b84ba2724c92aa8e1,5,,,,,,cathedral,,,,,,0,8,8,25,1,3,1,,,,,,,,,,,,,,,,,,,,,,,,,,,,,,,,,,,,,,,,,,,,,,,,,,,,,,,,,,,,,,,,,,,,,,,,,,,,,,,,,,,,,,,,,,,,,,,,,,,,,,,,,,,,,
,,,,,,,,,,stimuli/images/PICTURE_677.png,APPLE,5f2f19107e19512f94ede28b,22/07/1999,2020-08-27_18h33.31.866,proactive3.1,2020.1.2,Win32,60,5f47c29a48bd2a1e651a6eb7,5f47ee4b84ba2724c92aa8e1,5,,,,,,map,,,,,,0,9,9,43,1,5,1,,,,,,,,,,,,,,,,,,,,,,,,,,,,,,,,,,,,,,,,,,,,,,,,,,,,,,,,,,,,,,,,,,,,,,,,,,,,,,,,,,,,,,,,,,,,,,,,,,,,,,,,,,,,,
,,,,,,,,,,stimuli/images/PICTURE_504.png,ARTIST,5f2f19107e19512f94ede28b,22/07/1999,2020-08-27_18h33.31.866,proactive3.1,2020.1.2,Win32,60,5f47c29a48bd2a1e651a6eb7,5f47ee4b84ba2724c92aa8e1,5,,,,,,wheel,,,,,,0,10,10,49,1,5,1,,,,,,,,,,,,,,,,,,,,,,,,,,,,,,,,,,,,,,,,,,,,,,,,,,,,,,,,,,,,,,,,,,,,,,,,,,,,,,,,,,,,,,,,,,,,,,,,,,,,,,,,,,,,,
,,,,,,,,,,stimuli/images/PICTURE_2.png,FLIGHT,5f2f19107e19512f94ede28b,22/07/1999,2020-08-27_18h33.31.866,proactive3.1,2020.1.2,Win32,60,5f47c29a48bd2a1e651a6eb7,5f47ee4b84ba2724c92aa8e1,5,,,,,,tyre,,,,,,0,11,11,15,1,2,1,,,,,,,,,,,,,,,,,,,,,,,,,,,,,,,,,,,,,,,,,,,,,,,,,,,,,,,,,,,,,,,,,,,,,,,,,,,,,,,,,,,,,,,,,,,,,,,,,,,,,,,,,,,,,
,,,,,,,,,,stimuli/images/PICTURE_42.png,BOYS,5f2f19107e19512f94ede28b,22/07/1999,2020-08-27_18h33.31.866,proactive3.1,2020.1.2,Win32,60,5f47c29a48bd2a1e651a6eb7,5f47ee4b84ba2724c92aa8e1,5,,,,,,pear,,,,,,0,12,12,55,1,6,1,,,,,,,,,,,,,,,,,,,,,,,,,,,,,,,,,,,,,,,,,,,,,,,,,,,,,,,,,,,,,,,,,,,,,,,,,,,,,,,,,,,,,,,,,,,,,,,,,,,,,,,,,,,,,
,,,,,,,,,,stimuli/images/PICTURE_327.png,SERIES,5f2f19107e19512f94ede28b,22/07/1999,2020-08-27_18h33.31.866,proactive3.1,2020.1.2,Win32,60,5f47c29a48bd2a1e651a6eb7,5f47ee4b84ba2724c92aa8e1,5,,,,,,helmet,,,,,,0,13,13,3,1,1,1,,,,,,,,,,,,,,,,,,,,,,,,,,,,,,,,,,,,,,,,,,,,,,,,,,,,,,,,,,,,,,,,,,,,,,,,,,,,,,,,,,,,,,,,,,,,,,,,,,,,,,,,,,,,,
,,,,,,,,,,stimuli/images/PICTURE_744.png,WEAPON,5f2f19107e19512f94ede28b,22/07/1999,2020-08-27_18h33.31.866,proactive3.1,2020.1.2,Win32,60,5f47c29a48bd2a1e651a6eb7,5f47ee4b84ba2724c92aa8e1,5,,,,,,ring,,,,,,0,14,14,50,1,6,1,,,,,,,,,,,,,,,,,,,,,,,,,,,,,,,,,,,,,,,,,,,,,,,,,,,,,,,,,,,,,,,,,,,,,,,,,,,,,,,,,,,,,,,,,,,,,,,,,,,,,,,,,,,,,
,,,,,,,,,,stimuli/images/PICTURE_85.png,TOILET,5f2f19107e19512f94ede28b,22/07/1999,2020-08-27_18h33.31.866,proactive3.1,2020.1.2,Win32,60,5f47c29a48bd2a1e651a6eb7,5f47ee4b84ba2724c92aa8e1,5,,,,,,diamond,,,,,,0,15,15,48,1,5,1,,,,,,,,,,,,,,,,,,,,,,,,,,,,,,,,,,,,,,,,,,,,,,,,,,,,,,,,,,,,,,,,,,,,,,,,,,,,,,,,,,,,,,,,,,,,,,,,,,,,,,,,,,,,,
,,,,,,,,,,stimuli/images/PICTURE_108.png,FLIGHT,5f2f19107e19512f94ede28b,22/07/1999,2020-08-27_18h33.31.866,proactive3.1,2020.1.2,Win32,60,5f47c29a48bd2a1e651a6eb7,5f47ee4b84ba2724c92aa8e1,5,,,,,,calendar,,,,,,0,16,16,59,1,6,1,,,,,,,,,,,,,,,,,,,,,,,,,,,,,,,,,,,,,,,,,,,,,,,,,,,,,,,,,,,,,,,,,,,,,,,,,,,,,,,,,,,,,,,,,,,,,,,,,,,,,,,,,,,,,
,,,,,,,,,,stimuli/images/PICTURE_32.png,KIND,5f2f19107e19512f94ede28b,22/07/1999,2020-08-27_18h33.31.866,proactive3.1,2020.1.2,Win32,60,5f47c29a48bd2a1e651a6eb7,5f47ee4b84ba2724c92aa8e1,5,,,,,,crown,,,,,,0,17,17,35,1,4,1,,,,,,,,,,,,,,,,,,,,,,,,,,,,,,,,,,,,,,,,,,,,,,,,,,,,,,,,,,,,,,,,,,,,,,,,,,,,,,,,,,,,,,,,,,,,,,,,,,,,,,,,,,,,,
,,,,,,,,,,stimuli/images/PICTURE_340.png,LETTER,5f2f19107e19512f94ede28b,22/07/1999,2020-08-27_18h33.31.866,proactive3.1,2020.1.2,Win32,60,5f47c29a48bd2a1e651a6eb7,5f47ee4b84ba2724c92aa8e1,5,,,,,,mirror,,,,,,0,18,18,24,1,3,1,,,,,,,,,,,,,,,,,,,,,,,,,,,,,,,,,,,,,,,,,,,,,,,,,,,,,,,,,,,,,,,,,,,,,,,,,,,,,,,,,,,,,,,,,,,,,,,,,,,,,,,,,,,,,
,,,,,,,,,,stimuli/images/PICTURE_95.png,HONEY,5f2f19107e19512f94ede28b,22/07/1999,2020-08-27_18h33.31.866,proactive3.1,2020.1.2,Win32,60,5f47c29a48bd2a1e651a6eb7,5f47ee4b84ba2724c92aa8e1,5,,,,,,suitcase,,,,,,0,19,19,44,1,5,1,,,,,,,,,,,,,,,,,,,,,,,,,,,,,,,,,,,,,,,,,,,,,,,,,,,,,,,,,,,,,,,,,,,,,,,,,,,,,,,,,,,,,,,,,,,,,,,,,,,,,,,,,,,,,
,,,,,,,,,,stimuli/images/PICTURE_383.png,SERIES,5f2f19107e19512f94ede28b,22/07/1999,2020-08-27_18h33.31.866,proactive3.1,2020.1.2,Win32,60,5f47c29a48bd2a1e651a6eb7,5f47ee4b84ba2724c92aa8e1,5,,,,,,coin,,,,,,0,20,20,46,1,5,1,,,,,,,,,,,,,,,,,,,,,,,,,,,,,,,,,,,,,,,,,,,,,,,,,,,,,,,,,,,,,,,,,,,,,,,,,,,,,,,,,,,,,,,,,,,,,,,,,,,,,,,,,,,,,
,,,,,,,,,,stimuli/images/PICTURE_685.png,PENNY,5f2f19107e19512f94ede28b,22/07/1999,2020-08-27_18h33.31.866,proactive3.1,2020.1.2,Win32,60,5f47c29a48bd2a1e651a6eb7,5f47ee4b84ba2724c92aa8e1,5,,,,,,goose,,,,,,0,21,21,4,1,1,1,,,,,,,,,,,,,,,,,,,,,,,,,,,,,,,,,,,,,,,,,,,,,,,,,,,,,,,,,,,,,,,,,,,,,,,,,,,,,,,,,,,,,,,,,,,,,,,,,,,,,,,,,,,,,
,,,,,,,,,,stimuli/images/PICTURE_57.png,MOMENT,5f2f19107e19512f94ede28b,22/07/1999,2020-08-27_18h33.31.866,proactive3.1,2020.1.2,Win32,60,5f47c29a48bd2a1e651a6eb7,5f47ee4b84ba2724c92aa8e1,5,,,,,,stamp,,,,,,0,22,22,37,1,4,1,,,,,,,,,,,,,,,,,,,,,,,,,,,,,,,,,,,,,,,,,,,,,,,,,,,,,,,,,,,,,,,,,,,,,,,,,,,,,,,,,,,,,,,,,,,,,,,,,,,,,,,,,,,,,
,,,,,,,,,,stimuli/images/PICTURE_296.png,LOTS,5f2f19107e19512f94ede28b,22/07/1999,2020-08-27_18h33.31.866,proactive3.1,2020.1.2,Win32,60,5f47c29a48bd2a1e651a6eb7,5f47ee4b84ba2724c92aa8e1,5,,,,,,bolt,,,,,,0,23,23,9,1,1,1,,,,,,,,,,,,,,,,,,,,,,,,,,,,,,,,,,,,,,,,,,,,,,,,,,,,,,,,,,,,,,,,,,,,,,,,,,,,,,,,,,,,,,,,,,,,,,,,,,,,,,,,,,,,,
,,,,,,,,,,stimuli/images/PICTURE_308.png,FAMILY,5f2f19107e19512f94ede28b,22/07/1999,2020-08-27_18h33.31.866,proactive3.1,2020.1.2,Win32,60,5f47c29a48bd2a1e651a6eb7,5f47ee4b84ba2724c92aa8e1,5,,,,,,dice,,,,,,0,24,24,36,1,4,1,,,,,,,,,,,,,,,,,,,,,,,,,,,,,,,,,,,,,,,,,,,,,,,,,,,,,,,,,,,,,,,,,,,,,,,,,,,,,,,,,,,,,,,,,,,,,,,,,,,,,,,,,,,,,
,,,,,,,,,,stimuli/images/PICTURE_95.png,MILLER,5f2f19107e19512f94ede28b,22/07/1999,2020-08-27_18h33.31.866,proactive3.1,2020.1.2,Win32,60,5f47c29a48bd2a1e651a6eb7,5f47ee4b84ba2724c92aa8e1,5,,,,,,suitcase,,,,,,0,25,25,56,1,6,1,,,,,,,,,,,,,,,,,,,,,,,,,,,,,,,,,,,,,,,,,,,,,,,,,,,,,,,,,,,,,,,,,,,,,,,,,,,,,,,,,,,,,,,,,,,,,,,,,,,,,,,,,,,,,
,,,,,,,,,,stimuli/images/PICTURE_655.png,TOILET,5f2f19107e19512f94ede28b,22/07/1999,2020-08-27_18h33.31.866,proactive3.1,2020.1.2,Win32,60,5f47c29a48bd2a1e651a6eb7,5f47ee4b84ba2724c92aa8e1,5,,,,,,megaphone,,,,,,0,26,26,12,1,2,1,,,,,,,,,,,,,,,,,,,,,,,,,,,,,,,,,,,,,,,,,,,,,,,,,,,,,,,,,,,,,,,,,,,,,,,,,,,,,,,,,,,,,,,,,,,,,,,,,,,,,,,,,,,,,
,,,,,,,,,,stimuli/images/PICTURE_675.png,SALE,5f2f19107e19512f94ede28b,22/07/1999,2020-08-27_18h33.31.866,proactive3.1,2020.1.2,Win32,60,5f47c29a48bd2a1e651a6eb7,5f47ee4b84ba2724c92aa8e1,5,,,,,,windmill,,,,,,0,27,27,47,1,5,1,,,,,,,,,,,,,,,,,,,,,,,,,,,,,,,,,,,,,,,,,,,,,,,,,,,,,,,,,,,,,,,,,,,,,,,,,,,,,,,,,,,,,,,,,,,,,,,,,,,,,,,,,,,,,
,,,,,,,,,,stimuli/images/PICTURE_491.png,RIVER,5f2f19107e19512f94ede28b,22/07/1999,2020-08-27_18h33.31.866,proactive3.1,2020.1.2,Win32,60,5f47c29a48bd2a1e651a6eb7,5f47ee4b84ba2724c92aa8e1,5,,,,,,rug,,,,,,0,28,28,6,1,1,1,,,,,,,,,,,,,,,,,,,,,,,,,,,,,,,,,,,,,,,,,,,,,,,,,,,,,,,,,,,,,,,,,,,,,,,,,,,,,,,,,,,,,,,,,,,,,,,,,,,,,,,,,,,,,
,,,,,,,,,,stimuli/images/PICTURE_403.png,WRITER,5f2f19107e19512f94ede28b,22/07/1999,2020-08-27_18h33.31.866,proactive3.1,2020.1.2,Win32,60,5f47c29a48bd2a1e651a6eb7,5f47ee4b84ba2724c92aa8e1,5,,,,,,cathedral,,,,,,0,29,29,31,1,4,1,,,,,,,,,,,,,,,,,,,,,,,,,,,,,,,,,,,,,,,,,,,,,,,,,,,,,,,,,,,,,,,,,,,,,,,,,,,,,,,,,,,,,,,,,,,,,,,,,,,,,,,,,,,,,
,,,,,,,,,,stimuli/images/PICTURE_667.png,RIVER,5f2f19107e19512f94ede28b,22/07/1999,2020-08-27_18h33.31.866,proactive3.1,2020.1.2,Win32,60,5f47c29a48bd2a1e651a6eb7,5f47ee4b84ba2724c92aa8e1,5,,,,,,daisy,,,,,,0,30,30,10,1,2,1,,,,,,,,,,,,,,,,,,,,,,,,,,,,,,,,,,,,,,,,,,,,,,,,,,,,,,,,,,,,,,,,,,,,,,,,,,,,,,,,,,,,,,,,,,,,,,,,,,,,,,,,,,,,,
,,,,,,,,,,stimuli/images/PICTURE_504.png,COPS,5f2f19107e19512f94ede28b,22/07/1999,2020-08-27_18h33.31.866,proactive3.1,2020.1.2,Win32,60,5f47c29a48bd2a1e651a6eb7,5f47ee4b84ba2724c92aa8e1,5,,,,,,wheel,,,,,,0,31,31,52,1,6,1,,,,,,,,,,,,,,,,,,,,,,,,,,,,,,,,,,,,,,,,,,,,,,,,,,,,,,,,,,,,,,,,,,,,,,,,,,,,,,,,,,,,,,,,,,,,,,,,,,,,,,,,,,,,,
,,,,,,,,,,stimuli/images/PICTURE_203.png,GODS,5f2f19107e19512f94ede28b,22/07/1999,2020-08-27_18h33.31.866,proactive3.1,2020.1.2,Win32,60,5f47c29a48bd2a1e651a6eb7,5f47ee4b84ba2724c92aa8e1,5,,,,,,cap,,,,,,0,32,32,30,1,4,1,,,,,,,,,,,,,,,,,,,,,,,,,,,,,,,,,,,,,,,,,,,,,,,,,,,,,,,,,,,,,,,,,,,,,,,,,,,,,,,,,,,,,,,,,,,,,,,,,,,,,,,,,,,,,
,,,,,,,,,,stimuli/images/PICTURE_95.png,BOYS,5f2f19107e19512f94ede28b,22/07/1999,2020-08-27_18h33.31.866,proactive3.1,2020.1.2,Win32,60,5f47c29a48bd2a1e651a6eb7,5f47ee4b84ba2724c92aa8e1,5,,,,,,suitcase,,,,,,0,33,33,1,1,1,1,,,,,,,,,,,,,,,,,,,,,,,,,,,,,,,,,,,,,,,,,,,,,,,,,,,,,,,,,,,,,,,,,,,,,,,,,,,,,,,,,,,,,,,,,,,,,,,,,,,,,,,,,,,,,
,,,,,,,,,,stimuli/images/PICTURE_405.png,YEAR,5f2f19107e19512f94ede28b,22/07/1999,2020-08-27_18h33.31.866,proactive3.1,2020.1.2,Win32,60,5f47c29a48bd2a1e651a6eb7,5f47ee4b84ba2724c92aa8e1,5,,,,,,anchor,,,,,,0,34,34,34,1,4,1,,,,,,,,,,,,,,,,,,,,,,,,,,,,,,,,,,,,,,,,,,,,,,,,,,,,,,,,,,,,,,,,,,,,,,,,,,,,,,,,,,,,,,,,,,,,,,,,,,,,,,,,,,,,,
,,,,,,,,,,stimuli/images/PICTURE_403.png,RIVER,5f2f19107e19512f94ede28b,22/07/1999,2020-08-27_18h33.31.866,proactive3.1,2020.1.2,Win32,60,5f47c29a48bd2a1e651a6eb7,5f47ee4b84ba2724c92aa8e1,5,,,,,,cathedral,,,,,,0,35,35,40,1,5,1,,,,,,,,,,,,,,,,,,,,,,,,,,,,,,,,,,,,,,,,,,,,,,,,,,,,,,,,,,,,,,,,,,,,,,,,,,,,,,,,,,,,,,,,,,,,,,,,,,,,,,,,,,,,,
,,,,,,,,,,stimuli/images/PICTURE_491.png,GLASS,5f2f19107e19512f94ede28b,22/07/1999,2020-08-27_18h33.31.866,proactive3.1,2020.1.2,Win32,60,5f47c29a48bd2a1e651a6eb7,5f47ee4b84ba2724c92aa8e1,5,,,,,,rug,,,,,,0,36,36,14,1,2,1,,,,,,,,,,,,,,,,,,,,,,,,,,,,,,,,,,,,,,,,,,,,,,,,,,,,,,,,,,,,,,,,,,,,,,,,,,,,,,,,,,,,,,,,,,,,,,,,,,,,,,,,,,,,,
,,,,,,,,,,stimuli/images/PICTURE_233.png,LOTS,5f2f19107e19512f94ede28b,22/07/1999,2020-08-27_18h33.31.866,proactive3.1,2020.1.2,Win32,60,5f47c29a48bd2a1e651a6eb7,5f47ee4b84ba2724c92aa8e1,5,,,,,,salt,,,,,,0,37,37,42,1,5,1,,,,,,,,,,,,,,,,,,,,,,,,,,,,,,,,,,,,,,,,,,,,,,,,,,,,,,,,,,,,,,,,,,,,,,,,,,,,,,,,,,,,,,,,,,,,,,,,,,,,,,,,,,,,,
,,,,,,,,,,stimuli/images/PICTURE_85.png,NATION,5f2f19107e19512f94ede28b,22/07/1999,2020-08-27_18h33.31.866,proactive3.1,2020.1.2,Win32,60,5f47c29a48bd2a1e651a6eb7,5f47ee4b84ba2724c92aa8e1,5,,,,,,diamond,,,,,,0,38,38,5,1,1,1,,,,,,,,,,,,,,,,,,,,,,,,,,,,,,,,,,,,,,,,,,,,,,,,,,,,,,,,,,,,,,,,,,,,,,,,,,,,,,,,,,,,,,,,,,,,,,,,,,,,,,,,,,,,,
,,,,,,,,,,stimuli/images/PICTURE_380.png,HONEY,5f2f19107e19512f94ede28b,22/07/1999,2020-08-27_18h33.31.866,proactive3.1,2020.1.2,Win32,60,5f47c29a48bd2a1e651a6eb7,5f47ee4b84ba2724c92aa8e1,5,,,,,,gorilla,,,,,,0,39,39,19,1,2,1,,,,,,,,,,,,,,,,,,,,,,,,,,,,,,,,,,,,,,,,,,,,,,,,,,,,,,,,,,,,,,,,,,,,,,,,,,,,,,,,,,,,,,,,,,,,,,,,,,,,,,,,,,,,,
,,,,,,,,,,stimuli/images/PICTURE_380.png,CANDY,5f2f19107e19512f94ede28b,22/07/1999,2020-08-27_18h33.31.866,proactive3.1,2020.1.2,Win32,60,5f47c29a48bd2a1e651a6eb7,5f47ee4b84ba2724c92aa8e1,5,,,,,,gorilla,,,,,,0,40,40,0,1,1,1,,,,,,,,,,,,,,,,,,,,,,,,,,,,,,,,,,,,,,,,,,,,,,,,,,,,,,,,,,,,,,,,,,,,,,,,,,,,,,,,,,,,,,,,,,,,,,,,,,,,,,,,,,,,,
,,,,,,,,,,stimuli/images/PICTURE_147.png,YEAR,5f2f19107e19512f94ede28b,22/07/1999,2020-08-27_18h33.31.866,proactive3.1,2020.1.2,Win32,60,5f47c29a48bd2a1e651a6eb7,5f47ee4b84ba2724c92aa8e1,5,,,,,,hanger,,,,,,0,41,41,21,1,3,1,,,,,,,,,,,,,,,,,,,,,,,,,,,,,,,,,,,,,,,,,,,,,,,,,,,,,,,,,,,,,,,,,,,,,,,,,,,,,,,,,,,,,,,,,,,,,,,,,,,,,,,,,,,,,
,,,,,,,,,,stimuli/images/PICTURE_654.png,MONTH,5f2f19107e19512f94ede28b,22/07/1999,2020-08-27_18h33.31.866,proactive3.1,2020.1.2,Win32,60,5f47c29a48bd2a1e651a6eb7,5f47ee4b84ba2724c92aa8e1,5,,,,,,pencil,,,,,,0,42,42,29,1,3,1,,,,,,,,,,,,,,,,,,,,,,,,,,,,,,,,,,,,,,,,,,,,,,,,,,,,,,,,,,,,,,,,,,,,,,,,,,,,,,,,,,,,,,,,,,,,,,,,,,,,,,,,,,,,,
,,,,,,,,,,stimuli/images/PICTURE_203.png,NIGHT,5f2f19107e19512f94ede28b,22/07/1999,2020-08-27_18h33.31.866,proactive3.1,2020.1.2,Win32,60,5f47c29a48bd2a1e651a6eb7,5f47ee4b84ba2724c92aa8e1,5,,,,,,cap,,,,,,0,43,43,2,1,1,1,,,,,,,,,,,,,,,,,,,,,,,,,,,,,,,,,,,,,,,,,,,,,,,,,,,,,,,,,,,,,,,,,,,,,,,,,,,,,,,,,,,,,,,,,,,,,,,,,,,,,,,,,,,,,
,,,,,,,,,,stimuli/images/PICTURE_405.png,PLENTY,5f2f19107e19512f94ede28b,22/07/1999,2020-08-27_18h33.31.866,proactive3.1,2020.1.2,Win32,60,5f47c29a48bd2a1e651a6eb7,5f47ee4b84ba2724c92aa8e1,5,,,,,,anchor,,,,,,0,44,44,23,1,3,1,,,,,,,,,,,,,,,,,,,,,,,,,,,,,,,,,,,,,,,,,,,,,,,,,,,,,,,,,,,,,,,,,,,,,,,,,,,,,,,,,,,,,,,,,,,,,,,,,,,,,,,,,,,,,
,,,,,,,,,,stimuli/images/PICTURE_108.png,POLICY,5f2f19107e19512f94ede28b,22/07/1999,2020-08-27_18h33.31.866,proactive3.1,2020.1.2,Win32,60,5f47c29a48bd2a1e651a6eb7,5f47ee4b84ba2724c92aa8e1,5,,,,,,calendar,,,,,,0,45,45,22,1,3,1,,,,,,,,,,,,,,,,,,,,,,,,,,,,,,,,,,,,,,,,,,,,,,,,,,,,,,,,,,,,,,,,,,,,,,,,,,,,,,,,,,,,,,,,,,,,,,,,,,,,,,,,,,,,,
,,,,,,,,,,stimuli/images/PICTURE_383.png,WRITER,5f2f19107e19512f94ede28b,22/07/1999,2020-08-27_18h33.31.866,proactive3.1,2020.1.2,Win32,60,5f47c29a48bd2a1e651a6eb7,5f47ee4b84ba2724c92aa8e1,5,,,,,,coin,,,,,,0,46,46,28,1,3,1,,,,,,,,,,,,,,,,,,,,,,,,,,,,,,,,,,,,,,,,,,,,,,,,,,,,,,,,,,,,,,,,,,,,,,,,,,,,,,,,,,,,,,,,,,,,,,,,,,,,,,,,,,,,,
,,,,,,,,,,stimuli/images/PICTURE_297.png,RIVER,5f2f19107e19512f94ede28b,22/07/1999,2020-08-27_18h33.31.866,proactive3.1,2020.1.2,Win32,60,5f47c29a48bd2a1e651a6eb7,5f47ee4b84ba2724c92aa8e1,5,,,,,,aeroplane,,,,,,0,47,47,39,1,4,1,,,,,,,,,,,,,,,,,,,,,,,,,,,,,,,,,,,,,,,,,,,,,,,,,,,,,,,,,,,,,,,,,,,,,,,,,,,,,,,,,,,,,,,,,,,,,,,,,,,,,,,,,,,,,
,,,,,,,,,,stimuli/images/PICTURE_296.png,LIFE,5f2f19107e19512f94ede28b,22/07/1999,2020-08-27_18h33.31.866,proactive3.1,2020.1.2,Win32,60,5f47c29a48bd2a1e651a6eb7,5f47ee4b84ba2724c92aa8e1,5,,,,,,bolt,,,,,,0,48,48,57,1,6,1,,,,,,,,,,,,,,,,,,,,,,,,,,,,,,,,,,,,,,,,,,,,,,,,,,,,,,,,,,,,,,,,,,,,,,,,,,,,,,,,,,,,,,,,,,,,,,,,,,,,,,,,,,,,,
,,,,,,,,,,stimuli/images/PICTURE_504.png,YEAR,5f2f19107e19512f94ede28b,22/07/1999,2020-08-27_18h33.31.866,proactive3.1,2020.1.2,Win32,60,5f47c29a48bd2a1e651a6eb7,5f47ee4b84ba2724c92aa8e1,5,,,,,,wheel,,,,,,0,49,49,13,1,2,1,,,,,,,,,,,,,,,,,,,,,,,,,,,,,,,,,,,,,,,,,,,,,,,,,,,,,,,,,,,,,,,,,,,,,,,,,,,,,,,,,,,,,,,,,,,,,,,,,,,,,,,,,,,,,
,,,,,,,,,,stimuli/images/PICTURE_750.png,HOTEL,5f2f19107e19512f94ede28b,22/07/1999,2020-08-27_18h33.31.866,proactive3.1,2020.1.2,Win32,60,5f47c29a48bd2a1e651a6eb7,5f47ee4b84ba2724c92aa8e1,5,,,,,,kettle,,,,,,0,50,50,27,1,3,1,,,,,,,,,,,,,,,,,,,,,,,,,,,,,,,,,,,,,,,,,,,,,,,,,,,,,,,,,,,,,,,,,,,,,,,,,,,,,,,,,,,,,,,,,,,,,,,,,,,,,,,,,,,,,
,,,,,,,,,,stimuli/images/PICTURE_340.png,VALLEY,5f2f19107e19512f94ede28b,22/07/1999,2020-08-27_18h33.31.866,proactive3.1,2020.1.2,Win32,60,5f47c29a48bd2a1e651a6eb7,5f47ee4b84ba2724c92aa8e1,5,,,,,,mirror,,,,,,0,51,51,54,1,6,1,,,,,,,,,,,,,,,,,,,,,,,,,,,,,,,,,,,,,,,,,,,,,,,,,,,,,,,,,,,,,,,,,,,,,,,,,,,,,,,,,,,,,,,,,,,,,,,,,,,,,,,,,,,,,
,,,,,,,,,,stimuli/images/PICTURE_449.png,DUDE,5f2f19107e19512f94ede28b,22/07/1999,2020-08-27_18h33.31.866,proactive3.1,2020.1.2,Win32,60,5f47c29a48bd2a1e651a6eb7,5f47ee4b84ba2724c92aa8e1,5,,,,,,bench,,,,,,0,52,52,17,1,2,1,,,,,,,,,,,,,,,,,,,,,,,,,,,,,,,,,,,,,,,,,,,,,,,,,,,,,,,,,,,,,,,,,,,,,,,,,,,,,,,,,,,,,,,,,,,,,,,,,,,,,,,,,,,,,
,,,,,,,,,,stimuli/images/PICTURE_467.png,POLICY,5f2f19107e19512f94ede28b,22/07/1999,2020-08-27_18h33.31.866,proactive3.1,2020.1.2,Win32,60,5f47c29a48bd2a1e651a6eb7,5f47ee4b84ba2724c92aa8e1,5,,,,,,peg,,,,,,0,53,53,53,1,6,1,,,,,,,,,,,,,,,,,,,,,,,,,,,,,,,,,,,,,,,,,,,,,,,,,,,,,,,,,,,,,,,,,,,,,,,,,,,,,,,,,,,,,,,,,,,,,,,,,,,,,,,,,,,,,
,,,,,,,,,,stimuli/images/PICTURE_339.png,CLIENT,5f2f19107e19512f94ede28b,22/07/1999,2020-08-27_18h33.31.866,proactive3.1,2020.1.2,Win32,60,5f47c29a48bd2a1e651a6eb7,5f47ee4b84ba2724c92aa8e1,5,,,,,,backpack,,,,,,0,54,54,11,1,2,1,,,,,,,,,,,,,,,,,,,,,,,,,,,,,,,,,,,,,,,,,,,,,,,,,,,,,,,,,,,,,,,,,,,,,,,,,,,,,,,,,,,,,,,,,,,,,,,,,,,,,,,,,,,,,
,,,,,,,,,,stimuli/images/PICTURE_469.png,AGENT,5f2f19107e19512f94ede28b,22/07/1999,2020-08-27_18h33.31.866,proactive3.1,2020.1.2,Win32,60,5f47c29a48bd2a1e651a6eb7,5f47ee4b84ba2724c92aa8e1,5,,,,,,stool,,,,,,0,55,55,16,1,2,1,,,,,,,,,,,,,,,,,,,,,,,,,,,,,,,,,,,,,,,,,,,,,,,,,,,,,,,,,,,,,,,,,,,,,,,,,,,,,,,,,,,,,,,,,,,,,,,,,,,,,,,,,,,,,
,,,,,,,,,,stimuli/images/PICTURE_487.png,GIRL,5f2f19107e19512f94ede28b,22/07/1999,2020-08-27_18h33.31.866,proactive3.1,2020.1.2,Win32,60,5f47c29a48bd2a1e651a6eb7,5f47ee4b84ba2724c92aa8e1,5,,,,,,basket,,,,,,0,56,56,45,1,5,1,,,,,,,,,,,,,,,,,,,,,,,,,,,,,,,,,,,,,,,,,,,,,,,,,,,,,,,,,,,,,,,,,,,,,,,,,,,,,,,,,,,,,,,,,,,,,,,,,,,,,,,,,,,,,
,,,,,,,,,,stimuli/images/PICTURE_32.png,PILLS,5f2f19107e19512f94ede28b,22/07/1999,2020-08-27_18h33.31.866,proactive3.1,2020.1.2,Win32,60,5f47c29a48bd2a1e651a6eb7,5f47ee4b84ba2724c92aa8e1,5,,,,,,crown,,,,,,0,57,57,18,1,2,1,,,,,,,,,,,,,,,,,,,,,,,,,,,,,,,,,,,,,,,,,,,,,,,,,,,,,,,,,,,,,,,,,,,,,,,,,,,,,,,,,,,,,,,,,,,,,,,,,,,,,,,,,,,,,
,,,,,,,,,,stimuli/images/PICTURE_33.png,FRIEND,5f2f19107e19512f94ede28b,22/07/1999,2020-08-27_18h33.31.866,proactive3.1,2020.1.2,Win32,60,5f47c29a48bd2a1e651a6eb7,5f47ee4b84ba2724c92aa8e1,5,,,,,,frame,,,,,,0,58,58,8,1,1,1,,,,,,,,,,,,,,,,,,,,,,,,,,,,,,,,,,,,,,,,,,,,,,,,,,,,,,,,,,,,,,,,,,,,,,,,,,,,,,,,,,,,,,,,,,,,,,,,,,,,,,,,,,,,,
,,?,0.00261,0,,,,,,stimuli/images/PICTURE_32.png,PILLS,5f2f19107e19512f94ede28b,22/07/1999,2020-08-27_18h33.31.866,proactive3.1,2020.1.2,Win32,60,5f47c29a48bd2a1e651a6eb7,5f47ee4b84ba2724c92aa8e1,5,,,,,,crown,,,,,,,,,,,2,1,0,0,0,18,1,,,,,,,,,,,,,,,,,,,,,,,,,,,,,,,,,,,,,,,,,,,,,,,,,,,,,,,,,,,,,,,,,,,,,,,,,,,,,,,,,,,,,,,,,,,,,,,,,,,,,,,,
,,SPILL,15.00898,0,,,,,,stimuli/images/PICTURE_233.png,LOTS,5f2f19107e19512f94ede28b,22/07/1999,2020-08-27_18h33.31.866,proactive3.1,2020.1.2,Win32,60,5f47c29a48bd2a1e651a6eb7,5f47ee4b84ba2724c92aa8e1,5,,,,,,salt,,,,,,,,,,,5,1,0,1,1,42,1,,,,,,,,,,,,,,,,,,,,,,,,,,,,,,,,,,,,,,,,,,,,,,,,,,,,,,,,,,,,,,,,,,,,,,,,,,,,,,,,,,,,,,,,,,,,,,,,,,,,,,,,
,,?,0.003815,0,,,,,,stimuli/images/PICTURE_405.png,PLENTY,5f2f19107e19512f94ede28b,22/07/1999,2020-08-27_18h33.31.866,proactive3.1,2020.1.2,Win32,60,5f47c29a48bd2a1e651a6eb7,5f47ee4b84ba2724c92aa8e1,5,,,,,,anchor,,,,,,,,,,,3,1,0,2,2,23,1,,,,,,,,,,,,,,,,,,,,,,,,,,,,,,,,,,,,,,,,,,,,,,,,,,,,,,,,,,,,,,,,,,,,,,,,,,,,,,,,,,,,,,,,,,,,,,,,,,,,,,,,
,,?,0.00232,0,,,,,,stimuli/images/PICTURE_57.png,MOMENT,5f2f19107e19512f94ede28b,22/07/1999,2020-08-27_18h33.31.866,proactive3.1,2020.1.2,Win32,60,5f47c29a48bd2a1e651a6eb7,5f47ee4b84ba2724c92aa8e1,5,,,,,,stamp,,,,,,,,,,,4,1,0,3,3,37,1,,,,,,,,,,,,,,,,,,,,,,,,,,,,,,,,,,,,,,,,,,,,,,,,,,,,,,,,,,,,,,,,,,,,,,,,,,,,,,,,,,,,,,,,,,,,,,,,,,,,,,,,
,,?,0.001915,0,,,,,,stimuli/images/PICTURE_147.png,WOMEN,5f2f19107e19512f94ede28b,22/07/1999,2020-08-27_18h33.31.866,proactive3.1,2020.1.2,Win32,60,5f47c29a48bd2a1e651a6eb7,5f47ee4b84ba2724c92aa8e1,5,,,,,,hanger,,,,,,,,,,,1,1,0,4,4,7,1,,,,,,,,,,,,,,,,,,,,,,,,,,,,,,,,,,,,,,,,,,,,,,,,,,,,,,,,,,,,,,,,,,,,,,,,,,,,,,,,,,,,,,,,,,,,,,,,,,,,,,,,
,,?,0.001545,0,,,,,,stimuli/images/PICTURE_85.png,NATION,5f2f19107e19512f94ede28b,22/07/1999,2020-08-27_18h33.31.866,proactive3.1,2020.1.2,Win32,60,5f47c29a48bd2a1e651a6eb7,5f47ee4b84ba2724c92aa8e1,5,,,,,,diamond,,,,,,,,,,,1,1,0,5,5,5,1,,,,,,,,,,,,,,,,,,,,,,,,,,,,,,,,,,,,,,,,,,,,,,,,,,,,,,,,,,,,,,,,,,,,,,,,,,,,,,,,,,,,,,,,,,,,,,,,,,,,,,,,
,,?,0.00254,0,,,,,,stimuli/images/PICTURE_296.png,LIFE,5f2f19107e19512f94ede28b,22/07/1999,2020-08-27_18h33.31.866,proactive3.1,2020.1.2,Win32,60,5f47c29a48bd2a1e651a6eb7,5f47ee4b84ba2724c92aa8e1,5,,,,,,bolt,,,,,,,,,,,6,1,0,6,6,57,1,,,,,,,,,,,,,,,,,,,,,,,,,,,,,,,,,,,,,,,,,,,,,,,,,,,,,,,,,,,,,,,,,,,,,,,,,,,,,,,,,,,,,,,,,,,,,,,,,,,,,,,,
,,?,0.002065,0,,,,,,stimuli/images/PICTURE_405.png,YEAR,5f2f19107e19512f94ede28b,22/07/1999,2020-08-27_18h33.31.866,proactive3.1,2020.1.2,Win32,60,5f47c29a48bd2a1e651a6eb7,5f47ee4b84ba2724c92aa8e1,5,,,,,,anchor,,,,,,,,,,,4,1,0,7,7,34,1,,,,,,,,,,,,,,,,,,,,,,,,,,,,,,,,,,,,,,,,,,,,,,,,,,,,,,,,,,,,,,,,,,,,,,,,,,,,,,,,,,,,,,,,,,,,,,,,,,,,,,,,
,,?,0.001865,0,,,,,,stimuli/images/PICTURE_296.png,LOTS,5f2f19107e19512f94ede28b,22/07/1999,2020-08-27_18h33.31.866,proactive3.1,2020.1.2,Win32,60,5f47c29a48bd2a1e651a6eb7,5f47ee4b84ba2724c92aa8e1,5,,,,,,bolt,,,,,,,,,,,1,1,0,8,8,9,1,,,,,,,,,,,,,,,,,,,,,,,,,,,,,,,,,,,,,,,,,,,,,,,,,,,,,,,,,,,,,,,,,,,,,,,,,,,,,,,,,,,,,,,,,,,,,,,,,,,,,,,,
,,?,0.00176,0,,,,,,stimuli/images/PICTURE_667.png,RIVER,5f2f19107e19512f94ede28b,22/07/1999,2020-08-27_18h33.31.866,proactive3.1,2020.1.2,Win32,60,5f47c29a48bd2a1e651a6eb7,5f47ee4b84ba2724c92aa8e1,5,,,,,,daisy,,,,,,,,,,,2,1,0,9,9,10,1,,,,,,,,,,,,,,,,,,,,,,,,,,,,,,,,,,,,,,,,,,,,,,,,,,,,,,,,,,,,,,,,,,,,,,,,,,,,,,,,,,,,,,,,,,,,,,,,,,,,,,,,
,,?,0.001785,0,,,,,,stimuli/images/PICTURE_339.png,CLIENT,5f2f19107e19512f94ede28b,22/07/1999,2020-08-27_18h33.31.866,proactive3.1,2020.1.2,Win32,60,5f47c29a48bd2a1e651a6eb7,5f47ee4b84ba2724c92aa8e1,5,,,,,,backpack,,,,,,,,,,,2,1,0,10,10,11,1,,,,,,,,,,,,,,,,,,,,,,,,,,,,,,,,,,,,,,,,,,,,,,,,,,,,,,,,,,,,,,,,,,,,,,,,,,,,,,,,,,,,,,,,,,,,,,,,,,,,,,,,
,,?,0.001715,0,,,,,,stimuli/images/PICTURE_203.png,NIGHT,5f2f19107e19512f94ede28b,22/07/1999,2020-08-27_18h33.31.866,proactive3.1,2020.1.2,Win32,60,5f47c29a48bd2a1e651a6eb7,5f47ee4b84ba2724c92aa8e1,5,,,,,,cap,,,,,,,,,,,1,1,0,11,11,2,1,,,,,,,,,,,,,,,,,,,,,,,,,,,,,,,,,,,,,,,,,,,,,,,,,,,,,,,,,,,,,,,,,,,,,,,,,,,,,,,,,,,,,,,,,,,,,,,,,,,,,,,,
,,?,0.001955,0,,,,,,stimuli/images/PICTURE_654.png,MONTH,5f2f19107e19512f94ede28b,22/07/1999,2020-08-27_18h33.31.866,proactive3.1,2020.1.2,Win32,60,5f47c29a48bd2a1e651a6eb7,5f47ee4b84ba2724c92aa8e1,5,,,,,,pencil,,,,,,,,,,,3,1,0,12,12,29,1,,,,,,,,,,,,,,,,,,,,,,,,,,,,,,,,,,,,,,,,,,,,,,,,,,,,,,,,,,,,,,,,,,,,,,,,,,,,,,,,,,,,,,,,,,,,,,,,,,,,,,,,
,,?,0.00218,0,,,,,,stimuli/images/PICTURE_2.png,FLIGHT,5f2f19107e19512f94ede28b,22/07/1999,2020-08-27_18h33.31.866,proactive3.1,2020.1.2,Win32,60,5f47c29a48bd2a1e651a6eb7,5f47ee4b84ba2724c92aa8e1,5,,,,,,tyre,,,,,,,,,,,2,1,0,13,13,15,1,,,,,,,,,,,,,,,,,,,,,,,,,,,,,,,,,,,,,,,,,,,,,,,,,,,,,,,,,,,,,,,,,,,,,,,,,,,,,,,,,,,,,,,,,,,,,,,,,,,,,,,,
,,?,0.001785,0,,,,,,stimuli/images/PICTURE_147.png,YEAR,5f2f19107e19512f94ede28b,22/07/1999,2020-08-27_18h33.31.866,proactive3.1,2020.1.2,Win32,60,5f47c29a48bd2a1e651a6eb7,5f47ee4b84ba2724c92aa8e1,5,,,,,,hanger,,,,,,,,,,,3,1,0,14,14,21,1,,,,,,,,,,,,,,,,,,,,,,,,,,,,,,,,,,,,,,,,,,,,,,,,,,,,,,,,,,,,,,,,,,,,,,,,,,,,,,,,,,,,,,,,,,,,,,,,,,,,,,,,
,,?,0.001725,0,,,,,,stimuli/images/PICTURE_750.png,HOTEL,5f2f19107e19512f94ede28b,22/07/1999,2020-08-27_18h33.31.866,proactive3.1,2020.1.2,Win32,60,5f47c29a48bd2a1e651a6eb7,5f47ee4b84ba2724c92aa8e1,5,,,,,,kettle,,,,,,,,,,,3,1,0,15,15,27,1,,,,,,,,,,,,,,,,,,,,,,,,,,,,,,,,,,,,,,,,,,,,,,,,,,,,,,,,,,,,,,,,,,,,,,,,,,,,,,,,,,,,,,,,,,,,,,,,,,,,,,,,
,,?,0.00154,0,,,,,,stimuli/images/PICTURE_708.png,RECORD,5f2f19107e19512f94ede28b,22/07/1999,2020-08-27_18h33.31.866,proactive3.1,2020.1.2,Win32,60,5f47c29a48bd2a1e651a6eb7,5f47ee4b84ba2724c92aa8e1,5,,,,,,monkey,,,,,,,,,,,6,1,0,16,16,58,1,,,,,,,,,,,,,,,,,,,,,,,,,,,,,,,,,,,,,,,,,,,,,,,,,,,,,,,,,,,,,,,,,,,,,,,,,,,,,,,,,,,,,,,,,,,,,,,,,,,,,,,,
,,?,0.00226,0,,,,,,stimuli/images/PICTURE_504.png,COPS,5f2f19107e19512f94ede28b,22/07/1999,2020-08-27_18h33.31.866,proactive3.1,2020.1.2,Win32,60,5f47c29a48bd2a1e651a6eb7,5f47ee4b84ba2724c92aa8e1,5,,,,,,wheel,,,,,,,,,,,6,1,0,17,17,52,1,,,,,,,,,,,,,,,,,,,,,,,,,,,,,,,,,,,,,,,,,,,,,,,,,,,,,,,,,,,,,,,,,,,,,,,,,,,,,,,,,,,,,,,,,,,,,,,,,,,,,,,,
,,?,0.001605,0,,,,,,stimuli/images/PICTURE_340.png,LETTER,5f2f19107e19512f94ede28b,22/07/1999,2020-08-27_18h33.31.866,proactive3.1,2020.1.2,Win32,60,5f47c29a48bd2a1e651a6eb7,5f47ee4b84ba2724c92aa8e1,5,,,,,,mirror,,,,,,,,,,,3,1,0,18,18,24,1,,,,,,,,,,,,,,,,,,,,,,,,,,,,,,,,,,,,,,,,,,,,,,,,,,,,,,,,,,,,,,,,,,,,,,,,,,,,,,,,,,,,,,,,,,,,,,,,,,,,,,,,
,,?,0.001645,0,,,,,,stimuli/images/PICTURE_403.png,TOILET,5f2f19107e19512f94ede28b,22/07/1999,2020-08-27_18h33.31.866,proactive3.1,2020.1.2,Win32,60,5f47c29a48bd2a1e651a6eb7,5f47ee4b84ba2724c92aa8e1,5,,,,,,cathedral,,,,,,,,,,,3,1,0,19,19,25,1,,,,,,,,,,,,,,,,,,,,,,,,,,,,,,,,,,,,,,,,,,,,,,,,,,,,,,,,,,,,,,,,,,,,,,,,,,,,,,,,,,,,,,,,,,,,,,,,,,,,,,,,
,,?,0.001615,0,,,,,,stimuli/images/PICTURE_308.png,FAMILY,5f2f19107e19512f94ede28b,22/07/1999,2020-08-27_18h33.31.866,proactive3.1,2020.1.2,Win32,60,5f47c29a48bd2a1e651a6eb7,5f47ee4b84ba2724c92aa8e1,5,,,,,,dice,,,,,,,,,,,4,1,0,20,20,36,1,,,,,,,,,,,,,,,,,,,,,,,,,,,,,,,,,,,,,,,,,,,,,,,,,,,,,,,,,,,,,,,,,,,,,,,,,,,,,,,,,,,,,,,,,,,,,,,,,,,,,,,,
,,?,0.0022,0,,,,,,stimuli/images/PICTURE_380.png,CANDY,5f2f19107e19512f94ede28b,22/07/1999,2020-08-27_18h33.31.866,proactive3.1,2020.1.2,Win32,60,5f47c29a48bd2a1e651a6eb7,5f47ee4b84ba2724c92aa8e1,5,,,,,,gorilla,,,,,,,,,,,1,1,0,21,21,0,1,,,,,,,,,,,,,,,,,,,,,,,,,,,,,,,,,,,,,,,,,,,,,,,,,,,,,,,,,,,,,,,,,,,,,,,,,,,,,,,,,,,,,,,,,,,,,,,,,,,,,,,,
,,?,0.00254,0,,,,,,stimuli/images/PICTURE_68.png,ROOF,5f2f19107e19512f94ede28b,22/07/1999,2020-08-27_18h33.31.866,proactive3.1,2020.1.2,Win32,60,5f47c29a48bd2a1e651a6eb7,5f47ee4b84ba2724c92aa8e1,5,,,,,,candle,,,,,,,,,,,4,1,0,22,22,38,1,,,,,,,,,,,,,,,,,,,,,,,,,,,,,,,,,,,,,,,,,,,,,,,,,,,,,,,,,,,,,,,,,,,,,,,,,,,,,,,,,,,,,,,,,,,,,,,,,,,,,,,,
,,?,0.00227,0,,,,,,stimuli/images/PICTURE_297.png,RIVER,5f2f19107e19512f94ede28b,22/07/1999,2020-08-27_18h33.31.866,proactive3.1,2020.1.2,Win32,60,5f47c29a48bd2a1e651a6eb7,5f47ee4b84ba2724c92aa8e1,5,,,,,,aeroplane,,,,,,,,,,,4,1,0,23,23,39,1,,,,,,,,,,,,,,,,,,,,,,,,,,,,,,,,,,,,,,,,,,,,,,,,,,,,,,,,,,,,,,,,,,,,,,,,,,,,,,,,,,,,,,,,,,,,,,,,,,,,,,,,
,,?,0.00571,0,,,,,,stimuli/images/PICTURE_33.png,FRIEND,5f2f19107e19512f94ede28b,22/07/1999,2020-08-27_18h33.31.866,proactive3.1,2020.1.2,Win32,60,5f47c29a48bd2a1e651a6eb7,5f47ee4b84ba2724c92aa8e1,5,,,,,,frame,,,,,,,,,,,1,1,0,24,24,8,1,,,,,,,,,,,,,,,,,,,,,,,,,,,,,,,,,,,,,,,,,,,,,,,,,,,,,,,,,,,,,,,,,,,,,,,,,,,,,,,,,,,,,,,,,,,,,,,,,,,,,,,,
,,?,0.001825,0,,,,,,stimuli/images/PICTURE_108.png,FLIGHT,5f2f19107e19512f94ede28b,22/07/1999,2020-08-27_18h33.31.866,proactive3.1,2020.1.2,Win32,60,5f47c29a48bd2a1e651a6eb7,5f47ee4b84ba2724c92aa8e1,5,,,,,,calendar,,,,,,,,,,,6,1,0,25,25,59,1,,,,,,,,,,,,,,,,,,,,,,,,,,,,,,,,,,,,,,,,,,,,,,,,,,,,,,,,,,,,,,,,,,,,,,,,,,,,,,,,,,,,,,,,,,,,,,,,,,,,,,,,
,,?,0.001755,0,,,,,,stimuli/images/PICTURE_42.png,BOYS,5f2f19107e19512f94ede28b,22/07/1999,2020-08-27_18h33.31.866,proactive3.1,2020.1.2,Win32,60,5f47c29a48bd2a1e651a6eb7,5f47ee4b84ba2724c92aa8e1,5,,,,,,pear,,,,,,,,,,,6,1,0,26,26,55,1,,,,,,,,,,,,,,,,,,,,,,,,,,,,,,,,,,,,,,,,,,,,,,,,,,,,,,,,,,,,,,,,,,,,,,,,,,,,,,,,,,,,,,,,,,,,,,,,,,,,,,,,
,,?,0.00231,0,,,,,,stimuli/images/PICTURE_285.png,LIFE,5f2f19107e19512f94ede28b,22/07/1999,2020-08-27_18h33.31.866,proactive3.1,2020.1.2,Win32,60,5f47c29a48bd2a1e651a6eb7,5f47ee4b84ba2724c92aa8e1,5,,,,,,carrot,,,,,,,,,,,4,1,0,27,27,33,1,,,,,,,,,,,,,,,,,,,,,,,,,,,,,,,,,,,,,,,,,,,,,,,,,,,,,,,,,,,,,,,,,,,,,,,,,,,,,,,,,,,,,,,,,,,,,,,,,,,,,,,,
,,APPLE,15.01262,1,,,,,,stimuli/images/PICTURE_677.png,APPLE,5f2f19107e19512f94ede28b,22/07/1999,2020-08-27_18h33.31.866,proactive3.1,2020.1.2,Win32,60,5f47c29a48bd2a1e651a6eb7,5f47ee4b84ba2724c92aa8e1,5,,,,,,map,,,,,,,,,,,5,1,0,28,28,43,1,,,,,,,,,,,,,,,,,,,,,,,,,,,,,,,,,,,,,,,,,,,,,,,,,,,,,,,,,,,,,,,,,,,,,,,,,,,,,,,,,,,,,,,,,,,,,,,,,,,,,,,,
,,WRITER,15.012535,1,,,,,,stimuli/images/PICTURE_177.png,WRITER,5f2f19107e19512f94ede28b,22/07/1999,2020-08-27_18h33.31.866,proactive3.1,2020.1.2,Win32,60,5f47c29a48bd2a1e651a6eb7,5f47ee4b84ba2724c92aa8e1,5,,,,,,mushroom,,,,,,,,,,,5,1,0,29,29,41,1,,,,,,,,,,,,,,,,,,,,,,,,,,,,,,,,,,,,,,,,,,,,,,,,,,,,,,,,,,,,,,,,,,,,,,,,,,,,,,,,,,,,,,,,,,,,,,,,,,,,,,,,
,,?,0.002105,0,,,,,,stimuli/images/PICTURE_95.png,BOYS,5f2f19107e19512f94ede28b,22/07/1999,2020-08-27_18h33.31.866,proactive3.1,2020.1.2,Win32,60,5f47c29a48bd2a1e651a6eb7,5f47ee4b84ba2724c92aa8e1,5,,,,,,suitcase,,,,,,,,,,,1,1,0,30,30,1,1,,,,,,,,,,,,,,,,,,,,,,,,,,,,,,,,,,,,,,,,,,,,,,,,,,,,,,,,,,,,,,,,,,,,,,,,,,,,,,,,,,,,,,,,,,,,,,,,,,,,,,,,
,,?,0.00225,0,,,,,,stimuli/images/PICTURE_340.png,VALLEY,5f2f19107e19512f94ede28b,22/07/1999,2020-08-27_18h33.31.866,proactive3.1,2020.1.2,Win32,60,5f47c29a48bd2a1e651a6eb7,5f47ee4b84ba2724c92aa8e1,5,,,,,,mirror,,,,,,,,,,,6,1,0,31,31,54,1,,,,,,,,,,,,,,,,,,,,,,,,,,,,,,,,,,,,,,,,,,,,,,,,,,,,,,,,,,,,,,,,,,,,,,,,,,,,,,,,,,,,,,,,,,,,,,,,,,,,,,,,
,,?,0.001895,0,,,,,,stimuli/images/PICTURE_208.png,SYSTEM,5f2f19107e19512f94ede28b,22/07/1999,2020-08-27_18h33.31.866,proactive3.1,2020.1.2,Win32,60,5f47c29a48bd2a1e651a6eb7,5f47ee4b84ba2724c92aa8e1,5,,,,,,microphone,,,,,,,,,,,4,1,0,32,32,32,1,,,,,,,,,,,,,,,,,,,,,,,,,,,,,,,,,,,,,,,,,,,,,,,,,,,,,,,,,,,,,,,,,,,,,,,,,,,,,,,,,,,,,,,,,,,,,,,,,,,,,,,,
,,?,0.00232,0,,,,,,stimuli/images/PICTURE_685.png,PENNY,5f2f19107e19512f94ede28b,22/07/1999,2020-08-27_18h33.31.866,proactive3.1,2020.1.2,Win32,60,5f47c29a48bd2a1e651a6eb7,5f47ee4b84ba2724c92aa8e1,5,,,,,,goose,,,,,,,,,,,1,1,0,33,33,4,1,,,,,,,,,,,,,,,,,,,,,,,,,,,,,,,,,,,,,,,,,,,,,,,,,,,,,,,,,,,,,,,,,,,,,,,,,,,,,,,,,,,,,,,,,,,,,,,,,,,,,,,,
,,?,0.002735,0,,,,,,stimuli/images/PICTURE_95.png,MILLER,5f2f19107e19512f94ede28b,22/07/1999,2020-08-27_18h33.31.866,proactive3.1,2020.1.2,Win32,60,5f47c29a48bd2a1e651a6eb7,5f47ee4b84ba2724c92aa8e1,5,,,,,,suitcase,,,,,,,,,,,6,1,0,34,34,56,1,,,,,,,,,,,,,,,,,,,,,,,,,,,,,,,,,,,,,,,,,,,,,,,,,,,,,,,,,,,,,,,,,,,,,,,,,,,,,,,,,,,,,,,,,,,,,,,,,,,,,,,,
,,?,0.00231,0,,,,,,stimuli/images/PICTURE_564.png,BATH,5f2f19107e19512f94ede28b,22/07/1999,2020-08-27_18h33.31.866,proactive3.1,2020.1.2,Win32,60,5f47c29a48bd2a1e651a6eb7,5f47ee4b84ba2724c92aa8e1,5,,,,,,spoon,,,,,,,,,,,3,1,0,35,35,26,1,,,,,,,,,,,,,,,,,,,,,,,,,,,,,,,,,,,,,,,,,,,,,,,,,,,,,,,,,,,,,,,,,,,,,,,,,,,,,,,,,,,,,,,,,,,,,,,,,,,,,,,,
,,?,0.00244,0,,,,,,stimuli/images/PICTURE_32.png,KIND,5f2f19107e19512f94ede28b,22/07/1999,2020-08-27_18h33.31.866,proactive3.1,2020.1.2,Win32,60,5f47c29a48bd2a1e651a6eb7,5f47ee4b84ba2724c92aa8e1,5,,,,,,crown,,,,,,,,,,,4,1,0,36,36,35,1,,,,,,,,,,,,,,,,,,,,,,,,,,,,,,,,,,,,,,,,,,,,,,,,,,,,,,,,,,,,,,,,,,,,,,,,,,,,,,,,,,,,,,,,,,,,,,,,,,,,,,,,
,,SALE,15.00145,1,,,,,,stimuli/images/PICTURE_675.png,SALE,5f2f19107e19512f94ede28b,22/07/1999,2020-08-27_18h33.31.866,proactive3.1,2020.1.2,Win32,60,5f47c29a48bd2a1e651a6eb7,5f47ee4b84ba2724c92aa8e1,5,,,,,,windmill,,,,,,,,,,,5,1,0,37,37,47,1,,,,,,,,,,,,,,,,,,,,,,,,,,,,,,,,,,,,,,,,,,,,,,,,,,,,,,,,,,,,,,,,,,,,,,,,,,,,,,,,,,,,,,,,,,,,,,,,,,,,,,,,
,,TOILET,15.01332,1,,,,,,stimuli/images/PICTURE_85.png,TOILET,5f2f19107e19512f94ede28b,22/07/1999,2020-08-27_18h33.31.866,proactive3.1,2020.1.2,Win32,60,5f47c29a48bd2a1e651a6eb7,5f47ee4b84ba2724c92aa8e1,5,,,,,,diamond,,,,,,,,,,,5,1,0,38,38,48,1,,,,,,,,,,,,,,,,,,,,,,,,,,,,,,,,,,,,,,,,,,,,,,,,,,,,,,,,,,,,,,,,,,,,,,,,,,,,,,,,,,,,,,,,,,,,,,,,,,,,,,,,
,,?,0.00229,0,,,,,,stimuli/images/PICTURE_449.png,DUDE,5f2f19107e19512f94ede28b,22/07/1999,2020-08-27_18h33.31.866,proactive3.1,2020.1.2,Win32,60,5f47c29a48bd2a1e651a6eb7,5f47ee4b84ba2724c92aa8e1,5,,,,,,bench,,,,,,,,,,,2,1,0,39,39,17,1,,,,,,,,,,,,,,,,,,,,,,,,,,,,,,,,,,,,,,,,,,,,,,,,,,,,,,,,,,,,,,,,,,,,,,,,,,,,,,,,,,,,,,,,,,,,,,,,,,,,,,,,
,,?,0.002425,0,,,,,,stimuli/images/PICTURE_403.png,WRITER,5f2f19107e19512f94ede28b,22/07/1999,2020-08-27_18h33.31.866,proactive3.1,2020.1.2,Win32,60,5f47c29a48bd2a1e651a6eb7,5f47ee4b84ba2724c92aa8e1,5,,,,,,cathedral,,,,,,,,,,,4,1,0,40,40,31,1,,,,,,,,,,,,,,,,,,,,,,,,,,,,,,,,,,,,,,,,,,,,,,,,,,,,,,,,,,,,,,,,,,,,,,,,,,,,,,,,,,,,,,,,,,,,,,,,,,,,,,,,
,,?,0.00232,0,,,,,,stimuli/images/PICTURE_504.png,YEAR,5f2f19107e19512f94ede28b,22/07/1999,2020-08-27_18h33.31.866,proactive3.1,2020.1.2,Win32,60,5f47c29a48bd2a1e651a6eb7,5f47ee4b84ba2724c92aa8e1,5,,,,,,wheel,,,,,,,,,,,2,1,0,41,41,13,1,,,,,,,,,,,,,,,,,,,,,,,,,,,,,,,,,,,,,,,,,,,,,,,,,,,,,,,,,,,,,,,,,,,,,,,,,,,,,,,,,,,,,,,,,,,,,,,,,,,,,,,,
,,?,0.00186,0,,,,,,stimuli/images/PICTURE_203.png,GODS,5f2f19107e19512f94ede28b,22/07/1999,2020-08-27_18h33.31.866,proactive3.1,2020.1.2,Win32,60,5f47c29a48bd2a1e651a6eb7,5f47ee4b84ba2724c92aa8e1,5,,,,,,cap,,,,,,,,,,,4,1,0,42,42,30,1,,,,,,,,,,,,,,,,,,,,,,,,,,,,,,,,,,,,,,,,,,,,,,,,,,,,,,,,,,,,,,,,,,,,,,,,,,,,,,,,,,,,,,,,,,,,,,,,,,,,,,,,
,,?,0.001945,0,,,,,,stimuli/images/PICTURE_383.png,WRITER,5f2f19107e19512f94ede28b,22/07/1999,2020-08-27_18h33.31.866,proactive3.1,2020.1.2,Win32,60,5f47c29a48bd2a1e651a6eb7,5f47ee4b84ba2724c92aa8e1,5,,,,,,coin,,,,,,,,,,,3,1,0,43,43,28,1,,,,,,,,,,,,,,,,,,,,,,,,,,,,,,,,,,,,,,,,,,,,,,,,,,,,,,,,,,,,,,,,,,,,,,,,,,,,,,,,,,,,,,,,,,,,,,,,,,,,,,,,
,,SERIES,15.00338,1,,,,,,stimuli/images/PICTURE_383.png,SERIES,5f2f19107e19512f94ede28b,22/07/1999,2020-08-27_18h33.31.866,proactive3.1,2020.1.2,Win32,60,5f47c29a48bd2a1e651a6eb7,5f47ee4b84ba2724c92aa8e1,5,,,,,,coin,,,,,,,,,,,5,1,0,44,44,46,1,,,,,,,,,,,,,,,,,,,,,,,,,,,,,,,,,,,,,,,,,,,,,,,,,,,,,,,,,,,,,,,,,,,,,,,,,,,,,,,,,,,,,,,,,,,,,,,,,,,,,,,,
,,?,0.002525,0,,,,,,stimuli/images/PICTURE_68.png,MILE,5f2f19107e19512f94ede28b,22/07/1999,2020-08-27_18h33.31.866,proactive3.1,2020.1.2,Win32,60,5f47c29a48bd2a1e651a6eb7,5f47ee4b84ba2724c92aa8e1,5,,,,,,candle,,,,,,,,,,,6,1,0,45,45,51,1,,,,,,,,,,,,,,,,,,,,,,,,,,,,,,,,,,,,,,,,,,,,,,,,,,,,,,,,,,,,,,,,,,,,,,,,,,,,,,,,,,,,,,,,,,,,,,,,,,,,,,,,
,,?,0.00212,0,,,,,,stimuli/images/PICTURE_491.png,GLASS,5f2f19107e19512f94ede28b,22/07/1999,2020-08-27_18h33.31.866,proactive3.1,2020.1.2,Win32,60,5f47c29a48bd2a1e651a6eb7,5f47ee4b84ba2724c92aa8e1,5,,,,,,rug,,,,,,,,,,,2,1,0,46,46,14,1,,,,,,,,,,,,,,,,,,,,,,,,,,,,,,,,,,,,,,,,,,,,,,,,,,,,,,,,,,,,,,,,,,,,,,,,,,,,,,,,,,,,,,,,,,,,,,,,,,,,,,,,
,,ARTIST,15.003165,1,,,,,,stimuli/images/PICTURE_504.png,ARTIST,5f2f19107e19512f94ede28b,22/07/1999,2020-08-27_18h33.31.866,proactive3.1,2020.1.2,Win32,60,5f47c29a48bd2a1e651a6eb7,5f47ee4b84ba2724c92aa8e1,5,,,,,,wheel,,,,,,,,,,,5,1,0,47,47,49,1,,,,,,,,,,,,,,,,,,,,,,,,,,,,,,,,,,,,,,,,,,,,,,,,,,,,,,,,,,,,,,,,,,,,,,,,,,,,,,,,,,,,,,,,,,,,,,,,,,,,,,,,
,,GIRL,15.01347,1,,,,,,stimuli/images/PICTURE_487.png,GIRL,5f2f19107e19512f94ede28b,22/07/1999,2020-08-27_18h33.31.866,proactive3.1,2020.1.2,Win32,60,5f47c29a48bd2a1e651a6eb7,5f47ee4b84ba2724c92aa8e1,5,,,,,,basket,,,,,,,,,,,5,1,0,48,48,45,1,,,,,,,,,,,,,,,,,,,,,,,,,,,,,,,,,,,,,,,,,,,,,,,,,,,,,,,,,,,,,,,,,,,,,,,,,,,,,,,,,,,,,,,,,,,,,,,,,,,,,,,,
,,?,0.002245,0,,,,,,stimuli/images/PICTURE_380.png,HONEY,5f2f19107e19512f94ede28b,22/07/1999,2020-08-27_18h33.31.866,proactive3.1,2020.1.2,Win32,60,5f47c29a48bd2a1e651a6eb7,5f47ee4b84ba2724c92aa8e1,5,,,,,,gorilla,,,,,,,,,,,2,1,0,49,49,19,1,,,,,,,,,,,,,,,,,,,,,,,,,,,,,,,,,,,,,,,,,,,,,,,,,,,,,,,,,,,,,,,,,,,,,,,,,,,,,,,,,,,,,,,,,,,,,,,,,,,,,,,,
,,?,0.00194,0,,,,,,stimuli/images/PICTURE_467.png,POLICY,5f2f19107e19512f94ede28b,22/07/1999,2020-08-27_18h33.31.866,proactive3.1,2020.1.2,Win32,60,5f47c29a48bd2a1e651a6eb7,5f47ee4b84ba2724c92aa8e1,5,,,,,,peg,,,,,,,,,,,6,1,0,50,50,53,1,,,,,,,,,,,,,,,,,,,,,,,,,,,,,,,,,,,,,,,,,,,,,,,,,,,,,,,,,,,,,,,,,,,,,,,,,,,,,,,,,,,,,,,,,,,,,,,,,,,,,,,,
,,?,0.0019,0,,,,,,stimuli/images/PICTURE_469.png,AGENT,5f2f19107e19512f94ede28b,22/07/1999,2020-08-27_18h33.31.866,proactive3.1,2020.1.2,Win32,60,5f47c29a48bd2a1e651a6eb7,5f47ee4b84ba2724c92aa8e1,5,,,,,,stool,,,,,,,,,,,2,1,0,51,51,16,1,,,,,,,,,,,,,,,,,,,,,,,,,,,,,,,,,,,,,,,,,,,,,,,,,,,,,,,,,,,,,,,,,,,,,,,,,,,,,,,,,,,,,,,,,,,,,,,,,,,,,,,,
,,?,0.002715,0,,,,,,stimuli/images/PICTURE_655.png,TOILET,5f2f19107e19512f94ede28b,22/07/1999,2020-08-27_18h33.31.866,proactive3.1,2020.1.2,Win32,60,5f47c29a48bd2a1e651a6eb7,5f47ee4b84ba2724c92aa8e1,5,,,,,,megaphone,,,,,,,,,,,2,1,0,52,52,12,1,,,,,,,,,,,,,,,,,,,,,,,,,,,,,,,,,,,,,,,,,,,,,,,,,,,,,,,,,,,,,,,,,,,,,,,,,,,,,,,,,,,,,,,,,,,,,,,,,,,,,,,,
,,?,0.002235,0,,,,,,stimuli/images/PICTURE_744.png,WEAPON,5f2f19107e19512f94ede28b,22/07/1999,2020-08-27_18h33.31.866,proactive3.1,2020.1.2,Win32,60,5f47c29a48bd2a1e651a6eb7,5f47ee4b84ba2724c92aa8e1,5,,,,,,ring,,,,,,,,,,,6,1,0,53,53,50,1,,,,,,,,,,,,,,,,,,,,,,,,,,,,,,,,,,,,,,,,,,,,,,,,,,,,,,,,,,,,,,,,,,,,,,,,,,,,,,,,,,,,,,,,,,,,,,,,,,,,,,,,
,,RIVER,15.00487,1,,,,,,stimuli/images/PICTURE_403.png,RIVER,5f2f19107e19512f94ede28b,22/07/1999,2020-08-27_18h33.31.866,proactive3.1,2020.1.2,Win32,60,5f47c29a48bd2a1e651a6eb7,5f47ee4b84ba2724c92aa8e1,5,,,,,,cathedral,,,,,,,,,,,5,1,0,54,54,40,1,,,,,,,,,,,,,,,,,,,,,,,,,,,,,,,,,,,,,,,,,,,,,,,,,,,,,,,,,,,,,,,,,,,,,,,,,,,,,,,,,,,,,,,,,,,,,,,,,,,,,,,,
,,HONEY,15.013395,1,,,,,,stimuli/images/PICTURE_95.png,HONEY,5f2f19107e19512f94ede28b,22/07/1999,2020-08-27_18h33.31.866,proactive3.1,2020.1.2,Win32,60,5f47c29a48bd2a1e651a6eb7,5f47ee4b84ba2724c92aa8e1,5,,,,,,suitcase,,,,,,,,,,,5,1,0,55,55,44,1,,,,,,,,,,,,,,,,,,,,,,,,,,,,,,,,,,,,,,,,,,,,,,,,,,,,,,,,,,,,,,,,,,,,,,,,,,,,,,,,,,,,,,,,,,,,,,,,,,,,,,,,
,,?,0.002525,0,,,,,,stimuli/images/PICTURE_108.png,POLICY,5f2f19107e19512f94ede28b,22/07/1999,2020-08-27_18h33.31.866,proactive3.1,2020.1.2,Win32,60,5f47c29a48bd2a1e651a6eb7,5f47ee4b84ba2724c92aa8e1,5,,,,,,calendar,,,,,,,,,,,3,1,0,56,56,22,1,,,,,,,,,,,,,,,,,,,,,,,,,,,,,,,,,,,,,,,,,,,,,,,,,,,,,,,,,,,,,,,,,,,,,,,,,,,,,,,,,,,,,,,,,,,,,,,,,,,,,,,,
,,?,0.002855,0,,,,,,stimuli/images/PICTURE_327.png,SERIES,5f2f19107e19512f94ede28b,22/07/1999,2020-08-27_18h33.31.866,proactive3.1,2020.1.2,Win32,60,5f47c29a48bd2a1e651a6eb7,5f47ee4b84ba2724c92aa8e1,5,,,,,,helmet,,,,,,,,,,,1,1,0,57,57,3,1,,,,,,,,,,,,,,,,,,,,,,,,,,,,,,,,,,,,,,,,,,,,,,,,,,,,,,,,,,,,,,,,,,,,,,,,,,,,,,,,,,,,,,,,,,,,,,,,,,,,,,,,
,,?,0.002385,0,,,,,,stimuli/images/PICTURE_491.png,RIVER,5f2f19107e19512f94ede28b,22/07/1999,2020-08-27_18h33.31.866,proactive3.1,2020.1.2,Win32,60,5f47c29a48bd2a1e651a6eb7,5f47ee4b84ba2724c92aa8e1,5,,,,,,rug,,,,,,,,,,,1,1,0,58,58,6,1,,,,,,,,,,,,,,,,,,,,,,,,,,,,,,,,,,,,,,,,,,,,,,,,,,,,,,,,,,,,,,,,,,,,,,,,,,,,,,,,,,,,,,,,,,,,,,,,,,,,,,,,
,,?,0.00197,0,,,,,,stimuli/images/PICTURE_327.png,CASINO,5f2f19107e19512f94ede28b,22/07/1999,2020-08-27_18h33.31.866,proactive3.1,2020.1.2,Win32,60,5f47c29a48bd2a1e651a6eb7,5f47ee4b84ba2724c92aa8e1,5,,,,,,helmet,,,,,,,,,,,3,1,0,59,59,20,1,,,,,,,,,,,,,,,,,,,,,,,,,,,,,,,,,,,,,,,,,,,,,,,,,,,,,,,,,,,,,,,,,,,,,,,,,,,,,,,,,,,,,,,,,,,,,,,,,,,,,,,,
,,,,,,,,,,,,5f2f19107e19512f94ede28b,22/07/1999,2020-08-27_18h33.31.866,proactive3.1,2020.1.2,Win32,60,5f47c29a48bd2a1e651a6eb7,5f47ee4b84ba2724c92aa8e1,5,,,,,,,,,,,,,,,,,,,,,,,,0,1,1,1,1,stimuli/learn-block2.csv,,,,,,,,,,,,,,,,,,,,,,,,,,,,,,,,,,,,,,,,,,,,,,,,,,,,,,,,,,,,,,,,,,,,,,,,,,,,,,,,,,,,,,,,,,,,,,,,,,
,,,,,,,,,,stimuli/images/PICTURE_339.png,PLENTY,5f2f19107e19512f94ede28b,22/07/1999,2020-08-27_18h33.31.866,proactive3.1,2020.1.2,Win32,60,5f47c29a48bd2a1e651a6eb7,5f47ee4b84ba2724c92aa8e1,5,,,,,,backpack,,,,,,0,0,0,0,1,1,0,,,,,,,,,,,,,,,,,,,,,,,,,,,,,,,,,,,,,,,,,,,,,,,,,,,,,,,,,,,,,,,,,,,,,,,,,,,,,,,,,,,,,,,,,,,,,,,,,,,,,,,,,,,,,
,,,,,,,,,,stimuli/images/PICTURE_380.png,PHOTO,5f2f19107e19512f94ede28b,22/07/1999,2020-08-27_18h33.31.866,proactive3.1,2020.1.2,Win32,60,5f47c29a48bd2a1e651a6eb7,5f47ee4b84ba2724c92aa8e1,5,,,,,,gorilla,,,,,,0,1,1,52,1,6,0,,,,,,,,,,,,,,,,,,,,,,,,,,,,,,,,,,,,,,,,,,,,,,,,,,,,,,,,,,,,,,,,,,,,,,,,,,,,,,,,,,,,,,,,,,,,,,,,,,,,,,,,,,,,,
,,,,,,,,,,stimuli/images/PICTURE_744.png,SYSTEM,5f2f19107e19512f94ede28b,22/07/1999,2020-08-27_18h33.31.866,proactive3.1,2020.1.2,Win32,60,5f47c29a48bd2a1e651a6eb7,5f47ee4b84ba2724c92aa8e1,5,,,,,,ring,,,,,,0,2,2,43,1,5,0,,,,,,,,,,,,,,,,,,,,,,,,,,,,,,,,,,,,,,,,,,,,,,,,,,,,,,,,,,,,,,,,,,,,,,,,,,,,,,,,,,,,,,,,,,,,,,,,,,,,,,,,,,,,,
,,,,,,,,,,stimuli/images/PICTURE_708.png,YARD,5f2f19107e19512f94ede28b,22/07/1999,2020-08-27_18h33.31.866,proactive3.1,2020.1.2,Win32,60,5f47c29a48bd2a1e651a6eb7,5f47ee4b84ba2724c92aa8e1,5,,,,,,monkey,,,,,,0,3,3,29,1,3,0,,,,,,,,,,,,,,,,,,,,,,,,,,,,,,,,,,,,,,,,,,,,,,,,,,,,,,,,,,,,,,,,,,,,,,,,,,,,,,,,,,,,,,,,,,,,,,,,,,,,,,,,,,,,,
,,,,,,,,,,stimuli/images/PICTURE_504.png,BODY,5f2f19107e19512f94ede28b,22/07/1999,2020-08-27_18h33.31.866,proactive3.1,2020.1.2,Win32,60,5f47c29a48bd2a1e651a6eb7,5f47ee4b84ba2724c92aa8e1,5,,,,,,wheel,,,,,,0,4,4,8,1,1,0,,,,,,,,,,,,,,,,,,,,,,,,,,,,,,,,,,,,,,,,,,,,,,,,,,,,,,,,,,,,,,,,,,,,,,,,,,,,,,,,,,,,,,,,,,,,,,,,,,,,,,,,,,,,,
,,,,,,,,,,stimuli/images/PICTURE_233.png,IDEAS,5f2f19107e19512f94ede28b,22/07/1999,2020-08-27_18h33.31.866,proactive3.1,2020.1.2,Win32,60,5f47c29a48bd2a1e651a6eb7,5f47ee4b84ba2724c92aa8e1,5,,,,,,salt,,,,,,0,5,5,28,1,3,0,,,,,,,,,,,,,,,,,,,,,,,,,,,,,,,,,,,,,,,,,,,,,,,,,,,,,,,,,,,,,,,,,,,,,,,,,,,,,,,,,,,,,,,,,,,,,,,,,,,,,,,,,,,,,
,,,,,,,,,,stimuli/images/PICTURE_123.png,ADVICE,5f2f19107e19512f94ede28b,22/07/1999,2020-08-27_18h33.31.866,proactive3.1,2020.1.2,Win32,60,5f47c29a48bd2a1e651a6eb7,5f47ee4b84ba2724c92aa8e1,5,,,,,,dart,,,,,,0,6,6,50,1,6,0,,,,,,,,,,,,,,,,,,,,,,,,,,,,,,,,,,,,,,,,,,,,,,,,,,,,,,,,,,,,,,,,,,,,,,,,,,,,,,,,,,,,,,,,,,,,,,,,,,,,,,,,,,,,,
,,,,,,,,,,stimuli/images/PICTURE_285.png,ADVICE,5f2f19107e19512f94ede28b,22/07/1999,2020-08-27_18h33.31.866,proactive3.1,2020.1.2,Win32,60,5f47c29a48bd2a1e651a6eb7,5f47ee4b84ba2724c92aa8e1,5,,,,,,carrot,,,,,,0,7,7,12,1,2,0,,,,,,,,,,,,,,,,,,,,,,,,,,,,,,,,,,,,,,,,,,,,,,,,,,,,,,,,,,,,,,,,,,,,,,,,,,,,,,,,,,,,,,,,,,,,,,,,,,,,,,,,,,,,,
,,,,,,,,,,stimuli/images/PICTURE_667.png,BATH,5f2f19107e19512f94ede28b,22/07/1999,2020-08-27_18h33.31.866,proactive3.1,2020.1.2,Win32,60,5f47c29a48bd2a1e651a6eb7,5f47ee4b84ba2724c92aa8e1,5,,,,,,daisy,,,,,,0,8,8,4,1,1,0,,,,,,,,,,,,,,,,,,,,,,,,,,,,,,,,,,,,,,,,,,,,,,,,,,,,,,,,,,,,,,,,,,,,,,,,,,,,,,,,,,,,,,,,,,,,,,,,,,,,,,,,,,,,,
,,,,,,,,,,stimuli/images/PICTURE_509.png,PHOTO,5f2f19107e19512f94ede28b,22/07/1999,2020-08-27_18h33.31.866,proactive3.1,2020.1.2,Win32,60,5f47c29a48bd2a1e651a6eb7,5f47ee4b84ba2724c92aa8e1,5,,,,,,telephone,,,,,,0,9,9,21,1,3,0,,,,,,,,,,,,,,,,,,,,,,,,,,,,,,,,,,,,,,,,,,,,,,,,,,,,,,,,,,,,,,,,,,,,,,,,,,,,,,,,,,,,,,,,,,,,,,,,,,,,,,,,,,,,,
,,,,,,,,,,stimuli/images/PICTURE_688.png,WOMEN,5f2f19107e19512f94ede28b,22/07/1999,2020-08-27_18h33.31.866,proactive3.1,2020.1.2,Win32,60,5f47c29a48bd2a1e651a6eb7,5f47ee4b84ba2724c92aa8e1,5,,,,,,runner,,,,,,0,10,10,14,1,2,0,,,,,,,,,,,,,,,,,,,,,,,,,,,,,,,,,,,,,,,,,,,,,,,,,,,,,,,,,,,,,,,,,,,,,,,,,,,,,,,,,,,,,,,,,,,,,,,,,,,,,,,,,,,,,
,,,,,,,,,,stimuli/images/PICTURE_123.png,ADVICE,5f2f19107e19512f94ede28b,22/07/1999,2020-08-27_18h33.31.866,proactive3.1,2020.1.2,Win32,60,5f47c29a48bd2a1e651a6eb7,5f47ee4b84ba2724c92aa8e1,5,,,,,,dart,,,,,,0,11,11,40,1,5,0,,,,,,,,,,,,,,,,,,,,,,,,,,,,,,,,,,,,,,,,,,,,,,,,,,,,,,,,,,,,,,,,,,,,,,,,,,,,,,,,,,,,,,,,,,,,,,,,,,,,,,,,,,,,,
,,,,,,,,,,stimuli/images/PICTURE_308.png,ESTATE,5f2f19107e19512f94ede28b,22/07/1999,2020-08-27_18h33.31.866,proactive3.1,2020.1.2,Win32,60,5f47c29a48bd2a1e651a6eb7,5f47ee4b84ba2724c92aa8e1,5,,,,,,dice,,,,,,0,12,12,46,1,5,0,,,,,,,,,,,,,,,,,,,,,,,,,,,,,,,,,,,,,,,,,,,,,,,,,,,,,,,,,,,,,,,,,,,,,,,,,,,,,,,,,,,,,,,,,,,,,,,,,,,,,,,,,,,,,
,,,,,,,,,,stimuli/images/PICTURE_302.png,FAMILY,5f2f19107e19512f94ede28b,22/07/1999,2020-08-27_18h33.31.866,proactive3.1,2020.1.2,Win32,60,5f47c29a48bd2a1e651a6eb7,5f47ee4b84ba2724c92aa8e1,5,,,,,,taxi,,,,,,0,13,13,18,1,2,0,,,,,,,,,,,,,,,,,,,,,,,,,,,,,,,,,,,,,,,,,,,,,,,,,,,,,,,,,,,,,,,,,,,,,,,,,,,,,,,,,,,,,,,,,,,,,,,,,,,,,,,,,,,,,
,,,,,,,,,,stimuli/images/PICTURE_314.png,SAKE,5f2f19107e19512f94ede28b,22/07/1999,2020-08-27_18h33.31.866,proactive3.1,2020.1.2,Win32,60,5f47c29a48bd2a1e651a6eb7,5f47ee4b84ba2724c92aa8e1,5,,,,,,perfume,,,,,,0,14,14,7,1,1,0,,,,,,,,,,,,,,,,,,,,,,,,,,,,,,,,,,,,,,,,,,,,,,,,,,,,,,,,,,,,,,,,,,,,,,,,,,,,,,,,,,,,,,,,,,,,,,,,,,,,,,,,,,,,,
,,,,,,,,,,stimuli/images/PICTURE_203.png,ARTIST,5f2f19107e19512f94ede28b,22/07/1999,2020-08-27_18h33.31.866,proactive3.1,2020.1.2,Win32,60,5f47c29a48bd2a1e651a6eb7,5f47ee4b84ba2724c92aa8e1,5,,,,,,cap,,,,,,0,15,15,26,1,3,0,,,,,,,,,,,,,,,,,,,,,,,,,,,,,,,,,,,,,,,,,,,,,,,,,,,,,,,,,,,,,,,,,,,,,,,,,,,,,,,,,,,,,,,,,,,,,,,,,,,,,,,,,,,,,
,,,,,,,,,,stimuli/images/PICTURE_314.png,GODS,5f2f19107e19512f94ede28b,22/07/1999,2020-08-27_18h33.31.866,proactive3.1,2020.1.2,Win32,60,5f47c29a48bd2a1e651a6eb7,5f47ee4b84ba2724c92aa8e1,5,,,,,,perfume,,,,,,0,16,16,11,1,2,0,,,,,,,,,,,,,,,,,,,,,,,,,,,,,,,,,,,,,,,,,,,,,,,,,,,,,,,,,,,,,,,,,,,,,,,,,,,,,,,,,,,,,,,,,,,,,,,,,,,,,,,,,,,,,
,,,,,,,,,,stimuli/images/PICTURE_675.png,WEAPON,5f2f19107e19512f94ede28b,22/07/1999,2020-08-27_18h33.31.866,proactive3.1,2020.1.2,Win32,60,5f47c29a48bd2a1e651a6eb7,5f47ee4b84ba2724c92aa8e1,5,,,,,,windmill,,,,,,0,17,17,32,1,4,0,,,,,,,,,,,,,,,,,,,,,,,,,,,,,,,,,,,,,,,,,,,,,,,,,,,,,,,,,,,,,,,,,,,,,,,,,,,,,,,,,,,,,,,,,,,,,,,,,,,,,,,,,,,,,
,,,,,,,,,,stimuli/images/PICTURE_255.png,AREA,5f2f19107e19512f94ede28b,22/07/1999,2020-08-27_18h33.31.866,proactive3.1,2020.1.2,Win32,60,5f47c29a48bd2a1e651a6eb7,5f47ee4b84ba2724c92aa8e1,5,,,,,,shovel,,,,,,0,18,18,22,1,3,0,,,,,,,,,,,,,,,,,,,,,,,,,,,,,,,,,,,,,,,,,,,,,,,,,,,,,,,,,,,,,,,,,,,,,,,,,,,,,,,,,,,,,,,,,,,,,,,,,,,,,,,,,,,,,
,,,,,,,,,,stimuli/images/PICTURE_469.png,ARTIST,5f2f19107e19512f94ede28b,22/07/1999,2020-08-27_18h33.31.866,proactive3.1,2020.1.2,Win32,60,5f47c29a48bd2a1e651a6eb7,5f47ee4b84ba2724c92aa8e1,5,,,,,,stool,,,,,,0,19,19,6,1,1,0,,,,,,,,,,,,,,,,,,,,,,,,,,,,,,,,,,,,,,,,,,,,,,,,,,,,,,,,,,,,,,,,,,,,,,,,,,,,,,,,,,,,,,,,,,,,,,,,,,,,,,,,,,,,,
,,,,,,,,,,stimuli/images/PICTURE_208.png,LOTS,5f2f19107e19512f94ede28b,22/07/1999,2020-08-27_18h33.31.866,proactive3.1,2020.1.2,Win32,60,5f47c29a48bd2a1e651a6eb7,5f47ee4b84ba2724c92aa8e1,5,,,,,,microphone,,,,,,0,20,20,10,1,2,0,,,,,,,,,,,,,,,,,,,,,,,,,,,,,,,,,,,,,,,,,,,,,,,,,,,,,,,,,,,,,,,,,,,,,,,,,,,,,,,,,,,,,,,,,,,,,,,,,,,,,,,,,,,,,
,,,,,,,,,,stimuli/images/PICTURE_453.png,DUDE,5f2f19107e19512f94ede28b,22/07/1999,2020-08-27_18h33.31.866,proactive3.1,2020.1.2,Win32,60,5f47c29a48bd2a1e651a6eb7,5f47ee4b84ba2724c92aa8e1,5,,,,,,scissors,,,,,,0,21,21,27,1,3,0,,,,,,,,,,,,,,,,,,,,,,,,,,,,,,,,,,,,,,,,,,,,,,,,,,,,,,,,,,,,,,,,,,,,,,,,,,,,,,,,,,,,,,,,,,,,,,,,,,,,,,,,,,,,,
,,,,,,,,,,stimuli/images/PICTURE_708.png,CLIENT,5f2f19107e19512f94ede28b,22/07/1999,2020-08-27_18h33.31.866,proactive3.1,2020.1.2,Win32,60,5f47c29a48bd2a1e651a6eb7,5f47ee4b84ba2724c92aa8e1,5,,,,,,monkey,,,,,,0,22,22,5,1,1,0,,,,,,,,,,,,,,,,,,,,,,,,,,,,,,,,,,,,,,,,,,,,,,,,,,,,,,,,,,,,,,,,,,,,,,,,,,,,,,,,,,,,,,,,,,,,,,,,,,,,,,,,,,,,,
,,,,,,,,,,stimuli/images/PICTURE_449.png,THING,5f2f19107e19512f94ede28b,22/07/1999,2020-08-27_18h33.31.866,proactive3.1,2020.1.2,Win32,60,5f47c29a48bd2a1e651a6eb7,5f47ee4b84ba2724c92aa8e1,5,,,,,,bench,,,,,,0,23,23,59,1,6,0,,,,,,,,,,,,,,,,,,,,,,,,,,,,,,,,,,,,,,,,,,,,,,,,,,,,,,,,,,,,,,,,,,,,,,,,,,,,,,,,,,,,,,,,,,,,,,,,,,,,,,,,,,,,,
,,,,,,,,,,stimuli/images/PICTURE_380.png,DEATH,5f2f19107e19512f94ede28b,22/07/1999,2020-08-27_18h33.31.866,proactive3.1,2020.1.2,Win32,60,5f47c29a48bd2a1e651a6eb7,5f47ee4b84ba2724c92aa8e1,5,,,,,,gorilla,,,,,,0,24,24,49,1,5,0,,,,,,,,,,,,,,,,,,,,,,,,,,,,,,,,,,,,,,,,,,,,,,,,,,,,,,,,,,,,,,,,,,,,,,,,,,,,,,,,,,,,,,,,,,,,,,,,,,,,,,,,,,,,,
,,,,,,,,,,stimuli/images/PICTURE_688.png,CASINO,5f2f19107e19512f94ede28b,22/07/1999,2020-08-27_18h33.31.866,proactive3.1,2020.1.2,Win32,60,5f47c29a48bd2a1e651a6eb7,5f47ee4b84ba2724c92aa8e1,5,,,,,,runner,,,,,,0,25,25,2,1,1,0,,,,,,,,,,,,,,,,,,,,,,,,,,,,,,,,,,,,,,,,,,,,,,,,,,,,,,,,,,,,,,,,,,,,,,,,,,,,,,,,,,,,,,,,,,,,,,,,,,,,,,,,,,,,,
,,,,,,,,,,stimuli/images/PICTURE_654.png,VALLEY,5f2f19107e19512f94ede28b,22/07/1999,2020-08-27_18h33.31.866,proactive3.1,2020.1.2,Win32,60,5f47c29a48bd2a1e651a6eb7,5f47ee4b84ba2724c92aa8e1,5,,,,,,pencil,,,,,,0,26,26,1,1,1,0,,,,,,,,,,,,,,,,,,,,,,,,,,,,,,,,,,,,,,,,,,,,,,,,,,,,,,,,,,,,,,,,,,,,,,,,,,,,,,,,,,,,,,,,,,,,,,,,,,,,,,,,,,,,,
,,,,,,,,,,stimuli/images/PICTURE_348.png,SPEECH,5f2f19107e19512f94ede28b,22/07/1999,2020-08-27_18h33.31.866,proactive3.1,2020.1.2,Win32,60,5f47c29a48bd2a1e651a6eb7,5f47ee4b84ba2724c92aa8e1,5,,,,,,pepper,,,,,,0,27,27,20,1,3,0,,,,,,,,,,,,,,,,,,,,,,,,,,,,,,,,,,,,,,,,,,,,,,,,,,,,,,,,,,,,,,,,,,,,,,,,,,,,,,,,,,,,,,,,,,,,,,,,,,,,,,,,,,,,,
,,,,,,,,,,stimuli/images/PICTURE_327.png,BEAUTY,5f2f19107e19512f94ede28b,22/07/1999,2020-08-27_18h33.31.866,proactive3.1,2020.1.2,Win32,60,5f47c29a48bd2a1e651a6eb7,5f47ee4b84ba2724c92aa8e1,5,,,,,,helmet,,,,,,0,28,28,48,1,5,0,,,,,,,,,,,,,,,,,,,,,,,,,,,,,,,,,,,,,,,,,,,,,,,,,,,,,,,,,,,,,,,,,,,,,,,,,,,,,,,,,,,,,,,,,,,,,,,,,,,,,,,,,,,,,
,,,,,,,,,,stimuli/images/PICTURE_311.png,FRIEND,5f2f19107e19512f94ede28b,22/07/1999,2020-08-27_18h33.31.866,proactive3.1,2020.1.2,Win32,60,5f47c29a48bd2a1e651a6eb7,5f47ee4b84ba2724c92aa8e1,5,,,,,,razor,,,,,,0,29,29,34,1,4,0,,,,,,,,,,,,,,,,,,,,,,,,,,,,,,,,,,,,,,,,,,,,,,,,,,,,,,,,,,,,,,,,,,,,,,,,,,,,,,,,,,,,,,,,,,,,,,,,,,,,,,,,,,,,,
,,,,,,,,,,stimuli/images/PICTURE_453.png,PLENTY,5f2f19107e19512f94ede28b,22/07/1999,2020-08-27_18h33.31.866,proactive3.1,2020.1.2,Win32,60,5f47c29a48bd2a1e651a6eb7,5f47ee4b84ba2724c92aa8e1,5,,,,,,scissors,,,,,,0,30,30,56,1,6,0,,,,,,,,,,,,,,,,,,,,,,,,,,,,,,,,,,,,,,,,,,,,,,,,,,,,,,,,,,,,,,,,,,,,,,,,,,,,,,,,,,,,,,,,,,,,,,,,,,,,,,,,,,,,,
,,,,,,,,,,stimuli/images/PICTURE_95.png,STYLE,5f2f19107e19512f94ede28b,22/07/1999,2020-08-27_18h33.31.866,proactive3.1,2020.1.2,Win32,60,5f47c29a48bd2a1e651a6eb7,5f47ee4b84ba2724c92aa8e1,5,,,,,,suitcase,,,,,,0,31,31,25,1,3,0,,,,,,,,,,,,,,,,,,,,,,,,,,,,,,,,,,,,,,,,,,,,,,,,,,,,,,,,,,,,,,,,,,,,,,,,,,,,,,,,,,,,,,,,,,,,,,,,,,,,,,,,,,,,,
,,,,,,,,,,stimuli/images/PICTURE_68.png,MILE,5f2f19107e19512f94ede28b,22/07/1999,2020-08-27_18h33.31.866,proactive3.1,2020.1.2,Win32,60,5f47c29a48bd2a1e651a6eb7,5f47ee4b84ba2724c92aa8e1,5,,,,,,candle,,,,,,0,32,32,44,1,5,0,,,,,,,,,,,,,,,,,,,,,,,,,,,,,,,,,,,,,,,,,,,,,,,,,,,,,,,,,,,,,,,,,,,,,,,,,,,,,,,,,,,,,,,,,,,,,,,,,,,,,,,,,,,,,
,,,,,,,,,,stimuli/images/PICTURE_708.png,PENNY,5f2f19107e19512f94ede28b,22/07/1999,2020-08-27_18h33.31.866,proactive3.1,2020.1.2,Win32,60,5f47c29a48bd2a1e651a6eb7,5f47ee4b84ba2724c92aa8e1,5,,,,,,monkey,,,,,,0,33,33,31,1,4,0,,,,,,,,,,,,,,,,,,,,,,,,,,,,,,,,,,,,,,,,,,,,,,,,,,,,,,,,,,,,,,,,,,,,,,,,,,,,,,,,,,,,,,,,,,,,,,,,,,,,,,,,,,,,,
,,,,,,,,,,stimuli/images/PICTURE_85.png,THING,5f2f19107e19512f94ede28b,22/07/1999,2020-08-27_18h33.31.866,proactive3.1,2020.1.2,Win32,60,5f47c29a48bd2a1e651a6eb7,5f47ee4b84ba2724c92aa8e1,5,,,,,,diamond,,,,,,0,34,34,15,1,2,0,,,,,,,,,,,,,,,,,,,,,,,,,,,,,,,,,,,,,,,,,,,,,,,,,,,,,,,,,,,,,,,,,,,,,,,,,,,,,,,,,,,,,,,,,,,,,,,,,,,,,,,,,,,,,
,,,,,,,,,,stimuli/images/PICTURE_177.png,CARS,5f2f19107e19512f94ede28b,22/07/1999,2020-08-27_18h33.31.866,proactive3.1,2020.1.2,Win32,60,5f47c29a48bd2a1e651a6eb7,5f47ee4b84ba2724c92aa8e1,5,,,,,,mushroom,,,,,,0,35,35,35,1,4,0,,,,,,,,,,,,,,,,,,,,,,,,,,,,,,,,,,,,,,,,,,,,,,,,,,,,,,,,,,,,,,,,,,,,,,,,,,,,,,,,,,,,,,,,,,,,,,,,,,,,,,,,,,,,,
,,,,,,,,,,stimuli/images/PICTURE_356.png,DANGER,5f2f19107e19512f94ede28b,22/07/1999,2020-08-27_18h33.31.866,proactive3.1,2020.1.2,Win32,60,5f47c29a48bd2a1e651a6eb7,5f47ee4b84ba2724c92aa8e1,5,,,,,,pawn,,,,,,0,36,36,55,1,6,0,,,,,,,,,,,,,,,,,,,,,,,,,,,,,,,,,,,,,,,,,,,,,,,,,,,,,,,,,,,,,,,,,,,,,,,,,,,,,,,,,,,,,,,,,,,,,,,,,,,,,,,,,,,,,
,,,,,,,,,,stimuli/images/PICTURE_667.png,PLENTY,5f2f19107e19512f94ede28b,22/07/1999,2020-08-27_18h33.31.866,proactive3.1,2020.1.2,Win32,60,5f47c29a48bd2a1e651a6eb7,5f47ee4b84ba2724c92aa8e1,5,,,,,,daisy,,,,,,0,37,37,41,1,5,0,,,,,,,,,,,,,,,,,,,,,,,,,,,,,,,,,,,,,,,,,,,,,,,,,,,,,,,,,,,,,,,,,,,,,,,,,,,,,,,,,,,,,,,,,,,,,,,,,,,,,,,,,,,,,
,,,,,,,,,,stimuli/images/PICTURE_491.png,ROOF,5f2f19107e19512f94ede28b,22/07/1999,2020-08-27_18h33.31.866,proactive3.1,2020.1.2,Win32,60,5f47c29a48bd2a1e651a6eb7,5f47ee4b84ba2724c92aa8e1,5,,,,,,rug,,,,,,0,38,38,24,1,3,0,,,,,,,,,,,,,,,,,,,,,,,,,,,,,,,,,,,,,,,,,,,,,,,,,,,,,,,,,,,,,,,,,,,,,,,,,,,,,,,,,,,,,,,,,,,,,,,,,,,,,,,,,,,,,
