consent_key.keys,consent_key.rt,recalled,recalled_rt,recall_acc,example_recall.thisRepN,example_recall.thisTrialN,example_recall.thisN,example_recall.thisIndex,example_recall.ran,file,word,participant,please enter your date of birth (dd/mm/yyyy),date,expName,psychopyVersion,OS,frameRate,STUDY_ID,SESSION_ID,list,prac_learn_study_loop.thisRepN,prac_learn_study_loop.thisTrialN,prac_learn_study_loop.thisN,prac_learn_study_loop.thisIndex,prac_learn_study_loop.ran,image,prac_learn_test_loop.thisRepN,prac_learn_test_loop.thisTrialN,prac_learn_test_loop.thisN,prac_learn_test_loop.thisIndex,prac_learn_test_loop.ran,learn_study_loop.thisRepN,learn_study_loop.thisTrialN,learn_study_loop.thisN,learn_study_loop.thisIndex,learn_study_loop.ran,list_no,block_no,learn_test_loop.thisRepN,learn_test_loop.thisTrialN,learn_test_loop.thisN,learn_test_loop.thisIndex,learn_test_loop.ran,learn_blocks.thisRepN,learn_blocks.thisTrialN,learn_blocks.thisN,learn_blocks.thisIndex,learn_blocks.ran,block_csv,key_resp_13.keys,key_resp_13.rt,learn_blocks_loop.thisRepN,learn_blocks_loop.thisTrialN,learn_blocks_loop.thisN,learn_blocks_loop.thisIndex,learn_blocks_loop.ran,final_learn_test.thisRepN,final_learn_test.thisTrialN,final_learn_test.thisN,final_learn_test.thisIndex,final_learn_test.ran,s_im1,s_im2,s_im3,s_im4,s_im5,s_im6,s_im7,s_im8,s_im1pos,s_im2pos,s_im3pos,s_im4pos,s_im5pos,s_im6pos,s_im7pos,s_im8pos,s_tarright,search_resp.keys,search_resp.rt,search_loop.thisRepN,search_loop.thisTrialN,search_loop.thisN,search_loop.thisIndex,search_loop.ran,prac_wm_search_loop.thisRepN,prac_wm_search_loop.thisTrialN,prac_wm_search_loop.thisN,prac_wm_search_loop.thisIndex,prac_wm_search_loop.ran,prac_wm_test_loop.thisRepN,prac_wm_test_loop.thisTrialN,prac_wm_test_loop.thisN,prac_wm_test_loop.thisIndex,prac_wm_test_loop.ran,wm_recalled1,wm_recall_rt1,wm_probed1,wm_recall_acc1,wm_recalled2,wm_recall_rt2,wm_probed2,wm_recall_acc2,wm_recalled3,wm_recall_rt3,wm_probed3,wm_recall_acc3,wm_recalled4,wm_recall_rt4,wm_probed4,wm_recall_acc4,prac_wm_trial_loop.thisRepN,prac_wm_trial_loop.thisTrialN,prac_wm_trial_loop.thisN,prac_wm_trial_loop.thisIndex,prac_wm_trial_loop.ran,word1,image1,file1,item_type1,word2,image2,file2,item_type2,word4,image4,file4,item_type4,word3,image3,file3,item_type3,wm_search_loop.thisRepN,wm_search_loop.thisTrialN,wm_search_loop.thisN,wm_search_loop.thisIndex,wm_search_loop.ran,wm_test_loop.thisRepN,wm_test_loop.thisTrialN,wm_test_loop.thisN,wm_test_loop.thisIndex,wm_test_loop.ran,wm_trial_loop.thisRepN,wm_trial_loop.thisTrialN,wm_trial_loop.thisN,wm_trial_loop.thisIndex,wm_trial_loop.ran
y,4.41379,TOUGH,4.57354,1,0,0,0,0,1,stimuli/images/PICTURE_747.png,TOUGH,5f3575a9994ab95447c9b16a,06/08/1993,2020-08-27_18h23.57.208,proactive3.1,2020.1.2,Win32,60,5f47c29a48bd2a1e651a6eb7,5f47ec1283588023feca3db5,4,,,,,,,,,,,,,,,,,,,,,,,,,,,,,,,,,,,,,,,,,,,,,,,,,,,,,,,,,,,,,,,,,,,,,,,,,,,,,,,,,,,,,,,,,,,,,,,,,,,,,,,,,,,,,,,,,,,,,,,,,,,,,,,
,,,,,,,,,,stimuli/images/PICTURE_697.png,KILLER,5f3575a9994ab95447c9b16a,06/08/1993,2020-08-27_18h23.57.208,proactive3.1,2020.1.2,Win32,60,5f47c29a48bd2a1e651a6eb7,5f47ec1283588023feca3db5,4,0,0,0,4,1,peach,,,,,,,,,,,,,,,,,,,,,,,,,,,,,,,,,,,,,,,,,,,,,,,,,,,,,,,,,,,,,,,,,,,,,,,,,,,,,,,,,,,,,,,,,,,,,,,,,,,,,,,,,,,,,,,,,,,,,,,,,
,,,,,,,,,,stimuli/images/PICTURE_727.png,CELL,5f3575a9994ab95447c9b16a,06/08/1993,2020-08-27_18h23.57.208,proactive3.1,2020.1.2,Win32,60,5f47c29a48bd2a1e651a6eb7,5f47ec1283588023feca3db5,4,0,1,1,1,1,hose,,,,,,,,,,,,,,,,,,,,,,,,,,,,,,,,,,,,,,,,,,,,,,,,,,,,,,,,,,,,,,,,,,,,,,,,,,,,,,,,,,,,,,,,,,,,,,,,,,,,,,,,,,,,,,,,,,,,,,,,,
,,,,,,,,,,stimuli/images/PICTURE_378.png,LOSS,5f3575a9994ab95447c9b16a,06/08/1993,2020-08-27_18h23.57.208,proactive3.1,2020.1.2,Win32,60,5f47c29a48bd2a1e651a6eb7,5f47ec1283588023feca3db5,4,0,2,2,2,1,lobster,,,,,,,,,,,,,,,,,,,,,,,,,,,,,,,,,,,,,,,,,,,,,,,,,,,,,,,,,,,,,,,,,,,,,,,,,,,,,,,,,,,,,,,,,,,,,,,,,,,,,,,,,,,,,,,,,,,,,,,,,
,,,,,,,,,,stimuli/images/PICTURE_658.png,DEVIL,5f3575a9994ab95447c9b16a,06/08/1993,2020-08-27_18h23.57.208,proactive3.1,2020.1.2,Win32,60,5f47c29a48bd2a1e651a6eb7,5f47ec1283588023feca3db5,4,0,3,3,3,1,crow,,,,,,,,,,,,,,,,,,,,,,,,,,,,,,,,,,,,,,,,,,,,,,,,,,,,,,,,,,,,,,,,,,,,,,,,,,,,,,,,,,,,,,,,,,,,,,,,,,,,,,,,,,,,,,,,,,,,,,,,,
,,LOSS,1.74145,1,,,,,,stimuli/images/PICTURE_378.png,LOSS,5f3575a9994ab95447c9b16a,06/08/1993,2020-08-27_18h23.57.208,proactive3.1,2020.1.2,Win32,60,5f47c29a48bd2a1e651a6eb7,5f47ec1283588023feca3db5,4,,,,,,lobster,0,0,0,2,1,,,,,,,,,,,,,,,,,,,,,,,,,,,,,,,,,,,,,,,,,,,,,,,,,,,,,,,,,,,,,,,,,,,,,,,,,,,,,,,,,,,,,,,,,,,,,,,,,,,,,,,,,,,,,,,,,,,,
,,GENIUS,2.91326,1,,,,,,stimuli/images/PICTURE_269.png,GENIUS,5f3575a9994ab95447c9b16a,06/08/1993,2020-08-27_18h23.57.208,proactive3.1,2020.1.2,Win32,60,5f47c29a48bd2a1e651a6eb7,5f47ec1283588023feca3db5,4,,,,,,chameleon,0,1,1,0,1,,,,,,,,,,,,,,,,,,,,,,,,,,,,,,,,,,,,,,,,,,,,,,,,,,,,,,,,,,,,,,,,,,,,,,,,,,,,,,,,,,,,,,,,,,,,,,,,,,,,,,,,,,,,,,,,,,,,
,,KILLER,3.17993,1,,,,,,stimuli/images/PICTURE_697.png,KILLER,5f3575a9994ab95447c9b16a,06/08/1993,2020-08-27_18h23.57.208,proactive3.1,2020.1.2,Win32,60,5f47c29a48bd2a1e651a6eb7,5f47ec1283588023feca3db5,4,,,,,,peach,0,2,2,4,1,,,,,,,,,,,,,,,,,,,,,,,,,,,,,,,,,,,,,,,,,,,,,,,,,,,,,,,,,,,,,,,,,,,,,,,,,,,,,,,,,,,,,,,,,,,,,,,,,,,,,,,,,,,,,,,,,,,,
,,DEVIL,3.36314,1,,,,,,stimuli/images/PICTURE_658.png,DEVIL,5f3575a9994ab95447c9b16a,06/08/1993,2020-08-27_18h23.57.208,proactive3.1,2020.1.2,Win32,60,5f47c29a48bd2a1e651a6eb7,5f47ec1283588023feca3db5,4,,,,,,crow,0,3,3,3,1,,,,,,,,,,,,,,,,,,,,,,,,,,,,,,,,,,,,,,,,,,,,,,,,,,,,,,,,,,,,,,,,,,,,,,,,,,,,,,,,,,,,,,,,,,,,,,,,,,,,,,,,,,,,,,,,,,,,
,,CELL,2.263735,1,,,,,,stimuli/images/PICTURE_727.png,CELL,5f3575a9994ab95447c9b16a,06/08/1993,2020-08-27_18h23.57.208,proactive3.1,2020.1.2,Win32,60,5f47c29a48bd2a1e651a6eb7,5f47ec1283588023feca3db5,4,,,,,,hose,0,4,4,1,1,,,,,,,,,,,,,,,,,,,,,,,,,,,,,,,,,,,,,,,,,,,,,,,,,,,,,,,,,,,,,,,,,,,,,,,,,,,,,,,,,,,,,,,,,,,,,,,,,,,,,,,,,,,,,,,,,,,,
,,,,,,,,,,stimuli/images/PICTURE_487.png,FLIGHT,5f3575a9994ab95447c9b16a,06/08/1993,2020-08-27_18h23.57.208,proactive3.1,2020.1.2,Win32,60,5f47c29a48bd2a1e651a6eb7,5f47ec1283588023feca3db5,4,,,,,,basket,,,,,,0,0,0,9,1,1,0,,,,,,,,,,,,,,,,,,,,,,,,,,,,,,,,,,,,,,,,,,,,,,,,,,,,,,,,,,,,,,,,,,,,,,,,,,,,,,,,,,,,,,,,,,,,,,,,,,,,,,,,,,,,,
,,,,,,,,,,stimuli/images/PICTURE_708.png,PENNY,5f3575a9994ab95447c9b16a,06/08/1993,2020-08-27_18h23.57.208,proactive3.1,2020.1.2,Win32,60,5f47c29a48bd2a1e651a6eb7,5f47ec1283588023feca3db5,4,,,,,,monkey,,,,,,0,1,1,31,1,4,0,,,,,,,,,,,,,,,,,,,,,,,,,,,,,,,,,,,,,,,,,,,,,,,,,,,,,,,,,,,,,,,,,,,,,,,,,,,,,,,,,,,,,,,,,,,,,,,,,,,,,,,,,,,,,
,,,,,,,,,,stimuli/images/PICTURE_708.png,CLIENT,5f3575a9994ab95447c9b16a,06/08/1993,2020-08-27_18h23.57.208,proactive3.1,2020.1.2,Win32,60,5f47c29a48bd2a1e651a6eb7,5f47ec1283588023feca3db5,4,,,,,,monkey,,,,,,0,2,2,5,1,1,0,,,,,,,,,,,,,,,,,,,,,,,,,,,,,,,,,,,,,,,,,,,,,,,,,,,,,,,,,,,,,,,,,,,,,,,,,,,,,,,,,,,,,,,,,,,,,,,,,,,,,,,,,,,,,
,,,,,,,,,,stimuli/images/PICTURE_123.png,ADVICE,5f3575a9994ab95447c9b16a,06/08/1993,2020-08-27_18h23.57.208,proactive3.1,2020.1.2,Win32,60,5f47c29a48bd2a1e651a6eb7,5f47ec1283588023feca3db5,4,,,,,,dart,,,,,,0,3,3,40,1,5,0,,,,,,,,,,,,,,,,,,,,,,,,,,,,,,,,,,,,,,,,,,,,,,,,,,,,,,,,,,,,,,,,,,,,,,,,,,,,,,,,,,,,,,,,,,,,,,,,,,,,,,,,,,,,,
,,,,,,,,,,stimuli/images/PICTURE_667.png,PLENTY,5f3575a9994ab95447c9b16a,06/08/1993,2020-08-27_18h23.57.208,proactive3.1,2020.1.2,Win32,60,5f47c29a48bd2a1e651a6eb7,5f47ec1283588023feca3db5,4,,,,,,daisy,,,,,,0,4,4,41,1,5,0,,,,,,,,,,,,,,,,,,,,,,,,,,,,,,,,,,,,,,,,,,,,,,,,,,,,,,,,,,,,,,,,,,,,,,,,,,,,,,,,,,,,,,,,,,,,,,,,,,,,,,,,,,,,,
,,,,,,,,,,stimuli/images/PICTURE_356.png,DANGER,5f3575a9994ab95447c9b16a,06/08/1993,2020-08-27_18h23.57.208,proactive3.1,2020.1.2,Win32,60,5f47c29a48bd2a1e651a6eb7,5f47ec1283588023feca3db5,4,,,,,,pawn,,,,,,0,5,5,55,1,6,0,,,,,,,,,,,,,,,,,,,,,,,,,,,,,,,,,,,,,,,,,,,,,,,,,,,,,,,,,,,,,,,,,,,,,,,,,,,,,,,,,,,,,,,,,,,,,,,,,,,,,,,,,,,,,
,,,,,,,,,,stimuli/images/PICTURE_654.png,VALLEY,5f3575a9994ab95447c9b16a,06/08/1993,2020-08-27_18h23.57.208,proactive3.1,2020.1.2,Win32,60,5f47c29a48bd2a1e651a6eb7,5f47ec1283588023feca3db5,4,,,,,,pencil,,,,,,0,6,6,1,1,1,0,,,,,,,,,,,,,,,,,,,,,,,,,,,,,,,,,,,,,,,,,,,,,,,,,,,,,,,,,,,,,,,,,,,,,,,,,,,,,,,,,,,,,,,,,,,,,,,,,,,,,,,,,,,,,
,,,,,,,,,,stimuli/images/PICTURE_675.png,WEAPON,5f3575a9994ab95447c9b16a,06/08/1993,2020-08-27_18h23.57.208,proactive3.1,2020.1.2,Win32,60,5f47c29a48bd2a1e651a6eb7,5f47ec1283588023feca3db5,4,,,,,,windmill,,,,,,0,7,7,32,1,4,0,,,,,,,,,,,,,,,,,,,,,,,,,,,,,,,,,,,,,,,,,,,,,,,,,,,,,,,,,,,,,,,,,,,,,,,,,,,,,,,,,,,,,,,,,,,,,,,,,,,,,,,,,,,,,
,,,,,,,,,,stimuli/images/PICTURE_491.png,WRITER,5f3575a9994ab95447c9b16a,06/08/1993,2020-08-27_18h23.57.208,proactive3.1,2020.1.2,Win32,60,5f47c29a48bd2a1e651a6eb7,5f47ec1283588023feca3db5,4,,,,,,rug,,,,,,0,8,8,57,1,6,0,,,,,,,,,,,,,,,,,,,,,,,,,,,,,,,,,,,,,,,,,,,,,,,,,,,,,,,,,,,,,,,,,,,,,,,,,,,,,,,,,,,,,,,,,,,,,,,,,,,,,,,,,,,,,
,,,,,,,,,,stimuli/images/PICTURE_667.png,BATH,5f3575a9994ab95447c9b16a,06/08/1993,2020-08-27_18h23.57.208,proactive3.1,2020.1.2,Win32,60,5f47c29a48bd2a1e651a6eb7,5f47ec1283588023feca3db5,4,,,,,,daisy,,,,,,0,9,9,4,1,1,0,,,,,,,,,,,,,,,,,,,,,,,,,,,,,,,,,,,,,,,,,,,,,,,,,,,,,,,,,,,,,,,,,,,,,,,,,,,,,,,,,,,,,,,,,,,,,,,,,,,,,,,,,,,,,
,,,,,,,,,,stimuli/images/PICTURE_453.png,PLENTY,5f3575a9994ab95447c9b16a,06/08/1993,2020-08-27_18h23.57.208,proactive3.1,2020.1.2,Win32,60,5f47c29a48bd2a1e651a6eb7,5f47ec1283588023feca3db5,4,,,,,,scissors,,,,,,0,10,10,56,1,6,0,,,,,,,,,,,,,,,,,,,,,,,,,,,,,,,,,,,,,,,,,,,,,,,,,,,,,,,,,,,,,,,,,,,,,,,,,,,,,,,,,,,,,,,,,,,,,,,,,,,,,,,,,,,,,
,,,,,,,,,,stimuli/images/PICTURE_32.png,JUNGLE,5f3575a9994ab95447c9b16a,06/08/1993,2020-08-27_18h23.57.208,proactive3.1,2020.1.2,Win32,60,5f47c29a48bd2a1e651a6eb7,5f47ec1283588023feca3db5,4,,,,,,crown,,,,,,0,11,11,45,1,5,0,,,,,,,,,,,,,,,,,,,,,,,,,,,,,,,,,,,,,,,,,,,,,,,,,,,,,,,,,,,,,,,,,,,,,,,,,,,,,,,,,,,,,,,,,,,,,,,,,,,,,,,,,,,,,
,,,,,,,,,,stimuli/images/PICTURE_248.png,DOZEN,5f3575a9994ab95447c9b16a,06/08/1993,2020-08-27_18h23.57.208,proactive3.1,2020.1.2,Win32,60,5f47c29a48bd2a1e651a6eb7,5f47ec1283588023feca3db5,4,,,,,,cart,,,,,,0,12,12,39,1,4,0,,,,,,,,,,,,,,,,,,,,,,,,,,,,,,,,,,,,,,,,,,,,,,,,,,,,,,,,,,,,,,,,,,,,,,,,,,,,,,,,,,,,,,,,,,,,,,,,,,,,,,,,,,,,,
,,,,,,,,,,stimuli/images/PICTURE_677.png,MILE,5f3575a9994ab95447c9b16a,06/08/1993,2020-08-27_18h23.57.208,proactive3.1,2020.1.2,Win32,60,5f47c29a48bd2a1e651a6eb7,5f47ec1283588023feca3db5,4,,,,,,map,,,,,,0,13,13,30,1,4,0,,,,,,,,,,,,,,,,,,,,,,,,,,,,,,,,,,,,,,,,,,,,,,,,,,,,,,,,,,,,,,,,,,,,,,,,,,,,,,,,,,,,,,,,,,,,,,,,,,,,,,,,,,,,,
,,,,,,,,,,stimuli/images/PICTURE_380.png,DEATH,5f3575a9994ab95447c9b16a,06/08/1993,2020-08-27_18h23.57.208,proactive3.1,2020.1.2,Win32,60,5f47c29a48bd2a1e651a6eb7,5f47ec1283588023feca3db5,4,,,,,,gorilla,,,,,,0,14,14,49,1,5,0,,,,,,,,,,,,,,,,,,,,,,,,,,,,,,,,,,,,,,,,,,,,,,,,,,,,,,,,,,,,,,,,,,,,,,,,,,,,,,,,,,,,,,,,,,,,,,,,,,,,,,,,,,,,,
,,,,,,,,,,stimuli/images/PICTURE_339.png,PLENTY,5f3575a9994ab95447c9b16a,06/08/1993,2020-08-27_18h23.57.208,proactive3.1,2020.1.2,Win32,60,5f47c29a48bd2a1e651a6eb7,5f47ec1283588023feca3db5,4,,,,,,backpack,,,,,,0,15,15,0,1,1,0,,,,,,,,,,,,,,,,,,,,,,,,,,,,,,,,,,,,,,,,,,,,,,,,,,,,,,,,,,,,,,,,,,,,,,,,,,,,,,,,,,,,,,,,,,,,,,,,,,,,,,,,,,,,,
,,,,,,,,,,stimuli/images/PICTURE_255.png,AREA,5f3575a9994ab95447c9b16a,06/08/1993,2020-08-27_18h23.57.208,proactive3.1,2020.1.2,Win32,60,5f47c29a48bd2a1e651a6eb7,5f47ec1283588023feca3db5,4,,,,,,shovel,,,,,,0,16,16,22,1,3,0,,,,,,,,,,,,,,,,,,,,,,,,,,,,,,,,,,,,,,,,,,,,,,,,,,,,,,,,,,,,,,,,,,,,,,,,,,,,,,,,,,,,,,,,,,,,,,,,,,,,,,,,,,,,,
,,,,,,,,,,stimuli/images/PICTURE_160.png,LEADER,5f3575a9994ab95447c9b16a,06/08/1993,2020-08-27_18h23.57.208,proactive3.1,2020.1.2,Win32,60,5f47c29a48bd2a1e651a6eb7,5f47ec1283588023feca3db5,4,,,,,,wheelbarrow,,,,,,0,17,17,3,1,1,0,,,,,,,,,,,,,,,,,,,,,,,,,,,,,,,,,,,,,,,,,,,,,,,,,,,,,,,,,,,,,,,,,,,,,,,,,,,,,,,,,,,,,,,,,,,,,,,,,,,,,,,,,,,,,
,,,,,,,,,,stimuli/images/PICTURE_467.png,DEMON,5f3575a9994ab95447c9b16a,06/08/1993,2020-08-27_18h23.57.208,proactive3.1,2020.1.2,Win32,60,5f47c29a48bd2a1e651a6eb7,5f47ec1283588023feca3db5,4,,,,,,peg,,,,,,0,18,18,23,1,3,0,,,,,,,,,,,,,,,,,,,,,,,,,,,,,,,,,,,,,,,,,,,,,,,,,,,,,,,,,,,,,,,,,,,,,,,,,,,,,,,,,,,,,,,,,,,,,,,,,,,,,,,,,,,,,
,,,,,,,,,,stimuli/images/PICTURE_95.png,STYLE,5f3575a9994ab95447c9b16a,06/08/1993,2020-08-27_18h23.57.208,proactive3.1,2020.1.2,Win32,60,5f47c29a48bd2a1e651a6eb7,5f47ec1283588023feca3db5,4,,,,,,suitcase,,,,,,0,19,19,25,1,3,0,,,,,,,,,,,,,,,,,,,,,,,,,,,,,,,,,,,,,,,,,,,,,,,,,,,,,,,,,,,,,,,,,,,,,,,,,,,,,,,,,,,,,,,,,,,,,,,,,,,,,,,,,,,,,
,,,,,,,,,,stimuli/images/PICTURE_308.png,ESTATE,5f3575a9994ab95447c9b16a,06/08/1993,2020-08-27_18h23.57.208,proactive3.1,2020.1.2,Win32,60,5f47c29a48bd2a1e651a6eb7,5f47ec1283588023feca3db5,4,,,,,,dice,,,,,,0,20,20,46,1,5,0,,,,,,,,,,,,,,,,,,,,,,,,,,,,,,,,,,,,,,,,,,,,,,,,,,,,,,,,,,,,,,,,,,,,,,,,,,,,,,,,,,,,,,,,,,,,,,,,,,,,,,,,,,,,,
,,,,,,,,,,stimuli/images/PICTURE_453.png,DUDE,5f3575a9994ab95447c9b16a,06/08/1993,2020-08-27_18h23.57.208,proactive3.1,2020.1.2,Win32,60,5f47c29a48bd2a1e651a6eb7,5f47ec1283588023feca3db5,4,,,,,,scissors,,,,,,0,21,21,27,1,3,0,,,,,,,,,,,,,,,,,,,,,,,,,,,,,,,,,,,,,,,,,,,,,,,,,,,,,,,,,,,,,,,,,,,,,,,,,,,,,,,,,,,,,,,,,,,,,,,,,,,,,,,,,,,,,
,,,,,,,,,,stimuli/images/PICTURE_688.png,WOMEN,5f3575a9994ab95447c9b16a,06/08/1993,2020-08-27_18h23.57.208,proactive3.1,2020.1.2,Win32,60,5f47c29a48bd2a1e651a6eb7,5f47ec1283588023feca3db5,4,,,,,,runner,,,,,,0,22,22,14,1,2,0,,,,,,,,,,,,,,,,,,,,,,,,,,,,,,,,,,,,,,,,,,,,,,,,,,,,,,,,,,,,,,,,,,,,,,,,,,,,,,,,,,,,,,,,,,,,,,,,,,,,,,,,,,,,,
,,,,,,,,,,stimuli/images/PICTURE_215.png,PLENTY,5f3575a9994ab95447c9b16a,06/08/1993,2020-08-27_18h23.57.208,proactive3.1,2020.1.2,Win32,60,5f47c29a48bd2a1e651a6eb7,5f47ec1283588023feca3db5,4,,,,,,boot,,,,,,0,23,23,37,1,4,0,,,,,,,,,,,,,,,,,,,,,,,,,,,,,,,,,,,,,,,,,,,,,,,,,,,,,,,,,,,,,,,,,,,,,,,,,,,,,,,,,,,,,,,,,,,,,,,,,,,,,,,,,,,,,
,,,,,,,,,,stimuli/images/PICTURE_208.png,THING,5f3575a9994ab95447c9b16a,06/08/1993,2020-08-27_18h23.57.208,proactive3.1,2020.1.2,Win32,60,5f47c29a48bd2a1e651a6eb7,5f47ec1283588023feca3db5,4,,,,,,microphone,,,,,,0,24,24,47,1,5,0,,,,,,,,,,,,,,,,,,,,,,,,,,,,,,,,,,,,,,,,,,,,,,,,,,,,,,,,,,,,,,,,,,,,,,,,,,,,,,,,,,,,,,,,,,,,,,,,,,,,,,,,,,,,,
,,,,,,,,,,stimuli/images/PICTURE_85.png,THING,5f3575a9994ab95447c9b16a,06/08/1993,2020-08-27_18h23.57.208,proactive3.1,2020.1.2,Win32,60,5f47c29a48bd2a1e651a6eb7,5f47ec1283588023feca3db5,4,,,,,,diamond,,,,,,0,25,25,15,1,2,0,,,,,,,,,,,,,,,,,,,,,,,,,,,,,,,,,,,,,,,,,,,,,,,,,,,,,,,,,,,,,,,,,,,,,,,,,,,,,,,,,,,,,,,,,,,,,,,,,,,,,,,,,,,,,
,,,,,,,,,,stimuli/images/PICTURE_708.png,YARD,5f3575a9994ab95447c9b16a,06/08/1993,2020-08-27_18h23.57.208,proactive3.1,2020.1.2,Win32,60,5f47c29a48bd2a1e651a6eb7,5f47ec1283588023feca3db5,4,,,,,,monkey,,,,,,0,26,26,29,1,3,0,,,,,,,,,,,,,,,,,,,,,,,,,,,,,,,,,,,,,,,,,,,,,,,,,,,,,,,,,,,,,,,,,,,,,,,,,,,,,,,,,,,,,,,,,,,,,,,,,,,,,,,,,,,,,
,,,,,,,,,,stimuli/images/PICTURE_469.png,ARTIST,5f3575a9994ab95447c9b16a,06/08/1993,2020-08-27_18h23.57.208,proactive3.1,2020.1.2,Win32,60,5f47c29a48bd2a1e651a6eb7,5f47ec1283588023feca3db5,4,,,,,,stool,,,,,,0,27,27,6,1,1,0,,,,,,,,,,,,,,,,,,,,,,,,,,,,,,,,,,,,,,,,,,,,,,,,,,,,,,,,,,,,,,,,,,,,,,,,,,,,,,,,,,,,,,,,,,,,,,,,,,,,,,,,,,,,,
,,,,,,,,,,stimuli/images/PICTURE_504.png,BODY,5f3575a9994ab95447c9b16a,06/08/1993,2020-08-27_18h23.57.208,proactive3.1,2020.1.2,Win32,60,5f47c29a48bd2a1e651a6eb7,5f47ec1283588023feca3db5,4,,,,,,wheel,,,,,,0,28,28,8,1,1,0,,,,,,,,,,,,,,,,,,,,,,,,,,,,,,,,,,,,,,,,,,,,,,,,,,,,,,,,,,,,,,,,,,,,,,,,,,,,,,,,,,,,,,,,,,,,,,,,,,,,,,,,,,,,,
,,,,,,,,,,stimuli/images/PICTURE_688.png,CASINO,5f3575a9994ab95447c9b16a,06/08/1993,2020-08-27_18h23.57.208,proactive3.1,2020.1.2,Win32,60,5f47c29a48bd2a1e651a6eb7,5f47ec1283588023feca3db5,4,,,,,,runner,,,,,,0,29,29,2,1,1,0,,,,,,,,,,,,,,,,,,,,,,,,,,,,,,,,,,,,,,,,,,,,,,,,,,,,,,,,,,,,,,,,,,,,,,,,,,,,,,,,,,,,,,,,,,,,,,,,,,,,,,,,,,,,,
,,,,,,,,,,stimuli/images/PICTURE_314.png,SAKE,5f3575a9994ab95447c9b16a,06/08/1993,2020-08-27_18h23.57.208,proactive3.1,2020.1.2,Win32,60,5f47c29a48bd2a1e651a6eb7,5f47ec1283588023feca3db5,4,,,,,,perfume,,,,,,0,30,30,7,1,1,0,,,,,,,,,,,,,,,,,,,,,,,,,,,,,,,,,,,,,,,,,,,,,,,,,,,,,,,,,,,,,,,,,,,,,,,,,,,,,,,,,,,,,,,,,,,,,,,,,,,,,,,,,,,,,
,,,,,,,,,,stimuli/images/PICTURE_311.png,BEAUTY,5f3575a9994ab95447c9b16a,06/08/1993,2020-08-27_18h23.57.208,proactive3.1,2020.1.2,Win32,60,5f47c29a48bd2a1e651a6eb7,5f47ec1283588023feca3db5,4,,,,,,razor,,,,,,0,31,31,13,1,2,0,,,,,,,,,,,,,,,,,,,,,,,,,,,,,,,,,,,,,,,,,,,,,,,,,,,,,,,,,,,,,,,,,,,,,,,,,,,,,,,,,,,,,,,,,,,,,,,,,,,,,,,,,,,,,
,,,,,,,,,,stimuli/images/PICTURE_327.png,BEAUTY,5f3575a9994ab95447c9b16a,06/08/1993,2020-08-27_18h23.57.208,proactive3.1,2020.1.2,Win32,60,5f47c29a48bd2a1e651a6eb7,5f47ec1283588023feca3db5,4,,,,,,helmet,,,,,,0,32,32,48,1,5,0,,,,,,,,,,,,,,,,,,,,,,,,,,,,,,,,,,,,,,,,,,,,,,,,,,,,,,,,,,,,,,,,,,,,,,,,,,,,,,,,,,,,,,,,,,,,,,,,,,,,,,,,,,,,,
,,,,,,,,,,stimuli/images/PICTURE_151.png,GIRL,5f3575a9994ab95447c9b16a,06/08/1993,2020-08-27_18h23.57.208,proactive3.1,2020.1.2,Win32,60,5f47c29a48bd2a1e651a6eb7,5f47ec1283588023feca3db5,4,,,,,,tray,,,,,,0,33,33,19,1,2,0,,,,,,,,,,,,,,,,,,,,,,,,,,,,,,,,,,,,,,,,,,,,,,,,,,,,,,,,,,,,,,,,,,,,,,,,,,,,,,,,,,,,,,,,,,,,,,,,,,,,,,,,,,,,,
,,,,,,,,,,stimuli/images/PICTURE_311.png,FRIEND,5f3575a9994ab95447c9b16a,06/08/1993,2020-08-27_18h23.57.208,proactive3.1,2020.1.2,Win32,60,5f47c29a48bd2a1e651a6eb7,5f47ec1283588023feca3db5,4,,,,,,razor,,,,,,0,34,34,34,1,4,0,,,,,,,,,,,,,,,,,,,,,,,,,,,,,,,,,,,,,,,,,,,,,,,,,,,,,,,,,,,,,,,,,,,,,,,,,,,,,,,,,,,,,,,,,,,,,,,,,,,,,,,,,,,,,
,,,,,,,,,,stimuli/images/PICTURE_68.png,MILE,5f3575a9994ab95447c9b16a,06/08/1993,2020-08-27_18h23.57.208,proactive3.1,2020.1.2,Win32,60,5f47c29a48bd2a1e651a6eb7,5f47ec1283588023feca3db5,4,,,,,,candle,,,,,,0,35,35,44,1,5,0,,,,,,,,,,,,,,,,,,,,,,,,,,,,,,,,,,,,,,,,,,,,,,,,,,,,,,,,,,,,,,,,,,,,,,,,,,,,,,,,,,,,,,,,,,,,,,,,,,,,,,,,,,,,,
,,,,,,,,,,stimuli/images/PICTURE_380.png,PHOTO,5f3575a9994ab95447c9b16a,06/08/1993,2020-08-27_18h23.57.208,proactive3.1,2020.1.2,Win32,60,5f47c29a48bd2a1e651a6eb7,5f47ec1283588023feca3db5,4,,,,,,gorilla,,,,,,0,36,36,52,1,6,0,,,,,,,,,,,,,,,,,,,,,,,,,,,,,,,,,,,,,,,,,,,,,,,,,,,,,,,,,,,,,,,,,,,,,,,,,,,,,,,,,,,,,,,,,,,,,,,,,,,,,,,,,,,,,
,,,,,,,,,,stimuli/images/PICTURE_744.png,SAKE,5f3575a9994ab95447c9b16a,06/08/1993,2020-08-27_18h23.57.208,proactive3.1,2020.1.2,Win32,60,5f47c29a48bd2a1e651a6eb7,5f47ec1283588023feca3db5,4,,,,,,ring,,,,,,0,37,37,17,1,2,0,,,,,,,,,,,,,,,,,,,,,,,,,,,,,,,,,,,,,,,,,,,,,,,,,,,,,,,,,,,,,,,,,,,,,,,,,,,,,,,,,,,,,,,,,,,,,,,,,,,,,,,,,,,,,
,,,,,,,,,,stimuli/images/PICTURE_470.png,CASINO,5f3575a9994ab95447c9b16a,06/08/1993,2020-08-27_18h23.57.208,proactive3.1,2020.1.2,Win32,60,5f47c29a48bd2a1e651a6eb7,5f47ec1283588023feca3db5,4,,,,,,motorbike,,,,,,0,38,38,36,1,4,0,,,,,,,,,,,,,,,,,,,,,,,,,,,,,,,,,,,,,,,,,,,,,,,,,,,,,,,,,,,,,,,,,,,,,,,,,,,,,,,,,,,,,,,,,,,,,,,,,,,,,,,,,,,,,
,,,,,,,,,,stimuli/images/PICTURE_233.png,WOMEN,5f3575a9994ab95447c9b16a,06/08/1993,2020-08-27_18h23.57.208,proactive3.1,2020.1.2,Win32,60,5f47c29a48bd2a1e651a6eb7,5f47ec1283588023feca3db5,4,,,,,,salt,,,,,,0,39,39,38,1,4,0,,,,,,,,,,,,,,,,,,,,,,,,,,,,,,,,,,,,,,,,,,,,,,,,,,,,,,,,,,,,,,,,,,,,,,,,,,,,,,,,,,,,,,,,,,,,,,,,,,,,,,,,,,,,,
,,,,,,,,,,stimuli/images/PICTURE_449.png,THING,5f3575a9994ab95447c9b16a,06/08/1993,2020-08-27_18h23.57.208,proactive3.1,2020.1.2,Win32,60,5f47c29a48bd2a1e651a6eb7,5f47ec1283588023feca3db5,4,,,,,,bench,,,,,,0,40,40,59,1,6,0,,,,,,,,,,,,,,,,,,,,,,,,,,,,,,,,,,,,,,,,,,,,,,,,,,,,,,,,,,,,,,,,,,,,,,,,,,,,,,,,,,,,,,,,,,,,,,,,,,,,,,,,,,,,,
,,,,,,,,,,stimuli/images/PICTURE_314.png,GODS,5f3575a9994ab95447c9b16a,06/08/1993,2020-08-27_18h23.57.208,proactive3.1,2020.1.2,Win32,60,5f47c29a48bd2a1e651a6eb7,5f47ec1283588023feca3db5,4,,,,,,perfume,,,,,,0,41,41,11,1,2,0,,,,,,,,,,,,,,,,,,,,,,,,,,,,,,,,,,,,,,,,,,,,,,,,,,,,,,,,,,,,,,,,,,,,,,,,,,,,,,,,,,,,,,,,,,,,,,,,,,,,,,,,,,,,,
,,,,,,,,,,stimuli/images/PICTURE_208.png,MONTH,5f3575a9994ab95447c9b16a,06/08/1993,2020-08-27_18h23.57.208,proactive3.1,2020.1.2,Win32,60,5f47c29a48bd2a1e651a6eb7,5f47ec1283588023feca3db5,4,,,,,,microphone,,,,,,0,42,42,53,1,6,0,,,,,,,,,,,,,,,,,,,,,,,,,,,,,,,,,,,,,,,,,,,,,,,,,,,,,,,,,,,,,,,,,,,,,,,,,,,,,,,,,,,,,,,,,,,,,,,,,,,,,,,,,,,,,
,,,,,,,,,,stimuli/images/PICTURE_123.png,ADVICE,5f3575a9994ab95447c9b16a,06/08/1993,2020-08-27_18h23.57.208,proactive3.1,2020.1.2,Win32,60,5f47c29a48bd2a1e651a6eb7,5f47ec1283588023feca3db5,4,,,,,,dart,,,,,,0,43,43,50,1,6,0,,,,,,,,,,,,,,,,,,,,,,,,,,,,,,,,,,,,,,,,,,,,,,,,,,,,,,,,,,,,,,,,,,,,,,,,,,,,,,,,,,,,,,,,,,,,,,,,,,,,,,,,,,,,,
,,,,,,,,,,stimuli/images/PICTURE_308.png,KIND,5f3575a9994ab95447c9b16a,06/08/1993,2020-08-27_18h23.57.208,proactive3.1,2020.1.2,Win32,60,5f47c29a48bd2a1e651a6eb7,5f47ec1283588023feca3db5,4,,,,,,dice,,,,,,0,44,44,54,1,6,0,,,,,,,,,,,,,,,,,,,,,,,,,,,,,,,,,,,,,,,,,,,,,,,,,,,,,,,,,,,,,,,,,,,,,,,,,,,,,,,,,,,,,,,,,,,,,,,,,,,,,,,,,,,,,
,,,,,,,,,,stimuli/images/PICTURE_348.png,SPEECH,5f3575a9994ab95447c9b16a,06/08/1993,2020-08-27_18h23.57.208,proactive3.1,2020.1.2,Win32,60,5f47c29a48bd2a1e651a6eb7,5f47ec1283588023feca3db5,4,,,,,,pepper,,,,,,0,45,45,20,1,3,0,,,,,,,,,,,,,,,,,,,,,,,,,,,,,,,,,,,,,,,,,,,,,,,,,,,,,,,,,,,,,,,,,,,,,,,,,,,,,,,,,,,,,,,,,,,,,,,,,,,,,,,,,,,,,
,,,,,,,,,,stimuli/images/PICTURE_233.png,IDEAS,5f3575a9994ab95447c9b16a,06/08/1993,2020-08-27_18h23.57.208,proactive3.1,2020.1.2,Win32,60,5f47c29a48bd2a1e651a6eb7,5f47ec1283588023feca3db5,4,,,,,,salt,,,,,,0,46,46,28,1,3,0,,,,,,,,,,,,,,,,,,,,,,,,,,,,,,,,,,,,,,,,,,,,,,,,,,,,,,,,,,,,,,,,,,,,,,,,,,,,,,,,,,,,,,,,,,,,,,,,,,,,,,,,,,,,,
,,,,,,,,,,stimuli/images/PICTURE_491.png,ROOF,5f3575a9994ab95447c9b16a,06/08/1993,2020-08-27_18h23.57.208,proactive3.1,2020.1.2,Win32,60,5f47c29a48bd2a1e651a6eb7,5f47ec1283588023feca3db5,4,,,,,,rug,,,,,,0,47,47,24,1,3,0,,,,,,,,,,,,,,,,,,,,,,,,,,,,,,,,,,,,,,,,,,,,,,,,,,,,,,,,,,,,,,,,,,,,,,,,,,,,,,,,,,,,,,,,,,,,,,,,,,,,,,,,,,,,,
,,,,,,,,,,stimuli/images/PICTURE_692.png,MONTH,5f3575a9994ab95447c9b16a,06/08/1993,2020-08-27_18h23.57.208,proactive3.1,2020.1.2,Win32,60,5f47c29a48bd2a1e651a6eb7,5f47ec1283588023feca3db5,4,,,,,,cherry,,,,,,0,48,48,16,1,2,0,,,,,,,,,,,,,,,,,,,,,,,,,,,,,,,,,,,,,,,,,,,,,,,,,,,,,,,,,,,,,,,,,,,,,,,,,,,,,,,,,,,,,,,,,,,,,,,,,,,,,,,,,,,,,
,,,,,,,,,,stimuli/images/PICTURE_147.png,MOMENT,5f3575a9994ab95447c9b16a,06/08/1993,2020-08-27_18h23.57.208,proactive3.1,2020.1.2,Win32,60,5f47c29a48bd2a1e651a6eb7,5f47ec1283588023feca3db5,4,,,,,,hanger,,,,,,0,49,49,51,1,6,0,,,,,,,,,,,,,,,,,,,,,,,,,,,,,,,,,,,,,,,,,,,,,,,,,,,,,,,,,,,,,,,,,,,,,,,,,,,,,,,,,,,,,,,,,,,,,,,,,,,,,,,,,,,,,
,,,,,,,,,,stimuli/images/PICTURE_302.png,FAMILY,5f3575a9994ab95447c9b16a,06/08/1993,2020-08-27_18h23.57.208,proactive3.1,2020.1.2,Win32,60,5f47c29a48bd2a1e651a6eb7,5f47ec1283588023feca3db5,4,,,,,,taxi,,,,,,0,50,50,18,1,2,0,,,,,,,,,,,,,,,,,,,,,,,,,,,,,,,,,,,,,,,,,,,,,,,,,,,,,,,,,,,,,,,,,,,,,,,,,,,,,,,,,,,,,,,,,,,,,,,,,,,,,,,,,,,,,
,,,,,,,,,,stimuli/images/PICTURE_469.png,LETTER,5f3575a9994ab95447c9b16a,06/08/1993,2020-08-27_18h23.57.208,proactive3.1,2020.1.2,Win32,60,5f47c29a48bd2a1e651a6eb7,5f47ec1283588023feca3db5,4,,,,,,stool,,,,,,0,51,51,42,1,5,0,,,,,,,,,,,,,,,,,,,,,,,,,,,,,,,,,,,,,,,,,,,,,,,,,,,,,,,,,,,,,,,,,,,,,,,,,,,,,,,,,,,,,,,,,,,,,,,,,,,,,,,,,,,,,
,,,,,,,,,,stimuli/images/PICTURE_509.png,PHOTO,5f3575a9994ab95447c9b16a,06/08/1993,2020-08-27_18h23.57.208,proactive3.1,2020.1.2,Win32,60,5f47c29a48bd2a1e651a6eb7,5f47ec1283588023feca3db5,4,,,,,,telephone,,,,,,0,52,52,21,1,3,0,,,,,,,,,,,,,,,,,,,,,,,,,,,,,,,,,,,,,,,,,,,,,,,,,,,,,,,,,,,,,,,,,,,,,,,,,,,,,,,,,,,,,,,,,,,,,,,,,,,,,,,,,,,,,
,,,,,,,,,,stimuli/images/PICTURE_744.png,SYSTEM,5f3575a9994ab95447c9b16a,06/08/1993,2020-08-27_18h23.57.208,proactive3.1,2020.1.2,Win32,60,5f47c29a48bd2a1e651a6eb7,5f47ec1283588023feca3db5,4,,,,,,ring,,,,,,0,53,53,43,1,5,0,,,,,,,,,,,,,,,,,,,,,,,,,,,,,,,,,,,,,,,,,,,,,,,,,,,,,,,,,,,,,,,,,,,,,,,,,,,,,,,,,,,,,,,,,,,,,,,,,,,,,,,,,,,,,
,,,,,,,,,,stimuli/images/PICTURE_177.png,CARS,5f3575a9994ab95447c9b16a,06/08/1993,2020-08-27_18h23.57.208,proactive3.1,2020.1.2,Win32,60,5f47c29a48bd2a1e651a6eb7,5f47ec1283588023feca3db5,4,,,,,,mushroom,,,,,,0,54,54,35,1,4,0,,,,,,,,,,,,,,,,,,,,,,,,,,,,,,,,,,,,,,,,,,,,,,,,,,,,,,,,,,,,,,,,,,,,,,,,,,,,,,,,,,,,,,,,,,,,,,,,,,,,,,,,,,,,,
,,,,,,,,,,stimuli/images/PICTURE_285.png,ADVICE,5f3575a9994ab95447c9b16a,06/08/1993,2020-08-27_18h23.57.208,proactive3.1,2020.1.2,Win32,60,5f47c29a48bd2a1e651a6eb7,5f47ec1283588023feca3db5,4,,,,,,carrot,,,,,,0,55,55,12,1,2,0,,,,,,,,,,,,,,,,,,,,,,,,,,,,,,,,,,,,,,,,,,,,,,,,,,,,,,,,,,,,,,,,,,,,,,,,,,,,,,,,,,,,,,,,,,,,,,,,,,,,,,,,,,,,,
,,,,,,,,,,stimuli/images/PICTURE_488.png,STYLE,5f3575a9994ab95447c9b16a,06/08/1993,2020-08-27_18h23.57.208,proactive3.1,2020.1.2,Win32,60,5f47c29a48bd2a1e651a6eb7,5f47ec1283588023feca3db5,4,,,,,,sun,,,,,,0,56,56,33,1,4,0,,,,,,,,,,,,,,,,,,,,,,,,,,,,,,,,,,,,,,,,,,,,,,,,,,,,,,,,,,,,,,,,,,,,,,,,,,,,,,,,,,,,,,,,,,,,,,,,,,,,,,,,,,,,,
,,,,,,,,,,stimuli/images/PICTURE_208.png,LOTS,5f3575a9994ab95447c9b16a,06/08/1993,2020-08-27_18h23.57.208,proactive3.1,2020.1.2,Win32,60,5f47c29a48bd2a1e651a6eb7,5f47ec1283588023feca3db5,4,,,,,,microphone,,,,,,0,57,57,10,1,2,0,,,,,,,,,,,,,,,,,,,,,,,,,,,,,,,,,,,,,,,,,,,,,,,,,,,,,,,,,,,,,,,,,,,,,,,,,,,,,,,,,,,,,,,,,,,,,,,,,,,,,,,,,,,,,
,,,,,,,,,,stimuli/images/PICTURE_203.png,ARTIST,5f3575a9994ab95447c9b16a,06/08/1993,2020-08-27_18h23.57.208,proactive3.1,2020.1.2,Win32,60,5f47c29a48bd2a1e651a6eb7,5f47ec1283588023feca3db5,4,,,,,,cap,,,,,,0,58,58,26,1,3,0,,,,,,,,,,,,,,,,,,,,,,,,,,,,,,,,,,,,,,,,,,,,,,,,,,,,,,,,,,,,,,,,,,,,,,,,,,,,,,,,,,,,,,,,,,,,,,,,,,,,,,,,,,,,,
,,?,0.001625,0,,,,,,stimuli/images/PICTURE_302.png,FAMILY,5f3575a9994ab95447c9b16a,06/08/1993,2020-08-27_18h23.57.208,proactive3.1,2020.1.2,Win32,60,5f47c29a48bd2a1e651a6eb7,5f47ec1283588023feca3db5,4,,,,,,taxi,,,,,,,,,,,2,0,0,0,0,18,1,,,,,,,,,,,,,,,,,,,,,,,,,,,,,,,,,,,,,,,,,,,,,,,,,,,,,,,,,,,,,,,,,,,,,,,,,,,,,,,,,,,,,,,,,,,,,,,,,,,,,,,,
,,?,0.001225,0,,,,,,stimuli/images/PICTURE_380.png,DEATH,5f3575a9994ab95447c9b16a,06/08/1993,2020-08-27_18h23.57.208,proactive3.1,2020.1.2,Win32,60,5f47c29a48bd2a1e651a6eb7,5f47ec1283588023feca3db5,4,,,,,,gorilla,,,,,,,,,,,5,0,0,1,1,49,1,,,,,,,,,,,,,,,,,,,,,,,,,,,,,,,,,,,,,,,,,,,,,,,,,,,,,,,,,,,,,,,,,,,,,,,,,,,,,,,,,,,,,,,,,,,,,,,,,,,,,,,,
,,?,0.00126,0,,,,,,stimuli/images/PICTURE_311.png,BEAUTY,5f3575a9994ab95447c9b16a,06/08/1993,2020-08-27_18h23.57.208,proactive3.1,2020.1.2,Win32,60,5f47c29a48bd2a1e651a6eb7,5f47ec1283588023feca3db5,4,,,,,,razor,,,,,,,,,,,2,0,0,2,2,13,1,,,,,,,,,,,,,,,,,,,,,,,,,,,,,,,,,,,,,,,,,,,,,,,,,,,,,,,,,,,,,,,,,,,,,,,,,,,,,,,,,,,,,,,,,,,,,,,,,,,,,,,,
,,?,0.00119,0,,,,,,stimuli/images/PICTURE_654.png,VALLEY,5f3575a9994ab95447c9b16a,06/08/1993,2020-08-27_18h23.57.208,proactive3.1,2020.1.2,Win32,60,5f47c29a48bd2a1e651a6eb7,5f47ec1283588023feca3db5,4,,,,,,pencil,,,,,,,,,,,1,0,0,3,3,1,1,,,,,,,,,,,,,,,,,,,,,,,,,,,,,,,,,,,,,,,,,,,,,,,,,,,,,,,,,,,,,,,,,,,,,,,,,,,,,,,,,,,,,,,,,,,,,,,,,,,,,,,,
,,?,0.001265,0,,,,,,stimuli/images/PICTURE_208.png,THING,5f3575a9994ab95447c9b16a,06/08/1993,2020-08-27_18h23.57.208,proactive3.1,2020.1.2,Win32,60,5f47c29a48bd2a1e651a6eb7,5f47ec1283588023feca3db5,4,,,,,,microphone,,,,,,,,,,,5,0,0,4,4,47,1,,,,,,,,,,,,,,,,,,,,,,,,,,,,,,,,,,,,,,,,,,,,,,,,,,,,,,,,,,,,,,,,,,,,,,,,,,,,,,,,,,,,,,,,,,,,,,,,,,,,,,,,
,,PAPER,3.636445,0,,,,,,stimuli/images/PICTURE_311.png,FRIEND,5f3575a9994ab95447c9b16a,06/08/1993,2020-08-27_18h23.57.208,proactive3.1,2020.1.2,Win32,60,5f47c29a48bd2a1e651a6eb7,5f47ec1283588023feca3db5,4,,,,,,razor,,,,,,,,,,,4,0,0,5,5,34,1,,,,,,,,,,,,,,,,,,,,,,,,,,,,,,,,,,,,,,,,,,,,,,,,,,,,,,,,,,,,,,,,,,,,,,,,,,,,,,,,,,,,,,,,,,,,,,,,,,,,,,,,
,,DOZEN,2.7295,1,,,,,,stimuli/images/PICTURE_248.png,DOZEN,5f3575a9994ab95447c9b16a,06/08/1993,2020-08-27_18h23.57.208,proactive3.1,2020.1.2,Win32,60,5f47c29a48bd2a1e651a6eb7,5f47ec1283588023feca3db5,4,,,,,,cart,,,,,,,,,,,4,0,0,6,6,39,1,,,,,,,,,,,,,,,,,,,,,,,,,,,,,,,,,,,,,,,,,,,,,,,,,,,,,,,,,,,,,,,,,,,,,,,,,,,,,,,,,,,,,,,,,,,,,,,,,,,,,,,,
,,?,0.00183,0,,,,,,stimuli/images/PICTURE_85.png,THING,5f3575a9994ab95447c9b16a,06/08/1993,2020-08-27_18h23.57.208,proactive3.1,2020.1.2,Win32,60,5f47c29a48bd2a1e651a6eb7,5f47ec1283588023feca3db5,4,,,,,,diamond,,,,,,,,,,,2,0,0,7,7,15,1,,,,,,,,,,,,,,,,,,,,,,,,,,,,,,,,,,,,,,,,,,,,,,,,,,,,,,,,,,,,,,,,,,,,,,,,,,,,,,,,,,,,,,,,,,,,,,,,,,,,,,,,
,,?,0.001755,0,,,,,,stimuli/images/PICTURE_469.png,ARTIST,5f3575a9994ab95447c9b16a,06/08/1993,2020-08-27_18h23.57.208,proactive3.1,2020.1.2,Win32,60,5f47c29a48bd2a1e651a6eb7,5f47ec1283588023feca3db5,4,,,,,,stool,,,,,,,,,,,1,0,0,8,8,6,1,,,,,,,,,,,,,,,,,,,,,,,,,,,,,,,,,,,,,,,,,,,,,,,,,,,,,,,,,,,,,,,,,,,,,,,,,,,,,,,,,,,,,,,,,,,,,,,,,,,,,,,,
,,KILLER,5.287165,0,,,,,,stimuli/images/PICTURE_215.png,PLENTY,5f3575a9994ab95447c9b16a,06/08/1993,2020-08-27_18h23.57.208,proactive3.1,2020.1.2,Win32,60,5f47c29a48bd2a1e651a6eb7,5f47ec1283588023feca3db5,4,,,,,,boot,,,,,,,,,,,4,0,0,9,9,37,1,,,,,,,,,,,,,,,,,,,,,,,,,,,,,,,,,,,,,,,,,,,,,,,,,,,,,,,,,,,,,,,,,,,,,,,,,,,,,,,,,,,,,,,,,,,,,,,,,,,,,,,,
,,?,0.00163,0,,,,,,stimuli/images/PICTURE_151.png,GIRL,5f3575a9994ab95447c9b16a,06/08/1993,2020-08-27_18h23.57.208,proactive3.1,2020.1.2,Win32,60,5f47c29a48bd2a1e651a6eb7,5f47ec1283588023feca3db5,4,,,,,,tray,,,,,,,,,,,2,0,0,10,10,19,1,,,,,,,,,,,,,,,,,,,,,,,,,,,,,,,,,,,,,,,,,,,,,,,,,,,,,,,,,,,,,,,,,,,,,,,,,,,,,,,,,,,,,,,,,,,,,,,,,,,,,,,,
,,?,0.004125,0,,,,,,stimuli/images/PICTURE_123.png,ADVICE,5f3575a9994ab95447c9b16a,06/08/1993,2020-08-27_18h23.57.208,proactive3.1,2020.1.2,Win32,60,5f47c29a48bd2a1e651a6eb7,5f47ec1283588023feca3db5,4,,,,,,dart,,,,,,,,,,,5,0,0,11,11,40,1,,,,,,,,,,,,,,,,,,,,,,,,,,,,,,,,,,,,,,,,,,,,,,,,,,,,,,,,,,,,,,,,,,,,,,,,,,,,,,,,,,,,,,,,,,,,,,,,,,,,,,,,
,,?,0.005685,0,,,,,,stimuli/images/PICTURE_708.png,YARD,5f3575a9994ab95447c9b16a,06/08/1993,2020-08-27_18h23.57.208,proactive3.1,2020.1.2,Win32,60,5f47c29a48bd2a1e651a6eb7,5f47ec1283588023feca3db5,4,,,,,,monkey,,,,,,,,,,,3,0,0,12,12,29,1,,,,,,,,,,,,,,,,,,,,,,,,,,,,,,,,,,,,,,,,,,,,,,,,,,,,,,,,,,,,,,,,,,,,,,,,,,,,,,,,,,,,,,,,,,,,,,,,,,,,,,,,
,,?,0.001585,0,,,,,,stimuli/images/PICTURE_744.png,SAKE,5f3575a9994ab95447c9b16a,06/08/1993,2020-08-27_18h23.57.208,proactive3.1,2020.1.2,Win32,60,5f47c29a48bd2a1e651a6eb7,5f47ec1283588023feca3db5,4,,,,,,ring,,,,,,,,,,,2,0,0,13,13,17,1,,,,,,,,,,,,,,,,,,,,,,,,,,,,,,,,,,,,,,,,,,,,,,,,,,,,,,,,,,,,,,,,,,,,,,,,,,,,,,,,,,,,,,,,,,,,,,,,,,,,,,,,
,,?,0.001685,0,,,,,,stimuli/images/PICTURE_708.png,CLIENT,5f3575a9994ab95447c9b16a,06/08/1993,2020-08-27_18h23.57.208,proactive3.1,2020.1.2,Win32,60,5f47c29a48bd2a1e651a6eb7,5f47ec1283588023feca3db5,4,,,,,,monkey,,,,,,,,,,,1,0,0,14,14,5,1,,,,,,,,,,,,,,,,,,,,,,,,,,,,,,,,,,,,,,,,,,,,,,,,,,,,,,,,,,,,,,,,,,,,,,,,,,,,,,,,,,,,,,,,,,,,,,,,,,,,,,,,
,,?,0.00166,0,,,,,,stimuli/images/PICTURE_308.png,ESTATE,5f3575a9994ab95447c9b16a,06/08/1993,2020-08-27_18h23.57.208,proactive3.1,2020.1.2,Win32,60,5f47c29a48bd2a1e651a6eb7,5f47ec1283588023feca3db5,4,,,,,,dice,,,,,,,,,,,5,0,0,15,15,46,1,,,,,,,,,,,,,,,,,,,,,,,,,,,,,,,,,,,,,,,,,,,,,,,,,,,,,,,,,,,,,,,,,,,,,,,,,,,,,,,,,,,,,,,,,,,,,,,,,,,,,,,,
,,?,0.00238,0,,,,,,stimuli/images/PICTURE_504.png,BODY,5f3575a9994ab95447c9b16a,06/08/1993,2020-08-27_18h23.57.208,proactive3.1,2020.1.2,Win32,60,5f47c29a48bd2a1e651a6eb7,5f47ec1283588023feca3db5,4,,,,,,wheel,,,,,,,,,,,1,0,0,16,16,8,1,,,,,,,,,,,,,,,,,,,,,,,,,,,,,,,,,,,,,,,,,,,,,,,,,,,,,,,,,,,,,,,,,,,,,,,,,,,,,,,,,,,,,,,,,,,,,,,,,,,,,,,,
,,MILE,2.01113,1,,,,,,stimuli/images/PICTURE_677.png,MILE,5f3575a9994ab95447c9b16a,06/08/1993,2020-08-27_18h23.57.208,proactive3.1,2020.1.2,Win32,60,5f47c29a48bd2a1e651a6eb7,5f47ec1283588023feca3db5,4,,,,,,map,,,,,,,,,,,4,0,0,17,17,30,1,,,,,,,,,,,,,,,,,,,,,,,,,,,,,,,,,,,,,,,,,,,,,,,,,,,,,,,,,,,,,,,,,,,,,,,,,,,,,,,,,,,,,,,,,,,,,,,,,,,,,,,,
,,?,0.001665,0,,,,,,stimuli/images/PICTURE_688.png,CASINO,5f3575a9994ab95447c9b16a,06/08/1993,2020-08-27_18h23.57.208,proactive3.1,2020.1.2,Win32,60,5f47c29a48bd2a1e651a6eb7,5f47ec1283588023feca3db5,4,,,,,,runner,,,,,,,,,,,1,0,0,18,18,2,1,,,,,,,,,,,,,,,,,,,,,,,,,,,,,,,,,,,,,,,,,,,,,,,,,,,,,,,,,,,,,,,,,,,,,,,,,,,,,,,,,,,,,,,,,,,,,,,,,,,,,,,,
,,?,0.0012,0,,,,,,stimuli/images/PICTURE_68.png,MILE,5f3575a9994ab95447c9b16a,06/08/1993,2020-08-27_18h23.57.208,proactive3.1,2020.1.2,Win32,60,5f47c29a48bd2a1e651a6eb7,5f47ec1283588023feca3db5,4,,,,,,candle,,,,,,,,,,,5,0,0,19,19,44,1,,,,,,,,,,,,,,,,,,,,,,,,,,,,,,,,,,,,,,,,,,,,,,,,,,,,,,,,,,,,,,,,,,,,,,,,,,,,,,,,,,,,,,,,,,,,,,,,,,,,,,,,
,,CARS,3.339095,1,,,,,,stimuli/images/PICTURE_177.png,CARS,5f3575a9994ab95447c9b16a,06/08/1993,2020-08-27_18h23.57.208,proactive3.1,2020.1.2,Win32,60,5f47c29a48bd2a1e651a6eb7,5f47ec1283588023feca3db5,4,,,,,,mushroom,,,,,,,,,,,4,0,0,20,20,35,1,,,,,,,,,,,,,,,,,,,,,,,,,,,,,,,,,,,,,,,,,,,,,,,,,,,,,,,,,,,,,,,,,,,,,,,,,,,,,,,,,,,,,,,,,,,,,,,,,,,,,,,,
,,?,0.001635,0,,,,,,stimuli/images/PICTURE_453.png,PLENTY,5f3575a9994ab95447c9b16a,06/08/1993,2020-08-27_18h23.57.208,proactive3.1,2020.1.2,Win32,60,5f47c29a48bd2a1e651a6eb7,5f47ec1283588023feca3db5,4,,,,,,scissors,,,,,,,,,,,6,0,0,21,21,56,1,,,,,,,,,,,,,,,,,,,,,,,,,,,,,,,,,,,,,,,,,,,,,,,,,,,,,,,,,,,,,,,,,,,,,,,,,,,,,,,,,,,,,,,,,,,,,,,,,,,,,,,,
,,?,0.00133,0,,,,,,stimuli/images/PICTURE_449.png,THING,5f3575a9994ab95447c9b16a,06/08/1993,2020-08-27_18h23.57.208,proactive3.1,2020.1.2,Win32,60,5f47c29a48bd2a1e651a6eb7,5f47ec1283588023feca3db5,4,,,,,,bench,,,,,,,,,,,6,0,0,22,22,59,1,,,,,,,,,,,,,,,,,,,,,,,,,,,,,,,,,,,,,,,,,,,,,,,,,,,,,,,,,,,,,,,,,,,,,,,,,,,,,,,,,,,,,,,,,,,,,,,,,,,,,,,,
,,?,0.001205,0,,,,,,stimuli/images/PICTURE_339.png,PLENTY,5f3575a9994ab95447c9b16a,06/08/1993,2020-08-27_18h23.57.208,proactive3.1,2020.1.2,Win32,60,5f47c29a48bd2a1e651a6eb7,5f47ec1283588023feca3db5,4,,,,,,backpack,,,,,,,,,,,1,0,0,23,23,0,1,,,,,,,,,,,,,,,,,,,,,,,,,,,,,,,,,,,,,,,,,,,,,,,,,,,,,,,,,,,,,,,,,,,,,,,,,,,,,,,,,,,,,,,,,,,,,,,,,,,,,,,,
,,?,0.001175,0,,,,,,stimuli/images/PICTURE_453.png,DUDE,5f3575a9994ab95447c9b16a,06/08/1993,2020-08-27_18h23.57.208,proactive3.1,2020.1.2,Win32,60,5f47c29a48bd2a1e651a6eb7,5f47ec1283588023feca3db5,4,,,,,,scissors,,,,,,,,,,,3,0,0,24,24,27,1,,,,,,,,,,,,,,,,,,,,,,,,,,,,,,,,,,,,,,,,,,,,,,,,,,,,,,,,,,,,,,,,,,,,,,,,,,,,,,,,,,,,,,,,,,,,,,,,,,,,,,,,
,,KILLER,7.363355,0,,,,,,stimuli/images/PICTURE_470.png,CASINO,5f3575a9994ab95447c9b16a,06/08/1993,2020-08-27_18h23.57.208,proactive3.1,2020.1.2,Win32,60,5f47c29a48bd2a1e651a6eb7,5f47ec1283588023feca3db5,4,,,,,,motorbike,,,,,,,,,,,4,0,0,25,25,36,1,,,,,,,,,,,,,,,,,,,,,,,,,,,,,,,,,,,,,,,,,,,,,,,,,,,,,,,,,,,,,,,,,,,,,,,,,,,,,,,,,,,,,,,,,,,,,,,,,,,,,,,,
,,?,0.001365,0,,,,,,stimuli/images/PICTURE_314.png,GODS,5f3575a9994ab95447c9b16a,06/08/1993,2020-08-27_18h23.57.208,proactive3.1,2020.1.2,Win32,60,5f47c29a48bd2a1e651a6eb7,5f47ec1283588023feca3db5,4,,,,,,perfume,,,,,,,,,,,2,0,0,26,26,11,1,,,,,,,,,,,,,,,,,,,,,,,,,,,,,,,,,,,,,,,,,,,,,,,,,,,,,,,,,,,,,,,,,,,,,,,,,,,,,,,,,,,,,,,,,,,,,,,,,,,,,,,,
,,?,0.001145,0,,,,,,stimuli/images/PICTURE_147.png,MOMENT,5f3575a9994ab95447c9b16a,06/08/1993,2020-08-27_18h23.57.208,proactive3.1,2020.1.2,Win32,60,5f47c29a48bd2a1e651a6eb7,5f47ec1283588023feca3db5,4,,,,,,hanger,,,,,,,,,,,6,0,0,27,27,51,1,,,,,,,,,,,,,,,,,,,,,,,,,,,,,,,,,,,,,,,,,,,,,,,,,,,,,,,,,,,,,,,,,,,,,,,,,,,,,,,,,,,,,,,,,,,,,,,,,,,,,,,,
,,?,0.001505,0,,,,,,stimuli/images/PICTURE_491.png,WRITER,5f3575a9994ab95447c9b16a,06/08/1993,2020-08-27_18h23.57.208,proactive3.1,2020.1.2,Win32,60,5f47c29a48bd2a1e651a6eb7,5f47ec1283588023feca3db5,4,,,,,,rug,,,,,,,,,,,6,0,0,28,28,57,1,,,,,,,,,,,,,,,,,,,,,,,,,,,,,,,,,,,,,,,,,,,,,,,,,,,,,,,,,,,,,,,,,,,,,,,,,,,,,,,,,,,,,,,,,,,,,,,,,,,,,,,,
,,?,0.00118,0,,,,,,stimuli/images/PICTURE_356.png,DANGER,5f3575a9994ab95447c9b16a,06/08/1993,2020-08-27_18h23.57.208,proactive3.1,2020.1.2,Win32,60,5f47c29a48bd2a1e651a6eb7,5f47ec1283588023feca3db5,4,,,,,,pawn,,,,,,,,,,,6,0,0,29,29,55,1,,,,,,,,,,,,,,,,,,,,,,,,,,,,,,,,,,,,,,,,,,,,,,,,,,,,,,,,,,,,,,,,,,,,,,,,,,,,,,,,,,,,,,,,,,,,,,,,,,,,,,,,
,,?,0.001525,0,,,,,,stimuli/images/PICTURE_509.png,PHOTO,5f3575a9994ab95447c9b16a,06/08/1993,2020-08-27_18h23.57.208,proactive3.1,2020.1.2,Win32,60,5f47c29a48bd2a1e651a6eb7,5f47ec1283588023feca3db5,4,,,,,,telephone,,,,,,,,,,,3,0,0,30,30,21,1,,,,,,,,,,,,,,,,,,,,,,,,,,,,,,,,,,,,,,,,,,,,,,,,,,,,,,,,,,,,,,,,,,,,,,,,,,,,,,,,,,,,,,,,,,,,,,,,,,,,,,,,
,,?,0.00118,0,,,,,,stimuli/images/PICTURE_380.png,PHOTO,5f3575a9994ab95447c9b16a,06/08/1993,2020-08-27_18h23.57.208,proactive3.1,2020.1.2,Win32,60,5f47c29a48bd2a1e651a6eb7,5f47ec1283588023feca3db5,4,,,,,,gorilla,,,,,,,,,,,6,0,0,31,31,52,1,,,,,,,,,,,,,,,,,,,,,,,,,,,,,,,,,,,,,,,,,,,,,,,,,,,,,,,,,,,,,,,,,,,,,,,,,,,,,,,,,,,,,,,,,,,,,,,,,,,,,,,,
,,?,0.001125,0,,,,,,stimuli/images/PICTURE_233.png,IDEAS,5f3575a9994ab95447c9b16a,06/08/1993,2020-08-27_18h23.57.208,proactive3.1,2020.1.2,Win32,60,5f47c29a48bd2a1e651a6eb7,5f47ec1283588023feca3db5,4,,,,,,salt,,,,,,,,,,,3,0,0,32,32,28,1,,,,,,,,,,,,,,,,,,,,,,,,,,,,,,,,,,,,,,,,,,,,,,,,,,,,,,,,,,,,,,,,,,,,,,,,,,,,,,,,,,,,,,,,,,,,,,,,,,,,,,,,
,,?,0.001225,0,,,,,,stimuli/images/PICTURE_667.png,PLENTY,5f3575a9994ab95447c9b16a,06/08/1993,2020-08-27_18h23.57.208,proactive3.1,2020.1.2,Win32,60,5f47c29a48bd2a1e651a6eb7,5f47ec1283588023feca3db5,4,,,,,,daisy,,,,,,,,,,,5,0,0,33,33,41,1,,,,,,,,,,,,,,,,,,,,,,,,,,,,,,,,,,,,,,,,,,,,,,,,,,,,,,,,,,,,,,,,,,,,,,,,,,,,,,,,,,,,,,,,,,,,,,,,,,,,,,,,
,,?,0.00114,0,,,,,,stimuli/images/PICTURE_95.png,STYLE,5f3575a9994ab95447c9b16a,06/08/1993,2020-08-27_18h23.57.208,proactive3.1,2020.1.2,Win32,60,5f47c29a48bd2a1e651a6eb7,5f47ec1283588023feca3db5,4,,,,,,suitcase,,,,,,,,,,,3,0,0,34,34,25,1,,,,,,,,,,,,,,,,,,,,,,,,,,,,,,,,,,,,,,,,,,,,,,,,,,,,,,,,,,,,,,,,,,,,,,,,,,,,,,,,,,,,,,,,,,,,,,,,,,,,,,,,
,,?,0.001245,0,,,,,,stimuli/images/PICTURE_491.png,ROOF,5f3575a9994ab95447c9b16a,06/08/1993,2020-08-27_18h23.57.208,proactive3.1,2020.1.2,Win32,60,5f47c29a48bd2a1e651a6eb7,5f47ec1283588023feca3db5,4,,,,,,rug,,,,,,,,,,,3,0,0,35,35,24,1,,,,,,,,,,,,,,,,,,,,,,,,,,,,,,,,,,,,,,,,,,,,,,,,,,,,,,,,,,,,,,,,,,,,,,,,,,,,,,,,,,,,,,,,,,,,,,,,,,,,,,,,
,,?,0.001195,0,,,,,,stimuli/images/PICTURE_692.png,MONTH,5f3575a9994ab95447c9b16a,06/08/1993,2020-08-27_18h23.57.208,proactive3.1,2020.1.2,Win32,60,5f47c29a48bd2a1e651a6eb7,5f47ec1283588023feca3db5,4,,,,,,cherry,,,,,,,,,,,2,0,0,36,36,16,1,,,,,,,,,,,,,,,,,,,,,,,,,,,,,,,,,,,,,,,,,,,,,,,,,,,,,,,,,,,,,,,,,,,,,,,,,,,,,,,,,,,,,,,,,,,,,,,,,,,,,,,,
,,PLENTY,2.973685,0,,,,,,stimuli/images/PICTURE_675.png,WEAPON,5f3575a9994ab95447c9b16a,06/08/1993,2020-08-27_18h23.57.208,proactive3.1,2020.1.2,Win32,60,5f47c29a48bd2a1e651a6eb7,5f47ec1283588023feca3db5,4,,,,,,windmill,,,,,,,,,,,4,0,0,37,37,32,1,,,,,,,,,,,,,,,,,,,,,,,,,,,,,,,,,,,,,,,,,,,,,,,,,,,,,,,,,,,,,,,,,,,,,,,,,,,,,,,,,,,,,,,,,,,,,,,,,,,,,,,,
,,?,0.002185,0,,,,,,stimuli/images/PICTURE_285.png,ADVICE,5f3575a9994ab95447c9b16a,06/08/1993,2020-08-27_18h23.57.208,proactive3.1,2020.1.2,Win32,60,5f47c29a48bd2a1e651a6eb7,5f47ec1283588023feca3db5,4,,,,,,carrot,,,,,,,,,,,2,0,0,38,38,12,1,,,,,,,,,,,,,,,,,,,,,,,,,,,,,,,,,,,,,,,,,,,,,,,,,,,,,,,,,,,,,,,,,,,,,,,,,,,,,,,,,,,,,,,,,,,,,,,,,,,,,,,,
,,?,0.001685,0,,,,,,stimuli/images/PICTURE_203.png,ARTIST,5f3575a9994ab95447c9b16a,06/08/1993,2020-08-27_18h23.57.208,proactive3.1,2020.1.2,Win32,60,5f47c29a48bd2a1e651a6eb7,5f47ec1283588023feca3db5,4,,,,,,cap,,,,,,,,,,,3,0,0,39,39,26,1,,,,,,,,,,,,,,,,,,,,,,,,,,,,,,,,,,,,,,,,,,,,,,,,,,,,,,,,,,,,,,,,,,,,,,,,,,,,,,,,,,,,,,,,,,,,,,,,,,,,,,,,
,,?,0.001205,0,,,,,,stimuli/images/PICTURE_314.png,SAKE,5f3575a9994ab95447c9b16a,06/08/1993,2020-08-27_18h23.57.208,proactive3.1,2020.1.2,Win32,60,5f47c29a48bd2a1e651a6eb7,5f47ec1283588023feca3db5,4,,,,,,perfume,,,,,,,,,,,1,0,0,40,40,7,1,,,,,,,,,,,,,,,,,,,,,,,,,,,,,,,,,,,,,,,,,,,,,,,,,,,,,,,,,,,,,,,,,,,,,,,,,,,,,,,,,,,,,,,,,,,,,,,,,,,,,,,,
,,?,0.00113,0,,,,,,stimuli/images/PICTURE_467.png,DEMON,5f3575a9994ab95447c9b16a,06/08/1993,2020-08-27_18h23.57.208,proactive3.1,2020.1.2,Win32,60,5f47c29a48bd2a1e651a6eb7,5f47ec1283588023feca3db5,4,,,,,,peg,,,,,,,,,,,3,0,0,41,41,23,1,,,,,,,,,,,,,,,,,,,,,,,,,,,,,,,,,,,,,,,,,,,,,,,,,,,,,,,,,,,,,,,,,,,,,,,,,,,,,,,,,,,,,,,,,,,,,,,,,,,,,,,,
,,?,0.00346,0,,,,,,stimuli/images/PICTURE_123.png,ADVICE,5f3575a9994ab95447c9b16a,06/08/1993,2020-08-27_18h23.57.208,proactive3.1,2020.1.2,Win32,60,5f47c29a48bd2a1e651a6eb7,5f47ec1283588023feca3db5,4,,,,,,dart,,,,,,,,,,,6,0,0,42,42,50,1,,,,,,,,,,,,,,,,,,,,,,,,,,,,,,,,,,,,,,,,,,,,,,,,,,,,,,,,,,,,,,,,,,,,,,,,,,,,,,,,,,,,,,,,,,,,,,,,,,,,,,,,
,,?,0.00159,0,,,,,,stimuli/images/PICTURE_208.png,MONTH,5f3575a9994ab95447c9b16a,06/08/1993,2020-08-27_18h23.57.208,proactive3.1,2020.1.2,Win32,60,5f47c29a48bd2a1e651a6eb7,5f47ec1283588023feca3db5,4,,,,,,microphone,,,,,,,,,,,6,0,0,43,43,53,1,,,,,,,,,,,,,,,,,,,,,,,,,,,,,,,,,,,,,,,,,,,,,,,,,,,,,,,,,,,,,,,,,,,,,,,,,,,,,,,,,,,,,,,,,,,,,,,,,,,,,,,,
,,?,0.00147,0,,,,,,stimuli/images/PICTURE_255.png,AREA,5f3575a9994ab95447c9b16a,06/08/1993,2020-08-27_18h23.57.208,proactive3.1,2020.1.2,Win32,60,5f47c29a48bd2a1e651a6eb7,5f47ec1283588023feca3db5,4,,,,,,shovel,,,,,,,,,,,3,0,0,44,44,22,1,,,,,,,,,,,,,,,,,,,,,,,,,,,,,,,,,,,,,,,,,,,,,,,,,,,,,,,,,,,,,,,,,,,,,,,,,,,,,,,,,,,,,,,,,,,,,,,,,,,,,,,,
,,?,0.00111,0,,,,,,stimuli/images/PICTURE_308.png,KIND,5f3575a9994ab95447c9b16a,06/08/1993,2020-08-27_18h23.57.208,proactive3.1,2020.1.2,Win32,60,5f47c29a48bd2a1e651a6eb7,5f47ec1283588023feca3db5,4,,,,,,dice,,,,,,,,,,,6,0,0,45,45,54,1,,,,,,,,,,,,,,,,,,,,,,,,,,,,,,,,,,,,,,,,,,,,,,,,,,,,,,,,,,,,,,,,,,,,,,,,,,,,,,,,,,,,,,,,,,,,,,,,,,,,,,,,
,,?,0.00141,0,,,,,,stimuli/images/PICTURE_487.png,FLIGHT,5f3575a9994ab95447c9b16a,06/08/1993,2020-08-27_18h23.57.208,proactive3.1,2020.1.2,Win32,60,5f47c29a48bd2a1e651a6eb7,5f47ec1283588023feca3db5,4,,,,,,basket,,,,,,,,,,,1,0,0,46,46,9,1,,,,,,,,,,,,,,,,,,,,,,,,,,,,,,,,,,,,,,,,,,,,,,,,,,,,,,,,,,,,,,,,,,,,,,,,,,,,,,,,,,,,,,,,,,,,,,,,,,,,,,,,
,,?,0.00112,0,,,,,,stimuli/images/PICTURE_327.png,BEAUTY,5f3575a9994ab95447c9b16a,06/08/1993,2020-08-27_18h23.57.208,proactive3.1,2020.1.2,Win32,60,5f47c29a48bd2a1e651a6eb7,5f47ec1283588023feca3db5,4,,,,,,helmet,,,,,,,,,,,5,0,0,47,47,48,1,,,,,,,,,,,,,,,,,,,,,,,,,,,,,,,,,,,,,,,,,,,,,,,,,,,,,,,,,,,,,,,,,,,,,,,,,,,,,,,,,,,,,,,,,,,,,,,,,,,,,,,,
,,WOMEN,2.34301,1,,,,,,stimuli/images/PICTURE_233.png,WOMEN,5f3575a9994ab95447c9b16a,06/08/1993,2020-08-27_18h23.57.208,proactive3.1,2020.1.2,Win32,60,5f47c29a48bd2a1e651a6eb7,5f47ec1283588023feca3db5,4,,,,,,salt,,,,,,,,,,,4,0,0,48,48,38,1,,,,,,,,,,,,,,,,,,,,,,,,,,,,,,,,,,,,,,,,,,,,,,,,,,,,,,,,,,,,,,,,,,,,,,,,,,,,,,,,,,,,,,,,,,,,,,,,,,,,,,,,
,,?,0.00148,0,,,,,,stimuli/images/PICTURE_348.png,SPEECH,5f3575a9994ab95447c9b16a,06/08/1993,2020-08-27_18h23.57.208,proactive3.1,2020.1.2,Win32,60,5f47c29a48bd2a1e651a6eb7,5f47ec1283588023feca3db5,4,,,,,,pepper,,,,,,,,,,,3,0,0,49,49,20,1,,,,,,,,,,,,,,,,,,,,,,,,,,,,,,,,,,,,,,,,,,,,,,,,,,,,,,,,,,,,,,,,,,,,,,,,,,,,,,,,,,,,,,,,,,,,,,,,,,,,,,,,
,,?,0.00115,0,,,,,,stimuli/images/PICTURE_667.png,BATH,5f3575a9994ab95447c9b16a,06/08/1993,2020-08-27_18h23.57.208,proactive3.1,2020.1.2,Win32,60,5f47c29a48bd2a1e651a6eb7,5f47ec1283588023feca3db5,4,,,,,,daisy,,,,,,,,,,,1,0,0,50,50,4,1,,,,,,,,,,,,,,,,,,,,,,,,,,,,,,,,,,,,,,,,,,,,,,,,,,,,,,,,,,,,,,,,,,,,,,,,,,,,,,,,,,,,,,,,,,,,,,,,,,,,,,,,
,,?,0.0015,0,,,,,,stimuli/images/PICTURE_160.png,LEADER,5f3575a9994ab95447c9b16a,06/08/1993,2020-08-27_18h23.57.208,proactive3.1,2020.1.2,Win32,60,5f47c29a48bd2a1e651a6eb7,5f47ec1283588023feca3db5,4,,,,,,wheelbarrow,,,,,,,,,,,1,0,0,51,51,3,1,,,,,,,,,,,,,,,,,,,,,,,,,,,,,,,,,,,,,,,,,,,,,,,,,,,,,,,,,,,,,,,,,,,,,,,,,,,,,,,,,,,,,,,,,,,,,,,,,,,,,,,,
,,KILLER,3.186575,0,,,,,,stimuli/images/PICTURE_708.png,PENNY,5f3575a9994ab95447c9b16a,06/08/1993,2020-08-27_18h23.57.208,proactive3.1,2020.1.2,Win32,60,5f47c29a48bd2a1e651a6eb7,5f47ec1283588023feca3db5,4,,,,,,monkey,,,,,,,,,,,4,0,0,52,52,31,1,,,,,,,,,,,,,,,,,,,,,,,,,,,,,,,,,,,,,,,,,,,,,,,,,,,,,,,,,,,,,,,,,,,,,,,,,,,,,,,,,,,,,,,,,,,,,,,,,,,,,,,,
,,STYLE,3.412095,1,,,,,,stimuli/images/PICTURE_488.png,STYLE,5f3575a9994ab95447c9b16a,06/08/1993,2020-08-27_18h23.57.208,proactive3.1,2020.1.2,Win32,60,5f47c29a48bd2a1e651a6eb7,5f47ec1283588023feca3db5,4,,,,,,sun,,,,,,,,,,,4,0,0,53,53,33,1,,,,,,,,,,,,,,,,,,,,,,,,,,,,,,,,,,,,,,,,,,,,,,,,,,,,,,,,,,,,,,,,,,,,,,,,,,,,,,,,,,,,,,,,,,,,,,,,,,,,,,,,
,,?,0.001425,0,,,,,,stimuli/images/PICTURE_744.png,SYSTEM,5f3575a9994ab95447c9b16a,06/08/1993,2020-08-27_18h23.57.208,proactive3.1,2020.1.2,Win32,60,5f47c29a48bd2a1e651a6eb7,5f47ec1283588023feca3db5,4,,,,,,ring,,,,,,,,,,,5,0,0,54,54,43,1,,,,,,,,,,,,,,,,,,,,,,,,,,,,,,,,,,,,,,,,,,,,,,,,,,,,,,,,,,,,,,,,,,,,,,,,,,,,,,,,,,,,,,,,,,,,,,,,,,,,,,,,
,,?,0.00111,0,,,,,,stimuli/images/PICTURE_208.png,LOTS,5f3575a9994ab95447c9b16a,06/08/1993,2020-08-27_18h23.57.208,proactive3.1,2020.1.2,Win32,60,5f47c29a48bd2a1e651a6eb7,5f47ec1283588023feca3db5,4,,,,,,microphone,,,,,,,,,,,2,0,0,55,55,10,1,,,,,,,,,,,,,,,,,,,,,,,,,,,,,,,,,,,,,,,,,,,,,,,,,,,,,,,,,,,,,,,,,,,,,,,,,,,,,,,,,,,,,,,,,,,,,,,,,,,,,,,,
,,?,0.001105,0,,,,,,stimuli/images/PICTURE_160.png,FEET,5f3575a9994ab95447c9b16a,06/08/1993,2020-08-27_18h23.57.208,proactive3.1,2020.1.2,Win32,60,5f47c29a48bd2a1e651a6eb7,5f47ec1283588023feca3db5,4,,,,,,wheelbarrow,,,,,,,,,,,6,0,0,56,56,58,1,,,,,,,,,,,,,,,,,,,,,,,,,,,,,,,,,,,,,,,,,,,,,,,,,,,,,,,,,,,,,,,,,,,,,,,,,,,,,,,,,,,,,,,,,,,,,,,,,,,,,,,,
,,?,0.00117,0,,,,,,stimuli/images/PICTURE_32.png,JUNGLE,5f3575a9994ab95447c9b16a,06/08/1993,2020-08-27_18h23.57.208,proactive3.1,2020.1.2,Win32,60,5f47c29a48bd2a1e651a6eb7,5f47ec1283588023feca3db5,4,,,,,,crown,,,,,,,,,,,5,0,0,57,57,45,1,,,,,,,,,,,,,,,,,,,,,,,,,,,,,,,,,,,,,,,,,,,,,,,,,,,,,,,,,,,,,,,,,,,,,,,,,,,,,,,,,,,,,,,,,,,,,,,,,,,,,,,,
,,?,0.001515,0,,,,,,stimuli/images/PICTURE_469.png,LETTER,5f3575a9994ab95447c9b16a,06/08/1993,2020-08-27_18h23.57.208,proactive3.1,2020.1.2,Win32,60,5f47c29a48bd2a1e651a6eb7,5f47ec1283588023feca3db5,4,,,,,,stool,,,,,,,,,,,5,0,0,58,58,42,1,,,,,,,,,,,,,,,,,,,,,,,,,,,,,,,,,,,,,,,,,,,,,,,,,,,,,,,,,,,,,,,,,,,,,,,,,,,,,,,,,,,,,,,,,,,,,,,,,,,,,,,,
,,?,0.00184,0,,,,,,stimuli/images/PICTURE_688.png,WOMEN,5f3575a9994ab95447c9b16a,06/08/1993,2020-08-27_18h23.57.208,proactive3.1,2020.1.2,Win32,60,5f47c29a48bd2a1e651a6eb7,5f47ec1283588023feca3db5,4,,,,,,runner,,,,,,,,,,,2,0,0,59,59,14,1,,,,,,,,,,,,,,,,,,,,,,,,,,,,,,,,,,,,,,,,,,,,,,,,,,,,,,,,,,,,,,,,,,,,,,,,,,,,,,,,,,,,,,,,,,,,,,,,,,,,,,,,
,,,,,,,,,,,,5f3575a9994ab95447c9b16a,06/08/1993,2020-08-27_18h23.57.208,proactive3.1,2020.1.2,Win32,60,5f47c29a48bd2a1e651a6eb7,5f47ec1283588023feca3db5,4,,,,,,,,,,,,,,,,,,,,,,,,0,0,0,0,1,stimuli/learn-block1.csv,,,,,,,,,,,,,,,,,,,,,,,,,,,,,,,,,,,,,,,,,,,,,,,,,,,,,,,,,,,,,,,,,,,,,,,,,,,,,,,,,,,,,,,,,,,,,,,,,,
,,,,,,,,,,stimuli/images/PICTURE_348.png,TOILET,5f3575a9994ab95447c9b16a,06/08/1993,2020-08-27_18h23.57.208,proactive3.1,2020.1.2,Win32,60,5f47c29a48bd2a1e651a6eb7,5f47ec1283588023feca3db5,4,,,,,,pepper,,,,,,0,0,0,4,1,1,2,,,,,,,,,,,,,,,,,,,,,,,,,,,,,,,,,,,,,,,,,,,,,,,,,,,,,,,,,,,,,,,,,,,,,,,,,,,,,,,,,,,,,,,,,,,,,,,,,,,,,,,,,,,,,
,,,,,,,,,,stimuli/images/PICTURE_491.png,SERIES,5f3575a9994ab95447c9b16a,06/08/1993,2020-08-27_18h23.57.208,proactive3.1,2020.1.2,Win32,60,5f47c29a48bd2a1e651a6eb7,5f47ec1283588023feca3db5,4,,,,,,rug,,,,,,0,1,1,39,1,4,2,,,,,,,,,,,,,,,,,,,,,,,,,,,,,,,,,,,,,,,,,,,,,,,,,,,,,,,,,,,,,,,,,,,,,,,,,,,,,,,,,,,,,,,,,,,,,,,,,,,,,,,,,,,,,
,,,,,,,,,,stimuli/images/PICTURE_509.png,APPLE,5f3575a9994ab95447c9b16a,06/08/1993,2020-08-27_18h23.57.208,proactive3.1,2020.1.2,Win32,60,5f47c29a48bd2a1e651a6eb7,5f47ec1283588023feca3db5,4,,,,,,telephone,,,,,,0,2,2,38,1,4,2,,,,,,,,,,,,,,,,,,,,,,,,,,,,,,,,,,,,,,,,,,,,,,,,,,,,,,,,,,,,,,,,,,,,,,,,,,,,,,,,,,,,,,,,,,,,,,,,,,,,,,,,,,,,,
,,,,,,,,,,stimuli/images/PICTURE_654.png,YEAR,5f3575a9994ab95447c9b16a,06/08/1993,2020-08-27_18h23.57.208,proactive3.1,2020.1.2,Win32,60,5f47c29a48bd2a1e651a6eb7,5f47ec1283588023feca3db5,4,,,,,,pencil,,,,,,0,3,3,41,1,5,2,,,,,,,,,,,,,,,,,,,,,,,,,,,,,,,,,,,,,,,,,,,,,,,,,,,,,,,,,,,,,,,,,,,,,,,,,,,,,,,,,,,,,,,,,,,,,,,,,,,,,,,,,,,,,
,,,,,,,,,,stimuli/images/PICTURE_311.png,TOILET,5f3575a9994ab95447c9b16a,06/08/1993,2020-08-27_18h23.57.208,proactive3.1,2020.1.2,Win32,60,5f47c29a48bd2a1e651a6eb7,5f47ec1283588023feca3db5,4,,,,,,razor,,,,,,0,4,4,54,1,6,2,,,,,,,,,,,,,,,,,,,,,,,,,,,,,,,,,,,,,,,,,,,,,,,,,,,,,,,,,,,,,,,,,,,,,,,,,,,,,,,,,,,,,,,,,,,,,,,,,,,,,,,,,,,,,
,,,,,,,,,,stimuli/images/PICTURE_68.png,KIND,5f3575a9994ab95447c9b16a,06/08/1993,2020-08-27_18h23.57.208,proactive3.1,2020.1.2,Win32,60,5f47c29a48bd2a1e651a6eb7,5f47ec1283588023feca3db5,4,,,,,,candle,,,,,,0,5,5,23,1,3,2,,,,,,,,,,,,,,,,,,,,,,,,,,,,,,,,,,,,,,,,,,,,,,,,,,,,,,,,,,,,,,,,,,,,,,,,,,,,,,,,,,,,,,,,,,,,,,,,,,,,,,,,,,,,,
,,,,,,,,,,stimuli/images/PICTURE_93.png,GIRL,5f3575a9994ab95447c9b16a,06/08/1993,2020-08-27_18h23.57.208,proactive3.1,2020.1.2,Win32,60,5f47c29a48bd2a1e651a6eb7,5f47ec1283588023feca3db5,4,,,,,,skateboard,,,,,,0,6,6,31,1,4,2,,,,,,,,,,,,,,,,,,,,,,,,,,,,,,,,,,,,,,,,,,,,,,,,,,,,,,,,,,,,,,,,,,,,,,,,,,,,,,,,,,,,,,,,,,,,,,,,,,,,,,,,,,,,,
,,,,,,,,,,stimuli/images/PICTURE_452.png,COPS,5f3575a9994ab95447c9b16a,06/08/1993,2020-08-27_18h23.57.208,proactive3.1,2020.1.2,Win32,60,5f47c29a48bd2a1e651a6eb7,5f47ec1283588023feca3db5,4,,,,,,watch,,,,,,0,7,7,0,1,1,2,,,,,,,,,,,,,,,,,,,,,,,,,,,,,,,,,,,,,,,,,,,,,,,,,,,,,,,,,,,,,,,,,,,,,,,,,,,,,,,,,,,,,,,,,,,,,,,,,,,,,,,,,,,,,
,,,,,,,,,,stimuli/images/PICTURE_487.png,ROOF,5f3575a9994ab95447c9b16a,06/08/1993,2020-08-27_18h23.57.208,proactive3.1,2020.1.2,Win32,60,5f47c29a48bd2a1e651a6eb7,5f47ec1283588023feca3db5,4,,,,,,basket,,,,,,0,8,8,50,1,6,2,,,,,,,,,,,,,,,,,,,,,,,,,,,,,,,,,,,,,,,,,,,,,,,,,,,,,,,,,,,,,,,,,,,,,,,,,,,,,,,,,,,,,,,,,,,,,,,,,,,,,,,,,,,,,
,,,,,,,,,,stimuli/images/PICTURE_297.png,BODY,5f3575a9994ab95447c9b16a,06/08/1993,2020-08-27_18h23.57.208,proactive3.1,2020.1.2,Win32,60,5f47c29a48bd2a1e651a6eb7,5f47ec1283588023feca3db5,4,,,,,,aeroplane,,,,,,0,9,9,51,1,6,2,,,,,,,,,,,,,,,,,,,,,,,,,,,,,,,,,,,,,,,,,,,,,,,,,,,,,,,,,,,,,,,,,,,,,,,,,,,,,,,,,,,,,,,,,,,,,,,,,,,,,,,,,,,,,
,,,,,,,,,,stimuli/images/PICTURE_677.png,FAMILY,5f3575a9994ab95447c9b16a,06/08/1993,2020-08-27_18h23.57.208,proactive3.1,2020.1.2,Win32,60,5f47c29a48bd2a1e651a6eb7,5f47ec1283588023feca3db5,4,,,,,,map,,,,,,0,10,10,53,1,6,2,,,,,,,,,,,,,,,,,,,,,,,,,,,,,,,,,,,,,,,,,,,,,,,,,,,,,,,,,,,,,,,,,,,,,,,,,,,,,,,,,,,,,,,,,,,,,,,,,,,,,,,,,,,,,
,,,,,,,,,,stimuli/images/PICTURE_470.png,BEAUTY,5f3575a9994ab95447c9b16a,06/08/1993,2020-08-27_18h23.57.208,proactive3.1,2020.1.2,Win32,60,5f47c29a48bd2a1e651a6eb7,5f47ec1283588023feca3db5,4,,,,,,motorbike,,,,,,0,11,11,26,1,3,2,,,,,,,,,,,,,,,,,,,,,,,,,,,,,,,,,,,,,,,,,,,,,,,,,,,,,,,,,,,,,,,,,,,,,,,,,,,,,,,,,,,,,,,,,,,,,,,,,,,,,,,,,,,,,
,,,,,,,,,,stimuli/images/PICTURE_509.png,MILLER,5f3575a9994ab95447c9b16a,06/08/1993,2020-08-27_18h23.57.208,proactive3.1,2020.1.2,Win32,60,5f47c29a48bd2a1e651a6eb7,5f47ec1283588023feca3db5,4,,,,,,telephone,,,,,,0,12,12,49,1,5,2,,,,,,,,,,,,,,,,,,,,,,,,,,,,,,,,,,,,,,,,,,,,,,,,,,,,,,,,,,,,,,,,,,,,,,,,,,,,,,,,,,,,,,,,,,,,,,,,,,,,,,,,,,,,,
,,,,,,,,,,stimuli/images/PICTURE_356.png,CANDY,5f3575a9994ab95447c9b16a,06/08/1993,2020-08-27_18h23.57.208,proactive3.1,2020.1.2,Win32,60,5f47c29a48bd2a1e651a6eb7,5f47ec1283588023feca3db5,4,,,,,,pawn,,,,,,0,13,13,46,1,5,2,,,,,,,,,,,,,,,,,,,,,,,,,,,,,,,,,,,,,,,,,,,,,,,,,,,,,,,,,,,,,,,,,,,,,,,,,,,,,,,,,,,,,,,,,,,,,,,,,,,,,,,,,,,,,
,,,,,,,,,,stimuli/images/PICTURE_708.png,VALLEY,5f3575a9994ab95447c9b16a,06/08/1993,2020-08-27_18h23.57.208,proactive3.1,2020.1.2,Win32,60,5f47c29a48bd2a1e651a6eb7,5f47ec1283588023feca3db5,4,,,,,,monkey,,,,,,0,14,14,45,1,5,2,,,,,,,,,,,,,,,,,,,,,,,,,,,,,,,,,,,,,,,,,,,,,,,,,,,,,,,,,,,,,,,,,,,,,,,,,,,,,,,,,,,,,,,,,,,,,,,,,,,,,,,,,,,,,
,,,,,,,,,,stimuli/images/PICTURE_177.png,HOUSE,5f3575a9994ab95447c9b16a,06/08/1993,2020-08-27_18h23.57.208,proactive3.1,2020.1.2,Win32,60,5f47c29a48bd2a1e651a6eb7,5f47ec1283588023feca3db5,4,,,,,,mushroom,,,,,,0,15,15,25,1,3,2,,,,,,,,,,,,,,,,,,,,,,,,,,,,,,,,,,,,,,,,,,,,,,,,,,,,,,,,,,,,,,,,,,,,,,,,,,,,,,,,,,,,,,,,,,,,,,,,,,,,,,,,,,,,,
,,,,,,,,,,stimuli/images/PICTURE_487.png,POLICY,5f3575a9994ab95447c9b16a,06/08/1993,2020-08-27_18h23.57.208,proactive3.1,2020.1.2,Win32,60,5f47c29a48bd2a1e651a6eb7,5f47ec1283588023feca3db5,4,,,,,,basket,,,,,,0,16,16,34,1,4,2,,,,,,,,,,,,,,,,,,,,,,,,,,,,,,,,,,,,,,,,,,,,,,,,,,,,,,,,,,,,,,,,,,,,,,,,,,,,,,,,,,,,,,,,,,,,,,,,,,,,,,,,,,,,,
,,,,,,,,,,stimuli/images/PICTURE_57.png,CANDY,5f3575a9994ab95447c9b16a,06/08/1993,2020-08-27_18h23.57.208,proactive3.1,2020.1.2,Win32,60,5f47c29a48bd2a1e651a6eb7,5f47ec1283588023feca3db5,4,,,,,,stamp,,,,,,0,17,17,52,1,6,2,,,,,,,,,,,,,,,,,,,,,,,,,,,,,,,,,,,,,,,,,,,,,,,,,,,,,,,,,,,,,,,,,,,,,,,,,,,,,,,,,,,,,,,,,,,,,,,,,,,,,,,,,,,,,
,,,,,,,,,,stimuli/images/PICTURE_255.png,PENNY,5f3575a9994ab95447c9b16a,06/08/1993,2020-08-27_18h23.57.208,proactive3.1,2020.1.2,Win32,60,5f47c29a48bd2a1e651a6eb7,5f47ec1283588023feca3db5,4,,,,,,shovel,,,,,,0,18,18,19,1,2,2,,,,,,,,,,,,,,,,,,,,,,,,,,,,,,,,,,,,,,,,,,,,,,,,,,,,,,,,,,,,,,,,,,,,,,,,,,,,,,,,,,,,,,,,,,,,,,,,,,,,,,,,,,,,,
,,,,,,,,,,stimuli/images/PICTURE_692.png,DUDE,5f3575a9994ab95447c9b16a,06/08/1993,2020-08-27_18h23.57.208,proactive3.1,2020.1.2,Win32,60,5f47c29a48bd2a1e651a6eb7,5f47ec1283588023feca3db5,4,,,,,,cherry,,,,,,0,19,19,47,1,5,2,,,,,,,,,,,,,,,,,,,,,,,,,,,,,,,,,,,,,,,,,,,,,,,,,,,,,,,,,,,,,,,,,,,,,,,,,,,,,,,,,,,,,,,,,,,,,,,,,,,,,,,,,,,,,
,,,,,,,,,,stimuli/images/PICTURE_285.png,PRINCE,5f3575a9994ab95447c9b16a,06/08/1993,2020-08-27_18h23.57.208,proactive3.1,2020.1.2,Win32,60,5f47c29a48bd2a1e651a6eb7,5f47ec1283588023feca3db5,4,,,,,,carrot,,,,,,0,20,20,20,1,3,2,,,,,,,,,,,,,,,,,,,,,,,,,,,,,,,,,,,,,,,,,,,,,,,,,,,,,,,,,,,,,,,,,,,,,,,,,,,,,,,,,,,,,,,,,,,,,,,,,,,,,,,,,,,,,
,,,,,,,,,,stimuli/images/PICTURE_141.png,CLIENT,5f3575a9994ab95447c9b16a,06/08/1993,2020-08-27_18h23.57.208,proactive3.1,2020.1.2,Win32,60,5f47c29a48bd2a1e651a6eb7,5f47ec1283588023feca3db5,4,,,,,,sunflower,,,,,,0,21,21,30,1,4,2,,,,,,,,,,,,,,,,,,,,,,,,,,,,,,,,,,,,,,,,,,,,,,,,,,,,,,,,,,,,,,,,,,,,,,,,,,,,,,,,,,,,,,,,,,,,,,,,,,,,,,,,,,,,,
,,,,,,,,,,stimuli/images/PICTURE_314.png,SPEECH,5f3575a9994ab95447c9b16a,06/08/1993,2020-08-27_18h23.57.208,proactive3.1,2020.1.2,Win32,60,5f47c29a48bd2a1e651a6eb7,5f47ec1283588023feca3db5,4,,,,,,perfume,,,,,,0,22,22,35,1,4,2,,,,,,,,,,,,,,,,,,,,,,,,,,,,,,,,,,,,,,,,,,,,,,,,,,,,,,,,,,,,,,,,,,,,,,,,,,,,,,,,,,,,,,,,,,,,,,,,,,,,,,,,,,,,,
,,,,,,,,,,stimuli/images/PICTURE_33.png,COPS,5f3575a9994ab95447c9b16a,06/08/1993,2020-08-27_18h23.57.208,proactive3.1,2020.1.2,Win32,60,5f47c29a48bd2a1e651a6eb7,5f47ec1283588023feca3db5,4,,,,,,frame,,,,,,0,23,23,29,1,3,2,,,,,,,,,,,,,,,,,,,,,,,,,,,,,,,,,,,,,,,,,,,,,,,,,,,,,,,,,,,,,,,,,,,,,,,,,,,,,,,,,,,,,,,,,,,,,,,,,,,,,,,,,,,,,
,,,,,,,,,,stimuli/images/PICTURE_564.png,PLENTY,5f3575a9994ab95447c9b16a,06/08/1993,2020-08-27_18h23.57.208,proactive3.1,2020.1.2,Win32,60,5f47c29a48bd2a1e651a6eb7,5f47ec1283588023feca3db5,4,,,,,,spoon,,,,,,0,24,24,11,1,2,2,,,,,,,,,,,,,,,,,,,,,,,,,,,,,,,,,,,,,,,,,,,,,,,,,,,,,,,,,,,,,,,,,,,,,,,,,,,,,,,,,,,,,,,,,,,,,,,,,,,,,,,,,,,,,
,,,,,,,,,,stimuli/images/PICTURE_311.png,FLESH,5f3575a9994ab95447c9b16a,06/08/1993,2020-08-27_18h23.57.208,proactive3.1,2020.1.2,Win32,60,5f47c29a48bd2a1e651a6eb7,5f47ec1283588023feca3db5,4,,,,,,razor,,,,,,0,25,25,3,1,1,2,,,,,,,,,,,,,,,,,,,,,,,,,,,,,,,,,,,,,,,,,,,,,,,,,,,,,,,,,,,,,,,,,,,,,,,,,,,,,,,,,,,,,,,,,,,,,,,,,,,,,,,,,,,,,
,,,,,,,,,,stimuli/images/PICTURE_95.png,NIGHT,5f3575a9994ab95447c9b16a,06/08/1993,2020-08-27_18h23.57.208,proactive3.1,2020.1.2,Win32,60,5f47c29a48bd2a1e651a6eb7,5f47ec1283588023feca3db5,4,,,,,,suitcase,,,,,,0,26,26,37,1,4,2,,,,,,,,,,,,,,,,,,,,,,,,,,,,,,,,,,,,,,,,,,,,,,,,,,,,,,,,,,,,,,,,,,,,,,,,,,,,,,,,,,,,,,,,,,,,,,,,,,,,,,,,,,,,,
,,,,,,,,,,stimuli/images/PICTURE_677.png,PHOTO,5f3575a9994ab95447c9b16a,06/08/1993,2020-08-27_18h23.57.208,proactive3.1,2020.1.2,Win32,60,5f47c29a48bd2a1e651a6eb7,5f47ec1283588023feca3db5,4,,,,,,map,,,,,,0,27,27,14,1,2,2,,,,,,,,,,,,,,,,,,,,,,,,,,,,,,,,,,,,,,,,,,,,,,,,,,,,,,,,,,,,,,,,,,,,,,,,,,,,,,,,,,,,,,,,,,,,,,,,,,,,,,,,,,,,,
,,,,,,,,,,stimuli/images/PICTURE_18.png,RIVER,5f3575a9994ab95447c9b16a,06/08/1993,2020-08-27_18h23.57.208,proactive3.1,2020.1.2,Win32,60,5f47c29a48bd2a1e651a6eb7,5f47ec1283588023feca3db5,4,,,,,,planet,,,,,,0,28,28,22,1,3,2,,,,,,,,,,,,,,,,,,,,,,,,,,,,,,,,,,,,,,,,,,,,,,,,,,,,,,,,,,,,,,,,,,,,,,,,,,,,,,,,,,,,,,,,,,,,,,,,,,,,,,,,,,,,,
,,,,,,,,,,stimuli/images/PICTURE_403.png,FAMILY,5f3575a9994ab95447c9b16a,06/08/1993,2020-08-27_18h23.57.208,proactive3.1,2020.1.2,Win32,60,5f47c29a48bd2a1e651a6eb7,5f47ec1283588023feca3db5,4,,,,,,cathedral,,,,,,0,29,29,9,1,1,2,,,,,,,,,,,,,,,,,,,,,,,,,,,,,,,,,,,,,,,,,,,,,,,,,,,,,,,,,,,,,,,,,,,,,,,,,,,,,,,,,,,,,,,,,,,,,,,,,,,,,,,,,,,,,
,,,,,,,,,,stimuli/images/PICTURE_655.png,SALE,5f3575a9994ab95447c9b16a,06/08/1993,2020-08-27_18h23.57.208,proactive3.1,2020.1.2,Win32,60,5f47c29a48bd2a1e651a6eb7,5f47ec1283588023feca3db5,4,,,,,,megaphone,,,,,,0,30,30,57,1,6,2,,,,,,,,,,,,,,,,,,,,,,,,,,,,,,,,,,,,,,,,,,,,,,,,,,,,,,,,,,,,,,,,,,,,,,,,,,,,,,,,,,,,,,,,,,,,,,,,,,,,,,,,,,,,,
,,,,,,,,,,stimuli/images/PICTURE_688.png,CLOCK,5f3575a9994ab95447c9b16a,06/08/1993,2020-08-27_18h23.57.208,proactive3.1,2020.1.2,Win32,60,5f47c29a48bd2a1e651a6eb7,5f47ec1283588023feca3db5,4,,,,,,runner,,,,,,0,31,31,42,1,5,2,,,,,,,,,,,,,,,,,,,,,,,,,,,,,,,,,,,,,,,,,,,,,,,,,,,,,,,,,,,,,,,,,,,,,,,,,,,,,,,,,,,,,,,,,,,,,,,,,,,,,,,,,,,,,
,,,,,,,,,,stimuli/images/PICTURE_504.png,HOUSE,5f3575a9994ab95447c9b16a,06/08/1993,2020-08-27_18h23.57.208,proactive3.1,2020.1.2,Win32,60,5f47c29a48bd2a1e651a6eb7,5f47ec1283588023feca3db5,4,,,,,,wheel,,,,,,0,32,32,36,1,4,2,,,,,,,,,,,,,,,,,,,,,,,,,,,,,,,,,,,,,,,,,,,,,,,,,,,,,,,,,,,,,,,,,,,,,,,,,,,,,,,,,,,,,,,,,,,,,,,,,,,,,,,,,,,,,
,,,,,,,,,,stimuli/images/PICTURE_405.png,JUNGLE,5f3575a9994ab95447c9b16a,06/08/1993,2020-08-27_18h23.57.208,proactive3.1,2020.1.2,Win32,60,5f47c29a48bd2a1e651a6eb7,5f47ec1283588023feca3db5,4,,,,,,anchor,,,,,,0,33,33,13,1,2,2,,,,,,,,,,,,,,,,,,,,,,,,,,,,,,,,,,,,,,,,,,,,,,,,,,,,,,,,,,,,,,,,,,,,,,,,,,,,,,,,,,,,,,,,,,,,,,,,,,,,,,,,,,,,,
,,,,,,,,,,stimuli/images/PICTURE_57.png,CASINO,5f3575a9994ab95447c9b16a,06/08/1993,2020-08-27_18h23.57.208,proactive3.1,2020.1.2,Win32,60,5f47c29a48bd2a1e651a6eb7,5f47ec1283588023feca3db5,4,,,,,,stamp,,,,,,0,34,34,12,1,2,2,,,,,,,,,,,,,,,,,,,,,,,,,,,,,,,,,,,,,,,,,,,,,,,,,,,,,,,,,,,,,,,,,,,,,,,,,,,,,,,,,,,,,,,,,,,,,,,,,,,,,,,,,,,,,
,,,,,,,,,,stimuli/images/PICTURE_405.png,HOUSE,5f3575a9994ab95447c9b16a,06/08/1993,2020-08-27_18h23.57.208,proactive3.1,2020.1.2,Win32,60,5f47c29a48bd2a1e651a6eb7,5f47ec1283588023feca3db5,4,,,,,,anchor,,,,,,0,35,35,2,1,1,2,,,,,,,,,,,,,,,,,,,,,,,,,,,,,,,,,,,,,,,,,,,,,,,,,,,,,,,,,,,,,,,,,,,,,,,,,,,,,,,,,,,,,,,,,,,,,,,,,,,,,,,,,,,,,
,,,,,,,,,,stimuli/images/PICTURE_2.png,AREA,5f3575a9994ab95447c9b16a,06/08/1993,2020-08-27_18h23.57.208,proactive3.1,2020.1.2,Win32,60,5f47c29a48bd2a1e651a6eb7,5f47ec1283588023feca3db5,4,,,,,,tyre,,,,,,0,36,36,32,1,4,2,,,,,,,,,,,,,,,,,,,,,,,,,,,,,,,,,,,,,,,,,,,,,,,,,,,,,,,,,,,,,,,,,,,,,,,,,,,,,,,,,,,,,,,,,,,,,,,,,,,,,,,,,,,,,
,,,,,,,,,,stimuli/images/PICTURE_2.png,YARD,5f3575a9994ab95447c9b16a,06/08/1993,2020-08-27_18h23.57.208,proactive3.1,2020.1.2,Win32,60,5f47c29a48bd2a1e651a6eb7,5f47ec1283588023feca3db5,4,,,,,,tyre,,,,,,0,37,37,55,1,6,2,,,,,,,,,,,,,,,,,,,,,,,,,,,,,,,,,,,,,,,,,,,,,,,,,,,,,,,,,,,,,,,,,,,,,,,,,,,,,,,,,,,,,,,,,,,,,,,,,,,,,,,,,,,,,
,,,,,,,,,,stimuli/images/PICTURE_57.png,NATION,5f3575a9994ab95447c9b16a,06/08/1993,2020-08-27_18h23.57.208,proactive3.1,2020.1.2,Win32,60,5f47c29a48bd2a1e651a6eb7,5f47ec1283588023feca3db5,4,,,,,,stamp,,,,,,0,38,38,21,1,3,2,,,,,,,,,,,,,,,,,,,,,,,,,,,,,,,,,,,,,,,,,,,,,,,,,,,,,,,,,,,,,,,,,,,,,,,,,,,,,,,,,,,,,,,,,,,,,,,,,,,,,,,,,,,,,
,,,,,,,,,,stimuli/images/PICTURE_285.png,WRITER,5f3575a9994ab95447c9b16a,06/08/1993,2020-08-27_18h23.57.208,proactive3.1,2020.1.2,Win32,60,5f47c29a48bd2a1e651a6eb7,5f47ec1283588023feca3db5,4,,,,,,carrot,,,,,,0,39,39,6,1,1,2,,,,,,,,,,,,,,,,,,,,,,,,,,,,,,,,,,,,,,,,,,,,,,,,,,,,,,,,,,,,,,,,,,,,,,,,,,,,,,,,,,,,,,,,,,,,,,,,,,,,,,,,,,,,,
,,,,,,,,,,stimuli/images/PICTURE_509.png,SHOTS,5f3575a9994ab95447c9b16a,06/08/1993,2020-08-27_18h23.57.208,proactive3.1,2020.1.2,Win32,60,5f47c29a48bd2a1e651a6eb7,5f47ec1283588023feca3db5,4,,,,,,telephone,,,,,,0,40,40,7,1,1,2,,,,,,,,,,,,,,,,,,,,,,,,,,,,,,,,,,,,,,,,,,,,,,,,,,,,,,,,,,,,,,,,,,,,,,,,,,,,,,,,,,,,,,,,,,,,,,,,,,,,,,,,,,,,,
,,,,,,,,,,stimuli/images/PICTURE_215.png,LEADER,5f3575a9994ab95447c9b16a,06/08/1993,2020-08-27_18h23.57.208,proactive3.1,2020.1.2,Win32,60,5f47c29a48bd2a1e651a6eb7,5f47ec1283588023feca3db5,4,,,,,,boot,,,,,,0,41,41,43,1,5,2,,,,,,,,,,,,,,,,,,,,,,,,,,,,,,,,,,,,,,,,,,,,,,,,,,,,,,,,,,,,,,,,,,,,,,,,,,,,,,,,,,,,,,,,,,,,,,,,,,,,,,,,,,,,,
,,,,,,,,,,stimuli/images/PICTURE_327.png,LEADER,5f3575a9994ab95447c9b16a,06/08/1993,2020-08-27_18h23.57.208,proactive3.1,2020.1.2,Win32,60,5f47c29a48bd2a1e651a6eb7,5f47ec1283588023feca3db5,4,,,,,,helmet,,,,,,0,42,42,17,1,2,2,,,,,,,,,,,,,,,,,,,,,,,,,,,,,,,,,,,,,,,,,,,,,,,,,,,,,,,,,,,,,,,,,,,,,,,,,,,,,,,,,,,,,,,,,,,,,,,,,,,,,,,,,,,,,
,,,,,,,,,,stimuli/images/PICTURE_32.png,LETTER,5f3575a9994ab95447c9b16a,06/08/1993,2020-08-27_18h23.57.208,proactive3.1,2020.1.2,Win32,60,5f47c29a48bd2a1e651a6eb7,5f47ec1283588023feca3db5,4,,,,,,crown,,,,,,0,43,43,56,1,6,2,,,,,,,,,,,,,,,,,,,,,,,,,,,,,,,,,,,,,,,,,,,,,,,,,,,,,,,,,,,,,,,,,,,,,,,,,,,,,,,,,,,,,,,,,,,,,,,,,,,,,,,,,,,,,
,,,,,,,,,,stimuli/images/PICTURE_160.png,HOTEL,5f3575a9994ab95447c9b16a,06/08/1993,2020-08-27_18h23.57.208,proactive3.1,2020.1.2,Win32,60,5f47c29a48bd2a1e651a6eb7,5f47ec1283588023feca3db5,4,,,,,,wheelbarrow,,,,,,0,44,44,16,1,2,2,,,,,,,,,,,,,,,,,,,,,,,,,,,,,,,,,,,,,,,,,,,,,,,,,,,,,,,,,,,,,,,,,,,,,,,,,,,,,,,,,,,,,,,,,,,,,,,,,,,,,,,,,,,,,
,,,,,,,,,,stimuli/images/PICTURE_215.png,BOYS,5f3575a9994ab95447c9b16a,06/08/1993,2020-08-27_18h23.57.208,proactive3.1,2020.1.2,Win32,60,5f47c29a48bd2a1e651a6eb7,5f47ec1283588023feca3db5,4,,,,,,boot,,,,,,0,45,45,24,1,3,2,,,,,,,,,,,,,,,,,,,,,,,,,,,,,,,,,,,,,,,,,,,,,,,,,,,,,,,,,,,,,,,,,,,,,,,,,,,,,,,,,,,,,,,,,,,,,,,,,,,,,,,,,,,,,
,,,,,,,,,,stimuli/images/PICTURE_296.png,CLOCK,5f3575a9994ab95447c9b16a,06/08/1993,2020-08-27_18h23.57.208,proactive3.1,2020.1.2,Win32,60,5f47c29a48bd2a1e651a6eb7,5f47ec1283588023feca3db5,4,,,,,,bolt,,,,,,0,46,46,18,1,2,2,,,,,,,,,,,,,,,,,,,,,,,,,,,,,,,,,,,,,,,,,,,,,,,,,,,,,,,,,,,,,,,,,,,,,,,,,,,,,,,,,,,,,,,,,,,,,,,,,,,,,,,,,,,,,
,,,,,,,,,,stimuli/images/PICTURE_123.png,SALE,5f3575a9994ab95447c9b16a,06/08/1993,2020-08-27_18h23.57.208,proactive3.1,2020.1.2,Win32,60,5f47c29a48bd2a1e651a6eb7,5f47ec1283588023feca3db5,4,,,,,,dart,,,,,,0,47,47,8,1,1,2,,,,,,,,,,,,,,,,,,,,,,,,,,,,,,,,,,,,,,,,,,,,,,,,,,,,,,,,,,,,,,,,,,,,,,,,,,,,,,,,,,,,,,,,,,,,,,,,,,,,,,,,,,,,,
,,,,,,,,,,stimuli/images/PICTURE_2.png,JUNGLE,5f3575a9994ab95447c9b16a,06/08/1993,2020-08-27_18h23.57.208,proactive3.1,2020.1.2,Win32,60,5f47c29a48bd2a1e651a6eb7,5f47ec1283588023feca3db5,4,,,,,,tyre,,,,,,0,48,48,1,1,1,2,,,,,,,,,,,,,,,,,,,,,,,,,,,,,,,,,,,,,,,,,,,,,,,,,,,,,,,,,,,,,,,,,,,,,,,,,,,,,,,,,,,,,,,,,,,,,,,,,,,,,,,,,,,,,
,,,,,,,,,,stimuli/images/PICTURE_147.png,LEADER,5f3575a9994ab95447c9b16a,06/08/1993,2020-08-27_18h23.57.208,proactive3.1,2020.1.2,Win32,60,5f47c29a48bd2a1e651a6eb7,5f47ec1283588023feca3db5,4,,,,,,hanger,,,,,,0,49,49,33,1,4,2,,,,,,,,,,,,,,,,,,,,,,,,,,,,,,,,,,,,,,,,,,,,,,,,,,,,,,,,,,,,,,,,,,,,,,,,,,,,,,,,,,,,,,,,,,,,,,,,,,,,,,,,,,,,,
,,,,,,,,,,stimuli/images/PICTURE_470.png,MOMENT,5f3575a9994ab95447c9b16a,06/08/1993,2020-08-27_18h23.57.208,proactive3.1,2020.1.2,Win32,60,5f47c29a48bd2a1e651a6eb7,5f47ec1283588023feca3db5,4,,,,,,motorbike,,,,,,0,50,50,40,1,5,2,,,,,,,,,,,,,,,,,,,,,,,,,,,,,,,,,,,,,,,,,,,,,,,,,,,,,,,,,,,,,,,,,,,,,,,,,,,,,,,,,,,,,,,,,,,,,,,,,,,,,,,,,,,,,
,,,,,,,,,,stimuli/images/PICTURE_208.png,SPIRIT,5f3575a9994ab95447c9b16a,06/08/1993,2020-08-27_18h23.57.208,proactive3.1,2020.1.2,Win32,60,5f47c29a48bd2a1e651a6eb7,5f47ec1283588023feca3db5,4,,,,,,microphone,,,,,,0,51,51,28,1,3,2,,,,,,,,,,,,,,,,,,,,,,,,,,,,,,,,,,,,,,,,,,,,,,,,,,,,,,,,,,,,,,,,,,,,,,,,,,,,,,,,,,,,,,,,,,,,,,,,,,,,,,,,,,,,,
,,,,,,,,,,stimuli/images/PICTURE_405.png,JUNGLE,5f3575a9994ab95447c9b16a,06/08/1993,2020-08-27_18h23.57.208,proactive3.1,2020.1.2,Win32,60,5f47c29a48bd2a1e651a6eb7,5f47ec1283588023feca3db5,4,,,,,,anchor,,,,,,0,52,52,58,1,6,2,,,,,,,,,,,,,,,,,,,,,,,,,,,,,,,,,,,,,,,,,,,,,,,,,,,,,,,,,,,,,,,,,,,,,,,,,,,,,,,,,,,,,,,,,,,,,,,,,,,,,,,,,,,,,
,,,,,,,,,,stimuli/images/PICTURE_750.png,POLICY,5f3575a9994ab95447c9b16a,06/08/1993,2020-08-27_18h23.57.208,proactive3.1,2020.1.2,Win32,60,5f47c29a48bd2a1e651a6eb7,5f47ec1283588023feca3db5,4,,,,,,kettle,,,,,,0,53,53,44,1,5,2,,,,,,,,,,,,,,,,,,,,,,,,,,,,,,,,,,,,,,,,,,,,,,,,,,,,,,,,,,,,,,,,,,,,,,,,,,,,,,,,,,,,,,,,,,,,,,,,,,,,,,,,,,,,,
,,,,,,,,,,stimuli/images/PICTURE_667.png,GLASS,5f3575a9994ab95447c9b16a,06/08/1993,2020-08-27_18h23.57.208,proactive3.1,2020.1.2,Win32,60,5f47c29a48bd2a1e651a6eb7,5f47ec1283588023feca3db5,4,,,,,,daisy,,,,,,0,54,54,27,1,3,2,,,,,,,,,,,,,,,,,,,,,,,,,,,,,,,,,,,,,,,,,,,,,,,,,,,,,,,,,,,,,,,,,,,,,,,,,,,,,,,,,,,,,,,,,,,,,,,,,,,,,,,,,,,,,
,,,,,,,,,,stimuli/images/PICTURE_654.png,COPS,5f3575a9994ab95447c9b16a,06/08/1993,2020-08-27_18h23.57.208,proactive3.1,2020.1.2,Win32,60,5f47c29a48bd2a1e651a6eb7,5f47ec1283588023feca3db5,4,,,,,,pencil,,,,,,0,55,55,10,1,2,2,,,,,,,,,,,,,,,,,,,,,,,,,,,,,,,,,,,,,,,,,,,,,,,,,,,,,,,,,,,,,,,,,,,,,,,,,,,,,,,,,,,,,,,,,,,,,,,,,,,,,,,,,,,,,
,,,,,,,,,,stimuli/images/PICTURE_509.png,BATH,5f3575a9994ab95447c9b16a,06/08/1993,2020-08-27_18h23.57.208,proactive3.1,2020.1.2,Win32,60,5f47c29a48bd2a1e651a6eb7,5f47ec1283588023feca3db5,4,,,,,,telephone,,,,,,0,56,56,15,1,2,2,,,,,,,,,,,,,,,,,,,,,,,,,,,,,,,,,,,,,,,,,,,,,,,,,,,,,,,,,,,,,,,,,,,,,,,,,,,,,,,,,,,,,,,,,,,,,,,,,,,,,,,,,,,,,
,,,,,,,,,,stimuli/images/PICTURE_348.png,DUDE,5f3575a9994ab95447c9b16a,06/08/1993,2020-08-27_18h23.57.208,proactive3.1,2020.1.2,Win32,60,5f47c29a48bd2a1e651a6eb7,5f47ec1283588023feca3db5,4,,,,,,pepper,,,,,,0,57,57,59,1,6,2,,,,,,,,,,,,,,,,,,,,,,,,,,,,,,,,,,,,,,,,,,,,,,,,,,,,,,,,,,,,,,,,,,,,,,,,,,,,,,,,,,,,,,,,,,,,,,,,,,,,,,,,,,,,,
,,,,,,,,,,stimuli/images/PICTURE_453.png,FAMILY,5f3575a9994ab95447c9b16a,06/08/1993,2020-08-27_18h23.57.208,proactive3.1,2020.1.2,Win32,60,5f47c29a48bd2a1e651a6eb7,5f47ec1283588023feca3db5,4,,,,,,scissors,,,,,,0,58,58,48,1,5,2,,,,,,,,,,,,,,,,,,,,,,,,,,,,,,,,,,,,,,,,,,,,,,,,,,,,,,,,,,,,,,,,,,,,,,,,,,,,,,,,,,,,,,,,,,,,,,,,,,,,,,,,,,,,,
,,?,0.001265,0,,,,,,stimuli/images/PICTURE_296.png,CLOCK,5f3575a9994ab95447c9b16a,06/08/1993,2020-08-27_18h23.57.208,proactive3.1,2020.1.2,Win32,60,5f47c29a48bd2a1e651a6eb7,5f47ec1283588023feca3db5,4,,,,,,bolt,,,,,,,,,,,2,2,0,0,0,18,1,,,,,,,,,,,,,,,,,,,,,,,,,,,,,,,,,,,,,,,,,,,,,,,,,,,,,,,,,,,,,,,,,,,,,,,,,,,,,,,,,,,,,,,,,,,,,,,,,,,,,,,,
,,?,0.001065,0,,,,,,stimuli/images/PICTURE_215.png,LEADER,5f3575a9994ab95447c9b16a,06/08/1993,2020-08-27_18h23.57.208,proactive3.1,2020.1.2,Win32,60,5f47c29a48bd2a1e651a6eb7,5f47ec1283588023feca3db5,4,,,,,,boot,,,,,,,,,,,5,2,0,1,1,43,1,,,,,,,,,,,,,,,,,,,,,,,,,,,,,,,,,,,,,,,,,,,,,,,,,,,,,,,,,,,,,,,,,,,,,,,,,,,,,,,,,,,,,,,,,,,,,,,,,,,,,,,,
,,?,0.00167,0,,,,,,stimuli/images/PICTURE_470.png,BEAUTY,5f3575a9994ab95447c9b16a,06/08/1993,2020-08-27_18h23.57.208,proactive3.1,2020.1.2,Win32,60,5f47c29a48bd2a1e651a6eb7,5f47ec1283588023feca3db5,4,,,,,,motorbike,,,,,,,,,,,3,2,0,2,2,26,1,,,,,,,,,,,,,,,,,,,,,,,,,,,,,,,,,,,,,,,,,,,,,,,,,,,,,,,,,,,,,,,,,,,,,,,,,,,,,,,,,,,,,,,,,,,,,,,,,,,,,,,,
,,?,0.001085,0,,,,,,stimuli/images/PICTURE_405.png,JUNGLE,5f3575a9994ab95447c9b16a,06/08/1993,2020-08-27_18h23.57.208,proactive3.1,2020.1.2,Win32,60,5f47c29a48bd2a1e651a6eb7,5f47ec1283588023feca3db5,4,,,,,,anchor,,,,,,,,,,,6,2,0,3,3,58,1,,,,,,,,,,,,,,,,,,,,,,,,,,,,,,,,,,,,,,,,,,,,,,,,,,,,,,,,,,,,,,,,,,,,,,,,,,,,,,,,,,,,,,,,,,,,,,,,,,,,,,,,
,,?,0.0013,0,,,,,,stimuli/images/PICTURE_57.png,NATION,5f3575a9994ab95447c9b16a,06/08/1993,2020-08-27_18h23.57.208,proactive3.1,2020.1.2,Win32,60,5f47c29a48bd2a1e651a6eb7,5f47ec1283588023feca3db5,4,,,,,,stamp,,,,,,,,,,,3,2,0,4,4,21,1,,,,,,,,,,,,,,,,,,,,,,,,,,,,,,,,,,,,,,,,,,,,,,,,,,,,,,,,,,,,,,,,,,,,,,,,,,,,,,,,,,,,,,,,,,,,,,,,,,,,,,,,
,,?,0.00105,0,,,,,,stimuli/images/PICTURE_2.png,JUNGLE,5f3575a9994ab95447c9b16a,06/08/1993,2020-08-27_18h23.57.208,proactive3.1,2020.1.2,Win32,60,5f47c29a48bd2a1e651a6eb7,5f47ec1283588023feca3db5,4,,,,,,tyre,,,,,,,,,,,1,2,0,5,5,1,1,,,,,,,,,,,,,,,,,,,,,,,,,,,,,,,,,,,,,,,,,,,,,,,,,,,,,,,,,,,,,,,,,,,,,,,,,,,,,,,,,,,,,,,,,,,,,,,,,,,,,,,,
,,?,0.00114,0,,,,,,stimuli/images/PICTURE_688.png,CLOCK,5f3575a9994ab95447c9b16a,06/08/1993,2020-08-27_18h23.57.208,proactive3.1,2020.1.2,Win32,60,5f47c29a48bd2a1e651a6eb7,5f47ec1283588023feca3db5,4,,,,,,runner,,,,,,,,,,,5,2,0,6,6,42,1,,,,,,,,,,,,,,,,,,,,,,,,,,,,,,,,,,,,,,,,,,,,,,,,,,,,,,,,,,,,,,,,,,,,,,,,,,,,,,,,,,,,,,,,,,,,,,,,,,,,,,,,
,,?,0.001295,0,,,,,,stimuli/images/PICTURE_692.png,DUDE,5f3575a9994ab95447c9b16a,06/08/1993,2020-08-27_18h23.57.208,proactive3.1,2020.1.2,Win32,60,5f47c29a48bd2a1e651a6eb7,5f47ec1283588023feca3db5,4,,,,,,cherry,,,,,,,,,,,5,2,0,7,7,47,1,,,,,,,,,,,,,,,,,,,,,,,,,,,,,,,,,,,,,,,,,,,,,,,,,,,,,,,,,,,,,,,,,,,,,,,,,,,,,,,,,,,,,,,,,,,,,,,,,,,,,,,,
,,?,0.00107,0,,,,,,stimuli/images/PICTURE_208.png,SPIRIT,5f3575a9994ab95447c9b16a,06/08/1993,2020-08-27_18h23.57.208,proactive3.1,2020.1.2,Win32,60,5f47c29a48bd2a1e651a6eb7,5f47ec1283588023feca3db5,4,,,,,,microphone,,,,,,,,,,,3,2,0,8,8,28,1,,,,,,,,,,,,,,,,,,,,,,,,,,,,,,,,,,,,,,,,,,,,,,,,,,,,,,,,,,,,,,,,,,,,,,,,,,,,,,,,,,,,,,,,,,,,,,,,,,,,,,,,
,,SPEECH,3.20901,1,,,,,,stimuli/images/PICTURE_314.png,SPEECH,5f3575a9994ab95447c9b16a,06/08/1993,2020-08-27_18h23.57.208,proactive3.1,2020.1.2,Win32,60,5f47c29a48bd2a1e651a6eb7,5f47ec1283588023feca3db5,4,,,,,,perfume,,,,,,,,,,,4,2,0,9,9,35,1,,,,,,,,,,,,,,,,,,,,,,,,,,,,,,,,,,,,,,,,,,,,,,,,,,,,,,,,,,,,,,,,,,,,,,,,,,,,,,,,,,,,,,,,,,,,,,,,,,,,,,,,
,,?,0.001385,0,,,,,,stimuli/images/PICTURE_160.png,HOTEL,5f3575a9994ab95447c9b16a,06/08/1993,2020-08-27_18h23.57.208,proactive3.1,2020.1.2,Win32,60,5f47c29a48bd2a1e651a6eb7,5f47ec1283588023feca3db5,4,,,,,,wheelbarrow,,,,,,,,,,,2,2,0,10,10,16,1,,,,,,,,,,,,,,,,,,,,,,,,,,,,,,,,,,,,,,,,,,,,,,,,,,,,,,,,,,,,,,,,,,,,,,,,,,,,,,,,,,,,,,,,,,,,,,,,,,,,,,,,
,,LEADER,2.31007,1,,,,,,stimuli/images/PICTURE_147.png,LEADER,5f3575a9994ab95447c9b16a,06/08/1993,2020-08-27_18h23.57.208,proactive3.1,2020.1.2,Win32,60,5f47c29a48bd2a1e651a6eb7,5f47ec1283588023feca3db5,4,,,,,,hanger,,,,,,,,,,,4,2,0,11,11,33,1,,,,,,,,,,,,,,,,,,,,,,,,,,,,,,,,,,,,,,,,,,,,,,,,,,,,,,,,,,,,,,,,,,,,,,,,,,,,,,,,,,,,,,,,,,,,,,,,,,,,,,,,
,,?,0.00148,0,,,,,,stimuli/images/PICTURE_750.png,POLICY,5f3575a9994ab95447c9b16a,06/08/1993,2020-08-27_18h23.57.208,proactive3.1,2020.1.2,Win32,60,5f47c29a48bd2a1e651a6eb7,5f47ec1283588023feca3db5,4,,,,,,kettle,,,,,,,,,,,5,2,0,12,12,44,1,,,,,,,,,,,,,,,,,,,,,,,,,,,,,,,,,,,,,,,,,,,,,,,,,,,,,,,,,,,,,,,,,,,,,,,,,,,,,,,,,,,,,,,,,,,,,,,,,,,,,,,,
,,?,0.00113,0,,,,,,stimuli/images/PICTURE_57.png,CANDY,5f3575a9994ab95447c9b16a,06/08/1993,2020-08-27_18h23.57.208,proactive3.1,2020.1.2,Win32,60,5f47c29a48bd2a1e651a6eb7,5f47ec1283588023feca3db5,4,,,,,,stamp,,,,,,,,,,,6,2,0,13,13,52,1,,,,,,,,,,,,,,,,,,,,,,,,,,,,,,,,,,,,,,,,,,,,,,,,,,,,,,,,,,,,,,,,,,,,,,,,,,,,,,,,,,,,,,,,,,,,,,,,,,,,,,,,
,,?,0.001525,0,,,,,,stimuli/images/PICTURE_487.png,ROOF,5f3575a9994ab95447c9b16a,06/08/1993,2020-08-27_18h23.57.208,proactive3.1,2020.1.2,Win32,60,5f47c29a48bd2a1e651a6eb7,5f47ec1283588023feca3db5,4,,,,,,basket,,,,,,,,,,,6,2,0,14,14,50,1,,,,,,,,,,,,,,,,,,,,,,,,,,,,,,,,,,,,,,,,,,,,,,,,,,,,,,,,,,,,,,,,,,,,,,,,,,,,,,,,,,,,,,,,,,,,,,,,,,,,,,,,
,,?,0.001075,0,,,,,,stimuli/images/PICTURE_215.png,FOOD,5f3575a9994ab95447c9b16a,06/08/1993,2020-08-27_18h23.57.208,proactive3.1,2020.1.2,Win32,60,5f47c29a48bd2a1e651a6eb7,5f47ec1283588023feca3db5,4,,,,,,boot,,,,,,,,,,,1,2,0,15,15,5,1,,,,,,,,,,,,,,,,,,,,,,,,,,,,,,,,,,,,,,,,,,,,,,,,,,,,,,,,,,,,,,,,,,,,,,,,,,,,,,,,,,,,,,,,,,,,,,,,,,,,,,,,
,,?,0.00119,0,,,,,,stimuli/images/PICTURE_177.png,HOUSE,5f3575a9994ab95447c9b16a,06/08/1993,2020-08-27_18h23.57.208,proactive3.1,2020.1.2,Win32,60,5f47c29a48bd2a1e651a6eb7,5f47ec1283588023feca3db5,4,,,,,,mushroom,,,,,,,,,,,3,2,0,16,16,25,1,,,,,,,,,,,,,,,,,,,,,,,,,,,,,,,,,,,,,,,,,,,,,,,,,,,,,,,,,,,,,,,,,,,,,,,,,,,,,,,,,,,,,,,,,,,,,,,,,,,,,,,,
,,?,0.001115,0,,,,,,stimuli/images/PICTURE_348.png,TOILET,5f3575a9994ab95447c9b16a,06/08/1993,2020-08-27_18h23.57.208,proactive3.1,2020.1.2,Win32,60,5f47c29a48bd2a1e651a6eb7,5f47ec1283588023feca3db5,4,,,,,,pepper,,,,,,,,,,,1,2,0,17,17,4,1,,,,,,,,,,,,,,,,,,,,,,,,,,,,,,,,,,,,,,,,,,,,,,,,,,,,,,,,,,,,,,,,,,,,,,,,,,,,,,,,,,,,,,,,,,,,,,,,,,,,,,,,
,,?,0.001145,0,,,,,,stimuli/images/PICTURE_348.png,DUDE,5f3575a9994ab95447c9b16a,06/08/1993,2020-08-27_18h23.57.208,proactive3.1,2020.1.2,Win32,60,5f47c29a48bd2a1e651a6eb7,5f47ec1283588023feca3db5,4,,,,,,pepper,,,,,,,,,,,6,2,0,18,18,59,1,,,,,,,,,,,,,,,,,,,,,,,,,,,,,,,,,,,,,,,,,,,,,,,,,,,,,,,,,,,,,,,,,,,,,,,,,,,,,,,,,,,,,,,,,,,,,,,,,,,,,,,,
,,?,0.00666,0,,,,,,stimuli/images/PICTURE_285.png,PRINCE,5f3575a9994ab95447c9b16a,06/08/1993,2020-08-27_18h23.57.208,proactive3.1,2020.1.2,Win32,60,5f47c29a48bd2a1e651a6eb7,5f47ec1283588023feca3db5,4,,,,,,carrot,,,,,,,,,,,3,2,0,19,19,20,1,,,,,,,,,,,,,,,,,,,,,,,,,,,,,,,,,,,,,,,,,,,,,,,,,,,,,,,,,,,,,,,,,,,,,,,,,,,,,,,,,,,,,,,,,,,,,,,,,,,,,,,,
,,?,0.00213,0,,,,,,stimuli/images/PICTURE_327.png,LEADER,5f3575a9994ab95447c9b16a,06/08/1993,2020-08-27_18h23.57.208,proactive3.1,2020.1.2,Win32,60,5f47c29a48bd2a1e651a6eb7,5f47ec1283588023feca3db5,4,,,,,,helmet,,,,,,,,,,,2,2,0,20,20,17,1,,,,,,,,,,,,,,,,,,,,,,,,,,,,,,,,,,,,,,,,,,,,,,,,,,,,,,,,,,,,,,,,,,,,,,,,,,,,,,,,,,,,,,,,,,,,,,,,,,,,,,,,
,,?,0.001605,0,,,,,,stimuli/images/PICTURE_677.png,PHOTO,5f3575a9994ab95447c9b16a,06/08/1993,2020-08-27_18h23.57.208,proactive3.1,2020.1.2,Win32,60,5f47c29a48bd2a1e651a6eb7,5f47ec1283588023feca3db5,4,,,,,,map,,,,,,,,,,,2,2,0,21,21,14,1,,,,,,,,,,,,,,,,,,,,,,,,,,,,,,,,,,,,,,,,,,,,,,,,,,,,,,,,,,,,,,,,,,,,,,,,,,,,,,,,,,,,,,,,,,,,,,,,,,,,,,,,
,,AREA,2.57434,1,,,,,,stimuli/images/PICTURE_2.png,AREA,5f3575a9994ab95447c9b16a,06/08/1993,2020-08-27_18h23.57.208,proactive3.1,2020.1.2,Win32,60,5f47c29a48bd2a1e651a6eb7,5f47ec1283588023feca3db5,4,,,,,,tyre,,,,,,,,,,,4,2,0,22,22,32,1,,,,,,,,,,,,,,,,,,,,,,,,,,,,,,,,,,,,,,,,,,,,,,,,,,,,,,,,,,,,,,,,,,,,,,,,,,,,,,,,,,,,,,,,,,,,,,,,,,,,,,,,
,,?,0.0014,0,,,,,,stimuli/images/PICTURE_311.png,FLESH,5f3575a9994ab95447c9b16a,06/08/1993,2020-08-27_18h23.57.208,proactive3.1,2020.1.2,Win32,60,5f47c29a48bd2a1e651a6eb7,5f47ec1283588023feca3db5,4,,,,,,razor,,,,,,,,,,,1,2,0,23,23,3,1,,,,,,,,,,,,,,,,,,,,,,,,,,,,,,,,,,,,,,,,,,,,,,,,,,,,,,,,,,,,,,,,,,,,,,,,,,,,,,,,,,,,,,,,,,,,,,,,,,,,,,,,
,,?,0.001125,0,,,,,,stimuli/images/PICTURE_453.png,FAMILY,5f3575a9994ab95447c9b16a,06/08/1993,2020-08-27_18h23.57.208,proactive3.1,2020.1.2,Win32,60,5f47c29a48bd2a1e651a6eb7,5f47ec1283588023feca3db5,4,,,,,,scissors,,,,,,,,,,,5,2,0,24,24,48,1,,,,,,,,,,,,,,,,,,,,,,,,,,,,,,,,,,,,,,,,,,,,,,,,,,,,,,,,,,,,,,,,,,,,,,,,,,,,,,,,,,,,,,,,,,,,,,,,,,,,,,,,
,,?,0.0011,0,,,,,,stimuli/images/PICTURE_509.png,MILLER,5f3575a9994ab95447c9b16a,06/08/1993,2020-08-27_18h23.57.208,proactive3.1,2020.1.2,Win32,60,5f47c29a48bd2a1e651a6eb7,5f47ec1283588023feca3db5,4,,,,,,telephone,,,,,,,,,,,5,2,0,25,25,49,1,,,,,,,,,,,,,,,,,,,,,,,,,,,,,,,,,,,,,,,,,,,,,,,,,,,,,,,,,,,,,,,,,,,,,,,,,,,,,,,,,,,,,,,,,,,,,,,,,,,,,,,,
,,?,0.00109,0,,,,,,stimuli/images/PICTURE_654.png,YEAR,5f3575a9994ab95447c9b16a,06/08/1993,2020-08-27_18h23.57.208,proactive3.1,2020.1.2,Win32,60,5f47c29a48bd2a1e651a6eb7,5f47ec1283588023feca3db5,4,,,,,,pencil,,,,,,,,,,,5,2,0,26,26,41,1,,,,,,,,,,,,,,,,,,,,,,,,,,,,,,,,,,,,,,,,,,,,,,,,,,,,,,,,,,,,,,,,,,,,,,,,,,,,,,,,,,,,,,,,,,,,,,,,,,,,,,,,
,,?,0.001115,0,,,,,,stimuli/images/PICTURE_311.png,TOILET,5f3575a9994ab95447c9b16a,06/08/1993,2020-08-27_18h23.57.208,proactive3.1,2020.1.2,Win32,60,5f47c29a48bd2a1e651a6eb7,5f47ec1283588023feca3db5,4,,,,,,razor,,,,,,,,,,,6,2,0,27,27,54,1,,,,,,,,,,,,,,,,,,,,,,,,,,,,,,,,,,,,,,,,,,,,,,,,,,,,,,,,,,,,,,,,,,,,,,,,,,,,,,,,,,,,,,,,,,,,,,,,,,,,,,,,
,,?,0.001615,0,,,,,,stimuli/images/PICTURE_470.png,MOMENT,5f3575a9994ab95447c9b16a,06/08/1993,2020-08-27_18h23.57.208,proactive3.1,2020.1.2,Win32,60,5f47c29a48bd2a1e651a6eb7,5f47ec1283588023feca3db5,4,,,,,,motorbike,,,,,,,,,,,5,2,0,28,28,40,1,,,,,,,,,,,,,,,,,,,,,,,,,,,,,,,,,,,,,,,,,,,,,,,,,,,,,,,,,,,,,,,,,,,,,,,,,,,,,,,,,,,,,,,,,,,,,,,,,,,,,,,,
,,?,0.001175,0,,,,,,stimuli/images/PICTURE_285.png,WRITER,5f3575a9994ab95447c9b16a,06/08/1993,2020-08-27_18h23.57.208,proactive3.1,2020.1.2,Win32,60,5f47c29a48bd2a1e651a6eb7,5f47ec1283588023feca3db5,4,,,,,,carrot,,,,,,,,,,,1,2,0,29,29,6,1,,,,,,,,,,,,,,,,,,,,,,,,,,,,,,,,,,,,,,,,,,,,,,,,,,,,,,,,,,,,,,,,,,,,,,,,,,,,,,,,,,,,,,,,,,,,,,,,,,,,,,,,
,,POLICY,3.04261,1,,,,,,stimuli/images/PICTURE_487.png,POLICY,5f3575a9994ab95447c9b16a,06/08/1993,2020-08-27_18h23.57.208,proactive3.1,2020.1.2,Win32,60,5f47c29a48bd2a1e651a6eb7,5f47ec1283588023feca3db5,4,,,,,,basket,,,,,,,,,,,4,2,0,30,30,34,1,,,,,,,,,,,,,,,,,,,,,,,,,,,,,,,,,,,,,,,,,,,,,,,,,,,,,,,,,,,,,,,,,,,,,,,,,,,,,,,,,,,,,,,,,,,,,,,,,,,,,,,,
,,?,0.001355,0,,,,,,stimuli/images/PICTURE_655.png,SALE,5f3575a9994ab95447c9b16a,06/08/1993,2020-08-27_18h23.57.208,proactive3.1,2020.1.2,Win32,60,5f47c29a48bd2a1e651a6eb7,5f47ec1283588023feca3db5,4,,,,,,megaphone,,,,,,,,,,,6,2,0,31,31,57,1,,,,,,,,,,,,,,,,,,,,,,,,,,,,,,,,,,,,,,,,,,,,,,,,,,,,,,,,,,,,,,,,,,,,,,,,,,,,,,,,,,,,,,,,,,,,,,,,,,,,,,,,
,,?,0.001065,0,,,,,,stimuli/images/PICTURE_405.png,HOUSE,5f3575a9994ab95447c9b16a,06/08/1993,2020-08-27_18h23.57.208,proactive3.1,2020.1.2,Win32,60,5f47c29a48bd2a1e651a6eb7,5f47ec1283588023feca3db5,4,,,,,,anchor,,,,,,,,,,,1,2,0,32,32,2,1,,,,,,,,,,,,,,,,,,,,,,,,,,,,,,,,,,,,,,,,,,,,,,,,,,,,,,,,,,,,,,,,,,,,,,,,,,,,,,,,,,,,,,,,,,,,,,,,,,,,,,,,
,,?,0.00106,0,,,,,,stimuli/images/PICTURE_32.png,LETTER,5f3575a9994ab95447c9b16a,06/08/1993,2020-08-27_18h23.57.208,proactive3.1,2020.1.2,Win32,60,5f47c29a48bd2a1e651a6eb7,5f47ec1283588023feca3db5,4,,,,,,crown,,,,,,,,,,,6,2,0,33,33,56,1,,,,,,,,,,,,,,,,,,,,,,,,,,,,,,,,,,,,,,,,,,,,,,,,,,,,,,,,,,,,,,,,,,,,,,,,,,,,,,,,,,,,,,,,,,,,,,,,,,,,,,,,
,,?,0.001045,0,,,,,,stimuli/images/PICTURE_452.png,COPS,5f3575a9994ab95447c9b16a,06/08/1993,2020-08-27_18h23.57.208,proactive3.1,2020.1.2,Win32,60,5f47c29a48bd2a1e651a6eb7,5f47ec1283588023feca3db5,4,,,,,,watch,,,,,,,,,,,1,2,0,34,34,0,1,,,,,,,,,,,,,,,,,,,,,,,,,,,,,,,,,,,,,,,,,,,,,,,,,,,,,,,,,,,,,,,,,,,,,,,,,,,,,,,,,,,,,,,,,,,,,,,,,,,,,,,,
,,APPLE,2.53534,1,,,,,,stimuli/images/PICTURE_509.png,APPLE,5f3575a9994ab95447c9b16a,06/08/1993,2020-08-27_18h23.57.208,proactive3.1,2020.1.2,Win32,60,5f47c29a48bd2a1e651a6eb7,5f47ec1283588023feca3db5,4,,,,,,telephone,,,,,,,,,,,4,2,0,35,35,38,1,,,,,,,,,,,,,,,,,,,,,,,,,,,,,,,,,,,,,,,,,,,,,,,,,,,,,,,,,,,,,,,,,,,,,,,,,,,,,,,,,,,,,,,,,,,,,,,,,,,,,,,,
,,?,0.001785,0,,,,,,stimuli/images/PICTURE_677.png,FAMILY,5f3575a9994ab95447c9b16a,06/08/1993,2020-08-27_18h23.57.208,proactive3.1,2020.1.2,Win32,60,5f47c29a48bd2a1e651a6eb7,5f47ec1283588023feca3db5,4,,,,,,map,,,,,,,,,,,6,2,0,36,36,53,1,,,,,,,,,,,,,,,,,,,,,,,,,,,,,,,,,,,,,,,,,,,,,,,,,,,,,,,,,,,,,,,,,,,,,,,,,,,,,,,,,,,,,,,,,,,,,,,,,,,,,,,,
,,?,0.00109,0,,,,,,stimuli/images/PICTURE_255.png,PENNY,5f3575a9994ab95447c9b16a,06/08/1993,2020-08-27_18h23.57.208,proactive3.1,2020.1.2,Win32,60,5f47c29a48bd2a1e651a6eb7,5f47ec1283588023feca3db5,4,,,,,,shovel,,,,,,,,,,,2,2,0,37,37,19,1,,,,,,,,,,,,,,,,,,,,,,,,,,,,,,,,,,,,,,,,,,,,,,,,,,,,,,,,,,,,,,,,,,,,,,,,,,,,,,,,,,,,,,,,,,,,,,,,,,,,,,,,
,,?,0.00112,0,,,,,,stimuli/images/PICTURE_403.png,FAMILY,5f3575a9994ab95447c9b16a,06/08/1993,2020-08-27_18h23.57.208,proactive3.1,2020.1.2,Win32,60,5f47c29a48bd2a1e651a6eb7,5f47ec1283588023feca3db5,4,,,,,,cathedral,,,,,,,,,,,1,2,0,38,38,9,1,,,,,,,,,,,,,,,,,,,,,,,,,,,,,,,,,,,,,,,,,,,,,,,,,,,,,,,,,,,,,,,,,,,,,,,,,,,,,,,,,,,,,,,,,,,,,,,,,,,,,,,,
,,?,0.001235,0,,,,,,stimuli/images/PICTURE_2.png,YARD,5f3575a9994ab95447c9b16a,06/08/1993,2020-08-27_18h23.57.208,proactive3.1,2020.1.2,Win32,60,5f47c29a48bd2a1e651a6eb7,5f47ec1283588023feca3db5,4,,,,,,tyre,,,,,,,,,,,6,2,0,39,39,55,1,,,,,,,,,,,,,,,,,,,,,,,,,,,,,,,,,,,,,,,,,,,,,,,,,,,,,,,,,,,,,,,,,,,,,,,,,,,,,,,,,,,,,,,,,,,,,,,,,,,,,,,,
,,?,0.00107,0,,,,,,stimuli/images/PICTURE_33.png,COPS,5f3575a9994ab95447c9b16a,06/08/1993,2020-08-27_18h23.57.208,proactive3.1,2020.1.2,Win32,60,5f47c29a48bd2a1e651a6eb7,5f47ec1283588023feca3db5,4,,,,,,frame,,,,,,,,,,,3,2,0,40,40,29,1,,,,,,,,,,,,,,,,,,,,,,,,,,,,,,,,,,,,,,,,,,,,,,,,,,,,,,,,,,,,,,,,,,,,,,,,,,,,,,,,,,,,,,,,,,,,,,,,,,,,,,,,
,,?,0.001975,0,,,,,,stimuli/images/PICTURE_297.png,BODY,5f3575a9994ab95447c9b16a,06/08/1993,2020-08-27_18h23.57.208,proactive3.1,2020.1.2,Win32,60,5f47c29a48bd2a1e651a6eb7,5f47ec1283588023feca3db5,4,,,,,,aeroplane,,,,,,,,,,,6,2,0,41,41,51,1,,,,,,,,,,,,,,,,,,,,,,,,,,,,,,,,,,,,,,,,,,,,,,,,,,,,,,,,,,,,,,,,,,,,,,,,,,,,,,,,,,,,,,,,,,,,,,,,,,,,,,,,
,,CASE,12.602425,0,,,,,,stimuli/images/PICTURE_141.png,CLIENT,5f3575a9994ab95447c9b16a,06/08/1993,2020-08-27_18h23.57.208,proactive3.1,2020.1.2,Win32,60,5f47c29a48bd2a1e651a6eb7,5f47ec1283588023feca3db5,4,,,,,,sunflower,,,,,,,,,,,4,2,0,42,42,30,1,,,,,,,,,,,,,,,,,,,,,,,,,,,,,,,,,,,,,,,,,,,,,,,,,,,,,,,,,,,,,,,,,,,,,,,,,,,,,,,,,,,,,,,,,,,,,,,,,,,,,,,,
,,?,0.001285,0,,,,,,stimuli/images/PICTURE_123.png,SALE,5f3575a9994ab95447c9b16a,06/08/1993,2020-08-27_18h23.57.208,proactive3.1,2020.1.2,Win32,60,5f47c29a48bd2a1e651a6eb7,5f47ec1283588023feca3db5,4,,,,,,dart,,,,,,,,,,,1,2,0,43,43,8,1,,,,,,,,,,,,,,,,,,,,,,,,,,,,,,,,,,,,,,,,,,,,,,,,,,,,,,,,,,,,,,,,,,,,,,,,,,,,,,,,,,,,,,,,,,,,,,,,,,,,,,,,
,,GIRL,2.40694,1,,,,,,stimuli/images/PICTURE_93.png,GIRL,5f3575a9994ab95447c9b16a,06/08/1993,2020-08-27_18h23.57.208,proactive3.1,2020.1.2,Win32,60,5f47c29a48bd2a1e651a6eb7,5f47ec1283588023feca3db5,4,,,,,,skateboard,,,,,,,,,,,4,2,0,44,44,31,1,,,,,,,,,,,,,,,,,,,,,,,,,,,,,,,,,,,,,,,,,,,,,,,,,,,,,,,,,,,,,,,,,,,,,,,,,,,,,,,,,,,,,,,,,,,,,,,,,,,,,,,,
,,?,0.00125,0,,,,,,stimuli/images/PICTURE_57.png,CASINO,5f3575a9994ab95447c9b16a,06/08/1993,2020-08-27_18h23.57.208,proactive3.1,2020.1.2,Win32,60,5f47c29a48bd2a1e651a6eb7,5f47ec1283588023feca3db5,4,,,,,,stamp,,,,,,,,,,,2,2,0,45,45,12,1,,,,,,,,,,,,,,,,,,,,,,,,,,,,,,,,,,,,,,,,,,,,,,,,,,,,,,,,,,,,,,,,,,,,,,,,,,,,,,,,,,,,,,,,,,,,,,,,,,,,,,,,
,,?,0.001105,0,,,,,,stimuli/images/PICTURE_18.png,RIVER,5f3575a9994ab95447c9b16a,06/08/1993,2020-08-27_18h23.57.208,proactive3.1,2020.1.2,Win32,60,5f47c29a48bd2a1e651a6eb7,5f47ec1283588023feca3db5,4,,,,,,planet,,,,,,,,,,,3,2,0,46,46,22,1,,,,,,,,,,,,,,,,,,,,,,,,,,,,,,,,,,,,,,,,,,,,,,,,,,,,,,,,,,,,,,,,,,,,,,,,,,,,,,,,,,,,,,,,,,,,,,,,,,,,,,,,
,,?,0.001075,0,,,,,,stimuli/images/PICTURE_654.png,COPS,5f3575a9994ab95447c9b16a,06/08/1993,2020-08-27_18h23.57.208,proactive3.1,2020.1.2,Win32,60,5f47c29a48bd2a1e651a6eb7,5f47ec1283588023feca3db5,4,,,,,,pencil,,,,,,,,,,,2,2,0,47,47,10,1,,,,,,,,,,,,,,,,,,,,,,,,,,,,,,,,,,,,,,,,,,,,,,,,,,,,,,,,,,,,,,,,,,,,,,,,,,,,,,,,,,,,,,,,,,,,,,,,,,,,,,,,
,,?,0.001065,0,,,,,,stimuli/images/PICTURE_509.png,BATH,5f3575a9994ab95447c9b16a,06/08/1993,2020-08-27_18h23.57.208,proactive3.1,2020.1.2,Win32,60,5f47c29a48bd2a1e651a6eb7,5f47ec1283588023feca3db5,4,,,,,,telephone,,,,,,,,,,,2,2,0,48,48,15,1,,,,,,,,,,,,,,,,,,,,,,,,,,,,,,,,,,,,,,,,,,,,,,,,,,,,,,,,,,,,,,,,,,,,,,,,,,,,,,,,,,,,,,,,,,,,,,,,,,,,,,,,
,,SERIES,2.719285,1,,,,,,stimuli/images/PICTURE_491.png,SERIES,5f3575a9994ab95447c9b16a,06/08/1993,2020-08-27_18h23.57.208,proactive3.1,2020.1.2,Win32,60,5f47c29a48bd2a1e651a6eb7,5f47ec1283588023feca3db5,4,,,,,,rug,,,,,,,,,,,4,2,0,49,49,39,1,,,,,,,,,,,,,,,,,,,,,,,,,,,,,,,,,,,,,,,,,,,,,,,,,,,,,,,,,,,,,,,,,,,,,,,,,,,,,,,,,,,,,,,,,,,,,,,,,,,,,,,,
,,?,0.00168,0,,,,,,stimuli/images/PICTURE_405.png,JUNGLE,5f3575a9994ab95447c9b16a,06/08/1993,2020-08-27_18h23.57.208,proactive3.1,2020.1.2,Win32,60,5f47c29a48bd2a1e651a6eb7,5f47ec1283588023feca3db5,4,,,,,,anchor,,,,,,,,,,,2,2,0,50,50,13,1,,,,,,,,,,,,,,,,,,,,,,,,,,,,,,,,,,,,,,,,,,,,,,,,,,,,,,,,,,,,,,,,,,,,,,,,,,,,,,,,,,,,,,,,,,,,,,,,,,,,,,,,
,,?,0.00128,0,,,,,,stimuli/images/PICTURE_68.png,KIND,5f3575a9994ab95447c9b16a,06/08/1993,2020-08-27_18h23.57.208,proactive3.1,2020.1.2,Win32,60,5f47c29a48bd2a1e651a6eb7,5f47ec1283588023feca3db5,4,,,,,,candle,,,,,,,,,,,3,2,0,51,51,23,1,,,,,,,,,,,,,,,,,,,,,,,,,,,,,,,,,,,,,,,,,,,,,,,,,,,,,,,,,,,,,,,,,,,,,,,,,,,,,,,,,,,,,,,,,,,,,,,,,,,,,,,,
,,?,0.001095,0,,,,,,stimuli/images/PICTURE_667.png,GLASS,5f3575a9994ab95447c9b16a,06/08/1993,2020-08-27_18h23.57.208,proactive3.1,2020.1.2,Win32,60,5f47c29a48bd2a1e651a6eb7,5f47ec1283588023feca3db5,4,,,,,,daisy,,,,,,,,,,,3,2,0,52,52,27,1,,,,,,,,,,,,,,,,,,,,,,,,,,,,,,,,,,,,,,,,,,,,,,,,,,,,,,,,,,,,,,,,,,,,,,,,,,,,,,,,,,,,,,,,,,,,,,,,,,,,,,,,
,,?,0.00125,0,,,,,,stimuli/images/PICTURE_564.png,PLENTY,5f3575a9994ab95447c9b16a,06/08/1993,2020-08-27_18h23.57.208,proactive3.1,2020.1.2,Win32,60,5f47c29a48bd2a1e651a6eb7,5f47ec1283588023feca3db5,4,,,,,,spoon,,,,,,,,,,,2,2,0,53,53,11,1,,,,,,,,,,,,,,,,,,,,,,,,,,,,,,,,,,,,,,,,,,,,,,,,,,,,,,,,,,,,,,,,,,,,,,,,,,,,,,,,,,,,,,,,,,,,,,,,,,,,,,,,
,,NIGHT,2.23557,1,,,,,,stimuli/images/PICTURE_95.png,NIGHT,5f3575a9994ab95447c9b16a,06/08/1993,2020-08-27_18h23.57.208,proactive3.1,2020.1.2,Win32,60,5f47c29a48bd2a1e651a6eb7,5f47ec1283588023feca3db5,4,,,,,,suitcase,,,,,,,,,,,4,2,0,54,54,37,1,,,,,,,,,,,,,,,,,,,,,,,,,,,,,,,,,,,,,,,,,,,,,,,,,,,,,,,,,,,,,,,,,,,,,,,,,,,,,,,,,,,,,,,,,,,,,,,,,,,,,,,,
,,?,0.001675,0,,,,,,stimuli/images/PICTURE_356.png,CANDY,5f3575a9994ab95447c9b16a,06/08/1993,2020-08-27_18h23.57.208,proactive3.1,2020.1.2,Win32,60,5f47c29a48bd2a1e651a6eb7,5f47ec1283588023feca3db5,4,,,,,,pawn,,,,,,,,,,,5,2,0,55,55,46,1,,,,,,,,,,,,,,,,,,,,,,,,,,,,,,,,,,,,,,,,,,,,,,,,,,,,,,,,,,,,,,,,,,,,,,,,,,,,,,,,,,,,,,,,,,,,,,,,,,,,,,,,
,,HOUSE,5.27411,1,,,,,,stimuli/images/PICTURE_504.png,HOUSE,5f3575a9994ab95447c9b16a,06/08/1993,2020-08-27_18h23.57.208,proactive3.1,2020.1.2,Win32,60,5f47c29a48bd2a1e651a6eb7,5f47ec1283588023feca3db5,4,,,,,,wheel,,,,,,,,,,,4,2,0,56,56,36,1,,,,,,,,,,,,,,,,,,,,,,,,,,,,,,,,,,,,,,,,,,,,,,,,,,,,,,,,,,,,,,,,,,,,,,,,,,,,,,,,,,,,,,,,,,,,,,,,,,,,,,,,
,,?,0.0018,0,,,,,,stimuli/images/PICTURE_215.png,BOYS,5f3575a9994ab95447c9b16a,06/08/1993,2020-08-27_18h23.57.208,proactive3.1,2020.1.2,Win32,60,5f47c29a48bd2a1e651a6eb7,5f47ec1283588023feca3db5,4,,,,,,boot,,,,,,,,,,,3,2,0,57,57,24,1,,,,,,,,,,,,,,,,,,,,,,,,,,,,,,,,,,,,,,,,,,,,,,,,,,,,,,,,,,,,,,,,,,,,,,,,,,,,,,,,,,,,,,,,,,,,,,,,,,,,,,,,
,,?,0.001415,0,,,,,,stimuli/images/PICTURE_708.png,VALLEY,5f3575a9994ab95447c9b16a,06/08/1993,2020-08-27_18h23.57.208,proactive3.1,2020.1.2,Win32,60,5f47c29a48bd2a1e651a6eb7,5f47ec1283588023feca3db5,4,,,,,,monkey,,,,,,,,,,,5,2,0,58,58,45,1,,,,,,,,,,,,,,,,,,,,,,,,,,,,,,,,,,,,,,,,,,,,,,,,,,,,,,,,,,,,,,,,,,,,,,,,,,,,,,,,,,,,,,,,,,,,,,,,,,,,,,,,
,,?,0.000955,0,,,,,,stimuli/images/PICTURE_509.png,SHOTS,5f3575a9994ab95447c9b16a,06/08/1993,2020-08-27_18h23.57.208,proactive3.1,2020.1.2,Win32,60,5f47c29a48bd2a1e651a6eb7,5f47ec1283588023feca3db5,4,,,,,,telephone,,,,,,,,,,,1,2,0,59,59,7,1,,,,,,,,,,,,,,,,,,,,,,,,,,,,,,,,,,,,,,,,,,,,,,,,,,,,,,,,,,,,,,,,,,,,,,,,,,,,,,,,,,,,,,,,,,,,,,,,,,,,,,,,
,,,,,,,,,,,,5f3575a9994ab95447c9b16a,06/08/1993,2020-08-27_18h23.57.208,proactive3.1,2020.1.2,Win32,60,5f47c29a48bd2a1e651a6eb7,5f47ec1283588023feca3db5,4,,,,,,,,,,,,,,,,,,,,,,,,0,1,1,2,1,stimuli/learn-block3.csv,,,,,,,,,,,,,,,,,,,,,,,,,,,,,,,,,,,,,,,,,,,,,,,,,,,,,,,,,,,,,,,,,,,,,,,,,,,,,,,,,,,,,,,,,,,,,,,,,,
,,,,,,,,,,stimuli/images/PICTURE_491.png,GLASS,5f3575a9994ab95447c9b16a,06/08/1993,2020-08-27_18h23.57.208,proactive3.1,2020.1.2,Win32,60,5f47c29a48bd2a1e651a6eb7,5f47ec1283588023feca3db5,4,,,,,,rug,,,,,,0,0,0,14,1,2,1,,,,,,,,,,,,,,,,,,,,,,,,,,,,,,,,,,,,,,,,,,,,,,,,,,,,,,,,,,,,,,,,,,,,,,,,,,,,,,,,,,,,,,,,,,,,,,,,,,,,,,,,,,,,,
,,,,,,,,,,stimuli/images/PICTURE_296.png,LOTS,5f3575a9994ab95447c9b16a,06/08/1993,2020-08-27_18h23.57.208,proactive3.1,2020.1.2,Win32,60,5f47c29a48bd2a1e651a6eb7,5f47ec1283588023feca3db5,4,,,,,,bolt,,,,,,0,1,1,9,1,1,1,,,,,,,,,,,,,,,,,,,,,,,,,,,,,,,,,,,,,,,,,,,,,,,,,,,,,,,,,,,,,,,,,,,,,,,,,,,,,,,,,,,,,,,,,,,,,,,,,,,,,,,,,,,,,
,,,,,,,,,,stimuli/images/PICTURE_95.png,BOYS,5f3575a9994ab95447c9b16a,06/08/1993,2020-08-27_18h23.57.208,proactive3.1,2020.1.2,Win32,60,5f47c29a48bd2a1e651a6eb7,5f47ec1283588023feca3db5,4,,,,,,suitcase,,,,,,0,2,2,1,1,1,1,,,,,,,,,,,,,,,,,,,,,,,,,,,,,,,,,,,,,,,,,,,,,,,,,,,,,,,,,,,,,,,,,,,,,,,,,,,,,,,,,,,,,,,,,,,,,,,,,,,,,,,,,,,,,
,,,,,,,,,,stimuli/images/PICTURE_504.png,COPS,5f3575a9994ab95447c9b16a,06/08/1993,2020-08-27_18h23.57.208,proactive3.1,2020.1.2,Win32,60,5f47c29a48bd2a1e651a6eb7,5f47ec1283588023feca3db5,4,,,,,,wheel,,,,,,0,3,3,52,1,6,1,,,,,,,,,,,,,,,,,,,,,,,,,,,,,,,,,,,,,,,,,,,,,,,,,,,,,,,,,,,,,,,,,,,,,,,,,,,,,,,,,,,,,,,,,,,,,,,,,,,,,,,,,,,,,
,,,,,,,,,,stimuli/images/PICTURE_654.png,MONTH,5f3575a9994ab95447c9b16a,06/08/1993,2020-08-27_18h23.57.208,proactive3.1,2020.1.2,Win32,60,5f47c29a48bd2a1e651a6eb7,5f47ec1283588023feca3db5,4,,,,,,pencil,,,,,,0,4,4,29,1,3,1,,,,,,,,,,,,,,,,,,,,,,,,,,,,,,,,,,,,,,,,,,,,,,,,,,,,,,,,,,,,,,,,,,,,,,,,,,,,,,,,,,,,,,,,,,,,,,,,,,,,,,,,,,,,,
,,,,,,,,,,stimuli/images/PICTURE_208.png,SYSTEM,5f3575a9994ab95447c9b16a,06/08/1993,2020-08-27_18h23.57.208,proactive3.1,2020.1.2,Win32,60,5f47c29a48bd2a1e651a6eb7,5f47ec1283588023feca3db5,4,,,,,,microphone,,,,,,0,5,5,32,1,4,1,,,,,,,,,,,,,,,,,,,,,,,,,,,,,,,,,,,,,,,,,,,,,,,,,,,,,,,,,,,,,,,,,,,,,,,,,,,,,,,,,,,,,,,,,,,,,,,,,,,,,,,,,,,,,
,,,,,,,,,,stimuli/images/PICTURE_2.png,FLIGHT,5f3575a9994ab95447c9b16a,06/08/1993,2020-08-27_18h23.57.208,proactive3.1,2020.1.2,Win32,60,5f47c29a48bd2a1e651a6eb7,5f47ec1283588023feca3db5,4,,,,,,tyre,,,,,,0,6,6,15,1,2,1,,,,,,,,,,,,,,,,,,,,,,,,,,,,,,,,,,,,,,,,,,,,,,,,,,,,,,,,,,,,,,,,,,,,,,,,,,,,,,,,,,,,,,,,,,,,,,,,,,,,,,,,,,,,,
,,,,,,,,,,stimuli/images/PICTURE_403.png,RIVER,5f3575a9994ab95447c9b16a,06/08/1993,2020-08-27_18h23.57.208,proactive3.1,2020.1.2,Win32,60,5f47c29a48bd2a1e651a6eb7,5f47ec1283588023feca3db5,4,,,,,,cathedral,,,,,,0,7,7,40,1,5,1,,,,,,,,,,,,,,,,,,,,,,,,,,,,,,,,,,,,,,,,,,,,,,,,,,,,,,,,,,,,,,,,,,,,,,,,,,,,,,,,,,,,,,,,,,,,,,,,,,,,,,,,,,,,,
,,,,,,,,,,stimuli/images/PICTURE_147.png,WOMEN,5f3575a9994ab95447c9b16a,06/08/1993,2020-08-27_18h23.57.208,proactive3.1,2020.1.2,Win32,60,5f47c29a48bd2a1e651a6eb7,5f47ec1283588023feca3db5,4,,,,,,hanger,,,,,,0,8,8,7,1,1,1,,,,,,,,,,,,,,,,,,,,,,,,,,,,,,,,,,,,,,,,,,,,,,,,,,,,,,,,,,,,,,,,,,,,,,,,,,,,,,,,,,,,,,,,,,,,,,,,,,,,,,,,,,,,,
,,,,,,,,,,stimuli/images/PICTURE_685.png,PENNY,5f3575a9994ab95447c9b16a,06/08/1993,2020-08-27_18h23.57.208,proactive3.1,2020.1.2,Win32,60,5f47c29a48bd2a1e651a6eb7,5f47ec1283588023feca3db5,4,,,,,,goose,,,,,,0,9,9,4,1,1,1,,,,,,,,,,,,,,,,,,,,,,,,,,,,,,,,,,,,,,,,,,,,,,,,,,,,,,,,,,,,,,,,,,,,,,,,,,,,,,,,,,,,,,,,,,,,,,,,,,,,,,,,,,,,,
,,,,,,,,,,stimuli/images/PICTURE_297.png,RIVER,5f3575a9994ab95447c9b16a,06/08/1993,2020-08-27_18h23.57.208,proactive3.1,2020.1.2,Win32,60,5f47c29a48bd2a1e651a6eb7,5f47ec1283588023feca3db5,4,,,,,,aeroplane,,,,,,0,10,10,39,1,4,1,,,,,,,,,,,,,,,,,,,,,,,,,,,,,,,,,,,,,,,,,,,,,,,,,,,,,,,,,,,,,,,,,,,,,,,,,,,,,,,,,,,,,,,,,,,,,,,,,,,,,,,,,,,,,
,,,,,,,,,,stimuli/images/PICTURE_95.png,MILLER,5f3575a9994ab95447c9b16a,06/08/1993,2020-08-27_18h23.57.208,proactive3.1,2020.1.2,Win32,60,5f47c29a48bd2a1e651a6eb7,5f47ec1283588023feca3db5,4,,,,,,suitcase,,,,,,0,11,11,56,1,6,1,,,,,,,,,,,,,,,,,,,,,,,,,,,,,,,,,,,,,,,,,,,,,,,,,,,,,,,,,,,,,,,,,,,,,,,,,,,,,,,,,,,,,,,,,,,,,,,,,,,,,,,,,,,,,
,,,,,,,,,,stimuli/images/PICTURE_667.png,RIVER,5f3575a9994ab95447c9b16a,06/08/1993,2020-08-27_18h23.57.208,proactive3.1,2020.1.2,Win32,60,5f47c29a48bd2a1e651a6eb7,5f47ec1283588023feca3db5,4,,,,,,daisy,,,,,,0,12,12,10,1,2,1,,,,,,,,,,,,,,,,,,,,,,,,,,,,,,,,,,,,,,,,,,,,,,,,,,,,,,,,,,,,,,,,,,,,,,,,,,,,,,,,,,,,,,,,,,,,,,,,,,,,,,,,,,,,,
,,,,,,,,,,stimuli/images/PICTURE_327.png,SERIES,5f3575a9994ab95447c9b16a,06/08/1993,2020-08-27_18h23.57.208,proactive3.1,2020.1.2,Win32,60,5f47c29a48bd2a1e651a6eb7,5f47ec1283588023feca3db5,4,,,,,,helmet,,,,,,0,13,13,3,1,1,1,,,,,,,,,,,,,,,,,,,,,,,,,,,,,,,,,,,,,,,,,,,,,,,,,,,,,,,,,,,,,,,,,,,,,,,,,,,,,,,,,,,,,,,,,,,,,,,,,,,,,,,,,,,,,
,,,,,,,,,,stimuli/images/PICTURE_469.png,AGENT,5f3575a9994ab95447c9b16a,06/08/1993,2020-08-27_18h23.57.208,proactive3.1,2020.1.2,Win32,60,5f47c29a48bd2a1e651a6eb7,5f47ec1283588023feca3db5,4,,,,,,stool,,,,,,0,14,14,16,1,2,1,,,,,,,,,,,,,,,,,,,,,,,,,,,,,,,,,,,,,,,,,,,,,,,,,,,,,,,,,,,,,,,,,,,,,,,,,,,,,,,,,,,,,,,,,,,,,,,,,,,,,,,,,,,,,
,,,,,,,,,,stimuli/images/PICTURE_405.png,PLENTY,5f3575a9994ab95447c9b16a,06/08/1993,2020-08-27_18h23.57.208,proactive3.1,2020.1.2,Win32,60,5f47c29a48bd2a1e651a6eb7,5f47ec1283588023feca3db5,4,,,,,,anchor,,,,,,0,15,15,23,1,3,1,,,,,,,,,,,,,,,,,,,,,,,,,,,,,,,,,,,,,,,,,,,,,,,,,,,,,,,,,,,,,,,,,,,,,,,,,,,,,,,,,,,,,,,,,,,,,,,,,,,,,,,,,,,,,
,,,,,,,,,,stimuli/images/PICTURE_708.png,RECORD,5f3575a9994ab95447c9b16a,06/08/1993,2020-08-27_18h23.57.208,proactive3.1,2020.1.2,Win32,60,5f47c29a48bd2a1e651a6eb7,5f47ec1283588023feca3db5,4,,,,,,monkey,,,,,,0,16,16,58,1,6,1,,,,,,,,,,,,,,,,,,,,,,,,,,,,,,,,,,,,,,,,,,,,,,,,,,,,,,,,,,,,,,,,,,,,,,,,,,,,,,,,,,,,,,,,,,,,,,,,,,,,,,,,,,,,,
,,,,,,,,,,stimuli/images/PICTURE_449.png,DUDE,5f3575a9994ab95447c9b16a,06/08/1993,2020-08-27_18h23.57.208,proactive3.1,2020.1.2,Win32,60,5f47c29a48bd2a1e651a6eb7,5f47ec1283588023feca3db5,4,,,,,,bench,,,,,,0,17,17,17,1,2,1,,,,,,,,,,,,,,,,,,,,,,,,,,,,,,,,,,,,,,,,,,,,,,,,,,,,,,,,,,,,,,,,,,,,,,,,,,,,,,,,,,,,,,,,,,,,,,,,,,,,,,,,,,,,,
,,,,,,,,,,stimuli/images/PICTURE_308.png,FAMILY,5f3575a9994ab95447c9b16a,06/08/1993,2020-08-27_18h23.57.208,proactive3.1,2020.1.2,Win32,60,5f47c29a48bd2a1e651a6eb7,5f47ec1283588023feca3db5,4,,,,,,dice,,,,,,0,18,18,36,1,4,1,,,,,,,,,,,,,,,,,,,,,,,,,,,,,,,,,,,,,,,,,,,,,,,,,,,,,,,,,,,,,,,,,,,,,,,,,,,,,,,,,,,,,,,,,,,,,,,,,,,,,,,,,,,,,
,,,,,,,,,,stimuli/images/PICTURE_675.png,SALE,5f3575a9994ab95447c9b16a,06/08/1993,2020-08-27_18h23.57.208,proactive3.1,2020.1.2,Win32,60,5f47c29a48bd2a1e651a6eb7,5f47ec1283588023feca3db5,4,,,,,,windmill,,,,,,0,19,19,47,1,5,1,,,,,,,,,,,,,,,,,,,,,,,,,,,,,,,,,,,,,,,,,,,,,,,,,,,,,,,,,,,,,,,,,,,,,,,,,,,,,,,,,,,,,,,,,,,,,,,,,,,,,,,,,,,,,
,,,,,,,,,,stimuli/images/PICTURE_655.png,TOILET,5f3575a9994ab95447c9b16a,06/08/1993,2020-08-27_18h23.57.208,proactive3.1,2020.1.2,Win32,60,5f47c29a48bd2a1e651a6eb7,5f47ec1283588023feca3db5,4,,,,,,megaphone,,,,,,0,20,20,12,1,2,1,,,,,,,,,,,,,,,,,,,,,,,,,,,,,,,,,,,,,,,,,,,,,,,,,,,,,,,,,,,,,,,,,,,,,,,,,,,,,,,,,,,,,,,,,,,,,,,,,,,,,,,,,,,,,
,,,,,,,,,,stimuli/images/PICTURE_203.png,NIGHT,5f3575a9994ab95447c9b16a,06/08/1993,2020-08-27_18h23.57.208,proactive3.1,2020.1.2,Win32,60,5f47c29a48bd2a1e651a6eb7,5f47ec1283588023feca3db5,4,,,,,,cap,,,,,,0,21,21,2,1,1,1,,,,,,,,,,,,,,,,,,,,,,,,,,,,,,,,,,,,,,,,,,,,,,,,,,,,,,,,,,,,,,,,,,,,,,,,,,,,,,,,,,,,,,,,,,,,,,,,,,,,,,,,,,,,,
,,,,,,,,,,stimuli/images/PICTURE_504.png,YEAR,5f3575a9994ab95447c9b16a,06/08/1993,2020-08-27_18h23.57.208,proactive3.1,2020.1.2,Win32,60,5f47c29a48bd2a1e651a6eb7,5f47ec1283588023feca3db5,4,,,,,,wheel,,,,,,0,22,22,13,1,2,1,,,,,,,,,,,,,,,,,,,,,,,,,,,,,,,,,,,,,,,,,,,,,,,,,,,,,,,,,,,,,,,,,,,,,,,,,,,,,,,,,,,,,,,,,,,,,,,,,,,,,,,,,,,,,
,,,,,,,,,,stimuli/images/PICTURE_296.png,LIFE,5f3575a9994ab95447c9b16a,06/08/1993,2020-08-27_18h23.57.208,proactive3.1,2020.1.2,Win32,60,5f47c29a48bd2a1e651a6eb7,5f47ec1283588023feca3db5,4,,,,,,bolt,,,,,,0,23,23,57,1,6,1,,,,,,,,,,,,,,,,,,,,,,,,,,,,,,,,,,,,,,,,,,,,,,,,,,,,,,,,,,,,,,,,,,,,,,,,,,,,,,,,,,,,,,,,,,,,,,,,,,,,,,,,,,,,,
,,,,,,,,,,stimuli/images/PICTURE_33.png,FRIEND,5f3575a9994ab95447c9b16a,06/08/1993,2020-08-27_18h23.57.208,proactive3.1,2020.1.2,Win32,60,5f47c29a48bd2a1e651a6eb7,5f47ec1283588023feca3db5,4,,,,,,frame,,,,,,0,24,24,8,1,1,1,,,,,,,,,,,,,,,,,,,,,,,,,,,,,,,,,,,,,,,,,,,,,,,,,,,,,,,,,,,,,,,,,,,,,,,,,,,,,,,,,,,,,,,,,,,,,,,,,,,,,,,,,,,,,
,,,,,,,,,,stimuli/images/PICTURE_147.png,YEAR,5f3575a9994ab95447c9b16a,06/08/1993,2020-08-27_18h23.57.208,proactive3.1,2020.1.2,Win32,60,5f47c29a48bd2a1e651a6eb7,5f47ec1283588023feca3db5,4,,,,,,hanger,,,,,,0,25,25,21,1,3,1,,,,,,,,,,,,,,,,,,,,,,,,,,,,,,,,,,,,,,,,,,,,,,,,,,,,,,,,,,,,,,,,,,,,,,,,,,,,,,,,,,,,,,,,,,,,,,,,,,,,,,,,,,,,,
,,,,,,,,,,stimuli/images/PICTURE_327.png,CASINO,5f3575a9994ab95447c9b16a,06/08/1993,2020-08-27_18h23.57.208,proactive3.1,2020.1.2,Win32,60,5f47c29a48bd2a1e651a6eb7,5f47ec1283588023feca3db5,4,,,,,,helmet,,,,,,0,26,26,20,1,3,1,,,,,,,,,,,,,,,,,,,,,,,,,,,,,,,,,,,,,,,,,,,,,,,,,,,,,,,,,,,,,,,,,,,,,,,,,,,,,,,,,,,,,,,,,,,,,,,,,,,,,,,,,,,,,
,,,,,,,,,,stimuli/images/PICTURE_285.png,LIFE,5f3575a9994ab95447c9b16a,06/08/1993,2020-08-27_18h23.57.208,proactive3.1,2020.1.2,Win32,60,5f47c29a48bd2a1e651a6eb7,5f47ec1283588023feca3db5,4,,,,,,carrot,,,,,,0,27,27,33,1,4,1,,,,,,,,,,,,,,,,,,,,,,,,,,,,,,,,,,,,,,,,,,,,,,,,,,,,,,,,,,,,,,,,,,,,,,,,,,,,,,,,,,,,,,,,,,,,,,,,,,,,,,,,,,,,,
,,,,,,,,,,stimuli/images/PICTURE_42.png,BOYS,5f3575a9994ab95447c9b16a,06/08/1993,2020-08-27_18h23.57.208,proactive3.1,2020.1.2,Win32,60,5f47c29a48bd2a1e651a6eb7,5f47ec1283588023feca3db5,4,,,,,,pear,,,,,,0,28,28,55,1,6,1,,,,,,,,,,,,,,,,,,,,,,,,,,,,,,,,,,,,,,,,,,,,,,,,,,,,,,,,,,,,,,,,,,,,,,,,,,,,,,,,,,,,,,,,,,,,,,,,,,,,,,,,,,,,,
,,,,,,,,,,stimuli/images/PICTURE_177.png,WRITER,5f3575a9994ab95447c9b16a,06/08/1993,2020-08-27_18h23.57.208,proactive3.1,2020.1.2,Win32,60,5f47c29a48bd2a1e651a6eb7,5f47ec1283588023feca3db5,4,,,,,,mushroom,,,,,,0,29,29,41,1,5,1,,,,,,,,,,,,,,,,,,,,,,,,,,,,,,,,,,,,,,,,,,,,,,,,,,,,,,,,,,,,,,,,,,,,,,,,,,,,,,,,,,,,,,,,,,,,,,,,,,,,,,,,,,,,,
,,,,,,,,,,stimuli/images/PICTURE_340.png,LETTER,5f3575a9994ab95447c9b16a,06/08/1993,2020-08-27_18h23.57.208,proactive3.1,2020.1.2,Win32,60,5f47c29a48bd2a1e651a6eb7,5f47ec1283588023feca3db5,4,,,,,,mirror,,,,,,0,30,30,24,1,3,1,,,,,,,,,,,,,,,,,,,,,,,,,,,,,,,,,,,,,,,,,,,,,,,,,,,,,,,,,,,,,,,,,,,,,,,,,,,,,,,,,,,,,,,,,,,,,,,,,,,,,,,,,,,,,
,,,,,,,,,,stimuli/images/PICTURE_677.png,APPLE,5f3575a9994ab95447c9b16a,06/08/1993,2020-08-27_18h23.57.208,proactive3.1,2020.1.2,Win32,60,5f47c29a48bd2a1e651a6eb7,5f47ec1283588023feca3db5,4,,,,,,map,,,,,,0,31,31,43,1,5,1,,,,,,,,,,,,,,,,,,,,,,,,,,,,,,,,,,,,,,,,,,,,,,,,,,,,,,,,,,,,,,,,,,,,,,,,,,,,,,,,,,,,,,,,,,,,,,,,,,,,,,,,,,,,,
,,,,,,,,,,stimuli/images/PICTURE_339.png,CLIENT,5f3575a9994ab95447c9b16a,06/08/1993,2020-08-27_18h23.57.208,proactive3.1,2020.1.2,Win32,60,5f47c29a48bd2a1e651a6eb7,5f47ec1283588023feca3db5,4,,,,,,backpack,,,,,,0,32,32,11,1,2,1,,,,,,,,,,,,,,,,,,,,,,,,,,,,,,,,,,,,,,,,,,,,,,,,,,,,,,,,,,,,,,,,,,,,,,,,,,,,,,,,,,,,,,,,,,,,,,,,,,,,,,,,,,,,,
,,,,,,,,,,stimuli/images/PICTURE_383.png,WRITER,5f3575a9994ab95447c9b16a,06/08/1993,2020-08-27_18h23.57.208,proactive3.1,2020.1.2,Win32,60,5f47c29a48bd2a1e651a6eb7,5f47ec1283588023feca3db5,4,,,,,,coin,,,,,,0,33,33,28,1,3,1,,,,,,,,,,,,,,,,,,,,,,,,,,,,,,,,,,,,,,,,,,,,,,,,,,,,,,,,,,,,,,,,,,,,,,,,,,,,,,,,,,,,,,,,,,,,,,,,,,,,,,,,,,,,,
,,,,,,,,,,stimuli/images/PICTURE_405.png,YEAR,5f3575a9994ab95447c9b16a,06/08/1993,2020-08-27_18h23.57.208,proactive3.1,2020.1.2,Win32,60,5f47c29a48bd2a1e651a6eb7,5f47ec1283588023feca3db5,4,,,,,,anchor,,,,,,0,34,34,34,1,4,1,,,,,,,,,,,,,,,,,,,,,,,,,,,,,,,,,,,,,,,,,,,,,,,,,,,,,,,,,,,,,,,,,,,,,,,,,,,,,,,,,,,,,,,,,,,,,,,,,,,,,,,,,,,,,
,,,,,,,,,,stimuli/images/PICTURE_564.png,BATH,5f3575a9994ab95447c9b16a,06/08/1993,2020-08-27_18h23.57.208,proactive3.1,2020.1.2,Win32,60,5f47c29a48bd2a1e651a6eb7,5f47ec1283588023feca3db5,4,,,,,,spoon,,,,,,0,35,35,26,1,3,1,,,,,,,,,,,,,,,,,,,,,,,,,,,,,,,,,,,,,,,,,,,,,,,,,,,,,,,,,,,,,,,,,,,,,,,,,,,,,,,,,,,,,,,,,,,,,,,,,,,,,,,,,,,,,
,,,,,,,,,,stimuli/images/PICTURE_68.png,ROOF,5f3575a9994ab95447c9b16a,06/08/1993,2020-08-27_18h23.57.208,proactive3.1,2020.1.2,Win32,60,5f47c29a48bd2a1e651a6eb7,5f47ec1283588023feca3db5,4,,,,,,candle,,,,,,0,36,36,38,1,4,1,,,,,,,,,,,,,,,,,,,,,,,,,,,,,,,,,,,,,,,,,,,,,,,,,,,,,,,,,,,,,,,,,,,,,,,,,,,,,,,,,,,,,,,,,,,,,,,,,,,,,,,,,,,,,
,,,,,,,,,,stimuli/images/PICTURE_233.png,LOTS,5f3575a9994ab95447c9b16a,06/08/1993,2020-08-27_18h23.57.208,proactive3.1,2020.1.2,Win32,60,5f47c29a48bd2a1e651a6eb7,5f47ec1283588023feca3db5,4,,,,,,salt,,,,,,0,37,37,42,1,5,1,,,,,,,,,,,,,,,,,,,,,,,,,,,,,,,,,,,,,,,,,,,,,,,,,,,,,,,,,,,,,,,,,,,,,,,,,,,,,,,,,,,,,,,,,,,,,,,,,,,,,,,,,,,,,
,,,,,,,,,,stimuli/images/PICTURE_85.png,TOILET,5f3575a9994ab95447c9b16a,06/08/1993,2020-08-27_18h23.57.208,proactive3.1,2020.1.2,Win32,60,5f47c29a48bd2a1e651a6eb7,5f47ec1283588023feca3db5,4,,,,,,diamond,,,,,,0,38,38,48,1,5,1,,,,,,,,,,,,,,,,,,,,,,,,,,,,,,,,,,,,,,,,,,,,,,,,,,,,,,,,,,,,,,,,,,,,,,,,,,,,,,,,,,,,,,,,,,,,,,,,,,,,,,,,,,,,,
