consent_key.keys,consent_key.rt,recalled,recalled_rt,recall_acc,example_recall.thisRepN,example_recall.thisTrialN,example_recall.thisN,example_recall.thisIndex,example_recall.ran,file,word,participant,please enter your date of birth (dd/mm/yyyy),date,expName,psychopyVersion,OS,frameRate,STUDY_ID,SESSION_ID,list,prac_learn_study_loop.thisRepN,prac_learn_study_loop.thisTrialN,prac_learn_study_loop.thisN,prac_learn_study_loop.thisIndex,prac_learn_study_loop.ran,image,prac_learn_test_loop.thisRepN,prac_learn_test_loop.thisTrialN,prac_learn_test_loop.thisN,prac_learn_test_loop.thisIndex,prac_learn_test_loop.ran,learn_study_loop.thisRepN,learn_study_loop.thisTrialN,learn_study_loop.thisN,learn_study_loop.thisIndex,learn_study_loop.ran,list_no,block_no,learn_test_loop.thisRepN,learn_test_loop.thisTrialN,learn_test_loop.thisN,learn_test_loop.thisIndex,learn_test_loop.ran,learn_blocks.thisRepN,learn_blocks.thisTrialN,learn_blocks.thisN,learn_blocks.thisIndex,learn_blocks.ran,block_csv,key_resp_13.keys,key_resp_13.rt,learn_blocks_loop.thisRepN,learn_blocks_loop.thisTrialN,learn_blocks_loop.thisN,learn_blocks_loop.thisIndex,learn_blocks_loop.ran,final_learn_test.thisRepN,final_learn_test.thisTrialN,final_learn_test.thisN,final_learn_test.thisIndex,final_learn_test.ran,s_im1,s_im2,s_im3,s_im4,s_im5,s_im6,s_im7,s_im8,s_im1pos,s_im2pos,s_im3pos,s_im4pos,s_im5pos,s_im6pos,s_im7pos,s_im8pos,s_tarright,search_resp.keys,search_loop.thisRepN,search_loop.thisTrialN,search_loop.thisN,search_loop.thisIndex,search_loop.ran,search_resp.rt,prac_wm_search_loop.thisRepN,prac_wm_search_loop.thisTrialN,prac_wm_search_loop.thisN,prac_wm_search_loop.thisIndex,prac_wm_search_loop.ran,prac_wm_test_loop.thisRepN,prac_wm_test_loop.thisTrialN,prac_wm_test_loop.thisN,prac_wm_test_loop.thisIndex,prac_wm_test_loop.ran,wm_recalled1,wm_recall_rt1,wm_probed1,wm_recall_acc1,wm_recalled2,wm_recall_rt2,wm_probed2,wm_recall_acc2,wm_recalled3,wm_recall_rt3,wm_probed3,wm_recall_acc3,wm_recalled4,wm_recall_rt4,wm_probed4,wm_recall_acc4,prac_wm_trial_loop.thisRepN,prac_wm_trial_loop.thisTrialN,prac_wm_trial_loop.thisN,prac_wm_trial_loop.thisIndex,prac_wm_trial_loop.ran,word1,image1,file1,item_type1,word2,image2,file2,item_type2,word4,image4,file4,item_type4,word3,image3,file3,item_type3,wm_search_loop.thisRepN,wm_search_loop.thisTrialN,wm_search_loop.thisN,wm_search_loop.thisIndex,wm_search_loop.ran,wm_test_loop.thisRepN,wm_test_loop.thisTrialN,wm_test_loop.thisN,wm_test_loop.thisIndex,wm_test_loop.ran,wm_trial_loop.thisRepN,wm_trial_loop.thisTrialN,wm_trial_loop.thisN,wm_trial_loop.thisIndex,wm_trial_loop.ran
y,2.6934,TOUGH,3.53426,1,0,0,0,0,1,stimuli/images/PICTURE_747.png,TOUGH,5f4565bdcd108b1460bd72f5,21/10/2001,2020-08-27_19h06.44.679,proactive3.1,2020.1.2,Win32,60,5f47c29a48bd2a1e651a6eb7,5f47f4e858dd3314a449b7a3,1,,,,,,,,,,,,,,,,,,,,,,,,,,,,,,,,,,,,,,,,,,,,,,,,,,,,,,,,,,,,,,,,,,,,,,,,,,,,,,,,,,,,,,,,,,,,,,,,,,,,,,,,,,,,,,,,,,,,,,,,,,,,,,,
,,,,,,,,,,stimuli/images/PICTURE_697.png,KILLER,5f4565bdcd108b1460bd72f5,21/10/2001,2020-08-27_19h06.44.679,proactive3.1,2020.1.2,Win32,60,5f47c29a48bd2a1e651a6eb7,5f47f4e858dd3314a449b7a3,1,0,0,0,4,1,peach,,,,,,,,,,,,,,,,,,,,,,,,,,,,,,,,,,,,,,,,,,,,,,,,,,,,,,,,,,,,,,,,,,,,,,,,,,,,,,,,,,,,,,,,,,,,,,,,,,,,,,,,,,,,,,,,,,,,,,,,,
,,,,,,,,,,stimuli/images/PICTURE_727.png,CELL,5f4565bdcd108b1460bd72f5,21/10/2001,2020-08-27_19h06.44.679,proactive3.1,2020.1.2,Win32,60,5f47c29a48bd2a1e651a6eb7,5f47f4e858dd3314a449b7a3,1,0,1,1,1,1,hose,,,,,,,,,,,,,,,,,,,,,,,,,,,,,,,,,,,,,,,,,,,,,,,,,,,,,,,,,,,,,,,,,,,,,,,,,,,,,,,,,,,,,,,,,,,,,,,,,,,,,,,,,,,,,,,,,,,,,,,,,
,,,,,,,,,,stimuli/images/PICTURE_378.png,LOSS,5f4565bdcd108b1460bd72f5,21/10/2001,2020-08-27_19h06.44.679,proactive3.1,2020.1.2,Win32,60,5f47c29a48bd2a1e651a6eb7,5f47f4e858dd3314a449b7a3,1,0,2,2,2,1,lobster,,,,,,,,,,,,,,,,,,,,,,,,,,,,,,,,,,,,,,,,,,,,,,,,,,,,,,,,,,,,,,,,,,,,,,,,,,,,,,,,,,,,,,,,,,,,,,,,,,,,,,,,,,,,,,,,,,,,,,,,,
,,,,,,,,,,stimuli/images/PICTURE_658.png,DEVIL,5f4565bdcd108b1460bd72f5,21/10/2001,2020-08-27_19h06.44.679,proactive3.1,2020.1.2,Win32,60,5f47c29a48bd2a1e651a6eb7,5f47f4e858dd3314a449b7a3,1,0,3,3,3,1,crow,,,,,,,,,,,,,,,,,,,,,,,,,,,,,,,,,,,,,,,,,,,,,,,,,,,,,,,,,,,,,,,,,,,,,,,,,,,,,,,,,,,,,,,,,,,,,,,,,,,,,,,,,,,,,,,,,,,,,,,,,
,,CELL,3.915765,1,,,,,,stimuli/images/PICTURE_727.png,CELL,5f4565bdcd108b1460bd72f5,21/10/2001,2020-08-27_19h06.44.679,proactive3.1,2020.1.2,Win32,60,5f47c29a48bd2a1e651a6eb7,5f47f4e858dd3314a449b7a3,1,,,,,,hose,0,0,0,1,1,,,,,,,,,,,,,,,,,,,,,,,,,,,,,,,,,,,,,,,,,,,,,,,,,,,,,,,,,,,,,,,,,,,,,,,,,,,,,,,,,,,,,,,,,,,,,,,,,,,,,,,,,,,,,,,,,,,,
,,LOSS,1.47064,1,,,,,,stimuli/images/PICTURE_378.png,LOSS,5f4565bdcd108b1460bd72f5,21/10/2001,2020-08-27_19h06.44.679,proactive3.1,2020.1.2,Win32,60,5f47c29a48bd2a1e651a6eb7,5f47f4e858dd3314a449b7a3,1,,,,,,lobster,0,1,1,2,1,,,,,,,,,,,,,,,,,,,,,,,,,,,,,,,,,,,,,,,,,,,,,,,,,,,,,,,,,,,,,,,,,,,,,,,,,,,,,,,,,,,,,,,,,,,,,,,,,,,,,,,,,,,,,,,,,,,,
,,GENIUS,2.730835,1,,,,,,stimuli/images/PICTURE_269.png,GENIUS,5f4565bdcd108b1460bd72f5,21/10/2001,2020-08-27_19h06.44.679,proactive3.1,2020.1.2,Win32,60,5f47c29a48bd2a1e651a6eb7,5f47f4e858dd3314a449b7a3,1,,,,,,chameleon,0,2,2,0,1,,,,,,,,,,,,,,,,,,,,,,,,,,,,,,,,,,,,,,,,,,,,,,,,,,,,,,,,,,,,,,,,,,,,,,,,,,,,,,,,,,,,,,,,,,,,,,,,,,,,,,,,,,,,,,,,,,,,
,,KILLER,2.09648,1,,,,,,stimuli/images/PICTURE_697.png,KILLER,5f4565bdcd108b1460bd72f5,21/10/2001,2020-08-27_19h06.44.679,proactive3.1,2020.1.2,Win32,60,5f47c29a48bd2a1e651a6eb7,5f47f4e858dd3314a449b7a3,1,,,,,,peach,0,3,3,4,1,,,,,,,,,,,,,,,,,,,,,,,,,,,,,,,,,,,,,,,,,,,,,,,,,,,,,,,,,,,,,,,,,,,,,,,,,,,,,,,,,,,,,,,,,,,,,,,,,,,,,,,,,,,,,,,,,,,,
,,KETTLE,12.18691,0,,,,,,stimuli/images/PICTURE_658.png,DEVIL,5f4565bdcd108b1460bd72f5,21/10/2001,2020-08-27_19h06.44.679,proactive3.1,2020.1.2,Win32,60,5f47c29a48bd2a1e651a6eb7,5f47f4e858dd3314a449b7a3,1,,,,,,crow,0,4,4,3,1,,,,,,,,,,,,,,,,,,,,,,,,,,,,,,,,,,,,,,,,,,,,,,,,,,,,,,,,,,,,,,,,,,,,,,,,,,,,,,,,,,,,,,,,,,,,,,,,,,,,,,,,,,,,,,,,,,,,
,,,,,,,,,,stimuli/images/PICTURE_708.png,CLIENT,5f4565bdcd108b1460bd72f5,21/10/2001,2020-08-27_19h06.44.679,proactive3.1,2020.1.2,Win32,60,5f47c29a48bd2a1e651a6eb7,5f47f4e858dd3314a449b7a3,1,,,,,,monkey,,,,,,0,0,0,5,1,1,0,,,,,,,,,,,,,,,,,,,,,,,,,,,,,,,,,,,,,,,,,,,,,,,,,,,,,,,,,,,,,,,,,,,,,,,,,,,,,,,,,,,,,,,,,,,,,,,,,,,,,,,,,,,,,
,,,,,,,,,,stimuli/images/PICTURE_95.png,STYLE,5f4565bdcd108b1460bd72f5,21/10/2001,2020-08-27_19h06.44.679,proactive3.1,2020.1.2,Win32,60,5f47c29a48bd2a1e651a6eb7,5f47f4e858dd3314a449b7a3,1,,,,,,suitcase,,,,,,0,1,1,25,1,3,0,,,,,,,,,,,,,,,,,,,,,,,,,,,,,,,,,,,,,,,,,,,,,,,,,,,,,,,,,,,,,,,,,,,,,,,,,,,,,,,,,,,,,,,,,,,,,,,,,,,,,,,,,,,,,
,,,,,,,,,,stimuli/images/PICTURE_177.png,CARS,5f4565bdcd108b1460bd72f5,21/10/2001,2020-08-27_19h06.44.679,proactive3.1,2020.1.2,Win32,60,5f47c29a48bd2a1e651a6eb7,5f47f4e858dd3314a449b7a3,1,,,,,,mushroom,,,,,,0,2,2,35,1,4,0,,,,,,,,,,,,,,,,,,,,,,,,,,,,,,,,,,,,,,,,,,,,,,,,,,,,,,,,,,,,,,,,,,,,,,,,,,,,,,,,,,,,,,,,,,,,,,,,,,,,,,,,,,,,,
,,,,,,,,,,stimuli/images/PICTURE_215.png,PLENTY,5f4565bdcd108b1460bd72f5,21/10/2001,2020-08-27_19h06.44.679,proactive3.1,2020.1.2,Win32,60,5f47c29a48bd2a1e651a6eb7,5f47f4e858dd3314a449b7a3,1,,,,,,boot,,,,,,0,3,3,37,1,4,0,,,,,,,,,,,,,,,,,,,,,,,,,,,,,,,,,,,,,,,,,,,,,,,,,,,,,,,,,,,,,,,,,,,,,,,,,,,,,,,,,,,,,,,,,,,,,,,,,,,,,,,,,,,,,
,,,,,,,,,,stimuli/images/PICTURE_744.png,SAKE,5f4565bdcd108b1460bd72f5,21/10/2001,2020-08-27_19h06.44.679,proactive3.1,2020.1.2,Win32,60,5f47c29a48bd2a1e651a6eb7,5f47f4e858dd3314a449b7a3,1,,,,,,ring,,,,,,0,4,4,17,1,2,0,,,,,,,,,,,,,,,,,,,,,,,,,,,,,,,,,,,,,,,,,,,,,,,,,,,,,,,,,,,,,,,,,,,,,,,,,,,,,,,,,,,,,,,,,,,,,,,,,,,,,,,,,,,,,
,,,,,,,,,,stimuli/images/PICTURE_248.png,DOZEN,5f4565bdcd108b1460bd72f5,21/10/2001,2020-08-27_19h06.44.679,proactive3.1,2020.1.2,Win32,60,5f47c29a48bd2a1e651a6eb7,5f47f4e858dd3314a449b7a3,1,,,,,,cart,,,,,,0,5,5,39,1,4,0,,,,,,,,,,,,,,,,,,,,,,,,,,,,,,,,,,,,,,,,,,,,,,,,,,,,,,,,,,,,,,,,,,,,,,,,,,,,,,,,,,,,,,,,,,,,,,,,,,,,,,,,,,,,,
,,,,,,,,,,stimuli/images/PICTURE_311.png,BEAUTY,5f4565bdcd108b1460bd72f5,21/10/2001,2020-08-27_19h06.44.679,proactive3.1,2020.1.2,Win32,60,5f47c29a48bd2a1e651a6eb7,5f47f4e858dd3314a449b7a3,1,,,,,,razor,,,,,,0,6,6,13,1,2,0,,,,,,,,,,,,,,,,,,,,,,,,,,,,,,,,,,,,,,,,,,,,,,,,,,,,,,,,,,,,,,,,,,,,,,,,,,,,,,,,,,,,,,,,,,,,,,,,,,,,,,,,,,,,,
,,,,,,,,,,stimuli/images/PICTURE_160.png,LEADER,5f4565bdcd108b1460bd72f5,21/10/2001,2020-08-27_19h06.44.679,proactive3.1,2020.1.2,Win32,60,5f47c29a48bd2a1e651a6eb7,5f47f4e858dd3314a449b7a3,1,,,,,,wheelbarrow,,,,,,0,7,7,3,1,1,0,,,,,,,,,,,,,,,,,,,,,,,,,,,,,,,,,,,,,,,,,,,,,,,,,,,,,,,,,,,,,,,,,,,,,,,,,,,,,,,,,,,,,,,,,,,,,,,,,,,,,,,,,,,,,
,,,,,,,,,,stimuli/images/PICTURE_123.png,ADVICE,5f4565bdcd108b1460bd72f5,21/10/2001,2020-08-27_19h06.44.679,proactive3.1,2020.1.2,Win32,60,5f47c29a48bd2a1e651a6eb7,5f47f4e858dd3314a449b7a3,1,,,,,,dart,,,,,,0,8,8,50,1,6,0,,,,,,,,,,,,,,,,,,,,,,,,,,,,,,,,,,,,,,,,,,,,,,,,,,,,,,,,,,,,,,,,,,,,,,,,,,,,,,,,,,,,,,,,,,,,,,,,,,,,,,,,,,,,,
,,,,,,,,,,stimuli/images/PICTURE_677.png,MILE,5f4565bdcd108b1460bd72f5,21/10/2001,2020-08-27_19h06.44.679,proactive3.1,2020.1.2,Win32,60,5f47c29a48bd2a1e651a6eb7,5f47f4e858dd3314a449b7a3,1,,,,,,map,,,,,,0,9,9,30,1,4,0,,,,,,,,,,,,,,,,,,,,,,,,,,,,,,,,,,,,,,,,,,,,,,,,,,,,,,,,,,,,,,,,,,,,,,,,,,,,,,,,,,,,,,,,,,,,,,,,,,,,,,,,,,,,,
,,,,,,,,,,stimuli/images/PICTURE_380.png,PHOTO,5f4565bdcd108b1460bd72f5,21/10/2001,2020-08-27_19h06.44.679,proactive3.1,2020.1.2,Win32,60,5f47c29a48bd2a1e651a6eb7,5f47f4e858dd3314a449b7a3,1,,,,,,gorilla,,,,,,0,10,10,52,1,6,0,,,,,,,,,,,,,,,,,,,,,,,,,,,,,,,,,,,,,,,,,,,,,,,,,,,,,,,,,,,,,,,,,,,,,,,,,,,,,,,,,,,,,,,,,,,,,,,,,,,,,,,,,,,,,
,,,,,,,,,,stimuli/images/PICTURE_487.png,FLIGHT,5f4565bdcd108b1460bd72f5,21/10/2001,2020-08-27_19h06.44.679,proactive3.1,2020.1.2,Win32,60,5f47c29a48bd2a1e651a6eb7,5f47f4e858dd3314a449b7a3,1,,,,,,basket,,,,,,0,11,11,9,1,1,0,,,,,,,,,,,,,,,,,,,,,,,,,,,,,,,,,,,,,,,,,,,,,,,,,,,,,,,,,,,,,,,,,,,,,,,,,,,,,,,,,,,,,,,,,,,,,,,,,,,,,,,,,,,,,
,,,,,,,,,,stimuli/images/PICTURE_488.png,STYLE,5f4565bdcd108b1460bd72f5,21/10/2001,2020-08-27_19h06.44.679,proactive3.1,2020.1.2,Win32,60,5f47c29a48bd2a1e651a6eb7,5f47f4e858dd3314a449b7a3,1,,,,,,sun,,,,,,0,12,12,33,1,4,0,,,,,,,,,,,,,,,,,,,,,,,,,,,,,,,,,,,,,,,,,,,,,,,,,,,,,,,,,,,,,,,,,,,,,,,,,,,,,,,,,,,,,,,,,,,,,,,,,,,,,,,,,,,,,
,,,,,,,,,,stimuli/images/PICTURE_160.png,FEET,5f4565bdcd108b1460bd72f5,21/10/2001,2020-08-27_19h06.44.679,proactive3.1,2020.1.2,Win32,60,5f47c29a48bd2a1e651a6eb7,5f47f4e858dd3314a449b7a3,1,,,,,,wheelbarrow,,,,,,0,13,13,58,1,6,0,,,,,,,,,,,,,,,,,,,,,,,,,,,,,,,,,,,,,,,,,,,,,,,,,,,,,,,,,,,,,,,,,,,,,,,,,,,,,,,,,,,,,,,,,,,,,,,,,,,,,,,,,,,,,
,,,,,,,,,,stimuli/images/PICTURE_314.png,SAKE,5f4565bdcd108b1460bd72f5,21/10/2001,2020-08-27_19h06.44.679,proactive3.1,2020.1.2,Win32,60,5f47c29a48bd2a1e651a6eb7,5f47f4e858dd3314a449b7a3,1,,,,,,perfume,,,,,,0,14,14,7,1,1,0,,,,,,,,,,,,,,,,,,,,,,,,,,,,,,,,,,,,,,,,,,,,,,,,,,,,,,,,,,,,,,,,,,,,,,,,,,,,,,,,,,,,,,,,,,,,,,,,,,,,,,,,,,,,,
,,,,,,,,,,stimuli/images/PICTURE_380.png,DEATH,5f4565bdcd108b1460bd72f5,21/10/2001,2020-08-27_19h06.44.679,proactive3.1,2020.1.2,Win32,60,5f47c29a48bd2a1e651a6eb7,5f47f4e858dd3314a449b7a3,1,,,,,,gorilla,,,,,,0,15,15,49,1,5,0,,,,,,,,,,,,,,,,,,,,,,,,,,,,,,,,,,,,,,,,,,,,,,,,,,,,,,,,,,,,,,,,,,,,,,,,,,,,,,,,,,,,,,,,,,,,,,,,,,,,,,,,,,,,,
,,,,,,,,,,stimuli/images/PICTURE_208.png,MONTH,5f4565bdcd108b1460bd72f5,21/10/2001,2020-08-27_19h06.44.679,proactive3.1,2020.1.2,Win32,60,5f47c29a48bd2a1e651a6eb7,5f47f4e858dd3314a449b7a3,1,,,,,,microphone,,,,,,0,16,16,53,1,6,0,,,,,,,,,,,,,,,,,,,,,,,,,,,,,,,,,,,,,,,,,,,,,,,,,,,,,,,,,,,,,,,,,,,,,,,,,,,,,,,,,,,,,,,,,,,,,,,,,,,,,,,,,,,,,
,,,,,,,,,,stimuli/images/PICTURE_255.png,AREA,5f4565bdcd108b1460bd72f5,21/10/2001,2020-08-27_19h06.44.679,proactive3.1,2020.1.2,Win32,60,5f47c29a48bd2a1e651a6eb7,5f47f4e858dd3314a449b7a3,1,,,,,,shovel,,,,,,0,17,17,22,1,3,0,,,,,,,,,,,,,,,,,,,,,,,,,,,,,,,,,,,,,,,,,,,,,,,,,,,,,,,,,,,,,,,,,,,,,,,,,,,,,,,,,,,,,,,,,,,,,,,,,,,,,,,,,,,,,
,,,,,,,,,,stimuli/images/PICTURE_504.png,BODY,5f4565bdcd108b1460bd72f5,21/10/2001,2020-08-27_19h06.44.679,proactive3.1,2020.1.2,Win32,60,5f47c29a48bd2a1e651a6eb7,5f47f4e858dd3314a449b7a3,1,,,,,,wheel,,,,,,0,18,18,8,1,1,0,,,,,,,,,,,,,,,,,,,,,,,,,,,,,,,,,,,,,,,,,,,,,,,,,,,,,,,,,,,,,,,,,,,,,,,,,,,,,,,,,,,,,,,,,,,,,,,,,,,,,,,,,,,,,
,,,,,,,,,,stimuli/images/PICTURE_449.png,THING,5f4565bdcd108b1460bd72f5,21/10/2001,2020-08-27_19h06.44.679,proactive3.1,2020.1.2,Win32,60,5f47c29a48bd2a1e651a6eb7,5f47f4e858dd3314a449b7a3,1,,,,,,bench,,,,,,0,19,19,59,1,6,0,,,,,,,,,,,,,,,,,,,,,,,,,,,,,,,,,,,,,,,,,,,,,,,,,,,,,,,,,,,,,,,,,,,,,,,,,,,,,,,,,,,,,,,,,,,,,,,,,,,,,,,,,,,,,
,,,,,,,,,,stimuli/images/PICTURE_708.png,PENNY,5f4565bdcd108b1460bd72f5,21/10/2001,2020-08-27_19h06.44.679,proactive3.1,2020.1.2,Win32,60,5f47c29a48bd2a1e651a6eb7,5f47f4e858dd3314a449b7a3,1,,,,,,monkey,,,,,,0,20,20,31,1,4,0,,,,,,,,,,,,,,,,,,,,,,,,,,,,,,,,,,,,,,,,,,,,,,,,,,,,,,,,,,,,,,,,,,,,,,,,,,,,,,,,,,,,,,,,,,,,,,,,,,,,,,,,,,,,,
,,,,,,,,,,stimuli/images/PICTURE_308.png,ESTATE,5f4565bdcd108b1460bd72f5,21/10/2001,2020-08-27_19h06.44.679,proactive3.1,2020.1.2,Win32,60,5f47c29a48bd2a1e651a6eb7,5f47f4e858dd3314a449b7a3,1,,,,,,dice,,,,,,0,21,21,46,1,5,0,,,,,,,,,,,,,,,,,,,,,,,,,,,,,,,,,,,,,,,,,,,,,,,,,,,,,,,,,,,,,,,,,,,,,,,,,,,,,,,,,,,,,,,,,,,,,,,,,,,,,,,,,,,,,
,,,,,,,,,,stimuli/images/PICTURE_32.png,JUNGLE,5f4565bdcd108b1460bd72f5,21/10/2001,2020-08-27_19h06.44.679,proactive3.1,2020.1.2,Win32,60,5f47c29a48bd2a1e651a6eb7,5f47f4e858dd3314a449b7a3,1,,,,,,crown,,,,,,0,22,22,45,1,5,0,,,,,,,,,,,,,,,,,,,,,,,,,,,,,,,,,,,,,,,,,,,,,,,,,,,,,,,,,,,,,,,,,,,,,,,,,,,,,,,,,,,,,,,,,,,,,,,,,,,,,,,,,,,,,
,,,,,,,,,,stimuli/images/PICTURE_491.png,ROOF,5f4565bdcd108b1460bd72f5,21/10/2001,2020-08-27_19h06.44.679,proactive3.1,2020.1.2,Win32,60,5f47c29a48bd2a1e651a6eb7,5f47f4e858dd3314a449b7a3,1,,,,,,rug,,,,,,0,23,23,24,1,3,0,,,,,,,,,,,,,,,,,,,,,,,,,,,,,,,,,,,,,,,,,,,,,,,,,,,,,,,,,,,,,,,,,,,,,,,,,,,,,,,,,,,,,,,,,,,,,,,,,,,,,,,,,,,,,
,,,,,,,,,,stimuli/images/PICTURE_327.png,BEAUTY,5f4565bdcd108b1460bd72f5,21/10/2001,2020-08-27_19h06.44.679,proactive3.1,2020.1.2,Win32,60,5f47c29a48bd2a1e651a6eb7,5f47f4e858dd3314a449b7a3,1,,,,,,helmet,,,,,,0,24,24,48,1,5,0,,,,,,,,,,,,,,,,,,,,,,,,,,,,,,,,,,,,,,,,,,,,,,,,,,,,,,,,,,,,,,,,,,,,,,,,,,,,,,,,,,,,,,,,,,,,,,,,,,,,,,,,,,,,,
,,,,,,,,,,stimuli/images/PICTURE_233.png,IDEAS,5f4565bdcd108b1460bd72f5,21/10/2001,2020-08-27_19h06.44.679,proactive3.1,2020.1.2,Win32,60,5f47c29a48bd2a1e651a6eb7,5f47f4e858dd3314a449b7a3,1,,,,,,salt,,,,,,0,25,25,28,1,3,0,,,,,,,,,,,,,,,,,,,,,,,,,,,,,,,,,,,,,,,,,,,,,,,,,,,,,,,,,,,,,,,,,,,,,,,,,,,,,,,,,,,,,,,,,,,,,,,,,,,,,,,,,,,,,
,,,,,,,,,,stimuli/images/PICTURE_356.png,DANGER,5f4565bdcd108b1460bd72f5,21/10/2001,2020-08-27_19h06.44.679,proactive3.1,2020.1.2,Win32,60,5f47c29a48bd2a1e651a6eb7,5f47f4e858dd3314a449b7a3,1,,,,,,pawn,,,,,,0,26,26,55,1,6,0,,,,,,,,,,,,,,,,,,,,,,,,,,,,,,,,,,,,,,,,,,,,,,,,,,,,,,,,,,,,,,,,,,,,,,,,,,,,,,,,,,,,,,,,,,,,,,,,,,,,,,,,,,,,,
,,,,,,,,,,stimuli/images/PICTURE_469.png,ARTIST,5f4565bdcd108b1460bd72f5,21/10/2001,2020-08-27_19h06.44.679,proactive3.1,2020.1.2,Win32,60,5f47c29a48bd2a1e651a6eb7,5f47f4e858dd3314a449b7a3,1,,,,,,stool,,,,,,0,27,27,6,1,1,0,,,,,,,,,,,,,,,,,,,,,,,,,,,,,,,,,,,,,,,,,,,,,,,,,,,,,,,,,,,,,,,,,,,,,,,,,,,,,,,,,,,,,,,,,,,,,,,,,,,,,,,,,,,,,
,,,,,,,,,,stimuli/images/PICTURE_308.png,KIND,5f4565bdcd108b1460bd72f5,21/10/2001,2020-08-27_19h06.44.679,proactive3.1,2020.1.2,Win32,60,5f47c29a48bd2a1e651a6eb7,5f47f4e858dd3314a449b7a3,1,,,,,,dice,,,,,,0,28,28,54,1,6,0,,,,,,,,,,,,,,,,,,,,,,,,,,,,,,,,,,,,,,,,,,,,,,,,,,,,,,,,,,,,,,,,,,,,,,,,,,,,,,,,,,,,,,,,,,,,,,,,,,,,,,,,,,,,,
,,,,,,,,,,stimuli/images/PICTURE_203.png,ARTIST,5f4565bdcd108b1460bd72f5,21/10/2001,2020-08-27_19h06.44.679,proactive3.1,2020.1.2,Win32,60,5f47c29a48bd2a1e651a6eb7,5f47f4e858dd3314a449b7a3,1,,,,,,cap,,,,,,0,29,29,26,1,3,0,,,,,,,,,,,,,,,,,,,,,,,,,,,,,,,,,,,,,,,,,,,,,,,,,,,,,,,,,,,,,,,,,,,,,,,,,,,,,,,,,,,,,,,,,,,,,,,,,,,,,,,,,,,,,
,,,,,,,,,,stimuli/images/PICTURE_692.png,MONTH,5f4565bdcd108b1460bd72f5,21/10/2001,2020-08-27_19h06.44.679,proactive3.1,2020.1.2,Win32,60,5f47c29a48bd2a1e651a6eb7,5f47f4e858dd3314a449b7a3,1,,,,,,cherry,,,,,,0,30,30,16,1,2,0,,,,,,,,,,,,,,,,,,,,,,,,,,,,,,,,,,,,,,,,,,,,,,,,,,,,,,,,,,,,,,,,,,,,,,,,,,,,,,,,,,,,,,,,,,,,,,,,,,,,,,,,,,,,,
,,,,,,,,,,stimuli/images/PICTURE_339.png,PLENTY,5f4565bdcd108b1460bd72f5,21/10/2001,2020-08-27_19h06.44.679,proactive3.1,2020.1.2,Win32,60,5f47c29a48bd2a1e651a6eb7,5f47f4e858dd3314a449b7a3,1,,,,,,backpack,,,,,,0,31,31,0,1,1,0,,,,,,,,,,,,,,,,,,,,,,,,,,,,,,,,,,,,,,,,,,,,,,,,,,,,,,,,,,,,,,,,,,,,,,,,,,,,,,,,,,,,,,,,,,,,,,,,,,,,,,,,,,,,,
,,,,,,,,,,stimuli/images/PICTURE_233.png,WOMEN,5f4565bdcd108b1460bd72f5,21/10/2001,2020-08-27_19h06.44.679,proactive3.1,2020.1.2,Win32,60,5f47c29a48bd2a1e651a6eb7,5f47f4e858dd3314a449b7a3,1,,,,,,salt,,,,,,0,32,32,38,1,4,0,,,,,,,,,,,,,,,,,,,,,,,,,,,,,,,,,,,,,,,,,,,,,,,,,,,,,,,,,,,,,,,,,,,,,,,,,,,,,,,,,,,,,,,,,,,,,,,,,,,,,,,,,,,,,
,,,,,,,,,,stimuli/images/PICTURE_654.png,VALLEY,5f4565bdcd108b1460bd72f5,21/10/2001,2020-08-27_19h06.44.679,proactive3.1,2020.1.2,Win32,60,5f47c29a48bd2a1e651a6eb7,5f47f4e858dd3314a449b7a3,1,,,,,,pencil,,,,,,0,33,33,1,1,1,0,,,,,,,,,,,,,,,,,,,,,,,,,,,,,,,,,,,,,,,,,,,,,,,,,,,,,,,,,,,,,,,,,,,,,,,,,,,,,,,,,,,,,,,,,,,,,,,,,,,,,,,,,,,,,
,,,,,,,,,,stimuli/images/PICTURE_348.png,SPEECH,5f4565bdcd108b1460bd72f5,21/10/2001,2020-08-27_19h06.44.679,proactive3.1,2020.1.2,Win32,60,5f47c29a48bd2a1e651a6eb7,5f47f4e858dd3314a449b7a3,1,,,,,,pepper,,,,,,0,34,34,20,1,3,0,,,,,,,,,,,,,,,,,,,,,,,,,,,,,,,,,,,,,,,,,,,,,,,,,,,,,,,,,,,,,,,,,,,,,,,,,,,,,,,,,,,,,,,,,,,,,,,,,,,,,,,,,,,,,
,,,,,,,,,,stimuli/images/PICTURE_123.png,ADVICE,5f4565bdcd108b1460bd72f5,21/10/2001,2020-08-27_19h06.44.679,proactive3.1,2020.1.2,Win32,60,5f47c29a48bd2a1e651a6eb7,5f47f4e858dd3314a449b7a3,1,,,,,,dart,,,,,,0,35,35,40,1,5,0,,,,,,,,,,,,,,,,,,,,,,,,,,,,,,,,,,,,,,,,,,,,,,,,,,,,,,,,,,,,,,,,,,,,,,,,,,,,,,,,,,,,,,,,,,,,,,,,,,,,,,,,,,,,,
,,,,,,,,,,stimuli/images/PICTURE_744.png,SYSTEM,5f4565bdcd108b1460bd72f5,21/10/2001,2020-08-27_19h06.44.679,proactive3.1,2020.1.2,Win32,60,5f47c29a48bd2a1e651a6eb7,5f47f4e858dd3314a449b7a3,1,,,,,,ring,,,,,,0,36,36,43,1,5,0,,,,,,,,,,,,,,,,,,,,,,,,,,,,,,,,,,,,,,,,,,,,,,,,,,,,,,,,,,,,,,,,,,,,,,,,,,,,,,,,,,,,,,,,,,,,,,,,,,,,,,,,,,,,,
,,,,,,,,,,stimuli/images/PICTURE_708.png,YARD,5f4565bdcd108b1460bd72f5,21/10/2001,2020-08-27_19h06.44.679,proactive3.1,2020.1.2,Win32,60,5f47c29a48bd2a1e651a6eb7,5f47f4e858dd3314a449b7a3,1,,,,,,monkey,,,,,,0,37,37,29,1,3,0,,,,,,,,,,,,,,,,,,,,,,,,,,,,,,,,,,,,,,,,,,,,,,,,,,,,,,,,,,,,,,,,,,,,,,,,,,,,,,,,,,,,,,,,,,,,,,,,,,,,,,,,,,,,,
,,,,,,,,,,stimuli/images/PICTURE_208.png,THING,5f4565bdcd108b1460bd72f5,21/10/2001,2020-08-27_19h06.44.679,proactive3.1,2020.1.2,Win32,60,5f47c29a48bd2a1e651a6eb7,5f47f4e858dd3314a449b7a3,1,,,,,,microphone,,,,,,0,38,38,47,1,5,0,,,,,,,,,,,,,,,,,,,,,,,,,,,,,,,,,,,,,,,,,,,,,,,,,,,,,,,,,,,,,,,,,,,,,,,,,,,,,,,,,,,,,,,,,,,,,,,,,,,,,,,,,,,,,
,,,,,,,,,,stimuli/images/PICTURE_667.png,BATH,5f4565bdcd108b1460bd72f5,21/10/2001,2020-08-27_19h06.44.679,proactive3.1,2020.1.2,Win32,60,5f47c29a48bd2a1e651a6eb7,5f47f4e858dd3314a449b7a3,1,,,,,,daisy,,,,,,0,39,39,4,1,1,0,,,,,,,,,,,,,,,,,,,,,,,,,,,,,,,,,,,,,,,,,,,,,,,,,,,,,,,,,,,,,,,,,,,,,,,,,,,,,,,,,,,,,,,,,,,,,,,,,,,,,,,,,,,,,
,,,,,,,,,,stimuli/images/PICTURE_147.png,MOMENT,5f4565bdcd108b1460bd72f5,21/10/2001,2020-08-27_19h06.44.679,proactive3.1,2020.1.2,Win32,60,5f47c29a48bd2a1e651a6eb7,5f47f4e858dd3314a449b7a3,1,,,,,,hanger,,,,,,0,40,40,51,1,6,0,,,,,,,,,,,,,,,,,,,,,,,,,,,,,,,,,,,,,,,,,,,,,,,,,,,,,,,,,,,,,,,,,,,,,,,,,,,,,,,,,,,,,,,,,,,,,,,,,,,,,,,,,,,,,
,,,,,,,,,,stimuli/images/PICTURE_470.png,CASINO,5f4565bdcd108b1460bd72f5,21/10/2001,2020-08-27_19h06.44.679,proactive3.1,2020.1.2,Win32,60,5f47c29a48bd2a1e651a6eb7,5f47f4e858dd3314a449b7a3,1,,,,,,motorbike,,,,,,0,41,41,36,1,4,0,,,,,,,,,,,,,,,,,,,,,,,,,,,,,,,,,,,,,,,,,,,,,,,,,,,,,,,,,,,,,,,,,,,,,,,,,,,,,,,,,,,,,,,,,,,,,,,,,,,,,,,,,,,,,
,,,,,,,,,,stimuli/images/PICTURE_509.png,PHOTO,5f4565bdcd108b1460bd72f5,21/10/2001,2020-08-27_19h06.44.679,proactive3.1,2020.1.2,Win32,60,5f47c29a48bd2a1e651a6eb7,5f47f4e858dd3314a449b7a3,1,,,,,,telephone,,,,,,0,42,42,21,1,3,0,,,,,,,,,,,,,,,,,,,,,,,,,,,,,,,,,,,,,,,,,,,,,,,,,,,,,,,,,,,,,,,,,,,,,,,,,,,,,,,,,,,,,,,,,,,,,,,,,,,,,,,,,,,,,
,,,,,,,,,,stimuli/images/PICTURE_85.png,THING,5f4565bdcd108b1460bd72f5,21/10/2001,2020-08-27_19h06.44.679,proactive3.1,2020.1.2,Win32,60,5f47c29a48bd2a1e651a6eb7,5f47f4e858dd3314a449b7a3,1,,,,,,diamond,,,,,,0,43,43,15,1,2,0,,,,,,,,,,,,,,,,,,,,,,,,,,,,,,,,,,,,,,,,,,,,,,,,,,,,,,,,,,,,,,,,,,,,,,,,,,,,,,,,,,,,,,,,,,,,,,,,,,,,,,,,,,,,,
,,,,,,,,,,stimuli/images/PICTURE_667.png,PLENTY,5f4565bdcd108b1460bd72f5,21/10/2001,2020-08-27_19h06.44.679,proactive3.1,2020.1.2,Win32,60,5f47c29a48bd2a1e651a6eb7,5f47f4e858dd3314a449b7a3,1,,,,,,daisy,,,,,,0,44,44,41,1,5,0,,,,,,,,,,,,,,,,,,,,,,,,,,,,,,,,,,,,,,,,,,,,,,,,,,,,,,,,,,,,,,,,,,,,,,,,,,,,,,,,,,,,,,,,,,,,,,,,,,,,,,,,,,,,,
,,,,,,,,,,stimuli/images/PICTURE_285.png,ADVICE,5f4565bdcd108b1460bd72f5,21/10/2001,2020-08-27_19h06.44.679,proactive3.1,2020.1.2,Win32,60,5f47c29a48bd2a1e651a6eb7,5f47f4e858dd3314a449b7a3,1,,,,,,carrot,,,,,,0,45,45,12,1,2,0,,,,,,,,,,,,,,,,,,,,,,,,,,,,,,,,,,,,,,,,,,,,,,,,,,,,,,,,,,,,,,,,,,,,,,,,,,,,,,,,,,,,,,,,,,,,,,,,,,,,,,,,,,,,,
,,,,,,,,,,stimuli/images/PICTURE_688.png,CASINO,5f4565bdcd108b1460bd72f5,21/10/2001,2020-08-27_19h06.44.679,proactive3.1,2020.1.2,Win32,60,5f47c29a48bd2a1e651a6eb7,5f47f4e858dd3314a449b7a3,1,,,,,,runner,,,,,,0,46,46,2,1,1,0,,,,,,,,,,,,,,,,,,,,,,,,,,,,,,,,,,,,,,,,,,,,,,,,,,,,,,,,,,,,,,,,,,,,,,,,,,,,,,,,,,,,,,,,,,,,,,,,,,,,,,,,,,,,,
,,,,,,,,,,stimuli/images/PICTURE_675.png,WEAPON,5f4565bdcd108b1460bd72f5,21/10/2001,2020-08-27_19h06.44.679,proactive3.1,2020.1.2,Win32,60,5f47c29a48bd2a1e651a6eb7,5f47f4e858dd3314a449b7a3,1,,,,,,windmill,,,,,,0,47,47,32,1,4,0,,,,,,,,,,,,,,,,,,,,,,,,,,,,,,,,,,,,,,,,,,,,,,,,,,,,,,,,,,,,,,,,,,,,,,,,,,,,,,,,,,,,,,,,,,,,,,,,,,,,,,,,,,,,,
,,,,,,,,,,stimuli/images/PICTURE_311.png,FRIEND,5f4565bdcd108b1460bd72f5,21/10/2001,2020-08-27_19h06.44.679,proactive3.1,2020.1.2,Win32,60,5f47c29a48bd2a1e651a6eb7,5f47f4e858dd3314a449b7a3,1,,,,,,razor,,,,,,0,48,48,34,1,4,0,,,,,,,,,,,,,,,,,,,,,,,,,,,,,,,,,,,,,,,,,,,,,,,,,,,,,,,,,,,,,,,,,,,,,,,,,,,,,,,,,,,,,,,,,,,,,,,,,,,,,,,,,,,,,
,,,,,,,,,,stimuli/images/PICTURE_302.png,FAMILY,5f4565bdcd108b1460bd72f5,21/10/2001,2020-08-27_19h06.44.679,proactive3.1,2020.1.2,Win32,60,5f47c29a48bd2a1e651a6eb7,5f47f4e858dd3314a449b7a3,1,,,,,,taxi,,,,,,0,49,49,18,1,2,0,,,,,,,,,,,,,,,,,,,,,,,,,,,,,,,,,,,,,,,,,,,,,,,,,,,,,,,,,,,,,,,,,,,,,,,,,,,,,,,,,,,,,,,,,,,,,,,,,,,,,,,,,,,,,
,,,,,,,,,,stimuli/images/PICTURE_68.png,MILE,5f4565bdcd108b1460bd72f5,21/10/2001,2020-08-27_19h06.44.679,proactive3.1,2020.1.2,Win32,60,5f47c29a48bd2a1e651a6eb7,5f47f4e858dd3314a449b7a3,1,,,,,,candle,,,,,,0,50,50,44,1,5,0,,,,,,,,,,,,,,,,,,,,,,,,,,,,,,,,,,,,,,,,,,,,,,,,,,,,,,,,,,,,,,,,,,,,,,,,,,,,,,,,,,,,,,,,,,,,,,,,,,,,,,,,,,,,,
,,,,,,,,,,stimuli/images/PICTURE_314.png,GODS,5f4565bdcd108b1460bd72f5,21/10/2001,2020-08-27_19h06.44.679,proactive3.1,2020.1.2,Win32,60,5f47c29a48bd2a1e651a6eb7,5f47f4e858dd3314a449b7a3,1,,,,,,perfume,,,,,,0,51,51,11,1,2,0,,,,,,,,,,,,,,,,,,,,,,,,,,,,,,,,,,,,,,,,,,,,,,,,,,,,,,,,,,,,,,,,,,,,,,,,,,,,,,,,,,,,,,,,,,,,,,,,,,,,,,,,,,,,,
,,,,,,,,,,stimuli/images/PICTURE_467.png,DEMON,5f4565bdcd108b1460bd72f5,21/10/2001,2020-08-27_19h06.44.679,proactive3.1,2020.1.2,Win32,60,5f47c29a48bd2a1e651a6eb7,5f47f4e858dd3314a449b7a3,1,,,,,,peg,,,,,,0,52,52,23,1,3,0,,,,,,,,,,,,,,,,,,,,,,,,,,,,,,,,,,,,,,,,,,,,,,,,,,,,,,,,,,,,,,,,,,,,,,,,,,,,,,,,,,,,,,,,,,,,,,,,,,,,,,,,,,,,,
,,,,,,,,,,stimuli/images/PICTURE_688.png,WOMEN,5f4565bdcd108b1460bd72f5,21/10/2001,2020-08-27_19h06.44.679,proactive3.1,2020.1.2,Win32,60,5f47c29a48bd2a1e651a6eb7,5f47f4e858dd3314a449b7a3,1,,,,,,runner,,,,,,0,53,53,14,1,2,0,,,,,,,,,,,,,,,,,,,,,,,,,,,,,,,,,,,,,,,,,,,,,,,,,,,,,,,,,,,,,,,,,,,,,,,,,,,,,,,,,,,,,,,,,,,,,,,,,,,,,,,,,,,,,
,,,,,,,,,,stimuli/images/PICTURE_453.png,PLENTY,5f4565bdcd108b1460bd72f5,21/10/2001,2020-08-27_19h06.44.679,proactive3.1,2020.1.2,Win32,60,5f47c29a48bd2a1e651a6eb7,5f47f4e858dd3314a449b7a3,1,,,,,,scissors,,,,,,0,54,54,56,1,6,0,,,,,,,,,,,,,,,,,,,,,,,,,,,,,,,,,,,,,,,,,,,,,,,,,,,,,,,,,,,,,,,,,,,,,,,,,,,,,,,,,,,,,,,,,,,,,,,,,,,,,,,,,,,,,
,,,,,,,,,,stimuli/images/PICTURE_151.png,GIRL,5f4565bdcd108b1460bd72f5,21/10/2001,2020-08-27_19h06.44.679,proactive3.1,2020.1.2,Win32,60,5f47c29a48bd2a1e651a6eb7,5f47f4e858dd3314a449b7a3,1,,,,,,tray,,,,,,0,55,55,19,1,2,0,,,,,,,,,,,,,,,,,,,,,,,,,,,,,,,,,,,,,,,,,,,,,,,,,,,,,,,,,,,,,,,,,,,,,,,,,,,,,,,,,,,,,,,,,,,,,,,,,,,,,,,,,,,,,
,,,,,,,,,,stimuli/images/PICTURE_453.png,DUDE,5f4565bdcd108b1460bd72f5,21/10/2001,2020-08-27_19h06.44.679,proactive3.1,2020.1.2,Win32,60,5f47c29a48bd2a1e651a6eb7,5f47f4e858dd3314a449b7a3,1,,,,,,scissors,,,,,,0,56,56,27,1,3,0,,,,,,,,,,,,,,,,,,,,,,,,,,,,,,,,,,,,,,,,,,,,,,,,,,,,,,,,,,,,,,,,,,,,,,,,,,,,,,,,,,,,,,,,,,,,,,,,,,,,,,,,,,,,,
,,,,,,,,,,stimuli/images/PICTURE_469.png,LETTER,5f4565bdcd108b1460bd72f5,21/10/2001,2020-08-27_19h06.44.679,proactive3.1,2020.1.2,Win32,60,5f47c29a48bd2a1e651a6eb7,5f47f4e858dd3314a449b7a3,1,,,,,,stool,,,,,,0,57,57,42,1,5,0,,,,,,,,,,,,,,,,,,,,,,,,,,,,,,,,,,,,,,,,,,,,,,,,,,,,,,,,,,,,,,,,,,,,,,,,,,,,,,,,,,,,,,,,,,,,,,,,,,,,,,,,,,,,,
,,,,,,,,,,stimuli/images/PICTURE_208.png,LOTS,5f4565bdcd108b1460bd72f5,21/10/2001,2020-08-27_19h06.44.679,proactive3.1,2020.1.2,Win32,60,5f47c29a48bd2a1e651a6eb7,5f47f4e858dd3314a449b7a3,1,,,,,,microphone,,,,,,0,58,58,10,1,2,0,,,,,,,,,,,,,,,,,,,,,,,,,,,,,,,,,,,,,,,,,,,,,,,,,,,,,,,,,,,,,,,,,,,,,,,,,,,,,,,,,,,,,,,,,,,,,,,,,,,,,,,,,,,,,
,,?,0.002155,0,,,,,,stimuli/images/PICTURE_667.png,PLENTY,5f4565bdcd108b1460bd72f5,21/10/2001,2020-08-27_19h06.44.679,proactive3.1,2020.1.2,Win32,60,5f47c29a48bd2a1e651a6eb7,5f47f4e858dd3314a449b7a3,1,,,,,,daisy,,,,,,,,,,,5,0,0,0,0,41,1,,,,,,,,,,,,,,,,,,,,,,,,,,,,,,,,,,,,,,,,,,,,,,,,,,,,,,,,,,,,,,,,,,,,,,,,,,,,,,,,,,,,,,,,,,,,,,,,,,,,,,,,
,,?,0.002115,0,,,,,,stimuli/images/PICTURE_203.png,ARTIST,5f4565bdcd108b1460bd72f5,21/10/2001,2020-08-27_19h06.44.679,proactive3.1,2020.1.2,Win32,60,5f47c29a48bd2a1e651a6eb7,5f47f4e858dd3314a449b7a3,1,,,,,,cap,,,,,,,,,,,3,0,0,1,1,26,1,,,,,,,,,,,,,,,,,,,,,,,,,,,,,,,,,,,,,,,,,,,,,,,,,,,,,,,,,,,,,,,,,,,,,,,,,,,,,,,,,,,,,,,,,,,,,,,,,,,,,,,,
,,?,0.00531,0,,,,,,stimuli/images/PICTURE_327.png,BEAUTY,5f4565bdcd108b1460bd72f5,21/10/2001,2020-08-27_19h06.44.679,proactive3.1,2020.1.2,Win32,60,5f47c29a48bd2a1e651a6eb7,5f47f4e858dd3314a449b7a3,1,,,,,,helmet,,,,,,,,,,,5,0,0,2,2,48,1,,,,,,,,,,,,,,,,,,,,,,,,,,,,,,,,,,,,,,,,,,,,,,,,,,,,,,,,,,,,,,,,,,,,,,,,,,,,,,,,,,,,,,,,,,,,,,,,,,,,,,,,
,,BATH,4.719495,1,,,,,,stimuli/images/PICTURE_667.png,BATH,5f4565bdcd108b1460bd72f5,21/10/2001,2020-08-27_19h06.44.679,proactive3.1,2020.1.2,Win32,60,5f47c29a48bd2a1e651a6eb7,5f47f4e858dd3314a449b7a3,1,,,,,,daisy,,,,,,,,,,,1,0,0,3,3,4,1,,,,,,,,,,,,,,,,,,,,,,,,,,,,,,,,,,,,,,,,,,,,,,,,,,,,,,,,,,,,,,,,,,,,,,,,,,,,,,,,,,,,,,,,,,,,,,,,,,,,,,,,
,,CASINO,3.7456,1,,,,,,stimuli/images/PICTURE_688.png,CASINO,5f4565bdcd108b1460bd72f5,21/10/2001,2020-08-27_19h06.44.679,proactive3.1,2020.1.2,Win32,60,5f47c29a48bd2a1e651a6eb7,5f47f4e858dd3314a449b7a3,1,,,,,,runner,,,,,,,,,,,1,0,0,4,4,2,1,,,,,,,,,,,,,,,,,,,,,,,,,,,,,,,,,,,,,,,,,,,,,,,,,,,,,,,,,,,,,,,,,,,,,,,,,,,,,,,,,,,,,,,,,,,,,,,,,,,,,,,,
,,?,0.00635,0,,,,,,stimuli/images/PICTURE_208.png,MONTH,5f4565bdcd108b1460bd72f5,21/10/2001,2020-08-27_19h06.44.679,proactive3.1,2020.1.2,Win32,60,5f47c29a48bd2a1e651a6eb7,5f47f4e858dd3314a449b7a3,1,,,,,,microphone,,,,,,,,,,,6,0,0,5,5,53,1,,,,,,,,,,,,,,,,,,,,,,,,,,,,,,,,,,,,,,,,,,,,,,,,,,,,,,,,,,,,,,,,,,,,,,,,,,,,,,,,,,,,,,,,,,,,,,,,,,,,,,,,
,,?,0.00518,0,,,,,,stimuli/images/PICTURE_233.png,IDEAS,5f4565bdcd108b1460bd72f5,21/10/2001,2020-08-27_19h06.44.679,proactive3.1,2020.1.2,Win32,60,5f47c29a48bd2a1e651a6eb7,5f47f4e858dd3314a449b7a3,1,,,,,,salt,,,,,,,,,,,3,0,0,6,6,28,1,,,,,,,,,,,,,,,,,,,,,,,,,,,,,,,,,,,,,,,,,,,,,,,,,,,,,,,,,,,,,,,,,,,,,,,,,,,,,,,,,,,,,,,,,,,,,,,,,,,,,,,,
,,?,0.00548,0,,,,,,stimuli/images/PICTURE_688.png,WOMEN,5f4565bdcd108b1460bd72f5,21/10/2001,2020-08-27_19h06.44.679,proactive3.1,2020.1.2,Win32,60,5f47c29a48bd2a1e651a6eb7,5f47f4e858dd3314a449b7a3,1,,,,,,runner,,,,,,,,,,,2,0,0,7,7,14,1,,,,,,,,,,,,,,,,,,,,,,,,,,,,,,,,,,,,,,,,,,,,,,,,,,,,,,,,,,,,,,,,,,,,,,,,,,,,,,,,,,,,,,,,,,,,,,,,,,,,,,,,
,,LEADER,5.75249,1,,,,,,stimuli/images/PICTURE_160.png,LEADER,5f4565bdcd108b1460bd72f5,21/10/2001,2020-08-27_19h06.44.679,proactive3.1,2020.1.2,Win32,60,5f47c29a48bd2a1e651a6eb7,5f47f4e858dd3314a449b7a3,1,,,,,,wheelbarrow,,,,,,,,,,,1,0,0,8,8,3,1,,,,,,,,,,,,,,,,,,,,,,,,,,,,,,,,,,,,,,,,,,,,,,,,,,,,,,,,,,,,,,,,,,,,,,,,,,,,,,,,,,,,,,,,,,,,,,,,,,,,,,,,
,,?,0.004885,0,,,,,,stimuli/images/PICTURE_744.png,SAKE,5f4565bdcd108b1460bd72f5,21/10/2001,2020-08-27_19h06.44.679,proactive3.1,2020.1.2,Win32,60,5f47c29a48bd2a1e651a6eb7,5f47f4e858dd3314a449b7a3,1,,,,,,ring,,,,,,,,,,,2,0,0,9,9,17,1,,,,,,,,,,,,,,,,,,,,,,,,,,,,,,,,,,,,,,,,,,,,,,,,,,,,,,,,,,,,,,,,,,,,,,,,,,,,,,,,,,,,,,,,,,,,,,,,,,,,,,,,
,,?,0.00537,0,,,,,,stimuli/images/PICTURE_380.png,DEATH,5f4565bdcd108b1460bd72f5,21/10/2001,2020-08-27_19h06.44.679,proactive3.1,2020.1.2,Win32,60,5f47c29a48bd2a1e651a6eb7,5f47f4e858dd3314a449b7a3,1,,,,,,gorilla,,,,,,,,,,,5,0,0,10,10,49,1,,,,,,,,,,,,,,,,,,,,,,,,,,,,,,,,,,,,,,,,,,,,,,,,,,,,,,,,,,,,,,,,,,,,,,,,,,,,,,,,,,,,,,,,,,,,,,,,,,,,,,,,
,,?,0.00418,0,,,,,,stimuli/images/PICTURE_123.png,ADVICE,5f4565bdcd108b1460bd72f5,21/10/2001,2020-08-27_19h06.44.679,proactive3.1,2020.1.2,Win32,60,5f47c29a48bd2a1e651a6eb7,5f47f4e858dd3314a449b7a3,1,,,,,,dart,,,,,,,,,,,5,0,0,11,11,40,1,,,,,,,,,,,,,,,,,,,,,,,,,,,,,,,,,,,,,,,,,,,,,,,,,,,,,,,,,,,,,,,,,,,,,,,,,,,,,,,,,,,,,,,,,,,,,,,,,,,,,,,,
,,?,0.004245,0,,,,,,stimuli/images/PICTURE_95.png,STYLE,5f4565bdcd108b1460bd72f5,21/10/2001,2020-08-27_19h06.44.679,proactive3.1,2020.1.2,Win32,60,5f47c29a48bd2a1e651a6eb7,5f47f4e858dd3314a449b7a3,1,,,,,,suitcase,,,,,,,,,,,3,0,0,12,12,25,1,,,,,,,,,,,,,,,,,,,,,,,,,,,,,,,,,,,,,,,,,,,,,,,,,,,,,,,,,,,,,,,,,,,,,,,,,,,,,,,,,,,,,,,,,,,,,,,,,,,,,,,,
,,?,0.004445,0,,,,,,stimuli/images/PICTURE_453.png,PLENTY,5f4565bdcd108b1460bd72f5,21/10/2001,2020-08-27_19h06.44.679,proactive3.1,2020.1.2,Win32,60,5f47c29a48bd2a1e651a6eb7,5f47f4e858dd3314a449b7a3,1,,,,,,scissors,,,,,,,,,,,6,0,0,13,13,56,1,,,,,,,,,,,,,,,,,,,,,,,,,,,,,,,,,,,,,,,,,,,,,,,,,,,,,,,,,,,,,,,,,,,,,,,,,,,,,,,,,,,,,,,,,,,,,,,,,,,,,,,,
,,?,0.002845,0,,,,,,stimuli/images/PICTURE_491.png,WRITER,5f4565bdcd108b1460bd72f5,21/10/2001,2020-08-27_19h06.44.679,proactive3.1,2020.1.2,Win32,60,5f47c29a48bd2a1e651a6eb7,5f47f4e858dd3314a449b7a3,1,,,,,,rug,,,,,,,,,,,6,0,0,14,14,57,1,,,,,,,,,,,,,,,,,,,,,,,,,,,,,,,,,,,,,,,,,,,,,,,,,,,,,,,,,,,,,,,,,,,,,,,,,,,,,,,,,,,,,,,,,,,,,,,,,,,,,,,,
,,CLIENT,4.449465,1,,,,,,stimuli/images/PICTURE_708.png,CLIENT,5f4565bdcd108b1460bd72f5,21/10/2001,2020-08-27_19h06.44.679,proactive3.1,2020.1.2,Win32,60,5f47c29a48bd2a1e651a6eb7,5f47f4e858dd3314a449b7a3,1,,,,,,monkey,,,,,,,,,,,1,0,0,15,15,5,1,,,,,,,,,,,,,,,,,,,,,,,,,,,,,,,,,,,,,,,,,,,,,,,,,,,,,,,,,,,,,,,,,,,,,,,,,,,,,,,,,,,,,,,,,,,,,,,,,,,,,,,,
,,?,0.005095,0,,,,,,stimuli/images/PICTURE_215.png,PLENTY,5f4565bdcd108b1460bd72f5,21/10/2001,2020-08-27_19h06.44.679,proactive3.1,2020.1.2,Win32,60,5f47c29a48bd2a1e651a6eb7,5f47f4e858dd3314a449b7a3,1,,,,,,boot,,,,,,,,,,,4,0,0,16,16,37,1,,,,,,,,,,,,,,,,,,,,,,,,,,,,,,,,,,,,,,,,,,,,,,,,,,,,,,,,,,,,,,,,,,,,,,,,,,,,,,,,,,,,,,,,,,,,,,,,,,,,,,,,
,,?,0.004025,0,,,,,,stimuli/images/PICTURE_255.png,AREA,5f4565bdcd108b1460bd72f5,21/10/2001,2020-08-27_19h06.44.679,proactive3.1,2020.1.2,Win32,60,5f47c29a48bd2a1e651a6eb7,5f47f4e858dd3314a449b7a3,1,,,,,,shovel,,,,,,,,,,,3,0,0,17,17,22,1,,,,,,,,,,,,,,,,,,,,,,,,,,,,,,,,,,,,,,,,,,,,,,,,,,,,,,,,,,,,,,,,,,,,,,,,,,,,,,,,,,,,,,,,,,,,,,,,,,,,,,,,
,,BODY,4.509585,1,,,,,,stimuli/images/PICTURE_504.png,BODY,5f4565bdcd108b1460bd72f5,21/10/2001,2020-08-27_19h06.44.679,proactive3.1,2020.1.2,Win32,60,5f47c29a48bd2a1e651a6eb7,5f47f4e858dd3314a449b7a3,1,,,,,,wheel,,,,,,,,,,,1,0,0,18,18,8,1,,,,,,,,,,,,,,,,,,,,,,,,,,,,,,,,,,,,,,,,,,,,,,,,,,,,,,,,,,,,,,,,,,,,,,,,,,,,,,,,,,,,,,,,,,,,,,,,,,,,,,,,
,,?,0.004135,0,,,,,,stimuli/images/PICTURE_692.png,MONTH,5f4565bdcd108b1460bd72f5,21/10/2001,2020-08-27_19h06.44.679,proactive3.1,2020.1.2,Win32,60,5f47c29a48bd2a1e651a6eb7,5f47f4e858dd3314a449b7a3,1,,,,,,cherry,,,,,,,,,,,2,0,0,19,19,16,1,,,,,,,,,,,,,,,,,,,,,,,,,,,,,,,,,,,,,,,,,,,,,,,,,,,,,,,,,,,,,,,,,,,,,,,,,,,,,,,,,,,,,,,,,,,,,,,,,,,,,,,,
,,?,0.003,0,,,,,,stimuli/images/PICTURE_308.png,KIND,5f4565bdcd108b1460bd72f5,21/10/2001,2020-08-27_19h06.44.679,proactive3.1,2020.1.2,Win32,60,5f47c29a48bd2a1e651a6eb7,5f47f4e858dd3314a449b7a3,1,,,,,,dice,,,,,,,,,,,6,0,0,20,20,54,1,,,,,,,,,,,,,,,,,,,,,,,,,,,,,,,,,,,,,,,,,,,,,,,,,,,,,,,,,,,,,,,,,,,,,,,,,,,,,,,,,,,,,,,,,,,,,,,,,,,,,,,,
,,?,0.002855,0,,,,,,stimuli/images/PICTURE_311.png,BEAUTY,5f4565bdcd108b1460bd72f5,21/10/2001,2020-08-27_19h06.44.679,proactive3.1,2020.1.2,Win32,60,5f47c29a48bd2a1e651a6eb7,5f47f4e858dd3314a449b7a3,1,,,,,,razor,,,,,,,,,,,2,0,0,21,21,13,1,,,,,,,,,,,,,,,,,,,,,,,,,,,,,,,,,,,,,,,,,,,,,,,,,,,,,,,,,,,,,,,,,,,,,,,,,,,,,,,,,,,,,,,,,,,,,,,,,,,,,,,,
,,?,0.00336,0,,,,,,stimuli/images/PICTURE_469.png,LETTER,5f4565bdcd108b1460bd72f5,21/10/2001,2020-08-27_19h06.44.679,proactive3.1,2020.1.2,Win32,60,5f47c29a48bd2a1e651a6eb7,5f47f4e858dd3314a449b7a3,1,,,,,,stool,,,,,,,,,,,5,0,0,22,22,42,1,,,,,,,,,,,,,,,,,,,,,,,,,,,,,,,,,,,,,,,,,,,,,,,,,,,,,,,,,,,,,,,,,,,,,,,,,,,,,,,,,,,,,,,,,,,,,,,,,,,,,,,,
,,?,0.00319,0,,,,,,stimuli/images/PICTURE_509.png,PHOTO,5f4565bdcd108b1460bd72f5,21/10/2001,2020-08-27_19h06.44.679,proactive3.1,2020.1.2,Win32,60,5f47c29a48bd2a1e651a6eb7,5f47f4e858dd3314a449b7a3,1,,,,,,telephone,,,,,,,,,,,3,0,0,23,23,21,1,,,,,,,,,,,,,,,,,,,,,,,,,,,,,,,,,,,,,,,,,,,,,,,,,,,,,,,,,,,,,,,,,,,,,,,,,,,,,,,,,,,,,,,,,,,,,,,,,,,,,,,,
,,?,0.002885,0,,,,,,stimuli/images/PICTURE_708.png,PENNY,5f4565bdcd108b1460bd72f5,21/10/2001,2020-08-27_19h06.44.679,proactive3.1,2020.1.2,Win32,60,5f47c29a48bd2a1e651a6eb7,5f47f4e858dd3314a449b7a3,1,,,,,,monkey,,,,,,,,,,,4,0,0,24,24,31,1,,,,,,,,,,,,,,,,,,,,,,,,,,,,,,,,,,,,,,,,,,,,,,,,,,,,,,,,,,,,,,,,,,,,,,,,,,,,,,,,,,,,,,,,,,,,,,,,,,,,,,,,
,,?,0.00328,0,,,,,,stimuli/images/PICTURE_177.png,CARS,5f4565bdcd108b1460bd72f5,21/10/2001,2020-08-27_19h06.44.679,proactive3.1,2020.1.2,Win32,60,5f47c29a48bd2a1e651a6eb7,5f47f4e858dd3314a449b7a3,1,,,,,,mushroom,,,,,,,,,,,4,0,0,25,25,35,1,,,,,,,,,,,,,,,,,,,,,,,,,,,,,,,,,,,,,,,,,,,,,,,,,,,,,,,,,,,,,,,,,,,,,,,,,,,,,,,,,,,,,,,,,,,,,,,,,,,,,,,,
,,?,0.00273,0,,,,,,stimuli/images/PICTURE_285.png,ADVICE,5f4565bdcd108b1460bd72f5,21/10/2001,2020-08-27_19h06.44.679,proactive3.1,2020.1.2,Win32,60,5f47c29a48bd2a1e651a6eb7,5f47f4e858dd3314a449b7a3,1,,,,,,carrot,,,,,,,,,,,2,0,0,26,26,12,1,,,,,,,,,,,,,,,,,,,,,,,,,,,,,,,,,,,,,,,,,,,,,,,,,,,,,,,,,,,,,,,,,,,,,,,,,,,,,,,,,,,,,,,,,,,,,,,,,,,,,,,,
,,?,0.00274,0,,,,,,stimuli/images/PICTURE_147.png,MOMENT,5f4565bdcd108b1460bd72f5,21/10/2001,2020-08-27_19h06.44.679,proactive3.1,2020.1.2,Win32,60,5f47c29a48bd2a1e651a6eb7,5f47f4e858dd3314a449b7a3,1,,,,,,hanger,,,,,,,,,,,6,0,0,27,27,51,1,,,,,,,,,,,,,,,,,,,,,,,,,,,,,,,,,,,,,,,,,,,,,,,,,,,,,,,,,,,,,,,,,,,,,,,,,,,,,,,,,,,,,,,,,,,,,,,,,,,,,,,,
,,SAKE,3.415455,1,,,,,,stimuli/images/PICTURE_314.png,SAKE,5f4565bdcd108b1460bd72f5,21/10/2001,2020-08-27_19h06.44.679,proactive3.1,2020.1.2,Win32,60,5f47c29a48bd2a1e651a6eb7,5f47f4e858dd3314a449b7a3,1,,,,,,perfume,,,,,,,,,,,1,0,0,28,28,7,1,,,,,,,,,,,,,,,,,,,,,,,,,,,,,,,,,,,,,,,,,,,,,,,,,,,,,,,,,,,,,,,,,,,,,,,,,,,,,,,,,,,,,,,,,,,,,,,,,,,,,,,,
,,?,0.004255,0,,,,,,stimuli/images/PICTURE_491.png,ROOF,5f4565bdcd108b1460bd72f5,21/10/2001,2020-08-27_19h06.44.679,proactive3.1,2020.1.2,Win32,60,5f47c29a48bd2a1e651a6eb7,5f47f4e858dd3314a449b7a3,1,,,,,,rug,,,,,,,,,,,3,0,0,29,29,24,1,,,,,,,,,,,,,,,,,,,,,,,,,,,,,,,,,,,,,,,,,,,,,,,,,,,,,,,,,,,,,,,,,,,,,,,,,,,,,,,,,,,,,,,,,,,,,,,,,,,,,,,,
,,?,0.002365,0,,,,,,stimuli/images/PICTURE_208.png,THING,5f4565bdcd108b1460bd72f5,21/10/2001,2020-08-27_19h06.44.679,proactive3.1,2020.1.2,Win32,60,5f47c29a48bd2a1e651a6eb7,5f47f4e858dd3314a449b7a3,1,,,,,,microphone,,,,,,,,,,,5,0,0,30,30,47,1,,,,,,,,,,,,,,,,,,,,,,,,,,,,,,,,,,,,,,,,,,,,,,,,,,,,,,,,,,,,,,,,,,,,,,,,,,,,,,,,,,,,,,,,,,,,,,,,,,,,,,,,
,,FLIGH,15.017285,0,,,,,,stimuli/images/PICTURE_487.png,FLIGHT,5f4565bdcd108b1460bd72f5,21/10/2001,2020-08-27_19h06.44.679,proactive3.1,2020.1.2,Win32,60,5f47c29a48bd2a1e651a6eb7,5f47f4e858dd3314a449b7a3,1,,,,,,basket,,,,,,,,,,,1,0,0,31,31,9,1,,,,,,,,,,,,,,,,,,,,,,,,,,,,,,,,,,,,,,,,,,,,,,,,,,,,,,,,,,,,,,,,,,,,,,,,,,,,,,,,,,,,,,,,,,,,,,,,,,,,,,,,
,,?,0.00247,0,,,,,,stimuli/images/PICTURE_744.png,SYSTEM,5f4565bdcd108b1460bd72f5,21/10/2001,2020-08-27_19h06.44.679,proactive3.1,2020.1.2,Win32,60,5f47c29a48bd2a1e651a6eb7,5f47f4e858dd3314a449b7a3,1,,,,,,ring,,,,,,,,,,,5,0,0,32,32,43,1,,,,,,,,,,,,,,,,,,,,,,,,,,,,,,,,,,,,,,,,,,,,,,,,,,,,,,,,,,,,,,,,,,,,,,,,,,,,,,,,,,,,,,,,,,,,,,,,,,,,,,,,
,,?,0.002015,0,,,,,,stimuli/images/PICTURE_314.png,GODS,5f4565bdcd108b1460bd72f5,21/10/2001,2020-08-27_19h06.44.679,proactive3.1,2020.1.2,Win32,60,5f47c29a48bd2a1e651a6eb7,5f47f4e858dd3314a449b7a3,1,,,,,,perfume,,,,,,,,,,,2,0,0,33,33,11,1,,,,,,,,,,,,,,,,,,,,,,,,,,,,,,,,,,,,,,,,,,,,,,,,,,,,,,,,,,,,,,,,,,,,,,,,,,,,,,,,,,,,,,,,,,,,,,,,,,,,,,,,
,,PLENTY,5.00242,1,,,,,,stimuli/images/PICTURE_339.png,PLENTY,5f4565bdcd108b1460bd72f5,21/10/2001,2020-08-27_19h06.44.679,proactive3.1,2020.1.2,Win32,60,5f47c29a48bd2a1e651a6eb7,5f47f4e858dd3314a449b7a3,1,,,,,,backpack,,,,,,,,,,,1,0,0,34,34,0,1,,,,,,,,,,,,,,,,,,,,,,,,,,,,,,,,,,,,,,,,,,,,,,,,,,,,,,,,,,,,,,,,,,,,,,,,,,,,,,,,,,,,,,,,,,,,,,,,,,,,,,,,
,,?,0.00425,0,,,,,,stimuli/images/PICTURE_32.png,JUNGLE,5f4565bdcd108b1460bd72f5,21/10/2001,2020-08-27_19h06.44.679,proactive3.1,2020.1.2,Win32,60,5f47c29a48bd2a1e651a6eb7,5f47f4e858dd3314a449b7a3,1,,,,,,crown,,,,,,,,,,,5,0,0,35,35,45,1,,,,,,,,,,,,,,,,,,,,,,,,,,,,,,,,,,,,,,,,,,,,,,,,,,,,,,,,,,,,,,,,,,,,,,,,,,,,,,,,,,,,,,,,,,,,,,,,,,,,,,,,
,,?,0.006375,0,,,,,,stimuli/images/PICTURE_151.png,GIRL,5f4565bdcd108b1460bd72f5,21/10/2001,2020-08-27_19h06.44.679,proactive3.1,2020.1.2,Win32,60,5f47c29a48bd2a1e651a6eb7,5f47f4e858dd3314a449b7a3,1,,,,,,tray,,,,,,,,,,,2,0,0,36,36,19,1,,,,,,,,,,,,,,,,,,,,,,,,,,,,,,,,,,,,,,,,,,,,,,,,,,,,,,,,,,,,,,,,,,,,,,,,,,,,,,,,,,,,,,,,,,,,,,,,,,,,,,,,
,,VALLEY,4.389725,1,,,,,,stimuli/images/PICTURE_654.png,VALLEY,5f4565bdcd108b1460bd72f5,21/10/2001,2020-08-27_19h06.44.679,proactive3.1,2020.1.2,Win32,60,5f47c29a48bd2a1e651a6eb7,5f47f4e858dd3314a449b7a3,1,,,,,,pencil,,,,,,,,,,,1,0,0,37,37,1,1,,,,,,,,,,,,,,,,,,,,,,,,,,,,,,,,,,,,,,,,,,,,,,,,,,,,,,,,,,,,,,,,,,,,,,,,,,,,,,,,,,,,,,,,,,,,,,,,,,,,,,,,
,,?,0.0053,0,,,,,,stimuli/images/PICTURE_68.png,MILE,5f4565bdcd108b1460bd72f5,21/10/2001,2020-08-27_19h06.44.679,proactive3.1,2020.1.2,Win32,60,5f47c29a48bd2a1e651a6eb7,5f47f4e858dd3314a449b7a3,1,,,,,,candle,,,,,,,,,,,5,0,0,38,38,44,1,,,,,,,,,,,,,,,,,,,,,,,,,,,,,,,,,,,,,,,,,,,,,,,,,,,,,,,,,,,,,,,,,,,,,,,,,,,,,,,,,,,,,,,,,,,,,,,,,,,,,,,,
,,?,0.004575,0,,,,,,stimuli/images/PICTURE_449.png,THING,5f4565bdcd108b1460bd72f5,21/10/2001,2020-08-27_19h06.44.679,proactive3.1,2020.1.2,Win32,60,5f47c29a48bd2a1e651a6eb7,5f47f4e858dd3314a449b7a3,1,,,,,,bench,,,,,,,,,,,6,0,0,39,39,59,1,,,,,,,,,,,,,,,,,,,,,,,,,,,,,,,,,,,,,,,,,,,,,,,,,,,,,,,,,,,,,,,,,,,,,,,,,,,,,,,,,,,,,,,,,,,,,,,,,,,,,,,,
,,?,0.003835,0,,,,,,stimuli/images/PICTURE_311.png,FRIEND,5f4565bdcd108b1460bd72f5,21/10/2001,2020-08-27_19h06.44.679,proactive3.1,2020.1.2,Win32,60,5f47c29a48bd2a1e651a6eb7,5f47f4e858dd3314a449b7a3,1,,,,,,razor,,,,,,,,,,,4,0,0,40,40,34,1,,,,,,,,,,,,,,,,,,,,,,,,,,,,,,,,,,,,,,,,,,,,,,,,,,,,,,,,,,,,,,,,,,,,,,,,,,,,,,,,,,,,,,,,,,,,,,,,,,,,,,,,
,,?,0.00405,0,,,,,,stimuli/images/PICTURE_233.png,WOMEN,5f4565bdcd108b1460bd72f5,21/10/2001,2020-08-27_19h06.44.679,proactive3.1,2020.1.2,Win32,60,5f47c29a48bd2a1e651a6eb7,5f47f4e858dd3314a449b7a3,1,,,,,,salt,,,,,,,,,,,4,0,0,41,41,38,1,,,,,,,,,,,,,,,,,,,,,,,,,,,,,,,,,,,,,,,,,,,,,,,,,,,,,,,,,,,,,,,,,,,,,,,,,,,,,,,,,,,,,,,,,,,,,,,,,,,,,,,,
,,?,0.00372,0,,,,,,stimuli/images/PICTURE_160.png,FEET,5f4565bdcd108b1460bd72f5,21/10/2001,2020-08-27_19h06.44.679,proactive3.1,2020.1.2,Win32,60,5f47c29a48bd2a1e651a6eb7,5f47f4e858dd3314a449b7a3,1,,,,,,wheelbarrow,,,,,,,,,,,6,0,0,42,42,58,1,,,,,,,,,,,,,,,,,,,,,,,,,,,,,,,,,,,,,,,,,,,,,,,,,,,,,,,,,,,,,,,,,,,,,,,,,,,,,,,,,,,,,,,,,,,,,,,,,,,,,,,,
,,?,0.00388,0,,,,,,stimuli/images/PICTURE_308.png,ESTATE,5f4565bdcd108b1460bd72f5,21/10/2001,2020-08-27_19h06.44.679,proactive3.1,2020.1.2,Win32,60,5f47c29a48bd2a1e651a6eb7,5f47f4e858dd3314a449b7a3,1,,,,,,dice,,,,,,,,,,,5,0,0,43,43,46,1,,,,,,,,,,,,,,,,,,,,,,,,,,,,,,,,,,,,,,,,,,,,,,,,,,,,,,,,,,,,,,,,,,,,,,,,,,,,,,,,,,,,,,,,,,,,,,,,,,,,,,,,
,,?,0.004505,0,,,,,,stimuli/images/PICTURE_470.png,CASINO,5f4565bdcd108b1460bd72f5,21/10/2001,2020-08-27_19h06.44.679,proactive3.1,2020.1.2,Win32,60,5f47c29a48bd2a1e651a6eb7,5f47f4e858dd3314a449b7a3,1,,,,,,motorbike,,,,,,,,,,,4,0,0,44,44,36,1,,,,,,,,,,,,,,,,,,,,,,,,,,,,,,,,,,,,,,,,,,,,,,,,,,,,,,,,,,,,,,,,,,,,,,,,,,,,,,,,,,,,,,,,,,,,,,,,,,,,,,,,
,,?,0.002595,0,,,,,,stimuli/images/PICTURE_302.png,FAMILY,5f4565bdcd108b1460bd72f5,21/10/2001,2020-08-27_19h06.44.679,proactive3.1,2020.1.2,Win32,60,5f47c29a48bd2a1e651a6eb7,5f47f4e858dd3314a449b7a3,1,,,,,,taxi,,,,,,,,,,,2,0,0,45,45,18,1,,,,,,,,,,,,,,,,,,,,,,,,,,,,,,,,,,,,,,,,,,,,,,,,,,,,,,,,,,,,,,,,,,,,,,,,,,,,,,,,,,,,,,,,,,,,,,,,,,,,,,,,
,,?,0.003455,0,,,,,,stimuli/images/PICTURE_467.png,DEMON,5f4565bdcd108b1460bd72f5,21/10/2001,2020-08-27_19h06.44.679,proactive3.1,2020.1.2,Win32,60,5f47c29a48bd2a1e651a6eb7,5f47f4e858dd3314a449b7a3,1,,,,,,peg,,,,,,,,,,,3,0,0,46,46,23,1,,,,,,,,,,,,,,,,,,,,,,,,,,,,,,,,,,,,,,,,,,,,,,,,,,,,,,,,,,,,,,,,,,,,,,,,,,,,,,,,,,,,,,,,,,,,,,,,,,,,,,,,
,,?,0.002725,0,,,,,,stimuli/images/PICTURE_677.png,MILE,5f4565bdcd108b1460bd72f5,21/10/2001,2020-08-27_19h06.44.679,proactive3.1,2020.1.2,Win32,60,5f47c29a48bd2a1e651a6eb7,5f47f4e858dd3314a449b7a3,1,,,,,,map,,,,,,,,,,,4,0,0,47,47,30,1,,,,,,,,,,,,,,,,,,,,,,,,,,,,,,,,,,,,,,,,,,,,,,,,,,,,,,,,,,,,,,,,,,,,,,,,,,,,,,,,,,,,,,,,,,,,,,,,,,,,,,,,
,,?,0.00276,0,,,,,,stimuli/images/PICTURE_488.png,STYLE,5f4565bdcd108b1460bd72f5,21/10/2001,2020-08-27_19h06.44.679,proactive3.1,2020.1.2,Win32,60,5f47c29a48bd2a1e651a6eb7,5f47f4e858dd3314a449b7a3,1,,,,,,sun,,,,,,,,,,,4,0,0,48,48,33,1,,,,,,,,,,,,,,,,,,,,,,,,,,,,,,,,,,,,,,,,,,,,,,,,,,,,,,,,,,,,,,,,,,,,,,,,,,,,,,,,,,,,,,,,,,,,,,,,,,,,,,,,
,,?,0.002795,0,,,,,,stimuli/images/PICTURE_708.png,YARD,5f4565bdcd108b1460bd72f5,21/10/2001,2020-08-27_19h06.44.679,proactive3.1,2020.1.2,Win32,60,5f47c29a48bd2a1e651a6eb7,5f47f4e858dd3314a449b7a3,1,,,,,,monkey,,,,,,,,,,,3,0,0,49,49,29,1,,,,,,,,,,,,,,,,,,,,,,,,,,,,,,,,,,,,,,,,,,,,,,,,,,,,,,,,,,,,,,,,,,,,,,,,,,,,,,,,,,,,,,,,,,,,,,,,,,,,,,,,
,,?,0.002725,0,,,,,,stimuli/images/PICTURE_453.png,DUDE,5f4565bdcd108b1460bd72f5,21/10/2001,2020-08-27_19h06.44.679,proactive3.1,2020.1.2,Win32,60,5f47c29a48bd2a1e651a6eb7,5f47f4e858dd3314a449b7a3,1,,,,,,scissors,,,,,,,,,,,3,0,0,50,50,27,1,,,,,,,,,,,,,,,,,,,,,,,,,,,,,,,,,,,,,,,,,,,,,,,,,,,,,,,,,,,,,,,,,,,,,,,,,,,,,,,,,,,,,,,,,,,,,,,,,,,,,,,,
,,ARTIST,5.276835,1,,,,,,stimuli/images/PICTURE_469.png,ARTIST,5f4565bdcd108b1460bd72f5,21/10/2001,2020-08-27_19h06.44.679,proactive3.1,2020.1.2,Win32,60,5f47c29a48bd2a1e651a6eb7,5f47f4e858dd3314a449b7a3,1,,,,,,stool,,,,,,,,,,,1,0,0,51,51,6,1,,,,,,,,,,,,,,,,,,,,,,,,,,,,,,,,,,,,,,,,,,,,,,,,,,,,,,,,,,,,,,,,,,,,,,,,,,,,,,,,,,,,,,,,,,,,,,,,,,,,,,,,
,,?,0.00486,0,,,,,,stimuli/images/PICTURE_208.png,LOTS,5f4565bdcd108b1460bd72f5,21/10/2001,2020-08-27_19h06.44.679,proactive3.1,2020.1.2,Win32,60,5f47c29a48bd2a1e651a6eb7,5f47f4e858dd3314a449b7a3,1,,,,,,microphone,,,,,,,,,,,2,0,0,52,52,10,1,,,,,,,,,,,,,,,,,,,,,,,,,,,,,,,,,,,,,,,,,,,,,,,,,,,,,,,,,,,,,,,,,,,,,,,,,,,,,,,,,,,,,,,,,,,,,,,,,,,,,,,,
,,?,0.003735,0,,,,,,stimuli/images/PICTURE_248.png,DOZEN,5f4565bdcd108b1460bd72f5,21/10/2001,2020-08-27_19h06.44.679,proactive3.1,2020.1.2,Win32,60,5f47c29a48bd2a1e651a6eb7,5f47f4e858dd3314a449b7a3,1,,,,,,cart,,,,,,,,,,,4,0,0,53,53,39,1,,,,,,,,,,,,,,,,,,,,,,,,,,,,,,,,,,,,,,,,,,,,,,,,,,,,,,,,,,,,,,,,,,,,,,,,,,,,,,,,,,,,,,,,,,,,,,,,,,,,,,,,
,,?,0.003915,0,,,,,,stimuli/images/PICTURE_356.png,DANGER,5f4565bdcd108b1460bd72f5,21/10/2001,2020-08-27_19h06.44.679,proactive3.1,2020.1.2,Win32,60,5f47c29a48bd2a1e651a6eb7,5f47f4e858dd3314a449b7a3,1,,,,,,pawn,,,,,,,,,,,6,0,0,54,54,55,1,,,,,,,,,,,,,,,,,,,,,,,,,,,,,,,,,,,,,,,,,,,,,,,,,,,,,,,,,,,,,,,,,,,,,,,,,,,,,,,,,,,,,,,,,,,,,,,,,,,,,,,,
,,?,0.003835,0,,,,,,stimuli/images/PICTURE_85.png,THING,5f4565bdcd108b1460bd72f5,21/10/2001,2020-08-27_19h06.44.679,proactive3.1,2020.1.2,Win32,60,5f47c29a48bd2a1e651a6eb7,5f47f4e858dd3314a449b7a3,1,,,,,,diamond,,,,,,,,,,,2,0,0,55,55,15,1,,,,,,,,,,,,,,,,,,,,,,,,,,,,,,,,,,,,,,,,,,,,,,,,,,,,,,,,,,,,,,,,,,,,,,,,,,,,,,,,,,,,,,,,,,,,,,,,,,,,,,,,
,,?,0.003115,0,,,,,,stimuli/images/PICTURE_675.png,WEAPON,5f4565bdcd108b1460bd72f5,21/10/2001,2020-08-27_19h06.44.679,proactive3.1,2020.1.2,Win32,60,5f47c29a48bd2a1e651a6eb7,5f47f4e858dd3314a449b7a3,1,,,,,,windmill,,,,,,,,,,,4,0,0,56,56,32,1,,,,,,,,,,,,,,,,,,,,,,,,,,,,,,,,,,,,,,,,,,,,,,,,,,,,,,,,,,,,,,,,,,,,,,,,,,,,,,,,,,,,,,,,,,,,,,,,,,,,,,,,
,,?,0.002875,0,,,,,,stimuli/images/PICTURE_348.png,SPEECH,5f4565bdcd108b1460bd72f5,21/10/2001,2020-08-27_19h06.44.679,proactive3.1,2020.1.2,Win32,60,5f47c29a48bd2a1e651a6eb7,5f47f4e858dd3314a449b7a3,1,,,,,,pepper,,,,,,,,,,,3,0,0,57,57,20,1,,,,,,,,,,,,,,,,,,,,,,,,,,,,,,,,,,,,,,,,,,,,,,,,,,,,,,,,,,,,,,,,,,,,,,,,,,,,,,,,,,,,,,,,,,,,,,,,,,,,,,,,
,,?,0.002825,0,,,,,,stimuli/images/PICTURE_123.png,ADVICE,5f4565bdcd108b1460bd72f5,21/10/2001,2020-08-27_19h06.44.679,proactive3.1,2020.1.2,Win32,60,5f47c29a48bd2a1e651a6eb7,5f47f4e858dd3314a449b7a3,1,,,,,,dart,,,,,,,,,,,6,0,0,58,58,50,1,,,,,,,,,,,,,,,,,,,,,,,,,,,,,,,,,,,,,,,,,,,,,,,,,,,,,,,,,,,,,,,,,,,,,,,,,,,,,,,,,,,,,,,,,,,,,,,,,,,,,,,,
,,?,0.00321,0,,,,,,stimuli/images/PICTURE_380.png,PHOTO,5f4565bdcd108b1460bd72f5,21/10/2001,2020-08-27_19h06.44.679,proactive3.1,2020.1.2,Win32,60,5f47c29a48bd2a1e651a6eb7,5f47f4e858dd3314a449b7a3,1,,,,,,gorilla,,,,,,,,,,,6,0,0,59,59,52,1,,,,,,,,,,,,,,,,,,,,,,,,,,,,,,,,,,,,,,,,,,,,,,,,,,,,,,,,,,,,,,,,,,,,,,,,,,,,,,,,,,,,,,,,,,,,,,,,,,,,,,,,
,,,,,,,,,,,,5f4565bdcd108b1460bd72f5,21/10/2001,2020-08-27_19h06.44.679,proactive3.1,2020.1.2,Win32,60,5f47c29a48bd2a1e651a6eb7,5f47f4e858dd3314a449b7a3,1,,,,,,,,,,,,,,,,,,,,,,,,0,0,0,0,1,stimuli/learn-block1.csv,,,,,,,,,,,,,,,,,,,,,,,,,,,,,,,,,,,,,,,,,,,,,,,,,,,,,,,,,,,,,,,,,,,,,,,,,,,,,,,,,,,,,,,,,,,,,,,,,,
,,,,,,,,,,stimuli/images/PICTURE_509.png,MILLER,5f4565bdcd108b1460bd72f5,21/10/2001,2020-08-27_19h06.44.679,proactive3.1,2020.1.2,Win32,60,5f47c29a48bd2a1e651a6eb7,5f47f4e858dd3314a449b7a3,1,,,,,,telephone,,,,,,0,0,0,49,1,5,2,,,,,,,,,,,,,,,,,,,,,,,,,,,,,,,,,,,,,,,,,,,,,,,,,,,,,,,,,,,,,,,,,,,,,,,,,,,,,,,,,,,,,,,,,,,,,,,,,,,,,,,,,,,,,
,,,,,,,,,,stimuli/images/PICTURE_403.png,FAMILY,5f4565bdcd108b1460bd72f5,21/10/2001,2020-08-27_19h06.44.679,proactive3.1,2020.1.2,Win32,60,5f47c29a48bd2a1e651a6eb7,5f47f4e858dd3314a449b7a3,1,,,,,,cathedral,,,,,,0,1,1,9,1,1,2,,,,,,,,,,,,,,,,,,,,,,,,,,,,,,,,,,,,,,,,,,,,,,,,,,,,,,,,,,,,,,,,,,,,,,,,,,,,,,,,,,,,,,,,,,,,,,,,,,,,,,,,,,,,,
,,,,,,,,,,stimuli/images/PICTURE_33.png,COPS,5f4565bdcd108b1460bd72f5,21/10/2001,2020-08-27_19h06.44.679,proactive3.1,2020.1.2,Win32,60,5f47c29a48bd2a1e651a6eb7,5f47f4e858dd3314a449b7a3,1,,,,,,frame,,,,,,0,2,2,29,1,3,2,,,,,,,,,,,,,,,,,,,,,,,,,,,,,,,,,,,,,,,,,,,,,,,,,,,,,,,,,,,,,,,,,,,,,,,,,,,,,,,,,,,,,,,,,,,,,,,,,,,,,,,,,,,,,
,,,,,,,,,,stimuli/images/PICTURE_654.png,COPS,5f4565bdcd108b1460bd72f5,21/10/2001,2020-08-27_19h06.44.679,proactive3.1,2020.1.2,Win32,60,5f47c29a48bd2a1e651a6eb7,5f47f4e858dd3314a449b7a3,1,,,,,,pencil,,,,,,0,3,3,10,1,2,2,,,,,,,,,,,,,,,,,,,,,,,,,,,,,,,,,,,,,,,,,,,,,,,,,,,,,,,,,,,,,,,,,,,,,,,,,,,,,,,,,,,,,,,,,,,,,,,,,,,,,,,,,,,,,
,,,,,,,,,,stimuli/images/PICTURE_57.png,NATION,5f4565bdcd108b1460bd72f5,21/10/2001,2020-08-27_19h06.44.679,proactive3.1,2020.1.2,Win32,60,5f47c29a48bd2a1e651a6eb7,5f47f4e858dd3314a449b7a3,1,,,,,,stamp,,,,,,0,4,4,21,1,3,2,,,,,,,,,,,,,,,,,,,,,,,,,,,,,,,,,,,,,,,,,,,,,,,,,,,,,,,,,,,,,,,,,,,,,,,,,,,,,,,,,,,,,,,,,,,,,,,,,,,,,,,,,,,,,
,,,,,,,,,,stimuli/images/PICTURE_667.png,GLASS,5f4565bdcd108b1460bd72f5,21/10/2001,2020-08-27_19h06.44.679,proactive3.1,2020.1.2,Win32,60,5f47c29a48bd2a1e651a6eb7,5f47f4e858dd3314a449b7a3,1,,,,,,daisy,,,,,,0,5,5,27,1,3,2,,,,,,,,,,,,,,,,,,,,,,,,,,,,,,,,,,,,,,,,,,,,,,,,,,,,,,,,,,,,,,,,,,,,,,,,,,,,,,,,,,,,,,,,,,,,,,,,,,,,,,,,,,,,,
,,,,,,,,,,stimuli/images/PICTURE_504.png,HOUSE,5f4565bdcd108b1460bd72f5,21/10/2001,2020-08-27_19h06.44.679,proactive3.1,2020.1.2,Win32,60,5f47c29a48bd2a1e651a6eb7,5f47f4e858dd3314a449b7a3,1,,,,,,wheel,,,,,,0,6,6,36,1,4,2,,,,,,,,,,,,,,,,,,,,,,,,,,,,,,,,,,,,,,,,,,,,,,,,,,,,,,,,,,,,,,,,,,,,,,,,,,,,,,,,,,,,,,,,,,,,,,,,,,,,,,,,,,,,,
,,,,,,,,,,stimuli/images/PICTURE_655.png,SALE,5f4565bdcd108b1460bd72f5,21/10/2001,2020-08-27_19h06.44.679,proactive3.1,2020.1.2,Win32,60,5f47c29a48bd2a1e651a6eb7,5f47f4e858dd3314a449b7a3,1,,,,,,megaphone,,,,,,0,7,7,57,1,6,2,,,,,,,,,,,,,,,,,,,,,,,,,,,,,,,,,,,,,,,,,,,,,,,,,,,,,,,,,,,,,,,,,,,,,,,,,,,,,,,,,,,,,,,,,,,,,,,,,,,,,,,,,,,,,
,,,,,,,,,,stimuli/images/PICTURE_405.png,JUNGLE,5f4565bdcd108b1460bd72f5,21/10/2001,2020-08-27_19h06.44.679,proactive3.1,2020.1.2,Win32,60,5f47c29a48bd2a1e651a6eb7,5f47f4e858dd3314a449b7a3,1,,,,,,anchor,,,,,,0,8,8,58,1,6,2,,,,,,,,,,,,,,,,,,,,,,,,,,,,,,,,,,,,,,,,,,,,,,,,,,,,,,,,,,,,,,,,,,,,,,,,,,,,,,,,,,,,,,,,,,,,,,,,,,,,,,,,,,,,,
,,,,,,,,,,stimuli/images/PICTURE_18.png,RIVER,5f4565bdcd108b1460bd72f5,21/10/2001,2020-08-27_19h06.44.679,proactive3.1,2020.1.2,Win32,60,5f47c29a48bd2a1e651a6eb7,5f47f4e858dd3314a449b7a3,1,,,,,,planet,,,,,,0,9,9,22,1,3,2,,,,,,,,,,,,,,,,,,,,,,,,,,,,,,,,,,,,,,,,,,,,,,,,,,,,,,,,,,,,,,,,,,,,,,,,,,,,,,,,,,,,,,,,,,,,,,,,,,,,,,,,,,,,,
,,,,,,,,,,stimuli/images/PICTURE_692.png,DUDE,5f4565bdcd108b1460bd72f5,21/10/2001,2020-08-27_19h06.44.679,proactive3.1,2020.1.2,Win32,60,5f47c29a48bd2a1e651a6eb7,5f47f4e858dd3314a449b7a3,1,,,,,,cherry,,,,,,0,10,10,47,1,5,2,,,,,,,,,,,,,,,,,,,,,,,,,,,,,,,,,,,,,,,,,,,,,,,,,,,,,,,,,,,,,,,,,,,,,,,,,,,,,,,,,,,,,,,,,,,,,,,,,,,,,,,,,,,,,
,,,,,,,,,,stimuli/images/PICTURE_509.png,BATH,5f4565bdcd108b1460bd72f5,21/10/2001,2020-08-27_19h06.44.679,proactive3.1,2020.1.2,Win32,60,5f47c29a48bd2a1e651a6eb7,5f47f4e858dd3314a449b7a3,1,,,,,,telephone,,,,,,0,11,11,15,1,2,2,,,,,,,,,,,,,,,,,,,,,,,,,,,,,,,,,,,,,,,,,,,,,,,,,,,,,,,,,,,,,,,,,,,,,,,,,,,,,,,,,,,,,,,,,,,,,,,,,,,,,,,,,,,,,
,,,,,,,,,,stimuli/images/PICTURE_285.png,PRINCE,5f4565bdcd108b1460bd72f5,21/10/2001,2020-08-27_19h06.44.679,proactive3.1,2020.1.2,Win32,60,5f47c29a48bd2a1e651a6eb7,5f47f4e858dd3314a449b7a3,1,,,,,,carrot,,,,,,0,12,12,20,1,3,2,,,,,,,,,,,,,,,,,,,,,,,,,,,,,,,,,,,,,,,,,,,,,,,,,,,,,,,,,,,,,,,,,,,,,,,,,,,,,,,,,,,,,,,,,,,,,,,,,,,,,,,,,,,,,
,,,,,,,,,,stimuli/images/PICTURE_356.png,CANDY,5f4565bdcd108b1460bd72f5,21/10/2001,2020-08-27_19h06.44.679,proactive3.1,2020.1.2,Win32,60,5f47c29a48bd2a1e651a6eb7,5f47f4e858dd3314a449b7a3,1,,,,,,pawn,,,,,,0,13,13,46,1,5,2,,,,,,,,,,,,,,,,,,,,,,,,,,,,,,,,,,,,,,,,,,,,,,,,,,,,,,,,,,,,,,,,,,,,,,,,,,,,,,,,,,,,,,,,,,,,,,,,,,,,,,,,,,,,,
,,,,,,,,,,stimuli/images/PICTURE_708.png,VALLEY,5f4565bdcd108b1460bd72f5,21/10/2001,2020-08-27_19h06.44.679,proactive3.1,2020.1.2,Win32,60,5f47c29a48bd2a1e651a6eb7,5f47f4e858dd3314a449b7a3,1,,,,,,monkey,,,,,,0,14,14,45,1,5,2,,,,,,,,,,,,,,,,,,,,,,,,,,,,,,,,,,,,,,,,,,,,,,,,,,,,,,,,,,,,,,,,,,,,,,,,,,,,,,,,,,,,,,,,,,,,,,,,,,,,,,,,,,,,,
,,,,,,,,,,stimuli/images/PICTURE_470.png,MOMENT,5f4565bdcd108b1460bd72f5,21/10/2001,2020-08-27_19h06.44.679,proactive3.1,2020.1.2,Win32,60,5f47c29a48bd2a1e651a6eb7,5f47f4e858dd3314a449b7a3,1,,,,,,motorbike,,,,,,0,15,15,40,1,5,2,,,,,,,,,,,,,,,,,,,,,,,,,,,,,,,,,,,,,,,,,,,,,,,,,,,,,,,,,,,,,,,,,,,,,,,,,,,,,,,,,,,,,,,,,,,,,,,,,,,,,,,,,,,,,
,,,,,,,,,,stimuli/images/PICTURE_93.png,GIRL,5f4565bdcd108b1460bd72f5,21/10/2001,2020-08-27_19h06.44.679,proactive3.1,2020.1.2,Win32,60,5f47c29a48bd2a1e651a6eb7,5f47f4e858dd3314a449b7a3,1,,,,,,skateboard,,,,,,0,16,16,31,1,4,2,,,,,,,,,,,,,,,,,,,,,,,,,,,,,,,,,,,,,,,,,,,,,,,,,,,,,,,,,,,,,,,,,,,,,,,,,,,,,,,,,,,,,,,,,,,,,,,,,,,,,,,,,,,,,
,,,,,,,,,,stimuli/images/PICTURE_177.png,HOUSE,5f4565bdcd108b1460bd72f5,21/10/2001,2020-08-27_19h06.44.679,proactive3.1,2020.1.2,Win32,60,5f47c29a48bd2a1e651a6eb7,5f47f4e858dd3314a449b7a3,1,,,,,,mushroom,,,,,,0,17,17,25,1,3,2,,,,,,,,,,,,,,,,,,,,,,,,,,,,,,,,,,,,,,,,,,,,,,,,,,,,,,,,,,,,,,,,,,,,,,,,,,,,,,,,,,,,,,,,,,,,,,,,,,,,,,,,,,,,,
,,,,,,,,,,stimuli/images/PICTURE_296.png,CLOCK,5f4565bdcd108b1460bd72f5,21/10/2001,2020-08-27_19h06.44.679,proactive3.1,2020.1.2,Win32,60,5f47c29a48bd2a1e651a6eb7,5f47f4e858dd3314a449b7a3,1,,,,,,bolt,,,,,,0,18,18,18,1,2,2,,,,,,,,,,,,,,,,,,,,,,,,,,,,,,,,,,,,,,,,,,,,,,,,,,,,,,,,,,,,,,,,,,,,,,,,,,,,,,,,,,,,,,,,,,,,,,,,,,,,,,,,,,,,,
,,,,,,,,,,stimuli/images/PICTURE_160.png,HOTEL,5f4565bdcd108b1460bd72f5,21/10/2001,2020-08-27_19h06.44.679,proactive3.1,2020.1.2,Win32,60,5f47c29a48bd2a1e651a6eb7,5f47f4e858dd3314a449b7a3,1,,,,,,wheelbarrow,,,,,,0,19,19,16,1,2,2,,,,,,,,,,,,,,,,,,,,,,,,,,,,,,,,,,,,,,,,,,,,,,,,,,,,,,,,,,,,,,,,,,,,,,,,,,,,,,,,,,,,,,,,,,,,,,,,,,,,,,,,,,,,,
,,,,,,,,,,stimuli/images/PICTURE_141.png,CLIENT,5f4565bdcd108b1460bd72f5,21/10/2001,2020-08-27_19h06.44.679,proactive3.1,2020.1.2,Win32,60,5f47c29a48bd2a1e651a6eb7,5f47f4e858dd3314a449b7a3,1,,,,,,sunflower,,,,,,0,20,20,30,1,4,2,,,,,,,,,,,,,,,,,,,,,,,,,,,,,,,,,,,,,,,,,,,,,,,,,,,,,,,,,,,,,,,,,,,,,,,,,,,,,,,,,,,,,,,,,,,,,,,,,,,,,,,,,,,,,
,,,,,,,,,,stimuli/images/PICTURE_470.png,BEAUTY,5f4565bdcd108b1460bd72f5,21/10/2001,2020-08-27_19h06.44.679,proactive3.1,2020.1.2,Win32,60,5f47c29a48bd2a1e651a6eb7,5f47f4e858dd3314a449b7a3,1,,,,,,motorbike,,,,,,0,21,21,26,1,3,2,,,,,,,,,,,,,,,,,,,,,,,,,,,,,,,,,,,,,,,,,,,,,,,,,,,,,,,,,,,,,,,,,,,,,,,,,,,,,,,,,,,,,,,,,,,,,,,,,,,,,,,,,,,,,
,,,,,,,,,,stimuli/images/PICTURE_68.png,KIND,5f4565bdcd108b1460bd72f5,21/10/2001,2020-08-27_19h06.44.679,proactive3.1,2020.1.2,Win32,60,5f47c29a48bd2a1e651a6eb7,5f47f4e858dd3314a449b7a3,1,,,,,,candle,,,,,,0,22,22,23,1,3,2,,,,,,,,,,,,,,,,,,,,,,,,,,,,,,,,,,,,,,,,,,,,,,,,,,,,,,,,,,,,,,,,,,,,,,,,,,,,,,,,,,,,,,,,,,,,,,,,,,,,,,,,,,,,,
,,,,,,,,,,stimuli/images/PICTURE_348.png,DUDE,5f4565bdcd108b1460bd72f5,21/10/2001,2020-08-27_19h06.44.679,proactive3.1,2020.1.2,Win32,60,5f47c29a48bd2a1e651a6eb7,5f47f4e858dd3314a449b7a3,1,,,,,,pepper,,,,,,0,23,23,59,1,6,2,,,,,,,,,,,,,,,,,,,,,,,,,,,,,,,,,,,,,,,,,,,,,,,,,,,,,,,,,,,,,,,,,,,,,,,,,,,,,,,,,,,,,,,,,,,,,,,,,,,,,,,,,,,,,
,,,,,,,,,,stimuli/images/PICTURE_327.png,LEADER,5f4565bdcd108b1460bd72f5,21/10/2001,2020-08-27_19h06.44.679,proactive3.1,2020.1.2,Win32,60,5f47c29a48bd2a1e651a6eb7,5f47f4e858dd3314a449b7a3,1,,,,,,helmet,,,,,,0,24,24,17,1,2,2,,,,,,,,,,,,,,,,,,,,,,,,,,,,,,,,,,,,,,,,,,,,,,,,,,,,,,,,,,,,,,,,,,,,,,,,,,,,,,,,,,,,,,,,,,,,,,,,,,,,,,,,,,,,,
,,,,,,,,,,stimuli/images/PICTURE_57.png,CANDY,5f4565bdcd108b1460bd72f5,21/10/2001,2020-08-27_19h06.44.679,proactive3.1,2020.1.2,Win32,60,5f47c29a48bd2a1e651a6eb7,5f47f4e858dd3314a449b7a3,1,,,,,,stamp,,,,,,0,25,25,52,1,6,2,,,,,,,,,,,,,,,,,,,,,,,,,,,,,,,,,,,,,,,,,,,,,,,,,,,,,,,,,,,,,,,,,,,,,,,,,,,,,,,,,,,,,,,,,,,,,,,,,,,,,,,,,,,,,
,,,,,,,,,,stimuli/images/PICTURE_208.png,SPIRIT,5f4565bdcd108b1460bd72f5,21/10/2001,2020-08-27_19h06.44.679,proactive3.1,2020.1.2,Win32,60,5f47c29a48bd2a1e651a6eb7,5f47f4e858dd3314a449b7a3,1,,,,,,microphone,,,,,,0,26,26,28,1,3,2,,,,,,,,,,,,,,,,,,,,,,,,,,,,,,,,,,,,,,,,,,,,,,,,,,,,,,,,,,,,,,,,,,,,,,,,,,,,,,,,,,,,,,,,,,,,,,,,,,,,,,,,,,,,,
,,,,,,,,,,stimuli/images/PICTURE_509.png,SHOTS,5f4565bdcd108b1460bd72f5,21/10/2001,2020-08-27_19h06.44.679,proactive3.1,2020.1.2,Win32,60,5f47c29a48bd2a1e651a6eb7,5f47f4e858dd3314a449b7a3,1,,,,,,telephone,,,,,,0,27,27,7,1,1,2,,,,,,,,,,,,,,,,,,,,,,,,,,,,,,,,,,,,,,,,,,,,,,,,,,,,,,,,,,,,,,,,,,,,,,,,,,,,,,,,,,,,,,,,,,,,,,,,,,,,,,,,,,,,,
,,,,,,,,,,stimuli/images/PICTURE_2.png,AREA,5f4565bdcd108b1460bd72f5,21/10/2001,2020-08-27_19h06.44.679,proactive3.1,2020.1.2,Win32,60,5f47c29a48bd2a1e651a6eb7,5f47f4e858dd3314a449b7a3,1,,,,,,tyre,,,,,,0,28,28,32,1,4,2,,,,,,,,,,,,,,,,,,,,,,,,,,,,,,,,,,,,,,,,,,,,,,,,,,,,,,,,,,,,,,,,,,,,,,,,,,,,,,,,,,,,,,,,,,,,,,,,,,,,,,,,,,,,,
,,,,,,,,,,stimuli/images/PICTURE_487.png,ROOF,5f4565bdcd108b1460bd72f5,21/10/2001,2020-08-27_19h06.44.679,proactive3.1,2020.1.2,Win32,60,5f47c29a48bd2a1e651a6eb7,5f47f4e858dd3314a449b7a3,1,,,,,,basket,,,,,,0,29,29,50,1,6,2,,,,,,,,,,,,,,,,,,,,,,,,,,,,,,,,,,,,,,,,,,,,,,,,,,,,,,,,,,,,,,,,,,,,,,,,,,,,,,,,,,,,,,,,,,,,,,,,,,,,,,,,,,,,,
,,,,,,,,,,stimuli/images/PICTURE_215.png,BOYS,5f4565bdcd108b1460bd72f5,21/10/2001,2020-08-27_19h06.44.679,proactive3.1,2020.1.2,Win32,60,5f47c29a48bd2a1e651a6eb7,5f47f4e858dd3314a449b7a3,1,,,,,,boot,,,,,,0,30,30,24,1,3,2,,,,,,,,,,,,,,,,,,,,,,,,,,,,,,,,,,,,,,,,,,,,,,,,,,,,,,,,,,,,,,,,,,,,,,,,,,,,,,,,,,,,,,,,,,,,,,,,,,,,,,,,,,,,,
,,,,,,,,,,stimuli/images/PICTURE_405.png,JUNGLE,5f4565bdcd108b1460bd72f5,21/10/2001,2020-08-27_19h06.44.679,proactive3.1,2020.1.2,Win32,60,5f47c29a48bd2a1e651a6eb7,5f47f4e858dd3314a449b7a3,1,,,,,,anchor,,,,,,0,31,31,13,1,2,2,,,,,,,,,,,,,,,,,,,,,,,,,,,,,,,,,,,,,,,,,,,,,,,,,,,,,,,,,,,,,,,,,,,,,,,,,,,,,,,,,,,,,,,,,,,,,,,,,,,,,,,,,,,,,
,,,,,,,,,,stimuli/images/PICTURE_677.png,PHOTO,5f4565bdcd108b1460bd72f5,21/10/2001,2020-08-27_19h06.44.679,proactive3.1,2020.1.2,Win32,60,5f47c29a48bd2a1e651a6eb7,5f47f4e858dd3314a449b7a3,1,,,,,,map,,,,,,0,32,32,14,1,2,2,,,,,,,,,,,,,,,,,,,,,,,,,,,,,,,,,,,,,,,,,,,,,,,,,,,,,,,,,,,,,,,,,,,,,,,,,,,,,,,,,,,,,,,,,,,,,,,,,,,,,,,,,,,,,
,,,,,,,,,,stimuli/images/PICTURE_654.png,YEAR,5f4565bdcd108b1460bd72f5,21/10/2001,2020-08-27_19h06.44.679,proactive3.1,2020.1.2,Win32,60,5f47c29a48bd2a1e651a6eb7,5f47f4e858dd3314a449b7a3,1,,,,,,pencil,,,,,,0,33,33,41,1,5,2,,,,,,,,,,,,,,,,,,,,,,,,,,,,,,,,,,,,,,,,,,,,,,,,,,,,,,,,,,,,,,,,,,,,,,,,,,,,,,,,,,,,,,,,,,,,,,,,,,,,,,,,,,,,,
,,,,,,,,,,stimuli/images/PICTURE_487.png,POLICY,5f4565bdcd108b1460bd72f5,21/10/2001,2020-08-27_19h06.44.679,proactive3.1,2020.1.2,Win32,60,5f47c29a48bd2a1e651a6eb7,5f47f4e858dd3314a449b7a3,1,,,,,,basket,,,,,,0,34,34,34,1,4,2,,,,,,,,,,,,,,,,,,,,,,,,,,,,,,,,,,,,,,,,,,,,,,,,,,,,,,,,,,,,,,,,,,,,,,,,,,,,,,,,,,,,,,,,,,,,,,,,,,,,,,,,,,,,,
,,,,,,,,,,stimuli/images/PICTURE_311.png,TOILET,5f4565bdcd108b1460bd72f5,21/10/2001,2020-08-27_19h06.44.679,proactive3.1,2020.1.2,Win32,60,5f47c29a48bd2a1e651a6eb7,5f47f4e858dd3314a449b7a3,1,,,,,,razor,,,,,,0,35,35,54,1,6,2,,,,,,,,,,,,,,,,,,,,,,,,,,,,,,,,,,,,,,,,,,,,,,,,,,,,,,,,,,,,,,,,,,,,,,,,,,,,,,,,,,,,,,,,,,,,,,,,,,,,,,,,,,,,,
,,,,,,,,,,stimuli/images/PICTURE_677.png,FAMILY,5f4565bdcd108b1460bd72f5,21/10/2001,2020-08-27_19h06.44.679,proactive3.1,2020.1.2,Win32,60,5f47c29a48bd2a1e651a6eb7,5f47f4e858dd3314a449b7a3,1,,,,,,map,,,,,,0,36,36,53,1,6,2,,,,,,,,,,,,,,,,,,,,,,,,,,,,,,,,,,,,,,,,,,,,,,,,,,,,,,,,,,,,,,,,,,,,,,,,,,,,,,,,,,,,,,,,,,,,,,,,,,,,,,,,,,,,,
,,,,,,,,,,stimuli/images/PICTURE_750.png,POLICY,5f4565bdcd108b1460bd72f5,21/10/2001,2020-08-27_19h06.44.679,proactive3.1,2020.1.2,Win32,60,5f47c29a48bd2a1e651a6eb7,5f47f4e858dd3314a449b7a3,1,,,,,,kettle,,,,,,0,37,37,44,1,5,2,,,,,,,,,,,,,,,,,,,,,,,,,,,,,,,,,,,,,,,,,,,,,,,,,,,,,,,,,,,,,,,,,,,,,,,,,,,,,,,,,,,,,,,,,,,,,,,,,,,,,,,,,,,,,
,,,,,,,,,,stimuli/images/PICTURE_2.png,JUNGLE,5f4565bdcd108b1460bd72f5,21/10/2001,2020-08-27_19h06.44.679,proactive3.1,2020.1.2,Win32,60,5f47c29a48bd2a1e651a6eb7,5f47f4e858dd3314a449b7a3,1,,,,,,tyre,,,,,,0,38,38,1,1,1,2,,,,,,,,,,,,,,,,,,,,,,,,,,,,,,,,,,,,,,,,,,,,,,,,,,,,,,,,,,,,,,,,,,,,,,,,,,,,,,,,,,,,,,,,,,,,,,,,,,,,,,,,,,,,,
,,,,,,,,,,stimuli/images/PICTURE_57.png,CASINO,5f4565bdcd108b1460bd72f5,21/10/2001,2020-08-27_19h06.44.679,proactive3.1,2020.1.2,Win32,60,5f47c29a48bd2a1e651a6eb7,5f47f4e858dd3314a449b7a3,1,,,,,,stamp,,,,,,0,39,39,12,1,2,2,,,,,,,,,,,,,,,,,,,,,,,,,,,,,,,,,,,,,,,,,,,,,,,,,,,,,,,,,,,,,,,,,,,,,,,,,,,,,,,,,,,,,,,,,,,,,,,,,,,,,,,,,,,,,
,,,,,,,,,,stimuli/images/PICTURE_32.png,LETTER,5f4565bdcd108b1460bd72f5,21/10/2001,2020-08-27_19h06.44.679,proactive3.1,2020.1.2,Win32,60,5f47c29a48bd2a1e651a6eb7,5f47f4e858dd3314a449b7a3,1,,,,,,crown,,,,,,0,40,40,56,1,6,2,,,,,,,,,,,,,,,,,,,,,,,,,,,,,,,,,,,,,,,,,,,,,,,,,,,,,,,,,,,,,,,,,,,,,,,,,,,,,,,,,,,,,,,,,,,,,,,,,,,,,,,,,,,,,
,,,,,,,,,,stimuli/images/PICTURE_215.png,FOOD,5f4565bdcd108b1460bd72f5,21/10/2001,2020-08-27_19h06.44.679,proactive3.1,2020.1.2,Win32,60,5f47c29a48bd2a1e651a6eb7,5f47f4e858dd3314a449b7a3,1,,,,,,boot,,,,,,0,41,41,5,1,1,2,,,,,,,,,,,,,,,,,,,,,,,,,,,,,,,,,,,,,,,,,,,,,,,,,,,,,,,,,,,,,,,,,,,,,,,,,,,,,,,,,,,,,,,,,,,,,,,,,,,,,,,,,,,,,
,,,,,,,,,,stimuli/images/PICTURE_509.png,APPLE,5f4565bdcd108b1460bd72f5,21/10/2001,2020-08-27_19h06.44.679,proactive3.1,2020.1.2,Win32,60,5f47c29a48bd2a1e651a6eb7,5f47f4e858dd3314a449b7a3,1,,,,,,telephone,,,,,,0,42,42,38,1,4,2,,,,,,,,,,,,,,,,,,,,,,,,,,,,,,,,,,,,,,,,,,,,,,,,,,,,,,,,,,,,,,,,,,,,,,,,,,,,,,,,,,,,,,,,,,,,,,,,,,,,,,,,,,,,,
,,,,,,,,,,stimuli/images/PICTURE_491.png,SERIES,5f4565bdcd108b1460bd72f5,21/10/2001,2020-08-27_19h06.44.679,proactive3.1,2020.1.2,Win32,60,5f47c29a48bd2a1e651a6eb7,5f47f4e858dd3314a449b7a3,1,,,,,,rug,,,,,,0,43,43,39,1,4,2,,,,,,,,,,,,,,,,,,,,,,,,,,,,,,,,,,,,,,,,,,,,,,,,,,,,,,,,,,,,,,,,,,,,,,,,,,,,,,,,,,,,,,,,,,,,,,,,,,,,,,,,,,,,,
,,,,,,,,,,stimuli/images/PICTURE_564.png,PLENTY,5f4565bdcd108b1460bd72f5,21/10/2001,2020-08-27_19h06.44.679,proactive3.1,2020.1.2,Win32,60,5f47c29a48bd2a1e651a6eb7,5f47f4e858dd3314a449b7a3,1,,,,,,spoon,,,,,,0,44,44,11,1,2,2,,,,,,,,,,,,,,,,,,,,,,,,,,,,,,,,,,,,,,,,,,,,,,,,,,,,,,,,,,,,,,,,,,,,,,,,,,,,,,,,,,,,,,,,,,,,,,,,,,,,,,,,,,,,,
,,,,,,,,,,stimuli/images/PICTURE_311.png,FLESH,5f4565bdcd108b1460bd72f5,21/10/2001,2020-08-27_19h06.44.679,proactive3.1,2020.1.2,Win32,60,5f47c29a48bd2a1e651a6eb7,5f47f4e858dd3314a449b7a3,1,,,,,,razor,,,,,,0,45,45,3,1,1,2,,,,,,,,,,,,,,,,,,,,,,,,,,,,,,,,,,,,,,,,,,,,,,,,,,,,,,,,,,,,,,,,,,,,,,,,,,,,,,,,,,,,,,,,,,,,,,,,,,,,,,,,,,,,,
,,,,,,,,,,stimuli/images/PICTURE_285.png,WRITER,5f4565bdcd108b1460bd72f5,21/10/2001,2020-08-27_19h06.44.679,proactive3.1,2020.1.2,Win32,60,5f47c29a48bd2a1e651a6eb7,5f47f4e858dd3314a449b7a3,1,,,,,,carrot,,,,,,0,46,46,6,1,1,2,,,,,,,,,,,,,,,,,,,,,,,,,,,,,,,,,,,,,,,,,,,,,,,,,,,,,,,,,,,,,,,,,,,,,,,,,,,,,,,,,,,,,,,,,,,,,,,,,,,,,,,,,,,,,
,,,,,,,,,,stimuli/images/PICTURE_2.png,YARD,5f4565bdcd108b1460bd72f5,21/10/2001,2020-08-27_19h06.44.679,proactive3.1,2020.1.2,Win32,60,5f47c29a48bd2a1e651a6eb7,5f47f4e858dd3314a449b7a3,1,,,,,,tyre,,,,,,0,47,47,55,1,6,2,,,,,,,,,,,,,,,,,,,,,,,,,,,,,,,,,,,,,,,,,,,,,,,,,,,,,,,,,,,,,,,,,,,,,,,,,,,,,,,,,,,,,,,,,,,,,,,,,,,,,,,,,,,,,
,,,,,,,,,,stimuli/images/PICTURE_147.png,LEADER,5f4565bdcd108b1460bd72f5,21/10/2001,2020-08-27_19h06.44.679,proactive3.1,2020.1.2,Win32,60,5f47c29a48bd2a1e651a6eb7,5f47f4e858dd3314a449b7a3,1,,,,,,hanger,,,,,,0,48,48,33,1,4,2,,,,,,,,,,,,,,,,,,,,,,,,,,,,,,,,,,,,,,,,,,,,,,,,,,,,,,,,,,,,,,,,,,,,,,,,,,,,,,,,,,,,,,,,,,,,,,,,,,,,,,,,,,,,,
,,,,,,,,,,stimuli/images/PICTURE_688.png,CLOCK,5f4565bdcd108b1460bd72f5,21/10/2001,2020-08-27_19h06.44.679,proactive3.1,2020.1.2,Win32,60,5f47c29a48bd2a1e651a6eb7,5f47f4e858dd3314a449b7a3,1,,,,,,runner,,,,,,0,49,49,42,1,5,2,,,,,,,,,,,,,,,,,,,,,,,,,,,,,,,,,,,,,,,,,,,,,,,,,,,,,,,,,,,,,,,,,,,,,,,,,,,,,,,,,,,,,,,,,,,,,,,,,,,,,,,,,,,,,
,,,,,,,,,,stimuli/images/PICTURE_255.png,PENNY,5f4565bdcd108b1460bd72f5,21/10/2001,2020-08-27_19h06.44.679,proactive3.1,2020.1.2,Win32,60,5f47c29a48bd2a1e651a6eb7,5f47f4e858dd3314a449b7a3,1,,,,,,shovel,,,,,,0,50,50,19,1,2,2,,,,,,,,,,,,,,,,,,,,,,,,,,,,,,,,,,,,,,,,,,,,,,,,,,,,,,,,,,,,,,,,,,,,,,,,,,,,,,,,,,,,,,,,,,,,,,,,,,,,,,,,,,,,,
,,,,,,,,,,stimuli/images/PICTURE_314.png,SPEECH,5f4565bdcd108b1460bd72f5,21/10/2001,2020-08-27_19h06.44.679,proactive3.1,2020.1.2,Win32,60,5f47c29a48bd2a1e651a6eb7,5f47f4e858dd3314a449b7a3,1,,,,,,perfume,,,,,,0,51,51,35,1,4,2,,,,,,,,,,,,,,,,,,,,,,,,,,,,,,,,,,,,,,,,,,,,,,,,,,,,,,,,,,,,,,,,,,,,,,,,,,,,,,,,,,,,,,,,,,,,,,,,,,,,,,,,,,,,,
,,,,,,,,,,stimuli/images/PICTURE_95.png,NIGHT,5f4565bdcd108b1460bd72f5,21/10/2001,2020-08-27_19h06.44.679,proactive3.1,2020.1.2,Win32,60,5f47c29a48bd2a1e651a6eb7,5f47f4e858dd3314a449b7a3,1,,,,,,suitcase,,,,,,0,52,52,37,1,4,2,,,,,,,,,,,,,,,,,,,,,,,,,,,,,,,,,,,,,,,,,,,,,,,,,,,,,,,,,,,,,,,,,,,,,,,,,,,,,,,,,,,,,,,,,,,,,,,,,,,,,,,,,,,,,
,,,,,,,,,,stimuli/images/PICTURE_215.png,LEADER,5f4565bdcd108b1460bd72f5,21/10/2001,2020-08-27_19h06.44.679,proactive3.1,2020.1.2,Win32,60,5f47c29a48bd2a1e651a6eb7,5f47f4e858dd3314a449b7a3,1,,,,,,boot,,,,,,0,53,53,43,1,5,2,,,,,,,,,,,,,,,,,,,,,,,,,,,,,,,,,,,,,,,,,,,,,,,,,,,,,,,,,,,,,,,,,,,,,,,,,,,,,,,,,,,,,,,,,,,,,,,,,,,,,,,,,,,,,
,,,,,,,,,,stimuli/images/PICTURE_123.png,SALE,5f4565bdcd108b1460bd72f5,21/10/2001,2020-08-27_19h06.44.679,proactive3.1,2020.1.2,Win32,60,5f47c29a48bd2a1e651a6eb7,5f47f4e858dd3314a449b7a3,1,,,,,,dart,,,,,,0,54,54,8,1,1,2,,,,,,,,,,,,,,,,,,,,,,,,,,,,,,,,,,,,,,,,,,,,,,,,,,,,,,,,,,,,,,,,,,,,,,,,,,,,,,,,,,,,,,,,,,,,,,,,,,,,,,,,,,,,,
,,,,,,,,,,stimuli/images/PICTURE_348.png,TOILET,5f4565bdcd108b1460bd72f5,21/10/2001,2020-08-27_19h06.44.679,proactive3.1,2020.1.2,Win32,60,5f47c29a48bd2a1e651a6eb7,5f47f4e858dd3314a449b7a3,1,,,,,,pepper,,,,,,0,55,55,4,1,1,2,,,,,,,,,,,,,,,,,,,,,,,,,,,,,,,,,,,,,,,,,,,,,,,,,,,,,,,,,,,,,,,,,,,,,,,,,,,,,,,,,,,,,,,,,,,,,,,,,,,,,,,,,,,,,
,,,,,,,,,,stimuli/images/PICTURE_453.png,FAMILY,5f4565bdcd108b1460bd72f5,21/10/2001,2020-08-27_19h06.44.679,proactive3.1,2020.1.2,Win32,60,5f47c29a48bd2a1e651a6eb7,5f47f4e858dd3314a449b7a3,1,,,,,,scissors,,,,,,0,56,56,48,1,5,2,,,,,,,,,,,,,,,,,,,,,,,,,,,,,,,,,,,,,,,,,,,,,,,,,,,,,,,,,,,,,,,,,,,,,,,,,,,,,,,,,,,,,,,,,,,,,,,,,,,,,,,,,,,,,
,,,,,,,,,,stimuli/images/PICTURE_405.png,HOUSE,5f4565bdcd108b1460bd72f5,21/10/2001,2020-08-27_19h06.44.679,proactive3.1,2020.1.2,Win32,60,5f47c29a48bd2a1e651a6eb7,5f47f4e858dd3314a449b7a3,1,,,,,,anchor,,,,,,0,57,57,2,1,1,2,,,,,,,,,,,,,,,,,,,,,,,,,,,,,,,,,,,,,,,,,,,,,,,,,,,,,,,,,,,,,,,,,,,,,,,,,,,,,,,,,,,,,,,,,,,,,,,,,,,,,,,,,,,,,
,,,,,,,,,,stimuli/images/PICTURE_297.png,BODY,5f4565bdcd108b1460bd72f5,21/10/2001,2020-08-27_19h06.44.679,proactive3.1,2020.1.2,Win32,60,5f47c29a48bd2a1e651a6eb7,5f47f4e858dd3314a449b7a3,1,,,,,,aeroplane,,,,,,0,58,58,51,1,6,2,,,,,,,,,,,,,,,,,,,,,,,,,,,,,,,,,,,,,,,,,,,,,,,,,,,,,,,,,,,,,,,,,,,,,,,,,,,,,,,,,,,,,,,,,,,,,,,,,,,,,,,,,,,,,
,,?,0.004635,0,,,,,,stimuli/images/PICTURE_2.png,YARD,5f4565bdcd108b1460bd72f5,21/10/2001,2020-08-27_19h06.44.679,proactive3.1,2020.1.2,Win32,60,5f47c29a48bd2a1e651a6eb7,5f47f4e858dd3314a449b7a3,1,,,,,,tyre,,,,,,,,,,,6,2,0,0,0,55,1,,,,,,,,,,,,,,,,,,,,,,,,,,,,,,,,,,,,,,,,,,,,,,,,,,,,,,,,,,,,,,,,,,,,,,,,,,,,,,,,,,,,,,,,,,,,,,,,,,,,,,,,
,,?,0.004505,0,,,,,,stimuli/images/PICTURE_453.png,FAMILY,5f4565bdcd108b1460bd72f5,21/10/2001,2020-08-27_19h06.44.679,proactive3.1,2020.1.2,Win32,60,5f47c29a48bd2a1e651a6eb7,5f47f4e858dd3314a449b7a3,1,,,,,,scissors,,,,,,,,,,,5,2,0,1,1,48,1,,,,,,,,,,,,,,,,,,,,,,,,,,,,,,,,,,,,,,,,,,,,,,,,,,,,,,,,,,,,,,,,,,,,,,,,,,,,,,,,,,,,,,,,,,,,,,,,,,,,,,,,
,,?,0.004235,0,,,,,,stimuli/images/PICTURE_677.png,PHOTO,5f4565bdcd108b1460bd72f5,21/10/2001,2020-08-27_19h06.44.679,proactive3.1,2020.1.2,Win32,60,5f47c29a48bd2a1e651a6eb7,5f47f4e858dd3314a449b7a3,1,,,,,,map,,,,,,,,,,,2,2,0,2,2,14,1,,,,,,,,,,,,,,,,,,,,,,,,,,,,,,,,,,,,,,,,,,,,,,,,,,,,,,,,,,,,,,,,,,,,,,,,,,,,,,,,,,,,,,,,,,,,,,,,,,,,,,,,
,,?,0.004085,0,,,,,,stimuli/images/PICTURE_285.png,PRINCE,5f4565bdcd108b1460bd72f5,21/10/2001,2020-08-27_19h06.44.679,proactive3.1,2020.1.2,Win32,60,5f47c29a48bd2a1e651a6eb7,5f47f4e858dd3314a449b7a3,1,,,,,,carrot,,,,,,,,,,,3,2,0,3,3,20,1,,,,,,,,,,,,,,,,,,,,,,,,,,,,,,,,,,,,,,,,,,,,,,,,,,,,,,,,,,,,,,,,,,,,,,,,,,,,,,,,,,,,,,,,,,,,,,,,,,,,,,,,
,,SALE,7.47884,1,,,,,,stimuli/images/PICTURE_123.png,SALE,5f4565bdcd108b1460bd72f5,21/10/2001,2020-08-27_19h06.44.679,proactive3.1,2020.1.2,Win32,60,5f47c29a48bd2a1e651a6eb7,5f47f4e858dd3314a449b7a3,1,,,,,,dart,,,,,,,,,,,1,2,0,4,4,8,1,,,,,,,,,,,,,,,,,,,,,,,,,,,,,,,,,,,,,,,,,,,,,,,,,,,,,,,,,,,,,,,,,,,,,,,,,,,,,,,,,,,,,,,,,,,,,,,,,,,,,,,,
,,?,0.00318,0,,,,,,stimuli/images/PICTURE_470.png,MOMENT,5f4565bdcd108b1460bd72f5,21/10/2001,2020-08-27_19h06.44.679,proactive3.1,2020.1.2,Win32,60,5f47c29a48bd2a1e651a6eb7,5f47f4e858dd3314a449b7a3,1,,,,,,motorbike,,,,,,,,,,,5,2,0,5,5,40,1,,,,,,,,,,,,,,,,,,,,,,,,,,,,,,,,,,,,,,,,,,,,,,,,,,,,,,,,,,,,,,,,,,,,,,,,,,,,,,,,,,,,,,,,,,,,,,,,,,,,,,,,
,,?,0.001905,0,,,,,,stimuli/images/PICTURE_147.png,LEADER,5f4565bdcd108b1460bd72f5,21/10/2001,2020-08-27_19h06.44.679,proactive3.1,2020.1.2,Win32,60,5f47c29a48bd2a1e651a6eb7,5f47f4e858dd3314a449b7a3,1,,,,,,hanger,,,,,,,,,,,4,2,0,6,6,33,1,,,,,,,,,,,,,,,,,,,,,,,,,,,,,,,,,,,,,,,,,,,,,,,,,,,,,,,,,,,,,,,,,,,,,,,,,,,,,,,,,,,,,,,,,,,,,,,,,,,,,,,,
,,?,0.00219,0,,,,,,stimuli/images/PICTURE_297.png,BODY,5f4565bdcd108b1460bd72f5,21/10/2001,2020-08-27_19h06.44.679,proactive3.1,2020.1.2,Win32,60,5f47c29a48bd2a1e651a6eb7,5f47f4e858dd3314a449b7a3,1,,,,,,aeroplane,,,,,,,,,,,6,2,0,7,7,51,1,,,,,,,,,,,,,,,,,,,,,,,,,,,,,,,,,,,,,,,,,,,,,,,,,,,,,,,,,,,,,,,,,,,,,,,,,,,,,,,,,,,,,,,,,,,,,,,,,,,,,,,,
,,?,0.00231,0,,,,,,stimuli/images/PICTURE_215.png,LEADER,5f4565bdcd108b1460bd72f5,21/10/2001,2020-08-27_19h06.44.679,proactive3.1,2020.1.2,Win32,60,5f47c29a48bd2a1e651a6eb7,5f47f4e858dd3314a449b7a3,1,,,,,,boot,,,,,,,,,,,5,2,0,8,8,43,1,,,,,,,,,,,,,,,,,,,,,,,,,,,,,,,,,,,,,,,,,,,,,,,,,,,,,,,,,,,,,,,,,,,,,,,,,,,,,,,,,,,,,,,,,,,,,,,,,,,,,,,,
,,?,0.00176,0,,,,,,stimuli/images/PICTURE_208.png,SPIRIT,5f4565bdcd108b1460bd72f5,21/10/2001,2020-08-27_19h06.44.679,proactive3.1,2020.1.2,Win32,60,5f47c29a48bd2a1e651a6eb7,5f47f4e858dd3314a449b7a3,1,,,,,,microphone,,,,,,,,,,,3,2,0,9,9,28,1,,,,,,,,,,,,,,,,,,,,,,,,,,,,,,,,,,,,,,,,,,,,,,,,,,,,,,,,,,,,,,,,,,,,,,,,,,,,,,,,,,,,,,,,,,,,,,,,,,,,,,,,
,,?,0.002025,0,,,,,,stimuli/images/PICTURE_509.png,BATH,5f4565bdcd108b1460bd72f5,21/10/2001,2020-08-27_19h06.44.679,proactive3.1,2020.1.2,Win32,60,5f47c29a48bd2a1e651a6eb7,5f47f4e858dd3314a449b7a3,1,,,,,,telephone,,,,,,,,,,,2,2,0,10,10,15,1,,,,,,,,,,,,,,,,,,,,,,,,,,,,,,,,,,,,,,,,,,,,,,,,,,,,,,,,,,,,,,,,,,,,,,,,,,,,,,,,,,,,,,,,,,,,,,,,,,,,,,,,
,,FOOD,3.67966,1,,,,,,stimuli/images/PICTURE_215.png,FOOD,5f4565bdcd108b1460bd72f5,21/10/2001,2020-08-27_19h06.44.679,proactive3.1,2020.1.2,Win32,60,5f47c29a48bd2a1e651a6eb7,5f47f4e858dd3314a449b7a3,1,,,,,,boot,,,,,,,,,,,1,2,0,11,11,5,1,,,,,,,,,,,,,,,,,,,,,,,,,,,,,,,,,,,,,,,,,,,,,,,,,,,,,,,,,,,,,,,,,,,,,,,,,,,,,,,,,,,,,,,,,,,,,,,,,,,,,,,,
,,?,0.00426,0,,,,,,stimuli/images/PICTURE_57.png,NATION,5f4565bdcd108b1460bd72f5,21/10/2001,2020-08-27_19h06.44.679,proactive3.1,2020.1.2,Win32,60,5f47c29a48bd2a1e651a6eb7,5f47f4e858dd3314a449b7a3,1,,,,,,stamp,,,,,,,,,,,3,2,0,12,12,21,1,,,,,,,,,,,,,,,,,,,,,,,,,,,,,,,,,,,,,,,,,,,,,,,,,,,,,,,,,,,,,,,,,,,,,,,,,,,,,,,,,,,,,,,,,,,,,,,,,,,,,,,,
,,WRITER,4.25389,1,,,,,,stimuli/images/PICTURE_285.png,WRITER,5f4565bdcd108b1460bd72f5,21/10/2001,2020-08-27_19h06.44.679,proactive3.1,2020.1.2,Win32,60,5f47c29a48bd2a1e651a6eb7,5f47f4e858dd3314a449b7a3,1,,,,,,carrot,,,,,,,,,,,1,2,0,13,13,6,1,,,,,,,,,,,,,,,,,,,,,,,,,,,,,,,,,,,,,,,,,,,,,,,,,,,,,,,,,,,,,,,,,,,,,,,,,,,,,,,,,,,,,,,,,,,,,,,,,,,,,,,,
,,FAMILY,4.272775,1,,,,,,stimuli/images/PICTURE_403.png,FAMILY,5f4565bdcd108b1460bd72f5,21/10/2001,2020-08-27_19h06.44.679,proactive3.1,2020.1.2,Win32,60,5f47c29a48bd2a1e651a6eb7,5f47f4e858dd3314a449b7a3,1,,,,,,cathedral,,,,,,,,,,,1,2,0,14,14,9,1,,,,,,,,,,,,,,,,,,,,,,,,,,,,,,,,,,,,,,,,,,,,,,,,,,,,,,,,,,,,,,,,,,,,,,,,,,,,,,,,,,,,,,,,,,,,,,,,,,,,,,,,
,,?,0.00294,0,,,,,,stimuli/images/PICTURE_177.png,HOUSE,5f4565bdcd108b1460bd72f5,21/10/2001,2020-08-27_19h06.44.679,proactive3.1,2020.1.2,Win32,60,5f47c29a48bd2a1e651a6eb7,5f47f4e858dd3314a449b7a3,1,,,,,,mushroom,,,,,,,,,,,3,2,0,15,15,25,1,,,,,,,,,,,,,,,,,,,,,,,,,,,,,,,,,,,,,,,,,,,,,,,,,,,,,,,,,,,,,,,,,,,,,,,,,,,,,,,,,,,,,,,,,,,,,,,,,,,,,,,,
,,?,0.004955,0,,,,,,stimuli/images/PICTURE_487.png,POLICY,5f4565bdcd108b1460bd72f5,21/10/2001,2020-08-27_19h06.44.679,proactive3.1,2020.1.2,Win32,60,5f47c29a48bd2a1e651a6eb7,5f47f4e858dd3314a449b7a3,1,,,,,,basket,,,,,,,,,,,4,2,0,16,16,34,1,,,,,,,,,,,,,,,,,,,,,,,,,,,,,,,,,,,,,,,,,,,,,,,,,,,,,,,,,,,,,,,,,,,,,,,,,,,,,,,,,,,,,,,,,,,,,,,,,,,,,,,,
,,?,0.00282,0,,,,,,stimuli/images/PICTURE_708.png,VALLEY,5f4565bdcd108b1460bd72f5,21/10/2001,2020-08-27_19h06.44.679,proactive3.1,2020.1.2,Win32,60,5f47c29a48bd2a1e651a6eb7,5f47f4e858dd3314a449b7a3,1,,,,,,monkey,,,,,,,,,,,5,2,0,17,17,45,1,,,,,,,,,,,,,,,,,,,,,,,,,,,,,,,,,,,,,,,,,,,,,,,,,,,,,,,,,,,,,,,,,,,,,,,,,,,,,,,,,,,,,,,,,,,,,,,,,,,,,,,,
,,?,0.002155,0,,,,,,stimuli/images/PICTURE_564.png,PLENTY,5f4565bdcd108b1460bd72f5,21/10/2001,2020-08-27_19h06.44.679,proactive3.1,2020.1.2,Win32,60,5f47c29a48bd2a1e651a6eb7,5f47f4e858dd3314a449b7a3,1,,,,,,spoon,,,,,,,,,,,2,2,0,18,18,11,1,,,,,,,,,,,,,,,,,,,,,,,,,,,,,,,,,,,,,,,,,,,,,,,,,,,,,,,,,,,,,,,,,,,,,,,,,,,,,,,,,,,,,,,,,,,,,,,,,,,,,,,,
,,?,0.00166,0,,,,,,stimuli/images/PICTURE_688.png,CLOCK,5f4565bdcd108b1460bd72f5,21/10/2001,2020-08-27_19h06.44.679,proactive3.1,2020.1.2,Win32,60,5f47c29a48bd2a1e651a6eb7,5f47f4e858dd3314a449b7a3,1,,,,,,runner,,,,,,,,,,,5,2,0,19,19,42,1,,,,,,,,,,,,,,,,,,,,,,,,,,,,,,,,,,,,,,,,,,,,,,,,,,,,,,,,,,,,,,,,,,,,,,,,,,,,,,,,,,,,,,,,,,,,,,,,,,,,,,,,
,,?,0.0017,0,,,,,,stimuli/images/PICTURE_348.png,DUDE,5f4565bdcd108b1460bd72f5,21/10/2001,2020-08-27_19h06.44.679,proactive3.1,2020.1.2,Win32,60,5f47c29a48bd2a1e651a6eb7,5f47f4e858dd3314a449b7a3,1,,,,,,pepper,,,,,,,,,,,6,2,0,20,20,59,1,,,,,,,,,,,,,,,,,,,,,,,,,,,,,,,,,,,,,,,,,,,,,,,,,,,,,,,,,,,,,,,,,,,,,,,,,,,,,,,,,,,,,,,,,,,,,,,,,,,,,,,,
,,?,0.001865,0,,,,,,stimuli/images/PICTURE_470.png,BEAUTY,5f4565bdcd108b1460bd72f5,21/10/2001,2020-08-27_19h06.44.679,proactive3.1,2020.1.2,Win32,60,5f47c29a48bd2a1e651a6eb7,5f47f4e858dd3314a449b7a3,1,,,,,,motorbike,,,,,,,,,,,3,2,0,21,21,26,1,,,,,,,,,,,,,,,,,,,,,,,,,,,,,,,,,,,,,,,,,,,,,,,,,,,,,,,,,,,,,,,,,,,,,,,,,,,,,,,,,,,,,,,,,,,,,,,,,,,,,,,,
,,?,0.00183,0,,,,,,stimuli/images/PICTURE_311.png,TOILET,5f4565bdcd108b1460bd72f5,21/10/2001,2020-08-27_19h06.44.679,proactive3.1,2020.1.2,Win32,60,5f47c29a48bd2a1e651a6eb7,5f47f4e858dd3314a449b7a3,1,,,,,,razor,,,,,,,,,,,6,2,0,22,22,54,1,,,,,,,,,,,,,,,,,,,,,,,,,,,,,,,,,,,,,,,,,,,,,,,,,,,,,,,,,,,,,,,,,,,,,,,,,,,,,,,,,,,,,,,,,,,,,,,,,,,,,,,,
,,?,0.001845,0,,,,,,stimuli/images/PICTURE_654.png,YEAR,5f4565bdcd108b1460bd72f5,21/10/2001,2020-08-27_19h06.44.679,proactive3.1,2020.1.2,Win32,60,5f47c29a48bd2a1e651a6eb7,5f47f4e858dd3314a449b7a3,1,,,,,,pencil,,,,,,,,,,,5,2,0,23,23,41,1,,,,,,,,,,,,,,,,,,,,,,,,,,,,,,,,,,,,,,,,,,,,,,,,,,,,,,,,,,,,,,,,,,,,,,,,,,,,,,,,,,,,,,,,,,,,,,,,,,,,,,,,
,,?,0.00183,0,,,,,,stimuli/images/PICTURE_2.png,AREA,5f4565bdcd108b1460bd72f5,21/10/2001,2020-08-27_19h06.44.679,proactive3.1,2020.1.2,Win32,60,5f47c29a48bd2a1e651a6eb7,5f47f4e858dd3314a449b7a3,1,,,,,,tyre,,,,,,,,,,,4,2,0,24,24,32,1,,,,,,,,,,,,,,,,,,,,,,,,,,,,,,,,,,,,,,,,,,,,,,,,,,,,,,,,,,,,,,,,,,,,,,,,,,,,,,,,,,,,,,,,,,,,,,,,,,,,,,,,
,,?,0.00176,0,,,,,,stimuli/images/PICTURE_677.png,FAMILY,5f4565bdcd108b1460bd72f5,21/10/2001,2020-08-27_19h06.44.679,proactive3.1,2020.1.2,Win32,60,5f47c29a48bd2a1e651a6eb7,5f47f4e858dd3314a449b7a3,1,,,,,,map,,,,,,,,,,,6,2,0,25,25,53,1,,,,,,,,,,,,,,,,,,,,,,,,,,,,,,,,,,,,,,,,,,,,,,,,,,,,,,,,,,,,,,,,,,,,,,,,,,,,,,,,,,,,,,,,,,,,,,,,,,,,,,,,
,,TOILET,4.557555,1,,,,,,stimuli/images/PICTURE_348.png,TOILET,5f4565bdcd108b1460bd72f5,21/10/2001,2020-08-27_19h06.44.679,proactive3.1,2020.1.2,Win32,60,5f47c29a48bd2a1e651a6eb7,5f47f4e858dd3314a449b7a3,1,,,,,,pepper,,,,,,,,,,,1,2,0,26,26,4,1,,,,,,,,,,,,,,,,,,,,,,,,,,,,,,,,,,,,,,,,,,,,,,,,,,,,,,,,,,,,,,,,,,,,,,,,,,,,,,,,,,,,,,,,,,,,,,,,,,,,,,,,
,,HOUSE,4.165095,1,,,,,,stimuli/images/PICTURE_405.png,HOUSE,5f4565bdcd108b1460bd72f5,21/10/2001,2020-08-27_19h06.44.679,proactive3.1,2020.1.2,Win32,60,5f47c29a48bd2a1e651a6eb7,5f47f4e858dd3314a449b7a3,1,,,,,,anchor,,,,,,,,,,,1,2,0,27,27,2,1,,,,,,,,,,,,,,,,,,,,,,,,,,,,,,,,,,,,,,,,,,,,,,,,,,,,,,,,,,,,,,,,,,,,,,,,,,,,,,,,,,,,,,,,,,,,,,,,,,,,,,,,
,,?,0.00539,0,,,,,,stimuli/images/PICTURE_93.png,GIRL,5f4565bdcd108b1460bd72f5,21/10/2001,2020-08-27_19h06.44.679,proactive3.1,2020.1.2,Win32,60,5f47c29a48bd2a1e651a6eb7,5f47f4e858dd3314a449b7a3,1,,,,,,skateboard,,,,,,,,,,,4,2,0,28,28,31,1,,,,,,,,,,,,,,,,,,,,,,,,,,,,,,,,,,,,,,,,,,,,,,,,,,,,,,,,,,,,,,,,,,,,,,,,,,,,,,,,,,,,,,,,,,,,,,,,,,,,,,,,
,,?,0.00508,0,,,,,,stimuli/images/PICTURE_509.png,APPLE,5f4565bdcd108b1460bd72f5,21/10/2001,2020-08-27_19h06.44.679,proactive3.1,2020.1.2,Win32,60,5f47c29a48bd2a1e651a6eb7,5f47f4e858dd3314a449b7a3,1,,,,,,telephone,,,,,,,,,,,4,2,0,29,29,38,1,,,,,,,,,,,,,,,,,,,,,,,,,,,,,,,,,,,,,,,,,,,,,,,,,,,,,,,,,,,,,,,,,,,,,,,,,,,,,,,,,,,,,,,,,,,,,,,,,,,,,,,,
,,?,0.005805,0,,,,,,stimuli/images/PICTURE_32.png,LETTER,5f4565bdcd108b1460bd72f5,21/10/2001,2020-08-27_19h06.44.679,proactive3.1,2020.1.2,Win32,60,5f47c29a48bd2a1e651a6eb7,5f47f4e858dd3314a449b7a3,1,,,,,,crown,,,,,,,,,,,6,2,0,30,30,56,1,,,,,,,,,,,,,,,,,,,,,,,,,,,,,,,,,,,,,,,,,,,,,,,,,,,,,,,,,,,,,,,,,,,,,,,,,,,,,,,,,,,,,,,,,,,,,,,,,,,,,,,,
,,?,0.00465,0,,,,,,stimuli/images/PICTURE_509.png,MILLER,5f4565bdcd108b1460bd72f5,21/10/2001,2020-08-27_19h06.44.679,proactive3.1,2020.1.2,Win32,60,5f47c29a48bd2a1e651a6eb7,5f47f4e858dd3314a449b7a3,1,,,,,,telephone,,,,,,,,,,,5,2,0,31,31,49,1,,,,,,,,,,,,,,,,,,,,,,,,,,,,,,,,,,,,,,,,,,,,,,,,,,,,,,,,,,,,,,,,,,,,,,,,,,,,,,,,,,,,,,,,,,,,,,,,,,,,,,,,
,,?,0.004475,0,,,,,,stimuli/images/PICTURE_255.png,PENNY,5f4565bdcd108b1460bd72f5,21/10/2001,2020-08-27_19h06.44.679,proactive3.1,2020.1.2,Win32,60,5f47c29a48bd2a1e651a6eb7,5f47f4e858dd3314a449b7a3,1,,,,,,shovel,,,,,,,,,,,2,2,0,32,32,19,1,,,,,,,,,,,,,,,,,,,,,,,,,,,,,,,,,,,,,,,,,,,,,,,,,,,,,,,,,,,,,,,,,,,,,,,,,,,,,,,,,,,,,,,,,,,,,,,,,,,,,,,,
,,?,0.004825,0,,,,,,stimuli/images/PICTURE_504.png,HOUSE,5f4565bdcd108b1460bd72f5,21/10/2001,2020-08-27_19h06.44.679,proactive3.1,2020.1.2,Win32,60,5f47c29a48bd2a1e651a6eb7,5f47f4e858dd3314a449b7a3,1,,,,,,wheel,,,,,,,,,,,4,2,0,33,33,36,1,,,,,,,,,,,,,,,,,,,,,,,,,,,,,,,,,,,,,,,,,,,,,,,,,,,,,,,,,,,,,,,,,,,,,,,,,,,,,,,,,,,,,,,,,,,,,,,,,,,,,,,,
,,?,0.0058,0,,,,,,stimuli/images/PICTURE_405.png,JUNGLE,5f4565bdcd108b1460bd72f5,21/10/2001,2020-08-27_19h06.44.679,proactive3.1,2020.1.2,Win32,60,5f47c29a48bd2a1e651a6eb7,5f47f4e858dd3314a449b7a3,1,,,,,,anchor,,,,,,,,,,,6,2,0,34,34,58,1,,,,,,,,,,,,,,,,,,,,,,,,,,,,,,,,,,,,,,,,,,,,,,,,,,,,,,,,,,,,,,,,,,,,,,,,,,,,,,,,,,,,,,,,,,,,,,,,,,,,,,,,
,,?,0.004305,0,,,,,,stimuli/images/PICTURE_491.png,SERIES,5f4565bdcd108b1460bd72f5,21/10/2001,2020-08-27_19h06.44.679,proactive3.1,2020.1.2,Win32,60,5f47c29a48bd2a1e651a6eb7,5f47f4e858dd3314a449b7a3,1,,,,,,rug,,,,,,,,,,,4,2,0,35,35,39,1,,,,,,,,,,,,,,,,,,,,,,,,,,,,,,,,,,,,,,,,,,,,,,,,,,,,,,,,,,,,,,,,,,,,,,,,,,,,,,,,,,,,,,,,,,,,,,,,,,,,,,,,
,,COPS,5.548615,1,,,,,,stimuli/images/PICTURE_452.png,COPS,5f4565bdcd108b1460bd72f5,21/10/2001,2020-08-27_19h06.44.679,proactive3.1,2020.1.2,Win32,60,5f47c29a48bd2a1e651a6eb7,5f47f4e858dd3314a449b7a3,1,,,,,,watch,,,,,,,,,,,1,2,0,36,36,0,1,,,,,,,,,,,,,,,,,,,,,,,,,,,,,,,,,,,,,,,,,,,,,,,,,,,,,,,,,,,,,,,,,,,,,,,,,,,,,,,,,,,,,,,,,,,,,,,,,,,,,,,,
,,?,0.0045,0,,,,,,stimuli/images/PICTURE_655.png,SALE,5f4565bdcd108b1460bd72f5,21/10/2001,2020-08-27_19h06.44.679,proactive3.1,2020.1.2,Win32,60,5f47c29a48bd2a1e651a6eb7,5f47f4e858dd3314a449b7a3,1,,,,,,megaphone,,,,,,,,,,,6,2,0,37,37,57,1,,,,,,,,,,,,,,,,,,,,,,,,,,,,,,,,,,,,,,,,,,,,,,,,,,,,,,,,,,,,,,,,,,,,,,,,,,,,,,,,,,,,,,,,,,,,,,,,,,,,,,,,
,,?,0.00332,0,,,,,,stimuli/images/PICTURE_314.png,SPEECH,5f4565bdcd108b1460bd72f5,21/10/2001,2020-08-27_19h06.44.679,proactive3.1,2020.1.2,Win32,60,5f47c29a48bd2a1e651a6eb7,5f47f4e858dd3314a449b7a3,1,,,,,,perfume,,,,,,,,,,,4,2,0,38,38,35,1,,,,,,,,,,,,,,,,,,,,,,,,,,,,,,,,,,,,,,,,,,,,,,,,,,,,,,,,,,,,,,,,,,,,,,,,,,,,,,,,,,,,,,,,,,,,,,,,,,,,,,,,
,,FLESH,4.08023,1,,,,,,stimuli/images/PICTURE_311.png,FLESH,5f4565bdcd108b1460bd72f5,21/10/2001,2020-08-27_19h06.44.679,proactive3.1,2020.1.2,Win32,60,5f47c29a48bd2a1e651a6eb7,5f47f4e858dd3314a449b7a3,1,,,,,,razor,,,,,,,,,,,1,2,0,39,39,3,1,,,,,,,,,,,,,,,,,,,,,,,,,,,,,,,,,,,,,,,,,,,,,,,,,,,,,,,,,,,,,,,,,,,,,,,,,,,,,,,,,,,,,,,,,,,,,,,,,,,,,,,,
,,?,0.00459,0,,,,,,stimuli/images/PICTURE_57.png,CASINO,5f4565bdcd108b1460bd72f5,21/10/2001,2020-08-27_19h06.44.679,proactive3.1,2020.1.2,Win32,60,5f47c29a48bd2a1e651a6eb7,5f47f4e858dd3314a449b7a3,1,,,,,,stamp,,,,,,,,,,,2,2,0,40,40,12,1,,,,,,,,,,,,,,,,,,,,,,,,,,,,,,,,,,,,,,,,,,,,,,,,,,,,,,,,,,,,,,,,,,,,,,,,,,,,,,,,,,,,,,,,,,,,,,,,,,,,,,,,
,,?,0.003015,0,,,,,,stimuli/images/PICTURE_33.png,COPS,5f4565bdcd108b1460bd72f5,21/10/2001,2020-08-27_19h06.44.679,proactive3.1,2020.1.2,Win32,60,5f47c29a48bd2a1e651a6eb7,5f47f4e858dd3314a449b7a3,1,,,,,,frame,,,,,,,,,,,3,2,0,41,41,29,1,,,,,,,,,,,,,,,,,,,,,,,,,,,,,,,,,,,,,,,,,,,,,,,,,,,,,,,,,,,,,,,,,,,,,,,,,,,,,,,,,,,,,,,,,,,,,,,,,,,,,,,,
,,?,0.00336,0,,,,,,stimuli/images/PICTURE_296.png,CLOCK,5f4565bdcd108b1460bd72f5,21/10/2001,2020-08-27_19h06.44.679,proactive3.1,2020.1.2,Win32,60,5f47c29a48bd2a1e651a6eb7,5f47f4e858dd3314a449b7a3,1,,,,,,bolt,,,,,,,,,,,2,2,0,42,42,18,1,,,,,,,,,,,,,,,,,,,,,,,,,,,,,,,,,,,,,,,,,,,,,,,,,,,,,,,,,,,,,,,,,,,,,,,,,,,,,,,,,,,,,,,,,,,,,,,,,,,,,,,,
,,?,0.002885,0,,,,,,stimuli/images/PICTURE_405.png,JUNGLE,5f4565bdcd108b1460bd72f5,21/10/2001,2020-08-27_19h06.44.679,proactive3.1,2020.1.2,Win32,60,5f47c29a48bd2a1e651a6eb7,5f47f4e858dd3314a449b7a3,1,,,,,,anchor,,,,,,,,,,,2,2,0,43,43,13,1,,,,,,,,,,,,,,,,,,,,,,,,,,,,,,,,,,,,,,,,,,,,,,,,,,,,,,,,,,,,,,,,,,,,,,,,,,,,,,,,,,,,,,,,,,,,,,,,,,,,,,,,
,,SHOTS,4.06474,1,,,,,,stimuli/images/PICTURE_509.png,SHOTS,5f4565bdcd108b1460bd72f5,21/10/2001,2020-08-27_19h06.44.679,proactive3.1,2020.1.2,Win32,60,5f47c29a48bd2a1e651a6eb7,5f47f4e858dd3314a449b7a3,1,,,,,,telephone,,,,,,,,,,,1,2,0,44,44,7,1,,,,,,,,,,,,,,,,,,,,,,,,,,,,,,,,,,,,,,,,,,,,,,,,,,,,,,,,,,,,,,,,,,,,,,,,,,,,,,,,,,,,,,,,,,,,,,,,,,,,,,,,
,,?,0.009365,0,,,,,,stimuli/images/PICTURE_18.png,RIVER,5f4565bdcd108b1460bd72f5,21/10/2001,2020-08-27_19h06.44.679,proactive3.1,2020.1.2,Win32,60,5f47c29a48bd2a1e651a6eb7,5f47f4e858dd3314a449b7a3,1,,,,,,planet,,,,,,,,,,,3,2,0,45,45,22,1,,,,,,,,,,,,,,,,,,,,,,,,,,,,,,,,,,,,,,,,,,,,,,,,,,,,,,,,,,,,,,,,,,,,,,,,,,,,,,,,,,,,,,,,,,,,,,,,,,,,,,,,
,,?,0.003605,0,,,,,,stimuli/images/PICTURE_487.png,ROOF,5f4565bdcd108b1460bd72f5,21/10/2001,2020-08-27_19h06.44.679,proactive3.1,2020.1.2,Win32,60,5f47c29a48bd2a1e651a6eb7,5f47f4e858dd3314a449b7a3,1,,,,,,basket,,,,,,,,,,,6,2,0,46,46,50,1,,,,,,,,,,,,,,,,,,,,,,,,,,,,,,,,,,,,,,,,,,,,,,,,,,,,,,,,,,,,,,,,,,,,,,,,,,,,,,,,,,,,,,,,,,,,,,,,,,,,,,,,
,,?,0.00308,0,,,,,,stimuli/images/PICTURE_327.png,LEADER,5f4565bdcd108b1460bd72f5,21/10/2001,2020-08-27_19h06.44.679,proactive3.1,2020.1.2,Win32,60,5f47c29a48bd2a1e651a6eb7,5f47f4e858dd3314a449b7a3,1,,,,,,helmet,,,,,,,,,,,2,2,0,47,47,17,1,,,,,,,,,,,,,,,,,,,,,,,,,,,,,,,,,,,,,,,,,,,,,,,,,,,,,,,,,,,,,,,,,,,,,,,,,,,,,,,,,,,,,,,,,,,,,,,,,,,,,,,,
,,?,0.002745,0,,,,,,stimuli/images/PICTURE_654.png,COPS,5f4565bdcd108b1460bd72f5,21/10/2001,2020-08-27_19h06.44.679,proactive3.1,2020.1.2,Win32,60,5f47c29a48bd2a1e651a6eb7,5f47f4e858dd3314a449b7a3,1,,,,,,pencil,,,,,,,,,,,2,2,0,48,48,10,1,,,,,,,,,,,,,,,,,,,,,,,,,,,,,,,,,,,,,,,,,,,,,,,,,,,,,,,,,,,,,,,,,,,,,,,,,,,,,,,,,,,,,,,,,,,,,,,,,,,,,,,,
,,?,0.00307,0,,,,,,stimuli/images/PICTURE_356.png,CANDY,5f4565bdcd108b1460bd72f5,21/10/2001,2020-08-27_19h06.44.679,proactive3.1,2020.1.2,Win32,60,5f47c29a48bd2a1e651a6eb7,5f47f4e858dd3314a449b7a3,1,,,,,,pawn,,,,,,,,,,,5,2,0,49,49,46,1,,,,,,,,,,,,,,,,,,,,,,,,,,,,,,,,,,,,,,,,,,,,,,,,,,,,,,,,,,,,,,,,,,,,,,,,,,,,,,,,,,,,,,,,,,,,,,,,,,,,,,,,
,,?,0.00189,0,,,,,,stimuli/images/PICTURE_95.png,NIGHT,5f4565bdcd108b1460bd72f5,21/10/2001,2020-08-27_19h06.44.679,proactive3.1,2020.1.2,Win32,60,5f47c29a48bd2a1e651a6eb7,5f47f4e858dd3314a449b7a3,1,,,,,,suitcase,,,,,,,,,,,4,2,0,50,50,37,1,,,,,,,,,,,,,,,,,,,,,,,,,,,,,,,,,,,,,,,,,,,,,,,,,,,,,,,,,,,,,,,,,,,,,,,,,,,,,,,,,,,,,,,,,,,,,,,,,,,,,,,,
,,?,0.00195,0,,,,,,stimuli/images/PICTURE_750.png,POLICY,5f4565bdcd108b1460bd72f5,21/10/2001,2020-08-27_19h06.44.679,proactive3.1,2020.1.2,Win32,60,5f47c29a48bd2a1e651a6eb7,5f47f4e858dd3314a449b7a3,1,,,,,,kettle,,,,,,,,,,,5,2,0,51,51,44,1,,,,,,,,,,,,,,,,,,,,,,,,,,,,,,,,,,,,,,,,,,,,,,,,,,,,,,,,,,,,,,,,,,,,,,,,,,,,,,,,,,,,,,,,,,,,,,,,,,,,,,,,
,,?,0.00194,0,,,,,,stimuli/images/PICTURE_68.png,KIND,5f4565bdcd108b1460bd72f5,21/10/2001,2020-08-27_19h06.44.679,proactive3.1,2020.1.2,Win32,60,5f47c29a48bd2a1e651a6eb7,5f47f4e858dd3314a449b7a3,1,,,,,,candle,,,,,,,,,,,3,2,0,52,52,23,1,,,,,,,,,,,,,,,,,,,,,,,,,,,,,,,,,,,,,,,,,,,,,,,,,,,,,,,,,,,,,,,,,,,,,,,,,,,,,,,,,,,,,,,,,,,,,,,,,,,,,,,,
,,JUNGLE,3.698355,1,,,,,,stimuli/images/PICTURE_2.png,JUNGLE,5f4565bdcd108b1460bd72f5,21/10/2001,2020-08-27_19h06.44.679,proactive3.1,2020.1.2,Win32,60,5f47c29a48bd2a1e651a6eb7,5f47f4e858dd3314a449b7a3,1,,,,,,tyre,,,,,,,,,,,1,2,0,53,53,1,1,,,,,,,,,,,,,,,,,,,,,,,,,,,,,,,,,,,,,,,,,,,,,,,,,,,,,,,,,,,,,,,,,,,,,,,,,,,,,,,,,,,,,,,,,,,,,,,,,,,,,,,,
,,?,0.00436,0,,,,,,stimuli/images/PICTURE_57.png,CANDY,5f4565bdcd108b1460bd72f5,21/10/2001,2020-08-27_19h06.44.679,proactive3.1,2020.1.2,Win32,60,5f47c29a48bd2a1e651a6eb7,5f47f4e858dd3314a449b7a3,1,,,,,,stamp,,,,,,,,,,,6,2,0,54,54,52,1,,,,,,,,,,,,,,,,,,,,,,,,,,,,,,,,,,,,,,,,,,,,,,,,,,,,,,,,,,,,,,,,,,,,,,,,,,,,,,,,,,,,,,,,,,,,,,,,,,,,,,,,
,,?,0.00287,0,,,,,,stimuli/images/PICTURE_667.png,GLASS,5f4565bdcd108b1460bd72f5,21/10/2001,2020-08-27_19h06.44.679,proactive3.1,2020.1.2,Win32,60,5f47c29a48bd2a1e651a6eb7,5f47f4e858dd3314a449b7a3,1,,,,,,daisy,,,,,,,,,,,3,2,0,55,55,27,1,,,,,,,,,,,,,,,,,,,,,,,,,,,,,,,,,,,,,,,,,,,,,,,,,,,,,,,,,,,,,,,,,,,,,,,,,,,,,,,,,,,,,,,,,,,,,,,,,,,,,,,,
,,?,0.00268,0,,,,,,stimuli/images/PICTURE_215.png,BOYS,5f4565bdcd108b1460bd72f5,21/10/2001,2020-08-27_19h06.44.679,proactive3.1,2020.1.2,Win32,60,5f47c29a48bd2a1e651a6eb7,5f47f4e858dd3314a449b7a3,1,,,,,,boot,,,,,,,,,,,3,2,0,56,56,24,1,,,,,,,,,,,,,,,,,,,,,,,,,,,,,,,,,,,,,,,,,,,,,,,,,,,,,,,,,,,,,,,,,,,,,,,,,,,,,,,,,,,,,,,,,,,,,,,,,,,,,,,,
,,?,0.002445,0,,,,,,stimuli/images/PICTURE_141.png,CLIENT,5f4565bdcd108b1460bd72f5,21/10/2001,2020-08-27_19h06.44.679,proactive3.1,2020.1.2,Win32,60,5f47c29a48bd2a1e651a6eb7,5f47f4e858dd3314a449b7a3,1,,,,,,sunflower,,,,,,,,,,,4,2,0,57,57,30,1,,,,,,,,,,,,,,,,,,,,,,,,,,,,,,,,,,,,,,,,,,,,,,,,,,,,,,,,,,,,,,,,,,,,,,,,,,,,,,,,,,,,,,,,,,,,,,,,,,,,,,,,
,,?,0.001775,0,,,,,,stimuli/images/PICTURE_160.png,HOTEL,5f4565bdcd108b1460bd72f5,21/10/2001,2020-08-27_19h06.44.679,proactive3.1,2020.1.2,Win32,60,5f47c29a48bd2a1e651a6eb7,5f47f4e858dd3314a449b7a3,1,,,,,,wheelbarrow,,,,,,,,,,,2,2,0,58,58,16,1,,,,,,,,,,,,,,,,,,,,,,,,,,,,,,,,,,,,,,,,,,,,,,,,,,,,,,,,,,,,,,,,,,,,,,,,,,,,,,,,,,,,,,,,,,,,,,,,,,,,,,,,
,,?,0.001925,0,,,,,,stimuli/images/PICTURE_692.png,DUDE,5f4565bdcd108b1460bd72f5,21/10/2001,2020-08-27_19h06.44.679,proactive3.1,2020.1.2,Win32,60,5f47c29a48bd2a1e651a6eb7,5f47f4e858dd3314a449b7a3,1,,,,,,cherry,,,,,,,,,,,5,2,0,59,59,47,1,,,,,,,,,,,,,,,,,,,,,,,,,,,,,,,,,,,,,,,,,,,,,,,,,,,,,,,,,,,,,,,,,,,,,,,,,,,,,,,,,,,,,,,,,,,,,,,,,,,,,,,,
,,,,,,,,,,,,5f4565bdcd108b1460bd72f5,21/10/2001,2020-08-27_19h06.44.679,proactive3.1,2020.1.2,Win32,60,5f47c29a48bd2a1e651a6eb7,5f47f4e858dd3314a449b7a3,1,,,,,,,,,,,,,,,,,,,,,,,,0,1,1,2,1,stimuli/learn-block3.csv,,,,,,,,,,,,,,,,,,,,,,,,,,,,,,,,,,,,,,,,,,,,,,,,,,,,,,,,,,,,,,,,,,,,,,,,,,,,,,,,,,,,,,,,,,,,,,,,,,
,,,,,,,,,,stimuli/images/PICTURE_383.png,WRITER,5f4565bdcd108b1460bd72f5,21/10/2001,2020-08-27_19h06.44.679,proactive3.1,2020.1.2,Win32,60,5f47c29a48bd2a1e651a6eb7,5f47f4e858dd3314a449b7a3,1,,,,,,coin,,,,,,0,0,0,28,1,3,1,,,,,,,,,,,,,,,,,,,,,,,,,,,,,,,,,,,,,,,,,,,,,,,,,,,,,,,,,,,,,,,,,,,,,,,,,,,,,,,,,,,,,,,,,,,,,,,,,,,,,,,,,,,,,
,,,,,,,,,,stimuli/images/PICTURE_85.png,NATION,5f4565bdcd108b1460bd72f5,21/10/2001,2020-08-27_19h06.44.679,proactive3.1,2020.1.2,Win32,60,5f47c29a48bd2a1e651a6eb7,5f47f4e858dd3314a449b7a3,1,,,,,,diamond,,,,,,0,1,1,5,1,1,1,,,,,,,,,,,,,,,,,,,,,,,,,,,,,,,,,,,,,,,,,,,,,,,,,,,,,,,,,,,,,,,,,,,,,,,,,,,,,,,,,,,,,,,,,,,,,,,,,,,,,,,,,,,,,
,,,,,,,,,,stimuli/images/PICTURE_95.png,MILLER,5f4565bdcd108b1460bd72f5,21/10/2001,2020-08-27_19h06.44.679,proactive3.1,2020.1.2,Win32,60,5f47c29a48bd2a1e651a6eb7,5f47f4e858dd3314a449b7a3,1,,,,,,suitcase,,,,,,0,2,2,56,1,6,1,,,,,,,,,,,,,,,,,,,,,,,,,,,,,,,,,,,,,,,,,,,,,,,,,,,,,,,,,,,,,,,,,,,,,,,,,,,,,,,,,,,,,,,,,,,,,,,,,,,,,,,,,,,,,
,,,,,,,,,,stimuli/images/PICTURE_32.png,PILLS,5f4565bdcd108b1460bd72f5,21/10/2001,2020-08-27_19h06.44.679,proactive3.1,2020.1.2,Win32,60,5f47c29a48bd2a1e651a6eb7,5f47f4e858dd3314a449b7a3,1,,,,,,crown,,,,,,0,3,3,18,1,2,1,,,,,,,,,,,,,,,,,,,,,,,,,,,,,,,,,,,,,,,,,,,,,,,,,,,,,,,,,,,,,,,,,,,,,,,,,,,,,,,,,,,,,,,,,,,,,,,,,,,,,,,,,,,,,
,,,,,,,,,,stimuli/images/PICTURE_285.png,LIFE,5f4565bdcd108b1460bd72f5,21/10/2001,2020-08-27_19h06.44.679,proactive3.1,2020.1.2,Win32,60,5f47c29a48bd2a1e651a6eb7,5f47f4e858dd3314a449b7a3,1,,,,,,carrot,,,,,,0,4,4,33,1,4,1,,,,,,,,,,,,,,,,,,,,,,,,,,,,,,,,,,,,,,,,,,,,,,,,,,,,,,,,,,,,,,,,,,,,,,,,,,,,,,,,,,,,,,,,,,,,,,,,,,,,,,,,,,,,,
,,,,,,,,,,stimuli/images/PICTURE_655.png,TOILET,5f4565bdcd108b1460bd72f5,21/10/2001,2020-08-27_19h06.44.679,proactive3.1,2020.1.2,Win32,60,5f47c29a48bd2a1e651a6eb7,5f47f4e858dd3314a449b7a3,1,,,,,,megaphone,,,,,,0,5,5,12,1,2,1,,,,,,,,,,,,,,,,,,,,,,,,,,,,,,,,,,,,,,,,,,,,,,,,,,,,,,,,,,,,,,,,,,,,,,,,,,,,,,,,,,,,,,,,,,,,,,,,,,,,,,,,,,,,,
,,,,,,,,,,stimuli/images/PICTURE_297.png,RIVER,5f4565bdcd108b1460bd72f5,21/10/2001,2020-08-27_19h06.44.679,proactive3.1,2020.1.2,Win32,60,5f47c29a48bd2a1e651a6eb7,5f47f4e858dd3314a449b7a3,1,,,,,,aeroplane,,,,,,0,6,6,39,1,4,1,,,,,,,,,,,,,,,,,,,,,,,,,,,,,,,,,,,,,,,,,,,,,,,,,,,,,,,,,,,,,,,,,,,,,,,,,,,,,,,,,,,,,,,,,,,,,,,,,,,,,,,,,,,,,
,,,,,,,,,,stimuli/images/PICTURE_147.png,YEAR,5f4565bdcd108b1460bd72f5,21/10/2001,2020-08-27_19h06.44.679,proactive3.1,2020.1.2,Win32,60,5f47c29a48bd2a1e651a6eb7,5f47f4e858dd3314a449b7a3,1,,,,,,hanger,,,,,,0,7,7,21,1,3,1,,,,,,,,,,,,,,,,,,,,,,,,,,,,,,,,,,,,,,,,,,,,,,,,,,,,,,,,,,,,,,,,,,,,,,,,,,,,,,,,,,,,,,,,,,,,,,,,,,,,,,,,,,,,,
,,,,,,,,,,stimuli/images/PICTURE_327.png,CASINO,5f4565bdcd108b1460bd72f5,21/10/2001,2020-08-27_19h06.44.679,proactive3.1,2020.1.2,Win32,60,5f47c29a48bd2a1e651a6eb7,5f47f4e858dd3314a449b7a3,1,,,,,,helmet,,,,,,0,8,8,20,1,3,1,,,,,,,,,,,,,,,,,,,,,,,,,,,,,,,,,,,,,,,,,,,,,,,,,,,,,,,,,,,,,,,,,,,,,,,,,,,,,,,,,,,,,,,,,,,,,,,,,,,,,,,,,,,,,
,,,,,,,,,,stimuli/images/PICTURE_85.png,TOILET,5f4565bdcd108b1460bd72f5,21/10/2001,2020-08-27_19h06.44.679,proactive3.1,2020.1.2,Win32,60,5f47c29a48bd2a1e651a6eb7,5f47f4e858dd3314a449b7a3,1,,,,,,diamond,,,,,,0,9,9,48,1,5,1,,,,,,,,,,,,,,,,,,,,,,,,,,,,,,,,,,,,,,,,,,,,,,,,,,,,,,,,,,,,,,,,,,,,,,,,,,,,,,,,,,,,,,,,,,,,,,,,,,,,,,,,,,,,,
,,,,,,,,,,stimuli/images/PICTURE_504.png,YEAR,5f4565bdcd108b1460bd72f5,21/10/2001,2020-08-27_19h06.44.679,proactive3.1,2020.1.2,Win32,60,5f47c29a48bd2a1e651a6eb7,5f47f4e858dd3314a449b7a3,1,,,,,,wheel,,,,,,0,10,10,13,1,2,1,,,,,,,,,,,,,,,,,,,,,,,,,,,,,,,,,,,,,,,,,,,,,,,,,,,,,,,,,,,,,,,,,,,,,,,,,,,,,,,,,,,,,,,,,,,,,,,,,,,,,,,,,,,,,
,,,,,,,,,,stimuli/images/PICTURE_564.png,BATH,5f4565bdcd108b1460bd72f5,21/10/2001,2020-08-27_19h06.44.679,proactive3.1,2020.1.2,Win32,60,5f47c29a48bd2a1e651a6eb7,5f47f4e858dd3314a449b7a3,1,,,,,,spoon,,,,,,0,11,11,26,1,3,1,,,,,,,,,,,,,,,,,,,,,,,,,,,,,,,,,,,,,,,,,,,,,,,,,,,,,,,,,,,,,,,,,,,,,,,,,,,,,,,,,,,,,,,,,,,,,,,,,,,,,,,,,,,,,
,,,,,,,,,,stimuli/images/PICTURE_233.png,LOTS,5f4565bdcd108b1460bd72f5,21/10/2001,2020-08-27_19h06.44.679,proactive3.1,2020.1.2,Win32,60,5f47c29a48bd2a1e651a6eb7,5f47f4e858dd3314a449b7a3,1,,,,,,salt,,,,,,0,12,12,42,1,5,1,,,,,,,,,,,,,,,,,,,,,,,,,,,,,,,,,,,,,,,,,,,,,,,,,,,,,,,,,,,,,,,,,,,,,,,,,,,,,,,,,,,,,,,,,,,,,,,,,,,,,,,,,,,,,
,,,,,,,,,,stimuli/images/PICTURE_403.png,RIVER,5f4565bdcd108b1460bd72f5,21/10/2001,2020-08-27_19h06.44.679,proactive3.1,2020.1.2,Win32,60,5f47c29a48bd2a1e651a6eb7,5f47f4e858dd3314a449b7a3,1,,,,,,cathedral,,,,,,0,13,13,40,1,5,1,,,,,,,,,,,,,,,,,,,,,,,,,,,,,,,,,,,,,,,,,,,,,,,,,,,,,,,,,,,,,,,,,,,,,,,,,,,,,,,,,,,,,,,,,,,,,,,,,,,,,,,,,,,,,
,,,,,,,,,,stimuli/images/PICTURE_491.png,GLASS,5f4565bdcd108b1460bd72f5,21/10/2001,2020-08-27_19h06.44.679,proactive3.1,2020.1.2,Win32,60,5f47c29a48bd2a1e651a6eb7,5f47f4e858dd3314a449b7a3,1,,,,,,rug,,,,,,0,14,14,14,1,2,1,,,,,,,,,,,,,,,,,,,,,,,,,,,,,,,,,,,,,,,,,,,,,,,,,,,,,,,,,,,,,,,,,,,,,,,,,,,,,,,,,,,,,,,,,,,,,,,,,,,,,,,,,,,,,
,,,,,,,,,,stimuli/images/PICTURE_308.png,FAMILY,5f4565bdcd108b1460bd72f5,21/10/2001,2020-08-27_19h06.44.679,proactive3.1,2020.1.2,Win32,60,5f47c29a48bd2a1e651a6eb7,5f47f4e858dd3314a449b7a3,1,,,,,,dice,,,,,,0,15,15,36,1,4,1,,,,,,,,,,,,,,,,,,,,,,,,,,,,,,,,,,,,,,,,,,,,,,,,,,,,,,,,,,,,,,,,,,,,,,,,,,,,,,,,,,,,,,,,,,,,,,,,,,,,,,,,,,,,,
,,,,,,,,,,stimuli/images/PICTURE_68.png,ROOF,5f4565bdcd108b1460bd72f5,21/10/2001,2020-08-27_19h06.44.679,proactive3.1,2020.1.2,Win32,60,5f47c29a48bd2a1e651a6eb7,5f47f4e858dd3314a449b7a3,1,,,,,,candle,,,,,,0,16,16,38,1,4,1,,,,,,,,,,,,,,,,,,,,,,,,,,,,,,,,,,,,,,,,,,,,,,,,,,,,,,,,,,,,,,,,,,,,,,,,,,,,,,,,,,,,,,,,,,,,,,,,,,,,,,,,,,,,,
,,,,,,,,,,stimuli/images/PICTURE_380.png,HONEY,5f4565bdcd108b1460bd72f5,21/10/2001,2020-08-27_19h06.44.679,proactive3.1,2020.1.2,Win32,60,5f47c29a48bd2a1e651a6eb7,5f47f4e858dd3314a449b7a3,1,,,,,,gorilla,,,,,,0,17,17,19,1,2,1,,,,,,,,,,,,,,,,,,,,,,,,,,,,,,,,,,,,,,,,,,,,,,,,,,,,,,,,,,,,,,,,,,,,,,,,,,,,,,,,,,,,,,,,,,,,,,,,,,,,,,,,,,,,,
,,,,,,,,,,stimuli/images/PICTURE_487.png,GIRL,5f4565bdcd108b1460bd72f5,21/10/2001,2020-08-27_19h06.44.679,proactive3.1,2020.1.2,Win32,60,5f47c29a48bd2a1e651a6eb7,5f47f4e858dd3314a449b7a3,1,,,,,,basket,,,,,,0,18,18,45,1,5,1,,,,,,,,,,,,,,,,,,,,,,,,,,,,,,,,,,,,,,,,,,,,,,,,,,,,,,,,,,,,,,,,,,,,,,,,,,,,,,,,,,,,,,,,,,,,,,,,,,,,,,,,,,,,,
,,,,,,,,,,stimuli/images/PICTURE_68.png,MILE,5f4565bdcd108b1460bd72f5,21/10/2001,2020-08-27_19h06.44.679,proactive3.1,2020.1.2,Win32,60,5f47c29a48bd2a1e651a6eb7,5f47f4e858dd3314a449b7a3,1,,,,,,candle,,,,,,0,19,19,51,1,6,1,,,,,,,,,,,,,,,,,,,,,,,,,,,,,,,,,,,,,,,,,,,,,,,,,,,,,,,,,,,,,,,,,,,,,,,,,,,,,,,,,,,,,,,,,,,,,,,,,,,,,,,,,,,,,
,,,,,,,,,,stimuli/images/PICTURE_208.png,SYSTEM,5f4565bdcd108b1460bd72f5,21/10/2001,2020-08-27_19h06.44.679,proactive3.1,2020.1.2,Win32,60,5f47c29a48bd2a1e651a6eb7,5f47f4e858dd3314a449b7a3,1,,,,,,microphone,,,,,,0,20,20,32,1,4,1,,,,,,,,,,,,,,,,,,,,,,,,,,,,,,,,,,,,,,,,,,,,,,,,,,,,,,,,,,,,,,,,,,,,,,,,,,,,,,,,,,,,,,,,,,,,,,,,,,,,,,,,,,,,,
,,,,,,,,,,stimuli/images/PICTURE_667.png,RIVER,5f4565bdcd108b1460bd72f5,21/10/2001,2020-08-27_19h06.44.679,proactive3.1,2020.1.2,Win32,60,5f47c29a48bd2a1e651a6eb7,5f47f4e858dd3314a449b7a3,1,,,,,,daisy,,,,,,0,21,21,10,1,2,1,,,,,,,,,,,,,,,,,,,,,,,,,,,,,,,,,,,,,,,,,,,,,,,,,,,,,,,,,,,,,,,,,,,,,,,,,,,,,,,,,,,,,,,,,,,,,,,,,,,,,,,,,,,,,
,,,,,,,,,,stimuli/images/PICTURE_675.png,SALE,5f4565bdcd108b1460bd72f5,21/10/2001,2020-08-27_19h06.44.679,proactive3.1,2020.1.2,Win32,60,5f47c29a48bd2a1e651a6eb7,5f47f4e858dd3314a449b7a3,1,,,,,,windmill,,,,,,0,22,22,47,1,5,1,,,,,,,,,,,,,,,,,,,,,,,,,,,,,,,,,,,,,,,,,,,,,,,,,,,,,,,,,,,,,,,,,,,,,,,,,,,,,,,,,,,,,,,,,,,,,,,,,,,,,,,,,,,,,
,,,,,,,,,,stimuli/images/PICTURE_405.png,PLENTY,5f4565bdcd108b1460bd72f5,21/10/2001,2020-08-27_19h06.44.679,proactive3.1,2020.1.2,Win32,60,5f47c29a48bd2a1e651a6eb7,5f47f4e858dd3314a449b7a3,1,,,,,,anchor,,,,,,0,23,23,23,1,3,1,,,,,,,,,,,,,,,,,,,,,,,,,,,,,,,,,,,,,,,,,,,,,,,,,,,,,,,,,,,,,,,,,,,,,,,,,,,,,,,,,,,,,,,,,,,,,,,,,,,,,,,,,,,,,
,,,,,,,,,,stimuli/images/PICTURE_405.png,YEAR,5f4565bdcd108b1460bd72f5,21/10/2001,2020-08-27_19h06.44.679,proactive3.1,2020.1.2,Win32,60,5f47c29a48bd2a1e651a6eb7,5f47f4e858dd3314a449b7a3,1,,,,,,anchor,,,,,,0,24,24,34,1,4,1,,,,,,,,,,,,,,,,,,,,,,,,,,,,,,,,,,,,,,,,,,,,,,,,,,,,,,,,,,,,,,,,,,,,,,,,,,,,,,,,,,,,,,,,,,,,,,,,,,,,,,,,,,,,,
,,,,,,,,,,stimuli/images/PICTURE_296.png,LOTS,5f4565bdcd108b1460bd72f5,21/10/2001,2020-08-27_19h06.44.679,proactive3.1,2020.1.2,Win32,60,5f47c29a48bd2a1e651a6eb7,5f47f4e858dd3314a449b7a3,1,,,,,,bolt,,,,,,0,25,25,9,1,1,1,,,,,,,,,,,,,,,,,,,,,,,,,,,,,,,,,,,,,,,,,,,,,,,,,,,,,,,,,,,,,,,,,,,,,,,,,,,,,,,,,,,,,,,,,,,,,,,,,,,,,,,,,,,,,
,,,,,,,,,,stimuli/images/PICTURE_57.png,MOMENT,5f4565bdcd108b1460bd72f5,21/10/2001,2020-08-27_19h06.44.679,proactive3.1,2020.1.2,Win32,60,5f47c29a48bd2a1e651a6eb7,5f47f4e858dd3314a449b7a3,1,,,,,,stamp,,,,,,0,26,26,37,1,4,1,,,,,,,,,,,,,,,,,,,,,,,,,,,,,,,,,,,,,,,,,,,,,,,,,,,,,,,,,,,,,,,,,,,,,,,,,,,,,,,,,,,,,,,,,,,,,,,,,,,,,,,,,,,,,
,,,,,,,,,,stimuli/images/PICTURE_708.png,RECORD,5f4565bdcd108b1460bd72f5,21/10/2001,2020-08-27_19h06.44.679,proactive3.1,2020.1.2,Win32,60,5f47c29a48bd2a1e651a6eb7,5f47f4e858dd3314a449b7a3,1,,,,,,monkey,,,,,,0,27,27,58,1,6,1,,,,,,,,,,,,,,,,,,,,,,,,,,,,,,,,,,,,,,,,,,,,,,,,,,,,,,,,,,,,,,,,,,,,,,,,,,,,,,,,,,,,,,,,,,,,,,,,,,,,,,,,,,,,,
,,,,,,,,,,stimuli/images/PICTURE_177.png,WRITER,5f4565bdcd108b1460bd72f5,21/10/2001,2020-08-27_19h06.44.679,proactive3.1,2020.1.2,Win32,60,5f47c29a48bd2a1e651a6eb7,5f47f4e858dd3314a449b7a3,1,,,,,,mushroom,,,,,,0,28,28,41,1,5,1,,,,,,,,,,,,,,,,,,,,,,,,,,,,,,,,,,,,,,,,,,,,,,,,,,,,,,,,,,,,,,,,,,,,,,,,,,,,,,,,,,,,,,,,,,,,,,,,,,,,,,,,,,,,,
,,,,,,,,,,stimuli/images/PICTURE_504.png,COPS,5f4565bdcd108b1460bd72f5,21/10/2001,2020-08-27_19h06.44.679,proactive3.1,2020.1.2,Win32,60,5f47c29a48bd2a1e651a6eb7,5f47f4e858dd3314a449b7a3,1,,,,,,wheel,,,,,,0,29,29,52,1,6,1,,,,,,,,,,,,,,,,,,,,,,,,,,,,,,,,,,,,,,,,,,,,,,,,,,,,,,,,,,,,,,,,,,,,,,,,,,,,,,,,,,,,,,,,,,,,,,,,,,,,,,,,,,,,,
,,,,,,,,,,stimuli/images/PICTURE_744.png,WEAPON,5f4565bdcd108b1460bd72f5,21/10/2001,2020-08-27_19h06.44.679,proactive3.1,2020.1.2,Win32,60,5f47c29a48bd2a1e651a6eb7,5f47f4e858dd3314a449b7a3,1,,,,,,ring,,,,,,0,30,30,50,1,6,1,,,,,,,,,,,,,,,,,,,,,,,,,,,,,,,,,,,,,,,,,,,,,,,,,,,,,,,,,,,,,,,,,,,,,,,,,,,,,,,,,,,,,,,,,,,,,,,,,,,,,,,,,,,,,
,,,,,,,,,,stimuli/images/PICTURE_403.png,WRITER,5f4565bdcd108b1460bd72f5,21/10/2001,2020-08-27_19h06.44.679,proactive3.1,2020.1.2,Win32,60,5f47c29a48bd2a1e651a6eb7,5f47f4e858dd3314a449b7a3,1,,,,,,cathedral,,,,,,0,31,31,31,1,4,1,,,,,,,,,,,,,,,,,,,,,,,,,,,,,,,,,,,,,,,,,,,,,,,,,,,,,,,,,,,,,,,,,,,,,,,,,,,,,,,,,,,,,,,,,,,,,,,,,,,,,,,,,,,,,
,,,,,,,,,,stimuli/images/PICTURE_108.png,POLICY,5f4565bdcd108b1460bd72f5,21/10/2001,2020-08-27_19h06.44.679,proactive3.1,2020.1.2,Win32,60,5f47c29a48bd2a1e651a6eb7,5f47f4e858dd3314a449b7a3,1,,,,,,calendar,,,,,,0,32,32,22,1,3,1,,,,,,,,,,,,,,,,,,,,,,,,,,,,,,,,,,,,,,,,,,,,,,,,,,,,,,,,,,,,,,,,,,,,,,,,,,,,,,,,,,,,,,,,,,,,,,,,,,,,,,,,,,,,,
,,,,,,,,,,stimuli/images/PICTURE_504.png,ARTIST,5f4565bdcd108b1460bd72f5,21/10/2001,2020-08-27_19h06.44.679,proactive3.1,2020.1.2,Win32,60,5f47c29a48bd2a1e651a6eb7,5f47f4e858dd3314a449b7a3,1,,,,,,wheel,,,,,,0,33,33,49,1,5,1,,,,,,,,,,,,,,,,,,,,,,,,,,,,,,,,,,,,,,,,,,,,,,,,,,,,,,,,,,,,,,,,,,,,,,,,,,,,,,,,,,,,,,,,,,,,,,,,,,,,,,,,,,,,,
,,,,,,,,,,stimuli/images/PICTURE_2.png,FLIGHT,5f4565bdcd108b1460bd72f5,21/10/2001,2020-08-27_19h06.44.679,proactive3.1,2020.1.2,Win32,60,5f47c29a48bd2a1e651a6eb7,5f47f4e858dd3314a449b7a3,1,,,,,,tyre,,,,,,0,34,34,15,1,2,1,,,,,,,,,,,,,,,,,,,,,,,,,,,,,,,,,,,,,,,,,,,,,,,,,,,,,,,,,,,,,,,,,,,,,,,,,,,,,,,,,,,,,,,,,,,,,,,,,,,,,,,,,,,,,
,,,,,,,,,,stimuli/images/PICTURE_467.png,POLICY,5f4565bdcd108b1460bd72f5,21/10/2001,2020-08-27_19h06.44.679,proactive3.1,2020.1.2,Win32,60,5f47c29a48bd2a1e651a6eb7,5f47f4e858dd3314a449b7a3,1,,,,,,peg,,,,,,0,35,35,53,1,6,1,,,,,,,,,,,,,,,,,,,,,,,,,,,,,,,,,,,,,,,,,,,,,,,,,,,,,,,,,,,,,,,,,,,,,,,,,,,,,,,,,,,,,,,,,,,,,,,,,,,,,,,,,,,,,
,,,,,,,,,,stimuli/images/PICTURE_383.png,SERIES,5f4565bdcd108b1460bd72f5,21/10/2001,2020-08-27_19h06.44.679,proactive3.1,2020.1.2,Win32,60,5f47c29a48bd2a1e651a6eb7,5f47f4e858dd3314a449b7a3,1,,,,,,coin,,,,,,0,36,36,46,1,5,1,,,,,,,,,,,,,,,,,,,,,,,,,,,,,,,,,,,,,,,,,,,,,,,,,,,,,,,,,,,,,,,,,,,,,,,,,,,,,,,,,,,,,,,,,,,,,,,,,,,,,,,,,,,,,
,,,,,,,,,,stimuli/images/PICTURE_339.png,CLIENT,5f4565bdcd108b1460bd72f5,21/10/2001,2020-08-27_19h06.44.679,proactive3.1,2020.1.2,Win32,60,5f47c29a48bd2a1e651a6eb7,5f47f4e858dd3314a449b7a3,1,,,,,,backpack,,,,,,0,37,37,11,1,2,1,,,,,,,,,,,,,,,,,,,,,,,,,,,,,,,,,,,,,,,,,,,,,,,,,,,,,,,,,,,,,,,,,,,,,,,,,,,,,,,,,,,,,,,,,,,,,,,,,,,,,,,,,,,,,
,,,,,,,,,,stimuli/images/PICTURE_380.png,CANDY,5f4565bdcd108b1460bd72f5,21/10/2001,2020-08-27_19h06.44.679,proactive3.1,2020.1.2,Win32,60,5f47c29a48bd2a1e651a6eb7,5f47f4e858dd3314a449b7a3,1,,,,,,gorilla,,,,,,0,38,38,0,1,1,1,,,,,,,,,,,,,,,,,,,,,,,,,,,,,,,,,,,,,,,,,,,,,,,,,,,,,,,,,,,,,,,,,,,,,,,,,,,,,,,,,,,,,,,,,,,,,,,,,,,,,,,,,,,,,
