consent_key.keys,consent_key.rt,recalled,recalled_rt,recall_acc,example_recall.thisRepN,example_recall.thisTrialN,example_recall.thisN,example_recall.thisIndex,example_recall.ran,file,word,participant,please enter your date of birth (dd/mm/yyyy),date,expName,psychopyVersion,OS,frameRate,STUDY_ID,SESSION_ID,list,prac_learn_study_loop.thisRepN,prac_learn_study_loop.thisTrialN,prac_learn_study_loop.thisN,prac_learn_study_loop.thisIndex,prac_learn_study_loop.ran,image,prac_learn_test_loop.thisRepN,prac_learn_test_loop.thisTrialN,prac_learn_test_loop.thisN,prac_learn_test_loop.thisIndex,prac_learn_test_loop.ran,learn_study_loop.thisRepN,learn_study_loop.thisTrialN,learn_study_loop.thisN,learn_study_loop.thisIndex,learn_study_loop.ran,list_no,block_no,learn_test_loop.thisRepN,learn_test_loop.thisTrialN,learn_test_loop.thisN,learn_test_loop.thisIndex,learn_test_loop.ran,learn_blocks.thisRepN,learn_blocks.thisTrialN,learn_blocks.thisN,learn_blocks.thisIndex,learn_blocks.ran,block_csv,key_resp_13.keys,key_resp_13.rt,learn_blocks_loop.thisRepN,learn_blocks_loop.thisTrialN,learn_blocks_loop.thisN,learn_blocks_loop.thisIndex,learn_blocks_loop.ran,final_learn_test.thisRepN,final_learn_test.thisTrialN,final_learn_test.thisN,final_learn_test.thisIndex,final_learn_test.ran,s_im1,s_im2,s_im3,s_im4,s_im5,s_im6,s_im7,s_im8,s_im1pos,s_im2pos,s_im3pos,s_im4pos,s_im5pos,s_im6pos,s_im7pos,s_im8pos,s_tarright,search_resp.keys,search_loop.thisRepN,search_loop.thisTrialN,search_loop.thisN,search_loop.thisIndex,search_loop.ran,search_resp.rt,prac_wm_search_loop.thisRepN,prac_wm_search_loop.thisTrialN,prac_wm_search_loop.thisN,prac_wm_search_loop.thisIndex,prac_wm_search_loop.ran,prac_wm_test_loop.thisRepN,prac_wm_test_loop.thisTrialN,prac_wm_test_loop.thisN,prac_wm_test_loop.thisIndex,prac_wm_test_loop.ran,wm_recalled1,wm_recall_rt1,wm_probed1,wm_recall_acc1,wm_recalled2,wm_recall_rt2,wm_probed2,wm_recall_acc2,wm_recalled3,wm_recall_rt3,wm_probed3,wm_recall_acc3,wm_recalled4,wm_recall_rt4,wm_probed4,wm_recall_acc4,prac_wm_trial_loop.thisRepN,prac_wm_trial_loop.thisTrialN,prac_wm_trial_loop.thisN,prac_wm_trial_loop.thisIndex,prac_wm_trial_loop.ran,word1,image1,file1,item_type1,word2,image2,file2,item_type2,word4,image4,file4,item_type4,word3,image3,file3,item_type3,wm_search_loop.thisRepN,wm_search_loop.thisTrialN,wm_search_loop.thisN,wm_search_loop.thisIndex,wm_search_loop.ran,wm_test_loop.thisRepN,wm_test_loop.thisTrialN,wm_test_loop.thisN,wm_test_loop.thisIndex,wm_test_loop.ran,wm_trial_loop.thisRepN,wm_trial_loop.thisTrialN,wm_trial_loop.thisN,wm_trial_loop.thisIndex,wm_trial_loop.ran
y,64.202725,TOUGH,10.980935,1,0,0,0,0,1,stimuli/images/PICTURE_747.png,TOUGH,5f564265f9d134032e757250,17/03/1954,2020-09-10_13h06.21.708,proactive3.1,2020.1.2,Win32,60,5f599a131af4471f3d752b7b,5f5a1698e2534b062cc71f93,3,,,,,,,,,,,,,,,,,,,,,,,,,,,,,,,,,,,,,,,,,,,,,,,,,,,,,,,,,,,,,,,,,,,,,,,,,,,,,,,,,,,,,,,,,,,,,,,,,,,,,,,,,,,,,,,,,,,,,,,,,,,,,,,
,,,,,,,,,,stimuli/images/PICTURE_727.png,CELL,5f564265f9d134032e757250,17/03/1954,2020-09-10_13h06.21.708,proactive3.1,2020.1.2,Win32,60,5f599a131af4471f3d752b7b,5f5a1698e2534b062cc71f93,3,0,0,0,1,1,hose,,,,,,,,,,,,,,,,,,,,,,,,,,,,,,,,,,,,,,,,,,,,,,,,,,,,,,,,,,,,,,,,,,,,,,,,,,,,,,,,,,,,,,,,,,,,,,,,,,,,,,,,,,,,,,,,,,,,,,,,,
,,,,,,,,,,stimuli/images/PICTURE_269.png,GENIUS,5f564265f9d134032e757250,17/03/1954,2020-09-10_13h06.21.708,proactive3.1,2020.1.2,Win32,60,5f599a131af4471f3d752b7b,5f5a1698e2534b062cc71f93,3,0,1,1,0,1,chameleon,,,,,,,,,,,,,,,,,,,,,,,,,,,,,,,,,,,,,,,,,,,,,,,,,,,,,,,,,,,,,,,,,,,,,,,,,,,,,,,,,,,,,,,,,,,,,,,,,,,,,,,,,,,,,,,,,,,,,,,,,
,,,,,,,,,,stimuli/images/PICTURE_658.png,DEVIL,5f564265f9d134032e757250,17/03/1954,2020-09-10_13h06.21.708,proactive3.1,2020.1.2,Win32,60,5f599a131af4471f3d752b7b,5f5a1698e2534b062cc71f93,3,0,2,2,3,1,crow,,,,,,,,,,,,,,,,,,,,,,,,,,,,,,,,,,,,,,,,,,,,,,,,,,,,,,,,,,,,,,,,,,,,,,,,,,,,,,,,,,,,,,,,,,,,,,,,,,,,,,,,,,,,,,,,,,,,,,,,,
,,,,,,,,,,stimuli/images/PICTURE_697.png,KILLER,5f564265f9d134032e757250,17/03/1954,2020-09-10_13h06.21.708,proactive3.1,2020.1.2,Win32,60,5f599a131af4471f3d752b7b,5f5a1698e2534b062cc71f93,3,0,3,3,4,1,peach,,,,,,,,,,,,,,,,,,,,,,,,,,,,,,,,,,,,,,,,,,,,,,,,,,,,,,,,,,,,,,,,,,,,,,,,,,,,,,,,,,,,,,,,,,,,,,,,,,,,,,,,,,,,,,,,,,,,,,,,,
,,CELL,9.983335,1,,,,,,stimuli/images/PICTURE_727.png,CELL,5f564265f9d134032e757250,17/03/1954,2020-09-10_13h06.21.708,proactive3.1,2020.1.2,Win32,60,5f599a131af4471f3d752b7b,5f5a1698e2534b062cc71f93,3,,,,,,hose,0,0,0,1,1,,,,,,,,,,,,,,,,,,,,,,,,,,,,,,,,,,,,,,,,,,,,,,,,,,,,,,,,,,,,,,,,,,,,,,,,,,,,,,,,,,,,,,,,,,,,,,,,,,,,,,,,,,,,,,,,,,,,
,,GENIUUS,15.0022,0,,,,,,stimuli/images/PICTURE_269.png,GENIUS,5f564265f9d134032e757250,17/03/1954,2020-09-10_13h06.21.708,proactive3.1,2020.1.2,Win32,60,5f599a131af4471f3d752b7b,5f5a1698e2534b062cc71f93,3,,,,,,chameleon,0,1,1,0,1,,,,,,,,,,,,,,,,,,,,,,,,,,,,,,,,,,,,,,,,,,,,,,,,,,,,,,,,,,,,,,,,,,,,,,,,,,,,,,,,,,,,,,,,,,,,,,,,,,,,,,,,,,,,,,,,,,,,
,,DEVIL,10.343145,0,,,,,,stimuli/images/PICTURE_378.png,LOSS,5f564265f9d134032e757250,17/03/1954,2020-09-10_13h06.21.708,proactive3.1,2020.1.2,Win32,60,5f599a131af4471f3d752b7b,5f5a1698e2534b062cc71f93,3,,,,,,lobster,0,2,2,2,1,,,,,,,,,,,,,,,,,,,,,,,,,,,,,,,,,,,,,,,,,,,,,,,,,,,,,,,,,,,,,,,,,,,,,,,,,,,,,,,,,,,,,,,,,,,,,,,,,,,,,,,,,,,,,,,,,,,,
,,DEVIL,6.12836,1,,,,,,stimuli/images/PICTURE_658.png,DEVIL,5f564265f9d134032e757250,17/03/1954,2020-09-10_13h06.21.708,proactive3.1,2020.1.2,Win32,60,5f599a131af4471f3d752b7b,5f5a1698e2534b062cc71f93,3,,,,,,crow,0,3,3,3,1,,,,,,,,,,,,,,,,,,,,,,,,,,,,,,,,,,,,,,,,,,,,,,,,,,,,,,,,,,,,,,,,,,,,,,,,,,,,,,,,,,,,,,,,,,,,,,,,,,,,,,,,,,,,,,,,,,,,
,,BAD,6.328825,0,,,,,,stimuli/images/PICTURE_697.png,KILLER,5f564265f9d134032e757250,17/03/1954,2020-09-10_13h06.21.708,proactive3.1,2020.1.2,Win32,60,5f599a131af4471f3d752b7b,5f5a1698e2534b062cc71f93,3,,,,,,peach,0,4,4,4,1,,,,,,,,,,,,,,,,,,,,,,,,,,,,,,,,,,,,,,,,,,,,,,,,,,,,,,,,,,,,,,,,,,,,,,,,,,,,,,,,,,,,,,,,,,,,,,,,,,,,,,,,,,,,,,,,,,,,
,,,,,,,,,,stimuli/images/PICTURE_383.png,WRITER,5f564265f9d134032e757250,17/03/1954,2020-09-10_13h06.21.708,proactive3.1,2020.1.2,Win32,60,5f599a131af4471f3d752b7b,5f5a1698e2534b062cc71f93,3,,,,,,coin,,,,,,0,0,0,28,1,3,1,,,,,,,,,,,,,,,,,,,,,,,,,,,,,,,,,,,,,,,,,,,,,,,,,,,,,,,,,,,,,,,,,,,,,,,,,,,,,,,,,,,,,,,,,,,,,,,,,,,,,,,,,,,,,
,,,,,,,,,,stimuli/images/PICTURE_491.png,GLASS,5f564265f9d134032e757250,17/03/1954,2020-09-10_13h06.21.708,proactive3.1,2020.1.2,Win32,60,5f599a131af4471f3d752b7b,5f5a1698e2534b062cc71f93,3,,,,,,rug,,,,,,0,1,1,14,1,2,1,,,,,,,,,,,,,,,,,,,,,,,,,,,,,,,,,,,,,,,,,,,,,,,,,,,,,,,,,,,,,,,,,,,,,,,,,,,,,,,,,,,,,,,,,,,,,,,,,,,,,,,,,,,,,
,,,,,,,,,,stimuli/images/PICTURE_564.png,BATH,5f564265f9d134032e757250,17/03/1954,2020-09-10_13h06.21.708,proactive3.1,2020.1.2,Win32,60,5f599a131af4471f3d752b7b,5f5a1698e2534b062cc71f93,3,,,,,,spoon,,,,,,0,2,2,26,1,3,1,,,,,,,,,,,,,,,,,,,,,,,,,,,,,,,,,,,,,,,,,,,,,,,,,,,,,,,,,,,,,,,,,,,,,,,,,,,,,,,,,,,,,,,,,,,,,,,,,,,,,,,,,,,,,
,,,,,,,,,,stimuli/images/PICTURE_469.png,AGENT,5f564265f9d134032e757250,17/03/1954,2020-09-10_13h06.21.708,proactive3.1,2020.1.2,Win32,60,5f599a131af4471f3d752b7b,5f5a1698e2534b062cc71f93,3,,,,,,stool,,,,,,0,3,3,16,1,2,1,,,,,,,,,,,,,,,,,,,,,,,,,,,,,,,,,,,,,,,,,,,,,,,,,,,,,,,,,,,,,,,,,,,,,,,,,,,,,,,,,,,,,,,,,,,,,,,,,,,,,,,,,,,,,
,,,,,,,,,,stimuli/images/PICTURE_491.png,RIVER,5f564265f9d134032e757250,17/03/1954,2020-09-10_13h06.21.708,proactive3.1,2020.1.2,Win32,60,5f599a131af4471f3d752b7b,5f5a1698e2534b062cc71f93,3,,,,,,rug,,,,,,0,4,4,6,1,1,1,,,,,,,,,,,,,,,,,,,,,,,,,,,,,,,,,,,,,,,,,,,,,,,,,,,,,,,,,,,,,,,,,,,,,,,,,,,,,,,,,,,,,,,,,,,,,,,,,,,,,,,,,,,,,
,,,,,,,,,,stimuli/images/PICTURE_32.png,PILLS,5f564265f9d134032e757250,17/03/1954,2020-09-10_13h06.21.708,proactive3.1,2020.1.2,Win32,60,5f599a131af4471f3d752b7b,5f5a1698e2534b062cc71f93,3,,,,,,crown,,,,,,0,5,5,18,1,2,1,,,,,,,,,,,,,,,,,,,,,,,,,,,,,,,,,,,,,,,,,,,,,,,,,,,,,,,,,,,,,,,,,,,,,,,,,,,,,,,,,,,,,,,,,,,,,,,,,,,,,,,,,,,,,
,,,,,,,,,,stimuli/images/PICTURE_667.png,RIVER,5f564265f9d134032e757250,17/03/1954,2020-09-10_13h06.21.708,proactive3.1,2020.1.2,Win32,60,5f599a131af4471f3d752b7b,5f5a1698e2534b062cc71f93,3,,,,,,daisy,,,,,,0,6,6,10,1,2,1,,,,,,,,,,,,,,,,,,,,,,,,,,,,,,,,,,,,,,,,,,,,,,,,,,,,,,,,,,,,,,,,,,,,,,,,,,,,,,,,,,,,,,,,,,,,,,,,,,,,,,,,,,,,,
,,,,,,,,,,stimuli/images/PICTURE_296.png,LOTS,5f564265f9d134032e757250,17/03/1954,2020-09-10_13h06.21.708,proactive3.1,2020.1.2,Win32,60,5f599a131af4471f3d752b7b,5f5a1698e2534b062cc71f93,3,,,,,,bolt,,,,,,0,7,7,9,1,1,1,,,,,,,,,,,,,,,,,,,,,,,,,,,,,,,,,,,,,,,,,,,,,,,,,,,,,,,,,,,,,,,,,,,,,,,,,,,,,,,,,,,,,,,,,,,,,,,,,,,,,,,,,,,,,
,,,,,,,,,,stimuli/images/PICTURE_467.png,POLICY,5f564265f9d134032e757250,17/03/1954,2020-09-10_13h06.21.708,proactive3.1,2020.1.2,Win32,60,5f599a131af4471f3d752b7b,5f5a1698e2534b062cc71f93,3,,,,,,peg,,,,,,0,8,8,53,1,6,1,,,,,,,,,,,,,,,,,,,,,,,,,,,,,,,,,,,,,,,,,,,,,,,,,,,,,,,,,,,,,,,,,,,,,,,,,,,,,,,,,,,,,,,,,,,,,,,,,,,,,,,,,,,,,
,,,,,,,,,,stimuli/images/PICTURE_108.png,FLIGHT,5f564265f9d134032e757250,17/03/1954,2020-09-10_13h06.21.708,proactive3.1,2020.1.2,Win32,60,5f599a131af4471f3d752b7b,5f5a1698e2534b062cc71f93,3,,,,,,calendar,,,,,,0,9,9,59,1,6,1,,,,,,,,,,,,,,,,,,,,,,,,,,,,,,,,,,,,,,,,,,,,,,,,,,,,,,,,,,,,,,,,,,,,,,,,,,,,,,,,,,,,,,,,,,,,,,,,,,,,,,,,,,,,,
,,,,,,,,,,stimuli/images/PICTURE_405.png,PLENTY,5f564265f9d134032e757250,17/03/1954,2020-09-10_13h06.21.708,proactive3.1,2020.1.2,Win32,60,5f599a131af4471f3d752b7b,5f5a1698e2534b062cc71f93,3,,,,,,anchor,,,,,,0,10,10,23,1,3,1,,,,,,,,,,,,,,,,,,,,,,,,,,,,,,,,,,,,,,,,,,,,,,,,,,,,,,,,,,,,,,,,,,,,,,,,,,,,,,,,,,,,,,,,,,,,,,,,,,,,,,,,,,,,,
,,,,,,,,,,stimuli/images/PICTURE_487.png,GIRL,5f564265f9d134032e757250,17/03/1954,2020-09-10_13h06.21.708,proactive3.1,2020.1.2,Win32,60,5f599a131af4471f3d752b7b,5f5a1698e2534b062cc71f93,3,,,,,,basket,,,,,,0,11,11,45,1,5,1,,,,,,,,,,,,,,,,,,,,,,,,,,,,,,,,,,,,,,,,,,,,,,,,,,,,,,,,,,,,,,,,,,,,,,,,,,,,,,,,,,,,,,,,,,,,,,,,,,,,,,,,,,,,,
,,,,,,,,,,stimuli/images/PICTURE_380.png,CANDY,5f564265f9d134032e757250,17/03/1954,2020-09-10_13h06.21.708,proactive3.1,2020.1.2,Win32,60,5f599a131af4471f3d752b7b,5f5a1698e2534b062cc71f93,3,,,,,,gorilla,,,,,,0,12,12,0,1,1,1,,,,,,,,,,,,,,,,,,,,,,,,,,,,,,,,,,,,,,,,,,,,,,,,,,,,,,,,,,,,,,,,,,,,,,,,,,,,,,,,,,,,,,,,,,,,,,,,,,,,,,,,,,,,,
,,,,,,,,,,stimuli/images/PICTURE_95.png,BOYS,5f564265f9d134032e757250,17/03/1954,2020-09-10_13h06.21.708,proactive3.1,2020.1.2,Win32,60,5f599a131af4471f3d752b7b,5f5a1698e2534b062cc71f93,3,,,,,,suitcase,,,,,,0,13,13,1,1,1,1,,,,,,,,,,,,,,,,,,,,,,,,,,,,,,,,,,,,,,,,,,,,,,,,,,,,,,,,,,,,,,,,,,,,,,,,,,,,,,,,,,,,,,,,,,,,,,,,,,,,,,,,,,,,,
,,,,,,,,,,stimuli/images/PICTURE_108.png,POLICY,5f564265f9d134032e757250,17/03/1954,2020-09-10_13h06.21.708,proactive3.1,2020.1.2,Win32,60,5f599a131af4471f3d752b7b,5f5a1698e2534b062cc71f93,3,,,,,,calendar,,,,,,0,14,14,22,1,3,1,,,,,,,,,,,,,,,,,,,,,,,,,,,,,,,,,,,,,,,,,,,,,,,,,,,,,,,,,,,,,,,,,,,,,,,,,,,,,,,,,,,,,,,,,,,,,,,,,,,,,,,,,,,,,
,,,,,,,,,,stimuli/images/PICTURE_675.png,SALE,5f564265f9d134032e757250,17/03/1954,2020-09-10_13h06.21.708,proactive3.1,2020.1.2,Win32,60,5f599a131af4471f3d752b7b,5f5a1698e2534b062cc71f93,3,,,,,,windmill,,,,,,0,15,15,47,1,5,1,,,,,,,,,,,,,,,,,,,,,,,,,,,,,,,,,,,,,,,,,,,,,,,,,,,,,,,,,,,,,,,,,,,,,,,,,,,,,,,,,,,,,,,,,,,,,,,,,,,,,,,,,,,,,
,,,,,,,,,,stimuli/images/PICTURE_744.png,WEAPON,5f564265f9d134032e757250,17/03/1954,2020-09-10_13h06.21.708,proactive3.1,2020.1.2,Win32,60,5f599a131af4471f3d752b7b,5f5a1698e2534b062cc71f93,3,,,,,,ring,,,,,,0,16,16,50,1,6,1,,,,,,,,,,,,,,,,,,,,,,,,,,,,,,,,,,,,,,,,,,,,,,,,,,,,,,,,,,,,,,,,,,,,,,,,,,,,,,,,,,,,,,,,,,,,,,,,,,,,,,,,,,,,,
,,,,,,,,,,stimuli/images/PICTURE_308.png,FAMILY,5f564265f9d134032e757250,17/03/1954,2020-09-10_13h06.21.708,proactive3.1,2020.1.2,Win32,60,5f599a131af4471f3d752b7b,5f5a1698e2534b062cc71f93,3,,,,,,dice,,,,,,0,17,17,36,1,4,1,,,,,,,,,,,,,,,,,,,,,,,,,,,,,,,,,,,,,,,,,,,,,,,,,,,,,,,,,,,,,,,,,,,,,,,,,,,,,,,,,,,,,,,,,,,,,,,,,,,,,,,,,,,,,
,,,,,,,,,,stimuli/images/PICTURE_504.png,COPS,5f564265f9d134032e757250,17/03/1954,2020-09-10_13h06.21.708,proactive3.1,2020.1.2,Win32,60,5f599a131af4471f3d752b7b,5f5a1698e2534b062cc71f93,3,,,,,,wheel,,,,,,0,18,18,52,1,6,1,,,,,,,,,,,,,,,,,,,,,,,,,,,,,,,,,,,,,,,,,,,,,,,,,,,,,,,,,,,,,,,,,,,,,,,,,,,,,,,,,,,,,,,,,,,,,,,,,,,,,,,,,,,,,
,,,,,,,,,,stimuli/images/PICTURE_340.png,LETTER,5f564265f9d134032e757250,17/03/1954,2020-09-10_13h06.21.708,proactive3.1,2020.1.2,Win32,60,5f599a131af4471f3d752b7b,5f5a1698e2534b062cc71f93,3,,,,,,mirror,,,,,,0,19,19,24,1,3,1,,,,,,,,,,,,,,,,,,,,,,,,,,,,,,,,,,,,,,,,,,,,,,,,,,,,,,,,,,,,,,,,,,,,,,,,,,,,,,,,,,,,,,,,,,,,,,,,,,,,,,,,,,,,,
,,,,,,,,,,stimuli/images/PICTURE_403.png,WRITER,5f564265f9d134032e757250,17/03/1954,2020-09-10_13h06.21.708,proactive3.1,2020.1.2,Win32,60,5f599a131af4471f3d752b7b,5f5a1698e2534b062cc71f93,3,,,,,,cathedral,,,,,,0,20,20,31,1,4,1,,,,,,,,,,,,,,,,,,,,,,,,,,,,,,,,,,,,,,,,,,,,,,,,,,,,,,,,,,,,,,,,,,,,,,,,,,,,,,,,,,,,,,,,,,,,,,,,,,,,,,,,,,,,,
,,,,,,,,,,stimuli/images/PICTURE_57.png,MOMENT,5f564265f9d134032e757250,17/03/1954,2020-09-10_13h06.21.708,proactive3.1,2020.1.2,Win32,60,5f599a131af4471f3d752b7b,5f5a1698e2534b062cc71f93,3,,,,,,stamp,,,,,,0,21,21,37,1,4,1,,,,,,,,,,,,,,,,,,,,,,,,,,,,,,,,,,,,,,,,,,,,,,,,,,,,,,,,,,,,,,,,,,,,,,,,,,,,,,,,,,,,,,,,,,,,,,,,,,,,,,,,,,,,,
,,,,,,,,,,stimuli/images/PICTURE_297.png,RIVER,5f564265f9d134032e757250,17/03/1954,2020-09-10_13h06.21.708,proactive3.1,2020.1.2,Win32,60,5f599a131af4471f3d752b7b,5f5a1698e2534b062cc71f93,3,,,,,,aeroplane,,,,,,0,22,22,39,1,4,1,,,,,,,,,,,,,,,,,,,,,,,,,,,,,,,,,,,,,,,,,,,,,,,,,,,,,,,,,,,,,,,,,,,,,,,,,,,,,,,,,,,,,,,,,,,,,,,,,,,,,,,,,,,,,
,,,,,,,,,,stimuli/images/PICTURE_327.png,SERIES,5f564265f9d134032e757250,17/03/1954,2020-09-10_13h06.21.708,proactive3.1,2020.1.2,Win32,60,5f599a131af4471f3d752b7b,5f5a1698e2534b062cc71f93,3,,,,,,helmet,,,,,,0,23,23,3,1,1,1,,,,,,,,,,,,,,,,,,,,,,,,,,,,,,,,,,,,,,,,,,,,,,,,,,,,,,,,,,,,,,,,,,,,,,,,,,,,,,,,,,,,,,,,,,,,,,,,,,,,,,,,,,,,,
,,,,,,,,,,stimuli/images/PICTURE_147.png,YEAR,5f564265f9d134032e757250,17/03/1954,2020-09-10_13h06.21.708,proactive3.1,2020.1.2,Win32,60,5f599a131af4471f3d752b7b,5f5a1698e2534b062cc71f93,3,,,,,,hanger,,,,,,0,24,24,21,1,3,1,,,,,,,,,,,,,,,,,,,,,,,,,,,,,,,,,,,,,,,,,,,,,,,,,,,,,,,,,,,,,,,,,,,,,,,,,,,,,,,,,,,,,,,,,,,,,,,,,,,,,,,,,,,,,
,,,,,,,,,,stimuli/images/PICTURE_32.png,KIND,5f564265f9d134032e757250,17/03/1954,2020-09-10_13h06.21.708,proactive3.1,2020.1.2,Win32,60,5f599a131af4471f3d752b7b,5f5a1698e2534b062cc71f93,3,,,,,,crown,,,,,,0,25,25,35,1,4,1,,,,,,,,,,,,,,,,,,,,,,,,,,,,,,,,,,,,,,,,,,,,,,,,,,,,,,,,,,,,,,,,,,,,,,,,,,,,,,,,,,,,,,,,,,,,,,,,,,,,,,,,,,,,,
,,,,,,,,,,stimuli/images/PICTURE_233.png,LOTS,5f564265f9d134032e757250,17/03/1954,2020-09-10_13h06.21.708,proactive3.1,2020.1.2,Win32,60,5f599a131af4471f3d752b7b,5f5a1698e2534b062cc71f93,3,,,,,,salt,,,,,,0,26,26,42,1,5,1,,,,,,,,,,,,,,,,,,,,,,,,,,,,,,,,,,,,,,,,,,,,,,,,,,,,,,,,,,,,,,,,,,,,,,,,,,,,,,,,,,,,,,,,,,,,,,,,,,,,,,,,,,,,,
,,,,,,,,,,stimuli/images/PICTURE_68.png,MILE,5f564265f9d134032e757250,17/03/1954,2020-09-10_13h06.21.708,proactive3.1,2020.1.2,Win32,60,5f599a131af4471f3d752b7b,5f5a1698e2534b062cc71f93,3,,,,,,candle,,,,,,0,27,27,51,1,6,1,,,,,,,,,,,,,,,,,,,,,,,,,,,,,,,,,,,,,,,,,,,,,,,,,,,,,,,,,,,,,,,,,,,,,,,,,,,,,,,,,,,,,,,,,,,,,,,,,,,,,,,,,,,,,
,,,,,,,,,,stimuli/images/PICTURE_504.png,YEAR,5f564265f9d134032e757250,17/03/1954,2020-09-10_13h06.21.708,proactive3.1,2020.1.2,Win32,60,5f599a131af4471f3d752b7b,5f5a1698e2534b062cc71f93,3,,,,,,wheel,,,,,,0,28,28,13,1,2,1,,,,,,,,,,,,,,,,,,,,,,,,,,,,,,,,,,,,,,,,,,,,,,,,,,,,,,,,,,,,,,,,,,,,,,,,,,,,,,,,,,,,,,,,,,,,,,,,,,,,,,,,,,,,,
,,,,,,,,,,stimuli/images/PICTURE_339.png,CLIENT,5f564265f9d134032e757250,17/03/1954,2020-09-10_13h06.21.708,proactive3.1,2020.1.2,Win32,60,5f599a131af4471f3d752b7b,5f5a1698e2534b062cc71f93,3,,,,,,backpack,,,,,,0,29,29,11,1,2,1,,,,,,,,,,,,,,,,,,,,,,,,,,,,,,,,,,,,,,,,,,,,,,,,,,,,,,,,,,,,,,,,,,,,,,,,,,,,,,,,,,,,,,,,,,,,,,,,,,,,,,,,,,,,,
,,,,,,,,,,stimuli/images/PICTURE_68.png,ROOF,5f564265f9d134032e757250,17/03/1954,2020-09-10_13h06.21.708,proactive3.1,2020.1.2,Win32,60,5f599a131af4471f3d752b7b,5f5a1698e2534b062cc71f93,3,,,,,,candle,,,,,,0,30,30,38,1,4,1,,,,,,,,,,,,,,,,,,,,,,,,,,,,,,,,,,,,,,,,,,,,,,,,,,,,,,,,,,,,,,,,,,,,,,,,,,,,,,,,,,,,,,,,,,,,,,,,,,,,,,,,,,,,,
,,,,,,,,,,stimuli/images/PICTURE_85.png,NATION,5f564265f9d134032e757250,17/03/1954,2020-09-10_13h06.21.708,proactive3.1,2020.1.2,Win32,60,5f599a131af4471f3d752b7b,5f5a1698e2534b062cc71f93,3,,,,,,diamond,,,,,,0,31,31,5,1,1,1,,,,,,,,,,,,,,,,,,,,,,,,,,,,,,,,,,,,,,,,,,,,,,,,,,,,,,,,,,,,,,,,,,,,,,,,,,,,,,,,,,,,,,,,,,,,,,,,,,,,,,,,,,,,,
,,,,,,,,,,stimuli/images/PICTURE_2.png,FLIGHT,5f564265f9d134032e757250,17/03/1954,2020-09-10_13h06.21.708,proactive3.1,2020.1.2,Win32,60,5f599a131af4471f3d752b7b,5f5a1698e2534b062cc71f93,3,,,,,,tyre,,,,,,0,32,32,15,1,2,1,,,,,,,,,,,,,,,,,,,,,,,,,,,,,,,,,,,,,,,,,,,,,,,,,,,,,,,,,,,,,,,,,,,,,,,,,,,,,,,,,,,,,,,,,,,,,,,,,,,,,,,,,,,,,
,,,,,,,,,,stimuli/images/PICTURE_380.png,HONEY,5f564265f9d134032e757250,17/03/1954,2020-09-10_13h06.21.708,proactive3.1,2020.1.2,Win32,60,5f599a131af4471f3d752b7b,5f5a1698e2534b062cc71f93,3,,,,,,gorilla,,,,,,0,33,33,19,1,2,1,,,,,,,,,,,,,,,,,,,,,,,,,,,,,,,,,,,,,,,,,,,,,,,,,,,,,,,,,,,,,,,,,,,,,,,,,,,,,,,,,,,,,,,,,,,,,,,,,,,,,,,,,,,,,
,,,,,,,,,,stimuli/images/PICTURE_33.png,FRIEND,5f564265f9d134032e757250,17/03/1954,2020-09-10_13h06.21.708,proactive3.1,2020.1.2,Win32,60,5f599a131af4471f3d752b7b,5f5a1698e2534b062cc71f93,3,,,,,,frame,,,,,,0,34,34,8,1,1,1,,,,,,,,,,,,,,,,,,,,,,,,,,,,,,,,,,,,,,,,,,,,,,,,,,,,,,,,,,,,,,,,,,,,,,,,,,,,,,,,,,,,,,,,,,,,,,,,,,,,,,,,,,,,,
,,,,,,,,,,stimuli/images/PICTURE_655.png,TOILET,5f564265f9d134032e757250,17/03/1954,2020-09-10_13h06.21.708,proactive3.1,2020.1.2,Win32,60,5f599a131af4471f3d752b7b,5f5a1698e2534b062cc71f93,3,,,,,,megaphone,,,,,,0,35,35,12,1,2,1,,,,,,,,,,,,,,,,,,,,,,,,,,,,,,,,,,,,,,,,,,,,,,,,,,,,,,,,,,,,,,,,,,,,,,,,,,,,,,,,,,,,,,,,,,,,,,,,,,,,,,,,,,,,,
,,,,,,,,,,stimuli/images/PICTURE_383.png,SERIES,5f564265f9d134032e757250,17/03/1954,2020-09-10_13h06.21.708,proactive3.1,2020.1.2,Win32,60,5f599a131af4471f3d752b7b,5f5a1698e2534b062cc71f93,3,,,,,,coin,,,,,,0,36,36,46,1,5,1,,,,,,,,,,,,,,,,,,,,,,,,,,,,,,,,,,,,,,,,,,,,,,,,,,,,,,,,,,,,,,,,,,,,,,,,,,,,,,,,,,,,,,,,,,,,,,,,,,,,,,,,,,,,,
,,,,,,,,,,stimuli/images/PICTURE_654.png,MONTH,5f564265f9d134032e757250,17/03/1954,2020-09-10_13h06.21.708,proactive3.1,2020.1.2,Win32,60,5f599a131af4471f3d752b7b,5f5a1698e2534b062cc71f93,3,,,,,,pencil,,,,,,0,37,37,29,1,3,1,,,,,,,,,,,,,,,,,,,,,,,,,,,,,,,,,,,,,,,,,,,,,,,,,,,,,,,,,,,,,,,,,,,,,,,,,,,,,,,,,,,,,,,,,,,,,,,,,,,,,,,,,,,,,
,,,,,,,,,,stimuli/images/PICTURE_208.png,SYSTEM,5f564265f9d134032e757250,17/03/1954,2020-09-10_13h06.21.708,proactive3.1,2020.1.2,Win32,60,5f599a131af4471f3d752b7b,5f5a1698e2534b062cc71f93,3,,,,,,microphone,,,,,,0,38,38,32,1,4,1,,,,,,,,,,,,,,,,,,,,,,,,,,,,,,,,,,,,,,,,,,,,,,,,,,,,,,,,,,,,,,,,,,,,,,,,,,,,,,,,,,,,,,,,,,,,,,,,,,,,,,,,,,,,,
,,,,,,,,,,stimuli/images/PICTURE_296.png,LIFE,5f564265f9d134032e757250,17/03/1954,2020-09-10_13h06.21.708,proactive3.1,2020.1.2,Win32,60,5f599a131af4471f3d752b7b,5f5a1698e2534b062cc71f93,3,,,,,,bolt,,,,,,0,39,39,57,1,6,1,,,,,,,,,,,,,,,,,,,,,,,,,,,,,,,,,,,,,,,,,,,,,,,,,,,,,,,,,,,,,,,,,,,,,,,,,,,,,,,,,,,,,,,,,,,,,,,,,,,,,,,,,,,,,
,,,,,,,,,,stimuli/images/PICTURE_95.png,HONEY,5f564265f9d134032e757250,17/03/1954,2020-09-10_13h06.21.708,proactive3.1,2020.1.2,Win32,60,5f599a131af4471f3d752b7b,5f5a1698e2534b062cc71f93,3,,,,,,suitcase,,,,,,0,40,40,44,1,5,1,,,,,,,,,,,,,,,,,,,,,,,,,,,,,,,,,,,,,,,,,,,,,,,,,,,,,,,,,,,,,,,,,,,,,,,,,,,,,,,,,,,,,,,,,,,,,,,,,,,,,,,,,,,,,
,,,,,,,,,,stimuli/images/PICTURE_85.png,TOILET,5f564265f9d134032e757250,17/03/1954,2020-09-10_13h06.21.708,proactive3.1,2020.1.2,Win32,60,5f599a131af4471f3d752b7b,5f5a1698e2534b062cc71f93,3,,,,,,diamond,,,,,,0,41,41,48,1,5,1,,,,,,,,,,,,,,,,,,,,,,,,,,,,,,,,,,,,,,,,,,,,,,,,,,,,,,,,,,,,,,,,,,,,,,,,,,,,,,,,,,,,,,,,,,,,,,,,,,,,,,,,,,,,,
,,,,,,,,,,stimuli/images/PICTURE_177.png,WRITER,5f564265f9d134032e757250,17/03/1954,2020-09-10_13h06.21.708,proactive3.1,2020.1.2,Win32,60,5f599a131af4471f3d752b7b,5f5a1698e2534b062cc71f93,3,,,,,,mushroom,,,,,,0,42,42,41,1,5,1,,,,,,,,,,,,,,,,,,,,,,,,,,,,,,,,,,,,,,,,,,,,,,,,,,,,,,,,,,,,,,,,,,,,,,,,,,,,,,,,,,,,,,,,,,,,,,,,,,,,,,,,,,,,,
,,,,,,,,,,stimuli/images/PICTURE_285.png,LIFE,5f564265f9d134032e757250,17/03/1954,2020-09-10_13h06.21.708,proactive3.1,2020.1.2,Win32,60,5f599a131af4471f3d752b7b,5f5a1698e2534b062cc71f93,3,,,,,,carrot,,,,,,0,43,43,33,1,4,1,,,,,,,,,,,,,,,,,,,,,,,,,,,,,,,,,,,,,,,,,,,,,,,,,,,,,,,,,,,,,,,,,,,,,,,,,,,,,,,,,,,,,,,,,,,,,,,,,,,,,,,,,,,,,
,,,,,,,,,,stimuli/images/PICTURE_685.png,PENNY,5f564265f9d134032e757250,17/03/1954,2020-09-10_13h06.21.708,proactive3.1,2020.1.2,Win32,60,5f599a131af4471f3d752b7b,5f5a1698e2534b062cc71f93,3,,,,,,goose,,,,,,0,44,44,4,1,1,1,,,,,,,,,,,,,,,,,,,,,,,,,,,,,,,,,,,,,,,,,,,,,,,,,,,,,,,,,,,,,,,,,,,,,,,,,,,,,,,,,,,,,,,,,,,,,,,,,,,,,,,,,,,,,
,,,,,,,,,,stimuli/images/PICTURE_750.png,HOTEL,5f564265f9d134032e757250,17/03/1954,2020-09-10_13h06.21.708,proactive3.1,2020.1.2,Win32,60,5f599a131af4471f3d752b7b,5f5a1698e2534b062cc71f93,3,,,,,,kettle,,,,,,0,45,45,27,1,3,1,,,,,,,,,,,,,,,,,,,,,,,,,,,,,,,,,,,,,,,,,,,,,,,,,,,,,,,,,,,,,,,,,,,,,,,,,,,,,,,,,,,,,,,,,,,,,,,,,,,,,,,,,,,,,
,,,,,,,,,,stimuli/images/PICTURE_147.png,WOMEN,5f564265f9d134032e757250,17/03/1954,2020-09-10_13h06.21.708,proactive3.1,2020.1.2,Win32,60,5f599a131af4471f3d752b7b,5f5a1698e2534b062cc71f93,3,,,,,,hanger,,,,,,0,46,46,7,1,1,1,,,,,,,,,,,,,,,,,,,,,,,,,,,,,,,,,,,,,,,,,,,,,,,,,,,,,,,,,,,,,,,,,,,,,,,,,,,,,,,,,,,,,,,,,,,,,,,,,,,,,,,,,,,,,
,,,,,,,,,,stimuli/images/PICTURE_405.png,YEAR,5f564265f9d134032e757250,17/03/1954,2020-09-10_13h06.21.708,proactive3.1,2020.1.2,Win32,60,5f599a131af4471f3d752b7b,5f5a1698e2534b062cc71f93,3,,,,,,anchor,,,,,,0,47,47,34,1,4,1,,,,,,,,,,,,,,,,,,,,,,,,,,,,,,,,,,,,,,,,,,,,,,,,,,,,,,,,,,,,,,,,,,,,,,,,,,,,,,,,,,,,,,,,,,,,,,,,,,,,,,,,,,,,,
,,,,,,,,,,stimuli/images/PICTURE_504.png,ARTIST,5f564265f9d134032e757250,17/03/1954,2020-09-10_13h06.21.708,proactive3.1,2020.1.2,Win32,60,5f599a131af4471f3d752b7b,5f5a1698e2534b062cc71f93,3,,,,,,wheel,,,,,,0,48,48,49,1,5,1,,,,,,,,,,,,,,,,,,,,,,,,,,,,,,,,,,,,,,,,,,,,,,,,,,,,,,,,,,,,,,,,,,,,,,,,,,,,,,,,,,,,,,,,,,,,,,,,,,,,,,,,,,,,,
,,,,,,,,,,stimuli/images/PICTURE_340.png,VALLEY,5f564265f9d134032e757250,17/03/1954,2020-09-10_13h06.21.708,proactive3.1,2020.1.2,Win32,60,5f599a131af4471f3d752b7b,5f5a1698e2534b062cc71f93,3,,,,,,mirror,,,,,,0,49,49,54,1,6,1,,,,,,,,,,,,,,,,,,,,,,,,,,,,,,,,,,,,,,,,,,,,,,,,,,,,,,,,,,,,,,,,,,,,,,,,,,,,,,,,,,,,,,,,,,,,,,,,,,,,,,,,,,,,,
,,,,,,,,,,stimuli/images/PICTURE_203.png,GODS,5f564265f9d134032e757250,17/03/1954,2020-09-10_13h06.21.708,proactive3.1,2020.1.2,Win32,60,5f599a131af4471f3d752b7b,5f5a1698e2534b062cc71f93,3,,,,,,cap,,,,,,0,50,50,30,1,4,1,,,,,,,,,,,,,,,,,,,,,,,,,,,,,,,,,,,,,,,,,,,,,,,,,,,,,,,,,,,,,,,,,,,,,,,,,,,,,,,,,,,,,,,,,,,,,,,,,,,,,,,,,,,,,
,,,,,,,,,,stimuli/images/PICTURE_327.png,CASINO,5f564265f9d134032e757250,17/03/1954,2020-09-10_13h06.21.708,proactive3.1,2020.1.2,Win32,60,5f599a131af4471f3d752b7b,5f5a1698e2534b062cc71f93,3,,,,,,helmet,,,,,,0,51,51,20,1,3,1,,,,,,,,,,,,,,,,,,,,,,,,,,,,,,,,,,,,,,,,,,,,,,,,,,,,,,,,,,,,,,,,,,,,,,,,,,,,,,,,,,,,,,,,,,,,,,,,,,,,,,,,,,,,,
,,,,,,,,,,stimuli/images/PICTURE_403.png,RIVER,5f564265f9d134032e757250,17/03/1954,2020-09-10_13h06.21.708,proactive3.1,2020.1.2,Win32,60,5f599a131af4471f3d752b7b,5f5a1698e2534b062cc71f93,3,,,,,,cathedral,,,,,,0,52,52,40,1,5,1,,,,,,,,,,,,,,,,,,,,,,,,,,,,,,,,,,,,,,,,,,,,,,,,,,,,,,,,,,,,,,,,,,,,,,,,,,,,,,,,,,,,,,,,,,,,,,,,,,,,,,,,,,,,,
,,,,,,,,,,stimuli/images/PICTURE_95.png,MILLER,5f564265f9d134032e757250,17/03/1954,2020-09-10_13h06.21.708,proactive3.1,2020.1.2,Win32,60,5f599a131af4471f3d752b7b,5f5a1698e2534b062cc71f93,3,,,,,,suitcase,,,,,,0,53,53,56,1,6,1,,,,,,,,,,,,,,,,,,,,,,,,,,,,,,,,,,,,,,,,,,,,,,,,,,,,,,,,,,,,,,,,,,,,,,,,,,,,,,,,,,,,,,,,,,,,,,,,,,,,,,,,,,,,,
,,,,,,,,,,stimuli/images/PICTURE_403.png,TOILET,5f564265f9d134032e757250,17/03/1954,2020-09-10_13h06.21.708,proactive3.1,2020.1.2,Win32,60,5f599a131af4471f3d752b7b,5f5a1698e2534b062cc71f93,3,,,,,,cathedral,,,,,,0,54,54,25,1,3,1,,,,,,,,,,,,,,,,,,,,,,,,,,,,,,,,,,,,,,,,,,,,,,,,,,,,,,,,,,,,,,,,,,,,,,,,,,,,,,,,,,,,,,,,,,,,,,,,,,,,,,,,,,,,,
,,,,,,,,,,stimuli/images/PICTURE_677.png,APPLE,5f564265f9d134032e757250,17/03/1954,2020-09-10_13h06.21.708,proactive3.1,2020.1.2,Win32,60,5f599a131af4471f3d752b7b,5f5a1698e2534b062cc71f93,3,,,,,,map,,,,,,0,55,55,43,1,5,1,,,,,,,,,,,,,,,,,,,,,,,,,,,,,,,,,,,,,,,,,,,,,,,,,,,,,,,,,,,,,,,,,,,,,,,,,,,,,,,,,,,,,,,,,,,,,,,,,,,,,,,,,,,,,
,,,,,,,,,,stimuli/images/PICTURE_449.png,DUDE,5f564265f9d134032e757250,17/03/1954,2020-09-10_13h06.21.708,proactive3.1,2020.1.2,Win32,60,5f599a131af4471f3d752b7b,5f5a1698e2534b062cc71f93,3,,,,,,bench,,,,,,0,56,56,17,1,2,1,,,,,,,,,,,,,,,,,,,,,,,,,,,,,,,,,,,,,,,,,,,,,,,,,,,,,,,,,,,,,,,,,,,,,,,,,,,,,,,,,,,,,,,,,,,,,,,,,,,,,,,,,,,,,
,,,,,,,,,,stimuli/images/PICTURE_708.png,RECORD,5f564265f9d134032e757250,17/03/1954,2020-09-10_13h06.21.708,proactive3.1,2020.1.2,Win32,60,5f599a131af4471f3d752b7b,5f5a1698e2534b062cc71f93,3,,,,,,monkey,,,,,,0,57,57,58,1,6,1,,,,,,,,,,,,,,,,,,,,,,,,,,,,,,,,,,,,,,,,,,,,,,,,,,,,,,,,,,,,,,,,,,,,,,,,,,,,,,,,,,,,,,,,,,,,,,,,,,,,,,,,,,,,,
,,,,,,,,,,stimuli/images/PICTURE_42.png,BOYS,5f564265f9d134032e757250,17/03/1954,2020-09-10_13h06.21.708,proactive3.1,2020.1.2,Win32,60,5f599a131af4471f3d752b7b,5f5a1698e2534b062cc71f93,3,,,,,,pear,,,,,,0,58,58,55,1,6,1,,,,,,,,,,,,,,,,,,,,,,,,,,,,,,,,,,,,,,,,,,,,,,,,,,,,,,,,,,,,,,,,,,,,,,,,,,,,,,,,,,,,,,,,,,,,,,,,,,,,,,,,,,,,,
,,?,0.001635,0,,,,,,stimuli/images/PICTURE_491.png,RIVER,5f564265f9d134032e757250,17/03/1954,2020-09-10_13h06.21.708,proactive3.1,2020.1.2,Win32,60,5f599a131af4471f3d752b7b,5f5a1698e2534b062cc71f93,3,,,,,,rug,,,,,,,,,,,1,1,0,0,0,6,1,,,,,,,,,,,,,,,,,,,,,,,,,,,,,,,,,,,,,,,,,,,,,,,,,,,,,,,,,,,,,,,,,,,,,,,,,,,,,,,,,,,,,,,,,,,,,,,,,,,,,,,,
,,?,0.00396,0,,,,,,stimuli/images/PICTURE_403.png,WRITER,5f564265f9d134032e757250,17/03/1954,2020-09-10_13h06.21.708,proactive3.1,2020.1.2,Win32,60,5f599a131af4471f3d752b7b,5f5a1698e2534b062cc71f93,3,,,,,,cathedral,,,,,,,,,,,4,1,0,1,1,31,1,,,,,,,,,,,,,,,,,,,,,,,,,,,,,,,,,,,,,,,,,,,,,,,,,,,,,,,,,,,,,,,,,,,,,,,,,,,,,,,,,,,,,,,,,,,,,,,,,,,,,,,,
,,?,0.00158,0,,,,,,stimuli/images/PICTURE_667.png,RIVER,5f564265f9d134032e757250,17/03/1954,2020-09-10_13h06.21.708,proactive3.1,2020.1.2,Win32,60,5f599a131af4471f3d752b7b,5f5a1698e2534b062cc71f93,3,,,,,,daisy,,,,,,,,,,,2,1,0,2,2,10,1,,,,,,,,,,,,,,,,,,,,,,,,,,,,,,,,,,,,,,,,,,,,,,,,,,,,,,,,,,,,,,,,,,,,,,,,,,,,,,,,,,,,,,,,,,,,,,,,,,,,,,,,
,,?,0.00165,0,,,,,,stimuli/images/PICTURE_469.png,AGENT,5f564265f9d134032e757250,17/03/1954,2020-09-10_13h06.21.708,proactive3.1,2020.1.2,Win32,60,5f599a131af4471f3d752b7b,5f5a1698e2534b062cc71f93,3,,,,,,stool,,,,,,,,,,,2,1,0,3,3,16,1,,,,,,,,,,,,,,,,,,,,,,,,,,,,,,,,,,,,,,,,,,,,,,,,,,,,,,,,,,,,,,,,,,,,,,,,,,,,,,,,,,,,,,,,,,,,,,,,,,,,,,,,
,,WRITER,10.72326,0,,,,,,stimuli/images/PICTURE_654.png,MONTH,5f564265f9d134032e757250,17/03/1954,2020-09-10_13h06.21.708,proactive3.1,2020.1.2,Win32,60,5f599a131af4471f3d752b7b,5f5a1698e2534b062cc71f93,3,,,,,,pencil,,,,,,,,,,,3,1,0,4,4,29,1,,,,,,,,,,,,,,,,,,,,,,,,,,,,,,,,,,,,,,,,,,,,,,,,,,,,,,,,,,,,,,,,,,,,,,,,,,,,,,,,,,,,,,,,,,,,,,,,,,,,,,,,
,,?,0.00173,0,,,,,,stimuli/images/PICTURE_32.png,KIND,5f564265f9d134032e757250,17/03/1954,2020-09-10_13h06.21.708,proactive3.1,2020.1.2,Win32,60,5f599a131af4471f3d752b7b,5f5a1698e2534b062cc71f93,3,,,,,,crown,,,,,,,,,,,4,1,0,5,5,35,1,,,,,,,,,,,,,,,,,,,,,,,,,,,,,,,,,,,,,,,,,,,,,,,,,,,,,,,,,,,,,,,,,,,,,,,,,,,,,,,,,,,,,,,,,,,,,,,,,,,,,,,,
,,?,0.004105,0,,,,,,stimuli/images/PICTURE_296.png,LOTS,5f564265f9d134032e757250,17/03/1954,2020-09-10_13h06.21.708,proactive3.1,2020.1.2,Win32,60,5f599a131af4471f3d752b7b,5f5a1698e2534b062cc71f93,3,,,,,,bolt,,,,,,,,,,,1,1,0,6,6,9,1,,,,,,,,,,,,,,,,,,,,,,,,,,,,,,,,,,,,,,,,,,,,,,,,,,,,,,,,,,,,,,,,,,,,,,,,,,,,,,,,,,,,,,,,,,,,,,,,,,,,,,,,
,,CASINO,10.130765,1,,,,,,stimuli/images/PICTURE_327.png,CASINO,5f564265f9d134032e757250,17/03/1954,2020-09-10_13h06.21.708,proactive3.1,2020.1.2,Win32,60,5f599a131af4471f3d752b7b,5f5a1698e2534b062cc71f93,3,,,,,,helmet,,,,,,,,,,,3,1,0,7,7,20,1,,,,,,,,,,,,,,,,,,,,,,,,,,,,,,,,,,,,,,,,,,,,,,,,,,,,,,,,,,,,,,,,,,,,,,,,,,,,,,,,,,,,,,,,,,,,,,,,,,,,,,,,
,,?,0.0016,0,,,,,,stimuli/images/PICTURE_147.png,WOMEN,5f564265f9d134032e757250,17/03/1954,2020-09-10_13h06.21.708,proactive3.1,2020.1.2,Win32,60,5f599a131af4471f3d752b7b,5f5a1698e2534b062cc71f93,3,,,,,,hanger,,,,,,,,,,,1,1,0,8,8,7,1,,,,,,,,,,,,,,,,,,,,,,,,,,,,,,,,,,,,,,,,,,,,,,,,,,,,,,,,,,,,,,,,,,,,,,,,,,,,,,,,,,,,,,,,,,,,,,,,,,,,,,,,
,,?,0.00161,0,,,,,,stimuli/images/PICTURE_487.png,GIRL,5f564265f9d134032e757250,17/03/1954,2020-09-10_13h06.21.708,proactive3.1,2020.1.2,Win32,60,5f599a131af4471f3d752b7b,5f5a1698e2534b062cc71f93,3,,,,,,basket,,,,,,,,,,,5,1,0,9,9,45,1,,,,,,,,,,,,,,,,,,,,,,,,,,,,,,,,,,,,,,,,,,,,,,,,,,,,,,,,,,,,,,,,,,,,,,,,,,,,,,,,,,,,,,,,,,,,,,,,,,,,,,,,
,,?,0.00167,0,,,,,,stimuli/images/PICTURE_233.png,LOTS,5f564265f9d134032e757250,17/03/1954,2020-09-10_13h06.21.708,proactive3.1,2020.1.2,Win32,60,5f599a131af4471f3d752b7b,5f5a1698e2534b062cc71f93,3,,,,,,salt,,,,,,,,,,,5,1,0,10,10,42,1,,,,,,,,,,,,,,,,,,,,,,,,,,,,,,,,,,,,,,,,,,,,,,,,,,,,,,,,,,,,,,,,,,,,,,,,,,,,,,,,,,,,,,,,,,,,,,,,,,,,,,,,
,,?,0.002225,0,,,,,,stimuli/images/PICTURE_340.png,VALLEY,5f564265f9d134032e757250,17/03/1954,2020-09-10_13h06.21.708,proactive3.1,2020.1.2,Win32,60,5f599a131af4471f3d752b7b,5f5a1698e2534b062cc71f93,3,,,,,,mirror,,,,,,,,,,,6,1,0,11,11,54,1,,,,,,,,,,,,,,,,,,,,,,,,,,,,,,,,,,,,,,,,,,,,,,,,,,,,,,,,,,,,,,,,,,,,,,,,,,,,,,,,,,,,,,,,,,,,,,,,,,,,,,,,
,,YEAR,11.886495,0,,,,,,stimuli/images/PICTURE_405.png,PLENTY,5f564265f9d134032e757250,17/03/1954,2020-09-10_13h06.21.708,proactive3.1,2020.1.2,Win32,60,5f599a131af4471f3d752b7b,5f5a1698e2534b062cc71f93,3,,,,,,anchor,,,,,,,,,,,3,1,0,12,12,23,1,,,,,,,,,,,,,,,,,,,,,,,,,,,,,,,,,,,,,,,,,,,,,,,,,,,,,,,,,,,,,,,,,,,,,,,,,,,,,,,,,,,,,,,,,,,,,,,,,,,,,,,,
,,?,0.004035,0,,,,,,stimuli/images/PICTURE_403.png,RIVER,5f564265f9d134032e757250,17/03/1954,2020-09-10_13h06.21.708,proactive3.1,2020.1.2,Win32,60,5f599a131af4471f3d752b7b,5f5a1698e2534b062cc71f93,3,,,,,,cathedral,,,,,,,,,,,5,1,0,13,13,40,1,,,,,,,,,,,,,,,,,,,,,,,,,,,,,,,,,,,,,,,,,,,,,,,,,,,,,,,,,,,,,,,,,,,,,,,,,,,,,,,,,,,,,,,,,,,,,,,,,,,,,,,,
,,?,0.001535,0,,,,,,stimuli/images/PICTURE_708.png,RECORD,5f564265f9d134032e757250,17/03/1954,2020-09-10_13h06.21.708,proactive3.1,2020.1.2,Win32,60,5f599a131af4471f3d752b7b,5f5a1698e2534b062cc71f93,3,,,,,,monkey,,,,,,,,,,,6,1,0,14,14,58,1,,,,,,,,,,,,,,,,,,,,,,,,,,,,,,,,,,,,,,,,,,,,,,,,,,,,,,,,,,,,,,,,,,,,,,,,,,,,,,,,,,,,,,,,,,,,,,,,,,,,,,,,
,,?,0.002745,0,,,,,,stimuli/images/PICTURE_68.png,ROOF,5f564265f9d134032e757250,17/03/1954,2020-09-10_13h06.21.708,proactive3.1,2020.1.2,Win32,60,5f599a131af4471f3d752b7b,5f5a1698e2534b062cc71f93,3,,,,,,candle,,,,,,,,,,,4,1,0,15,15,38,1,,,,,,,,,,,,,,,,,,,,,,,,,,,,,,,,,,,,,,,,,,,,,,,,,,,,,,,,,,,,,,,,,,,,,,,,,,,,,,,,,,,,,,,,,,,,,,,,,,,,,,,,
,,?,0.001515,0,,,,,,stimuli/images/PICTURE_177.png,WRITER,5f564265f9d134032e757250,17/03/1954,2020-09-10_13h06.21.708,proactive3.1,2020.1.2,Win32,60,5f599a131af4471f3d752b7b,5f5a1698e2534b062cc71f93,3,,,,,,mushroom,,,,,,,,,,,5,1,0,16,16,41,1,,,,,,,,,,,,,,,,,,,,,,,,,,,,,,,,,,,,,,,,,,,,,,,,,,,,,,,,,,,,,,,,,,,,,,,,,,,,,,,,,,,,,,,,,,,,,,,,,,,,,,,,
,,?,0.00151,0,,,,,,stimuli/images/PICTURE_297.png,RIVER,5f564265f9d134032e757250,17/03/1954,2020-09-10_13h06.21.708,proactive3.1,2020.1.2,Win32,60,5f599a131af4471f3d752b7b,5f5a1698e2534b062cc71f93,3,,,,,,aeroplane,,,,,,,,,,,4,1,0,17,17,39,1,,,,,,,,,,,,,,,,,,,,,,,,,,,,,,,,,,,,,,,,,,,,,,,,,,,,,,,,,,,,,,,,,,,,,,,,,,,,,,,,,,,,,,,,,,,,,,,,,,,,,,,,
,,?,0.001535,0,,,,,,stimuli/images/PICTURE_380.png,HONEY,5f564265f9d134032e757250,17/03/1954,2020-09-10_13h06.21.708,proactive3.1,2020.1.2,Win32,60,5f599a131af4471f3d752b7b,5f5a1698e2534b062cc71f93,3,,,,,,gorilla,,,,,,,,,,,2,1,0,18,18,19,1,,,,,,,,,,,,,,,,,,,,,,,,,,,,,,,,,,,,,,,,,,,,,,,,,,,,,,,,,,,,,,,,,,,,,,,,,,,,,,,,,,,,,,,,,,,,,,,,,,,,,,,,
,,?,0.002975,0,,,,,,stimuli/images/PICTURE_57.png,MOMENT,5f564265f9d134032e757250,17/03/1954,2020-09-10_13h06.21.708,proactive3.1,2020.1.2,Win32,60,5f599a131af4471f3d752b7b,5f5a1698e2534b062cc71f93,3,,,,,,stamp,,,,,,,,,,,4,1,0,19,19,37,1,,,,,,,,,,,,,,,,,,,,,,,,,,,,,,,,,,,,,,,,,,,,,,,,,,,,,,,,,,,,,,,,,,,,,,,,,,,,,,,,,,,,,,,,,,,,,,,,,,,,,,,,
,,YEAR,6.89268,0,,,,,,stimuli/images/PICTURE_108.png,POLICY,5f564265f9d134032e757250,17/03/1954,2020-09-10_13h06.21.708,proactive3.1,2020.1.2,Win32,60,5f599a131af4471f3d752b7b,5f5a1698e2534b062cc71f93,3,,,,,,calendar,,,,,,,,,,,3,1,0,20,20,22,1,,,,,,,,,,,,,,,,,,,,,,,,,,,,,,,,,,,,,,,,,,,,,,,,,,,,,,,,,,,,,,,,,,,,,,,,,,,,,,,,,,,,,,,,,,,,,,,,,,,,,,,,
,,HOTEL,8.40191,0,,,,,,stimuli/images/PICTURE_340.png,LETTER,5f564265f9d134032e757250,17/03/1954,2020-09-10_13h06.21.708,proactive3.1,2020.1.2,Win32,60,5f599a131af4471f3d752b7b,5f5a1698e2534b062cc71f93,3,,,,,,mirror,,,,,,,,,,,3,1,0,21,21,24,1,,,,,,,,,,,,,,,,,,,,,,,,,,,,,,,,,,,,,,,,,,,,,,,,,,,,,,,,,,,,,,,,,,,,,,,,,,,,,,,,,,,,,,,,,,,,,,,,,,,,,,,,
,,?,0.00153,0,,,,,,stimuli/images/PICTURE_685.png,PENNY,5f564265f9d134032e757250,17/03/1954,2020-09-10_13h06.21.708,proactive3.1,2020.1.2,Win32,60,5f599a131af4471f3d752b7b,5f5a1698e2534b062cc71f93,3,,,,,,goose,,,,,,,,,,,1,1,0,22,22,4,1,,,,,,,,,,,,,,,,,,,,,,,,,,,,,,,,,,,,,,,,,,,,,,,,,,,,,,,,,,,,,,,,,,,,,,,,,,,,,,,,,,,,,,,,,,,,,,,,,,,,,,,,
,,?,0.00153,0,,,,,,stimuli/images/PICTURE_675.png,SALE,5f564265f9d134032e757250,17/03/1954,2020-09-10_13h06.21.708,proactive3.1,2020.1.2,Win32,60,5f599a131af4471f3d752b7b,5f5a1698e2534b062cc71f93,3,,,,,,windmill,,,,,,,,,,,5,1,0,23,23,47,1,,,,,,,,,,,,,,,,,,,,,,,,,,,,,,,,,,,,,,,,,,,,,,,,,,,,,,,,,,,,,,,,,,,,,,,,,,,,,,,,,,,,,,,,,,,,,,,,,,,,,,,,
,,?,0.00254,0,,,,,,stimuli/images/PICTURE_339.png,CLIENT,5f564265f9d134032e757250,17/03/1954,2020-09-10_13h06.21.708,proactive3.1,2020.1.2,Win32,60,5f599a131af4471f3d752b7b,5f5a1698e2534b062cc71f93,3,,,,,,backpack,,,,,,,,,,,2,1,0,24,24,11,1,,,,,,,,,,,,,,,,,,,,,,,,,,,,,,,,,,,,,,,,,,,,,,,,,,,,,,,,,,,,,,,,,,,,,,,,,,,,,,,,,,,,,,,,,,,,,,,,,,,,,,,,
,,?,0.00185,0,,,,,,stimuli/images/PICTURE_68.png,MILE,5f564265f9d134032e757250,17/03/1954,2020-09-10_13h06.21.708,proactive3.1,2020.1.2,Win32,60,5f599a131af4471f3d752b7b,5f5a1698e2534b062cc71f93,3,,,,,,candle,,,,,,,,,,,6,1,0,25,25,51,1,,,,,,,,,,,,,,,,,,,,,,,,,,,,,,,,,,,,,,,,,,,,,,,,,,,,,,,,,,,,,,,,,,,,,,,,,,,,,,,,,,,,,,,,,,,,,,,,,,,,,,,,
,,?,0.00162,0,,,,,,stimuli/images/PICTURE_504.png,ARTIST,5f564265f9d134032e757250,17/03/1954,2020-09-10_13h06.21.708,proactive3.1,2020.1.2,Win32,60,5f599a131af4471f3d752b7b,5f5a1698e2534b062cc71f93,3,,,,,,wheel,,,,,,,,,,,5,1,0,26,26,49,1,,,,,,,,,,,,,,,,,,,,,,,,,,,,,,,,,,,,,,,,,,,,,,,,,,,,,,,,,,,,,,,,,,,,,,,,,,,,,,,,,,,,,,,,,,,,,,,,,,,,,,,,
,,?,0.00155,0,,,,,,stimuli/images/PICTURE_42.png,BOYS,5f564265f9d134032e757250,17/03/1954,2020-09-10_13h06.21.708,proactive3.1,2020.1.2,Win32,60,5f599a131af4471f3d752b7b,5f5a1698e2534b062cc71f93,3,,,,,,pear,,,,,,,,,,,6,1,0,27,27,55,1,,,,,,,,,,,,,,,,,,,,,,,,,,,,,,,,,,,,,,,,,,,,,,,,,,,,,,,,,,,,,,,,,,,,,,,,,,,,,,,,,,,,,,,,,,,,,,,,,,,,,,,,
,,?,0.00142,0,,,,,,stimuli/images/PICTURE_32.png,PILLS,5f564265f9d134032e757250,17/03/1954,2020-09-10_13h06.21.708,proactive3.1,2020.1.2,Win32,60,5f599a131af4471f3d752b7b,5f5a1698e2534b062cc71f93,3,,,,,,crown,,,,,,,,,,,2,1,0,28,28,18,1,,,,,,,,,,,,,,,,,,,,,,,,,,,,,,,,,,,,,,,,,,,,,,,,,,,,,,,,,,,,,,,,,,,,,,,,,,,,,,,,,,,,,,,,,,,,,,,,,,,,,,,,
,,?,0.00155,0,,,,,,stimuli/images/PICTURE_655.png,TOILET,5f564265f9d134032e757250,17/03/1954,2020-09-10_13h06.21.708,proactive3.1,2020.1.2,Win32,60,5f599a131af4471f3d752b7b,5f5a1698e2534b062cc71f93,3,,,,,,megaphone,,,,,,,,,,,2,1,0,29,29,12,1,,,,,,,,,,,,,,,,,,,,,,,,,,,,,,,,,,,,,,,,,,,,,,,,,,,,,,,,,,,,,,,,,,,,,,,,,,,,,,,,,,,,,,,,,,,,,,,,,,,,,,,,
,,PLENTY,7.726515,0,,,,,,stimuli/images/PICTURE_564.png,BATH,5f564265f9d134032e757250,17/03/1954,2020-09-10_13h06.21.708,proactive3.1,2020.1.2,Win32,60,5f599a131af4471f3d752b7b,5f5a1698e2534b062cc71f93,3,,,,,,spoon,,,,,,,,,,,3,1,0,30,30,26,1,,,,,,,,,,,,,,,,,,,,,,,,,,,,,,,,,,,,,,,,,,,,,,,,,,,,,,,,,,,,,,,,,,,,,,,,,,,,,,,,,,,,,,,,,,,,,,,,,,,,,,,,
,,?,0.001535,0,,,,,,stimuli/images/PICTURE_203.png,NIGHT,5f564265f9d134032e757250,17/03/1954,2020-09-10_13h06.21.708,proactive3.1,2020.1.2,Win32,60,5f599a131af4471f3d752b7b,5f5a1698e2534b062cc71f93,3,,,,,,cap,,,,,,,,,,,1,1,0,31,31,2,1,,,,,,,,,,,,,,,,,,,,,,,,,,,,,,,,,,,,,,,,,,,,,,,,,,,,,,,,,,,,,,,,,,,,,,,,,,,,,,,,,,,,,,,,,,,,,,,,,,,,,,,,
,,?,0.00151,0,,,,,,stimuli/images/PICTURE_504.png,COPS,5f564265f9d134032e757250,17/03/1954,2020-09-10_13h06.21.708,proactive3.1,2020.1.2,Win32,60,5f599a131af4471f3d752b7b,5f5a1698e2534b062cc71f93,3,,,,,,wheel,,,,,,,,,,,6,1,0,32,32,52,1,,,,,,,,,,,,,,,,,,,,,,,,,,,,,,,,,,,,,,,,,,,,,,,,,,,,,,,,,,,,,,,,,,,,,,,,,,,,,,,,,,,,,,,,,,,,,,,,,,,,,,,,
,,?,0.00515,0,,,,,,stimuli/images/PICTURE_449.png,DUDE,5f564265f9d134032e757250,17/03/1954,2020-09-10_13h06.21.708,proactive3.1,2020.1.2,Win32,60,5f599a131af4471f3d752b7b,5f5a1698e2534b062cc71f93,3,,,,,,bench,,,,,,,,,,,2,1,0,33,33,17,1,,,,,,,,,,,,,,,,,,,,,,,,,,,,,,,,,,,,,,,,,,,,,,,,,,,,,,,,,,,,,,,,,,,,,,,,,,,,,,,,,,,,,,,,,,,,,,,,,,,,,,,,
,,?,0.001525,0,,,,,,stimuli/images/PICTURE_108.png,FLIGHT,5f564265f9d134032e757250,17/03/1954,2020-09-10_13h06.21.708,proactive3.1,2020.1.2,Win32,60,5f599a131af4471f3d752b7b,5f5a1698e2534b062cc71f93,3,,,,,,calendar,,,,,,,,,,,6,1,0,34,34,59,1,,,,,,,,,,,,,,,,,,,,,,,,,,,,,,,,,,,,,,,,,,,,,,,,,,,,,,,,,,,,,,,,,,,,,,,,,,,,,,,,,,,,,,,,,,,,,,,,,,,,,,,,
,,?,0.001435,0,,,,,,stimuli/images/PICTURE_95.png,BOYS,5f564265f9d134032e757250,17/03/1954,2020-09-10_13h06.21.708,proactive3.1,2020.1.2,Win32,60,5f599a131af4471f3d752b7b,5f5a1698e2534b062cc71f93,3,,,,,,suitcase,,,,,,,,,,,1,1,0,35,35,1,1,,,,,,,,,,,,,,,,,,,,,,,,,,,,,,,,,,,,,,,,,,,,,,,,,,,,,,,,,,,,,,,,,,,,,,,,,,,,,,,,,,,,,,,,,,,,,,,,,,,,,,,,
,,?,0.001535,0,,,,,,stimuli/images/PICTURE_467.png,POLICY,5f564265f9d134032e757250,17/03/1954,2020-09-10_13h06.21.708,proactive3.1,2020.1.2,Win32,60,5f599a131af4471f3d752b7b,5f5a1698e2534b062cc71f93,3,,,,,,peg,,,,,,,,,,,6,1,0,36,36,53,1,,,,,,,,,,,,,,,,,,,,,,,,,,,,,,,,,,,,,,,,,,,,,,,,,,,,,,,,,,,,,,,,,,,,,,,,,,,,,,,,,,,,,,,,,,,,,,,,,,,,,,,,
,,?,0.002715,0,,,,,,stimuli/images/PICTURE_95.png,MILLER,5f564265f9d134032e757250,17/03/1954,2020-09-10_13h06.21.708,proactive3.1,2020.1.2,Win32,60,5f599a131af4471f3d752b7b,5f5a1698e2534b062cc71f93,3,,,,,,suitcase,,,,,,,,,,,6,1,0,37,37,56,1,,,,,,,,,,,,,,,,,,,,,,,,,,,,,,,,,,,,,,,,,,,,,,,,,,,,,,,,,,,,,,,,,,,,,,,,,,,,,,,,,,,,,,,,,,,,,,,,,,,,,,,,
,,?,0.00141,0,,,,,,stimuli/images/PICTURE_504.png,YEAR,5f564265f9d134032e757250,17/03/1954,2020-09-10_13h06.21.708,proactive3.1,2020.1.2,Win32,60,5f599a131af4471f3d752b7b,5f5a1698e2534b062cc71f93,3,,,,,,wheel,,,,,,,,,,,2,1,0,38,38,13,1,,,,,,,,,,,,,,,,,,,,,,,,,,,,,,,,,,,,,,,,,,,,,,,,,,,,,,,,,,,,,,,,,,,,,,,,,,,,,,,,,,,,,,,,,,,,,,,,,,,,,,,,
,,?,0.001485,0,,,,,,stimuli/images/PICTURE_85.png,TOILET,5f564265f9d134032e757250,17/03/1954,2020-09-10_13h06.21.708,proactive3.1,2020.1.2,Win32,60,5f599a131af4471f3d752b7b,5f5a1698e2534b062cc71f93,3,,,,,,diamond,,,,,,,,,,,5,1,0,39,39,48,1,,,,,,,,,,,,,,,,,,,,,,,,,,,,,,,,,,,,,,,,,,,,,,,,,,,,,,,,,,,,,,,,,,,,,,,,,,,,,,,,,,,,,,,,,,,,,,,,,,,,,,,,
,,BATH,13.916855,0,,,,,,stimuli/images/PICTURE_147.png,YEAR,5f564265f9d134032e757250,17/03/1954,2020-09-10_13h06.21.708,proactive3.1,2020.1.2,Win32,60,5f599a131af4471f3d752b7b,5f5a1698e2534b062cc71f93,3,,,,,,hanger,,,,,,,,,,,3,1,0,40,40,21,1,,,,,,,,,,,,,,,,,,,,,,,,,,,,,,,,,,,,,,,,,,,,,,,,,,,,,,,,,,,,,,,,,,,,,,,,,,,,,,,,,,,,,,,,,,,,,,,,,,,,,,,,
,,?,0.00155,0,,,,,,stimuli/images/PICTURE_308.png,FAMILY,5f564265f9d134032e757250,17/03/1954,2020-09-10_13h06.21.708,proactive3.1,2020.1.2,Win32,60,5f599a131af4471f3d752b7b,5f5a1698e2534b062cc71f93,3,,,,,,dice,,,,,,,,,,,4,1,0,41,41,36,1,,,,,,,,,,,,,,,,,,,,,,,,,,,,,,,,,,,,,,,,,,,,,,,,,,,,,,,,,,,,,,,,,,,,,,,,,,,,,,,,,,,,,,,,,,,,,,,,,,,,,,,,
,,?,0.001475,0,,,,,,stimuli/images/PICTURE_380.png,CANDY,5f564265f9d134032e757250,17/03/1954,2020-09-10_13h06.21.708,proactive3.1,2020.1.2,Win32,60,5f599a131af4471f3d752b7b,5f5a1698e2534b062cc71f93,3,,,,,,gorilla,,,,,,,,,,,1,1,0,42,42,0,1,,,,,,,,,,,,,,,,,,,,,,,,,,,,,,,,,,,,,,,,,,,,,,,,,,,,,,,,,,,,,,,,,,,,,,,,,,,,,,,,,,,,,,,,,,,,,,,,,,,,,,,,
,,?,0.00149,0,,,,,,stimuli/images/PICTURE_208.png,SYSTEM,5f564265f9d134032e757250,17/03/1954,2020-09-10_13h06.21.708,proactive3.1,2020.1.2,Win32,60,5f599a131af4471f3d752b7b,5f5a1698e2534b062cc71f93,3,,,,,,microphone,,,,,,,,,,,4,1,0,43,43,32,1,,,,,,,,,,,,,,,,,,,,,,,,,,,,,,,,,,,,,,,,,,,,,,,,,,,,,,,,,,,,,,,,,,,,,,,,,,,,,,,,,,,,,,,,,,,,,,,,,,,,,,,,
,,?,0.00151,0,,,,,,stimuli/images/PICTURE_85.png,NATION,5f564265f9d134032e757250,17/03/1954,2020-09-10_13h06.21.708,proactive3.1,2020.1.2,Win32,60,5f599a131af4471f3d752b7b,5f5a1698e2534b062cc71f93,3,,,,,,diamond,,,,,,,,,,,1,1,0,44,44,5,1,,,,,,,,,,,,,,,,,,,,,,,,,,,,,,,,,,,,,,,,,,,,,,,,,,,,,,,,,,,,,,,,,,,,,,,,,,,,,,,,,,,,,,,,,,,,,,,,,,,,,,,,
,,?,0.001485,0,,,,,,stimuli/images/PICTURE_2.png,FLIGHT,5f564265f9d134032e757250,17/03/1954,2020-09-10_13h06.21.708,proactive3.1,2020.1.2,Win32,60,5f599a131af4471f3d752b7b,5f5a1698e2534b062cc71f93,3,,,,,,tyre,,,,,,,,,,,2,1,0,45,45,15,1,,,,,,,,,,,,,,,,,,,,,,,,,,,,,,,,,,,,,,,,,,,,,,,,,,,,,,,,,,,,,,,,,,,,,,,,,,,,,,,,,,,,,,,,,,,,,,,,,,,,,,,,
,,PLENTY,8.804485,0,,,,,,stimuli/images/PICTURE_383.png,WRITER,5f564265f9d134032e757250,17/03/1954,2020-09-10_13h06.21.708,proactive3.1,2020.1.2,Win32,60,5f599a131af4471f3d752b7b,5f5a1698e2534b062cc71f93,3,,,,,,coin,,,,,,,,,,,3,1,0,46,46,28,1,,,,,,,,,,,,,,,,,,,,,,,,,,,,,,,,,,,,,,,,,,,,,,,,,,,,,,,,,,,,,,,,,,,,,,,,,,,,,,,,,,,,,,,,,,,,,,,,,,,,,,,,
,,?,0.00156,0,,,,,,stimuli/images/PICTURE_203.png,GODS,5f564265f9d134032e757250,17/03/1954,2020-09-10_13h06.21.708,proactive3.1,2020.1.2,Win32,60,5f599a131af4471f3d752b7b,5f5a1698e2534b062cc71f93,3,,,,,,cap,,,,,,,,,,,4,1,0,47,47,30,1,,,,,,,,,,,,,,,,,,,,,,,,,,,,,,,,,,,,,,,,,,,,,,,,,,,,,,,,,,,,,,,,,,,,,,,,,,,,,,,,,,,,,,,,,,,,,,,,,,,,,,,,
,,?,0.001505,0,,,,,,stimuli/images/PICTURE_677.png,APPLE,5f564265f9d134032e757250,17/03/1954,2020-09-10_13h06.21.708,proactive3.1,2020.1.2,Win32,60,5f599a131af4471f3d752b7b,5f5a1698e2534b062cc71f93,3,,,,,,map,,,,,,,,,,,5,1,0,48,48,43,1,,,,,,,,,,,,,,,,,,,,,,,,,,,,,,,,,,,,,,,,,,,,,,,,,,,,,,,,,,,,,,,,,,,,,,,,,,,,,,,,,,,,,,,,,,,,,,,,,,,,,,,,
,,?,0.001575,0,,,,,,stimuli/images/PICTURE_296.png,LIFE,5f564265f9d134032e757250,17/03/1954,2020-09-10_13h06.21.708,proactive3.1,2020.1.2,Win32,60,5f599a131af4471f3d752b7b,5f5a1698e2534b062cc71f93,3,,,,,,bolt,,,,,,,,,,,6,1,0,49,49,57,1,,,,,,,,,,,,,,,,,,,,,,,,,,,,,,,,,,,,,,,,,,,,,,,,,,,,,,,,,,,,,,,,,,,,,,,,,,,,,,,,,,,,,,,,,,,,,,,,,,,,,,,,
,,?,0.00243,0,,,,,,stimuli/images/PICTURE_405.png,YEAR,5f564265f9d134032e757250,17/03/1954,2020-09-10_13h06.21.708,proactive3.1,2020.1.2,Win32,60,5f599a131af4471f3d752b7b,5f5a1698e2534b062cc71f93,3,,,,,,anchor,,,,,,,,,,,4,1,0,50,50,34,1,,,,,,,,,,,,,,,,,,,,,,,,,,,,,,,,,,,,,,,,,,,,,,,,,,,,,,,,,,,,,,,,,,,,,,,,,,,,,,,,,,,,,,,,,,,,,,,,,,,,,,,,
,,?,0.00163,0,,,,,,stimuli/images/PICTURE_285.png,LIFE,5f564265f9d134032e757250,17/03/1954,2020-09-10_13h06.21.708,proactive3.1,2020.1.2,Win32,60,5f599a131af4471f3d752b7b,5f5a1698e2534b062cc71f93,3,,,,,,carrot,,,,,,,,,,,4,1,0,51,51,33,1,,,,,,,,,,,,,,,,,,,,,,,,,,,,,,,,,,,,,,,,,,,,,,,,,,,,,,,,,,,,,,,,,,,,,,,,,,,,,,,,,,,,,,,,,,,,,,,,,,,,,,,,
,,?,0.00152,0,,,,,,stimuli/images/PICTURE_491.png,GLASS,5f564265f9d134032e757250,17/03/1954,2020-09-10_13h06.21.708,proactive3.1,2020.1.2,Win32,60,5f599a131af4471f3d752b7b,5f5a1698e2534b062cc71f93,3,,,,,,rug,,,,,,,,,,,2,1,0,52,52,14,1,,,,,,,,,,,,,,,,,,,,,,,,,,,,,,,,,,,,,,,,,,,,,,,,,,,,,,,,,,,,,,,,,,,,,,,,,,,,,,,,,,,,,,,,,,,,,,,,,,,,,,,,
,,?,0.002305,0,,,,,,stimuli/images/PICTURE_383.png,SERIES,5f564265f9d134032e757250,17/03/1954,2020-09-10_13h06.21.708,proactive3.1,2020.1.2,Win32,60,5f599a131af4471f3d752b7b,5f5a1698e2534b062cc71f93,3,,,,,,coin,,,,,,,,,,,5,1,0,53,53,46,1,,,,,,,,,,,,,,,,,,,,,,,,,,,,,,,,,,,,,,,,,,,,,,,,,,,,,,,,,,,,,,,,,,,,,,,,,,,,,,,,,,,,,,,,,,,,,,,,,,,,,,,,
,,?,0.001595,0,,,,,,stimuli/images/PICTURE_327.png,SERIES,5f564265f9d134032e757250,17/03/1954,2020-09-10_13h06.21.708,proactive3.1,2020.1.2,Win32,60,5f599a131af4471f3d752b7b,5f5a1698e2534b062cc71f93,3,,,,,,helmet,,,,,,,,,,,1,1,0,54,54,3,1,,,,,,,,,,,,,,,,,,,,,,,,,,,,,,,,,,,,,,,,,,,,,,,,,,,,,,,,,,,,,,,,,,,,,,,,,,,,,,,,,,,,,,,,,,,,,,,,,,,,,,,,
,,TOILET,13.121885,0,,,,,,stimuli/images/PICTURE_750.png,HOTEL,5f564265f9d134032e757250,17/03/1954,2020-09-10_13h06.21.708,proactive3.1,2020.1.2,Win32,60,5f599a131af4471f3d752b7b,5f5a1698e2534b062cc71f93,3,,,,,,kettle,,,,,,,,,,,3,1,0,55,55,27,1,,,,,,,,,,,,,,,,,,,,,,,,,,,,,,,,,,,,,,,,,,,,,,,,,,,,,,,,,,,,,,,,,,,,,,,,,,,,,,,,,,,,,,,,,,,,,,,,,,,,,,,,
,,TOILET,7.956575,1,,,,,,stimuli/images/PICTURE_403.png,TOILET,5f564265f9d134032e757250,17/03/1954,2020-09-10_13h06.21.708,proactive3.1,2020.1.2,Win32,60,5f599a131af4471f3d752b7b,5f5a1698e2534b062cc71f93,3,,,,,,cathedral,,,,,,,,,,,3,1,0,56,56,25,1,,,,,,,,,,,,,,,,,,,,,,,,,,,,,,,,,,,,,,,,,,,,,,,,,,,,,,,,,,,,,,,,,,,,,,,,,,,,,,,,,,,,,,,,,,,,,,,,,,,,,,,,
,,?,0.001495,0,,,,,,stimuli/images/PICTURE_744.png,WEAPON,5f564265f9d134032e757250,17/03/1954,2020-09-10_13h06.21.708,proactive3.1,2020.1.2,Win32,60,5f599a131af4471f3d752b7b,5f5a1698e2534b062cc71f93,3,,,,,,ring,,,,,,,,,,,6,1,0,57,57,50,1,,,,,,,,,,,,,,,,,,,,,,,,,,,,,,,,,,,,,,,,,,,,,,,,,,,,,,,,,,,,,,,,,,,,,,,,,,,,,,,,,,,,,,,,,,,,,,,,,,,,,,,,
,,?,0.00148,0,,,,,,stimuli/images/PICTURE_95.png,HONEY,5f564265f9d134032e757250,17/03/1954,2020-09-10_13h06.21.708,proactive3.1,2020.1.2,Win32,60,5f599a131af4471f3d752b7b,5f5a1698e2534b062cc71f93,3,,,,,,suitcase,,,,,,,,,,,5,1,0,58,58,44,1,,,,,,,,,,,,,,,,,,,,,,,,,,,,,,,,,,,,,,,,,,,,,,,,,,,,,,,,,,,,,,,,,,,,,,,,,,,,,,,,,,,,,,,,,,,,,,,,,,,,,,,,
,,?,0.001495,0,,,,,,stimuli/images/PICTURE_33.png,FRIEND,5f564265f9d134032e757250,17/03/1954,2020-09-10_13h06.21.708,proactive3.1,2020.1.2,Win32,60,5f599a131af4471f3d752b7b,5f5a1698e2534b062cc71f93,3,,,,,,frame,,,,,,,,,,,1,1,0,59,59,8,1,,,,,,,,,,,,,,,,,,,,,,,,,,,,,,,,,,,,,,,,,,,,,,,,,,,,,,,,,,,,,,,,,,,,,,,,,,,,,,,,,,,,,,,,,,,,,,,,,,,,,,,,
,,,,,,,,,,,,5f564265f9d134032e757250,17/03/1954,2020-09-10_13h06.21.708,proactive3.1,2020.1.2,Win32,60,5f599a131af4471f3d752b7b,5f5a1698e2534b062cc71f93,3,,,,,,,,,,,,,,,,,,,,,,,,0,0,0,1,1,stimuli/learn-block2.csv,,,,,,,,,,,,,,,,,,,,,,,,,,,,,,,,,,,,,,,,,,,,,,,,,,,,,,,,,,,,,,,,,,,,,,,,,,,,,,,,,,,,,,,,,,,,,,,,,,
,,,,,,,,,,stimuli/images/PICTURE_744.png,SAKE,5f564265f9d134032e757250,17/03/1954,2020-09-10_13h06.21.708,proactive3.1,2020.1.2,Win32,60,5f599a131af4471f3d752b7b,5f5a1698e2534b062cc71f93,3,,,,,,ring,,,,,,0,0,0,17,1,2,0,,,,,,,,,,,,,,,,,,,,,,,,,,,,,,,,,,,,,,,,,,,,,,,,,,,,,,,,,,,,,,,,,,,,,,,,,,,,,,,,,,,,,,,,,,,,,,,,,,,,,,,,,,,,,
,,,,,,,,,,stimuli/images/PICTURE_95.png,STYLE,5f564265f9d134032e757250,17/03/1954,2020-09-10_13h06.21.708,proactive3.1,2020.1.2,Win32,60,5f599a131af4471f3d752b7b,5f5a1698e2534b062cc71f93,3,,,,,,suitcase,,,,,,0,1,1,25,1,3,0,,,,,,,,,,,,,,,,,,,,,,,,,,,,,,,,,,,,,,,,,,,,,,,,,,,,,,,,,,,,,,,,,,,,,,,,,,,,,,,,,,,,,,,,,,,,,,,,,,,,,,,,,,,,,
,,,,,,,,,,stimuli/images/PICTURE_467.png,DEMON,5f564265f9d134032e757250,17/03/1954,2020-09-10_13h06.21.708,proactive3.1,2020.1.2,Win32,60,5f599a131af4471f3d752b7b,5f5a1698e2534b062cc71f93,3,,,,,,peg,,,,,,0,2,2,23,1,3,0,,,,,,,,,,,,,,,,,,,,,,,,,,,,,,,,,,,,,,,,,,,,,,,,,,,,,,,,,,,,,,,,,,,,,,,,,,,,,,,,,,,,,,,,,,,,,,,,,,,,,,,,,,,,,
,,,,,,,,,,stimuli/images/PICTURE_348.png,SPEECH,5f564265f9d134032e757250,17/03/1954,2020-09-10_13h06.21.708,proactive3.1,2020.1.2,Win32,60,5f599a131af4471f3d752b7b,5f5a1698e2534b062cc71f93,3,,,,,,pepper,,,,,,0,3,3,20,1,3,0,,,,,,,,,,,,,,,,,,,,,,,,,,,,,,,,,,,,,,,,,,,,,,,,,,,,,,,,,,,,,,,,,,,,,,,,,,,,,,,,,,,,,,,,,,,,,,,,,,,,,,,,,,,,,
,,,,,,,,,,stimuli/images/PICTURE_123.png,ADVICE,5f564265f9d134032e757250,17/03/1954,2020-09-10_13h06.21.708,proactive3.1,2020.1.2,Win32,60,5f599a131af4471f3d752b7b,5f5a1698e2534b062cc71f93,3,,,,,,dart,,,,,,0,4,4,50,1,6,0,,,,,,,,,,,,,,,,,,,,,,,,,,,,,,,,,,,,,,,,,,,,,,,,,,,,,,,,,,,,,,,,,,,,,,,,,,,,,,,,,,,,,,,,,,,,,,,,,,,,,,,,,,,,,
,,,,,,,,,,stimuli/images/PICTURE_208.png,LOTS,5f564265f9d134032e757250,17/03/1954,2020-09-10_13h06.21.708,proactive3.1,2020.1.2,Win32,60,5f599a131af4471f3d752b7b,5f5a1698e2534b062cc71f93,3,,,,,,microphone,,,,,,0,5,5,10,1,2,0,,,,,,,,,,,,,,,,,,,,,,,,,,,,,,,,,,,,,,,,,,,,,,,,,,,,,,,,,,,,,,,,,,,,,,,,,,,,,,,,,,,,,,,,,,,,,,,,,,,,,,,,,,,,,
,,,,,,,,,,stimuli/images/PICTURE_255.png,AREA,5f564265f9d134032e757250,17/03/1954,2020-09-10_13h06.21.708,proactive3.1,2020.1.2,Win32,60,5f599a131af4471f3d752b7b,5f5a1698e2534b062cc71f93,3,,,,,,shovel,,,,,,0,6,6,22,1,3,0,,,,,,,,,,,,,,,,,,,,,,,,,,,,,,,,,,,,,,,,,,,,,,,,,,,,,,,,,,,,,,,,,,,,,,,,,,,,,,,,,,,,,,,,,,,,,,,,,,,,,,,,,,,,,
,,,,,,,,,,stimuli/images/PICTURE_688.png,WOMEN,5f564265f9d134032e757250,17/03/1954,2020-09-10_13h06.21.708,proactive3.1,2020.1.2,Win32,60,5f599a131af4471f3d752b7b,5f5a1698e2534b062cc71f93,3,,,,,,runner,,,,,,0,7,7,14,1,2,0,,,,,,,,,,,,,,,,,,,,,,,,,,,,,,,,,,,,,,,,,,,,,,,,,,,,,,,,,,,,,,,,,,,,,,,,,,,,,,,,,,,,,,,,,,,,,,,,,,,,,,,,,,,,,
,,,,,,,,,,stimuli/images/PICTURE_504.png,BODY,5f564265f9d134032e757250,17/03/1954,2020-09-10_13h06.21.708,proactive3.1,2020.1.2,Win32,60,5f599a131af4471f3d752b7b,5f5a1698e2534b062cc71f93,3,,,,,,wheel,,,,,,0,8,8,8,1,1,0,,,,,,,,,,,,,,,,,,,,,,,,,,,,,,,,,,,,,,,,,,,,,,,,,,,,,,,,,,,,,,,,,,,,,,,,,,,,,,,,,,,,,,,,,,,,,,,,,,,,,,,,,,,,,
,,,,,,,,,,stimuli/images/PICTURE_308.png,KIND,5f564265f9d134032e757250,17/03/1954,2020-09-10_13h06.21.708,proactive3.1,2020.1.2,Win32,60,5f599a131af4471f3d752b7b,5f5a1698e2534b062cc71f93,3,,,,,,dice,,,,,,0,9,9,54,1,6,0,,,,,,,,,,,,,,,,,,,,,,,,,,,,,,,,,,,,,,,,,,,,,,,,,,,,,,,,,,,,,,,,,,,,,,,,,,,,,,,,,,,,,,,,,,,,,,,,,,,,,,,,,,,,,
,,,,,,,,,,stimuli/images/PICTURE_449.png,THING,5f564265f9d134032e757250,17/03/1954,2020-09-10_13h06.21.708,proactive3.1,2020.1.2,Win32,60,5f599a131af4471f3d752b7b,5f5a1698e2534b062cc71f93,3,,,,,,bench,,,,,,0,10,10,59,1,6,0,,,,,,,,,,,,,,,,,,,,,,,,,,,,,,,,,,,,,,,,,,,,,,,,,,,,,,,,,,,,,,,,,,,,,,,,,,,,,,,,,,,,,,,,,,,,,,,,,,,,,,,,,,,,,
,,,,,,,,,,stimuli/images/PICTURE_380.png,DEATH,5f564265f9d134032e757250,17/03/1954,2020-09-10_13h06.21.708,proactive3.1,2020.1.2,Win32,60,5f599a131af4471f3d752b7b,5f5a1698e2534b062cc71f93,3,,,,,,gorilla,,,,,,0,11,11,49,1,5,0,,,,,,,,,,,,,,,,,,,,,,,,,,,,,,,,,,,,,,,,,,,,,,,,,,,,,,,,,,,,,,,,,,,,,,,,,,,,,,,,,,,,,,,,,,,,,,,,,,,,,,,,,,,,,
,,,,,,,,,,stimuli/images/PICTURE_692.png,MONTH,5f564265f9d134032e757250,17/03/1954,2020-09-10_13h06.21.708,proactive3.1,2020.1.2,Win32,60,5f599a131af4471f3d752b7b,5f5a1698e2534b062cc71f93,3,,,,,,cherry,,,,,,0,12,12,16,1,2,0,,,,,,,,,,,,,,,,,,,,,,,,,,,,,,,,,,,,,,,,,,,,,,,,,,,,,,,,,,,,,,,,,,,,,,,,,,,,,,,,,,,,,,,,,,,,,,,,,,,,,,,,,,,,,
,,,,,,,,,,stimuli/images/PICTURE_708.png,PENNY,5f564265f9d134032e757250,17/03/1954,2020-09-10_13h06.21.708,proactive3.1,2020.1.2,Win32,60,5f599a131af4471f3d752b7b,5f5a1698e2534b062cc71f93,3,,,,,,monkey,,,,,,0,13,13,31,1,4,0,,,,,,,,,,,,,,,,,,,,,,,,,,,,,,,,,,,,,,,,,,,,,,,,,,,,,,,,,,,,,,,,,,,,,,,,,,,,,,,,,,,,,,,,,,,,,,,,,,,,,,,,,,,,,
,,,,,,,,,,stimuli/images/PICTURE_32.png,JUNGLE,5f564265f9d134032e757250,17/03/1954,2020-09-10_13h06.21.708,proactive3.1,2020.1.2,Win32,60,5f599a131af4471f3d752b7b,5f5a1698e2534b062cc71f93,3,,,,,,crown,,,,,,0,14,14,45,1,5,0,,,,,,,,,,,,,,,,,,,,,,,,,,,,,,,,,,,,,,,,,,,,,,,,,,,,,,,,,,,,,,,,,,,,,,,,,,,,,,,,,,,,,,,,,,,,,,,,,,,,,,,,,,,,,
,,,,,,,,,,stimuli/images/PICTURE_453.png,PLENTY,5f564265f9d134032e757250,17/03/1954,2020-09-10_13h06.21.708,proactive3.1,2020.1.2,Win32,60,5f599a131af4471f3d752b7b,5f5a1698e2534b062cc71f93,3,,,,,,scissors,,,,,,0,15,15,56,1,6,0,,,,,,,,,,,,,,,,,,,,,,,,,,,,,,,,,,,,,,,,,,,,,,,,,,,,,,,,,,,,,,,,,,,,,,,,,,,,,,,,,,,,,,,,,,,,,,,,,,,,,,,,,,,,,
,,,,,,,,,,stimuli/images/PICTURE_177.png,CARS,5f564265f9d134032e757250,17/03/1954,2020-09-10_13h06.21.708,proactive3.1,2020.1.2,Win32,60,5f599a131af4471f3d752b7b,5f5a1698e2534b062cc71f93,3,,,,,,mushroom,,,,,,0,16,16,35,1,4,0,,,,,,,,,,,,,,,,,,,,,,,,,,,,,,,,,,,,,,,,,,,,,,,,,,,,,,,,,,,,,,,,,,,,,,,,,,,,,,,,,,,,,,,,,,,,,,,,,,,,,,,,,,,,,
,,,,,,,,,,stimuli/images/PICTURE_285.png,ADVICE,5f564265f9d134032e757250,17/03/1954,2020-09-10_13h06.21.708,proactive3.1,2020.1.2,Win32,60,5f599a131af4471f3d752b7b,5f5a1698e2534b062cc71f93,3,,,,,,carrot,,,,,,0,17,17,12,1,2,0,,,,,,,,,,,,,,,,,,,,,,,,,,,,,,,,,,,,,,,,,,,,,,,,,,,,,,,,,,,,,,,,,,,,,,,,,,,,,,,,,,,,,,,,,,,,,,,,,,,,,,,,,,,,,
,,,,,,,,,,stimuli/images/PICTURE_469.png,ARTIST,5f564265f9d134032e757250,17/03/1954,2020-09-10_13h06.21.708,proactive3.1,2020.1.2,Win32,60,5f599a131af4471f3d752b7b,5f5a1698e2534b062cc71f93,3,,,,,,stool,,,,,,0,18,18,6,1,1,0,,,,,,,,,,,,,,,,,,,,,,,,,,,,,,,,,,,,,,,,,,,,,,,,,,,,,,,,,,,,,,,,,,,,,,,,,,,,,,,,,,,,,,,,,,,,,,,,,,,,,,,,,,,,,
,,,,,,,,,,stimuli/images/PICTURE_654.png,VALLEY,5f564265f9d134032e757250,17/03/1954,2020-09-10_13h06.21.708,proactive3.1,2020.1.2,Win32,60,5f599a131af4471f3d752b7b,5f5a1698e2534b062cc71f93,3,,,,,,pencil,,,,,,0,19,19,1,1,1,0,,,,,,,,,,,,,,,,,,,,,,,,,,,,,,,,,,,,,,,,,,,,,,,,,,,,,,,,,,,,,,,,,,,,,,,,,,,,,,,,,,,,,,,,,,,,,,,,,,,,,,,,,,,,,
,,,,,,,,,,stimuli/images/PICTURE_453.png,DUDE,5f564265f9d134032e757250,17/03/1954,2020-09-10_13h06.21.708,proactive3.1,2020.1.2,Win32,60,5f599a131af4471f3d752b7b,5f5a1698e2534b062cc71f93,3,,,,,,scissors,,,,,,0,20,20,27,1,3,0,,,,,,,,,,,,,,,,,,,,,,,,,,,,,,,,,,,,,,,,,,,,,,,,,,,,,,,,,,,,,,,,,,,,,,,,,,,,,,,,,,,,,,,,,,,,,,,,,,,,,,,,,,,,,
,,,,,,,,,,stimuli/images/PICTURE_233.png,WOMEN,5f564265f9d134032e757250,17/03/1954,2020-09-10_13h06.21.708,proactive3.1,2020.1.2,Win32,60,5f599a131af4471f3d752b7b,5f5a1698e2534b062cc71f93,3,,,,,,salt,,,,,,0,21,21,38,1,4,0,,,,,,,,,,,,,,,,,,,,,,,,,,,,,,,,,,,,,,,,,,,,,,,,,,,,,,,,,,,,,,,,,,,,,,,,,,,,,,,,,,,,,,,,,,,,,,,,,,,,,,,,,,,,,
,,,,,,,,,,stimuli/images/PICTURE_208.png,THING,5f564265f9d134032e757250,17/03/1954,2020-09-10_13h06.21.708,proactive3.1,2020.1.2,Win32,60,5f599a131af4471f3d752b7b,5f5a1698e2534b062cc71f93,3,,,,,,microphone,,,,,,0,22,22,47,1,5,0,,,,,,,,,,,,,,,,,,,,,,,,,,,,,,,,,,,,,,,,,,,,,,,,,,,,,,,,,,,,,,,,,,,,,,,,,,,,,,,,,,,,,,,,,,,,,,,,,,,,,,,,,,,,,
,,,,,,,,,,stimuli/images/PICTURE_151.png,GIRL,5f564265f9d134032e757250,17/03/1954,2020-09-10_13h06.21.708,proactive3.1,2020.1.2,Win32,60,5f599a131af4471f3d752b7b,5f5a1698e2534b062cc71f93,3,,,,,,tray,,,,,,0,23,23,19,1,2,0,,,,,,,,,,,,,,,,,,,,,,,,,,,,,,,,,,,,,,,,,,,,,,,,,,,,,,,,,,,,,,,,,,,,,,,,,,,,,,,,,,,,,,,,,,,,,,,,,,,,,,,,,,,,,
,,,,,,,,,,stimuli/images/PICTURE_667.png,PLENTY,5f564265f9d134032e757250,17/03/1954,2020-09-10_13h06.21.708,proactive3.1,2020.1.2,Win32,60,5f599a131af4471f3d752b7b,5f5a1698e2534b062cc71f93,3,,,,,,daisy,,,,,,0,24,24,41,1,5,0,,,,,,,,,,,,,,,,,,,,,,,,,,,,,,,,,,,,,,,,,,,,,,,,,,,,,,,,,,,,,,,,,,,,,,,,,,,,,,,,,,,,,,,,,,,,,,,,,,,,,,,,,,,,,
,,,,,,,,,,stimuli/images/PICTURE_85.png,THING,5f564265f9d134032e757250,17/03/1954,2020-09-10_13h06.21.708,proactive3.1,2020.1.2,Win32,60,5f599a131af4471f3d752b7b,5f5a1698e2534b062cc71f93,3,,,,,,diamond,,,,,,0,25,25,15,1,2,0,,,,,,,,,,,,,,,,,,,,,,,,,,,,,,,,,,,,,,,,,,,,,,,,,,,,,,,,,,,,,,,,,,,,,,,,,,,,,,,,,,,,,,,,,,,,,,,,,,,,,,,,,,,,,
,,,,,,,,,,stimuli/images/PICTURE_491.png,ROOF,5f564265f9d134032e757250,17/03/1954,2020-09-10_13h06.21.708,proactive3.1,2020.1.2,Win32,60,5f599a131af4471f3d752b7b,5f5a1698e2534b062cc71f93,3,,,,,,rug,,,,,,0,26,26,24,1,3,0,,,,,,,,,,,,,,,,,,,,,,,,,,,,,,,,,,,,,,,,,,,,,,,,,,,,,,,,,,,,,,,,,,,,,,,,,,,,,,,,,,,,,,,,,,,,,,,,,,,,,,,,,,,,,
,,,,,,,,,,stimuli/images/PICTURE_314.png,SAKE,5f564265f9d134032e757250,17/03/1954,2020-09-10_13h06.21.708,proactive3.1,2020.1.2,Win32,60,5f599a131af4471f3d752b7b,5f5a1698e2534b062cc71f93,3,,,,,,perfume,,,,,,0,27,27,7,1,1,0,,,,,,,,,,,,,,,,,,,,,,,,,,,,,,,,,,,,,,,,,,,,,,,,,,,,,,,,,,,,,,,,,,,,,,,,,,,,,,,,,,,,,,,,,,,,,,,,,,,,,,,,,,,,,
,,,,,,,,,,stimuli/images/PICTURE_327.png,BEAUTY,5f564265f9d134032e757250,17/03/1954,2020-09-10_13h06.21.708,proactive3.1,2020.1.2,Win32,60,5f599a131af4471f3d752b7b,5f5a1698e2534b062cc71f93,3,,,,,,helmet,,,,,,0,28,28,48,1,5,0,,,,,,,,,,,,,,,,,,,,,,,,,,,,,,,,,,,,,,,,,,,,,,,,,,,,,,,,,,,,,,,,,,,,,,,,,,,,,,,,,,,,,,,,,,,,,,,,,,,,,,,,,,,,,
,,,,,,,,,,stimuli/images/PICTURE_68.png,MILE,5f564265f9d134032e757250,17/03/1954,2020-09-10_13h06.21.708,proactive3.1,2020.1.2,Win32,60,5f599a131af4471f3d752b7b,5f5a1698e2534b062cc71f93,3,,,,,,candle,,,,,,0,29,29,44,1,5,0,,,,,,,,,,,,,,,,,,,,,,,,,,,,,,,,,,,,,,,,,,,,,,,,,,,,,,,,,,,,,,,,,,,,,,,,,,,,,,,,,,,,,,,,,,,,,,,,,,,,,,,,,,,,,
,,,,,,,,,,stimuli/images/PICTURE_160.png,FEET,5f564265f9d134032e757250,17/03/1954,2020-09-10_13h06.21.708,proactive3.1,2020.1.2,Win32,60,5f599a131af4471f3d752b7b,5f5a1698e2534b062cc71f93,3,,,,,,wheelbarrow,,,,,,0,30,30,58,1,6,0,,,,,,,,,,,,,,,,,,,,,,,,,,,,,,,,,,,,,,,,,,,,,,,,,,,,,,,,,,,,,,,,,,,,,,,,,,,,,,,,,,,,,,,,,,,,,,,,,,,,,,,,,,,,,
,,,,,,,,,,stimuli/images/PICTURE_380.png,PHOTO,5f564265f9d134032e757250,17/03/1954,2020-09-10_13h06.21.708,proactive3.1,2020.1.2,Win32,60,5f599a131af4471f3d752b7b,5f5a1698e2534b062cc71f93,3,,,,,,gorilla,,,,,,0,31,31,52,1,6,0,,,,,,,,,,,,,,,,,,,,,,,,,,,,,,,,,,,,,,,,,,,,,,,,,,,,,,,,,,,,,,,,,,,,,,,,,,,,,,,,,,,,,,,,,,,,,,,,,,,,,,,,,,,,,
,,,,,,,,,,stimuli/images/PICTURE_203.png,ARTIST,5f564265f9d134032e757250,17/03/1954,2020-09-10_13h06.21.708,proactive3.1,2020.1.2,Win32,60,5f599a131af4471f3d752b7b,5f5a1698e2534b062cc71f93,3,,,,,,cap,,,,,,0,32,32,26,1,3,0,,,,,,,,,,,,,,,,,,,,,,,,,,,,,,,,,,,,,,,,,,,,,,,,,,,,,,,,,,,,,,,,,,,,,,,,,,,,,,,,,,,,,,,,,,,,,,,,,,,,,,,,,,,,,
,,,,,,,,,,stimuli/images/PICTURE_487.png,FLIGHT,5f564265f9d134032e757250,17/03/1954,2020-09-10_13h06.21.708,proactive3.1,2020.1.2,Win32,60,5f599a131af4471f3d752b7b,5f5a1698e2534b062cc71f93,3,,,,,,basket,,,,,,0,33,33,9,1,1,0,,,,,,,,,,,,,,,,,,,,,,,,,,,,,,,,,,,,,,,,,,,,,,,,,,,,,,,,,,,,,,,,,,,,,,,,,,,,,,,,,,,,,,,,,,,,,,,,,,,,,,,,,,,,,
,,,,,,,,,,stimuli/images/PICTURE_744.png,SYSTEM,5f564265f9d134032e757250,17/03/1954,2020-09-10_13h06.21.708,proactive3.1,2020.1.2,Win32,60,5f599a131af4471f3d752b7b,5f5a1698e2534b062cc71f93,3,,,,,,ring,,,,,,0,34,34,43,1,5,0,,,,,,,,,,,,,,,,,,,,,,,,,,,,,,,,,,,,,,,,,,,,,,,,,,,,,,,,,,,,,,,,,,,,,,,,,,,,,,,,,,,,,,,,,,,,,,,,,,,,,,,,,,,,,
,,,,,,,,,,stimuli/images/PICTURE_491.png,WRITER,5f564265f9d134032e757250,17/03/1954,2020-09-10_13h06.21.708,proactive3.1,2020.1.2,Win32,60,5f599a131af4471f3d752b7b,5f5a1698e2534b062cc71f93,3,,,,,,rug,,,,,,0,35,35,57,1,6,0,,,,,,,,,,,,,,,,,,,,,,,,,,,,,,,,,,,,,,,,,,,,,,,,,,,,,,,,,,,,,,,,,,,,,,,,,,,,,,,,,,,,,,,,,,,,,,,,,,,,,,,,,,,,,
,,,,,,,,,,stimuli/images/PICTURE_688.png,CASINO,5f564265f9d134032e757250,17/03/1954,2020-09-10_13h06.21.708,proactive3.1,2020.1.2,Win32,60,5f599a131af4471f3d752b7b,5f5a1698e2534b062cc71f93,3,,,,,,runner,,,,,,0,36,36,2,1,1,0,,,,,,,,,,,,,,,,,,,,,,,,,,,,,,,,,,,,,,,,,,,,,,,,,,,,,,,,,,,,,,,,,,,,,,,,,,,,,,,,,,,,,,,,,,,,,,,,,,,,,,,,,,,,,
,,,,,,,,,,stimuli/images/PICTURE_708.png,YARD,5f564265f9d134032e757250,17/03/1954,2020-09-10_13h06.21.708,proactive3.1,2020.1.2,Win32,60,5f599a131af4471f3d752b7b,5f5a1698e2534b062cc71f93,3,,,,,,monkey,,,,,,0,37,37,29,1,3,0,,,,,,,,,,,,,,,,,,,,,,,,,,,,,,,,,,,,,,,,,,,,,,,,,,,,,,,,,,,,,,,,,,,,,,,,,,,,,,,,,,,,,,,,,,,,,,,,,,,,,,,,,,,,,
,,,,,,,,,,stimuli/images/PICTURE_356.png,DANGER,5f564265f9d134032e757250,17/03/1954,2020-09-10_13h06.21.708,proactive3.1,2020.1.2,Win32,60,5f599a131af4471f3d752b7b,5f5a1698e2534b062cc71f93,3,,,,,,pawn,,,,,,0,38,38,55,1,6,0,,,,,,,,,,,,,,,,,,,,,,,,,,,,,,,,,,,,,,,,,,,,,,,,,,,,,,,,,,,,,,,,,,,,,,,,,,,,,,,,,,,,,,,,,,,,,,,,,,,,,,,,,,,,,
,,,,,,,,,,stimuli/images/PICTURE_208.png,MONTH,5f564265f9d134032e757250,17/03/1954,2020-09-10_13h06.21.708,proactive3.1,2020.1.2,Win32,60,5f599a131af4471f3d752b7b,5f5a1698e2534b062cc71f93,3,,,,,,microphone,,,,,,0,39,39,53,1,6,0,,,,,,,,,,,,,,,,,,,,,,,,,,,,,,,,,,,,,,,,,,,,,,,,,,,,,,,,,,,,,,,,,,,,,,,,,,,,,,,,,,,,,,,,,,,,,,,,,,,,,,,,,,,,,
,,,,,,,,,,stimuli/images/PICTURE_311.png,FRIEND,5f564265f9d134032e757250,17/03/1954,2020-09-10_13h06.21.708,proactive3.1,2020.1.2,Win32,60,5f599a131af4471f3d752b7b,5f5a1698e2534b062cc71f93,3,,,,,,razor,,,,,,0,40,40,34,1,4,0,,,,,,,,,,,,,,,,,,,,,,,,,,,,,,,,,,,,,,,,,,,,,,,,,,,,,,,,,,,,,,,,,,,,,,,,,,,,,,,,,,,,,,,,,,,,,,,,,,,,,,,,,,,,,
,,,,,,,,,,stimuli/images/PICTURE_311.png,BEAUTY,5f564265f9d134032e757250,17/03/1954,2020-09-10_13h06.21.708,proactive3.1,2020.1.2,Win32,60,5f599a131af4471f3d752b7b,5f5a1698e2534b062cc71f93,3,,,,,,razor,,,,,,0,41,41,13,1,2,0,,,,,,,,,,,,,,,,,,,,,,,,,,,,,,,,,,,,,,,,,,,,,,,,,,,,,,,,,,,,,,,,,,,,,,,,,,,,,,,,,,,,,,,,,,,,,,,,,,,,,,,,,,,,,
,,,,,,,,,,stimuli/images/PICTURE_147.png,MOMENT,5f564265f9d134032e757250,17/03/1954,2020-09-10_13h06.21.708,proactive3.1,2020.1.2,Win32,60,5f599a131af4471f3d752b7b,5f5a1698e2534b062cc71f93,3,,,,,,hanger,,,,,,0,42,42,51,1,6,0,,,,,,,,,,,,,,,,,,,,,,,,,,,,,,,,,,,,,,,,,,,,,,,,,,,,,,,,,,,,,,,,,,,,,,,,,,,,,,,,,,,,,,,,,,,,,,,,,,,,,,,,,,,,,
,,,,,,,,,,stimuli/images/PICTURE_667.png,BATH,5f564265f9d134032e757250,17/03/1954,2020-09-10_13h06.21.708,proactive3.1,2020.1.2,Win32,60,5f599a131af4471f3d752b7b,5f5a1698e2534b062cc71f93,3,,,,,,daisy,,,,,,0,43,43,4,1,1,0,,,,,,,,,,,,,,,,,,,,,,,,,,,,,,,,,,,,,,,,,,,,,,,,,,,,,,,,,,,,,,,,,,,,,,,,,,,,,,,,,,,,,,,,,,,,,,,,,,,,,,,,,,,,,
,,,,,,,,,,stimuli/images/PICTURE_470.png,CASINO,5f564265f9d134032e757250,17/03/1954,2020-09-10_13h06.21.708,proactive3.1,2020.1.2,Win32,60,5f599a131af4471f3d752b7b,5f5a1698e2534b062cc71f93,3,,,,,,motorbike,,,,,,0,44,44,36,1,4,0,,,,,,,,,,,,,,,,,,,,,,,,,,,,,,,,,,,,,,,,,,,,,,,,,,,,,,,,,,,,,,,,,,,,,,,,,,,,,,,,,,,,,,,,,,,,,,,,,,,,,,,,,,,,,
,,,,,,,,,,stimuli/images/PICTURE_308.png,ESTATE,5f564265f9d134032e757250,17/03/1954,2020-09-10_13h06.21.708,proactive3.1,2020.1.2,Win32,60,5f599a131af4471f3d752b7b,5f5a1698e2534b062cc71f93,3,,,,,,dice,,,,,,0,45,45,46,1,5,0,,,,,,,,,,,,,,,,,,,,,,,,,,,,,,,,,,,,,,,,,,,,,,,,,,,,,,,,,,,,,,,,,,,,,,,,,,,,,,,,,,,,,,,,,,,,,,,,,,,,,,,,,,,,,
,,,,,,,,,,stimuli/images/PICTURE_215.png,PLENTY,5f564265f9d134032e757250,17/03/1954,2020-09-10_13h06.21.708,proactive3.1,2020.1.2,Win32,60,5f599a131af4471f3d752b7b,5f5a1698e2534b062cc71f93,3,,,,,,boot,,,,,,0,46,46,37,1,4,0,,,,,,,,,,,,,,,,,,,,,,,,,,,,,,,,,,,,,,,,,,,,,,,,,,,,,,,,,,,,,,,,,,,,,,,,,,,,,,,,,,,,,,,,,,,,,,,,,,,,,,,,,,,,,
,,,,,,,,,,stimuli/images/PICTURE_509.png,PHOTO,5f564265f9d134032e757250,17/03/1954,2020-09-10_13h06.21.708,proactive3.1,2020.1.2,Win32,60,5f599a131af4471f3d752b7b,5f5a1698e2534b062cc71f93,3,,,,,,telephone,,,,,,0,47,47,21,1,3,0,,,,,,,,,,,,,,,,,,,,,,,,,,,,,,,,,,,,,,,,,,,,,,,,,,,,,,,,,,,,,,,,,,,,,,,,,,,,,,,,,,,,,,,,,,,,,,,,,,,,,,,,,,,,,
,,,,,,,,,,stimuli/images/PICTURE_233.png,IDEAS,5f564265f9d134032e757250,17/03/1954,2020-09-10_13h06.21.708,proactive3.1,2020.1.2,Win32,60,5f599a131af4471f3d752b7b,5f5a1698e2534b062cc71f93,3,,,,,,salt,,,,,,0,48,48,28,1,3,0,,,,,,,,,,,,,,,,,,,,,,,,,,,,,,,,,,,,,,,,,,,,,,,,,,,,,,,,,,,,,,,,,,,,,,,,,,,,,,,,,,,,,,,,,,,,,,,,,,,,,,,,,,,,,
,,,,,,,,,,stimuli/images/PICTURE_339.png,PLENTY,5f564265f9d134032e757250,17/03/1954,2020-09-10_13h06.21.708,proactive3.1,2020.1.2,Win32,60,5f599a131af4471f3d752b7b,5f5a1698e2534b062cc71f93,3,,,,,,backpack,,,,,,0,49,49,0,1,1,0,,,,,,,,,,,,,,,,,,,,,,,,,,,,,,,,,,,,,,,,,,,,,,,,,,,,,,,,,,,,,,,,,,,,,,,,,,,,,,,,,,,,,,,,,,,,,,,,,,,,,,,,,,,,,
,,,,,,,,,,stimuli/images/PICTURE_488.png,STYLE,5f564265f9d134032e757250,17/03/1954,2020-09-10_13h06.21.708,proactive3.1,2020.1.2,Win32,60,5f599a131af4471f3d752b7b,5f5a1698e2534b062cc71f93,3,,,,,,sun,,,,,,0,50,50,33,1,4,0,,,,,,,,,,,,,,,,,,,,,,,,,,,,,,,,,,,,,,,,,,,,,,,,,,,,,,,,,,,,,,,,,,,,,,,,,,,,,,,,,,,,,,,,,,,,,,,,,,,,,,,,,,,,,
,,,,,,,,,,stimuli/images/PICTURE_675.png,WEAPON,5f564265f9d134032e757250,17/03/1954,2020-09-10_13h06.21.708,proactive3.1,2020.1.2,Win32,60,5f599a131af4471f3d752b7b,5f5a1698e2534b062cc71f93,3,,,,,,windmill,,,,,,0,51,51,32,1,4,0,,,,,,,,,,,,,,,,,,,,,,,,,,,,,,,,,,,,,,,,,,,,,,,,,,,,,,,,,,,,,,,,,,,,,,,,,,,,,,,,,,,,,,,,,,,,,,,,,,,,,,,,,,,,,
,,,,,,,,,,stimuli/images/PICTURE_708.png,CLIENT,5f564265f9d134032e757250,17/03/1954,2020-09-10_13h06.21.708,proactive3.1,2020.1.2,Win32,60,5f599a131af4471f3d752b7b,5f5a1698e2534b062cc71f93,3,,,,,,monkey,,,,,,0,52,52,5,1,1,0,,,,,,,,,,,,,,,,,,,,,,,,,,,,,,,,,,,,,,,,,,,,,,,,,,,,,,,,,,,,,,,,,,,,,,,,,,,,,,,,,,,,,,,,,,,,,,,,,,,,,,,,,,,,,
,,,,,,,,,,stimuli/images/PICTURE_677.png,MILE,5f564265f9d134032e757250,17/03/1954,2020-09-10_13h06.21.708,proactive3.1,2020.1.2,Win32,60,5f599a131af4471f3d752b7b,5f5a1698e2534b062cc71f93,3,,,,,,map,,,,,,0,53,53,30,1,4,0,,,,,,,,,,,,,,,,,,,,,,,,,,,,,,,,,,,,,,,,,,,,,,,,,,,,,,,,,,,,,,,,,,,,,,,,,,,,,,,,,,,,,,,,,,,,,,,,,,,,,,,,,,,,,
,,,,,,,,,,stimuli/images/PICTURE_123.png,ADVICE,5f564265f9d134032e757250,17/03/1954,2020-09-10_13h06.21.708,proactive3.1,2020.1.2,Win32,60,5f599a131af4471f3d752b7b,5f5a1698e2534b062cc71f93,3,,,,,,dart,,,,,,0,54,54,40,1,5,0,,,,,,,,,,,,,,,,,,,,,,,,,,,,,,,,,,,,,,,,,,,,,,,,,,,,,,,,,,,,,,,,,,,,,,,,,,,,,,,,,,,,,,,,,,,,,,,,,,,,,,,,,,,,,
,,,,,,,,,,stimuli/images/PICTURE_248.png,DOZEN,5f564265f9d134032e757250,17/03/1954,2020-09-10_13h06.21.708,proactive3.1,2020.1.2,Win32,60,5f599a131af4471f3d752b7b,5f5a1698e2534b062cc71f93,3,,,,,,cart,,,,,,0,55,55,39,1,4,0,,,,,,,,,,,,,,,,,,,,,,,,,,,,,,,,,,,,,,,,,,,,,,,,,,,,,,,,,,,,,,,,,,,,,,,,,,,,,,,,,,,,,,,,,,,,,,,,,,,,,,,,,,,,,
,,,,,,,,,,stimuli/images/PICTURE_469.png,LETTER,5f564265f9d134032e757250,17/03/1954,2020-09-10_13h06.21.708,proactive3.1,2020.1.2,Win32,60,5f599a131af4471f3d752b7b,5f5a1698e2534b062cc71f93,3,,,,,,stool,,,,,,0,56,56,42,1,5,0,,,,,,,,,,,,,,,,,,,,,,,,,,,,,,,,,,,,,,,,,,,,,,,,,,,,,,,,,,,,,,,,,,,,,,,,,,,,,,,,,,,,,,,,,,,,,,,,,,,,,,,,,,,,,
,,,,,,,,,,stimuli/images/PICTURE_302.png,FAMILY,5f564265f9d134032e757250,17/03/1954,2020-09-10_13h06.21.708,proactive3.1,2020.1.2,Win32,60,5f599a131af4471f3d752b7b,5f5a1698e2534b062cc71f93,3,,,,,,taxi,,,,,,0,57,57,18,1,2,0,,,,,,,,,,,,,,,,,,,,,,,,,,,,,,,,,,,,,,,,,,,,,,,,,,,,,,,,,,,,,,,,,,,,,,,,,,,,,,,,,,,,,,,,,,,,,,,,,,,,,,,,,,,,,
,,,,,,,,,,stimuli/images/PICTURE_314.png,GODS,5f564265f9d134032e757250,17/03/1954,2020-09-10_13h06.21.708,proactive3.1,2020.1.2,Win32,60,5f599a131af4471f3d752b7b,5f5a1698e2534b062cc71f93,3,,,,,,perfume,,,,,,0,58,58,11,1,2,0,,,,,,,,,,,,,,,,,,,,,,,,,,,,,,,,,,,,,,,,,,,,,,,,,,,,,,,,,,,,,,,,,,,,,,,,,,,,,,,,,,,,,,,,,,,,,,,,,,,,,,,,,,,,,
,,?,0.00195,0,,,,,,stimuli/images/PICTURE_708.png,CLIENT,5f564265f9d134032e757250,17/03/1954,2020-09-10_13h06.21.708,proactive3.1,2020.1.2,Win32,60,5f599a131af4471f3d752b7b,5f5a1698e2534b062cc71f93,3,,,,,,monkey,,,,,,,,,,,1,0,0,0,0,5,1,,,,,,,,,,,,,,,,,,,,,,,,,,,,,,,,,,,,,,,,,,,,,,,,,,,,,,,,,,,,,,,,,,,,,,,,,,,,,,,,,,,,,,,,,,,,,,,,,,,,,,,,
,,?,0.00202,0,,,,,,stimuli/images/PICTURE_308.png,KIND,5f564265f9d134032e757250,17/03/1954,2020-09-10_13h06.21.708,proactive3.1,2020.1.2,Win32,60,5f599a131af4471f3d752b7b,5f5a1698e2534b062cc71f93,3,,,,,,dice,,,,,,,,,,,6,0,0,1,1,54,1,,,,,,,,,,,,,,,,,,,,,,,,,,,,,,,,,,,,,,,,,,,,,,,,,,,,,,,,,,,,,,,,,,,,,,,,,,,,,,,,,,,,,,,,,,,,,,,,,,,,,,,,
,,?,0.003645,0,,,,,,stimuli/images/PICTURE_160.png,FEET,5f564265f9d134032e757250,17/03/1954,2020-09-10_13h06.21.708,proactive3.1,2020.1.2,Win32,60,5f599a131af4471f3d752b7b,5f5a1698e2534b062cc71f93,3,,,,,,wheelbarrow,,,,,,,,,,,6,0,0,2,2,58,1,,,,,,,,,,,,,,,,,,,,,,,,,,,,,,,,,,,,,,,,,,,,,,,,,,,,,,,,,,,,,,,,,,,,,,,,,,,,,,,,,,,,,,,,,,,,,,,,,,,,,,,,
,,?,0.00231,0,,,,,,stimuli/images/PICTURE_302.png,FAMILY,5f564265f9d134032e757250,17/03/1954,2020-09-10_13h06.21.708,proactive3.1,2020.1.2,Win32,60,5f599a131af4471f3d752b7b,5f5a1698e2534b062cc71f93,3,,,,,,taxi,,,,,,,,,,,2,0,0,3,3,18,1,,,,,,,,,,,,,,,,,,,,,,,,,,,,,,,,,,,,,,,,,,,,,,,,,,,,,,,,,,,,,,,,,,,,,,,,,,,,,,,,,,,,,,,,,,,,,,,,,,,,,,,,
,,?,0.00293,0,,,,,,stimuli/images/PICTURE_449.png,THING,5f564265f9d134032e757250,17/03/1954,2020-09-10_13h06.21.708,proactive3.1,2020.1.2,Win32,60,5f599a131af4471f3d752b7b,5f5a1698e2534b062cc71f93,3,,,,,,bench,,,,,,,,,,,6,0,0,4,4,59,1,,,,,,,,,,,,,,,,,,,,,,,,,,,,,,,,,,,,,,,,,,,,,,,,,,,,,,,,,,,,,,,,,,,,,,,,,,,,,,,,,,,,,,,,,,,,,,,,,,,,,,,,
,,?,0.001905,0,,,,,,stimuli/images/PICTURE_688.png,WOMEN,5f564265f9d134032e757250,17/03/1954,2020-09-10_13h06.21.708,proactive3.1,2020.1.2,Win32,60,5f599a131af4471f3d752b7b,5f5a1698e2534b062cc71f93,3,,,,,,runner,,,,,,,,,,,2,0,0,5,5,14,1,,,,,,,,,,,,,,,,,,,,,,,,,,,,,,,,,,,,,,,,,,,,,,,,,,,,,,,,,,,,,,,,,,,,,,,,,,,,,,,,,,,,,,,,,,,,,,,,,,,,,,,,
,,?,0.00218,0,,,,,,stimuli/images/PICTURE_744.png,SAKE,5f564265f9d134032e757250,17/03/1954,2020-09-10_13h06.21.708,proactive3.1,2020.1.2,Win32,60,5f599a131af4471f3d752b7b,5f5a1698e2534b062cc71f93,3,,,,,,ring,,,,,,,,,,,2,0,0,6,6,17,1,,,,,,,,,,,,,,,,,,,,,,,,,,,,,,,,,,,,,,,,,,,,,,,,,,,,,,,,,,,,,,,,,,,,,,,,,,,,,,,,,,,,,,,,,,,,,,,,,,,,,,,,
,,?,0.00269,0,,,,,,stimuli/images/PICTURE_215.png,PLENTY,5f564265f9d134032e757250,17/03/1954,2020-09-10_13h06.21.708,proactive3.1,2020.1.2,Win32,60,5f599a131af4471f3d752b7b,5f5a1698e2534b062cc71f93,3,,,,,,boot,,,,,,,,,,,4,0,0,7,7,37,1,,,,,,,,,,,,,,,,,,,,,,,,,,,,,,,,,,,,,,,,,,,,,,,,,,,,,,,,,,,,,,,,,,,,,,,,,,,,,,,,,,,,,,,,,,,,,,,,,,,,,,,,
,,?,0.002405,0,,,,,,stimuli/images/PICTURE_123.png,ADVICE,5f564265f9d134032e757250,17/03/1954,2020-09-10_13h06.21.708,proactive3.1,2020.1.2,Win32,60,5f599a131af4471f3d752b7b,5f5a1698e2534b062cc71f93,3,,,,,,dart,,,,,,,,,,,6,0,0,8,8,50,1,,,,,,,,,,,,,,,,,,,,,,,,,,,,,,,,,,,,,,,,,,,,,,,,,,,,,,,,,,,,,,,,,,,,,,,,,,,,,,,,,,,,,,,,,,,,,,,,,,,,,,,,
,,YARD,10.38134,0,,,,,,stimuli/images/PICTURE_95.png,STYLE,5f564265f9d134032e757250,17/03/1954,2020-09-10_13h06.21.708,proactive3.1,2020.1.2,Win32,60,5f599a131af4471f3d752b7b,5f5a1698e2534b062cc71f93,3,,,,,,suitcase,,,,,,,,,,,3,0,0,9,9,25,1,,,,,,,,,,,,,,,,,,,,,,,,,,,,,,,,,,,,,,,,,,,,,,,,,,,,,,,,,,,,,,,,,,,,,,,,,,,,,,,,,,,,,,,,,,,,,,,,,,,,,,,,
,,?,0.00151,0,,,,,,stimuli/images/PICTURE_248.png,DOZEN,5f564265f9d134032e757250,17/03/1954,2020-09-10_13h06.21.708,proactive3.1,2020.1.2,Win32,60,5f599a131af4471f3d752b7b,5f5a1698e2534b062cc71f93,3,,,,,,cart,,,,,,,,,,,4,0,0,10,10,39,1,,,,,,,,,,,,,,,,,,,,,,,,,,,,,,,,,,,,,,,,,,,,,,,,,,,,,,,,,,,,,,,,,,,,,,,,,,,,,,,,,,,,,,,,,,,,,,,,,,,,,,,,
,,?,0.00166,0,,,,,,stimuli/images/PICTURE_470.png,CASINO,5f564265f9d134032e757250,17/03/1954,2020-09-10_13h06.21.708,proactive3.1,2020.1.2,Win32,60,5f599a131af4471f3d752b7b,5f5a1698e2534b062cc71f93,3,,,,,,motorbike,,,,,,,,,,,4,0,0,11,11,36,1,,,,,,,,,,,,,,,,,,,,,,,,,,,,,,,,,,,,,,,,,,,,,,,,,,,,,,,,,,,,,,,,,,,,,,,,,,,,,,,,,,,,,,,,,,,,,,,,,,,,,,,,
,,?,0.0015,0,,,,,,stimuli/images/PICTURE_453.png,PLENTY,5f564265f9d134032e757250,17/03/1954,2020-09-10_13h06.21.708,proactive3.1,2020.1.2,Win32,60,5f599a131af4471f3d752b7b,5f5a1698e2534b062cc71f93,3,,,,,,scissors,,,,,,,,,,,6,0,0,12,12,56,1,,,,,,,,,,,,,,,,,,,,,,,,,,,,,,,,,,,,,,,,,,,,,,,,,,,,,,,,,,,,,,,,,,,,,,,,,,,,,,,,,,,,,,,,,,,,,,,,,,,,,,,,
,,?,0.002035,0,,,,,,stimuli/images/PICTURE_469.png,LETTER,5f564265f9d134032e757250,17/03/1954,2020-09-10_13h06.21.708,proactive3.1,2020.1.2,Win32,60,5f599a131af4471f3d752b7b,5f5a1698e2534b062cc71f93,3,,,,,,stool,,,,,,,,,,,5,0,0,13,13,42,1,,,,,,,,,,,,,,,,,,,,,,,,,,,,,,,,,,,,,,,,,,,,,,,,,,,,,,,,,,,,,,,,,,,,,,,,,,,,,,,,,,,,,,,,,,,,,,,,,,,,,,,,
,,?,0.001495,0,,,,,,stimuli/images/PICTURE_491.png,WRITER,5f564265f9d134032e757250,17/03/1954,2020-09-10_13h06.21.708,proactive3.1,2020.1.2,Win32,60,5f599a131af4471f3d752b7b,5f5a1698e2534b062cc71f93,3,,,,,,rug,,,,,,,,,,,6,0,0,14,14,57,1,,,,,,,,,,,,,,,,,,,,,,,,,,,,,,,,,,,,,,,,,,,,,,,,,,,,,,,,,,,,,,,,,,,,,,,,,,,,,,,,,,,,,,,,,,,,,,,,,,,,,,,,
,,?,0.00165,0,,,,,,stimuli/images/PICTURE_692.png,MONTH,5f564265f9d134032e757250,17/03/1954,2020-09-10_13h06.21.708,proactive3.1,2020.1.2,Win32,60,5f599a131af4471f3d752b7b,5f5a1698e2534b062cc71f93,3,,,,,,cherry,,,,,,,,,,,2,0,0,15,15,16,1,,,,,,,,,,,,,,,,,,,,,,,,,,,,,,,,,,,,,,,,,,,,,,,,,,,,,,,,,,,,,,,,,,,,,,,,,,,,,,,,,,,,,,,,,,,,,,,,,,,,,,,,
,,?,0.00141,0,,,,,,stimuli/images/PICTURE_708.png,PENNY,5f564265f9d134032e757250,17/03/1954,2020-09-10_13h06.21.708,proactive3.1,2020.1.2,Win32,60,5f599a131af4471f3d752b7b,5f5a1698e2534b062cc71f93,3,,,,,,monkey,,,,,,,,,,,4,0,0,16,16,31,1,,,,,,,,,,,,,,,,,,,,,,,,,,,,,,,,,,,,,,,,,,,,,,,,,,,,,,,,,,,,,,,,,,,,,,,,,,,,,,,,,,,,,,,,,,,,,,,,,,,,,,,,
,,?,0.00145,0,,,,,,stimuli/images/PICTURE_688.png,CASINO,5f564265f9d134032e757250,17/03/1954,2020-09-10_13h06.21.708,proactive3.1,2020.1.2,Win32,60,5f599a131af4471f3d752b7b,5f5a1698e2534b062cc71f93,3,,,,,,runner,,,,,,,,,,,1,0,0,17,17,2,1,,,,,,,,,,,,,,,,,,,,,,,,,,,,,,,,,,,,,,,,,,,,,,,,,,,,,,,,,,,,,,,,,,,,,,,,,,,,,,,,,,,,,,,,,,,,,,,,,,,,,,,,
,,?,0.00154,0,,,,,,stimuli/images/PICTURE_160.png,LEADER,5f564265f9d134032e757250,17/03/1954,2020-09-10_13h06.21.708,proactive3.1,2020.1.2,Win32,60,5f599a131af4471f3d752b7b,5f5a1698e2534b062cc71f93,3,,,,,,wheelbarrow,,,,,,,,,,,1,0,0,18,18,3,1,,,,,,,,,,,,,,,,,,,,,,,,,,,,,,,,,,,,,,,,,,,,,,,,,,,,,,,,,,,,,,,,,,,,,,,,,,,,,,,,,,,,,,,,,,,,,,,,,,,,,,,,
,,?,0.00148,0,,,,,,stimuli/images/PICTURE_285.png,ADVICE,5f564265f9d134032e757250,17/03/1954,2020-09-10_13h06.21.708,proactive3.1,2020.1.2,Win32,60,5f599a131af4471f3d752b7b,5f5a1698e2534b062cc71f93,3,,,,,,carrot,,,,,,,,,,,2,0,0,19,19,12,1,,,,,,,,,,,,,,,,,,,,,,,,,,,,,,,,,,,,,,,,,,,,,,,,,,,,,,,,,,,,,,,,,,,,,,,,,,,,,,,,,,,,,,,,,,,,,,,,,,,,,,,,
,,?,0.00152,0,,,,,,stimuli/images/PICTURE_233.png,WOMEN,5f564265f9d134032e757250,17/03/1954,2020-09-10_13h06.21.708,proactive3.1,2020.1.2,Win32,60,5f599a131af4471f3d752b7b,5f5a1698e2534b062cc71f93,3,,,,,,salt,,,,,,,,,,,4,0,0,20,20,38,1,,,,,,,,,,,,,,,,,,,,,,,,,,,,,,,,,,,,,,,,,,,,,,,,,,,,,,,,,,,,,,,,,,,,,,,,,,,,,,,,,,,,,,,,,,,,,,,,,,,,,,,,
,,STYLE,14.2478,0,,,,,,stimuli/images/PICTURE_233.png,IDEAS,5f564265f9d134032e757250,17/03/1954,2020-09-10_13h06.21.708,proactive3.1,2020.1.2,Win32,60,5f599a131af4471f3d752b7b,5f5a1698e2534b062cc71f93,3,,,,,,salt,,,,,,,,,,,3,0,0,21,21,28,1,,,,,,,,,,,,,,,,,,,,,,,,,,,,,,,,,,,,,,,,,,,,,,,,,,,,,,,,,,,,,,,,,,,,,,,,,,,,,,,,,,,,,,,,,,,,,,,,,,,,,,,,
,,?,0.00157,0,,,,,,stimuli/images/PICTURE_667.png,BATH,5f564265f9d134032e757250,17/03/1954,2020-09-10_13h06.21.708,proactive3.1,2020.1.2,Win32,60,5f599a131af4471f3d752b7b,5f5a1698e2534b062cc71f93,3,,,,,,daisy,,,,,,,,,,,1,0,0,22,22,4,1,,,,,,,,,,,,,,,,,,,,,,,,,,,,,,,,,,,,,,,,,,,,,,,,,,,,,,,,,,,,,,,,,,,,,,,,,,,,,,,,,,,,,,,,,,,,,,,,,,,,,,,,
,,YARD,12.81436,0,,,,,,stimuli/images/PICTURE_255.png,AREA,5f564265f9d134032e757250,17/03/1954,2020-09-10_13h06.21.708,proactive3.1,2020.1.2,Win32,60,5f599a131af4471f3d752b7b,5f5a1698e2534b062cc71f93,3,,,,,,shovel,,,,,,,,,,,3,0,0,23,23,22,1,,,,,,,,,,,,,,,,,,,,,,,,,,,,,,,,,,,,,,,,,,,,,,,,,,,,,,,,,,,,,,,,,,,,,,,,,,,,,,,,,,,,,,,,,,,,,,,,,,,,,,,,
,,?,0.001525,0,,,,,,stimuli/images/PICTURE_123.png,ADVICE,5f564265f9d134032e757250,17/03/1954,2020-09-10_13h06.21.708,proactive3.1,2020.1.2,Win32,60,5f599a131af4471f3d752b7b,5f5a1698e2534b062cc71f93,3,,,,,,dart,,,,,,,,,,,5,0,0,24,24,40,1,,,,,,,,,,,,,,,,,,,,,,,,,,,,,,,,,,,,,,,,,,,,,,,,,,,,,,,,,,,,,,,,,,,,,,,,,,,,,,,,,,,,,,,,,,,,,,,,,,,,,,,,
,,NOISE,14.263715,0,,,,,,stimuli/images/PICTURE_509.png,PHOTO,5f564265f9d134032e757250,17/03/1954,2020-09-10_13h06.21.708,proactive3.1,2020.1.2,Win32,60,5f599a131af4471f3d752b7b,5f5a1698e2534b062cc71f93,3,,,,,,telephone,,,,,,,,,,,3,0,0,25,25,21,1,,,,,,,,,,,,,,,,,,,,,,,,,,,,,,,,,,,,,,,,,,,,,,,,,,,,,,,,,,,,,,,,,,,,,,,,,,,,,,,,,,,,,,,,,,,,,,,,,,,,,,,,
,,?,0.00158,0,,,,,,stimuli/images/PICTURE_654.png,VALLEY,5f564265f9d134032e757250,17/03/1954,2020-09-10_13h06.21.708,proactive3.1,2020.1.2,Win32,60,5f599a131af4471f3d752b7b,5f5a1698e2534b062cc71f93,3,,,,,,pencil,,,,,,,,,,,1,0,0,26,26,1,1,,,,,,,,,,,,,,,,,,,,,,,,,,,,,,,,,,,,,,,,,,,,,,,,,,,,,,,,,,,,,,,,,,,,,,,,,,,,,,,,,,,,,,,,,,,,,,,,,,,,,,,,
,,?,0.001575,0,,,,,,stimuli/images/PICTURE_208.png,MONTH,5f564265f9d134032e757250,17/03/1954,2020-09-10_13h06.21.708,proactive3.1,2020.1.2,Win32,60,5f599a131af4471f3d752b7b,5f5a1698e2534b062cc71f93,3,,,,,,microphone,,,,,,,,,,,6,0,0,27,27,53,1,,,,,,,,,,,,,,,,,,,,,,,,,,,,,,,,,,,,,,,,,,,,,,,,,,,,,,,,,,,,,,,,,,,,,,,,,,,,,,,,,,,,,,,,,,,,,,,,,,,,,,,,
,,CLOTH,9.49421,0,,,,,,stimuli/images/PICTURE_708.png,YARD,5f564265f9d134032e757250,17/03/1954,2020-09-10_13h06.21.708,proactive3.1,2020.1.2,Win32,60,5f599a131af4471f3d752b7b,5f5a1698e2534b062cc71f93,3,,,,,,monkey,,,,,,,,,,,3,0,0,28,28,29,1,,,,,,,,,,,,,,,,,,,,,,,,,,,,,,,,,,,,,,,,,,,,,,,,,,,,,,,,,,,,,,,,,,,,,,,,,,,,,,,,,,,,,,,,,,,,,,,,,,,,,,,,
,,?,0.002025,0,,,,,,stimuli/images/PICTURE_380.png,DEATH,5f564265f9d134032e757250,17/03/1954,2020-09-10_13h06.21.708,proactive3.1,2020.1.2,Win32,60,5f599a131af4471f3d752b7b,5f5a1698e2534b062cc71f93,3,,,,,,gorilla,,,,,,,,,,,5,0,0,29,29,49,1,,,,,,,,,,,,,,,,,,,,,,,,,,,,,,,,,,,,,,,,,,,,,,,,,,,,,,,,,,,,,,,,,,,,,,,,,,,,,,,,,,,,,,,,,,,,,,,,,,,,,,,,
,,?,0.001535,0,,,,,,stimuli/images/PICTURE_85.png,THING,5f564265f9d134032e757250,17/03/1954,2020-09-10_13h06.21.708,proactive3.1,2020.1.2,Win32,60,5f599a131af4471f3d752b7b,5f5a1698e2534b062cc71f93,3,,,,,,diamond,,,,,,,,,,,2,0,0,30,30,15,1,,,,,,,,,,,,,,,,,,,,,,,,,,,,,,,,,,,,,,,,,,,,,,,,,,,,,,,,,,,,,,,,,,,,,,,,,,,,,,,,,,,,,,,,,,,,,,,,,,,,,,,,
,,?,0.00241,0,,,,,,stimuli/images/PICTURE_308.png,ESTATE,5f564265f9d134032e757250,17/03/1954,2020-09-10_13h06.21.708,proactive3.1,2020.1.2,Win32,60,5f599a131af4471f3d752b7b,5f5a1698e2534b062cc71f93,3,,,,,,dice,,,,,,,,,,,5,0,0,31,31,46,1,,,,,,,,,,,,,,,,,,,,,,,,,,,,,,,,,,,,,,,,,,,,,,,,,,,,,,,,,,,,,,,,,,,,,,,,,,,,,,,,,,,,,,,,,,,,,,,,,,,,,,,,
,,RED,12.708185,0,,,,,,stimuli/images/PICTURE_348.png,SPEECH,5f564265f9d134032e757250,17/03/1954,2020-09-10_13h06.21.708,proactive3.1,2020.1.2,Win32,60,5f599a131af4471f3d752b7b,5f5a1698e2534b062cc71f93,3,,,,,,pepper,,,,,,,,,,,3,0,0,32,32,20,1,,,,,,,,,,,,,,,,,,,,,,,,,,,,,,,,,,,,,,,,,,,,,,,,,,,,,,,,,,,,,,,,,,,,,,,,,,,,,,,,,,,,,,,,,,,,,,,,,,,,,,,,
,,?,0.001575,0,,,,,,stimuli/images/PICTURE_744.png,SYSTEM,5f564265f9d134032e757250,17/03/1954,2020-09-10_13h06.21.708,proactive3.1,2020.1.2,Win32,60,5f599a131af4471f3d752b7b,5f5a1698e2534b062cc71f93,3,,,,,,ring,,,,,,,,,,,5,0,0,33,33,43,1,,,,,,,,,,,,,,,,,,,,,,,,,,,,,,,,,,,,,,,,,,,,,,,,,,,,,,,,,,,,,,,,,,,,,,,,,,,,,,,,,,,,,,,,,,,,,,,,,,,,,,,,
,,YARD,10.147525,0,,,,,,stimuli/images/PICTURE_453.png,DUDE,5f564265f9d134032e757250,17/03/1954,2020-09-10_13h06.21.708,proactive3.1,2020.1.2,Win32,60,5f599a131af4471f3d752b7b,5f5a1698e2534b062cc71f93,3,,,,,,scissors,,,,,,,,,,,3,0,0,34,34,27,1,,,,,,,,,,,,,,,,,,,,,,,,,,,,,,,,,,,,,,,,,,,,,,,,,,,,,,,,,,,,,,,,,,,,,,,,,,,,,,,,,,,,,,,,,,,,,,,,,,,,,,,,
,,?,0.001545,0,,,,,,stimuli/images/PICTURE_311.png,BEAUTY,5f564265f9d134032e757250,17/03/1954,2020-09-10_13h06.21.708,proactive3.1,2020.1.2,Win32,60,5f599a131af4471f3d752b7b,5f5a1698e2534b062cc71f93,3,,,,,,razor,,,,,,,,,,,2,0,0,35,35,13,1,,,,,,,,,,,,,,,,,,,,,,,,,,,,,,,,,,,,,,,,,,,,,,,,,,,,,,,,,,,,,,,,,,,,,,,,,,,,,,,,,,,,,,,,,,,,,,,,,,,,,,,,
,,?,0.001475,0,,,,,,stimuli/images/PICTURE_314.png,GODS,5f564265f9d134032e757250,17/03/1954,2020-09-10_13h06.21.708,proactive3.1,2020.1.2,Win32,60,5f599a131af4471f3d752b7b,5f5a1698e2534b062cc71f93,3,,,,,,perfume,,,,,,,,,,,2,0,0,36,36,11,1,,,,,,,,,,,,,,,,,,,,,,,,,,,,,,,,,,,,,,,,,,,,,,,,,,,,,,,,,,,,,,,,,,,,,,,,,,,,,,,,,,,,,,,,,,,,,,,,,,,,,,,,
,,PAPER,10.56066,0,,,,,,stimuli/images/PICTURE_491.png,ROOF,5f564265f9d134032e757250,17/03/1954,2020-09-10_13h06.21.708,proactive3.1,2020.1.2,Win32,60,5f599a131af4471f3d752b7b,5f5a1698e2534b062cc71f93,3,,,,,,rug,,,,,,,,,,,3,0,0,37,37,24,1,,,,,,,,,,,,,,,,,,,,,,,,,,,,,,,,,,,,,,,,,,,,,,,,,,,,,,,,,,,,,,,,,,,,,,,,,,,,,,,,,,,,,,,,,,,,,,,,,,,,,,,,
,,?,0.00151,0,,,,,,stimuli/images/PICTURE_147.png,MOMENT,5f564265f9d134032e757250,17/03/1954,2020-09-10_13h06.21.708,proactive3.1,2020.1.2,Win32,60,5f599a131af4471f3d752b7b,5f5a1698e2534b062cc71f93,3,,,,,,hanger,,,,,,,,,,,6,0,0,38,38,51,1,,,,,,,,,,,,,,,,,,,,,,,,,,,,,,,,,,,,,,,,,,,,,,,,,,,,,,,,,,,,,,,,,,,,,,,,,,,,,,,,,,,,,,,,,,,,,,,,,,,,,,,,
,,?,0.00153,0,,,,,,stimuli/images/PICTURE_327.png,BEAUTY,5f564265f9d134032e757250,17/03/1954,2020-09-10_13h06.21.708,proactive3.1,2020.1.2,Win32,60,5f599a131af4471f3d752b7b,5f5a1698e2534b062cc71f93,3,,,,,,helmet,,,,,,,,,,,5,0,0,39,39,48,1,,,,,,,,,,,,,,,,,,,,,,,,,,,,,,,,,,,,,,,,,,,,,,,,,,,,,,,,,,,,,,,,,,,,,,,,,,,,,,,,,,,,,,,,,,,,,,,,,,,,,,,,
,,?,0.001465,0,,,,,,stimuli/images/PICTURE_208.png,THING,5f564265f9d134032e757250,17/03/1954,2020-09-10_13h06.21.708,proactive3.1,2020.1.2,Win32,60,5f599a131af4471f3d752b7b,5f5a1698e2534b062cc71f93,3,,,,,,microphone,,,,,,,,,,,5,0,0,40,40,47,1,,,,,,,,,,,,,,,,,,,,,,,,,,,,,,,,,,,,,,,,,,,,,,,,,,,,,,,,,,,,,,,,,,,,,,,,,,,,,,,,,,,,,,,,,,,,,,,,,,,,,,,,
,,?,0.00142,0,,,,,,stimuli/images/PICTURE_667.png,PLENTY,5f564265f9d134032e757250,17/03/1954,2020-09-10_13h06.21.708,proactive3.1,2020.1.2,Win32,60,5f599a131af4471f3d752b7b,5f5a1698e2534b062cc71f93,3,,,,,,daisy,,,,,,,,,,,5,0,0,41,41,41,1,,,,,,,,,,,,,,,,,,,,,,,,,,,,,,,,,,,,,,,,,,,,,,,,,,,,,,,,,,,,,,,,,,,,,,,,,,,,,,,,,,,,,,,,,,,,,,,,,,,,,,,,
,,?,0.00155,0,,,,,,stimuli/images/PICTURE_339.png,PLENTY,5f564265f9d134032e757250,17/03/1954,2020-09-10_13h06.21.708,proactive3.1,2020.1.2,Win32,60,5f599a131af4471f3d752b7b,5f5a1698e2534b062cc71f93,3,,,,,,backpack,,,,,,,,,,,1,0,0,42,42,0,1,,,,,,,,,,,,,,,,,,,,,,,,,,,,,,,,,,,,,,,,,,,,,,,,,,,,,,,,,,,,,,,,,,,,,,,,,,,,,,,,,,,,,,,,,,,,,,,,,,,,,,,,
,,?,0.00152,0,,,,,,stimuli/images/PICTURE_208.png,LOTS,5f564265f9d134032e757250,17/03/1954,2020-09-10_13h06.21.708,proactive3.1,2020.1.2,Win32,60,5f599a131af4471f3d752b7b,5f5a1698e2534b062cc71f93,3,,,,,,microphone,,,,,,,,,,,2,0,0,43,43,10,1,,,,,,,,,,,,,,,,,,,,,,,,,,,,,,,,,,,,,,,,,,,,,,,,,,,,,,,,,,,,,,,,,,,,,,,,,,,,,,,,,,,,,,,,,,,,,,,,,,,,,,,,
,,?,0.00155,0,,,,,,stimuli/images/PICTURE_504.png,BODY,5f564265f9d134032e757250,17/03/1954,2020-09-10_13h06.21.708,proactive3.1,2020.1.2,Win32,60,5f599a131af4471f3d752b7b,5f5a1698e2534b062cc71f93,3,,,,,,wheel,,,,,,,,,,,1,0,0,44,44,8,1,,,,,,,,,,,,,,,,,,,,,,,,,,,,,,,,,,,,,,,,,,,,,,,,,,,,,,,,,,,,,,,,,,,,,,,,,,,,,,,,,,,,,,,,,,,,,,,,,,,,,,,,
,,PLAY,6.434225,0,,,,,,stimuli/images/PICTURE_203.png,ARTIST,5f564265f9d134032e757250,17/03/1954,2020-09-10_13h06.21.708,proactive3.1,2020.1.2,Win32,60,5f599a131af4471f3d752b7b,5f5a1698e2534b062cc71f93,3,,,,,,cap,,,,,,,,,,,3,0,0,45,45,26,1,,,,,,,,,,,,,,,,,,,,,,,,,,,,,,,,,,,,,,,,,,,,,,,,,,,,,,,,,,,,,,,,,,,,,,,,,,,,,,,,,,,,,,,,,,,,,,,,,,,,,,,,
,,?,0.001755,0,,,,,,stimuli/images/PICTURE_68.png,MILE,5f564265f9d134032e757250,17/03/1954,2020-09-10_13h06.21.708,proactive3.1,2020.1.2,Win32,60,5f599a131af4471f3d752b7b,5f5a1698e2534b062cc71f93,3,,,,,,candle,,,,,,,,,,,5,0,0,46,46,44,1,,,,,,,,,,,,,,,,,,,,,,,,,,,,,,,,,,,,,,,,,,,,,,,,,,,,,,,,,,,,,,,,,,,,,,,,,,,,,,,,,,,,,,,,,,,,,,,,,,,,,,,,
,,?,0.00157,0,,,,,,stimuli/images/PICTURE_151.png,GIRL,5f564265f9d134032e757250,17/03/1954,2020-09-10_13h06.21.708,proactive3.1,2020.1.2,Win32,60,5f599a131af4471f3d752b7b,5f5a1698e2534b062cc71f93,3,,,,,,tray,,,,,,,,,,,2,0,0,47,47,19,1,,,,,,,,,,,,,,,,,,,,,,,,,,,,,,,,,,,,,,,,,,,,,,,,,,,,,,,,,,,,,,,,,,,,,,,,,,,,,,,,,,,,,,,,,,,,,,,,,,,,,,,,
,,?,0.001495,0,,,,,,stimuli/images/PICTURE_380.png,PHOTO,5f564265f9d134032e757250,17/03/1954,2020-09-10_13h06.21.708,proactive3.1,2020.1.2,Win32,60,5f599a131af4471f3d752b7b,5f5a1698e2534b062cc71f93,3,,,,,,gorilla,,,,,,,,,,,6,0,0,48,48,52,1,,,,,,,,,,,,,,,,,,,,,,,,,,,,,,,,,,,,,,,,,,,,,,,,,,,,,,,,,,,,,,,,,,,,,,,,,,,,,,,,,,,,,,,,,,,,,,,,,,,,,,,,
,,?,0.002755,0,,,,,,stimuli/images/PICTURE_314.png,SAKE,5f564265f9d134032e757250,17/03/1954,2020-09-10_13h06.21.708,proactive3.1,2020.1.2,Win32,60,5f599a131af4471f3d752b7b,5f5a1698e2534b062cc71f93,3,,,,,,perfume,,,,,,,,,,,1,0,0,49,49,7,1,,,,,,,,,,,,,,,,,,,,,,,,,,,,,,,,,,,,,,,,,,,,,,,,,,,,,,,,,,,,,,,,,,,,,,,,,,,,,,,,,,,,,,,,,,,,,,,,,,,,,,,,
,,?,0.002305,0,,,,,,stimuli/images/PICTURE_32.png,JUNGLE,5f564265f9d134032e757250,17/03/1954,2020-09-10_13h06.21.708,proactive3.1,2020.1.2,Win32,60,5f599a131af4471f3d752b7b,5f5a1698e2534b062cc71f93,3,,,,,,crown,,,,,,,,,,,5,0,0,50,50,45,1,,,,,,,,,,,,,,,,,,,,,,,,,,,,,,,,,,,,,,,,,,,,,,,,,,,,,,,,,,,,,,,,,,,,,,,,,,,,,,,,,,,,,,,,,,,,,,,,,,,,,,,,
,,?,0.001565,0,,,,,,stimuli/images/PICTURE_356.png,DANGER,5f564265f9d134032e757250,17/03/1954,2020-09-10_13h06.21.708,proactive3.1,2020.1.2,Win32,60,5f599a131af4471f3d752b7b,5f5a1698e2534b062cc71f93,3,,,,,,pawn,,,,,,,,,,,6,0,0,51,51,55,1,,,,,,,,,,,,,,,,,,,,,,,,,,,,,,,,,,,,,,,,,,,,,,,,,,,,,,,,,,,,,,,,,,,,,,,,,,,,,,,,,,,,,,,,,,,,,,,,,,,,,,,,
,,PEG,12.65061,0,,,,,,stimuli/images/PICTURE_467.png,DEMON,5f564265f9d134032e757250,17/03/1954,2020-09-10_13h06.21.708,proactive3.1,2020.1.2,Win32,60,5f599a131af4471f3d752b7b,5f5a1698e2534b062cc71f93,3,,,,,,peg,,,,,,,,,,,3,0,0,52,52,23,1,,,,,,,,,,,,,,,,,,,,,,,,,,,,,,,,,,,,,,,,,,,,,,,,,,,,,,,,,,,,,,,,,,,,,,,,,,,,,,,,,,,,,,,,,,,,,,,,,,,,,,,,
,,?,0.00168,0,,,,,,stimuli/images/PICTURE_677.png,MILE,5f564265f9d134032e757250,17/03/1954,2020-09-10_13h06.21.708,proactive3.1,2020.1.2,Win32,60,5f599a131af4471f3d752b7b,5f5a1698e2534b062cc71f93,3,,,,,,map,,,,,,,,,,,4,0,0,53,53,30,1,,,,,,,,,,,,,,,,,,,,,,,,,,,,,,,,,,,,,,,,,,,,,,,,,,,,,,,,,,,,,,,,,,,,,,,,,,,,,,,,,,,,,,,,,,,,,,,,,,,,,,,,
,,?,0.0016,0,,,,,,stimuli/images/PICTURE_311.png,FRIEND,5f564265f9d134032e757250,17/03/1954,2020-09-10_13h06.21.708,proactive3.1,2020.1.2,Win32,60,5f599a131af4471f3d752b7b,5f5a1698e2534b062cc71f93,3,,,,,,razor,,,,,,,,,,,4,0,0,54,54,34,1,,,,,,,,,,,,,,,,,,,,,,,,,,,,,,,,,,,,,,,,,,,,,,,,,,,,,,,,,,,,,,,,,,,,,,,,,,,,,,,,,,,,,,,,,,,,,,,,,,,,,,,,
,,?,0.00151,0,,,,,,stimuli/images/PICTURE_487.png,FLIGHT,5f564265f9d134032e757250,17/03/1954,2020-09-10_13h06.21.708,proactive3.1,2020.1.2,Win32,60,5f599a131af4471f3d752b7b,5f5a1698e2534b062cc71f93,3,,,,,,basket,,,,,,,,,,,1,0,0,55,55,9,1,,,,,,,,,,,,,,,,,,,,,,,,,,,,,,,,,,,,,,,,,,,,,,,,,,,,,,,,,,,,,,,,,,,,,,,,,,,,,,,,,,,,,,,,,,,,,,,,,,,,,,,,
,,?,0.001985,0,,,,,,stimuli/images/PICTURE_488.png,STYLE,5f564265f9d134032e757250,17/03/1954,2020-09-10_13h06.21.708,proactive3.1,2020.1.2,Win32,60,5f599a131af4471f3d752b7b,5f5a1698e2534b062cc71f93,3,,,,,,sun,,,,,,,,,,,4,0,0,56,56,33,1,,,,,,,,,,,,,,,,,,,,,,,,,,,,,,,,,,,,,,,,,,,,,,,,,,,,,,,,,,,,,,,,,,,,,,,,,,,,,,,,,,,,,,,,,,,,,,,,,,,,,,,,
,,?,0.00158,0,,,,,,stimuli/images/PICTURE_177.png,CARS,5f564265f9d134032e757250,17/03/1954,2020-09-10_13h06.21.708,proactive3.1,2020.1.2,Win32,60,5f599a131af4471f3d752b7b,5f5a1698e2534b062cc71f93,3,,,,,,mushroom,,,,,,,,,,,4,0,0,57,57,35,1,,,,,,,,,,,,,,,,,,,,,,,,,,,,,,,,,,,,,,,,,,,,,,,,,,,,,,,,,,,,,,,,,,,,,,,,,,,,,,,,,,,,,,,,,,,,,,,,,,,,,,,,
,,?,0.001595,0,,,,,,stimuli/images/PICTURE_675.png,WEAPON,5f564265f9d134032e757250,17/03/1954,2020-09-10_13h06.21.708,proactive3.1,2020.1.2,Win32,60,5f599a131af4471f3d752b7b,5f5a1698e2534b062cc71f93,3,,,,,,windmill,,,,,,,,,,,4,0,0,58,58,32,1,,,,,,,,,,,,,,,,,,,,,,,,,,,,,,,,,,,,,,,,,,,,,,,,,,,,,,,,,,,,,,,,,,,,,,,,,,,,,,,,,,,,,,,,,,,,,,,,,,,,,,,,
,,?,0.001525,0,,,,,,stimuli/images/PICTURE_469.png,ARTIST,5f564265f9d134032e757250,17/03/1954,2020-09-10_13h06.21.708,proactive3.1,2020.1.2,Win32,60,5f599a131af4471f3d752b7b,5f5a1698e2534b062cc71f93,3,,,,,,stool,,,,,,,,,,,1,0,0,59,59,6,1,,,,,,,,,,,,,,,,,,,,,,,,,,,,,,,,,,,,,,,,,,,,,,,,,,,,,,,,,,,,,,,,,,,,,,,,,,,,,,,,,,,,,,,,,,,,,,,,,,,,,,,,
,,,,,,,,,,,,5f564265f9d134032e757250,17/03/1954,2020-09-10_13h06.21.708,proactive3.1,2020.1.2,Win32,60,5f599a131af4471f3d752b7b,5f5a1698e2534b062cc71f93,3,,,,,,,,,,,,,,,,,,,,,,,,0,1,1,0,1,stimuli/learn-block1.csv,,,,,,,,,,,,,,,,,,,,,,,,,,,,,,,,,,,,,,,,,,,,,,,,,,,,,,,,,,,,,,,,,,,,,,,,,,,,,,,,,,,,,,,,,,,,,,,,,,
,,,,,,,,,,stimuli/images/PICTURE_491.png,SERIES,5f564265f9d134032e757250,17/03/1954,2020-09-10_13h06.21.708,proactive3.1,2020.1.2,Win32,60,5f599a131af4471f3d752b7b,5f5a1698e2534b062cc71f93,3,,,,,,rug,,,,,,0,0,0,39,1,4,2,,,,,,,,,,,,,,,,,,,,,,,,,,,,,,,,,,,,,,,,,,,,,,,,,,,,,,,,,,,,,,,,,,,,,,,,,,,,,,,,,,,,,,,,,,,,,,,,,,,,,,,,,,,,,
,,,,,,,,,,stimuli/images/PICTURE_314.png,SPEECH,5f564265f9d134032e757250,17/03/1954,2020-09-10_13h06.21.708,proactive3.1,2020.1.2,Win32,60,5f599a131af4471f3d752b7b,5f5a1698e2534b062cc71f93,3,,,,,,perfume,,,,,,0,1,1,35,1,4,2,,,,,,,,,,,,,,,,,,,,,,,,,,,,,,,,,,,,,,,,,,,,,,,,,,,,,,,,,,,,,,,,,,,,,,,,,,,,,,,,,,,,,,,,,,,,,,,,,,,,,,,,,,,,,
,,,,,,,,,,stimuli/images/PICTURE_667.png,GLASS,5f564265f9d134032e757250,17/03/1954,2020-09-10_13h06.21.708,proactive3.1,2020.1.2,Win32,60,5f599a131af4471f3d752b7b,5f5a1698e2534b062cc71f93,3,,,,,,daisy,,,,,,0,2,2,27,1,3,2,,,,,,,,,,,,,,,,,,,,,,,,,,,,,,,,,,,,,,,,,,,,,,,,,,,,,,,,,,,,,,,,,,,,,,,,,,,,,,,,,,,,,,,,,,,,,,,,,,,,,,,,,,,,,
,,,,,,,,,,stimuli/images/PICTURE_285.png,PRINCE,5f564265f9d134032e757250,17/03/1954,2020-09-10_13h06.21.708,proactive3.1,2020.1.2,Win32,60,5f599a131af4471f3d752b7b,5f5a1698e2534b062cc71f93,3,,,,,,carrot,,,,,,0,3,3,20,1,3,2,,,,,,,,,,,,,,,,,,,,,,,,,,,,,,,,,,,,,,,,,,,,,,,,,,,,,,,,,,,,,,,,,,,,,,,,,,,,,,,,,,,,,,,,,,,,,,,,,,,,,,,,,,,,,
,,,,,,,,,,stimuli/images/PICTURE_504.png,HOUSE,5f564265f9d134032e757250,17/03/1954,2020-09-10_13h06.21.708,proactive3.1,2020.1.2,Win32,60,5f599a131af4471f3d752b7b,5f5a1698e2534b062cc71f93,3,,,,,,wheel,,,,,,0,4,4,36,1,4,2,,,,,,,,,,,,,,,,,,,,,,,,,,,,,,,,,,,,,,,,,,,,,,,,,,,,,,,,,,,,,,,,,,,,,,,,,,,,,,,,,,,,,,,,,,,,,,,,,,,,,,,,,,,,,
,,,,,,,,,,stimuli/images/PICTURE_255.png,PENNY,5f564265f9d134032e757250,17/03/1954,2020-09-10_13h06.21.708,proactive3.1,2020.1.2,Win32,60,5f599a131af4471f3d752b7b,5f5a1698e2534b062cc71f93,3,,,,,,shovel,,,,,,0,5,5,19,1,2,2,,,,,,,,,,,,,,,,,,,,,,,,,,,,,,,,,,,,,,,,,,,,,,,,,,,,,,,,,,,,,,,,,,,,,,,,,,,,,,,,,,,,,,,,,,,,,,,,,,,,,,,,,,,,,
,,,,,,,,,,stimuli/images/PICTURE_564.png,PLENTY,5f564265f9d134032e757250,17/03/1954,2020-09-10_13h06.21.708,proactive3.1,2020.1.2,Win32,60,5f599a131af4471f3d752b7b,5f5a1698e2534b062cc71f93,3,,,,,,spoon,,,,,,0,6,6,11,1,2,2,,,,,,,,,,,,,,,,,,,,,,,,,,,,,,,,,,,,,,,,,,,,,,,,,,,,,,,,,,,,,,,,,,,,,,,,,,,,,,,,,,,,,,,,,,,,,,,,,,,,,,,,,,,,,
,,,,,,,,,,stimuli/images/PICTURE_654.png,YEAR,5f564265f9d134032e757250,17/03/1954,2020-09-10_13h06.21.708,proactive3.1,2020.1.2,Win32,60,5f599a131af4471f3d752b7b,5f5a1698e2534b062cc71f93,3,,,,,,pencil,,,,,,0,7,7,41,1,5,2,,,,,,,,,,,,,,,,,,,,,,,,,,,,,,,,,,,,,,,,,,,,,,,,,,,,,,,,,,,,,,,,,,,,,,,,,,,,,,,,,,,,,,,,,,,,,,,,,,,,,,,,,,,,,
,,,,,,,,,,stimuli/images/PICTURE_33.png,COPS,5f564265f9d134032e757250,17/03/1954,2020-09-10_13h06.21.708,proactive3.1,2020.1.2,Win32,60,5f599a131af4471f3d752b7b,5f5a1698e2534b062cc71f93,3,,,,,,frame,,,,,,0,8,8,29,1,3,2,,,,,,,,,,,,,,,,,,,,,,,,,,,,,,,,,,,,,,,,,,,,,,,,,,,,,,,,,,,,,,,,,,,,,,,,,,,,,,,,,,,,,,,,,,,,,,,,,,,,,,,,,,,,,
,,,,,,,,,,stimuli/images/PICTURE_509.png,SHOTS,5f564265f9d134032e757250,17/03/1954,2020-09-10_13h06.21.708,proactive3.1,2020.1.2,Win32,60,5f599a131af4471f3d752b7b,5f5a1698e2534b062cc71f93,3,,,,,,telephone,,,,,,0,9,9,7,1,1,2,,,,,,,,,,,,,,,,,,,,,,,,,,,,,,,,,,,,,,,,,,,,,,,,,,,,,,,,,,,,,,,,,,,,,,,,,,,,,,,,,,,,,,,,,,,,,,,,,,,,,,,,,,,,,
,,,,,,,,,,stimuli/images/PICTURE_177.png,HOUSE,5f564265f9d134032e757250,17/03/1954,2020-09-10_13h06.21.708,proactive3.1,2020.1.2,Win32,60,5f599a131af4471f3d752b7b,5f5a1698e2534b062cc71f93,3,,,,,,mushroom,,,,,,0,10,10,25,1,3,2,,,,,,,,,,,,,,,,,,,,,,,,,,,,,,,,,,,,,,,,,,,,,,,,,,,,,,,,,,,,,,,,,,,,,,,,,,,,,,,,,,,,,,,,,,,,,,,,,,,,,,,,,,,,,
,,,,,,,,,,stimuli/images/PICTURE_147.png,LEADER,5f564265f9d134032e757250,17/03/1954,2020-09-10_13h06.21.708,proactive3.1,2020.1.2,Win32,60,5f599a131af4471f3d752b7b,5f5a1698e2534b062cc71f93,3,,,,,,hanger,,,,,,0,11,11,33,1,4,2,,,,,,,,,,,,,,,,,,,,,,,,,,,,,,,,,,,,,,,,,,,,,,,,,,,,,,,,,,,,,,,,,,,,,,,,,,,,,,,,,,,,,,,,,,,,,,,,,,,,,,,,,,,,,
,,,,,,,,,,stimuli/images/PICTURE_57.png,NATION,5f564265f9d134032e757250,17/03/1954,2020-09-10_13h06.21.708,proactive3.1,2020.1.2,Win32,60,5f599a131af4471f3d752b7b,5f5a1698e2534b062cc71f93,3,,,,,,stamp,,,,,,0,12,12,21,1,3,2,,,,,,,,,,,,,,,,,,,,,,,,,,,,,,,,,,,,,,,,,,,,,,,,,,,,,,,,,,,,,,,,,,,,,,,,,,,,,,,,,,,,,,,,,,,,,,,,,,,,,,,,,,,,,
,,,,,,,,,,stimuli/images/PICTURE_297.png,BODY,5f564265f9d134032e757250,17/03/1954,2020-09-10_13h06.21.708,proactive3.1,2020.1.2,Win32,60,5f599a131af4471f3d752b7b,5f5a1698e2534b062cc71f93,3,,,,,,aeroplane,,,,,,0,13,13,51,1,6,2,,,,,,,,,,,,,,,,,,,,,,,,,,,,,,,,,,,,,,,,,,,,,,,,,,,,,,,,,,,,,,,,,,,,,,,,,,,,,,,,,,,,,,,,,,,,,,,,,,,,,,,,,,,,,
,,,,,,,,,,stimuli/images/PICTURE_348.png,DUDE,5f564265f9d134032e757250,17/03/1954,2020-09-10_13h06.21.708,proactive3.1,2020.1.2,Win32,60,5f599a131af4471f3d752b7b,5f5a1698e2534b062cc71f93,3,,,,,,pepper,,,,,,0,14,14,59,1,6,2,,,,,,,,,,,,,,,,,,,,,,,,,,,,,,,,,,,,,,,,,,,,,,,,,,,,,,,,,,,,,,,,,,,,,,,,,,,,,,,,,,,,,,,,,,,,,,,,,,,,,,,,,,,,,
,,,,,,,,,,stimuli/images/PICTURE_487.png,ROOF,5f564265f9d134032e757250,17/03/1954,2020-09-10_13h06.21.708,proactive3.1,2020.1.2,Win32,60,5f599a131af4471f3d752b7b,5f5a1698e2534b062cc71f93,3,,,,,,basket,,,,,,0,15,15,50,1,6,2,,,,,,,,,,,,,,,,,,,,,,,,,,,,,,,,,,,,,,,,,,,,,,,,,,,,,,,,,,,,,,,,,,,,,,,,,,,,,,,,,,,,,,,,,,,,,,,,,,,,,,,,,,,,,
,,,,,,,,,,stimuli/images/PICTURE_708.png,VALLEY,5f564265f9d134032e757250,17/03/1954,2020-09-10_13h06.21.708,proactive3.1,2020.1.2,Win32,60,5f599a131af4471f3d752b7b,5f5a1698e2534b062cc71f93,3,,,,,,monkey,,,,,,0,16,16,45,1,5,2,,,,,,,,,,,,,,,,,,,,,,,,,,,,,,,,,,,,,,,,,,,,,,,,,,,,,,,,,,,,,,,,,,,,,,,,,,,,,,,,,,,,,,,,,,,,,,,,,,,,,,,,,,,,,
,,,,,,,,,,stimuli/images/PICTURE_32.png,LETTER,5f564265f9d134032e757250,17/03/1954,2020-09-10_13h06.21.708,proactive3.1,2020.1.2,Win32,60,5f599a131af4471f3d752b7b,5f5a1698e2534b062cc71f93,3,,,,,,crown,,,,,,0,17,17,56,1,6,2,,,,,,,,,,,,,,,,,,,,,,,,,,,,,,,,,,,,,,,,,,,,,,,,,,,,,,,,,,,,,,,,,,,,,,,,,,,,,,,,,,,,,,,,,,,,,,,,,,,,,,,,,,,,,
,,,,,,,,,,stimuli/images/PICTURE_95.png,NIGHT,5f564265f9d134032e757250,17/03/1954,2020-09-10_13h06.21.708,proactive3.1,2020.1.2,Win32,60,5f599a131af4471f3d752b7b,5f5a1698e2534b062cc71f93,3,,,,,,suitcase,,,,,,0,18,18,37,1,4,2,,,,,,,,,,,,,,,,,,,,,,,,,,,,,,,,,,,,,,,,,,,,,,,,,,,,,,,,,,,,,,,,,,,,,,,,,,,,,,,,,,,,,,,,,,,,,,,,,,,,,,,,,,,,,
,,,,,,,,,,stimuli/images/PICTURE_677.png,FAMILY,5f564265f9d134032e757250,17/03/1954,2020-09-10_13h06.21.708,proactive3.1,2020.1.2,Win32,60,5f599a131af4471f3d752b7b,5f5a1698e2534b062cc71f93,3,,,,,,map,,,,,,0,19,19,53,1,6,2,,,,,,,,,,,,,,,,,,,,,,,,,,,,,,,,,,,,,,,,,,,,,,,,,,,,,,,,,,,,,,,,,,,,,,,,,,,,,,,,,,,,,,,,,,,,,,,,,,,,,,,,,,,,,
,,,,,,,,,,stimuli/images/PICTURE_403.png,FAMILY,5f564265f9d134032e757250,17/03/1954,2020-09-10_13h06.21.708,proactive3.1,2020.1.2,Win32,60,5f599a131af4471f3d752b7b,5f5a1698e2534b062cc71f93,3,,,,,,cathedral,,,,,,0,20,20,9,1,1,2,,,,,,,,,,,,,,,,,,,,,,,,,,,,,,,,,,,,,,,,,,,,,,,,,,,,,,,,,,,,,,,,,,,,,,,,,,,,,,,,,,,,,,,,,,,,,,,,,,,,,,,,,,,,,
,,,,,,,,,,stimuli/images/PICTURE_18.png,RIVER,5f564265f9d134032e757250,17/03/1954,2020-09-10_13h06.21.708,proactive3.1,2020.1.2,Win32,60,5f599a131af4471f3d752b7b,5f5a1698e2534b062cc71f93,3,,,,,,planet,,,,,,0,21,21,22,1,3,2,,,,,,,,,,,,,,,,,,,,,,,,,,,,,,,,,,,,,,,,,,,,,,,,,,,,,,,,,,,,,,,,,,,,,,,,,,,,,,,,,,,,,,,,,,,,,,,,,,,,,,,,,,,,,
,,,,,,,,,,stimuli/images/PICTURE_655.png,SALE,5f564265f9d134032e757250,17/03/1954,2020-09-10_13h06.21.708,proactive3.1,2020.1.2,Win32,60,5f599a131af4471f3d752b7b,5f5a1698e2534b062cc71f93,3,,,,,,megaphone,,,,,,0,22,22,57,1,6,2,,,,,,,,,,,,,,,,,,,,,,,,,,,,,,,,,,,,,,,,,,,,,,,,,,,,,,,,,,,,,,,,,,,,,,,,,,,,,,,,,,,,,,,,,,,,,,,,,,,,,,,,,,,,,
,,,,,,,,,,stimuli/images/PICTURE_348.png,TOILET,5f564265f9d134032e757250,17/03/1954,2020-09-10_13h06.21.708,proactive3.1,2020.1.2,Win32,60,5f599a131af4471f3d752b7b,5f5a1698e2534b062cc71f93,3,,,,,,pepper,,,,,,0,23,23,4,1,1,2,,,,,,,,,,,,,,,,,,,,,,,,,,,,,,,,,,,,,,,,,,,,,,,,,,,,,,,,,,,,,,,,,,,,,,,,,,,,,,,,,,,,,,,,,,,,,,,,,,,,,,,,,,,,,
,,,,,,,,,,stimuli/images/PICTURE_509.png,APPLE,5f564265f9d134032e757250,17/03/1954,2020-09-10_13h06.21.708,proactive3.1,2020.1.2,Win32,60,5f599a131af4471f3d752b7b,5f5a1698e2534b062cc71f93,3,,,,,,telephone,,,,,,0,24,24,38,1,4,2,,,,,,,,,,,,,,,,,,,,,,,,,,,,,,,,,,,,,,,,,,,,,,,,,,,,,,,,,,,,,,,,,,,,,,,,,,,,,,,,,,,,,,,,,,,,,,,,,,,,,,,,,,,,,
,,,,,,,,,,stimuli/images/PICTURE_487.png,POLICY,5f564265f9d134032e757250,17/03/1954,2020-09-10_13h06.21.708,proactive3.1,2020.1.2,Win32,60,5f599a131af4471f3d752b7b,5f5a1698e2534b062cc71f93,3,,,,,,basket,,,,,,0,25,25,34,1,4,2,,,,,,,,,,,,,,,,,,,,,,,,,,,,,,,,,,,,,,,,,,,,,,,,,,,,,,,,,,,,,,,,,,,,,,,,,,,,,,,,,,,,,,,,,,,,,,,,,,,,,,,,,,,,,
,,,,,,,,,,stimuli/images/PICTURE_208.png,SPIRIT,5f564265f9d134032e757250,17/03/1954,2020-09-10_13h06.21.708,proactive3.1,2020.1.2,Win32,60,5f599a131af4471f3d752b7b,5f5a1698e2534b062cc71f93,3,,,,,,microphone,,,,,,0,26,26,28,1,3,2,,,,,,,,,,,,,,,,,,,,,,,,,,,,,,,,,,,,,,,,,,,,,,,,,,,,,,,,,,,,,,,,,,,,,,,,,,,,,,,,,,,,,,,,,,,,,,,,,,,,,,,,,,,,,
,,,,,,,,,,stimuli/images/PICTURE_93.png,GIRL,5f564265f9d134032e757250,17/03/1954,2020-09-10_13h06.21.708,proactive3.1,2020.1.2,Win32,60,5f599a131af4471f3d752b7b,5f5a1698e2534b062cc71f93,3,,,,,,skateboard,,,,,,0,27,27,31,1,4,2,,,,,,,,,,,,,,,,,,,,,,,,,,,,,,,,,,,,,,,,,,,,,,,,,,,,,,,,,,,,,,,,,,,,,,,,,,,,,,,,,,,,,,,,,,,,,,,,,,,,,,,,,,,,,
,,,,,,,,,,stimuli/images/PICTURE_215.png,BOYS,5f564265f9d134032e757250,17/03/1954,2020-09-10_13h06.21.708,proactive3.1,2020.1.2,Win32,60,5f599a131af4471f3d752b7b,5f5a1698e2534b062cc71f93,3,,,,,,boot,,,,,,0,28,28,24,1,3,2,,,,,,,,,,,,,,,,,,,,,,,,,,,,,,,,,,,,,,,,,,,,,,,,,,,,,,,,,,,,,,,,,,,,,,,,,,,,,,,,,,,,,,,,,,,,,,,,,,,,,,,,,,,,,
,,,,,,,,,,stimuli/images/PICTURE_356.png,CANDY,5f564265f9d134032e757250,17/03/1954,2020-09-10_13h06.21.708,proactive3.1,2020.1.2,Win32,60,5f599a131af4471f3d752b7b,5f5a1698e2534b062cc71f93,3,,,,,,pawn,,,,,,0,29,29,46,1,5,2,,,,,,,,,,,,,,,,,,,,,,,,,,,,,,,,,,,,,,,,,,,,,,,,,,,,,,,,,,,,,,,,,,,,,,,,,,,,,,,,,,,,,,,,,,,,,,,,,,,,,,,,,,,,,
,,,,,,,,,,stimuli/images/PICTURE_160.png,HOTEL,5f564265f9d134032e757250,17/03/1954,2020-09-10_13h06.21.708,proactive3.1,2020.1.2,Win32,60,5f599a131af4471f3d752b7b,5f5a1698e2534b062cc71f93,3,,,,,,wheelbarrow,,,,,,0,30,30,16,1,2,2,,,,,,,,,,,,,,,,,,,,,,,,,,,,,,,,,,,,,,,,,,,,,,,,,,,,,,,,,,,,,,,,,,,,,,,,,,,,,,,,,,,,,,,,,,,,,,,,,,,,,,,,,,,,,
,,,,,,,,,,stimuli/images/PICTURE_285.png,WRITER,5f564265f9d134032e757250,17/03/1954,2020-09-10_13h06.21.708,proactive3.1,2020.1.2,Win32,60,5f599a131af4471f3d752b7b,5f5a1698e2534b062cc71f93,3,,,,,,carrot,,,,,,0,31,31,6,1,1,2,,,,,,,,,,,,,,,,,,,,,,,,,,,,,,,,,,,,,,,,,,,,,,,,,,,,,,,,,,,,,,,,,,,,,,,,,,,,,,,,,,,,,,,,,,,,,,,,,,,,,,,,,,,,,
,,,,,,,,,,stimuli/images/PICTURE_2.png,JUNGLE,5f564265f9d134032e757250,17/03/1954,2020-09-10_13h06.21.708,proactive3.1,2020.1.2,Win32,60,5f599a131af4471f3d752b7b,5f5a1698e2534b062cc71f93,3,,,,,,tyre,,,,,,0,32,32,1,1,1,2,,,,,,,,,,,,,,,,,,,,,,,,,,,,,,,,,,,,,,,,,,,,,,,,,,,,,,,,,,,,,,,,,,,,,,,,,,,,,,,,,,,,,,,,,,,,,,,,,,,,,,,,,,,,,
,,,,,,,,,,stimuli/images/PICTURE_509.png,BATH,5f564265f9d134032e757250,17/03/1954,2020-09-10_13h06.21.708,proactive3.1,2020.1.2,Win32,60,5f599a131af4471f3d752b7b,5f5a1698e2534b062cc71f93,3,,,,,,telephone,,,,,,0,33,33,15,1,2,2,,,,,,,,,,,,,,,,,,,,,,,,,,,,,,,,,,,,,,,,,,,,,,,,,,,,,,,,,,,,,,,,,,,,,,,,,,,,,,,,,,,,,,,,,,,,,,,,,,,,,,,,,,,,,
,,,,,,,,,,stimuli/images/PICTURE_215.png,FOOD,5f564265f9d134032e757250,17/03/1954,2020-09-10_13h06.21.708,proactive3.1,2020.1.2,Win32,60,5f599a131af4471f3d752b7b,5f5a1698e2534b062cc71f93,3,,,,,,boot,,,,,,0,34,34,5,1,1,2,,,,,,,,,,,,,,,,,,,,,,,,,,,,,,,,,,,,,,,,,,,,,,,,,,,,,,,,,,,,,,,,,,,,,,,,,,,,,,,,,,,,,,,,,,,,,,,,,,,,,,,,,,,,,
,,,,,,,,,,stimuli/images/PICTURE_296.png,CLOCK,5f564265f9d134032e757250,17/03/1954,2020-09-10_13h06.21.708,proactive3.1,2020.1.2,Win32,60,5f599a131af4471f3d752b7b,5f5a1698e2534b062cc71f93,3,,,,,,bolt,,,,,,0,35,35,18,1,2,2,,,,,,,,,,,,,,,,,,,,,,,,,,,,,,,,,,,,,,,,,,,,,,,,,,,,,,,,,,,,,,,,,,,,,,,,,,,,,,,,,,,,,,,,,,,,,,,,,,,,,,,,,,,,,
,,,,,,,,,,stimuli/images/PICTURE_470.png,BEAUTY,5f564265f9d134032e757250,17/03/1954,2020-09-10_13h06.21.708,proactive3.1,2020.1.2,Win32,60,5f599a131af4471f3d752b7b,5f5a1698e2534b062cc71f93,3,,,,,,motorbike,,,,,,0,36,36,26,1,3,2,,,,,,,,,,,,,,,,,,,,,,,,,,,,,,,,,,,,,,,,,,,,,,,,,,,,,,,,,,,,,,,,,,,,,,,,,,,,,,,,,,,,,,,,,,,,,,,,,,,,,,,,,,,,,
,,,,,,,,,,stimuli/images/PICTURE_123.png,SALE,5f564265f9d134032e757250,17/03/1954,2020-09-10_13h06.21.708,proactive3.1,2020.1.2,Win32,60,5f599a131af4471f3d752b7b,5f5a1698e2534b062cc71f93,3,,,,,,dart,,,,,,0,37,37,8,1,1,2,,,,,,,,,,,,,,,,,,,,,,,,,,,,,,,,,,,,,,,,,,,,,,,,,,,,,,,,,,,,,,,,,,,,,,,,,,,,,,,,,,,,,,,,,,,,,,,,,,,,,,,,,,,,,
,,,,,,,,,,stimuli/images/PICTURE_311.png,TOILET,5f564265f9d134032e757250,17/03/1954,2020-09-10_13h06.21.708,proactive3.1,2020.1.2,Win32,60,5f599a131af4471f3d752b7b,5f5a1698e2534b062cc71f93,3,,,,,,razor,,,,,,0,38,38,54,1,6,2,,,,,,,,,,,,,,,,,,,,,,,,,,,,,,,,,,,,,,,,,,,,,,,,,,,,,,,,,,,,,,,,,,,,,,,,,,,,,,,,,,,,,,,,,,,,,,,,,,,,,,,,,,,,,
