"participant","group","trial_no","time","recalled","word","recall_acc","recall_rt","study_pos","test_pos","image","item_type","id"
"571de12713b1b70012be47f6","older",1,1,"VALLEY","VALLEY",TRUE,2.59,1,1,"bench","new-new",1057
"571de12713b1b70012be47f6","older",1,2,"IDEA","IDEAS",FALSE,2.088,2,2,"mirror","new-new",1057
"571de12713b1b70012be47f6","older",1,3,"LETTER","LETTER",TRUE,4.074,3,3,"coin","new-new",1057
"571de12713b1b70012be47f6","older",1,4,"LOTS","LOTS",TRUE,1.418,0,4,"stool","new-new",1057
"571de12713b1b70012be47f6","older",2,1,"BEAUTY","BEAUTY",TRUE,3.369,3,1,"peg","new-new",1058
"571de12713b1b70012be47f6","older",2,2,"CLOCK","CLOCK",TRUE,2.035,2,2,"helmet","new-new",1058
"571de12713b1b70012be47f6","older",2,3,"HOTEL","HOTEL",TRUE,1.787,1,3,"pepper","new-new",1058
"571de12713b1b70012be47f6","older",2,4,"AGENT","AGENT",TRUE,2.321,0,4,"balcony","new-new",1058
"571de12713b1b70012be47f6","older",3,1,"GLASS","GLASS",TRUE,2.637,3,1,"tractor","new-new",1059
"571de12713b1b70012be47f6","older",3,2,"YARD","YARD",TRUE,1.953,1,2,"goose","new-new",1059
"571de12713b1b70012be47f6","older",3,3,"BOYS","BOYS",TRUE,1.867,0,3,"daisy","new-new",1059
"571de12713b1b70012be47f6","older",3,4,"NATION","NATION",TRUE,1.952,2,4,"planet","new-new",1059
"571de12713b1b70012be47f6","older",4,1,"SPIRIT","SPIRIT",TRUE,2.454,0,1,"ring","new-new",1060
"571de12713b1b70012be47f6","older",4,2,"STYLE","STYLE",TRUE,2.185,3,2,"telephone","mis-match",1060
"571de12713b1b70012be47f6","older",4,3,"MILE","MILE",TRUE,1.469,1,3,"map","match",1060
"571de12713b1b70012be47f6","older",4,4,"BELT","BELT",TRUE,2.585,2,4,"boot","old-new",1060
"571de12713b1b70012be47f6","older",5,1,"PENNY","PENNY",TRUE,2.07,2,1,"monkey","match",1061
"571de12713b1b70012be47f6","older",5,2,"WEAPON","WEAPON",TRUE,2.921,0,2,"wheel","mis-match",1061
"571de12713b1b70012be47f6","older",5,3,"BODY","BODY",TRUE,2.87,3,3,"pencil","new-new",1061
"571de12713b1b70012be47f6","older",5,4,"MILLER","MILLER",TRUE,1.653,1,4,"cap","old-new",1061
"571de12713b1b70012be47f6","older",6,1,"JUNGLE","JUNGLE",TRUE,2.468,3,1,"cherry","new-new",1062
"571de12713b1b70012be47f6","older",6,2,"FOOD","FOOD",TRUE,2.055,2,2,"watch","new-new",1062
"571de12713b1b70012be47f6","older",6,3,"RECORD","RECORD",TRUE,1.855,0,3,"runner","new-new",1062
"571de12713b1b70012be47f6","older",6,4,"DANGER","DANGER",TRUE,1.969,1,4,"tray","new-new",1062
"571de12713b1b70012be47f6","older",7,1,"DEATH","DEATH",TRUE,2.718,2,1,"gorilla","new-new",1063
"571de12713b1b70012be47f6","older",7,2,"FEET","FEET",TRUE,2.887,1,2,"kettle","new-new",1063
"571de12713b1b70012be47f6","older",7,3,"SHOTS","SHOTS",TRUE,2.003,0,3,"backpack","new-new",1063
"571de12713b1b70012be47f6","older",7,4,"ARTIST","ARTIST",TRUE,1.67,3,4,"frame","new-new",1063
"571de12713b1b70012be47f6","older",8,1,"MONTH","MONTH",TRUE,1.752,2,1,"calendar","new-new",1064
"571de12713b1b70012be47f6","older",8,2,"CASINO","CASINO",TRUE,1.819,0,2,"motorbike","match",1064
"571de12713b1b70012be47f6","older",8,3,"POLICY","POLICY",TRUE,2.053,3,3,"candle","mis-match",1064
"571de12713b1b70012be47f6","older",8,4,"PILLS","PILLS",TRUE,2.725,1,4,"sunflower","old-new",1064
"571de12713b1b70012be47f6","older",9,1,"WRITER","WRITER",TRUE,1.718,1,1,"cathedral","match",1065
"571de12713b1b70012be47f6","older",9,2,"HOUSE","HOUSE",TRUE,1.738,2,2,"microphone","mis-match",1065
"571de12713b1b70012be47f6","older",9,3,"TOILET","TOILET",TRUE,5.34,0,3,"mushroom","old-new",1065
"571de12713b1b70012be47f6","older",9,4,"FLESH","FLESH",TRUE,1.869,3,4,"shovel","new-new",1065
"571de12713b1b70012be47f6","older",10,1,"DEMON","DEMON",TRUE,2.103,2,1,"pawn","new-new",1066
"571de12713b1b70012be47f6","older",10,2,"SERIES","SERIES",TRUE,1.551,3,2,"rug","match",1066
"571de12713b1b70012be47f6","older",10,3,"BATH","BATH",TRUE,1.533,0,3,"anchor","old-new",1066
"571de12713b1b70012be47f6","older",10,4,"NIGHT","NIGHT",TRUE,2.454,1,4,"tyre","mis-match",1066
"571de12713b1b70012be47f6","older",11,1,"DUDE","DUDE",TRUE,1.685,0,1,"skateboard","old-new",1067
"571de12713b1b70012be47f6","older",11,2,"HONEY","HONEY",TRUE,1.57,1,2,"wheelbarrow","new-new",1067
"571de12713b1b70012be47f6","older",11,3,"APPLE","APPLE",TRUE,2.27,3,3,"windmill","mis-match",1067
"571de12713b1b70012be47f6","older",11,4,"MOMENT","MOMENT",TRUE,1.8,2,4,"stamp","match",1067
"571de12713b1b70012be47f6","older",12,1,"WOMEN","WOMEN",TRUE,1.85,1,1,"salt","match",1068
"571de12713b1b70012be47f6","older",12,2,"TEAR","TEAR",TRUE,1.419,2,2,"pear","new-new",1068
"571de12713b1b70012be47f6","older",12,3,"AREA","AREA",TRUE,1.535,0,3,"aeroplane","mis-match",1068
"571de12713b1b70012be47f6","older",12,4,"THING","THING",TRUE,1.67,3,4,"crown","old-new",1068
"571de12713b1b70012be47f6","older",13,1,"FAMILY","FAMILY",TRUE,2.07,3,1,"dice","match",1069
"571de12713b1b70012be47f6","older",13,2,"COPS","COPS",TRUE,2.356,0,2,"hanger","old-new",1069
"571de12713b1b70012be47f6","older",13,3,"ROOF","ROOF",TRUE,1.886,2,3,"suitcase","mis-match",1069
"571de12713b1b70012be47f6","older",13,4,"ESTATE","ESTATE",TRUE,1.721,1,4,"diamond","new-new",1069
"571de12713b1b70012be47f6","older",14,1,"SYSTEM","SYSTEM",TRUE,2.388,1,1,"basket","mis-match",1070
"571de12713b1b70012be47f6","older",14,2,"DOZEN","DOZEN",TRUE,2.202,0,2,"cart","match",1070
"571de12713b1b70012be47f6","older",14,3,"PHOTO","PHOTO",TRUE,1.652,2,3,"dart","new-new",1070
"571de12713b1b70012be47f6","older",14,4,"ADVICE","ADVICE",TRUE,2.07,3,4,"razor","old-new",1070
"571de12713b1b70012be47f6","older",15,1,"SALE","SALE",TRUE,2.803,1,1,"megaphone","new-new",1071
"571de12713b1b70012be47f6","older",15,2,"CANDY","CANDY",TRUE,1.851,0,2,"taxi","new-new",1071
"571de12713b1b70012be47f6","older",15,3,"DIRT","DIRT",TRUE,1.784,2,3,"scissors","new-new",1071
"571de12713b1b70012be47f6","older",15,4,"FLIGHT","FLIGHT",TRUE,2.105,3,4,"bolt","new-new",1071
"571de12713b1b70012be47f6","older",16,1,"LIFE","LIFE",TRUE,2.085,0,1,"carrot","match",1072
"571de12713b1b70012be47f6","older",16,2,"SAKE","SAKE",TRUE,2.135,2,2,"spoon","new-new",1072
"571de12713b1b70012be47f6","older",16,3,"RIVER","RIVER",TRUE,3.506,1,3,"sun","mis-match",1072
"571de12713b1b70012be47f6","older",16,4,"PRINCE","PRINCE",TRUE,1.702,3,4,"perfume","old-new",1072
"5757ffc116d587000824703f","older",1,1,"JUNG","JUNGLE",FALSE,9.98813,0,1,"salt","mis-match",1089
"5757ffc116d587000824703f","older",1,2,"BODY","HONEY",FALSE,8.755095,3,2,"suitcase","match",1089
"5757ffc116d587000824703f","older",1,3,"LIFE","LIFE",TRUE,3.89435,1,3,"carrot","new-new",1089
"5757ffc116d587000824703f","older",1,4,"BODY","BODY",TRUE,9.7495,2,4,"gorilla","old-new",1089
"5757ffc116d587000824703f","older",2,1,"ROOF","COPS",FALSE,6.2791,1,1,"tractor","new-new",1090
"5757ffc116d587000824703f","older",2,2,"LIFE","ROOF",FALSE,3.752125,0,2,"megaphone","new-new",1090
"5757ffc116d587000824703f","older",2,3,"COPS","GODS",FALSE,5.03482,3,3,"bench","new-new",1090
"5757ffc116d587000824703f","older",2,4,"BOYS","BOYS",TRUE,4.76794,2,4,"razor","new-new",1090
"5757ffc116d587000824703f","older",3,1,"CANDY","NATION",FALSE,6.18659,2,1,"tyre","new-new",1091
"5757ffc116d587000824703f","older",3,2,"AREA","WRITER",FALSE,6.031715,3,2,"dice","mis-match",1091
"5757ffc116d587000824703f","older",3,3,"BATH","AREA",FALSE,3.96144,1,3,"helmet","old-new",1091
"5757ffc116d587000824703f","older",3,4,"CANDY","CANDY",TRUE,6.720615,0,4,"pawn","match",1091
"5757ffc116d587000824703f","older",4,1,"AGENT","AGENT",TRUE,5.551185,0,1,"watch","new-new",1092
"5757ffc116d587000824703f","older",4,2,"WOMEN","CASINO",FALSE,5.34368,3,2,"pepper","new-new",1092
"5757ffc116d587000824703f","older",4,3,"BATH","YARD",FALSE,4.32043,2,3,"wheelbarrow","new-new",1092
"5757ffc116d587000824703f","older",4,4,"CASINO","WOMEN",FALSE,5.286035,1,4,"stamp","new-new",1092
"5757ffc116d587000824703f","older",5,1,"SPIRIT","PENNY",FALSE,6.3885,3,1,"tray","new-new",1093
"5757ffc116d587000824703f","older",5,2,"LEAF","FEET",FALSE,5.252855,1,2,"cart","new-new",1093
"5757ffc116d587000824703f","older",5,3,"WRITER","MONTH",FALSE,9.168065,2,3,"backpack","new-new",1093
"5757ffc116d587000824703f","older",5,4,"?","SPIRIT",FALSE,6.644355,0,4,"sunflower","new-new",1093
"5757ffc116d587000824703f","older",6,1,"PLENTY","POLICY",FALSE,6.69148,1,1,"boot","mis-match",1094
"5757ffc116d587000824703f","older",6,2,"POLICY","BELT",FALSE,4.247375,3,2,"peg","new-new",1094
"5757ffc116d587000824703f","older",6,3,"BIRTH","PLENTY",FALSE,4.558425,0,3,"daisy","match",1094
"5757ffc116d587000824703f","older",6,4,"PILLS","PILLS",TRUE,4.22447,2,4,"map","old-new",1094
"5757ffc116d587000824703f","older",7,1,"RECORD","SAKE",FALSE,4.69836,1,1,"anchor","new-new",1095
"5757ffc116d587000824703f","older",7,2,"SAKE","DIRT",FALSE,6.872285,3,2,"hanger","new-new",1095
"5757ffc116d587000824703f","older",7,3,"PRINCE","RECORD",FALSE,9.990375,0,3,"frame","new-new",1095
"5757ffc116d587000824703f","older",7,4,"DIRT","PRINCE",FALSE,4.80246,2,4,"cap","new-new",1095
"5757ffc116d587000824703f","older",8,1,"STYLE","HOTEL",FALSE,4.83437,2,1,"skateboard","new-new",1096
"5757ffc116d587000824703f","older",8,2,"FOOD","DOZEN",FALSE,3.217975,3,2,"balcony","new-new",1096
"5757ffc116d587000824703f","older",8,3,"HOTEL","FOOD",FALSE,7.587565,1,3,"rug","new-new",1096
"5757ffc116d587000824703f","older",8,4,"DOZEN","STYLE",FALSE,5.76896,0,4,"aeroplane","new-new",1096
"5757ffc116d587000824703f","older",9,1,"WEAPON","LETTER",FALSE,7.21882,1,1,"stool","match",1097
"5757ffc116d587000824703f","older",9,2,"LETTER","LEADER",FALSE,3.717285,3,2,"crown","mis-match",1097
"5757ffc116d587000824703f","older",9,3,"SHOTS","SHOTS",TRUE,7.204635,2,3,"windmill","old-new",1097
"5757ffc116d587000824703f","older",9,4,"LEADER","WEAPON",FALSE,4.55168,0,4,"perfume","new-new",1097
"5757ffc116d587000824703f","older",10,1,"NIGHT","TOILET",FALSE,3.589835,2,1,"diamond","match",1098
"5757ffc116d587000824703f","older",10,2,"TYRES","NIGHT",FALSE,4.50201,0,2,"goose","new-new",1098
"5757ffc116d587000824703f","older",10,3,"CLOCK","CLOCK",TRUE,7.574335,3,3,"pencil","mis-match",1098
"5757ffc116d587000824703f","older",10,4,"THING","CARS",FALSE,5.420865,1,4,"microphone","old-new",1098
"5757ffc116d587000824703f","older",11,1,"GLASS","IDEAS",FALSE,4.165105,3,1,"sun","new-new",1099
"5757ffc116d587000824703f","older",11,2,"SERIES","GLASS",FALSE,3.884325,0,2,"dart","old-new",1099
"5757ffc116d587000824703f","older",11,3,"ESTATE","SERIES",FALSE,3.702045,1,3,"coin","match",1099
"5757ffc116d587000824703f","older",11,4,"IDEAS","ESTATE",FALSE,3.82007,2,4,"runner","mis-match",1099
"5757ffc116d587000824703f","older",12,1,"BATH","BATH",TRUE,3.54017,0,1,"taxi","new-new",1100
"5757ffc116d587000824703f","older",12,2,"TEAR","SPEECH",FALSE,3.35021,3,2,"spoon","new-new",1100
"5757ffc116d587000824703f","older",12,3,"ATTEND","TEAR",FALSE,6.40776,1,3,"calendar","new-new",1100
"5757ffc116d587000824703f","older",12,4,"SPEECH","FRIEND",FALSE,6.20729,2,4,"planet","new-new",1100
"5757ffc116d587000824703f","older",13,1,"HOUSE","PHOTO",FALSE,6.52313,1,1,"candle","old-new",1101
"5757ffc116d587000824703f","older",13,2,"PHOTO","LOTS",FALSE,4.142625,3,2,"cathedral","mis-match",1101
"5757ffc116d587000824703f","older",13,3,"SYSTEM","SYSTEM",TRUE,4.881955,2,3,"ring","match",1101
"5757ffc116d587000824703f","older",13,4,"LOTS","HOUSE",FALSE,2.936615,0,4,"mirror","new-new",1101
"5757ffc116d587000824703f","older",14,1,"CLIENT","DEMON",FALSE,4.707365,1,1,"bolt","new-new",1102
"5757ffc116d587000824703f","older",14,2,"DEMON","CLIENT",FALSE,4.238715,0,2,"telephone","old-new",1102
"5757ffc116d587000824703f","older",14,3,"RIVER","RIVER",TRUE,4.24548,3,3,"motorbike","mis-match",1102
"5757ffc116d587000824703f","older",14,4,"GIRL","GIRL",TRUE,3.725325,2,4,"basket","match",1102
"5757ffc116d587000824703f","older",15,1,"CLIENT","MOMENT",FALSE,6.30487,3,1,"mushroom","mis-match",1103
"5757ffc116d587000824703f","older",15,2,"VALLEY","KIND",FALSE,8.27583,0,2,"monkey","old-new",1103
"5757ffc116d587000824703f","older",15,3,"FAMILY","FAMILY",TRUE,4.47102,2,3,"scissors","match",1103
"5757ffc116d587000824703f","older",15,4,"FLESH","FLESH",TRUE,7.47709,1,4,"pear","new-new",1103
"5757ffc116d587000824703f","older",16,1,"YEAR","FLIGHT",FALSE,6.18932,1,1,"shovel","new-new",1104
"5757ffc116d587000824703f","older",16,2,"ARTIST","ARTIST",TRUE,6.08993,3,2,"wheel","match",1104
"5757ffc116d587000824703f","older",16,3,"FLIGHT","DANGER",FALSE,8.837545,2,3,"cherry","old-new",1104
"5757ffc116d587000824703f","older",16,4,"SYSTEM","YEAR",FALSE,5.323775,0,4,"kettle","mis-match",1104
"576144e5eaf3f80007481fce","older",1,1,"CLIENT","CLIENT",TRUE,3.798,0,1,"telephone","old-new",1137
"576144e5eaf3f80007481fce","older",1,2,"GIRL","GIRL",TRUE,3.1,2,2,"basket","match",1137
"576144e5eaf3f80007481fce","older",1,3,"RIVER","RIVER",TRUE,3.066,3,3,"motorbike","mis-match",1137
"576144e5eaf3f80007481fce","older",1,4,"DEMON","DEMON",TRUE,2.6,1,4,"bolt","new-new",1137
"576144e5eaf3f80007481fce","older",2,1,"POLICY","POLICY",TRUE,3.931,1,1,"boot","mis-match",1138
"576144e5eaf3f80007481fce","older",2,2,"PLENTY","PLENTY",TRUE,3.299,0,2,"daisy","match",1138
"576144e5eaf3f80007481fce","older",2,3,"PILLS","PILLS",TRUE,3.149,2,3,"map","old-new",1138
"576144e5eaf3f80007481fce","older",2,4,"BELT","BELT",TRUE,2.316,3,4,"peg","new-new",1138
"576144e5eaf3f80007481fce","older",3,1,"SHOTS","SHOTS",TRUE,5.915,2,1,"windmill","old-new",1139
"576144e5eaf3f80007481fce","older",3,2,"LEADER","LEADER",TRUE,2.765,3,2,"crown","mis-match",1139
"576144e5eaf3f80007481fce","older",3,3,"WEAPON","WEAPON",TRUE,3.267,0,3,"perfume","new-new",1139
"576144e5eaf3f80007481fce","older",3,4,"LETTER","LETTER",TRUE,2.583,1,4,"stool","match",1139
"576144e5eaf3f80007481fce","older",4,1,"ESTATE","ESTATE",TRUE,3.632,2,1,"runner","mis-match",1140
"576144e5eaf3f80007481fce","older",4,2,"SERIES","SERIES",TRUE,2.632,1,2,"coin","match",1140
"576144e5eaf3f80007481fce","older",4,3,"IDEAS","IDEAS",TRUE,2.816,3,3,"sun","new-new",1140
"576144e5eaf3f80007481fce","older",4,4,"GLASS","GLASS",TRUE,2.5,0,4,"dart","old-new",1140
"576144e5eaf3f80007481fce","older",5,1,"BOYS","BOYS",TRUE,3.898,2,1,"razor","new-new",1141
"576144e5eaf3f80007481fce","older",5,2,"COPS","COPS",TRUE,2.883,1,2,"tractor","new-new",1141
"576144e5eaf3f80007481fce","older",5,3,"GODS","GODS",TRUE,3,3,3,"bench","new-new",1141
"576144e5eaf3f80007481fce","older",5,4,"ROOF","ROOF",TRUE,2.099,0,4,"megaphone","new-new",1141
"576144e5eaf3f80007481fce","older",6,1,"DOZEN","DOZEN",TRUE,4.583,3,1,"balcony","new-new",1142
"576144e5eaf3f80007481fce","older",6,2,"FOOD","FOOD",TRUE,2.966,1,2,"rug","new-new",1142
"576144e5eaf3f80007481fce","older",6,3,"HOTEL","HOTEL",TRUE,3.467,2,3,"skateboard","new-new",1142
"576144e5eaf3f80007481fce","older",6,4,"STYLE","STYLE",TRUE,2.783,0,4,"aeroplane","new-new",1142
"576144e5eaf3f80007481fce","older",7,1,"AREA","AREA",TRUE,2.998,1,1,"helmet","old-new",1143
"576144e5eaf3f80007481fce","older",7,2,"WRITER","WRITER",TRUE,3,3,2,"dice","mis-match",1143
"576144e5eaf3f80007481fce","older",7,3,"CANDY","CANDY",TRUE,3.05,0,3,"pawn","match",1143
"576144e5eaf3f80007481fce","older",7,4,"NATION","NATION",TRUE,3.266,2,4,"tyre","new-new",1143
"576144e5eaf3f80007481fce","older",8,1,"MONTH","MONTH",TRUE,3.365,2,1,"backpack","new-new",1144
"576144e5eaf3f80007481fce","older",8,2,"FEET","FEET",TRUE,2.599,1,2,"cart","new-new",1144
"576144e5eaf3f80007481fce","older",8,3,"PENNY","PENNY",TRUE,2.901,3,3,"tray","new-new",1144
"576144e5eaf3f80007481fce","older",8,4,"SPIRIT","SPIRIT",TRUE,4.284,0,4,"sunflower","new-new",1144
"576144e5eaf3f80007481fce","older",9,1,"BODY","BODY",TRUE,3.964,2,1,"gorilla","old-new",1145
"576144e5eaf3f80007481fce","older",9,2,"LIFE","LIFE",TRUE,3.233,1,2,"carrot","new-new",1145
"576144e5eaf3f80007481fce","older",9,3,"JUNGLE","JUNGLE",TRUE,3.482,0,3,"salt","mis-match",1145
"576144e5eaf3f80007481fce","older",9,4,"HONEY","HONEY",TRUE,2.717,3,4,"suitcase","match",1145
"576144e5eaf3f80007481fce","older",10,1,"MOMENT","MOMENT",TRUE,3.699,3,1,"mushroom","mis-match",1146
"576144e5eaf3f80007481fce","older",10,2,"KIND","KIND",TRUE,3.616,0,2,"monkey","old-new",1146
"576144e5eaf3f80007481fce","older",10,3,"FLESH","FLESH",TRUE,3.483,1,3,"pear","new-new",1146
"576144e5eaf3f80007481fce","older",10,4,"FAMILY","FAMILY",TRUE,4.05,2,4,"scissors","match",1146
"576144e5eaf3f80007481fce","older",11,1,"WOMEN","WOMEN",TRUE,3.682,1,1,"stamp","new-new",1147
"576144e5eaf3f80007481fce","older",11,2,"AGENT","AGENT",TRUE,4.716,0,2,"watch","new-new",1147
"576144e5eaf3f80007481fce","older",11,3,"CASINO","CASINO",TRUE,3.416,3,3,"pepper","new-new",1147
"576144e5eaf3f80007481fce","older",11,4,"YEARD","YARD",FALSE,2.399,2,4,"wheelbarrow","new-new",1147
"576144e5eaf3f80007481fce","older",12,1,"DIRT","DIRT",TRUE,3.632,3,1,"hanger","new-new",1148
"576144e5eaf3f80007481fce","older",12,2,"SAKE","SAKE",TRUE,2.632,1,2,"anchor","new-new",1148
"576144e5eaf3f80007481fce","older",12,3,"PRINCE","PRINCE",TRUE,3.149,2,3,"cap","new-new",1148
"576144e5eaf3f80007481fce","older",12,4,"RECORD","RECORD",TRUE,2.883,0,4,"frame","new-new",1148
"576144e5eaf3f80007481fce","older",13,1,"LOTS","LOTS",TRUE,2.448,3,1,"cathedral","mis-match",1149
"576144e5eaf3f80007481fce","older",13,2,"PHOTO","PHOTO",TRUE,3.632,1,2,"candle","old-new",1149
"576144e5eaf3f80007481fce","older",13,3,"SYSTEM","SYSTEM",TRUE,3.149,2,3,"ring","match",1149
"576144e5eaf3f80007481fce","older",13,4,"HOUSE","HOUSE",TRUE,2.949,0,4,"mirror","new-new",1149
"576144e5eaf3f80007481fce","older",14,1,"CLOCK","CLOCK",TRUE,2.848,3,1,"pencil","mis-match",1150
"576144e5eaf3f80007481fce","older",14,2,"CARS","CARS",TRUE,3.5,1,2,"microphone","old-new",1150
"576144e5eaf3f80007481fce","older",14,3,"NIGHT","NIGHT",TRUE,4.933,0,3,"goose","new-new",1150
"576144e5eaf3f80007481fce","older",14,4,"TOILET","TOILET",TRUE,3.6,2,4,"diamond","match",1150
"576144e5eaf3f80007481fce","older",15,1,"BATH","BATH",TRUE,2.966,0,1,"taxi","new-new",1151
"576144e5eaf3f80007481fce","older",15,2,"FRIEND","FRIEND",TRUE,3.083,2,2,"planet","new-new",1151
"576144e5eaf3f80007481fce","older",15,3,"SPEECH","SPEECH",TRUE,2.983,3,3,"spoon","new-new",1151
"576144e5eaf3f80007481fce","older",15,4,"TEAR","TEAR",TRUE,2.45,1,4,"calendar","new-new",1151
"576144e5eaf3f80007481fce","older",16,1,"YEAR","ARTIST",FALSE,2.999,3,1,"wheel","match",1152
"576144e5eaf3f80007481fce","older",16,2,"FLIGHT","FLIGHT",TRUE,2.967,1,2,"shovel","new-new",1152
"576144e5eaf3f80007481fce","older",16,3,"DANGER","DANGER",TRUE,3.283,2,3,"cherry","old-new",1152
"576144e5eaf3f80007481fce","older",16,4,"ARTIST","YEAR",FALSE,6.433,0,4,"kettle","mis-match",1152
"57c0b4480a58f600011a2264","younger",1,1,"PENNY","PENNY",TRUE,2.881,3,1,"microphone","old-new",209
"57c0b4480a58f600011a2264","younger",1,2,"MILE","MILE",TRUE,2.398,0,2,"anchor","mis-match",209
"57c0b4480a58f600011a2264","younger",1,3,"HONEY","HONEY",TRUE,3.132,1,3,"cherry","new-new",209
"57c0b4480a58f600011a2264","younger",1,4,"COPS","COPS",TRUE,1.633,2,4,"wheel","match",209
"57c0b4480a58f600011a2264","younger",2,1,"STYLE","STYLE",TRUE,3.232,0,1,"boot","new-new",210
"57c0b4480a58f600011a2264","younger",2,2,"SAKE","SAKE",TRUE,2.049,1,2,"aeroplane","old-new",210
"57c0b4480a58f600011a2264","younger",2,3,"YARD","YARD",TRUE,2.349,2,3,"tyre","match",210
"57c0b4480a58f600011a2264","younger",2,4,"SALE","SALE",TRUE,1.866,3,4,"map","mis-match",210
"57c0b4480a58f600011a2264","younger",3,1,"DUDE","DUDE",TRUE,2.215,2,1,"pepper","match",211
"57c0b4480a58f600011a2264","younger",3,2,"FLESH","FLESH",TRUE,4.116,1,2,"balcony","new-new",211
"57c0b4480a58f600011a2264","younger",3,3,"PLENTY","PLENTY",TRUE,3.066,0,3,"monkey","mis-match",211
"57c0b4480a58f600011a2264","younger",3,4,"PILLS","PILLS",TRUE,1.765,3,4,"hanger","old-new",211
"57c0b4480a58f600011a2264","younger",4,1,"SHOTS","SHOTS",TRUE,7.447,1,1,"bolt","old-new",212
"57c0b4480a58f600011a2264","younger",4,2,"KIND","KIND",TRUE,2.399,2,2,"dice","match",212
"57c0b4480a58f600011a2264","younger",4,3,"APPLE","APPLE",TRUE,3.466,0,3,"kettle","new-new",212
"57c0b4480a58f600011a2264","younger",4,4,"DANGER","DANGER",TRUE,2.216,3,4,"megaphone","mis-match",212
"57c0b4480a58f600011a2264","younger",5,1,"GLASS","GLASS",TRUE,2.482,0,1,"crown","old-new",213
"57c0b4480a58f600011a2264","younger",5,2,"SYSTEM","SYSTEM",TRUE,3.583,1,2,"sunflower","new-new",213
"57c0b4480a58f600011a2264","younger",5,3,"THING","THING",TRUE,2.532,2,3,"bench","match",213
"57c0b4480a58f600011a2264","younger",5,4,"FLIGHT","FLIGHT",TRUE,3.699,3,4,"pawn","mis-match",213
"57c0b4480a58f600011a2264","younger",6,1,"SERIES","SERIES",TRUE,2.746,0,1,"helmet","new-new",214
"57c0b4480a58f600011a2264","younger",6,2,"DEMON","DEMON",TRUE,2.616,3,2,"diamond","new-new",214
"57c0b4480a58f600011a2264","younger",6,3,"BEAUTY","BEAUTY",TRUE,2.867,2,3,"taxi","new-new",214
"57c0b4480a58f600011a2264","younger",6,4,"CASINO","CASINO",TRUE,2.416,1,4,"carrot","new-new",214
"57c0b4480a58f600011a2264","younger",7,1,"ESTATE","ESTATE",TRUE,6.715,2,1,"tractor","new-new",215
"57c0b4480a58f600011a2264","younger",7,2,"BELT","BELT",TRUE,2.633,0,2,"stool","new-new",215
"57c0b4480a58f600011a2264","younger",7,3,"AREA","AREA",TRUE,2.098,1,3,"frame","new-new",215
"57c0b4480a58f600011a2264","younger",7,4,"AGENT","AGENT",TRUE,4.499,3,4,"salt","new-new",215
"57c0b4480a58f600011a2264","younger",8,1,"TOILET","TOILET",TRUE,3.33,0,1,"scissors","mis-match",216
"57c0b4480a58f600011a2264","younger",8,2,"WRITER","WRITER",TRUE,4.083,1,2,"rug","match",216
"57c0b4480a58f600011a2264","younger",8,3,"DOZEN","DOZEN",TRUE,2.767,2,3,"wheelbarrow","old-new",216
"57c0b4480a58f600011a2264","younger",8,4,"ARTIST","ARTIST",TRUE,3.265,3,4,"daisy","new-new",216
"57c0b4480a58f600011a2264","younger",9,1,"NATION","NATION",TRUE,3.865,2,1,"gorilla","old-new",217
"57c0b4480a58f600011a2264","younger",9,2,"JUNGLE","JUNGLE",TRUE,3.05,0,2,"razor","mis-match",217
"57c0b4480a58f600011a2264","younger",9,3,"BOYS","BOYS",TRUE,2.416,1,3,"pear","match",217
"57c0b4480a58f600011a2264","younger",9,4,"PRINCE","PRINCE",TRUE,2.882,3,4,"windmill","new-new",217
"57c0b4480a58f600011a2264","younger",10,1,"GIRL","GIRL",TRUE,3.049,3,1,"mirror","old-new",218
"57c0b4480a58f600011a2264","younger",10,2,"FAMILY","FAMILY",TRUE,3.198,0,2,"candle","mis-match",218
"57c0b4480a58f600011a2264","younger",10,3,"MILLER","MILLER",TRUE,2.166,1,3,"suitcase","match",218
"57c0b4480a58f600011a2264","younger",10,4,"SPEECH","SPEECH",TRUE,2.849,2,4,"backpack","new-new",218
"57c0b4480a58f600011a2264","younger",11,1,"ADVICE","ADVICE",TRUE,4.981,0,1,"calendar","mis-match",219
"57c0b4480a58f600011a2264","younger",11,2,"DIRT","DIRT",TRUE,1.983,1,2,"ring","old-new",219
"57c0b4480a58f600011a2264","younger",11,3,"ROOF","ROOF",TRUE,2.949,2,3,"basket","match",219
"57c0b4480a58f600011a2264","younger",11,4,"LOTS","LOTS",TRUE,1.899,3,4,"spoon","new-new",219
"57c0b4480a58f600011a2264","younger",12,1,"YEAR","YEAR",TRUE,3.048,2,1,"mushroom","new-new",220
"57c0b4480a58f600011a2264","younger",12,2,"BATH","BATH",TRUE,2.35,3,2,"skateboard","new-new",220
"57c0b4480a58f600011a2264","younger",12,3,"HOUSE","HOUSE",TRUE,2.65,0,3,"goose","new-new",220
"57c0b4480a58f600011a2264","younger",12,4,"TEAR","TEAR",TRUE,2.416,1,4,"shovel","new-new",220
"57c0b4480a58f600011a2264","younger",13,1,"LEADER","LEADER",TRUE,3.05,1,1,"cathedral","new-new",221
"57c0b4480a58f600011a2264","younger",13,2,"HOTEL","HOTEL",TRUE,2.617,3,2,"planet","new-new",221
"57c0b4480a58f600011a2264","younger",13,3,"SPIRIT","SPIRIT",TRUE,3.816,0,3,"coin","new-new",221
"57c0b4480a58f600011a2264","younger",13,4,"IDEAS","IDEAS",TRUE,6.266,2,4,"cap","new-new",221
"57c0b4480a58f600011a2264","younger",14,1,"FRIEND","FRIEND",TRUE,3.983,2,1,"cart","new-new",222
"57c0b4480a58f600011a2264","younger",14,2,"FOOD","FOOD",TRUE,2.549,0,2,"telephone","new-new",222
"57c0b4480a58f600011a2264","younger",14,3,"GODS","GODS",TRUE,2.383,1,3,"sun","new-new",222
"57c0b4480a58f600011a2264","younger",14,4,"DEATH","DEATH",TRUE,3.149,3,4,"pencil","new-new",222
"57c0b4480a58f600011a2264","younger",15,1,"NIGHT","NIGHT",TRUE,2.765,0,1,"perfume","new-new",223
"57c0b4480a58f600011a2264","younger",15,2,"RIVER","RIVER",TRUE,2.515,1,2,"tray","new-new",223
"57c0b4480a58f600011a2264","younger",15,3,"WOMEN","WOMEN",TRUE,3.267,3,3,"watch","new-new",223
"57c0b4480a58f600011a2264","younger",15,4,"CLOCK","CLOCK",TRUE,2.599,2,4,"runner","new-new",223
"57c0b4480a58f600011a2264","younger",16,1,"CLIENT","CLIENT",TRUE,3.666,0,1,"peg","old-new",224
"57c0b4480a58f600011a2264","younger",16,2,"RECORD","RECORD",TRUE,3.515,3,2,"dart","mis-match",224
"57c0b4480a58f600011a2264","younger",16,3,"CARS","CARS",TRUE,2.133,2,3,"motorbike","new-new",224
"57c0b4480a58f600011a2264","younger",16,4,"CANDY","CANDY",TRUE,2.415,1,4,"stamp","match",224
"57cde6e36736cf0001b326e4","younger",1,1,"PRINCE","PRINCE",TRUE,2.215025,2,1,"cap","new-new",561
"57cde6e36736cf0001b326e4","younger",1,2,"RECORD","RECORD",TRUE,3.69914,0,2,"frame","new-new",561
"57cde6e36736cf0001b326e4","younger",1,3,"SAKE","SAKE",TRUE,1.414995,1,3,"anchor","new-new",561
"57cde6e36736cf0001b326e4","younger",1,4,"DIRT","DIRT",TRUE,1.265755,3,4,"hanger","new-new",561
"57cde6e36736cf0001b326e4","younger",2,1,"POLICY","POLICY",TRUE,3.32957,1,1,"boot","mis-match",562
"57cde6e36736cf0001b326e4","younger",2,2,"PLENTY","PLENTY",TRUE,1.28223,0,2,"daisy","match",562
"57cde6e36736cf0001b326e4","younger",2,3,"BELT","BELT",TRUE,1.5653,3,3,"peg","new-new",562
"57cde6e36736cf0001b326e4","younger",2,4,"PILLS","PILLS",TRUE,1.21544,2,4,"map","old-new",562
"57cde6e36736cf0001b326e4","younger",3,1,"WEAPON","WEAPON",TRUE,2.714235,0,1,"perfume","new-new",563
"57cde6e36736cf0001b326e4","younger",3,2,"LETTER","LETTER",TRUE,1.364575,1,2,"stool","match",563
"57cde6e36736cf0001b326e4","younger",3,3,"LEADER","LEADER",TRUE,1.515565,3,3,"crown","mis-match",563
"57cde6e36736cf0001b326e4","younger",3,4,"SHOTS","SHOTS",TRUE,0.764335,2,4,"windmill","old-new",563
"57cde6e36736cf0001b326e4","younger",4,1,"HOUSE","HOUSE",TRUE,1.479445,0,1,"mirror","new-new",564
"57cde6e36736cf0001b326e4","younger",4,2,"LOTS","LOTS",TRUE,2.69898,3,2,"cathedral","mis-match",564
"57cde6e36736cf0001b326e4","younger",4,3,"SYSTEM","SYSTEM",TRUE,3.215175,2,3,"ring","match",564
"57cde6e36736cf0001b326e4","younger",4,4,"PHOTO","PHOTO",TRUE,1.915955,1,4,"candle","old-new",564
"57cde6e36736cf0001b326e4","younger",5,1,"MONEY","PENNY",FALSE,3.38154,3,1,"tray","new-new",565
"57cde6e36736cf0001b326e4","younger",5,2,"SPIRIT","MONTH",FALSE,2.36645,2,2,"backpack","new-new",565
"57cde6e36736cf0001b326e4","younger",5,3,"FLEET","FEET",FALSE,1.249345,1,3,"cart","new-new",565
"57cde6e36736cf0001b326e4","younger",5,4,"PENNY","SPIRIT",FALSE,1.414875,0,4,"sunflower","new-new",565
"57cde6e36736cf0001b326e4","younger",6,1,"LIFE","LIFE",TRUE,2.64817,1,1,"carrot","new-new",566
"57cde6e36736cf0001b326e4","younger",6,2,"JUNGLE","JUNGLE",TRUE,1.764165,0,2,"salt","mis-match",566
"57cde6e36736cf0001b326e4","younger",6,3,"HONEY","HONEY",TRUE,1.49878,3,3,"suitcase","match",566
"57cde6e36736cf0001b326e4","younger",6,4,"LIFE","BODY",FALSE,0.766485,2,4,"gorilla","old-new",566
"57cde6e36736cf0001b326e4","younger",7,1,"WRITE","WRITER",FALSE,6.23123,3,1,"dice","mis-match",567
"57cde6e36736cf0001b326e4","younger",7,2,"CANDY","CANDY",TRUE,1.44881,0,2,"pawn","match",567
"57cde6e36736cf0001b326e4","younger",7,3,"NATION","NATION",TRUE,2.099025,2,3,"tyre","new-new",567
"57cde6e36736cf0001b326e4","younger",7,4,"WRITER","AREA",FALSE,1.459335,1,4,"helmet","old-new",567
"57cde6e36736cf0001b326e4","younger",8,1,"DEMON","DEMON",TRUE,2.64724,1,1,"bolt","new-new",568
"57cde6e36736cf0001b326e4","younger",8,2,"GIRL","GIRL",TRUE,1.816575,2,2,"basket","match",568
"57cde6e36736cf0001b326e4","younger",8,3,"RIVER","RIVER",TRUE,1.0822,3,3,"motorbike","mis-match",568
"57cde6e36736cf0001b326e4","younger",8,4,"CLIENT","CLIENT",TRUE,1.449125,0,4,"telephone","old-new",568
"57cde6e36736cf0001b326e4","younger",9,1,"FLIGHT","FLIGHT",TRUE,2.249445,1,1,"shovel","new-new",569
"57cde6e36736cf0001b326e4","younger",9,2,"ARTIST","ARTIST",TRUE,2.449225,3,2,"wheel","match",569
"57cde6e36736cf0001b326e4","younger",9,3,"YEAR","DANGER",FALSE,3.932585,2,3,"cherry","old-new",569
"57cde6e36736cf0001b326e4","younger",9,4,"YEAR","YEAR",TRUE,1.61277,0,4,"kettle","mis-match",569
"57cde6e36736cf0001b326e4","younger",10,1,"COPS","COPS",TRUE,2.297815,1,1,"tractor","new-new",570
"57cde6e36736cf0001b326e4","younger",10,2,"BOYS","BOYS",TRUE,1.21572,2,2,"razor","new-new",570
"57cde6e36736cf0001b326e4","younger",10,3,"GODS","GODS",TRUE,1.14891,3,3,"bench","new-new",570
"57cde6e36736cf0001b326e4","younger",10,4,"ROOF","ROOF",TRUE,2.61553,0,4,"megaphone","new-new",570
"57cde6e36736cf0001b326e4","younger",11,1,"STYLE","FOOD",FALSE,2.34781,1,1,"rug","new-new",571
"57cde6e36736cf0001b326e4","younger",11,2,"DOZEN","DOZEN",TRUE,1.71564,3,2,"balcony","new-new",571
"57cde6e36736cf0001b326e4","younger",11,3,"FOOD","HOTEL",FALSE,1.93254,2,3,"skateboard","new-new",571
"57cde6e36736cf0001b326e4","younger",11,4,"STYLE","STYLE",TRUE,1.86563,0,4,"aeroplane","new-new",571
"57cde6e36736cf0001b326e4","younger",12,1,"FLESH","MOMENT",FALSE,3.11397,3,1,"mushroom","mis-match",572
"57cde6e36736cf0001b326e4","younger",12,2,"FAMILY","FAMILY",TRUE,1.782505,2,2,"scissors","match",572
"57cde6e36736cf0001b326e4","younger",12,3,"FLESH","FLESH",TRUE,1.482145,1,3,"pear","new-new",572
"57cde6e36736cf0001b326e4","younger",12,4,"KIND","KIND",TRUE,1.180985,0,4,"monkey","old-new",572
"57cde6e36736cf0001b326e4","younger",13,1,"TOILET","TOILET",TRUE,1.647635,2,1,"diamond","match",573
"57cde6e36736cf0001b326e4","younger",13,2,"CARS","CARS",TRUE,1.615715,1,2,"microphone","old-new",573
"57cde6e36736cf0001b326e4","younger",13,3,"NIGHT","NIGHT",TRUE,1.64798,0,3,"goose","new-new",573
"57cde6e36736cf0001b326e4","younger",13,4,"CLOCK","CLOCK",TRUE,1.281125,3,4,"pencil","mis-match",573
"57cde6e36736cf0001b326e4","younger",14,1,"BATH","BATH",TRUE,1.884385,0,1,"taxi","new-new",574
"57cde6e36736cf0001b326e4","younger",14,2,"SPEECH","SPEECH",TRUE,2.91581,3,2,"spoon","new-new",574
"57cde6e36736cf0001b326e4","younger",14,3,"FIREND","FRIEND",FALSE,1.6521,2,3,"planet","new-new",574
"57cde6e36736cf0001b326e4","younger",14,4,"TEAR","TEAR",TRUE,1.30184,1,4,"calendar","new-new",574
"57cde6e36736cf0001b326e4","younger",15,1,"AGENT","WOMEN",FALSE,2.129135,1,1,"stamp","new-new",575
"57cde6e36736cf0001b326e4","younger",15,2,"CASINO","CASINO",TRUE,2.350085,3,2,"pepper","new-new",575
"57cde6e36736cf0001b326e4","younger",15,3,"YARD","YARD",TRUE,1.18586,2,3,"wheelbarrow","new-new",575
"57cde6e36736cf0001b326e4","younger",15,4,"AGENT","AGENT",TRUE,1.332365,0,4,"watch","new-new",575
"57cde6e36736cf0001b326e4","younger",16,1,"IDEAS","IDEAS",TRUE,1.59686,3,1,"sun","new-new",576
"57cde6e36736cf0001b326e4","younger",16,2,"ESTATE","ESTATE",TRUE,1.48228,2,2,"runner","mis-match",576
"57cde6e36736cf0001b326e4","younger",16,3,"SERIES","SERIES",TRUE,1.749275,1,3,"coin","match",576
"57cde6e36736cf0001b326e4","younger",16,4,"GLASS","GLASS",TRUE,0.932025,0,4,"dart","old-new",576
"58556f5f71a3ef0001cc94f1","younger",1,1,"PLACE","AREA",FALSE,2.497515,0,1,"bench","old-new",449
"58556f5f71a3ef0001cc94f1","younger",1,2,"PENNY","PENNY",TRUE,2.06633,3,2,"shovel","match",449
"58556f5f71a3ef0001cc94f1","younger",1,3,"WEAPON","WEAPON",TRUE,1.481745,2,3,"boot","new-new",449
"58556f5f71a3ef0001cc94f1","younger",1,4,"PLACE","RIVER",FALSE,5.23384,1,4,"backpack","mis-match",449
"58556f5f71a3ef0001cc94f1","younger",2,1,"SALE","SALE",TRUE,2.29822,0,1,"kettle","new-new",450
"58556f5f71a3ef0001cc94f1","younger",2,2,"SYSTEM","SYSTEM",TRUE,2.581905,1,2,"peg","new-new",450
"58556f5f71a3ef0001cc94f1","younger",2,3,"HOUSE","ESTATE",FALSE,4.41741,2,3,"dart","new-new",450
"58556f5f71a3ef0001cc94f1","younger",2,4,"HOUSE","HOUSE",TRUE,1.58172,3,4,"goose","new-new",450
"58556f5f71a3ef0001cc94f1","younger",3,1,"PLENTY","KIND",FALSE,3.37917,2,1,"perfume","old-new",451
"58556f5f71a3ef0001cc94f1","younger",3,2,"CLOCK","CLOCK",TRUE,1.417475,0,2,"bolt","match",451
"58556f5f71a3ef0001cc94f1","younger",3,3,"YARD","YARD",TRUE,1.5829,3,3,"mushroom","new-new",451
"58556f5f71a3ef0001cc94f1","younger",3,4,"KIND","PLENTY",FALSE,1.29747,1,4,"diamond","mis-match",451
"58556f5f71a3ef0001cc94f1","younger",4,1,"FOOD","FOOD",TRUE,2.6458,0,1,"cathedral","new-new",452
"58556f5f71a3ef0001cc94f1","younger",4,2,"MOMENT","MOMENT",TRUE,4.364195,3,2,"aeroplane","new-new",452
"58556f5f71a3ef0001cc94f1","younger",4,3,"LETTER","MILLER",FALSE,2.832065,2,3,"sunflower","new-new",452
"58556f5f71a3ef0001cc94f1","younger",4,4,"LETTER","LETTER",TRUE,1.96584,1,4,"hanger","new-new",452
"58556f5f71a3ef0001cc94f1","younger",5,1,"DANGER","DANGER",TRUE,1.63243,2,1,"skateboard","new-new",453
"58556f5f71a3ef0001cc94f1","younger",5,2,"POLICY","POLICY",TRUE,2.184155,1,2,"frame","new-new",453
"58556f5f71a3ef0001cc94f1","younger",5,3,"LETTER","RECORD",FALSE,4.114185,3,3,"sun","new-new",453
"58556f5f71a3ef0001cc94f1","younger",5,4,"FAMILY","NATION",FALSE,3.231895,0,4,"pepper","new-new",453
"58556f5f71a3ef0001cc94f1","younger",6,1,"SHOTS","SHOTS",TRUE,2.263535,1,1,"scissors","new-new",454
"58556f5f71a3ef0001cc94f1","younger",6,2,"CLIENT","LEADER",FALSE,2.50079,0,2,"helmet","match",454
"58556f5f71a3ef0001cc94f1","younger",6,3,"LIFE","LIFE",TRUE,2.11622,3,3,"razor","old-new",454
"58556f5f71a3ef0001cc94f1","younger",6,4,"LETTER","CLIENT",FALSE,3.26791,2,4,"carrot","mis-match",454
"58556f5f71a3ef0001cc94f1","younger",7,1,"BATH","BATH",TRUE,2.146585,2,1,"daisy","mis-match",455
"58556f5f71a3ef0001cc94f1","younger",7,2,"GLASS","GLASS",TRUE,2.11754,0,2,"rug","match",455
"58556f5f71a3ef0001cc94f1","younger",7,3,"DEVIL","DEMON",FALSE,2.665815,1,3,"salt","new-new",455
"58556f5f71a3ef0001cc94f1","younger",7,4,"SHOTS","FEET",FALSE,4.06554,3,4,"crown","old-new",455
"58556f5f71a3ef0001cc94f1","younger",8,1,"LIFE","IDEAS",FALSE,6.84112,3,1,"candle","new-new",456
"58556f5f71a3ef0001cc94f1","younger",8,2,"STYLE","STYLE",TRUE,2.246685,2,2,"pawn","new-new",456
"58556f5f71a3ef0001cc94f1","younger",8,3,"FLESH","FLESH",TRUE,4.348885,0,3,"balcony","new-new",456
"58556f5f71a3ef0001cc94f1","younger",8,4,"SERIES","SERIES",TRUE,2.031365,1,4,"coin","new-new",456
"58556f5f71a3ef0001cc94f1","younger",9,1,"SPIRIT","MILE",FALSE,7.113045,3,1,"dice","new-new",457
"58556f5f71a3ef0001cc94f1","younger",9,2,"BOYS","BOYS",TRUE,1.565515,1,2,"monkey","new-new",457
"58556f5f71a3ef0001cc94f1","younger",9,3,"CARS","SPIRIT",FALSE,1.184195,2,3,"tractor","new-new",457
"58556f5f71a3ef0001cc94f1","younger",9,4,"LIFE","CARS",FALSE,3.34984,0,4,"motorbike","new-new",457
"58556f5f71a3ef0001cc94f1","younger",10,1,"JUNGLE","JUNGLE",TRUE,2.04783,1,1,"anchor","match",458
"58556f5f71a3ef0001cc94f1","younger",10,2,"FRIEND","FRIEND",TRUE,1.43315,3,2,"taxi","old-new",458
"58556f5f71a3ef0001cc94f1","younger",10,3,"DIRT","DIRT",TRUE,1.48149,0,3,"mirror","new-new",458
"58556f5f71a3ef0001cc94f1","younger",10,4,"THING","THING",TRUE,1.147495,2,4,"runner","mis-match",458
"58556f5f71a3ef0001cc94f1","younger",11,1,"APPLE","SPEECH",FALSE,3.212195,3,1,"pear","new-new",459
"58556f5f71a3ef0001cc94f1","younger",11,2,"CASINO","CASINO",TRUE,2.9842,2,2,"map","mis-match",459
"58556f5f71a3ef0001cc94f1","younger",11,3,"SAKE","SAKE",TRUE,1.20073,0,3,"ring","match",459
"58556f5f71a3ef0001cc94f1","younger",11,4,"CLIENT","APPLE",FALSE,6.61664,1,4,"stool","old-new",459
"58556f5f71a3ef0001cc94f1","younger",12,1,"COPS","COPS",TRUE,1.64734,3,1,"pencil","match",460
"58556f5f71a3ef0001cc94f1","younger",12,2,"TOILET","VALLEY",FALSE,2.41758,2,2,"megaphone","old-new",460
"58556f5f71a3ef0001cc94f1","younger",12,3,"SAKE","PHOTO",FALSE,3.36548,1,3,"spoon","mis-match",460
"58556f5f71a3ef0001cc94f1","younger",12,4,"DOZEN","DOZEN",TRUE,2.134255,0,4,"basket","new-new",460
"58556f5f71a3ef0001cc94f1","younger",13,1,"ROOF","ROOF",TRUE,3.130625,0,1,"planet","new-new",461
"58556f5f71a3ef0001cc94f1","younger",13,2,"WRITER","WRITER",TRUE,1.76731,1,2,"watch","new-new",461
"58556f5f71a3ef0001cc94f1","younger",13,3,"NIGHT","NIGHT",TRUE,3.031655,3,3,"cap","new-new",461
"58556f5f71a3ef0001cc94f1","younger",13,4,"DEATH","DEATH",TRUE,1.63059,2,4,"suitcase","new-new",461
"58556f5f71a3ef0001cc94f1","younger",14,1,"TEAR","TEAR",TRUE,2.830525,3,1,"calendar","new-new",462
"58556f5f71a3ef0001cc94f1","younger",14,2,"LOTS","LOTS",TRUE,1.53358,0,2,"microphone","match",462
"58556f5f71a3ef0001cc94f1","younger",14,3,"HOTEL","BELT",FALSE,3.167325,1,3,"wheelbarrow","old-new",462
"58556f5f71a3ef0001cc94f1","younger",14,4,"ADVICE","ADVICE",TRUE,1.480085,2,4,"stamp","mis-match",462
"58556f5f71a3ef0001cc94f1","younger",15,1,"ARTIST","ARTIST",TRUE,2.080675,3,1,"gorilla","old-new",463
"58556f5f71a3ef0001cc94f1","younger",15,2,"FLIGHT","FLIGHT",TRUE,2.483015,0,2,"tyre","match",463
"58556f5f71a3ef0001cc94f1","younger",15,3,"YEAR","YEAR",TRUE,1.367535,1,3,"telephone","mis-match",463
"58556f5f71a3ef0001cc94f1","younger",15,4,"CANDY","CANDY",TRUE,1.667525,2,4,"cart","new-new",463
"58556f5f71a3ef0001cc94f1","younger",16,1,"GIRL","GIRL",TRUE,1.74827,2,1,"tray","match",464
"58556f5f71a3ef0001cc94f1","younger",16,2,"BODY","BODY",TRUE,2.381975,3,2,"cherry","old-new",464
"58556f5f71a3ef0001cc94f1","younger",16,3,"WOMEN","WOMEN",TRUE,3.165745,0,3,"wheel","mis-match",464
"58556f5f71a3ef0001cc94f1","younger",16,4,"PRINCE","PRINCE",TRUE,1.768355,1,4,"windmill","new-new",464
"59609bdb599b690001ef2c59","older",1,1,"?","BELT",FALSE,2.051,0,1,"stool","new-new",1105
"59609bdb599b690001ef2c59","older",1,2,"?","AGENT",FALSE,4.055,3,2,"salt","new-new",1105
"59609bdb599b690001ef2c59","older",1,3,"AREA","AREA",TRUE,4.931,1,3,"frame","new-new",1105
"59609bdb599b690001ef2c59","older",1,4,"ESTATE","ESTATE",TRUE,2.678,2,4,"tractor","new-new",1105
"59609bdb599b690001ef2c59","older",2,1,"SPIRIT","SPIRIT",TRUE,3.203,0,1,"coin","new-new",1106
"59609bdb599b690001ef2c59","older",2,2,"LEADER","IDEAS",FALSE,3.504,2,2,"cap","new-new",1106
"59609bdb599b690001ef2c59","older",2,3,"HOTEL","HOTEL",TRUE,3.128,3,3,"planet","new-new",1106
"59609bdb599b690001ef2c59","older",2,4,"IDEAS","LEADER",FALSE,2.028,1,4,"cathedral","new-new",1106
"59609bdb599b690001ef2c59","older",3,1,"?","CASINO",FALSE,2.952,1,1,"carrot","new-new",1107
"59609bdb599b690001ef2c59","older",3,2,"RACE","SERIES",FALSE,3.179,0,2,"helmet","new-new",1107
"59609bdb599b690001ef2c59","older",3,3,"?","BEAUTY",FALSE,3.555,2,3,"taxi","new-new",1107
"59609bdb599b690001ef2c59","older",3,4,"DEMON","DEMON",TRUE,2.828,3,4,"diamond","new-new",1107
"59609bdb599b690001ef2c59","older",4,1,"SHOTS","SHOTS",TRUE,2.878,1,1,"bolt","old-new",1108
"59609bdb599b690001ef2c59","older",4,2,"?","DANGER",FALSE,2.478,3,2,"megaphone","mis-match",1108
"59609bdb599b690001ef2c59","older",4,3,"APPLE","APPLE",TRUE,3.053,0,3,"kettle","new-new",1108
"59609bdb599b690001ef2c59","older",4,4,"KIND","KIND",TRUE,2.302,2,4,"dice","match",1108
"59609bdb599b690001ef2c59","older",5,1,"PLENTY","PLENTY",TRUE,2.803,0,1,"monkey","mis-match",1109
"59609bdb599b690001ef2c59","older",5,2,"FLESH","FLESH",TRUE,2.678,1,2,"balcony","new-new",1109
"59609bdb599b690001ef2c59","older",5,3,"DUDE","DUDE",TRUE,2.176,2,3,"pepper","match",1109
"59609bdb599b690001ef2c59","older",5,4,"PILLS","PILLS",TRUE,2.377,3,4,"hanger","old-new",1109
"59609bdb599b690001ef2c59","older",6,1,"TOILET","TOILET",TRUE,2.477,0,1,"scissors","mis-match",1110
"59609bdb599b690001ef2c59","older",6,2,"ARTIST","ARTIST",TRUE,3.479,3,2,"daisy","new-new",1110
"59609bdb599b690001ef2c59","older",6,3,"DOZEN","DOZEN",TRUE,3.104,2,3,"wheelbarrow","old-new",1110
"59609bdb599b690001ef2c59","older",6,4,"WRITER","WRITER",TRUE,2.053,1,4,"rug","match",1110
"59609bdb599b690001ef2c59","older",7,1,"WOMEN","WOMEN",TRUE,2.726,3,1,"watch","new-new",1111
"59609bdb599b690001ef2c59","older",7,2,"CLOCK","CLOCK",TRUE,6.057,2,2,"runner","new-new",1111
"59609bdb599b690001ef2c59","older",7,3,"RIVER","RIVER",TRUE,2.227,1,3,"tray","new-new",1111
"59609bdb599b690001ef2c59","older",7,4,"NIGHT","NIGHT",TRUE,2.102,0,4,"perfume","new-new",1111
"59609bdb599b690001ef2c59","older",8,1,"THING","THING",TRUE,2.201,2,1,"bench","match",1112
"59609bdb599b690001ef2c59","older",8,2,"GLASS","GLASS",TRUE,2.754,0,2,"crown","old-new",1112
"59609bdb599b690001ef2c59","older",8,3,"?","SYSTEM",FALSE,2.278,1,3,"sunflower","new-new",1112
"59609bdb599b690001ef2c59","older",8,4,"?","FLIGHT",FALSE,2.327,3,4,"pawn","mis-match",1112
"59609bdb599b690001ef2c59","older",9,1,"HOUSE","HOUSE",TRUE,3.678,0,1,"goose","new-new",1113
"59609bdb599b690001ef2c59","older",9,2,"YEAR","BATH",FALSE,3.079,3,2,"skateboard","new-new",1113
"59609bdb599b690001ef2c59","older",9,3,"HOUSE","TEAR",FALSE,3.379,1,3,"shovel","new-new",1113
"59609bdb599b690001ef2c59","older",9,4,"TEAR","YEAR",FALSE,3.304,2,4,"mushroom","new-new",1113
"59609bdb599b690001ef2c59","older",10,1,"FOOD","FOOD",TRUE,3.078,0,1,"telephone","new-new",1114
"59609bdb599b690001ef2c59","older",10,2,"GODS","GODS",TRUE,3.228,1,2,"sun","new-new",1114
"59609bdb599b690001ef2c59","older",10,3,"DEATH","DEATH",TRUE,2.377,3,3,"pencil","new-new",1114
"59609bdb599b690001ef2c59","older",10,4,"FRIENDS","FRIEND",FALSE,2.677,2,4,"cart","new-new",1114
"59609bdb599b690001ef2c59","older",11,1,"BOYS","BOYS",TRUE,4.98,1,1,"pear","match",1115
"59609bdb599b690001ef2c59","older",11,2,"NATION","NATION",TRUE,2.805,2,2,"gorilla","old-new",1115
"59609bdb599b690001ef2c59","older",11,3,"NATION","JUNGLE",FALSE,4.431,0,3,"razor","mis-match",1115
"59609bdb599b690001ef2c59","older",11,4,"PRINCE","PRINCE",TRUE,2.678,3,4,"windmill","new-new",1115
"59609bdb599b690001ef2c59","older",12,1,"GIRL","GIRL",TRUE,2.652,3,1,"mirror","old-new",1116
"59609bdb599b690001ef2c59","older",12,2,"?","MILLER",FALSE,2.377,1,2,"suitcase","match",1116
"59609bdb599b690001ef2c59","older",12,3,"?","FAMILY",FALSE,1.802,0,3,"candle","mis-match",1116
"59609bdb599b690001ef2c59","older",12,4,"?","SPEECH",FALSE,1.877,2,4,"backpack","new-new",1116
"59609bdb599b690001ef2c59","older",13,1,"SAKE","SAKE",TRUE,2.427,1,1,"aeroplane","old-new",1117
"59609bdb599b690001ef2c59","older",13,2,"YARD","YARD",TRUE,2.703,2,2,"tyre","match",1117
"59609bdb599b690001ef2c59","older",13,3,"STYLE","STYLE",TRUE,2.603,0,3,"boot","new-new",1117
"59609bdb599b690001ef2c59","older",13,4,"YARD","SALE",FALSE,3.529,3,4,"map","mis-match",1117
"59609bdb599b690001ef2c59","older",14,1,"CLIENT","CLIENT",TRUE,2.451,0,1,"peg","old-new",1118
"59609bdb599b690001ef2c59","older",14,2,"RECORD","RECORD",TRUE,3.103,3,2,"dart","mis-match",1118
"59609bdb599b690001ef2c59","older",14,3,"CARS","CARS",TRUE,1.852,2,3,"motorbike","new-new",1118
"59609bdb599b690001ef2c59","older",14,4,"CANDY","CANDY",TRUE,2.353,1,4,"stamp","match",1118
"59609bdb599b690001ef2c59","older",15,1,"MILE","MILE",TRUE,2.152,0,1,"anchor","mis-match",1119
"59609bdb599b690001ef2c59","older",15,2,"PENNY","PENNY",TRUE,3.304,3,2,"microphone","old-new",1119
"59609bdb599b690001ef2c59","older",15,3,"HONEY","HONEY",TRUE,2.552,1,3,"cherry","new-new",1119
"59609bdb599b690001ef2c59","older",15,4,"COPS","COPS",TRUE,2.128,2,4,"wheel","match",1119
"59609bdb599b690001ef2c59","older",16,1,"","LOTS",FALSE,3.729,3,1,"spoon","new-new",1120
"59609bdb599b690001ef2c59","older",16,2,"?","ROOF",FALSE,1.676,2,2,"basket","match",1120
"59609bdb599b690001ef2c59","older",16,3,"ADVICE","ADVICE",TRUE,3.48,0,3,"calendar","mis-match",1120
"59609bdb599b690001ef2c59","older",16,4,"DIRT","DIRT",TRUE,1.827,1,4,"ring","old-new",1120
"5991baaa7d29e700017303bf","older",1,1,"APPLE","SHOTS",FALSE,4.269,1,1,"bolt","old-new",1041
"5991baaa7d29e700017303bf","older",1,2,"DANGER","DANGER",TRUE,3.85,3,2,"megaphone","mis-match",1041
"5991baaa7d29e700017303bf","older",1,3,"APPLE","APPLE",TRUE,4.505,0,3,"kettle","new-new",1041
"5991baaa7d29e700017303bf","older",1,4,"KIND","KIND",TRUE,2.537,2,4,"dice","match",1041
"5991baaa7d29e700017303bf","older",2,1,"BEAUTY","BEAUTY",TRUE,8.782,2,1,"taxi","new-new",1042
"5991baaa7d29e700017303bf","older",2,2,"SERIES","SERIES",TRUE,3.425,0,2,"helmet","new-new",1042
"5991baaa7d29e700017303bf","older",2,3,"?","DEMON",FALSE,10.014,3,3,"diamond","new-new",1042
"5991baaa7d29e700017303bf","older",2,4,"DANGER","CASINO",FALSE,2.474,1,4,"carrot","new-new",1042
"5991baaa7d29e700017303bf","older",3,1,"BELT","BELT",TRUE,5.759,0,1,"stool","new-new",1043
"5991baaa7d29e700017303bf","older",3,2,"?","AGENT",FALSE,10.039,3,2,"salt","new-new",1043
"5991baaa7d29e700017303bf","older",3,3,"AREA","AREA",TRUE,3.838,1,3,"frame","new-new",1043
"5991baaa7d29e700017303bf","older",3,4,"ESTATE","ESTATE",TRUE,3.666,2,4,"tractor","new-new",1043
"5991baaa7d29e700017303bf","older",4,1,"PLENTY","PLENTY",TRUE,3.327,0,1,"monkey","mis-match",1044
"5991baaa7d29e700017303bf","older",4,2,"FLESH","FLESH",TRUE,4.065,1,2,"balcony","new-new",1044
"5991baaa7d29e700017303bf","older",4,3,"PILLS","PILLS",TRUE,3.576,3,3,"hanger","old-new",1044
"5991baaa7d29e700017303bf","older",4,4,"DUDE","DUDE",TRUE,3.001,2,4,"pepper","match",1044
"5991baaa7d29e700017303bf","older",5,1,"SPIRIT","SPIRIT",TRUE,4.287,0,1,"coin","new-new",1045
"5991baaa7d29e700017303bf","older",5,2,"LEADER","IDEAS",FALSE,3.329,2,2,"cap","new-new",1045
"5991baaa7d29e700017303bf","older",5,3,"STATE","LEADER",FALSE,5.893,1,3,"cathedral","new-new",1045
"5991baaa7d29e700017303bf","older",5,4,"HOTEL","HOTEL",TRUE,4.055,3,4,"planet","new-new",1045
"5991baaa7d29e700017303bf","older",6,1,"STYLE","STYLE",TRUE,4.243,0,1,"boot","new-new",1046
"5991baaa7d29e700017303bf","older",6,2,"YARD","YARD",TRUE,3.197,2,2,"tyre","match",1046
"5991baaa7d29e700017303bf","older",6,3,"?","SALE",FALSE,10.001,3,3,"map","mis-match",1046
"5991baaa7d29e700017303bf","older",6,4,"SAKE","SAKE",TRUE,3.227,1,4,"aeroplane","old-new",1046
"5991baaa7d29e700017303bf","older",7,1,"ARTIST","ARTIST",TRUE,7.913,3,1,"daisy","new-new",1047
"5991baaa7d29e700017303bf","older",7,2,"DOZEN","DOZEN",TRUE,4.659,2,2,"wheelbarrow","old-new",1047
"5991baaa7d29e700017303bf","older",7,3,"WRITER","WRITER",TRUE,3.237,1,3,"rug","match",1047
"5991baaa7d29e700017303bf","older",7,4,"DOZEN","TOILET",FALSE,9.091,0,4,"scissors","mis-match",1047
"5991baaa7d29e700017303bf","older",8,1,"COPS","COPS",TRUE,4.257,2,1,"wheel","match",1048
"5991baaa7d29e700017303bf","older",8,2,"?","PENNY",FALSE,10.004,3,2,"microphone","old-new",1048
"5991baaa7d29e700017303bf","older",8,3,"HONEY","HONEY",TRUE,3.654,1,3,"cherry","new-new",1048
"5991baaa7d29e700017303bf","older",8,4,"MILE","MILE",TRUE,3.663,0,4,"anchor","mis-match",1048
"5991baaa7d29e700017303bf","older",9,1,"ADVICE","ADVICE",TRUE,3.965,0,1,"calendar","mis-match",1049
"5991baaa7d29e700017303bf","older",9,2,"LOTS","LOTS",TRUE,3.53,3,2,"spoon","new-new",1049
"5991baaa7d29e700017303bf","older",9,3,"DIRT","DIRT",TRUE,3.384,1,3,"ring","old-new",1049
"5991baaa7d29e700017303bf","older",9,4,"ROOF","ROOF",TRUE,2.477,2,4,"basket","match",1049
"5991baaa7d29e700017303bf","older",10,1,"FRIEND","FRIEND",TRUE,4.198,2,1,"cart","new-new",1050
"5991baaa7d29e700017303bf","older",10,2,"GODS","GODS",TRUE,3.149,1,2,"sun","new-new",1050
"5991baaa7d29e700017303bf","older",10,3,"FOOD","FOOD",TRUE,2.432,0,3,"telephone","new-new",1050
"5991baaa7d29e700017303bf","older",10,4,"DEATH","DEATH",TRUE,4.164,3,4,"pencil","new-new",1050
"5991baaa7d29e700017303bf","older",11,1,"THING","THING",TRUE,3.376,2,1,"bench","match",1051
"5991baaa7d29e700017303bf","older",11,2,"FLIGHT","FLIGHT",TRUE,4.658,3,2,"pawn","mis-match",1051
"5991baaa7d29e700017303bf","older",11,3,"SYSTEM","SYSTEM",TRUE,6.197,1,3,"sunflower","new-new",1051
"5991baaa7d29e700017303bf","older",11,4,"GLASS","GLASS",TRUE,3.27,0,4,"crown","old-new",1051
"5991baaa7d29e700017303bf","older",12,1,"GIRL","GIRL",TRUE,3.687,3,1,"mirror","old-new",1052
"5991baaa7d29e700017303bf","older",12,2,"?","SPEECH",FALSE,9.993,2,2,"backpack","new-new",1052
"5991baaa7d29e700017303bf","older",12,3,"MILLER","MILLER",TRUE,3.917,1,3,"suitcase","match",1052
"5991baaa7d29e700017303bf","older",12,4,"FAMILY","FAMILY",TRUE,4.2,0,4,"candle","mis-match",1052
"5991baaa7d29e700017303bf","older",13,1,"GIRL","NIGHT",FALSE,6.899,0,1,"perfume","new-new",1053
"5991baaa7d29e700017303bf","older",13,2,"?","CLOCK",FALSE,9.998,2,2,"runner","new-new",1053
"5991baaa7d29e700017303bf","older",13,3,"RIVER","RIVER",TRUE,3.687,1,3,"tray","new-new",1053
"5991baaa7d29e700017303bf","older",13,4,"WOMEN","WOMEN",TRUE,4.832,3,4,"watch","new-new",1053
"5991baaa7d29e700017303bf","older",14,1,"JUNGLE","JUNGLE",TRUE,3.718,0,1,"razor","mis-match",1054
"5991baaa7d29e700017303bf","older",14,2,"NATION","NATION",TRUE,4.348,2,2,"gorilla","old-new",1054
"5991baaa7d29e700017303bf","older",14,3,"PRINCE","PRINCE",TRUE,3.54,3,3,"windmill","new-new",1054
"5991baaa7d29e700017303bf","older",14,4,"BOYS","BOYS",TRUE,3.1,1,4,"pear","match",1054
"5991baaa7d29e700017303bf","older",15,1,"CANDY","CANDY",TRUE,3.903,1,1,"stamp","match",1055
"5991baaa7d29e700017303bf","older",15,2,"?","RECORD",FALSE,9.988,3,2,"dart","mis-match",1055
"5991baaa7d29e700017303bf","older",15,3,"POLICY","CLIENT",FALSE,7.216,0,3,"peg","old-new",1055
"5991baaa7d29e700017303bf","older",15,4,"CARS","CARS",TRUE,3.067,2,4,"motorbike","new-new",1055
"5991baaa7d29e700017303bf","older",16,1,"YEAR","YEAR",TRUE,3.854,2,1,"mushroom","new-new",1056
"5991baaa7d29e700017303bf","older",16,2,"TEAR","TEAR",TRUE,3.498,1,2,"shovel","new-new",1056
"5991baaa7d29e700017303bf","older",16,3,"HOUSE","HOUSE",TRUE,3.046,0,3,"goose","new-new",1056
"5991baaa7d29e700017303bf","older",16,4,"?","BATH",FALSE,9.989,3,4,"skateboard","new-new",1056
"599614af004c4f0001cc8642","older",1,1,"SHOTS","SHOTS",TRUE,6.677685,1,1,"scissors","new-new",1537
"599614af004c4f0001cc8642","older",1,2,"?","LIFE",FALSE,1.84856,3,2,"razor","old-new",1537
"599614af004c4f0001cc8642","older",1,3,"LEADER","LEADER",TRUE,3.59854,0,3,"helmet","match",1537
"599614af004c4f0001cc8642","older",1,4,"SHOTS","CLIENT",FALSE,2.744605,2,4,"carrot","mis-match",1537
"599614af004c4f0001cc8642","older",2,1,"LOTS","BELT",FALSE,3.21491,1,1,"wheelbarrow","old-new",1538
"599614af004c4f0001cc8642","older",2,2,"?","LOTS",FALSE,1.39641,0,2,"microphone","match",1538
"599614af004c4f0001cc8642","older",2,3,"TEAR","TEAR",TRUE,3.382845,3,3,"calendar","new-new",1538
"599614af004c4f0001cc8642","older",2,4,"?","ADVICE",FALSE,2.7662,2,4,"stamp","mis-match",1538
"599614af004c4f0001cc8642","older",3,1,"?","SPEECH",FALSE,1.86209,3,1,"pear","new-new",1539
"599614af004c4f0001cc8642","older",3,2,"PHOTO","CASINO",FALSE,6.899115,2,2,"map","mis-match",1539
"599614af004c4f0001cc8642","older",3,3,"SAKE","SAKE",TRUE,2.71528,0,3,"ring","match",1539
"599614af004c4f0001cc8642","older",3,4,"APPLE","APPLE",TRUE,4.65919,1,4,"stool","old-new",1539
"599614af004c4f0001cc8642","older",4,1,"DANGER","DANGER",TRUE,3.611055,2,1,"skateboard","new-new",1540
"599614af004c4f0001cc8642","older",4,2,"POLICY","POLICY",TRUE,5.632375,1,2,"frame","new-new",1540
"599614af004c4f0001cc8642","older",4,3,"?","NATION",FALSE,2.01322,0,3,"pepper","new-new",1540
"599614af004c4f0001cc8642","older",4,4,"?","RECORD",FALSE,1.465965,3,4,"sun","new-new",1540
"599614af004c4f0001cc8642","older",5,1,"DIRTY","DIRT",FALSE,3.74788,0,1,"mirror","new-new",1541
"599614af004c4f0001cc8642","older",5,2,"FRIENDS","FRIEND",FALSE,4.38111,3,2,"taxi","old-new",1541
"599614af004c4f0001cc8642","older",5,3,"THING","THING",TRUE,4.865705,2,3,"runner","mis-match",1541
"599614af004c4f0001cc8642","older",5,4,"JUNGLE","JUNGLE",TRUE,3.148475,1,4,"anchor","match",1541
"599614af004c4f0001cc8642","older",6,1,"?","MILLER",FALSE,2.28102,2,1,"sunflower","new-new",1542
"599614af004c4f0001cc8642","older",6,2,"FOOD","FOOD",TRUE,5.34944,0,2,"cathedral","new-new",1542
"599614af004c4f0001cc8642","older",6,3,"MOMENT","MOMENT",TRUE,4.08053,3,3,"aeroplane","new-new",1542
"599614af004c4f0001cc8642","older",6,4,"?","LETTER",FALSE,1.198915,1,4,"hanger","new-new",1542
"599614af004c4f0001cc8642","older",7,1,"LOTS","PLENTY",FALSE,3.779325,1,1,"diamond","mis-match",1543
"599614af004c4f0001cc8642","older",7,2,"?","YARD",FALSE,1.397755,3,2,"mushroom","new-new",1543
"599614af004c4f0001cc8642","older",7,3,"NICE","KIND",FALSE,3.78084,2,3,"perfume","old-new",1543
"599614af004c4f0001cc8642","older",7,4,"CLOCK","CLOCK",TRUE,2.58281,0,4,"bolt","match",1543
"599614af004c4f0001cc8642","older",8,1,"?","SALE",FALSE,1.87902,0,1,"kettle","new-new",1544
"599614af004c4f0001cc8642","older",8,2,"?","ESTATE",FALSE,1.43372,2,2,"dart","new-new",1544
"599614af004c4f0001cc8642","older",8,3,"?","SYSTEM",FALSE,1.182555,1,3,"peg","new-new",1544
"599614af004c4f0001cc8642","older",8,4,"?","HOUSE",FALSE,1.15346,3,4,"goose","new-new",1544
"599614af004c4f0001cc8642","older",9,1,"CARS","CARS",TRUE,2.797075,0,1,"motorbike","new-new",1545
"599614af004c4f0001cc8642","older",9,2,"?","SPIRIT",FALSE,2.46339,2,2,"tractor","new-new",1545
"599614af004c4f0001cc8642","older",9,3,"?","BOYS",FALSE,0.398825,1,3,"monkey","new-new",1545
"599614af004c4f0001cc8642","older",9,4,"?","MILE",FALSE,0.522,3,4,"dice","new-new",1545
"599614af004c4f0001cc8642","older",10,1,"?","SERIES",FALSE,2.24732,1,1,"coin","new-new",1546
"599614af004c4f0001cc8642","older",10,2,"?","STYLE",FALSE,0.88249,2,2,"pawn","new-new",1546
"599614af004c4f0001cc8642","older",10,3,"FLESH","FLESH",TRUE,4.23214,0,3,"balcony","new-new",1546
"599614af004c4f0001cc8642","older",10,4,"?","IDEAS",FALSE,1.294675,3,4,"candle","new-new",1546
"599614af004c4f0001cc8642","older",11,1,"?","PRINCE",FALSE,4.086145,1,1,"windmill","new-new",1547
"599614af004c4f0001cc8642","older",11,2,"WORLD","WOMEN",FALSE,4.313585,0,2,"wheel","mis-match",1547
"599614af004c4f0001cc8642","older",11,3,"?","BODY",FALSE,3.02615,3,3,"cherry","old-new",1547
"599614af004c4f0001cc8642","older",11,4,"GIRL","GIRL",TRUE,3.04876,2,4,"tray","match",1547
"599614af004c4f0001cc8642","older",12,1,"NIGHT","NIGHT",TRUE,3.24752,3,1,"cap","new-new",1548
"599614af004c4f0001cc8642","older",12,2,"?","DEATH",FALSE,1.197385,2,2,"suitcase","new-new",1548
"599614af004c4f0001cc8642","older",12,3,"ROOF","ROOF",TRUE,2.5479,0,3,"planet","new-new",1548
"599614af004c4f0001cc8642","older",12,4,"?","WRITER",FALSE,0.84965,1,4,"watch","new-new",1548
"599614af004c4f0001cc8642","older",13,1,"?","DEMON",FALSE,2.32898,1,1,"salt","new-new",1549
"599614af004c4f0001cc8642","older",13,2,"GLASS","GLASS",TRUE,2.78204,0,2,"rug","match",1549
"599614af004c4f0001cc8642","older",13,3,"?","BATH",FALSE,3.79866,2,3,"daisy","mis-match",1549
"599614af004c4f0001cc8642","older",13,4,"FEET","FEET",TRUE,3.2656,3,4,"crown","old-new",1549
"599614af004c4f0001cc8642","older",14,1,"?","VALLEY",FALSE,2.156295,2,1,"megaphone","old-new",1550
"599614af004c4f0001cc8642","older",14,2,"DOZEN","DOZEN",TRUE,5.11554,0,2,"basket","new-new",1550
"599614af004c4f0001cc8642","older",14,3,"?","PHOTO",FALSE,0.94751,1,3,"spoon","mis-match",1550
"599614af004c4f0001cc8642","older",14,4,"COPS","COPS",TRUE,2.41615,3,4,"pencil","match",1550
"599614af004c4f0001cc8642","older",15,1,"?","WEAPON",FALSE,1.52902,2,1,"boot","new-new",1551
"599614af004c4f0001cc8642","older",15,2,"AREA","AREA",TRUE,2.433035,0,2,"bench","old-new",1551
"599614af004c4f0001cc8642","older",15,3,"?","RIVER",FALSE,1.37736,1,3,"backpack","mis-match",1551
"599614af004c4f0001cc8642","older",15,4,"PENNY","PENNY",TRUE,2.532605,3,4,"shovel","match",1551
"599614af004c4f0001cc8642","older",16,1,"?","YEAR",FALSE,1.80429,1,1,"telephone","mis-match",1552
"599614af004c4f0001cc8642","older",16,2,"?","CANDY",FALSE,0.81614,2,2,"cart","new-new",1552
"599614af004c4f0001cc8642","older",16,3,"FLIGHT","FLIGHT",TRUE,3.49952,0,3,"tyre","match",1552
"599614af004c4f0001cc8642","older",16,4,"ARTIST","ARTIST",TRUE,3.44653,3,4,"gorilla","old-new",1552
"59bc25643c45a10001ccc775","older",1,1,"ROOF","ROOF",TRUE,5.124225,2,1,"planet","new-new",1473
"59bc25643c45a10001ccc775","older",1,2,"LOTS","LOTS",TRUE,5.128085,3,2,"bolt","match",1473
"59bc25643c45a10001ccc775","older",1,3,"?","COPS",FALSE,10.00107,0,3,"suitcase","mis-match",1473
"59bc25643c45a10001ccc775","older",1,4,"R","YARD",FALSE,3.123025,1,4,"stool","old-new",1473
"59bc25643c45a10001ccc775","older",2,1,"SHOTS","SHOTS",TRUE,5.34281,1,1,"telephone","match",1474
"59bc25643c45a10001ccc775","older",2,2,"LOTS","BOYS",FALSE,8.167185,0,2,"tyre","mis-match",1474
"59bc25643c45a10001ccc775","older",2,3,"YARD","AREA",FALSE,4.810255,3,3,"cart","new-new",1474
"59bc25643c45a10001ccc775","older",2,4,"AREA","SPIRIT",FALSE,9.97379,2,4,"basket","old-new",1474
"59bc25643c45a10001ccc775","older",3,1,"YEAR","YEAR",TRUE,5.107965,3,1,"coin","new-new",1475
"59bc25643c45a10001ccc775","older",3,2,"GIRL","GIRL",TRUE,5.194385,1,2,"map","new-new",1475
"59bc25643c45a10001ccc775","older",3,3,"FEET","FEET",TRUE,4.12383,2,3,"crown","new-new",1475
"59bc25643c45a10001ccc775","older",3,4,"YEAR","PRINCE",FALSE,4.82683,0,4,"peg","new-new",1475
"59bc25643c45a10001ccc775","older",4,1,"RECOR","RECORD",FALSE,9.9882,3,1,"razor","old-new",1476
"59bc25643c45a10001ccc775","older",4,2,"D","CASINO",FALSE,0.749275,0,2,"watch","mis-match",1476
"59bc25643c45a10001ccc775","older",4,3,"COPS","VALLEY",FALSE,5.096245,1,3,"pencil","match",1476
"59bc25643c45a10001ccc775","older",4,4,"POLICY","POLICY",TRUE,7.798985,2,4,"skateboard","new-new",1476
"59bc25643c45a10001ccc775","older",5,1,"TEAR","SPEECH",FALSE,7.98324,3,1,"motorbike","new-new",1477
"59bc25643c45a10001ccc775","older",5,2,"CASINO","MILLER",FALSE,9.13648,0,2,"balcony","new-new",1477
"59bc25643c45a10001ccc775","older",5,3,"T","TEAR",FALSE,6.61289,2,3,"shovel","new-new",1477
"59bc25643c45a10001ccc775","older",5,4,"SPEECH","DANGER",FALSE,6.91441,1,4,"tray","new-new",1477
"59bc25643c45a10001ccc775","older",6,1,"?","HOTEL",FALSE,9.98878,0,1,"megaphone","new-new",1478
"59bc25643c45a10001ccc775","older",6,2,"WEATHER","GODS",FALSE,8.53547,1,2,"windmill","new-new",1478
"59bc25643c45a10001ccc775","older",6,3,"CLOCK","CLOCK",TRUE,5.060875,2,3,"sunflower","new-new",1478
"59bc25643c45a10001ccc775","older",6,4,"WEATHER","PHOTO",FALSE,8.368525,3,4,"spoon","new-new",1478
"59bc25643c45a10001ccc775","older",7,1,"?","LETTER",FALSE,10.004065,1,1,"microphone","new-new",1479
"59bc25643c45a10001ccc775","older",7,2,"ADVICE","ADVICE",TRUE,8.619475,2,2,"dice","new-new",1479
"59bc25643c45a10001ccc775","older",7,3,"DEATH","DEATH",TRUE,3.99089,3,3,"pawn","new-new",1479
"59bc25643c45a10001ccc775","older",7,4,"ADVICE","DIRT",FALSE,9.58763,0,4,"sun","new-new",1479
"59bc25643c45a10001ccc775","older",8,1,"RAIN","ESTATE",FALSE,6.84553,2,1,"salt","new-new",1480
"59bc25643c45a10001ccc775","older",8,2,"PILLS","GLASS",FALSE,6.16696,0,2,"aeroplane","new-new",1480
"59bc25643c45a10001ccc775","older",8,3,"PILLS","PILLS",TRUE,8.015885,1,3,"ring","new-new",1480
"59bc25643c45a10001ccc775","older",8,4,"REIGN","DEMON",FALSE,7.98385,3,4,"mirror","new-new",1480
"59bc25643c45a10001ccc775","older",9,1,"CLIENT","CLIENT",TRUE,6.41261,1,1,"monkey","match",1481
"59bc25643c45a10001ccc775","older",9,2,"CANDY","CANDY",TRUE,5.54682,0,2,"perfume","mis-match",1481
"59bc25643c45a10001ccc775","older",9,3,"LIFE","STYLE",FALSE,4.425645,3,3,"pear","new-new",1481
"59bc25643c45a10001ccc775","older",9,4,"STYLE","LIFE",FALSE,7.633675,2,4,"wheel","old-new",1481
"59bc25643c45a10001ccc775","older",10,1,"MOMENT","MOMENT",TRUE,5.324055,3,1,"stamp","new-new",1482
"59bc25643c45a10001ccc775","older",10,2,"BEAUTY","BEAUTY",TRUE,7.21724,1,2,"goose","old-new",1482
"59bc25643c45a10001ccc775","older",10,3,"RIVER","RIVER",TRUE,5.09223,2,3,"rug","match",1482
"59bc25643c45a10001ccc775","older",10,4,"FOOD","FOOD",TRUE,5.679225,0,4,"gorilla","mis-match",1482
"59bc25643c45a10001ccc775","older",11,1,"FOOD","BELT",FALSE,8.349275,3,1,"backpack","old-new",1483
"59bc25643c45a10001ccc775","older",11,2,"MOMENT","MONTH",FALSE,8.787945,0,2,"cherry","new-new",1483
"59bc25643c45a10001ccc775","older",11,3,"WRITER","WRITER",TRUE,5.21054,2,3,"carrot","match",1483
"59bc25643c45a10001ccc775","older",11,4,"SAKE","SAKE",TRUE,6.354485,1,4,"cathedral","mis-match",1483
"59bc25643c45a10001ccc775","older",12,1,"SERIES","SERIES",TRUE,7.390855,0,1,"helmet","match",1484
"59bc25643c45a10001ccc775","older",12,2,"FAMILY","FAMILY",TRUE,6.896595,1,2,"diamond","mis-match",1484
"59bc25643c45a10001ccc775","older",12,3,"CAR","THING",FALSE,6.03035,3,3,"hanger","old-new",1484
"59bc25643c45a10001ccc775","older",12,4,"THING","CARS",FALSE,4.55882,2,4,"candle","new-new",1484
"59bc25643c45a10001ccc775","older",13,1,"CAR","KIND",FALSE,6.630655,0,1,"kettle","new-new",1485
"59bc25643c45a10001ccc775","older",13,2,"MILE","MILE",TRUE,4.84223,2,2,"calendar","new-new",1485
"59bc25643c45a10001ccc775","older",13,3,"DUDE","DUDE",TRUE,4.558925,3,3,"tractor","new-new",1485
"59bc25643c45a10001ccc775","older",13,4,"THING","WEAPON",FALSE,4.274505,1,4,"bench","new-new",1485
"59bc25643c45a10001ccc775","older",14,1,"LEADER","IDEAS",FALSE,7.298265,0,1,"daisy","old-new",1486
"59bc25643c45a10001ccc775","older",14,2,"END","AGENT",FALSE,4.37176,3,2,"mushroom","new-new",1486
"59bc25643c45a10001ccc775","older",14,3,"LEADER","LEADER",TRUE,5.49471,2,3,"runner","mis-match",1486
"59bc25643c45a10001ccc775","older",14,4,"SALE","SALE",TRUE,4.0079,1,4,"dart","match",1486
"59bc25643c45a10001ccc775","older",15,1,"NIGHT","NIGHT",TRUE,5.292825,2,1,"cap","match",1487
"59bc25643c45a10001ccc775","older",15,2,"?","DOZEN",FALSE,9.988205,1,2,"anchor","old-new",1487
"59bc25643c45a10001ccc775","older",15,3,"?","NATION",FALSE,10.00235,3,3,"wheelbarrow","mis-match",1487
"59bc25643c45a10001ccc775","older",15,4,"HONEY","HONEY",TRUE,6.08036,0,4,"taxi","new-new",1487
"59bc25643c45a10001ccc775","older",16,1,"APPLE","APPLE",TRUE,5.690745,1,1,"pepper","old-new",1488
"59bc25643c45a10001ccc775","older",16,2,"JUNGLE","JUNGLE",TRUE,5.979195,0,2,"boot","mis-match",1488
"59bc25643c45a10001ccc775","older",16,3,"FRIEND","FRIEND",TRUE,4.576035,2,3,"frame","match",1488
"59bc25643c45a10001ccc775","older",16,4,"SYSTEM","SYSTEM",TRUE,5.44409,3,4,"scissors","new-new",1488
"59e71906ac0af70001b36a06","younger",1,1,"LEADER","LEADER",TRUE,2.032045,2,1,"runner","mis-match",321
"59e71906ac0af70001b36a06","younger",1,2,"IDEAS","IDEAS",TRUE,1.332385,0,2,"daisy","old-new",321
"59e71906ac0af70001b36a06","younger",1,3,"AGENT","AGENT",TRUE,1.88244,3,3,"mushroom","new-new",321
"59e71906ac0af70001b36a06","younger",1,4,"SALE","SALE",TRUE,1.415845,1,4,"dart","match",321
"59e71906ac0af70001b36a06","younger",2,1,"FEET","FEET",TRUE,3.03155,2,1,"crown","new-new",322
"59e71906ac0af70001b36a06","younger",2,2,"GIRLS","GIRL",FALSE,2.315785,1,2,"map","new-new",322
"59e71906ac0af70001b36a06","younger",2,3,"PRINCE","PRINCE",TRUE,1.915905,0,3,"peg","new-new",322
"59e71906ac0af70001b36a06","younger",2,4,"PEG","YEAR",FALSE,3.13202,3,4,"coin","new-new",322
"59e71906ac0af70001b36a06","younger",3,1,"NIGHT","NIGHT",TRUE,1.798725,2,1,"cap","match",323
"59e71906ac0af70001b36a06","younger",3,2,"HOUSE","DOZEN",FALSE,1.86587,1,2,"anchor","old-new",323
"59e71906ac0af70001b36a06","younger",3,3,"?","HONEY",FALSE,5.864195,0,3,"taxi","new-new",323
"59e71906ac0af70001b36a06","younger",3,4,"LEADER","NATION",FALSE,2.198835,3,4,"wheelbarrow","mis-match",323
"59e71906ac0af70001b36a06","younger",4,1,"KIND","KIND",TRUE,2.081925,0,1,"kettle","new-new",324
"59e71906ac0af70001b36a06","younger",4,2,"DUDE","DUDE",TRUE,2.94891,3,2,"tractor","new-new",324
"59e71906ac0af70001b36a06","younger",4,3,"WEAPON","MILE",FALSE,3.448465,2,3,"calendar","new-new",324
"59e71906ac0af70001b36a06","younger",4,4,"MILD","WEAPON",FALSE,3.64843,1,4,"bench","new-new",324
"59e71906ac0af70001b36a06","younger",5,1,"AREA","AREA",TRUE,3.314775,3,1,"cart","new-new",325
"59e71906ac0af70001b36a06","younger",5,2,"SPIRIT","SPIRIT",TRUE,2.398915,2,2,"basket","old-new",325
"59e71906ac0af70001b36a06","younger",5,3,"BOYS","BOYS",TRUE,1.59908,0,3,"tyre","mis-match",325
"59e71906ac0af70001b36a06","younger",5,4,"SHOTS","SHOTS",TRUE,1.615725,1,4,"telephone","match",325
"59e71906ac0af70001b36a06","younger",6,1,"MILLER","MILLER",TRUE,1.982065,0,1,"balcony","new-new",326
"59e71906ac0af70001b36a06","younger",6,2,"DANGER","DANGER",TRUE,1.532485,1,2,"tray","new-new",326
"59e71906ac0af70001b36a06","younger",6,3,"SPEECH","SPEECH",TRUE,2.365585,3,3,"motorbike","new-new",326
"59e71906ac0af70001b36a06","younger",6,4,"TEAR","TEAR",TRUE,1.51569,2,4,"shovel","new-new",326
"59e71906ac0af70001b36a06","younger",7,1,"SERIES","SERIES",TRUE,1.598715,0,1,"helmet","match",327
"59e71906ac0af70001b36a06","younger",7,2,"FAMILY","FAMILY",TRUE,1.799325,1,2,"diamond","mis-match",327
"59e71906ac0af70001b36a06","younger",7,3,"THING","THING",TRUE,1.999095,3,3,"hanger","old-new",327
"59e71906ac0af70001b36a06","younger",7,4,"CAR","CARS",FALSE,1.38238,2,4,"candle","new-new",327
"59e71906ac0af70001b36a06","younger",8,1,"JUNGLE","JUNGLE",TRUE,2.13161,0,1,"boot","mis-match",328
"59e71906ac0af70001b36a06","younger",8,2,"SYSTEM","SYSTEM",TRUE,2.432425,3,2,"scissors","new-new",328
"59e71906ac0af70001b36a06","younger",8,3,"APPLE","APPLE",TRUE,1.315925,1,3,"pepper","old-new",328
"59e71906ac0af70001b36a06","younger",8,4,"FRIEND","FRIEND",TRUE,2.598915,2,4,"frame","match",328
"59e71906ac0af70001b36a06","younger",9,1,"CANDY","CANDY",TRUE,1.66425,0,1,"perfume","mis-match",329
"59e71906ac0af70001b36a06","younger",9,2,"CLIENT","LIFE",FALSE,1.732625,2,2,"wheel","old-new",329
"59e71906ac0af70001b36a06","younger",9,3,"LIFE","CLIENT",FALSE,1.9825,1,3,"monkey","match",329
"59e71906ac0af70001b36a06","younger",9,4,"STYLE","STYLE",TRUE,3.3488,3,4,"pear","new-new",329
"59e71906ac0af70001b36a06","younger",10,1,"VALLEY","VALLEY",TRUE,2.247635,1,1,"pencil","match",330
"59e71906ac0af70001b36a06","younger",10,2,"POLICY","POLICY",TRUE,2.04927,2,2,"skateboard","new-new",330
"59e71906ac0af70001b36a06","younger",10,3,"CASINO","RECORD",FALSE,4.6486,3,3,"razor","old-new",330
"59e71906ac0af70001b36a06","younger",10,4,"CASINO","CASINO",TRUE,2.88185,0,4,"watch","mis-match",330
"59e71906ac0af70001b36a06","younger",11,1,"ESTATE","ESTATE",TRUE,2.84842,2,1,"salt","new-new",331
"59e71906ac0af70001b36a06","younger",11,2,"PILLS","PILLS",TRUE,2.265835,1,2,"ring","new-new",331
"59e71906ac0af70001b36a06","younger",11,3,"GLASS","GLASS",TRUE,1.56595,0,3,"aeroplane","new-new",331
"59e71906ac0af70001b36a06","younger",11,4,"DEMON","DEMON",TRUE,1.61614,3,4,"mirror","new-new",331
"59e71906ac0af70001b36a06","younger",12,1,"GODS","HOTEL",FALSE,3.314965,0,1,"megaphone","new-new",332
"59e71906ac0af70001b36a06","younger",12,2,"PHOTO","PHOTO",TRUE,2.43236,3,2,"spoon","new-new",332
"59e71906ac0af70001b36a06","younger",12,3,"?","GODS",FALSE,1.948995,1,3,"windmill","new-new",332
"59e71906ac0af70001b36a06","younger",12,4,"GODS","CLOCK",FALSE,2.615765,2,4,"sunflower","new-new",332
"59e71906ac0af70001b36a06","younger",13,1,"YARD","YARD",TRUE,2.54828,1,1,"stool","old-new",333
"59e71906ac0af70001b36a06","younger",13,2,"COPS","COPS",TRUE,1.515825,0,2,"suitcase","mis-match",333
"59e71906ac0af70001b36a06","younger",13,3,"LOTS","LOTS",TRUE,1.63244,3,3,"bolt","match",333
"59e71906ac0af70001b36a06","younger",13,4,"PHOTO","ROOF",FALSE,3.46544,2,4,"planet","new-new",333
"59e71906ac0af70001b36a06","younger",14,1,"MOMENT","MOMENT",TRUE,2.28182,3,1,"stamp","new-new",334
"59e71906ac0af70001b36a06","younger",14,2,"RIVER","RIVER",TRUE,1.499195,2,2,"rug","match",334
"59e71906ac0af70001b36a06","younger",14,3,"BEAUTY","BEAUTY",TRUE,4.148675,1,3,"goose","old-new",334
"59e71906ac0af70001b36a06","younger",14,4,"FOOD","FOOD",TRUE,1.065845,0,4,"gorilla","mis-match",334
"59e71906ac0af70001b36a06","younger",15,1,"ADVISE","ADVICE",FALSE,2.764985,2,1,"dice","new-new",335
"59e71906ac0af70001b36a06","younger",15,2,"DIRT","LETTER",FALSE,1.999245,1,2,"microphone","new-new",335
"59e71906ac0af70001b36a06","younger",15,3,"RIVER","DIRT",FALSE,1.416055,0,3,"sun","new-new",335
"59e71906ac0af70001b36a06","younger",15,4,"DEATH","DEATH",TRUE,1.199135,3,4,"pawn","new-new",335
"59e71906ac0af70001b36a06","younger",16,1,"SAKE","SAKE",TRUE,3.764855,1,1,"cathedral","mis-match",336
"59e71906ac0af70001b36a06","younger",16,2,"MONTH","MONTH",TRUE,2.09902,0,2,"cherry","new-new",336
"59e71906ac0af70001b36a06","younger",16,3,"BELT","BELT",TRUE,3.26542,3,3,"backpack","old-new",336
"59e71906ac0af70001b36a06","younger",16,4,"WRITER","WRITER",TRUE,2.565615,2,4,"carrot","match",336
"59e7362fe75b450001a69349","older",1,1,"PHOTO","PHOTO",TRUE,9.987,1,1,"spoon","mis-match",1153
"59e7362fe75b450001a69349","older",1,2,"DOZEN","DOZEN",TRUE,9.989,0,2,"basket","new-new",1153
"59e7362fe75b450001a69349","older",1,3,"?","COPS",FALSE,0.514,3,3,"pencil","match",1153
"59e7362fe75b450001a69349","older",1,4,"?","VALLEY",FALSE,9.991,2,4,"megaphone","old-new",1153
"59e7362fe75b450001a69349","older",2,1,"SYSTEM","SYSTEM",TRUE,6.616,1,1,"peg","new-new",1154
"59e7362fe75b450001a69349","older",2,2,"SALE","SALE",TRUE,6.187,0,2,"kettle","new-new",1154
"59e7362fe75b450001a69349","older",2,3,"ESTATE","ESTATE",TRUE,9.991,2,3,"dart","new-new",1154
"59e7362fe75b450001a69349","older",2,4,"HOUSE","HOUSE",TRUE,6.254,3,4,"goose","new-new",1154
"59e7362fe75b450001a69349","older",3,1,"PENNY","PENNY",TRUE,6.838,3,1,"shovel","match",1155
"59e7362fe75b450001a69349","older",3,2,"AREA","AREA",TRUE,7.604,0,2,"bench","old-new",1155
"59e7362fe75b450001a69349","older",3,3,"WEAPON","WEAPON",TRUE,9.99,2,3,"boot","new-new",1155
"59e7362fe75b450001a69349","older",3,4,"RIVER","RIVER",TRUE,7.553,1,4,"backpack","mis-match",1155
"59e7362fe75b450001a69349","older",4,1,"PLENTY","KIND",FALSE,6.968,2,1,"perfume","old-new",1156
"59e7362fe75b450001a69349","older",4,2,"KIND","PLENTY",FALSE,7.572,1,2,"diamond","mis-match",1156
"59e7362fe75b450001a69349","older",4,3,"?","CLOCK",FALSE,9.988,0,3,"bolt","match",1156
"59e7362fe75b450001a69349","older",4,4,"YARD","YARD",TRUE,4.804,3,4,"mushroom","new-new",1156
"59e7362fe75b450001a69349","older",5,1,"FLIGHT","FLIGHT",TRUE,7.601,0,1,"tyre","match",1157
"59e7362fe75b450001a69349","older",5,2,"YEAR","YEAR",TRUE,7.337,1,2,"telephone","mis-match",1157
"59e7362fe75b450001a69349","older",5,3,"CANDY","CANDY",TRUE,9.055,2,3,"cart","new-new",1157
"59e7362fe75b450001a69349","older",5,4,"ARTIST","ARTIST",TRUE,7.938,3,4,"gorilla","old-new",1157
"59e7362fe75b450001a69349","older",6,1,"DIRT","DIRT",TRUE,7.487,0,1,"mirror","new-new",1158
"59e7362fe75b450001a69349","older",6,2,"JUNGLE","FRIEND",FALSE,8.088,3,2,"taxi","old-new",1158
"59e7362fe75b450001a69349","older",6,3,"THING","THING",TRUE,7.791,2,3,"runner","mis-match",1158
"59e7362fe75b450001a69349","older",6,4,"THING","JUNGLE",FALSE,7.955,1,4,"anchor","match",1158
"59e7362fe75b450001a69349","older",7,1,"DANGER","DANGER",TRUE,7.836,2,1,"skateboard","new-new",1159
"59e7362fe75b450001a69349","older",7,2,"NATION","NATION",TRUE,8.772,0,2,"pepper","new-new",1159
"59e7362fe75b450001a69349","older",7,3,"POLICY","POLICY",TRUE,8.071,1,3,"frame","new-new",1159
"59e7362fe75b450001a69349","older",7,4,"RE","RECORD",FALSE,9.99,3,4,"sun","new-new",1159
"59e7362fe75b450001a69349","older",8,1,"CASINO","CASINO",TRUE,8.152,2,1,"map","mis-match",1160
"59e7362fe75b450001a69349","older",8,2,"SPEECH","SPEECH",TRUE,6.79,3,2,"pear","new-new",1160
"59e7362fe75b450001a69349","older",8,3,"AGENT","APPLE",FALSE,7.186,1,3,"stool","old-new",1160
"59e7362fe75b450001a69349","older",8,4,"SAKE","SAKE",TRUE,3.285,0,4,"ring","match",1160
"59e7362fe75b450001a69349","older",9,1,"SHOTS","SHOTS",TRUE,6.366,1,1,"scissors","new-new",1161
"59e7362fe75b450001a69349","older",9,2,"LEADER","LEADER",TRUE,4.852,0,2,"helmet","match",1161
"59e7362fe75b450001a69349","older",9,3,"CLIENT","CLIENT",TRUE,8.087,2,3,"carrot","mis-match",1161
"59e7362fe75b450001a69349","older",9,4,"LIFE","LIFE",TRUE,6.22,3,4,"razor","old-new",1161
"59e7362fe75b450001a69349","older",10,1,"LETTER","MILLER",FALSE,7.885,2,1,"sunflower","new-new",1162
"59e7362fe75b450001a69349","older",10,2,"LETTER","LETTER",TRUE,9.989,1,2,"hanger","new-new",1162
"59e7362fe75b450001a69349","older",10,3,"?","FOOD",FALSE,0.066,0,3,"cathedral","new-new",1162
"59e7362fe75b450001a69349","older",10,4,"MOMENT","MOMENT",TRUE,5.622,3,4,"aeroplane","new-new",1162
"59e7362fe75b450001a69349","older",11,1,"BELT","ADVICE",FALSE,6.837,2,1,"stamp","mis-match",1163
"59e7362fe75b450001a69349","older",11,2,"LOTS","LOTS",TRUE,4.384,0,2,"microphone","match",1163
"59e7362fe75b450001a69349","older",11,3,"YEAR","TEAR",FALSE,7.269,3,3,"calendar","new-new",1163
"59e7362fe75b450001a69349","older",11,4,"ADVICE","BELT",FALSE,6.388,1,4,"wheelbarrow","old-new",1163
"59e7362fe75b450001a69349","older",12,1,"DEMON","DEMON",TRUE,9.988,1,1,"salt","new-new",1164
"59e7362fe75b450001a69349","older",12,2,"FEET","FEET",TRUE,5.318,3,2,"crown","old-new",1164
"59e7362fe75b450001a69349","older",12,3,"GLASS","GLASS",TRUE,6.407,0,3,"rug","match",1164
"59e7362fe75b450001a69349","older",12,4,"B","BATH",FALSE,9.989,2,4,"daisy","mis-match",1164
"59e7362fe75b450001a69349","older",13,1,"WA","WOMEN",FALSE,10.004,0,1,"wheel","mis-match",1165
"59e7362fe75b450001a69349","older",13,2,"BO","BODY",FALSE,9.989,3,2,"cherry","old-new",1165
"59e7362fe75b450001a69349","older",13,3,"BODY","GIRL",FALSE,8.053,2,3,"tray","match",1165
"59e7362fe75b450001a69349","older",13,4,"P","PRINCE",FALSE,9.99,1,4,"windmill","new-new",1165
"59e7362fe75b450001a69349","older",14,1,"NIGHT","NIGHT",TRUE,5.367,3,1,"cap","new-new",1166
"59e7362fe75b450001a69349","older",14,2,"ROOF","ROOF",TRUE,5.62,0,2,"planet","new-new",1166
"59e7362fe75b450001a69349","older",14,3,"WRITER","WRITER",TRUE,7.972,1,3,"watch","new-new",1166
"59e7362fe75b450001a69349","older",14,4,"DEATH","DEATH",TRUE,5.837,2,4,"suitcase","new-new",1166
"59e7362fe75b450001a69349","older",15,1,"MILE","MILE",TRUE,8.921,3,1,"dice","new-new",1167
"59e7362fe75b450001a69349","older",15,2,"CARS","CARS",TRUE,6.357,0,2,"motorbike","new-new",1167
"59e7362fe75b450001a69349","older",15,3,"BOYS","BOYS",TRUE,5.634,1,3,"monkey","new-new",1167
"59e7362fe75b450001a69349","older",15,4,"SPIRI","SPIRIT",FALSE,9.991,2,4,"tractor","new-new",1167
"59e7362fe75b450001a69349","older",16,1,"SERIES","STYLE",FALSE,8.687,2,1,"pawn","new-new",1168
"59e7362fe75b450001a69349","older",16,2,"FLESH","FLESH",TRUE,7.807,0,2,"balcony","new-new",1168
"59e7362fe75b450001a69349","older",16,3,"TE","IDEAS",FALSE,9.989,3,3,"candle","new-new",1168
"59e7362fe75b450001a69349","older",16,4,"ARS","SERIES",FALSE,1.684,1,4,"coin","new-new",1168
"5a3117d0715d6a0001118bfc","younger",1,1,"AREA","AREA",TRUE,2.35121,2,1,"shovel","match",545
"5a3117d0715d6a0001118bfc","younger",1,2,"ADVICE","ADVICE",TRUE,2.085265,0,2,"megaphone","new-new",545
"5a3117d0715d6a0001118bfc","younger",1,3,"DEMON","DEMON",TRUE,1.41781,1,3,"telephone","mis-match",545
"5a3117d0715d6a0001118bfc","younger",1,4,"SAKE","SAKE",TRUE,0.717545,3,4,"motorbike","old-new",545
"5a3117d0715d6a0001118bfc","younger",2,1,"NIGHT","NIGHT",TRUE,2.16794,3,1,"bench","new-new",546
"5a3117d0715d6a0001118bfc","younger",2,2,"PILLS","PILLS",TRUE,1.85106,0,2,"skateboard","new-new",546
"5a3117d0715d6a0001118bfc","younger",2,3,"RECORD","RECORD",TRUE,4.003525,1,3,"razor","new-new",546
"5a3117d0715d6a0001118bfc","younger",2,4,"FAMILY","FAMILY",TRUE,1.467505,2,4,"ring","new-new",546
"5a3117d0715d6a0001118bfc","younger",3,1,"LOTS","LOTS",TRUE,1.93389,3,1,"backpack","new-new",547
"5a3117d0715d6a0001118bfc","younger",3,2,"FLESH","FLESH",TRUE,1.63472,1,2,"windmill","new-new",547
"5a3117d0715d6a0001118bfc","younger",3,3,"DOZEN","DOZEN",TRUE,2.135255,0,3,"gorilla","new-new",547
"5a3117d0715d6a0001118bfc","younger",3,4,"CARS","CARS",TRUE,1.72021,2,4,"tray","new-new",547
"5a3117d0715d6a0001118bfc","younger",4,1,"SPEECH","SPEECH",TRUE,2.785285,2,1,"carrot","mis-match",548
"5a3117d0715d6a0001118bfc","younger",4,2,"YARD","YARD",TRUE,1.41764,0,2,"monkey","match",548
"5a3117d0715d6a0001118bfc","younger",4,3,"DIRT","DIRT",TRUE,1.601305,1,3,"scissors","old-new",548
"5a3117d0715d6a0001118bfc","younger",4,4,"MILE","MILE",TRUE,2.0851,3,4,"taxi","new-new",548
"5a3117d0715d6a0001118bfc","younger",5,1,"STYLE","STYLE",TRUE,2.2512,3,1,"suitcase","match",549
"5a3117d0715d6a0001118bfc","younger",5,2,"PLENTY","PLENTY",TRUE,2.118485,1,2,"salt","mis-match",549
"5a3117d0715d6a0001118bfc","younger",5,3,"CLOCK","CLOCK",TRUE,1.584505,2,3,"pear","new-new",549
"5a3117d0715d6a0001118bfc","younger",5,4,"HONEY","HONEY",TRUE,1.651245,0,4,"kettle","old-new",549
"5a3117d0715d6a0001118bfc","younger",6,1,"ARTIST","ARTIST",TRUE,2.434485,1,1,"calendar","mis-match",550
"5a3117d0715d6a0001118bfc","younger",6,2,"LETTER","LETTER",TRUE,1.91823,3,2,"mirror","match",550
"5a3117d0715d6a0001118bfc","younger",6,3,"SYSTEM","SYSTEM",TRUE,1.86812,0,3,"sun","new-new",550
"5a3117d0715d6a0001118bfc","younger",6,4,"TEAR","TEAR",TRUE,1.584635,2,4,"hanger","old-new",550
"5a3117d0715d6a0001118bfc","younger",7,1,"CASINO","CASINO",TRUE,2.267905,2,1,"helmet","match",551
"5a3117d0715d6a0001118bfc","younger",7,2,"GIRL","GIRL",TRUE,2.569185,3,2,"pencil","old-new",551
"5a3117d0715d6a0001118bfc","younger",7,3,"PHOTO","PHOTO",TRUE,6.039085,1,3,"cathedral","mis-match",551
"5a3117d0715d6a0001118bfc","younger",7,4,"ESTATE","ESTATE",TRUE,2.6354,0,4,"map","new-new",551
"5a3117d0715d6a0001118bfc","younger",8,1,"SALE","SALE",TRUE,2.60143,1,1,"diamond","new-new",552
"5a3117d0715d6a0001118bfc","younger",8,2,"SERIES","SERIES",TRUE,1.91741,0,2,"tyre","new-new",552
"5a3117d0715d6a0001118bfc","younger",8,3,"MILLER","MILLER",TRUE,1.751315,3,3,"bolt","new-new",552
"5a3117d0715d6a0001118bfc","younger",8,4,"AGENT","AGENT",TRUE,1.717905,2,4,"goose","new-new",552
"5a3117d0715d6a0001118bfc","younger",9,1,"RIVER","JUNGLE",FALSE,5.872465,1,1,"planet","old-new",553
"5a3117d0715d6a0001118bfc","younger",9,2,"BATH","BATH",TRUE,4.008345,2,2,"spoon","match",553
"5a3117d0715d6a0001118bfc","younger",9,3,"BELT","BELT",TRUE,1.633425,3,3,"wheelbarrow","new-new",553
"5a3117d0715d6a0001118bfc","younger",9,4,"POLICY","POLICY",TRUE,1.98513,0,4,"pepper","mis-match",553
"5a3117d0715d6a0001118bfc","younger",10,1,"TOILET","TOILET",TRUE,2.53486,2,1,"anchor","mis-match",554
"5a3117d0715d6a0001118bfc","younger",10,2,"PENNY","PENNY",TRUE,2.75248,1,2,"stool","new-new",554
"5a3117d0715d6a0001118bfc","younger",10,3,"NATION","NATION",TRUE,2.16855,3,3,"stamp","match",554
"5a3117d0715d6a0001118bfc","younger",10,4,"BODY","BODY",TRUE,1.95137,0,4,"daisy","old-new",554
"5a3117d0715d6a0001118bfc","younger",11,1,"DANGER","DANGER",TRUE,2.51793,0,1,"crown","new-new",555
"5a3117d0715d6a0001118bfc","younger",11,2,"GODS","GODS",TRUE,1.50123,2,2,"perfume","new-new",555
"5a3117d0715d6a0001118bfc","younger",11,3,"FRIEND","FRIEND",TRUE,1.718355,3,3,"balcony","new-new",555
"5a3117d0715d6a0001118bfc","younger",11,4,"VALLEY","VALLEY",TRUE,3.95385,1,4,"basket","new-new",555
"5a3117d0715d6a0001118bfc","younger",12,1,"IDEAS","IDEAS",TRUE,2.117775,3,1,"coin","mis-match",556
"5a3117d0715d6a0001118bfc","younger",12,2,"APPLE","APPLE",TRUE,1.56778,0,2,"dice","new-new",556
"5a3117d0715d6a0001118bfc","younger",12,3,"ROOF","ROOF",TRUE,1.300875,2,3,"rug","match",556
"5a3117d0715d6a0001118bfc","younger",12,4,"MOM","MOMENT",FALSE,9.993085,1,4,"boot","old-new",556
"5a3117d0715d6a0001118bfc","younger",13,1,"CLIENT","CANDY",FALSE,8.69098,1,1,"tractor","new-new",557
"5a3117d0715d6a0001118bfc","younger",13,2,"CLIENT","CLIENT",TRUE,2.668685,3,2,"watch","new-new",557
"5a3117d0715d6a0001118bfc","younger",13,3,"FLIGHT","FLIGHT",TRUE,1.7682,0,3,"wheel","new-new",557
"5a3117d0715d6a0001118bfc","younger",13,4,"FEET","FEET",TRUE,1.401295,2,4,"runner","new-new",557
"5a3117d0715d6a0001118bfc","younger",14,1,"SHOTS","SHOTS",TRUE,1.784335,2,1,"cart","new-new",558
"5a3117d0715d6a0001118bfc","younger",14,2,"LEADER","LEADER",TRUE,2.568795,0,2,"sunflower","new-new",558
"5a3117d0715d6a0001118bfc","younger",14,3,"LIFE","LIFE",TRUE,1.6182,3,3,"pawn","new-new",558
"5a3117d0715d6a0001118bfc","younger",14,4,"DEATH","DEATH",TRUE,1.95164,1,4,"aeroplane","new-new",558
"5a3117d0715d6a0001118bfc","younger",15,1,"WOMEN","WOMEN",TRUE,3.135525,3,1,"microphone","old-new",559
"5a3117d0715d6a0001118bfc","younger",15,2,"WEAPON","WEAPON",TRUE,1.75127,2,2,"cherry","new-new",559
"5a3117d0715d6a0001118bfc","younger",15,3,"WRITER","WRITER",TRUE,2.81922,0,3,"cap","mis-match",559
"5a3117d0715d6a0001118bfc","younger",15,4,"KIND","KIND",TRUE,1.334505,1,4,"candle","match",559
"5a3117d0715d6a0001118bfc","younger",16,1,"FOOD","FOOD",TRUE,2.752255,1,1,"dart","new-new",560
"5a3117d0715d6a0001118bfc","younger",16,2,"HOUSE","HOUSE",TRUE,1.534565,2,2,"mushroom","match",560
"5a3117d0715d6a0001118bfc","younger",16,3,"PRINCE","PRINCE",TRUE,1.81825,3,3,"peg","mis-match",560
"5a3117d0715d6a0001118bfc","younger",16,4,"THING","THING",TRUE,1.851795,0,4,"frame","old-new",560
"5a6adef80384310001944ba8","older",1,1,"?","ADVICE",FALSE,0.69803,0,1,"calendar","mis-match",849
"5a6adef80384310001944ba8","older",1,2,"?","DIRT",FALSE,0.83305,1,2,"ring","old-new",849
"5a6adef80384310001944ba8","older",1,3,"ROOF","ROOF",TRUE,3.749865,2,3,"basket","match",849
"5a6adef80384310001944ba8","older",1,4,"?","LOTS",FALSE,1.31592,3,4,"spoon","new-new",849
"5a6adef80384310001944ba8","older",2,1,"?","CLIENT",FALSE,0.5983,0,1,"peg","old-new",850
"5a6adef80384310001944ba8","older",2,2,"?","CANDY",FALSE,0.68286,1,2,"stamp","match",850
"5a6adef80384310001944ba8","older",2,3,"?","RECORD",FALSE,0.53284,3,3,"dart","mis-match",850
"5a6adef80384310001944ba8","older",2,4,"?","CARS",FALSE,0.5496,2,4,"motorbike","new-new",850
"5a6adef80384310001944ba8","older",3,1,"?","FRIEND",FALSE,1.13184,2,1,"cart","new-new",851
"5a6adef80384310001944ba8","older",3,2,"?","DEATH",FALSE,1.01616,3,2,"pencil","new-new",851
"5a6adef80384310001944ba8","older",3,3,"?","FOOD",FALSE,0.83288,0,3,"telephone","new-new",851
"5a6adef80384310001944ba8","older",3,4,"?","GODS",FALSE,0.516185,1,4,"sun","new-new",851
"5a6adef80384310001944ba8","older",4,1,"?","DOZEN",FALSE,0.91489,2,1,"wheelbarrow","old-new",852
"5a6adef80384310001944ba8","older",4,2,"?","TOILET",FALSE,0.699445,0,2,"scissors","mis-match",852
"5a6adef80384310001944ba8","older",4,3,"?","ARTIST",FALSE,0.58312,3,3,"daisy","new-new",852
"5a6adef80384310001944ba8","older",4,4,"?","WRITER",FALSE,0.49955,1,4,"rug","match",852
"5a6adef80384310001944ba8","older",5,1,"?","RIVER",FALSE,0.59847,1,1,"tray","new-new",853
"5a6adef80384310001944ba8","older",5,2,"?","WOMEN",FALSE,0.48274,3,2,"watch","new-new",853
"5a6adef80384310001944ba8","older",5,3,"?","NIGHT",FALSE,0.48495,0,3,"perfume","new-new",853
"5a6adef80384310001944ba8","older",5,4,"?","CLOCK",FALSE,0.482715,2,4,"runner","new-new",853
"5a6adef80384310001944ba8","older",6,1,"?","TEAR",FALSE,1.615355,1,1,"shovel","new-new",854
"5a6adef80384310001944ba8","older",6,2,"?","HOUSE",FALSE,1.182835,0,2,"goose","new-new",854
"5a6adef80384310001944ba8","older",6,3,"?","YEAR",FALSE,1.116335,2,3,"mushroom","new-new",854
"5a6adef80384310001944ba8","older",6,4,"?","BATH",FALSE,1.066235,3,4,"skateboard","new-new",854
"5a6adef80384310001944ba8","older",7,1,"?","APPLE",FALSE,0.79635,0,1,"kettle","new-new",855
"5a6adef80384310001944ba8","older",7,2,"?","KIND",FALSE,1.51606,2,2,"dice","match",855
"5a6adef80384310001944ba8","older",7,3,"?","DANGER",FALSE,1.249595,3,3,"megaphone","mis-match",855
"5a6adef80384310001944ba8","older",7,4,"?","SHOTS",FALSE,0.416105,1,4,"bolt","old-new",855
"5a6adef80384310001944ba8","older",8,1,"?","MILE",FALSE,1.06524,0,1,"anchor","mis-match",856
"5a6adef80384310001944ba8","older",8,2,"?","HONEY",FALSE,0.549685,1,2,"cherry","new-new",856
"5a6adef80384310001944ba8","older",8,3,"COPS","COPS",TRUE,3.782835,2,3,"wheel","match",856
"5a6adef80384310001944ba8","older",8,4,"?","PENNY",FALSE,1.38293,3,4,"microphone","old-new",856
"5a6adef80384310001944ba8","older",9,1,"?","CASINO",FALSE,0.597955,1,1,"carrot","new-new",857
"5a6adef80384310001944ba8","older",9,2,"?","SERIES",FALSE,0.56612,0,2,"helmet","new-new",857
"5a6adef80384310001944ba8","older",9,3,"?","BEAUTY",FALSE,0.58284,2,3,"taxi","new-new",857
"5a6adef80384310001944ba8","older",9,4,"?","DEMON",FALSE,0.582975,3,4,"diamond","new-new",857
"5a6adef80384310001944ba8","older",10,1,"?","SPEECH",FALSE,0.86511,2,1,"backpack","new-new",858
"5a6adef80384310001944ba8","older",10,2,"?","MILLER",FALSE,0.565965,1,2,"suitcase","match",858
"5a6adef80384310001944ba8","older",10,3,"?","FAMILY",FALSE,0.683015,0,3,"candle","mis-match",858
"5a6adef80384310001944ba8","older",10,4,"?","GIRL",FALSE,0.5997,3,4,"mirror","old-new",858
"5a6adef80384310001944ba8","older",11,1,"?","HOTEL",FALSE,0.615085,3,1,"planet","new-new",859
"5a6adef80384310001944ba8","older",11,2,"?","SPIRIT",FALSE,0.649435,0,2,"coin","new-new",859
"5a6adef80384310001944ba8","older",11,3,"?","LEADER",FALSE,0.497775,1,3,"cathedral","new-new",859
"5a6adef80384310001944ba8","older",11,4,"?","IDEAS",FALSE,0.515755,2,4,"cap","new-new",859
"5a6adef80384310001944ba8","older",12,1,"?","NATION",FALSE,0.68206,2,1,"gorilla","old-new",860
"5a6adef80384310001944ba8","older",12,2,"?","BOYS",FALSE,0.799545,1,2,"pear","match",860
"5a6adef80384310001944ba8","older",12,3,"?","PRINCE",FALSE,0.68293,3,3,"windmill","new-new",860
"5a6adef80384310001944ba8","older",12,4,"?","JUNGLE",FALSE,0.566165,0,4,"razor","mis-match",860
"5a6adef80384310001944ba8","older",13,1,"?","THING",FALSE,0.51497,2,1,"bench","match",861
"5a6adef80384310001944ba8","older",13,2,"?","GLASS",FALSE,0.432845,0,2,"crown","old-new",861
"5a6adef80384310001944ba8","older",13,3,"?","SYSTEM",FALSE,0.43285,1,3,"sunflower","new-new",861
"5a6adef80384310001944ba8","older",13,4,"?","FLIGHT",FALSE,0.466075,3,4,"pawn","mis-match",861
"5a6adef80384310001944ba8","older",14,1,"?","PLENTY",FALSE,0.51477,0,1,"monkey","mis-match",862
"5a6adef80384310001944ba8","older",14,2,"?","PILLS",FALSE,0.44953,3,2,"hanger","old-new",862
"5a6adef80384310001944ba8","older",14,3,"?","DUDE",FALSE,0.499445,2,3,"pepper","match",862
"5a6adef80384310001944ba8","older",14,4,"?","FLESH",FALSE,0.449695,1,4,"balcony","new-new",862
"5a6adef80384310001944ba8","older",15,1,"?","ESTATE",FALSE,1.064805,2,1,"tractor","new-new",863
"5a6adef80384310001944ba8","older",15,2,"?","AREA",FALSE,0.716155,1,2,"frame","new-new",863
"5a6adef80384310001944ba8","older",15,3,"?","BELT",FALSE,0.6829,0,3,"stool","new-new",863
"5a6adef80384310001944ba8","older",15,4,"?","AGENT",FALSE,0.5661,3,4,"salt","new-new",863
"5a6adef80384310001944ba8","older",16,1,"?","SAKE",FALSE,0.63195,1,1,"aeroplane","old-new",864
"5a6adef80384310001944ba8","older",16,2,"?","YARD",FALSE,0.499705,2,2,"tyre","match",864
"5a6adef80384310001944ba8","older",16,3,"?","STYLE",FALSE,0.46621,0,3,"boot","new-new",864
"5a6adef80384310001944ba8","older",16,4,"?","SALE",FALSE,0.482685,3,4,"map","mis-match",864
"5a8035cfaa46dd00016b7793","older",1,1,"FOOD","FOOD",TRUE,6.769,1,1,"dart","new-new",1025
"5a8035cfaa46dd00016b7793","older",1,2,"THING","HOUSE",FALSE,6.924,2,2,"mushroom","match",1025
"5a8035cfaa46dd00016b7793","older",1,3,"HOUSE","THING",FALSE,4.105,0,3,"frame","old-new",1025
"5a8035cfaa46dd00016b7793","older",1,4,"PRINCE","PRINCE",TRUE,4.989,3,4,"peg","mis-match",1025
"5a8035cfaa46dd00016b7793","older",2,1,"DANCE","DANGER",FALSE,4.771,0,1,"crown","new-new",1026
"5a8035cfaa46dd00016b7793","older",2,2,"VALLEY","VALLEY",TRUE,4.105,1,2,"basket","new-new",1026
"5a8035cfaa46dd00016b7793","older",2,3,"FRIEND","FRIEND",TRUE,5.433,3,3,"balcony","new-new",1026
"5a8035cfaa46dd00016b7793","older",2,4,"GODS","GODS",TRUE,3.172,2,4,"perfume","new-new",1026
"5a8035cfaa46dd00016b7793","older",3,1,"CASINO","CASINO",TRUE,5.323,2,1,"helmet","match",1027
"5a8035cfaa46dd00016b7793","older",3,2,"GIRL","GIRL",TRUE,3.537,3,2,"pencil","old-new",1027
"5a8035cfaa46dd00016b7793","older",3,3,"ESTATE","ESTATE",TRUE,3.955,0,3,"map","new-new",1027
"5a8035cfaa46dd00016b7793","older",3,4,"PHOTO","PHOTO",TRUE,3.716,1,4,"cathedral","mis-match",1027
"5a8035cfaa46dd00016b7793","older",4,1,"SALE","SALE",TRUE,4.521,1,1,"diamond","new-new",1028
"5a8035cfaa46dd00016b7793","older",4,2,"AGENT","SERIES",FALSE,8.777,0,2,"tyre","new-new",1028
"5a8035cfaa46dd00016b7793","older",4,3,"SERIES","AGENT",FALSE,4.071,2,3,"goose","new-new",1028
"5a8035cfaa46dd00016b7793","older",4,4,"MILLER","MILLER",TRUE,3.322,3,4,"bolt","new-new",1028
"5a8035cfaa46dd00016b7793","older",5,1,"?","LIFE",FALSE,0.517,3,1,"pawn","new-new",1029
"5a8035cfaa46dd00016b7793","older",5,2,"DEATH","DEATH",TRUE,6.023,1,2,"aeroplane","new-new",1029
"5a8035cfaa46dd00016b7793","older",5,3,"LEADER","LEADER",TRUE,4.806,0,3,"sunflower","new-new",1029
"5a8035cfaa46dd00016b7793","older",5,4,"SHOTS","SHOTS",TRUE,3.031,2,4,"cart","new-new",1029
"5a8035cfaa46dd00016b7793","older",6,1,"BELT","BELT",TRUE,5.74,3,1,"wheelbarrow","new-new",1030
"5a8035cfaa46dd00016b7793","older",6,2,"BATH","BATH",TRUE,3.821,2,2,"spoon","match",1030
"5a8035cfaa46dd00016b7793","older",6,3,"POLICY","JUNGLE",FALSE,8.246,1,3,"planet","old-new",1030
"5a8035cfaa46dd00016b7793","older",6,4,"JUNGLE","POLICY",FALSE,3.404,0,4,"pepper","mis-match",1030
"5a8035cfaa46dd00016b7793","older",7,1,"?","PLENTY",FALSE,0.247,1,1,"salt","mis-match",1031
"5a8035cfaa46dd00016b7793","older",7,2,"PLENTY","HONEY",FALSE,10.011,0,2,"kettle","old-new",1031
"5a8035cfaa46dd00016b7793","older",7,3,"CLOCK","CLOCK",TRUE,5.202,2,3,"pear","new-new",1031
"5a8035cfaa46dd00016b7793","older",7,4,"STYLE","STYLE",TRUE,3.827,3,4,"suitcase","match",1031
"5a8035cfaa46dd00016b7793","older",8,1,"SYSTEM","TEAR",FALSE,5.791,2,1,"hanger","old-new",1032
"5a8035cfaa46dd00016b7793","older",8,2,"ARTIST","ARTIST",TRUE,4.492,1,2,"calendar","mis-match",1032
"5a8035cfaa46dd00016b7793","older",8,3,"LETTER","LETTER",TRUE,4.873,3,3,"mirror","match",1032
"5a8035cfaa46dd00016b7793","older",8,4,"TEAR","SYSTEM",FALSE,3.104,0,4,"sun","new-new",1032
"5a8035cfaa46dd00016b7793","older",9,1,"?","KIND",FALSE,0.478,1,1,"candle","match",1033
"5a8035cfaa46dd00016b7793","older",9,2,"WEAPON","WEAPON",TRUE,6.819,2,2,"cherry","new-new",1033
"5a8035cfaa46dd00016b7793","older",9,3,"WOMWN","WOMEN",FALSE,5.934,3,3,"microphone","old-new",1033
"5a8035cfaa46dd00016b7793","older",9,4,"WRITER","WRITER",TRUE,4.052,0,4,"cap","mis-match",1033
"5a8035cfaa46dd00016b7793","older",10,1,"NIGHT","NIGHT",TRUE,6.401,3,1,"bench","new-new",1034
"5a8035cfaa46dd00016b7793","older",10,2,"PILLS","PILLS",TRUE,4.339,0,2,"skateboard","new-new",1034
"5a8035cfaa46dd00016b7793","older",10,3,"FAMILLY","FAMILY",FALSE,5.771,2,3,"ring","new-new",1034
"5a8035cfaa46dd00016b7793","older",10,4,"RECORD","RECORD",TRUE,4.688,1,4,"razor","new-new",1034
"5a8035cfaa46dd00016b7793","older",11,1,"SAKE","DEMON",FALSE,6.924,1,1,"telephone","mis-match",1035
"5a8035cfaa46dd00016b7793","older",11,2,"SAKE","SAKE",TRUE,4.315,3,2,"motorbike","old-new",1035
"5a8035cfaa46dd00016b7793","older",11,3,"ADVICE","ADVICE",TRUE,4.165,0,3,"megaphone","new-new",1035
"5a8035cfaa46dd00016b7793","older",11,4,"AREA","AREA",TRUE,5.273,2,4,"shovel","match",1035
"5a8035cfaa46dd00016b7793","older",12,1,"BODY","TOILET",FALSE,6.307,2,1,"anchor","mis-match",1036
"5a8035cfaa46dd00016b7793","older",12,2,"PENNY","BODY",FALSE,3.716,0,2,"daisy","old-new",1036
"5a8035cfaa46dd00016b7793","older",12,3,"TOILET","PENNY",FALSE,5.257,1,3,"stool","new-new",1036
"5a8035cfaa46dd00016b7793","older",12,4,"NATION","NATION",TRUE,3.388,3,4,"stamp","match",1036
"5a8035cfaa46dd00016b7793","older",13,1,"ROOF","ROOF",TRUE,5.492,2,1,"rug","match",1037
"5a8035cfaa46dd00016b7793","older",13,2,"IDEAS","IDEAS",TRUE,3.505,3,2,"coin","mis-match",1037
"5a8035cfaa46dd00016b7793","older",13,3,"MOMENT","MOMENT",TRUE,4.121,1,3,"boot","old-new",1037
"5a8035cfaa46dd00016b7793","older",13,4,"APPLE","APPLE",TRUE,3.169,0,4,"dice","new-new",1037
"5a8035cfaa46dd00016b7793","older",14,1,"FEET","FEET",TRUE,4.77,2,1,"runner","new-new",1038
"5a8035cfaa46dd00016b7793","older",14,2,"CLIENT","CLIENT",TRUE,3.871,3,2,"watch","new-new",1038
"5a8035cfaa46dd00016b7793","older",14,3,"CANDTY","CANDY",FALSE,10.009,1,3,"tractor","new-new",1038
"5a8035cfaa46dd00016b7793","older",14,4,"?","FLIGHT",FALSE,0.05,0,4,"wheel","new-new",1038
"5a8035cfaa46dd00016b7793","older",15,1,"DOZEN","DOZEN",TRUE,4.806,0,1,"gorilla","new-new",1039
"5a8035cfaa46dd00016b7793","older",15,2,"?","CARS",FALSE,1.352,2,2,"tray","new-new",1039
"5a8035cfaa46dd00016b7793","older",15,3,"LOTS","LOTS",TRUE,4.26,3,3,"backpack","new-new",1039
"5a8035cfaa46dd00016b7793","older",15,4,"FLESH","FLESH",TRUE,4.221,1,4,"windmill","new-new",1039
"5a8035cfaa46dd00016b7793","older",16,1,"MILE","MILE",TRUE,4.287,3,1,"taxi","new-new",1040
"5a8035cfaa46dd00016b7793","older",16,2,"SPEECH","SPEECH",TRUE,5.056,2,2,"carrot","mis-match",1040
"5a8035cfaa46dd00016b7793","older",16,3,"YARD","YARD",TRUE,4.142,0,3,"monkey","match",1040
"5a8035cfaa46dd00016b7793","older",16,4,"DIRT","DIRT",TRUE,3.171,1,4,"scissors","old-new",1040
"5a847fd2aa46dd00016ba03c","younger",1,1,"SPIRIT","AREA",FALSE,6.160135,3,1,"cart","new-new",705
"5a847fd2aa46dd00016ba03c","younger",1,2,"AREA","SPIRIT",FALSE,2.114035,2,2,"basket","old-new",705
"5a847fd2aa46dd00016ba03c","younger",1,3,"BOYS","BOYS",TRUE,1.381885,0,3,"tyre","mis-match",705
"5a847fd2aa46dd00016ba03c","younger",1,4,"SHOTS","SHOTS",TRUE,1.68129,1,4,"telephone","match",705
"5a847fd2aa46dd00016ba03c","younger",2,1,"FAMILY","FAMILY",TRUE,3.095885,1,1,"diamond","mis-match",706
"5a847fd2aa46dd00016ba03c","younger",2,2,"SERIES","SERIES",TRUE,1.581535,0,2,"helmet","match",706
"5a847fd2aa46dd00016ba03c","younger",2,3,"THING","THING",TRUE,2.264365,3,3,"hanger","old-new",706
"5a847fd2aa46dd00016ba03c","younger",2,4,"CARS","CARS",TRUE,1.748045,2,4,"candle","new-new",706
"5a847fd2aa46dd00016ba03c","younger",3,1,"PRINCE","PRINCE",TRUE,2.229975,0,1,"peg","new-new",707
"5a847fd2aa46dd00016ba03c","younger",3,2,"GIRLS","GIRL",FALSE,4.84541,1,2,"map","new-new",707
"5a847fd2aa46dd00016ba03c","younger",3,3,"YEAR","YEAR",TRUE,5.061555,3,3,"coin","new-new",707
"5a847fd2aa46dd00016ba03c","younger",3,4,"THING","FEET",FALSE,1.76424,2,4,"crown","new-new",707
"5a847fd2aa46dd00016ba03c","younger",4,1,"RIVER","RIVER",TRUE,1.863935,2,1,"rug","match",708
"5a847fd2aa46dd00016ba03c","younger",4,2,"BEAUTY","BEAUTY",TRUE,2.913765,1,2,"goose","old-new",708
"5a847fd2aa46dd00016ba03c","younger",4,3,"?","FOOD",FALSE,5.19995,0,3,"gorilla","mis-match",708
"5a847fd2aa46dd00016ba03c","younger",4,4,"MOMENT","MOMENT",TRUE,2.73,3,4,"stamp","new-new",708
"5a847fd2aa46dd00016ba03c","younger",5,1,"YARDS","YARD",FALSE,4.111845,1,1,"stool","old-new",709
"5a847fd2aa46dd00016ba03c","younger",5,2,"LOTS","LOTS",TRUE,1.581305,3,2,"bolt","match",709
"5a847fd2aa46dd00016ba03c","younger",5,3,"ROOF","ROOF",TRUE,1.7148,2,3,"planet","new-new",709
"5a847fd2aa46dd00016ba03c","younger",5,4,"COPS","COPS",TRUE,0.94878,0,4,"suitcase","mis-match",709
"5a847fd2aa46dd00016ba03c","younger",6,1,"CANDY","CANDY",TRUE,4.36154,0,1,"perfume","mis-match",710
"5a847fd2aa46dd00016ba03c","younger",6,2,"CLIENT","CLIENT",TRUE,2.08091,1,2,"monkey","match",710
"5a847fd2aa46dd00016ba03c","younger",6,3,"LIFE","LIFE",TRUE,1.76473,2,3,"wheel","old-new",710
"5a847fd2aa46dd00016ba03c","younger",6,4,"STYLE","STYLE",TRUE,1.281925,3,4,"pear","new-new",710
"5a847fd2aa46dd00016ba03c","younger",7,1,"NATION","DOZEN",FALSE,2.74639,1,1,"anchor","old-new",711
"5a847fd2aa46dd00016ba03c","younger",7,2,"DOZEN","NATION",FALSE,8.275625,3,2,"wheelbarrow","mis-match",711
"5a847fd2aa46dd00016ba03c","younger",7,3,"NIGHT","NIGHT",TRUE,1.930975,2,3,"cap","match",711
"5a847fd2aa46dd00016ba03c","younger",7,4,"HONEY","HONEY",TRUE,3.163115,0,4,"taxi","new-new",711
"5a847fd2aa46dd00016ba03c","younger",8,1,"TEAR","TEAR",TRUE,1.93049,2,1,"shovel","new-new",712
"5a847fd2aa46dd00016ba03c","younger",8,2,"DANGER","DANGER",TRUE,1.901195,1,2,"tray","new-new",712
"5a847fd2aa46dd00016ba03c","younger",8,3,"MILLER","MILLER",TRUE,5.11177,0,3,"balcony","new-new",712
"5a847fd2aa46dd00016ba03c","younger",8,4,"SPEECH","SPEECH",TRUE,3.146405,3,4,"motorbike","new-new",712
"5a847fd2aa46dd00016ba03c","younger",9,1,"?","ADVICE",FALSE,2.68288,2,1,"dice","new-new",713
"5a847fd2aa46dd00016ba03c","younger",9,2,"?","DIRT",FALSE,2.468085,0,2,"sun","new-new",713
"5a847fd2aa46dd00016ba03c","younger",9,3,"DEATH","DEATH",TRUE,1.681195,3,3,"pawn","new-new",713
"5a847fd2aa46dd00016ba03c","younger",9,4,"?","LETTER",FALSE,1.318785,1,4,"microphone","new-new",713
"5a847fd2aa46dd00016ba03c","younger",10,1,"SAKE","SAKE",TRUE,2.296925,1,1,"cathedral","mis-match",714
"5a847fd2aa46dd00016ba03c","younger",10,2,"WRITER","WRITER",TRUE,1.947805,2,2,"carrot","match",714
"5a847fd2aa46dd00016ba03c","younger",10,3,"MONTH","MONTH",TRUE,1.997865,0,3,"cherry","new-new",714
"5a847fd2aa46dd00016ba03c","younger",10,4,"BELT","BELT",TRUE,0.948385,3,4,"backpack","old-new",714
"5a847fd2aa46dd00016ba03c","younger",11,1,"AGENT","AGENT",TRUE,2.996225,3,1,"mushroom","new-new",715
"5a847fd2aa46dd00016ba03c","younger",11,2,"SALE","SALE",TRUE,2.39726,1,2,"dart","match",715
"5a847fd2aa46dd00016ba03c","younger",11,3,"IDEAS","IDEAS",TRUE,2.84712,0,3,"daisy","old-new",715
"5a847fd2aa46dd00016ba03c","younger",11,4,"LEADER","LEADER",TRUE,1.73111,2,4,"runner","mis-match",715
"5a847fd2aa46dd00016ba03c","younger",12,1,"HOTEL","HOTEL",TRUE,2.34696,0,1,"megaphone","new-new",716
"5a847fd2aa46dd00016ba03c","younger",12,2,"PHOTO","PHOTO",TRUE,2.447655,3,2,"spoon","new-new",716
"5a847fd2aa46dd00016ba03c","younger",12,3,"GODS","GODS",TRUE,1.98116,1,3,"windmill","new-new",716
"5a847fd2aa46dd00016ba03c","younger",12,4,"CLOCK","CLOCK",TRUE,1.46482,2,4,"sunflower","new-new",716
"5a847fd2aa46dd00016ba03c","younger",13,1,"CASINO","CASINO",TRUE,2.829725,0,1,"watch","mis-match",717
"5a847fd2aa46dd00016ba03c","younger",13,2,"","POLICY",FALSE,7.892715,2,2,"skateboard","new-new",717
"5a847fd2aa46dd00016ba03c","younger",13,3,"RECORD","RECORD",TRUE,2.46371,3,3,"razor","old-new",717
"5a847fd2aa46dd00016ba03c","younger",13,4,"VALLEY","VALLEY",TRUE,3.296255,1,4,"pencil","match",717
"5a847fd2aa46dd00016ba03c","younger",14,1,"APPLE","APPLE",TRUE,2.51347,1,1,"pepper","old-new",718
"5a847fd2aa46dd00016ba03c","younger",14,2,"FRIEND","FRIEND",TRUE,2.081135,2,2,"frame","match",718
"5a847fd2aa46dd00016ba03c","younger",14,3,"JUNGLE","JUNGLE",TRUE,1.96466,0,3,"boot","mis-match",718
"5a847fd2aa46dd00016ba03c","younger",14,4,"SYSTEM","SYSTEM",TRUE,1.34842,3,4,"scissors","new-new",718
"5a847fd2aa46dd00016ba03c","younger",15,1,"ESTATE","GLASS",FALSE,5.2104,0,1,"aeroplane","new-new",719
"5a847fd2aa46dd00016ba03c","younger",15,2,"GLASS","ESTATE",FALSE,3.72935,2,2,"salt","new-new",719
"5a847fd2aa46dd00016ba03c","younger",15,3,"PILLS","PILLS",TRUE,1.79777,1,3,"ring","new-new",719
"5a847fd2aa46dd00016ba03c","younger",15,4,"SYSTEM","DEMON",FALSE,4.695385,3,4,"mirror","new-new",719
"5a847fd2aa46dd00016ba03c","younger",16,1,"MILE","WEAPON",FALSE,2.296815,1,1,"bench","new-new",720
"5a847fd2aa46dd00016ba03c","younger",16,2,"DUDE","DUDE",TRUE,2.647345,3,2,"tractor","new-new",720
"5a847fd2aa46dd00016ba03c","younger",16,3,"KIND","MILE",FALSE,2.247745,2,3,"calendar","new-new",720
"5a847fd2aa46dd00016ba03c","younger",16,4,"WEAPON","KIND",FALSE,1.79789,0,4,"kettle","new-new",720
"5a8c970daa46dd00016be578","younger",1,1,"PRINCE","PRINCE",TRUE,2.828965,3,1,"peg","mis-match",689
"5a8c970daa46dd00016be578","younger",1,2,"FOOD","FOOD",TRUE,3.68201,1,2,"dart","new-new",689
"5a8c970daa46dd00016be578","younger",1,3,"HOUSE","HOUSE",TRUE,1.43101,2,3,"mushroom","match",689
"5a8c970daa46dd00016be578","younger",1,4,"THING","THING",TRUE,2.316375,0,4,"frame","old-new",689
"5a8c970daa46dd00016be578","younger",2,1,"FEET","FEET",TRUE,1.84763,2,1,"runner","new-new",690
"5a8c970daa46dd00016be578","younger",2,2,"FLIGHT","CANDY",FALSE,5.08219,1,2,"tractor","new-new",690
"5a8c970daa46dd00016be578","younger",2,3,"CLIENT","CLIENT",TRUE,2.23094,3,3,"watch","new-new",690
"5a8c970daa46dd00016be578","younger",2,4,"?","FLIGHT",FALSE,9.99918,0,4,"wheel","new-new",690
"5a8c970daa46dd00016be578","younger",3,1,"WRITER","WRITER",TRUE,1.71568,0,1,"cap","mis-match",691
"5a8c970daa46dd00016be578","younger",3,2,"WEAPON","WEAPON",TRUE,4.383205,2,2,"cherry","new-new",691
"5a8c970daa46dd00016be578","younger",3,3,"KID","KIND",FALSE,1.36618,1,3,"candle","match",691
"5a8c970daa46dd00016be578","younger",3,4,"SPEAKER","WOMEN",FALSE,3.532035,3,4,"microphone","old-new",691
"5a8c970daa46dd00016be578","younger",4,1,"BODY","BODY",TRUE,1.996295,0,1,"daisy","old-new",692
"5a8c970daa46dd00016be578","younger",4,2,"PENNY","PENNY",TRUE,2.032045,1,2,"stool","new-new",692
"5a8c970daa46dd00016be578","younger",4,3,"TOILET","TOILET",TRUE,1.515455,2,3,"anchor","mis-match",692
"5a8c970daa46dd00016be578","younger",4,4,"NATION","NATION",TRUE,1.548655,3,4,"stamp","match",692
"5a8c970daa46dd00016be578","younger",5,1,"POLICY","JUNGLE",FALSE,5.66299,1,1,"planet","old-new",693
