"participant","trial_no","group","time","recalled","word","recall_acc","recall_rt","study_pos","test_pos","image","item_type","id"
"55057a56fdf99b5b566a70bb",1,"younger",1,"PLENTY","PLENTY",TRUE,4.782085,1,1,"salt","mis-match",625
"55057a56fdf99b5b566a70bb",1,"younger",2,"HONEY","HONEY",TRUE,1.299635,0,2,"kettle","old-new",625
"55057a56fdf99b5b566a70bb",1,"younger",3,"CLOCK","STYLE",FALSE,1.95008,3,3,"suitcase","match",625
"55057a56fdf99b5b566a70bb",1,"younger",4,"STYLE","CLOCK",FALSE,2.85035,2,4,"pear","new-new",625
"55057a56fdf99b5b566a70bb",2,"younger",1,"DOZEN","DOZEN",TRUE,2.898875,0,1,"gorilla","new-new",626
"55057a56fdf99b5b566a70bb",2,"younger",2,"FLESH","FLESH",TRUE,1.68322,1,2,"windmill","new-new",626
"55057a56fdf99b5b566a70bb",2,"younger",3,"CARDS","CARS",FALSE,2.383065,2,3,"tray","new-new",626
"55057a56fdf99b5b566a70bb",2,"younger",4,"LOTS","LOTS",TRUE,1.58252,3,4,"backpack","new-new",626
"55057a56fdf99b5b566a70bb",3,"younger",1,"SERIES","MILLER",FALSE,3.18328,3,1,"bolt","new-new",627
"55057a56fdf99b5b566a70bb",3,"younger",2,"MILLER","AGENT",FALSE,1.965975,2,2,"goose","new-new",627
"55057a56fdf99b5b566a70bb",3,"younger",3,"SALE","SERIES",FALSE,2.09932,0,3,"tyre","new-new",627
"55057a56fdf99b5b566a70bb",3,"younger",4,"AGENT","SALE",FALSE,1.76671,1,4,"diamond","new-new",627
"55057a56fdf99b5b566a70bb",4,"younger",1,"FAMILY","FAMILY",TRUE,3.997555,2,1,"ring","new-new",628
"55057a56fdf99b5b566a70bb",4,"younger",2,"PILLS","PILLS",TRUE,1.816725,0,2,"skateboard","new-new",628
"55057a56fdf99b5b566a70bb",4,"younger",3,"NIGHT","NIGHT",TRUE,2.049855,3,3,"bench","new-new",628
"55057a56fdf99b5b566a70bb",4,"younger",4,"RECORD","RECORD",TRUE,1.782865,1,4,"razor","new-new",628
"55057a56fdf99b5b566a70bb",5,"younger",1,"DEMON","DEMON",TRUE,3.381865,1,1,"telephone","mis-match",629
"55057a56fdf99b5b566a70bb",5,"younger",2,"ADVICE","ADVICE",TRUE,1.8161,0,2,"megaphone","new-new",629
"55057a56fdf99b5b566a70bb",5,"younger",3,"SAKE","SAKE",TRUE,2.88328,3,3,"motorbike","old-new",629
"55057a56fdf99b5b566a70bb",5,"younger",4,"AREA","AREA",TRUE,1.017005,2,4,"shovel","match",629
"55057a56fdf99b5b566a70bb",6,"younger",1,"PRINCE","PRINCE",TRUE,2.19807,3,1,"peg","mis-match",630
"55057a56fdf99b5b566a70bb",6,"younger",2,"THING","THING",TRUE,1.564775,0,2,"frame","old-new",630
"55057a56fdf99b5b566a70bb",6,"younger",3,"FOOD","FOOD",TRUE,1.21673,1,3,"dart","new-new",630
"55057a56fdf99b5b566a70bb",6,"younger",4,"HOUSE","HOUSE",TRUE,1.067295,2,4,"mushroom","match",630
"55057a56fdf99b5b566a70bb",7,"younger",1,"CLIENT","CLIENT",TRUE,2.864695,3,1,"watch","new-new",631
"55057a56fdf99b5b566a70bb",7,"younger",2,"CANDY","CANDY",TRUE,2.799635,1,2,"tractor","new-new",631
"55057a56fdf99b5b566a70bb",7,"younger",3,"FLIGHT","FLIGHT",TRUE,1.481825,0,3,"wheel","new-new",631
"55057a56fdf99b5b566a70bb",7,"younger",4,"FEET","FEET",TRUE,1.88269,2,4,"runner","new-new",631
"55057a56fdf99b5b566a70bb",8,"younger",1,"KIND","KIND",TRUE,1.581455,1,1,"candle","match",632
"55057a56fdf99b5b566a70bb",8,"younger",2,"ARTIST","WRITER",FALSE,1.783065,0,2,"cap","mis-match",632
"55057a56fdf99b5b566a70bb",8,"younger",3,"WOMAN","WOMEN",FALSE,3.383265,3,3,"microphone","old-new",632
"55057a56fdf99b5b566a70bb",8,"younger",4,"WEAPON","WEAPON",TRUE,1.58268,2,4,"cherry","new-new",632
"55057a56fdf99b5b566a70bb",9,"younger",1,"BATH","BATH",TRUE,2.248305,2,1,"spoon","match",633
"55057a56fdf99b5b566a70bb",9,"younger",2,"POLICY","POLICY",TRUE,1.83304,0,2,"pepper","mis-match",633
"55057a56fdf99b5b566a70bb",9,"younger",3,"BELT","BELT",TRUE,1.900175,3,3,"wheelbarrow","new-new",633
"55057a56fdf99b5b566a70bb",9,"younger",4,"JUNGLE","JUNGLE",TRUE,1.416565,1,4,"planet","old-new",633
"55057a56fdf99b5b566a70bb",10,"younger",1,"FRIEND","GODS",FALSE,2.49835,2,1,"perfume","new-new",634
"55057a56fdf99b5b566a70bb",10,"younger",2,"DANGER","DANGER",TRUE,1.349615,0,2,"crown","new-new",634
"55057a56fdf99b5b566a70bb",10,"younger",3,"VALLEY","VALLEY",TRUE,1.499985,1,3,"basket","new-new",634
"55057a56fdf99b5b566a70bb",10,"younger",4,"GODS","FRIEND",FALSE,1.249045,3,4,"balcony","new-new",634
"55057a56fdf99b5b566a70bb",11,"younger",1,"SYSTEM","SYSTEM",TRUE,1.93152,0,1,"sun","new-new",635
"55057a56fdf99b5b566a70bb",11,"younger",2,"TEAR","TEAR",TRUE,1.616385,2,2,"hanger","old-new",635
"55057a56fdf99b5b566a70bb",11,"younger",3,"ARTIST","ARTIST",TRUE,1.316675,1,3,"calendar","mis-match",635
"55057a56fdf99b5b566a70bb",11,"younger",4,"LETTER","LETTER",TRUE,1.084355,3,4,"mirror","match",635
"55057a56fdf99b5b566a70bb",12,"younger",1,"DEATH","DEATH",TRUE,4.716425,1,1,"aeroplane","new-new",636
"55057a56fdf99b5b566a70bb",12,"younger",2,"LEADER","LEADER",TRUE,1.483085,0,2,"sunflower","new-new",636
"55057a56fdf99b5b566a70bb",12,"younger",3,"LIFE","LIFE",TRUE,1.61652,3,3,"pawn","new-new",636
"55057a56fdf99b5b566a70bb",12,"younger",4,"SHOTS","SHOTS",TRUE,0.999725,2,4,"cart","new-new",636
"55057a56fdf99b5b566a70bb",13,"younger",1,"NATION","NATION",TRUE,1.848935,3,1,"stamp","match",637
"55057a56fdf99b5b566a70bb",13,"younger",2,"TOILET","TOILET",TRUE,2.08154,2,2,"anchor","mis-match",637
"55057a56fdf99b5b566a70bb",13,"younger",3,"PENNY","PENNY",TRUE,1.133365,1,3,"stool","new-new",637
"55057a56fdf99b5b566a70bb",13,"younger",4,"BODY","BODY",TRUE,1.665525,0,4,"daisy","old-new",637
"55057a56fdf99b5b566a70bb",14,"younger",1,"MILE","MILE",TRUE,1.86486,3,1,"taxi","new-new",638
"55057a56fdf99b5b566a70bb",14,"younger",2,"YARD","YARD",TRUE,1.233005,0,2,"monkey","match",638
"55057a56fdf99b5b566a70bb",14,"younger",3,"DIRT","DIRT",TRUE,1.116635,1,3,"scissors","old-new",638
"55057a56fdf99b5b566a70bb",14,"younger",4,"SPEECH","SPEECH",TRUE,1.516255,2,4,"carrot","mis-match",638
"55057a56fdf99b5b566a70bb",15,"younger",1,"APPLE","MOMENT",FALSE,2.16472,1,1,"boot","old-new",639
"55057a56fdf99b5b566a70bb",15,"younger",2,"ROOF","ROOF",TRUE,1.69971,2,2,"rug","match",639
"55057a56fdf99b5b566a70bb",15,"younger",3,"IDEAS","IDEAS",TRUE,1.566015,3,3,"coin","mis-match",639
"55057a56fdf99b5b566a70bb",15,"younger",4,"MOMENT","APPLE",FALSE,1.24994,0,4,"dice","new-new",639
"55057a56fdf99b5b566a70bb",16,"younger",1,"PHOTO","PHOTO",TRUE,2.39973,1,1,"cathedral","mis-match",640
"55057a56fdf99b5b566a70bb",16,"younger",2,"CASINO","CASINO",TRUE,1.199695,2,2,"helmet","match",640
"55057a56fdf99b5b566a70bb",16,"younger",3,"ESTATE","ESTATE",TRUE,2.18345,0,3,"map","new-new",640
"55057a56fdf99b5b566a70bb",16,"younger",4,"GIRL","GIRL",TRUE,1.232935,3,4,"pencil","old-new",640
"555b4c66fdf99b19786e3fa8",1,"younger",1,"SPOKE","LETTER",FALSE,4.630615,1,1,"microphone","new-new",609
"555b4c66fdf99b19786e3fa8",1,"younger",2,"DEATH","DEATH",TRUE,1.749195,3,2,"pawn","new-new",609
"555b4c66fdf99b19786e3fa8",1,"younger",3,"DIRT","DIRT",TRUE,1.5497,0,3,"sun","new-new",609
"555b4c66fdf99b19786e3fa8",1,"younger",4,"ADVICE","ADVICE",TRUE,2.79892,2,4,"dice","new-new",609
"555b4c66fdf99b19786e3fa8",2,"younger",1,"CLOCK","CLOCK",TRUE,1.998985,2,1,"sunflower","new-new",610
"555b4c66fdf99b19786e3fa8",2,"younger",2,"GODS","GODS",TRUE,1.615505,1,2,"windmill","new-new",610
"555b4c66fdf99b19786e3fa8",2,"younger",3,"HOTEL","HOTEL",TRUE,1.515305,0,3,"megaphone","new-new",610
"555b4c66fdf99b19786e3fa8",2,"younger",4,"PHOT","PHOTO",FALSE,5.448815,3,4,"spoon","new-new",610
"555b4c66fdf99b19786e3fa8",3,"younger",1,"?","DOZEN",FALSE,2.16381,1,1,"anchor","old-new",611
"555b4c66fdf99b19786e3fa8",3,"younger",2,"HONEY","HONEY",TRUE,1.81587,0,2,"taxi","new-new",611
"555b4c66fdf99b19786e3fa8",3,"younger",3,"NIGHT","NIGHT",TRUE,1.081435,2,3,"cap","match",611
"555b4c66fdf99b19786e3fa8",3,"younger",4,"NATION","NATION",TRUE,0.816475,3,4,"wheelbarrow","mis-match",611
"555b4c66fdf99b19786e3fa8",4,"younger",1,"?","AGENT",FALSE,3.230415,3,1,"mushroom","new-new",612
"555b4c66fdf99b19786e3fa8",4,"younger",2,"SALE","SALE",TRUE,2.43262,1,2,"dart","match",612
"555b4c66fdf99b19786e3fa8",4,"younger",3,"?","IDEAS",FALSE,0.982295,0,3,"daisy","old-new",612
"555b4c66fdf99b19786e3fa8",4,"younger",4,"LEADER","LEADER",TRUE,1.09965,2,4,"runner","mis-match",612
"555b4c66fdf99b19786e3fa8",5,"younger",1,"CANDY","CANDY",TRUE,3.215395,0,1,"perfume","mis-match",613
"555b4c66fdf99b19786e3fa8",5,"younger",2,"CLIENT","CLIENT",TRUE,1.332295,1,2,"monkey","match",613
"555b4c66fdf99b19786e3fa8",5,"younger",3,"STYLE","STYLE",TRUE,1.699035,3,3,"pear","new-new",613
"555b4c66fdf99b19786e3fa8",5,"younger",4,"LIFE","LIFE",TRUE,1.49939,2,4,"wheel","old-new",613
"555b4c66fdf99b19786e3fa8",6,"younger",1,"WRITER","WRITER",TRUE,2.857225,2,1,"carrot","match",614
"555b4c66fdf99b19786e3fa8",6,"younger",2,"MONTH","MONTH",TRUE,2.931315,0,2,"cherry","new-new",614
"555b4c66fdf99b19786e3fa8",6,"younger",3,"BELT","BELT",TRUE,1.516105,3,3,"backpack","old-new",614
"555b4c66fdf99b19786e3fa8",6,"younger",4,"SAKE","SAKE",TRUE,1.85004,1,4,"cathedral","mis-match",614
"555b4c66fdf99b19786e3fa8",7,"younger",1,"VALLEY","VALLEY",TRUE,1.9153,1,1,"pencil","match",615
"555b4c66fdf99b19786e3fa8",7,"younger",2,"RECORD","RECORD",TRUE,2.24702,3,2,"razor","old-new",615
"555b4c66fdf99b19786e3fa8",7,"younger",3,"CASINO","CASINO",TRUE,3.616375,0,3,"watch","mis-match",615
"555b4c66fdf99b19786e3fa8",7,"younger",4,"POLIUC","POLICY",FALSE,2.149115,2,4,"skateboard","new-new",615
"555b4c66fdf99b19786e3fa8",8,"younger",1,"SYSTEM","SYSTEM",TRUE,1.6319,3,1,"scissors","new-new",616
"555b4c66fdf99b19786e3fa8",8,"younger",2,"FRIEND","FRIEND",TRUE,2.4664,2,2,"frame","match",616
"555b4c66fdf99b19786e3fa8",8,"younger",3,"JUNGLE","JUNGLE",TRUE,1.66935,0,3,"boot","mis-match",616
"555b4c66fdf99b19786e3fa8",8,"younger",4,"APPLE","APPLE",TRUE,1.899955,1,4,"pepper","old-new",616
"555b4c66fdf99b19786e3fa8",9,"younger",1,"SPIRIT","SPIRIT",TRUE,3.364,2,1,"basket","old-new",617
"555b4c66fdf99b19786e3fa8",9,"younger",2,"SHOTS","SHOTS",TRUE,1.31382,1,2,"telephone","match",617
"555b4c66fdf99b19786e3fa8",9,"younger",3,"BOYS","BOYS",TRUE,2.28316,0,3,"tyre","mis-match",617
"555b4c66fdf99b19786e3fa8",9,"younger",4,"AREA","AREA",TRUE,4.61626,3,4,"cart","new-new",617
"555b4c66fdf99b19786e3fa8",10,"younger",1,"PRINCE","PRINCE",TRUE,2.39711,0,1,"peg","new-new",618
"555b4c66fdf99b19786e3fa8",10,"younger",2,"GIRL","GIRL",TRUE,1.165615,1,2,"map","new-new",618
"555b4c66fdf99b19786e3fa8",10,"younger",3,"FEET","FEET",TRUE,1.432865,2,3,"crown","new-new",618
"555b4c66fdf99b19786e3fa8",10,"younger",4,"YEAR","YEAR",TRUE,2.716095,3,4,"coin","new-new",618
"555b4c66fdf99b19786e3fa8",11,"younger",1,"KIND","KIND",TRUE,2.18249,0,1,"kettle","new-new",619
"555b4c66fdf99b19786e3fa8",11,"younger",2,"MILE","MILE",TRUE,1.67976,2,2,"calendar","new-new",619
"555b4c66fdf99b19786e3fa8",11,"younger",3,"DUDE","DUDE",TRUE,2.432765,3,3,"tractor","new-new",619
"555b4c66fdf99b19786e3fa8",11,"younger",4,"WEAPON","WEAPON",TRUE,1.69955,1,4,"bench","new-new",619
"555b4c66fdf99b19786e3fa8",12,"younger",1,"?","BEAUTY",FALSE,2.90271,1,1,"goose","old-new",620
"555b4c66fdf99b19786e3fa8",12,"younger",2,"FOOD","FOOD",TRUE,2.161245,0,2,"gorilla","mis-match",620
"555b4c66fdf99b19786e3fa8",12,"younger",3,"RIVER","RIVER",TRUE,1.499035,2,3,"rug","match",620
"555b4c66fdf99b19786e3fa8",12,"younger",4,"MOMENT","MOMENT",TRUE,1.54932,3,4,"stamp","new-new",620
"555b4c66fdf99b19786e3fa8",13,"younger",1,"THING","THING",TRUE,1.516205,3,1,"hanger","old-new",621
"555b4c66fdf99b19786e3fa8",13,"younger",2,"SERIES","SERIES",TRUE,1.74949,0,2,"helmet","match",621
"555b4c66fdf99b19786e3fa8",13,"younger",3,"CARS","CARS",TRUE,1.483185,2,3,"candle","new-new",621
"555b4c66fdf99b19786e3fa8",13,"younger",4,"FAMILY","FAMILY",TRUE,1.583115,1,4,"diamond","mis-match",621
"555b4c66fdf99b19786e3fa8",14,"younger",1,"COPS","COPS",TRUE,1.24734,0,1,"suitcase","mis-match",622
"555b4c66fdf99b19786e3fa8",14,"younger",2,"ROOF","ROOF",TRUE,1.665865,2,2,"planet","new-new",622
"555b4c66fdf99b19786e3fa8",14,"younger",3,"YARD","YARD",TRUE,1.31633,1,3,"stool","old-new",622
"555b4c66fdf99b19786e3fa8",14,"younger",4,"LOTS","LOTS",TRUE,1.216235,3,4,"bolt","match",622
"555b4c66fdf99b19786e3fa8",15,"younger",1,"ESTATE","ESTATE",TRUE,2.496925,2,1,"salt","new-new",623
"555b4c66fdf99b19786e3fa8",15,"younger",2,"PILLS","PILLS",TRUE,1.796635,1,2,"ring","new-new",623
"555b4c66fdf99b19786e3fa8",15,"younger",3,"DEMON","DEMON",TRUE,1.698135,3,3,"mirror","new-new",623
"555b4c66fdf99b19786e3fa8",15,"younger",4,"GLASS","GLASS",TRUE,2.13485,0,4,"aeroplane","new-new",623
"555b4c66fdf99b19786e3fa8",16,"younger",1,"SPEECH","SPEECH",TRUE,3.348535,3,1,"motorbike","new-new",624
"555b4c66fdf99b19786e3fa8",16,"younger",2,"DANGE","DANGER",FALSE,1.747035,1,2,"tray","new-new",624
"555b4c66fdf99b19786e3fa8",16,"younger",3,"TEAR","TEAR",TRUE,1.91623,2,3,"shovel","new-new",624
"555b4c66fdf99b19786e3fa8",16,"younger",4,"MILLER","MILLER",TRUE,1.633185,0,4,"balcony","new-new",624
"563f8474cbd4c6000fdc928b",1,"older",1,"POLICE","MILE",FALSE,9.99735,3,1,"taxi","new-new",1425
"563f8474cbd4c6000fdc928b",1,"older",2,"CARROT","YARD",FALSE,9.99211,0,2,"monkey","match",1425
"563f8474cbd4c6000fdc928b",1,"older",3,"YARD","SPEECH",FALSE,10.006545,2,3,"carrot","mis-match",1425
"563f8474cbd4c6000fdc928b",1,"older",4,"GAP","DIRT",FALSE,9.98894,1,4,"scissors","old-new",1425
"563f8474cbd4c6000fdc928b",2,"older",1,"KIND","KIND",TRUE,9.991,1,1,"candle","match",1426
"563f8474cbd4c6000fdc928b",2,"older",2,"","WEAPON",FALSE,10.00184,2,2,"cherry","new-new",1426
"563f8474cbd4c6000fdc928b",2,"older",3,"WOMEN","WOMEN",TRUE,9.99233,3,3,"microphone","old-new",1426
"563f8474cbd4c6000fdc928b",2,"older",4,"WRITER","WRITER",TRUE,9.996915,0,4,"cap","mis-match",1426
"563f8474cbd4c6000fdc928b",3,"older",1,"COPS","THING",FALSE,9.99562,0,1,"frame","old-new",1427
"563f8474cbd4c6000fdc928b",3,"older",2,"PRINCE","FOOD",FALSE,10.0002,1,2,"dart","new-new",1427
"563f8474cbd4c6000fdc928b",3,"older",3,"COPS","PRINCE",FALSE,9.99236,3,3,"peg","mis-match",1427
"563f8474cbd4c6000fdc928b",3,"older",4,"HOUSE","HOUSE",TRUE,10.001725,2,4,"mushroom","match",1427
"563f8474cbd4c6000fdc928b",4,"older",1,"MOMENT","APPLE",FALSE,9.99767,0,1,"dice","new-new",1428
"563f8474cbd4c6000fdc928b",4,"older",2,"MOMENT","MOMENT",TRUE,10.00129,1,2,"boot","old-new",1428
"563f8474cbd4c6000fdc928b",4,"older",3,"IDEAS","IDEAS",TRUE,9.997315,3,3,"coin","mis-match",1428
"563f8474cbd4c6000fdc928b",4,"older",4,"ROOF","ROOF",TRUE,9.992615,2,4,"rug","match",1428
"563f8474cbd4c6000fdc928b",5,"older",1,"ADVICE","ADVICE",TRUE,9.995465,0,1,"megaphone","new-new",1429
"563f8474cbd4c6000fdc928b",5,"older",2,"SAKE","SAKE",TRUE,9.998115,3,2,"motorbike","old-new",1429
"563f8474cbd4c6000fdc928b",5,"older",3,"IDEAS","DEMON",FALSE,9.99244,1,3,"telephone","mis-match",1429
"563f8474cbd4c6000fdc928b",5,"older",4,"AREA","AREA",TRUE,9.99493,2,4,"shovel","match",1429
"563f8474cbd4c6000fdc928b",6,"older",1,"NATION","NATION",TRUE,9.99752,3,1,"stamp","match",1430
"563f8474cbd4c6000fdc928b",6,"older",2,"TABLE","TOILET",FALSE,9.998185,2,2,"anchor","mis-match",1430
"563f8474cbd4c6000fdc928b",6,"older",3,"TABLE","BODY",FALSE,9.99823,0,3,"daisy","old-new",1430
"563f8474cbd4c6000fdc928b",6,"older",4,"PENNY","PENNY",TRUE,9.993745,1,4,"stool","new-new",1430
"563f8474cbd4c6000fdc928b",7,"older",1,"LETTER","LETTER",TRUE,9.995765,3,1,"mirror","match",1431
"563f8474cbd4c6000fdc928b",7,"older",2,"ARTIST","ARTIST",TRUE,9.998025,1,2,"calendar","mis-match",1431
"563f8474cbd4c6000fdc928b",7,"older",3,"DUDE","TEAR",FALSE,9.99211,2,3,"hanger","old-new",1431
"563f8474cbd4c6000fdc928b",7,"older",4,"SYSTEM","SYSTEM",TRUE,10.001295,0,4,"sun","new-new",1431
"563f8474cbd4c6000fdc928b",8,"older",1,"BELT","BELT",TRUE,9.99676,3,1,"wheelbarrow","new-new",1432
"563f8474cbd4c6000fdc928b",8,"older",2,"POLICY","POLICY",TRUE,9.992645,0,2,"pepper","mis-match",1432
"563f8474cbd4c6000fdc928b",8,"older",3,"JUNGLE","JUNGLE",TRUE,9.996385,1,3,"planet","old-new",1432
"563f8474cbd4c6000fdc928b",8,"older",4,"BATH","BATH",TRUE,10.000985,2,4,"spoon","match",1432
"563f8474cbd4c6000fdc928b",9,"older",1,"CARS","CARS",TRUE,10.00048,2,1,"tray","new-new",1433
"563f8474cbd4c6000fdc928b",9,"older",2,"?","LOTS",FALSE,9.99328,3,2,"backpack","new-new",1433
"563f8474cbd4c6000fdc928b",9,"older",3,"FLESH","FLESH",TRUE,10.00059,1,3,"windmill","new-new",1433
"563f8474cbd4c6000fdc928b",9,"older",4,"DOZEN","DOZEN",TRUE,9.99381,0,4,"gorilla","new-new",1433
"563f8474cbd4c6000fdc928b",10,"older",1,"SHOTS","SHOTS",TRUE,10.00063,2,1,"cart","new-new",1434
"563f8474cbd4c6000fdc928b",10,"older",2,"LEADER","LEADER",TRUE,9.99466,0,2,"sunflower","new-new",1434
"563f8474cbd4c6000fdc928b",10,"older",3,"LIFE","LIFE",TRUE,9.997815,3,3,"pawn","new-new",1434
"563f8474cbd4c6000fdc928b",10,"older",4,"DEATH","DEATH",TRUE,9.99238,1,4,"aeroplane","new-new",1434
"563f8474cbd4c6000fdc928b",11,"older",1,"RECORD","RECORD",TRUE,10.00036,1,1,"razor","new-new",1435
"563f8474cbd4c6000fdc928b",11,"older",2,"NIGHT","NIGHT",TRUE,9.99852,3,2,"bench","new-new",1435
"563f8474cbd4c6000fdc928b",11,"older",3,"FAMILY","FAMILY",TRUE,9.99219,2,3,"ring","new-new",1435
"563f8474cbd4c6000fdc928b",11,"older",4,"PILLS","PILLS",TRUE,9.996985,0,4,"skateboard","new-new",1435
"563f8474cbd4c6000fdc928b",12,"older",1,"DANGER","FRIEND",FALSE,10.000275,3,1,"balcony","new-new",1436
"563f8474cbd4c6000fdc928b",12,"older",2,"DANGER","DANGER",TRUE,9.99823,0,2,"crown","new-new",1436
"563f8474cbd4c6000fdc928b",12,"older",3,"FRIEND","GODS",FALSE,9.998065,2,3,"perfume","new-new",1436
"563f8474cbd4c6000fdc928b",12,"older",4,"VALLEY","VALLEY",TRUE,9.998175,1,4,"basket","new-new",1436
"563f8474cbd4c6000fdc928b",13,"older",1,"IDEAS","PLENTY",FALSE,10.00174,1,1,"salt","mis-match",1437
"563f8474cbd4c6000fdc928b",13,"older",2,"HONEY","HONEY",TRUE,9.992205,0,2,"kettle","old-new",1437
"563f8474cbd4c6000fdc928b",13,"older",3,"STYLE","STYLE",TRUE,9.99665,3,3,"suitcase","match",1437
"563f8474cbd4c6000fdc928b",13,"older",4,"?","CLOCK",FALSE,9.996545,2,4,"pear","new-new",1437
"563f8474cbd4c6000fdc928b",14,"older",1,"NATION","ESTATE",FALSE,9.997275,0,1,"map","new-new",1438
"563f8474cbd4c6000fdc928b",14,"older",2,"CASINO","CASINO",TRUE,9.997545,2,2,"helmet","match",1438
"563f8474cbd4c6000fdc928b",14,"older",3,"GIRL","GIRL",TRUE,10.001085,3,3,"pencil","old-new",1438
"563f8474cbd4c6000fdc928b",14,"older",4,"TOILET","PHOTO",FALSE,9.98489,1,4,"cathedral","mis-match",1438
"563f8474cbd4c6000fdc928b",15,"older",1,"FLIGHT","FLIGHT",TRUE,10.000005,0,1,"wheel","new-new",1439
"563f8474cbd4c6000fdc928b",15,"older",2,"FEET","FEET",TRUE,9.99785,2,2,"runner","new-new",1439
"563f8474cbd4c6000fdc928b",15,"older",3,"CLIENT","CLIENT",TRUE,9.998415,3,3,"watch","new-new",1439
"563f8474cbd4c6000fdc928b",15,"older",4,"CANDY","CANDY",TRUE,9.99225,1,4,"tractor","new-new",1439
"563f8474cbd4c6000fdc928b",16,"older",1,"AGENT","MILLER",FALSE,9.99584,3,1,"bolt","new-new",1440
"563f8474cbd4c6000fdc928b",16,"older",2,"SALE","SALE",TRUE,10.00179,1,2,"diamond","new-new",1440
"563f8474cbd4c6000fdc928b",16,"older",3,"SERIES","SERIES",TRUE,9.997555,0,3,"tyre","new-new",1440
"563f8474cbd4c6000fdc928b",16,"older",4,"?","AGENT",FALSE,10.00037,2,4,"goose","new-new",1440
"56a8a39f7f2472000c9382f6",1,"older",1,"?","MOMENT",FALSE,5.79493,3,1,"aeroplane","new-new",1441
"56a8a39f7f2472000c9382f6",1,"older",2,"MILLER","MILLER",TRUE,7.510805,2,2,"sunflower","new-new",1441
"56a8a39f7f2472000c9382f6",1,"older",3,"FOOD","FOOD",TRUE,3.81194,0,3,"cathedral","new-new",1441
"56a8a39f7f2472000c9382f6",1,"older",4,"LETTER","LETTER",TRUE,4.430185,1,4,"hanger","new-new",1441
"56a8a39f7f2472000c9382f6",2,"older",1,"?","BELT",FALSE,4.06186,1,1,"wheelbarrow","old-new",1442
"56a8a39f7f2472000c9382f6",2,"older",2,"?","ADVICE",FALSE,2.33074,2,2,"stamp","mis-match",1442
"56a8a39f7f2472000c9382f6",2,"older",3,"?","LOTS",FALSE,1.847605,0,3,"microphone","match",1442
"56a8a39f7f2472000c9382f6",2,"older",4,"TEAR","TEAR",TRUE,4.12266,3,4,"calendar","new-new",1442
"56a8a39f7f2472000c9382f6",3,"older",1,"?","JUNGLE",FALSE,4.167505,1,1,"anchor","match",1443
"56a8a39f7f2472000c9382f6",3,"older",2,"FRIEND","FRIEND",TRUE,6.228505,3,2,"taxi","old-new",1443
"56a8a39f7f2472000c9382f6",3,"older",3,"?","THING",FALSE,2.090935,2,3,"runner","mis-match",1443
"56a8a39f7f2472000c9382f6",3,"older",4,"DIRT","DIRT",TRUE,6.347515,0,4,"mirror","new-new",1443
"56a8a39f7f2472000c9382f6",4,"older",1,"?","SPEECH",FALSE,3.662515,3,1,"pear","new-new",1444
"56a8a39f7f2472000c9382f6",4,"older",2,"?","APPLE",FALSE,1.929745,1,2,"stool","old-new",1444
"56a8a39f7f2472000c9382f6",4,"older",3,"SAKE","SAKE",TRUE,3.23017,0,3,"ring","match",1444
"56a8a39f7f2472000c9382f6",4,"older",4,"CASINO","CASINO",TRUE,5.969315,2,4,"map","mis-match",1444
"56a8a39f7f2472000c9382f6",5,"older",1,"COPS","VALLEY",FALSE,4.16415,2,1,"megaphone","old-new",1445
"56a8a39f7f2472000c9382f6",5,"older",2,"COLOR","PHOTO",FALSE,6.011775,1,2,"spoon","mis-match",1445
"56a8a39f7f2472000c9382f6",5,"older",3,"?","COPS",FALSE,1.791055,3,3,"pencil","match",1445
"56a8a39f7f2472000c9382f6",5,"older",4,"EGGS","DOZEN",FALSE,3.697935,0,4,"basket","new-new",1445
"56a8a39f7f2472000c9382f6",6,"older",1,"SPIRIT","MILE",FALSE,5.825485,3,1,"dice","new-new",1446
"56a8a39f7f2472000c9382f6",6,"older",2,"CARS","CARS",TRUE,4.94785,0,2,"motorbike","new-new",1446
"56a8a39f7f2472000c9382f6",6,"older",3,"?","SPIRIT",FALSE,2.57307,2,3,"tractor","new-new",1446
"56a8a39f7f2472000c9382f6",6,"older",4,"BOYS","BOYS",TRUE,3.93124,1,4,"monkey","new-new",1446
"56a8a39f7f2472000c9382f6",7,"older",1,"?","RIVER",FALSE,3.5114,1,1,"backpack","mis-match",1447
"56a8a39f7f2472000c9382f6",7,"older",2,"PENNY","PENNY",TRUE,4.74664,3,2,"shovel","match",1447
"56a8a39f7f2472000c9382f6",7,"older",3,"WEAPON","WEAPON",TRUE,6.533735,2,3,"boot","new-new",1447
"56a8a39f7f2472000c9382f6",7,"older",4,"?","AREA",FALSE,1.48107,0,4,"bench","old-new",1447
"56a8a39f7f2472000c9382f6",8,"older",1,"GIRL","WOMEN",FALSE,4.47821,0,1,"wheel","mis-match",1448
"56a8a39f7f2472000c9382f6",8,"older",2,"BODY","BODY",TRUE,4.631695,3,2,"cherry","old-new",1448
"56a8a39f7f2472000c9382f6",8,"older",3,"GIRL","GIRL",TRUE,4.198915,2,3,"tray","match",1448
"56a8a39f7f2472000c9382f6",8,"older",4,"?","PRINCE",FALSE,2.731495,1,4,"windmill","new-new",1448
"56a8a39f7f2472000c9382f6",9,"older",1,"?","SHOTS",FALSE,2.392525,1,1,"scissors","new-new",1449
"56a8a39f7f2472000c9382f6",9,"older",2,"LIFE","LIFE",TRUE,3.532225,3,2,"razor","old-new",1449
"56a8a39f7f2472000c9382f6",9,"older",3,"?","LEADER",FALSE,1.859,0,3,"helmet","match",1449
"56a8a39f7f2472000c9382f6",9,"older",4,"?","CLIENT",FALSE,1.72623,2,4,"carrot","mis-match",1449
"56a8a39f7f2472000c9382f6",10,"older",1,"KNIFE","NIGHT",FALSE,4.185175,3,1,"cap","new-new",1450
"56a8a39f7f2472000c9382f6",10,"older",2,"?","WRITER",FALSE,1.71287,1,2,"watch","new-new",1450
"56a8a39f7f2472000c9382f6",10,"older",3,"DEATH","DEATH",TRUE,4.031855,2,3,"suitcase","new-new",1450
"56a8a39f7f2472000c9382f6",10,"older",4,"NIGHT","ROOF",FALSE,4.480385,0,4,"planet","new-new",1450
"56a8a39f7f2472000c9382f6",11,"older",1,"?","IDEAS",FALSE,2.308615,3,1,"candle","new-new",1451
"56a8a39f7f2472000c9382f6",11,"older",2,"STYLE","SERIES",FALSE,5.05204,1,2,"coin","new-new",1451
"56a8a39f7f2472000c9382f6",11,"older",3,"?","FLESH",FALSE,1.443315,0,3,"balcony","new-new",1451
"56a8a39f7f2472000c9382f6",11,"older",4,"?","STYLE",FALSE,2.26342,2,4,"pawn","new-new",1451
"56a8a39f7f2472000c9382f6",12,"older",1,"?","BATH",FALSE,2.72478,2,1,"daisy","mis-match",1452
"56a8a39f7f2472000c9382f6",12,"older",2,"?","GLASS",FALSE,1.70803,0,2,"rug","match",1452
"56a8a39f7f2472000c9382f6",12,"older",3,"FEET","FEET",TRUE,3.163035,3,3,"crown","old-new",1452
"56a8a39f7f2472000c9382f6",12,"older",4,"?","DEMON",FALSE,1.76294,1,4,"salt","new-new",1452
"56a8a39f7f2472000c9382f6",13,"older",1,"?","KIND",FALSE,3.270275,2,1,"perfume","old-new",1453
"56a8a39f7f2472000c9382f6",13,"older",2,"?","PLENTY",FALSE,2.59815,1,2,"diamond","mis-match",1453
"56a8a39f7f2472000c9382f6",13,"older",3,"?","YARD",FALSE,1.58824,3,3,"mushroom","new-new",1453
"56a8a39f7f2472000c9382f6",13,"older",4,"CLOCK","CLOCK",TRUE,4.14639,0,4,"bolt","match",1453
"56a8a39f7f2472000c9382f6",14,"older",1,"?","POLICY",FALSE,3.445375,1,1,"frame","new-new",1454
"56a8a39f7f2472000c9382f6",14,"older",2,"DANGER","DANGER",TRUE,3.529795,2,2,"skateboard","new-new",1454
"56a8a39f7f2472000c9382f6",14,"older",3,"?","RECORD",FALSE,2.07452,3,3,"sun","new-new",1454
"56a8a39f7f2472000c9382f6",14,"older",4,"?","NATION",FALSE,1.99668,0,4,"pepper","new-new",1454
"56a8a39f7f2472000c9382f6",15,"older",1,"DANGER","SYSTEM",FALSE,5.45816,1,1,"peg","new-new",1455
"56a8a39f7f2472000c9382f6",15,"older",2,"?","SALE",FALSE,1.374295,0,2,"kettle","new-new",1455
"56a8a39f7f2472000c9382f6",15,"older",3,"HOUSE","HOUSE",TRUE,3.623045,3,3,"goose","new-new",1455
"56a8a39f7f2472000c9382f6",15,"older",4,"?","ESTATE",FALSE,1.426595,2,4,"dart","new-new",1455
"56a8a39f7f2472000c9382f6",16,"older",1,"?","YEAR",FALSE,2.13035,1,1,"telephone","mis-match",1456
"56a8a39f7f2472000c9382f6",16,"older",2,"?","FLIGHT",FALSE,2.077465,0,2,"tyre","match",1456
"56a8a39f7f2472000c9382f6",16,"older",3,"?","CANDY",FALSE,1.59225,2,3,"cart","new-new",1456
"56a8a39f7f2472000c9382f6",16,"older",4,"ARTIST","ARTIST",TRUE,3.88259,3,4,"gorilla","old-new",1456
"56cf6e8d31a5bc0006e1cdf5",1,"older",1,"AREA","AREA",TRUE,4.798,1,1,"helmet","old-new",1361
"56cf6e8d31a5bc0006e1cdf5",1,"older",2,"WRITER","WRITER",TRUE,4.869,3,2,"dice","mis-match",1361
"56cf6e8d31a5bc0006e1cdf5",1,"older",3,"CANDY","CANDY",TRUE,5.349,0,3,"pawn","match",1361
"56cf6e8d31a5bc0006e1cdf5",1,"older",4,"NATION","NATION",TRUE,5.029,2,4,"tyre","new-new",1361
"56cf6e8d31a5bc0006e1cdf5",2,"older",1,"FLIGHT","FLIGHT",TRUE,5.747,1,1,"shovel","new-new",1362
"56cf6e8d31a5bc0006e1cdf5",2,"older",2,"ARTIST","ARTIST",TRUE,4.779,3,2,"wheel","match",1362
"56cf6e8d31a5bc0006e1cdf5",2,"older",3,"YEAR","DANGER",FALSE,4.35,2,3,"cherry","old-new",1362
"56cf6e8d31a5bc0006e1cdf5",2,"older",4,"DANGER","YEAR",FALSE,7.6,0,4,"kettle","mis-match",1362
"56cf6e8d31a5bc0006e1cdf5",3,"older",1,"HONEY","HONEY",TRUE,5.317,3,1,"suitcase","match",1363
"56cf6e8d31a5bc0006e1cdf5",3,"older",2,"BODY","BODY",TRUE,6.229,2,2,"gorilla","old-new",1363
"56cf6e8d31a5bc0006e1cdf5",3,"older",3,"JUNGLE","JUNGLE",TRUE,5.35,0,3,"salt","mis-match",1363
"56cf6e8d31a5bc0006e1cdf5",3,"older",4,"LIFE","LIFE",TRUE,3.399,1,4,"carrot","new-new",1363
"56cf6e8d31a5bc0006e1cdf5",4,"older",1,"YARD","YARD",TRUE,4.616,2,1,"wheelbarrow","new-new",1364
"56cf6e8d31a5bc0006e1cdf5",4,"older",2,"WOMEN","WOMEN",TRUE,9.999,1,2,"stamp","new-new",1364
"56cf6e8d31a5bc0006e1cdf5",4,"older",3,"?","AGENT",FALSE,0.129,0,3,"watch","new-new",1364
"56cf6e8d31a5bc0006e1cdf5",4,"older",4,"CASINO","CASINO",TRUE,5.419,3,4,"pepper","new-new",1364
"56cf6e8d31a5bc0006e1cdf5",5,"older",1,"DOZEN","DOZEN",TRUE,6.148,3,1,"balcony","new-new",1365
"56cf6e8d31a5bc0006e1cdf5",5,"older",2,"STYLE","STYLE",TRUE,4.549,0,2,"aeroplane","new-new",1365
"56cf6e8d31a5bc0006e1cdf5",5,"older",3,"LIFE","HOTEL",FALSE,8.23,2,3,"skateboard","new-new",1365
"56cf6e8d31a5bc0006e1cdf5",5,"older",4,"FOOD","FOOD",TRUE,3.429,1,4,"rug","new-new",1365
"56cf6e8d31a5bc0006e1cdf5",6,"older",1,"FRIE","KIND",FALSE,9.998,0,1,"monkey","old-new",1366
"56cf6e8d31a5bc0006e1cdf5",6,"older",2,"FLESH","FLESH",TRUE,6.599,1,2,"pear","new-new",1366
"56cf6e8d31a5bc0006e1cdf5",6,"older",3,"MOMENT","MOMENT",TRUE,5.628,3,3,"mushroom","mis-match",1366
"56cf6e8d31a5bc0006e1cdf5",6,"older",4,"FAMILY","FAMILY",TRUE,5.249,2,4,"scissors","match",1366
"56cf6e8d31a5bc0006e1cdf5",7,"older",1,"MONTH","MONTH",TRUE,5.267,2,1,"backpack","new-new",1367
"56cf6e8d31a5bc0006e1cdf5",7,"older",2,"SPIRIT","SPIRIT",TRUE,4.549,0,2,"sunflower","new-new",1367
"56cf6e8d31a5bc0006e1cdf5",7,"older",3,"PENNY","PENNY",TRUE,3.629,3,3,"tray","new-new",1367
"56cf6e8d31a5bc0006e1cdf5",7,"older",4,"FEET","FEET",TRUE,2.85,1,4,"cart","new-new",1367
"56cf6e8d31a5bc0006e1cdf5",8,"older",1,"ESTATE","ESTATE",TRUE,5.418,2,1,"runner","mis-match",1368
"56cf6e8d31a5bc0006e1cdf5",8,"older",2,"SERIES","SERIES",TRUE,4.4,1,2,"coin","match",1368
"56cf6e8d31a5bc0006e1cdf5",8,"older",3,"IDEAS","IDEAS",TRUE,3.849,3,3,"sun","new-new",1368
"56cf6e8d31a5bc0006e1cdf5",8,"older",4,"GLASS","GLASS",TRUE,4.252,0,4,"dart","old-new",1368
"56cf6e8d31a5bc0006e1cdf5",9,"older",1,"TEAR","TEAR",TRUE,3.628,1,1,"calendar","new-new",1369
"56cf6e8d31a5bc0006e1cdf5",9,"older",2,"SPEECH","SPEECH",TRUE,5.119,3,2,"spoon","new-new",1369
"56cf6e8d31a5bc0006e1cdf5",9,"older",3,"BATH","BATH",TRUE,3.481,0,3,"taxi","new-new",1369
"56cf6e8d31a5bc0006e1cdf5",9,"older",4,"FRIEND","FRIEND",TRUE,6.998,2,4,"planet","new-new",1369
"56cf6e8d31a5bc0006e1cdf5",10,"older",1,"RECORD","RECORD",TRUE,4.618,0,1,"frame","new-new",1370
"56cf6e8d31a5bc0006e1cdf5",10,"older",2,"DIRT","DIRT",TRUE,4.579,3,2,"hanger","new-new",1370
"56cf6e8d31a5bc0006e1cdf5",10,"older",3,"SAKE","SAKE",TRUE,3.22,1,3,"anchor","new-new",1370
"56cf6e8d31a5bc0006e1cdf5",10,"older",4,"PRINCE","PRINCE",TRUE,3.899,2,4,"cap","new-new",1370
"56cf6e8d31a5bc0006e1cdf5",11,"older",1,"SHOTS","SHOTS",TRUE,5.398,2,1,"windmill","old-new",1371
"56cf6e8d31a5bc0006e1cdf5",11,"older",2,"WEAPON","WEAPON",TRUE,4.449,0,2,"perfume","new-new",1371
"56cf6e8d31a5bc0006e1cdf5",11,"older",3,"LEADER","LEADER",TRUE,3.849,3,3,"crown","mis-match",1371
"56cf6e8d31a5bc0006e1cdf5",11,"older",4,"LETTER","LETTER",TRUE,3.371,1,4,"stool","match",1371
"56cf6e8d31a5bc0006e1cdf5",12,"older",1,"BOYS","BOYS",TRUE,5.698,2,1,"razor","new-new",1372
"56cf6e8d31a5bc0006e1cdf5",12,"older",2,"ROOF","ROOF",TRUE,4.149,0,2,"megaphone","new-new",1372
"56cf6e8d31a5bc0006e1cdf5",12,"older",3,"GODS","GODS",TRUE,4.5,3,3,"bench","new-new",1372
"56cf6e8d31a5bc0006e1cdf5",12,"older",4,"COPS","COPS",TRUE,2.949,1,4,"tractor","new-new",1372
"56cf6e8d31a5bc0006e1cdf5",13,"older",1,"GIRL","GIRL",TRUE,3.598,2,1,"basket","match",1373
"56cf6e8d31a5bc0006e1cdf5",13,"older",2,"CLIENT","CLIENT",TRUE,5.15,0,2,"telephone","old-new",1373
"56cf6e8d31a5bc0006e1cdf5",13,"older",3,"RIVER","RIVER",TRUE,5.049,3,3,"motorbike","mis-match",1373
"56cf6e8d31a5bc0006e1cdf5",13,"older",4,"DEMON","DEMON",TRUE,3.899,1,4,"bolt","new-new",1373
"56cf6e8d31a5bc0006e1cdf5",14,"older",1,"NIGHT","NIGHT",TRUE,9.997,0,1,"goose","new-new",1374
"56cf6e8d31a5bc0006e1cdf5",14,"older",2,"?","CARS",FALSE,0.249,1,2,"microphone","old-new",1374
"56cf6e8d31a5bc0006e1cdf5",14,"older",3,"CLOCK","CLOCK",TRUE,9.999,3,3,"pencil","mis-match",1374
"56cf6e8d31a5bc0006e1cdf5",14,"older",4,"TOILET","TOILET",TRUE,4.05,2,4,"diamond","match",1374
"56cf6e8d31a5bc0006e1cdf5",15,"older",1,"BELT","BELT",TRUE,5.027,3,1,"peg","new-new",1375
"56cf6e8d31a5bc0006e1cdf5",15,"older",2,"PILLS","PILLS",TRUE,4.37,2,2,"map","old-new",1375
"56cf6e8d31a5bc0006e1cdf5",15,"older",3,"PLENTY","PLENTY",TRUE,4.099,0,3,"daisy","match",1375
"56cf6e8d31a5bc0006e1cdf5",15,"older",4,"POLICY","POLICY",TRUE,3.58,1,4,"boot","mis-match",1375
"56cf6e8d31a5bc0006e1cdf5",16,"older",1,"SYSTEM","SYSTEM",TRUE,4.778,2,1,"ring","match",1376
"56cf6e8d31a5bc0006e1cdf5",16,"older",2,"HOUSE","HOUSE",TRUE,4.201,0,2,"mirror","new-new",1376
"56cf6e8d31a5bc0006e1cdf5",16,"older",3,"LOTS","LOTS",TRUE,4.399,3,3,"cathedral","mis-match",1376
"56cf6e8d31a5bc0006e1cdf5",16,"older",4,"PHOTO","PHOTO",TRUE,5.869,1,4,"candle","old-new",1376
"571b60465d40840012c3fd40",1,"older",1,"WRITER","WRITER",TRUE,8.32696,0,1,"cap","mis-match",1233
"571b60465d40840012c3fd40",1,"older",2,"WEAPON","WEAPON",TRUE,4.070385,2,2,"cherry","new-new",1233
"571b60465d40840012c3fd40",1,"older",3,"KIND","KIND",TRUE,2.136045,1,3,"candle","match",1233
"571b60465d40840012c3fd40",1,"older",4,"WOMEN","WOMEN",TRUE,4.074965,3,4,"microphone","old-new",1233
"571b60465d40840012c3fd40",2,"older",1,"HOUSE","FLESH",FALSE,5.08088,1,1,"windmill","new-new",1234
"571b60465d40840012c3fd40",2,"older",2,"CARS","CARS",TRUE,2.25376,2,2,"tray","new-new",1234
"571b60465d40840012c3fd40",2,"older",3,"DOZEN","DOZEN",TRUE,2.398635,0,3,"gorilla","new-new",1234
"571b60465d40840012c3fd40",2,"older",4,"LOTS","LOTS",TRUE,2.15005,3,4,"backpack","new-new",1234
"571b60465d40840012c3fd40",3,"older",1,"BELT","BELT",TRUE,3.21141,3,1,"wheelbarrow","new-new",1235
"571b60465d40840012c3fd40",3,"older",2,"POLICY","JUNGLE",FALSE,3.335515,1,2,"planet","old-new",1235
"571b60465d40840012c3fd40",3,"older",3,"SPEECH","POLICY",FALSE,2.42346,0,3,"pepper","mis-match",1235
"571b60465d40840012c3fd40",3,"older",4,"BATH","BATH",TRUE,1.865275,2,4,"spoon","match",1235
"571b60465d40840012c3fd40",4,"older",1,"POLLICY","ARTIST",FALSE,5.801695,1,1,"calendar","mis-match",1236
"571b60465d40840012c3fd40",4,"older",2,"SYSTEM","SYSTEM",TRUE,3.13048,0,2,"sun","new-new",1236
"571b60465d40840012c3fd40",4,"older",3,"LETTER","LETTER",TRUE,2.33165,3,3,"mirror","match",1236
"571b60465d40840012c3fd40",4,"older",4,"TEAR","TEAR",TRUE,2.23872,2,4,"hanger","old-new",1236
"571b60465d40840012c3fd40",5,"older",1,"AREA","AREA",TRUE,2.75326,2,1,"shovel","match",1237
"571b60465d40840012c3fd40",5,"older",2,"SAKE","SAKE",TRUE,2.37114,3,2,"motorbike","old-new",1237
"571b60465d40840012c3fd40",5,"older",3,"MESSAGE","ADVICE",FALSE,3.416395,0,3,"megaphone","new-new",1237
"571b60465d40840012c3fd40",5,"older",4,"DEMON","DEMON",TRUE,2.58065,1,4,"telephone","mis-match",1237
"571b60465d40840012c3fd40",6,"older",1,"CASINO","CASINO",TRUE,4.100935,2,1,"helmet","match",1238
"571b60465d40840012c3fd40",6,"older",2,"TOWN","ESTATE",FALSE,3.63147,0,2,"map","new-new",1238
"571b60465d40840012c3fd40",6,"older",3,"GIRL","GIRL",TRUE,1.85222,3,3,"pencil","old-new",1238
"571b60465d40840012c3fd40",6,"older",4,"PHOTO","PHOTO",TRUE,1.914055,1,4,"cathedral","mis-match",1238
"571b60465d40840012c3fd40",7,"older",1,"SERIES","SERIES",TRUE,3.214615,0,1,"tyre","new-new",1239
"571b60465d40840012c3fd40",7,"older",2,"DUCK","AGENT",FALSE,2.514205,2,2,"goose","new-new",1239
"571b60465d40840012c3fd40",7,"older",3,"ROYAL","SALE",FALSE,1.967055,1,3,"diamond","new-new",1239
"571b60465d40840012c3fd40",7,"older",4,"BUILDER","MILLER",FALSE,7.153765,3,4,"bolt","new-new",1239
"571b60465d40840012c3fd40",8,"older",1,"SEAT","NIGHT",FALSE,4.68879,3,1,"bench","new-new",1240
"571b60465d40840012c3fd40",8,"older",2,"PILLS","PILLS",TRUE,2.506575,0,2,"skateboard","new-new",1240
"571b60465d40840012c3fd40",8,"older",3,"RECORD","RECORD",TRUE,3.21432,1,3,"razor","new-new",1240
"571b60465d40840012c3fd40",8,"older",4,"FAMILY","FAMILY",TRUE,2.81163,2,4,"ring","new-new",1240
"571b60465d40840012c3fd40",9,"older",1,"FRIEND","FRIEND",TRUE,3.103885,3,1,"balcony","new-new",1241
"571b60465d40840012c3fd40",9,"older",2,"GODS","GODS",TRUE,1.75418,2,2,"perfume","new-new",1241
"571b60465d40840012c3fd40",9,"older",3,"DANGER","DANGER",TRUE,2.22332,0,3,"crown","new-new",1241
"571b60465d40840012c3fd40",9,"older",4,"VALLEY","VALLEY",TRUE,2.37707,1,4,"basket","new-new",1241
"571b60465d40840012c3fd40",10,"older",1,"ROOF","ROOF",TRUE,3.142335,2,1,"rug","match",1242
"571b60465d40840012c3fd40",10,"older",2,"IDEAS","IDEAS",TRUE,3.028565,3,2,"coin","mis-match",1242
"571b60465d40840012c3fd40",10,"older",3,"DICE","APPLE",FALSE,2.93547,0,3,"dice","new-new",1242
"571b60465d40840012c3fd40",10,"older",4,"MOMENT","MOMENT",TRUE,2.791725,1,4,"boot","old-new",1242
"571b60465d40840012c3fd40",11,"older",1,"MILE","MILE",TRUE,3.566205,3,1,"taxi","new-new",1243
"571b60465d40840012c3fd40",11,"older",2,"YARD","YARD",TRUE,2.057915,0,2,"monkey","match",1243
"571b60465d40840012c3fd40",11,"older",3,"DIRT","DIRT",TRUE,3.959765,1,3,"scissors","old-new",1243
"571b60465d40840012c3fd40",11,"older",4,"SPEECH","SPEECH",TRUE,2.969545,2,4,"carrot","mis-match",1243
"571b60465d40840012c3fd40",12,"older",1,"NATION","NATION",TRUE,3.05092,3,1,"stamp","match",1244
"571b60465d40840012c3fd40",12,"older",2,"PENNY","PENNY",TRUE,2.19778,1,2,"stool","new-new",1244
"571b60465d40840012c3fd40",12,"older",3,"TOILET","TOILET",TRUE,2.12549,2,3,"anchor","mis-match",1244
"571b60465d40840012c3fd40",12,"older",4,"GLASS","BODY",FALSE,3.51078,0,4,"daisy","old-new",1244
"571b60465d40840012c3fd40",13,"older",1,"CHOICE","LIFE",FALSE,3.81157,3,1,"pawn","new-new",1245
"571b60465d40840012c3fd40",13,"older",2,"DEATH","DEATH",TRUE,1.730645,1,2,"aeroplane","new-new",1245
"571b60465d40840012c3fd40",13,"older",3,"SHOTS","SHOTS",TRUE,2.08956,2,3,"cart","new-new",1245
"571b60465d40840012c3fd40",13,"older",4,"LEAF","LEADER",FALSE,2.585425,0,4,"sunflower","new-new",1245
"571b60465d40840012c3fd40",14,"older",1,"DEMON","PRINCE",FALSE,3.33402,3,1,"peg","mis-match",1246
"571b60465d40840012c3fd40",14,"older",2,"HOUSE","HOUSE",TRUE,1.629365,2,2,"mushroom","match",1246
"571b60465d40840012c3fd40",14,"older",3,"FOOD","FOOD",TRUE,1.91657,1,3,"dart","new-new",1246
"571b60465d40840012c3fd40",14,"older",4,"THING","THING",TRUE,2.461995,0,4,"frame","old-new",1246
"571b60465d40840012c3fd40",15,"older",1,"CANDY","CANDY",TRUE,3.541375,1,1,"tractor","new-new",1247
"571b60465d40840012c3fd40",15,"older",2,"CLIENT","CLIENT",TRUE,2.030935,3,2,"watch","new-new",1247
"571b60465d40840012c3fd40",15,"older",3,"PLANE","FLIGHT",FALSE,3.48794,0,3,"wheel","new-new",1247
"571b60465d40840012c3fd40",15,"older",4,"FEET","FEET",TRUE,1.5464,2,4,"runner","new-new",1247
"571b60465d40840012c3fd40",16,"older",1,"HONEY","HONEY",TRUE,2.825285,0,1,"kettle","old-new",1248
"571b60465d40840012c3fd40",16,"older",2,"STYLE","STYLE",TRUE,1.881565,3,2,"suitcase","match",1248
"571b60465d40840012c3fd40",16,"older",3,"PEAR","CLOCK",FALSE,2.872835,2,3,"pear","new-new",1248
"571b60465d40840012c3fd40",16,"older",4,"IDEAS","PLENTY",FALSE,2.71222,1,4,"salt","mis-match",1248
"57b6e26a1836cb000137b5ba",1,"older",1,"SAKE","SAKE",TRUE,4.98988,1,1,"aeroplane","old-new",897
"57b6e26a1836cb000137b5ba",1,"older",2,"YARD","YARD",TRUE,2.60048,2,2,"tyre","match",897
"57b6e26a1836cb000137b5ba",1,"older",3,"FATE","SALE",FALSE,3.593695,3,3,"map","mis-match",897
"57b6e26a1836cb000137b5ba",1,"older",4,"STYLE","STYLE",TRUE,3.398715,0,4,"boot","new-new",897
"57b6e26a1836cb000137b5ba",2,"older",1,"BOYS","BOYS",TRUE,3.159045,1,1,"pear","match",898
"57b6e26a1836cb000137b5ba",2,"older",2,"HATE","PRINCE",FALSE,4.91093,3,2,"windmill","new-new",898
"57b6e26a1836cb000137b5ba",2,"older",3,"NATION","NATION",TRUE,4.22341,2,3,"gorilla","old-new",898
"57b6e26a1836cb000137b5ba",2,"older",4,"FATE","JUNGLE",FALSE,4.077345,0,4,"razor","mis-match",898
"57b6e26a1836cb000137b5ba",3,"older",1,"LIFE","MILE",FALSE,9.10279,0,1,"anchor","mis-match",899
"57b6e26a1836cb000137b5ba",3,"older",2,"HONEY","HONEY",TRUE,3.02348,1,2,"cherry","new-new",899
"57b6e26a1836cb000137b5ba",3,"older",3,"COPS","COPS",TRUE,2.120015,2,3,"wheel","match",899
"57b6e26a1836cb000137b5ba",3,"older",4,"MILE","PENNY",FALSE,3.799895,3,4,"microphone","old-new",899
"57b6e26a1836cb000137b5ba",4,"older",1,"GIRL","GIRL",TRUE,4.290375,3,1,"mirror","old-new",900
"57b6e26a1836cb000137b5ba",4,"older",2,"MILLER","MILLER",TRUE,2.876665,1,2,"suitcase","match",900
"57b6e26a1836cb000137b5ba",4,"older",3,"SPEECH","SPEECH",TRUE,3.15547,2,3,"backpack","new-new",900
"57b6e26a1836cb000137b5ba",4,"older",4,"FAMILY","FAMILY",TRUE,2.87838,0,4,"candle","mis-match",900
"57b6e26a1836cb000137b5ba",5,"older",1,"ADVICE","ADVICE",TRUE,3.923095,0,1,"calendar","mis-match",901
"57b6e26a1836cb000137b5ba",5,"older",2,"LOTS","LOTS",TRUE,2.704785,3,2,"spoon","new-new",901
"57b6e26a1836cb000137b5ba",5,"older",3,"DIRT","DIRT",TRUE,2.733135,1,3,"ring","old-new",901
"57b6e26a1836cb000137b5ba",5,"older",4,"ROOF","ROOF",TRUE,2.14782,2,4,"basket","match",901
"57b6e26a1836cb000137b5ba",6,"older",1,"DOZEN","DOZEN",TRUE,5.90059,2,1,"wheelbarrow","old-new",902
"57b6e26a1836cb000137b5ba",6,"older",2,"WRITER","WRITER",TRUE,2.81788,1,2,"rug","match",902
"57b6e26a1836cb000137b5ba",6,"older",3,"ARTIST","ARTIST",TRUE,3.363445,3,3,"daisy","new-new",902
"57b6e26a1836cb000137b5ba",6,"older",4,"PLENTY","TOILET",FALSE,5.87149,0,4,"scissors","mis-match",902
"57b6e26a1836cb000137b5ba",7,"older",1,"FOOD","DEATH",FALSE,4.00465,3,1,"pencil","new-new",903
"57b6e26a1836cb000137b5ba",7,"older",2,"GODS","FRIEND",FALSE,2.38502,2,2,"cart","new-new",903
"57b6e26a1836cb000137b5ba",7,"older",3,"FRIEND","FOOD",FALSE,4.50129,0,3,"telephone","new-new",903
"57b6e26a1836cb000137b5ba",7,"older",4,"FUN","GODS",FALSE,4.372565,1,4,"sun","new-new",903
"57b6e26a1836cb000137b5ba",8,"older",1,"IDEAS","LEADER",FALSE,5.71201,1,1,"cathedral","new-new",904
"57b6e26a1836cb000137b5ba",8,"older",2,"SPIRIT","SPIRIT",TRUE,3.00051,0,2,"coin","new-new",904
"57b6e26a1836cb000137b5ba",8,"older",3,"HOTEL","HOTEL",TRUE,3.955345,3,3,"planet","new-new",904
"57b6e26a1836cb000137b5ba",8,"older",4,"IDEAS","IDEAS",TRUE,3.210385,2,4,"cap","new-new",904
"57b6e26a1836cb000137b5ba",9,"older",1,"CLIENT","CLIENT",TRUE,4.225995,0,1,"peg","old-new",905
"57b6e26a1836cb000137b5ba",9,"older",2,"CARS","CARS",TRUE,2.523645,2,2,"motorbike","new-new",905
"57b6e26a1836cb000137b5ba",9,"older",3,"CANDY","CANDY",TRUE,2.550645,1,3,"stamp","match",905
"57b6e26a1836cb000137b5ba",9,"older",4,"RECORD","RECORD",TRUE,6.88926,3,4,"dart","mis-match",905
"57b6e26a1836cb000137b5ba",10,"older",1,"WOMEN","WOMEN",TRUE,5.28483,3,1,"watch","new-new",906
"57b6e26a1836cb000137b5ba",10,"older",2,"ROAD","RIVER",FALSE,5.72879,1,2,"tray","new-new",906
"57b6e26a1836cb000137b5ba",10,"older",3,"CLOCK","CLOCK",TRUE,4.782835,2,3,"runner","new-new",906
"57b6e26a1836cb000137b5ba",10,"older",4,"NIGHT","NIGHT",TRUE,2.8079,0,4,"perfume","new-new",906
"57b6e26a1836cb000137b5ba",11,"older",1,"GLASS","GLASS",TRUE,3.219815,0,1,"crown","old-new",907
"57b6e26a1836cb000137b5ba",11,"older",2,"ADVICE","SYSTEM",FALSE,4.80003,1,2,"sunflower","new-new",907
"57b6e26a1836cb000137b5ba",11,"older",3,"FLIGHT","FLIGHT",TRUE,3.46372,3,3,"pawn","mis-match",907
"57b6e26a1836cb000137b5ba",11,"older",4,"THING","THING",TRUE,2.35169,2,4,"bench","match",907
"57b6e26a1836cb000137b5ba",12,"older",1,"ESTATE","ESTATE",TRUE,4.768845,2,1,"tractor","new-new",908
"57b6e26a1836cb000137b5ba",12,"older",2,"BELT","BELT",TRUE,2.97903,0,2,"stool","new-new",908
"57b6e26a1836cb000137b5ba",12,"older",3,"FRIEND","AGENT",FALSE,4.078965,3,3,"salt","new-new",908
"57b6e26a1836cb000137b5ba",12,"older",4,"AREA","AREA",TRUE,2.47901,1,4,"frame","new-new",908
"57b6e26a1836cb000137b5ba",13,"older",1,"KIND","KIND",TRUE,2.615285,2,1,"dice","match",909
"57b6e26a1836cb000137b5ba",13,"older",2,"SHOTS","DANGER",FALSE,5.004435,3,2,"megaphone","mis-match",909
"57b6e26a1836cb000137b5ba",13,"older",3,"BOLT","SHOTS",FALSE,4.209735,1,3,"bolt","old-new",909
"57b6e26a1836cb000137b5ba",13,"older",4,"APPLE","APPLE",TRUE,2.59768,0,4,"kettle","new-new",909
"57b6e26a1836cb000137b5ba",14,"older",1,"PLENTY","PILLS",FALSE,5.27854,3,1,"hanger","old-new",910
"57b6e26a1836cb000137b5ba",14,"older",2,"FLESH","FLESH",TRUE,3.35653,1,2,"balcony","new-new",910
"57b6e26a1836cb000137b5ba",14,"older",3,"DUDE","DUDE",TRUE,2.350375,2,3,"pepper","match",910
"57b6e26a1836cb000137b5ba",14,"older",4,"PHOTO","PLENTY",FALSE,3.259965,0,4,"monkey","mis-match",910
"57b6e26a1836cb000137b5ba",15,"older",1,"DEAR","HOUSE",FALSE,3.65078,0,1,"goose","new-new",911
"57b6e26a1836cb000137b5ba",15,"older",2,"BOAT","BATH",FALSE,3.114015,3,2,"skateboard","new-new",911
"57b6e26a1836cb000137b5ba",15,"older",3,"SKATE","TEAR",FALSE,3.052405,1,3,"shovel","new-new",911
"57b6e26a1836cb000137b5ba",15,"older",4,"FLASH","YEAR",FALSE,5.0652,2,4,"mushroom","new-new",911
"57b6e26a1836cb000137b5ba",16,"older",1,"DEAD","BEAUTY",FALSE,6.597975,2,1,"taxi","new-new",912
"57b6e26a1836cb000137b5ba",16,"older",2,"SERIES","SERIES",TRUE,2.89589,0,2,"helmet","new-new",912
"57b6e26a1836cb000137b5ba",16,"older",3,"FLASH","DEMON",FALSE,3.269775,3,3,"diamond","new-new",912
"57b6e26a1836cb000137b5ba",16,"older",4,"DIG","CASINO",FALSE,4.78273,1,4,"carrot","new-new",912
"57bdba0770808a00012d9810",1,"older",1,"DANGER","DANGER",TRUE,3.33687,2,1,"cherry","old-new",1377
"57bdba0770808a00012d9810",1,"older",2,"POLICY","YEAR",FALSE,4.956285,0,2,"kettle","mis-match",1377
"57bdba0770808a00012d9810",1,"older",3,"ARTIST","ARTIST",TRUE,2.459515,3,3,"wheel","match",1377
"57bdba0770808a00012d9810",1,"older",4,"?","FLIGHT",FALSE,3.099505,1,4,"shovel","new-new",1377
"57bdba0770808a00012d9810",2,"older",1,"CLIENT","CLIENT",TRUE,2.850725,0,1,"telephone","old-new",1378
"57bdba0770808a00012d9810",2,"older",2,"?","DEMON",FALSE,2.138695,1,2,"bolt","new-new",1378
"57bdba0770808a00012d9810",2,"older",3,"RIVER","RIVER",TRUE,2.469335,3,3,"motorbike","mis-match",1378
"57bdba0770808a00012d9810",2,"older",4,"GIRL","GIRL",TRUE,2.43654,2,4,"basket","match",1378
"57bdba0770808a00012d9810",3,"older",1,"YEAR","CLOCK",FALSE,5.315335,3,1,"pencil","mis-match",1379
"57bdba0770808a00012d9810",3,"older",2,"NIGHT","NIGHT",TRUE,2.723285,0,2,"goose","new-new",1379
"57bdba0770808a00012d9810",3,"older",3,"TOILET","TOILET",TRUE,2.265725,2,3,"diamond","match",1379
"57bdba0770808a00012d9810",3,"older",4,"CLOCK","CARS",FALSE,2.635405,1,4,"microphone","old-new",1379
"57bdba0770808a00012d9810",4,"older",1,"?","GLASS",FALSE,2.90499,0,1,"dart","old-new",1380
"57bdba0770808a00012d9810",4,"older",2,"IDEAS","IDEAS",TRUE,2.481895,3,2,"sun","new-new",1380
"57bdba0770808a00012d9810",4,"older",3,"CLOCK","ESTATE",FALSE,7.034715,2,3,"runner","mis-match",1380
"57bdba0770808a00012d9810",4,"older",4,"SERIES","SERIES",TRUE,2.582165,1,4,"coin","match",1380
"57bdba0770808a00012d9810",5,"older",1,"CASE","HONEY",FALSE,2.157055,3,1,"suitcase","match",1381
"57bdba0770808a00012d9810",5,"older",2,"?","JUNGLE",FALSE,6.05328,0,2,"salt","mis-match",1381
"57bdba0770808a00012d9810",5,"older",3,"?","BODY",FALSE,2.373585,2,3,"gorilla","old-new",1381
"57bdba0770808a00012d9810",5,"older",4,"LIFE","LIFE",TRUE,2.286915,1,4,"carrot","new-new",1381
"57bdba0770808a00012d9810",6,"older",1,"?","MOMENT",FALSE,3.65857,3,1,"mushroom","mis-match",1382
"57bdba0770808a00012d9810",6,"older",2,"FAMILY","FAMILY",TRUE,2.943325,2,2,"scissors","match",1382
"57bdba0770808a00012d9810",6,"older",3,"KIND","KIND",TRUE,1.63877,0,3,"monkey","old-new",1382
"57bdba0770808a00012d9810",6,"older",4,"FLESH","FLESH",TRUE,1.80701,1,4,"pear","new-new",1382
"57bdba0770808a00012d9810",7,"older",1,"PRINCE","PRINCE",TRUE,2.609555,2,1,"cap","new-new",1383
"57bdba0770808a00012d9810",7,"older",2,"DIRT","DIRT",TRUE,1.977085,3,2,"hanger","new-new",1383
"57bdba0770808a00012d9810",7,"older",3,"WALL","RECORD",FALSE,2.62226,0,3,"frame","new-new",1383
"57bdba0770808a00012d9810",7,"older",4,"?","SAKE",FALSE,1.539135,1,4,"anchor","new-new",1383
"57bdba0770808a00012d9810",8,"older",1,"CASINO","CASINO",TRUE,4.734415,3,1,"pepper","new-new",1384
"57bdba0770808a00012d9810",8,"older",2,"WATCH","YARD",FALSE,2.41154,2,2,"wheelbarrow","new-new",1384
"57bdba0770808a00012d9810",8,"older",3,"AGENT","AGENT",TRUE,3.72802,0,3,"watch","new-new",1384
"57bdba0770808a00012d9810",8,"older",4,"WOMEN","WOMEN",TRUE,2.6845,1,4,"stamp","new-new",1384
"57bdba0770808a00012d9810",9,"older",1,"WRITER","NATION",FALSE,5.60522,2,1,"tyre","new-new",1385
"57bdba0770808a00012d9810",9,"older",2,"ALIEN","AREA",FALSE,2.748225,1,2,"helmet","old-new",1385
"57bdba0770808a00012d9810",9,"older",3,"ESTATE","WRITER",FALSE,2.975655,3,3,"dice","mis-match",1385
"57bdba0770808a00012d9810",9,"older",4,"CANDY","CANDY",TRUE,4.115295,0,4,"pawn","match",1385
"57bdba0770808a00012d9810",10,"older",1,"TEAR","TEAR",TRUE,4.760245,1,1,"calendar","new-new",1386
"57bdba0770808a00012d9810",10,"older",2,"FRIEND","FRIEND",TRUE,4.19152,2,2,"planet","new-new",1386
"57bdba0770808a00012d9810",10,"older",3,"?","BATH",FALSE,3.29103,0,3,"taxi","new-new",1386
"57bdba0770808a00012d9810",10,"older",4,"SPEECH","SPEECH",TRUE,3.035345,3,4,"spoon","new-new",1386
"57bdba0770808a00012d9810",11,"older",1,"LOTS","LOTS",TRUE,2.40316,3,1,"cathedral","mis-match",1387
"57bdba0770808a00012d9810",11,"older",2,"?","SYSTEM",FALSE,2.577745,2,2,"ring","match",1387
"57bdba0770808a00012d9810",11,"older",3,"HOUSE","HOUSE",TRUE,2.05905,0,3,"mirror","new-new",1387
"57bdba0770808a00012d9810",11,"older",4,"PHOTO","PHOTO",TRUE,3.804135,1,4,"candle","old-new",1387
"57bdba0770808a00012d9810",12,"older",1,"PENNY","PENNY",TRUE,4.386315,3,1,"tray","new-new",1388
"57bdba0770808a00012d9810",12,"older",2,"PLENTY","SPIRIT",FALSE,2.667415,0,2,"sunflower","new-new",1388
"57bdba0770808a00012d9810",12,"older",3,"?","FEET",FALSE,1.491795,1,3,"cart","new-new",1388
"57bdba0770808a00012d9810",12,"older",4,"SPIRIT","MONTH",FALSE,4.705825,2,4,"backpack","new-new",1388
"57bdba0770808a00012d9810",13,"older",1,"AIRPLANE","HOTEL",FALSE,7.592815,2,1,"skateboard","new-new",1389
"57bdba0770808a00012d9810",13,"older",2,"DOZEN","DOZEN",TRUE,4.145375,3,2,"balcony","new-new",1389
"57bdba0770808a00012d9810",13,"older",3,"MEAL","FOOD",FALSE,2.600385,1,3,"rug","new-new",1389
"57bdba0770808a00012d9810",13,"older",4,"DOZEN","STYLE",FALSE,4.122825,0,4,"aeroplane","new-new",1389
"57bdba0770808a00012d9810",14,"older",1,"LEADER","LEADER",TRUE,2.610095,3,1,"crown","mis-match",1390
"57bdba0770808a00012d9810",14,"older",2,"LETTER","LETTER",TRUE,5.11947,1,2,"stool","match",1390
"57bdba0770808a00012d9810",14,"older",3,"WOMEN","WEAPON",FALSE,2.8993,0,3,"perfume","new-new",1390
"57bdba0770808a00012d9810",14,"older",4,"?","SHOTS",FALSE,5.172675,2,4,"windmill","old-new",1390
"57bdba0770808a00012d9810",15,"older",1,"?","PILLS",FALSE,2.80306,2,1,"map","old-new",1391
"57bdba0770808a00012d9810",15,"older",2,"LEADER","POLICY",FALSE,3.047185,1,2,"boot","mis-match",1391
"57bdba0770808a00012d9810",15,"older",3,"PLENTY","PLENTY",TRUE,2.79379,0,3,"daisy","match",1391
"57bdba0770808a00012d9810",15,"older",4,"BELT","BELT",TRUE,2.10286,3,4,"peg","new-new",1391
"57bdba0770808a00012d9810",16,"older",1,"ROOF","ROOF",TRUE,3.168775,0,1,"megaphone","new-new",1392
"57bdba0770808a00012d9810",16,"older",2,"POLICE","COPS",FALSE,4.935395,1,2,"tractor","new-new",1392
"57bdba0770808a00012d9810",16,"older",3,"?","GODS",FALSE,4.209075,3,3,"bench","new-new",1392
"57bdba0770808a00012d9810",16,"older",4,"BOYS","BOYS",TRUE,2.5243,2,4,"razor","new-new",1392
"59504939c58c85000101dc92",1,"older",1,"AREA","PENNY",FALSE,7.716685,3,1,"shovel","match",865
"59504939c58c85000101dc92",1,"older",2,"?","AREA",FALSE,4.363565,0,2,"bench","old-new",865
"59504939c58c85000101dc92",1,"older",3,"?","RIVER",FALSE,0.9476,1,3,"backpack","mis-match",865
"59504939c58c85000101dc92",1,"older",4,"?","WEAPON",FALSE,0.71955,2,4,"boot","new-new",865
"59504939c58c85000101dc92",2,"older",1,"NATION","NATION",TRUE,5.774525,0,1,"pepper","new-new",866
"59504939c58c85000101dc92",2,"older",2,"?","DANGER",FALSE,3.592345,2,2,"skateboard","new-new",866
"59504939c58c85000101dc92",2,"older",3,"?","POLICY",FALSE,0.92849,1,3,"frame","new-new",866
"59504939c58c85000101dc92",2,"older",4,"RECORD","RECORD",TRUE,2.9613,3,4,"sun","new-new",866
"59504939c58c85000101dc92",3,"older",1,"?","JUNGLE",FALSE,10.000395,1,1,"anchor","match",867
"59504939c58c85000101dc92",3,"older",2,"DIRT","DIRT",TRUE,3.74079,0,2,"mirror","new-new",867
"59504939c58c85000101dc92",3,"older",3,"FRIEND","FRIEND",TRUE,3.764525,3,3,"taxi","old-new",867
"59504939c58c85000101dc92",3,"older",4,"THING","THING",TRUE,3.361235,2,4,"runner","mis-match",867
"59504939c58c85000101dc92",4,"older",1,"?","SALE",FALSE,9.991285,0,1,"kettle","new-new",868
"59504939c58c85000101dc92",4,"older",2,"SYSTEM","SYSTEM",TRUE,4.472605,1,2,"peg","new-new",868
"59504939c58c85000101dc92",4,"older",3,"HOUSE","HOUSE",TRUE,3.764845,3,3,"goose","new-new",868
"59504939c58c85000101dc92",4,"older",4,"ESTATE","ESTATE",TRUE,6.05617,2,4,"dart","new-new",868
"59504939c58c85000101dc92",5,"older",1,"?","ROOF",FALSE,9.99331,0,1,"planet","new-new",869
"59504939c58c85000101dc92",5,"older",2,"DEATH","DEATH",TRUE,4.01653,2,2,"suitcase","new-new",869
"59504939c58c85000101dc92",5,"older",3,"?","WRITER",FALSE,10.00064,1,3,"watch","new-new",869
"59504939c58c85000101dc92",5,"older",4,"NIGHT","NIGHT",TRUE,3.49825,3,4,"cap","new-new",869
"59504939c58c85000101dc92",6,"older",1,"?","DOZEN",FALSE,10.006625,0,1,"basket","new-new",870
"59504939c58c85000101dc92",6,"older",2,"COPS","COPS",TRUE,3.530295,3,2,"pencil","match",870
"59504939c58c85000101dc92",6,"older",3,"VALLEY","VALLEY",TRUE,4.43982,2,3,"megaphone","old-new",870
"59504939c58c85000101dc92",6,"older",4,"VALLEY","PHOTO",FALSE,3.86113,1,4,"spoon","mis-match",870
"59504939c58c85000101dc92",7,"older",1,"IDEAS","STYLE",FALSE,6.66988,2,1,"pawn","new-new",871
"59504939c58c85000101dc92",7,"older",2,"FLESH","FLESH",TRUE,4.76768,0,2,"balcony","new-new",871
"59504939c58c85000101dc92",7,"older",3,"IDEAS","IDEAS",TRUE,3.96955,3,3,"candle","new-new",871
"59504939c58c85000101dc92",7,"older",4,"SERIES","SERIES",TRUE,4.875465,1,4,"coin","new-new",871
"59504939c58c85000101dc92",8,"older",1,"SPIRIT","SPIRIT",TRUE,5.954565,2,1,"tractor","new-new",872
"59504939c58c85000101dc92",8,"older",2,"CARS","CARS",TRUE,4.305525,0,2,"motorbike","new-new",872
"59504939c58c85000101dc92",8,"older",3,"BOYS","BOYS",TRUE,4.423395,1,3,"monkey","new-new",872
"59504939c58c85000101dc92",8,"older",4,"?","MILE",FALSE,6.31456,3,4,"dice","new-new",872
"59504939c58c85000101dc92",9,"older",1,"MOMENT","MOMENT",TRUE,4.906015,3,1,"aeroplane","new-new",873
"59504939c58c85000101dc92",9,"older",2,"?","LETTER",FALSE,3.9329,1,2,"hanger","new-new",873
"59504939c58c85000101dc92",9,"older",3,"FOOD","FOOD",TRUE,3.20444,0,3,"cathedral","new-new",873
"59504939c58c85000101dc92",9,"older",4,"MILLER","MILLER",TRUE,5.7009,2,4,"sunflower","new-new",873
"59504939c58c85000101dc92",10,"older",1,"GIRL","GIRL",TRUE,3.97403,2,1,"tray","match",874
"59504939c58c85000101dc92",10,"older",2,"WOMEN","WOMEN",TRUE,5.59254,0,2,"wheel","mis-match",874
"59504939c58c85000101dc92",10,"older",3,"?","PRINCE",FALSE,10.013275,1,3,"windmill","new-new",874
"59504939c58c85000101dc92",10,"older",4,"BODY","BODY",TRUE,3.7506,3,4,"cherry","old-new",874
"59504939c58c85000101dc92",11,"older",1,"LOTS","LOTS",TRUE,4.02526,0,1,"microphone","match",875
"59504939c58c85000101dc92",11,"older",2,"ADVICE","BELT",FALSE,5.376785,1,2,"wheelbarrow","old-new",875
"59504939c58c85000101dc92",11,"older",3,"?","ADVICE",FALSE,1.726085,2,3,"stamp","mis-match",875
"59504939c58c85000101dc92",11,"older",4,"TEAR","TEAR",TRUE,3.56858,3,4,"calendar","new-new",875
"59504939c58c85000101dc92",12,"older",1,"SHOTS","SHOTS",TRUE,6.04047,1,1,"scissors","new-new",876
"59504939c58c85000101dc92",12,"older",2,"LIFE","LIFE",TRUE,3.86088,3,2,"razor","old-new",876
"59504939c58c85000101dc92",12,"older",3,"ADVICE","CLIENT",FALSE,3.581165,2,3,"carrot","mis-match",876
"59504939c58c85000101dc92",12,"older",4,"LEADER","LEADER",TRUE,3.505965,0,4,"helmet","match",876
"59504939c58c85000101dc92",13,"older",1,"YARD","YARD",TRUE,7.118365,3,1,"mushroom","new-new",877
"59504939c58c85000101dc92",13,"older",2,"PLENTY","PLENTY",TRUE,5.969155,1,2,"diamond","mis-match",877
"59504939c58c85000101dc92",13,"older",3,"GODS","KIND",FALSE,9.23914,2,3,"perfume","old-new",877
"59504939c58c85000101dc92",13,"older",4,"CLOCK","CLOCK",TRUE,3.348855,0,4,"bolt","match",877
"59504939c58c85000101dc92",14,"older",1,"BATH","FEET",FALSE,8.540895,3,1,"crown","old-new",878
"59504939c58c85000101dc92",14,"older",2,"BATH","BATH",TRUE,3.575315,2,2,"daisy","mis-match",878
"59504939c58c85000101dc92",14,"older",3,"DEMON","DEMON",TRUE,3.147605,1,3,"salt","new-new",878
"59504939c58c85000101dc92",14,"older",4,"GLASS","GLASS",TRUE,3.022195,0,4,"rug","match",878
"59504939c58c85000101dc92",15,"older",1,"CASINO","CASINO",TRUE,5.019705,2,1,"map","mis-match",879
"59504939c58c85000101dc92",15,"older",2,"APPLE","APPLE",TRUE,6.707695,1,2,"stool","old-new",879
"59504939c58c85000101dc92",15,"older",3,"SPEECH","SPEECH",TRUE,5.245995,3,3,"pear","new-new",879
"59504939c58c85000101dc92",15,"older",4,"CASE","SAKE",FALSE,2.745315,0,4,"ring","match",879
"59504939c58c85000101dc92",16,"older",1,"CANDY","CANDY",TRUE,6.50952,2,1,"cart","new-new",880
"59504939c58c85000101dc92",16,"older",2,"FLIGHT","FLIGHT",TRUE,4.45441,0,2,"tyre","match",880
"59504939c58c85000101dc92",16,"older",3,"YEAR","YEAR",TRUE,3.876995,1,3,"telephone","mis-match",880
"59504939c58c85000101dc92",16,"older",4,"ARTIST","ARTIST",TRUE,5.045245,3,4,"gorilla","old-new",880
"5975a8bcfccf1700017b3b76",1,"older",1,"LEADER","LEADER",TRUE,4.48067,2,1,"runner","mis-match",817
"5975a8bcfccf1700017b3b76",1,"older",2,"AGENT","AGENT",TRUE,3.13083,3,2,"mushroom","new-new",817
"5975a8bcfccf1700017b3b76",1,"older",3,"SALE","SALE",TRUE,3.099065,1,3,"dart","match",817
"5975a8bcfccf1700017b3b76",1,"older",4,"?","IDEAS",FALSE,1.49762,0,4,"daisy","old-new",817
"5975a8bcfccf1700017b3b76",2,"older",1,"AGENT","YARD",FALSE,5.19744,1,1,"stool","old-new",818
"5975a8bcfccf1700017b3b76",2,"older",2,"ROOF","ROOF",TRUE,3.164255,2,2,"planet","new-new",818
"5975a8bcfccf1700017b3b76",2,"older",3,"LEADER","COPS",FALSE,2.84699,0,3,"suitcase","mis-match",818
"5975a8bcfccf1700017b3b76",2,"older",4,"COPS","LOTS",FALSE,4.198435,3,4,"bolt","match",818
"5975a8bcfccf1700017b3b76",3,"older",1,"APPLE","APPLE",TRUE,4.014305,1,1,"pepper","old-new",819
"5975a8bcfccf1700017b3b76",3,"older",2,"JUNGLE","JUNGLE",TRUE,3.981295,0,2,"boot","mis-match",819
"5975a8bcfccf1700017b3b76",3,"older",3,"FRIES","FRIEND",FALSE,9.931625,2,3,"frame","match",819
"5975a8bcfccf1700017b3b76",3,"older",4,"CUTS","SYSTEM",FALSE,2.980805,3,4,"scissors","new-new",819
"5975a8bcfccf1700017b3b76",4,"older",1,"","HONEY",FALSE,9.9985,0,1,"taxi","new-new",820
"5975a8bcfccf1700017b3b76",4,"older",2,"DOZEN","NIGHT",FALSE,3.51447,2,2,"cap","match",820
"5975a8bcfccf1700017b3b76",4,"older",3,"NIGHT","NATION",FALSE,3.39899,3,3,"wheelbarrow","mis-match",820
"5975a8bcfccf1700017b3b76",4,"older",4,"?","DOZEN",FALSE,2.66463,1,4,"anchor","old-new",820
"5975a8bcfccf1700017b3b76",5,"older",1,"GOTS","CLOCK",FALSE,5.83151,2,1,"sunflower","new-new",821
"5975a8bcfccf1700017b3b76",5,"older",2,"HOTEL","HOTEL",TRUE,3.830845,0,2,"megaphone","new-new",821
"5975a8bcfccf1700017b3b76",5,"older",3,"GOTS","GODS",FALSE,2.99763,1,3,"windmill","new-new",821
"5975a8bcfccf1700017b3b76",5,"older",4,"PHOTO","PHOTO",TRUE,6.48218,3,4,"spoon","new-new",821
"5975a8bcfccf1700017b3b76",6,"older",1,"VALLEY","VALLEY",TRUE,5.381285,1,1,"pencil","match",822
"5975a8bcfccf1700017b3b76",6,"older",2,"CASINO","POLICY",FALSE,3.46408,2,2,"skateboard","new-new",822
"5975a8bcfccf1700017b3b76",6,"older",3,"VALLEY","CASINO",FALSE,3.780765,0,3,"watch","mis-match",822
"5975a8bcfccf1700017b3b76",6,"older",4,"POLICY","RECORD",FALSE,3.430765,3,4,"razor","old-new",822
"5975a8bcfccf1700017b3b76",7,"older",1,"GLASS","GLASS",TRUE,3.648465,0,1,"aeroplane","new-new",823
"5975a8bcfccf1700017b3b76",7,"older",2,"PILLS","ESTATE",FALSE,3.58098,2,2,"salt","new-new",823
"5975a8bcfccf1700017b3b76",7,"older",3,"ESTATE","DEMON",FALSE,3.347945,3,3,"mirror","new-new",823
"5975a8bcfccf1700017b3b76",7,"older",4,"PILLS","PILLS",TRUE,2.897955,1,4,"ring","new-new",823
"5975a8bcfccf1700017b3b76",8,"older",1,"PRINCE","FEET",FALSE,3.649945,2,1,"crown","new-new",824
"5975a8bcfccf1700017b3b76",8,"older",2,"GIRL","PRINCE",FALSE,3.38064,0,2,"peg","new-new",824
"5975a8bcfccf1700017b3b76",8,"older",3,"YEAR","YEAR",TRUE,4.714275,3,3,"coin","new-new",824
"5975a8bcfccf1700017b3b76",8,"older",4,"GIRL","GIRL",TRUE,3.19926,1,4,"map","new-new",824
"5975a8bcfccf1700017b3b76",9,"older",1,"FAMILY","THING",FALSE,5.23055,3,1,"hanger","old-new",825
"5975a8bcfccf1700017b3b76",9,"older",2,"DOZEN","CARS",FALSE,7.04975,2,2,"candle","new-new",825
"5975a8bcfccf1700017b3b76",9,"older",3,"FAMILY","SERIES",FALSE,6.347805,0,3,"helmet","match",825
"5975a8bcfccf1700017b3b76",9,"older",4,"DOZEN","FAMILY",FALSE,5.030625,1,4,"diamond","mis-match",825
"5975a8bcfccf1700017b3b76",10,"older",1,"DIRT","LETTER",FALSE,3.981285,1,1,"microphone","new-new",826
"5975a8bcfccf1700017b3b76",10,"older",2,"LETTER","DIRT",FALSE,3.34783,0,2,"sun","new-new",826
"5975a8bcfccf1700017b3b76",10,"older",3,"ADVICE","DEATH",FALSE,3.24878,3,3,"pawn","new-new",826
"5975a8bcfccf1700017b3b76",10,"older",4,"DEATH","ADVICE",FALSE,3.885935,2,4,"dice","new-new",826
"5975a8bcfccf1700017b3b76",11,"older",1,"CLIENT","LIFE",FALSE,8.03102,2,1,"wheel","old-new",827
"5975a8bcfccf1700017b3b76",11,"older",2,"CANDY","CANDY",TRUE,4.16434,0,2,"perfume","mis-match",827
"5975a8bcfccf1700017b3b76",11,"older",3,"LIFE","STYLE",FALSE,2.981375,3,3,"pear","new-new",827
"5975a8bcfccf1700017b3b76",11,"older",4,"LIFE","CLIENT",FALSE,4.24891,1,4,"monkey","match",827
"5975a8bcfccf1700017b3b76",12,"older",1,"YEAR","TEAR",FALSE,6.79888,2,1,"shovel","new-new",828
"5975a8bcfccf1700017b3b76",12,"older",2,"DANGER","DANGER",TRUE,4.347085,1,2,"tray","new-new",828
"5975a8bcfccf1700017b3b76",12,"older",3,"SPEECH","SPEECH",TRUE,4.16438,3,3,"motorbike","new-new",828
"5975a8bcfccf1700017b3b76",12,"older",4,"MILLER","MILLER",TRUE,3.496515,0,4,"balcony","new-new",828
"5975a8bcfccf1700017b3b76",13,"older",1,"BOYS","SHOTS",FALSE,3.764325,1,1,"telephone","match",829
"5975a8bcfccf1700017b3b76",13,"older",2,"SHOTS","SPIRIT",FALSE,3.883225,2,2,"basket","old-new",829
"5975a8bcfccf1700017b3b76",13,"older",3,"SPIRITS","AREA",FALSE,4.17769,3,3,"cart","new-new",829
"5975a8bcfccf1700017b3b76",13,"older",4,"SPIRITS","BOYS",FALSE,4.33098,0,4,"tyre","mis-match",829
"5975a8bcfccf1700017b3b76",14,"older",1,"PR","WRITER",FALSE,9.99505,2,1,"carrot","match",830
"5975a8bcfccf1700017b3b76",14,"older",2,"NCE","BELT",FALSE,0.81499,3,2,"backpack","old-new",830
"5975a8bcfccf1700017b3b76",14,"older",3,"MONTH","SAKE",FALSE,7.166055,1,3,"cathedral","mis-match",830
"5975a8bcfccf1700017b3b76",14,"older",4,"WRITER","MONTH",FALSE,3.813795,0,4,"cherry","new-new",830
"5975a8bcfccf1700017b3b76",15,"older",1,"RIVER","RIVER",TRUE,3.530855,2,1,"rug","match",831
"5975a8bcfccf1700017b3b76",15,"older",2,"FOOT","FOOD",FALSE,2.83095,0,2,"gorilla","mis-match",831
"5975a8bcfccf1700017b3b76",15,"older",3,"FOOT","BEAUTY",FALSE,2.60548,1,3,"goose","old-new",831
"5975a8bcfccf1700017b3b76",15,"older",4,"BEAUTY","MOMENT",FALSE,4.36513,3,4,"stamp","new-new",831
"5975a8bcfccf1700017b3b76",16,"older",1,"KIND","MILE",FALSE,3.51027,2,1,"calendar","new-new",832
"5975a8bcfccf1700017b3b76",16,"older",2,"WEAPON","WEAPON",TRUE,3.29764,1,2,"bench","new-new",832
"5975a8bcfccf1700017b3b76",16,"older",3,"KIND","KIND",TRUE,2.54783,0,3,"kettle","new-new",832
"5975a8bcfccf1700017b3b76",16,"older",4,"DUDE","DUDE",TRUE,3.112025,3,4,"tractor","new-new",832
"5986038865326000012c1578",1,"older",1,"PRINCE","PRINCE",TRUE,5.589905,3,1,"windmill","new-new",913
"5986038865326000012c1578",1,"older",2,"JUNGLE","JUNGLE",TRUE,4.89184,0,2,"razor","mis-match",913
"5986038865326000012c1578",1,"older",3,"BOYS","BOYS",TRUE,3.560065,1,3,"pear","match",913
"5986038865326000012c1578",1,"older",4,"PHOTO","NATION",FALSE,3.75997,2,4,"gorilla","old-new",913
"5986038865326000012c1578",2,"older",1,"CARDS","CANDY",FALSE,6.872895,1,1,"stamp","match",914
"5986038865326000012c1578",2,"older",2,"RECORD","RECORD",TRUE,3.861455,3,2,"dart","mis-match",914
"5986038865326000012c1578",2,"older",3,"POLICY","CLIENT",FALSE,4.094165,0,3,"peg","old-new",914
"5986038865326000012c1578",2,"older",4,"CARS","CARS",TRUE,3.30964,2,4,"motorbike","new-new",914
"5986038865326000012c1578",3,"older",1,"LEADERS","IDEAS",FALSE,7.48827,2,1,"cap","new-new",915
"5986038865326000012c1578",3,"older",2,"SPIRIT","SPIRIT",TRUE,5.657875,0,2,"coin","new-new",915
"5986038865326000012c1578",3,"older",3,"IDEAS","HOTEL",FALSE,4.79195,3,3,"planet","new-new",915
"5986038865326000012c1578",3,"older",4,"LEADERS","LEADER",FALSE,5.35774,1,4,"cathedral","new-new",915
"5986038865326000012c1578",4,"older",1,"STYLE","STYLE",TRUE,5.49031,0,1,"boot","new-new",916
"5986038865326000012c1578",4,"older",2,"YARD","YARD",TRUE,4.09948,2,2,"tyre","match",916
"5986038865326000012c1578",4,"older",3,"SALE","SAKE",FALSE,5.23688,1,3,"aeroplane","old-new",916
"5986038865326000012c1578",4,"older",4,"SAKE","SALE",FALSE,5.95707,3,4,"map","mis-match",916
"5986038865326000012c1578",5,"older",1,"ROOF","ROOF",TRUE,3.194785,2,1,"basket","match",917
"5986038865326000012c1578",5,"older",2,"?","LOTS",FALSE,5.876265,3,2,"spoon","new-new",917
"5986038865326000012c1578",5,"older",3,"DIR","DIRT",FALSE,9.989865,1,3,"ring","old-new",917
"5986038865326000012c1578",5,"older",4,"T","ADVICE",FALSE,0.37895,0,4,"calendar","mis-match",917
"5986038865326000012c1578",6,"older",1,"RIVER","CLOCK",FALSE,3.858565,2,1,"runner","new-new",918
"5986038865326000012c1578",6,"older",2,"WOMEN","WOMEN",TRUE,4.048555,3,2,"watch","new-new",918
"5986038865326000012c1578",6,"older",3,"NIGHT","RIVER",FALSE,4.992385,1,3,"tray","new-new",918
"5986038865326000012c1578",6,"older",4,"RIVER","NIGHT",FALSE,7.112755,0,4,"perfume","new-new",918
"5986038865326000012c1578",7,"older",1,"APPLE","APPLE",TRUE,4.215495,0,1,"kettle","new-new",919
"5986038865326000012c1578",7,"older",2,"SHOTS","SHOTS",TRUE,4.259405,1,2,"bolt","old-new",919
"5986038865326000012c1578",7,"older",3,"KIND","KIND",TRUE,3.69303,2,3,"dice","match",919
"5986038865326000012c1578",7,"older",4,"DANGER","DANGER",TRUE,3.20951,3,4,"megaphone","mis-match",919
"5986038865326000012c1578",8,"older",1,"?","FLIGHT",FALSE,3.141995,3,1,"pawn","mis-match",920
"5986038865326000012c1578",8,"older",2,"KINGDOM","GLASS",FALSE,4.97515,0,2,"crown","old-new",920
"5986038865326000012c1578",8,"older",3,"ROOF","THING",FALSE,6.0244,2,3,"bench","match",920
"5986038865326000012c1578",8,"older",4,"SYSTEM","SYSTEM",TRUE,6.17413,1,4,"sunflower","new-new",920
"5986038865326000012c1578",9,"older",1,"SYSTEM","SERIES",FALSE,6.30681,0,1,"helmet","new-new",921
"5986038865326000012c1578",9,"older",2,"DANGER","DEMON",FALSE,4.35999,3,2,"diamond","new-new",921
"5986038865326000012c1578",9,"older",3,"?","CASINO",FALSE,5.16177,1,3,"carrot","new-new",921
"5986038865326000012c1578",9,"older",4,"?","BEAUTY",FALSE,2.98531,2,4,"taxi","new-new",921
"5986038865326000012c1578",10,"older",1,"MILLER","MILLER",TRUE,3.758405,1,1,"suitcase","match",922
"5986038865326000012c1578",10,"older",2,"FAMILY","GIRL",FALSE,5.25811,3,2,"mirror","old-new",922
"5986038865326000012c1578",10,"older",3,"?","SPEECH",FALSE,3.210135,2,3,"backpack","new-new",922
"5986038865326000012c1578",10,"older",4,"?","FAMILY",FALSE,2.57684,0,4,"candle","mis-match",922
"5986038865326000012c1578",11,"older",1,"SYSTEM","ARTIST",FALSE,6.15602,3,1,"daisy","new-new",923
"5986038865326000012c1578",11,"older",2,"WRITER","TOILET",FALSE,3.7264,0,2,"scissors","mis-match",923
"5986038865326000012c1578",11,"older",3,"BENCH","DOZEN",FALSE,7.54123,2,3,"wheelbarrow","old-new",923
"5986038865326000012c1578",11,"older",4,"WRITER","WRITER",TRUE,3.577145,1,4,"rug","match",923
"5986038865326000012c1578",12,"older",1,"SPEECH","TEAR",FALSE,6.07298,1,1,"shovel","new-new",924
"5986038865326000012c1578",12,"older",2,"?","BATH",FALSE,2.809495,3,2,"skateboard","new-new",924
"5986038865326000012c1578",12,"older",3,"YEAR","YEAR",TRUE,4.79256,2,3,"mushroom","new-new",924
"5986038865326000012c1578",12,"older",4,"FAMILY","HOUSE",FALSE,6.20728,0,4,"goose","new-new",924
"5986038865326000012c1578",13,"older",1,"?","AGENT",FALSE,2.445545,3,1,"salt","new-new",925
"5986038865326000012c1578",13,"older",2,"?","BELT",FALSE,1.634685,0,2,"stool","new-new",925
"5986038865326000012c1578",13,"older",3,"AREA","AREA",TRUE,4.47785,1,3,"frame","new-new",925
"5986038865326000012c1578",13,"older",4,"ESTATE","ESTATE",TRUE,4.325425,2,4,"tractor","new-new",925
"5986038865326000012c1578",14,"older",1,"ESTATE","FLESH",FALSE,6.9562,1,1,"balcony","new-new",926
"5986038865326000012c1578",14,"older",2,"FLESH","PILLS",FALSE,4.274975,3,2,"hanger","old-new",926
"5986038865326000012c1578",14,"older",3,"DUDE","DUDE",TRUE,2.577715,2,3,"pepper","match",926
"5986038865326000012c1578",14,"older",4,"PLENTY","PLENTY",TRUE,4.32694,0,4,"monkey","mis-match",926
"5986038865326000012c1578",15,"older",1,"DEATH","FOOD",FALSE,4.879335,0,1,"telephone","new-new",927
"5986038865326000012c1578",15,"older",2,"DEATH","DEATH",TRUE,4.10938,3,2,"pencil","new-new",927
"5986038865326000012c1578",15,"older",3,"?","FRIEND",FALSE,3.991685,2,3,"cart","new-new",927
"5986038865326000012c1578",15,"older",4,"?","GODS",FALSE,4.02543,1,4,"sun","new-new",927
"5986038865326000012c1578",16,"older",1,"?","PENNY",FALSE,4.663435,3,1,"microphone","old-new",928
"5986038865326000012c1578",16,"older",2,"?","COPS",FALSE,1.727395,2,2,"wheel","match",928
"5986038865326000012c1578",16,"older",3,"HONEY","HONEY",TRUE,4.244395,1,3,"cherry","new-new",928
"5986038865326000012c1578",16,"older",4,"PENNY","MILE",FALSE,3.659605,0,4,"anchor","mis-match",928
"59860c81d75d360001b0bd95",1,"older",1,"FLESH","FLESH",TRUE,4.717,1,1,"windmill","new-new",1041
"59860c81d75d360001b0bd95",1,"older",2,"DOZEN","LOTS",FALSE,7.048,3,2,"backpack","new-new",1041
"59860c81d75d360001b0bd95",1,"older",3,"DOZEN","DOZEN",TRUE,9.636,0,3,"gorilla","new-new",1041
"59860c81d75d360001b0bd95",1,"older",4,"FLESH","CARS",FALSE,9.753,2,4,"tray","new-new",1041
"59860c81d75d360001b0bd95",2,"older",1,"SPEECH","SPEECH",TRUE,6.9,2,1,"carrot","mis-match",1042
"59860c81d75d360001b0bd95",2,"older",2,"MILE","MILE",TRUE,3.001,3,2,"taxi","new-new",1042
"59860c81d75d360001b0bd95",2,"older",3,"DIRT","DIRT",TRUE,4.214,1,3,"scissors","old-new",1042
"59860c81d75d360001b0bd95",2,"older",4,"YARD","YARD",TRUE,4.468,0,4,"monkey","match",1042
"59860c81d75d360001b0bd95",3,"older",1,"POLICY","BELT",FALSE,8.546,3,1,"wheelbarrow","new-new",1043
"59860c81d75d360001b0bd95",3,"older",2,"JUNG","JUNGLE",FALSE,10.004,1,2,"planet","old-new",1043
"59860c81d75d360001b0bd95",3,"older",3,"JUNGLE","POLICY",FALSE,7.654,0,3,"pepper","mis-match",1043
"59860c81d75d360001b0bd95",3,"older",4,"POLICY","BATH",FALSE,4.068,2,4,"spoon","match",1043
"59860c81d75d360001b0bd95",4,"older",1,"POT","CLOCK",FALSE,4.719,2,1,"pear","new-new",1044
"59860c81d75d360001b0bd95",4,"older",2,"PLENTY","PLENTY",TRUE,6.599,1,2,"salt","mis-match",1044
"59860c81d75d360001b0bd95",4,"older",3,"STYLE","STYLE",TRUE,4.518,3,3,"suitcase","match",1044
"59860c81d75d360001b0bd95",4,"older",4,"HONEY","HONEY",TRUE,6.452,0,4,"kettle","old-new",1044
"59860c81d75d360001b0bd95",5,"older",1,"NIGHT","NIGHT",TRUE,4.95,3,1,"bench","new-new",1045
"59860c81d75d360001b0bd95",5,"older",2,"PILLS","PILLS",TRUE,7.553,0,2,"skateboard","new-new",1045
"59860c81d75d360001b0bd95",5,"older",3,"FAMILY","FAMILY",TRUE,3.651,2,3,"ring","new-new",1045
"59860c81d75d360001b0bd95",5,"older",4,"RECORD","RECORD",TRUE,3.435,1,4,"razor","new-new",1045
"59860c81d75d360001b0bd95",6,"older",1,"SALES","SALE",FALSE,6.139,1,1,"diamond","new-new",1046
"59860c81d75d360001b0bd95",6,"older",2,"MILLER","MILLER",TRUE,4.43,3,2,"bolt","new-new",1046
"59860c81d75d360001b0bd95",6,"older",3,"SERIES","SERIES",TRUE,3.3,0,3,"tyre","new-new",1046
"59860c81d75d360001b0bd95",6,"older",4,"AGENT","AGENT",TRUE,2.851,2,4,"goose","new-new",1046
"59860c81d75d360001b0bd95",7,"older",1,"AGENT","CASINO",FALSE,6.627,2,1,"helmet","match",1047
"59860c81d75d360001b0bd95",7,"older",2,"GIRL","GIRL",TRUE,3.433,3,2,"pencil","old-new",1047
"59860c81d75d360001b0bd95",7,"older",3,"ESTATE","ESTATE",TRUE,5.736,0,3,"map","new-new",1047
"59860c81d75d360001b0bd95",7,"older",4,"PHOTO","PHOTO",TRUE,5.351,1,4,"cathedral","mis-match",1047
"59860c81d75d360001b0bd95",8,"older",1,"BODY","BODY",TRUE,3.766,0,1,"daisy","old-new",1048
"59860c81d75d360001b0bd95",8,"older",2,"NATION","NATION",TRUE,3.416,3,2,"stamp","match",1048
"59860c81d75d360001b0bd95",8,"older",3,"TOILET","TOILET",TRUE,4.517,2,3,"anchor","mis-match",1048
"59860c81d75d360001b0bd95",8,"older",4,"PENNY","PENNY",TRUE,3.403,1,4,"stool","new-new",1048
"59860c81d75d360001b0bd95",9,"older",1,"CANDY","CANDY",TRUE,9.484,1,1,"tractor","new-new",1049
"59860c81d75d360001b0bd95",9,"older",2,"FLIGHT","FLIGHT",TRUE,8.132,0,2,"wheel","new-new",1049
"59860c81d75d360001b0bd95",9,"older",3,"FEET","FEET",TRUE,2.485,2,3,"runner","new-new",1049
"59860c81d75d360001b0bd95",9,"older",4,"CLIENT","CLIENT",TRUE,4.584,3,4,"watch","new-new",1049
"59860c81d75d360001b0bd95",10,"older",1,"APPLE","APPLE",TRUE,3.7,0,1,"dice","new-new",1050
"59860c81d75d360001b0bd95",10,"older",2,"ROOF","ROOF",TRUE,2.766,2,2,"rug","match",1050
"59860c81d75d360001b0bd95",10,"older",3,"MOMENT","MOMENT",TRUE,5.151,1,3,"boot","old-new",1050
"59860c81d75d360001b0bd95",10,"older",4,"IDEAS","IDEAS",TRUE,6.988,3,4,"coin","mis-match",1050
"59860c81d75d360001b0bd95",11,"older",1,"ADVICE","ADVICE",TRUE,6.851,0,1,"megaphone","new-new",1051
"59860c81d75d360001b0bd95",11,"older",2,"AREA","AREA",TRUE,2.752,2,2,"shovel","match",1051
"59860c81d75d360001b0bd95",11,"older",3,"DEMON","DEMON",TRUE,3.346,1,3,"telephone","mis-match",1051
"59860c81d75d360001b0bd95",11,"older",4,"SAKE","SAKE",TRUE,5.118,3,4,"motorbike","old-new",1051
"59860c81d75d360001b0bd95",12,"older",1,"LEADER","LEADER",TRUE,4.826,0,1,"sunflower","new-new",1052
"59860c81d75d360001b0bd95",12,"older",2,"SHOTS","LIFE",FALSE,6.485,3,2,"pawn","new-new",1052
"59860c81d75d360001b0bd95",12,"older",3,"DEATH","SHOTS",FALSE,3.167,2,3,"cart","new-new",1052
"59860c81d75d360001b0bd95",12,"older",4,"DEATH","DEATH",TRUE,3.466,1,4,"aeroplane","new-new",1052
"59860c81d75d360001b0bd95",13,"older",1,"QRITER","WRITER",FALSE,4.767,0,1,"cap","mis-match",1053
"59860c81d75d360001b0bd95",13,"older",2,"KIND","KIND",TRUE,3.428,1,2,"candle","match",1053
"59860c81d75d360001b0bd95",13,"older",3,"?","WOMEN",FALSE,7.586,3,3,"microphone","old-new",1053
"59860c81d75d360001b0bd95",13,"older",4,"DEATH","WEAPON",FALSE,6.89,2,4,"cherry","new-new",1053
"59860c81d75d360001b0bd95",14,"older",1,"?","ARTIST",FALSE,9.609,1,1,"calendar","mis-match",1054
"59860c81d75d360001b0bd95",14,"older",2,"LETTER","LETTER",TRUE,4.03,3,2,"mirror","match",1054
"59860c81d75d360001b0bd95",14,"older",3,"?","TEAR",FALSE,5.353,2,3,"hanger","old-new",1054
"59860c81d75d360001b0bd95",14,"older",4,"?","SYSTEM",FALSE,5.62,0,4,"sun","new-new",1054
"59860c81d75d360001b0bd95",15,"older",1,"HOUSE","PRINCE",FALSE,6.301,3,1,"peg","mis-match",1055
"59860c81d75d360001b0bd95",15,"older",2,"THING","THING",TRUE,3.383,0,2,"frame","old-new",1055
"59860c81d75d360001b0bd95",15,"older",3,"HOUSE","HOUSE",TRUE,3.37,2,3,"mushroom","match",1055
"59860c81d75d360001b0bd95",15,"older",4,"FOOD","FOOD",TRUE,2.831,1,4,"dart","new-new",1055
"59860c81d75d360001b0bd95",16,"older",1,"DANGER","FRIEND",FALSE,6.837,3,1,"balcony","new-new",1056
"59860c81d75d360001b0bd95",16,"older",2,"DANGER","DANGER",TRUE,3.23,0,2,"crown","new-new",1056
"59860c81d75d360001b0bd95",16,"older",3,"GODS","GODS",TRUE,5.986,2,3,"perfume","new-new",1056
"59860c81d75d360001b0bd95",16,"older",4,"VALLEY","VALLEY",TRUE,4.284,1,4,"basket","new-new",1056
"59bb9e3a178f1b0001828b12",1,"older",1,"WORDS","GODS",FALSE,10.001,1,1,"windmill","new-new",1105
"59bb9e3a178f1b0001828b12",1,"older",2,"HOTEL","HOTEL",TRUE,9.984,0,2,"megaphone","new-new",1105
"59bb9e3a178f1b0001828b12",1,"older",3,"CLOCK","CLOCK",TRUE,10.002,2,3,"sunflower","new-new",1105
"59bb9e3a178f1b0001828b12",1,"older",4,"PHOTO","PHOTO",TRUE,10.001,3,4,"spoon","new-new",1105
"59bb9e3a178f1b0001828b12",2,"older",1,"KIND","DUDE",FALSE,10.016,3,1,"tractor","new-new",1106
"59bb9e3a178f1b0001828b12",2,"older",2,"WEAPON","WEAPON",TRUE,10.02,1,2,"bench","new-new",1106
"59bb9e3a178f1b0001828b12",2,"older",3,"MILD","MILE",FALSE,9.984,2,3,"calendar","new-new",1106
"59bb9e3a178f1b0001828b12",2,"older",4,"KIND","KIND",TRUE,10.002,0,4,"kettle","new-new",1106
"59bb9e3a178f1b0001828b12",3,"older",1,"PILLS","DEMON",FALSE,9.998,3,1,"mirror","new-new",1107
"59bb9e3a178f1b0001828b12",3,"older",2,"PILLS","PILLS",TRUE,9.986,1,2,"ring","new-new",1107
"59bb9e3a178f1b0001828b12",3,"older",3,"GLASS","GLASS",TRUE,10.001,0,3,"aeroplane","new-new",1107
"59bb9e3a178f1b0001828b12",3,"older",4,"ESTATE","ESTATE",TRUE,10.002,2,4,"salt","new-new",1107
"59bb9e3a178f1b0001828b12",4,"older",1,"MILLER","DANGER",FALSE,9.999,1,1,"tray","new-new",1108
"59bb9e3a178f1b0001828b12",4,"older",2,"SPEECH","SPEECH",TRUE,9.984,3,2,"motorbike","new-new",1108
"59bb9e3a178f1b0001828b12",4,"older",3,"MILLER","MILLER",TRUE,10.019,0,3,"balcony","new-new",1108
"59bb9e3a178f1b0001828b12",4,"older",4,"DANGER","TEAR",FALSE,10,2,4,"shovel","new-new",1108
"59bb9e3a178f1b0001828b12",5,"older",1,"SHOTS","SPIRIT",FALSE,10.001,2,1,"basket","old-new",1109
"59bb9e3a178f1b0001828b12",5,"older",2,"BOYS","BOYS",TRUE,9.989,0,2,"tyre","mis-match",1109
"59bb9e3a178f1b0001828b12",5,"older",3,"SHOTS","SHOTS",TRUE,10.016,1,3,"telephone","match",1109
"59bb9e3a178f1b0001828b12",5,"older",4,"AREA","AREA",TRUE,10.014,3,4,"cart","new-new",1109
"59bb9e3a178f1b0001828b12",6,"older",1,"POLICY","POLICY",TRUE,10.022,2,1,"skateboard","new-new",1110
"59bb9e3a178f1b0001828b12",6,"older",2,"RECORD","RECORD",TRUE,9.993,3,2,"razor","old-new",1110
"59bb9e3a178f1b0001828b12",6,"older",3,"VALLEY","VALLEY",TRUE,10.026,1,3,"pencil","match",1110
"59bb9e3a178f1b0001828b12",6,"older",4,"CASINO","CASINO",TRUE,10.018,0,4,"watch","mis-match",1110
"59bb9e3a178f1b0001828b12",7,"older",1,"BELT","BELT",TRUE,10.017,3,1,"backpack","old-new",1111
"59bb9e3a178f1b0001828b12",7,"older",2,"MONTH","MONTH",TRUE,9.984,0,2,"cherry","new-new",1111
"59bb9e3a178f1b0001828b12",7,"older",3,"SAKE","SAKE",TRUE,10.001,1,3,"cathedral","mis-match",1111
"59bb9e3a178f1b0001828b12",7,"older",4,"WRITER","WRITER",TRUE,10.01,2,4,"carrot","match",1111
"59bb9e3a178f1b0001828b12",8,"older",1,"LOTS","LOTS",TRUE,9.996,3,1,"bolt","match",1112
"59bb9e3a178f1b0001828b12",8,"older",2,"ROOF","ROOF",TRUE,10.022,2,2,"planet","new-new",1112
"59bb9e3a178f1b0001828b12",8,"older",3,"YARD","YARD",TRUE,9.994,1,3,"stool","old-new",1112
"59bb9e3a178f1b0001828b12",8,"older",4,"COPS","COPS",TRUE,10.001,0,4,"suitcase","mis-match",1112
"59bb9e3a178f1b0001828b12",9,"older",1,"FRIEND","FRIEND",TRUE,9.989,2,1,"frame","match",1113
"59bb9e3a178f1b0001828b12",9,"older",2,"JUNGLE","JUNGLE",TRUE,10.034,0,2,"boot","mis-match",1113
"59bb9e3a178f1b0001828b12",9,"older",3,"APPLE","APPLE",TRUE,9.992,1,3,"pepper","old-new",1113
"59bb9e3a178f1b0001828b12",9,"older",4,"SYSTEM","SYSTEM",TRUE,10.018,3,4,"scissors","new-new",1113
"59bb9e3a178f1b0001828b12",10,"older",1,"ADVICE","ADVICE",TRUE,9.99,2,1,"dice","new-new",1114
"59bb9e3a178f1b0001828b12",10,"older",2,"LETTER","LETTER",TRUE,10.009,1,2,"microphone","new-new",1114
"59bb9e3a178f1b0001828b12",10,"older",3,"LEND","DEATH",FALSE,10.012,3,3,"pawn","new-new",1114
"59bb9e3a178f1b0001828b12",10,"older",4,"DIRT","DIRT",TRUE,9.984,0,4,"sun","new-new",1114
"59bb9e3a178f1b0001828b12",11,"older",1,"NATION","NATION",TRUE,9.992,3,1,"wheelbarrow","mis-match",1115
"59bb9e3a178f1b0001828b12",11,"older",2,"HONEY","DOZEN",FALSE,10.018,1,2,"anchor","old-new",1115
"59bb9e3a178f1b0001828b12",11,"older",3,"NIGHT","NIGHT",TRUE,10.019,2,3,"cap","match",1115
"59bb9e3a178f1b0001828b12",11,"older",4,"HONEY","HONEY",TRUE,9.977,0,4,"taxi","new-new",1115
"59bb9e3a178f1b0001828b12",12,"older",1,"STYLE","STYLE",TRUE,9.999,3,1,"pear","new-new",1116
"59bb9e3a178f1b0001828b12",12,"older",2,"LIFE","LIFE",TRUE,10.001,2,2,"wheel","old-new",1116
"59bb9e3a178f1b0001828b12",12,"older",3,"CLIENT","CLIENT",TRUE,9.985,1,3,"monkey","match",1116
"59bb9e3a178f1b0001828b12",12,"older",4,"CANDY","CANDY",TRUE,10,0,4,"perfume","mis-match",1116
"59bb9e3a178f1b0001828b12",13,"older",1,"FOOD","FOOD",TRUE,9.997,0,1,"gorilla","mis-match",1117
"59bb9e3a178f1b0001828b12",13,"older",2,"MOMENT","MOMENT",TRUE,9.985,3,2,"stamp","new-new",1117
"59bb9e3a178f1b0001828b12",13,"older",3,"RIVER","RIVER",TRUE,9.983,2,3,"rug","match",1117
"59bb9e3a178f1b0001828b12",13,"older",4,"BEAUTY","BEAUTY",TRUE,9.968,1,4,"goose","old-new",1117
"59bb9e3a178f1b0001828b12",14,"older",1,"FEAT","FEET",FALSE,10.001,2,1,"crown","new-new",1118
"59bb9e3a178f1b0001828b12",14,"older",2,"","YEAR",FALSE,10.01,3,2,"coin","new-new",1118
"59bb9e3a178f1b0001828b12",14,"older",3,"GIRL","GIRL",TRUE,9.994,1,3,"map","new-new",1118
"59bb9e3a178f1b0001828b12",14,"older",4,"PRINCE","PRINCE",TRUE,9.992,0,4,"peg","new-new",1118
"59bb9e3a178f1b0001828b12",15,"older",1,"IDEAS","LEADER",FALSE,10.001,2,1,"runner","mis-match",1119
"59bb9e3a178f1b0001828b12",15,"older",2,"IDEAS","IDEAS",TRUE,10.001,0,2,"daisy","old-new",1119
"59bb9e3a178f1b0001828b12",15,"older",3,"SALE","SALE",TRUE,10.016,1,3,"dart","match",1119
"59bb9e3a178f1b0001828b12",15,"older",4,"REGENT","AGENT",FALSE,9.993,3,4,"mushroom","new-new",1119
"59bb9e3a178f1b0001828b12",16,"older",1,"FAMILY","FAMILY",TRUE,10.007,1,1,"diamond","mis-match",1120
"59bb9e3a178f1b0001828b12",16,"older",2,"SERIES","SERIES",TRUE,10.017,0,2,"helmet","match",1120
"59bb9e3a178f1b0001828b12",16,"older",3,"THING","THING",TRUE,9.983,3,3,"hanger","old-new",1120
"59bb9e3a178f1b0001828b12",16,"older",4,"CARS","CARS",TRUE,10.017,2,4,"candle","new-new",1120
"59e50b3262637600014a76dd",1,"younger",1,"IDEAS","IDEAS",TRUE,2.130185,0,1,"daisy","old-new",49
"59e50b3262637600014a76dd",1,"younger",2,"AGENT","AGENT",TRUE,2.76306,3,2,"mushroom","new-new",49
"59e50b3262637600014a76dd",1,"younger",3,"SALE","SALE",TRUE,1.39773,1,3,"dart","match",49
"59e50b3262637600014a76dd",1,"younger",4,"LEADER","LEADER",TRUE,2.030895,2,4,"runner","mis-match",49
"59e50b3262637600014a76dd",2,"younger",1,"IDEAS","PHOTO",FALSE,2.163515,3,1,"spoon","new-new",50
"59e50b3262637600014a76dd",2,"younger",2,"IDEAS","HOTEL",FALSE,2.08018,0,2,"megaphone","new-new",50
"59e50b3262637600014a76dd",2,"younger",3,"GODS","GODS",TRUE,1.84756,1,3,"windmill","new-new",50
"59e50b3262637600014a76dd",2,"younger",4,"CLOCK","CLOCK",TRUE,1.13155,2,4,"sunflower","new-new",50
"59e50b3262637600014a76dd",3,"younger",1,"CLIENT","CLIENT",TRUE,1.71283,1,1,"monkey","match",51
"59e50b3262637600014a76dd",3,"younger",2,"CANDY","CANDY",TRUE,1.797635,0,2,"perfume","mis-match",51
"59e50b3262637600014a76dd",3,"younger",3,"STYLE","STYLE",TRUE,1.897865,3,3,"pear","new-new",51
"59e50b3262637600014a76dd",3,"younger",4,"LIFE","LIFE",TRUE,0.96552,2,4,"wheel","old-new",51
"59e50b3262637600014a76dd",4,"younger",1,"VALLEY","VALLEY",TRUE,3.96092,1,1,"pencil","match",52
"59e50b3262637600014a76dd",4,"younger",2,"RECORD","RECORD",TRUE,2.196905,3,2,"razor","old-new",52
"59e50b3262637600014a76dd",4,"younger",3,"POLICY","POLICY",TRUE,3.92899,2,3,"skateboard","new-new",52
"59e50b3262637600014a76dd",4,"younger",4,"CASINO","CASINO",TRUE,2.180865,0,4,"watch","mis-match",52
"59e50b3262637600014a76dd",5,"younger",1,"YARD","YARD",TRUE,3.910925,1,1,"stool","old-new",53
"59e50b3262637600014a76dd",5,"younger",2,"COPS","COPS",TRUE,1.03181,0,2,"suitcase","mis-match",53
"59e50b3262637600014a76dd",5,"younger",3,"LOTS","LOTS",TRUE,1.49796,3,3,"bolt","match",53
"59e50b3262637600014a76dd",5,"younger",4,"ROOF","ROOF",TRUE,1.348295,2,4,"planet","new-new",53
"59e50b3262637600014a76dd",6,"younger",1,"PILLS","PILLS",TRUE,4.19491,1,1,"ring","new-new",54
"59e50b3262637600014a76dd",6,"younger",2,"DEMON","DEMON",TRUE,1.464525,3,2,"mirror","new-new",54
"59e50b3262637600014a76dd",6,"younger",3,"ESTATE","ESTATE",TRUE,1.99774,2,3,"salt","new-new",54
"59e50b3262637600014a76dd",6,"younger",4,"GLASS","GLASS",TRUE,2.11454,0,4,"aeroplane","new-new",54
"59e50b3262637600014a76dd",7,"younger",1,"ESTATE","FAMILY",FALSE,4.211155,1,1,"diamond","mis-match",55
"59e50b3262637600014a76dd",7,"younger",2,"SERIES","SERIES",TRUE,1.763975,0,2,"helmet","match",55
"59e50b3262637600014a76dd",7,"younger",3,"THING","THING",TRUE,1.36424,3,3,"hanger","old-new",55
"59e50b3262637600014a76dd",7,"younger",4,"CARS","CARS",TRUE,1.331335,2,4,"candle","new-new",55
"59e50b3262637600014a76dd",8,"younger",1,"CASINO","MONTH",FALSE,3.69606,0,1,"cherry","new-new",56
"59e50b3262637600014a76dd",8,"younger",2,"WRITER","WRITER",TRUE,1.747555,2,2,"carrot","match",56
"59e50b3262637600014a76dd",8,"younger",3,"SAKE","SAKE",TRUE,1.49737,1,3,"cathedral","mis-match",56
"59e50b3262637600014a76dd",8,"younger",4,"CAG","BELT",FALSE,3.046545,3,4,"backpack","old-new",56
"59e50b3262637600014a76dd",9,"younger",1,"BENCH","DUDE",FALSE,4.927025,3,1,"tractor","new-new",57
"59e50b3262637600014a76dd",9,"younger",2,"WEAPON","WEAPON",TRUE,4.47835,1,2,"bench","new-new",57
"59e50b3262637600014a76dd",9,"younger",3,"KIND","MILE",FALSE,4.17785,2,3,"calendar","new-new",57
"59e50b3262637600014a76dd",9,"younger",4,"KIND","KIND",TRUE,1.830825,0,4,"kettle","new-new",57
"59e50b3262637600014a76dd",10,"younger",1,"BEAUTY","BEAUTY",TRUE,2.29572,1,1,"goose","old-new",58
"59e50b3262637600014a76dd",10,"younger",2,"MOMENT","MOMENT",TRUE,1.73092,3,2,"stamp","new-new",58
"59e50b3262637600014a76dd",10,"younger",3,"KIND","FOOD",FALSE,1.830805,0,3,"gorilla","mis-match",58
"59e50b3262637600014a76dd",10,"younger",4,"RIVER","RIVER",TRUE,1.298135,2,4,"rug","match",58
"59e50b3262637600014a76dd",11,"younger",1,"YEAR","YEAR",TRUE,3.495435,3,1,"coin","new-new",59
"59e50b3262637600014a76dd",11,"younger",2,"FEET","FEET",TRUE,1.8303,2,2,"crown","new-new",59
"59e50b3262637600014a76dd",11,"younger",3,"GIRL","GIRL",TRUE,3.014185,1,3,"map","new-new",59
"59e50b3262637600014a76dd",11,"younger",4,"PRINCE","PRINCE",TRUE,1.76489,0,4,"peg","new-new",59
"59e50b3262637600014a76dd",12,"younger",1,"DIRT","ADVICE",FALSE,1.996645,2,1,"dice","new-new",60
"59e50b3262637600014a76dd",12,"younger",2,"DIRT","DIRT",TRUE,1.39775,0,2,"sun","new-new",60
"59e50b3262637600014a76dd",12,"younger",3,"DEATH","DEATH",TRUE,1.698715,3,3,"pawn","new-new",60
"59e50b3262637600014a76dd",12,"younger",4,"LETTER","LETTER",TRUE,1.847595,1,4,"microphone","new-new",60
"59e50b3262637600014a76dd",13,"younger",1,"DIRT","AREA",FALSE,5.260075,3,1,"cart","new-new",61
"59e50b3262637600014a76dd",13,"younger",2,"SPIRIT","SPIRIT",TRUE,1.464845,2,2,"basket","old-new",61
"59e50b3262637600014a76dd",13,"younger",3,"BOYS","BOYS",TRUE,1.664785,0,3,"tyre","mis-match",61
"59e50b3262637600014a76dd",13,"younger",4,"SHOTS","SHOTS",TRUE,1.48133,1,4,"telephone","match",61
"59e50b3262637600014a76dd",14,"younger",1,"SYSTEM","SYSTEM",TRUE,2.946895,3,1,"scissors","new-new",62
"59e50b3262637600014a76dd",14,"younger",2,"FRIEND","FRIEND",TRUE,3.34576,2,2,"frame","match",62
"59e50b3262637600014a76dd",14,"younger",3,"SHOE","JUNGLE",FALSE,3.66206,0,3,"boot","mis-match",62
"59e50b3262637600014a76dd",14,"younger",4,"APPLE","APPLE",TRUE,1.24754,1,4,"pepper","old-new",62
"59e50b3262637600014a76dd",15,"younger",1,"NIGHT","NIGHT",TRUE,2.046705,2,1,"cap","match",63
"59e50b3262637600014a76dd",15,"younger",2,"NATION","NATION",TRUE,1.597485,3,2,"wheelbarrow","mis-match",63
"59e50b3262637600014a76dd",15,"younger",3,"DOZEN","DOZEN",TRUE,3.0797,1,3,"anchor","old-new",63
"59e50b3262637600014a76dd",15,"younger",4,"HONEY","HONEY",TRUE,1.41526,0,4,"taxi","new-new",63
"59e50b3262637600014a76dd",16,"younger",1,"TEAR","TEAR",TRUE,2.729115,2,1,"shovel","new-new",64
"59e50b3262637600014a76dd",16,"younger",2,"DANGER","DANGER",TRUE,1.664655,1,2,"tray","new-new",64
"59e50b3262637600014a76dd",16,"younger",3,"DIRT","SPEECH",FALSE,2.247665,3,3,"motorbike","new-new",64
"59e50b3262637600014a76dd",16,"younger",4,"SOEECH","MILLER",FALSE,3.711925,0,4,"balcony","new-new",64
"59e904176100f9000194a831",1,"older",1,"ARTIST","YARD",FALSE,9.998,1,1,"stool","old-new",801
"59e904176100f9000194a831",1,"older",2,"LOTS","LOTS",TRUE,10,3,2,"bolt","match",801
"59e904176100f9000194a831",1,"older",3,"BOYS","COPS",FALSE,10,0,3,"suitcase","mis-match",801
"59e904176100f9000194a831",1,"older",4,"?","ROOF",FALSE,9.999,2,4,"planet","new-new",801
"59e904176100f9000194a831",2,"older",1,"VALLEY","VALLEY",TRUE,9.997,1,1,"pencil","match",802
"59e904176100f9000194a831",2,"older",2,"FLESH","RECORD",FALSE,10,3,2,"razor","old-new",802
"59e904176100f9000194a831",2,"older",3,"COPS","CASINO",FALSE,10,0,3,"watch","mis-match",802
"59e904176100f9000194a831",2,"older",4,"POLICY","POLICY",TRUE,10,2,4,"skateboard","new-new",802
"59e904176100f9000194a831",3,"older",1,"ADVICE","LETTER",FALSE,9.998,1,1,"microphone","new-new",803
"59e904176100f9000194a831",3,"older",2,"DEATH","DEATH",TRUE,10,3,2,"pawn","new-new",803
"59e904176100f9000194a831",3,"older",3,"?","ADVICE",FALSE,10,2,3,"dice","new-new",803
"59e904176100f9000194a831",3,"older",4,"?","DIRT",FALSE,10,0,4,"sun","new-new",803
"59e904176100f9000194a831",4,"older",1,"BOYS","BOYS",TRUE,9.997,0,1,"tyre","mis-match",804
"59e904176100f9000194a831",4,"older",2,"AREA","AREA",TRUE,9.999,3,2,"cart","new-new",804
"59e904176100f9000194a831",4,"older",3,"SHOTS","SHOTS",TRUE,9.999,1,3,"telephone","match",804
"59e904176100f9000194a831",4,"older",4,"SPIRIT","SPIRIT",TRUE,9.999,2,4,"basket","old-new",804
"59e904176100f9000194a831",5,"older",1,"WEAPON","MILE",FALSE,9.998,2,1,"calendar","new-new",805
"59e904176100f9000194a831",5,"older",2,"?","WEAPON",FALSE,10,1,2,"bench","new-new",805
"59e904176100f9000194a831",5,"older",3,"DUDE","DUDE",TRUE,9.999,3,3,"tractor","new-new",805
"59e904176100f9000194a831",5,"older",4,"KIND","KIND",TRUE,9.999,0,4,"kettle","new-new",805
"59e904176100f9000194a831",6,"older",1,"NATION","NATION",TRUE,9.998,3,1,"wheelbarrow","mis-match",806
"59e904176100f9000194a831",6,"older",2,"HONEY","DOZEN",FALSE,10,1,2,"anchor","old-new",806
"59e904176100f9000194a831",6,"older",3,"?","HONEY",FALSE,9.997,0,3,"taxi","new-new",806
"59e904176100f9000194a831",6,"older",4,"NIGHT","NIGHT",TRUE,10,2,4,"cap","match",806
"59e904176100f9000194a831",7,"older",1,"HOTEL","CLOCK",FALSE,9.998,2,1,"sunflower","new-new",807
"59e904176100f9000194a831",7,"older",2,"PHOTO","PHOTO",TRUE,10,3,2,"spoon","new-new",807
"59e904176100f9000194a831",7,"older",3,"?","GODS",FALSE,10.001,1,3,"windmill","new-new",807
"59e904176100f9000194a831",7,"older",4,"GODS","HOTEL",FALSE,9.999,0,4,"megaphone","new-new",807
"59e904176100f9000194a831",8,"older",1,"ESTATE","ESTATE",TRUE,9.997,2,1,"salt","new-new",808
"59e904176100f9000194a831",8,"older",2,"PILLS","PILLS",TRUE,9.999,1,2,"ring","new-new",808
"59e904176100f9000194a831",8,"older",3,"DEMON","DEMON",TRUE,9.999,3,3,"mirror","new-new",808
"59e904176100f9000194a831",8,"older",4,"?","GLASS",FALSE,9.999,0,4,"aeroplane","new-new",808
"59e904176100f9000194a831",9,"older",1,"AG","AGENT",FALSE,9.998,3,1,"mushroom","new-new",809
"59e904176100f9000194a831",9,"older",2,"","IDEAS",FALSE,10,0,2,"daisy","old-new",809
"59e904176100f9000194a831",9,"older",3,"LEADER","LEADER",TRUE,9.999,2,3,"runner","mis-match",809
"59e904176100f9000194a831",9,"older",4,"SALE","SALE",TRUE,9.999,1,4,"dart","match",809
"59e904176100f9000194a831",10,"older",1,"BELT","BELT",TRUE,9.998,3,1,"backpack","old-new",810
"59e904176100f9000194a831",10,"older",2,"?","MONTH",FALSE,9.999,0,2,"cherry","new-new",810
"59e904176100f9000194a831",10,"older",3,"WRITER","WRITER",TRUE,9.999,2,3,"carrot","match",810
"59e904176100f9000194a831",10,"older",4,"?","SAKE",FALSE,10,1,4,"cathedral","mis-match",810
"59e904176100f9000194a831",11,"older",1,"PRIN","PRINCE",FALSE,9.998,0,1,"peg","new-new",811
"59e904176100f9000194a831",11,"older",2,"","YEAR",FALSE,9.999,3,2,"coin","new-new",811
"59e904176100f9000194a831",11,"older",3,"YEAR","FEET",FALSE,10,2,3,"crown","new-new",811
"59e904176100f9000194a831",11,"older",4,"GIRL","GIRL",TRUE,9.999,1,4,"map","new-new",811
"59e904176100f9000194a831",12,"older",1,"SERIES","SERIES",TRUE,9.992,0,1,"helmet","match",812
"59e904176100f9000194a831",12,"older",2,"THING","THING",TRUE,10,3,2,"hanger","old-new",812
"59e904176100f9000194a831",12,"older",3,"","CARS",FALSE,10,2,3,"candle","new-new",812
"59e904176100f9000194a831",12,"older",4,"?","FAMILY",FALSE,10,1,4,"diamond","mis-match",812
"59e904176100f9000194a831",13,"older",1,"RIVER","RIVER",TRUE,9.998,2,1,"rug","match",813
"59e904176100f9000194a831",13,"older",2,"?","FOOD",FALSE,10,0,2,"gorilla","mis-match",813
"59e904176100f9000194a831",13,"older",3,"RIVER","MOMENT",FALSE,10,3,3,"stamp","new-new",813
"59e904176100f9000194a831",13,"older",4,"?","BEAUTY",FALSE,10,1,4,"goose","old-new",813
"59e904176100f9000194a831",14,"older",1,"LIFE","CANDY",FALSE,9.998,0,1,"perfume","mis-match",814
"59e904176100f9000194a831",14,"older",2,"CLIENT","CLIENT",TRUE,9.999,1,2,"monkey","match",814
"59e904176100f9000194a831",14,"older",3,"STYLE","STYLE",TRUE,10,3,3,"pear","new-new",814
"59e904176100f9000194a831",14,"older",4,"LIFE","LIFE",TRUE,10.001,2,4,"wheel","old-new",814
"59e904176100f9000194a831",15,"older",1,"DANGER","DANGER",TRUE,9.998,1,1,"tray","new-new",815
"59e904176100f9000194a831",15,"older",2,"TEAR","TEAR",TRUE,10,2,2,"shovel","new-new",815
"59e904176100f9000194a831",15,"older",3,"SPEECH","MILLER",FALSE,10,0,3,"balcony","new-new",815
"59e904176100f9000194a831",15,"older",4,"SPEECH","SPEECH",TRUE,10,3,4,"motorbike","new-new",815
"59e904176100f9000194a831",16,"older",1,"FRIEND","FRIEND",TRUE,9.997,2,1,"frame","match",816
"59e904176100f9000194a831",16,"older",2,"APPLE","APPLE",TRUE,10,1,2,"pepper","old-new",816
"59e904176100f9000194a831",16,"older",3,"SYSTEM","SYSTEM",TRUE,10,3,3,"scissors","new-new",816
"59e904176100f9000194a831",16,"older",4,"?","JUNGLE",FALSE,10,0,4,"boot","mis-match",816
"5a9bff3b6475f900019ffc51",1,"older",1,"CANDY","FOOD",FALSE,9.996905,0,1,"gorilla","mis-match",881
"5a9bff3b6475f900019ffc51",1,"older",2,"?","BEAUTY",FALSE,9.99612,1,2,"goose","old-new",881
"5a9bff3b6475f900019ffc51",1,"older",3,"MOMENT","MOMENT",TRUE,9.99788,3,3,"stamp","new-new",881
"5a9bff3b6475f900019ffc51",1,"older",4,"RIVER","RIVER",TRUE,9.996925,2,4,"rug","match",881
"5a9bff3b6475f900019ffc51",2,"older",1,"KIND","KIND",TRUE,9.99633,0,1,"kettle","new-new",882
"5a9bff3b6475f900019ffc51",2,"older",2,"WEAPON","WEAPON",TRUE,9.99727,1,2,"bench","new-new",882
"5a9bff3b6475f900019ffc51",2,"older",3,"MILE","MILE",TRUE,9.995565,2,3,"calendar","new-new",882
"5a9bff3b6475f900019ffc51",2,"older",4,"DUDE","DUDE",TRUE,9.99746,3,4,"tractor","new-new",882
"5a9bff3b6475f900019ffc51",3,"older",1,"PRINCE","PRINCE",TRUE,9.997375,0,1,"peg","new-new",883
"5a9bff3b6475f900019ffc51",3,"older",2,"GIRL","GIRL",TRUE,9.99585,1,2,"map","new-new",883
"5a9bff3b6475f900019ffc51",3,"older",3,"DATE","YEAR",FALSE,9.99639,3,3,"coin","new-new",883
"5a9bff3b6475f900019ffc51",3,"older",4,"FEET","FEET",TRUE,9.998305,2,4,"crown","new-new",883
"5a9bff3b6475f900019ffc51",4,"older",1,"DEMON","DEMON",TRUE,9.99554,3,1,"mirror","new-new",884
"5a9bff3b6475f900019ffc51",4,"older",2,"GLASS","GLASS",TRUE,9.995565,0,2,"aeroplane","new-new",884
"5a9bff3b6475f900019ffc51",4,"older",3,"ESTATE","ESTATE",TRUE,9.997585,2,3,"salt","new-new",884
"5a9bff3b6475f900019ffc51",4,"older",4,"PILLS","PILLS",TRUE,9.99751,1,4,"ring","new-new",884
"5a9bff3b6475f900019ffc51",5,"older",1,"LEADER","LEADER",TRUE,9.996405,2,1,"runner","mis-match",885
"5a9bff3b6475f900019ffc51",5,"older",2,"AGENT","IDEAS",FALSE,9.99697,0,2,"daisy","old-new",885
"5a9bff3b6475f900019ffc51",5,"older",3,"SALE","SALE",TRUE,9.99698,1,3,"dart","match",885
"5a9bff3b6475f900019ffc51",5,"older",4,"AGENT","AGENT",TRUE,9.99164,3,4,"mushroom","new-new",885
"5a9bff3b6475f900019ffc51",6,"older",1,"?","LETTER",FALSE,9.995715,1,1,"microphone","new-new",886
"5a9bff3b6475f900019ffc51",6,"older",2,"ADVICE","ADVICE",TRUE,9.997375,2,2,"dice","new-new",886
"5a9bff3b6475f900019ffc51",6,"older",3,"DEATH","DEATH",TRUE,9.998115,3,3,"pawn","new-new",886
"5a9bff3b6475f900019ffc51",6,"older",4,"DIRTY","DIRT",FALSE,9.996035,0,4,"sun","new-new",886
"5a9bff3b6475f900019ffc51",7,"older",1,"LOST","YARD",FALSE,9.996415,1,1,"stool","old-new",887
"5a9bff3b6475f900019ffc51",7,"older",2,"COPS","COPS",TRUE,9.99743,0,2,"suitcase","mis-match",887
"5a9bff3b6475f900019ffc51",7,"older",3,"ROOF","ROOF",TRUE,9.996125,2,3,"planet","new-new",887
"5a9bff3b6475f900019ffc51",7,"older",4,"LOTS","LOTS",TRUE,9.995565,3,4,"bolt","match",887
"5a9bff3b6475f900019ffc51",8,"older",1,"DANGEROUS","DANGER",FALSE,9.99756,1,1,"tray","new-new",888
"5a9bff3b6475f900019ffc51",8,"older",2,"MILLER","MILLER",TRUE,9.99602,0,2,"balcony","new-new",888
"5a9bff3b6475f900019ffc51",8,"older",3,"SPEECH","SPEECH",TRUE,9.99715,3,3,"motorbike","new-new",888
"5a9bff3b6475f900019ffc51",8,"older",4,"TEAR","TEAR",TRUE,9.99759,2,4,"shovel","new-new",888
"5a9bff3b6475f900019ffc51",9,"older",1,"CLOCK","CLOCK",TRUE,9.99636,2,1,"sunflower","new-new",889
"5a9bff3b6475f900019ffc51",9,"older",2,"HOTEL","HOTEL",TRUE,9.99682,0,2,"megaphone","new-new",889
"5a9bff3b6475f900019ffc51",9,"older",3,"PHOTO","PHOTO",TRUE,9.99666,3,3,"spoon","new-new",889
"5a9bff3b6475f900019ffc51",9,"older",4,"GOD","GODS",FALSE,9.99678,1,4,"windmill","new-new",889
"5a9bff3b6475f900019ffc51",10,"older",1,"APPLE","APPLE",TRUE,9.994125,1,1,"pepper","old-new",890
"5a9bff3b6475f900019ffc51",10,"older",2,"SYSTEM","SYSTEM",TRUE,9.99593,3,2,"scissors","new-new",890
"5a9bff3b6475f900019ffc51",10,"older",3,"JUNGLE","JUNGLE",TRUE,9.99709,0,3,"boot","mis-match",890
"5a9bff3b6475f900019ffc51",10,"older",4,"FRIEND","FRIEND",TRUE,9.997595,2,4,"frame","match",890
"5a9bff3b6475f900019ffc51",11,"older",1,"THING","THING",TRUE,9.99606,3,1,"hanger","old-new",891
"5a9bff3b6475f900019ffc51",11,"older",2,"CARS","CARS",TRUE,9.996605,2,2,"candle","new-new",891
"5a9bff3b6475f900019ffc51",11,"older",3,"SERIES","SERIES",TRUE,10.00044,0,3,"helmet","match",891
"5a9bff3b6475f900019ffc51",11,"older",4,"FAMILY","FAMILY",TRUE,9.996165,1,4,"diamond","mis-match",891
"5a9bff3b6475f900019ffc51",12,"older",1,"VALLEY","VALLEY",TRUE,9.997465,1,1,"pencil","match",892
"5a9bff3b6475f900019ffc51",12,"older",2,"CASINO","CASINO",TRUE,9.997395,0,2,"watch","mis-match",892
"5a9bff3b6475f900019ffc51",12,"older",3,"POLICY","POLICY",TRUE,9.997315,2,3,"skateboard","new-new",892
"5a9bff3b6475f900019ffc51",12,"older",4,"RECORD","RECORD",TRUE,9.99683,3,4,"razor","old-new",892
"5a9bff3b6475f900019ffc51",13,"older",1,"LIFE","LIFE",TRUE,9.996735,2,1,"wheel","old-new",893
"5a9bff3b6475f900019ffc51",13,"older",2,"CLIENT","CLIENT",TRUE,9.99762,1,2,"monkey","match",893
"5a9bff3b6475f900019ffc51",13,"older",3,"CANDY","CANDY",TRUE,9.9976,0,3,"perfume","mis-match",893
"5a9bff3b6475f900019ffc51",13,"older",4,"STYLE","STYLE",TRUE,9.997565,3,4,"pear","new-new",893
"5a9bff3b6475f900019ffc51",14,"older",1,"SPIRITS","SPIRIT",FALSE,9.99652,2,1,"basket","old-new",894
"5a9bff3b6475f900019ffc51",14,"older",2,"SHOTS","SHOTS",TRUE,9.996635,1,2,"telephone","match",894
"5a9bff3b6475f900019ffc51",14,"older",3,"AREA","AREA",TRUE,9.99762,3,3,"cart","new-new",894
"5a9bff3b6475f900019ffc51",14,"older",4,"BOYS","BOYS",TRUE,9.998155,0,4,"tyre","mis-match",894
"5a9bff3b6475f900019ffc51",15,"older",1,"NIGHT","NIGHT",TRUE,9.996045,2,1,"cap","match",895
"5a9bff3b6475f900019ffc51",15,"older",2,"HONEY","HONEY",TRUE,9.99621,0,2,"taxi","new-new",895
"5a9bff3b6475f900019ffc51",15,"older",3,"NATION","NATION",TRUE,9.997545,3,3,"wheelbarrow","mis-match",895
"5a9bff3b6475f900019ffc51",15,"older",4,"DOZEN","DOZEN",TRUE,9.996055,1,4,"anchor","old-new",895
"5a9bff3b6475f900019ffc51",16,"older",1,"WRITER","WRITER",TRUE,9.99583,2,1,"carrot","match",896
"5a9bff3b6475f900019ffc51",16,"older",2,"MONTH","MONTH",TRUE,10.0035,0,2,"cherry","new-new",896
"5a9bff3b6475f900019ffc51",16,"older",3,"SAKE","SAKE",TRUE,9.946535,1,3,"cathedral","mis-match",896
"5a9bff3b6475f900019ffc51",16,"older",4,"BELT","BELT",TRUE,9.99761,3,4,"backpack","old-new",896
"5b13da851e55760001ba009a",1,"older",1,"ROOF","NIGHT",FALSE,3.287,3,1,"cap","new-new",929
"5b13da851e55760001ba009a",1,"older",2,"WRITER","DEATH",FALSE,3.343,2,2,"suitcase","new-new",929
"5b13da851e55760001ba009a",1,"older",3,"DEATH","ROOF",FALSE,2.362,0,3,"planet","new-new",929
"5b13da851e55760001ba009a",1,"older",4,"NIGHT","WRITER",FALSE,1.813,1,4,"watch","new-new",929
"5b13da851e55760001ba009a",2,"older",1,"PENNY","PENNY",TRUE,9.328,3,1,"shovel","match",930
"5b13da851e55760001ba009a",2,"older",2,"DUDE","AREA",FALSE,7.935,0,2,"bench","old-new",930
"5b13da851e55760001ba009a",2,"older",3,"CLIENT","RIVER",FALSE,6.922,1,3,"backpack","mis-match",930
"5b13da851e55760001ba009a",2,"older",4,"BOOTH","WEAPON",FALSE,5.79,2,4,"boot","new-new",930
"5b13da851e55760001ba009a",3,"older",1,"FLIGHT","CANDY",FALSE,6.967,2,1,"cart","new-new",931
"5b13da851e55760001ba009a",3,"older",2,"YEAR","YEAR",TRUE,1.926,1,2,"telephone","mis-match",931
"5b13da851e55760001ba009a",3,"older",3,"ARTIST","ARTIST",TRUE,2.86,3,3,"gorilla","old-new",931
"5b13da851e55760001ba009a",3,"older",4,"CANDY","FLIGHT",FALSE,1.862,0,4,"tyre","match",931
"5b13da851e55760001ba009a",4,"older",1,"FRIEND","JUNGLE",FALSE,7.431,1,1,"anchor","match",932
"5b13da851e55760001ba009a",4,"older",2,"DIRT","DIRT",TRUE,2.882,0,2,"mirror","new-new",932
"5b13da851e55760001ba009a",4,"older",3,"JUNGLE","FRIEND",FALSE,4.042,3,3,"taxi","old-new",932
"5b13da851e55760001ba009a",4,"older",4,"THING","THING",TRUE,1.663,2,4,"runner","mis-match",932
"5b13da851e55760001ba009a",5,"older",1,"APPLE","APPLE",TRUE,4.653,1,1,"stool","old-new",933
