"participant","trial_no","group","time","recalled","word","recall_acc","recall_rt","study_pos","test_pos","image","item_type","id","distraction","interval","prev_assoc","ltm_intru","resp_type","tran_dist"
"559d9916fdf99b1e2b2dc6b8",1,"older",1,"WOMAN","THING",FALSE,3.51389,3,1,"runner","mis-match",1185,"no","2 s","WOMEN",0,"extra",NA
"559d9916fdf99b1e2b2dc6b8",1,"older",2,"?","DIRT",FALSE,1.467705,1,2,"mirror","new-new",1185,"no","2 s",NA,NA,"omission",NA
"559d9916fdf99b1e2b2dc6b8",1,"older",3,"?","FRIEND",FALSE,3.21867,4,3,"taxi","old-new",1185,"no","2 s","FAMILY",0,"omission",NA
"559d9916fdf99b1e2b2dc6b8",1,"older",4,"?","JUNGLE",FALSE,0.881025,2,4,"anchor","match",1185,"no","2 s",NA,NA,"omission",NA
"559d9916fdf99b1e2b2dc6b8",2,"older",1,"?","ARTIST",FALSE,0.896505,4,1,"gorilla","old-new",1186,"no","2 s","HONEY",0,"omission",NA
"559d9916fdf99b1e2b2dc6b8",2,"older",2,"?","FLIGHT",FALSE,1.25047,1,2,"tyre","match",1186,"no","2 s",NA,NA,"omission",NA
"559d9916fdf99b1e2b2dc6b8",2,"older",3,"?","YEAR",FALSE,1.03423,2,3,"telephone","mis-match",1186,"no","2 s","BATH",0,"omission",NA
"559d9916fdf99b1e2b2dc6b8",2,"older",4,"?","CANDY",FALSE,0.799105,3,4,"cart","new-new",1186,"no","2 s",NA,NA,"omission",NA
"559d9916fdf99b1e2b2dc6b8",3,"older",1,"?","PLENTY",FALSE,9.99053,2,1,"diamond","mis-match",1187,"no","2 s","THING",0,"omission",NA
"559d9916fdf99b1e2b2dc6b8",3,"older",2,"?","YARD",FALSE,9.99068,4,2,"mushroom","new-new",1187,"no","2 s",NA,NA,"omission",NA
"559d9916fdf99b1e2b2dc6b8",3,"older",3,"?","CLOCK",FALSE,9.99092,1,3,"bolt","match",1187,"no","2 s",NA,NA,"omission",NA
"559d9916fdf99b1e2b2dc6b8",3,"older",4,"?","KIND",FALSE,0.54767,3,4,"perfume","old-new",1187,"no","2 s","GODS",0,"omission",NA
"559d9916fdf99b1e2b2dc6b8",4,"older",1,"?","NATION",FALSE,2.69951,1,1,"pepper","new-new",1188,"no","2 s",NA,NA,"omission",NA
"559d9916fdf99b1e2b2dc6b8",4,"older",2,"DANGER","DANGER",TRUE,2.584675,3,2,"skateboard","new-new",1188,"no","2 s",NA,NA,"correct",NA
"559d9916fdf99b1e2b2dc6b8",4,"older",3,"POLICY","POLICY",TRUE,4.21981,2,3,"frame","new-new",1188,"no","2 s",NA,NA,"correct",NA
"559d9916fdf99b1e2b2dc6b8",4,"older",4,"?","RECORD",FALSE,1.265775,4,4,"sun","new-new",1188,"no","2 s",NA,NA,"omission",NA
"559d9916fdf99b1e2b2dc6b8",5,"older",1,"CASINO","CASINO",TRUE,4.48445,3,1,"map","mis-match",1189,"no","2 s","PHOTO",0,"correct",NA
"559d9916fdf99b1e2b2dc6b8",5,"older",2,"?","APPLE",FALSE,1.14841,2,2,"stool","old-new",1189,"no","2 s","AGENT",0,"omission",NA
"559d9916fdf99b1e2b2dc6b8",5,"older",3,"?","SPEECH",FALSE,0.817105,4,3,"pear","new-new",1189,"no","2 s",NA,NA,"omission",NA
"559d9916fdf99b1e2b2dc6b8",5,"older",4,"?","SAKE",FALSE,0.716515,1,4,"ring","match",1189,"no","2 s",NA,NA,"omission",NA
"559d9916fdf99b1e2b2dc6b8",6,"older",1,"TEAR","TEAR",TRUE,3.750165,4,1,"calendar","new-new",1190,"no","2 s",NA,NA,"correct",NA
"559d9916fdf99b1e2b2dc6b8",6,"older",2,"?","BELT",FALSE,1.35012,2,2,"wheelbarrow","old-new",1190,"no","2 s","HOTEL",0,"omission",NA
"559d9916fdf99b1e2b2dc6b8",6,"older",3,"?","ADVICE",FALSE,0.632905,3,3,"stamp","mis-match",1190,"no","2 s","CASINO",0,"omission",NA
"559d9916fdf99b1e2b2dc6b8",6,"older",4,"?","LOTS",FALSE,0.51609,1,4,"microphone","match",1190,"no","2 s",NA,NA,"omission",NA
"559d9916fdf99b1e2b2dc6b8",7,"older",1,"LETTER","FOOD",FALSE,5.853005,1,1,"cathedral","new-new",1191,"no","2 s",NA,NA,"within",-1
"559d9916fdf99b1e2b2dc6b8",7,"older",2,"MILLER","LETTER",FALSE,4.398555,2,2,"hanger","new-new",1191,"no","2 s",NA,NA,"within",-1
"559d9916fdf99b1e2b2dc6b8",7,"older",3,"MOMENT","MILLER",FALSE,4.036325,3,3,"sunflower","new-new",1191,"no","2 s",NA,NA,"within",-1
"559d9916fdf99b1e2b2dc6b8",7,"older",4,"?","MOMENT",FALSE,0.549835,4,4,"aeroplane","new-new",1191,"no","2 s",NA,NA,"omission",NA
"559d9916fdf99b1e2b2dc6b8",8,"older",1,"?","MILE",FALSE,1.832745,4,1,"dice","new-new",1192,"no","2 s",NA,NA,"omission",NA
"559d9916fdf99b1e2b2dc6b8",8,"older",2,"BOYS","BOYS",TRUE,2.83572,2,2,"monkey","new-new",1192,"no","2 s",NA,NA,"correct",NA
"559d9916fdf99b1e2b2dc6b8",8,"older",3,"?","SPIRIT",FALSE,1.450535,3,3,"tractor","new-new",1192,"no","2 s",NA,NA,"omission",NA
"559d9916fdf99b1e2b2dc6b8",8,"older",4,"?","CARS",FALSE,0.56638,1,4,"motorbike","new-new",1192,"no","2 s",NA,NA,"omission",NA
"559d9916fdf99b1e2b2dc6b8",9,"older",1,"?","RIVER",FALSE,1.06325,2,1,"backpack","mis-match",1193,"no","2 s","CLIENT",0,"omission",NA
"559d9916fdf99b1e2b2dc6b8",9,"older",2,"?","WEAPON",FALSE,0.64889,3,2,"boot","new-new",1193,"no","2 s",NA,NA,"omission",NA
"559d9916fdf99b1e2b2dc6b8",9,"older",3,"PENNY","PENNY",TRUE,3.352455,4,3,"shovel","match",1193,"no","2 s",NA,NA,"correct",NA
"559d9916fdf99b1e2b2dc6b8",9,"older",4,"?","AREA",FALSE,1.566985,1,4,"bench","old-new",1193,"no","2 s","DUDE",0,"omission",NA
"559d9916fdf99b1e2b2dc6b8",10,"older",1,"?","DEMON",FALSE,1.046885,2,1,"salt","new-new",1194,"no","2 s",NA,NA,"omission",NA
"559d9916fdf99b1e2b2dc6b8",10,"older",2,"GLASS","FEET",FALSE,5.15457,4,2,"crown","old-new",1194,"no","2 s","PILLS",0,"within",3
"559d9916fdf99b1e2b2dc6b8",10,"older",3,"?","BATH",FALSE,1.350055,3,3,"daisy","mis-match",1194,"no","2 s","RIVER",0,"omission",NA
"559d9916fdf99b1e2b2dc6b8",10,"older",4,"GLASS","GLASS",TRUE,1.83347,1,4,"rug","match",1194,"no","2 s",NA,NA,"correct",NA
"559d9916fdf99b1e2b2dc6b8",11,"older",1,"COPS","COPS",TRUE,4.434895,4,1,"pencil","match",1195,"no","2 s",NA,NA,"correct",NA
"559d9916fdf99b1e2b2dc6b8",11,"older",2,"?","VALLEY",FALSE,1.63237,3,2,"megaphone","old-new",1195,"no","2 s","TOILET",0,"omission",NA
"559d9916fdf99b1e2b2dc6b8",11,"older",3,"?","DOZEN",FALSE,0.983135,1,3,"basket","new-new",1195,"no","2 s",NA,NA,"omission",NA
"559d9916fdf99b1e2b2dc6b8",11,"older",4,"?","PHOTO",FALSE,1.83631,2,4,"spoon","mis-match",1195,"no","2 s","PLENTY",0,"omission",NA
"559d9916fdf99b1e2b2dc6b8",12,"older",1,"?","ESTATE",FALSE,0.7453,3,1,"dart","new-new",1196,"no","2 s",NA,NA,"omission",NA
"559d9916fdf99b1e2b2dc6b8",12,"older",2,"?","HOUSE",FALSE,0.74921,4,2,"goose","new-new",1196,"no","2 s",NA,NA,"omission",NA
"559d9916fdf99b1e2b2dc6b8",12,"older",3,"?","SYSTEM",FALSE,0.53211,2,3,"peg","new-new",1196,"no","2 s",NA,NA,"omission",NA
"559d9916fdf99b1e2b2dc6b8",12,"older",4,"?","SALE",FALSE,0.39945,1,4,"kettle","new-new",1196,"no","2 s",NA,NA,"omission",NA
"559d9916fdf99b1e2b2dc6b8",13,"older",1,"IDEAS","IDEAS",TRUE,2.682175,4,1,"candle","new-new",1197,"no","2 s",NA,NA,"correct",NA
"559d9916fdf99b1e2b2dc6b8",13,"older",2,"FLESH","FLESH",TRUE,3.56909,1,2,"balcony","new-new",1197,"no","2 s",NA,NA,"correct",NA
"559d9916fdf99b1e2b2dc6b8",13,"older",3,"?","STYLE",FALSE,2.33317,3,3,"pawn","new-new",1197,"no","2 s",NA,NA,"omission",NA
"559d9916fdf99b1e2b2dc6b8",13,"older",4,"?","SERIES",FALSE,0.615055,2,4,"coin","new-new",1197,"no","2 s",NA,NA,"omission",NA
"559d9916fdf99b1e2b2dc6b8",14,"older",1,"?","CLIENT",FALSE,1.080725,3,1,"carrot","mis-match",1198,"no","2 s","ADVICE",0,"omission",NA
"559d9916fdf99b1e2b2dc6b8",14,"older",2,"?","SHOTS",FALSE,1.03234,2,2,"scissors","new-new",1198,"no","2 s",NA,NA,"omission",NA
"559d9916fdf99b1e2b2dc6b8",14,"older",3,"?","LIFE",FALSE,0.800925,4,3,"razor","old-new",1198,"no","2 s","BEAUTY",0,"omission",NA
"559d9916fdf99b1e2b2dc6b8",14,"older",4,"LEADER","LEADER",TRUE,4.98703,1,4,"helmet","match",1198,"no","2 s",NA,NA,"correct",NA
"559d9916fdf99b1e2b2dc6b8",15,"older",1,"?","WRITER",FALSE,1.515005,2,1,"watch","new-new",1199,"no","2 s",NA,NA,"omission",NA
"559d9916fdf99b1e2b2dc6b8",15,"older",2,"?","DEATH",FALSE,1.21715,3,2,"suitcase","new-new",1199,"no","2 s",NA,NA,"omission",NA
"559d9916fdf99b1e2b2dc6b8",15,"older",3,"?","ROOF",FALSE,1.45037,1,3,"planet","new-new",1199,"no","2 s",NA,NA,"omission",NA
"559d9916fdf99b1e2b2dc6b8",15,"older",4,"?","NIGHT",FALSE,1.13333,4,4,"cap","new-new",1199,"no","2 s",NA,NA,"omission",NA
"559d9916fdf99b1e2b2dc6b8",16,"older",1,"YEAR","WOMEN",FALSE,7.353715,1,1,"wheel","mis-match",1200,"no","2 s","YEAR",1,"ltm",NA
"559d9916fdf99b1e2b2dc6b8",16,"older",2,"?","BODY",FALSE,1.497945,4,2,"cherry","old-new",1200,"no","2 s","MONTH",0,"omission",NA
"559d9916fdf99b1e2b2dc6b8",16,"older",3,"?","PRINCE",FALSE,0.90023,2,3,"windmill","new-new",1200,"no","2 s",NA,NA,"omission",NA
"559d9916fdf99b1e2b2dc6b8",16,"older",4,"GIRL","GIRL",TRUE,1.93528,3,4,"tray","match",1200,"no","2 s",NA,NA,"correct",NA
"56f55bc0736c79000c223b3d",1,"younger",1,"KIND","YARD",FALSE,2.180075,4,1,"mushroom","new-new",65,"no","2 s",NA,NA,"within",1
"56f55bc0736c79000c223b3d",1,"younger",2,"PLENTY","KIND",FALSE,3.412015,3,2,"perfume","old-new",65,"no","2 s","GODS",0,"within",1
"56f55bc0736c79000c223b3d",1,"younger",3,"BOOTH","PLENTY",FALSE,3.128845,2,3,"diamond","mis-match",65,"no","2 s","THING",0,"extra",NA
"56f55bc0736c79000c223b3d",1,"younger",4,"CLOCK","CLOCK",TRUE,1.89539,1,4,"bolt","match",65,"no","2 s",NA,NA,"correct",NA
"56f55bc0736c79000c223b3d",2,"younger",1,"?","APPLE",FALSE,3.028765,2,1,"stool","old-new",66,"no","2 s","AGENT",0,"omission",NA
"56f55bc0736c79000c223b3d",2,"younger",2,"SAKE","SAKE",TRUE,1.23152,1,2,"ring","match",66,"no","2 s",NA,NA,"correct",NA
"56f55bc0736c79000c223b3d",2,"younger",3,"CASINO","CASINO",TRUE,3.5126,3,3,"map","mis-match",66,"no","2 s","PHOTO",0,"correct",NA
"56f55bc0736c79000c223b3d",2,"younger",4,"SPEECH","SPEECH",TRUE,2.246995,4,4,"pear","new-new",66,"no","2 s",NA,NA,"correct",NA
"56f55bc0736c79000c223b3d",3,"younger",1,"PRINCE","PRINCE",TRUE,2.39675,2,1,"windmill","new-new",67,"no","2 s",NA,NA,"correct",NA
"56f55bc0736c79000c223b3d",3,"younger",2,"GIRL","GIRL",TRUE,1.495755,3,2,"tray","match",67,"no","2 s",NA,NA,"correct",NA
"56f55bc0736c79000c223b3d",3,"younger",3,"BODY","BODY",TRUE,2.54724,4,3,"cherry","old-new",67,"no","2 s","MONTH",0,"correct",NA
"56f55bc0736c79000c223b3d",3,"younger",4,"WOMEN","WOMEN",TRUE,1.829155,1,4,"wheel","mis-match",67,"no","2 s","YEAR",0,"correct",NA
"56f55bc0736c79000c223b3d",4,"younger",1,"FLIGHT","FLIGHT",TRUE,5.59335,1,1,"tyre","match",68,"no","2 s",NA,NA,"correct",NA
"56f55bc0736c79000c223b3d",4,"younger",2,"CANDY","YEAR",FALSE,4.4097,2,2,"telephone","mis-match",68,"no","2 s","BATH",0,"within",-1
"56f55bc0736c79000c223b3d",4,"younger",3,"ARTIST","CANDY",FALSE,2.32827,3,3,"cart","new-new",68,"no","2 s",NA,NA,"within",-1
"56f55bc0736c79000c223b3d",4,"younger",4,"?","ARTIST",FALSE,2.280565,4,4,"gorilla","old-new",68,"no","2 s","HONEY",0,"omission",NA
"56f55bc0736c79000c223b3d",5,"younger",1,"WRITER","DEATH",FALSE,3.84576,3,1,"suitcase","new-new",69,"no","2 s",NA,NA,"within",1
"56f55bc0736c79000c223b3d",5,"younger",2,"NIGHT","NIGHT",TRUE,2.53025,4,2,"cap","new-new",69,"no","2 s",NA,NA,"correct",NA
"56f55bc0736c79000c223b3d",5,"younger",3,"ROOF","ROOF",TRUE,1.664855,1,3,"planet","new-new",69,"no","2 s",NA,NA,"correct",NA
"56f55bc0736c79000c223b3d",5,"younger",4,"WRITER","WRITER",TRUE,1.630255,2,4,"watch","new-new",69,"no","2 s",NA,NA,"correct",NA
"56f55bc0736c79000c223b3d",6,"younger",1,"ESTATE","SALE",FALSE,5.576055,1,1,"kettle","new-new",70,"no","2 s",NA,NA,"within",-2
"56f55bc0736c79000c223b3d",6,"younger",2,"HOUSE","HOUSE",TRUE,4.84509,4,2,"goose","new-new",70,"no","2 s",NA,NA,"correct",NA
"56f55bc0736c79000c223b3d",6,"younger",3,"ESTATE","SYSTEM",FALSE,4.311915,2,3,"peg","new-new",70,"no","2 s",NA,NA,"within",-1
"56f55bc0736c79000c223b3d",6,"younger",4,"ESTATE","ESTATE",TRUE,2.13071,3,4,"dart","new-new",70,"no","2 s",NA,NA,"correct",NA
"56f55bc0736c79000c223b3d",7,"younger",1,"LIFE","LIFE",TRUE,1.71384,4,1,"razor","old-new",71,"no","2 s","BEAUTY",0,"correct",NA
"56f55bc0736c79000c223b3d",7,"younger",2,"CLIENT","CLIENT",TRUE,1.215045,3,2,"carrot","mis-match",71,"no","2 s","ADVICE",0,"correct",NA
"56f55bc0736c79000c223b3d",7,"younger",3,"LEADER","LEADER",TRUE,1.515,1,3,"helmet","match",71,"no","2 s",NA,NA,"correct",NA
"56f55bc0736c79000c223b3d",7,"younger",4,"SHOTS","SHOTS",TRUE,2.364755,2,4,"scissors","new-new",71,"no","2 s",NA,NA,"correct",NA
"56f55bc0736c79000c223b3d",8,"younger",1,"AREA","PENNY",FALSE,3.793825,4,1,"shovel","match",72,"no","2 s",NA,NA,"within",3
"56f55bc0736c79000c223b3d",8,"younger",2,"AREA","AREA",TRUE,2.812595,1,2,"bench","old-new",72,"no","2 s","DUDE",0,"correct",NA
"56f55bc0736c79000c223b3d",8,"younger",3,"WEAPON","RIVER",FALSE,2.428345,2,3,"backpack","mis-match",72,"no","2 s","CLIENT",0,"within",-1
"56f55bc0736c79000c223b3d",8,"younger",4,"WEAPON","WEAPON",TRUE,1.74773,3,4,"boot","new-new",72,"no","2 s",NA,NA,"correct",NA
"56f55bc0736c79000c223b3d",9,"younger",1,"SERIES","STYLE",FALSE,6.32682,3,1,"pawn","new-new",73,"no","2 s",NA,NA,"within",1
"56f55bc0736c79000c223b3d",9,"younger",2,"IDEAS","IDEAS",TRUE,2.579405,4,2,"candle","new-new",73,"no","2 s",NA,NA,"correct",NA
"56f55bc0736c79000c223b3d",9,"younger",3,"FLESH","FLESH",TRUE,2.929425,1,3,"balcony","new-new",73,"no","2 s",NA,NA,"correct",NA
"56f55bc0736c79000c223b3d",9,"younger",4,"SERIES","SERIES",TRUE,1.53143,2,4,"coin","new-new",73,"no","2 s",NA,NA,"correct",NA
"56f55bc0736c79000c223b3d",10,"younger",1,"DEMON","DEMON",TRUE,3.22743,2,1,"salt","new-new",74,"no","2 s",NA,NA,"correct",NA
"56f55bc0736c79000c223b3d",10,"younger",2,"FEET","FEET",TRUE,5.043955,4,2,"crown","old-new",74,"no","2 s","PILLS",0,"correct",NA
"56f55bc0736c79000c223b3d",10,"younger",3,"BATH","BATH",TRUE,1.87866,3,3,"daisy","mis-match",74,"no","2 s","RIVER",0,"correct",NA
"56f55bc0736c79000c223b3d",10,"younger",4,"GLASS","GLASS",TRUE,1.464275,1,4,"rug","match",74,"no","2 s",NA,NA,"correct",NA
"56f55bc0736c79000c223b3d",11,"younger",1,"POLICY","POLICY",TRUE,3.4629,2,1,"frame","new-new",75,"no","2 s",NA,NA,"correct",NA
"56f55bc0736c79000c223b3d",11,"younger",2,"?","DANGER",FALSE,3.912135,3,2,"skateboard","new-new",75,"no","2 s",NA,NA,"omission",NA
"56f55bc0736c79000c223b3d",11,"younger",3,"NATION","NATION",TRUE,1.579945,1,3,"pepper","new-new",75,"no","2 s",NA,NA,"correct",NA
"56f55bc0736c79000c223b3d",11,"younger",4,"RECORD","RECORD",TRUE,1.331735,4,4,"sun","new-new",75,"no","2 s",NA,NA,"correct",NA
"56f55bc0736c79000c223b3d",12,"younger",1,"ADVICE","BELT",FALSE,8.50503,2,1,"wheelbarrow","old-new",76,"no","2 s","HOTEL",0,"within",-1
"56f55bc0736c79000c223b3d",12,"younger",2,"?","ADVICE",FALSE,4.24386,3,2,"stamp","mis-match",76,"no","2 s","CASINO",0,"omission",NA
"56f55bc0736c79000c223b3d",12,"younger",3,"LOTS","LOTS",TRUE,1.24798,1,3,"microphone","match",76,"no","2 s",NA,NA,"correct",NA
"56f55bc0736c79000c223b3d",12,"younger",4,"TEAR","TEAR",TRUE,1.24854,4,4,"calendar","new-new",76,"no","2 s",NA,NA,"correct",NA
"56f55bc0736c79000c223b3d",13,"younger",1,"COPS","COPS",TRUE,1.96116,4,1,"pencil","match",77,"no","2 s",NA,NA,"correct",NA
"56f55bc0736c79000c223b3d",13,"younger",2,"DOZEN","DOZEN",TRUE,1.814635,1,2,"basket","new-new",77,"no","2 s",NA,NA,"correct",NA
"56f55bc0736c79000c223b3d",13,"younger",3,"?","PHOTO",FALSE,3.912695,2,3,"spoon","mis-match",77,"no","2 s","PLENTY",0,"omission",NA
"56f55bc0736c79000c223b3d",13,"younger",4,"VALLEY","VALLEY",TRUE,1.23033,3,4,"megaphone","old-new",77,"no","2 s","TOILET",0,"correct",NA
"56f55bc0736c79000c223b3d",14,"younger",1,"THING","THING",TRUE,2.91145,3,1,"runner","mis-match",78,"no","2 s","WOMEN",0,"correct",NA
"56f55bc0736c79000c223b3d",14,"younger",2,"DIRT","DIRT",TRUE,3.230195,1,2,"mirror","new-new",78,"no","2 s",NA,NA,"correct",NA
"56f55bc0736c79000c223b3d",14,"younger",3,"FRIEND","FRIEND",TRUE,2.313175,4,3,"taxi","old-new",78,"no","2 s","FAMILY",0,"correct",NA
"56f55bc0736c79000c223b3d",14,"younger",4,"JUNGLE","JUNGLE",TRUE,1.131995,2,4,"anchor","match",78,"no","2 s",NA,NA,"correct",NA
"56f55bc0736c79000c223b3d",15,"younger",1,"MILE","MILE",TRUE,1.064395,4,1,"dice","new-new",79,"no","2 s",NA,NA,"correct",NA
"56f55bc0736c79000c223b3d",15,"younger",2,"BOYS","CARS",FALSE,3.11387,1,2,"motorbike","new-new",79,"no","2 s",NA,NA,"within",-1
"56f55bc0736c79000c223b3d",15,"younger",3,"SPIRIT","BOYS",FALSE,1.695785,2,3,"monkey","new-new",79,"no","2 s",NA,NA,"within",-1
"56f55bc0736c79000c223b3d",15,"younger",4,"MILE","SPIRIT",FALSE,1.646995,3,4,"tractor","new-new",79,"no","2 s",NA,NA,"within",-1
"56f55bc0736c79000c223b3d",16,"younger",1,"LETTER","LETTER",TRUE,3.663,2,1,"hanger","new-new",80,"no","2 s",NA,NA,"correct",NA
"56f55bc0736c79000c223b3d",16,"younger",2,"FOOD","FOOD",TRUE,2.08029,1,2,"cathedral","new-new",80,"no","2 s",NA,NA,"correct",NA
"56f55bc0736c79000c223b3d",16,"younger",3,"MOMENT","MOMENT",TRUE,1.662485,4,3,"aeroplane","new-new",80,"no","2 s",NA,NA,"correct",NA
"56f55bc0736c79000c223b3d",16,"younger",4,"FILLER","MILLER",FALSE,3.629755,3,4,"sunflower","new-new",80,"no","2 s",NA,NA,"extra",NA
"574ce0a57fd0ec000db73aa6",1,"older",1,"DOZEN","PHOTO",FALSE,3.57247,2,1,"spoon","mis-match",1553,"no","2 s","PLENTY",0,"within",1
"574ce0a57fd0ec000db73aa6",1,"older",2,"?","COPS",FALSE,9.993545,4,2,"pencil","match",1553,"no","2 s",NA,NA,"omission",NA
"574ce0a57fd0ec000db73aa6",1,"older",3,"DOZEN","DOZEN",TRUE,3.458675,1,3,"basket","new-new",1553,"no","2 s",NA,NA,"correct",NA
"574ce0a57fd0ec000db73aa6",1,"older",4,"VALLEY","VALLEY",TRUE,1.516905,3,4,"megaphone","old-new",1553,"no","2 s","TOILET",0,"correct",NA
"574ce0a57fd0ec000db73aa6",2,"older",1,"GIRL","GIRL",TRUE,1.80636,3,1,"tray","match",1554,"no","2 s",NA,NA,"correct",NA
"574ce0a57fd0ec000db73aa6",2,"older",2,"WOMEN","WOMEN",TRUE,2.34279,1,2,"wheel","mis-match",1554,"no","2 s","YEAR",0,"correct",NA
"574ce0a57fd0ec000db73aa6",2,"older",3,"BODY","BODY",TRUE,5.78324,4,3,"cherry","old-new",1554,"no","2 s","MONTH",0,"correct",NA
"574ce0a57fd0ec000db73aa6",2,"older",4,"PRINCE","PRINCE",TRUE,1.68761,2,4,"windmill","new-new",1554,"no","2 s",NA,NA,"correct",NA
"574ce0a57fd0ec000db73aa6",3,"older",1,"SHOTS","SHOTS",TRUE,2.15325,2,1,"scissors","new-new",1555,"no","2 s",NA,NA,"correct",NA
"574ce0a57fd0ec000db73aa6",3,"older",2,"LIFE","LIFE",TRUE,7.619605,4,2,"razor","old-new",1555,"no","2 s","BEAUTY",0,"correct",NA
"574ce0a57fd0ec000db73aa6",3,"older",3,"LEADER","LEADER",TRUE,1.775155,1,3,"helmet","match",1555,"no","2 s",NA,NA,"correct",NA
"574ce0a57fd0ec000db73aa6",3,"older",4,"CLIENT","CLIENT",TRUE,2.154555,3,4,"carrot","mis-match",1555,"no","2 s","ADVICE",0,"correct",NA
"574ce0a57fd0ec000db73aa6",4,"older",1,"NIGHT","NIGHT",TRUE,2.92278,4,1,"cap","new-new",1556,"no","2 s",NA,NA,"correct",NA
"574ce0a57fd0ec000db73aa6",4,"older",2,"DEATH","DEATH",TRUE,2.38992,3,2,"suitcase","new-new",1556,"no","2 s",NA,NA,"correct",NA
"574ce0a57fd0ec000db73aa6",4,"older",3,"WRITER","WRITER",TRUE,2.55829,2,3,"watch","new-new",1556,"no","2 s",NA,NA,"correct",NA
"574ce0a57fd0ec000db73aa6",4,"older",4,"ROOF","ROOF",TRUE,1.60525,1,4,"planet","new-new",1556,"no","2 s",NA,NA,"correct",NA
"574ce0a57fd0ec000db73aa6",5,"older",1,"APPLE","APPLE",TRUE,3.187135,2,1,"stool","old-new",1557,"no","2 s","AGENT",0,"correct",NA
"574ce0a57fd0ec000db73aa6",5,"older",2,"SAKE","SAKE",TRUE,1.876435,1,2,"ring","match",1557,"no","2 s",NA,NA,"correct",NA
"574ce0a57fd0ec000db73aa6",5,"older",3,"CASINO","CASINO",TRUE,2.42435,3,3,"map","mis-match",1557,"no","2 s","PHOTO",0,"correct",NA
"574ce0a57fd0ec000db73aa6",5,"older",4,"SPEECH","SPEECH",TRUE,2.12308,4,4,"pear","new-new",1557,"no","2 s",NA,NA,"correct",NA
"574ce0a57fd0ec000db73aa6",6,"older",1,"ESTATE","ESTATE",TRUE,2.768745,3,1,"dart","new-new",1558,"no","2 s",NA,NA,"correct",NA
"574ce0a57fd0ec000db73aa6",6,"older",2,"HOUSE","HOUSE",TRUE,2.01793,4,2,"goose","new-new",1558,"no","2 s",NA,NA,"correct",NA
"574ce0a57fd0ec000db73aa6",6,"older",3,"SALE","SALE",TRUE,1.438505,1,3,"kettle","new-new",1558,"no","2 s",NA,NA,"correct",NA
"574ce0a57fd0ec000db73aa6",6,"older",4,"SYSTEM","SYSTEM",TRUE,1.22553,2,4,"peg","new-new",1558,"no","2 s",NA,NA,"correct",NA
"574ce0a57fd0ec000db73aa6",7,"older",1,"BOYS","BOYS",TRUE,2.60404,2,1,"monkey","new-new",1559,"no","2 s",NA,NA,"correct",NA
"574ce0a57fd0ec000db73aa6",7,"older",2,"SPIRIT","SPIRIT",TRUE,2.421295,3,2,"tractor","new-new",1559,"no","2 s",NA,NA,"correct",NA
"574ce0a57fd0ec000db73aa6",7,"older",3,"MILE","MILE",TRUE,1.72102,4,3,"dice","new-new",1559,"no","2 s",NA,NA,"correct",NA
"574ce0a57fd0ec000db73aa6",7,"older",4,"CARS","CARS",TRUE,1.78842,1,4,"motorbike","new-new",1559,"no","2 s",NA,NA,"correct",NA
"574ce0a57fd0ec000db73aa6",8,"older",1,"FLESH","FLESH",TRUE,2.45443,1,1,"balcony","new-new",1560,"no","2 s",NA,NA,"correct",NA
"574ce0a57fd0ec000db73aa6",8,"older",2,"SERIES","SERIES",TRUE,1.602695,2,2,"coin","new-new",1560,"no","2 s",NA,NA,"correct",NA
"574ce0a57fd0ec000db73aa6",8,"older",3,"","IDEAS",FALSE,9.98987,4,3,"candle","new-new",1560,"no","2 s",NA,NA,"omission",NA
"574ce0a57fd0ec000db73aa6",8,"older",4,"STYLE","STYLE",TRUE,1.95484,3,4,"pawn","new-new",1560,"no","2 s",NA,NA,"correct",NA
"574ce0a57fd0ec000db73aa6",9,"older",1,"FRIEND","FRIEND",TRUE,5.026945,4,1,"taxi","old-new",1561,"no","2 s","FAMILY",0,"correct",NA
"574ce0a57fd0ec000db73aa6",9,"older",2,"THING","THING",TRUE,2.276265,3,2,"runner","mis-match",1561,"no","2 s","WOMEN",0,"correct",NA
"574ce0a57fd0ec000db73aa6",9,"older",3,"JUNGLE","JUNGLE",TRUE,2.340595,2,3,"anchor","match",1561,"no","2 s",NA,NA,"correct",NA
"574ce0a57fd0ec000db73aa6",9,"older",4,"DIRT","DIRT",TRUE,1.788635,1,4,"mirror","new-new",1561,"no","2 s",NA,NA,"correct",NA
"574ce0a57fd0ec000db73aa6",10,"older",1,"BATH","BATH",TRUE,7.03448,3,1,"daisy","mis-match",1562,"no","2 s","RIVER",0,"correct",NA
"574ce0a57fd0ec000db73aa6",10,"older",2,"GLASS","GLASS",TRUE,1.969535,1,2,"rug","match",1562,"no","2 s",NA,NA,"correct",NA
"574ce0a57fd0ec000db73aa6",10,"older",3,"DEMON","DEMON",TRUE,2.041975,2,3,"salt","new-new",1562,"no","2 s",NA,NA,"correct",NA
"574ce0a57fd0ec000db73aa6",10,"older",4,"FEET","FEET",TRUE,1.252195,4,4,"crown","old-new",1562,"no","2 s","PILLS",0,"correct",NA
"574ce0a57fd0ec000db73aa6",11,"older",1,"MILLER","MILLER",TRUE,1.73577,3,1,"sunflower","new-new",1563,"no","2 s",NA,NA,"correct",NA
"574ce0a57fd0ec000db73aa6",11,"older",2,"MOMENT","MOMENT",TRUE,2.071195,4,2,"aeroplane","new-new",1563,"no","2 s",NA,NA,"correct",NA
"574ce0a57fd0ec000db73aa6",11,"older",3,"?","LETTER",FALSE,9.98978,2,3,"hanger","new-new",1563,"no","2 s",NA,NA,"omission",NA
"574ce0a57fd0ec000db73aa6",11,"older",4,"FOOD","FOOD",TRUE,2.06551,1,4,"cathedral","new-new",1563,"no","2 s",NA,NA,"correct",NA
"574ce0a57fd0ec000db73aa6",12,"older",1,"ADVICE","ADVICE",TRUE,7.518425,3,1,"stamp","mis-match",1564,"no","2 s","CASINO",0,"correct",NA
"574ce0a57fd0ec000db73aa6",12,"older",2,"BELT","BELT",TRUE,2.939175,2,2,"wheelbarrow","old-new",1564,"no","2 s","HOTEL",0,"correct",NA
"574ce0a57fd0ec000db73aa6",12,"older",3,"LOTS","LOTS",TRUE,1.820595,1,3,"microphone","match",1564,"no","2 s",NA,NA,"correct",NA
"574ce0a57fd0ec000db73aa6",12,"older",4,"TEAR","TEAR",TRUE,1.135505,4,4,"calendar","new-new",1564,"no","2 s",NA,NA,"correct",NA
"574ce0a57fd0ec000db73aa6",13,"older",1,"FLIGHT","FLIGHT",TRUE,2.47244,1,1,"tyre","match",1565,"no","2 s",NA,NA,"correct",NA
"574ce0a57fd0ec000db73aa6",13,"older",2,"YEAR","YEAR",TRUE,3.976265,2,2,"telephone","mis-match",1565,"no","2 s","BATH",0,"correct",NA
"574ce0a57fd0ec000db73aa6",13,"older",3,"ARTIST","ARTIST",TRUE,2.338355,4,3,"gorilla","old-new",1565,"no","2 s","HONEY",0,"correct",NA
"574ce0a57fd0ec000db73aa6",13,"older",4,"CANDY","CANDY",TRUE,2.80837,3,4,"cart","new-new",1565,"no","2 s",NA,NA,"correct",NA
"574ce0a57fd0ec000db73aa6",14,"older",1,"KIND","KIND",TRUE,2.739665,3,1,"perfume","old-new",1566,"no","2 s","GODS",0,"correct",NA
"574ce0a57fd0ec000db73aa6",14,"older",2,"CLOCKS","CLOCK",FALSE,1.71779,1,2,"bolt","match",1566,"no","2 s",NA,NA,"extra",NA
"574ce0a57fd0ec000db73aa6",14,"older",3,"PLENTY","PLENTY",TRUE,2.84196,2,3,"diamond","mis-match",1566,"no","2 s","THING",0,"correct",NA
"574ce0a57fd0ec000db73aa6",14,"older",4,"YARD","YARD",TRUE,2.4075,4,4,"mushroom","new-new",1566,"no","2 s",NA,NA,"correct",NA
"574ce0a57fd0ec000db73aa6",15,"older",1,"POLICY","POLICY",TRUE,4.24325,2,1,"frame","new-new",1567,"no","2 s",NA,NA,"correct",NA
"574ce0a57fd0ec000db73aa6",15,"older",2,"RECORD","RECORD",TRUE,2.15679,4,2,"sun","new-new",1567,"no","2 s",NA,NA,"correct",NA
"574ce0a57fd0ec000db73aa6",15,"older",3,"NATION","NATION",TRUE,2.20515,1,3,"pepper","new-new",1567,"no","2 s",NA,NA,"correct",NA
"574ce0a57fd0ec000db73aa6",15,"older",4,"DANGER","DANGER",TRUE,1.487745,3,4,"skateboard","new-new",1567,"no","2 s",NA,NA,"correct",NA
"574ce0a57fd0ec000db73aa6",16,"older",1,"RIVER","RIVER",TRUE,3.94609,2,1,"backpack","mis-match",1568,"no","2 s","CLIENT",0,"correct",NA
"574ce0a57fd0ec000db73aa6",16,"older",2,"WEAPON","WEAPON",TRUE,2.288695,3,2,"boot","new-new",1568,"no","2 s",NA,NA,"correct",NA
"574ce0a57fd0ec000db73aa6",16,"older",3,"AREA","AREA",TRUE,1.92261,1,3,"bench","old-new",1568,"no","2 s","DUDE",0,"correct",NA
"574ce0a57fd0ec000db73aa6",16,"older",4,"PENNY","PENNY",TRUE,1.944145,4,4,"shovel","match",1568,"no","2 s",NA,NA,"correct",NA
"5789f5c6fa4465000113ecb2",1,"younger",1,"CARS","CANDY",FALSE,2.28116,2,1,"stamp","match",129,"no","2 s",NA,NA,"within",-1
"5789f5c6fa4465000113ecb2",1,"younger",2,"CANDY","CARS",FALSE,3.832045,3,2,"motorbike","new-new",129,"no","2 s",NA,NA,"within",1
"5789f5c6fa4465000113ecb2",1,"younger",3,"CLIENT","CLIENT",TRUE,1.86583,1,3,"peg","old-new",129,"no","2 s","POLICY",0,"correct",NA
"5789f5c6fa4465000113ecb2",1,"younger",4,"RECORD","RECORD",TRUE,1.815325,4,4,"dart","mis-match",129,"no","2 s","ADVICE",0,"correct",NA
"5789f5c6fa4465000113ecb2",2,"younger",1,"BATH","BATH",TRUE,3.8972,4,1,"skateboard","new-new",130,"no","2 s",NA,NA,"correct",NA
"5789f5c6fa4465000113ecb2",2,"younger",2,"YEAR","YEAR",TRUE,2.799255,3,2,"mushroom","new-new",130,"no","2 s",NA,NA,"correct",NA
"5789f5c6fa4465000113ecb2",2,"younger",3,"HOUSE","HOUSE",TRUE,1.749135,1,3,"goose","new-new",130,"no","2 s",NA,NA,"correct",NA
"5789f5c6fa4465000113ecb2",2,"younger",4,"TEAR","TEAR",TRUE,1.499285,2,4,"shovel","new-new",130,"no","2 s",NA,NA,"correct",NA
"5789f5c6fa4465000113ecb2",3,"younger",1,"APPLE","APPLE",TRUE,1.88172,1,1,"kettle","new-new",131,"no","2 s",NA,NA,"correct",NA
"5789f5c6fa4465000113ecb2",3,"younger",2,"SHOTS","SHOTS",TRUE,2.498435,2,2,"bolt","old-new",131,"no","2 s","LIFE",0,"correct",NA
"5789f5c6fa4465000113ecb2",3,"younger",3,"DANGER","DANGER",TRUE,3.515165,4,3,"megaphone","mis-match",131,"no","2 s","SALE",0,"correct",NA
"5789f5c6fa4465000113ecb2",3,"younger",4,"KIND","KIND",TRUE,1.48138,3,4,"dice","match",131,"no","2 s",NA,NA,"correct",NA
"5789f5c6fa4465000113ecb2",4,"younger",1,"AGENT","AGENT",TRUE,2.148015,4,1,"salt","new-new",132,"no","2 s",NA,NA,"correct",NA
"5789f5c6fa4465000113ecb2",4,"younger",2,"BELT","BELT",TRUE,1.8159,1,2,"stool","new-new",132,"no","2 s",NA,NA,"correct",NA
"5789f5c6fa4465000113ecb2",4,"younger",3,"AREA","ESTATE",FALSE,2.748915,3,3,"tractor","new-new",132,"no","2 s",NA,NA,"within",1
"5789f5c6fa4465000113ecb2",4,"younger",4,"ESTATE","AREA",FALSE,2.932135,2,4,"frame","new-new",132,"no","2 s",NA,NA,"within",-1
"5789f5c6fa4465000113ecb2",5,"younger",1,"TOILET","WRITER",FALSE,2.29687,2,1,"rug","match",133,"no","2 s",NA,NA,"within",1
"5789f5c6fa4465000113ecb2",5,"younger",2,"WRITER","TOILET",FALSE,2.19897,1,2,"scissors","mis-match",133,"no","2 s","PLENTY",0,"within",-1
"5789f5c6fa4465000113ecb2",5,"younger",3,"DOZEN","DOZEN",TRUE,3.29931,3,3,"wheelbarrow","old-new",133,"no","2 s","FEET",0,"correct",NA
"5789f5c6fa4465000113ecb2",5,"younger",4,"ARTIST","ARTIST",TRUE,2.048435,4,4,"daisy","new-new",133,"no","2 s",NA,NA,"correct",NA
"5789f5c6fa4465000113ecb2",6,"younger",1,"COPS","COPS",TRUE,2.64764,3,1,"wheel","match",134,"no","2 s",NA,NA,"correct",NA
"5789f5c6fa4465000113ecb2",6,"younger",2,"MILE","MILE",TRUE,2.116,1,2,"anchor","mis-match",134,"no","2 s","JUNGLE",0,"correct",NA
"5789f5c6fa4465000113ecb2",6,"younger",3,"HONEY","PENNY",FALSE,2.89911,4,3,"microphone","old-new",134,"no","2 s","MONTH",0,"within",2
"5789f5c6fa4465000113ecb2",6,"younger",4,"PENNY","HONEY",FALSE,3.598525,2,4,"cherry","new-new",134,"no","2 s",NA,NA,"within",-2
"5789f5c6fa4465000113ecb2",7,"younger",1,"ADVICE","DIRT",FALSE,4.080335,2,1,"ring","old-new",135,"no","2 s","WEAPON",0,"within",1
"5789f5c6fa4465000113ecb2",7,"younger",2,"LOTS","LOTS",TRUE,5.29788,4,2,"spoon","new-new",135,"no","2 s",NA,NA,"correct",NA
"5789f5c6fa4465000113ecb2",7,"younger",3,"ROOF","ROOF",TRUE,1.832235,3,3,"basket","match",135,"no","2 s",NA,NA,"correct",NA
"5789f5c6fa4465000113ecb2",7,"younger",4,"DIRT","ADVICE",FALSE,2.565045,1,4,"calendar","mis-match",135,"no","2 s","FLIGHT",0,"within",-1
"5789f5c6fa4465000113ecb2",8,"younger",1,"BOYS","BOYS",TRUE,2.88159,2,1,"pear","match",136,"no","2 s",NA,NA,"correct",NA
"5789f5c6fa4465000113ecb2",8,"younger",2,"PRINCE","NATION",FALSE,5.96475,3,2,"gorilla","old-new",136,"no","2 s","PHOTO",0,"within",-1
"5789f5c6fa4465000113ecb2",8,"younger",3,"JUNGLE","JUNGLE",TRUE,2.498085,1,3,"razor","mis-match",136,"no","2 s","TOILET",0,"correct",NA
"5789f5c6fa4465000113ecb2",8,"younger",4,"PRINCE","PRINCE",TRUE,3.548555,4,4,"windmill","new-new",136,"no","2 s",NA,NA,"correct",NA
"5789f5c6fa4465000113ecb2",9,"younger",1,"GODS","GODS",TRUE,2.014645,2,1,"sun","new-new",137,"no","2 s",NA,NA,"correct",NA
"5789f5c6fa4465000113ecb2",9,"younger",2,"DEATH","DEATH",TRUE,2.21571,4,2,"pencil","new-new",137,"no","2 s",NA,NA,"correct",NA
"5789f5c6fa4465000113ecb2",9,"younger",3,"FRIEND","FRIEND",TRUE,2.265455,3,3,"cart","new-new",137,"no","2 s",NA,NA,"correct",NA
"5789f5c6fa4465000113ecb2",9,"younger",4,"FOOD","FOOD",TRUE,1.899315,1,4,"telephone","new-new",137,"no","2 s",NA,NA,"correct",NA
"5789f5c6fa4465000113ecb2",10,"younger",1,"SALE","SALE",TRUE,2.04796,4,1,"map","mis-match",138,"no","2 s","FAMILY",0,"correct",NA
"5789f5c6fa4465000113ecb2",10,"younger",2,"YARD","YARD",TRUE,2.115745,3,2,"tyre","match",138,"no","2 s",NA,NA,"correct",NA
"5789f5c6fa4465000113ecb2",10,"younger",3,"SAKE","SAKE",TRUE,2.09899,2,3,"aeroplane","old-new",138,"no","2 s","BODY",0,"correct",NA
"5789f5c6fa4465000113ecb2",10,"younger",4,"STYLE","STYLE",TRUE,1.86535,1,4,"boot","new-new",138,"no","2 s",NA,NA,"correct",NA
"5789f5c6fa4465000113ecb2",11,"younger",1,"CLOCK","CLOCK",TRUE,4.847175,3,1,"runner","new-new",139,"no","2 s",NA,NA,"correct",NA
"5789f5c6fa4465000113ecb2",11,"younger",2,"RIVER","RIVER",TRUE,2.04925,2,2,"tray","new-new",139,"no","2 s",NA,NA,"correct",NA
"5789f5c6fa4465000113ecb2",11,"younger",3,"NIGHT","NIGHT",TRUE,1.998765,1,3,"perfume","new-new",139,"no","2 s",NA,NA,"correct",NA
"5789f5c6fa4465000113ecb2",11,"younger",4,"WATCH","WOMEN",FALSE,2.73252,4,4,"watch","new-new",139,"no","2 s",NA,NA,"extra",NA
"5789f5c6fa4465000113ecb2",12,"younger",1,"SPEECH","SPEECH",TRUE,7.09656,3,1,"backpack","new-new",140,"no","2 s",NA,NA,"correct",NA
"5789f5c6fa4465000113ecb2",12,"younger",2,"MILLER","MILLER",TRUE,1.81547,2,2,"suitcase","match",140,"no","2 s",NA,NA,"correct",NA
"5789f5c6fa4465000113ecb2",12,"younger",3,"FAMILY","FAMILY",TRUE,2.26578,1,3,"candle","mis-match",140,"no","2 s","MILE",0,"correct",NA
"5789f5c6fa4465000113ecb2",12,"younger",4,"GIRL","GIRL",TRUE,2.23218,4,4,"mirror","old-new",140,"no","2 s","VALLEY",0,"correct",NA
"5789f5c6fa4465000113ecb2",13,"younger",1,"SERIES","SERIES",TRUE,3.563705,1,1,"helmet","new-new",141,"no","2 s",NA,NA,"correct",NA
"5789f5c6fa4465000113ecb2",13,"younger",2,"CASINO","CASINO",TRUE,2.514435,2,2,"carrot","new-new",141,"no","2 s",NA,NA,"correct",NA
"5789f5c6fa4465000113ecb2",13,"younger",3,"DEMON","DEMON",TRUE,1.782135,4,3,"diamond","new-new",141,"no","2 s",NA,NA,"correct",NA
"5789f5c6fa4465000113ecb2",13,"younger",4,"BEAUTY","BEAUTY",TRUE,8.73091,3,4,"taxi","new-new",141,"no","2 s",NA,NA,"correct",NA
"5789f5c6fa4465000113ecb2",14,"younger",1,"GLASS","GLASS",TRUE,3.531105,1,1,"crown","old-new",142,"no","2 s","LETTER",0,"correct",NA
"5789f5c6fa4465000113ecb2",14,"younger",2,"THING","THING",TRUE,2.26576,3,2,"bench","match",142,"no","2 s",NA,NA,"correct",NA
"5789f5c6fa4465000113ecb2",14,"younger",3,"FLIGHT","FLIGHT",TRUE,3.365125,4,3,"pawn","mis-match",142,"no","2 s","DANGER",0,"correct",NA
"5789f5c6fa4465000113ecb2",14,"younger",4,"?","SYSTEM",FALSE,9.31383,2,4,"sunflower","new-new",142,"no","2 s",NA,NA,"omission",NA
"5789f5c6fa4465000113ecb2",15,"younger",1,"LEADER","LEADER",TRUE,3.09711,2,1,"cathedral","new-new",143,"no","2 s",NA,NA,"correct",NA
"5789f5c6fa4465000113ecb2",15,"younger",2,"IDEAS","IDEAS",TRUE,2.082275,3,2,"cap","new-new",143,"no","2 s",NA,NA,"correct",NA
"5789f5c6fa4465000113ecb2",15,"younger",3,"?","SPIRIT",FALSE,9.997035,1,3,"coin","new-new",143,"no","2 s",NA,NA,"omission",NA
"5789f5c6fa4465000113ecb2",15,"younger",4,"HOTEL","HOTEL",TRUE,2.51539,4,4,"planet","new-new",143,"no","2 s",NA,NA,"correct",NA
"5789f5c6fa4465000113ecb2",16,"younger",1,"FLESH","FLESH",TRUE,3.0295,2,1,"balcony","new-new",144,"no","2 s",NA,NA,"correct",NA
"5789f5c6fa4465000113ecb2",16,"younger",2,"DUDE","DUDE",TRUE,2.41563,3,2,"pepper","match",144,"no","2 s",NA,NA,"correct",NA
"5789f5c6fa4465000113ecb2",16,"younger",3,"PILLS","PILLS",TRUE,3.5652,4,3,"hanger","old-new",144,"no","2 s","MOMENT",0,"correct",NA
"5789f5c6fa4465000113ecb2",16,"younger",4,"PLENTY","PLENTY",TRUE,2.4985,1,4,"monkey","mis-match",144,"no","2 s","RECORD",0,"correct",NA
"578bb26f6cc44500010448c8",1,"older",1,"CANDY","DIRT",FALSE,5.868,3,1,"scissors","new-new",1489,"no","2 s",NA,NA,"within",2
"578bb26f6cc44500010448c8",1,"older",2,"DIRT","SALE",FALSE,5.287,2,2,"megaphone","new-new",1489,"no","2 s",NA,NA,"within",-1
"578bb26f6cc44500010448c8",1,"older",3,"FLIGHT","CANDY",FALSE,6.452,1,3,"taxi","new-new",1489,"no","2 s",NA,NA,"within",-3
"578bb26f6cc44500010448c8",1,"older",4,"SALE","FLIGHT",FALSE,4.028,4,4,"bolt","new-new",1489,"no","2 s",NA,NA,"within",2
"578bb26f6cc44500010448c8",2,"older",1,"WRITER","WRITER",TRUE,9.873,2,1,"cathedral","match",1490,"no","2 s",NA,NA,"correct",NA
"578bb26f6cc44500010448c8",2,"older",2,"HOUSE","HOUSE",TRUE,7.404,3,2,"microphone","mis-match",1490,"no","2 s","SYSTEM",0,"correct",NA
"578bb26f6cc44500010448c8",2,"older",3,"FLASH","FLESH",FALSE,7.204,4,3,"shovel","new-new",1490,"no","2 s",NA,NA,"extra",NA
"578bb26f6cc44500010448c8",2,"older",4,"?","TOILET",FALSE,4.94,1,4,"mushroom","old-new",1490,"no","2 s","CARS",0,"omission",NA
"578bb26f6cc44500010448c8",3,"older",1,"RECORD","RECORD",TRUE,6.187,1,1,"runner","new-new",1491,"no","2 s",NA,NA,"correct",NA
"578bb26f6cc44500010448c8",3,"older",2,"FOOD","FOOD",TRUE,5.769,3,2,"watch","new-new",1491,"no","2 s",NA,NA,"correct",NA
"578bb26f6cc44500010448c8",3,"older",3,"JUNGLE","JUNGLE",TRUE,7.137,4,3,"cherry","new-new",1491,"no","2 s",NA,NA,"correct",NA
"578bb26f6cc44500010448c8",3,"older",4,"DANGER","DANGER",TRUE,4.77,2,4,"tray","new-new",1491,"no","2 s",NA,NA,"correct",NA
"578bb26f6cc44500010448c8",4,"older",1,"ROOF","ESTATE",FALSE,4.902,2,1,"diamond","new-new",1492,"no","2 s",NA,NA,"within",-1
"578bb26f6cc44500010448c8",4,"older",2,"FAMILY","ROOF",FALSE,7.554,3,2,"suitcase","mis-match",1492,"no","2 s","NIGHT",0,"within",-1
"578bb26f6cc44500010448c8",4,"older",3,"COPS","COPS",TRUE,4.285,1,3,"hanger","old-new",1492,"no","2 s","LEADER",0,"correct",NA
"578bb26f6cc44500010448c8",4,"older",4,"FAMILY","FAMILY",TRUE,8.187,4,4,"dice","match",1492,"no","2 s",NA,NA,"correct",NA
"578bb26f6cc44500010448c8",5,"older",1,"DUDE","DUDE",TRUE,6.587,1,1,"skateboard","old-new",1493,"no","2 s","GIRL",0,"correct",NA
"578bb26f6cc44500010448c8",5,"older",2,"?","APPLE",FALSE,5.871,4,2,"windmill","mis-match",1493,"no","2 s","WEAPON",0,"omission",NA
"578bb26f6cc44500010448c8",5,"older",3,"?","HONEY",FALSE,10.004,2,3,"wheelbarrow","new-new",1493,"no","2 s",NA,NA,"omission",NA
"578bb26f6cc44500010448c8",5,"older",4,"?","MOMENT",FALSE,3.619,3,4,"stamp","match",1493,"no","2 s",NA,NA,"omission",NA
"578bb26f6cc44500010448c8",6,"older",1,"VALLEY","IDEAS",FALSE,4.684,3,1,"mirror","new-new",1494,"no","2 s",NA,NA,"within",1
"578bb26f6cc44500010448c8",6,"older",2,"LOTS","LOTS",TRUE,5.071,1,2,"stool","new-new",1494,"no","2 s",NA,NA,"correct",NA
"578bb26f6cc44500010448c8",6,"older",3,"VALLEY","VALLEY",TRUE,3.702,2,3,"bench","new-new",1494,"no","2 s",NA,NA,"correct",NA
"578bb26f6cc44500010448c8",6,"older",4,"IDEAS","LETTER",FALSE,4.437,4,4,"coin","new-new",1494,"no","2 s",NA,NA,"within",1
"578bb26f6cc44500010448c8",7,"older",1,"AGENT","CLOCK",FALSE,9.637,3,1,"helmet","new-new",1495,"no","2 s",NA,NA,"within",2
"578bb26f6cc44500010448c8",7,"older",2,"HOTEL","AGENT",FALSE,4.57,1,2,"balcony","new-new",1495,"no","2 s",NA,NA,"within",-1
"578bb26f6cc44500010448c8",7,"older",3,"CL","HOTEL",FALSE,9.99,2,3,"pepper","new-new",1495,"no","2 s",NA,NA,"extra",NA
"578bb26f6cc44500010448c8",7,"older",4,"BEAUTY","BEAUTY",TRUE,6.52,4,4,"peg","new-new",1495,"no","2 s",NA,NA,"correct",NA
"578bb26f6cc44500010448c8",8,"older",1,"BOYS","BOYS",TRUE,5.041,1,1,"daisy","new-new",1496,"no","2 s",NA,NA,"correct",NA
"578bb26f6cc44500010448c8",8,"older",2,"NATION","NATION",TRUE,4.485,3,2,"planet","new-new",1496,"no","2 s",NA,NA,"correct",NA
"578bb26f6cc44500010448c8",8,"older",3,"YARD","GLASS",FALSE,5.704,4,3,"tractor","new-new",1496,"no","2 s",NA,NA,"within",2
"578bb26f6cc44500010448c8",8,"older",4,"?","YARD",FALSE,1.472,2,4,"goose","new-new",1496,"no","2 s",NA,NA,"omission",NA
"578bb26f6cc44500010448c8",9,"older",1,"LIFE","LIFE",TRUE,3.318,1,1,"carrot","match",1497,"no","2 s",NA,NA,"correct",NA
"578bb26f6cc44500010448c8",9,"older",2,"PRINCE","PRINCE",TRUE,5.837,4,2,"perfume","old-new",1497,"no","2 s","SPEECH",0,"correct",NA
"578bb26f6cc44500010448c8",9,"older",3,"RIVER","RIVER",TRUE,3.534,2,3,"sun","mis-match",1497,"no","2 s","STYLE",0,"correct",NA
"578bb26f6cc44500010448c8",9,"older",4,"?","SAKE",FALSE,1.42,3,4,"spoon","new-new",1497,"no","2 s",NA,NA,"omission",NA
"578bb26f6cc44500010448c8",10,"older",1,"PHOTO","PHOTO",TRUE,4.469,3,1,"dart","new-new",1498,"no","2 s",NA,NA,"correct",NA
"578bb26f6cc44500010448c8",10,"older",2,"DOZEN","SYSTEM",FALSE,4.352,2,2,"basket","mis-match",1498,"no","2 s","POLICY",0,"within",1
"578bb26f6cc44500010448c8",10,"older",3,"SYSTEM","DOZEN",FALSE,3.418,1,3,"cart","match",1498,"no","2 s",NA,NA,"within",-1
"578bb26f6cc44500010448c8",10,"older",4,"ADVICE","ADVICE",TRUE,3.052,4,4,"razor","old-new",1498,"no","2 s","FRIEND",0,"correct",NA
"578bb26f6cc44500010448c8",11,"older",1,"NIGHT","BATH",FALSE,6.037,1,1,"anchor","old-new",1499,"no","2 s","YEAR",0,"within",-1
"578bb26f6cc44500010448c8",11,"older",2,"SERIES","DEMON",FALSE,5.203,3,2,"pawn","new-new",1499,"no","2 s",NA,NA,"within",-1
"578bb26f6cc44500010448c8",11,"older",3,"BATH","NIGHT",FALSE,2.483,2,3,"tyre","mis-match",1499,"no","2 s","AREA",0,"within",1
"578bb26f6cc44500010448c8",11,"older",4,"NIGHT","SERIES",FALSE,2.754,4,4,"rug","match",1499,"no","2 s",NA,NA,"within",2
"578bb26f6cc44500010448c8",12,"older",1,"SHOTS","ARTIST",FALSE,4.185,4,1,"frame","new-new",1500,"no","2 s",NA,NA,"within",3
"578bb26f6cc44500010448c8",12,"older",2,"FEET","FEET",TRUE,3.036,2,2,"kettle","new-new",1500,"no","2 s",NA,NA,"correct",NA
"578bb26f6cc44500010448c8",12,"older",3,"DEATH","DEATH",TRUE,4.569,3,3,"gorilla","new-new",1500,"no","2 s",NA,NA,"correct",NA
"578bb26f6cc44500010448c8",12,"older",4,"?","SHOTS",FALSE,3.667,1,4,"backpack","new-new",1500,"no","2 s",NA,NA,"omission",NA
"578bb26f6cc44500010448c8",13,"older",1,"SPIRIT","BELT",FALSE,4.15,3,1,"boot","old-new",1501,"no","2 s","PLENTY",0,"within",2
"578bb26f6cc44500010448c8",13,"older",2,"MILE","SPIRIT",FALSE,3.351,1,2,"ring","new-new",1501,"no","2 s",NA,NA,"within",-1
"578bb26f6cc44500010448c8",13,"older",3,"STYLE","STYLE",TRUE,5.988,4,3,"telephone","mis-match",1501,"no","2 s","APPLE",0,"correct",NA
"578bb26f6cc44500010448c8",13,"older",4,"MILE","MILE",TRUE,3.151,2,4,"map","match",1501,"no","2 s",NA,NA,"correct",NA
"578bb26f6cc44500010448c8",14,"older",1,"WEAPON","WEAPON",TRUE,3.85,1,1,"wheel","mis-match",1502,"no","2 s","HOUSE",0,"correct",NA
"578bb26f6cc44500010448c8",14,"older",2,"BODY","BODY",TRUE,4.418,4,2,"pencil","new-new",1502,"no","2 s",NA,NA,"correct",NA
"578bb26f6cc44500010448c8",14,"older",3,"PENNY","PENNY",TRUE,4.386,3,3,"monkey","match",1502,"no","2 s",NA,NA,"correct",NA
"578bb26f6cc44500010448c8",14,"older",4,"MILLER","MILLER",TRUE,3.568,2,4,"cap","old-new",1502,"no","2 s","GODS",0,"correct",NA
"578bb26f6cc44500010448c8",15,"older",1,"WOMAN","WOMEN",FALSE,4.968,2,1,"salt","match",1503,"no","2 s",NA,NA,"extra",NA
"578bb26f6cc44500010448c8",15,"older",2,"AREA","AREA",TRUE,3.203,1,2,"aeroplane","mis-match",1503,"no","2 s","RIVER",0,"correct",NA
"578bb26f6cc44500010448c8",15,"older",3,"TEAR","TEAR",TRUE,4.918,3,3,"pear","new-new",1503,"no","2 s",NA,NA,"correct",NA
"578bb26f6cc44500010448c8",15,"older",4,"THING","THING",TRUE,2.769,4,4,"crown","old-new",1503,"no","2 s","KIND",0,"correct",NA
"578bb26f6cc44500010448c8",16,"older",1,"CASINO","MONTH",FALSE,3.645,3,1,"calendar","new-new",1504,"no","2 s",NA,NA,"within",2
"578bb26f6cc44500010448c8",16,"older",2,"PILLS","CASINO",FALSE,3.269,1,2,"motorbike","match",1504,"no","2 s",NA,NA,"within",-1
"578bb26f6cc44500010448c8",16,"older",3,"MONTH","PILLS",FALSE,5.956,2,3,"sunflower","old-new",1504,"no","2 s","CLIENT",0,"within",-1
"578bb26f6cc44500010448c8",16,"older",4,"POLICY","POLICY",TRUE,3.052,4,4,"candle","mis-match",1504,"no","2 s","ROOF",0,"correct",NA
"5794c6a370c76a000124550a",1,"older",1,"PLENTY","KIND",FALSE,6.919,3,1,"perfume","old-new",1041,"no","2 s","GODS",0,"within",1
"5794c6a370c76a000124550a",1,"older",2,"KIND","CLOCK",FALSE,4.785,1,2,"bolt","match",1041,"no","2 s",NA,NA,"within",-2
"5794c6a370c76a000124550a",1,"older",3,"?","PLENTY",FALSE,6.418,2,3,"diamond","mis-match",1041,"no","2 s","THING",0,"omission",NA
"5794c6a370c76a000124550a",1,"older",4,"YARD","YARD",TRUE,2.918,4,4,"mushroom","new-new",1041,"no","2 s",NA,NA,"correct",NA
"5794c6a370c76a000124550a",2,"older",1,"YEAR","CANDY",FALSE,7.003,3,1,"cart","new-new",1042,"no","2 s",NA,NA,"within",1
"5794c6a370c76a000124550a",2,"older",2,"ARTIST","ARTIST",TRUE,4.986,4,2,"gorilla","old-new",1042,"no","2 s","HONEY",0,"correct",NA
"5794c6a370c76a000124550a",2,"older",3,"FLIGHT","FLIGHT",TRUE,4.553,1,3,"tyre","match",1042,"no","2 s",NA,NA,"correct",NA
"5794c6a370c76a000124550a",2,"older",4,"YEAR","YEAR",TRUE,3.485,2,4,"telephone","mis-match",1042,"no","2 s","BATH",0,"correct",NA
"5794c6a370c76a000124550a",3,"older",1,"HOUSE","HOUSE",TRUE,4.336,4,1,"goose","new-new",1043,"no","2 s",NA,NA,"correct",NA
"5794c6a370c76a000124550a",3,"older",2,"SALE","SALE",TRUE,3.834,1,2,"kettle","new-new",1043,"no","2 s",NA,NA,"correct",NA
"5794c6a370c76a000124550a",3,"older",3,"?","SYSTEM",FALSE,2.952,2,3,"peg","new-new",1043,"no","2 s",NA,NA,"omission",NA
"5794c6a370c76a000124550a",3,"older",4,"PEG","ESTATE",FALSE,6.652,3,4,"dart","new-new",1043,"no","2 s",NA,NA,"extra",NA
"5794c6a370c76a000124550a",4,"older",1,"RECORD","RECORD",TRUE,8.337,4,1,"sun","new-new",1044,"no","2 s",NA,NA,"correct",NA
"5794c6a370c76a000124550a",4,"older",2,"?","NATION",FALSE,3.001,1,2,"pepper","new-new",1044,"no","2 s",NA,NA,"omission",NA
"5794c6a370c76a000124550a",4,"older",3,"POLICY","POLICY",TRUE,4.753,2,3,"frame","new-new",1044,"no","2 s",NA,NA,"correct",NA
"5794c6a370c76a000124550a",4,"older",4,"DANGER","DANGER",TRUE,4.051,3,4,"skateboard","new-new",1044,"no","2 s",NA,NA,"correct",NA
"5794c6a370c76a000124550a",5,"older",1,"PRINCE","PRINCE",TRUE,5.603,2,1,"windmill","new-new",1045,"no","2 s",NA,NA,"correct",NA
"5794c6a370c76a000124550a",5,"older",2,"GIRL","GIRL",TRUE,3.334,3,2,"tray","match",1045,"no","2 s",NA,NA,"correct",NA
"5794c6a370c76a000124550a",5,"older",3,"WOMEN","WOMEN",TRUE,4.185,1,3,"wheel","mis-match",1045,"no","2 s","YEAR",0,"correct",NA
"5794c6a370c76a000124550a",5,"older",4,"?","BODY",FALSE,8.186,4,4,"cherry","old-new",1045,"no","2 s","MONTH",0,"omission",NA
"5794c6a370c76a000124550a",6,"older",1,"THING","THING",TRUE,4.951,3,1,"runner","mis-match",1046,"no","2 s","WOMEN",0,"correct",NA
"5794c6a370c76a000124550a",6,"older",2,"JUNGLE","JUNGLE",TRUE,6.702,2,2,"anchor","match",1046,"no","2 s",NA,NA,"correct",NA
"5794c6a370c76a000124550a",6,"older",3,"FRIEND","FRIEND",TRUE,6.82,4,3,"taxi","old-new",1046,"no","2 s","FAMILY",0,"correct",NA
"5794c6a370c76a000124550a",6,"older",4,"DIRTY","DIRT",FALSE,3.684,1,4,"mirror","new-new",1046,"no","2 s",NA,NA,"extra",NA
"5794c6a370c76a000124550a",7,"older",1,"RIVER","RIVER",TRUE,4.984,2,1,"backpack","mis-match",1047,"no","2 s","CLIENT",0,"correct",NA
"5794c6a370c76a000124550a",7,"older",2,"WEAPON","WEAPON",TRUE,5.668,3,2,"boot","new-new",1047,"no","2 s",NA,NA,"correct",NA
"5794c6a370c76a000124550a",7,"older",3,"DIRTY","AREA",FALSE,5.487,1,3,"bench","old-new",1047,"no","2 s","DUDE",0,"extra",NA
"5794c6a370c76a000124550a",7,"older",4,"PENNY","PENNY",TRUE,3.586,4,4,"shovel","match",1047,"no","2 s",NA,NA,"correct",NA
"5794c6a370c76a000124550a",8,"older",1,"LOTS","ADVICE",FALSE,5.819,3,1,"stamp","mis-match",1048,"no","2 s","CASINO",0,"within",2
"5794c6a370c76a000124550a",8,"older",2,"TEAR","TEAR",TRUE,3.968,4,2,"calendar","new-new",1048,"no","2 s",NA,NA,"correct",NA
"5794c6a370c76a000124550a",8,"older",3,"?","BELT",FALSE,3.484,2,3,"wheelbarrow","old-new",1048,"no","2 s","HOTEL",0,"omission",NA
"5794c6a370c76a000124550a",8,"older",4,"LOTS","LOTS",TRUE,2.751,1,4,"microphone","match",1048,"no","2 s",NA,NA,"correct",NA
"5794c6a370c76a000124550a",9,"older",1,"BATH","BATH",TRUE,4.002,3,1,"daisy","mis-match",1049,"no","2 s","RIVER",0,"correct",NA
"5794c6a370c76a000124550a",9,"older",2,"PILLS","FEET",FALSE,7.603,4,2,"crown","old-new",1049,"no","2 s","PILLS",1,"ltm",NA
"5794c6a370c76a000124550a",9,"older",3,"GLASS","GLASS",TRUE,4.553,1,3,"rug","match",1049,"no","2 s",NA,NA,"correct",NA
"5794c6a370c76a000124550a",9,"older",4,"DEMON","DEMON",TRUE,4.669,2,4,"salt","new-new",1049,"no","2 s",NA,NA,"correct",NA
"5794c6a370c76a000124550a",10,"older",1,"NIGHT","NIGHT",TRUE,3.5,4,1,"cap","new-new",1050,"no","2 s",NA,NA,"correct",NA
"5794c6a370c76a000124550a",10,"older",2,"DEATH","DEATH",TRUE,3.801,3,2,"suitcase","new-new",1050,"no","2 s",NA,NA,"correct",NA
"5794c6a370c76a000124550a",10,"older",3,"ROOF","ROOF",TRUE,3.685,1,3,"planet","new-new",1050,"no","2 s",NA,NA,"correct",NA
"5794c6a370c76a000124550a",10,"older",4,"?","WRITER",FALSE,3.918,2,4,"watch","new-new",1050,"no","2 s",NA,NA,"omission",NA
"5794c6a370c76a000124550a",11,"older",1,"DOZEN","DOZEN",TRUE,5.385,1,1,"basket","new-new",1051,"no","2 s",NA,NA,"correct",NA
"5794c6a370c76a000124550a",11,"older",2,"PHOTO","VALLEY",FALSE,3.935,3,2,"megaphone","old-new",1051,"no","2 s","TOILET",0,"within",1
"5794c6a370c76a000124550a",11,"older",3,"VALLEY","PHOTO",FALSE,6.452,2,3,"spoon","mis-match",1051,"no","2 s","PLENTY",0,"within",-1
"5794c6a370c76a000124550a",11,"older",4,"COPS","COPS",TRUE,3.985,4,4,"pencil","match",1051,"no","2 s",NA,NA,"correct",NA
"5794c6a370c76a000124550a",12,"older",1,"SAKE","APPLE",FALSE,5.819,2,1,"stool","old-new",1052,"no","2 s","AGENT",0,"within",1
"5794c6a370c76a000124550a",12,"older",2,"CASINO","CASINO",TRUE,5.219,3,2,"map","mis-match",1052,"no","2 s","PHOTO",0,"correct",NA
"5794c6a370c76a000124550a",12,"older",3,"SPEECH","SPEECH",TRUE,4.602,4,3,"pear","new-new",1052,"no","2 s",NA,NA,"correct",NA
"5794c6a370c76a000124550a",12,"older",4,"SAKE","SAKE",TRUE,4.085,1,4,"ring","match",1052,"no","2 s",NA,NA,"correct",NA
"5794c6a370c76a000124550a",13,"older",1,"FLESH","FLESH",TRUE,4.018,1,1,"balcony","new-new",1053,"no","2 s",NA,NA,"correct",NA
"5794c6a370c76a000124550a",13,"older",2,"STYLE","STYLE",TRUE,4.052,3,2,"pawn","new-new",1053,"no","2 s",NA,NA,"correct",NA
"5794c6a370c76a000124550a",13,"older",3,"SERIES","SERIES",TRUE,3.969,2,3,"coin","new-new",1053,"no","2 s",NA,NA,"correct",NA
"5794c6a370c76a000124550a",13,"older",4,"SPEECH","IDEAS",FALSE,4.801,4,4,"candle","new-new",1053,"no","2 s",NA,NA,"previous",NA
"5794c6a370c76a000124550a",14,"older",1,"FOOD","FOOD",TRUE,2.95,1,1,"cathedral","new-new",1054,"no","2 s",NA,NA,"correct",NA
"5794c6a370c76a000124550a",14,"older",2,"LETTER","LETTER",TRUE,3.301,2,2,"hanger","new-new",1054,"no","2 s",NA,NA,"correct",NA
"5794c6a370c76a000124550a",14,"older",3,"MOMENT","MOMENT",TRUE,5.251,4,3,"aeroplane","new-new",1054,"no","2 s",NA,NA,"correct",NA
"5794c6a370c76a000124550a",14,"older",4,"MILLER","MILLER",TRUE,3.219,3,4,"sunflower","new-new",1054,"no","2 s",NA,NA,"correct",NA
"5794c6a370c76a000124550a",15,"older",1,"CLIENT","LIFE",FALSE,6.285,4,1,"razor","old-new",1055,"no","2 s","BEAUTY",0,"within",1
"5794c6a370c76a000124550a",15,"older",2,"SHOTS","SHOTS",TRUE,4.319,2,2,"scissors","new-new",1055,"no","2 s",NA,NA,"correct",NA
"5794c6a370c76a000124550a",15,"older",3,"LEADER","LEADER",TRUE,3.384,1,3,"helmet","match",1055,"no","2 s",NA,NA,"correct",NA
"5794c6a370c76a000124550a",15,"older",4,"LIFE","CLIENT",FALSE,2.8,3,4,"carrot","mis-match",1055,"no","2 s","ADVICE",0,"within",-1
"5794c6a370c76a000124550a",16,"older",1,"SPIRIT","BOYS",FALSE,5.768,2,1,"monkey","new-new",1056,"no","2 s",NA,NA,"within",-1
"5794c6a370c76a000124550a",16,"older",2,"CARS","CARS",TRUE,2.768,1,2,"motorbike","new-new",1056,"no","2 s",NA,NA,"correct",NA
"5794c6a370c76a000124550a",16,"older",3,"LIFE","MILE",FALSE,3,4,3,"dice","new-new",1056,"no","2 s",NA,NA,"previous",NA
"5794c6a370c76a000124550a",16,"older",4,"?","SPIRIT",FALSE,2.251,3,4,"tractor","new-new",1056,"no","2 s",NA,NA,"omission",NA
"58cefdb030c4cf0001ceb3ac",1,"older",1,"LOTS","LOTS",TRUE,3.4808,1,1,"stool","new-new",1153,"no","2 s",NA,NA,"correct",NA
"58cefdb030c4cf0001ceb3ac",1,"older",2,"LETTER","LETTER",TRUE,3.80114,4,2,"coin","new-new",1153,"no","2 s",NA,NA,"correct",NA
"58cefdb030c4cf0001ceb3ac",1,"older",3,"VALLEY","IDEAS",FALSE,2.765945,3,3,"mirror","new-new",1153,"no","2 s",NA,NA,"within",1
"58cefdb030c4cf0001ceb3ac",1,"older",4,"IDEA","VALLEY",FALSE,2.74919,2,4,"bench","new-new",1153,"no","2 s",NA,NA,"extra",NA
"58cefdb030c4cf0001ceb3ac",2,"older",1,"POLICY","POLICY",TRUE,2.843595,4,1,"candle","mis-match",1154,"no","2 s","ROOF",0,"correct",NA
"58cefdb030c4cf0001ceb3ac",2,"older",2,"MONTH","MONTH",TRUE,2.216705,3,2,"calendar","new-new",1154,"no","2 s",NA,NA,"correct",NA
"58cefdb030c4cf0001ceb3ac",2,"older",3,"CASINO","CASINO",TRUE,2.316765,1,3,"motorbike","match",1154,"no","2 s",NA,NA,"correct",NA
"58cefdb030c4cf0001ceb3ac",2,"older",4,"PILLS","PILLS",TRUE,1.566375,2,4,"sunflower","old-new",1154,"no","2 s","CLIENT",0,"correct",NA
"58cefdb030c4cf0001ceb3ac",3,"older",1,"SALES","SALE",FALSE,4.565205,2,1,"megaphone","new-new",1155,"no","2 s",NA,NA,"extra",NA
"58cefdb030c4cf0001ceb3ac",3,"older",2,"DIRT","FLIGHT",FALSE,3.250995,4,2,"bolt","new-new",1155,"no","2 s",NA,NA,"within",1
"58cefdb030c4cf0001ceb3ac",3,"older",3,"FLIGHT","DIRT",FALSE,2.399095,3,3,"scissors","new-new",1155,"no","2 s",NA,NA,"within",-1
"58cefdb030c4cf0001ceb3ac",3,"older",4,"CANDY","CANDY",TRUE,1.54951,1,4,"taxi","new-new",1155,"no","2 s",NA,NA,"correct",NA
"58cefdb030c4cf0001ceb3ac",4,"older",1,"FAMILY","FAMILY",TRUE,2.29746,4,1,"dice","match",1156,"no","2 s",NA,NA,"correct",NA
"58cefdb030c4cf0001ceb3ac",4,"older",2,"COPS","COPS",TRUE,1.68311,1,2,"hanger","old-new",1156,"no","2 s","LEADER",0,"correct",NA
"58cefdb030c4cf0001ceb3ac",4,"older",3,"ESTATE","ROOF",FALSE,3.285775,3,3,"suitcase","mis-match",1156,"no","2 s","NIGHT",0,"within",1
"58cefdb030c4cf0001ceb3ac",4,"older",4,"ROOF","ESTATE",FALSE,2.04986,2,4,"diamond","new-new",1156,"no","2 s",NA,NA,"within",-1
"58cefdb030c4cf0001ceb3ac",5,"older",1,"AGENT","AGENT",TRUE,3.148495,1,1,"balcony","new-new",1157,"no","2 s",NA,NA,"correct",NA
"58cefdb030c4cf0001ceb3ac",5,"older",2,"BEAUTY","BEAUTY",TRUE,3.413905,4,2,"peg","new-new",1157,"no","2 s",NA,NA,"correct",NA
"58cefdb030c4cf0001ceb3ac",5,"older",3,"HOTEL","HOTEL",TRUE,3.016095,2,3,"pepper","new-new",1157,"no","2 s",NA,NA,"correct",NA
"58cefdb030c4cf0001ceb3ac",5,"older",4,"CLOCK","CLOCK",TRUE,1.581735,3,4,"helmet","new-new",1157,"no","2 s",NA,NA,"correct",NA
"58cefdb030c4cf0001ceb3ac",6,"older",1,"HONEY","HONEY",TRUE,4.54953,2,1,"wheelbarrow","new-new",1158,"no","2 s",NA,NA,"correct",NA
"58cefdb030c4cf0001ceb3ac",6,"older",2,"APPLE","APPLE",TRUE,2.88252,4,2,"windmill","mis-match",1158,"no","2 s","WEAPON",0,"correct",NA
"58cefdb030c4cf0001ceb3ac",6,"older",3,"MOMENT","DUDE",FALSE,4.602005,1,3,"skateboard","old-new",1158,"no","2 s","GIRL",0,"within",-2
"58cefdb030c4cf0001ceb3ac",6,"older",4,"MOMENT","MOMENT",TRUE,2.850985,3,4,"stamp","match",1158,"no","2 s",NA,NA,"correct",NA
"58cefdb030c4cf0001ceb3ac",7,"older",1,"FLESH","FLESH",TRUE,5.50006,4,1,"shovel","new-new",1159,"no","2 s",NA,NA,"correct",NA
"58cefdb030c4cf0001ceb3ac",7,"older",2,"T","TOILET",FALSE,9.989235,1,2,"mushroom","old-new",1159,"no","2 s","CARS",0,"extra",NA
"58cefdb030c4cf0001ceb3ac",7,"older",3,"HOUSE","HOUSE",TRUE,6.88561,3,3,"microphone","mis-match",1159,"no","2 s","SYSTEM",0,"correct",NA
"58cefdb030c4cf0001ceb3ac",7,"older",4,"WRITER","WRITER",TRUE,2.582495,2,4,"cathedral","match",1159,"no","2 s",NA,NA,"correct",NA
"58cefdb030c4cf0001ceb3ac",8,"older",1,"TEAR","TEAR",TRUE,4.24933,3,1,"pear","new-new",1160,"no","2 s",NA,NA,"correct",NA
"58cefdb030c4cf0001ceb3ac",8,"older",2,"AREA","AREA",TRUE,5.31798,1,2,"aeroplane","mis-match",1160,"no","2 s","RIVER",0,"correct",NA
"58cefdb030c4cf0001ceb3ac",8,"older",3,"TEAR","THING",FALSE,9.55448,4,3,"crown","old-new",1160,"no","2 s","KIND",0,"within",1
"58cefdb030c4cf0001ceb3ac",8,"older",4,"WOMEN","WOMEN",TRUE,1.76463,2,4,"salt","match",1160,"no","2 s",NA,NA,"correct",NA
"58cefdb030c4cf0001ceb3ac",9,"older",1,"SERIES","SERIES",TRUE,3.01489,4,1,"rug","match",1161,"no","2 s",NA,NA,"correct",NA
"58cefdb030c4cf0001ceb3ac",9,"older",2,"NIGHT","NIGHT",TRUE,5.119815,2,2,"tyre","mis-match",1161,"no","2 s","AREA",0,"correct",NA
"58cefdb030c4cf0001ceb3ac",9,"older",3,"DEMON","DEMON",TRUE,1.814995,3,3,"pawn","new-new",1161,"no","2 s",NA,NA,"correct",NA
"58cefdb030c4cf0001ceb3ac",9,"older",4,"BATH","BATH",TRUE,1.48302,1,4,"anchor","old-new",1161,"no","2 s","YEAR",0,"correct",NA
"58cefdb030c4cf0001ceb3ac",10,"older",1,"SPIRIT","SPIRIT",TRUE,8.76808,1,1,"ring","new-new",1162,"no","2 s",NA,NA,"correct",NA
"58cefdb030c4cf0001ceb3ac",10,"older",2,"MILE","MILE",TRUE,2.64901,2,2,"map","match",1162,"no","2 s",NA,NA,"correct",NA
"58cefdb030c4cf0001ceb3ac",10,"older",3,"BATH","STYLE",FALSE,5.652785,4,3,"telephone","mis-match",1162,"no","2 s","APPLE",0,"previous",NA
"58cefdb030c4cf0001ceb3ac",10,"older",4,"BELT","BELT",TRUE,3.49953,3,4,"boot","old-new",1162,"no","2 s","PLENTY",0,"correct",NA
"58cefdb030c4cf0001ceb3ac",11,"older",1,"DOZEN","DOZEN",TRUE,4.765845,1,1,"cart","match",1163,"no","2 s",NA,NA,"correct",NA
"58cefdb030c4cf0001ceb3ac",11,"older",2,"ADVICE","ADVICE",TRUE,3.61685,4,2,"razor","old-new",1163,"no","2 s","FRIEND",0,"correct",NA
"58cefdb030c4cf0001ceb3ac",11,"older",3,"PHOTO","PHOTO",TRUE,3.89993,3,3,"dart","new-new",1163,"no","2 s",NA,NA,"correct",NA
"58cefdb030c4cf0001ceb3ac",11,"older",4,"SYSTEM","SYSTEM",TRUE,2.599185,2,4,"basket","mis-match",1163,"no","2 s","POLICY",0,"correct",NA
"58cefdb030c4cf0001ceb3ac",12,"older",1,"ARTIST","ARTIST",TRUE,2.93138,4,1,"frame","new-new",1164,"no","2 s",NA,NA,"correct",NA
"58cefdb030c4cf0001ceb3ac",12,"older",2,"DEATH","DEATH",TRUE,1.91654,3,2,"gorilla","new-new",1164,"no","2 s",NA,NA,"correct",NA
"58cefdb030c4cf0001ceb3ac",12,"older",3,"SHOTS","SHOTS",TRUE,3.28435,1,3,"backpack","new-new",1164,"no","2 s",NA,NA,"correct",NA
"58cefdb030c4cf0001ceb3ac",12,"older",4,"FEET","FEET",TRUE,1.64831,2,4,"kettle","new-new",1164,"no","2 s",NA,NA,"correct",NA
"58cefdb030c4cf0001ceb3ac",13,"older",1,"WEAPON","BODY",FALSE,6.083685,4,1,"pencil","new-new",1165,"no","2 s",NA,NA,"within",3
"58cefdb030c4cf0001ceb3ac",13,"older",2,"MILLER","MILLER",TRUE,4.834065,2,2,"cap","old-new",1165,"no","2 s","GODS",0,"correct",NA
"58cefdb030c4cf0001ceb3ac",13,"older",3,"PENNY","PENNY",TRUE,1.91526,3,3,"monkey","match",1165,"no","2 s",NA,NA,"correct",NA
"58cefdb030c4cf0001ceb3ac",13,"older",4,"WEAPON","WEAPON",TRUE,4.018075,1,4,"wheel","mis-match",1165,"no","2 s","HOUSE",0,"correct",NA
"58cefdb030c4cf0001ceb3ac",14,"older",1,"DANGER","DANGER",TRUE,5.04978,2,1,"tray","new-new",1166,"no","2 s",NA,NA,"correct",NA
"58cefdb030c4cf0001ceb3ac",14,"older",2,"WEAPON","RECORD",FALSE,2.348725,1,2,"runner","new-new",1166,"no","2 s",NA,NA,"previous",NA
"58cefdb030c4cf0001ceb3ac",14,"older",3,"FOOD","FOOD",TRUE,1.382815,3,3,"watch","new-new",1166,"no","2 s",NA,NA,"correct",NA
"58cefdb030c4cf0001ceb3ac",14,"older",4,"JUNGLE","JUNGLE",TRUE,2.166735,4,4,"cherry","new-new",1166,"no","2 s",NA,NA,"correct",NA
"58cefdb030c4cf0001ceb3ac",15,"older",1,"PRINCE","PRINCE",TRUE,3.64825,4,1,"perfume","old-new",1167,"no","2 s","SPEECH",0,"correct",NA
"58cefdb030c4cf0001ceb3ac",15,"older",2,"SAKE","SAKE",TRUE,4.56854,3,2,"spoon","new-new",1167,"no","2 s",NA,NA,"correct",NA
"58cefdb030c4cf0001ceb3ac",15,"older",3,"LIFE","LIFE",TRUE,1.89887,1,3,"carrot","match",1167,"no","2 s",NA,NA,"correct",NA
"58cefdb030c4cf0001ceb3ac",15,"older",4,"RIVER","RIVER",TRUE,2.767055,2,4,"sun","mis-match",1167,"no","2 s","STYLE",0,"correct",NA
"58cefdb030c4cf0001ceb3ac",16,"older",1,"NATION","NATION",TRUE,5.09948,3,1,"planet","new-new",1168,"no","2 s",NA,NA,"correct",NA
"58cefdb030c4cf0001ceb3ac",16,"older",2,"GLASS","GLASS",TRUE,2.83286,4,2,"tractor","new-new",1168,"no","2 s",NA,NA,"correct",NA
"58cefdb030c4cf0001ceb3ac",16,"older",3,"BOYS","YARD",FALSE,4.33388,2,3,"goose","new-new",1168,"no","2 s",NA,NA,"within",1
"58cefdb030c4cf0001ceb3ac",16,"older",4,"YARD","BOYS",FALSE,3.56671,1,4,"daisy","new-new",1168,"no","2 s",NA,NA,"within",-1
"5973bad6e703200001ad2b86",1,"older",1,"SYSTEM","SYSTEM",TRUE,9.99033,1,1,"sun","new-new",897,"no","2 s",NA,NA,"correct",NA
"5973bad6e703200001ad2b86",1,"older",2,"TEAR","ARTIST",FALSE,9.990965,2,2,"calendar","mis-match",897,"no","2 s","POLICY",0,"within",-1
"5973bad6e703200001ad2b86",1,"older",3,"TEAR","TEAR",TRUE,9.991905,3,3,"hanger","old-new",897,"no","2 s","YEAR",0,"correct",NA
"5973bad6e703200001ad2b86",1,"older",4,"LETTER","LETTER",TRUE,9.99139,4,4,"mirror","match",897,"no","2 s",NA,NA,"correct",NA
"5973bad6e703200001ad2b86",2,"older",1,"SAKE","SAKE",TRUE,9.989485,4,1,"motorbike","old-new",898,"no","2 s","BEAUTY",0,"correct",NA
"5973bad6e703200001ad2b86",2,"older",2,"DEMON","DEMON",TRUE,9.99108,2,2,"telephone","mis-match",898,"no","2 s","PHOTO",0,"correct",NA
"5973bad6e703200001ad2b86",2,"older",3,"AREA","AREA",TRUE,9.989985,3,3,"shovel","match",898,"no","2 s",NA,NA,"correct",NA
"5973bad6e703200001ad2b86",2,"older",4,"ADVICE","ADVICE",TRUE,9.991405,1,4,"megaphone","new-new",898,"no","2 s",NA,NA,"correct",NA
"5973bad6e703200001ad2b86",3,"older",1,"FLIGHT","FLIGHT",TRUE,9.99155,1,1,"wheel","new-new",899,"no","2 s",NA,NA,"correct",NA
"5973bad6e703200001ad2b86",3,"older",2,"CANDY","CANDY",TRUE,9.99226,2,2,"tractor","new-new",899,"no","2 s",NA,NA,"correct",NA
"5973bad6e703200001ad2b86",3,"older",3,"FEET","FEET",TRUE,10.001545,3,3,"runner","new-new",899,"no","2 s",NA,NA,"correct",NA
"5973bad6e703200001ad2b86",3,"older",4,"RUN","CLIENT",FALSE,9.99197,4,4,"watch","new-new",899,"no","2 s",NA,NA,"extra",NA
"5973bad6e703200001ad2b86",4,"older",1,"SUN","JUNGLE",FALSE,9.98874,2,1,"planet","old-new",900,"no","2 s","RIVER",0,"extra",NA
"5973bad6e703200001ad2b86",4,"older",2,"?","BATH",FALSE,9.9889,3,2,"spoon","match",900,"no","2 s",NA,NA,"omission",NA
"5973bad6e703200001ad2b86",4,"older",3,"BEAUTY","BELT",FALSE,9.99191,4,3,"wheelbarrow","new-new",900,"no","2 s",NA,NA,"ltm",NA
"5973bad6e703200001ad2b86",4,"older",4,"POLITE","POLICY",FALSE,9.99195,1,4,"pepper","mis-match",900,"no","2 s","SPEECH",0,"extra",NA
"5973bad6e703200001ad2b86",5,"older",1,"BODY","BODY",TRUE,9.989535,1,1,"daisy","old-new",901,"no","2 s","GLASS",0,"correct",NA
"5973bad6e703200001ad2b86",5,"older",2,"NATION","NATION",TRUE,9.992275,4,2,"stamp","match",901,"no","2 s",NA,NA,"correct",NA
"5973bad6e703200001ad2b86",5,"older",3,"PENNY","PENNY",TRUE,9.99115,2,3,"stool","new-new",901,"no","2 s",NA,NA,"correct",NA
"5973bad6e703200001ad2b86",5,"older",4,"TOILET","TOILET",TRUE,9.99176,3,4,"anchor","mis-match",901,"no","2 s","PLENTY",0,"correct",NA
"5973bad6e703200001ad2b86",6,"older",1,"GODS","GODS",TRUE,9.991575,3,1,"perfume","new-new",902,"no","2 s",NA,NA,"correct",NA
"5973bad6e703200001ad2b86",6,"older",2,"DANGER","DANGER",TRUE,9.99228,1,2,"crown","new-new",902,"no","2 s",NA,NA,"correct",NA
"5973bad6e703200001ad2b86",6,"older",3,"FRIENDS","FRIEND",FALSE,9.991565,4,3,"balcony","new-new",902,"no","2 s",NA,NA,"extra",NA
"5973bad6e703200001ad2b86",6,"older",4,"VALUES","VALLEY",FALSE,9.99198,2,4,"basket","new-new",902,"no","2 s",NA,NA,"extra",NA
"5973bad6e703200001ad2b86",7,"older",1,"APPLE","APPLE",TRUE,9.989845,1,1,"dice","new-new",903,"no","2 s",NA,NA,"correct",NA
"5973bad6e703200001ad2b86",7,"older",2,"ROOF","ROOF",TRUE,9.991235,3,2,"rug","match",903,"no","2 s",NA,NA,"correct",NA
"5973bad6e703200001ad2b86",7,"older",3,"IDEAS","IDEAS",TRUE,9.991525,4,3,"coin","mis-match",903,"no","2 s","WRITER",0,"correct",NA
"5973bad6e703200001ad2b86",7,"older",4,"IDEAS","MOMENT",FALSE,9.99067,2,4,"boot","old-new",903,"no","2 s","BOYS",0,"within",-2
"5973bad6e703200001ad2b86",8,"older",1,"?","HONEY",FALSE,9.99202,1,1,"kettle","old-new",904,"no","2 s","HOTEL",0,"omission",NA
"5973bad6e703200001ad2b86",8,"older",2,"CLOSE","CLOCK",FALSE,9.99087,3,2,"pear","new-new",904,"no","2 s",NA,NA,"extra",NA
"5973bad6e703200001ad2b86",8,"older",3,"PLENTY","PLENTY",TRUE,9.992925,2,3,"salt","mis-match",904,"no","2 s","IDEAS",0,"correct",NA
"5973bad6e703200001ad2b86",8,"older",4,"STYLE","STYLE",TRUE,9.991735,4,4,"suitcase","match",904,"no","2 s",NA,NA,"correct",NA
"5973bad6e703200001ad2b86",9,"older",1,"?","SPEECH",FALSE,9.990555,3,1,"carrot","mis-match",905,"no","2 s","PRINCE",0,"omission",NA
"5973bad6e703200001ad2b86",9,"older",2,"YARD","YARD",TRUE,9.99135,1,2,"monkey","match",905,"no","2 s",NA,NA,"correct",NA
"5973bad6e703200001ad2b86",9,"older",3,"DIRT","DIRT",TRUE,9.99171,2,3,"scissors","old-new",905,"no","2 s","DUDE",0,"correct",NA
"5973bad6e703200001ad2b86",9,"older",4,"MILE","MILE",TRUE,9.992975,4,4,"taxi","new-new",905,"no","2 s",NA,NA,"correct",NA
"5973bad6e703200001ad2b86",10,"older",1,"AGENT","AGENT",TRUE,9.990645,3,1,"goose","new-new",906,"no","2 s",NA,NA,"correct",NA
"5973bad6e703200001ad2b86",10,"older",2,"SERVICE","MILLER",FALSE,10.0043,4,2,"bolt","new-new",906,"no","2 s",NA,NA,"extra",NA
"5973bad6e703200001ad2b86",10,"older",3,"SERVICE","SERIES",FALSE,9.99148,1,3,"tyre","new-new",906,"no","2 s",NA,NA,"extra",NA
"5973bad6e703200001ad2b86",10,"older",4,"SALE","SALE",TRUE,9.9917,2,4,"diamond","new-new",906,"no","2 s",NA,NA,"correct",NA
"5973bad6e703200001ad2b86",11,"older",1,"FOOD","FOOD",TRUE,9.9908,2,1,"dart","new-new",907,"no","2 s",NA,NA,"correct",NA
"5973bad6e703200001ad2b86",11,"older",2,"PRINCE","PRINCE",TRUE,9.99219,4,2,"peg","mis-match",907,"no","2 s","DEMON",0,"correct",NA
"5973bad6e703200001ad2b86",11,"older",3,"HOUSE","HOUSE",TRUE,9.991705,3,3,"mushroom","match",907,"no","2 s",NA,NA,"correct",NA
"5973bad6e703200001ad2b86",11,"older",4,"THING","THING",TRUE,9.991195,1,4,"frame","old-new",907,"no","2 s","COPS",0,"correct",NA
"5973bad6e703200001ad2b86",12,"older",1,"WEAPON","WEAPON",TRUE,9.990155,3,1,"cherry","new-new",908,"no","2 s",NA,NA,"correct",NA
"5973bad6e703200001ad2b86",12,"older",2,"WRITER","WRITER",TRUE,9.99206,1,2,"cap","mis-match",908,"no","2 s","ARTIST",0,"correct",NA
"5973bad6e703200001ad2b86",12,"older",3,"KIND","KIND",TRUE,9.995905,2,3,"candle","match",908,"no","2 s",NA,NA,"correct",NA
"5973bad6e703200001ad2b86",12,"older",4,"WOMEN","WOMEN",TRUE,10.002665,4,4,"microphone","old-new",908,"no","2 s","SPIRIT",0,"correct",NA
"5973bad6e703200001ad2b86",13,"older",1,"FLESH","FLESH",TRUE,9.988155,2,1,"windmill","new-new",909,"no","2 s",NA,NA,"correct",NA
"5973bad6e703200001ad2b86",13,"older",2,"DOZEN","DOZEN",TRUE,9.99791,1,2,"gorilla","new-new",909,"no","2 s",NA,NA,"correct",NA
"5973bad6e703200001ad2b86",13,"older",3,"TRAYS","CARS",FALSE,10.00257,3,3,"tray","new-new",909,"no","2 s",NA,NA,"extra",NA
"5973bad6e703200001ad2b86",13,"older",4,"LOTS","LOTS",TRUE,9.991865,4,4,"backpack","new-new",909,"no","2 s",NA,NA,"correct",NA
"5973bad6e703200001ad2b86",14,"older",1,"PILLS","PILLS",TRUE,9.991815,1,1,"skateboard","new-new",910,"no","2 s",NA,NA,"correct",NA
"5973bad6e703200001ad2b86",14,"older",2,"RECORD","RECORD",TRUE,9.99332,2,2,"razor","new-new",910,"no","2 s",NA,NA,"correct",NA
"5973bad6e703200001ad2b86",14,"older",3,"NIGHT","NIGHT",TRUE,9.99045,4,3,"bench","new-new",910,"no","2 s",NA,NA,"correct",NA
"5973bad6e703200001ad2b86",14,"older",4,"RING","FAMILY",FALSE,9.991645,3,4,"ring","new-new",910,"no","2 s",NA,NA,"extra",NA
"5973bad6e703200001ad2b86",15,"older",1,"CASINO","CASINO",TRUE,9.99081,3,1,"helmet","match",911,"no","2 s",NA,NA,"correct",NA
"5973bad6e703200001ad2b86",15,"older",2,"PHOTO","PHOTO",TRUE,9.992425,2,2,"cathedral","mis-match",911,"no","2 s","TOILET",0,"correct",NA
"5973bad6e703200001ad2b86",15,"older",3,"ESTATE","GIRL",FALSE,9.99107,4,3,"pencil","old-new",911,"no","2 s","MONTH",0,"within",3
"5973bad6e703200001ad2b86",15,"older",4,"PHOTO","ESTATE",FALSE,9.991385,1,4,"map","new-new",911,"no","2 s",NA,NA,"within",-1
"5973bad6e703200001ad2b86",16,"older",1,"LIFE","SHOTS",FALSE,9.99077,3,1,"cart","new-new",912,"no","2 s",NA,NA,"within",-1
"5973bad6e703200001ad2b86",16,"older",2,"LEADER","LEADER",TRUE,9.99179,1,2,"sunflower","new-new",912,"no","2 s",NA,NA,"correct",NA
"5973bad6e703200001ad2b86",16,"older",3,"DEATH","DEATH",TRUE,9.99166,2,3,"aeroplane","new-new",912,"no","2 s",NA,NA,"correct",NA
"5973bad6e703200001ad2b86",16,"older",4,"SHOTS","LIFE",FALSE,9.992375,4,4,"pawn","new-new",912,"no","2 s",NA,NA,"within",1
"59bbd2d4178f1b0001828bbb",1,"younger",1,"MONTH","MONTH",TRUE,2.210815,3,1,"calendar","new-new",529,"no","2 s",NA,NA,"correct",NA
"59bbd2d4178f1b0001828bbb",1,"younger",2,"POLICY","POLICY",TRUE,3.163465,4,2,"candle","mis-match",529,"no","2 s","ROOF",0,"correct",NA
"59bbd2d4178f1b0001828bbb",1,"younger",3,"CASION","CASINO",FALSE,2.26341,1,3,"motorbike","match",529,"no","2 s",NA,NA,"extra",NA
"59bbd2d4178f1b0001828bbb",1,"younger",4,"PILLS","PILLS",TRUE,1.97943,2,4,"sunflower","old-new",529,"no","2 s","CLIENT",0,"correct",NA
"59bbd2d4178f1b0001828bbb",2,"younger",1,"SALE","SALE",TRUE,2.48353,2,1,"megaphone","new-new",530,"no","2 s",NA,NA,"correct",NA
"59bbd2d4178f1b0001828bbb",2,"younger",2,"CANDY","CANDY",TRUE,1.979475,1,2,"taxi","new-new",530,"no","2 s",NA,NA,"correct",NA
"59bbd2d4178f1b0001828bbb",2,"younger",3,"FLIGHT","FLIGHT",TRUE,3.180135,4,3,"bolt","new-new",530,"no","2 s",NA,NA,"correct",NA
"59bbd2d4178f1b0001828bbb",2,"younger",4,"DIRTY","DIRT",FALSE,1.779325,3,4,"scissors","new-new",530,"no","2 s",NA,NA,"extra",NA
"59bbd2d4178f1b0001828bbb",3,"younger",1,"FEET","ARTIST",FALSE,7.407775,4,1,"frame","new-new",531,"no","2 s",NA,NA,"within",2
"59bbd2d4178f1b0001828bbb",3,"younger",2,"FEET","FEET",TRUE,4.07787,2,2,"kettle","new-new",531,"no","2 s",NA,NA,"correct",NA
"59bbd2d4178f1b0001828bbb",3,"younger",3,"DEATH","DEATH",TRUE,2.26187,3,3,"gorilla","new-new",531,"no","2 s",NA,NA,"correct",NA
"59bbd2d4178f1b0001828bbb",3,"younger",4,"SHOTS","SHOTS",TRUE,2.096215,1,4,"backpack","new-new",531,"no","2 s",NA,NA,"correct",NA
"59bbd2d4178f1b0001828bbb",4,"younger",1,"HOUSE","HOUSE",TRUE,2.112355,3,1,"microphone","mis-match",532,"no","2 s","SYSTEM",0,"correct",NA
"59bbd2d4178f1b0001828bbb",4,"younger",2,"TOILET","TOILET",TRUE,5.709205,1,2,"mushroom","old-new",532,"no","2 s","CARS",0,"correct",NA
"59bbd2d4178f1b0001828bbb",4,"younger",3,"FLESH","FLESH",TRUE,2.410855,4,3,"shovel","new-new",532,"no","2 s",NA,NA,"correct",NA
"59bbd2d4178f1b0001828bbb",4,"younger",4,"WRITER","WRITER",TRUE,2.04346,2,4,"cathedral","match",532,"no","2 s",NA,NA,"correct",NA
"59bbd2d4178f1b0001828bbb",5,"younger",1,"SYSTEM","SYSTEM",TRUE,3.360375,2,1,"basket","mis-match",533,"no","2 s","POLICY",0,"correct",NA
"59bbd2d4178f1b0001828bbb",5,"younger",2,"ADVICE","ADVICE",TRUE,4.149985,4,2,"razor","old-new",533,"no","2 s","FRIEND",0,"correct",NA
"59bbd2d4178f1b0001828bbb",5,"younger",3,"DOZEN","DOZEN",TRUE,2.22901,1,3,"cart","match",533,"no","2 s",NA,NA,"correct",NA
"59bbd2d4178f1b0001828bbb",5,"younger",4,"FRIENDS","PHOTO",FALSE,5.325365,3,4,"dart","new-new",533,"no","2 s",NA,NA,"extra",NA
"59bbd2d4178f1b0001828bbb",6,"younger",1,"MILLER","MILLER",TRUE,2.47552,2,1,"cap","old-new",534,"no","2 s","GODS",0,"correct",NA
"59bbd2d4178f1b0001828bbb",6,"younger",2,"PENNY","PENNY",TRUE,2.94621,3,2,"monkey","match",534,"no","2 s",NA,NA,"correct",NA
"59bbd2d4178f1b0001828bbb",6,"younger",3,"WEAPON","WEAPON",TRUE,2.213355,1,3,"wheel","mis-match",534,"no","2 s","HOUSE",0,"correct",NA
"59bbd2d4178f1b0001828bbb",6,"younger",4,"BODY","BODY",TRUE,2.013575,4,4,"pencil","new-new",534,"no","2 s",NA,NA,"correct",NA
"59bbd2d4178f1b0001828bbb",7,"younger",1,"PRINCE","PRINCE",TRUE,4.37555,4,1,"perfume","old-new",535,"no","2 s","SPEECH",0,"correct",NA
"59bbd2d4178f1b0001828bbb",7,"younger",2,"LIFE","LIFE",TRUE,1.548285,1,2,"carrot","match",535,"no","2 s",NA,NA,"correct",NA
"59bbd2d4178f1b0001828bbb",7,"younger",3,"RIVER","RIVER",TRUE,2.36174,2,3,"sun","mis-match",535,"no","2 s","STYLE",0,"correct",NA
"59bbd2d4178f1b0001828bbb",7,"younger",4,"SAKE","SAKE",TRUE,2.36277,3,4,"spoon","new-new",535,"no","2 s",NA,NA,"correct",NA
"59bbd2d4178f1b0001828bbb",8,"younger",1,"LETTER","LETTER",TRUE,3.02282,4,1,"coin","new-new",536,"no","2 s",NA,NA,"correct",NA
"59bbd2d4178f1b0001828bbb",8,"younger",2,"VALLEY","VALLEY",TRUE,2.19649,2,2,"bench","new-new",536,"no","2 s",NA,NA,"correct",NA
"59bbd2d4178f1b0001828bbb",8,"younger",3,"LOTS","LOTS",TRUE,1.646125,1,3,"stool","new-new",536,"no","2 s",NA,NA,"correct",NA
"59bbd2d4178f1b0001828bbb",8,"younger",4,"IDEAS","IDEAS",TRUE,3.43076,3,4,"mirror","new-new",536,"no","2 s",NA,NA,"correct",NA
"59bbd2d4178f1b0001828bbb",9,"younger",1,"BATH","BATH",TRUE,1.975435,1,1,"anchor","old-new",537,"no","2 s","YEAR",0,"correct",NA
"59bbd2d4178f1b0001828bbb",9,"younger",2,"SERIES","SERIES",TRUE,2.046915,4,2,"rug","match",537,"no","2 s",NA,NA,"correct",NA
"59bbd2d4178f1b0001828bbb",9,"younger",3,"DEMON","DEMON",TRUE,2.463605,3,3,"pawn","new-new",537,"no","2 s",NA,NA,"correct",NA
"59bbd2d4178f1b0001828bbb",9,"younger",4,"NIGHT","NIGHT",TRUE,2.547355,2,4,"tyre","mis-match",537,"no","2 s","AREA",0,"correct",NA
"59bbd2d4178f1b0001828bbb",10,"younger",1,"MOMENT","APPLE",FALSE,2.827545,4,1,"windmill","mis-match",538,"no","2 s","WEAPON",0,"within",1
"59bbd2d4178f1b0001828bbb",10,"younger",2,"MOMENT","MOMENT",TRUE,4.793915,3,2,"stamp","match",538,"no","2 s",NA,NA,"correct",NA
"59bbd2d4178f1b0001828bbb",10,"younger",3,"DUDE","DUDE",TRUE,2.246655,1,3,"skateboard","old-new",538,"no","2 s","GIRL",0,"correct",NA
"59bbd2d4178f1b0001828bbb",10,"younger",4,"HONEY","HONEY",TRUE,2.114565,2,4,"wheelbarrow","new-new",538,"no","2 s",NA,NA,"correct",NA
"59bbd2d4178f1b0001828bbb",11,"younger",1,"SPIRIT","SPIRIT",TRUE,4.1098,1,1,"ring","new-new",539,"no","2 s",NA,NA,"correct",NA
"59bbd2d4178f1b0001828bbb",11,"younger",2,"MILE","MILE",TRUE,1.57964,2,2,"map","match",539,"no","2 s",NA,NA,"correct",NA
"59bbd2d4178f1b0001828bbb",11,"younger",3,"BELT","BELT",TRUE,3.063645,3,3,"boot","old-new",539,"no","2 s","PLENTY",0,"correct",NA
"59bbd2d4178f1b0001828bbb",11,"younger",4,"APPLE","STYLE",FALSE,7.74128,4,4,"telephone","mis-match",539,"no","2 s","APPLE",1,"previous",NA
"59bbd2d4178f1b0001828bbb",12,"younger",1,"AGENT","AGENT",TRUE,2.055415,1,1,"balcony","new-new",540,"no","2 s",NA,NA,"correct",NA
"59bbd2d4178f1b0001828bbb",12,"younger",2,"BEAUTY","BEAUTY",TRUE,2.446575,4,2,"peg","new-new",540,"no","2 s",NA,NA,"correct",NA
"59bbd2d4178f1b0001828bbb",12,"younger",3,"HOTEL","HOTEL",TRUE,1.9795,2,3,"pepper","new-new",540,"no","2 s",NA,NA,"correct",NA
"59bbd2d4178f1b0001828bbb",12,"younger",4,"CLOCK","CLOCK",TRUE,1.39935,3,4,"helmet","new-new",540,"no","2 s",NA,NA,"correct",NA
"59bbd2d4178f1b0001828bbb",13,"younger",1,"ROOF","ROOF",TRUE,3.0758,3,1,"suitcase","mis-match",541,"no","2 s","NIGHT",0,"correct",NA
"59bbd2d4178f1b0001828bbb",13,"younger",2,"ESTATE","ESTATE",TRUE,1.9475,2,2,"diamond","new-new",541,"no","2 s",NA,NA,"correct",NA
"59bbd2d4178f1b0001828bbb",13,"younger",3,"FAMILY","FAMILY",TRUE,2.00097,4,3,"dice","match",541,"no","2 s",NA,NA,"correct",NA
"59bbd2d4178f1b0001828bbb",13,"younger",4,"LEADER","COPS",FALSE,3.563055,1,4,"hanger","old-new",541,"no","2 s","LEADER",1,"ltm",NA
"59bbd2d4178f1b0001828bbb",14,"younger",1,"JUNGLE","JUNGLE",TRUE,2.593495,4,1,"cherry","new-new",542,"no","2 s",NA,NA,"correct",NA
"59bbd2d4178f1b0001828bbb",14,"younger",2,"FOOD","FOOD",TRUE,1.647105,3,2,"watch","new-new",542,"no","2 s",NA,NA,"correct",NA
"59bbd2d4178f1b0001828bbb",14,"younger",3,"RECORD","RECORD",TRUE,2.331355,1,3,"runner","new-new",542,"no","2 s",NA,NA,"correct",NA
"59bbd2d4178f1b0001828bbb",14,"younger",4,"DANGER","DANGER",TRUE,1.630795,2,4,"tray","new-new",542,"no","2 s",NA,NA,"correct",NA
"59bbd2d4178f1b0001828bbb",15,"younger",1,"YARD","YARD",TRUE,1.878505,2,1,"goose","new-new",543,"no","2 s",NA,NA,"correct",NA
"59bbd2d4178f1b0001828bbb",15,"younger",2,"NATION","GLASS",FALSE,1.765715,4,2,"tractor","new-new",543,"no","2 s",NA,NA,"within",1
"59bbd2d4178f1b0001828bbb",15,"younger",3,"GLASS","NATION",FALSE,2.38118,3,3,"planet","new-new",543,"no","2 s",NA,NA,"within",-1
"59bbd2d4178f1b0001828bbb",15,"younger",4,"BOYS","BOYS",TRUE,2.146615,1,4,"daisy","new-new",543,"no","2 s",NA,NA,"correct",NA
"59bbd2d4178f1b0001828bbb",16,"younger",1,"TEAR","TEAR",TRUE,3.596735,3,1,"pear","new-new",544,"no","2 s",NA,NA,"correct",NA
"59bbd2d4178f1b0001828bbb",16,"younger",2,"WOMEN","WOMEN",TRUE,2.82905,2,2,"salt","match",544,"no","2 s",NA,NA,"correct",NA
"59bbd2d4178f1b0001828bbb",16,"younger",3,"AREA","AREA",TRUE,1.530155,1,3,"aeroplane","mis-match",544,"no","2 s","RIVER",0,"correct",NA
"59bbd2d4178f1b0001828bbb",16,"younger",4,"THING","THING",TRUE,3.11795,4,4,"crown","old-new",544,"no","2 s","KIND",0,"correct",NA
"5a6fa677c2eb6c00017e042e",1,"younger",1,"BOYS","SPIRIT",FALSE,1.848965,3,1,"tractor","new-new",705,"no","2 s",NA,NA,"within",1
"5a6fa677c2eb6c00017e042e",1,"younger",2,"SPIRIT","BOYS",FALSE,2.283,2,2,"monkey","new-new",705,"no","2 s",NA,NA,"within",-1
"5a6fa677c2eb6c00017e042e",1,"younger",3,"CARS","CARS",TRUE,1.44976,1,3,"motorbike","new-new",705,"no","2 s",NA,NA,"correct",NA
"5a6fa677c2eb6c00017e042e",1,"younger",4,"MILES","MILE",FALSE,1.13307,4,4,"dice","new-new",705,"no","2 s",NA,NA,"extra",NA
"5a6fa677c2eb6c00017e042e",2,"younger",1,"CLIENT","CLIENT",TRUE,1.76508,3,1,"carrot","mis-match",706,"no","2 s","ADVICE",0,"correct",NA
"5a6fa677c2eb6c00017e042e",2,"younger",2,"SHOTS","SHOTS",TRUE,1.616375,2,2,"scissors","new-new",706,"no","2 s",NA,NA,"correct",NA
"5a6fa677c2eb6c00017e042e",2,"younger",3,"CLIENT","LIFE",FALSE,3.082895,4,3,"razor","old-new",706,"no","2 s","BEAUTY",0,"within",1
"5a6fa677c2eb6c00017e042e",2,"younger",4,"LEADER","LEADER",TRUE,1.38283,1,4,"helmet","match",706,"no","2 s",NA,NA,"correct",NA
"5a6fa677c2eb6c00017e042e",3,"younger",1,"VALLEY","VALLEY",TRUE,3.815595,3,1,"megaphone","old-new",707,"no","2 s","TOILET",0,"correct",NA
"5a6fa677c2eb6c00017e042e",3,"younger",2,"DOZEN","PHOTO",FALSE,1.86596,2,2,"spoon","mis-match",707,"no","2 s","PLENTY",0,"within",1
"5a6fa677c2eb6c00017e042e",3,"younger",3,"COPS","COPS",TRUE,1.64957,4,3,"pencil","match",707,"no","2 s",NA,NA,"correct",NA
"5a6fa677c2eb6c00017e042e",3,"younger",4,"PHOTO","DOZEN",FALSE,4.582955,1,4,"basket","new-new",707,"no","2 s",NA,NA,"within",-1
"5a6fa677c2eb6c00017e042e",4,"younger",1,"GIRLS","BODY",FALSE,2.88239,4,1,"cherry","old-new",708,"no","2 s","MONTH",0,"extra",NA
"5a6fa677c2eb6c00017e042e",4,"younger",2,"DOZEN","GIRL",FALSE,1.36643,3,2,"tray","match",708,"no","2 s",NA,NA,"previous",NA
"5a6fa677c2eb6c00017e042e",4,"younger",3,"YEAR","WOMEN",FALSE,1.582915,1,3,"wheel","mis-match",708,"no","2 s","YEAR",1,"ltm",NA
"5a6fa677c2eb6c00017e042e",4,"younger",4,"COPS","PRINCE",FALSE,1.749775,2,4,"windmill","new-new",708,"no","2 s",NA,NA,"previous",NA
"5a6fa677c2eb6c00017e042e",5,"younger",1,"BELTS","BELT",FALSE,1.81572,2,1,"wheelbarrow","old-new",709,"no","2 s","HOTEL",0,"extra",NA
"5a6fa677c2eb6c00017e042e",5,"younger",2,"BELTS","TEAR",FALSE,2.61621,4,2,"calendar","new-new",709,"no","2 s",NA,NA,"extra",NA
"5a6fa677c2eb6c00017e042e",5,"younger",3,"ADVICE","ADVICE",TRUE,1.883175,3,3,"stamp","mis-match",709,"no","2 s","CASINO",0,"correct",NA
"5a6fa677c2eb6c00017e042e",5,"younger",4,"TEARS","LOTS",FALSE,0.949875,1,4,"microphone","match",709,"no","2 s",NA,NA,"extra",NA
"5a6fa677c2eb6c00017e042e",6,"younger",1,"SPEECH","SPEECH",TRUE,1.998975,4,1,"pear","new-new",710,"no","2 s",NA,NA,"correct",NA
"5a6fa677c2eb6c00017e042e",6,"younger",2,"ADVICE","CASINO",FALSE,4.29976,3,2,"map","mis-match",710,"no","2 s","PHOTO",0,"previous",NA
"5a6fa677c2eb6c00017e042e",6,"younger",3,"SAKE","SAKE",TRUE,1.43266,1,3,"ring","match",710,"no","2 s",NA,NA,"correct",NA
"5a6fa677c2eb6c00017e042e",6,"younger",4,"APPLE","APPLE",TRUE,2.083105,2,4,"stool","old-new",710,"no","2 s","AGENT",0,"correct",NA
"5a6fa677c2eb6c00017e042e",7,"younger",1,"RECORD","RECORD",TRUE,1.41589,4,1,"sun","new-new",711,"no","2 s",NA,NA,"correct",NA
"5a6fa677c2eb6c00017e042e",7,"younger",2,"ADVICE","DANGER",FALSE,2.53303,3,2,"skateboard","new-new",711,"no","2 s",NA,NA,"ltm",NA
"5a6fa677c2eb6c00017e042e",7,"younger",3,"CHEERY","NATION",FALSE,2.64952,1,3,"pepper","new-new",711,"no","2 s",NA,NA,"extra",NA
"5a6fa677c2eb6c00017e042e",7,"younger",4,"PHOTO","POLICY",FALSE,3.782965,2,4,"frame","new-new",711,"no","2 s",NA,NA,"ltm",NA
"5a6fa677c2eb6c00017e042e",8,"younger",1,"SALE","SALE",TRUE,1.332385,1,1,"kettle","new-new",712,"no","2 s",NA,NA,"correct",NA
"5a6fa677c2eb6c00017e042e",8,"younger",2,"SAKE","ESTATE",FALSE,2.91633,3,2,"dart","new-new",712,"no","2 s",NA,NA,"ltm",NA
"5a6fa677c2eb6c00017e042e",8,"younger",3,"ADVICE","SYSTEM",FALSE,1.56618,2,3,"peg","new-new",712,"no","2 s",NA,NA,"ltm",NA
"5a6fa677c2eb6c00017e042e",8,"younger",4,"SYSTEM","HOUSE",FALSE,2.199665,4,4,"goose","new-new",712,"no","2 s",NA,NA,"within",2
"5a6fa677c2eb6c00017e042e",9,"younger",1,"RIVER","BATH",FALSE,1.949125,3,1,"daisy","mis-match",713,"no","2 s","RIVER",1,"ltm",NA
"5a6fa677c2eb6c00017e042e",9,"younger",2,"PILLS","FEET",FALSE,1.63304,4,2,"crown","old-new",713,"no","2 s","PILLS",1,"ltm",NA
"5a6fa677c2eb6c00017e042e",9,"younger",3,"SALT","DEMON",FALSE,4.133035,2,3,"salt","new-new",713,"no","2 s",NA,NA,"extra",NA
"5a6fa677c2eb6c00017e042e",9,"younger",4,"GLASS","GLASS",TRUE,1.39943,1,4,"rug","match",713,"no","2 s",NA,NA,"correct",NA
"5a6fa677c2eb6c00017e042e",10,"younger",1,"SAKE","DEATH",FALSE,4.29897,3,1,"suitcase","new-new",714,"no","2 s",NA,NA,"ltm",NA
"5a6fa677c2eb6c00017e042e",10,"younger",2,"ROOF","ROOF",TRUE,1.099425,1,2,"planet","new-new",714,"no","2 s",NA,NA,"correct",NA
"5a6fa677c2eb6c00017e042e",10,"younger",3,"SATURN","NIGHT",FALSE,1.83312,4,3,"cap","new-new",714,"no","2 s",NA,NA,"extra",NA
"5a6fa677c2eb6c00017e042e",10,"younger",4,"CLOCK","WRITER",FALSE,3.183075,2,4,"watch","new-new",714,"no","2 s",NA,NA,"ltm",NA
"5a6fa677c2eb6c00017e042e",11,"younger",1,"JUNGLE","JUNGLE",TRUE,1.6659,2,1,"anchor","match",715,"no","2 s",NA,NA,"correct",NA
"5a6fa677c2eb6c00017e042e",11,"younger",2,"THING","FRIEND",FALSE,2.182975,4,2,"taxi","old-new",715,"no","2 s","FAMILY",0,"within",1
"5a6fa677c2eb6c00017e042e",11,"younger",3,"FRIEND","DIRT",FALSE,1.39954,1,3,"mirror","new-new",715,"no","2 s",NA,NA,"within",-3
"5a6fa677c2eb6c00017e042e",11,"younger",4,"DIRT","THING",FALSE,1.29969,3,4,"runner","mis-match",715,"no","2 s","WOMEN",0,"within",2
"5a6fa677c2eb6c00017e042e",12,"younger",1,"STYLE","STYLE",TRUE,3.149135,3,1,"pawn","new-new",716,"no","2 s",NA,NA,"correct",NA
"5a6fa677c2eb6c00017e042e",12,"younger",2,"FRES","SERIES",FALSE,1.19969,2,2,"coin","new-new",716,"no","2 s",NA,NA,"extra",NA
"5a6fa677c2eb6c00017e042e",12,"younger",3,"THINGS","IDEAS",FALSE,3.233015,4,3,"candle","new-new",716,"no","2 s",NA,NA,"extra",NA
"5a6fa677c2eb6c00017e042e",12,"younger",4,"FRESH","FLESH",FALSE,1.132795,1,4,"balcony","new-new",716,"no","2 s",NA,NA,"extra",NA
"5a6fa677c2eb6c00017e042e",13,"younger",1,"MILLER","LETTER",FALSE,2.665785,2,1,"hanger","new-new",717,"no","2 s",NA,NA,"within",-1
"5a6fa677c2eb6c00017e042e",13,"younger",2,"FOOD","MILLER",FALSE,1.76641,3,2,"sunflower","new-new",717,"no","2 s",NA,NA,"within",2
"5a6fa677c2eb6c00017e042e",13,"younger",3,"MILLER","FOOD",FALSE,1.866355,1,3,"cathedral","new-new",717,"no","2 s",NA,NA,"within",-2
"5a6fa677c2eb6c00017e042e",13,"younger",4,"MOMENT","MOMENT",TRUE,1.34981,4,4,"aeroplane","new-new",717,"no","2 s",NA,NA,"correct",NA
"5a6fa677c2eb6c00017e042e",14,"younger",1,"AREA","WEAPON",FALSE,1.99902,3,1,"boot","new-new",718,"no","2 s",NA,NA,"within",2
"5a6fa677c2eb6c00017e042e",14,"younger",2,"STOOL","AREA",FALSE,3.899695,1,2,"bench","old-new",718,"no","2 s","DUDE",0,"extra",NA
"5a6fa677c2eb6c00017e042e",14,"younger",3,"WEAPON","RIVER",FALSE,1.88285,2,3,"backpack","mis-match",718,"no","2 s","CLIENT",0,"within",-1
"5a6fa677c2eb6c00017e042e",14,"younger",4,"MARRY","PENNY",FALSE,1.866485,4,4,"shovel","match",718,"no","2 s",NA,NA,"extra",NA
"5a6fa677c2eb6c00017e042e",15,"younger",1,"YEAR","CANDY",FALSE,2.09916,3,1,"cart","new-new",719,"no","2 s",NA,NA,"within",1
"5a6fa677c2eb6c00017e042e",15,"younger",2,"FLIGHT","YEAR",FALSE,2.04963,2,2,"telephone","mis-match",719,"no","2 s","BATH",0,"within",1
"5a6fa677c2eb6c00017e042e",15,"younger",3,"CANDY","ARTIST",FALSE,1.09974,4,3,"gorilla","old-new",719,"no","2 s","HONEY",0,"within",1
"5a6fa677c2eb6c00017e042e",15,"younger",4,"LOTUS","FLIGHT",FALSE,2.233015,1,4,"tyre","match",719,"no","2 s",NA,NA,"extra",NA
"5a6fa677c2eb6c00017e042e",16,"younger",1,"CLOCK","KIND",FALSE,1.78262,3,1,"perfume","old-new",720,"no","2 s","GODS",0,"within",2
"5a6fa677c2eb6c00017e042e",16,"younger",2,"PLENTY","PLENTY",TRUE,1.96637,2,2,"diamond","mis-match",720,"no","2 s","THING",0,"correct",NA
"5a6fa677c2eb6c00017e042e",16,"younger",3,"KIND","YARD",FALSE,1.182955,4,3,"mushroom","new-new",720,"no","2 s",NA,NA,"within",1
"5a6fa677c2eb6c00017e042e",16,"younger",4,"YARD","CLOCK",FALSE,0.932975,1,4,"bolt","match",720,"no","2 s",NA,NA,"within",-3
"5a74c608527fd00001462f87",1,"older",1,"STYLE","STYLE",TRUE,3.39476,4,1,"suitcase","match",1137,"no","2 s",NA,NA,"correct",NA
"5a74c608527fd00001462f87",1,"older",2,"HONEY","HONEY",TRUE,5.24482,1,2,"kettle","old-new",1137,"no","2 s","HOTEL",0,"correct",NA
"5a74c608527fd00001462f87",1,"older",3,"PLENTY","PLENTY",TRUE,5.34363,2,3,"salt","mis-match",1137,"no","2 s","IDEAS",0,"correct",NA
"5a74c608527fd00001462f87",1,"older",4,"CLOCK","CLOCK",TRUE,3.812585,3,4,"pear","new-new",1137,"no","2 s",NA,NA,"correct",NA
"5a74c608527fd00001462f87",2,"older",1,"BATH","BATH",TRUE,4.094715,3,1,"spoon","match",1138,"no","2 s",NA,NA,"correct",NA
"5a74c608527fd00001462f87",2,"older",2,"?","BELT",FALSE,1.41448,4,2,"wheelbarrow","new-new",1138,"no","2 s",NA,NA,"omission",NA
"5a74c608527fd00001462f87",2,"older",3,"POLICY","POLICY",TRUE,6.7092,1,3,"pepper","mis-match",1138,"no","2 s","SPEECH",0,"correct",NA
"5a74c608527fd00001462f87",2,"older",4,"JUNGLE","JUNGLE",TRUE,3.31258,2,4,"planet","old-new",1138,"no","2 s","RIVER",0,"correct",NA
"5a74c608527fd00001462f87",3,"older",1,"SPEED","MILE",FALSE,8.439725,4,1,"taxi","new-new",1139,"no","2 s",NA,NA,"extra",NA
"5a74c608527fd00001462f87",3,"older",2,"?","SPEECH",FALSE,9.98969,3,2,"carrot","mis-match",1139,"no","2 s","PRINCE",0,"omission",NA
"5a74c608527fd00001462f87",3,"older",3,"DIRT","DIRT",TRUE,6.92546,2,3,"scissors","old-new",1139,"no","2 s","DUDE",0,"correct",NA
"5a74c608527fd00001462f87",3,"older",4,"YARD","YARD",TRUE,3.977215,1,4,"monkey","match",1139,"no","2 s",NA,NA,"correct",NA
"5a74c608527fd00001462f87",4,"older",1,"?","FLESH",FALSE,9.98958,2,1,"windmill","new-new",1140,"no","2 s",NA,NA,"omission",NA
"5a74c608527fd00001462f87",4,"older",2,"?","CARS",FALSE,9.990635,3,2,"tray","new-new",1140,"no","2 s",NA,NA,"omission",NA
"5a74c608527fd00001462f87",4,"older",3,"DOWN","DOZEN",FALSE,4.709945,1,3,"gorilla","new-new",1140,"no","2 s",NA,NA,"extra",NA
"5a74c608527fd00001462f87",4,"older",4,"LOTS","LOTS",TRUE,4.44469,4,4,"backpack","new-new",1140,"no","2 s",NA,NA,"correct",NA
"5a74c608527fd00001462f87",5,"older",1,"SYSTEM","SYSTEM",TRUE,9.32206,1,1,"sun","new-new",1141,"no","2 s",NA,NA,"correct",NA
"5a74c608527fd00001462f87",5,"older",2,"ARTIST","TEAR",FALSE,7.436685,3,2,"hanger","old-new",1141,"no","2 s","YEAR",0,"within",1
"5a74c608527fd00001462f87",5,"older",3,"ARTIST","ARTIST",TRUE,5.97695,2,3,"calendar","mis-match",1141,"no","2 s","POLICY",0,"correct",NA
"5a74c608527fd00001462f87",5,"older",4,"TEAR","LETTER",FALSE,5.159435,4,4,"mirror","match",1141,"no","2 s",NA,NA,"within",1
"5a74c608527fd00001462f87",6,"older",1,"GIRL","GIRL",TRUE,5.622645,4,1,"pencil","old-new",1142,"no","2 s","MONTH",0,"correct",NA
"5a74c608527fd00001462f87",6,"older",2,"PHOTO","PHOTO",TRUE,6.972605,2,2,"cathedral","mis-match",1142,"no","2 s","TOILET",0,"correct",NA
"5a74c608527fd00001462f87",6,"older",3,"ESTATE","ESTATE",TRUE,5.96018,1,3,"map","new-new",1142,"no","2 s",NA,NA,"correct",NA
"5a74c608527fd00001462f87",6,"older",4,"?","CASINO",FALSE,1.463995,3,4,"helmet","match",1142,"no","2 s",NA,NA,"omission",NA
"5a74c608527fd00001462f87",7,"older",1,"?","WEAPON",FALSE,9.99993,3,1,"cherry","new-new",1143,"no","2 s",NA,NA,"omission",NA
"5a74c608527fd00001462f87",7,"older",2,"WRAP","WRITER",FALSE,7.293315,1,2,"cap","mis-match",1143,"no","2 s","ARTIST",0,"extra",NA
"5a74c608527fd00001462f87",7,"older",3,"WOMAN","WOMEN",FALSE,7.87392,4,3,"microphone","old-new",1143,"no","2 s","SPIRIT",0,"extra",NA
"5a74c608527fd00001462f87",7,"older",4,"KIND","KIND",TRUE,4.977525,2,4,"candle","match",1143,"no","2 s",NA,NA,"correct",NA
"5a74c608527fd00001462f87",8,"older",1,"NATION","NATION",TRUE,4.45835,4,1,"stamp","match",1144,"no","2 s",NA,NA,"correct",NA
"5a74c608527fd00001462f87",8,"older",2,"?","PENNY",FALSE,1.067775,2,2,"stool","new-new",1144,"no","2 s",NA,NA,"omission",NA
"5a74c608527fd00001462f87",8,"older",3,"BELL","BODY",FALSE,7.806015,1,3,"daisy","old-new",1144,"no","2 s","GLASS",0,"extra",NA
"5a74c608527fd00001462f87",8,"older",4,"TOILET","TOILET",TRUE,4.078775,3,4,"anchor","mis-match",1144,"no","2 s","PLENTY",0,"correct",NA
"5a74c608527fd00001462f87",9,"older",1,"AREA","AREA",TRUE,3.544815,3,1,"shovel","match",1145,"no","2 s",NA,NA,"correct",NA
"5a74c608527fd00001462f87",9,"older",2,"DEMON","DEMON",TRUE,3.978445,2,2,"telephone","mis-match",1145,"no","2 s","PHOTO",0,"correct",NA
"5a74c608527fd00001462f87",9,"older",3,"?","SAKE",FALSE,0.798165,4,3,"motorbike","old-new",1145,"no","2 s","BEAUTY",0,"omission",NA
"5a74c608527fd00001462f87",9,"older",4,"ADVICE","ADVICE",TRUE,3.812075,1,4,"megaphone","new-new",1145,"no","2 s",NA,NA,"correct",NA
"5a74c608527fd00001462f87",10,"older",1,"LEADER","LEADER",TRUE,6.757045,1,1,"sunflower","new-new",1146,"no","2 s",NA,NA,"correct",NA
"5a74c608527fd00001462f87",10,"older",2,"?","DEATH",FALSE,0.797745,2,2,"aeroplane","new-new",1146,"no","2 s",NA,NA,"omission",NA
"5a74c608527fd00001462f87",10,"older",3,"SHOTS","LIFE",FALSE,5.910475,4,3,"pawn","new-new",1146,"no","2 s",NA,NA,"within",1
"5a74c608527fd00001462f87",10,"older",4,"LIFE","SHOTS",FALSE,3.312985,3,4,"cart","new-new",1146,"no","2 s",NA,NA,"within",-1
"5a74c608527fd00001462f87",11,"older",1,"APPLE","ROOF",FALSE,10.00127,3,1,"rug","match",1147,"no","2 s",NA,NA,"within",2
"5a74c608527fd00001462f87",11,"older",2,"MOMENT","MOMENT",TRUE,7.208845,2,2,"boot","old-new",1147,"no","2 s","BOYS",0,"correct",NA
"5a74c608527fd00001462f87",11,"older",3,"IDEA","IDEAS",FALSE,4.77493,4,3,"coin","mis-match",1147,"no","2 s","WRITER",0,"extra",NA
"5a74c608527fd00001462f87",11,"older",4,"APPLE","APPLE",TRUE,4.34437,1,4,"dice","new-new",1147,"no","2 s",NA,NA,"correct",NA
"5a74c608527fd00001462f87",12,"older",1,"FLIGHT","FLIGHT",TRUE,8.76982,1,1,"wheel","new-new",1148,"no","2 s",NA,NA,"correct",NA
"5a74c608527fd00001462f87",12,"older",2,"CLIENT","CLIENT",TRUE,5.59392,4,2,"watch","new-new",1148,"no","2 s",NA,NA,"correct",NA
"5a74c608527fd00001462f87",12,"older",3,"FEET","FEET",TRUE,3.5619,3,3,"runner","new-new",1148,"no","2 s",NA,NA,"correct",NA
"5a74c608527fd00001462f87",12,"older",4,"?","CANDY",FALSE,3.66226,2,4,"tractor","new-new",1148,"no","2 s",NA,NA,"omission",NA
"5a74c608527fd00001462f87",13,"older",1,"FR","FRIEND",FALSE,9.989075,4,1,"balcony","new-new",1149,"no","2 s",NA,NA,"extra",NA
"5a74c608527fd00001462f87",13,"older",2,"VALE","VALLEY",FALSE,9.439615,2,2,"basket","new-new",1149,"no","2 s",NA,NA,"extra",NA
"5a74c608527fd00001462f87",13,"older",3,"?","DANGER",FALSE,9.98955,1,3,"crown","new-new",1149,"no","2 s",NA,NA,"omission",NA
"5a74c608527fd00001462f87",13,"older",4,"DANGER","GODS",FALSE,3.662405,3,4,"perfume","new-new",1149,"no","2 s",NA,NA,"within",2
"5a74c608527fd00001462f87",14,"older",1,"SALE","SALE",TRUE,7.03939,2,1,"diamond","new-new",1150,"no","2 s",NA,NA,"correct",NA
"5a74c608527fd00001462f87",14,"older",2,"SERIES","MILLER",FALSE,7.293135,4,2,"bolt","new-new",1150,"no","2 s",NA,NA,"within",3
"5a74c608527fd00001462f87",14,"older",3,"?","SERIES",FALSE,0.975765,1,3,"tyre","new-new",1150,"no","2 s",NA,NA,"omission",NA
"5a74c608527fd00001462f87",14,"older",4,"AGENT","AGENT",TRUE,6.476035,3,4,"goose","new-new",1150,"no","2 s",NA,NA,"correct",NA
"5a74c608527fd00001462f87",15,"older",1,"NIGHT","NIGHT",TRUE,6.408365,4,1,"bench","new-new",1151,"no","2 s",NA,NA,"correct",NA
"5a74c608527fd00001462f87",15,"older",2,"FAMILY","FAMILY",TRUE,5.51075,3,2,"ring","new-new",1151,"no","2 s",NA,NA,"correct",NA
"5a74c608527fd00001462f87",15,"older",3,"PILLS","PILLS",TRUE,5.17706,1,3,"skateboard","new-new",1151,"no","2 s",NA,NA,"correct",NA
"5a74c608527fd00001462f87",15,"older",4,"RECORD","RECORD",TRUE,4.65865,2,4,"razor","new-new",1151,"no","2 s",NA,NA,"correct",NA
"5a74c608527fd00001462f87",16,"older",1,"?","HOUSE",FALSE,10.24353,3,1,"mushroom","match",1152,"no","2 s",NA,NA,"omission",NA
"5a74c608527fd00001462f87",16,"older",2,"?","FOOD",FALSE,9.96871,2,2,"dart","new-new",1152,"no","2 s",NA,NA,"omission",NA
"5a74c608527fd00001462f87",16,"older",3,"PRINCE","PRINCE",TRUE,5.16062,4,3,"peg","mis-match",1152,"no","2 s","DEMON",0,"correct",NA
"5a74c608527fd00001462f87",16,"older",4,"THISTLE","THING",FALSE,6.45918,1,4,"frame","old-new",1152,"no","2 s","COPS",0,"extra",NA
"5ac81b1068b65b00018d7881",1,"younger",1,"WEAPON","WEAPON",TRUE,1.815,1,1,"perfume","new-new",721,"no","2 s",NA,NA,"correct",NA
"5ac81b1068b65b00018d7881",1,"younger",2,"SHOTS","SHOTS",TRUE,1.35,3,2,"windmill","old-new",721,"no","2 s","SALE",0,"correct",NA
"5ac81b1068b65b00018d7881",1,"younger",3,"LEADER","LEADER",TRUE,1.6,4,3,"crown","mis-match",721,"no","2 s","JUNGLE",0,"correct",NA
"5ac81b1068b65b00018d7881",1,"younger",4,"LETTER","LETTER",TRUE,1.6,2,4,"stool","match",721,"no","2 s",NA,NA,"correct",NA
"5ac81b1068b65b00018d7881",2,"younger",1,"PLENTY","PENNY",FALSE,3.683,4,1,"tray","new-new",722,"no","2 s",NA,NA,"ltm",NA
"5ac81b1068b65b00018d7881",2,"younger",2,"SPIRIT","SPIRIT",TRUE,1.567,1,2,"sunflower","new-new",722,"no","2 s",NA,NA,"correct",NA
"5ac81b1068b65b00018d7881",2,"younger",3,"MONTH","MONTH",TRUE,1.149,3,3,"backpack","new-new",722,"no","2 s",NA,NA,"correct",NA
"5ac81b1068b65b00018d7881",2,"younger",4,"FEET","FEET",TRUE,1.5,2,4,"cart","new-new",722,"no","2 s",NA,NA,"correct",NA
"5ac81b1068b65b00018d7881",3,"younger",1,"YEAR","YEAR",TRUE,2.299,1,1,"kettle","mis-match",723,"no","2 s","POLICY",0,"correct",NA
"5ac81b1068b65b00018d7881",3,"younger",2,"FLIGHT","FLIGHT",TRUE,1.299,2,2,"shovel","new-new",723,"no","2 s",NA,NA,"correct",NA
"5ac81b1068b65b00018d7881",3,"younger",3,"DANGER","DANGER",TRUE,1.05,3,3,"cherry","old-new",723,"no","2 s","DUDE",0,"correct",NA
"5ac81b1068b65b00018d7881",3,"younger",4,"ARTIST","ARTIST",TRUE,1.217,4,4,"wheel","match",723,"no","2 s",NA,NA,"correct",NA
"5ac81b1068b65b00018d7881",4,"younger",1,"SYSTEM","SYSTEM",TRUE,2.582,3,1,"ring","match",724,"no","2 s",NA,NA,"correct",NA
"5ac81b1068b65b00018d7881",4,"younger",2,"HOUSE","HOUSE",TRUE,1.666,1,2,"mirror","new-new",724,"no","2 s",NA,NA,"correct",NA
"5ac81b1068b65b00018d7881",4,"younger",3,"LOTS","LOTS",TRUE,1.95,4,3,"cathedral","mis-match",724,"no","2 s","RIVER",0,"correct",NA
"5ac81b1068b65b00018d7881",4,"younger",4,"PHOTO","PHOTO",TRUE,2.35,2,4,"candle","old-new",724,"no","2 s","MILE",0,"correct",NA
"5ac81b1068b65b00018d7881",5,"younger",1,"TEAR","TEAR",TRUE,2.166,2,1,"calendar","new-new",725,"no","2 s",NA,NA,"correct",NA
"5ac81b1068b65b00018d7881",5,"younger",2,"SPEECH","SPEECH",TRUE,1.999,4,2,"spoon","new-new",725,"no","2 s",NA,NA,"correct",NA
"5ac81b1068b65b00018d7881",5,"younger",3,"FEAR","BATH",FALSE,1.85,1,3,"taxi","new-new",725,"no","2 s",NA,NA,"extra",NA
"5ac81b1068b65b00018d7881",5,"younger",4,"SISTER","FRIEND",FALSE,2.849,3,4,"planet","new-new",725,"no","2 s",NA,NA,"extra",NA
"5ac81b1068b65b00018d7881",6,"younger",1,"CASINO","CASINO",TRUE,2.3,4,1,"pepper","new-new",726,"no","2 s",NA,NA,"correct",NA
"5ac81b1068b65b00018d7881",6,"younger",2,"TIME","WOMEN",FALSE,1.433,2,2,"stamp","new-new",726,"no","2 s",NA,NA,"extra",NA
"5ac81b1068b65b00018d7881",6,"younger",3,"YARD","YARD",TRUE,1.116,3,3,"wheelbarrow","new-new",726,"no","2 s",NA,NA,"correct",NA
"5ac81b1068b65b00018d7881",6,"younger",4,"TIME","AGENT",FALSE,1.649,1,4,"watch","new-new",726,"no","2 s",NA,NA,"extra",NA
"5ac81b1068b65b00018d7881",7,"younger",1,"BELT","BELT",TRUE,1.733,4,1,"peg","new-new",727,"no","2 s",NA,NA,"correct",NA
"5ac81b1068b65b00018d7881",7,"younger",2,"PILLS","PILLS",TRUE,2.3,3,2,"map","old-new",727,"no","2 s","APPLE",0,"correct",NA
"5ac81b1068b65b00018d7881",7,"younger",3,"PLENTY","PLENTY",TRUE,2.016,1,3,"daisy","match",727,"no","2 s",NA,NA,"correct",NA
"5ac81b1068b65b00018d7881",7,"younger",4,"POLICY","POLICY",TRUE,2.315,2,4,"boot","mis-match",727,"no","2 s","LEADER",0,"correct",NA
"5ac81b1068b65b00018d7881",8,"younger",1,"CLOCK","CLOCK",TRUE,1.199,4,1,"pencil","mis-match",728,"no","2 s","YEAR",0,"correct",NA
"5ac81b1068b65b00018d7881",8,"younger",2,"NIGHT","NIGHT",TRUE,2.216,1,2,"goose","new-new",728,"no","2 s",NA,NA,"correct",NA
"5ac81b1068b65b00018d7881",8,"younger",3,"TOILET","TOILET",TRUE,1.733,3,3,"diamond","match",728,"no","2 s",NA,NA,"correct",NA
"5ac81b1068b65b00018d7881",8,"younger",4,"CARD","CARS",FALSE,3.617,2,4,"microphone","old-new",728,"no","2 s","THING",0,"extra",NA
"5ac81b1068b65b00018d7881",9,"younger",1,"GIRL","GIRL",TRUE,1.833,3,1,"basket","match",729,"no","2 s",NA,NA,"correct",NA
"5ac81b1068b65b00018d7881",9,"younger",2,"DEMON","DEMON",TRUE,1.416,2,2,"bolt","new-new",729,"no","2 s",NA,NA,"correct",NA
"5ac81b1068b65b00018d7881",9,"younger",3,"CLIENT","CLIENT",TRUE,1.616,1,3,"telephone","old-new",729,"no","2 s","MILLER",0,"correct",NA
"5ac81b1068b65b00018d7881",9,"younger",4,"RIVER","RIVER",TRUE,0.767,4,4,"motorbike","mis-match",729,"no","2 s","MOMENT",0,"correct",NA
"5ac81b1068b65b00018d7881",10,"younger",1,"GLASS","GLASS",TRUE,1.549,1,1,"dart","old-new",730,"no","2 s","ADVICE",0,"correct",NA
"5ac81b1068b65b00018d7881",10,"younger",2,"SERIES","SERIES",TRUE,1.483,2,2,"coin","match",730,"no","2 s",NA,NA,"correct",NA
"5ac81b1068b65b00018d7881",10,"younger",3,"ESTATE","ESTATE",TRUE,1.333,3,3,"runner","mis-match",730,"no","2 s","CLOCK",0,"correct",NA
"5ac81b1068b65b00018d7881",10,"younger",4,"IDEAS","IDEAS",TRUE,0.949,4,4,"sun","new-new",730,"no","2 s",NA,NA,"correct",NA
"5ac81b1068b65b00018d7881",11,"younger",1,"HONEY","HONEY",TRUE,1.748,4,1,"suitcase","match",731,"no","2 s",NA,NA,"correct",NA
"5ac81b1068b65b00018d7881",11,"younger",2,"JUNGLE","JUNGLE",TRUE,2.65,1,2,"salt","mis-match",731,"no","2 s","LOTS",0,"correct",NA
"5ac81b1068b65b00018d7881",11,"younger",3,"LIFE","LIFE",TRUE,2.617,2,3,"carrot","new-new",731,"no","2 s",NA,NA,"correct",NA
"5ac81b1068b65b00018d7881",11,"younger",4,"BOD","BODY",FALSE,2.449,3,4,"gorilla","old-new",731,"no","2 s","DEATH",0,"extra",NA
"5ac81b1068b65b00018d7881",12,"younger",1,"FAMILY","FAMILY",TRUE,1.749,3,1,"scissors","match",732,"no","2 s",NA,NA,"correct",NA
"5ac81b1068b65b00018d7881",12,"younger",2,"MOMENT","MOMENT",TRUE,2.366,4,2,"mushroom","mis-match",732,"no","2 s","WRITER",0,"correct",NA
"5ac81b1068b65b00018d7881",12,"younger",3,"FLESH","FLESH",TRUE,1.533,2,3,"pear","new-new",732,"no","2 s",NA,NA,"correct",NA
"5ac81b1068b65b00018d7881",12,"younger",4,"KIND","KIND",TRUE,3.667,1,4,"monkey","old-new",732,"no","2 s","VALLEY",0,"correct",NA
"5ac81b1068b65b00018d7881",13,"younger",1,"HOTEL","HOTEL",TRUE,1.867,3,1,"skateboard","new-new",733,"no","2 s",NA,NA,"correct",NA
"5ac81b1068b65b00018d7881",13,"younger",2,"STYLE","STYLE",TRUE,1.564,1,2,"aeroplane","new-new",733,"no","2 s",NA,NA,"correct",NA
"5ac81b1068b65b00018d7881",13,"younger",3,"FOOD","FOOD",TRUE,1.366,2,3,"rug","new-new",733,"no","2 s",NA,NA,"correct",NA
"5ac81b1068b65b00018d7881",13,"younger",4,"DOZEN","DOZEN",TRUE,1.849,4,4,"balcony","new-new",733,"no","2 s",NA,NA,"correct",NA
"5ac81b1068b65b00018d7881",14,"younger",1,"WRITER","WRITER",TRUE,1.666,4,1,"dice","mis-match",734,"no","2 s","ESTATE",0,"correct",NA
"5ac81b1068b65b00018d7881",14,"younger",2,"CANDY","CANDY",TRUE,1.75,1,2,"pawn","match",734,"no","2 s",NA,NA,"correct",NA
"5ac81b1068b65b00018d7881",14,"younger",3,"NATION","NATION",TRUE,1.566,3,3,"tyre","new-new",734,"no","2 s",NA,NA,"correct",NA
"5ac81b1068b65b00018d7881",14,"younger",4,"AREA","AREA",TRUE,1.267,2,4,"helmet","old-new",734,"no","2 s","BEAUTY",0,"correct",NA
"5ac81b1068b65b00018d7881",15,"younger",1,"SAFE","SAKE",FALSE,3.145,2,1,"anchor","new-new",735,"no","2 s",NA,NA,"extra",NA
"5ac81b1068b65b00018d7881",15,"younger",2,"RECORD","RECORD",TRUE,2.049,1,2,"frame","new-new",735,"no","2 s",NA,NA,"correct",NA
"5ac81b1068b65b00018d7881",15,"younger",3,"PRINCE","DIRT",FALSE,2.116,4,3,"hanger","new-new",735,"no","2 s",NA,NA,"within",1
"5ac81b1068b65b00018d7881",15,"younger",4,"PRINCE","PRINCE",TRUE,1.183,3,4,"cap","new-new",735,"no","2 s",NA,NA,"correct",NA
"5ac81b1068b65b00018d7881",16,"younger",1,"BOYS","BOYS",TRUE,1.898,3,1,"razor","new-new",736,"no","2 s",NA,NA,"correct",NA
"5ac81b1068b65b00018d7881",16,"younger",2,"GODS","GODS",TRUE,1.416,4,2,"bench","new-new",736,"no","2 s",NA,NA,"correct",NA
"5ac81b1068b65b00018d7881",16,"younger",3,"ROOF","ROOF",TRUE,1.866,1,3,"megaphone","new-new",736,"no","2 s",NA,NA,"correct",NA
"5ac81b1068b65b00018d7881",16,"younger",4,"COPS","COPS",TRUE,2.184,2,4,"tractor","new-new",736,"no","2 s",NA,NA,"correct",NA
"5b0afb7bbd9c310001562584",1,"older",1,"PRINCE","PRINCE",TRUE,4.74399,1,1,"peg","new-new",849,"no","2 s",NA,NA,"correct",NA
"5b0afb7bbd9c310001562584",1,"older",2,"YEAR","YEAR",TRUE,3.693925,4,2,"coin","new-new",849,"no","2 s",NA,NA,"correct",NA
"5b0afb7bbd9c310001562584",1,"older",3,"FEET","FEET",TRUE,3.064805,3,3,"crown","new-new",849,"no","2 s",NA,NA,"correct",NA
"5b0afb7bbd9c310001562584",1,"older",4,"GIRL","GIRL",TRUE,3.13031,2,4,"map","new-new",849,"no","2 s",NA,NA,"correct",NA
"5b0afb7bbd9c310001562584",2,"older",1,"GIRL","FOOD",FALSE,7.01238,1,1,"gorilla","mis-match",850,"no","2 s","CANDY",0,"previous",NA
"5b0afb7bbd9c310001562584",2,"older",2,"RIVER","RIVER",TRUE,2.96396,3,2,"rug","match",850,"no","2 s",NA,NA,"correct",NA
"5b0afb7bbd9c310001562584",2,"older",3,"PENNY","BEAUTY",FALSE,5.97995,2,3,"goose","old-new",850,"no","2 s","PENNY",1,"ltm",NA
"5b0afb7bbd9c310001562584",2,"older",4,"COVER","MOMENT",FALSE,6.029855,4,4,"stamp","new-new",850,"no","2 s",NA,NA,"extra",NA
"5b0afb7bbd9c310001562584",3,"older",1,"BELT","BELT",TRUE,2.69512,4,1,"backpack","old-new",851,"no","2 s","PLENTY",0,"correct",NA
"5b0afb7bbd9c310001562584",3,"older",2,"MONTH","MONTH",TRUE,3.081675,1,2,"cherry","new-new",851,"no","2 s",NA,NA,"correct",NA
"5b0afb7bbd9c310001562584",3,"older",3,"SLAY","SAKE",FALSE,5.480255,2,3,"cathedral","mis-match",851,"no","2 s","FAMILY",0,"extra",NA
"5b0afb7bbd9c310001562584",3,"older",4,"WRITER","WRITER",TRUE,2.146915,3,4,"carrot","match",851,"no","2 s",NA,NA,"correct",NA
"5b0afb7bbd9c310001562584",4,"older",1,"NIGHT","NIGHT",TRUE,4.241045,3,1,"cap","match",852,"no","2 s",NA,NA,"correct",NA
"5b0afb7bbd9c310001562584",4,"older",2,"SLAY","NATION",FALSE,5.01582,4,2,"wheelbarrow","mis-match",852,"no","2 s","LEADER",0,"extra",NA
"5b0afb7bbd9c310001562584",4,"older",3,"HONEY","HONEY",TRUE,3.179595,1,3,"taxi","new-new",852,"no","2 s",NA,NA,"correct",NA
