"consent_key.keys","consent_key.rt","recalled","recalled_rt","recall_acc","example_recall.thisRepN","example_recall.thisTrialN","example_recall.thisN","example_recall.thisIndex","example_recall.ran","file","word","participant","date","expName","psychopyVersion","OS","frameRate","STUDY_ID","SESSION_ID","list","prac_learn_study_loop.thisRepN","prac_learn_study_loop.thisTrialN","prac_learn_study_loop.thisN","prac_learn_study_loop.thisIndex","prac_learn_study_loop.ran","image","prac_learn_test_loop.thisRepN","prac_learn_test_loop.thisTrialN","prac_learn_test_loop.thisN","prac_learn_test_loop.thisIndex","prac_learn_test_loop.ran","learn_study_loop.thisRepN","learn_study_loop.thisTrialN","learn_study_loop.thisN","learn_study_loop.thisIndex","learn_study_loop.ran","list_no","block_no","learn_test_loop.thisRepN","learn_test_loop.thisTrialN","learn_test_loop.thisN","learn_test_loop.thisIndex","learn_test_loop.ran","learn_blocks.thisRepN","learn_blocks.thisTrialN","learn_blocks.thisN","learn_blocks.thisIndex","learn_blocks.ran","block_csv","key_resp_13.keys","key_resp_13.rt","learn_blocks_loop.thisRepN","learn_blocks_loop.thisTrialN","learn_blocks_loop.thisN","learn_blocks_loop.thisIndex","learn_blocks_loop.ran","final_learn_test.thisRepN","final_learn_test.thisTrialN","final_learn_test.thisN","final_learn_test.thisIndex","final_learn_test.ran","s_im1","s_im2","s_im3","s_im4","s_im5","s_im6","s_im7","s_im8","s_im1pos","s_im2pos","s_im3pos","s_im4pos","s_im5pos","s_im6pos","s_im7pos","s_im8pos","s_tarright","search_resp.keys","search_resp.rt","search_loop.thisRepN","search_loop.thisTrialN","search_loop.thisN","search_loop.thisIndex","search_loop.ran","prac_wm_test_loop.thisRepN","prac_wm_test_loop.thisTrialN","prac_wm_test_loop.thisN","prac_wm_test_loop.thisIndex","prac_wm_test_loop.ran","wm_recalled1","wm_recall_rt1","wm_probed1","wm_recall_acc1","wm_recalled2","wm_recall_rt2","wm_probed2","wm_recall_acc2","wm_recalled3","wm_recall_rt3","wm_probed3","wm_recall_acc3","wm_recalled4","wm_recall_rt4","wm_probed4","wm_recall_acc4","prac_wm_trial_loop.thisRepN","prac_wm_trial_loop.thisTrialN","prac_wm_trial_loop.thisN","prac_wm_trial_loop.thisIndex","prac_wm_trial_loop.ran","word1","image1","file1","item_type1","word2","image2","file2","item_type2","word4","image4","file4","item_type4","word3","image3","file3","item_type3","wm_test_loop.thisRepN","wm_test_loop.thisTrialN","wm_test_loop.thisN","wm_test_loop.thisIndex","wm_test_loop.ran","wm_trial_loop.thisRepN","wm_trial_loop.thisTrialN","wm_trial_loop.thisN","wm_trial_loop.thisIndex","wm_trial_loop.ran","group","section","wm_trial","s_respright","accuracy"
"",NA,"",NA,NA,NA,NA,NA,NA,NA,"","","5ee7a8ab87d5560568bc2dca","2020-08-13_12h30.56.320","proactive2","2020.1.2","MacIntel",60,"5f341be081b9052c55068110","5f35244c1b69bd47b65e5938",4,NA,NA,NA,NA,NA,"",NA,NA,NA,NA,NA,NA,NA,NA,NA,NA,4,NA,NA,NA,NA,NA,NA,NA,NA,NA,NA,NA,"","",NA,NA,NA,NA,NA,NA,NA,NA,NA,NA,NA,"stimuli/search/t.png","stimuli/search/l.png","stimuli/search/t.png","stimuli/search/b.png","stimuli/search/b.png","stimuli/search/t.png","stimuli/search/b.png","stimuli/search/t.png","[-0.23833333333333334,0.35519025670363574]","[-0.17833333333333334,0.37155626842089534]","[0.17833333333333334,0.37241586328617227]","[0.23833333333333334,0.3441099316364552]","[0.17833333333333334,-0.40356154363833985]","[0.23833333333333334,-0.3562509299399751]","[-0.23833333333333334,-0.3386224249571818]","[-0.17833333333333334,-0.363817186511764]",0,0,1.508475,4,0,4,0,1,NA,NA,NA,NA,NA,"",NA,NA,NA,"",NA,NA,NA,"",NA,NA,NA,"",NA,NA,NA,NA,NA,NA,NA,NA,"","","","","","","","","","","","","","","","",NA,NA,NA,NA,NA,NA,NA,NA,NA,NA,"younger","search_alone",NA,1,0
"",NA,"",NA,NA,NA,NA,NA,NA,NA,"","","5ee7a8ab87d5560568bc2dca","2020-08-13_12h30.56.320","proactive2","2020.1.2","MacIntel",60,"5f341be081b9052c55068110","5f35244c1b69bd47b65e5938",4,NA,NA,NA,NA,NA,"",NA,NA,NA,NA,NA,NA,NA,NA,NA,NA,4,NA,NA,NA,NA,NA,NA,NA,NA,NA,NA,NA,"","",NA,NA,NA,NA,NA,NA,NA,NA,NA,NA,NA,"stimuli/search/t.png","stimuli/search/b.png","stimuli/search/t.png","stimuli/search/b.png","stimuli/search/b.png","stimuli/search/t.png","stimuli/search/b.png","stimuli/search/r.png","[-0.23833333333333334,0.35862304814624396]","[-0.17833333333333334,0.3420738179713717]","[0.17833333333333334,0.3333163406308454]","[0.23833333333333334,0.3682081246529681]","[0.17833333333333334,-0.32892350504590895]","[0.23833333333333334,-0.40396142172866034]","[-0.23833333333333334,-0.3736106445659684]","[-0.17833333333333334,-0.396403515281471]",1,0,1.506905,5,0,5,0,1,NA,NA,NA,NA,NA,"",NA,NA,NA,"",NA,NA,NA,"",NA,NA,NA,"",NA,NA,NA,NA,NA,NA,NA,NA,"","","","","","","","","","","","","","","","",NA,NA,NA,NA,NA,NA,NA,NA,NA,NA,"younger","search_alone",NA,1,1
"",NA,"",NA,NA,NA,NA,NA,NA,NA,"","","5ee7a8ab87d5560568bc2dca","2020-08-13_12h30.56.320","proactive2","2020.1.2","MacIntel",60,"5f341be081b9052c55068110","5f35244c1b69bd47b65e5938",4,NA,NA,NA,NA,NA,"",NA,NA,NA,NA,NA,NA,NA,NA,NA,NA,4,NA,NA,NA,NA,NA,NA,NA,NA,NA,NA,NA,"","",NA,NA,NA,NA,NA,NA,NA,NA,NA,NA,NA,"stimuli/search/t.png","stimuli/search/b.png","stimuli/search/t.png","stimuli/search/b.png","stimuli/search/b.png","stimuli/search/l.png","stimuli/search/b.png","stimuli/search/t.png","[-0.23833333333333334,0.3895874961395441]","[-0.17833333333333334,0.4086992525710407]","[0.17833333333333334,0.37194588037592624]","[0.23833333333333334,0.3277479724740424]","[0.17833333333333334,-0.36929150681005357]","[0.23833333333333334,-0.3909498269090857]","[-0.23833333333333334,-0.34399358156793897]","[-0.17833333333333334,-0.36770189242231727]",0,1,1.792695,6,0,6,0,1,NA,NA,NA,NA,NA,"",NA,NA,NA,"",NA,NA,NA,"",NA,NA,NA,"",NA,NA,NA,NA,NA,NA,NA,NA,"","","","","","","","","","","","","","","","",NA,NA,NA,NA,NA,NA,NA,NA,NA,NA,"younger","search_alone",NA,0,1
"",NA,"",NA,NA,NA,NA,NA,NA,NA,"","","5ee7a8ab87d5560568bc2dca","2020-08-13_12h30.56.320","proactive2","2020.1.2","MacIntel",60,"5f341be081b9052c55068110","5f35244c1b69bd47b65e5938",4,NA,NA,NA,NA,NA,"",NA,NA,NA,NA,NA,NA,NA,NA,NA,NA,4,NA,NA,NA,NA,NA,NA,NA,NA,NA,NA,NA,"","",NA,NA,NA,NA,NA,NA,NA,NA,NA,NA,NA,"stimuli/search/t.png","stimuli/search/b.png","stimuli/search/b.png","stimuli/search/t.png","stimuli/search/b.png","stimuli/search/r.png","stimuli/search/t.png","stimuli/search/b.png","[-0.23833333333333334,0.3508986504292913]","[-0.17833333333333334,0.3603169037372327]","[0.17833333333333334,0.4104791944726021]","[0.23833333333333334,0.3686539735802664]","[0.17833333333333334,-0.33675012679875715]","[0.23833333333333334,-0.3951623276961476]","[-0.23833333333333334,-0.3756295487912665]","[-0.17833333333333334,-0.3953319759115811]",1,0,0.825445,7,0,7,0,1,NA,NA,NA,NA,NA,"",NA,NA,NA,"",NA,NA,NA,"",NA,NA,NA,"",NA,NA,NA,NA,NA,NA,NA,NA,"","","","","","","","","","","","","","","","",NA,NA,NA,NA,NA,NA,NA,NA,NA,NA,"younger","search_alone",NA,1,1
"",NA,"",NA,NA,NA,NA,NA,NA,NA,"","","5ee7a8ab87d5560568bc2dca","2020-08-13_12h30.56.320","proactive2","2020.1.2","MacIntel",60,"5f341be081b9052c55068110","5f35244c1b69bd47b65e5938",4,NA,NA,NA,NA,NA,"",NA,NA,NA,NA,NA,NA,NA,NA,NA,NA,4,NA,NA,NA,NA,NA,NA,NA,NA,NA,NA,NA,"","",NA,NA,NA,NA,NA,NA,NA,NA,NA,NA,NA,"stimuli/search/r.png","stimuli/search/b.png","stimuli/search/b.png","stimuli/search/t.png","stimuli/search/b.png","stimuli/search/t.png","stimuli/search/t.png","stimuli/search/b.png","[-0.23833333333333334,0.4014089625926214]","[-0.17833333333333334,0.3451926568201814]","[0.17833333333333334,0.41012215715728145]","[0.23833333333333334,0.3608141137003914]","[0.17833333333333334,-0.3304065455765334]","[0.23833333333333334,-0.40865016291233225]","[-0.23833333333333334,-0.41490734094276327]","[-0.17833333333333334,-0.35915020344648524]",1,0,1.24774,8,0,8,0,1,NA,NA,NA,NA,NA,"",NA,NA,NA,"",NA,NA,NA,"",NA,NA,NA,"",NA,NA,NA,NA,NA,NA,NA,NA,"","","","","","","","","","","","","","","","",NA,NA,NA,NA,NA,NA,NA,NA,NA,NA,"younger","search_alone",NA,1,1
"",NA,"",NA,NA,NA,NA,NA,NA,NA,"","","5ee7a8ab87d5560568bc2dca","2020-08-13_12h30.56.320","proactive2","2020.1.2","MacIntel",60,"5f341be081b9052c55068110","5f35244c1b69bd47b65e5938",4,NA,NA,NA,NA,NA,"",NA,NA,NA,NA,NA,NA,NA,NA,NA,NA,4,NA,NA,NA,NA,NA,NA,NA,NA,NA,NA,NA,"","",NA,NA,NA,NA,NA,NA,NA,NA,NA,NA,NA,"stimuli/search/b.png","stimuli/search/t.png","stimuli/search/b.png","stimuli/search/t.png","stimuli/search/t.png","stimuli/search/b.png","stimuli/search/b.png","stimuli/search/r.png","[-0.23833333333333334,0.33626991373754317]","[-0.17833333333333334,0.3355318994691034]","[0.17833333333333334,0.38885978739529]","[0.23833333333333334,0.39013013866118784]","[0.17833333333333334,-0.3566716513338015]","[0.23833333333333334,-0.38361178441829474]","[-0.23833333333333334,-0.413382645808852]","[-0.17833333333333334,-0.3779056114071058]",1,0,1.064415,9,0,9,0,1,NA,NA,NA,NA,NA,"",NA,NA,NA,"",NA,NA,NA,"",NA,NA,NA,"",NA,NA,NA,NA,NA,NA,NA,NA,"","","","","","","","","","","","","","","","",NA,NA,NA,NA,NA,NA,NA,NA,NA,NA,"younger","search_alone",NA,1,1
"",NA,"",NA,NA,NA,NA,NA,NA,NA,"","","5ee7a8ab87d5560568bc2dca","2020-08-13_12h30.56.320","proactive2","2020.1.2","MacIntel",60,"5f341be081b9052c55068110","5f35244c1b69bd47b65e5938",4,NA,NA,NA,NA,NA,"",NA,NA,NA,NA,NA,NA,NA,NA,NA,NA,4,NA,NA,NA,NA,NA,NA,NA,NA,NA,NA,NA,"","",NA,NA,NA,NA,NA,NA,NA,NA,NA,NA,NA,"stimuli/search/t.png","stimuli/search/b.png","stimuli/search/t.png","stimuli/search/l.png","stimuli/search/t.png","stimuli/search/b.png","stimuli/search/b.png","stimuli/search/t.png","[-0.23833333333333334,0.3700926150724083]","[-0.17833333333333334,0.34488312336860244]","[0.17833333333333334,0.366065995957207]","[0.23833333333333334,0.3381165412082834]","[0.17833333333333334,-0.38119593329003476]","[0.23833333333333334,-0.3488862686549046]","[-0.23833333333333334,-0.32531300566455973]","[-0.17833333333333334,-0.4032016923692758]",0,1,1.04936,10,0,10,0,1,NA,NA,NA,NA,NA,"",NA,NA,NA,"",NA,NA,NA,"",NA,NA,NA,"",NA,NA,NA,NA,NA,NA,NA,NA,"","","","","","","","","","","","","","","","",NA,NA,NA,NA,NA,NA,NA,NA,NA,NA,"younger","search_alone",NA,0,1
"",NA,"",NA,NA,NA,NA,NA,NA,NA,"","","5ee7a8ab87d5560568bc2dca","2020-08-13_12h30.56.320","proactive2","2020.1.2","MacIntel",60,"5f341be081b9052c55068110","5f35244c1b69bd47b65e5938",4,NA,NA,NA,NA,NA,"",NA,NA,NA,NA,NA,NA,NA,NA,NA,NA,4,NA,NA,NA,NA,NA,NA,NA,NA,NA,NA,NA,"","",NA,NA,NA,NA,NA,NA,NA,NA,NA,NA,NA,"stimuli/search/b.png","stimuli/search/t.png","stimuli/search/b.png","stimuli/search/t.png","stimuli/search/t.png","stimuli/search/l.png","stimuli/search/b.png","stimuli/search/t.png","[-0.23833333333333334,0.38194772207054273]","[-0.17833333333333334,0.41366224119018097]","[0.17833333333333334,0.39415679955252864]","[0.23833333333333334,0.3373138212691535]","[0.17833333333333334,-0.40900450709026637]","[0.23833333333333334,-0.41378602386614644]","[-0.23833333333333334,-0.3992096602208484]","[-0.17833333333333334,-0.3876440204171463]",0,1,1.66398,11,0,11,0,1,NA,NA,NA,NA,NA,"",NA,NA,NA,"",NA,NA,NA,"",NA,NA,NA,"",NA,NA,NA,NA,NA,NA,NA,NA,"","","","","","","","","","","","","","","","",NA,NA,NA,NA,NA,NA,NA,NA,NA,NA,"younger","search_alone",NA,0,1
"",NA,"",NA,NA,NA,NA,NA,NA,NA,"","","5ee7a8ab87d5560568bc2dca","2020-08-13_12h30.56.320","proactive2","2020.1.2","MacIntel",60,"5f341be081b9052c55068110","5f35244c1b69bd47b65e5938",4,NA,NA,NA,NA,NA,"",NA,NA,NA,NA,NA,NA,NA,NA,NA,NA,4,NA,NA,NA,NA,NA,NA,NA,NA,NA,NA,NA,"","",NA,NA,NA,NA,NA,NA,NA,NA,NA,NA,NA,"stimuli/search/b.png","stimuli/search/t.png","stimuli/search/b.png","stimuli/search/t.png","stimuli/search/t.png","stimuli/search/b.png","stimuli/search/t.png","stimuli/search/l.png","[-0.23833333333333334,0.40926419272554665]","[-0.17833333333333334,0.35949605303045207]","[0.17833333333333334,0.3857682147796321]","[0.23833333333333334,0.3797327311426688]","[0.17833333333333334,-0.33897402940362603]","[0.23833333333333334,-0.39071183238403095]","[-0.23833333333333334,-0.4087626891930875]","[-0.17833333333333334,-0.3507244395530436]",0,1,1.700765,12,0,12,0,1,NA,NA,NA,NA,NA,"",NA,NA,NA,"",NA,NA,NA,"",NA,NA,NA,"",NA,NA,NA,NA,NA,NA,NA,NA,"","","","","","","","","","","","","","","","",NA,NA,NA,NA,NA,NA,NA,NA,NA,NA,"younger","search_alone",NA,0,1
"",NA,"",NA,NA,NA,NA,NA,NA,NA,"","","5ee7a8ab87d5560568bc2dca","2020-08-13_12h30.56.320","proactive2","2020.1.2","MacIntel",60,"5f341be081b9052c55068110","5f35244c1b69bd47b65e5938",4,NA,NA,NA,NA,NA,"",NA,NA,NA,NA,NA,NA,NA,NA,NA,NA,4,NA,NA,NA,NA,NA,NA,NA,NA,NA,NA,NA,"","",NA,NA,NA,NA,NA,NA,NA,NA,NA,NA,NA,"stimuli/search/t.png","stimuli/search/b.png","stimuli/search/t.png","stimuli/search/b.png","stimuli/search/b.png","stimuli/search/r.png","stimuli/search/b.png","stimuli/search/t.png","[-0.23833333333333334,0.36308182613543594]","[-0.17833333333333334,0.33974081228615194]","[0.17833333333333334,0.41347448733419656]","[0.23833333333333334,0.3621858663012718]","[0.17833333333333334,-0.3777119035869217]","[0.23833333333333334,-0.35866432877524734]","[-0.23833333333333334,-0.3471691864970745]","[-0.17833333333333334,-0.40692574674929016]",1,0,1.510215,13,0,13,0,1,NA,NA,NA,NA,NA,"",NA,NA,NA,"",NA,NA,NA,"",NA,NA,NA,"",NA,NA,NA,NA,NA,NA,NA,NA,"","","","","","","","","","","","","","","","",NA,NA,NA,NA,NA,NA,NA,NA,NA,NA,"younger","search_alone",NA,1,1
"",NA,"",NA,NA,NA,NA,NA,NA,NA,"","","5ee7a8ab87d5560568bc2dca","2020-08-13_12h30.56.320","proactive2","2020.1.2","MacIntel",60,"5f341be081b9052c55068110","5f35244c1b69bd47b65e5938",4,NA,NA,NA,NA,NA,"",NA,NA,NA,NA,NA,NA,NA,NA,NA,NA,4,NA,NA,NA,NA,NA,NA,NA,NA,NA,NA,NA,"","",NA,NA,NA,NA,NA,NA,NA,NA,NA,NA,NA,"stimuli/search/t.png","stimuli/search/b.png","stimuli/search/t.png","stimuli/search/b.png","stimuli/search/r.png","stimuli/search/t.png","stimuli/search/b.png","stimuli/search/t.png","[-0.23833333333333334,0.3365170241015841]","[-0.17833333333333334,0.40672824575814764]","[0.17833333333333334,0.3607393085010495]","[0.23833333333333334,0.366885064482237]","[0.17833333333333334,-0.395484830617469]","[0.23833333333333334,-0.344534420819375]","[-0.23833333333333334,-0.3548868339717496]","[-0.17833333333333334,-0.3793742133170384]",1,0,1.374045,14,0,14,0,1,NA,NA,NA,NA,NA,"",NA,NA,NA,"",NA,NA,NA,"",NA,NA,NA,"",NA,NA,NA,NA,NA,NA,NA,NA,"","","","","","","","","","","","","","","","",NA,NA,NA,NA,NA,NA,NA,NA,NA,NA,"younger","search_alone",NA,1,1
"",NA,"",NA,NA,NA,NA,NA,NA,NA,"","","5ee7a8ab87d5560568bc2dca","2020-08-13_12h30.56.320","proactive2","2020.1.2","MacIntel",60,"5f341be081b9052c55068110","5f35244c1b69bd47b65e5938",4,NA,NA,NA,NA,NA,"",NA,NA,NA,NA,NA,NA,NA,NA,NA,NA,4,NA,NA,NA,NA,NA,NA,NA,NA,NA,NA,NA,"","",NA,NA,NA,NA,NA,NA,NA,NA,NA,NA,NA,"stimuli/search/b.png","stimuli/search/t.png","stimuli/search/b.png","stimuli/search/t.png","stimuli/search/l.png","stimuli/search/b.png","stimuli/search/t.png","stimuli/search/b.png","[-0.23833333333333334,0.3977971006715353]","[-0.17833333333333334,0.4001582312617173]","[0.17833333333333334,0.3252331910973212]","[0.23833333333333334,0.39855575877991967]","[0.17833333333333334,-0.3318450297004314]","[0.23833333333333334,-0.3614455433765901]","[-0.23833333333333334,-0.37152179331566165]","[-0.17833333333333334,-0.33068122220581625]",0,1,0.631705,15,0,15,0,1,NA,NA,NA,NA,NA,"",NA,NA,NA,"",NA,NA,NA,"",NA,NA,NA,"",NA,NA,NA,NA,NA,NA,NA,NA,"","","","","","","","","","","","","","","","",NA,NA,NA,NA,NA,NA,NA,NA,NA,NA,"younger","search_alone",NA,0,1
"",NA,"",NA,NA,NA,NA,NA,NA,NA,"","","5ee7a8ab87d5560568bc2dca","2020-08-13_12h30.56.320","proactive2","2020.1.2","MacIntel",60,"5f341be081b9052c55068110","5f35244c1b69bd47b65e5938",4,NA,NA,NA,NA,NA,"",NA,NA,NA,NA,NA,NA,NA,NA,NA,NA,4,NA,NA,NA,NA,NA,NA,NA,NA,NA,NA,NA,"","",NA,NA,NA,NA,NA,NA,NA,NA,NA,NA,NA,"stimuli/search/b.png","stimuli/search/t.png","stimuli/search/b.png","stimuli/search/t.png","stimuli/search/t.png","stimuli/search/b.png","stimuli/search/t.png","stimuli/search/r.png","[-0.23833333333333334,0.3991037585371852]","[-0.17833333333333334,0.3822633421317683]","[0.17833333333333334,0.39153122416414615]","[0.23833333333333334,0.41246248420046466]","[0.17833333333333334,-0.39968073247411096]","[0.23833333333333334,-0.39520465121459764]","[-0.23833333333333334,-0.33651464517923957]","[-0.17833333333333334,-0.3619836511705838]",1,0,1.19941,16,0,16,0,1,NA,NA,NA,NA,NA,"",NA,NA,NA,"",NA,NA,NA,"",NA,NA,NA,"",NA,NA,NA,NA,NA,NA,NA,NA,"","","","","","","","","","","","","","","","",NA,NA,NA,NA,NA,NA,NA,NA,NA,NA,"younger","search_alone",NA,1,1
"",NA,"",NA,NA,NA,NA,NA,NA,NA,"","","5ee7a8ab87d5560568bc2dca","2020-08-13_12h30.56.320","proactive2","2020.1.2","MacIntel",60,"5f341be081b9052c55068110","5f35244c1b69bd47b65e5938",4,NA,NA,NA,NA,NA,"",NA,NA,NA,NA,NA,NA,NA,NA,NA,NA,4,NA,NA,NA,NA,NA,NA,NA,NA,NA,NA,NA,"","",NA,NA,NA,NA,NA,NA,NA,NA,NA,NA,NA,"stimuli/search/t.png","stimuli/search/b.png","stimuli/search/t.png","stimuli/search/b.png","stimuli/search/b.png","stimuli/search/t.png","stimuli/search/l.png","stimuli/search/b.png","[-0.23833333333333334,0.34335494055496146]","[-0.17833333333333334,0.32911933467588617]","[0.17833333333333334,0.4126052375236759]","[0.23833333333333334,0.338397875734041]","[0.17833333333333334,-0.35104936080495164]","[0.23833333333333334,-0.38878155710653484]","[-0.23833333333333334,-0.35553611097725396]","[-0.17833333333333334,-0.4161783045884039]",0,1,1.13246,17,0,17,0,1,NA,NA,NA,NA,NA,"",NA,NA,NA,"",NA,NA,NA,"",NA,NA,NA,"",NA,NA,NA,NA,NA,NA,NA,NA,"","","","","","","","","","","","","","","","",NA,NA,NA,NA,NA,NA,NA,NA,NA,NA,"younger","search_alone",NA,0,1
"",NA,"",NA,NA,NA,NA,NA,NA,NA,"","","5ee7a8ab87d5560568bc2dca","2020-08-13_12h30.56.320","proactive2","2020.1.2","MacIntel",60,"5f341be081b9052c55068110","5f35244c1b69bd47b65e5938",4,NA,NA,NA,NA,NA,"",NA,NA,NA,NA,NA,NA,NA,NA,NA,NA,4,NA,NA,NA,NA,NA,NA,NA,NA,NA,NA,NA,"","",NA,NA,NA,NA,NA,NA,NA,NA,NA,NA,NA,"stimuli/search/t.png","stimuli/search/b.png","stimuli/search/t.png","stimuli/search/b.png","stimuli/search/l.png","stimuli/search/t.png","stimuli/search/t.png","stimuli/search/b.png","[-0.23833333333333334,0.38895381640429605]","[-0.17833333333333334,0.3724213631802192]","[0.17833333333333334,0.3515873763238292]","[0.23833333333333334,0.34484393344967396]","[0.17833333333333334,-0.35646388555885183]","[0.23833333333333334,-0.40035828703202314]","[-0.23833333333333334,-0.3667651117934507]","[-0.17833333333333334,-0.3775346317001583]",0,1,1.398735,18,0,18,0,1,NA,NA,NA,NA,NA,"",NA,NA,NA,"",NA,NA,NA,"",NA,NA,NA,"",NA,NA,NA,NA,NA,NA,NA,NA,"","","","","","","","","","","","","","","","",NA,NA,NA,NA,NA,NA,NA,NA,NA,NA,"younger","search_alone",NA,0,1
"",NA,"",NA,NA,NA,NA,NA,NA,NA,"","","5ee7a8ab87d5560568bc2dca","2020-08-13_12h30.56.320","proactive2","2020.1.2","MacIntel",60,"5f341be081b9052c55068110","5f35244c1b69bd47b65e5938",4,NA,NA,NA,NA,NA,"",NA,NA,NA,NA,NA,NA,NA,NA,NA,NA,4,NA,NA,NA,NA,NA,NA,NA,NA,NA,NA,NA,"","",NA,NA,NA,NA,NA,NA,NA,NA,NA,NA,NA,"stimuli/search/t.png","stimuli/search/b.png","stimuli/search/r.png","stimuli/search/b.png","stimuli/search/b.png","stimuli/search/t.png","stimuli/search/b.png","stimuli/search/t.png","[-0.23833333333333334,0.3458719042177926]","[-0.17833333333333334,0.3444607405154118]","[0.17833333333333334,0.34329067882114633]","[0.23833333333333334,0.3947923111110078]","[0.17833333333333334,-0.40126159657153937]","[0.23833333333333334,-0.38999285373107073]","[-0.23833333333333334,-0.36386602206796886]","[-0.17833333333333334,-0.3289028384599735]",1,0,1.874545,19,0,19,0,1,NA,NA,NA,NA,NA,"",NA,NA,NA,"",NA,NA,NA,"",NA,NA,NA,"",NA,NA,NA,NA,NA,NA,NA,NA,"","","","","","","","","","","","","","","","",NA,NA,NA,NA,NA,NA,NA,NA,NA,NA,"younger","search_alone",NA,1,1
"",NA,"",NA,NA,NA,NA,NA,NA,NA,"","","5ee7a8ab87d5560568bc2dca","2020-08-13_12h30.56.320","proactive2","2020.1.2","MacIntel",60,"5f341be081b9052c55068110","5f35244c1b69bd47b65e5938",4,NA,NA,NA,NA,NA,"",NA,NA,NA,NA,NA,NA,NA,NA,NA,NA,4,NA,NA,NA,NA,NA,NA,NA,NA,NA,NA,NA,"","",NA,NA,NA,NA,NA,NA,NA,NA,NA,NA,NA,"stimuli/search/l.png","stimuli/search/b.png","stimuli/search/t.png","stimuli/search/b.png","stimuli/search/t.png","stimuli/search/b.png","stimuli/search/t.png","stimuli/search/b.png","[-0.23833333333333334,0.3246219533340523]","[-0.17833333333333334,0.3313575672700653]","[0.17833333333333334,0.37544797533312224]","[0.23833333333333334,0.39941562529408914]","[0.17833333333333334,-0.3322635583849433]","[0.23833333333333334,-0.40641564468970925]","[-0.23833333333333334,-0.4107021227883593]","[-0.17833333333333334,-0.40771393614860424]",0,1,0.74841,NA,NA,NA,NA,NA,NA,NA,NA,NA,NA,"",NA,NA,NA,"",NA,NA,NA,"",NA,NA,NA,"",NA,NA,NA,NA,NA,NA,NA,NA,"","","","","","","","","","","","","","","","",0,0,0,0,1,NA,NA,NA,NA,NA,"younger","wm",4,0,1
"",NA,"",NA,NA,NA,NA,NA,NA,NA,"","","5ee7a8ab87d5560568bc2dca","2020-08-13_12h30.56.320","proactive2","2020.1.2","MacIntel",60,"5f341be081b9052c55068110","5f35244c1b69bd47b65e5938",4,NA,NA,NA,NA,NA,"",NA,NA,NA,NA,NA,NA,NA,NA,NA,NA,4,NA,NA,NA,NA,NA,NA,NA,NA,NA,NA,NA,"","",NA,NA,NA,NA,NA,NA,NA,NA,NA,NA,NA,"stimuli/search/b.png","stimuli/search/t.png","stimuli/search/b.png","stimuli/search/t.png","stimuli/search/t.png","stimuli/search/b.png","stimuli/search/t.png","stimuli/search/r.png","[-0.23833333333333334,0.33949276422758806]","[-0.17833333333333334,0.3724588562478314]","[0.17833333333333334,0.35439746310478915]","[0.23833333333333334,0.3607778651786478]","[0.17833333333333334,-0.38506296377844856]","[0.23833333333333334,-0.3433955234596801]","[-0.23833333333333334,-0.3980099040863661]","[-0.17833333333333334,-0.35964579507070205]",1,0,1.34772,NA,NA,NA,NA,NA,NA,NA,NA,NA,NA,"",NA,NA,NA,"",NA,NA,NA,"",NA,NA,NA,"",NA,NA,NA,NA,NA,NA,NA,NA,"","","","","","","","","","","","","","","","",0,0,0,0,1,NA,NA,NA,NA,NA,"younger","wm",5,1,1
"",NA,"",NA,NA,NA,NA,NA,NA,NA,"","","5ee7a8ab87d5560568bc2dca","2020-08-13_12h30.56.320","proactive2","2020.1.2","MacIntel",60,"5f341be081b9052c55068110","5f35244c1b69bd47b65e5938",4,NA,NA,NA,NA,NA,"",NA,NA,NA,NA,NA,NA,NA,NA,NA,NA,4,NA,NA,NA,NA,NA,NA,NA,NA,NA,NA,NA,"","",NA,NA,NA,NA,NA,NA,NA,NA,NA,NA,NA,"stimuli/search/t.png","stimuli/search/b.png","stimuli/search/t.png","stimuli/search/b.png","stimuli/search/t.png","stimuli/search/r.png","stimuli/search/t.png","stimuli/search/b.png","[-0.23833333333333334,0.36528318303243873]","[-0.17833333333333334,0.3641461710514501]","[0.17833333333333334,0.38589417895870026]","[0.23833333333333334,0.40589934830326213]","[0.17833333333333334,-0.41547345383308565]","[0.23833333333333334,-0.40552133661690426]","[-0.23833333333333334,-0.3803724040197266]","[-0.17833333333333334,-0.3326923281351106]",1,NA,NA,NA,NA,NA,NA,NA,NA,NA,NA,NA,NA,"",NA,NA,NA,"",NA,NA,NA,"",NA,NA,NA,"",NA,NA,NA,NA,NA,NA,NA,NA,"","","","","","","","","","","","","","","","",0,0,0,0,1,NA,NA,NA,NA,NA,"younger","wm",6,NA,0
"",NA,"",NA,NA,NA,NA,NA,NA,NA,"","","5ee7a8ab87d5560568bc2dca","2020-08-13_12h30.56.320","proactive2","2020.1.2","MacIntel",60,"5f341be081b9052c55068110","5f35244c1b69bd47b65e5938",4,NA,NA,NA,NA,NA,"",NA,NA,NA,NA,NA,NA,NA,NA,NA,NA,4,NA,NA,NA,NA,NA,NA,NA,NA,NA,NA,NA,"","",NA,NA,NA,NA,NA,NA,NA,NA,NA,NA,NA,"stimuli/search/t.png","stimuli/search/b.png","stimuli/search/t.png","stimuli/search/b.png","stimuli/search/t.png","stimuli/search/b.png","stimuli/search/l.png","stimuli/search/t.png","[-0.23833333333333334,0.3454310616089481]","[-0.17833333333333334,0.3773330250407459]","[0.17833333333333334,0.35147424097027924]","[0.23833333333333334,0.39470175236216826]","[0.17833333333333334,-0.35643561898139936]","[0.23833333333333334,-0.3281774364831544]","[-0.23833333333333334,-0.32677987080866955]","[-0.17833333333333334,-0.4050923204136749]",0,NA,NA,NA,NA,NA,NA,NA,NA,NA,NA,NA,NA,"",NA,NA,NA,"",NA,NA,NA,"",NA,NA,NA,"",NA,NA,NA,NA,NA,NA,NA,NA,"","","","","","","","","","","","","","","","",0,0,0,0,1,NA,NA,NA,NA,NA,"younger","wm",7,NA,0
"",NA,"",NA,NA,NA,NA,NA,NA,NA,"","","5ee7a8ab87d5560568bc2dca","2020-08-13_12h30.56.320","proactive2","2020.1.2","MacIntel",60,"5f341be081b9052c55068110","5f35244c1b69bd47b65e5938",4,NA,NA,NA,NA,NA,"",NA,NA,NA,NA,NA,NA,NA,NA,NA,NA,4,NA,NA,NA,NA,NA,NA,NA,NA,NA,NA,NA,"","",NA,NA,NA,NA,NA,NA,NA,NA,NA,NA,NA,"stimuli/search/t.png","stimuli/search/b.png","stimuli/search/t.png","stimuli/search/b.png","stimuli/search/t.png","stimuli/search/r.png","stimuli/search/t.png","stimuli/search/b.png","[-0.23833333333333334,0.34344427050190635]","[-0.17833333333333334,0.3249979783759806]","[0.17833333333333334,0.3837063534049193]","[0.23833333333333334,0.40070307923698445]","[0.17833333333333334,-0.3738580502923025]","[0.23833333333333334,-0.3857622666723263]","[-0.23833333333333334,-0.40215385354833116]","[-0.17833333333333334,-0.40972482895939377]",1,0,1.29266,NA,NA,NA,NA,NA,NA,NA,NA,NA,NA,"",NA,NA,NA,"",NA,NA,NA,"",NA,NA,NA,"",NA,NA,NA,NA,NA,NA,NA,NA,"","","","","","","","","","","","","","","","",0,0,0,0,1,NA,NA,NA,NA,NA,"younger","wm",8,1,1
"",NA,"",NA,NA,NA,NA,NA,NA,NA,"","","5ee7a8ab87d5560568bc2dca","2020-08-13_12h30.56.320","proactive2","2020.1.2","MacIntel",60,"5f341be081b9052c55068110","5f35244c1b69bd47b65e5938",4,NA,NA,NA,NA,NA,"",NA,NA,NA,NA,NA,NA,NA,NA,NA,NA,4,NA,NA,NA,NA,NA,NA,NA,NA,NA,NA,NA,"","",NA,NA,NA,NA,NA,NA,NA,NA,NA,NA,NA,"stimuli/search/t.png","stimuli/search/b.png","stimuli/search/t.png","stimuli/search/l.png","stimuli/search/b.png","stimuli/search/t.png","stimuli/search/b.png","stimuli/search/t.png","[-0.23833333333333334,0.3325961164063302]","[-0.17833333333333334,0.4146542117063785]","[0.17833333333333334,0.3306446285954412]","[0.23833333333333334,0.3767283674173267]","[0.17833333333333334,-0.4065854065119898]","[0.23833333333333334,-0.38757604087623404]","[-0.23833333333333334,-0.36045249466662743]","[-0.17833333333333334,-0.3262299537648954]",0,NA,NA,NA,NA,NA,NA,NA,NA,NA,NA,NA,NA,"",NA,NA,NA,"",NA,NA,NA,"",NA,NA,NA,"",NA,NA,NA,NA,NA,NA,NA,NA,"","","","","","","","","","","","","","","","",0,0,0,0,1,NA,NA,NA,NA,NA,"younger","wm",9,NA,0
"",NA,"",NA,NA,NA,NA,NA,NA,NA,"","","5ee7a8ab87d5560568bc2dca","2020-08-13_12h30.56.320","proactive2","2020.1.2","MacIntel",60,"5f341be081b9052c55068110","5f35244c1b69bd47b65e5938",4,NA,NA,NA,NA,NA,"",NA,NA,NA,NA,NA,NA,NA,NA,NA,NA,4,NA,NA,NA,NA,NA,NA,NA,NA,NA,NA,NA,"","",NA,NA,NA,NA,NA,NA,NA,NA,NA,NA,NA,"stimuli/search/t.png","stimuli/search/b.png","stimuli/search/t.png","stimuli/search/b.png","stimuli/search/b.png","stimuli/search/t.png","stimuli/search/l.png","stimuli/search/t.png","[-0.23833333333333334,0.40127154437841756]","[-0.17833333333333334,0.3390867948634382]","[0.17833333333333334,0.32757232331399383]","[0.23833333333333334,0.3777076769304736]","[0.17833333333333334,-0.34743410708014316]","[0.23833333333333334,-0.37083515172959175]","[-0.23833333333333334,-0.3608245484341108]","[-0.17833333333333334,-0.34356060008853173]",0,1,1.32366,NA,NA,NA,NA,NA,NA,NA,NA,NA,NA,"",NA,NA,NA,"",NA,NA,NA,"",NA,NA,NA,"",NA,NA,NA,NA,NA,NA,NA,NA,"","","","","","","","","","","","","","","","",0,0,0,0,1,NA,NA,NA,NA,NA,"younger","wm",10,0,1
"",NA,"",NA,NA,NA,NA,NA,NA,NA,"","","5ee7a8ab87d5560568bc2dca","2020-08-13_12h30.56.320","proactive2","2020.1.2","MacIntel",60,"5f341be081b9052c55068110","5f35244c1b69bd47b65e5938",4,NA,NA,NA,NA,NA,"",NA,NA,NA,NA,NA,NA,NA,NA,NA,NA,4,NA,NA,NA,NA,NA,NA,NA,NA,NA,NA,NA,"","",NA,NA,NA,NA,NA,NA,NA,NA,NA,NA,NA,"stimuli/search/t.png","stimuli/search/b.png","stimuli/search/b.png","stimuli/search/t.png","stimuli/search/l.png","stimuli/search/b.png","stimuli/search/b.png","stimuli/search/t.png","[-0.23833333333333334,0.3687489390439376]","[-0.17833333333333334,0.35962083187999155]","[0.17833333333333334,0.3692684459028764]","[0.23833333333333334,0.3249421629434228]","[0.17833333333333334,-0.33063444140124537]","[0.23833333333333334,-0.4012800384778902]","[-0.23833333333333334,-0.3250023199454113]","[-0.17833333333333334,-0.3690423215424249]",0,1,1.708055,NA,NA,NA,NA,NA,NA,NA,NA,NA,NA,"",NA,NA,NA,"",NA,NA,NA,"",NA,NA,NA,"",NA,NA,NA,NA,NA,NA,NA,NA,"","","","","","","","","","","","","","","","",0,0,0,0,1,NA,NA,NA,NA,NA,"younger","wm",11,0,1
"",NA,"",NA,NA,NA,NA,NA,NA,NA,"","","5ee7a8ab87d5560568bc2dca","2020-08-13_12h30.56.320","proactive2","2020.1.2","MacIntel",60,"5f341be081b9052c55068110","5f35244c1b69bd47b65e5938",4,NA,NA,NA,NA,NA,"",NA,NA,NA,NA,NA,NA,NA,NA,NA,NA,4,NA,NA,NA,NA,NA,NA,NA,NA,NA,NA,NA,"","",NA,NA,NA,NA,NA,NA,NA,NA,NA,NA,NA,"stimuli/search/t.png","stimuli/search/b.png","stimuli/search/r.png","stimuli/search/b.png","stimuli/search/b.png","stimuli/search/t.png","stimuli/search/t.png","stimuli/search/b.png","[-0.23833333333333334,0.3265678727582127]","[-0.17833333333333334,0.35433098388909884]","[0.17833333333333334,0.3978218475414419]","[0.23833333333333334,0.38182897790192083]","[0.17833333333333334,-0.3760306330114423]","[0.23833333333333334,-0.39479674337995285]","[-0.23833333333333334,-0.38246007363306606]","[-0.17833333333333334,-0.34309255786009474]",1,0,1.70838,NA,NA,NA,NA,NA,NA,NA,NA,NA,NA,"",NA,NA,NA,"",NA,NA,NA,"",NA,NA,NA,"",NA,NA,NA,NA,NA,NA,NA,NA,"","","","","","","","","","","","","","","","",0,0,0,0,1,NA,NA,NA,NA,NA,"younger","wm",12,1,1
"",NA,"",NA,NA,NA,NA,NA,NA,NA,"","","5ee7a8ab87d5560568bc2dca","2020-08-13_12h30.56.320","proactive2","2020.1.2","MacIntel",60,"5f341be081b9052c55068110","5f35244c1b69bd47b65e5938",4,NA,NA,NA,NA,NA,"",NA,NA,NA,NA,NA,NA,NA,NA,NA,NA,4,NA,NA,NA,NA,NA,NA,NA,NA,NA,NA,NA,"","",NA,NA,NA,NA,NA,NA,NA,NA,NA,NA,NA,"stimuli/search/t.png","stimuli/search/l.png","stimuli/search/t.png","stimuli/search/b.png","stimuli/search/b.png","stimuli/search/t.png","stimuli/search/t.png","stimuli/search/b.png","[-0.23833333333333334,0.3723227757725046]","[-0.17833333333333334,0.3911615183987239]","[0.17833333333333334,0.41433975988219496]","[0.23833333333333334,0.32949872573018146]","[0.17833333333333334,-0.3761773515458133]","[0.23833333333333334,-0.384121635434376]","[-0.23833333333333334,-0.3538950250862674]","[-0.17833333333333334,-0.3708516088494685]",0,NA,NA,NA,NA,NA,NA,NA,NA,NA,NA,NA,NA,"",NA,NA,NA,"",NA,NA,NA,"",NA,NA,NA,"",NA,NA,NA,NA,NA,NA,NA,NA,"","","","","","","","","","","","","","","","",0,0,0,0,1,NA,NA,NA,NA,NA,"younger","wm",13,NA,0
"",NA,"",NA,NA,NA,NA,NA,NA,NA,"","","5ee7a8ab87d5560568bc2dca","2020-08-13_12h30.56.320","proactive2","2020.1.2","MacIntel",60,"5f341be081b9052c55068110","5f35244c1b69bd47b65e5938",4,NA,NA,NA,NA,NA,"",NA,NA,NA,NA,NA,NA,NA,NA,NA,NA,4,NA,NA,NA,NA,NA,NA,NA,NA,NA,NA,NA,"","",NA,NA,NA,NA,NA,NA,NA,NA,NA,NA,NA,"stimuli/search/t.png","stimuli/search/b.png","stimuli/search/b.png","stimuli/search/t.png","stimuli/search/b.png","stimuli/search/t.png","stimuli/search/b.png","stimuli/search/l.png","[-0.23833333333333334,0.38570076024182853]","[-0.17833333333333334,0.3640526510452677]","[0.17833333333333334,0.335468190632541]","[0.23833333333333334,0.39537642094176056]","[0.17833333333333334,-0.3401225786537041]","[0.23833333333333334,-0.36328231513509807]","[-0.23833333333333334,-0.35151288278785103]","[-0.17833333333333334,-0.32574343020474594]",0,1,1.248345,NA,NA,NA,NA,NA,NA,NA,NA,NA,NA,"",NA,NA,NA,"",NA,NA,NA,"",NA,NA,NA,"",NA,NA,NA,NA,NA,NA,NA,NA,"","","","","","","","","","","","","","","","",0,0,0,0,1,NA,NA,NA,NA,NA,"younger","wm",14,0,1
"",NA,"",NA,NA,NA,NA,NA,NA,NA,"","","5ee7a8ab87d5560568bc2dca","2020-08-13_12h30.56.320","proactive2","2020.1.2","MacIntel",60,"5f341be081b9052c55068110","5f35244c1b69bd47b65e5938",4,NA,NA,NA,NA,NA,"",NA,NA,NA,NA,NA,NA,NA,NA,NA,NA,4,NA,NA,NA,NA,NA,NA,NA,NA,NA,NA,NA,"","",NA,NA,NA,NA,NA,NA,NA,NA,NA,NA,NA,"stimuli/search/b.png","stimuli/search/t.png","stimuli/search/r.png","stimuli/search/b.png","stimuli/search/t.png","stimuli/search/b.png","stimuli/search/b.png","stimuli/search/t.png","[-0.23833333333333334,0.3535542585647182]","[-0.17833333333333334,0.3349956275235543]","[0.17833333333333334,0.32663901738505624]","[0.23833333333333334,0.38899822571522913]","[0.17833333333333334,-0.3426973294785]","[0.23833333333333334,-0.37626572369876593]","[-0.23833333333333334,-0.40124604710422473]","[-0.17833333333333334,-0.37738811405000566]",1,0,1.94832,NA,NA,NA,NA,NA,NA,NA,NA,NA,NA,"",NA,NA,NA,"",NA,NA,NA,"",NA,NA,NA,"",NA,NA,NA,NA,NA,NA,NA,NA,"","","","","","","","","","","","","","","","",0,0,0,0,1,NA,NA,NA,NA,NA,"younger","wm",15,1,1
"",NA,"",NA,NA,NA,NA,NA,NA,NA,"","","5ee7a8ab87d5560568bc2dca","2020-08-13_12h30.56.320","proactive2","2020.1.2","MacIntel",60,"5f341be081b9052c55068110","5f35244c1b69bd47b65e5938",4,NA,NA,NA,NA,NA,"",NA,NA,NA,NA,NA,NA,NA,NA,NA,NA,4,NA,NA,NA,NA,NA,NA,NA,NA,NA,NA,NA,"","",NA,NA,NA,NA,NA,NA,NA,NA,NA,NA,NA,"stimuli/search/r.png","stimuli/search/t.png","stimuli/search/b.png","stimuli/search/t.png","stimuli/search/b.png","stimuli/search/t.png","stimuli/search/t.png","stimuli/search/b.png","[-0.23833333333333334,0.35456593192320185]","[-0.17833333333333334,0.36415616923416383]","[0.17833333333333334,0.3484805487961626]","[0.23833333333333334,0.38127084895247193]","[0.17833333333333334,-0.3568229525604991]","[0.23833333333333334,-0.3324972797430105]","[-0.23833333333333334,-0.33391984756857357]","[-0.17833333333333334,-0.3623874715512477]",1,0,1.229485,NA,NA,NA,NA,NA,NA,NA,NA,NA,NA,"",NA,NA,NA,"",NA,NA,NA,"",NA,NA,NA,"",NA,NA,NA,NA,NA,NA,NA,NA,"","","","","","","","","","","","","","","","",0,0,0,0,1,NA,NA,NA,NA,NA,"younger","wm",16,1,1
"",NA,"",NA,NA,NA,NA,NA,NA,NA,"","","5ee7a8ab87d5560568bc2dca","2020-08-13_12h30.56.320","proactive2","2020.1.2","MacIntel",60,"5f341be081b9052c55068110","5f35244c1b69bd47b65e5938",4,NA,NA,NA,NA,NA,"",NA,NA,NA,NA,NA,NA,NA,NA,NA,NA,4,NA,NA,NA,NA,NA,NA,NA,NA,NA,NA,NA,"","",NA,NA,NA,NA,NA,NA,NA,NA,NA,NA,NA,"stimuli/search/b.png","stimuli/search/l.png","stimuli/search/t.png","stimuli/search/b.png","stimuli/search/b.png","stimuli/search/t.png","stimuli/search/t.png","stimuli/search/b.png","[-0.23833333333333334,0.3763941536711788]","[-0.17833333333333334,0.3357432684895517]","[0.17833333333333334,0.34870229353219623]","[0.23833333333333334,0.3796768210453519]","[0.17833333333333334,-0.37396922905557456]","[0.23833333333333334,-0.39378931187226546]","[-0.23833333333333334,-0.38595517239391336]","[-0.17833333333333334,-0.37609781830867417]",0,1,1.179945,NA,NA,NA,NA,NA,NA,NA,NA,NA,NA,"",NA,NA,NA,"",NA,NA,NA,"",NA,NA,NA,"",NA,NA,NA,NA,NA,NA,NA,NA,"","","","","","","","","","","","","","","","",0,0,0,0,1,NA,NA,NA,NA,NA,"younger","wm",17,0,1
"",NA,"",NA,NA,NA,NA,NA,NA,NA,"","","5ee7a8ab87d5560568bc2dca","2020-08-13_12h30.56.320","proactive2","2020.1.2","MacIntel",60,"5f341be081b9052c55068110","5f35244c1b69bd47b65e5938",4,NA,NA,NA,NA,NA,"",NA,NA,NA,NA,NA,NA,NA,NA,NA,NA,4,NA,NA,NA,NA,NA,NA,NA,NA,NA,NA,NA,"","",NA,NA,NA,NA,NA,NA,NA,NA,NA,NA,NA,"stimuli/search/t.png","stimuli/search/b.png","stimuli/search/r.png","stimuli/search/t.png","stimuli/search/t.png","stimuli/search/b.png","stimuli/search/b.png","stimuli/search/t.png","[-0.23833333333333334,0.33106398399077425]","[-0.17833333333333334,0.4157526733463748]","[0.17833333333333334,0.3800283379639555]","[0.23833333333333334,0.3895387790092333]","[0.17833333333333334,-0.32707813519526807]","[0.23833333333333334,-0.337450703935772]","[-0.23833333333333334,-0.37164559057927143]","[-0.17833333333333334,-0.376190822225017]",1,0,1.19555,NA,NA,NA,NA,NA,NA,NA,NA,NA,NA,"",NA,NA,NA,"",NA,NA,NA,"",NA,NA,NA,"",NA,NA,NA,NA,NA,NA,NA,NA,"","","","","","","","","","","","","","","","",0,0,0,0,1,NA,NA,NA,NA,NA,"younger","wm",18,1,1
"",NA,"",NA,NA,NA,NA,NA,NA,NA,"","","5ee7a8ab87d5560568bc2dca","2020-08-13_12h30.56.320","proactive2","2020.1.2","MacIntel",60,"5f341be081b9052c55068110","5f35244c1b69bd47b65e5938",4,NA,NA,NA,NA,NA,"",NA,NA,NA,NA,NA,NA,NA,NA,NA,NA,4,NA,NA,NA,NA,NA,NA,NA,NA,NA,NA,NA,"","",NA,NA,NA,NA,NA,NA,NA,NA,NA,NA,NA,"stimuli/search/t.png","stimuli/search/b.png","stimuli/search/t.png","stimuli/search/b.png","stimuli/search/l.png","stimuli/search/b.png","stimuli/search/t.png","stimuli/search/b.png","[-0.23833333333333334,0.3528947293236443]","[-0.17833333333333334,0.36143309660179834]","[0.17833333333333334,0.3259387760882808]","[0.23833333333333334,0.3485182386181915]","[0.17833333333333334,-0.37504566787247856]","[0.23833333333333334,-0.3716350113228475]","[-0.23833333333333334,-0.3958570787649574]","[-0.17833333333333334,-0.36461422904901974]",0,NA,NA,NA,NA,NA,NA,NA,NA,NA,NA,NA,NA,"",NA,NA,NA,"",NA,NA,NA,"",NA,NA,NA,"",NA,NA,NA,NA,NA,NA,NA,NA,"","","","","","","","","","","","","","","","",0,0,0,0,1,NA,NA,NA,NA,NA,"younger","wm",19,NA,0
"",NA,"",NA,NA,NA,NA,NA,NA,NA,"","","5b69a09840003400016ff00f","2020-08-13_12h30.40.215","proactive2","2020.1.2","MacIntel",60,"5f341be081b9052c55068110","5f35244c236a73485a84bc0c",1,NA,NA,NA,NA,NA,"",NA,NA,NA,NA,NA,NA,NA,NA,NA,NA,1,NA,NA,NA,NA,NA,NA,NA,NA,NA,NA,NA,"","",NA,NA,NA,NA,NA,NA,NA,NA,NA,NA,NA,"stimuli/search/b.png","stimuli/search/t.png","stimuli/search/t.png","stimuli/search/b.png","stimuli/search/t.png","stimuli/search/b.png","stimuli/search/r.png","stimuli/search/t.png","[-0.23833333333333334,0.3979175917054547]","[-0.17833333333333334,0.34061810093708333]","[0.17833333333333334,0.405615261040555]","[0.23833333333333334,0.32684675213926534]","[0.17833333333333334,-0.3263678503612971]","[0.23833333333333334,-0.33920614999783694]","[-0.23833333333333334,-0.38783324962628446]","[-0.17833333333333334,-0.33326211730494204]",1,0,1.735,4,0,4,0,1,NA,NA,NA,NA,NA,"",NA,NA,NA,"",NA,NA,NA,"",NA,NA,NA,"",NA,NA,NA,NA,NA,NA,NA,NA,"","","","","","","","","","","","","","","","",NA,NA,NA,NA,NA,NA,NA,NA,NA,NA,"younger","search_alone",NA,1,1
"",NA,"",NA,NA,NA,NA,NA,NA,NA,"","","5b69a09840003400016ff00f","2020-08-13_12h30.40.215","proactive2","2020.1.2","MacIntel",60,"5f341be081b9052c55068110","5f35244c236a73485a84bc0c",1,NA,NA,NA,NA,NA,"",NA,NA,NA,NA,NA,NA,NA,NA,NA,NA,1,NA,NA,NA,NA,NA,NA,NA,NA,NA,NA,NA,"","",NA,NA,NA,NA,NA,NA,NA,NA,NA,NA,NA,"stimuli/search/t.png","stimuli/search/b.png","stimuli/search/b.png","stimuli/search/t.png","stimuli/search/t.png","stimuli/search/b.png","stimuli/search/l.png","stimuli/search/t.png","[-0.23833333333333334,0.3868586992646723]","[-0.17833333333333334,0.3500694091019621]","[0.17833333333333334,0.33424848429685666]","[0.23833333333333334,0.3693436891253249]","[0.17833333333333334,-0.36135026111670154]","[0.23833333333333334,-0.3817939648150279]","[-0.23833333333333334,-0.4153781222141787]","[-0.17833333333333334,-0.3540988657019156]",0,1,0.871,5,0,5,0,1,NA,NA,NA,NA,NA,"",NA,NA,NA,"",NA,NA,NA,"",NA,NA,NA,"",NA,NA,NA,NA,NA,NA,NA,NA,"","","","","","","","","","","","","","","","",NA,NA,NA,NA,NA,NA,NA,NA,NA,NA,"younger","search_alone",NA,0,1
"",NA,"",NA,NA,NA,NA,NA,NA,NA,"","","5b69a09840003400016ff00f","2020-08-13_12h30.40.215","proactive2","2020.1.2","MacIntel",60,"5f341be081b9052c55068110","5f35244c236a73485a84bc0c",1,NA,NA,NA,NA,NA,"",NA,NA,NA,NA,NA,NA,NA,NA,NA,NA,1,NA,NA,NA,NA,NA,NA,NA,NA,NA,NA,NA,"","",NA,NA,NA,NA,NA,NA,NA,NA,NA,NA,NA,"stimuli/search/t.png","stimuli/search/b.png","stimuli/search/t.png","stimuli/search/b.png","stimuli/search/t.png","stimuli/search/r.png","stimuli/search/b.png","stimuli/search/t.png","[-0.23833333333333334,0.3517115539865652]","[-0.17833333333333334,0.3483308272289888]","[0.17833333333333334,0.358297433784997]","[0.23833333333333334,0.38389412966807973]","[0.17833333333333334,-0.41173489668714486]","[0.23833333333333334,-0.32936694778238895]","[-0.23833333333333334,-0.35488650395127763]","[-0.17833333333333334,-0.3562110783370418]",1,0,1.47,6,0,6,0,1,NA,NA,NA,NA,NA,"",NA,NA,NA,"",NA,NA,NA,"",NA,NA,NA,"",NA,NA,NA,NA,NA,NA,NA,NA,"","","","","","","","","","","","","","","","",NA,NA,NA,NA,NA,NA,NA,NA,NA,NA,"younger","search_alone",NA,1,1
"",NA,"",NA,NA,NA,NA,NA,NA,NA,"","","5b69a09840003400016ff00f","2020-08-13_12h30.40.215","proactive2","2020.1.2","MacIntel",60,"5f341be081b9052c55068110","5f35244c236a73485a84bc0c",1,NA,NA,NA,NA,NA,"",NA,NA,NA,NA,NA,NA,NA,NA,NA,NA,1,NA,NA,NA,NA,NA,NA,NA,NA,NA,NA,NA,"","",NA,NA,NA,NA,NA,NA,NA,NA,NA,NA,NA,"stimuli/search/b.png","stimuli/search/l.png","stimuli/search/t.png","stimuli/search/b.png","stimuli/search/b.png","stimuli/search/t.png","stimuli/search/t.png","stimuli/search/b.png","[-0.23833333333333334,0.3981859854786716]","[-0.17833333333333334,0.4121989715602472]","[0.17833333333333334,0.35102135404009993]","[0.23833333333333334,0.3887371888527479]","[0.17833333333333334,-0.3605928309532648]","[0.23833333333333334,-0.3461503964435143]","[-0.23833333333333334,-0.39369687698646955]","[-0.17833333333333334,-0.3553031301963993]",0,1,1.346,7,0,7,0,1,NA,NA,NA,NA,NA,"",NA,NA,NA,"",NA,NA,NA,"",NA,NA,NA,"",NA,NA,NA,NA,NA,NA,NA,NA,"","","","","","","","","","","","","","","","",NA,NA,NA,NA,NA,NA,NA,NA,NA,NA,"younger","search_alone",NA,0,1
"",NA,"",NA,NA,NA,NA,NA,NA,NA,"","","5b69a09840003400016ff00f","2020-08-13_12h30.40.215","proactive2","2020.1.2","MacIntel",60,"5f341be081b9052c55068110","5f35244c236a73485a84bc0c",1,NA,NA,NA,NA,NA,"",NA,NA,NA,NA,NA,NA,NA,NA,NA,NA,1,NA,NA,NA,NA,NA,NA,NA,NA,NA,NA,NA,"","",NA,NA,NA,NA,NA,NA,NA,NA,NA,NA,NA,"stimuli/search/l.png","stimuli/search/t.png","stimuli/search/b.png","stimuli/search/t.png","stimuli/search/t.png","stimuli/search/b.png","stimuli/search/t.png","stimuli/search/b.png","[-0.23833333333333334,0.34185890236367555]","[-0.17833333333333334,0.38770932509773753]","[0.17833333333333334,0.3497282468950832]","[0.23833333333333334,0.3928879580134135]","[0.17833333333333334,-0.40992229588306095]","[0.23833333333333334,-0.4000285564844255]","[-0.23833333333333334,-0.39739873987831675]","[-0.17833333333333334,-0.3521319730430355]",0,1,1.23,8,0,8,0,1,NA,NA,NA,NA,NA,"",NA,NA,NA,"",NA,NA,NA,"",NA,NA,NA,"",NA,NA,NA,NA,NA,NA,NA,NA,"","","","","","","","","","","","","","","","",NA,NA,NA,NA,NA,NA,NA,NA,NA,NA,"younger","search_alone",NA,0,1
"",NA,"",NA,NA,NA,NA,NA,NA,NA,"","","5b69a09840003400016ff00f","2020-08-13_12h30.40.215","proactive2","2020.1.2","MacIntel",60,"5f341be081b9052c55068110","5f35244c236a73485a84bc0c",1,NA,NA,NA,NA,NA,"",NA,NA,NA,NA,NA,NA,NA,NA,NA,NA,1,NA,NA,NA,NA,NA,NA,NA,NA,NA,NA,NA,"","",NA,NA,NA,NA,NA,NA,NA,NA,NA,NA,NA,"stimuli/search/t.png","stimuli/search/b.png","stimuli/search/t.png","stimuli/search/r.png","stimuli/search/b.png","stimuli/search/t.png","stimuli/search/t.png","stimuli/search/b.png","[-0.23833333333333334,0.35446282001935014]","[-0.17833333333333334,0.3447848204965176]","[0.17833333333333334,0.41606270602868234]","[0.23833333333333334,0.3666463543205353]","[0.17833333333333334,-0.33302355570697045]","[0.23833333333333334,-0.33306499481181995]","[-0.23833333333333334,-0.3906990752173417]","[-0.17833333333333334,-0.4143239749424733]",1,0,0.889,9,0,9,0,1,NA,NA,NA,NA,NA,"",NA,NA,NA,"",NA,NA,NA,"",NA,NA,NA,"",NA,NA,NA,NA,NA,NA,NA,NA,"","","","","","","","","","","","","","","","",NA,NA,NA,NA,NA,NA,NA,NA,NA,NA,"younger","search_alone",NA,1,1
"",NA,"",NA,NA,NA,NA,NA,NA,NA,"","","5b69a09840003400016ff00f","2020-08-13_12h30.40.215","proactive2","2020.1.2","MacIntel",60,"5f341be081b9052c55068110","5f35244c236a73485a84bc0c",1,NA,NA,NA,NA,NA,"",NA,NA,NA,NA,NA,NA,NA,NA,NA,NA,1,NA,NA,NA,NA,NA,NA,NA,NA,NA,NA,NA,"","",NA,NA,NA,NA,NA,NA,NA,NA,NA,NA,NA,"stimuli/search/t.png","stimuli/search/b.png","stimuli/search/t.png","stimuli/search/b.png","stimuli/search/b.png","stimuli/search/r.png","stimuli/search/t.png","stimuli/search/b.png","[-0.23833333333333334,0.398185713702158]","[-0.17833333333333334,0.352520912482289]","[0.17833333333333334,0.3441266244864952]","[0.23833333333333334,0.41134490675990326]","[0.17833333333333334,-0.3353785986249014]","[0.23833333333333334,-0.378186963678786]","[-0.23833333333333334,-0.3711455583675251]","[-0.17833333333333334,-0.3600151924295268]",1,0,1.036,10,0,10,0,1,NA,NA,NA,NA,NA,"",NA,NA,NA,"",NA,NA,NA,"",NA,NA,NA,"",NA,NA,NA,NA,NA,NA,NA,NA,"","","","","","","","","","","","","","","","",NA,NA,NA,NA,NA,NA,NA,NA,NA,NA,"younger","search_alone",NA,1,1
"",NA,"",NA,NA,NA,NA,NA,NA,NA,"","","5b69a09840003400016ff00f","2020-08-13_12h30.40.215","proactive2","2020.1.2","MacIntel",60,"5f341be081b9052c55068110","5f35244c236a73485a84bc0c",1,NA,NA,NA,NA,NA,"",NA,NA,NA,NA,NA,NA,NA,NA,NA,NA,1,NA,NA,NA,NA,NA,NA,NA,NA,NA,NA,NA,"","",NA,NA,NA,NA,NA,NA,NA,NA,NA,NA,NA,"stimuli/search/b.png","stimuli/search/t.png","stimuli/search/b.png","stimuli/search/t.png","stimuli/search/t.png","stimuli/search/l.png","stimuli/search/b.png","stimuli/search/t.png","[-0.23833333333333334,0.33516669475365923]","[-0.17833333333333334,0.3475133095697017]","[0.17833333333333334,0.4045669645529477]","[0.23833333333333334,0.34838547969671374]","[0.17833333333333334,-0.33604652264115376]","[0.23833333333333334,-0.4013652692859188]","[-0.23833333333333334,-0.4153855766901138]","[-0.17833333333333334,-0.37715134706123704]",0,1,1.529,11,0,11,0,1,NA,NA,NA,NA,NA,"",NA,NA,NA,"",NA,NA,NA,"",NA,NA,NA,"",NA,NA,NA,NA,NA,NA,NA,NA,"","","","","","","","","","","","","","","","",NA,NA,NA,NA,NA,NA,NA,NA,NA,NA,"younger","search_alone",NA,0,1
"",NA,"",NA,NA,NA,NA,NA,NA,NA,"","","5b69a09840003400016ff00f","2020-08-13_12h30.40.215","proactive2","2020.1.2","MacIntel",60,"5f341be081b9052c55068110","5f35244c236a73485a84bc0c",1,NA,NA,NA,NA,NA,"",NA,NA,NA,NA,NA,NA,NA,NA,NA,NA,1,NA,NA,NA,NA,NA,NA,NA,NA,NA,NA,NA,"","",NA,NA,NA,NA,NA,NA,NA,NA,NA,NA,NA,"stimuli/search/b.png","stimuli/search/l.png","stimuli/search/t.png","stimuli/search/b.png","stimuli/search/b.png","stimuli/search/t.png","stimuli/search/t.png","stimuli/search/b.png","[-0.23833333333333334,0.3356464622002716]","[-0.17833333333333334,0.33559458865130076]","[0.17833333333333334,0.3374122709335023]","[0.23833333333333334,0.3695055275314306]","[0.17833333333333334,-0.36100794884687065]","[0.23833333333333334,-0.35445184611816116]","[-0.23833333333333334,-0.3777210713030832]","[-0.17833333333333334,-0.34812237916800026]",0,1,0.837,12,0,12,0,1,NA,NA,NA,NA,NA,"",NA,NA,NA,"",NA,NA,NA,"",NA,NA,NA,"",NA,NA,NA,NA,NA,NA,NA,NA,"","","","","","","","","","","","","","","","",NA,NA,NA,NA,NA,NA,NA,NA,NA,NA,"younger","search_alone",NA,0,1
"",NA,"",NA,NA,NA,NA,NA,NA,NA,"","","5b69a09840003400016ff00f","2020-08-13_12h30.40.215","proactive2","2020.1.2","MacIntel",60,"5f341be081b9052c55068110","5f35244c236a73485a84bc0c",1,NA,NA,NA,NA,NA,"",NA,NA,NA,NA,NA,NA,NA,NA,NA,NA,1,NA,NA,NA,NA,NA,NA,NA,NA,NA,NA,NA,"","",NA,NA,NA,NA,NA,NA,NA,NA,NA,NA,NA,"stimuli/search/b.png","stimuli/search/l.png","stimuli/search/t.png","stimuli/search/b.png","stimuli/search/t.png","stimuli/search/b.png","stimuli/search/t.png","stimuli/search/b.png","[-0.23833333333333334,0.32866927032314314]","[-0.17833333333333334,0.34770480822679356]","[0.17833333333333334,0.371212681631192]","[0.23833333333333334,0.3734625830051525]","[0.17833333333333334,-0.32743605976315526]","[0.23833333333333334,-0.32851287066273055]","[-0.23833333333333334,-0.39756157319368474]","[-0.17833333333333334,-0.37032486343519216]",0,1,0.534,13,0,13,0,1,NA,NA,NA,NA,NA,"",NA,NA,NA,"",NA,NA,NA,"",NA,NA,NA,"",NA,NA,NA,NA,NA,NA,NA,NA,"","","","","","","","","","","","","","","","",NA,NA,NA,NA,NA,NA,NA,NA,NA,NA,"younger","search_alone",NA,0,1
"",NA,"",NA,NA,NA,NA,NA,NA,NA,"","","5b69a09840003400016ff00f","2020-08-13_12h30.40.215","proactive2","2020.1.2","MacIntel",60,"5f341be081b9052c55068110","5f35244c236a73485a84bc0c",1,NA,NA,NA,NA,NA,"",NA,NA,NA,NA,NA,NA,NA,NA,NA,NA,1,NA,NA,NA,NA,NA,NA,NA,NA,NA,NA,NA,"","",NA,NA,NA,NA,NA,NA,NA,NA,NA,NA,NA,"stimuli/search/r.png","stimuli/search/t.png","stimuli/search/t.png","stimuli/search/b.png","stimuli/search/b.png","stimuli/search/t.png","stimuli/search/b.png","stimuli/search/t.png","[-0.23833333333333334,0.35337758270802344]","[-0.17833333333333334,0.4130817757324145]","[0.17833333333333334,0.33378479215729084]","[0.23833333333333334,0.38254391498383755]","[0.17833333333333334,-0.4161208801663455]","[0.23833333333333334,-0.36461503174379706]","[-0.23833333333333334,-0.36935859795223613]","[-0.17833333333333334,-0.33088091983421886]",1,1,1.964,14,0,14,0,1,NA,NA,NA,NA,NA,"",NA,NA,NA,"",NA,NA,NA,"",NA,NA,NA,"",NA,NA,NA,NA,NA,NA,NA,NA,"","","","","","","","","","","","","","","","",NA,NA,NA,NA,NA,NA,NA,NA,NA,NA,"younger","search_alone",NA,0,0
"",NA,"",NA,NA,NA,NA,NA,NA,NA,"","","5b69a09840003400016ff00f","2020-08-13_12h30.40.215","proactive2","2020.1.2","MacIntel",60,"5f341be081b9052c55068110","5f35244c236a73485a84bc0c",1,NA,NA,NA,NA,NA,"",NA,NA,NA,NA,NA,NA,NA,NA,NA,NA,1,NA,NA,NA,NA,NA,NA,NA,NA,NA,NA,NA,"","",NA,NA,NA,NA,NA,NA,NA,NA,NA,NA,NA,"stimuli/search/b.png","stimuli/search/t.png","stimuli/search/t.png","stimuli/search/b.png","stimuli/search/b.png","stimuli/search/t.png","stimuli/search/l.png","stimuli/search/t.png","[-0.23833333333333334,0.3383148787758991]","[-0.17833333333333334,0.36217655103726026]","[0.17833333333333334,0.353545768927656]","[0.23833333333333334,0.4000083210782047]","[0.17833333333333334,-0.3268302411844385]","[0.23833333333333334,-0.3922138373987774]","[-0.23833333333333334,-0.35164065021191543]","[-0.17833333333333334,-0.3906389801019744]",0,1,1.177,15,0,15,0,1,NA,NA,NA,NA,NA,"",NA,NA,NA,"",NA,NA,NA,"",NA,NA,NA,"",NA,NA,NA,NA,NA,NA,NA,NA,"","","","","","","","","","","","","","","","",NA,NA,NA,NA,NA,NA,NA,NA,NA,NA,"younger","search_alone",NA,0,1
"",NA,"",NA,NA,NA,NA,NA,NA,NA,"","","5b69a09840003400016ff00f","2020-08-13_12h30.40.215","proactive2","2020.1.2","MacIntel",60,"5f341be081b9052c55068110","5f35244c236a73485a84bc0c",1,NA,NA,NA,NA,NA,"",NA,NA,NA,NA,NA,NA,NA,NA,NA,NA,1,NA,NA,NA,NA,NA,NA,NA,NA,NA,NA,NA,"","",NA,NA,NA,NA,NA,NA,NA,NA,NA,NA,NA,"stimuli/search/b.png","stimuli/search/t.png","stimuli/search/b.png","stimuli/search/t.png","stimuli/search/t.png","stimuli/search/b.png","stimuli/search/b.png","stimuli/search/r.png","[-0.23833333333333334,0.3390614035529859]","[-0.17833333333333334,0.3511628077733928]","[0.17833333333333334,0.3643507444860983]","[0.23833333333333334,0.3390986355558802]","[0.17833333333333334,-0.3252624905423512]","[0.23833333333333334,-0.3462511924111762]","[-0.23833333333333334,-0.3385037366828345]","[-0.17833333333333334,-0.35621440780410896]",1,0,0.75,16,0,16,0,1,NA,NA,NA,NA,NA,"",NA,NA,NA,"",NA,NA,NA,"",NA,NA,NA,"",NA,NA,NA,NA,NA,NA,NA,NA,"","","","","","","","","","","","","","","","",NA,NA,NA,NA,NA,NA,NA,NA,NA,NA,"younger","search_alone",NA,1,1
"",NA,"",NA,NA,NA,NA,NA,NA,NA,"","","5b69a09840003400016ff00f","2020-08-13_12h30.40.215","proactive2","2020.1.2","MacIntel",60,"5f341be081b9052c55068110","5f35244c236a73485a84bc0c",1,NA,NA,NA,NA,NA,"",NA,NA,NA,NA,NA,NA,NA,NA,NA,NA,1,NA,NA,NA,NA,NA,NA,NA,NA,NA,NA,NA,"","",NA,NA,NA,NA,NA,NA,NA,NA,NA,NA,NA,"stimuli/search/b.png","stimuli/search/t.png","stimuli/search/b.png","stimuli/search/r.png","stimuli/search/b.png","stimuli/search/t.png","stimuli/search/t.png","stimuli/search/b.png","[-0.23833333333333334,0.35877054862538804]","[-0.17833333333333334,0.3537031045309724]","[0.17833333333333334,0.35684039012359087]","[0.23833333333333334,0.355147137324897]","[0.17833333333333334,-0.3432049547345279]","[0.23833333333333334,-0.354338837895024]","[-0.23833333333333334,-0.343657717548619]","[-0.17833333333333334,-0.33426976918087015]",1,0,1.302,17,0,17,0,1,NA,NA,NA,NA,NA,"",NA,NA,NA,"",NA,NA,NA,"",NA,NA,NA,"",NA,NA,NA,NA,NA,NA,NA,NA,"","","","","","","","","","","","","","","","",NA,NA,NA,NA,NA,NA,NA,NA,NA,NA,"younger","search_alone",NA,1,1
"",NA,"",NA,NA,NA,NA,NA,NA,NA,"","","5b69a09840003400016ff00f","2020-08-13_12h30.40.215","proactive2","2020.1.2","MacIntel",60,"5f341be081b9052c55068110","5f35244c236a73485a84bc0c",1,NA,NA,NA,NA,NA,"",NA,NA,NA,NA,NA,NA,NA,NA,NA,NA,1,NA,NA,NA,NA,NA,NA,NA,NA,NA,NA,NA,"","",NA,NA,NA,NA,NA,NA,NA,NA,NA,NA,NA,"stimuli/search/t.png","stimuli/search/b.png","stimuli/search/b.png","stimuli/search/t.png","stimuli/search/r.png","stimuli/search/b.png","stimuli/search/b.png","stimuli/search/t.png","[-0.23833333333333334,0.32773941581093713]","[-0.17833333333333334,0.3976733242006235]","[0.17833333333333334,0.3663379422915231]","[0.23833333333333334,0.36301106768930214]","[0.17833333333333334,-0.3435446895770907]","[0.23833333333333334,-0.332776607687168]","[-0.23833333333333334,-0.3342860316667063]","[-0.17833333333333334,-0.38056081325891383]",1,0,1.397,18,0,18,0,1,NA,NA,NA,NA,NA,"",NA,NA,NA,"",NA,NA,NA,"",NA,NA,NA,"",NA,NA,NA,NA,NA,NA,NA,NA,"","","","","","","","","","","","","","","","",NA,NA,NA,NA,NA,NA,NA,NA,NA,NA,"younger","search_alone",NA,1,1
"",NA,"",NA,NA,NA,NA,NA,NA,NA,"","","5b69a09840003400016ff00f","2020-08-13_12h30.40.215","proactive2","2020.1.2","MacIntel",60,"5f341be081b9052c55068110","5f35244c236a73485a84bc0c",1,NA,NA,NA,NA,NA,"",NA,NA,NA,NA,NA,NA,NA,NA,NA,NA,1,NA,NA,NA,NA,NA,NA,NA,NA,NA,NA,NA,"","",NA,NA,NA,NA,NA,NA,NA,NA,NA,NA,NA,"stimuli/search/t.png","stimuli/search/b.png","stimuli/search/b.png","stimuli/search/t.png","stimuli/search/r.png","stimuli/search/b.png","stimuli/search/b.png","stimuli/search/t.png","[-0.23833333333333334,0.38491125650810853]","[-0.17833333333333334,0.41550679066012786]","[0.17833333333333334,0.36447028376057217]","[0.23833333333333334,0.3725524565695661]","[0.17833333333333334,-0.39969096138510674]","[0.23833333333333334,-0.33447116351650075]","[-0.23833333333333334,-0.3857144715185957]","[-0.17833333333333334,-0.3545201358613]",1,0,0.894,19,0,19,0,1,NA,NA,NA,NA,NA,"",NA,NA,NA,"",NA,NA,NA,"",NA,NA,NA,"",NA,NA,NA,NA,NA,NA,NA,NA,"","","","","","","","","","","","","","","","",NA,NA,NA,NA,NA,NA,NA,NA,NA,NA,"younger","search_alone",NA,1,1
"",NA,"",NA,NA,NA,NA,NA,NA,NA,"","","5b69a09840003400016ff00f","2020-08-13_12h30.40.215","proactive2","2020.1.2","MacIntel",60,"5f341be081b9052c55068110","5f35244c236a73485a84bc0c",1,NA,NA,NA,NA,NA,"",NA,NA,NA,NA,NA,NA,NA,NA,NA,NA,1,NA,NA,NA,NA,NA,NA,NA,NA,NA,NA,NA,"","",NA,NA,NA,NA,NA,NA,NA,NA,NA,NA,NA,"stimuli/search/t.png","stimuli/search/b.png","stimuli/search/t.png","stimuli/search/l.png","stimuli/search/t.png","stimuli/search/b.png","stimuli/search/t.png","stimuli/search/b.png","[-0.23833333333333334,0.3963185593966409]","[-0.17833333333333334,0.3932505624590191]","[0.17833333333333334,0.40680564186792845]","[0.23833333333333334,0.359932899792881]","[0.17833333333333334,-0.4106394173063711]","[0.23833333333333334,-0.3737624575464446]","[-0.23833333333333334,-0.34710826884752033]","[-0.17833333333333334,-0.4083414029336208]",0,1,1.304,NA,NA,NA,NA,NA,NA,NA,NA,NA,NA,"",NA,NA,NA,"",NA,NA,NA,"",NA,NA,NA,"",NA,NA,NA,NA,NA,NA,NA,NA,"","","","","","","","","","","","","","","","",0,0,0,0,1,NA,NA,NA,NA,NA,"younger","wm",4,0,1
"",NA,"",NA,NA,NA,NA,NA,NA,NA,"","","5b69a09840003400016ff00f","2020-08-13_12h30.40.215","proactive2","2020.1.2","MacIntel",60,"5f341be081b9052c55068110","5f35244c236a73485a84bc0c",1,NA,NA,NA,NA,NA,"",NA,NA,NA,NA,NA,NA,NA,NA,NA,NA,1,NA,NA,NA,NA,NA,NA,NA,NA,NA,NA,NA,"","",NA,NA,NA,NA,NA,NA,NA,NA,NA,NA,NA,"stimuli/search/t.png","stimuli/search/b.png","stimuli/search/b.png","stimuli/search/t.png","stimuli/search/t.png","stimuli/search/b.png","stimuli/search/l.png","stimuli/search/b.png","[-0.23833333333333334,0.34908587262754703]","[-0.17833333333333334,0.32966976215513394]","[0.17833333333333334,0.4142306628808079]","[0.23833333333333334,0.3754715213239084]","[0.17833333333333334,-0.3309904461299422]","[0.23833333333333334,-0.39645551788113753]","[-0.23833333333333334,-0.3891521654837832]","[-0.17833333333333334,-0.3938745451656223]",0,1,1.068,NA,NA,NA,NA,NA,NA,NA,NA,NA,NA,"",NA,NA,NA,"",NA,NA,NA,"",NA,NA,NA,"",NA,NA,NA,NA,NA,NA,NA,NA,"","","","","","","","","","","","","","","","",0,0,0,0,1,NA,NA,NA,NA,NA,"younger","wm",5,0,1
"",NA,"",NA,NA,NA,NA,NA,NA,NA,"","","5b69a09840003400016ff00f","2020-08-13_12h30.40.215","proactive2","2020.1.2","MacIntel",60,"5f341be081b9052c55068110","5f35244c236a73485a84bc0c",1,NA,NA,NA,NA,NA,"",NA,NA,NA,NA,NA,NA,NA,NA,NA,NA,1,NA,NA,NA,NA,NA,NA,NA,NA,NA,NA,NA,"","",NA,NA,NA,NA,NA,NA,NA,NA,NA,NA,NA,"stimuli/search/t.png","stimuli/search/b.png","stimuli/search/t.png","stimuli/search/l.png","stimuli/search/b.png","stimuli/search/t.png","stimuli/search/t.png","stimuli/search/b.png","[-0.23833333333333334,0.39283061138058273]","[-0.17833333333333334,0.34110231498964616]","[0.17833333333333334,0.40846366054906735]","[0.23833333333333334,0.3530087340022225]","[0.17833333333333334,-0.3571503114586906]","[0.23833333333333334,-0.3460582993781307]","[-0.23833333333333334,-0.3290977524094349]","[-0.17833333333333334,-0.37675477452691847]",0,1,1.212,NA,NA,NA,NA,NA,NA,NA,NA,NA,NA,"",NA,NA,NA,"",NA,NA,NA,"",NA,NA,NA,"",NA,NA,NA,NA,NA,NA,NA,NA,"","","","","","","","","","","","","","","","",0,0,0,0,1,NA,NA,NA,NA,NA,"younger","wm",6,0,1
"",NA,"",NA,NA,NA,NA,NA,NA,NA,"","","5b69a09840003400016ff00f","2020-08-13_12h30.40.215","proactive2","2020.1.2","MacIntel",60,"5f341be081b9052c55068110","5f35244c236a73485a84bc0c",1,NA,NA,NA,NA,NA,"",NA,NA,NA,NA,NA,NA,NA,NA,NA,NA,1,NA,NA,NA,NA,NA,NA,NA,NA,NA,NA,NA,"","",NA,NA,NA,NA,NA,NA,NA,NA,NA,NA,NA,"stimuli/search/l.png","stimuli/search/t.png","stimuli/search/t.png","stimuli/search/b.png","stimuli/search/t.png","stimuli/search/b.png","stimuli/search/b.png","stimuli/search/t.png","[-0.23833333333333334,0.32456755027466166]","[-0.17833333333333334,0.3400585250846888]","[0.17833333333333334,0.3338058929328878]","[0.23833333333333334,0.3384233995570955]","[0.17833333333333334,-0.41170716213449865]","[0.23833333333333334,-0.4151067911451361]","[-0.23833333333333334,-0.3918706527668246]","[-0.17833333333333334,-0.4072915324011351]",0,1,1.015,NA,NA,NA,NA,NA,NA,NA,NA,NA,NA,"",NA,NA,NA,"",NA,NA,NA,"",NA,NA,NA,"",NA,NA,NA,NA,NA,NA,NA,NA,"","","","","","","","","","","","","","","","",0,0,0,0,1,NA,NA,NA,NA,NA,"younger","wm",7,0,1
"",NA,"",NA,NA,NA,NA,NA,NA,NA,"","","5b69a09840003400016ff00f","2020-08-13_12h30.40.215","proactive2","2020.1.2","MacIntel",60,"5f341be081b9052c55068110","5f35244c236a73485a84bc0c",1,NA,NA,NA,NA,NA,"",NA,NA,NA,NA,NA,NA,NA,NA,NA,NA,1,NA,NA,NA,NA,NA,NA,NA,NA,NA,NA,NA,"","",NA,NA,NA,NA,NA,NA,NA,NA,NA,NA,NA,"stimuli/search/b.png","stimuli/search/t.png","stimuli/search/t.png","stimuli/search/b.png","stimuli/search/t.png","stimuli/search/b.png","stimuli/search/l.png","stimuli/search/t.png","[-0.23833333333333334,0.38753824108612]","[-0.17833333333333334,0.3809881040116079]","[0.17833333333333334,0.38061398835697224]","[0.23833333333333334,0.32869035437695504]","[0.17833333333333334,-0.40193148118334676]","[0.23833333333333334,-0.34839832018556627]","[-0.23833333333333334,-0.3369674933710929]","[-0.17833333333333334,-0.3486375126879395]",0,1,1.893,NA,NA,NA,NA,NA,NA,NA,NA,NA,NA,"",NA,NA,NA,"",NA,NA,NA,"",NA,NA,NA,"",NA,NA,NA,NA,NA,NA,NA,NA,"","","","","","","","","","","","","","","","",0,0,0,0,1,NA,NA,NA,NA,NA,"younger","wm",8,0,1
"",NA,"",NA,NA,NA,NA,NA,NA,NA,"","","5b69a09840003400016ff00f","2020-08-13_12h30.40.215","proactive2","2020.1.2","MacIntel",60,"5f341be081b9052c55068110","5f35244c236a73485a84bc0c",1,NA,NA,NA,NA,NA,"",NA,NA,NA,NA,NA,NA,NA,NA,NA,NA,1,NA,NA,NA,NA,NA,NA,NA,NA,NA,NA,NA,"","",NA,NA,NA,NA,NA,NA,NA,NA,NA,NA,NA,"stimuli/search/b.png","stimuli/search/t.png","stimuli/search/r.png","stimuli/search/t.png","stimuli/search/t.png","stimuli/search/b.png","stimuli/search/b.png","stimuli/search/t.png","[-0.23833333333333334,0.3952383366695234]","[-0.17833333333333334,0.32703367729725275]","[0.17833333333333334,0.36751952729467263]","[0.23833333333333334,0.36378844523562526]","[0.17833333333333334,-0.3979195082808178]","[0.23833333333333334,-0.37701283375658695]","[-0.23833333333333334,-0.41059918770059395]","[-0.17833333333333334,-0.3631194873790751]",1,0,1.546,NA,NA,NA,NA,NA,NA,NA,NA,NA,NA,"",NA,NA,NA,"",NA,NA,NA,"",NA,NA,NA,"",NA,NA,NA,NA,NA,NA,NA,NA,"","","","","","","","","","","","","","","","",0,0,0,0,1,NA,NA,NA,NA,NA,"younger","wm",9,1,1
"",NA,"",NA,NA,NA,NA,NA,NA,NA,"","","5b69a09840003400016ff00f","2020-08-13_12h30.40.215","proactive2","2020.1.2","MacIntel",60,"5f341be081b9052c55068110","5f35244c236a73485a84bc0c",1,NA,NA,NA,NA,NA,"",NA,NA,NA,NA,NA,NA,NA,NA,NA,NA,1,NA,NA,NA,NA,NA,NA,NA,NA,NA,NA,NA,"","",NA,NA,NA,NA,NA,NA,NA,NA,NA,NA,NA,"stimuli/search/b.png","stimuli/search/t.png","stimuli/search/t.png","stimuli/search/b.png","stimuli/search/t.png","stimuli/search/l.png","stimuli/search/b.png","stimuli/search/t.png","[-0.23833333333333334,0.4140640412734807]","[-0.17833333333333334,0.37944543477172527]","[0.17833333333333334,0.37489844928938004]","[0.23833333333333334,0.3921215485343766]","[0.17833333333333334,-0.35951287860945735]","[0.23833333333333334,-0.33010871245011486]","[-0.23833333333333334,-0.4085175229795795]","[-0.17833333333333334,-0.3296681081392025]",0,1,1.513,NA,NA,NA,NA,NA,NA,NA,NA,NA,NA,"",NA,NA,NA,"",NA,NA,NA,"",NA,NA,NA,"",NA,NA,NA,NA,NA,NA,NA,NA,"","","","","","","","","","","","","","","","",0,0,0,0,1,NA,NA,NA,NA,NA,"younger","wm",10,0,1
"",NA,"",NA,NA,NA,NA,NA,NA,NA,"","","5b69a09840003400016ff00f","2020-08-13_12h30.40.215","proactive2","2020.1.2","MacIntel",60,"5f341be081b9052c55068110","5f35244c236a73485a84bc0c",1,NA,NA,NA,NA,NA,"",NA,NA,NA,NA,NA,NA,NA,NA,NA,NA,1,NA,NA,NA,NA,NA,NA,NA,NA,NA,NA,NA,"","",NA,NA,NA,NA,NA,NA,NA,NA,NA,NA,NA,"stimuli/search/t.png","stimuli/search/b.png","stimuli/search/b.png","stimuli/search/t.png","stimuli/search/b.png","stimuli/search/t.png","stimuli/search/t.png","stimuli/search/l.png","[-0.23833333333333334,0.4111584373290289]","[-0.17833333333333334,0.4034620905146252]","[0.17833333333333334,0.34471557555695337]","[0.23833333333333334,0.33865315604557894]","[0.17833333333333334,-0.33875840624083586]","[0.23833333333333334,-0.363715847976619]","[-0.23833333333333334,-0.40926787196736153]","[-0.17833333333333334,-0.3861478646423326]",0,1,1.168,NA,NA,NA,NA,NA,NA,NA,NA,NA,NA,"",NA,NA,NA,"",NA,NA,NA,"",NA,NA,NA,"",NA,NA,NA,NA,NA,NA,NA,NA,"","","","","","","","","","","","","","","","",0,0,0,0,1,NA,NA,NA,NA,NA,"younger","wm",11,0,1
"",NA,"",NA,NA,NA,NA,NA,NA,NA,"","","5b69a09840003400016ff00f","2020-08-13_12h30.40.215","proactive2","2020.1.2","MacIntel",60,"5f341be081b9052c55068110","5f35244c236a73485a84bc0c",1,NA,NA,NA,NA,NA,"",NA,NA,NA,NA,NA,NA,NA,NA,NA,NA,1,NA,NA,NA,NA,NA,NA,NA,NA,NA,NA,NA,"","",NA,NA,NA,NA,NA,NA,NA,NA,NA,NA,NA,"stimuli/search/t.png","stimuli/search/b.png","stimuli/search/b.png","stimuli/search/t.png","stimuli/search/r.png","stimuli/search/t.png","stimuli/search/t.png","stimuli/search/b.png","[-0.23833333333333334,0.4056250074736232]","[-0.17833333333333334,0.4133281760486392]","[0.17833333333333334,0.4045289004268674]","[0.23833333333333334,0.3620460657962492]","[0.17833333333333334,-0.3864297393156033]","[0.23833333333333334,-0.394453961450418]","[-0.23833333333333334,-0.4070074505420006]","[-0.17833333333333334,-0.3557296596497519]",1,0,1.152,NA,NA,NA,NA,NA,NA,NA,NA,NA,NA,"",NA,NA,NA,"",NA,NA,NA,"",NA,NA,NA,"",NA,NA,NA,NA,NA,NA,NA,NA,"","","","","","","","","","","","","","","","",0,0,0,0,1,NA,NA,NA,NA,NA,"younger","wm",12,1,1
"",NA,"",NA,NA,NA,NA,NA,NA,NA,"","","5b69a09840003400016ff00f","2020-08-13_12h30.40.215","proactive2","2020.1.2","MacIntel",60,"5f341be081b9052c55068110","5f35244c236a73485a84bc0c",1,NA,NA,NA,NA,NA,"",NA,NA,NA,NA,NA,NA,NA,NA,NA,NA,1,NA,NA,NA,NA,NA,NA,NA,NA,NA,NA,NA,"","",NA,NA,NA,NA,NA,NA,NA,NA,NA,NA,NA,"stimuli/search/b.png","stimuli/search/t.png","stimuli/search/b.png","stimuli/search/t.png","stimuli/search/b.png","stimuli/search/t.png","stimuli/search/l.png","stimuli/search/b.png","[-0.23833333333333334,0.3699685351940503]","[-0.17833333333333334,0.40283933076630457]","[0.17833333333333334,0.3261393933652218]","[0.23833333333333334,0.36726646604940466]","[0.17833333333333334,-0.3931943385466927]","[0.23833333333333334,-0.3631442983153043]","[-0.23833333333333334,-0.4029339261614405]","[-0.17833333333333334,-0.3492582852811245]",0,1,0.879,NA,NA,NA,NA,NA,NA,NA,NA,NA,NA,"",NA,NA,NA,"",NA,NA,NA,"",NA,NA,NA,"",NA,NA,NA,NA,NA,NA,NA,NA,"","","","","","","","","","","","","","","","",0,0,0,0,1,NA,NA,NA,NA,NA,"younger","wm",13,0,1
"",NA,"",NA,NA,NA,NA,NA,NA,NA,"","","5b69a09840003400016ff00f","2020-08-13_12h30.40.215","proactive2","2020.1.2","MacIntel",60,"5f341be081b9052c55068110","5f35244c236a73485a84bc0c",1,NA,NA,NA,NA,NA,"",NA,NA,NA,NA,NA,NA,NA,NA,NA,NA,1,NA,NA,NA,NA,NA,NA,NA,NA,NA,NA,NA,"","",NA,NA,NA,NA,NA,NA,NA,NA,NA,NA,NA,"stimuli/search/b.png","stimuli/search/l.png","stimuli/search/b.png","stimuli/search/t.png","stimuli/search/b.png","stimuli/search/t.png","stimuli/search/b.png","stimuli/search/t.png","[-0.23833333333333334,0.40722377042136926]","[-0.17833333333333334,0.38354731568242384]","[0.17833333333333334,0.4052517374167374]","[0.23833333333333334,0.36731533654243803]","[0.17833333333333334,-0.378136517950465]","[0.23833333333333334,-0.3430048064039073]","[-0.23833333333333334,-0.3347033370904708]","[-0.17833333333333334,-0.37962363801003973]",0,1,0.9,NA,NA,NA,NA,NA,NA,NA,NA,NA,NA,"",NA,NA,NA,"",NA,NA,NA,"",NA,NA,NA,"",NA,NA,NA,NA,NA,NA,NA,NA,"","","","","","","","","","","","","","","","",0,0,0,0,1,NA,NA,NA,NA,NA,"younger","wm",14,0,1
"",NA,"",NA,NA,NA,NA,NA,NA,NA,"","","5b69a09840003400016ff00f","2020-08-13_12h30.40.215","proactive2","2020.1.2","MacIntel",60,"5f341be081b9052c55068110","5f35244c236a73485a84bc0c",1,NA,NA,NA,NA,NA,"",NA,NA,NA,NA,NA,NA,NA,NA,NA,NA,1,NA,NA,NA,NA,NA,NA,NA,NA,NA,NA,NA,"","",NA,NA,NA,NA,NA,NA,NA,NA,NA,NA,NA,"stimuli/search/l.png","stimuli/search/t.png","stimuli/search/b.png","stimuli/search/t.png","stimuli/search/b.png","stimuli/search/t.png","stimuli/search/b.png","stimuli/search/t.png","[-0.23833333333333334,0.3744770926268876]","[-0.17833333333333334,0.39520341333265424]","[0.17833333333333334,0.352596522546525]","[0.23833333333333334,0.34713709621420386]","[0.17833333333333334,-0.3383824079341737]","[0.23833333333333334,-0.3455835576932358]","[-0.23833333333333334,-0.41449768778603946]","[-0.17833333333333334,-0.3901743621511035]",0,1,1.663,NA,NA,NA,NA,NA,NA,NA,NA,NA,NA,"",NA,NA,NA,"",NA,NA,NA,"",NA,NA,NA,"",NA,NA,NA,NA,NA,NA,NA,NA,"","","","","","","","","","","","","","","","",0,0,0,0,1,NA,NA,NA,NA,NA,"younger","wm",15,0,1
"",NA,"",NA,NA,NA,NA,NA,NA,NA,"","","5b69a09840003400016ff00f","2020-08-13_12h30.40.215","proactive2","2020.1.2","MacIntel",60,"5f341be081b9052c55068110","5f35244c236a73485a84bc0c",1,NA,NA,NA,NA,NA,"",NA,NA,NA,NA,NA,NA,NA,NA,NA,NA,1,NA,NA,NA,NA,NA,NA,NA,NA,NA,NA,NA,"","",NA,NA,NA,NA,NA,NA,NA,NA,NA,NA,NA,"stimuli/search/b.png","stimuli/search/t.png","stimuli/search/b.png","stimuli/search/t.png","stimuli/search/t.png","stimuli/search/b.png","stimuli/search/l.png","stimuli/search/t.png","[-0.23833333333333334,0.36884339649756004]","[-0.17833333333333334,0.3725819868080482]","[0.17833333333333334,0.38531976455914935]","[0.23833333333333334,0.37054378452168324]","[0.17833333333333334,-0.3528976030799716]","[0.23833333333333334,-0.3646665536403604]","[-0.23833333333333334,-0.3539759853183006]","[-0.17833333333333334,-0.4037466936208746]",0,1,0.884,NA,NA,NA,NA,NA,NA,NA,NA,NA,NA,"",NA,NA,NA,"",NA,NA,NA,"",NA,NA,NA,"",NA,NA,NA,NA,NA,NA,NA,NA,"","","","","","","","","","","","","","","","",0,0,0,0,1,NA,NA,NA,NA,NA,"younger","wm",16,0,1
"",NA,"",NA,NA,NA,NA,NA,NA,NA,"","","5b69a09840003400016ff00f","2020-08-13_12h30.40.215","proactive2","2020.1.2","MacIntel",60,"5f341be081b9052c55068110","5f35244c236a73485a84bc0c",1,NA,NA,NA,NA,NA,"",NA,NA,NA,NA,NA,NA,NA,NA,NA,NA,1,NA,NA,NA,NA,NA,NA,NA,NA,NA,NA,NA,"","",NA,NA,NA,NA,NA,NA,NA,NA,NA,NA,NA,"stimuli/search/r.png","stimuli/search/t.png","stimuli/search/t.png","stimuli/search/b.png","stimuli/search/b.png","stimuli/search/t.png","stimuli/search/b.png","stimuli/search/t.png","[-0.23833333333333334,0.37972579291206615]","[-0.17833333333333334,0.3627577247769824]","[0.17833333333333334,0.404035323359829]","[0.23833333333333334,0.41459305205165947]","[0.17833333333333334,-0.387094679524044]","[0.23833333333333334,-0.3702383475345933]","[-0.23833333333333334,-0.3871264587914578]","[-0.17833333333333334,-0.3309958104090806]",1,0,1.826,NA,NA,NA,NA,NA,NA,NA,NA,NA,NA,"",NA,NA,NA,"",NA,NA,NA,"",NA,NA,NA,"",NA,NA,NA,NA,NA,NA,NA,NA,"","","","","","","","","","","","","","","","",0,0,0,0,1,NA,NA,NA,NA,NA,"younger","wm",17,1,1
"",NA,"",NA,NA,NA,NA,NA,NA,NA,"","","5b69a09840003400016ff00f","2020-08-13_12h30.40.215","proactive2","2020.1.2","MacIntel",60,"5f341be081b9052c55068110","5f35244c236a73485a84bc0c",1,NA,NA,NA,NA,NA,"",NA,NA,NA,NA,NA,NA,NA,NA,NA,NA,1,NA,NA,NA,NA,NA,NA,NA,NA,NA,NA,NA,"","",NA,NA,NA,NA,NA,NA,NA,NA,NA,NA,NA,"stimuli/search/b.png","stimuli/search/t.png","stimuli/search/t.png","stimuli/search/b.png","stimuli/search/b.png","stimuli/search/r.png","stimuli/search/t.png","stimuli/search/b.png","[-0.23833333333333334,0.4012162825393031]","[-0.17833333333333334,0.4060258228981626]","[0.17833333333333334,0.3852496752937117]","[0.23833333333333334,0.32454585689577753]","[0.17833333333333334,-0.35500031064994747]","[0.23833333333333334,-0.3940819169533658]","[-0.23833333333333334,-0.38860345483943076]","[-0.17833333333333334,-0.3674874818838012]",1,0,1.287,NA,NA,NA,NA,NA,NA,NA,NA,NA,NA,"",NA,NA,NA,"",NA,NA,NA,"",NA,NA,NA,"",NA,NA,NA,NA,NA,NA,NA,NA,"","","","","","","","","","","","","","","","",0,0,0,0,1,NA,NA,NA,NA,NA,"younger","wm",18,1,1
"",NA,"",NA,NA,NA,NA,NA,NA,NA,"","","5b69a09840003400016ff00f","2020-08-13_12h30.40.215","proactive2","2020.1.2","MacIntel",60,"5f341be081b9052c55068110","5f35244c236a73485a84bc0c",1,NA,NA,NA,NA,NA,"",NA,NA,NA,NA,NA,NA,NA,NA,NA,NA,1,NA,NA,NA,NA,NA,NA,NA,NA,NA,NA,NA,"","",NA,NA,NA,NA,NA,NA,NA,NA,NA,NA,NA,"stimuli/search/b.png","stimuli/search/t.png","stimuli/search/r.png","stimuli/search/t.png","stimuli/search/t.png","stimuli/search/b.png","stimuli/search/t.png","stimuli/search/b.png","[-0.23833333333333334,0.36260893170742076]","[-0.17833333333333334,0.3839471209858794]","[0.17833333333333334,0.33979574040491334]","[0.23833333333333334,0.3494978167408688]","[0.17833333333333334,-0.40499120130721494]","[0.23833333333333334,-0.34134451439652375]","[-0.23833333333333334,-0.3573854545228277]","[-0.17833333333333334,-0.3242131068757398]",1,NA,NA,NA,NA,NA,NA,NA,NA,NA,NA,NA,NA,"",NA,NA,NA,"",NA,NA,NA,"",NA,NA,NA,"",NA,NA,NA,NA,NA,NA,NA,NA,"","","","","","","","","","","","","","","","",0,0,0,0,1,NA,NA,NA,NA,NA,"younger","wm",19,NA,0
"",NA,"",NA,NA,NA,NA,NA,NA,NA,"","","5ef73070d195c2437d142a72","2020-08-13_12h34.25.842","proactive2","2020.1.2","Win32",60,"5f341be081b9052c55068110","5f352527d5256d4848c45b70",6,NA,NA,NA,NA,NA,"",NA,NA,NA,NA,NA,NA,NA,NA,NA,NA,6,NA,NA,NA,NA,NA,NA,NA,NA,NA,NA,NA,"","",NA,NA,NA,NA,NA,NA,NA,NA,NA,NA,NA,"stimuli/search/t.png","stimuli/search/b.png","stimuli/search/l.png","stimuli/search/b.png","stimuli/search/t.png","stimuli/search/b.png","stimuli/search/b.png","stimuli/search/t.png","[-0.23833333333333334,0.3394413513126304]","[-0.17833333333333334,0.35645866772384227]","[0.17833333333333334,0.32527896247805566]","[0.23833333333333334,0.416151298071213]","[0.17833333333333334,-0.3736289263726677]","[0.23833333333333334,-0.4047665242446248]","[-0.23833333333333334,-0.4061464104980538]","[-0.17833333333333334,-0.3951104554573231]",0,1,1.662225,4,0,4,0,1,NA,NA,NA,NA,NA,"",NA,NA,NA,"",NA,NA,NA,"",NA,NA,NA,"",NA,NA,NA,NA,NA,NA,NA,NA,"","","","","","","","","","","","","","","","",NA,NA,NA,NA,NA,NA,NA,NA,NA,NA,"younger","search_alone",NA,0,1
"",NA,"",NA,NA,NA,NA,NA,NA,NA,"","","5ef73070d195c2437d142a72","2020-08-13_12h34.25.842","proactive2","2020.1.2","Win32",60,"5f341be081b9052c55068110","5f352527d5256d4848c45b70",6,NA,NA,NA,NA,NA,"",NA,NA,NA,NA,NA,NA,NA,NA,NA,NA,6,NA,NA,NA,NA,NA,NA,NA,NA,NA,NA,NA,"","",NA,NA,NA,NA,NA,NA,NA,NA,NA,NA,NA,"stimuli/search/l.png","stimuli/search/b.png","stimuli/search/t.png","stimuli/search/b.png","stimuli/search/t.png","stimuli/search/b.png","stimuli/search/b.png","stimuli/search/t.png","[-0.23833333333333334,0.3787846802337492]","[-0.17833333333333334,0.38845350845737536]","[0.17833333333333334,0.382821721698172]","[0.23833333333333334,0.3664256719092452]","[0.17833333333333334,-0.3414939969035986]","[0.23833333333333334,-0.3261898426621416]","[-0.23833333333333334,-0.4005170571303446]","[-0.17833333333333334,-0.3697183072535107]",0,1,1.19419,5,0,5,0,1,NA,NA,NA,NA,NA,"",NA,NA,NA,"",NA,NA,NA,"",NA,NA,NA,"",NA,NA,NA,NA,NA,NA,NA,NA,"","","","","","","","","","","","","","","","",NA,NA,NA,NA,NA,NA,NA,NA,NA,NA,"younger","search_alone",NA,0,1
"",NA,"",NA,NA,NA,NA,NA,NA,NA,"","","5ef73070d195c2437d142a72","2020-08-13_12h34.25.842","proactive2","2020.1.2","Win32",60,"5f341be081b9052c55068110","5f352527d5256d4848c45b70",6,NA,NA,NA,NA,NA,"",NA,NA,NA,NA,NA,NA,NA,NA,NA,NA,6,NA,NA,NA,NA,NA,NA,NA,NA,NA,NA,NA,"","",NA,NA,NA,NA,NA,NA,NA,NA,NA,NA,NA,"stimuli/search/b.png","stimuli/search/r.png","stimuli/search/b.png","stimuli/search/t.png","stimuli/search/t.png","stimuli/search/b.png","stimuli/search/t.png","stimuli/search/b.png","[-0.23833333333333334,0.36918965457993186]","[-0.17833333333333334,0.34346638261160184]","[0.17833333333333334,0.40459529752586126]","[0.23833333333333334,0.40610414481070595]","[0.17833333333333334,-0.3776063035049636]","[0.23833333333333334,-0.32729325493185624]","[-0.23833333333333334,-0.3801462669528881]","[-0.17833333333333334,-0.3717962265999431]",1,0,0.75591,6,0,6,0,1,NA,NA,NA,NA,NA,"",NA,NA,NA,"",NA,NA,NA,"",NA,NA,NA,"",NA,NA,NA,NA,NA,NA,NA,NA,"","","","","","","","","","","","","","","","",NA,NA,NA,NA,NA,NA,NA,NA,NA,NA,"younger","search_alone",NA,1,1
"",NA,"",NA,NA,NA,NA,NA,NA,NA,"","","5ef73070d195c2437d142a72","2020-08-13_12h34.25.842","proactive2","2020.1.2","Win32",60,"5f341be081b9052c55068110","5f352527d5256d4848c45b70",6,NA,NA,NA,NA,NA,"",NA,NA,NA,NA,NA,NA,NA,NA,NA,NA,6,NA,NA,NA,NA,NA,NA,NA,NA,NA,NA,NA,"","",NA,NA,NA,NA,NA,NA,NA,NA,NA,NA,NA,"stimuli/search/t.png","stimuli/search/b.png","stimuli/search/b.png","stimuli/search/t.png","stimuli/search/t.png","stimuli/search/b.png","stimuli/search/b.png","stimuli/search/l.png","[-0.23833333333333334,0.3740573752026045]","[-0.17833333333333334,0.334743804603785]","[0.17833333333333334,0.32932151034876656]","[0.23833333333333334,0.38495219561700206]","[0.17833333333333334,-0.4072673393646211]","[0.23833333333333334,-0.39244923844750534]","[-0.23833333333333334,-0.3727152108578444]","[-0.17833333333333334,-0.4002508017960625]",0,1,1.093275,7,0,7,0,1,NA,NA,NA,NA,NA,"",NA,NA,NA,"",NA,NA,NA,"",NA,NA,NA,"",NA,NA,NA,NA,NA,NA,NA,NA,"","","","","","","","","","","","","","","","",NA,NA,NA,NA,NA,NA,NA,NA,NA,NA,"younger","search_alone",NA,0,1
"",NA,"",NA,NA,NA,NA,NA,NA,NA,"","","5ef73070d195c2437d142a72","2020-08-13_12h34.25.842","proactive2","2020.1.2","Win32",60,"5f341be081b9052c55068110","5f352527d5256d4848c45b70",6,NA,NA,NA,NA,NA,"",NA,NA,NA,NA,NA,NA,NA,NA,NA,NA,6,NA,NA,NA,NA,NA,NA,NA,NA,NA,NA,NA,"","",NA,NA,NA,NA,NA,NA,NA,NA,NA,NA,NA,"stimuli/search/b.png","stimuli/search/t.png","stimuli/search/t.png","stimuli/search/b.png","stimuli/search/t.png","stimuli/search/b.png","stimuli/search/r.png","stimuli/search/b.png","[-0.23833333333333334,0.3738869872801862]","[-0.17833333333333334,0.4020457581335981]","[0.17833333333333334,0.38152943940324713]","[0.23833333333333334,0.3355292866492634]","[0.17833333333333334,-0.3289103667201636]","[0.23833333333333334,-0.39416008146767806]","[-0.23833333333333334,-0.409614843259411]","[-0.17833333333333334,-0.36407708818311774]",1,0,1.012885,8,0,8,0,1,NA,NA,NA,NA,NA,"",NA,NA,NA,"",NA,NA,NA,"",NA,NA,NA,"",NA,NA,NA,NA,NA,NA,NA,NA,"","","","","","","","","","","","","","","","",NA,NA,NA,NA,NA,NA,NA,NA,NA,NA,"younger","search_alone",NA,1,1
"",NA,"",NA,NA,NA,NA,NA,NA,NA,"","","5ef73070d195c2437d142a72","2020-08-13_12h34.25.842","proactive2","2020.1.2","Win32",60,"5f341be081b9052c55068110","5f352527d5256d4848c45b70",6,NA,NA,NA,NA,NA,"",NA,NA,NA,NA,NA,NA,NA,NA,NA,NA,6,NA,NA,NA,NA,NA,NA,NA,NA,NA,NA,NA,"","",NA,NA,NA,NA,NA,NA,NA,NA,NA,NA,NA,"stimuli/search/b.png","stimuli/search/t.png","stimuli/search/b.png","stimuli/search/t.png","stimuli/search/t.png","stimuli/search/r.png","stimuli/search/b.png","stimuli/search/t.png","[-0.23833333333333334,0.41465411014752496]","[-0.17833333333333334,0.41029617077568437]","[0.17833333333333334,0.41062724188555666]","[0.23833333333333334,0.3888153552498746]","[0.17833333333333334,-0.3596250177090574]","[0.23833333333333334,-0.32457939391559054]","[-0.23833333333333334,-0.35597280006052495]","[-0.17833333333333334,-0.3446195322644632]",1,0,1.314085,9,0,9,0,1,NA,NA,NA,NA,NA,"",NA,NA,NA,"",NA,NA,NA,"",NA,NA,NA,"",NA,NA,NA,NA,NA,NA,NA,NA,"","","","","","","","","","","","","","","","",NA,NA,NA,NA,NA,NA,NA,NA,NA,NA,"younger","search_alone",NA,1,1
"",NA,"",NA,NA,NA,NA,NA,NA,NA,"","","5ef73070d195c2437d142a72","2020-08-13_12h34.25.842","proactive2","2020.1.2","Win32",60,"5f341be081b9052c55068110","5f352527d5256d4848c45b70",6,NA,NA,NA,NA,NA,"",NA,NA,NA,NA,NA,NA,NA,NA,NA,NA,6,NA,NA,NA,NA,NA,NA,NA,NA,NA,NA,NA,"","",NA,NA,NA,NA,NA,NA,NA,NA,NA,NA,NA,"stimuli/search/b.png","stimuli/search/t.png","stimuli/search/t.png","stimuli/search/b.png","stimuli/search/b.png","stimuli/search/r.png","stimuli/search/b.png","stimuli/search/t.png","[-0.23833333333333334,0.40242803765730967]","[-0.17833333333333334,0.374613733081684]","[0.17833333333333334,0.37640335208025166]","[0.23833333333333334,0.3806400940550585]","[0.17833333333333334,-0.3639052838759112]","[0.23833333333333334,-0.37812128729419264]","[-0.23833333333333334,-0.38748573199093117]","[-0.17833333333333334,-0.33938964520749826]",1,0,0.856885,10,0,10,0,1,NA,NA,NA,NA,NA,"",NA,NA,NA,"",NA,NA,NA,"",NA,NA,NA,"",NA,NA,NA,NA,NA,NA,NA,NA,"","","","","","","","","","","","","","","","",NA,NA,NA,NA,NA,NA,NA,NA,NA,NA,"younger","search_alone",NA,1,1
"",NA,"",NA,NA,NA,NA,NA,NA,NA,"","","5ef73070d195c2437d142a72","2020-08-13_12h34.25.842","proactive2","2020.1.2","Win32",60,"5f341be081b9052c55068110","5f352527d5256d4848c45b70",6,NA,NA,NA,NA,NA,"",NA,NA,NA,NA,NA,NA,NA,NA,NA,NA,6,NA,NA,NA,NA,NA,NA,NA,NA,NA,NA,NA,"","",NA,NA,NA,NA,NA,NA,NA,NA,NA,NA,NA,"stimuli/search/t.png","stimuli/search/b.png","stimuli/search/b.png","stimuli/search/r.png","stimuli/search/t.png","stimuli/search/b.png","stimuli/search/b.png","stimuli/search/t.png","[-0.23833333333333334,0.32790640506576896]","[-0.17833333333333334,0.3373507897241844]","[0.17833333333333334,0.352785557371234]","[0.23833333333333334,0.3830694025523219]","[0.17833333333333334,-0.336171503495939]","[0.23833333333333334,-0.3931749641919129]","[-0.23833333333333334,-0.3451067862550343]","[-0.17833333333333334,-0.3676376727290897]",1,0,0.702595,11,0,11,0,1,NA,NA,NA,NA,NA,"",NA,NA,NA,"",NA,NA,NA,"",NA,NA,NA,"",NA,NA,NA,NA,NA,NA,NA,NA,"","","","","","","","","","","","","","","","",NA,NA,NA,NA,NA,NA,NA,NA,NA,NA,"younger","search_alone",NA,1,1
"",NA,"",NA,NA,NA,NA,NA,NA,NA,"","","5ef73070d195c2437d142a72","2020-08-13_12h34.25.842","proactive2","2020.1.2","Win32",60,"5f341be081b9052c55068110","5f352527d5256d4848c45b70",6,NA,NA,NA,NA,NA,"",NA,NA,NA,NA,NA,NA,NA,NA,NA,NA,6,NA,NA,NA,NA,NA,NA,NA,NA,NA,NA,NA,"","",NA,NA,NA,NA,NA,NA,NA,NA,NA,NA,NA,"stimuli/search/t.png","stimuli/search/b.png","stimuli/search/b.png","stimuli/search/t.png","stimuli/search/b.png","stimuli/search/t.png","stimuli/search/l.png","stimuli/search/b.png","[-0.23833333333333334,0.32922654127016143]","[-0.17833333333333334,0.33407961040935985]","[0.17833333333333334,0.35940516035916925]","[0.23833333333333334,0.34209837259734194]","[0.17833333333333334,-0.3241133336200586]","[0.23833333333333334,-0.4092104478285472]","[-0.23833333333333334,-0.4019830553609403]","[-0.17833333333333334,-0.3755439958733154]",0,1,1.08263,12,0,12,0,1,NA,NA,NA,NA,NA,"",NA,NA,NA,"",NA,NA,NA,"",NA,NA,NA,"",NA,NA,NA,NA,NA,NA,NA,NA,"","","","","","","","","","","","","","","","",NA,NA,NA,NA,NA,NA,NA,NA,NA,NA,"younger","search_alone",NA,0,1
"",NA,"",NA,NA,NA,NA,NA,NA,NA,"","","5ef73070d195c2437d142a72","2020-08-13_12h34.25.842","proactive2","2020.1.2","Win32",60,"5f341be081b9052c55068110","5f352527d5256d4848c45b70",6,NA,NA,NA,NA,NA,"",NA,NA,NA,NA,NA,NA,NA,NA,NA,NA,6,NA,NA,NA,NA,NA,NA,NA,NA,NA,NA,NA,"","",NA,NA,NA,NA,NA,NA,NA,NA,NA,NA,NA,"stimuli/search/t.png","stimuli/search/b.png","stimuli/search/t.png","stimuli/search/b.png","stimuli/search/b.png","stimuli/search/t.png","stimuli/search/l.png","stimuli/search/b.png","[-0.23833333333333334,0.3471937594933096]","[-0.17833333333333334,0.41555725687298506]","[0.17833333333333334,0.39346059094906916]","[0.23833333333333334,0.343397721338116]","[0.17833333333333334,-0.3795745351666643]","[0.23833333333333334,-0.41097674571022275]","[-0.23833333333333334,-0.32962285034279426]","[-0.17833333333333334,-0.3946622440428434]",0,1,0.852385,13,0,13,0,1,NA,NA,NA,NA,NA,"",NA,NA,NA,"",NA,NA,NA,"",NA,NA,NA,"",NA,NA,NA,NA,NA,NA,NA,NA,"","","","","","","","","","","","","","","","",NA,NA,NA,NA,NA,NA,NA,NA,NA,NA,"younger","search_alone",NA,0,1
"",NA,"",NA,NA,NA,NA,NA,NA,NA,"","","5ef73070d195c2437d142a72","2020-08-13_12h34.25.842","proactive2","2020.1.2","Win32",60,"5f341be081b9052c55068110","5f352527d5256d4848c45b70",6,NA,NA,NA,NA,NA,"",NA,NA,NA,NA,NA,NA,NA,NA,NA,NA,6,NA,NA,NA,NA,NA,NA,NA,NA,NA,NA,NA,"","",NA,NA,NA,NA,NA,NA,NA,NA,NA,NA,NA,"stimuli/search/b.png","stimuli/search/t.png","stimuli/search/b.png","stimuli/search/t.png","stimuli/search/r.png","stimuli/search/t.png","stimuli/search/t.png","stimuli/search/b.png","[-0.23833333333333334,0.3942942494194909]","[-0.17833333333333334,0.3271128623550596]","[0.17833333333333334,0.3731139570702124]","[0.23833333333333334,0.3915344105190518]","[0.17833333333333334,-0.3261388198161482]","[0.23833333333333334,-0.3589845444541154]","[-0.23833333333333334,-0.4035334241290335]","[-0.17833333333333334,-0.40206019932945497]",1,0,1.12424,14,0,14,0,1,NA,NA,NA,NA,NA,"",NA,NA,NA,"",NA,NA,NA,"",NA,NA,NA,"",NA,NA,NA,NA,NA,NA,NA,NA,"","","","","","","","","","","","","","","","",NA,NA,NA,NA,NA,NA,NA,NA,NA,NA,"younger","search_alone",NA,1,1
"",NA,"",NA,NA,NA,NA,NA,NA,NA,"","","5ef73070d195c2437d142a72","2020-08-13_12h34.25.842","proactive2","2020.1.2","Win32",60,"5f341be081b9052c55068110","5f352527d5256d4848c45b70",6,NA,NA,NA,NA,NA,"",NA,NA,NA,NA,NA,NA,NA,NA,NA,NA,6,NA,NA,NA,NA,NA,NA,NA,NA,NA,NA,NA,"","",NA,NA,NA,NA,NA,NA,NA,NA,NA,NA,NA,"stimuli/search/b.png","stimuli/search/t.png","stimuli/search/b.png","stimuli/search/t.png","stimuli/search/l.png","stimuli/search/b.png","stimuli/search/b.png","stimuli/search/t.png","[-0.23833333333333334,0.348318883803655]","[-0.17833333333333334,0.3856841461867135]","[0.17833333333333334,0.39438419112766565]","[0.23833333333333334,0.4154460217305313]","[0.17833333333333334,-0.34951599294003166]","[0.23833333333333334,-0.40013367358717045]","[-0.23833333333333334,-0.3730260692401705]","[-0.17833333333333334,-0.38514171043388473]",0,1,0.9276,15,0,15,0,1,NA,NA,NA,NA,NA,"",NA,NA,NA,"",NA,NA,NA,"",NA,NA,NA,"",NA,NA,NA,NA,NA,NA,NA,NA,"","","","","","","","","","","","","","","","",NA,NA,NA,NA,NA,NA,NA,NA,NA,NA,"younger","search_alone",NA,0,1
"",NA,"",NA,NA,NA,NA,NA,NA,NA,"","","5ef73070d195c2437d142a72","2020-08-13_12h34.25.842","proactive2","2020.1.2","Win32",60,"5f341be081b9052c55068110","5f352527d5256d4848c45b70",6,NA,NA,NA,NA,NA,"",NA,NA,NA,NA,NA,NA,NA,NA,NA,NA,6,NA,NA,NA,NA,NA,NA,NA,NA,NA,NA,NA,"","",NA,NA,NA,NA,NA,NA,NA,NA,NA,NA,NA,"stimuli/search/b.png","stimuli/search/t.png","stimuli/search/r.png","stimuli/search/t.png","stimuli/search/b.png","stimuli/search/t.png","stimuli/search/b.png","stimuli/search/t.png","[-0.23833333333333334,0.32497808211025736]","[-0.17833333333333334,0.39059331557040594]","[0.17833333333333334,0.3665713935671993]","[0.23833333333333334,0.3983860959070499]","[0.17833333333333334,-0.4023786689556118]","[0.23833333333333334,-0.3910945492674698]","[-0.23833333333333334,-0.36158314996218965]","[-0.17833333333333334,-0.3431690087456754]",1,0,0.80439,16,0,16,0,1,NA,NA,NA,NA,NA,"",NA,NA,NA,"",NA,NA,NA,"",NA,NA,NA,"",NA,NA,NA,NA,NA,NA,NA,NA,"","","","","","","","","","","","","","","","",NA,NA,NA,NA,NA,NA,NA,NA,NA,NA,"younger","search_alone",NA,1,1
"",NA,"",NA,NA,NA,NA,NA,NA,NA,"","","5ef73070d195c2437d142a72","2020-08-13_12h34.25.842","proactive2","2020.1.2","Win32",60,"5f341be081b9052c55068110","5f352527d5256d4848c45b70",6,NA,NA,NA,NA,NA,"",NA,NA,NA,NA,NA,NA,NA,NA,NA,NA,6,NA,NA,NA,NA,NA,NA,NA,NA,NA,NA,NA,"","",NA,NA,NA,NA,NA,NA,NA,NA,NA,NA,NA,"stimuli/search/t.png","stimuli/search/r.png","stimuli/search/t.png","stimuli/search/b.png","stimuli/search/b.png","stimuli/search/t.png","stimuli/search/t.png","stimuli/search/b.png","[-0.23833333333333334,0.39753231917059967]","[-0.17833333333333334,0.336263657066678]","[0.17833333333333334,0.36716998494251063]","[0.23833333333333334,0.346048386298894]","[0.17833333333333334,-0.3852093675052366]","[0.23833333333333334,-0.3291821498561411]","[-0.23833333333333334,-0.33057217130618627]","[-0.17833333333333334,-0.36778556918867944]",1,0,0.863,17,0,17,0,1,NA,NA,NA,NA,NA,"",NA,NA,NA,"",NA,NA,NA,"",NA,NA,NA,"",NA,NA,NA,NA,NA,NA,NA,NA,"","","","","","","","","","","","","","","","",NA,NA,NA,NA,NA,NA,NA,NA,NA,NA,"younger","search_alone",NA,1,1
"",NA,"",NA,NA,NA,NA,NA,NA,NA,"","","5ef73070d195c2437d142a72","2020-08-13_12h34.25.842","proactive2","2020.1.2","Win32",60,"5f341be081b9052c55068110","5f352527d5256d4848c45b70",6,NA,NA,NA,NA,NA,"",NA,NA,NA,NA,NA,NA,NA,NA,NA,NA,6,NA,NA,NA,NA,NA,NA,NA,NA,NA,NA,NA,"","",NA,NA,NA,NA,NA,NA,NA,NA,NA,NA,NA,"stimuli/search/b.png","stimuli/search/t.png","stimuli/search/b.png","stimuli/search/t.png","stimuli/search/t.png","stimuli/search/b.png","stimuli/search/r.png","stimuli/search/t.png","[-0.23833333333333334,0.35214137329969236]","[-0.17833333333333334,0.3844665018217526]","[0.17833333333333334,0.3404249932823127]","[0.23833333333333334,0.37400071982531446]","[0.17833333333333334,-0.3763966410449304]","[0.23833333333333334,-0.34878932686184927]","[-0.23833333333333334,-0.3897899762541651]","[-0.17833333333333334,-0.4067973307448517]",1,0,0.95938,18,0,18,0,1,NA,NA,NA,NA,NA,"",NA,NA,NA,"",NA,NA,NA,"",NA,NA,NA,"",NA,NA,NA,NA,NA,NA,NA,NA,"","","","","","","","","","","","","","","","",NA,NA,NA,NA,NA,NA,NA,NA,NA,NA,"younger","search_alone",NA,1,1
"",NA,"",NA,NA,NA,NA,NA,NA,NA,"","","5ef73070d195c2437d142a72","2020-08-13_12h34.25.842","proactive2","2020.1.2","Win32",60,"5f341be081b9052c55068110","5f352527d5256d4848c45b70",6,NA,NA,NA,NA,NA,"",NA,NA,NA,NA,NA,NA,NA,NA,NA,NA,6,NA,NA,NA,NA,NA,NA,NA,NA,NA,NA,NA,"","",NA,NA,NA,NA,NA,NA,NA,NA,NA,NA,NA,"stimuli/search/b.png","stimuli/search/t.png","stimuli/search/t.png","stimuli/search/b.png","stimuli/search/t.png","stimuli/search/b.png","stimuli/search/b.png","stimuli/search/r.png","[-0.23833333333333334,0.34908928026363867]","[-0.17833333333333334,0.34545596039627896]","[0.17833333333333334,0.33063176847531445]","[0.23833333333333334,0.41388360017785364]","[0.17833333333333334,-0.35240027182858347]","[0.23833333333333334,-0.35253903480738763]","[-0.23833333333333334,-0.32804357662459455]","[-0.17833333333333334,-0.33224284234359386]",1,0,0.647435,19,0,19,0,1,NA,NA,NA,NA,NA,"",NA,NA,NA,"",NA,NA,NA,"",NA,NA,NA,"",NA,NA,NA,NA,NA,NA,NA,NA,"","","","","","","","","","","","","","","","",NA,NA,NA,NA,NA,NA,NA,NA,NA,NA,"younger","search_alone",NA,1,1
"",NA,"",NA,NA,NA,NA,NA,NA,NA,"","","5ef73070d195c2437d142a72","2020-08-13_12h34.25.842","proactive2","2020.1.2","Win32",60,"5f341be081b9052c55068110","5f352527d5256d4848c45b70",6,NA,NA,NA,NA,NA,"",NA,NA,NA,NA,NA,NA,NA,NA,NA,NA,6,NA,NA,NA,NA,NA,NA,NA,NA,NA,NA,NA,"","",NA,NA,NA,NA,NA,NA,NA,NA,NA,NA,NA,"stimuli/search/t.png","stimuli/search/b.png","stimuli/search/l.png","stimuli/search/b.png","stimuli/search/b.png","stimuli/search/t.png","stimuli/search/b.png","stimuli/search/t.png","[-0.23833333333333334,0.4137372831836046]","[-0.17833333333333334,0.34896172324838437]","[0.17833333333333334,0.3798455359041707]","[0.23833333333333334,0.4027378608511122]","[0.17833333333333334,-0.41169397259741997]","[0.23833333333333334,-0.35575694729354096]","[-0.23833333333333334,-0.38188464776881903]","[-0.17833333333333334,-0.3889519385018354]",0,1,1.19637,NA,NA,NA,NA,NA,NA,NA,NA,NA,NA,"",NA,NA,NA,"",NA,NA,NA,"",NA,NA,NA,"",NA,NA,NA,NA,NA,NA,NA,NA,"","","","","","","","","","","","","","","","",0,0,0,0,1,NA,NA,NA,NA,NA,"younger","wm",4,0,1
"",NA,"",NA,NA,NA,NA,NA,NA,NA,"","","5ef73070d195c2437d142a72","2020-08-13_12h34.25.842","proactive2","2020.1.2","Win32",60,"5f341be081b9052c55068110","5f352527d5256d4848c45b70",6,NA,NA,NA,NA,NA,"",NA,NA,NA,NA,NA,NA,NA,NA,NA,NA,6,NA,NA,NA,NA,NA,NA,NA,NA,NA,NA,NA,"","",NA,NA,NA,NA,NA,NA,NA,NA,NA,NA,NA,"stimuli/search/t.png","stimuli/search/b.png","stimuli/search/b.png","stimuli/search/t.png","stimuli/search/b.png","stimuli/search/t.png","stimuli/search/l.png","stimuli/search/t.png","[-0.23833333333333334,0.3807598911927968]","[-0.17833333333333334,0.3645467178193192]","[0.17833333333333334,0.400806381207374]","[0.23833333333333334,0.39126043112194303]","[0.17833333333333334,-0.3374027188762745]","[0.23833333333333334,-0.41517067446164113]","[-0.23833333333333334,-0.373953098927582]","[-0.17833333333333334,-0.3524539531985765]",0,1,0.79027,NA,NA,NA,NA,NA,NA,NA,NA,NA,NA,"",NA,NA,NA,"",NA,NA,NA,"",NA,NA,NA,"",NA,NA,NA,NA,NA,NA,NA,NA,"","","","","","","","","","","","","","","","",0,0,0,0,1,NA,NA,NA,NA,NA,"younger","wm",5,0,1
"",NA,"",NA,NA,NA,NA,NA,NA,NA,"","","5ef73070d195c2437d142a72","2020-08-13_12h34.25.842","proactive2","2020.1.2","Win32",60,"5f341be081b9052c55068110","5f352527d5256d4848c45b70",6,NA,NA,NA,NA,NA,"",NA,NA,NA,NA,NA,NA,NA,NA,NA,NA,6,NA,NA,NA,NA,NA,NA,NA,NA,NA,NA,NA,"","",NA,NA,NA,NA,NA,NA,NA,NA,NA,NA,NA,"stimuli/search/b.png","stimuli/search/r.png","stimuli/search/t.png","stimuli/search/b.png","stimuli/search/t.png","stimuli/search/b.png","stimuli/search/t.png","stimuli/search/b.png","[-0.23833333333333334,0.3873287726291376]","[-0.17833333333333334,0.3334683194661503]","[0.17833333333333334,0.391030436770089]","[0.23833333333333334,0.3693828937153044]","[0.17833333333333334,-0.3706919894965771]","[0.23833333333333334,-0.41080877678337135]","[-0.23833333333333334,-0.4054320878168045]","[-0.17833333333333334,-0.39740703217577755]",1,0,0.89331,NA,NA,NA,NA,NA,NA,NA,NA,NA,NA,"",NA,NA,NA,"",NA,NA,NA,"",NA,NA,NA,"",NA,NA,NA,NA,NA,NA,NA,NA,"","","","","","","","","","","","","","","","",0,0,0,0,1,NA,NA,NA,NA,NA,"younger","wm",6,1,1
"",NA,"",NA,NA,NA,NA,NA,NA,NA,"","","5ef73070d195c2437d142a72","2020-08-13_12h34.25.842","proactive2","2020.1.2","Win32",60,"5f341be081b9052c55068110","5f352527d5256d4848c45b70",6,NA,NA,NA,NA,NA,"",NA,NA,NA,NA,NA,NA,NA,NA,NA,NA,6,NA,NA,NA,NA,NA,NA,NA,NA,NA,NA,NA,"","",NA,NA,NA,NA,NA,NA,NA,NA,NA,NA,NA,"stimuli/search/b.png","stimuli/search/t.png","stimuli/search/l.png","stimuli/search/b.png","stimuli/search/b.png","stimuli/search/t.png","stimuli/search/b.png","stimuli/search/t.png","[-0.23833333333333334,0.38136061877710864]","[-0.17833333333333334,0.36049092753705314]","[0.17833333333333334,0.3304497188919392]","[0.23833333333333334,0.3516029273470044]","[0.17833333333333334,-0.36416434290444616]","[0.23833333333333334,-0.3778510273689172]","[-0.23833333333333334,-0.3930230615101498]","[-0.17833333333333334,-0.39917413415028674]",0,1,0.721355,NA,NA,NA,NA,NA,NA,NA,NA,NA,NA,"",NA,NA,NA,"",NA,NA,NA,"",NA,NA,NA,"",NA,NA,NA,NA,NA,NA,NA,NA,"","","","","","","","","","","","","","","","",0,0,0,0,1,NA,NA,NA,NA,NA,"younger","wm",7,0,1
"",NA,"",NA,NA,NA,NA,NA,NA,NA,"","","5ef73070d195c2437d142a72","2020-08-13_12h34.25.842","proactive2","2020.1.2","Win32",60,"5f341be081b9052c55068110","5f352527d5256d4848c45b70",6,NA,NA,NA,NA,NA,"",NA,NA,NA,NA,NA,NA,NA,NA,NA,NA,6,NA,NA,NA,NA,NA,NA,NA,NA,NA,NA,NA,"","",NA,NA,NA,NA,NA,NA,NA,NA,NA,NA,NA,"stimuli/search/b.png","stimuli/search/t.png","stimuli/search/t.png","stimuli/search/b.png","stimuli/search/t.png","stimuli/search/b.png","stimuli/search/l.png","stimuli/search/t.png","[-0.23833333333333334,0.4067179722825871]","[-0.17833333333333334,0.3948748997320501]","[0.17833333333333334,0.4013827662241052]","[0.23833333333333334,0.32805592848314746]","[0.17833333333333334,-0.4059894330999523]","[0.23833333333333334,-0.35326863777155815]","[-0.23833333333333334,-0.4002695624443271]","[-0.17833333333333334,-0.38722580747655005]",0,1,1.20027,NA,NA,NA,NA,NA,NA,NA,NA,NA,NA,"",NA,NA,NA,"",NA,NA,NA,"",NA,NA,NA,"",NA,NA,NA,NA,NA,NA,NA,NA,"","","","","","","","","","","","","","","","",0,0,0,0,1,NA,NA,NA,NA,NA,"younger","wm",8,0,1
"",NA,"",NA,NA,NA,NA,NA,NA,NA,"","","5ef73070d195c2437d142a72","2020-08-13_12h34.25.842","proactive2","2020.1.2","Win32",60,"5f341be081b9052c55068110","5f352527d5256d4848c45b70",6,NA,NA,NA,NA,NA,"",NA,NA,NA,NA,NA,NA,NA,NA,NA,NA,6,NA,NA,NA,NA,NA,NA,NA,NA,NA,NA,NA,"","",NA,NA,NA,NA,NA,NA,NA,NA,NA,NA,NA,"stimuli/search/b.png","stimuli/search/r.png","stimuli/search/b.png","stimuli/search/t.png","stimuli/search/t.png","stimuli/search/b.png","stimuli/search/b.png","stimuli/search/t.png","[-0.23833333333333334,0.3310069763212757]","[-0.17833333333333334,0.4068767943976097]","[0.17833333333333334,0.40944289612520346]","[0.23833333333333334,0.3403398362463739]","[0.17833333333333334,-0.36696855210999973]","[0.23833333333333334,-0.3799056380789613]","[-0.23833333333333334,-0.3735530878950194]","[-0.17833333333333334,-0.3426337768011227]",1,0,0.612295,NA,NA,NA,NA,NA,NA,NA,NA,NA,NA,"",NA,NA,NA,"",NA,NA,NA,"",NA,NA,NA,"",NA,NA,NA,NA,NA,NA,NA,NA,"","","","","","","","","","","","","","","","",0,0,0,0,1,NA,NA,NA,NA,NA,"younger","wm",9,1,1
"",NA,"",NA,NA,NA,NA,NA,NA,NA,"","","5ef73070d195c2437d142a72","2020-08-13_12h34.25.842","proactive2","2020.1.2","Win32",60,"5f341be081b9052c55068110","5f352527d5256d4848c45b70",6,NA,NA,NA,NA,NA,"",NA,NA,NA,NA,NA,NA,NA,NA,NA,NA,6,NA,NA,NA,NA,NA,NA,NA,NA,NA,NA,NA,"","",NA,NA,NA,NA,NA,NA,NA,NA,NA,NA,NA,"stimuli/search/t.png","stimuli/search/r.png","stimuli/search/t.png","stimuli/search/b.png","stimuli/search/b.png","stimuli/search/t.png","stimuli/search/t.png","stimuli/search/b.png","[-0.23833333333333334,0.3344410337303836]","[-0.17833333333333334,0.351225637478439]","[0.17833333333333334,0.33527338290687647]","[0.23833333333333334,0.35653633539722895]","[0.17833333333333334,-0.3683804062100953]","[0.23833333333333334,-0.37222855669291033]","[-0.23833333333333334,-0.4026778002185999]","[-0.17833333333333334,-0.35688444902540944]",1,0,0.708115,NA,NA,NA,NA,NA,NA,NA,NA,NA,NA,"",NA,NA,NA,"",NA,NA,NA,"",NA,NA,NA,"",NA,NA,NA,NA,NA,NA,NA,NA,"","","","","","","","","","","","","","","","",0,0,0,0,1,NA,NA,NA,NA,NA,"younger","wm",10,1,1
"",NA,"",NA,NA,NA,NA,NA,NA,NA,"","","5ef73070d195c2437d142a72","2020-08-13_12h34.25.842","proactive2","2020.1.2","Win32",60,"5f341be081b9052c55068110","5f352527d5256d4848c45b70",6,NA,NA,NA,NA,NA,"",NA,NA,NA,NA,NA,NA,NA,NA,NA,NA,6,NA,NA,NA,NA,NA,NA,NA,NA,NA,NA,NA,"","",NA,NA,NA,NA,NA,NA,NA,NA,NA,NA,NA,"stimuli/search/l.png","stimuli/search/t.png","stimuli/search/t.png","stimuli/search/b.png","stimuli/search/t.png","stimuli/search/b.png","stimuli/search/t.png","stimuli/search/b.png","[-0.23833333333333334,0.36552039942779513]","[-0.17833333333333334,0.3500819684632656]","[0.17833333333333334,0.32539959145702324]","[0.23833333333333334,0.37180251569964073]","[0.17833333333333334,-0.3303658836954969]","[0.23833333333333334,-0.3344213903859816]","[-0.23833333333333334,-0.3504432760964293]","[-0.17833333333333334,-0.3689838127185725]",0,1,0.65394,NA,NA,NA,NA,NA,NA,NA,NA,NA,NA,"",NA,NA,NA,"",NA,NA,NA,"",NA,NA,NA,"",NA,NA,NA,NA,NA,NA,NA,NA,"","","","","","","","","","","","","","","","",0,0,0,0,1,NA,NA,NA,NA,NA,"younger","wm",11,0,1
"",NA,"",NA,NA,NA,NA,NA,NA,NA,"","","5ef73070d195c2437d142a72","2020-08-13_12h34.25.842","proactive2","2020.1.2","Win32",60,"5f341be081b9052c55068110","5f352527d5256d4848c45b70",6,NA,NA,NA,NA,NA,"",NA,NA,NA,NA,NA,NA,NA,NA,NA,NA,6,NA,NA,NA,NA,NA,NA,NA,NA,NA,NA,NA,"","",NA,NA,NA,NA,NA,NA,NA,NA,NA,NA,NA,"stimuli/search/b.png","stimuli/search/r.png","stimuli/search/t.png","stimuli/search/b.png","stimuli/search/b.png","stimuli/search/t.png","stimuli/search/b.png","stimuli/search/t.png","[-0.23833333333333334,0.37028778913587956]","[-0.17833333333333334,0.41383548641772366]","[0.17833333333333334,0.32803180616641525]","[0.23833333333333334,0.35889570479498445]","[0.17833333333333334,-0.36833375953872227]","[0.23833333333333334,-0.4124940852410748]","[-0.23833333333333334,-0.35519939076212553]","[-0.17833333333333334,-0.37188612185080216]",1,0,0.60582,NA,NA,NA,NA,NA,NA,NA,NA,NA,NA,"",NA,NA,NA,"",NA,NA,NA,"",NA,NA,NA,"",NA,NA,NA,NA,NA,NA,NA,NA,"","","","","","","","","","","","","","","","",0,0,0,0,1,NA,NA,NA,NA,NA,"younger","wm",12,1,1
"",NA,"",NA,NA,NA,NA,NA,NA,NA,"","","5ef73070d195c2437d142a72","2020-08-13_12h34.25.842","proactive2","2020.1.2","Win32",60,"5f341be081b9052c55068110","5f352527d5256d4848c45b70",6,NA,NA,NA,NA,NA,"",NA,NA,NA,NA,NA,NA,NA,NA,NA,NA,6,NA,NA,NA,NA,NA,NA,NA,NA,NA,NA,NA,"","",NA,NA,NA,NA,NA,NA,NA,NA,NA,NA,NA,"stimuli/search/b.png","stimuli/search/t.png","stimuli/search/b.png","stimuli/search/r.png","stimuli/search/b.png","stimuli/search/t.png","stimuli/search/b.png","stimuli/search/t.png","[-0.23833333333333334,0.40304206639007756]","[-0.17833333333333334,0.3307803120585735]","[0.17833333333333334,0.35325060891497584]","[0.23833333333333334,0.40902703713748245]","[0.17833333333333334,-0.40690459478910557]","[0.23833333333333334,-0.34899020290995036]","[-0.23833333333333334,-0.35255196117864673]","[-0.17833333333333334,-0.36716114739666333]",1,0,0.64593,NA,NA,NA,NA,NA,NA,NA,NA,NA,NA,"",NA,NA,NA,"",NA,NA,NA,"",NA,NA,NA,"",NA,NA,NA,NA,NA,NA,NA,NA,"","","","","","","","","","","","","","","","",0,0,0,0,1,NA,NA,NA,NA,NA,"younger","wm",13,1,1
"",NA,"",NA,NA,NA,NA,NA,NA,NA,"","","5ef73070d195c2437d142a72","2020-08-13_12h34.25.842","proactive2","2020.1.2","Win32",60,"5f341be081b9052c55068110","5f352527d5256d4848c45b70",6,NA,NA,NA,NA,NA,"",NA,NA,NA,NA,NA,NA,NA,NA,NA,NA,6,NA,NA,NA,NA,NA,NA,NA,NA,NA,NA,NA,"","",NA,NA,NA,NA,NA,NA,NA,NA,NA,NA,NA,"stimuli/search/b.png","stimuli/search/t.png","stimuli/search/b.png","stimuli/search/t.png","stimuli/search/t.png","stimuli/search/b.png","stimuli/search/t.png","stimuli/search/l.png","[-0.23833333333333334,0.3427821862071508]","[-0.17833333333333334,0.38889356855055157]","[0.17833333333333334,0.38287377597735606]","[0.23833333333333334,0.36747856806297313]","[0.17833333333333334,-0.34453868492777934]","[0.23833333333333334,-0.36901609436562544]","[-0.23833333333333334,-0.35136990999993095]","[-0.17833333333333334,-0.3517471869202593]",0,1,1.562405,NA,NA,NA,NA,NA,NA,NA,NA,NA,NA,"",NA,NA,NA,"",NA,NA,NA,"",NA,NA,NA,"",NA,NA,NA,NA,NA,NA,NA,NA,"","","","","","","","","","","","","","","","",0,0,0,0,1,NA,NA,NA,NA,NA,"younger","wm",14,0,1
"",NA,"",NA,NA,NA,NA,NA,NA,NA,"","","5ef73070d195c2437d142a72","2020-08-13_12h34.25.842","proactive2","2020.1.2","Win32",60,"5f341be081b9052c55068110","5f352527d5256d4848c45b70",6,NA,NA,NA,NA,NA,"",NA,NA,NA,NA,NA,NA,NA,NA,NA,NA,6,NA,NA,NA,NA,NA,NA,NA,NA,NA,NA,NA,"","",NA,NA,NA,NA,NA,NA,NA,NA,NA,NA,NA,"stimuli/search/t.png","stimuli/search/b.png","stimuli/search/t.png","stimuli/search/r.png","stimuli/search/t.png","stimuli/search/b.png","stimuli/search/t.png","stimuli/search/b.png","[-0.23833333333333334,0.351264152851056]","[-0.17833333333333334,0.33352142952454333]","[0.17833333333333334,0.379389744307008]","[0.23833333333333334,0.3689609298763161]","[0.17833333333333334,-0.35011788289191353]","[0.23833333333333334,-0.3447152803171276]","[-0.23833333333333334,-0.40117183136555773]","[-0.17833333333333334,-0.38420639369752296]",1,0,0.55047,NA,NA,NA,NA,NA,NA,NA,NA,NA,NA,"",NA,NA,NA,"",NA,NA,NA,"",NA,NA,NA,"",NA,NA,NA,NA,NA,NA,NA,NA,"","","","","","","","","","","","","","","","",0,0,0,0,1,NA,NA,NA,NA,NA,"younger","wm",15,1,1
