"participant","trial_no","group","time","recalled","word","recall_acc","recall_rt","study_pos","test_pos","image","item_type","id"
"56fdff4ee0f9ff000f19c466",1,"older",1,"ESTATE","WRITER",FALSE,5.932165,3,1,"dice","mis-match",1329
"56fdff4ee0f9ff000f19c466",1,"older",2,"NATION","NATION",TRUE,2.50075,2,2,"tyre","new-new",1329
"56fdff4ee0f9ff000f19c466",1,"older",3,"CANDY","CANDY",TRUE,2.148915,0,3,"pawn","match",1329
"56fdff4ee0f9ff000f19c466",1,"older",4,"BEAUTY","AREA",FALSE,2.15001,1,4,"helmet","old-new",1329
"56fdff4ee0f9ff000f19c466",2,"older",1,"LETTER","LETTER",TRUE,5.437345,1,1,"stool","match",1330
"56fdff4ee0f9ff000f19c466",2,"older",2,"LEADER","LEADER",TRUE,4.192005,3,2,"crown","mis-match",1330
"56fdff4ee0f9ff000f19c466",2,"older",3,"SHOTS","SHOTS",TRUE,2.05145,2,3,"windmill","old-new",1330
"56fdff4ee0f9ff000f19c466",2,"older",4,"WEAPON","WEAPON",TRUE,4.5396,0,4,"perfume","new-new",1330
"56fdff4ee0f9ff000f19c466",3,"older",1,"SPEECH","SPEECH",TRUE,6.39255,3,1,"spoon","new-new",1331
"56fdff4ee0f9ff000f19c466",3,"older",2,"TEAR","TEAR",TRUE,2.072915,1,2,"calendar","new-new",1331
"56fdff4ee0f9ff000f19c466",3,"older",3,"WEAPON","FRIEND",FALSE,2.24598,2,3,"planet","new-new",1331
"56fdff4ee0f9ff000f19c466",3,"older",4,"?","BATH",FALSE,5.0316,0,4,"taxi","new-new",1331
"56fdff4ee0f9ff000f19c466",4,"older",1,"PILLS","PILLS",TRUE,4.23175,2,1,"map","old-new",1332
"56fdff4ee0f9ff000f19c466",4,"older",2,"POLICY","POLICY",TRUE,2.36562,1,2,"boot","mis-match",1332
"56fdff4ee0f9ff000f19c466",4,"older",3,"BELT","BELT",TRUE,2.25979,3,3,"peg","new-new",1332
"56fdff4ee0f9ff000f19c466",4,"older",4,"POLICY","PLENTY",FALSE,4.81529,0,4,"daisy","match",1332
"56fdff4ee0f9ff000f19c466",5,"older",1,"WOMAN","WOMEN",FALSE,5.880735,1,1,"stamp","new-new",1333
"56fdff4ee0f9ff000f19c466",5,"older",2,"YARD","YARD",TRUE,2.165475,2,2,"wheelbarrow","new-new",1333
"56fdff4ee0f9ff000f19c466",5,"older",3,"AGENT","AGENT",TRUE,2.20102,0,3,"watch","new-new",1333
"56fdff4ee0f9ff000f19c466",5,"older",4,"CASINO","CASINO",TRUE,2.08263,3,4,"pepper","new-new",1333
"56fdff4ee0f9ff000f19c466",6,"older",1,"SPIRIT","SPIRIT",TRUE,5.429775,0,1,"sunflower","new-new",1334
"56fdff4ee0f9ff000f19c466",6,"older",2,"MONTH","FEET",FALSE,3.630165,1,2,"cart","new-new",1334
"56fdff4ee0f9ff000f19c466",6,"older",3,"FEET","PENNY",FALSE,4.48051,3,3,"tray","new-new",1334
"56fdff4ee0f9ff000f19c466",6,"older",4,"PENNY","MONTH",FALSE,2.31645,2,4,"backpack","new-new",1334
"56fdff4ee0f9ff000f19c466",7,"older",1,"SERIES","ESTATE",FALSE,7.264515,2,1,"runner","mis-match",1335
"56fdff4ee0f9ff000f19c466",7,"older",2,"SERIES","SERIES",TRUE,3.197195,1,2,"coin","match",1335
"56fdff4ee0f9ff000f19c466",7,"older",3,"GLASS","IDEAS",FALSE,2.43193,3,3,"sun","new-new",1335
"56fdff4ee0f9ff000f19c466",7,"older",4,"IDEAS","GLASS",FALSE,1.731895,0,4,"dart","old-new",1335
"56fdff4ee0f9ff000f19c466",8,"older",1,"HOUSE","PHOTO",FALSE,4.393445,1,1,"candle","old-new",1336
"56fdff4ee0f9ff000f19c466",8,"older",2,"LOTS","LOTS",TRUE,4.38075,3,2,"cathedral","mis-match",1336
"56fdff4ee0f9ff000f19c466",8,"older",3,"SYSTEM","SYSTEM",TRUE,2.23202,2,3,"ring","match",1336
"56fdff4ee0f9ff000f19c466",8,"older",4,"HOUSE","HOUSE",TRUE,2.083465,0,4,"mirror","new-new",1336
"56fdff4ee0f9ff000f19c466",9,"older",1,"RECORD","RECORD",TRUE,8.43089,0,1,"frame","new-new",1337
"56fdff4ee0f9ff000f19c466",9,"older",2,"DIRT","DIRT",TRUE,2.129495,3,2,"hanger","new-new",1337
"56fdff4ee0f9ff000f19c466",9,"older",3,"SAKE","SAKE",TRUE,2.439495,1,3,"anchor","new-new",1337
"56fdff4ee0f9ff000f19c466",9,"older",4,"PRINCE","PRINCE",TRUE,1.89874,2,4,"cap","new-new",1337
"56fdff4ee0f9ff000f19c466",10,"older",1,"FLIGHT","FLIGHT",TRUE,4.663525,1,1,"shovel","new-new",1338
"56fdff4ee0f9ff000f19c466",10,"older",2,"DANGER","DANGER",TRUE,3.611995,2,2,"cherry","old-new",1338
"56fdff4ee0f9ff000f19c466",10,"older",3,"ARTIST","ARTIST",TRUE,2.098465,3,3,"wheel","match",1338
"56fdff4ee0f9ff000f19c466",10,"older",4,"YEAR","YEAR",TRUE,1.594335,0,4,"kettle","mis-match",1338
"56fdff4ee0f9ff000f19c466",11,"older",1,"TOILET","TOILET",TRUE,4.110485,2,1,"diamond","match",1339
"56fdff4ee0f9ff000f19c466",11,"older",2,"?","NIGHT",FALSE,1.751475,0,2,"goose","new-new",1339
"56fdff4ee0f9ff000f19c466",11,"older",3,"CARS","CARS",TRUE,3.098705,1,3,"microphone","old-new",1339
"56fdff4ee0f9ff000f19c466",11,"older",4,"CLOCK","CLOCK",TRUE,1.43176,3,4,"pencil","mis-match",1339
"56fdff4ee0f9ff000f19c466",12,"older",1,"GODS","GODS",TRUE,5.065025,3,1,"bench","new-new",1340
"56fdff4ee0f9ff000f19c466",12,"older",2,"BOYS","BOYS",TRUE,1.97969,2,2,"razor","new-new",1340
"56fdff4ee0f9ff000f19c466",12,"older",3,"ROOFF","ROOF",FALSE,1.56556,0,3,"megaphone","new-new",1340
"56fdff4ee0f9ff000f19c466",12,"older",4,"COPS","COPS",TRUE,3.983425,1,4,"tractor","new-new",1340
"56fdff4ee0f9ff000f19c466",13,"older",1,"STYLE","HOTEL",FALSE,4.11565,2,1,"skateboard","new-new",1341
"56fdff4ee0f9ff000f19c466",13,"older",2,"FOOD","FOOD",TRUE,1.665125,1,2,"rug","new-new",1341
"56fdff4ee0f9ff000f19c466",13,"older",3,"STYLE","STYLE",TRUE,2.14628,0,3,"aeroplane","new-new",1341
"56fdff4ee0f9ff000f19c466",13,"older",4,"DOZEN","DOZEN",TRUE,1.566015,3,4,"balcony","new-new",1341
"56fdff4ee0f9ff000f19c466",14,"older",1,"HONEY","HONEY",TRUE,4.147335,3,1,"suitcase","match",1342
"56fdff4ee0f9ff000f19c466",14,"older",2,"BODY","JUNGLE",FALSE,7.4303,0,2,"salt","mis-match",1342
"56fdff4ee0f9ff000f19c466",14,"older",3,"LIFE","LIFE",TRUE,4.081645,1,3,"carrot","new-new",1342
"56fdff4ee0f9ff000f19c466",14,"older",4,"BODY","BODY",TRUE,2.68063,2,4,"gorilla","old-new",1342
"56fdff4ee0f9ff000f19c466",15,"older",1,"FLESH","FLESH",TRUE,4.895775,1,1,"pear","new-new",1343
"56fdff4ee0f9ff000f19c466",15,"older",2,"MOMENT","MOMENT",TRUE,2.78688,3,2,"mushroom","mis-match",1343
"56fdff4ee0f9ff000f19c466",15,"older",3,"FAMILY","FAMILY",TRUE,2.732685,2,3,"scissors","match",1343
"56fdff4ee0f9ff000f19c466",15,"older",4,"KIND","KIND",TRUE,1.254445,0,4,"monkey","old-new",1343
"56fdff4ee0f9ff000f19c466",16,"older",1,"GIRL","GIRL",TRUE,3.23189,2,1,"basket","match",1344
"56fdff4ee0f9ff000f19c466",16,"older",2,"DEMON","RIVER",FALSE,3.20073,3,2,"motorbike","mis-match",1344
"56fdff4ee0f9ff000f19c466",16,"older",3,"DEMON","DEMON",TRUE,2.46303,1,3,"bolt","new-new",1344
"56fdff4ee0f9ff000f19c466",16,"older",4,"CLIENT","CLIENT",TRUE,2.666355,0,4,"telephone","old-new",1344
"58c2923ada66280001b3c5ad",1,"older",1,"AREA","NIGHT",FALSE,6.652,1,1,"tyre","mis-match",929
"58c2923ada66280001b3c5ad",1,"older",2,"SERIES","SERIES",TRUE,2.95,3,2,"rug","match",929
"58c2923ada66280001b3c5ad",1,"older",3,"BATH","BATH",TRUE,2.832,0,3,"anchor","old-new",929
"58c2923ada66280001b3c5ad",1,"older",4,"BLOOS","DEMON",FALSE,2.955,2,4,"pawn","new-new",929
"58c2923ada66280001b3c5ad",2,"older",1,"DIRT","SALE",FALSE,5.515,1,1,"megaphone","new-new",930
"58c2923ada66280001b3c5ad",2,"older",2,"CANDY","CANDY",TRUE,7.697,0,2,"taxi","new-new",930
"58c2923ada66280001b3c5ad",2,"older",3,"DIRT","DIRT",TRUE,3.355,2,3,"scissors","new-new",930
"58c2923ada66280001b3c5ad",2,"older",4,"FLIGHT","FLIGHT",TRUE,3.865,3,4,"bolt","new-new",930
"58c2923ada66280001b3c5ad",3,"older",1,"PENNY","PENNY",TRUE,4.726,2,1,"monkey","match",931
"58c2923ada66280001b3c5ad",3,"older",2,"WEAPON","WEAPON",TRUE,4.417,0,2,"wheel","mis-match",931
"58c2923ada66280001b3c5ad",3,"older",3,"MILLER","MILLER",TRUE,3.45,1,3,"cap","old-new",931
"58c2923ada66280001b3c5ad",3,"older",4,"?","BODY",FALSE,3.457,3,4,"pencil","new-new",931
"58c2923ada66280001b3c5ad",4,"older",1,"LOTS","LOTS",TRUE,5.05,0,1,"stool","new-new",932
"58c2923ada66280001b3c5ad",4,"older",2,"IDEA","IDEAS",FALSE,3.181,2,2,"mirror","new-new",932
"58c2923ada66280001b3c5ad",4,"older",3,"VALLEY","VALLEY",TRUE,4.364,1,3,"bench","new-new",932
"58c2923ada66280001b3c5ad",4,"older",4,"?","LETTER",FALSE,2.316,3,4,"coin","new-new",932
"58c2923ada66280001b3c5ad",5,"older",1,"TEAR","TEAR",TRUE,8.182,2,1,"pear","new-new",933
"58c2923ada66280001b3c5ad",5,"older",2,"THING","THING",TRUE,3.159,3,2,"crown","old-new",933
"58c2923ada66280001b3c5ad",5,"older",3,"RIVER","AREA",FALSE,4.11,0,3,"aeroplane","mis-match",933
"58c2923ada66280001b3c5ad",5,"older",4,"WOMEN","WOMEN",TRUE,3.448,1,4,"salt","match",933
"58c2923ada66280001b3c5ad",6,"older",1,"APPLE","APPLE",TRUE,7.027,3,1,"windmill","mis-match",934
"58c2923ada66280001b3c5ad",6,"older",2,"HONEY","HONEY",TRUE,5.479,1,2,"wheelbarrow","new-new",934
"58c2923ada66280001b3c5ad",6,"older",3,"DUDE","MOMENT",FALSE,3.863,2,3,"stamp","match",934
"58c2923ada66280001b3c5ad",6,"older",4,"DUDE","DUDE",TRUE,3.157,0,4,"skateboard","old-new",934
"58c2923ada66280001b3c5ad",7,"older",1,"POL","POLICY",FALSE,9.961,3,1,"candle","mis-match",935
"58c2923ada66280001b3c5ad",7,"older",2,"","PILLS",FALSE,4.1,1,2,"sunflower","old-new",935
"58c2923ada66280001b3c5ad",7,"older",3,"CASINO","CASINO",TRUE,3.838,0,3,"motorbike","match",935
"58c2923ada66280001b3c5ad",7,"older",4,"CALLENB","MONTH",FALSE,10.006,2,4,"calendar","new-new",935
"58c2923ada66280001b3c5ad",8,"older",1,"HOUSE","HOUSE",TRUE,4.547,2,1,"microphone","mis-match",936
"58c2923ada66280001b3c5ad",8,"older",2,"FLESH","TOILET",FALSE,4.295,0,2,"mushroom","old-new",936
"58c2923ada66280001b3c5ad",8,"older",3,"WRITER","WRITER",TRUE,4.033,1,3,"cathedral","match",936
"58c2923ada66280001b3c5ad",8,"older",4,"?","FLESH",FALSE,3.076,3,4,"shovel","new-new",936
"58c2923ada66280001b3c5ad",9,"older",1,"BELT","STYLE",FALSE,6.657,3,1,"telephone","mis-match",937
"58c2923ada66280001b3c5ad",9,"older",2,"MILE","MILE",TRUE,2.853,1,2,"map","match",937
"58c2923ada66280001b3c5ad",9,"older",3,"?","BELT",FALSE,2.945,2,3,"boot","old-new",937
"58c2923ada66280001b3c5ad",9,"older",4,"STYLE","SPIRIT",FALSE,5.6,0,4,"ring","new-new",937
"58c2923ada66280001b3c5ad",10,"older",1,"FOOD","JUNGLE",FALSE,3.219,3,1,"cherry","new-new",938
"58c2923ada66280001b3c5ad",10,"older",2,"?","FOOD",FALSE,5.094,2,2,"watch","new-new",938
"58c2923ada66280001b3c5ad",10,"older",3,"DANGER","DANGER",TRUE,3.044,1,3,"tray","new-new",938
"58c2923ada66280001b3c5ad",10,"older",4,"?","RECORD",FALSE,3.56,0,4,"runner","new-new",938
"58c2923ada66280001b3c5ad",11,"older",1,"BEATY","BEAUTY",FALSE,3.998,3,1,"peg","new-new",939
"58c2923ada66280001b3c5ad",11,"older",2,"?","CLOCK",FALSE,2.084,2,2,"helmet","new-new",939
"58c2923ada66280001b3c5ad",11,"older",3,"?","AGENT",FALSE,3.517,0,3,"balcony","new-new",939
"58c2923ada66280001b3c5ad",11,"older",4,"HOTEL","HOTEL",TRUE,3.631,1,4,"pepper","new-new",939
"58c2923ada66280001b3c5ad",12,"older",1,"FAMILY","FAMILY",TRUE,6.12,3,1,"dice","match",940
"58c2923ada66280001b3c5ad",12,"older",2,"?","COPS",FALSE,7.159,0,2,"hanger","old-new",940
"58c2923ada66280001b3c5ad",12,"older",3,"?","ROOF",FALSE,2.949,2,3,"suitcase","mis-match",940
"58c2923ada66280001b3c5ad",12,"older",4,"?","ESTATE",FALSE,1.171,1,4,"diamond","new-new",940
"58c2923ada66280001b3c5ad",13,"older",1,"ARTIST","ARTIST",TRUE,4.835,3,1,"frame","new-new",941
"58c2923ada66280001b3c5ad",13,"older",2,"?","FEET",FALSE,3.204,1,2,"kettle","new-new",941
"58c2923ada66280001b3c5ad",13,"older",3,"?","SHOTS",FALSE,0.849,0,3,"backpack","new-new",941
"58c2923ada66280001b3c5ad",13,"older",4,"DEATH","DEATH",TRUE,2.771,2,4,"gorilla","new-new",941
"58c2923ada66280001b3c5ad",14,"older",1,"YARD","BOYS",FALSE,3.937,0,1,"daisy","new-new",942
"58c2923ada66280001b3c5ad",14,"older",2,"?","YARD",FALSE,1.084,1,2,"goose","new-new",942
"58c2923ada66280001b3c5ad",14,"older",3,"?","GLASS",FALSE,0.828,3,3,"tractor","new-new",942
"58c2923ada66280001b3c5ad",14,"older",4,"GLASS","NATION",FALSE,3.992,2,4,"planet","new-new",942
"58c2923ada66280001b3c5ad",15,"older",1,"LIFE","LIFE",TRUE,3.419,0,1,"carrot","match",943
"58c2923ada66280001b3c5ad",15,"older",2,"?","SAKE",FALSE,2.861,2,2,"spoon","new-new",943
"58c2923ada66280001b3c5ad",15,"older",3,"RIVER","RIVER",TRUE,3.849,1,3,"sun","mis-match",943
"58c2923ada66280001b3c5ad",15,"older",4,"?","PRINCE",FALSE,1.149,3,4,"perfume","old-new",943
"58c2923ada66280001b3c5ad",16,"older",1,"ADVICE","SYSTEM",FALSE,4.914,1,1,"basket","mis-match",944
"58c2923ada66280001b3c5ad",16,"older",2,"DOZEN","DOZEN",TRUE,4.37,0,2,"cart","match",944
"58c2923ada66280001b3c5ad",16,"older",3,"?","PHOTO",FALSE,3.515,2,3,"dart","new-new",944
"58c2923ada66280001b3c5ad",16,"older",4,"?","ADVICE",FALSE,0.7,3,4,"razor","old-new",944
"597519f8262c480001bbaf8b",1,"older",1,"MONTH","MONTH",TRUE,9.995,0,1,"cherry","new-new",945
"597519f8262c480001bbaf8b",1,"older",2,"WRITER","WRITER",TRUE,9.998,2,2,"carrot","match",945
"597519f8262c480001bbaf8b",1,"older",3,"?","BELT",FALSE,9.997,3,3,"backpack","old-new",945
"597519f8262c480001bbaf8b",1,"older",4,"?","SAKE",FALSE,9.998,1,4,"cathedral","mis-match",945
"597519f8262c480001bbaf8b",2,"older",1,"SEIRES","CARS",FALSE,9.995,2,1,"candle","new-new",946
"597519f8262c480001bbaf8b",2,"older",2,"FUN","FAMILY",FALSE,9.998,1,2,"diamond","mis-match",946
"597519f8262c480001bbaf8b",2,"older",3,"CARS","THING",FALSE,9.998,3,3,"hanger","old-new",946
"597519f8262c480001bbaf8b",2,"older",4,"THEY","SERIES",FALSE,9.997,0,4,"helmet","match",946
"597519f8262c480001bbaf8b",3,"older",1,"MILLER","MILLER",TRUE,9.995,0,1,"balcony","new-new",947
"597519f8262c480001bbaf8b",3,"older",2,"?","SPEECH",FALSE,9.998,3,2,"motorbike","new-new",947
"597519f8262c480001bbaf8b",3,"older",3,"TEAR","TEAR",TRUE,9.998,2,3,"shovel","new-new",947
"597519f8262c480001bbaf8b",3,"older",4,"SPEED","DANGER",FALSE,9.998,1,4,"tray","new-new",947
"597519f8262c480001bbaf8b",4,"older",1,"JUNGLE","SYSTEM",FALSE,9.994,3,1,"scissors","new-new",948
"597519f8262c480001bbaf8b",4,"older",2,"APPLE","JUNGLE",FALSE,9.997,0,2,"boot","mis-match",948
"597519f8262c480001bbaf8b",4,"older",3,"FRIEND","APPLE",FALSE,9.998,1,3,"pepper","old-new",948
"597519f8262c480001bbaf8b",4,"older",4,"FRIEND","FRIEND",TRUE,9.997,2,4,"frame","match",948
"597519f8262c480001bbaf8b",5,"older",1,"GLASS","GLASS",TRUE,9.995,0,1,"aeroplane","new-new",949
"597519f8262c480001bbaf8b",5,"older",2,"PILLS","ESTATE",FALSE,9.999,2,2,"salt","new-new",949
"597519f8262c480001bbaf8b",5,"older",3,"ESR","DEMON",FALSE,9.997,3,3,"mirror","new-new",949
"597519f8262c480001bbaf8b",5,"older",4,"DEMON","PILLS",FALSE,9.997,1,4,"ring","new-new",949
"597519f8262c480001bbaf8b",6,"older",1,"IDEAS","LEADER",FALSE,9.994,2,1,"runner","mis-match",950
"597519f8262c480001bbaf8b",6,"older",2,"SALE","IDEAS",FALSE,9.997,0,2,"daisy","old-new",950
"597519f8262c480001bbaf8b",6,"older",3,"AGENT","AGENT",TRUE,9.998,3,3,"mushroom","new-new",950
"597519f8262c480001bbaf8b",6,"older",4,"LEND","SALE",FALSE,9.996,1,4,"dart","match",950
"597519f8262c480001bbaf8b",7,"older",1,"RIVER","RIVER",TRUE,9.995,2,1,"rug","match",951
"597519f8262c480001bbaf8b",7,"older",2,"MOMENT","BEAUTY",FALSE,9.997,1,2,"goose","old-new",951
"597519f8262c480001bbaf8b",7,"older",3,"FOOD","FOOD",TRUE,9.998,0,3,"gorilla","mis-match",951
"597519f8262c480001bbaf8b",7,"older",4,"?","MOMENT",FALSE,9.998,3,4,"stamp","new-new",951
"597519f8262c480001bbaf8b",8,"older",1,"?","PHOTO",FALSE,9.995,3,1,"spoon","new-new",952
"597519f8262c480001bbaf8b",8,"older",2,"?","GODS",FALSE,9.998,1,2,"windmill","new-new",952
"597519f8262c480001bbaf8b",8,"older",3,"CLOCK","CLOCK",TRUE,9.997,2,3,"sunflower","new-new",952
"597519f8262c480001bbaf8b",8,"older",4,"HOT","HOTEL",FALSE,9.998,0,4,"megaphone","new-new",952
"597519f8262c480001bbaf8b",9,"older",1,"KIND","KIND",TRUE,9.993,0,1,"kettle","new-new",953
"597519f8262c480001bbaf8b",9,"older",2,"WEAPON","DUDE",FALSE,9.998,3,2,"tractor","new-new",953
"597519f8262c480001bbaf8b",9,"older",3,"MILE","WEAPON",FALSE,9.998,1,3,"bench","new-new",953
"597519f8262c480001bbaf8b",9,"older",4,"DUDE","MILE",FALSE,9.998,2,4,"calendar","new-new",953
"597519f8262c480001bbaf8b",10,"older",1,"?","BOYS",FALSE,9.995,0,1,"tyre","mis-match",954
"597519f8262c480001bbaf8b",10,"older",2,"?","SHOTS",FALSE,9.996,1,2,"telephone","match",954
"597519f8262c480001bbaf8b",10,"older",3,"?","AREA",FALSE,9.997,3,3,"cart","new-new",954
"597519f8262c480001bbaf8b",10,"older",4,"AREA","SPIRIT",FALSE,9.998,2,4,"basket","old-new",954
"597519f8262c480001bbaf8b",11,"older",1,"CANDY","CANDY",TRUE,9.994,0,1,"perfume","mis-match",955
"597519f8262c480001bbaf8b",11,"older",2,"CLIENT","STYLE",FALSE,9.998,3,2,"pear","new-new",955
"597519f8262c480001bbaf8b",11,"older",3,"CLIENT","CLIENT",TRUE,9.998,1,3,"monkey","match",955
"597519f8262c480001bbaf8b",11,"older",4,"LIFE","LIFE",TRUE,9.996,2,4,"wheel","old-new",955
"597519f8262c480001bbaf8b",12,"older",1,"DIRT","ADVICE",FALSE,9.994,2,1,"dice","new-new",956
"597519f8262c480001bbaf8b",12,"older",2,"?","LETTER",FALSE,9.998,1,2,"microphone","new-new",956
"597519f8262c480001bbaf8b",12,"older",3,"ADVICE","DEATH",FALSE,9.998,3,3,"pawn","new-new",956
"597519f8262c480001bbaf8b",12,"older",4,"DEATH","DIRT",FALSE,9.997,0,4,"sun","new-new",956
"597519f8262c480001bbaf8b",13,"older",1,"NIGHT","NIGHT",TRUE,9.994,2,1,"cap","match",957
"597519f8262c480001bbaf8b",13,"older",2,"NATION","NATION",TRUE,9.997,3,2,"wheelbarrow","mis-match",957
"597519f8262c480001bbaf8b",13,"older",3,"?","HONEY",FALSE,9.997,0,3,"taxi","new-new",957
"597519f8262c480001bbaf8b",13,"older",4,"LIFE","DOZEN",FALSE,9.997,1,4,"anchor","old-new",957
"597519f8262c480001bbaf8b",14,"older",1,"PRINCE","YEAR",FALSE,9.995,3,1,"coin","new-new",958
"597519f8262c480001bbaf8b",14,"older",2,"GIRL","FEET",FALSE,9.998,2,2,"crown","new-new",958
"597519f8262c480001bbaf8b",14,"older",3,"YEAR","GIRL",FALSE,9.998,1,3,"map","new-new",958
"597519f8262c480001bbaf8b",14,"older",4,"FEET","PRINCE",FALSE,9.998,0,4,"peg","new-new",958
"597519f8262c480001bbaf8b",15,"older",1,"VALLEY","CASINO",FALSE,9.995,0,1,"watch","mis-match",959
"597519f8262c480001bbaf8b",15,"older",2,"CASINO","RECORD",FALSE,9.998,3,2,"razor","old-new",959
"597519f8262c480001bbaf8b",15,"older",3,"RECORD","VALLEY",FALSE,9.997,1,3,"pencil","match",959
"597519f8262c480001bbaf8b",15,"older",4,"POLICE","POLICY",FALSE,9.998,2,4,"skateboard","new-new",959
"597519f8262c480001bbaf8b",16,"older",1,"LOTS","LOTS",TRUE,9.995,3,1,"bolt","match",960
"597519f8262c480001bbaf8b",16,"older",2,"YARD","YARD",TRUE,9.998,1,2,"stool","old-new",960
"597519f8262c480001bbaf8b",16,"older",3,"ROOF","COPS",FALSE,9.998,0,3,"suitcase","mis-match",960
"597519f8262c480001bbaf8b",16,"older",4,"COPS","ROOF",FALSE,9.999,2,4,"planet","new-new",960
"597637e7807ffb000192def6",1,"older",1,"DUDE","DUDE",TRUE,2.183,0,1,"skateboard","old-new",1217
"597637e7807ffb000192def6",1,"older",2,"HONEY","HONEY",TRUE,2.35,1,2,"wheelbarrow","new-new",1217
"597637e7807ffb000192def6",1,"older",3,"MOMENT","MOMENT",TRUE,3.418,2,3,"stamp","match",1217
"597637e7807ffb000192def6",1,"older",4,"APPLE","APPLE",TRUE,2.217,3,4,"windmill","mis-match",1217
"597637e7807ffb000192def6",2,"older",1,"BATH","DEMON",FALSE,2.316,2,1,"pawn","new-new",1218
"597637e7807ffb000192def6",2,"older",2,"NIGHT","BATH",FALSE,1.684,0,2,"anchor","old-new",1218
"597637e7807ffb000192def6",2,"older",3,"DEMON","NIGHT",FALSE,1.701,1,3,"tyre","mis-match",1218
"597637e7807ffb000192def6",2,"older",4,"SERIES","SERIES",TRUE,2.084,3,4,"rug","match",1218
"597637e7807ffb000192def6",3,"older",1,"LIFE","RIVER",FALSE,3.434,1,1,"sun","mis-match",1219
"597637e7807ffb000192def6",3,"older",2,"RIVER","SAKE",FALSE,2.201,2,2,"spoon","new-new",1219
"597637e7807ffb000192def6",3,"older",3,"LIFE","LIFE",TRUE,3.218,0,3,"carrot","match",1219
"597637e7807ffb000192def6",3,"older",4,"PRINCE","PRINCE",TRUE,2.666,3,4,"perfume","old-new",1219
"597637e7807ffb000192def6",4,"older",1,"MONTH","MONTH",TRUE,5.752,2,1,"calendar","new-new",1220
"597637e7807ffb000192def6",4,"older",2,"POLICY","PILLS",FALSE,2.318,1,2,"sunflower","old-new",1220
"597637e7807ffb000192def6",4,"older",3,"?","POLICY",FALSE,3.451,3,3,"candle","mis-match",1220
"597637e7807ffb000192def6",4,"older",4,"CASINO","CASINO",TRUE,2.768,0,4,"motorbike","match",1220
"597637e7807ffb000192def6",5,"older",1,"WEAPON","WEAPON",TRUE,3.383,0,1,"wheel","mis-match",1221
"597637e7807ffb000192def6",5,"older",2,"PENNY","PENNY",TRUE,2.384,2,2,"monkey","match",1221
"597637e7807ffb000192def6",5,"older",3,"MILLER","MILLER",TRUE,2.201,1,3,"cap","old-new",1221
"597637e7807ffb000192def6",5,"older",4,"BODY","BODY",TRUE,5.319,3,4,"pencil","new-new",1221
"597637e7807ffb000192def6",6,"older",1,"CANDY","SALE",FALSE,3.085,1,1,"megaphone","new-new",1222
"597637e7807ffb000192def6",6,"older",2,"SALE","FLIGHT",FALSE,2.018,3,2,"bolt","new-new",1222
"597637e7807ffb000192def6",6,"older",3,"CANDY","CANDY",TRUE,3.802,0,3,"taxi","new-new",1222
"597637e7807ffb000192def6",6,"older",4,"DIRT","DIRT",TRUE,2.284,2,4,"scissors","new-new",1222
"597637e7807ffb000192def6",7,"older",1,"ARTIST","DEATH",FALSE,7.753,2,1,"gorilla","new-new",1223
"597637e7807ffb000192def6",7,"older",2,"DIRT","FEET",FALSE,3.284,1,2,"kettle","new-new",1223
"597637e7807ffb000192def6",7,"older",3,"?","ARTIST",FALSE,3.001,3,3,"frame","new-new",1223
"597637e7807ffb000192def6",7,"older",4,"SHOTS","SHOTS",TRUE,3.052,0,4,"backpack","new-new",1223
"597637e7807ffb000192def6",8,"older",1,"ADVICE","SYSTEM",FALSE,2.982,1,1,"basket","mis-match",1224
"597637e7807ffb000192def6",8,"older",2,"PHOTO","PHOTO",TRUE,5.902,2,2,"dart","new-new",1224
"597637e7807ffb000192def6",8,"older",3,"SYSTEM","ADVICE",FALSE,3.151,3,3,"razor","old-new",1224
"597637e7807ffb000192def6",8,"older",4,"DOZEN","DOZEN",TRUE,3.102,0,4,"cart","match",1224
"597637e7807ffb000192def6",9,"older",1,"THING","THING",TRUE,3.417,3,1,"crown","old-new",1225
"597637e7807ffb000192def6",9,"older",2,"AREA","AREA",TRUE,4.452,0,2,"aeroplane","mis-match",1225
"597637e7807ffb000192def6",9,"older",3,"TEAR","TEAR",TRUE,2.101,2,3,"pear","new-new",1225
"597637e7807ffb000192def6",9,"older",4,"WOMEN","WOMEN",TRUE,1.951,1,4,"salt","match",1225
"597637e7807ffb000192def6",10,"older",1,"ESTATE","ESTATE",TRUE,4.901,1,1,"diamond","new-new",1226
"597637e7807ffb000192def6",10,"older",2,"COPS","COPS",TRUE,3.335,0,2,"hanger","old-new",1226
"597637e7807ffb000192def6",10,"older",3,"FAMILY","FAMILY",TRUE,2.617,3,3,"dice","match",1226
"597637e7807ffb000192def6",10,"older",4,"ROOF","ROOF",TRUE,4.736,2,4,"suitcase","mis-match",1226
"597637e7807ffb000192def6",11,"older",1,"WRITER","WRITER",TRUE,3.084,1,1,"cathedral","match",1227
"597637e7807ffb000192def6",11,"older",2,"HOUSE","HOUSE",TRUE,5.201,2,2,"microphone","mis-match",1227
"597637e7807ffb000192def6",11,"older",3,"FLESH","TOILET",FALSE,2.784,0,3,"mushroom","old-new",1227
"597637e7807ffb000192def6",11,"older",4,"TOILET","FLESH",FALSE,3.317,3,4,"shovel","new-new",1227
"597637e7807ffb000192def6",12,"older",1,"?","IDEAS",FALSE,4.717,2,1,"mirror","new-new",1228
"597637e7807ffb000192def6",12,"older",2,"LOTS","LOTS",TRUE,3.034,0,2,"stool","new-new",1228
"597637e7807ffb000192def6",12,"older",3,"VALLEY","VALLEY",TRUE,2.733,1,3,"bench","new-new",1228
"597637e7807ffb000192def6",12,"older",4,"LETTER","LETTER",TRUE,2.767,3,4,"coin","new-new",1228
"597637e7807ffb000192def6",13,"older",1,"AGENT","AGENT",TRUE,4.133,0,1,"balcony","new-new",1229
"597637e7807ffb000192def6",13,"older",2,"HOTLE","HOTEL",FALSE,3.468,1,2,"pepper","new-new",1229
"597637e7807ffb000192def6",13,"older",3,"CLOCK","CLOCK",TRUE,2.267,2,3,"helmet","new-new",1229
"597637e7807ffb000192def6",13,"older",4,"BEAUTY","BEAUTY",TRUE,2.401,3,4,"peg","new-new",1229
"597637e7807ffb000192def6",14,"older",1,"MILE","MILE",TRUE,2.683,1,1,"map","match",1230
"597637e7807ffb000192def6",14,"older",2,"SPIRIT","SPIRIT",TRUE,2.334,0,2,"ring","new-new",1230
"597637e7807ffb000192def6",14,"older",3,"?","STYLE",FALSE,4.135,3,3,"telephone","mis-match",1230
"597637e7807ffb000192def6",14,"older",4,"?","BELT",FALSE,4.152,2,4,"boot","old-new",1230
"597637e7807ffb000192def6",15,"older",1,"BOYS","YARD",FALSE,2.115,1,1,"goose","new-new",1231
"597637e7807ffb000192def6",15,"older",2,"YARD","GLASS",FALSE,1.85,3,2,"tractor","new-new",1231
"597637e7807ffb000192def6",15,"older",3,"NATION","NATION",TRUE,2.051,2,3,"planet","new-new",1231
"597637e7807ffb000192def6",15,"older",4,"GLASS","BOYS",FALSE,2.233,0,4,"daisy","new-new",1231
"597637e7807ffb000192def6",16,"older",1,"FOOD","FOOD",TRUE,6.335,2,1,"watch","new-new",1232
"597637e7807ffb000192def6",16,"older",2,"JUNGLE","JUNGLE",TRUE,4.501,3,2,"cherry","new-new",1232
"597637e7807ffb000192def6",16,"older",3,"RECORD","RECORD",TRUE,2.15,0,3,"runner","new-new",1232
"597637e7807ffb000192def6",16,"older",4,"NATION","DANGER",FALSE,2.134,1,4,"tray","new-new",1232
"598d74208380cc00012a3a62",1,"younger",1,"NIGHT","NIGHT",TRUE,3.229739999,3,1,"cap","new-new",337
"598d74208380cc00012a3a62",1,"younger",2,"WRITER","DEATH",FALSE,2.881995,2,2,"suitcase","new-new",337
"598d74208380cc00012a3a62",1,"younger",3,"ROOF","ROOF",TRUE,1.56158,0,3,"planet","new-new",337
"598d74208380cc00012a3a62",1,"younger",4,"WRITER","WRITER",TRUE,1.70223,1,4,"watch","new-new",337
"598d74208380cc00012a3a62",2,"younger",1,"DOZEN","DOZEN",TRUE,3.48199,0,1,"basket","new-new",338
"598d74208380cc00012a3a62",2,"younger",2,"PHOTO","PHOTO",TRUE,3.612255,1,2,"spoon","mis-match",338
"598d74208380cc00012a3a62",2,"younger",3,"VALLEY","VALLEY",TRUE,2.56673,2,3,"megaphone","old-new",338
"598d74208380cc00012a3a62",2,"younger",4,"COPS","COPS",TRUE,1.133835,3,4,"pencil","match",338
"598d74208380cc00012a3a62",3,"younger",1,"IDEAS","IDEAS",TRUE,5.461999999,3,1,"candle","new-new",339
"598d74208380cc00012a3a62",3,"younger",2,"SERIES","STYLE",FALSE,3.44417,2,2,"pawn","new-new",339
"598d74208380cc00012a3a62",3,"younger",3,"WRITER","SERIES",FALSE,4.58846,1,3,"coin","new-new",339
"598d74208380cc00012a3a62",3,"younger",4,"FLESH","FLESH",TRUE,1.955865,0,4,"balcony","new-new",339
"598d74208380cc00012a3a62",4,"younger",1,"SYSTEM","ESTATE",FALSE,5.89595,2,1,"dart","new-new",340
"598d74208380cc00012a3a62",4,"younger",2,"SALE","HOUSE",FALSE,1.809265,3,2,"goose","new-new",340
"598d74208380cc00012a3a62",4,"younger",3,"SALE","SALE",TRUE,1.418695,0,3,"kettle","new-new",340
"598d74208380cc00012a3a62",4,"younger",4,"SYSTEM","SYSTEM",TRUE,1.701045,1,4,"peg","new-new",340
"598d74208380cc00012a3a62",5,"younger",1,"BELT","BELT",TRUE,2.287675,1,1,"wheelbarrow","old-new",341
"598d74208380cc00012a3a62",5,"younger",2,"ADVICE","ADVICE",TRUE,2.92145,2,2,"stamp","mis-match",341
"598d74208380cc00012a3a62",5,"younger",3,"LOTS","LOTS",TRUE,1.519859999,0,3,"microphone","match",341
"598d74208380cc00012a3a62",5,"younger",4,"TEAR","TEAR",TRUE,1.714355,3,4,"calendar","new-new",341
"598d74208380cc00012a3a62",6,"younger",1,"APPLE","APPLE",TRUE,4.703715,1,1,"stool","old-new",342
"598d74208380cc00012a3a62",6,"younger",2,"CASINO","CASINO",TRUE,2.580800001,2,2,"map","mis-match",342
"598d74208380cc00012a3a62",6,"younger",3,"SAKE","SAKE",TRUE,1.321545,0,3,"ring","match",342
"598d74208380cc00012a3a62",6,"younger",4,"SPEECH","SPEECH",TRUE,1.755270001,3,4,"pear","new-new",342
"598d74208380cc00012a3a62",7,"younger",1,"WOMEN","WOMEN",TRUE,1.3638,0,1,"wheel","mis-match",343
"598d74208380cc00012a3a62",7,"younger",2,"GIRL","GIRL",TRUE,1.793565,2,2,"tray","match",343
"598d74208380cc00012a3a62",7,"younger",3,"BODY","BODY",TRUE,3.156470001,3,3,"cherry","old-new",343
"598d74208380cc00012a3a62",7,"younger",4,"PRINCE","PRINCE",TRUE,1.39728,1,4,"windmill","new-new",343
"598d74208380cc00012a3a62",8,"younger",1,"CLOCK","CLOCK",TRUE,1.86024,0,1,"bolt","match",344
"598d74208380cc00012a3a62",8,"younger",2,"PLENTY","PLENTY",TRUE,1.65598,1,2,"diamond","mis-match",344
"598d74208380cc00012a3a62",8,"younger",3,"YARD","YARD",TRUE,1.528405,3,3,"mushroom","new-new",344
"598d74208380cc00012a3a62",8,"younger",4,"KIND","KIND",TRUE,1.798075001,2,4,"perfume","old-new",344
"598d74208380cc00012a3a62",9,"younger",1,"LETTER","LETTER",TRUE,2.34635,1,1,"hanger","new-new",345
"598d74208380cc00012a3a62",9,"younger",2,"FOOD","FOOD",TRUE,1.496335,0,2,"cathedral","new-new",345
"598d74208380cc00012a3a62",9,"younger",3,"MILLER","MILLER",TRUE,1.641565,2,3,"sunflower","new-new",345
"598d74208380cc00012a3a62",9,"younger",4,"MOMENT","MOMENT",TRUE,1.530785,3,4,"aeroplane","new-new",345
"598d74208380cc00012a3a62",10,"younger",1,"YEAR","YEAR",TRUE,2.642349999,1,1,"telephone","mis-match",346
"598d74208380cc00012a3a62",10,"younger",2,"FOOD","ARTIST",FALSE,4.345295,3,2,"gorilla","old-new",346
"598d74208380cc00012a3a62",10,"younger",3,"CANDY","CANDY",TRUE,1.85399,2,3,"cart","new-new",346
"598d74208380cc00012a3a62",10,"younger",4,"FLIGHT","FLIGHT",TRUE,5.05385,0,4,"tyre","match",346
"598d74208380cc00012a3a62",11,"younger",1,"POLICY","POLICY",TRUE,3.944955001,1,1,"frame","new-new",347
"598d74208380cc00012a3a62",11,"younger",2,"DANGER","DANGER",TRUE,1.965385,2,2,"skateboard","new-new",347
"598d74208380cc00012a3a62",11,"younger",3,"NATION","NATION",TRUE,2.37601,0,3,"pepper","new-new",347
"598d74208380cc00012a3a62",11,"younger",4,"RECORD","RECORD",TRUE,1.954045,3,4,"sun","new-new",347
"598d74208380cc00012a3a62",12,"younger",1,"BOYS","BOYS",TRUE,1.639064999,1,1,"monkey","new-new",348
"598d74208380cc00012a3a62",12,"younger",2,"SPIRIT","SPIRIT",TRUE,3.86875,2,2,"tractor","new-new",348
"598d74208380cc00012a3a62",12,"younger",3,"CARS","CARS",TRUE,1.610069999,0,3,"motorbike","new-new",348
"598d74208380cc00012a3a62",12,"younger",4,"MILES","MILE",FALSE,1.660235,3,4,"dice","new-new",348
"598d74208380cc00012a3a62",13,"younger",1,"LEADER","LEADER",TRUE,1.865104999,0,1,"helmet","match",349
"598d74208380cc00012a3a62",13,"younger",2,"LIFE","LIFE",TRUE,3.02008,3,2,"razor","old-new",349
"598d74208380cc00012a3a62",13,"younger",3,"SHOTS","SHOTS",TRUE,1.503330001,1,3,"scissors","new-new",349
"598d74208380cc00012a3a62",13,"younger",4,"CLIENT","CLIENT",TRUE,1.46377,2,4,"carrot","mis-match",349
"598d74208380cc00012a3a62",14,"younger",1,"THING","THING",TRUE,2.614490001,2,1,"runner","mis-match",350
"598d74208380cc00012a3a62",14,"younger",2,"JUNGLE","JUNGLE",TRUE,3.625545,1,2,"anchor","match",350
"598d74208380cc00012a3a62",14,"younger",3,"DIRT","DIRT",TRUE,1.490535,0,3,"mirror","new-new",350
"598d74208380cc00012a3a62",14,"younger",4,"FRIEND","FRIEND",TRUE,2.878345001,3,4,"taxi","old-new",350
"598d74208380cc00012a3a62",15,"younger",1,"DEMON","FEET",FALSE,6.295510001,3,1,"crown","old-new",351
"598d74208380cc00012a3a62",15,"younger",2,"FEET","BATH",FALSE,8.486115,2,2,"daisy","mis-match",351
"598d74208380cc00012a3a62",15,"younger",3,"DEMON","DEMON",TRUE,1.89929,1,3,"salt","new-new",351
"598d74208380cc00012a3a62",15,"younger",4,"GLASS","GLASS",TRUE,1.85651,0,4,"rug","match",351
"598d74208380cc00012a3a62",16,"younger",1,"RIVER","RIVER",TRUE,2.030739999,1,1,"backpack","mis-match",352
"598d74208380cc00012a3a62",16,"younger",2,"PENNY","PENNY",TRUE,2.533445001,3,2,"shovel","match",352
"598d74208380cc00012a3a62",16,"younger",3,"WEAPON","WEAPON",TRUE,2.00932,2,3,"boot","new-new",352
"598d74208380cc00012a3a62",16,"younger",4,"AREA","AREA",TRUE,1.445874999,0,4,"bench","old-new",352
"599c1130638529000144ffdd",1,"older",1,"?","DEATH",FALSE,4.096985,3,1,"pencil","new-new",1169
"599c1130638529000144ffdd",1,"older",2,"FOOD","FRIEND",FALSE,5.410255,2,2,"cart","new-new",1169
"599c1130638529000144ffdd",1,"older",3,"FOOD","FOOD",TRUE,4.04438,0,3,"telephone","new-new",1169
"599c1130638529000144ffdd",1,"older",4,"TRUNK","GODS",FALSE,3.752625,1,4,"sun","new-new",1169
"599c1130638529000144ffdd",2,"older",1,"GLASS","SYSTEM",FALSE,4.18587,1,1,"sunflower","new-new",1170
"599c1130638529000144ffdd",2,"older",2,"SYSTEM","FLIGHT",FALSE,3.894365,3,2,"pawn","mis-match",1170
"599c1130638529000144ffdd",2,"older",3,"THING","THING",TRUE,2.795755,2,3,"bench","match",1170
"599c1130638529000144ffdd",2,"older",4,"FLIGHT","GLASS",FALSE,1.95863,0,4,"crown","old-new",1170
"599c1130638529000144ffdd",3,"older",1,"IDEAS","IDEAS",TRUE,4.16277,2,1,"cap","new-new",1171
"599c1130638529000144ffdd",3,"older",2,"SUN","SPIRIT",FALSE,2.6549,0,2,"coin","new-new",1171
"599c1130638529000144ffdd",3,"older",3,"?","LEADER",FALSE,1.891795,1,3,"cathedral","new-new",1171
"599c1130638529000144ffdd",3,"older",4,"SUN","HOTEL",FALSE,2.98143,3,4,"planet","new-new",1171
"599c1130638529000144ffdd",4,"older",1,"BELT","BELT",TRUE,3.778215,0,1,"stool","new-new",1172
"599c1130638529000144ffdd",4,"older",2,"MIRROR","AGENT",FALSE,4.33761,3,2,"salt","new-new",1172
"599c1130638529000144ffdd",4,"older",3,"?","AREA",FALSE,1.49882,1,3,"frame","new-new",1172
"599c1130638529000144ffdd",4,"older",4,"?","ESTATE",FALSE,1.45048,2,4,"tractor","new-new",1172
"599c1130638529000144ffdd",5,"older",1,"CANDY","RECORD",FALSE,6.15888,3,1,"dart","mis-match",1173
"599c1130638529000144ffdd",5,"older",2,"PLANT","CANDY",FALSE,5.36124,1,2,"stamp","match",1173
"599c1130638529000144ffdd",5,"older",3,"?","CARS",FALSE,1.84607,2,3,"motorbike","new-new",1173
"599c1130638529000144ffdd",5,"older",4,"?","CLIENT",FALSE,10.019485,0,4,"peg","old-new",1173
"599c1130638529000144ffdd",6,"older",1,"COPS","COPS",TRUE,5.34318,2,1,"wheel","match",1174
"599c1130638529000144ffdd",6,"older",2,"?","HONEY",FALSE,1.50675,1,2,"cherry","new-new",1174
"599c1130638529000144ffdd",6,"older",3,"HONEY","MILE",FALSE,4.73554,0,3,"anchor","mis-match",1174
"599c1130638529000144ffdd",6,"older",4,"?","PENNY",FALSE,2.200525,3,4,"microphone","old-new",1174
"599c1130638529000144ffdd",7,"older",1,"?","SPEECH",FALSE,3.896505,2,1,"backpack","new-new",1175
"599c1130638529000144ffdd",7,"older",2,"FAMILY","FAMILY",TRUE,4.688605,0,2,"candle","mis-match",1175
"599c1130638529000144ffdd",7,"older",3,"GIRL","GIRL",TRUE,3.960185,3,3,"mirror","old-new",1175
"599c1130638529000144ffdd",7,"older",4,"CANDY","MILLER",FALSE,3.307485,1,4,"suitcase","match",1175
"599c1130638529000144ffdd",8,"older",1,"LOTS","LOTS",TRUE,4.723315,3,1,"spoon","new-new",1176
"599c1130638529000144ffdd",8,"older",2,"ROOF","ROOF",TRUE,3.62246,2,2,"basket","match",1176
"599c1130638529000144ffdd",8,"older",3,"DIRT","DIRT",TRUE,2.8555,1,3,"ring","old-new",1176
"599c1130638529000144ffdd",8,"older",4,"ADVICE","ADVICE",TRUE,4.618035,0,4,"calendar","mis-match",1176
"599c1130638529000144ffdd",9,"older",1,"PILLS","PILLS",TRUE,4.153045,3,1,"hanger","old-new",1177
"599c1130638529000144ffdd",9,"older",2,"DUDE","DUDE",TRUE,3.27879,2,2,"pepper","match",1177
"599c1130638529000144ffdd",9,"older",3,"PILLS","FLESH",FALSE,4.35486,1,3,"balcony","new-new",1177
"599c1130638529000144ffdd",9,"older",4,"?","PLENTY",FALSE,1.91742,0,4,"monkey","mis-match",1177
"599c1130638529000144ffdd",10,"older",1,"CARROT","CASINO",FALSE,5.369465,1,1,"carrot","new-new",1178
"599c1130638529000144ffdd",10,"older",2,"?","SERIES",FALSE,2.05412,0,2,"helmet","new-new",1178
"599c1130638529000144ffdd",10,"older",3,"?","DEMON",FALSE,2.881105,3,3,"diamond","new-new",1178
"599c1130638529000144ffdd",10,"older",4,"?","BEAUTY",FALSE,1.060625,2,4,"taxi","new-new",1178
"599c1130638529000144ffdd",11,"older",1,"JUNGLE","PRINCE",FALSE,4.69838,3,1,"windmill","new-new",1179
"599c1130638529000144ffdd",11,"older",2,"?","NATION",FALSE,2.49703,2,2,"gorilla","old-new",1179
"599c1130638529000144ffdd",11,"older",3,"BOYS","BOYS",TRUE,3.174855,1,3,"pear","match",1179
"599c1130638529000144ffdd",11,"older",4,"?","JUNGLE",FALSE,2.70059,0,4,"razor","mis-match",1179
"599c1130638529000144ffdd",12,"older",1,"SALE","STYLE",FALSE,3.0319,0,1,"boot","new-new",1180
"599c1130638529000144ffdd",12,"older",2,"FAMILY","SALE",FALSE,5.210205,3,2,"map","mis-match",1180
"599c1130638529000144ffdd",12,"older",3,"SALE","SAKE",FALSE,3.362075,1,3,"aeroplane","old-new",1180
"599c1130638529000144ffdd",12,"older",4,"?","YARD",FALSE,1.33389,2,4,"tyre","match",1180
"599c1130638529000144ffdd",13,"older",1,"HOUSE","TEAR",FALSE,3.63461,1,1,"shovel","new-new",1181
"599c1130638529000144ffdd",13,"older",2,"TEAR","YEAR",FALSE,2.80312,2,2,"mushroom","new-new",1181
"599c1130638529000144ffdd",13,"older",3,"HOUSE","HOUSE",TRUE,3.6706,0,3,"goose","new-new",1181
"599c1130638529000144ffdd",13,"older",4,"BATH","BATH",TRUE,3.352125,3,4,"skateboard","new-new",1181
"599c1130638529000144ffdd",14,"older",1,"MIRROR","ARTIST",FALSE,5.507335,3,1,"daisy","new-new",1182
"599c1130638529000144ffdd",14,"older",2,"WRITER","WRITER",TRUE,5.30691,1,2,"rug","match",1182
"599c1130638529000144ffdd",14,"older",3,"TOILET","DOZEN",FALSE,3.37781,2,3,"wheelbarrow","old-new",1182
"599c1130638529000144ffdd",14,"older",4,"BATH","TOILET",FALSE,2.58205,0,4,"scissors","mis-match",1182
"599c1130638529000144ffdd",15,"older",1,"?","RIVER",FALSE,2.6942,1,1,"tray","new-new",1183
"599c1130638529000144ffdd",15,"older",2,"CLOCK","CLOCK",TRUE,4.376865,2,2,"runner","new-new",1183
"599c1130638529000144ffdd",15,"older",3,"WOMEN","WOMEN",TRUE,3.70536,3,3,"watch","new-new",1183
"599c1130638529000144ffdd",15,"older",4,"?","NIGHT",FALSE,2.438345,0,4,"perfume","new-new",1183
"599c1130638529000144ffdd",16,"older",1,"KIND","DANGER",FALSE,4.574855,3,1,"megaphone","mis-match",1184
"599c1130638529000144ffdd",16,"older",2,"DANGER","SHOTS",FALSE,3.62226,1,2,"bolt","old-new",1184
"599c1130638529000144ffdd",16,"older",3,"APPLE","APPLE",TRUE,2.60885,0,3,"kettle","new-new",1184
"599c1130638529000144ffdd",16,"older",4,"SHOTS","KIND",FALSE,3.21082,2,4,"dice","match",1184
"59e91d78d4ab970001389c67",1,"older",1,"PRINCE","WOMEN",FALSE,4.25645,0,1,"wheel","mis-match",1313
"59e91d78d4ab970001389c67",1,"older",2,"BODY","BODY",TRUE,7.53326,3,2,"cherry","old-new",1313
"59e91d78d4ab970001389c67",1,"older",3,"PRINCE","PRINCE",TRUE,3.740935,1,3,"windmill","new-new",1313
"59e91d78d4ab970001389c67",1,"older",4,"WOMEN","GIRL",FALSE,3.05662,2,4,"tray","match",1313
"59e91d78d4ab970001389c67",2,"older",1,"LIFE","LIFE",TRUE,2.95375,3,1,"razor","old-new",1314
"59e91d78d4ab970001389c67",2,"older",2,"LEADER","LEADER",TRUE,2.956275,0,2,"helmet","match",1314
"59e91d78d4ab970001389c67",2,"older",3,"SHOTS","CLIENT",FALSE,6.01095,2,3,"carrot","mis-match",1314
"59e91d78d4ab970001389c67",2,"older",4,"CLIENT","SHOTS",FALSE,3.189295,1,4,"scissors","new-new",1314
"59e91d78d4ab970001389c67",3,"older",1,"YEAR","YEAR",TRUE,3.972495,1,1,"telephone","mis-match",1315
"59e91d78d4ab970001389c67",3,"older",2,"FLIGHT","FLIGHT",TRUE,6.314435,0,2,"tyre","match",1315
"59e91d78d4ab970001389c67",3,"older",3,"CANDY","CANDY",TRUE,3.28949,2,3,"cart","new-new",1315
"59e91d78d4ab970001389c67",3,"older",4,"ARTIST","ARTIST",TRUE,3.306685,3,4,"gorilla","old-new",1315
"59e91d78d4ab970001389c67",4,"older",1,"POLICY","POLICY",TRUE,4.472205,1,1,"frame","new-new",1316
"59e91d78d4ab970001389c67",4,"older",2,"NATION","DANGER",FALSE,4.510635,2,2,"skateboard","new-new",1316
"59e91d78d4ab970001389c67",4,"older",3,"DANGER","NATION",FALSE,3.290155,0,3,"pepper","new-new",1316
"59e91d78d4ab970001389c67",4,"older",4,"RECORD","RECORD",TRUE,3.055,3,4,"sun","new-new",1316
"59e91d78d4ab970001389c67",5,"older",1,"JUGLE","JUNGLE",FALSE,4.44155,1,1,"anchor","match",1317
"59e91d78d4ab970001389c67",5,"older",2,"FRIEND","FRIEND",TRUE,3.807115,3,2,"taxi","old-new",1317
"59e91d78d4ab970001389c67",5,"older",3,"DIRTY","DIRT",FALSE,3.157585,0,3,"mirror","new-new",1317
"59e91d78d4ab970001389c67",5,"older",4,"RUNNING","THING",FALSE,4.94504,2,4,"runner","mis-match",1317
"59e91d78d4ab970001389c67",6,"older",1,"WRITER","DEATH",FALSE,4.94009,2,1,"suitcase","new-new",1318
"59e91d78d4ab970001389c67",6,"older",2,"WRITER","WRITER",TRUE,4.24152,1,2,"watch","new-new",1318
"59e91d78d4ab970001389c67",6,"older",3,"ROOF","ROOF",TRUE,2.98888,0,3,"planet","new-new",1318
"59e91d78d4ab970001389c67",6,"older",4,"NIGHT","NIGHT",TRUE,3.021685,3,4,"cap","new-new",1318
"59e91d78d4ab970001389c67",7,"older",1,"SAKE","SAKE",TRUE,2.65395,0,1,"ring","match",1319
"59e91d78d4ab970001389c67",7,"older",2,"APPLE","SPEECH",FALSE,3.288765,3,2,"pear","new-new",1319
"59e91d78d4ab970001389c67",7,"older",3,"SPEECH","APPLE",FALSE,3.37325,1,3,"stool","old-new",1319
"59e91d78d4ab970001389c67",7,"older",4,"CASINO","CASINO",TRUE,3.908925,2,4,"map","mis-match",1319
"59e91d78d4ab970001389c67",8,"older",1,"CARS","SPIRIT",FALSE,3.37077,2,1,"tractor","new-new",1320
"59e91d78d4ab970001389c67",8,"older",2,"BOYS","BOYS",TRUE,3.8412,1,2,"monkey","new-new",1320
"59e91d78d4ab970001389c67",8,"older",3,"CARS","CARS",TRUE,5.462095,0,3,"motorbike","new-new",1320
"59e91d78d4ab970001389c67",8,"older",4,"MILE","MILE",TRUE,3.07224,3,4,"dice","new-new",1320
"59e91d78d4ab970001389c67",9,"older",1,"COPS","COPS",TRUE,3.006535,3,1,"pencil","match",1321
"59e91d78d4ab970001389c67",9,"older",2,"DOZEN","DOZEN",TRUE,4.360955,0,2,"basket","new-new",1321
"59e91d78d4ab970001389c67",9,"older",3,"PHOTO","PHOTO",TRUE,4.327045,1,3,"spoon","mis-match",1321
"59e91d78d4ab970001389c67",9,"older",4,"VALLEY","VALLEY",TRUE,3.622935,2,4,"megaphone","old-new",1321
"59e91d78d4ab970001389c67",10,"older",1,"PENNY","AREA",FALSE,5.1265,0,1,"bench","old-new",1322
"59e91d78d4ab970001389c67",10,"older",2,"AREA","RIVER",FALSE,2.68724,1,2,"backpack","mis-match",1322
"59e91d78d4ab970001389c67",10,"older",3,"RIVER","WEAPON",FALSE,2.955025,2,3,"boot","new-new",1322
"59e91d78d4ab970001389c67",10,"older",4,"PENNY","PENNY",TRUE,6.41478,3,4,"shovel","match",1322
"59e91d78d4ab970001389c67",11,"older",1,"PLENTY","KIND",FALSE,4.75939,2,1,"perfume","old-new",1323
"59e91d78d4ab970001389c67",11,"older",2,"PLENTY","PLENTY",TRUE,3.97462,1,2,"diamond","mis-match",1323
"59e91d78d4ab970001389c67",11,"older",3,"YARD","YARD",TRUE,6.514785,3,3,"mushroom","new-new",1323
"59e91d78d4ab970001389c67",11,"older",4,"CLOCK","CLOCK",TRUE,2.73773,0,4,"bolt","match",1323
"59e91d78d4ab970001389c67",12,"older",1,"FOOD","FOOD",TRUE,3.639005,0,1,"cathedral","new-new",1324
"59e91d78d4ab970001389c67",12,"older",2,"LETTER","LETTER",TRUE,4.626915,1,2,"hanger","new-new",1324
"59e91d78d4ab970001389c67",12,"older",3,"MOMENT","MOMENT",TRUE,3.924275,3,3,"aeroplane","new-new",1324
"59e91d78d4ab970001389c67",12,"older",4,"MILLER","MILLER",TRUE,3.78963,2,4,"sunflower","new-new",1324
"59e91d78d4ab970001389c67",13,"older",1,"DEMON","FEET",FALSE,6.29806,3,1,"crown","old-new",1325
"59e91d78d4ab970001389c67",13,"older",2,"DEMON","DEMON",TRUE,3.606285,1,2,"salt","new-new",1325
"59e91d78d4ab970001389c67",13,"older",3,"BATH","BATH",TRUE,3.54209,2,3,"daisy","mis-match",1325
"59e91d78d4ab970001389c67",13,"older",4,"GLASS","GLASS",TRUE,2.80307,0,4,"rug","match",1325
"59e91d78d4ab970001389c67",14,"older",1,"ESTATE","ESTATE",TRUE,5.209145,2,1,"dart","new-new",1326
"59e91d78d4ab970001389c67",14,"older",2,"SALE","SALE",TRUE,2.520835,0,2,"kettle","new-new",1326
"59e91d78d4ab970001389c67",14,"older",3,"SYSTEM","SYSTEM",TRUE,3.01778,1,3,"peg","new-new",1326
"59e91d78d4ab970001389c67",14,"older",4,"HOUSE","HOUSE",TRUE,3.20676,3,4,"goose","new-new",1326
"59e91d78d4ab970001389c67",15,"older",1,"FLESH","FLESH",TRUE,3.97361,0,1,"balcony","new-new",1327
"59e91d78d4ab970001389c67",15,"older",2,"SERIES","SERIES",TRUE,2.70547,1,2,"coin","new-new",1327
"59e91d78d4ab970001389c67",15,"older",3,"STYLE","IDEAS",FALSE,3.74184,3,3,"candle","new-new",1327
"59e91d78d4ab970001389c67",15,"older",4,"STYLE","STYLE",TRUE,2.955195,2,4,"pawn","new-new",1327
"59e91d78d4ab970001389c67",16,"older",1,"LOTS","LOTS",TRUE,4.441285,0,1,"microphone","match",1328
"59e91d78d4ab970001389c67",16,"older",2,"ADVICE","ADVICE",TRUE,3.78948,2,2,"stamp","mis-match",1328
"59e91d78d4ab970001389c67",16,"older",3,"BELT","BELT",TRUE,3.305435,1,3,"wheelbarrow","old-new",1328
"59e91d78d4ab970001389c67",16,"older",4,"TEAR","TEAR",TRUE,2.97377,3,4,"calendar","new-new",1328
"5a04ccfef2e3460001edadef",1,"older",1,"COPS","ESTATE",FALSE,5.17208,1,1,"diamond","new-new",1073
"5a04ccfef2e3460001edadef",1,"older",2,"STATE","COPS",FALSE,4.930525,0,2,"hanger","old-new",1073
"5a04ccfef2e3460001edadef",1,"older",3,"FAMILY","FAMILY",TRUE,3.97078,3,3,"dice","match",1073
"5a04ccfef2e3460001edadef",1,"older",4,"ROOF","ROOF",TRUE,3.73352,2,4,"suitcase","mis-match",1073
"5a04ccfef2e3460001edadef",2,"older",1,"DIRTY","DIRT",FALSE,4.92872,2,1,"scissors","new-new",1074
"5a04ccfef2e3460001edadef",2,"older",2,"SALE","SALE",TRUE,3.51494,1,2,"megaphone","new-new",1074
"5a04ccfef2e3460001edadef",2,"older",3,"?","FLIGHT",FALSE,3.66092,3,3,"bolt","new-new",1074
"5a04ccfef2e3460001edadef",2,"older",4,"CANDY","CANDY",TRUE,4.011435,0,4,"taxi","new-new",1074
"5a04ccfef2e3460001edadef",3,"older",1,"PEG","BEAUTY",FALSE,3.2006,3,1,"peg","new-new",1075
"5a04ccfef2e3460001edadef",3,"older",2,"?","AGENT",FALSE,2.35201,0,2,"balcony","new-new",1075
"5a04ccfef2e3460001edadef",3,"older",3,"MAN","CLOCK",FALSE,3.90587,2,3,"helmet","new-new",1075
"5a04ccfef2e3460001edadef",3,"older",4,"APPLE","HOTEL",FALSE,3.623025,1,4,"pepper","new-new",1075
"5a04ccfef2e3460001edadef",4,"older",1,"JUNGLE","FOOD",FALSE,6.96522,2,1,"watch","new-new",1076
"5a04ccfef2e3460001edadef",4,"older",2,"DANGER","DANGER",TRUE,3.625355,1,2,"tray","new-new",1076
"5a04ccfef2e3460001edadef",4,"older",3,"RECORD","RECORD",TRUE,3.671805,0,3,"runner","new-new",1076
"5a04ccfef2e3460001edadef",4,"older",4,"APPLE","JUNGLE",FALSE,4.246075,3,4,"cherry","new-new",1076
"5a04ccfef2e3460001edadef",5,"older",1,"FRIEND","PHOTO",FALSE,4.657635,2,1,"dart","new-new",1077
"5a04ccfef2e3460001edadef",5,"older",2,"DOZEN","DOZEN",TRUE,3.799785,0,2,"cart","match",1077
"5a04ccfef2e3460001edadef",5,"older",3,"ADVICE","ADVICE",TRUE,4.71813,3,3,"razor","old-new",1077
"5a04ccfef2e3460001edadef",5,"older",4,"SYSTEM","SYSTEM",TRUE,4.798725,1,4,"basket","mis-match",1077
"5a04ccfef2e3460001edadef",6,"older",1,"VALLEY","VALLEY",TRUE,3.917815,1,1,"bench","new-new",1078
"5a04ccfef2e3460001edadef",6,"older",2,"IDEAS","IDEAS",TRUE,3.475815,2,2,"mirror","new-new",1078
"5a04ccfef2e3460001edadef",6,"older",3,"LETTER","LETTER",TRUE,5.053,3,3,"coin","new-new",1078
"5a04ccfef2e3460001edadef",6,"older",4,"LOTS","LOTS",TRUE,3.001985,0,4,"stool","new-new",1078
"5a04ccfef2e3460001edadef",7,"older",1,"STYLE","STYLE",TRUE,4.5424,3,1,"telephone","mis-match",1079
"5a04ccfef2e3460001edadef",7,"older",2,"BELT","SPIRIT",FALSE,4.88894,0,2,"ring","new-new",1079
"5a04ccfef2e3460001edadef",7,"older",3,"?","BELT",FALSE,2.613305,2,3,"boot","old-new",1079
"5a04ccfef2e3460001edadef",7,"older",4,"MILE","MILE",TRUE,3.277095,1,4,"map","match",1079
"5a04ccfef2e3460001edadef",8,"older",1,"PENNY","PENNY",TRUE,3.23988,2,1,"monkey","match",1080
"5a04ccfef2e3460001edadef",8,"older",2,"BODY","BODY",TRUE,3.70286,3,2,"pencil","new-new",1080
"5a04ccfef2e3460001edadef",8,"older",3,"WEAPON","WEAPON",TRUE,3.50184,0,3,"wheel","mis-match",1080
"5a04ccfef2e3460001edadef",8,"older",4,"MILLER","MILLER",TRUE,3.69551,1,4,"cap","old-new",1080
"5a04ccfef2e3460001edadef",9,"older",1,"APPLE","APPLE",TRUE,3.472205,3,1,"windmill","mis-match",1081
"5a04ccfef2e3460001edadef",9,"older",2,"?","HONEY",FALSE,3.90561,1,2,"wheelbarrow","new-new",1081
"5a04ccfef2e3460001edadef",9,"older",3,"DUDE","DUDE",TRUE,3.83827,0,3,"skateboard","old-new",1081
"5a04ccfef2e3460001edadef",9,"older",4,"MOMENT","MOMENT",TRUE,4.720815,2,4,"stamp","match",1081
"5a04ccfef2e3460001edadef",10,"older",1,"YARD","YARD",TRUE,5.094865,1,1,"goose","new-new",1082
"5a04ccfef2e3460001edadef",10,"older",2,"GLASS","GLASS",TRUE,3.849365,3,2,"tractor","new-new",1082
"5a04ccfef2e3460001edadef",10,"older",3,"BOYS","BOYS",TRUE,4.64798,0,3,"daisy","new-new",1082
"5a04ccfef2e3460001edadef",10,"older",4,"NATION","NATION",TRUE,4.11635,2,4,"planet","new-new",1082
"5a04ccfef2e3460001edadef",11,"older",1,"LIFE","LIFE",TRUE,3.05541,0,1,"carrot","match",1083
"5a04ccfef2e3460001edadef",11,"older",2,"PRINCE","PRINCE",TRUE,3.92758,3,2,"perfume","old-new",1083
"5a04ccfef2e3460001edadef",11,"older",3,"SAKE","SAKE",TRUE,3.044855,2,3,"spoon","new-new",1083
"5a04ccfef2e3460001edadef",11,"older",4,"?","RIVER",FALSE,2.773655,1,4,"sun","mis-match",1083
"5a04ccfef2e3460001edadef",12,"older",1,"FLESH","FLESH",TRUE,3.350735,3,1,"shovel","new-new",1084
"5a04ccfef2e3460001edadef",12,"older",2,"WRITER","WRITER",TRUE,3.57812,1,2,"cathedral","match",1084
"5a04ccfef2e3460001edadef",12,"older",3,"HOUSE","HOUSE",TRUE,4.40924,2,3,"microphone","mis-match",1084
"5a04ccfef2e3460001edadef",12,"older",4,"TOILET","TOILET",TRUE,6.02024,0,4,"mushroom","old-new",1084
"5a04ccfef2e3460001edadef",13,"older",1,"POLICY","POLICY",TRUE,3.60584,3,1,"candle","mis-match",1085
"5a04ccfef2e3460001edadef",13,"older",2,"?","PILLS",FALSE,3.45918,1,2,"sunflower","old-new",1085
"5a04ccfef2e3460001edadef",13,"older",3,"CASINO","CASINO",TRUE,3.584375,0,3,"motorbike","match",1085
"5a04ccfef2e3460001edadef",13,"older",4,"MONTH","MONTH",TRUE,3.162625,2,4,"calendar","new-new",1085
"5a04ccfef2e3460001edadef",14,"older",1,"DEMON","DEMON",TRUE,10.00012,2,1,"pawn","new-new",1086
"5a04ccfef2e3460001edadef",14,"older",2,"BATH","BATH",TRUE,4.78562,0,2,"anchor","old-new",1086
"5a04ccfef2e3460001edadef",14,"older",3,"SERIES","SERIES",TRUE,3.88694,3,3,"rug","match",1086
"5a04ccfef2e3460001edadef",14,"older",4,"NIGHT","NIGHT",TRUE,3.857785,1,4,"tyre","mis-match",1086
"5a04ccfef2e3460001edadef",15,"older",1,"?","SHOTS",FALSE,3.147055,0,1,"backpack","new-new",1087
"5a04ccfef2e3460001edadef",15,"older",2,"DEATH","DEATH",TRUE,3.370405,2,2,"gorilla","new-new",1087
"5a04ccfef2e3460001edadef",15,"older",3,"ARTIST","ARTIST",TRUE,5.71147,3,3,"frame","new-new",1087
"5a04ccfef2e3460001edadef",15,"older",4,"FEET","FEET",TRUE,3.59325,1,4,"kettle","new-new",1087
"5a04ccfef2e3460001edadef",16,"older",1,"TEAR","TEAR",TRUE,4.003695,2,1,"pear","new-new",1088
"5a04ccfef2e3460001edadef",16,"older",2,"THING","THING",TRUE,4.03005,3,2,"crown","old-new",1088
"5a04ccfef2e3460001edadef",16,"older",3,"WOMEN","WOMEN",TRUE,3.7386,1,3,"salt","match",1088
"5a04ccfef2e3460001edadef",16,"older",4,"AREA","AREA",TRUE,3.971635,0,4,"aeroplane","mis-match",1088
"5abf3b30a3ba7a0001b46efa",1,"older",1,"NIGHT","NIGHT",TRUE,3.164265,3,1,"bench","new-new",993
"5abf3b30a3ba7a0001b46efa",1,"older",2,"FAMILY","FAMILY",TRUE,3.398205,2,2,"ring","new-new",993
"5abf3b30a3ba7a0001b46efa",1,"older",3,"?","PILLS",FALSE,9.997615,0,3,"skateboard","new-new",993
"5abf3b30a3ba7a0001b46efa",1,"older",4,"RECORD","RECORD",TRUE,4.35229,1,4,"razor","new-new",993
"5abf3b30a3ba7a0001b46efa",2,"older",1,"HOMEY","CLOCK",FALSE,5.79958,2,1,"pear","new-new",994
"5abf3b30a3ba7a0001b46efa",2,"older",2,"","PLENTY",FALSE,5.76453,1,2,"salt","mis-match",994
"5abf3b30a3ba7a0001b46efa",2,"older",3,"MONEY","HONEY",FALSE,4.06382,0,3,"kettle","old-new",994
"5abf3b30a3ba7a0001b46efa",2,"older",4,"STYLE","STYLE",TRUE,3.615215,3,4,"suitcase","match",994
"5abf3b30a3ba7a0001b46efa",3,"older",1,"LOTS","LOTS",TRUE,3.21509,3,1,"backpack","new-new",995
"5abf3b30a3ba7a0001b46efa",3,"older",2,"?","CARS",FALSE,4.91287,2,2,"tray","new-new",995
"5abf3b30a3ba7a0001b46efa",3,"older",3,"?","DOZEN",FALSE,2.592455,0,3,"gorilla","new-new",995
"5abf3b30a3ba7a0001b46efa",3,"older",4,"PLENTY","FLESH",FALSE,9.281475,1,4,"windmill","new-new",995
"5abf3b30a3ba7a0001b46efa",4,"older",1,"DIRT","DIRT",TRUE,4.94801,1,1,"scissors","old-new",996
"5abf3b30a3ba7a0001b46efa",4,"older",2,"?","SPEECH",FALSE,5.84536,2,2,"carrot","mis-match",996
"5abf3b30a3ba7a0001b46efa",4,"older",3,"?","YARD",FALSE,9.99829,0,3,"monkey","match",996
"5abf3b30a3ba7a0001b46efa",4,"older",4,"MILE","MILE",TRUE,3.29907,3,4,"taxi","new-new",996
"5abf3b30a3ba7a0001b46efa",5,"older",1,"SALE","SALE",TRUE,4.898015,1,1,"diamond","new-new",997
"5abf3b30a3ba7a0001b46efa",5,"older",2,"SERIES","SERIES",TRUE,3.6481,0,2,"tyre","new-new",997
"5abf3b30a3ba7a0001b46efa",5,"older",3,"?","AGENT",FALSE,5.39714,2,3,"goose","new-new",997
"5abf3b30a3ba7a0001b46efa",5,"older",4,"MILE","MILLER",FALSE,4.181785,3,4,"bolt","new-new",997
"5abf3b30a3ba7a0001b46efa",6,"older",1,"HOUSE","HOUSE",TRUE,3.6951,2,1,"mushroom","match",998
"5abf3b30a3ba7a0001b46efa",6,"older",2,"COPS","THING",FALSE,3.214535,0,2,"frame","old-new",998
"5abf3b30a3ba7a0001b46efa",6,"older",3,"DIRT","PRINCE",FALSE,3.697625,3,3,"peg","mis-match",998
"5abf3b30a3ba7a0001b46efa",6,"older",4,"DIRT","FOOD",FALSE,3.29918,1,4,"dart","new-new",998
"5abf3b30a3ba7a0001b46efa",7,"older",1,"LETTER","LETTER",TRUE,3.431055,3,1,"mirror","match",999
"5abf3b30a3ba7a0001b46efa",7,"older",2,"SYSTEM","SYSTEM",TRUE,6.36527,0,2,"sun","new-new",999
"5abf3b30a3ba7a0001b46efa",7,"older",3,"POLICY","ARTIST",FALSE,3.765685,1,3,"calendar","mis-match",999
"5abf3b30a3ba7a0001b46efa",7,"older",4,"YEAR","TEAR",FALSE,4.99867,2,4,"hanger","old-new",999
"5abf3b30a3ba7a0001b46efa",8,"older",1,"KIND","KIND",TRUE,3.080305,1,1,"candle","match",1000
"5abf3b30a3ba7a0001b46efa",8,"older",2,"SPIRIT","WOMEN",FALSE,8.59707,3,2,"microphone","old-new",1000
"5abf3b30a3ba7a0001b46efa",8,"older",3,"ARTIST","WRITER",FALSE,4.130355,0,3,"cap","mis-match",1000
"5abf3b30a3ba7a0001b46efa",8,"older",4,"?","WEAPON",FALSE,3.665035,2,4,"cherry","new-new",1000
"5abf3b30a3ba7a0001b46efa",9,"older",1,"?","ESTATE",FALSE,7.73091,0,1,"map","new-new",1001
"5abf3b30a3ba7a0001b46efa",9,"older",2,"CASINO","CASINO",TRUE,4.7969,2,2,"helmet","match",1001
"5abf3b30a3ba7a0001b46efa",9,"older",3,"ARTIST","GIRL",FALSE,4.232835,3,3,"pencil","old-new",1001
"5abf3b30a3ba7a0001b46efa",9,"older",4,"TOILET","PHOTO",FALSE,3.88162,1,4,"cathedral","mis-match",1001
"5abf3b30a3ba7a0001b46efa",10,"older",1,"LIFE","SHOTS",FALSE,4.898635,2,1,"cart","new-new",1002
"5abf3b30a3ba7a0001b46efa",10,"older",2,"LEFE","LIFE",FALSE,2.96456,3,2,"pawn","new-new",1002
"5abf3b30a3ba7a0001b46efa",10,"older",3,"GLASS","LEADER",FALSE,4.11464,0,3,"sunflower","new-new",1002
"5abf3b30a3ba7a0001b46efa",10,"older",4,"DEATH","DEATH",TRUE,2.830735,1,4,"aeroplane","new-new",1002
"5abf3b30a3ba7a0001b46efa",11,"older",1,"APPLE","APPLE",TRUE,5.102725,0,1,"dice","new-new",1003
"5abf3b30a3ba7a0001b46efa",11,"older",2,"BOYS","MOMENT",FALSE,3.722085,1,2,"boot","old-new",1003
"5abf3b30a3ba7a0001b46efa",11,"older",3,"ROOF","ROOF",TRUE,2.449305,2,3,"rug","match",1003
"5abf3b30a3ba7a0001b46efa",11,"older",4,"WRITER","IDEAS",FALSE,3.79683,3,4,"coin","mis-match",1003
"5abf3b30a3ba7a0001b46efa",12,"older",1,"?","DEMON",FALSE,6.111875,1,1,"telephone","mis-match",1004
"5abf3b30a3ba7a0001b46efa",12,"older",2,"?","ADVICE",FALSE,3.14888,0,2,"megaphone","new-new",1004
"5abf3b30a3ba7a0001b46efa",12,"older",3,"AREA","AREA",TRUE,2.581355,2,3,"shovel","match",1004
"5abf3b30a3ba7a0001b46efa",12,"older",4,"BEAUTY","SAKE",FALSE,5.01496,3,4,"motorbike","old-new",1004
"5abf3b30a3ba7a0001b46efa",13,"older",1,"BELT","JUNGLE",FALSE,4.381935,1,1,"planet","old-new",1005
"5abf3b30a3ba7a0001b46efa",13,"older",2,"?","POLICY",FALSE,3.165495,0,2,"pepper","mis-match",1005
"5abf3b30a3ba7a0001b46efa",13,"older",3,"BELT","BELT",TRUE,3.132175,3,3,"wheelbarrow","new-new",1005
"5abf3b30a3ba7a0001b46efa",13,"older",4,"BATH","BATH",TRUE,2.93028,2,4,"spoon","match",1005
"5abf3b30a3ba7a0001b46efa",14,"older",1,"BODY","PENNY",FALSE,4.64763,1,1,"stool","new-new",1006
"5abf3b30a3ba7a0001b46efa",14,"older",2,"PLENTY","TOILET",FALSE,4.18137,2,2,"anchor","mis-match",1006
"5abf3b30a3ba7a0001b46efa",14,"older",3,"GLASS","BODY",FALSE,3.21548,0,3,"daisy","old-new",1006
"5abf3b30a3ba7a0001b46efa",14,"older",4,"NATION","NATION",TRUE,3.165365,3,4,"stamp","match",1006
"5abf3b30a3ba7a0001b46efa",15,"older",1,"FEET","FEET",TRUE,6.19698,2,1,"runner","new-new",1007
"5abf3b30a3ba7a0001b46efa",15,"older",2,"CLIENT","CLIENT",TRUE,3.746215,3,2,"watch","new-new",1007
"5abf3b30a3ba7a0001b46efa",15,"older",3,"?","CANDY",FALSE,2.88347,1,3,"tractor","new-new",1007
"5abf3b30a3ba7a0001b46efa",15,"older",4,"?","FLIGHT",FALSE,1.315415,0,4,"wheel","new-new",1007
"5abf3b30a3ba7a0001b46efa",16,"older",1,"FRIEND","FRIEND",TRUE,5.129005,3,1,"balcony","new-new",1008
"5abf3b30a3ba7a0001b46efa",16,"older",2,"VALLEY","VALLEY",TRUE,3.59806,1,2,"basket","new-new",1008
"5abf3b30a3ba7a0001b46efa",16,"older",3,"GODS","GODS",TRUE,3.06648,2,3,"perfume","new-new",1008
"5abf3b30a3ba7a0001b46efa",16,"older",4,"?","DANGER",FALSE,3.94776,0,4,"crown","new-new",1008
"5ad3a1575b53cb0001f356f3",1,"older",1,"THING","THING",TRUE,3.796085,3,1,"crown","old-new",913
"5ad3a1575b53cb0001f356f3",1,"older",2,"TEAR","TEAR",TRUE,4.862055,2,2,"pear","new-new",913
"5ad3a1575b53cb0001f356f3",1,"older",3,"HEART","AREA",FALSE,3.27241,0,3,"aeroplane","mis-match",913
"5ad3a1575b53cb0001f356f3",1,"older",4,"WOMEN","WOMEN",TRUE,3.42507,1,4,"salt","match",913
"5ad3a1575b53cb0001f356f3",2,"older",1,"YARD","YARD",TRUE,3.92494,1,1,"goose","new-new",914
"5ad3a1575b53cb0001f356f3",2,"older",2,"GLASS","NATION",FALSE,3.913475,2,2,"planet","new-new",914
"5ad3a1575b53cb0001f356f3",2,"older",3,"BOYS","GLASS",FALSE,3.014125,3,3,"tractor","new-new",914
"5ad3a1575b53cb0001f356f3",2,"older",4,"BOYS","BOYS",TRUE,5.731765,0,4,"daisy","new-new",914
"5ad3a1575b53cb0001f356f3",3,"older",1,"FLESH","HOUSE",FALSE,6.782185,2,1,"microphone","mis-match",915
"5ad3a1575b53cb0001f356f3",3,"older",2,"TOILET","TOILET",TRUE,3.56813,0,2,"mushroom","old-new",915
"5ad3a1575b53cb0001f356f3",3,"older",3,"WRITER","WRITER",TRUE,3.629185,1,3,"cathedral","match",915
"5ad3a1575b53cb0001f356f3",3,"older",4,"ROSE","FLESH",FALSE,3.480195,3,4,"shovel","new-new",915
"5ad3a1575b53cb0001f356f3",4,"older",1,"DOZEN","DOZEN",TRUE,4.95824,0,1,"cart","match",916
"5ad3a1575b53cb0001f356f3",4,"older",2,"SYSTEM","ADVICE",FALSE,4.69636,3,2,"razor","old-new",916
"5ad3a1575b53cb0001f356f3",4,"older",3,"?","SYSTEM",FALSE,3.266335,1,3,"basket","mis-match",916
"5ad3a1575b53cb0001f356f3",4,"older",4,"?","PHOTO",FALSE,1.90255,2,4,"dart","new-new",916
"5ad3a1575b53cb0001f356f3",5,"older",1,"APPLE","APPLE",TRUE,3.943625,3,1,"windmill","mis-match",917
"5ad3a1575b53cb0001f356f3",5,"older",2,"MOMENT","MOMENT",TRUE,3.57077,2,2,"stamp","match",917
"5ad3a1575b53cb0001f356f3",5,"older",3,"HONEY","DUDE",FALSE,4.643235,0,3,"skateboard","old-new",917
"5ad3a1575b53cb0001f356f3",5,"older",4,"DUDE","HONEY",FALSE,3.17974,1,4,"wheelbarrow","new-new",917
"5ad3a1575b53cb0001f356f3",6,"older",1,"DEATH","SHOTS",FALSE,5.75098,0,1,"backpack","new-new",918
"5ad3a1575b53cb0001f356f3",6,"older",2,"DEATH","DEATH",TRUE,6.372665,2,2,"gorilla","new-new",918
"5ad3a1575b53cb0001f356f3",6,"older",3,"FATE","FEET",FALSE,6.111935,1,3,"kettle","new-new",918
"5ad3a1575b53cb0001f356f3",6,"older",4,"HARVEST","ARTIST",FALSE,4.649235,3,4,"frame","new-new",918
"5ad3a1575b53cb0001f356f3",7,"older",1,"SERIES","SERIES",TRUE,4.44129,3,1,"rug","match",919
"5ad3a1575b53cb0001f356f3",7,"older",2,"BATH","DEMON",FALSE,3.261675,2,2,"pawn","new-new",919
"5ad3a1575b53cb0001f356f3",7,"older",3,"NIGHT","NIGHT",TRUE,3.630445,1,3,"tyre","mis-match",919
"5ad3a1575b53cb0001f356f3",7,"older",4,"?","BATH",FALSE,1.71527,0,4,"anchor","old-new",919
"5ad3a1575b53cb0001f356f3",8,"older",1,"AGENT","HOTEL",FALSE,3.4968,1,1,"pepper","new-new",920
"5ad3a1575b53cb0001f356f3",8,"older",2,"BEAUTY","BEAUTY",TRUE,4.021125,3,2,"peg","new-new",920
"5ad3a1575b53cb0001f356f3",8,"older",3,"BATH","AGENT",FALSE,2.4468,0,3,"balcony","new-new",920
"5ad3a1575b53cb0001f356f3",8,"older",4,"AGENT","CLOCK",FALSE,3.47567,2,4,"helmet","new-new",920
"5ad3a1575b53cb0001f356f3",9,"older",1,"","SAKE",FALSE,7.56056,2,1,"spoon","new-new",921
"5ad3a1575b53cb0001f356f3",9,"older",2,"LIFE","LIFE",TRUE,2.8123,0,2,"carrot","match",921
"5ad3a1575b53cb0001f356f3",9,"older",3,"?","RIVER",FALSE,2.388785,1,3,"sun","mis-match",921
"5ad3a1575b53cb0001f356f3",9,"older",4,"?","PRINCE",FALSE,2.16448,3,4,"perfume","old-new",921
"5ad3a1575b53cb0001f356f3",10,"older",1,"FLIGHT","SALE",FALSE,4.078745,1,1,"megaphone","new-new",922
"5ad3a1575b53cb0001f356f3",10,"older",2,"CANDY","CANDY",TRUE,3.56945,0,2,"taxi","new-new",922
"5ad3a1575b53cb0001f356f3",10,"older",3,"?","DIRT",FALSE,1.49303,2,3,"scissors","new-new",922
"5ad3a1575b53cb0001f356f3",10,"older",4,"?","FLIGHT",FALSE,1.190415,3,4,"bolt","new-new",922
"5ad3a1575b53cb0001f356f3",11,"older",1,"POLICY","PILLS",FALSE,3.963595,1,1,"sunflower","old-new",923
"5ad3a1575b53cb0001f356f3",11,"older",2,"?","POLICY",FALSE,6.497415,3,2,"candle","mis-match",923
"5ad3a1575b53cb0001f356f3",11,"older",3,"CASINO","CASINO",TRUE,4.090775,0,3,"motorbike","match",923
"5ad3a1575b53cb0001f356f3",11,"older",4,"DATE","MONTH",FALSE,3.480345,2,4,"calendar","new-new",923
"5ad3a1575b53cb0001f356f3",12,"older",1,"RECORD","FOOD",FALSE,4.96047,2,1,"watch","new-new",924
"5ad3a1575b53cb0001f356f3",12,"older",2,"DANGER","RECORD",FALSE,3.746255,0,2,"runner","new-new",924
"5ad3a1575b53cb0001f356f3",12,"older",3,"JUNGLE","DANGER",FALSE,5.7529,1,3,"tray","new-new",924
"5ad3a1575b53cb0001f356f3",12,"older",4,"?","JUNGLE",FALSE,1.850425,3,4,"cherry","new-new",924
"5ad3a1575b53cb0001f356f3",13,"older",1,"LOTS","VALLEY",FALSE,3.01924,1,1,"bench","new-new",925
"5ad3a1575b53cb0001f356f3",13,"older",2,"LETTER","LOTS",FALSE,2.800815,0,2,"stool","new-new",925
"5ad3a1575b53cb0001f356f3",13,"older",3,"?","LETTER",FALSE,5.368435,3,3,"coin","new-new",925
"5ad3a1575b53cb0001f356f3",13,"older",4,"?","IDEAS",FALSE,0.912895,2,4,"mirror","new-new",925
"5ad3a1575b53cb0001f356f3",14,"older",1,"WEAPON","WEAPON",TRUE,3.59334,0,1,"wheel","mis-match",926
"5ad3a1575b53cb0001f356f3",14,"older",2,"?","BODY",FALSE,3.470905,3,2,"pencil","new-new",926
"5ad3a1575b53cb0001f356f3",14,"older",3,"PENNY","PENNY",TRUE,2.985695,2,3,"monkey","match",926
"5ad3a1575b53cb0001f356f3",14,"older",4,"BOSS","MILLER",FALSE,4.44167,1,4,"cap","old-new",926
"5ad3a1575b53cb0001f356f3",15,"older",1,"MILE","MILE",TRUE,2.73605,1,1,"map","match",927
"5ad3a1575b53cb0001f356f3",15,"older",2,"STYLE","BELT",FALSE,3.744745,2,2,"boot","old-new",927
"5ad3a1575b53cb0001f356f3",15,"older",3,"SPIRIT","STYLE",FALSE,6.607085,3,3,"telephone","mis-match",927
"5ad3a1575b53cb0001f356f3",15,"older",4,"?","SPIRIT",FALSE,5.30743,0,4,"ring","new-new",927
"5ad3a1575b53cb0001f356f3",16,"older",1,"FAMILY","FAMILY",TRUE,5.54932,3,1,"dice","match",928
"5ad3a1575b53cb0001f356f3",16,"older",2,"?","COPS",FALSE,5.51328,0,2,"hanger","old-new",928
"5ad3a1575b53cb0001f356f3",16,"older",3,"SPIRIT","ESTATE",FALSE,5.106265,1,3,"diamond","new-new",928
"5ad3a1575b53cb0001f356f3",16,"older",4,"?","ROOF",FALSE,2.41459,2,4,"suitcase","mis-match",928
"5ae0c7d4e0feeb0001caff2b",1,"older",1,"DANGER","MILLER",FALSE,4.364585,0,1,"balcony","new-new",1297
"5ae0c7d4e0feeb0001caff2b",1,"older",2,"MILLER","DANGER",FALSE,3.24832,1,2,"tray","new-new",1297
"5ae0c7d4e0feeb0001caff2b",1,"older",3,"SPEECH","SPEECH",TRUE,3.715765,3,3,"motorbike","new-new",1297
"5ae0c7d4e0feeb0001caff2b",1,"older",4,"?","TEAR",FALSE,2.864865,2,4,"shovel","new-new",1297
"5ae0c7d4e0feeb0001caff2b",2,"older",1,"MONTH","BELT",FALSE,6.598145,3,1,"backpack","old-new",1298
"5ae0c7d4e0feeb0001caff2b",2,"older",2,"MONTH","MONTH",TRUE,3.61487,0,2,"cherry","new-new",1298
"5ae0c7d4e0feeb0001caff2b",2,"older",3,"SAKE","WRITER",FALSE,3.249375,2,3,"carrot","match",1298
"5ae0c7d4e0feeb0001caff2b",2,"older",4,"WRITER","SAKE",FALSE,3.29826,1,4,"cathedral","mis-match",1298
"5ae0c7d4e0feeb0001caff2b",3,"older",1,"SAKE","PILLS",FALSE,8.581185,1,1,"ring","new-new",1299
"5ae0c7d4e0feeb0001caff2b",3,"older",2,"?","ESTATE",FALSE,5.09755,2,2,"salt","new-new",1299
"5ae0c7d4e0feeb0001caff2b",3,"older",3,"?","GLASS",FALSE,7.36455,0,3,"aeroplane","new-new",1299
"5ae0c7d4e0feeb0001caff2b",3,"older",4,"FATE","DEMON",FALSE,5.114155,3,4,"mirror","new-new",1299
"5ae0c7d4e0feeb0001caff2b",4,"older",1,"PRINCE","PRINCE",TRUE,4.931165,0,1,"peg","new-new",1300
"5ae0c7d4e0feeb0001caff2b",4,"older",2,"PRINCE","YEAR",FALSE,3.498045,3,2,"coin","new-new",1300
"5ae0c7d4e0feeb0001caff2b",4,"older",3,"GIRL","GIRL",TRUE,4.1818,1,3,"map","new-new",1300
"5ae0c7d4e0feeb0001caff2b",4,"older",4,"PENNY","FEET",FALSE,4.34775,2,4,"crown","new-new",1300
"5ae0c7d4e0feeb0001caff2b",5,"older",1,"COPS","COPS",TRUE,4.348555,0,1,"suitcase","mis-match",1301
"5ae0c7d4e0feeb0001caff2b",5,"older",2,"ROOF","ROOF",TRUE,3.465075,2,2,"planet","new-new",1301
"5ae0c7d4e0feeb0001caff2b",5,"older",3,"YARD","YARD",TRUE,3.68254,1,3,"stool","old-new",1301
"5ae0c7d4e0feeb0001caff2b",5,"older",4,"LOTS","LOTS",TRUE,3.231765,3,4,"bolt","match",1301
"5ae0c7d4e0feeb0001caff2b",6,"older",1,"SERIES","SERIES",TRUE,3.81271,0,1,"helmet","match",1302
"5ae0c7d4e0feeb0001caff2b",6,"older",2,"FAMILY","THING",FALSE,4.38168,3,2,"hanger","old-new",1302
"5ae0c7d4e0feeb0001caff2b",6,"older",3,"CAR","FAMILY",FALSE,3.015155,1,3,"diamond","mis-match",1302
"5ae0c7d4e0feeb0001caff2b",6,"older",4,"THING","CARS",FALSE,2.91621,2,4,"candle","new-new",1302
"5ae0c7d4e0feeb0001caff2b",7,"older",1,"GODS","GODS",TRUE,7.881195,1,1,"windmill","new-new",1303
"5ae0c7d4e0feeb0001caff2b",7,"older",2,"PHOTO","PHOTO",TRUE,4.098225,3,2,"spoon","new-new",1303
"5ae0c7d4e0feeb0001caff2b",7,"older",3,"CLOCK","CLOCK",TRUE,4.18165,2,3,"sunflower","new-new",1303
"5ae0c7d4e0feeb0001caff2b",7,"older",4,"GODS","HOTEL",FALSE,4.415025,0,4,"megaphone","new-new",1303
"5ae0c7d4e0feeb0001caff2b",8,"older",1,"CANDY","CANDY",TRUE,4.46478,0,1,"perfume","mis-match",1304
"5ae0c7d4e0feeb0001caff2b",8,"older",2,"LIFE","STYLE",FALSE,3.098255,3,2,"pear","new-new",1304
"5ae0c7d4e0feeb0001caff2b",8,"older",3,"CLIENT","CLIENT",TRUE,3.399185,1,3,"monkey","match",1304
"5ae0c7d4e0feeb0001caff2b",8,"older",4,"STYLE","LIFE",FALSE,2.86504,2,4,"wheel","old-new",1304
"5ae0c7d4e0feeb0001caff2b",9,"older",1,"ADVICE","ADVICE",TRUE,4.64805,2,1,"dice","new-new",1305
"5ae0c7d4e0feeb0001caff2b",9,"older",2,"LETTER","LETTER",TRUE,3.56498,1,2,"microphone","new-new",1305
"5ae0c7d4e0feeb0001caff2b",9,"older",3,"ADVICE","DIRT",FALSE,7.04843,0,3,"sun","new-new",1305
"5ae0c7d4e0feeb0001caff2b",9,"older",4,"DEATH","DEATH",TRUE,3.31505,3,4,"pawn","new-new",1305
"5ae0c7d4e0feeb0001caff2b",10,"older",1,"SEAT","KIND",FALSE,7.34812,0,1,"kettle","new-new",1306
"5ae0c7d4e0feeb0001caff2b",10,"older",2,"WEAPON","MILE",FALSE,3.64909,2,2,"calendar","new-new",1306
"5ae0c7d4e0feeb0001caff2b",10,"older",3,"DUDE","WEAPON",FALSE,3.082525,1,3,"bench","new-new",1306
"5ae0c7d4e0feeb0001caff2b",10,"older",4,"ADVICE","DUDE",FALSE,2.981675,3,4,"tractor","new-new",1306
"5ae0c7d4e0feeb0001caff2b",11,"older",1,"NIGHT","HONEY",FALSE,4.93151,0,1,"taxi","new-new",1307
"5ae0c7d4e0feeb0001caff2b",11,"older",2,"ADVICE","DOZEN",FALSE,3.23246,1,2,"anchor","old-new",1307
"5ae0c7d4e0feeb0001caff2b",11,"older",3,"ADVICE","NATION",FALSE,3.0992,3,3,"wheelbarrow","mis-match",1307
"5ae0c7d4e0feeb0001caff2b",11,"older",4,"NIGHT","NIGHT",TRUE,3.74957,2,4,"cap","match",1307
"5ae0c7d4e0feeb0001caff2b",12,"older",1,"LEADER","LEADER",TRUE,3.34803,2,1,"runner","mis-match",1308
"5ae0c7d4e0feeb0001caff2b",12,"older",2,"AGENT","IDEAS",FALSE,2.898415,0,2,"daisy","old-new",1308
"5ae0c7d4e0feeb0001caff2b",12,"older",3,"","SALE",FALSE,5.248425,1,3,"dart","match",1308
"5ae0c7d4e0feeb0001caff2b",12,"older",4,"?","AGENT",FALSE,1.73251,3,4,"mushroom","new-new",1308
"5ae0c7d4e0feeb0001caff2b",13,"older",1,"RIVER","RIVER",TRUE,6.114975,2,1,"rug","match",1309
"5ae0c7d4e0feeb0001caff2b",13,"older",2,"MOMENT","MOMENT",TRUE,3.24903,3,2,"stamp","new-new",1309
"5ae0c7d4e0feeb0001caff2b",13,"older",3,"RIVER","FOOD",FALSE,3.21587,0,3,"gorilla","mis-match",1309
"5ae0c7d4e0feeb0001caff2b",13,"older",4,"?","BEAUTY",FALSE,5.603715,1,4,"goose","old-new",1309
"5ae0c7d4e0feeb0001caff2b",14,"older",1,"TOYS","SHOTS",FALSE,3.331365,1,1,"telephone","match",1310
"5ae0c7d4e0feeb0001caff2b",14,"older",2,"AREA","AREA",TRUE,2.965125,3,2,"cart","new-new",1310
"5ae0c7d4e0feeb0001caff2b",14,"older",3,"SPIRIT","SPIRIT",TRUE,4.14842,2,3,"basket","old-new",1310
"5ae0c7d4e0feeb0001caff2b",14,"older",4,"TOYS","BOYS",FALSE,3.61541,0,4,"tyre","mis-match",1310
"5ae0c7d4e0feeb0001caff2b",15,"older",1,"CASINO","VALLEY",FALSE,7.4814,1,1,"pencil","match",1311
"5ae0c7d4e0feeb0001caff2b",15,"older",2,"?","POLICY",FALSE,1.46492,2,2,"skateboard","new-new",1311
"5ae0c7d4e0feeb0001caff2b",15,"older",3,"POLICY","RECORD",FALSE,5.632255,3,3,"razor","old-new",1311
"5ae0c7d4e0feeb0001caff2b",15,"older",4,"BOYS","CASINO",FALSE,4.164875,0,4,"watch","mis-match",1311
"5ae0c7d4e0feeb0001caff2b",16,"older",1,"JUNGLE","JUNGLE",TRUE,4.51454,0,1,"boot","mis-match",1312
"5ae0c7d4e0feeb0001caff2b",16,"older",2,"SYSTEM","FRIEND",FALSE,4.515195,2,2,"frame","match",1312
"5ae0c7d4e0feeb0001caff2b",16,"older",3,"SYSTEM","SYSTEM",TRUE,4.745615,3,3,"scissors","new-new",1312
"5ae0c7d4e0feeb0001caff2b",16,"older",4,"APPLE","APPLE",TRUE,3.13248,1,4,"pepper","old-new",1312
"5b5b9fdfe36fe200014d239a",1,"younger",1,"?","MILE",FALSE,0.956705,1,1,"map","match",497
"5b5b9fdfe36fe200014d239a",1,"younger",2,"APPLE","STYLE",FALSE,2.74579,3,2,"telephone","mis-match",497
"5b5b9fdfe36fe200014d239a",1,"younger",3,"FRIEND","BELT",FALSE,4.6269,2,3,"boot","old-new",497
"5b5b9fdfe36fe200014d239a",1,"younger",4,"SPIRIT","SPIRIT",TRUE,2.978075,0,4,"ring","new-new",497
"5b5b9fdfe36fe200014d239a",2,"younger",1,"LIFE","GLASS",FALSE,3.20245,3,1,"tractor","new-new",498
"5b5b9fdfe36fe200014d239a",2,"younger",2,"YARD","YARD",TRUE,2.0648,1,2,"goose","new-new",498
"5b5b9fdfe36fe200014d239a",2,"younger",3,"BOYS","BOYS",TRUE,1.530445,0,3,"daisy","new-new",498
"5b5b9fdfe36fe200014d239a",2,"younger",4,"PLANET","NATION",FALSE,2.230225,2,4,"planet","new-new",498
"5b5b9fdfe36fe200014d239a",3,"younger",1,"THING","AREA",FALSE,2.128925,0,1,"aeroplane","mis-match",499
"5b5b9fdfe36fe200014d239a",3,"younger",2,"AREA","THING",FALSE,1.195705,3,2,"crown","old-new",499
"5b5b9fdfe36fe200014d239a",3,"younger",3,"WOMEN","WOMEN",TRUE,1.630795,1,3,"salt","match",499
"5b5b9fdfe36fe200014d239a",3,"younger",4,"HERE","TEAR",FALSE,3.4636,2,4,"pear","new-new",499
"5b5b9fdfe36fe200014d239a",4,"younger",1,"LEADER","COPS",FALSE,2.47785,0,1,"hanger","old-new",500
"5b5b9fdfe36fe200014d239a",4,"younger",2,"FAMILY","FAMILY",TRUE,1.46176,3,2,"dice","match",500
"5b5b9fdfe36fe200014d239a",4,"younger",3,"ESTATE","ESTATE",TRUE,2.34624,1,3,"diamond","new-new",500
"5b5b9fdfe36fe200014d239a",4,"younger",4,"LIFE","ROOF",FALSE,1.547305,2,4,"suitcase","mis-match",500
"5b5b9fdfe36fe200014d239a",5,"younger",1,"DIRT","DIRT",TRUE,2.112685,2,1,"scissors","new-new",501
"5b5b9fdfe36fe200014d239a",5,"younger",2,"CANDY","CANDY",TRUE,1.59494,0,2,"taxi","new-new",501
"5b5b9fdfe36fe200014d239a",5,"younger",3,"FLIGHT","FLIGHT",TRUE,1.98142,3,3,"bolt","new-new",501
"5b5b9fdfe36fe200014d239a",5,"younger",4,"SALE","SALE",TRUE,1.347195,1,4,"megaphone","new-new",501
"5b5b9fdfe36fe200014d239a",6,"younger",1,"MOMENT","MOMENT",TRUE,1.72837,2,1,"stamp","match",502
"5b5b9fdfe36fe200014d239a",6,"younger",2,"DUDE","HONEY",FALSE,1.780885,1,2,"wheelbarrow","new-new",502
"5b5b9fdfe36fe200014d239a",6,"younger",3,"DUDE","DUDE",TRUE,2.112485,0,3,"skateboard","old-new",502
"5b5b9fdfe36fe200014d239a",6,"younger",4,"APPL","APPLE",FALSE,1.078515,3,4,"windmill","mis-match",502
"5b5b9fdfe36fe200014d239a",7,"younger",1,"RECORD","RECORD",TRUE,1.73047,0,1,"runner","new-new",503
"5b5b9fdfe36fe200014d239a",7,"younger",2,"DANGER","FOOD",FALSE,1.315,2,2,"watch","new-new",503
"5b5b9fdfe36fe200014d239a",7,"younger",3,"FOOD","DANGER",FALSE,0.778265,1,3,"tray","new-new",503
"5b5b9fdfe36fe200014d239a",7,"younger",4,"APPLE","JUNGLE",FALSE,1.26515,3,4,"cherry","new-new",503
"5b5b9fdfe36fe200014d239a",8,"younger",1,"DOZEN","DOZEN",TRUE,1.39654,0,1,"cart","match",504
"5b5b9fdfe36fe200014d239a",8,"younger",2,"SYSTEM","SYSTEM",TRUE,1.547305,1,2,"basket","mis-match",504
"5b5b9fdfe36fe200014d239a",8,"younger",3,"PHOTO","PHOTO",TRUE,0.797865,2,3,"dart","new-new",504
"5b5b9fdfe36fe200014d239a",8,"younger",4,"ADVICE","ADVICE",TRUE,1.697935,3,4,"razor","old-new",504
"5b5b9fdfe36fe200014d239a",9,"younger",1,"PILLS","POLICY",FALSE,2.12967,3,1,"candle","mis-match",505
"5b5b9fdfe36fe200014d239a",9,"younger",2,"CASINO","CASINO",TRUE,1.462835,0,2,"motorbike","match",505
"5b5b9fdfe36fe200014d239a",9,"younger",3,"MONTH","MONTH",TRUE,1.179725,2,3,"calendar","new-new",505
"5b5b9fdfe36fe200014d239a",9,"younger",4,"APPLE","PILLS",FALSE,1.414445,1,4,"sunflower","old-new",505
"5b5b9fdfe36fe200014d239a",10,"younger",1,"FLESH","FLESH",TRUE,3.511455,3,1,"shovel","new-new",506
"5b5b9fdfe36fe200014d239a",10,"younger",2,"WRITER","WRITER",TRUE,1.079295,1,2,"cathedral","match",506
"5b5b9fdfe36fe200014d239a",10,"younger",3,"TOILET","TOILET",TRUE,1.098495,0,3,"mushroom","old-new",506
"5b5b9fdfe36fe200014d239a",10,"younger",4,"SYSTEM","HOUSE",FALSE,2.096125,2,4,"microphone","mis-match",506
"5b5b9fdfe36fe200014d239a",11,"younger",1,"BATH","DEMON",FALSE,1.14568,2,1,"pawn","new-new",507
"5b5b9fdfe36fe200014d239a",11,"younger",2,"NIGHT","NIGHT",TRUE,1.01473,1,2,"tyre","mis-match",507
"5b5b9fdfe36fe200014d239a",11,"younger",3,"DEMON","BATH",FALSE,1.077065,0,3,"anchor","old-new",507
"5b5b9fdfe36fe200014d239a",11,"younger",4,"AREA","SERIES",FALSE,0.814765,3,4,"rug","match",507
"5b5b9fdfe36fe200014d239a",12,"younger",1,"WEAPON","MILLER",FALSE,2.412115,1,1,"cap","old-new",508
"5b5b9fdfe36fe200014d239a",12,"younger",2,"PILLS","WEAPON",FALSE,1.130525,0,2,"wheel","mis-match",508
"5b5b9fdfe36fe200014d239a",12,"younger",3,"MOMENT","BODY",FALSE,1.597355,3,3,"pencil","new-new",508
"5b5b9fdfe36fe200014d239a",12,"younger",4,"PENNY","PENNY",TRUE,1.396955,2,4,"monkey","match",508
"5b5b9fdfe36fe200014d239a",13,"younger",1,"SHOTS","SHOTS",TRUE,1.3961,0,1,"backpack","new-new",509
"5b5b9fdfe36fe200014d239a",13,"younger",2,"FEET","DEATH",FALSE,0.897615,2,2,"gorilla","new-new",509
"5b5b9fdfe36fe200014d239a",13,"younger",3,"DEATH","FEET",FALSE,1.41435,1,3,"kettle","new-new",509
"5b5b9fdfe36fe200014d239a",13,"younger",4,"ARCHERY","ARTIST",FALSE,1.16416,3,4,"frame","new-new",509
"5b5b9fdfe36fe200014d239a",14,"younger",1,"LIFE","RIVER",FALSE,1.26395,1,1,"sun","mis-match",510
"5b5b9fdfe36fe200014d239a",14,"younger",2,"RIVER","LIFE",FALSE,1.414845,0,2,"carrot","match",510
"5b5b9fdfe36fe200014d239a",14,"younger",3,"STYLE","PRINCE",FALSE,1.047375,3,3,"perfume","old-new",510
"5b5b9fdfe36fe200014d239a",14,"younger",4,"SPOON","SAKE",FALSE,1.764365,2,4,"spoon","new-new",510
"5b5b9fdfe36fe200014d239a",15,"younger",1,"LOTS","LETTER",FALSE,0.930385,3,1,"coin","new-new",511
"5b5b9fdfe36fe200014d239a",15,"younger",2,"VALLEY","LOTS",FALSE,1.24764,0,2,"stool","new-new",511
"5b5b9fdfe36fe200014d239a",15,"younger",3,"IDEAS","VALLEY",FALSE,0.615005,1,3,"bench","new-new",511
"5b5b9fdfe36fe200014d239a",15,"younger",4,"LETTERS","IDEAS",FALSE,1.448465,2,4,"mirror","new-new",511
"5b5b9fdfe36fe200014d239a",16,"younger",1,"AGENT","HOTEL",FALSE,1.82933,1,1,"pepper","new-new",512
"5b5b9fdfe36fe200014d239a",16,"younger",2,"AGENT","CLOCK",FALSE,1.714085,2,2,"helmet","new-new",512
"5b5b9fdfe36fe200014d239a",16,"younger",3,"HAPPY","BEAUTY",FALSE,2.41387,3,3,"peg","new-new",512
"5b5b9fdfe36fe200014d239a",16,"younger",4,"AGENT","AGENT",TRUE,1.49563,0,4,"balcony","new-new",512
"5b69a09840003400016ff00f",1,"younger",1,"VALLEY","VALLEY",TRUE,2.499,1,1,"pencil","match",17
"5b69a09840003400016ff00f",1,"younger",2,"POLICY","POLICY",TRUE,2.315,2,2,"skateboard","new-new",17
"5b69a09840003400016ff00f",1,"younger",3,"POLICY","RECORD",FALSE,3.199,3,3,"razor","old-new",17
"5b69a09840003400016ff00f",1,"younger",4,"CASINO","CASINO",TRUE,1.634,0,4,"watch","mis-match",17
"5b69a09840003400016ff00f",2,"younger",1,"SYSTEM","SYSTEM",TRUE,1.815,3,1,"scissors","new-new",18
"5b69a09840003400016ff00f",2,"younger",2,"FRIEND","FRIEND",TRUE,1.398,2,2,"frame","match",18
"5b69a09840003400016ff00f",2,"younger",3,"APPLE","APPLE",TRUE,1.598,1,3,"pepper","old-new",18
"5b69a09840003400016ff00f",2,"younger",4,"JUNGLE","JUNGLE",TRUE,2.416,0,4,"boot","mis-match",18
"5b69a09840003400016ff00f",3,"younger",1,"MILE","MILE",TRUE,1.898,2,1,"calendar","new-new",19
"5b69a09840003400016ff00f",3,"younger",2,"DUDE","DUDE",TRUE,1.683,3,2,"tractor","new-new",19
"5b69a09840003400016ff00f",3,"younger",3,"KILL","KIND",FALSE,4.584,0,3,"kettle","new-new",19
"5b69a09840003400016ff00f",3,"younger",4,"WOMEN","WEAPON",FALSE,3.632,1,4,"bench","new-new",19
"5b69a09840003400016ff00f",4,"younger",1,"AREA","AREA",TRUE,2.182,3,1,"cart","new-new",20
"5b69a09840003400016ff00f",4,"younger",2,"BOYS","BOYS",TRUE,3.084,0,2,"tyre","mis-match",20
"5b69a09840003400016ff00f",4,"younger",3,"SPIRIT","SPIRIT",TRUE,2.181,2,3,"basket","old-new",20
"5b69a09840003400016ff00f",4,"younger",4,"SHOTS","SHOTS",TRUE,1.549,1,4,"telephone","match",20
"5b69a09840003400016ff00f",5,"younger",1,"SERIES","SERIES",TRUE,1.781,0,1,"helmet","match",21
"5b69a09840003400016ff00f",5,"younger",2,"THING","THING",TRUE,1.864,3,2,"hanger","old-new",21
"5b69a09840003400016ff00f",5,"younger",3,"CARS","CARS",TRUE,1.584,2,3,"candle","new-new",21
"5b69a09840003400016ff00f",5,"younger",4,"FAMILY","FAMILY",TRUE,2.016,1,4,"diamond","mis-match",21
"5b69a09840003400016ff00f",6,"younger",1,"ADVICE","ADVICE",TRUE,4.165,2,1,"dice","new-new",22
"5b69a09840003400016ff00f",6,"younger",2,"DEATH","DEATH",TRUE,1.413,3,2,"pawn","new-new",22
"5b69a09840003400016ff00f",6,"younger",3,"?","LETTER",FALSE,1.765,1,3,"microphone","new-new",22
"5b69a09840003400016ff00f",6,"younger",4,"DIRT","DIRT",TRUE,2.565,0,4,"sun","new-new",22
"5b69a09840003400016ff00f",7,"younger",1,"NIGHT","NIGHT",TRUE,1.665,2,1,"cap","match",23
"5b69a09840003400016ff00f",7,"younger",2,"NATION","NATION",TRUE,2.533,3,2,"wheelbarrow","mis-match",23
"5b69a09840003400016ff00f",7,"younger",3,"HOME","DOZEN",FALSE,2.216,1,3,"anchor","old-new",23
"5b69a09840003400016ff00f",7,"younger",4,"?","HONEY",FALSE,1.116,0,4,"taxi","new-new",23
"5b69a09840003400016ff00f",8,"younger",1,"BELT","BELT",TRUE,1.429,3,1,"backpack","old-new",24
"5b69a09840003400016ff00f",8,"younger",2,"MONTH","MONTH",TRUE,3.765,0,2,"cherry","new-new",24
"5b69a09840003400016ff00f",8,"younger",3,"SAKE","SAKE",TRUE,2.416,1,3,"cathedral","mis-match",24
"5b69a09840003400016ff00f",8,"younger",4,"WRITER","WRITER",TRUE,1.733,2,4,"carrot","match",24
"5b69a09840003400016ff00f",9,"younger",1,"CLOCK","PHOTO",FALSE,2.099,3,1,"spoon","new-new",25
"5b69a09840003400016ff00f",9,"younger",2,"GODS","GODS",TRUE,1.913,1,2,"windmill","new-new",25
"5b69a09840003400016ff00f",9,"younger",3,"PHOTO","CLOCK",FALSE,1.69,2,3,"sunflower","new-new",25
"5b69a09840003400016ff00f",9,"younger",4,"MIKE","HOTEL",FALSE,2.216,0,4,"megaphone","new-new",25
"5b69a09840003400016ff00f",10,"younger",1,"PILLS","ESTATE",FALSE,2.697,2,1,"salt","new-new",26
"5b69a09840003400016ff00f",10,"younger",2,"DEMON","DEMON",TRUE,1.917,3,2,"mirror","new-new",26
"5b69a09840003400016ff00f",10,"younger",3,"PILLS","PILLS",TRUE,2.15,1,3,"ring","new-new",26
"5b69a09840003400016ff00f",10,"younger",4,"GLASS","GLASS",TRUE,1.516,0,4,"aeroplane","new-new",26
"5b69a09840003400016ff00f",11,"younger",1,"?","FOOD",FALSE,4.313,0,1,"gorilla","mis-match",27
"5b69a09840003400016ff00f",11,"younger",2,"BEAUTY","MOMENT",FALSE,2.149,3,2,"stamp","new-new",27
"5b69a09840003400016ff00f",11,"younger",3,"RIVER","RIVER",TRUE,1.815,2,3,"rug","match",27
"5b69a09840003400016ff00f",11,"younger",4,"BEAUTY","BEAUTY",TRUE,1.215,1,4,"goose","old-new",27
"5b69a09840003400016ff00f",12,"younger",1,"DANGER","TEAR",FALSE,2.883,2,1,"shovel","new-new",28
"5b69a09840003400016ff00f",12,"younger",2,"DANGER","DANGER",TRUE,1.913,1,2,"tray","new-new",28
"5b69a09840003400016ff00f",12,"younger",3,"DANGER","MILLER",FALSE,2.267,0,3,"balcony","new-new",28
"5b69a09840003400016ff00f",12,"younger",4,"?","SPEECH",FALSE,0.784,3,4,"motorbike","new-new",28
"5b69a09840003400016ff00f",13,"younger",1,"AGENT","AGENT",TRUE,1.765,3,1,"mushroom","new-new",29
"5b69a09840003400016ff00f",13,"younger",2,"LEADER","LEADER",TRUE,2.083,2,2,"runner","mis-match",29
"5b69a09840003400016ff00f",13,"younger",3,"IDEAS","IDEAS",TRUE,2.416,0,3,"daisy","old-new",29
"5b69a09840003400016ff00f",13,"younger",4,"SALE","SALE",TRUE,2.017,1,4,"dart","match",29
"5b69a09840003400016ff00f",14,"younger",1,"POWER","PRINCE",FALSE,3.428,0,1,"peg","new-new",30
"5b69a09840003400016ff00f",14,"younger",2,"GIRL","GIRL",TRUE,2.281,1,2,"map","new-new",30
"5b69a09840003400016ff00f",14,"younger",3,"FEET","FEET",TRUE,2.017,2,3,"crown","new-new",30
"5b69a09840003400016ff00f",14,"younger",4,"FEET","YEAR",FALSE,1.567,3,4,"coin","new-new",30
"5b69a09840003400016ff00f",15,"younger",1,"LOTS","LOTS",TRUE,1.799,3,1,"bolt","match",31
"5b69a09840003400016ff00f",15,"younger",2,"COPS","COPS",TRUE,1.397,0,2,"suitcase","mis-match",31
"5b69a09840003400016ff00f",15,"younger",3,"ROOF","ROOF",TRUE,2.034,2,3,"planet","new-new",31
"5b69a09840003400016ff00f",15,"younger",4,"YARD","YARD",TRUE,1.048,1,4,"stool","old-new",31
"5b69a09840003400016ff00f",16,"younger",1,"STYLE","STYLE",TRUE,2.783,3,1,"pear","new-new",32
"5b69a09840003400016ff00f",16,"younger",2,"LIFE","LIFE",TRUE,2.25,2,2,"wheel","old-new",32
"5b69a09840003400016ff00f",16,"younger",3,"CLIENT","CLIENT",TRUE,1.617,1,3,"monkey","match",32
"5b69a09840003400016ff00f",16,"younger",4,"CANDY","CANDY",TRUE,1.049,0,4,"perfume","mis-match",32
"5b81d72a3c13750001995473",1,"younger",1,"CLIENT","CLIENT",TRUE,2.950825,0,1,"peg","old-new",209
"5b81d72a3c13750001995473",1,"younger",2,"AD","RECORD",FALSE,9.999485,3,2,"dart","mis-match",209
"5b81d72a3c13750001995473",1,"younger",3,"CANDY","CANDY",TRUE,1.58146,1,3,"stamp","match",209
"5b81d72a3c13750001995473",1,"younger",4,"CARS","CARS",TRUE,1.31275,2,4,"motorbike","new-new",209
"5b81d72a3c13750001995473",2,"younger",1,"HOTEL","HOTEL",TRUE,2.02611,3,1,"planet","new-new",210
"5b81d72a3c13750001995473",2,"younger",2,"IDEAS","IDEAS",TRUE,1.74906,2,2,"cap","new-new",210
"5b81d72a3c13750001995473",2,"younger",3,"LEADER","LEADER",TRUE,2.41756,1,3,"cathedral","new-new",210
"5b81d72a3c13750001995473",2,"younger",4,"SPIRIT","SPIRIT",TRUE,1.8615,0,4,"coin","new-new",210
"5b81d72a3c13750001995473",3,"younger",1,"FLIGHT","FLIGHT",TRUE,1.60101,3,1,"pawn","mis-match",211
"5b81d72a3c13750001995473",3,"younger",2,"THING","THING",TRUE,1.24956,2,2,"bench","match",211
"5b81d72a3c13750001995473",3,"younger",3,"SYSTEM","SYSTEM",TRUE,4.799605,1,3,"sunflower","new-new",211
"5b81d72a3c13750001995473",3,"younger",4,"GLASS","GLASS",TRUE,1.73251,0,4,"crown","old-new",211
"5b81d72a3c13750001995473",4,"younger",1,"SPEECH","SPEECH",TRUE,2.26685,2,1,"backpack","new-new",212
"5b81d72a3c13750001995473",4,"younger",2,"MILLER","MILLER",TRUE,1.78236,1,2,"suitcase","match",212
"5b81d72a3c13750001995473",4,"younger",3,"FAMILY","FAMILY",TRUE,2.066165,0,3,"candle","mis-match",212
"5b81d72a3c13750001995473",4,"younger",4,"GIRL","GIRL",TRUE,1.31374,3,4,"mirror","old-new",212
"5b81d72a3c13750001995473",5,"younger",1,"HONEY","HONEY",TRUE,1.70553,1,1,"cherry","new-new",213
"5b81d72a3c13750001995473",5,"younger",2,"MILES","MILE",FALSE,2.08314,0,2,"anchor","mis-match",213
"5b81d72a3c13750001995473",5,"younger",3,"PENNY","PENNY",TRUE,1.36542,3,3,"microphone","old-new",213
"5b81d72a3c13750001995473",5,"younger",4,"COPS","COPS",TRUE,1.53369,2,4,"wheel","match",213
"5b81d72a3c13750001995473",6,"younger",1,"FLESH","FLESH",TRUE,2.82714,1,1,"balcony","new-new",214
"5b81d72a3c13750001995473",6,"younger",2,"PLENTY","PLENTY",TRUE,1.749055,0,2,"monkey","mis-match",214
"5b81d72a3c13750001995473",6,"younger",3,"PILLS","PILLS",TRUE,2.4994,3,3,"hanger","old-new",214
"5b81d72a3c13750001995473",6,"younger",4,"DUDE","DUDE",TRUE,1.58323,2,4,"pepper","match",214
"5b81d72a3c13750001995473",7,"younger",1,"DANGER","DANGER",TRUE,1.92323,3,1,"megaphone","mis-match",215
"5b81d72a3c13750001995473",7,"younger",2,"APPLES","APPLE",FALSE,2.299575,0,2,"kettle","new-new",215
"5b81d72a3c13750001995473",7,"younger",3,"HIT","SHOTS",FALSE,9.149215,1,3,"bolt","old-new",215
"5b81d72a3c13750001995473",7,"younger",4,"KIND","KIND",TRUE,1.73238,2,4,"dice","match",215
"5b81d72a3c13750001995473",8,"younger",1,"?","SAKE",FALSE,9.99551,1,1,"aeroplane","old-new",216
"5b81d72a3c13750001995473",8,"younger",2,"YARD","YARD",TRUE,2.265405,2,2,"tyre","match",216
"5b81d72a3c13750001995473",8,"younger",3,"STYLE","STYLE",TRUE,2.781605,0,3,"boot","new-new",216
"5b81d72a3c13750001995473",8,"younger",4,"SALE","SALE",TRUE,4.650315,3,4,"map","mis-match",216
"5b81d72a3c13750001995473",9,"younger",1,"LOTS","LOTS",TRUE,1.499305,3,1,"spoon","new-new",217
"5b81d72a3c13750001995473",9,"younger",2,"ROOF","ROOF",TRUE,1.358575,2,2,"basket","match",217
"5b81d72a3c13750001995473",9,"younger",3,"ADVICE","ADVICE",TRUE,2.299605,0,3,"calendar","mis-match",217
"5b81d72a3c13750001995473",9,"younger",4,"DIRT","DIRT",TRUE,1.766125,1,4,"ring","old-new",217
"5b81d72a3c13750001995473",10,"younger",1,"GODS","GODS",TRUE,2.453605,1,1,"sun","new-new",218
"5b81d72a3c13750001995473",10,"younger",2,"FRIEND","FRIEND",TRUE,3.42664,2,2,"cart","new-new",218
"5b81d72a3c13750001995473",10,"younger",3,"DEATH","DEATH",TRUE,3.866485,3,3,"pencil","new-new",218
"5b81d72a3c13750001995473",10,"younger",4,"FOOD","FOOD",TRUE,1.466445,0,4,"telephone","new-new",218
"5b81d72a3c13750001995473",11,"younger",1,"DEMON","DEMON",TRUE,1.563535,3,1,"diamond","new-new",219
"5b81d72a3c13750001995473",11,"younger",2,"SERIES","SERIES",TRUE,3.466045,0,2,"helmet","new-new",219
"5b81d72a3c13750001995473",11,"younger",3,"CASINO","CASINO",TRUE,1.93249,1,3,"carrot","new-new",219
"5b81d72a3c13750001995473",11,"younger",4,"BEAUTY","BEAUTY",TRUE,2.08313,2,4,"taxi","new-new",219
"5b81d72a3c13750001995473",12,"younger",1,"BATH","BATH",TRUE,1.79901,3,1,"skateboard","new-new",220
"5b81d72a3c13750001995473",12,"younger",2,"YEAR","YEAR",TRUE,1.816505,2,2,"mushroom","new-new",220
"5b81d72a3c13750001995473",12,"younger",3,"HOUSE","HOUSE",TRUE,1.616565,0,3,"goose","new-new",220
"5b81d72a3c13750001995473",12,"younger",4,"TEAR","TEAR",TRUE,1.416495,1,4,"shovel","new-new",220
"5b81d72a3c13750001995473",13,"younger",1,"DOZEN","DOZEN",TRUE,3.60519,2,1,"wheelbarrow","old-new",221
"5b81d72a3c13750001995473",13,"younger",2,"TOILET","TOILET",TRUE,2.38619,0,2,"scissors","mis-match",221
"5b81d72a3c13750001995473",13,"younger",3,"WRITER","WRITER",TRUE,1.598905,1,3,"rug","match",221
"5b81d72a3c13750001995473",13,"younger",4,"ARTIST","ARTIST",TRUE,1.78317,3,4,"daisy","new-new",221
"5b81d72a3c13750001995473",14,"younger",1,"NATION","NATION",TRUE,3.40846,2,1,"gorilla","old-new",222
"5b81d72a3c13750001995473",14,"younger",2,"JUNGLE","JUNGLE",TRUE,2.494445,0,2,"razor","mis-match",222
"5b81d72a3c13750001995473",14,"younger",3,"PRINCE","PRINCE",TRUE,1.616705,3,3,"windmill","new-new",222
"5b81d72a3c13750001995473",14,"younger",4,"BOYS","BOYS",TRUE,1.599675,1,4,"pear","match",222
"5b81d72a3c13750001995473",15,"younger",1,"WOMEN","WOMEN",TRUE,2.336735,3,1,"watch","new-new",223
"5b81d72a3c13750001995473",15,"younger",2,"CLOCK","CLOCK",TRUE,1.348665,2,2,"runner","new-new",223
"5b81d72a3c13750001995473",15,"younger",3,"NIGHT","NIGHT",TRUE,1.449205,0,3,"perfume","new-new",223
"5b81d72a3c13750001995473",15,"younger",4,"RIVER","RIVER",TRUE,1.49951,1,4,"tray","new-new",223
"5b81d72a3c13750001995473",16,"younger",1,"ESTATE","ESTATE",TRUE,1.95872,2,1,"tractor","new-new",224
"5b81d72a3c13750001995473",16,"younger",2,"AREA","AREA",TRUE,1.43212,1,2,"frame","new-new",224
"5b81d72a3c13750001995473",16,"younger",3,"AGENT","AGENT",TRUE,1.794545,3,3,"salt","new-new",224
"5b81d72a3c13750001995473",16,"younger",4,"BELT","BELT",TRUE,1.599705,0,4,"stool","new-new",224
"5b82be6543bc4900017ef3de",1,"older",1,"THING","THING",TRUE,4.992765,3,1,"crown","old-new",961
"5b82be6543bc4900017ef3de",1,"older",2,"AREA","AREA",TRUE,2.5382,0,2,"aeroplane","mis-match",961
"5b82be6543bc4900017ef3de",1,"older",3,"WOMEN","WOMEN",TRUE,2.589265,1,3,"salt","match",961
"5b82be6543bc4900017ef3de",1,"older",4,"TEAR","TEAR",TRUE,3.640865,2,4,"pear","new-new",961
"5b82be6543bc4900017ef3de",2,"older",1,"AREA","RECORD",FALSE,6.278535,0,1,"runner","new-new",962
"5b82be6543bc4900017ef3de",2,"older",2,"DANGER","DANGER",TRUE,3.19004,1,2,"tray","new-new",962
"5b82be6543bc4900017ef3de",2,"older",3,"JUNGLE","JUNGLE",TRUE,3.322595,3,3,"cherry","new-new",962
"5b82be6543bc4900017ef3de",2,"older",4,"FOOD","FOOD",TRUE,2.35463,2,4,"watch","new-new",962
"5b82be6543bc4900017ef3de",3,"older",1,"CANDY","DIRT",FALSE,6.39599,2,1,"scissors","new-new",963
"5b82be6543bc4900017ef3de",3,"older",2,"CANDY","CANDY",TRUE,2.8384,0,2,"taxi","new-new",963
"5b82be6543bc4900017ef3de",3,"older",3,"FLIGHT","FLIGHT",TRUE,2.63844,3,3,"bolt","new-new",963
"5b82be6543bc4900017ef3de",3,"older",4,"SALE","SALE",TRUE,3.540995,1,4,"megaphone","new-new",963
"5b82be6543bc4900017ef3de",4,"older",1,"LOTS","LOTS",TRUE,2.97265,0,1,"stool","new-new",964
"5b82be6543bc4900017ef3de",4,"older",2,"IDEAS","IDEAS",TRUE,3.674345,2,2,"mirror","new-new",964
"5b82be6543bc4900017ef3de",4,"older",3,"VALLEY","VALLEY",TRUE,3.106025,1,3,"bench","new-new",964
"5b82be6543bc4900017ef3de",4,"older",4,"LETTER","LETTER",TRUE,3.456785,3,4,"coin","new-new",964
"5b82be6543bc4900017ef3de",5,"older",1,"BATH","BATH",TRUE,3.808155,0,1,"anchor","old-new",965
"5b82be6543bc4900017ef3de",5,"older",2,"DEMON","DEMON",TRUE,2.806445,2,2,"pawn","new-new",965
"5b82be6543bc4900017ef3de",5,"older",3,"NIGHT","NIGHT",TRUE,3.29004,1,3,"tyre","mis-match",965
"5b82be6543bc4900017ef3de",5,"older",4,"SERIES","SERIES",TRUE,2.639185,3,4,"rug","match",965
"5b82be6543bc4900017ef3de",6,"older",1,"SHOTS","SHOTS",TRUE,4.34149,0,1,"backpack","new-new",966
"5b82be6543bc4900017ef3de",6,"older",2,"FEET","FEET",TRUE,2.287375,1,2,"kettle","new-new",966
"5b82be6543bc4900017ef3de",6,"older",3,"DEATH","DEATH",TRUE,2.22183,2,3,"gorilla","new-new",966
"5b82be6543bc4900017ef3de",6,"older",4,"ARTIST","ARTIST",TRUE,3.25742,3,4,"frame","new-new",966
"5b82be6543bc4900017ef3de",7,"older",1,"BOYS","BOYS",TRUE,3.090145,0,1,"daisy","new-new",967
"5b82be6543bc4900017ef3de",7,"older",2,"GLASS","GLASS",TRUE,3.908245,3,2,"tractor","new-new",967
"5b82be6543bc4900017ef3de",7,"older",3,"NATION","NATION",TRUE,2.82248,2,3,"planet","new-new",967
"5b82be6543bc4900017ef3de",7,"older",4,"YARD","YARD",TRUE,2.503915,1,4,"goose","new-new",967
"5b82be6543bc4900017ef3de",8,"older",1,"MONTH","MONTH",TRUE,3.84188,2,1,"calendar","new-new",968
"5b82be6543bc4900017ef3de",8,"older",2,"POLICY","POLICY",TRUE,2.7218,3,2,"candle","mis-match",968
"5b82be6543bc4900017ef3de",8,"older",3,"PILLS","PILLS",TRUE,3.223805,1,3,"sunflower","old-new",968
"5b82be6543bc4900017ef3de",8,"older",4,"CASINO","CASINO",TRUE,6.930585,0,4,"motorbike","match",968
"5b82be6543bc4900017ef3de",9,"older",1,"FAMILY","FAMILY",TRUE,4.057845,3,1,"dice","match",969
"5b82be6543bc4900017ef3de",9,"older",2,"ESTATE","ESTATE",TRUE,2.890145,1,2,"diamond","new-new",969
"5b82be6543bc4900017ef3de",9,"older",3,"ESTATE","ROOF",FALSE,5.261675,2,3,"suitcase","mis-match",969
"5b82be6543bc4900017ef3de",9,"older",4,"COPS","COPS",TRUE,2.053555,0,4,"hanger","old-new",969
"5b82be6543bc4900017ef3de",10,"older",1,"BEAUTY","BEAUTY",TRUE,7.096925,3,1,"peg","new-new",970
"5b82be6543bc4900017ef3de",10,"older",2,"HOTEL","HOTEL",TRUE,3.056375,1,2,"pepper","new-new",970
"5b82be6543bc4900017ef3de",10,"older",3,"AGENT","AGENT",TRUE,2.888875,0,3,"balcony","new-new",970
"5b82be6543bc4900017ef3de",10,"older",4,"","CLOCK",FALSE,9.903935,2,4,"helmet","new-new",970
"5b82be6543bc4900017ef3de",11,"older",1,"RIVER","RIVER",TRUE,5.14364,1,1,"sun","mis-match",971
"5b82be6543bc4900017ef3de",11,"older",2,"PRINCE","PRINCE",TRUE,3.355875,3,2,"perfume","old-new",971
"5b82be6543bc4900017ef3de",11,"older",3,"SAKE","SAKE",TRUE,3.220735,2,3,"spoon","new-new",971
"5b82be6543bc4900017ef3de",11,"older",4,"LIFE","LIFE",TRUE,2.922755,0,4,"carrot","match",971
"5b82be6543bc4900017ef3de",12,"older",1,"MILE","MILE",TRUE,2.670585,1,1,"map","match",972
"5b82be6543bc4900017ef3de",12,"older",2,"SPIRIT","SPIRIT",TRUE,4.30736,0,2,"ring","new-new",972
"5b82be6543bc4900017ef3de",12,"older",3,"BELT","BELT",TRUE,2.84015,2,3,"boot","old-new",972
"5b82be6543bc4900017ef3de",12,"older",4,"STYLE","STYLE",TRUE,3.92482,3,4,"telephone","mis-match",972
"5b82be6543bc4900017ef3de",13,"older",1,"DUDE","DUDE",TRUE,3.223365,0,1,"skateboard","old-new",973
"5b82be6543bc4900017ef3de",13,"older",2,"MOMENT","MOMENT",TRUE,3.057005,2,2,"stamp","match",973
"5b82be6543bc4900017ef3de",13,"older",3,"HONEY","HONEY",TRUE,4.55955,1,3,"wheelbarrow","new-new",973
"5b82be6543bc4900017ef3de",13,"older",4,"APPLE","APPLE",TRUE,4.07487,3,4,"windmill","mis-match",973
"5b82be6543bc4900017ef3de",14,"older",1,"BODY","BODY",TRUE,3.25628,3,1,"pencil","new-new",974
"5b82be6543bc4900017ef3de",14,"older",2,"WEAPON","WEAPON",TRUE,3.992235,0,2,"wheel","mis-match",974
"5b82be6543bc4900017ef3de",14,"older",3,"DUDE","MILLER",FALSE,7.699685,1,3,"cap","old-new",974
"5b82be6543bc4900017ef3de",14,"older",4,"PENNY","PENNY",TRUE,2.486965,2,4,"monkey","match",974
"5b82be6543bc4900017ef3de",15,"older",1,"FLESH","HOUSE",FALSE,3.038375,2,1,"microphone","mis-match",975
"5b82be6543bc4900017ef3de",15,"older",2,"TOILET","TOILET",TRUE,2.70659,0,2,"mushroom","old-new",975
"5b82be6543bc4900017ef3de",15,"older",3,"WRITER","WRITER",TRUE,2.621855,1,3,"cathedral","match",975
"5b82be6543bc4900017ef3de",15,"older",4,"FLESH","FLESH",TRUE,7.716145,3,4,"shovel","new-new",975
"5b82be6543bc4900017ef3de",16,"older",1,"ADVICE","ADVICE",TRUE,3.172325,3,1,"razor","old-new",976
"5b82be6543bc4900017ef3de",16,"older",2,"SYSTEM","PHOTO",FALSE,6.797135,2,2,"dart","new-new",976
"5b82be6543bc4900017ef3de",16,"older",3,"ADVICE","SYSTEM",FALSE,3.12333,1,3,"basket","mis-match",976
"5b82be6543bc4900017ef3de",16,"older",4,"DOZEN","DOZEN",TRUE,3.775035,0,4,"cart","match",976
"5bc4784e85214800017d8c1a",1,"younger",1,"RECORD","RECORD",TRUE,2.815505,3,1,"dart","mis-match",241
"5bc4784e85214800017d8c1a",1,"younger",2,"CANDY","CANDY",TRUE,2.42678,1,2,"stamp","match",241
"5bc4784e85214800017d8c1a",1,"younger",3,"CLIENT","CLIENT",TRUE,2.25346,0,3,"peg","old-new",241
"5bc4784e85214800017d8c1a",1,"younger",4,"CARS","CARS",TRUE,2.505955,2,4,"motorbike","new-new",241
"5bc4784e85214800017d8c1a",2,"younger",1,"THING","THING",TRUE,5.89085,2,1,"bench","match",242
"5bc4784e85214800017d8c1a",2,"younger",2,"FLIGHT","FLIGHT",TRUE,2.694135,3,2,"pawn","mis-match",242
"5bc4784e85214800017d8c1a",2,"younger",3,"SYSTEM","SYSTEM",TRUE,2.932965,1,3,"sunflower","new-new",242
"5bc4784e85214800017d8c1a",2,"younger",4,"GLASS","GLASS",TRUE,1.809915,0,4,"crown","old-new",242
"5bc4784e85214800017d8c1a",3,"younger",1,"NATION","NATION",TRUE,3.306555,2,1,"gorilla","old-new",243
"5bc4784e85214800017d8c1a",3,"younger",2,"JUNGLE","JUNGLE",TRUE,2.38822,0,2,"razor","mis-match",243
"5bc4784e85214800017d8c1a",3,"younger",3,"PRINCE","PRINCE",TRUE,2.745915,3,3,"windmill","new-new",243
"5bc4784e85214800017d8c1a",3,"younger",4,"BOYS","BOYS",TRUE,2.08547,1,4,"pear","match",243
"5bc4784e85214800017d8c1a",4,"younger",1,"COPS","COPS",TRUE,2.51577,2,1,"wheel","match",244
"5bc4784e85214800017d8c1a",4,"younger",2,"MILE","MILE",TRUE,1.94782,0,2,"anchor","mis-match",244
"5bc4784e85214800017d8c1a",4,"younger",3,"HONEY","HONEY",TRUE,1.939045,1,3,"cherry","new-new",244
"5bc4784e85214800017d8c1a",4,"younger",4,"PENNY","PENNY",TRUE,1.692085,3,4,"microphone","old-new",244
"5bc4784e85214800017d8c1a",5,"younger",1,"APPLE","APPLE",TRUE,2.599775,0,1,"kettle","new-new",245
"5bc4784e85214800017d8c1a",5,"younger",2,"DANGER","DANGER",TRUE,2.707435,3,2,"megaphone","mis-match",245
"5bc4784e85214800017d8c1a",5,"younger",3,"KIND","KIND",TRUE,2.145855,2,3,"dice","match",245
"5bc4784e85214800017d8c1a",5,"younger",4,"DANGER","SHOTS",FALSE,2.50646,1,4,"bolt","old-new",245
"5bc4784e85214800017d8c1a",6,"younger",1,"BELT","BELT",TRUE,2.75964,0,1,"stool","new-new",246
"5bc4784e85214800017d8c1a",6,"younger",2,"ESTATE","ESTATE",TRUE,2.00368,2,2,"tractor","new-new",246
"5bc4784e85214800017d8c1a",6,"younger",3,"AREA","AREA",TRUE,1.74725,1,3,"frame","new-new",246
"5bc4784e85214800017d8c1a",6,"younger",4,"AGENT","AGENT",TRUE,1.697405,3,4,"salt","new-new",246
"5bc4784e85214800017d8c1a",7,"younger",1,"SPIRIT","SPIRIT",TRUE,2.771835,0,1,"coin","new-new",247
"5bc4784e85214800017d8c1a",7,"younger",2,"LEADER","LEADER",TRUE,2.117925,1,2,"cathedral","new-new",247
"5bc4784e85214800017d8c1a",7,"younger",3,"HOTEL","HOTEL",TRUE,2.940545,3,3,"planet","new-new",247
"5bc4784e85214800017d8c1a",7,"younger",4,"IDEAS","IDEAS",TRUE,1.84659,2,4,"cap","new-new",247
"5bc4784e85214800017d8c1a",8,"younger",1,"CASINO","CASINO",TRUE,2.633585,1,1,"carrot","new-new",248
"5bc4784e85214800017d8c1a",8,"younger",2,"SERIES","SERIES",TRUE,1.767205,0,2,"helmet","new-new",248
"5bc4784e85214800017d8c1a",8,"younger",3,"BEAUTY","BEAUTY",TRUE,2.570965,2,3,"taxi","new-new",248
"5bc4784e85214800017d8c1a",8,"younger",4,"DEMON","DEMON",TRUE,1.721135,3,4,"diamond","new-new",248
"5bc4784e85214800017d8c1a",9,"younger",1,"DUDE","DUDE",TRUE,1.75077,2,1,"pepper","match",249
"5bc4784e85214800017d8c1a",9,"younger",2,"PLENTY","PLENTY",TRUE,1.937365,0,2,"monkey","mis-match",249
"5bc4784e85214800017d8c1a",9,"younger",3,"FLESH","FLESH",TRUE,3.89111,1,3,"balcony","new-new",249
"5bc4784e85214800017d8c1a",9,"younger",4,"PILLS","PILLS",TRUE,1.92021,3,4,"hanger","old-new",249
"5bc4784e85214800017d8c1a",10,"younger",1,"BATH","BATH",TRUE,2.588255,3,1,"skateboard","new-new",250
"5bc4784e85214800017d8c1a",10,"younger",2,"TEAR","TEAR",TRUE,2.7109,1,2,"shovel","new-new",250
"5bc4784e85214800017d8c1a",10,"younger",3,"HOUSE","HOUSE",TRUE,2.422,0,3,"goose","new-new",250
"5bc4784e85214800017d8c1a",10,"younger",4,"YEAR","YEAR",TRUE,4.66416,2,4,"mushroom","new-new",250
"5bc4784e85214800017d8c1a",11,"younger",1,"FRIEND","DEATH",FALSE,4.052235,3,1,"pencil","new-new",251
"5bc4784e85214800017d8c1a",11,"younger",2,"DEATH","FRIEND",FALSE,2.837245,2,2,"cart","new-new",251
"5bc4784e85214800017d8c1a",11,"younger",3,"GODS","GODS",TRUE,1.94967,1,3,"sun","new-new",251
"5bc4784e85214800017d8c1a",11,"younger",4,"FOOD","FOOD",TRUE,1.65395,0,4,"telephone","new-new",251
"5bc4784e85214800017d8c1a",12,"younger",1,"STYLE","YARD",FALSE,4.33048,2,1,"tyre","match",252
"5bc4784e85214800017d8c1a",12,"younger",2,"SAKE","SAKE",TRUE,2.522075,1,2,"aeroplane","old-new",252
"5bc4784e85214800017d8c1a",12,"younger",3,"STYLE","STYLE",TRUE,4.61207,0,3,"boot","new-new",252
"5bc4784e85214800017d8c1a",12,"younger",4,"SALE","SALE",TRUE,1.992345,3,4,"map","mis-match",252
"5bc4784e85214800017d8c1a",13,"younger",1,"DOZEN","DOZEN",TRUE,5.56009,2,1,"wheelbarrow","old-new",253
"5bc4784e85214800017d8c1a",13,"younger",2,"WRITER","WRITER",TRUE,2.616965,1,2,"rug","match",253
"5bc4784e85214800017d8c1a",13,"younger",3,"TOILET","TOILET",TRUE,2.15537,0,3,"scissors","mis-match",253
"5bc4784e85214800017d8c1a",13,"younger",4,"ARTIST","ARTIST",TRUE,2.53536,3,4,"daisy","new-new",253
"5bc4784e85214800017d8c1a",14,"younger",1,"FAMILY","FAMILY",TRUE,2.93921,0,1,"candle","mis-match",254
"5bc4784e85214800017d8c1a",14,"younger",2,"MILLER","MILLER",TRUE,2.11649,1,2,"suitcase","match",254
"5bc4784e85214800017d8c1a",14,"younger",3,"GIRL","GIRL",TRUE,1.956885,3,3,"mirror","old-new",254
"5bc4784e85214800017d8c1a",14,"younger",4,"SPEECH","SPEECH",TRUE,1.904785,2,4,"backpack","new-new",254
"5bc4784e85214800017d8c1a",15,"younger",1,"RIVER","RIVER",TRUE,2.108205,1,1,"tray","new-new",255
"5bc4784e85214800017d8c1a",15,"younger",2,"CLOCK","WOMEN",FALSE,6.0093,3,2,"watch","new-new",255
"5bc4784e85214800017d8c1a",15,"younger",3,"NIGHT","NIGHT",TRUE,2.22099,0,3,"perfume","new-new",255
"5bc4784e85214800017d8c1a",15,"younger",4,"WOMEN","CLOCK",FALSE,2.02674,2,4,"runner","new-new",255
"5bc4784e85214800017d8c1a",16,"younger",1,"ADVICE","ADVICE",TRUE,2.14198,0,1,"calendar","mis-match",256
"5bc4784e85214800017d8c1a",16,"younger",2,"ROOF","ROOF",TRUE,2.04196,2,2,"basket","match",256
"5bc4784e85214800017d8c1a",16,"younger",3,"LOTS","LOTS",TRUE,2.24513,3,3,"spoon","new-new",256
"5bc4784e85214800017d8c1a",16,"younger",4,"DIRT","DIRT",TRUE,2.544395,1,4,"ring","old-new",256
"5bd45c509afb5b00015c48f4",1,"older",1,"DEATH","SHOTS",FALSE,3.90412,2,1,"cart","new-new",1393
"5bd45c509afb5b00015c48f4",1,"older",2,"?","LIFE",FALSE,2.38661,3,2,"pawn","new-new",1393
"5bd45c509afb5b00015c48f4",1,"older",3,"DEATH","DEATH",TRUE,2.45397,1,3,"aeroplane","new-new",1393
"5bd45c509afb5b00015c48f4",1,"older",4,"LEADER","LEADER",TRUE,3.37286,0,4,"sunflower","new-new",1393
"5bd45c509afb5b00015c48f4",2,"older",1,"POLICY","POLICY",TRUE,4.05572,0,1,"pepper","mis-match",1394
"5bd45c509afb5b00015c48f4",2,"older",2,"JUNGLE","BELT",FALSE,3.1706,3,2,"wheelbarrow","new-new",1394
"5bd45c509afb5b00015c48f4",2,"older",3,"BATH","BATH",TRUE,2.08653,2,3,"spoon","match",1394
"5bd45c509afb5b00015c48f4",2,"older",4,"RIVER","JUNGLE",FALSE,5.07676,1,4,"planet","old-new",1394
"5bd45c509afb5b00015c48f4",3,"older",1,"?","CANDY",FALSE,0.38244,1,1,"tractor","new-new",1395
"5bd45c509afb5b00015c48f4",3,"older",2,"?","FEET",FALSE,4.509215,2,2,"runner","new-new",1395
"5bd45c509afb5b00015c48f4",3,"older",3,"?","CLIENT",FALSE,3.2865,3,3,"watch","new-new",1395
"5bd45c509afb5b00015c48f4",3,"older",4,"?","FLIGHT",FALSE,1.584855,0,4,"wheel","new-new",1395
"5bd45c509afb5b00015c48f4",4,"older",1,"AREA","AREA",TRUE,5.860405,2,1,"shovel","match",1396
