consent_key.keys,consent_key.rt,recalled,recalled_rt,recall_acc,example_recall.thisRepN,example_recall.thisTrialN,example_recall.thisN,example_recall.thisIndex,example_recall.ran,file,word,participant,please enter your date of birth (dd/mm/yyyy),date,expName,psychopyVersion,OS,frameRate,STUDY_ID,SESSION_ID,list,prac_learn_study_loop.thisRepN,prac_learn_study_loop.thisTrialN,prac_learn_study_loop.thisN,prac_learn_study_loop.thisIndex,prac_learn_study_loop.ran,image,prac_learn_test_loop.thisRepN,prac_learn_test_loop.thisTrialN,prac_learn_test_loop.thisN,prac_learn_test_loop.thisIndex,prac_learn_test_loop.ran,learn_study_loop.thisRepN,learn_study_loop.thisTrialN,learn_study_loop.thisN,learn_study_loop.thisIndex,learn_study_loop.ran,list_no,block_no,learn_test_loop.thisRepN,learn_test_loop.thisTrialN,learn_test_loop.thisN,learn_test_loop.thisIndex,learn_test_loop.ran,learn_blocks.thisRepN,learn_blocks.thisTrialN,learn_blocks.thisN,learn_blocks.thisIndex,learn_blocks.ran,block_csv,key_resp_13.keys,key_resp_13.rt,learn_blocks_loop.thisRepN,learn_blocks_loop.thisTrialN,learn_blocks_loop.thisN,learn_blocks_loop.thisIndex,learn_blocks_loop.ran,final_learn_test.thisRepN,final_learn_test.thisTrialN,final_learn_test.thisN,final_learn_test.thisIndex,final_learn_test.ran,s_im1,s_im2,s_im3,s_im4,s_im5,s_im6,s_im7,s_im8,s_im1pos,s_im2pos,s_im3pos,s_im4pos,s_im5pos,s_im6pos,s_im7pos,s_im8pos,s_tarright,search_resp.keys,search_resp.rt,search_loop.thisRepN,search_loop.thisTrialN,search_loop.thisN,search_loop.thisIndex,search_loop.ran,prac_wm_test_loop.thisRepN,prac_wm_test_loop.thisTrialN,prac_wm_test_loop.thisN,prac_wm_test_loop.thisIndex,prac_wm_test_loop.ran,wm_recalled1,wm_recall_rt1,wm_probed1,wm_recall_acc1,wm_recalled2,wm_recall_rt2,wm_probed2,wm_recall_acc2,wm_recalled3,wm_recall_rt3,wm_probed3,wm_recall_acc3,wm_recalled4,wm_recall_rt4,wm_probed4,wm_recall_acc4,prac_wm_trial_loop.thisRepN,prac_wm_trial_loop.thisTrialN,prac_wm_trial_loop.thisN,prac_wm_trial_loop.thisIndex,prac_wm_trial_loop.ran,word1,image1,file1,item_type1,word2,image2,file2,item_type2,word4,image4,file4,item_type4,word3,image3,file3,item_type3,wm_test_loop.thisRepN,wm_test_loop.thisTrialN,wm_test_loop.thisN,wm_test_loop.thisIndex,wm_test_loop.ran,wm_trial_loop.thisRepN,wm_trial_loop.thisTrialN,wm_trial_loop.thisN,wm_trial_loop.thisIndex,wm_trial_loop.ran
y,22.385575,TOUGH,4.166695,1,0,0,0,0,1,stimuli/images/PICTURE_747.png,TOUGH,59e91d78d4ab970001389c67,14/09/1954,2020-09-03_22h39.19.331,proactive2,2020.1.2,Win32,60,5f5126bb654d4b30ee6923d8,5f51606d7d1a393a11a09c0f,2,,,,,,,,,,,,,,,,,,,,,,,,,,,,,,,,,,,,,,,,,,,,,,,,,,,,,,,,,,,,,,,,,,,,,,,,,,,,,,,,,,,,,,,,,,,,,,,,,,,,,,,,,,,,,,,,,,,,,
,,,,,,,,,,stimuli/images/PICTURE_727.png,CELL,59e91d78d4ab970001389c67,14/09/1954,2020-09-03_22h39.19.331,proactive2,2020.1.2,Win32,60,5f5126bb654d4b30ee6923d8,5f51606d7d1a393a11a09c0f,2,0,0,0,1,1,hose,,,,,,,,,,,,,,,,,,,,,,,,,,,,,,,,,,,,,,,,,,,,,,,,,,,,,,,,,,,,,,,,,,,,,,,,,,,,,,,,,,,,,,,,,,,,,,,,,,,,,,,,,,,,,,,
,,,,,,,,,,stimuli/images/PICTURE_697.png,KILLER,59e91d78d4ab970001389c67,14/09/1954,2020-09-03_22h39.19.331,proactive2,2020.1.2,Win32,60,5f5126bb654d4b30ee6923d8,5f51606d7d1a393a11a09c0f,2,0,1,1,4,1,peach,,,,,,,,,,,,,,,,,,,,,,,,,,,,,,,,,,,,,,,,,,,,,,,,,,,,,,,,,,,,,,,,,,,,,,,,,,,,,,,,,,,,,,,,,,,,,,,,,,,,,,,,,,,,,,,
,,,,,,,,,,stimuli/images/PICTURE_378.png,LOSS,59e91d78d4ab970001389c67,14/09/1954,2020-09-03_22h39.19.331,proactive2,2020.1.2,Win32,60,5f5126bb654d4b30ee6923d8,5f51606d7d1a393a11a09c0f,2,0,2,2,2,1,lobster,,,,,,,,,,,,,,,,,,,,,,,,,,,,,,,,,,,,,,,,,,,,,,,,,,,,,,,,,,,,,,,,,,,,,,,,,,,,,,,,,,,,,,,,,,,,,,,,,,,,,,,,,,,,,,,
,,,,,,,,,,stimuli/images/PICTURE_658.png,DEVIL,59e91d78d4ab970001389c67,14/09/1954,2020-09-03_22h39.19.331,proactive2,2020.1.2,Win32,60,5f5126bb654d4b30ee6923d8,5f51606d7d1a393a11a09c0f,2,0,3,3,3,1,crow,,,,,,,,,,,,,,,,,,,,,,,,,,,,,,,,,,,,,,,,,,,,,,,,,,,,,,,,,,,,,,,,,,,,,,,,,,,,,,,,,,,,,,,,,,,,,,,,,,,,,,,,,,,,,,,
,,LOSS,3.98964,1,,,,,,stimuli/images/PICTURE_378.png,LOSS,59e91d78d4ab970001389c67,14/09/1954,2020-09-03_22h39.19.331,proactive2,2020.1.2,Win32,60,5f5126bb654d4b30ee6923d8,5f51606d7d1a393a11a09c0f,2,,,,,,lobster,0,0,0,2,1,,,,,,,,,,,,,,,,,,,,,,,,,,,,,,,,,,,,,,,,,,,,,,,,,,,,,,,,,,,,,,,,,,,,,,,,,,,,,,,,,,,,,,,,,,,,,,,,,,,,,,,,,,
,,DEVIL,8.551805,1,,,,,,stimuli/images/PICTURE_658.png,DEVIL,59e91d78d4ab970001389c67,14/09/1954,2020-09-03_22h39.19.331,proactive2,2020.1.2,Win32,60,5f5126bb654d4b30ee6923d8,5f51606d7d1a393a11a09c0f,2,,,,,,crow,0,1,1,3,1,,,,,,,,,,,,,,,,,,,,,,,,,,,,,,,,,,,,,,,,,,,,,,,,,,,,,,,,,,,,,,,,,,,,,,,,,,,,,,,,,,,,,,,,,,,,,,,,,,,,,,,,,,
,,KILLER,3.18928,1,,,,,,stimuli/images/PICTURE_697.png,KILLER,59e91d78d4ab970001389c67,14/09/1954,2020-09-03_22h39.19.331,proactive2,2020.1.2,Win32,60,5f5126bb654d4b30ee6923d8,5f51606d7d1a393a11a09c0f,2,,,,,,peach,0,2,2,4,1,,,,,,,,,,,,,,,,,,,,,,,,,,,,,,,,,,,,,,,,,,,,,,,,,,,,,,,,,,,,,,,,,,,,,,,,,,,,,,,,,,,,,,,,,,,,,,,,,,,,,,,,,,
,,CELL,3.356145,1,,,,,,stimuli/images/PICTURE_727.png,CELL,59e91d78d4ab970001389c67,14/09/1954,2020-09-03_22h39.19.331,proactive2,2020.1.2,Win32,60,5f5126bb654d4b30ee6923d8,5f51606d7d1a393a11a09c0f,2,,,,,,hose,0,3,3,1,1,,,,,,,,,,,,,,,,,,,,,,,,,,,,,,,,,,,,,,,,,,,,,,,,,,,,,,,,,,,,,,,,,,,,,,,,,,,,,,,,,,,,,,,,,,,,,,,,,,,,,,,,,,
,,GENIUS,4.8125,1,,,,,,stimuli/images/PICTURE_269.png,GENIUS,59e91d78d4ab970001389c67,14/09/1954,2020-09-03_22h39.19.331,proactive2,2020.1.2,Win32,60,5f5126bb654d4b30ee6923d8,5f51606d7d1a393a11a09c0f,2,,,,,,chameleon,0,4,4,0,1,,,,,,,,,,,,,,,,,,,,,,,,,,,,,,,,,,,,,,,,,,,,,,,,,,,,,,,,,,,,,,,,,,,,,,,,,,,,,,,,,,,,,,,,,,,,,,,,,,,,,,,,,,
,,,,,,,,,,stimuli/images/PICTURE_68.png,KIND,59e91d78d4ab970001389c67,14/09/1954,2020-09-03_22h39.19.331,proactive2,2020.1.2,Win32,60,5f5126bb654d4b30ee6923d8,5f51606d7d1a393a11a09c0f,2,,,,,,candle,,,,,,0,0,0,23,1,3,2,,,,,,,,,,,,,,,,,,,,,,,,,,,,,,,,,,,,,,,,,,,,,,,,,,,,,,,,,,,,,,,,,,,,,,,,,,,,,,,,,,,,,,,,,,,,,,,,,,,
,,,,,,,,,,stimuli/images/PICTURE_297.png,BODY,59e91d78d4ab970001389c67,14/09/1954,2020-09-03_22h39.19.331,proactive2,2020.1.2,Win32,60,5f5126bb654d4b30ee6923d8,5f51606d7d1a393a11a09c0f,2,,,,,,aeroplane,,,,,,0,1,1,51,1,6,2,,,,,,,,,,,,,,,,,,,,,,,,,,,,,,,,,,,,,,,,,,,,,,,,,,,,,,,,,,,,,,,,,,,,,,,,,,,,,,,,,,,,,,,,,,,,,,,,,,,
,,,,,,,,,,stimuli/images/PICTURE_285.png,PRINCE,59e91d78d4ab970001389c67,14/09/1954,2020-09-03_22h39.19.331,proactive2,2020.1.2,Win32,60,5f5126bb654d4b30ee6923d8,5f51606d7d1a393a11a09c0f,2,,,,,,carrot,,,,,,0,2,2,20,1,3,2,,,,,,,,,,,,,,,,,,,,,,,,,,,,,,,,,,,,,,,,,,,,,,,,,,,,,,,,,,,,,,,,,,,,,,,,,,,,,,,,,,,,,,,,,,,,,,,,,,,
,,,,,,,,,,stimuli/images/PICTURE_564.png,PLENTY,59e91d78d4ab970001389c67,14/09/1954,2020-09-03_22h39.19.331,proactive2,2020.1.2,Win32,60,5f5126bb654d4b30ee6923d8,5f51606d7d1a393a11a09c0f,2,,,,,,spoon,,,,,,0,3,3,11,1,2,2,,,,,,,,,,,,,,,,,,,,,,,,,,,,,,,,,,,,,,,,,,,,,,,,,,,,,,,,,,,,,,,,,,,,,,,,,,,,,,,,,,,,,,,,,,,,,,,,,,,
,,,,,,,,,,stimuli/images/PICTURE_688.png,CLOCK,59e91d78d4ab970001389c67,14/09/1954,2020-09-03_22h39.19.331,proactive2,2020.1.2,Win32,60,5f5126bb654d4b30ee6923d8,5f51606d7d1a393a11a09c0f,2,,,,,,runner,,,,,,0,4,4,42,1,5,2,,,,,,,,,,,,,,,,,,,,,,,,,,,,,,,,,,,,,,,,,,,,,,,,,,,,,,,,,,,,,,,,,,,,,,,,,,,,,,,,,,,,,,,,,,,,,,,,,,,
,,,,,,,,,,stimuli/images/PICTURE_215.png,LEADER,59e91d78d4ab970001389c67,14/09/1954,2020-09-03_22h39.19.331,proactive2,2020.1.2,Win32,60,5f5126bb654d4b30ee6923d8,5f51606d7d1a393a11a09c0f,2,,,,,,boot,,,,,,0,5,5,43,1,5,2,,,,,,,,,,,,,,,,,,,,,,,,,,,,,,,,,,,,,,,,,,,,,,,,,,,,,,,,,,,,,,,,,,,,,,,,,,,,,,,,,,,,,,,,,,,,,,,,,,,
,,,,,,,,,,stimuli/images/PICTURE_654.png,YEAR,59e91d78d4ab970001389c67,14/09/1954,2020-09-03_22h39.19.331,proactive2,2020.1.2,Win32,60,5f5126bb654d4b30ee6923d8,5f51606d7d1a393a11a09c0f,2,,,,,,pencil,,,,,,0,6,6,41,1,5,2,,,,,,,,,,,,,,,,,,,,,,,,,,,,,,,,,,,,,,,,,,,,,,,,,,,,,,,,,,,,,,,,,,,,,,,,,,,,,,,,,,,,,,,,,,,,,,,,,,,
,,,,,,,,,,stimuli/images/PICTURE_93.png,GIRL,59e91d78d4ab970001389c67,14/09/1954,2020-09-03_22h39.19.331,proactive2,2020.1.2,Win32,60,5f5126bb654d4b30ee6923d8,5f51606d7d1a393a11a09c0f,2,,,,,,skateboard,,,,,,0,7,7,31,1,4,2,,,,,,,,,,,,,,,,,,,,,,,,,,,,,,,,,,,,,,,,,,,,,,,,,,,,,,,,,,,,,,,,,,,,,,,,,,,,,,,,,,,,,,,,,,,,,,,,,,,
,,,,,,,,,,stimuli/images/PICTURE_405.png,HOUSE,59e91d78d4ab970001389c67,14/09/1954,2020-09-03_22h39.19.331,proactive2,2020.1.2,Win32,60,5f5126bb654d4b30ee6923d8,5f51606d7d1a393a11a09c0f,2,,,,,,anchor,,,,,,0,8,8,2,1,1,2,,,,,,,,,,,,,,,,,,,,,,,,,,,,,,,,,,,,,,,,,,,,,,,,,,,,,,,,,,,,,,,,,,,,,,,,,,,,,,,,,,,,,,,,,,,,,,,,,,,
,,,,,,,,,,stimuli/images/PICTURE_57.png,CANDY,59e91d78d4ab970001389c67,14/09/1954,2020-09-03_22h39.19.331,proactive2,2020.1.2,Win32,60,5f5126bb654d4b30ee6923d8,5f51606d7d1a393a11a09c0f,2,,,,,,stamp,,,,,,0,9,9,52,1,6,2,,,,,,,,,,,,,,,,,,,,,,,,,,,,,,,,,,,,,,,,,,,,,,,,,,,,,,,,,,,,,,,,,,,,,,,,,,,,,,,,,,,,,,,,,,,,,,,,,,,
,,,,,,,,,,stimuli/images/PICTURE_750.png,POLICY,59e91d78d4ab970001389c67,14/09/1954,2020-09-03_22h39.19.331,proactive2,2020.1.2,Win32,60,5f5126bb654d4b30ee6923d8,5f51606d7d1a393a11a09c0f,2,,,,,,kettle,,,,,,0,10,10,44,1,5,2,,,,,,,,,,,,,,,,,,,,,,,,,,,,,,,,,,,,,,,,,,,,,,,,,,,,,,,,,,,,,,,,,,,,,,,,,,,,,,,,,,,,,,,,,,,,,,,,,,,
,,,,,,,,,,stimuli/images/PICTURE_255.png,PENNY,59e91d78d4ab970001389c67,14/09/1954,2020-09-03_22h39.19.331,proactive2,2020.1.2,Win32,60,5f5126bb654d4b30ee6923d8,5f51606d7d1a393a11a09c0f,2,,,,,,shovel,,,,,,0,11,11,19,1,2,2,,,,,,,,,,,,,,,,,,,,,,,,,,,,,,,,,,,,,,,,,,,,,,,,,,,,,,,,,,,,,,,,,,,,,,,,,,,,,,,,,,,,,,,,,,,,,,,,,,,
,,,,,,,,,,stimuli/images/PICTURE_677.png,PHOTO,59e91d78d4ab970001389c67,14/09/1954,2020-09-03_22h39.19.331,proactive2,2020.1.2,Win32,60,5f5126bb654d4b30ee6923d8,5f51606d7d1a393a11a09c0f,2,,,,,,map,,,,,,0,12,12,14,1,2,2,,,,,,,,,,,,,,,,,,,,,,,,,,,,,,,,,,,,,,,,,,,,,,,,,,,,,,,,,,,,,,,,,,,,,,,,,,,,,,,,,,,,,,,,,,,,,,,,,,,
,,,,,,,,,,stimuli/images/PICTURE_470.png,BEAUTY,59e91d78d4ab970001389c67,14/09/1954,2020-09-03_22h39.19.331,proactive2,2020.1.2,Win32,60,5f5126bb654d4b30ee6923d8,5f51606d7d1a393a11a09c0f,2,,,,,,motorbike,,,,,,0,13,13,26,1,3,2,,,,,,,,,,,,,,,,,,,,,,,,,,,,,,,,,,,,,,,,,,,,,,,,,,,,,,,,,,,,,,,,,,,,,,,,,,,,,,,,,,,,,,,,,,,,,,,,,,,
,,,,,,,,,,stimuli/images/PICTURE_655.png,SALE,59e91d78d4ab970001389c67,14/09/1954,2020-09-03_22h39.19.331,proactive2,2020.1.2,Win32,60,5f5126bb654d4b30ee6923d8,5f51606d7d1a393a11a09c0f,2,,,,,,megaphone,,,,,,0,14,14,57,1,6,2,,,,,,,,,,,,,,,,,,,,,,,,,,,,,,,,,,,,,,,,,,,,,,,,,,,,,,,,,,,,,,,,,,,,,,,,,,,,,,,,,,,,,,,,,,,,,,,,,,,
,,,,,,,,,,stimuli/images/PICTURE_208.png,SPIRIT,59e91d78d4ab970001389c67,14/09/1954,2020-09-03_22h39.19.331,proactive2,2020.1.2,Win32,60,5f5126bb654d4b30ee6923d8,5f51606d7d1a393a11a09c0f,2,,,,,,microphone,,,,,,0,15,15,28,1,3,2,,,,,,,,,,,,,,,,,,,,,,,,,,,,,,,,,,,,,,,,,,,,,,,,,,,,,,,,,,,,,,,,,,,,,,,,,,,,,,,,,,,,,,,,,,,,,,,,,,,
,,,,,,,,,,stimuli/images/PICTURE_403.png,FAMILY,59e91d78d4ab970001389c67,14/09/1954,2020-09-03_22h39.19.331,proactive2,2020.1.2,Win32,60,5f5126bb654d4b30ee6923d8,5f51606d7d1a393a11a09c0f,2,,,,,,cathedral,,,,,,0,16,16,9,1,1,2,,,,,,,,,,,,,,,,,,,,,,,,,,,,,,,,,,,,,,,,,,,,,,,,,,,,,,,,,,,,,,,,,,,,,,,,,,,,,,,,,,,,,,,,,,,,,,,,,,,
,,,,,,,,,,stimuli/images/PICTURE_356.png,CANDY,59e91d78d4ab970001389c67,14/09/1954,2020-09-03_22h39.19.331,proactive2,2020.1.2,Win32,60,5f5126bb654d4b30ee6923d8,5f51606d7d1a393a11a09c0f,2,,,,,,pawn,,,,,,0,17,17,46,1,5,2,,,,,,,,,,,,,,,,,,,,,,,,,,,,,,,,,,,,,,,,,,,,,,,,,,,,,,,,,,,,,,,,,,,,,,,,,,,,,,,,,,,,,,,,,,,,,,,,,,,
,,,,,,,,,,stimuli/images/PICTURE_2.png,JUNGLE,59e91d78d4ab970001389c67,14/09/1954,2020-09-03_22h39.19.331,proactive2,2020.1.2,Win32,60,5f5126bb654d4b30ee6923d8,5f51606d7d1a393a11a09c0f,2,,,,,,tyre,,,,,,0,18,18,1,1,1,2,,,,,,,,,,,,,,,,,,,,,,,,,,,,,,,,,,,,,,,,,,,,,,,,,,,,,,,,,,,,,,,,,,,,,,,,,,,,,,,,,,,,,,,,,,,,,,,,,,,
,,,,,,,,,,stimuli/images/PICTURE_509.png,BATH,59e91d78d4ab970001389c67,14/09/1954,2020-09-03_22h39.19.331,proactive2,2020.1.2,Win32,60,5f5126bb654d4b30ee6923d8,5f51606d7d1a393a11a09c0f,2,,,,,,telephone,,,,,,0,19,19,15,1,2,2,,,,,,,,,,,,,,,,,,,,,,,,,,,,,,,,,,,,,,,,,,,,,,,,,,,,,,,,,,,,,,,,,,,,,,,,,,,,,,,,,,,,,,,,,,,,,,,,,,,
,,,,,,,,,,stimuli/images/PICTURE_708.png,VALLEY,59e91d78d4ab970001389c67,14/09/1954,2020-09-03_22h39.19.331,proactive2,2020.1.2,Win32,60,5f5126bb654d4b30ee6923d8,5f51606d7d1a393a11a09c0f,2,,,,,,monkey,,,,,,0,20,20,45,1,5,2,,,,,,,,,,,,,,,,,,,,,,,,,,,,,,,,,,,,,,,,,,,,,,,,,,,,,,,,,,,,,,,,,,,,,,,,,,,,,,,,,,,,,,,,,,,,,,,,,,,
,,,,,,,,,,stimuli/images/PICTURE_327.png,LEADER,59e91d78d4ab970001389c67,14/09/1954,2020-09-03_22h39.19.331,proactive2,2020.1.2,Win32,60,5f5126bb654d4b30ee6923d8,5f51606d7d1a393a11a09c0f,2,,,,,,helmet,,,,,,0,21,21,17,1,2,2,,,,,,,,,,,,,,,,,,,,,,,,,,,,,,,,,,,,,,,,,,,,,,,,,,,,,,,,,,,,,,,,,,,,,,,,,,,,,,,,,,,,,,,,,,,,,,,,,,,
,,,,,,,,,,stimuli/images/PICTURE_314.png,SPEECH,59e91d78d4ab970001389c67,14/09/1954,2020-09-03_22h39.19.331,proactive2,2020.1.2,Win32,60,5f5126bb654d4b30ee6923d8,5f51606d7d1a393a11a09c0f,2,,,,,,perfume,,,,,,0,22,22,35,1,4,2,,,,,,,,,,,,,,,,,,,,,,,,,,,,,,,,,,,,,,,,,,,,,,,,,,,,,,,,,,,,,,,,,,,,,,,,,,,,,,,,,,,,,,,,,,,,,,,,,,,
,,,,,,,,,,stimuli/images/PICTURE_215.png,FOOD,59e91d78d4ab970001389c67,14/09/1954,2020-09-03_22h39.19.331,proactive2,2020.1.2,Win32,60,5f5126bb654d4b30ee6923d8,5f51606d7d1a393a11a09c0f,2,,,,,,boot,,,,,,0,23,23,5,1,1,2,,,,,,,,,,,,,,,,,,,,,,,,,,,,,,,,,,,,,,,,,,,,,,,,,,,,,,,,,,,,,,,,,,,,,,,,,,,,,,,,,,,,,,,,,,,,,,,,,,,
,,,,,,,,,,stimuli/images/PICTURE_2.png,AREA,59e91d78d4ab970001389c67,14/09/1954,2020-09-03_22h39.19.331,proactive2,2020.1.2,Win32,60,5f5126bb654d4b30ee6923d8,5f51606d7d1a393a11a09c0f,2,,,,,,tyre,,,,,,0,24,24,32,1,4,2,,,,,,,,,,,,,,,,,,,,,,,,,,,,,,,,,,,,,,,,,,,,,,,,,,,,,,,,,,,,,,,,,,,,,,,,,,,,,,,,,,,,,,,,,,,,,,,,,,,
,,,,,,,,,,stimuli/images/PICTURE_491.png,SERIES,59e91d78d4ab970001389c67,14/09/1954,2020-09-03_22h39.19.331,proactive2,2020.1.2,Win32,60,5f5126bb654d4b30ee6923d8,5f51606d7d1a393a11a09c0f,2,,,,,,rug,,,,,,0,25,25,39,1,4,2,,,,,,,,,,,,,,,,,,,,,,,,,,,,,,,,,,,,,,,,,,,,,,,,,,,,,,,,,,,,,,,,,,,,,,,,,,,,,,,,,,,,,,,,,,,,,,,,,,,
,,,,,,,,,,stimuli/images/PICTURE_33.png,COPS,59e91d78d4ab970001389c67,14/09/1954,2020-09-03_22h39.19.331,proactive2,2020.1.2,Win32,60,5f5126bb654d4b30ee6923d8,5f51606d7d1a393a11a09c0f,2,,,,,,frame,,,,,,0,26,26,29,1,3,2,,,,,,,,,,,,,,,,,,,,,,,,,,,,,,,,,,,,,,,,,,,,,,,,,,,,,,,,,,,,,,,,,,,,,,,,,,,,,,,,,,,,,,,,,,,,,,,,,,,
,,,,,,,,,,stimuli/images/PICTURE_405.png,JUNGLE,59e91d78d4ab970001389c67,14/09/1954,2020-09-03_22h39.19.331,proactive2,2020.1.2,Win32,60,5f5126bb654d4b30ee6923d8,5f51606d7d1a393a11a09c0f,2,,,,,,anchor,,,,,,0,27,27,58,1,6,2,,,,,,,,,,,,,,,,,,,,,,,,,,,,,,,,,,,,,,,,,,,,,,,,,,,,,,,,,,,,,,,,,,,,,,,,,,,,,,,,,,,,,,,,,,,,,,,,,,,
,,,,,,,,,,stimuli/images/PICTURE_95.png,NIGHT,59e91d78d4ab970001389c67,14/09/1954,2020-09-03_22h39.19.331,proactive2,2020.1.2,Win32,60,5f5126bb654d4b30ee6923d8,5f51606d7d1a393a11a09c0f,2,,,,,,suitcase,,,,,,0,28,28,37,1,4,2,,,,,,,,,,,,,,,,,,,,,,,,,,,,,,,,,,,,,,,,,,,,,,,,,,,,,,,,,,,,,,,,,,,,,,,,,,,,,,,,,,,,,,,,,,,,,,,,,,,
,,,,,,,,,,stimuli/images/PICTURE_405.png,JUNGLE,59e91d78d4ab970001389c67,14/09/1954,2020-09-03_22h39.19.331,proactive2,2020.1.2,Win32,60,5f5126bb654d4b30ee6923d8,5f51606d7d1a393a11a09c0f,2,,,,,,anchor,,,,,,0,29,29,13,1,2,2,,,,,,,,,,,,,,,,,,,,,,,,,,,,,,,,,,,,,,,,,,,,,,,,,,,,,,,,,,,,,,,,,,,,,,,,,,,,,,,,,,,,,,,,,,,,,,,,,,,
,,,,,,,,,,stimuli/images/PICTURE_504.png,HOUSE,59e91d78d4ab970001389c67,14/09/1954,2020-09-03_22h39.19.331,proactive2,2020.1.2,Win32,60,5f5126bb654d4b30ee6923d8,5f51606d7d1a393a11a09c0f,2,,,,,,wheel,,,,,,0,30,30,36,1,4,2,,,,,,,,,,,,,,,,,,,,,,,,,,,,,,,,,,,,,,,,,,,,,,,,,,,,,,,,,,,,,,,,,,,,,,,,,,,,,,,,,,,,,,,,,,,,,,,,,,,
,,,,,,,,,,stimuli/images/PICTURE_654.png,COPS,59e91d78d4ab970001389c67,14/09/1954,2020-09-03_22h39.19.331,proactive2,2020.1.2,Win32,60,5f5126bb654d4b30ee6923d8,5f51606d7d1a393a11a09c0f,2,,,,,,pencil,,,,,,0,31,31,10,1,2,2,,,,,,,,,,,,,,,,,,,,,,,,,,,,,,,,,,,,,,,,,,,,,,,,,,,,,,,,,,,,,,,,,,,,,,,,,,,,,,,,,,,,,,,,,,,,,,,,,,,
,,,,,,,,,,stimuli/images/PICTURE_285.png,WRITER,59e91d78d4ab970001389c67,14/09/1954,2020-09-03_22h39.19.331,proactive2,2020.1.2,Win32,60,5f5126bb654d4b30ee6923d8,5f51606d7d1a393a11a09c0f,2,,,,,,carrot,,,,,,0,32,32,6,1,1,2,,,,,,,,,,,,,,,,,,,,,,,,,,,,,,,,,,,,,,,,,,,,,,,,,,,,,,,,,,,,,,,,,,,,,,,,,,,,,,,,,,,,,,,,,,,,,,,,,,,
,,,,,,,,,,stimuli/images/PICTURE_487.png,ROOF,59e91d78d4ab970001389c67,14/09/1954,2020-09-03_22h39.19.331,proactive2,2020.1.2,Win32,60,5f5126bb654d4b30ee6923d8,5f51606d7d1a393a11a09c0f,2,,,,,,basket,,,,,,0,33,33,50,1,6,2,,,,,,,,,,,,,,,,,,,,,,,,,,,,,,,,,,,,,,,,,,,,,,,,,,,,,,,,,,,,,,,,,,,,,,,,,,,,,,,,,,,,,,,,,,,,,,,,,,,
,,,,,,,,,,stimuli/images/PICTURE_677.png,FAMILY,59e91d78d4ab970001389c67,14/09/1954,2020-09-03_22h39.19.331,proactive2,2020.1.2,Win32,60,5f5126bb654d4b30ee6923d8,5f51606d7d1a393a11a09c0f,2,,,,,,map,,,,,,0,34,34,53,1,6,2,,,,,,,,,,,,,,,,,,,,,,,,,,,,,,,,,,,,,,,,,,,,,,,,,,,,,,,,,,,,,,,,,,,,,,,,,,,,,,,,,,,,,,,,,,,,,,,,,,,
,,,,,,,,,,stimuli/images/PICTURE_348.png,DUDE,59e91d78d4ab970001389c67,14/09/1954,2020-09-03_22h39.19.331,proactive2,2020.1.2,Win32,60,5f5126bb654d4b30ee6923d8,5f51606d7d1a393a11a09c0f,2,,,,,,pepper,,,,,,0,35,35,59,1,6,2,,,,,,,,,,,,,,,,,,,,,,,,,,,,,,,,,,,,,,,,,,,,,,,,,,,,,,,,,,,,,,,,,,,,,,,,,,,,,,,,,,,,,,,,,,,,,,,,,,,
,,,,,,,,,,stimuli/images/PICTURE_141.png,CLIENT,59e91d78d4ab970001389c67,14/09/1954,2020-09-03_22h39.19.331,proactive2,2020.1.2,Win32,60,5f5126bb654d4b30ee6923d8,5f51606d7d1a393a11a09c0f,2,,,,,,sunflower,,,,,,0,36,36,30,1,4,2,,,,,,,,,,,,,,,,,,,,,,,,,,,,,,,,,,,,,,,,,,,,,,,,,,,,,,,,,,,,,,,,,,,,,,,,,,,,,,,,,,,,,,,,,,,,,,,,,,,
,,,,,,,,,,stimuli/images/PICTURE_692.png,DUDE,59e91d78d4ab970001389c67,14/09/1954,2020-09-03_22h39.19.331,proactive2,2020.1.2,Win32,60,5f5126bb654d4b30ee6923d8,5f51606d7d1a393a11a09c0f,2,,,,,,cherry,,,,,,0,37,37,47,1,5,2,,,,,,,,,,,,,,,,,,,,,,,,,,,,,,,,,,,,,,,,,,,,,,,,,,,,,,,,,,,,,,,,,,,,,,,,,,,,,,,,,,,,,,,,,,,,,,,,,,,
,,,,,,,,,,stimuli/images/PICTURE_311.png,FLESH,59e91d78d4ab970001389c67,14/09/1954,2020-09-03_22h39.19.331,proactive2,2020.1.2,Win32,60,5f5126bb654d4b30ee6923d8,5f51606d7d1a393a11a09c0f,2,,,,,,razor,,,,,,0,38,38,3,1,1,2,,,,,,,,,,,,,,,,,,,,,,,,,,,,,,,,,,,,,,,,,,,,,,,,,,,,,,,,,,,,,,,,,,,,,,,,,,,,,,,,,,,,,,,,,,,,,,,,,,,
,,,,,,,,,,stimuli/images/PICTURE_160.png,HOTEL,59e91d78d4ab970001389c67,14/09/1954,2020-09-03_22h39.19.331,proactive2,2020.1.2,Win32,60,5f5126bb654d4b30ee6923d8,5f51606d7d1a393a11a09c0f,2,,,,,,wheelbarrow,,,,,,0,39,39,16,1,2,2,,,,,,,,,,,,,,,,,,,,,,,,,,,,,,,,,,,,,,,,,,,,,,,,,,,,,,,,,,,,,,,,,,,,,,,,,,,,,,,,,,,,,,,,,,,,,,,,,,,
,,,,,,,,,,stimuli/images/PICTURE_147.png,LEADER,59e91d78d4ab970001389c67,14/09/1954,2020-09-03_22h39.19.331,proactive2,2020.1.2,Win32,60,5f5126bb654d4b30ee6923d8,5f51606d7d1a393a11a09c0f,2,,,,,,hanger,,,,,,0,40,40,33,1,4,2,,,,,,,,,,,,,,,,,,,,,,,,,,,,,,,,,,,,,,,,,,,,,,,,,,,,,,,,,,,,,,,,,,,,,,,,,,,,,,,,,,,,,,,,,,,,,,,,,,,
,,,,,,,,,,stimuli/images/PICTURE_32.png,LETTER,59e91d78d4ab970001389c67,14/09/1954,2020-09-03_22h39.19.331,proactive2,2020.1.2,Win32,60,5f5126bb654d4b30ee6923d8,5f51606d7d1a393a11a09c0f,2,,,,,,crown,,,,,,0,41,41,56,1,6,2,,,,,,,,,,,,,,,,,,,,,,,,,,,,,,,,,,,,,,,,,,,,,,,,,,,,,,,,,,,,,,,,,,,,,,,,,,,,,,,,,,,,,,,,,,,,,,,,,,,
,,,,,,,,,,stimuli/images/PICTURE_348.png,TOILET,59e91d78d4ab970001389c67,14/09/1954,2020-09-03_22h39.19.331,proactive2,2020.1.2,Win32,60,5f5126bb654d4b30ee6923d8,5f51606d7d1a393a11a09c0f,2,,,,,,pepper,,,,,,0,42,42,4,1,1,2,,,,,,,,,,,,,,,,,,,,,,,,,,,,,,,,,,,,,,,,,,,,,,,,,,,,,,,,,,,,,,,,,,,,,,,,,,,,,,,,,,,,,,,,,,,,,,,,,,,
,,,,,,,,,,stimuli/images/PICTURE_509.png,SHOTS,59e91d78d4ab970001389c67,14/09/1954,2020-09-03_22h39.19.331,proactive2,2020.1.2,Win32,60,5f5126bb654d4b30ee6923d8,5f51606d7d1a393a11a09c0f,2,,,,,,telephone,,,,,,0,43,43,7,1,1,2,,,,,,,,,,,,,,,,,,,,,,,,,,,,,,,,,,,,,,,,,,,,,,,,,,,,,,,,,,,,,,,,,,,,,,,,,,,,,,,,,,,,,,,,,,,,,,,,,,,
,,,,,,,,,,stimuli/images/PICTURE_123.png,SALE,59e91d78d4ab970001389c67,14/09/1954,2020-09-03_22h39.19.331,proactive2,2020.1.2,Win32,60,5f5126bb654d4b30ee6923d8,5f51606d7d1a393a11a09c0f,2,,,,,,dart,,,,,,0,44,44,8,1,1,2,,,,,,,,,,,,,,,,,,,,,,,,,,,,,,,,,,,,,,,,,,,,,,,,,,,,,,,,,,,,,,,,,,,,,,,,,,,,,,,,,,,,,,,,,,,,,,,,,,,
,,,,,,,,,,stimuli/images/PICTURE_215.png,BOYS,59e91d78d4ab970001389c67,14/09/1954,2020-09-03_22h39.19.331,proactive2,2020.1.2,Win32,60,5f5126bb654d4b30ee6923d8,5f51606d7d1a393a11a09c0f,2,,,,,,boot,,,,,,0,45,45,24,1,3,2,,,,,,,,,,,,,,,,,,,,,,,,,,,,,,,,,,,,,,,,,,,,,,,,,,,,,,,,,,,,,,,,,,,,,,,,,,,,,,,,,,,,,,,,,,,,,,,,,,,
,,,,,,,,,,stimuli/images/PICTURE_487.png,POLICY,59e91d78d4ab970001389c67,14/09/1954,2020-09-03_22h39.19.331,proactive2,2020.1.2,Win32,60,5f5126bb654d4b30ee6923d8,5f51606d7d1a393a11a09c0f,2,,,,,,basket,,,,,,0,46,46,34,1,4,2,,,,,,,,,,,,,,,,,,,,,,,,,,,,,,,,,,,,,,,,,,,,,,,,,,,,,,,,,,,,,,,,,,,,,,,,,,,,,,,,,,,,,,,,,,,,,,,,,,,
,,,,,,,,,,stimuli/images/PICTURE_311.png,TOILET,59e91d78d4ab970001389c67,14/09/1954,2020-09-03_22h39.19.331,proactive2,2020.1.2,Win32,60,5f5126bb654d4b30ee6923d8,5f51606d7d1a393a11a09c0f,2,,,,,,razor,,,,,,0,47,47,54,1,6,2,,,,,,,,,,,,,,,,,,,,,,,,,,,,,,,,,,,,,,,,,,,,,,,,,,,,,,,,,,,,,,,,,,,,,,,,,,,,,,,,,,,,,,,,,,,,,,,,,,,
,,,,,,,,,,stimuli/images/PICTURE_667.png,GLASS,59e91d78d4ab970001389c67,14/09/1954,2020-09-03_22h39.19.331,proactive2,2020.1.2,Win32,60,5f5126bb654d4b30ee6923d8,5f51606d7d1a393a11a09c0f,2,,,,,,daisy,,,,,,0,48,48,27,1,3,2,,,,,,,,,,,,,,,,,,,,,,,,,,,,,,,,,,,,,,,,,,,,,,,,,,,,,,,,,,,,,,,,,,,,,,,,,,,,,,,,,,,,,,,,,,,,,,,,,,,
,,,,,,,,,,stimuli/images/PICTURE_509.png,APPLE,59e91d78d4ab970001389c67,14/09/1954,2020-09-03_22h39.19.331,proactive2,2020.1.2,Win32,60,5f5126bb654d4b30ee6923d8,5f51606d7d1a393a11a09c0f,2,,,,,,telephone,,,,,,0,49,49,38,1,4,2,,,,,,,,,,,,,,,,,,,,,,,,,,,,,,,,,,,,,,,,,,,,,,,,,,,,,,,,,,,,,,,,,,,,,,,,,,,,,,,,,,,,,,,,,,,,,,,,,,,
,,,,,,,,,,stimuli/images/PICTURE_452.png,COPS,59e91d78d4ab970001389c67,14/09/1954,2020-09-03_22h39.19.331,proactive2,2020.1.2,Win32,60,5f5126bb654d4b30ee6923d8,5f51606d7d1a393a11a09c0f,2,,,,,,watch,,,,,,0,50,50,0,1,1,2,,,,,,,,,,,,,,,,,,,,,,,,,,,,,,,,,,,,,,,,,,,,,,,,,,,,,,,,,,,,,,,,,,,,,,,,,,,,,,,,,,,,,,,,,,,,,,,,,,,
,,,,,,,,,,stimuli/images/PICTURE_57.png,NATION,59e91d78d4ab970001389c67,14/09/1954,2020-09-03_22h39.19.331,proactive2,2020.1.2,Win32,60,5f5126bb654d4b30ee6923d8,5f51606d7d1a393a11a09c0f,2,,,,,,stamp,,,,,,0,51,51,21,1,3,2,,,,,,,,,,,,,,,,,,,,,,,,,,,,,,,,,,,,,,,,,,,,,,,,,,,,,,,,,,,,,,,,,,,,,,,,,,,,,,,,,,,,,,,,,,,,,,,,,,,
,,,,,,,,,,stimuli/images/PICTURE_177.png,HOUSE,59e91d78d4ab970001389c67,14/09/1954,2020-09-03_22h39.19.331,proactive2,2020.1.2,Win32,60,5f5126bb654d4b30ee6923d8,5f51606d7d1a393a11a09c0f,2,,,,,,mushroom,,,,,,0,52,52,25,1,3,2,,,,,,,,,,,,,,,,,,,,,,,,,,,,,,,,,,,,,,,,,,,,,,,,,,,,,,,,,,,,,,,,,,,,,,,,,,,,,,,,,,,,,,,,,,,,,,,,,,,
,,,,,,,,,,stimuli/images/PICTURE_2.png,YARD,59e91d78d4ab970001389c67,14/09/1954,2020-09-03_22h39.19.331,proactive2,2020.1.2,Win32,60,5f5126bb654d4b30ee6923d8,5f51606d7d1a393a11a09c0f,2,,,,,,tyre,,,,,,0,53,53,55,1,6,2,,,,,,,,,,,,,,,,,,,,,,,,,,,,,,,,,,,,,,,,,,,,,,,,,,,,,,,,,,,,,,,,,,,,,,,,,,,,,,,,,,,,,,,,,,,,,,,,,,,
,,,,,,,,,,stimuli/images/PICTURE_57.png,CASINO,59e91d78d4ab970001389c67,14/09/1954,2020-09-03_22h39.19.331,proactive2,2020.1.2,Win32,60,5f5126bb654d4b30ee6923d8,5f51606d7d1a393a11a09c0f,2,,,,,,stamp,,,,,,0,54,54,12,1,2,2,,,,,,,,,,,,,,,,,,,,,,,,,,,,,,,,,,,,,,,,,,,,,,,,,,,,,,,,,,,,,,,,,,,,,,,,,,,,,,,,,,,,,,,,,,,,,,,,,,,
,,,,,,,,,,stimuli/images/PICTURE_296.png,CLOCK,59e91d78d4ab970001389c67,14/09/1954,2020-09-03_22h39.19.331,proactive2,2020.1.2,Win32,60,5f5126bb654d4b30ee6923d8,5f51606d7d1a393a11a09c0f,2,,,,,,bolt,,,,,,0,55,55,18,1,2,2,,,,,,,,,,,,,,,,,,,,,,,,,,,,,,,,,,,,,,,,,,,,,,,,,,,,,,,,,,,,,,,,,,,,,,,,,,,,,,,,,,,,,,,,,,,,,,,,,,,
,,,,,,,,,,stimuli/images/PICTURE_453.png,FAMILY,59e91d78d4ab970001389c67,14/09/1954,2020-09-03_22h39.19.331,proactive2,2020.1.2,Win32,60,5f5126bb654d4b30ee6923d8,5f51606d7d1a393a11a09c0f,2,,,,,,scissors,,,,,,0,56,56,48,1,5,2,,,,,,,,,,,,,,,,,,,,,,,,,,,,,,,,,,,,,,,,,,,,,,,,,,,,,,,,,,,,,,,,,,,,,,,,,,,,,,,,,,,,,,,,,,,,,,,,,,,
,,,,,,,,,,stimuli/images/PICTURE_509.png,MILLER,59e91d78d4ab970001389c67,14/09/1954,2020-09-03_22h39.19.331,proactive2,2020.1.2,Win32,60,5f5126bb654d4b30ee6923d8,5f51606d7d1a393a11a09c0f,2,,,,,,telephone,,,,,,0,57,57,49,1,5,2,,,,,,,,,,,,,,,,,,,,,,,,,,,,,,,,,,,,,,,,,,,,,,,,,,,,,,,,,,,,,,,,,,,,,,,,,,,,,,,,,,,,,,,,,,,,,,,,,,,
,,,,,,,,,,stimuli/images/PICTURE_18.png,RIVER,59e91d78d4ab970001389c67,14/09/1954,2020-09-03_22h39.19.331,proactive2,2020.1.2,Win32,60,5f5126bb654d4b30ee6923d8,5f51606d7d1a393a11a09c0f,2,,,,,,planet,,,,,,0,58,58,22,1,3,2,,,,,,,,,,,,,,,,,,,,,,,,,,,,,,,,,,,,,,,,,,,,,,,,,,,,,,,,,,,,,,,,,,,,,,,,,,,,,,,,,,,,,,,,,,,,,,,,,,,
,,?,0.00178,0,,,,,,stimuli/images/PICTURE_57.png,NATION,59e91d78d4ab970001389c67,14/09/1954,2020-09-03_22h39.19.331,proactive2,2020.1.2,Win32,60,5f5126bb654d4b30ee6923d8,5f51606d7d1a393a11a09c0f,2,,,,,,stamp,,,,,,,,,,,3,2,0,0,0,21,1,,,,,,,,,,,,,,,,,,,,,,,,,,,,,,,,,,,,,,,,,,,,,,,,,,,,,,,,,,,,,,,,,,,,,,,,,,,,,,,,,,,,,,,,,,,,,,
,,?,0.001915,0,,,,,,stimuli/images/PICTURE_667.png,GLASS,59e91d78d4ab970001389c67,14/09/1954,2020-09-03_22h39.19.331,proactive2,2020.1.2,Win32,60,5f5126bb654d4b30ee6923d8,5f51606d7d1a393a11a09c0f,2,,,,,,daisy,,,,,,,,,,,3,2,0,1,1,27,1,,,,,,,,,,,,,,,,,,,,,,,,,,,,,,,,,,,,,,,,,,,,,,,,,,,,,,,,,,,,,,,,,,,,,,,,,,,,,,,,,,,,,,,,,,,,,,
,,?,0.001485,0,,,,,,stimuli/images/PICTURE_32.png,LETTER,59e91d78d4ab970001389c67,14/09/1954,2020-09-03_22h39.19.331,proactive2,2020.1.2,Win32,60,5f5126bb654d4b30ee6923d8,5f51606d7d1a393a11a09c0f,2,,,,,,crown,,,,,,,,,,,6,2,0,2,2,56,1,,,,,,,,,,,,,,,,,,,,,,,,,,,,,,,,,,,,,,,,,,,,,,,,,,,,,,,,,,,,,,,,,,,,,,,,,,,,,,,,,,,,,,,,,,,,,,
,,?,0.00099,0,,,,,,stimuli/images/PICTURE_314.png,SPEECH,59e91d78d4ab970001389c67,14/09/1954,2020-09-03_22h39.19.331,proactive2,2020.1.2,Win32,60,5f5126bb654d4b30ee6923d8,5f51606d7d1a393a11a09c0f,2,,,,,,perfume,,,,,,,,,,,4,2,0,3,3,35,1,,,,,,,,,,,,,,,,,,,,,,,,,,,,,,,,,,,,,,,,,,,,,,,,,,,,,,,,,,,,,,,,,,,,,,,,,,,,,,,,,,,,,,,,,,,,,,
,,?,0.000645,0,,,,,,stimuli/images/PICTURE_708.png,VALLEY,59e91d78d4ab970001389c67,14/09/1954,2020-09-03_22h39.19.331,proactive2,2020.1.2,Win32,60,5f5126bb654d4b30ee6923d8,5f51606d7d1a393a11a09c0f,2,,,,,,monkey,,,,,,,,,,,5,2,0,4,4,45,1,,,,,,,,,,,,,,,,,,,,,,,,,,,,,,,,,,,,,,,,,,,,,,,,,,,,,,,,,,,,,,,,,,,,,,,,,,,,,,,,,,,,,,,,,,,,,,
,,SCHOOL,3.998205,0,,,,,,stimuli/images/PICTURE_160.png,HOTEL,59e91d78d4ab970001389c67,14/09/1954,2020-09-03_22h39.19.331,proactive2,2020.1.2,Win32,60,5f5126bb654d4b30ee6923d8,5f51606d7d1a393a11a09c0f,2,,,,,,wheelbarrow,,,,,,,,,,,2,2,0,5,5,16,1,,,,,,,,,,,,,,,,,,,,,,,,,,,,,,,,,,,,,,,,,,,,,,,,,,,,,,,,,,,,,,,,,,,,,,,,,,,,,,,,,,,,,,,,,,,,,,
,,?,0.003125,0,,,,,,stimuli/images/PICTURE_123.png,SALE,59e91d78d4ab970001389c67,14/09/1954,2020-09-03_22h39.19.331,proactive2,2020.1.2,Win32,60,5f5126bb654d4b30ee6923d8,5f51606d7d1a393a11a09c0f,2,,,,,,dart,,,,,,,,,,,1,2,0,6,6,8,1,,,,,,,,,,,,,,,,,,,,,,,,,,,,,,,,,,,,,,,,,,,,,,,,,,,,,,,,,,,,,,,,,,,,,,,,,,,,,,,,,,,,,,,,,,,,,,
,,?,0.001535,0,,,,,,stimuli/images/PICTURE_452.png,COPS,59e91d78d4ab970001389c67,14/09/1954,2020-09-03_22h39.19.331,proactive2,2020.1.2,Win32,60,5f5126bb654d4b30ee6923d8,5f51606d7d1a393a11a09c0f,2,,,,,,watch,,,,,,,,,,,1,2,0,7,7,0,1,,,,,,,,,,,,,,,,,,,,,,,,,,,,,,,,,,,,,,,,,,,,,,,,,,,,,,,,,,,,,,,,,,,,,,,,,,,,,,,,,,,,,,,,,,,,,,
,,?,0.001475,0,,,,,,stimuli/images/PICTURE_348.png,DUDE,59e91d78d4ab970001389c67,14/09/1954,2020-09-03_22h39.19.331,proactive2,2020.1.2,Win32,60,5f5126bb654d4b30ee6923d8,5f51606d7d1a393a11a09c0f,2,,,,,,pepper,,,,,,,,,,,6,2,0,8,8,59,1,,,,,,,,,,,,,,,,,,,,,,,,,,,,,,,,,,,,,,,,,,,,,,,,,,,,,,,,,,,,,,,,,,,,,,,,,,,,,,,,,,,,,,,,,,,,,,
,,?,0.00268,0,,,,,,stimuli/images/PICTURE_677.png,FAMILY,59e91d78d4ab970001389c67,14/09/1954,2020-09-03_22h39.19.331,proactive2,2020.1.2,Win32,60,5f5126bb654d4b30ee6923d8,5f51606d7d1a393a11a09c0f,2,,,,,,map,,,,,,,,,,,6,2,0,9,9,53,1,,,,,,,,,,,,,,,,,,,,,,,,,,,,,,,,,,,,,,,,,,,,,,,,,,,,,,,,,,,,,,,,,,,,,,,,,,,,,,,,,,,,,,,,,,,,,,
,,?,0.00189,0,,,,,,stimuli/images/PICTURE_509.png,APPLE,59e91d78d4ab970001389c67,14/09/1954,2020-09-03_22h39.19.331,proactive2,2020.1.2,Win32,60,5f5126bb654d4b30ee6923d8,5f51606d7d1a393a11a09c0f,2,,,,,,telephone,,,,,,,,,,,4,2,0,10,10,38,1,,,,,,,,,,,,,,,,,,,,,,,,,,,,,,,,,,,,,,,,,,,,,,,,,,,,,,,,,,,,,,,,,,,,,,,,,,,,,,,,,,,,,,,,,,,,,,
,,?,0.001485,0,,,,,,stimuli/images/PICTURE_33.png,COPS,59e91d78d4ab970001389c67,14/09/1954,2020-09-03_22h39.19.331,proactive2,2020.1.2,Win32,60,5f5126bb654d4b30ee6923d8,5f51606d7d1a393a11a09c0f,2,,,,,,frame,,,,,,,,,,,3,2,0,11,11,29,1,,,,,,,,,,,,,,,,,,,,,,,,,,,,,,,,,,,,,,,,,,,,,,,,,,,,,,,,,,,,,,,,,,,,,,,,,,,,,,,,,,,,,,,,,,,,,,
,,?,0.00147,0,,,,,,stimuli/images/PICTURE_215.png,FOOD,59e91d78d4ab970001389c67,14/09/1954,2020-09-03_22h39.19.331,proactive2,2020.1.2,Win32,60,5f5126bb654d4b30ee6923d8,5f51606d7d1a393a11a09c0f,2,,,,,,boot,,,,,,,,,,,1,2,0,12,12,5,1,,,,,,,,,,,,,,,,,,,,,,,,,,,,,,,,,,,,,,,,,,,,,,,,,,,,,,,,,,,,,,,,,,,,,,,,,,,,,,,,,,,,,,,,,,,,,,
,,?,0.001895,0,,,,,,stimuli/images/PICTURE_405.png,HOUSE,59e91d78d4ab970001389c67,14/09/1954,2020-09-03_22h39.19.331,proactive2,2020.1.2,Win32,60,5f5126bb654d4b30ee6923d8,5f51606d7d1a393a11a09c0f,2,,,,,,anchor,,,,,,,,,,,1,2,0,13,13,2,1,,,,,,,,,,,,,,,,,,,,,,,,,,,,,,,,,,,,,,,,,,,,,,,,,,,,,,,,,,,,,,,,,,,,,,,,,,,,,,,,,,,,,,,,,,,,,,
,,?,0.0015,0,,,,,,stimuli/images/PICTURE_95.png,NIGHT,59e91d78d4ab970001389c67,14/09/1954,2020-09-03_22h39.19.331,proactive2,2020.1.2,Win32,60,5f5126bb654d4b30ee6923d8,5f51606d7d1a393a11a09c0f,2,,,,,,suitcase,,,,,,,,,,,4,2,0,14,14,37,1,,,,,,,,,,,,,,,,,,,,,,,,,,,,,,,,,,,,,,,,,,,,,,,,,,,,,,,,,,,,,,,,,,,,,,,,,,,,,,,,,,,,,,,,,,,,,,
,,?,0.00132,0,,,,,,stimuli/images/PICTURE_750.png,POLICY,59e91d78d4ab970001389c67,14/09/1954,2020-09-03_22h39.19.331,proactive2,2020.1.2,Win32,60,5f5126bb654d4b30ee6923d8,5f51606d7d1a393a11a09c0f,2,,,,,,kettle,,,,,,,,,,,5,2,0,15,15,44,1,,,,,,,,,,,,,,,,,,,,,,,,,,,,,,,,,,,,,,,,,,,,,,,,,,,,,,,,,,,,,,,,,,,,,,,,,,,,,,,,,,,,,,,,,,,,,,
,,?,0.001935,0,,,,,,stimuli/images/PICTURE_509.png,SHOTS,59e91d78d4ab970001389c67,14/09/1954,2020-09-03_22h39.19.331,proactive2,2020.1.2,Win32,60,5f5126bb654d4b30ee6923d8,5f51606d7d1a393a11a09c0f,2,,,,,,telephone,,,,,,,,,,,1,2,0,16,16,7,1,,,,,,,,,,,,,,,,,,,,,,,,,,,,,,,,,,,,,,,,,,,,,,,,,,,,,,,,,,,,,,,,,,,,,,,,,,,,,,,,,,,,,,,,,,,,,,
,,?,0.00064,0,,,,,,stimuli/images/PICTURE_2.png,YARD,59e91d78d4ab970001389c67,14/09/1954,2020-09-03_22h39.19.331,proactive2,2020.1.2,Win32,60,5f5126bb654d4b30ee6923d8,5f51606d7d1a393a11a09c0f,2,,,,,,tyre,,,,,,,,,,,6,2,0,17,17,55,1,,,,,,,,,,,,,,,,,,,,,,,,,,,,,,,,,,,,,,,,,,,,,,,,,,,,,,,,,,,,,,,,,,,,,,,,,,,,,,,,,,,,,,,,,,,,,,
,,?,0.00059,0,,,,,,stimuli/images/PICTURE_147.png,LEADER,59e91d78d4ab970001389c67,14/09/1954,2020-09-03_22h39.19.331,proactive2,2020.1.2,Win32,60,5f5126bb654d4b30ee6923d8,5f51606d7d1a393a11a09c0f,2,,,,,,hanger,,,,,,,,,,,4,2,0,18,18,33,1,,,,,,,,,,,,,,,,,,,,,,,,,,,,,,,,,,,,,,,,,,,,,,,,,,,,,,,,,,,,,,,,,,,,,,,,,,,,,,,,,,,,,,,,,,,,,,
,,?,0.00063,0,,,,,,stimuli/images/PICTURE_470.png,BEAUTY,59e91d78d4ab970001389c67,14/09/1954,2020-09-03_22h39.19.331,proactive2,2020.1.2,Win32,60,5f5126bb654d4b30ee6923d8,5f51606d7d1a393a11a09c0f,2,,,,,,motorbike,,,,,,,,,,,3,2,0,19,19,26,1,,,,,,,,,,,,,,,,,,,,,,,,,,,,,,,,,,,,,,,,,,,,,,,,,,,,,,,,,,,,,,,,,,,,,,,,,,,,,,,,,,,,,,,,,,,,,,
,,?,0.00058,0,,,,,,stimuli/images/PICTURE_215.png,LEADER,59e91d78d4ab970001389c67,14/09/1954,2020-09-03_22h39.19.331,proactive2,2020.1.2,Win32,60,5f5126bb654d4b30ee6923d8,5f51606d7d1a393a11a09c0f,2,,,,,,boot,,,,,,,,,,,5,2,0,20,20,43,1,,,,,,,,,,,,,,,,,,,,,,,,,,,,,,,,,,,,,,,,,,,,,,,,,,,,,,,,,,,,,,,,,,,,,,,,,,,,,,,,,,,,,,,,,,,,,,
,,?,0.00058,0,,,,,,stimuli/images/PICTURE_215.png,BOYS,59e91d78d4ab970001389c67,14/09/1954,2020-09-03_22h39.19.331,proactive2,2020.1.2,Win32,60,5f5126bb654d4b30ee6923d8,5f51606d7d1a393a11a09c0f,2,,,,,,boot,,,,,,,,,,,3,2,0,21,21,24,1,,,,,,,,,,,,,,,,,,,,,,,,,,,,,,,,,,,,,,,,,,,,,,,,,,,,,,,,,,,,,,,,,,,,,,,,,,,,,,,,,,,,,,,,,,,,,,
,,?,0.000585,0,,,,,,stimuli/images/PICTURE_2.png,AREA,59e91d78d4ab970001389c67,14/09/1954,2020-09-03_22h39.19.331,proactive2,2020.1.2,Win32,60,5f5126bb654d4b30ee6923d8,5f51606d7d1a393a11a09c0f,2,,,,,,tyre,,,,,,,,,,,4,2,0,22,22,32,1,,,,,,,,,,,,,,,,,,,,,,,,,,,,,,,,,,,,,,,,,,,,,,,,,,,,,,,,,,,,,,,,,,,,,,,,,,,,,,,,,,,,,,,,,,,,,,
,,?,0.00056,0,,,,,,stimuli/images/PICTURE_487.png,POLICY,59e91d78d4ab970001389c67,14/09/1954,2020-09-03_22h39.19.331,proactive2,2020.1.2,Win32,60,5f5126bb654d4b30ee6923d8,5f51606d7d1a393a11a09c0f,2,,,,,,basket,,,,,,,,,,,4,2,0,23,23,34,1,,,,,,,,,,,,,,,,,,,,,,,,,,,,,,,,,,,,,,,,,,,,,,,,,,,,,,,,,,,,,,,,,,,,,,,,,,,,,,,,,,,,,,,,,,,,,,
,,PLENTY,3.903475,0,,,,,,stimuli/images/PICTURE_405.png,JUNGLE,59e91d78d4ab970001389c67,14/09/1954,2020-09-03_22h39.19.331,proactive2,2020.1.2,Win32,60,5f5126bb654d4b30ee6923d8,5f51606d7d1a393a11a09c0f,2,,,,,,anchor,,,,,,,,,,,2,2,0,24,24,13,1,,,,,,,,,,,,,,,,,,,,,,,,,,,,,,,,,,,,,,,,,,,,,,,,,,,,,,,,,,,,,,,,,,,,,,,,,,,,,,,,,,,,,,,,,,,,,,
,,?,0.001775,0,,,,,,stimuli/images/PICTURE_311.png,TOILET,59e91d78d4ab970001389c67,14/09/1954,2020-09-03_22h39.19.331,proactive2,2020.1.2,Win32,60,5f5126bb654d4b30ee6923d8,5f51606d7d1a393a11a09c0f,2,,,,,,razor,,,,,,,,,,,6,2,0,25,25,54,1,,,,,,,,,,,,,,,,,,,,,,,,,,,,,,,,,,,,,,,,,,,,,,,,,,,,,,,,,,,,,,,,,,,,,,,,,,,,,,,,,,,,,,,,,,,,,,
,,?,0.001845,0,,,,,,stimuli/images/PICTURE_692.png,DUDE,59e91d78d4ab970001389c67,14/09/1954,2020-09-03_22h39.19.331,proactive2,2020.1.2,Win32,60,5f5126bb654d4b30ee6923d8,5f51606d7d1a393a11a09c0f,2,,,,,,cherry,,,,,,,,,,,5,2,0,26,26,47,1,,,,,,,,,,,,,,,,,,,,,,,,,,,,,,,,,,,,,,,,,,,,,,,,,,,,,,,,,,,,,,,,,,,,,,,,,,,,,,,,,,,,,,,,,,,,,,
,,CASINO,5.45178,1,,,,,,stimuli/images/PICTURE_57.png,CASINO,59e91d78d4ab970001389c67,14/09/1954,2020-09-03_22h39.19.331,proactive2,2020.1.2,Win32,60,5f5126bb654d4b30ee6923d8,5f51606d7d1a393a11a09c0f,2,,,,,,stamp,,,,,,,,,,,2,2,0,27,27,12,1,,,,,,,,,,,,,,,,,,,,,,,,,,,,,,,,,,,,,,,,,,,,,,,,,,,,,,,,,,,,,,,,,,,,,,,,,,,,,,,,,,,,,,,,,,,,,,
,,PLENTY,3.405205,1,,,,,,stimuli/images/PICTURE_564.png,PLENTY,59e91d78d4ab970001389c67,14/09/1954,2020-09-03_22h39.19.331,proactive2,2020.1.2,Win32,60,5f5126bb654d4b30ee6923d8,5f51606d7d1a393a11a09c0f,2,,,,,,spoon,,,,,,,,,,,2,2,0,28,28,11,1,,,,,,,,,,,,,,,,,,,,,,,,,,,,,,,,,,,,,,,,,,,,,,,,,,,,,,,,,,,,,,,,,,,,,,,,,,,,,,,,,,,,,,,,,,,,,,
,,?,9.56114,0,,,,,,stimuli/images/PICTURE_677.png,PHOTO,59e91d78d4ab970001389c67,14/09/1954,2020-09-03_22h39.19.331,proactive2,2020.1.2,Win32,60,5f5126bb654d4b30ee6923d8,5f51606d7d1a393a11a09c0f,2,,,,,,map,,,,,,,,,,,2,2,0,29,29,14,1,,,,,,,,,,,,,,,,,,,,,,,,,,,,,,,,,,,,,,,,,,,,,,,,,,,,,,,,,,,,,,,,,,,,,,,,,,,,,,,,,,,,,,,,,,,,,,
,,?,0.0018,0,,,,,,stimuli/images/PICTURE_57.png,CANDY,59e91d78d4ab970001389c67,14/09/1954,2020-09-03_22h39.19.331,proactive2,2020.1.2,Win32,60,5f5126bb654d4b30ee6923d8,5f51606d7d1a393a11a09c0f,2,,,,,,stamp,,,,,,,,,,,6,2,0,30,30,52,1,,,,,,,,,,,,,,,,,,,,,,,,,,,,,,,,,,,,,,,,,,,,,,,,,,,,,,,,,,,,,,,,,,,,,,,,,,,,,,,,,,,,,,,,,,,,,,
,,?,0.0023,0,,,,,,stimuli/images/PICTURE_68.png,KIND,59e91d78d4ab970001389c67,14/09/1954,2020-09-03_22h39.19.331,proactive2,2020.1.2,Win32,60,5f5126bb654d4b30ee6923d8,5f51606d7d1a393a11a09c0f,2,,,,,,candle,,,,,,,,,,,3,2,0,31,31,23,1,,,,,,,,,,,,,,,,,,,,,,,,,,,,,,,,,,,,,,,,,,,,,,,,,,,,,,,,,,,,,,,,,,,,,,,,,,,,,,,,,,,,,,,,,,,,,,
,,?,0.000775,0,,,,,,stimuli/images/PICTURE_348.png,TOILET,59e91d78d4ab970001389c67,14/09/1954,2020-09-03_22h39.19.331,proactive2,2020.1.2,Win32,60,5f5126bb654d4b30ee6923d8,5f51606d7d1a393a11a09c0f,2,,,,,,pepper,,,,,,,,,,,1,2,0,32,32,4,1,,,,,,,,,,,,,,,,,,,,,,,,,,,,,,,,,,,,,,,,,,,,,,,,,,,,,,,,,,,,,,,,,,,,,,,,,,,,,,,,,,,,,,,,,,,,,,
,,?,0.000745,0,,,,,,stimuli/images/PICTURE_2.png,JUNGLE,59e91d78d4ab970001389c67,14/09/1954,2020-09-03_22h39.19.331,proactive2,2020.1.2,Win32,60,5f5126bb654d4b30ee6923d8,5f51606d7d1a393a11a09c0f,2,,,,,,tyre,,,,,,,,,,,1,2,0,33,33,1,1,,,,,,,,,,,,,,,,,,,,,,,,,,,,,,,,,,,,,,,,,,,,,,,,,,,,,,,,,,,,,,,,,,,,,,,,,,,,,,,,,,,,,,,,,,,,,,
,,?,0.00071,0,,,,,,stimuli/images/PICTURE_285.png,PRINCE,59e91d78d4ab970001389c67,14/09/1954,2020-09-03_22h39.19.331,proactive2,2020.1.2,Win32,60,5f5126bb654d4b30ee6923d8,5f51606d7d1a393a11a09c0f,2,,,,,,carrot,,,,,,,,,,,3,2,0,34,34,20,1,,,,,,,,,,,,,,,,,,,,,,,,,,,,,,,,,,,,,,,,,,,,,,,,,,,,,,,,,,,,,,,,,,,,,,,,,,,,,,,,,,,,,,,,,,,,,,
,,?,0.00074,0,,,,,,stimuli/images/PICTURE_405.png,JUNGLE,59e91d78d4ab970001389c67,14/09/1954,2020-09-03_22h39.19.331,proactive2,2020.1.2,Win32,60,5f5126bb654d4b30ee6923d8,5f51606d7d1a393a11a09c0f,2,,,,,,anchor,,,,,,,,,,,6,2,0,35,35,58,1,,,,,,,,,,,,,,,,,,,,,,,,,,,,,,,,,,,,,,,,,,,,,,,,,,,,,,,,,,,,,,,,,,,,,,,,,,,,,,,,,,,,,,,,,,,,,,
,,?,0.00081,0,,,,,,stimuli/images/PICTURE_654.png,YEAR,59e91d78d4ab970001389c67,14/09/1954,2020-09-03_22h39.19.331,proactive2,2020.1.2,Win32,60,5f5126bb654d4b30ee6923d8,5f51606d7d1a393a11a09c0f,2,,,,,,pencil,,,,,,,,,,,5,2,0,36,36,41,1,,,,,,,,,,,,,,,,,,,,,,,,,,,,,,,,,,,,,,,,,,,,,,,,,,,,,,,,,,,,,,,,,,,,,,,,,,,,,,,,,,,,,,,,,,,,,,
,,?,0.00092,0,,,,,,stimuli/images/PICTURE_356.png,CANDY,59e91d78d4ab970001389c67,14/09/1954,2020-09-03_22h39.19.331,proactive2,2020.1.2,Win32,60,5f5126bb654d4b30ee6923d8,5f51606d7d1a393a11a09c0f,2,,,,,,pawn,,,,,,,,,,,5,2,0,37,37,46,1,,,,,,,,,,,,,,,,,,,,,,,,,,,,,,,,,,,,,,,,,,,,,,,,,,,,,,,,,,,,,,,,,,,,,,,,,,,,,,,,,,,,,,,,,,,,,,
,,?,0.00074,0,,,,,,stimuli/images/PICTURE_208.png,SPIRIT,59e91d78d4ab970001389c67,14/09/1954,2020-09-03_22h39.19.331,proactive2,2020.1.2,Win32,60,5f5126bb654d4b30ee6923d8,5f51606d7d1a393a11a09c0f,2,,,,,,microphone,,,,,,,,,,,3,2,0,38,38,28,1,,,,,,,,,,,,,,,,,,,,,,,,,,,,,,,,,,,,,,,,,,,,,,,,,,,,,,,,,,,,,,,,,,,,,,,,,,,,,,,,,,,,,,,,,,,,,,
,,?,4.30635,0,,,,,,stimuli/images/PICTURE_509.png,BATH,59e91d78d4ab970001389c67,14/09/1954,2020-09-03_22h39.19.331,proactive2,2020.1.2,Win32,60,5f5126bb654d4b30ee6923d8,5f51606d7d1a393a11a09c0f,2,,,,,,telephone,,,,,,,,,,,2,2,0,39,39,15,1,,,,,,,,,,,,,,,,,,,,,,,,,,,,,,,,,,,,,,,,,,,,,,,,,,,,,,,,,,,,,,,,,,,,,,,,,,,,,,,,,,,,,,,,,,,,,,
,,?,0.002365,0,,,,,,stimuli/images/PICTURE_655.png,SALE,59e91d78d4ab970001389c67,14/09/1954,2020-09-03_22h39.19.331,proactive2,2020.1.2,Win32,60,5f5126bb654d4b30ee6923d8,5f51606d7d1a393a11a09c0f,2,,,,,,megaphone,,,,,,,,,,,6,2,0,40,40,57,1,,,,,,,,,,,,,,,,,,,,,,,,,,,,,,,,,,,,,,,,,,,,,,,,,,,,,,,,,,,,,,,,,,,,,,,,,,,,,,,,,,,,,,,,,,,,,,
,,CLOCK,3.837625,1,,,,,,stimuli/images/PICTURE_296.png,CLOCK,59e91d78d4ab970001389c67,14/09/1954,2020-09-03_22h39.19.331,proactive2,2020.1.2,Win32,60,5f5126bb654d4b30ee6923d8,5f51606d7d1a393a11a09c0f,2,,,,,,bolt,,,,,,,,,,,2,2,0,41,41,18,1,,,,,,,,,,,,,,,,,,,,,,,,,,,,,,,,,,,,,,,,,,,,,,,,,,,,,,,,,,,,,,,,,,,,,,,,,,,,,,,,,,,,,,,,,,,,,,
,,?,0.00425,0,,,,,,stimuli/images/PICTURE_93.png,GIRL,59e91d78d4ab970001389c67,14/09/1954,2020-09-03_22h39.19.331,proactive2,2020.1.2,Win32,60,5f5126bb654d4b30ee6923d8,5f51606d7d1a393a11a09c0f,2,,,,,,skateboard,,,,,,,,,,,4,2,0,42,42,31,1,,,,,,,,,,,,,,,,,,,,,,,,,,,,,,,,,,,,,,,,,,,,,,,,,,,,,,,,,,,,,,,,,,,,,,,,,,,,,,,,,,,,,,,,,,,,,,
,,?,0.001425,0,,,,,,stimuli/images/PICTURE_177.png,HOUSE,59e91d78d4ab970001389c67,14/09/1954,2020-09-03_22h39.19.331,proactive2,2020.1.2,Win32,60,5f5126bb654d4b30ee6923d8,5f51606d7d1a393a11a09c0f,2,,,,,,mushroom,,,,,,,,,,,3,2,0,43,43,25,1,,,,,,,,,,,,,,,,,,,,,,,,,,,,,,,,,,,,,,,,,,,,,,,,,,,,,,,,,,,,,,,,,,,,,,,,,,,,,,,,,,,,,,,,,,,,,,
,,?,0.0013,0,,,,,,stimuli/images/PICTURE_688.png,CLOCK,59e91d78d4ab970001389c67,14/09/1954,2020-09-03_22h39.19.331,proactive2,2020.1.2,Win32,60,5f5126bb654d4b30ee6923d8,5f51606d7d1a393a11a09c0f,2,,,,,,runner,,,,,,,,,,,5,2,0,44,44,42,1,,,,,,,,,,,,,,,,,,,,,,,,,,,,,,,,,,,,,,,,,,,,,,,,,,,,,,,,,,,,,,,,,,,,,,,,,,,,,,,,,,,,,,,,,,,,,,
,,?,0.00228,0,,,,,,stimuli/images/PICTURE_141.png,CLIENT,59e91d78d4ab970001389c67,14/09/1954,2020-09-03_22h39.19.331,proactive2,2020.1.2,Win32,60,5f5126bb654d4b30ee6923d8,5f51606d7d1a393a11a09c0f,2,,,,,,sunflower,,,,,,,,,,,4,2,0,45,45,30,1,,,,,,,,,,,,,,,,,,,,,,,,,,,,,,,,,,,,,,,,,,,,,,,,,,,,,,,,,,,,,,,,,,,,,,,,,,,,,,,,,,,,,,,,,,,,,,
,,?,0.001645,0,,,,,,stimuli/images/PICTURE_311.png,FLESH,59e91d78d4ab970001389c67,14/09/1954,2020-09-03_22h39.19.331,proactive2,2020.1.2,Win32,60,5f5126bb654d4b30ee6923d8,5f51606d7d1a393a11a09c0f,2,,,,,,razor,,,,,,,,,,,1,2,0,46,46,3,1,,,,,,,,,,,,,,,,,,,,,,,,,,,,,,,,,,,,,,,,,,,,,,,,,,,,,,,,,,,,,,,,,,,,,,,,,,,,,,,,,,,,,,,,,,,,,,
,,?,0.00144,0,,,,,,stimuli/images/PICTURE_297.png,BODY,59e91d78d4ab970001389c67,14/09/1954,2020-09-03_22h39.19.331,proactive2,2020.1.2,Win32,60,5f5126bb654d4b30ee6923d8,5f51606d7d1a393a11a09c0f,2,,,,,,aeroplane,,,,,,,,,,,6,2,0,47,47,51,1,,,,,,,,,,,,,,,,,,,,,,,,,,,,,,,,,,,,,,,,,,,,,,,,,,,,,,,,,,,,,,,,,,,,,,,,,,,,,,,,,,,,,,,,,,,,,,
,,COP,2.211765,0,,,,,,stimuli/images/PICTURE_654.png,COPS,59e91d78d4ab970001389c67,14/09/1954,2020-09-03_22h39.19.331,proactive2,2020.1.2,Win32,60,5f5126bb654d4b30ee6923d8,5f51606d7d1a393a11a09c0f,2,,,,,,pencil,,,,,,,,,,,2,2,0,48,48,10,1,,,,,,,,,,,,,,,,,,,,,,,,,,,,,,,,,,,,,,,,,,,,,,,,,,,,,,,,,,,,,,,,,,,,,,,,,,,,,,,,,,,,,,,,,,,,,,
,,?,1.635065,0,,,,,,stimuli/images/PICTURE_255.png,PENNY,59e91d78d4ab970001389c67,14/09/1954,2020-09-03_22h39.19.331,proactive2,2020.1.2,Win32,60,5f5126bb654d4b30ee6923d8,5f51606d7d1a393a11a09c0f,2,,,,,,shovel,,,,,,,,,,,2,2,0,49,49,19,1,,,,,,,,,,,,,,,,,,,,,,,,,,,,,,,,,,,,,,,,,,,,,,,,,,,,,,,,,,,,,,,,,,,,,,,,,,,,,,,,,,,,,,,,,,,,,,
,,?,0.00184,0,,,,,,stimuli/images/PICTURE_285.png,WRITER,59e91d78d4ab970001389c67,14/09/1954,2020-09-03_22h39.19.331,proactive2,2020.1.2,Win32,60,5f5126bb654d4b30ee6923d8,5f51606d7d1a393a11a09c0f,2,,,,,,carrot,,,,,,,,,,,1,2,0,50,50,6,1,,,,,,,,,,,,,,,,,,,,,,,,,,,,,,,,,,,,,,,,,,,,,,,,,,,,,,,,,,,,,,,,,,,,,,,,,,,,,,,,,,,,,,,,,,,,,,
,,?,0.00127,0,,,,,,stimuli/images/PICTURE_470.png,MOMENT,59e91d78d4ab970001389c67,14/09/1954,2020-09-03_22h39.19.331,proactive2,2020.1.2,Win32,60,5f5126bb654d4b30ee6923d8,5f51606d7d1a393a11a09c0f,2,,,,,,motorbike,,,,,,,,,,,5,2,0,51,51,40,1,,,,,,,,,,,,,,,,,,,,,,,,,,,,,,,,,,,,,,,,,,,,,,,,,,,,,,,,,,,,,,,,,,,,,,,,,,,,,,,,,,,,,,,,,,,,,,
,,?,0.001195,0,,,,,,stimuli/images/PICTURE_403.png,FAMILY,59e91d78d4ab970001389c67,14/09/1954,2020-09-03_22h39.19.331,proactive2,2020.1.2,Win32,60,5f5126bb654d4b30ee6923d8,5f51606d7d1a393a11a09c0f,2,,,,,,cathedral,,,,,,,,,,,1,2,0,52,52,9,1,,,,,,,,,,,,,,,,,,,,,,,,,,,,,,,,,,,,,,,,,,,,,,,,,,,,,,,,,,,,,,,,,,,,,,,,,,,,,,,,,,,,,,,,,,,,,,
,,?,0.001155,0,,,,,,stimuli/images/PICTURE_509.png,MILLER,59e91d78d4ab970001389c67,14/09/1954,2020-09-03_22h39.19.331,proactive2,2020.1.2,Win32,60,5f5126bb654d4b30ee6923d8,5f51606d7d1a393a11a09c0f,2,,,,,,telephone,,,,,,,,,,,5,2,0,53,53,49,1,,,,,,,,,,,,,,,,,,,,,,,,,,,,,,,,,,,,,,,,,,,,,,,,,,,,,,,,,,,,,,,,,,,,,,,,,,,,,,,,,,,,,,,,,,,,,,
,,?,0.00189,0,,,,,,stimuli/images/PICTURE_18.png,RIVER,59e91d78d4ab970001389c67,14/09/1954,2020-09-03_22h39.19.331,proactive2,2020.1.2,Win32,60,5f5126bb654d4b30ee6923d8,5f51606d7d1a393a11a09c0f,2,,,,,,planet,,,,,,,,,,,3,2,0,54,54,22,1,,,,,,,,,,,,,,,,,,,,,,,,,,,,,,,,,,,,,,,,,,,,,,,,,,,,,,,,,,,,,,,,,,,,,,,,,,,,,,,,,,,,,,,,,,,,,,
,,?,0.00321,0,,,,,,stimuli/images/PICTURE_487.png,ROOF,59e91d78d4ab970001389c67,14/09/1954,2020-09-03_22h39.19.331,proactive2,2020.1.2,Win32,60,5f5126bb654d4b30ee6923d8,5f51606d7d1a393a11a09c0f,2,,,,,,basket,,,,,,,,,,,6,2,0,55,55,50,1,,,,,,,,,,,,,,,,,,,,,,,,,,,,,,,,,,,,,,,,,,,,,,,,,,,,,,,,,,,,,,,,,,,,,,,,,,,,,,,,,,,,,,,,,,,,,,
,,LEADER,6.826555,1,,,,,,stimuli/images/PICTURE_327.png,LEADER,59e91d78d4ab970001389c67,14/09/1954,2020-09-03_22h39.19.331,proactive2,2020.1.2,Win32,60,5f5126bb654d4b30ee6923d8,5f51606d7d1a393a11a09c0f,2,,,,,,helmet,,,,,,,,,,,2,2,0,56,56,17,1,,,,,,,,,,,,,,,,,,,,,,,,,,,,,,,,,,,,,,,,,,,,,,,,,,,,,,,,,,,,,,,,,,,,,,,,,,,,,,,,,,,,,,,,,,,,,,
,,?,0.00208,0,,,,,,stimuli/images/PICTURE_491.png,SERIES,59e91d78d4ab970001389c67,14/09/1954,2020-09-03_22h39.19.331,proactive2,2020.1.2,Win32,60,5f5126bb654d4b30ee6923d8,5f51606d7d1a393a11a09c0f,2,,,,,,rug,,,,,,,,,,,4,2,0,57,57,39,1,,,,,,,,,,,,,,,,,,,,,,,,,,,,,,,,,,,,,,,,,,,,,,,,,,,,,,,,,,,,,,,,,,,,,,,,,,,,,,,,,,,,,,,,,,,,,,
,,?,0.00229,0,,,,,,stimuli/images/PICTURE_504.png,HOUSE,59e91d78d4ab970001389c67,14/09/1954,2020-09-03_22h39.19.331,proactive2,2020.1.2,Win32,60,5f5126bb654d4b30ee6923d8,5f51606d7d1a393a11a09c0f,2,,,,,,wheel,,,,,,,,,,,4,2,0,58,58,36,1,,,,,,,,,,,,,,,,,,,,,,,,,,,,,,,,,,,,,,,,,,,,,,,,,,,,,,,,,,,,,,,,,,,,,,,,,,,,,,,,,,,,,,,,,,,,,,
,,?,0.00302,0,,,,,,stimuli/images/PICTURE_453.png,FAMILY,59e91d78d4ab970001389c67,14/09/1954,2020-09-03_22h39.19.331,proactive2,2020.1.2,Win32,60,5f5126bb654d4b30ee6923d8,5f51606d7d1a393a11a09c0f,2,,,,,,scissors,,,,,,,,,,,5,2,0,59,59,48,1,,,,,,,,,,,,,,,,,,,,,,,,,,,,,,,,,,,,,,,,,,,,,,,,,,,,,,,,,,,,,,,,,,,,,,,,,,,,,,,,,,,,,,,,,,,,,,
,,,,,,,,,,,,59e91d78d4ab970001389c67,14/09/1954,2020-09-03_22h39.19.331,proactive2,2020.1.2,Win32,60,5f5126bb654d4b30ee6923d8,5f51606d7d1a393a11a09c0f,2,,,,,,,,,,,,,,,,,,,,,,,,0,0,0,2,1,stimuli/learn-block3.csv,,,,,,,,,,,,,,,,,,,,,,,,,,,,,,,,,,,,,,,,,,,,,,,,,,,,,,,,,,,,,,,,,,,,,,,,,,,,,,,,,,,,,,,,
,,,,,,,,,,stimuli/images/PICTURE_383.png,WRITER,59e91d78d4ab970001389c67,14/09/1954,2020-09-03_22h39.19.331,proactive2,2020.1.2,Win32,60,5f5126bb654d4b30ee6923d8,5f51606d7d1a393a11a09c0f,2,,,,,,coin,,,,,,0,0,0,28,1,3,1,,,,,,,,,,,,,,,,,,,,,,,,,,,,,,,,,,,,,,,,,,,,,,,,,,,,,,,,,,,,,,,,,,,,,,,,,,,,,,,,,,,,,,,,,,,,,,,,,,,
,,,,,,,,,,stimuli/images/PICTURE_203.png,NIGHT,59e91d78d4ab970001389c67,14/09/1954,2020-09-03_22h39.19.331,proactive2,2020.1.2,Win32,60,5f5126bb654d4b30ee6923d8,5f51606d7d1a393a11a09c0f,2,,,,,,cap,,,,,,0,1,1,2,1,1,1,,,,,,,,,,,,,,,,,,,,,,,,,,,,,,,,,,,,,,,,,,,,,,,,,,,,,,,,,,,,,,,,,,,,,,,,,,,,,,,,,,,,,,,,,,,,,,,,,,,
,,,,,,,,,,stimuli/images/PICTURE_85.png,TOILET,59e91d78d4ab970001389c67,14/09/1954,2020-09-03_22h39.19.331,proactive2,2020.1.2,Win32,60,5f5126bb654d4b30ee6923d8,5f51606d7d1a393a11a09c0f,2,,,,,,diamond,,,,,,0,2,2,48,1,5,1,,,,,,,,,,,,,,,,,,,,,,,,,,,,,,,,,,,,,,,,,,,,,,,,,,,,,,,,,,,,,,,,,,,,,,,,,,,,,,,,,,,,,,,,,,,,,,,,,,,
,,,,,,,,,,stimuli/images/PICTURE_383.png,SERIES,59e91d78d4ab970001389c67,14/09/1954,2020-09-03_22h39.19.331,proactive2,2020.1.2,Win32,60,5f5126bb654d4b30ee6923d8,5f51606d7d1a393a11a09c0f,2,,,,,,coin,,,,,,0,3,3,46,1,5,1,,,,,,,,,,,,,,,,,,,,,,,,,,,,,,,,,,,,,,,,,,,,,,,,,,,,,,,,,,,,,,,,,,,,,,,,,,,,,,,,,,,,,,,,,,,,,,,,,,,
,,,,,,,,,,stimuli/images/PICTURE_491.png,GLASS,59e91d78d4ab970001389c67,14/09/1954,2020-09-03_22h39.19.331,proactive2,2020.1.2,Win32,60,5f5126bb654d4b30ee6923d8,5f51606d7d1a393a11a09c0f,2,,,,,,rug,,,,,,0,4,4,14,1,2,1,,,,,,,,,,,,,,,,,,,,,,,,,,,,,,,,,,,,,,,,,,,,,,,,,,,,,,,,,,,,,,,,,,,,,,,,,,,,,,,,,,,,,,,,,,,,,,,,,,,
,,,,,,,,,,stimuli/images/PICTURE_708.png,RECORD,59e91d78d4ab970001389c67,14/09/1954,2020-09-03_22h39.19.331,proactive2,2020.1.2,Win32,60,5f5126bb654d4b30ee6923d8,5f51606d7d1a393a11a09c0f,2,,,,,,monkey,,,,,,0,5,5,58,1,6,1,,,,,,,,,,,,,,,,,,,,,,,,,,,,,,,,,,,,,,,,,,,,,,,,,,,,,,,,,,,,,,,,,,,,,,,,,,,,,,,,,,,,,,,,,,,,,,,,,,,
,,,,,,,,,,stimuli/images/PICTURE_469.png,AGENT,59e91d78d4ab970001389c67,14/09/1954,2020-09-03_22h39.19.331,proactive2,2020.1.2,Win32,60,5f5126bb654d4b30ee6923d8,5f51606d7d1a393a11a09c0f,2,,,,,,stool,,,,,,0,6,6,16,1,2,1,,,,,,,,,,,,,,,,,,,,,,,,,,,,,,,,,,,,,,,,,,,,,,,,,,,,,,,,,,,,,,,,,,,,,,,,,,,,,,,,,,,,,,,,,,,,,,,,,,,
,,,,,,,,,,stimuli/images/PICTURE_68.png,ROOF,59e91d78d4ab970001389c67,14/09/1954,2020-09-03_22h39.19.331,proactive2,2020.1.2,Win32,60,5f5126bb654d4b30ee6923d8,5f51606d7d1a393a11a09c0f,2,,,,,,candle,,,,,,0,7,7,38,1,4,1,,,,,,,,,,,,,,,,,,,,,,,,,,,,,,,,,,,,,,,,,,,,,,,,,,,,,,,,,,,,,,,,,,,,,,,,,,,,,,,,,,,,,,,,,,,,,,,,,,,
,,,,,,,,,,stimuli/images/PICTURE_655.png,TOILET,59e91d78d4ab970001389c67,14/09/1954,2020-09-03_22h39.19.331,proactive2,2020.1.2,Win32,60,5f5126bb654d4b30ee6923d8,5f51606d7d1a393a11a09c0f,2,,,,,,megaphone,,,,,,0,8,8,12,1,2,1,,,,,,,,,,,,,,,,,,,,,,,,,,,,,,,,,,,,,,,,,,,,,,,,,,,,,,,,,,,,,,,,,,,,,,,,,,,,,,,,,,,,,,,,,,,,,,,,,,,
,,,,,,,,,,stimuli/images/PICTURE_297.png,RIVER,59e91d78d4ab970001389c67,14/09/1954,2020-09-03_22h39.19.331,proactive2,2020.1.2,Win32,60,5f5126bb654d4b30ee6923d8,5f51606d7d1a393a11a09c0f,2,,,,,,aeroplane,,,,,,0,9,9,39,1,4,1,,,,,,,,,,,,,,,,,,,,,,,,,,,,,,,,,,,,,,,,,,,,,,,,,,,,,,,,,,,,,,,,,,,,,,,,,,,,,,,,,,,,,,,,,,,,,,,,,,,
,,,,,,,,,,stimuli/images/PICTURE_491.png,RIVER,59e91d78d4ab970001389c67,14/09/1954,2020-09-03_22h39.19.331,proactive2,2020.1.2,Win32,60,5f5126bb654d4b30ee6923d8,5f51606d7d1a393a11a09c0f,2,,,,,,rug,,,,,,0,10,10,6,1,1,1,,,,,,,,,,,,,,,,,,,,,,,,,,,,,,,,,,,,,,,,,,,,,,,,,,,,,,,,,,,,,,,,,,,,,,,,,,,,,,,,,,,,,,,,,,,,,,,,,,,
,,,,,,,,,,stimuli/images/PICTURE_339.png,CLIENT,59e91d78d4ab970001389c67,14/09/1954,2020-09-03_22h39.19.331,proactive2,2020.1.2,Win32,60,5f5126bb654d4b30ee6923d8,5f51606d7d1a393a11a09c0f,2,,,,,,backpack,,,,,,0,11,11,11,1,2,1,,,,,,,,,,,,,,,,,,,,,,,,,,,,,,,,,,,,,,,,,,,,,,,,,,,,,,,,,,,,,,,,,,,,,,,,,,,,,,,,,,,,,,,,,,,,,,,,,,,
,,,,,,,,,,stimuli/images/PICTURE_42.png,BOYS,59e91d78d4ab970001389c67,14/09/1954,2020-09-03_22h39.19.331,proactive2,2020.1.2,Win32,60,5f5126bb654d4b30ee6923d8,5f51606d7d1a393a11a09c0f,2,,,,,,pear,,,,,,0,12,12,55,1,6,1,,,,,,,,,,,,,,,,,,,,,,,,,,,,,,,,,,,,,,,,,,,,,,,,,,,,,,,,,,,,,,,,,,,,,,,,,,,,,,,,,,,,,,,,,,,,,,,,,,,
,,,,,,,,,,stimuli/images/PICTURE_308.png,FAMILY,59e91d78d4ab970001389c67,14/09/1954,2020-09-03_22h39.19.331,proactive2,2020.1.2,Win32,60,5f5126bb654d4b30ee6923d8,5f51606d7d1a393a11a09c0f,2,,,,,,dice,,,,,,0,13,13,36,1,4,1,,,,,,,,,,,,,,,,,,,,,,,,,,,,,,,,,,,,,,,,,,,,,,,,,,,,,,,,,,,,,,,,,,,,,,,,,,,,,,,,,,,,,,,,,,,,,,,,,,,
,,,,,,,,,,stimuli/images/PICTURE_403.png,TOILET,59e91d78d4ab970001389c67,14/09/1954,2020-09-03_22h39.19.331,proactive2,2020.1.2,Win32,60,5f5126bb654d4b30ee6923d8,5f51606d7d1a393a11a09c0f,2,,,,,,cathedral,,,,,,0,14,14,25,1,3,1,,,,,,,,,,,,,,,,,,,,,,,,,,,,,,,,,,,,,,,,,,,,,,,,,,,,,,,,,,,,,,,,,,,,,,,,,,,,,,,,,,,,,,,,,,,,,,,,,,,
,,,,,,,,,,stimuli/images/PICTURE_32.png,PILLS,59e91d78d4ab970001389c67,14/09/1954,2020-09-03_22h39.19.331,proactive2,2020.1.2,Win32,60,5f5126bb654d4b30ee6923d8,5f51606d7d1a393a11a09c0f,2,,,,,,crown,,,,,,0,15,15,18,1,2,1,,,,,,,,,,,,,,,,,,,,,,,,,,,,,,,,,,,,,,,,,,,,,,,,,,,,,,,,,,,,,,,,,,,,,,,,,,,,,,,,,,,,,,,,,,,,,,,,,,,
,,,,,,,,,,stimuli/images/PICTURE_33.png,FRIEND,59e91d78d4ab970001389c67,14/09/1954,2020-09-03_22h39.19.331,proactive2,2020.1.2,Win32,60,5f5126bb654d4b30ee6923d8,5f51606d7d1a393a11a09c0f,2,,,,,,frame,,,,,,0,16,16,8,1,1,1,,,,,,,,,,,,,,,,,,,,,,,,,,,,,,,,,,,,,,,,,,,,,,,,,,,,,,,,,,,,,,,,,,,,,,,,,,,,,,,,,,,,,,,,,,,,,,,,,,,
,,,,,,,,,,stimuli/images/PICTURE_380.png,CANDY,59e91d78d4ab970001389c67,14/09/1954,2020-09-03_22h39.19.331,proactive2,2020.1.2,Win32,60,5f5126bb654d4b30ee6923d8,5f51606d7d1a393a11a09c0f,2,,,,,,gorilla,,,,,,0,17,17,0,1,1,1,,,,,,,,,,,,,,,,,,,,,,,,,,,,,,,,,,,,,,,,,,,,,,,,,,,,,,,,,,,,,,,,,,,,,,,,,,,,,,,,,,,,,,,,,,,,,,,,,,,
,,,,,,,,,,stimuli/images/PICTURE_685.png,PENNY,59e91d78d4ab970001389c67,14/09/1954,2020-09-03_22h39.19.331,proactive2,2020.1.2,Win32,60,5f5126bb654d4b30ee6923d8,5f51606d7d1a393a11a09c0f,2,,,,,,goose,,,,,,0,18,18,4,1,1,1,,,,,,,,,,,,,,,,,,,,,,,,,,,,,,,,,,,,,,,,,,,,,,,,,,,,,,,,,,,,,,,,,,,,,,,,,,,,,,,,,,,,,,,,,,,,,,,,,,,
,,,,,,,,,,stimuli/images/PICTURE_95.png,MILLER,59e91d78d4ab970001389c67,14/09/1954,2020-09-03_22h39.19.331,proactive2,2020.1.2,Win32,60,5f5126bb654d4b30ee6923d8,5f51606d7d1a393a11a09c0f,2,,,,,,suitcase,,,,,,0,19,19,56,1,6,1,,,,,,,,,,,,,,,,,,,,,,,,,,,,,,,,,,,,,,,,,,,,,,,,,,,,,,,,,,,,,,,,,,,,,,,,,,,,,,,,,,,,,,,,,,,,,,,,,,,
,,,,,,,,,,stimuli/images/PICTURE_177.png,WRITER,59e91d78d4ab970001389c67,14/09/1954,2020-09-03_22h39.19.331,proactive2,2020.1.2,Win32,60,5f5126bb654d4b30ee6923d8,5f51606d7d1a393a11a09c0f,2,,,,,,mushroom,,,,,,0,20,20,41,1,5,1,,,,,,,,,,,,,,,,,,,,,,,,,,,,,,,,,,,,,,,,,,,,,,,,,,,,,,,,,,,,,,,,,,,,,,,,,,,,,,,,,,,,,,,,,,,,,,,,,,,
,,,,,,,,,,stimuli/images/PICTURE_467.png,POLICY,59e91d78d4ab970001389c67,14/09/1954,2020-09-03_22h39.19.331,proactive2,2020.1.2,Win32,60,5f5126bb654d4b30ee6923d8,5f51606d7d1a393a11a09c0f,2,,,,,,peg,,,,,,0,21,21,53,1,6,1,,,,,,,,,,,,,,,,,,,,,,,,,,,,,,,,,,,,,,,,,,,,,,,,,,,,,,,,,,,,,,,,,,,,,,,,,,,,,,,,,,,,,,,,,,,,,,,,,,,
,,,,,,,,,,stimuli/images/PICTURE_2.png,FLIGHT,59e91d78d4ab970001389c67,14/09/1954,2020-09-03_22h39.19.331,proactive2,2020.1.2,Win32,60,5f5126bb654d4b30ee6923d8,5f51606d7d1a393a11a09c0f,2,,,,,,tyre,,,,,,0,22,22,15,1,2,1,,,,,,,,,,,,,,,,,,,,,,,,,,,,,,,,,,,,,,,,,,,,,,,,,,,,,,,,,,,,,,,,,,,,,,,,,,,,,,,,,,,,,,,,,,,,,,,,,,,
,,,,,,,,,,stimuli/images/PICTURE_504.png,COPS,59e91d78d4ab970001389c67,14/09/1954,2020-09-03_22h39.19.331,proactive2,2020.1.2,Win32,60,5f5126bb654d4b30ee6923d8,5f51606d7d1a393a11a09c0f,2,,,,,,wheel,,,,,,0,23,23,52,1,6,1,,,,,,,,,,,,,,,,,,,,,,,,,,,,,,,,,,,,,,,,,,,,,,,,,,,,,,,,,,,,,,,,,,,,,,,,,,,,,,,,,,,,,,,,,,,,,,,,,,,
,,,,,,,,,,stimuli/images/PICTURE_85.png,NATION,59e91d78d4ab970001389c67,14/09/1954,2020-09-03_22h39.19.331,proactive2,2020.1.2,Win32,60,5f5126bb654d4b30ee6923d8,5f51606d7d1a393a11a09c0f,2,,,,,,diamond,,,,,,0,24,24,5,1,1,1,,,,,,,,,,,,,,,,,,,,,,,,,,,,,,,,,,,,,,,,,,,,,,,,,,,,,,,,,,,,,,,,,,,,,,,,,,,,,,,,,,,,,,,,,,,,,,,,,,,
,,,,,,,,,,stimuli/images/PICTURE_405.png,PLENTY,59e91d78d4ab970001389c67,14/09/1954,2020-09-03_22h39.19.331,proactive2,2020.1.2,Win32,60,5f5126bb654d4b30ee6923d8,5f51606d7d1a393a11a09c0f,2,,,,,,anchor,,,,,,0,25,25,23,1,3,1,,,,,,,,,,,,,,,,,,,,,,,,,,,,,,,,,,,,,,,,,,,,,,,,,,,,,,,,,,,,,,,,,,,,,,,,,,,,,,,,,,,,,,,,,,,,,,,,,,,
,,,,,,,,,,stimuli/images/PICTURE_340.png,VALLEY,59e91d78d4ab970001389c67,14/09/1954,2020-09-03_22h39.19.331,proactive2,2020.1.2,Win32,60,5f5126bb654d4b30ee6923d8,5f51606d7d1a393a11a09c0f,2,,,,,,mirror,,,,,,0,26,26,54,1,6,1,,,,,,,,,,,,,,,,,,,,,,,,,,,,,,,,,,,,,,,,,,,,,,,,,,,,,,,,,,,,,,,,,,,,,,,,,,,,,,,,,,,,,,,,,,,,,,,,,,,
,,,,,,,,,,stimuli/images/PICTURE_677.png,APPLE,59e91d78d4ab970001389c67,14/09/1954,2020-09-03_22h39.19.331,proactive2,2020.1.2,Win32,60,5f5126bb654d4b30ee6923d8,5f51606d7d1a393a11a09c0f,2,,,,,,map,,,,,,0,27,27,43,1,5,1,,,,,,,,,,,,,,,,,,,,,,,,,,,,,,,,,,,,,,,,,,,,,,,,,,,,,,,,,,,,,,,,,,,,,,,,,,,,,,,,,,,,,,,,,,,,,,,,,,,
,,,,,,,,,,stimuli/images/PICTURE_296.png,LIFE,59e91d78d4ab970001389c67,14/09/1954,2020-09-03_22h39.19.331,proactive2,2020.1.2,Win32,60,5f5126bb654d4b30ee6923d8,5f51606d7d1a393a11a09c0f,2,,,,,,bolt,,,,,,0,28,28,57,1,6,1,,,,,,,,,,,,,,,,,,,,,,,,,,,,,,,,,,,,,,,,,,,,,,,,,,,,,,,,,,,,,,,,,,,,,,,,,,,,,,,,,,,,,,,,,,,,,,,,,,,
,,,,,,,,,,stimuli/images/PICTURE_233.png,LOTS,59e91d78d4ab970001389c67,14/09/1954,2020-09-03_22h39.19.331,proactive2,2020.1.2,Win32,60,5f5126bb654d4b30ee6923d8,5f51606d7d1a393a11a09c0f,2,,,,,,salt,,,,,,0,29,29,42,1,5,1,,,,,,,,,,,,,,,,,,,,,,,,,,,,,,,,,,,,,,,,,,,,,,,,,,,,,,,,,,,,,,,,,,,,,,,,,,,,,,,,,,,,,,,,,,,,,,,,,,,
,,,,,,,,,,stimuli/images/PICTURE_68.png,MILE,59e91d78d4ab970001389c67,14/09/1954,2020-09-03_22h39.19.331,proactive2,2020.1.2,Win32,60,5f5126bb654d4b30ee6923d8,5f51606d7d1a393a11a09c0f,2,,,,,,candle,,,,,,0,30,30,51,1,6,1,,,,,,,,,,,,,,,,,,,,,,,,,,,,,,,,,,,,,,,,,,,,,,,,,,,,,,,,,,,,,,,,,,,,,,,,,,,,,,,,,,,,,,,,,,,,,,,,,,,
,,,,,,,,,,stimuli/images/PICTURE_667.png,RIVER,59e91d78d4ab970001389c67,14/09/1954,2020-09-03_22h39.19.331,proactive2,2020.1.2,Win32,60,5f5126bb654d4b30ee6923d8,5f51606d7d1a393a11a09c0f,2,,,,,,daisy,,,,,,0,31,31,10,1,2,1,,,,,,,,,,,,,,,,,,,,,,,,,,,,,,,,,,,,,,,,,,,,,,,,,,,,,,,,,,,,,,,,,,,,,,,,,,,,,,,,,,,,,,,,,,,,,,,,,,,
,,,,,,,,,,stimuli/images/PICTURE_744.png,WEAPON,59e91d78d4ab970001389c67,14/09/1954,2020-09-03_22h39.19.331,proactive2,2020.1.2,Win32,60,5f5126bb654d4b30ee6923d8,5f51606d7d1a393a11a09c0f,2,,,,,,ring,,,,,,0,32,32,50,1,6,1,,,,,,,,,,,,,,,,,,,,,,,,,,,,,,,,,,,,,,,,,,,,,,,,,,,,,,,,,,,,,,,,,,,,,,,,,,,,,,,,,,,,,,,,,,,,,,,,,,,
,,,,,,,,,,stimuli/images/PICTURE_108.png,FLIGHT,59e91d78d4ab970001389c67,14/09/1954,2020-09-03_22h39.19.331,proactive2,2020.1.2,Win32,60,5f5126bb654d4b30ee6923d8,5f51606d7d1a393a11a09c0f,2,,,,,,calendar,,,,,,0,33,33,59,1,6,1,,,,,,,,,,,,,,,,,,,,,,,,,,,,,,,,,,,,,,,,,,,,,,,,,,,,,,,,,,,,,,,,,,,,,,,,,,,,,,,,,,,,,,,,,,,,,,,,,,,
,,,,,,,,,,stimuli/images/PICTURE_403.png,RIVER,59e91d78d4ab970001389c67,14/09/1954,2020-09-03_22h39.19.331,proactive2,2020.1.2,Win32,60,5f5126bb654d4b30ee6923d8,5f51606d7d1a393a11a09c0f,2,,,,,,cathedral,,,,,,0,34,34,40,1,5,1,,,,,,,,,,,,,,,,,,,,,,,,,,,,,,,,,,,,,,,,,,,,,,,,,,,,,,,,,,,,,,,,,,,,,,,,,,,,,,,,,,,,,,,,,,,,,,,,,,,
,,,,,,,,,,stimuli/images/PICTURE_487.png,GIRL,59e91d78d4ab970001389c67,14/09/1954,2020-09-03_22h39.19.331,proactive2,2020.1.2,Win32,60,5f5126bb654d4b30ee6923d8,5f51606d7d1a393a11a09c0f,2,,,,,,basket,,,,,,0,35,35,45,1,5,1,,,,,,,,,,,,,,,,,,,,,,,,,,,,,,,,,,,,,,,,,,,,,,,,,,,,,,,,,,,,,,,,,,,,,,,,,,,,,,,,,,,,,,,,,,,,,,,,,,,
,,,,,,,,,,stimuli/images/PICTURE_675.png,SALE,59e91d78d4ab970001389c67,14/09/1954,2020-09-03_22h39.19.331,proactive2,2020.1.2,Win32,60,5f5126bb654d4b30ee6923d8,5f51606d7d1a393a11a09c0f,2,,,,,,windmill,,,,,,0,36,36,47,1,5,1,,,,,,,,,,,,,,,,,,,,,,,,,,,,,,,,,,,,,,,,,,,,,,,,,,,,,,,,,,,,,,,,,,,,,,,,,,,,,,,,,,,,,,,,,,,,,,,,,,,
,,,,,,,,,,stimuli/images/PICTURE_32.png,KIND,59e91d78d4ab970001389c67,14/09/1954,2020-09-03_22h39.19.331,proactive2,2020.1.2,Win32,60,5f5126bb654d4b30ee6923d8,5f51606d7d1a393a11a09c0f,2,,,,,,crown,,,,,,0,37,37,35,1,4,1,,,,,,,,,,,,,,,,,,,,,,,,,,,,,,,,,,,,,,,,,,,,,,,,,,,,,,,,,,,,,,,,,,,,,,,,,,,,,,,,,,,,,,,,,,,,,,,,,,,
,,,,,,,,,,stimuli/images/PICTURE_95.png,BOYS,59e91d78d4ab970001389c67,14/09/1954,2020-09-03_22h39.19.331,proactive2,2020.1.2,Win32,60,5f5126bb654d4b30ee6923d8,5f51606d7d1a393a11a09c0f,2,,,,,,suitcase,,,,,,0,38,38,1,1,1,1,,,,,,,,,,,,,,,,,,,,,,,,,,,,,,,,,,,,,,,,,,,,,,,,,,,,,,,,,,,,,,,,,,,,,,,,,,,,,,,,,,,,,,,,,,,,,,,,,,,
,,,,,,,,,,stimuli/images/PICTURE_405.png,YEAR,59e91d78d4ab970001389c67,14/09/1954,2020-09-03_22h39.19.331,proactive2,2020.1.2,Win32,60,5f5126bb654d4b30ee6923d8,5f51606d7d1a393a11a09c0f,2,,,,,,anchor,,,,,,0,39,39,34,1,4,1,,,,,,,,,,,,,,,,,,,,,,,,,,,,,,,,,,,,,,,,,,,,,,,,,,,,,,,,,,,,,,,,,,,,,,,,,,,,,,,,,,,,,,,,,,,,,,,,,,,
,,,,,,,,,,stimuli/images/PICTURE_108.png,POLICY,59e91d78d4ab970001389c67,14/09/1954,2020-09-03_22h39.19.331,proactive2,2020.1.2,Win32,60,5f5126bb654d4b30ee6923d8,5f51606d7d1a393a11a09c0f,2,,,,,,calendar,,,,,,0,40,40,22,1,3,1,,,,,,,,,,,,,,,,,,,,,,,,,,,,,,,,,,,,,,,,,,,,,,,,,,,,,,,,,,,,,,,,,,,,,,,,,,,,,,,,,,,,,,,,,,,,,,,,,,,
,,,,,,,,,,stimuli/images/PICTURE_203.png,GODS,59e91d78d4ab970001389c67,14/09/1954,2020-09-03_22h39.19.331,proactive2,2020.1.2,Win32,60,5f5126bb654d4b30ee6923d8,5f51606d7d1a393a11a09c0f,2,,,,,,cap,,,,,,0,41,41,30,1,4,1,,,,,,,,,,,,,,,,,,,,,,,,,,,,,,,,,,,,,,,,,,,,,,,,,,,,,,,,,,,,,,,,,,,,,,,,,,,,,,,,,,,,,,,,,,,,,,,,,,,
,,,,,,,,,,stimuli/images/PICTURE_285.png,LIFE,59e91d78d4ab970001389c67,14/09/1954,2020-09-03_22h39.19.331,proactive2,2020.1.2,Win32,60,5f5126bb654d4b30ee6923d8,5f51606d7d1a393a11a09c0f,2,,,,,,carrot,,,,,,0,42,42,33,1,4,1,,,,,,,,,,,,,,,,,,,,,,,,,,,,,,,,,,,,,,,,,,,,,,,,,,,,,,,,,,,,,,,,,,,,,,,,,,,,,,,,,,,,,,,,,,,,,,,,,,,
,,,,,,,,,,stimuli/images/PICTURE_296.png,LOTS,59e91d78d4ab970001389c67,14/09/1954,2020-09-03_22h39.19.331,proactive2,2020.1.2,Win32,60,5f5126bb654d4b30ee6923d8,5f51606d7d1a393a11a09c0f,2,,,,,,bolt,,,,,,0,43,43,9,1,1,1,,,,,,,,,,,,,,,,,,,,,,,,,,,,,,,,,,,,,,,,,,,,,,,,,,,,,,,,,,,,,,,,,,,,,,,,,,,,,,,,,,,,,,,,,,,,,,,,,,,
,,,,,,,,,,stimuli/images/PICTURE_504.png,ARTIST,59e91d78d4ab970001389c67,14/09/1954,2020-09-03_22h39.19.331,proactive2,2020.1.2,Win32,60,5f5126bb654d4b30ee6923d8,5f51606d7d1a393a11a09c0f,2,,,,,,wheel,,,,,,0,44,44,49,1,5,1,,,,,,,,,,,,,,,,,,,,,,,,,,,,,,,,,,,,,,,,,,,,,,,,,,,,,,,,,,,,,,,,,,,,,,,,,,,,,,,,,,,,,,,,,,,,,,,,,,,
,,,,,,,,,,stimuli/images/PICTURE_147.png,YEAR,59e91d78d4ab970001389c67,14/09/1954,2020-09-03_22h39.19.331,proactive2,2020.1.2,Win32,60,5f5126bb654d4b30ee6923d8,5f51606d7d1a393a11a09c0f,2,,,,,,hanger,,,,,,0,45,45,21,1,3,1,,,,,,,,,,,,,,,,,,,,,,,,,,,,,,,,,,,,,,,,,,,,,,,,,,,,,,,,,,,,,,,,,,,,,,,,,,,,,,,,,,,,,,,,,,,,,,,,,,,
,,,,,,,,,,stimuli/images/PICTURE_380.png,HONEY,59e91d78d4ab970001389c67,14/09/1954,2020-09-03_22h39.19.331,proactive2,2020.1.2,Win32,60,5f5126bb654d4b30ee6923d8,5f51606d7d1a393a11a09c0f,2,,,,,,gorilla,,,,,,0,46,46,19,1,2,1,,,,,,,,,,,,,,,,,,,,,,,,,,,,,,,,,,,,,,,,,,,,,,,,,,,,,,,,,,,,,,,,,,,,,,,,,,,,,,,,,,,,,,,,,,,,,,,,,,,
,,,,,,,,,,stimuli/images/PICTURE_95.png,HONEY,59e91d78d4ab970001389c67,14/09/1954,2020-09-03_22h39.19.331,proactive2,2020.1.2,Win32,60,5f5126bb654d4b30ee6923d8,5f51606d7d1a393a11a09c0f,2,,,,,,suitcase,,,,,,0,47,47,44,1,5,1,,,,,,,,,,,,,,,,,,,,,,,,,,,,,,,,,,,,,,,,,,,,,,,,,,,,,,,,,,,,,,,,,,,,,,,,,,,,,,,,,,,,,,,,,,,,,,,,,,,
,,,,,,,,,,stimuli/images/PICTURE_449.png,DUDE,59e91d78d4ab970001389c67,14/09/1954,2020-09-03_22h39.19.331,proactive2,2020.1.2,Win32,60,5f5126bb654d4b30ee6923d8,5f51606d7d1a393a11a09c0f,2,,,,,,bench,,,,,,0,48,48,17,1,2,1,,,,,,,,,,,,,,,,,,,,,,,,,,,,,,,,,,,,,,,,,,,,,,,,,,,,,,,,,,,,,,,,,,,,,,,,,,,,,,,,,,,,,,,,,,,,,,,,,,,
,,,,,,,,,,stimuli/images/PICTURE_504.png,YEAR,59e91d78d4ab970001389c67,14/09/1954,2020-09-03_22h39.19.331,proactive2,2020.1.2,Win32,60,5f5126bb654d4b30ee6923d8,5f51606d7d1a393a11a09c0f,2,,,,,,wheel,,,,,,0,49,49,13,1,2,1,,,,,,,,,,,,,,,,,,,,,,,,,,,,,,,,,,,,,,,,,,,,,,,,,,,,,,,,,,,,,,,,,,,,,,,,,,,,,,,,,,,,,,,,,,,,,,,,,,,
,,,,,,,,,,stimuli/images/PICTURE_654.png,MONTH,59e91d78d4ab970001389c67,14/09/1954,2020-09-03_22h39.19.331,proactive2,2020.1.2,Win32,60,5f5126bb654d4b30ee6923d8,5f51606d7d1a393a11a09c0f,2,,,,,,pencil,,,,,,0,50,50,29,1,3,1,,,,,,,,,,,,,,,,,,,,,,,,,,,,,,,,,,,,,,,,,,,,,,,,,,,,,,,,,,,,,,,,,,,,,,,,,,,,,,,,,,,,,,,,,,,,,,,,,,,
,,,,,,,,,,stimuli/images/PICTURE_57.png,MOMENT,59e91d78d4ab970001389c67,14/09/1954,2020-09-03_22h39.19.331,proactive2,2020.1.2,Win32,60,5f5126bb654d4b30ee6923d8,5f51606d7d1a393a11a09c0f,2,,,,,,stamp,,,,,,0,51,51,37,1,4,1,,,,,,,,,,,,,,,,,,,,,,,,,,,,,,,,,,,,,,,,,,,,,,,,,,,,,,,,,,,,,,,,,,,,,,,,,,,,,,,,,,,,,,,,,,,,,,,,,,,
,,,,,,,,,,stimuli/images/PICTURE_327.png,CASINO,59e91d78d4ab970001389c67,14/09/1954,2020-09-03_22h39.19.331,proactive2,2020.1.2,Win32,60,5f5126bb654d4b30ee6923d8,5f51606d7d1a393a11a09c0f,2,,,,,,helmet,,,,,,0,52,52,20,1,3,1,,,,,,,,,,,,,,,,,,,,,,,,,,,,,,,,,,,,,,,,,,,,,,,,,,,,,,,,,,,,,,,,,,,,,,,,,,,,,,,,,,,,,,,,,,,,,,,,,,,
,,,,,,,,,,stimuli/images/PICTURE_750.png,HOTEL,59e91d78d4ab970001389c67,14/09/1954,2020-09-03_22h39.19.331,proactive2,2020.1.2,Win32,60,5f5126bb654d4b30ee6923d8,5f51606d7d1a393a11a09c0f,2,,,,,,kettle,,,,,,0,53,53,27,1,3,1,,,,,,,,,,,,,,,,,,,,,,,,,,,,,,,,,,,,,,,,,,,,,,,,,,,,,,,,,,,,,,,,,,,,,,,,,,,,,,,,,,,,,,,,,,,,,,,,,,,
,,,,,,,,,,stimuli/images/PICTURE_564.png,BATH,59e91d78d4ab970001389c67,14/09/1954,2020-09-03_22h39.19.331,proactive2,2020.1.2,Win32,60,5f5126bb654d4b30ee6923d8,5f51606d7d1a393a11a09c0f,2,,,,,,spoon,,,,,,0,54,54,26,1,3,1,,,,,,,,,,,,,,,,,,,,,,,,,,,,,,,,,,,,,,,,,,,,,,,,,,,,,,,,,,,,,,,,,,,,,,,,,,,,,,,,,,,,,,,,,,,,,,,,,,,
,,,,,,,,,,stimuli/images/PICTURE_327.png,SERIES,59e91d78d4ab970001389c67,14/09/1954,2020-09-03_22h39.19.331,proactive2,2020.1.2,Win32,60,5f5126bb654d4b30ee6923d8,5f51606d7d1a393a11a09c0f,2,,,,,,helmet,,,,,,0,55,55,3,1,1,1,,,,,,,,,,,,,,,,,,,,,,,,,,,,,,,,,,,,,,,,,,,,,,,,,,,,,,,,,,,,,,,,,,,,,,,,,,,,,,,,,,,,,,,,,,,,,,,,,,,
,,,,,,,,,,stimuli/images/PICTURE_208.png,SYSTEM,59e91d78d4ab970001389c67,14/09/1954,2020-09-03_22h39.19.331,proactive2,2020.1.2,Win32,60,5f5126bb654d4b30ee6923d8,5f51606d7d1a393a11a09c0f,2,,,,,,microphone,,,,,,0,56,56,32,1,4,1,,,,,,,,,,,,,,,,,,,,,,,,,,,,,,,,,,,,,,,,,,,,,,,,,,,,,,,,,,,,,,,,,,,,,,,,,,,,,,,,,,,,,,,,,,,,,,,,,,,
,,,,,,,,,,stimuli/images/PICTURE_147.png,WOMEN,59e91d78d4ab970001389c67,14/09/1954,2020-09-03_22h39.19.331,proactive2,2020.1.2,Win32,60,5f5126bb654d4b30ee6923d8,5f51606d7d1a393a11a09c0f,2,,,,,,hanger,,,,,,0,57,57,7,1,1,1,,,,,,,,,,,,,,,,,,,,,,,,,,,,,,,,,,,,,,,,,,,,,,,,,,,,,,,,,,,,,,,,,,,,,,,,,,,,,,,,,,,,,,,,,,,,,,,,,,,
,,,,,,,,,,stimuli/images/PICTURE_340.png,LETTER,59e91d78d4ab970001389c67,14/09/1954,2020-09-03_22h39.19.331,proactive2,2020.1.2,Win32,60,5f5126bb654d4b30ee6923d8,5f51606d7d1a393a11a09c0f,2,,,,,,mirror,,,,,,0,58,58,24,1,3,1,,,,,,,,,,,,,,,,,,,,,,,,,,,,,,,,,,,,,,,,,,,,,,,,,,,,,,,,,,,,,,,,,,,,,,,,,,,,,,,,,,,,,,,,,,,,,,,,,,,
,,RUG,3.80802,0,,,,,,stimuli/images/PICTURE_339.png,CLIENT,59e91d78d4ab970001389c67,14/09/1954,2020-09-03_22h39.19.331,proactive2,2020.1.2,Win32,60,5f5126bb654d4b30ee6923d8,5f51606d7d1a393a11a09c0f,2,,,,,,backpack,,,,,,,,,,,2,1,0,0,0,11,1,,,,,,,,,,,,,,,,,,,,,,,,,,,,,,,,,,,,,,,,,,,,,,,,,,,,,,,,,,,,,,,,,,,,,,,,,,,,,,,,,,,,,,,,,,,,,,
,,?,0.00194,0,,,,,,stimuli/images/PICTURE_504.png,COPS,59e91d78d4ab970001389c67,14/09/1954,2020-09-03_22h39.19.331,proactive2,2020.1.2,Win32,60,5f5126bb654d4b30ee6923d8,5f51606d7d1a393a11a09c0f,2,,,,,,wheel,,,,,,,,,,,6,1,0,1,1,52,1,,,,,,,,,,,,,,,,,,,,,,,,,,,,,,,,,,,,,,,,,,,,,,,,,,,,,,,,,,,,,,,,,,,,,,,,,,,,,,,,,,,,,,,,,,,,,,
,,?,0.00123,0,,,,,,stimuli/images/PICTURE_203.png,NIGHT,59e91d78d4ab970001389c67,14/09/1954,2020-09-03_22h39.19.331,proactive2,2020.1.2,Win32,60,5f5126bb654d4b30ee6923d8,5f51606d7d1a393a11a09c0f,2,,,,,,cap,,,,,,,,,,,1,1,0,2,2,2,1,,,,,,,,,,,,,,,,,,,,,,,,,,,,,,,,,,,,,,,,,,,,,,,,,,,,,,,,,,,,,,,,,,,,,,,,,,,,,,,,,,,,,,,,,,,,,,
,,?,0.00129,0,,,,,,stimuli/images/PICTURE_750.png,HOTEL,59e91d78d4ab970001389c67,14/09/1954,2020-09-03_22h39.19.331,proactive2,2020.1.2,Win32,60,5f5126bb654d4b30ee6923d8,5f51606d7d1a393a11a09c0f,2,,,,,,kettle,,,,,,,,,,,3,1,0,3,3,27,1,,,,,,,,,,,,,,,,,,,,,,,,,,,,,,,,,,,,,,,,,,,,,,,,,,,,,,,,,,,,,,,,,,,,,,,,,,,,,,,,,,,,,,,,,,,,,,
,,?,0.001205,0,,,,,,stimuli/images/PICTURE_403.png,TOILET,59e91d78d4ab970001389c67,14/09/1954,2020-09-03_22h39.19.331,proactive2,2020.1.2,Win32,60,5f5126bb654d4b30ee6923d8,5f51606d7d1a393a11a09c0f,2,,,,,,cathedral,,,,,,,,,,,3,1,0,4,4,25,1,,,,,,,,,,,,,,,,,,,,,,,,,,,,,,,,,,,,,,,,,,,,,,,,,,,,,,,,,,,,,,,,,,,,,,,,,,,,,,,,,,,,,,,,,,,,,,
,,?,0.00151,0,,,,,,stimuli/images/PICTURE_383.png,SERIES,59e91d78d4ab970001389c67,14/09/1954,2020-09-03_22h39.19.331,proactive2,2020.1.2,Win32,60,5f5126bb654d4b30ee6923d8,5f51606d7d1a393a11a09c0f,2,,,,,,coin,,,,,,,,,,,5,1,0,5,5,46,1,,,,,,,,,,,,,,,,,,,,,,,,,,,,,,,,,,,,,,,,,,,,,,,,,,,,,,,,,,,,,,,,,,,,,,,,,,,,,,,,,,,,,,,,,,,,,,
,,AGENT,4.575395,0,,,,,,stimuli/images/PICTURE_655.png,TOILET,59e91d78d4ab970001389c67,14/09/1954,2020-09-03_22h39.19.331,proactive2,2020.1.2,Win32,60,5f5126bb654d4b30ee6923d8,5f51606d7d1a393a11a09c0f,2,,,,,,megaphone,,,,,,,,,,,2,1,0,6,6,12,1,,,,,,,,,,,,,,,,,,,,,,,,,,,,,,,,,,,,,,,,,,,,,,,,,,,,,,,,,,,,,,,,,,,,,,,,,,,,,,,,,,,,,,,,,,,,,,
,,?,0.002205,0,,,,,,stimuli/images/PICTURE_340.png,LETTER,59e91d78d4ab970001389c67,14/09/1954,2020-09-03_22h39.19.331,proactive2,2020.1.2,Win32,60,5f5126bb654d4b30ee6923d8,5f51606d7d1a393a11a09c0f,2,,,,,,mirror,,,,,,,,,,,3,1,0,7,7,24,1,,,,,,,,,,,,,,,,,,,,,,,,,,,,,,,,,,,,,,,,,,,,,,,,,,,,,,,,,,,,,,,,,,,,,,,,,,,,,,,,,,,,,,,,,,,,,,
,,?,0.00139,0,,,,,,stimuli/images/PICTURE_380.png,CANDY,59e91d78d4ab970001389c67,14/09/1954,2020-09-03_22h39.19.331,proactive2,2020.1.2,Win32,60,5f5126bb654d4b30ee6923d8,5f51606d7d1a393a11a09c0f,2,,,,,,gorilla,,,,,,,,,,,1,1,0,8,8,0,1,,,,,,,,,,,,,,,,,,,,,,,,,,,,,,,,,,,,,,,,,,,,,,,,,,,,,,,,,,,,,,,,,,,,,,,,,,,,,,,,,,,,,,,,,,,,,,
,,TOOLS,4.1329,0,,,,,,stimuli/images/PICTURE_491.png,GLASS,59e91d78d4ab970001389c67,14/09/1954,2020-09-03_22h39.19.331,proactive2,2020.1.2,Win32,60,5f5126bb654d4b30ee6923d8,5f51606d7d1a393a11a09c0f,2,,,,,,rug,,,,,,,,,,,2,1,0,9,9,14,1,,,,,,,,,,,,,,,,,,,,,,,,,,,,,,,,,,,,,,,,,,,,,,,,,,,,,,,,,,,,,,,,,,,,,,,,,,,,,,,,,,,,,,,,,,,,,,
,,PILL,3.973465,0,,,,,,stimuli/images/PICTURE_32.png,PILLS,59e91d78d4ab970001389c67,14/09/1954,2020-09-03_22h39.19.331,proactive2,2020.1.2,Win32,60,5f5126bb654d4b30ee6923d8,5f51606d7d1a393a11a09c0f,2,,,,,,crown,,,,,,,,,,,2,1,0,10,10,18,1,,,,,,,,,,,,,,,,,,,,,,,,,,,,,,,,,,,,,,,,,,,,,,,,,,,,,,,,,,,,,,,,,,,,,,,,,,,,,,,,,,,,,,,,,,,,,,
,,?,0.00161,0,,,,,,stimuli/images/PICTURE_296.png,LOTS,59e91d78d4ab970001389c67,14/09/1954,2020-09-03_22h39.19.331,proactive2,2020.1.2,Win32,60,5f5126bb654d4b30ee6923d8,5f51606d7d1a393a11a09c0f,2,,,,,,bolt,,,,,,,,,,,1,1,0,11,11,9,1,,,,,,,,,,,,,,,,,,,,,,,,,,,,,,,,,,,,,,,,,,,,,,,,,,,,,,,,,,,,,,,,,,,,,,,,,,,,,,,,,,,,,,,,,,,,,,
,,?,0.00492,0,,,,,,stimuli/images/PICTURE_685.png,PENNY,59e91d78d4ab970001389c67,14/09/1954,2020-09-03_22h39.19.331,proactive2,2020.1.2,Win32,60,5f5126bb654d4b30ee6923d8,5f51606d7d1a393a11a09c0f,2,,,,,,goose,,,,,,,,,,,1,1,0,12,12,4,1,,,,,,,,,,,,,,,,,,,,,,,,,,,,,,,,,,,,,,,,,,,,,,,,,,,,,,,,,,,,,,,,,,,,,,,,,,,,,,,,,,,,,,,,,,,,,,
,,HONEY,5.361375,1,,,,,,stimuli/images/PICTURE_380.png,HONEY,59e91d78d4ab970001389c67,14/09/1954,2020-09-03_22h39.19.331,proactive2,2020.1.2,Win32,60,5f5126bb654d4b30ee6923d8,5f51606d7d1a393a11a09c0f,2,,,,,,gorilla,,,,,,,,,,,2,1,0,13,13,19,1,,,,,,,,,,,,,,,,,,,,,,,,,,,,,,,,,,,,,,,,,,,,,,,,,,,,,,,,,,,,,,,,,,,,,,,,,,,,,,,,,,,,,,,,,,,,,,
,,?,0.003075,0,,,,,,stimuli/images/PICTURE_308.png,FAMILY,59e91d78d4ab970001389c67,14/09/1954,2020-09-03_22h39.19.331,proactive2,2020.1.2,Win32,60,5f5126bb654d4b30ee6923d8,5f51606d7d1a393a11a09c0f,2,,,,,,dice,,,,,,,,,,,4,1,0,14,14,36,1,,,,,,,,,,,,,,,,,,,,,,,,,,,,,,,,,,,,,,,,,,,,,,,,,,,,,,,,,,,,,,,,,,,,,,,,,,,,,,,,,,,,,,,,,,,,,,
,,FLIGHT,4.251865,1,,,,,,stimuli/images/PICTURE_2.png,FLIGHT,59e91d78d4ab970001389c67,14/09/1954,2020-09-03_22h39.19.331,proactive2,2020.1.2,Win32,60,5f5126bb654d4b30ee6923d8,5f51606d7d1a393a11a09c0f,2,,,,,,tyre,,,,,,,,,,,2,1,0,15,15,15,1,,,,,,,,,,,,,,,,,,,,,,,,,,,,,,,,,,,,,,,,,,,,,,,,,,,,,,,,,,,,,,,,,,,,,,,,,,,,,,,,,,,,,,,,,,,,,,
,,?,0.002765,0,,,,,,stimuli/images/PICTURE_33.png,FRIEND,59e91d78d4ab970001389c67,14/09/1954,2020-09-03_22h39.19.331,proactive2,2020.1.2,Win32,60,5f5126bb654d4b30ee6923d8,5f51606d7d1a393a11a09c0f,2,,,,,,frame,,,,,,,,,,,1,1,0,16,16,8,1,,,,,,,,,,,,,,,,,,,,,,,,,,,,,,,,,,,,,,,,,,,,,,,,,,,,,,,,,,,,,,,,,,,,,,,,,,,,,,,,,,,,,,,,,,,,,,
,,?,0.001295,0,,,,,,stimuli/images/PICTURE_487.png,GIRL,59e91d78d4ab970001389c67,14/09/1954,2020-09-03_22h39.19.331,proactive2,2020.1.2,Win32,60,5f5126bb654d4b30ee6923d8,5f51606d7d1a393a11a09c0f,2,,,,,,basket,,,,,,,,,,,5,1,0,17,17,45,1,,,,,,,,,,,,,,,,,,,,,,,,,,,,,,,,,,,,,,,,,,,,,,,,,,,,,,,,,,,,,,,,,,,,,,,,,,,,,,,,,,,,,,,,,,,,,,
,,?,0.001295,0,,,,,,stimuli/images/PICTURE_708.png,RECORD,59e91d78d4ab970001389c67,14/09/1954,2020-09-03_22h39.19.331,proactive2,2020.1.2,Win32,60,5f5126bb654d4b30ee6923d8,5f51606d7d1a393a11a09c0f,2,,,,,,monkey,,,,,,,,,,,6,1,0,18,18,58,1,,,,,,,,,,,,,,,,,,,,,,,,,,,,,,,,,,,,,,,,,,,,,,,,,,,,,,,,,,,,,,,,,,,,,,,,,,,,,,,,,,,,,,,,,,,,,,
,,?,0.001305,0,,,,,,stimuli/images/PICTURE_42.png,BOYS,59e91d78d4ab970001389c67,14/09/1954,2020-09-03_22h39.19.331,proactive2,2020.1.2,Win32,60,5f5126bb654d4b30ee6923d8,5f51606d7d1a393a11a09c0f,2,,,,,,pear,,,,,,,,,,,6,1,0,19,19,55,1,,,,,,,,,,,,,,,,,,,,,,,,,,,,,,,,,,,,,,,,,,,,,,,,,,,,,,,,,,,,,,,,,,,,,,,,,,,,,,,,,,,,,,,,,,,,,,
,,?,0.00209,0,,,,,,stimuli/images/PICTURE_327.png,SERIES,59e91d78d4ab970001389c67,14/09/1954,2020-09-03_22h39.19.331,proactive2,2020.1.2,Win32,60,5f5126bb654d4b30ee6923d8,5f51606d7d1a393a11a09c0f,2,,,,,,helmet,,,,,,,,,,,1,1,0,20,20,3,1,,,,,,,,,,,,,,,,,,,,,,,,,,,,,,,,,,,,,,,,,,,,,,,,,,,,,,,,,,,,,,,,,,,,,,,,,,,,,,,,,,,,,,,,,,,,,,
,,?,0.00142,0,,,,,,stimuli/images/PICTURE_95.png,BOYS,59e91d78d4ab970001389c67,14/09/1954,2020-09-03_22h39.19.331,proactive2,2020.1.2,Win32,60,5f5126bb654d4b30ee6923d8,5f51606d7d1a393a11a09c0f,2,,,,,,suitcase,,,,,,,,,,,1,1,0,21,21,1,1,,,,,,,,,,,,,,,,,,,,,,,,,,,,,,,,,,,,,,,,,,,,,,,,,,,,,,,,,,,,,,,,,,,,,,,,,,,,,,,,,,,,,,,,,,,,,,
,,?,0.00121,0,,,,,,stimuli/images/PICTURE_675.png,SALE,59e91d78d4ab970001389c67,14/09/1954,2020-09-03_22h39.19.331,proactive2,2020.1.2,Win32,60,5f5126bb654d4b30ee6923d8,5f51606d7d1a393a11a09c0f,2,,,,,,windmill,,,,,,,,,,,5,1,0,22,22,47,1,,,,,,,,,,,,,,,,,,,,,,,,,,,,,,,,,,,,,,,,,,,,,,,,,,,,,,,,,,,,,,,,,,,,,,,,,,,,,,,,,,,,,,,,,,,,,,
,,?,0.00142,0,,,,,,stimuli/images/PICTURE_233.png,LOTS,59e91d78d4ab970001389c67,14/09/1954,2020-09-03_22h39.19.331,proactive2,2020.1.2,Win32,60,5f5126bb654d4b30ee6923d8,5f51606d7d1a393a11a09c0f,2,,,,,,salt,,,,,,,,,,,5,1,0,23,23,42,1,,,,,,,,,,,,,,,,,,,,,,,,,,,,,,,,,,,,,,,,,,,,,,,,,,,,,,,,,,,,,,,,,,,,,,,,,,,,,,,,,,,,,,,,,,,,,,
,,?,0.001585,0,,,,,,stimuli/images/PICTURE_85.png,NATION,59e91d78d4ab970001389c67,14/09/1954,2020-09-03_22h39.19.331,proactive2,2020.1.2,Win32,60,5f5126bb654d4b30ee6923d8,5f51606d7d1a393a11a09c0f,2,,,,,,diamond,,,,,,,,,,,1,1,0,24,24,5,1,,,,,,,,,,,,,,,,,,,,,,,,,,,,,,,,,,,,,,,,,,,,,,,,,,,,,,,,,,,,,,,,,,,,,,,,,,,,,,,,,,,,,,,,,,,,,,
,,?,0.001275,0,,,,,,stimuli/images/PICTURE_208.png,SYSTEM,59e91d78d4ab970001389c67,14/09/1954,2020-09-03_22h39.19.331,proactive2,2020.1.2,Win32,60,5f5126bb654d4b30ee6923d8,5f51606d7d1a393a11a09c0f,2,,,,,,microphone,,,,,,,,,,,4,1,0,25,25,32,1,,,,,,,,,,,,,,,,,,,,,,,,,,,,,,,,,,,,,,,,,,,,,,,,,,,,,,,,,,,,,,,,,,,,,,,,,,,,,,,,,,,,,,,,,,,,,,
,,?,0.00149,0,,,,,,stimuli/images/PICTURE_177.png,WRITER,59e91d78d4ab970001389c67,14/09/1954,2020-09-03_22h39.19.331,proactive2,2020.1.2,Win32,60,5f5126bb654d4b30ee6923d8,5f51606d7d1a393a11a09c0f,2,,,,,,mushroom,,,,,,,,,,,5,1,0,26,26,41,1,,,,,,,,,,,,,,,,,,,,,,,,,,,,,,,,,,,,,,,,,,,,,,,,,,,,,,,,,,,,,,,,,,,,,,,,,,,,,,,,,,,,,,,,,,,,,,
,,?,0.001245,0,,,,,,stimuli/images/PICTURE_564.png,BATH,59e91d78d4ab970001389c67,14/09/1954,2020-09-03_22h39.19.331,proactive2,2020.1.2,Win32,60,5f5126bb654d4b30ee6923d8,5f51606d7d1a393a11a09c0f,2,,,,,,spoon,,,,,,,,,,,3,1,0,27,27,26,1,,,,,,,,,,,,,,,,,,,,,,,,,,,,,,,,,,,,,,,,,,,,,,,,,,,,,,,,,,,,,,,,,,,,,,,,,,,,,,,,,,,,,,,,,,,,,,
,,?,0.001205,0,,,,,,stimuli/images/PICTURE_68.png,ROOF,59e91d78d4ab970001389c67,14/09/1954,2020-09-03_22h39.19.331,proactive2,2020.1.2,Win32,60,5f5126bb654d4b30ee6923d8,5f51606d7d1a393a11a09c0f,2,,,,,,candle,,,,,,,,,,,4,1,0,28,28,38,1,,,,,,,,,,,,,,,,,,,,,,,,,,,,,,,,,,,,,,,,,,,,,,,,,,,,,,,,,,,,,,,,,,,,,,,,,,,,,,,,,,,,,,,,,,,,,,
,,RIVER,3.89425,1,,,,,,stimuli/images/PICTURE_667.png,RIVER,59e91d78d4ab970001389c67,14/09/1954,2020-09-03_22h39.19.331,proactive2,2020.1.2,Win32,60,5f5126bb654d4b30ee6923d8,5f51606d7d1a393a11a09c0f,2,,,,,,daisy,,,,,,,,,,,2,1,0,29,29,10,1,,,,,,,,,,,,,,,,,,,,,,,,,,,,,,,,,,,,,,,,,,,,,,,,,,,,,,,,,,,,,,,,,,,,,,,,,,,,,,,,,,,,,,,,,,,,,,
,,?,0.002645,0,,,,,,stimuli/images/PICTURE_147.png,YEAR,59e91d78d4ab970001389c67,14/09/1954,2020-09-03_22h39.19.331,proactive2,2020.1.2,Win32,60,5f5126bb654d4b30ee6923d8,5f51606d7d1a393a11a09c0f,2,,,,,,hanger,,,,,,,,,,,3,1,0,30,30,21,1,,,,,,,,,,,,,,,,,,,,,,,,,,,,,,,,,,,,,,,,,,,,,,,,,,,,,,,,,,,,,,,,,,,,,,,,,,,,,,,,,,,,,,,,,,,,,,
,,?,0.001265,0,,,,,,stimuli/images/PICTURE_491.png,RIVER,59e91d78d4ab970001389c67,14/09/1954,2020-09-03_22h39.19.331,proactive2,2020.1.2,Win32,60,5f5126bb654d4b30ee6923d8,5f51606d7d1a393a11a09c0f,2,,,,,,rug,,,,,,,,,,,1,1,0,31,31,6,1,,,,,,,,,,,,,,,,,,,,,,,,,,,,,,,,,,,,,,,,,,,,,,,,,,,,,,,,,,,,,,,,,,,,,,,,,,,,,,,,,,,,,,,,,,,,,,
,,DUDE,4.23475,1,,,,,,stimuli/images/PICTURE_449.png,DUDE,59e91d78d4ab970001389c67,14/09/1954,2020-09-03_22h39.19.331,proactive2,2020.1.2,Win32,60,5f5126bb654d4b30ee6923d8,5f51606d7d1a393a11a09c0f,2,,,,,,bench,,,,,,,,,,,2,1,0,32,32,17,1,,,,,,,,,,,,,,,,,,,,,,,,,,,,,,,,,,,,,,,,,,,,,,,,,,,,,,,,,,,,,,,,,,,,,,,,,,,,,,,,,,,,,,,,,,,,,,
,,?,0.00246,0,,,,,,stimuli/images/PICTURE_203.png,GODS,59e91d78d4ab970001389c67,14/09/1954,2020-09-03_22h39.19.331,proactive2,2020.1.2,Win32,60,5f5126bb654d4b30ee6923d8,5f51606d7d1a393a11a09c0f,2,,,,,,cap,,,,,,,,,,,4,1,0,33,33,30,1,,,,,,,,,,,,,,,,,,,,,,,,,,,,,,,,,,,,,,,,,,,,,,,,,,,,,,,,,,,,,,,,,,,,,,,,,,,,,,,,,,,,,,,,,,,,,,
,,?,0.001675,0,,,,,,stimuli/images/PICTURE_405.png,YEAR,59e91d78d4ab970001389c67,14/09/1954,2020-09-03_22h39.19.331,proactive2,2020.1.2,Win32,60,5f5126bb654d4b30ee6923d8,5f51606d7d1a393a11a09c0f,2,,,,,,anchor,,,,,,,,,,,4,1,0,34,34,34,1,,,,,,,,,,,,,,,,,,,,,,,,,,,,,,,,,,,,,,,,,,,,,,,,,,,,,,,,,,,,,,,,,,,,,,,,,,,,,,,,,,,,,,,,,,,,,,
,,?,0.001555,0,,,,,,stimuli/images/PICTURE_403.png,RIVER,59e91d78d4ab970001389c67,14/09/1954,2020-09-03_22h39.19.331,proactive2,2020.1.2,Win32,60,5f5126bb654d4b30ee6923d8,5f51606d7d1a393a11a09c0f,2,,,,,,cathedral,,,,,,,,,,,5,1,0,35,35,40,1,,,,,,,,,,,,,,,,,,,,,,,,,,,,,,,,,,,,,,,,,,,,,,,,,,,,,,,,,,,,,,,,,,,,,,,,,,,,,,,,,,,,,,,,,,,,,,
,,?,0.002725,0,,,,,,stimuli/images/PICTURE_654.png,MONTH,59e91d78d4ab970001389c67,14/09/1954,2020-09-03_22h39.19.331,proactive2,2020.1.2,Win32,60,5f5126bb654d4b30ee6923d8,5f51606d7d1a393a11a09c0f,2,,,,,,pencil,,,,,,,,,,,3,1,0,36,36,29,1,,,,,,,,,,,,,,,,,,,,,,,,,,,,,,,,,,,,,,,,,,,,,,,,,,,,,,,,,,,,,,,,,,,,,,,,,,,,,,,,,,,,,,,,,,,,,,
,,?,0.000655,0,,,,,,stimuli/images/PICTURE_327.png,CASINO,59e91d78d4ab970001389c67,14/09/1954,2020-09-03_22h39.19.331,proactive2,2020.1.2,Win32,60,5f5126bb654d4b30ee6923d8,5f51606d7d1a393a11a09c0f,2,,,,,,helmet,,,,,,,,,,,3,1,0,37,37,20,1,,,,,,,,,,,,,,,,,,,,,,,,,,,,,,,,,,,,,,,,,,,,,,,,,,,,,,,,,,,,,,,,,,,,,,,,,,,,,,,,,,,,,,,,,,,,,,
,,?,0.00061,0,,,,,,stimuli/images/PICTURE_108.png,FLIGHT,59e91d78d4ab970001389c67,14/09/1954,2020-09-03_22h39.19.331,proactive2,2020.1.2,Win32,60,5f5126bb654d4b30ee6923d8,5f51606d7d1a393a11a09c0f,2,,,,,,calendar,,,,,,,,,,,6,1,0,38,38,59,1,,,,,,,,,,,,,,,,,,,,,,,,,,,,,,,,,,,,,,,,,,,,,,,,,,,,,,,,,,,,,,,,,,,,,,,,,,,,,,,,,,,,,,,,,,,,,,
,,?,0.000595,0,,,,,,stimuli/images/PICTURE_147.png,WOMEN,59e91d78d4ab970001389c67,14/09/1954,2020-09-03_22h39.19.331,proactive2,2020.1.2,Win32,60,5f5126bb654d4b30ee6923d8,5f51606d7d1a393a11a09c0f,2,,,,,,hanger,,,,,,,,,,,1,1,0,39,39,7,1,,,,,,,,,,,,,,,,,,,,,,,,,,,,,,,,,,,,,,,,,,,,,,,,,,,,,,,,,,,,,,,,,,,,,,,,,,,,,,,,,,,,,,,,,,,,,,
,,?,0.000785,0,,,,,,stimuli/images/PICTURE_57.png,MOMENT,59e91d78d4ab970001389c67,14/09/1954,2020-09-03_22h39.19.331,proactive2,2020.1.2,Win32,60,5f5126bb654d4b30ee6923d8,5f51606d7d1a393a11a09c0f,2,,,,,,stamp,,,,,,,,,,,4,1,0,40,40,37,1,,,,,,,,,,,,,,,,,,,,,,,,,,,,,,,,,,,,,,,,,,,,,,,,,,,,,,,,,,,,,,,,,,,,,,,,,,,,,,,,,,,,,,,,,,,,,,
,,?,0.00063,0,,,,,,stimuli/images/PICTURE_467.png,POLICY,59e91d78d4ab970001389c67,14/09/1954,2020-09-03_22h39.19.331,proactive2,2020.1.2,Win32,60,5f5126bb654d4b30ee6923d8,5f51606d7d1a393a11a09c0f,2,,,,,,peg,,,,,,,,,,,6,1,0,41,41,53,1,,,,,,,,,,,,,,,,,,,,,,,,,,,,,,,,,,,,,,,,,,,,,,,,,,,,,,,,,,,,,,,,,,,,,,,,,,,,,,,,,,,,,,,,,,,,,,
,,?,0.00073,0,,,,,,stimuli/images/PICTURE_677.png,APPLE,59e91d78d4ab970001389c67,14/09/1954,2020-09-03_22h39.19.331,proactive2,2020.1.2,Win32,60,5f5126bb654d4b30ee6923d8,5f51606d7d1a393a11a09c0f,2,,,,,,map,,,,,,,,,,,5,1,0,42,42,43,1,,,,,,,,,,,,,,,,,,,,,,,,,,,,,,,,,,,,,,,,,,,,,,,,,,,,,,,,,,,,,,,,,,,,,,,,,,,,,,,,,,,,,,,,,,,,,,
,,?,0.000595,0,,,,,,stimuli/images/PICTURE_32.png,KIND,59e91d78d4ab970001389c67,14/09/1954,2020-09-03_22h39.19.331,proactive2,2020.1.2,Win32,60,5f5126bb654d4b30ee6923d8,5f51606d7d1a393a11a09c0f,2,,,,,,crown,,,,,,,,,,,4,1,0,43,43,35,1,,,,,,,,,,,,,,,,,,,,,,,,,,,,,,,,,,,,,,,,,,,,,,,,,,,,,,,,,,,,,,,,,,,,,,,,,,,,,,,,,,,,,,,,,,,,,,
,,?,0.000645,0,,,,,,stimuli/images/PICTURE_297.png,RIVER,59e91d78d4ab970001389c67,14/09/1954,2020-09-03_22h39.19.331,proactive2,2020.1.2,Win32,60,5f5126bb654d4b30ee6923d8,5f51606d7d1a393a11a09c0f,2,,,,,,aeroplane,,,,,,,,,,,4,1,0,44,44,39,1,,,,,,,,,,,,,,,,,,,,,,,,,,,,,,,,,,,,,,,,,,,,,,,,,,,,,,,,,,,,,,,,,,,,,,,,,,,,,,,,,,,,,,,,,,,,,,
,,?,0.000835,0,,,,,,stimuli/images/PICTURE_405.png,PLENTY,59e91d78d4ab970001389c67,14/09/1954,2020-09-03_22h39.19.331,proactive2,2020.1.2,Win32,60,5f5126bb654d4b30ee6923d8,5f51606d7d1a393a11a09c0f,2,,,,,,anchor,,,,,,,,,,,3,1,0,45,45,23,1,,,,,,,,,,,,,,,,,,,,,,,,,,,,,,,,,,,,,,,,,,,,,,,,,,,,,,,,,,,,,,,,,,,,,,,,,,,,,,,,,,,,,,,,,,,,,,
,,FLIGHT,5.46101,0,,,,,,stimuli/images/PICTURE_504.png,YEAR,59e91d78d4ab970001389c67,14/09/1954,2020-09-03_22h39.19.331,proactive2,2020.1.2,Win32,60,5f5126bb654d4b30ee6923d8,5f51606d7d1a393a11a09c0f,2,,,,,,wheel,,,,,,,,,,,2,1,0,46,46,13,1,,,,,,,,,,,,,,,,,,,,,,,,,,,,,,,,,,,,,,,,,,,,,,,,,,,,,,,,,,,,,,,,,,,,,,,,,,,,,,,,,,,,,,,,,,,,,,
,,?,0.001635,0,,,,,,stimuli/images/PICTURE_744.png,WEAPON,59e91d78d4ab970001389c67,14/09/1954,2020-09-03_22h39.19.331,proactive2,2020.1.2,Win32,60,5f5126bb654d4b30ee6923d8,5f51606d7d1a393a11a09c0f,2,,,,,,ring,,,,,,,,,,,6,1,0,47,47,50,1,,,,,,,,,,,,,,,,,,,,,,,,,,,,,,,,,,,,,,,,,,,,,,,,,,,,,,,,,,,,,,,,,,,,,,,,,,,,,,,,,,,,,,,,,,,,,,
,,?,0.00101,0,,,,,,stimuli/images/PICTURE_403.png,WRITER,59e91d78d4ab970001389c67,14/09/1954,2020-09-03_22h39.19.331,proactive2,2020.1.2,Win32,60,5f5126bb654d4b30ee6923d8,5f51606d7d1a393a11a09c0f,2,,,,,,cathedral,,,,,,,,,,,4,1,0,48,48,31,1,,,,,,,,,,,,,,,,,,,,,,,,,,,,,,,,,,,,,,,,,,,,,,,,,,,,,,,,,,,,,,,,,,,,,,,,,,,,,,,,,,,,,,,,,,,,,,
,,?,0.00088,0,,,,,,stimuli/images/PICTURE_383.png,WRITER,59e91d78d4ab970001389c67,14/09/1954,2020-09-03_22h39.19.331,proactive2,2020.1.2,Win32,60,5f5126bb654d4b30ee6923d8,5f51606d7d1a393a11a09c0f,2,,,,,,coin,,,,,,,,,,,3,1,0,49,49,28,1,,,,,,,,,,,,,,,,,,,,,,,,,,,,,,,,,,,,,,,,,,,,,,,,,,,,,,,,,,,,,,,,,,,,,,,,,,,,,,,,,,,,,,,,,,,,,,
,,?,4.30169,0,,,,,,stimuli/images/PICTURE_469.png,AGENT,59e91d78d4ab970001389c67,14/09/1954,2020-09-03_22h39.19.331,proactive2,2020.1.2,Win32,60,5f5126bb654d4b30ee6923d8,5f51606d7d1a393a11a09c0f,2,,,,,,stool,,,,,,,,,,,2,1,0,50,50,16,1,,,,,,,,,,,,,,,,,,,,,,,,,,,,,,,,,,,,,,,,,,,,,,,,,,,,,,,,,,,,,,,,,,,,,,,,,,,,,,,,,,,,,,,,,,,,,,
,,?,0.002315,0,,,,,,stimuli/images/PICTURE_285.png,LIFE,59e91d78d4ab970001389c67,14/09/1954,2020-09-03_22h39.19.331,proactive2,2020.1.2,Win32,60,5f5126bb654d4b30ee6923d8,5f51606d7d1a393a11a09c0f,2,,,,,,carrot,,,,,,,,,,,4,1,0,51,51,33,1,,,,,,,,,,,,,,,,,,,,,,,,,,,,,,,,,,,,,,,,,,,,,,,,,,,,,,,,,,,,,,,,,,,,,,,,,,,,,,,,,,,,,,,,,,,,,,
,,?,0.00176,0,,,,,,stimuli/images/PICTURE_296.png,LIFE,59e91d78d4ab970001389c67,14/09/1954,2020-09-03_22h39.19.331,proactive2,2020.1.2,Win32,60,5f5126bb654d4b30ee6923d8,5f51606d7d1a393a11a09c0f,2,,,,,,bolt,,,,,,,,,,,6,1,0,52,52,57,1,,,,,,,,,,,,,,,,,,,,,,,,,,,,,,,,,,,,,,,,,,,,,,,,,,,,,,,,,,,,,,,,,,,,,,,,,,,,,,,,,,,,,,,,,,,,,,
,,?,0.00129,0,,,,,,stimuli/images/PICTURE_504.png,ARTIST,59e91d78d4ab970001389c67,14/09/1954,2020-09-03_22h39.19.331,proactive2,2020.1.2,Win32,60,5f5126bb654d4b30ee6923d8,5f51606d7d1a393a11a09c0f,2,,,,,,wheel,,,,,,,,,,,5,1,0,53,53,49,1,,,,,,,,,,,,,,,,,,,,,,,,,,,,,,,,,,,,,,,,,,,,,,,,,,,,,,,,,,,,,,,,,,,,,,,,,,,,,,,,,,,,,,,,,,,,,,
,,?,0.001455,0,,,,,,stimuli/images/PICTURE_85.png,TOILET,59e91d78d4ab970001389c67,14/09/1954,2020-09-03_22h39.19.331,proactive2,2020.1.2,Win32,60,5f5126bb654d4b30ee6923d8,5f51606d7d1a393a11a09c0f,2,,,,,,diamond,,,,,,,,,,,5,1,0,54,54,48,1,,,,,,,,,,,,,,,,,,,,,,,,,,,,,,,,,,,,,,,,,,,,,,,,,,,,,,,,,,,,,,,,,,,,,,,,,,,,,,,,,,,,,,,,,,,,,,
,,?,0.0013,0,,,,,,stimuli/images/PICTURE_108.png,POLICY,59e91d78d4ab970001389c67,14/09/1954,2020-09-03_22h39.19.331,proactive2,2020.1.2,Win32,60,5f5126bb654d4b30ee6923d8,5f51606d7d1a393a11a09c0f,2,,,,,,calendar,,,,,,,,,,,3,1,0,55,55,22,1,,,,,,,,,,,,,,,,,,,,,,,,,,,,,,,,,,,,,,,,,,,,,,,,,,,,,,,,,,,,,,,,,,,,,,,,,,,,,,,,,,,,,,,,,,,,,,
,,?,0.001285,0,,,,,,stimuli/images/PICTURE_340.png,VALLEY,59e91d78d4ab970001389c67,14/09/1954,2020-09-03_22h39.19.331,proactive2,2020.1.2,Win32,60,5f5126bb654d4b30ee6923d8,5f51606d7d1a393a11a09c0f,2,,,,,,mirror,,,,,,,,,,,6,1,0,56,56,54,1,,,,,,,,,,,,,,,,,,,,,,,,,,,,,,,,,,,,,,,,,,,,,,,,,,,,,,,,,,,,,,,,,,,,,,,,,,,,,,,,,,,,,,,,,,,,,,
,,?,0.00172,0,,,,,,stimuli/images/PICTURE_95.png,MILLER,59e91d78d4ab970001389c67,14/09/1954,2020-09-03_22h39.19.331,proactive2,2020.1.2,Win32,60,5f5126bb654d4b30ee6923d8,5f51606d7d1a393a11a09c0f,2,,,,,,suitcase,,,,,,,,,,,6,1,0,57,57,56,1,,,,,,,,,,,,,,,,,,,,,,,,,,,,,,,,,,,,,,,,,,,,,,,,,,,,,,,,,,,,,,,,,,,,,,,,,,,,,,,,,,,,,,,,,,,,,,
,,?,0.001535,0,,,,,,stimuli/images/PICTURE_68.png,MILE,59e91d78d4ab970001389c67,14/09/1954,2020-09-03_22h39.19.331,proactive2,2020.1.2,Win32,60,5f5126bb654d4b30ee6923d8,5f51606d7d1a393a11a09c0f,2,,,,,,candle,,,,,,,,,,,6,1,0,58,58,51,1,,,,,,,,,,,,,,,,,,,,,,,,,,,,,,,,,,,,,,,,,,,,,,,,,,,,,,,,,,,,,,,,,,,,,,,,,,,,,,,,,,,,,,,,,,,,,,
,,?,0.0008,0,,,,,,stimuli/images/PICTURE_95.png,HONEY,59e91d78d4ab970001389c67,14/09/1954,2020-09-03_22h39.19.331,proactive2,2020.1.2,Win32,60,5f5126bb654d4b30ee6923d8,5f51606d7d1a393a11a09c0f,2,,,,,,suitcase,,,,,,,,,,,5,1,0,59,59,44,1,,,,,,,,,,,,,,,,,,,,,,,,,,,,,,,,,,,,,,,,,,,,,,,,,,,,,,,,,,,,,,,,,,,,,,,,,,,,,,,,,,,,,,,,,,,,,,
,,,,,,,,,,,,59e91d78d4ab970001389c67,14/09/1954,2020-09-03_22h39.19.331,proactive2,2020.1.2,Win32,60,5f5126bb654d4b30ee6923d8,5f51606d7d1a393a11a09c0f,2,,,,,,,,,,,,,,,,,,,,,,,,0,1,1,1,1,stimuli/learn-block2.csv,,,,,,,,,,,,,,,,,,,,,,,,,,,,,,,,,,,,,,,,,,,,,,,,,,,,,,,,,,,,,,,,,,,,,,,,,,,,,,,,,,,,,,,,
,,,,,,,,,,stimuli/images/PICTURE_488.png,STYLE,59e91d78d4ab970001389c67,14/09/1954,2020-09-03_22h39.19.331,proactive2,2020.1.2,Win32,60,5f5126bb654d4b30ee6923d8,5f51606d7d1a393a11a09c0f,2,,,,,,sun,,,,,,0,0,0,33,1,4,0,,,,,,,,,,,,,,,,,,,,,,,,,,,,,,,,,,,,,,,,,,,,,,,,,,,,,,,,,,,,,,,,,,,,,,,,,,,,,,,,,,,,,,,,,,,,,,,,,,,
,,,,,,,,,,stimuli/images/PICTURE_708.png,YARD,59e91d78d4ab970001389c67,14/09/1954,2020-09-03_22h39.19.331,proactive2,2020.1.2,Win32,60,5f5126bb654d4b30ee6923d8,5f51606d7d1a393a11a09c0f,2,,,,,,monkey,,,,,,0,1,1,29,1,3,0,,,,,,,,,,,,,,,,,,,,,,,,,,,,,,,,,,,,,,,,,,,,,,,,,,,,,,,,,,,,,,,,,,,,,,,,,,,,,,,,,,,,,,,,,,,,,,,,,,,
,,,,,,,,,,stimuli/images/PICTURE_311.png,FRIEND,59e91d78d4ab970001389c67,14/09/1954,2020-09-03_22h39.19.331,proactive2,2020.1.2,Win32,60,5f5126bb654d4b30ee6923d8,5f51606d7d1a393a11a09c0f,2,,,,,,razor,,,,,,0,2,2,34,1,4,0,,,,,,,,,,,,,,,,,,,,,,,,,,,,,,,,,,,,,,,,,,,,,,,,,,,,,,,,,,,,,,,,,,,,,,,,,,,,,,,,,,,,,,,,,,,,,,,,,,,
,,,,,,,,,,stimuli/images/PICTURE_215.png,PLENTY,59e91d78d4ab970001389c67,14/09/1954,2020-09-03_22h39.19.331,proactive2,2020.1.2,Win32,60,5f5126bb654d4b30ee6923d8,5f51606d7d1a393a11a09c0f,2,,,,,,boot,,,,,,0,3,3,37,1,4,0,,,,,,,,,,,,,,,,,,,,,,,,,,,,,,,,,,,,,,,,,,,,,,,,,,,,,,,,,,,,,,,,,,,,,,,,,,,,,,,,,,,,,,,,,,,,,,,,,,,
,,,,,,,,,,stimuli/images/PICTURE_491.png,WRITER,59e91d78d4ab970001389c67,14/09/1954,2020-09-03_22h39.19.331,proactive2,2020.1.2,Win32,60,5f5126bb654d4b30ee6923d8,5f51606d7d1a393a11a09c0f,2,,,,,,rug,,,,,,0,4,4,57,1,6,0,,,,,,,,,,,,,,,,,,,,,,,,,,,,,,,,,,,,,,,,,,,,,,,,,,,,,,,,,,,,,,,,,,,,,,,,,,,,,,,,,,,,,,,,,,,,,,,,,,,
,,,,,,,,,,stimuli/images/PICTURE_160.png,FEET,59e91d78d4ab970001389c67,14/09/1954,2020-09-03_22h39.19.331,proactive2,2020.1.2,Win32,60,5f5126bb654d4b30ee6923d8,5f51606d7d1a393a11a09c0f,2,,,,,,wheelbarrow,,,,,,0,5,5,58,1,6,0,,,,,,,,,,,,,,,,,,,,,,,,,,,,,,,,,,,,,,,,,,,,,,,,,,,,,,,,,,,,,,,,,,,,,,,,,,,,,,,,,,,,,,,,,,,,,,,,,,,
,,,,,,,,,,stimuli/images/PICTURE_233.png,IDEAS,59e91d78d4ab970001389c67,14/09/1954,2020-09-03_22h39.19.331,proactive2,2020.1.2,Win32,60,5f5126bb654d4b30ee6923d8,5f51606d7d1a393a11a09c0f,2,,,,,,salt,,,,,,0,6,6,28,1,3,0,,,,,,,,,,,,,,,,,,,,,,,,,,,,,,,,,,,,,,,,,,,,,,,,,,,,,,,,,,,,,,,,,,,,,,,,,,,,,,,,,,,,,,,,,,,,,,,,,,,
,,,,,,,,,,stimuli/images/PICTURE_504.png,BODY,59e91d78d4ab970001389c67,14/09/1954,2020-09-03_22h39.19.331,proactive2,2020.1.2,Win32,60,5f5126bb654d4b30ee6923d8,5f51606d7d1a393a11a09c0f,2,,,,,,wheel,,,,,,0,7,7,8,1,1,0,,,,,,,,,,,,,,,,,,,,,,,,,,,,,,,,,,,,,,,,,,,,,,,,,,,,,,,,,,,,,,,,,,,,,,,,,,,,,,,,,,,,,,,,,,,,,,,,,,,
,,,,,,,,,,stimuli/images/PICTURE_339.png,PLENTY,59e91d78d4ab970001389c67,14/09/1954,2020-09-03_22h39.19.331,proactive2,2020.1.2,Win32,60,5f5126bb654d4b30ee6923d8,5f51606d7d1a393a11a09c0f,2,,,,,,backpack,,,,,,0,8,8,0,1,1,0,,,,,,,,,,,,,,,,,,,,,,,,,,,,,,,,,,,,,,,,,,,,,,,,,,,,,,,,,,,,,,,,,,,,,,,,,,,,,,,,,,,,,,,,,,,,,,,,,,,
,,,,,,,,,,stimuli/images/PICTURE_675.png,WEAPON,59e91d78d4ab970001389c67,14/09/1954,2020-09-03_22h39.19.331,proactive2,2020.1.2,Win32,60,5f5126bb654d4b30ee6923d8,5f51606d7d1a393a11a09c0f,2,,,,,,windmill,,,,,,0,9,9,32,1,4,0,,,,,,,,,,,,,,,,,,,,,,,,,,,,,,,,,,,,,,,,,,,,,,,,,,,,,,,,,,,,,,,,,,,,,,,,,,,,,,,,,,,,,,,,,,,,,,,,,,,
,,,,,,,,,,stimuli/images/PICTURE_453.png,DUDE,59e91d78d4ab970001389c67,14/09/1954,2020-09-03_22h39.19.331,proactive2,2020.1.2,Win32,60,5f5126bb654d4b30ee6923d8,5f51606d7d1a393a11a09c0f,2,,,,,,scissors,,,,,,0,10,10,27,1,3,0,,,,,,,,,,,,,,,,,,,,,,,,,,,,,,,,,,,,,,,,,,,,,,,,,,,,,,,,,,,,,,,,,,,,,,,,,,,,,,,,,,,,,,,,,,,,,,,,,,,
,,,,,,,,,,stimuli/images/PICTURE_208.png,THING,59e91d78d4ab970001389c67,14/09/1954,2020-09-03_22h39.19.331,proactive2,2020.1.2,Win32,60,5f5126bb654d4b30ee6923d8,5f51606d7d1a393a11a09c0f,2,,,,,,microphone,,,,,,0,11,11,47,1,5,0,,,,,,,,,,,,,,,,,,,,,,,,,,,,,,,,,,,,,,,,,,,,,,,,,,,,,,,,,,,,,,,,,,,,,,,,,,,,,,,,,,,,,,,,,,,,,,,,,,,
,,,,,,,,,,stimuli/images/PICTURE_667.png,PLENTY,59e91d78d4ab970001389c67,14/09/1954,2020-09-03_22h39.19.331,proactive2,2020.1.2,Win32,60,5f5126bb654d4b30ee6923d8,5f51606d7d1a393a11a09c0f,2,,,,,,daisy,,,,,,0,12,12,41,1,5,0,,,,,,,,,,,,,,,,,,,,,,,,,,,,,,,,,,,,,,,,,,,,,,,,,,,,,,,,,,,,,,,,,,,,,,,,,,,,,,,,,,,,,,,,,,,,,,,,,,,
,,,,,,,,,,stimuli/images/PICTURE_123.png,ADVICE,59e91d78d4ab970001389c67,14/09/1954,2020-09-03_22h39.19.331,proactive2,2020.1.2,Win32,60,5f5126bb654d4b30ee6923d8,5f51606d7d1a393a11a09c0f,2,,,,,,dart,,,,,,0,13,13,50,1,6,0,,,,,,,,,,,,,,,,,,,,,,,,,,,,,,,,,,,,,,,,,,,,,,,,,,,,,,,,,,,,,,,,,,,,,,,,,,,,,,,,,,,,,,,,,,,,,,,,,,,
,,,,,,,,,,stimuli/images/PICTURE_380.png,DEATH,59e91d78d4ab970001389c67,14/09/1954,2020-09-03_22h39.19.331,proactive2,2020.1.2,Win32,60,5f5126bb654d4b30ee6923d8,5f51606d7d1a393a11a09c0f,2,,,,,,gorilla,,,,,,0,14,14,49,1,5,0,,,,,,,,,,,,,,,,,,,,,,,,,,,,,,,,,,,,,,,,,,,,,,,,,,,,,,,,,,,,,,,,,,,,,,,,,,,,,,,,,,,,,,,,,,,,,,,,,,,
,,,,,,,,,,stimuli/images/PICTURE_32.png,JUNGLE,59e91d78d4ab970001389c67,14/09/1954,2020-09-03_22h39.19.331,proactive2,2020.1.2,Win32,60,5f5126bb654d4b30ee6923d8,5f51606d7d1a393a11a09c0f,2,,,,,,crown,,,,,,0,15,15,45,1,5,0,,,,,,,,,,,,,,,,,,,,,,,,,,,,,,,,,,,,,,,,,,,,,,,,,,,,,,,,,,,,,,,,,,,,,,,,,,,,,,,,,,,,,,,,,,,,,,,,,,,
,,,,,,,,,,stimuli/images/PICTURE_203.png,ARTIST,59e91d78d4ab970001389c67,14/09/1954,2020-09-03_22h39.19.331,proactive2,2020.1.2,Win32,60,5f5126bb654d4b30ee6923d8,5f51606d7d1a393a11a09c0f,2,,,,,,cap,,,,,,0,16,16,26,1,3,0,,,,,,,,,,,,,,,,,,,,,,,,,,,,,,,,,,,,,,,,,,,,,,,,,,,,,,,,,,,,,,,,,,,,,,,,,,,,,,,,,,,,,,,,,,,,,,,,,,,
,,,,,,,,,,stimuli/images/PICTURE_469.png,ARTIST,59e91d78d4ab970001389c67,14/09/1954,2020-09-03_22h39.19.331,proactive2,2020.1.2,Win32,60,5f5126bb654d4b30ee6923d8,5f51606d7d1a393a11a09c0f,2,,,,,,stool,,,,,,0,17,17,6,1,1,0,,,,,,,,,,,,,,,,,,,,,,,,,,,,,,,,,,,,,,,,,,,,,,,,,,,,,,,,,,,,,,,,,,,,,,,,,,,,,,,,,,,,,,,,,,,,,,,,,,,
,,,,,,,,,,stimuli/images/PICTURE_248.png,DOZEN,59e91d78d4ab970001389c67,14/09/1954,2020-09-03_22h39.19.331,proactive2,2020.1.2,Win32,60,5f5126bb654d4b30ee6923d8,5f51606d7d1a393a11a09c0f,2,,,,,,cart,,,,,,0,18,18,39,1,4,0,,,,,,,,,,,,,,,,,,,,,,,,,,,,,,,,,,,,,,,,,,,,,,,,,,,,,,,,,,,,,,,,,,,,,,,,,,,,,,,,,,,,,,,,,,,,,,,,,,,
,,,,,,,,,,stimuli/images/PICTURE_744.png,SAKE,59e91d78d4ab970001389c67,14/09/1954,2020-09-03_22h39.19.331,proactive2,2020.1.2,Win32,60,5f5126bb654d4b30ee6923d8,5f51606d7d1a393a11a09c0f,2,,,,,,ring,,,,,,0,19,19,17,1,2,0,,,,,,,,,,,,,,,,,,,,,,,,,,,,,,,,,,,,,,,,,,,,,,,,,,,,,,,,,,,,,,,,,,,,,,,,,,,,,,,,,,,,,,,,,,,,,,,,,,,
,,,,,,,,,,stimuli/images/PICTURE_308.png,ESTATE,59e91d78d4ab970001389c67,14/09/1954,2020-09-03_22h39.19.331,proactive2,2020.1.2,Win32,60,5f5126bb654d4b30ee6923d8,5f51606d7d1a393a11a09c0f,2,,,,,,dice,,,,,,0,20,20,46,1,5,0,,,,,,,,,,,,,,,,,,,,,,,,,,,,,,,,,,,,,,,,,,,,,,,,,,,,,,,,,,,,,,,,,,,,,,,,,,,,,,,,,,,,,,,,,,,,,,,,,,,
,,,,,,,,,,stimuli/images/PICTURE_285.png,ADVICE,59e91d78d4ab970001389c67,14/09/1954,2020-09-03_22h39.19.331,proactive2,2020.1.2,Win32,60,5f5126bb654d4b30ee6923d8,5f51606d7d1a393a11a09c0f,2,,,,,,carrot,,,,,,0,21,21,12,1,2,0,,,,,,,,,,,,,,,,,,,,,,,,,,,,,,,,,,,,,,,,,,,,,,,,,,,,,,,,,,,,,,,,,,,,,,,,,,,,,,,,,,,,,,,,,,,,,,,,,,,
,,,,,,,,,,stimuli/images/PICTURE_708.png,CLIENT,59e91d78d4ab970001389c67,14/09/1954,2020-09-03_22h39.19.331,proactive2,2020.1.2,Win32,60,5f5126bb654d4b30ee6923d8,5f51606d7d1a393a11a09c0f,2,,,,,,monkey,,,,,,0,22,22,5,1,1,0,,,,,,,,,,,,,,,,,,,,,,,,,,,,,,,,,,,,,,,,,,,,,,,,,,,,,,,,,,,,,,,,,,,,,,,,,,,,,,,,,,,,,,,,,,,,,,,,,,,
,,,,,,,,,,stimuli/images/PICTURE_509.png,PHOTO,59e91d78d4ab970001389c67,14/09/1954,2020-09-03_22h39.19.331,proactive2,2020.1.2,Win32,60,5f5126bb654d4b30ee6923d8,5f51606d7d1a393a11a09c0f,2,,,,,,telephone,,,,,,0,23,23,21,1,3,0,,,,,,,,,,,,,,,,,,,,,,,,,,,,,,,,,,,,,,,,,,,,,,,,,,,,,,,,,,,,,,,,,,,,,,,,,,,,,,,,,,,,,,,,,,,,,,,,,,,
,,,,,,,,,,stimuli/images/PICTURE_348.png,SPEECH,59e91d78d4ab970001389c67,14/09/1954,2020-09-03_22h39.19.331,proactive2,2020.1.2,Win32,60,5f5126bb654d4b30ee6923d8,5f51606d7d1a393a11a09c0f,2,,,,,,pepper,,,,,,0,24,24,20,1,3,0,,,,,,,,,,,,,,,,,,,,,,,,,,,,,,,,,,,,,,,,,,,,,,,,,,,,,,,,,,,,,,,,,,,,,,,,,,,,,,,,,,,,,,,,,,,,,,,,,,,
,,,,,,,,,,stimuli/images/PICTURE_68.png,MILE,59e91d78d4ab970001389c67,14/09/1954,2020-09-03_22h39.19.331,proactive2,2020.1.2,Win32,60,5f5126bb654d4b30ee6923d8,5f51606d7d1a393a11a09c0f,2,,,,,,candle,,,,,,0,25,25,44,1,5,0,,,,,,,,,,,,,,,,,,,,,,,,,,,,,,,,,,,,,,,,,,,,,,,,,,,,,,,,,,,,,,,,,,,,,,,,,,,,,,,,,,,,,,,,,,,,,,,,,,,
,,,,,,,,,,stimuli/images/PICTURE_314.png,GODS,59e91d78d4ab970001389c67,14/09/1954,2020-09-03_22h39.19.331,proactive2,2020.1.2,Win32,60,5f5126bb654d4b30ee6923d8,5f51606d7d1a393a11a09c0f,2,,,,,,perfume,,,,,,0,26,26,11,1,2,0,,,,,,,,,,,,,,,,,,,,,,,,,,,,,,,,,,,,,,,,,,,,,,,,,,,,,,,,,,,,,,,,,,,,,,,,,,,,,,,,,,,,,,,,,,,,,,,,,,,
,,,,,,,,,,stimuli/images/PICTURE_487.png,FLIGHT,59e91d78d4ab970001389c67,14/09/1954,2020-09-03_22h39.19.331,proactive2,2020.1.2,Win32,60,5f5126bb654d4b30ee6923d8,5f51606d7d1a393a11a09c0f,2,,,,,,basket,,,,,,0,27,27,9,1,1,0,,,,,,,,,,,,,,,,,,,,,,,,,,,,,,,,,,,,,,,,,,,,,,,,,,,,,,,,,,,,,,,,,,,,,,,,,,,,,,,,,,,,,,,,,,,,,,,,,,,
,,,,,,,,,,stimuli/images/PICTURE_308.png,KIND,59e91d78d4ab970001389c67,14/09/1954,2020-09-03_22h39.19.331,proactive2,2020.1.2,Win32,60,5f5126bb654d4b30ee6923d8,5f51606d7d1a393a11a09c0f,2,,,,,,dice,,,,,,0,28,28,54,1,6,0,,,,,,,,,,,,,,,,,,,,,,,,,,,,,,,,,,,,,,,,,,,,,,,,,,,,,,,,,,,,,,,,,,,,,,,,,,,,,,,,,,,,,,,,,,,,,,,,,,,
,,,,,,,,,,stimuli/images/PICTURE_208.png,MONTH,59e91d78d4ab970001389c67,14/09/1954,2020-09-03_22h39.19.331,proactive2,2020.1.2,Win32,60,5f5126bb654d4b30ee6923d8,5f51606d7d1a393a11a09c0f,2,,,,,,microphone,,,,,,0,29,29,53,1,6,0,,,,,,,,,,,,,,,,,,,,,,,,,,,,,,,,,,,,,,,,,,,,,,,,,,,,,,,,,,,,,,,,,,,,,,,,,,,,,,,,,,,,,,,,,,,,,,,,,,,
,,,,,,,,,,stimuli/images/PICTURE_469.png,LETTER,59e91d78d4ab970001389c67,14/09/1954,2020-09-03_22h39.19.331,proactive2,2020.1.2,Win32,60,5f5126bb654d4b30ee6923d8,5f51606d7d1a393a11a09c0f,2,,,,,,stool,,,,,,0,30,30,42,1,5,0,,,,,,,,,,,,,,,,,,,,,,,,,,,,,,,,,,,,,,,,,,,,,,,,,,,,,,,,,,,,,,,,,,,,,,,,,,,,,,,,,,,,,,,,,,,,,,,,,,,
,,,,,,,,,,stimuli/images/PICTURE_147.png,MOMENT,59e91d78d4ab970001389c67,14/09/1954,2020-09-03_22h39.19.331,proactive2,2020.1.2,Win32,60,5f5126bb654d4b30ee6923d8,5f51606d7d1a393a11a09c0f,2,,,,,,hanger,,,,,,0,31,31,51,1,6,0,,,,,,,,,,,,,,,,,,,,,,,,,,,,,,,,,,,,,,,,,,,,,,,,,,,,,,,,,,,,,,,,,,,,,,,,,,,,,,,,,,,,,,,,,,,,,,,,,,,
,,,,,,,,,,stimuli/images/PICTURE_677.png,MILE,59e91d78d4ab970001389c67,14/09/1954,2020-09-03_22h39.19.331,proactive2,2020.1.2,Win32,60,5f5126bb654d4b30ee6923d8,5f51606d7d1a393a11a09c0f,2,,,,,,map,,,,,,0,32,32,30,1,4,0,,,,,,,,,,,,,,,,,,,,,,,,,,,,,,,,,,,,,,,,,,,,,,,,,,,,,,,,,,,,,,,,,,,,,,,,,,,,,,,,,,,,,,,,,,,,,,,,,,,
,,,,,,,,,,stimuli/images/PICTURE_708.png,PENNY,59e91d78d4ab970001389c67,14/09/1954,2020-09-03_22h39.19.331,proactive2,2020.1.2,Win32,60,5f5126bb654d4b30ee6923d8,5f51606d7d1a393a11a09c0f,2,,,,,,monkey,,,,,,0,33,33,31,1,4,0,,,,,,,,,,,,,,,,,,,,,,,,,,,,,,,,,,,,,,,,,,,,,,,,,,,,,,,,,,,,,,,,,,,,,,,,,,,,,,,,,,,,,,,,,,,,,,,,,,,
,,,,,,,,,,stimuli/images/PICTURE_467.png,DEMON,59e91d78d4ab970001389c67,14/09/1954,2020-09-03_22h39.19.331,proactive2,2020.1.2,Win32,60,5f5126bb654d4b30ee6923d8,5f51606d7d1a393a11a09c0f,2,,,,,,peg,,,,,,0,34,34,23,1,3,0,,,,,,,,,,,,,,,,,,,,,,,,,,,,,,,,,,,,,,,,,,,,,,,,,,,,,,,,,,,,,,,,,,,,,,,,,,,,,,,,,,,,,,,,,,,,,,,,,,,
,,,,,,,,,,stimuli/images/PICTURE_85.png,THING,59e91d78d4ab970001389c67,14/09/1954,2020-09-03_22h39.19.331,proactive2,2020.1.2,Win32,60,5f5126bb654d4b30ee6923d8,5f51606d7d1a393a11a09c0f,2,,,,,,diamond,,,,,,0,35,35,15,1,2,0,,,,,,,,,,,,,,,,,,,,,,,,,,,,,,,,,,,,,,,,,,,,,,,,,,,,,,,,,,,,,,,,,,,,,,,,,,,,,,,,,,,,,,,,,,,,,,,,,,,
,,,,,,,,,,stimuli/images/PICTURE_177.png,CARS,59e91d78d4ab970001389c67,14/09/1954,2020-09-03_22h39.19.331,proactive2,2020.1.2,Win32,60,5f5126bb654d4b30ee6923d8,5f51606d7d1a393a11a09c0f,2,,,,,,mushroom,,,,,,0,36,36,35,1,4,0,,,,,,,,,,,,,,,,,,,,,,,,,,,,,,,,,,,,,,,,,,,,,,,,,,,,,,,,,,,,,,,,,,,,,,,,,,,,,,,,,,,,,,,,,,,,,,,,,,,
,,,,,,,,,,stimuli/images/PICTURE_302.png,FAMILY,59e91d78d4ab970001389c67,14/09/1954,2020-09-03_22h39.19.331,proactive2,2020.1.2,Win32,60,5f5126bb654d4b30ee6923d8,5f51606d7d1a393a11a09c0f,2,,,,,,taxi,,,,,,0,37,37,18,1,2,0,,,,,,,,,,,,,,,,,,,,,,,,,,,,,,,,,,,,,,,,,,,,,,,,,,,,,,,,,,,,,,,,,,,,,,,,,,,,,,,,,,,,,,,,,,,,,,,,,,,
,,,,,,,,,,stimuli/images/PICTURE_667.png,BATH,59e91d78d4ab970001389c67,14/09/1954,2020-09-03_22h39.19.331,proactive2,2020.1.2,Win32,60,5f5126bb654d4b30ee6923d8,5f51606d7d1a393a11a09c0f,2,,,,,,daisy,,,,,,0,38,38,4,1,1,0,,,,,,,,,,,,,,,,,,,,,,,,,,,,,,,,,,,,,,,,,,,,,,,,,,,,,,,,,,,,,,,,,,,,,,,,,,,,,,,,,,,,,,,,,,,,,,,,,,,
,,,,,,,,,,stimuli/images/PICTURE_692.png,MONTH,59e91d78d4ab970001389c67,14/09/1954,2020-09-03_22h39.19.331,proactive2,2020.1.2,Win32,60,5f5126bb654d4b30ee6923d8,5f51606d7d1a393a11a09c0f,2,,,,,,cherry,,,,,,0,39,39,16,1,2,0,,,,,,,,,,,,,,,,,,,,,,,,,,,,,,,,,,,,,,,,,,,,,,,,,,,,,,,,,,,,,,,,,,,,,,,,,,,,,,,,,,,,,,,,,,,,,,,,,,,
,,,,,,,,,,stimuli/images/PICTURE_233.png,WOMEN,59e91d78d4ab970001389c67,14/09/1954,2020-09-03_22h39.19.331,proactive2,2020.1.2,Win32,60,5f5126bb654d4b30ee6923d8,5f51606d7d1a393a11a09c0f,2,,,,,,salt,,,,,,0,40,40,38,1,4,0,,,,,,,,,,,,,,,,,,,,,,,,,,,,,,,,,,,,,,,,,,,,,,,,,,,,,,,,,,,,,,,,,,,,,,,,,,,,,,,,,,,,,,,,,,,,,,,,,,,
,,,,,,,,,,stimuli/images/PICTURE_160.png,LEADER,59e91d78d4ab970001389c67,14/09/1954,2020-09-03_22h39.19.331,proactive2,2020.1.2,Win32,60,5f5126bb654d4b30ee6923d8,5f51606d7d1a393a11a09c0f,2,,,,,,wheelbarrow,,,,,,0,41,41,3,1,1,0,,,,,,,,,,,,,,,,,,,,,,,,,,,,,,,,,,,,,,,,,,,,,,,,,,,,,,,,,,,,,,,,,,,,,,,,,,,,,,,,,,,,,,,,,,,,,,,,,,,
,,,,,,,,,,stimuli/images/PICTURE_356.png,DANGER,59e91d78d4ab970001389c67,14/09/1954,2020-09-03_22h39.19.331,proactive2,2020.1.2,Win32,60,5f5126bb654d4b30ee6923d8,5f51606d7d1a393a11a09c0f,2,,,,,,pawn,,,,,,0,42,42,55,1,6,0,,,,,,,,,,,,,,,,,,,,,,,,,,,,,,,,,,,,,,,,,,,,,,,,,,,,,,,,,,,,,,,,,,,,,,,,,,,,,,,,,,,,,,,,,,,,,,,,,,,
,,,,,,,,,,stimuli/images/PICTURE_123.png,ADVICE,59e91d78d4ab970001389c67,14/09/1954,2020-09-03_22h39.19.331,proactive2,2020.1.2,Win32,60,5f5126bb654d4b30ee6923d8,5f51606d7d1a393a11a09c0f,2,,,,,,dart,,,,,,0,43,43,40,1,5,0,,,,,,,,,,,,,,,,,,,,,,,,,,,,,,,,,,,,,,,,,,,,,,,,,,,,,,,,,,,,,,,,,,,,,,,,,,,,,,,,,,,,,,,,,,,,,,,,,,,
,,,,,,,,,,stimuli/images/PICTURE_327.png,BEAUTY,59e91d78d4ab970001389c67,14/09/1954,2020-09-03_22h39.19.331,proactive2,2020.1.2,Win32,60,5f5126bb654d4b30ee6923d8,5f51606d7d1a393a11a09c0f,2,,,,,,helmet,,,,,,0,44,44,48,1,5,0,,,,,,,,,,,,,,,,,,,,,,,,,,,,,,,,,,,,,,,,,,,,,,,,,,,,,,,,,,,,,,,,,,,,,,,,,,,,,,,,,,,,,,,,,,,,,,,,,,,
,,,,,,,,,,stimuli/images/PICTURE_255.png,AREA,59e91d78d4ab970001389c67,14/09/1954,2020-09-03_22h39.19.331,proactive2,2020.1.2,Win32,60,5f5126bb654d4b30ee6923d8,5f51606d7d1a393a11a09c0f,2,,,,,,shovel,,,,,,0,45,45,22,1,3,0,,,,,,,,,,,,,,,,,,,,,,,,,,,,,,,,,,,,,,,,,,,,,,,,,,,,,,,,,,,,,,,,,,,,,,,,,,,,,,,,,,,,,,,,,,,,,,,,,,,
,,,,,,,,,,stimuli/images/PICTURE_208.png,LOTS,59e91d78d4ab970001389c67,14/09/1954,2020-09-03_22h39.19.331,proactive2,2020.1.2,Win32,60,5f5126bb654d4b30ee6923d8,5f51606d7d1a393a11a09c0f,2,,,,,,microphone,,,,,,0,46,46,10,1,2,0,,,,,,,,,,,,,,,,,,,,,,,,,,,,,,,,,,,,,,,,,,,,,,,,,,,,,,,,,,,,,,,,,,,,,,,,,,,,,,,,,,,,,,,,,,,,,,,,,,,
,,,,,,,,,,stimuli/images/PICTURE_654.png,VALLEY,59e91d78d4ab970001389c67,14/09/1954,2020-09-03_22h39.19.331,proactive2,2020.1.2,Win32,60,5f5126bb654d4b30ee6923d8,5f51606d7d1a393a11a09c0f,2,,,,,,pencil,,,,,,0,47,47,1,1,1,0,,,,,,,,,,,,,,,,,,,,,,,,,,,,,,,,,,,,,,,,,,,,,,,,,,,,,,,,,,,,,,,,,,,,,,,,,,,,,,,,,,,,,,,,,,,,,,,,,,,
,,,,,,,,,,stimuli/images/PICTURE_688.png,CASINO,59e91d78d4ab970001389c67,14/09/1954,2020-09-03_22h39.19.331,proactive2,2020.1.2,Win32,60,5f5126bb654d4b30ee6923d8,5f51606d7d1a393a11a09c0f,2,,,,,,runner,,,,,,0,48,48,2,1,1,0,,,,,,,,,,,,,,,,,,,,,,,,,,,,,,,,,,,,,,,,,,,,,,,,,,,,,,,,,,,,,,,,,,,,,,,,,,,,,,,,,,,,,,,,,,,,,,,,,,,
,,,,,,,,,,stimuli/images/PICTURE_95.png,STYLE,59e91d78d4ab970001389c67,14/09/1954,2020-09-03_22h39.19.331,proactive2,2020.1.2,Win32,60,5f5126bb654d4b30ee6923d8,5f51606d7d1a393a11a09c0f,2,,,,,,suitcase,,,,,,0,49,49,25,1,3,0,,,,,,,,,,,,,,,,,,,,,,,,,,,,,,,,,,,,,,,,,,,,,,,,,,,,,,,,,,,,,,,,,,,,,,,,,,,,,,,,,,,,,,,,,,,,,,,,,,,
,,,,,,,,,,stimuli/images/PICTURE_470.png,CASINO,59e91d78d4ab970001389c67,14/09/1954,2020-09-03_22h39.19.331,proactive2,2020.1.2,Win32,60,5f5126bb654d4b30ee6923d8,5f51606d7d1a393a11a09c0f,2,,,,,,motorbike,,,,,,0,50,50,36,1,4,0,,,,,,,,,,,,,,,,,,,,,,,,,,,,,,,,,,,,,,,,,,,,,,,,,,,,,,,,,,,,,,,,,,,,,,,,,,,,,,,,,,,,,,,,,,,,,,,,,,,
