consent_key.keys,consent_key.rt,recalled,recalled_rt,recall_acc,example_recall.thisRepN,example_recall.thisTrialN,example_recall.thisN,example_recall.thisIndex,example_recall.ran,file,word,participant,please enter your date of birth (dd/mm/yyyy),date,expName,psychopyVersion,OS,frameRate,STUDY_ID,SESSION_ID,list,prac_learn_study_loop.thisRepN,prac_learn_study_loop.thisTrialN,prac_learn_study_loop.thisN,prac_learn_study_loop.thisIndex,prac_learn_study_loop.ran,image,prac_learn_test_loop.thisRepN,prac_learn_test_loop.thisTrialN,prac_learn_test_loop.thisN,prac_learn_test_loop.thisIndex,prac_learn_test_loop.ran,learn_study_loop.thisRepN,learn_study_loop.thisTrialN,learn_study_loop.thisN,learn_study_loop.thisIndex,learn_study_loop.ran,list_no,block_no,learn_test_loop.thisRepN,learn_test_loop.thisTrialN,learn_test_loop.thisN,learn_test_loop.thisIndex,learn_test_loop.ran,learn_blocks.thisRepN,learn_blocks.thisTrialN,learn_blocks.thisN,learn_blocks.thisIndex,learn_blocks.ran,block_csv,key_resp_13.keys,key_resp_13.rt,learn_blocks_loop.thisRepN,learn_blocks_loop.thisTrialN,learn_blocks_loop.thisN,learn_blocks_loop.thisIndex,learn_blocks_loop.ran,final_learn_test.thisRepN,final_learn_test.thisTrialN,final_learn_test.thisN,final_learn_test.thisIndex,final_learn_test.ran,s_im1,s_im2,s_im3,s_im4,s_im5,s_im6,s_im7,s_im8,s_im1pos,s_im2pos,s_im3pos,s_im4pos,s_im5pos,s_im6pos,s_im7pos,s_im8pos,s_tarright,search_resp.keys,search_loop.thisRepN,search_loop.thisTrialN,search_loop.thisN,search_loop.thisIndex,search_loop.ran,search_resp.rt,prac_wm_test_loop.thisRepN,prac_wm_test_loop.thisTrialN,prac_wm_test_loop.thisN,prac_wm_test_loop.thisIndex,prac_wm_test_loop.ran,wm_recalled1,wm_recall_rt1,wm_probed1,wm_recall_acc1,wm_recalled2,wm_recall_rt2,wm_probed2,wm_recall_acc2,wm_recalled3,wm_recall_rt3,wm_probed3,wm_recall_acc3,wm_recalled4,wm_recall_rt4,wm_probed4,wm_recall_acc4,prac_wm_trial_loop.thisRepN,prac_wm_trial_loop.thisTrialN,prac_wm_trial_loop.thisN,prac_wm_trial_loop.thisIndex,prac_wm_trial_loop.ran,word1,image1,file1,item_type1,word2,image2,file2,item_type2,word4,image4,file4,item_type4,word3,image3,file3,item_type3,wm_test_loop.thisRepN,wm_test_loop.thisTrialN,wm_test_loop.thisN,wm_test_loop.thisIndex,wm_test_loop.ran,wm_trial_loop.thisRepN,wm_trial_loop.thisTrialN,wm_trial_loop.thisN,wm_trial_loop.thisIndex,wm_trial_loop.ran
y,61.15773,TOUGH,15.01556,1,0,0,0,0,1,stimuli/images/PICTURE_747.png,TOUGH,5ae0c7d4e0feeb0001caff2b,13/02/1949,2020-09-03_22h23.01.693,proactive2,2020.1.2,Win32,60,5f5126bb654d4b30ee6923d8,5f515e8d5d41a43a45802077,1,,,,,,,,,,,,,,,,,,,,,,,,,,,,,,,,,,,,,,,,,,,,,,,,,,,,,,,,,,,,,,,,,,,,,,,,,,,,,,,,,,,,,,,,,,,,,,,,,,,,,,,,,,,,,,,,,,,,,
,,,,,,,,,,stimuli/images/PICTURE_727.png,CELL,5ae0c7d4e0feeb0001caff2b,13/02/1949,2020-09-03_22h23.01.693,proactive2,2020.1.2,Win32,60,5f5126bb654d4b30ee6923d8,5f515e8d5d41a43a45802077,1,0,0,0,1,1,hose,,,,,,,,,,,,,,,,,,,,,,,,,,,,,,,,,,,,,,,,,,,,,,,,,,,,,,,,,,,,,,,,,,,,,,,,,,,,,,,,,,,,,,,,,,,,,,,,,,,,,,,,,,,,,,,
,,,,,,,,,,stimuli/images/PICTURE_697.png,KILLER,5ae0c7d4e0feeb0001caff2b,13/02/1949,2020-09-03_22h23.01.693,proactive2,2020.1.2,Win32,60,5f5126bb654d4b30ee6923d8,5f515e8d5d41a43a45802077,1,0,1,1,4,1,peach,,,,,,,,,,,,,,,,,,,,,,,,,,,,,,,,,,,,,,,,,,,,,,,,,,,,,,,,,,,,,,,,,,,,,,,,,,,,,,,,,,,,,,,,,,,,,,,,,,,,,,,,,,,,,,,
,,,,,,,,,,stimuli/images/PICTURE_378.png,LOSS,5ae0c7d4e0feeb0001caff2b,13/02/1949,2020-09-03_22h23.01.693,proactive2,2020.1.2,Win32,60,5f5126bb654d4b30ee6923d8,5f515e8d5d41a43a45802077,1,0,2,2,2,1,lobster,,,,,,,,,,,,,,,,,,,,,,,,,,,,,,,,,,,,,,,,,,,,,,,,,,,,,,,,,,,,,,,,,,,,,,,,,,,,,,,,,,,,,,,,,,,,,,,,,,,,,,,,,,,,,,,
,,,,,,,,,,stimuli/images/PICTURE_658.png,DEVIL,5ae0c7d4e0feeb0001caff2b,13/02/1949,2020-09-03_22h23.01.693,proactive2,2020.1.2,Win32,60,5f5126bb654d4b30ee6923d8,5f515e8d5d41a43a45802077,1,0,3,3,3,1,crow,,,,,,,,,,,,,,,,,,,,,,,,,,,,,,,,,,,,,,,,,,,,,,,,,,,,,,,,,,,,,,,,,,,,,,,,,,,,,,,,,,,,,,,,,,,,,,,,,,,,,,,,,,,,,,,
,,LOSS,8.94569,0,,,,,,stimuli/images/PICTURE_697.png,KILLER,5ae0c7d4e0feeb0001caff2b,13/02/1949,2020-09-03_22h23.01.693,proactive2,2020.1.2,Win32,60,5f5126bb654d4b30ee6923d8,5f515e8d5d41a43a45802077,1,,,,,,peach,0,0,0,4,1,,,,,,,,,,,,,,,,,,,,,,,,,,,,,,,,,,,,,,,,,,,,,,,,,,,,,,,,,,,,,,,,,,,,,,,,,,,,,,,,,,,,,,,,,,,,,,,,,,,,,,,,,,
,,CELL,4.53168,0,,,,,,stimuli/images/PICTURE_269.png,GENIUS,5ae0c7d4e0feeb0001caff2b,13/02/1949,2020-09-03_22h23.01.693,proactive2,2020.1.2,Win32,60,5f5126bb654d4b30ee6923d8,5f515e8d5d41a43a45802077,1,,,,,,chameleon,0,1,1,0,1,,,,,,,,,,,,,,,,,,,,,,,,,,,,,,,,,,,,,,,,,,,,,,,,,,,,,,,,,,,,,,,,,,,,,,,,,,,,,,,,,,,,,,,,,,,,,,,,,,,,,,,,,,
,,BLACK,5.798185,0,,,,,,stimuli/images/PICTURE_658.png,DEVIL,5ae0c7d4e0feeb0001caff2b,13/02/1949,2020-09-03_22h23.01.693,proactive2,2020.1.2,Win32,60,5f5126bb654d4b30ee6923d8,5f515e8d5d41a43a45802077,1,,,,,,crow,0,2,2,3,1,,,,,,,,,,,,,,,,,,,,,,,,,,,,,,,,,,,,,,,,,,,,,,,,,,,,,,,,,,,,,,,,,,,,,,,,,,,,,,,,,,,,,,,,,,,,,,,,,,,,,,,,,,
,,HARD,12.014415,0,,,,,,stimuli/images/PICTURE_378.png,LOSS,5ae0c7d4e0feeb0001caff2b,13/02/1949,2020-09-03_22h23.01.693,proactive2,2020.1.2,Win32,60,5f5126bb654d4b30ee6923d8,5f515e8d5d41a43a45802077,1,,,,,,lobster,0,3,3,2,1,,,,,,,,,,,,,,,,,,,,,,,,,,,,,,,,,,,,,,,,,,,,,,,,,,,,,,,,,,,,,,,,,,,,,,,,,,,,,,,,,,,,,,,,,,,,,,,,,,,,,,,,,,
,,PIPE,7.68579,0,,,,,,stimuli/images/PICTURE_727.png,CELL,5ae0c7d4e0feeb0001caff2b,13/02/1949,2020-09-03_22h23.01.693,proactive2,2020.1.2,Win32,60,5f5126bb654d4b30ee6923d8,5f515e8d5d41a43a45802077,1,,,,,,hose,0,4,4,1,1,,,,,,,,,,,,,,,,,,,,,,,,,,,,,,,,,,,,,,,,,,,,,,,,,,,,,,,,,,,,,,,,,,,,,,,,,,,,,,,,,,,,,,,,,,,,,,,,,,,,,,,,,,
,,,,,,,,,,stimuli/images/PICTURE_564.png,BATH,5ae0c7d4e0feeb0001caff2b,13/02/1949,2020-09-03_22h23.01.693,proactive2,2020.1.2,Win32,60,5f5126bb654d4b30ee6923d8,5f515e8d5d41a43a45802077,1,,,,,,spoon,,,,,,0,0,0,26,1,3,1,,,,,,,,,,,,,,,,,,,,,,,,,,,,,,,,,,,,,,,,,,,,,,,,,,,,,,,,,,,,,,,,,,,,,,,,,,,,,,,,,,,,,,,,,,,,,,,,,,,
,,,,,,,,,,stimuli/images/PICTURE_95.png,MILLER,5ae0c7d4e0feeb0001caff2b,13/02/1949,2020-09-03_22h23.01.693,proactive2,2020.1.2,Win32,60,5f5126bb654d4b30ee6923d8,5f515e8d5d41a43a45802077,1,,,,,,suitcase,,,,,,0,1,1,56,1,6,1,,,,,,,,,,,,,,,,,,,,,,,,,,,,,,,,,,,,,,,,,,,,,,,,,,,,,,,,,,,,,,,,,,,,,,,,,,,,,,,,,,,,,,,,,,,,,,,,,,,
,,,,,,,,,,stimuli/images/PICTURE_403.png,WRITER,5ae0c7d4e0feeb0001caff2b,13/02/1949,2020-09-03_22h23.01.693,proactive2,2020.1.2,Win32,60,5f5126bb654d4b30ee6923d8,5f515e8d5d41a43a45802077,1,,,,,,cathedral,,,,,,0,2,2,31,1,4,1,,,,,,,,,,,,,,,,,,,,,,,,,,,,,,,,,,,,,,,,,,,,,,,,,,,,,,,,,,,,,,,,,,,,,,,,,,,,,,,,,,,,,,,,,,,,,,,,,,,
,,,,,,,,,,stimuli/images/PICTURE_327.png,SERIES,5ae0c7d4e0feeb0001caff2b,13/02/1949,2020-09-03_22h23.01.693,proactive2,2020.1.2,Win32,60,5f5126bb654d4b30ee6923d8,5f515e8d5d41a43a45802077,1,,,,,,helmet,,,,,,0,3,3,3,1,1,1,,,,,,,,,,,,,,,,,,,,,,,,,,,,,,,,,,,,,,,,,,,,,,,,,,,,,,,,,,,,,,,,,,,,,,,,,,,,,,,,,,,,,,,,,,,,,,,,,,,
,,,,,,,,,,stimuli/images/PICTURE_308.png,FAMILY,5ae0c7d4e0feeb0001caff2b,13/02/1949,2020-09-03_22h23.01.693,proactive2,2020.1.2,Win32,60,5f5126bb654d4b30ee6923d8,5f515e8d5d41a43a45802077,1,,,,,,dice,,,,,,0,4,4,36,1,4,1,,,,,,,,,,,,,,,,,,,,,,,,,,,,,,,,,,,,,,,,,,,,,,,,,,,,,,,,,,,,,,,,,,,,,,,,,,,,,,,,,,,,,,,,,,,,,,,,,,,
,,,,,,,,,,stimuli/images/PICTURE_403.png,TOILET,5ae0c7d4e0feeb0001caff2b,13/02/1949,2020-09-03_22h23.01.693,proactive2,2020.1.2,Win32,60,5f5126bb654d4b30ee6923d8,5f515e8d5d41a43a45802077,1,,,,,,cathedral,,,,,,0,5,5,25,1,3,1,,,,,,,,,,,,,,,,,,,,,,,,,,,,,,,,,,,,,,,,,,,,,,,,,,,,,,,,,,,,,,,,,,,,,,,,,,,,,,,,,,,,,,,,,,,,,,,,,,,
,,,,,,,,,,stimuli/images/PICTURE_383.png,WRITER,5ae0c7d4e0feeb0001caff2b,13/02/1949,2020-09-03_22h23.01.693,proactive2,2020.1.2,Win32,60,5f5126bb654d4b30ee6923d8,5f515e8d5d41a43a45802077,1,,,,,,coin,,,,,,0,6,6,28,1,3,1,,,,,,,,,,,,,,,,,,,,,,,,,,,,,,,,,,,,,,,,,,,,,,,,,,,,,,,,,,,,,,,,,,,,,,,,,,,,,,,,,,,,,,,,,,,,,,,,,,,
,,,,,,,,,,stimuli/images/PICTURE_504.png,YEAR,5ae0c7d4e0feeb0001caff2b,13/02/1949,2020-09-03_22h23.01.693,proactive2,2020.1.2,Win32,60,5f5126bb654d4b30ee6923d8,5f515e8d5d41a43a45802077,1,,,,,,wheel,,,,,,0,7,7,13,1,2,1,,,,,,,,,,,,,,,,,,,,,,,,,,,,,,,,,,,,,,,,,,,,,,,,,,,,,,,,,,,,,,,,,,,,,,,,,,,,,,,,,,,,,,,,,,,,,,,,,,,
,,,,,,,,,,stimuli/images/PICTURE_233.png,LOTS,5ae0c7d4e0feeb0001caff2b,13/02/1949,2020-09-03_22h23.01.693,proactive2,2020.1.2,Win32,60,5f5126bb654d4b30ee6923d8,5f515e8d5d41a43a45802077,1,,,,,,salt,,,,,,0,8,8,42,1,5,1,,,,,,,,,,,,,,,,,,,,,,,,,,,,,,,,,,,,,,,,,,,,,,,,,,,,,,,,,,,,,,,,,,,,,,,,,,,,,,,,,,,,,,,,,,,,,,,,,,,
,,,,,,,,,,stimuli/images/PICTURE_340.png,LETTER,5ae0c7d4e0feeb0001caff2b,13/02/1949,2020-09-03_22h23.01.693,proactive2,2020.1.2,Win32,60,5f5126bb654d4b30ee6923d8,5f515e8d5d41a43a45802077,1,,,,,,mirror,,,,,,0,9,9,24,1,3,1,,,,,,,,,,,,,,,,,,,,,,,,,,,,,,,,,,,,,,,,,,,,,,,,,,,,,,,,,,,,,,,,,,,,,,,,,,,,,,,,,,,,,,,,,,,,,,,,,,,
,,,,,,,,,,stimuli/images/PICTURE_95.png,HONEY,5ae0c7d4e0feeb0001caff2b,13/02/1949,2020-09-03_22h23.01.693,proactive2,2020.1.2,Win32,60,5f5126bb654d4b30ee6923d8,5f515e8d5d41a43a45802077,1,,,,,,suitcase,,,,,,0,10,10,44,1,5,1,,,,,,,,,,,,,,,,,,,,,,,,,,,,,,,,,,,,,,,,,,,,,,,,,,,,,,,,,,,,,,,,,,,,,,,,,,,,,,,,,,,,,,,,,,,,,,,,,,,
,,,,,,,,,,stimuli/images/PICTURE_405.png,PLENTY,5ae0c7d4e0feeb0001caff2b,13/02/1949,2020-09-03_22h23.01.693,proactive2,2020.1.2,Win32,60,5f5126bb654d4b30ee6923d8,5f515e8d5d41a43a45802077,1,,,,,,anchor,,,,,,0,11,11,23,1,3,1,,,,,,,,,,,,,,,,,,,,,,,,,,,,,,,,,,,,,,,,,,,,,,,,,,,,,,,,,,,,,,,,,,,,,,,,,,,,,,,,,,,,,,,,,,,,,,,,,,,
,,,,,,,,,,stimuli/images/PICTURE_208.png,SYSTEM,5ae0c7d4e0feeb0001caff2b,13/02/1949,2020-09-03_22h23.01.693,proactive2,2020.1.2,Win32,60,5f5126bb654d4b30ee6923d8,5f515e8d5d41a43a45802077,1,,,,,,microphone,,,,,,0,12,12,32,1,4,1,,,,,,,,,,,,,,,,,,,,,,,,,,,,,,,,,,,,,,,,,,,,,,,,,,,,,,,,,,,,,,,,,,,,,,,,,,,,,,,,,,,,,,,,,,,,,,,,,,,
,,,,,,,,,,stimuli/images/PICTURE_675.png,SALE,5ae0c7d4e0feeb0001caff2b,13/02/1949,2020-09-03_22h23.01.693,proactive2,2020.1.2,Win32,60,5f5126bb654d4b30ee6923d8,5f515e8d5d41a43a45802077,1,,,,,,windmill,,,,,,0,13,13,47,1,5,1,,,,,,,,,,,,,,,,,,,,,,,,,,,,,,,,,,,,,,,,,,,,,,,,,,,,,,,,,,,,,,,,,,,,,,,,,,,,,,,,,,,,,,,,,,,,,,,,,,,
,,,,,,,,,,stimuli/images/PICTURE_147.png,YEAR,5ae0c7d4e0feeb0001caff2b,13/02/1949,2020-09-03_22h23.01.693,proactive2,2020.1.2,Win32,60,5f5126bb654d4b30ee6923d8,5f515e8d5d41a43a45802077,1,,,,,,hanger,,,,,,0,14,14,21,1,3,1,,,,,,,,,,,,,,,,,,,,,,,,,,,,,,,,,,,,,,,,,,,,,,,,,,,,,,,,,,,,,,,,,,,,,,,,,,,,,,,,,,,,,,,,,,,,,,,,,,,
,,,,,,,,,,stimuli/images/PICTURE_487.png,GIRL,5ae0c7d4e0feeb0001caff2b,13/02/1949,2020-09-03_22h23.01.693,proactive2,2020.1.2,Win32,60,5f5126bb654d4b30ee6923d8,5f515e8d5d41a43a45802077,1,,,,,,basket,,,,,,0,15,15,45,1,5,1,,,,,,,,,,,,,,,,,,,,,,,,,,,,,,,,,,,,,,,,,,,,,,,,,,,,,,,,,,,,,,,,,,,,,,,,,,,,,,,,,,,,,,,,,,,,,,,,,,,
,,,,,,,,,,stimuli/images/PICTURE_2.png,FLIGHT,5ae0c7d4e0feeb0001caff2b,13/02/1949,2020-09-03_22h23.01.693,proactive2,2020.1.2,Win32,60,5f5126bb654d4b30ee6923d8,5f515e8d5d41a43a45802077,1,,,,,,tyre,,,,,,0,16,16,15,1,2,1,,,,,,,,,,,,,,,,,,,,,,,,,,,,,,,,,,,,,,,,,,,,,,,,,,,,,,,,,,,,,,,,,,,,,,,,,,,,,,,,,,,,,,,,,,,,,,,,,,,
,,,,,,,,,,stimuli/images/PICTURE_685.png,PENNY,5ae0c7d4e0feeb0001caff2b,13/02/1949,2020-09-03_22h23.01.693,proactive2,2020.1.2,Win32,60,5f5126bb654d4b30ee6923d8,5f515e8d5d41a43a45802077,1,,,,,,goose,,,,,,0,17,17,4,1,1,1,,,,,,,,,,,,,,,,,,,,,,,,,,,,,,,,,,,,,,,,,,,,,,,,,,,,,,,,,,,,,,,,,,,,,,,,,,,,,,,,,,,,,,,,,,,,,,,,,,,
,,,,,,,,,,stimuli/images/PICTURE_469.png,AGENT,5ae0c7d4e0feeb0001caff2b,13/02/1949,2020-09-03_22h23.01.693,proactive2,2020.1.2,Win32,60,5f5126bb654d4b30ee6923d8,5f515e8d5d41a43a45802077,1,,,,,,stool,,,,,,0,18,18,16,1,2,1,,,,,,,,,,,,,,,,,,,,,,,,,,,,,,,,,,,,,,,,,,,,,,,,,,,,,,,,,,,,,,,,,,,,,,,,,,,,,,,,,,,,,,,,,,,,,,,,,,,
,,,,,,,,,,stimuli/images/PICTURE_108.png,POLICY,5ae0c7d4e0feeb0001caff2b,13/02/1949,2020-09-03_22h23.01.693,proactive2,2020.1.2,Win32,60,5f5126bb654d4b30ee6923d8,5f515e8d5d41a43a45802077,1,,,,,,calendar,,,,,,0,19,19,22,1,3,1,,,,,,,,,,,,,,,,,,,,,,,,,,,,,,,,,,,,,,,,,,,,,,,,,,,,,,,,,,,,,,,,,,,,,,,,,,,,,,,,,,,,,,,,,,,,,,,,,,,
,,,,,,,,,,stimuli/images/PICTURE_340.png,VALLEY,5ae0c7d4e0feeb0001caff2b,13/02/1949,2020-09-03_22h23.01.693,proactive2,2020.1.2,Win32,60,5f5126bb654d4b30ee6923d8,5f515e8d5d41a43a45802077,1,,,,,,mirror,,,,,,0,20,20,54,1,6,1,,,,,,,,,,,,,,,,,,,,,,,,,,,,,,,,,,,,,,,,,,,,,,,,,,,,,,,,,,,,,,,,,,,,,,,,,,,,,,,,,,,,,,,,,,,,,,,,,,,
,,,,,,,,,,stimuli/images/PICTURE_449.png,DUDE,5ae0c7d4e0feeb0001caff2b,13/02/1949,2020-09-03_22h23.01.693,proactive2,2020.1.2,Win32,60,5f5126bb654d4b30ee6923d8,5f515e8d5d41a43a45802077,1,,,,,,bench,,,,,,0,21,21,17,1,2,1,,,,,,,,,,,,,,,,,,,,,,,,,,,,,,,,,,,,,,,,,,,,,,,,,,,,,,,,,,,,,,,,,,,,,,,,,,,,,,,,,,,,,,,,,,,,,,,,,,,
,,,,,,,,,,stimuli/images/PICTURE_405.png,YEAR,5ae0c7d4e0feeb0001caff2b,13/02/1949,2020-09-03_22h23.01.693,proactive2,2020.1.2,Win32,60,5f5126bb654d4b30ee6923d8,5f515e8d5d41a43a45802077,1,,,,,,anchor,,,,,,0,22,22,34,1,4,1,,,,,,,,,,,,,,,,,,,,,,,,,,,,,,,,,,,,,,,,,,,,,,,,,,,,,,,,,,,,,,,,,,,,,,,,,,,,,,,,,,,,,,,,,,,,,,,,,,,
,,,,,,,,,,stimuli/images/PICTURE_491.png,GLASS,5ae0c7d4e0feeb0001caff2b,13/02/1949,2020-09-03_22h23.01.693,proactive2,2020.1.2,Win32,60,5f5126bb654d4b30ee6923d8,5f515e8d5d41a43a45802077,1,,,,,,rug,,,,,,0,23,23,14,1,2,1,,,,,,,,,,,,,,,,,,,,,,,,,,,,,,,,,,,,,,,,,,,,,,,,,,,,,,,,,,,,,,,,,,,,,,,,,,,,,,,,,,,,,,,,,,,,,,,,,,,
,,,,,,,,,,stimuli/images/PICTURE_108.png,FLIGHT,5ae0c7d4e0feeb0001caff2b,13/02/1949,2020-09-03_22h23.01.693,proactive2,2020.1.2,Win32,60,5f5126bb654d4b30ee6923d8,5f515e8d5d41a43a45802077,1,,,,,,calendar,,,,,,0,24,24,59,1,6,1,,,,,,,,,,,,,,,,,,,,,,,,,,,,,,,,,,,,,,,,,,,,,,,,,,,,,,,,,,,,,,,,,,,,,,,,,,,,,,,,,,,,,,,,,,,,,,,,,,,
,,,,,,,,,,stimuli/images/PICTURE_57.png,MOMENT,5ae0c7d4e0feeb0001caff2b,13/02/1949,2020-09-03_22h23.01.693,proactive2,2020.1.2,Win32,60,5f5126bb654d4b30ee6923d8,5f515e8d5d41a43a45802077,1,,,,,,stamp,,,,,,0,25,25,37,1,4,1,,,,,,,,,,,,,,,,,,,,,,,,,,,,,,,,,,,,,,,,,,,,,,,,,,,,,,,,,,,,,,,,,,,,,,,,,,,,,,,,,,,,,,,,,,,,,,,,,,,
,,,,,,,,,,stimuli/images/PICTURE_667.png,RIVER,5ae0c7d4e0feeb0001caff2b,13/02/1949,2020-09-03_22h23.01.693,proactive2,2020.1.2,Win32,60,5f5126bb654d4b30ee6923d8,5f515e8d5d41a43a45802077,1,,,,,,daisy,,,,,,0,26,26,10,1,2,1,,,,,,,,,,,,,,,,,,,,,,,,,,,,,,,,,,,,,,,,,,,,,,,,,,,,,,,,,,,,,,,,,,,,,,,,,,,,,,,,,,,,,,,,,,,,,,,,,,,
,,,,,,,,,,stimuli/images/PICTURE_85.png,NATION,5ae0c7d4e0feeb0001caff2b,13/02/1949,2020-09-03_22h23.01.693,proactive2,2020.1.2,Win32,60,5f5126bb654d4b30ee6923d8,5f515e8d5d41a43a45802077,1,,,,,,diamond,,,,,,0,27,27,5,1,1,1,,,,,,,,,,,,,,,,,,,,,,,,,,,,,,,,,,,,,,,,,,,,,,,,,,,,,,,,,,,,,,,,,,,,,,,,,,,,,,,,,,,,,,,,,,,,,,,,,,,
,,,,,,,,,,stimuli/images/PICTURE_383.png,SERIES,5ae0c7d4e0feeb0001caff2b,13/02/1949,2020-09-03_22h23.01.693,proactive2,2020.1.2,Win32,60,5f5126bb654d4b30ee6923d8,5f515e8d5d41a43a45802077,1,,,,,,coin,,,,,,0,28,28,46,1,5,1,,,,,,,,,,,,,,,,,,,,,,,,,,,,,,,,,,,,,,,,,,,,,,,,,,,,,,,,,,,,,,,,,,,,,,,,,,,,,,,,,,,,,,,,,,,,,,,,,,,
,,,,,,,,,,stimuli/images/PICTURE_297.png,RIVER,5ae0c7d4e0feeb0001caff2b,13/02/1949,2020-09-03_22h23.01.693,proactive2,2020.1.2,Win32,60,5f5126bb654d4b30ee6923d8,5f515e8d5d41a43a45802077,1,,,,,,aeroplane,,,,,,0,29,29,39,1,4,1,,,,,,,,,,,,,,,,,,,,,,,,,,,,,,,,,,,,,,,,,,,,,,,,,,,,,,,,,,,,,,,,,,,,,,,,,,,,,,,,,,,,,,,,,,,,,,,,,,,
,,,,,,,,,,stimuli/images/PICTURE_95.png,BOYS,5ae0c7d4e0feeb0001caff2b,13/02/1949,2020-09-03_22h23.01.693,proactive2,2020.1.2,Win32,60,5f5126bb654d4b30ee6923d8,5f515e8d5d41a43a45802077,1,,,,,,suitcase,,,,,,0,30,30,1,1,1,1,,,,,,,,,,,,,,,,,,,,,,,,,,,,,,,,,,,,,,,,,,,,,,,,,,,,,,,,,,,,,,,,,,,,,,,,,,,,,,,,,,,,,,,,,,,,,,,,,,,
,,,,,,,,,,stimuli/images/PICTURE_744.png,WEAPON,5ae0c7d4e0feeb0001caff2b,13/02/1949,2020-09-03_22h23.01.693,proactive2,2020.1.2,Win32,60,5f5126bb654d4b30ee6923d8,5f515e8d5d41a43a45802077,1,,,,,,ring,,,,,,0,31,31,50,1,6,1,,,,,,,,,,,,,,,,,,,,,,,,,,,,,,,,,,,,,,,,,,,,,,,,,,,,,,,,,,,,,,,,,,,,,,,,,,,,,,,,,,,,,,,,,,,,,,,,,,,
,,,,,,,,,,stimuli/images/PICTURE_285.png,LIFE,5ae0c7d4e0feeb0001caff2b,13/02/1949,2020-09-03_22h23.01.693,proactive2,2020.1.2,Win32,60,5f5126bb654d4b30ee6923d8,5f515e8d5d41a43a45802077,1,,,,,,carrot,,,,,,0,32,32,33,1,4,1,,,,,,,,,,,,,,,,,,,,,,,,,,,,,,,,,,,,,,,,,,,,,,,,,,,,,,,,,,,,,,,,,,,,,,,,,,,,,,,,,,,,,,,,,,,,,,,,,,,
,,,,,,,,,,stimuli/images/PICTURE_177.png,WRITER,5ae0c7d4e0feeb0001caff2b,13/02/1949,2020-09-03_22h23.01.693,proactive2,2020.1.2,Win32,60,5f5126bb654d4b30ee6923d8,5f515e8d5d41a43a45802077,1,,,,,,mushroom,,,,,,0,33,33,41,1,5,1,,,,,,,,,,,,,,,,,,,,,,,,,,,,,,,,,,,,,,,,,,,,,,,,,,,,,,,,,,,,,,,,,,,,,,,,,,,,,,,,,,,,,,,,,,,,,,,,,,,
,,,,,,,,,,stimuli/images/PICTURE_504.png,ARTIST,5ae0c7d4e0feeb0001caff2b,13/02/1949,2020-09-03_22h23.01.693,proactive2,2020.1.2,Win32,60,5f5126bb654d4b30ee6923d8,5f515e8d5d41a43a45802077,1,,,,,,wheel,,,,,,0,34,34,49,1,5,1,,,,,,,,,,,,,,,,,,,,,,,,,,,,,,,,,,,,,,,,,,,,,,,,,,,,,,,,,,,,,,,,,,,,,,,,,,,,,,,,,,,,,,,,,,,,,,,,,,,
,,,,,,,,,,stimuli/images/PICTURE_203.png,GODS,5ae0c7d4e0feeb0001caff2b,13/02/1949,2020-09-03_22h23.01.693,proactive2,2020.1.2,Win32,60,5f5126bb654d4b30ee6923d8,5f515e8d5d41a43a45802077,1,,,,,,cap,,,,,,0,35,35,30,1,4,1,,,,,,,,,,,,,,,,,,,,,,,,,,,,,,,,,,,,,,,,,,,,,,,,,,,,,,,,,,,,,,,,,,,,,,,,,,,,,,,,,,,,,,,,,,,,,,,,,,,
,,,,,,,,,,stimuli/images/PICTURE_380.png,CANDY,5ae0c7d4e0feeb0001caff2b,13/02/1949,2020-09-03_22h23.01.693,proactive2,2020.1.2,Win32,60,5f5126bb654d4b30ee6923d8,5f515e8d5d41a43a45802077,1,,,,,,gorilla,,,,,,0,36,36,0,1,1,1,,,,,,,,,,,,,,,,,,,,,,,,,,,,,,,,,,,,,,,,,,,,,,,,,,,,,,,,,,,,,,,,,,,,,,,,,,,,,,,,,,,,,,,,,,,,,,,,,,,
,,,,,,,,,,stimuli/images/PICTURE_147.png,WOMEN,5ae0c7d4e0feeb0001caff2b,13/02/1949,2020-09-03_22h23.01.693,proactive2,2020.1.2,Win32,60,5f5126bb654d4b30ee6923d8,5f515e8d5d41a43a45802077,1,,,,,,hanger,,,,,,0,37,37,7,1,1,1,,,,,,,,,,,,,,,,,,,,,,,,,,,,,,,,,,,,,,,,,,,,,,,,,,,,,,,,,,,,,,,,,,,,,,,,,,,,,,,,,,,,,,,,,,,,,,,,,,,
,,,,,,,,,,stimuli/images/PICTURE_677.png,APPLE,5ae0c7d4e0feeb0001caff2b,13/02/1949,2020-09-03_22h23.01.693,proactive2,2020.1.2,Win32,60,5f5126bb654d4b30ee6923d8,5f515e8d5d41a43a45802077,1,,,,,,map,,,,,,0,38,38,43,1,5,1,,,,,,,,,,,,,,,,,,,,,,,,,,,,,,,,,,,,,,,,,,,,,,,,,,,,,,,,,,,,,,,,,,,,,,,,,,,,,,,,,,,,,,,,,,,,,,,,,,,
,,,,,,,,,,stimuli/images/PICTURE_32.png,PILLS,5ae0c7d4e0feeb0001caff2b,13/02/1949,2020-09-03_22h23.01.693,proactive2,2020.1.2,Win32,60,5f5126bb654d4b30ee6923d8,5f515e8d5d41a43a45802077,1,,,,,,crown,,,,,,0,39,39,18,1,2,1,,,,,,,,,,,,,,,,,,,,,,,,,,,,,,,,,,,,,,,,,,,,,,,,,,,,,,,,,,,,,,,,,,,,,,,,,,,,,,,,,,,,,,,,,,,,,,,,,,,
,,,,,,,,,,stimuli/images/PICTURE_655.png,TOILET,5ae0c7d4e0feeb0001caff2b,13/02/1949,2020-09-03_22h23.01.693,proactive2,2020.1.2,Win32,60,5f5126bb654d4b30ee6923d8,5f515e8d5d41a43a45802077,1,,,,,,megaphone,,,,,,0,40,40,12,1,2,1,,,,,,,,,,,,,,,,,,,,,,,,,,,,,,,,,,,,,,,,,,,,,,,,,,,,,,,,,,,,,,,,,,,,,,,,,,,,,,,,,,,,,,,,,,,,,,,,,,,
,,,,,,,,,,stimuli/images/PICTURE_33.png,FRIEND,5ae0c7d4e0feeb0001caff2b,13/02/1949,2020-09-03_22h23.01.693,proactive2,2020.1.2,Win32,60,5f5126bb654d4b30ee6923d8,5f515e8d5d41a43a45802077,1,,,,,,frame,,,,,,0,41,41,8,1,1,1,,,,,,,,,,,,,,,,,,,,,,,,,,,,,,,,,,,,,,,,,,,,,,,,,,,,,,,,,,,,,,,,,,,,,,,,,,,,,,,,,,,,,,,,,,,,,,,,,,,
,,,,,,,,,,stimuli/images/PICTURE_296.png,LOTS,5ae0c7d4e0feeb0001caff2b,13/02/1949,2020-09-03_22h23.01.693,proactive2,2020.1.2,Win32,60,5f5126bb654d4b30ee6923d8,5f515e8d5d41a43a45802077,1,,,,,,bolt,,,,,,0,42,42,9,1,1,1,,,,,,,,,,,,,,,,,,,,,,,,,,,,,,,,,,,,,,,,,,,,,,,,,,,,,,,,,,,,,,,,,,,,,,,,,,,,,,,,,,,,,,,,,,,,,,,,,,,
,,,,,,,,,,stimuli/images/PICTURE_750.png,HOTEL,5ae0c7d4e0feeb0001caff2b,13/02/1949,2020-09-03_22h23.01.693,proactive2,2020.1.2,Win32,60,5f5126bb654d4b30ee6923d8,5f515e8d5d41a43a45802077,1,,,,,,kettle,,,,,,0,43,43,27,1,3,1,,,,,,,,,,,,,,,,,,,,,,,,,,,,,,,,,,,,,,,,,,,,,,,,,,,,,,,,,,,,,,,,,,,,,,,,,,,,,,,,,,,,,,,,,,,,,,,,,,,
,,,,,,,,,,stimuli/images/PICTURE_296.png,LIFE,5ae0c7d4e0feeb0001caff2b,13/02/1949,2020-09-03_22h23.01.693,proactive2,2020.1.2,Win32,60,5f5126bb654d4b30ee6923d8,5f515e8d5d41a43a45802077,1,,,,,,bolt,,,,,,0,44,44,57,1,6,1,,,,,,,,,,,,,,,,,,,,,,,,,,,,,,,,,,,,,,,,,,,,,,,,,,,,,,,,,,,,,,,,,,,,,,,,,,,,,,,,,,,,,,,,,,,,,,,,,,,
,,,,,,,,,,stimuli/images/PICTURE_68.png,ROOF,5ae0c7d4e0feeb0001caff2b,13/02/1949,2020-09-03_22h23.01.693,proactive2,2020.1.2,Win32,60,5f5126bb654d4b30ee6923d8,5f515e8d5d41a43a45802077,1,,,,,,candle,,,,,,0,45,45,38,1,4,1,,,,,,,,,,,,,,,,,,,,,,,,,,,,,,,,,,,,,,,,,,,,,,,,,,,,,,,,,,,,,,,,,,,,,,,,,,,,,,,,,,,,,,,,,,,,,,,,,,,
,,,,,,,,,,stimuli/images/PICTURE_708.png,RECORD,5ae0c7d4e0feeb0001caff2b,13/02/1949,2020-09-03_22h23.01.693,proactive2,2020.1.2,Win32,60,5f5126bb654d4b30ee6923d8,5f515e8d5d41a43a45802077,1,,,,,,monkey,,,,,,0,46,46,58,1,6,1,,,,,,,,,,,,,,,,,,,,,,,,,,,,,,,,,,,,,,,,,,,,,,,,,,,,,,,,,,,,,,,,,,,,,,,,,,,,,,,,,,,,,,,,,,,,,,,,,,,
,,,,,,,,,,stimuli/images/PICTURE_42.png,BOYS,5ae0c7d4e0feeb0001caff2b,13/02/1949,2020-09-03_22h23.01.693,proactive2,2020.1.2,Win32,60,5f5126bb654d4b30ee6923d8,5f515e8d5d41a43a45802077,1,,,,,,pear,,,,,,0,47,47,55,1,6,1,,,,,,,,,,,,,,,,,,,,,,,,,,,,,,,,,,,,,,,,,,,,,,,,,,,,,,,,,,,,,,,,,,,,,,,,,,,,,,,,,,,,,,,,,,,,,,,,,,,
,,,,,,,,,,stimuli/images/PICTURE_504.png,COPS,5ae0c7d4e0feeb0001caff2b,13/02/1949,2020-09-03_22h23.01.693,proactive2,2020.1.2,Win32,60,5f5126bb654d4b30ee6923d8,5f515e8d5d41a43a45802077,1,,,,,,wheel,,,,,,0,48,48,52,1,6,1,,,,,,,,,,,,,,,,,,,,,,,,,,,,,,,,,,,,,,,,,,,,,,,,,,,,,,,,,,,,,,,,,,,,,,,,,,,,,,,,,,,,,,,,,,,,,,,,,,,
,,,,,,,,,,stimuli/images/PICTURE_403.png,RIVER,5ae0c7d4e0feeb0001caff2b,13/02/1949,2020-09-03_22h23.01.693,proactive2,2020.1.2,Win32,60,5f5126bb654d4b30ee6923d8,5f515e8d5d41a43a45802077,1,,,,,,cathedral,,,,,,0,49,49,40,1,5,1,,,,,,,,,,,,,,,,,,,,,,,,,,,,,,,,,,,,,,,,,,,,,,,,,,,,,,,,,,,,,,,,,,,,,,,,,,,,,,,,,,,,,,,,,,,,,,,,,,,
,,,,,,,,,,stimuli/images/PICTURE_339.png,CLIENT,5ae0c7d4e0feeb0001caff2b,13/02/1949,2020-09-03_22h23.01.693,proactive2,2020.1.2,Win32,60,5f5126bb654d4b30ee6923d8,5f515e8d5d41a43a45802077,1,,,,,,backpack,,,,,,0,50,50,11,1,2,1,,,,,,,,,,,,,,,,,,,,,,,,,,,,,,,,,,,,,,,,,,,,,,,,,,,,,,,,,,,,,,,,,,,,,,,,,,,,,,,,,,,,,,,,,,,,,,,,,,,
,,,,,,,,,,stimuli/images/PICTURE_380.png,HONEY,5ae0c7d4e0feeb0001caff2b,13/02/1949,2020-09-03_22h23.01.693,proactive2,2020.1.2,Win32,60,5f5126bb654d4b30ee6923d8,5f515e8d5d41a43a45802077,1,,,,,,gorilla,,,,,,0,51,51,19,1,2,1,,,,,,,,,,,,,,,,,,,,,,,,,,,,,,,,,,,,,,,,,,,,,,,,,,,,,,,,,,,,,,,,,,,,,,,,,,,,,,,,,,,,,,,,,,,,,,,,,,,
,,,,,,,,,,stimuli/images/PICTURE_654.png,MONTH,5ae0c7d4e0feeb0001caff2b,13/02/1949,2020-09-03_22h23.01.693,proactive2,2020.1.2,Win32,60,5f5126bb654d4b30ee6923d8,5f515e8d5d41a43a45802077,1,,,,,,pencil,,,,,,0,52,52,29,1,3,1,,,,,,,,,,,,,,,,,,,,,,,,,,,,,,,,,,,,,,,,,,,,,,,,,,,,,,,,,,,,,,,,,,,,,,,,,,,,,,,,,,,,,,,,,,,,,,,,,,,
,,,,,,,,,,stimuli/images/PICTURE_85.png,TOILET,5ae0c7d4e0feeb0001caff2b,13/02/1949,2020-09-03_22h23.01.693,proactive2,2020.1.2,Win32,60,5f5126bb654d4b30ee6923d8,5f515e8d5d41a43a45802077,1,,,,,,diamond,,,,,,0,53,53,48,1,5,1,,,,,,,,,,,,,,,,,,,,,,,,,,,,,,,,,,,,,,,,,,,,,,,,,,,,,,,,,,,,,,,,,,,,,,,,,,,,,,,,,,,,,,,,,,,,,,,,,,,
,,,,,,,,,,stimuli/images/PICTURE_32.png,KIND,5ae0c7d4e0feeb0001caff2b,13/02/1949,2020-09-03_22h23.01.693,proactive2,2020.1.2,Win32,60,5f5126bb654d4b30ee6923d8,5f515e8d5d41a43a45802077,1,,,,,,crown,,,,,,0,54,54,35,1,4,1,,,,,,,,,,,,,,,,,,,,,,,,,,,,,,,,,,,,,,,,,,,,,,,,,,,,,,,,,,,,,,,,,,,,,,,,,,,,,,,,,,,,,,,,,,,,,,,,,,,
,,,,,,,,,,stimuli/images/PICTURE_203.png,NIGHT,5ae0c7d4e0feeb0001caff2b,13/02/1949,2020-09-03_22h23.01.693,proactive2,2020.1.2,Win32,60,5f5126bb654d4b30ee6923d8,5f515e8d5d41a43a45802077,1,,,,,,cap,,,,,,0,55,55,2,1,1,1,,,,,,,,,,,,,,,,,,,,,,,,,,,,,,,,,,,,,,,,,,,,,,,,,,,,,,,,,,,,,,,,,,,,,,,,,,,,,,,,,,,,,,,,,,,,,,,,,,,
,,,,,,,,,,stimuli/images/PICTURE_491.png,RIVER,5ae0c7d4e0feeb0001caff2b,13/02/1949,2020-09-03_22h23.01.693,proactive2,2020.1.2,Win32,60,5f5126bb654d4b30ee6923d8,5f515e8d5d41a43a45802077,1,,,,,,rug,,,,,,0,56,56,6,1,1,1,,,,,,,,,,,,,,,,,,,,,,,,,,,,,,,,,,,,,,,,,,,,,,,,,,,,,,,,,,,,,,,,,,,,,,,,,,,,,,,,,,,,,,,,,,,,,,,,,,,
,,,,,,,,,,stimuli/images/PICTURE_327.png,CASINO,5ae0c7d4e0feeb0001caff2b,13/02/1949,2020-09-03_22h23.01.693,proactive2,2020.1.2,Win32,60,5f5126bb654d4b30ee6923d8,5f515e8d5d41a43a45802077,1,,,,,,helmet,,,,,,0,57,57,20,1,3,1,,,,,,,,,,,,,,,,,,,,,,,,,,,,,,,,,,,,,,,,,,,,,,,,,,,,,,,,,,,,,,,,,,,,,,,,,,,,,,,,,,,,,,,,,,,,,,,,,,,
,,,,,,,,,,stimuli/images/PICTURE_467.png,POLICY,5ae0c7d4e0feeb0001caff2b,13/02/1949,2020-09-03_22h23.01.693,proactive2,2020.1.2,Win32,60,5f5126bb654d4b30ee6923d8,5f515e8d5d41a43a45802077,1,,,,,,peg,,,,,,0,58,58,53,1,6,1,,,,,,,,,,,,,,,,,,,,,,,,,,,,,,,,,,,,,,,,,,,,,,,,,,,,,,,,,,,,,,,,,,,,,,,,,,,,,,,,,,,,,,,,,,,,,,,,,,,
,,?,0.001545,0,,,,,,stimuli/images/PICTURE_449.png,DUDE,5ae0c7d4e0feeb0001caff2b,13/02/1949,2020-09-03_22h23.01.693,proactive2,2020.1.2,Win32,60,5f5126bb654d4b30ee6923d8,5f515e8d5d41a43a45802077,1,,,,,,bench,,,,,,,,,,,2,1,0,0,0,17,1,,,,,,,,,,,,,,,,,,,,,,,,,,,,,,,,,,,,,,,,,,,,,,,,,,,,,,,,,,,,,,,,,,,,,,,,,,,,,,,,,,,,,,,,,,,,,,
,,?,0.000895,0,,,,,,stimuli/images/PICTURE_405.png,PLENTY,5ae0c7d4e0feeb0001caff2b,13/02/1949,2020-09-03_22h23.01.693,proactive2,2020.1.2,Win32,60,5f5126bb654d4b30ee6923d8,5f515e8d5d41a43a45802077,1,,,,,,anchor,,,,,,,,,,,3,1,0,1,1,23,1,,,,,,,,,,,,,,,,,,,,,,,,,,,,,,,,,,,,,,,,,,,,,,,,,,,,,,,,,,,,,,,,,,,,,,,,,,,,,,,,,,,,,,,,,,,,,,
,,?,0.00089,0,,,,,,stimuli/images/PICTURE_654.png,MONTH,5ae0c7d4e0feeb0001caff2b,13/02/1949,2020-09-03_22h23.01.693,proactive2,2020.1.2,Win32,60,5f5126bb654d4b30ee6923d8,5f515e8d5d41a43a45802077,1,,,,,,pencil,,,,,,,,,,,3,1,0,2,2,29,1,,,,,,,,,,,,,,,,,,,,,,,,,,,,,,,,,,,,,,,,,,,,,,,,,,,,,,,,,,,,,,,,,,,,,,,,,,,,,,,,,,,,,,,,,,,,,,
,,?,0.000865,0,,,,,,stimuli/images/PICTURE_708.png,RECORD,5ae0c7d4e0feeb0001caff2b,13/02/1949,2020-09-03_22h23.01.693,proactive2,2020.1.2,Win32,60,5f5126bb654d4b30ee6923d8,5f515e8d5d41a43a45802077,1,,,,,,monkey,,,,,,,,,,,6,1,0,3,3,58,1,,,,,,,,,,,,,,,,,,,,,,,,,,,,,,,,,,,,,,,,,,,,,,,,,,,,,,,,,,,,,,,,,,,,,,,,,,,,,,,,,,,,,,,,,,,,,,
,,?,0.00087,0,,,,,,stimuli/images/PICTURE_308.png,FAMILY,5ae0c7d4e0feeb0001caff2b,13/02/1949,2020-09-03_22h23.01.693,proactive2,2020.1.2,Win32,60,5f5126bb654d4b30ee6923d8,5f515e8d5d41a43a45802077,1,,,,,,dice,,,,,,,,,,,4,1,0,4,4,36,1,,,,,,,,,,,,,,,,,,,,,,,,,,,,,,,,,,,,,,,,,,,,,,,,,,,,,,,,,,,,,,,,,,,,,,,,,,,,,,,,,,,,,,,,,,,,,,
,,?,0.000905,0,,,,,,stimuli/images/PICTURE_467.png,POLICY,5ae0c7d4e0feeb0001caff2b,13/02/1949,2020-09-03_22h23.01.693,proactive2,2020.1.2,Win32,60,5f5126bb654d4b30ee6923d8,5f515e8d5d41a43a45802077,1,,,,,,peg,,,,,,,,,,,6,1,0,5,5,53,1,,,,,,,,,,,,,,,,,,,,,,,,,,,,,,,,,,,,,,,,,,,,,,,,,,,,,,,,,,,,,,,,,,,,,,,,,,,,,,,,,,,,,,,,,,,,,,
,,?,0.00093,0,,,,,,stimuli/images/PICTURE_564.png,BATH,5ae0c7d4e0feeb0001caff2b,13/02/1949,2020-09-03_22h23.01.693,proactive2,2020.1.2,Win32,60,5f5126bb654d4b30ee6923d8,5f515e8d5d41a43a45802077,1,,,,,,spoon,,,,,,,,,,,3,1,0,6,6,26,1,,,,,,,,,,,,,,,,,,,,,,,,,,,,,,,,,,,,,,,,,,,,,,,,,,,,,,,,,,,,,,,,,,,,,,,,,,,,,,,,,,,,,,,,,,,,,,
,,?,0.00086,0,,,,,,stimuli/images/PICTURE_32.png,PILLS,5ae0c7d4e0feeb0001caff2b,13/02/1949,2020-09-03_22h23.01.693,proactive2,2020.1.2,Win32,60,5f5126bb654d4b30ee6923d8,5f515e8d5d41a43a45802077,1,,,,,,crown,,,,,,,,,,,2,1,0,7,7,18,1,,,,,,,,,,,,,,,,,,,,,,,,,,,,,,,,,,,,,,,,,,,,,,,,,,,,,,,,,,,,,,,,,,,,,,,,,,,,,,,,,,,,,,,,,,,,,,
,,?,0.00087,0,,,,,,stimuli/images/PICTURE_655.png,TOILET,5ae0c7d4e0feeb0001caff2b,13/02/1949,2020-09-03_22h23.01.693,proactive2,2020.1.2,Win32,60,5f5126bb654d4b30ee6923d8,5f515e8d5d41a43a45802077,1,,,,,,megaphone,,,,,,,,,,,2,1,0,8,8,12,1,,,,,,,,,,,,,,,,,,,,,,,,,,,,,,,,,,,,,,,,,,,,,,,,,,,,,,,,,,,,,,,,,,,,,,,,,,,,,,,,,,,,,,,,,,,,,,
,,?,0.00104,0,,,,,,stimuli/images/PICTURE_108.png,FLIGHT,5ae0c7d4e0feeb0001caff2b,13/02/1949,2020-09-03_22h23.01.693,proactive2,2020.1.2,Win32,60,5f5126bb654d4b30ee6923d8,5f515e8d5d41a43a45802077,1,,,,,,calendar,,,,,,,,,,,6,1,0,9,9,59,1,,,,,,,,,,,,,,,,,,,,,,,,,,,,,,,,,,,,,,,,,,,,,,,,,,,,,,,,,,,,,,,,,,,,,,,,,,,,,,,,,,,,,,,,,,,,,,
,,WOMEN,6.83048,1,,,,,,stimuli/images/PICTURE_147.png,WOMEN,5ae0c7d4e0feeb0001caff2b,13/02/1949,2020-09-03_22h23.01.693,proactive2,2020.1.2,Win32,60,5f5126bb654d4b30ee6923d8,5f515e8d5d41a43a45802077,1,,,,,,hanger,,,,,,,,,,,1,1,0,10,10,7,1,,,,,,,,,,,,,,,,,,,,,,,,,,,,,,,,,,,,,,,,,,,,,,,,,,,,,,,,,,,,,,,,,,,,,,,,,,,,,,,,,,,,,,,,,,,,,,
,,?,0.000835,0,,,,,,stimuli/images/PICTURE_491.png,GLASS,5ae0c7d4e0feeb0001caff2b,13/02/1949,2020-09-03_22h23.01.693,proactive2,2020.1.2,Win32,60,5f5126bb654d4b30ee6923d8,5f515e8d5d41a43a45802077,1,,,,,,rug,,,,,,,,,,,2,1,0,11,11,14,1,,,,,,,,,,,,,,,,,,,,,,,,,,,,,,,,,,,,,,,,,,,,,,,,,,,,,,,,,,,,,,,,,,,,,,,,,,,,,,,,,,,,,,,,,,,,,,
,,?,0.00046,0,,,,,,stimuli/images/PICTURE_108.png,POLICY,5ae0c7d4e0feeb0001caff2b,13/02/1949,2020-09-03_22h23.01.693,proactive2,2020.1.2,Win32,60,5f5126bb654d4b30ee6923d8,5f515e8d5d41a43a45802077,1,,,,,,calendar,,,,,,,,,,,3,1,0,12,12,22,1,,,,,,,,,,,,,,,,,,,,,,,,,,,,,,,,,,,,,,,,,,,,,,,,,,,,,,,,,,,,,,,,,,,,,,,,,,,,,,,,,,,,,,,,,,,,,,
,,?,0.00131,0,,,,,,stimuli/images/PICTURE_95.png,MILLER,5ae0c7d4e0feeb0001caff2b,13/02/1949,2020-09-03_22h23.01.693,proactive2,2020.1.2,Win32,60,5f5126bb654d4b30ee6923d8,5f515e8d5d41a43a45802077,1,,,,,,suitcase,,,,,,,,,,,6,1,0,13,13,56,1,,,,,,,,,,,,,,,,,,,,,,,,,,,,,,,,,,,,,,,,,,,,,,,,,,,,,,,,,,,,,,,,,,,,,,,,,,,,,,,,,,,,,,,,,,,,,,
,,?,0.00048,0,,,,,,stimuli/images/PICTURE_2.png,FLIGHT,5ae0c7d4e0feeb0001caff2b,13/02/1949,2020-09-03_22h23.01.693,proactive2,2020.1.2,Win32,60,5f5126bb654d4b30ee6923d8,5f515e8d5d41a43a45802077,1,,,,,,tyre,,,,,,,,,,,2,1,0,14,14,15,1,,,,,,,,,,,,,,,,,,,,,,,,,,,,,,,,,,,,,,,,,,,,,,,,,,,,,,,,,,,,,,,,,,,,,,,,,,,,,,,,,,,,,,,,,,,,,,
,,?,0.00044,0,,,,,,stimuli/images/PICTURE_233.png,LOTS,5ae0c7d4e0feeb0001caff2b,13/02/1949,2020-09-03_22h23.01.693,proactive2,2020.1.2,Win32,60,5f5126bb654d4b30ee6923d8,5f515e8d5d41a43a45802077,1,,,,,,salt,,,,,,,,,,,5,1,0,15,15,42,1,,,,,,,,,,,,,,,,,,,,,,,,,,,,,,,,,,,,,,,,,,,,,,,,,,,,,,,,,,,,,,,,,,,,,,,,,,,,,,,,,,,,,,,,,,,,,,
,,?,0.000475,0,,,,,,stimuli/images/PICTURE_340.png,VALLEY,5ae0c7d4e0feeb0001caff2b,13/02/1949,2020-09-03_22h23.01.693,proactive2,2020.1.2,Win32,60,5f5126bb654d4b30ee6923d8,5f515e8d5d41a43a45802077,1,,,,,,mirror,,,,,,,,,,,6,1,0,16,16,54,1,,,,,,,,,,,,,,,,,,,,,,,,,,,,,,,,,,,,,,,,,,,,,,,,,,,,,,,,,,,,,,,,,,,,,,,,,,,,,,,,,,,,,,,,,,,,,,
,,?,0.000435,0,,,,,,stimuli/images/PICTURE_68.png,MILE,5ae0c7d4e0feeb0001caff2b,13/02/1949,2020-09-03_22h23.01.693,proactive2,2020.1.2,Win32,60,5f5126bb654d4b30ee6923d8,5f515e8d5d41a43a45802077,1,,,,,,candle,,,,,,,,,,,6,1,0,17,17,51,1,,,,,,,,,,,,,,,,,,,,,,,,,,,,,,,,,,,,,,,,,,,,,,,,,,,,,,,,,,,,,,,,,,,,,,,,,,,,,,,,,,,,,,,,,,,,,,
,,BOYS,4.439975,1,,,,,,stimuli/images/PICTURE_95.png,BOYS,5ae0c7d4e0feeb0001caff2b,13/02/1949,2020-09-03_22h23.01.693,proactive2,2020.1.2,Win32,60,5f5126bb654d4b30ee6923d8,5f515e8d5d41a43a45802077,1,,,,,,suitcase,,,,,,,,,,,1,1,0,18,18,1,1,,,,,,,,,,,,,,,,,,,,,,,,,,,,,,,,,,,,,,,,,,,,,,,,,,,,,,,,,,,,,,,,,,,,,,,,,,,,,,,,,,,,,,,,,,,,,,
,,?,0.001325,0,,,,,,stimuli/images/PICTURE_677.png,APPLE,5ae0c7d4e0feeb0001caff2b,13/02/1949,2020-09-03_22h23.01.693,proactive2,2020.1.2,Win32,60,5f5126bb654d4b30ee6923d8,5f515e8d5d41a43a45802077,1,,,,,,map,,,,,,,,,,,5,1,0,19,19,43,1,,,,,,,,,,,,,,,,,,,,,,,,,,,,,,,,,,,,,,,,,,,,,,,,,,,,,,,,,,,,,,,,,,,,,,,,,,,,,,,,,,,,,,,,,,,,,,
,,?,0.000935,0,,,,,,stimuli/images/PICTURE_405.png,YEAR,5ae0c7d4e0feeb0001caff2b,13/02/1949,2020-09-03_22h23.01.693,proactive2,2020.1.2,Win32,60,5f5126bb654d4b30ee6923d8,5f515e8d5d41a43a45802077,1,,,,,,anchor,,,,,,,,,,,4,1,0,20,20,34,1,,,,,,,,,,,,,,,,,,,,,,,,,,,,,,,,,,,,,,,,,,,,,,,,,,,,,,,,,,,,,,,,,,,,,,,,,,,,,,,,,,,,,,,,,,,,,,
,,?,0.000915,0,,,,,,stimuli/images/PICTURE_675.png,SALE,5ae0c7d4e0feeb0001caff2b,13/02/1949,2020-09-03_22h23.01.693,proactive2,2020.1.2,Win32,60,5f5126bb654d4b30ee6923d8,5f515e8d5d41a43a45802077,1,,,,,,windmill,,,,,,,,,,,5,1,0,21,21,47,1,,,,,,,,,,,,,,,,,,,,,,,,,,,,,,,,,,,,,,,,,,,,,,,,,,,,,,,,,,,,,,,,,,,,,,,,,,,,,,,,,,,,,,,,,,,,,,
,,?,0.000885,0,,,,,,stimuli/images/PICTURE_95.png,HONEY,5ae0c7d4e0feeb0001caff2b,13/02/1949,2020-09-03_22h23.01.693,proactive2,2020.1.2,Win32,60,5f5126bb654d4b30ee6923d8,5f515e8d5d41a43a45802077,1,,,,,,suitcase,,,,,,,,,,,5,1,0,22,22,44,1,,,,,,,,,,,,,,,,,,,,,,,,,,,,,,,,,,,,,,,,,,,,,,,,,,,,,,,,,,,,,,,,,,,,,,,,,,,,,,,,,,,,,,,,,,,,,,
,,?,0.000845,0,,,,,,stimuli/images/PICTURE_327.png,CASINO,5ae0c7d4e0feeb0001caff2b,13/02/1949,2020-09-03_22h23.01.693,proactive2,2020.1.2,Win32,60,5f5126bb654d4b30ee6923d8,5f515e8d5d41a43a45802077,1,,,,,,helmet,,,,,,,,,,,3,1,0,23,23,20,1,,,,,,,,,,,,,,,,,,,,,,,,,,,,,,,,,,,,,,,,,,,,,,,,,,,,,,,,,,,,,,,,,,,,,,,,,,,,,,,,,,,,,,,,,,,,,,
,,?,0.00099,0,,,,,,stimuli/images/PICTURE_339.png,CLIENT,5ae0c7d4e0feeb0001caff2b,13/02/1949,2020-09-03_22h23.01.693,proactive2,2020.1.2,Win32,60,5f5126bb654d4b30ee6923d8,5f515e8d5d41a43a45802077,1,,,,,,backpack,,,,,,,,,,,2,1,0,24,24,11,1,,,,,,,,,,,,,,,,,,,,,,,,,,,,,,,,,,,,,,,,,,,,,,,,,,,,,,,,,,,,,,,,,,,,,,,,,,,,,,,,,,,,,,,,,,,,,,
,,?,0.000905,0,,,,,,stimuli/images/PICTURE_285.png,LIFE,5ae0c7d4e0feeb0001caff2b,13/02/1949,2020-09-03_22h23.01.693,proactive2,2020.1.2,Win32,60,5f5126bb654d4b30ee6923d8,5f515e8d5d41a43a45802077,1,,,,,,carrot,,,,,,,,,,,4,1,0,25,25,33,1,,,,,,,,,,,,,,,,,,,,,,,,,,,,,,,,,,,,,,,,,,,,,,,,,,,,,,,,,,,,,,,,,,,,,,,,,,,,,,,,,,,,,,,,,,,,,,
,,?,0.000905,0,,,,,,stimuli/images/PICTURE_177.png,WRITER,5ae0c7d4e0feeb0001caff2b,13/02/1949,2020-09-03_22h23.01.693,proactive2,2020.1.2,Win32,60,5f5126bb654d4b30ee6923d8,5f515e8d5d41a43a45802077,1,,,,,,mushroom,,,,,,,,,,,5,1,0,26,26,41,1,,,,,,,,,,,,,,,,,,,,,,,,,,,,,,,,,,,,,,,,,,,,,,,,,,,,,,,,,,,,,,,,,,,,,,,,,,,,,,,,,,,,,,,,,,,,,,
,,?,0.000875,0,,,,,,stimuli/images/PICTURE_504.png,YEAR,5ae0c7d4e0feeb0001caff2b,13/02/1949,2020-09-03_22h23.01.693,proactive2,2020.1.2,Win32,60,5f5126bb654d4b30ee6923d8,5f515e8d5d41a43a45802077,1,,,,,,wheel,,,,,,,,,,,2,1,0,27,27,13,1,,,,,,,,,,,,,,,,,,,,,,,,,,,,,,,,,,,,,,,,,,,,,,,,,,,,,,,,,,,,,,,,,,,,,,,,,,,,,,,,,,,,,,,,,,,,,,
,,?,0.000885,0,,,,,,stimuli/images/PICTURE_85.png,TOILET,5ae0c7d4e0feeb0001caff2b,13/02/1949,2020-09-03_22h23.01.693,proactive2,2020.1.2,Win32,60,5f5126bb654d4b30ee6923d8,5f515e8d5d41a43a45802077,1,,,,,,diamond,,,,,,,,,,,5,1,0,28,28,48,1,,,,,,,,,,,,,,,,,,,,,,,,,,,,,,,,,,,,,,,,,,,,,,,,,,,,,,,,,,,,,,,,,,,,,,,,,,,,,,,,,,,,,,,,,,,,,,
,,RIVER,5.74185,1,,,,,,stimuli/images/PICTURE_491.png,RIVER,5ae0c7d4e0feeb0001caff2b,13/02/1949,2020-09-03_22h23.01.693,proactive2,2020.1.2,Win32,60,5f5126bb654d4b30ee6923d8,5f515e8d5d41a43a45802077,1,,,,,,rug,,,,,,,,,,,1,1,0,29,29,6,1,,,,,,,,,,,,,,,,,,,,,,,,,,,,,,,,,,,,,,,,,,,,,,,,,,,,,,,,,,,,,,,,,,,,,,,,,,,,,,,,,,,,,,,,,,,,,,
,,?,0.00117,0,,,,,,stimuli/images/PICTURE_750.png,HOTEL,5ae0c7d4e0feeb0001caff2b,13/02/1949,2020-09-03_22h23.01.693,proactive2,2020.1.2,Win32,60,5f5126bb654d4b30ee6923d8,5f515e8d5d41a43a45802077,1,,,,,,kettle,,,,,,,,,,,3,1,0,30,30,27,1,,,,,,,,,,,,,,,,,,,,,,,,,,,,,,,,,,,,,,,,,,,,,,,,,,,,,,,,,,,,,,,,,,,,,,,,,,,,,,,,,,,,,,,,,,,,,,
,,?,0.001045,0,,,,,,stimuli/images/PICTURE_296.png,LIFE,5ae0c7d4e0feeb0001caff2b,13/02/1949,2020-09-03_22h23.01.693,proactive2,2020.1.2,Win32,60,5f5126bb654d4b30ee6923d8,5f515e8d5d41a43a45802077,1,,,,,,bolt,,,,,,,,,,,6,1,0,31,31,57,1,,,,,,,,,,,,,,,,,,,,,,,,,,,,,,,,,,,,,,,,,,,,,,,,,,,,,,,,,,,,,,,,,,,,,,,,,,,,,,,,,,,,,,,,,,,,,,
,,?,0.000865,0,,,,,,stimuli/images/PICTURE_504.png,COPS,5ae0c7d4e0feeb0001caff2b,13/02/1949,2020-09-03_22h23.01.693,proactive2,2020.1.2,Win32,60,5f5126bb654d4b30ee6923d8,5f515e8d5d41a43a45802077,1,,,,,,wheel,,,,,,,,,,,6,1,0,32,32,52,1,,,,,,,,,,,,,,,,,,,,,,,,,,,,,,,,,,,,,,,,,,,,,,,,,,,,,,,,,,,,,,,,,,,,,,,,,,,,,,,,,,,,,,,,,,,,,,
,,?,0.000895,0,,,,,,stimuli/images/PICTURE_32.png,KIND,5ae0c7d4e0feeb0001caff2b,13/02/1949,2020-09-03_22h23.01.693,proactive2,2020.1.2,Win32,60,5f5126bb654d4b30ee6923d8,5f515e8d5d41a43a45802077,1,,,,,,crown,,,,,,,,,,,4,1,0,33,33,35,1,,,,,,,,,,,,,,,,,,,,,,,,,,,,,,,,,,,,,,,,,,,,,,,,,,,,,,,,,,,,,,,,,,,,,,,,,,,,,,,,,,,,,,,,,,,,,,
,,?,0.00285,0,,,,,,stimuli/images/PICTURE_403.png,RIVER,5ae0c7d4e0feeb0001caff2b,13/02/1949,2020-09-03_22h23.01.693,proactive2,2020.1.2,Win32,60,5f5126bb654d4b30ee6923d8,5f515e8d5d41a43a45802077,1,,,,,,cathedral,,,,,,,,,,,5,1,0,34,34,40,1,,,,,,,,,,,,,,,,,,,,,,,,,,,,,,,,,,,,,,,,,,,,,,,,,,,,,,,,,,,,,,,,,,,,,,,,,,,,,,,,,,,,,,,,,,,,,,
,,?,0.00091,0,,,,,,stimuli/images/PICTURE_57.png,MOMENT,5ae0c7d4e0feeb0001caff2b,13/02/1949,2020-09-03_22h23.01.693,proactive2,2020.1.2,Win32,60,5f5126bb654d4b30ee6923d8,5f515e8d5d41a43a45802077,1,,,,,,stamp,,,,,,,,,,,4,1,0,35,35,37,1,,,,,,,,,,,,,,,,,,,,,,,,,,,,,,,,,,,,,,,,,,,,,,,,,,,,,,,,,,,,,,,,,,,,,,,,,,,,,,,,,,,,,,,,,,,,,,
,,?,0.000925,0,,,,,,stimuli/images/PICTURE_383.png,SERIES,5ae0c7d4e0feeb0001caff2b,13/02/1949,2020-09-03_22h23.01.693,proactive2,2020.1.2,Win32,60,5f5126bb654d4b30ee6923d8,5f515e8d5d41a43a45802077,1,,,,,,coin,,,,,,,,,,,5,1,0,36,36,46,1,,,,,,,,,,,,,,,,,,,,,,,,,,,,,,,,,,,,,,,,,,,,,,,,,,,,,,,,,,,,,,,,,,,,,,,,,,,,,,,,,,,,,,,,,,,,,,
,,?,0.0009,0,,,,,,stimuli/images/PICTURE_403.png,TOILET,5ae0c7d4e0feeb0001caff2b,13/02/1949,2020-09-03_22h23.01.693,proactive2,2020.1.2,Win32,60,5f5126bb654d4b30ee6923d8,5f515e8d5d41a43a45802077,1,,,,,,cathedral,,,,,,,,,,,3,1,0,37,37,25,1,,,,,,,,,,,,,,,,,,,,,,,,,,,,,,,,,,,,,,,,,,,,,,,,,,,,,,,,,,,,,,,,,,,,,,,,,,,,,,,,,,,,,,,,,,,,,,
,,?,0.000855,0,,,,,,stimuli/images/PICTURE_297.png,RIVER,5ae0c7d4e0feeb0001caff2b,13/02/1949,2020-09-03_22h23.01.693,proactive2,2020.1.2,Win32,60,5f5126bb654d4b30ee6923d8,5f515e8d5d41a43a45802077,1,,,,,,aeroplane,,,,,,,,,,,4,1,0,38,38,39,1,,,,,,,,,,,,,,,,,,,,,,,,,,,,,,,,,,,,,,,,,,,,,,,,,,,,,,,,,,,,,,,,,,,,,,,,,,,,,,,,,,,,,,,,,,,,,,
,,SERIES,4.76009,1,,,,,,stimuli/images/PICTURE_327.png,SERIES,5ae0c7d4e0feeb0001caff2b,13/02/1949,2020-09-03_22h23.01.693,proactive2,2020.1.2,Win32,60,5f5126bb654d4b30ee6923d8,5f515e8d5d41a43a45802077,1,,,,,,helmet,,,,,,,,,,,1,1,0,39,39,3,1,,,,,,,,,,,,,,,,,,,,,,,,,,,,,,,,,,,,,,,,,,,,,,,,,,,,,,,,,,,,,,,,,,,,,,,,,,,,,,,,,,,,,,,,,,,,,,
,,?,0.001245,0,,,,,,stimuli/images/PICTURE_504.png,ARTIST,5ae0c7d4e0feeb0001caff2b,13/02/1949,2020-09-03_22h23.01.693,proactive2,2020.1.2,Win32,60,5f5126bb654d4b30ee6923d8,5f515e8d5d41a43a45802077,1,,,,,,wheel,,,,,,,,,,,5,1,0,40,40,49,1,,,,,,,,,,,,,,,,,,,,,,,,,,,,,,,,,,,,,,,,,,,,,,,,,,,,,,,,,,,,,,,,,,,,,,,,,,,,,,,,,,,,,,,,,,,,,,
,,?,0.001055,0,,,,,,stimuli/images/PICTURE_42.png,BOYS,5ae0c7d4e0feeb0001caff2b,13/02/1949,2020-09-03_22h23.01.693,proactive2,2020.1.2,Win32,60,5f5126bb654d4b30ee6923d8,5f515e8d5d41a43a45802077,1,,,,,,pear,,,,,,,,,,,6,1,0,41,41,55,1,,,,,,,,,,,,,,,,,,,,,,,,,,,,,,,,,,,,,,,,,,,,,,,,,,,,,,,,,,,,,,,,,,,,,,,,,,,,,,,,,,,,,,,,,,,,,,
,,?,0.000965,0,,,,,,stimuli/images/PICTURE_203.png,GODS,5ae0c7d4e0feeb0001caff2b,13/02/1949,2020-09-03_22h23.01.693,proactive2,2020.1.2,Win32,60,5f5126bb654d4b30ee6923d8,5f515e8d5d41a43a45802077,1,,,,,,cap,,,,,,,,,,,4,1,0,42,42,30,1,,,,,,,,,,,,,,,,,,,,,,,,,,,,,,,,,,,,,,,,,,,,,,,,,,,,,,,,,,,,,,,,,,,,,,,,,,,,,,,,,,,,,,,,,,,,,,
,,?,0.0009,0,,,,,,stimuli/images/PICTURE_340.png,LETTER,5ae0c7d4e0feeb0001caff2b,13/02/1949,2020-09-03_22h23.01.693,proactive2,2020.1.2,Win32,60,5f5126bb654d4b30ee6923d8,5f515e8d5d41a43a45802077,1,,,,,,mirror,,,,,,,,,,,3,1,0,43,43,24,1,,,,,,,,,,,,,,,,,,,,,,,,,,,,,,,,,,,,,,,,,,,,,,,,,,,,,,,,,,,,,,,,,,,,,,,,,,,,,,,,,,,,,,,,,,,,,,
,,LOT,4.053515,0,,,,,,stimuli/images/PICTURE_296.png,LOTS,5ae0c7d4e0feeb0001caff2b,13/02/1949,2020-09-03_22h23.01.693,proactive2,2020.1.2,Win32,60,5f5126bb654d4b30ee6923d8,5f515e8d5d41a43a45802077,1,,,,,,bolt,,,,,,,,,,,1,1,0,44,44,9,1,,,,,,,,,,,,,,,,,,,,,,,,,,,,,,,,,,,,,,,,,,,,,,,,,,,,,,,,,,,,,,,,,,,,,,,,,,,,,,,,,,,,,,,,,,,,,,
,,?,0.00116,0,,,,,,stimuli/images/PICTURE_469.png,AGENT,5ae0c7d4e0feeb0001caff2b,13/02/1949,2020-09-03_22h23.01.693,proactive2,2020.1.2,Win32,60,5f5126bb654d4b30ee6923d8,5f515e8d5d41a43a45802077,1,,,,,,stool,,,,,,,,,,,2,1,0,45,45,16,1,,,,,,,,,,,,,,,,,,,,,,,,,,,,,,,,,,,,,,,,,,,,,,,,,,,,,,,,,,,,,,,,,,,,,,,,,,,,,,,,,,,,,,,,,,,,,,
,,NATION,7.176885,1,,,,,,stimuli/images/PICTURE_85.png,NATION,5ae0c7d4e0feeb0001caff2b,13/02/1949,2020-09-03_22h23.01.693,proactive2,2020.1.2,Win32,60,5f5126bb654d4b30ee6923d8,5f515e8d5d41a43a45802077,1,,,,,,diamond,,,,,,,,,,,1,1,0,46,46,5,1,,,,,,,,,,,,,,,,,,,,,,,,,,,,,,,,,,,,,,,,,,,,,,,,,,,,,,,,,,,,,,,,,,,,,,,,,,,,,,,,,,,,,,,,,,,,,,
,,MIGHT,6.715395,0,,,,,,stimuli/images/PICTURE_203.png,NIGHT,5ae0c7d4e0feeb0001caff2b,13/02/1949,2020-09-03_22h23.01.693,proactive2,2020.1.2,Win32,60,5f5126bb654d4b30ee6923d8,5f515e8d5d41a43a45802077,1,,,,,,cap,,,,,,,,,,,1,1,0,47,47,2,1,,,,,,,,,,,,,,,,,,,,,,,,,,,,,,,,,,,,,,,,,,,,,,,,,,,,,,,,,,,,,,,,,,,,,,,,,,,,,,,,,,,,,,,,,,,,,,
,,?,0.001495,0,,,,,,stimuli/images/PICTURE_667.png,RIVER,5ae0c7d4e0feeb0001caff2b,13/02/1949,2020-09-03_22h23.01.693,proactive2,2020.1.2,Win32,60,5f5126bb654d4b30ee6923d8,5f515e8d5d41a43a45802077,1,,,,,,daisy,,,,,,,,,,,2,1,0,48,48,10,1,,,,,,,,,,,,,,,,,,,,,,,,,,,,,,,,,,,,,,,,,,,,,,,,,,,,,,,,,,,,,,,,,,,,,,,,,,,,,,,,,,,,,,,,,,,,,,
,,?,0.000895,0,,,,,,stimuli/images/PICTURE_383.png,WRITER,5ae0c7d4e0feeb0001caff2b,13/02/1949,2020-09-03_22h23.01.693,proactive2,2020.1.2,Win32,60,5f5126bb654d4b30ee6923d8,5f515e8d5d41a43a45802077,1,,,,,,coin,,,,,,,,,,,3,1,0,49,49,28,1,,,,,,,,,,,,,,,,,,,,,,,,,,,,,,,,,,,,,,,,,,,,,,,,,,,,,,,,,,,,,,,,,,,,,,,,,,,,,,,,,,,,,,,,,,,,,,
,,?,0.00099,0,,,,,,stimuli/images/PICTURE_380.png,HONEY,5ae0c7d4e0feeb0001caff2b,13/02/1949,2020-09-03_22h23.01.693,proactive2,2020.1.2,Win32,60,5f5126bb654d4b30ee6923d8,5f515e8d5d41a43a45802077,1,,,,,,gorilla,,,,,,,,,,,2,1,0,50,50,19,1,,,,,,,,,,,,,,,,,,,,,,,,,,,,,,,,,,,,,,,,,,,,,,,,,,,,,,,,,,,,,,,,,,,,,,,,,,,,,,,,,,,,,,,,,,,,,,
,,?,0.00113,0,,,,,,stimuli/images/PICTURE_147.png,YEAR,5ae0c7d4e0feeb0001caff2b,13/02/1949,2020-09-03_22h23.01.693,proactive2,2020.1.2,Win32,60,5f5126bb654d4b30ee6923d8,5f515e8d5d41a43a45802077,1,,,,,,hanger,,,,,,,,,,,3,1,0,51,51,21,1,,,,,,,,,,,,,,,,,,,,,,,,,,,,,,,,,,,,,,,,,,,,,,,,,,,,,,,,,,,,,,,,,,,,,,,,,,,,,,,,,,,,,,,,,,,,,,
,,?,0.00085,0,,,,,,stimuli/images/PICTURE_487.png,GIRL,5ae0c7d4e0feeb0001caff2b,13/02/1949,2020-09-03_22h23.01.693,proactive2,2020.1.2,Win32,60,5f5126bb654d4b30ee6923d8,5f515e8d5d41a43a45802077,1,,,,,,basket,,,,,,,,,,,5,1,0,52,52,45,1,,,,,,,,,,,,,,,,,,,,,,,,,,,,,,,,,,,,,,,,,,,,,,,,,,,,,,,,,,,,,,,,,,,,,,,,,,,,,,,,,,,,,,,,,,,,,,
,,CANDY,8.11837,1,,,,,,stimuli/images/PICTURE_380.png,CANDY,5ae0c7d4e0feeb0001caff2b,13/02/1949,2020-09-03_22h23.01.693,proactive2,2020.1.2,Win32,60,5f5126bb654d4b30ee6923d8,5f515e8d5d41a43a45802077,1,,,,,,gorilla,,,,,,,,,,,1,1,0,53,53,0,1,,,,,,,,,,,,,,,,,,,,,,,,,,,,,,,,,,,,,,,,,,,,,,,,,,,,,,,,,,,,,,,,,,,,,,,,,,,,,,,,,,,,,,,,,,,,,,
,,PENNY,7.266215,1,,,,,,stimuli/images/PICTURE_685.png,PENNY,5ae0c7d4e0feeb0001caff2b,13/02/1949,2020-09-03_22h23.01.693,proactive2,2020.1.2,Win32,60,5f5126bb654d4b30ee6923d8,5f515e8d5d41a43a45802077,1,,,,,,goose,,,,,,,,,,,1,1,0,54,54,4,1,,,,,,,,,,,,,,,,,,,,,,,,,,,,,,,,,,,,,,,,,,,,,,,,,,,,,,,,,,,,,,,,,,,,,,,,,,,,,,,,,,,,,,,,,,,,,,
,,PEN,12.565325,0,,,,,,stimuli/images/PICTURE_33.png,FRIEND,5ae0c7d4e0feeb0001caff2b,13/02/1949,2020-09-03_22h23.01.693,proactive2,2020.1.2,Win32,60,5f5126bb654d4b30ee6923d8,5f515e8d5d41a43a45802077,1,,,,,,frame,,,,,,,,,,,1,1,0,55,55,8,1,,,,,,,,,,,,,,,,,,,,,,,,,,,,,,,,,,,,,,,,,,,,,,,,,,,,,,,,,,,,,,,,,,,,,,,,,,,,,,,,,,,,,,,,,,,,,,
,,?,0.001235,0,,,,,,stimuli/images/PICTURE_68.png,ROOF,5ae0c7d4e0feeb0001caff2b,13/02/1949,2020-09-03_22h23.01.693,proactive2,2020.1.2,Win32,60,5f5126bb654d4b30ee6923d8,5f515e8d5d41a43a45802077,1,,,,,,candle,,,,,,,,,,,4,1,0,56,56,38,1,,,,,,,,,,,,,,,,,,,,,,,,,,,,,,,,,,,,,,,,,,,,,,,,,,,,,,,,,,,,,,,,,,,,,,,,,,,,,,,,,,,,,,,,,,,,,,
,,?,0.00098,0,,,,,,stimuli/images/PICTURE_208.png,SYSTEM,5ae0c7d4e0feeb0001caff2b,13/02/1949,2020-09-03_22h23.01.693,proactive2,2020.1.2,Win32,60,5f5126bb654d4b30ee6923d8,5f515e8d5d41a43a45802077,1,,,,,,microphone,,,,,,,,,,,4,1,0,57,57,32,1,,,,,,,,,,,,,,,,,,,,,,,,,,,,,,,,,,,,,,,,,,,,,,,,,,,,,,,,,,,,,,,,,,,,,,,,,,,,,,,,,,,,,,,,,,,,,,
,,?,0.000805,0,,,,,,stimuli/images/PICTURE_744.png,WEAPON,5ae0c7d4e0feeb0001caff2b,13/02/1949,2020-09-03_22h23.01.693,proactive2,2020.1.2,Win32,60,5f5126bb654d4b30ee6923d8,5f515e8d5d41a43a45802077,1,,,,,,ring,,,,,,,,,,,6,1,0,58,58,50,1,,,,,,,,,,,,,,,,,,,,,,,,,,,,,,,,,,,,,,,,,,,,,,,,,,,,,,,,,,,,,,,,,,,,,,,,,,,,,,,,,,,,,,,,,,,,,,
,,?,0.000925,0,,,,,,stimuli/images/PICTURE_403.png,WRITER,5ae0c7d4e0feeb0001caff2b,13/02/1949,2020-09-03_22h23.01.693,proactive2,2020.1.2,Win32,60,5f5126bb654d4b30ee6923d8,5f515e8d5d41a43a45802077,1,,,,,,cathedral,,,,,,,,,,,4,1,0,59,59,31,1,,,,,,,,,,,,,,,,,,,,,,,,,,,,,,,,,,,,,,,,,,,,,,,,,,,,,,,,,,,,,,,,,,,,,,,,,,,,,,,,,,,,,,,,,,,,,,
,,,,,,,,,,,,5ae0c7d4e0feeb0001caff2b,13/02/1949,2020-09-03_22h23.01.693,proactive2,2020.1.2,Win32,60,5f5126bb654d4b30ee6923d8,5f515e8d5d41a43a45802077,1,,,,,,,,,,,,,,,,,,,,,,,,0,0,0,1,1,stimuli/learn-block2.csv,,,,,,,,,,,,,,,,,,,,,,,,,,,,,,,,,,,,,,,,,,,,,,,,,,,,,,,,,,,,,,,,,,,,,,,,,,,,,,,,,,,,,,,,
,,,,,,,,,,stimuli/images/PICTURE_491.png,SERIES,5ae0c7d4e0feeb0001caff2b,13/02/1949,2020-09-03_22h23.01.693,proactive2,2020.1.2,Win32,60,5f5126bb654d4b30ee6923d8,5f515e8d5d41a43a45802077,1,,,,,,rug,,,,,,0,0,0,39,1,4,2,,,,,,,,,,,,,,,,,,,,,,,,,,,,,,,,,,,,,,,,,,,,,,,,,,,,,,,,,,,,,,,,,,,,,,,,,,,,,,,,,,,,,,,,,,,,,,,,,,,
,,,,,,,,,,stimuli/images/PICTURE_564.png,PLENTY,5ae0c7d4e0feeb0001caff2b,13/02/1949,2020-09-03_22h23.01.693,proactive2,2020.1.2,Win32,60,5f5126bb654d4b30ee6923d8,5f515e8d5d41a43a45802077,1,,,,,,spoon,,,,,,0,1,1,11,1,2,2,,,,,,,,,,,,,,,,,,,,,,,,,,,,,,,,,,,,,,,,,,,,,,,,,,,,,,,,,,,,,,,,,,,,,,,,,,,,,,,,,,,,,,,,,,,,,,,,,,,
,,,,,,,,,,stimuli/images/PICTURE_327.png,LEADER,5ae0c7d4e0feeb0001caff2b,13/02/1949,2020-09-03_22h23.01.693,proactive2,2020.1.2,Win32,60,5f5126bb654d4b30ee6923d8,5f515e8d5d41a43a45802077,1,,,,,,helmet,,,,,,0,2,2,17,1,2,2,,,,,,,,,,,,,,,,,,,,,,,,,,,,,,,,,,,,,,,,,,,,,,,,,,,,,,,,,,,,,,,,,,,,,,,,,,,,,,,,,,,,,,,,,,,,,,,,,,,
,,,,,,,,,,stimuli/images/PICTURE_2.png,JUNGLE,5ae0c7d4e0feeb0001caff2b,13/02/1949,2020-09-03_22h23.01.693,proactive2,2020.1.2,Win32,60,5f5126bb654d4b30ee6923d8,5f515e8d5d41a43a45802077,1,,,,,,tyre,,,,,,0,3,3,1,1,1,2,,,,,,,,,,,,,,,,,,,,,,,,,,,,,,,,,,,,,,,,,,,,,,,,,,,,,,,,,,,,,,,,,,,,,,,,,,,,,,,,,,,,,,,,,,,,,,,,,,,
,,,,,,,,,,stimuli/images/PICTURE_509.png,BATH,5ae0c7d4e0feeb0001caff2b,13/02/1949,2020-09-03_22h23.01.693,proactive2,2020.1.2,Win32,60,5f5126bb654d4b30ee6923d8,5f515e8d5d41a43a45802077,1,,,,,,telephone,,,,,,0,4,4,15,1,2,2,,,,,,,,,,,,,,,,,,,,,,,,,,,,,,,,,,,,,,,,,,,,,,,,,,,,,,,,,,,,,,,,,,,,,,,,,,,,,,,,,,,,,,,,,,,,,,,,,,,
,,,,,,,,,,stimuli/images/PICTURE_215.png,LEADER,5ae0c7d4e0feeb0001caff2b,13/02/1949,2020-09-03_22h23.01.693,proactive2,2020.1.2,Win32,60,5f5126bb654d4b30ee6923d8,5f515e8d5d41a43a45802077,1,,,,,,boot,,,,,,0,5,5,43,1,5,2,,,,,,,,,,,,,,,,,,,,,,,,,,,,,,,,,,,,,,,,,,,,,,,,,,,,,,,,,,,,,,,,,,,,,,,,,,,,,,,,,,,,,,,,,,,,,,,,,,,
,,,,,,,,,,stimuli/images/PICTURE_509.png,SHOTS,5ae0c7d4e0feeb0001caff2b,13/02/1949,2020-09-03_22h23.01.693,proactive2,2020.1.2,Win32,60,5f5126bb654d4b30ee6923d8,5f515e8d5d41a43a45802077,1,,,,,,telephone,,,,,,0,6,6,7,1,1,2,,,,,,,,,,,,,,,,,,,,,,,,,,,,,,,,,,,,,,,,,,,,,,,,,,,,,,,,,,,,,,,,,,,,,,,,,,,,,,,,,,,,,,,,,,,,,,,,,,,
,,,,,,,,,,stimuli/images/PICTURE_470.png,MOMENT,5ae0c7d4e0feeb0001caff2b,13/02/1949,2020-09-03_22h23.01.693,proactive2,2020.1.2,Win32,60,5f5126bb654d4b30ee6923d8,5f515e8d5d41a43a45802077,1,,,,,,motorbike,,,,,,0,7,7,40,1,5,2,,,,,,,,,,,,,,,,,,,,,,,,,,,,,,,,,,,,,,,,,,,,,,,,,,,,,,,,,,,,,,,,,,,,,,,,,,,,,,,,,,,,,,,,,,,,,,,,,,,
,,,,,,,,,,stimuli/images/PICTURE_297.png,BODY,5ae0c7d4e0feeb0001caff2b,13/02/1949,2020-09-03_22h23.01.693,proactive2,2020.1.2,Win32,60,5f5126bb654d4b30ee6923d8,5f515e8d5d41a43a45802077,1,,,,,,aeroplane,,,,,,0,8,8,51,1,6,2,,,,,,,,,,,,,,,,,,,,,,,,,,,,,,,,,,,,,,,,,,,,,,,,,,,,,,,,,,,,,,,,,,,,,,,,,,,,,,,,,,,,,,,,,,,,,,,,,,,
,,,,,,,,,,stimuli/images/PICTURE_314.png,SPEECH,5ae0c7d4e0feeb0001caff2b,13/02/1949,2020-09-03_22h23.01.693,proactive2,2020.1.2,Win32,60,5f5126bb654d4b30ee6923d8,5f515e8d5d41a43a45802077,1,,,,,,perfume,,,,,,0,9,9,35,1,4,2,,,,,,,,,,,,,,,,,,,,,,,,,,,,,,,,,,,,,,,,,,,,,,,,,,,,,,,,,,,,,,,,,,,,,,,,,,,,,,,,,,,,,,,,,,,,,,,,,,,
,,,,,,,,,,stimuli/images/PICTURE_33.png,COPS,5ae0c7d4e0feeb0001caff2b,13/02/1949,2020-09-03_22h23.01.693,proactive2,2020.1.2,Win32,60,5f5126bb654d4b30ee6923d8,5f515e8d5d41a43a45802077,1,,,,,,frame,,,,,,0,10,10,29,1,3,2,,,,,,,,,,,,,,,,,,,,,,,,,,,,,,,,,,,,,,,,,,,,,,,,,,,,,,,,,,,,,,,,,,,,,,,,,,,,,,,,,,,,,,,,,,,,,,,,,,,
,,,,,,,,,,stimuli/images/PICTURE_208.png,SPIRIT,5ae0c7d4e0feeb0001caff2b,13/02/1949,2020-09-03_22h23.01.693,proactive2,2020.1.2,Win32,60,5f5126bb654d4b30ee6923d8,5f515e8d5d41a43a45802077,1,,,,,,microphone,,,,,,0,11,11,28,1,3,2,,,,,,,,,,,,,,,,,,,,,,,,,,,,,,,,,,,,,,,,,,,,,,,,,,,,,,,,,,,,,,,,,,,,,,,,,,,,,,,,,,,,,,,,,,,,,,,,,,,
,,,,,,,,,,stimuli/images/PICTURE_688.png,CLOCK,5ae0c7d4e0feeb0001caff2b,13/02/1949,2020-09-03_22h23.01.693,proactive2,2020.1.2,Win32,60,5f5126bb654d4b30ee6923d8,5f515e8d5d41a43a45802077,1,,,,,,runner,,,,,,0,12,12,42,1,5,2,,,,,,,,,,,,,,,,,,,,,,,,,,,,,,,,,,,,,,,,,,,,,,,,,,,,,,,,,,,,,,,,,,,,,,,,,,,,,,,,,,,,,,,,,,,,,,,,,,,
,,,,,,,,,,stimuli/images/PICTURE_509.png,APPLE,5ae0c7d4e0feeb0001caff2b,13/02/1949,2020-09-03_22h23.01.693,proactive2,2020.1.2,Win32,60,5f5126bb654d4b30ee6923d8,5f515e8d5d41a43a45802077,1,,,,,,telephone,,,,,,0,13,13,38,1,4,2,,,,,,,,,,,,,,,,,,,,,,,,,,,,,,,,,,,,,,,,,,,,,,,,,,,,,,,,,,,,,,,,,,,,,,,,,,,,,,,,,,,,,,,,,,,,,,,,,,,
,,,,,,,,,,stimuli/images/PICTURE_403.png,FAMILY,5ae0c7d4e0feeb0001caff2b,13/02/1949,2020-09-03_22h23.01.693,proactive2,2020.1.2,Win32,60,5f5126bb654d4b30ee6923d8,5f515e8d5d41a43a45802077,1,,,,,,cathedral,,,,,,0,14,14,9,1,1,2,,,,,,,,,,,,,,,,,,,,,,,,,,,,,,,,,,,,,,,,,,,,,,,,,,,,,,,,,,,,,,,,,,,,,,,,,,,,,,,,,,,,,,,,,,,,,,,,,,,
,,,,,,,,,,stimuli/images/PICTURE_655.png,SALE,5ae0c7d4e0feeb0001caff2b,13/02/1949,2020-09-03_22h23.01.693,proactive2,2020.1.2,Win32,60,5f5126bb654d4b30ee6923d8,5f515e8d5d41a43a45802077,1,,,,,,megaphone,,,,,,0,15,15,57,1,6,2,,,,,,,,,,,,,,,,,,,,,,,,,,,,,,,,,,,,,,,,,,,,,,,,,,,,,,,,,,,,,,,,,,,,,,,,,,,,,,,,,,,,,,,,,,,,,,,,,,,
,,,,,,,,,,stimuli/images/PICTURE_68.png,KIND,5ae0c7d4e0feeb0001caff2b,13/02/1949,2020-09-03_22h23.01.693,proactive2,2020.1.2,Win32,60,5f5126bb654d4b30ee6923d8,5f515e8d5d41a43a45802077,1,,,,,,candle,,,,,,0,16,16,23,1,3,2,,,,,,,,,,,,,,,,,,,,,,,,,,,,,,,,,,,,,,,,,,,,,,,,,,,,,,,,,,,,,,,,,,,,,,,,,,,,,,,,,,,,,,,,,,,,,,,,,,,
,,,,,,,,,,stimuli/images/PICTURE_147.png,LEADER,5ae0c7d4e0feeb0001caff2b,13/02/1949,2020-09-03_22h23.01.693,proactive2,2020.1.2,Win32,60,5f5126bb654d4b30ee6923d8,5f515e8d5d41a43a45802077,1,,,,,,hanger,,,,,,0,17,17,33,1,4,2,,,,,,,,,,,,,,,,,,,,,,,,,,,,,,,,,,,,,,,,,,,,,,,,,,,,,,,,,,,,,,,,,,,,,,,,,,,,,,,,,,,,,,,,,,,,,,,,,,,
,,,,,,,,,,stimuli/images/PICTURE_215.png,FOOD,5ae0c7d4e0feeb0001caff2b,13/02/1949,2020-09-03_22h23.01.693,proactive2,2020.1.2,Win32,60,5f5126bb654d4b30ee6923d8,5f515e8d5d41a43a45802077,1,,,,,,boot,,,,,,0,18,18,5,1,1,2,,,,,,,,,,,,,,,,,,,,,,,,,,,,,,,,,,,,,,,,,,,,,,,,,,,,,,,,,,,,,,,,,,,,,,,,,,,,,,,,,,,,,,,,,,,,,,,,,,,
,,,,,,,,,,stimuli/images/PICTURE_348.png,DUDE,5ae0c7d4e0feeb0001caff2b,13/02/1949,2020-09-03_22h23.01.693,proactive2,2020.1.2,Win32,60,5f5126bb654d4b30ee6923d8,5f515e8d5d41a43a45802077,1,,,,,,pepper,,,,,,0,19,19,59,1,6,2,,,,,,,,,,,,,,,,,,,,,,,,,,,,,,,,,,,,,,,,,,,,,,,,,,,,,,,,,,,,,,,,,,,,,,,,,,,,,,,,,,,,,,,,,,,,,,,,,,,
,,,,,,,,,,stimuli/images/PICTURE_667.png,GLASS,5ae0c7d4e0feeb0001caff2b,13/02/1949,2020-09-03_22h23.01.693,proactive2,2020.1.2,Win32,60,5f5126bb654d4b30ee6923d8,5f515e8d5d41a43a45802077,1,,,,,,daisy,,,,,,0,20,20,27,1,3,2,,,,,,,,,,,,,,,,,,,,,,,,,,,,,,,,,,,,,,,,,,,,,,,,,,,,,,,,,,,,,,,,,,,,,,,,,,,,,,,,,,,,,,,,,,,,,,,,,,,
,,,,,,,,,,stimuli/images/PICTURE_215.png,BOYS,5ae0c7d4e0feeb0001caff2b,13/02/1949,2020-09-03_22h23.01.693,proactive2,2020.1.2,Win32,60,5f5126bb654d4b30ee6923d8,5f515e8d5d41a43a45802077,1,,,,,,boot,,,,,,0,21,21,24,1,3,2,,,,,,,,,,,,,,,,,,,,,,,,,,,,,,,,,,,,,,,,,,,,,,,,,,,,,,,,,,,,,,,,,,,,,,,,,,,,,,,,,,,,,,,,,,,,,,,,,,,
,,,,,,,,,,stimuli/images/PICTURE_654.png,YEAR,5ae0c7d4e0feeb0001caff2b,13/02/1949,2020-09-03_22h23.01.693,proactive2,2020.1.2,Win32,60,5f5126bb654d4b30ee6923d8,5f515e8d5d41a43a45802077,1,,,,,,pencil,,,,,,0,22,22,41,1,5,2,,,,,,,,,,,,,,,,,,,,,,,,,,,,,,,,,,,,,,,,,,,,,,,,,,,,,,,,,,,,,,,,,,,,,,,,,,,,,,,,,,,,,,,,,,,,,,,,,,,
,,,,,,,,,,stimuli/images/PICTURE_487.png,ROOF,5ae0c7d4e0feeb0001caff2b,13/02/1949,2020-09-03_22h23.01.693,proactive2,2020.1.2,Win32,60,5f5126bb654d4b30ee6923d8,5f515e8d5d41a43a45802077,1,,,,,,basket,,,,,,0,23,23,50,1,6,2,,,,,,,,,,,,,,,,,,,,,,,,,,,,,,,,,,,,,,,,,,,,,,,,,,,,,,,,,,,,,,,,,,,,,,,,,,,,,,,,,,,,,,,,,,,,,,,,,,,
,,,,,,,,,,stimuli/images/PICTURE_453.png,FAMILY,5ae0c7d4e0feeb0001caff2b,13/02/1949,2020-09-03_22h23.01.693,proactive2,2020.1.2,Win32,60,5f5126bb654d4b30ee6923d8,5f515e8d5d41a43a45802077,1,,,,,,scissors,,,,,,0,24,24,48,1,5,2,,,,,,,,,,,,,,,,,,,,,,,,,,,,,,,,,,,,,,,,,,,,,,,,,,,,,,,,,,,,,,,,,,,,,,,,,,,,,,,,,,,,,,,,,,,,,,,,,,,
,,,,,,,,,,stimuli/images/PICTURE_470.png,BEAUTY,5ae0c7d4e0feeb0001caff2b,13/02/1949,2020-09-03_22h23.01.693,proactive2,2020.1.2,Win32,60,5f5126bb654d4b30ee6923d8,5f515e8d5d41a43a45802077,1,,,,,,motorbike,,,,,,0,25,25,26,1,3,2,,,,,,,,,,,,,,,,,,,,,,,,,,,,,,,,,,,,,,,,,,,,,,,,,,,,,,,,,,,,,,,,,,,,,,,,,,,,,,,,,,,,,,,,,,,,,,,,,,,
,,,,,,,,,,stimuli/images/PICTURE_487.png,POLICY,5ae0c7d4e0feeb0001caff2b,13/02/1949,2020-09-03_22h23.01.693,proactive2,2020.1.2,Win32,60,5f5126bb654d4b30ee6923d8,5f515e8d5d41a43a45802077,1,,,,,,basket,,,,,,0,26,26,34,1,4,2,,,,,,,,,,,,,,,,,,,,,,,,,,,,,,,,,,,,,,,,,,,,,,,,,,,,,,,,,,,,,,,,,,,,,,,,,,,,,,,,,,,,,,,,,,,,,,,,,,,
,,,,,,,,,,stimuli/images/PICTURE_285.png,PRINCE,5ae0c7d4e0feeb0001caff2b,13/02/1949,2020-09-03_22h23.01.693,proactive2,2020.1.2,Win32,60,5f5126bb654d4b30ee6923d8,5f515e8d5d41a43a45802077,1,,,,,,carrot,,,,,,0,27,27,20,1,3,2,,,,,,,,,,,,,,,,,,,,,,,,,,,,,,,,,,,,,,,,,,,,,,,,,,,,,,,,,,,,,,,,,,,,,,,,,,,,,,,,,,,,,,,,,,,,,,,,,,,
,,,,,,,,,,stimuli/images/PICTURE_57.png,CASINO,5ae0c7d4e0feeb0001caff2b,13/02/1949,2020-09-03_22h23.01.693,proactive2,2020.1.2,Win32,60,5f5126bb654d4b30ee6923d8,5f515e8d5d41a43a45802077,1,,,,,,stamp,,,,,,0,28,28,12,1,2,2,,,,,,,,,,,,,,,,,,,,,,,,,,,,,,,,,,,,,,,,,,,,,,,,,,,,,,,,,,,,,,,,,,,,,,,,,,,,,,,,,,,,,,,,,,,,,,,,,,,
,,,,,,,,,,stimuli/images/PICTURE_405.png,JUNGLE,5ae0c7d4e0feeb0001caff2b,13/02/1949,2020-09-03_22h23.01.693,proactive2,2020.1.2,Win32,60,5f5126bb654d4b30ee6923d8,5f515e8d5d41a43a45802077,1,,,,,,anchor,,,,,,0,29,29,13,1,2,2,,,,,,,,,,,,,,,,,,,,,,,,,,,,,,,,,,,,,,,,,,,,,,,,,,,,,,,,,,,,,,,,,,,,,,,,,,,,,,,,,,,,,,,,,,,,,,,,,,,
,,,,,,,,,,stimuli/images/PICTURE_405.png,HOUSE,5ae0c7d4e0feeb0001caff2b,13/02/1949,2020-09-03_22h23.01.693,proactive2,2020.1.2,Win32,60,5f5126bb654d4b30ee6923d8,5f515e8d5d41a43a45802077,1,,,,,,anchor,,,,,,0,30,30,2,1,1,2,,,,,,,,,,,,,,,,,,,,,,,,,,,,,,,,,,,,,,,,,,,,,,,,,,,,,,,,,,,,,,,,,,,,,,,,,,,,,,,,,,,,,,,,,,,,,,,,,,,
,,,,,,,,,,stimuli/images/PICTURE_95.png,NIGHT,5ae0c7d4e0feeb0001caff2b,13/02/1949,2020-09-03_22h23.01.693,proactive2,2020.1.2,Win32,60,5f5126bb654d4b30ee6923d8,5f515e8d5d41a43a45802077,1,,,,,,suitcase,,,,,,0,31,31,37,1,4,2,,,,,,,,,,,,,,,,,,,,,,,,,,,,,,,,,,,,,,,,,,,,,,,,,,,,,,,,,,,,,,,,,,,,,,,,,,,,,,,,,,,,,,,,,,,,,,,,,,,
,,,,,,,,,,stimuli/images/PICTURE_57.png,CANDY,5ae0c7d4e0feeb0001caff2b,13/02/1949,2020-09-03_22h23.01.693,proactive2,2020.1.2,Win32,60,5f5126bb654d4b30ee6923d8,5f515e8d5d41a43a45802077,1,,,,,,stamp,,,,,,0,32,32,52,1,6,2,,,,,,,,,,,,,,,,,,,,,,,,,,,,,,,,,,,,,,,,,,,,,,,,,,,,,,,,,,,,,,,,,,,,,,,,,,,,,,,,,,,,,,,,,,,,,,,,,,,
,,,,,,,,,,stimuli/images/PICTURE_348.png,TOILET,5ae0c7d4e0feeb0001caff2b,13/02/1949,2020-09-03_22h23.01.693,proactive2,2020.1.2,Win32,60,5f5126bb654d4b30ee6923d8,5f515e8d5d41a43a45802077,1,,,,,,pepper,,,,,,0,33,33,4,1,1,2,,,,,,,,,,,,,,,,,,,,,,,,,,,,,,,,,,,,,,,,,,,,,,,,,,,,,,,,,,,,,,,,,,,,,,,,,,,,,,,,,,,,,,,,,,,,,,,,,,,
,,,,,,,,,,stimuli/images/PICTURE_692.png,DUDE,5ae0c7d4e0feeb0001caff2b,13/02/1949,2020-09-03_22h23.01.693,proactive2,2020.1.2,Win32,60,5f5126bb654d4b30ee6923d8,5f515e8d5d41a43a45802077,1,,,,,,cherry,,,,,,0,34,34,47,1,5,2,,,,,,,,,,,,,,,,,,,,,,,,,,,,,,,,,,,,,,,,,,,,,,,,,,,,,,,,,,,,,,,,,,,,,,,,,,,,,,,,,,,,,,,,,,,,,,,,,,,
,,,,,,,,,,stimuli/images/PICTURE_452.png,COPS,5ae0c7d4e0feeb0001caff2b,13/02/1949,2020-09-03_22h23.01.693,proactive2,2020.1.2,Win32,60,5f5126bb654d4b30ee6923d8,5f515e8d5d41a43a45802077,1,,,,,,watch,,,,,,0,35,35,0,1,1,2,,,,,,,,,,,,,,,,,,,,,,,,,,,,,,,,,,,,,,,,,,,,,,,,,,,,,,,,,,,,,,,,,,,,,,,,,,,,,,,,,,,,,,,,,,,,,,,,,,,
,,,,,,,,,,stimuli/images/PICTURE_18.png,RIVER,5ae0c7d4e0feeb0001caff2b,13/02/1949,2020-09-03_22h23.01.693,proactive2,2020.1.2,Win32,60,5f5126bb654d4b30ee6923d8,5f515e8d5d41a43a45802077,1,,,,,,planet,,,,,,0,36,36,22,1,3,2,,,,,,,,,,,,,,,,,,,,,,,,,,,,,,,,,,,,,,,,,,,,,,,,,,,,,,,,,,,,,,,,,,,,,,,,,,,,,,,,,,,,,,,,,,,,,,,,,,,
,,,,,,,,,,stimuli/images/PICTURE_141.png,CLIENT,5ae0c7d4e0feeb0001caff2b,13/02/1949,2020-09-03_22h23.01.693,proactive2,2020.1.2,Win32,60,5f5126bb654d4b30ee6923d8,5f515e8d5d41a43a45802077,1,,,,,,sunflower,,,,,,0,37,37,30,1,4,2,,,,,,,,,,,,,,,,,,,,,,,,,,,,,,,,,,,,,,,,,,,,,,,,,,,,,,,,,,,,,,,,,,,,,,,,,,,,,,,,,,,,,,,,,,,,,,,,,,,
,,,,,,,,,,stimuli/images/PICTURE_356.png,CANDY,5ae0c7d4e0feeb0001caff2b,13/02/1949,2020-09-03_22h23.01.693,proactive2,2020.1.2,Win32,60,5f5126bb654d4b30ee6923d8,5f515e8d5d41a43a45802077,1,,,,,,pawn,,,,,,0,38,38,46,1,5,2,,,,,,,,,,,,,,,,,,,,,,,,,,,,,,,,,,,,,,,,,,,,,,,,,,,,,,,,,,,,,,,,,,,,,,,,,,,,,,,,,,,,,,,,,,,,,,,,,,,
,,,,,,,,,,stimuli/images/PICTURE_32.png,LETTER,5ae0c7d4e0feeb0001caff2b,13/02/1949,2020-09-03_22h23.01.693,proactive2,2020.1.2,Win32,60,5f5126bb654d4b30ee6923d8,5f515e8d5d41a43a45802077,1,,,,,,crown,,,,,,0,39,39,56,1,6,2,,,,,,,,,,,,,,,,,,,,,,,,,,,,,,,,,,,,,,,,,,,,,,,,,,,,,,,,,,,,,,,,,,,,,,,,,,,,,,,,,,,,,,,,,,,,,,,,,,,
,,,,,,,,,,stimuli/images/PICTURE_311.png,FLESH,5ae0c7d4e0feeb0001caff2b,13/02/1949,2020-09-03_22h23.01.693,proactive2,2020.1.2,Win32,60,5f5126bb654d4b30ee6923d8,5f515e8d5d41a43a45802077,1,,,,,,razor,,,,,,0,40,40,3,1,1,2,,,,,,,,,,,,,,,,,,,,,,,,,,,,,,,,,,,,,,,,,,,,,,,,,,,,,,,,,,,,,,,,,,,,,,,,,,,,,,,,,,,,,,,,,,,,,,,,,,,
,,,,,,,,,,stimuli/images/PICTURE_177.png,HOUSE,5ae0c7d4e0feeb0001caff2b,13/02/1949,2020-09-03_22h23.01.693,proactive2,2020.1.2,Win32,60,5f5126bb654d4b30ee6923d8,5f515e8d5d41a43a45802077,1,,,,,,mushroom,,,,,,0,41,41,25,1,3,2,,,,,,,,,,,,,,,,,,,,,,,,,,,,,,,,,,,,,,,,,,,,,,,,,,,,,,,,,,,,,,,,,,,,,,,,,,,,,,,,,,,,,,,,,,,,,,,,,,,
,,,,,,,,,,stimuli/images/PICTURE_255.png,PENNY,5ae0c7d4e0feeb0001caff2b,13/02/1949,2020-09-03_22h23.01.693,proactive2,2020.1.2,Win32,60,5f5126bb654d4b30ee6923d8,5f515e8d5d41a43a45802077,1,,,,,,shovel,,,,,,0,42,42,19,1,2,2,,,,,,,,,,,,,,,,,,,,,,,,,,,,,,,,,,,,,,,,,,,,,,,,,,,,,,,,,,,,,,,,,,,,,,,,,,,,,,,,,,,,,,,,,,,,,,,,,,,
,,,,,,,,,,stimuli/images/PICTURE_504.png,HOUSE,5ae0c7d4e0feeb0001caff2b,13/02/1949,2020-09-03_22h23.01.693,proactive2,2020.1.2,Win32,60,5f5126bb654d4b30ee6923d8,5f515e8d5d41a43a45802077,1,,,,,,wheel,,,,,,0,43,43,36,1,4,2,,,,,,,,,,,,,,,,,,,,,,,,,,,,,,,,,,,,,,,,,,,,,,,,,,,,,,,,,,,,,,,,,,,,,,,,,,,,,,,,,,,,,,,,,,,,,,,,,,,
,,,,,,,,,,stimuli/images/PICTURE_57.png,NATION,5ae0c7d4e0feeb0001caff2b,13/02/1949,2020-09-03_22h23.01.693,proactive2,2020.1.2,Win32,60,5f5126bb654d4b30ee6923d8,5f515e8d5d41a43a45802077,1,,,,,,stamp,,,,,,0,44,44,21,1,3,2,,,,,,,,,,,,,,,,,,,,,,,,,,,,,,,,,,,,,,,,,,,,,,,,,,,,,,,,,,,,,,,,,,,,,,,,,,,,,,,,,,,,,,,,,,,,,,,,,,,
,,,,,,,,,,stimuli/images/PICTURE_654.png,COPS,5ae0c7d4e0feeb0001caff2b,13/02/1949,2020-09-03_22h23.01.693,proactive2,2020.1.2,Win32,60,5f5126bb654d4b30ee6923d8,5f515e8d5d41a43a45802077,1,,,,,,pencil,,,,,,0,45,45,10,1,2,2,,,,,,,,,,,,,,,,,,,,,,,,,,,,,,,,,,,,,,,,,,,,,,,,,,,,,,,,,,,,,,,,,,,,,,,,,,,,,,,,,,,,,,,,,,,,,,,,,,,
,,,,,,,,,,stimuli/images/PICTURE_2.png,AREA,5ae0c7d4e0feeb0001caff2b,13/02/1949,2020-09-03_22h23.01.693,proactive2,2020.1.2,Win32,60,5f5126bb654d4b30ee6923d8,5f515e8d5d41a43a45802077,1,,,,,,tyre,,,,,,0,46,46,32,1,4,2,,,,,,,,,,,,,,,,,,,,,,,,,,,,,,,,,,,,,,,,,,,,,,,,,,,,,,,,,,,,,,,,,,,,,,,,,,,,,,,,,,,,,,,,,,,,,,,,,,,
,,,,,,,,,,stimuli/images/PICTURE_750.png,POLICY,5ae0c7d4e0feeb0001caff2b,13/02/1949,2020-09-03_22h23.01.693,proactive2,2020.1.2,Win32,60,5f5126bb654d4b30ee6923d8,5f515e8d5d41a43a45802077,1,,,,,,kettle,,,,,,0,47,47,44,1,5,2,,,,,,,,,,,,,,,,,,,,,,,,,,,,,,,,,,,,,,,,,,,,,,,,,,,,,,,,,,,,,,,,,,,,,,,,,,,,,,,,,,,,,,,,,,,,,,,,,,,
,,,,,,,,,,stimuli/images/PICTURE_311.png,TOILET,5ae0c7d4e0feeb0001caff2b,13/02/1949,2020-09-03_22h23.01.693,proactive2,2020.1.2,Win32,60,5f5126bb654d4b30ee6923d8,5f515e8d5d41a43a45802077,1,,,,,,razor,,,,,,0,48,48,54,1,6,2,,,,,,,,,,,,,,,,,,,,,,,,,,,,,,,,,,,,,,,,,,,,,,,,,,,,,,,,,,,,,,,,,,,,,,,,,,,,,,,,,,,,,,,,,,,,,,,,,,,
,,,,,,,,,,stimuli/images/PICTURE_93.png,GIRL,5ae0c7d4e0feeb0001caff2b,13/02/1949,2020-09-03_22h23.01.693,proactive2,2020.1.2,Win32,60,5f5126bb654d4b30ee6923d8,5f515e8d5d41a43a45802077,1,,,,,,skateboard,,,,,,0,49,49,31,1,4,2,,,,,,,,,,,,,,,,,,,,,,,,,,,,,,,,,,,,,,,,,,,,,,,,,,,,,,,,,,,,,,,,,,,,,,,,,,,,,,,,,,,,,,,,,,,,,,,,,,,
,,,,,,,,,,stimuli/images/PICTURE_677.png,PHOTO,5ae0c7d4e0feeb0001caff2b,13/02/1949,2020-09-03_22h23.01.693,proactive2,2020.1.2,Win32,60,5f5126bb654d4b30ee6923d8,5f515e8d5d41a43a45802077,1,,,,,,map,,,,,,0,50,50,14,1,2,2,,,,,,,,,,,,,,,,,,,,,,,,,,,,,,,,,,,,,,,,,,,,,,,,,,,,,,,,,,,,,,,,,,,,,,,,,,,,,,,,,,,,,,,,,,,,,,,,,,,
,,,,,,,,,,stimuli/images/PICTURE_677.png,FAMILY,5ae0c7d4e0feeb0001caff2b,13/02/1949,2020-09-03_22h23.01.693,proactive2,2020.1.2,Win32,60,5f5126bb654d4b30ee6923d8,5f515e8d5d41a43a45802077,1,,,,,,map,,,,,,0,51,51,53,1,6,2,,,,,,,,,,,,,,,,,,,,,,,,,,,,,,,,,,,,,,,,,,,,,,,,,,,,,,,,,,,,,,,,,,,,,,,,,,,,,,,,,,,,,,,,,,,,,,,,,,,
,,,,,,,,,,stimuli/images/PICTURE_405.png,JUNGLE,5ae0c7d4e0feeb0001caff2b,13/02/1949,2020-09-03_22h23.01.693,proactive2,2020.1.2,Win32,60,5f5126bb654d4b30ee6923d8,5f515e8d5d41a43a45802077,1,,,,,,anchor,,,,,,0,52,52,58,1,6,2,,,,,,,,,,,,,,,,,,,,,,,,,,,,,,,,,,,,,,,,,,,,,,,,,,,,,,,,,,,,,,,,,,,,,,,,,,,,,,,,,,,,,,,,,,,,,,,,,,,
,,,,,,,,,,stimuli/images/PICTURE_509.png,MILLER,5ae0c7d4e0feeb0001caff2b,13/02/1949,2020-09-03_22h23.01.693,proactive2,2020.1.2,Win32,60,5f5126bb654d4b30ee6923d8,5f515e8d5d41a43a45802077,1,,,,,,telephone,,,,,,0,53,53,49,1,5,2,,,,,,,,,,,,,,,,,,,,,,,,,,,,,,,,,,,,,,,,,,,,,,,,,,,,,,,,,,,,,,,,,,,,,,,,,,,,,,,,,,,,,,,,,,,,,,,,,,,
,,,,,,,,,,stimuli/images/PICTURE_123.png,SALE,5ae0c7d4e0feeb0001caff2b,13/02/1949,2020-09-03_22h23.01.693,proactive2,2020.1.2,Win32,60,5f5126bb654d4b30ee6923d8,5f515e8d5d41a43a45802077,1,,,,,,dart,,,,,,0,54,54,8,1,1,2,,,,,,,,,,,,,,,,,,,,,,,,,,,,,,,,,,,,,,,,,,,,,,,,,,,,,,,,,,,,,,,,,,,,,,,,,,,,,,,,,,,,,,,,,,,,,,,,,,,
,,,,,,,,,,stimuli/images/PICTURE_2.png,YARD,5ae0c7d4e0feeb0001caff2b,13/02/1949,2020-09-03_22h23.01.693,proactive2,2020.1.2,Win32,60,5f5126bb654d4b30ee6923d8,5f515e8d5d41a43a45802077,1,,,,,,tyre,,,,,,0,55,55,55,1,6,2,,,,,,,,,,,,,,,,,,,,,,,,,,,,,,,,,,,,,,,,,,,,,,,,,,,,,,,,,,,,,,,,,,,,,,,,,,,,,,,,,,,,,,,,,,,,,,,,,,,
,,,,,,,,,,stimuli/images/PICTURE_296.png,CLOCK,5ae0c7d4e0feeb0001caff2b,13/02/1949,2020-09-03_22h23.01.693,proactive2,2020.1.2,Win32,60,5f5126bb654d4b30ee6923d8,5f515e8d5d41a43a45802077,1,,,,,,bolt,,,,,,0,56,56,18,1,2,2,,,,,,,,,,,,,,,,,,,,,,,,,,,,,,,,,,,,,,,,,,,,,,,,,,,,,,,,,,,,,,,,,,,,,,,,,,,,,,,,,,,,,,,,,,,,,,,,,,,
,,,,,,,,,,stimuli/images/PICTURE_708.png,VALLEY,5ae0c7d4e0feeb0001caff2b,13/02/1949,2020-09-03_22h23.01.693,proactive2,2020.1.2,Win32,60,5f5126bb654d4b30ee6923d8,5f515e8d5d41a43a45802077,1,,,,,,monkey,,,,,,0,57,57,45,1,5,2,,,,,,,,,,,,,,,,,,,,,,,,,,,,,,,,,,,,,,,,,,,,,,,,,,,,,,,,,,,,,,,,,,,,,,,,,,,,,,,,,,,,,,,,,,,,,,,,,,,
,,,,,,,,,,stimuli/images/PICTURE_285.png,WRITER,5ae0c7d4e0feeb0001caff2b,13/02/1949,2020-09-03_22h23.01.693,proactive2,2020.1.2,Win32,60,5f5126bb654d4b30ee6923d8,5f515e8d5d41a43a45802077,1,,,,,,carrot,,,,,,0,58,58,6,1,1,2,,,,,,,,,,,,,,,,,,,,,,,,,,,,,,,,,,,,,,,,,,,,,,,,,,,,,,,,,,,,,,,,,,,,,,,,,,,,,,,,,,,,,,,,,,,,,,,,,,,
,,?,0.00142,0,,,,,,stimuli/images/PICTURE_453.png,FAMILY,5ae0c7d4e0feeb0001caff2b,13/02/1949,2020-09-03_22h23.01.693,proactive2,2020.1.2,Win32,60,5f5126bb654d4b30ee6923d8,5f515e8d5d41a43a45802077,1,,,,,,scissors,,,,,,,,,,,5,2,0,0,0,48,1,,,,,,,,,,,,,,,,,,,,,,,,,,,,,,,,,,,,,,,,,,,,,,,,,,,,,,,,,,,,,,,,,,,,,,,,,,,,,,,,,,,,,,,,,,,,,,
,,SHOTS,8.385585,1,,,,,,stimuli/images/PICTURE_509.png,SHOTS,5ae0c7d4e0feeb0001caff2b,13/02/1949,2020-09-03_22h23.01.693,proactive2,2020.1.2,Win32,60,5f5126bb654d4b30ee6923d8,5f515e8d5d41a43a45802077,1,,,,,,telephone,,,,,,,,,,,1,2,0,1,1,7,1,,,,,,,,,,,,,,,,,,,,,,,,,,,,,,,,,,,,,,,,,,,,,,,,,,,,,,,,,,,,,,,,,,,,,,,,,,,,,,,,,,,,,,,,,,,,,,
,,FOOD,3.482585,1,,,,,,stimuli/images/PICTURE_215.png,FOOD,5ae0c7d4e0feeb0001caff2b,13/02/1949,2020-09-03_22h23.01.693,proactive2,2020.1.2,Win32,60,5f5126bb654d4b30ee6923d8,5f515e8d5d41a43a45802077,1,,,,,,boot,,,,,,,,,,,1,2,0,2,2,5,1,,,,,,,,,,,,,,,,,,,,,,,,,,,,,,,,,,,,,,,,,,,,,,,,,,,,,,,,,,,,,,,,,,,,,,,,,,,,,,,,,,,,,,,,,,,,,,
,,?,0.00125,0,,,,,,stimuli/images/PICTURE_95.png,NIGHT,5ae0c7d4e0feeb0001caff2b,13/02/1949,2020-09-03_22h23.01.693,proactive2,2020.1.2,Win32,60,5f5126bb654d4b30ee6923d8,5f515e8d5d41a43a45802077,1,,,,,,suitcase,,,,,,,,,,,4,2,0,3,3,37,1,,,,,,,,,,,,,,,,,,,,,,,,,,,,,,,,,,,,,,,,,,,,,,,,,,,,,,,,,,,,,,,,,,,,,,,,,,,,,,,,,,,,,,,,,,,,,,
,,COPS,4.663245,1,,,,,,stimuli/images/PICTURE_452.png,COPS,5ae0c7d4e0feeb0001caff2b,13/02/1949,2020-09-03_22h23.01.693,proactive2,2020.1.2,Win32,60,5f5126bb654d4b30ee6923d8,5f515e8d5d41a43a45802077,1,,,,,,watch,,,,,,,,,,,1,2,0,4,4,0,1,,,,,,,,,,,,,,,,,,,,,,,,,,,,,,,,,,,,,,,,,,,,,,,,,,,,,,,,,,,,,,,,,,,,,,,,,,,,,,,,,,,,,,,,,,,,,,
,,?,0.001325,0,,,,,,stimuli/images/PICTURE_348.png,DUDE,5ae0c7d4e0feeb0001caff2b,13/02/1949,2020-09-03_22h23.01.693,proactive2,2020.1.2,Win32,60,5f5126bb654d4b30ee6923d8,5f515e8d5d41a43a45802077,1,,,,,,pepper,,,,,,,,,,,6,2,0,5,5,59,1,,,,,,,,,,,,,,,,,,,,,,,,,,,,,,,,,,,,,,,,,,,,,,,,,,,,,,,,,,,,,,,,,,,,,,,,,,,,,,,,,,,,,,,,,,,,,,
,,?,0.00093,0,,,,,,stimuli/images/PICTURE_405.png,JUNGLE,5ae0c7d4e0feeb0001caff2b,13/02/1949,2020-09-03_22h23.01.693,proactive2,2020.1.2,Win32,60,5f5126bb654d4b30ee6923d8,5f515e8d5d41a43a45802077,1,,,,,,anchor,,,,,,,,,,,6,2,0,6,6,58,1,,,,,,,,,,,,,,,,,,,,,,,,,,,,,,,,,,,,,,,,,,,,,,,,,,,,,,,,,,,,,,,,,,,,,,,,,,,,,,,,,,,,,,,,,,,,,,
,,?,0.001015,0,,,,,,stimuli/images/PICTURE_311.png,TOILET,5ae0c7d4e0feeb0001caff2b,13/02/1949,2020-09-03_22h23.01.693,proactive2,2020.1.2,Win32,60,5f5126bb654d4b30ee6923d8,5f515e8d5d41a43a45802077,1,,,,,,razor,,,,,,,,,,,6,2,0,7,7,54,1,,,,,,,,,,,,,,,,,,,,,,,,,,,,,,,,,,,,,,,,,,,,,,,,,,,,,,,,,,,,,,,,,,,,,,,,,,,,,,,,,,,,,,,,,,,,,,
,,?,0.000885,0,,,,,,stimuli/images/PICTURE_177.png,HOUSE,5ae0c7d4e0feeb0001caff2b,13/02/1949,2020-09-03_22h23.01.693,proactive2,2020.1.2,Win32,60,5f5126bb654d4b30ee6923d8,5f515e8d5d41a43a45802077,1,,,,,,mushroom,,,,,,,,,,,3,2,0,8,8,25,1,,,,,,,,,,,,,,,,,,,,,,,,,,,,,,,,,,,,,,,,,,,,,,,,,,,,,,,,,,,,,,,,,,,,,,,,,,,,,,,,,,,,,,,,,,,,,,
,,HOUSE,6.08853,1,,,,,,stimuli/images/PICTURE_405.png,HOUSE,5ae0c7d4e0feeb0001caff2b,13/02/1949,2020-09-03_22h23.01.693,proactive2,2020.1.2,Win32,60,5f5126bb654d4b30ee6923d8,5f515e8d5d41a43a45802077,1,,,,,,anchor,,,,,,,,,,,1,2,0,9,9,2,1,,,,,,,,,,,,,,,,,,,,,,,,,,,,,,,,,,,,,,,,,,,,,,,,,,,,,,,,,,,,,,,,,,,,,,,,,,,,,,,,,,,,,,,,,,,,,,
,,?,0.001255,0,,,,,,stimuli/images/PICTURE_470.png,MOMENT,5ae0c7d4e0feeb0001caff2b,13/02/1949,2020-09-03_22h23.01.693,proactive2,2020.1.2,Win32,60,5f5126bb654d4b30ee6923d8,5f515e8d5d41a43a45802077,1,,,,,,motorbike,,,,,,,,,,,5,2,0,10,10,40,1,,,,,,,,,,,,,,,,,,,,,,,,,,,,,,,,,,,,,,,,,,,,,,,,,,,,,,,,,,,,,,,,,,,,,,,,,,,,,,,,,,,,,,,,,,,,,,
,,?,0.000855,0,,,,,,stimuli/images/PICTURE_215.png,BOYS,5ae0c7d4e0feeb0001caff2b,13/02/1949,2020-09-03_22h23.01.693,proactive2,2020.1.2,Win32,60,5f5126bb654d4b30ee6923d8,5f515e8d5d41a43a45802077,1,,,,,,boot,,,,,,,,,,,3,2,0,11,11,24,1,,,,,,,,,,,,,,,,,,,,,,,,,,,,,,,,,,,,,,,,,,,,,,,,,,,,,,,,,,,,,,,,,,,,,,,,,,,,,,,,,,,,,,,,,,,,,,
,,?,0.000965,0,,,,,,stimuli/images/PICTURE_708.png,VALLEY,5ae0c7d4e0feeb0001caff2b,13/02/1949,2020-09-03_22h23.01.693,proactive2,2020.1.2,Win32,60,5f5126bb654d4b30ee6923d8,5f515e8d5d41a43a45802077,1,,,,,,monkey,,,,,,,,,,,5,2,0,12,12,45,1,,,,,,,,,,,,,,,,,,,,,,,,,,,,,,,,,,,,,,,,,,,,,,,,,,,,,,,,,,,,,,,,,,,,,,,,,,,,,,,,,,,,,,,,,,,,,,
,,?,0.000885,0,,,,,,stimuli/images/PICTURE_509.png,APPLE,5ae0c7d4e0feeb0001caff2b,13/02/1949,2020-09-03_22h23.01.693,proactive2,2020.1.2,Win32,60,5f5126bb654d4b30ee6923d8,5f515e8d5d41a43a45802077,1,,,,,,telephone,,,,,,,,,,,4,2,0,13,13,38,1,,,,,,,,,,,,,,,,,,,,,,,,,,,,,,,,,,,,,,,,,,,,,,,,,,,,,,,,,,,,,,,,,,,,,,,,,,,,,,,,,,,,,,,,,,,,,,
,,?,0.00086,0,,,,,,stimuli/images/PICTURE_255.png,PENNY,5ae0c7d4e0feeb0001caff2b,13/02/1949,2020-09-03_22h23.01.693,proactive2,2020.1.2,Win32,60,5f5126bb654d4b30ee6923d8,5f515e8d5d41a43a45802077,1,,,,,,shovel,,,,,,,,,,,2,2,0,14,14,19,1,,,,,,,,,,,,,,,,,,,,,,,,,,,,,,,,,,,,,,,,,,,,,,,,,,,,,,,,,,,,,,,,,,,,,,,,,,,,,,,,,,,,,,,,,,,,,,
,,?,0.000865,0,,,,,,stimuli/images/PICTURE_68.png,KIND,5ae0c7d4e0feeb0001caff2b,13/02/1949,2020-09-03_22h23.01.693,proactive2,2020.1.2,Win32,60,5f5126bb654d4b30ee6923d8,5f515e8d5d41a43a45802077,1,,,,,,candle,,,,,,,,,,,3,2,0,15,15,23,1,,,,,,,,,,,,,,,,,,,,,,,,,,,,,,,,,,,,,,,,,,,,,,,,,,,,,,,,,,,,,,,,,,,,,,,,,,,,,,,,,,,,,,,,,,,,,,
,,?,0.00083,0,,,,,,stimuli/images/PICTURE_405.png,JUNGLE,5ae0c7d4e0feeb0001caff2b,13/02/1949,2020-09-03_22h23.01.693,proactive2,2020.1.2,Win32,60,5f5126bb654d4b30ee6923d8,5f515e8d5d41a43a45802077,1,,,,,,anchor,,,,,,,,,,,2,2,0,16,16,13,1,,,,,,,,,,,,,,,,,,,,,,,,,,,,,,,,,,,,,,,,,,,,,,,,,,,,,,,,,,,,,,,,,,,,,,,,,,,,,,,,,,,,,,,,,,,,,,
,,FLESH,5.08289,0,,,,,,stimuli/images/PICTURE_123.png,SALE,5ae0c7d4e0feeb0001caff2b,13/02/1949,2020-09-03_22h23.01.693,proactive2,2020.1.2,Win32,60,5f5126bb654d4b30ee6923d8,5f515e8d5d41a43a45802077,1,,,,,,dart,,,,,,,,,,,1,2,0,17,17,8,1,,,,,,,,,,,,,,,,,,,,,,,,,,,,,,,,,,,,,,,,,,,,,,,,,,,,,,,,,,,,,,,,,,,,,,,,,,,,,,,,,,,,,,,,,,,,,,
,,?,0.0007,0,,,,,,stimuli/images/PICTURE_654.png,COPS,5ae0c7d4e0feeb0001caff2b,13/02/1949,2020-09-03_22h23.01.693,proactive2,2020.1.2,Win32,60,5f5126bb654d4b30ee6923d8,5f515e8d5d41a43a45802077,1,,,,,,pencil,,,,,,,,,,,2,2,0,18,18,10,1,,,,,,,,,,,,,,,,,,,,,,,,,,,,,,,,,,,,,,,,,,,,,,,,,,,,,,,,,,,,,,,,,,,,,,,,,,,,,,,,,,,,,,,,,,,,,,
,,?,0.000475,0,,,,,,stimuli/images/PICTURE_141.png,CLIENT,5ae0c7d4e0feeb0001caff2b,13/02/1949,2020-09-03_22h23.01.693,proactive2,2020.1.2,Win32,60,5f5126bb654d4b30ee6923d8,5f515e8d5d41a43a45802077,1,,,,,,sunflower,,,,,,,,,,,4,2,0,19,19,30,1,,,,,,,,,,,,,,,,,,,,,,,,,,,,,,,,,,,,,,,,,,,,,,,,,,,,,,,,,,,,,,,,,,,,,,,,,,,,,,,,,,,,,,,,,,,,,,
,,?,0.00165,0,,,,,,stimuli/images/PICTURE_57.png,CANDY,5ae0c7d4e0feeb0001caff2b,13/02/1949,2020-09-03_22h23.01.693,proactive2,2020.1.2,Win32,60,5f5126bb654d4b30ee6923d8,5f515e8d5d41a43a45802077,1,,,,,,stamp,,,,,,,,,,,6,2,0,20,20,52,1,,,,,,,,,,,,,,,,,,,,,,,,,,,,,,,,,,,,,,,,,,,,,,,,,,,,,,,,,,,,,,,,,,,,,,,,,,,,,,,,,,,,,,,,,,,,,,
,,JUNGLE,7.956715,1,,,,,,stimuli/images/PICTURE_2.png,JUNGLE,5ae0c7d4e0feeb0001caff2b,13/02/1949,2020-09-03_22h23.01.693,proactive2,2020.1.2,Win32,60,5f5126bb654d4b30ee6923d8,5f515e8d5d41a43a45802077,1,,,,,,tyre,,,,,,,,,,,1,2,0,21,21,1,1,,,,,,,,,,,,,,,,,,,,,,,,,,,,,,,,,,,,,,,,,,,,,,,,,,,,,,,,,,,,,,,,,,,,,,,,,,,,,,,,,,,,,,,,,,,,,,
,,FAMILY,5.748895,1,,,,,,stimuli/images/PICTURE_403.png,FAMILY,5ae0c7d4e0feeb0001caff2b,13/02/1949,2020-09-03_22h23.01.693,proactive2,2020.1.2,Win32,60,5f5126bb654d4b30ee6923d8,5f515e8d5d41a43a45802077,1,,,,,,cathedral,,,,,,,,,,,1,2,0,22,22,9,1,,,,,,,,,,,,,,,,,,,,,,,,,,,,,,,,,,,,,,,,,,,,,,,,,,,,,,,,,,,,,,,,,,,,,,,,,,,,,,,,,,,,,,,,,,,,,,
,,?,0.001375,0,,,,,,stimuli/images/PICTURE_692.png,DUDE,5ae0c7d4e0feeb0001caff2b,13/02/1949,2020-09-03_22h23.01.693,proactive2,2020.1.2,Win32,60,5f5126bb654d4b30ee6923d8,5f515e8d5d41a43a45802077,1,,,,,,cherry,,,,,,,,,,,5,2,0,23,23,47,1,,,,,,,,,,,,,,,,,,,,,,,,,,,,,,,,,,,,,,,,,,,,,,,,,,,,,,,,,,,,,,,,,,,,,,,,,,,,,,,,,,,,,,,,,,,,,,
,,?,0.000865,0,,,,,,stimuli/images/PICTURE_654.png,YEAR,5ae0c7d4e0feeb0001caff2b,13/02/1949,2020-09-03_22h23.01.693,proactive2,2020.1.2,Win32,60,5f5126bb654d4b30ee6923d8,5f515e8d5d41a43a45802077,1,,,,,,pencil,,,,,,,,,,,5,2,0,24,24,41,1,,,,,,,,,,,,,,,,,,,,,,,,,,,,,,,,,,,,,,,,,,,,,,,,,,,,,,,,,,,,,,,,,,,,,,,,,,,,,,,,,,,,,,,,,,,,,,
,,?,0.001,0,,,,,,stimuli/images/PICTURE_487.png,ROOF,5ae0c7d4e0feeb0001caff2b,13/02/1949,2020-09-03_22h23.01.693,proactive2,2020.1.2,Win32,60,5f5126bb654d4b30ee6923d8,5f515e8d5d41a43a45802077,1,,,,,,basket,,,,,,,,,,,6,2,0,25,25,50,1,,,,,,,,,,,,,,,,,,,,,,,,,,,,,,,,,,,,,,,,,,,,,,,,,,,,,,,,,,,,,,,,,,,,,,,,,,,,,,,,,,,,,,,,,,,,,,
,,?,0.00088,0,,,,,,stimuli/images/PICTURE_208.png,SPIRIT,5ae0c7d4e0feeb0001caff2b,13/02/1949,2020-09-03_22h23.01.693,proactive2,2020.1.2,Win32,60,5f5126bb654d4b30ee6923d8,5f515e8d5d41a43a45802077,1,,,,,,microphone,,,,,,,,,,,3,2,0,26,26,28,1,,,,,,,,,,,,,,,,,,,,,,,,,,,,,,,,,,,,,,,,,,,,,,,,,,,,,,,,,,,,,,,,,,,,,,,,,,,,,,,,,,,,,,,,,,,,,,
,,?,0.000855,0,,,,,,stimuli/images/PICTURE_491.png,SERIES,5ae0c7d4e0feeb0001caff2b,13/02/1949,2020-09-03_22h23.01.693,proactive2,2020.1.2,Win32,60,5f5126bb654d4b30ee6923d8,5f515e8d5d41a43a45802077,1,,,,,,rug,,,,,,,,,,,4,2,0,27,27,39,1,,,,,,,,,,,,,,,,,,,,,,,,,,,,,,,,,,,,,,,,,,,,,,,,,,,,,,,,,,,,,,,,,,,,,,,,,,,,,,,,,,,,,,,,,,,,,,
,,?,0.00248,0,,,,,,stimuli/images/PICTURE_296.png,CLOCK,5ae0c7d4e0feeb0001caff2b,13/02/1949,2020-09-03_22h23.01.693,proactive2,2020.1.2,Win32,60,5f5126bb654d4b30ee6923d8,5f515e8d5d41a43a45802077,1,,,,,,bolt,,,,,,,,,,,2,2,0,28,28,18,1,,,,,,,,,,,,,,,,,,,,,,,,,,,,,,,,,,,,,,,,,,,,,,,,,,,,,,,,,,,,,,,,,,,,,,,,,,,,,,,,,,,,,,,,,,,,,,
,,?,0.00093,0,,,,,,stimuli/images/PICTURE_688.png,CLOCK,5ae0c7d4e0feeb0001caff2b,13/02/1949,2020-09-03_22h23.01.693,proactive2,2020.1.2,Win32,60,5f5126bb654d4b30ee6923d8,5f515e8d5d41a43a45802077,1,,,,,,runner,,,,,,,,,,,5,2,0,29,29,42,1,,,,,,,,,,,,,,,,,,,,,,,,,,,,,,,,,,,,,,,,,,,,,,,,,,,,,,,,,,,,,,,,,,,,,,,,,,,,,,,,,,,,,,,,,,,,,,
,,?,0.000925,0,,,,,,stimuli/images/PICTURE_655.png,SALE,5ae0c7d4e0feeb0001caff2b,13/02/1949,2020-09-03_22h23.01.693,proactive2,2020.1.2,Win32,60,5f5126bb654d4b30ee6923d8,5f515e8d5d41a43a45802077,1,,,,,,megaphone,,,,,,,,,,,6,2,0,30,30,57,1,,,,,,,,,,,,,,,,,,,,,,,,,,,,,,,,,,,,,,,,,,,,,,,,,,,,,,,,,,,,,,,,,,,,,,,,,,,,,,,,,,,,,,,,,,,,,,
,,?,0.000875,0,,,,,,stimuli/images/PICTURE_564.png,PLENTY,5ae0c7d4e0feeb0001caff2b,13/02/1949,2020-09-03_22h23.01.693,proactive2,2020.1.2,Win32,60,5f5126bb654d4b30ee6923d8,5f515e8d5d41a43a45802077,1,,,,,,spoon,,,,,,,,,,,2,2,0,31,31,11,1,,,,,,,,,,,,,,,,,,,,,,,,,,,,,,,,,,,,,,,,,,,,,,,,,,,,,,,,,,,,,,,,,,,,,,,,,,,,,,,,,,,,,,,,,,,,,,
,,?,0.00085,0,,,,,,stimuli/images/PICTURE_667.png,GLASS,5ae0c7d4e0feeb0001caff2b,13/02/1949,2020-09-03_22h23.01.693,proactive2,2020.1.2,Win32,60,5f5126bb654d4b30ee6923d8,5f515e8d5d41a43a45802077,1,,,,,,daisy,,,,,,,,,,,3,2,0,32,32,27,1,,,,,,,,,,,,,,,,,,,,,,,,,,,,,,,,,,,,,,,,,,,,,,,,,,,,,,,,,,,,,,,,,,,,,,,,,,,,,,,,,,,,,,,,,,,,,,
,,?,0.00082,0,,,,,,stimuli/images/PICTURE_314.png,SPEECH,5ae0c7d4e0feeb0001caff2b,13/02/1949,2020-09-03_22h23.01.693,proactive2,2020.1.2,Win32,60,5f5126bb654d4b30ee6923d8,5f515e8d5d41a43a45802077,1,,,,,,perfume,,,,,,,,,,,4,2,0,33,33,35,1,,,,,,,,,,,,,,,,,,,,,,,,,,,,,,,,,,,,,,,,,,,,,,,,,,,,,,,,,,,,,,,,,,,,,,,,,,,,,,,,,,,,,,,,,,,,,,
,,?,0.000815,0,,,,,,stimuli/images/PICTURE_57.png,CASINO,5ae0c7d4e0feeb0001caff2b,13/02/1949,2020-09-03_22h23.01.693,proactive2,2020.1.2,Win32,60,5f5126bb654d4b30ee6923d8,5f515e8d5d41a43a45802077,1,,,,,,stamp,,,,,,,,,,,2,2,0,34,34,12,1,,,,,,,,,,,,,,,,,,,,,,,,,,,,,,,,,,,,,,,,,,,,,,,,,,,,,,,,,,,,,,,,,,,,,,,,,,,,,,,,,,,,,,,,,,,,,,
,,?,0.0008,0,,,,,,stimuli/images/PICTURE_327.png,LEADER,5ae0c7d4e0feeb0001caff2b,13/02/1949,2020-09-03_22h23.01.693,proactive2,2020.1.2,Win32,60,5f5126bb654d4b30ee6923d8,5f515e8d5d41a43a45802077,1,,,,,,helmet,,,,,,,,,,,2,2,0,35,35,17,1,,,,,,,,,,,,,,,,,,,,,,,,,,,,,,,,,,,,,,,,,,,,,,,,,,,,,,,,,,,,,,,,,,,,,,,,,,,,,,,,,,,,,,,,,,,,,,
,,?,0.00099,0,,,,,,stimuli/images/PICTURE_677.png,FAMILY,5ae0c7d4e0feeb0001caff2b,13/02/1949,2020-09-03_22h23.01.693,proactive2,2020.1.2,Win32,60,5f5126bb654d4b30ee6923d8,5f515e8d5d41a43a45802077,1,,,,,,map,,,,,,,,,,,6,2,0,36,36,53,1,,,,,,,,,,,,,,,,,,,,,,,,,,,,,,,,,,,,,,,,,,,,,,,,,,,,,,,,,,,,,,,,,,,,,,,,,,,,,,,,,,,,,,,,,,,,,,
,,?,0.000865,0,,,,,,stimuli/images/PICTURE_18.png,RIVER,5ae0c7d4e0feeb0001caff2b,13/02/1949,2020-09-03_22h23.01.693,proactive2,2020.1.2,Win32,60,5f5126bb654d4b30ee6923d8,5f515e8d5d41a43a45802077,1,,,,,,planet,,,,,,,,,,,3,2,0,37,37,22,1,,,,,,,,,,,,,,,,,,,,,,,,,,,,,,,,,,,,,,,,,,,,,,,,,,,,,,,,,,,,,,,,,,,,,,,,,,,,,,,,,,,,,,,,,,,,,,
,,?,0.00086,0,,,,,,stimuli/images/PICTURE_147.png,LEADER,5ae0c7d4e0feeb0001caff2b,13/02/1949,2020-09-03_22h23.01.693,proactive2,2020.1.2,Win32,60,5f5126bb654d4b30ee6923d8,5f515e8d5d41a43a45802077,1,,,,,,hanger,,,,,,,,,,,4,2,0,38,38,33,1,,,,,,,,,,,,,,,,,,,,,,,,,,,,,,,,,,,,,,,,,,,,,,,,,,,,,,,,,,,,,,,,,,,,,,,,,,,,,,,,,,,,,,,,,,,,,,
,,?,0.00084,0,,,,,,stimuli/images/PICTURE_356.png,CANDY,5ae0c7d4e0feeb0001caff2b,13/02/1949,2020-09-03_22h23.01.693,proactive2,2020.1.2,Win32,60,5f5126bb654d4b30ee6923d8,5f515e8d5d41a43a45802077,1,,,,,,pawn,,,,,,,,,,,5,2,0,39,39,46,1,,,,,,,,,,,,,,,,,,,,,,,,,,,,,,,,,,,,,,,,,,,,,,,,,,,,,,,,,,,,,,,,,,,,,,,,,,,,,,,,,,,,,,,,,,,,,,
,,?,0.00082,0,,,,,,stimuli/images/PICTURE_93.png,GIRL,5ae0c7d4e0feeb0001caff2b,13/02/1949,2020-09-03_22h23.01.693,proactive2,2020.1.2,Win32,60,5f5126bb654d4b30ee6923d8,5f515e8d5d41a43a45802077,1,,,,,,skateboard,,,,,,,,,,,4,2,0,40,40,31,1,,,,,,,,,,,,,,,,,,,,,,,,,,,,,,,,,,,,,,,,,,,,,,,,,,,,,,,,,,,,,,,,,,,,,,,,,,,,,,,,,,,,,,,,,,,,,,
,,?,0.0008,0,,,,,,stimuli/images/PICTURE_504.png,HOUSE,5ae0c7d4e0feeb0001caff2b,13/02/1949,2020-09-03_22h23.01.693,proactive2,2020.1.2,Win32,60,5f5126bb654d4b30ee6923d8,5f515e8d5d41a43a45802077,1,,,,,,wheel,,,,,,,,,,,4,2,0,41,41,36,1,,,,,,,,,,,,,,,,,,,,,,,,,,,,,,,,,,,,,,,,,,,,,,,,,,,,,,,,,,,,,,,,,,,,,,,,,,,,,,,,,,,,,,,,,,,,,,
,,?,0.000795,0,,,,,,stimuli/images/PICTURE_297.png,BODY,5ae0c7d4e0feeb0001caff2b,13/02/1949,2020-09-03_22h23.01.693,proactive2,2020.1.2,Win32,60,5f5126bb654d4b30ee6923d8,5f515e8d5d41a43a45802077,1,,,,,,aeroplane,,,,,,,,,,,6,2,0,42,42,51,1,,,,,,,,,,,,,,,,,,,,,,,,,,,,,,,,,,,,,,,,,,,,,,,,,,,,,,,,,,,,,,,,,,,,,,,,,,,,,,,,,,,,,,,,,,,,,,
,,TOILET,8.384855,1,,,,,,stimuli/images/PICTURE_348.png,TOILET,5ae0c7d4e0feeb0001caff2b,13/02/1949,2020-09-03_22h23.01.693,proactive2,2020.1.2,Win32,60,5f5126bb654d4b30ee6923d8,5f515e8d5d41a43a45802077,1,,,,,,pepper,,,,,,,,,,,1,2,0,43,43,4,1,,,,,,,,,,,,,,,,,,,,,,,,,,,,,,,,,,,,,,,,,,,,,,,,,,,,,,,,,,,,,,,,,,,,,,,,,,,,,,,,,,,,,,,,,,,,,,
,,?,0.00126,0,,,,,,stimuli/images/PICTURE_750.png,POLICY,5ae0c7d4e0feeb0001caff2b,13/02/1949,2020-09-03_22h23.01.693,proactive2,2020.1.2,Win32,60,5f5126bb654d4b30ee6923d8,5f515e8d5d41a43a45802077,1,,,,,,kettle,,,,,,,,,,,5,2,0,44,44,44,1,,,,,,,,,,,,,,,,,,,,,,,,,,,,,,,,,,,,,,,,,,,,,,,,,,,,,,,,,,,,,,,,,,,,,,,,,,,,,,,,,,,,,,,,,,,,,,
,,?,0.000825,0,,,,,,stimuli/images/PICTURE_33.png,COPS,5ae0c7d4e0feeb0001caff2b,13/02/1949,2020-09-03_22h23.01.693,proactive2,2020.1.2,Win32,60,5f5126bb654d4b30ee6923d8,5f515e8d5d41a43a45802077,1,,,,,,frame,,,,,,,,,,,3,2,0,45,45,29,1,,,,,,,,,,,,,,,,,,,,,,,,,,,,,,,,,,,,,,,,,,,,,,,,,,,,,,,,,,,,,,,,,,,,,,,,,,,,,,,,,,,,,,,,,,,,,,
,,?,0.00081,0,,,,,,stimuli/images/PICTURE_677.png,PHOTO,5ae0c7d4e0feeb0001caff2b,13/02/1949,2020-09-03_22h23.01.693,proactive2,2020.1.2,Win32,60,5f5126bb654d4b30ee6923d8,5f515e8d5d41a43a45802077,1,,,,,,map,,,,,,,,,,,2,2,0,46,46,14,1,,,,,,,,,,,,,,,,,,,,,,,,,,,,,,,,,,,,,,,,,,,,,,,,,,,,,,,,,,,,,,,,,,,,,,,,,,,,,,,,,,,,,,,,,,,,,,
,,?,0.000795,0,,,,,,stimuli/images/PICTURE_487.png,POLICY,5ae0c7d4e0feeb0001caff2b,13/02/1949,2020-09-03_22h23.01.693,proactive2,2020.1.2,Win32,60,5f5126bb654d4b30ee6923d8,5f515e8d5d41a43a45802077,1,,,,,,basket,,,,,,,,,,,4,2,0,47,47,34,1,,,,,,,,,,,,,,,,,,,,,,,,,,,,,,,,,,,,,,,,,,,,,,,,,,,,,,,,,,,,,,,,,,,,,,,,,,,,,,,,,,,,,,,,,,,,,,
,,FLESH,9.306735,1,,,,,,stimuli/images/PICTURE_311.png,FLESH,5ae0c7d4e0feeb0001caff2b,13/02/1949,2020-09-03_22h23.01.693,proactive2,2020.1.2,Win32,60,5f5126bb654d4b30ee6923d8,5f515e8d5d41a43a45802077,1,,,,,,razor,,,,,,,,,,,1,2,0,48,48,3,1,,,,,,,,,,,,,,,,,,,,,,,,,,,,,,,,,,,,,,,,,,,,,,,,,,,,,,,,,,,,,,,,,,,,,,,,,,,,,,,,,,,,,,,,,,,,,,
,,WRITER,6.432085,1,,,,,,stimuli/images/PICTURE_285.png,WRITER,5ae0c7d4e0feeb0001caff2b,13/02/1949,2020-09-03_22h23.01.693,proactive2,2020.1.2,Win32,60,5f5126bb654d4b30ee6923d8,5f515e8d5d41a43a45802077,1,,,,,,carrot,,,,,,,,,,,1,2,0,49,49,6,1,,,,,,,,,,,,,,,,,,,,,,,,,,,,,,,,,,,,,,,,,,,,,,,,,,,,,,,,,,,,,,,,,,,,,,,,,,,,,,,,,,,,,,,,,,,,,,
,,?,0.00115,0,,,,,,stimuli/images/PICTURE_215.png,LEADER,5ae0c7d4e0feeb0001caff2b,13/02/1949,2020-09-03_22h23.01.693,proactive2,2020.1.2,Win32,60,5f5126bb654d4b30ee6923d8,5f515e8d5d41a43a45802077,1,,,,,,boot,,,,,,,,,,,5,2,0,50,50,43,1,,,,,,,,,,,,,,,,,,,,,,,,,,,,,,,,,,,,,,,,,,,,,,,,,,,,,,,,,,,,,,,,,,,,,,,,,,,,,,,,,,,,,,,,,,,,,,
,,?,0.00083,0,,,,,,stimuli/images/PICTURE_2.png,YARD,5ae0c7d4e0feeb0001caff2b,13/02/1949,2020-09-03_22h23.01.693,proactive2,2020.1.2,Win32,60,5f5126bb654d4b30ee6923d8,5f515e8d5d41a43a45802077,1,,,,,,tyre,,,,,,,,,,,6,2,0,51,51,55,1,,,,,,,,,,,,,,,,,,,,,,,,,,,,,,,,,,,,,,,,,,,,,,,,,,,,,,,,,,,,,,,,,,,,,,,,,,,,,,,,,,,,,,,,,,,,,,
,,?,0.00098,0,,,,,,stimuli/images/PICTURE_285.png,PRINCE,5ae0c7d4e0feeb0001caff2b,13/02/1949,2020-09-03_22h23.01.693,proactive2,2020.1.2,Win32,60,5f5126bb654d4b30ee6923d8,5f515e8d5d41a43a45802077,1,,,,,,carrot,,,,,,,,,,,3,2,0,52,52,20,1,,,,,,,,,,,,,,,,,,,,,,,,,,,,,,,,,,,,,,,,,,,,,,,,,,,,,,,,,,,,,,,,,,,,,,,,,,,,,,,,,,,,,,,,,,,,,,
,,?,0.000825,0,,,,,,stimuli/images/PICTURE_2.png,AREA,5ae0c7d4e0feeb0001caff2b,13/02/1949,2020-09-03_22h23.01.693,proactive2,2020.1.2,Win32,60,5f5126bb654d4b30ee6923d8,5f515e8d5d41a43a45802077,1,,,,,,tyre,,,,,,,,,,,4,2,0,53,53,32,1,,,,,,,,,,,,,,,,,,,,,,,,,,,,,,,,,,,,,,,,,,,,,,,,,,,,,,,,,,,,,,,,,,,,,,,,,,,,,,,,,,,,,,,,,,,,,,
,,?,0.00081,0,,,,,,stimuli/images/PICTURE_32.png,LETTER,5ae0c7d4e0feeb0001caff2b,13/02/1949,2020-09-03_22h23.01.693,proactive2,2020.1.2,Win32,60,5f5126bb654d4b30ee6923d8,5f515e8d5d41a43a45802077,1,,,,,,crown,,,,,,,,,,,6,2,0,54,54,56,1,,,,,,,,,,,,,,,,,,,,,,,,,,,,,,,,,,,,,,,,,,,,,,,,,,,,,,,,,,,,,,,,,,,,,,,,,,,,,,,,,,,,,,,,,,,,,,
,,?,0.000845,0,,,,,,stimuli/images/PICTURE_509.png,MILLER,5ae0c7d4e0feeb0001caff2b,13/02/1949,2020-09-03_22h23.01.693,proactive2,2020.1.2,Win32,60,5f5126bb654d4b30ee6923d8,5f515e8d5d41a43a45802077,1,,,,,,telephone,,,,,,,,,,,5,2,0,55,55,49,1,,,,,,,,,,,,,,,,,,,,,,,,,,,,,,,,,,,,,,,,,,,,,,,,,,,,,,,,,,,,,,,,,,,,,,,,,,,,,,,,,,,,,,,,,,,,,,
,,?,0.000815,0,,,,,,stimuli/images/PICTURE_509.png,BATH,5ae0c7d4e0feeb0001caff2b,13/02/1949,2020-09-03_22h23.01.693,proactive2,2020.1.2,Win32,60,5f5126bb654d4b30ee6923d8,5f515e8d5d41a43a45802077,1,,,,,,telephone,,,,,,,,,,,2,2,0,56,56,15,1,,,,,,,,,,,,,,,,,,,,,,,,,,,,,,,,,,,,,,,,,,,,,,,,,,,,,,,,,,,,,,,,,,,,,,,,,,,,,,,,,,,,,,,,,,,,,,
,,?,0.001225,0,,,,,,stimuli/images/PICTURE_160.png,HOTEL,5ae0c7d4e0feeb0001caff2b,13/02/1949,2020-09-03_22h23.01.693,proactive2,2020.1.2,Win32,60,5f5126bb654d4b30ee6923d8,5f515e8d5d41a43a45802077,1,,,,,,wheelbarrow,,,,,,,,,,,2,2,0,57,57,16,1,,,,,,,,,,,,,,,,,,,,,,,,,,,,,,,,,,,,,,,,,,,,,,,,,,,,,,,,,,,,,,,,,,,,,,,,,,,,,,,,,,,,,,,,,,,,,,
,,?,0.002315,0,,,,,,stimuli/images/PICTURE_470.png,BEAUTY,5ae0c7d4e0feeb0001caff2b,13/02/1949,2020-09-03_22h23.01.693,proactive2,2020.1.2,Win32,60,5f5126bb654d4b30ee6923d8,5f515e8d5d41a43a45802077,1,,,,,,motorbike,,,,,,,,,,,3,2,0,58,58,26,1,,,,,,,,,,,,,,,,,,,,,,,,,,,,,,,,,,,,,,,,,,,,,,,,,,,,,,,,,,,,,,,,,,,,,,,,,,,,,,,,,,,,,,,,,,,,,,
,,?,0.00106,0,,,,,,stimuli/images/PICTURE_57.png,NATION,5ae0c7d4e0feeb0001caff2b,13/02/1949,2020-09-03_22h23.01.693,proactive2,2020.1.2,Win32,60,5f5126bb654d4b30ee6923d8,5f515e8d5d41a43a45802077,1,,,,,,stamp,,,,,,,,,,,3,2,0,59,59,21,1,,,,,,,,,,,,,,,,,,,,,,,,,,,,,,,,,,,,,,,,,,,,,,,,,,,,,,,,,,,,,,,,,,,,,,,,,,,,,,,,,,,,,,,,,,,,,,
,,,,,,,,,,,,5ae0c7d4e0feeb0001caff2b,13/02/1949,2020-09-03_22h23.01.693,proactive2,2020.1.2,Win32,60,5f5126bb654d4b30ee6923d8,5f515e8d5d41a43a45802077,1,,,,,,,,,,,,,,,,,,,,,,,,0,1,1,2,1,stimuli/learn-block3.csv,,,,,,,,,,,,,,,,,,,,,,,,,,,,,,,,,,,,,,,,,,,,,,,,,,,,,,,,,,,,,,,,,,,,,,,,,,,,,,,,,,,,,,,,
,,,,,,,,,,stimuli/images/PICTURE_215.png,PLENTY,5ae0c7d4e0feeb0001caff2b,13/02/1949,2020-09-03_22h23.01.693,proactive2,2020.1.2,Win32,60,5f5126bb654d4b30ee6923d8,5f515e8d5d41a43a45802077,1,,,,,,boot,,,,,,0,0,0,37,1,4,0,,,,,,,,,,,,,,,,,,,,,,,,,,,,,,,,,,,,,,,,,,,,,,,,,,,,,,,,,,,,,,,,,,,,,,,,,,,,,,,,,,,,,,,,,,,,,,,,,,,
,,,,,,,,,,stimuli/images/PICTURE_308.png,KIND,5ae0c7d4e0feeb0001caff2b,13/02/1949,2020-09-03_22h23.01.693,proactive2,2020.1.2,Win32,60,5f5126bb654d4b30ee6923d8,5f515e8d5d41a43a45802077,1,,,,,,dice,,,,,,0,1,1,54,1,6,0,,,,,,,,,,,,,,,,,,,,,,,,,,,,,,,,,,,,,,,,,,,,,,,,,,,,,,,,,,,,,,,,,,,,,,,,,,,,,,,,,,,,,,,,,,,,,,,,,,,
,,,,,,,,,,stimuli/images/PICTURE_380.png,PHOTO,5ae0c7d4e0feeb0001caff2b,13/02/1949,2020-09-03_22h23.01.693,proactive2,2020.1.2,Win32,60,5f5126bb654d4b30ee6923d8,5f515e8d5d41a43a45802077,1,,,,,,gorilla,,,,,,0,2,2,52,1,6,0,,,,,,,,,,,,,,,,,,,,,,,,,,,,,,,,,,,,,,,,,,,,,,,,,,,,,,,,,,,,,,,,,,,,,,,,,,,,,,,,,,,,,,,,,,,,,,,,,,,
,,,,,,,,,,stimuli/images/PICTURE_467.png,DEMON,5ae0c7d4e0feeb0001caff2b,13/02/1949,2020-09-03_22h23.01.693,proactive2,2020.1.2,Win32,60,5f5126bb654d4b30ee6923d8,5f515e8d5d41a43a45802077,1,,,,,,peg,,,,,,0,3,3,23,1,3,0,,,,,,,,,,,,,,,,,,,,,,,,,,,,,,,,,,,,,,,,,,,,,,,,,,,,,,,,,,,,,,,,,,,,,,,,,,,,,,,,,,,,,,,,,,,,,,,,,,,
,,,,,,,,,,stimuli/images/PICTURE_708.png,PENNY,5ae0c7d4e0feeb0001caff2b,13/02/1949,2020-09-03_22h23.01.693,proactive2,2020.1.2,Win32,60,5f5126bb654d4b30ee6923d8,5f515e8d5d41a43a45802077,1,,,,,,monkey,,,,,,0,4,4,31,1,4,0,,,,,,,,,,,,,,,,,,,,,,,,,,,,,,,,,,,,,,,,,,,,,,,,,,,,,,,,,,,,,,,,,,,,,,,,,,,,,,,,,,,,,,,,,,,,,,,,,,,
,,,,,,,,,,stimuli/images/PICTURE_95.png,STYLE,5ae0c7d4e0feeb0001caff2b,13/02/1949,2020-09-03_22h23.01.693,proactive2,2020.1.2,Win32,60,5f5126bb654d4b30ee6923d8,5f515e8d5d41a43a45802077,1,,,,,,suitcase,,,,,,0,5,5,25,1,3,0,,,,,,,,,,,,,,,,,,,,,,,,,,,,,,,,,,,,,,,,,,,,,,,,,,,,,,,,,,,,,,,,,,,,,,,,,,,,,,,,,,,,,,,,,,,,,,,,,,,
,,,,,,,,,,stimuli/images/PICTURE_744.png,SYSTEM,5ae0c7d4e0feeb0001caff2b,13/02/1949,2020-09-03_22h23.01.693,proactive2,2020.1.2,Win32,60,5f5126bb654d4b30ee6923d8,5f515e8d5d41a43a45802077,1,,,,,,ring,,,,,,0,6,6,43,1,5,0,,,,,,,,,,,,,,,,,,,,,,,,,,,,,,,,,,,,,,,,,,,,,,,,,,,,,,,,,,,,,,,,,,,,,,,,,,,,,,,,,,,,,,,,,,,,,,,,,,,
,,,,,,,,,,stimuli/images/PICTURE_208.png,THING,5ae0c7d4e0feeb0001caff2b,13/02/1949,2020-09-03_22h23.01.693,proactive2,2020.1.2,Win32,60,5f5126bb654d4b30ee6923d8,5f515e8d5d41a43a45802077,1,,,,,,microphone,,,,,,0,7,7,47,1,5,0,,,,,,,,,,,,,,,,,,,,,,,,,,,,,,,,,,,,,,,,,,,,,,,,,,,,,,,,,,,,,,,,,,,,,,,,,,,,,,,,,,,,,,,,,,,,,,,,,,,
,,,,,,,,,,stimuli/images/PICTURE_667.png,BATH,5ae0c7d4e0feeb0001caff2b,13/02/1949,2020-09-03_22h23.01.693,proactive2,2020.1.2,Win32,60,5f5126bb654d4b30ee6923d8,5f515e8d5d41a43a45802077,1,,,,,,daisy,,,,,,0,8,8,4,1,1,0,,,,,,,,,,,,,,,,,,,,,,,,,,,,,,,,,,,,,,,,,,,,,,,,,,,,,,,,,,,,,,,,,,,,,,,,,,,,,,,,,,,,,,,,,,,,,,,,,,,
,,,,,,,,,,stimuli/images/PICTURE_449.png,THING,5ae0c7d4e0feeb0001caff2b,13/02/1949,2020-09-03_22h23.01.693,proactive2,2020.1.2,Win32,60,5f5126bb654d4b30ee6923d8,5f515e8d5d41a43a45802077,1,,,,,,bench,,,,,,0,9,9,59,1,6,0,,,,,,,,,,,,,,,,,,,,,,,,,,,,,,,,,,,,,,,,,,,,,,,,,,,,,,,,,,,,,,,,,,,,,,,,,,,,,,,,,,,,,,,,,,,,,,,,,,,
,,,,,,,,,,stimuli/images/PICTURE_177.png,CARS,5ae0c7d4e0feeb0001caff2b,13/02/1949,2020-09-03_22h23.01.693,proactive2,2020.1.2,Win32,60,5f5126bb654d4b30ee6923d8,5f515e8d5d41a43a45802077,1,,,,,,mushroom,,,,,,0,10,10,35,1,4,0,,,,,,,,,,,,,,,,,,,,,,,,,,,,,,,,,,,,,,,,,,,,,,,,,,,,,,,,,,,,,,,,,,,,,,,,,,,,,,,,,,,,,,,,,,,,,,,,,,,
,,,,,,,,,,stimuli/images/PICTURE_453.png,PLENTY,5ae0c7d4e0feeb0001caff2b,13/02/1949,2020-09-03_22h23.01.693,proactive2,2020.1.2,Win32,60,5f5126bb654d4b30ee6923d8,5f515e8d5d41a43a45802077,1,,,,,,scissors,,,,,,0,11,11,56,1,6,0,,,,,,,,,,,,,,,,,,,,,,,,,,,,,,,,,,,,,,,,,,,,,,,,,,,,,,,,,,,,,,,,,,,,,,,,,,,,,,,,,,,,,,,,,,,,,,,,,,,
,,,,,,,,,,stimuli/images/PICTURE_708.png,YARD,5ae0c7d4e0feeb0001caff2b,13/02/1949,2020-09-03_22h23.01.693,proactive2,2020.1.2,Win32,60,5f5126bb654d4b30ee6923d8,5f515e8d5d41a43a45802077,1,,,,,,monkey,,,,,,0,12,12,29,1,3,0,,,,,,,,,,,,,,,,,,,,,,,,,,,,,,,,,,,,,,,,,,,,,,,,,,,,,,,,,,,,,,,,,,,,,,,,,,,,,,,,,,,,,,,,,,,,,,,,,,,
,,,,,,,,,,stimuli/images/PICTURE_123.png,ADVICE,5ae0c7d4e0feeb0001caff2b,13/02/1949,2020-09-03_22h23.01.693,proactive2,2020.1.2,Win32,60,5f5126bb654d4b30ee6923d8,5f515e8d5d41a43a45802077,1,,,,,,dart,,,,,,0,13,13,50,1,6,0,,,,,,,,,,,,,,,,,,,,,,,,,,,,,,,,,,,,,,,,,,,,,,,,,,,,,,,,,,,,,,,,,,,,,,,,,,,,,,,,,,,,,,,,,,,,,,,,,,,
,,,,,,,,,,stimuli/images/PICTURE_491.png,WRITER,5ae0c7d4e0feeb0001caff2b,13/02/1949,2020-09-03_22h23.01.693,proactive2,2020.1.2,Win32,60,5f5126bb654d4b30ee6923d8,5f515e8d5d41a43a45802077,1,,,,,,rug,,,,,,0,14,14,57,1,6,0,,,,,,,,,,,,,,,,,,,,,,,,,,,,,,,,,,,,,,,,,,,,,,,,,,,,,,,,,,,,,,,,,,,,,,,,,,,,,,,,,,,,,,,,,,,,,,,,,,,
,,,,,,,,,,stimuli/images/PICTURE_509.png,PHOTO,5ae0c7d4e0feeb0001caff2b,13/02/1949,2020-09-03_22h23.01.693,proactive2,2020.1.2,Win32,60,5f5126bb654d4b30ee6923d8,5f515e8d5d41a43a45802077,1,,,,,,telephone,,,,,,0,15,15,21,1,3,0,,,,,,,,,,,,,,,,,,,,,,,,,,,,,,,,,,,,,,,,,,,,,,,,,,,,,,,,,,,,,,,,,,,,,,,,,,,,,,,,,,,,,,,,,,,,,,,,,,,
,,,,,,,,,,stimuli/images/PICTURE_151.png,GIRL,5ae0c7d4e0feeb0001caff2b,13/02/1949,2020-09-03_22h23.01.693,proactive2,2020.1.2,Win32,60,5f5126bb654d4b30ee6923d8,5f515e8d5d41a43a45802077,1,,,,,,tray,,,,,,0,16,16,19,1,2,0,,,,,,,,,,,,,,,,,,,,,,,,,,,,,,,,,,,,,,,,,,,,,,,,,,,,,,,,,,,,,,,,,,,,,,,,,,,,,,,,,,,,,,,,,,,,,,,,,,,
,,,,,,,,,,stimuli/images/PICTURE_233.png,WOMEN,5ae0c7d4e0feeb0001caff2b,13/02/1949,2020-09-03_22h23.01.693,proactive2,2020.1.2,Win32,60,5f5126bb654d4b30ee6923d8,5f515e8d5d41a43a45802077,1,,,,,,salt,,,,,,0,17,17,38,1,4,0,,,,,,,,,,,,,,,,,,,,,,,,,,,,,,,,,,,,,,,,,,,,,,,,,,,,,,,,,,,,,,,,,,,,,,,,,,,,,,,,,,,,,,,,,,,,,,,,,,,
,,,,,,,,,,stimuli/images/PICTURE_708.png,CLIENT,5ae0c7d4e0feeb0001caff2b,13/02/1949,2020-09-03_22h23.01.693,proactive2,2020.1.2,Win32,60,5f5126bb654d4b30ee6923d8,5f515e8d5d41a43a45802077,1,,,,,,monkey,,,,,,0,18,18,5,1,1,0,,,,,,,,,,,,,,,,,,,,,,,,,,,,,,,,,,,,,,,,,,,,,,,,,,,,,,,,,,,,,,,,,,,,,,,,,,,,,,,,,,,,,,,,,,,,,,,,,,,
,,,,,,,,,,stimuli/images/PICTURE_302.png,FAMILY,5ae0c7d4e0feeb0001caff2b,13/02/1949,2020-09-03_22h23.01.693,proactive2,2020.1.2,Win32,60,5f5126bb654d4b30ee6923d8,5f515e8d5d41a43a45802077,1,,,,,,taxi,,,,,,0,19,19,18,1,2,0,,,,,,,,,,,,,,,,,,,,,,,,,,,,,,,,,,,,,,,,,,,,,,,,,,,,,,,,,,,,,,,,,,,,,,,,,,,,,,,,,,,,,,,,,,,,,,,,,,,
,,,,,,,,,,stimuli/images/PICTURE_348.png,SPEECH,5ae0c7d4e0feeb0001caff2b,13/02/1949,2020-09-03_22h23.01.693,proactive2,2020.1.2,Win32,60,5f5126bb654d4b30ee6923d8,5f515e8d5d41a43a45802077,1,,,,,,pepper,,,,,,0,20,20,20,1,3,0,,,,,,,,,,,,,,,,,,,,,,,,,,,,,,,,,,,,,,,,,,,,,,,,,,,,,,,,,,,,,,,,,,,,,,,,,,,,,,,,,,,,,,,,,,,,,,,,,,,
,,,,,,,,,,stimuli/images/PICTURE_688.png,CASINO,5ae0c7d4e0feeb0001caff2b,13/02/1949,2020-09-03_22h23.01.693,proactive2,2020.1.2,Win32,60,5f5126bb654d4b30ee6923d8,5f515e8d5d41a43a45802077,1,,,,,,runner,,,,,,0,21,21,2,1,1,0,,,,,,,,,,,,,,,,,,,,,,,,,,,,,,,,,,,,,,,,,,,,,,,,,,,,,,,,,,,,,,,,,,,,,,,,,,,,,,,,,,,,,,,,,,,,,,,,,,,
,,,,,,,,,,stimuli/images/PICTURE_85.png,THING,5ae0c7d4e0feeb0001caff2b,13/02/1949,2020-09-03_22h23.01.693,proactive2,2020.1.2,Win32,60,5f5126bb654d4b30ee6923d8,5f515e8d5d41a43a45802077,1,,,,,,diamond,,,,,,0,22,22,15,1,2,0,,,,,,,,,,,,,,,,,,,,,,,,,,,,,,,,,,,,,,,,,,,,,,,,,,,,,,,,,,,,,,,,,,,,,,,,,,,,,,,,,,,,,,,,,,,,,,,,,,,
,,,,,,,,,,stimuli/images/PICTURE_470.png,CASINO,5ae0c7d4e0feeb0001caff2b,13/02/1949,2020-09-03_22h23.01.693,proactive2,2020.1.2,Win32,60,5f5126bb654d4b30ee6923d8,5f515e8d5d41a43a45802077,1,,,,,,motorbike,,,,,,0,23,23,36,1,4,0,,,,,,,,,,,,,,,,,,,,,,,,,,,,,,,,,,,,,,,,,,,,,,,,,,,,,,,,,,,,,,,,,,,,,,,,,,,,,,,,,,,,,,,,,,,,,,,,,,,
,,,,,,,,,,stimuli/images/PICTURE_68.png,MILE,5ae0c7d4e0feeb0001caff2b,13/02/1949,2020-09-03_22h23.01.693,proactive2,2020.1.2,Win32,60,5f5126bb654d4b30ee6923d8,5f515e8d5d41a43a45802077,1,,,,,,candle,,,,,,0,24,24,44,1,5,0,,,,,,,,,,,,,,,,,,,,,,,,,,,,,,,,,,,,,,,,,,,,,,,,,,,,,,,,,,,,,,,,,,,,,,,,,,,,,,,,,,,,,,,,,,,,,,,,,,,
,,,,,,,,,,stimuli/images/PICTURE_327.png,BEAUTY,5ae0c7d4e0feeb0001caff2b,13/02/1949,2020-09-03_22h23.01.693,proactive2,2020.1.2,Win32,60,5f5126bb654d4b30ee6923d8,5f515e8d5d41a43a45802077,1,,,,,,helmet,,,,,,0,25,25,48,1,5,0,,,,,,,,,,,,,,,,,,,,,,,,,,,,,,,,,,,,,,,,,,,,,,,,,,,,,,,,,,,,,,,,,,,,,,,,,,,,,,,,,,,,,,,,,,,,,,,,,,,
,,,,,,,,,,stimuli/images/PICTURE_453.png,DUDE,5ae0c7d4e0feeb0001caff2b,13/02/1949,2020-09-03_22h23.01.693,proactive2,2020.1.2,Win32,60,5f5126bb654d4b30ee6923d8,5f515e8d5d41a43a45802077,1,,,,,,scissors,,,,,,0,26,26,27,1,3,0,,,,,,,,,,,,,,,,,,,,,,,,,,,,,,,,,,,,,,,,,,,,,,,,,,,,,,,,,,,,,,,,,,,,,,,,,,,,,,,,,,,,,,,,,,,,,,,,,,,
,,,,,,,,,,stimuli/images/PICTURE_380.png,DEATH,5ae0c7d4e0feeb0001caff2b,13/02/1949,2020-09-03_22h23.01.693,proactive2,2020.1.2,Win32,60,5f5126bb654d4b30ee6923d8,5f515e8d5d41a43a45802077,1,,,,,,gorilla,,,,,,0,27,27,49,1,5,0,,,,,,,,,,,,,,,,,,,,,,,,,,,,,,,,,,,,,,,,,,,,,,,,,,,,,,,,,,,,,,,,,,,,,,,,,,,,,,,,,,,,,,,,,,,,,,,,,,,
,,,,,,,,,,stimuli/images/PICTURE_504.png,BODY,5ae0c7d4e0feeb0001caff2b,13/02/1949,2020-09-03_22h23.01.693,proactive2,2020.1.2,Win32,60,5f5126bb654d4b30ee6923d8,5f515e8d5d41a43a45802077,1,,,,,,wheel,,,,,,0,28,28,8,1,1,0,,,,,,,,,,,,,,,,,,,,,,,,,,,,,,,,,,,,,,,,,,,,,,,,,,,,,,,,,,,,,,,,,,,,,,,,,,,,,,,,,,,,,,,,,,,,,,,,,,,
,,,,,,,,,,stimuli/images/PICTURE_123.png,ADVICE,5ae0c7d4e0feeb0001caff2b,13/02/1949,2020-09-03_22h23.01.693,proactive2,2020.1.2,Win32,60,5f5126bb654d4b30ee6923d8,5f515e8d5d41a43a45802077,1,,,,,,dart,,,,,,0,29,29,40,1,5,0,,,,,,,,,,,,,,,,,,,,,,,,,,,,,,,,,,,,,,,,,,,,,,,,,,,,,,,,,,,,,,,,,,,,,,,,,,,,,,,,,,,,,,,,,,,,,,,,,,,
,,,,,,,,,,stimuli/images/PICTURE_675.png,WEAPON,5ae0c7d4e0feeb0001caff2b,13/02/1949,2020-09-03_22h23.01.693,proactive2,2020.1.2,Win32,60,5f5126bb654d4b30ee6923d8,5f515e8d5d41a43a45802077,1,,,,,,windmill,,,,,,0,30,30,32,1,4,0,,,,,,,,,,,,,,,,,,,,,,,,,,,,,,,,,,,,,,,,,,,,,,,,,,,,,,,,,,,,,,,,,,,,,,,,,,,,,,,,,,,,,,,,,,,,,,,,,,,
,,,,,,,,,,stimuli/images/PICTURE_654.png,VALLEY,5ae0c7d4e0feeb0001caff2b,13/02/1949,2020-09-03_22h23.01.693,proactive2,2020.1.2,Win32,60,5f5126bb654d4b30ee6923d8,5f515e8d5d41a43a45802077,1,,,,,,pencil,,,,,,0,31,31,1,1,1,0,,,,,,,,,,,,,,,,,,,,,,,,,,,,,,,,,,,,,,,,,,,,,,,,,,,,,,,,,,,,,,,,,,,,,,,,,,,,,,,,,,,,,,,,,,,,,,,,,,,
,,,,,,,,,,stimuli/images/PICTURE_692.png,MONTH,5ae0c7d4e0feeb0001caff2b,13/02/1949,2020-09-03_22h23.01.693,proactive2,2020.1.2,Win32,60,5f5126bb654d4b30ee6923d8,5f515e8d5d41a43a45802077,1,,,,,,cherry,,,,,,0,32,32,16,1,2,0,,,,,,,,,,,,,,,,,,,,,,,,,,,,,,,,,,,,,,,,,,,,,,,,,,,,,,,,,,,,,,,,,,,,,,,,,,,,,,,,,,,,,,,,,,,,,,,,,,,
,,,,,,,,,,stimuli/images/PICTURE_160.png,LEADER,5ae0c7d4e0feeb0001caff2b,13/02/1949,2020-09-03_22h23.01.693,proactive2,2020.1.2,Win32,60,5f5126bb654d4b30ee6923d8,5f515e8d5d41a43a45802077,1,,,,,,wheelbarrow,,,,,,0,33,33,3,1,1,0,,,,,,,,,,,,,,,,,,,,,,,,,,,,,,,,,,,,,,,,,,,,,,,,,,,,,,,,,,,,,,,,,,,,,,,,,,,,,,,,,,,,,,,,,,,,,,,,,,,
,,,,,,,,,,stimuli/images/PICTURE_744.png,SAKE,5ae0c7d4e0feeb0001caff2b,13/02/1949,2020-09-03_22h23.01.693,proactive2,2020.1.2,Win32,60,5f5126bb654d4b30ee6923d8,5f515e8d5d41a43a45802077,1,,,,,,ring,,,,,,0,34,34,17,1,2,0,,,,,,,,,,,,,,,,,,,,,,,,,,,,,,,,,,,,,,,,,,,,,,,,,,,,,,,,,,,,,,,,,,,,,,,,,,,,,,,,,,,,,,,,,,,,,,,,,,,
,,,,,,,,,,stimuli/images/PICTURE_314.png,GODS,5ae0c7d4e0feeb0001caff2b,13/02/1949,2020-09-03_22h23.01.693,proactive2,2020.1.2,Win32,60,5f5126bb654d4b30ee6923d8,5f515e8d5d41a43a45802077,1,,,,,,perfume,,,,,,0,35,35,11,1,2,0,,,,,,,,,,,,,,,,,,,,,,,,,,,,,,,,,,,,,,,,,,,,,,,,,,,,,,,,,,,,,,,,,,,,,,,,,,,,,,,,,,,,,,,,,,,,,,,,,,,
,,,,,,,,,,stimuli/images/PICTURE_160.png,FEET,5ae0c7d4e0feeb0001caff2b,13/02/1949,2020-09-03_22h23.01.693,proactive2,2020.1.2,Win32,60,5f5126bb654d4b30ee6923d8,5f515e8d5d41a43a45802077,1,,,,,,wheelbarrow,,,,,,0,36,36,58,1,6,0,,,,,,,,,,,,,,,,,,,,,,,,,,,,,,,,,,,,,,,,,,,,,,,,,,,,,,,,,,,,,,,,,,,,,,,,,,,,,,,,,,,,,,,,,,,,,,,,,,,
,,,,,,,,,,stimuli/images/PICTURE_248.png,DOZEN,5ae0c7d4e0feeb0001caff2b,13/02/1949,2020-09-03_22h23.01.693,proactive2,2020.1.2,Win32,60,5f5126bb654d4b30ee6923d8,5f515e8d5d41a43a45802077,1,,,,,,cart,,,,,,0,37,37,39,1,4,0,,,,,,,,,,,,,,,,,,,,,,,,,,,,,,,,,,,,,,,,,,,,,,,,,,,,,,,,,,,,,,,,,,,,,,,,,,,,,,,,,,,,,,,,,,,,,,,,,,,
,,,,,,,,,,stimuli/images/PICTURE_688.png,WOMEN,5ae0c7d4e0feeb0001caff2b,13/02/1949,2020-09-03_22h23.01.693,proactive2,2020.1.2,Win32,60,5f5126bb654d4b30ee6923d8,5f515e8d5d41a43a45802077,1,,,,,,runner,,,,,,0,38,38,14,1,2,0,,,,,,,,,,,,,,,,,,,,,,,,,,,,,,,,,,,,,,,,,,,,,,,,,,,,,,,,,,,,,,,,,,,,,,,,,,,,,,,,,,,,,,,,,,,,,,,,,,,
,,,,,,,,,,stimuli/images/PICTURE_32.png,JUNGLE,5ae0c7d4e0feeb0001caff2b,13/02/1949,2020-09-03_22h23.01.693,proactive2,2020.1.2,Win32,60,5f5126bb654d4b30ee6923d8,5f515e8d5d41a43a45802077,1,,,,,,crown,,,,,,0,39,39,45,1,5,0,,,,,,,,,,,,,,,,,,,,,,,,,,,,,,,,,,,,,,,,,,,,,,,,,,,,,,,,,,,,,,,,,,,,,,,,,,,,,,,,,,,,,,,,,,,,,,,,,,,
,,,,,,,,,,stimuli/images/PICTURE_208.png,MONTH,5ae0c7d4e0feeb0001caff2b,13/02/1949,2020-09-03_22h23.01.693,proactive2,2020.1.2,Win32,60,5f5126bb654d4b30ee6923d8,5f515e8d5d41a43a45802077,1,,,,,,microphone,,,,,,0,40,40,53,1,6,0,,,,,,,,,,,,,,,,,,,,,,,,,,,,,,,,,,,,,,,,,,,,,,,,,,,,,,,,,,,,,,,,,,,,,,,,,,,,,,,,,,,,,,,,,,,,,,,,,,,
,,,,,,,,,,stimuli/images/PICTURE_255.png,AREA,5ae0c7d4e0feeb0001caff2b,13/02/1949,2020-09-03_22h23.01.693,proactive2,2020.1.2,Win32,60,5f5126bb654d4b30ee6923d8,5f515e8d5d41a43a45802077,1,,,,,,shovel,,,,,,0,41,41,22,1,3,0,,,,,,,,,,,,,,,,,,,,,,,,,,,,,,,,,,,,,,,,,,,,,,,,,,,,,,,,,,,,,,,,,,,,,,,,,,,,,,,,,,,,,,,,,,,,,,,,,,,
,,,,,,,,,,stimuli/images/PICTURE_311.png,BEAUTY,5ae0c7d4e0feeb0001caff2b,13/02/1949,2020-09-03_22h23.01.693,proactive2,2020.1.2,Win32,60,5f5126bb654d4b30ee6923d8,5f515e8d5d41a43a45802077,1,,,,,,razor,,,,,,0,42,42,13,1,2,0,,,,,,,,,,,,,,,,,,,,,,,,,,,,,,,,,,,,,,,,,,,,,,,,,,,,,,,,,,,,,,,,,,,,,,,,,,,,,,,,,,,,,,,,,,,,,,,,,,,
,,,,,,,,,,stimuli/images/PICTURE_285.png,ADVICE,5ae0c7d4e0feeb0001caff2b,13/02/1949,2020-09-03_22h23.01.693,proactive2,2020.1.2,Win32,60,5f5126bb654d4b30ee6923d8,5f515e8d5d41a43a45802077,1,,,,,,carrot,,,,,,0,43,43,12,1,2,0,,,,,,,,,,,,,,,,,,,,,,,,,,,,,,,,,,,,,,,,,,,,,,,,,,,,,,,,,,,,,,,,,,,,,,,,,,,,,,,,,,,,,,,,,,,,,,,,,,,
,,,,,,,,,,stimuli/images/PICTURE_314.png,SAKE,5ae0c7d4e0feeb0001caff2b,13/02/1949,2020-09-03_22h23.01.693,proactive2,2020.1.2,Win32,60,5f5126bb654d4b30ee6923d8,5f515e8d5d41a43a45802077,1,,,,,,perfume,,,,,,0,44,44,7,1,1,0,,,,,,,,,,,,,,,,,,,,,,,,,,,,,,,,,,,,,,,,,,,,,,,,,,,,,,,,,,,,,,,,,,,,,,,,,,,,,,,,,,,,,,,,,,,,,,,,,,,
,,,,,,,,,,stimuli/images/PICTURE_339.png,PLENTY,5ae0c7d4e0feeb0001caff2b,13/02/1949,2020-09-03_22h23.01.693,proactive2,2020.1.2,Win32,60,5f5126bb654d4b30ee6923d8,5f515e8d5d41a43a45802077,1,,,,,,backpack,,,,,,0,45,45,0,1,1,0,,,,,,,,,,,,,,,,,,,,,,,,,,,,,,,,,,,,,,,,,,,,,,,,,,,,,,,,,,,,,,,,,,,,,,,,,,,,,,,,,,,,,,,,,,,,,,,,,,,
,,,,,,,,,,stimuli/images/PICTURE_488.png,STYLE,5ae0c7d4e0feeb0001caff2b,13/02/1949,2020-09-03_22h23.01.693,proactive2,2020.1.2,Win32,60,5f5126bb654d4b30ee6923d8,5f515e8d5d41a43a45802077,1,,,,,,sun,,,,,,0,46,46,33,1,4,0,,,,,,,,,,,,,,,,,,,,,,,,,,,,,,,,,,,,,,,,,,,,,,,,,,,,,,,,,,,,,,,,,,,,,,,,,,,,,,,,,,,,,,,,,,,,,,,,,,,
,,,,,,,,,,stimuli/images/PICTURE_667.png,PLENTY,5ae0c7d4e0feeb0001caff2b,13/02/1949,2020-09-03_22h23.01.693,proactive2,2020.1.2,Win32,60,5f5126bb654d4b30ee6923d8,5f515e8d5d41a43a45802077,1,,,,,,daisy,,,,,,0,47,47,41,1,5,0,,,,,,,,,,,,,,,,,,,,,,,,,,,,,,,,,,,,,,,,,,,,,,,,,,,,,,,,,,,,,,,,,,,,,,,,,,,,,,,,,,,,,,,,,,,,,,,,,,,
,,,,,,,,,,stimuli/images/PICTURE_469.png,LETTER,5ae0c7d4e0feeb0001caff2b,13/02/1949,2020-09-03_22h23.01.693,proactive2,2020.1.2,Win32,60,5f5126bb654d4b30ee6923d8,5f515e8d5d41a43a45802077,1,,,,,,stool,,,,,,0,48,48,42,1,5,0,,,,,,,,,,,,,,,,,,,,,,,,,,,,,,,,,,,,,,,,,,,,,,,,,,,,,,,,,,,,,,,,,,,,,,,,,,,,,,,,,,,,,,,,,,,,,,,,,,,
,,,,,,,,,,stimuli/images/PICTURE_356.png,DANGER,5ae0c7d4e0feeb0001caff2b,13/02/1949,2020-09-03_22h23.01.693,proactive2,2020.1.2,Win32,60,5f5126bb654d4b30ee6923d8,5f515e8d5d41a43a45802077,1,,,,,,pawn,,,,,,0,49,49,55,1,6,0,,,,,,,,,,,,,,,,,,,,,,,,,,,,,,,,,,,,,,,,,,,,,,,,,,,,,,,,,,,,,,,,,,,,,,,,,,,,,,,,,,,,,,,,,,,,,,,,,,,
