consent_key.keys,consent_key.rt,recalled,recalled_rt,recall_acc,example_recall.thisRepN,example_recall.thisTrialN,example_recall.thisN,example_recall.thisIndex,example_recall.ran,file,word,participant,please enter your date of birth (dd/mm/yyyy),date,expName,psychopyVersion,OS,frameRate,STUDY_ID,SESSION_ID,list,prac_learn_study_loop.thisRepN,prac_learn_study_loop.thisTrialN,prac_learn_study_loop.thisN,prac_learn_study_loop.thisIndex,prac_learn_study_loop.ran,image,prac_learn_test_loop.thisRepN,prac_learn_test_loop.thisTrialN,prac_learn_test_loop.thisN,prac_learn_test_loop.thisIndex,prac_learn_test_loop.ran,learn_study_loop.thisRepN,learn_study_loop.thisTrialN,learn_study_loop.thisN,learn_study_loop.thisIndex,learn_study_loop.ran,list_no,block_no,learn_test_loop.thisRepN,learn_test_loop.thisTrialN,learn_test_loop.thisN,learn_test_loop.thisIndex,learn_test_loop.ran,learn_blocks.thisRepN,learn_blocks.thisTrialN,learn_blocks.thisN,learn_blocks.thisIndex,learn_blocks.ran,block_csv,key_resp_13.keys,key_resp_13.rt,learn_blocks_loop.thisRepN,learn_blocks_loop.thisTrialN,learn_blocks_loop.thisN,learn_blocks_loop.thisIndex,learn_blocks_loop.ran,final_learn_test.thisRepN,final_learn_test.thisTrialN,final_learn_test.thisN,final_learn_test.thisIndex,final_learn_test.ran,s_im1,s_im2,s_im3,s_im4,s_im5,s_im6,s_im7,s_im8,s_im1pos,s_im2pos,s_im3pos,s_im4pos,s_im5pos,s_im6pos,s_im7pos,s_im8pos,s_tarright,search_resp.keys,search_loop.thisRepN,search_loop.thisTrialN,search_loop.thisN,search_loop.thisIndex,search_loop.ran,search_resp.rt,prac_wm_test_loop.thisRepN,prac_wm_test_loop.thisTrialN,prac_wm_test_loop.thisN,prac_wm_test_loop.thisIndex,prac_wm_test_loop.ran,wm_recalled1,wm_recall_rt1,wm_probed1,wm_recall_acc1,wm_recalled2,wm_recall_rt2,wm_probed2,wm_recall_acc2,wm_recalled3,wm_recall_rt3,wm_probed3,wm_recall_acc3,wm_recalled4,wm_recall_rt4,wm_probed4,wm_recall_acc4,prac_wm_trial_loop.thisRepN,prac_wm_trial_loop.thisTrialN,prac_wm_trial_loop.thisN,prac_wm_trial_loop.thisIndex,prac_wm_trial_loop.ran,word1,image1,file1,item_type1,word2,image2,file2,item_type2,word4,image4,file4,item_type4,word3,image3,file3,item_type3,wm_test_loop.thisRepN,wm_test_loop.thisTrialN,wm_test_loop.thisN,wm_test_loop.thisIndex,wm_test_loop.ran,wm_trial_loop.thisRepN,wm_trial_loop.thisTrialN,wm_trial_loop.thisN,wm_trial_loop.thisIndex,wm_trial_loop.ran
y,12.89799,?,6.33618,0,0,0,0,0,1,stimuli/images/PICTURE_747.png,TOUGH,5b5b9fdfe36fe200014d239a,27/01/1995,2020-08-13_12h52.04.249,proactive2,2020.1.2,Win32,60,5f341be081b9052c55068110,5f35294edc7ef806f6323e6e,4,,,,,,,,,,,,,,,,,,,,,,,,,,,,,,,,,,,,,,,,,,,,,,,,,,,,,,,,,,,,,,,,,,,,,,,,,,,,,,,,,,,,,,,,,,,,,,,,,,,,,,,,,,,,,,,,,,,,,
,,,,,,,,,,stimuli/images/PICTURE_727.png,CELL,5b5b9fdfe36fe200014d239a,27/01/1995,2020-08-13_12h52.04.249,proactive2,2020.1.2,Win32,60,5f341be081b9052c55068110,5f35294edc7ef806f6323e6e,4,0,0,0,1,1,hose,,,,,,,,,,,,,,,,,,,,,,,,,,,,,,,,,,,,,,,,,,,,,,,,,,,,,,,,,,,,,,,,,,,,,,,,,,,,,,,,,,,,,,,,,,,,,,,,,,,,,,,,,,,,,,,
,,,,,,,,,,stimuli/images/PICTURE_697.png,KILLER,5b5b9fdfe36fe200014d239a,27/01/1995,2020-08-13_12h52.04.249,proactive2,2020.1.2,Win32,60,5f341be081b9052c55068110,5f35294edc7ef806f6323e6e,4,0,1,1,4,1,peach,,,,,,,,,,,,,,,,,,,,,,,,,,,,,,,,,,,,,,,,,,,,,,,,,,,,,,,,,,,,,,,,,,,,,,,,,,,,,,,,,,,,,,,,,,,,,,,,,,,,,,,,,,,,,,,
,,,,,,,,,,stimuli/images/PICTURE_269.png,GENIUS,5b5b9fdfe36fe200014d239a,27/01/1995,2020-08-13_12h52.04.249,proactive2,2020.1.2,Win32,60,5f341be081b9052c55068110,5f35294edc7ef806f6323e6e,4,0,2,2,0,1,chameleon,,,,,,,,,,,,,,,,,,,,,,,,,,,,,,,,,,,,,,,,,,,,,,,,,,,,,,,,,,,,,,,,,,,,,,,,,,,,,,,,,,,,,,,,,,,,,,,,,,,,,,,,,,,,,,,
,,,,,,,,,,stimuli/images/PICTURE_658.png,DEVIL,5b5b9fdfe36fe200014d239a,27/01/1995,2020-08-13_12h52.04.249,proactive2,2020.1.2,Win32,60,5f341be081b9052c55068110,5f35294edc7ef806f6323e6e,4,0,3,3,3,1,crow,,,,,,,,,,,,,,,,,,,,,,,,,,,,,,,,,,,,,,,,,,,,,,,,,,,,,,,,,,,,,,,,,,,,,,,,,,,,,,,,,,,,,,,,,,,,,,,,,,,,,,,,,,,,,,,
,,LOST,6.789455,0,,,,,,stimuli/images/PICTURE_658.png,DEVIL,5b5b9fdfe36fe200014d239a,27/01/1995,2020-08-13_12h52.04.249,proactive2,2020.1.2,Win32,60,5f341be081b9052c55068110,5f35294edc7ef806f6323e6e,4,,,,,,crow,0,0,0,3,1,,,,,,,,,,,,,,,,,,,,,,,,,,,,,,,,,,,,,,,,,,,,,,,,,,,,,,,,,,,,,,,,,,,,,,,,,,,,,,,,,,,,,,,,,,,,,,,,,,,,,,,,,,
,,KILLER,2.24544,1,,,,,,stimuli/images/PICTURE_697.png,KILLER,5b5b9fdfe36fe200014d239a,27/01/1995,2020-08-13_12h52.04.249,proactive2,2020.1.2,Win32,60,5f341be081b9052c55068110,5f35294edc7ef806f6323e6e,4,,,,,,peach,0,1,1,4,1,,,,,,,,,,,,,,,,,,,,,,,,,,,,,,,,,,,,,,,,,,,,,,,,,,,,,,,,,,,,,,,,,,,,,,,,,,,,,,,,,,,,,,,,,,,,,,,,,,,,,,,,,,
,,GENIUS,4.611205,1,,,,,,stimuli/images/PICTURE_269.png,GENIUS,5b5b9fdfe36fe200014d239a,27/01/1995,2020-08-13_12h52.04.249,proactive2,2020.1.2,Win32,60,5f341be081b9052c55068110,5f35294edc7ef806f6323e6e,4,,,,,,chameleon,0,2,2,0,1,,,,,,,,,,,,,,,,,,,,,,,,,,,,,,,,,,,,,,,,,,,,,,,,,,,,,,,,,,,,,,,,,,,,,,,,,,,,,,,,,,,,,,,,,,,,,,,,,,,,,,,,,,
,,CELL,1.38061,1,,,,,,stimuli/images/PICTURE_727.png,CELL,5b5b9fdfe36fe200014d239a,27/01/1995,2020-08-13_12h52.04.249,proactive2,2020.1.2,Win32,60,5f341be081b9052c55068110,5f35294edc7ef806f6323e6e,4,,,,,,hose,0,3,3,1,1,,,,,,,,,,,,,,,,,,,,,,,,,,,,,,,,,,,,,,,,,,,,,,,,,,,,,,,,,,,,,,,,,,,,,,,,,,,,,,,,,,,,,,,,,,,,,,,,,,,,,,,,,,
,,?,3.91332,0,,,,,,stimuli/images/PICTURE_378.png,LOSS,5b5b9fdfe36fe200014d239a,27/01/1995,2020-08-13_12h52.04.249,proactive2,2020.1.2,Win32,60,5f341be081b9052c55068110,5f35294edc7ef806f6323e6e,4,,,,,,lobster,0,4,4,2,1,,,,,,,,,,,,,,,,,,,,,,,,,,,,,,,,,,,,,,,,,,,,,,,,,,,,,,,,,,,,,,,,,,,,,,,,,,,,,,,,,,,,,,,,,,,,,,,,,,,,,,,,,,
,,,,,,,,,,stimuli/images/PICTURE_68.png,KIND,5b5b9fdfe36fe200014d239a,27/01/1995,2020-08-13_12h52.04.249,proactive2,2020.1.2,Win32,60,5f341be081b9052c55068110,5f35294edc7ef806f6323e6e,4,,,,,,candle,,,,,,0,0,0,23,1,3,2,,,,,,,,,,,,,,,,,,,,,,,,,,,,,,,,,,,,,,,,,,,,,,,,,,,,,,,,,,,,,,,,,,,,,,,,,,,,,,,,,,,,,,,,,,,,,,,,,,,
,,,,,,,,,,stimuli/images/PICTURE_708.png,VALLEY,5b5b9fdfe36fe200014d239a,27/01/1995,2020-08-13_12h52.04.249,proactive2,2020.1.2,Win32,60,5f341be081b9052c55068110,5f35294edc7ef806f6323e6e,4,,,,,,monkey,,,,,,0,1,1,45,1,5,2,,,,,,,,,,,,,,,,,,,,,,,,,,,,,,,,,,,,,,,,,,,,,,,,,,,,,,,,,,,,,,,,,,,,,,,,,,,,,,,,,,,,,,,,,,,,,,,,,,,
,,,,,,,,,,stimuli/images/PICTURE_348.png,TOILET,5b5b9fdfe36fe200014d239a,27/01/1995,2020-08-13_12h52.04.249,proactive2,2020.1.2,Win32,60,5f341be081b9052c55068110,5f35294edc7ef806f6323e6e,4,,,,,,pepper,,,,,,0,2,2,4,1,1,2,,,,,,,,,,,,,,,,,,,,,,,,,,,,,,,,,,,,,,,,,,,,,,,,,,,,,,,,,,,,,,,,,,,,,,,,,,,,,,,,,,,,,,,,,,,,,,,,,,,
,,,,,,,,,,stimuli/images/PICTURE_177.png,HOUSE,5b5b9fdfe36fe200014d239a,27/01/1995,2020-08-13_12h52.04.249,proactive2,2020.1.2,Win32,60,5f341be081b9052c55068110,5f35294edc7ef806f6323e6e,4,,,,,,mushroom,,,,,,0,3,3,25,1,3,2,,,,,,,,,,,,,,,,,,,,,,,,,,,,,,,,,,,,,,,,,,,,,,,,,,,,,,,,,,,,,,,,,,,,,,,,,,,,,,,,,,,,,,,,,,,,,,,,,,,
,,,,,,,,,,stimuli/images/PICTURE_215.png,BOYS,5b5b9fdfe36fe200014d239a,27/01/1995,2020-08-13_12h52.04.249,proactive2,2020.1.2,Win32,60,5f341be081b9052c55068110,5f35294edc7ef806f6323e6e,4,,,,,,boot,,,,,,0,4,4,24,1,3,2,,,,,,,,,,,,,,,,,,,,,,,,,,,,,,,,,,,,,,,,,,,,,,,,,,,,,,,,,,,,,,,,,,,,,,,,,,,,,,,,,,,,,,,,,,,,,,,,,,,
,,,,,,,,,,stimuli/images/PICTURE_93.png,GIRL,5b5b9fdfe36fe200014d239a,27/01/1995,2020-08-13_12h52.04.249,proactive2,2020.1.2,Win32,60,5f341be081b9052c55068110,5f35294edc7ef806f6323e6e,4,,,,,,skateboard,,,,,,0,5,5,31,1,4,2,,,,,,,,,,,,,,,,,,,,,,,,,,,,,,,,,,,,,,,,,,,,,,,,,,,,,,,,,,,,,,,,,,,,,,,,,,,,,,,,,,,,,,,,,,,,,,,,,,,
,,,,,,,,,,stimuli/images/PICTURE_2.png,JUNGLE,5b5b9fdfe36fe200014d239a,27/01/1995,2020-08-13_12h52.04.249,proactive2,2020.1.2,Win32,60,5f341be081b9052c55068110,5f35294edc7ef806f6323e6e,4,,,,,,tyre,,,,,,0,6,6,1,1,1,2,,,,,,,,,,,,,,,,,,,,,,,,,,,,,,,,,,,,,,,,,,,,,,,,,,,,,,,,,,,,,,,,,,,,,,,,,,,,,,,,,,,,,,,,,,,,,,,,,,,
,,,,,,,,,,stimuli/images/PICTURE_123.png,SALE,5b5b9fdfe36fe200014d239a,27/01/1995,2020-08-13_12h52.04.249,proactive2,2020.1.2,Win32,60,5f341be081b9052c55068110,5f35294edc7ef806f6323e6e,4,,,,,,dart,,,,,,0,7,7,8,1,1,2,,,,,,,,,,,,,,,,,,,,,,,,,,,,,,,,,,,,,,,,,,,,,,,,,,,,,,,,,,,,,,,,,,,,,,,,,,,,,,,,,,,,,,,,,,,,,,,,,,,
,,,,,,,,,,stimuli/images/PICTURE_57.png,CANDY,5b5b9fdfe36fe200014d239a,27/01/1995,2020-08-13_12h52.04.249,proactive2,2020.1.2,Win32,60,5f341be081b9052c55068110,5f35294edc7ef806f6323e6e,4,,,,,,stamp,,,,,,0,8,8,52,1,6,2,,,,,,,,,,,,,,,,,,,,,,,,,,,,,,,,,,,,,,,,,,,,,,,,,,,,,,,,,,,,,,,,,,,,,,,,,,,,,,,,,,,,,,,,,,,,,,,,,,,
,,,,,,,,,,stimuli/images/PICTURE_504.png,HOUSE,5b5b9fdfe36fe200014d239a,27/01/1995,2020-08-13_12h52.04.249,proactive2,2020.1.2,Win32,60,5f341be081b9052c55068110,5f35294edc7ef806f6323e6e,4,,,,,,wheel,,,,,,0,9,9,36,1,4,2,,,,,,,,,,,,,,,,,,,,,,,,,,,,,,,,,,,,,,,,,,,,,,,,,,,,,,,,,,,,,,,,,,,,,,,,,,,,,,,,,,,,,,,,,,,,,,,,,,,
,,,,,,,,,,stimuli/images/PICTURE_2.png,YARD,5b5b9fdfe36fe200014d239a,27/01/1995,2020-08-13_12h52.04.249,proactive2,2020.1.2,Win32,60,5f341be081b9052c55068110,5f35294edc7ef806f6323e6e,4,,,,,,tyre,,,,,,0,10,10,55,1,6,2,,,,,,,,,,,,,,,,,,,,,,,,,,,,,,,,,,,,,,,,,,,,,,,,,,,,,,,,,,,,,,,,,,,,,,,,,,,,,,,,,,,,,,,,,,,,,,,,,,,
,,,,,,,,,,stimuli/images/PICTURE_296.png,CLOCK,5b5b9fdfe36fe200014d239a,27/01/1995,2020-08-13_12h52.04.249,proactive2,2020.1.2,Win32,60,5f341be081b9052c55068110,5f35294edc7ef806f6323e6e,4,,,,,,bolt,,,,,,0,11,11,18,1,2,2,,,,,,,,,,,,,,,,,,,,,,,,,,,,,,,,,,,,,,,,,,,,,,,,,,,,,,,,,,,,,,,,,,,,,,,,,,,,,,,,,,,,,,,,,,,,,,,,,,,
,,,,,,,,,,stimuli/images/PICTURE_18.png,RIVER,5b5b9fdfe36fe200014d239a,27/01/1995,2020-08-13_12h52.04.249,proactive2,2020.1.2,Win32,60,5f341be081b9052c55068110,5f35294edc7ef806f6323e6e,4,,,,,,planet,,,,,,0,12,12,22,1,3,2,,,,,,,,,,,,,,,,,,,,,,,,,,,,,,,,,,,,,,,,,,,,,,,,,,,,,,,,,,,,,,,,,,,,,,,,,,,,,,,,,,,,,,,,,,,,,,,,,,,
,,,,,,,,,,stimuli/images/PICTURE_356.png,CANDY,5b5b9fdfe36fe200014d239a,27/01/1995,2020-08-13_12h52.04.249,proactive2,2020.1.2,Win32,60,5f341be081b9052c55068110,5f35294edc7ef806f6323e6e,4,,,,,,pawn,,,,,,0,13,13,46,1,5,2,,,,,,,,,,,,,,,,,,,,,,,,,,,,,,,,,,,,,,,,,,,,,,,,,,,,,,,,,,,,,,,,,,,,,,,,,,,,,,,,,,,,,,,,,,,,,,,,,,,
,,,,,,,,,,stimuli/images/PICTURE_509.png,SHOTS,5b5b9fdfe36fe200014d239a,27/01/1995,2020-08-13_12h52.04.249,proactive2,2020.1.2,Win32,60,5f341be081b9052c55068110,5f35294edc7ef806f6323e6e,4,,,,,,telephone,,,,,,0,14,14,7,1,1,2,,,,,,,,,,,,,,,,,,,,,,,,,,,,,,,,,,,,,,,,,,,,,,,,,,,,,,,,,,,,,,,,,,,,,,,,,,,,,,,,,,,,,,,,,,,,,,,,,,,
,,,,,,,,,,stimuli/images/PICTURE_750.png,POLICY,5b5b9fdfe36fe200014d239a,27/01/1995,2020-08-13_12h52.04.249,proactive2,2020.1.2,Win32,60,5f341be081b9052c55068110,5f35294edc7ef806f6323e6e,4,,,,,,kettle,,,,,,0,15,15,44,1,5,2,,,,,,,,,,,,,,,,,,,,,,,,,,,,,,,,,,,,,,,,,,,,,,,,,,,,,,,,,,,,,,,,,,,,,,,,,,,,,,,,,,,,,,,,,,,,,,,,,,,
,,,,,,,,,,stimuli/images/PICTURE_654.png,YEAR,5b5b9fdfe36fe200014d239a,27/01/1995,2020-08-13_12h52.04.249,proactive2,2020.1.2,Win32,60,5f341be081b9052c55068110,5f35294edc7ef806f6323e6e,4,,,,,,pencil,,,,,,0,16,16,41,1,5,2,,,,,,,,,,,,,,,,,,,,,,,,,,,,,,,,,,,,,,,,,,,,,,,,,,,,,,,,,,,,,,,,,,,,,,,,,,,,,,,,,,,,,,,,,,,,,,,,,,,
,,,,,,,,,,stimuli/images/PICTURE_160.png,HOTEL,5b5b9fdfe36fe200014d239a,27/01/1995,2020-08-13_12h52.04.249,proactive2,2020.1.2,Win32,60,5f341be081b9052c55068110,5f35294edc7ef806f6323e6e,4,,,,,,wheelbarrow,,,,,,0,17,17,16,1,2,2,,,,,,,,,,,,,,,,,,,,,,,,,,,,,,,,,,,,,,,,,,,,,,,,,,,,,,,,,,,,,,,,,,,,,,,,,,,,,,,,,,,,,,,,,,,,,,,,,,,
,,,,,,,,,,stimuli/images/PICTURE_491.png,SERIES,5b5b9fdfe36fe200014d239a,27/01/1995,2020-08-13_12h52.04.249,proactive2,2020.1.2,Win32,60,5f341be081b9052c55068110,5f35294edc7ef806f6323e6e,4,,,,,,rug,,,,,,0,18,18,39,1,4,2,,,,,,,,,,,,,,,,,,,,,,,,,,,,,,,,,,,,,,,,,,,,,,,,,,,,,,,,,,,,,,,,,,,,,,,,,,,,,,,,,,,,,,,,,,,,,,,,,,,
,,,,,,,,,,stimuli/images/PICTURE_692.png,DUDE,5b5b9fdfe36fe200014d239a,27/01/1995,2020-08-13_12h52.04.249,proactive2,2020.1.2,Win32,60,5f341be081b9052c55068110,5f35294edc7ef806f6323e6e,4,,,,,,cherry,,,,,,0,19,19,47,1,5,2,,,,,,,,,,,,,,,,,,,,,,,,,,,,,,,,,,,,,,,,,,,,,,,,,,,,,,,,,,,,,,,,,,,,,,,,,,,,,,,,,,,,,,,,,,,,,,,,,,,
,,,,,,,,,,stimuli/images/PICTURE_487.png,ROOF,5b5b9fdfe36fe200014d239a,27/01/1995,2020-08-13_12h52.04.249,proactive2,2020.1.2,Win32,60,5f341be081b9052c55068110,5f35294edc7ef806f6323e6e,4,,,,,,basket,,,,,,0,20,20,50,1,6,2,,,,,,,,,,,,,,,,,,,,,,,,,,,,,,,,,,,,,,,,,,,,,,,,,,,,,,,,,,,,,,,,,,,,,,,,,,,,,,,,,,,,,,,,,,,,,,,,,,,
,,,,,,,,,,stimuli/images/PICTURE_403.png,FAMILY,5b5b9fdfe36fe200014d239a,27/01/1995,2020-08-13_12h52.04.249,proactive2,2020.1.2,Win32,60,5f341be081b9052c55068110,5f35294edc7ef806f6323e6e,4,,,,,,cathedral,,,,,,0,21,21,9,1,1,2,,,,,,,,,,,,,,,,,,,,,,,,,,,,,,,,,,,,,,,,,,,,,,,,,,,,,,,,,,,,,,,,,,,,,,,,,,,,,,,,,,,,,,,,,,,,,,,,,,,
,,,,,,,,,,stimuli/images/PICTURE_405.png,JUNGLE,5b5b9fdfe36fe200014d239a,27/01/1995,2020-08-13_12h52.04.249,proactive2,2020.1.2,Win32,60,5f341be081b9052c55068110,5f35294edc7ef806f6323e6e,4,,,,,,anchor,,,,,,0,22,22,58,1,6,2,,,,,,,,,,,,,,,,,,,,,,,,,,,,,,,,,,,,,,,,,,,,,,,,,,,,,,,,,,,,,,,,,,,,,,,,,,,,,,,,,,,,,,,,,,,,,,,,,,,
,,,,,,,,,,stimuli/images/PICTURE_141.png,CLIENT,5b5b9fdfe36fe200014d239a,27/01/1995,2020-08-13_12h52.04.249,proactive2,2020.1.2,Win32,60,5f341be081b9052c55068110,5f35294edc7ef806f6323e6e,4,,,,,,sunflower,,,,,,0,23,23,30,1,4,2,,,,,,,,,,,,,,,,,,,,,,,,,,,,,,,,,,,,,,,,,,,,,,,,,,,,,,,,,,,,,,,,,,,,,,,,,,,,,,,,,,,,,,,,,,,,,,,,,,,
,,,,,,,,,,stimuli/images/PICTURE_311.png,TOILET,5b5b9fdfe36fe200014d239a,27/01/1995,2020-08-13_12h52.04.249,proactive2,2020.1.2,Win32,60,5f341be081b9052c55068110,5f35294edc7ef806f6323e6e,4,,,,,,razor,,,,,,0,24,24,54,1,6,2,,,,,,,,,,,,,,,,,,,,,,,,,,,,,,,,,,,,,,,,,,,,,,,,,,,,,,,,,,,,,,,,,,,,,,,,,,,,,,,,,,,,,,,,,,,,,,,,,,,
,,,,,,,,,,stimuli/images/PICTURE_564.png,PLENTY,5b5b9fdfe36fe200014d239a,27/01/1995,2020-08-13_12h52.04.249,proactive2,2020.1.2,Win32,60,5f341be081b9052c55068110,5f35294edc7ef806f6323e6e,4,,,,,,spoon,,,,,,0,25,25,11,1,2,2,,,,,,,,,,,,,,,,,,,,,,,,,,,,,,,,,,,,,,,,,,,,,,,,,,,,,,,,,,,,,,,,,,,,,,,,,,,,,,,,,,,,,,,,,,,,,,,,,,,
,,,,,,,,,,stimuli/images/PICTURE_95.png,NIGHT,5b5b9fdfe36fe200014d239a,27/01/1995,2020-08-13_12h52.04.249,proactive2,2020.1.2,Win32,60,5f341be081b9052c55068110,5f35294edc7ef806f6323e6e,4,,,,,,suitcase,,,,,,0,26,26,37,1,4,2,,,,,,,,,,,,,,,,,,,,,,,,,,,,,,,,,,,,,,,,,,,,,,,,,,,,,,,,,,,,,,,,,,,,,,,,,,,,,,,,,,,,,,,,,,,,,,,,,,,
,,,,,,,,,,stimuli/images/PICTURE_487.png,POLICY,5b5b9fdfe36fe200014d239a,27/01/1995,2020-08-13_12h52.04.249,proactive2,2020.1.2,Win32,60,5f341be081b9052c55068110,5f35294edc7ef806f6323e6e,4,,,,,,basket,,,,,,0,27,27,34,1,4,2,,,,,,,,,,,,,,,,,,,,,,,,,,,,,,,,,,,,,,,,,,,,,,,,,,,,,,,,,,,,,,,,,,,,,,,,,,,,,,,,,,,,,,,,,,,,,,,,,,,
,,,,,,,,,,stimuli/images/PICTURE_688.png,CLOCK,5b5b9fdfe36fe200014d239a,27/01/1995,2020-08-13_12h52.04.249,proactive2,2020.1.2,Win32,60,5f341be081b9052c55068110,5f35294edc7ef806f6323e6e,4,,,,,,runner,,,,,,0,28,28,42,1,5,2,,,,,,,,,,,,,,,,,,,,,,,,,,,,,,,,,,,,,,,,,,,,,,,,,,,,,,,,,,,,,,,,,,,,,,,,,,,,,,,,,,,,,,,,,,,,,,,,,,,
,,,,,,,,,,stimuli/images/PICTURE_297.png,BODY,5b5b9fdfe36fe200014d239a,27/01/1995,2020-08-13_12h52.04.249,proactive2,2020.1.2,Win32,60,5f341be081b9052c55068110,5f35294edc7ef806f6323e6e,4,,,,,,aeroplane,,,,,,0,29,29,51,1,6,2,,,,,,,,,,,,,,,,,,,,,,,,,,,,,,,,,,,,,,,,,,,,,,,,,,,,,,,,,,,,,,,,,,,,,,,,,,,,,,,,,,,,,,,,,,,,,,,,,,,
,,,,,,,,,,stimuli/images/PICTURE_2.png,AREA,5b5b9fdfe36fe200014d239a,27/01/1995,2020-08-13_12h52.04.249,proactive2,2020.1.2,Win32,60,5f341be081b9052c55068110,5f35294edc7ef806f6323e6e,4,,,,,,tyre,,,,,,0,30,30,32,1,4,2,,,,,,,,,,,,,,,,,,,,,,,,,,,,,,,,,,,,,,,,,,,,,,,,,,,,,,,,,,,,,,,,,,,,,,,,,,,,,,,,,,,,,,,,,,,,,,,,,,,
,,,,,,,,,,stimuli/images/PICTURE_57.png,NATION,5b5b9fdfe36fe200014d239a,27/01/1995,2020-08-13_12h52.04.249,proactive2,2020.1.2,Win32,60,5f341be081b9052c55068110,5f35294edc7ef806f6323e6e,4,,,,,,stamp,,,,,,0,31,31,21,1,3,2,,,,,,,,,,,,,,,,,,,,,,,,,,,,,,,,,,,,,,,,,,,,,,,,,,,,,,,,,,,,,,,,,,,,,,,,,,,,,,,,,,,,,,,,,,,,,,,,,,,
,,,,,,,,,,stimuli/images/PICTURE_452.png,COPS,5b5b9fdfe36fe200014d239a,27/01/1995,2020-08-13_12h52.04.249,proactive2,2020.1.2,Win32,60,5f341be081b9052c55068110,5f35294edc7ef806f6323e6e,4,,,,,,watch,,,,,,0,32,32,0,1,1,2,,,,,,,,,,,,,,,,,,,,,,,,,,,,,,,,,,,,,,,,,,,,,,,,,,,,,,,,,,,,,,,,,,,,,,,,,,,,,,,,,,,,,,,,,,,,,,,,,,,
,,,,,,,,,,stimuli/images/PICTURE_208.png,SPIRIT,5b5b9fdfe36fe200014d239a,27/01/1995,2020-08-13_12h52.04.249,proactive2,2020.1.2,Win32,60,5f341be081b9052c55068110,5f35294edc7ef806f6323e6e,4,,,,,,microphone,,,,,,0,33,33,28,1,3,2,,,,,,,,,,,,,,,,,,,,,,,,,,,,,,,,,,,,,,,,,,,,,,,,,,,,,,,,,,,,,,,,,,,,,,,,,,,,,,,,,,,,,,,,,,,,,,,,,,,
,,,,,,,,,,stimuli/images/PICTURE_677.png,FAMILY,5b5b9fdfe36fe200014d239a,27/01/1995,2020-08-13_12h52.04.249,proactive2,2020.1.2,Win32,60,5f341be081b9052c55068110,5f35294edc7ef806f6323e6e,4,,,,,,map,,,,,,0,34,34,53,1,6,2,,,,,,,,,,,,,,,,,,,,,,,,,,,,,,,,,,,,,,,,,,,,,,,,,,,,,,,,,,,,,,,,,,,,,,,,,,,,,,,,,,,,,,,,,,,,,,,,,,,
,,,,,,,,,,stimuli/images/PICTURE_215.png,LEADER,5b5b9fdfe36fe200014d239a,27/01/1995,2020-08-13_12h52.04.249,proactive2,2020.1.2,Win32,60,5f341be081b9052c55068110,5f35294edc7ef806f6323e6e,4,,,,,,boot,,,,,,0,35,35,43,1,5,2,,,,,,,,,,,,,,,,,,,,,,,,,,,,,,,,,,,,,,,,,,,,,,,,,,,,,,,,,,,,,,,,,,,,,,,,,,,,,,,,,,,,,,,,,,,,,,,,,,,
,,,,,,,,,,stimuli/images/PICTURE_33.png,COPS,5b5b9fdfe36fe200014d239a,27/01/1995,2020-08-13_12h52.04.249,proactive2,2020.1.2,Win32,60,5f341be081b9052c55068110,5f35294edc7ef806f6323e6e,4,,,,,,frame,,,,,,0,36,36,29,1,3,2,,,,,,,,,,,,,,,,,,,,,,,,,,,,,,,,,,,,,,,,,,,,,,,,,,,,,,,,,,,,,,,,,,,,,,,,,,,,,,,,,,,,,,,,,,,,,,,,,,,
,,,,,,,,,,stimuli/images/PICTURE_677.png,PHOTO,5b5b9fdfe36fe200014d239a,27/01/1995,2020-08-13_12h52.04.249,proactive2,2020.1.2,Win32,60,5f341be081b9052c55068110,5f35294edc7ef806f6323e6e,4,,,,,,map,,,,,,0,37,37,14,1,2,2,,,,,,,,,,,,,,,,,,,,,,,,,,,,,,,,,,,,,,,,,,,,,,,,,,,,,,,,,,,,,,,,,,,,,,,,,,,,,,,,,,,,,,,,,,,,,,,,,,,
,,,,,,,,,,stimuli/images/PICTURE_147.png,LEADER,5b5b9fdfe36fe200014d239a,27/01/1995,2020-08-13_12h52.04.249,proactive2,2020.1.2,Win32,60,5f341be081b9052c55068110,5f35294edc7ef806f6323e6e,4,,,,,,hanger,,,,,,0,38,38,33,1,4,2,,,,,,,,,,,,,,,,,,,,,,,,,,,,,,,,,,,,,,,,,,,,,,,,,,,,,,,,,,,,,,,,,,,,,,,,,,,,,,,,,,,,,,,,,,,,,,,,,,,
,,,,,,,,,,stimuli/images/PICTURE_470.png,MOMENT,5b5b9fdfe36fe200014d239a,27/01/1995,2020-08-13_12h52.04.249,proactive2,2020.1.2,Win32,60,5f341be081b9052c55068110,5f35294edc7ef806f6323e6e,4,,,,,,motorbike,,,,,,0,39,39,40,1,5,2,,,,,,,,,,,,,,,,,,,,,,,,,,,,,,,,,,,,,,,,,,,,,,,,,,,,,,,,,,,,,,,,,,,,,,,,,,,,,,,,,,,,,,,,,,,,,,,,,,,
,,,,,,,,,,stimuli/images/PICTURE_405.png,HOUSE,5b5b9fdfe36fe200014d239a,27/01/1995,2020-08-13_12h52.04.249,proactive2,2020.1.2,Win32,60,5f341be081b9052c55068110,5f35294edc7ef806f6323e6e,4,,,,,,anchor,,,,,,0,40,40,2,1,1,2,,,,,,,,,,,,,,,,,,,,,,,,,,,,,,,,,,,,,,,,,,,,,,,,,,,,,,,,,,,,,,,,,,,,,,,,,,,,,,,,,,,,,,,,,,,,,,,,,,,
,,,,,,,,,,stimuli/images/PICTURE_667.png,GLASS,5b5b9fdfe36fe200014d239a,27/01/1995,2020-08-13_12h52.04.249,proactive2,2020.1.2,Win32,60,5f341be081b9052c55068110,5f35294edc7ef806f6323e6e,4,,,,,,daisy,,,,,,0,41,41,27,1,3,2,,,,,,,,,,,,,,,,,,,,,,,,,,,,,,,,,,,,,,,,,,,,,,,,,,,,,,,,,,,,,,,,,,,,,,,,,,,,,,,,,,,,,,,,,,,,,,,,,,,
,,,,,,,,,,stimuli/images/PICTURE_509.png,BATH,5b5b9fdfe36fe200014d239a,27/01/1995,2020-08-13_12h52.04.249,proactive2,2020.1.2,Win32,60,5f341be081b9052c55068110,5f35294edc7ef806f6323e6e,4,,,,,,telephone,,,,,,0,42,42,15,1,2,2,,,,,,,,,,,,,,,,,,,,,,,,,,,,,,,,,,,,,,,,,,,,,,,,,,,,,,,,,,,,,,,,,,,,,,,,,,,,,,,,,,,,,,,,,,,,,,,,,,,
,,,,,,,,,,stimuli/images/PICTURE_509.png,APPLE,5b5b9fdfe36fe200014d239a,27/01/1995,2020-08-13_12h52.04.249,proactive2,2020.1.2,Win32,60,5f341be081b9052c55068110,5f35294edc7ef806f6323e6e,4,,,,,,telephone,,,,,,0,43,43,38,1,4,2,,,,,,,,,,,,,,,,,,,,,,,,,,,,,,,,,,,,,,,,,,,,,,,,,,,,,,,,,,,,,,,,,,,,,,,,,,,,,,,,,,,,,,,,,,,,,,,,,,,
,,,,,,,,,,stimuli/images/PICTURE_655.png,SALE,5b5b9fdfe36fe200014d239a,27/01/1995,2020-08-13_12h52.04.249,proactive2,2020.1.2,Win32,60,5f341be081b9052c55068110,5f35294edc7ef806f6323e6e,4,,,,,,megaphone,,,,,,0,44,44,57,1,6,2,,,,,,,,,,,,,,,,,,,,,,,,,,,,,,,,,,,,,,,,,,,,,,,,,,,,,,,,,,,,,,,,,,,,,,,,,,,,,,,,,,,,,,,,,,,,,,,,,,,
,,,,,,,,,,stimuli/images/PICTURE_327.png,LEADER,5b5b9fdfe36fe200014d239a,27/01/1995,2020-08-13_12h52.04.249,proactive2,2020.1.2,Win32,60,5f341be081b9052c55068110,5f35294edc7ef806f6323e6e,4,,,,,,helmet,,,,,,0,45,45,17,1,2,2,,,,,,,,,,,,,,,,,,,,,,,,,,,,,,,,,,,,,,,,,,,,,,,,,,,,,,,,,,,,,,,,,,,,,,,,,,,,,,,,,,,,,,,,,,,,,,,,,,,
,,,,,,,,,,stimuli/images/PICTURE_470.png,BEAUTY,5b5b9fdfe36fe200014d239a,27/01/1995,2020-08-13_12h52.04.249,proactive2,2020.1.2,Win32,60,5f341be081b9052c55068110,5f35294edc7ef806f6323e6e,4,,,,,,motorbike,,,,,,0,46,46,26,1,3,2,,,,,,,,,,,,,,,,,,,,,,,,,,,,,,,,,,,,,,,,,,,,,,,,,,,,,,,,,,,,,,,,,,,,,,,,,,,,,,,,,,,,,,,,,,,,,,,,,,,
,,,,,,,,,,stimuli/images/PICTURE_314.png,SPEECH,5b5b9fdfe36fe200014d239a,27/01/1995,2020-08-13_12h52.04.249,proactive2,2020.1.2,Win32,60,5f341be081b9052c55068110,5f35294edc7ef806f6323e6e,4,,,,,,perfume,,,,,,0,47,47,35,1,4,2,,,,,,,,,,,,,,,,,,,,,,,,,,,,,,,,,,,,,,,,,,,,,,,,,,,,,,,,,,,,,,,,,,,,,,,,,,,,,,,,,,,,,,,,,,,,,,,,,,,
,,,,,,,,,,stimuli/images/PICTURE_285.png,WRITER,5b5b9fdfe36fe200014d239a,27/01/1995,2020-08-13_12h52.04.249,proactive2,2020.1.2,Win32,60,5f341be081b9052c55068110,5f35294edc7ef806f6323e6e,4,,,,,,carrot,,,,,,0,48,48,6,1,1,2,,,,,,,,,,,,,,,,,,,,,,,,,,,,,,,,,,,,,,,,,,,,,,,,,,,,,,,,,,,,,,,,,,,,,,,,,,,,,,,,,,,,,,,,,,,,,,,,,,,
,,,,,,,,,,stimuli/images/PICTURE_453.png,FAMILY,5b5b9fdfe36fe200014d239a,27/01/1995,2020-08-13_12h52.04.249,proactive2,2020.1.2,Win32,60,5f341be081b9052c55068110,5f35294edc7ef806f6323e6e,4,,,,,,scissors,,,,,,0,49,49,48,1,5,2,,,,,,,,,,,,,,,,,,,,,,,,,,,,,,,,,,,,,,,,,,,,,,,,,,,,,,,,,,,,,,,,,,,,,,,,,,,,,,,,,,,,,,,,,,,,,,,,,,,
,,,,,,,,,,stimuli/images/PICTURE_348.png,DUDE,5b5b9fdfe36fe200014d239a,27/01/1995,2020-08-13_12h52.04.249,proactive2,2020.1.2,Win32,60,5f341be081b9052c55068110,5f35294edc7ef806f6323e6e,4,,,,,,pepper,,,,,,0,50,50,59,1,6,2,,,,,,,,,,,,,,,,,,,,,,,,,,,,,,,,,,,,,,,,,,,,,,,,,,,,,,,,,,,,,,,,,,,,,,,,,,,,,,,,,,,,,,,,,,,,,,,,,,,
,,,,,,,,,,stimuli/images/PICTURE_509.png,MILLER,5b5b9fdfe36fe200014d239a,27/01/1995,2020-08-13_12h52.04.249,proactive2,2020.1.2,Win32,60,5f341be081b9052c55068110,5f35294edc7ef806f6323e6e,4,,,,,,telephone,,,,,,0,51,51,49,1,5,2,,,,,,,,,,,,,,,,,,,,,,,,,,,,,,,,,,,,,,,,,,,,,,,,,,,,,,,,,,,,,,,,,,,,,,,,,,,,,,,,,,,,,,,,,,,,,,,,,,,
,,,,,,,,,,stimuli/images/PICTURE_311.png,FLESH,5b5b9fdfe36fe200014d239a,27/01/1995,2020-08-13_12h52.04.249,proactive2,2020.1.2,Win32,60,5f341be081b9052c55068110,5f35294edc7ef806f6323e6e,4,,,,,,razor,,,,,,0,52,52,3,1,1,2,,,,,,,,,,,,,,,,,,,,,,,,,,,,,,,,,,,,,,,,,,,,,,,,,,,,,,,,,,,,,,,,,,,,,,,,,,,,,,,,,,,,,,,,,,,,,,,,,,,
,,,,,,,,,,stimuli/images/PICTURE_255.png,PENNY,5b5b9fdfe36fe200014d239a,27/01/1995,2020-08-13_12h52.04.249,proactive2,2020.1.2,Win32,60,5f341be081b9052c55068110,5f35294edc7ef806f6323e6e,4,,,,,,shovel,,,,,,0,53,53,19,1,2,2,,,,,,,,,,,,,,,,,,,,,,,,,,,,,,,,,,,,,,,,,,,,,,,,,,,,,,,,,,,,,,,,,,,,,,,,,,,,,,,,,,,,,,,,,,,,,,,,,,,
,,,,,,,,,,stimuli/images/PICTURE_654.png,COPS,5b5b9fdfe36fe200014d239a,27/01/1995,2020-08-13_12h52.04.249,proactive2,2020.1.2,Win32,60,5f341be081b9052c55068110,5f35294edc7ef806f6323e6e,4,,,,,,pencil,,,,,,0,54,54,10,1,2,2,,,,,,,,,,,,,,,,,,,,,,,,,,,,,,,,,,,,,,,,,,,,,,,,,,,,,,,,,,,,,,,,,,,,,,,,,,,,,,,,,,,,,,,,,,,,,,,,,,,
,,,,,,,,,,stimuli/images/PICTURE_285.png,PRINCE,5b5b9fdfe36fe200014d239a,27/01/1995,2020-08-13_12h52.04.249,proactive2,2020.1.2,Win32,60,5f341be081b9052c55068110,5f35294edc7ef806f6323e6e,4,,,,,,carrot,,,,,,0,55,55,20,1,3,2,,,,,,,,,,,,,,,,,,,,,,,,,,,,,,,,,,,,,,,,,,,,,,,,,,,,,,,,,,,,,,,,,,,,,,,,,,,,,,,,,,,,,,,,,,,,,,,,,,,
,,,,,,,,,,stimuli/images/PICTURE_215.png,FOOD,5b5b9fdfe36fe200014d239a,27/01/1995,2020-08-13_12h52.04.249,proactive2,2020.1.2,Win32,60,5f341be081b9052c55068110,5f35294edc7ef806f6323e6e,4,,,,,,boot,,,,,,0,56,56,5,1,1,2,,,,,,,,,,,,,,,,,,,,,,,,,,,,,,,,,,,,,,,,,,,,,,,,,,,,,,,,,,,,,,,,,,,,,,,,,,,,,,,,,,,,,,,,,,,,,,,,,,,
,,,,,,,,,,stimuli/images/PICTURE_57.png,CASINO,5b5b9fdfe36fe200014d239a,27/01/1995,2020-08-13_12h52.04.249,proactive2,2020.1.2,Win32,60,5f341be081b9052c55068110,5f35294edc7ef806f6323e6e,4,,,,,,stamp,,,,,,0,57,57,12,1,2,2,,,,,,,,,,,,,,,,,,,,,,,,,,,,,,,,,,,,,,,,,,,,,,,,,,,,,,,,,,,,,,,,,,,,,,,,,,,,,,,,,,,,,,,,,,,,,,,,,,,
,,,,,,,,,,stimuli/images/PICTURE_32.png,LETTER,5b5b9fdfe36fe200014d239a,27/01/1995,2020-08-13_12h52.04.249,proactive2,2020.1.2,Win32,60,5f341be081b9052c55068110,5f35294edc7ef806f6323e6e,4,,,,,,crown,,,,,,0,58,58,56,1,6,2,,,,,,,,,,,,,,,,,,,,,,,,,,,,,,,,,,,,,,,,,,,,,,,,,,,,,,,,,,,,,,,,,,,,,,,,,,,,,,,,,,,,,,,,,,,,,,,,,,,
,,?,0.002385,0,,,,,,stimuli/images/PICTURE_57.png,NATION,5b5b9fdfe36fe200014d239a,27/01/1995,2020-08-13_12h52.04.249,proactive2,2020.1.2,Win32,60,5f341be081b9052c55068110,5f35294edc7ef806f6323e6e,4,,,,,,stamp,,,,,,,,,,,3,2,0,0,0,21,1,,,,,,,,,,,,,,,,,,,,,,,,,,,,,,,,,,,,,,,,,,,,,,,,,,,,,,,,,,,,,,,,,,,,,,,,,,,,,,,,,,,,,,,,,,,,,,
,,?,0.001215,0,,,,,,stimuli/images/PICTURE_33.png,COPS,5b5b9fdfe36fe200014d239a,27/01/1995,2020-08-13_12h52.04.249,proactive2,2020.1.2,Win32,60,5f341be081b9052c55068110,5f35294edc7ef806f6323e6e,4,,,,,,frame,,,,,,,,,,,3,2,0,1,1,29,1,,,,,,,,,,,,,,,,,,,,,,,,,,,,,,,,,,,,,,,,,,,,,,,,,,,,,,,,,,,,,,,,,,,,,,,,,,,,,,,,,,,,,,,,,,,,,,
,,?,3.332695,0,,,,,,stimuli/images/PICTURE_509.png,APPLE,5b5b9fdfe36fe200014d239a,27/01/1995,2020-08-13_12h52.04.249,proactive2,2020.1.2,Win32,60,5f341be081b9052c55068110,5f35294edc7ef806f6323e6e,4,,,,,,telephone,,,,,,,,,,,4,2,0,2,2,38,1,,,,,,,,,,,,,,,,,,,,,,,,,,,,,,,,,,,,,,,,,,,,,,,,,,,,,,,,,,,,,,,,,,,,,,,,,,,,,,,,,,,,,,,,,,,,,,
,,SPEECH,3.461155,1,,,,,,stimuli/images/PICTURE_314.png,SPEECH,5b5b9fdfe36fe200014d239a,27/01/1995,2020-08-13_12h52.04.249,proactive2,2020.1.2,Win32,60,5f341be081b9052c55068110,5f35294edc7ef806f6323e6e,4,,,,,,perfume,,,,,,,,,,,4,2,0,3,3,35,1,,,,,,,,,,,,,,,,,,,,,,,,,,,,,,,,,,,,,,,,,,,,,,,,,,,,,,,,,,,,,,,,,,,,,,,,,,,,,,,,,,,,,,,,,,,,,,
,,?,0.002175,0,,,,,,stimuli/images/PICTURE_57.png,CASINO,5b5b9fdfe36fe200014d239a,27/01/1995,2020-08-13_12h52.04.249,proactive2,2020.1.2,Win32,60,5f341be081b9052c55068110,5f35294edc7ef806f6323e6e,4,,,,,,stamp,,,,,,,,,,,2,2,0,4,4,12,1,,,,,,,,,,,,,,,,,,,,,,,,,,,,,,,,,,,,,,,,,,,,,,,,,,,,,,,,,,,,,,,,,,,,,,,,,,,,,,,,,,,,,,,,,,,,,,
,,?,0.00166,0,,,,,,stimuli/images/PICTURE_285.png,WRITER,5b5b9fdfe36fe200014d239a,27/01/1995,2020-08-13_12h52.04.249,proactive2,2020.1.2,Win32,60,5f341be081b9052c55068110,5f35294edc7ef806f6323e6e,4,,,,,,carrot,,,,,,,,,,,1,2,0,5,5,6,1,,,,,,,,,,,,,,,,,,,,,,,,,,,,,,,,,,,,,,,,,,,,,,,,,,,,,,,,,,,,,,,,,,,,,,,,,,,,,,,,,,,,,,,,,,,,,,
,,?,0.00163,0,,,,,,stimuli/images/PICTURE_356.png,CANDY,5b5b9fdfe36fe200014d239a,27/01/1995,2020-08-13_12h52.04.249,proactive2,2020.1.2,Win32,60,5f341be081b9052c55068110,5f35294edc7ef806f6323e6e,4,,,,,,pawn,,,,,,,,,,,5,2,0,6,6,46,1,,,,,,,,,,,,,,,,,,,,,,,,,,,,,,,,,,,,,,,,,,,,,,,,,,,,,,,,,,,,,,,,,,,,,,,,,,,,,,,,,,,,,,,,,,,,,,
,,?,0.00175,0,,,,,,stimuli/images/PICTURE_403.png,FAMILY,5b5b9fdfe36fe200014d239a,27/01/1995,2020-08-13_12h52.04.249,proactive2,2020.1.2,Win32,60,5f341be081b9052c55068110,5f35294edc7ef806f6323e6e,4,,,,,,cathedral,,,,,,,,,,,1,2,0,7,7,9,1,,,,,,,,,,,,,,,,,,,,,,,,,,,,,,,,,,,,,,,,,,,,,,,,,,,,,,,,,,,,,,,,,,,,,,,,,,,,,,,,,,,,,,,,,,,,,,
,,SERIES,4.45993,0,,,,,,stimuli/images/PICTURE_141.png,CLIENT,5b5b9fdfe36fe200014d239a,27/01/1995,2020-08-13_12h52.04.249,proactive2,2020.1.2,Win32,60,5f341be081b9052c55068110,5f35294edc7ef806f6323e6e,4,,,,,,sunflower,,,,,,,,,,,4,2,0,8,8,30,1,,,,,,,,,,,,,,,,,,,,,,,,,,,,,,,,,,,,,,,,,,,,,,,,,,,,,,,,,,,,,,,,,,,,,,,,,,,,,,,,,,,,,,,,,,,,,,
,,?,0.00192,0,,,,,,stimuli/images/PICTURE_750.png,POLICY,5b5b9fdfe36fe200014d239a,27/01/1995,2020-08-13_12h52.04.249,proactive2,2020.1.2,Win32,60,5f341be081b9052c55068110,5f35294edc7ef806f6323e6e,4,,,,,,kettle,,,,,,,,,,,5,2,0,9,9,44,1,,,,,,,,,,,,,,,,,,,,,,,,,,,,,,,,,,,,,,,,,,,,,,,,,,,,,,,,,,,,,,,,,,,,,,,,,,,,,,,,,,,,,,,,,,,,,,
,,?,0.008255,0,,,,,,stimuli/images/PICTURE_654.png,COPS,5b5b9fdfe36fe200014d239a,27/01/1995,2020-08-13_12h52.04.249,proactive2,2020.1.2,Win32,60,5f341be081b9052c55068110,5f35294edc7ef806f6323e6e,4,,,,,,pencil,,,,,,,,,,,2,2,0,10,10,10,1,,,,,,,,,,,,,,,,,,,,,,,,,,,,,,,,,,,,,,,,,,,,,,,,,,,,,,,,,,,,,,,,,,,,,,,,,,,,,,,,,,,,,,,,,,,,,,
,,?,0.00141,0,,,,,,stimuli/images/PICTURE_327.png,LEADER,5b5b9fdfe36fe200014d239a,27/01/1995,2020-08-13_12h52.04.249,proactive2,2020.1.2,Win32,60,5f341be081b9052c55068110,5f35294edc7ef806f6323e6e,4,,,,,,helmet,,,,,,,,,,,2,2,0,11,11,17,1,,,,,,,,,,,,,,,,,,,,,,,,,,,,,,,,,,,,,,,,,,,,,,,,,,,,,,,,,,,,,,,,,,,,,,,,,,,,,,,,,,,,,,,,,,,,,,
,,LEADER,2.501805,1,,,,,,stimuli/images/PICTURE_147.png,LEADER,5b5b9fdfe36fe200014d239a,27/01/1995,2020-08-13_12h52.04.249,proactive2,2020.1.2,Win32,60,5f341be081b9052c55068110,5f35294edc7ef806f6323e6e,4,,,,,,hanger,,,,,,,,,,,4,2,0,12,12,33,1,,,,,,,,,,,,,,,,,,,,,,,,,,,,,,,,,,,,,,,,,,,,,,,,,,,,,,,,,,,,,,,,,,,,,,,,,,,,,,,,,,,,,,,,,,,,,,
,,?,0.001905,0,,,,,,stimuli/images/PICTURE_160.png,HOTEL,5b5b9fdfe36fe200014d239a,27/01/1995,2020-08-13_12h52.04.249,proactive2,2020.1.2,Win32,60,5f341be081b9052c55068110,5f35294edc7ef806f6323e6e,4,,,,,,wheelbarrow,,,,,,,,,,,2,2,0,13,13,16,1,,,,,,,,,,,,,,,,,,,,,,,,,,,,,,,,,,,,,,,,,,,,,,,,,,,,,,,,,,,,,,,,,,,,,,,,,,,,,,,,,,,,,,,,,,,,,,
,,?,0.001015,0,,,,,,stimuli/images/PICTURE_311.png,FLESH,5b5b9fdfe36fe200014d239a,27/01/1995,2020-08-13_12h52.04.249,proactive2,2020.1.2,Win32,60,5f341be081b9052c55068110,5f35294edc7ef806f6323e6e,4,,,,,,razor,,,,,,,,,,,1,2,0,14,14,3,1,,,,,,,,,,,,,,,,,,,,,,,,,,,,,,,,,,,,,,,,,,,,,,,,,,,,,,,,,,,,,,,,,,,,,,,,,,,,,,,,,,,,,,,,,,,,,,
,,?,0.00109,0,,,,,,stimuli/images/PICTURE_2.png,YARD,5b5b9fdfe36fe200014d239a,27/01/1995,2020-08-13_12h52.04.249,proactive2,2020.1.2,Win32,60,5f341be081b9052c55068110,5f35294edc7ef806f6323e6e,4,,,,,,tyre,,,,,,,,,,,6,2,0,15,15,55,1,,,,,,,,,,,,,,,,,,,,,,,,,,,,,,,,,,,,,,,,,,,,,,,,,,,,,,,,,,,,,,,,,,,,,,,,,,,,,,,,,,,,,,,,,,,,,,
,,?,0.00135,0,,,,,,stimuli/images/PICTURE_405.png,HOUSE,5b5b9fdfe36fe200014d239a,27/01/1995,2020-08-13_12h52.04.249,proactive2,2020.1.2,Win32,60,5f341be081b9052c55068110,5f35294edc7ef806f6323e6e,4,,,,,,anchor,,,,,,,,,,,1,2,0,16,16,2,1,,,,,,,,,,,,,,,,,,,,,,,,,,,,,,,,,,,,,,,,,,,,,,,,,,,,,,,,,,,,,,,,,,,,,,,,,,,,,,,,,,,,,,,,,,,,,,
,,?,0.001295,0,,,,,,stimuli/images/PICTURE_18.png,RIVER,5b5b9fdfe36fe200014d239a,27/01/1995,2020-08-13_12h52.04.249,proactive2,2020.1.2,Win32,60,5f341be081b9052c55068110,5f35294edc7ef806f6323e6e,4,,,,,,planet,,,,,,,,,,,3,2,0,17,17,22,1,,,,,,,,,,,,,,,,,,,,,,,,,,,,,,,,,,,,,,,,,,,,,,,,,,,,,,,,,,,,,,,,,,,,,,,,,,,,,,,,,,,,,,,,,,,,,,
,,?,0.001115,0,,,,,,stimuli/images/PICTURE_177.png,HOUSE,5b5b9fdfe36fe200014d239a,27/01/1995,2020-08-13_12h52.04.249,proactive2,2020.1.2,Win32,60,5f341be081b9052c55068110,5f35294edc7ef806f6323e6e,4,,,,,,mushroom,,,,,,,,,,,3,2,0,18,18,25,1,,,,,,,,,,,,,,,,,,,,,,,,,,,,,,,,,,,,,,,,,,,,,,,,,,,,,,,,,,,,,,,,,,,,,,,,,,,,,,,,,,,,,,,,,,,,,,
,,?,0.001165,0,,,,,,stimuli/images/PICTURE_667.png,GLASS,5b5b9fdfe36fe200014d239a,27/01/1995,2020-08-13_12h52.04.249,proactive2,2020.1.2,Win32,60,5f341be081b9052c55068110,5f35294edc7ef806f6323e6e,4,,,,,,daisy,,,,,,,,,,,3,2,0,19,19,27,1,,,,,,,,,,,,,,,,,,,,,,,,,,,,,,,,,,,,,,,,,,,,,,,,,,,,,,,,,,,,,,,,,,,,,,,,,,,,,,,,,,,,,,,,,,,,,,
,,?,0.00116,0,,,,,,stimuli/images/PICTURE_677.png,FAMILY,5b5b9fdfe36fe200014d239a,27/01/1995,2020-08-13_12h52.04.249,proactive2,2020.1.2,Win32,60,5f341be081b9052c55068110,5f35294edc7ef806f6323e6e,4,,,,,,map,,,,,,,,,,,6,2,0,20,20,53,1,,,,,,,,,,,,,,,,,,,,,,,,,,,,,,,,,,,,,,,,,,,,,,,,,,,,,,,,,,,,,,,,,,,,,,,,,,,,,,,,,,,,,,,,,,,,,,
,,?,2.35123,0,,,,,,stimuli/images/PICTURE_487.png,POLICY,5b5b9fdfe36fe200014d239a,27/01/1995,2020-08-13_12h52.04.249,proactive2,2020.1.2,Win32,60,5f341be081b9052c55068110,5f35294edc7ef806f6323e6e,4,,,,,,basket,,,,,,,,,,,4,2,0,21,21,34,1,,,,,,,,,,,,,,,,,,,,,,,,,,,,,,,,,,,,,,,,,,,,,,,,,,,,,,,,,,,,,,,,,,,,,,,,,,,,,,,,,,,,,,,,,,,,,,
,,?,0.00193,0,,,,,,stimuli/images/PICTURE_123.png,SALE,5b5b9fdfe36fe200014d239a,27/01/1995,2020-08-13_12h52.04.249,proactive2,2020.1.2,Win32,60,5f341be081b9052c55068110,5f35294edc7ef806f6323e6e,4,,,,,,dart,,,,,,,,,,,1,2,0,22,22,8,1,,,,,,,,,,,,,,,,,,,,,,,,,,,,,,,,,,,,,,,,,,,,,,,,,,,,,,,,,,,,,,,,,,,,,,,,,,,,,,,,,,,,,,,,,,,,,,
,,?,0.001545,0,,,,,,stimuli/images/PICTURE_285.png,PRINCE,5b5b9fdfe36fe200014d239a,27/01/1995,2020-08-13_12h52.04.249,proactive2,2020.1.2,Win32,60,5f341be081b9052c55068110,5f35294edc7ef806f6323e6e,4,,,,,,carrot,,,,,,,,,,,3,2,0,23,23,20,1,,,,,,,,,,,,,,,,,,,,,,,,,,,,,,,,,,,,,,,,,,,,,,,,,,,,,,,,,,,,,,,,,,,,,,,,,,,,,,,,,,,,,,,,,,,,,,
,,GIRL,2.11949,0,,,,,,stimuli/images/PICTURE_504.png,HOUSE,5b5b9fdfe36fe200014d239a,27/01/1995,2020-08-13_12h52.04.249,proactive2,2020.1.2,Win32,60,5f341be081b9052c55068110,5f35294edc7ef806f6323e6e,4,,,,,,wheel,,,,,,,,,,,4,2,0,24,24,36,1,,,,,,,,,,,,,,,,,,,,,,,,,,,,,,,,,,,,,,,,,,,,,,,,,,,,,,,,,,,,,,,,,,,,,,,,,,,,,,,,,,,,,,,,,,,,,,
,,?,0.00112,0,,,,,,stimuli/images/PICTURE_208.png,SPIRIT,5b5b9fdfe36fe200014d239a,27/01/1995,2020-08-13_12h52.04.249,proactive2,2020.1.2,Win32,60,5f341be081b9052c55068110,5f35294edc7ef806f6323e6e,4,,,,,,microphone,,,,,,,,,,,3,2,0,25,25,28,1,,,,,,,,,,,,,,,,,,,,,,,,,,,,,,,,,,,,,,,,,,,,,,,,,,,,,,,,,,,,,,,,,,,,,,,,,,,,,,,,,,,,,,,,,,,,,,
,,?,0.00115,0,,,,,,stimuli/images/PICTURE_452.png,COPS,5b5b9fdfe36fe200014d239a,27/01/1995,2020-08-13_12h52.04.249,proactive2,2020.1.2,Win32,60,5f341be081b9052c55068110,5f35294edc7ef806f6323e6e,4,,,,,,watch,,,,,,,,,,,1,2,0,26,26,0,1,,,,,,,,,,,,,,,,,,,,,,,,,,,,,,,,,,,,,,,,,,,,,,,,,,,,,,,,,,,,,,,,,,,,,,,,,,,,,,,,,,,,,,,,,,,,,,
,,?,0.00139,0,,,,,,stimuli/images/PICTURE_487.png,ROOF,5b5b9fdfe36fe200014d239a,27/01/1995,2020-08-13_12h52.04.249,proactive2,2020.1.2,Win32,60,5f341be081b9052c55068110,5f35294edc7ef806f6323e6e,4,,,,,,basket,,,,,,,,,,,6,2,0,27,27,50,1,,,,,,,,,,,,,,,,,,,,,,,,,,,,,,,,,,,,,,,,,,,,,,,,,,,,,,,,,,,,,,,,,,,,,,,,,,,,,,,,,,,,,,,,,,,,,,
,,?,0.00093,0,,,,,,stimuli/images/PICTURE_32.png,LETTER,5b5b9fdfe36fe200014d239a,27/01/1995,2020-08-13_12h52.04.249,proactive2,2020.1.2,Win32,60,5f341be081b9052c55068110,5f35294edc7ef806f6323e6e,4,,,,,,crown,,,,,,,,,,,6,2,0,28,28,56,1,,,,,,,,,,,,,,,,,,,,,,,,,,,,,,,,,,,,,,,,,,,,,,,,,,,,,,,,,,,,,,,,,,,,,,,,,,,,,,,,,,,,,,,,,,,,,,
,,?,0.002115,0,,,,,,stimuli/images/PICTURE_470.png,BEAUTY,5b5b9fdfe36fe200014d239a,27/01/1995,2020-08-13_12h52.04.249,proactive2,2020.1.2,Win32,60,5f341be081b9052c55068110,5f35294edc7ef806f6323e6e,4,,,,,,motorbike,,,,,,,,,,,3,2,0,29,29,26,1,,,,,,,,,,,,,,,,,,,,,,,,,,,,,,,,,,,,,,,,,,,,,,,,,,,,,,,,,,,,,,,,,,,,,,,,,,,,,,,,,,,,,,,,,,,,,,
,,SERIES,3.126855,1,,,,,,stimuli/images/PICTURE_491.png,SERIES,5b5b9fdfe36fe200014d239a,27/01/1995,2020-08-13_12h52.04.249,proactive2,2020.1.2,Win32,60,5f341be081b9052c55068110,5f35294edc7ef806f6323e6e,4,,,,,,rug,,,,,,,,,,,4,2,0,30,30,39,1,,,,,,,,,,,,,,,,,,,,,,,,,,,,,,,,,,,,,,,,,,,,,,,,,,,,,,,,,,,,,,,,,,,,,,,,,,,,,,,,,,,,,,,,,,,,,,
,,?,0.002085,0,,,,,,stimuli/images/PICTURE_692.png,DUDE,5b5b9fdfe36fe200014d239a,27/01/1995,2020-08-13_12h52.04.249,proactive2,2020.1.2,Win32,60,5f341be081b9052c55068110,5f35294edc7ef806f6323e6e,4,,,,,,cherry,,,,,,,,,,,5,2,0,31,31,47,1,,,,,,,,,,,,,,,,,,,,,,,,,,,,,,,,,,,,,,,,,,,,,,,,,,,,,,,,,,,,,,,,,,,,,,,,,,,,,,,,,,,,,,,,,,,,,,
,,?,0.001645,0,,,,,,stimuli/images/PICTURE_68.png,KIND,5b5b9fdfe36fe200014d239a,27/01/1995,2020-08-13_12h52.04.249,proactive2,2020.1.2,Win32,60,5f341be081b9052c55068110,5f35294edc7ef806f6323e6e,4,,,,,,candle,,,,,,,,,,,3,2,0,32,32,23,1,,,,,,,,,,,,,,,,,,,,,,,,,,,,,,,,,,,,,,,,,,,,,,,,,,,,,,,,,,,,,,,,,,,,,,,,,,,,,,,,,,,,,,,,,,,,,,
,,?,0.00229,0,,,,,,stimuli/images/PICTURE_57.png,CANDY,5b5b9fdfe36fe200014d239a,27/01/1995,2020-08-13_12h52.04.249,proactive2,2020.1.2,Win32,60,5f341be081b9052c55068110,5f35294edc7ef806f6323e6e,4,,,,,,stamp,,,,,,,,,,,6,2,0,33,33,52,1,,,,,,,,,,,,,,,,,,,,,,,,,,,,,,,,,,,,,,,,,,,,,,,,,,,,,,,,,,,,,,,,,,,,,,,,,,,,,,,,,,,,,,,,,,,,,,
,,NIGHT,2.562075,1,,,,,,stimuli/images/PICTURE_95.png,NIGHT,5b5b9fdfe36fe200014d239a,27/01/1995,2020-08-13_12h52.04.249,proactive2,2020.1.2,Win32,60,5f341be081b9052c55068110,5f35294edc7ef806f6323e6e,4,,,,,,suitcase,,,,,,,,,,,4,2,0,34,34,37,1,,,,,,,,,,,,,,,,,,,,,,,,,,,,,,,,,,,,,,,,,,,,,,,,,,,,,,,,,,,,,,,,,,,,,,,,,,,,,,,,,,,,,,,,,,,,,,
,,?,0.00205,0,,,,,,stimuli/images/PICTURE_509.png,BATH,5b5b9fdfe36fe200014d239a,27/01/1995,2020-08-13_12h52.04.249,proactive2,2020.1.2,Win32,60,5f341be081b9052c55068110,5f35294edc7ef806f6323e6e,4,,,,,,telephone,,,,,,,,,,,2,2,0,35,35,15,1,,,,,,,,,,,,,,,,,,,,,,,,,,,,,,,,,,,,,,,,,,,,,,,,,,,,,,,,,,,,,,,,,,,,,,,,,,,,,,,,,,,,,,,,,,,,,,
,,?,0.00076,0,,,,,,stimuli/images/PICTURE_215.png,LEADER,5b5b9fdfe36fe200014d239a,27/01/1995,2020-08-13_12h52.04.249,proactive2,2020.1.2,Win32,60,5f341be081b9052c55068110,5f35294edc7ef806f6323e6e,4,,,,,,boot,,,,,,,,,,,5,2,0,36,36,43,1,,,,,,,,,,,,,,,,,,,,,,,,,,,,,,,,,,,,,,,,,,,,,,,,,,,,,,,,,,,,,,,,,,,,,,,,,,,,,,,,,,,,,,,,,,,,,,
,,?,0.00093,0,,,,,,stimuli/images/PICTURE_311.png,TOILET,5b5b9fdfe36fe200014d239a,27/01/1995,2020-08-13_12h52.04.249,proactive2,2020.1.2,Win32,60,5f341be081b9052c55068110,5f35294edc7ef806f6323e6e,4,,,,,,razor,,,,,,,,,,,6,2,0,37,37,54,1,,,,,,,,,,,,,,,,,,,,,,,,,,,,,,,,,,,,,,,,,,,,,,,,,,,,,,,,,,,,,,,,,,,,,,,,,,,,,,,,,,,,,,,,,,,,,,
,,?,0.001045,0,,,,,,stimuli/images/PICTURE_564.png,PLENTY,5b5b9fdfe36fe200014d239a,27/01/1995,2020-08-13_12h52.04.249,proactive2,2020.1.2,Win32,60,5f341be081b9052c55068110,5f35294edc7ef806f6323e6e,4,,,,,,spoon,,,,,,,,,,,2,2,0,38,38,11,1,,,,,,,,,,,,,,,,,,,,,,,,,,,,,,,,,,,,,,,,,,,,,,,,,,,,,,,,,,,,,,,,,,,,,,,,,,,,,,,,,,,,,,,,,,,,,,
,,?,0.000785,0,,,,,,stimuli/images/PICTURE_453.png,FAMILY,5b5b9fdfe36fe200014d239a,27/01/1995,2020-08-13_12h52.04.249,proactive2,2020.1.2,Win32,60,5f341be081b9052c55068110,5f35294edc7ef806f6323e6e,4,,,,,,scissors,,,,,,,,,,,5,2,0,39,39,48,1,,,,,,,,,,,,,,,,,,,,,,,,,,,,,,,,,,,,,,,,,,,,,,,,,,,,,,,,,,,,,,,,,,,,,,,,,,,,,,,,,,,,,,,,,,,,,,
,,?,0.000915,0,,,,,,stimuli/images/PICTURE_297.png,BODY,5b5b9fdfe36fe200014d239a,27/01/1995,2020-08-13_12h52.04.249,proactive2,2020.1.2,Win32,60,5f341be081b9052c55068110,5f35294edc7ef806f6323e6e,4,,,,,,aeroplane,,,,,,,,,,,6,2,0,40,40,51,1,,,,,,,,,,,,,,,,,,,,,,,,,,,,,,,,,,,,,,,,,,,,,,,,,,,,,,,,,,,,,,,,,,,,,,,,,,,,,,,,,,,,,,,,,,,,,,
,,?,0.00193,0,,,,,,stimuli/images/PICTURE_655.png,SALE,5b5b9fdfe36fe200014d239a,27/01/1995,2020-08-13_12h52.04.249,proactive2,2020.1.2,Win32,60,5f341be081b9052c55068110,5f35294edc7ef806f6323e6e,4,,,,,,megaphone,,,,,,,,,,,6,2,0,41,41,57,1,,,,,,,,,,,,,,,,,,,,,,,,,,,,,,,,,,,,,,,,,,,,,,,,,,,,,,,,,,,,,,,,,,,,,,,,,,,,,,,,,,,,,,,,,,,,,,
,,?,0.00113,0,,,,,,stimuli/images/PICTURE_509.png,SHOTS,5b5b9fdfe36fe200014d239a,27/01/1995,2020-08-13_12h52.04.249,proactive2,2020.1.2,Win32,60,5f341be081b9052c55068110,5f35294edc7ef806f6323e6e,4,,,,,,telephone,,,,,,,,,,,1,2,0,42,42,7,1,,,,,,,,,,,,,,,,,,,,,,,,,,,,,,,,,,,,,,,,,,,,,,,,,,,,,,,,,,,,,,,,,,,,,,,,,,,,,,,,,,,,,,,,,,,,,,
,,GIRL,1.775885,1,,,,,,stimuli/images/PICTURE_93.png,GIRL,5b5b9fdfe36fe200014d239a,27/01/1995,2020-08-13_12h52.04.249,proactive2,2020.1.2,Win32,60,5f341be081b9052c55068110,5f35294edc7ef806f6323e6e,4,,,,,,skateboard,,,,,,,,,,,4,2,0,43,43,31,1,,,,,,,,,,,,,,,,,,,,,,,,,,,,,,,,,,,,,,,,,,,,,,,,,,,,,,,,,,,,,,,,,,,,,,,,,,,,,,,,,,,,,,,,,,,,,,
,,?,0.0018,0,,,,,,stimuli/images/PICTURE_405.png,JUNGLE,5b5b9fdfe36fe200014d239a,27/01/1995,2020-08-13_12h52.04.249,proactive2,2020.1.2,Win32,60,5f341be081b9052c55068110,5f35294edc7ef806f6323e6e,4,,,,,,anchor,,,,,,,,,,,2,2,0,44,44,13,1,,,,,,,,,,,,,,,,,,,,,,,,,,,,,,,,,,,,,,,,,,,,,,,,,,,,,,,,,,,,,,,,,,,,,,,,,,,,,,,,,,,,,,,,,,,,,,
,,?,0.00091,0,,,,,,stimuli/images/PICTURE_348.png,TOILET,5b5b9fdfe36fe200014d239a,27/01/1995,2020-08-13_12h52.04.249,proactive2,2020.1.2,Win32,60,5f341be081b9052c55068110,5f35294edc7ef806f6323e6e,4,,,,,,pepper,,,,,,,,,,,1,2,0,45,45,4,1,,,,,,,,,,,,,,,,,,,,,,,,,,,,,,,,,,,,,,,,,,,,,,,,,,,,,,,,,,,,,,,,,,,,,,,,,,,,,,,,,,,,,,,,,,,,,,
,,?,0.000815,0,,,,,,stimuli/images/PICTURE_405.png,JUNGLE,5b5b9fdfe36fe200014d239a,27/01/1995,2020-08-13_12h52.04.249,proactive2,2020.1.2,Win32,60,5f341be081b9052c55068110,5f35294edc7ef806f6323e6e,4,,,,,,anchor,,,,,,,,,,,6,2,0,46,46,58,1,,,,,,,,,,,,,,,,,,,,,,,,,,,,,,,,,,,,,,,,,,,,,,,,,,,,,,,,,,,,,,,,,,,,,,,,,,,,,,,,,,,,,,,,,,,,,,
,,?,0.000875,0,,,,,,stimuli/images/PICTURE_348.png,DUDE,5b5b9fdfe36fe200014d239a,27/01/1995,2020-08-13_12h52.04.249,proactive2,2020.1.2,Win32,60,5f341be081b9052c55068110,5f35294edc7ef806f6323e6e,4,,,,,,pepper,,,,,,,,,,,6,2,0,47,47,59,1,,,,,,,,,,,,,,,,,,,,,,,,,,,,,,,,,,,,,,,,,,,,,,,,,,,,,,,,,,,,,,,,,,,,,,,,,,,,,,,,,,,,,,,,,,,,,,
,,?,0.000705,0,,,,,,stimuli/images/PICTURE_509.png,MILLER,5b5b9fdfe36fe200014d239a,27/01/1995,2020-08-13_12h52.04.249,proactive2,2020.1.2,Win32,60,5f341be081b9052c55068110,5f35294edc7ef806f6323e6e,4,,,,,,telephone,,,,,,,,,,,5,2,0,48,48,49,1,,,,,,,,,,,,,,,,,,,,,,,,,,,,,,,,,,,,,,,,,,,,,,,,,,,,,,,,,,,,,,,,,,,,,,,,,,,,,,,,,,,,,,,,,,,,,,
,,?,0.000665,0,,,,,,stimuli/images/PICTURE_677.png,PHOTO,5b5b9fdfe36fe200014d239a,27/01/1995,2020-08-13_12h52.04.249,proactive2,2020.1.2,Win32,60,5f341be081b9052c55068110,5f35294edc7ef806f6323e6e,4,,,,,,map,,,,,,,,,,,2,2,0,49,49,14,1,,,,,,,,,,,,,,,,,,,,,,,,,,,,,,,,,,,,,,,,,,,,,,,,,,,,,,,,,,,,,,,,,,,,,,,,,,,,,,,,,,,,,,,,,,,,,,
,,?,0.00066,0,,,,,,stimuli/images/PICTURE_470.png,MOMENT,5b5b9fdfe36fe200014d239a,27/01/1995,2020-08-13_12h52.04.249,proactive2,2020.1.2,Win32,60,5f341be081b9052c55068110,5f35294edc7ef806f6323e6e,4,,,,,,motorbike,,,,,,,,,,,5,2,0,50,50,40,1,,,,,,,,,,,,,,,,,,,,,,,,,,,,,,,,,,,,,,,,,,,,,,,,,,,,,,,,,,,,,,,,,,,,,,,,,,,,,,,,,,,,,,,,,,,,,,
,,?,0.003005,0,,,,,,stimuli/images/PICTURE_654.png,YEAR,5b5b9fdfe36fe200014d239a,27/01/1995,2020-08-13_12h52.04.249,proactive2,2020.1.2,Win32,60,5f341be081b9052c55068110,5f35294edc7ef806f6323e6e,4,,,,,,pencil,,,,,,,,,,,5,2,0,51,51,41,1,,,,,,,,,,,,,,,,,,,,,,,,,,,,,,,,,,,,,,,,,,,,,,,,,,,,,,,,,,,,,,,,,,,,,,,,,,,,,,,,,,,,,,,,,,,,,,
,,?,0.000845,0,,,,,,stimuli/images/PICTURE_215.png,BOYS,5b5b9fdfe36fe200014d239a,27/01/1995,2020-08-13_12h52.04.249,proactive2,2020.1.2,Win32,60,5f341be081b9052c55068110,5f35294edc7ef806f6323e6e,4,,,,,,boot,,,,,,,,,,,3,2,0,52,52,24,1,,,,,,,,,,,,,,,,,,,,,,,,,,,,,,,,,,,,,,,,,,,,,,,,,,,,,,,,,,,,,,,,,,,,,,,,,,,,,,,,,,,,,,,,,,,,,,
,,?,4.176705,0,,,,,,stimuli/images/PICTURE_2.png,AREA,5b5b9fdfe36fe200014d239a,27/01/1995,2020-08-13_12h52.04.249,proactive2,2020.1.2,Win32,60,5f341be081b9052c55068110,5f35294edc7ef806f6323e6e,4,,,,,,tyre,,,,,,,,,,,4,2,0,53,53,32,1,,,,,,,,,,,,,,,,,,,,,,,,,,,,,,,,,,,,,,,,,,,,,,,,,,,,,,,,,,,,,,,,,,,,,,,,,,,,,,,,,,,,,,,,,,,,,,
,,?,0.00125,0,,,,,,stimuli/images/PICTURE_215.png,FOOD,5b5b9fdfe36fe200014d239a,27/01/1995,2020-08-13_12h52.04.249,proactive2,2020.1.2,Win32,60,5f341be081b9052c55068110,5f35294edc7ef806f6323e6e,4,,,,,,boot,,,,,,,,,,,1,2,0,54,54,5,1,,,,,,,,,,,,,,,,,,,,,,,,,,,,,,,,,,,,,,,,,,,,,,,,,,,,,,,,,,,,,,,,,,,,,,,,,,,,,,,,,,,,,,,,,,,,,,
,,?,0.00116,0,,,,,,stimuli/images/PICTURE_708.png,VALLEY,5b5b9fdfe36fe200014d239a,27/01/1995,2020-08-13_12h52.04.249,proactive2,2020.1.2,Win32,60,5f341be081b9052c55068110,5f35294edc7ef806f6323e6e,4,,,,,,monkey,,,,,,,,,,,5,2,0,55,55,45,1,,,,,,,,,,,,,,,,,,,,,,,,,,,,,,,,,,,,,,,,,,,,,,,,,,,,,,,,,,,,,,,,,,,,,,,,,,,,,,,,,,,,,,,,,,,,,,
,,?,0.002785,0,,,,,,stimuli/images/PICTURE_296.png,CLOCK,5b5b9fdfe36fe200014d239a,27/01/1995,2020-08-13_12h52.04.249,proactive2,2020.1.2,Win32,60,5f341be081b9052c55068110,5f35294edc7ef806f6323e6e,4,,,,,,bolt,,,,,,,,,,,2,2,0,56,56,18,1,,,,,,,,,,,,,,,,,,,,,,,,,,,,,,,,,,,,,,,,,,,,,,,,,,,,,,,,,,,,,,,,,,,,,,,,,,,,,,,,,,,,,,,,,,,,,,
,,?,0.00423,0,,,,,,stimuli/images/PICTURE_2.png,JUNGLE,5b5b9fdfe36fe200014d239a,27/01/1995,2020-08-13_12h52.04.249,proactive2,2020.1.2,Win32,60,5f341be081b9052c55068110,5f35294edc7ef806f6323e6e,4,,,,,,tyre,,,,,,,,,,,1,2,0,57,57,1,1,,,,,,,,,,,,,,,,,,,,,,,,,,,,,,,,,,,,,,,,,,,,,,,,,,,,,,,,,,,,,,,,,,,,,,,,,,,,,,,,,,,,,,,,,,,,,,
,,?,0.001465,0,,,,,,stimuli/images/PICTURE_688.png,CLOCK,5b5b9fdfe36fe200014d239a,27/01/1995,2020-08-13_12h52.04.249,proactive2,2020.1.2,Win32,60,5f341be081b9052c55068110,5f35294edc7ef806f6323e6e,4,,,,,,runner,,,,,,,,,,,5,2,0,58,58,42,1,,,,,,,,,,,,,,,,,,,,,,,,,,,,,,,,,,,,,,,,,,,,,,,,,,,,,,,,,,,,,,,,,,,,,,,,,,,,,,,,,,,,,,,,,,,,,,
,,?,0.00128,0,,,,,,stimuli/images/PICTURE_255.png,PENNY,5b5b9fdfe36fe200014d239a,27/01/1995,2020-08-13_12h52.04.249,proactive2,2020.1.2,Win32,60,5f341be081b9052c55068110,5f35294edc7ef806f6323e6e,4,,,,,,shovel,,,,,,,,,,,2,2,0,59,59,19,1,,,,,,,,,,,,,,,,,,,,,,,,,,,,,,,,,,,,,,,,,,,,,,,,,,,,,,,,,,,,,,,,,,,,,,,,,,,,,,,,,,,,,,,,,,,,,,
,,,,,,,,,,,,5b5b9fdfe36fe200014d239a,27/01/1995,2020-08-13_12h52.04.249,proactive2,2020.1.2,Win32,60,5f341be081b9052c55068110,5f35294edc7ef806f6323e6e,4,,,,,,,,,,,,,,,,,,,,,,,,0,0,0,2,1,stimuli/learn-block3.csv,,,,,,,,,,,,,,,,,,,,,,,,,,,,,,,,,,,,,,,,,,,,,,,,,,,,,,,,,,,,,,,,,,,,,,,,,,,,,,,,,,,,,,,,
,,,,,,,,,,stimuli/images/PICTURE_255.png,AREA,5b5b9fdfe36fe200014d239a,27/01/1995,2020-08-13_12h52.04.249,proactive2,2020.1.2,Win32,60,5f341be081b9052c55068110,5f35294edc7ef806f6323e6e,4,,,,,,shovel,,,,,,0,0,0,22,1,3,0,,,,,,,,,,,,,,,,,,,,,,,,,,,,,,,,,,,,,,,,,,,,,,,,,,,,,,,,,,,,,,,,,,,,,,,,,,,,,,,,,,,,,,,,,,,,,,,,,,,
,,,,,,,,,,stimuli/images/PICTURE_380.png,PHOTO,5b5b9fdfe36fe200014d239a,27/01/1995,2020-08-13_12h52.04.249,proactive2,2020.1.2,Win32,60,5f341be081b9052c55068110,5f35294edc7ef806f6323e6e,4,,,,,,gorilla,,,,,,0,1,1,52,1,6,0,,,,,,,,,,,,,,,,,,,,,,,,,,,,,,,,,,,,,,,,,,,,,,,,,,,,,,,,,,,,,,,,,,,,,,,,,,,,,,,,,,,,,,,,,,,,,,,,,,,
,,,,,,,,,,stimuli/images/PICTURE_453.png,DUDE,5b5b9fdfe36fe200014d239a,27/01/1995,2020-08-13_12h52.04.249,proactive2,2020.1.2,Win32,60,5f341be081b9052c55068110,5f35294edc7ef806f6323e6e,4,,,,,,scissors,,,,,,0,2,2,27,1,3,0,,,,,,,,,,,,,,,,,,,,,,,,,,,,,,,,,,,,,,,,,,,,,,,,,,,,,,,,,,,,,,,,,,,,,,,,,,,,,,,,,,,,,,,,,,,,,,,,,,,
,,,,,,,,,,stimuli/images/PICTURE_208.png,LOTS,5b5b9fdfe36fe200014d239a,27/01/1995,2020-08-13_12h52.04.249,proactive2,2020.1.2,Win32,60,5f341be081b9052c55068110,5f35294edc7ef806f6323e6e,4,,,,,,microphone,,,,,,0,3,3,10,1,2,0,,,,,,,,,,,,,,,,,,,,,,,,,,,,,,,,,,,,,,,,,,,,,,,,,,,,,,,,,,,,,,,,,,,,,,,,,,,,,,,,,,,,,,,,,,,,,,,,,,,
,,,,,,,,,,stimuli/images/PICTURE_311.png,BEAUTY,5b5b9fdfe36fe200014d239a,27/01/1995,2020-08-13_12h52.04.249,proactive2,2020.1.2,Win32,60,5f341be081b9052c55068110,5f35294edc7ef806f6323e6e,4,,,,,,razor,,,,,,0,4,4,13,1,2,0,,,,,,,,,,,,,,,,,,,,,,,,,,,,,,,,,,,,,,,,,,,,,,,,,,,,,,,,,,,,,,,,,,,,,,,,,,,,,,,,,,,,,,,,,,,,,,,,,,,
,,,,,,,,,,stimuli/images/PICTURE_285.png,ADVICE,5b5b9fdfe36fe200014d239a,27/01/1995,2020-08-13_12h52.04.249,proactive2,2020.1.2,Win32,60,5f341be081b9052c55068110,5f35294edc7ef806f6323e6e,4,,,,,,carrot,,,,,,0,5,5,12,1,2,0,,,,,,,,,,,,,,,,,,,,,,,,,,,,,,,,,,,,,,,,,,,,,,,,,,,,,,,,,,,,,,,,,,,,,,,,,,,,,,,,,,,,,,,,,,,,,,,,,,,
,,,,,,,,,,stimuli/images/PICTURE_339.png,PLENTY,5b5b9fdfe36fe200014d239a,27/01/1995,2020-08-13_12h52.04.249,proactive2,2020.1.2,Win32,60,5f341be081b9052c55068110,5f35294edc7ef806f6323e6e,4,,,,,,backpack,,,,,,0,6,6,0,1,1,0,,,,,,,,,,,,,,,,,,,,,,,,,,,,,,,,,,,,,,,,,,,,,,,,,,,,,,,,,,,,,,,,,,,,,,,,,,,,,,,,,,,,,,,,,,,,,,,,,,,
,,,,,,,,,,stimuli/images/PICTURE_177.png,CARS,5b5b9fdfe36fe200014d239a,27/01/1995,2020-08-13_12h52.04.249,proactive2,2020.1.2,Win32,60,5f341be081b9052c55068110,5f35294edc7ef806f6323e6e,4,,,,,,mushroom,,,,,,0,7,7,35,1,4,0,,,,,,,,,,,,,,,,,,,,,,,,,,,,,,,,,,,,,,,,,,,,,,,,,,,,,,,,,,,,,,,,,,,,,,,,,,,,,,,,,,,,,,,,,,,,,,,,,,,
,,,,,,,,,,stimuli/images/PICTURE_32.png,JUNGLE,5b5b9fdfe36fe200014d239a,27/01/1995,2020-08-13_12h52.04.249,proactive2,2020.1.2,Win32,60,5f341be081b9052c55068110,5f35294edc7ef806f6323e6e,4,,,,,,crown,,,,,,0,8,8,45,1,5,0,,,,,,,,,,,,,,,,,,,,,,,,,,,,,,,,,,,,,,,,,,,,,,,,,,,,,,,,,,,,,,,,,,,,,,,,,,,,,,,,,,,,,,,,,,,,,,,,,,,
,,,,,,,,,,stimuli/images/PICTURE_470.png,CASINO,5b5b9fdfe36fe200014d239a,27/01/1995,2020-08-13_12h52.04.249,proactive2,2020.1.2,Win32,60,5f341be081b9052c55068110,5f35294edc7ef806f6323e6e,4,,,,,,motorbike,,,,,,0,9,9,36,1,4,0,,,,,,,,,,,,,,,,,,,,,,,,,,,,,,,,,,,,,,,,,,,,,,,,,,,,,,,,,,,,,,,,,,,,,,,,,,,,,,,,,,,,,,,,,,,,,,,,,,,
,,,,,,,,,,stimuli/images/PICTURE_469.png,LETTER,5b5b9fdfe36fe200014d239a,27/01/1995,2020-08-13_12h52.04.249,proactive2,2020.1.2,Win32,60,5f341be081b9052c55068110,5f35294edc7ef806f6323e6e,4,,,,,,stool,,,,,,0,10,10,42,1,5,0,,,,,,,,,,,,,,,,,,,,,,,,,,,,,,,,,,,,,,,,,,,,,,,,,,,,,,,,,,,,,,,,,,,,,,,,,,,,,,,,,,,,,,,,,,,,,,,,,,,
,,,,,,,,,,stimuli/images/PICTURE_509.png,PHOTO,5b5b9fdfe36fe200014d239a,27/01/1995,2020-08-13_12h52.04.249,proactive2,2020.1.2,Win32,60,5f341be081b9052c55068110,5f35294edc7ef806f6323e6e,4,,,,,,telephone,,,,,,0,11,11,21,1,3,0,,,,,,,,,,,,,,,,,,,,,,,,,,,,,,,,,,,,,,,,,,,,,,,,,,,,,,,,,,,,,,,,,,,,,,,,,,,,,,,,,,,,,,,,,,,,,,,,,,,
,,,,,,,,,,stimuli/images/PICTURE_491.png,WRITER,5b5b9fdfe36fe200014d239a,27/01/1995,2020-08-13_12h52.04.249,proactive2,2020.1.2,Win32,60,5f341be081b9052c55068110,5f35294edc7ef806f6323e6e,4,,,,,,rug,,,,,,0,12,12,57,1,6,0,,,,,,,,,,,,,,,,,,,,,,,,,,,,,,,,,,,,,,,,,,,,,,,,,,,,,,,,,,,,,,,,,,,,,,,,,,,,,,,,,,,,,,,,,,,,,,,,,,,
,,,,,,,,,,stimuli/images/PICTURE_68.png,MILE,5b5b9fdfe36fe200014d239a,27/01/1995,2020-08-13_12h52.04.249,proactive2,2020.1.2,Win32,60,5f341be081b9052c55068110,5f35294edc7ef806f6323e6e,4,,,,,,candle,,,,,,0,13,13,44,1,5,0,,,,,,,,,,,,,,,,,,,,,,,,,,,,,,,,,,,,,,,,,,,,,,,,,,,,,,,,,,,,,,,,,,,,,,,,,,,,,,,,,,,,,,,,,,,,,,,,,,,
,,,,,,,,,,stimuli/images/PICTURE_314.png,SAKE,5b5b9fdfe36fe200014d239a,27/01/1995,2020-08-13_12h52.04.249,proactive2,2020.1.2,Win32,60,5f341be081b9052c55068110,5f35294edc7ef806f6323e6e,4,,,,,,perfume,,,,,,0,14,14,7,1,1,0,,,,,,,,,,,,,,,,,,,,,,,,,,,,,,,,,,,,,,,,,,,,,,,,,,,,,,,,,,,,,,,,,,,,,,,,,,,,,,,,,,,,,,,,,,,,,,,,,,,
,,,,,,,,,,stimuli/images/PICTURE_233.png,IDEAS,5b5b9fdfe36fe200014d239a,27/01/1995,2020-08-13_12h52.04.249,proactive2,2020.1.2,Win32,60,5f341be081b9052c55068110,5f35294edc7ef806f6323e6e,4,,,,,,salt,,,,,,0,15,15,28,1,3,0,,,,,,,,,,,,,,,,,,,,,,,,,,,,,,,,,,,,,,,,,,,,,,,,,,,,,,,,,,,,,,,,,,,,,,,,,,,,,,,,,,,,,,,,,,,,,,,,,,,
,,,,,,,,,,stimuli/images/PICTURE_491.png,ROOF,5b5b9fdfe36fe200014d239a,27/01/1995,2020-08-13_12h52.04.249,proactive2,2020.1.2,Win32,60,5f341be081b9052c55068110,5f35294edc7ef806f6323e6e,4,,,,,,rug,,,,,,0,16,16,24,1,3,0,,,,,,,,,,,,,,,,,,,,,,,,,,,,,,,,,,,,,,,,,,,,,,,,,,,,,,,,,,,,,,,,,,,,,,,,,,,,,,,,,,,,,,,,,,,,,,,,,,,
,,,,,,,,,,stimuli/images/PICTURE_654.png,VALLEY,5b5b9fdfe36fe200014d239a,27/01/1995,2020-08-13_12h52.04.249,proactive2,2020.1.2,Win32,60,5f341be081b9052c55068110,5f35294edc7ef806f6323e6e,4,,,,,,pencil,,,,,,0,17,17,1,1,1,0,,,,,,,,,,,,,,,,,,,,,,,,,,,,,,,,,,,,,,,,,,,,,,,,,,,,,,,,,,,,,,,,,,,,,,,,,,,,,,,,,,,,,,,,,,,,,,,,,,,
,,,,,,,,,,stimuli/images/PICTURE_123.png,ADVICE,5b5b9fdfe36fe200014d239a,27/01/1995,2020-08-13_12h52.04.249,proactive2,2020.1.2,Win32,60,5f341be081b9052c55068110,5f35294edc7ef806f6323e6e,4,,,,,,dart,,,,,,0,18,18,40,1,5,0,,,,,,,,,,,,,,,,,,,,,,,,,,,,,,,,,,,,,,,,,,,,,,,,,,,,,,,,,,,,,,,,,,,,,,,,,,,,,,,,,,,,,,,,,,,,,,,,,,,
,,,,,,,,,,stimuli/images/PICTURE_469.png,ARTIST,5b5b9fdfe36fe200014d239a,27/01/1995,2020-08-13_12h52.04.249,proactive2,2020.1.2,Win32,60,5f341be081b9052c55068110,5f35294edc7ef806f6323e6e,4,,,,,,stool,,,,,,0,19,19,6,1,1,0,,,,,,,,,,,,,,,,,,,,,,,,,,,,,,,,,,,,,,,,,,,,,,,,,,,,,,,,,,,,,,,,,,,,,,,,,,,,,,,,,,,,,,,,,,,,,,,,,,,
,,,,,,,,,,stimuli/images/PICTURE_688.png,WOMEN,5b5b9fdfe36fe200014d239a,27/01/1995,2020-08-13_12h52.04.249,proactive2,2020.1.2,Win32,60,5f341be081b9052c55068110,5f35294edc7ef806f6323e6e,4,,,,,,runner,,,,,,0,20,20,14,1,2,0,,,,,,,,,,,,,,,,,,,,,,,,,,,,,,,,,,,,,,,,,,,,,,,,,,,,,,,,,,,,,,,,,,,,,,,,,,,,,,,,,,,,,,,,,,,,,,,,,,,
,,,,,,,,,,stimuli/images/PICTURE_208.png,THING,5b5b9fdfe36fe200014d239a,27/01/1995,2020-08-13_12h52.04.249,proactive2,2020.1.2,Win32,60,5f341be081b9052c55068110,5f35294edc7ef806f6323e6e,4,,,,,,microphone,,,,,,0,21,21,47,1,5,0,,,,,,,,,,,,,,,,,,,,,,,,,,,,,,,,,,,,,,,,,,,,,,,,,,,,,,,,,,,,,,,,,,,,,,,,,,,,,,,,,,,,,,,,,,,,,,,,,,,
,,,,,,,,,,stimuli/images/PICTURE_667.png,BATH,5b5b9fdfe36fe200014d239a,27/01/1995,2020-08-13_12h52.04.249,proactive2,2020.1.2,Win32,60,5f341be081b9052c55068110,5f35294edc7ef806f6323e6e,4,,,,,,daisy,,,,,,0,22,22,4,1,1,0,,,,,,,,,,,,,,,,,,,,,,,,,,,,,,,,,,,,,,,,,,,,,,,,,,,,,,,,,,,,,,,,,,,,,,,,,,,,,,,,,,,,,,,,,,,,,,,,,,,
,,,,,,,,,,stimuli/images/PICTURE_488.png,STYLE,5b5b9fdfe36fe200014d239a,27/01/1995,2020-08-13_12h52.04.249,proactive2,2020.1.2,Win32,60,5f341be081b9052c55068110,5f35294edc7ef806f6323e6e,4,,,,,,sun,,,,,,0,23,23,33,1,4,0,,,,,,,,,,,,,,,,,,,,,,,,,,,,,,,,,,,,,,,,,,,,,,,,,,,,,,,,,,,,,,,,,,,,,,,,,,,,,,,,,,,,,,,,,,,,,,,,,,,
,,,,,,,,,,stimuli/images/PICTURE_85.png,THING,5b5b9fdfe36fe200014d239a,27/01/1995,2020-08-13_12h52.04.249,proactive2,2020.1.2,Win32,60,5f341be081b9052c55068110,5f35294edc7ef806f6323e6e,4,,,,,,diamond,,,,,,0,24,24,15,1,2,0,,,,,,,,,,,,,,,,,,,,,,,,,,,,,,,,,,,,,,,,,,,,,,,,,,,,,,,,,,,,,,,,,,,,,,,,,,,,,,,,,,,,,,,,,,,,,,,,,,,
,,,,,,,,,,stimuli/images/PICTURE_308.png,ESTATE,5b5b9fdfe36fe200014d239a,27/01/1995,2020-08-13_12h52.04.249,proactive2,2020.1.2,Win32,60,5f341be081b9052c55068110,5f35294edc7ef806f6323e6e,4,,,,,,dice,,,,,,0,25,25,46,1,5,0,,,,,,,,,,,,,,,,,,,,,,,,,,,,,,,,,,,,,,,,,,,,,,,,,,,,,,,,,,,,,,,,,,,,,,,,,,,,,,,,,,,,,,,,,,,,,,,,,,,
,,,,,,,,,,stimuli/images/PICTURE_348.png,SPEECH,5b5b9fdfe36fe200014d239a,27/01/1995,2020-08-13_12h52.04.249,proactive2,2020.1.2,Win32,60,5f341be081b9052c55068110,5f35294edc7ef806f6323e6e,4,,,,,,pepper,,,,,,0,26,26,20,1,3,0,,,,,,,,,,,,,,,,,,,,,,,,,,,,,,,,,,,,,,,,,,,,,,,,,,,,,,,,,,,,,,,,,,,,,,,,,,,,,,,,,,,,,,,,,,,,,,,,,,,
,,,,,,,,,,stimuli/images/PICTURE_160.png,FEET,5b5b9fdfe36fe200014d239a,27/01/1995,2020-08-13_12h52.04.249,proactive2,2020.1.2,Win32,60,5f341be081b9052c55068110,5f35294edc7ef806f6323e6e,4,,,,,,wheelbarrow,,,,,,0,27,27,58,1,6,0,,,,,,,,,,,,,,,,,,,,,,,,,,,,,,,,,,,,,,,,,,,,,,,,,,,,,,,,,,,,,,,,,,,,,,,,,,,,,,,,,,,,,,,,,,,,,,,,,,,
,,,,,,,,,,stimuli/images/PICTURE_123.png,ADVICE,5b5b9fdfe36fe200014d239a,27/01/1995,2020-08-13_12h52.04.249,proactive2,2020.1.2,Win32,60,5f341be081b9052c55068110,5f35294edc7ef806f6323e6e,4,,,,,,dart,,,,,,0,28,28,50,1,6,0,,,,,,,,,,,,,,,,,,,,,,,,,,,,,,,,,,,,,,,,,,,,,,,,,,,,,,,,,,,,,,,,,,,,,,,,,,,,,,,,,,,,,,,,,,,,,,,,,,,
,,,,,,,,,,stimuli/images/PICTURE_147.png,MOMENT,5b5b9fdfe36fe200014d239a,27/01/1995,2020-08-13_12h52.04.249,proactive2,2020.1.2,Win32,60,5f341be081b9052c55068110,5f35294edc7ef806f6323e6e,4,,,,,,hanger,,,,,,0,29,29,51,1,6,0,,,,,,,,,,,,,,,,,,,,,,,,,,,,,,,,,,,,,,,,,,,,,,,,,,,,,,,,,,,,,,,,,,,,,,,,,,,,,,,,,,,,,,,,,,,,,,,,,,,
,,,,,,,,,,stimuli/images/PICTURE_356.png,DANGER,5b5b9fdfe36fe200014d239a,27/01/1995,2020-08-13_12h52.04.249,proactive2,2020.1.2,Win32,60,5f341be081b9052c55068110,5f35294edc7ef806f6323e6e,4,,,,,,pawn,,,,,,0,30,30,55,1,6,0,,,,,,,,,,,,,,,,,,,,,,,,,,,,,,,,,,,,,,,,,,,,,,,,,,,,,,,,,,,,,,,,,,,,,,,,,,,,,,,,,,,,,,,,,,,,,,,,,,,
,,,,,,,,,,stimuli/images/PICTURE_708.png,PENNY,5b5b9fdfe36fe200014d239a,27/01/1995,2020-08-13_12h52.04.249,proactive2,2020.1.2,Win32,60,5f341be081b9052c55068110,5f35294edc7ef806f6323e6e,4,,,,,,monkey,,,,,,0,31,31,31,1,4,0,,,,,,,,,,,,,,,,,,,,,,,,,,,,,,,,,,,,,,,,,,,,,,,,,,,,,,,,,,,,,,,,,,,,,,,,,,,,,,,,,,,,,,,,,,,,,,,,,,,
,,,,,,,,,,stimuli/images/PICTURE_688.png,CASINO,5b5b9fdfe36fe200014d239a,27/01/1995,2020-08-13_12h52.04.249,proactive2,2020.1.2,Win32,60,5f341be081b9052c55068110,5f35294edc7ef806f6323e6e,4,,,,,,runner,,,,,,0,32,32,2,1,1,0,,,,,,,,,,,,,,,,,,,,,,,,,,,,,,,,,,,,,,,,,,,,,,,,,,,,,,,,,,,,,,,,,,,,,,,,,,,,,,,,,,,,,,,,,,,,,,,,,,,
,,,,,,,,,,stimuli/images/PICTURE_308.png,KIND,5b5b9fdfe36fe200014d239a,27/01/1995,2020-08-13_12h52.04.249,proactive2,2020.1.2,Win32,60,5f341be081b9052c55068110,5f35294edc7ef806f6323e6e,4,,,,,,dice,,,,,,0,33,33,54,1,6,0,,,,,,,,,,,,,,,,,,,,,,,,,,,,,,,,,,,,,,,,,,,,,,,,,,,,,,,,,,,,,,,,,,,,,,,,,,,,,,,,,,,,,,,,,,,,,,,,,,,
,,,,,,,,,,stimuli/images/PICTURE_744.png,SAKE,5b5b9fdfe36fe200014d239a,27/01/1995,2020-08-13_12h52.04.249,proactive2,2020.1.2,Win32,60,5f341be081b9052c55068110,5f35294edc7ef806f6323e6e,4,,,,,,ring,,,,,,0,34,34,17,1,2,0,,,,,,,,,,,,,,,,,,,,,,,,,,,,,,,,,,,,,,,,,,,,,,,,,,,,,,,,,,,,,,,,,,,,,,,,,,,,,,,,,,,,,,,,,,,,,,,,,,,
,,,,,,,,,,stimuli/images/PICTURE_208.png,MONTH,5b5b9fdfe36fe200014d239a,27/01/1995,2020-08-13_12h52.04.249,proactive2,2020.1.2,Win32,60,5f341be081b9052c55068110,5f35294edc7ef806f6323e6e,4,,,,,,microphone,,,,,,0,35,35,53,1,6,0,,,,,,,,,,,,,,,,,,,,,,,,,,,,,,,,,,,,,,,,,,,,,,,,,,,,,,,,,,,,,,,,,,,,,,,,,,,,,,,,,,,,,,,,,,,,,,,,,,,
,,,,,,,,,,stimuli/images/PICTURE_380.png,DEATH,5b5b9fdfe36fe200014d239a,27/01/1995,2020-08-13_12h52.04.249,proactive2,2020.1.2,Win32,60,5f341be081b9052c55068110,5f35294edc7ef806f6323e6e,4,,,,,,gorilla,,,,,,0,36,36,49,1,5,0,,,,,,,,,,,,,,,,,,,,,,,,,,,,,,,,,,,,,,,,,,,,,,,,,,,,,,,,,,,,,,,,,,,,,,,,,,,,,,,,,,,,,,,,,,,,,,,,,,,
,,,,,,,,,,stimuli/images/PICTURE_151.png,GIRL,5b5b9fdfe36fe200014d239a,27/01/1995,2020-08-13_12h52.04.249,proactive2,2020.1.2,Win32,60,5f341be081b9052c55068110,5f35294edc7ef806f6323e6e,4,,,,,,tray,,,,,,0,37,37,19,1,2,0,,,,,,,,,,,,,,,,,,,,,,,,,,,,,,,,,,,,,,,,,,,,,,,,,,,,,,,,,,,,,,,,,,,,,,,,,,,,,,,,,,,,,,,,,,,,,,,,,,,
,,,,,,,,,,stimuli/images/PICTURE_314.png,GODS,5b5b9fdfe36fe200014d239a,27/01/1995,2020-08-13_12h52.04.249,proactive2,2020.1.2,Win32,60,5f341be081b9052c55068110,5f35294edc7ef806f6323e6e,4,,,,,,perfume,,,,,,0,38,38,11,1,2,0,,,,,,,,,,,,,,,,,,,,,,,,,,,,,,,,,,,,,,,,,,,,,,,,,,,,,,,,,,,,,,,,,,,,,,,,,,,,,,,,,,,,,,,,,,,,,,,,,,,
,,,,,,,,,,stimuli/images/PICTURE_667.png,PLENTY,5b5b9fdfe36fe200014d239a,27/01/1995,2020-08-13_12h52.04.249,proactive2,2020.1.2,Win32,60,5f341be081b9052c55068110,5f35294edc7ef806f6323e6e,4,,,,,,daisy,,,,,,0,39,39,41,1,5,0,,,,,,,,,,,,,,,,,,,,,,,,,,,,,,,,,,,,,,,,,,,,,,,,,,,,,,,,,,,,,,,,,,,,,,,,,,,,,,,,,,,,,,,,,,,,,,,,,,,
,,,,,,,,,,stimuli/images/PICTURE_677.png,MILE,5b5b9fdfe36fe200014d239a,27/01/1995,2020-08-13_12h52.04.249,proactive2,2020.1.2,Win32,60,5f341be081b9052c55068110,5f35294edc7ef806f6323e6e,4,,,,,,map,,,,,,0,40,40,30,1,4,0,,,,,,,,,,,,,,,,,,,,,,,,,,,,,,,,,,,,,,,,,,,,,,,,,,,,,,,,,,,,,,,,,,,,,,,,,,,,,,,,,,,,,,,,,,,,,,,,,,,
,,,,,,,,,,stimuli/images/PICTURE_215.png,PLENTY,5b5b9fdfe36fe200014d239a,27/01/1995,2020-08-13_12h52.04.249,proactive2,2020.1.2,Win32,60,5f341be081b9052c55068110,5f35294edc7ef806f6323e6e,4,,,,,,boot,,,,,,0,41,41,37,1,4,0,,,,,,,,,,,,,,,,,,,,,,,,,,,,,,,,,,,,,,,,,,,,,,,,,,,,,,,,,,,,,,,,,,,,,,,,,,,,,,,,,,,,,,,,,,,,,,,,,,,
,,,,,,,,,,stimuli/images/PICTURE_327.png,BEAUTY,5b5b9fdfe36fe200014d239a,27/01/1995,2020-08-13_12h52.04.249,proactive2,2020.1.2,Win32,60,5f341be081b9052c55068110,5f35294edc7ef806f6323e6e,4,,,,,,helmet,,,,,,0,42,42,48,1,5,0,,,,,,,,,,,,,,,,,,,,,,,,,,,,,,,,,,,,,,,,,,,,,,,,,,,,,,,,,,,,,,,,,,,,,,,,,,,,,,,,,,,,,,,,,,,,,,,,,,,
,,,,,,,,,,stimuli/images/PICTURE_233.png,WOMEN,5b5b9fdfe36fe200014d239a,27/01/1995,2020-08-13_12h52.04.249,proactive2,2020.1.2,Win32,60,5f341be081b9052c55068110,5f35294edc7ef806f6323e6e,4,,,,,,salt,,,,,,0,43,43,38,1,4,0,,,,,,,,,,,,,,,,,,,,,,,,,,,,,,,,,,,,,,,,,,,,,,,,,,,,,,,,,,,,,,,,,,,,,,,,,,,,,,,,,,,,,,,,,,,,,,,,,,,
,,,,,,,,,,stimuli/images/PICTURE_504.png,BODY,5b5b9fdfe36fe200014d239a,27/01/1995,2020-08-13_12h52.04.249,proactive2,2020.1.2,Win32,60,5f341be081b9052c55068110,5f35294edc7ef806f6323e6e,4,,,,,,wheel,,,,,,0,44,44,8,1,1,0,,,,,,,,,,,,,,,,,,,,,,,,,,,,,,,,,,,,,,,,,,,,,,,,,,,,,,,,,,,,,,,,,,,,,,,,,,,,,,,,,,,,,,,,,,,,,,,,,,,
,,,,,,,,,,stimuli/images/PICTURE_675.png,WEAPON,5b5b9fdfe36fe200014d239a,27/01/1995,2020-08-13_12h52.04.249,proactive2,2020.1.2,Win32,60,5f341be081b9052c55068110,5f35294edc7ef806f6323e6e,4,,,,,,windmill,,,,,,0,45,45,32,1,4,0,,,,,,,,,,,,,,,,,,,,,,,,,,,,,,,,,,,,,,,,,,,,,,,,,,,,,,,,,,,,,,,,,,,,,,,,,,,,,,,,,,,,,,,,,,,,,,,,,,,
,,,,,,,,,,stimuli/images/PICTURE_453.png,PLENTY,5b5b9fdfe36fe200014d239a,27/01/1995,2020-08-13_12h52.04.249,proactive2,2020.1.2,Win32,60,5f341be081b9052c55068110,5f35294edc7ef806f6323e6e,4,,,,,,scissors,,,,,,0,46,46,56,1,6,0,,,,,,,,,,,,,,,,,,,,,,,,,,,,,,,,,,,,,,,,,,,,,,,,,,,,,,,,,,,,,,,,,,,,,,,,,,,,,,,,,,,,,,,,,,,,,,,,,,,
,,,,,,,,,,stimuli/images/PICTURE_467.png,DEMON,5b5b9fdfe36fe200014d239a,27/01/1995,2020-08-13_12h52.04.249,proactive2,2020.1.2,Win32,60,5f341be081b9052c55068110,5f35294edc7ef806f6323e6e,4,,,,,,peg,,,,,,0,47,47,23,1,3,0,,,,,,,,,,,,,,,,,,,,,,,,,,,,,,,,,,,,,,,,,,,,,,,,,,,,,,,,,,,,,,,,,,,,,,,,,,,,,,,,,,,,,,,,,,,,,,,,,,,
,,,,,,,,,,stimuli/images/PICTURE_692.png,MONTH,5b5b9fdfe36fe200014d239a,27/01/1995,2020-08-13_12h52.04.249,proactive2,2020.1.2,Win32,60,5f341be081b9052c55068110,5f35294edc7ef806f6323e6e,4,,,,,,cherry,,,,,,0,48,48,16,1,2,0,,,,,,,,,,,,,,,,,,,,,,,,,,,,,,,,,,,,,,,,,,,,,,,,,,,,,,,,,,,,,,,,,,,,,,,,,,,,,,,,,,,,,,,,,,,,,,,,,,,
,,,,,,,,,,stimuli/images/PICTURE_708.png,CLIENT,5b5b9fdfe36fe200014d239a,27/01/1995,2020-08-13_12h52.04.249,proactive2,2020.1.2,Win32,60,5f341be081b9052c55068110,5f35294edc7ef806f6323e6e,4,,,,,,monkey,,,,,,0,49,49,5,1,1,0,,,,,,,,,,,,,,,,,,,,,,,,,,,,,,,,,,,,,,,,,,,,,,,,,,,,,,,,,,,,,,,,,,,,,,,,,,,,,,,,,,,,,,,,,,,,,,,,,,,
,,,,,,,,,,stimuli/images/PICTURE_708.png,YARD,5b5b9fdfe36fe200014d239a,27/01/1995,2020-08-13_12h52.04.249,proactive2,2020.1.2,Win32,60,5f341be081b9052c55068110,5f35294edc7ef806f6323e6e,4,,,,,,monkey,,,,,,0,50,50,29,1,3,0,,,,,,,,,,,,,,,,,,,,,,,,,,,,,,,,,,,,,,,,,,,,,,,,,,,,,,,,,,,,,,,,,,,,,,,,,,,,,,,,,,,,,,,,,,,,,,,,,,,
,,,,,,,,,,stimuli/images/PICTURE_487.png,FLIGHT,5b5b9fdfe36fe200014d239a,27/01/1995,2020-08-13_12h52.04.249,proactive2,2020.1.2,Win32,60,5f341be081b9052c55068110,5f35294edc7ef806f6323e6e,4,,,,,,basket,,,,,,0,51,51,9,1,1,0,,,,,,,,,,,,,,,,,,,,,,,,,,,,,,,,,,,,,,,,,,,,,,,,,,,,,,,,,,,,,,,,,,,,,,,,,,,,,,,,,,,,,,,,,,,,,,,,,,,
,,,,,,,,,,stimuli/images/PICTURE_160.png,LEADER,5b5b9fdfe36fe200014d239a,27/01/1995,2020-08-13_12h52.04.249,proactive2,2020.1.2,Win32,60,5f341be081b9052c55068110,5f35294edc7ef806f6323e6e,4,,,,,,wheelbarrow,,,,,,0,52,52,3,1,1,0,,,,,,,,,,,,,,,,,,,,,,,,,,,,,,,,,,,,,,,,,,,,,,,,,,,,,,,,,,,,,,,,,,,,,,,,,,,,,,,,,,,,,,,,,,,,,,,,,,,
,,,,,,,,,,stimuli/images/PICTURE_203.png,ARTIST,5b5b9fdfe36fe200014d239a,27/01/1995,2020-08-13_12h52.04.249,proactive2,2020.1.2,Win32,60,5f341be081b9052c55068110,5f35294edc7ef806f6323e6e,4,,,,,,cap,,,,,,0,53,53,26,1,3,0,,,,,,,,,,,,,,,,,,,,,,,,,,,,,,,,,,,,,,,,,,,,,,,,,,,,,,,,,,,,,,,,,,,,,,,,,,,,,,,,,,,,,,,,,,,,,,,,,,,
,,,,,,,,,,stimuli/images/PICTURE_744.png,SYSTEM,5b5b9fdfe36fe200014d239a,27/01/1995,2020-08-13_12h52.04.249,proactive2,2020.1.2,Win32,60,5f341be081b9052c55068110,5f35294edc7ef806f6323e6e,4,,,,,,ring,,,,,,0,54,54,43,1,5,0,,,,,,,,,,,,,,,,,,,,,,,,,,,,,,,,,,,,,,,,,,,,,,,,,,,,,,,,,,,,,,,,,,,,,,,,,,,,,,,,,,,,,,,,,,,,,,,,,,,
,,,,,,,,,,stimuli/images/PICTURE_302.png,FAMILY,5b5b9fdfe36fe200014d239a,27/01/1995,2020-08-13_12h52.04.249,proactive2,2020.1.2,Win32,60,5f341be081b9052c55068110,5f35294edc7ef806f6323e6e,4,,,,,,taxi,,,,,,0,55,55,18,1,2,0,,,,,,,,,,,,,,,,,,,,,,,,,,,,,,,,,,,,,,,,,,,,,,,,,,,,,,,,,,,,,,,,,,,,,,,,,,,,,,,,,,,,,,,,,,,,,,,,,,,
,,,,,,,,,,stimuli/images/PICTURE_248.png,DOZEN,5b5b9fdfe36fe200014d239a,27/01/1995,2020-08-13_12h52.04.249,proactive2,2020.1.2,Win32,60,5f341be081b9052c55068110,5f35294edc7ef806f6323e6e,4,,,,,,cart,,,,,,0,56,56,39,1,4,0,,,,,,,,,,,,,,,,,,,,,,,,,,,,,,,,,,,,,,,,,,,,,,,,,,,,,,,,,,,,,,,,,,,,,,,,,,,,,,,,,,,,,,,,,,,,,,,,,,,
,,,,,,,,,,stimuli/images/PICTURE_95.png,STYLE,5b5b9fdfe36fe200014d239a,27/01/1995,2020-08-13_12h52.04.249,proactive2,2020.1.2,Win32,60,5f341be081b9052c55068110,5f35294edc7ef806f6323e6e,4,,,,,,suitcase,,,,,,0,57,57,25,1,3,0,,,,,,,,,,,,,,,,,,,,,,,,,,,,,,,,,,,,,,,,,,,,,,,,,,,,,,,,,,,,,,,,,,,,,,,,,,,,,,,,,,,,,,,,,,,,,,,,,,,
,,,,,,,,,,stimuli/images/PICTURE_311.png,FRIEND,5b5b9fdfe36fe200014d239a,27/01/1995,2020-08-13_12h52.04.249,proactive2,2020.1.2,Win32,60,5f341be081b9052c55068110,5f35294edc7ef806f6323e6e,4,,,,,,razor,,,,,,0,58,58,34,1,4,0,,,,,,,,,,,,,,,,,,,,,,,,,,,,,,,,,,,,,,,,,,,,,,,,,,,,,,,,,,,,,,,,,,,,,,,,,,,,,,,,,,,,,,,,,,,,,,,,,,,
,,?,0.001325,0,,,,,,stimuli/images/PICTURE_469.png,LETTER,5b5b9fdfe36fe200014d239a,27/01/1995,2020-08-13_12h52.04.249,proactive2,2020.1.2,Win32,60,5f341be081b9052c55068110,5f35294edc7ef806f6323e6e,4,,,,,,stool,,,,,,,,,,,5,0,0,0,0,42,1,,,,,,,,,,,,,,,,,,,,,,,,,,,,,,,,,,,,,,,,,,,,,,,,,,,,,,,,,,,,,,,,,,,,,,,,,,,,,,,,,,,,,,,,,,,,,,
,,MILE,4.077925,1,,,,,,stimuli/images/PICTURE_677.png,MILE,5b5b9fdfe36fe200014d239a,27/01/1995,2020-08-13_12h52.04.249,proactive2,2020.1.2,Win32,60,5f341be081b9052c55068110,5f35294edc7ef806f6323e6e,4,,,,,,map,,,,,,,,,,,4,0,0,1,1,30,1,,,,,,,,,,,,,,,,,,,,,,,,,,,,,,,,,,,,,,,,,,,,,,,,,,,,,,,,,,,,,,,,,,,,,,,,,,,,,,,,,,,,,,,,,,,,,,
,,?,0.002055,0,,,,,,stimuli/images/PICTURE_308.png,ESTATE,5b5b9fdfe36fe200014d239a,27/01/1995,2020-08-13_12h52.04.249,proactive2,2020.1.2,Win32,60,5f341be081b9052c55068110,5f35294edc7ef806f6323e6e,4,,,,,,dice,,,,,,,,,,,5,0,0,2,2,46,1,,,,,,,,,,,,,,,,,,,,,,,,,,,,,,,,,,,,,,,,,,,,,,,,,,,,,,,,,,,,,,,,,,,,,,,,,,,,,,,,,,,,,,,,,,,,,,
,,?,0.00153,0,,,,,,stimuli/images/PICTURE_380.png,PHOTO,5b5b9fdfe36fe200014d239a,27/01/1995,2020-08-13_12h52.04.249,proactive2,2020.1.2,Win32,60,5f341be081b9052c55068110,5f35294edc7ef806f6323e6e,4,,,,,,gorilla,,,,,,,,,,,6,0,0,3,3,52,1,,,,,,,,,,,,,,,,,,,,,,,,,,,,,,,,,,,,,,,,,,,,,,,,,,,,,,,,,,,,,,,,,,,,,,,,,,,,,,,,,,,,,,,,,,,,,,
,,?,0.001525,0,,,,,,stimuli/images/PICTURE_314.png,GODS,5b5b9fdfe36fe200014d239a,27/01/1995,2020-08-13_12h52.04.249,proactive2,2020.1.2,Win32,60,5f341be081b9052c55068110,5f35294edc7ef806f6323e6e,4,,,,,,perfume,,,,,,,,,,,2,0,0,4,4,11,1,,,,,,,,,,,,,,,,,,,,,,,,,,,,,,,,,,,,,,,,,,,,,,,,,,,,,,,,,,,,,,,,,,,,,,,,,,,,,,,,,,,,,,,,,,,,,,
,,?,0.002315,0,,,,,,stimuli/images/PICTURE_667.png,BATH,5b5b9fdfe36fe200014d239a,27/01/1995,2020-08-13_12h52.04.249,proactive2,2020.1.2,Win32,60,5f341be081b9052c55068110,5f35294edc7ef806f6323e6e,4,,,,,,daisy,,,,,,,,,,,1,0,0,5,5,4,1,,,,,,,,,,,,,,,,,,,,,,,,,,,,,,,,,,,,,,,,,,,,,,,,,,,,,,,,,,,,,,,,,,,,,,,,,,,,,,,,,,,,,,,,,,,,,,
,,?,0.00098,0,,,,,,stimuli/images/PICTURE_654.png,VALLEY,5b5b9fdfe36fe200014d239a,27/01/1995,2020-08-13_12h52.04.249,proactive2,2020.1.2,Win32,60,5f341be081b9052c55068110,5f35294edc7ef806f6323e6e,4,,,,,,pencil,,,,,,,,,,,1,0,0,6,6,1,1,,,,,,,,,,,,,,,,,,,,,,,,,,,,,,,,,,,,,,,,,,,,,,,,,,,,,,,,,,,,,,,,,,,,,,,,,,,,,,,,,,,,,,,,,,,,,,
,,?,0.00075,0,,,,,,stimuli/images/PICTURE_147.png,MOMENT,5b5b9fdfe36fe200014d239a,27/01/1995,2020-08-13_12h52.04.249,proactive2,2020.1.2,Win32,60,5f341be081b9052c55068110,5f35294edc7ef806f6323e6e,4,,,,,,hanger,,,,,,,,,,,6,0,0,7,7,51,1,,,,,,,,,,,,,,,,,,,,,,,,,,,,,,,,,,,,,,,,,,,,,,,,,,,,,,,,,,,,,,,,,,,,,,,,,,,,,,,,,,,,,,,,,,,,,,
,,?,0.000725,0,,,,,,stimuli/images/PICTURE_708.png,CLIENT,5b5b9fdfe36fe200014d239a,27/01/1995,2020-08-13_12h52.04.249,proactive2,2020.1.2,Win32,60,5f341be081b9052c55068110,5f35294edc7ef806f6323e6e,4,,,,,,monkey,,,,,,,,,,,1,0,0,8,8,5,1,,,,,,,,,,,,,,,,,,,,,,,,,,,,,,,,,,,,,,,,,,,,,,,,,,,,,,,,,,,,,,,,,,,,,,,,,,,,,,,,,,,,,,,,,,,,,,
,,?,0.00065,0,,,,,,stimuli/images/PICTURE_692.png,MONTH,5b5b9fdfe36fe200014d239a,27/01/1995,2020-08-13_12h52.04.249,proactive2,2020.1.2,Win32,60,5f341be081b9052c55068110,5f35294edc7ef806f6323e6e,4,,,,,,cherry,,,,,,,,,,,2,0,0,9,9,16,1,,,,,,,,,,,,,,,,,,,,,,,,,,,,,,,,,,,,,,,,,,,,,,,,,,,,,,,,,,,,,,,,,,,,,,,,,,,,,,,,,,,,,,,,,,,,,,
,,?,0.00058,0,,,,,,stimuli/images/PICTURE_203.png,ARTIST,5b5b9fdfe36fe200014d239a,27/01/1995,2020-08-13_12h52.04.249,proactive2,2020.1.2,Win32,60,5f341be081b9052c55068110,5f35294edc7ef806f6323e6e,4,,,,,,cap,,,,,,,,,,,3,0,0,10,10,26,1,,,,,,,,,,,,,,,,,,,,,,,,,,,,,,,,,,,,,,,,,,,,,,,,,,,,,,,,,,,,,,,,,,,,,,,,,,,,,,,,,,,,,,,,,,,,,,
,,?,0.000615,0,,,,,,stimuli/images/PICTURE_708.png,YARD,5b5b9fdfe36fe200014d239a,27/01/1995,2020-08-13_12h52.04.249,proactive2,2020.1.2,Win32,60,5f341be081b9052c55068110,5f35294edc7ef806f6323e6e,4,,,,,,monkey,,,,,,,,,,,3,0,0,11,11,29,1,,,,,,,,,,,,,,,,,,,,,,,,,,,,,,,,,,,,,,,,,,,,,,,,,,,,,,,,,,,,,,,,,,,,,,,,,,,,,,,,,,,,,,,,,,,,,,
,,?,0.00059,0,,,,,,stimuli/images/PICTURE_509.png,PHOTO,5b5b9fdfe36fe200014d239a,27/01/1995,2020-08-13_12h52.04.249,proactive2,2020.1.2,Win32,60,5f341be081b9052c55068110,5f35294edc7ef806f6323e6e,4,,,,,,telephone,,,,,,,,,,,3,0,0,12,12,21,1,,,,,,,,,,,,,,,,,,,,,,,,,,,,,,,,,,,,,,,,,,,,,,,,,,,,,,,,,,,,,,,,,,,,,,,,,,,,,,,,,,,,,,,,,,,,,,
,,?,0.00052,0,,,,,,stimuli/images/PICTURE_469.png,ARTIST,5b5b9fdfe36fe200014d239a,27/01/1995,2020-08-13_12h52.04.249,proactive2,2020.1.2,Win32,60,5f341be081b9052c55068110,5f35294edc7ef806f6323e6e,4,,,,,,stool,,,,,,,,,,,1,0,0,13,13,6,1,,,,,,,,,,,,,,,,,,,,,,,,,,,,,,,,,,,,,,,,,,,,,,,,,,,,,,,,,,,,,,,,,,,,,,,,,,,,,,,,,,,,,,,,,,,,,,
,,?,0.00072,0,,,,,,stimuli/images/PICTURE_491.png,WRITER,5b5b9fdfe36fe200014d239a,27/01/1995,2020-08-13_12h52.04.249,proactive2,2020.1.2,Win32,60,5f341be081b9052c55068110,5f35294edc7ef806f6323e6e,4,,,,,,rug,,,,,,,,,,,6,0,0,14,14,57,1,,,,,,,,,,,,,,,,,,,,,,,,,,,,,,,,,,,,,,,,,,,,,,,,,,,,,,,,,,,,,,,,,,,,,,,,,,,,,,,,,,,,,,,,,,,,,,
,,?,0.000565,0,,,,,,stimuli/images/PICTURE_308.png,KIND,5b5b9fdfe36fe200014d239a,27/01/1995,2020-08-13_12h52.04.249,proactive2,2020.1.2,Win32,60,5f341be081b9052c55068110,5f35294edc7ef806f6323e6e,4,,,,,,dice,,,,,,,,,,,6,0,0,15,15,54,1,,,,,,,,,,,,,,,,,,,,,,,,,,,,,,,,,,,,,,,,,,,,,,,,,,,,,,,,,,,,,,,,,,,,,,,,,,,,,,,,,,,,,,,,,,,,,,
,,PLENTY,2.42531,1,,,,,,stimuli/images/PICTURE_215.png,PLENTY,5b5b9fdfe36fe200014d239a,27/01/1995,2020-08-13_12h52.04.249,proactive2,2020.1.2,Win32,60,5f341be081b9052c55068110,5f35294edc7ef806f6323e6e,4,,,,,,boot,,,,,,,,,,,4,0,0,16,16,37,1,,,,,,,,,,,,,,,,,,,,,,,,,,,,,,,,,,,,,,,,,,,,,,,,,,,,,,,,,,,,,,,,,,,,,,,,,,,,,,,,,,,,,,,,,,,,,,
,,CARS,2.914105,1,,,,,,stimuli/images/PICTURE_177.png,CARS,5b5b9fdfe36fe200014d239a,27/01/1995,2020-08-13_12h52.04.249,proactive2,2020.1.2,Win32,60,5f341be081b9052c55068110,5f35294edc7ef806f6323e6e,4,,,,,,mushroom,,,,,,,,,,,4,0,0,17,17,35,1,,,,,,,,,,,,,,,,,,,,,,,,,,,,,,,,,,,,,,,,,,,,,,,,,,,,,,,,,,,,,,,,,,,,,,,,,,,,,,,,,,,,,,,,,,,,,,
,,STYE,1.87973,0,,,,,,stimuli/images/PICTURE_488.png,STYLE,5b5b9fdfe36fe200014d239a,27/01/1995,2020-08-13_12h52.04.249,proactive2,2020.1.2,Win32,60,5f341be081b9052c55068110,5f35294edc7ef806f6323e6e,4,,,,,,sun,,,,,,,,,,,4,0,0,18,18,33,1,,,,,,,,,,,,,,,,,,,,,,,,,,,,,,,,,,,,,,,,,,,,,,,,,,,,,,,,,,,,,,,,,,,,,,,,,,,,,,,,,,,,,,,,,,,,,,
,,?,0.001205,0,,,,,,stimuli/images/PICTURE_348.png,SPEECH,5b5b9fdfe36fe200014d239a,27/01/1995,2020-08-13_12h52.04.249,proactive2,2020.1.2,Win32,60,5f341be081b9052c55068110,5f35294edc7ef806f6323e6e,4,,,,,,pepper,,,,,,,,,,,3,0,0,19,19,20,1,,,,,,,,,,,,,,,,,,,,,,,,,,,,,,,,,,,,,,,,,,,,,,,,,,,,,,,,,,,,,,,,,,,,,,,,,,,,,,,,,,,,,,,,,,,,,,
,,?,0.00084,0,,,,,,stimuli/images/PICTURE_85.png,THING,5b5b9fdfe36fe200014d239a,27/01/1995,2020-08-13_12h52.04.249,proactive2,2020.1.2,Win32,60,5f341be081b9052c55068110,5f35294edc7ef806f6323e6e,4,,,,,,diamond,,,,,,,,,,,2,0,0,20,20,15,1,,,,,,,,,,,,,,,,,,,,,,,,,,,,,,,,,,,,,,,,,,,,,,,,,,,,,,,,,,,,,,,,,,,,,,,,,,,,,,,,,,,,,,,,,,,,,,
,,?,0.00077,0,,,,,,stimuli/images/PICTURE_339.png,PLENTY,5b5b9fdfe36fe200014d239a,27/01/1995,2020-08-13_12h52.04.249,proactive2,2020.1.2,Win32,60,5f341be081b9052c55068110,5f35294edc7ef806f6323e6e,4,,,,,,backpack,,,,,,,,,,,1,0,0,21,21,0,1,,,,,,,,,,,,,,,,,,,,,,,,,,,,,,,,,,,,,,,,,,,,,,,,,,,,,,,,,,,,,,,,,,,,,,,,,,,,,,,,,,,,,,,,,,,,,,
,,?,0.00081,0,,,,,,stimuli/images/PICTURE_32.png,JUNGLE,5b5b9fdfe36fe200014d239a,27/01/1995,2020-08-13_12h52.04.249,proactive2,2020.1.2,Win32,60,5f341be081b9052c55068110,5f35294edc7ef806f6323e6e,4,,,,,,crown,,,,,,,,,,,5,0,0,22,22,45,1,,,,,,,,,,,,,,,,,,,,,,,,,,,,,,,,,,,,,,,,,,,,,,,,,,,,,,,,,,,,,,,,,,,,,,,,,,,,,,,,,,,,,,,,,,,,,,
,,?,0.000805,0,,,,,,stimuli/images/PICTURE_504.png,BODY,5b5b9fdfe36fe200014d239a,27/01/1995,2020-08-13_12h52.04.249,proactive2,2020.1.2,Win32,60,5f341be081b9052c55068110,5f35294edc7ef806f6323e6e,4,,,,,,wheel,,,,,,,,,,,1,0,0,23,23,8,1,,,,,,,,,,,,,,,,,,,,,,,,,,,,,,,,,,,,,,,,,,,,,,,,,,,,,,,,,,,,,,,,,,,,,,,,,,,,,,,,,,,,,,,,,,,,,,
,,?,0.000845,0,,,,,,stimuli/images/PICTURE_744.png,SAKE,5b5b9fdfe36fe200014d239a,27/01/1995,2020-08-13_12h52.04.249,proactive2,2020.1.2,Win32,60,5f341be081b9052c55068110,5f35294edc7ef806f6323e6e,4,,,,,,ring,,,,,,,,,,,2,0,0,24,24,17,1,,,,,,,,,,,,,,,,,,,,,,,,,,,,,,,,,,,,,,,,,,,,,,,,,,,,,,,,,,,,,,,,,,,,,,,,,,,,,,,,,,,,,,,,,,,,,,
,,WEAPON,4.048415,0,,,,,,stimuli/images/PICTURE_248.png,DOZEN,5b5b9fdfe36fe200014d239a,27/01/1995,2020-08-13_12h52.04.249,proactive2,2020.1.2,Win32,60,5f341be081b9052c55068110,5f35294edc7ef806f6323e6e,4,,,,,,cart,,,,,,,,,,,4,0,0,25,25,39,1,,,,,,,,,,,,,,,,,,,,,,,,,,,,,,,,,,,,,,,,,,,,,,,,,,,,,,,,,,,,,,,,,,,,,,,,,,,,,,,,,,,,,,,,,,,,,,
,,?,0.002025,0,,,,,,stimuli/images/PICTURE_667.png,PLENTY,5b5b9fdfe36fe200014d239a,27/01/1995,2020-08-13_12h52.04.249,proactive2,2020.1.2,Win32,60,5f341be081b9052c55068110,5f35294edc7ef806f6323e6e,4,,,,,,daisy,,,,,,,,,,,5,0,0,26,26,41,1,,,,,,,,,,,,,,,,,,,,,,,,,,,,,,,,,,,,,,,,,,,,,,,,,,,,,,,,,,,,,,,,,,,,,,,,,,,,,,,,,,,,,,,,,,,,,,
,,?,0.00118,0,,,,,,stimuli/images/PICTURE_356.png,DANGER,5b5b9fdfe36fe200014d239a,27/01/1995,2020-08-13_12h52.04.249,proactive2,2020.1.2,Win32,60,5f341be081b9052c55068110,5f35294edc7ef806f6323e6e,4,,,,,,pawn,,,,,,,,,,,6,0,0,27,27,55,1,,,,,,,,,,,,,,,,,,,,,,,,,,,,,,,,,,,,,,,,,,,,,,,,,,,,,,,,,,,,,,,,,,,,,,,,,,,,,,,,,,,,,,,,,,,,,,
,,CASINO,3.48931,1,,,,,,stimuli/images/PICTURE_470.png,CASINO,5b5b9fdfe36fe200014d239a,27/01/1995,2020-08-13_12h52.04.249,proactive2,2020.1.2,Win32,60,5f341be081b9052c55068110,5f35294edc7ef806f6323e6e,4,,,,,,motorbike,,,,,,,,,,,4,0,0,28,28,36,1,,,,,,,,,,,,,,,,,,,,,,,,,,,,,,,,,,,,,,,,,,,,,,,,,,,,,,,,,,,,,,,,,,,,,,,,,,,,,,,,,,,,,,,,,,,,,,
,,?,0.001855,0,,,,,,stimuli/images/PICTURE_688.png,CASINO,5b5b9fdfe36fe200014d239a,27/01/1995,2020-08-13_12h52.04.249,proactive2,2020.1.2,Win32,60,5f341be081b9052c55068110,5f35294edc7ef806f6323e6e,4,,,,,,runner,,,,,,,,,,,1,0,0,29,29,2,1,,,,,,,,,,,,,,,,,,,,,,,,,,,,,,,,,,,,,,,,,,,,,,,,,,,,,,,,,,,,,,,,,,,,,,,,,,,,,,,,,,,,,,,,,,,,,,
,,?,0.00147,0,,,,,,stimuli/images/PICTURE_744.png,SYSTEM,5b5b9fdfe36fe200014d239a,27/01/1995,2020-08-13_12h52.04.249,proactive2,2020.1.2,Win32,60,5f341be081b9052c55068110,5f35294edc7ef806f6323e6e,4,,,,,,ring,,,,,,,,,,,5,0,0,30,30,43,1,,,,,,,,,,,,,,,,,,,,,,,,,,,,,,,,,,,,,,,,,,,,,,,,,,,,,,,,,,,,,,,,,,,,,,,,,,,,,,,,,,,,,,,,,,,,,,
,,?,0.00149,0,,,,,,stimuli/images/PICTURE_151.png,GIRL,5b5b9fdfe36fe200014d239a,27/01/1995,2020-08-13_12h52.04.249,proactive2,2020.1.2,Win32,60,5f341be081b9052c55068110,5f35294edc7ef806f6323e6e,4,,,,,,tray,,,,,,,,,,,2,0,0,31,31,19,1,,,,,,,,,,,,,,,,,,,,,,,,,,,,,,,,,,,,,,,,,,,,,,,,,,,,,,,,,,,,,,,,,,,,,,,,,,,,,,,,,,,,,,,,,,,,,,
,,?,0.001475,0,,,,,,stimuli/images/PICTURE_160.png,LEADER,5b5b9fdfe36fe200014d239a,27/01/1995,2020-08-13_12h52.04.249,proactive2,2020.1.2,Win32,60,5f341be081b9052c55068110,5f35294edc7ef806f6323e6e,4,,,,,,wheelbarrow,,,,,,,,,,,1,0,0,32,32,3,1,,,,,,,,,,,,,,,,,,,,,,,,,,,,,,,,,,,,,,,,,,,,,,,,,,,,,,,,,,,,,,,,,,,,,,,,,,,,,,,,,,,,,,,,,,,,,,
,,?,0.001585,0,,,,,,stimuli/images/PICTURE_123.png,ADVICE,5b5b9fdfe36fe200014d239a,27/01/1995,2020-08-13_12h52.04.249,proactive2,2020.1.2,Win32,60,5f341be081b9052c55068110,5f35294edc7ef806f6323e6e,4,,,,,,dart,,,,,,,,,,,5,0,0,33,33,40,1,,,,,,,,,,,,,,,,,,,,,,,,,,,,,,,,,,,,,,,,,,,,,,,,,,,,,,,,,,,,,,,,,,,,,,,,,,,,,,,,,,,,,,,,,,,,,,
,,?,0.00146,0,,,,,,stimuli/images/PICTURE_208.png,MONTH,5b5b9fdfe36fe200014d239a,27/01/1995,2020-08-13_12h52.04.249,proactive2,2020.1.2,Win32,60,5f341be081b9052c55068110,5f35294edc7ef806f6323e6e,4,,,,,,microphone,,,,,,,,,,,6,0,0,34,34,53,1,,,,,,,,,,,,,,,,,,,,,,,,,,,,,,,,,,,,,,,,,,,,,,,,,,,,,,,,,,,,,,,,,,,,,,,,,,,,,,,,,,,,,,,,,,,,,,
,,?,0.00092,0,,,,,,stimuli/images/PICTURE_95.png,STYLE,5b5b9fdfe36fe200014d239a,27/01/1995,2020-08-13_12h52.04.249,proactive2,2020.1.2,Win32,60,5f341be081b9052c55068110,5f35294edc7ef806f6323e6e,4,,,,,,suitcase,,,,,,,,,,,3,0,0,35,35,25,1,,,,,,,,,,,,,,,,,,,,,,,,,,,,,,,,,,,,,,,,,,,,,,,,,,,,,,,,,,,,,,,,,,,,,,,,,,,,,,,,,,,,,,,,,,,,,,
,,?,0.00093,0,,,,,,stimuli/images/PICTURE_68.png,MILE,5b5b9fdfe36fe200014d239a,27/01/1995,2020-08-13_12h52.04.249,proactive2,2020.1.2,Win32,60,5f341be081b9052c55068110,5f35294edc7ef806f6323e6e,4,,,,,,candle,,,,,,,,,,,5,0,0,36,36,44,1,,,,,,,,,,,,,,,,,,,,,,,,,,,,,,,,,,,,,,,,,,,,,,,,,,,,,,,,,,,,,,,,,,,,,,,,,,,,,,,,,,,,,,,,,,,,,,
,,PENNY,2.635385,1,,,,,,stimuli/images/PICTURE_708.png,PENNY,5b5b9fdfe36fe200014d239a,27/01/1995,2020-08-13_12h52.04.249,proactive2,2020.1.2,Win32,60,5f341be081b9052c55068110,5f35294edc7ef806f6323e6e,4,,,,,,monkey,,,,,,,,,,,4,0,0,37,37,31,1,,,,,,,,,,,,,,,,,,,,,,,,,,,,,,,,,,,,,,,,,,,,,,,,,,,,,,,,,,,,,,,,,,,,,,,,,,,,,,,,,,,,,,,,,,,,,,
,,?,0.00205,0,,,,,,stimuli/images/PICTURE_233.png,IDEAS,5b5b9fdfe36fe200014d239a,27/01/1995,2020-08-13_12h52.04.249,proactive2,2020.1.2,Win32,60,5f341be081b9052c55068110,5f35294edc7ef806f6323e6e,4,,,,,,salt,,,,,,,,,,,3,0,0,38,38,28,1,,,,,,,,,,,,,,,,,,,,,,,,,,,,,,,,,,,,,,,,,,,,,,,,,,,,,,,,,,,,,,,,,,,,,,,,,,,,,,,,,,,,,,,,,,,,,,
,,WOMEN,1.70946,1,,,,,,stimuli/images/PICTURE_233.png,WOMEN,5b5b9fdfe36fe200014d239a,27/01/1995,2020-08-13_12h52.04.249,proactive2,2020.1.2,Win32,60,5f341be081b9052c55068110,5f35294edc7ef806f6323e6e,4,,,,,,salt,,,,,,,,,,,4,0,0,39,39,38,1,,,,,,,,,,,,,,,,,,,,,,,,,,,,,,,,,,,,,,,,,,,,,,,,,,,,,,,,,,,,,,,,,,,,,,,,,,,,,,,,,,,,,,,,,,,,,,
,,?,0.00142,0,,,,,,stimuli/images/PICTURE_327.png,BEAUTY,5b5b9fdfe36fe200014d239a,27/01/1995,2020-08-13_12h52.04.249,proactive2,2020.1.2,Win32,60,5f341be081b9052c55068110,5f35294edc7ef806f6323e6e,4,,,,,,helmet,,,,,,,,,,,5,0,0,40,40,48,1,,,,,,,,,,,,,,,,,,,,,,,,,,,,,,,,,,,,,,,,,,,,,,,,,,,,,,,,,,,,,,,,,,,,,,,,,,,,,,,,,,,,,,,,,,,,,,
,,?,0.00107,0,,,,,,stimuli/images/PICTURE_449.png,THING,5b5b9fdfe36fe200014d239a,27/01/1995,2020-08-13_12h52.04.249,proactive2,2020.1.2,Win32,60,5f341be081b9052c55068110,5f35294edc7ef806f6323e6e,4,,,,,,bench,,,,,,,,,,,6,0,0,41,41,59,1,,,,,,,,,,,,,,,,,,,,,,,,,,,,,,,,,,,,,,,,,,,,,,,,,,,,,,,,,,,,,,,,,,,,,,,,,,,,,,,,,,,,,,,,,,,,,,
,,FRIEND,2.97353,1,,,,,,stimuli/images/PICTURE_311.png,FRIEND,5b5b9fdfe36fe200014d239a,27/01/1995,2020-08-13_12h52.04.249,proactive2,2020.1.2,Win32,60,5f341be081b9052c55068110,5f35294edc7ef806f6323e6e,4,,,,,,razor,,,,,,,,,,,4,0,0,42,42,34,1,,,,,,,,,,,,,,,,,,,,,,,,,,,,,,,,,,,,,,,,,,,,,,,,,,,,,,,,,,,,,,,,,,,,,,,,,,,,,,,,,,,,,,,,,,,,,,
,,?,0.002425,0,,,,,,stimuli/images/PICTURE_255.png,AREA,5b5b9fdfe36fe200014d239a,27/01/1995,2020-08-13_12h52.04.249,proactive2,2020.1.2,Win32,60,5f341be081b9052c55068110,5f35294edc7ef806f6323e6e,4,,,,,,shovel,,,,,,,,,,,3,0,0,43,43,22,1,,,,,,,,,,,,,,,,,,,,,,,,,,,,,,,,,,,,,,,,,,,,,,,,,,,,,,,,,,,,,,,,,,,,,,,,,,,,,,,,,,,,,,,,,,,,,,
,,?,0.00179,0,,,,,,stimuli/images/PICTURE_302.png,FAMILY,5b5b9fdfe36fe200014d239a,27/01/1995,2020-08-13_12h52.04.249,proactive2,2020.1.2,Win32,60,5f341be081b9052c55068110,5f35294edc7ef806f6323e6e,4,,,,,,taxi,,,,,,,,,,,2,0,0,44,44,18,1,,,,,,,,,,,,,,,,,,,,,,,,,,,,,,,,,,,,,,,,,,,,,,,,,,,,,,,,,,,,,,,,,,,,,,,,,,,,,,,,,,,,,,,,,,,,,,
,,?,0.00151,0,,,,,,stimuli/images/PICTURE_311.png,BEAUTY,5b5b9fdfe36fe200014d239a,27/01/1995,2020-08-13_12h52.04.249,proactive2,2020.1.2,Win32,60,5f341be081b9052c55068110,5f35294edc7ef806f6323e6e,4,,,,,,razor,,,,,,,,,,,2,0,0,45,45,13,1,,,,,,,,,,,,,,,,,,,,,,,,,,,,,,,,,,,,,,,,,,,,,,,,,,,,,,,,,,,,,,,,,,,,,,,,,,,,,,,,,,,,,,,,,,,,,,
,,?,0.0029,0,,,,,,stimuli/images/PICTURE_285.png,ADVICE,5b5b9fdfe36fe200014d239a,27/01/1995,2020-08-13_12h52.04.249,proactive2,2020.1.2,Win32,60,5f341be081b9052c55068110,5f35294edc7ef806f6323e6e,4,,,,,,carrot,,,,,,,,,,,2,0,0,46,46,12,1,,,,,,,,,,,,,,,,,,,,,,,,,,,,,,,,,,,,,,,,,,,,,,,,,,,,,,,,,,,,,,,,,,,,,,,,,,,,,,,,,,,,,,,,,,,,,,
,,?,0.00098,0,,,,,,stimuli/images/PICTURE_467.png,DEMON,5b5b9fdfe36fe200014d239a,27/01/1995,2020-08-13_12h52.04.249,proactive2,2020.1.2,Win32,60,5f341be081b9052c55068110,5f35294edc7ef806f6323e6e,4,,,,,,peg,,,,,,,,,,,3,0,0,47,47,23,1,,,,,,,,,,,,,,,,,,,,,,,,,,,,,,,,,,,,,,,,,,,,,,,,,,,,,,,,,,,,,,,,,,,,,,,,,,,,,,,,,,,,,,,,,,,,,,
,,?,0.000825,0,,,,,,stimuli/images/PICTURE_380.png,DEATH,5b5b9fdfe36fe200014d239a,27/01/1995,2020-08-13_12h52.04.249,proactive2,2020.1.2,Win32,60,5f341be081b9052c55068110,5f35294edc7ef806f6323e6e,4,,,,,,gorilla,,,,,,,,,,,5,0,0,48,48,49,1,,,,,,,,,,,,,,,,,,,,,,,,,,,,,,,,,,,,,,,,,,,,,,,,,,,,,,,,,,,,,,,,,,,,,,,,,,,,,,,,,,,,,,,,,,,,,,
,,?,0.00067,0,,,,,,stimuli/images/PICTURE_160.png,FEET,5b5b9fdfe36fe200014d239a,27/01/1995,2020-08-13_12h52.04.249,proactive2,2020.1.2,Win32,60,5f341be081b9052c55068110,5f35294edc7ef806f6323e6e,4,,,,,,wheelbarrow,,,,,,,,,,,6,0,0,49,49,58,1,,,,,,,,,,,,,,,,,,,,,,,,,,,,,,,,,,,,,,,,,,,,,,,,,,,,,,,,,,,,,,,,,,,,,,,,,,,,,,,,,,,,,,,,,,,,,,
,,?,0.000675,0,,,,,,stimuli/images/PICTURE_208.png,LOTS,5b5b9fdfe36fe200014d239a,27/01/1995,2020-08-13_12h52.04.249,proactive2,2020.1.2,Win32,60,5f341be081b9052c55068110,5f35294edc7ef806f6323e6e,4,,,,,,microphone,,,,,,,,,,,2,0,0,50,50,10,1,,,,,,,,,,,,,,,,,,,,,,,,,,,,,,,,,,,,,,,,,,,,,,,,,,,,,,,,,,,,,,,,,,,,,,,,,,,,,,,,,,,,,,,,,,,,,,
,,?,0.00054,0,,,,,,stimuli/images/PICTURE_208.png,THING,5b5b9fdfe36fe200014d239a,27/01/1995,2020-08-13_12h52.04.249,proactive2,2020.1.2,Win32,60,5f341be081b9052c55068110,5f35294edc7ef806f6323e6e,4,,,,,,microphone,,,,,,,,,,,5,0,0,51,51,47,1,,,,,,,,,,,,,,,,,,,,,,,,,,,,,,,,,,,,,,,,,,,,,,,,,,,,,,,,,,,,,,,,,,,,,,,,,,,,,,,,,,,,,,,,,,,,,,
,,?,0.000565,0,,,,,,stimuli/images/PICTURE_314.png,SAKE,5b5b9fdfe36fe200014d239a,27/01/1995,2020-08-13_12h52.04.249,proactive2,2020.1.2,Win32,60,5f341be081b9052c55068110,5f35294edc7ef806f6323e6e,4,,,,,,perfume,,,,,,,,,,,1,0,0,52,52,7,1,,,,,,,,,,,,,,,,,,,,,,,,,,,,,,,,,,,,,,,,,,,,,,,,,,,,,,,,,,,,,,,,,,,,,,,,,,,,,,,,,,,,,,,,,,,,,,
,,?,0.00053,0,,,,,,stimuli/images/PICTURE_123.png,ADVICE,5b5b9fdfe36fe200014d239a,27/01/1995,2020-08-13_12h52.04.249,proactive2,2020.1.2,Win32,60,5f341be081b9052c55068110,5f35294edc7ef806f6323e6e,4,,,,,,dart,,,,,,,,,,,6,0,0,53,53,50,1,,,,,,,,,,,,,,,,,,,,,,,,,,,,,,,,,,,,,,,,,,,,,,,,,,,,,,,,,,,,,,,,,,,,,,,,,,,,,,,,,,,,,,,,,,,,,,
,,?,0.00056,0,,,,,,stimuli/images/PICTURE_453.png,DUDE,5b5b9fdfe36fe200014d239a,27/01/1995,2020-08-13_12h52.04.249,proactive2,2020.1.2,Win32,60,5f341be081b9052c55068110,5f35294edc7ef806f6323e6e,4,,,,,,scissors,,,,,,,,,,,3,0,0,54,54,27,1,,,,,,,,,,,,,,,,,,,,,,,,,,,,,,,,,,,,,,,,,,,,,,,,,,,,,,,,,,,,,,,,,,,,,,,,,,,,,,,,,,,,,,,,,,,,,,
,,?,0.000635,0,,,,,,stimuli/images/PICTURE_453.png,PLENTY,5b5b9fdfe36fe200014d239a,27/01/1995,2020-08-13_12h52.04.249,proactive2,2020.1.2,Win32,60,5f341be081b9052c55068110,5f35294edc7ef806f6323e6e,4,,,,,,scissors,,,,,,,,,,,6,0,0,55,55,56,1,,,,,,,,,,,,,,,,,,,,,,,,,,,,,,,,,,,,,,,,,,,,,,,,,,,,,,,,,,,,,,,,,,,,,,,,,,,,,,,,,,,,,,,,,,,,,,
,,?,0.000575,0,,,,,,stimuli/images/PICTURE_487.png,FLIGHT,5b5b9fdfe36fe200014d239a,27/01/1995,2020-08-13_12h52.04.249,proactive2,2020.1.2,Win32,60,5f341be081b9052c55068110,5f35294edc7ef806f6323e6e,4,,,,,,basket,,,,,,,,,,,1,0,0,56,56,9,1,,,,,,,,,,,,,,,,,,,,,,,,,,,,,,,,,,,,,,,,,,,,,,,,,,,,,,,,,,,,,,,,,,,,,,,,,,,,,,,,,,,,,,,,,,,,,,
,,?,0.00057,0,,,,,,stimuli/images/PICTURE_688.png,WOMEN,5b5b9fdfe36fe200014d239a,27/01/1995,2020-08-13_12h52.04.249,proactive2,2020.1.2,Win32,60,5f341be081b9052c55068110,5f35294edc7ef806f6323e6e,4,,,,,,runner,,,,,,,,,,,2,0,0,57,57,14,1,,,,,,,,,,,,,,,,,,,,,,,,,,,,,,,,,,,,,,,,,,,,,,,,,,,,,,,,,,,,,,,,,,,,,,,,,,,,,,,,,,,,,,,,,,,,,,
,,?,0.002405,0,,,,,,stimuli/images/PICTURE_491.png,ROOF,5b5b9fdfe36fe200014d239a,27/01/1995,2020-08-13_12h52.04.249,proactive2,2020.1.2,Win32,60,5f341be081b9052c55068110,5f35294edc7ef806f6323e6e,4,,,,,,rug,,,,,,,,,,,3,0,0,58,58,24,1,,,,,,,,,,,,,,,,,,,,,,,,,,,,,,,,,,,,,,,,,,,,,,,,,,,,,,,,,,,,,,,,,,,,,,,,,,,,,,,,,,,,,,,,,,,,,,
,,WEAPON,2.205985,1,,,,,,stimuli/images/PICTURE_675.png,WEAPON,5b5b9fdfe36fe200014d239a,27/01/1995,2020-08-13_12h52.04.249,proactive2,2020.1.2,Win32,60,5f341be081b9052c55068110,5f35294edc7ef806f6323e6e,4,,,,,,windmill,,,,,,,,,,,4,0,0,59,59,32,1,,,,,,,,,,,,,,,,,,,,,,,,,,,,,,,,,,,,,,,,,,,,,,,,,,,,,,,,,,,,,,,,,,,,,,,,,,,,,,,,,,,,,,,,,,,,,,
,,,,,,,,,,,,5b5b9fdfe36fe200014d239a,27/01/1995,2020-08-13_12h52.04.249,proactive2,2020.1.2,Win32,60,5f341be081b9052c55068110,5f35294edc7ef806f6323e6e,4,,,,,,,,,,,,,,,,,,,,,,,,0,1,1,0,1,stimuli/learn-block1.csv,,,,,,,,,,,,,,,,,,,,,,,,,,,,,,,,,,,,,,,,,,,,,,,,,,,,,,,,,,,,,,,,,,,,,,,,,,,,,,,,,,,,,,,,
,,,,,,,,,,stimuli/images/PICTURE_403.png,TOILET,5b5b9fdfe36fe200014d239a,27/01/1995,2020-08-13_12h52.04.249,proactive2,2020.1.2,Win32,60,5f341be081b9052c55068110,5f35294edc7ef806f6323e6e,4,,,,,,cathedral,,,,,,0,0,0,25,1,3,1,,,,,,,,,,,,,,,,,,,,,,,,,,,,,,,,,,,,,,,,,,,,,,,,,,,,,,,,,,,,,,,,,,,,,,,,,,,,,,,,,,,,,,,,,,,,,,,,,,,
,,,,,,,,,,stimuli/images/PICTURE_208.png,SYSTEM,5b5b9fdfe36fe200014d239a,27/01/1995,2020-08-13_12h52.04.249,proactive2,2020.1.2,Win32,60,5f341be081b9052c55068110,5f35294edc7ef806f6323e6e,4,,,,,,microphone,,,,,,0,1,1,32,1,4,1,,,,,,,,,,,,,,,,,,,,,,,,,,,,,,,,,,,,,,,,,,,,,,,,,,,,,,,,,,,,,,,,,,,,,,,,,,,,,,,,,,,,,,,,,,,,,,,,,,,
,,,,,,,,,,stimuli/images/PICTURE_296.png,LIFE,5b5b9fdfe36fe200014d239a,27/01/1995,2020-08-13_12h52.04.249,proactive2,2020.1.2,Win32,60,5f341be081b9052c55068110,5f35294edc7ef806f6323e6e,4,,,,,,bolt,,,,,,0,2,2,57,1,6,1,,,,,,,,,,,,,,,,,,,,,,,,,,,,,,,,,,,,,,,,,,,,,,,,,,,,,,,,,,,,,,,,,,,,,,,,,,,,,,,,,,,,,,,,,,,,,,,,,,,
,,,,,,,,,,stimuli/images/PICTURE_108.png,FLIGHT,5b5b9fdfe36fe200014d239a,27/01/1995,2020-08-13_12h52.04.249,proactive2,2020.1.2,Win32,60,5f341be081b9052c55068110,5f35294edc7ef806f6323e6e,4,,,,,,calendar,,,,,,0,3,3,59,1,6,1,,,,,,,,,,,,,,,,,,,,,,,,,,,,,,,,,,,,,,,,,,,,,,,,,,,,,,,,,,,,,,,,,,,,,,,,,,,,,,,,,,,,,,,,,,,,,,,,,,,
,,,,,,,,,,stimuli/images/PICTURE_675.png,SALE,5b5b9fdfe36fe200014d239a,27/01/1995,2020-08-13_12h52.04.249,proactive2,2020.1.2,Win32,60,5f341be081b9052c55068110,5f35294edc7ef806f6323e6e,4,,,,,,windmill,,,,,,0,4,4,47,1,5,1,,,,,,,,,,,,,,,,,,,,,,,,,,,,,,,,,,,,,,,,,,,,,,,,,,,,,,,,,,,,,,,,,,,,,,,,,,,,,,,,,,,,,,,,,,,,,,,,,,,
,,,,,,,,,,stimuli/images/PICTURE_68.png,MILE,5b5b9fdfe36fe200014d239a,27/01/1995,2020-08-13_12h52.04.249,proactive2,2020.1.2,Win32,60,5f341be081b9052c55068110,5f35294edc7ef806f6323e6e,4,,,,,,candle,,,,,,0,5,5,51,1,6,1,,,,,,,,,,,,,,,,,,,,,,,,,,,,,,,,,,,,,,,,,,,,,,,,,,,,,,,,,,,,,,,,,,,,,,,,,,,,,,,,,,,,,,,,,,,,,,,,,,,
,,,,,,,,,,stimuli/images/PICTURE_2.png,FLIGHT,5b5b9fdfe36fe200014d239a,27/01/1995,2020-08-13_12h52.04.249,proactive2,2020.1.2,Win32,60,5f341be081b9052c55068110,5f35294edc7ef806f6323e6e,4,,,,,,tyre,,,,,,0,6,6,15,1,2,1,,,,,,,,,,,,,,,,,,,,,,,,,,,,,,,,,,,,,,,,,,,,,,,,,,,,,,,,,,,,,,,,,,,,,,,,,,,,,,,,,,,,,,,,,,,,,,,,,,,
,,,,,,,,,,stimuli/images/PICTURE_85.png,NATION,5b5b9fdfe36fe200014d239a,27/01/1995,2020-08-13_12h52.04.249,proactive2,2020.1.2,Win32,60,5f341be081b9052c55068110,5f35294edc7ef806f6323e6e,4,,,,,,diamond,,,,,,0,7,7,5,1,1,1,,,,,,,,,,,,,,,,,,,,,,,,,,,,,,,,,,,,,,,,,,,,,,,,,,,,,,,,,,,,,,,,,,,,,,,,,,,,,,,,,,,,,,,,,,,,,,,,,,,
,,,,,,,,,,stimuli/images/PICTURE_339.png,CLIENT,5b5b9fdfe36fe200014d239a,27/01/1995,2020-08-13_12h52.04.249,proactive2,2020.1.2,Win32,60,5f341be081b9052c55068110,5f35294edc7ef806f6323e6e,4,,,,,,backpack,,,,,,0,8,8,11,1,2,1,,,,,,,,,,,,,,,,,,,,,,,,,,,,,,,,,,,,,,,,,,,,,,,,,,,,,,,,,,,,,,,,,,,,,,,,,,,,,,,,,,,,,,,,,,,,,,,,,,,
,,,,,,,,,,stimuli/images/PICTURE_296.png,LOTS,5b5b9fdfe36fe200014d239a,27/01/1995,2020-08-13_12h52.04.249,proactive2,2020.1.2,Win32,60,5f341be081b9052c55068110,5f35294edc7ef806f6323e6e,4,,,,,,bolt,,,,,,0,9,9,9,1,1,1,,,,,,,,,,,,,,,,,,,,,,,,,,,,,,,,,,,,,,,,,,,,,,,,,,,,,,,,,,,,,,,,,,,,,,,,,,,,,,,,,,,,,,,,,,,,,,,,,,,
,,,,,,,,,,stimuli/images/PICTURE_42.png,BOYS,5b5b9fdfe36fe200014d239a,27/01/1995,2020-08-13_12h52.04.249,proactive2,2020.1.2,Win32,60,5f341be081b9052c55068110,5f35294edc7ef806f6323e6e,4,,,,,,pear,,,,,,0,10,10,55,1,6,1,,,,,,,,,,,,,,,,,,,,,,,,,,,,,,,,,,,,,,,,,,,,,,,,,,,,,,,,,,,,,,,,,,,,,,,,,,,,,,,,,,,,,,,,,,,,,,,,,,,
,,,,,,,,,,stimuli/images/PICTURE_564.png,BATH,5b5b9fdfe36fe200014d239a,27/01/1995,2020-08-13_12h52.04.249,proactive2,2020.1.2,Win32,60,5f341be081b9052c55068110,5f35294edc7ef806f6323e6e,4,,,,,,spoon,,,,,,0,11,11,26,1,3,1,,,,,,,,,,,,,,,,,,,,,,,,,,,,,,,,,,,,,,,,,,,,,,,,,,,,,,,,,,,,,,,,,,,,,,,,,,,,,,,,,,,,,,,,,,,,,,,,,,,
,,,,,,,,,,stimuli/images/PICTURE_491.png,GLASS,5b5b9fdfe36fe200014d239a,27/01/1995,2020-08-13_12h52.04.249,proactive2,2020.1.2,Win32,60,5f341be081b9052c55068110,5f35294edc7ef806f6323e6e,4,,,,,,rug,,,,,,0,12,12,14,1,2,1,,,,,,,,,,,,,,,,,,,,,,,,,,,,,,,,,,,,,,,,,,,,,,,,,,,,,,,,,,,,,,,,,,,,,,,,,,,,,,,,,,,,,,,,,,,,,,,,,,,
,,,,,,,,,,stimuli/images/PICTURE_327.png,SERIES,5b5b9fdfe36fe200014d239a,27/01/1995,2020-08-13_12h52.04.249,proactive2,2020.1.2,Win32,60,5f341be081b9052c55068110,5f35294edc7ef806f6323e6e,4,,,,,,helmet,,,,,,0,13,13,3,1,1,1,,,,,,,,,,,,,,,,,,,,,,,,,,,,,,,,,,,,,,,,,,,,,,,,,,,,,,,,,,,,,,,,,,,,,,,,,,,,,,,,,,,,,,,,,,,,,,,,,,,
,,,,,,,,,,stimuli/images/PICTURE_85.png,TOILET,5b5b9fdfe36fe200014d239a,27/01/1995,2020-08-13_12h52.04.249,proactive2,2020.1.2,Win32,60,5f341be081b9052c55068110,5f35294edc7ef806f6323e6e,4,,,,,,diamond,,,,,,0,14,14,48,1,5,1,,,,,,,,,,,,,,,,,,,,,,,,,,,,,,,,,,,,,,,,,,,,,,,,,,,,,,,,,,,,,,,,,,,,,,,,,,,,,,,,,,,,,,,,,,,,,,,,,,,
,,,,,,,,,,stimuli/images/PICTURE_308.png,FAMILY,5b5b9fdfe36fe200014d239a,27/01/1995,2020-08-13_12h52.04.249,proactive2,2020.1.2,Win32,60,5f341be081b9052c55068110,5f35294edc7ef806f6323e6e,4,,,,,,dice,,,,,,0,15,15,36,1,4,1,,,,,,,,,,,,,,,,,,,,,,,,,,,,,,,,,,,,,,,,,,,,,,,,,,,,,,,,,,,,,,,,,,,,,,,,,,,,,,,,,,,,,,,,,,,,,,,,,,,
,,,,,,,,,,stimuli/images/PICTURE_487.png,GIRL,5b5b9fdfe36fe200014d239a,27/01/1995,2020-08-13_12h52.04.249,proactive2,2020.1.2,Win32,60,5f341be081b9052c55068110,5f35294edc7ef806f6323e6e,4,,,,,,basket,,,,,,0,16,16,45,1,5,1,,,,,,,,,,,,,,,,,,,,,,,,,,,,,,,,,,,,,,,,,,,,,,,,,,,,,,,,,,,,,,,,,,,,,,,,,,,,,,,,,,,,,,,,,,,,,,,,,,,
,,,,,,,,,,stimuli/images/PICTURE_340.png,LETTER,5b5b9fdfe36fe200014d239a,27/01/1995,2020-08-13_12h52.04.249,proactive2,2020.1.2,Win32,60,5f341be081b9052c55068110,5f35294edc7ef806f6323e6e,4,,,,,,mirror,,,,,,0,17,17,24,1,3,1,,,,,,,,,,,,,,,,,,,,,,,,,,,,,,,,,,,,,,,,,,,,,,,,,,,,,,,,,,,,,,,,,,,,,,,,,,,,,,,,,,,,,,,,,,,,,,,,,,,
,,,,,,,,,,stimuli/images/PICTURE_32.png,KIND,5b5b9fdfe36fe200014d239a,27/01/1995,2020-08-13_12h52.04.249,proactive2,2020.1.2,Win32,60,5f341be081b9052c55068110,5f35294edc7ef806f6323e6e,4,,,,,,crown,,,,,,0,18,18,35,1,4,1,,,,,,,,,,,,,,,,,,,,,,,,,,,,,,,,,,,,,,,,,,,,,,,,,,,,,,,,,,,,,,,,,,,,,,,,,,,,,,,,,,,,,,,,,,,,,,,,,,,
,,,,,,,,,,stimuli/images/PICTURE_405.png,YEAR,5b5b9fdfe36fe200014d239a,27/01/1995,2020-08-13_12h52.04.249,proactive2,2020.1.2,Win32,60,5f341be081b9052c55068110,5f35294edc7ef806f6323e6e,4,,,,,,anchor,,,,,,0,19,19,34,1,4,1,,,,,,,,,,,,,,,,,,,,,,,,,,,,,,,,,,,,,,,,,,,,,,,,,,,,,,,,,,,,,,,,,,,,,,,,,,,,,,,,,,,,,,,,,,,,,,,,,,,
,,,,,,,,,,stimuli/images/PICTURE_667.png,RIVER,5b5b9fdfe36fe200014d239a,27/01/1995,2020-08-13_12h52.04.249,proactive2,2020.1.2,Win32,60,5f341be081b9052c55068110,5f35294edc7ef806f6323e6e,4,,,,,,daisy,,,,,,0,20,20,10,1,2,1,,,,,,,,,,,,,,,,,,,,,,,,,,,,,,,,,,,,,,,,,,,,,,,,,,,,,,,,,,,,,,,,,,,,,,,,,,,,,,,,,,,,,,,,,,,,,,,,,,,
,,,,,,,,,,stimuli/images/PICTURE_297.png,RIVER,5b5b9fdfe36fe200014d239a,27/01/1995,2020-08-13_12h52.04.249,proactive2,2020.1.2,Win32,60,5f341be081b9052c55068110,5f35294edc7ef806f6323e6e,4,,,,,,aeroplane,,,,,,0,21,21,39,1,4,1,,,,,,,,,,,,,,,,,,,,,,,,,,,,,,,,,,,,,,,,,,,,,,,,,,,,,,,,,,,,,,,,,,,,,,,,,,,,,,,,,,,,,,,,,,,,,,,,,,,
,,,,,,,,,,stimuli/images/PICTURE_95.png,BOYS,5b5b9fdfe36fe200014d239a,27/01/1995,2020-08-13_12h52.04.249,proactive2,2020.1.2,Win32,60,5f341be081b9052c55068110,5f35294edc7ef806f6323e6e,4,,,,,,suitcase,,,,,,0,22,22,1,1,1,1,,,,,,,,,,,,,,,,,,,,,,,,,,,,,,,,,,,,,,,,,,,,,,,,,,,,,,,,,,,,,,,,,,,,,,,,,,,,,,,,,,,,,,,,,,,,,,,,,,,
,,,,,,,,,,stimuli/images/PICTURE_677.png,APPLE,5b5b9fdfe36fe200014d239a,27/01/1995,2020-08-13_12h52.04.249,proactive2,2020.1.2,Win32,60,5f341be081b9052c55068110,5f35294edc7ef806f6323e6e,4,,,,,,map,,,,,,0,23,23,43,1,5,1,,,,,,,,,,,,,,,,,,,,,,,,,,,,,,,,,,,,,,,,,,,,,,,,,,,,,,,,,,,,,,,,,,,,,,,,,,,,,,,,,,,,,,,,,,,,,,,,,,,
,,,,,,,,,,stimuli/images/PICTURE_32.png,PILLS,5b5b9fdfe36fe200014d239a,27/01/1995,2020-08-13_12h52.04.249,proactive2,2020.1.2,Win32,60,5f341be081b9052c55068110,5f35294edc7ef806f6323e6e,4,,,,,,crown,,,,,,0,24,24,18,1,2,1,,,,,,,,,,,,,,,,,,,,,,,,,,,,,,,,,,,,,,,,,,,,,,,,,,,,,,,,,,,,,,,,,,,,,,,,,,,,,,,,,,,,,,,,,,,,,,,,,,,
,,,,,,,,,,stimuli/images/PICTURE_655.png,TOILET,5b5b9fdfe36fe200014d239a,27/01/1995,2020-08-13_12h52.04.249,proactive2,2020.1.2,Win32,60,5f341be081b9052c55068110,5f35294edc7ef806f6323e6e,4,,,,,,megaphone,,,,,,0,25,25,12,1,2,1,,,,,,,,,,,,,,,,,,,,,,,,,,,,,,,,,,,,,,,,,,,,,,,,,,,,,,,,,,,,,,,,,,,,,,,,,,,,,,,,,,,,,,,,,,,,,,,,,,,
,,,,,,,,,,stimuli/images/PICTURE_403.png,RIVER,5b5b9fdfe36fe200014d239a,27/01/1995,2020-08-13_12h52.04.249,proactive2,2020.1.2,Win32,60,5f341be081b9052c55068110,5f35294edc7ef806f6323e6e,4,,,,,,cathedral,,,,,,0,26,26,40,1,5,1,,,,,,,,,,,,,,,,,,,,,,,,,,,,,,,,,,,,,,,,,,,,,,,,,,,,,,,,,,,,,,,,,,,,,,,,,,,,,,,,,,,,,,,,,,,,,,,,,,,
,,,,,,,,,,stimuli/images/PICTURE_380.png,HONEY,5b5b9fdfe36fe200014d239a,27/01/1995,2020-08-13_12h52.04.249,proactive2,2020.1.2,Win32,60,5f341be081b9052c55068110,5f35294edc7ef806f6323e6e,4,,,,,,gorilla,,,,,,0,27,27,19,1,2,1,,,,,,,,,,,,,,,,,,,,,,,,,,,,,,,,,,,,,,,,,,,,,,,,,,,,,,,,,,,,,,,,,,,,,,,,,,,,,,,,,,,,,,,,,,,,,,,,,,,
,,,,,,,,,,stimuli/images/PICTURE_95.png,HONEY,5b5b9fdfe36fe200014d239a,27/01/1995,2020-08-13_12h52.04.249,proactive2,2020.1.2,Win32,60,5f341be081b9052c55068110,5f35294edc7ef806f6323e6e,4,,,,,,suitcase,,,,,,0,28,28,44,1,5,1,,,,,,,,,,,,,,,,,,,,,,,,,,,,,,,,,,,,,,,,,,,,,,,,,,,,,,,,,,,,,,,,,,,,,,,,,,,,,,,,,,,,,,,,,,,,,,,,,,,
,,,,,,,,,,stimuli/images/PICTURE_744.png,WEAPON,5b5b9fdfe36fe200014d239a,27/01/1995,2020-08-13_12h52.04.249,proactive2,2020.1.2,Win32,60,5f341be081b9052c55068110,5f35294edc7ef806f6323e6e,4,,,,,,ring,,,,,,0,29,29,50,1,6,1,,,,,,,,,,,,,,,,,,,,,,,,,,,,,,,,,,,,,,,,,,,,,,,,,,,,,,,,,,,,,,,,,,,,,,,,,,,,,,,,,,,,,,,,,,,,,,,,,,,
,,,,,,,,,,stimuli/images/PICTURE_380.png,CANDY,5b5b9fdfe36fe200014d239a,27/01/1995,2020-08-13_12h52.04.249,proactive2,2020.1.2,Win32,60,5f341be081b9052c55068110,5f35294edc7ef806f6323e6e,4,,,,,,gorilla,,,,,,0,30,30,0,1,1,1,,,,,,,,,,,,,,,,,,,,,,,,,,,,,,,,,,,,,,,,,,,,,,,,,,,,,,,,,,,,,,,,,,,,,,,,,,,,,,,,,,,,,,,,,,,,,,,,,,,
,,,,,,,,,,stimuli/images/PICTURE_383.png,SERIES,5b5b9fdfe36fe200014d239a,27/01/1995,2020-08-13_12h52.04.249,proactive2,2020.1.2,Win32,60,5f341be081b9052c55068110,5f35294edc7ef806f6323e6e,4,,,,,,coin,,,,,,0,31,31,46,1,5,1,,,,,,,,,,,,,,,,,,,,,,,,,,,,,,,,,,,,,,,,,,,,,,,,,,,,,,,,,,,,,,,,,,,,,,,,,,,,,,,,,,,,,,,,,,,,,,,,,,,
,,,,,,,,,,stimuli/images/PICTURE_147.png,WOMEN,5b5b9fdfe36fe200014d239a,27/01/1995,2020-08-13_12h52.04.249,proactive2,2020.1.2,Win32,60,5f341be081b9052c55068110,5f35294edc7ef806f6323e6e,4,,,,,,hanger,,,,,,0,32,32,7,1,1,1,,,,,,,,,,,,,,,,,,,,,,,,,,,,,,,,,,,,,,,,,,,,,,,,,,,,,,,,,,,,,,,,,,,,,,,,,,,,,,,,,,,,,,,,,,,,,,,,,,,
,,,,,,,,,,stimuli/images/PICTURE_467.png,POLICY,5b5b9fdfe36fe200014d239a,27/01/1995,2020-08-13_12h52.04.249,proactive2,2020.1.2,Win32,60,5f341be081b9052c55068110,5f35294edc7ef806f6323e6e,4,,,,,,peg,,,,,,0,33,33,53,1,6,1,,,,,,,,,,,,,,,,,,,,,,,,,,,,,,,,,,,,,,,,,,,,,,,,,,,,,,,,,,,,,,,,,,,,,,,,,,,,,,,,,,,,,,,,,,,,,,,,,,,
,,,,,,,,,,stimuli/images/PICTURE_750.png,HOTEL,5b5b9fdfe36fe200014d239a,27/01/1995,2020-08-13_12h52.04.249,proactive2,2020.1.2,Win32,60,5f341be081b9052c55068110,5f35294edc7ef806f6323e6e,4,,,,,,kettle,,,,,,0,34,34,27,1,3,1,,,,,,,,,,,,,,,,,,,,,,,,,,,,,,,,,,,,,,,,,,,,,,,,,,,,,,,,,,,,,,,,,,,,,,,,,,,,,,,,,,,,,,,,,,,,,,,,,,,
,,,,,,,,,,stimuli/images/PICTURE_654.png,MONTH,5b5b9fdfe36fe200014d239a,27/01/1995,2020-08-13_12h52.04.249,proactive2,2020.1.2,Win32,60,5f341be081b9052c55068110,5f35294edc7ef806f6323e6e,4,,,,,,pencil,,,,,,0,35,35,29,1,3,1,,,,,,,,,,,,,,,,,,,,,,,,,,,,,,,,,,,,,,,,,,,,,,,,,,,,,,,,,,,,,,,,,,,,,,,,,,,,,,,,,,,,,,,,,,,,,,,,,,,
,,,,,,,,,,stimuli/images/PICTURE_108.png,POLICY,5b5b9fdfe36fe200014d239a,27/01/1995,2020-08-13_12h52.04.249,proactive2,2020.1.2,Win32,60,5f341be081b9052c55068110,5f35294edc7ef806f6323e6e,4,,,,,,calendar,,,,,,0,36,36,22,1,3,1,,,,,,,,,,,,,,,,,,,,,,,,,,,,,,,,,,,,,,,,,,,,,,,,,,,,,,,,,,,,,,,,,,,,,,,,,,,,,,,,,,,,,,,,,,,,,,,,,,,
,,,,,,,,,,stimuli/images/PICTURE_504.png,YEAR,5b5b9fdfe36fe200014d239a,27/01/1995,2020-08-13_12h52.04.249,proactive2,2020.1.2,Win32,60,5f341be081b9052c55068110,5f35294edc7ef806f6323e6e,4,,,,,,wheel,,,,,,0,37,37,13,1,2,1,,,,,,,,,,,,,,,,,,,,,,,,,,,,,,,,,,,,,,,,,,,,,,,,,,,,,,,,,,,,,,,,,,,,,,,,,,,,,,,,,,,,,,,,,,,,,,,,,,,
,,,,,,,,,,stimuli/images/PICTURE_491.png,RIVER,5b5b9fdfe36fe200014d239a,27/01/1995,2020-08-13_12h52.04.249,proactive2,2020.1.2,Win32,60,5f341be081b9052c55068110,5f35294edc7ef806f6323e6e,4,,,,,,rug,,,,,,0,38,38,6,1,1,1,,,,,,,,,,,,,,,,,,,,,,,,,,,,,,,,,,,,,,,,,,,,,,,,,,,,,,,,,,,,,,,,,,,,,,,,,,,,,,,,,,,,,,,,,,,,,,,,,,,
,,,,,,,,,,stimuli/images/PICTURE_504.png,COPS,5b5b9fdfe36fe200014d239a,27/01/1995,2020-08-13_12h52.04.249,proactive2,2020.1.2,Win32,60,5f341be081b9052c55068110,5f35294edc7ef806f6323e6e,4,,,,,,wheel,,,,,,0,39,39,52,1,6,1,,,,,,,,,,,,,,,,,,,,,,,,,,,,,,,,,,,,,,,,,,,,,,,,,,,,,,,,,,,,,,,,,,,,,,,,,,,,,,,,,,,,,,,,,,,,,,,,,,,
,,,,,,,,,,stimuli/images/PICTURE_327.png,CASINO,5b5b9fdfe36fe200014d239a,27/01/1995,2020-08-13_12h52.04.249,proactive2,2020.1.2,Win32,60,5f341be081b9052c55068110,5f35294edc7ef806f6323e6e,4,,,,,,helmet,,,,,,0,40,40,20,1,3,1,,,,,,,,,,,,,,,,,,,,,,,,,,,,,,,,,,,,,,,,,,,,,,,,,,,,,,,,,,,,,,,,,,,,,,,,,,,,,,,,,,,,,,,,,,,,,,,,,,,
,,,,,,,,,,stimuli/images/PICTURE_469.png,AGENT,5b5b9fdfe36fe200014d239a,27/01/1995,2020-08-13_12h52.04.249,proactive2,2020.1.2,Win32,60,5f341be081b9052c55068110,5f35294edc7ef806f6323e6e,4,,,,,,stool,,,,,,0,41,41,16,1,2,1,,,,,,,,,,,,,,,,,,,,,,,,,,,,,,,,,,,,,,,,,,,,,,,,,,,,,,,,,,,,,,,,,,,,,,,,,,,,,,,,,,,,,,,,,,,,,,,,,,,
,,,,,,,,,,stimuli/images/PICTURE_708.png,RECORD,5b5b9fdfe36fe200014d239a,27/01/1995,2020-08-13_12h52.04.249,proactive2,2020.1.2,Win32,60,5f341be081b9052c55068110,5f35294edc7ef806f6323e6e,4,,,,,,monkey,,,,,,0,42,42,58,1,6,1,,,,,,,,,,,,,,,,,,,,,,,,,,,,,,,,,,,,,,,,,,,,,,,,,,,,,,,,,,,,,,,,,,,,,,,,,,,,,,,,,,,,,,,,,,,,,,,,,,,
,,,,,,,,,,stimuli/images/PICTURE_68.png,ROOF,5b5b9fdfe36fe200014d239a,27/01/1995,2020-08-13_12h52.04.249,proactive2,2020.1.2,Win32,60,5f341be081b9052c55068110,5f35294edc7ef806f6323e6e,4,,,,,,candle,,,,,,0,43,43,38,1,4,1,,,,,,,,,,,,,,,,,,,,,,,,,,,,,,,,,,,,,,,,,,,,,,,,,,,,,,,,,,,,,,,,,,,,,,,,,,,,,,,,,,,,,,,,,,,,,,,,,,,
,,,,,,,,,,stimuli/images/PICTURE_403.png,WRITER,5b5b9fdfe36fe200014d239a,27/01/1995,2020-08-13_12h52.04.249,proactive2,2020.1.2,Win32,60,5f341be081b9052c55068110,5f35294edc7ef806f6323e6e,4,,,,,,cathedral,,,,,,0,44,44,31,1,4,1,,,,,,,,,,,,,,,,,,,,,,,,,,,,,,,,,,,,,,,,,,,,,,,,,,,,,,,,,,,,,,,,,,,,,,,,,,,,,,,,,,,,,,,,,,,,,,,,,,,
,,,,,,,,,,stimuli/images/PICTURE_177.png,WRITER,5b5b9fdfe36fe200014d239a,27/01/1995,2020-08-13_12h52.04.249,proactive2,2020.1.2,Win32,60,5f341be081b9052c55068110,5f35294edc7ef806f6323e6e,4,,,,,,mushroom,,,,,,0,45,45,41,1,5,1,,,,,,,,,,,,,,,,,,,,,,,,,,,,,,,,,,,,,,,,,,,,,,,,,,,,,,,,,,,,,,,,,,,,,,,,,,,,,,,,,,,,,,,,,,,,,,,,,,,
,,,,,,,,,,stimuli/images/PICTURE_383.png,WRITER,5b5b9fdfe36fe200014d239a,27/01/1995,2020-08-13_12h52.04.249,proactive2,2020.1.2,Win32,60,5f341be081b9052c55068110,5f35294edc7ef806f6323e6e,4,,,,,,coin,,,,,,0,46,46,28,1,3,1,,,,,,,,,,,,,,,,,,,,,,,,,,,,,,,,,,,,,,,,,,,,,,,,,,,,,,,,,,,,,,,,,,,,,,,,,,,,,,,,,,,,,,,,,,,,,,,,,,,
,,,,,,,,,,stimuli/images/PICTURE_233.png,LOTS,5b5b9fdfe36fe200014d239a,27/01/1995,2020-08-13_12h52.04.249,proactive2,2020.1.2,Win32,60,5f341be081b9052c55068110,5f35294edc7ef806f6323e6e,4,,,,,,salt,,,,,,0,47,47,42,1,5,1,,,,,,,,,,,,,,,,,,,,,,,,,,,,,,,,,,,,,,,,,,,,,,,,,,,,,,,,,,,,,,,,,,,,,,,,,,,,,,,,,,,,,,,,,,,,,,,,,,,
,,,,,,,,,,stimuli/images/PICTURE_405.png,PLENTY,5b5b9fdfe36fe200014d239a,27/01/1995,2020-08-13_12h52.04.249,proactive2,2020.1.2,Win32,60,5f341be081b9052c55068110,5f35294edc7ef806f6323e6e,4,,,,,,anchor,,,,,,0,48,48,23,1,3,1,,,,,,,,,,,,,,,,,,,,,,,,,,,,,,,,,,,,,,,,,,,,,,,,,,,,,,,,,,,,,,,,,,,,,,,,,,,,,,,,,,,,,,,,,,,,,,,,,,,
,,,,,,,,,,stimuli/images/PICTURE_340.png,VALLEY,5b5b9fdfe36fe200014d239a,27/01/1995,2020-08-13_12h52.04.249,proactive2,2020.1.2,Win32,60,5f341be081b9052c55068110,5f35294edc7ef806f6323e6e,4,,,,,,mirror,,,,,,0,49,49,54,1,6,1,,,,,,,,,,,,,,,,,,,,,,,,,,,,,,,,,,,,,,,,,,,,,,,,,,,,,,,,,,,,,,,,,,,,,,,,,,,,,,,,,,,,,,,,,,,,,,,,,,,
