consent_key.keys,consent_key.rt,recalled,recalled_rt,recall_acc,example_recall.thisRepN,example_recall.thisTrialN,example_recall.thisN,example_recall.thisIndex,example_recall.ran,file,word,participant,please enter your date of birth (dd/mm/yyyy),date,expName,psychopyVersion,OS,frameRate,STUDY_ID,SESSION_ID,list,prac_learn_study_loop.thisRepN,prac_learn_study_loop.thisTrialN,prac_learn_study_loop.thisN,prac_learn_study_loop.thisIndex,prac_learn_study_loop.ran,image,prac_learn_test_loop.thisRepN,prac_learn_test_loop.thisTrialN,prac_learn_test_loop.thisN,prac_learn_test_loop.thisIndex,prac_learn_test_loop.ran,learn_study_loop.thisRepN,learn_study_loop.thisTrialN,learn_study_loop.thisN,learn_study_loop.thisIndex,learn_study_loop.ran,list_no,block_no,learn_test_loop.thisRepN,learn_test_loop.thisTrialN,learn_test_loop.thisN,learn_test_loop.thisIndex,learn_test_loop.ran,learn_blocks.thisRepN,learn_blocks.thisTrialN,learn_blocks.thisN,learn_blocks.thisIndex,learn_blocks.ran,block_csv,key_resp_13.keys,key_resp_13.rt,learn_blocks_loop.thisRepN,learn_blocks_loop.thisTrialN,learn_blocks_loop.thisN,learn_blocks_loop.thisIndex,learn_blocks_loop.ran,final_learn_test.thisRepN,final_learn_test.thisTrialN,final_learn_test.thisN,final_learn_test.thisIndex,final_learn_test.ran,s_im1,s_im2,s_im3,s_im4,s_im5,s_im6,s_im7,s_im8,s_im1pos,s_im2pos,s_im3pos,s_im4pos,s_im5pos,s_im6pos,s_im7pos,s_im8pos,s_tarright,search_resp.keys,search_resp.rt,search_loop.thisRepN,search_loop.thisTrialN,search_loop.thisN,search_loop.thisIndex,search_loop.ran,prac_wm_test_loop.thisRepN,prac_wm_test_loop.thisTrialN,prac_wm_test_loop.thisN,prac_wm_test_loop.thisIndex,prac_wm_test_loop.ran,wm_recalled1,wm_recall_rt1,wm_probed1,wm_recall_acc1,wm_recalled2,wm_recall_rt2,wm_probed2,wm_recall_acc2,wm_recalled3,wm_recall_rt3,wm_probed3,wm_recall_acc3,wm_recalled4,wm_recall_rt4,wm_probed4,wm_recall_acc4,prac_wm_trial_loop.thisRepN,prac_wm_trial_loop.thisTrialN,prac_wm_trial_loop.thisN,prac_wm_trial_loop.thisIndex,prac_wm_trial_loop.ran,word1,image1,file1,item_type1,word2,image2,file2,item_type2,word4,image4,file4,item_type4,word3,image3,file3,item_type3,wm_test_loop.thisRepN,wm_test_loop.thisTrialN,wm_test_loop.thisN,wm_test_loop.thisIndex,wm_test_loop.ran,wm_trial_loop.thisRepN,wm_trial_loop.thisTrialN,wm_trial_loop.thisN,wm_trial_loop.thisIndex,wm_trial_loop.ran
y,16.499,TOUGH,3.927,1,0,0,0,0,1,stimuli/images/PICTURE_747.png,TOUGH,5b69a09840003400016ff00f,30/07/1988,2020-08-13_12h30.40.215,proactive2,2020.1.2,MacIntel,60,5f341be081b9052c55068110,5f35244c236a73485a84bc0c,1,,,,,,,,,,,,,,,,,,,,,,,,,,,,,,,,,,,,,,,,,,,,,,,,,,,,,,,,,,,,,,,,,,,,,,,,,,,,,,,,,,,,,,,,,,,,,,,,,,,,,,,,,,,,,,,,,,,,,
,,,,,,,,,,stimuli/images/PICTURE_697.png,KILLER,5b69a09840003400016ff00f,30/07/1988,2020-08-13_12h30.40.215,proactive2,2020.1.2,MacIntel,60,5f341be081b9052c55068110,5f35244c236a73485a84bc0c,1,0,0,0,4,1,peach,,,,,,,,,,,,,,,,,,,,,,,,,,,,,,,,,,,,,,,,,,,,,,,,,,,,,,,,,,,,,,,,,,,,,,,,,,,,,,,,,,,,,,,,,,,,,,,,,,,,,,,,,,,,,,,
,,,,,,,,,,stimuli/images/PICTURE_269.png,GENIUS,5b69a09840003400016ff00f,30/07/1988,2020-08-13_12h30.40.215,proactive2,2020.1.2,MacIntel,60,5f341be081b9052c55068110,5f35244c236a73485a84bc0c,1,0,1,1,0,1,chameleon,,,,,,,,,,,,,,,,,,,,,,,,,,,,,,,,,,,,,,,,,,,,,,,,,,,,,,,,,,,,,,,,,,,,,,,,,,,,,,,,,,,,,,,,,,,,,,,,,,,,,,,,,,,,,,,
,,,,,,,,,,stimuli/images/PICTURE_727.png,CELL,5b69a09840003400016ff00f,30/07/1988,2020-08-13_12h30.40.215,proactive2,2020.1.2,MacIntel,60,5f341be081b9052c55068110,5f35244c236a73485a84bc0c,1,0,2,2,1,1,hose,,,,,,,,,,,,,,,,,,,,,,,,,,,,,,,,,,,,,,,,,,,,,,,,,,,,,,,,,,,,,,,,,,,,,,,,,,,,,,,,,,,,,,,,,,,,,,,,,,,,,,,,,,,,,,,
,,,,,,,,,,stimuli/images/PICTURE_378.png,LOSS,5b69a09840003400016ff00f,30/07/1988,2020-08-13_12h30.40.215,proactive2,2020.1.2,MacIntel,60,5f341be081b9052c55068110,5f35244c236a73485a84bc0c,1,0,3,3,2,1,lobster,,,,,,,,,,,,,,,,,,,,,,,,,,,,,,,,,,,,,,,,,,,,,,,,,,,,,,,,,,,,,,,,,,,,,,,,,,,,,,,,,,,,,,,,,,,,,,,,,,,,,,,,,,,,,,,
,,KILLER,2.131,1,,,,,,stimuli/images/PICTURE_697.png,KILLER,5b69a09840003400016ff00f,30/07/1988,2020-08-13_12h30.40.215,proactive2,2020.1.2,MacIntel,60,5f341be081b9052c55068110,5f35244c236a73485a84bc0c,1,,,,,,peach,0,0,0,4,1,,,,,,,,,,,,,,,,,,,,,,,,,,,,,,,,,,,,,,,,,,,,,,,,,,,,,,,,,,,,,,,,,,,,,,,,,,,,,,,,,,,,,,,,,,,,,,,,,,,,,,,,,,
,,LOSS,1.783,1,,,,,,stimuli/images/PICTURE_378.png,LOSS,5b69a09840003400016ff00f,30/07/1988,2020-08-13_12h30.40.215,proactive2,2020.1.2,MacIntel,60,5f341be081b9052c55068110,5f35244c236a73485a84bc0c,1,,,,,,lobster,0,1,1,2,1,,,,,,,,,,,,,,,,,,,,,,,,,,,,,,,,,,,,,,,,,,,,,,,,,,,,,,,,,,,,,,,,,,,,,,,,,,,,,,,,,,,,,,,,,,,,,,,,,,,,,,,,,,
,,CELL,1.8,1,,,,,,stimuli/images/PICTURE_727.png,CELL,5b69a09840003400016ff00f,30/07/1988,2020-08-13_12h30.40.215,proactive2,2020.1.2,MacIntel,60,5f341be081b9052c55068110,5f35244c236a73485a84bc0c,1,,,,,,hose,0,2,2,1,1,,,,,,,,,,,,,,,,,,,,,,,,,,,,,,,,,,,,,,,,,,,,,,,,,,,,,,,,,,,,,,,,,,,,,,,,,,,,,,,,,,,,,,,,,,,,,,,,,,,,,,,,,,
,,GENIUS,2.751,1,,,,,,stimuli/images/PICTURE_269.png,GENIUS,5b69a09840003400016ff00f,30/07/1988,2020-08-13_12h30.40.215,proactive2,2020.1.2,MacIntel,60,5f341be081b9052c55068110,5f35244c236a73485a84bc0c,1,,,,,,chameleon,0,3,3,0,1,,,,,,,,,,,,,,,,,,,,,,,,,,,,,,,,,,,,,,,,,,,,,,,,,,,,,,,,,,,,,,,,,,,,,,,,,,,,,,,,,,,,,,,,,,,,,,,,,,,,,,,,,,
,,EVIL,1.517,0,,,,,,stimuli/images/PICTURE_658.png,DEVIL,5b69a09840003400016ff00f,30/07/1988,2020-08-13_12h30.40.215,proactive2,2020.1.2,MacIntel,60,5f341be081b9052c55068110,5f35244c236a73485a84bc0c,1,,,,,,crow,0,4,4,3,1,,,,,,,,,,,,,,,,,,,,,,,,,,,,,,,,,,,,,,,,,,,,,,,,,,,,,,,,,,,,,,,,,,,,,,,,,,,,,,,,,,,,,,,,,,,,,,,,,,,,,,,,,,
,,,,,,,,,,stimuli/images/PICTURE_311.png,BEAUTY,5b69a09840003400016ff00f,30/07/1988,2020-08-13_12h30.40.215,proactive2,2020.1.2,MacIntel,60,5f341be081b9052c55068110,5f35244c236a73485a84bc0c,1,,,,,,razor,,,,,,0,0,0,13,1,2,0,,,,,,,,,,,,,,,,,,,,,,,,,,,,,,,,,,,,,,,,,,,,,,,,,,,,,,,,,,,,,,,,,,,,,,,,,,,,,,,,,,,,,,,,,,,,,,,,,,,
,,,,,,,,,,stimuli/images/PICTURE_688.png,WOMEN,5b69a09840003400016ff00f,30/07/1988,2020-08-13_12h30.40.215,proactive2,2020.1.2,MacIntel,60,5f341be081b9052c55068110,5f35244c236a73485a84bc0c,1,,,,,,runner,,,,,,0,1,1,14,1,2,0,,,,,,,,,,,,,,,,,,,,,,,,,,,,,,,,,,,,,,,,,,,,,,,,,,,,,,,,,,,,,,,,,,,,,,,,,,,,,,,,,,,,,,,,,,,,,,,,,,,
,,,,,,,,,,stimuli/images/PICTURE_453.png,DUDE,5b69a09840003400016ff00f,30/07/1988,2020-08-13_12h30.40.215,proactive2,2020.1.2,MacIntel,60,5f341be081b9052c55068110,5f35244c236a73485a84bc0c,1,,,,,,scissors,,,,,,0,2,2,27,1,3,0,,,,,,,,,,,,,,,,,,,,,,,,,,,,,,,,,,,,,,,,,,,,,,,,,,,,,,,,,,,,,,,,,,,,,,,,,,,,,,,,,,,,,,,,,,,,,,,,,,,
,,,,,,,,,,stimuli/images/PICTURE_32.png,JUNGLE,5b69a09840003400016ff00f,30/07/1988,2020-08-13_12h30.40.215,proactive2,2020.1.2,MacIntel,60,5f341be081b9052c55068110,5f35244c236a73485a84bc0c,1,,,,,,crown,,,,,,0,3,3,45,1,5,0,,,,,,,,,,,,,,,,,,,,,,,,,,,,,,,,,,,,,,,,,,,,,,,,,,,,,,,,,,,,,,,,,,,,,,,,,,,,,,,,,,,,,,,,,,,,,,,,,,,
,,,,,,,,,,stimuli/images/PICTURE_177.png,CARS,5b69a09840003400016ff00f,30/07/1988,2020-08-13_12h30.40.215,proactive2,2020.1.2,MacIntel,60,5f341be081b9052c55068110,5f35244c236a73485a84bc0c,1,,,,,,mushroom,,,,,,0,4,4,35,1,4,0,,,,,,,,,,,,,,,,,,,,,,,,,,,,,,,,,,,,,,,,,,,,,,,,,,,,,,,,,,,,,,,,,,,,,,,,,,,,,,,,,,,,,,,,,,,,,,,,,,,
,,,,,,,,,,stimuli/images/PICTURE_449.png,THING,5b69a09840003400016ff00f,30/07/1988,2020-08-13_12h30.40.215,proactive2,2020.1.2,MacIntel,60,5f341be081b9052c55068110,5f35244c236a73485a84bc0c,1,,,,,,bench,,,,,,0,5,5,59,1,6,0,,,,,,,,,,,,,,,,,,,,,,,,,,,,,,,,,,,,,,,,,,,,,,,,,,,,,,,,,,,,,,,,,,,,,,,,,,,,,,,,,,,,,,,,,,,,,,,,,,,
,,,,,,,,,,stimuli/images/PICTURE_675.png,WEAPON,5b69a09840003400016ff00f,30/07/1988,2020-08-13_12h30.40.215,proactive2,2020.1.2,MacIntel,60,5f341be081b9052c55068110,5f35244c236a73485a84bc0c,1,,,,,,windmill,,,,,,0,6,6,32,1,4,0,,,,,,,,,,,,,,,,,,,,,,,,,,,,,,,,,,,,,,,,,,,,,,,,,,,,,,,,,,,,,,,,,,,,,,,,,,,,,,,,,,,,,,,,,,,,,,,,,,,
,,,,,,,,,,stimuli/images/PICTURE_744.png,SAKE,5b69a09840003400016ff00f,30/07/1988,2020-08-13_12h30.40.215,proactive2,2020.1.2,MacIntel,60,5f341be081b9052c55068110,5f35244c236a73485a84bc0c,1,,,,,,ring,,,,,,0,7,7,17,1,2,0,,,,,,,,,,,,,,,,,,,,,,,,,,,,,,,,,,,,,,,,,,,,,,,,,,,,,,,,,,,,,,,,,,,,,,,,,,,,,,,,,,,,,,,,,,,,,,,,,,,
,,,,,,,,,,stimuli/images/PICTURE_314.png,GODS,5b69a09840003400016ff00f,30/07/1988,2020-08-13_12h30.40.215,proactive2,2020.1.2,MacIntel,60,5f341be081b9052c55068110,5f35244c236a73485a84bc0c,1,,,,,,perfume,,,,,,0,8,8,11,1,2,0,,,,,,,,,,,,,,,,,,,,,,,,,,,,,,,,,,,,,,,,,,,,,,,,,,,,,,,,,,,,,,,,,,,,,,,,,,,,,,,,,,,,,,,,,,,,,,,,,,,
,,,,,,,,,,stimuli/images/PICTURE_469.png,ARTIST,5b69a09840003400016ff00f,30/07/1988,2020-08-13_12h30.40.215,proactive2,2020.1.2,MacIntel,60,5f341be081b9052c55068110,5f35244c236a73485a84bc0c,1,,,,,,stool,,,,,,0,9,9,6,1,1,0,,,,,,,,,,,,,,,,,,,,,,,,,,,,,,,,,,,,,,,,,,,,,,,,,,,,,,,,,,,,,,,,,,,,,,,,,,,,,,,,,,,,,,,,,,,,,,,,,,,
,,,,,,,,,,stimuli/images/PICTURE_487.png,FLIGHT,5b69a09840003400016ff00f,30/07/1988,2020-08-13_12h30.40.215,proactive2,2020.1.2,MacIntel,60,5f341be081b9052c55068110,5f35244c236a73485a84bc0c,1,,,,,,basket,,,,,,0,10,10,9,1,1,0,,,,,,,,,,,,,,,,,,,,,,,,,,,,,,,,,,,,,,,,,,,,,,,,,,,,,,,,,,,,,,,,,,,,,,,,,,,,,,,,,,,,,,,,,,,,,,,,,,,
,,,,,,,,,,stimuli/images/PICTURE_708.png,YARD,5b69a09840003400016ff00f,30/07/1988,2020-08-13_12h30.40.215,proactive2,2020.1.2,MacIntel,60,5f341be081b9052c55068110,5f35244c236a73485a84bc0c,1,,,,,,monkey,,,,,,0,11,11,29,1,3,0,,,,,,,,,,,,,,,,,,,,,,,,,,,,,,,,,,,,,,,,,,,,,,,,,,,,,,,,,,,,,,,,,,,,,,,,,,,,,,,,,,,,,,,,,,,,,,,,,,,
,,,,,,,,,,stimuli/images/PICTURE_147.png,MOMENT,5b69a09840003400016ff00f,30/07/1988,2020-08-13_12h30.40.215,proactive2,2020.1.2,MacIntel,60,5f341be081b9052c55068110,5f35244c236a73485a84bc0c,1,,,,,,hanger,,,,,,0,12,12,51,1,6,0,,,,,,,,,,,,,,,,,,,,,,,,,,,,,,,,,,,,,,,,,,,,,,,,,,,,,,,,,,,,,,,,,,,,,,,,,,,,,,,,,,,,,,,,,,,,,,,,,,,
,,,,,,,,,,stimuli/images/PICTURE_68.png,MILE,5b69a09840003400016ff00f,30/07/1988,2020-08-13_12h30.40.215,proactive2,2020.1.2,MacIntel,60,5f341be081b9052c55068110,5f35244c236a73485a84bc0c,1,,,,,,candle,,,,,,0,13,13,44,1,5,0,,,,,,,,,,,,,,,,,,,,,,,,,,,,,,,,,,,,,,,,,,,,,,,,,,,,,,,,,,,,,,,,,,,,,,,,,,,,,,,,,,,,,,,,,,,,,,,,,,,
,,,,,,,,,,stimuli/images/PICTURE_248.png,DOZEN,5b69a09840003400016ff00f,30/07/1988,2020-08-13_12h30.40.215,proactive2,2020.1.2,MacIntel,60,5f341be081b9052c55068110,5f35244c236a73485a84bc0c,1,,,,,,cart,,,,,,0,14,14,39,1,4,0,,,,,,,,,,,,,,,,,,,,,,,,,,,,,,,,,,,,,,,,,,,,,,,,,,,,,,,,,,,,,,,,,,,,,,,,,,,,,,,,,,,,,,,,,,,,,,,,,,,
,,,,,,,,,,stimuli/images/PICTURE_208.png,LOTS,5b69a09840003400016ff00f,30/07/1988,2020-08-13_12h30.40.215,proactive2,2020.1.2,MacIntel,60,5f341be081b9052c55068110,5f35244c236a73485a84bc0c,1,,,,,,microphone,,,,,,0,15,15,10,1,2,0,,,,,,,,,,,,,,,,,,,,,,,,,,,,,,,,,,,,,,,,,,,,,,,,,,,,,,,,,,,,,,,,,,,,,,,,,,,,,,,,,,,,,,,,,,,,,,,,,,,
,,,,,,,,,,stimuli/images/PICTURE_744.png,SYSTEM,5b69a09840003400016ff00f,30/07/1988,2020-08-13_12h30.40.215,proactive2,2020.1.2,MacIntel,60,5f341be081b9052c55068110,5f35244c236a73485a84bc0c,1,,,,,,ring,,,,,,0,16,16,43,1,5,0,,,,,,,,,,,,,,,,,,,,,,,,,,,,,,,,,,,,,,,,,,,,,,,,,,,,,,,,,,,,,,,,,,,,,,,,,,,,,,,,,,,,,,,,,,,,,,,,,,,
,,,,,,,,,,stimuli/images/PICTURE_203.png,ARTIST,5b69a09840003400016ff00f,30/07/1988,2020-08-13_12h30.40.215,proactive2,2020.1.2,MacIntel,60,5f341be081b9052c55068110,5f35244c236a73485a84bc0c,1,,,,,,cap,,,,,,0,17,17,26,1,3,0,,,,,,,,,,,,,,,,,,,,,,,,,,,,,,,,,,,,,,,,,,,,,,,,,,,,,,,,,,,,,,,,,,,,,,,,,,,,,,,,,,,,,,,,,,,,,,,,,,,
,,,,,,,,,,stimuli/images/PICTURE_233.png,IDEAS,5b69a09840003400016ff00f,30/07/1988,2020-08-13_12h30.40.215,proactive2,2020.1.2,MacIntel,60,5f341be081b9052c55068110,5f35244c236a73485a84bc0c,1,,,,,,salt,,,,,,0,18,18,28,1,3,0,,,,,,,,,,,,,,,,,,,,,,,,,,,,,,,,,,,,,,,,,,,,,,,,,,,,,,,,,,,,,,,,,,,,,,,,,,,,,,,,,,,,,,,,,,,,,,,,,,,
,,,,,,,,,,stimuli/images/PICTURE_255.png,AREA,5b69a09840003400016ff00f,30/07/1988,2020-08-13_12h30.40.215,proactive2,2020.1.2,MacIntel,60,5f341be081b9052c55068110,5f35244c236a73485a84bc0c,1,,,,,,shovel,,,,,,0,19,19,22,1,3,0,,,,,,,,,,,,,,,,,,,,,,,,,,,,,,,,,,,,,,,,,,,,,,,,,,,,,,,,,,,,,,,,,,,,,,,,,,,,,,,,,,,,,,,,,,,,,,,,,,,
,,,,,,,,,,stimuli/images/PICTURE_208.png,THING,5b69a09840003400016ff00f,30/07/1988,2020-08-13_12h30.40.215,proactive2,2020.1.2,MacIntel,60,5f341be081b9052c55068110,5f35244c236a73485a84bc0c,1,,,,,,microphone,,,,,,0,20,20,47,1,5,0,,,,,,,,,,,,,,,,,,,,,,,,,,,,,,,,,,,,,,,,,,,,,,,,,,,,,,,,,,,,,,,,,,,,,,,,,,,,,,,,,,,,,,,,,,,,,,,,,,,
,,,,,,,,,,stimuli/images/PICTURE_314.png,SAKE,5b69a09840003400016ff00f,30/07/1988,2020-08-13_12h30.40.215,proactive2,2020.1.2,MacIntel,60,5f341be081b9052c55068110,5f35244c236a73485a84bc0c,1,,,,,,perfume,,,,,,0,21,21,7,1,1,0,,,,,,,,,,,,,,,,,,,,,,,,,,,,,,,,,,,,,,,,,,,,,,,,,,,,,,,,,,,,,,,,,,,,,,,,,,,,,,,,,,,,,,,,,,,,,,,,,,,
,,,,,,,,,,stimuli/images/PICTURE_467.png,DEMON,5b69a09840003400016ff00f,30/07/1988,2020-08-13_12h30.40.215,proactive2,2020.1.2,MacIntel,60,5f341be081b9052c55068110,5f35244c236a73485a84bc0c,1,,,,,,peg,,,,,,0,22,22,23,1,3,0,,,,,,,,,,,,,,,,,,,,,,,,,,,,,,,,,,,,,,,,,,,,,,,,,,,,,,,,,,,,,,,,,,,,,,,,,,,,,,,,,,,,,,,,,,,,,,,,,,,
,,,,,,,,,,stimuli/images/PICTURE_380.png,DEATH,5b69a09840003400016ff00f,30/07/1988,2020-08-13_12h30.40.215,proactive2,2020.1.2,MacIntel,60,5f341be081b9052c55068110,5f35244c236a73485a84bc0c,1,,,,,,gorilla,,,,,,0,23,23,49,1,5,0,,,,,,,,,,,,,,,,,,,,,,,,,,,,,,,,,,,,,,,,,,,,,,,,,,,,,,,,,,,,,,,,,,,,,,,,,,,,,,,,,,,,,,,,,,,,,,,,,,,
,,,,,,,,,,stimuli/images/PICTURE_85.png,THING,5b69a09840003400016ff00f,30/07/1988,2020-08-13_12h30.40.215,proactive2,2020.1.2,MacIntel,60,5f341be081b9052c55068110,5f35244c236a73485a84bc0c,1,,,,,,diamond,,,,,,0,24,24,15,1,2,0,,,,,,,,,,,,,,,,,,,,,,,,,,,,,,,,,,,,,,,,,,,,,,,,,,,,,,,,,,,,,,,,,,,,,,,,,,,,,,,,,,,,,,,,,,,,,,,,,,,
,,,,,,,,,,stimuli/images/PICTURE_327.png,BEAUTY,5b69a09840003400016ff00f,30/07/1988,2020-08-13_12h30.40.215,proactive2,2020.1.2,MacIntel,60,5f341be081b9052c55068110,5f35244c236a73485a84bc0c,1,,,,,,helmet,,,,,,0,25,25,48,1,5,0,,,,,,,,,,,,,,,,,,,,,,,,,,,,,,,,,,,,,,,,,,,,,,,,,,,,,,,,,,,,,,,,,,,,,,,,,,,,,,,,,,,,,,,,,,,,,,,,,,,
,,,,,,,,,,stimuli/images/PICTURE_308.png,ESTATE,5b69a09840003400016ff00f,30/07/1988,2020-08-13_12h30.40.215,proactive2,2020.1.2,MacIntel,60,5f341be081b9052c55068110,5f35244c236a73485a84bc0c,1,,,,,,dice,,,,,,0,26,26,46,1,5,0,,,,,,,,,,,,,,,,,,,,,,,,,,,,,,,,,,,,,,,,,,,,,,,,,,,,,,,,,,,,,,,,,,,,,,,,,,,,,,,,,,,,,,,,,,,,,,,,,,,
,,,,,,,,,,stimuli/images/PICTURE_160.png,LEADER,5b69a09840003400016ff00f,30/07/1988,2020-08-13_12h30.40.215,proactive2,2020.1.2,MacIntel,60,5f341be081b9052c55068110,5f35244c236a73485a84bc0c,1,,,,,,wheelbarrow,,,,,,0,27,27,3,1,1,0,,,,,,,,,,,,,,,,,,,,,,,,,,,,,,,,,,,,,,,,,,,,,,,,,,,,,,,,,,,,,,,,,,,,,,,,,,,,,,,,,,,,,,,,,,,,,,,,,,,
,,,,,,,,,,stimuli/images/PICTURE_692.png,MONTH,5b69a09840003400016ff00f,30/07/1988,2020-08-13_12h30.40.215,proactive2,2020.1.2,MacIntel,60,5f341be081b9052c55068110,5f35244c236a73485a84bc0c,1,,,,,,cherry,,,,,,0,28,28,16,1,2,0,,,,,,,,,,,,,,,,,,,,,,,,,,,,,,,,,,,,,,,,,,,,,,,,,,,,,,,,,,,,,,,,,,,,,,,,,,,,,,,,,,,,,,,,,,,,,,,,,,,
,,,,,,,,,,stimuli/images/PICTURE_504.png,BODY,5b69a09840003400016ff00f,30/07/1988,2020-08-13_12h30.40.215,proactive2,2020.1.2,MacIntel,60,5f341be081b9052c55068110,5f35244c236a73485a84bc0c,1,,,,,,wheel,,,,,,0,29,29,8,1,1,0,,,,,,,,,,,,,,,,,,,,,,,,,,,,,,,,,,,,,,,,,,,,,,,,,,,,,,,,,,,,,,,,,,,,,,,,,,,,,,,,,,,,,,,,,,,,,,,,,,,
,,,,,,,,,,stimuli/images/PICTURE_348.png,SPEECH,5b69a09840003400016ff00f,30/07/1988,2020-08-13_12h30.40.215,proactive2,2020.1.2,MacIntel,60,5f341be081b9052c55068110,5f35244c236a73485a84bc0c,1,,,,,,pepper,,,,,,0,30,30,20,1,3,0,,,,,,,,,,,,,,,,,,,,,,,,,,,,,,,,,,,,,,,,,,,,,,,,,,,,,,,,,,,,,,,,,,,,,,,,,,,,,,,,,,,,,,,,,,,,,,,,,,,
,,,,,,,,,,stimuli/images/PICTURE_708.png,PENNY,5b69a09840003400016ff00f,30/07/1988,2020-08-13_12h30.40.215,proactive2,2020.1.2,MacIntel,60,5f341be081b9052c55068110,5f35244c236a73485a84bc0c,1,,,,,,monkey,,,,,,0,31,31,31,1,4,0,,,,,,,,,,,,,,,,,,,,,,,,,,,,,,,,,,,,,,,,,,,,,,,,,,,,,,,,,,,,,,,,,,,,,,,,,,,,,,,,,,,,,,,,,,,,,,,,,,,
,,,,,,,,,,stimuli/images/PICTURE_215.png,PLENTY,5b69a09840003400016ff00f,30/07/1988,2020-08-13_12h30.40.215,proactive2,2020.1.2,MacIntel,60,5f341be081b9052c55068110,5f35244c236a73485a84bc0c,1,,,,,,boot,,,,,,0,32,32,37,1,4,0,,,,,,,,,,,,,,,,,,,,,,,,,,,,,,,,,,,,,,,,,,,,,,,,,,,,,,,,,,,,,,,,,,,,,,,,,,,,,,,,,,,,,,,,,,,,,,,,,,,
,,,,,,,,,,stimuli/images/PICTURE_160.png,FEET,5b69a09840003400016ff00f,30/07/1988,2020-08-13_12h30.40.215,proactive2,2020.1.2,MacIntel,60,5f341be081b9052c55068110,5f35244c236a73485a84bc0c,1,,,,,,wheelbarrow,,,,,,0,33,33,58,1,6,0,,,,,,,,,,,,,,,,,,,,,,,,,,,,,,,,,,,,,,,,,,,,,,,,,,,,,,,,,,,,,,,,,,,,,,,,,,,,,,,,,,,,,,,,,,,,,,,,,,,
,,,,,,,,,,stimuli/images/PICTURE_311.png,FRIEND,5b69a09840003400016ff00f,30/07/1988,2020-08-13_12h30.40.215,proactive2,2020.1.2,MacIntel,60,5f341be081b9052c55068110,5f35244c236a73485a84bc0c,1,,,,,,razor,,,,,,0,34,34,34,1,4,0,,,,,,,,,,,,,,,,,,,,,,,,,,,,,,,,,,,,,,,,,,,,,,,,,,,,,,,,,,,,,,,,,,,,,,,,,,,,,,,,,,,,,,,,,,,,,,,,,,,
,,,,,,,,,,stimuli/images/PICTURE_469.png,LETTER,5b69a09840003400016ff00f,30/07/1988,2020-08-13_12h30.40.215,proactive2,2020.1.2,MacIntel,60,5f341be081b9052c55068110,5f35244c236a73485a84bc0c,1,,,,,,stool,,,,,,0,35,35,42,1,5,0,,,,,,,,,,,,,,,,,,,,,,,,,,,,,,,,,,,,,,,,,,,,,,,,,,,,,,,,,,,,,,,,,,,,,,,,,,,,,,,,,,,,,,,,,,,,,,,,,,,
,,,,,,,,,,stimuli/images/PICTURE_470.png,CASINO,5b69a09840003400016ff00f,30/07/1988,2020-08-13_12h30.40.215,proactive2,2020.1.2,MacIntel,60,5f341be081b9052c55068110,5f35244c236a73485a84bc0c,1,,,,,,motorbike,,,,,,0,36,36,36,1,4,0,,,,,,,,,,,,,,,,,,,,,,,,,,,,,,,,,,,,,,,,,,,,,,,,,,,,,,,,,,,,,,,,,,,,,,,,,,,,,,,,,,,,,,,,,,,,,,,,,,,
,,,,,,,,,,stimuli/images/PICTURE_491.png,WRITER,5b69a09840003400016ff00f,30/07/1988,2020-08-13_12h30.40.215,proactive2,2020.1.2,MacIntel,60,5f341be081b9052c55068110,5f35244c236a73485a84bc0c,1,,,,,,rug,,,,,,0,37,37,57,1,6,0,,,,,,,,,,,,,,,,,,,,,,,,,,,,,,,,,,,,,,,,,,,,,,,,,,,,,,,,,,,,,,,,,,,,,,,,,,,,,,,,,,,,,,,,,,,,,,,,,,,
,,,,,,,,,,stimuli/images/PICTURE_233.png,WOMEN,5b69a09840003400016ff00f,30/07/1988,2020-08-13_12h30.40.215,proactive2,2020.1.2,MacIntel,60,5f341be081b9052c55068110,5f35244c236a73485a84bc0c,1,,,,,,salt,,,,,,0,38,38,38,1,4,0,,,,,,,,,,,,,,,,,,,,,,,,,,,,,,,,,,,,,,,,,,,,,,,,,,,,,,,,,,,,,,,,,,,,,,,,,,,,,,,,,,,,,,,,,,,,,,,,,,,
,,,,,,,,,,stimuli/images/PICTURE_302.png,FAMILY,5b69a09840003400016ff00f,30/07/1988,2020-08-13_12h30.40.215,proactive2,2020.1.2,MacIntel,60,5f341be081b9052c55068110,5f35244c236a73485a84bc0c,1,,,,,,taxi,,,,,,0,39,39,18,1,2,0,,,,,,,,,,,,,,,,,,,,,,,,,,,,,,,,,,,,,,,,,,,,,,,,,,,,,,,,,,,,,,,,,,,,,,,,,,,,,,,,,,,,,,,,,,,,,,,,,,,
,,,,,,,,,,stimuli/images/PICTURE_339.png,PLENTY,5b69a09840003400016ff00f,30/07/1988,2020-08-13_12h30.40.215,proactive2,2020.1.2,MacIntel,60,5f341be081b9052c55068110,5f35244c236a73485a84bc0c,1,,,,,,backpack,,,,,,0,40,40,0,1,1,0,,,,,,,,,,,,,,,,,,,,,,,,,,,,,,,,,,,,,,,,,,,,,,,,,,,,,,,,,,,,,,,,,,,,,,,,,,,,,,,,,,,,,,,,,,,,,,,,,,,
,,,,,,,,,,stimuli/images/PICTURE_208.png,MONTH,5b69a09840003400016ff00f,30/07/1988,2020-08-13_12h30.40.215,proactive2,2020.1.2,MacIntel,60,5f341be081b9052c55068110,5f35244c236a73485a84bc0c,1,,,,,,microphone,,,,,,0,41,41,53,1,6,0,,,,,,,,,,,,,,,,,,,,,,,,,,,,,,,,,,,,,,,,,,,,,,,,,,,,,,,,,,,,,,,,,,,,,,,,,,,,,,,,,,,,,,,,,,,,,,,,,,,
,,,,,,,,,,stimuli/images/PICTURE_151.png,GIRL,5b69a09840003400016ff00f,30/07/1988,2020-08-13_12h30.40.215,proactive2,2020.1.2,MacIntel,60,5f341be081b9052c55068110,5f35244c236a73485a84bc0c,1,,,,,,tray,,,,,,0,42,42,19,1,2,0,,,,,,,,,,,,,,,,,,,,,,,,,,,,,,,,,,,,,,,,,,,,,,,,,,,,,,,,,,,,,,,,,,,,,,,,,,,,,,,,,,,,,,,,,,,,,,,,,,,
,,,,,,,,,,stimuli/images/PICTURE_491.png,ROOF,5b69a09840003400016ff00f,30/07/1988,2020-08-13_12h30.40.215,proactive2,2020.1.2,MacIntel,60,5f341be081b9052c55068110,5f35244c236a73485a84bc0c,1,,,,,,rug,,,,,,0,43,43,24,1,3,0,,,,,,,,,,,,,,,,,,,,,,,,,,,,,,,,,,,,,,,,,,,,,,,,,,,,,,,,,,,,,,,,,,,,,,,,,,,,,,,,,,,,,,,,,,,,,,,,,,,
,,,,,,,,,,stimuli/images/PICTURE_285.png,ADVICE,5b69a09840003400016ff00f,30/07/1988,2020-08-13_12h30.40.215,proactive2,2020.1.2,MacIntel,60,5f341be081b9052c55068110,5f35244c236a73485a84bc0c,1,,,,,,carrot,,,,,,0,44,44,12,1,2,0,,,,,,,,,,,,,,,,,,,,,,,,,,,,,,,,,,,,,,,,,,,,,,,,,,,,,,,,,,,,,,,,,,,,,,,,,,,,,,,,,,,,,,,,,,,,,,,,,,,
,,,,,,,,,,stimuli/images/PICTURE_509.png,PHOTO,5b69a09840003400016ff00f,30/07/1988,2020-08-13_12h30.40.215,proactive2,2020.1.2,MacIntel,60,5f341be081b9052c55068110,5f35244c236a73485a84bc0c,1,,,,,,telephone,,,,,,0,45,45,21,1,3,0,,,,,,,,,,,,,,,,,,,,,,,,,,,,,,,,,,,,,,,,,,,,,,,,,,,,,,,,,,,,,,,,,,,,,,,,,,,,,,,,,,,,,,,,,,,,,,,,,,,
,,,,,,,,,,stimuli/images/PICTURE_688.png,CASINO,5b69a09840003400016ff00f,30/07/1988,2020-08-13_12h30.40.215,proactive2,2020.1.2,MacIntel,60,5f341be081b9052c55068110,5f35244c236a73485a84bc0c,1,,,,,,runner,,,,,,0,46,46,2,1,1,0,,,,,,,,,,,,,,,,,,,,,,,,,,,,,,,,,,,,,,,,,,,,,,,,,,,,,,,,,,,,,,,,,,,,,,,,,,,,,,,,,,,,,,,,,,,,,,,,,,,
,,,,,,,,,,stimuli/images/PICTURE_453.png,PLENTY,5b69a09840003400016ff00f,30/07/1988,2020-08-13_12h30.40.215,proactive2,2020.1.2,MacIntel,60,5f341be081b9052c55068110,5f35244c236a73485a84bc0c,1,,,,,,scissors,,,,,,0,47,47,56,1,6,0,,,,,,,,,,,,,,,,,,,,,,,,,,,,,,,,,,,,,,,,,,,,,,,,,,,,,,,,,,,,,,,,,,,,,,,,,,,,,,,,,,,,,,,,,,,,,,,,,,,
,,,,,,,,,,stimuli/images/PICTURE_654.png,VALLEY,5b69a09840003400016ff00f,30/07/1988,2020-08-13_12h30.40.215,proactive2,2020.1.2,MacIntel,60,5f341be081b9052c55068110,5f35244c236a73485a84bc0c,1,,,,,,pencil,,,,,,0,48,48,1,1,1,0,,,,,,,,,,,,,,,,,,,,,,,,,,,,,,,,,,,,,,,,,,,,,,,,,,,,,,,,,,,,,,,,,,,,,,,,,,,,,,,,,,,,,,,,,,,,,,,,,,,
,,,,,,,,,,stimuli/images/PICTURE_667.png,BATH,5b69a09840003400016ff00f,30/07/1988,2020-08-13_12h30.40.215,proactive2,2020.1.2,MacIntel,60,5f341be081b9052c55068110,5f35244c236a73485a84bc0c,1,,,,,,daisy,,,,,,0,49,49,4,1,1,0,,,,,,,,,,,,,,,,,,,,,,,,,,,,,,,,,,,,,,,,,,,,,,,,,,,,,,,,,,,,,,,,,,,,,,,,,,,,,,,,,,,,,,,,,,,,,,,,,,,
,,,,,,,,,,stimuli/images/PICTURE_123.png,ADVICE,5b69a09840003400016ff00f,30/07/1988,2020-08-13_12h30.40.215,proactive2,2020.1.2,MacIntel,60,5f341be081b9052c55068110,5f35244c236a73485a84bc0c,1,,,,,,dart,,,,,,0,50,50,50,1,6,0,,,,,,,,,,,,,,,,,,,,,,,,,,,,,,,,,,,,,,,,,,,,,,,,,,,,,,,,,,,,,,,,,,,,,,,,,,,,,,,,,,,,,,,,,,,,,,,,,,,
,,,,,,,,,,stimuli/images/PICTURE_95.png,STYLE,5b69a09840003400016ff00f,30/07/1988,2020-08-13_12h30.40.215,proactive2,2020.1.2,MacIntel,60,5f341be081b9052c55068110,5f35244c236a73485a84bc0c,1,,,,,,suitcase,,,,,,0,51,51,25,1,3,0,,,,,,,,,,,,,,,,,,,,,,,,,,,,,,,,,,,,,,,,,,,,,,,,,,,,,,,,,,,,,,,,,,,,,,,,,,,,,,,,,,,,,,,,,,,,,,,,,,,
,,,,,,,,,,stimuli/images/PICTURE_488.png,STYLE,5b69a09840003400016ff00f,30/07/1988,2020-08-13_12h30.40.215,proactive2,2020.1.2,MacIntel,60,5f341be081b9052c55068110,5f35244c236a73485a84bc0c,1,,,,,,sun,,,,,,0,52,52,33,1,4,0,,,,,,,,,,,,,,,,,,,,,,,,,,,,,,,,,,,,,,,,,,,,,,,,,,,,,,,,,,,,,,,,,,,,,,,,,,,,,,,,,,,,,,,,,,,,,,,,,,,
,,,,,,,,,,stimuli/images/PICTURE_667.png,PLENTY,5b69a09840003400016ff00f,30/07/1988,2020-08-13_12h30.40.215,proactive2,2020.1.2,MacIntel,60,5f341be081b9052c55068110,5f35244c236a73485a84bc0c,1,,,,,,daisy,,,,,,0,53,53,41,1,5,0,,,,,,,,,,,,,,,,,,,,,,,,,,,,,,,,,,,,,,,,,,,,,,,,,,,,,,,,,,,,,,,,,,,,,,,,,,,,,,,,,,,,,,,,,,,,,,,,,,,
,,,,,,,,,,stimuli/images/PICTURE_123.png,ADVICE,5b69a09840003400016ff00f,30/07/1988,2020-08-13_12h30.40.215,proactive2,2020.1.2,MacIntel,60,5f341be081b9052c55068110,5f35244c236a73485a84bc0c,1,,,,,,dart,,,,,,0,54,54,40,1,5,0,,,,,,,,,,,,,,,,,,,,,,,,,,,,,,,,,,,,,,,,,,,,,,,,,,,,,,,,,,,,,,,,,,,,,,,,,,,,,,,,,,,,,,,,,,,,,,,,,,,
,,,,,,,,,,stimuli/images/PICTURE_356.png,DANGER,5b69a09840003400016ff00f,30/07/1988,2020-08-13_12h30.40.215,proactive2,2020.1.2,MacIntel,60,5f341be081b9052c55068110,5f35244c236a73485a84bc0c,1,,,,,,pawn,,,,,,0,55,55,55,1,6,0,,,,,,,,,,,,,,,,,,,,,,,,,,,,,,,,,,,,,,,,,,,,,,,,,,,,,,,,,,,,,,,,,,,,,,,,,,,,,,,,,,,,,,,,,,,,,,,,,,,
,,,,,,,,,,stimuli/images/PICTURE_380.png,PHOTO,5b69a09840003400016ff00f,30/07/1988,2020-08-13_12h30.40.215,proactive2,2020.1.2,MacIntel,60,5f341be081b9052c55068110,5f35244c236a73485a84bc0c,1,,,,,,gorilla,,,,,,0,56,56,52,1,6,0,,,,,,,,,,,,,,,,,,,,,,,,,,,,,,,,,,,,,,,,,,,,,,,,,,,,,,,,,,,,,,,,,,,,,,,,,,,,,,,,,,,,,,,,,,,,,,,,,,,
,,,,,,,,,,stimuli/images/PICTURE_308.png,KIND,5b69a09840003400016ff00f,30/07/1988,2020-08-13_12h30.40.215,proactive2,2020.1.2,MacIntel,60,5f341be081b9052c55068110,5f35244c236a73485a84bc0c,1,,,,,,dice,,,,,,0,57,57,54,1,6,0,,,,,,,,,,,,,,,,,,,,,,,,,,,,,,,,,,,,,,,,,,,,,,,,,,,,,,,,,,,,,,,,,,,,,,,,,,,,,,,,,,,,,,,,,,,,,,,,,,,
,,,,,,,,,,stimuli/images/PICTURE_677.png,MILE,5b69a09840003400016ff00f,30/07/1988,2020-08-13_12h30.40.215,proactive2,2020.1.2,MacIntel,60,5f341be081b9052c55068110,5f35244c236a73485a84bc0c,1,,,,,,map,,,,,,0,58,58,30,1,4,0,,,,,,,,,,,,,,,,,,,,,,,,,,,,,,,,,,,,,,,,,,,,,,,,,,,,,,,,,,,,,,,,,,,,,,,,,,,,,,,,,,,,,,,,,,,,,,,,,,,
,,FLIGHT,2.995,1,,,,,,stimuli/images/PICTURE_487.png,FLIGHT,5b69a09840003400016ff00f,30/07/1988,2020-08-13_12h30.40.215,proactive2,2020.1.2,MacIntel,60,5f341be081b9052c55068110,5f35244c236a73485a84bc0c,1,,,,,,basket,,,,,,,,,,,1,0,0,0,0,9,1,,,,,,,,,,,,,,,,,,,,,,,,,,,,,,,,,,,,,,,,,,,,,,,,,,,,,,,,,,,,,,,,,,,,,,,,,,,,,,,,,,,,,,,,,,,,,,
,,?,0.001,0,,,,,,stimuli/images/PICTURE_348.png,SPEECH,5b69a09840003400016ff00f,30/07/1988,2020-08-13_12h30.40.215,proactive2,2020.1.2,MacIntel,60,5f341be081b9052c55068110,5f35244c236a73485a84bc0c,1,,,,,,pepper,,,,,,,,,,,3,0,0,1,1,20,1,,,,,,,,,,,,,,,,,,,,,,,,,,,,,,,,,,,,,,,,,,,,,,,,,,,,,,,,,,,,,,,,,,,,,,,,,,,,,,,,,,,,,,,,,,,,,,
,,?,0.001,0,,,,,,stimuli/images/PICTURE_95.png,STYLE,5b69a09840003400016ff00f,30/07/1988,2020-08-13_12h30.40.215,proactive2,2020.1.2,MacIntel,60,5f341be081b9052c55068110,5f35244c236a73485a84bc0c,1,,,,,,suitcase,,,,,,,,,,,3,0,0,2,2,25,1,,,,,,,,,,,,,,,,,,,,,,,,,,,,,,,,,,,,,,,,,,,,,,,,,,,,,,,,,,,,,,,,,,,,,,,,,,,,,,,,,,,,,,,,,,,,,,
,,?,0.001,0,,,,,,stimuli/images/PICTURE_285.png,ADVICE,5b69a09840003400016ff00f,30/07/1988,2020-08-13_12h30.40.215,proactive2,2020.1.2,MacIntel,60,5f341be081b9052c55068110,5f35244c236a73485a84bc0c,1,,,,,,carrot,,,,,,,,,,,2,0,0,3,3,12,1,,,,,,,,,,,,,,,,,,,,,,,,,,,,,,,,,,,,,,,,,,,,,,,,,,,,,,,,,,,,,,,,,,,,,,,,,,,,,,,,,,,,,,,,,,,,,,
,,?,0.001,0,,,,,,stimuli/images/PICTURE_491.png,WRITER,5b69a09840003400016ff00f,30/07/1988,2020-08-13_12h30.40.215,proactive2,2020.1.2,MacIntel,60,5f341be081b9052c55068110,5f35244c236a73485a84bc0c,1,,,,,,rug,,,,,,,,,,,6,0,0,4,4,57,1,,,,,,,,,,,,,,,,,,,,,,,,,,,,,,,,,,,,,,,,,,,,,,,,,,,,,,,,,,,,,,,,,,,,,,,,,,,,,,,,,,,,,,,,,,,,,,
,,?,0.001,0,,,,,,stimuli/images/PICTURE_453.png,PLENTY,5b69a09840003400016ff00f,30/07/1988,2020-08-13_12h30.40.215,proactive2,2020.1.2,MacIntel,60,5f341be081b9052c55068110,5f35244c236a73485a84bc0c,1,,,,,,scissors,,,,,,,,,,,6,0,0,5,5,56,1,,,,,,,,,,,,,,,,,,,,,,,,,,,,,,,,,,,,,,,,,,,,,,,,,,,,,,,,,,,,,,,,,,,,,,,,,,,,,,,,,,,,,,,,,,,,,,
,,?,0,0,,,,,,stimuli/images/PICTURE_708.png,PENNY,5b69a09840003400016ff00f,30/07/1988,2020-08-13_12h30.40.215,proactive2,2020.1.2,MacIntel,60,5f341be081b9052c55068110,5f35244c236a73485a84bc0c,1,,,,,,monkey,,,,,,,,,,,4,0,0,6,6,31,1,,,,,,,,,,,,,,,,,,,,,,,,,,,,,,,,,,,,,,,,,,,,,,,,,,,,,,,,,,,,,,,,,,,,,,,,,,,,,,,,,,,,,,,,,,,,,,
,,?,0.001,0,,,,,,stimuli/images/PICTURE_488.png,STYLE,5b69a09840003400016ff00f,30/07/1988,2020-08-13_12h30.40.215,proactive2,2020.1.2,MacIntel,60,5f341be081b9052c55068110,5f35244c236a73485a84bc0c,1,,,,,,sun,,,,,,,,,,,4,0,0,7,7,33,1,,,,,,,,,,,,,,,,,,,,,,,,,,,,,,,,,,,,,,,,,,,,,,,,,,,,,,,,,,,,,,,,,,,,,,,,,,,,,,,,,,,,,,,,,,,,,,
,,?,0.001,0,,,,,,stimuli/images/PICTURE_85.png,THING,5b69a09840003400016ff00f,30/07/1988,2020-08-13_12h30.40.215,proactive2,2020.1.2,MacIntel,60,5f341be081b9052c55068110,5f35244c236a73485a84bc0c,1,,,,,,diamond,,,,,,,,,,,2,0,0,8,8,15,1,,,,,,,,,,,,,,,,,,,,,,,,,,,,,,,,,,,,,,,,,,,,,,,,,,,,,,,,,,,,,,,,,,,,,,,,,,,,,,,,,,,,,,,,,,,,,,
,,?,0,0,,,,,,stimuli/images/PICTURE_467.png,DEMON,5b69a09840003400016ff00f,30/07/1988,2020-08-13_12h30.40.215,proactive2,2020.1.2,MacIntel,60,5f341be081b9052c55068110,5f35244c236a73485a84bc0c,1,,,,,,peg,,,,,,,,,,,3,0,0,9,9,23,1,,,,,,,,,,,,,,,,,,,,,,,,,,,,,,,,,,,,,,,,,,,,,,,,,,,,,,,,,,,,,,,,,,,,,,,,,,,,,,,,,,,,,,,,,,,,,,
,,?,0,0,,,,,,stimuli/images/PICTURE_311.png,FRIEND,5b69a09840003400016ff00f,30/07/1988,2020-08-13_12h30.40.215,proactive2,2020.1.2,MacIntel,60,5f341be081b9052c55068110,5f35244c236a73485a84bc0c,1,,,,,,razor,,,,,,,,,,,4,0,0,10,10,34,1,,,,,,,,,,,,,,,,,,,,,,,,,,,,,,,,,,,,,,,,,,,,,,,,,,,,,,,,,,,,,,,,,,,,,,,,,,,,,,,,,,,,,,,,,,,,,,
,,?,0.001,0,,,,,,stimuli/images/PICTURE_380.png,PHOTO,5b69a09840003400016ff00f,30/07/1988,2020-08-13_12h30.40.215,proactive2,2020.1.2,MacIntel,60,5f341be081b9052c55068110,5f35244c236a73485a84bc0c,1,,,,,,gorilla,,,,,,,,,,,6,0,0,11,11,52,1,,,,,,,,,,,,,,,,,,,,,,,,,,,,,,,,,,,,,,,,,,,,,,,,,,,,,,,,,,,,,,,,,,,,,,,,,,,,,,,,,,,,,,,,,,,,,,
,,CLIENT,1.897,1,,,,,,stimuli/images/PICTURE_708.png,CLIENT,5b69a09840003400016ff00f,30/07/1988,2020-08-13_12h30.40.215,proactive2,2020.1.2,MacIntel,60,5f341be081b9052c55068110,5f35244c236a73485a84bc0c,1,,,,,,monkey,,,,,,,,,,,1,0,0,12,12,5,1,,,,,,,,,,,,,,,,,,,,,,,,,,,,,,,,,,,,,,,,,,,,,,,,,,,,,,,,,,,,,,,,,,,,,,,,,,,,,,,,,,,,,,,,,,,,,,
,,?,0.001,0,,,,,,stimuli/images/PICTURE_327.png,BEAUTY,5b69a09840003400016ff00f,30/07/1988,2020-08-13_12h30.40.215,proactive2,2020.1.2,MacIntel,60,5f341be081b9052c55068110,5f35244c236a73485a84bc0c,1,,,,,,helmet,,,,,,,,,,,5,0,0,13,13,48,1,,,,,,,,,,,,,,,,,,,,,,,,,,,,,,,,,,,,,,,,,,,,,,,,,,,,,,,,,,,,,,,,,,,,,,,,,,,,,,,,,,,,,,,,,,,,,,
,,?,0.001,0,,,,,,stimuli/images/PICTURE_151.png,GIRL,5b69a09840003400016ff00f,30/07/1988,2020-08-13_12h30.40.215,proactive2,2020.1.2,MacIntel,60,5f341be081b9052c55068110,5f35244c236a73485a84bc0c,1,,,,,,tray,,,,,,,,,,,2,0,0,14,14,19,1,,,,,,,,,,,,,,,,,,,,,,,,,,,,,,,,,,,,,,,,,,,,,,,,,,,,,,,,,,,,,,,,,,,,,,,,,,,,,,,,,,,,,,,,,,,,,,
,,?,0.001,0,,,,,,stimuli/images/PICTURE_160.png,FEET,5b69a09840003400016ff00f,30/07/1988,2020-08-13_12h30.40.215,proactive2,2020.1.2,MacIntel,60,5f341be081b9052c55068110,5f35244c236a73485a84bc0c,1,,,,,,wheelbarrow,,,,,,,,,,,6,0,0,15,15,58,1,,,,,,,,,,,,,,,,,,,,,,,,,,,,,,,,,,,,,,,,,,,,,,,,,,,,,,,,,,,,,,,,,,,,,,,,,,,,,,,,,,,,,,,,,,,,,,
,,?,2.144,0,,,,,,stimuli/images/PICTURE_339.png,PLENTY,5b69a09840003400016ff00f,30/07/1988,2020-08-13_12h30.40.215,proactive2,2020.1.2,MacIntel,60,5f341be081b9052c55068110,5f35244c236a73485a84bc0c,1,,,,,,backpack,,,,,,,,,,,1,0,0,16,16,0,1,,,,,,,,,,,,,,,,,,,,,,,,,,,,,,,,,,,,,,,,,,,,,,,,,,,,,,,,,,,,,,,,,,,,,,,,,,,,,,,,,,,,,,,,,,,,,,
,,?,0.001,0,,,,,,stimuli/images/PICTURE_356.png,DANGER,5b69a09840003400016ff00f,30/07/1988,2020-08-13_12h30.40.215,proactive2,2020.1.2,MacIntel,60,5f341be081b9052c55068110,5f35244c236a73485a84bc0c,1,,,,,,pawn,,,,,,,,,,,6,0,0,17,17,55,1,,,,,,,,,,,,,,,,,,,,,,,,,,,,,,,,,,,,,,,,,,,,,,,,,,,,,,,,,,,,,,,,,,,,,,,,,,,,,,,,,,,,,,,,,,,,,,
,,?,0.001,0,,,,,,stimuli/images/PICTURE_688.png,WOMEN,5b69a09840003400016ff00f,30/07/1988,2020-08-13_12h30.40.215,proactive2,2020.1.2,MacIntel,60,5f341be081b9052c55068110,5f35244c236a73485a84bc0c,1,,,,,,runner,,,,,,,,,,,2,0,0,18,18,14,1,,,,,,,,,,,,,,,,,,,,,,,,,,,,,,,,,,,,,,,,,,,,,,,,,,,,,,,,,,,,,,,,,,,,,,,,,,,,,,,,,,,,,,,,,,,,,,
,,?,0,0,,,,,,stimuli/images/PICTURE_203.png,ARTIST,5b69a09840003400016ff00f,30/07/1988,2020-08-13_12h30.40.215,proactive2,2020.1.2,MacIntel,60,5f341be081b9052c55068110,5f35244c236a73485a84bc0c,1,,,,,,cap,,,,,,,,,,,3,0,0,19,19,26,1,,,,,,,,,,,,,,,,,,,,,,,,,,,,,,,,,,,,,,,,,,,,,,,,,,,,,,,,,,,,,,,,,,,,,,,,,,,,,,,,,,,,,,,,,,,,,,
,,?,0.001,0,,,,,,stimuli/images/PICTURE_449.png,THING,5b69a09840003400016ff00f,30/07/1988,2020-08-13_12h30.40.215,proactive2,2020.1.2,MacIntel,60,5f341be081b9052c55068110,5f35244c236a73485a84bc0c,1,,,,,,bench,,,,,,,,,,,6,0,0,20,20,59,1,,,,,,,,,,,,,,,,,,,,,,,,,,,,,,,,,,,,,,,,,,,,,,,,,,,,,,,,,,,,,,,,,,,,,,,,,,,,,,,,,,,,,,,,,,,,,,
,,?,0,0,,,,,,stimuli/images/PICTURE_380.png,DEATH,5b69a09840003400016ff00f,30/07/1988,2020-08-13_12h30.40.215,proactive2,2020.1.2,MacIntel,60,5f341be081b9052c55068110,5f35244c236a73485a84bc0c,1,,,,,,gorilla,,,,,,,,,,,5,0,0,21,21,49,1,,,,,,,,,,,,,,,,,,,,,,,,,,,,,,,,,,,,,,,,,,,,,,,,,,,,,,,,,,,,,,,,,,,,,,,,,,,,,,,,,,,,,,,,,,,,,,
,,?,0.001,0,,,,,,stimuli/images/PICTURE_215.png,PLENTY,5b69a09840003400016ff00f,30/07/1988,2020-08-13_12h30.40.215,proactive2,2020.1.2,MacIntel,60,5f341be081b9052c55068110,5f35244c236a73485a84bc0c,1,,,,,,boot,,,,,,,,,,,4,0,0,22,22,37,1,,,,,,,,,,,,,,,,,,,,,,,,,,,,,,,,,,,,,,,,,,,,,,,,,,,,,,,,,,,,,,,,,,,,,,,,,,,,,,,,,,,,,,,,,,,,,,
,,?,0,0,,,,,,stimuli/images/PICTURE_208.png,LOTS,5b69a09840003400016ff00f,30/07/1988,2020-08-13_12h30.40.215,proactive2,2020.1.2,MacIntel,60,5f341be081b9052c55068110,5f35244c236a73485a84bc0c,1,,,,,,microphone,,,,,,,,,,,2,0,0,23,23,10,1,,,,,,,,,,,,,,,,,,,,,,,,,,,,,,,,,,,,,,,,,,,,,,,,,,,,,,,,,,,,,,,,,,,,,,,,,,,,,,,,,,,,,,,,,,,,,,
,,?,0.001,0,,,,,,stimuli/images/PICTURE_744.png,SAKE,5b69a09840003400016ff00f,30/07/1988,2020-08-13_12h30.40.215,proactive2,2020.1.2,MacIntel,60,5f341be081b9052c55068110,5f35244c236a73485a84bc0c,1,,,,,,ring,,,,,,,,,,,2,0,0,24,24,17,1,,,,,,,,,,,,,,,,,,,,,,,,,,,,,,,,,,,,,,,,,,,,,,,,,,,,,,,,,,,,,,,,,,,,,,,,,,,,,,,,,,,,,,,,,,,,,,
,,?,0.001,0,,,,,,stimuli/images/PICTURE_177.png,CARS,5b69a09840003400016ff00f,30/07/1988,2020-08-13_12h30.40.215,proactive2,2020.1.2,MacIntel,60,5f341be081b9052c55068110,5f35244c236a73485a84bc0c,1,,,,,,mushroom,,,,,,,,,,,4,0,0,25,25,35,1,,,,,,,,,,,,,,,,,,,,,,,,,,,,,,,,,,,,,,,,,,,,,,,,,,,,,,,,,,,,,,,,,,,,,,,,,,,,,,,,,,,,,,,,,,,,,,
,,?,0,0,,,,,,stimuli/images/PICTURE_453.png,DUDE,5b69a09840003400016ff00f,30/07/1988,2020-08-13_12h30.40.215,proactive2,2020.1.2,MacIntel,60,5f341be081b9052c55068110,5f35244c236a73485a84bc0c,1,,,,,,scissors,,,,,,,,,,,3,0,0,26,26,27,1,,,,,,,,,,,,,,,,,,,,,,,,,,,,,,,,,,,,,,,,,,,,,,,,,,,,,,,,,,,,,,,,,,,,,,,,,,,,,,,,,,,,,,,,,,,,,,
,,?,0.001,0,,,,,,stimuli/images/PICTURE_692.png,MONTH,5b69a09840003400016ff00f,30/07/1988,2020-08-13_12h30.40.215,proactive2,2020.1.2,MacIntel,60,5f341be081b9052c55068110,5f35244c236a73485a84bc0c,1,,,,,,cherry,,,,,,,,,,,2,0,0,27,27,16,1,,,,,,,,,,,,,,,,,,,,,,,,,,,,,,,,,,,,,,,,,,,,,,,,,,,,,,,,,,,,,,,,,,,,,,,,,,,,,,,,,,,,,,,,,,,,,,
,,?,0.001,0,,,,,,stimuli/images/PICTURE_744.png,SYSTEM,5b69a09840003400016ff00f,30/07/1988,2020-08-13_12h30.40.215,proactive2,2020.1.2,MacIntel,60,5f341be081b9052c55068110,5f35244c236a73485a84bc0c,1,,,,,,ring,,,,,,,,,,,5,0,0,28,28,43,1,,,,,,,,,,,,,,,,,,,,,,,,,,,,,,,,,,,,,,,,,,,,,,,,,,,,,,,,,,,,,,,,,,,,,,,,,,,,,,,,,,,,,,,,,,,,,,
,,?,0,0,,,,,,stimuli/images/PICTURE_509.png,PHOTO,5b69a09840003400016ff00f,30/07/1988,2020-08-13_12h30.40.215,proactive2,2020.1.2,MacIntel,60,5f341be081b9052c55068110,5f35244c236a73485a84bc0c,1,,,,,,telephone,,,,,,,,,,,3,0,0,29,29,21,1,,,,,,,,,,,,,,,,,,,,,,,,,,,,,,,,,,,,,,,,,,,,,,,,,,,,,,,,,,,,,,,,,,,,,,,,,,,,,,,,,,,,,,,,,,,,,,
,,?,0,0,,,,,,stimuli/images/PICTURE_469.png,LETTER,5b69a09840003400016ff00f,30/07/1988,2020-08-13_12h30.40.215,proactive2,2020.1.2,MacIntel,60,5f341be081b9052c55068110,5f35244c236a73485a84bc0c,1,,,,,,stool,,,,,,,,,,,5,0,0,30,30,42,1,,,,,,,,,,,,,,,,,,,,,,,,,,,,,,,,,,,,,,,,,,,,,,,,,,,,,,,,,,,,,,,,,,,,,,,,,,,,,,,,,,,,,,,,,,,,,,
,,?,0,0,,,,,,stimuli/images/PICTURE_308.png,KIND,5b69a09840003400016ff00f,30/07/1988,2020-08-13_12h30.40.215,proactive2,2020.1.2,MacIntel,60,5f341be081b9052c55068110,5f35244c236a73485a84bc0c,1,,,,,,dice,,,,,,,,,,,6,0,0,31,31,54,1,,,,,,,,,,,,,,,,,,,,,,,,,,,,,,,,,,,,,,,,,,,,,,,,,,,,,,,,,,,,,,,,,,,,,,,,,,,,,,,,,,,,,,,,,,,,,,
,,LEVEL,4.361,0,,,,,,stimuli/images/PICTURE_654.png,VALLEY,5b69a09840003400016ff00f,30/07/1988,2020-08-13_12h30.40.215,proactive2,2020.1.2,MacIntel,60,5f341be081b9052c55068110,5f35244c236a73485a84bc0c,1,,,,,,pencil,,,,,,,,,,,1,0,0,32,32,1,1,,,,,,,,,,,,,,,,,,,,,,,,,,,,,,,,,,,,,,,,,,,,,,,,,,,,,,,,,,,,,,,,,,,,,,,,,,,,,,,,,,,,,,,,,,,,,,
,,?,0.001,0,,,,,,stimuli/images/PICTURE_233.png,WOMEN,5b69a09840003400016ff00f,30/07/1988,2020-08-13_12h30.40.215,proactive2,2020.1.2,MacIntel,60,5f341be081b9052c55068110,5f35244c236a73485a84bc0c,1,,,,,,salt,,,,,,,,,,,4,0,0,33,33,38,1,,,,,,,,,,,,,,,,,,,,,,,,,,,,,,,,,,,,,,,,,,,,,,,,,,,,,,,,,,,,,,,,,,,,,,,,,,,,,,,,,,,,,,,,,,,,,,
,,ARTIST,4.381,1,,,,,,stimuli/images/PICTURE_469.png,ARTIST,5b69a09840003400016ff00f,30/07/1988,2020-08-13_12h30.40.215,proactive2,2020.1.2,MacIntel,60,5f341be081b9052c55068110,5f35244c236a73485a84bc0c,1,,,,,,stool,,,,,,,,,,,1,0,0,34,34,6,1,,,,,,,,,,,,,,,,,,,,,,,,,,,,,,,,,,,,,,,,,,,,,,,,,,,,,,,,,,,,,,,,,,,,,,,,,,,,,,,,,,,,,,,,,,,,,,
,,?,0.001,0,,,,,,stimuli/images/PICTURE_308.png,ESTATE,5b69a09840003400016ff00f,30/07/1988,2020-08-13_12h30.40.215,proactive2,2020.1.2,MacIntel,60,5f341be081b9052c55068110,5f35244c236a73485a84bc0c,1,,,,,,dice,,,,,,,,,,,5,0,0,35,35,46,1,,,,,,,,,,,,,,,,,,,,,,,,,,,,,,,,,,,,,,,,,,,,,,,,,,,,,,,,,,,,,,,,,,,,,,,,,,,,,,,,,,,,,,,,,,,,,,
,,?,0,0,,,,,,stimuli/images/PICTURE_123.png,ADVICE,5b69a09840003400016ff00f,30/07/1988,2020-08-13_12h30.40.215,proactive2,2020.1.2,MacIntel,60,5f341be081b9052c55068110,5f35244c236a73485a84bc0c,1,,,,,,dart,,,,,,,,,,,6,0,0,36,36,50,1,,,,,,,,,,,,,,,,,,,,,,,,,,,,,,,,,,,,,,,,,,,,,,,,,,,,,,,,,,,,,,,,,,,,,,,,,,,,,,,,,,,,,,,,,,,,,,
,,?,0.001,0,,,,,,stimuli/images/PICTURE_311.png,BEAUTY,5b69a09840003400016ff00f,30/07/1988,2020-08-13_12h30.40.215,proactive2,2020.1.2,MacIntel,60,5f341be081b9052c55068110,5f35244c236a73485a84bc0c,1,,,,,,razor,,,,,,,,,,,2,0,0,37,37,13,1,,,,,,,,,,,,,,,,,,,,,,,,,,,,,,,,,,,,,,,,,,,,,,,,,,,,,,,,,,,,,,,,,,,,,,,,,,,,,,,,,,,,,,,,,,,,,,
,,?,0.001,0,,,,,,stimuli/images/PICTURE_302.png,FAMILY,5b69a09840003400016ff00f,30/07/1988,2020-08-13_12h30.40.215,proactive2,2020.1.2,MacIntel,60,5f341be081b9052c55068110,5f35244c236a73485a84bc0c,1,,,,,,taxi,,,,,,,,,,,2,0,0,38,38,18,1,,,,,,,,,,,,,,,,,,,,,,,,,,,,,,,,,,,,,,,,,,,,,,,,,,,,,,,,,,,,,,,,,,,,,,,,,,,,,,,,,,,,,,,,,,,,,,
,,?,3.026,0,,,,,,stimuli/images/PICTURE_688.png,CASINO,5b69a09840003400016ff00f,30/07/1988,2020-08-13_12h30.40.215,proactive2,2020.1.2,MacIntel,60,5f341be081b9052c55068110,5f35244c236a73485a84bc0c,1,,,,,,runner,,,,,,,,,,,1,0,0,39,39,2,1,,,,,,,,,,,,,,,,,,,,,,,,,,,,,,,,,,,,,,,,,,,,,,,,,,,,,,,,,,,,,,,,,,,,,,,,,,,,,,,,,,,,,,,,,,,,,,
,,?,0.001,0,,,,,,stimuli/images/PICTURE_708.png,YARD,5b69a09840003400016ff00f,30/07/1988,2020-08-13_12h30.40.215,proactive2,2020.1.2,MacIntel,60,5f341be081b9052c55068110,5f35244c236a73485a84bc0c,1,,,,,,monkey,,,,,,,,,,,3,0,0,40,40,29,1,,,,,,,,,,,,,,,,,,,,,,,,,,,,,,,,,,,,,,,,,,,,,,,,,,,,,,,,,,,,,,,,,,,,,,,,,,,,,,,,,,,,,,,,,,,,,,
,,?,1.513,0,,,,,,stimuli/images/PICTURE_160.png,LEADER,5b69a09840003400016ff00f,30/07/1988,2020-08-13_12h30.40.215,proactive2,2020.1.2,MacIntel,60,5f341be081b9052c55068110,5f35244c236a73485a84bc0c,1,,,,,,wheelbarrow,,,,,,,,,,,1,0,0,41,41,3,1,,,,,,,,,,,,,,,,,,,,,,,,,,,,,,,,,,,,,,,,,,,,,,,,,,,,,,,,,,,,,,,,,,,,,,,,,,,,,,,,,,,,,,,,,,,,,,
,,?,0.001,0,,,,,,stimuli/images/PICTURE_675.png,WEAPON,5b69a09840003400016ff00f,30/07/1988,2020-08-13_12h30.40.215,proactive2,2020.1.2,MacIntel,60,5f341be081b9052c55068110,5f35244c236a73485a84bc0c,1,,,,,,windmill,,,,,,,,,,,4,0,0,42,42,32,1,,,,,,,,,,,,,,,,,,,,,,,,,,,,,,,,,,,,,,,,,,,,,,,,,,,,,,,,,,,,,,,,,,,,,,,,,,,,,,,,,,,,,,,,,,,,,,
,,?,0,0,,,,,,stimuli/images/PICTURE_677.png,MILE,5b69a09840003400016ff00f,30/07/1988,2020-08-13_12h30.40.215,proactive2,2020.1.2,MacIntel,60,5f341be081b9052c55068110,5f35244c236a73485a84bc0c,1,,,,,,map,,,,,,,,,,,4,0,0,43,43,30,1,,,,,,,,,,,,,,,,,,,,,,,,,,,,,,,,,,,,,,,,,,,,,,,,,,,,,,,,,,,,,,,,,,,,,,,,,,,,,,,,,,,,,,,,,,,,,,
,,?,0.001,0,,,,,,stimuli/images/PICTURE_470.png,CASINO,5b69a09840003400016ff00f,30/07/1988,2020-08-13_12h30.40.215,proactive2,2020.1.2,MacIntel,60,5f341be081b9052c55068110,5f35244c236a73485a84bc0c,1,,,,,,motorbike,,,,,,,,,,,4,0,0,44,44,36,1,,,,,,,,,,,,,,,,,,,,,,,,,,,,,,,,,,,,,,,,,,,,,,,,,,,,,,,,,,,,,,,,,,,,,,,,,,,,,,,,,,,,,,,,,,,,,,
,,?,0,0,,,,,,stimuli/images/PICTURE_32.png,JUNGLE,5b69a09840003400016ff00f,30/07/1988,2020-08-13_12h30.40.215,proactive2,2020.1.2,MacIntel,60,5f341be081b9052c55068110,5f35244c236a73485a84bc0c,1,,,,,,crown,,,,,,,,,,,5,0,0,45,45,45,1,,,,,,,,,,,,,,,,,,,,,,,,,,,,,,,,,,,,,,,,,,,,,,,,,,,,,,,,,,,,,,,,,,,,,,,,,,,,,,,,,,,,,,,,,,,,,,
,,?,0.001,0,,,,,,stimuli/images/PICTURE_123.png,ADVICE,5b69a09840003400016ff00f,30/07/1988,2020-08-13_12h30.40.215,proactive2,2020.1.2,MacIntel,60,5f341be081b9052c55068110,5f35244c236a73485a84bc0c,1,,,,,,dart,,,,,,,,,,,5,0,0,46,46,40,1,,,,,,,,,,,,,,,,,,,,,,,,,,,,,,,,,,,,,,,,,,,,,,,,,,,,,,,,,,,,,,,,,,,,,,,,,,,,,,,,,,,,,,,,,,,,,,
,,?,0.001,0,,,,,,stimuli/images/PICTURE_208.png,MONTH,5b69a09840003400016ff00f,30/07/1988,2020-08-13_12h30.40.215,proactive2,2020.1.2,MacIntel,60,5f341be081b9052c55068110,5f35244c236a73485a84bc0c,1,,,,,,microphone,,,,,,,,,,,6,0,0,47,47,53,1,,,,,,,,,,,,,,,,,,,,,,,,,,,,,,,,,,,,,,,,,,,,,,,,,,,,,,,,,,,,,,,,,,,,,,,,,,,,,,,,,,,,,,,,,,,,,,
,,?,0,0,,,,,,stimuli/images/PICTURE_68.png,MILE,5b69a09840003400016ff00f,30/07/1988,2020-08-13_12h30.40.215,proactive2,2020.1.2,MacIntel,60,5f341be081b9052c55068110,5f35244c236a73485a84bc0c,1,,,,,,candle,,,,,,,,,,,5,0,0,48,48,44,1,,,,,,,,,,,,,,,,,,,,,,,,,,,,,,,,,,,,,,,,,,,,,,,,,,,,,,,,,,,,,,,,,,,,,,,,,,,,,,,,,,,,,,,,,,,,,,
,,?,0,0,,,,,,stimuli/images/PICTURE_667.png,PLENTY,5b69a09840003400016ff00f,30/07/1988,2020-08-13_12h30.40.215,proactive2,2020.1.2,MacIntel,60,5f341be081b9052c55068110,5f35244c236a73485a84bc0c,1,,,,,,daisy,,,,,,,,,,,5,0,0,49,49,41,1,,,,,,,,,,,,,,,,,,,,,,,,,,,,,,,,,,,,,,,,,,,,,,,,,,,,,,,,,,,,,,,,,,,,,,,,,,,,,,,,,,,,,,,,,,,,,,
,,?,1.637,0,,,,,,stimuli/images/PICTURE_504.png,BODY,5b69a09840003400016ff00f,30/07/1988,2020-08-13_12h30.40.215,proactive2,2020.1.2,MacIntel,60,5f341be081b9052c55068110,5f35244c236a73485a84bc0c,1,,,,,,wheel,,,,,,,,,,,1,0,0,50,50,8,1,,,,,,,,,,,,,,,,,,,,,,,,,,,,,,,,,,,,,,,,,,,,,,,,,,,,,,,,,,,,,,,,,,,,,,,,,,,,,,,,,,,,,,,,,,,,,,
,,SAKE,1.55,1,,,,,,stimuli/images/PICTURE_314.png,SAKE,5b69a09840003400016ff00f,30/07/1988,2020-08-13_12h30.40.215,proactive2,2020.1.2,MacIntel,60,5f341be081b9052c55068110,5f35244c236a73485a84bc0c,1,,,,,,perfume,,,,,,,,,,,1,0,0,51,51,7,1,,,,,,,,,,,,,,,,,,,,,,,,,,,,,,,,,,,,,,,,,,,,,,,,,,,,,,,,,,,,,,,,,,,,,,,,,,,,,,,,,,,,,,,,,,,,,,
,,?,0.001,0,,,,,,stimuli/images/PICTURE_248.png,DOZEN,5b69a09840003400016ff00f,30/07/1988,2020-08-13_12h30.40.215,proactive2,2020.1.2,MacIntel,60,5f341be081b9052c55068110,5f35244c236a73485a84bc0c,1,,,,,,cart,,,,,,,,,,,4,0,0,52,52,39,1,,,,,,,,,,,,,,,,,,,,,,,,,,,,,,,,,,,,,,,,,,,,,,,,,,,,,,,,,,,,,,,,,,,,,,,,,,,,,,,,,,,,,,,,,,,,,,
,,?,0.001,0,,,,,,stimuli/images/PICTURE_208.png,THING,5b69a09840003400016ff00f,30/07/1988,2020-08-13_12h30.40.215,proactive2,2020.1.2,MacIntel,60,5f341be081b9052c55068110,5f35244c236a73485a84bc0c,1,,,,,,microphone,,,,,,,,,,,5,0,0,53,53,47,1,,,,,,,,,,,,,,,,,,,,,,,,,,,,,,,,,,,,,,,,,,,,,,,,,,,,,,,,,,,,,,,,,,,,,,,,,,,,,,,,,,,,,,,,,,,,,,
,,?,0.001,0,,,,,,stimuli/images/PICTURE_491.png,ROOF,5b69a09840003400016ff00f,30/07/1988,2020-08-13_12h30.40.215,proactive2,2020.1.2,MacIntel,60,5f341be081b9052c55068110,5f35244c236a73485a84bc0c,1,,,,,,rug,,,,,,,,,,,3,0,0,54,54,24,1,,,,,,,,,,,,,,,,,,,,,,,,,,,,,,,,,,,,,,,,,,,,,,,,,,,,,,,,,,,,,,,,,,,,,,,,,,,,,,,,,,,,,,,,,,,,,,
,,?,0,0,,,,,,stimuli/images/PICTURE_255.png,AREA,5b69a09840003400016ff00f,30/07/1988,2020-08-13_12h30.40.215,proactive2,2020.1.2,MacIntel,60,5f341be081b9052c55068110,5f35244c236a73485a84bc0c,1,,,,,,shovel,,,,,,,,,,,3,0,0,55,55,22,1,,,,,,,,,,,,,,,,,,,,,,,,,,,,,,,,,,,,,,,,,,,,,,,,,,,,,,,,,,,,,,,,,,,,,,,,,,,,,,,,,,,,,,,,,,,,,,
,,?,1.843,0,,,,,,stimuli/images/PICTURE_667.png,BATH,5b69a09840003400016ff00f,30/07/1988,2020-08-13_12h30.40.215,proactive2,2020.1.2,MacIntel,60,5f341be081b9052c55068110,5f35244c236a73485a84bc0c,1,,,,,,daisy,,,,,,,,,,,1,0,0,56,56,4,1,,,,,,,,,,,,,,,,,,,,,,,,,,,,,,,,,,,,,,,,,,,,,,,,,,,,,,,,,,,,,,,,,,,,,,,,,,,,,,,,,,,,,,,,,,,,,,
,,?,0.001,0,,,,,,stimuli/images/PICTURE_233.png,IDEAS,5b69a09840003400016ff00f,30/07/1988,2020-08-13_12h30.40.215,proactive2,2020.1.2,MacIntel,60,5f341be081b9052c55068110,5f35244c236a73485a84bc0c,1,,,,,,salt,,,,,,,,,,,3,0,0,57,57,28,1,,,,,,,,,,,,,,,,,,,,,,,,,,,,,,,,,,,,,,,,,,,,,,,,,,,,,,,,,,,,,,,,,,,,,,,,,,,,,,,,,,,,,,,,,,,,,,
,,?,0.001,0,,,,,,stimuli/images/PICTURE_147.png,MOMENT,5b69a09840003400016ff00f,30/07/1988,2020-08-13_12h30.40.215,proactive2,2020.1.2,MacIntel,60,5f341be081b9052c55068110,5f35244c236a73485a84bc0c,1,,,,,,hanger,,,,,,,,,,,6,0,0,58,58,51,1,,,,,,,,,,,,,,,,,,,,,,,,,,,,,,,,,,,,,,,,,,,,,,,,,,,,,,,,,,,,,,,,,,,,,,,,,,,,,,,,,,,,,,,,,,,,,,
,,?,0,0,,,,,,stimuli/images/PICTURE_314.png,GODS,5b69a09840003400016ff00f,30/07/1988,2020-08-13_12h30.40.215,proactive2,2020.1.2,MacIntel,60,5f341be081b9052c55068110,5f35244c236a73485a84bc0c,1,,,,,,perfume,,,,,,,,,,,2,0,0,59,59,11,1,,,,,,,,,,,,,,,,,,,,,,,,,,,,,,,,,,,,,,,,,,,,,,,,,,,,,,,,,,,,,,,,,,,,,,,,,,,,,,,,,,,,,,,,,,,,,,
,,,,,,,,,,,,5b69a09840003400016ff00f,30/07/1988,2020-08-13_12h30.40.215,proactive2,2020.1.2,MacIntel,60,5f341be081b9052c55068110,5f35244c236a73485a84bc0c,1,,,,,,,,,,,,,,,,,,,,,,,,0,0,0,0,1,stimuli/learn-block1.csv,,,,,,,,,,,,,,,,,,,,,,,,,,,,,,,,,,,,,,,,,,,,,,,,,,,,,,,,,,,,,,,,,,,,,,,,,,,,,,,,,,,,,,,,
,,,,,,,,,,stimuli/images/PICTURE_750.png,POLICY,5b69a09840003400016ff00f,30/07/1988,2020-08-13_12h30.40.215,proactive2,2020.1.2,MacIntel,60,5f341be081b9052c55068110,5f35244c236a73485a84bc0c,1,,,,,,kettle,,,,,,0,0,0,44,1,5,2,,,,,,,,,,,,,,,,,,,,,,,,,,,,,,,,,,,,,,,,,,,,,,,,,,,,,,,,,,,,,,,,,,,,,,,,,,,,,,,,,,,,,,,,,,,,,,,,,,,
,,,,,,,,,,stimuli/images/PICTURE_491.png,SERIES,5b69a09840003400016ff00f,30/07/1988,2020-08-13_12h30.40.215,proactive2,2020.1.2,MacIntel,60,5f341be081b9052c55068110,5f35244c236a73485a84bc0c,1,,,,,,rug,,,,,,0,1,1,39,1,4,2,,,,,,,,,,,,,,,,,,,,,,,,,,,,,,,,,,,,,,,,,,,,,,,,,,,,,,,,,,,,,,,,,,,,,,,,,,,,,,,,,,,,,,,,,,,,,,,,,,,
,,,,,,,,,,stimuli/images/PICTURE_677.png,FAMILY,5b69a09840003400016ff00f,30/07/1988,2020-08-13_12h30.40.215,proactive2,2020.1.2,MacIntel,60,5f341be081b9052c55068110,5f35244c236a73485a84bc0c,1,,,,,,map,,,,,,0,2,2,53,1,6,2,,,,,,,,,,,,,,,,,,,,,,,,,,,,,,,,,,,,,,,,,,,,,,,,,,,,,,,,,,,,,,,,,,,,,,,,,,,,,,,,,,,,,,,,,,,,,,,,,,,
,,,,,,,,,,stimuli/images/PICTURE_405.png,HOUSE,5b69a09840003400016ff00f,30/07/1988,2020-08-13_12h30.40.215,proactive2,2020.1.2,MacIntel,60,5f341be081b9052c55068110,5f35244c236a73485a84bc0c,1,,,,,,anchor,,,,,,0,3,3,2,1,1,2,,,,,,,,,,,,,,,,,,,,,,,,,,,,,,,,,,,,,,,,,,,,,,,,,,,,,,,,,,,,,,,,,,,,,,,,,,,,,,,,,,,,,,,,,,,,,,,,,,,
,,,,,,,,,,stimuli/images/PICTURE_509.png,MILLER,5b69a09840003400016ff00f,30/07/1988,2020-08-13_12h30.40.215,proactive2,2020.1.2,MacIntel,60,5f341be081b9052c55068110,5f35244c236a73485a84bc0c,1,,,,,,telephone,,,,,,0,4,4,49,1,5,2,,,,,,,,,,,,,,,,,,,,,,,,,,,,,,,,,,,,,,,,,,,,,,,,,,,,,,,,,,,,,,,,,,,,,,,,,,,,,,,,,,,,,,,,,,,,,,,,,,,
,,,,,,,,,,stimuli/images/PICTURE_708.png,VALLEY,5b69a09840003400016ff00f,30/07/1988,2020-08-13_12h30.40.215,proactive2,2020.1.2,MacIntel,60,5f341be081b9052c55068110,5f35244c236a73485a84bc0c,1,,,,,,monkey,,,,,,0,5,5,45,1,5,2,,,,,,,,,,,,,,,,,,,,,,,,,,,,,,,,,,,,,,,,,,,,,,,,,,,,,,,,,,,,,,,,,,,,,,,,,,,,,,,,,,,,,,,,,,,,,,,,,,,
,,,,,,,,,,stimuli/images/PICTURE_509.png,SHOTS,5b69a09840003400016ff00f,30/07/1988,2020-08-13_12h30.40.215,proactive2,2020.1.2,MacIntel,60,5f341be081b9052c55068110,5f35244c236a73485a84bc0c,1,,,,,,telephone,,,,,,0,6,6,7,1,1,2,,,,,,,,,,,,,,,,,,,,,,,,,,,,,,,,,,,,,,,,,,,,,,,,,,,,,,,,,,,,,,,,,,,,,,,,,,,,,,,,,,,,,,,,,,,,,,,,,,,
,,,,,,,,,,stimuli/images/PICTURE_504.png,HOUSE,5b69a09840003400016ff00f,30/07/1988,2020-08-13_12h30.40.215,proactive2,2020.1.2,MacIntel,60,5f341be081b9052c55068110,5f35244c236a73485a84bc0c,1,,,,,,wheel,,,,,,0,7,7,36,1,4,2,,,,,,,,,,,,,,,,,,,,,,,,,,,,,,,,,,,,,,,,,,,,,,,,,,,,,,,,,,,,,,,,,,,,,,,,,,,,,,,,,,,,,,,,,,,,,,,,,,,
,,,,,,,,,,stimuli/images/PICTURE_692.png,DUDE,5b69a09840003400016ff00f,30/07/1988,2020-08-13_12h30.40.215,proactive2,2020.1.2,MacIntel,60,5f341be081b9052c55068110,5f35244c236a73485a84bc0c,1,,,,,,cherry,,,,,,0,8,8,47,1,5,2,,,,,,,,,,,,,,,,,,,,,,,,,,,,,,,,,,,,,,,,,,,,,,,,,,,,,,,,,,,,,,,,,,,,,,,,,,,,,,,,,,,,,,,,,,,,,,,,,,,
,,,,,,,,,,stimuli/images/PICTURE_327.png,LEADER,5b69a09840003400016ff00f,30/07/1988,2020-08-13_12h30.40.215,proactive2,2020.1.2,MacIntel,60,5f341be081b9052c55068110,5f35244c236a73485a84bc0c,1,,,,,,helmet,,,,,,0,9,9,17,1,2,2,,,,,,,,,,,,,,,,,,,,,,,,,,,,,,,,,,,,,,,,,,,,,,,,,,,,,,,,,,,,,,,,,,,,,,,,,,,,,,,,,,,,,,,,,,,,,,,,,,,
,,,,,,,,,,stimuli/images/PICTURE_453.png,FAMILY,5b69a09840003400016ff00f,30/07/1988,2020-08-13_12h30.40.215,proactive2,2020.1.2,MacIntel,60,5f341be081b9052c55068110,5f35244c236a73485a84bc0c,1,,,,,,scissors,,,,,,0,10,10,48,1,5,2,,,,,,,,,,,,,,,,,,,,,,,,,,,,,,,,,,,,,,,,,,,,,,,,,,,,,,,,,,,,,,,,,,,,,,,,,,,,,,,,,,,,,,,,,,,,,,,,,,,
,,,,,,,,,,stimuli/images/PICTURE_311.png,TOILET,5b69a09840003400016ff00f,30/07/1988,2020-08-13_12h30.40.215,proactive2,2020.1.2,MacIntel,60,5f341be081b9052c55068110,5f35244c236a73485a84bc0c,1,,,,,,razor,,,,,,0,11,11,54,1,6,2,,,,,,,,,,,,,,,,,,,,,,,,,,,,,,,,,,,,,,,,,,,,,,,,,,,,,,,,,,,,,,,,,,,,,,,,,,,,,,,,,,,,,,,,,,,,,,,,,,,
,,,,,,,,,,stimuli/images/PICTURE_147.png,LEADER,5b69a09840003400016ff00f,30/07/1988,2020-08-13_12h30.40.215,proactive2,2020.1.2,MacIntel,60,5f341be081b9052c55068110,5f35244c236a73485a84bc0c,1,,,,,,hanger,,,,,,0,12,12,33,1,4,2,,,,,,,,,,,,,,,,,,,,,,,,,,,,,,,,,,,,,,,,,,,,,,,,,,,,,,,,,,,,,,,,,,,,,,,,,,,,,,,,,,,,,,,,,,,,,,,,,,,
,,,,,,,,,,stimuli/images/PICTURE_160.png,HOTEL,5b69a09840003400016ff00f,30/07/1988,2020-08-13_12h30.40.215,proactive2,2020.1.2,MacIntel,60,5f341be081b9052c55068110,5f35244c236a73485a84bc0c,1,,,,,,wheelbarrow,,,,,,0,13,13,16,1,2,2,,,,,,,,,,,,,,,,,,,,,,,,,,,,,,,,,,,,,,,,,,,,,,,,,,,,,,,,,,,,,,,,,,,,,,,,,,,,,,,,,,,,,,,,,,,,,,,,,,,
,,,,,,,,,,stimuli/images/PICTURE_509.png,BATH,5b69a09840003400016ff00f,30/07/1988,2020-08-13_12h30.40.215,proactive2,2020.1.2,MacIntel,60,5f341be081b9052c55068110,5f35244c236a73485a84bc0c,1,,,,,,telephone,,,,,,0,14,14,15,1,2,2,,,,,,,,,,,,,,,,,,,,,,,,,,,,,,,,,,,,,,,,,,,,,,,,,,,,,,,,,,,,,,,,,,,,,,,,,,,,,,,,,,,,,,,,,,,,,,,,,,,
,,,,,,,,,,stimuli/images/PICTURE_348.png,TOILET,5b69a09840003400016ff00f,30/07/1988,2020-08-13_12h30.40.215,proactive2,2020.1.2,MacIntel,60,5f341be081b9052c55068110,5f35244c236a73485a84bc0c,1,,,,,,pepper,,,,,,0,15,15,4,1,1,2,,,,,,,,,,,,,,,,,,,,,,,,,,,,,,,,,,,,,,,,,,,,,,,,,,,,,,,,,,,,,,,,,,,,,,,,,,,,,,,,,,,,,,,,,,,,,,,,,,,
,,,,,,,,,,stimuli/images/PICTURE_93.png,GIRL,5b69a09840003400016ff00f,30/07/1988,2020-08-13_12h30.40.215,proactive2,2020.1.2,MacIntel,60,5f341be081b9052c55068110,5f35244c236a73485a84bc0c,1,,,,,,skateboard,,,,,,0,16,16,31,1,4,2,,,,,,,,,,,,,,,,,,,,,,,,,,,,,,,,,,,,,,,,,,,,,,,,,,,,,,,,,,,,,,,,,,,,,,,,,,,,,,,,,,,,,,,,,,,,,,,,,,,
,,,,,,,,,,stimuli/images/PICTURE_509.png,APPLE,5b69a09840003400016ff00f,30/07/1988,2020-08-13_12h30.40.215,proactive2,2020.1.2,MacIntel,60,5f341be081b9052c55068110,5f35244c236a73485a84bc0c,1,,,,,,telephone,,,,,,0,17,17,38,1,4,2,,,,,,,,,,,,,,,,,,,,,,,,,,,,,,,,,,,,,,,,,,,,,,,,,,,,,,,,,,,,,,,,,,,,,,,,,,,,,,,,,,,,,,,,,,,,,,,,,,,
,,,,,,,,,,stimuli/images/PICTURE_255.png,PENNY,5b69a09840003400016ff00f,30/07/1988,2020-08-13_12h30.40.215,proactive2,2020.1.2,MacIntel,60,5f341be081b9052c55068110,5f35244c236a73485a84bc0c,1,,,,,,shovel,,,,,,0,18,18,19,1,2,2,,,,,,,,,,,,,,,,,,,,,,,,,,,,,,,,,,,,,,,,,,,,,,,,,,,,,,,,,,,,,,,,,,,,,,,,,,,,,,,,,,,,,,,,,,,,,,,,,,,
,,,,,,,,,,stimuli/images/PICTURE_296.png,CLOCK,5b69a09840003400016ff00f,30/07/1988,2020-08-13_12h30.40.215,proactive2,2020.1.2,MacIntel,60,5f341be081b9052c55068110,5f35244c236a73485a84bc0c,1,,,,,,bolt,,,,,,0,19,19,18,1,2,2,,,,,,,,,,,,,,,,,,,,,,,,,,,,,,,,,,,,,,,,,,,,,,,,,,,,,,,,,,,,,,,,,,,,,,,,,,,,,,,,,,,,,,,,,,,,,,,,,,,
,,,,,,,,,,stimuli/images/PICTURE_177.png,HOUSE,5b69a09840003400016ff00f,30/07/1988,2020-08-13_12h30.40.215,proactive2,2020.1.2,MacIntel,60,5f341be081b9052c55068110,5f35244c236a73485a84bc0c,1,,,,,,mushroom,,,,,,0,20,20,25,1,3,2,,,,,,,,,,,,,,,,,,,,,,,,,,,,,,,,,,,,,,,,,,,,,,,,,,,,,,,,,,,,,,,,,,,,,,,,,,,,,,,,,,,,,,,,,,,,,,,,,,,
,,,,,,,,,,stimuli/images/PICTURE_405.png,JUNGLE,5b69a09840003400016ff00f,30/07/1988,2020-08-13_12h30.40.215,proactive2,2020.1.2,MacIntel,60,5f341be081b9052c55068110,5f35244c236a73485a84bc0c,1,,,,,,anchor,,,,,,0,21,21,58,1,6,2,,,,,,,,,,,,,,,,,,,,,,,,,,,,,,,,,,,,,,,,,,,,,,,,,,,,,,,,,,,,,,,,,,,,,,,,,,,,,,,,,,,,,,,,,,,,,,,,,,,
,,,,,,,,,,stimuli/images/PICTURE_68.png,KIND,5b69a09840003400016ff00f,30/07/1988,2020-08-13_12h30.40.215,proactive2,2020.1.2,MacIntel,60,5f341be081b9052c55068110,5f35244c236a73485a84bc0c,1,,,,,,candle,,,,,,0,22,22,23,1,3,2,,,,,,,,,,,,,,,,,,,,,,,,,,,,,,,,,,,,,,,,,,,,,,,,,,,,,,,,,,,,,,,,,,,,,,,,,,,,,,,,,,,,,,,,,,,,,,,,,,,
,,,,,,,,,,stimuli/images/PICTURE_654.png,YEAR,5b69a09840003400016ff00f,30/07/1988,2020-08-13_12h30.40.215,proactive2,2020.1.2,MacIntel,60,5f341be081b9052c55068110,5f35244c236a73485a84bc0c,1,,,,,,pencil,,,,,,0,23,23,41,1,5,2,,,,,,,,,,,,,,,,,,,,,,,,,,,,,,,,,,,,,,,,,,,,,,,,,,,,,,,,,,,,,,,,,,,,,,,,,,,,,,,,,,,,,,,,,,,,,,,,,,,
,,,,,,,,,,stimuli/images/PICTURE_32.png,LETTER,5b69a09840003400016ff00f,30/07/1988,2020-08-13_12h30.40.215,proactive2,2020.1.2,MacIntel,60,5f341be081b9052c55068110,5f35244c236a73485a84bc0c,1,,,,,,crown,,,,,,0,24,24,56,1,6,2,,,,,,,,,,,,,,,,,,,,,,,,,,,,,,,,,,,,,,,,,,,,,,,,,,,,,,,,,,,,,,,,,,,,,,,,,,,,,,,,,,,,,,,,,,,,,,,,,,,
,,,,,,,,,,stimuli/images/PICTURE_487.png,POLICY,5b69a09840003400016ff00f,30/07/1988,2020-08-13_12h30.40.215,proactive2,2020.1.2,MacIntel,60,5f341be081b9052c55068110,5f35244c236a73485a84bc0c,1,,,,,,basket,,,,,,0,25,25,34,1,4,2,,,,,,,,,,,,,,,,,,,,,,,,,,,,,,,,,,,,,,,,,,,,,,,,,,,,,,,,,,,,,,,,,,,,,,,,,,,,,,,,,,,,,,,,,,,,,,,,,,,
,,,,,,,,,,stimuli/images/PICTURE_348.png,DUDE,5b69a09840003400016ff00f,30/07/1988,2020-08-13_12h30.40.215,proactive2,2020.1.2,MacIntel,60,5f341be081b9052c55068110,5f35244c236a73485a84bc0c,1,,,,,,pepper,,,,,,0,26,26,59,1,6,2,,,,,,,,,,,,,,,,,,,,,,,,,,,,,,,,,,,,,,,,,,,,,,,,,,,,,,,,,,,,,,,,,,,,,,,,,,,,,,,,,,,,,,,,,,,,,,,,,,,
,,,,,,,,,,stimuli/images/PICTURE_654.png,COPS,5b69a09840003400016ff00f,30/07/1988,2020-08-13_12h30.40.215,proactive2,2020.1.2,MacIntel,60,5f341be081b9052c55068110,5f35244c236a73485a84bc0c,1,,,,,,pencil,,,,,,0,27,27,10,1,2,2,,,,,,,,,,,,,,,,,,,,,,,,,,,,,,,,,,,,,,,,,,,,,,,,,,,,,,,,,,,,,,,,,,,,,,,,,,,,,,,,,,,,,,,,,,,,,,,,,,,
,,,,,,,,,,stimuli/images/PICTURE_311.png,FLESH,5b69a09840003400016ff00f,30/07/1988,2020-08-13_12h30.40.215,proactive2,2020.1.2,MacIntel,60,5f341be081b9052c55068110,5f35244c236a73485a84bc0c,1,,,,,,razor,,,,,,0,28,28,3,1,1,2,,,,,,,,,,,,,,,,,,,,,,,,,,,,,,,,,,,,,,,,,,,,,,,,,,,,,,,,,,,,,,,,,,,,,,,,,,,,,,,,,,,,,,,,,,,,,,,,,,,
,,,,,,,,,,stimuli/images/PICTURE_2.png,AREA,5b69a09840003400016ff00f,30/07/1988,2020-08-13_12h30.40.215,proactive2,2020.1.2,MacIntel,60,5f341be081b9052c55068110,5f35244c236a73485a84bc0c,1,,,,,,tyre,,,,,,0,29,29,32,1,4,2,,,,,,,,,,,,,,,,,,,,,,,,,,,,,,,,,,,,,,,,,,,,,,,,,,,,,,,,,,,,,,,,,,,,,,,,,,,,,,,,,,,,,,,,,,,,,,,,,,,
,,,,,,,,,,stimuli/images/PICTURE_297.png,BODY,5b69a09840003400016ff00f,30/07/1988,2020-08-13_12h30.40.215,proactive2,2020.1.2,MacIntel,60,5f341be081b9052c55068110,5f35244c236a73485a84bc0c,1,,,,,,aeroplane,,,,,,0,30,30,51,1,6,2,,,,,,,,,,,,,,,,,,,,,,,,,,,,,,,,,,,,,,,,,,,,,,,,,,,,,,,,,,,,,,,,,,,,,,,,,,,,,,,,,,,,,,,,,,,,,,,,,,,
,,,,,,,,,,stimuli/images/PICTURE_405.png,JUNGLE,5b69a09840003400016ff00f,30/07/1988,2020-08-13_12h30.40.215,proactive2,2020.1.2,MacIntel,60,5f341be081b9052c55068110,5f35244c236a73485a84bc0c,1,,,,,,anchor,,,,,,0,31,31,13,1,2,2,,,,,,,,,,,,,,,,,,,,,,,,,,,,,,,,,,,,,,,,,,,,,,,,,,,,,,,,,,,,,,,,,,,,,,,,,,,,,,,,,,,,,,,,,,,,,,,,,,,
,,,,,,,,,,stimuli/images/PICTURE_95.png,NIGHT,5b69a09840003400016ff00f,30/07/1988,2020-08-13_12h30.40.215,proactive2,2020.1.2,MacIntel,60,5f341be081b9052c55068110,5f35244c236a73485a84bc0c,1,,,,,,suitcase,,,,,,0,32,32,37,1,4,2,,,,,,,,,,,,,,,,,,,,,,,,,,,,,,,,,,,,,,,,,,,,,,,,,,,,,,,,,,,,,,,,,,,,,,,,,,,,,,,,,,,,,,,,,,,,,,,,,,,
,,,,,,,,,,stimuli/images/PICTURE_208.png,SPIRIT,5b69a09840003400016ff00f,30/07/1988,2020-08-13_12h30.40.215,proactive2,2020.1.2,MacIntel,60,5f341be081b9052c55068110,5f35244c236a73485a84bc0c,1,,,,,,microphone,,,,,,0,33,33,28,1,3,2,,,,,,,,,,,,,,,,,,,,,,,,,,,,,,,,,,,,,,,,,,,,,,,,,,,,,,,,,,,,,,,,,,,,,,,,,,,,,,,,,,,,,,,,,,,,,,,,,,,
,,,,,,,,,,stimuli/images/PICTURE_2.png,YARD,5b69a09840003400016ff00f,30/07/1988,2020-08-13_12h30.40.215,proactive2,2020.1.2,MacIntel,60,5f341be081b9052c55068110,5f35244c236a73485a84bc0c,1,,,,,,tyre,,,,,,0,34,34,55,1,6,2,,,,,,,,,,,,,,,,,,,,,,,,,,,,,,,,,,,,,,,,,,,,,,,,,,,,,,,,,,,,,,,,,,,,,,,,,,,,,,,,,,,,,,,,,,,,,,,,,,,
,,,,,,,,,,stimuli/images/PICTURE_215.png,FOOD,5b69a09840003400016ff00f,30/07/1988,2020-08-13_12h30.40.215,proactive2,2020.1.2,MacIntel,60,5f341be081b9052c55068110,5f35244c236a73485a84bc0c,1,,,,,,boot,,,,,,0,35,35,5,1,1,2,,,,,,,,,,,,,,,,,,,,,,,,,,,,,,,,,,,,,,,,,,,,,,,,,,,,,,,,,,,,,,,,,,,,,,,,,,,,,,,,,,,,,,,,,,,,,,,,,,,
,,,,,,,,,,stimuli/images/PICTURE_564.png,PLENTY,5b69a09840003400016ff00f,30/07/1988,2020-08-13_12h30.40.215,proactive2,2020.1.2,MacIntel,60,5f341be081b9052c55068110,5f35244c236a73485a84bc0c,1,,,,,,spoon,,,,,,0,36,36,11,1,2,2,,,,,,,,,,,,,,,,,,,,,,,,,,,,,,,,,,,,,,,,,,,,,,,,,,,,,,,,,,,,,,,,,,,,,,,,,,,,,,,,,,,,,,,,,,,,,,,,,,,
,,,,,,,,,,stimuli/images/PICTURE_356.png,CANDY,5b69a09840003400016ff00f,30/07/1988,2020-08-13_12h30.40.215,proactive2,2020.1.2,MacIntel,60,5f341be081b9052c55068110,5f35244c236a73485a84bc0c,1,,,,,,pawn,,,,,,0,37,37,46,1,5,2,,,,,,,,,,,,,,,,,,,,,,,,,,,,,,,,,,,,,,,,,,,,,,,,,,,,,,,,,,,,,,,,,,,,,,,,,,,,,,,,,,,,,,,,,,,,,,,,,,,
,,,,,,,,,,stimuli/images/PICTURE_470.png,MOMENT,5b69a09840003400016ff00f,30/07/1988,2020-08-13_12h30.40.215,proactive2,2020.1.2,MacIntel,60,5f341be081b9052c55068110,5f35244c236a73485a84bc0c,1,,,,,,motorbike,,,,,,0,38,38,40,1,5,2,,,,,,,,,,,,,,,,,,,,,,,,,,,,,,,,,,,,,,,,,,,,,,,,,,,,,,,,,,,,,,,,,,,,,,,,,,,,,,,,,,,,,,,,,,,,,,,,,,,
,,,,,,,,,,stimuli/images/PICTURE_57.png,CANDY,5b69a09840003400016ff00f,30/07/1988,2020-08-13_12h30.40.215,proactive2,2020.1.2,MacIntel,60,5f341be081b9052c55068110,5f35244c236a73485a84bc0c,1,,,,,,stamp,,,,,,0,39,39,52,1,6,2,,,,,,,,,,,,,,,,,,,,,,,,,,,,,,,,,,,,,,,,,,,,,,,,,,,,,,,,,,,,,,,,,,,,,,,,,,,,,,,,,,,,,,,,,,,,,,,,,,,
,,,,,,,,,,stimuli/images/PICTURE_2.png,JUNGLE,5b69a09840003400016ff00f,30/07/1988,2020-08-13_12h30.40.215,proactive2,2020.1.2,MacIntel,60,5f341be081b9052c55068110,5f35244c236a73485a84bc0c,1,,,,,,tyre,,,,,,0,40,40,1,1,1,2,,,,,,,,,,,,,,,,,,,,,,,,,,,,,,,,,,,,,,,,,,,,,,,,,,,,,,,,,,,,,,,,,,,,,,,,,,,,,,,,,,,,,,,,,,,,,,,,,,,
,,,,,,,,,,stimuli/images/PICTURE_215.png,LEADER,5b69a09840003400016ff00f,30/07/1988,2020-08-13_12h30.40.215,proactive2,2020.1.2,MacIntel,60,5f341be081b9052c55068110,5f35244c236a73485a84bc0c,1,,,,,,boot,,,,,,0,41,41,43,1,5,2,,,,,,,,,,,,,,,,,,,,,,,,,,,,,,,,,,,,,,,,,,,,,,,,,,,,,,,,,,,,,,,,,,,,,,,,,,,,,,,,,,,,,,,,,,,,,,,,,,,
,,,,,,,,,,stimuli/images/PICTURE_123.png,SALE,5b69a09840003400016ff00f,30/07/1988,2020-08-13_12h30.40.215,proactive2,2020.1.2,MacIntel,60,5f341be081b9052c55068110,5f35244c236a73485a84bc0c,1,,,,,,dart,,,,,,0,42,42,8,1,1,2,,,,,,,,,,,,,,,,,,,,,,,,,,,,,,,,,,,,,,,,,,,,,,,,,,,,,,,,,,,,,,,,,,,,,,,,,,,,,,,,,,,,,,,,,,,,,,,,,,,
,,,,,,,,,,stimuli/images/PICTURE_470.png,BEAUTY,5b69a09840003400016ff00f,30/07/1988,2020-08-13_12h30.40.215,proactive2,2020.1.2,MacIntel,60,5f341be081b9052c55068110,5f35244c236a73485a84bc0c,1,,,,,,motorbike,,,,,,0,43,43,26,1,3,2,,,,,,,,,,,,,,,,,,,,,,,,,,,,,,,,,,,,,,,,,,,,,,,,,,,,,,,,,,,,,,,,,,,,,,,,,,,,,,,,,,,,,,,,,,,,,,,,,,,
,,,,,,,,,,stimuli/images/PICTURE_677.png,PHOTO,5b69a09840003400016ff00f,30/07/1988,2020-08-13_12h30.40.215,proactive2,2020.1.2,MacIntel,60,5f341be081b9052c55068110,5f35244c236a73485a84bc0c,1,,,,,,map,,,,,,0,44,44,14,1,2,2,,,,,,,,,,,,,,,,,,,,,,,,,,,,,,,,,,,,,,,,,,,,,,,,,,,,,,,,,,,,,,,,,,,,,,,,,,,,,,,,,,,,,,,,,,,,,,,,,,,
,,,,,,,,,,stimuli/images/PICTURE_452.png,COPS,5b69a09840003400016ff00f,30/07/1988,2020-08-13_12h30.40.215,proactive2,2020.1.2,MacIntel,60,5f341be081b9052c55068110,5f35244c236a73485a84bc0c,1,,,,,,watch,,,,,,0,45,45,0,1,1,2,,,,,,,,,,,,,,,,,,,,,,,,,,,,,,,,,,,,,,,,,,,,,,,,,,,,,,,,,,,,,,,,,,,,,,,,,,,,,,,,,,,,,,,,,,,,,,,,,,,
,,,,,,,,,,stimuli/images/PICTURE_141.png,CLIENT,5b69a09840003400016ff00f,30/07/1988,2020-08-13_12h30.40.215,proactive2,2020.1.2,MacIntel,60,5f341be081b9052c55068110,5f35244c236a73485a84bc0c,1,,,,,,sunflower,,,,,,0,46,46,30,1,4,2,,,,,,,,,,,,,,,,,,,,,,,,,,,,,,,,,,,,,,,,,,,,,,,,,,,,,,,,,,,,,,,,,,,,,,,,,,,,,,,,,,,,,,,,,,,,,,,,,,,
,,,,,,,,,,stimuli/images/PICTURE_285.png,WRITER,5b69a09840003400016ff00f,30/07/1988,2020-08-13_12h30.40.215,proactive2,2020.1.2,MacIntel,60,5f341be081b9052c55068110,5f35244c236a73485a84bc0c,1,,,,,,carrot,,,,,,0,47,47,6,1,1,2,,,,,,,,,,,,,,,,,,,,,,,,,,,,,,,,,,,,,,,,,,,,,,,,,,,,,,,,,,,,,,,,,,,,,,,,,,,,,,,,,,,,,,,,,,,,,,,,,,,
,,,,,,,,,,stimuli/images/PICTURE_688.png,CLOCK,5b69a09840003400016ff00f,30/07/1988,2020-08-13_12h30.40.215,proactive2,2020.1.2,MacIntel,60,5f341be081b9052c55068110,5f35244c236a73485a84bc0c,1,,,,,,runner,,,,,,0,48,48,42,1,5,2,,,,,,,,,,,,,,,,,,,,,,,,,,,,,,,,,,,,,,,,,,,,,,,,,,,,,,,,,,,,,,,,,,,,,,,,,,,,,,,,,,,,,,,,,,,,,,,,,,,
,,,,,,,,,,stimuli/images/PICTURE_487.png,ROOF,5b69a09840003400016ff00f,30/07/1988,2020-08-13_12h30.40.215,proactive2,2020.1.2,MacIntel,60,5f341be081b9052c55068110,5f35244c236a73485a84bc0c,1,,,,,,basket,,,,,,0,49,49,50,1,6,2,,,,,,,,,,,,,,,,,,,,,,,,,,,,,,,,,,,,,,,,,,,,,,,,,,,,,,,,,,,,,,,,,,,,,,,,,,,,,,,,,,,,,,,,,,,,,,,,,,,
,,,,,,,,,,stimuli/images/PICTURE_57.png,NATION,5b69a09840003400016ff00f,30/07/1988,2020-08-13_12h30.40.215,proactive2,2020.1.2,MacIntel,60,5f341be081b9052c55068110,5f35244c236a73485a84bc0c,1,,,,,,stamp,,,,,,0,50,50,21,1,3,2,,,,,,,,,,,,,,,,,,,,,,,,,,,,,,,,,,,,,,,,,,,,,,,,,,,,,,,,,,,,,,,,,,,,,,,,,,,,,,,,,,,,,,,,,,,,,,,,,,,
,,,,,,,,,,stimuli/images/PICTURE_215.png,BOYS,5b69a09840003400016ff00f,30/07/1988,2020-08-13_12h30.40.215,proactive2,2020.1.2,MacIntel,60,5f341be081b9052c55068110,5f35244c236a73485a84bc0c,1,,,,,,boot,,,,,,0,51,51,24,1,3,2,,,,,,,,,,,,,,,,,,,,,,,,,,,,,,,,,,,,,,,,,,,,,,,,,,,,,,,,,,,,,,,,,,,,,,,,,,,,,,,,,,,,,,,,,,,,,,,,,,,
,,,,,,,,,,stimuli/images/PICTURE_403.png,FAMILY,5b69a09840003400016ff00f,30/07/1988,2020-08-13_12h30.40.215,proactive2,2020.1.2,MacIntel,60,5f341be081b9052c55068110,5f35244c236a73485a84bc0c,1,,,,,,cathedral,,,,,,0,52,52,9,1,1,2,,,,,,,,,,,,,,,,,,,,,,,,,,,,,,,,,,,,,,,,,,,,,,,,,,,,,,,,,,,,,,,,,,,,,,,,,,,,,,,,,,,,,,,,,,,,,,,,,,,
,,,,,,,,,,stimuli/images/PICTURE_667.png,GLASS,5b69a09840003400016ff00f,30/07/1988,2020-08-13_12h30.40.215,proactive2,2020.1.2,MacIntel,60,5f341be081b9052c55068110,5f35244c236a73485a84bc0c,1,,,,,,daisy,,,,,,0,53,53,27,1,3,2,,,,,,,,,,,,,,,,,,,,,,,,,,,,,,,,,,,,,,,,,,,,,,,,,,,,,,,,,,,,,,,,,,,,,,,,,,,,,,,,,,,,,,,,,,,,,,,,,,,
,,,,,,,,,,stimuli/images/PICTURE_57.png,CASINO,5b69a09840003400016ff00f,30/07/1988,2020-08-13_12h30.40.215,proactive2,2020.1.2,MacIntel,60,5f341be081b9052c55068110,5f35244c236a73485a84bc0c,1,,,,,,stamp,,,,,,0,54,54,12,1,2,2,,,,,,,,,,,,,,,,,,,,,,,,,,,,,,,,,,,,,,,,,,,,,,,,,,,,,,,,,,,,,,,,,,,,,,,,,,,,,,,,,,,,,,,,,,,,,,,,,,,
,,,,,,,,,,stimuli/images/PICTURE_655.png,SALE,5b69a09840003400016ff00f,30/07/1988,2020-08-13_12h30.40.215,proactive2,2020.1.2,MacIntel,60,5f341be081b9052c55068110,5f35244c236a73485a84bc0c,1,,,,,,megaphone,,,,,,0,55,55,57,1,6,2,,,,,,,,,,,,,,,,,,,,,,,,,,,,,,,,,,,,,,,,,,,,,,,,,,,,,,,,,,,,,,,,,,,,,,,,,,,,,,,,,,,,,,,,,,,,,,,,,,,
,,,,,,,,,,stimuli/images/PICTURE_33.png,COPS,5b69a09840003400016ff00f,30/07/1988,2020-08-13_12h30.40.215,proactive2,2020.1.2,MacIntel,60,5f341be081b9052c55068110,5f35244c236a73485a84bc0c,1,,,,,,frame,,,,,,0,56,56,29,1,3,2,,,,,,,,,,,,,,,,,,,,,,,,,,,,,,,,,,,,,,,,,,,,,,,,,,,,,,,,,,,,,,,,,,,,,,,,,,,,,,,,,,,,,,,,,,,,,,,,,,,
,,,,,,,,,,stimuli/images/PICTURE_314.png,SPEECH,5b69a09840003400016ff00f,30/07/1988,2020-08-13_12h30.40.215,proactive2,2020.1.2,MacIntel,60,5f341be081b9052c55068110,5f35244c236a73485a84bc0c,1,,,,,,perfume,,,,,,0,57,57,35,1,4,2,,,,,,,,,,,,,,,,,,,,,,,,,,,,,,,,,,,,,,,,,,,,,,,,,,,,,,,,,,,,,,,,,,,,,,,,,,,,,,,,,,,,,,,,,,,,,,,,,,,
,,,,,,,,,,stimuli/images/PICTURE_285.png,PRINCE,5b69a09840003400016ff00f,30/07/1988,2020-08-13_12h30.40.215,proactive2,2020.1.2,MacIntel,60,5f341be081b9052c55068110,5f35244c236a73485a84bc0c,1,,,,,,carrot,,,,,,0,58,58,20,1,3,2,,,,,,,,,,,,,,,,,,,,,,,,,,,,,,,,,,,,,,,,,,,,,,,,,,,,,,,,,,,,,,,,,,,,,,,,,,,,,,,,,,,,,,,,,,,,,,,,,,,
,,?,0.001,0,,,,,,stimuli/images/PICTURE_93.png,GIRL,5b69a09840003400016ff00f,30/07/1988,2020-08-13_12h30.40.215,proactive2,2020.1.2,MacIntel,60,5f341be081b9052c55068110,5f35244c236a73485a84bc0c,1,,,,,,skateboard,,,,,,,,,,,4,2,0,0,0,31,1,,,,,,,,,,,,,,,,,,,,,,,,,,,,,,,,,,,,,,,,,,,,,,,,,,,,,,,,,,,,,,,,,,,,,,,,,,,,,,,,,,,,,,,,,,,,,,
,,?,0.001,0,,,,,,stimuli/images/PICTURE_750.png,POLICY,5b69a09840003400016ff00f,30/07/1988,2020-08-13_12h30.40.215,proactive2,2020.1.2,MacIntel,60,5f341be081b9052c55068110,5f35244c236a73485a84bc0c,1,,,,,,kettle,,,,,,,,,,,5,2,0,1,1,44,1,,,,,,,,,,,,,,,,,,,,,,,,,,,,,,,,,,,,,,,,,,,,,,,,,,,,,,,,,,,,,,,,,,,,,,,,,,,,,,,,,,,,,,,,,,,,,,
,,?,0.001,0,,,,,,stimuli/images/PICTURE_491.png,SERIES,5b69a09840003400016ff00f,30/07/1988,2020-08-13_12h30.40.215,proactive2,2020.1.2,MacIntel,60,5f341be081b9052c55068110,5f35244c236a73485a84bc0c,1,,,,,,rug,,,,,,,,,,,4,2,0,2,2,39,1,,,,,,,,,,,,,,,,,,,,,,,,,,,,,,,,,,,,,,,,,,,,,,,,,,,,,,,,,,,,,,,,,,,,,,,,,,,,,,,,,,,,,,,,,,,,,,
,,?,0,0,,,,,,stimuli/images/PICTURE_285.png,PRINCE,5b69a09840003400016ff00f,30/07/1988,2020-08-13_12h30.40.215,proactive2,2020.1.2,MacIntel,60,5f341be081b9052c55068110,5f35244c236a73485a84bc0c,1,,,,,,carrot,,,,,,,,,,,3,2,0,3,3,20,1,,,,,,,,,,,,,,,,,,,,,,,,,,,,,,,,,,,,,,,,,,,,,,,,,,,,,,,,,,,,,,,,,,,,,,,,,,,,,,,,,,,,,,,,,,,,,,
,,?,0.001,0,,,,,,stimuli/images/PICTURE_2.png,AREA,5b69a09840003400016ff00f,30/07/1988,2020-08-13_12h30.40.215,proactive2,2020.1.2,MacIntel,60,5f341be081b9052c55068110,5f35244c236a73485a84bc0c,1,,,,,,tyre,,,,,,,,,,,4,2,0,4,4,32,1,,,,,,,,,,,,,,,,,,,,,,,,,,,,,,,,,,,,,,,,,,,,,,,,,,,,,,,,,,,,,,,,,,,,,,,,,,,,,,,,,,,,,,,,,,,,,,
,,?,0.001,0,,,,,,stimuli/images/PICTURE_57.png,CANDY,5b69a09840003400016ff00f,30/07/1988,2020-08-13_12h30.40.215,proactive2,2020.1.2,MacIntel,60,5f341be081b9052c55068110,5f35244c236a73485a84bc0c,1,,,,,,stamp,,,,,,,,,,,6,2,0,5,5,52,1,,,,,,,,,,,,,,,,,,,,,,,,,,,,,,,,,,,,,,,,,,,,,,,,,,,,,,,,,,,,,,,,,,,,,,,,,,,,,,,,,,,,,,,,,,,,,,
,,?,0,0,,,,,,stimuli/images/PICTURE_677.png,PHOTO,5b69a09840003400016ff00f,30/07/1988,2020-08-13_12h30.40.215,proactive2,2020.1.2,MacIntel,60,5f341be081b9052c55068110,5f35244c236a73485a84bc0c,1,,,,,,map,,,,,,,,,,,2,2,0,6,6,14,1,,,,,,,,,,,,,,,,,,,,,,,,,,,,,,,,,,,,,,,,,,,,,,,,,,,,,,,,,,,,,,,,,,,,,,,,,,,,,,,,,,,,,,,,,,,,,,
,,?,0.001,0,,,,,,stimuli/images/PICTURE_18.png,RIVER,5b69a09840003400016ff00f,30/07/1988,2020-08-13_12h30.40.215,proactive2,2020.1.2,MacIntel,60,5f341be081b9052c55068110,5f35244c236a73485a84bc0c,1,,,,,,planet,,,,,,,,,,,3,2,0,7,7,22,1,,,,,,,,,,,,,,,,,,,,,,,,,,,,,,,,,,,,,,,,,,,,,,,,,,,,,,,,,,,,,,,,,,,,,,,,,,,,,,,,,,,,,,,,,,,,,,
,,?,0.001,0,,,,,,stimuli/images/PICTURE_297.png,BODY,5b69a09840003400016ff00f,30/07/1988,2020-08-13_12h30.40.215,proactive2,2020.1.2,MacIntel,60,5f341be081b9052c55068110,5f35244c236a73485a84bc0c,1,,,,,,aeroplane,,,,,,,,,,,6,2,0,8,8,51,1,,,,,,,,,,,,,,,,,,,,,,,,,,,,,,,,,,,,,,,,,,,,,,,,,,,,,,,,,,,,,,,,,,,,,,,,,,,,,,,,,,,,,,,,,,,,,,
,,?,0.001,0,,,,,,stimuli/images/PICTURE_255.png,PENNY,5b69a09840003400016ff00f,30/07/1988,2020-08-13_12h30.40.215,proactive2,2020.1.2,MacIntel,60,5f341be081b9052c55068110,5f35244c236a73485a84bc0c,1,,,,,,shovel,,,,,,,,,,,2,2,0,9,9,19,1,,,,,,,,,,,,,,,,,,,,,,,,,,,,,,,,,,,,,,,,,,,,,,,,,,,,,,,,,,,,,,,,,,,,,,,,,,,,,,,,,,,,,,,,,,,,,,
,,?,0,0,,,,,,stimuli/images/PICTURE_32.png,LETTER,5b69a09840003400016ff00f,30/07/1988,2020-08-13_12h30.40.215,proactive2,2020.1.2,MacIntel,60,5f341be081b9052c55068110,5f35244c236a73485a84bc0c,1,,,,,,crown,,,,,,,,,,,6,2,0,10,10,56,1,,,,,,,,,,,,,,,,,,,,,,,,,,,,,,,,,,,,,,,,,,,,,,,,,,,,,,,,,,,,,,,,,,,,,,,,,,,,,,,,,,,,,,,,,,,,,,
,,?,0,0,,,,,,stimuli/images/PICTURE_215.png,BOYS,5b69a09840003400016ff00f,30/07/1988,2020-08-13_12h30.40.215,proactive2,2020.1.2,MacIntel,60,5f341be081b9052c55068110,5f35244c236a73485a84bc0c,1,,,,,,boot,,,,,,,,,,,3,2,0,11,11,24,1,,,,,,,,,,,,,,,,,,,,,,,,,,,,,,,,,,,,,,,,,,,,,,,,,,,,,,,,,,,,,,,,,,,,,,,,,,,,,,,,,,,,,,,,,,,,,,
,,FLESH,2.412,1,,,,,,stimuli/images/PICTURE_311.png,FLESH,5b69a09840003400016ff00f,30/07/1988,2020-08-13_12h30.40.215,proactive2,2020.1.2,MacIntel,60,5f341be081b9052c55068110,5f35244c236a73485a84bc0c,1,,,,,,razor,,,,,,,,,,,1,2,0,12,12,3,1,,,,,,,,,,,,,,,,,,,,,,,,,,,,,,,,,,,,,,,,,,,,,,,,,,,,,,,,,,,,,,,,,,,,,,,,,,,,,,,,,,,,,,,,,,,,,,
,,?,0.001,0,,,,,,stimuli/images/PICTURE_2.png,YARD,5b69a09840003400016ff00f,30/07/1988,2020-08-13_12h30.40.215,proactive2,2020.1.2,MacIntel,60,5f341be081b9052c55068110,5f35244c236a73485a84bc0c,1,,,,,,tyre,,,,,,,,,,,6,2,0,13,13,55,1,,,,,,,,,,,,,,,,,,,,,,,,,,,,,,,,,,,,,,,,,,,,,,,,,,,,,,,,,,,,,,,,,,,,,,,,,,,,,,,,,,,,,,,,,,,,,,
,,?,0.001,0,,,,,,stimuli/images/PICTURE_509.png,APPLE,5b69a09840003400016ff00f,30/07/1988,2020-08-13_12h30.40.215,proactive2,2020.1.2,MacIntel,60,5f341be081b9052c55068110,5f35244c236a73485a84bc0c,1,,,,,,telephone,,,,,,,,,,,4,2,0,14,14,38,1,,,,,,,,,,,,,,,,,,,,,,,,,,,,,,,,,,,,,,,,,,,,,,,,,,,,,,,,,,,,,,,,,,,,,,,,,,,,,,,,,,,,,,,,,,,,,,
,,HOUSE,2.646,0,,,,,,stimuli/images/PICTURE_123.png,SALE,5b69a09840003400016ff00f,30/07/1988,2020-08-13_12h30.40.215,proactive2,2020.1.2,MacIntel,60,5f341be081b9052c55068110,5f35244c236a73485a84bc0c,1,,,,,,dart,,,,,,,,,,,1,2,0,15,15,8,1,,,,,,,,,,,,,,,,,,,,,,,,,,,,,,,,,,,,,,,,,,,,,,,,,,,,,,,,,,,,,,,,,,,,,,,,,,,,,,,,,,,,,,,,,,,,,,
,,?,0.002,0,,,,,,stimuli/images/PICTURE_453.png,FAMILY,5b69a09840003400016ff00f,30/07/1988,2020-08-13_12h30.40.215,proactive2,2020.1.2,MacIntel,60,5f341be081b9052c55068110,5f35244c236a73485a84bc0c,1,,,,,,scissors,,,,,,,,,,,5,2,0,16,16,48,1,,,,,,,,,,,,,,,,,,,,,,,,,,,,,,,,,,,,,,,,,,,,,,,,,,,,,,,,,,,,,,,,,,,,,,,,,,,,,,,,,,,,,,,,,,,,,,
,,?,0,0,,,,,,stimuli/images/PICTURE_564.png,PLENTY,5b69a09840003400016ff00f,30/07/1988,2020-08-13_12h30.40.215,proactive2,2020.1.2,MacIntel,60,5f341be081b9052c55068110,5f35244c236a73485a84bc0c,1,,,,,,spoon,,,,,,,,,,,2,2,0,17,17,11,1,,,,,,,,,,,,,,,,,,,,,,,,,,,,,,,,,,,,,,,,,,,,,,,,,,,,,,,,,,,,,,,,,,,,,,,,,,,,,,,,,,,,,,,,,,,,,,
,,?,0.001,0,,,,,,stimuli/images/PICTURE_487.png,POLICY,5b69a09840003400016ff00f,30/07/1988,2020-08-13_12h30.40.215,proactive2,2020.1.2,MacIntel,60,5f341be081b9052c55068110,5f35244c236a73485a84bc0c,1,,,,,,basket,,,,,,,,,,,4,2,0,18,18,34,1,,,,,,,,,,,,,,,,,,,,,,,,,,,,,,,,,,,,,,,,,,,,,,,,,,,,,,,,,,,,,,,,,,,,,,,,,,,,,,,,,,,,,,,,,,,,,,
,,?,0,0,,,,,,stimuli/images/PICTURE_296.png,CLOCK,5b69a09840003400016ff00f,30/07/1988,2020-08-13_12h30.40.215,proactive2,2020.1.2,MacIntel,60,5f341be081b9052c55068110,5f35244c236a73485a84bc0c,1,,,,,,bolt,,,,,,,,,,,2,2,0,19,19,18,1,,,,,,,,,,,,,,,,,,,,,,,,,,,,,,,,,,,,,,,,,,,,,,,,,,,,,,,,,,,,,,,,,,,,,,,,,,,,,,,,,,,,,,,,,,,,,,
,,HOUSE,2.593,0,,,,,,stimuli/images/PICTURE_509.png,SHOTS,5b69a09840003400016ff00f,30/07/1988,2020-08-13_12h30.40.215,proactive2,2020.1.2,MacIntel,60,5f341be081b9052c55068110,5f35244c236a73485a84bc0c,1,,,,,,telephone,,,,,,,,,,,1,2,0,20,20,7,1,,,,,,,,,,,,,,,,,,,,,,,,,,,,,,,,,,,,,,,,,,,,,,,,,,,,,,,,,,,,,,,,,,,,,,,,,,,,,,,,,,,,,,,,,,,,,,
,,?,0.002,0,,,,,,stimuli/images/PICTURE_356.png,CANDY,5b69a09840003400016ff00f,30/07/1988,2020-08-13_12h30.40.215,proactive2,2020.1.2,MacIntel,60,5f341be081b9052c55068110,5f35244c236a73485a84bc0c,1,,,,,,pawn,,,,,,,,,,,5,2,0,21,21,46,1,,,,,,,,,,,,,,,,,,,,,,,,,,,,,,,,,,,,,,,,,,,,,,,,,,,,,,,,,,,,,,,,,,,,,,,,,,,,,,,,,,,,,,,,,,,,,,
,,HOUSE,2.212,0,,,,,,stimuli/images/PICTURE_2.png,JUNGLE,5b69a09840003400016ff00f,30/07/1988,2020-08-13_12h30.40.215,proactive2,2020.1.2,MacIntel,60,5f341be081b9052c55068110,5f35244c236a73485a84bc0c,1,,,,,,tyre,,,,,,,,,,,1,2,0,22,22,1,1,,,,,,,,,,,,,,,,,,,,,,,,,,,,,,,,,,,,,,,,,,,,,,,,,,,,,,,,,,,,,,,,,,,,,,,,,,,,,,,,,,,,,,,,,,,,,,
,,?,0.001,0,,,,,,stimuli/images/PICTURE_487.png,ROOF,5b69a09840003400016ff00f,30/07/1988,2020-08-13_12h30.40.215,proactive2,2020.1.2,MacIntel,60,5f341be081b9052c55068110,5f35244c236a73485a84bc0c,1,,,,,,basket,,,,,,,,,,,6,2,0,23,23,50,1,,,,,,,,,,,,,,,,,,,,,,,,,,,,,,,,,,,,,,,,,,,,,,,,,,,,,,,,,,,,,,,,,,,,,,,,,,,,,,,,,,,,,,,,,,,,,,
,,?,0.001,0,,,,,,stimuli/images/PICTURE_327.png,LEADER,5b69a09840003400016ff00f,30/07/1988,2020-08-13_12h30.40.215,proactive2,2020.1.2,MacIntel,60,5f341be081b9052c55068110,5f35244c236a73485a84bc0c,1,,,,,,helmet,,,,,,,,,,,2,2,0,24,24,17,1,,,,,,,,,,,,,,,,,,,,,,,,,,,,,,,,,,,,,,,,,,,,,,,,,,,,,,,,,,,,,,,,,,,,,,,,,,,,,,,,,,,,,,,,,,,,,,
,,?,0.001,0,,,,,,stimuli/images/PICTURE_470.png,BEAUTY,5b69a09840003400016ff00f,30/07/1988,2020-08-13_12h30.40.215,proactive2,2020.1.2,MacIntel,60,5f341be081b9052c55068110,5f35244c236a73485a84bc0c,1,,,,,,motorbike,,,,,,,,,,,3,2,0,25,25,26,1,,,,,,,,,,,,,,,,,,,,,,,,,,,,,,,,,,,,,,,,,,,,,,,,,,,,,,,,,,,,,,,,,,,,,,,,,,,,,,,,,,,,,,,,,,,,,,
,,HOUSE,2.078,0,,,,,,stimuli/images/PICTURE_215.png,FOOD,5b69a09840003400016ff00f,30/07/1988,2020-08-13_12h30.40.215,proactive2,2020.1.2,MacIntel,60,5f341be081b9052c55068110,5f35244c236a73485a84bc0c,1,,,,,,boot,,,,,,,,,,,1,2,0,26,26,5,1,,,,,,,,,,,,,,,,,,,,,,,,,,,,,,,,,,,,,,,,,,,,,,,,,,,,,,,,,,,,,,,,,,,,,,,,,,,,,,,,,,,,,,,,,,,,,,
,,?,0.001,0,,,,,,stimuli/images/PICTURE_33.png,COPS,5b69a09840003400016ff00f,30/07/1988,2020-08-13_12h30.40.215,proactive2,2020.1.2,MacIntel,60,5f341be081b9052c55068110,5f35244c236a73485a84bc0c,1,,,,,,frame,,,,,,,,,,,3,2,0,27,27,29,1,,,,,,,,,,,,,,,,,,,,,,,,,,,,,,,,,,,,,,,,,,,,,,,,,,,,,,,,,,,,,,,,,,,,,,,,,,,,,,,,,,,,,,,,,,,,,,
,,?,0.001,0,,,,,,stimuli/images/PICTURE_405.png,JUNGLE,5b69a09840003400016ff00f,30/07/1988,2020-08-13_12h30.40.215,proactive2,2020.1.2,MacIntel,60,5f341be081b9052c55068110,5f35244c236a73485a84bc0c,1,,,,,,anchor,,,,,,,,,,,6,2,0,28,28,58,1,,,,,,,,,,,,,,,,,,,,,,,,,,,,,,,,,,,,,,,,,,,,,,,,,,,,,,,,,,,,,,,,,,,,,,,,,,,,,,,,,,,,,,,,,,,,,,
,,?,0,0,,,,,,stimuli/images/PICTURE_654.png,YEAR,5b69a09840003400016ff00f,30/07/1988,2020-08-13_12h30.40.215,proactive2,2020.1.2,MacIntel,60,5f341be081b9052c55068110,5f35244c236a73485a84bc0c,1,,,,,,pencil,,,,,,,,,,,5,2,0,29,29,41,1,,,,,,,,,,,,,,,,,,,,,,,,,,,,,,,,,,,,,,,,,,,,,,,,,,,,,,,,,,,,,,,,,,,,,,,,,,,,,,,,,,,,,,,,,,,,,,
,,?,0.001,0,,,,,,stimuli/images/PICTURE_405.png,JUNGLE,5b69a09840003400016ff00f,30/07/1988,2020-08-13_12h30.40.215,proactive2,2020.1.2,MacIntel,60,5f341be081b9052c55068110,5f35244c236a73485a84bc0c,1,,,,,,anchor,,,,,,,,,,,2,2,0,30,30,13,1,,,,,,,,,,,,,,,,,,,,,,,,,,,,,,,,,,,,,,,,,,,,,,,,,,,,,,,,,,,,,,,,,,,,,,,,,,,,,,,,,,,,,,,,,,,,,,
,,?,0.001,0,,,,,,stimuli/images/PICTURE_667.png,GLASS,5b69a09840003400016ff00f,30/07/1988,2020-08-13_12h30.40.215,proactive2,2020.1.2,MacIntel,60,5f341be081b9052c55068110,5f35244c236a73485a84bc0c,1,,,,,,daisy,,,,,,,,,,,3,2,0,31,31,27,1,,,,,,,,,,,,,,,,,,,,,,,,,,,,,,,,,,,,,,,,,,,,,,,,,,,,,,,,,,,,,,,,,,,,,,,,,,,,,,,,,,,,,,,,,,,,,,
,,?,0,0,,,,,,stimuli/images/PICTURE_470.png,MOMENT,5b69a09840003400016ff00f,30/07/1988,2020-08-13_12h30.40.215,proactive2,2020.1.2,MacIntel,60,5f341be081b9052c55068110,5f35244c236a73485a84bc0c,1,,,,,,motorbike,,,,,,,,,,,5,2,0,32,32,40,1,,,,,,,,,,,,,,,,,,,,,,,,,,,,,,,,,,,,,,,,,,,,,,,,,,,,,,,,,,,,,,,,,,,,,,,,,,,,,,,,,,,,,,,,,,,,,,
,,?,0.001,0,,,,,,stimuli/images/PICTURE_215.png,LEADER,5b69a09840003400016ff00f,30/07/1988,2020-08-13_12h30.40.215,proactive2,2020.1.2,MacIntel,60,5f341be081b9052c55068110,5f35244c236a73485a84bc0c,1,,,,,,boot,,,,,,,,,,,5,2,0,33,33,43,1,,,,,,,,,,,,,,,,,,,,,,,,,,,,,,,,,,,,,,,,,,,,,,,,,,,,,,,,,,,,,,,,,,,,,,,,,,,,,,,,,,,,,,,,,,,,,,
,,?,0.001,0,,,,,,stimuli/images/PICTURE_147.png,LEADER,5b69a09840003400016ff00f,30/07/1988,2020-08-13_12h30.40.215,proactive2,2020.1.2,MacIntel,60,5f341be081b9052c55068110,5f35244c236a73485a84bc0c,1,,,,,,hanger,,,,,,,,,,,4,2,0,34,34,33,1,,,,,,,,,,,,,,,,,,,,,,,,,,,,,,,,,,,,,,,,,,,,,,,,,,,,,,,,,,,,,,,,,,,,,,,,,,,,,,,,,,,,,,,,,,,,,,
,,HOUSE,2.604,0,,,,,,stimuli/images/PICTURE_285.png,WRITER,5b69a09840003400016ff00f,30/07/1988,2020-08-13_12h30.40.215,proactive2,2020.1.2,MacIntel,60,5f341be081b9052c55068110,5f35244c236a73485a84bc0c,1,,,,,,carrot,,,,,,,,,,,1,2,0,35,35,6,1,,,,,,,,,,,,,,,,,,,,,,,,,,,,,,,,,,,,,,,,,,,,,,,,,,,,,,,,,,,,,,,,,,,,,,,,,,,,,,,,,,,,,,,,,,,,,,
,,FAMILY,3.183,1,,,,,,stimuli/images/PICTURE_403.png,FAMILY,5b69a09840003400016ff00f,30/07/1988,2020-08-13_12h30.40.215,proactive2,2020.1.2,MacIntel,60,5f341be081b9052c55068110,5f35244c236a73485a84bc0c,1,,,,,,cathedral,,,,,,,,,,,1,2,0,36,36,9,1,,,,,,,,,,,,,,,,,,,,,,,,,,,,,,,,,,,,,,,,,,,,,,,,,,,,,,,,,,,,,,,,,,,,,,,,,,,,,,,,,,,,,,,,,,,,,,
,,?,0.001,0,,,,,,stimuli/images/PICTURE_654.png,COPS,5b69a09840003400016ff00f,30/07/1988,2020-08-13_12h30.40.215,proactive2,2020.1.2,MacIntel,60,5f341be081b9052c55068110,5f35244c236a73485a84bc0c,1,,,,,,pencil,,,,,,,,,,,2,2,0,37,37,10,1,,,,,,,,,,,,,,,,,,,,,,,,,,,,,,,,,,,,,,,,,,,,,,,,,,,,,,,,,,,,,,,,,,,,,,,,,,,,,,,,,,,,,,,,,,,,,,
,,?,0,0,,,,,,stimuli/images/PICTURE_655.png,SALE,5b69a09840003400016ff00f,30/07/1988,2020-08-13_12h30.40.215,proactive2,2020.1.2,MacIntel,60,5f341be081b9052c55068110,5f35244c236a73485a84bc0c,1,,,,,,megaphone,,,,,,,,,,,6,2,0,38,38,57,1,,,,,,,,,,,,,,,,,,,,,,,,,,,,,,,,,,,,,,,,,,,,,,,,,,,,,,,,,,,,,,,,,,,,,,,,,,,,,,,,,,,,,,,,,,,,,,
,,?,0.001,0,,,,,,stimuli/images/PICTURE_68.png,KIND,5b69a09840003400016ff00f,30/07/1988,2020-08-13_12h30.40.215,proactive2,2020.1.2,MacIntel,60,5f341be081b9052c55068110,5f35244c236a73485a84bc0c,1,,,,,,candle,,,,,,,,,,,3,2,0,39,39,23,1,,,,,,,,,,,,,,,,,,,,,,,,,,,,,,,,,,,,,,,,,,,,,,,,,,,,,,,,,,,,,,,,,,,,,,,,,,,,,,,,,,,,,,,,,,,,,,
,,?,0,0,,,,,,stimuli/images/PICTURE_141.png,CLIENT,5b69a09840003400016ff00f,30/07/1988,2020-08-13_12h30.40.215,proactive2,2020.1.2,MacIntel,60,5f341be081b9052c55068110,5f35244c236a73485a84bc0c,1,,,,,,sunflower,,,,,,,,,,,4,2,0,40,40,30,1,,,,,,,,,,,,,,,,,,,,,,,,,,,,,,,,,,,,,,,,,,,,,,,,,,,,,,,,,,,,,,,,,,,,,,,,,,,,,,,,,,,,,,,,,,,,,,
,,?,0,0,,,,,,stimuli/images/PICTURE_311.png,TOILET,5b69a09840003400016ff00f,30/07/1988,2020-08-13_12h30.40.215,proactive2,2020.1.2,MacIntel,60,5f341be081b9052c55068110,5f35244c236a73485a84bc0c,1,,,,,,razor,,,,,,,,,,,6,2,0,41,41,54,1,,,,,,,,,,,,,,,,,,,,,,,,,,,,,,,,,,,,,,,,,,,,,,,,,,,,,,,,,,,,,,,,,,,,,,,,,,,,,,,,,,,,,,,,,,,,,,
,,?,0.001,0,,,,,,stimuli/images/PICTURE_160.png,HOTEL,5b69a09840003400016ff00f,30/07/1988,2020-08-13_12h30.40.215,proactive2,2020.1.2,MacIntel,60,5f341be081b9052c55068110,5f35244c236a73485a84bc0c,1,,,,,,wheelbarrow,,,,,,,,,,,2,2,0,42,42,16,1,,,,,,,,,,,,,,,,,,,,,,,,,,,,,,,,,,,,,,,,,,,,,,,,,,,,,,,,,,,,,,,,,,,,,,,,,,,,,,,,,,,,,,,,,,,,,,
,,?,0.001,0,,,,,,stimuli/images/PICTURE_177.png,HOUSE,5b69a09840003400016ff00f,30/07/1988,2020-08-13_12h30.40.215,proactive2,2020.1.2,MacIntel,60,5f341be081b9052c55068110,5f35244c236a73485a84bc0c,1,,,,,,mushroom,,,,,,,,,,,3,2,0,43,43,25,1,,,,,,,,,,,,,,,,,,,,,,,,,,,,,,,,,,,,,,,,,,,,,,,,,,,,,,,,,,,,,,,,,,,,,,,,,,,,,,,,,,,,,,,,,,,,,,
,,?,0,0,,,,,,stimuli/images/PICTURE_348.png,DUDE,5b69a09840003400016ff00f,30/07/1988,2020-08-13_12h30.40.215,proactive2,2020.1.2,MacIntel,60,5f341be081b9052c55068110,5f35244c236a73485a84bc0c,1,,,,,,pepper,,,,,,,,,,,6,2,0,44,44,59,1,,,,,,,,,,,,,,,,,,,,,,,,,,,,,,,,,,,,,,,,,,,,,,,,,,,,,,,,,,,,,,,,,,,,,,,,,,,,,,,,,,,,,,,,,,,,,,
,,?,0,0,,,,,,stimuli/images/PICTURE_509.png,MILLER,5b69a09840003400016ff00f,30/07/1988,2020-08-13_12h30.40.215,proactive2,2020.1.2,MacIntel,60,5f341be081b9052c55068110,5f35244c236a73485a84bc0c,1,,,,,,telephone,,,,,,,,,,,5,2,0,45,45,49,1,,,,,,,,,,,,,,,,,,,,,,,,,,,,,,,,,,,,,,,,,,,,,,,,,,,,,,,,,,,,,,,,,,,,,,,,,,,,,,,,,,,,,,,,,,,,,,
,,COPS,1.571,1,,,,,,stimuli/images/PICTURE_452.png,COPS,5b69a09840003400016ff00f,30/07/1988,2020-08-13_12h30.40.215,proactive2,2020.1.2,MacIntel,60,5f341be081b9052c55068110,5f35244c236a73485a84bc0c,1,,,,,,watch,,,,,,,,,,,1,2,0,46,46,0,1,,,,,,,,,,,,,,,,,,,,,,,,,,,,,,,,,,,,,,,,,,,,,,,,,,,,,,,,,,,,,,,,,,,,,,,,,,,,,,,,,,,,,,,,,,,,,,
,,?,0.001,0,,,,,,stimuli/images/PICTURE_208.png,SPIRIT,5b69a09840003400016ff00f,30/07/1988,2020-08-13_12h30.40.215,proactive2,2020.1.2,MacIntel,60,5f341be081b9052c55068110,5f35244c236a73485a84bc0c,1,,,,,,microphone,,,,,,,,,,,3,2,0,47,47,28,1,,,,,,,,,,,,,,,,,,,,,,,,,,,,,,,,,,,,,,,,,,,,,,,,,,,,,,,,,,,,,,,,,,,,,,,,,,,,,,,,,,,,,,,,,,,,,,
,,?,0.001,0,,,,,,stimuli/images/PICTURE_677.png,FAMILY,5b69a09840003400016ff00f,30/07/1988,2020-08-13_12h30.40.215,proactive2,2020.1.2,MacIntel,60,5f341be081b9052c55068110,5f35244c236a73485a84bc0c,1,,,,,,map,,,,,,,,,,,6,2,0,48,48,53,1,,,,,,,,,,,,,,,,,,,,,,,,,,,,,,,,,,,,,,,,,,,,,,,,,,,,,,,,,,,,,,,,,,,,,,,,,,,,,,,,,,,,,,,,,,,,,,
,,?,0,0,,,,,,stimuli/images/PICTURE_95.png,NIGHT,5b69a09840003400016ff00f,30/07/1988,2020-08-13_12h30.40.215,proactive2,2020.1.2,MacIntel,60,5f341be081b9052c55068110,5f35244c236a73485a84bc0c,1,,,,,,suitcase,,,,,,,,,,,4,2,0,49,49,37,1,,,,,,,,,,,,,,,,,,,,,,,,,,,,,,,,,,,,,,,,,,,,,,,,,,,,,,,,,,,,,,,,,,,,,,,,,,,,,,,,,,,,,,,,,,,,,,
,,?,0,0,,,,,,stimuli/images/PICTURE_314.png,SPEECH,5b69a09840003400016ff00f,30/07/1988,2020-08-13_12h30.40.215,proactive2,2020.1.2,MacIntel,60,5f341be081b9052c55068110,5f35244c236a73485a84bc0c,1,,,,,,perfume,,,,,,,,,,,4,2,0,50,50,35,1,,,,,,,,,,,,,,,,,,,,,,,,,,,,,,,,,,,,,,,,,,,,,,,,,,,,,,,,,,,,,,,,,,,,,,,,,,,,,,,,,,,,,,,,,,,,,,
,,?,0.001,0,,,,,,stimuli/images/PICTURE_57.png,NATION,5b69a09840003400016ff00f,30/07/1988,2020-08-13_12h30.40.215,proactive2,2020.1.2,MacIntel,60,5f341be081b9052c55068110,5f35244c236a73485a84bc0c,1,,,,,,stamp,,,,,,,,,,,3,2,0,51,51,21,1,,,,,,,,,,,,,,,,,,,,,,,,,,,,,,,,,,,,,,,,,,,,,,,,,,,,,,,,,,,,,,,,,,,,,,,,,,,,,,,,,,,,,,,,,,,,,,
,,?,0.001,0,,,,,,stimuli/images/PICTURE_708.png,VALLEY,5b69a09840003400016ff00f,30/07/1988,2020-08-13_12h30.40.215,proactive2,2020.1.2,MacIntel,60,5f341be081b9052c55068110,5f35244c236a73485a84bc0c,1,,,,,,monkey,,,,,,,,,,,5,2,0,52,52,45,1,,,,,,,,,,,,,,,,,,,,,,,,,,,,,,,,,,,,,,,,,,,,,,,,,,,,,,,,,,,,,,,,,,,,,,,,,,,,,,,,,,,,,,,,,,,,,,
,,HOUSE,1.308,1,,,,,,stimuli/images/PICTURE_405.png,HOUSE,5b69a09840003400016ff00f,30/07/1988,2020-08-13_12h30.40.215,proactive2,2020.1.2,MacIntel,60,5f341be081b9052c55068110,5f35244c236a73485a84bc0c,1,,,,,,anchor,,,,,,,,,,,1,2,0,53,53,2,1,,,,,,,,,,,,,,,,,,,,,,,,,,,,,,,,,,,,,,,,,,,,,,,,,,,,,,,,,,,,,,,,,,,,,,,,,,,,,,,,,,,,,,,,,,,,,,
,,?,0.001,0,,,,,,stimuli/images/PICTURE_57.png,CASINO,5b69a09840003400016ff00f,30/07/1988,2020-08-13_12h30.40.215,proactive2,2020.1.2,MacIntel,60,5f341be081b9052c55068110,5f35244c236a73485a84bc0c,1,,,,,,stamp,,,,,,,,,,,2,2,0,54,54,12,1,,,,,,,,,,,,,,,,,,,,,,,,,,,,,,,,,,,,,,,,,,,,,,,,,,,,,,,,,,,,,,,,,,,,,,,,,,,,,,,,,,,,,,,,,,,,,,
,,TOILET,1.964,1,,,,,,stimuli/images/PICTURE_348.png,TOILET,5b69a09840003400016ff00f,30/07/1988,2020-08-13_12h30.40.215,proactive2,2020.1.2,MacIntel,60,5f341be081b9052c55068110,5f35244c236a73485a84bc0c,1,,,,,,pepper,,,,,,,,,,,1,2,0,55,55,4,1,,,,,,,,,,,,,,,,,,,,,,,,,,,,,,,,,,,,,,,,,,,,,,,,,,,,,,,,,,,,,,,,,,,,,,,,,,,,,,,,,,,,,,,,,,,,,,
,,?,0.001,0,,,,,,stimuli/images/PICTURE_504.png,HOUSE,5b69a09840003400016ff00f,30/07/1988,2020-08-13_12h30.40.215,proactive2,2020.1.2,MacIntel,60,5f341be081b9052c55068110,5f35244c236a73485a84bc0c,1,,,,,,wheel,,,,,,,,,,,4,2,0,56,56,36,1,,,,,,,,,,,,,,,,,,,,,,,,,,,,,,,,,,,,,,,,,,,,,,,,,,,,,,,,,,,,,,,,,,,,,,,,,,,,,,,,,,,,,,,,,,,,,,
,,?,0,0,,,,,,stimuli/images/PICTURE_692.png,DUDE,5b69a09840003400016ff00f,30/07/1988,2020-08-13_12h30.40.215,proactive2,2020.1.2,MacIntel,60,5f341be081b9052c55068110,5f35244c236a73485a84bc0c,1,,,,,,cherry,,,,,,,,,,,5,2,0,57,57,47,1,,,,,,,,,,,,,,,,,,,,,,,,,,,,,,,,,,,,,,,,,,,,,,,,,,,,,,,,,,,,,,,,,,,,,,,,,,,,,,,,,,,,,,,,,,,,,,
,,?,0.001,0,,,,,,stimuli/images/PICTURE_509.png,BATH,5b69a09840003400016ff00f,30/07/1988,2020-08-13_12h30.40.215,proactive2,2020.1.2,MacIntel,60,5f341be081b9052c55068110,5f35244c236a73485a84bc0c,1,,,,,,telephone,,,,,,,,,,,2,2,0,58,58,15,1,,,,,,,,,,,,,,,,,,,,,,,,,,,,,,,,,,,,,,,,,,,,,,,,,,,,,,,,,,,,,,,,,,,,,,,,,,,,,,,,,,,,,,,,,,,,,,
,,?,0,0,,,,,,stimuli/images/PICTURE_688.png,CLOCK,5b69a09840003400016ff00f,30/07/1988,2020-08-13_12h30.40.215,proactive2,2020.1.2,MacIntel,60,5f341be081b9052c55068110,5f35244c236a73485a84bc0c,1,,,,,,runner,,,,,,,,,,,5,2,0,59,59,42,1,,,,,,,,,,,,,,,,,,,,,,,,,,,,,,,,,,,,,,,,,,,,,,,,,,,,,,,,,,,,,,,,,,,,,,,,,,,,,,,,,,,,,,,,,,,,,,
,,,,,,,,,,,,5b69a09840003400016ff00f,30/07/1988,2020-08-13_12h30.40.215,proactive2,2020.1.2,MacIntel,60,5f341be081b9052c55068110,5f35244c236a73485a84bc0c,1,,,,,,,,,,,,,,,,,,,,,,,,0,1,1,2,1,stimuli/learn-block3.csv,,,,,,,,,,,,,,,,,,,,,,,,,,,,,,,,,,,,,,,,,,,,,,,,,,,,,,,,,,,,,,,,,,,,,,,,,,,,,,,,,,,,,,,,
,,,,,,,,,,stimuli/images/PICTURE_296.png,LIFE,5b69a09840003400016ff00f,30/07/1988,2020-08-13_12h30.40.215,proactive2,2020.1.2,MacIntel,60,5f341be081b9052c55068110,5f35244c236a73485a84bc0c,1,,,,,,bolt,,,,,,0,0,0,57,1,6,1,,,,,,,,,,,,,,,,,,,,,,,,,,,,,,,,,,,,,,,,,,,,,,,,,,,,,,,,,,,,,,,,,,,,,,,,,,,,,,,,,,,,,,,,,,,,,,,,,,,
,,,,,,,,,,stimuli/images/PICTURE_750.png,HOTEL,5b69a09840003400016ff00f,30/07/1988,2020-08-13_12h30.40.215,proactive2,2020.1.2,MacIntel,60,5f341be081b9052c55068110,5f35244c236a73485a84bc0c,1,,,,,,kettle,,,,,,0,1,1,27,1,3,1,,,,,,,,,,,,,,,,,,,,,,,,,,,,,,,,,,,,,,,,,,,,,,,,,,,,,,,,,,,,,,,,,,,,,,,,,,,,,,,,,,,,,,,,,,,,,,,,,,,
,,,,,,,,,,stimuli/images/PICTURE_108.png,POLICY,5b69a09840003400016ff00f,30/07/1988,2020-08-13_12h30.40.215,proactive2,2020.1.2,MacIntel,60,5f341be081b9052c55068110,5f35244c236a73485a84bc0c,1,,,,,,calendar,,,,,,0,2,2,22,1,3,1,,,,,,,,,,,,,,,,,,,,,,,,,,,,,,,,,,,,,,,,,,,,,,,,,,,,,,,,,,,,,,,,,,,,,,,,,,,,,,,,,,,,,,,,,,,,,,,,,,,
,,,,,,,,,,stimuli/images/PICTURE_383.png,SERIES,5b69a09840003400016ff00f,30/07/1988,2020-08-13_12h30.40.215,proactive2,2020.1.2,MacIntel,60,5f341be081b9052c55068110,5f35244c236a73485a84bc0c,1,,,,,,coin,,,,,,0,3,3,46,1,5,1,,,,,,,,,,,,,,,,,,,,,,,,,,,,,,,,,,,,,,,,,,,,,,,,,,,,,,,,,,,,,,,,,,,,,,,,,,,,,,,,,,,,,,,,,,,,,,,,,,,
,,,,,,,,,,stimuli/images/PICTURE_339.png,CLIENT,5b69a09840003400016ff00f,30/07/1988,2020-08-13_12h30.40.215,proactive2,2020.1.2,MacIntel,60,5f341be081b9052c55068110,5f35244c236a73485a84bc0c,1,,,,,,backpack,,,,,,0,4,4,11,1,2,1,,,,,,,,,,,,,,,,,,,,,,,,,,,,,,,,,,,,,,,,,,,,,,,,,,,,,,,,,,,,,,,,,,,,,,,,,,,,,,,,,,,,,,,,,,,,,,,,,,,
,,,,,,,,,,stimuli/images/PICTURE_147.png,WOMEN,5b69a09840003400016ff00f,30/07/1988,2020-08-13_12h30.40.215,proactive2,2020.1.2,MacIntel,60,5f341be081b9052c55068110,5f35244c236a73485a84bc0c,1,,,,,,hanger,,,,,,0,5,5,7,1,1,1,,,,,,,,,,,,,,,,,,,,,,,,,,,,,,,,,,,,,,,,,,,,,,,,,,,,,,,,,,,,,,,,,,,,,,,,,,,,,,,,,,,,,,,,,,,,,,,,,,,
,,,,,,,,,,stimuli/images/PICTURE_57.png,MOMENT,5b69a09840003400016ff00f,30/07/1988,2020-08-13_12h30.40.215,proactive2,2020.1.2,MacIntel,60,5f341be081b9052c55068110,5f35244c236a73485a84bc0c,1,,,,,,stamp,,,,,,0,6,6,37,1,4,1,,,,,,,,,,,,,,,,,,,,,,,,,,,,,,,,,,,,,,,,,,,,,,,,,,,,,,,,,,,,,,,,,,,,,,,,,,,,,,,,,,,,,,,,,,,,,,,,,,,
,,,,,,,,,,stimuli/images/PICTURE_491.png,GLASS,5b69a09840003400016ff00f,30/07/1988,2020-08-13_12h30.40.215,proactive2,2020.1.2,MacIntel,60,5f341be081b9052c55068110,5f35244c236a73485a84bc0c,1,,,,,,rug,,,,,,0,7,7,14,1,2,1,,,,,,,,,,,,,,,,,,,,,,,,,,,,,,,,,,,,,,,,,,,,,,,,,,,,,,,,,,,,,,,,,,,,,,,,,,,,,,,,,,,,,,,,,,,,,,,,,,,
,,,,,,,,,,stimuli/images/PICTURE_405.png,YEAR,5b69a09840003400016ff00f,30/07/1988,2020-08-13_12h30.40.215,proactive2,2020.1.2,MacIntel,60,5f341be081b9052c55068110,5f35244c236a73485a84bc0c,1,,,,,,anchor,,,,,,0,8,8,34,1,4,1,,,,,,,,,,,,,,,,,,,,,,,,,,,,,,,,,,,,,,,,,,,,,,,,,,,,,,,,,,,,,,,,,,,,,,,,,,,,,,,,,,,,,,,,,,,,,,,,,,,
,,,,,,,,,,stimuli/images/PICTURE_285.png,LIFE,5b69a09840003400016ff00f,30/07/1988,2020-08-13_12h30.40.215,proactive2,2020.1.2,MacIntel,60,5f341be081b9052c55068110,5f35244c236a73485a84bc0c,1,,,,,,carrot,,,,,,0,9,9,33,1,4,1,,,,,,,,,,,,,,,,,,,,,,,,,,,,,,,,,,,,,,,,,,,,,,,,,,,,,,,,,,,,,,,,,,,,,,,,,,,,,,,,,,,,,,,,,,,,,,,,,,,
,,,,,,,,,,stimuli/images/PICTURE_2.png,FLIGHT,5b69a09840003400016ff00f,30/07/1988,2020-08-13_12h30.40.215,proactive2,2020.1.2,MacIntel,60,5f341be081b9052c55068110,5f35244c236a73485a84bc0c,1,,,,,,tyre,,,,,,0,10,10,15,1,2,1,,,,,,,,,,,,,,,,,,,,,,,,,,,,,,,,,,,,,,,,,,,,,,,,,,,,,,,,,,,,,,,,,,,,,,,,,,,,,,,,,,,,,,,,,,,,,,,,,,,
,,,,,,,,,,stimuli/images/PICTURE_68.png,ROOF,5b69a09840003400016ff00f,30/07/1988,2020-08-13_12h30.40.215,proactive2,2020.1.2,MacIntel,60,5f341be081b9052c55068110,5f35244c236a73485a84bc0c,1,,,,,,candle,,,,,,0,11,11,38,1,4,1,,,,,,,,,,,,,,,,,,,,,,,,,,,,,,,,,,,,,,,,,,,,,,,,,,,,,,,,,,,,,,,,,,,,,,,,,,,,,,,,,,,,,,,,,,,,,,,,,,,
,,,,,,,,,,stimuli/images/PICTURE_380.png,HONEY,5b69a09840003400016ff00f,30/07/1988,2020-08-13_12h30.40.215,proactive2,2020.1.2,MacIntel,60,5f341be081b9052c55068110,5f35244c236a73485a84bc0c,1,,,,,,gorilla,,,,,,0,12,12,19,1,2,1,,,,,,,,,,,,,,,,,,,,,,,,,,,,,,,,,,,,,,,,,,,,,,,,,,,,,,,,,,,,,,,,,,,,,,,,,,,,,,,,,,,,,,,,,,,,,,,,,,,
,,,,,,,,,,stimuli/images/PICTURE_491.png,RIVER,5b69a09840003400016ff00f,30/07/1988,2020-08-13_12h30.40.215,proactive2,2020.1.2,MacIntel,60,5f341be081b9052c55068110,5f35244c236a73485a84bc0c,1,,,,,,rug,,,,,,0,13,13,6,1,1,1,,,,,,,,,,,,,,,,,,,,,,,,,,,,,,,,,,,,,,,,,,,,,,,,,,,,,,,,,,,,,,,,,,,,,,,,,,,,,,,,,,,,,,,,,,,,,,,,,,,
,,,,,,,,,,stimuli/images/PICTURE_403.png,WRITER,5b69a09840003400016ff00f,30/07/1988,2020-08-13_12h30.40.215,proactive2,2020.1.2,MacIntel,60,5f341be081b9052c55068110,5f35244c236a73485a84bc0c,1,,,,,,cathedral,,,,,,0,14,14,31,1,4,1,,,,,,,,,,,,,,,,,,,,,,,,,,,,,,,,,,,,,,,,,,,,,,,,,,,,,,,,,,,,,,,,,,,,,,,,,,,,,,,,,,,,,,,,,,,,,,,,,,,
,,,,,,,,,,stimuli/images/PICTURE_383.png,WRITER,5b69a09840003400016ff00f,30/07/1988,2020-08-13_12h30.40.215,proactive2,2020.1.2,MacIntel,60,5f341be081b9052c55068110,5f35244c236a73485a84bc0c,1,,,,,,coin,,,,,,0,15,15,28,1,3,1,,,,,,,,,,,,,,,,,,,,,,,,,,,,,,,,,,,,,,,,,,,,,,,,,,,,,,,,,,,,,,,,,,,,,,,,,,,,,,,,,,,,,,,,,,,,,,,,,,,
,,,,,,,,,,stimuli/images/PICTURE_744.png,WEAPON,5b69a09840003400016ff00f,30/07/1988,2020-08-13_12h30.40.215,proactive2,2020.1.2,MacIntel,60,5f341be081b9052c55068110,5f35244c236a73485a84bc0c,1,,,,,,ring,,,,,,0,16,16,50,1,6,1,,,,,,,,,,,,,,,,,,,,,,,,,,,,,,,,,,,,,,,,,,,,,,,,,,,,,,,,,,,,,,,,,,,,,,,,,,,,,,,,,,,,,,,,,,,,,,,,,,,
,,,,,,,,,,stimuli/images/PICTURE_467.png,POLICY,5b69a09840003400016ff00f,30/07/1988,2020-08-13_12h30.40.215,proactive2,2020.1.2,MacIntel,60,5f341be081b9052c55068110,5f35244c236a73485a84bc0c,1,,,,,,peg,,,,,,0,17,17,53,1,6,1,,,,,,,,,,,,,,,,,,,,,,,,,,,,,,,,,,,,,,,,,,,,,,,,,,,,,,,,,,,,,,,,,,,,,,,,,,,,,,,,,,,,,,,,,,,,,,,,,,,
,,,,,,,,,,stimuli/images/PICTURE_42.png,BOYS,5b69a09840003400016ff00f,30/07/1988,2020-08-13_12h30.40.215,proactive2,2020.1.2,MacIntel,60,5f341be081b9052c55068110,5f35244c236a73485a84bc0c,1,,,,,,pear,,,,,,0,18,18,55,1,6,1,,,,,,,,,,,,,,,,,,,,,,,,,,,,,,,,,,,,,,,,,,,,,,,,,,,,,,,,,,,,,,,,,,,,,,,,,,,,,,,,,,,,,,,,,,,,,,,,,,,
,,,,,,,,,,stimuli/images/PICTURE_233.png,LOTS,5b69a09840003400016ff00f,30/07/1988,2020-08-13_12h30.40.215,proactive2,2020.1.2,MacIntel,60,5f341be081b9052c55068110,5f35244c236a73485a84bc0c,1,,,,,,salt,,,,,,0,19,19,42,1,5,1,,,,,,,,,,,,,,,,,,,,,,,,,,,,,,,,,,,,,,,,,,,,,,,,,,,,,,,,,,,,,,,,,,,,,,,,,,,,,,,,,,,,,,,,,,,,,,,,,,,
,,,,,,,,,,stimuli/images/PICTURE_403.png,RIVER,5b69a09840003400016ff00f,30/07/1988,2020-08-13_12h30.40.215,proactive2,2020.1.2,MacIntel,60,5f341be081b9052c55068110,5f35244c236a73485a84bc0c,1,,,,,,cathedral,,,,,,0,20,20,40,1,5,1,,,,,,,,,,,,,,,,,,,,,,,,,,,,,,,,,,,,,,,,,,,,,,,,,,,,,,,,,,,,,,,,,,,,,,,,,,,,,,,,,,,,,,,,,,,,,,,,,,,
,,,,,,,,,,stimuli/images/PICTURE_655.png,TOILET,5b69a09840003400016ff00f,30/07/1988,2020-08-13_12h30.40.215,proactive2,2020.1.2,MacIntel,60,5f341be081b9052c55068110,5f35244c236a73485a84bc0c,1,,,,,,megaphone,,,,,,0,21,21,12,1,2,1,,,,,,,,,,,,,,,,,,,,,,,,,,,,,,,,,,,,,,,,,,,,,,,,,,,,,,,,,,,,,,,,,,,,,,,,,,,,,,,,,,,,,,,,,,,,,,,,,,,
,,,,,,,,,,stimuli/images/PICTURE_708.png,RECORD,5b69a09840003400016ff00f,30/07/1988,2020-08-13_12h30.40.215,proactive2,2020.1.2,MacIntel,60,5f341be081b9052c55068110,5f35244c236a73485a84bc0c,1,,,,,,monkey,,,,,,0,22,22,58,1,6,1,,,,,,,,,,,,,,,,,,,,,,,,,,,,,,,,,,,,,,,,,,,,,,,,,,,,,,,,,,,,,,,,,,,,,,,,,,,,,,,,,,,,,,,,,,,,,,,,,,,
,,,,,,,,,,stimuli/images/PICTURE_403.png,TOILET,5b69a09840003400016ff00f,30/07/1988,2020-08-13_12h30.40.215,proactive2,2020.1.2,MacIntel,60,5f341be081b9052c55068110,5f35244c236a73485a84bc0c,1,,,,,,cathedral,,,,,,0,23,23,25,1,3,1,,,,,,,,,,,,,,,,,,,,,,,,,,,,,,,,,,,,,,,,,,,,,,,,,,,,,,,,,,,,,,,,,,,,,,,,,,,,,,,,,,,,,,,,,,,,,,,,,,,
,,,,,,,,,,stimuli/images/PICTURE_504.png,YEAR,5b69a09840003400016ff00f,30/07/1988,2020-08-13_12h30.40.215,proactive2,2020.1.2,MacIntel,60,5f341be081b9052c55068110,5f35244c236a73485a84bc0c,1,,,,,,wheel,,,,,,0,24,24,13,1,2,1,,,,,,,,,,,,,,,,,,,,,,,,,,,,,,,,,,,,,,,,,,,,,,,,,,,,,,,,,,,,,,,,,,,,,,,,,,,,,,,,,,,,,,,,,,,,,,,,,,,
,,,,,,,,,,stimuli/images/PICTURE_469.png,AGENT,5b69a09840003400016ff00f,30/07/1988,2020-08-13_12h30.40.215,proactive2,2020.1.2,MacIntel,60,5f341be081b9052c55068110,5f35244c236a73485a84bc0c,1,,,,,,stool,,,,,,0,25,25,16,1,2,1,,,,,,,,,,,,,,,,,,,,,,,,,,,,,,,,,,,,,,,,,,,,,,,,,,,,,,,,,,,,,,,,,,,,,,,,,,,,,,,,,,,,,,,,,,,,,,,,,,,
,,,,,,,,,,stimuli/images/PICTURE_308.png,FAMILY,5b69a09840003400016ff00f,30/07/1988,2020-08-13_12h30.40.215,proactive2,2020.1.2,MacIntel,60,5f341be081b9052c55068110,5f35244c236a73485a84bc0c,1,,,,,,dice,,,,,,0,26,26,36,1,4,1,,,,,,,,,,,,,,,,,,,,,,,,,,,,,,,,,,,,,,,,,,,,,,,,,,,,,,,,,,,,,,,,,,,,,,,,,,,,,,,,,,,,,,,,,,,,,,,,,,,
,,,,,,,,,,stimuli/images/PICTURE_85.png,TOILET,5b69a09840003400016ff00f,30/07/1988,2020-08-13_12h30.40.215,proactive2,2020.1.2,MacIntel,60,5f341be081b9052c55068110,5f35244c236a73485a84bc0c,1,,,,,,diamond,,,,,,0,27,27,48,1,5,1,,,,,,,,,,,,,,,,,,,,,,,,,,,,,,,,,,,,,,,,,,,,,,,,,,,,,,,,,,,,,,,,,,,,,,,,,,,,,,,,,,,,,,,,,,,,,,,,,,,
,,,,,,,,,,stimuli/images/PICTURE_95.png,BOYS,5b69a09840003400016ff00f,30/07/1988,2020-08-13_12h30.40.215,proactive2,2020.1.2,MacIntel,60,5f341be081b9052c55068110,5f35244c236a73485a84bc0c,1,,,,,,suitcase,,,,,,0,28,28,1,1,1,1,,,,,,,,,,,,,,,,,,,,,,,,,,,,,,,,,,,,,,,,,,,,,,,,,,,,,,,,,,,,,,,,,,,,,,,,,,,,,,,,,,,,,,,,,,,,,,,,,,,
,,,,,,,,,,stimuli/images/PICTURE_95.png,HONEY,5b69a09840003400016ff00f,30/07/1988,2020-08-13_12h30.40.215,proactive2,2020.1.2,MacIntel,60,5f341be081b9052c55068110,5f35244c236a73485a84bc0c,1,,,,,,suitcase,,,,,,0,29,29,44,1,5,1,,,,,,,,,,,,,,,,,,,,,,,,,,,,,,,,,,,,,,,,,,,,,,,,,,,,,,,,,,,,,,,,,,,,,,,,,,,,,,,,,,,,,,,,,,,,,,,,,,,
,,,,,,,,,,stimuli/images/PICTURE_675.png,SALE,5b69a09840003400016ff00f,30/07/1988,2020-08-13_12h30.40.215,proactive2,2020.1.2,MacIntel,60,5f341be081b9052c55068110,5f35244c236a73485a84bc0c,1,,,,,,windmill,,,,,,0,30,30,47,1,5,1,,,,,,,,,,,,,,,,,,,,,,,,,,,,,,,,,,,,,,,,,,,,,,,,,,,,,,,,,,,,,,,,,,,,,,,,,,,,,,,,,,,,,,,,,,,,,,,,,,,
,,,,,,,,,,stimuli/images/PICTURE_504.png,ARTIST,5b69a09840003400016ff00f,30/07/1988,2020-08-13_12h30.40.215,proactive2,2020.1.2,MacIntel,60,5f341be081b9052c55068110,5f35244c236a73485a84bc0c,1,,,,,,wheel,,,,,,0,31,31,49,1,5,1,,,,,,,,,,,,,,,,,,,,,,,,,,,,,,,,,,,,,,,,,,,,,,,,,,,,,,,,,,,,,,,,,,,,,,,,,,,,,,,,,,,,,,,,,,,,,,,,,,,
,,,,,,,,,,stimuli/images/PICTURE_504.png,COPS,5b69a09840003400016ff00f,30/07/1988,2020-08-13_12h30.40.215,proactive2,2020.1.2,MacIntel,60,5f341be081b9052c55068110,5f35244c236a73485a84bc0c,1,,,,,,wheel,,,,,,0,32,32,52,1,6,1,,,,,,,,,,,,,,,,,,,,,,,,,,,,,,,,,,,,,,,,,,,,,,,,,,,,,,,,,,,,,,,,,,,,,,,,,,,,,,,,,,,,,,,,,,,,,,,,,,,
,,,,,,,,,,stimuli/images/PICTURE_677.png,APPLE,5b69a09840003400016ff00f,30/07/1988,2020-08-13_12h30.40.215,proactive2,2020.1.2,MacIntel,60,5f341be081b9052c55068110,5f35244c236a73485a84bc0c,1,,,,,,map,,,,,,0,33,33,43,1,5,1,,,,,,,,,,,,,,,,,,,,,,,,,,,,,,,,,,,,,,,,,,,,,,,,,,,,,,,,,,,,,,,,,,,,,,,,,,,,,,,,,,,,,,,,,,,,,,,,,,,
,,,,,,,,,,stimuli/images/PICTURE_654.png,MONTH,5b69a09840003400016ff00f,30/07/1988,2020-08-13_12h30.40.215,proactive2,2020.1.2,MacIntel,60,5f341be081b9052c55068110,5f35244c236a73485a84bc0c,1,,,,,,pencil,,,,,,0,34,34,29,1,3,1,,,,,,,,,,,,,,,,,,,,,,,,,,,,,,,,,,,,,,,,,,,,,,,,,,,,,,,,,,,,,,,,,,,,,,,,,,,,,,,,,,,,,,,,,,,,,,,,,,,
,,,,,,,,,,stimuli/images/PICTURE_203.png,NIGHT,5b69a09840003400016ff00f,30/07/1988,2020-08-13_12h30.40.215,proactive2,2020.1.2,MacIntel,60,5f341be081b9052c55068110,5f35244c236a73485a84bc0c,1,,,,,,cap,,,,,,0,35,35,2,1,1,1,,,,,,,,,,,,,,,,,,,,,,,,,,,,,,,,,,,,,,,,,,,,,,,,,,,,,,,,,,,,,,,,,,,,,,,,,,,,,,,,,,,,,,,,,,,,,,,,,,,
,,,,,,,,,,stimuli/images/PICTURE_487.png,GIRL,5b69a09840003400016ff00f,30/07/1988,2020-08-13_12h30.40.215,proactive2,2020.1.2,MacIntel,60,5f341be081b9052c55068110,5f35244c236a73485a84bc0c,1,,,,,,basket,,,,,,0,36,36,45,1,5,1,,,,,,,,,,,,,,,,,,,,,,,,,,,,,,,,,,,,,,,,,,,,,,,,,,,,,,,,,,,,,,,,,,,,,,,,,,,,,,,,,,,,,,,,,,,,,,,,,,,
,,,,,,,,,,stimuli/images/PICTURE_380.png,CANDY,5b69a09840003400016ff00f,30/07/1988,2020-08-13_12h30.40.215,proactive2,2020.1.2,MacIntel,60,5f341be081b9052c55068110,5f35244c236a73485a84bc0c,1,,,,,,gorilla,,,,,,0,37,37,0,1,1,1,,,,,,,,,,,,,,,,,,,,,,,,,,,,,,,,,,,,,,,,,,,,,,,,,,,,,,,,,,,,,,,,,,,,,,,,,,,,,,,,,,,,,,,,,,,,,,,,,,,
,,,,,,,,,,stimuli/images/PICTURE_147.png,YEAR,5b69a09840003400016ff00f,30/07/1988,2020-08-13_12h30.40.215,proactive2,2020.1.2,MacIntel,60,5f341be081b9052c55068110,5f35244c236a73485a84bc0c,1,,,,,,hanger,,,,,,0,38,38,21,1,3,1,,,,,,,,,,,,,,,,,,,,,,,,,,,,,,,,,,,,,,,,,,,,,,,,,,,,,,,,,,,,,,,,,,,,,,,,,,,,,,,,,,,,,,,,,,,,,,,,,,,
,,,,,,,,,,stimuli/images/PICTURE_32.png,KIND,5b69a09840003400016ff00f,30/07/1988,2020-08-13_12h30.40.215,proactive2,2020.1.2,MacIntel,60,5f341be081b9052c55068110,5f35244c236a73485a84bc0c,1,,,,,,crown,,,,,,0,39,39,35,1,4,1,,,,,,,,,,,,,,,,,,,,,,,,,,,,,,,,,,,,,,,,,,,,,,,,,,,,,,,,,,,,,,,,,,,,,,,,,,,,,,,,,,,,,,,,,,,,,,,,,,,
,,,,,,,,,,stimuli/images/PICTURE_340.png,VALLEY,5b69a09840003400016ff00f,30/07/1988,2020-08-13_12h30.40.215,proactive2,2020.1.2,MacIntel,60,5f341be081b9052c55068110,5f35244c236a73485a84bc0c,1,,,,,,mirror,,,,,,0,40,40,54,1,6,1,,,,,,,,,,,,,,,,,,,,,,,,,,,,,,,,,,,,,,,,,,,,,,,,,,,,,,,,,,,,,,,,,,,,,,,,,,,,,,,,,,,,,,,,,,,,,,,,,,,
,,,,,,,,,,stimuli/images/PICTURE_33.png,FRIEND,5b69a09840003400016ff00f,30/07/1988,2020-08-13_12h30.40.215,proactive2,2020.1.2,MacIntel,60,5f341be081b9052c55068110,5f35244c236a73485a84bc0c,1,,,,,,frame,,,,,,0,41,41,8,1,1,1,,,,,,,,,,,,,,,,,,,,,,,,,,,,,,,,,,,,,,,,,,,,,,,,,,,,,,,,,,,,,,,,,,,,,,,,,,,,,,,,,,,,,,,,,,,,,,,,,,,
,,,,,,,,,,stimuli/images/PICTURE_297.png,RIVER,5b69a09840003400016ff00f,30/07/1988,2020-08-13_12h30.40.215,proactive2,2020.1.2,MacIntel,60,5f341be081b9052c55068110,5f35244c236a73485a84bc0c,1,,,,,,aeroplane,,,,,,0,42,42,39,1,4,1,,,,,,,,,,,,,,,,,,,,,,,,,,,,,,,,,,,,,,,,,,,,,,,,,,,,,,,,,,,,,,,,,,,,,,,,,,,,,,,,,,,,,,,,,,,,,,,,,,,
,,,,,,,,,,stimuli/images/PICTURE_85.png,NATION,5b69a09840003400016ff00f,30/07/1988,2020-08-13_12h30.40.215,proactive2,2020.1.2,MacIntel,60,5f341be081b9052c55068110,5f35244c236a73485a84bc0c,1,,,,,,diamond,,,,,,0,43,43,5,1,1,1,,,,,,,,,,,,,,,,,,,,,,,,,,,,,,,,,,,,,,,,,,,,,,,,,,,,,,,,,,,,,,,,,,,,,,,,,,,,,,,,,,,,,,,,,,,,,,,,,,,
,,,,,,,,,,stimuli/images/PICTURE_95.png,MILLER,5b69a09840003400016ff00f,30/07/1988,2020-08-13_12h30.40.215,proactive2,2020.1.2,MacIntel,60,5f341be081b9052c55068110,5f35244c236a73485a84bc0c,1,,,,,,suitcase,,,,,,0,44,44,56,1,6,1,,,,,,,,,,,,,,,,,,,,,,,,,,,,,,,,,,,,,,,,,,,,,,,,,,,,,,,,,,,,,,,,,,,,,,,,,,,,,,,,,,,,,,,,,,,,,,,,,,,
,,,,,,,,,,stimuli/images/PICTURE_564.png,BATH,5b69a09840003400016ff00f,30/07/1988,2020-08-13_12h30.40.215,proactive2,2020.1.2,MacIntel,60,5f341be081b9052c55068110,5f35244c236a73485a84bc0c,1,,,,,,spoon,,,,,,0,45,45,26,1,3,1,,,,,,,,,,,,,,,,,,,,,,,,,,,,,,,,,,,,,,,,,,,,,,,,,,,,,,,,,,,,,,,,,,,,,,,,,,,,,,,,,,,,,,,,,,,,,,,,,,,
,,,,,,,,,,stimuli/images/PICTURE_327.png,SERIES,5b69a09840003400016ff00f,30/07/1988,2020-08-13_12h30.40.215,proactive2,2020.1.2,MacIntel,60,5f341be081b9052c55068110,5f35244c236a73485a84bc0c,1,,,,,,helmet,,,,,,0,46,46,3,1,1,1,,,,,,,,,,,,,,,,,,,,,,,,,,,,,,,,,,,,,,,,,,,,,,,,,,,,,,,,,,,,,,,,,,,,,,,,,,,,,,,,,,,,,,,,,,,,,,,,,,,
,,,,,,,,,,stimuli/images/PICTURE_203.png,GODS,5b69a09840003400016ff00f,30/07/1988,2020-08-13_12h30.40.215,proactive2,2020.1.2,MacIntel,60,5f341be081b9052c55068110,5f35244c236a73485a84bc0c,1,,,,,,cap,,,,,,0,47,47,30,1,4,1,,,,,,,,,,,,,,,,,,,,,,,,,,,,,,,,,,,,,,,,,,,,,,,,,,,,,,,,,,,,,,,,,,,,,,,,,,,,,,,,,,,,,,,,,,,,,,,,,,,
,,,,,,,,,,stimuli/images/PICTURE_296.png,LOTS,5b69a09840003400016ff00f,30/07/1988,2020-08-13_12h30.40.215,proactive2,2020.1.2,MacIntel,60,5f341be081b9052c55068110,5f35244c236a73485a84bc0c,1,,,,,,bolt,,,,,,0,48,48,9,1,1,1,,,,,,,,,,,,,,,,,,,,,,,,,,,,,,,,,,,,,,,,,,,,,,,,,,,,,,,,,,,,,,,,,,,,,,,,,,,,,,,,,,,,,,,,,,,,,,,,,,,
