consent_key.keys,consent_key.rt,recalled,recalled_rt,recall_acc,example_recall.thisRepN,example_recall.thisTrialN,example_recall.thisN,example_recall.thisIndex,example_recall.ran,file,word,participant,please enter your date of birth (dd/mm/yyyy),date,expName,psychopyVersion,OS,frameRate,STUDY_ID,SESSION_ID,list,prac_learn_study_loop.thisRepN,prac_learn_study_loop.thisTrialN,prac_learn_study_loop.thisN,prac_learn_study_loop.thisIndex,prac_learn_study_loop.ran,image,prac_learn_test_loop.thisRepN,prac_learn_test_loop.thisTrialN,prac_learn_test_loop.thisN,prac_learn_test_loop.thisIndex,prac_learn_test_loop.ran,learn_study_loop.thisRepN,learn_study_loop.thisTrialN,learn_study_loop.thisN,learn_study_loop.thisIndex,learn_study_loop.ran,list_no,block_no,learn_test_loop.thisRepN,learn_test_loop.thisTrialN,learn_test_loop.thisN,learn_test_loop.thisIndex,learn_test_loop.ran,learn_blocks.thisRepN,learn_blocks.thisTrialN,learn_blocks.thisN,learn_blocks.thisIndex,learn_blocks.ran,block_csv,key_resp_13.keys,key_resp_13.rt,learn_blocks_loop.thisRepN,learn_blocks_loop.thisTrialN,learn_blocks_loop.thisN,learn_blocks_loop.thisIndex,learn_blocks_loop.ran,final_learn_test.thisRepN,final_learn_test.thisTrialN,final_learn_test.thisN,final_learn_test.thisIndex,final_learn_test.ran,s_im1,s_im2,s_im3,s_im4,s_im5,s_im6,s_im7,s_im8,s_im1pos,s_im2pos,s_im3pos,s_im4pos,s_im5pos,s_im6pos,s_im7pos,s_im8pos,s_tarright,search_resp.keys,search_loop.thisRepN,search_loop.thisTrialN,search_loop.thisN,search_loop.thisIndex,search_loop.ran,search_resp.rt,prac_wm_test_loop.thisRepN,prac_wm_test_loop.thisTrialN,prac_wm_test_loop.thisN,prac_wm_test_loop.thisIndex,prac_wm_test_loop.ran,wm_recalled1,wm_recall_rt1,wm_probed1,wm_recall_acc1,wm_recalled2,wm_recall_rt2,wm_probed2,wm_recall_acc2,wm_recalled3,wm_recall_rt3,wm_probed3,wm_recall_acc3,wm_recalled4,wm_recall_rt4,wm_probed4,wm_recall_acc4,prac_wm_trial_loop.thisRepN,prac_wm_trial_loop.thisTrialN,prac_wm_trial_loop.thisN,prac_wm_trial_loop.thisIndex,prac_wm_trial_loop.ran,word1,image1,file1,item_type1,word2,image2,file2,item_type2,word4,image4,file4,item_type4,word3,image3,file3,item_type3,wm_test_loop.thisRepN,wm_test_loop.thisTrialN,wm_test_loop.thisN,wm_test_loop.thisIndex,wm_test_loop.ran,wm_trial_loop.thisRepN,wm_trial_loop.thisTrialN,wm_trial_loop.thisN,wm_trial_loop.thisIndex,wm_trial_loop.ran
y,22.572875,TOUGH,2.84199,1,0,0,0,0,1,stimuli/images/PICTURE_747.png,TOUGH,5b81d72a3c13750001995473,16/03/1988,2020-08-13_12h45.16.075,proactive2,2020.1.2,Linux x86_64,60,5f341be081b9052c55068110,5f3527b7af13c148b7f897dd,6,,,,,,,,,,,,,,,,,,,,,,,,,,,,,,,,,,,,,,,,,,,,,,,,,,,,,,,,,,,,,,,,,,,,,,,,,,,,,,,,,,,,,,,,,,,,,,,,,,,,,,,,,,,,,,,,,,,,,
,,,,,,,,,,stimuli/images/PICTURE_658.png,DEVIL,5b81d72a3c13750001995473,16/03/1988,2020-08-13_12h45.16.075,proactive2,2020.1.2,Linux x86_64,60,5f341be081b9052c55068110,5f3527b7af13c148b7f897dd,6,0,0,0,3,1,crow,,,,,,,,,,,,,,,,,,,,,,,,,,,,,,,,,,,,,,,,,,,,,,,,,,,,,,,,,,,,,,,,,,,,,,,,,,,,,,,,,,,,,,,,,,,,,,,,,,,,,,,,,,,,,,,
,,,,,,,,,,stimuli/images/PICTURE_269.png,GENIUS,5b81d72a3c13750001995473,16/03/1988,2020-08-13_12h45.16.075,proactive2,2020.1.2,Linux x86_64,60,5f341be081b9052c55068110,5f3527b7af13c148b7f897dd,6,0,1,1,0,1,chameleon,,,,,,,,,,,,,,,,,,,,,,,,,,,,,,,,,,,,,,,,,,,,,,,,,,,,,,,,,,,,,,,,,,,,,,,,,,,,,,,,,,,,,,,,,,,,,,,,,,,,,,,,,,,,,,,
,,,,,,,,,,stimuli/images/PICTURE_697.png,KILLER,5b81d72a3c13750001995473,16/03/1988,2020-08-13_12h45.16.075,proactive2,2020.1.2,Linux x86_64,60,5f341be081b9052c55068110,5f3527b7af13c148b7f897dd,6,0,2,2,4,1,peach,,,,,,,,,,,,,,,,,,,,,,,,,,,,,,,,,,,,,,,,,,,,,,,,,,,,,,,,,,,,,,,,,,,,,,,,,,,,,,,,,,,,,,,,,,,,,,,,,,,,,,,,,,,,,,,
,,,,,,,,,,stimuli/images/PICTURE_727.png,CELL,5b81d72a3c13750001995473,16/03/1988,2020-08-13_12h45.16.075,proactive2,2020.1.2,Linux x86_64,60,5f341be081b9052c55068110,5f3527b7af13c148b7f897dd,6,0,3,3,1,1,hose,,,,,,,,,,,,,,,,,,,,,,,,,,,,,,,,,,,,,,,,,,,,,,,,,,,,,,,,,,,,,,,,,,,,,,,,,,,,,,,,,,,,,,,,,,,,,,,,,,,,,,,,,,,,,,,
,,DEVIL,2.354565,1,,,,,,stimuli/images/PICTURE_658.png,DEVIL,5b81d72a3c13750001995473,16/03/1988,2020-08-13_12h45.16.075,proactive2,2020.1.2,Linux x86_64,60,5f341be081b9052c55068110,5f3527b7af13c148b7f897dd,6,,,,,,crow,0,0,0,3,1,,,,,,,,,,,,,,,,,,,,,,,,,,,,,,,,,,,,,,,,,,,,,,,,,,,,,,,,,,,,,,,,,,,,,,,,,,,,,,,,,,,,,,,,,,,,,,,,,,,,,,,,,,
,,CELL,2.028795,1,,,,,,stimuli/images/PICTURE_727.png,CELL,5b81d72a3c13750001995473,16/03/1988,2020-08-13_12h45.16.075,proactive2,2020.1.2,Linux x86_64,60,5f341be081b9052c55068110,5f3527b7af13c148b7f897dd,6,,,,,,hose,0,1,1,1,1,,,,,,,,,,,,,,,,,,,,,,,,,,,,,,,,,,,,,,,,,,,,,,,,,,,,,,,,,,,,,,,,,,,,,,,,,,,,,,,,,,,,,,,,,,,,,,,,,,,,,,,,,,
,,KILLER,1.77263,1,,,,,,stimuli/images/PICTURE_697.png,KILLER,5b81d72a3c13750001995473,16/03/1988,2020-08-13_12h45.16.075,proactive2,2020.1.2,Linux x86_64,60,5f341be081b9052c55068110,5f3527b7af13c148b7f897dd,6,,,,,,peach,0,2,2,4,1,,,,,,,,,,,,,,,,,,,,,,,,,,,,,,,,,,,,,,,,,,,,,,,,,,,,,,,,,,,,,,,,,,,,,,,,,,,,,,,,,,,,,,,,,,,,,,,,,,,,,,,,,,
,,GENIUS,5.08184,1,,,,,,stimuli/images/PICTURE_269.png,GENIUS,5b81d72a3c13750001995473,16/03/1988,2020-08-13_12h45.16.075,proactive2,2020.1.2,Linux x86_64,60,5f341be081b9052c55068110,5f3527b7af13c148b7f897dd,6,,,,,,chameleon,0,3,3,0,1,,,,,,,,,,,,,,,,,,,,,,,,,,,,,,,,,,,,,,,,,,,,,,,,,,,,,,,,,,,,,,,,,,,,,,,,,,,,,,,,,,,,,,,,,,,,,,,,,,,,,,,,,,
,,LOSS,1.40576,1,,,,,,stimuli/images/PICTURE_378.png,LOSS,5b81d72a3c13750001995473,16/03/1988,2020-08-13_12h45.16.075,proactive2,2020.1.2,Linux x86_64,60,5f341be081b9052c55068110,5f3527b7af13c148b7f897dd,6,,,,,,lobster,0,4,4,2,1,,,,,,,,,,,,,,,,,,,,,,,,,,,,,,,,,,,,,,,,,,,,,,,,,,,,,,,,,,,,,,,,,,,,,,,,,,,,,,,,,,,,,,,,,,,,,,,,,,,,,,,,,,
,,,,,,,,,,stimuli/images/PICTURE_32.png,LETTER,5b81d72a3c13750001995473,16/03/1988,2020-08-13_12h45.16.075,proactive2,2020.1.2,Linux x86_64,60,5f341be081b9052c55068110,5f3527b7af13c148b7f897dd,6,,,,,,crown,,,,,,0,0,0,56,1,6,2,,,,,,,,,,,,,,,,,,,,,,,,,,,,,,,,,,,,,,,,,,,,,,,,,,,,,,,,,,,,,,,,,,,,,,,,,,,,,,,,,,,,,,,,,,,,,,,,,,,
,,,,,,,,,,stimuli/images/PICTURE_491.png,SERIES,5b81d72a3c13750001995473,16/03/1988,2020-08-13_12h45.16.075,proactive2,2020.1.2,Linux x86_64,60,5f341be081b9052c55068110,5f3527b7af13c148b7f897dd,6,,,,,,rug,,,,,,0,1,1,39,1,4,2,,,,,,,,,,,,,,,,,,,,,,,,,,,,,,,,,,,,,,,,,,,,,,,,,,,,,,,,,,,,,,,,,,,,,,,,,,,,,,,,,,,,,,,,,,,,,,,,,,,
,,,,,,,,,,stimuli/images/PICTURE_470.png,MOMENT,5b81d72a3c13750001995473,16/03/1988,2020-08-13_12h45.16.075,proactive2,2020.1.2,Linux x86_64,60,5f341be081b9052c55068110,5f3527b7af13c148b7f897dd,6,,,,,,motorbike,,,,,,0,2,2,40,1,5,2,,,,,,,,,,,,,,,,,,,,,,,,,,,,,,,,,,,,,,,,,,,,,,,,,,,,,,,,,,,,,,,,,,,,,,,,,,,,,,,,,,,,,,,,,,,,,,,,,,,
,,,,,,,,,,stimuli/images/PICTURE_141.png,CLIENT,5b81d72a3c13750001995473,16/03/1988,2020-08-13_12h45.16.075,proactive2,2020.1.2,Linux x86_64,60,5f341be081b9052c55068110,5f3527b7af13c148b7f897dd,6,,,,,,sunflower,,,,,,0,3,3,30,1,4,2,,,,,,,,,,,,,,,,,,,,,,,,,,,,,,,,,,,,,,,,,,,,,,,,,,,,,,,,,,,,,,,,,,,,,,,,,,,,,,,,,,,,,,,,,,,,,,,,,,,
,,,,,,,,,,stimuli/images/PICTURE_708.png,VALLEY,5b81d72a3c13750001995473,16/03/1988,2020-08-13_12h45.16.075,proactive2,2020.1.2,Linux x86_64,60,5f341be081b9052c55068110,5f3527b7af13c148b7f897dd,6,,,,,,monkey,,,,,,0,4,4,45,1,5,2,,,,,,,,,,,,,,,,,,,,,,,,,,,,,,,,,,,,,,,,,,,,,,,,,,,,,,,,,,,,,,,,,,,,,,,,,,,,,,,,,,,,,,,,,,,,,,,,,,,
,,,,,,,,,,stimuli/images/PICTURE_509.png,MILLER,5b81d72a3c13750001995473,16/03/1988,2020-08-13_12h45.16.075,proactive2,2020.1.2,Linux x86_64,60,5f341be081b9052c55068110,5f3527b7af13c148b7f897dd,6,,,,,,telephone,,,,,,0,5,5,49,1,5,2,,,,,,,,,,,,,,,,,,,,,,,,,,,,,,,,,,,,,,,,,,,,,,,,,,,,,,,,,,,,,,,,,,,,,,,,,,,,,,,,,,,,,,,,,,,,,,,,,,,
,,,,,,,,,,stimuli/images/PICTURE_95.png,NIGHT,5b81d72a3c13750001995473,16/03/1988,2020-08-13_12h45.16.075,proactive2,2020.1.2,Linux x86_64,60,5f341be081b9052c55068110,5f3527b7af13c148b7f897dd,6,,,,,,suitcase,,,,,,0,6,6,37,1,4,2,,,,,,,,,,,,,,,,,,,,,,,,,,,,,,,,,,,,,,,,,,,,,,,,,,,,,,,,,,,,,,,,,,,,,,,,,,,,,,,,,,,,,,,,,,,,,,,,,,,
,,,,,,,,,,stimuli/images/PICTURE_487.png,ROOF,5b81d72a3c13750001995473,16/03/1988,2020-08-13_12h45.16.075,proactive2,2020.1.2,Linux x86_64,60,5f341be081b9052c55068110,5f3527b7af13c148b7f897dd,6,,,,,,basket,,,,,,0,7,7,50,1,6,2,,,,,,,,,,,,,,,,,,,,,,,,,,,,,,,,,,,,,,,,,,,,,,,,,,,,,,,,,,,,,,,,,,,,,,,,,,,,,,,,,,,,,,,,,,,,,,,,,,,
,,,,,,,,,,stimuli/images/PICTURE_356.png,CANDY,5b81d72a3c13750001995473,16/03/1988,2020-08-13_12h45.16.075,proactive2,2020.1.2,Linux x86_64,60,5f341be081b9052c55068110,5f3527b7af13c148b7f897dd,6,,,,,,pawn,,,,,,0,8,8,46,1,5,2,,,,,,,,,,,,,,,,,,,,,,,,,,,,,,,,,,,,,,,,,,,,,,,,,,,,,,,,,,,,,,,,,,,,,,,,,,,,,,,,,,,,,,,,,,,,,,,,,,,
,,,,,,,,,,stimuli/images/PICTURE_160.png,HOTEL,5b81d72a3c13750001995473,16/03/1988,2020-08-13_12h45.16.075,proactive2,2020.1.2,Linux x86_64,60,5f341be081b9052c55068110,5f3527b7af13c148b7f897dd,6,,,,,,wheelbarrow,,,,,,0,9,9,16,1,2,2,,,,,,,,,,,,,,,,,,,,,,,,,,,,,,,,,,,,,,,,,,,,,,,,,,,,,,,,,,,,,,,,,,,,,,,,,,,,,,,,,,,,,,,,,,,,,,,,,,,
,,,,,,,,,,stimuli/images/PICTURE_177.png,HOUSE,5b81d72a3c13750001995473,16/03/1988,2020-08-13_12h45.16.075,proactive2,2020.1.2,Linux x86_64,60,5f341be081b9052c55068110,5f3527b7af13c148b7f897dd,6,,,,,,mushroom,,,,,,0,10,10,25,1,3,2,,,,,,,,,,,,,,,,,,,,,,,,,,,,,,,,,,,,,,,,,,,,,,,,,,,,,,,,,,,,,,,,,,,,,,,,,,,,,,,,,,,,,,,,,,,,,,,,,,,
,,,,,,,,,,stimuli/images/PICTURE_348.png,TOILET,5b81d72a3c13750001995473,16/03/1988,2020-08-13_12h45.16.075,proactive2,2020.1.2,Linux x86_64,60,5f341be081b9052c55068110,5f3527b7af13c148b7f897dd,6,,,,,,pepper,,,,,,0,11,11,4,1,1,2,,,,,,,,,,,,,,,,,,,,,,,,,,,,,,,,,,,,,,,,,,,,,,,,,,,,,,,,,,,,,,,,,,,,,,,,,,,,,,,,,,,,,,,,,,,,,,,,,,,
,,,,,,,,,,stimuli/images/PICTURE_750.png,POLICY,5b81d72a3c13750001995473,16/03/1988,2020-08-13_12h45.16.075,proactive2,2020.1.2,Linux x86_64,60,5f341be081b9052c55068110,5f3527b7af13c148b7f897dd,6,,,,,,kettle,,,,,,0,12,12,44,1,5,2,,,,,,,,,,,,,,,,,,,,,,,,,,,,,,,,,,,,,,,,,,,,,,,,,,,,,,,,,,,,,,,,,,,,,,,,,,,,,,,,,,,,,,,,,,,,,,,,,,,
,,,,,,,,,,stimuli/images/PICTURE_2.png,AREA,5b81d72a3c13750001995473,16/03/1988,2020-08-13_12h45.16.075,proactive2,2020.1.2,Linux x86_64,60,5f341be081b9052c55068110,5f3527b7af13c148b7f897dd,6,,,,,,tyre,,,,,,0,13,13,32,1,4,2,,,,,,,,,,,,,,,,,,,,,,,,,,,,,,,,,,,,,,,,,,,,,,,,,,,,,,,,,,,,,,,,,,,,,,,,,,,,,,,,,,,,,,,,,,,,,,,,,,,
,,,,,,,,,,stimuli/images/PICTURE_18.png,RIVER,5b81d72a3c13750001995473,16/03/1988,2020-08-13_12h45.16.075,proactive2,2020.1.2,Linux x86_64,60,5f341be081b9052c55068110,5f3527b7af13c148b7f897dd,6,,,,,,planet,,,,,,0,14,14,22,1,3,2,,,,,,,,,,,,,,,,,,,,,,,,,,,,,,,,,,,,,,,,,,,,,,,,,,,,,,,,,,,,,,,,,,,,,,,,,,,,,,,,,,,,,,,,,,,,,,,,,,,
,,,,,,,,,,stimuli/images/PICTURE_348.png,DUDE,5b81d72a3c13750001995473,16/03/1988,2020-08-13_12h45.16.075,proactive2,2020.1.2,Linux x86_64,60,5f341be081b9052c55068110,5f3527b7af13c148b7f897dd,6,,,,,,pepper,,,,,,0,15,15,59,1,6,2,,,,,,,,,,,,,,,,,,,,,,,,,,,,,,,,,,,,,,,,,,,,,,,,,,,,,,,,,,,,,,,,,,,,,,,,,,,,,,,,,,,,,,,,,,,,,,,,,,,
,,,,,,,,,,stimuli/images/PICTURE_57.png,CANDY,5b81d72a3c13750001995473,16/03/1988,2020-08-13_12h45.16.075,proactive2,2020.1.2,Linux x86_64,60,5f341be081b9052c55068110,5f3527b7af13c148b7f897dd,6,,,,,,stamp,,,,,,0,16,16,52,1,6,2,,,,,,,,,,,,,,,,,,,,,,,,,,,,,,,,,,,,,,,,,,,,,,,,,,,,,,,,,,,,,,,,,,,,,,,,,,,,,,,,,,,,,,,,,,,,,,,,,,,
,,,,,,,,,,stimuli/images/PICTURE_208.png,SPIRIT,5b81d72a3c13750001995473,16/03/1988,2020-08-13_12h45.16.075,proactive2,2020.1.2,Linux x86_64,60,5f341be081b9052c55068110,5f3527b7af13c148b7f897dd,6,,,,,,microphone,,,,,,0,17,17,28,1,3,2,,,,,,,,,,,,,,,,,,,,,,,,,,,,,,,,,,,,,,,,,,,,,,,,,,,,,,,,,,,,,,,,,,,,,,,,,,,,,,,,,,,,,,,,,,,,,,,,,,,
,,,,,,,,,,stimuli/images/PICTURE_509.png,APPLE,5b81d72a3c13750001995473,16/03/1988,2020-08-13_12h45.16.075,proactive2,2020.1.2,Linux x86_64,60,5f341be081b9052c55068110,5f3527b7af13c148b7f897dd,6,,,,,,telephone,,,,,,0,18,18,38,1,4,2,,,,,,,,,,,,,,,,,,,,,,,,,,,,,,,,,,,,,,,,,,,,,,,,,,,,,,,,,,,,,,,,,,,,,,,,,,,,,,,,,,,,,,,,,,,,,,,,,,,
,,,,,,,,,,stimuli/images/PICTURE_688.png,CLOCK,5b81d72a3c13750001995473,16/03/1988,2020-08-13_12h45.16.075,proactive2,2020.1.2,Linux x86_64,60,5f341be081b9052c55068110,5f3527b7af13c148b7f897dd,6,,,,,,runner,,,,,,0,19,19,42,1,5,2,,,,,,,,,,,,,,,,,,,,,,,,,,,,,,,,,,,,,,,,,,,,,,,,,,,,,,,,,,,,,,,,,,,,,,,,,,,,,,,,,,,,,,,,,,,,,,,,,,,
,,,,,,,,,,stimuli/images/PICTURE_654.png,COPS,5b81d72a3c13750001995473,16/03/1988,2020-08-13_12h45.16.075,proactive2,2020.1.2,Linux x86_64,60,5f341be081b9052c55068110,5f3527b7af13c148b7f897dd,6,,,,,,pencil,,,,,,0,20,20,10,1,2,2,,,,,,,,,,,,,,,,,,,,,,,,,,,,,,,,,,,,,,,,,,,,,,,,,,,,,,,,,,,,,,,,,,,,,,,,,,,,,,,,,,,,,,,,,,,,,,,,,,,
,,,,,,,,,,stimuli/images/PICTURE_311.png,FLESH,5b81d72a3c13750001995473,16/03/1988,2020-08-13_12h45.16.075,proactive2,2020.1.2,Linux x86_64,60,5f341be081b9052c55068110,5f3527b7af13c148b7f897dd,6,,,,,,razor,,,,,,0,21,21,3,1,1,2,,,,,,,,,,,,,,,,,,,,,,,,,,,,,,,,,,,,,,,,,,,,,,,,,,,,,,,,,,,,,,,,,,,,,,,,,,,,,,,,,,,,,,,,,,,,,,,,,,,
,,,,,,,,,,stimuli/images/PICTURE_655.png,SALE,5b81d72a3c13750001995473,16/03/1988,2020-08-13_12h45.16.075,proactive2,2020.1.2,Linux x86_64,60,5f341be081b9052c55068110,5f3527b7af13c148b7f897dd,6,,,,,,megaphone,,,,,,0,22,22,57,1,6,2,,,,,,,,,,,,,,,,,,,,,,,,,,,,,,,,,,,,,,,,,,,,,,,,,,,,,,,,,,,,,,,,,,,,,,,,,,,,,,,,,,,,,,,,,,,,,,,,,,,
,,,,,,,,,,stimuli/images/PICTURE_68.png,KIND,5b81d72a3c13750001995473,16/03/1988,2020-08-13_12h45.16.075,proactive2,2020.1.2,Linux x86_64,60,5f341be081b9052c55068110,5f3527b7af13c148b7f897dd,6,,,,,,candle,,,,,,0,23,23,23,1,3,2,,,,,,,,,,,,,,,,,,,,,,,,,,,,,,,,,,,,,,,,,,,,,,,,,,,,,,,,,,,,,,,,,,,,,,,,,,,,,,,,,,,,,,,,,,,,,,,,,,,
,,,,,,,,,,stimuli/images/PICTURE_2.png,YARD,5b81d72a3c13750001995473,16/03/1988,2020-08-13_12h45.16.075,proactive2,2020.1.2,Linux x86_64,60,5f341be081b9052c55068110,5f3527b7af13c148b7f897dd,6,,,,,,tyre,,,,,,0,24,24,55,1,6,2,,,,,,,,,,,,,,,,,,,,,,,,,,,,,,,,,,,,,,,,,,,,,,,,,,,,,,,,,,,,,,,,,,,,,,,,,,,,,,,,,,,,,,,,,,,,,,,,,,,
,,,,,,,,,,stimuli/images/PICTURE_405.png,JUNGLE,5b81d72a3c13750001995473,16/03/1988,2020-08-13_12h45.16.075,proactive2,2020.1.2,Linux x86_64,60,5f341be081b9052c55068110,5f3527b7af13c148b7f897dd,6,,,,,,anchor,,,,,,0,25,25,58,1,6,2,,,,,,,,,,,,,,,,,,,,,,,,,,,,,,,,,,,,,,,,,,,,,,,,,,,,,,,,,,,,,,,,,,,,,,,,,,,,,,,,,,,,,,,,,,,,,,,,,,,
,,,,,,,,,,stimuli/images/PICTURE_487.png,POLICY,5b81d72a3c13750001995473,16/03/1988,2020-08-13_12h45.16.075,proactive2,2020.1.2,Linux x86_64,60,5f341be081b9052c55068110,5f3527b7af13c148b7f897dd,6,,,,,,basket,,,,,,0,26,26,34,1,4,2,,,,,,,,,,,,,,,,,,,,,,,,,,,,,,,,,,,,,,,,,,,,,,,,,,,,,,,,,,,,,,,,,,,,,,,,,,,,,,,,,,,,,,,,,,,,,,,,,,,
,,,,,,,,,,stimuli/images/PICTURE_405.png,JUNGLE,5b81d72a3c13750001995473,16/03/1988,2020-08-13_12h45.16.075,proactive2,2020.1.2,Linux x86_64,60,5f341be081b9052c55068110,5f3527b7af13c148b7f897dd,6,,,,,,anchor,,,,,,0,27,27,13,1,2,2,,,,,,,,,,,,,,,,,,,,,,,,,,,,,,,,,,,,,,,,,,,,,,,,,,,,,,,,,,,,,,,,,,,,,,,,,,,,,,,,,,,,,,,,,,,,,,,,,,,
,,,,,,,,,,stimuli/images/PICTURE_509.png,SHOTS,5b81d72a3c13750001995473,16/03/1988,2020-08-13_12h45.16.075,proactive2,2020.1.2,Linux x86_64,60,5f341be081b9052c55068110,5f3527b7af13c148b7f897dd,6,,,,,,telephone,,,,,,0,28,28,7,1,1,2,,,,,,,,,,,,,,,,,,,,,,,,,,,,,,,,,,,,,,,,,,,,,,,,,,,,,,,,,,,,,,,,,,,,,,,,,,,,,,,,,,,,,,,,,,,,,,,,,,,
,,,,,,,,,,stimuli/images/PICTURE_2.png,JUNGLE,5b81d72a3c13750001995473,16/03/1988,2020-08-13_12h45.16.075,proactive2,2020.1.2,Linux x86_64,60,5f341be081b9052c55068110,5f3527b7af13c148b7f897dd,6,,,,,,tyre,,,,,,0,29,29,1,1,1,2,,,,,,,,,,,,,,,,,,,,,,,,,,,,,,,,,,,,,,,,,,,,,,,,,,,,,,,,,,,,,,,,,,,,,,,,,,,,,,,,,,,,,,,,,,,,,,,,,,,
,,,,,,,,,,stimuli/images/PICTURE_33.png,COPS,5b81d72a3c13750001995473,16/03/1988,2020-08-13_12h45.16.075,proactive2,2020.1.2,Linux x86_64,60,5f341be081b9052c55068110,5f3527b7af13c148b7f897dd,6,,,,,,frame,,,,,,0,30,30,29,1,3,2,,,,,,,,,,,,,,,,,,,,,,,,,,,,,,,,,,,,,,,,,,,,,,,,,,,,,,,,,,,,,,,,,,,,,,,,,,,,,,,,,,,,,,,,,,,,,,,,,,,
,,,,,,,,,,stimuli/images/PICTURE_564.png,PLENTY,5b81d72a3c13750001995473,16/03/1988,2020-08-13_12h45.16.075,proactive2,2020.1.2,Linux x86_64,60,5f341be081b9052c55068110,5f3527b7af13c148b7f897dd,6,,,,,,spoon,,,,,,0,31,31,11,1,2,2,,,,,,,,,,,,,,,,,,,,,,,,,,,,,,,,,,,,,,,,,,,,,,,,,,,,,,,,,,,,,,,,,,,,,,,,,,,,,,,,,,,,,,,,,,,,,,,,,,,
,,,,,,,,,,stimuli/images/PICTURE_123.png,SALE,5b81d72a3c13750001995473,16/03/1988,2020-08-13_12h45.16.075,proactive2,2020.1.2,Linux x86_64,60,5f341be081b9052c55068110,5f3527b7af13c148b7f897dd,6,,,,,,dart,,,,,,0,32,32,8,1,1,2,,,,,,,,,,,,,,,,,,,,,,,,,,,,,,,,,,,,,,,,,,,,,,,,,,,,,,,,,,,,,,,,,,,,,,,,,,,,,,,,,,,,,,,,,,,,,,,,,,,
,,,,,,,,,,stimuli/images/PICTURE_296.png,CLOCK,5b81d72a3c13750001995473,16/03/1988,2020-08-13_12h45.16.075,proactive2,2020.1.2,Linux x86_64,60,5f341be081b9052c55068110,5f3527b7af13c148b7f897dd,6,,,,,,bolt,,,,,,0,33,33,18,1,2,2,,,,,,,,,,,,,,,,,,,,,,,,,,,,,,,,,,,,,,,,,,,,,,,,,,,,,,,,,,,,,,,,,,,,,,,,,,,,,,,,,,,,,,,,,,,,,,,,,,,
,,,,,,,,,,stimuli/images/PICTURE_692.png,DUDE,5b81d72a3c13750001995473,16/03/1988,2020-08-13_12h45.16.075,proactive2,2020.1.2,Linux x86_64,60,5f341be081b9052c55068110,5f3527b7af13c148b7f897dd,6,,,,,,cherry,,,,,,0,34,34,47,1,5,2,,,,,,,,,,,,,,,,,,,,,,,,,,,,,,,,,,,,,,,,,,,,,,,,,,,,,,,,,,,,,,,,,,,,,,,,,,,,,,,,,,,,,,,,,,,,,,,,,,,
,,,,,,,,,,stimuli/images/PICTURE_504.png,HOUSE,5b81d72a3c13750001995473,16/03/1988,2020-08-13_12h45.16.075,proactive2,2020.1.2,Linux x86_64,60,5f341be081b9052c55068110,5f3527b7af13c148b7f897dd,6,,,,,,wheel,,,,,,0,35,35,36,1,4,2,,,,,,,,,,,,,,,,,,,,,,,,,,,,,,,,,,,,,,,,,,,,,,,,,,,,,,,,,,,,,,,,,,,,,,,,,,,,,,,,,,,,,,,,,,,,,,,,,,,
,,,,,,,,,,stimuli/images/PICTURE_285.png,WRITER,5b81d72a3c13750001995473,16/03/1988,2020-08-13_12h45.16.075,proactive2,2020.1.2,Linux x86_64,60,5f341be081b9052c55068110,5f3527b7af13c148b7f897dd,6,,,,,,carrot,,,,,,0,36,36,6,1,1,2,,,,,,,,,,,,,,,,,,,,,,,,,,,,,,,,,,,,,,,,,,,,,,,,,,,,,,,,,,,,,,,,,,,,,,,,,,,,,,,,,,,,,,,,,,,,,,,,,,,
,,,,,,,,,,stimuli/images/PICTURE_314.png,SPEECH,5b81d72a3c13750001995473,16/03/1988,2020-08-13_12h45.16.075,proactive2,2020.1.2,Linux x86_64,60,5f341be081b9052c55068110,5f3527b7af13c148b7f897dd,6,,,,,,perfume,,,,,,0,37,37,35,1,4,2,,,,,,,,,,,,,,,,,,,,,,,,,,,,,,,,,,,,,,,,,,,,,,,,,,,,,,,,,,,,,,,,,,,,,,,,,,,,,,,,,,,,,,,,,,,,,,,,,,,
,,,,,,,,,,stimuli/images/PICTURE_215.png,BOYS,5b81d72a3c13750001995473,16/03/1988,2020-08-13_12h45.16.075,proactive2,2020.1.2,Linux x86_64,60,5f341be081b9052c55068110,5f3527b7af13c148b7f897dd,6,,,,,,boot,,,,,,0,38,38,24,1,3,2,,,,,,,,,,,,,,,,,,,,,,,,,,,,,,,,,,,,,,,,,,,,,,,,,,,,,,,,,,,,,,,,,,,,,,,,,,,,,,,,,,,,,,,,,,,,,,,,,,,
,,,,,,,,,,stimuli/images/PICTURE_311.png,TOILET,5b81d72a3c13750001995473,16/03/1988,2020-08-13_12h45.16.075,proactive2,2020.1.2,Linux x86_64,60,5f341be081b9052c55068110,5f3527b7af13c148b7f897dd,6,,,,,,razor,,,,,,0,39,39,54,1,6,2,,,,,,,,,,,,,,,,,,,,,,,,,,,,,,,,,,,,,,,,,,,,,,,,,,,,,,,,,,,,,,,,,,,,,,,,,,,,,,,,,,,,,,,,,,,,,,,,,,,
,,,,,,,,,,stimuli/images/PICTURE_93.png,GIRL,5b81d72a3c13750001995473,16/03/1988,2020-08-13_12h45.16.075,proactive2,2020.1.2,Linux x86_64,60,5f341be081b9052c55068110,5f3527b7af13c148b7f897dd,6,,,,,,skateboard,,,,,,0,40,40,31,1,4,2,,,,,,,,,,,,,,,,,,,,,,,,,,,,,,,,,,,,,,,,,,,,,,,,,,,,,,,,,,,,,,,,,,,,,,,,,,,,,,,,,,,,,,,,,,,,,,,,,,,
,,,,,,,,,,stimuli/images/PICTURE_677.png,PHOTO,5b81d72a3c13750001995473,16/03/1988,2020-08-13_12h45.16.075,proactive2,2020.1.2,Linux x86_64,60,5f341be081b9052c55068110,5f3527b7af13c148b7f897dd,6,,,,,,map,,,,,,0,41,41,14,1,2,2,,,,,,,,,,,,,,,,,,,,,,,,,,,,,,,,,,,,,,,,,,,,,,,,,,,,,,,,,,,,,,,,,,,,,,,,,,,,,,,,,,,,,,,,,,,,,,,,,,,
,,,,,,,,,,stimuli/images/PICTURE_405.png,HOUSE,5b81d72a3c13750001995473,16/03/1988,2020-08-13_12h45.16.075,proactive2,2020.1.2,Linux x86_64,60,5f341be081b9052c55068110,5f3527b7af13c148b7f897dd,6,,,,,,anchor,,,,,,0,42,42,2,1,1,2,,,,,,,,,,,,,,,,,,,,,,,,,,,,,,,,,,,,,,,,,,,,,,,,,,,,,,,,,,,,,,,,,,,,,,,,,,,,,,,,,,,,,,,,,,,,,,,,,,,
,,,,,,,,,,stimuli/images/PICTURE_453.png,FAMILY,5b81d72a3c13750001995473,16/03/1988,2020-08-13_12h45.16.075,proactive2,2020.1.2,Linux x86_64,60,5f341be081b9052c55068110,5f3527b7af13c148b7f897dd,6,,,,,,scissors,,,,,,0,43,43,48,1,5,2,,,,,,,,,,,,,,,,,,,,,,,,,,,,,,,,,,,,,,,,,,,,,,,,,,,,,,,,,,,,,,,,,,,,,,,,,,,,,,,,,,,,,,,,,,,,,,,,,,,
,,,,,,,,,,stimuli/images/PICTURE_470.png,BEAUTY,5b81d72a3c13750001995473,16/03/1988,2020-08-13_12h45.16.075,proactive2,2020.1.2,Linux x86_64,60,5f341be081b9052c55068110,5f3527b7af13c148b7f897dd,6,,,,,,motorbike,,,,,,0,44,44,26,1,3,2,,,,,,,,,,,,,,,,,,,,,,,,,,,,,,,,,,,,,,,,,,,,,,,,,,,,,,,,,,,,,,,,,,,,,,,,,,,,,,,,,,,,,,,,,,,,,,,,,,,
,,,,,,,,,,stimuli/images/PICTURE_654.png,YEAR,5b81d72a3c13750001995473,16/03/1988,2020-08-13_12h45.16.075,proactive2,2020.1.2,Linux x86_64,60,5f341be081b9052c55068110,5f3527b7af13c148b7f897dd,6,,,,,,pencil,,,,,,0,45,45,41,1,5,2,,,,,,,,,,,,,,,,,,,,,,,,,,,,,,,,,,,,,,,,,,,,,,,,,,,,,,,,,,,,,,,,,,,,,,,,,,,,,,,,,,,,,,,,,,,,,,,,,,,
,,,,,,,,,,stimuli/images/PICTURE_57.png,CASINO,5b81d72a3c13750001995473,16/03/1988,2020-08-13_12h45.16.075,proactive2,2020.1.2,Linux x86_64,60,5f341be081b9052c55068110,5f3527b7af13c148b7f897dd,6,,,,,,stamp,,,,,,0,46,46,12,1,2,2,,,,,,,,,,,,,,,,,,,,,,,,,,,,,,,,,,,,,,,,,,,,,,,,,,,,,,,,,,,,,,,,,,,,,,,,,,,,,,,,,,,,,,,,,,,,,,,,,,,
,,,,,,,,,,stimuli/images/PICTURE_403.png,FAMILY,5b81d72a3c13750001995473,16/03/1988,2020-08-13_12h45.16.075,proactive2,2020.1.2,Linux x86_64,60,5f341be081b9052c55068110,5f3527b7af13c148b7f897dd,6,,,,,,cathedral,,,,,,0,47,47,9,1,1,2,,,,,,,,,,,,,,,,,,,,,,,,,,,,,,,,,,,,,,,,,,,,,,,,,,,,,,,,,,,,,,,,,,,,,,,,,,,,,,,,,,,,,,,,,,,,,,,,,,,
,,,,,,,,,,stimuli/images/PICTURE_215.png,FOOD,5b81d72a3c13750001995473,16/03/1988,2020-08-13_12h45.16.075,proactive2,2020.1.2,Linux x86_64,60,5f341be081b9052c55068110,5f3527b7af13c148b7f897dd,6,,,,,,boot,,,,,,0,48,48,5,1,1,2,,,,,,,,,,,,,,,,,,,,,,,,,,,,,,,,,,,,,,,,,,,,,,,,,,,,,,,,,,,,,,,,,,,,,,,,,,,,,,,,,,,,,,,,,,,,,,,,,,,
,,,,,,,,,,stimuli/images/PICTURE_677.png,FAMILY,5b81d72a3c13750001995473,16/03/1988,2020-08-13_12h45.16.075,proactive2,2020.1.2,Linux x86_64,60,5f341be081b9052c55068110,5f3527b7af13c148b7f897dd,6,,,,,,map,,,,,,0,49,49,53,1,6,2,,,,,,,,,,,,,,,,,,,,,,,,,,,,,,,,,,,,,,,,,,,,,,,,,,,,,,,,,,,,,,,,,,,,,,,,,,,,,,,,,,,,,,,,,,,,,,,,,,,
,,,,,,,,,,stimuli/images/PICTURE_147.png,LEADER,5b81d72a3c13750001995473,16/03/1988,2020-08-13_12h45.16.075,proactive2,2020.1.2,Linux x86_64,60,5f341be081b9052c55068110,5f3527b7af13c148b7f897dd,6,,,,,,hanger,,,,,,0,50,50,33,1,4,2,,,,,,,,,,,,,,,,,,,,,,,,,,,,,,,,,,,,,,,,,,,,,,,,,,,,,,,,,,,,,,,,,,,,,,,,,,,,,,,,,,,,,,,,,,,,,,,,,,,
,,,,,,,,,,stimuli/images/PICTURE_215.png,LEADER,5b81d72a3c13750001995473,16/03/1988,2020-08-13_12h45.16.075,proactive2,2020.1.2,Linux x86_64,60,5f341be081b9052c55068110,5f3527b7af13c148b7f897dd,6,,,,,,boot,,,,,,0,51,51,43,1,5,2,,,,,,,,,,,,,,,,,,,,,,,,,,,,,,,,,,,,,,,,,,,,,,,,,,,,,,,,,,,,,,,,,,,,,,,,,,,,,,,,,,,,,,,,,,,,,,,,,,,
,,,,,,,,,,stimuli/images/PICTURE_509.png,BATH,5b81d72a3c13750001995473,16/03/1988,2020-08-13_12h45.16.075,proactive2,2020.1.2,Linux x86_64,60,5f341be081b9052c55068110,5f3527b7af13c148b7f897dd,6,,,,,,telephone,,,,,,0,52,52,15,1,2,2,,,,,,,,,,,,,,,,,,,,,,,,,,,,,,,,,,,,,,,,,,,,,,,,,,,,,,,,,,,,,,,,,,,,,,,,,,,,,,,,,,,,,,,,,,,,,,,,,,,
,,,,,,,,,,stimuli/images/PICTURE_297.png,BODY,5b81d72a3c13750001995473,16/03/1988,2020-08-13_12h45.16.075,proactive2,2020.1.2,Linux x86_64,60,5f341be081b9052c55068110,5f3527b7af13c148b7f897dd,6,,,,,,aeroplane,,,,,,0,53,53,51,1,6,2,,,,,,,,,,,,,,,,,,,,,,,,,,,,,,,,,,,,,,,,,,,,,,,,,,,,,,,,,,,,,,,,,,,,,,,,,,,,,,,,,,,,,,,,,,,,,,,,,,,
,,,,,,,,,,stimuli/images/PICTURE_452.png,COPS,5b81d72a3c13750001995473,16/03/1988,2020-08-13_12h45.16.075,proactive2,2020.1.2,Linux x86_64,60,5f341be081b9052c55068110,5f3527b7af13c148b7f897dd,6,,,,,,watch,,,,,,0,54,54,0,1,1,2,,,,,,,,,,,,,,,,,,,,,,,,,,,,,,,,,,,,,,,,,,,,,,,,,,,,,,,,,,,,,,,,,,,,,,,,,,,,,,,,,,,,,,,,,,,,,,,,,,,
,,,,,,,,,,stimuli/images/PICTURE_327.png,LEADER,5b81d72a3c13750001995473,16/03/1988,2020-08-13_12h45.16.075,proactive2,2020.1.2,Linux x86_64,60,5f341be081b9052c55068110,5f3527b7af13c148b7f897dd,6,,,,,,helmet,,,,,,0,55,55,17,1,2,2,,,,,,,,,,,,,,,,,,,,,,,,,,,,,,,,,,,,,,,,,,,,,,,,,,,,,,,,,,,,,,,,,,,,,,,,,,,,,,,,,,,,,,,,,,,,,,,,,,,
,,,,,,,,,,stimuli/images/PICTURE_57.png,NATION,5b81d72a3c13750001995473,16/03/1988,2020-08-13_12h45.16.075,proactive2,2020.1.2,Linux x86_64,60,5f341be081b9052c55068110,5f3527b7af13c148b7f897dd,6,,,,,,stamp,,,,,,0,56,56,21,1,3,2,,,,,,,,,,,,,,,,,,,,,,,,,,,,,,,,,,,,,,,,,,,,,,,,,,,,,,,,,,,,,,,,,,,,,,,,,,,,,,,,,,,,,,,,,,,,,,,,,,,
,,,,,,,,,,stimuli/images/PICTURE_255.png,PENNY,5b81d72a3c13750001995473,16/03/1988,2020-08-13_12h45.16.075,proactive2,2020.1.2,Linux x86_64,60,5f341be081b9052c55068110,5f3527b7af13c148b7f897dd,6,,,,,,shovel,,,,,,0,57,57,19,1,2,2,,,,,,,,,,,,,,,,,,,,,,,,,,,,,,,,,,,,,,,,,,,,,,,,,,,,,,,,,,,,,,,,,,,,,,,,,,,,,,,,,,,,,,,,,,,,,,,,,,,
,,,,,,,,,,stimuli/images/PICTURE_667.png,GLASS,5b81d72a3c13750001995473,16/03/1988,2020-08-13_12h45.16.075,proactive2,2020.1.2,Linux x86_64,60,5f341be081b9052c55068110,5f3527b7af13c148b7f897dd,6,,,,,,daisy,,,,,,0,58,58,27,1,3,2,,,,,,,,,,,,,,,,,,,,,,,,,,,,,,,,,,,,,,,,,,,,,,,,,,,,,,,,,,,,,,,,,,,,,,,,,,,,,,,,,,,,,,,,,,,,,,,,,,,
,,BODY,2.946935,1,,,,,,stimuli/images/PICTURE_297.png,BODY,5b81d72a3c13750001995473,16/03/1988,2020-08-13_12h45.16.075,proactive2,2020.1.2,Linux x86_64,60,5f341be081b9052c55068110,5f3527b7af13c148b7f897dd,6,,,,,,aeroplane,,,,,,,,,,,6,2,0,0,0,51,1,,,,,,,,,,,,,,,,,,,,,,,,,,,,,,,,,,,,,,,,,,,,,,,,,,,,,,,,,,,,,,,,,,,,,,,,,,,,,,,,,,,,,,,,,,,,,,
,,?,0.001795,0,,,,,,stimuli/images/PICTURE_452.png,COPS,5b81d72a3c13750001995473,16/03/1988,2020-08-13_12h45.16.075,proactive2,2020.1.2,Linux x86_64,60,5f341be081b9052c55068110,5f3527b7af13c148b7f897dd,6,,,,,,watch,,,,,,,,,,,1,2,0,1,1,0,1,,,,,,,,,,,,,,,,,,,,,,,,,,,,,,,,,,,,,,,,,,,,,,,,,,,,,,,,,,,,,,,,,,,,,,,,,,,,,,,,,,,,,,,,,,,,,,
,,?,0.000875,0,,,,,,stimuli/images/PICTURE_356.png,CANDY,5b81d72a3c13750001995473,16/03/1988,2020-08-13_12h45.16.075,proactive2,2020.1.2,Linux x86_64,60,5f341be081b9052c55068110,5f3527b7af13c148b7f897dd,6,,,,,,pawn,,,,,,,,,,,5,2,0,2,2,46,1,,,,,,,,,,,,,,,,,,,,,,,,,,,,,,,,,,,,,,,,,,,,,,,,,,,,,,,,,,,,,,,,,,,,,,,,,,,,,,,,,,,,,,,,,,,,,,
,,?,0.001085,0,,,,,,stimuli/images/PICTURE_405.png,HOUSE,5b81d72a3c13750001995473,16/03/1988,2020-08-13_12h45.16.075,proactive2,2020.1.2,Linux x86_64,60,5f341be081b9052c55068110,5f3527b7af13c148b7f897dd,6,,,,,,anchor,,,,,,,,,,,1,2,0,3,3,2,1,,,,,,,,,,,,,,,,,,,,,,,,,,,,,,,,,,,,,,,,,,,,,,,,,,,,,,,,,,,,,,,,,,,,,,,,,,,,,,,,,,,,,,,,,,,,,,
,,?,0.000775,0,,,,,,stimuli/images/PICTURE_509.png,SHOTS,5b81d72a3c13750001995473,16/03/1988,2020-08-13_12h45.16.075,proactive2,2020.1.2,Linux x86_64,60,5f341be081b9052c55068110,5f3527b7af13c148b7f897dd,6,,,,,,telephone,,,,,,,,,,,1,2,0,4,4,7,1,,,,,,,,,,,,,,,,,,,,,,,,,,,,,,,,,,,,,,,,,,,,,,,,,,,,,,,,,,,,,,,,,,,,,,,,,,,,,,,,,,,,,,,,,,,,,,
,,?,0.000765,0,,,,,,stimuli/images/PICTURE_2.png,JUNGLE,5b81d72a3c13750001995473,16/03/1988,2020-08-13_12h45.16.075,proactive2,2020.1.2,Linux x86_64,60,5f341be081b9052c55068110,5f3527b7af13c148b7f897dd,6,,,,,,tyre,,,,,,,,,,,1,2,0,5,5,1,1,,,,,,,,,,,,,,,,,,,,,,,,,,,,,,,,,,,,,,,,,,,,,,,,,,,,,,,,,,,,,,,,,,,,,,,,,,,,,,,,,,,,,,,,,,,,,,
,,?,0.000725,0,,,,,,stimuli/images/PICTURE_255.png,PENNY,5b81d72a3c13750001995473,16/03/1988,2020-08-13_12h45.16.075,proactive2,2020.1.2,Linux x86_64,60,5f341be081b9052c55068110,5f3527b7af13c148b7f897dd,6,,,,,,shovel,,,,,,,,,,,2,2,0,6,6,19,1,,,,,,,,,,,,,,,,,,,,,,,,,,,,,,,,,,,,,,,,,,,,,,,,,,,,,,,,,,,,,,,,,,,,,,,,,,,,,,,,,,,,,,,,,,,,,,
,,?,0.00067,0,,,,,,stimuli/images/PICTURE_147.png,LEADER,5b81d72a3c13750001995473,16/03/1988,2020-08-13_12h45.16.075,proactive2,2020.1.2,Linux x86_64,60,5f341be081b9052c55068110,5f3527b7af13c148b7f897dd,6,,,,,,hanger,,,,,,,,,,,4,2,0,7,7,33,1,,,,,,,,,,,,,,,,,,,,,,,,,,,,,,,,,,,,,,,,,,,,,,,,,,,,,,,,,,,,,,,,,,,,,,,,,,,,,,,,,,,,,,,,,,,,,,
,,YARD,1.9757,1,,,,,,stimuli/images/PICTURE_2.png,YARD,5b81d72a3c13750001995473,16/03/1988,2020-08-13_12h45.16.075,proactive2,2020.1.2,Linux x86_64,60,5f341be081b9052c55068110,5f3527b7af13c148b7f897dd,6,,,,,,tyre,,,,,,,,,,,6,2,0,8,8,55,1,,,,,,,,,,,,,,,,,,,,,,,,,,,,,,,,,,,,,,,,,,,,,,,,,,,,,,,,,,,,,,,,,,,,,,,,,,,,,,,,,,,,,,,,,,,,,,
,,?,0.002065,0,,,,,,stimuli/images/PICTURE_215.png,LEADER,5b81d72a3c13750001995473,16/03/1988,2020-08-13_12h45.16.075,proactive2,2020.1.2,Linux x86_64,60,5f341be081b9052c55068110,5f3527b7af13c148b7f897dd,6,,,,,,boot,,,,,,,,,,,5,2,0,9,9,43,1,,,,,,,,,,,,,,,,,,,,,,,,,,,,,,,,,,,,,,,,,,,,,,,,,,,,,,,,,,,,,,,,,,,,,,,,,,,,,,,,,,,,,,,,,,,,,,
,,?,0.00175,0,,,,,,stimuli/images/PICTURE_314.png,SPEECH,5b81d72a3c13750001995473,16/03/1988,2020-08-13_12h45.16.075,proactive2,2020.1.2,Linux x86_64,60,5f341be081b9052c55068110,5f3527b7af13c148b7f897dd,6,,,,,,perfume,,,,,,,,,,,4,2,0,10,10,35,1,,,,,,,,,,,,,,,,,,,,,,,,,,,,,,,,,,,,,,,,,,,,,,,,,,,,,,,,,,,,,,,,,,,,,,,,,,,,,,,,,,,,,,,,,,,,,,
,,?,0.000765,0,,,,,,stimuli/images/PICTURE_491.png,SERIES,5b81d72a3c13750001995473,16/03/1988,2020-08-13_12h45.16.075,proactive2,2020.1.2,Linux x86_64,60,5f341be081b9052c55068110,5f3527b7af13c148b7f897dd,6,,,,,,rug,,,,,,,,,,,4,2,0,11,11,39,1,,,,,,,,,,,,,,,,,,,,,,,,,,,,,,,,,,,,,,,,,,,,,,,,,,,,,,,,,,,,,,,,,,,,,,,,,,,,,,,,,,,,,,,,,,,,,,
,,SALE,1.47978,1,,,,,,stimuli/images/PICTURE_655.png,SALE,5b81d72a3c13750001995473,16/03/1988,2020-08-13_12h45.16.075,proactive2,2020.1.2,Linux x86_64,60,5f341be081b9052c55068110,5f3527b7af13c148b7f897dd,6,,,,,,megaphone,,,,,,,,,,,6,2,0,12,12,57,1,,,,,,,,,,,,,,,,,,,,,,,,,,,,,,,,,,,,,,,,,,,,,,,,,,,,,,,,,,,,,,,,,,,,,,,,,,,,,,,,,,,,,,,,,,,,,,
,,?,0.00127,0,,,,,,stimuli/images/PICTURE_403.png,FAMILY,5b81d72a3c13750001995473,16/03/1988,2020-08-13_12h45.16.075,proactive2,2020.1.2,Linux x86_64,60,5f341be081b9052c55068110,5f3527b7af13c148b7f897dd,6,,,,,,cathedral,,,,,,,,,,,1,2,0,13,13,9,1,,,,,,,,,,,,,,,,,,,,,,,,,,,,,,,,,,,,,,,,,,,,,,,,,,,,,,,,,,,,,,,,,,,,,,,,,,,,,,,,,,,,,,,,,,,,,,
,,?,0.00081,0,,,,,,stimuli/images/PICTURE_470.png,MOMENT,5b81d72a3c13750001995473,16/03/1988,2020-08-13_12h45.16.075,proactive2,2020.1.2,Linux x86_64,60,5f341be081b9052c55068110,5f3527b7af13c148b7f897dd,6,,,,,,motorbike,,,,,,,,,,,5,2,0,14,14,40,1,,,,,,,,,,,,,,,,,,,,,,,,,,,,,,,,,,,,,,,,,,,,,,,,,,,,,,,,,,,,,,,,,,,,,,,,,,,,,,,,,,,,,,,,,,,,,,
,,?,0.00074,0,,,,,,stimuli/images/PICTURE_677.png,PHOTO,5b81d72a3c13750001995473,16/03/1988,2020-08-13_12h45.16.075,proactive2,2020.1.2,Linux x86_64,60,5f341be081b9052c55068110,5f3527b7af13c148b7f897dd,6,,,,,,map,,,,,,,,,,,2,2,0,15,15,14,1,,,,,,,,,,,,,,,,,,,,,,,,,,,,,,,,,,,,,,,,,,,,,,,,,,,,,,,,,,,,,,,,,,,,,,,,,,,,,,,,,,,,,,,,,,,,,,
,,?,0.000795,0,,,,,,stimuli/images/PICTURE_692.png,DUDE,5b81d72a3c13750001995473,16/03/1988,2020-08-13_12h45.16.075,proactive2,2020.1.2,Linux x86_64,60,5f341be081b9052c55068110,5f3527b7af13c148b7f897dd,6,,,,,,cherry,,,,,,,,,,,5,2,0,16,16,47,1,,,,,,,,,,,,,,,,,,,,,,,,,,,,,,,,,,,,,,,,,,,,,,,,,,,,,,,,,,,,,,,,,,,,,,,,,,,,,,,,,,,,,,,,,,,,,,
,,?,0.00079,0,,,,,,stimuli/images/PICTURE_18.png,RIVER,5b81d72a3c13750001995473,16/03/1988,2020-08-13_12h45.16.075,proactive2,2020.1.2,Linux x86_64,60,5f341be081b9052c55068110,5f3527b7af13c148b7f897dd,6,,,,,,planet,,,,,,,,,,,3,2,0,17,17,22,1,,,,,,,,,,,,,,,,,,,,,,,,,,,,,,,,,,,,,,,,,,,,,,,,,,,,,,,,,,,,,,,,,,,,,,,,,,,,,,,,,,,,,,,,,,,,,,
,,FAMILY,2.143755,1,,,,,,stimuli/images/PICTURE_677.png,FAMILY,5b81d72a3c13750001995473,16/03/1988,2020-08-13_12h45.16.075,proactive2,2020.1.2,Linux x86_64,60,5f341be081b9052c55068110,5f3527b7af13c148b7f897dd,6,,,,,,map,,,,,,,,,,,6,2,0,18,18,53,1,,,,,,,,,,,,,,,,,,,,,,,,,,,,,,,,,,,,,,,,,,,,,,,,,,,,,,,,,,,,,,,,,,,,,,,,,,,,,,,,,,,,,,,,,,,,,,
,,?,0.003485,0,,,,,,stimuli/images/PICTURE_215.png,BOYS,5b81d72a3c13750001995473,16/03/1988,2020-08-13_12h45.16.075,proactive2,2020.1.2,Linux x86_64,60,5f341be081b9052c55068110,5f3527b7af13c148b7f897dd,6,,,,,,boot,,,,,,,,,,,3,2,0,19,19,24,1,,,,,,,,,,,,,,,,,,,,,,,,,,,,,,,,,,,,,,,,,,,,,,,,,,,,,,,,,,,,,,,,,,,,,,,,,,,,,,,,,,,,,,,,,,,,,,
,,?,0.00082,0,,,,,,stimuli/images/PICTURE_509.png,APPLE,5b81d72a3c13750001995473,16/03/1988,2020-08-13_12h45.16.075,proactive2,2020.1.2,Linux x86_64,60,5f341be081b9052c55068110,5f3527b7af13c148b7f897dd,6,,,,,,telephone,,,,,,,,,,,4,2,0,20,20,38,1,,,,,,,,,,,,,,,,,,,,,,,,,,,,,,,,,,,,,,,,,,,,,,,,,,,,,,,,,,,,,,,,,,,,,,,,,,,,,,,,,,,,,,,,,,,,,,
,,?,0.00076,0,,,,,,stimuli/images/PICTURE_564.png,PLENTY,5b81d72a3c13750001995473,16/03/1988,2020-08-13_12h45.16.075,proactive2,2020.1.2,Linux x86_64,60,5f341be081b9052c55068110,5f3527b7af13c148b7f897dd,6,,,,,,spoon,,,,,,,,,,,2,2,0,21,21,11,1,,,,,,,,,,,,,,,,,,,,,,,,,,,,,,,,,,,,,,,,,,,,,,,,,,,,,,,,,,,,,,,,,,,,,,,,,,,,,,,,,,,,,,,,,,,,,,
,,?,0.00075,0,,,,,,stimuli/images/PICTURE_285.png,WRITER,5b81d72a3c13750001995473,16/03/1988,2020-08-13_12h45.16.075,proactive2,2020.1.2,Linux x86_64,60,5f341be081b9052c55068110,5f3527b7af13c148b7f897dd,6,,,,,,carrot,,,,,,,,,,,1,2,0,22,22,6,1,,,,,,,,,,,,,,,,,,,,,,,,,,,,,,,,,,,,,,,,,,,,,,,,,,,,,,,,,,,,,,,,,,,,,,,,,,,,,,,,,,,,,,,,,,,,,,
,,?,0.00071,0,,,,,,stimuli/images/PICTURE_509.png,BATH,5b81d72a3c13750001995473,16/03/1988,2020-08-13_12h45.16.075,proactive2,2020.1.2,Linux x86_64,60,5f341be081b9052c55068110,5f3527b7af13c148b7f897dd,6,,,,,,telephone,,,,,,,,,,,2,2,0,23,23,15,1,,,,,,,,,,,,,,,,,,,,,,,,,,,,,,,,,,,,,,,,,,,,,,,,,,,,,,,,,,,,,,,,,,,,,,,,,,,,,,,,,,,,,,,,,,,,,,
,,?,0.00077,0,,,,,,stimuli/images/PICTURE_405.png,JUNGLE,5b81d72a3c13750001995473,16/03/1988,2020-08-13_12h45.16.075,proactive2,2020.1.2,Linux x86_64,60,5f341be081b9052c55068110,5f3527b7af13c148b7f897dd,6,,,,,,anchor,,,,,,,,,,,2,2,0,24,24,13,1,,,,,,,,,,,,,,,,,,,,,,,,,,,,,,,,,,,,,,,,,,,,,,,,,,,,,,,,,,,,,,,,,,,,,,,,,,,,,,,,,,,,,,,,,,,,,,
,,?,0.00079,0,,,,,,stimuli/images/PICTURE_93.png,GIRL,5b81d72a3c13750001995473,16/03/1988,2020-08-13_12h45.16.075,proactive2,2020.1.2,Linux x86_64,60,5f341be081b9052c55068110,5f3527b7af13c148b7f897dd,6,,,,,,skateboard,,,,,,,,,,,4,2,0,25,25,31,1,,,,,,,,,,,,,,,,,,,,,,,,,,,,,,,,,,,,,,,,,,,,,,,,,,,,,,,,,,,,,,,,,,,,,,,,,,,,,,,,,,,,,,,,,,,,,,
,,?,0.000795,0,,,,,,stimuli/images/PICTURE_33.png,COPS,5b81d72a3c13750001995473,16/03/1988,2020-08-13_12h45.16.075,proactive2,2020.1.2,Linux x86_64,60,5f341be081b9052c55068110,5f3527b7af13c148b7f897dd,6,,,,,,frame,,,,,,,,,,,3,2,0,26,26,29,1,,,,,,,,,,,,,,,,,,,,,,,,,,,,,,,,,,,,,,,,,,,,,,,,,,,,,,,,,,,,,,,,,,,,,,,,,,,,,,,,,,,,,,,,,,,,,,
,,?,0.0056,0,,,,,,stimuli/images/PICTURE_95.png,NIGHT,5b81d72a3c13750001995473,16/03/1988,2020-08-13_12h45.16.075,proactive2,2020.1.2,Linux x86_64,60,5f341be081b9052c55068110,5f3527b7af13c148b7f897dd,6,,,,,,suitcase,,,,,,,,,,,4,2,0,27,27,37,1,,,,,,,,,,,,,,,,,,,,,,,,,,,,,,,,,,,,,,,,,,,,,,,,,,,,,,,,,,,,,,,,,,,,,,,,,,,,,,,,,,,,,,,,,,,,,,
,,?,0.000725,0,,,,,,stimuli/images/PICTURE_296.png,CLOCK,5b81d72a3c13750001995473,16/03/1988,2020-08-13_12h45.16.075,proactive2,2020.1.2,Linux x86_64,60,5f341be081b9052c55068110,5f3527b7af13c148b7f897dd,6,,,,,,bolt,,,,,,,,,,,2,2,0,28,28,18,1,,,,,,,,,,,,,,,,,,,,,,,,,,,,,,,,,,,,,,,,,,,,,,,,,,,,,,,,,,,,,,,,,,,,,,,,,,,,,,,,,,,,,,,,,,,,,,
,,?,0.000745,0,,,,,,stimuli/images/PICTURE_654.png,YEAR,5b81d72a3c13750001995473,16/03/1988,2020-08-13_12h45.16.075,proactive2,2020.1.2,Linux x86_64,60,5f341be081b9052c55068110,5f3527b7af13c148b7f897dd,6,,,,,,pencil,,,,,,,,,,,5,2,0,29,29,41,1,,,,,,,,,,,,,,,,,,,,,,,,,,,,,,,,,,,,,,,,,,,,,,,,,,,,,,,,,,,,,,,,,,,,,,,,,,,,,,,,,,,,,,,,,,,,,,
,,?,0.00086,0,,,,,,stimuli/images/PICTURE_348.png,TOILET,5b81d72a3c13750001995473,16/03/1988,2020-08-13_12h45.16.075,proactive2,2020.1.2,Linux x86_64,60,5f341be081b9052c55068110,5f3527b7af13c148b7f897dd,6,,,,,,pepper,,,,,,,,,,,1,2,0,30,30,4,1,,,,,,,,,,,,,,,,,,,,,,,,,,,,,,,,,,,,,,,,,,,,,,,,,,,,,,,,,,,,,,,,,,,,,,,,,,,,,,,,,,,,,,,,,,,,,,
,,?,0.000765,0,,,,,,stimuli/images/PICTURE_160.png,HOTEL,5b81d72a3c13750001995473,16/03/1988,2020-08-13_12h45.16.075,proactive2,2020.1.2,Linux x86_64,60,5f341be081b9052c55068110,5f3527b7af13c148b7f897dd,6,,,,,,wheelbarrow,,,,,,,,,,,2,2,0,31,31,16,1,,,,,,,,,,,,,,,,,,,,,,,,,,,,,,,,,,,,,,,,,,,,,,,,,,,,,,,,,,,,,,,,,,,,,,,,,,,,,,,,,,,,,,,,,,,,,,
,,?,0.000775,0,,,,,,stimuli/images/PICTURE_750.png,POLICY,5b81d72a3c13750001995473,16/03/1988,2020-08-13_12h45.16.075,proactive2,2020.1.2,Linux x86_64,60,5f341be081b9052c55068110,5f3527b7af13c148b7f897dd,6,,,,,,kettle,,,,,,,,,,,5,2,0,32,32,44,1,,,,,,,,,,,,,,,,,,,,,,,,,,,,,,,,,,,,,,,,,,,,,,,,,,,,,,,,,,,,,,,,,,,,,,,,,,,,,,,,,,,,,,,,,,,,,,
,,TOILET,1.735985,1,,,,,,stimuli/images/PICTURE_311.png,TOILET,5b81d72a3c13750001995473,16/03/1988,2020-08-13_12h45.16.075,proactive2,2020.1.2,Linux x86_64,60,5f341be081b9052c55068110,5f3527b7af13c148b7f897dd,6,,,,,,razor,,,,,,,,,,,6,2,0,33,33,54,1,,,,,,,,,,,,,,,,,,,,,,,,,,,,,,,,,,,,,,,,,,,,,,,,,,,,,,,,,,,,,,,,,,,,,,,,,,,,,,,,,,,,,,,,,,,,,,
,,?,0.001115,0,,,,,,stimuli/images/PICTURE_2.png,AREA,5b81d72a3c13750001995473,16/03/1988,2020-08-13_12h45.16.075,proactive2,2020.1.2,Linux x86_64,60,5f341be081b9052c55068110,5f3527b7af13c148b7f897dd,6,,,,,,tyre,,,,,,,,,,,4,2,0,34,34,32,1,,,,,,,,,,,,,,,,,,,,,,,,,,,,,,,,,,,,,,,,,,,,,,,,,,,,,,,,,,,,,,,,,,,,,,,,,,,,,,,,,,,,,,,,,,,,,,
,,LETTER,1.686705,1,,,,,,stimuli/images/PICTURE_32.png,LETTER,5b81d72a3c13750001995473,16/03/1988,2020-08-13_12h45.16.075,proactive2,2020.1.2,Linux x86_64,60,5f341be081b9052c55068110,5f3527b7af13c148b7f897dd,6,,,,,,crown,,,,,,,,,,,6,2,0,35,35,56,1,,,,,,,,,,,,,,,,,,,,,,,,,,,,,,,,,,,,,,,,,,,,,,,,,,,,,,,,,,,,,,,,,,,,,,,,,,,,,,,,,,,,,,,,,,,,,,
,,?,0.001105,0,,,,,,stimuli/images/PICTURE_57.png,CASINO,5b81d72a3c13750001995473,16/03/1988,2020-08-13_12h45.16.075,proactive2,2020.1.2,Linux x86_64,60,5f341be081b9052c55068110,5f3527b7af13c148b7f897dd,6,,,,,,stamp,,,,,,,,,,,2,2,0,36,36,12,1,,,,,,,,,,,,,,,,,,,,,,,,,,,,,,,,,,,,,,,,,,,,,,,,,,,,,,,,,,,,,,,,,,,,,,,,,,,,,,,,,,,,,,,,,,,,,,
,,ROOF,2.15422,1,,,,,,stimuli/images/PICTURE_487.png,ROOF,5b81d72a3c13750001995473,16/03/1988,2020-08-13_12h45.16.075,proactive2,2020.1.2,Linux x86_64,60,5f341be081b9052c55068110,5f3527b7af13c148b7f897dd,6,,,,,,basket,,,,,,,,,,,6,2,0,37,37,50,1,,,,,,,,,,,,,,,,,,,,,,,,,,,,,,,,,,,,,,,,,,,,,,,,,,,,,,,,,,,,,,,,,,,,,,,,,,,,,,,,,,,,,,,,,,,,,,
,,CANDY,2.52076,1,,,,,,stimuli/images/PICTURE_57.png,CANDY,5b81d72a3c13750001995473,16/03/1988,2020-08-13_12h45.16.075,proactive2,2020.1.2,Linux x86_64,60,5f341be081b9052c55068110,5f3527b7af13c148b7f897dd,6,,,,,,stamp,,,,,,,,,,,6,2,0,38,38,52,1,,,,,,,,,,,,,,,,,,,,,,,,,,,,,,,,,,,,,,,,,,,,,,,,,,,,,,,,,,,,,,,,,,,,,,,,,,,,,,,,,,,,,,,,,,,,,,
,,JUNGLE,2.424705,1,,,,,,stimuli/images/PICTURE_405.png,JUNGLE,5b81d72a3c13750001995473,16/03/1988,2020-08-13_12h45.16.075,proactive2,2020.1.2,Linux x86_64,60,5f341be081b9052c55068110,5f3527b7af13c148b7f897dd,6,,,,,,anchor,,,,,,,,,,,6,2,0,39,39,58,1,,,,,,,,,,,,,,,,,,,,,,,,,,,,,,,,,,,,,,,,,,,,,,,,,,,,,,,,,,,,,,,,,,,,,,,,,,,,,,,,,,,,,,,,,,,,,,
,,?,0.00099,0,,,,,,stimuli/images/PICTURE_311.png,FLESH,5b81d72a3c13750001995473,16/03/1988,2020-08-13_12h45.16.075,proactive2,2020.1.2,Linux x86_64,60,5f341be081b9052c55068110,5f3527b7af13c148b7f897dd,6,,,,,,razor,,,,,,,,,,,1,2,0,40,40,3,1,,,,,,,,,,,,,,,,,,,,,,,,,,,,,,,,,,,,,,,,,,,,,,,,,,,,,,,,,,,,,,,,,,,,,,,,,,,,,,,,,,,,,,,,,,,,,,
,,?,0.003165,0,,,,,,stimuli/images/PICTURE_654.png,COPS,5b81d72a3c13750001995473,16/03/1988,2020-08-13_12h45.16.075,proactive2,2020.1.2,Linux x86_64,60,5f341be081b9052c55068110,5f3527b7af13c148b7f897dd,6,,,,,,pencil,,,,,,,,,,,2,2,0,41,41,10,1,,,,,,,,,,,,,,,,,,,,,,,,,,,,,,,,,,,,,,,,,,,,,,,,,,,,,,,,,,,,,,,,,,,,,,,,,,,,,,,,,,,,,,,,,,,,,,
,,?,0.000745,0,,,,,,stimuli/images/PICTURE_57.png,NATION,5b81d72a3c13750001995473,16/03/1988,2020-08-13_12h45.16.075,proactive2,2020.1.2,Linux x86_64,60,5f341be081b9052c55068110,5f3527b7af13c148b7f897dd,6,,,,,,stamp,,,,,,,,,,,3,2,0,42,42,21,1,,,,,,,,,,,,,,,,,,,,,,,,,,,,,,,,,,,,,,,,,,,,,,,,,,,,,,,,,,,,,,,,,,,,,,,,,,,,,,,,,,,,,,,,,,,,,,
,,?,0.00224,0,,,,,,stimuli/images/PICTURE_504.png,HOUSE,5b81d72a3c13750001995473,16/03/1988,2020-08-13_12h45.16.075,proactive2,2020.1.2,Linux x86_64,60,5f341be081b9052c55068110,5f3527b7af13c148b7f897dd,6,,,,,,wheel,,,,,,,,,,,4,2,0,43,43,36,1,,,,,,,,,,,,,,,,,,,,,,,,,,,,,,,,,,,,,,,,,,,,,,,,,,,,,,,,,,,,,,,,,,,,,,,,,,,,,,,,,,,,,,,,,,,,,,
,,?,0.001235,0,,,,,,stimuli/images/PICTURE_285.png,PRINCE,5b81d72a3c13750001995473,16/03/1988,2020-08-13_12h45.16.075,proactive2,2020.1.2,Linux x86_64,60,5f341be081b9052c55068110,5f3527b7af13c148b7f897dd,6,,,,,,carrot,,,,,,,,,,,3,2,0,44,44,20,1,,,,,,,,,,,,,,,,,,,,,,,,,,,,,,,,,,,,,,,,,,,,,,,,,,,,,,,,,,,,,,,,,,,,,,,,,,,,,,,,,,,,,,,,,,,,,,
,,?,0.005675,0,,,,,,stimuli/images/PICTURE_688.png,CLOCK,5b81d72a3c13750001995473,16/03/1988,2020-08-13_12h45.16.075,proactive2,2020.1.2,Linux x86_64,60,5f341be081b9052c55068110,5f3527b7af13c148b7f897dd,6,,,,,,runner,,,,,,,,,,,5,2,0,45,45,42,1,,,,,,,,,,,,,,,,,,,,,,,,,,,,,,,,,,,,,,,,,,,,,,,,,,,,,,,,,,,,,,,,,,,,,,,,,,,,,,,,,,,,,,,,,,,,,,
,,DUDE,1.597535,1,,,,,,stimuli/images/PICTURE_348.png,DUDE,5b81d72a3c13750001995473,16/03/1988,2020-08-13_12h45.16.075,proactive2,2020.1.2,Linux x86_64,60,5f341be081b9052c55068110,5f3527b7af13c148b7f897dd,6,,,,,,pepper,,,,,,,,,,,6,2,0,46,46,59,1,,,,,,,,,,,,,,,,,,,,,,,,,,,,,,,,,,,,,,,,,,,,,,,,,,,,,,,,,,,,,,,,,,,,,,,,,,,,,,,,,,,,,,,,,,,,,,
,,?,0.001045,0,,,,,,stimuli/images/PICTURE_68.png,KIND,5b81d72a3c13750001995473,16/03/1988,2020-08-13_12h45.16.075,proactive2,2020.1.2,Linux x86_64,60,5f341be081b9052c55068110,5f3527b7af13c148b7f897dd,6,,,,,,candle,,,,,,,,,,,3,2,0,47,47,23,1,,,,,,,,,,,,,,,,,,,,,,,,,,,,,,,,,,,,,,,,,,,,,,,,,,,,,,,,,,,,,,,,,,,,,,,,,,,,,,,,,,,,,,,,,,,,,,
,,?,0.00336,0,,,,,,stimuli/images/PICTURE_141.png,CLIENT,5b81d72a3c13750001995473,16/03/1988,2020-08-13_12h45.16.075,proactive2,2020.1.2,Linux x86_64,60,5f341be081b9052c55068110,5f3527b7af13c148b7f897dd,6,,,,,,sunflower,,,,,,,,,,,4,2,0,48,48,30,1,,,,,,,,,,,,,,,,,,,,,,,,,,,,,,,,,,,,,,,,,,,,,,,,,,,,,,,,,,,,,,,,,,,,,,,,,,,,,,,,,,,,,,,,,,,,,,
,,?,0.00189,0,,,,,,stimuli/images/PICTURE_509.png,MILLER,5b81d72a3c13750001995473,16/03/1988,2020-08-13_12h45.16.075,proactive2,2020.1.2,Linux x86_64,60,5f341be081b9052c55068110,5f3527b7af13c148b7f897dd,6,,,,,,telephone,,,,,,,,,,,5,2,0,49,49,49,1,,,,,,,,,,,,,,,,,,,,,,,,,,,,,,,,,,,,,,,,,,,,,,,,,,,,,,,,,,,,,,,,,,,,,,,,,,,,,,,,,,,,,,,,,,,,,,
,,?,0.00359,0,,,,,,stimuli/images/PICTURE_177.png,HOUSE,5b81d72a3c13750001995473,16/03/1988,2020-08-13_12h45.16.075,proactive2,2020.1.2,Linux x86_64,60,5f341be081b9052c55068110,5f3527b7af13c148b7f897dd,6,,,,,,mushroom,,,,,,,,,,,3,2,0,50,50,25,1,,,,,,,,,,,,,,,,,,,,,,,,,,,,,,,,,,,,,,,,,,,,,,,,,,,,,,,,,,,,,,,,,,,,,,,,,,,,,,,,,,,,,,,,,,,,,,
,,?,0.00108,0,,,,,,stimuli/images/PICTURE_453.png,FAMILY,5b81d72a3c13750001995473,16/03/1988,2020-08-13_12h45.16.075,proactive2,2020.1.2,Linux x86_64,60,5f341be081b9052c55068110,5f3527b7af13c148b7f897dd,6,,,,,,scissors,,,,,,,,,,,5,2,0,51,51,48,1,,,,,,,,,,,,,,,,,,,,,,,,,,,,,,,,,,,,,,,,,,,,,,,,,,,,,,,,,,,,,,,,,,,,,,,,,,,,,,,,,,,,,,,,,,,,,,
,,?,0.00095,0,,,,,,stimuli/images/PICTURE_487.png,POLICY,5b81d72a3c13750001995473,16/03/1988,2020-08-13_12h45.16.075,proactive2,2020.1.2,Linux x86_64,60,5f341be081b9052c55068110,5f3527b7af13c148b7f897dd,6,,,,,,basket,,,,,,,,,,,4,2,0,52,52,34,1,,,,,,,,,,,,,,,,,,,,,,,,,,,,,,,,,,,,,,,,,,,,,,,,,,,,,,,,,,,,,,,,,,,,,,,,,,,,,,,,,,,,,,,,,,,,,,
,,?,0.000905,0,,,,,,stimuli/images/PICTURE_667.png,GLASS,5b81d72a3c13750001995473,16/03/1988,2020-08-13_12h45.16.075,proactive2,2020.1.2,Linux x86_64,60,5f341be081b9052c55068110,5f3527b7af13c148b7f897dd,6,,,,,,daisy,,,,,,,,,,,3,2,0,53,53,27,1,,,,,,,,,,,,,,,,,,,,,,,,,,,,,,,,,,,,,,,,,,,,,,,,,,,,,,,,,,,,,,,,,,,,,,,,,,,,,,,,,,,,,,,,,,,,,,
,,?,0.00089,0,,,,,,stimuli/images/PICTURE_708.png,VALLEY,5b81d72a3c13750001995473,16/03/1988,2020-08-13_12h45.16.075,proactive2,2020.1.2,Linux x86_64,60,5f341be081b9052c55068110,5f3527b7af13c148b7f897dd,6,,,,,,monkey,,,,,,,,,,,5,2,0,54,54,45,1,,,,,,,,,,,,,,,,,,,,,,,,,,,,,,,,,,,,,,,,,,,,,,,,,,,,,,,,,,,,,,,,,,,,,,,,,,,,,,,,,,,,,,,,,,,,,,
,,?,0.002725,0,,,,,,stimuli/images/PICTURE_215.png,FOOD,5b81d72a3c13750001995473,16/03/1988,2020-08-13_12h45.16.075,proactive2,2020.1.2,Linux x86_64,60,5f341be081b9052c55068110,5f3527b7af13c148b7f897dd,6,,,,,,boot,,,,,,,,,,,1,2,0,55,55,5,1,,,,,,,,,,,,,,,,,,,,,,,,,,,,,,,,,,,,,,,,,,,,,,,,,,,,,,,,,,,,,,,,,,,,,,,,,,,,,,,,,,,,,,,,,,,,,,
,,?,0.00093,0,,,,,,stimuli/images/PICTURE_327.png,LEADER,5b81d72a3c13750001995473,16/03/1988,2020-08-13_12h45.16.075,proactive2,2020.1.2,Linux x86_64,60,5f341be081b9052c55068110,5f3527b7af13c148b7f897dd,6,,,,,,helmet,,,,,,,,,,,2,2,0,56,56,17,1,,,,,,,,,,,,,,,,,,,,,,,,,,,,,,,,,,,,,,,,,,,,,,,,,,,,,,,,,,,,,,,,,,,,,,,,,,,,,,,,,,,,,,,,,,,,,,
,,?,0.000955,0,,,,,,stimuli/images/PICTURE_123.png,SALE,5b81d72a3c13750001995473,16/03/1988,2020-08-13_12h45.16.075,proactive2,2020.1.2,Linux x86_64,60,5f341be081b9052c55068110,5f3527b7af13c148b7f897dd,6,,,,,,dart,,,,,,,,,,,1,2,0,57,57,8,1,,,,,,,,,,,,,,,,,,,,,,,,,,,,,,,,,,,,,,,,,,,,,,,,,,,,,,,,,,,,,,,,,,,,,,,,,,,,,,,,,,,,,,,,,,,,,,
,,?,0.00103,0,,,,,,stimuli/images/PICTURE_470.png,BEAUTY,5b81d72a3c13750001995473,16/03/1988,2020-08-13_12h45.16.075,proactive2,2020.1.2,Linux x86_64,60,5f341be081b9052c55068110,5f3527b7af13c148b7f897dd,6,,,,,,motorbike,,,,,,,,,,,3,2,0,58,58,26,1,,,,,,,,,,,,,,,,,,,,,,,,,,,,,,,,,,,,,,,,,,,,,,,,,,,,,,,,,,,,,,,,,,,,,,,,,,,,,,,,,,,,,,,,,,,,,,
,,?,0.002855,0,,,,,,stimuli/images/PICTURE_208.png,SPIRIT,5b81d72a3c13750001995473,16/03/1988,2020-08-13_12h45.16.075,proactive2,2020.1.2,Linux x86_64,60,5f341be081b9052c55068110,5f3527b7af13c148b7f897dd,6,,,,,,microphone,,,,,,,,,,,3,2,0,59,59,28,1,,,,,,,,,,,,,,,,,,,,,,,,,,,,,,,,,,,,,,,,,,,,,,,,,,,,,,,,,,,,,,,,,,,,,,,,,,,,,,,,,,,,,,,,,,,,,,
,,,,,,,,,,,,5b81d72a3c13750001995473,16/03/1988,2020-08-13_12h45.16.075,proactive2,2020.1.2,Linux x86_64,60,5f341be081b9052c55068110,5f3527b7af13c148b7f897dd,6,,,,,,,,,,,,,,,,,,,,,,,,0,0,0,2,1,stimuli/learn-block3.csv,,,,,,,,,,,,,,,,,,,,,,,,,,,,,,,,,,,,,,,,,,,,,,,,,,,,,,,,,,,,,,,,,,,,,,,,,,,,,,,,,,,,,,,,
,,,,,,,,,,stimuli/images/PICTURE_708.png,CLIENT,5b81d72a3c13750001995473,16/03/1988,2020-08-13_12h45.16.075,proactive2,2020.1.2,Linux x86_64,60,5f341be081b9052c55068110,5f3527b7af13c148b7f897dd,6,,,,,,monkey,,,,,,0,0,0,5,1,1,0,,,,,,,,,,,,,,,,,,,,,,,,,,,,,,,,,,,,,,,,,,,,,,,,,,,,,,,,,,,,,,,,,,,,,,,,,,,,,,,,,,,,,,,,,,,,,,,,,,,
,,,,,,,,,,stimuli/images/PICTURE_248.png,DOZEN,5b81d72a3c13750001995473,16/03/1988,2020-08-13_12h45.16.075,proactive2,2020.1.2,Linux x86_64,60,5f341be081b9052c55068110,5f3527b7af13c148b7f897dd,6,,,,,,cart,,,,,,0,1,1,39,1,4,0,,,,,,,,,,,,,,,,,,,,,,,,,,,,,,,,,,,,,,,,,,,,,,,,,,,,,,,,,,,,,,,,,,,,,,,,,,,,,,,,,,,,,,,,,,,,,,,,,,,
,,,,,,,,,,stimuli/images/PICTURE_744.png,SYSTEM,5b81d72a3c13750001995473,16/03/1988,2020-08-13_12h45.16.075,proactive2,2020.1.2,Linux x86_64,60,5f341be081b9052c55068110,5f3527b7af13c148b7f897dd,6,,,,,,ring,,,,,,0,2,2,43,1,5,0,,,,,,,,,,,,,,,,,,,,,,,,,,,,,,,,,,,,,,,,,,,,,,,,,,,,,,,,,,,,,,,,,,,,,,,,,,,,,,,,,,,,,,,,,,,,,,,,,,,
,,,,,,,,,,stimuli/images/PICTURE_311.png,BEAUTY,5b81d72a3c13750001995473,16/03/1988,2020-08-13_12h45.16.075,proactive2,2020.1.2,Linux x86_64,60,5f341be081b9052c55068110,5f3527b7af13c148b7f897dd,6,,,,,,razor,,,,,,0,3,3,13,1,2,0,,,,,,,,,,,,,,,,,,,,,,,,,,,,,,,,,,,,,,,,,,,,,,,,,,,,,,,,,,,,,,,,,,,,,,,,,,,,,,,,,,,,,,,,,,,,,,,,,,,
,,,,,,,,,,stimuli/images/PICTURE_177.png,CARS,5b81d72a3c13750001995473,16/03/1988,2020-08-13_12h45.16.075,proactive2,2020.1.2,Linux x86_64,60,5f341be081b9052c55068110,5f3527b7af13c148b7f897dd,6,,,,,,mushroom,,,,,,0,4,4,35,1,4,0,,,,,,,,,,,,,,,,,,,,,,,,,,,,,,,,,,,,,,,,,,,,,,,,,,,,,,,,,,,,,,,,,,,,,,,,,,,,,,,,,,,,,,,,,,,,,,,,,,,
,,,,,,,,,,stimuli/images/PICTURE_708.png,PENNY,5b81d72a3c13750001995473,16/03/1988,2020-08-13_12h45.16.075,proactive2,2020.1.2,Linux x86_64,60,5f341be081b9052c55068110,5f3527b7af13c148b7f897dd,6,,,,,,monkey,,,,,,0,5,5,31,1,4,0,,,,,,,,,,,,,,,,,,,,,,,,,,,,,,,,,,,,,,,,,,,,,,,,,,,,,,,,,,,,,,,,,,,,,,,,,,,,,,,,,,,,,,,,,,,,,,,,,,,
,,,,,,,,,,stimuli/images/PICTURE_380.png,DEATH,5b81d72a3c13750001995473,16/03/1988,2020-08-13_12h45.16.075,proactive2,2020.1.2,Linux x86_64,60,5f341be081b9052c55068110,5f3527b7af13c148b7f897dd,6,,,,,,gorilla,,,,,,0,6,6,49,1,5,0,,,,,,,,,,,,,,,,,,,,,,,,,,,,,,,,,,,,,,,,,,,,,,,,,,,,,,,,,,,,,,,,,,,,,,,,,,,,,,,,,,,,,,,,,,,,,,,,,,,
,,,,,,,,,,stimuli/images/PICTURE_453.png,DUDE,5b81d72a3c13750001995473,16/03/1988,2020-08-13_12h45.16.075,proactive2,2020.1.2,Linux x86_64,60,5f341be081b9052c55068110,5f3527b7af13c148b7f897dd,6,,,,,,scissors,,,,,,0,7,7,27,1,3,0,,,,,,,,,,,,,,,,,,,,,,,,,,,,,,,,,,,,,,,,,,,,,,,,,,,,,,,,,,,,,,,,,,,,,,,,,,,,,,,,,,,,,,,,,,,,,,,,,,,
,,,,,,,,,,stimuli/images/PICTURE_677.png,MILE,5b81d72a3c13750001995473,16/03/1988,2020-08-13_12h45.16.075,proactive2,2020.1.2,Linux x86_64,60,5f341be081b9052c55068110,5f3527b7af13c148b7f897dd,6,,,,,,map,,,,,,0,8,8,30,1,4,0,,,,,,,,,,,,,,,,,,,,,,,,,,,,,,,,,,,,,,,,,,,,,,,,,,,,,,,,,,,,,,,,,,,,,,,,,,,,,,,,,,,,,,,,,,,,,,,,,,,
,,,,,,,,,,stimuli/images/PICTURE_509.png,PHOTO,5b81d72a3c13750001995473,16/03/1988,2020-08-13_12h45.16.075,proactive2,2020.1.2,Linux x86_64,60,5f341be081b9052c55068110,5f3527b7af13c148b7f897dd,6,,,,,,telephone,,,,,,0,9,9,21,1,3,0,,,,,,,,,,,,,,,,,,,,,,,,,,,,,,,,,,,,,,,,,,,,,,,,,,,,,,,,,,,,,,,,,,,,,,,,,,,,,,,,,,,,,,,,,,,,,,,,,,,
,,,,,,,,,,stimuli/images/PICTURE_32.png,JUNGLE,5b81d72a3c13750001995473,16/03/1988,2020-08-13_12h45.16.075,proactive2,2020.1.2,Linux x86_64,60,5f341be081b9052c55068110,5f3527b7af13c148b7f897dd,6,,,,,,crown,,,,,,0,10,10,45,1,5,0,,,,,,,,,,,,,,,,,,,,,,,,,,,,,,,,,,,,,,,,,,,,,,,,,,,,,,,,,,,,,,,,,,,,,,,,,,,,,,,,,,,,,,,,,,,,,,,,,,,
,,,,,,,,,,stimuli/images/PICTURE_151.png,GIRL,5b81d72a3c13750001995473,16/03/1988,2020-08-13_12h45.16.075,proactive2,2020.1.2,Linux x86_64,60,5f341be081b9052c55068110,5f3527b7af13c148b7f897dd,6,,,,,,tray,,,,,,0,11,11,19,1,2,0,,,,,,,,,,,,,,,,,,,,,,,,,,,,,,,,,,,,,,,,,,,,,,,,,,,,,,,,,,,,,,,,,,,,,,,,,,,,,,,,,,,,,,,,,,,,,,,,,,,
,,,,,,,,,,stimuli/images/PICTURE_488.png,STYLE,5b81d72a3c13750001995473,16/03/1988,2020-08-13_12h45.16.075,proactive2,2020.1.2,Linux x86_64,60,5f341be081b9052c55068110,5f3527b7af13c148b7f897dd,6,,,,,,sun,,,,,,0,12,12,33,1,4,0,,,,,,,,,,,,,,,,,,,,,,,,,,,,,,,,,,,,,,,,,,,,,,,,,,,,,,,,,,,,,,,,,,,,,,,,,,,,,,,,,,,,,,,,,,,,,,,,,,,
,,,,,,,,,,stimuli/images/PICTURE_688.png,WOMEN,5b81d72a3c13750001995473,16/03/1988,2020-08-13_12h45.16.075,proactive2,2020.1.2,Linux x86_64,60,5f341be081b9052c55068110,5f3527b7af13c148b7f897dd,6,,,,,,runner,,,,,,0,13,13,14,1,2,0,,,,,,,,,,,,,,,,,,,,,,,,,,,,,,,,,,,,,,,,,,,,,,,,,,,,,,,,,,,,,,,,,,,,,,,,,,,,,,,,,,,,,,,,,,,,,,,,,,,
,,,,,,,,,,stimuli/images/PICTURE_449.png,THING,5b81d72a3c13750001995473,16/03/1988,2020-08-13_12h45.16.075,proactive2,2020.1.2,Linux x86_64,60,5f341be081b9052c55068110,5f3527b7af13c148b7f897dd,6,,,,,,bench,,,,,,0,14,14,59,1,6,0,,,,,,,,,,,,,,,,,,,,,,,,,,,,,,,,,,,,,,,,,,,,,,,,,,,,,,,,,,,,,,,,,,,,,,,,,,,,,,,,,,,,,,,,,,,,,,,,,,,
,,,,,,,,,,stimuli/images/PICTURE_487.png,FLIGHT,5b81d72a3c13750001995473,16/03/1988,2020-08-13_12h45.16.075,proactive2,2020.1.2,Linux x86_64,60,5f341be081b9052c55068110,5f3527b7af13c148b7f897dd,6,,,,,,basket,,,,,,0,15,15,9,1,1,0,,,,,,,,,,,,,,,,,,,,,,,,,,,,,,,,,,,,,,,,,,,,,,,,,,,,,,,,,,,,,,,,,,,,,,,,,,,,,,,,,,,,,,,,,,,,,,,,,,,
,,,,,,,,,,stimuli/images/PICTURE_504.png,BODY,5b81d72a3c13750001995473,16/03/1988,2020-08-13_12h45.16.075,proactive2,2020.1.2,Linux x86_64,60,5f341be081b9052c55068110,5f3527b7af13c148b7f897dd,6,,,,,,wheel,,,,,,0,16,16,8,1,1,0,,,,,,,,,,,,,,,,,,,,,,,,,,,,,,,,,,,,,,,,,,,,,,,,,,,,,,,,,,,,,,,,,,,,,,,,,,,,,,,,,,,,,,,,,,,,,,,,,,,
,,,,,,,,,,stimuli/images/PICTURE_453.png,PLENTY,5b81d72a3c13750001995473,16/03/1988,2020-08-13_12h45.16.075,proactive2,2020.1.2,Linux x86_64,60,5f341be081b9052c55068110,5f3527b7af13c148b7f897dd,6,,,,,,scissors,,,,,,0,17,17,56,1,6,0,,,,,,,,,,,,,,,,,,,,,,,,,,,,,,,,,,,,,,,,,,,,,,,,,,,,,,,,,,,,,,,,,,,,,,,,,,,,,,,,,,,,,,,,,,,,,,,,,,,
,,,,,,,,,,stimuli/images/PICTURE_203.png,ARTIST,5b81d72a3c13750001995473,16/03/1988,2020-08-13_12h45.16.075,proactive2,2020.1.2,Linux x86_64,60,5f341be081b9052c55068110,5f3527b7af13c148b7f897dd,6,,,,,,cap,,,,,,0,18,18,26,1,3,0,,,,,,,,,,,,,,,,,,,,,,,,,,,,,,,,,,,,,,,,,,,,,,,,,,,,,,,,,,,,,,,,,,,,,,,,,,,,,,,,,,,,,,,,,,,,,,,,,,,
,,,,,,,,,,stimuli/images/PICTURE_208.png,THING,5b81d72a3c13750001995473,16/03/1988,2020-08-13_12h45.16.075,proactive2,2020.1.2,Linux x86_64,60,5f341be081b9052c55068110,5f3527b7af13c148b7f897dd,6,,,,,,microphone,,,,,,0,19,19,47,1,5,0,,,,,,,,,,,,,,,,,,,,,,,,,,,,,,,,,,,,,,,,,,,,,,,,,,,,,,,,,,,,,,,,,,,,,,,,,,,,,,,,,,,,,,,,,,,,,,,,,,,
,,,,,,,,,,stimuli/images/PICTURE_470.png,CASINO,5b81d72a3c13750001995473,16/03/1988,2020-08-13_12h45.16.075,proactive2,2020.1.2,Linux x86_64,60,5f341be081b9052c55068110,5f3527b7af13c148b7f897dd,6,,,,,,motorbike,,,,,,0,20,20,36,1,4,0,,,,,,,,,,,,,,,,,,,,,,,,,,,,,,,,,,,,,,,,,,,,,,,,,,,,,,,,,,,,,,,,,,,,,,,,,,,,,,,,,,,,,,,,,,,,,,,,,,,
,,,,,,,,,,stimuli/images/PICTURE_744.png,SAKE,5b81d72a3c13750001995473,16/03/1988,2020-08-13_12h45.16.075,proactive2,2020.1.2,Linux x86_64,60,5f341be081b9052c55068110,5f3527b7af13c148b7f897dd,6,,,,,,ring,,,,,,0,21,21,17,1,2,0,,,,,,,,,,,,,,,,,,,,,,,,,,,,,,,,,,,,,,,,,,,,,,,,,,,,,,,,,,,,,,,,,,,,,,,,,,,,,,,,,,,,,,,,,,,,,,,,,,,
,,,,,,,,,,stimuli/images/PICTURE_339.png,PLENTY,5b81d72a3c13750001995473,16/03/1988,2020-08-13_12h45.16.075,proactive2,2020.1.2,Linux x86_64,60,5f341be081b9052c55068110,5f3527b7af13c148b7f897dd,6,,,,,,backpack,,,,,,0,22,22,0,1,1,0,,,,,,,,,,,,,,,,,,,,,,,,,,,,,,,,,,,,,,,,,,,,,,,,,,,,,,,,,,,,,,,,,,,,,,,,,,,,,,,,,,,,,,,,,,,,,,,,,,,
,,,,,,,,,,stimuli/images/PICTURE_208.png,MONTH,5b81d72a3c13750001995473,16/03/1988,2020-08-13_12h45.16.075,proactive2,2020.1.2,Linux x86_64,60,5f341be081b9052c55068110,5f3527b7af13c148b7f897dd,6,,,,,,microphone,,,,,,0,23,23,53,1,6,0,,,,,,,,,,,,,,,,,,,,,,,,,,,,,,,,,,,,,,,,,,,,,,,,,,,,,,,,,,,,,,,,,,,,,,,,,,,,,,,,,,,,,,,,,,,,,,,,,,,
,,,,,,,,,,stimuli/images/PICTURE_348.png,SPEECH,5b81d72a3c13750001995473,16/03/1988,2020-08-13_12h45.16.075,proactive2,2020.1.2,Linux x86_64,60,5f341be081b9052c55068110,5f3527b7af13c148b7f897dd,6,,,,,,pepper,,,,,,0,24,24,20,1,3,0,,,,,,,,,,,,,,,,,,,,,,,,,,,,,,,,,,,,,,,,,,,,,,,,,,,,,,,,,,,,,,,,,,,,,,,,,,,,,,,,,,,,,,,,,,,,,,,,,,,
,,,,,,,,,,stimuli/images/PICTURE_160.png,LEADER,5b81d72a3c13750001995473,16/03/1988,2020-08-13_12h45.16.075,proactive2,2020.1.2,Linux x86_64,60,5f341be081b9052c55068110,5f3527b7af13c148b7f897dd,6,,,,,,wheelbarrow,,,,,,0,25,25,3,1,1,0,,,,,,,,,,,,,,,,,,,,,,,,,,,,,,,,,,,,,,,,,,,,,,,,,,,,,,,,,,,,,,,,,,,,,,,,,,,,,,,,,,,,,,,,,,,,,,,,,,,
,,,,,,,,,,stimuli/images/PICTURE_123.png,ADVICE,5b81d72a3c13750001995473,16/03/1988,2020-08-13_12h45.16.075,proactive2,2020.1.2,Linux x86_64,60,5f341be081b9052c55068110,5f3527b7af13c148b7f897dd,6,,,,,,dart,,,,,,0,26,26,50,1,6,0,,,,,,,,,,,,,,,,,,,,,,,,,,,,,,,,,,,,,,,,,,,,,,,,,,,,,,,,,,,,,,,,,,,,,,,,,,,,,,,,,,,,,,,,,,,,,,,,,,,
,,,,,,,,,,stimuli/images/PICTURE_467.png,DEMON,5b81d72a3c13750001995473,16/03/1988,2020-08-13_12h45.16.075,proactive2,2020.1.2,Linux x86_64,60,5f341be081b9052c55068110,5f3527b7af13c148b7f897dd,6,,,,,,peg,,,,,,0,27,27,23,1,3,0,,,,,,,,,,,,,,,,,,,,,,,,,,,,,,,,,,,,,,,,,,,,,,,,,,,,,,,,,,,,,,,,,,,,,,,,,,,,,,,,,,,,,,,,,,,,,,,,,,,
,,,,,,,,,,stimuli/images/PICTURE_255.png,AREA,5b81d72a3c13750001995473,16/03/1988,2020-08-13_12h45.16.075,proactive2,2020.1.2,Linux x86_64,60,5f341be081b9052c55068110,5f3527b7af13c148b7f897dd,6,,,,,,shovel,,,,,,0,28,28,22,1,3,0,,,,,,,,,,,,,,,,,,,,,,,,,,,,,,,,,,,,,,,,,,,,,,,,,,,,,,,,,,,,,,,,,,,,,,,,,,,,,,,,,,,,,,,,,,,,,,,,,,,
,,,,,,,,,,stimuli/images/PICTURE_667.png,PLENTY,5b81d72a3c13750001995473,16/03/1988,2020-08-13_12h45.16.075,proactive2,2020.1.2,Linux x86_64,60,5f341be081b9052c55068110,5f3527b7af13c148b7f897dd,6,,,,,,daisy,,,,,,0,29,29,41,1,5,0,,,,,,,,,,,,,,,,,,,,,,,,,,,,,,,,,,,,,,,,,,,,,,,,,,,,,,,,,,,,,,,,,,,,,,,,,,,,,,,,,,,,,,,,,,,,,,,,,,,
,,,,,,,,,,stimuli/images/PICTURE_208.png,LOTS,5b81d72a3c13750001995473,16/03/1988,2020-08-13_12h45.16.075,proactive2,2020.1.2,Linux x86_64,60,5f341be081b9052c55068110,5f3527b7af13c148b7f897dd,6,,,,,,microphone,,,,,,0,30,30,10,1,2,0,,,,,,,,,,,,,,,,,,,,,,,,,,,,,,,,,,,,,,,,,,,,,,,,,,,,,,,,,,,,,,,,,,,,,,,,,,,,,,,,,,,,,,,,,,,,,,,,,,,
,,,,,,,,,,stimuli/images/PICTURE_469.png,ARTIST,5b81d72a3c13750001995473,16/03/1988,2020-08-13_12h45.16.075,proactive2,2020.1.2,Linux x86_64,60,5f341be081b9052c55068110,5f3527b7af13c148b7f897dd,6,,,,,,stool,,,,,,0,31,31,6,1,1,0,,,,,,,,,,,,,,,,,,,,,,,,,,,,,,,,,,,,,,,,,,,,,,,,,,,,,,,,,,,,,,,,,,,,,,,,,,,,,,,,,,,,,,,,,,,,,,,,,,,
,,,,,,,,,,stimuli/images/PICTURE_233.png,IDEAS,5b81d72a3c13750001995473,16/03/1988,2020-08-13_12h45.16.075,proactive2,2020.1.2,Linux x86_64,60,5f341be081b9052c55068110,5f3527b7af13c148b7f897dd,6,,,,,,salt,,,,,,0,32,32,28,1,3,0,,,,,,,,,,,,,,,,,,,,,,,,,,,,,,,,,,,,,,,,,,,,,,,,,,,,,,,,,,,,,,,,,,,,,,,,,,,,,,,,,,,,,,,,,,,,,,,,,,,
,,,,,,,,,,stimuli/images/PICTURE_68.png,MILE,5b81d72a3c13750001995473,16/03/1988,2020-08-13_12h45.16.075,proactive2,2020.1.2,Linux x86_64,60,5f341be081b9052c55068110,5f3527b7af13c148b7f897dd,6,,,,,,candle,,,,,,0,33,33,44,1,5,0,,,,,,,,,,,,,,,,,,,,,,,,,,,,,,,,,,,,,,,,,,,,,,,,,,,,,,,,,,,,,,,,,,,,,,,,,,,,,,,,,,,,,,,,,,,,,,,,,,,
,,,,,,,,,,stimuli/images/PICTURE_123.png,ADVICE,5b81d72a3c13750001995473,16/03/1988,2020-08-13_12h45.16.075,proactive2,2020.1.2,Linux x86_64,60,5f341be081b9052c55068110,5f3527b7af13c148b7f897dd,6,,,,,,dart,,,,,,0,34,34,40,1,5,0,,,,,,,,,,,,,,,,,,,,,,,,,,,,,,,,,,,,,,,,,,,,,,,,,,,,,,,,,,,,,,,,,,,,,,,,,,,,,,,,,,,,,,,,,,,,,,,,,,,
,,,,,,,,,,stimuli/images/PICTURE_380.png,PHOTO,5b81d72a3c13750001995473,16/03/1988,2020-08-13_12h45.16.075,proactive2,2020.1.2,Linux x86_64,60,5f341be081b9052c55068110,5f3527b7af13c148b7f897dd,6,,,,,,gorilla,,,,,,0,35,35,52,1,6,0,,,,,,,,,,,,,,,,,,,,,,,,,,,,,,,,,,,,,,,,,,,,,,,,,,,,,,,,,,,,,,,,,,,,,,,,,,,,,,,,,,,,,,,,,,,,,,,,,,,
,,,,,,,,,,stimuli/images/PICTURE_233.png,WOMEN,5b81d72a3c13750001995473,16/03/1988,2020-08-13_12h45.16.075,proactive2,2020.1.2,Linux x86_64,60,5f341be081b9052c55068110,5f3527b7af13c148b7f897dd,6,,,,,,salt,,,,,,0,36,36,38,1,4,0,,,,,,,,,,,,,,,,,,,,,,,,,,,,,,,,,,,,,,,,,,,,,,,,,,,,,,,,,,,,,,,,,,,,,,,,,,,,,,,,,,,,,,,,,,,,,,,,,,,
,,,,,,,,,,stimuli/images/PICTURE_654.png,VALLEY,5b81d72a3c13750001995473,16/03/1988,2020-08-13_12h45.16.075,proactive2,2020.1.2,Linux x86_64,60,5f341be081b9052c55068110,5f3527b7af13c148b7f897dd,6,,,,,,pencil,,,,,,0,37,37,1,1,1,0,,,,,,,,,,,,,,,,,,,,,,,,,,,,,,,,,,,,,,,,,,,,,,,,,,,,,,,,,,,,,,,,,,,,,,,,,,,,,,,,,,,,,,,,,,,,,,,,,,,
,,,,,,,,,,stimuli/images/PICTURE_308.png,ESTATE,5b81d72a3c13750001995473,16/03/1988,2020-08-13_12h45.16.075,proactive2,2020.1.2,Linux x86_64,60,5f341be081b9052c55068110,5f3527b7af13c148b7f897dd,6,,,,,,dice,,,,,,0,38,38,46,1,5,0,,,,,,,,,,,,,,,,,,,,,,,,,,,,,,,,,,,,,,,,,,,,,,,,,,,,,,,,,,,,,,,,,,,,,,,,,,,,,,,,,,,,,,,,,,,,,,,,,,,
,,,,,,,,,,stimuli/images/PICTURE_667.png,BATH,5b81d72a3c13750001995473,16/03/1988,2020-08-13_12h45.16.075,proactive2,2020.1.2,Linux x86_64,60,5f341be081b9052c55068110,5f3527b7af13c148b7f897dd,6,,,,,,daisy,,,,,,0,39,39,4,1,1,0,,,,,,,,,,,,,,,,,,,,,,,,,,,,,,,,,,,,,,,,,,,,,,,,,,,,,,,,,,,,,,,,,,,,,,,,,,,,,,,,,,,,,,,,,,,,,,,,,,,
,,,,,,,,,,stimuli/images/PICTURE_308.png,KIND,5b81d72a3c13750001995473,16/03/1988,2020-08-13_12h45.16.075,proactive2,2020.1.2,Linux x86_64,60,5f341be081b9052c55068110,5f3527b7af13c148b7f897dd,6,,,,,,dice,,,,,,0,40,40,54,1,6,0,,,,,,,,,,,,,,,,,,,,,,,,,,,,,,,,,,,,,,,,,,,,,,,,,,,,,,,,,,,,,,,,,,,,,,,,,,,,,,,,,,,,,,,,,,,,,,,,,,,
,,,,,,,,,,stimuli/images/PICTURE_708.png,YARD,5b81d72a3c13750001995473,16/03/1988,2020-08-13_12h45.16.075,proactive2,2020.1.2,Linux x86_64,60,5f341be081b9052c55068110,5f3527b7af13c148b7f897dd,6,,,,,,monkey,,,,,,0,41,41,29,1,3,0,,,,,,,,,,,,,,,,,,,,,,,,,,,,,,,,,,,,,,,,,,,,,,,,,,,,,,,,,,,,,,,,,,,,,,,,,,,,,,,,,,,,,,,,,,,,,,,,,,,
,,,,,,,,,,stimuli/images/PICTURE_491.png,ROOF,5b81d72a3c13750001995473,16/03/1988,2020-08-13_12h45.16.075,proactive2,2020.1.2,Linux x86_64,60,5f341be081b9052c55068110,5f3527b7af13c148b7f897dd,6,,,,,,rug,,,,,,0,42,42,24,1,3,0,,,,,,,,,,,,,,,,,,,,,,,,,,,,,,,,,,,,,,,,,,,,,,,,,,,,,,,,,,,,,,,,,,,,,,,,,,,,,,,,,,,,,,,,,,,,,,,,,,,
,,,,,,,,,,stimuli/images/PICTURE_327.png,BEAUTY,5b81d72a3c13750001995473,16/03/1988,2020-08-13_12h45.16.075,proactive2,2020.1.2,Linux x86_64,60,5f341be081b9052c55068110,5f3527b7af13c148b7f897dd,6,,,,,,helmet,,,,,,0,43,43,48,1,5,0,,,,,,,,,,,,,,,,,,,,,,,,,,,,,,,,,,,,,,,,,,,,,,,,,,,,,,,,,,,,,,,,,,,,,,,,,,,,,,,,,,,,,,,,,,,,,,,,,,,
,,,,,,,,,,stimuli/images/PICTURE_285.png,ADVICE,5b81d72a3c13750001995473,16/03/1988,2020-08-13_12h45.16.075,proactive2,2020.1.2,Linux x86_64,60,5f341be081b9052c55068110,5f3527b7af13c148b7f897dd,6,,,,,,carrot,,,,,,0,44,44,12,1,2,0,,,,,,,,,,,,,,,,,,,,,,,,,,,,,,,,,,,,,,,,,,,,,,,,,,,,,,,,,,,,,,,,,,,,,,,,,,,,,,,,,,,,,,,,,,,,,,,,,,,
,,,,,,,,,,stimuli/images/PICTURE_147.png,MOMENT,5b81d72a3c13750001995473,16/03/1988,2020-08-13_12h45.16.075,proactive2,2020.1.2,Linux x86_64,60,5f341be081b9052c55068110,5f3527b7af13c148b7f897dd,6,,,,,,hanger,,,,,,0,45,45,51,1,6,0,,,,,,,,,,,,,,,,,,,,,,,,,,,,,,,,,,,,,,,,,,,,,,,,,,,,,,,,,,,,,,,,,,,,,,,,,,,,,,,,,,,,,,,,,,,,,,,,,,,
,,,,,,,,,,stimuli/images/PICTURE_314.png,SAKE,5b81d72a3c13750001995473,16/03/1988,2020-08-13_12h45.16.075,proactive2,2020.1.2,Linux x86_64,60,5f341be081b9052c55068110,5f3527b7af13c148b7f897dd,6,,,,,,perfume,,,,,,0,46,46,7,1,1,0,,,,,,,,,,,,,,,,,,,,,,,,,,,,,,,,,,,,,,,,,,,,,,,,,,,,,,,,,,,,,,,,,,,,,,,,,,,,,,,,,,,,,,,,,,,,,,,,,,,
,,,,,,,,,,stimuli/images/PICTURE_356.png,DANGER,5b81d72a3c13750001995473,16/03/1988,2020-08-13_12h45.16.075,proactive2,2020.1.2,Linux x86_64,60,5f341be081b9052c55068110,5f3527b7af13c148b7f897dd,6,,,,,,pawn,,,,,,0,47,47,55,1,6,0,,,,,,,,,,,,,,,,,,,,,,,,,,,,,,,,,,,,,,,,,,,,,,,,,,,,,,,,,,,,,,,,,,,,,,,,,,,,,,,,,,,,,,,,,,,,,,,,,,,
,,,,,,,,,,stimuli/images/PICTURE_160.png,FEET,5b81d72a3c13750001995473,16/03/1988,2020-08-13_12h45.16.075,proactive2,2020.1.2,Linux x86_64,60,5f341be081b9052c55068110,5f3527b7af13c148b7f897dd,6,,,,,,wheelbarrow,,,,,,0,48,48,58,1,6,0,,,,,,,,,,,,,,,,,,,,,,,,,,,,,,,,,,,,,,,,,,,,,,,,,,,,,,,,,,,,,,,,,,,,,,,,,,,,,,,,,,,,,,,,,,,,,,,,,,,
,,,,,,,,,,stimuli/images/PICTURE_688.png,CASINO,5b81d72a3c13750001995473,16/03/1988,2020-08-13_12h45.16.075,proactive2,2020.1.2,Linux x86_64,60,5f341be081b9052c55068110,5f3527b7af13c148b7f897dd,6,,,,,,runner,,,,,,0,49,49,2,1,1,0,,,,,,,,,,,,,,,,,,,,,,,,,,,,,,,,,,,,,,,,,,,,,,,,,,,,,,,,,,,,,,,,,,,,,,,,,,,,,,,,,,,,,,,,,,,,,,,,,,,
,,,,,,,,,,stimuli/images/PICTURE_95.png,STYLE,5b81d72a3c13750001995473,16/03/1988,2020-08-13_12h45.16.075,proactive2,2020.1.2,Linux x86_64,60,5f341be081b9052c55068110,5f3527b7af13c148b7f897dd,6,,,,,,suitcase,,,,,,0,50,50,25,1,3,0,,,,,,,,,,,,,,,,,,,,,,,,,,,,,,,,,,,,,,,,,,,,,,,,,,,,,,,,,,,,,,,,,,,,,,,,,,,,,,,,,,,,,,,,,,,,,,,,,,,
,,,,,,,,,,stimuli/images/PICTURE_469.png,LETTER,5b81d72a3c13750001995473,16/03/1988,2020-08-13_12h45.16.075,proactive2,2020.1.2,Linux x86_64,60,5f341be081b9052c55068110,5f3527b7af13c148b7f897dd,6,,,,,,stool,,,,,,0,51,51,42,1,5,0,,,,,,,,,,,,,,,,,,,,,,,,,,,,,,,,,,,,,,,,,,,,,,,,,,,,,,,,,,,,,,,,,,,,,,,,,,,,,,,,,,,,,,,,,,,,,,,,,,,
,,,,,,,,,,stimuli/images/PICTURE_302.png,FAMILY,5b81d72a3c13750001995473,16/03/1988,2020-08-13_12h45.16.075,proactive2,2020.1.2,Linux x86_64,60,5f341be081b9052c55068110,5f3527b7af13c148b7f897dd,6,,,,,,taxi,,,,,,0,52,52,18,1,2,0,,,,,,,,,,,,,,,,,,,,,,,,,,,,,,,,,,,,,,,,,,,,,,,,,,,,,,,,,,,,,,,,,,,,,,,,,,,,,,,,,,,,,,,,,,,,,,,,,,,
,,,,,,,,,,stimuli/images/PICTURE_314.png,GODS,5b81d72a3c13750001995473,16/03/1988,2020-08-13_12h45.16.075,proactive2,2020.1.2,Linux x86_64,60,5f341be081b9052c55068110,5f3527b7af13c148b7f897dd,6,,,,,,perfume,,,,,,0,53,53,11,1,2,0,,,,,,,,,,,,,,,,,,,,,,,,,,,,,,,,,,,,,,,,,,,,,,,,,,,,,,,,,,,,,,,,,,,,,,,,,,,,,,,,,,,,,,,,,,,,,,,,,,,
,,,,,,,,,,stimuli/images/PICTURE_692.png,MONTH,5b81d72a3c13750001995473,16/03/1988,2020-08-13_12h45.16.075,proactive2,2020.1.2,Linux x86_64,60,5f341be081b9052c55068110,5f3527b7af13c148b7f897dd,6,,,,,,cherry,,,,,,0,54,54,16,1,2,0,,,,,,,,,,,,,,,,,,,,,,,,,,,,,,,,,,,,,,,,,,,,,,,,,,,,,,,,,,,,,,,,,,,,,,,,,,,,,,,,,,,,,,,,,,,,,,,,,,,
,,,,,,,,,,stimuli/images/PICTURE_491.png,WRITER,5b81d72a3c13750001995473,16/03/1988,2020-08-13_12h45.16.075,proactive2,2020.1.2,Linux x86_64,60,5f341be081b9052c55068110,5f3527b7af13c148b7f897dd,6,,,,,,rug,,,,,,0,55,55,57,1,6,0,,,,,,,,,,,,,,,,,,,,,,,,,,,,,,,,,,,,,,,,,,,,,,,,,,,,,,,,,,,,,,,,,,,,,,,,,,,,,,,,,,,,,,,,,,,,,,,,,,,
,,,,,,,,,,stimuli/images/PICTURE_215.png,PLENTY,5b81d72a3c13750001995473,16/03/1988,2020-08-13_12h45.16.075,proactive2,2020.1.2,Linux x86_64,60,5f341be081b9052c55068110,5f3527b7af13c148b7f897dd,6,,,,,,boot,,,,,,0,56,56,37,1,4,0,,,,,,,,,,,,,,,,,,,,,,,,,,,,,,,,,,,,,,,,,,,,,,,,,,,,,,,,,,,,,,,,,,,,,,,,,,,,,,,,,,,,,,,,,,,,,,,,,,,
,,,,,,,,,,stimuli/images/PICTURE_85.png,THING,5b81d72a3c13750001995473,16/03/1988,2020-08-13_12h45.16.075,proactive2,2020.1.2,Linux x86_64,60,5f341be081b9052c55068110,5f3527b7af13c148b7f897dd,6,,,,,,diamond,,,,,,0,57,57,15,1,2,0,,,,,,,,,,,,,,,,,,,,,,,,,,,,,,,,,,,,,,,,,,,,,,,,,,,,,,,,,,,,,,,,,,,,,,,,,,,,,,,,,,,,,,,,,,,,,,,,,,,
,,,,,,,,,,stimuli/images/PICTURE_675.png,WEAPON,5b81d72a3c13750001995473,16/03/1988,2020-08-13_12h45.16.075,proactive2,2020.1.2,Linux x86_64,60,5f341be081b9052c55068110,5f3527b7af13c148b7f897dd,6,,,,,,windmill,,,,,,0,58,58,32,1,4,0,,,,,,,,,,,,,,,,,,,,,,,,,,,,,,,,,,,,,,,,,,,,,,,,,,,,,,,,,,,,,,,,,,,,,,,,,,,,,,,,,,,,,,,,,,,,,,,,,,,
,,?,0.001555,0,,,,,,stimuli/images/PICTURE_453.png,DUDE,5b81d72a3c13750001995473,16/03/1988,2020-08-13_12h45.16.075,proactive2,2020.1.2,Linux x86_64,60,5f341be081b9052c55068110,5f3527b7af13c148b7f897dd,6,,,,,,scissors,,,,,,,,,,,3,0,0,0,0,27,1,,,,,,,,,,,,,,,,,,,,,,,,,,,,,,,,,,,,,,,,,,,,,,,,,,,,,,,,,,,,,,,,,,,,,,,,,,,,,,,,,,,,,,,,,,,,,,
,,?,0.003835,0,,,,,,stimuli/images/PICTURE_311.png,FRIEND,5b81d72a3c13750001995473,16/03/1988,2020-08-13_12h45.16.075,proactive2,2020.1.2,Linux x86_64,60,5f341be081b9052c55068110,5f3527b7af13c148b7f897dd,6,,,,,,razor,,,,,,,,,,,4,0,0,1,1,34,1,,,,,,,,,,,,,,,,,,,,,,,,,,,,,,,,,,,,,,,,,,,,,,,,,,,,,,,,,,,,,,,,,,,,,,,,,,,,,,,,,,,,,,,,,,,,,,
,,?,0.001115,0,,,,,,stimuli/images/PICTURE_215.png,PLENTY,5b81d72a3c13750001995473,16/03/1988,2020-08-13_12h45.16.075,proactive2,2020.1.2,Linux x86_64,60,5f341be081b9052c55068110,5f3527b7af13c148b7f897dd,6,,,,,,boot,,,,,,,,,,,4,0,0,2,2,37,1,,,,,,,,,,,,,,,,,,,,,,,,,,,,,,,,,,,,,,,,,,,,,,,,,,,,,,,,,,,,,,,,,,,,,,,,,,,,,,,,,,,,,,,,,,,,,,
,,?,0.001325,0,,,,,,stimuli/images/PICTURE_469.png,ARTIST,5b81d72a3c13750001995473,16/03/1988,2020-08-13_12h45.16.075,proactive2,2020.1.2,Linux x86_64,60,5f341be081b9052c55068110,5f3527b7af13c148b7f897dd,6,,,,,,stool,,,,,,,,,,,1,0,0,3,3,6,1,,,,,,,,,,,,,,,,,,,,,,,,,,,,,,,,,,,,,,,,,,,,,,,,,,,,,,,,,,,,,,,,,,,,,,,,,,,,,,,,,,,,,,,,,,,,,,
,,?,0.00132,0,,,,,,stimuli/images/PICTURE_95.png,STYLE,5b81d72a3c13750001995473,16/03/1988,2020-08-13_12h45.16.075,proactive2,2020.1.2,Linux x86_64,60,5f341be081b9052c55068110,5f3527b7af13c148b7f897dd,6,,,,,,suitcase,,,,,,,,,,,3,0,0,4,4,25,1,,,,,,,,,,,,,,,,,,,,,,,,,,,,,,,,,,,,,,,,,,,,,,,,,,,,,,,,,,,,,,,,,,,,,,,,,,,,,,,,,,,,,,,,,,,,,,
,,PLENTY,2.47106,1,,,,,,stimuli/images/PICTURE_453.png,PLENTY,5b81d72a3c13750001995473,16/03/1988,2020-08-13_12h45.16.075,proactive2,2020.1.2,Linux x86_64,60,5f341be081b9052c55068110,5f3527b7af13c148b7f897dd,6,,,,,,scissors,,,,,,,,,,,6,0,0,5,5,56,1,,,,,,,,,,,,,,,,,,,,,,,,,,,,,,,,,,,,,,,,,,,,,,,,,,,,,,,,,,,,,,,,,,,,,,,,,,,,,,,,,,,,,,,,,,,,,,
,,KIND,2.03803,1,,,,,,stimuli/images/PICTURE_308.png,KIND,5b81d72a3c13750001995473,16/03/1988,2020-08-13_12h45.16.075,proactive2,2020.1.2,Linux x86_64,60,5f341be081b9052c55068110,5f3527b7af13c148b7f897dd,6,,,,,,dice,,,,,,,,,,,6,0,0,6,6,54,1,,,,,,,,,,,,,,,,,,,,,,,,,,,,,,,,,,,,,,,,,,,,,,,,,,,,,,,,,,,,,,,,,,,,,,,,,,,,,,,,,,,,,,,,,,,,,,
,,?,0.00129,0,,,,,,stimuli/images/PICTURE_255.png,AREA,5b81d72a3c13750001995473,16/03/1988,2020-08-13_12h45.16.075,proactive2,2020.1.2,Linux x86_64,60,5f341be081b9052c55068110,5f3527b7af13c148b7f897dd,6,,,,,,shovel,,,,,,,,,,,3,0,0,7,7,22,1,,,,,,,,,,,,,,,,,,,,,,,,,,,,,,,,,,,,,,,,,,,,,,,,,,,,,,,,,,,,,,,,,,,,,,,,,,,,,,,,,,,,,,,,,,,,,,
,,?,0.00072,0,,,,,,stimuli/images/PICTURE_285.png,ADVICE,5b81d72a3c13750001995473,16/03/1988,2020-08-13_12h45.16.075,proactive2,2020.1.2,Linux x86_64,60,5f341be081b9052c55068110,5f3527b7af13c148b7f897dd,6,,,,,,carrot,,,,,,,,,,,2,0,0,8,8,12,1,,,,,,,,,,,,,,,,,,,,,,,,,,,,,,,,,,,,,,,,,,,,,,,,,,,,,,,,,,,,,,,,,,,,,,,,,,,,,,,,,,,,,,,,,,,,,,
,,?,0.00065,0,,,,,,stimuli/images/PICTURE_488.png,STYLE,5b81d72a3c13750001995473,16/03/1988,2020-08-13_12h45.16.075,proactive2,2020.1.2,Linux x86_64,60,5f341be081b9052c55068110,5f3527b7af13c148b7f897dd,6,,,,,,sun,,,,,,,,,,,4,0,0,9,9,33,1,,,,,,,,,,,,,,,,,,,,,,,,,,,,,,,,,,,,,,,,,,,,,,,,,,,,,,,,,,,,,,,,,,,,,,,,,,,,,,,,,,,,,,,,,,,,,,
,,?,0.0007,0,,,,,,stimuli/images/PICTURE_509.png,PHOTO,5b81d72a3c13750001995473,16/03/1988,2020-08-13_12h45.16.075,proactive2,2020.1.2,Linux x86_64,60,5f341be081b9052c55068110,5f3527b7af13c148b7f897dd,6,,,,,,telephone,,,,,,,,,,,3,0,0,10,10,21,1,,,,,,,,,,,,,,,,,,,,,,,,,,,,,,,,,,,,,,,,,,,,,,,,,,,,,,,,,,,,,,,,,,,,,,,,,,,,,,,,,,,,,,,,,,,,,,
,,?,0.000655,0,,,,,,stimuli/images/PICTURE_203.png,ARTIST,5b81d72a3c13750001995473,16/03/1988,2020-08-13_12h45.16.075,proactive2,2020.1.2,Linux x86_64,60,5f341be081b9052c55068110,5f3527b7af13c148b7f897dd,6,,,,,,cap,,,,,,,,,,,3,0,0,11,11,26,1,,,,,,,,,,,,,,,,,,,,,,,,,,,,,,,,,,,,,,,,,,,,,,,,,,,,,,,,,,,,,,,,,,,,,,,,,,,,,,,,,,,,,,,,,,,,,,
,,FEET,1.75882,1,,,,,,stimuli/images/PICTURE_160.png,FEET,5b81d72a3c13750001995473,16/03/1988,2020-08-13_12h45.16.075,proactive2,2020.1.2,Linux x86_64,60,5f341be081b9052c55068110,5f3527b7af13c148b7f897dd,6,,,,,,wheelbarrow,,,,,,,,,,,6,0,0,12,12,58,1,,,,,,,,,,,,,,,,,,,,,,,,,,,,,,,,,,,,,,,,,,,,,,,,,,,,,,,,,,,,,,,,,,,,,,,,,,,,,,,,,,,,,,,,,,,,,,
,,?,0.001045,0,,,,,,stimuli/images/PICTURE_467.png,DEMON,5b81d72a3c13750001995473,16/03/1988,2020-08-13_12h45.16.075,proactive2,2020.1.2,Linux x86_64,60,5f341be081b9052c55068110,5f3527b7af13c148b7f897dd,6,,,,,,peg,,,,,,,,,,,3,0,0,13,13,23,1,,,,,,,,,,,,,,,,,,,,,,,,,,,,,,,,,,,,,,,,,,,,,,,,,,,,,,,,,,,,,,,,,,,,,,,,,,,,,,,,,,,,,,,,,,,,,,
,,?,0.000585,0,,,,,,stimuli/images/PICTURE_302.png,FAMILY,5b81d72a3c13750001995473,16/03/1988,2020-08-13_12h45.16.075,proactive2,2020.1.2,Linux x86_64,60,5f341be081b9052c55068110,5f3527b7af13c148b7f897dd,6,,,,,,taxi,,,,,,,,,,,2,0,0,14,14,18,1,,,,,,,,,,,,,,,,,,,,,,,,,,,,,,,,,,,,,,,,,,,,,,,,,,,,,,,,,,,,,,,,,,,,,,,,,,,,,,,,,,,,,,,,,,,,,,
,,?,0.000675,0,,,,,,stimuli/images/PICTURE_123.png,ADVICE,5b81d72a3c13750001995473,16/03/1988,2020-08-13_12h45.16.075,proactive2,2020.1.2,Linux x86_64,60,5f341be081b9052c55068110,5f3527b7af13c148b7f897dd,6,,,,,,dart,,,,,,,,,,,5,0,0,15,15,40,1,,,,,,,,,,,,,,,,,,,,,,,,,,,,,,,,,,,,,,,,,,,,,,,,,,,,,,,,,,,,,,,,,,,,,,,,,,,,,,,,,,,,,,,,,,,,,,
,,MOMENT,1.70637,1,,,,,,stimuli/images/PICTURE_147.png,MOMENT,5b81d72a3c13750001995473,16/03/1988,2020-08-13_12h45.16.075,proactive2,2020.1.2,Linux x86_64,60,5f341be081b9052c55068110,5f3527b7af13c148b7f897dd,6,,,,,,hanger,,,,,,,,,,,6,0,0,16,16,51,1,,,,,,,,,,,,,,,,,,,,,,,,,,,,,,,,,,,,,,,,,,,,,,,,,,,,,,,,,,,,,,,,,,,,,,,,,,,,,,,,,,,,,,,,,,,,,,
,,MONTH,2.685825,1,,,,,,stimuli/images/PICTURE_208.png,MONTH,5b81d72a3c13750001995473,16/03/1988,2020-08-13_12h45.16.075,proactive2,2020.1.2,Linux x86_64,60,5f341be081b9052c55068110,5f3527b7af13c148b7f897dd,6,,,,,,microphone,,,,,,,,,,,6,0,0,17,17,53,1,,,,,,,,,,,,,,,,,,,,,,,,,,,,,,,,,,,,,,,,,,,,,,,,,,,,,,,,,,,,,,,,,,,,,,,,,,,,,,,,,,,,,,,,,,,,,,
,,?,0.00135,0,,,,,,stimuli/images/PICTURE_348.png,SPEECH,5b81d72a3c13750001995473,16/03/1988,2020-08-13_12h45.16.075,proactive2,2020.1.2,Linux x86_64,60,5f341be081b9052c55068110,5f3527b7af13c148b7f897dd,6,,,,,,pepper,,,,,,,,,,,3,0,0,18,18,20,1,,,,,,,,,,,,,,,,,,,,,,,,,,,,,,,,,,,,,,,,,,,,,,,,,,,,,,,,,,,,,,,,,,,,,,,,,,,,,,,,,,,,,,,,,,,,,,
,,?,0.00078,0,,,,,,stimuli/images/PICTURE_314.png,SAKE,5b81d72a3c13750001995473,16/03/1988,2020-08-13_12h45.16.075,proactive2,2020.1.2,Linux x86_64,60,5f341be081b9052c55068110,5f3527b7af13c148b7f897dd,6,,,,,,perfume,,,,,,,,,,,1,0,0,19,19,7,1,,,,,,,,,,,,,,,,,,,,,,,,,,,,,,,,,,,,,,,,,,,,,,,,,,,,,,,,,,,,,,,,,,,,,,,,,,,,,,,,,,,,,,,,,,,,,,
,,?,0.000875,0,,,,,,stimuli/images/PICTURE_470.png,CASINO,5b81d72a3c13750001995473,16/03/1988,2020-08-13_12h45.16.075,proactive2,2020.1.2,Linux x86_64,60,5f341be081b9052c55068110,5f3527b7af13c148b7f897dd,6,,,,,,motorbike,,,,,,,,,,,4,0,0,20,20,36,1,,,,,,,,,,,,,,,,,,,,,,,,,,,,,,,,,,,,,,,,,,,,,,,,,,,,,,,,,,,,,,,,,,,,,,,,,,,,,,,,,,,,,,,,,,,,,,
,,?,0.00102,0,,,,,,stimuli/images/PICTURE_487.png,FLIGHT,5b81d72a3c13750001995473,16/03/1988,2020-08-13_12h45.16.075,proactive2,2020.1.2,Linux x86_64,60,5f341be081b9052c55068110,5f3527b7af13c148b7f897dd,6,,,,,,basket,,,,,,,,,,,1,0,0,21,21,9,1,,,,,,,,,,,,,,,,,,,,,,,,,,,,,,,,,,,,,,,,,,,,,,,,,,,,,,,,,,,,,,,,,,,,,,,,,,,,,,,,,,,,,,,,,,,,,,
,,?,0.000725,0,,,,,,stimuli/images/PICTURE_248.png,DOZEN,5b81d72a3c13750001995473,16/03/1988,2020-08-13_12h45.16.075,proactive2,2020.1.2,Linux x86_64,60,5f341be081b9052c55068110,5f3527b7af13c148b7f897dd,6,,,,,,cart,,,,,,,,,,,4,0,0,22,22,39,1,,,,,,,,,,,,,,,,,,,,,,,,,,,,,,,,,,,,,,,,,,,,,,,,,,,,,,,,,,,,,,,,,,,,,,,,,,,,,,,,,,,,,,,,,,,,,,
,,?,0.0009,0,,,,,,stimuli/images/PICTURE_688.png,WOMEN,5b81d72a3c13750001995473,16/03/1988,2020-08-13_12h45.16.075,proactive2,2020.1.2,Linux x86_64,60,5f341be081b9052c55068110,5f3527b7af13c148b7f897dd,6,,,,,,runner,,,,,,,,,,,2,0,0,23,23,14,1,,,,,,,,,,,,,,,,,,,,,,,,,,,,,,,,,,,,,,,,,,,,,,,,,,,,,,,,,,,,,,,,,,,,,,,,,,,,,,,,,,,,,,,,,,,,,,
,,?,0.00089,0,,,,,,stimuli/images/PICTURE_688.png,CASINO,5b81d72a3c13750001995473,16/03/1988,2020-08-13_12h45.16.075,proactive2,2020.1.2,Linux x86_64,60,5f341be081b9052c55068110,5f3527b7af13c148b7f897dd,6,,,,,,runner,,,,,,,,,,,1,0,0,24,24,2,1,,,,,,,,,,,,,,,,,,,,,,,,,,,,,,,,,,,,,,,,,,,,,,,,,,,,,,,,,,,,,,,,,,,,,,,,,,,,,,,,,,,,,,,,,,,,,,
,,?,0.000805,0,,,,,,stimuli/images/PICTURE_314.png,GODS,5b81d72a3c13750001995473,16/03/1988,2020-08-13_12h45.16.075,proactive2,2020.1.2,Linux x86_64,60,5f341be081b9052c55068110,5f3527b7af13c148b7f897dd,6,,,,,,perfume,,,,,,,,,,,2,0,0,25,25,11,1,,,,,,,,,,,,,,,,,,,,,,,,,,,,,,,,,,,,,,,,,,,,,,,,,,,,,,,,,,,,,,,,,,,,,,,,,,,,,,,,,,,,,,,,,,,,,,
,,?,0.00066,0,,,,,,stimuli/images/PICTURE_654.png,VALLEY,5b81d72a3c13750001995473,16/03/1988,2020-08-13_12h45.16.075,proactive2,2020.1.2,Linux x86_64,60,5f341be081b9052c55068110,5f3527b7af13c148b7f897dd,6,,,,,,pencil,,,,,,,,,,,1,0,0,26,26,1,1,,,,,,,,,,,,,,,,,,,,,,,,,,,,,,,,,,,,,,,,,,,,,,,,,,,,,,,,,,,,,,,,,,,,,,,,,,,,,,,,,,,,,,,,,,,,,,
,,?,0.00066,0,,,,,,stimuli/images/PICTURE_504.png,BODY,5b81d72a3c13750001995473,16/03/1988,2020-08-13_12h45.16.075,proactive2,2020.1.2,Linux x86_64,60,5f341be081b9052c55068110,5f3527b7af13c148b7f897dd,6,,,,,,wheel,,,,,,,,,,,1,0,0,27,27,8,1,,,,,,,,,,,,,,,,,,,,,,,,,,,,,,,,,,,,,,,,,,,,,,,,,,,,,,,,,,,,,,,,,,,,,,,,,,,,,,,,,,,,,,,,,,,,,,
,,ADVICE,2.11027,1,,,,,,stimuli/images/PICTURE_123.png,ADVICE,5b81d72a3c13750001995473,16/03/1988,2020-08-13_12h45.16.075,proactive2,2020.1.2,Linux x86_64,60,5f341be081b9052c55068110,5f3527b7af13c148b7f897dd,6,,,,,,dart,,,,,,,,,,,6,0,0,28,28,50,1,,,,,,,,,,,,,,,,,,,,,,,,,,,,,,,,,,,,,,,,,,,,,,,,,,,,,,,,,,,,,,,,,,,,,,,,,,,,,,,,,,,,,,,,,,,,,,
,,?,0.000905,0,,,,,,stimuli/images/PICTURE_667.png,BATH,5b81d72a3c13750001995473,16/03/1988,2020-08-13_12h45.16.075,proactive2,2020.1.2,Linux x86_64,60,5f341be081b9052c55068110,5f3527b7af13c148b7f897dd,6,,,,,,daisy,,,,,,,,,,,1,0,0,29,29,4,1,,,,,,,,,,,,,,,,,,,,,,,,,,,,,,,,,,,,,,,,,,,,,,,,,,,,,,,,,,,,,,,,,,,,,,,,,,,,,,,,,,,,,,,,,,,,,,
,,THING,1.508205,1,,,,,,stimuli/images/PICTURE_449.png,THING,5b81d72a3c13750001995473,16/03/1988,2020-08-13_12h45.16.075,proactive2,2020.1.2,Linux x86_64,60,5f341be081b9052c55068110,5f3527b7af13c148b7f897dd,6,,,,,,bench,,,,,,,,,,,6,0,0,30,30,59,1,,,,,,,,,,,,,,,,,,,,,,,,,,,,,,,,,,,,,,,,,,,,,,,,,,,,,,,,,,,,,,,,,,,,,,,,,,,,,,,,,,,,,,,,,,,,,,
,,?,0.00095,0,,,,,,stimuli/images/PICTURE_675.png,WEAPON,5b81d72a3c13750001995473,16/03/1988,2020-08-13_12h45.16.075,proactive2,2020.1.2,Linux x86_64,60,5f341be081b9052c55068110,5f3527b7af13c148b7f897dd,6,,,,,,windmill,,,,,,,,,,,4,0,0,31,31,32,1,,,,,,,,,,,,,,,,,,,,,,,,,,,,,,,,,,,,,,,,,,,,,,,,,,,,,,,,,,,,,,,,,,,,,,,,,,,,,,,,,,,,,,,,,,,,,,
,,?,0.000725,0,,,,,,stimuli/images/PICTURE_208.png,LOTS,5b81d72a3c13750001995473,16/03/1988,2020-08-13_12h45.16.075,proactive2,2020.1.2,Linux x86_64,60,5f341be081b9052c55068110,5f3527b7af13c148b7f897dd,6,,,,,,microphone,,,,,,,,,,,2,0,0,32,32,10,1,,,,,,,,,,,,,,,,,,,,,,,,,,,,,,,,,,,,,,,,,,,,,,,,,,,,,,,,,,,,,,,,,,,,,,,,,,,,,,,,,,,,,,,,,,,,,,
,,?,0.00071,0,,,,,,stimuli/images/PICTURE_233.png,IDEAS,5b81d72a3c13750001995473,16/03/1988,2020-08-13_12h45.16.075,proactive2,2020.1.2,Linux x86_64,60,5f341be081b9052c55068110,5f3527b7af13c148b7f897dd,6,,,,,,salt,,,,,,,,,,,3,0,0,33,33,28,1,,,,,,,,,,,,,,,,,,,,,,,,,,,,,,,,,,,,,,,,,,,,,,,,,,,,,,,,,,,,,,,,,,,,,,,,,,,,,,,,,,,,,,,,,,,,,,
,,DANGER,1.555975,1,,,,,,stimuli/images/PICTURE_356.png,DANGER,5b81d72a3c13750001995473,16/03/1988,2020-08-13_12h45.16.075,proactive2,2020.1.2,Linux x86_64,60,5f341be081b9052c55068110,5f3527b7af13c148b7f897dd,6,,,,,,pawn,,,,,,,,,,,6,0,0,34,34,55,1,,,,,,,,,,,,,,,,,,,,,,,,,,,,,,,,,,,,,,,,,,,,,,,,,,,,,,,,,,,,,,,,,,,,,,,,,,,,,,,,,,,,,,,,,,,,,,
,,?,0.00106,0,,,,,,stimuli/images/PICTURE_744.png,SAKE,5b81d72a3c13750001995473,16/03/1988,2020-08-13_12h45.16.075,proactive2,2020.1.2,Linux x86_64,60,5f341be081b9052c55068110,5f3527b7af13c148b7f897dd,6,,,,,,ring,,,,,,,,,,,2,0,0,35,35,17,1,,,,,,,,,,,,,,,,,,,,,,,,,,,,,,,,,,,,,,,,,,,,,,,,,,,,,,,,,,,,,,,,,,,,,,,,,,,,,,,,,,,,,,,,,,,,,,
,,?,0.00078,0,,,,,,stimuli/images/PICTURE_677.png,MILE,5b81d72a3c13750001995473,16/03/1988,2020-08-13_12h45.16.075,proactive2,2020.1.2,Linux x86_64,60,5f341be081b9052c55068110,5f3527b7af13c148b7f897dd,6,,,,,,map,,,,,,,,,,,4,0,0,36,36,30,1,,,,,,,,,,,,,,,,,,,,,,,,,,,,,,,,,,,,,,,,,,,,,,,,,,,,,,,,,,,,,,,,,,,,,,,,,,,,,,,,,,,,,,,,,,,,,,
,,?,0.000775,0,,,,,,stimuli/images/PICTURE_32.png,JUNGLE,5b81d72a3c13750001995473,16/03/1988,2020-08-13_12h45.16.075,proactive2,2020.1.2,Linux x86_64,60,5f341be081b9052c55068110,5f3527b7af13c148b7f897dd,6,,,,,,crown,,,,,,,,,,,5,0,0,37,37,45,1,,,,,,,,,,,,,,,,,,,,,,,,,,,,,,,,,,,,,,,,,,,,,,,,,,,,,,,,,,,,,,,,,,,,,,,,,,,,,,,,,,,,,,,,,,,,,,
,,?,0.00088,0,,,,,,stimuli/images/PICTURE_85.png,THING,5b81d72a3c13750001995473,16/03/1988,2020-08-13_12h45.16.075,proactive2,2020.1.2,Linux x86_64,60,5f341be081b9052c55068110,5f3527b7af13c148b7f897dd,6,,,,,,diamond,,,,,,,,,,,2,0,0,38,38,15,1,,,,,,,,,,,,,,,,,,,,,,,,,,,,,,,,,,,,,,,,,,,,,,,,,,,,,,,,,,,,,,,,,,,,,,,,,,,,,,,,,,,,,,,,,,,,,,
,,?,0.000705,0,,,,,,stimuli/images/PICTURE_708.png,PENNY,5b81d72a3c13750001995473,16/03/1988,2020-08-13_12h45.16.075,proactive2,2020.1.2,Linux x86_64,60,5f341be081b9052c55068110,5f3527b7af13c148b7f897dd,6,,,,,,monkey,,,,,,,,,,,4,0,0,39,39,31,1,,,,,,,,,,,,,,,,,,,,,,,,,,,,,,,,,,,,,,,,,,,,,,,,,,,,,,,,,,,,,,,,,,,,,,,,,,,,,,,,,,,,,,,,,,,,,,
,,?,0.00067,0,,,,,,stimuli/images/PICTURE_160.png,LEADER,5b81d72a3c13750001995473,16/03/1988,2020-08-13_12h45.16.075,proactive2,2020.1.2,Linux x86_64,60,5f341be081b9052c55068110,5f3527b7af13c148b7f897dd,6,,,,,,wheelbarrow,,,,,,,,,,,1,0,0,40,40,3,1,,,,,,,,,,,,,,,,,,,,,,,,,,,,,,,,,,,,,,,,,,,,,,,,,,,,,,,,,,,,,,,,,,,,,,,,,,,,,,,,,,,,,,,,,,,,,,
,,?,0.000755,0,,,,,,stimuli/images/PICTURE_233.png,WOMEN,5b81d72a3c13750001995473,16/03/1988,2020-08-13_12h45.16.075,proactive2,2020.1.2,Linux x86_64,60,5f341be081b9052c55068110,5f3527b7af13c148b7f897dd,6,,,,,,salt,,,,,,,,,,,4,0,0,41,41,38,1,,,,,,,,,,,,,,,,,,,,,,,,,,,,,,,,,,,,,,,,,,,,,,,,,,,,,,,,,,,,,,,,,,,,,,,,,,,,,,,,,,,,,,,,,,,,,,
,,?,0.000955,0,,,,,,stimuli/images/PICTURE_327.png,BEAUTY,5b81d72a3c13750001995473,16/03/1988,2020-08-13_12h45.16.075,proactive2,2020.1.2,Linux x86_64,60,5f341be081b9052c55068110,5f3527b7af13c148b7f897dd,6,,,,,,helmet,,,,,,,,,,,5,0,0,42,42,48,1,,,,,,,,,,,,,,,,,,,,,,,,,,,,,,,,,,,,,,,,,,,,,,,,,,,,,,,,,,,,,,,,,,,,,,,,,,,,,,,,,,,,,,,,,,,,,,
,,?,0.00099,0,,,,,,stimuli/images/PICTURE_68.png,MILE,5b81d72a3c13750001995473,16/03/1988,2020-08-13_12h45.16.075,proactive2,2020.1.2,Linux x86_64,60,5f341be081b9052c55068110,5f3527b7af13c148b7f897dd,6,,,,,,candle,,,,,,,,,,,5,0,0,43,43,44,1,,,,,,,,,,,,,,,,,,,,,,,,,,,,,,,,,,,,,,,,,,,,,,,,,,,,,,,,,,,,,,,,,,,,,,,,,,,,,,,,,,,,,,,,,,,,,,
,,?,0.000755,0,,,,,,stimuli/images/PICTURE_311.png,BEAUTY,5b81d72a3c13750001995473,16/03/1988,2020-08-13_12h45.16.075,proactive2,2020.1.2,Linux x86_64,60,5f341be081b9052c55068110,5f3527b7af13c148b7f897dd,6,,,,,,razor,,,,,,,,,,,2,0,0,44,44,13,1,,,,,,,,,,,,,,,,,,,,,,,,,,,,,,,,,,,,,,,,,,,,,,,,,,,,,,,,,,,,,,,,,,,,,,,,,,,,,,,,,,,,,,,,,,,,,,
,,?,0.00074,0,,,,,,stimuli/images/PICTURE_708.png,CLIENT,5b81d72a3c13750001995473,16/03/1988,2020-08-13_12h45.16.075,proactive2,2020.1.2,Linux x86_64,60,5f341be081b9052c55068110,5f3527b7af13c148b7f897dd,6,,,,,,monkey,,,,,,,,,,,1,0,0,45,45,5,1,,,,,,,,,,,,,,,,,,,,,,,,,,,,,,,,,,,,,,,,,,,,,,,,,,,,,,,,,,,,,,,,,,,,,,,,,,,,,,,,,,,,,,,,,,,,,,
,,?,0.000805,0,,,,,,stimuli/images/PICTURE_208.png,THING,5b81d72a3c13750001995473,16/03/1988,2020-08-13_12h45.16.075,proactive2,2020.1.2,Linux x86_64,60,5f341be081b9052c55068110,5f3527b7af13c148b7f897dd,6,,,,,,microphone,,,,,,,,,,,5,0,0,46,46,47,1,,,,,,,,,,,,,,,,,,,,,,,,,,,,,,,,,,,,,,,,,,,,,,,,,,,,,,,,,,,,,,,,,,,,,,,,,,,,,,,,,,,,,,,,,,,,,,
,,?,0.00076,0,,,,,,stimuli/images/PICTURE_308.png,ESTATE,5b81d72a3c13750001995473,16/03/1988,2020-08-13_12h45.16.075,proactive2,2020.1.2,Linux x86_64,60,5f341be081b9052c55068110,5f3527b7af13c148b7f897dd,6,,,,,,dice,,,,,,,,,,,5,0,0,47,47,46,1,,,,,,,,,,,,,,,,,,,,,,,,,,,,,,,,,,,,,,,,,,,,,,,,,,,,,,,,,,,,,,,,,,,,,,,,,,,,,,,,,,,,,,,,,,,,,,
,,WRITER,1.80602,1,,,,,,stimuli/images/PICTURE_491.png,WRITER,5b81d72a3c13750001995473,16/03/1988,2020-08-13_12h45.16.075,proactive2,2020.1.2,Linux x86_64,60,5f341be081b9052c55068110,5f3527b7af13c148b7f897dd,6,,,,,,rug,,,,,,,,,,,6,0,0,48,48,57,1,,,,,,,,,,,,,,,,,,,,,,,,,,,,,,,,,,,,,,,,,,,,,,,,,,,,,,,,,,,,,,,,,,,,,,,,,,,,,,,,,,,,,,,,,,,,,,
,,?,0.001145,0,,,,,,stimuli/images/PICTURE_380.png,DEATH,5b81d72a3c13750001995473,16/03/1988,2020-08-13_12h45.16.075,proactive2,2020.1.2,Linux x86_64,60,5f341be081b9052c55068110,5f3527b7af13c148b7f897dd,6,,,,,,gorilla,,,,,,,,,,,5,0,0,49,49,49,1,,,,,,,,,,,,,,,,,,,,,,,,,,,,,,,,,,,,,,,,,,,,,,,,,,,,,,,,,,,,,,,,,,,,,,,,,,,,,,,,,,,,,,,,,,,,,,
,,?,0.00063,0,,,,,,stimuli/images/PICTURE_744.png,SYSTEM,5b81d72a3c13750001995473,16/03/1988,2020-08-13_12h45.16.075,proactive2,2020.1.2,Linux x86_64,60,5f341be081b9052c55068110,5f3527b7af13c148b7f897dd,6,,,,,,ring,,,,,,,,,,,5,0,0,50,50,43,1,,,,,,,,,,,,,,,,,,,,,,,,,,,,,,,,,,,,,,,,,,,,,,,,,,,,,,,,,,,,,,,,,,,,,,,,,,,,,,,,,,,,,,,,,,,,,,
,,?,0.0007,0,,,,,,stimuli/images/PICTURE_151.png,GIRL,5b81d72a3c13750001995473,16/03/1988,2020-08-13_12h45.16.075,proactive2,2020.1.2,Linux x86_64,60,5f341be081b9052c55068110,5f3527b7af13c148b7f897dd,6,,,,,,tray,,,,,,,,,,,2,0,0,51,51,19,1,,,,,,,,,,,,,,,,,,,,,,,,,,,,,,,,,,,,,,,,,,,,,,,,,,,,,,,,,,,,,,,,,,,,,,,,,,,,,,,,,,,,,,,,,,,,,,
,,?,0.00072,0,,,,,,stimuli/images/PICTURE_708.png,YARD,5b81d72a3c13750001995473,16/03/1988,2020-08-13_12h45.16.075,proactive2,2020.1.2,Linux x86_64,60,5f341be081b9052c55068110,5f3527b7af13c148b7f897dd,6,,,,,,monkey,,,,,,,,,,,3,0,0,52,52,29,1,,,,,,,,,,,,,,,,,,,,,,,,,,,,,,,,,,,,,,,,,,,,,,,,,,,,,,,,,,,,,,,,,,,,,,,,,,,,,,,,,,,,,,,,,,,,,,
,,PHOTO,3.63938,1,,,,,,stimuli/images/PICTURE_380.png,PHOTO,5b81d72a3c13750001995473,16/03/1988,2020-08-13_12h45.16.075,proactive2,2020.1.2,Linux x86_64,60,5f341be081b9052c55068110,5f3527b7af13c148b7f897dd,6,,,,,,gorilla,,,,,,,,,,,6,0,0,53,53,52,1,,,,,,,,,,,,,,,,,,,,,,,,,,,,,,,,,,,,,,,,,,,,,,,,,,,,,,,,,,,,,,,,,,,,,,,,,,,,,,,,,,,,,,,,,,,,,,
,,?,0.000955,0,,,,,,stimuli/images/PICTURE_177.png,CARS,5b81d72a3c13750001995473,16/03/1988,2020-08-13_12h45.16.075,proactive2,2020.1.2,Linux x86_64,60,5f341be081b9052c55068110,5f3527b7af13c148b7f897dd,6,,,,,,mushroom,,,,,,,,,,,4,0,0,54,54,35,1,,,,,,,,,,,,,,,,,,,,,,,,,,,,,,,,,,,,,,,,,,,,,,,,,,,,,,,,,,,,,,,,,,,,,,,,,,,,,,,,,,,,,,,,,,,,,,
,,?,0.000745,0,,,,,,stimuli/images/PICTURE_667.png,PLENTY,5b81d72a3c13750001995473,16/03/1988,2020-08-13_12h45.16.075,proactive2,2020.1.2,Linux x86_64,60,5f341be081b9052c55068110,5f3527b7af13c148b7f897dd,6,,,,,,daisy,,,,,,,,,,,5,0,0,55,55,41,1,,,,,,,,,,,,,,,,,,,,,,,,,,,,,,,,,,,,,,,,,,,,,,,,,,,,,,,,,,,,,,,,,,,,,,,,,,,,,,,,,,,,,,,,,,,,,,
,,?,0.00075,0,,,,,,stimuli/images/PICTURE_692.png,MONTH,5b81d72a3c13750001995473,16/03/1988,2020-08-13_12h45.16.075,proactive2,2020.1.2,Linux x86_64,60,5f341be081b9052c55068110,5f3527b7af13c148b7f897dd,6,,,,,,cherry,,,,,,,,,,,2,0,0,56,56,16,1,,,,,,,,,,,,,,,,,,,,,,,,,,,,,,,,,,,,,,,,,,,,,,,,,,,,,,,,,,,,,,,,,,,,,,,,,,,,,,,,,,,,,,,,,,,,,,
,,?,0.00068,0,,,,,,stimuli/images/PICTURE_339.png,PLENTY,5b81d72a3c13750001995473,16/03/1988,2020-08-13_12h45.16.075,proactive2,2020.1.2,Linux x86_64,60,5f341be081b9052c55068110,5f3527b7af13c148b7f897dd,6,,,,,,backpack,,,,,,,,,,,1,0,0,57,57,0,1,,,,,,,,,,,,,,,,,,,,,,,,,,,,,,,,,,,,,,,,,,,,,,,,,,,,,,,,,,,,,,,,,,,,,,,,,,,,,,,,,,,,,,,,,,,,,,
,,?,0.00073,0,,,,,,stimuli/images/PICTURE_469.png,LETTER,5b81d72a3c13750001995473,16/03/1988,2020-08-13_12h45.16.075,proactive2,2020.1.2,Linux x86_64,60,5f341be081b9052c55068110,5f3527b7af13c148b7f897dd,6,,,,,,stool,,,,,,,,,,,5,0,0,58,58,42,1,,,,,,,,,,,,,,,,,,,,,,,,,,,,,,,,,,,,,,,,,,,,,,,,,,,,,,,,,,,,,,,,,,,,,,,,,,,,,,,,,,,,,,,,,,,,,,
,,?,0.00068,0,,,,,,stimuli/images/PICTURE_491.png,ROOF,5b81d72a3c13750001995473,16/03/1988,2020-08-13_12h45.16.075,proactive2,2020.1.2,Linux x86_64,60,5f341be081b9052c55068110,5f3527b7af13c148b7f897dd,6,,,,,,rug,,,,,,,,,,,3,0,0,59,59,24,1,,,,,,,,,,,,,,,,,,,,,,,,,,,,,,,,,,,,,,,,,,,,,,,,,,,,,,,,,,,,,,,,,,,,,,,,,,,,,,,,,,,,,,,,,,,,,,
,,,,,,,,,,,,5b81d72a3c13750001995473,16/03/1988,2020-08-13_12h45.16.075,proactive2,2020.1.2,Linux x86_64,60,5f341be081b9052c55068110,5f3527b7af13c148b7f897dd,6,,,,,,,,,,,,,,,,,,,,,,,,0,1,1,0,1,stimuli/learn-block1.csv,,,,,,,,,,,,,,,,,,,,,,,,,,,,,,,,,,,,,,,,,,,,,,,,,,,,,,,,,,,,,,,,,,,,,,,,,,,,,,,,,,,,,,,,
,,,,,,,,,,stimuli/images/PICTURE_203.png,GODS,5b81d72a3c13750001995473,16/03/1988,2020-08-13_12h45.16.075,proactive2,2020.1.2,Linux x86_64,60,5f341be081b9052c55068110,5f3527b7af13c148b7f897dd,6,,,,,,cap,,,,,,0,0,0,30,1,4,1,,,,,,,,,,,,,,,,,,,,,,,,,,,,,,,,,,,,,,,,,,,,,,,,,,,,,,,,,,,,,,,,,,,,,,,,,,,,,,,,,,,,,,,,,,,,,,,,,,,
,,,,,,,,,,stimuli/images/PICTURE_147.png,YEAR,5b81d72a3c13750001995473,16/03/1988,2020-08-13_12h45.16.075,proactive2,2020.1.2,Linux x86_64,60,5f341be081b9052c55068110,5f3527b7af13c148b7f897dd,6,,,,,,hanger,,,,,,0,1,1,21,1,3,1,,,,,,,,,,,,,,,,,,,,,,,,,,,,,,,,,,,,,,,,,,,,,,,,,,,,,,,,,,,,,,,,,,,,,,,,,,,,,,,,,,,,,,,,,,,,,,,,,,,
,,,,,,,,,,stimuli/images/PICTURE_33.png,FRIEND,5b81d72a3c13750001995473,16/03/1988,2020-08-13_12h45.16.075,proactive2,2020.1.2,Linux x86_64,60,5f341be081b9052c55068110,5f3527b7af13c148b7f897dd,6,,,,,,frame,,,,,,0,2,2,8,1,1,1,,,,,,,,,,,,,,,,,,,,,,,,,,,,,,,,,,,,,,,,,,,,,,,,,,,,,,,,,,,,,,,,,,,,,,,,,,,,,,,,,,,,,,,,,,,,,,,,,,,
,,,,,,,,,,stimuli/images/PICTURE_147.png,WOMEN,5b81d72a3c13750001995473,16/03/1988,2020-08-13_12h45.16.075,proactive2,2020.1.2,Linux x86_64,60,5f341be081b9052c55068110,5f3527b7af13c148b7f897dd,6,,,,,,hanger,,,,,,0,3,3,7,1,1,1,,,,,,,,,,,,,,,,,,,,,,,,,,,,,,,,,,,,,,,,,,,,,,,,,,,,,,,,,,,,,,,,,,,,,,,,,,,,,,,,,,,,,,,,,,,,,,,,,,,
,,,,,,,,,,stimuli/images/PICTURE_85.png,TOILET,5b81d72a3c13750001995473,16/03/1988,2020-08-13_12h45.16.075,proactive2,2020.1.2,Linux x86_64,60,5f341be081b9052c55068110,5f3527b7af13c148b7f897dd,6,,,,,,diamond,,,,,,0,4,4,48,1,5,1,,,,,,,,,,,,,,,,,,,,,,,,,,,,,,,,,,,,,,,,,,,,,,,,,,,,,,,,,,,,,,,,,,,,,,,,,,,,,,,,,,,,,,,,,,,,,,,,,,,
,,,,,,,,,,stimuli/images/PICTURE_667.png,RIVER,5b81d72a3c13750001995473,16/03/1988,2020-08-13_12h45.16.075,proactive2,2020.1.2,Linux x86_64,60,5f341be081b9052c55068110,5f3527b7af13c148b7f897dd,6,,,,,,daisy,,,,,,0,5,5,10,1,2,1,,,,,,,,,,,,,,,,,,,,,,,,,,,,,,,,,,,,,,,,,,,,,,,,,,,,,,,,,,,,,,,,,,,,,,,,,,,,,,,,,,,,,,,,,,,,,,,,,,,
,,,,,,,,,,stimuli/images/PICTURE_208.png,SYSTEM,5b81d72a3c13750001995473,16/03/1988,2020-08-13_12h45.16.075,proactive2,2020.1.2,Linux x86_64,60,5f341be081b9052c55068110,5f3527b7af13c148b7f897dd,6,,,,,,microphone,,,,,,0,6,6,32,1,4,1,,,,,,,,,,,,,,,,,,,,,,,,,,,,,,,,,,,,,,,,,,,,,,,,,,,,,,,,,,,,,,,,,,,,,,,,,,,,,,,,,,,,,,,,,,,,,,,,,,,
,,,,,,,,,,stimuli/images/PICTURE_108.png,POLICY,5b81d72a3c13750001995473,16/03/1988,2020-08-13_12h45.16.075,proactive2,2020.1.2,Linux x86_64,60,5f341be081b9052c55068110,5f3527b7af13c148b7f897dd,6,,,,,,calendar,,,,,,0,7,7,22,1,3,1,,,,,,,,,,,,,,,,,,,,,,,,,,,,,,,,,,,,,,,,,,,,,,,,,,,,,,,,,,,,,,,,,,,,,,,,,,,,,,,,,,,,,,,,,,,,,,,,,,,
,,,,,,,,,,stimuli/images/PICTURE_339.png,CLIENT,5b81d72a3c13750001995473,16/03/1988,2020-08-13_12h45.16.075,proactive2,2020.1.2,Linux x86_64,60,5f341be081b9052c55068110,5f3527b7af13c148b7f897dd,6,,,,,,backpack,,,,,,0,8,8,11,1,2,1,,,,,,,,,,,,,,,,,,,,,,,,,,,,,,,,,,,,,,,,,,,,,,,,,,,,,,,,,,,,,,,,,,,,,,,,,,,,,,,,,,,,,,,,,,,,,,,,,,,
,,,,,,,,,,stimuli/images/PICTURE_85.png,NATION,5b81d72a3c13750001995473,16/03/1988,2020-08-13_12h45.16.075,proactive2,2020.1.2,Linux x86_64,60,5f341be081b9052c55068110,5f3527b7af13c148b7f897dd,6,,,,,,diamond,,,,,,0,9,9,5,1,1,1,,,,,,,,,,,,,,,,,,,,,,,,,,,,,,,,,,,,,,,,,,,,,,,,,,,,,,,,,,,,,,,,,,,,,,,,,,,,,,,,,,,,,,,,,,,,,,,,,,,
,,,,,,,,,,stimuli/images/PICTURE_744.png,WEAPON,5b81d72a3c13750001995473,16/03/1988,2020-08-13_12h45.16.075,proactive2,2020.1.2,Linux x86_64,60,5f341be081b9052c55068110,5f3527b7af13c148b7f897dd,6,,,,,,ring,,,,,,0,10,10,50,1,6,1,,,,,,,,,,,,,,,,,,,,,,,,,,,,,,,,,,,,,,,,,,,,,,,,,,,,,,,,,,,,,,,,,,,,,,,,,,,,,,,,,,,,,,,,,,,,,,,,,,,
,,,,,,,,,,stimuli/images/PICTURE_285.png,LIFE,5b81d72a3c13750001995473,16/03/1988,2020-08-13_12h45.16.075,proactive2,2020.1.2,Linux x86_64,60,5f341be081b9052c55068110,5f3527b7af13c148b7f897dd,6,,,,,,carrot,,,,,,0,11,11,33,1,4,1,,,,,,,,,,,,,,,,,,,,,,,,,,,,,,,,,,,,,,,,,,,,,,,,,,,,,,,,,,,,,,,,,,,,,,,,,,,,,,,,,,,,,,,,,,,,,,,,,,,
,,,,,,,,,,stimuli/images/PICTURE_564.png,BATH,5b81d72a3c13750001995473,16/03/1988,2020-08-13_12h45.16.075,proactive2,2020.1.2,Linux x86_64,60,5f341be081b9052c55068110,5f3527b7af13c148b7f897dd,6,,,,,,spoon,,,,,,0,12,12,26,1,3,1,,,,,,,,,,,,,,,,,,,,,,,,,,,,,,,,,,,,,,,,,,,,,,,,,,,,,,,,,,,,,,,,,,,,,,,,,,,,,,,,,,,,,,,,,,,,,,,,,,,
,,,,,,,,,,stimuli/images/PICTURE_504.png,COPS,5b81d72a3c13750001995473,16/03/1988,2020-08-13_12h45.16.075,proactive2,2020.1.2,Linux x86_64,60,5f341be081b9052c55068110,5f3527b7af13c148b7f897dd,6,,,,,,wheel,,,,,,0,13,13,52,1,6,1,,,,,,,,,,,,,,,,,,,,,,,,,,,,,,,,,,,,,,,,,,,,,,,,,,,,,,,,,,,,,,,,,,,,,,,,,,,,,,,,,,,,,,,,,,,,,,,,,,,
,,,,,,,,,,stimuli/images/PICTURE_340.png,LETTER,5b81d72a3c13750001995473,16/03/1988,2020-08-13_12h45.16.075,proactive2,2020.1.2,Linux x86_64,60,5f341be081b9052c55068110,5f3527b7af13c148b7f897dd,6,,,,,,mirror,,,,,,0,14,14,24,1,3,1,,,,,,,,,,,,,,,,,,,,,,,,,,,,,,,,,,,,,,,,,,,,,,,,,,,,,,,,,,,,,,,,,,,,,,,,,,,,,,,,,,,,,,,,,,,,,,,,,,,
,,,,,,,,,,stimuli/images/PICTURE_491.png,GLASS,5b81d72a3c13750001995473,16/03/1988,2020-08-13_12h45.16.075,proactive2,2020.1.2,Linux x86_64,60,5f341be081b9052c55068110,5f3527b7af13c148b7f897dd,6,,,,,,rug,,,,,,0,15,15,14,1,2,1,,,,,,,,,,,,,,,,,,,,,,,,,,,,,,,,,,,,,,,,,,,,,,,,,,,,,,,,,,,,,,,,,,,,,,,,,,,,,,,,,,,,,,,,,,,,,,,,,,,
,,,,,,,,,,stimuli/images/PICTURE_405.png,PLENTY,5b81d72a3c13750001995473,16/03/1988,2020-08-13_12h45.16.075,proactive2,2020.1.2,Linux x86_64,60,5f341be081b9052c55068110,5f3527b7af13c148b7f897dd,6,,,,,,anchor,,,,,,0,16,16,23,1,3,1,,,,,,,,,,,,,,,,,,,,,,,,,,,,,,,,,,,,,,,,,,,,,,,,,,,,,,,,,,,,,,,,,,,,,,,,,,,,,,,,,,,,,,,,,,,,,,,,,,,
,,,,,,,,,,stimuli/images/PICTURE_327.png,CASINO,5b81d72a3c13750001995473,16/03/1988,2020-08-13_12h45.16.075,proactive2,2020.1.2,Linux x86_64,60,5f341be081b9052c55068110,5f3527b7af13c148b7f897dd,6,,,,,,helmet,,,,,,0,17,17,20,1,3,1,,,,,,,,,,,,,,,,,,,,,,,,,,,,,,,,,,,,,,,,,,,,,,,,,,,,,,,,,,,,,,,,,,,,,,,,,,,,,,,,,,,,,,,,,,,,,,,,,,,
,,,,,,,,,,stimuli/images/PICTURE_677.png,APPLE,5b81d72a3c13750001995473,16/03/1988,2020-08-13_12h45.16.075,proactive2,2020.1.2,Linux x86_64,60,5f341be081b9052c55068110,5f3527b7af13c148b7f897dd,6,,,,,,map,,,,,,0,18,18,43,1,5,1,,,,,,,,,,,,,,,,,,,,,,,,,,,,,,,,,,,,,,,,,,,,,,,,,,,,,,,,,,,,,,,,,,,,,,,,,,,,,,,,,,,,,,,,,,,,,,,,,,,
,,,,,,,,,,stimuli/images/PICTURE_177.png,WRITER,5b81d72a3c13750001995473,16/03/1988,2020-08-13_12h45.16.075,proactive2,2020.1.2,Linux x86_64,60,5f341be081b9052c55068110,5f3527b7af13c148b7f897dd,6,,,,,,mushroom,,,,,,0,19,19,41,1,5,1,,,,,,,,,,,,,,,,,,,,,,,,,,,,,,,,,,,,,,,,,,,,,,,,,,,,,,,,,,,,,,,,,,,,,,,,,,,,,,,,,,,,,,,,,,,,,,,,,,,
,,,,,,,,,,stimuli/images/PICTURE_469.png,AGENT,5b81d72a3c13750001995473,16/03/1988,2020-08-13_12h45.16.075,proactive2,2020.1.2,Linux x86_64,60,5f341be081b9052c55068110,5f3527b7af13c148b7f897dd,6,,,,,,stool,,,,,,0,20,20,16,1,2,1,,,,,,,,,,,,,,,,,,,,,,,,,,,,,,,,,,,,,,,,,,,,,,,,,,,,,,,,,,,,,,,,,,,,,,,,,,,,,,,,,,,,,,,,,,,,,,,,,,,
,,,,,,,,,,stimuli/images/PICTURE_504.png,YEAR,5b81d72a3c13750001995473,16/03/1988,2020-08-13_12h45.16.075,proactive2,2020.1.2,Linux x86_64,60,5f341be081b9052c55068110,5f3527b7af13c148b7f897dd,6,,,,,,wheel,,,,,,0,21,21,13,1,2,1,,,,,,,,,,,,,,,,,,,,,,,,,,,,,,,,,,,,,,,,,,,,,,,,,,,,,,,,,,,,,,,,,,,,,,,,,,,,,,,,,,,,,,,,,,,,,,,,,,,
,,,,,,,,,,stimuli/images/PICTURE_32.png,KIND,5b81d72a3c13750001995473,16/03/1988,2020-08-13_12h45.16.075,proactive2,2020.1.2,Linux x86_64,60,5f341be081b9052c55068110,5f3527b7af13c148b7f897dd,6,,,,,,crown,,,,,,0,22,22,35,1,4,1,,,,,,,,,,,,,,,,,,,,,,,,,,,,,,,,,,,,,,,,,,,,,,,,,,,,,,,,,,,,,,,,,,,,,,,,,,,,,,,,,,,,,,,,,,,,,,,,,,,
,,,,,,,,,,stimuli/images/PICTURE_296.png,LIFE,5b81d72a3c13750001995473,16/03/1988,2020-08-13_12h45.16.075,proactive2,2020.1.2,Linux x86_64,60,5f341be081b9052c55068110,5f3527b7af13c148b7f897dd,6,,,,,,bolt,,,,,,0,23,23,57,1,6,1,,,,,,,,,,,,,,,,,,,,,,,,,,,,,,,,,,,,,,,,,,,,,,,,,,,,,,,,,,,,,,,,,,,,,,,,,,,,,,,,,,,,,,,,,,,,,,,,,,,
,,,,,,,,,,stimuli/images/PICTURE_327.png,SERIES,5b81d72a3c13750001995473,16/03/1988,2020-08-13_12h45.16.075,proactive2,2020.1.2,Linux x86_64,60,5f341be081b9052c55068110,5f3527b7af13c148b7f897dd,6,,,,,,helmet,,,,,,0,24,24,3,1,1,1,,,,,,,,,,,,,,,,,,,,,,,,,,,,,,,,,,,,,,,,,,,,,,,,,,,,,,,,,,,,,,,,,,,,,,,,,,,,,,,,,,,,,,,,,,,,,,,,,,,
,,,,,,,,,,stimuli/images/PICTURE_68.png,MILE,5b81d72a3c13750001995473,16/03/1988,2020-08-13_12h45.16.075,proactive2,2020.1.2,Linux x86_64,60,5f341be081b9052c55068110,5f3527b7af13c148b7f897dd,6,,,,,,candle,,,,,,0,25,25,51,1,6,1,,,,,,,,,,,,,,,,,,,,,,,,,,,,,,,,,,,,,,,,,,,,,,,,,,,,,,,,,,,,,,,,,,,,,,,,,,,,,,,,,,,,,,,,,,,,,,,,,,,
,,,,,,,,,,stimuli/images/PICTURE_675.png,SALE,5b81d72a3c13750001995473,16/03/1988,2020-08-13_12h45.16.075,proactive2,2020.1.2,Linux x86_64,60,5f341be081b9052c55068110,5f3527b7af13c148b7f897dd,6,,,,,,windmill,,,,,,0,26,26,47,1,5,1,,,,,,,,,,,,,,,,,,,,,,,,,,,,,,,,,,,,,,,,,,,,,,,,,,,,,,,,,,,,,,,,,,,,,,,,,,,,,,,,,,,,,,,,,,,,,,,,,,,
,,,,,,,,,,stimuli/images/PICTURE_487.png,GIRL,5b81d72a3c13750001995473,16/03/1988,2020-08-13_12h45.16.075,proactive2,2020.1.2,Linux x86_64,60,5f341be081b9052c55068110,5f3527b7af13c148b7f897dd,6,,,,,,basket,,,,,,0,27,27,45,1,5,1,,,,,,,,,,,,,,,,,,,,,,,,,,,,,,,,,,,,,,,,,,,,,,,,,,,,,,,,,,,,,,,,,,,,,,,,,,,,,,,,,,,,,,,,,,,,,,,,,,,
,,,,,,,,,,stimuli/images/PICTURE_403.png,TOILET,5b81d72a3c13750001995473,16/03/1988,2020-08-13_12h45.16.075,proactive2,2020.1.2,Linux x86_64,60,5f341be081b9052c55068110,5f3527b7af13c148b7f897dd,6,,,,,,cathedral,,,,,,0,28,28,25,1,3,1,,,,,,,,,,,,,,,,,,,,,,,,,,,,,,,,,,,,,,,,,,,,,,,,,,,,,,,,,,,,,,,,,,,,,,,,,,,,,,,,,,,,,,,,,,,,,,,,,,,
,,,,,,,,,,stimuli/images/PICTURE_95.png,MILLER,5b81d72a3c13750001995473,16/03/1988,2020-08-13_12h45.16.075,proactive2,2020.1.2,Linux x86_64,60,5f341be081b9052c55068110,5f3527b7af13c148b7f897dd,6,,,,,,suitcase,,,,,,0,29,29,56,1,6,1,,,,,,,,,,,,,,,,,,,,,,,,,,,,,,,,,,,,,,,,,,,,,,,,,,,,,,,,,,,,,,,,,,,,,,,,,,,,,,,,,,,,,,,,,,,,,,,,,,,
,,,,,,,,,,stimuli/images/PICTURE_95.png,BOYS,5b81d72a3c13750001995473,16/03/1988,2020-08-13_12h45.16.075,proactive2,2020.1.2,Linux x86_64,60,5f341be081b9052c55068110,5f3527b7af13c148b7f897dd,6,,,,,,suitcase,,,,,,0,30,30,1,1,1,1,,,,,,,,,,,,,,,,,,,,,,,,,,,,,,,,,,,,,,,,,,,,,,,,,,,,,,,,,,,,,,,,,,,,,,,,,,,,,,,,,,,,,,,,,,,,,,,,,,,
,,,,,,,,,,stimuli/images/PICTURE_449.png,DUDE,5b81d72a3c13750001995473,16/03/1988,2020-08-13_12h45.16.075,proactive2,2020.1.2,Linux x86_64,60,5f341be081b9052c55068110,5f3527b7af13c148b7f897dd,6,,,,,,bench,,,,,,0,31,31,17,1,2,1,,,,,,,,,,,,,,,,,,,,,,,,,,,,,,,,,,,,,,,,,,,,,,,,,,,,,,,,,,,,,,,,,,,,,,,,,,,,,,,,,,,,,,,,,,,,,,,,,,,
,,,,,,,,,,stimuli/images/PICTURE_380.png,CANDY,5b81d72a3c13750001995473,16/03/1988,2020-08-13_12h45.16.075,proactive2,2020.1.2,Linux x86_64,60,5f341be081b9052c55068110,5f3527b7af13c148b7f897dd,6,,,,,,gorilla,,,,,,0,32,32,0,1,1,1,,,,,,,,,,,,,,,,,,,,,,,,,,,,,,,,,,,,,,,,,,,,,,,,,,,,,,,,,,,,,,,,,,,,,,,,,,,,,,,,,,,,,,,,,,,,,,,,,,,
,,,,,,,,,,stimuli/images/PICTURE_297.png,RIVER,5b81d72a3c13750001995473,16/03/1988,2020-08-13_12h45.16.075,proactive2,2020.1.2,Linux x86_64,60,5f341be081b9052c55068110,5f3527b7af13c148b7f897dd,6,,,,,,aeroplane,,,,,,0,33,33,39,1,4,1,,,,,,,,,,,,,,,,,,,,,,,,,,,,,,,,,,,,,,,,,,,,,,,,,,,,,,,,,,,,,,,,,,,,,,,,,,,,,,,,,,,,,,,,,,,,,,,,,,,
,,,,,,,,,,stimuli/images/PICTURE_380.png,HONEY,5b81d72a3c13750001995473,16/03/1988,2020-08-13_12h45.16.075,proactive2,2020.1.2,Linux x86_64,60,5f341be081b9052c55068110,5f3527b7af13c148b7f897dd,6,,,,,,gorilla,,,,,,0,34,34,19,1,2,1,,,,,,,,,,,,,,,,,,,,,,,,,,,,,,,,,,,,,,,,,,,,,,,,,,,,,,,,,,,,,,,,,,,,,,,,,,,,,,,,,,,,,,,,,,,,,,,,,,,
,,,,,,,,,,stimuli/images/PICTURE_308.png,FAMILY,5b81d72a3c13750001995473,16/03/1988,2020-08-13_12h45.16.075,proactive2,2020.1.2,Linux x86_64,60,5f341be081b9052c55068110,5f3527b7af13c148b7f897dd,6,,,,,,dice,,,,,,0,35,35,36,1,4,1,,,,,,,,,,,,,,,,,,,,,,,,,,,,,,,,,,,,,,,,,,,,,,,,,,,,,,,,,,,,,,,,,,,,,,,,,,,,,,,,,,,,,,,,,,,,,,,,,,,
,,,,,,,,,,stimuli/images/PICTURE_233.png,LOTS,5b81d72a3c13750001995473,16/03/1988,2020-08-13_12h45.16.075,proactive2,2020.1.2,Linux x86_64,60,5f341be081b9052c55068110,5f3527b7af13c148b7f897dd,6,,,,,,salt,,,,,,0,36,36,42,1,5,1,,,,,,,,,,,,,,,,,,,,,,,,,,,,,,,,,,,,,,,,,,,,,,,,,,,,,,,,,,,,,,,,,,,,,,,,,,,,,,,,,,,,,,,,,,,,,,,,,,,
,,,,,,,,,,stimuli/images/PICTURE_403.png,RIVER,5b81d72a3c13750001995473,16/03/1988,2020-08-13_12h45.16.075,proactive2,2020.1.2,Linux x86_64,60,5f341be081b9052c55068110,5f3527b7af13c148b7f897dd,6,,,,,,cathedral,,,,,,0,37,37,40,1,5,1,,,,,,,,,,,,,,,,,,,,,,,,,,,,,,,,,,,,,,,,,,,,,,,,,,,,,,,,,,,,,,,,,,,,,,,,,,,,,,,,,,,,,,,,,,,,,,,,,,,
,,,,,,,,,,stimuli/images/PICTURE_467.png,POLICY,5b81d72a3c13750001995473,16/03/1988,2020-08-13_12h45.16.075,proactive2,2020.1.2,Linux x86_64,60,5f341be081b9052c55068110,5f3527b7af13c148b7f897dd,6,,,,,,peg,,,,,,0,38,38,53,1,6,1,,,,,,,,,,,,,,,,,,,,,,,,,,,,,,,,,,,,,,,,,,,,,,,,,,,,,,,,,,,,,,,,,,,,,,,,,,,,,,,,,,,,,,,,,,,,,,,,,,,
,,,,,,,,,,stimuli/images/PICTURE_403.png,WRITER,5b81d72a3c13750001995473,16/03/1988,2020-08-13_12h45.16.075,proactive2,2020.1.2,Linux x86_64,60,5f341be081b9052c55068110,5f3527b7af13c148b7f897dd,6,,,,,,cathedral,,,,,,0,39,39,31,1,4,1,,,,,,,,,,,,,,,,,,,,,,,,,,,,,,,,,,,,,,,,,,,,,,,,,,,,,,,,,,,,,,,,,,,,,,,,,,,,,,,,,,,,,,,,,,,,,,,,,,,
,,,,,,,,,,stimuli/images/PICTURE_42.png,BOYS,5b81d72a3c13750001995473,16/03/1988,2020-08-13_12h45.16.075,proactive2,2020.1.2,Linux x86_64,60,5f341be081b9052c55068110,5f3527b7af13c148b7f897dd,6,,,,,,pear,,,,,,0,40,40,55,1,6,1,,,,,,,,,,,,,,,,,,,,,,,,,,,,,,,,,,,,,,,,,,,,,,,,,,,,,,,,,,,,,,,,,,,,,,,,,,,,,,,,,,,,,,,,,,,,,,,,,,,
,,,,,,,,,,stimuli/images/PICTURE_654.png,MONTH,5b81d72a3c13750001995473,16/03/1988,2020-08-13_12h45.16.075,proactive2,2020.1.2,Linux x86_64,60,5f341be081b9052c55068110,5f3527b7af13c148b7f897dd,6,,,,,,pencil,,,,,,0,41,41,29,1,3,1,,,,,,,,,,,,,,,,,,,,,,,,,,,,,,,,,,,,,,,,,,,,,,,,,,,,,,,,,,,,,,,,,,,,,,,,,,,,,,,,,,,,,,,,,,,,,,,,,,,
,,,,,,,,,,stimuli/images/PICTURE_296.png,LOTS,5b81d72a3c13750001995473,16/03/1988,2020-08-13_12h45.16.075,proactive2,2020.1.2,Linux x86_64,60,5f341be081b9052c55068110,5f3527b7af13c148b7f897dd,6,,,,,,bolt,,,,,,0,42,42,9,1,1,1,,,,,,,,,,,,,,,,,,,,,,,,,,,,,,,,,,,,,,,,,,,,,,,,,,,,,,,,,,,,,,,,,,,,,,,,,,,,,,,,,,,,,,,,,,,,,,,,,,,
,,,,,,,,,,stimuli/images/PICTURE_708.png,RECORD,5b81d72a3c13750001995473,16/03/1988,2020-08-13_12h45.16.075,proactive2,2020.1.2,Linux x86_64,60,5f341be081b9052c55068110,5f3527b7af13c148b7f897dd,6,,,,,,monkey,,,,,,0,43,43,58,1,6,1,,,,,,,,,,,,,,,,,,,,,,,,,,,,,,,,,,,,,,,,,,,,,,,,,,,,,,,,,,,,,,,,,,,,,,,,,,,,,,,,,,,,,,,,,,,,,,,,,,,
