consent_key.keys,consent_key.rt,recalled,recalled_rt,recall_acc,example_recall.thisRepN,example_recall.thisTrialN,example_recall.thisN,example_recall.thisIndex,example_recall.ran,file,word,participant,please enter your date of birth (dd/mm/yyyy),date,expName,psychopyVersion,OS,frameRate,STUDY_ID,SESSION_ID,list,prac_learn_study_loop.thisRepN,prac_learn_study_loop.thisTrialN,prac_learn_study_loop.thisN,prac_learn_study_loop.thisIndex,prac_learn_study_loop.ran,image,prac_learn_test_loop.thisRepN,prac_learn_test_loop.thisTrialN,prac_learn_test_loop.thisN,prac_learn_test_loop.thisIndex,prac_learn_test_loop.ran,learn_study_loop.thisRepN,learn_study_loop.thisTrialN,learn_study_loop.thisN,learn_study_loop.thisIndex,learn_study_loop.ran,list_no,block_no,learn_test_loop.thisRepN,learn_test_loop.thisTrialN,learn_test_loop.thisN,learn_test_loop.thisIndex,learn_test_loop.ran,learn_blocks.thisRepN,learn_blocks.thisTrialN,learn_blocks.thisN,learn_blocks.thisIndex,learn_blocks.ran,block_csv,key_resp_13.keys,key_resp_13.rt,learn_blocks_loop.thisRepN,learn_blocks_loop.thisTrialN,learn_blocks_loop.thisN,learn_blocks_loop.thisIndex,learn_blocks_loop.ran,final_learn_test.thisRepN,final_learn_test.thisTrialN,final_learn_test.thisN,final_learn_test.thisIndex,final_learn_test.ran,s_im1,s_im2,s_im3,s_im4,s_im5,s_im6,s_im7,s_im8,s_im1pos,s_im2pos,s_im3pos,s_im4pos,s_im5pos,s_im6pos,s_im7pos,s_im8pos,s_tarright,search_resp.keys,search_loop.thisRepN,search_loop.thisTrialN,search_loop.thisN,search_loop.thisIndex,search_loop.ran,search_resp.rt,prac_wm_test_loop.thisRepN,prac_wm_test_loop.thisTrialN,prac_wm_test_loop.thisN,prac_wm_test_loop.thisIndex,prac_wm_test_loop.ran,wm_recalled1,wm_recall_rt1,wm_probed1,wm_recall_acc1,wm_recalled2,wm_recall_rt2,wm_probed2,wm_recall_acc2,wm_recalled3,wm_recall_rt3,wm_probed3,wm_recall_acc3,wm_recalled4,wm_recall_rt4,wm_probed4,wm_recall_acc4,prac_wm_trial_loop.thisRepN,prac_wm_trial_loop.thisTrialN,prac_wm_trial_loop.thisN,prac_wm_trial_loop.thisIndex,prac_wm_trial_loop.ran,word1,image1,file1,item_type1,word2,image2,file2,item_type2,word4,image4,file4,item_type4,word3,image3,file3,item_type3,wm_test_loop.thisRepN,wm_test_loop.thisTrialN,wm_test_loop.thisN,wm_test_loop.thisIndex,wm_test_loop.ran,wm_trial_loop.thisRepN,wm_trial_loop.thisTrialN,wm_trial_loop.thisN,wm_trial_loop.thisIndex,wm_trial_loop.ran
y,31.644745,TOUGH,4.18653,1,0,0,0,0,1,stimuli/images/PICTURE_747.png,TOUGH,5b82be6543bc4900017ef3de,19/06/1947,2020-09-03_19h40.40.044,proactive2,2020.1.2,Win32,60,5f5126bb654d4b30ee6923d8,5f51388a8647e3330b433537,4,,,,,,,,,,,,,,,,,,,,,,,,,,,,,,,,,,,,,,,,,,,,,,,,,,,,,,,,,,,,,,,,,,,,,,,,,,,,,,,,,,,,,,,,,,,,,,,,,,,,,,,,,,,,,,,,,,,,,
,,,,,,,,,,stimuli/images/PICTURE_378.png,LOSS,5b82be6543bc4900017ef3de,19/06/1947,2020-09-03_19h40.40.044,proactive2,2020.1.2,Win32,60,5f5126bb654d4b30ee6923d8,5f51388a8647e3330b433537,4,0,0,0,2,1,lobster,,,,,,,,,,,,,,,,,,,,,,,,,,,,,,,,,,,,,,,,,,,,,,,,,,,,,,,,,,,,,,,,,,,,,,,,,,,,,,,,,,,,,,,,,,,,,,,,,,,,,,,,,,,,,,,
,,,,,,,,,,stimuli/images/PICTURE_697.png,KILLER,5b82be6543bc4900017ef3de,19/06/1947,2020-09-03_19h40.40.044,proactive2,2020.1.2,Win32,60,5f5126bb654d4b30ee6923d8,5f51388a8647e3330b433537,4,0,1,1,4,1,peach,,,,,,,,,,,,,,,,,,,,,,,,,,,,,,,,,,,,,,,,,,,,,,,,,,,,,,,,,,,,,,,,,,,,,,,,,,,,,,,,,,,,,,,,,,,,,,,,,,,,,,,,,,,,,,,
,,,,,,,,,,stimuli/images/PICTURE_658.png,DEVIL,5b82be6543bc4900017ef3de,19/06/1947,2020-09-03_19h40.40.044,proactive2,2020.1.2,Win32,60,5f5126bb654d4b30ee6923d8,5f51388a8647e3330b433537,4,0,2,2,3,1,crow,,,,,,,,,,,,,,,,,,,,,,,,,,,,,,,,,,,,,,,,,,,,,,,,,,,,,,,,,,,,,,,,,,,,,,,,,,,,,,,,,,,,,,,,,,,,,,,,,,,,,,,,,,,,,,,
,,,,,,,,,,stimuli/images/PICTURE_269.png,GENIUS,5b82be6543bc4900017ef3de,19/06/1947,2020-09-03_19h40.40.044,proactive2,2020.1.2,Win32,60,5f5126bb654d4b30ee6923d8,5f51388a8647e3330b433537,4,0,3,3,0,1,chameleon,,,,,,,,,,,,,,,,,,,,,,,,,,,,,,,,,,,,,,,,,,,,,,,,,,,,,,,,,,,,,,,,,,,,,,,,,,,,,,,,,,,,,,,,,,,,,,,,,,,,,,,,,,,,,,,
,,DEVIL,3.99024,1,,,,,,stimuli/images/PICTURE_658.png,DEVIL,5b82be6543bc4900017ef3de,19/06/1947,2020-09-03_19h40.40.044,proactive2,2020.1.2,Win32,60,5f5126bb654d4b30ee6923d8,5f51388a8647e3330b433537,4,,,,,,crow,0,0,0,3,1,,,,,,,,,,,,,,,,,,,,,,,,,,,,,,,,,,,,,,,,,,,,,,,,,,,,,,,,,,,,,,,,,,,,,,,,,,,,,,,,,,,,,,,,,,,,,,,,,,,,,,,,,,
,,CELL,2.370115,1,,,,,,stimuli/images/PICTURE_727.png,CELL,5b82be6543bc4900017ef3de,19/06/1947,2020-09-03_19h40.40.044,proactive2,2020.1.2,Win32,60,5f5126bb654d4b30ee6923d8,5f51388a8647e3330b433537,4,,,,,,hose,0,1,1,1,1,,,,,,,,,,,,,,,,,,,,,,,,,,,,,,,,,,,,,,,,,,,,,,,,,,,,,,,,,,,,,,,,,,,,,,,,,,,,,,,,,,,,,,,,,,,,,,,,,,,,,,,,,,
,,?,3.809445,0,,,,,,stimuli/images/PICTURE_269.png,GENIUS,5b82be6543bc4900017ef3de,19/06/1947,2020-09-03_19h40.40.044,proactive2,2020.1.2,Win32,60,5f5126bb654d4b30ee6923d8,5f51388a8647e3330b433537,4,,,,,,chameleon,0,2,2,0,1,,,,,,,,,,,,,,,,,,,,,,,,,,,,,,,,,,,,,,,,,,,,,,,,,,,,,,,,,,,,,,,,,,,,,,,,,,,,,,,,,,,,,,,,,,,,,,,,,,,,,,,,,,
,,LOSS,2.721885,1,,,,,,stimuli/images/PICTURE_378.png,LOSS,5b82be6543bc4900017ef3de,19/06/1947,2020-09-03_19h40.40.044,proactive2,2020.1.2,Win32,60,5f5126bb654d4b30ee6923d8,5f51388a8647e3330b433537,4,,,,,,lobster,0,3,3,2,1,,,,,,,,,,,,,,,,,,,,,,,,,,,,,,,,,,,,,,,,,,,,,,,,,,,,,,,,,,,,,,,,,,,,,,,,,,,,,,,,,,,,,,,,,,,,,,,,,,,,,,,,,,
,,KILLER,3.23991,1,,,,,,stimuli/images/PICTURE_697.png,KILLER,5b82be6543bc4900017ef3de,19/06/1947,2020-09-03_19h40.40.044,proactive2,2020.1.2,Win32,60,5f5126bb654d4b30ee6923d8,5f51388a8647e3330b433537,4,,,,,,peach,0,4,4,4,1,,,,,,,,,,,,,,,,,,,,,,,,,,,,,,,,,,,,,,,,,,,,,,,,,,,,,,,,,,,,,,,,,,,,,,,,,,,,,,,,,,,,,,,,,,,,,,,,,,,,,,,,,,
,,,,,,,,,,stimuli/images/PICTURE_208.png,THING,5b82be6543bc4900017ef3de,19/06/1947,2020-09-03_19h40.40.044,proactive2,2020.1.2,Win32,60,5f5126bb654d4b30ee6923d8,5f51388a8647e3330b433537,4,,,,,,microphone,,,,,,0,0,0,47,1,5,0,,,,,,,,,,,,,,,,,,,,,,,,,,,,,,,,,,,,,,,,,,,,,,,,,,,,,,,,,,,,,,,,,,,,,,,,,,,,,,,,,,,,,,,,,,,,,,,,,,,
,,,,,,,,,,stimuli/images/PICTURE_688.png,WOMEN,5b82be6543bc4900017ef3de,19/06/1947,2020-09-03_19h40.40.044,proactive2,2020.1.2,Win32,60,5f5126bb654d4b30ee6923d8,5f51388a8647e3330b433537,4,,,,,,runner,,,,,,0,1,1,14,1,2,0,,,,,,,,,,,,,,,,,,,,,,,,,,,,,,,,,,,,,,,,,,,,,,,,,,,,,,,,,,,,,,,,,,,,,,,,,,,,,,,,,,,,,,,,,,,,,,,,,,,
,,,,,,,,,,stimuli/images/PICTURE_311.png,BEAUTY,5b82be6543bc4900017ef3de,19/06/1947,2020-09-03_19h40.40.044,proactive2,2020.1.2,Win32,60,5f5126bb654d4b30ee6923d8,5f51388a8647e3330b433537,4,,,,,,razor,,,,,,0,2,2,13,1,2,0,,,,,,,,,,,,,,,,,,,,,,,,,,,,,,,,,,,,,,,,,,,,,,,,,,,,,,,,,,,,,,,,,,,,,,,,,,,,,,,,,,,,,,,,,,,,,,,,,,,
,,,,,,,,,,stimuli/images/PICTURE_208.png,MONTH,5b82be6543bc4900017ef3de,19/06/1947,2020-09-03_19h40.40.044,proactive2,2020.1.2,Win32,60,5f5126bb654d4b30ee6923d8,5f51388a8647e3330b433537,4,,,,,,microphone,,,,,,0,3,3,53,1,6,0,,,,,,,,,,,,,,,,,,,,,,,,,,,,,,,,,,,,,,,,,,,,,,,,,,,,,,,,,,,,,,,,,,,,,,,,,,,,,,,,,,,,,,,,,,,,,,,,,,,
,,,,,,,,,,stimuli/images/PICTURE_308.png,ESTATE,5b82be6543bc4900017ef3de,19/06/1947,2020-09-03_19h40.40.044,proactive2,2020.1.2,Win32,60,5f5126bb654d4b30ee6923d8,5f51388a8647e3330b433537,4,,,,,,dice,,,,,,0,4,4,46,1,5,0,,,,,,,,,,,,,,,,,,,,,,,,,,,,,,,,,,,,,,,,,,,,,,,,,,,,,,,,,,,,,,,,,,,,,,,,,,,,,,,,,,,,,,,,,,,,,,,,,,,
,,,,,,,,,,stimuli/images/PICTURE_467.png,DEMON,5b82be6543bc4900017ef3de,19/06/1947,2020-09-03_19h40.40.044,proactive2,2020.1.2,Win32,60,5f5126bb654d4b30ee6923d8,5f51388a8647e3330b433537,4,,,,,,peg,,,,,,0,5,5,23,1,3,0,,,,,,,,,,,,,,,,,,,,,,,,,,,,,,,,,,,,,,,,,,,,,,,,,,,,,,,,,,,,,,,,,,,,,,,,,,,,,,,,,,,,,,,,,,,,,,,,,,,
,,,,,,,,,,stimuli/images/PICTURE_208.png,LOTS,5b82be6543bc4900017ef3de,19/06/1947,2020-09-03_19h40.40.044,proactive2,2020.1.2,Win32,60,5f5126bb654d4b30ee6923d8,5f51388a8647e3330b433537,4,,,,,,microphone,,,,,,0,6,6,10,1,2,0,,,,,,,,,,,,,,,,,,,,,,,,,,,,,,,,,,,,,,,,,,,,,,,,,,,,,,,,,,,,,,,,,,,,,,,,,,,,,,,,,,,,,,,,,,,,,,,,,,,
,,,,,,,,,,stimuli/images/PICTURE_68.png,MILE,5b82be6543bc4900017ef3de,19/06/1947,2020-09-03_19h40.40.044,proactive2,2020.1.2,Win32,60,5f5126bb654d4b30ee6923d8,5f51388a8647e3330b433537,4,,,,,,candle,,,,,,0,7,7,44,1,5,0,,,,,,,,,,,,,,,,,,,,,,,,,,,,,,,,,,,,,,,,,,,,,,,,,,,,,,,,,,,,,,,,,,,,,,,,,,,,,,,,,,,,,,,,,,,,,,,,,,,
,,,,,,,,,,stimuli/images/PICTURE_688.png,CASINO,5b82be6543bc4900017ef3de,19/06/1947,2020-09-03_19h40.40.044,proactive2,2020.1.2,Win32,60,5f5126bb654d4b30ee6923d8,5f51388a8647e3330b433537,4,,,,,,runner,,,,,,0,8,8,2,1,1,0,,,,,,,,,,,,,,,,,,,,,,,,,,,,,,,,,,,,,,,,,,,,,,,,,,,,,,,,,,,,,,,,,,,,,,,,,,,,,,,,,,,,,,,,,,,,,,,,,,,
,,,,,,,,,,stimuli/images/PICTURE_509.png,PHOTO,5b82be6543bc4900017ef3de,19/06/1947,2020-09-03_19h40.40.044,proactive2,2020.1.2,Win32,60,5f5126bb654d4b30ee6923d8,5f51388a8647e3330b433537,4,,,,,,telephone,,,,,,0,9,9,21,1,3,0,,,,,,,,,,,,,,,,,,,,,,,,,,,,,,,,,,,,,,,,,,,,,,,,,,,,,,,,,,,,,,,,,,,,,,,,,,,,,,,,,,,,,,,,,,,,,,,,,,,
,,,,,,,,,,stimuli/images/PICTURE_708.png,PENNY,5b82be6543bc4900017ef3de,19/06/1947,2020-09-03_19h40.40.044,proactive2,2020.1.2,Win32,60,5f5126bb654d4b30ee6923d8,5f51388a8647e3330b433537,4,,,,,,monkey,,,,,,0,10,10,31,1,4,0,,,,,,,,,,,,,,,,,,,,,,,,,,,,,,,,,,,,,,,,,,,,,,,,,,,,,,,,,,,,,,,,,,,,,,,,,,,,,,,,,,,,,,,,,,,,,,,,,,,
,,,,,,,,,,stimuli/images/PICTURE_654.png,VALLEY,5b82be6543bc4900017ef3de,19/06/1947,2020-09-03_19h40.40.044,proactive2,2020.1.2,Win32,60,5f5126bb654d4b30ee6923d8,5f51388a8647e3330b433537,4,,,,,,pencil,,,,,,0,11,11,1,1,1,0,,,,,,,,,,,,,,,,,,,,,,,,,,,,,,,,,,,,,,,,,,,,,,,,,,,,,,,,,,,,,,,,,,,,,,,,,,,,,,,,,,,,,,,,,,,,,,,,,,,
,,,,,,,,,,stimuli/images/PICTURE_708.png,YARD,5b82be6543bc4900017ef3de,19/06/1947,2020-09-03_19h40.40.044,proactive2,2020.1.2,Win32,60,5f5126bb654d4b30ee6923d8,5f51388a8647e3330b433537,4,,,,,,monkey,,,,,,0,12,12,29,1,3,0,,,,,,,,,,,,,,,,,,,,,,,,,,,,,,,,,,,,,,,,,,,,,,,,,,,,,,,,,,,,,,,,,,,,,,,,,,,,,,,,,,,,,,,,,,,,,,,,,,,
,,,,,,,,,,stimuli/images/PICTURE_285.png,ADVICE,5b82be6543bc4900017ef3de,19/06/1947,2020-09-03_19h40.40.044,proactive2,2020.1.2,Win32,60,5f5126bb654d4b30ee6923d8,5f51388a8647e3330b433537,4,,,,,,carrot,,,,,,0,13,13,12,1,2,0,,,,,,,,,,,,,,,,,,,,,,,,,,,,,,,,,,,,,,,,,,,,,,,,,,,,,,,,,,,,,,,,,,,,,,,,,,,,,,,,,,,,,,,,,,,,,,,,,,,
,,,,,,,,,,stimuli/images/PICTURE_248.png,DOZEN,5b82be6543bc4900017ef3de,19/06/1947,2020-09-03_19h40.40.044,proactive2,2020.1.2,Win32,60,5f5126bb654d4b30ee6923d8,5f51388a8647e3330b433537,4,,,,,,cart,,,,,,0,14,14,39,1,4,0,,,,,,,,,,,,,,,,,,,,,,,,,,,,,,,,,,,,,,,,,,,,,,,,,,,,,,,,,,,,,,,,,,,,,,,,,,,,,,,,,,,,,,,,,,,,,,,,,,,
,,,,,,,,,,stimuli/images/PICTURE_675.png,WEAPON,5b82be6543bc4900017ef3de,19/06/1947,2020-09-03_19h40.40.044,proactive2,2020.1.2,Win32,60,5f5126bb654d4b30ee6923d8,5f51388a8647e3330b433537,4,,,,,,windmill,,,,,,0,15,15,32,1,4,0,,,,,,,,,,,,,,,,,,,,,,,,,,,,,,,,,,,,,,,,,,,,,,,,,,,,,,,,,,,,,,,,,,,,,,,,,,,,,,,,,,,,,,,,,,,,,,,,,,,
,,,,,,,,,,stimuli/images/PICTURE_177.png,CARS,5b82be6543bc4900017ef3de,19/06/1947,2020-09-03_19h40.40.044,proactive2,2020.1.2,Win32,60,5f5126bb654d4b30ee6923d8,5f51388a8647e3330b433537,4,,,,,,mushroom,,,,,,0,16,16,35,1,4,0,,,,,,,,,,,,,,,,,,,,,,,,,,,,,,,,,,,,,,,,,,,,,,,,,,,,,,,,,,,,,,,,,,,,,,,,,,,,,,,,,,,,,,,,,,,,,,,,,,,
,,,,,,,,,,stimuli/images/PICTURE_233.png,WOMEN,5b82be6543bc4900017ef3de,19/06/1947,2020-09-03_19h40.40.044,proactive2,2020.1.2,Win32,60,5f5126bb654d4b30ee6923d8,5f51388a8647e3330b433537,4,,,,,,salt,,,,,,0,17,17,38,1,4,0,,,,,,,,,,,,,,,,,,,,,,,,,,,,,,,,,,,,,,,,,,,,,,,,,,,,,,,,,,,,,,,,,,,,,,,,,,,,,,,,,,,,,,,,,,,,,,,,,,,
,,,,,,,,,,stimuli/images/PICTURE_470.png,CASINO,5b82be6543bc4900017ef3de,19/06/1947,2020-09-03_19h40.40.044,proactive2,2020.1.2,Win32,60,5f5126bb654d4b30ee6923d8,5f51388a8647e3330b433537,4,,,,,,motorbike,,,,,,0,18,18,36,1,4,0,,,,,,,,,,,,,,,,,,,,,,,,,,,,,,,,,,,,,,,,,,,,,,,,,,,,,,,,,,,,,,,,,,,,,,,,,,,,,,,,,,,,,,,,,,,,,,,,,,,
,,,,,,,,,,stimuli/images/PICTURE_667.png,PLENTY,5b82be6543bc4900017ef3de,19/06/1947,2020-09-03_19h40.40.044,proactive2,2020.1.2,Win32,60,5f5126bb654d4b30ee6923d8,5f51388a8647e3330b433537,4,,,,,,daisy,,,,,,0,19,19,41,1,5,0,,,,,,,,,,,,,,,,,,,,,,,,,,,,,,,,,,,,,,,,,,,,,,,,,,,,,,,,,,,,,,,,,,,,,,,,,,,,,,,,,,,,,,,,,,,,,,,,,,,
,,,,,,,,,,stimuli/images/PICTURE_380.png,DEATH,5b82be6543bc4900017ef3de,19/06/1947,2020-09-03_19h40.40.044,proactive2,2020.1.2,Win32,60,5f5126bb654d4b30ee6923d8,5f51388a8647e3330b433537,4,,,,,,gorilla,,,,,,0,20,20,49,1,5,0,,,,,,,,,,,,,,,,,,,,,,,,,,,,,,,,,,,,,,,,,,,,,,,,,,,,,,,,,,,,,,,,,,,,,,,,,,,,,,,,,,,,,,,,,,,,,,,,,,,
,,,,,,,,,,stimuli/images/PICTURE_449.png,THING,5b82be6543bc4900017ef3de,19/06/1947,2020-09-03_19h40.40.044,proactive2,2020.1.2,Win32,60,5f5126bb654d4b30ee6923d8,5f51388a8647e3330b433537,4,,,,,,bench,,,,,,0,21,21,59,1,6,0,,,,,,,,,,,,,,,,,,,,,,,,,,,,,,,,,,,,,,,,,,,,,,,,,,,,,,,,,,,,,,,,,,,,,,,,,,,,,,,,,,,,,,,,,,,,,,,,,,,
,,,,,,,,,,stimuli/images/PICTURE_744.png,SYSTEM,5b82be6543bc4900017ef3de,19/06/1947,2020-09-03_19h40.40.044,proactive2,2020.1.2,Win32,60,5f5126bb654d4b30ee6923d8,5f51388a8647e3330b433537,4,,,,,,ring,,,,,,0,22,22,43,1,5,0,,,,,,,,,,,,,,,,,,,,,,,,,,,,,,,,,,,,,,,,,,,,,,,,,,,,,,,,,,,,,,,,,,,,,,,,,,,,,,,,,,,,,,,,,,,,,,,,,,,
,,,,,,,,,,stimuli/images/PICTURE_160.png,LEADER,5b82be6543bc4900017ef3de,19/06/1947,2020-09-03_19h40.40.044,proactive2,2020.1.2,Win32,60,5f5126bb654d4b30ee6923d8,5f51388a8647e3330b433537,4,,,,,,wheelbarrow,,,,,,0,23,23,3,1,1,0,,,,,,,,,,,,,,,,,,,,,,,,,,,,,,,,,,,,,,,,,,,,,,,,,,,,,,,,,,,,,,,,,,,,,,,,,,,,,,,,,,,,,,,,,,,,,,,,,,,
,,,,,,,,,,stimuli/images/PICTURE_380.png,PHOTO,5b82be6543bc4900017ef3de,19/06/1947,2020-09-03_19h40.40.044,proactive2,2020.1.2,Win32,60,5f5126bb654d4b30ee6923d8,5f51388a8647e3330b433537,4,,,,,,gorilla,,,,,,0,24,24,52,1,6,0,,,,,,,,,,,,,,,,,,,,,,,,,,,,,,,,,,,,,,,,,,,,,,,,,,,,,,,,,,,,,,,,,,,,,,,,,,,,,,,,,,,,,,,,,,,,,,,,,,,
,,,,,,,,,,stimuli/images/PICTURE_255.png,AREA,5b82be6543bc4900017ef3de,19/06/1947,2020-09-03_19h40.40.044,proactive2,2020.1.2,Win32,60,5f5126bb654d4b30ee6923d8,5f51388a8647e3330b433537,4,,,,,,shovel,,,,,,0,25,25,22,1,3,0,,,,,,,,,,,,,,,,,,,,,,,,,,,,,,,,,,,,,,,,,,,,,,,,,,,,,,,,,,,,,,,,,,,,,,,,,,,,,,,,,,,,,,,,,,,,,,,,,,,
,,,,,,,,,,stimuli/images/PICTURE_488.png,STYLE,5b82be6543bc4900017ef3de,19/06/1947,2020-09-03_19h40.40.044,proactive2,2020.1.2,Win32,60,5f5126bb654d4b30ee6923d8,5f51388a8647e3330b433537,4,,,,,,sun,,,,,,0,26,26,33,1,4,0,,,,,,,,,,,,,,,,,,,,,,,,,,,,,,,,,,,,,,,,,,,,,,,,,,,,,,,,,,,,,,,,,,,,,,,,,,,,,,,,,,,,,,,,,,,,,,,,,,,
,,,,,,,,,,stimuli/images/PICTURE_32.png,JUNGLE,5b82be6543bc4900017ef3de,19/06/1947,2020-09-03_19h40.40.044,proactive2,2020.1.2,Win32,60,5f5126bb654d4b30ee6923d8,5f51388a8647e3330b433537,4,,,,,,crown,,,,,,0,27,27,45,1,5,0,,,,,,,,,,,,,,,,,,,,,,,,,,,,,,,,,,,,,,,,,,,,,,,,,,,,,,,,,,,,,,,,,,,,,,,,,,,,,,,,,,,,,,,,,,,,,,,,,,,
,,,,,,,,,,stimuli/images/PICTURE_469.png,LETTER,5b82be6543bc4900017ef3de,19/06/1947,2020-09-03_19h40.40.044,proactive2,2020.1.2,Win32,60,5f5126bb654d4b30ee6923d8,5f51388a8647e3330b433537,4,,,,,,stool,,,,,,0,28,28,42,1,5,0,,,,,,,,,,,,,,,,,,,,,,,,,,,,,,,,,,,,,,,,,,,,,,,,,,,,,,,,,,,,,,,,,,,,,,,,,,,,,,,,,,,,,,,,,,,,,,,,,,,
,,,,,,,,,,stimuli/images/PICTURE_487.png,FLIGHT,5b82be6543bc4900017ef3de,19/06/1947,2020-09-03_19h40.40.044,proactive2,2020.1.2,Win32,60,5f5126bb654d4b30ee6923d8,5f51388a8647e3330b433537,4,,,,,,basket,,,,,,0,29,29,9,1,1,0,,,,,,,,,,,,,,,,,,,,,,,,,,,,,,,,,,,,,,,,,,,,,,,,,,,,,,,,,,,,,,,,,,,,,,,,,,,,,,,,,,,,,,,,,,,,,,,,,,,
,,,,,,,,,,stimuli/images/PICTURE_123.png,ADVICE,5b82be6543bc4900017ef3de,19/06/1947,2020-09-03_19h40.40.044,proactive2,2020.1.2,Win32,60,5f5126bb654d4b30ee6923d8,5f51388a8647e3330b433537,4,,,,,,dart,,,,,,0,30,30,40,1,5,0,,,,,,,,,,,,,,,,,,,,,,,,,,,,,,,,,,,,,,,,,,,,,,,,,,,,,,,,,,,,,,,,,,,,,,,,,,,,,,,,,,,,,,,,,,,,,,,,,,,
,,,,,,,,,,stimuli/images/PICTURE_151.png,GIRL,5b82be6543bc4900017ef3de,19/06/1947,2020-09-03_19h40.40.044,proactive2,2020.1.2,Win32,60,5f5126bb654d4b30ee6923d8,5f51388a8647e3330b433537,4,,,,,,tray,,,,,,0,31,31,19,1,2,0,,,,,,,,,,,,,,,,,,,,,,,,,,,,,,,,,,,,,,,,,,,,,,,,,,,,,,,,,,,,,,,,,,,,,,,,,,,,,,,,,,,,,,,,,,,,,,,,,,,
,,,,,,,,,,stimuli/images/PICTURE_491.png,WRITER,5b82be6543bc4900017ef3de,19/06/1947,2020-09-03_19h40.40.044,proactive2,2020.1.2,Win32,60,5f5126bb654d4b30ee6923d8,5f51388a8647e3330b433537,4,,,,,,rug,,,,,,0,32,32,57,1,6,0,,,,,,,,,,,,,,,,,,,,,,,,,,,,,,,,,,,,,,,,,,,,,,,,,,,,,,,,,,,,,,,,,,,,,,,,,,,,,,,,,,,,,,,,,,,,,,,,,,,
,,,,,,,,,,stimuli/images/PICTURE_308.png,KIND,5b82be6543bc4900017ef3de,19/06/1947,2020-09-03_19h40.40.044,proactive2,2020.1.2,Win32,60,5f5126bb654d4b30ee6923d8,5f51388a8647e3330b433537,4,,,,,,dice,,,,,,0,33,33,54,1,6,0,,,,,,,,,,,,,,,,,,,,,,,,,,,,,,,,,,,,,,,,,,,,,,,,,,,,,,,,,,,,,,,,,,,,,,,,,,,,,,,,,,,,,,,,,,,,,,,,,,,
,,,,,,,,,,stimuli/images/PICTURE_504.png,BODY,5b82be6543bc4900017ef3de,19/06/1947,2020-09-03_19h40.40.044,proactive2,2020.1.2,Win32,60,5f5126bb654d4b30ee6923d8,5f51388a8647e3330b433537,4,,,,,,wheel,,,,,,0,34,34,8,1,1,0,,,,,,,,,,,,,,,,,,,,,,,,,,,,,,,,,,,,,,,,,,,,,,,,,,,,,,,,,,,,,,,,,,,,,,,,,,,,,,,,,,,,,,,,,,,,,,,,,,,
,,,,,,,,,,stimuli/images/PICTURE_233.png,IDEAS,5b82be6543bc4900017ef3de,19/06/1947,2020-09-03_19h40.40.044,proactive2,2020.1.2,Win32,60,5f5126bb654d4b30ee6923d8,5f51388a8647e3330b433537,4,,,,,,salt,,,,,,0,35,35,28,1,3,0,,,,,,,,,,,,,,,,,,,,,,,,,,,,,,,,,,,,,,,,,,,,,,,,,,,,,,,,,,,,,,,,,,,,,,,,,,,,,,,,,,,,,,,,,,,,,,,,,,,
,,,,,,,,,,stimuli/images/PICTURE_203.png,ARTIST,5b82be6543bc4900017ef3de,19/06/1947,2020-09-03_19h40.40.044,proactive2,2020.1.2,Win32,60,5f5126bb654d4b30ee6923d8,5f51388a8647e3330b433537,4,,,,,,cap,,,,,,0,36,36,26,1,3,0,,,,,,,,,,,,,,,,,,,,,,,,,,,,,,,,,,,,,,,,,,,,,,,,,,,,,,,,,,,,,,,,,,,,,,,,,,,,,,,,,,,,,,,,,,,,,,,,,,,
,,,,,,,,,,stimuli/images/PICTURE_314.png,GODS,5b82be6543bc4900017ef3de,19/06/1947,2020-09-03_19h40.40.044,proactive2,2020.1.2,Win32,60,5f5126bb654d4b30ee6923d8,5f51388a8647e3330b433537,4,,,,,,perfume,,,,,,0,37,37,11,1,2,0,,,,,,,,,,,,,,,,,,,,,,,,,,,,,,,,,,,,,,,,,,,,,,,,,,,,,,,,,,,,,,,,,,,,,,,,,,,,,,,,,,,,,,,,,,,,,,,,,,,
,,,,,,,,,,stimuli/images/PICTURE_708.png,CLIENT,5b82be6543bc4900017ef3de,19/06/1947,2020-09-03_19h40.40.044,proactive2,2020.1.2,Win32,60,5f5126bb654d4b30ee6923d8,5f51388a8647e3330b433537,4,,,,,,monkey,,,,,,0,38,38,5,1,1,0,,,,,,,,,,,,,,,,,,,,,,,,,,,,,,,,,,,,,,,,,,,,,,,,,,,,,,,,,,,,,,,,,,,,,,,,,,,,,,,,,,,,,,,,,,,,,,,,,,,
,,,,,,,,,,stimuli/images/PICTURE_491.png,ROOF,5b82be6543bc4900017ef3de,19/06/1947,2020-09-03_19h40.40.044,proactive2,2020.1.2,Win32,60,5f5126bb654d4b30ee6923d8,5f51388a8647e3330b433537,4,,,,,,rug,,,,,,0,39,39,24,1,3,0,,,,,,,,,,,,,,,,,,,,,,,,,,,,,,,,,,,,,,,,,,,,,,,,,,,,,,,,,,,,,,,,,,,,,,,,,,,,,,,,,,,,,,,,,,,,,,,,,,,
,,,,,,,,,,stimuli/images/PICTURE_692.png,MONTH,5b82be6543bc4900017ef3de,19/06/1947,2020-09-03_19h40.40.044,proactive2,2020.1.2,Win32,60,5f5126bb654d4b30ee6923d8,5f51388a8647e3330b433537,4,,,,,,cherry,,,,,,0,40,40,16,1,2,0,,,,,,,,,,,,,,,,,,,,,,,,,,,,,,,,,,,,,,,,,,,,,,,,,,,,,,,,,,,,,,,,,,,,,,,,,,,,,,,,,,,,,,,,,,,,,,,,,,,
,,,,,,,,,,stimuli/images/PICTURE_356.png,DANGER,5b82be6543bc4900017ef3de,19/06/1947,2020-09-03_19h40.40.044,proactive2,2020.1.2,Win32,60,5f5126bb654d4b30ee6923d8,5f51388a8647e3330b433537,4,,,,,,pawn,,,,,,0,41,41,55,1,6,0,,,,,,,,,,,,,,,,,,,,,,,,,,,,,,,,,,,,,,,,,,,,,,,,,,,,,,,,,,,,,,,,,,,,,,,,,,,,,,,,,,,,,,,,,,,,,,,,,,,
,,,,,,,,,,stimuli/images/PICTURE_339.png,PLENTY,5b82be6543bc4900017ef3de,19/06/1947,2020-09-03_19h40.40.044,proactive2,2020.1.2,Win32,60,5f5126bb654d4b30ee6923d8,5f51388a8647e3330b433537,4,,,,,,backpack,,,,,,0,42,42,0,1,1,0,,,,,,,,,,,,,,,,,,,,,,,,,,,,,,,,,,,,,,,,,,,,,,,,,,,,,,,,,,,,,,,,,,,,,,,,,,,,,,,,,,,,,,,,,,,,,,,,,,,
,,,,,,,,,,stimuli/images/PICTURE_123.png,ADVICE,5b82be6543bc4900017ef3de,19/06/1947,2020-09-03_19h40.40.044,proactive2,2020.1.2,Win32,60,5f5126bb654d4b30ee6923d8,5f51388a8647e3330b433537,4,,,,,,dart,,,,,,0,43,43,50,1,6,0,,,,,,,,,,,,,,,,,,,,,,,,,,,,,,,,,,,,,,,,,,,,,,,,,,,,,,,,,,,,,,,,,,,,,,,,,,,,,,,,,,,,,,,,,,,,,,,,,,,
,,,,,,,,,,stimuli/images/PICTURE_95.png,STYLE,5b82be6543bc4900017ef3de,19/06/1947,2020-09-03_19h40.40.044,proactive2,2020.1.2,Win32,60,5f5126bb654d4b30ee6923d8,5f51388a8647e3330b433537,4,,,,,,suitcase,,,,,,0,44,44,25,1,3,0,,,,,,,,,,,,,,,,,,,,,,,,,,,,,,,,,,,,,,,,,,,,,,,,,,,,,,,,,,,,,,,,,,,,,,,,,,,,,,,,,,,,,,,,,,,,,,,,,,,
,,,,,,,,,,stimuli/images/PICTURE_327.png,BEAUTY,5b82be6543bc4900017ef3de,19/06/1947,2020-09-03_19h40.40.044,proactive2,2020.1.2,Win32,60,5f5126bb654d4b30ee6923d8,5f51388a8647e3330b433537,4,,,,,,helmet,,,,,,0,45,45,48,1,5,0,,,,,,,,,,,,,,,,,,,,,,,,,,,,,,,,,,,,,,,,,,,,,,,,,,,,,,,,,,,,,,,,,,,,,,,,,,,,,,,,,,,,,,,,,,,,,,,,,,,
,,,,,,,,,,stimuli/images/PICTURE_147.png,MOMENT,5b82be6543bc4900017ef3de,19/06/1947,2020-09-03_19h40.40.044,proactive2,2020.1.2,Win32,60,5f5126bb654d4b30ee6923d8,5f51388a8647e3330b433537,4,,,,,,hanger,,,,,,0,46,46,51,1,6,0,,,,,,,,,,,,,,,,,,,,,,,,,,,,,,,,,,,,,,,,,,,,,,,,,,,,,,,,,,,,,,,,,,,,,,,,,,,,,,,,,,,,,,,,,,,,,,,,,,,
,,,,,,,,,,stimuli/images/PICTURE_160.png,FEET,5b82be6543bc4900017ef3de,19/06/1947,2020-09-03_19h40.40.044,proactive2,2020.1.2,Win32,60,5f5126bb654d4b30ee6923d8,5f51388a8647e3330b433537,4,,,,,,wheelbarrow,,,,,,0,47,47,58,1,6,0,,,,,,,,,,,,,,,,,,,,,,,,,,,,,,,,,,,,,,,,,,,,,,,,,,,,,,,,,,,,,,,,,,,,,,,,,,,,,,,,,,,,,,,,,,,,,,,,,,,
,,,,,,,,,,stimuli/images/PICTURE_677.png,MILE,5b82be6543bc4900017ef3de,19/06/1947,2020-09-03_19h40.40.044,proactive2,2020.1.2,Win32,60,5f5126bb654d4b30ee6923d8,5f51388a8647e3330b433537,4,,,,,,map,,,,,,0,48,48,30,1,4,0,,,,,,,,,,,,,,,,,,,,,,,,,,,,,,,,,,,,,,,,,,,,,,,,,,,,,,,,,,,,,,,,,,,,,,,,,,,,,,,,,,,,,,,,,,,,,,,,,,,
,,,,,,,,,,stimuli/images/PICTURE_314.png,SAKE,5b82be6543bc4900017ef3de,19/06/1947,2020-09-03_19h40.40.044,proactive2,2020.1.2,Win32,60,5f5126bb654d4b30ee6923d8,5f51388a8647e3330b433537,4,,,,,,perfume,,,,,,0,49,49,7,1,1,0,,,,,,,,,,,,,,,,,,,,,,,,,,,,,,,,,,,,,,,,,,,,,,,,,,,,,,,,,,,,,,,,,,,,,,,,,,,,,,,,,,,,,,,,,,,,,,,,,,,
,,,,,,,,,,stimuli/images/PICTURE_85.png,THING,5b82be6543bc4900017ef3de,19/06/1947,2020-09-03_19h40.40.044,proactive2,2020.1.2,Win32,60,5f5126bb654d4b30ee6923d8,5f51388a8647e3330b433537,4,,,,,,diamond,,,,,,0,50,50,15,1,2,0,,,,,,,,,,,,,,,,,,,,,,,,,,,,,,,,,,,,,,,,,,,,,,,,,,,,,,,,,,,,,,,,,,,,,,,,,,,,,,,,,,,,,,,,,,,,,,,,,,,
,,,,,,,,,,stimuli/images/PICTURE_744.png,SAKE,5b82be6543bc4900017ef3de,19/06/1947,2020-09-03_19h40.40.044,proactive2,2020.1.2,Win32,60,5f5126bb654d4b30ee6923d8,5f51388a8647e3330b433537,4,,,,,,ring,,,,,,0,51,51,17,1,2,0,,,,,,,,,,,,,,,,,,,,,,,,,,,,,,,,,,,,,,,,,,,,,,,,,,,,,,,,,,,,,,,,,,,,,,,,,,,,,,,,,,,,,,,,,,,,,,,,,,,
,,,,,,,,,,stimuli/images/PICTURE_311.png,FRIEND,5b82be6543bc4900017ef3de,19/06/1947,2020-09-03_19h40.40.044,proactive2,2020.1.2,Win32,60,5f5126bb654d4b30ee6923d8,5f51388a8647e3330b433537,4,,,,,,razor,,,,,,0,52,52,34,1,4,0,,,,,,,,,,,,,,,,,,,,,,,,,,,,,,,,,,,,,,,,,,,,,,,,,,,,,,,,,,,,,,,,,,,,,,,,,,,,,,,,,,,,,,,,,,,,,,,,,,,
,,,,,,,,,,stimuli/images/PICTURE_215.png,PLENTY,5b82be6543bc4900017ef3de,19/06/1947,2020-09-03_19h40.40.044,proactive2,2020.1.2,Win32,60,5f5126bb654d4b30ee6923d8,5f51388a8647e3330b433537,4,,,,,,boot,,,,,,0,53,53,37,1,4,0,,,,,,,,,,,,,,,,,,,,,,,,,,,,,,,,,,,,,,,,,,,,,,,,,,,,,,,,,,,,,,,,,,,,,,,,,,,,,,,,,,,,,,,,,,,,,,,,,,,
,,,,,,,,,,stimuli/images/PICTURE_302.png,FAMILY,5b82be6543bc4900017ef3de,19/06/1947,2020-09-03_19h40.40.044,proactive2,2020.1.2,Win32,60,5f5126bb654d4b30ee6923d8,5f51388a8647e3330b433537,4,,,,,,taxi,,,,,,0,54,54,18,1,2,0,,,,,,,,,,,,,,,,,,,,,,,,,,,,,,,,,,,,,,,,,,,,,,,,,,,,,,,,,,,,,,,,,,,,,,,,,,,,,,,,,,,,,,,,,,,,,,,,,,,
,,,,,,,,,,stimuli/images/PICTURE_667.png,BATH,5b82be6543bc4900017ef3de,19/06/1947,2020-09-03_19h40.40.044,proactive2,2020.1.2,Win32,60,5f5126bb654d4b30ee6923d8,5f51388a8647e3330b433537,4,,,,,,daisy,,,,,,0,55,55,4,1,1,0,,,,,,,,,,,,,,,,,,,,,,,,,,,,,,,,,,,,,,,,,,,,,,,,,,,,,,,,,,,,,,,,,,,,,,,,,,,,,,,,,,,,,,,,,,,,,,,,,,,
,,,,,,,,,,stimuli/images/PICTURE_469.png,ARTIST,5b82be6543bc4900017ef3de,19/06/1947,2020-09-03_19h40.40.044,proactive2,2020.1.2,Win32,60,5f5126bb654d4b30ee6923d8,5f51388a8647e3330b433537,4,,,,,,stool,,,,,,0,56,56,6,1,1,0,,,,,,,,,,,,,,,,,,,,,,,,,,,,,,,,,,,,,,,,,,,,,,,,,,,,,,,,,,,,,,,,,,,,,,,,,,,,,,,,,,,,,,,,,,,,,,,,,,,
,,,,,,,,,,stimuli/images/PICTURE_348.png,SPEECH,5b82be6543bc4900017ef3de,19/06/1947,2020-09-03_19h40.40.044,proactive2,2020.1.2,Win32,60,5f5126bb654d4b30ee6923d8,5f51388a8647e3330b433537,4,,,,,,pepper,,,,,,0,57,57,20,1,3,0,,,,,,,,,,,,,,,,,,,,,,,,,,,,,,,,,,,,,,,,,,,,,,,,,,,,,,,,,,,,,,,,,,,,,,,,,,,,,,,,,,,,,,,,,,,,,,,,,,,
,,,,,,,,,,stimuli/images/PICTURE_453.png,PLENTY,5b82be6543bc4900017ef3de,19/06/1947,2020-09-03_19h40.40.044,proactive2,2020.1.2,Win32,60,5f5126bb654d4b30ee6923d8,5f51388a8647e3330b433537,4,,,,,,scissors,,,,,,0,58,58,56,1,6,0,,,,,,,,,,,,,,,,,,,,,,,,,,,,,,,,,,,,,,,,,,,,,,,,,,,,,,,,,,,,,,,,,,,,,,,,,,,,,,,,,,,,,,,,,,,,,,,,,,,
,,?,0.00086,0,,,,,,stimuli/images/PICTURE_123.png,ADVICE,5b82be6543bc4900017ef3de,19/06/1947,2020-09-03_19h40.40.044,proactive2,2020.1.2,Win32,60,5f5126bb654d4b30ee6923d8,5f51388a8647e3330b433537,4,,,,,,dart,,,,,,,,,,,6,0,0,0,0,50,1,,,,,,,,,,,,,,,,,,,,,,,,,,,,,,,,,,,,,,,,,,,,,,,,,,,,,,,,,,,,,,,,,,,,,,,,,,,,,,,,,,,,,,,,,,,,,,
,,?,0.000405,0,,,,,,stimuli/images/PICTURE_311.png,BEAUTY,5b82be6543bc4900017ef3de,19/06/1947,2020-09-03_19h40.40.044,proactive2,2020.1.2,Win32,60,5f5126bb654d4b30ee6923d8,5f51388a8647e3330b433537,4,,,,,,razor,,,,,,,,,,,2,0,0,1,1,13,1,,,,,,,,,,,,,,,,,,,,,,,,,,,,,,,,,,,,,,,,,,,,,,,,,,,,,,,,,,,,,,,,,,,,,,,,,,,,,,,,,,,,,,,,,,,,,,
,,?,0.0004,0,,,,,,stimuli/images/PICTURE_255.png,AREA,5b82be6543bc4900017ef3de,19/06/1947,2020-09-03_19h40.40.044,proactive2,2020.1.2,Win32,60,5f5126bb654d4b30ee6923d8,5f51388a8647e3330b433537,4,,,,,,shovel,,,,,,,,,,,3,0,0,2,2,22,1,,,,,,,,,,,,,,,,,,,,,,,,,,,,,,,,,,,,,,,,,,,,,,,,,,,,,,,,,,,,,,,,,,,,,,,,,,,,,,,,,,,,,,,,,,,,,,
,,?,0.00037,0,,,,,,stimuli/images/PICTURE_327.png,BEAUTY,5b82be6543bc4900017ef3de,19/06/1947,2020-09-03_19h40.40.044,proactive2,2020.1.2,Win32,60,5f5126bb654d4b30ee6923d8,5f51388a8647e3330b433537,4,,,,,,helmet,,,,,,,,,,,5,0,0,3,3,48,1,,,,,,,,,,,,,,,,,,,,,,,,,,,,,,,,,,,,,,,,,,,,,,,,,,,,,,,,,,,,,,,,,,,,,,,,,,,,,,,,,,,,,,,,,,,,,,
,,CARS,2.74736,1,,,,,,stimuli/images/PICTURE_177.png,CARS,5b82be6543bc4900017ef3de,19/06/1947,2020-09-03_19h40.40.044,proactive2,2020.1.2,Win32,60,5f5126bb654d4b30ee6923d8,5f51388a8647e3330b433537,4,,,,,,mushroom,,,,,,,,,,,4,0,0,4,4,35,1,,,,,,,,,,,,,,,,,,,,,,,,,,,,,,,,,,,,,,,,,,,,,,,,,,,,,,,,,,,,,,,,,,,,,,,,,,,,,,,,,,,,,,,,,,,,,,
,,?,0.00082,0,,,,,,stimuli/images/PICTURE_160.png,LEADER,5b82be6543bc4900017ef3de,19/06/1947,2020-09-03_19h40.40.044,proactive2,2020.1.2,Win32,60,5f5126bb654d4b30ee6923d8,5f51388a8647e3330b433537,4,,,,,,wheelbarrow,,,,,,,,,,,1,0,0,5,5,3,1,,,,,,,,,,,,,,,,,,,,,,,,,,,,,,,,,,,,,,,,,,,,,,,,,,,,,,,,,,,,,,,,,,,,,,,,,,,,,,,,,,,,,,,,,,,,,,
,,BAKER,4.107375,0,,,,,,stimuli/images/PICTURE_248.png,DOZEN,5b82be6543bc4900017ef3de,19/06/1947,2020-09-03_19h40.40.044,proactive2,2020.1.2,Win32,60,5f5126bb654d4b30ee6923d8,5f51388a8647e3330b433537,4,,,,,,cart,,,,,,,,,,,4,0,0,6,6,39,1,,,,,,,,,,,,,,,,,,,,,,,,,,,,,,,,,,,,,,,,,,,,,,,,,,,,,,,,,,,,,,,,,,,,,,,,,,,,,,,,,,,,,,,,,,,,,,
,,?,0.000685,0,,,,,,stimuli/images/PICTURE_744.png,SAKE,5b82be6543bc4900017ef3de,19/06/1947,2020-09-03_19h40.40.044,proactive2,2020.1.2,Win32,60,5f5126bb654d4b30ee6923d8,5f51388a8647e3330b433537,4,,,,,,ring,,,,,,,,,,,2,0,0,7,7,17,1,,,,,,,,,,,,,,,,,,,,,,,,,,,,,,,,,,,,,,,,,,,,,,,,,,,,,,,,,,,,,,,,,,,,,,,,,,,,,,,,,,,,,,,,,,,,,,
,,MILE,2.50264,1,,,,,,stimuli/images/PICTURE_677.png,MILE,5b82be6543bc4900017ef3de,19/06/1947,2020-09-03_19h40.40.044,proactive2,2020.1.2,Win32,60,5f5126bb654d4b30ee6923d8,5f51388a8647e3330b433537,4,,,,,,map,,,,,,,,,,,4,0,0,8,8,30,1,,,,,,,,,,,,,,,,,,,,,,,,,,,,,,,,,,,,,,,,,,,,,,,,,,,,,,,,,,,,,,,,,,,,,,,,,,,,,,,,,,,,,,,,,,,,,,
,,?,0.00092,0,,,,,,stimuli/images/PICTURE_467.png,DEMON,5b82be6543bc4900017ef3de,19/06/1947,2020-09-03_19h40.40.044,proactive2,2020.1.2,Win32,60,5f5126bb654d4b30ee6923d8,5f51388a8647e3330b433537,4,,,,,,peg,,,,,,,,,,,3,0,0,9,9,23,1,,,,,,,,,,,,,,,,,,,,,,,,,,,,,,,,,,,,,,,,,,,,,,,,,,,,,,,,,,,,,,,,,,,,,,,,,,,,,,,,,,,,,,,,,,,,,,
,,?,0.0004,0,,,,,,stimuli/images/PICTURE_32.png,JUNGLE,5b82be6543bc4900017ef3de,19/06/1947,2020-09-03_19h40.40.044,proactive2,2020.1.2,Win32,60,5f5126bb654d4b30ee6923d8,5f51388a8647e3330b433537,4,,,,,,crown,,,,,,,,,,,5,0,0,10,10,45,1,,,,,,,,,,,,,,,,,,,,,,,,,,,,,,,,,,,,,,,,,,,,,,,,,,,,,,,,,,,,,,,,,,,,,,,,,,,,,,,,,,,,,,,,,,,,,,
,,?,0.000375,0,,,,,,stimuli/images/PICTURE_348.png,SPEECH,5b82be6543bc4900017ef3de,19/06/1947,2020-09-03_19h40.40.044,proactive2,2020.1.2,Win32,60,5f5126bb654d4b30ee6923d8,5f51388a8647e3330b433537,4,,,,,,pepper,,,,,,,,,,,3,0,0,11,11,20,1,,,,,,,,,,,,,,,,,,,,,,,,,,,,,,,,,,,,,,,,,,,,,,,,,,,,,,,,,,,,,,,,,,,,,,,,,,,,,,,,,,,,,,,,,,,,,,
,,?,0.000375,0,,,,,,stimuli/images/PICTURE_491.png,ROOF,5b82be6543bc4900017ef3de,19/06/1947,2020-09-03_19h40.40.044,proactive2,2020.1.2,Win32,60,5f5126bb654d4b30ee6923d8,5f51388a8647e3330b433537,4,,,,,,rug,,,,,,,,,,,3,0,0,12,12,24,1,,,,,,,,,,,,,,,,,,,,,,,,,,,,,,,,,,,,,,,,,,,,,,,,,,,,,,,,,,,,,,,,,,,,,,,,,,,,,,,,,,,,,,,,,,,,,,
,,?,0.000355,0,,,,,,stimuli/images/PICTURE_469.png,ARTIST,5b82be6543bc4900017ef3de,19/06/1947,2020-09-03_19h40.40.044,proactive2,2020.1.2,Win32,60,5f5126bb654d4b30ee6923d8,5f51388a8647e3330b433537,4,,,,,,stool,,,,,,,,,,,1,0,0,13,13,6,1,,,,,,,,,,,,,,,,,,,,,,,,,,,,,,,,,,,,,,,,,,,,,,,,,,,,,,,,,,,,,,,,,,,,,,,,,,,,,,,,,,,,,,,,,,,,,,
,,?,0.00045,0,,,,,,stimuli/images/PICTURE_692.png,MONTH,5b82be6543bc4900017ef3de,19/06/1947,2020-09-03_19h40.40.044,proactive2,2020.1.2,Win32,60,5f5126bb654d4b30ee6923d8,5f51388a8647e3330b433537,4,,,,,,cherry,,,,,,,,,,,2,0,0,14,14,16,1,,,,,,,,,,,,,,,,,,,,,,,,,,,,,,,,,,,,,,,,,,,,,,,,,,,,,,,,,,,,,,,,,,,,,,,,,,,,,,,,,,,,,,,,,,,,,,
,,?,0.00036,0,,,,,,stimuli/images/PICTURE_308.png,KIND,5b82be6543bc4900017ef3de,19/06/1947,2020-09-03_19h40.40.044,proactive2,2020.1.2,Win32,60,5f5126bb654d4b30ee6923d8,5f51388a8647e3330b433537,4,,,,,,dice,,,,,,,,,,,6,0,0,15,15,54,1,,,,,,,,,,,,,,,,,,,,,,,,,,,,,,,,,,,,,,,,,,,,,,,,,,,,,,,,,,,,,,,,,,,,,,,,,,,,,,,,,,,,,,,,,,,,,,
,,?,0.00035,0,,,,,,stimuli/images/PICTURE_314.png,GODS,5b82be6543bc4900017ef3de,19/06/1947,2020-09-03_19h40.40.044,proactive2,2020.1.2,Win32,60,5f5126bb654d4b30ee6923d8,5f51388a8647e3330b433537,4,,,,,,perfume,,,,,,,,,,,2,0,0,16,16,11,1,,,,,,,,,,,,,,,,,,,,,,,,,,,,,,,,,,,,,,,,,,,,,,,,,,,,,,,,,,,,,,,,,,,,,,,,,,,,,,,,,,,,,,,,,,,,,,
,,?,0.00035,0,,,,,,stimuli/images/PICTURE_356.png,DANGER,5b82be6543bc4900017ef3de,19/06/1947,2020-09-03_19h40.40.044,proactive2,2020.1.2,Win32,60,5f5126bb654d4b30ee6923d8,5f51388a8647e3330b433537,4,,,,,,pawn,,,,,,,,,,,6,0,0,17,17,55,1,,,,,,,,,,,,,,,,,,,,,,,,,,,,,,,,,,,,,,,,,,,,,,,,,,,,,,,,,,,,,,,,,,,,,,,,,,,,,,,,,,,,,,,,,,,,,,
,,?,0.000345,0,,,,,,stimuli/images/PICTURE_380.png,DEATH,5b82be6543bc4900017ef3de,19/06/1947,2020-09-03_19h40.40.044,proactive2,2020.1.2,Win32,60,5f5126bb654d4b30ee6923d8,5f51388a8647e3330b433537,4,,,,,,gorilla,,,,,,,,,,,5,0,0,18,18,49,1,,,,,,,,,,,,,,,,,,,,,,,,,,,,,,,,,,,,,,,,,,,,,,,,,,,,,,,,,,,,,,,,,,,,,,,,,,,,,,,,,,,,,,,,,,,,,,
,,PENNY,3.377745,1,,,,,,stimuli/images/PICTURE_708.png,PENNY,5b82be6543bc4900017ef3de,19/06/1947,2020-09-03_19h40.40.044,proactive2,2020.1.2,Win32,60,5f5126bb654d4b30ee6923d8,5f51388a8647e3330b433537,4,,,,,,monkey,,,,,,,,,,,4,0,0,19,19,31,1,,,,,,,,,,,,,,,,,,,,,,,,,,,,,,,,,,,,,,,,,,,,,,,,,,,,,,,,,,,,,,,,,,,,,,,,,,,,,,,,,,,,,,,,,,,,,,
,,STYLE,3.10529,1,,,,,,stimuli/images/PICTURE_488.png,STYLE,5b82be6543bc4900017ef3de,19/06/1947,2020-09-03_19h40.40.044,proactive2,2020.1.2,Win32,60,5f5126bb654d4b30ee6923d8,5f51388a8647e3330b433537,4,,,,,,sun,,,,,,,,,,,4,0,0,20,20,33,1,,,,,,,,,,,,,,,,,,,,,,,,,,,,,,,,,,,,,,,,,,,,,,,,,,,,,,,,,,,,,,,,,,,,,,,,,,,,,,,,,,,,,,,,,,,,,,
,,?,0.00063,0,,,,,,stimuli/images/PICTURE_302.png,FAMILY,5b82be6543bc4900017ef3de,19/06/1947,2020-09-03_19h40.40.044,proactive2,2020.1.2,Win32,60,5f5126bb654d4b30ee6923d8,5f51388a8647e3330b433537,4,,,,,,taxi,,,,,,,,,,,2,0,0,21,21,18,1,,,,,,,,,,,,,,,,,,,,,,,,,,,,,,,,,,,,,,,,,,,,,,,,,,,,,,,,,,,,,,,,,,,,,,,,,,,,,,,,,,,,,,,,,,,,,,
,,?,0.000405,0,,,,,,stimuli/images/PICTURE_308.png,ESTATE,5b82be6543bc4900017ef3de,19/06/1947,2020-09-03_19h40.40.044,proactive2,2020.1.2,Win32,60,5f5126bb654d4b30ee6923d8,5f51388a8647e3330b433537,4,,,,,,dice,,,,,,,,,,,5,0,0,22,22,46,1,,,,,,,,,,,,,,,,,,,,,,,,,,,,,,,,,,,,,,,,,,,,,,,,,,,,,,,,,,,,,,,,,,,,,,,,,,,,,,,,,,,,,,,,,,,,,,
,,?,0.00038,0,,,,,,stimuli/images/PICTURE_208.png,MONTH,5b82be6543bc4900017ef3de,19/06/1947,2020-09-03_19h40.40.044,proactive2,2020.1.2,Win32,60,5f5126bb654d4b30ee6923d8,5f51388a8647e3330b433537,4,,,,,,microphone,,,,,,,,,,,6,0,0,23,23,53,1,,,,,,,,,,,,,,,,,,,,,,,,,,,,,,,,,,,,,,,,,,,,,,,,,,,,,,,,,,,,,,,,,,,,,,,,,,,,,,,,,,,,,,,,,,,,,,
,,?,0.00045,0,,,,,,stimuli/images/PICTURE_147.png,MOMENT,5b82be6543bc4900017ef3de,19/06/1947,2020-09-03_19h40.40.044,proactive2,2020.1.2,Win32,60,5f5126bb654d4b30ee6923d8,5f51388a8647e3330b433537,4,,,,,,hanger,,,,,,,,,,,6,0,0,24,24,51,1,,,,,,,,,,,,,,,,,,,,,,,,,,,,,,,,,,,,,,,,,,,,,,,,,,,,,,,,,,,,,,,,,,,,,,,,,,,,,,,,,,,,,,,,,,,,,,
,,?,0.000355,0,,,,,,stimuli/images/PICTURE_208.png,THING,5b82be6543bc4900017ef3de,19/06/1947,2020-09-03_19h40.40.044,proactive2,2020.1.2,Win32,60,5f5126bb654d4b30ee6923d8,5f51388a8647e3330b433537,4,,,,,,microphone,,,,,,,,,,,5,0,0,25,25,47,1,,,,,,,,,,,,,,,,,,,,,,,,,,,,,,,,,,,,,,,,,,,,,,,,,,,,,,,,,,,,,,,,,,,,,,,,,,,,,,,,,,,,,,,,,,,,,,
,,PLENTY,6.82535,1,,,,,,stimuli/images/PICTURE_215.png,PLENTY,5b82be6543bc4900017ef3de,19/06/1947,2020-09-03_19h40.40.044,proactive2,2020.1.2,Win32,60,5f5126bb654d4b30ee6923d8,5f51388a8647e3330b433537,4,,,,,,boot,,,,,,,,,,,4,0,0,26,26,37,1,,,,,,,,,,,,,,,,,,,,,,,,,,,,,,,,,,,,,,,,,,,,,,,,,,,,,,,,,,,,,,,,,,,,,,,,,,,,,,,,,,,,,,,,,,,,,,
,,?,0.001435,0,,,,,,stimuli/images/PICTURE_491.png,WRITER,5b82be6543bc4900017ef3de,19/06/1947,2020-09-03_19h40.40.044,proactive2,2020.1.2,Win32,60,5f5126bb654d4b30ee6923d8,5f51388a8647e3330b433537,4,,,,,,rug,,,,,,,,,,,6,0,0,27,27,57,1,,,,,,,,,,,,,,,,,,,,,,,,,,,,,,,,,,,,,,,,,,,,,,,,,,,,,,,,,,,,,,,,,,,,,,,,,,,,,,,,,,,,,,,,,,,,,,
,,?,0.00042,0,,,,,,stimuli/images/PICTURE_95.png,STYLE,5b82be6543bc4900017ef3de,19/06/1947,2020-09-03_19h40.40.044,proactive2,2020.1.2,Win32,60,5f5126bb654d4b30ee6923d8,5f51388a8647e3330b433537,4,,,,,,suitcase,,,,,,,,,,,3,0,0,28,28,25,1,,,,,,,,,,,,,,,,,,,,,,,,,,,,,,,,,,,,,,,,,,,,,,,,,,,,,,,,,,,,,,,,,,,,,,,,,,,,,,,,,,,,,,,,,,,,,,
,,?,0.000415,0,,,,,,stimuli/images/PICTURE_654.png,VALLEY,5b82be6543bc4900017ef3de,19/06/1947,2020-09-03_19h40.40.044,proactive2,2020.1.2,Win32,60,5f5126bb654d4b30ee6923d8,5f51388a8647e3330b433537,4,,,,,,pencil,,,,,,,,,,,1,0,0,29,29,1,1,,,,,,,,,,,,,,,,,,,,,,,,,,,,,,,,,,,,,,,,,,,,,,,,,,,,,,,,,,,,,,,,,,,,,,,,,,,,,,,,,,,,,,,,,,,,,,
,,?,0.00033,0,,,,,,stimuli/images/PICTURE_487.png,FLIGHT,5b82be6543bc4900017ef3de,19/06/1947,2020-09-03_19h40.40.044,proactive2,2020.1.2,Win32,60,5f5126bb654d4b30ee6923d8,5f51388a8647e3330b433537,4,,,,,,basket,,,,,,,,,,,1,0,0,30,30,9,1,,,,,,,,,,,,,,,,,,,,,,,,,,,,,,,,,,,,,,,,,,,,,,,,,,,,,,,,,,,,,,,,,,,,,,,,,,,,,,,,,,,,,,,,,,,,,,
,,?,0.000325,0,,,,,,stimuli/images/PICTURE_504.png,BODY,5b82be6543bc4900017ef3de,19/06/1947,2020-09-03_19h40.40.044,proactive2,2020.1.2,Win32,60,5f5126bb654d4b30ee6923d8,5f51388a8647e3330b433537,4,,,,,,wheel,,,,,,,,,,,1,0,0,31,31,8,1,,,,,,,,,,,,,,,,,,,,,,,,,,,,,,,,,,,,,,,,,,,,,,,,,,,,,,,,,,,,,,,,,,,,,,,,,,,,,,,,,,,,,,,,,,,,,,
,,?,0.000325,0,,,,,,stimuli/images/PICTURE_708.png,CLIENT,5b82be6543bc4900017ef3de,19/06/1947,2020-09-03_19h40.40.044,proactive2,2020.1.2,Win32,60,5f5126bb654d4b30ee6923d8,5f51388a8647e3330b433537,4,,,,,,monkey,,,,,,,,,,,1,0,0,32,32,5,1,,,,,,,,,,,,,,,,,,,,,,,,,,,,,,,,,,,,,,,,,,,,,,,,,,,,,,,,,,,,,,,,,,,,,,,,,,,,,,,,,,,,,,,,,,,,,,
,,?,0.00043,0,,,,,,stimuli/images/PICTURE_68.png,MILE,5b82be6543bc4900017ef3de,19/06/1947,2020-09-03_19h40.40.044,proactive2,2020.1.2,Win32,60,5f5126bb654d4b30ee6923d8,5f51388a8647e3330b433537,4,,,,,,candle,,,,,,,,,,,5,0,0,33,33,44,1,,,,,,,,,,,,,,,,,,,,,,,,,,,,,,,,,,,,,,,,,,,,,,,,,,,,,,,,,,,,,,,,,,,,,,,,,,,,,,,,,,,,,,,,,,,,,,
,,?,0.00033,0,,,,,,stimuli/images/PICTURE_453.png,DUDE,5b82be6543bc4900017ef3de,19/06/1947,2020-09-03_19h40.40.044,proactive2,2020.1.2,Win32,60,5f5126bb654d4b30ee6923d8,5f51388a8647e3330b433537,4,,,,,,scissors,,,,,,,,,,,3,0,0,34,34,27,1,,,,,,,,,,,,,,,,,,,,,,,,,,,,,,,,,,,,,,,,,,,,,,,,,,,,,,,,,,,,,,,,,,,,,,,,,,,,,,,,,,,,,,,,,,,,,,
,,?,0.00034,0,,,,,,stimuli/images/PICTURE_469.png,LETTER,5b82be6543bc4900017ef3de,19/06/1947,2020-09-03_19h40.40.044,proactive2,2020.1.2,Win32,60,5f5126bb654d4b30ee6923d8,5f51388a8647e3330b433537,4,,,,,,stool,,,,,,,,,,,5,0,0,35,35,42,1,,,,,,,,,,,,,,,,,,,,,,,,,,,,,,,,,,,,,,,,,,,,,,,,,,,,,,,,,,,,,,,,,,,,,,,,,,,,,,,,,,,,,,,,,,,,,,
,,?,0.00032,0,,,,,,stimuli/images/PICTURE_708.png,YARD,5b82be6543bc4900017ef3de,19/06/1947,2020-09-03_19h40.40.044,proactive2,2020.1.2,Win32,60,5f5126bb654d4b30ee6923d8,5f51388a8647e3330b433537,4,,,,,,monkey,,,,,,,,,,,3,0,0,36,36,29,1,,,,,,,,,,,,,,,,,,,,,,,,,,,,,,,,,,,,,,,,,,,,,,,,,,,,,,,,,,,,,,,,,,,,,,,,,,,,,,,,,,,,,,,,,,,,,,
,,?,0.00033,0,,,,,,stimuli/images/PICTURE_688.png,WOMEN,5b82be6543bc4900017ef3de,19/06/1947,2020-09-03_19h40.40.044,proactive2,2020.1.2,Win32,60,5f5126bb654d4b30ee6923d8,5f51388a8647e3330b433537,4,,,,,,runner,,,,,,,,,,,2,0,0,37,37,14,1,,,,,,,,,,,,,,,,,,,,,,,,,,,,,,,,,,,,,,,,,,,,,,,,,,,,,,,,,,,,,,,,,,,,,,,,,,,,,,,,,,,,,,,,,,,,,,
,,?,0.00032,0,,,,,,stimuli/images/PICTURE_160.png,FEET,5b82be6543bc4900017ef3de,19/06/1947,2020-09-03_19h40.40.044,proactive2,2020.1.2,Win32,60,5f5126bb654d4b30ee6923d8,5f51388a8647e3330b433537,4,,,,,,wheelbarrow,,,,,,,,,,,6,0,0,38,38,58,1,,,,,,,,,,,,,,,,,,,,,,,,,,,,,,,,,,,,,,,,,,,,,,,,,,,,,,,,,,,,,,,,,,,,,,,,,,,,,,,,,,,,,,,,,,,,,,
,,?,0.000325,0,,,,,,stimuli/images/PICTURE_85.png,THING,5b82be6543bc4900017ef3de,19/06/1947,2020-09-03_19h40.40.044,proactive2,2020.1.2,Win32,60,5f5126bb654d4b30ee6923d8,5f51388a8647e3330b433537,4,,,,,,diamond,,,,,,,,,,,2,0,0,39,39,15,1,,,,,,,,,,,,,,,,,,,,,,,,,,,,,,,,,,,,,,,,,,,,,,,,,,,,,,,,,,,,,,,,,,,,,,,,,,,,,,,,,,,,,,,,,,,,,,
,,FRIEND,3.076875,1,,,,,,stimuli/images/PICTURE_311.png,FRIEND,5b82be6543bc4900017ef3de,19/06/1947,2020-09-03_19h40.40.044,proactive2,2020.1.2,Win32,60,5f5126bb654d4b30ee6923d8,5f51388a8647e3330b433537,4,,,,,,razor,,,,,,,,,,,4,0,0,40,40,34,1,,,,,,,,,,,,,,,,,,,,,,,,,,,,,,,,,,,,,,,,,,,,,,,,,,,,,,,,,,,,,,,,,,,,,,,,,,,,,,,,,,,,,,,,,,,,,,
,,?,0.00085,0,,,,,,stimuli/images/PICTURE_233.png,IDEAS,5b82be6543bc4900017ef3de,19/06/1947,2020-09-03_19h40.40.044,proactive2,2020.1.2,Win32,60,5f5126bb654d4b30ee6923d8,5f51388a8647e3330b433537,4,,,,,,salt,,,,,,,,,,,3,0,0,41,41,28,1,,,,,,,,,,,,,,,,,,,,,,,,,,,,,,,,,,,,,,,,,,,,,,,,,,,,,,,,,,,,,,,,,,,,,,,,,,,,,,,,,,,,,,,,,,,,,,
,,?,0.000585,0,,,,,,stimuli/images/PICTURE_667.png,BATH,5b82be6543bc4900017ef3de,19/06/1947,2020-09-03_19h40.40.044,proactive2,2020.1.2,Win32,60,5f5126bb654d4b30ee6923d8,5f51388a8647e3330b433537,4,,,,,,daisy,,,,,,,,,,,1,0,0,42,42,4,1,,,,,,,,,,,,,,,,,,,,,,,,,,,,,,,,,,,,,,,,,,,,,,,,,,,,,,,,,,,,,,,,,,,,,,,,,,,,,,,,,,,,,,,,,,,,,,
,,?,0.0004,0,,,,,,stimuli/images/PICTURE_449.png,THING,5b82be6543bc4900017ef3de,19/06/1947,2020-09-03_19h40.40.044,proactive2,2020.1.2,Win32,60,5f5126bb654d4b30ee6923d8,5f51388a8647e3330b433537,4,,,,,,bench,,,,,,,,,,,6,0,0,43,43,59,1,,,,,,,,,,,,,,,,,,,,,,,,,,,,,,,,,,,,,,,,,,,,,,,,,,,,,,,,,,,,,,,,,,,,,,,,,,,,,,,,,,,,,,,,,,,,,,
,,?,0.000315,0,,,,,,stimuli/images/PICTURE_380.png,PHOTO,5b82be6543bc4900017ef3de,19/06/1947,2020-09-03_19h40.40.044,proactive2,2020.1.2,Win32,60,5f5126bb654d4b30ee6923d8,5f51388a8647e3330b433537,4,,,,,,gorilla,,,,,,,,,,,6,0,0,44,44,52,1,,,,,,,,,,,,,,,,,,,,,,,,,,,,,,,,,,,,,,,,,,,,,,,,,,,,,,,,,,,,,,,,,,,,,,,,,,,,,,,,,,,,,,,,,,,,,,
,,?,0.00032,0,,,,,,stimuli/images/PICTURE_285.png,ADVICE,5b82be6543bc4900017ef3de,19/06/1947,2020-09-03_19h40.40.044,proactive2,2020.1.2,Win32,60,5f5126bb654d4b30ee6923d8,5f51388a8647e3330b433537,4,,,,,,carrot,,,,,,,,,,,2,0,0,45,45,12,1,,,,,,,,,,,,,,,,,,,,,,,,,,,,,,,,,,,,,,,,,,,,,,,,,,,,,,,,,,,,,,,,,,,,,,,,,,,,,,,,,,,,,,,,,,,,,,
,,?,0.00032,0,,,,,,stimuli/images/PICTURE_208.png,LOTS,5b82be6543bc4900017ef3de,19/06/1947,2020-09-03_19h40.40.044,proactive2,2020.1.2,Win32,60,5f5126bb654d4b30ee6923d8,5f51388a8647e3330b433537,4,,,,,,microphone,,,,,,,,,,,2,0,0,46,46,10,1,,,,,,,,,,,,,,,,,,,,,,,,,,,,,,,,,,,,,,,,,,,,,,,,,,,,,,,,,,,,,,,,,,,,,,,,,,,,,,,,,,,,,,,,,,,,,,
,,?,0.00033,0,,,,,,stimuli/images/PICTURE_151.png,GIRL,5b82be6543bc4900017ef3de,19/06/1947,2020-09-03_19h40.40.044,proactive2,2020.1.2,Win32,60,5f5126bb654d4b30ee6923d8,5f51388a8647e3330b433537,4,,,,,,tray,,,,,,,,,,,2,0,0,47,47,19,1,,,,,,,,,,,,,,,,,,,,,,,,,,,,,,,,,,,,,,,,,,,,,,,,,,,,,,,,,,,,,,,,,,,,,,,,,,,,,,,,,,,,,,,,,,,,,,
,,?,0.000315,0,,,,,,stimuli/images/PICTURE_203.png,ARTIST,5b82be6543bc4900017ef3de,19/06/1947,2020-09-03_19h40.40.044,proactive2,2020.1.2,Win32,60,5f5126bb654d4b30ee6923d8,5f51388a8647e3330b433537,4,,,,,,cap,,,,,,,,,,,3,0,0,48,48,26,1,,,,,,,,,,,,,,,,,,,,,,,,,,,,,,,,,,,,,,,,,,,,,,,,,,,,,,,,,,,,,,,,,,,,,,,,,,,,,,,,,,,,,,,,,,,,,,
,,WOMEN,3.365765,1,,,,,,stimuli/images/PICTURE_233.png,WOMEN,5b82be6543bc4900017ef3de,19/06/1947,2020-09-03_19h40.40.044,proactive2,2020.1.2,Win32,60,5f5126bb654d4b30ee6923d8,5f51388a8647e3330b433537,4,,,,,,salt,,,,,,,,,,,4,0,0,49,49,38,1,,,,,,,,,,,,,,,,,,,,,,,,,,,,,,,,,,,,,,,,,,,,,,,,,,,,,,,,,,,,,,,,,,,,,,,,,,,,,,,,,,,,,,,,,,,,,,
,,?,0.000715,0,,,,,,stimuli/images/PICTURE_688.png,CASINO,5b82be6543bc4900017ef3de,19/06/1947,2020-09-03_19h40.40.044,proactive2,2020.1.2,Win32,60,5f5126bb654d4b30ee6923d8,5f51388a8647e3330b433537,4,,,,,,runner,,,,,,,,,,,1,0,0,50,50,2,1,,,,,,,,,,,,,,,,,,,,,,,,,,,,,,,,,,,,,,,,,,,,,,,,,,,,,,,,,,,,,,,,,,,,,,,,,,,,,,,,,,,,,,,,,,,,,,
,,?,0.00047,0,,,,,,stimuli/images/PICTURE_339.png,PLENTY,5b82be6543bc4900017ef3de,19/06/1947,2020-09-03_19h40.40.044,proactive2,2020.1.2,Win32,60,5f5126bb654d4b30ee6923d8,5f51388a8647e3330b433537,4,,,,,,backpack,,,,,,,,,,,1,0,0,51,51,0,1,,,,,,,,,,,,,,,,,,,,,,,,,,,,,,,,,,,,,,,,,,,,,,,,,,,,,,,,,,,,,,,,,,,,,,,,,,,,,,,,,,,,,,,,,,,,,,
,,?,0.000375,0,,,,,,stimuli/images/PICTURE_123.png,ADVICE,5b82be6543bc4900017ef3de,19/06/1947,2020-09-03_19h40.40.044,proactive2,2020.1.2,Win32,60,5f5126bb654d4b30ee6923d8,5f51388a8647e3330b433537,4,,,,,,dart,,,,,,,,,,,5,0,0,52,52,40,1,,,,,,,,,,,,,,,,,,,,,,,,,,,,,,,,,,,,,,,,,,,,,,,,,,,,,,,,,,,,,,,,,,,,,,,,,,,,,,,,,,,,,,,,,,,,,,
,,CASINO,4.63856,1,,,,,,stimuli/images/PICTURE_470.png,CASINO,5b82be6543bc4900017ef3de,19/06/1947,2020-09-03_19h40.40.044,proactive2,2020.1.2,Win32,60,5f5126bb654d4b30ee6923d8,5f51388a8647e3330b433537,4,,,,,,motorbike,,,,,,,,,,,4,0,0,53,53,36,1,,,,,,,,,,,,,,,,,,,,,,,,,,,,,,,,,,,,,,,,,,,,,,,,,,,,,,,,,,,,,,,,,,,,,,,,,,,,,,,,,,,,,,,,,,,,,,
,,?,0.000565,0,,,,,,stimuli/images/PICTURE_744.png,SYSTEM,5b82be6543bc4900017ef3de,19/06/1947,2020-09-03_19h40.40.044,proactive2,2020.1.2,Win32,60,5f5126bb654d4b30ee6923d8,5f51388a8647e3330b433537,4,,,,,,ring,,,,,,,,,,,5,0,0,54,54,43,1,,,,,,,,,,,,,,,,,,,,,,,,,,,,,,,,,,,,,,,,,,,,,,,,,,,,,,,,,,,,,,,,,,,,,,,,,,,,,,,,,,,,,,,,,,,,,,
,,?,0.000325,0,,,,,,stimuli/images/PICTURE_314.png,SAKE,5b82be6543bc4900017ef3de,19/06/1947,2020-09-03_19h40.40.044,proactive2,2020.1.2,Win32,60,5f5126bb654d4b30ee6923d8,5f51388a8647e3330b433537,4,,,,,,perfume,,,,,,,,,,,1,0,0,55,55,7,1,,,,,,,,,,,,,,,,,,,,,,,,,,,,,,,,,,,,,,,,,,,,,,,,,,,,,,,,,,,,,,,,,,,,,,,,,,,,,,,,,,,,,,,,,,,,,,
,,?,0.0004,0,,,,,,stimuli/images/PICTURE_667.png,PLENTY,5b82be6543bc4900017ef3de,19/06/1947,2020-09-03_19h40.40.044,proactive2,2020.1.2,Win32,60,5f5126bb654d4b30ee6923d8,5f51388a8647e3330b433537,4,,,,,,daisy,,,,,,,,,,,5,0,0,56,56,41,1,,,,,,,,,,,,,,,,,,,,,,,,,,,,,,,,,,,,,,,,,,,,,,,,,,,,,,,,,,,,,,,,,,,,,,,,,,,,,,,,,,,,,,,,,,,,,,
,,?,0.0003,0,,,,,,stimuli/images/PICTURE_453.png,PLENTY,5b82be6543bc4900017ef3de,19/06/1947,2020-09-03_19h40.40.044,proactive2,2020.1.2,Win32,60,5f5126bb654d4b30ee6923d8,5f51388a8647e3330b433537,4,,,,,,scissors,,,,,,,,,,,6,0,0,57,57,56,1,,,,,,,,,,,,,,,,,,,,,,,,,,,,,,,,,,,,,,,,,,,,,,,,,,,,,,,,,,,,,,,,,,,,,,,,,,,,,,,,,,,,,,,,,,,,,,
,,?,0.0003,0,,,,,,stimuli/images/PICTURE_509.png,PHOTO,5b82be6543bc4900017ef3de,19/06/1947,2020-09-03_19h40.40.044,proactive2,2020.1.2,Win32,60,5f5126bb654d4b30ee6923d8,5f51388a8647e3330b433537,4,,,,,,telephone,,,,,,,,,,,3,0,0,58,58,21,1,,,,,,,,,,,,,,,,,,,,,,,,,,,,,,,,,,,,,,,,,,,,,,,,,,,,,,,,,,,,,,,,,,,,,,,,,,,,,,,,,,,,,,,,,,,,,,
,,WEAPON,3.5701,1,,,,,,stimuli/images/PICTURE_675.png,WEAPON,5b82be6543bc4900017ef3de,19/06/1947,2020-09-03_19h40.40.044,proactive2,2020.1.2,Win32,60,5f5126bb654d4b30ee6923d8,5f51388a8647e3330b433537,4,,,,,,windmill,,,,,,,,,,,4,0,0,59,59,32,1,,,,,,,,,,,,,,,,,,,,,,,,,,,,,,,,,,,,,,,,,,,,,,,,,,,,,,,,,,,,,,,,,,,,,,,,,,,,,,,,,,,,,,,,,,,,,,
,,,,,,,,,,,,5b82be6543bc4900017ef3de,19/06/1947,2020-09-03_19h40.40.044,proactive2,2020.1.2,Win32,60,5f5126bb654d4b30ee6923d8,5f51388a8647e3330b433537,4,,,,,,,,,,,,,,,,,,,,,,,,0,0,0,0,1,stimuli/learn-block1.csv,,,,,,,,,,,,,,,,,,,,,,,,,,,,,,,,,,,,,,,,,,,,,,,,,,,,,,,,,,,,,,,,,,,,,,,,,,,,,,,,,,,,,,,,
,,,,,,,,,,stimuli/images/PICTURE_504.png,HOUSE,5b82be6543bc4900017ef3de,19/06/1947,2020-09-03_19h40.40.044,proactive2,2020.1.2,Win32,60,5f5126bb654d4b30ee6923d8,5f51388a8647e3330b433537,4,,,,,,wheel,,,,,,0,0,0,36,1,4,2,,,,,,,,,,,,,,,,,,,,,,,,,,,,,,,,,,,,,,,,,,,,,,,,,,,,,,,,,,,,,,,,,,,,,,,,,,,,,,,,,,,,,,,,,,,,,,,,,,,
,,,,,,,,,,stimuli/images/PICTURE_177.png,HOUSE,5b82be6543bc4900017ef3de,19/06/1947,2020-09-03_19h40.40.044,proactive2,2020.1.2,Win32,60,5f5126bb654d4b30ee6923d8,5f51388a8647e3330b433537,4,,,,,,mushroom,,,,,,0,1,1,25,1,3,2,,,,,,,,,,,,,,,,,,,,,,,,,,,,,,,,,,,,,,,,,,,,,,,,,,,,,,,,,,,,,,,,,,,,,,,,,,,,,,,,,,,,,,,,,,,,,,,,,,,
,,,,,,,,,,stimuli/images/PICTURE_141.png,CLIENT,5b82be6543bc4900017ef3de,19/06/1947,2020-09-03_19h40.40.044,proactive2,2020.1.2,Win32,60,5f5126bb654d4b30ee6923d8,5f51388a8647e3330b433537,4,,,,,,sunflower,,,,,,0,2,2,30,1,4,2,,,,,,,,,,,,,,,,,,,,,,,,,,,,,,,,,,,,,,,,,,,,,,,,,,,,,,,,,,,,,,,,,,,,,,,,,,,,,,,,,,,,,,,,,,,,,,,,,,,
,,,,,,,,,,stimuli/images/PICTURE_57.png,CANDY,5b82be6543bc4900017ef3de,19/06/1947,2020-09-03_19h40.40.044,proactive2,2020.1.2,Win32,60,5f5126bb654d4b30ee6923d8,5f51388a8647e3330b433537,4,,,,,,stamp,,,,,,0,3,3,52,1,6,2,,,,,,,,,,,,,,,,,,,,,,,,,,,,,,,,,,,,,,,,,,,,,,,,,,,,,,,,,,,,,,,,,,,,,,,,,,,,,,,,,,,,,,,,,,,,,,,,,,,
,,,,,,,,,,stimuli/images/PICTURE_57.png,NATION,5b82be6543bc4900017ef3de,19/06/1947,2020-09-03_19h40.40.044,proactive2,2020.1.2,Win32,60,5f5126bb654d4b30ee6923d8,5f51388a8647e3330b433537,4,,,,,,stamp,,,,,,0,4,4,21,1,3,2,,,,,,,,,,,,,,,,,,,,,,,,,,,,,,,,,,,,,,,,,,,,,,,,,,,,,,,,,,,,,,,,,,,,,,,,,,,,,,,,,,,,,,,,,,,,,,,,,,,
,,,,,,,,,,stimuli/images/PICTURE_452.png,COPS,5b82be6543bc4900017ef3de,19/06/1947,2020-09-03_19h40.40.044,proactive2,2020.1.2,Win32,60,5f5126bb654d4b30ee6923d8,5f51388a8647e3330b433537,4,,,,,,watch,,,,,,0,5,5,0,1,1,2,,,,,,,,,,,,,,,,,,,,,,,,,,,,,,,,,,,,,,,,,,,,,,,,,,,,,,,,,,,,,,,,,,,,,,,,,,,,,,,,,,,,,,,,,,,,,,,,,,,
,,,,,,,,,,stimuli/images/PICTURE_750.png,POLICY,5b82be6543bc4900017ef3de,19/06/1947,2020-09-03_19h40.40.044,proactive2,2020.1.2,Win32,60,5f5126bb654d4b30ee6923d8,5f51388a8647e3330b433537,4,,,,,,kettle,,,,,,0,6,6,44,1,5,2,,,,,,,,,,,,,,,,,,,,,,,,,,,,,,,,,,,,,,,,,,,,,,,,,,,,,,,,,,,,,,,,,,,,,,,,,,,,,,,,,,,,,,,,,,,,,,,,,,,
,,,,,,,,,,stimuli/images/PICTURE_405.png,JUNGLE,5b82be6543bc4900017ef3de,19/06/1947,2020-09-03_19h40.40.044,proactive2,2020.1.2,Win32,60,5f5126bb654d4b30ee6923d8,5f51388a8647e3330b433537,4,,,,,,anchor,,,,,,0,7,7,13,1,2,2,,,,,,,,,,,,,,,,,,,,,,,,,,,,,,,,,,,,,,,,,,,,,,,,,,,,,,,,,,,,,,,,,,,,,,,,,,,,,,,,,,,,,,,,,,,,,,,,,,,
,,,,,,,,,,stimuli/images/PICTURE_509.png,BATH,5b82be6543bc4900017ef3de,19/06/1947,2020-09-03_19h40.40.044,proactive2,2020.1.2,Win32,60,5f5126bb654d4b30ee6923d8,5f51388a8647e3330b433537,4,,,,,,telephone,,,,,,0,8,8,15,1,2,2,,,,,,,,,,,,,,,,,,,,,,,,,,,,,,,,,,,,,,,,,,,,,,,,,,,,,,,,,,,,,,,,,,,,,,,,,,,,,,,,,,,,,,,,,,,,,,,,,,,
,,,,,,,,,,stimuli/images/PICTURE_215.png,FOOD,5b82be6543bc4900017ef3de,19/06/1947,2020-09-03_19h40.40.044,proactive2,2020.1.2,Win32,60,5f5126bb654d4b30ee6923d8,5f51388a8647e3330b433537,4,,,,,,boot,,,,,,0,9,9,5,1,1,2,,,,,,,,,,,,,,,,,,,,,,,,,,,,,,,,,,,,,,,,,,,,,,,,,,,,,,,,,,,,,,,,,,,,,,,,,,,,,,,,,,,,,,,,,,,,,,,,,,,
,,,,,,,,,,stimuli/images/PICTURE_314.png,SPEECH,5b82be6543bc4900017ef3de,19/06/1947,2020-09-03_19h40.40.044,proactive2,2020.1.2,Win32,60,5f5126bb654d4b30ee6923d8,5f51388a8647e3330b433537,4,,,,,,perfume,,,,,,0,10,10,35,1,4,2,,,,,,,,,,,,,,,,,,,,,,,,,,,,,,,,,,,,,,,,,,,,,,,,,,,,,,,,,,,,,,,,,,,,,,,,,,,,,,,,,,,,,,,,,,,,,,,,,,,
,,,,,,,,,,stimuli/images/PICTURE_297.png,BODY,5b82be6543bc4900017ef3de,19/06/1947,2020-09-03_19h40.40.044,proactive2,2020.1.2,Win32,60,5f5126bb654d4b30ee6923d8,5f51388a8647e3330b433537,4,,,,,,aeroplane,,,,,,0,11,11,51,1,6,2,,,,,,,,,,,,,,,,,,,,,,,,,,,,,,,,,,,,,,,,,,,,,,,,,,,,,,,,,,,,,,,,,,,,,,,,,,,,,,,,,,,,,,,,,,,,,,,,,,,
,,,,,,,,,,stimuli/images/PICTURE_2.png,AREA,5b82be6543bc4900017ef3de,19/06/1947,2020-09-03_19h40.40.044,proactive2,2020.1.2,Win32,60,5f5126bb654d4b30ee6923d8,5f51388a8647e3330b433537,4,,,,,,tyre,,,,,,0,12,12,32,1,4,2,,,,,,,,,,,,,,,,,,,,,,,,,,,,,,,,,,,,,,,,,,,,,,,,,,,,,,,,,,,,,,,,,,,,,,,,,,,,,,,,,,,,,,,,,,,,,,,,,,,
,,,,,,,,,,stimuli/images/PICTURE_147.png,LEADER,5b82be6543bc4900017ef3de,19/06/1947,2020-09-03_19h40.40.044,proactive2,2020.1.2,Win32,60,5f5126bb654d4b30ee6923d8,5f51388a8647e3330b433537,4,,,,,,hanger,,,,,,0,13,13,33,1,4,2,,,,,,,,,,,,,,,,,,,,,,,,,,,,,,,,,,,,,,,,,,,,,,,,,,,,,,,,,,,,,,,,,,,,,,,,,,,,,,,,,,,,,,,,,,,,,,,,,,,
,,,,,,,,,,stimuli/images/PICTURE_2.png,YARD,5b82be6543bc4900017ef3de,19/06/1947,2020-09-03_19h40.40.044,proactive2,2020.1.2,Win32,60,5f5126bb654d4b30ee6923d8,5f51388a8647e3330b433537,4,,,,,,tyre,,,,,,0,14,14,55,1,6,2,,,,,,,,,,,,,,,,,,,,,,,,,,,,,,,,,,,,,,,,,,,,,,,,,,,,,,,,,,,,,,,,,,,,,,,,,,,,,,,,,,,,,,,,,,,,,,,,,,,
,,,,,,,,,,stimuli/images/PICTURE_491.png,SERIES,5b82be6543bc4900017ef3de,19/06/1947,2020-09-03_19h40.40.044,proactive2,2020.1.2,Win32,60,5f5126bb654d4b30ee6923d8,5f51388a8647e3330b433537,4,,,,,,rug,,,,,,0,15,15,39,1,4,2,,,,,,,,,,,,,,,,,,,,,,,,,,,,,,,,,,,,,,,,,,,,,,,,,,,,,,,,,,,,,,,,,,,,,,,,,,,,,,,,,,,,,,,,,,,,,,,,,,,
,,,,,,,,,,stimuli/images/PICTURE_403.png,FAMILY,5b82be6543bc4900017ef3de,19/06/1947,2020-09-03_19h40.40.044,proactive2,2020.1.2,Win32,60,5f5126bb654d4b30ee6923d8,5f51388a8647e3330b433537,4,,,,,,cathedral,,,,,,0,16,16,9,1,1,2,,,,,,,,,,,,,,,,,,,,,,,,,,,,,,,,,,,,,,,,,,,,,,,,,,,,,,,,,,,,,,,,,,,,,,,,,,,,,,,,,,,,,,,,,,,,,,,,,,,
,,,,,,,,,,stimuli/images/PICTURE_509.png,SHOTS,5b82be6543bc4900017ef3de,19/06/1947,2020-09-03_19h40.40.044,proactive2,2020.1.2,Win32,60,5f5126bb654d4b30ee6923d8,5f51388a8647e3330b433537,4,,,,,,telephone,,,,,,0,17,17,7,1,1,2,,,,,,,,,,,,,,,,,,,,,,,,,,,,,,,,,,,,,,,,,,,,,,,,,,,,,,,,,,,,,,,,,,,,,,,,,,,,,,,,,,,,,,,,,,,,,,,,,,,
,,,,,,,,,,stimuli/images/PICTURE_311.png,FLESH,5b82be6543bc4900017ef3de,19/06/1947,2020-09-03_19h40.40.044,proactive2,2020.1.2,Win32,60,5f5126bb654d4b30ee6923d8,5f51388a8647e3330b433537,4,,,,,,razor,,,,,,0,18,18,3,1,1,2,,,,,,,,,,,,,,,,,,,,,,,,,,,,,,,,,,,,,,,,,,,,,,,,,,,,,,,,,,,,,,,,,,,,,,,,,,,,,,,,,,,,,,,,,,,,,,,,,,,
,,,,,,,,,,stimuli/images/PICTURE_677.png,FAMILY,5b82be6543bc4900017ef3de,19/06/1947,2020-09-03_19h40.40.044,proactive2,2020.1.2,Win32,60,5f5126bb654d4b30ee6923d8,5f51388a8647e3330b433537,4,,,,,,map,,,,,,0,19,19,53,1,6,2,,,,,,,,,,,,,,,,,,,,,,,,,,,,,,,,,,,,,,,,,,,,,,,,,,,,,,,,,,,,,,,,,,,,,,,,,,,,,,,,,,,,,,,,,,,,,,,,,,,
,,,,,,,,,,stimuli/images/PICTURE_93.png,GIRL,5b82be6543bc4900017ef3de,19/06/1947,2020-09-03_19h40.40.044,proactive2,2020.1.2,Win32,60,5f5126bb654d4b30ee6923d8,5f51388a8647e3330b433537,4,,,,,,skateboard,,,,,,0,20,20,31,1,4,2,,,,,,,,,,,,,,,,,,,,,,,,,,,,,,,,,,,,,,,,,,,,,,,,,,,,,,,,,,,,,,,,,,,,,,,,,,,,,,,,,,,,,,,,,,,,,,,,,,,
,,,,,,,,,,stimuli/images/PICTURE_667.png,GLASS,5b82be6543bc4900017ef3de,19/06/1947,2020-09-03_19h40.40.044,proactive2,2020.1.2,Win32,60,5f5126bb654d4b30ee6923d8,5f51388a8647e3330b433537,4,,,,,,daisy,,,,,,0,21,21,27,1,3,2,,,,,,,,,,,,,,,,,,,,,,,,,,,,,,,,,,,,,,,,,,,,,,,,,,,,,,,,,,,,,,,,,,,,,,,,,,,,,,,,,,,,,,,,,,,,,,,,,,,
,,,,,,,,,,stimuli/images/PICTURE_470.png,BEAUTY,5b82be6543bc4900017ef3de,19/06/1947,2020-09-03_19h40.40.044,proactive2,2020.1.2,Win32,60,5f5126bb654d4b30ee6923d8,5f51388a8647e3330b433537,4,,,,,,motorbike,,,,,,0,22,22,26,1,3,2,,,,,,,,,,,,,,,,,,,,,,,,,,,,,,,,,,,,,,,,,,,,,,,,,,,,,,,,,,,,,,,,,,,,,,,,,,,,,,,,,,,,,,,,,,,,,,,,,,,
,,,,,,,,,,stimuli/images/PICTURE_356.png,CANDY,5b82be6543bc4900017ef3de,19/06/1947,2020-09-03_19h40.40.044,proactive2,2020.1.2,Win32,60,5f5126bb654d4b30ee6923d8,5f51388a8647e3330b433537,4,,,,,,pawn,,,,,,0,23,23,46,1,5,2,,,,,,,,,,,,,,,,,,,,,,,,,,,,,,,,,,,,,,,,,,,,,,,,,,,,,,,,,,,,,,,,,,,,,,,,,,,,,,,,,,,,,,,,,,,,,,,,,,,
,,,,,,,,,,stimuli/images/PICTURE_57.png,CASINO,5b82be6543bc4900017ef3de,19/06/1947,2020-09-03_19h40.40.044,proactive2,2020.1.2,Win32,60,5f5126bb654d4b30ee6923d8,5f51388a8647e3330b433537,4,,,,,,stamp,,,,,,0,24,24,12,1,2,2,,,,,,,,,,,,,,,,,,,,,,,,,,,,,,,,,,,,,,,,,,,,,,,,,,,,,,,,,,,,,,,,,,,,,,,,,,,,,,,,,,,,,,,,,,,,,,,,,,,
,,,,,,,,,,stimuli/images/PICTURE_2.png,JUNGLE,5b82be6543bc4900017ef3de,19/06/1947,2020-09-03_19h40.40.044,proactive2,2020.1.2,Win32,60,5f5126bb654d4b30ee6923d8,5f51388a8647e3330b433537,4,,,,,,tyre,,,,,,0,25,25,1,1,1,2,,,,,,,,,,,,,,,,,,,,,,,,,,,,,,,,,,,,,,,,,,,,,,,,,,,,,,,,,,,,,,,,,,,,,,,,,,,,,,,,,,,,,,,,,,,,,,,,,,,
,,,,,,,,,,stimuli/images/PICTURE_95.png,NIGHT,5b82be6543bc4900017ef3de,19/06/1947,2020-09-03_19h40.40.044,proactive2,2020.1.2,Win32,60,5f5126bb654d4b30ee6923d8,5f51388a8647e3330b433537,4,,,,,,suitcase,,,,,,0,26,26,37,1,4,2,,,,,,,,,,,,,,,,,,,,,,,,,,,,,,,,,,,,,,,,,,,,,,,,,,,,,,,,,,,,,,,,,,,,,,,,,,,,,,,,,,,,,,,,,,,,,,,,,,,
,,,,,,,,,,stimuli/images/PICTURE_453.png,FAMILY,5b82be6543bc4900017ef3de,19/06/1947,2020-09-03_19h40.40.044,proactive2,2020.1.2,Win32,60,5f5126bb654d4b30ee6923d8,5f51388a8647e3330b433537,4,,,,,,scissors,,,,,,0,27,27,48,1,5,2,,,,,,,,,,,,,,,,,,,,,,,,,,,,,,,,,,,,,,,,,,,,,,,,,,,,,,,,,,,,,,,,,,,,,,,,,,,,,,,,,,,,,,,,,,,,,,,,,,,
,,,,,,,,,,stimuli/images/PICTURE_255.png,PENNY,5b82be6543bc4900017ef3de,19/06/1947,2020-09-03_19h40.40.044,proactive2,2020.1.2,Win32,60,5f5126bb654d4b30ee6923d8,5f51388a8647e3330b433537,4,,,,,,shovel,,,,,,0,28,28,19,1,2,2,,,,,,,,,,,,,,,,,,,,,,,,,,,,,,,,,,,,,,,,,,,,,,,,,,,,,,,,,,,,,,,,,,,,,,,,,,,,,,,,,,,,,,,,,,,,,,,,,,,
,,,,,,,,,,stimuli/images/PICTURE_215.png,LEADER,5b82be6543bc4900017ef3de,19/06/1947,2020-09-03_19h40.40.044,proactive2,2020.1.2,Win32,60,5f5126bb654d4b30ee6923d8,5f51388a8647e3330b433537,4,,,,,,boot,,,,,,0,29,29,43,1,5,2,,,,,,,,,,,,,,,,,,,,,,,,,,,,,,,,,,,,,,,,,,,,,,,,,,,,,,,,,,,,,,,,,,,,,,,,,,,,,,,,,,,,,,,,,,,,,,,,,,,
,,,,,,,,,,stimuli/images/PICTURE_296.png,CLOCK,5b82be6543bc4900017ef3de,19/06/1947,2020-09-03_19h40.40.044,proactive2,2020.1.2,Win32,60,5f5126bb654d4b30ee6923d8,5f51388a8647e3330b433537,4,,,,,,bolt,,,,,,0,30,30,18,1,2,2,,,,,,,,,,,,,,,,,,,,,,,,,,,,,,,,,,,,,,,,,,,,,,,,,,,,,,,,,,,,,,,,,,,,,,,,,,,,,,,,,,,,,,,,,,,,,,,,,,,
,,,,,,,,,,stimuli/images/PICTURE_348.png,DUDE,5b82be6543bc4900017ef3de,19/06/1947,2020-09-03_19h40.40.044,proactive2,2020.1.2,Win32,60,5f5126bb654d4b30ee6923d8,5f51388a8647e3330b433537,4,,,,,,pepper,,,,,,0,31,31,59,1,6,2,,,,,,,,,,,,,,,,,,,,,,,,,,,,,,,,,,,,,,,,,,,,,,,,,,,,,,,,,,,,,,,,,,,,,,,,,,,,,,,,,,,,,,,,,,,,,,,,,,,
,,,,,,,,,,stimuli/images/PICTURE_654.png,COPS,5b82be6543bc4900017ef3de,19/06/1947,2020-09-03_19h40.40.044,proactive2,2020.1.2,Win32,60,5f5126bb654d4b30ee6923d8,5f51388a8647e3330b433537,4,,,,,,pencil,,,,,,0,32,32,10,1,2,2,,,,,,,,,,,,,,,,,,,,,,,,,,,,,,,,,,,,,,,,,,,,,,,,,,,,,,,,,,,,,,,,,,,,,,,,,,,,,,,,,,,,,,,,,,,,,,,,,,,
,,,,,,,,,,stimuli/images/PICTURE_708.png,VALLEY,5b82be6543bc4900017ef3de,19/06/1947,2020-09-03_19h40.40.044,proactive2,2020.1.2,Win32,60,5f5126bb654d4b30ee6923d8,5f51388a8647e3330b433537,4,,,,,,monkey,,,,,,0,33,33,45,1,5,2,,,,,,,,,,,,,,,,,,,,,,,,,,,,,,,,,,,,,,,,,,,,,,,,,,,,,,,,,,,,,,,,,,,,,,,,,,,,,,,,,,,,,,,,,,,,,,,,,,,
,,,,,,,,,,stimuli/images/PICTURE_285.png,PRINCE,5b82be6543bc4900017ef3de,19/06/1947,2020-09-03_19h40.40.044,proactive2,2020.1.2,Win32,60,5f5126bb654d4b30ee6923d8,5f51388a8647e3330b433537,4,,,,,,carrot,,,,,,0,34,34,20,1,3,2,,,,,,,,,,,,,,,,,,,,,,,,,,,,,,,,,,,,,,,,,,,,,,,,,,,,,,,,,,,,,,,,,,,,,,,,,,,,,,,,,,,,,,,,,,,,,,,,,,,
,,,,,,,,,,stimuli/images/PICTURE_688.png,CLOCK,5b82be6543bc4900017ef3de,19/06/1947,2020-09-03_19h40.40.044,proactive2,2020.1.2,Win32,60,5f5126bb654d4b30ee6923d8,5f51388a8647e3330b433537,4,,,,,,runner,,,,,,0,35,35,42,1,5,2,,,,,,,,,,,,,,,,,,,,,,,,,,,,,,,,,,,,,,,,,,,,,,,,,,,,,,,,,,,,,,,,,,,,,,,,,,,,,,,,,,,,,,,,,,,,,,,,,,,
,,,,,,,,,,stimuli/images/PICTURE_215.png,BOYS,5b82be6543bc4900017ef3de,19/06/1947,2020-09-03_19h40.40.044,proactive2,2020.1.2,Win32,60,5f5126bb654d4b30ee6923d8,5f51388a8647e3330b433537,4,,,,,,boot,,,,,,0,36,36,24,1,3,2,,,,,,,,,,,,,,,,,,,,,,,,,,,,,,,,,,,,,,,,,,,,,,,,,,,,,,,,,,,,,,,,,,,,,,,,,,,,,,,,,,,,,,,,,,,,,,,,,,,
,,,,,,,,,,stimuli/images/PICTURE_160.png,HOTEL,5b82be6543bc4900017ef3de,19/06/1947,2020-09-03_19h40.40.044,proactive2,2020.1.2,Win32,60,5f5126bb654d4b30ee6923d8,5f51388a8647e3330b433537,4,,,,,,wheelbarrow,,,,,,0,37,37,16,1,2,2,,,,,,,,,,,,,,,,,,,,,,,,,,,,,,,,,,,,,,,,,,,,,,,,,,,,,,,,,,,,,,,,,,,,,,,,,,,,,,,,,,,,,,,,,,,,,,,,,,,
,,,,,,,,,,stimuli/images/PICTURE_285.png,WRITER,5b82be6543bc4900017ef3de,19/06/1947,2020-09-03_19h40.40.044,proactive2,2020.1.2,Win32,60,5f5126bb654d4b30ee6923d8,5f51388a8647e3330b433537,4,,,,,,carrot,,,,,,0,38,38,6,1,1,2,,,,,,,,,,,,,,,,,,,,,,,,,,,,,,,,,,,,,,,,,,,,,,,,,,,,,,,,,,,,,,,,,,,,,,,,,,,,,,,,,,,,,,,,,,,,,,,,,,,
,,,,,,,,,,stimuli/images/PICTURE_208.png,SPIRIT,5b82be6543bc4900017ef3de,19/06/1947,2020-09-03_19h40.40.044,proactive2,2020.1.2,Win32,60,5f5126bb654d4b30ee6923d8,5f51388a8647e3330b433537,4,,,,,,microphone,,,,,,0,39,39,28,1,3,2,,,,,,,,,,,,,,,,,,,,,,,,,,,,,,,,,,,,,,,,,,,,,,,,,,,,,,,,,,,,,,,,,,,,,,,,,,,,,,,,,,,,,,,,,,,,,,,,,,,
,,,,,,,,,,stimuli/images/PICTURE_33.png,COPS,5b82be6543bc4900017ef3de,19/06/1947,2020-09-03_19h40.40.044,proactive2,2020.1.2,Win32,60,5f5126bb654d4b30ee6923d8,5f51388a8647e3330b433537,4,,,,,,frame,,,,,,0,40,40,29,1,3,2,,,,,,,,,,,,,,,,,,,,,,,,,,,,,,,,,,,,,,,,,,,,,,,,,,,,,,,,,,,,,,,,,,,,,,,,,,,,,,,,,,,,,,,,,,,,,,,,,,,
,,,,,,,,,,stimuli/images/PICTURE_509.png,APPLE,5b82be6543bc4900017ef3de,19/06/1947,2020-09-03_19h40.40.044,proactive2,2020.1.2,Win32,60,5f5126bb654d4b30ee6923d8,5f51388a8647e3330b433537,4,,,,,,telephone,,,,,,0,41,41,38,1,4,2,,,,,,,,,,,,,,,,,,,,,,,,,,,,,,,,,,,,,,,,,,,,,,,,,,,,,,,,,,,,,,,,,,,,,,,,,,,,,,,,,,,,,,,,,,,,,,,,,,,
,,,,,,,,,,stimuli/images/PICTURE_654.png,YEAR,5b82be6543bc4900017ef3de,19/06/1947,2020-09-03_19h40.40.044,proactive2,2020.1.2,Win32,60,5f5126bb654d4b30ee6923d8,5f51388a8647e3330b433537,4,,,,,,pencil,,,,,,0,42,42,41,1,5,2,,,,,,,,,,,,,,,,,,,,,,,,,,,,,,,,,,,,,,,,,,,,,,,,,,,,,,,,,,,,,,,,,,,,,,,,,,,,,,,,,,,,,,,,,,,,,,,,,,,
,,,,,,,,,,stimuli/images/PICTURE_509.png,MILLER,5b82be6543bc4900017ef3de,19/06/1947,2020-09-03_19h40.40.044,proactive2,2020.1.2,Win32,60,5f5126bb654d4b30ee6923d8,5f51388a8647e3330b433537,4,,,,,,telephone,,,,,,0,43,43,49,1,5,2,,,,,,,,,,,,,,,,,,,,,,,,,,,,,,,,,,,,,,,,,,,,,,,,,,,,,,,,,,,,,,,,,,,,,,,,,,,,,,,,,,,,,,,,,,,,,,,,,,,
,,,,,,,,,,stimuli/images/PICTURE_18.png,RIVER,5b82be6543bc4900017ef3de,19/06/1947,2020-09-03_19h40.40.044,proactive2,2020.1.2,Win32,60,5f5126bb654d4b30ee6923d8,5f51388a8647e3330b433537,4,,,,,,planet,,,,,,0,44,44,22,1,3,2,,,,,,,,,,,,,,,,,,,,,,,,,,,,,,,,,,,,,,,,,,,,,,,,,,,,,,,,,,,,,,,,,,,,,,,,,,,,,,,,,,,,,,,,,,,,,,,,,,,
,,,,,,,,,,stimuli/images/PICTURE_348.png,TOILET,5b82be6543bc4900017ef3de,19/06/1947,2020-09-03_19h40.40.044,proactive2,2020.1.2,Win32,60,5f5126bb654d4b30ee6923d8,5f51388a8647e3330b433537,4,,,,,,pepper,,,,,,0,45,45,4,1,1,2,,,,,,,,,,,,,,,,,,,,,,,,,,,,,,,,,,,,,,,,,,,,,,,,,,,,,,,,,,,,,,,,,,,,,,,,,,,,,,,,,,,,,,,,,,,,,,,,,,,
,,,,,,,,,,stimuli/images/PICTURE_405.png,JUNGLE,5b82be6543bc4900017ef3de,19/06/1947,2020-09-03_19h40.40.044,proactive2,2020.1.2,Win32,60,5f5126bb654d4b30ee6923d8,5f51388a8647e3330b433537,4,,,,,,anchor,,,,,,0,46,46,58,1,6,2,,,,,,,,,,,,,,,,,,,,,,,,,,,,,,,,,,,,,,,,,,,,,,,,,,,,,,,,,,,,,,,,,,,,,,,,,,,,,,,,,,,,,,,,,,,,,,,,,,,
,,,,,,,,,,stimuli/images/PICTURE_311.png,TOILET,5b82be6543bc4900017ef3de,19/06/1947,2020-09-03_19h40.40.044,proactive2,2020.1.2,Win32,60,5f5126bb654d4b30ee6923d8,5f51388a8647e3330b433537,4,,,,,,razor,,,,,,0,47,47,54,1,6,2,,,,,,,,,,,,,,,,,,,,,,,,,,,,,,,,,,,,,,,,,,,,,,,,,,,,,,,,,,,,,,,,,,,,,,,,,,,,,,,,,,,,,,,,,,,,,,,,,,,
,,,,,,,,,,stimuli/images/PICTURE_327.png,LEADER,5b82be6543bc4900017ef3de,19/06/1947,2020-09-03_19h40.40.044,proactive2,2020.1.2,Win32,60,5f5126bb654d4b30ee6923d8,5f51388a8647e3330b433537,4,,,,,,helmet,,,,,,0,48,48,17,1,2,2,,,,,,,,,,,,,,,,,,,,,,,,,,,,,,,,,,,,,,,,,,,,,,,,,,,,,,,,,,,,,,,,,,,,,,,,,,,,,,,,,,,,,,,,,,,,,,,,,,,
,,,,,,,,,,stimuli/images/PICTURE_487.png,ROOF,5b82be6543bc4900017ef3de,19/06/1947,2020-09-03_19h40.40.044,proactive2,2020.1.2,Win32,60,5f5126bb654d4b30ee6923d8,5f51388a8647e3330b433537,4,,,,,,basket,,,,,,0,49,49,50,1,6,2,,,,,,,,,,,,,,,,,,,,,,,,,,,,,,,,,,,,,,,,,,,,,,,,,,,,,,,,,,,,,,,,,,,,,,,,,,,,,,,,,,,,,,,,,,,,,,,,,,,
,,,,,,,,,,stimuli/images/PICTURE_677.png,PHOTO,5b82be6543bc4900017ef3de,19/06/1947,2020-09-03_19h40.40.044,proactive2,2020.1.2,Win32,60,5f5126bb654d4b30ee6923d8,5f51388a8647e3330b433537,4,,,,,,map,,,,,,0,50,50,14,1,2,2,,,,,,,,,,,,,,,,,,,,,,,,,,,,,,,,,,,,,,,,,,,,,,,,,,,,,,,,,,,,,,,,,,,,,,,,,,,,,,,,,,,,,,,,,,,,,,,,,,,
,,,,,,,,,,stimuli/images/PICTURE_470.png,MOMENT,5b82be6543bc4900017ef3de,19/06/1947,2020-09-03_19h40.40.044,proactive2,2020.1.2,Win32,60,5f5126bb654d4b30ee6923d8,5f51388a8647e3330b433537,4,,,,,,motorbike,,,,,,0,51,51,40,1,5,2,,,,,,,,,,,,,,,,,,,,,,,,,,,,,,,,,,,,,,,,,,,,,,,,,,,,,,,,,,,,,,,,,,,,,,,,,,,,,,,,,,,,,,,,,,,,,,,,,,,
,,,,,,,,,,stimuli/images/PICTURE_655.png,SALE,5b82be6543bc4900017ef3de,19/06/1947,2020-09-03_19h40.40.044,proactive2,2020.1.2,Win32,60,5f5126bb654d4b30ee6923d8,5f51388a8647e3330b433537,4,,,,,,megaphone,,,,,,0,52,52,57,1,6,2,,,,,,,,,,,,,,,,,,,,,,,,,,,,,,,,,,,,,,,,,,,,,,,,,,,,,,,,,,,,,,,,,,,,,,,,,,,,,,,,,,,,,,,,,,,,,,,,,,,
,,,,,,,,,,stimuli/images/PICTURE_68.png,KIND,5b82be6543bc4900017ef3de,19/06/1947,2020-09-03_19h40.40.044,proactive2,2020.1.2,Win32,60,5f5126bb654d4b30ee6923d8,5f51388a8647e3330b433537,4,,,,,,candle,,,,,,0,53,53,23,1,3,2,,,,,,,,,,,,,,,,,,,,,,,,,,,,,,,,,,,,,,,,,,,,,,,,,,,,,,,,,,,,,,,,,,,,,,,,,,,,,,,,,,,,,,,,,,,,,,,,,,,
,,,,,,,,,,stimuli/images/PICTURE_32.png,LETTER,5b82be6543bc4900017ef3de,19/06/1947,2020-09-03_19h40.40.044,proactive2,2020.1.2,Win32,60,5f5126bb654d4b30ee6923d8,5f51388a8647e3330b433537,4,,,,,,crown,,,,,,0,54,54,56,1,6,2,,,,,,,,,,,,,,,,,,,,,,,,,,,,,,,,,,,,,,,,,,,,,,,,,,,,,,,,,,,,,,,,,,,,,,,,,,,,,,,,,,,,,,,,,,,,,,,,,,,
,,,,,,,,,,stimuli/images/PICTURE_123.png,SALE,5b82be6543bc4900017ef3de,19/06/1947,2020-09-03_19h40.40.044,proactive2,2020.1.2,Win32,60,5f5126bb654d4b30ee6923d8,5f51388a8647e3330b433537,4,,,,,,dart,,,,,,0,55,55,8,1,1,2,,,,,,,,,,,,,,,,,,,,,,,,,,,,,,,,,,,,,,,,,,,,,,,,,,,,,,,,,,,,,,,,,,,,,,,,,,,,,,,,,,,,,,,,,,,,,,,,,,,
,,,,,,,,,,stimuli/images/PICTURE_487.png,POLICY,5b82be6543bc4900017ef3de,19/06/1947,2020-09-03_19h40.40.044,proactive2,2020.1.2,Win32,60,5f5126bb654d4b30ee6923d8,5f51388a8647e3330b433537,4,,,,,,basket,,,,,,0,56,56,34,1,4,2,,,,,,,,,,,,,,,,,,,,,,,,,,,,,,,,,,,,,,,,,,,,,,,,,,,,,,,,,,,,,,,,,,,,,,,,,,,,,,,,,,,,,,,,,,,,,,,,,,,
,,,,,,,,,,stimuli/images/PICTURE_692.png,DUDE,5b82be6543bc4900017ef3de,19/06/1947,2020-09-03_19h40.40.044,proactive2,2020.1.2,Win32,60,5f5126bb654d4b30ee6923d8,5f51388a8647e3330b433537,4,,,,,,cherry,,,,,,0,57,57,47,1,5,2,,,,,,,,,,,,,,,,,,,,,,,,,,,,,,,,,,,,,,,,,,,,,,,,,,,,,,,,,,,,,,,,,,,,,,,,,,,,,,,,,,,,,,,,,,,,,,,,,,,
,,,,,,,,,,stimuli/images/PICTURE_564.png,PLENTY,5b82be6543bc4900017ef3de,19/06/1947,2020-09-03_19h40.40.044,proactive2,2020.1.2,Win32,60,5f5126bb654d4b30ee6923d8,5f51388a8647e3330b433537,4,,,,,,spoon,,,,,,0,58,58,11,1,2,2,,,,,,,,,,,,,,,,,,,,,,,,,,,,,,,,,,,,,,,,,,,,,,,,,,,,,,,,,,,,,,,,,,,,,,,,,,,,,,,,,,,,,,,,,,,,,,,,,,,
,,?,0.0005,0,,,,,,stimuli/images/PICTURE_296.png,CLOCK,5b82be6543bc4900017ef3de,19/06/1947,2020-09-03_19h40.40.044,proactive2,2020.1.2,Win32,60,5f5126bb654d4b30ee6923d8,5f51388a8647e3330b433537,4,,,,,,bolt,,,,,,,,,,,2,2,0,0,0,18,1,,,,,,,,,,,,,,,,,,,,,,,,,,,,,,,,,,,,,,,,,,,,,,,,,,,,,,,,,,,,,,,,,,,,,,,,,,,,,,,,,,,,,,,,,,,,,,
,,?,0.00031,0,,,,,,stimuli/images/PICTURE_297.png,BODY,5b82be6543bc4900017ef3de,19/06/1947,2020-09-03_19h40.40.044,proactive2,2020.1.2,Win32,60,5f5126bb654d4b30ee6923d8,5f51388a8647e3330b433537,4,,,,,,aeroplane,,,,,,,,,,,6,2,0,1,1,51,1,,,,,,,,,,,,,,,,,,,,,,,,,,,,,,,,,,,,,,,,,,,,,,,,,,,,,,,,,,,,,,,,,,,,,,,,,,,,,,,,,,,,,,,,,,,,,,
,,?,0.0003,0,,,,,,stimuli/images/PICTURE_285.png,WRITER,5b82be6543bc4900017ef3de,19/06/1947,2020-09-03_19h40.40.044,proactive2,2020.1.2,Win32,60,5f5126bb654d4b30ee6923d8,5f51388a8647e3330b433537,4,,,,,,carrot,,,,,,,,,,,1,2,0,2,2,6,1,,,,,,,,,,,,,,,,,,,,,,,,,,,,,,,,,,,,,,,,,,,,,,,,,,,,,,,,,,,,,,,,,,,,,,,,,,,,,,,,,,,,,,,,,,,,,,
,,?,0.0003,0,,,,,,stimuli/images/PICTURE_654.png,COPS,5b82be6543bc4900017ef3de,19/06/1947,2020-09-03_19h40.40.044,proactive2,2020.1.2,Win32,60,5f5126bb654d4b30ee6923d8,5f51388a8647e3330b433537,4,,,,,,pencil,,,,,,,,,,,2,2,0,3,3,10,1,,,,,,,,,,,,,,,,,,,,,,,,,,,,,,,,,,,,,,,,,,,,,,,,,,,,,,,,,,,,,,,,,,,,,,,,,,,,,,,,,,,,,,,,,,,,,,
,,?,0.0003,0,,,,,,stimuli/images/PICTURE_57.png,CASINO,5b82be6543bc4900017ef3de,19/06/1947,2020-09-03_19h40.40.044,proactive2,2020.1.2,Win32,60,5f5126bb654d4b30ee6923d8,5f51388a8647e3330b433537,4,,,,,,stamp,,,,,,,,,,,2,2,0,4,4,12,1,,,,,,,,,,,,,,,,,,,,,,,,,,,,,,,,,,,,,,,,,,,,,,,,,,,,,,,,,,,,,,,,,,,,,,,,,,,,,,,,,,,,,,,,,,,,,,
,,LEADER,2.946565,1,,,,,,stimuli/images/PICTURE_147.png,LEADER,5b82be6543bc4900017ef3de,19/06/1947,2020-09-03_19h40.40.044,proactive2,2020.1.2,Win32,60,5f5126bb654d4b30ee6923d8,5f51388a8647e3330b433537,4,,,,,,hanger,,,,,,,,,,,4,2,0,5,5,33,1,,,,,,,,,,,,,,,,,,,,,,,,,,,,,,,,,,,,,,,,,,,,,,,,,,,,,,,,,,,,,,,,,,,,,,,,,,,,,,,,,,,,,,,,,,,,,,
,,?,0.000615,0,,,,,,stimuli/images/PICTURE_708.png,VALLEY,5b82be6543bc4900017ef3de,19/06/1947,2020-09-03_19h40.40.044,proactive2,2020.1.2,Win32,60,5f5126bb654d4b30ee6923d8,5f51388a8647e3330b433537,4,,,,,,monkey,,,,,,,,,,,5,2,0,6,6,45,1,,,,,,,,,,,,,,,,,,,,,,,,,,,,,,,,,,,,,,,,,,,,,,,,,,,,,,,,,,,,,,,,,,,,,,,,,,,,,,,,,,,,,,,,,,,,,,
,,?,0.000395,0,,,,,,stimuli/images/PICTURE_453.png,FAMILY,5b82be6543bc4900017ef3de,19/06/1947,2020-09-03_19h40.40.044,proactive2,2020.1.2,Win32,60,5f5126bb654d4b30ee6923d8,5f51388a8647e3330b433537,4,,,,,,scissors,,,,,,,,,,,5,2,0,7,7,48,1,,,,,,,,,,,,,,,,,,,,,,,,,,,,,,,,,,,,,,,,,,,,,,,,,,,,,,,,,,,,,,,,,,,,,,,,,,,,,,,,,,,,,,,,,,,,,,
,,?,0.00033,0,,,,,,stimuli/images/PICTURE_677.png,FAMILY,5b82be6543bc4900017ef3de,19/06/1947,2020-09-03_19h40.40.044,proactive2,2020.1.2,Win32,60,5f5126bb654d4b30ee6923d8,5f51388a8647e3330b433537,4,,,,,,map,,,,,,,,,,,6,2,0,8,8,53,1,,,,,,,,,,,,,,,,,,,,,,,,,,,,,,,,,,,,,,,,,,,,,,,,,,,,,,,,,,,,,,,,,,,,,,,,,,,,,,,,,,,,,,,,,,,,,,
,,?,0.00035,0,,,,,,stimuli/images/PICTURE_348.png,DUDE,5b82be6543bc4900017ef3de,19/06/1947,2020-09-03_19h40.40.044,proactive2,2020.1.2,Win32,60,5f5126bb654d4b30ee6923d8,5f51388a8647e3330b433537,4,,,,,,pepper,,,,,,,,,,,6,2,0,9,9,59,1,,,,,,,,,,,,,,,,,,,,,,,,,,,,,,,,,,,,,,,,,,,,,,,,,,,,,,,,,,,,,,,,,,,,,,,,,,,,,,,,,,,,,,,,,,,,,,
,,?,0.00032,0,,,,,,stimuli/images/PICTURE_509.png,SHOTS,5b82be6543bc4900017ef3de,19/06/1947,2020-09-03_19h40.40.044,proactive2,2020.1.2,Win32,60,5f5126bb654d4b30ee6923d8,5f51388a8647e3330b433537,4,,,,,,telephone,,,,,,,,,,,1,2,0,10,10,7,1,,,,,,,,,,,,,,,,,,,,,,,,,,,,,,,,,,,,,,,,,,,,,,,,,,,,,,,,,,,,,,,,,,,,,,,,,,,,,,,,,,,,,,,,,,,,,,
,,?,0.000375,0,,,,,,stimuli/images/PICTURE_564.png,PLENTY,5b82be6543bc4900017ef3de,19/06/1947,2020-09-03_19h40.40.044,proactive2,2020.1.2,Win32,60,5f5126bb654d4b30ee6923d8,5f51388a8647e3330b433537,4,,,,,,spoon,,,,,,,,,,,2,2,0,11,11,11,1,,,,,,,,,,,,,,,,,,,,,,,,,,,,,,,,,,,,,,,,,,,,,,,,,,,,,,,,,,,,,,,,,,,,,,,,,,,,,,,,,,,,,,,,,,,,,,
,,?,0.000295,0,,,,,,stimuli/images/PICTURE_215.png,BOYS,5b82be6543bc4900017ef3de,19/06/1947,2020-09-03_19h40.40.044,proactive2,2020.1.2,Win32,60,5f5126bb654d4b30ee6923d8,5f51388a8647e3330b433537,4,,,,,,boot,,,,,,,,,,,3,2,0,12,12,24,1,,,,,,,,,,,,,,,,,,,,,,,,,,,,,,,,,,,,,,,,,,,,,,,,,,,,,,,,,,,,,,,,,,,,,,,,,,,,,,,,,,,,,,,,,,,,,,
,,?,0.0003,0,,,,,,stimuli/images/PICTURE_487.png,ROOF,5b82be6543bc4900017ef3de,19/06/1947,2020-09-03_19h40.40.044,proactive2,2020.1.2,Win32,60,5f5126bb654d4b30ee6923d8,5f51388a8647e3330b433537,4,,,,,,basket,,,,,,,,,,,6,2,0,13,13,50,1,,,,,,,,,,,,,,,,,,,,,,,,,,,,,,,,,,,,,,,,,,,,,,,,,,,,,,,,,,,,,,,,,,,,,,,,,,,,,,,,,,,,,,,,,,,,,,
,,APPLE,3.75185,1,,,,,,stimuli/images/PICTURE_509.png,APPLE,5b82be6543bc4900017ef3de,19/06/1947,2020-09-03_19h40.40.044,proactive2,2020.1.2,Win32,60,5f5126bb654d4b30ee6923d8,5f51388a8647e3330b433537,4,,,,,,telephone,,,,,,,,,,,4,2,0,14,14,38,1,,,,,,,,,,,,,,,,,,,,,,,,,,,,,,,,,,,,,,,,,,,,,,,,,,,,,,,,,,,,,,,,,,,,,,,,,,,,,,,,,,,,,,,,,,,,,,
,,?,0.00065,0,,,,,,stimuli/images/PICTURE_655.png,SALE,5b82be6543bc4900017ef3de,19/06/1947,2020-09-03_19h40.40.044,proactive2,2020.1.2,Win32,60,5f5126bb654d4b30ee6923d8,5f51388a8647e3330b433537,4,,,,,,megaphone,,,,,,,,,,,6,2,0,15,15,57,1,,,,,,,,,,,,,,,,,,,,,,,,,,,,,,,,,,,,,,,,,,,,,,,,,,,,,,,,,,,,,,,,,,,,,,,,,,,,,,,,,,,,,,,,,,,,,,
,,NIGHT,2.337245,1,,,,,,stimuli/images/PICTURE_95.png,NIGHT,5b82be6543bc4900017ef3de,19/06/1947,2020-09-03_19h40.40.044,proactive2,2020.1.2,Win32,60,5f5126bb654d4b30ee6923d8,5f51388a8647e3330b433537,4,,,,,,suitcase,,,,,,,,,,,4,2,0,16,16,37,1,,,,,,,,,,,,,,,,,,,,,,,,,,,,,,,,,,,,,,,,,,,,,,,,,,,,,,,,,,,,,,,,,,,,,,,,,,,,,,,,,,,,,,,,,,,,,,
,,GIRL,3.423585,1,,,,,,stimuli/images/PICTURE_93.png,GIRL,5b82be6543bc4900017ef3de,19/06/1947,2020-09-03_19h40.40.044,proactive2,2020.1.2,Win32,60,5f5126bb654d4b30ee6923d8,5f51388a8647e3330b433537,4,,,,,,skateboard,,,,,,,,,,,4,2,0,17,17,31,1,,,,,,,,,,,,,,,,,,,,,,,,,,,,,,,,,,,,,,,,,,,,,,,,,,,,,,,,,,,,,,,,,,,,,,,,,,,,,,,,,,,,,,,,,,,,,,
,,?,0.000865,0,,,,,,stimuli/images/PICTURE_215.png,FOOD,5b82be6543bc4900017ef3de,19/06/1947,2020-09-03_19h40.40.044,proactive2,2020.1.2,Win32,60,5f5126bb654d4b30ee6923d8,5f51388a8647e3330b433537,4,,,,,,boot,,,,,,,,,,,1,2,0,18,18,5,1,,,,,,,,,,,,,,,,,,,,,,,,,,,,,,,,,,,,,,,,,,,,,,,,,,,,,,,,,,,,,,,,,,,,,,,,,,,,,,,,,,,,,,,,,,,,,,
,,?,0.000325,0,,,,,,stimuli/images/PICTURE_2.png,JUNGLE,5b82be6543bc4900017ef3de,19/06/1947,2020-09-03_19h40.40.044,proactive2,2020.1.2,Win32,60,5f5126bb654d4b30ee6923d8,5f51388a8647e3330b433537,4,,,,,,tyre,,,,,,,,,,,1,2,0,19,19,1,1,,,,,,,,,,,,,,,,,,,,,,,,,,,,,,,,,,,,,,,,,,,,,,,,,,,,,,,,,,,,,,,,,,,,,,,,,,,,,,,,,,,,,,,,,,,,,,
,,POLICY,2.853875,1,,,,,,stimuli/images/PICTURE_487.png,POLICY,5b82be6543bc4900017ef3de,19/06/1947,2020-09-03_19h40.40.044,proactive2,2020.1.2,Win32,60,5f5126bb654d4b30ee6923d8,5f51388a8647e3330b433537,4,,,,,,basket,,,,,,,,,,,4,2,0,20,20,34,1,,,,,,,,,,,,,,,,,,,,,,,,,,,,,,,,,,,,,,,,,,,,,,,,,,,,,,,,,,,,,,,,,,,,,,,,,,,,,,,,,,,,,,,,,,,,,,
,,?,0.00055,0,,,,,,stimuli/images/PICTURE_160.png,HOTEL,5b82be6543bc4900017ef3de,19/06/1947,2020-09-03_19h40.40.044,proactive2,2020.1.2,Win32,60,5f5126bb654d4b30ee6923d8,5f51388a8647e3330b433537,4,,,,,,wheelbarrow,,,,,,,,,,,2,2,0,21,21,16,1,,,,,,,,,,,,,,,,,,,,,,,,,,,,,,,,,,,,,,,,,,,,,,,,,,,,,,,,,,,,,,,,,,,,,,,,,,,,,,,,,,,,,,,,,,,,,,
,,?,0.00031,0,,,,,,stimuli/images/PICTURE_452.png,COPS,5b82be6543bc4900017ef3de,19/06/1947,2020-09-03_19h40.40.044,proactive2,2020.1.2,Win32,60,5f5126bb654d4b30ee6923d8,5f51388a8647e3330b433537,4,,,,,,watch,,,,,,,,,,,1,2,0,22,22,0,1,,,,,,,,,,,,,,,,,,,,,,,,,,,,,,,,,,,,,,,,,,,,,,,,,,,,,,,,,,,,,,,,,,,,,,,,,,,,,,,,,,,,,,,,,,,,,,
,,SERIES,2.76877,1,,,,,,stimuli/images/PICTURE_491.png,SERIES,5b82be6543bc4900017ef3de,19/06/1947,2020-09-03_19h40.40.044,proactive2,2020.1.2,Win32,60,5f5126bb654d4b30ee6923d8,5f51388a8647e3330b433537,4,,,,,,rug,,,,,,,,,,,4,2,0,23,23,39,1,,,,,,,,,,,,,,,,,,,,,,,,,,,,,,,,,,,,,,,,,,,,,,,,,,,,,,,,,,,,,,,,,,,,,,,,,,,,,,,,,,,,,,,,,,,,,,
,,?,0.000665,0,,,,,,stimuli/images/PICTURE_32.png,LETTER,5b82be6543bc4900017ef3de,19/06/1947,2020-09-03_19h40.40.044,proactive2,2020.1.2,Win32,60,5f5126bb654d4b30ee6923d8,5f51388a8647e3330b433537,4,,,,,,crown,,,,,,,,,,,6,2,0,24,24,56,1,,,,,,,,,,,,,,,,,,,,,,,,,,,,,,,,,,,,,,,,,,,,,,,,,,,,,,,,,,,,,,,,,,,,,,,,,,,,,,,,,,,,,,,,,,,,,,
,,?,0.00033,0,,,,,,stimuli/images/PICTURE_33.png,COPS,5b82be6543bc4900017ef3de,19/06/1947,2020-09-03_19h40.40.044,proactive2,2020.1.2,Win32,60,5f5126bb654d4b30ee6923d8,5f51388a8647e3330b433537,4,,,,,,frame,,,,,,,,,,,3,2,0,25,25,29,1,,,,,,,,,,,,,,,,,,,,,,,,,,,,,,,,,,,,,,,,,,,,,,,,,,,,,,,,,,,,,,,,,,,,,,,,,,,,,,,,,,,,,,,,,,,,,,
,,?,0.000315,0,,,,,,stimuli/images/PICTURE_470.png,BEAUTY,5b82be6543bc4900017ef3de,19/06/1947,2020-09-03_19h40.40.044,proactive2,2020.1.2,Win32,60,5f5126bb654d4b30ee6923d8,5f51388a8647e3330b433537,4,,,,,,motorbike,,,,,,,,,,,3,2,0,26,26,26,1,,,,,,,,,,,,,,,,,,,,,,,,,,,,,,,,,,,,,,,,,,,,,,,,,,,,,,,,,,,,,,,,,,,,,,,,,,,,,,,,,,,,,,,,,,,,,,
,,?,0.000295,0,,,,,,stimuli/images/PICTURE_688.png,CLOCK,5b82be6543bc4900017ef3de,19/06/1947,2020-09-03_19h40.40.044,proactive2,2020.1.2,Win32,60,5f5126bb654d4b30ee6923d8,5f51388a8647e3330b433537,4,,,,,,runner,,,,,,,,,,,5,2,0,27,27,42,1,,,,,,,,,,,,,,,,,,,,,,,,,,,,,,,,,,,,,,,,,,,,,,,,,,,,,,,,,,,,,,,,,,,,,,,,,,,,,,,,,,,,,,,,,,,,,,
,,?,0.000305,0,,,,,,stimuli/images/PICTURE_68.png,KIND,5b82be6543bc4900017ef3de,19/06/1947,2020-09-03_19h40.40.044,proactive2,2020.1.2,Win32,60,5f5126bb654d4b30ee6923d8,5f51388a8647e3330b433537,4,,,,,,candle,,,,,,,,,,,3,2,0,28,28,23,1,,,,,,,,,,,,,,,,,,,,,,,,,,,,,,,,,,,,,,,,,,,,,,,,,,,,,,,,,,,,,,,,,,,,,,,,,,,,,,,,,,,,,,,,,,,,,,
,,?,0.000285,0,,,,,,stimuli/images/PICTURE_208.png,SPIRIT,5b82be6543bc4900017ef3de,19/06/1947,2020-09-03_19h40.40.044,proactive2,2020.1.2,Win32,60,5f5126bb654d4b30ee6923d8,5f51388a8647e3330b433537,4,,,,,,microphone,,,,,,,,,,,3,2,0,29,29,28,1,,,,,,,,,,,,,,,,,,,,,,,,,,,,,,,,,,,,,,,,,,,,,,,,,,,,,,,,,,,,,,,,,,,,,,,,,,,,,,,,,,,,,,,,,,,,,,
,,?,0.000295,0,,,,,,stimuli/images/PICTURE_57.png,NATION,5b82be6543bc4900017ef3de,19/06/1947,2020-09-03_19h40.40.044,proactive2,2020.1.2,Win32,60,5f5126bb654d4b30ee6923d8,5f51388a8647e3330b433537,4,,,,,,stamp,,,,,,,,,,,3,2,0,30,30,21,1,,,,,,,,,,,,,,,,,,,,,,,,,,,,,,,,,,,,,,,,,,,,,,,,,,,,,,,,,,,,,,,,,,,,,,,,,,,,,,,,,,,,,,,,,,,,,,
,,?,0.000285,0,,,,,,stimuli/images/PICTURE_403.png,FAMILY,5b82be6543bc4900017ef3de,19/06/1947,2020-09-03_19h40.40.044,proactive2,2020.1.2,Win32,60,5f5126bb654d4b30ee6923d8,5f51388a8647e3330b433537,4,,,,,,cathedral,,,,,,,,,,,1,2,0,31,31,9,1,,,,,,,,,,,,,,,,,,,,,,,,,,,,,,,,,,,,,,,,,,,,,,,,,,,,,,,,,,,,,,,,,,,,,,,,,,,,,,,,,,,,,,,,,,,,,,
,,?,0.000285,0,,,,,,stimuli/images/PICTURE_677.png,PHOTO,5b82be6543bc4900017ef3de,19/06/1947,2020-09-03_19h40.40.044,proactive2,2020.1.2,Win32,60,5f5126bb654d4b30ee6923d8,5f51388a8647e3330b433537,4,,,,,,map,,,,,,,,,,,2,2,0,32,32,14,1,,,,,,,,,,,,,,,,,,,,,,,,,,,,,,,,,,,,,,,,,,,,,,,,,,,,,,,,,,,,,,,,,,,,,,,,,,,,,,,,,,,,,,,,,,,,,,
,,?,0.000285,0,,,,,,stimuli/images/PICTURE_57.png,CANDY,5b82be6543bc4900017ef3de,19/06/1947,2020-09-03_19h40.40.044,proactive2,2020.1.2,Win32,60,5f5126bb654d4b30ee6923d8,5f51388a8647e3330b433537,4,,,,,,stamp,,,,,,,,,,,6,2,0,33,33,52,1,,,,,,,,,,,,,,,,,,,,,,,,,,,,,,,,,,,,,,,,,,,,,,,,,,,,,,,,,,,,,,,,,,,,,,,,,,,,,,,,,,,,,,,,,,,,,,
,,?,0.00031,0,,,,,,stimuli/images/PICTURE_311.png,TOILET,5b82be6543bc4900017ef3de,19/06/1947,2020-09-03_19h40.40.044,proactive2,2020.1.2,Win32,60,5f5126bb654d4b30ee6923d8,5f51388a8647e3330b433537,4,,,,,,razor,,,,,,,,,,,6,2,0,34,34,54,1,,,,,,,,,,,,,,,,,,,,,,,,,,,,,,,,,,,,,,,,,,,,,,,,,,,,,,,,,,,,,,,,,,,,,,,,,,,,,,,,,,,,,,,,,,,,,,
,,CLIENT,5.85413,1,,,,,,stimuli/images/PICTURE_141.png,CLIENT,5b82be6543bc4900017ef3de,19/06/1947,2020-09-03_19h40.40.044,proactive2,2020.1.2,Win32,60,5f5126bb654d4b30ee6923d8,5f51388a8647e3330b433537,4,,,,,,sunflower,,,,,,,,,,,4,2,0,35,35,30,1,,,,,,,,,,,,,,,,,,,,,,,,,,,,,,,,,,,,,,,,,,,,,,,,,,,,,,,,,,,,,,,,,,,,,,,,,,,,,,,,,,,,,,,,,,,,,,
,,?,0.00066,0,,,,,,stimuli/images/PICTURE_215.png,LEADER,5b82be6543bc4900017ef3de,19/06/1947,2020-09-03_19h40.40.044,proactive2,2020.1.2,Win32,60,5f5126bb654d4b30ee6923d8,5f51388a8647e3330b433537,4,,,,,,boot,,,,,,,,,,,5,2,0,36,36,43,1,,,,,,,,,,,,,,,,,,,,,,,,,,,,,,,,,,,,,,,,,,,,,,,,,,,,,,,,,,,,,,,,,,,,,,,,,,,,,,,,,,,,,,,,,,,,,,
,,?,0.000325,0,,,,,,stimuli/images/PICTURE_2.png,YARD,5b82be6543bc4900017ef3de,19/06/1947,2020-09-03_19h40.40.044,proactive2,2020.1.2,Win32,60,5f5126bb654d4b30ee6923d8,5f51388a8647e3330b433537,4,,,,,,tyre,,,,,,,,,,,6,2,0,37,37,55,1,,,,,,,,,,,,,,,,,,,,,,,,,,,,,,,,,,,,,,,,,,,,,,,,,,,,,,,,,,,,,,,,,,,,,,,,,,,,,,,,,,,,,,,,,,,,,,
,,?,0.000415,0,,,,,,stimuli/images/PICTURE_509.png,MILLER,5b82be6543bc4900017ef3de,19/06/1947,2020-09-03_19h40.40.044,proactive2,2020.1.2,Win32,60,5f5126bb654d4b30ee6923d8,5f51388a8647e3330b433537,4,,,,,,telephone,,,,,,,,,,,5,2,0,38,38,49,1,,,,,,,,,,,,,,,,,,,,,,,,,,,,,,,,,,,,,,,,,,,,,,,,,,,,,,,,,,,,,,,,,,,,,,,,,,,,,,,,,,,,,,,,,,,,,,
,,HOUSE,3.45528,1,,,,,,stimuli/images/PICTURE_504.png,HOUSE,5b82be6543bc4900017ef3de,19/06/1947,2020-09-03_19h40.40.044,proactive2,2020.1.2,Win32,60,5f5126bb654d4b30ee6923d8,5f51388a8647e3330b433537,4,,,,,,wheel,,,,,,,,,,,4,2,0,39,39,36,1,,,,,,,,,,,,,,,,,,,,,,,,,,,,,,,,,,,,,,,,,,,,,,,,,,,,,,,,,,,,,,,,,,,,,,,,,,,,,,,,,,,,,,,,,,,,,,
,,?,0.00065,0,,,,,,stimuli/images/PICTURE_18.png,RIVER,5b82be6543bc4900017ef3de,19/06/1947,2020-09-03_19h40.40.044,proactive2,2020.1.2,Win32,60,5f5126bb654d4b30ee6923d8,5f51388a8647e3330b433537,4,,,,,,planet,,,,,,,,,,,3,2,0,40,40,22,1,,,,,,,,,,,,,,,,,,,,,,,,,,,,,,,,,,,,,,,,,,,,,,,,,,,,,,,,,,,,,,,,,,,,,,,,,,,,,,,,,,,,,,,,,,,,,,
,,?,0.000395,0,,,,,,stimuli/images/PICTURE_311.png,FLESH,5b82be6543bc4900017ef3de,19/06/1947,2020-09-03_19h40.40.044,proactive2,2020.1.2,Win32,60,5f5126bb654d4b30ee6923d8,5f51388a8647e3330b433537,4,,,,,,razor,,,,,,,,,,,1,2,0,41,41,3,1,,,,,,,,,,,,,,,,,,,,,,,,,,,,,,,,,,,,,,,,,,,,,,,,,,,,,,,,,,,,,,,,,,,,,,,,,,,,,,,,,,,,,,,,,,,,,,
,,?,0.00031,0,,,,,,stimuli/images/PICTURE_667.png,GLASS,5b82be6543bc4900017ef3de,19/06/1947,2020-09-03_19h40.40.044,proactive2,2020.1.2,Win32,60,5f5126bb654d4b30ee6923d8,5f51388a8647e3330b433537,4,,,,,,daisy,,,,,,,,,,,3,2,0,42,42,27,1,,,,,,,,,,,,,,,,,,,,,,,,,,,,,,,,,,,,,,,,,,,,,,,,,,,,,,,,,,,,,,,,,,,,,,,,,,,,,,,,,,,,,,,,,,,,,,
,,?,0.000295,0,,,,,,stimuli/images/PICTURE_285.png,PRINCE,5b82be6543bc4900017ef3de,19/06/1947,2020-09-03_19h40.40.044,proactive2,2020.1.2,Win32,60,5f5126bb654d4b30ee6923d8,5f51388a8647e3330b433537,4,,,,,,carrot,,,,,,,,,,,3,2,0,43,43,20,1,,,,,,,,,,,,,,,,,,,,,,,,,,,,,,,,,,,,,,,,,,,,,,,,,,,,,,,,,,,,,,,,,,,,,,,,,,,,,,,,,,,,,,,,,,,,,,
,,?,0.000295,0,,,,,,stimuli/images/PICTURE_654.png,YEAR,5b82be6543bc4900017ef3de,19/06/1947,2020-09-03_19h40.40.044,proactive2,2020.1.2,Win32,60,5f5126bb654d4b30ee6923d8,5f51388a8647e3330b433537,4,,,,,,pencil,,,,,,,,,,,5,2,0,44,44,41,1,,,,,,,,,,,,,,,,,,,,,,,,,,,,,,,,,,,,,,,,,,,,,,,,,,,,,,,,,,,,,,,,,,,,,,,,,,,,,,,,,,,,,,,,,,,,,,
,,?,0.000285,0,,,,,,stimuli/images/PICTURE_509.png,BATH,5b82be6543bc4900017ef3de,19/06/1947,2020-09-03_19h40.40.044,proactive2,2020.1.2,Win32,60,5f5126bb654d4b30ee6923d8,5f51388a8647e3330b433537,4,,,,,,telephone,,,,,,,,,,,2,2,0,45,45,15,1,,,,,,,,,,,,,,,,,,,,,,,,,,,,,,,,,,,,,,,,,,,,,,,,,,,,,,,,,,,,,,,,,,,,,,,,,,,,,,,,,,,,,,,,,,,,,,
,,?,0.000285,0,,,,,,stimuli/images/PICTURE_177.png,HOUSE,5b82be6543bc4900017ef3de,19/06/1947,2020-09-03_19h40.40.044,proactive2,2020.1.2,Win32,60,5f5126bb654d4b30ee6923d8,5f51388a8647e3330b433537,4,,,,,,mushroom,,,,,,,,,,,3,2,0,46,46,25,1,,,,,,,,,,,,,,,,,,,,,,,,,,,,,,,,,,,,,,,,,,,,,,,,,,,,,,,,,,,,,,,,,,,,,,,,,,,,,,,,,,,,,,,,,,,,,,
,,?,0.000295,0,,,,,,stimuli/images/PICTURE_405.png,HOUSE,5b82be6543bc4900017ef3de,19/06/1947,2020-09-03_19h40.40.044,proactive2,2020.1.2,Win32,60,5f5126bb654d4b30ee6923d8,5f51388a8647e3330b433537,4,,,,,,anchor,,,,,,,,,,,1,2,0,47,47,2,1,,,,,,,,,,,,,,,,,,,,,,,,,,,,,,,,,,,,,,,,,,,,,,,,,,,,,,,,,,,,,,,,,,,,,,,,,,,,,,,,,,,,,,,,,,,,,,
,,?,0.00075,0,,,,,,stimuli/images/PICTURE_692.png,DUDE,5b82be6543bc4900017ef3de,19/06/1947,2020-09-03_19h40.40.044,proactive2,2020.1.2,Win32,60,5f5126bb654d4b30ee6923d8,5f51388a8647e3330b433537,4,,,,,,cherry,,,,,,,,,,,5,2,0,48,48,47,1,,,,,,,,,,,,,,,,,,,,,,,,,,,,,,,,,,,,,,,,,,,,,,,,,,,,,,,,,,,,,,,,,,,,,,,,,,,,,,,,,,,,,,,,,,,,,,
,,?,0.00029,0,,,,,,stimuli/images/PICTURE_255.png,PENNY,5b82be6543bc4900017ef3de,19/06/1947,2020-09-03_19h40.40.044,proactive2,2020.1.2,Win32,60,5f5126bb654d4b30ee6923d8,5f51388a8647e3330b433537,4,,,,,,shovel,,,,,,,,,,,2,2,0,49,49,19,1,,,,,,,,,,,,,,,,,,,,,,,,,,,,,,,,,,,,,,,,,,,,,,,,,,,,,,,,,,,,,,,,,,,,,,,,,,,,,,,,,,,,,,,,,,,,,,
,,?,0.00043,0,,,,,,stimuli/images/PICTURE_327.png,LEADER,5b82be6543bc4900017ef3de,19/06/1947,2020-09-03_19h40.40.044,proactive2,2020.1.2,Win32,60,5f5126bb654d4b30ee6923d8,5f51388a8647e3330b433537,4,,,,,,helmet,,,,,,,,,,,2,2,0,50,50,17,1,,,,,,,,,,,,,,,,,,,,,,,,,,,,,,,,,,,,,,,,,,,,,,,,,,,,,,,,,,,,,,,,,,,,,,,,,,,,,,,,,,,,,,,,,,,,,,
,,?,0.000285,0,,,,,,stimuli/images/PICTURE_348.png,TOILET,5b82be6543bc4900017ef3de,19/06/1947,2020-09-03_19h40.40.044,proactive2,2020.1.2,Win32,60,5f5126bb654d4b30ee6923d8,5f51388a8647e3330b433537,4,,,,,,pepper,,,,,,,,,,,1,2,0,51,51,4,1,,,,,,,,,,,,,,,,,,,,,,,,,,,,,,,,,,,,,,,,,,,,,,,,,,,,,,,,,,,,,,,,,,,,,,,,,,,,,,,,,,,,,,,,,,,,,,
,,?,0.000295,0,,,,,,stimuli/images/PICTURE_405.png,JUNGLE,5b82be6543bc4900017ef3de,19/06/1947,2020-09-03_19h40.40.044,proactive2,2020.1.2,Win32,60,5f5126bb654d4b30ee6923d8,5f51388a8647e3330b433537,4,,,,,,anchor,,,,,,,,,,,6,2,0,52,52,58,1,,,,,,,,,,,,,,,,,,,,,,,,,,,,,,,,,,,,,,,,,,,,,,,,,,,,,,,,,,,,,,,,,,,,,,,,,,,,,,,,,,,,,,,,,,,,,,
,,SPEECH,6.219455,1,,,,,,stimuli/images/PICTURE_314.png,SPEECH,5b82be6543bc4900017ef3de,19/06/1947,2020-09-03_19h40.40.044,proactive2,2020.1.2,Win32,60,5f5126bb654d4b30ee6923d8,5f51388a8647e3330b433537,4,,,,,,perfume,,,,,,,,,,,4,2,0,53,53,35,1,,,,,,,,,,,,,,,,,,,,,,,,,,,,,,,,,,,,,,,,,,,,,,,,,,,,,,,,,,,,,,,,,,,,,,,,,,,,,,,,,,,,,,,,,,,,,,
,,?,0.00083,0,,,,,,stimuli/images/PICTURE_356.png,CANDY,5b82be6543bc4900017ef3de,19/06/1947,2020-09-03_19h40.40.044,proactive2,2020.1.2,Win32,60,5f5126bb654d4b30ee6923d8,5f51388a8647e3330b433537,4,,,,,,pawn,,,,,,,,,,,5,2,0,54,54,46,1,,,,,,,,,,,,,,,,,,,,,,,,,,,,,,,,,,,,,,,,,,,,,,,,,,,,,,,,,,,,,,,,,,,,,,,,,,,,,,,,,,,,,,,,,,,,,,
,,AREA,2.70389,1,,,,,,stimuli/images/PICTURE_2.png,AREA,5b82be6543bc4900017ef3de,19/06/1947,2020-09-03_19h40.40.044,proactive2,2020.1.2,Win32,60,5f5126bb654d4b30ee6923d8,5f51388a8647e3330b433537,4,,,,,,tyre,,,,,,,,,,,4,2,0,55,55,32,1,,,,,,,,,,,,,,,,,,,,,,,,,,,,,,,,,,,,,,,,,,,,,,,,,,,,,,,,,,,,,,,,,,,,,,,,,,,,,,,,,,,,,,,,,,,,,,
,,?,0.00071,0,,,,,,stimuli/images/PICTURE_123.png,SALE,5b82be6543bc4900017ef3de,19/06/1947,2020-09-03_19h40.40.044,proactive2,2020.1.2,Win32,60,5f5126bb654d4b30ee6923d8,5f51388a8647e3330b433537,4,,,,,,dart,,,,,,,,,,,1,2,0,56,56,8,1,,,,,,,,,,,,,,,,,,,,,,,,,,,,,,,,,,,,,,,,,,,,,,,,,,,,,,,,,,,,,,,,,,,,,,,,,,,,,,,,,,,,,,,,,,,,,,
,,?,0.00033,0,,,,,,stimuli/images/PICTURE_750.png,POLICY,5b82be6543bc4900017ef3de,19/06/1947,2020-09-03_19h40.40.044,proactive2,2020.1.2,Win32,60,5f5126bb654d4b30ee6923d8,5f51388a8647e3330b433537,4,,,,,,kettle,,,,,,,,,,,5,2,0,57,57,44,1,,,,,,,,,,,,,,,,,,,,,,,,,,,,,,,,,,,,,,,,,,,,,,,,,,,,,,,,,,,,,,,,,,,,,,,,,,,,,,,,,,,,,,,,,,,,,,
,,?,0.000325,0,,,,,,stimuli/images/PICTURE_470.png,MOMENT,5b82be6543bc4900017ef3de,19/06/1947,2020-09-03_19h40.40.044,proactive2,2020.1.2,Win32,60,5f5126bb654d4b30ee6923d8,5f51388a8647e3330b433537,4,,,,,,motorbike,,,,,,,,,,,5,2,0,58,58,40,1,,,,,,,,,,,,,,,,,,,,,,,,,,,,,,,,,,,,,,,,,,,,,,,,,,,,,,,,,,,,,,,,,,,,,,,,,,,,,,,,,,,,,,,,,,,,,,
,,?,0.00029,0,,,,,,stimuli/images/PICTURE_405.png,JUNGLE,5b82be6543bc4900017ef3de,19/06/1947,2020-09-03_19h40.40.044,proactive2,2020.1.2,Win32,60,5f5126bb654d4b30ee6923d8,5f51388a8647e3330b433537,4,,,,,,anchor,,,,,,,,,,,2,2,0,59,59,13,1,,,,,,,,,,,,,,,,,,,,,,,,,,,,,,,,,,,,,,,,,,,,,,,,,,,,,,,,,,,,,,,,,,,,,,,,,,,,,,,,,,,,,,,,,,,,,,
,,,,,,,,,,,,5b82be6543bc4900017ef3de,19/06/1947,2020-09-03_19h40.40.044,proactive2,2020.1.2,Win32,60,5f5126bb654d4b30ee6923d8,5f51388a8647e3330b433537,4,,,,,,,,,,,,,,,,,,,,,,,,0,1,1,2,1,stimuli/learn-block3.csv,,,,,,,,,,,,,,,,,,,,,,,,,,,,,,,,,,,,,,,,,,,,,,,,,,,,,,,,,,,,,,,,,,,,,,,,,,,,,,,,,,,,,,,,
,,,,,,,,,,stimuli/images/PICTURE_491.png,RIVER,5b82be6543bc4900017ef3de,19/06/1947,2020-09-03_19h40.40.044,proactive2,2020.1.2,Win32,60,5f5126bb654d4b30ee6923d8,5f51388a8647e3330b433537,4,,,,,,rug,,,,,,0,0,0,6,1,1,1,,,,,,,,,,,,,,,,,,,,,,,,,,,,,,,,,,,,,,,,,,,,,,,,,,,,,,,,,,,,,,,,,,,,,,,,,,,,,,,,,,,,,,,,,,,,,,,,,,,
,,,,,,,,,,stimuli/images/PICTURE_85.png,NATION,5b82be6543bc4900017ef3de,19/06/1947,2020-09-03_19h40.40.044,proactive2,2020.1.2,Win32,60,5f5126bb654d4b30ee6923d8,5f51388a8647e3330b433537,4,,,,,,diamond,,,,,,0,1,1,5,1,1,1,,,,,,,,,,,,,,,,,,,,,,,,,,,,,,,,,,,,,,,,,,,,,,,,,,,,,,,,,,,,,,,,,,,,,,,,,,,,,,,,,,,,,,,,,,,,,,,,,,,
,,,,,,,,,,stimuli/images/PICTURE_654.png,MONTH,5b82be6543bc4900017ef3de,19/06/1947,2020-09-03_19h40.40.044,proactive2,2020.1.2,Win32,60,5f5126bb654d4b30ee6923d8,5f51388a8647e3330b433537,4,,,,,,pencil,,,,,,0,2,2,29,1,3,1,,,,,,,,,,,,,,,,,,,,,,,,,,,,,,,,,,,,,,,,,,,,,,,,,,,,,,,,,,,,,,,,,,,,,,,,,,,,,,,,,,,,,,,,,,,,,,,,,,,
,,,,,,,,,,stimuli/images/PICTURE_750.png,HOTEL,5b82be6543bc4900017ef3de,19/06/1947,2020-09-03_19h40.40.044,proactive2,2020.1.2,Win32,60,5f5126bb654d4b30ee6923d8,5f51388a8647e3330b433537,4,,,,,,kettle,,,,,,0,3,3,27,1,3,1,,,,,,,,,,,,,,,,,,,,,,,,,,,,,,,,,,,,,,,,,,,,,,,,,,,,,,,,,,,,,,,,,,,,,,,,,,,,,,,,,,,,,,,,,,,,,,,,,,,
,,,,,,,,,,stimuli/images/PICTURE_504.png,YEAR,5b82be6543bc4900017ef3de,19/06/1947,2020-09-03_19h40.40.044,proactive2,2020.1.2,Win32,60,5f5126bb654d4b30ee6923d8,5f51388a8647e3330b433537,4,,,,,,wheel,,,,,,0,4,4,13,1,2,1,,,,,,,,,,,,,,,,,,,,,,,,,,,,,,,,,,,,,,,,,,,,,,,,,,,,,,,,,,,,,,,,,,,,,,,,,,,,,,,,,,,,,,,,,,,,,,,,,,,
,,,,,,,,,,stimuli/images/PICTURE_403.png,WRITER,5b82be6543bc4900017ef3de,19/06/1947,2020-09-03_19h40.40.044,proactive2,2020.1.2,Win32,60,5f5126bb654d4b30ee6923d8,5f51388a8647e3330b433537,4,,,,,,cathedral,,,,,,0,5,5,31,1,4,1,,,,,,,,,,,,,,,,,,,,,,,,,,,,,,,,,,,,,,,,,,,,,,,,,,,,,,,,,,,,,,,,,,,,,,,,,,,,,,,,,,,,,,,,,,,,,,,,,,,
,,,,,,,,,,stimuli/images/PICTURE_405.png,PLENTY,5b82be6543bc4900017ef3de,19/06/1947,2020-09-03_19h40.40.044,proactive2,2020.1.2,Win32,60,5f5126bb654d4b30ee6923d8,5f51388a8647e3330b433537,4,,,,,,anchor,,,,,,0,6,6,23,1,3,1,,,,,,,,,,,,,,,,,,,,,,,,,,,,,,,,,,,,,,,,,,,,,,,,,,,,,,,,,,,,,,,,,,,,,,,,,,,,,,,,,,,,,,,,,,,,,,,,,,,
,,,,,,,,,,stimuli/images/PICTURE_208.png,SYSTEM,5b82be6543bc4900017ef3de,19/06/1947,2020-09-03_19h40.40.044,proactive2,2020.1.2,Win32,60,5f5126bb654d4b30ee6923d8,5f51388a8647e3330b433537,4,,,,,,microphone,,,,,,0,7,7,32,1,4,1,,,,,,,,,,,,,,,,,,,,,,,,,,,,,,,,,,,,,,,,,,,,,,,,,,,,,,,,,,,,,,,,,,,,,,,,,,,,,,,,,,,,,,,,,,,,,,,,,,,
,,,,,,,,,,stimuli/images/PICTURE_467.png,POLICY,5b82be6543bc4900017ef3de,19/06/1947,2020-09-03_19h40.40.044,proactive2,2020.1.2,Win32,60,5f5126bb654d4b30ee6923d8,5f51388a8647e3330b433537,4,,,,,,peg,,,,,,0,8,8,53,1,6,1,,,,,,,,,,,,,,,,,,,,,,,,,,,,,,,,,,,,,,,,,,,,,,,,,,,,,,,,,,,,,,,,,,,,,,,,,,,,,,,,,,,,,,,,,,,,,,,,,,,
,,,,,,,,,,stimuli/images/PICTURE_308.png,FAMILY,5b82be6543bc4900017ef3de,19/06/1947,2020-09-03_19h40.40.044,proactive2,2020.1.2,Win32,60,5f5126bb654d4b30ee6923d8,5f51388a8647e3330b433537,4,,,,,,dice,,,,,,0,9,9,36,1,4,1,,,,,,,,,,,,,,,,,,,,,,,,,,,,,,,,,,,,,,,,,,,,,,,,,,,,,,,,,,,,,,,,,,,,,,,,,,,,,,,,,,,,,,,,,,,,,,,,,,,
,,,,,,,,,,stimuli/images/PICTURE_95.png,BOYS,5b82be6543bc4900017ef3de,19/06/1947,2020-09-03_19h40.40.044,proactive2,2020.1.2,Win32,60,5f5126bb654d4b30ee6923d8,5f51388a8647e3330b433537,4,,,,,,suitcase,,,,,,0,10,10,1,1,1,1,,,,,,,,,,,,,,,,,,,,,,,,,,,,,,,,,,,,,,,,,,,,,,,,,,,,,,,,,,,,,,,,,,,,,,,,,,,,,,,,,,,,,,,,,,,,,,,,,,,
,,,,,,,,,,stimuli/images/PICTURE_233.png,LOTS,5b82be6543bc4900017ef3de,19/06/1947,2020-09-03_19h40.40.044,proactive2,2020.1.2,Win32,60,5f5126bb654d4b30ee6923d8,5f51388a8647e3330b433537,4,,,,,,salt,,,,,,0,11,11,42,1,5,1,,,,,,,,,,,,,,,,,,,,,,,,,,,,,,,,,,,,,,,,,,,,,,,,,,,,,,,,,,,,,,,,,,,,,,,,,,,,,,,,,,,,,,,,,,,,,,,,,,,
,,,,,,,,,,stimuli/images/PICTURE_42.png,BOYS,5b82be6543bc4900017ef3de,19/06/1947,2020-09-03_19h40.40.044,proactive2,2020.1.2,Win32,60,5f5126bb654d4b30ee6923d8,5f51388a8647e3330b433537,4,,,,,,pear,,,,,,0,12,12,55,1,6,1,,,,,,,,,,,,,,,,,,,,,,,,,,,,,,,,,,,,,,,,,,,,,,,,,,,,,,,,,,,,,,,,,,,,,,,,,,,,,,,,,,,,,,,,,,,,,,,,,,,
,,,,,,,,,,stimuli/images/PICTURE_108.png,POLICY,5b82be6543bc4900017ef3de,19/06/1947,2020-09-03_19h40.40.044,proactive2,2020.1.2,Win32,60,5f5126bb654d4b30ee6923d8,5f51388a8647e3330b433537,4,,,,,,calendar,,,,,,0,13,13,22,1,3,1,,,,,,,,,,,,,,,,,,,,,,,,,,,,,,,,,,,,,,,,,,,,,,,,,,,,,,,,,,,,,,,,,,,,,,,,,,,,,,,,,,,,,,,,,,,,,,,,,,,
,,,,,,,,,,stimuli/images/PICTURE_564.png,BATH,5b82be6543bc4900017ef3de,19/06/1947,2020-09-03_19h40.40.044,proactive2,2020.1.2,Win32,60,5f5126bb654d4b30ee6923d8,5f51388a8647e3330b433537,4,,,,,,spoon,,,,,,0,14,14,26,1,3,1,,,,,,,,,,,,,,,,,,,,,,,,,,,,,,,,,,,,,,,,,,,,,,,,,,,,,,,,,,,,,,,,,,,,,,,,,,,,,,,,,,,,,,,,,,,,,,,,,,,
,,,,,,,,,,stimuli/images/PICTURE_403.png,RIVER,5b82be6543bc4900017ef3de,19/06/1947,2020-09-03_19h40.40.044,proactive2,2020.1.2,Win32,60,5f5126bb654d4b30ee6923d8,5f51388a8647e3330b433537,4,,,,,,cathedral,,,,,,0,15,15,40,1,5,1,,,,,,,,,,,,,,,,,,,,,,,,,,,,,,,,,,,,,,,,,,,,,,,,,,,,,,,,,,,,,,,,,,,,,,,,,,,,,,,,,,,,,,,,,,,,,,,,,,,
,,,,,,,,,,stimuli/images/PICTURE_203.png,NIGHT,5b82be6543bc4900017ef3de,19/06/1947,2020-09-03_19h40.40.044,proactive2,2020.1.2,Win32,60,5f5126bb654d4b30ee6923d8,5f51388a8647e3330b433537,4,,,,,,cap,,,,,,0,16,16,2,1,1,1,,,,,,,,,,,,,,,,,,,,,,,,,,,,,,,,,,,,,,,,,,,,,,,,,,,,,,,,,,,,,,,,,,,,,,,,,,,,,,,,,,,,,,,,,,,,,,,,,,,
,,,,,,,,,,stimuli/images/PICTURE_340.png,LETTER,5b82be6543bc4900017ef3de,19/06/1947,2020-09-03_19h40.40.044,proactive2,2020.1.2,Win32,60,5f5126bb654d4b30ee6923d8,5f51388a8647e3330b433537,4,,,,,,mirror,,,,,,0,17,17,24,1,3,1,,,,,,,,,,,,,,,,,,,,,,,,,,,,,,,,,,,,,,,,,,,,,,,,,,,,,,,,,,,,,,,,,,,,,,,,,,,,,,,,,,,,,,,,,,,,,,,,,,,
,,,,,,,,,,stimuli/images/PICTURE_383.png,SERIES,5b82be6543bc4900017ef3de,19/06/1947,2020-09-03_19h40.40.044,proactive2,2020.1.2,Win32,60,5f5126bb654d4b30ee6923d8,5f51388a8647e3330b433537,4,,,,,,coin,,,,,,0,18,18,46,1,5,1,,,,,,,,,,,,,,,,,,,,,,,,,,,,,,,,,,,,,,,,,,,,,,,,,,,,,,,,,,,,,,,,,,,,,,,,,,,,,,,,,,,,,,,,,,,,,,,,,,,
,,,,,,,,,,stimuli/images/PICTURE_296.png,LIFE,5b82be6543bc4900017ef3de,19/06/1947,2020-09-03_19h40.40.044,proactive2,2020.1.2,Win32,60,5f5126bb654d4b30ee6923d8,5f51388a8647e3330b433537,4,,,,,,bolt,,,,,,0,19,19,57,1,6,1,,,,,,,,,,,,,,,,,,,,,,,,,,,,,,,,,,,,,,,,,,,,,,,,,,,,,,,,,,,,,,,,,,,,,,,,,,,,,,,,,,,,,,,,,,,,,,,,,,,
,,,,,,,,,,stimuli/images/PICTURE_177.png,WRITER,5b82be6543bc4900017ef3de,19/06/1947,2020-09-03_19h40.40.044,proactive2,2020.1.2,Win32,60,5f5126bb654d4b30ee6923d8,5f51388a8647e3330b433537,4,,,,,,mushroom,,,,,,0,20,20,41,1,5,1,,,,,,,,,,,,,,,,,,,,,,,,,,,,,,,,,,,,,,,,,,,,,,,,,,,,,,,,,,,,,,,,,,,,,,,,,,,,,,,,,,,,,,,,,,,,,,,,,,,
,,,,,,,,,,stimuli/images/PICTURE_57.png,MOMENT,5b82be6543bc4900017ef3de,19/06/1947,2020-09-03_19h40.40.044,proactive2,2020.1.2,Win32,60,5f5126bb654d4b30ee6923d8,5f51388a8647e3330b433537,4,,,,,,stamp,,,,,,0,21,21,37,1,4,1,,,,,,,,,,,,,,,,,,,,,,,,,,,,,,,,,,,,,,,,,,,,,,,,,,,,,,,,,,,,,,,,,,,,,,,,,,,,,,,,,,,,,,,,,,,,,,,,,,,
,,,,,,,,,,stimuli/images/PICTURE_327.png,CASINO,5b82be6543bc4900017ef3de,19/06/1947,2020-09-03_19h40.40.044,proactive2,2020.1.2,Win32,60,5f5126bb654d4b30ee6923d8,5f51388a8647e3330b433537,4,,,,,,helmet,,,,,,0,22,22,20,1,3,1,,,,,,,,,,,,,,,,,,,,,,,,,,,,,,,,,,,,,,,,,,,,,,,,,,,,,,,,,,,,,,,,,,,,,,,,,,,,,,,,,,,,,,,,,,,,,,,,,,,
,,,,,,,,,,stimuli/images/PICTURE_95.png,HONEY,5b82be6543bc4900017ef3de,19/06/1947,2020-09-03_19h40.40.044,proactive2,2020.1.2,Win32,60,5f5126bb654d4b30ee6923d8,5f51388a8647e3330b433537,4,,,,,,suitcase,,,,,,0,23,23,44,1,5,1,,,,,,,,,,,,,,,,,,,,,,,,,,,,,,,,,,,,,,,,,,,,,,,,,,,,,,,,,,,,,,,,,,,,,,,,,,,,,,,,,,,,,,,,,,,,,,,,,,,
,,,,,,,,,,stimuli/images/PICTURE_380.png,HONEY,5b82be6543bc4900017ef3de,19/06/1947,2020-09-03_19h40.40.044,proactive2,2020.1.2,Win32,60,5f5126bb654d4b30ee6923d8,5f51388a8647e3330b433537,4,,,,,,gorilla,,,,,,0,24,24,19,1,2,1,,,,,,,,,,,,,,,,,,,,,,,,,,,,,,,,,,,,,,,,,,,,,,,,,,,,,,,,,,,,,,,,,,,,,,,,,,,,,,,,,,,,,,,,,,,,,,,,,,,
,,,,,,,,,,stimuli/images/PICTURE_108.png,FLIGHT,5b82be6543bc4900017ef3de,19/06/1947,2020-09-03_19h40.40.044,proactive2,2020.1.2,Win32,60,5f5126bb654d4b30ee6923d8,5f51388a8647e3330b433537,4,,,,,,calendar,,,,,,0,25,25,59,1,6,1,,,,,,,,,,,,,,,,,,,,,,,,,,,,,,,,,,,,,,,,,,,,,,,,,,,,,,,,,,,,,,,,,,,,,,,,,,,,,,,,,,,,,,,,,,,,,,,,,,,
,,,,,,,,,,stimuli/images/PICTURE_147.png,WOMEN,5b82be6543bc4900017ef3de,19/06/1947,2020-09-03_19h40.40.044,proactive2,2020.1.2,Win32,60,5f5126bb654d4b30ee6923d8,5f51388a8647e3330b433537,4,,,,,,hanger,,,,,,0,26,26,7,1,1,1,,,,,,,,,,,,,,,,,,,,,,,,,,,,,,,,,,,,,,,,,,,,,,,,,,,,,,,,,,,,,,,,,,,,,,,,,,,,,,,,,,,,,,,,,,,,,,,,,,,
,,,,,,,,,,stimuli/images/PICTURE_487.png,GIRL,5b82be6543bc4900017ef3de,19/06/1947,2020-09-03_19h40.40.044,proactive2,2020.1.2,Win32,60,5f5126bb654d4b30ee6923d8,5f51388a8647e3330b433537,4,,,,,,basket,,,,,,0,27,27,45,1,5,1,,,,,,,,,,,,,,,,,,,,,,,,,,,,,,,,,,,,,,,,,,,,,,,,,,,,,,,,,,,,,,,,,,,,,,,,,,,,,,,,,,,,,,,,,,,,,,,,,,,
,,,,,,,,,,stimuli/images/PICTURE_667.png,RIVER,5b82be6543bc4900017ef3de,19/06/1947,2020-09-03_19h40.40.044,proactive2,2020.1.2,Win32,60,5f5126bb654d4b30ee6923d8,5f51388a8647e3330b433537,4,,,,,,daisy,,,,,,0,28,28,10,1,2,1,,,,,,,,,,,,,,,,,,,,,,,,,,,,,,,,,,,,,,,,,,,,,,,,,,,,,,,,,,,,,,,,,,,,,,,,,,,,,,,,,,,,,,,,,,,,,,,,,,,
,,,,,,,,,,stimuli/images/PICTURE_405.png,YEAR,5b82be6543bc4900017ef3de,19/06/1947,2020-09-03_19h40.40.044,proactive2,2020.1.2,Win32,60,5f5126bb654d4b30ee6923d8,5f51388a8647e3330b433537,4,,,,,,anchor,,,,,,0,29,29,34,1,4,1,,,,,,,,,,,,,,,,,,,,,,,,,,,,,,,,,,,,,,,,,,,,,,,,,,,,,,,,,,,,,,,,,,,,,,,,,,,,,,,,,,,,,,,,,,,,,,,,,,,
,,,,,,,,,,stimuli/images/PICTURE_68.png,ROOF,5b82be6543bc4900017ef3de,19/06/1947,2020-09-03_19h40.40.044,proactive2,2020.1.2,Win32,60,5f5126bb654d4b30ee6923d8,5f51388a8647e3330b433537,4,,,,,,candle,,,,,,0,30,30,38,1,4,1,,,,,,,,,,,,,,,,,,,,,,,,,,,,,,,,,,,,,,,,,,,,,,,,,,,,,,,,,,,,,,,,,,,,,,,,,,,,,,,,,,,,,,,,,,,,,,,,,,,
,,,,,,,,,,stimuli/images/PICTURE_2.png,FLIGHT,5b82be6543bc4900017ef3de,19/06/1947,2020-09-03_19h40.40.044,proactive2,2020.1.2,Win32,60,5f5126bb654d4b30ee6923d8,5f51388a8647e3330b433537,4,,,,,,tyre,,,,,,0,31,31,15,1,2,1,,,,,,,,,,,,,,,,,,,,,,,,,,,,,,,,,,,,,,,,,,,,,,,,,,,,,,,,,,,,,,,,,,,,,,,,,,,,,,,,,,,,,,,,,,,,,,,,,,,
,,,,,,,,,,stimuli/images/PICTURE_708.png,RECORD,5b82be6543bc4900017ef3de,19/06/1947,2020-09-03_19h40.40.044,proactive2,2020.1.2,Win32,60,5f5126bb654d4b30ee6923d8,5f51388a8647e3330b433537,4,,,,,,monkey,,,,,,0,32,32,58,1,6,1,,,,,,,,,,,,,,,,,,,,,,,,,,,,,,,,,,,,,,,,,,,,,,,,,,,,,,,,,,,,,,,,,,,,,,,,,,,,,,,,,,,,,,,,,,,,,,,,,,,
,,,,,,,,,,stimuli/images/PICTURE_297.png,RIVER,5b82be6543bc4900017ef3de,19/06/1947,2020-09-03_19h40.40.044,proactive2,2020.1.2,Win32,60,5f5126bb654d4b30ee6923d8,5f51388a8647e3330b433537,4,,,,,,aeroplane,,,,,,0,33,33,39,1,4,1,,,,,,,,,,,,,,,,,,,,,,,,,,,,,,,,,,,,,,,,,,,,,,,,,,,,,,,,,,,,,,,,,,,,,,,,,,,,,,,,,,,,,,,,,,,,,,,,,,,
,,,,,,,,,,stimuli/images/PICTURE_744.png,WEAPON,5b82be6543bc4900017ef3de,19/06/1947,2020-09-03_19h40.40.044,proactive2,2020.1.2,Win32,60,5f5126bb654d4b30ee6923d8,5f51388a8647e3330b433537,4,,,,,,ring,,,,,,0,34,34,50,1,6,1,,,,,,,,,,,,,,,,,,,,,,,,,,,,,,,,,,,,,,,,,,,,,,,,,,,,,,,,,,,,,,,,,,,,,,,,,,,,,,,,,,,,,,,,,,,,,,,,,,,
,,,,,,,,,,stimuli/images/PICTURE_380.png,CANDY,5b82be6543bc4900017ef3de,19/06/1947,2020-09-03_19h40.40.044,proactive2,2020.1.2,Win32,60,5f5126bb654d4b30ee6923d8,5f51388a8647e3330b433537,4,,,,,,gorilla,,,,,,0,35,35,0,1,1,1,,,,,,,,,,,,,,,,,,,,,,,,,,,,,,,,,,,,,,,,,,,,,,,,,,,,,,,,,,,,,,,,,,,,,,,,,,,,,,,,,,,,,,,,,,,,,,,,,,,
,,,,,,,,,,stimuli/images/PICTURE_504.png,COPS,5b82be6543bc4900017ef3de,19/06/1947,2020-09-03_19h40.40.044,proactive2,2020.1.2,Win32,60,5f5126bb654d4b30ee6923d8,5f51388a8647e3330b433537,4,,,,,,wheel,,,,,,0,36,36,52,1,6,1,,,,,,,,,,,,,,,,,,,,,,,,,,,,,,,,,,,,,,,,,,,,,,,,,,,,,,,,,,,,,,,,,,,,,,,,,,,,,,,,,,,,,,,,,,,,,,,,,,,
,,,,,,,,,,stimuli/images/PICTURE_285.png,LIFE,5b82be6543bc4900017ef3de,19/06/1947,2020-09-03_19h40.40.044,proactive2,2020.1.2,Win32,60,5f5126bb654d4b30ee6923d8,5f51388a8647e3330b433537,4,,,,,,carrot,,,,,,0,37,37,33,1,4,1,,,,,,,,,,,,,,,,,,,,,,,,,,,,,,,,,,,,,,,,,,,,,,,,,,,,,,,,,,,,,,,,,,,,,,,,,,,,,,,,,,,,,,,,,,,,,,,,,,,
,,,,,,,,,,stimuli/images/PICTURE_203.png,GODS,5b82be6543bc4900017ef3de,19/06/1947,2020-09-03_19h40.40.044,proactive2,2020.1.2,Win32,60,5f5126bb654d4b30ee6923d8,5f51388a8647e3330b433537,4,,,,,,cap,,,,,,0,38,38,30,1,4,1,,,,,,,,,,,,,,,,,,,,,,,,,,,,,,,,,,,,,,,,,,,,,,,,,,,,,,,,,,,,,,,,,,,,,,,,,,,,,,,,,,,,,,,,,,,,,,,,,,,
,,,,,,,,,,stimuli/images/PICTURE_32.png,PILLS,5b82be6543bc4900017ef3de,19/06/1947,2020-09-03_19h40.40.044,proactive2,2020.1.2,Win32,60,5f5126bb654d4b30ee6923d8,5f51388a8647e3330b433537,4,,,,,,crown,,,,,,0,39,39,18,1,2,1,,,,,,,,,,,,,,,,,,,,,,,,,,,,,,,,,,,,,,,,,,,,,,,,,,,,,,,,,,,,,,,,,,,,,,,,,,,,,,,,,,,,,,,,,,,,,,,,,,,
,,,,,,,,,,stimuli/images/PICTURE_491.png,GLASS,5b82be6543bc4900017ef3de,19/06/1947,2020-09-03_19h40.40.044,proactive2,2020.1.2,Win32,60,5f5126bb654d4b30ee6923d8,5f51388a8647e3330b433537,4,,,,,,rug,,,,,,0,40,40,14,1,2,1,,,,,,,,,,,,,,,,,,,,,,,,,,,,,,,,,,,,,,,,,,,,,,,,,,,,,,,,,,,,,,,,,,,,,,,,,,,,,,,,,,,,,,,,,,,,,,,,,,,
,,,,,,,,,,stimuli/images/PICTURE_147.png,YEAR,5b82be6543bc4900017ef3de,19/06/1947,2020-09-03_19h40.40.044,proactive2,2020.1.2,Win32,60,5f5126bb654d4b30ee6923d8,5f51388a8647e3330b433537,4,,,,,,hanger,,,,,,0,41,41,21,1,3,1,,,,,,,,,,,,,,,,,,,,,,,,,,,,,,,,,,,,,,,,,,,,,,,,,,,,,,,,,,,,,,,,,,,,,,,,,,,,,,,,,,,,,,,,,,,,,,,,,,,
,,,,,,,,,,stimuli/images/PICTURE_340.png,VALLEY,5b82be6543bc4900017ef3de,19/06/1947,2020-09-03_19h40.40.044,proactive2,2020.1.2,Win32,60,5f5126bb654d4b30ee6923d8,5f51388a8647e3330b433537,4,,,,,,mirror,,,,,,0,42,42,54,1,6,1,,,,,,,,,,,,,,,,,,,,,,,,,,,,,,,,,,,,,,,,,,,,,,,,,,,,,,,,,,,,,,,,,,,,,,,,,,,,,,,,,,,,,,,,,,,,,,,,,,,
,,,,,,,,,,stimuli/images/PICTURE_95.png,MILLER,5b82be6543bc4900017ef3de,19/06/1947,2020-09-03_19h40.40.044,proactive2,2020.1.2,Win32,60,5f5126bb654d4b30ee6923d8,5f51388a8647e3330b433537,4,,,,,,suitcase,,,,,,0,43,43,56,1,6,1,,,,,,,,,,,,,,,,,,,,,,,,,,,,,,,,,,,,,,,,,,,,,,,,,,,,,,,,,,,,,,,,,,,,,,,,,,,,,,,,,,,,,,,,,,,,,,,,,,,
,,,,,,,,,,stimuli/images/PICTURE_339.png,CLIENT,5b82be6543bc4900017ef3de,19/06/1947,2020-09-03_19h40.40.044,proactive2,2020.1.2,Win32,60,5f5126bb654d4b30ee6923d8,5f51388a8647e3330b433537,4,,,,,,backpack,,,,,,0,44,44,11,1,2,1,,,,,,,,,,,,,,,,,,,,,,,,,,,,,,,,,,,,,,,,,,,,,,,,,,,,,,,,,,,,,,,,,,,,,,,,,,,,,,,,,,,,,,,,,,,,,,,,,,,
,,,,,,,,,,stimuli/images/PICTURE_655.png,TOILET,5b82be6543bc4900017ef3de,19/06/1947,2020-09-03_19h40.40.044,proactive2,2020.1.2,Win32,60,5f5126bb654d4b30ee6923d8,5f51388a8647e3330b433537,4,,,,,,megaphone,,,,,,0,45,45,12,1,2,1,,,,,,,,,,,,,,,,,,,,,,,,,,,,,,,,,,,,,,,,,,,,,,,,,,,,,,,,,,,,,,,,,,,,,,,,,,,,,,,,,,,,,,,,,,,,,,,,,,,
,,,,,,,,,,stimuli/images/PICTURE_32.png,KIND,5b82be6543bc4900017ef3de,19/06/1947,2020-09-03_19h40.40.044,proactive2,2020.1.2,Win32,60,5f5126bb654d4b30ee6923d8,5f51388a8647e3330b433537,4,,,,,,crown,,,,,,0,46,46,35,1,4,1,,,,,,,,,,,,,,,,,,,,,,,,,,,,,,,,,,,,,,,,,,,,,,,,,,,,,,,,,,,,,,,,,,,,,,,,,,,,,,,,,,,,,,,,,,,,,,,,,,,
,,,,,,,,,,stimuli/images/PICTURE_68.png,MILE,5b82be6543bc4900017ef3de,19/06/1947,2020-09-03_19h40.40.044,proactive2,2020.1.2,Win32,60,5f5126bb654d4b30ee6923d8,5f51388a8647e3330b433537,4,,,,,,candle,,,,,,0,47,47,51,1,6,1,,,,,,,,,,,,,,,,,,,,,,,,,,,,,,,,,,,,,,,,,,,,,,,,,,,,,,,,,,,,,,,,,,,,,,,,,,,,,,,,,,,,,,,,,,,,,,,,,,,
,,,,,,,,,,stimuli/images/PICTURE_33.png,FRIEND,5b82be6543bc4900017ef3de,19/06/1947,2020-09-03_19h40.40.044,proactive2,2020.1.2,Win32,60,5f5126bb654d4b30ee6923d8,5f51388a8647e3330b433537,4,,,,,,frame,,,,,,0,48,48,8,1,1,1,,,,,,,,,,,,,,,,,,,,,,,,,,,,,,,,,,,,,,,,,,,,,,,,,,,,,,,,,,,,,,,,,,,,,,,,,,,,,,,,,,,,,,,,,,,,,,,,,,,
,,,,,,,,,,stimuli/images/PICTURE_685.png,PENNY,5b82be6543bc4900017ef3de,19/06/1947,2020-09-03_19h40.40.044,proactive2,2020.1.2,Win32,60,5f5126bb654d4b30ee6923d8,5f51388a8647e3330b433537,4,,,,,,goose,,,,,,0,49,49,4,1,1,1,,,,,,,,,,,,,,,,,,,,,,,,,,,,,,,,,,,,,,,,,,,,,,,,,,,,,,,,,,,,,,,,,,,,,,,,,,,,,,,,,,,,,,,,,,,,,,,,,,,
