consent_key.keys,consent_key.rt,recalled,recalled_rt,recall_acc,example_recall.thisRepN,example_recall.thisTrialN,example_recall.thisN,example_recall.thisIndex,example_recall.ran,file,word,participant,please enter your date of birth (dd/mm/yyyy),date,expName,psychopyVersion,OS,frameRate,STUDY_ID,SESSION_ID,list,prac_learn_study_loop.thisRepN,prac_learn_study_loop.thisTrialN,prac_learn_study_loop.thisN,prac_learn_study_loop.thisIndex,prac_learn_study_loop.ran,image,prac_learn_test_loop.thisRepN,prac_learn_test_loop.thisTrialN,prac_learn_test_loop.thisN,prac_learn_test_loop.thisIndex,prac_learn_test_loop.ran,learn_study_loop.thisRepN,learn_study_loop.thisTrialN,learn_study_loop.thisN,learn_study_loop.thisIndex,learn_study_loop.ran,list_no,block_no,learn_test_loop.thisRepN,learn_test_loop.thisTrialN,learn_test_loop.thisN,learn_test_loop.thisIndex,learn_test_loop.ran,learn_blocks.thisRepN,learn_blocks.thisTrialN,learn_blocks.thisN,learn_blocks.thisIndex,learn_blocks.ran,block_csv,key_resp_13.keys,key_resp_13.rt,learn_blocks_loop.thisRepN,learn_blocks_loop.thisTrialN,learn_blocks_loop.thisN,learn_blocks_loop.thisIndex,learn_blocks_loop.ran,final_learn_test.thisRepN,final_learn_test.thisTrialN,final_learn_test.thisN,final_learn_test.thisIndex,final_learn_test.ran,s_im1,s_im2,s_im3,s_im4,s_im5,s_im6,s_im7,s_im8,s_im1pos,s_im2pos,s_im3pos,s_im4pos,s_im5pos,s_im6pos,s_im7pos,s_im8pos,s_tarright,search_resp.keys,search_loop.thisRepN,search_loop.thisTrialN,search_loop.thisN,search_loop.thisIndex,search_loop.ran,search_resp.rt,prac_wm_test_loop.thisRepN,prac_wm_test_loop.thisTrialN,prac_wm_test_loop.thisN,prac_wm_test_loop.thisIndex,prac_wm_test_loop.ran,wm_recalled1,wm_recall_rt1,wm_probed1,wm_recall_acc1,wm_recalled2,wm_recall_rt2,wm_probed2,wm_recall_acc2,wm_recalled3,wm_recall_rt3,wm_probed3,wm_recall_acc3,wm_recalled4,wm_recall_rt4,wm_probed4,wm_recall_acc4,prac_wm_trial_loop.thisRepN,prac_wm_trial_loop.thisTrialN,prac_wm_trial_loop.thisN,prac_wm_trial_loop.thisIndex,prac_wm_trial_loop.ran,word1,image1,file1,item_type1,word2,image2,file2,item_type2,word4,image4,file4,item_type4,word3,image3,file3,item_type3,wm_test_loop.thisRepN,wm_test_loop.thisTrialN,wm_test_loop.thisN,wm_test_loop.thisIndex,wm_test_loop.ran,wm_trial_loop.thisRepN,wm_trial_loop.thisTrialN,wm_trial_loop.thisN,wm_trial_loop.thisIndex,wm_trial_loop.ran
y,75.7633,TOUGH,7.48596,1,0,0,0,0,1,stimuli/images/PICTURE_747.png,TOUGH,5bd45c509afb5b00015c48f4,08/21/1953,2020-09-09_23h30.15.516,proactive2,2020.1.2,Win32,60,5f5126bb654d4b30ee6923d8,5f599cdc1d8a3c1ff286b5ab,3,,,,,,,,,,,,,,,,,,,,,,,,,,,,,,,,,,,,,,,,,,,,,,,,,,,,,,,,,,,,,,,,,,,,,,,,,,,,,,,,,,,,,,,,,,,,,,,,,,,,,,,,,,,,,,,,,,,,,
,,,,,,,,,,stimuli/images/PICTURE_269.png,GENIUS,5bd45c509afb5b00015c48f4,08/21/1953,2020-09-09_23h30.15.516,proactive2,2020.1.2,Win32,60,5f5126bb654d4b30ee6923d8,5f599cdc1d8a3c1ff286b5ab,3,0,0,0,0,1,chameleon,,,,,,,,,,,,,,,,,,,,,,,,,,,,,,,,,,,,,,,,,,,,,,,,,,,,,,,,,,,,,,,,,,,,,,,,,,,,,,,,,,,,,,,,,,,,,,,,,,,,,,,,,,,,,,,
,,,,,,,,,,stimuli/images/PICTURE_697.png,KILLER,5bd45c509afb5b00015c48f4,08/21/1953,2020-09-09_23h30.15.516,proactive2,2020.1.2,Win32,60,5f5126bb654d4b30ee6923d8,5f599cdc1d8a3c1ff286b5ab,3,0,1,1,4,1,peach,,,,,,,,,,,,,,,,,,,,,,,,,,,,,,,,,,,,,,,,,,,,,,,,,,,,,,,,,,,,,,,,,,,,,,,,,,,,,,,,,,,,,,,,,,,,,,,,,,,,,,,,,,,,,,,
,,,,,,,,,,stimuli/images/PICTURE_378.png,LOSS,5bd45c509afb5b00015c48f4,08/21/1953,2020-09-09_23h30.15.516,proactive2,2020.1.2,Win32,60,5f5126bb654d4b30ee6923d8,5f599cdc1d8a3c1ff286b5ab,3,0,2,2,2,1,lobster,,,,,,,,,,,,,,,,,,,,,,,,,,,,,,,,,,,,,,,,,,,,,,,,,,,,,,,,,,,,,,,,,,,,,,,,,,,,,,,,,,,,,,,,,,,,,,,,,,,,,,,,,,,,,,,
,,,,,,,,,,stimuli/images/PICTURE_658.png,DEVIL,5bd45c509afb5b00015c48f4,08/21/1953,2020-09-09_23h30.15.516,proactive2,2020.1.2,Win32,60,5f5126bb654d4b30ee6923d8,5f599cdc1d8a3c1ff286b5ab,3,0,3,3,3,1,crow,,,,,,,,,,,,,,,,,,,,,,,,,,,,,,,,,,,,,,,,,,,,,,,,,,,,,,,,,,,,,,,,,,,,,,,,,,,,,,,,,,,,,,,,,,,,,,,,,,,,,,,,,,,,,,,
,,CELL,4.504495,1,,,,,,stimuli/images/PICTURE_727.png,CELL,5bd45c509afb5b00015c48f4,08/21/1953,2020-09-09_23h30.15.516,proactive2,2020.1.2,Win32,60,5f5126bb654d4b30ee6923d8,5f599cdc1d8a3c1ff286b5ab,3,,,,,,hose,0,0,0,1,1,,,,,,,,,,,,,,,,,,,,,,,,,,,,,,,,,,,,,,,,,,,,,,,,,,,,,,,,,,,,,,,,,,,,,,,,,,,,,,,,,,,,,,,,,,,,,,,,,,,,,,,,,,
,,KILLER,4.82522,0,,,,,,stimuli/images/PICTURE_658.png,DEVIL,5bd45c509afb5b00015c48f4,08/21/1953,2020-09-09_23h30.15.516,proactive2,2020.1.2,Win32,60,5f5126bb654d4b30ee6923d8,5f599cdc1d8a3c1ff286b5ab,3,,,,,,crow,0,1,1,3,1,,,,,,,,,,,,,,,,,,,,,,,,,,,,,,,,,,,,,,,,,,,,,,,,,,,,,,,,,,,,,,,,,,,,,,,,,,,,,,,,,,,,,,,,,,,,,,,,,,,,,,,,,,
,,?,5.72583,0,,,,,,stimuli/images/PICTURE_697.png,KILLER,5bd45c509afb5b00015c48f4,08/21/1953,2020-09-09_23h30.15.516,proactive2,2020.1.2,Win32,60,5f5126bb654d4b30ee6923d8,5f599cdc1d8a3c1ff286b5ab,3,,,,,,peach,0,2,2,4,1,,,,,,,,,,,,,,,,,,,,,,,,,,,,,,,,,,,,,,,,,,,,,,,,,,,,,,,,,,,,,,,,,,,,,,,,,,,,,,,,,,,,,,,,,,,,,,,,,,,,,,,,,,
,,?,4.60808,0,,,,,,stimuli/images/PICTURE_378.png,LOSS,5bd45c509afb5b00015c48f4,08/21/1953,2020-09-09_23h30.15.516,proactive2,2020.1.2,Win32,60,5f5126bb654d4b30ee6923d8,5f599cdc1d8a3c1ff286b5ab,3,,,,,,lobster,0,3,3,2,1,,,,,,,,,,,,,,,,,,,,,,,,,,,,,,,,,,,,,,,,,,,,,,,,,,,,,,,,,,,,,,,,,,,,,,,,,,,,,,,,,,,,,,,,,,,,,,,,,,,,,,,,,,
,,GENIUS,5.777745,1,,,,,,stimuli/images/PICTURE_269.png,GENIUS,5bd45c509afb5b00015c48f4,08/21/1953,2020-09-09_23h30.15.516,proactive2,2020.1.2,Win32,60,5f5126bb654d4b30ee6923d8,5f599cdc1d8a3c1ff286b5ab,3,,,,,,chameleon,0,4,4,0,1,,,,,,,,,,,,,,,,,,,,,,,,,,,,,,,,,,,,,,,,,,,,,,,,,,,,,,,,,,,,,,,,,,,,,,,,,,,,,,,,,,,,,,,,,,,,,,,,,,,,,,,,,,
,,,,,,,,,,stimuli/images/PICTURE_469.png,LETTER,5bd45c509afb5b00015c48f4,08/21/1953,2020-09-09_23h30.15.516,proactive2,2020.1.2,Win32,60,5f5126bb654d4b30ee6923d8,5f599cdc1d8a3c1ff286b5ab,3,,,,,,stool,,,,,,0,0,0,42,1,5,0,,,,,,,,,,,,,,,,,,,,,,,,,,,,,,,,,,,,,,,,,,,,,,,,,,,,,,,,,,,,,,,,,,,,,,,,,,,,,,,,,,,,,,,,,,,,,,,,,,,
,,,,,,,,,,stimuli/images/PICTURE_744.png,SAKE,5bd45c509afb5b00015c48f4,08/21/1953,2020-09-09_23h30.15.516,proactive2,2020.1.2,Win32,60,5f5126bb654d4b30ee6923d8,5f599cdc1d8a3c1ff286b5ab,3,,,,,,ring,,,,,,0,1,1,17,1,2,0,,,,,,,,,,,,,,,,,,,,,,,,,,,,,,,,,,,,,,,,,,,,,,,,,,,,,,,,,,,,,,,,,,,,,,,,,,,,,,,,,,,,,,,,,,,,,,,,,,,
,,,,,,,,,,stimuli/images/PICTURE_32.png,JUNGLE,5bd45c509afb5b00015c48f4,08/21/1953,2020-09-09_23h30.15.516,proactive2,2020.1.2,Win32,60,5f5126bb654d4b30ee6923d8,5f599cdc1d8a3c1ff286b5ab,3,,,,,,crown,,,,,,0,2,2,45,1,5,0,,,,,,,,,,,,,,,,,,,,,,,,,,,,,,,,,,,,,,,,,,,,,,,,,,,,,,,,,,,,,,,,,,,,,,,,,,,,,,,,,,,,,,,,,,,,,,,,,,,
,,,,,,,,,,stimuli/images/PICTURE_255.png,AREA,5bd45c509afb5b00015c48f4,08/21/1953,2020-09-09_23h30.15.516,proactive2,2020.1.2,Win32,60,5f5126bb654d4b30ee6923d8,5f599cdc1d8a3c1ff286b5ab,3,,,,,,shovel,,,,,,0,3,3,22,1,3,0,,,,,,,,,,,,,,,,,,,,,,,,,,,,,,,,,,,,,,,,,,,,,,,,,,,,,,,,,,,,,,,,,,,,,,,,,,,,,,,,,,,,,,,,,,,,,,,,,,,
,,,,,,,,,,stimuli/images/PICTURE_667.png,PLENTY,5bd45c509afb5b00015c48f4,08/21/1953,2020-09-09_23h30.15.516,proactive2,2020.1.2,Win32,60,5f5126bb654d4b30ee6923d8,5f599cdc1d8a3c1ff286b5ab,3,,,,,,daisy,,,,,,0,4,4,41,1,5,0,,,,,,,,,,,,,,,,,,,,,,,,,,,,,,,,,,,,,,,,,,,,,,,,,,,,,,,,,,,,,,,,,,,,,,,,,,,,,,,,,,,,,,,,,,,,,,,,,,,
,,,,,,,,,,stimuli/images/PICTURE_311.png,BEAUTY,5bd45c509afb5b00015c48f4,08/21/1953,2020-09-09_23h30.15.516,proactive2,2020.1.2,Win32,60,5f5126bb654d4b30ee6923d8,5f599cdc1d8a3c1ff286b5ab,3,,,,,,razor,,,,,,0,5,5,13,1,2,0,,,,,,,,,,,,,,,,,,,,,,,,,,,,,,,,,,,,,,,,,,,,,,,,,,,,,,,,,,,,,,,,,,,,,,,,,,,,,,,,,,,,,,,,,,,,,,,,,,,
,,,,,,,,,,stimuli/images/PICTURE_285.png,ADVICE,5bd45c509afb5b00015c48f4,08/21/1953,2020-09-09_23h30.15.516,proactive2,2020.1.2,Win32,60,5f5126bb654d4b30ee6923d8,5f599cdc1d8a3c1ff286b5ab,3,,,,,,carrot,,,,,,0,6,6,12,1,2,0,,,,,,,,,,,,,,,,,,,,,,,,,,,,,,,,,,,,,,,,,,,,,,,,,,,,,,,,,,,,,,,,,,,,,,,,,,,,,,,,,,,,,,,,,,,,,,,,,,,
,,,,,,,,,,stimuli/images/PICTURE_453.png,DUDE,5bd45c509afb5b00015c48f4,08/21/1953,2020-09-09_23h30.15.516,proactive2,2020.1.2,Win32,60,5f5126bb654d4b30ee6923d8,5f599cdc1d8a3c1ff286b5ab,3,,,,,,scissors,,,,,,0,7,7,27,1,3,0,,,,,,,,,,,,,,,,,,,,,,,,,,,,,,,,,,,,,,,,,,,,,,,,,,,,,,,,,,,,,,,,,,,,,,,,,,,,,,,,,,,,,,,,,,,,,,,,,,,
,,,,,,,,,,stimuli/images/PICTURE_487.png,FLIGHT,5bd45c509afb5b00015c48f4,08/21/1953,2020-09-09_23h30.15.516,proactive2,2020.1.2,Win32,60,5f5126bb654d4b30ee6923d8,5f599cdc1d8a3c1ff286b5ab,3,,,,,,basket,,,,,,0,8,8,9,1,1,0,,,,,,,,,,,,,,,,,,,,,,,,,,,,,,,,,,,,,,,,,,,,,,,,,,,,,,,,,,,,,,,,,,,,,,,,,,,,,,,,,,,,,,,,,,,,,,,,,,,
,,,,,,,,,,stimuli/images/PICTURE_147.png,MOMENT,5bd45c509afb5b00015c48f4,08/21/1953,2020-09-09_23h30.15.516,proactive2,2020.1.2,Win32,60,5f5126bb654d4b30ee6923d8,5f599cdc1d8a3c1ff286b5ab,3,,,,,,hanger,,,,,,0,9,9,51,1,6,0,,,,,,,,,,,,,,,,,,,,,,,,,,,,,,,,,,,,,,,,,,,,,,,,,,,,,,,,,,,,,,,,,,,,,,,,,,,,,,,,,,,,,,,,,,,,,,,,,,,
,,,,,,,,,,stimuli/images/PICTURE_509.png,PHOTO,5bd45c509afb5b00015c48f4,08/21/1953,2020-09-09_23h30.15.516,proactive2,2020.1.2,Win32,60,5f5126bb654d4b30ee6923d8,5f599cdc1d8a3c1ff286b5ab,3,,,,,,telephone,,,,,,0,10,10,21,1,3,0,,,,,,,,,,,,,,,,,,,,,,,,,,,,,,,,,,,,,,,,,,,,,,,,,,,,,,,,,,,,,,,,,,,,,,,,,,,,,,,,,,,,,,,,,,,,,,,,,,,
,,,,,,,,,,stimuli/images/PICTURE_177.png,CARS,5bd45c509afb5b00015c48f4,08/21/1953,2020-09-09_23h30.15.516,proactive2,2020.1.2,Win32,60,5f5126bb654d4b30ee6923d8,5f599cdc1d8a3c1ff286b5ab,3,,,,,,mushroom,,,,,,0,11,11,35,1,4,0,,,,,,,,,,,,,,,,,,,,,,,,,,,,,,,,,,,,,,,,,,,,,,,,,,,,,,,,,,,,,,,,,,,,,,,,,,,,,,,,,,,,,,,,,,,,,,,,,,,
,,,,,,,,,,stimuli/images/PICTURE_160.png,FEET,5bd45c509afb5b00015c48f4,08/21/1953,2020-09-09_23h30.15.516,proactive2,2020.1.2,Win32,60,5f5126bb654d4b30ee6923d8,5f599cdc1d8a3c1ff286b5ab,3,,,,,,wheelbarrow,,,,,,0,12,12,58,1,6,0,,,,,,,,,,,,,,,,,,,,,,,,,,,,,,,,,,,,,,,,,,,,,,,,,,,,,,,,,,,,,,,,,,,,,,,,,,,,,,,,,,,,,,,,,,,,,,,,,,,
,,,,,,,,,,stimuli/images/PICTURE_203.png,ARTIST,5bd45c509afb5b00015c48f4,08/21/1953,2020-09-09_23h30.15.516,proactive2,2020.1.2,Win32,60,5f5126bb654d4b30ee6923d8,5f599cdc1d8a3c1ff286b5ab,3,,,,,,cap,,,,,,0,13,13,26,1,3,0,,,,,,,,,,,,,,,,,,,,,,,,,,,,,,,,,,,,,,,,,,,,,,,,,,,,,,,,,,,,,,,,,,,,,,,,,,,,,,,,,,,,,,,,,,,,,,,,,,,
,,,,,,,,,,stimuli/images/PICTURE_123.png,ADVICE,5bd45c509afb5b00015c48f4,08/21/1953,2020-09-09_23h30.15.516,proactive2,2020.1.2,Win32,60,5f5126bb654d4b30ee6923d8,5f599cdc1d8a3c1ff286b5ab,3,,,,,,dart,,,,,,0,14,14,50,1,6,0,,,,,,,,,,,,,,,,,,,,,,,,,,,,,,,,,,,,,,,,,,,,,,,,,,,,,,,,,,,,,,,,,,,,,,,,,,,,,,,,,,,,,,,,,,,,,,,,,,,
,,,,,,,,,,stimuli/images/PICTURE_327.png,BEAUTY,5bd45c509afb5b00015c48f4,08/21/1953,2020-09-09_23h30.15.516,proactive2,2020.1.2,Win32,60,5f5126bb654d4b30ee6923d8,5f599cdc1d8a3c1ff286b5ab,3,,,,,,helmet,,,,,,0,15,15,48,1,5,0,,,,,,,,,,,,,,,,,,,,,,,,,,,,,,,,,,,,,,,,,,,,,,,,,,,,,,,,,,,,,,,,,,,,,,,,,,,,,,,,,,,,,,,,,,,,,,,,,,,
,,,,,,,,,,stimuli/images/PICTURE_208.png,MONTH,5bd45c509afb5b00015c48f4,08/21/1953,2020-09-09_23h30.15.516,proactive2,2020.1.2,Win32,60,5f5126bb654d4b30ee6923d8,5f599cdc1d8a3c1ff286b5ab,3,,,,,,microphone,,,,,,0,16,16,53,1,6,0,,,,,,,,,,,,,,,,,,,,,,,,,,,,,,,,,,,,,,,,,,,,,,,,,,,,,,,,,,,,,,,,,,,,,,,,,,,,,,,,,,,,,,,,,,,,,,,,,,,
,,,,,,,,,,stimuli/images/PICTURE_708.png,PENNY,5bd45c509afb5b00015c48f4,08/21/1953,2020-09-09_23h30.15.516,proactive2,2020.1.2,Win32,60,5f5126bb654d4b30ee6923d8,5f599cdc1d8a3c1ff286b5ab,3,,,,,,monkey,,,,,,0,17,17,31,1,4,0,,,,,,,,,,,,,,,,,,,,,,,,,,,,,,,,,,,,,,,,,,,,,,,,,,,,,,,,,,,,,,,,,,,,,,,,,,,,,,,,,,,,,,,,,,,,,,,,,,,
,,,,,,,,,,stimuli/images/PICTURE_85.png,THING,5bd45c509afb5b00015c48f4,08/21/1953,2020-09-09_23h30.15.516,proactive2,2020.1.2,Win32,60,5f5126bb654d4b30ee6923d8,5f599cdc1d8a3c1ff286b5ab,3,,,,,,diamond,,,,,,0,18,18,15,1,2,0,,,,,,,,,,,,,,,,,,,,,,,,,,,,,,,,,,,,,,,,,,,,,,,,,,,,,,,,,,,,,,,,,,,,,,,,,,,,,,,,,,,,,,,,,,,,,,,,,,,
,,,,,,,,,,stimuli/images/PICTURE_708.png,CLIENT,5bd45c509afb5b00015c48f4,08/21/1953,2020-09-09_23h30.15.516,proactive2,2020.1.2,Win32,60,5f5126bb654d4b30ee6923d8,5f599cdc1d8a3c1ff286b5ab,3,,,,,,monkey,,,,,,0,19,19,5,1,1,0,,,,,,,,,,,,,,,,,,,,,,,,,,,,,,,,,,,,,,,,,,,,,,,,,,,,,,,,,,,,,,,,,,,,,,,,,,,,,,,,,,,,,,,,,,,,,,,,,,,
,,,,,,,,,,stimuli/images/PICTURE_311.png,FRIEND,5bd45c509afb5b00015c48f4,08/21/1953,2020-09-09_23h30.15.516,proactive2,2020.1.2,Win32,60,5f5126bb654d4b30ee6923d8,5f599cdc1d8a3c1ff286b5ab,3,,,,,,razor,,,,,,0,20,20,34,1,4,0,,,,,,,,,,,,,,,,,,,,,,,,,,,,,,,,,,,,,,,,,,,,,,,,,,,,,,,,,,,,,,,,,,,,,,,,,,,,,,,,,,,,,,,,,,,,,,,,,,,
,,,,,,,,,,stimuli/images/PICTURE_488.png,STYLE,5bd45c509afb5b00015c48f4,08/21/1953,2020-09-09_23h30.15.516,proactive2,2020.1.2,Win32,60,5f5126bb654d4b30ee6923d8,5f599cdc1d8a3c1ff286b5ab,3,,,,,,sun,,,,,,0,21,21,33,1,4,0,,,,,,,,,,,,,,,,,,,,,,,,,,,,,,,,,,,,,,,,,,,,,,,,,,,,,,,,,,,,,,,,,,,,,,,,,,,,,,,,,,,,,,,,,,,,,,,,,,,
,,,,,,,,,,stimuli/images/PICTURE_308.png,ESTATE,5bd45c509afb5b00015c48f4,08/21/1953,2020-09-09_23h30.15.516,proactive2,2020.1.2,Win32,60,5f5126bb654d4b30ee6923d8,5f599cdc1d8a3c1ff286b5ab,3,,,,,,dice,,,,,,0,22,22,46,1,5,0,,,,,,,,,,,,,,,,,,,,,,,,,,,,,,,,,,,,,,,,,,,,,,,,,,,,,,,,,,,,,,,,,,,,,,,,,,,,,,,,,,,,,,,,,,,,,,,,,,,
,,,,,,,,,,stimuli/images/PICTURE_348.png,SPEECH,5bd45c509afb5b00015c48f4,08/21/1953,2020-09-09_23h30.15.516,proactive2,2020.1.2,Win32,60,5f5126bb654d4b30ee6923d8,5f599cdc1d8a3c1ff286b5ab,3,,,,,,pepper,,,,,,0,23,23,20,1,3,0,,,,,,,,,,,,,,,,,,,,,,,,,,,,,,,,,,,,,,,,,,,,,,,,,,,,,,,,,,,,,,,,,,,,,,,,,,,,,,,,,,,,,,,,,,,,,,,,,,,
,,,,,,,,,,stimuli/images/PICTURE_215.png,PLENTY,5bd45c509afb5b00015c48f4,08/21/1953,2020-09-09_23h30.15.516,proactive2,2020.1.2,Win32,60,5f5126bb654d4b30ee6923d8,5f599cdc1d8a3c1ff286b5ab,3,,,,,,boot,,,,,,0,24,24,37,1,4,0,,,,,,,,,,,,,,,,,,,,,,,,,,,,,,,,,,,,,,,,,,,,,,,,,,,,,,,,,,,,,,,,,,,,,,,,,,,,,,,,,,,,,,,,,,,,,,,,,,,
,,,,,,,,,,stimuli/images/PICTURE_302.png,FAMILY,5bd45c509afb5b00015c48f4,08/21/1953,2020-09-09_23h30.15.516,proactive2,2020.1.2,Win32,60,5f5126bb654d4b30ee6923d8,5f599cdc1d8a3c1ff286b5ab,3,,,,,,taxi,,,,,,0,25,25,18,1,2,0,,,,,,,,,,,,,,,,,,,,,,,,,,,,,,,,,,,,,,,,,,,,,,,,,,,,,,,,,,,,,,,,,,,,,,,,,,,,,,,,,,,,,,,,,,,,,,,,,,,
,,,,,,,,,,stimuli/images/PICTURE_339.png,PLENTY,5bd45c509afb5b00015c48f4,08/21/1953,2020-09-09_23h30.15.516,proactive2,2020.1.2,Win32,60,5f5126bb654d4b30ee6923d8,5f599cdc1d8a3c1ff286b5ab,3,,,,,,backpack,,,,,,0,26,26,0,1,1,0,,,,,,,,,,,,,,,,,,,,,,,,,,,,,,,,,,,,,,,,,,,,,,,,,,,,,,,,,,,,,,,,,,,,,,,,,,,,,,,,,,,,,,,,,,,,,,,,,,,
,,,,,,,,,,stimuli/images/PICTURE_469.png,ARTIST,5bd45c509afb5b00015c48f4,08/21/1953,2020-09-09_23h30.15.516,proactive2,2020.1.2,Win32,60,5f5126bb654d4b30ee6923d8,5f599cdc1d8a3c1ff286b5ab,3,,,,,,stool,,,,,,0,27,27,6,1,1,0,,,,,,,,,,,,,,,,,,,,,,,,,,,,,,,,,,,,,,,,,,,,,,,,,,,,,,,,,,,,,,,,,,,,,,,,,,,,,,,,,,,,,,,,,,,,,,,,,,,
,,,,,,,,,,stimuli/images/PICTURE_453.png,PLENTY,5bd45c509afb5b00015c48f4,08/21/1953,2020-09-09_23h30.15.516,proactive2,2020.1.2,Win32,60,5f5126bb654d4b30ee6923d8,5f599cdc1d8a3c1ff286b5ab,3,,,,,,scissors,,,,,,0,28,28,56,1,6,0,,,,,,,,,,,,,,,,,,,,,,,,,,,,,,,,,,,,,,,,,,,,,,,,,,,,,,,,,,,,,,,,,,,,,,,,,,,,,,,,,,,,,,,,,,,,,,,,,,,
,,,,,,,,,,stimuli/images/PICTURE_654.png,VALLEY,5bd45c509afb5b00015c48f4,08/21/1953,2020-09-09_23h30.15.516,proactive2,2020.1.2,Win32,60,5f5126bb654d4b30ee6923d8,5f599cdc1d8a3c1ff286b5ab,3,,,,,,pencil,,,,,,0,29,29,1,1,1,0,,,,,,,,,,,,,,,,,,,,,,,,,,,,,,,,,,,,,,,,,,,,,,,,,,,,,,,,,,,,,,,,,,,,,,,,,,,,,,,,,,,,,,,,,,,,,,,,,,,
,,,,,,,,,,stimuli/images/PICTURE_744.png,SYSTEM,5bd45c509afb5b00015c48f4,08/21/1953,2020-09-09_23h30.15.516,proactive2,2020.1.2,Win32,60,5f5126bb654d4b30ee6923d8,5f599cdc1d8a3c1ff286b5ab,3,,,,,,ring,,,,,,0,30,30,43,1,5,0,,,,,,,,,,,,,,,,,,,,,,,,,,,,,,,,,,,,,,,,,,,,,,,,,,,,,,,,,,,,,,,,,,,,,,,,,,,,,,,,,,,,,,,,,,,,,,,,,,,
,,,,,,,,,,stimuli/images/PICTURE_208.png,THING,5bd45c509afb5b00015c48f4,08/21/1953,2020-09-09_23h30.15.516,proactive2,2020.1.2,Win32,60,5f5126bb654d4b30ee6923d8,5f599cdc1d8a3c1ff286b5ab,3,,,,,,microphone,,,,,,0,31,31,47,1,5,0,,,,,,,,,,,,,,,,,,,,,,,,,,,,,,,,,,,,,,,,,,,,,,,,,,,,,,,,,,,,,,,,,,,,,,,,,,,,,,,,,,,,,,,,,,,,,,,,,,,
,,,,,,,,,,stimuli/images/PICTURE_688.png,WOMEN,5bd45c509afb5b00015c48f4,08/21/1953,2020-09-09_23h30.15.516,proactive2,2020.1.2,Win32,60,5f5126bb654d4b30ee6923d8,5f599cdc1d8a3c1ff286b5ab,3,,,,,,runner,,,,,,0,32,32,14,1,2,0,,,,,,,,,,,,,,,,,,,,,,,,,,,,,,,,,,,,,,,,,,,,,,,,,,,,,,,,,,,,,,,,,,,,,,,,,,,,,,,,,,,,,,,,,,,,,,,,,,,
,,,,,,,,,,stimuli/images/PICTURE_208.png,LOTS,5bd45c509afb5b00015c48f4,08/21/1953,2020-09-09_23h30.15.516,proactive2,2020.1.2,Win32,60,5f5126bb654d4b30ee6923d8,5f599cdc1d8a3c1ff286b5ab,3,,,,,,microphone,,,,,,0,33,33,10,1,2,0,,,,,,,,,,,,,,,,,,,,,,,,,,,,,,,,,,,,,,,,,,,,,,,,,,,,,,,,,,,,,,,,,,,,,,,,,,,,,,,,,,,,,,,,,,,,,,,,,,,
,,,,,,,,,,stimuli/images/PICTURE_491.png,ROOF,5bd45c509afb5b00015c48f4,08/21/1953,2020-09-09_23h30.15.516,proactive2,2020.1.2,Win32,60,5f5126bb654d4b30ee6923d8,5f599cdc1d8a3c1ff286b5ab,3,,,,,,rug,,,,,,0,34,34,24,1,3,0,,,,,,,,,,,,,,,,,,,,,,,,,,,,,,,,,,,,,,,,,,,,,,,,,,,,,,,,,,,,,,,,,,,,,,,,,,,,,,,,,,,,,,,,,,,,,,,,,,,
,,,,,,,,,,stimuli/images/PICTURE_380.png,DEATH,5bd45c509afb5b00015c48f4,08/21/1953,2020-09-09_23h30.15.516,proactive2,2020.1.2,Win32,60,5f5126bb654d4b30ee6923d8,5f599cdc1d8a3c1ff286b5ab,3,,,,,,gorilla,,,,,,0,35,35,49,1,5,0,,,,,,,,,,,,,,,,,,,,,,,,,,,,,,,,,,,,,,,,,,,,,,,,,,,,,,,,,,,,,,,,,,,,,,,,,,,,,,,,,,,,,,,,,,,,,,,,,,,
,,,,,,,,,,stimuli/images/PICTURE_95.png,STYLE,5bd45c509afb5b00015c48f4,08/21/1953,2020-09-09_23h30.15.516,proactive2,2020.1.2,Win32,60,5f5126bb654d4b30ee6923d8,5f599cdc1d8a3c1ff286b5ab,3,,,,,,suitcase,,,,,,0,36,36,25,1,3,0,,,,,,,,,,,,,,,,,,,,,,,,,,,,,,,,,,,,,,,,,,,,,,,,,,,,,,,,,,,,,,,,,,,,,,,,,,,,,,,,,,,,,,,,,,,,,,,,,,,
,,,,,,,,,,stimuli/images/PICTURE_314.png,SAKE,5bd45c509afb5b00015c48f4,08/21/1953,2020-09-09_23h30.15.516,proactive2,2020.1.2,Win32,60,5f5126bb654d4b30ee6923d8,5f599cdc1d8a3c1ff286b5ab,3,,,,,,perfume,,,,,,0,37,37,7,1,1,0,,,,,,,,,,,,,,,,,,,,,,,,,,,,,,,,,,,,,,,,,,,,,,,,,,,,,,,,,,,,,,,,,,,,,,,,,,,,,,,,,,,,,,,,,,,,,,,,,,,
,,,,,,,,,,stimuli/images/PICTURE_491.png,WRITER,5bd45c509afb5b00015c48f4,08/21/1953,2020-09-09_23h30.15.516,proactive2,2020.1.2,Win32,60,5f5126bb654d4b30ee6923d8,5f599cdc1d8a3c1ff286b5ab,3,,,,,,rug,,,,,,0,38,38,57,1,6,0,,,,,,,,,,,,,,,,,,,,,,,,,,,,,,,,,,,,,,,,,,,,,,,,,,,,,,,,,,,,,,,,,,,,,,,,,,,,,,,,,,,,,,,,,,,,,,,,,,,
,,,,,,,,,,stimuli/images/PICTURE_123.png,ADVICE,5bd45c509afb5b00015c48f4,08/21/1953,2020-09-09_23h30.15.516,proactive2,2020.1.2,Win32,60,5f5126bb654d4b30ee6923d8,5f599cdc1d8a3c1ff286b5ab,3,,,,,,dart,,,,,,0,39,39,40,1,5,0,,,,,,,,,,,,,,,,,,,,,,,,,,,,,,,,,,,,,,,,,,,,,,,,,,,,,,,,,,,,,,,,,,,,,,,,,,,,,,,,,,,,,,,,,,,,,,,,,,,
,,,,,,,,,,stimuli/images/PICTURE_692.png,MONTH,5bd45c509afb5b00015c48f4,08/21/1953,2020-09-09_23h30.15.516,proactive2,2020.1.2,Win32,60,5f5126bb654d4b30ee6923d8,5f599cdc1d8a3c1ff286b5ab,3,,,,,,cherry,,,,,,0,40,40,16,1,2,0,,,,,,,,,,,,,,,,,,,,,,,,,,,,,,,,,,,,,,,,,,,,,,,,,,,,,,,,,,,,,,,,,,,,,,,,,,,,,,,,,,,,,,,,,,,,,,,,,,,
,,,,,,,,,,stimuli/images/PICTURE_470.png,CASINO,5bd45c509afb5b00015c48f4,08/21/1953,2020-09-09_23h30.15.516,proactive2,2020.1.2,Win32,60,5f5126bb654d4b30ee6923d8,5f599cdc1d8a3c1ff286b5ab,3,,,,,,motorbike,,,,,,0,41,41,36,1,4,0,,,,,,,,,,,,,,,,,,,,,,,,,,,,,,,,,,,,,,,,,,,,,,,,,,,,,,,,,,,,,,,,,,,,,,,,,,,,,,,,,,,,,,,,,,,,,,,,,,,
,,,,,,,,,,stimuli/images/PICTURE_688.png,CASINO,5bd45c509afb5b00015c48f4,08/21/1953,2020-09-09_23h30.15.516,proactive2,2020.1.2,Win32,60,5f5126bb654d4b30ee6923d8,5f599cdc1d8a3c1ff286b5ab,3,,,,,,runner,,,,,,0,42,42,2,1,1,0,,,,,,,,,,,,,,,,,,,,,,,,,,,,,,,,,,,,,,,,,,,,,,,,,,,,,,,,,,,,,,,,,,,,,,,,,,,,,,,,,,,,,,,,,,,,,,,,,,,
,,,,,,,,,,stimuli/images/PICTURE_68.png,MILE,5bd45c509afb5b00015c48f4,08/21/1953,2020-09-09_23h30.15.516,proactive2,2020.1.2,Win32,60,5f5126bb654d4b30ee6923d8,5f599cdc1d8a3c1ff286b5ab,3,,,,,,candle,,,,,,0,43,43,44,1,5,0,,,,,,,,,,,,,,,,,,,,,,,,,,,,,,,,,,,,,,,,,,,,,,,,,,,,,,,,,,,,,,,,,,,,,,,,,,,,,,,,,,,,,,,,,,,,,,,,,,,
,,,,,,,,,,stimuli/images/PICTURE_248.png,DOZEN,5bd45c509afb5b00015c48f4,08/21/1953,2020-09-09_23h30.15.516,proactive2,2020.1.2,Win32,60,5f5126bb654d4b30ee6923d8,5f599cdc1d8a3c1ff286b5ab,3,,,,,,cart,,,,,,0,44,44,39,1,4,0,,,,,,,,,,,,,,,,,,,,,,,,,,,,,,,,,,,,,,,,,,,,,,,,,,,,,,,,,,,,,,,,,,,,,,,,,,,,,,,,,,,,,,,,,,,,,,,,,,,
,,,,,,,,,,stimuli/images/PICTURE_233.png,WOMEN,5bd45c509afb5b00015c48f4,08/21/1953,2020-09-09_23h30.15.516,proactive2,2020.1.2,Win32,60,5f5126bb654d4b30ee6923d8,5f599cdc1d8a3c1ff286b5ab,3,,,,,,salt,,,,,,0,45,45,38,1,4,0,,,,,,,,,,,,,,,,,,,,,,,,,,,,,,,,,,,,,,,,,,,,,,,,,,,,,,,,,,,,,,,,,,,,,,,,,,,,,,,,,,,,,,,,,,,,,,,,,,,
,,,,,,,,,,stimuli/images/PICTURE_677.png,MILE,5bd45c509afb5b00015c48f4,08/21/1953,2020-09-09_23h30.15.516,proactive2,2020.1.2,Win32,60,5f5126bb654d4b30ee6923d8,5f599cdc1d8a3c1ff286b5ab,3,,,,,,map,,,,,,0,46,46,30,1,4,0,,,,,,,,,,,,,,,,,,,,,,,,,,,,,,,,,,,,,,,,,,,,,,,,,,,,,,,,,,,,,,,,,,,,,,,,,,,,,,,,,,,,,,,,,,,,,,,,,,,
,,,,,,,,,,stimuli/images/PICTURE_667.png,BATH,5bd45c509afb5b00015c48f4,08/21/1953,2020-09-09_23h30.15.516,proactive2,2020.1.2,Win32,60,5f5126bb654d4b30ee6923d8,5f599cdc1d8a3c1ff286b5ab,3,,,,,,daisy,,,,,,0,47,47,4,1,1,0,,,,,,,,,,,,,,,,,,,,,,,,,,,,,,,,,,,,,,,,,,,,,,,,,,,,,,,,,,,,,,,,,,,,,,,,,,,,,,,,,,,,,,,,,,,,,,,,,,,
,,,,,,,,,,stimuli/images/PICTURE_314.png,GODS,5bd45c509afb5b00015c48f4,08/21/1953,2020-09-09_23h30.15.516,proactive2,2020.1.2,Win32,60,5f5126bb654d4b30ee6923d8,5f599cdc1d8a3c1ff286b5ab,3,,,,,,perfume,,,,,,0,48,48,11,1,2,0,,,,,,,,,,,,,,,,,,,,,,,,,,,,,,,,,,,,,,,,,,,,,,,,,,,,,,,,,,,,,,,,,,,,,,,,,,,,,,,,,,,,,,,,,,,,,,,,,,,
,,,,,,,,,,stimuli/images/PICTURE_160.png,LEADER,5bd45c509afb5b00015c48f4,08/21/1953,2020-09-09_23h30.15.516,proactive2,2020.1.2,Win32,60,5f5126bb654d4b30ee6923d8,5f599cdc1d8a3c1ff286b5ab,3,,,,,,wheelbarrow,,,,,,0,49,49,3,1,1,0,,,,,,,,,,,,,,,,,,,,,,,,,,,,,,,,,,,,,,,,,,,,,,,,,,,,,,,,,,,,,,,,,,,,,,,,,,,,,,,,,,,,,,,,,,,,,,,,,,,
,,,,,,,,,,stimuli/images/PICTURE_467.png,DEMON,5bd45c509afb5b00015c48f4,08/21/1953,2020-09-09_23h30.15.516,proactive2,2020.1.2,Win32,60,5f5126bb654d4b30ee6923d8,5f599cdc1d8a3c1ff286b5ab,3,,,,,,peg,,,,,,0,50,50,23,1,3,0,,,,,,,,,,,,,,,,,,,,,,,,,,,,,,,,,,,,,,,,,,,,,,,,,,,,,,,,,,,,,,,,,,,,,,,,,,,,,,,,,,,,,,,,,,,,,,,,,,,
,,,,,,,,,,stimuli/images/PICTURE_233.png,IDEAS,5bd45c509afb5b00015c48f4,08/21/1953,2020-09-09_23h30.15.516,proactive2,2020.1.2,Win32,60,5f5126bb654d4b30ee6923d8,5f599cdc1d8a3c1ff286b5ab,3,,,,,,salt,,,,,,0,51,51,28,1,3,0,,,,,,,,,,,,,,,,,,,,,,,,,,,,,,,,,,,,,,,,,,,,,,,,,,,,,,,,,,,,,,,,,,,,,,,,,,,,,,,,,,,,,,,,,,,,,,,,,,,
,,,,,,,,,,stimuli/images/PICTURE_380.png,PHOTO,5bd45c509afb5b00015c48f4,08/21/1953,2020-09-09_23h30.15.516,proactive2,2020.1.2,Win32,60,5f5126bb654d4b30ee6923d8,5f599cdc1d8a3c1ff286b5ab,3,,,,,,gorilla,,,,,,0,52,52,52,1,6,0,,,,,,,,,,,,,,,,,,,,,,,,,,,,,,,,,,,,,,,,,,,,,,,,,,,,,,,,,,,,,,,,,,,,,,,,,,,,,,,,,,,,,,,,,,,,,,,,,,,
,,,,,,,,,,stimuli/images/PICTURE_708.png,YARD,5bd45c509afb5b00015c48f4,08/21/1953,2020-09-09_23h30.15.516,proactive2,2020.1.2,Win32,60,5f5126bb654d4b30ee6923d8,5f599cdc1d8a3c1ff286b5ab,3,,,,,,monkey,,,,,,0,53,53,29,1,3,0,,,,,,,,,,,,,,,,,,,,,,,,,,,,,,,,,,,,,,,,,,,,,,,,,,,,,,,,,,,,,,,,,,,,,,,,,,,,,,,,,,,,,,,,,,,,,,,,,,,
,,,,,,,,,,stimuli/images/PICTURE_356.png,DANGER,5bd45c509afb5b00015c48f4,08/21/1953,2020-09-09_23h30.15.516,proactive2,2020.1.2,Win32,60,5f5126bb654d4b30ee6923d8,5f599cdc1d8a3c1ff286b5ab,3,,,,,,pawn,,,,,,0,54,54,55,1,6,0,,,,,,,,,,,,,,,,,,,,,,,,,,,,,,,,,,,,,,,,,,,,,,,,,,,,,,,,,,,,,,,,,,,,,,,,,,,,,,,,,,,,,,,,,,,,,,,,,,,
,,,,,,,,,,stimuli/images/PICTURE_308.png,KIND,5bd45c509afb5b00015c48f4,08/21/1953,2020-09-09_23h30.15.516,proactive2,2020.1.2,Win32,60,5f5126bb654d4b30ee6923d8,5f599cdc1d8a3c1ff286b5ab,3,,,,,,dice,,,,,,0,55,55,54,1,6,0,,,,,,,,,,,,,,,,,,,,,,,,,,,,,,,,,,,,,,,,,,,,,,,,,,,,,,,,,,,,,,,,,,,,,,,,,,,,,,,,,,,,,,,,,,,,,,,,,,,
,,,,,,,,,,stimuli/images/PICTURE_504.png,BODY,5bd45c509afb5b00015c48f4,08/21/1953,2020-09-09_23h30.15.516,proactive2,2020.1.2,Win32,60,5f5126bb654d4b30ee6923d8,5f599cdc1d8a3c1ff286b5ab,3,,,,,,wheel,,,,,,0,56,56,8,1,1,0,,,,,,,,,,,,,,,,,,,,,,,,,,,,,,,,,,,,,,,,,,,,,,,,,,,,,,,,,,,,,,,,,,,,,,,,,,,,,,,,,,,,,,,,,,,,,,,,,,,
,,,,,,,,,,stimuli/images/PICTURE_151.png,GIRL,5bd45c509afb5b00015c48f4,08/21/1953,2020-09-09_23h30.15.516,proactive2,2020.1.2,Win32,60,5f5126bb654d4b30ee6923d8,5f599cdc1d8a3c1ff286b5ab,3,,,,,,tray,,,,,,0,57,57,19,1,2,0,,,,,,,,,,,,,,,,,,,,,,,,,,,,,,,,,,,,,,,,,,,,,,,,,,,,,,,,,,,,,,,,,,,,,,,,,,,,,,,,,,,,,,,,,,,,,,,,,,,
,,,,,,,,,,stimuli/images/PICTURE_449.png,THING,5bd45c509afb5b00015c48f4,08/21/1953,2020-09-09_23h30.15.516,proactive2,2020.1.2,Win32,60,5f5126bb654d4b30ee6923d8,5f599cdc1d8a3c1ff286b5ab,3,,,,,,bench,,,,,,0,58,58,59,1,6,0,,,,,,,,,,,,,,,,,,,,,,,,,,,,,,,,,,,,,,,,,,,,,,,,,,,,,,,,,,,,,,,,,,,,,,,,,,,,,,,,,,,,,,,,,,,,,,,,,,,
,,?,0.001565,0,,,,,,stimuli/images/PICTURE_233.png,WOMEN,5bd45c509afb5b00015c48f4,08/21/1953,2020-09-09_23h30.15.516,proactive2,2020.1.2,Win32,60,5f5126bb654d4b30ee6923d8,5f599cdc1d8a3c1ff286b5ab,3,,,,,,salt,,,,,,,,,,,4,0,0,0,0,38,1,,,,,,,,,,,,,,,,,,,,,,,,,,,,,,,,,,,,,,,,,,,,,,,,,,,,,,,,,,,,,,,,,,,,,,,,,,,,,,,,,,,,,,,,,,,,,,
,,?,0.002215,0,,,,,,stimuli/images/PICTURE_32.png,JUNGLE,5bd45c509afb5b00015c48f4,08/21/1953,2020-09-09_23h30.15.516,proactive2,2020.1.2,Win32,60,5f5126bb654d4b30ee6923d8,5f599cdc1d8a3c1ff286b5ab,3,,,,,,crown,,,,,,,,,,,5,0,0,1,1,45,1,,,,,,,,,,,,,,,,,,,,,,,,,,,,,,,,,,,,,,,,,,,,,,,,,,,,,,,,,,,,,,,,,,,,,,,,,,,,,,,,,,,,,,,,,,,,,,
,,?,0.001165,0,,,,,,stimuli/images/PICTURE_356.png,DANGER,5bd45c509afb5b00015c48f4,08/21/1953,2020-09-09_23h30.15.516,proactive2,2020.1.2,Win32,60,5f5126bb654d4b30ee6923d8,5f599cdc1d8a3c1ff286b5ab,3,,,,,,pawn,,,,,,,,,,,6,0,0,2,2,55,1,,,,,,,,,,,,,,,,,,,,,,,,,,,,,,,,,,,,,,,,,,,,,,,,,,,,,,,,,,,,,,,,,,,,,,,,,,,,,,,,,,,,,,,,,,,,,,
,,?,0.00138,0,,,,,,stimuli/images/PICTURE_688.png,WOMEN,5bd45c509afb5b00015c48f4,08/21/1953,2020-09-09_23h30.15.516,proactive2,2020.1.2,Win32,60,5f5126bb654d4b30ee6923d8,5f599cdc1d8a3c1ff286b5ab,3,,,,,,runner,,,,,,,,,,,2,0,0,3,3,14,1,,,,,,,,,,,,,,,,,,,,,,,,,,,,,,,,,,,,,,,,,,,,,,,,,,,,,,,,,,,,,,,,,,,,,,,,,,,,,,,,,,,,,,,,,,,,,,
,,?,0.001065,0,,,,,,stimuli/images/PICTURE_285.png,ADVICE,5bd45c509afb5b00015c48f4,08/21/1953,2020-09-09_23h30.15.516,proactive2,2020.1.2,Win32,60,5f5126bb654d4b30ee6923d8,5f599cdc1d8a3c1ff286b5ab,3,,,,,,carrot,,,,,,,,,,,2,0,0,4,4,12,1,,,,,,,,,,,,,,,,,,,,,,,,,,,,,,,,,,,,,,,,,,,,,,,,,,,,,,,,,,,,,,,,,,,,,,,,,,,,,,,,,,,,,,,,,,,,,,
,,?,0.001065,0,,,,,,stimuli/images/PICTURE_380.png,PHOTO,5bd45c509afb5b00015c48f4,08/21/1953,2020-09-09_23h30.15.516,proactive2,2020.1.2,Win32,60,5f5126bb654d4b30ee6923d8,5f599cdc1d8a3c1ff286b5ab,3,,,,,,gorilla,,,,,,,,,,,6,0,0,5,5,52,1,,,,,,,,,,,,,,,,,,,,,,,,,,,,,,,,,,,,,,,,,,,,,,,,,,,,,,,,,,,,,,,,,,,,,,,,,,,,,,,,,,,,,,,,,,,,,,
,,?,0.001385,0,,,,,,stimuli/images/PICTURE_248.png,DOZEN,5bd45c509afb5b00015c48f4,08/21/1953,2020-09-09_23h30.15.516,proactive2,2020.1.2,Win32,60,5f5126bb654d4b30ee6923d8,5f599cdc1d8a3c1ff286b5ab,3,,,,,,cart,,,,,,,,,,,4,0,0,6,6,39,1,,,,,,,,,,,,,,,,,,,,,,,,,,,,,,,,,,,,,,,,,,,,,,,,,,,,,,,,,,,,,,,,,,,,,,,,,,,,,,,,,,,,,,,,,,,,,,
,,?,0.001095,0,,,,,,stimuli/images/PICTURE_68.png,MILE,5bd45c509afb5b00015c48f4,08/21/1953,2020-09-09_23h30.15.516,proactive2,2020.1.2,Win32,60,5f5126bb654d4b30ee6923d8,5f599cdc1d8a3c1ff286b5ab,3,,,,,,candle,,,,,,,,,,,5,0,0,7,7,44,1,,,,,,,,,,,,,,,,,,,,,,,,,,,,,,,,,,,,,,,,,,,,,,,,,,,,,,,,,,,,,,,,,,,,,,,,,,,,,,,,,,,,,,,,,,,,,,
,,?,0.00118,0,,,,,,stimuli/images/PICTURE_688.png,CASINO,5bd45c509afb5b00015c48f4,08/21/1953,2020-09-09_23h30.15.516,proactive2,2020.1.2,Win32,60,5f5126bb654d4b30ee6923d8,5f599cdc1d8a3c1ff286b5ab,3,,,,,,runner,,,,,,,,,,,1,0,0,8,8,2,1,,,,,,,,,,,,,,,,,,,,,,,,,,,,,,,,,,,,,,,,,,,,,,,,,,,,,,,,,,,,,,,,,,,,,,,,,,,,,,,,,,,,,,,,,,,,,,
,,?,0.001355,0,,,,,,stimuli/images/PICTURE_151.png,GIRL,5bd45c509afb5b00015c48f4,08/21/1953,2020-09-09_23h30.15.516,proactive2,2020.1.2,Win32,60,5f5126bb654d4b30ee6923d8,5f599cdc1d8a3c1ff286b5ab,3,,,,,,tray,,,,,,,,,,,2,0,0,9,9,19,1,,,,,,,,,,,,,,,,,,,,,,,,,,,,,,,,,,,,,,,,,,,,,,,,,,,,,,,,,,,,,,,,,,,,,,,,,,,,,,,,,,,,,,,,,,,,,,
,,STYLE,9.840565,1,,,,,,stimuli/images/PICTURE_95.png,STYLE,5bd45c509afb5b00015c48f4,08/21/1953,2020-09-09_23h30.15.516,proactive2,2020.1.2,Win32,60,5f5126bb654d4b30ee6923d8,5f599cdc1d8a3c1ff286b5ab,3,,,,,,suitcase,,,,,,,,,,,3,0,0,10,10,25,1,,,,,,,,,,,,,,,,,,,,,,,,,,,,,,,,,,,,,,,,,,,,,,,,,,,,,,,,,,,,,,,,,,,,,,,,,,,,,,,,,,,,,,,,,,,,,,
,,?,0.001115,0,,,,,,stimuli/images/PICTURE_208.png,MONTH,5bd45c509afb5b00015c48f4,08/21/1953,2020-09-09_23h30.15.516,proactive2,2020.1.2,Win32,60,5f5126bb654d4b30ee6923d8,5f599cdc1d8a3c1ff286b5ab,3,,,,,,microphone,,,,,,,,,,,6,0,0,11,11,53,1,,,,,,,,,,,,,,,,,,,,,,,,,,,,,,,,,,,,,,,,,,,,,,,,,,,,,,,,,,,,,,,,,,,,,,,,,,,,,,,,,,,,,,,,,,,,,,
,,?,7.210025,0,,,,,,stimuli/images/PICTURE_509.png,PHOTO,5bd45c509afb5b00015c48f4,08/21/1953,2020-09-09_23h30.15.516,proactive2,2020.1.2,Win32,60,5f5126bb654d4b30ee6923d8,5f599cdc1d8a3c1ff286b5ab,3,,,,,,telephone,,,,,,,,,,,3,0,0,12,12,21,1,,,,,,,,,,,,,,,,,,,,,,,,,,,,,,,,,,,,,,,,,,,,,,,,,,,,,,,,,,,,,,,,,,,,,,,,,,,,,,,,,,,,,,,,,,,,,,
,,?,0.00126,0,,,,,,stimuli/images/PICTURE_208.png,THING,5bd45c509afb5b00015c48f4,08/21/1953,2020-09-09_23h30.15.516,proactive2,2020.1.2,Win32,60,5f5126bb654d4b30ee6923d8,5f599cdc1d8a3c1ff286b5ab,3,,,,,,microphone,,,,,,,,,,,5,0,0,13,13,47,1,,,,,,,,,,,,,,,,,,,,,,,,,,,,,,,,,,,,,,,,,,,,,,,,,,,,,,,,,,,,,,,,,,,,,,,,,,,,,,,,,,,,,,,,,,,,,,
,,?,0.00094,0,,,,,,stimuli/images/PICTURE_308.png,ESTATE,5bd45c509afb5b00015c48f4,08/21/1953,2020-09-09_23h30.15.516,proactive2,2020.1.2,Win32,60,5f5126bb654d4b30ee6923d8,5f599cdc1d8a3c1ff286b5ab,3,,,,,,dice,,,,,,,,,,,5,0,0,14,14,46,1,,,,,,,,,,,,,,,,,,,,,,,,,,,,,,,,,,,,,,,,,,,,,,,,,,,,,,,,,,,,,,,,,,,,,,,,,,,,,,,,,,,,,,,,,,,,,,
,,?,0.001025,0,,,,,,stimuli/images/PICTURE_692.png,MONTH,5bd45c509afb5b00015c48f4,08/21/1953,2020-09-09_23h30.15.516,proactive2,2020.1.2,Win32,60,5f5126bb654d4b30ee6923d8,5f599cdc1d8a3c1ff286b5ab,3,,,,,,cherry,,,,,,,,,,,2,0,0,15,15,16,1,,,,,,,,,,,,,,,,,,,,,,,,,,,,,,,,,,,,,,,,,,,,,,,,,,,,,,,,,,,,,,,,,,,,,,,,,,,,,,,,,,,,,,,,,,,,,,
,,YARD,5.34991,1,,,,,,stimuli/images/PICTURE_708.png,YARD,5bd45c509afb5b00015c48f4,08/21/1953,2020-09-09_23h30.15.516,proactive2,2020.1.2,Win32,60,5f5126bb654d4b30ee6923d8,5f599cdc1d8a3c1ff286b5ab,3,,,,,,monkey,,,,,,,,,,,3,0,0,16,16,29,1,,,,,,,,,,,,,,,,,,,,,,,,,,,,,,,,,,,,,,,,,,,,,,,,,,,,,,,,,,,,,,,,,,,,,,,,,,,,,,,,,,,,,,,,,,,,,,
,,?,7.02859,0,,,,,,stimuli/images/PICTURE_348.png,SPEECH,5bd45c509afb5b00015c48f4,08/21/1953,2020-09-09_23h30.15.516,proactive2,2020.1.2,Win32,60,5f5126bb654d4b30ee6923d8,5f599cdc1d8a3c1ff286b5ab,3,,,,,,pepper,,,,,,,,,,,3,0,0,17,17,20,1,,,,,,,,,,,,,,,,,,,,,,,,,,,,,,,,,,,,,,,,,,,,,,,,,,,,,,,,,,,,,,,,,,,,,,,,,,,,,,,,,,,,,,,,,,,,,,
,,?,0.00132,0,,,,,,stimuli/images/PICTURE_302.png,FAMILY,5bd45c509afb5b00015c48f4,08/21/1953,2020-09-09_23h30.15.516,proactive2,2020.1.2,Win32,60,5f5126bb654d4b30ee6923d8,5f599cdc1d8a3c1ff286b5ab,3,,,,,,taxi,,,,,,,,,,,2,0,0,18,18,18,1,,,,,,,,,,,,,,,,,,,,,,,,,,,,,,,,,,,,,,,,,,,,,,,,,,,,,,,,,,,,,,,,,,,,,,,,,,,,,,,,,,,,,,,,,,,,,,
,,?,0.000985,0,,,,,,stimuli/images/PICTURE_453.png,PLENTY,5bd45c509afb5b00015c48f4,08/21/1953,2020-09-09_23h30.15.516,proactive2,2020.1.2,Win32,60,5f5126bb654d4b30ee6923d8,5f599cdc1d8a3c1ff286b5ab,3,,,,,,scissors,,,,,,,,,,,6,0,0,19,19,56,1,,,,,,,,,,,,,,,,,,,,,,,,,,,,,,,,,,,,,,,,,,,,,,,,,,,,,,,,,,,,,,,,,,,,,,,,,,,,,,,,,,,,,,,,,,,,,,
,,?,0.001115,0,,,,,,stimuli/images/PICTURE_314.png,GODS,5bd45c509afb5b00015c48f4,08/21/1953,2020-09-09_23h30.15.516,proactive2,2020.1.2,Win32,60,5f5126bb654d4b30ee6923d8,5f599cdc1d8a3c1ff286b5ab,3,,,,,,perfume,,,,,,,,,,,2,0,0,20,20,11,1,,,,,,,,,,,,,,,,,,,,,,,,,,,,,,,,,,,,,,,,,,,,,,,,,,,,,,,,,,,,,,,,,,,,,,,,,,,,,,,,,,,,,,,,,,,,,,
,,?,0.00099,0,,,,,,stimuli/images/PICTURE_311.png,FRIEND,5bd45c509afb5b00015c48f4,08/21/1953,2020-09-09_23h30.15.516,proactive2,2020.1.2,Win32,60,5f5126bb654d4b30ee6923d8,5f599cdc1d8a3c1ff286b5ab,3,,,,,,razor,,,,,,,,,,,4,0,0,21,21,34,1,,,,,,,,,,,,,,,,,,,,,,,,,,,,,,,,,,,,,,,,,,,,,,,,,,,,,,,,,,,,,,,,,,,,,,,,,,,,,,,,,,,,,,,,,,,,,,
,,?,0.00105,0,,,,,,stimuli/images/PICTURE_667.png,PLENTY,5bd45c509afb5b00015c48f4,08/21/1953,2020-09-09_23h30.15.516,proactive2,2020.1.2,Win32,60,5f5126bb654d4b30ee6923d8,5f599cdc1d8a3c1ff286b5ab,3,,,,,,daisy,,,,,,,,,,,5,0,0,22,22,41,1,,,,,,,,,,,,,,,,,,,,,,,,,,,,,,,,,,,,,,,,,,,,,,,,,,,,,,,,,,,,,,,,,,,,,,,,,,,,,,,,,,,,,,,,,,,,,,
,,?,0.00131,0,,,,,,stimuli/images/PICTURE_469.png,ARTIST,5bd45c509afb5b00015c48f4,08/21/1953,2020-09-09_23h30.15.516,proactive2,2020.1.2,Win32,60,5f5126bb654d4b30ee6923d8,5f599cdc1d8a3c1ff286b5ab,3,,,,,,stool,,,,,,,,,,,1,0,0,23,23,6,1,,,,,,,,,,,,,,,,,,,,,,,,,,,,,,,,,,,,,,,,,,,,,,,,,,,,,,,,,,,,,,,,,,,,,,,,,,,,,,,,,,,,,,,,,,,,,,
,,?,0.00122,0,,,,,,stimuli/images/PICTURE_708.png,CLIENT,5bd45c509afb5b00015c48f4,08/21/1953,2020-09-09_23h30.15.516,proactive2,2020.1.2,Win32,60,5f5126bb654d4b30ee6923d8,5f599cdc1d8a3c1ff286b5ab,3,,,,,,monkey,,,,,,,,,,,1,0,0,24,24,5,1,,,,,,,,,,,,,,,,,,,,,,,,,,,,,,,,,,,,,,,,,,,,,,,,,,,,,,,,,,,,,,,,,,,,,,,,,,,,,,,,,,,,,,,,,,,,,,
,,?,0.000965,0,,,,,,stimuli/images/PICTURE_488.png,STYLE,5bd45c509afb5b00015c48f4,08/21/1953,2020-09-09_23h30.15.516,proactive2,2020.1.2,Win32,60,5f5126bb654d4b30ee6923d8,5f599cdc1d8a3c1ff286b5ab,3,,,,,,sun,,,,,,,,,,,4,0,0,25,25,33,1,,,,,,,,,,,,,,,,,,,,,,,,,,,,,,,,,,,,,,,,,,,,,,,,,,,,,,,,,,,,,,,,,,,,,,,,,,,,,,,,,,,,,,,,,,,,,,
,,?,0.001195,0,,,,,,stimuli/images/PICTURE_147.png,MOMENT,5bd45c509afb5b00015c48f4,08/21/1953,2020-09-09_23h30.15.516,proactive2,2020.1.2,Win32,60,5f5126bb654d4b30ee6923d8,5f599cdc1d8a3c1ff286b5ab,3,,,,,,hanger,,,,,,,,,,,6,0,0,26,26,51,1,,,,,,,,,,,,,,,,,,,,,,,,,,,,,,,,,,,,,,,,,,,,,,,,,,,,,,,,,,,,,,,,,,,,,,,,,,,,,,,,,,,,,,,,,,,,,,
,,?,5.31342,0,,,,,,stimuli/images/PICTURE_255.png,AREA,5bd45c509afb5b00015c48f4,08/21/1953,2020-09-09_23h30.15.516,proactive2,2020.1.2,Win32,60,5f5126bb654d4b30ee6923d8,5f599cdc1d8a3c1ff286b5ab,3,,,,,,shovel,,,,,,,,,,,3,0,0,27,27,22,1,,,,,,,,,,,,,,,,,,,,,,,,,,,,,,,,,,,,,,,,,,,,,,,,,,,,,,,,,,,,,,,,,,,,,,,,,,,,,,,,,,,,,,,,,,,,,,
,,?,0.0038,0,,,,,,stimuli/images/PICTURE_504.png,BODY,5bd45c509afb5b00015c48f4,08/21/1953,2020-09-09_23h30.15.516,proactive2,2020.1.2,Win32,60,5f5126bb654d4b30ee6923d8,5f599cdc1d8a3c1ff286b5ab,3,,,,,,wheel,,,,,,,,,,,1,0,0,28,28,8,1,,,,,,,,,,,,,,,,,,,,,,,,,,,,,,,,,,,,,,,,,,,,,,,,,,,,,,,,,,,,,,,,,,,,,,,,,,,,,,,,,,,,,,,,,,,,,,
,,?,0.001015,0,,,,,,stimuli/images/PICTURE_123.png,ADVICE,5bd45c509afb5b00015c48f4,08/21/1953,2020-09-09_23h30.15.516,proactive2,2020.1.2,Win32,60,5f5126bb654d4b30ee6923d8,5f599cdc1d8a3c1ff286b5ab,3,,,,,,dart,,,,,,,,,,,6,0,0,29,29,50,1,,,,,,,,,,,,,,,,,,,,,,,,,,,,,,,,,,,,,,,,,,,,,,,,,,,,,,,,,,,,,,,,,,,,,,,,,,,,,,,,,,,,,,,,,,,,,,
,,?,0.001005,0,,,,,,stimuli/images/PICTURE_667.png,BATH,5bd45c509afb5b00015c48f4,08/21/1953,2020-09-09_23h30.15.516,proactive2,2020.1.2,Win32,60,5f5126bb654d4b30ee6923d8,5f599cdc1d8a3c1ff286b5ab,3,,,,,,daisy,,,,,,,,,,,1,0,0,30,30,4,1,,,,,,,,,,,,,,,,,,,,,,,,,,,,,,,,,,,,,,,,,,,,,,,,,,,,,,,,,,,,,,,,,,,,,,,,,,,,,,,,,,,,,,,,,,,,,,
,,?,0.001005,0,,,,,,stimuli/images/PICTURE_380.png,DEATH,5bd45c509afb5b00015c48f4,08/21/1953,2020-09-09_23h30.15.516,proactive2,2020.1.2,Win32,60,5f5126bb654d4b30ee6923d8,5f599cdc1d8a3c1ff286b5ab,3,,,,,,gorilla,,,,,,,,,,,5,0,0,31,31,49,1,,,,,,,,,,,,,,,,,,,,,,,,,,,,,,,,,,,,,,,,,,,,,,,,,,,,,,,,,,,,,,,,,,,,,,,,,,,,,,,,,,,,,,,,,,,,,,
,,SPEECH,7.281045,0,,,,,,stimuli/images/PICTURE_233.png,IDEAS,5bd45c509afb5b00015c48f4,08/21/1953,2020-09-09_23h30.15.516,proactive2,2020.1.2,Win32,60,5f5126bb654d4b30ee6923d8,5f599cdc1d8a3c1ff286b5ab,3,,,,,,salt,,,,,,,,,,,3,0,0,32,32,28,1,,,,,,,,,,,,,,,,,,,,,,,,,,,,,,,,,,,,,,,,,,,,,,,,,,,,,,,,,,,,,,,,,,,,,,,,,,,,,,,,,,,,,,,,,,,,,,
,,?,0.00352,0,,,,,,stimuli/images/PICTURE_160.png,LEADER,5bd45c509afb5b00015c48f4,08/21/1953,2020-09-09_23h30.15.516,proactive2,2020.1.2,Win32,60,5f5126bb654d4b30ee6923d8,5f599cdc1d8a3c1ff286b5ab,3,,,,,,wheelbarrow,,,,,,,,,,,1,0,0,33,33,3,1,,,,,,,,,,,,,,,,,,,,,,,,,,,,,,,,,,,,,,,,,,,,,,,,,,,,,,,,,,,,,,,,,,,,,,,,,,,,,,,,,,,,,,,,,,,,,,
,,?,0.00105,0,,,,,,stimuli/images/PICTURE_314.png,SAKE,5bd45c509afb5b00015c48f4,08/21/1953,2020-09-09_23h30.15.516,proactive2,2020.1.2,Win32,60,5f5126bb654d4b30ee6923d8,5f599cdc1d8a3c1ff286b5ab,3,,,,,,perfume,,,,,,,,,,,1,0,0,34,34,7,1,,,,,,,,,,,,,,,,,,,,,,,,,,,,,,,,,,,,,,,,,,,,,,,,,,,,,,,,,,,,,,,,,,,,,,,,,,,,,,,,,,,,,,,,,,,,,,
,,DUDE,3.698155,1,,,,,,stimuli/images/PICTURE_453.png,DUDE,5bd45c509afb5b00015c48f4,08/21/1953,2020-09-09_23h30.15.516,proactive2,2020.1.2,Win32,60,5f5126bb654d4b30ee6923d8,5f599cdc1d8a3c1ff286b5ab,3,,,,,,scissors,,,,,,,,,,,3,0,0,35,35,27,1,,,,,,,,,,,,,,,,,,,,,,,,,,,,,,,,,,,,,,,,,,,,,,,,,,,,,,,,,,,,,,,,,,,,,,,,,,,,,,,,,,,,,,,,,,,,,,
,,?,0.001225,0,,,,,,stimuli/images/PICTURE_744.png,SYSTEM,5bd45c509afb5b00015c48f4,08/21/1953,2020-09-09_23h30.15.516,proactive2,2020.1.2,Win32,60,5f5126bb654d4b30ee6923d8,5f599cdc1d8a3c1ff286b5ab,3,,,,,,ring,,,,,,,,,,,5,0,0,36,36,43,1,,,,,,,,,,,,,,,,,,,,,,,,,,,,,,,,,,,,,,,,,,,,,,,,,,,,,,,,,,,,,,,,,,,,,,,,,,,,,,,,,,,,,,,,,,,,,,
,,?,0.00099,0,,,,,,stimuli/images/PICTURE_654.png,VALLEY,5bd45c509afb5b00015c48f4,08/21/1953,2020-09-09_23h30.15.516,proactive2,2020.1.2,Win32,60,5f5126bb654d4b30ee6923d8,5f599cdc1d8a3c1ff286b5ab,3,,,,,,pencil,,,,,,,,,,,1,0,0,37,37,1,1,,,,,,,,,,,,,,,,,,,,,,,,,,,,,,,,,,,,,,,,,,,,,,,,,,,,,,,,,,,,,,,,,,,,,,,,,,,,,,,,,,,,,,,,,,,,,,
,,?,0.00098,0,,,,,,stimuli/images/PICTURE_215.png,PLENTY,5bd45c509afb5b00015c48f4,08/21/1953,2020-09-09_23h30.15.516,proactive2,2020.1.2,Win32,60,5f5126bb654d4b30ee6923d8,5f599cdc1d8a3c1ff286b5ab,3,,,,,,boot,,,,,,,,,,,4,0,0,38,38,37,1,,,,,,,,,,,,,,,,,,,,,,,,,,,,,,,,,,,,,,,,,,,,,,,,,,,,,,,,,,,,,,,,,,,,,,,,,,,,,,,,,,,,,,,,,,,,,,
,,?,0.001,0,,,,,,stimuli/images/PICTURE_208.png,LOTS,5bd45c509afb5b00015c48f4,08/21/1953,2020-09-09_23h30.15.516,proactive2,2020.1.2,Win32,60,5f5126bb654d4b30ee6923d8,5f599cdc1d8a3c1ff286b5ab,3,,,,,,microphone,,,,,,,,,,,2,0,0,39,39,10,1,,,,,,,,,,,,,,,,,,,,,,,,,,,,,,,,,,,,,,,,,,,,,,,,,,,,,,,,,,,,,,,,,,,,,,,,,,,,,,,,,,,,,,,,,,,,,,
,,?,0.00099,0,,,,,,stimuli/images/PICTURE_470.png,CASINO,5bd45c509afb5b00015c48f4,08/21/1953,2020-09-09_23h30.15.516,proactive2,2020.1.2,Win32,60,5f5126bb654d4b30ee6923d8,5f599cdc1d8a3c1ff286b5ab,3,,,,,,motorbike,,,,,,,,,,,4,0,0,40,40,36,1,,,,,,,,,,,,,,,,,,,,,,,,,,,,,,,,,,,,,,,,,,,,,,,,,,,,,,,,,,,,,,,,,,,,,,,,,,,,,,,,,,,,,,,,,,,,,,
,,?,0.001015,0,,,,,,stimuli/images/PICTURE_487.png,FLIGHT,5bd45c509afb5b00015c48f4,08/21/1953,2020-09-09_23h30.15.516,proactive2,2020.1.2,Win32,60,5f5126bb654d4b30ee6923d8,5f599cdc1d8a3c1ff286b5ab,3,,,,,,basket,,,,,,,,,,,1,0,0,41,41,9,1,,,,,,,,,,,,,,,,,,,,,,,,,,,,,,,,,,,,,,,,,,,,,,,,,,,,,,,,,,,,,,,,,,,,,,,,,,,,,,,,,,,,,,,,,,,,,,
,,?,0.000945,0,,,,,,stimuli/images/PICTURE_469.png,LETTER,5bd45c509afb5b00015c48f4,08/21/1953,2020-09-09_23h30.15.516,proactive2,2020.1.2,Win32,60,5f5126bb654d4b30ee6923d8,5f599cdc1d8a3c1ff286b5ab,3,,,,,,stool,,,,,,,,,,,5,0,0,42,42,42,1,,,,,,,,,,,,,,,,,,,,,,,,,,,,,,,,,,,,,,,,,,,,,,,,,,,,,,,,,,,,,,,,,,,,,,,,,,,,,,,,,,,,,,,,,,,,,,
,,?,0.003585,0,,,,,,stimuli/images/PICTURE_177.png,CARS,5bd45c509afb5b00015c48f4,08/21/1953,2020-09-09_23h30.15.516,proactive2,2020.1.2,Win32,60,5f5126bb654d4b30ee6923d8,5f599cdc1d8a3c1ff286b5ab,3,,,,,,mushroom,,,,,,,,,,,4,0,0,43,43,35,1,,,,,,,,,,,,,,,,,,,,,,,,,,,,,,,,,,,,,,,,,,,,,,,,,,,,,,,,,,,,,,,,,,,,,,,,,,,,,,,,,,,,,,,,,,,,,,
,,ROOF,3.09622,1,,,,,,stimuli/images/PICTURE_491.png,ROOF,5bd45c509afb5b00015c48f4,08/21/1953,2020-09-09_23h30.15.516,proactive2,2020.1.2,Win32,60,5f5126bb654d4b30ee6923d8,5f599cdc1d8a3c1ff286b5ab,3,,,,,,rug,,,,,,,,,,,3,0,0,44,44,24,1,,,,,,,,,,,,,,,,,,,,,,,,,,,,,,,,,,,,,,,,,,,,,,,,,,,,,,,,,,,,,,,,,,,,,,,,,,,,,,,,,,,,,,,,,,,,,,
,,?,0.001605,0,,,,,,stimuli/images/PICTURE_123.png,ADVICE,5bd45c509afb5b00015c48f4,08/21/1953,2020-09-09_23h30.15.516,proactive2,2020.1.2,Win32,60,5f5126bb654d4b30ee6923d8,5f599cdc1d8a3c1ff286b5ab,3,,,,,,dart,,,,,,,,,,,5,0,0,45,45,40,1,,,,,,,,,,,,,,,,,,,,,,,,,,,,,,,,,,,,,,,,,,,,,,,,,,,,,,,,,,,,,,,,,,,,,,,,,,,,,,,,,,,,,,,,,,,,,,
,,?,0.00094,0,,,,,,stimuli/images/PICTURE_744.png,SAKE,5bd45c509afb5b00015c48f4,08/21/1953,2020-09-09_23h30.15.516,proactive2,2020.1.2,Win32,60,5f5126bb654d4b30ee6923d8,5f599cdc1d8a3c1ff286b5ab,3,,,,,,ring,,,,,,,,,,,2,0,0,46,46,17,1,,,,,,,,,,,,,,,,,,,,,,,,,,,,,,,,,,,,,,,,,,,,,,,,,,,,,,,,,,,,,,,,,,,,,,,,,,,,,,,,,,,,,,,,,,,,,,
,,?,0.000995,0,,,,,,stimuli/images/PICTURE_308.png,KIND,5bd45c509afb5b00015c48f4,08/21/1953,2020-09-09_23h30.15.516,proactive2,2020.1.2,Win32,60,5f5126bb654d4b30ee6923d8,5f599cdc1d8a3c1ff286b5ab,3,,,,,,dice,,,,,,,,,,,6,0,0,47,47,54,1,,,,,,,,,,,,,,,,,,,,,,,,,,,,,,,,,,,,,,,,,,,,,,,,,,,,,,,,,,,,,,,,,,,,,,,,,,,,,,,,,,,,,,,,,,,,,,
,,?,0.000995,0,,,,,,stimuli/images/PICTURE_449.png,THING,5bd45c509afb5b00015c48f4,08/21/1953,2020-09-09_23h30.15.516,proactive2,2020.1.2,Win32,60,5f5126bb654d4b30ee6923d8,5f599cdc1d8a3c1ff286b5ab,3,,,,,,bench,,,,,,,,,,,6,0,0,48,48,59,1,,,,,,,,,,,,,,,,,,,,,,,,,,,,,,,,,,,,,,,,,,,,,,,,,,,,,,,,,,,,,,,,,,,,,,,,,,,,,,,,,,,,,,,,,,,,,,
,,?,0.00095,0,,,,,,stimuli/images/PICTURE_491.png,WRITER,5bd45c509afb5b00015c48f4,08/21/1953,2020-09-09_23h30.15.516,proactive2,2020.1.2,Win32,60,5f5126bb654d4b30ee6923d8,5f599cdc1d8a3c1ff286b5ab,3,,,,,,rug,,,,,,,,,,,6,0,0,49,49,57,1,,,,,,,,,,,,,,,,,,,,,,,,,,,,,,,,,,,,,,,,,,,,,,,,,,,,,,,,,,,,,,,,,,,,,,,,,,,,,,,,,,,,,,,,,,,,,,
,,?,0.00107,0,,,,,,stimuli/images/PICTURE_677.png,MILE,5bd45c509afb5b00015c48f4,08/21/1953,2020-09-09_23h30.15.516,proactive2,2020.1.2,Win32,60,5f5126bb654d4b30ee6923d8,5f599cdc1d8a3c1ff286b5ab,3,,,,,,map,,,,,,,,,,,4,0,0,50,50,30,1,,,,,,,,,,,,,,,,,,,,,,,,,,,,,,,,,,,,,,,,,,,,,,,,,,,,,,,,,,,,,,,,,,,,,,,,,,,,,,,,,,,,,,,,,,,,,,
,,?,0.001175,0,,,,,,stimuli/images/PICTURE_339.png,PLENTY,5bd45c509afb5b00015c48f4,08/21/1953,2020-09-09_23h30.15.516,proactive2,2020.1.2,Win32,60,5f5126bb654d4b30ee6923d8,5f599cdc1d8a3c1ff286b5ab,3,,,,,,backpack,,,,,,,,,,,1,0,0,51,51,0,1,,,,,,,,,,,,,,,,,,,,,,,,,,,,,,,,,,,,,,,,,,,,,,,,,,,,,,,,,,,,,,,,,,,,,,,,,,,,,,,,,,,,,,,,,,,,,,
,,?,0.000935,0,,,,,,stimuli/images/PICTURE_85.png,THING,5bd45c509afb5b00015c48f4,08/21/1953,2020-09-09_23h30.15.516,proactive2,2020.1.2,Win32,60,5f5126bb654d4b30ee6923d8,5f599cdc1d8a3c1ff286b5ab,3,,,,,,diamond,,,,,,,,,,,2,0,0,52,52,15,1,,,,,,,,,,,,,,,,,,,,,,,,,,,,,,,,,,,,,,,,,,,,,,,,,,,,,,,,,,,,,,,,,,,,,,,,,,,,,,,,,,,,,,,,,,,,,,
,,?,0.00098,0,,,,,,stimuli/images/PICTURE_708.png,PENNY,5bd45c509afb5b00015c48f4,08/21/1953,2020-09-09_23h30.15.516,proactive2,2020.1.2,Win32,60,5f5126bb654d4b30ee6923d8,5f599cdc1d8a3c1ff286b5ab,3,,,,,,monkey,,,,,,,,,,,4,0,0,53,53,31,1,,,,,,,,,,,,,,,,,,,,,,,,,,,,,,,,,,,,,,,,,,,,,,,,,,,,,,,,,,,,,,,,,,,,,,,,,,,,,,,,,,,,,,,,,,,,,,
,,?,0.00103,0,,,,,,stimuli/images/PICTURE_327.png,BEAUTY,5bd45c509afb5b00015c48f4,08/21/1953,2020-09-09_23h30.15.516,proactive2,2020.1.2,Win32,60,5f5126bb654d4b30ee6923d8,5f599cdc1d8a3c1ff286b5ab,3,,,,,,helmet,,,,,,,,,,,5,0,0,54,54,48,1,,,,,,,,,,,,,,,,,,,,,,,,,,,,,,,,,,,,,,,,,,,,,,,,,,,,,,,,,,,,,,,,,,,,,,,,,,,,,,,,,,,,,,,,,,,,,,
,,?,0.001175,0,,,,,,stimuli/images/PICTURE_311.png,BEAUTY,5bd45c509afb5b00015c48f4,08/21/1953,2020-09-09_23h30.15.516,proactive2,2020.1.2,Win32,60,5f5126bb654d4b30ee6923d8,5f599cdc1d8a3c1ff286b5ab,3,,,,,,razor,,,,,,,,,,,2,0,0,55,55,13,1,,,,,,,,,,,,,,,,,,,,,,,,,,,,,,,,,,,,,,,,,,,,,,,,,,,,,,,,,,,,,,,,,,,,,,,,,,,,,,,,,,,,,,,,,,,,,,
,,?,5.826365,0,,,,,,stimuli/images/PICTURE_467.png,DEMON,5bd45c509afb5b00015c48f4,08/21/1953,2020-09-09_23h30.15.516,proactive2,2020.1.2,Win32,60,5f5126bb654d4b30ee6923d8,5f599cdc1d8a3c1ff286b5ab,3,,,,,,peg,,,,,,,,,,,3,0,0,56,56,23,1,,,,,,,,,,,,,,,,,,,,,,,,,,,,,,,,,,,,,,,,,,,,,,,,,,,,,,,,,,,,,,,,,,,,,,,,,,,,,,,,,,,,,,,,,,,,,,
,,?,0.0013,0,,,,,,stimuli/images/PICTURE_160.png,FEET,5bd45c509afb5b00015c48f4,08/21/1953,2020-09-09_23h30.15.516,proactive2,2020.1.2,Win32,60,5f5126bb654d4b30ee6923d8,5f599cdc1d8a3c1ff286b5ab,3,,,,,,wheelbarrow,,,,,,,,,,,6,0,0,57,57,58,1,,,,,,,,,,,,,,,,,,,,,,,,,,,,,,,,,,,,,,,,,,,,,,,,,,,,,,,,,,,,,,,,,,,,,,,,,,,,,,,,,,,,,,,,,,,,,,
,,?,0.00092,0,,,,,,stimuli/images/PICTURE_675.png,WEAPON,5bd45c509afb5b00015c48f4,08/21/1953,2020-09-09_23h30.15.516,proactive2,2020.1.2,Win32,60,5f5126bb654d4b30ee6923d8,5f599cdc1d8a3c1ff286b5ab,3,,,,,,windmill,,,,,,,,,,,4,0,0,58,58,32,1,,,,,,,,,,,,,,,,,,,,,,,,,,,,,,,,,,,,,,,,,,,,,,,,,,,,,,,,,,,,,,,,,,,,,,,,,,,,,,,,,,,,,,,,,,,,,,
,,PHOTO,7.15703,0,,,,,,stimuli/images/PICTURE_203.png,ARTIST,5bd45c509afb5b00015c48f4,08/21/1953,2020-09-09_23h30.15.516,proactive2,2020.1.2,Win32,60,5f5126bb654d4b30ee6923d8,5f599cdc1d8a3c1ff286b5ab,3,,,,,,cap,,,,,,,,,,,3,0,0,59,59,26,1,,,,,,,,,,,,,,,,,,,,,,,,,,,,,,,,,,,,,,,,,,,,,,,,,,,,,,,,,,,,,,,,,,,,,,,,,,,,,,,,,,,,,,,,,,,,,,
,,,,,,,,,,,,5bd45c509afb5b00015c48f4,08/21/1953,2020-09-09_23h30.15.516,proactive2,2020.1.2,Win32,60,5f5126bb654d4b30ee6923d8,5f599cdc1d8a3c1ff286b5ab,3,,,,,,,,,,,,,,,,,,,,,,,,0,0,0,0,1,stimuli/learn-block1.csv,,,,,,,,,,,,,,,,,,,,,,,,,,,,,,,,,,,,,,,,,,,,,,,,,,,,,,,,,,,,,,,,,,,,,,,,,,,,,,,,,,,,,,,,
,,,,,,,,,,stimuli/images/PICTURE_18.png,RIVER,5bd45c509afb5b00015c48f4,08/21/1953,2020-09-09_23h30.15.516,proactive2,2020.1.2,Win32,60,5f5126bb654d4b30ee6923d8,5f599cdc1d8a3c1ff286b5ab,3,,,,,,planet,,,,,,0,0,0,22,1,3,2,,,,,,,,,,,,,,,,,,,,,,,,,,,,,,,,,,,,,,,,,,,,,,,,,,,,,,,,,,,,,,,,,,,,,,,,,,,,,,,,,,,,,,,,,,,,,,,,,,,
,,,,,,,,,,stimuli/images/PICTURE_348.png,TOILET,5bd45c509afb5b00015c48f4,08/21/1953,2020-09-09_23h30.15.516,proactive2,2020.1.2,Win32,60,5f5126bb654d4b30ee6923d8,5f599cdc1d8a3c1ff286b5ab,3,,,,,,pepper,,,,,,0,1,1,4,1,1,2,,,,,,,,,,,,,,,,,,,,,,,,,,,,,,,,,,,,,,,,,,,,,,,,,,,,,,,,,,,,,,,,,,,,,,,,,,,,,,,,,,,,,,,,,,,,,,,,,,,
,,,,,,,,,,stimuli/images/PICTURE_491.png,SERIES,5bd45c509afb5b00015c48f4,08/21/1953,2020-09-09_23h30.15.516,proactive2,2020.1.2,Win32,60,5f5126bb654d4b30ee6923d8,5f599cdc1d8a3c1ff286b5ab,3,,,,,,rug,,,,,,0,2,2,39,1,4,2,,,,,,,,,,,,,,,,,,,,,,,,,,,,,,,,,,,,,,,,,,,,,,,,,,,,,,,,,,,,,,,,,,,,,,,,,,,,,,,,,,,,,,,,,,,,,,,,,,,
,,,,,,,,,,stimuli/images/PICTURE_452.png,COPS,5bd45c509afb5b00015c48f4,08/21/1953,2020-09-09_23h30.15.516,proactive2,2020.1.2,Win32,60,5f5126bb654d4b30ee6923d8,5f599cdc1d8a3c1ff286b5ab,3,,,,,,watch,,,,,,0,3,3,0,1,1,2,,,,,,,,,,,,,,,,,,,,,,,,,,,,,,,,,,,,,,,,,,,,,,,,,,,,,,,,,,,,,,,,,,,,,,,,,,,,,,,,,,,,,,,,,,,,,,,,,,,
,,,,,,,,,,stimuli/images/PICTURE_405.png,JUNGLE,5bd45c509afb5b00015c48f4,08/21/1953,2020-09-09_23h30.15.516,proactive2,2020.1.2,Win32,60,5f5126bb654d4b30ee6923d8,5f599cdc1d8a3c1ff286b5ab,3,,,,,,anchor,,,,,,0,4,4,58,1,6,2,,,,,,,,,,,,,,,,,,,,,,,,,,,,,,,,,,,,,,,,,,,,,,,,,,,,,,,,,,,,,,,,,,,,,,,,,,,,,,,,,,,,,,,,,,,,,,,,,,,
,,,,,,,,,,stimuli/images/PICTURE_708.png,VALLEY,5bd45c509afb5b00015c48f4,08/21/1953,2020-09-09_23h30.15.516,proactive2,2020.1.2,Win32,60,5f5126bb654d4b30ee6923d8,5f599cdc1d8a3c1ff286b5ab,3,,,,,,monkey,,,,,,0,5,5,45,1,5,2,,,,,,,,,,,,,,,,,,,,,,,,,,,,,,,,,,,,,,,,,,,,,,,,,,,,,,,,,,,,,,,,,,,,,,,,,,,,,,,,,,,,,,,,,,,,,,,,,,,
,,,,,,,,,,stimuli/images/PICTURE_208.png,SPIRIT,5bd45c509afb5b00015c48f4,08/21/1953,2020-09-09_23h30.15.516,proactive2,2020.1.2,Win32,60,5f5126bb654d4b30ee6923d8,5f599cdc1d8a3c1ff286b5ab,3,,,,,,microphone,,,,,,0,6,6,28,1,3,2,,,,,,,,,,,,,,,,,,,,,,,,,,,,,,,,,,,,,,,,,,,,,,,,,,,,,,,,,,,,,,,,,,,,,,,,,,,,,,,,,,,,,,,,,,,,,,,,,,,
,,,,,,,,,,stimuli/images/PICTURE_95.png,NIGHT,5bd45c509afb5b00015c48f4,08/21/1953,2020-09-09_23h30.15.516,proactive2,2020.1.2,Win32,60,5f5126bb654d4b30ee6923d8,5f599cdc1d8a3c1ff286b5ab,3,,,,,,suitcase,,,,,,0,7,7,37,1,4,2,,,,,,,,,,,,,,,,,,,,,,,,,,,,,,,,,,,,,,,,,,,,,,,,,,,,,,,,,,,,,,,,,,,,,,,,,,,,,,,,,,,,,,,,,,,,,,,,,,,
,,,,,,,,,,stimuli/images/PICTURE_677.png,FAMILY,5bd45c509afb5b00015c48f4,08/21/1953,2020-09-09_23h30.15.516,proactive2,2020.1.2,Win32,60,5f5126bb654d4b30ee6923d8,5f599cdc1d8a3c1ff286b5ab,3,,,,,,map,,,,,,0,8,8,53,1,6,2,,,,,,,,,,,,,,,,,,,,,,,,,,,,,,,,,,,,,,,,,,,,,,,,,,,,,,,,,,,,,,,,,,,,,,,,,,,,,,,,,,,,,,,,,,,,,,,,,,,
,,,,,,,,,,stimuli/images/PICTURE_2.png,AREA,5bd45c509afb5b00015c48f4,08/21/1953,2020-09-09_23h30.15.516,proactive2,2020.1.2,Win32,60,5f5126bb654d4b30ee6923d8,5f599cdc1d8a3c1ff286b5ab,3,,,,,,tyre,,,,,,0,9,9,32,1,4,2,,,,,,,,,,,,,,,,,,,,,,,,,,,,,,,,,,,,,,,,,,,,,,,,,,,,,,,,,,,,,,,,,,,,,,,,,,,,,,,,,,,,,,,,,,,,,,,,,,,
,,,,,,,,,,stimuli/images/PICTURE_509.png,BATH,5bd45c509afb5b00015c48f4,08/21/1953,2020-09-09_23h30.15.516,proactive2,2020.1.2,Win32,60,5f5126bb654d4b30ee6923d8,5f599cdc1d8a3c1ff286b5ab,3,,,,,,telephone,,,,,,0,10,10,15,1,2,2,,,,,,,,,,,,,,,,,,,,,,,,,,,,,,,,,,,,,,,,,,,,,,,,,,,,,,,,,,,,,,,,,,,,,,,,,,,,,,,,,,,,,,,,,,,,,,,,,,,
,,,,,,,,,,stimuli/images/PICTURE_509.png,SHOTS,5bd45c509afb5b00015c48f4,08/21/1953,2020-09-09_23h30.15.516,proactive2,2020.1.2,Win32,60,5f5126bb654d4b30ee6923d8,5f599cdc1d8a3c1ff286b5ab,3,,,,,,telephone,,,,,,0,11,11,7,1,1,2,,,,,,,,,,,,,,,,,,,,,,,,,,,,,,,,,,,,,,,,,,,,,,,,,,,,,,,,,,,,,,,,,,,,,,,,,,,,,,,,,,,,,,,,,,,,,,,,,,,
,,,,,,,,,,stimuli/images/PICTURE_2.png,YARD,5bd45c509afb5b00015c48f4,08/21/1953,2020-09-09_23h30.15.516,proactive2,2020.1.2,Win32,60,5f5126bb654d4b30ee6923d8,5f599cdc1d8a3c1ff286b5ab,3,,,,,,tyre,,,,,,0,12,12,55,1,6,2,,,,,,,,,,,,,,,,,,,,,,,,,,,,,,,,,,,,,,,,,,,,,,,,,,,,,,,,,,,,,,,,,,,,,,,,,,,,,,,,,,,,,,,,,,,,,,,,,,,
,,,,,,,,,,stimuli/images/PICTURE_255.png,PENNY,5bd45c509afb5b00015c48f4,08/21/1953,2020-09-09_23h30.15.516,proactive2,2020.1.2,Win32,60,5f5126bb654d4b30ee6923d8,5f599cdc1d8a3c1ff286b5ab,3,,,,,,shovel,,,,,,0,13,13,19,1,2,2,,,,,,,,,,,,,,,,,,,,,,,,,,,,,,,,,,,,,,,,,,,,,,,,,,,,,,,,,,,,,,,,,,,,,,,,,,,,,,,,,,,,,,,,,,,,,,,,,,,
,,,,,,,,,,stimuli/images/PICTURE_285.png,PRINCE,5bd45c509afb5b00015c48f4,08/21/1953,2020-09-09_23h30.15.516,proactive2,2020.1.2,Win32,60,5f5126bb654d4b30ee6923d8,5f599cdc1d8a3c1ff286b5ab,3,,,,,,carrot,,,,,,0,14,14,20,1,3,2,,,,,,,,,,,,,,,,,,,,,,,,,,,,,,,,,,,,,,,,,,,,,,,,,,,,,,,,,,,,,,,,,,,,,,,,,,,,,,,,,,,,,,,,,,,,,,,,,,,
,,,,,,,,,,stimuli/images/PICTURE_356.png,CANDY,5bd45c509afb5b00015c48f4,08/21/1953,2020-09-09_23h30.15.516,proactive2,2020.1.2,Win32,60,5f5126bb654d4b30ee6923d8,5f599cdc1d8a3c1ff286b5ab,3,,,,,,pawn,,,,,,0,15,15,46,1,5,2,,,,,,,,,,,,,,,,,,,,,,,,,,,,,,,,,,,,,,,,,,,,,,,,,,,,,,,,,,,,,,,,,,,,,,,,,,,,,,,,,,,,,,,,,,,,,,,,,,,
,,,,,,,,,,stimuli/images/PICTURE_57.png,CANDY,5bd45c509afb5b00015c48f4,08/21/1953,2020-09-09_23h30.15.516,proactive2,2020.1.2,Win32,60,5f5126bb654d4b30ee6923d8,5f599cdc1d8a3c1ff286b5ab,3,,,,,,stamp,,,,,,0,16,16,52,1,6,2,,,,,,,,,,,,,,,,,,,,,,,,,,,,,,,,,,,,,,,,,,,,,,,,,,,,,,,,,,,,,,,,,,,,,,,,,,,,,,,,,,,,,,,,,,,,,,,,,,,
,,,,,,,,,,stimuli/images/PICTURE_285.png,WRITER,5bd45c509afb5b00015c48f4,08/21/1953,2020-09-09_23h30.15.516,proactive2,2020.1.2,Win32,60,5f5126bb654d4b30ee6923d8,5f599cdc1d8a3c1ff286b5ab,3,,,,,,carrot,,,,,,0,17,17,6,1,1,2,,,,,,,,,,,,,,,,,,,,,,,,,,,,,,,,,,,,,,,,,,,,,,,,,,,,,,,,,,,,,,,,,,,,,,,,,,,,,,,,,,,,,,,,,,,,,,,,,,,
,,,,,,,,,,stimuli/images/PICTURE_405.png,JUNGLE,5bd45c509afb5b00015c48f4,08/21/1953,2020-09-09_23h30.15.516,proactive2,2020.1.2,Win32,60,5f5126bb654d4b30ee6923d8,5f599cdc1d8a3c1ff286b5ab,3,,,,,,anchor,,,,,,0,18,18,13,1,2,2,,,,,,,,,,,,,,,,,,,,,,,,,,,,,,,,,,,,,,,,,,,,,,,,,,,,,,,,,,,,,,,,,,,,,,,,,,,,,,,,,,,,,,,,,,,,,,,,,,,
,,,,,,,,,,stimuli/images/PICTURE_564.png,PLENTY,5bd45c509afb5b00015c48f4,08/21/1953,2020-09-09_23h30.15.516,proactive2,2020.1.2,Win32,60,5f5126bb654d4b30ee6923d8,5f599cdc1d8a3c1ff286b5ab,3,,,,,,spoon,,,,,,0,19,19,11,1,2,2,,,,,,,,,,,,,,,,,,,,,,,,,,,,,,,,,,,,,,,,,,,,,,,,,,,,,,,,,,,,,,,,,,,,,,,,,,,,,,,,,,,,,,,,,,,,,,,,,,,
,,,,,,,,,,stimuli/images/PICTURE_327.png,LEADER,5bd45c509afb5b00015c48f4,08/21/1953,2020-09-09_23h30.15.516,proactive2,2020.1.2,Win32,60,5f5126bb654d4b30ee6923d8,5f599cdc1d8a3c1ff286b5ab,3,,,,,,helmet,,,,,,0,20,20,17,1,2,2,,,,,,,,,,,,,,,,,,,,,,,,,,,,,,,,,,,,,,,,,,,,,,,,,,,,,,,,,,,,,,,,,,,,,,,,,,,,,,,,,,,,,,,,,,,,,,,,,,,
,,,,,,,,,,stimuli/images/PICTURE_654.png,COPS,5bd45c509afb5b00015c48f4,08/21/1953,2020-09-09_23h30.15.516,proactive2,2020.1.2,Win32,60,5f5126bb654d4b30ee6923d8,5f599cdc1d8a3c1ff286b5ab,3,,,,,,pencil,,,,,,0,21,21,10,1,2,2,,,,,,,,,,,,,,,,,,,,,,,,,,,,,,,,,,,,,,,,,,,,,,,,,,,,,,,,,,,,,,,,,,,,,,,,,,,,,,,,,,,,,,,,,,,,,,,,,,,
,,,,,,,,,,stimuli/images/PICTURE_215.png,BOYS,5bd45c509afb5b00015c48f4,08/21/1953,2020-09-09_23h30.15.516,proactive2,2020.1.2,Win32,60,5f5126bb654d4b30ee6923d8,5f599cdc1d8a3c1ff286b5ab,3,,,,,,boot,,,,,,0,22,22,24,1,3,2,,,,,,,,,,,,,,,,,,,,,,,,,,,,,,,,,,,,,,,,,,,,,,,,,,,,,,,,,,,,,,,,,,,,,,,,,,,,,,,,,,,,,,,,,,,,,,,,,,,
,,,,,,,,,,stimuli/images/PICTURE_470.png,MOMENT,5bd45c509afb5b00015c48f4,08/21/1953,2020-09-09_23h30.15.516,proactive2,2020.1.2,Win32,60,5f5126bb654d4b30ee6923d8,5f599cdc1d8a3c1ff286b5ab,3,,,,,,motorbike,,,,,,0,23,23,40,1,5,2,,,,,,,,,,,,,,,,,,,,,,,,,,,,,,,,,,,,,,,,,,,,,,,,,,,,,,,,,,,,,,,,,,,,,,,,,,,,,,,,,,,,,,,,,,,,,,,,,,,
,,,,,,,,,,stimuli/images/PICTURE_692.png,DUDE,5bd45c509afb5b00015c48f4,08/21/1953,2020-09-09_23h30.15.516,proactive2,2020.1.2,Win32,60,5f5126bb654d4b30ee6923d8,5f599cdc1d8a3c1ff286b5ab,3,,,,,,cherry,,,,,,0,24,24,47,1,5,2,,,,,,,,,,,,,,,,,,,,,,,,,,,,,,,,,,,,,,,,,,,,,,,,,,,,,,,,,,,,,,,,,,,,,,,,,,,,,,,,,,,,,,,,,,,,,,,,,,,
,,,,,,,,,,stimuli/images/PICTURE_314.png,SPEECH,5bd45c509afb5b00015c48f4,08/21/1953,2020-09-09_23h30.15.516,proactive2,2020.1.2,Win32,60,5f5126bb654d4b30ee6923d8,5f599cdc1d8a3c1ff286b5ab,3,,,,,,perfume,,,,,,0,25,25,35,1,4,2,,,,,,,,,,,,,,,,,,,,,,,,,,,,,,,,,,,,,,,,,,,,,,,,,,,,,,,,,,,,,,,,,,,,,,,,,,,,,,,,,,,,,,,,,,,,,,,,,,,
,,,,,,,,,,stimuli/images/PICTURE_677.png,PHOTO,5bd45c509afb5b00015c48f4,08/21/1953,2020-09-09_23h30.15.516,proactive2,2020.1.2,Win32,60,5f5126bb654d4b30ee6923d8,5f599cdc1d8a3c1ff286b5ab,3,,,,,,map,,,,,,0,26,26,14,1,2,2,,,,,,,,,,,,,,,,,,,,,,,,,,,,,,,,,,,,,,,,,,,,,,,,,,,,,,,,,,,,,,,,,,,,,,,,,,,,,,,,,,,,,,,,,,,,,,,,,,,
,,,,,,,,,,stimuli/images/PICTURE_215.png,LEADER,5bd45c509afb5b00015c48f4,08/21/1953,2020-09-09_23h30.15.516,proactive2,2020.1.2,Win32,60,5f5126bb654d4b30ee6923d8,5f599cdc1d8a3c1ff286b5ab,3,,,,,,boot,,,,,,0,27,27,43,1,5,2,,,,,,,,,,,,,,,,,,,,,,,,,,,,,,,,,,,,,,,,,,,,,,,,,,,,,,,,,,,,,,,,,,,,,,,,,,,,,,,,,,,,,,,,,,,,,,,,,,,
,,,,,,,,,,stimuli/images/PICTURE_68.png,KIND,5bd45c509afb5b00015c48f4,08/21/1953,2020-09-09_23h30.15.516,proactive2,2020.1.2,Win32,60,5f5126bb654d4b30ee6923d8,5f599cdc1d8a3c1ff286b5ab,3,,,,,,candle,,,,,,0,28,28,23,1,3,2,,,,,,,,,,,,,,,,,,,,,,,,,,,,,,,,,,,,,,,,,,,,,,,,,,,,,,,,,,,,,,,,,,,,,,,,,,,,,,,,,,,,,,,,,,,,,,,,,,,
,,,,,,,,,,stimuli/images/PICTURE_405.png,HOUSE,5bd45c509afb5b00015c48f4,08/21/1953,2020-09-09_23h30.15.516,proactive2,2020.1.2,Win32,60,5f5126bb654d4b30ee6923d8,5f599cdc1d8a3c1ff286b5ab,3,,,,,,anchor,,,,,,0,29,29,2,1,1,2,,,,,,,,,,,,,,,,,,,,,,,,,,,,,,,,,,,,,,,,,,,,,,,,,,,,,,,,,,,,,,,,,,,,,,,,,,,,,,,,,,,,,,,,,,,,,,,,,,,
,,,,,,,,,,stimuli/images/PICTURE_509.png,MILLER,5bd45c509afb5b00015c48f4,08/21/1953,2020-09-09_23h30.15.516,proactive2,2020.1.2,Win32,60,5f5126bb654d4b30ee6923d8,5f599cdc1d8a3c1ff286b5ab,3,,,,,,telephone,,,,,,0,30,30,49,1,5,2,,,,,,,,,,,,,,,,,,,,,,,,,,,,,,,,,,,,,,,,,,,,,,,,,,,,,,,,,,,,,,,,,,,,,,,,,,,,,,,,,,,,,,,,,,,,,,,,,,,
,,,,,,,,,,stimuli/images/PICTURE_654.png,YEAR,5bd45c509afb5b00015c48f4,08/21/1953,2020-09-09_23h30.15.516,proactive2,2020.1.2,Win32,60,5f5126bb654d4b30ee6923d8,5f599cdc1d8a3c1ff286b5ab,3,,,,,,pencil,,,,,,0,31,31,41,1,5,2,,,,,,,,,,,,,,,,,,,,,,,,,,,,,,,,,,,,,,,,,,,,,,,,,,,,,,,,,,,,,,,,,,,,,,,,,,,,,,,,,,,,,,,,,,,,,,,,,,,
,,,,,,,,,,stimuli/images/PICTURE_57.png,NATION,5bd45c509afb5b00015c48f4,08/21/1953,2020-09-09_23h30.15.516,proactive2,2020.1.2,Win32,60,5f5126bb654d4b30ee6923d8,5f599cdc1d8a3c1ff286b5ab,3,,,,,,stamp,,,,,,0,32,32,21,1,3,2,,,,,,,,,,,,,,,,,,,,,,,,,,,,,,,,,,,,,,,,,,,,,,,,,,,,,,,,,,,,,,,,,,,,,,,,,,,,,,,,,,,,,,,,,,,,,,,,,,,
,,,,,,,,,,stimuli/images/PICTURE_487.png,ROOF,5bd45c509afb5b00015c48f4,08/21/1953,2020-09-09_23h30.15.516,proactive2,2020.1.2,Win32,60,5f5126bb654d4b30ee6923d8,5f599cdc1d8a3c1ff286b5ab,3,,,,,,basket,,,,,,0,33,33,50,1,6,2,,,,,,,,,,,,,,,,,,,,,,,,,,,,,,,,,,,,,,,,,,,,,,,,,,,,,,,,,,,,,,,,,,,,,,,,,,,,,,,,,,,,,,,,,,,,,,,,,,,
,,,,,,,,,,stimuli/images/PICTURE_470.png,BEAUTY,5bd45c509afb5b00015c48f4,08/21/1953,2020-09-09_23h30.15.516,proactive2,2020.1.2,Win32,60,5f5126bb654d4b30ee6923d8,5f599cdc1d8a3c1ff286b5ab,3,,,,,,motorbike,,,,,,0,34,34,26,1,3,2,,,,,,,,,,,,,,,,,,,,,,,,,,,,,,,,,,,,,,,,,,,,,,,,,,,,,,,,,,,,,,,,,,,,,,,,,,,,,,,,,,,,,,,,,,,,,,,,,,,
,,,,,,,,,,stimuli/images/PICTURE_667.png,GLASS,5bd45c509afb5b00015c48f4,08/21/1953,2020-09-09_23h30.15.516,proactive2,2020.1.2,Win32,60,5f5126bb654d4b30ee6923d8,5f599cdc1d8a3c1ff286b5ab,3,,,,,,daisy,,,,,,0,35,35,27,1,3,2,,,,,,,,,,,,,,,,,,,,,,,,,,,,,,,,,,,,,,,,,,,,,,,,,,,,,,,,,,,,,,,,,,,,,,,,,,,,,,,,,,,,,,,,,,,,,,,,,,,
,,,,,,,,,,stimuli/images/PICTURE_123.png,SALE,5bd45c509afb5b00015c48f4,08/21/1953,2020-09-09_23h30.15.516,proactive2,2020.1.2,Win32,60,5f5126bb654d4b30ee6923d8,5f599cdc1d8a3c1ff286b5ab,3,,,,,,dart,,,,,,0,36,36,8,1,1,2,,,,,,,,,,,,,,,,,,,,,,,,,,,,,,,,,,,,,,,,,,,,,,,,,,,,,,,,,,,,,,,,,,,,,,,,,,,,,,,,,,,,,,,,,,,,,,,,,,,
,,,,,,,,,,stimuli/images/PICTURE_33.png,COPS,5bd45c509afb5b00015c48f4,08/21/1953,2020-09-09_23h30.15.516,proactive2,2020.1.2,Win32,60,5f5126bb654d4b30ee6923d8,5f599cdc1d8a3c1ff286b5ab,3,,,,,,frame,,,,,,0,37,37,29,1,3,2,,,,,,,,,,,,,,,,,,,,,,,,,,,,,,,,,,,,,,,,,,,,,,,,,,,,,,,,,,,,,,,,,,,,,,,,,,,,,,,,,,,,,,,,,,,,,,,,,,,
,,,,,,,,,,stimuli/images/PICTURE_348.png,DUDE,5bd45c509afb5b00015c48f4,08/21/1953,2020-09-09_23h30.15.516,proactive2,2020.1.2,Win32,60,5f5126bb654d4b30ee6923d8,5f599cdc1d8a3c1ff286b5ab,3,,,,,,pepper,,,,,,0,38,38,59,1,6,2,,,,,,,,,,,,,,,,,,,,,,,,,,,,,,,,,,,,,,,,,,,,,,,,,,,,,,,,,,,,,,,,,,,,,,,,,,,,,,,,,,,,,,,,,,,,,,,,,,,
,,,,,,,,,,stimuli/images/PICTURE_160.png,HOTEL,5bd45c509afb5b00015c48f4,08/21/1953,2020-09-09_23h30.15.516,proactive2,2020.1.2,Win32,60,5f5126bb654d4b30ee6923d8,5f599cdc1d8a3c1ff286b5ab,3,,,,,,wheelbarrow,,,,,,0,39,39,16,1,2,2,,,,,,,,,,,,,,,,,,,,,,,,,,,,,,,,,,,,,,,,,,,,,,,,,,,,,,,,,,,,,,,,,,,,,,,,,,,,,,,,,,,,,,,,,,,,,,,,,,,
,,,,,,,,,,stimuli/images/PICTURE_487.png,POLICY,5bd45c509afb5b00015c48f4,08/21/1953,2020-09-09_23h30.15.516,proactive2,2020.1.2,Win32,60,5f5126bb654d4b30ee6923d8,5f599cdc1d8a3c1ff286b5ab,3,,,,,,basket,,,,,,0,40,40,34,1,4,2,,,,,,,,,,,,,,,,,,,,,,,,,,,,,,,,,,,,,,,,,,,,,,,,,,,,,,,,,,,,,,,,,,,,,,,,,,,,,,,,,,,,,,,,,,,,,,,,,,,
,,,,,,,,,,stimuli/images/PICTURE_2.png,JUNGLE,5bd45c509afb5b00015c48f4,08/21/1953,2020-09-09_23h30.15.516,proactive2,2020.1.2,Win32,60,5f5126bb654d4b30ee6923d8,5f599cdc1d8a3c1ff286b5ab,3,,,,,,tyre,,,,,,0,41,41,1,1,1,2,,,,,,,,,,,,,,,,,,,,,,,,,,,,,,,,,,,,,,,,,,,,,,,,,,,,,,,,,,,,,,,,,,,,,,,,,,,,,,,,,,,,,,,,,,,,,,,,,,,
,,,,,,,,,,stimuli/images/PICTURE_141.png,CLIENT,5bd45c509afb5b00015c48f4,08/21/1953,2020-09-09_23h30.15.516,proactive2,2020.1.2,Win32,60,5f5126bb654d4b30ee6923d8,5f599cdc1d8a3c1ff286b5ab,3,,,,,,sunflower,,,,,,0,42,42,30,1,4,2,,,,,,,,,,,,,,,,,,,,,,,,,,,,,,,,,,,,,,,,,,,,,,,,,,,,,,,,,,,,,,,,,,,,,,,,,,,,,,,,,,,,,,,,,,,,,,,,,,,
,,,,,,,,,,stimuli/images/PICTURE_147.png,LEADER,5bd45c509afb5b00015c48f4,08/21/1953,2020-09-09_23h30.15.516,proactive2,2020.1.2,Win32,60,5f5126bb654d4b30ee6923d8,5f599cdc1d8a3c1ff286b5ab,3,,,,,,hanger,,,,,,0,43,43,33,1,4,2,,,,,,,,,,,,,,,,,,,,,,,,,,,,,,,,,,,,,,,,,,,,,,,,,,,,,,,,,,,,,,,,,,,,,,,,,,,,,,,,,,,,,,,,,,,,,,,,,,,
,,,,,,,,,,stimuli/images/PICTURE_504.png,HOUSE,5bd45c509afb5b00015c48f4,08/21/1953,2020-09-09_23h30.15.516,proactive2,2020.1.2,Win32,60,5f5126bb654d4b30ee6923d8,5f599cdc1d8a3c1ff286b5ab,3,,,,,,wheel,,,,,,0,44,44,36,1,4,2,,,,,,,,,,,,,,,,,,,,,,,,,,,,,,,,,,,,,,,,,,,,,,,,,,,,,,,,,,,,,,,,,,,,,,,,,,,,,,,,,,,,,,,,,,,,,,,,,,,
,,,,,,,,,,stimuli/images/PICTURE_57.png,CASINO,5bd45c509afb5b00015c48f4,08/21/1953,2020-09-09_23h30.15.516,proactive2,2020.1.2,Win32,60,5f5126bb654d4b30ee6923d8,5f599cdc1d8a3c1ff286b5ab,3,,,,,,stamp,,,,,,0,45,45,12,1,2,2,,,,,,,,,,,,,,,,,,,,,,,,,,,,,,,,,,,,,,,,,,,,,,,,,,,,,,,,,,,,,,,,,,,,,,,,,,,,,,,,,,,,,,,,,,,,,,,,,,,
,,,,,,,,,,stimuli/images/PICTURE_688.png,CLOCK,5bd45c509afb5b00015c48f4,08/21/1953,2020-09-09_23h30.15.516,proactive2,2020.1.2,Win32,60,5f5126bb654d4b30ee6923d8,5f599cdc1d8a3c1ff286b5ab,3,,,,,,runner,,,,,,0,46,46,42,1,5,2,,,,,,,,,,,,,,,,,,,,,,,,,,,,,,,,,,,,,,,,,,,,,,,,,,,,,,,,,,,,,,,,,,,,,,,,,,,,,,,,,,,,,,,,,,,,,,,,,,,
,,,,,,,,,,stimuli/images/PICTURE_32.png,LETTER,5bd45c509afb5b00015c48f4,08/21/1953,2020-09-09_23h30.15.516,proactive2,2020.1.2,Win32,60,5f5126bb654d4b30ee6923d8,5f599cdc1d8a3c1ff286b5ab,3,,,,,,crown,,,,,,0,47,47,56,1,6,2,,,,,,,,,,,,,,,,,,,,,,,,,,,,,,,,,,,,,,,,,,,,,,,,,,,,,,,,,,,,,,,,,,,,,,,,,,,,,,,,,,,,,,,,,,,,,,,,,,,
,,,,,,,,,,stimuli/images/PICTURE_311.png,TOILET,5bd45c509afb5b00015c48f4,08/21/1953,2020-09-09_23h30.15.516,proactive2,2020.1.2,Win32,60,5f5126bb654d4b30ee6923d8,5f599cdc1d8a3c1ff286b5ab,3,,,,,,razor,,,,,,0,48,48,54,1,6,2,,,,,,,,,,,,,,,,,,,,,,,,,,,,,,,,,,,,,,,,,,,,,,,,,,,,,,,,,,,,,,,,,,,,,,,,,,,,,,,,,,,,,,,,,,,,,,,,,,,
,,,,,,,,,,stimuli/images/PICTURE_177.png,HOUSE,5bd45c509afb5b00015c48f4,08/21/1953,2020-09-09_23h30.15.516,proactive2,2020.1.2,Win32,60,5f5126bb654d4b30ee6923d8,5f599cdc1d8a3c1ff286b5ab,3,,,,,,mushroom,,,,,,0,49,49,25,1,3,2,,,,,,,,,,,,,,,,,,,,,,,,,,,,,,,,,,,,,,,,,,,,,,,,,,,,,,,,,,,,,,,,,,,,,,,,,,,,,,,,,,,,,,,,,,,,,,,,,,,
,,,,,,,,,,stimuli/images/PICTURE_750.png,POLICY,5bd45c509afb5b00015c48f4,08/21/1953,2020-09-09_23h30.15.516,proactive2,2020.1.2,Win32,60,5f5126bb654d4b30ee6923d8,5f599cdc1d8a3c1ff286b5ab,3,,,,,,kettle,,,,,,0,50,50,44,1,5,2,,,,,,,,,,,,,,,,,,,,,,,,,,,,,,,,,,,,,,,,,,,,,,,,,,,,,,,,,,,,,,,,,,,,,,,,,,,,,,,,,,,,,,,,,,,,,,,,,,,
,,,,,,,,,,stimuli/images/PICTURE_93.png,GIRL,5bd45c509afb5b00015c48f4,08/21/1953,2020-09-09_23h30.15.516,proactive2,2020.1.2,Win32,60,5f5126bb654d4b30ee6923d8,5f599cdc1d8a3c1ff286b5ab,3,,,,,,skateboard,,,,,,0,51,51,31,1,4,2,,,,,,,,,,,,,,,,,,,,,,,,,,,,,,,,,,,,,,,,,,,,,,,,,,,,,,,,,,,,,,,,,,,,,,,,,,,,,,,,,,,,,,,,,,,,,,,,,,,
,,,,,,,,,,stimuli/images/PICTURE_403.png,FAMILY,5bd45c509afb5b00015c48f4,08/21/1953,2020-09-09_23h30.15.516,proactive2,2020.1.2,Win32,60,5f5126bb654d4b30ee6923d8,5f599cdc1d8a3c1ff286b5ab,3,,,,,,cathedral,,,,,,0,52,52,9,1,1,2,,,,,,,,,,,,,,,,,,,,,,,,,,,,,,,,,,,,,,,,,,,,,,,,,,,,,,,,,,,,,,,,,,,,,,,,,,,,,,,,,,,,,,,,,,,,,,,,,,,
,,,,,,,,,,stimuli/images/PICTURE_296.png,CLOCK,5bd45c509afb5b00015c48f4,08/21/1953,2020-09-09_23h30.15.516,proactive2,2020.1.2,Win32,60,5f5126bb654d4b30ee6923d8,5f599cdc1d8a3c1ff286b5ab,3,,,,,,bolt,,,,,,0,53,53,18,1,2,2,,,,,,,,,,,,,,,,,,,,,,,,,,,,,,,,,,,,,,,,,,,,,,,,,,,,,,,,,,,,,,,,,,,,,,,,,,,,,,,,,,,,,,,,,,,,,,,,,,,
,,,,,,,,,,stimuli/images/PICTURE_453.png,FAMILY,5bd45c509afb5b00015c48f4,08/21/1953,2020-09-09_23h30.15.516,proactive2,2020.1.2,Win32,60,5f5126bb654d4b30ee6923d8,5f599cdc1d8a3c1ff286b5ab,3,,,,,,scissors,,,,,,0,54,54,48,1,5,2,,,,,,,,,,,,,,,,,,,,,,,,,,,,,,,,,,,,,,,,,,,,,,,,,,,,,,,,,,,,,,,,,,,,,,,,,,,,,,,,,,,,,,,,,,,,,,,,,,,
,,,,,,,,,,stimuli/images/PICTURE_655.png,SALE,5bd45c509afb5b00015c48f4,08/21/1953,2020-09-09_23h30.15.516,proactive2,2020.1.2,Win32,60,5f5126bb654d4b30ee6923d8,5f599cdc1d8a3c1ff286b5ab,3,,,,,,megaphone,,,,,,0,55,55,57,1,6,2,,,,,,,,,,,,,,,,,,,,,,,,,,,,,,,,,,,,,,,,,,,,,,,,,,,,,,,,,,,,,,,,,,,,,,,,,,,,,,,,,,,,,,,,,,,,,,,,,,,
,,,,,,,,,,stimuli/images/PICTURE_509.png,APPLE,5bd45c509afb5b00015c48f4,08/21/1953,2020-09-09_23h30.15.516,proactive2,2020.1.2,Win32,60,5f5126bb654d4b30ee6923d8,5f599cdc1d8a3c1ff286b5ab,3,,,,,,telephone,,,,,,0,56,56,38,1,4,2,,,,,,,,,,,,,,,,,,,,,,,,,,,,,,,,,,,,,,,,,,,,,,,,,,,,,,,,,,,,,,,,,,,,,,,,,,,,,,,,,,,,,,,,,,,,,,,,,,,
,,,,,,,,,,stimuli/images/PICTURE_311.png,FLESH,5bd45c509afb5b00015c48f4,08/21/1953,2020-09-09_23h30.15.516,proactive2,2020.1.2,Win32,60,5f5126bb654d4b30ee6923d8,5f599cdc1d8a3c1ff286b5ab,3,,,,,,razor,,,,,,0,57,57,3,1,1,2,,,,,,,,,,,,,,,,,,,,,,,,,,,,,,,,,,,,,,,,,,,,,,,,,,,,,,,,,,,,,,,,,,,,,,,,,,,,,,,,,,,,,,,,,,,,,,,,,,,
,,,,,,,,,,stimuli/images/PICTURE_215.png,FOOD,5bd45c509afb5b00015c48f4,08/21/1953,2020-09-09_23h30.15.516,proactive2,2020.1.2,Win32,60,5f5126bb654d4b30ee6923d8,5f599cdc1d8a3c1ff286b5ab,3,,,,,,boot,,,,,,0,58,58,5,1,1,2,,,,,,,,,,,,,,,,,,,,,,,,,,,,,,,,,,,,,,,,,,,,,,,,,,,,,,,,,,,,,,,,,,,,,,,,,,,,,,,,,,,,,,,,,,,,,,,,,,,
,,?,0.001705,0,,,,,,stimuli/images/PICTURE_750.png,POLICY,5bd45c509afb5b00015c48f4,08/21/1953,2020-09-09_23h30.15.516,proactive2,2020.1.2,Win32,60,5f5126bb654d4b30ee6923d8,5f599cdc1d8a3c1ff286b5ab,3,,,,,,kettle,,,,,,,,,,,5,2,0,0,0,44,1,,,,,,,,,,,,,,,,,,,,,,,,,,,,,,,,,,,,,,,,,,,,,,,,,,,,,,,,,,,,,,,,,,,,,,,,,,,,,,,,,,,,,,,,,,,,,,
,,?,4.24185,0,,,,,,stimuli/images/PICTURE_208.png,SPIRIT,5bd45c509afb5b00015c48f4,08/21/1953,2020-09-09_23h30.15.516,proactive2,2020.1.2,Win32,60,5f5126bb654d4b30ee6923d8,5f599cdc1d8a3c1ff286b5ab,3,,,,,,microphone,,,,,,,,,,,3,2,0,1,1,28,1,,,,,,,,,,,,,,,,,,,,,,,,,,,,,,,,,,,,,,,,,,,,,,,,,,,,,,,,,,,,,,,,,,,,,,,,,,,,,,,,,,,,,,,,,,,,,,
,,?,0.00123,0,,,,,,stimuli/images/PICTURE_2.png,AREA,5bd45c509afb5b00015c48f4,08/21/1953,2020-09-09_23h30.15.516,proactive2,2020.1.2,Win32,60,5f5126bb654d4b30ee6923d8,5f599cdc1d8a3c1ff286b5ab,3,,,,,,tyre,,,,,,,,,,,4,2,0,2,2,32,1,,,,,,,,,,,,,,,,,,,,,,,,,,,,,,,,,,,,,,,,,,,,,,,,,,,,,,,,,,,,,,,,,,,,,,,,,,,,,,,,,,,,,,,,,,,,,,
,,?,0.000925,0,,,,,,stimuli/images/PICTURE_123.png,SALE,5bd45c509afb5b00015c48f4,08/21/1953,2020-09-09_23h30.15.516,proactive2,2020.1.2,Win32,60,5f5126bb654d4b30ee6923d8,5f599cdc1d8a3c1ff286b5ab,3,,,,,,dart,,,,,,,,,,,1,2,0,3,3,8,1,,,,,,,,,,,,,,,,,,,,,,,,,,,,,,,,,,,,,,,,,,,,,,,,,,,,,,,,,,,,,,,,,,,,,,,,,,,,,,,,,,,,,,,,,,,,,,
,,?,0.001125,0,,,,,,stimuli/images/PICTURE_692.png,DUDE,5bd45c509afb5b00015c48f4,08/21/1953,2020-09-09_23h30.15.516,proactive2,2020.1.2,Win32,60,5f5126bb654d4b30ee6923d8,5f599cdc1d8a3c1ff286b5ab,3,,,,,,cherry,,,,,,,,,,,5,2,0,4,4,47,1,,,,,,,,,,,,,,,,,,,,,,,,,,,,,,,,,,,,,,,,,,,,,,,,,,,,,,,,,,,,,,,,,,,,,,,,,,,,,,,,,,,,,,,,,,,,,,
,,NATION,5.83564,1,,,,,,stimuli/images/PICTURE_57.png,NATION,5bd45c509afb5b00015c48f4,08/21/1953,2020-09-09_23h30.15.516,proactive2,2020.1.2,Win32,60,5f5126bb654d4b30ee6923d8,5f599cdc1d8a3c1ff286b5ab,3,,,,,,stamp,,,,,,,,,,,3,2,0,5,5,21,1,,,,,,,,,,,,,,,,,,,,,,,,,,,,,,,,,,,,,,,,,,,,,,,,,,,,,,,,,,,,,,,,,,,,,,,,,,,,,,,,,,,,,,,,,,,,,,
,,?,0.001165,0,,,,,,stimuli/images/PICTURE_487.png,POLICY,5bd45c509afb5b00015c48f4,08/21/1953,2020-09-09_23h30.15.516,proactive2,2020.1.2,Win32,60,5f5126bb654d4b30ee6923d8,5f599cdc1d8a3c1ff286b5ab,3,,,,,,basket,,,,,,,,,,,4,2,0,6,6,34,1,,,,,,,,,,,,,,,,,,,,,,,,,,,,,,,,,,,,,,,,,,,,,,,,,,,,,,,,,,,,,,,,,,,,,,,,,,,,,,,,,,,,,,,,,,,,,,
,,?,0.00102,0,,,,,,stimuli/images/PICTURE_655.png,SALE,5bd45c509afb5b00015c48f4,08/21/1953,2020-09-09_23h30.15.516,proactive2,2020.1.2,Win32,60,5f5126bb654d4b30ee6923d8,5f599cdc1d8a3c1ff286b5ab,3,,,,,,megaphone,,,,,,,,,,,6,2,0,7,7,57,1,,,,,,,,,,,,,,,,,,,,,,,,,,,,,,,,,,,,,,,,,,,,,,,,,,,,,,,,,,,,,,,,,,,,,,,,,,,,,,,,,,,,,,,,,,,,,,
,,?,0.001025,0,,,,,,stimuli/images/PICTURE_141.png,CLIENT,5bd45c509afb5b00015c48f4,08/21/1953,2020-09-09_23h30.15.516,proactive2,2020.1.2,Win32,60,5f5126bb654d4b30ee6923d8,5f599cdc1d8a3c1ff286b5ab,3,,,,,,sunflower,,,,,,,,,,,4,2,0,8,8,30,1,,,,,,,,,,,,,,,,,,,,,,,,,,,,,,,,,,,,,,,,,,,,,,,,,,,,,,,,,,,,,,,,,,,,,,,,,,,,,,,,,,,,,,,,,,,,,,
,,?,0.001025,0,,,,,,stimuli/images/PICTURE_296.png,CLOCK,5bd45c509afb5b00015c48f4,08/21/1953,2020-09-09_23h30.15.516,proactive2,2020.1.2,Win32,60,5f5126bb654d4b30ee6923d8,5f599cdc1d8a3c1ff286b5ab,3,,,,,,bolt,,,,,,,,,,,2,2,0,9,9,18,1,,,,,,,,,,,,,,,,,,,,,,,,,,,,,,,,,,,,,,,,,,,,,,,,,,,,,,,,,,,,,,,,,,,,,,,,,,,,,,,,,,,,,,,,,,,,,,
,,?,0.000995,0,,,,,,stimuli/images/PICTURE_453.png,FAMILY,5bd45c509afb5b00015c48f4,08/21/1953,2020-09-09_23h30.15.516,proactive2,2020.1.2,Win32,60,5f5126bb654d4b30ee6923d8,5f599cdc1d8a3c1ff286b5ab,3,,,,,,scissors,,,,,,,,,,,5,2,0,10,10,48,1,,,,,,,,,,,,,,,,,,,,,,,,,,,,,,,,,,,,,,,,,,,,,,,,,,,,,,,,,,,,,,,,,,,,,,,,,,,,,,,,,,,,,,,,,,,,,,
,,?,0.00128,0,,,,,,stimuli/images/PICTURE_215.png,FOOD,5bd45c509afb5b00015c48f4,08/21/1953,2020-09-09_23h30.15.516,proactive2,2020.1.2,Win32,60,5f5126bb654d4b30ee6923d8,5f599cdc1d8a3c1ff286b5ab,3,,,,,,boot,,,,,,,,,,,1,2,0,11,11,5,1,,,,,,,,,,,,,,,,,,,,,,,,,,,,,,,,,,,,,,,,,,,,,,,,,,,,,,,,,,,,,,,,,,,,,,,,,,,,,,,,,,,,,,,,,,,,,,
,,KIND,3.602285,1,,,,,,stimuli/images/PICTURE_68.png,KIND,5bd45c509afb5b00015c48f4,08/21/1953,2020-09-09_23h30.15.516,proactive2,2020.1.2,Win32,60,5f5126bb654d4b30ee6923d8,5f599cdc1d8a3c1ff286b5ab,3,,,,,,candle,,,,,,,,,,,3,2,0,12,12,23,1,,,,,,,,,,,,,,,,,,,,,,,,,,,,,,,,,,,,,,,,,,,,,,,,,,,,,,,,,,,,,,,,,,,,,,,,,,,,,,,,,,,,,,,,,,,,,,
,,?,0.001225,0,,,,,,stimuli/images/PICTURE_327.png,LEADER,5bd45c509afb5b00015c48f4,08/21/1953,2020-09-09_23h30.15.516,proactive2,2020.1.2,Win32,60,5f5126bb654d4b30ee6923d8,5f599cdc1d8a3c1ff286b5ab,3,,,,,,helmet,,,,,,,,,,,2,2,0,13,13,17,1,,,,,,,,,,,,,,,,,,,,,,,,,,,,,,,,,,,,,,,,,,,,,,,,,,,,,,,,,,,,,,,,,,,,,,,,,,,,,,,,,,,,,,,,,,,,,,
,,?,0.001275,0,,,,,,stimuli/images/PICTURE_708.png,VALLEY,5bd45c509afb5b00015c48f4,08/21/1953,2020-09-09_23h30.15.516,proactive2,2020.1.2,Win32,60,5f5126bb654d4b30ee6923d8,5f599cdc1d8a3c1ff286b5ab,3,,,,,,monkey,,,,,,,,,,,5,2,0,14,14,45,1,,,,,,,,,,,,,,,,,,,,,,,,,,,,,,,,,,,,,,,,,,,,,,,,,,,,,,,,,,,,,,,,,,,,,,,,,,,,,,,,,,,,,,,,,,,,,,
,,?,0.001055,0,,,,,,stimuli/images/PICTURE_487.png,ROOF,5bd45c509afb5b00015c48f4,08/21/1953,2020-09-09_23h30.15.516,proactive2,2020.1.2,Win32,60,5f5126bb654d4b30ee6923d8,5f599cdc1d8a3c1ff286b5ab,3,,,,,,basket,,,,,,,,,,,6,2,0,15,15,50,1,,,,,,,,,,,,,,,,,,,,,,,,,,,,,,,,,,,,,,,,,,,,,,,,,,,,,,,,,,,,,,,,,,,,,,,,,,,,,,,,,,,,,,,,,,,,,,
,,?,0.00097,0,,,,,,stimuli/images/PICTURE_356.png,CANDY,5bd45c509afb5b00015c48f4,08/21/1953,2020-09-09_23h30.15.516,proactive2,2020.1.2,Win32,60,5f5126bb654d4b30ee6923d8,5f599cdc1d8a3c1ff286b5ab,3,,,,,,pawn,,,,,,,,,,,5,2,0,16,16,46,1,,,,,,,,,,,,,,,,,,,,,,,,,,,,,,,,,,,,,,,,,,,,,,,,,,,,,,,,,,,,,,,,,,,,,,,,,,,,,,,,,,,,,,,,,,,,,,
,,?,0.001005,0,,,,,,stimuli/images/PICTURE_147.png,LEADER,5bd45c509afb5b00015c48f4,08/21/1953,2020-09-09_23h30.15.516,proactive2,2020.1.2,Win32,60,5f5126bb654d4b30ee6923d8,5f599cdc1d8a3c1ff286b5ab,3,,,,,,hanger,,,,,,,,,,,4,2,0,17,17,33,1,,,,,,,,,,,,,,,,,,,,,,,,,,,,,,,,,,,,,,,,,,,,,,,,,,,,,,,,,,,,,,,,,,,,,,,,,,,,,,,,,,,,,,,,,,,,,,
,,?,0.00145,0,,,,,,stimuli/images/PICTURE_311.png,TOILET,5bd45c509afb5b00015c48f4,08/21/1953,2020-09-09_23h30.15.516,proactive2,2020.1.2,Win32,60,5f5126bb654d4b30ee6923d8,5f599cdc1d8a3c1ff286b5ab,3,,,,,,razor,,,,,,,,,,,6,2,0,18,18,54,1,,,,,,,,,,,,,,,,,,,,,,,,,,,,,,,,,,,,,,,,,,,,,,,,,,,,,,,,,,,,,,,,,,,,,,,,,,,,,,,,,,,,,,,,,,,,,,
,,?,4.47309,0,,,,,,stimuli/images/PICTURE_18.png,RIVER,5bd45c509afb5b00015c48f4,08/21/1953,2020-09-09_23h30.15.516,proactive2,2020.1.2,Win32,60,5f5126bb654d4b30ee6923d8,5f599cdc1d8a3c1ff286b5ab,3,,,,,,planet,,,,,,,,,,,3,2,0,19,19,22,1,,,,,,,,,,,,,,,,,,,,,,,,,,,,,,,,,,,,,,,,,,,,,,,,,,,,,,,,,,,,,,,,,,,,,,,,,,,,,,,,,,,,,,,,,,,,,,
,,?,0.00136,0,,,,,,stimuli/images/PICTURE_255.png,PENNY,5bd45c509afb5b00015c48f4,08/21/1953,2020-09-09_23h30.15.516,proactive2,2020.1.2,Win32,60,5f5126bb654d4b30ee6923d8,5f599cdc1d8a3c1ff286b5ab,3,,,,,,shovel,,,,,,,,,,,2,2,0,20,20,19,1,,,,,,,,,,,,,,,,,,,,,,,,,,,,,,,,,,,,,,,,,,,,,,,,,,,,,,,,,,,,,,,,,,,,,,,,,,,,,,,,,,,,,,,,,,,,,,
,,?,0.000965,0,,,,,,stimuli/images/PICTURE_677.png,PHOTO,5bd45c509afb5b00015c48f4,08/21/1953,2020-09-09_23h30.15.516,proactive2,2020.1.2,Win32,60,5f5126bb654d4b30ee6923d8,5f599cdc1d8a3c1ff286b5ab,3,,,,,,map,,,,,,,,,,,2,2,0,21,21,14,1,,,,,,,,,,,,,,,,,,,,,,,,,,,,,,,,,,,,,,,,,,,,,,,,,,,,,,,,,,,,,,,,,,,,,,,,,,,,,,,,,,,,,,,,,,,,,,
,,?,0.00098,0,,,,,,stimuli/images/PICTURE_405.png,JUNGLE,5bd45c509afb5b00015c48f4,08/21/1953,2020-09-09_23h30.15.516,proactive2,2020.1.2,Win32,60,5f5126bb654d4b30ee6923d8,5f599cdc1d8a3c1ff286b5ab,3,,,,,,anchor,,,,,,,,,,,2,2,0,22,22,13,1,,,,,,,,,,,,,,,,,,,,,,,,,,,,,,,,,,,,,,,,,,,,,,,,,,,,,,,,,,,,,,,,,,,,,,,,,,,,,,,,,,,,,,,,,,,,,,
,,?,0.00103,0,,,,,,stimuli/images/PICTURE_348.png,TOILET,5bd45c509afb5b00015c48f4,08/21/1953,2020-09-09_23h30.15.516,proactive2,2020.1.2,Win32,60,5f5126bb654d4b30ee6923d8,5f599cdc1d8a3c1ff286b5ab,3,,,,,,pepper,,,,,,,,,,,1,2,0,23,23,4,1,,,,,,,,,,,,,,,,,,,,,,,,,,,,,,,,,,,,,,,,,,,,,,,,,,,,,,,,,,,,,,,,,,,,,,,,,,,,,,,,,,,,,,,,,,,,,,
,,?,0.001255,0,,,,,,stimuli/images/PICTURE_314.png,SPEECH,5bd45c509afb5b00015c48f4,08/21/1953,2020-09-09_23h30.15.516,proactive2,2020.1.2,Win32,60,5f5126bb654d4b30ee6923d8,5f599cdc1d8a3c1ff286b5ab,3,,,,,,perfume,,,,,,,,,,,4,2,0,24,24,35,1,,,,,,,,,,,,,,,,,,,,,,,,,,,,,,,,,,,,,,,,,,,,,,,,,,,,,,,,,,,,,,,,,,,,,,,,,,,,,,,,,,,,,,,,,,,,,,
,,?,0.00152,0,,,,,,stimuli/images/PICTURE_677.png,FAMILY,5bd45c509afb5b00015c48f4,08/21/1953,2020-09-09_23h30.15.516,proactive2,2020.1.2,Win32,60,5f5126bb654d4b30ee6923d8,5f599cdc1d8a3c1ff286b5ab,3,,,,,,map,,,,,,,,,,,6,2,0,25,25,53,1,,,,,,,,,,,,,,,,,,,,,,,,,,,,,,,,,,,,,,,,,,,,,,,,,,,,,,,,,,,,,,,,,,,,,,,,,,,,,,,,,,,,,,,,,,,,,,
,,?,0.000945,0,,,,,,stimuli/images/PICTURE_688.png,CLOCK,5bd45c509afb5b00015c48f4,08/21/1953,2020-09-09_23h30.15.516,proactive2,2020.1.2,Win32,60,5f5126bb654d4b30ee6923d8,5f599cdc1d8a3c1ff286b5ab,3,,,,,,runner,,,,,,,,,,,5,2,0,26,26,42,1,,,,,,,,,,,,,,,,,,,,,,,,,,,,,,,,,,,,,,,,,,,,,,,,,,,,,,,,,,,,,,,,,,,,,,,,,,,,,,,,,,,,,,,,,,,,,,
,,?,0.00103,0,,,,,,stimuli/images/PICTURE_348.png,DUDE,5bd45c509afb5b00015c48f4,08/21/1953,2020-09-09_23h30.15.516,proactive2,2020.1.2,Win32,60,5f5126bb654d4b30ee6923d8,5f599cdc1d8a3c1ff286b5ab,3,,,,,,pepper,,,,,,,,,,,6,2,0,27,27,59,1,,,,,,,,,,,,,,,,,,,,,,,,,,,,,,,,,,,,,,,,,,,,,,,,,,,,,,,,,,,,,,,,,,,,,,,,,,,,,,,,,,,,,,,,,,,,,,
,,?,0.001225,0,,,,,,stimuli/images/PICTURE_285.png,WRITER,5bd45c509afb5b00015c48f4,08/21/1953,2020-09-09_23h30.15.516,proactive2,2020.1.2,Win32,60,5f5126bb654d4b30ee6923d8,5f599cdc1d8a3c1ff286b5ab,3,,,,,,carrot,,,,,,,,,,,1,2,0,28,28,6,1,,,,,,,,,,,,,,,,,,,,,,,,,,,,,,,,,,,,,,,,,,,,,,,,,,,,,,,,,,,,,,,,,,,,,,,,,,,,,,,,,,,,,,,,,,,,,,
,,?,0.00093,0,,,,,,stimuli/images/PICTURE_405.png,HOUSE,5bd45c509afb5b00015c48f4,08/21/1953,2020-09-09_23h30.15.516,proactive2,2020.1.2,Win32,60,5f5126bb654d4b30ee6923d8,5f599cdc1d8a3c1ff286b5ab,3,,,,,,anchor,,,,,,,,,,,1,2,0,29,29,2,1,,,,,,,,,,,,,,,,,,,,,,,,,,,,,,,,,,,,,,,,,,,,,,,,,,,,,,,,,,,,,,,,,,,,,,,,,,,,,,,,,,,,,,,,,,,,,,
,,BEAUTY,4.577885,1,,,,,,stimuli/images/PICTURE_470.png,BEAUTY,5bd45c509afb5b00015c48f4,08/21/1953,2020-09-09_23h30.15.516,proactive2,2020.1.2,Win32,60,5f5126bb654d4b30ee6923d8,5f599cdc1d8a3c1ff286b5ab,3,,,,,,motorbike,,,,,,,,,,,3,2,0,30,30,26,1,,,,,,,,,,,,,,,,,,,,,,,,,,,,,,,,,,,,,,,,,,,,,,,,,,,,,,,,,,,,,,,,,,,,,,,,,,,,,,,,,,,,,,,,,,,,,,
,,?,0.00113,0,,,,,,stimuli/images/PICTURE_297.png,BODY,5bd45c509afb5b00015c48f4,08/21/1953,2020-09-09_23h30.15.516,proactive2,2020.1.2,Win32,60,5f5126bb654d4b30ee6923d8,5f599cdc1d8a3c1ff286b5ab,3,,,,,,aeroplane,,,,,,,,,,,6,2,0,31,31,51,1,,,,,,,,,,,,,,,,,,,,,,,,,,,,,,,,,,,,,,,,,,,,,,,,,,,,,,,,,,,,,,,,,,,,,,,,,,,,,,,,,,,,,,,,,,,,,,
,,?,0.00098,0,,,,,,stimuli/images/PICTURE_32.png,LETTER,5bd45c509afb5b00015c48f4,08/21/1953,2020-09-09_23h30.15.516,proactive2,2020.1.2,Win32,60,5f5126bb654d4b30ee6923d8,5f599cdc1d8a3c1ff286b5ab,3,,,,,,crown,,,,,,,,,,,6,2,0,32,32,56,1,,,,,,,,,,,,,,,,,,,,,,,,,,,,,,,,,,,,,,,,,,,,,,,,,,,,,,,,,,,,,,,,,,,,,,,,,,,,,,,,,,,,,,,,,,,,,,
,,BOYS,5.254475,1,,,,,,stimuli/images/PICTURE_215.png,BOYS,5bd45c509afb5b00015c48f4,08/21/1953,2020-09-09_23h30.15.516,proactive2,2020.1.2,Win32,60,5f5126bb654d4b30ee6923d8,5f599cdc1d8a3c1ff286b5ab,3,,,,,,boot,,,,,,,,,,,3,2,0,33,33,24,1,,,,,,,,,,,,,,,,,,,,,,,,,,,,,,,,,,,,,,,,,,,,,,,,,,,,,,,,,,,,,,,,,,,,,,,,,,,,,,,,,,,,,,,,,,,,,,
,,?,0.001385,0,,,,,,stimuli/images/PICTURE_509.png,APPLE,5bd45c509afb5b00015c48f4,08/21/1953,2020-09-09_23h30.15.516,proactive2,2020.1.2,Win32,60,5f5126bb654d4b30ee6923d8,5f599cdc1d8a3c1ff286b5ab,3,,,,,,telephone,,,,,,,,,,,4,2,0,34,34,38,1,,,,,,,,,,,,,,,,,,,,,,,,,,,,,,,,,,,,,,,,,,,,,,,,,,,,,,,,,,,,,,,,,,,,,,,,,,,,,,,,,,,,,,,,,,,,,,
,,?,0.00093,0,,,,,,stimuli/images/PICTURE_160.png,HOTEL,5bd45c509afb5b00015c48f4,08/21/1953,2020-09-09_23h30.15.516,proactive2,2020.1.2,Win32,60,5f5126bb654d4b30ee6923d8,5f599cdc1d8a3c1ff286b5ab,3,,,,,,wheelbarrow,,,,,,,,,,,2,2,0,35,35,16,1,,,,,,,,,,,,,,,,,,,,,,,,,,,,,,,,,,,,,,,,,,,,,,,,,,,,,,,,,,,,,,,,,,,,,,,,,,,,,,,,,,,,,,,,,,,,,,
,,COPS,5.571845,1,,,,,,stimuli/images/PICTURE_33.png,COPS,5bd45c509afb5b00015c48f4,08/21/1953,2020-09-09_23h30.15.516,proactive2,2020.1.2,Win32,60,5f5126bb654d4b30ee6923d8,5f599cdc1d8a3c1ff286b5ab,3,,,,,,frame,,,,,,,,,,,3,2,0,36,36,29,1,,,,,,,,,,,,,,,,,,,,,,,,,,,,,,,,,,,,,,,,,,,,,,,,,,,,,,,,,,,,,,,,,,,,,,,,,,,,,,,,,,,,,,,,,,,,,,
,,HOUSE,3.021855,1,,,,,,stimuli/images/PICTURE_177.png,HOUSE,5bd45c509afb5b00015c48f4,08/21/1953,2020-09-09_23h30.15.516,proactive2,2020.1.2,Win32,60,5f5126bb654d4b30ee6923d8,5f599cdc1d8a3c1ff286b5ab,3,,,,,,mushroom,,,,,,,,,,,3,2,0,37,37,25,1,,,,,,,,,,,,,,,,,,,,,,,,,,,,,,,,,,,,,,,,,,,,,,,,,,,,,,,,,,,,,,,,,,,,,,,,,,,,,,,,,,,,,,,,,,,,,,
,,?,0.001655,0,,,,,,stimuli/images/PICTURE_452.png,COPS,5bd45c509afb5b00015c48f4,08/21/1953,2020-09-09_23h30.15.516,proactive2,2020.1.2,Win32,60,5f5126bb654d4b30ee6923d8,5f599cdc1d8a3c1ff286b5ab,3,,,,,,watch,,,,,,,,,,,1,2,0,38,38,0,1,,,,,,,,,,,,,,,,,,,,,,,,,,,,,,,,,,,,,,,,,,,,,,,,,,,,,,,,,,,,,,,,,,,,,,,,,,,,,,,,,,,,,,,,,,,,,,
,,?,0.001485,0,,,,,,stimuli/images/PICTURE_509.png,MILLER,5bd45c509afb5b00015c48f4,08/21/1953,2020-09-09_23h30.15.516,proactive2,2020.1.2,Win32,60,5f5126bb654d4b30ee6923d8,5f599cdc1d8a3c1ff286b5ab,3,,,,,,telephone,,,,,,,,,,,5,2,0,39,39,49,1,,,,,,,,,,,,,,,,,,,,,,,,,,,,,,,,,,,,,,,,,,,,,,,,,,,,,,,,,,,,,,,,,,,,,,,,,,,,,,,,,,,,,,,,,,,,,,
,,?,0.001605,0,,,,,,stimuli/images/PICTURE_564.png,PLENTY,5bd45c509afb5b00015c48f4,08/21/1953,2020-09-09_23h30.15.516,proactive2,2020.1.2,Win32,60,5f5126bb654d4b30ee6923d8,5f599cdc1d8a3c1ff286b5ab,3,,,,,,spoon,,,,,,,,,,,2,2,0,40,40,11,1,,,,,,,,,,,,,,,,,,,,,,,,,,,,,,,,,,,,,,,,,,,,,,,,,,,,,,,,,,,,,,,,,,,,,,,,,,,,,,,,,,,,,,,,,,,,,,
,,?,0.00301,0,,,,,,stimuli/images/PICTURE_93.png,GIRL,5bd45c509afb5b00015c48f4,08/21/1953,2020-09-09_23h30.15.516,proactive2,2020.1.2,Win32,60,5f5126bb654d4b30ee6923d8,5f599cdc1d8a3c1ff286b5ab,3,,,,,,skateboard,,,,,,,,,,,4,2,0,41,41,31,1,,,,,,,,,,,,,,,,,,,,,,,,,,,,,,,,,,,,,,,,,,,,,,,,,,,,,,,,,,,,,,,,,,,,,,,,,,,,,,,,,,,,,,,,,,,,,,
,,PRINCE,4.315485,1,,,,,,stimuli/images/PICTURE_285.png,PRINCE,5bd45c509afb5b00015c48f4,08/21/1953,2020-09-09_23h30.15.516,proactive2,2020.1.2,Win32,60,5f5126bb654d4b30ee6923d8,5f599cdc1d8a3c1ff286b5ab,3,,,,,,carrot,,,,,,,,,,,3,2,0,42,42,20,1,,,,,,,,,,,,,,,,,,,,,,,,,,,,,,,,,,,,,,,,,,,,,,,,,,,,,,,,,,,,,,,,,,,,,,,,,,,,,,,,,,,,,,,,,,,,,,
,,?,0.00126,0,,,,,,stimuli/images/PICTURE_470.png,MOMENT,5bd45c509afb5b00015c48f4,08/21/1953,2020-09-09_23h30.15.516,proactive2,2020.1.2,Win32,60,5f5126bb654d4b30ee6923d8,5f599cdc1d8a3c1ff286b5ab,3,,,,,,motorbike,,,,,,,,,,,5,2,0,43,43,40,1,,,,,,,,,,,,,,,,,,,,,,,,,,,,,,,,,,,,,,,,,,,,,,,,,,,,,,,,,,,,,,,,,,,,,,,,,,,,,,,,,,,,,,,,,,,,,,
,,?,0.00109,0,,,,,,stimuli/images/PICTURE_95.png,NIGHT,5bd45c509afb5b00015c48f4,08/21/1953,2020-09-09_23h30.15.516,proactive2,2020.1.2,Win32,60,5f5126bb654d4b30ee6923d8,5f599cdc1d8a3c1ff286b5ab,3,,,,,,suitcase,,,,,,,,,,,4,2,0,44,44,37,1,,,,,,,,,,,,,,,,,,,,,,,,,,,,,,,,,,,,,,,,,,,,,,,,,,,,,,,,,,,,,,,,,,,,,,,,,,,,,,,,,,,,,,,,,,,,,,
,,?,0.001135,0,,,,,,stimuli/images/PICTURE_509.png,BATH,5bd45c509afb5b00015c48f4,08/21/1953,2020-09-09_23h30.15.516,proactive2,2020.1.2,Win32,60,5f5126bb654d4b30ee6923d8,5f599cdc1d8a3c1ff286b5ab,3,,,,,,telephone,,,,,,,,,,,2,2,0,45,45,15,1,,,,,,,,,,,,,,,,,,,,,,,,,,,,,,,,,,,,,,,,,,,,,,,,,,,,,,,,,,,,,,,,,,,,,,,,,,,,,,,,,,,,,,,,,,,,,,
,,?,0.001285,0,,,,,,stimuli/images/PICTURE_215.png,LEADER,5bd45c509afb5b00015c48f4,08/21/1953,2020-09-09_23h30.15.516,proactive2,2020.1.2,Win32,60,5f5126bb654d4b30ee6923d8,5f599cdc1d8a3c1ff286b5ab,3,,,,,,boot,,,,,,,,,,,5,2,0,46,46,43,1,,,,,,,,,,,,,,,,,,,,,,,,,,,,,,,,,,,,,,,,,,,,,,,,,,,,,,,,,,,,,,,,,,,,,,,,,,,,,,,,,,,,,,,,,,,,,,
,,?,0.001445,0,,,,,,stimuli/images/PICTURE_504.png,HOUSE,5bd45c509afb5b00015c48f4,08/21/1953,2020-09-09_23h30.15.516,proactive2,2020.1.2,Win32,60,5f5126bb654d4b30ee6923d8,5f599cdc1d8a3c1ff286b5ab,3,,,,,,wheel,,,,,,,,,,,4,2,0,47,47,36,1,,,,,,,,,,,,,,,,,,,,,,,,,,,,,,,,,,,,,,,,,,,,,,,,,,,,,,,,,,,,,,,,,,,,,,,,,,,,,,,,,,,,,,,,,,,,,,
,,?,0.001065,0,,,,,,stimuli/images/PICTURE_311.png,FLESH,5bd45c509afb5b00015c48f4,08/21/1953,2020-09-09_23h30.15.516,proactive2,2020.1.2,Win32,60,5f5126bb654d4b30ee6923d8,5f599cdc1d8a3c1ff286b5ab,3,,,,,,razor,,,,,,,,,,,1,2,0,48,48,3,1,,,,,,,,,,,,,,,,,,,,,,,,,,,,,,,,,,,,,,,,,,,,,,,,,,,,,,,,,,,,,,,,,,,,,,,,,,,,,,,,,,,,,,,,,,,,,,
,,?,0.00105,0,,,,,,stimuli/images/PICTURE_403.png,FAMILY,5bd45c509afb5b00015c48f4,08/21/1953,2020-09-09_23h30.15.516,proactive2,2020.1.2,Win32,60,5f5126bb654d4b30ee6923d8,5f599cdc1d8a3c1ff286b5ab,3,,,,,,cathedral,,,,,,,,,,,1,2,0,49,49,9,1,,,,,,,,,,,,,,,,,,,,,,,,,,,,,,,,,,,,,,,,,,,,,,,,,,,,,,,,,,,,,,,,,,,,,,,,,,,,,,,,,,,,,,,,,,,,,,
,,?,0.0014,0,,,,,,stimuli/images/PICTURE_509.png,SHOTS,5bd45c509afb5b00015c48f4,08/21/1953,2020-09-09_23h30.15.516,proactive2,2020.1.2,Win32,60,5f5126bb654d4b30ee6923d8,5f599cdc1d8a3c1ff286b5ab,3,,,,,,telephone,,,,,,,,,,,1,2,0,50,50,7,1,,,,,,,,,,,,,,,,,,,,,,,,,,,,,,,,,,,,,,,,,,,,,,,,,,,,,,,,,,,,,,,,,,,,,,,,,,,,,,,,,,,,,,,,,,,,,,
,,GLASS,3.228905,1,,,,,,stimuli/images/PICTURE_667.png,GLASS,5bd45c509afb5b00015c48f4,08/21/1953,2020-09-09_23h30.15.516,proactive2,2020.1.2,Win32,60,5f5126bb654d4b30ee6923d8,5f599cdc1d8a3c1ff286b5ab,3,,,,,,daisy,,,,,,,,,,,3,2,0,51,51,27,1,,,,,,,,,,,,,,,,,,,,,,,,,,,,,,,,,,,,,,,,,,,,,,,,,,,,,,,,,,,,,,,,,,,,,,,,,,,,,,,,,,,,,,,,,,,,,,
,,?,0.001875,0,,,,,,stimuli/images/PICTURE_2.png,YARD,5bd45c509afb5b00015c48f4,08/21/1953,2020-09-09_23h30.15.516,proactive2,2020.1.2,Win32,60,5f5126bb654d4b30ee6923d8,5f599cdc1d8a3c1ff286b5ab,3,,,,,,tyre,,,,,,,,,,,6,2,0,52,52,55,1,,,,,,,,,,,,,,,,,,,,,,,,,,,,,,,,,,,,,,,,,,,,,,,,,,,,,,,,,,,,,,,,,,,,,,,,,,,,,,,,,,,,,,,,,,,,,,
,,?,0.00103,0,,,,,,stimuli/images/PICTURE_654.png,COPS,5bd45c509afb5b00015c48f4,08/21/1953,2020-09-09_23h30.15.516,proactive2,2020.1.2,Win32,60,5f5126bb654d4b30ee6923d8,5f599cdc1d8a3c1ff286b5ab,3,,,,,,pencil,,,,,,,,,,,2,2,0,53,53,10,1,,,,,,,,,,,,,,,,,,,,,,,,,,,,,,,,,,,,,,,,,,,,,,,,,,,,,,,,,,,,,,,,,,,,,,,,,,,,,,,,,,,,,,,,,,,,,,
,,?,0.001075,0,,,,,,stimuli/images/PICTURE_2.png,JUNGLE,5bd45c509afb5b00015c48f4,08/21/1953,2020-09-09_23h30.15.516,proactive2,2020.1.2,Win32,60,5f5126bb654d4b30ee6923d8,5f599cdc1d8a3c1ff286b5ab,3,,,,,,tyre,,,,,,,,,,,1,2,0,54,54,1,1,,,,,,,,,,,,,,,,,,,,,,,,,,,,,,,,,,,,,,,,,,,,,,,,,,,,,,,,,,,,,,,,,,,,,,,,,,,,,,,,,,,,,,,,,,,,,,
,,?,0.001055,0,,,,,,stimuli/images/PICTURE_57.png,CASINO,5bd45c509afb5b00015c48f4,08/21/1953,2020-09-09_23h30.15.516,proactive2,2020.1.2,Win32,60,5f5126bb654d4b30ee6923d8,5f599cdc1d8a3c1ff286b5ab,3,,,,,,stamp,,,,,,,,,,,2,2,0,55,55,12,1,,,,,,,,,,,,,,,,,,,,,,,,,,,,,,,,,,,,,,,,,,,,,,,,,,,,,,,,,,,,,,,,,,,,,,,,,,,,,,,,,,,,,,,,,,,,,,
,,?,0.00112,0,,,,,,stimuli/images/PICTURE_405.png,JUNGLE,5bd45c509afb5b00015c48f4,08/21/1953,2020-09-09_23h30.15.516,proactive2,2020.1.2,Win32,60,5f5126bb654d4b30ee6923d8,5f599cdc1d8a3c1ff286b5ab,3,,,,,,anchor,,,,,,,,,,,6,2,0,56,56,58,1,,,,,,,,,,,,,,,,,,,,,,,,,,,,,,,,,,,,,,,,,,,,,,,,,,,,,,,,,,,,,,,,,,,,,,,,,,,,,,,,,,,,,,,,,,,,,,
,,?,0.00152,0,,,,,,stimuli/images/PICTURE_57.png,CANDY,5bd45c509afb5b00015c48f4,08/21/1953,2020-09-09_23h30.15.516,proactive2,2020.1.2,Win32,60,5f5126bb654d4b30ee6923d8,5f599cdc1d8a3c1ff286b5ab,3,,,,,,stamp,,,,,,,,,,,6,2,0,57,57,52,1,,,,,,,,,,,,,,,,,,,,,,,,,,,,,,,,,,,,,,,,,,,,,,,,,,,,,,,,,,,,,,,,,,,,,,,,,,,,,,,,,,,,,,,,,,,,,,
,,?,0.001045,0,,,,,,stimuli/images/PICTURE_491.png,SERIES,5bd45c509afb5b00015c48f4,08/21/1953,2020-09-09_23h30.15.516,proactive2,2020.1.2,Win32,60,5f5126bb654d4b30ee6923d8,5f599cdc1d8a3c1ff286b5ab,3,,,,,,rug,,,,,,,,,,,4,2,0,58,58,39,1,,,,,,,,,,,,,,,,,,,,,,,,,,,,,,,,,,,,,,,,,,,,,,,,,,,,,,,,,,,,,,,,,,,,,,,,,,,,,,,,,,,,,,,,,,,,,,
,,?,0.001035,0,,,,,,stimuli/images/PICTURE_654.png,YEAR,5bd45c509afb5b00015c48f4,08/21/1953,2020-09-09_23h30.15.516,proactive2,2020.1.2,Win32,60,5f5126bb654d4b30ee6923d8,5f599cdc1d8a3c1ff286b5ab,3,,,,,,pencil,,,,,,,,,,,5,2,0,59,59,41,1,,,,,,,,,,,,,,,,,,,,,,,,,,,,,,,,,,,,,,,,,,,,,,,,,,,,,,,,,,,,,,,,,,,,,,,,,,,,,,,,,,,,,,,,,,,,,,
,,,,,,,,,,,,5bd45c509afb5b00015c48f4,08/21/1953,2020-09-09_23h30.15.516,proactive2,2020.1.2,Win32,60,5f5126bb654d4b30ee6923d8,5f599cdc1d8a3c1ff286b5ab,3,,,,,,,,,,,,,,,,,,,,,,,,0,1,1,2,1,stimuli/learn-block3.csv,,,,,,,,,,,,,,,,,,,,,,,,,,,,,,,,,,,,,,,,,,,,,,,,,,,,,,,,,,,,,,,,,,,,,,,,,,,,,,,,,,,,,,,,
,,,,,,,,,,stimuli/images/PICTURE_403.png,RIVER,5bd45c509afb5b00015c48f4,08/21/1953,2020-09-09_23h30.15.516,proactive2,2020.1.2,Win32,60,5f5126bb654d4b30ee6923d8,5f599cdc1d8a3c1ff286b5ab,3,,,,,,cathedral,,,,,,0,0,0,40,1,5,1,,,,,,,,,,,,,,,,,,,,,,,,,,,,,,,,,,,,,,,,,,,,,,,,,,,,,,,,,,,,,,,,,,,,,,,,,,,,,,,,,,,,,,,,,,,,,,,,,,,
,,,,,,,,,,stimuli/images/PICTURE_32.png,KIND,5bd45c509afb5b00015c48f4,08/21/1953,2020-09-09_23h30.15.516,proactive2,2020.1.2,Win32,60,5f5126bb654d4b30ee6923d8,5f599cdc1d8a3c1ff286b5ab,3,,,,,,crown,,,,,,0,1,1,35,1,4,1,,,,,,,,,,,,,,,,,,,,,,,,,,,,,,,,,,,,,,,,,,,,,,,,,,,,,,,,,,,,,,,,,,,,,,,,,,,,,,,,,,,,,,,,,,,,,,,,,,,
,,,,,,,,,,stimuli/images/PICTURE_327.png,CASINO,5bd45c509afb5b00015c48f4,08/21/1953,2020-09-09_23h30.15.516,proactive2,2020.1.2,Win32,60,5f5126bb654d4b30ee6923d8,5f599cdc1d8a3c1ff286b5ab,3,,,,,,helmet,,,,,,0,2,2,20,1,3,1,,,,,,,,,,,,,,,,,,,,,,,,,,,,,,,,,,,,,,,,,,,,,,,,,,,,,,,,,,,,,,,,,,,,,,,,,,,,,,,,,,,,,,,,,,,,,,,,,,,
,,,,,,,,,,stimuli/images/PICTURE_285.png,LIFE,5bd45c509afb5b00015c48f4,08/21/1953,2020-09-09_23h30.15.516,proactive2,2020.1.2,Win32,60,5f5126bb654d4b30ee6923d8,5f599cdc1d8a3c1ff286b5ab,3,,,,,,carrot,,,,,,0,3,3,33,1,4,1,,,,,,,,,,,,,,,,,,,,,,,,,,,,,,,,,,,,,,,,,,,,,,,,,,,,,,,,,,,,,,,,,,,,,,,,,,,,,,,,,,,,,,,,,,,,,,,,,,,
,,,,,,,,,,stimuli/images/PICTURE_469.png,AGENT,5bd45c509afb5b00015c48f4,08/21/1953,2020-09-09_23h30.15.516,proactive2,2020.1.2,Win32,60,5f5126bb654d4b30ee6923d8,5f599cdc1d8a3c1ff286b5ab,3,,,,,,stool,,,,,,0,4,4,16,1,2,1,,,,,,,,,,,,,,,,,,,,,,,,,,,,,,,,,,,,,,,,,,,,,,,,,,,,,,,,,,,,,,,,,,,,,,,,,,,,,,,,,,,,,,,,,,,,,,,,,,,
,,,,,,,,,,stimuli/images/PICTURE_403.png,WRITER,5bd45c509afb5b00015c48f4,08/21/1953,2020-09-09_23h30.15.516,proactive2,2020.1.2,Win32,60,5f5126bb654d4b30ee6923d8,5f599cdc1d8a3c1ff286b5ab,3,,,,,,cathedral,,,,,,0,5,5,31,1,4,1,,,,,,,,,,,,,,,,,,,,,,,,,,,,,,,,,,,,,,,,,,,,,,,,,,,,,,,,,,,,,,,,,,,,,,,,,,,,,,,,,,,,,,,,,,,,,,,,,,,
,,,,,,,,,,stimuli/images/PICTURE_504.png,COPS,5bd45c509afb5b00015c48f4,08/21/1953,2020-09-09_23h30.15.516,proactive2,2020.1.2,Win32,60,5f5126bb654d4b30ee6923d8,5f599cdc1d8a3c1ff286b5ab,3,,,,,,wheel,,,,,,0,6,6,52,1,6,1,,,,,,,,,,,,,,,,,,,,,,,,,,,,,,,,,,,,,,,,,,,,,,,,,,,,,,,,,,,,,,,,,,,,,,,,,,,,,,,,,,,,,,,,,,,,,,,,,,,
,,,,,,,,,,stimuli/images/PICTURE_147.png,YEAR,5bd45c509afb5b00015c48f4,08/21/1953,2020-09-09_23h30.15.516,proactive2,2020.1.2,Win32,60,5f5126bb654d4b30ee6923d8,5f599cdc1d8a3c1ff286b5ab,3,,,,,,hanger,,,,,,0,7,7,21,1,3,1,,,,,,,,,,,,,,,,,,,,,,,,,,,,,,,,,,,,,,,,,,,,,,,,,,,,,,,,,,,,,,,,,,,,,,,,,,,,,,,,,,,,,,,,,,,,,,,,,,,
,,,,,,,,,,stimuli/images/PICTURE_675.png,SALE,5bd45c509afb5b00015c48f4,08/21/1953,2020-09-09_23h30.15.516,proactive2,2020.1.2,Win32,60,5f5126bb654d4b30ee6923d8,5f599cdc1d8a3c1ff286b5ab,3,,,,,,windmill,,,,,,0,8,8,47,1,5,1,,,,,,,,,,,,,,,,,,,,,,,,,,,,,,,,,,,,,,,,,,,,,,,,,,,,,,,,,,,,,,,,,,,,,,,,,,,,,,,,,,,,,,,,,,,,,,,,,,,
,,,,,,,,,,stimuli/images/PICTURE_2.png,FLIGHT,5bd45c509afb5b00015c48f4,08/21/1953,2020-09-09_23h30.15.516,proactive2,2020.1.2,Win32,60,5f5126bb654d4b30ee6923d8,5f599cdc1d8a3c1ff286b5ab,3,,,,,,tyre,,,,,,0,9,9,15,1,2,1,,,,,,,,,,,,,,,,,,,,,,,,,,,,,,,,,,,,,,,,,,,,,,,,,,,,,,,,,,,,,,,,,,,,,,,,,,,,,,,,,,,,,,,,,,,,,,,,,,,
,,,,,,,,,,stimuli/images/PICTURE_208.png,SYSTEM,5bd45c509afb5b00015c48f4,08/21/1953,2020-09-09_23h30.15.516,proactive2,2020.1.2,Win32,60,5f5126bb654d4b30ee6923d8,5f599cdc1d8a3c1ff286b5ab,3,,,,,,microphone,,,,,,0,10,10,32,1,4,1,,,,,,,,,,,,,,,,,,,,,,,,,,,,,,,,,,,,,,,,,,,,,,,,,,,,,,,,,,,,,,,,,,,,,,,,,,,,,,,,,,,,,,,,,,,,,,,,,,,
,,,,,,,,,,stimuli/images/PICTURE_405.png,YEAR,5bd45c509afb5b00015c48f4,08/21/1953,2020-09-09_23h30.15.516,proactive2,2020.1.2,Win32,60,5f5126bb654d4b30ee6923d8,5f599cdc1d8a3c1ff286b5ab,3,,,,,,anchor,,,,,,0,11,11,34,1,4,1,,,,,,,,,,,,,,,,,,,,,,,,,,,,,,,,,,,,,,,,,,,,,,,,,,,,,,,,,,,,,,,,,,,,,,,,,,,,,,,,,,,,,,,,,,,,,,,,,,,
,,,,,,,,,,stimuli/images/PICTURE_504.png,YEAR,5bd45c509afb5b00015c48f4,08/21/1953,2020-09-09_23h30.15.516,proactive2,2020.1.2,Win32,60,5f5126bb654d4b30ee6923d8,5f599cdc1d8a3c1ff286b5ab,3,,,,,,wheel,,,,,,0,12,12,13,1,2,1,,,,,,,,,,,,,,,,,,,,,,,,,,,,,,,,,,,,,,,,,,,,,,,,,,,,,,,,,,,,,,,,,,,,,,,,,,,,,,,,,,,,,,,,,,,,,,,,,,,
,,,,,,,,,,stimuli/images/PICTURE_233.png,LOTS,5bd45c509afb5b00015c48f4,08/21/1953,2020-09-09_23h30.15.516,proactive2,2020.1.2,Win32,60,5f5126bb654d4b30ee6923d8,5f599cdc1d8a3c1ff286b5ab,3,,,,,,salt,,,,,,0,13,13,42,1,5,1,,,,,,,,,,,,,,,,,,,,,,,,,,,,,,,,,,,,,,,,,,,,,,,,,,,,,,,,,,,,,,,,,,,,,,,,,,,,,,,,,,,,,,,,,,,,,,,,,,,
,,,,,,,,,,stimuli/images/PICTURE_85.png,NATION,5bd45c509afb5b00015c48f4,08/21/1953,2020-09-09_23h30.15.516,proactive2,2020.1.2,Win32,60,5f5126bb654d4b30ee6923d8,5f599cdc1d8a3c1ff286b5ab,3,,,,,,diamond,,,,,,0,14,14,5,1,1,1,,,,,,,,,,,,,,,,,,,,,,,,,,,,,,,,,,,,,,,,,,,,,,,,,,,,,,,,,,,,,,,,,,,,,,,,,,,,,,,,,,,,,,,,,,,,,,,,,,,
,,,,,,,,,,stimuli/images/PICTURE_95.png,HONEY,5bd45c509afb5b00015c48f4,08/21/1953,2020-09-09_23h30.15.516,proactive2,2020.1.2,Win32,60,5f5126bb654d4b30ee6923d8,5f599cdc1d8a3c1ff286b5ab,3,,,,,,suitcase,,,,,,0,15,15,44,1,5,1,,,,,,,,,,,,,,,,,,,,,,,,,,,,,,,,,,,,,,,,,,,,,,,,,,,,,,,,,,,,,,,,,,,,,,,,,,,,,,,,,,,,,,,,,,,,,,,,,,,
,,,,,,,,,,stimuli/images/PICTURE_449.png,DUDE,5bd45c509afb5b00015c48f4,08/21/1953,2020-09-09_23h30.15.516,proactive2,2020.1.2,Win32,60,5f5126bb654d4b30ee6923d8,5f599cdc1d8a3c1ff286b5ab,3,,,,,,bench,,,,,,0,16,16,17,1,2,1,,,,,,,,,,,,,,,,,,,,,,,,,,,,,,,,,,,,,,,,,,,,,,,,,,,,,,,,,,,,,,,,,,,,,,,,,,,,,,,,,,,,,,,,,,,,,,,,,,,
,,,,,,,,,,stimuli/images/PICTURE_95.png,BOYS,5bd45c509afb5b00015c48f4,08/21/1953,2020-09-09_23h30.15.516,proactive2,2020.1.2,Win32,60,5f5126bb654d4b30ee6923d8,5f599cdc1d8a3c1ff286b5ab,3,,,,,,suitcase,,,,,,0,17,17,1,1,1,1,,,,,,,,,,,,,,,,,,,,,,,,,,,,,,,,,,,,,,,,,,,,,,,,,,,,,,,,,,,,,,,,,,,,,,,,,,,,,,,,,,,,,,,,,,,,,,,,,,,
,,,,,,,,,,stimuli/images/PICTURE_33.png,FRIEND,5bd45c509afb5b00015c48f4,08/21/1953,2020-09-09_23h30.15.516,proactive2,2020.1.2,Win32,60,5f5126bb654d4b30ee6923d8,5f599cdc1d8a3c1ff286b5ab,3,,,,,,frame,,,,,,0,18,18,8,1,1,1,,,,,,,,,,,,,,,,,,,,,,,,,,,,,,,,,,,,,,,,,,,,,,,,,,,,,,,,,,,,,,,,,,,,,,,,,,,,,,,,,,,,,,,,,,,,,,,,,,,
,,,,,,,,,,stimuli/images/PICTURE_68.png,ROOF,5bd45c509afb5b00015c48f4,08/21/1953,2020-09-09_23h30.15.516,proactive2,2020.1.2,Win32,60,5f5126bb654d4b30ee6923d8,5f599cdc1d8a3c1ff286b5ab,3,,,,,,candle,,,,,,0,19,19,38,1,4,1,,,,,,,,,,,,,,,,,,,,,,,,,,,,,,,,,,,,,,,,,,,,,,,,,,,,,,,,,,,,,,,,,,,,,,,,,,,,,,,,,,,,,,,,,,,,,,,,,,,
,,,,,,,,,,stimuli/images/PICTURE_504.png,ARTIST,5bd45c509afb5b00015c48f4,08/21/1953,2020-09-09_23h30.15.516,proactive2,2020.1.2,Win32,60,5f5126bb654d4b30ee6923d8,5f599cdc1d8a3c1ff286b5ab,3,,,,,,wheel,,,,,,0,20,20,49,1,5,1,,,,,,,,,,,,,,,,,,,,,,,,,,,,,,,,,,,,,,,,,,,,,,,,,,,,,,,,,,,,,,,,,,,,,,,,,,,,,,,,,,,,,,,,,,,,,,,,,,,
,,,,,,,,,,stimuli/images/PICTURE_487.png,GIRL,5bd45c509afb5b00015c48f4,08/21/1953,2020-09-09_23h30.15.516,proactive2,2020.1.2,Win32,60,5f5126bb654d4b30ee6923d8,5f599cdc1d8a3c1ff286b5ab,3,,,,,,basket,,,,,,0,21,21,45,1,5,1,,,,,,,,,,,,,,,,,,,,,,,,,,,,,,,,,,,,,,,,,,,,,,,,,,,,,,,,,,,,,,,,,,,,,,,,,,,,,,,,,,,,,,,,,,,,,,,,,,,
,,,,,,,,,,stimuli/images/PICTURE_297.png,RIVER,5bd45c509afb5b00015c48f4,08/21/1953,2020-09-09_23h30.15.516,proactive2,2020.1.2,Win32,60,5f5126bb654d4b30ee6923d8,5f599cdc1d8a3c1ff286b5ab,3,,,,,,aeroplane,,,,,,0,22,22,39,1,4,1,,,,,,,,,,,,,,,,,,,,,,,,,,,,,,,,,,,,,,,,,,,,,,,,,,,,,,,,,,,,,,,,,,,,,,,,,,,,,,,,,,,,,,,,,,,,,,,,,,,
,,,,,,,,,,stimuli/images/PICTURE_147.png,WOMEN,5bd45c509afb5b00015c48f4,08/21/1953,2020-09-09_23h30.15.516,proactive2,2020.1.2,Win32,60,5f5126bb654d4b30ee6923d8,5f599cdc1d8a3c1ff286b5ab,3,,,,,,hanger,,,,,,0,23,23,7,1,1,1,,,,,,,,,,,,,,,,,,,,,,,,,,,,,,,,,,,,,,,,,,,,,,,,,,,,,,,,,,,,,,,,,,,,,,,,,,,,,,,,,,,,,,,,,,,,,,,,,,,
,,,,,,,,,,stimuli/images/PICTURE_340.png,VALLEY,5bd45c509afb5b00015c48f4,08/21/1953,2020-09-09_23h30.15.516,proactive2,2020.1.2,Win32,60,5f5126bb654d4b30ee6923d8,5f599cdc1d8a3c1ff286b5ab,3,,,,,,mirror,,,,,,0,24,24,54,1,6,1,,,,,,,,,,,,,,,,,,,,,,,,,,,,,,,,,,,,,,,,,,,,,,,,,,,,,,,,,,,,,,,,,,,,,,,,,,,,,,,,,,,,,,,,,,,,,,,,,,,
,,,,,,,,,,stimuli/images/PICTURE_177.png,WRITER,5bd45c509afb5b00015c48f4,08/21/1953,2020-09-09_23h30.15.516,proactive2,2020.1.2,Win32,60,5f5126bb654d4b30ee6923d8,5f599cdc1d8a3c1ff286b5ab,3,,,,,,mushroom,,,,,,0,25,25,41,1,5,1,,,,,,,,,,,,,,,,,,,,,,,,,,,,,,,,,,,,,,,,,,,,,,,,,,,,,,,,,,,,,,,,,,,,,,,,,,,,,,,,,,,,,,,,,,,,,,,,,,,
,,,,,,,,,,stimuli/images/PICTURE_655.png,TOILET,5bd45c509afb5b00015c48f4,08/21/1953,2020-09-09_23h30.15.516,proactive2,2020.1.2,Win32,60,5f5126bb654d4b30ee6923d8,5f599cdc1d8a3c1ff286b5ab,3,,,,,,megaphone,,,,,,0,26,26,12,1,2,1,,,,,,,,,,,,,,,,,,,,,,,,,,,,,,,,,,,,,,,,,,,,,,,,,,,,,,,,,,,,,,,,,,,,,,,,,,,,,,,,,,,,,,,,,,,,,,,,,,,
,,,,,,,,,,stimuli/images/PICTURE_491.png,RIVER,5bd45c509afb5b00015c48f4,08/21/1953,2020-09-09_23h30.15.516,proactive2,2020.1.2,Win32,60,5f5126bb654d4b30ee6923d8,5f599cdc1d8a3c1ff286b5ab,3,,,,,,rug,,,,,,0,27,27,6,1,1,1,,,,,,,,,,,,,,,,,,,,,,,,,,,,,,,,,,,,,,,,,,,,,,,,,,,,,,,,,,,,,,,,,,,,,,,,,,,,,,,,,,,,,,,,,,,,,,,,,,,
,,,,,,,,,,stimuli/images/PICTURE_383.png,WRITER,5bd45c509afb5b00015c48f4,08/21/1953,2020-09-09_23h30.15.516,proactive2,2020.1.2,Win32,60,5f5126bb654d4b30ee6923d8,5f599cdc1d8a3c1ff286b5ab,3,,,,,,coin,,,,,,0,28,28,28,1,3,1,,,,,,,,,,,,,,,,,,,,,,,,,,,,,,,,,,,,,,,,,,,,,,,,,,,,,,,,,,,,,,,,,,,,,,,,,,,,,,,,,,,,,,,,,,,,,,,,,,,
,,,,,,,,,,stimuli/images/PICTURE_708.png,RECORD,5bd45c509afb5b00015c48f4,08/21/1953,2020-09-09_23h30.15.516,proactive2,2020.1.2,Win32,60,5f5126bb654d4b30ee6923d8,5f599cdc1d8a3c1ff286b5ab,3,,,,,,monkey,,,,,,0,29,29,58,1,6,1,,,,,,,,,,,,,,,,,,,,,,,,,,,,,,,,,,,,,,,,,,,,,,,,,,,,,,,,,,,,,,,,,,,,,,,,,,,,,,,,,,,,,,,,,,,,,,,,,,,
,,,,,,,,,,stimuli/images/PICTURE_380.png,HONEY,5bd45c509afb5b00015c48f4,08/21/1953,2020-09-09_23h30.15.516,proactive2,2020.1.2,Win32,60,5f5126bb654d4b30ee6923d8,5f599cdc1d8a3c1ff286b5ab,3,,,,,,gorilla,,,,,,0,30,30,19,1,2,1,,,,,,,,,,,,,,,,,,,,,,,,,,,,,,,,,,,,,,,,,,,,,,,,,,,,,,,,,,,,,,,,,,,,,,,,,,,,,,,,,,,,,,,,,,,,,,,,,,,
,,,,,,,,,,stimuli/images/PICTURE_380.png,CANDY,5bd45c509afb5b00015c48f4,08/21/1953,2020-09-09_23h30.15.516,proactive2,2020.1.2,Win32,60,5f5126bb654d4b30ee6923d8,5f599cdc1d8a3c1ff286b5ab,3,,,,,,gorilla,,,,,,0,31,31,0,1,1,1,,,,,,,,,,,,,,,,,,,,,,,,,,,,,,,,,,,,,,,,,,,,,,,,,,,,,,,,,,,,,,,,,,,,,,,,,,,,,,,,,,,,,,,,,,,,,,,,,,,
,,,,,,,,,,stimuli/images/PICTURE_85.png,TOILET,5bd45c509afb5b00015c48f4,08/21/1953,2020-09-09_23h30.15.516,proactive2,2020.1.2,Win32,60,5f5126bb654d4b30ee6923d8,5f599cdc1d8a3c1ff286b5ab,3,,,,,,diamond,,,,,,0,32,32,48,1,5,1,,,,,,,,,,,,,,,,,,,,,,,,,,,,,,,,,,,,,,,,,,,,,,,,,,,,,,,,,,,,,,,,,,,,,,,,,,,,,,,,,,,,,,,,,,,,,,,,,,,
,,,,,,,,,,stimuli/images/PICTURE_308.png,FAMILY,5bd45c509afb5b00015c48f4,08/21/1953,2020-09-09_23h30.15.516,proactive2,2020.1.2,Win32,60,5f5126bb654d4b30ee6923d8,5f599cdc1d8a3c1ff286b5ab,3,,,,,,dice,,,,,,0,33,33,36,1,4,1,,,,,,,,,,,,,,,,,,,,,,,,,,,,,,,,,,,,,,,,,,,,,,,,,,,,,,,,,,,,,,,,,,,,,,,,,,,,,,,,,,,,,,,,,,,,,,,,,,,
,,,,,,,,,,stimuli/images/PICTURE_383.png,SERIES,5bd45c509afb5b00015c48f4,08/21/1953,2020-09-09_23h30.15.516,proactive2,2020.1.2,Win32,60,5f5126bb654d4b30ee6923d8,5f599cdc1d8a3c1ff286b5ab,3,,,,,,coin,,,,,,0,34,34,46,1,5,1,,,,,,,,,,,,,,,,,,,,,,,,,,,,,,,,,,,,,,,,,,,,,,,,,,,,,,,,,,,,,,,,,,,,,,,,,,,,,,,,,,,,,,,,,,,,,,,,,,,
,,,,,,,,,,stimuli/images/PICTURE_95.png,MILLER,5bd45c509afb5b00015c48f4,08/21/1953,2020-09-09_23h30.15.516,proactive2,2020.1.2,Win32,60,5f5126bb654d4b30ee6923d8,5f599cdc1d8a3c1ff286b5ab,3,,,,,,suitcase,,,,,,0,35,35,56,1,6,1,,,,,,,,,,,,,,,,,,,,,,,,,,,,,,,,,,,,,,,,,,,,,,,,,,,,,,,,,,,,,,,,,,,,,,,,,,,,,,,,,,,,,,,,,,,,,,,,,,,
,,,,,,,,,,stimuli/images/PICTURE_108.png,FLIGHT,5bd45c509afb5b00015c48f4,08/21/1953,2020-09-09_23h30.15.516,proactive2,2020.1.2,Win32,60,5f5126bb654d4b30ee6923d8,5f599cdc1d8a3c1ff286b5ab,3,,,,,,calendar,,,,,,0,36,36,59,1,6,1,,,,,,,,,,,,,,,,,,,,,,,,,,,,,,,,,,,,,,,,,,,,,,,,,,,,,,,,,,,,,,,,,,,,,,,,,,,,,,,,,,,,,,,,,,,,,,,,,,,
,,,,,,,,,,stimuli/images/PICTURE_677.png,APPLE,5bd45c509afb5b00015c48f4,08/21/1953,2020-09-09_23h30.15.516,proactive2,2020.1.2,Win32,60,5f5126bb654d4b30ee6923d8,5f599cdc1d8a3c1ff286b5ab,3,,,,,,map,,,,,,0,37,37,43,1,5,1,,,,,,,,,,,,,,,,,,,,,,,,,,,,,,,,,,,,,,,,,,,,,,,,,,,,,,,,,,,,,,,,,,,,,,,,,,,,,,,,,,,,,,,,,,,,,,,,,,,
,,,,,,,,,,stimuli/images/PICTURE_750.png,HOTEL,5bd45c509afb5b00015c48f4,08/21/1953,2020-09-09_23h30.15.516,proactive2,2020.1.2,Win32,60,5f5126bb654d4b30ee6923d8,5f599cdc1d8a3c1ff286b5ab,3,,,,,,kettle,,,,,,0,38,38,27,1,3,1,,,,,,,,,,,,,,,,,,,,,,,,,,,,,,,,,,,,,,,,,,,,,,,,,,,,,,,,,,,,,,,,,,,,,,,,,,,,,,,,,,,,,,,,,,,,,,,,,,,
,,,,,,,,,,stimuli/images/PICTURE_654.png,MONTH,5bd45c509afb5b00015c48f4,08/21/1953,2020-09-09_23h30.15.516,proactive2,2020.1.2,Win32,60,5f5126bb654d4b30ee6923d8,5f599cdc1d8a3c1ff286b5ab,3,,,,,,pencil,,,,,,0,39,39,29,1,3,1,,,,,,,,,,,,,,,,,,,,,,,,,,,,,,,,,,,,,,,,,,,,,,,,,,,,,,,,,,,,,,,,,,,,,,,,,,,,,,,,,,,,,,,,,,,,,,,,,,,
,,,,,,,,,,stimuli/images/PICTURE_42.png,BOYS,5bd45c509afb5b00015c48f4,08/21/1953,2020-09-09_23h30.15.516,proactive2,2020.1.2,Win32,60,5f5126bb654d4b30ee6923d8,5f599cdc1d8a3c1ff286b5ab,3,,,,,,pear,,,,,,0,40,40,55,1,6,1,,,,,,,,,,,,,,,,,,,,,,,,,,,,,,,,,,,,,,,,,,,,,,,,,,,,,,,,,,,,,,,,,,,,,,,,,,,,,,,,,,,,,,,,,,,,,,,,,,,
,,,,,,,,,,stimuli/images/PICTURE_108.png,POLICY,5bd45c509afb5b00015c48f4,08/21/1953,2020-09-09_23h30.15.516,proactive2,2020.1.2,Win32,60,5f5126bb654d4b30ee6923d8,5f599cdc1d8a3c1ff286b5ab,3,,,,,,calendar,,,,,,0,41,41,22,1,3,1,,,,,,,,,,,,,,,,,,,,,,,,,,,,,,,,,,,,,,,,,,,,,,,,,,,,,,,,,,,,,,,,,,,,,,,,,,,,,,,,,,,,,,,,,,,,,,,,,,,
,,,,,,,,,,stimuli/images/PICTURE_68.png,MILE,5bd45c509afb5b00015c48f4,08/21/1953,2020-09-09_23h30.15.516,proactive2,2020.1.2,Win32,60,5f5126bb654d4b30ee6923d8,5f599cdc1d8a3c1ff286b5ab,3,,,,,,candle,,,,,,0,42,42,51,1,6,1,,,,,,,,,,,,,,,,,,,,,,,,,,,,,,,,,,,,,,,,,,,,,,,,,,,,,,,,,,,,,,,,,,,,,,,,,,,,,,,,,,,,,,,,,,,,,,,,,,,
,,,,,,,,,,stimuli/images/PICTURE_203.png,GODS,5bd45c509afb5b00015c48f4,08/21/1953,2020-09-09_23h30.15.516,proactive2,2020.1.2,Win32,60,5f5126bb654d4b30ee6923d8,5f599cdc1d8a3c1ff286b5ab,3,,,,,,cap,,,,,,0,43,43,30,1,4,1,,,,,,,,,,,,,,,,,,,,,,,,,,,,,,,,,,,,,,,,,,,,,,,,,,,,,,,,,,,,,,,,,,,,,,,,,,,,,,,,,,,,,,,,,,,,,,,,,,,
,,,,,,,,,,stimuli/images/PICTURE_405.png,PLENTY,5bd45c509afb5b00015c48f4,08/21/1953,2020-09-09_23h30.15.516,proactive2,2020.1.2,Win32,60,5f5126bb654d4b30ee6923d8,5f599cdc1d8a3c1ff286b5ab,3,,,,,,anchor,,,,,,0,44,44,23,1,3,1,,,,,,,,,,,,,,,,,,,,,,,,,,,,,,,,,,,,,,,,,,,,,,,,,,,,,,,,,,,,,,,,,,,,,,,,,,,,,,,,,,,,,,,,,,,,,,,,,,,
,,,,,,,,,,stimuli/images/PICTURE_564.png,BATH,5bd45c509afb5b00015c48f4,08/21/1953,2020-09-09_23h30.15.516,proactive2,2020.1.2,Win32,60,5f5126bb654d4b30ee6923d8,5f599cdc1d8a3c1ff286b5ab,3,,,,,,spoon,,,,,,0,45,45,26,1,3,1,,,,,,,,,,,,,,,,,,,,,,,,,,,,,,,,,,,,,,,,,,,,,,,,,,,,,,,,,,,,,,,,,,,,,,,,,,,,,,,,,,,,,,,,,,,,,,,,,,,
,,,,,,,,,,stimuli/images/PICTURE_339.png,CLIENT,5bd45c509afb5b00015c48f4,08/21/1953,2020-09-09_23h30.15.516,proactive2,2020.1.2,Win32,60,5f5126bb654d4b30ee6923d8,5f599cdc1d8a3c1ff286b5ab,3,,,,,,backpack,,,,,,0,46,46,11,1,2,1,,,,,,,,,,,,,,,,,,,,,,,,,,,,,,,,,,,,,,,,,,,,,,,,,,,,,,,,,,,,,,,,,,,,,,,,,,,,,,,,,,,,,,,,,,,,,,,,,,,
,,,,,,,,,,stimuli/images/PICTURE_296.png,LOTS,5bd45c509afb5b00015c48f4,08/21/1953,2020-09-09_23h30.15.516,proactive2,2020.1.2,Win32,60,5f5126bb654d4b30ee6923d8,5f599cdc1d8a3c1ff286b5ab,3,,,,,,bolt,,,,,,0,47,47,9,1,1,1,,,,,,,,,,,,,,,,,,,,,,,,,,,,,,,,,,,,,,,,,,,,,,,,,,,,,,,,,,,,,,,,,,,,,,,,,,,,,,,,,,,,,,,,,,,,,,,,,,,
,,,,,,,,,,stimuli/images/PICTURE_667.png,RIVER,5bd45c509afb5b00015c48f4,08/21/1953,2020-09-09_23h30.15.516,proactive2,2020.1.2,Win32,60,5f5126bb654d4b30ee6923d8,5f599cdc1d8a3c1ff286b5ab,3,,,,,,daisy,,,,,,0,48,48,10,1,2,1,,,,,,,,,,,,,,,,,,,,,,,,,,,,,,,,,,,,,,,,,,,,,,,,,,,,,,,,,,,,,,,,,,,,,,,,,,,,,,,,,,,,,,,,,,,,,,,,,,,
,,,,,,,,,,stimuli/images/PICTURE_296.png,LIFE,5bd45c509afb5b00015c48f4,08/21/1953,2020-09-09_23h30.15.516,proactive2,2020.1.2,Win32,60,5f5126bb654d4b30ee6923d8,5f599cdc1d8a3c1ff286b5ab,3,,,,,,bolt,,,,,,0,49,49,57,1,6,1,,,,,,,,,,,,,,,,,,,,,,,,,,,,,,,,,,,,,,,,,,,,,,,,,,,,,,,,,,,,,,,,,,,,,,,,,,,,,,,,,,,,,,,,,,,,,,,,,,,
