consent_key.keys,consent_key.rt,recalled,recalled_rt,recall_acc,example_recall.thisRepN,example_recall.thisTrialN,example_recall.thisN,example_recall.thisIndex,example_recall.ran,file,word,participant,please enter your date of birth (dd/mm/yyyy),date,expName,psychopyVersion,OS,frameRate,STUDY_ID,SESSION_ID,list,prac_learn_study_loop.thisRepN,prac_learn_study_loop.thisTrialN,prac_learn_study_loop.thisN,prac_learn_study_loop.thisIndex,prac_learn_study_loop.ran,image,prac_learn_test_loop.thisRepN,prac_learn_test_loop.thisTrialN,prac_learn_test_loop.thisN,prac_learn_test_loop.thisIndex,prac_learn_test_loop.ran,learn_study_loop.thisRepN,learn_study_loop.thisTrialN,learn_study_loop.thisN,learn_study_loop.thisIndex,learn_study_loop.ran,list_no,block_no,learn_test_loop.thisRepN,learn_test_loop.thisTrialN,learn_test_loop.thisN,learn_test_loop.thisIndex,learn_test_loop.ran,learn_blocks.thisRepN,learn_blocks.thisTrialN,learn_blocks.thisN,learn_blocks.thisIndex,learn_blocks.ran,block_csv,key_resp_13.keys,key_resp_13.rt,learn_blocks_loop.thisRepN,learn_blocks_loop.thisTrialN,learn_blocks_loop.thisN,learn_blocks_loop.thisIndex,learn_blocks_loop.ran,final_learn_test.thisRepN,final_learn_test.thisTrialN,final_learn_test.thisN,final_learn_test.thisIndex,final_learn_test.ran,s_im1,s_im2,s_im3,s_im4,s_im5,s_im6,s_im7,s_im8,s_im1pos,s_im2pos,s_im3pos,s_im4pos,s_im5pos,s_im6pos,s_im7pos,s_im8pos,s_tarright,search_resp.keys,search_resp.rt,search_loop.thisRepN,search_loop.thisTrialN,search_loop.thisN,search_loop.thisIndex,search_loop.ran,prac_wm_test_loop.thisRepN,prac_wm_test_loop.thisTrialN,prac_wm_test_loop.thisN,prac_wm_test_loop.thisIndex,prac_wm_test_loop.ran,wm_recalled1,wm_recall_rt1,wm_probed1,wm_recall_acc1,wm_recalled2,wm_recall_rt2,wm_probed2,wm_recall_acc2,wm_recalled3,wm_recall_rt3,wm_probed3,wm_recall_acc3,wm_recalled4,wm_recall_rt4,wm_probed4,wm_recall_acc4,prac_wm_trial_loop.thisRepN,prac_wm_trial_loop.thisTrialN,prac_wm_trial_loop.thisN,prac_wm_trial_loop.thisIndex,prac_wm_trial_loop.ran,word1,image1,file1,item_type1,word2,image2,file2,item_type2,word4,image4,file4,item_type4,word3,image3,file3,item_type3,wm_test_loop.thisRepN,wm_test_loop.thisTrialN,wm_test_loop.thisN,wm_test_loop.thisIndex,wm_test_loop.ran,wm_trial_loop.thisRepN,wm_trial_loop.thisTrialN,wm_trial_loop.thisN,wm_trial_loop.thisIndex,wm_trial_loop.ran
y,48.729,TOUGH,2.296,1,0,0,0,0,1,stimuli/images/PICTURE_747.png,TOUGH,5c1a59395b2ab700015af793,01/01/1990,2020-08-13_12h53.34.302,proactive2,2020.1.2,MacIntel,60,5f341be081b9052c55068110,5f352791513d7347e9b3dfb3,2,,,,,,,,,,,,,,,,,,,,,,,,,,,,,,,,,,,,,,,,,,,,,,,,,,,,,,,,,,,,,,,,,,,,,,,,,,,,,,,,,,,,,,,,,,,,,,,,,,,,,,,,,,,,,,,,,,,,,
,,,,,,,,,,stimuli/images/PICTURE_658.png,DEVIL,5c1a59395b2ab700015af793,01/01/1990,2020-08-13_12h53.34.302,proactive2,2020.1.2,MacIntel,60,5f341be081b9052c55068110,5f352791513d7347e9b3dfb3,2,0,0,0,3,1,crow,,,,,,,,,,,,,,,,,,,,,,,,,,,,,,,,,,,,,,,,,,,,,,,,,,,,,,,,,,,,,,,,,,,,,,,,,,,,,,,,,,,,,,,,,,,,,,,,,,,,,,,,,,,,,,,
,,,,,,,,,,stimuli/images/PICTURE_727.png,CELL,5c1a59395b2ab700015af793,01/01/1990,2020-08-13_12h53.34.302,proactive2,2020.1.2,MacIntel,60,5f341be081b9052c55068110,5f352791513d7347e9b3dfb3,2,0,1,1,1,1,hose,,,,,,,,,,,,,,,,,,,,,,,,,,,,,,,,,,,,,,,,,,,,,,,,,,,,,,,,,,,,,,,,,,,,,,,,,,,,,,,,,,,,,,,,,,,,,,,,,,,,,,,,,,,,,,,
,,,,,,,,,,stimuli/images/PICTURE_378.png,LOSS,5c1a59395b2ab700015af793,01/01/1990,2020-08-13_12h53.34.302,proactive2,2020.1.2,MacIntel,60,5f341be081b9052c55068110,5f352791513d7347e9b3dfb3,2,0,2,2,2,1,lobster,,,,,,,,,,,,,,,,,,,,,,,,,,,,,,,,,,,,,,,,,,,,,,,,,,,,,,,,,,,,,,,,,,,,,,,,,,,,,,,,,,,,,,,,,,,,,,,,,,,,,,,,,,,,,,,
,,,,,,,,,,stimuli/images/PICTURE_269.png,GENIUS,5c1a59395b2ab700015af793,01/01/1990,2020-08-13_12h53.34.302,proactive2,2020.1.2,MacIntel,60,5f341be081b9052c55068110,5f352791513d7347e9b3dfb3,2,0,3,3,0,1,chameleon,,,,,,,,,,,,,,,,,,,,,,,,,,,,,,,,,,,,,,,,,,,,,,,,,,,,,,,,,,,,,,,,,,,,,,,,,,,,,,,,,,,,,,,,,,,,,,,,,,,,,,,,,,,,,,,
,,CELL,3.948,1,,,,,,stimuli/images/PICTURE_727.png,CELL,5c1a59395b2ab700015af793,01/01/1990,2020-08-13_12h53.34.302,proactive2,2020.1.2,MacIntel,60,5f341be081b9052c55068110,5f352791513d7347e9b3dfb3,2,,,,,,hose,0,0,0,1,1,,,,,,,,,,,,,,,,,,,,,,,,,,,,,,,,,,,,,,,,,,,,,,,,,,,,,,,,,,,,,,,,,,,,,,,,,,,,,,,,,,,,,,,,,,,,,,,,,,,,,,,,,,
,,LOSS,1.6,1,,,,,,stimuli/images/PICTURE_378.png,LOSS,5c1a59395b2ab700015af793,01/01/1990,2020-08-13_12h53.34.302,proactive2,2020.1.2,MacIntel,60,5f341be081b9052c55068110,5f352791513d7347e9b3dfb3,2,,,,,,lobster,0,1,1,2,1,,,,,,,,,,,,,,,,,,,,,,,,,,,,,,,,,,,,,,,,,,,,,,,,,,,,,,,,,,,,,,,,,,,,,,,,,,,,,,,,,,,,,,,,,,,,,,,,,,,,,,,,,,
,,KILLER,2.217,1,,,,,,stimuli/images/PICTURE_697.png,KILLER,5c1a59395b2ab700015af793,01/01/1990,2020-08-13_12h53.34.302,proactive2,2020.1.2,MacIntel,60,5f341be081b9052c55068110,5f352791513d7347e9b3dfb3,2,,,,,,peach,0,2,2,4,1,,,,,,,,,,,,,,,,,,,,,,,,,,,,,,,,,,,,,,,,,,,,,,,,,,,,,,,,,,,,,,,,,,,,,,,,,,,,,,,,,,,,,,,,,,,,,,,,,,,,,,,,,,
,,DEVIL,2.601,1,,,,,,stimuli/images/PICTURE_658.png,DEVIL,5c1a59395b2ab700015af793,01/01/1990,2020-08-13_12h53.34.302,proactive2,2020.1.2,MacIntel,60,5f341be081b9052c55068110,5f352791513d7347e9b3dfb3,2,,,,,,crow,0,3,3,3,1,,,,,,,,,,,,,,,,,,,,,,,,,,,,,,,,,,,,,,,,,,,,,,,,,,,,,,,,,,,,,,,,,,,,,,,,,,,,,,,,,,,,,,,,,,,,,,,,,,,,,,,,,,
,,GENIUS,2.651,1,,,,,,stimuli/images/PICTURE_269.png,GENIUS,5c1a59395b2ab700015af793,01/01/1990,2020-08-13_12h53.34.302,proactive2,2020.1.2,MacIntel,60,5f341be081b9052c55068110,5f352791513d7347e9b3dfb3,2,,,,,,chameleon,0,4,4,0,1,,,,,,,,,,,,,,,,,,,,,,,,,,,,,,,,,,,,,,,,,,,,,,,,,,,,,,,,,,,,,,,,,,,,,,,,,,,,,,,,,,,,,,,,,,,,,,,,,,,,,,,,,,
,,,,,,,,,,stimuli/images/PICTURE_449.png,THING,5c1a59395b2ab700015af793,01/01/1990,2020-08-13_12h53.34.302,proactive2,2020.1.2,MacIntel,60,5f341be081b9052c55068110,5f352791513d7347e9b3dfb3,2,,,,,,bench,,,,,,0,0,0,59,1,6,0,,,,,,,,,,,,,,,,,,,,,,,,,,,,,,,,,,,,,,,,,,,,,,,,,,,,,,,,,,,,,,,,,,,,,,,,,,,,,,,,,,,,,,,,,,,,,,,,,,,
,,,,,,,,,,stimuli/images/PICTURE_509.png,PHOTO,5c1a59395b2ab700015af793,01/01/1990,2020-08-13_12h53.34.302,proactive2,2020.1.2,MacIntel,60,5f341be081b9052c55068110,5f352791513d7347e9b3dfb3,2,,,,,,telephone,,,,,,0,1,1,21,1,3,0,,,,,,,,,,,,,,,,,,,,,,,,,,,,,,,,,,,,,,,,,,,,,,,,,,,,,,,,,,,,,,,,,,,,,,,,,,,,,,,,,,,,,,,,,,,,,,,,,,,
,,,,,,,,,,stimuli/images/PICTURE_469.png,ARTIST,5c1a59395b2ab700015af793,01/01/1990,2020-08-13_12h53.34.302,proactive2,2020.1.2,MacIntel,60,5f341be081b9052c55068110,5f352791513d7347e9b3dfb3,2,,,,,,stool,,,,,,0,2,2,6,1,1,0,,,,,,,,,,,,,,,,,,,,,,,,,,,,,,,,,,,,,,,,,,,,,,,,,,,,,,,,,,,,,,,,,,,,,,,,,,,,,,,,,,,,,,,,,,,,,,,,,,,
,,,,,,,,,,stimuli/images/PICTURE_285.png,ADVICE,5c1a59395b2ab700015af793,01/01/1990,2020-08-13_12h53.34.302,proactive2,2020.1.2,MacIntel,60,5f341be081b9052c55068110,5f352791513d7347e9b3dfb3,2,,,,,,carrot,,,,,,0,3,3,12,1,2,0,,,,,,,,,,,,,,,,,,,,,,,,,,,,,,,,,,,,,,,,,,,,,,,,,,,,,,,,,,,,,,,,,,,,,,,,,,,,,,,,,,,,,,,,,,,,,,,,,,,
,,,,,,,,,,stimuli/images/PICTURE_692.png,MONTH,5c1a59395b2ab700015af793,01/01/1990,2020-08-13_12h53.34.302,proactive2,2020.1.2,MacIntel,60,5f341be081b9052c55068110,5f352791513d7347e9b3dfb3,2,,,,,,cherry,,,,,,0,4,4,16,1,2,0,,,,,,,,,,,,,,,,,,,,,,,,,,,,,,,,,,,,,,,,,,,,,,,,,,,,,,,,,,,,,,,,,,,,,,,,,,,,,,,,,,,,,,,,,,,,,,,,,,,
,,,,,,,,,,stimuli/images/PICTURE_314.png,SAKE,5c1a59395b2ab700015af793,01/01/1990,2020-08-13_12h53.34.302,proactive2,2020.1.2,MacIntel,60,5f341be081b9052c55068110,5f352791513d7347e9b3dfb3,2,,,,,,perfume,,,,,,0,5,5,7,1,1,0,,,,,,,,,,,,,,,,,,,,,,,,,,,,,,,,,,,,,,,,,,,,,,,,,,,,,,,,,,,,,,,,,,,,,,,,,,,,,,,,,,,,,,,,,,,,,,,,,,,
,,,,,,,,,,stimuli/images/PICTURE_255.png,AREA,5c1a59395b2ab700015af793,01/01/1990,2020-08-13_12h53.34.302,proactive2,2020.1.2,MacIntel,60,5f341be081b9052c55068110,5f352791513d7347e9b3dfb3,2,,,,,,shovel,,,,,,0,6,6,22,1,3,0,,,,,,,,,,,,,,,,,,,,,,,,,,,,,,,,,,,,,,,,,,,,,,,,,,,,,,,,,,,,,,,,,,,,,,,,,,,,,,,,,,,,,,,,,,,,,,,,,,,
,,,,,,,,,,stimuli/images/PICTURE_32.png,JUNGLE,5c1a59395b2ab700015af793,01/01/1990,2020-08-13_12h53.34.302,proactive2,2020.1.2,MacIntel,60,5f341be081b9052c55068110,5f352791513d7347e9b3dfb3,2,,,,,,crown,,,,,,0,7,7,45,1,5,0,,,,,,,,,,,,,,,,,,,,,,,,,,,,,,,,,,,,,,,,,,,,,,,,,,,,,,,,,,,,,,,,,,,,,,,,,,,,,,,,,,,,,,,,,,,,,,,,,,,
,,,,,,,,,,stimuli/images/PICTURE_348.png,SPEECH,5c1a59395b2ab700015af793,01/01/1990,2020-08-13_12h53.34.302,proactive2,2020.1.2,MacIntel,60,5f341be081b9052c55068110,5f352791513d7347e9b3dfb3,2,,,,,,pepper,,,,,,0,8,8,20,1,3,0,,,,,,,,,,,,,,,,,,,,,,,,,,,,,,,,,,,,,,,,,,,,,,,,,,,,,,,,,,,,,,,,,,,,,,,,,,,,,,,,,,,,,,,,,,,,,,,,,,,
,,,,,,,,,,stimuli/images/PICTURE_488.png,STYLE,5c1a59395b2ab700015af793,01/01/1990,2020-08-13_12h53.34.302,proactive2,2020.1.2,MacIntel,60,5f341be081b9052c55068110,5f352791513d7347e9b3dfb3,2,,,,,,sun,,,,,,0,9,9,33,1,4,0,,,,,,,,,,,,,,,,,,,,,,,,,,,,,,,,,,,,,,,,,,,,,,,,,,,,,,,,,,,,,,,,,,,,,,,,,,,,,,,,,,,,,,,,,,,,,,,,,,,
,,,,,,,,,,stimuli/images/PICTURE_744.png,SAKE,5c1a59395b2ab700015af793,01/01/1990,2020-08-13_12h53.34.302,proactive2,2020.1.2,MacIntel,60,5f341be081b9052c55068110,5f352791513d7347e9b3dfb3,2,,,,,,ring,,,,,,0,10,10,17,1,2,0,,,,,,,,,,,,,,,,,,,,,,,,,,,,,,,,,,,,,,,,,,,,,,,,,,,,,,,,,,,,,,,,,,,,,,,,,,,,,,,,,,,,,,,,,,,,,,,,,,,
,,,,,,,,,,stimuli/images/PICTURE_469.png,LETTER,5c1a59395b2ab700015af793,01/01/1990,2020-08-13_12h53.34.302,proactive2,2020.1.2,MacIntel,60,5f341be081b9052c55068110,5f352791513d7347e9b3dfb3,2,,,,,,stool,,,,,,0,11,11,42,1,5,0,,,,,,,,,,,,,,,,,,,,,,,,,,,,,,,,,,,,,,,,,,,,,,,,,,,,,,,,,,,,,,,,,,,,,,,,,,,,,,,,,,,,,,,,,,,,,,,,,,,
,,,,,,,,,,stimuli/images/PICTURE_339.png,PLENTY,5c1a59395b2ab700015af793,01/01/1990,2020-08-13_12h53.34.302,proactive2,2020.1.2,MacIntel,60,5f341be081b9052c55068110,5f352791513d7347e9b3dfb3,2,,,,,,backpack,,,,,,0,12,12,0,1,1,0,,,,,,,,,,,,,,,,,,,,,,,,,,,,,,,,,,,,,,,,,,,,,,,,,,,,,,,,,,,,,,,,,,,,,,,,,,,,,,,,,,,,,,,,,,,,,,,,,,,
,,,,,,,,,,stimuli/images/PICTURE_667.png,PLENTY,5c1a59395b2ab700015af793,01/01/1990,2020-08-13_12h53.34.302,proactive2,2020.1.2,MacIntel,60,5f341be081b9052c55068110,5f352791513d7347e9b3dfb3,2,,,,,,daisy,,,,,,0,13,13,41,1,5,0,,,,,,,,,,,,,,,,,,,,,,,,,,,,,,,,,,,,,,,,,,,,,,,,,,,,,,,,,,,,,,,,,,,,,,,,,,,,,,,,,,,,,,,,,,,,,,,,,,,
,,,,,,,,,,stimuli/images/PICTURE_491.png,WRITER,5c1a59395b2ab700015af793,01/01/1990,2020-08-13_12h53.34.302,proactive2,2020.1.2,MacIntel,60,5f341be081b9052c55068110,5f352791513d7347e9b3dfb3,2,,,,,,rug,,,,,,0,14,14,57,1,6,0,,,,,,,,,,,,,,,,,,,,,,,,,,,,,,,,,,,,,,,,,,,,,,,,,,,,,,,,,,,,,,,,,,,,,,,,,,,,,,,,,,,,,,,,,,,,,,,,,,,
,,,,,,,,,,stimuli/images/PICTURE_233.png,IDEAS,5c1a59395b2ab700015af793,01/01/1990,2020-08-13_12h53.34.302,proactive2,2020.1.2,MacIntel,60,5f341be081b9052c55068110,5f352791513d7347e9b3dfb3,2,,,,,,salt,,,,,,0,15,15,28,1,3,0,,,,,,,,,,,,,,,,,,,,,,,,,,,,,,,,,,,,,,,,,,,,,,,,,,,,,,,,,,,,,,,,,,,,,,,,,,,,,,,,,,,,,,,,,,,,,,,,,,,
,,,,,,,,,,stimuli/images/PICTURE_302.png,FAMILY,5c1a59395b2ab700015af793,01/01/1990,2020-08-13_12h53.34.302,proactive2,2020.1.2,MacIntel,60,5f341be081b9052c55068110,5f352791513d7347e9b3dfb3,2,,,,,,taxi,,,,,,0,16,16,18,1,2,0,,,,,,,,,,,,,,,,,,,,,,,,,,,,,,,,,,,,,,,,,,,,,,,,,,,,,,,,,,,,,,,,,,,,,,,,,,,,,,,,,,,,,,,,,,,,,,,,,,,
,,,,,,,,,,stimuli/images/PICTURE_177.png,CARS,5c1a59395b2ab700015af793,01/01/1990,2020-08-13_12h53.34.302,proactive2,2020.1.2,MacIntel,60,5f341be081b9052c55068110,5f352791513d7347e9b3dfb3,2,,,,,,mushroom,,,,,,0,17,17,35,1,4,0,,,,,,,,,,,,,,,,,,,,,,,,,,,,,,,,,,,,,,,,,,,,,,,,,,,,,,,,,,,,,,,,,,,,,,,,,,,,,,,,,,,,,,,,,,,,,,,,,,,
,,,,,,,,,,stimuli/images/PICTURE_85.png,THING,5c1a59395b2ab700015af793,01/01/1990,2020-08-13_12h53.34.302,proactive2,2020.1.2,MacIntel,60,5f341be081b9052c55068110,5f352791513d7347e9b3dfb3,2,,,,,,diamond,,,,,,0,18,18,15,1,2,0,,,,,,,,,,,,,,,,,,,,,,,,,,,,,,,,,,,,,,,,,,,,,,,,,,,,,,,,,,,,,,,,,,,,,,,,,,,,,,,,,,,,,,,,,,,,,,,,,,,
,,,,,,,,,,stimuli/images/PICTURE_311.png,BEAUTY,5c1a59395b2ab700015af793,01/01/1990,2020-08-13_12h53.34.302,proactive2,2020.1.2,MacIntel,60,5f341be081b9052c55068110,5f352791513d7347e9b3dfb3,2,,,,,,razor,,,,,,0,19,19,13,1,2,0,,,,,,,,,,,,,,,,,,,,,,,,,,,,,,,,,,,,,,,,,,,,,,,,,,,,,,,,,,,,,,,,,,,,,,,,,,,,,,,,,,,,,,,,,,,,,,,,,,,
,,,,,,,,,,stimuli/images/PICTURE_470.png,CASINO,5c1a59395b2ab700015af793,01/01/1990,2020-08-13_12h53.34.302,proactive2,2020.1.2,MacIntel,60,5f341be081b9052c55068110,5f352791513d7347e9b3dfb3,2,,,,,,motorbike,,,,,,0,20,20,36,1,4,0,,,,,,,,,,,,,,,,,,,,,,,,,,,,,,,,,,,,,,,,,,,,,,,,,,,,,,,,,,,,,,,,,,,,,,,,,,,,,,,,,,,,,,,,,,,,,,,,,,,
,,,,,,,,,,stimuli/images/PICTURE_504.png,BODY,5c1a59395b2ab700015af793,01/01/1990,2020-08-13_12h53.34.302,proactive2,2020.1.2,MacIntel,60,5f341be081b9052c55068110,5f352791513d7347e9b3dfb3,2,,,,,,wheel,,,,,,0,21,21,8,1,1,0,,,,,,,,,,,,,,,,,,,,,,,,,,,,,,,,,,,,,,,,,,,,,,,,,,,,,,,,,,,,,,,,,,,,,,,,,,,,,,,,,,,,,,,,,,,,,,,,,,,
,,,,,,,,,,stimuli/images/PICTURE_215.png,PLENTY,5c1a59395b2ab700015af793,01/01/1990,2020-08-13_12h53.34.302,proactive2,2020.1.2,MacIntel,60,5f341be081b9052c55068110,5f352791513d7347e9b3dfb3,2,,,,,,boot,,,,,,0,22,22,37,1,4,0,,,,,,,,,,,,,,,,,,,,,,,,,,,,,,,,,,,,,,,,,,,,,,,,,,,,,,,,,,,,,,,,,,,,,,,,,,,,,,,,,,,,,,,,,,,,,,,,,,,
,,,,,,,,,,stimuli/images/PICTURE_380.png,PHOTO,5c1a59395b2ab700015af793,01/01/1990,2020-08-13_12h53.34.302,proactive2,2020.1.2,MacIntel,60,5f341be081b9052c55068110,5f352791513d7347e9b3dfb3,2,,,,,,gorilla,,,,,,0,23,23,52,1,6,0,,,,,,,,,,,,,,,,,,,,,,,,,,,,,,,,,,,,,,,,,,,,,,,,,,,,,,,,,,,,,,,,,,,,,,,,,,,,,,,,,,,,,,,,,,,,,,,,,,,
,,,,,,,,,,stimuli/images/PICTURE_453.png,PLENTY,5c1a59395b2ab700015af793,01/01/1990,2020-08-13_12h53.34.302,proactive2,2020.1.2,MacIntel,60,5f341be081b9052c55068110,5f352791513d7347e9b3dfb3,2,,,,,,scissors,,,,,,0,24,24,56,1,6,0,,,,,,,,,,,,,,,,,,,,,,,,,,,,,,,,,,,,,,,,,,,,,,,,,,,,,,,,,,,,,,,,,,,,,,,,,,,,,,,,,,,,,,,,,,,,,,,,,,,
,,,,,,,,,,stimuli/images/PICTURE_708.png,YARD,5c1a59395b2ab700015af793,01/01/1990,2020-08-13_12h53.34.302,proactive2,2020.1.2,MacIntel,60,5f341be081b9052c55068110,5f352791513d7347e9b3dfb3,2,,,,,,monkey,,,,,,0,25,25,29,1,3,0,,,,,,,,,,,,,,,,,,,,,,,,,,,,,,,,,,,,,,,,,,,,,,,,,,,,,,,,,,,,,,,,,,,,,,,,,,,,,,,,,,,,,,,,,,,,,,,,,,,
,,,,,,,,,,stimuli/images/PICTURE_160.png,LEADER,5c1a59395b2ab700015af793,01/01/1990,2020-08-13_12h53.34.302,proactive2,2020.1.2,MacIntel,60,5f341be081b9052c55068110,5f352791513d7347e9b3dfb3,2,,,,,,wheelbarrow,,,,,,0,26,26,3,1,1,0,,,,,,,,,,,,,,,,,,,,,,,,,,,,,,,,,,,,,,,,,,,,,,,,,,,,,,,,,,,,,,,,,,,,,,,,,,,,,,,,,,,,,,,,,,,,,,,,,,,
,,,,,,,,,,stimuli/images/PICTURE_654.png,VALLEY,5c1a59395b2ab700015af793,01/01/1990,2020-08-13_12h53.34.302,proactive2,2020.1.2,MacIntel,60,5f341be081b9052c55068110,5f352791513d7347e9b3dfb3,2,,,,,,pencil,,,,,,0,27,27,1,1,1,0,,,,,,,,,,,,,,,,,,,,,,,,,,,,,,,,,,,,,,,,,,,,,,,,,,,,,,,,,,,,,,,,,,,,,,,,,,,,,,,,,,,,,,,,,,,,,,,,,,,
,,,,,,,,,,stimuli/images/PICTURE_356.png,DANGER,5c1a59395b2ab700015af793,01/01/1990,2020-08-13_12h53.34.302,proactive2,2020.1.2,MacIntel,60,5f341be081b9052c55068110,5f352791513d7347e9b3dfb3,2,,,,,,pawn,,,,,,0,28,28,55,1,6,0,,,,,,,,,,,,,,,,,,,,,,,,,,,,,,,,,,,,,,,,,,,,,,,,,,,,,,,,,,,,,,,,,,,,,,,,,,,,,,,,,,,,,,,,,,,,,,,,,,,
,,,,,,,,,,stimuli/images/PICTURE_308.png,ESTATE,5c1a59395b2ab700015af793,01/01/1990,2020-08-13_12h53.34.302,proactive2,2020.1.2,MacIntel,60,5f341be081b9052c55068110,5f352791513d7347e9b3dfb3,2,,,,,,dice,,,,,,0,29,29,46,1,5,0,,,,,,,,,,,,,,,,,,,,,,,,,,,,,,,,,,,,,,,,,,,,,,,,,,,,,,,,,,,,,,,,,,,,,,,,,,,,,,,,,,,,,,,,,,,,,,,,,,,
,,,,,,,,,,stimuli/images/PICTURE_675.png,WEAPON,5c1a59395b2ab700015af793,01/01/1990,2020-08-13_12h53.34.302,proactive2,2020.1.2,MacIntel,60,5f341be081b9052c55068110,5f352791513d7347e9b3dfb3,2,,,,,,windmill,,,,,,0,30,30,32,1,4,0,,,,,,,,,,,,,,,,,,,,,,,,,,,,,,,,,,,,,,,,,,,,,,,,,,,,,,,,,,,,,,,,,,,,,,,,,,,,,,,,,,,,,,,,,,,,,,,,,,,
,,,,,,,,,,stimuli/images/PICTURE_708.png,PENNY,5c1a59395b2ab700015af793,01/01/1990,2020-08-13_12h53.34.302,proactive2,2020.1.2,MacIntel,60,5f341be081b9052c55068110,5f352791513d7347e9b3dfb3,2,,,,,,monkey,,,,,,0,31,31,31,1,4,0,,,,,,,,,,,,,,,,,,,,,,,,,,,,,,,,,,,,,,,,,,,,,,,,,,,,,,,,,,,,,,,,,,,,,,,,,,,,,,,,,,,,,,,,,,,,,,,,,,,
,,,,,,,,,,stimuli/images/PICTURE_68.png,MILE,5c1a59395b2ab700015af793,01/01/1990,2020-08-13_12h53.34.302,proactive2,2020.1.2,MacIntel,60,5f341be081b9052c55068110,5f352791513d7347e9b3dfb3,2,,,,,,candle,,,,,,0,32,32,44,1,5,0,,,,,,,,,,,,,,,,,,,,,,,,,,,,,,,,,,,,,,,,,,,,,,,,,,,,,,,,,,,,,,,,,,,,,,,,,,,,,,,,,,,,,,,,,,,,,,,,,,,
,,,,,,,,,,stimuli/images/PICTURE_147.png,MOMENT,5c1a59395b2ab700015af793,01/01/1990,2020-08-13_12h53.34.302,proactive2,2020.1.2,MacIntel,60,5f341be081b9052c55068110,5f352791513d7347e9b3dfb3,2,,,,,,hanger,,,,,,0,33,33,51,1,6,0,,,,,,,,,,,,,,,,,,,,,,,,,,,,,,,,,,,,,,,,,,,,,,,,,,,,,,,,,,,,,,,,,,,,,,,,,,,,,,,,,,,,,,,,,,,,,,,,,,,
,,,,,,,,,,stimuli/images/PICTURE_708.png,CLIENT,5c1a59395b2ab700015af793,01/01/1990,2020-08-13_12h53.34.302,proactive2,2020.1.2,MacIntel,60,5f341be081b9052c55068110,5f352791513d7347e9b3dfb3,2,,,,,,monkey,,,,,,0,34,34,5,1,1,0,,,,,,,,,,,,,,,,,,,,,,,,,,,,,,,,,,,,,,,,,,,,,,,,,,,,,,,,,,,,,,,,,,,,,,,,,,,,,,,,,,,,,,,,,,,,,,,,,,,
,,,,,,,,,,stimuli/images/PICTURE_491.png,ROOF,5c1a59395b2ab700015af793,01/01/1990,2020-08-13_12h53.34.302,proactive2,2020.1.2,MacIntel,60,5f341be081b9052c55068110,5f352791513d7347e9b3dfb3,2,,,,,,rug,,,,,,0,35,35,24,1,3,0,,,,,,,,,,,,,,,,,,,,,,,,,,,,,,,,,,,,,,,,,,,,,,,,,,,,,,,,,,,,,,,,,,,,,,,,,,,,,,,,,,,,,,,,,,,,,,,,,,,
,,,,,,,,,,stimuli/images/PICTURE_123.png,ADVICE,5c1a59395b2ab700015af793,01/01/1990,2020-08-13_12h53.34.302,proactive2,2020.1.2,MacIntel,60,5f341be081b9052c55068110,5f352791513d7347e9b3dfb3,2,,,,,,dart,,,,,,0,36,36,50,1,6,0,,,,,,,,,,,,,,,,,,,,,,,,,,,,,,,,,,,,,,,,,,,,,,,,,,,,,,,,,,,,,,,,,,,,,,,,,,,,,,,,,,,,,,,,,,,,,,,,,,,
,,,,,,,,,,stimuli/images/PICTURE_208.png,THING,5c1a59395b2ab700015af793,01/01/1990,2020-08-13_12h53.34.302,proactive2,2020.1.2,MacIntel,60,5f341be081b9052c55068110,5f352791513d7347e9b3dfb3,2,,,,,,microphone,,,,,,0,37,37,47,1,5,0,,,,,,,,,,,,,,,,,,,,,,,,,,,,,,,,,,,,,,,,,,,,,,,,,,,,,,,,,,,,,,,,,,,,,,,,,,,,,,,,,,,,,,,,,,,,,,,,,,,
,,,,,,,,,,stimuli/images/PICTURE_380.png,DEATH,5c1a59395b2ab700015af793,01/01/1990,2020-08-13_12h53.34.302,proactive2,2020.1.2,MacIntel,60,5f341be081b9052c55068110,5f352791513d7347e9b3dfb3,2,,,,,,gorilla,,,,,,0,38,38,49,1,5,0,,,,,,,,,,,,,,,,,,,,,,,,,,,,,,,,,,,,,,,,,,,,,,,,,,,,,,,,,,,,,,,,,,,,,,,,,,,,,,,,,,,,,,,,,,,,,,,,,,,
,,,,,,,,,,stimuli/images/PICTURE_208.png,LOTS,5c1a59395b2ab700015af793,01/01/1990,2020-08-13_12h53.34.302,proactive2,2020.1.2,MacIntel,60,5f341be081b9052c55068110,5f352791513d7347e9b3dfb3,2,,,,,,microphone,,,,,,0,39,39,10,1,2,0,,,,,,,,,,,,,,,,,,,,,,,,,,,,,,,,,,,,,,,,,,,,,,,,,,,,,,,,,,,,,,,,,,,,,,,,,,,,,,,,,,,,,,,,,,,,,,,,,,,
,,,,,,,,,,stimuli/images/PICTURE_203.png,ARTIST,5c1a59395b2ab700015af793,01/01/1990,2020-08-13_12h53.34.302,proactive2,2020.1.2,MacIntel,60,5f341be081b9052c55068110,5f352791513d7347e9b3dfb3,2,,,,,,cap,,,,,,0,40,40,26,1,3,0,,,,,,,,,,,,,,,,,,,,,,,,,,,,,,,,,,,,,,,,,,,,,,,,,,,,,,,,,,,,,,,,,,,,,,,,,,,,,,,,,,,,,,,,,,,,,,,,,,,
,,,,,,,,,,stimuli/images/PICTURE_327.png,BEAUTY,5c1a59395b2ab700015af793,01/01/1990,2020-08-13_12h53.34.302,proactive2,2020.1.2,MacIntel,60,5f341be081b9052c55068110,5f352791513d7347e9b3dfb3,2,,,,,,helmet,,,,,,0,41,41,48,1,5,0,,,,,,,,,,,,,,,,,,,,,,,,,,,,,,,,,,,,,,,,,,,,,,,,,,,,,,,,,,,,,,,,,,,,,,,,,,,,,,,,,,,,,,,,,,,,,,,,,,,
,,,,,,,,,,stimuli/images/PICTURE_677.png,MILE,5c1a59395b2ab700015af793,01/01/1990,2020-08-13_12h53.34.302,proactive2,2020.1.2,MacIntel,60,5f341be081b9052c55068110,5f352791513d7347e9b3dfb3,2,,,,,,map,,,,,,0,42,42,30,1,4,0,,,,,,,,,,,,,,,,,,,,,,,,,,,,,,,,,,,,,,,,,,,,,,,,,,,,,,,,,,,,,,,,,,,,,,,,,,,,,,,,,,,,,,,,,,,,,,,,,,,
,,,,,,,,,,stimuli/images/PICTURE_160.png,FEET,5c1a59395b2ab700015af793,01/01/1990,2020-08-13_12h53.34.302,proactive2,2020.1.2,MacIntel,60,5f341be081b9052c55068110,5f352791513d7347e9b3dfb3,2,,,,,,wheelbarrow,,,,,,0,43,43,58,1,6,0,,,,,,,,,,,,,,,,,,,,,,,,,,,,,,,,,,,,,,,,,,,,,,,,,,,,,,,,,,,,,,,,,,,,,,,,,,,,,,,,,,,,,,,,,,,,,,,,,,,
,,,,,,,,,,stimuli/images/PICTURE_467.png,DEMON,5c1a59395b2ab700015af793,01/01/1990,2020-08-13_12h53.34.302,proactive2,2020.1.2,MacIntel,60,5f341be081b9052c55068110,5f352791513d7347e9b3dfb3,2,,,,,,peg,,,,,,0,44,44,23,1,3,0,,,,,,,,,,,,,,,,,,,,,,,,,,,,,,,,,,,,,,,,,,,,,,,,,,,,,,,,,,,,,,,,,,,,,,,,,,,,,,,,,,,,,,,,,,,,,,,,,,,
,,,,,,,,,,stimuli/images/PICTURE_208.png,MONTH,5c1a59395b2ab700015af793,01/01/1990,2020-08-13_12h53.34.302,proactive2,2020.1.2,MacIntel,60,5f341be081b9052c55068110,5f352791513d7347e9b3dfb3,2,,,,,,microphone,,,,,,0,45,45,53,1,6,0,,,,,,,,,,,,,,,,,,,,,,,,,,,,,,,,,,,,,,,,,,,,,,,,,,,,,,,,,,,,,,,,,,,,,,,,,,,,,,,,,,,,,,,,,,,,,,,,,,,
,,,,,,,,,,stimuli/images/PICTURE_95.png,STYLE,5c1a59395b2ab700015af793,01/01/1990,2020-08-13_12h53.34.302,proactive2,2020.1.2,MacIntel,60,5f341be081b9052c55068110,5f352791513d7347e9b3dfb3,2,,,,,,suitcase,,,,,,0,46,46,25,1,3,0,,,,,,,,,,,,,,,,,,,,,,,,,,,,,,,,,,,,,,,,,,,,,,,,,,,,,,,,,,,,,,,,,,,,,,,,,,,,,,,,,,,,,,,,,,,,,,,,,,,
,,,,,,,,,,stimuli/images/PICTURE_667.png,BATH,5c1a59395b2ab700015af793,01/01/1990,2020-08-13_12h53.34.302,proactive2,2020.1.2,MacIntel,60,5f341be081b9052c55068110,5f352791513d7347e9b3dfb3,2,,,,,,daisy,,,,,,0,47,47,4,1,1,0,,,,,,,,,,,,,,,,,,,,,,,,,,,,,,,,,,,,,,,,,,,,,,,,,,,,,,,,,,,,,,,,,,,,,,,,,,,,,,,,,,,,,,,,,,,,,,,,,,,
,,,,,,,,,,stimuli/images/PICTURE_487.png,FLIGHT,5c1a59395b2ab700015af793,01/01/1990,2020-08-13_12h53.34.302,proactive2,2020.1.2,MacIntel,60,5f341be081b9052c55068110,5f352791513d7347e9b3dfb3,2,,,,,,basket,,,,,,0,48,48,9,1,1,0,,,,,,,,,,,,,,,,,,,,,,,,,,,,,,,,,,,,,,,,,,,,,,,,,,,,,,,,,,,,,,,,,,,,,,,,,,,,,,,,,,,,,,,,,,,,,,,,,,,
,,,,,,,,,,stimuli/images/PICTURE_151.png,GIRL,5c1a59395b2ab700015af793,01/01/1990,2020-08-13_12h53.34.302,proactive2,2020.1.2,MacIntel,60,5f341be081b9052c55068110,5f352791513d7347e9b3dfb3,2,,,,,,tray,,,,,,0,49,49,19,1,2,0,,,,,,,,,,,,,,,,,,,,,,,,,,,,,,,,,,,,,,,,,,,,,,,,,,,,,,,,,,,,,,,,,,,,,,,,,,,,,,,,,,,,,,,,,,,,,,,,,,,
,,,,,,,,,,stimuli/images/PICTURE_453.png,DUDE,5c1a59395b2ab700015af793,01/01/1990,2020-08-13_12h53.34.302,proactive2,2020.1.2,MacIntel,60,5f341be081b9052c55068110,5f352791513d7347e9b3dfb3,2,,,,,,scissors,,,,,,0,50,50,27,1,3,0,,,,,,,,,,,,,,,,,,,,,,,,,,,,,,,,,,,,,,,,,,,,,,,,,,,,,,,,,,,,,,,,,,,,,,,,,,,,,,,,,,,,,,,,,,,,,,,,,,,
,,,,,,,,,,stimuli/images/PICTURE_123.png,ADVICE,5c1a59395b2ab700015af793,01/01/1990,2020-08-13_12h53.34.302,proactive2,2020.1.2,MacIntel,60,5f341be081b9052c55068110,5f352791513d7347e9b3dfb3,2,,,,,,dart,,,,,,0,51,51,40,1,5,0,,,,,,,,,,,,,,,,,,,,,,,,,,,,,,,,,,,,,,,,,,,,,,,,,,,,,,,,,,,,,,,,,,,,,,,,,,,,,,,,,,,,,,,,,,,,,,,,,,,
,,,,,,,,,,stimuli/images/PICTURE_744.png,SYSTEM,5c1a59395b2ab700015af793,01/01/1990,2020-08-13_12h53.34.302,proactive2,2020.1.2,MacIntel,60,5f341be081b9052c55068110,5f352791513d7347e9b3dfb3,2,,,,,,ring,,,,,,0,52,52,43,1,5,0,,,,,,,,,,,,,,,,,,,,,,,,,,,,,,,,,,,,,,,,,,,,,,,,,,,,,,,,,,,,,,,,,,,,,,,,,,,,,,,,,,,,,,,,,,,,,,,,,,,
,,,,,,,,,,stimuli/images/PICTURE_314.png,GODS,5c1a59395b2ab700015af793,01/01/1990,2020-08-13_12h53.34.302,proactive2,2020.1.2,MacIntel,60,5f341be081b9052c55068110,5f352791513d7347e9b3dfb3,2,,,,,,perfume,,,,,,0,53,53,11,1,2,0,,,,,,,,,,,,,,,,,,,,,,,,,,,,,,,,,,,,,,,,,,,,,,,,,,,,,,,,,,,,,,,,,,,,,,,,,,,,,,,,,,,,,,,,,,,,,,,,,,,
,,,,,,,,,,stimuli/images/PICTURE_248.png,DOZEN,5c1a59395b2ab700015af793,01/01/1990,2020-08-13_12h53.34.302,proactive2,2020.1.2,MacIntel,60,5f341be081b9052c55068110,5f352791513d7347e9b3dfb3,2,,,,,,cart,,,,,,0,54,54,39,1,4,0,,,,,,,,,,,,,,,,,,,,,,,,,,,,,,,,,,,,,,,,,,,,,,,,,,,,,,,,,,,,,,,,,,,,,,,,,,,,,,,,,,,,,,,,,,,,,,,,,,,
,,,,,,,,,,stimuli/images/PICTURE_688.png,WOMEN,5c1a59395b2ab700015af793,01/01/1990,2020-08-13_12h53.34.302,proactive2,2020.1.2,MacIntel,60,5f341be081b9052c55068110,5f352791513d7347e9b3dfb3,2,,,,,,runner,,,,,,0,55,55,14,1,2,0,,,,,,,,,,,,,,,,,,,,,,,,,,,,,,,,,,,,,,,,,,,,,,,,,,,,,,,,,,,,,,,,,,,,,,,,,,,,,,,,,,,,,,,,,,,,,,,,,,,
,,,,,,,,,,stimuli/images/PICTURE_233.png,WOMEN,5c1a59395b2ab700015af793,01/01/1990,2020-08-13_12h53.34.302,proactive2,2020.1.2,MacIntel,60,5f341be081b9052c55068110,5f352791513d7347e9b3dfb3,2,,,,,,salt,,,,,,0,56,56,38,1,4,0,,,,,,,,,,,,,,,,,,,,,,,,,,,,,,,,,,,,,,,,,,,,,,,,,,,,,,,,,,,,,,,,,,,,,,,,,,,,,,,,,,,,,,,,,,,,,,,,,,,
,,,,,,,,,,stimuli/images/PICTURE_311.png,FRIEND,5c1a59395b2ab700015af793,01/01/1990,2020-08-13_12h53.34.302,proactive2,2020.1.2,MacIntel,60,5f341be081b9052c55068110,5f352791513d7347e9b3dfb3,2,,,,,,razor,,,,,,0,57,57,34,1,4,0,,,,,,,,,,,,,,,,,,,,,,,,,,,,,,,,,,,,,,,,,,,,,,,,,,,,,,,,,,,,,,,,,,,,,,,,,,,,,,,,,,,,,,,,,,,,,,,,,,,
,,,,,,,,,,stimuli/images/PICTURE_688.png,CASINO,5c1a59395b2ab700015af793,01/01/1990,2020-08-13_12h53.34.302,proactive2,2020.1.2,MacIntel,60,5f341be081b9052c55068110,5f352791513d7347e9b3dfb3,2,,,,,,runner,,,,,,0,58,58,2,1,1,0,,,,,,,,,,,,,,,,,,,,,,,,,,,,,,,,,,,,,,,,,,,,,,,,,,,,,,,,,,,,,,,,,,,,,,,,,,,,,,,,,,,,,,,,,,,,,,,,,,,
,,?,0.001,0,,,,,,stimuli/images/PICTURE_308.png,ESTATE,5c1a59395b2ab700015af793,01/01/1990,2020-08-13_12h53.34.302,proactive2,2020.1.2,MacIntel,60,5f341be081b9052c55068110,5f352791513d7347e9b3dfb3,2,,,,,,dice,,,,,,,,,,,5,0,0,0,0,46,1,,,,,,,,,,,,,,,,,,,,,,,,,,,,,,,,,,,,,,,,,,,,,,,,,,,,,,,,,,,,,,,,,,,,,,,,,,,,,,,,,,,,,,,,,,,,,,
,,?,0.001,0,,,,,,stimuli/images/PICTURE_708.png,PENNY,5c1a59395b2ab700015af793,01/01/1990,2020-08-13_12h53.34.302,proactive2,2020.1.2,MacIntel,60,5f341be081b9052c55068110,5f352791513d7347e9b3dfb3,2,,,,,,monkey,,,,,,,,,,,4,0,0,1,1,31,1,,,,,,,,,,,,,,,,,,,,,,,,,,,,,,,,,,,,,,,,,,,,,,,,,,,,,,,,,,,,,,,,,,,,,,,,,,,,,,,,,,,,,,,,,,,,,,
,,THING,1.673,1,,,,,,stimuli/images/PICTURE_85.png,THING,5c1a59395b2ab700015af793,01/01/1990,2020-08-13_12h53.34.302,proactive2,2020.1.2,MacIntel,60,5f341be081b9052c55068110,5f352791513d7347e9b3dfb3,2,,,,,,diamond,,,,,,,,,,,2,0,0,2,2,15,1,,,,,,,,,,,,,,,,,,,,,,,,,,,,,,,,,,,,,,,,,,,,,,,,,,,,,,,,,,,,,,,,,,,,,,,,,,,,,,,,,,,,,,,,,,,,,,
,,?,0.002,0,,,,,,stimuli/images/PICTURE_308.png,KIND,5c1a59395b2ab700015af793,01/01/1990,2020-08-13_12h53.34.302,proactive2,2020.1.2,MacIntel,60,5f341be081b9052c55068110,5f352791513d7347e9b3dfb3,2,,,,,,dice,,,,,,,,,,,6,0,0,3,3,54,1,,,,,,,,,,,,,,,,,,,,,,,,,,,,,,,,,,,,,,,,,,,,,,,,,,,,,,,,,,,,,,,,,,,,,,,,,,,,,,,,,,,,,,,,,,,,,,
,,?,0.001,0,,,,,,stimuli/images/PICTURE_311.png,FRIEND,5c1a59395b2ab700015af793,01/01/1990,2020-08-13_12h53.34.302,proactive2,2020.1.2,MacIntel,60,5f341be081b9052c55068110,5f352791513d7347e9b3dfb3,2,,,,,,razor,,,,,,,,,,,4,0,0,4,4,34,1,,,,,,,,,,,,,,,,,,,,,,,,,,,,,,,,,,,,,,,,,,,,,,,,,,,,,,,,,,,,,,,,,,,,,,,,,,,,,,,,,,,,,,,,,,,,,,
,,?,0.001,0,,,,,,stimuli/images/PICTURE_504.png,BODY,5c1a59395b2ab700015af793,01/01/1990,2020-08-13_12h53.34.302,proactive2,2020.1.2,MacIntel,60,5f341be081b9052c55068110,5f352791513d7347e9b3dfb3,2,,,,,,wheel,,,,,,,,,,,1,0,0,5,5,8,1,,,,,,,,,,,,,,,,,,,,,,,,,,,,,,,,,,,,,,,,,,,,,,,,,,,,,,,,,,,,,,,,,,,,,,,,,,,,,,,,,,,,,,,,,,,,,,
,,?,0,0,,,,,,stimuli/images/PICTURE_32.png,JUNGLE,5c1a59395b2ab700015af793,01/01/1990,2020-08-13_12h53.34.302,proactive2,2020.1.2,MacIntel,60,5f341be081b9052c55068110,5f352791513d7347e9b3dfb3,2,,,,,,crown,,,,,,,,,,,5,0,0,6,6,45,1,,,,,,,,,,,,,,,,,,,,,,,,,,,,,,,,,,,,,,,,,,,,,,,,,,,,,,,,,,,,,,,,,,,,,,,,,,,,,,,,,,,,,,,,,,,,,,
,,?,0,0,,,,,,stimuli/images/PICTURE_233.png,IDEAS,5c1a59395b2ab700015af793,01/01/1990,2020-08-13_12h53.34.302,proactive2,2020.1.2,MacIntel,60,5f341be081b9052c55068110,5f352791513d7347e9b3dfb3,2,,,,,,salt,,,,,,,,,,,3,0,0,7,7,28,1,,,,,,,,,,,,,,,,,,,,,,,,,,,,,,,,,,,,,,,,,,,,,,,,,,,,,,,,,,,,,,,,,,,,,,,,,,,,,,,,,,,,,,,,,,,,,,
,,?,0.001,0,,,,,,stimuli/images/PICTURE_667.png,BATH,5c1a59395b2ab700015af793,01/01/1990,2020-08-13_12h53.34.302,proactive2,2020.1.2,MacIntel,60,5f341be081b9052c55068110,5f352791513d7347e9b3dfb3,2,,,,,,daisy,,,,,,,,,,,1,0,0,8,8,4,1,,,,,,,,,,,,,,,,,,,,,,,,,,,,,,,,,,,,,,,,,,,,,,,,,,,,,,,,,,,,,,,,,,,,,,,,,,,,,,,,,,,,,,,,,,,,,,
,,BEAUTY,2.121,1,,,,,,stimuli/images/PICTURE_311.png,BEAUTY,5c1a59395b2ab700015af793,01/01/1990,2020-08-13_12h53.34.302,proactive2,2020.1.2,MacIntel,60,5f341be081b9052c55068110,5f352791513d7347e9b3dfb3,2,,,,,,razor,,,,,,,,,,,2,0,0,9,9,13,1,,,,,,,,,,,,,,,,,,,,,,,,,,,,,,,,,,,,,,,,,,,,,,,,,,,,,,,,,,,,,,,,,,,,,,,,,,,,,,,,,,,,,,,,,,,,,,
,,FAMILY,2.084,1,,,,,,stimuli/images/PICTURE_302.png,FAMILY,5c1a59395b2ab700015af793,01/01/1990,2020-08-13_12h53.34.302,proactive2,2020.1.2,MacIntel,60,5f341be081b9052c55068110,5f352791513d7347e9b3dfb3,2,,,,,,taxi,,,,,,,,,,,2,0,0,10,10,18,1,,,,,,,,,,,,,,,,,,,,,,,,,,,,,,,,,,,,,,,,,,,,,,,,,,,,,,,,,,,,,,,,,,,,,,,,,,,,,,,,,,,,,,,,,,,,,,
,,?,0.001,0,,,,,,stimuli/images/PICTURE_327.png,BEAUTY,5c1a59395b2ab700015af793,01/01/1990,2020-08-13_12h53.34.302,proactive2,2020.1.2,MacIntel,60,5f341be081b9052c55068110,5f352791513d7347e9b3dfb3,2,,,,,,helmet,,,,,,,,,,,5,0,0,11,11,48,1,,,,,,,,,,,,,,,,,,,,,,,,,,,,,,,,,,,,,,,,,,,,,,,,,,,,,,,,,,,,,,,,,,,,,,,,,,,,,,,,,,,,,,,,,,,,,,
,,LOTS,2.43,1,,,,,,stimuli/images/PICTURE_208.png,LOTS,5c1a59395b2ab700015af793,01/01/1990,2020-08-13_12h53.34.302,proactive2,2020.1.2,MacIntel,60,5f341be081b9052c55068110,5f352791513d7347e9b3dfb3,2,,,,,,microphone,,,,,,,,,,,2,0,0,12,12,10,1,,,,,,,,,,,,,,,,,,,,,,,,,,,,,,,,,,,,,,,,,,,,,,,,,,,,,,,,,,,,,,,,,,,,,,,,,,,,,,,,,,,,,,,,,,,,,,
,,?,0.001,0,,,,,,stimuli/images/PICTURE_314.png,SAKE,5c1a59395b2ab700015af793,01/01/1990,2020-08-13_12h53.34.302,proactive2,2020.1.2,MacIntel,60,5f341be081b9052c55068110,5f352791513d7347e9b3dfb3,2,,,,,,perfume,,,,,,,,,,,1,0,0,13,13,7,1,,,,,,,,,,,,,,,,,,,,,,,,,,,,,,,,,,,,,,,,,,,,,,,,,,,,,,,,,,,,,,,,,,,,,,,,,,,,,,,,,,,,,,,,,,,,,,
,,?,0.001,0,,,,,,stimuli/images/PICTURE_123.png,ADVICE,5c1a59395b2ab700015af793,01/01/1990,2020-08-13_12h53.34.302,proactive2,2020.1.2,MacIntel,60,5f341be081b9052c55068110,5f352791513d7347e9b3dfb3,2,,,,,,dart,,,,,,,,,,,5,0,0,14,14,40,1,,,,,,,,,,,,,,,,,,,,,,,,,,,,,,,,,,,,,,,,,,,,,,,,,,,,,,,,,,,,,,,,,,,,,,,,,,,,,,,,,,,,,,,,,,,,,,
,,?,0,0,,,,,,stimuli/images/PICTURE_233.png,WOMEN,5c1a59395b2ab700015af793,01/01/1990,2020-08-13_12h53.34.302,proactive2,2020.1.2,MacIntel,60,5f341be081b9052c55068110,5f352791513d7347e9b3dfb3,2,,,,,,salt,,,,,,,,,,,4,0,0,15,15,38,1,,,,,,,,,,,,,,,,,,,,,,,,,,,,,,,,,,,,,,,,,,,,,,,,,,,,,,,,,,,,,,,,,,,,,,,,,,,,,,,,,,,,,,,,,,,,,,
,,?,0,0,,,,,,stimuli/images/PICTURE_491.png,WRITER,5c1a59395b2ab700015af793,01/01/1990,2020-08-13_12h53.34.302,proactive2,2020.1.2,MacIntel,60,5f341be081b9052c55068110,5f352791513d7347e9b3dfb3,2,,,,,,rug,,,,,,,,,,,6,0,0,16,16,57,1,,,,,,,,,,,,,,,,,,,,,,,,,,,,,,,,,,,,,,,,,,,,,,,,,,,,,,,,,,,,,,,,,,,,,,,,,,,,,,,,,,,,,,,,,,,,,,
,,?,0.001,0,,,,,,stimuli/images/PICTURE_469.png,ARTIST,5c1a59395b2ab700015af793,01/01/1990,2020-08-13_12h53.34.302,proactive2,2020.1.2,MacIntel,60,5f341be081b9052c55068110,5f352791513d7347e9b3dfb3,2,,,,,,stool,,,,,,,,,,,1,0,0,17,17,6,1,,,,,,,,,,,,,,,,,,,,,,,,,,,,,,,,,,,,,,,,,,,,,,,,,,,,,,,,,,,,,,,,,,,,,,,,,,,,,,,,,,,,,,,,,,,,,,
,,?,0.001,0,,,,,,stimuli/images/PICTURE_491.png,ROOF,5c1a59395b2ab700015af793,01/01/1990,2020-08-13_12h53.34.302,proactive2,2020.1.2,MacIntel,60,5f341be081b9052c55068110,5f352791513d7347e9b3dfb3,2,,,,,,rug,,,,,,,,,,,3,0,0,18,18,24,1,,,,,,,,,,,,,,,,,,,,,,,,,,,,,,,,,,,,,,,,,,,,,,,,,,,,,,,,,,,,,,,,,,,,,,,,,,,,,,,,,,,,,,,,,,,,,,
,,?,0.001,0,,,,,,stimuli/images/PICTURE_208.png,MONTH,5c1a59395b2ab700015af793,01/01/1990,2020-08-13_12h53.34.302,proactive2,2020.1.2,MacIntel,60,5f341be081b9052c55068110,5f352791513d7347e9b3dfb3,2,,,,,,microphone,,,,,,,,,,,6,0,0,19,19,53,1,,,,,,,,,,,,,,,,,,,,,,,,,,,,,,,,,,,,,,,,,,,,,,,,,,,,,,,,,,,,,,,,,,,,,,,,,,,,,,,,,,,,,,,,,,,,,,
,,?,0.001,0,,,,,,stimuli/images/PICTURE_453.png,DUDE,5c1a59395b2ab700015af793,01/01/1990,2020-08-13_12h53.34.302,proactive2,2020.1.2,MacIntel,60,5f341be081b9052c55068110,5f352791513d7347e9b3dfb3,2,,,,,,scissors,,,,,,,,,,,3,0,0,20,20,27,1,,,,,,,,,,,,,,,,,,,,,,,,,,,,,,,,,,,,,,,,,,,,,,,,,,,,,,,,,,,,,,,,,,,,,,,,,,,,,,,,,,,,,,,,,,,,,,
,,?,0.001,0,,,,,,stimuli/images/PICTURE_348.png,SPEECH,5c1a59395b2ab700015af793,01/01/1990,2020-08-13_12h53.34.302,proactive2,2020.1.2,MacIntel,60,5f341be081b9052c55068110,5f352791513d7347e9b3dfb3,2,,,,,,pepper,,,,,,,,,,,3,0,0,21,21,20,1,,,,,,,,,,,,,,,,,,,,,,,,,,,,,,,,,,,,,,,,,,,,,,,,,,,,,,,,,,,,,,,,,,,,,,,,,,,,,,,,,,,,,,,,,,,,,,
,,?,0.001,0,,,,,,stimuli/images/PICTURE_453.png,PLENTY,5c1a59395b2ab700015af793,01/01/1990,2020-08-13_12h53.34.302,proactive2,2020.1.2,MacIntel,60,5f341be081b9052c55068110,5f352791513d7347e9b3dfb3,2,,,,,,scissors,,,,,,,,,,,6,0,0,22,22,56,1,,,,,,,,,,,,,,,,,,,,,,,,,,,,,,,,,,,,,,,,,,,,,,,,,,,,,,,,,,,,,,,,,,,,,,,,,,,,,,,,,,,,,,,,,,,,,,
,,?,0.001,0,,,,,,stimuli/images/PICTURE_708.png,YARD,5c1a59395b2ab700015af793,01/01/1990,2020-08-13_12h53.34.302,proactive2,2020.1.2,MacIntel,60,5f341be081b9052c55068110,5f352791513d7347e9b3dfb3,2,,,,,,monkey,,,,,,,,,,,3,0,0,23,23,29,1,,,,,,,,,,,,,,,,,,,,,,,,,,,,,,,,,,,,,,,,,,,,,,,,,,,,,,,,,,,,,,,,,,,,,,,,,,,,,,,,,,,,,,,,,,,,,,
,,?,0.001,0,,,,,,stimuli/images/PICTURE_467.png,DEMON,5c1a59395b2ab700015af793,01/01/1990,2020-08-13_12h53.34.302,proactive2,2020.1.2,MacIntel,60,5f341be081b9052c55068110,5f352791513d7347e9b3dfb3,2,,,,,,peg,,,,,,,,,,,3,0,0,24,24,23,1,,,,,,,,,,,,,,,,,,,,,,,,,,,,,,,,,,,,,,,,,,,,,,,,,,,,,,,,,,,,,,,,,,,,,,,,,,,,,,,,,,,,,,,,,,,,,,
,,SAKE,1.677,1,,,,,,stimuli/images/PICTURE_744.png,SAKE,5c1a59395b2ab700015af793,01/01/1990,2020-08-13_12h53.34.302,proactive2,2020.1.2,MacIntel,60,5f341be081b9052c55068110,5f352791513d7347e9b3dfb3,2,,,,,,ring,,,,,,,,,,,2,0,0,25,25,17,1,,,,,,,,,,,,,,,,,,,,,,,,,,,,,,,,,,,,,,,,,,,,,,,,,,,,,,,,,,,,,,,,,,,,,,,,,,,,,,,,,,,,,,,,,,,,,,
,,?,0.002,0,,,,,,stimuli/images/PICTURE_509.png,PHOTO,5c1a59395b2ab700015af793,01/01/1990,2020-08-13_12h53.34.302,proactive2,2020.1.2,MacIntel,60,5f341be081b9052c55068110,5f352791513d7347e9b3dfb3,2,,,,,,telephone,,,,,,,,,,,3,0,0,26,26,21,1,,,,,,,,,,,,,,,,,,,,,,,,,,,,,,,,,,,,,,,,,,,,,,,,,,,,,,,,,,,,,,,,,,,,,,,,,,,,,,,,,,,,,,,,,,,,,,
,,?,0.001,0,,,,,,stimuli/images/PICTURE_708.png,CLIENT,5c1a59395b2ab700015af793,01/01/1990,2020-08-13_12h53.34.302,proactive2,2020.1.2,MacIntel,60,5f341be081b9052c55068110,5f352791513d7347e9b3dfb3,2,,,,,,monkey,,,,,,,,,,,1,0,0,27,27,5,1,,,,,,,,,,,,,,,,,,,,,,,,,,,,,,,,,,,,,,,,,,,,,,,,,,,,,,,,,,,,,,,,,,,,,,,,,,,,,,,,,,,,,,,,,,,,,,
,,?,0.001,0,,,,,,stimuli/images/PICTURE_487.png,FLIGHT,5c1a59395b2ab700015af793,01/01/1990,2020-08-13_12h53.34.302,proactive2,2020.1.2,MacIntel,60,5f341be081b9052c55068110,5f352791513d7347e9b3dfb3,2,,,,,,basket,,,,,,,,,,,1,0,0,28,28,9,1,,,,,,,,,,,,,,,,,,,,,,,,,,,,,,,,,,,,,,,,,,,,,,,,,,,,,,,,,,,,,,,,,,,,,,,,,,,,,,,,,,,,,,,,,,,,,,
,,?,0.001,0,,,,,,stimuli/images/PICTURE_248.png,DOZEN,5c1a59395b2ab700015af793,01/01/1990,2020-08-13_12h53.34.302,proactive2,2020.1.2,MacIntel,60,5f341be081b9052c55068110,5f352791513d7347e9b3dfb3,2,,,,,,cart,,,,,,,,,,,4,0,0,29,29,39,1,,,,,,,,,,,,,,,,,,,,,,,,,,,,,,,,,,,,,,,,,,,,,,,,,,,,,,,,,,,,,,,,,,,,,,,,,,,,,,,,,,,,,,,,,,,,,,
,,?,0.001,0,,,,,,stimuli/images/PICTURE_470.png,CASINO,5c1a59395b2ab700015af793,01/01/1990,2020-08-13_12h53.34.302,proactive2,2020.1.2,MacIntel,60,5f341be081b9052c55068110,5f352791513d7347e9b3dfb3,2,,,,,,motorbike,,,,,,,,,,,4,0,0,30,30,36,1,,,,,,,,,,,,,,,,,,,,,,,,,,,,,,,,,,,,,,,,,,,,,,,,,,,,,,,,,,,,,,,,,,,,,,,,,,,,,,,,,,,,,,,,,,,,,,
,,?,0.001,0,,,,,,stimuli/images/PICTURE_203.png,ARTIST,5c1a59395b2ab700015af793,01/01/1990,2020-08-13_12h53.34.302,proactive2,2020.1.2,MacIntel,60,5f341be081b9052c55068110,5f352791513d7347e9b3dfb3,2,,,,,,cap,,,,,,,,,,,3,0,0,31,31,26,1,,,,,,,,,,,,,,,,,,,,,,,,,,,,,,,,,,,,,,,,,,,,,,,,,,,,,,,,,,,,,,,,,,,,,,,,,,,,,,,,,,,,,,,,,,,,,,
,,?,0.001,0,,,,,,stimuli/images/PICTURE_95.png,STYLE,5c1a59395b2ab700015af793,01/01/1990,2020-08-13_12h53.34.302,proactive2,2020.1.2,MacIntel,60,5f341be081b9052c55068110,5f352791513d7347e9b3dfb3,2,,,,,,suitcase,,,,,,,,,,,3,0,0,32,32,25,1,,,,,,,,,,,,,,,,,,,,,,,,,,,,,,,,,,,,,,,,,,,,,,,,,,,,,,,,,,,,,,,,,,,,,,,,,,,,,,,,,,,,,,,,,,,,,,
,,?,0.001,0,,,,,,stimuli/images/PICTURE_356.png,DANGER,5c1a59395b2ab700015af793,01/01/1990,2020-08-13_12h53.34.302,proactive2,2020.1.2,MacIntel,60,5f341be081b9052c55068110,5f352791513d7347e9b3dfb3,2,,,,,,pawn,,,,,,,,,,,6,0,0,33,33,55,1,,,,,,,,,,,,,,,,,,,,,,,,,,,,,,,,,,,,,,,,,,,,,,,,,,,,,,,,,,,,,,,,,,,,,,,,,,,,,,,,,,,,,,,,,,,,,,
,,?,0.001,0,,,,,,stimuli/images/PICTURE_147.png,MOMENT,5c1a59395b2ab700015af793,01/01/1990,2020-08-13_12h53.34.302,proactive2,2020.1.2,MacIntel,60,5f341be081b9052c55068110,5f352791513d7347e9b3dfb3,2,,,,,,hanger,,,,,,,,,,,6,0,0,34,34,51,1,,,,,,,,,,,,,,,,,,,,,,,,,,,,,,,,,,,,,,,,,,,,,,,,,,,,,,,,,,,,,,,,,,,,,,,,,,,,,,,,,,,,,,,,,,,,,,
,,ADVICE,2.449,1,,,,,,stimuli/images/PICTURE_285.png,ADVICE,5c1a59395b2ab700015af793,01/01/1990,2020-08-13_12h53.34.302,proactive2,2020.1.2,MacIntel,60,5f341be081b9052c55068110,5f352791513d7347e9b3dfb3,2,,,,,,carrot,,,,,,,,,,,2,0,0,35,35,12,1,,,,,,,,,,,,,,,,,,,,,,,,,,,,,,,,,,,,,,,,,,,,,,,,,,,,,,,,,,,,,,,,,,,,,,,,,,,,,,,,,,,,,,,,,,,,,,
,,?,0.001,0,,,,,,stimuli/images/PICTURE_339.png,PLENTY,5c1a59395b2ab700015af793,01/01/1990,2020-08-13_12h53.34.302,proactive2,2020.1.2,MacIntel,60,5f341be081b9052c55068110,5f352791513d7347e9b3dfb3,2,,,,,,backpack,,,,,,,,,,,1,0,0,36,36,0,1,,,,,,,,,,,,,,,,,,,,,,,,,,,,,,,,,,,,,,,,,,,,,,,,,,,,,,,,,,,,,,,,,,,,,,,,,,,,,,,,,,,,,,,,,,,,,,
,,?,0.001,0,,,,,,stimuli/images/PICTURE_177.png,CARS,5c1a59395b2ab700015af793,01/01/1990,2020-08-13_12h53.34.302,proactive2,2020.1.2,MacIntel,60,5f341be081b9052c55068110,5f352791513d7347e9b3dfb3,2,,,,,,mushroom,,,,,,,,,,,4,0,0,37,37,35,1,,,,,,,,,,,,,,,,,,,,,,,,,,,,,,,,,,,,,,,,,,,,,,,,,,,,,,,,,,,,,,,,,,,,,,,,,,,,,,,,,,,,,,,,,,,,,,
,,?,0,0,,,,,,stimuli/images/PICTURE_469.png,LETTER,5c1a59395b2ab700015af793,01/01/1990,2020-08-13_12h53.34.302,proactive2,2020.1.2,MacIntel,60,5f341be081b9052c55068110,5f352791513d7347e9b3dfb3,2,,,,,,stool,,,,,,,,,,,5,0,0,38,38,42,1,,,,,,,,,,,,,,,,,,,,,,,,,,,,,,,,,,,,,,,,,,,,,,,,,,,,,,,,,,,,,,,,,,,,,,,,,,,,,,,,,,,,,,,,,,,,,,
,,?,0.001,0,,,,,,stimuli/images/PICTURE_688.png,CASINO,5c1a59395b2ab700015af793,01/01/1990,2020-08-13_12h53.34.302,proactive2,2020.1.2,MacIntel,60,5f341be081b9052c55068110,5f352791513d7347e9b3dfb3,2,,,,,,runner,,,,,,,,,,,1,0,0,39,39,2,1,,,,,,,,,,,,,,,,,,,,,,,,,,,,,,,,,,,,,,,,,,,,,,,,,,,,,,,,,,,,,,,,,,,,,,,,,,,,,,,,,,,,,,,,,,,,,,
,,?,0.001,0,,,,,,stimuli/images/PICTURE_68.png,MILE,5c1a59395b2ab700015af793,01/01/1990,2020-08-13_12h53.34.302,proactive2,2020.1.2,MacIntel,60,5f341be081b9052c55068110,5f352791513d7347e9b3dfb3,2,,,,,,candle,,,,,,,,,,,5,0,0,40,40,44,1,,,,,,,,,,,,,,,,,,,,,,,,,,,,,,,,,,,,,,,,,,,,,,,,,,,,,,,,,,,,,,,,,,,,,,,,,,,,,,,,,,,,,,,,,,,,,,
,,?,0.001,0,,,,,,stimuli/images/PICTURE_675.png,WEAPON,5c1a59395b2ab700015af793,01/01/1990,2020-08-13_12h53.34.302,proactive2,2020.1.2,MacIntel,60,5f341be081b9052c55068110,5f352791513d7347e9b3dfb3,2,,,,,,windmill,,,,,,,,,,,4,0,0,41,41,32,1,,,,,,,,,,,,,,,,,,,,,,,,,,,,,,,,,,,,,,,,,,,,,,,,,,,,,,,,,,,,,,,,,,,,,,,,,,,,,,,,,,,,,,,,,,,,,,
,,MONTH,2.305,1,,,,,,stimuli/images/PICTURE_692.png,MONTH,5c1a59395b2ab700015af793,01/01/1990,2020-08-13_12h53.34.302,proactive2,2020.1.2,MacIntel,60,5f341be081b9052c55068110,5f352791513d7347e9b3dfb3,2,,,,,,cherry,,,,,,,,,,,2,0,0,42,42,16,1,,,,,,,,,,,,,,,,,,,,,,,,,,,,,,,,,,,,,,,,,,,,,,,,,,,,,,,,,,,,,,,,,,,,,,,,,,,,,,,,,,,,,,,,,,,,,,
,,GODS,1.851,1,,,,,,stimuli/images/PICTURE_314.png,GODS,5c1a59395b2ab700015af793,01/01/1990,2020-08-13_12h53.34.302,proactive2,2020.1.2,MacIntel,60,5f341be081b9052c55068110,5f352791513d7347e9b3dfb3,2,,,,,,perfume,,,,,,,,,,,2,0,0,43,43,11,1,,,,,,,,,,,,,,,,,,,,,,,,,,,,,,,,,,,,,,,,,,,,,,,,,,,,,,,,,,,,,,,,,,,,,,,,,,,,,,,,,,,,,,,,,,,,,,
,,?,0.001,0,,,,,,stimuli/images/PICTURE_380.png,PHOTO,5c1a59395b2ab700015af793,01/01/1990,2020-08-13_12h53.34.302,proactive2,2020.1.2,MacIntel,60,5f341be081b9052c55068110,5f352791513d7347e9b3dfb3,2,,,,,,gorilla,,,,,,,,,,,6,0,0,44,44,52,1,,,,,,,,,,,,,,,,,,,,,,,,,,,,,,,,,,,,,,,,,,,,,,,,,,,,,,,,,,,,,,,,,,,,,,,,,,,,,,,,,,,,,,,,,,,,,,
,,?,0.001,0,,,,,,stimuli/images/PICTURE_160.png,LEADER,5c1a59395b2ab700015af793,01/01/1990,2020-08-13_12h53.34.302,proactive2,2020.1.2,MacIntel,60,5f341be081b9052c55068110,5f352791513d7347e9b3dfb3,2,,,,,,wheelbarrow,,,,,,,,,,,1,0,0,45,45,3,1,,,,,,,,,,,,,,,,,,,,,,,,,,,,,,,,,,,,,,,,,,,,,,,,,,,,,,,,,,,,,,,,,,,,,,,,,,,,,,,,,,,,,,,,,,,,,,
,,GIRL,1.696,1,,,,,,stimuli/images/PICTURE_151.png,GIRL,5c1a59395b2ab700015af793,01/01/1990,2020-08-13_12h53.34.302,proactive2,2020.1.2,MacIntel,60,5f341be081b9052c55068110,5f352791513d7347e9b3dfb3,2,,,,,,tray,,,,,,,,,,,2,0,0,46,46,19,1,,,,,,,,,,,,,,,,,,,,,,,,,,,,,,,,,,,,,,,,,,,,,,,,,,,,,,,,,,,,,,,,,,,,,,,,,,,,,,,,,,,,,,,,,,,,,,
,,?,0.001,0,,,,,,stimuli/images/PICTURE_160.png,FEET,5c1a59395b2ab700015af793,01/01/1990,2020-08-13_12h53.34.302,proactive2,2020.1.2,MacIntel,60,5f341be081b9052c55068110,5f352791513d7347e9b3dfb3,2,,,,,,wheelbarrow,,,,,,,,,,,6,0,0,47,47,58,1,,,,,,,,,,,,,,,,,,,,,,,,,,,,,,,,,,,,,,,,,,,,,,,,,,,,,,,,,,,,,,,,,,,,,,,,,,,,,,,,,,,,,,,,,,,,,,
,,?,0.001,0,,,,,,stimuli/images/PICTURE_215.png,PLENTY,5c1a59395b2ab700015af793,01/01/1990,2020-08-13_12h53.34.302,proactive2,2020.1.2,MacIntel,60,5f341be081b9052c55068110,5f352791513d7347e9b3dfb3,2,,,,,,boot,,,,,,,,,,,4,0,0,48,48,37,1,,,,,,,,,,,,,,,,,,,,,,,,,,,,,,,,,,,,,,,,,,,,,,,,,,,,,,,,,,,,,,,,,,,,,,,,,,,,,,,,,,,,,,,,,,,,,,
,,?,0.001,0,,,,,,stimuli/images/PICTURE_123.png,ADVICE,5c1a59395b2ab700015af793,01/01/1990,2020-08-13_12h53.34.302,proactive2,2020.1.2,MacIntel,60,5f341be081b9052c55068110,5f352791513d7347e9b3dfb3,2,,,,,,dart,,,,,,,,,,,6,0,0,49,49,50,1,,,,,,,,,,,,,,,,,,,,,,,,,,,,,,,,,,,,,,,,,,,,,,,,,,,,,,,,,,,,,,,,,,,,,,,,,,,,,,,,,,,,,,,,,,,,,,
,,?,0.001,0,,,,,,stimuli/images/PICTURE_208.png,THING,5c1a59395b2ab700015af793,01/01/1990,2020-08-13_12h53.34.302,proactive2,2020.1.2,MacIntel,60,5f341be081b9052c55068110,5f352791513d7347e9b3dfb3,2,,,,,,microphone,,,,,,,,,,,5,0,0,50,50,47,1,,,,,,,,,,,,,,,,,,,,,,,,,,,,,,,,,,,,,,,,,,,,,,,,,,,,,,,,,,,,,,,,,,,,,,,,,,,,,,,,,,,,,,,,,,,,,,
,,?,0.001,0,,,,,,stimuli/images/PICTURE_488.png,STYLE,5c1a59395b2ab700015af793,01/01/1990,2020-08-13_12h53.34.302,proactive2,2020.1.2,MacIntel,60,5f341be081b9052c55068110,5f352791513d7347e9b3dfb3,2,,,,,,sun,,,,,,,,,,,4,0,0,51,51,33,1,,,,,,,,,,,,,,,,,,,,,,,,,,,,,,,,,,,,,,,,,,,,,,,,,,,,,,,,,,,,,,,,,,,,,,,,,,,,,,,,,,,,,,,,,,,,,,
,,?,0.001,0,,,,,,stimuli/images/PICTURE_380.png,DEATH,5c1a59395b2ab700015af793,01/01/1990,2020-08-13_12h53.34.302,proactive2,2020.1.2,MacIntel,60,5f341be081b9052c55068110,5f352791513d7347e9b3dfb3,2,,,,,,gorilla,,,,,,,,,,,5,0,0,52,52,49,1,,,,,,,,,,,,,,,,,,,,,,,,,,,,,,,,,,,,,,,,,,,,,,,,,,,,,,,,,,,,,,,,,,,,,,,,,,,,,,,,,,,,,,,,,,,,,,
,,?,0.001,0,,,,,,stimuli/images/PICTURE_677.png,MILE,5c1a59395b2ab700015af793,01/01/1990,2020-08-13_12h53.34.302,proactive2,2020.1.2,MacIntel,60,5f341be081b9052c55068110,5f352791513d7347e9b3dfb3,2,,,,,,map,,,,,,,,,,,4,0,0,53,53,30,1,,,,,,,,,,,,,,,,,,,,,,,,,,,,,,,,,,,,,,,,,,,,,,,,,,,,,,,,,,,,,,,,,,,,,,,,,,,,,,,,,,,,,,,,,,,,,,
,,?,0.001,0,,,,,,stimuli/images/PICTURE_744.png,SYSTEM,5c1a59395b2ab700015af793,01/01/1990,2020-08-13_12h53.34.302,proactive2,2020.1.2,MacIntel,60,5f341be081b9052c55068110,5f352791513d7347e9b3dfb3,2,,,,,,ring,,,,,,,,,,,5,0,0,54,54,43,1,,,,,,,,,,,,,,,,,,,,,,,,,,,,,,,,,,,,,,,,,,,,,,,,,,,,,,,,,,,,,,,,,,,,,,,,,,,,,,,,,,,,,,,,,,,,,,
,,WOMEN,2.068,1,,,,,,stimuli/images/PICTURE_688.png,WOMEN,5c1a59395b2ab700015af793,01/01/1990,2020-08-13_12h53.34.302,proactive2,2020.1.2,MacIntel,60,5f341be081b9052c55068110,5f352791513d7347e9b3dfb3,2,,,,,,runner,,,,,,,,,,,2,0,0,55,55,14,1,,,,,,,,,,,,,,,,,,,,,,,,,,,,,,,,,,,,,,,,,,,,,,,,,,,,,,,,,,,,,,,,,,,,,,,,,,,,,,,,,,,,,,,,,,,,,,
,,?,0.001,0,,,,,,stimuli/images/PICTURE_667.png,PLENTY,5c1a59395b2ab700015af793,01/01/1990,2020-08-13_12h53.34.302,proactive2,2020.1.2,MacIntel,60,5f341be081b9052c55068110,5f352791513d7347e9b3dfb3,2,,,,,,daisy,,,,,,,,,,,5,0,0,56,56,41,1,,,,,,,,,,,,,,,,,,,,,,,,,,,,,,,,,,,,,,,,,,,,,,,,,,,,,,,,,,,,,,,,,,,,,,,,,,,,,,,,,,,,,,,,,,,,,,
,,?,0.001,0,,,,,,stimuli/images/PICTURE_654.png,VALLEY,5c1a59395b2ab700015af793,01/01/1990,2020-08-13_12h53.34.302,proactive2,2020.1.2,MacIntel,60,5f341be081b9052c55068110,5f352791513d7347e9b3dfb3,2,,,,,,pencil,,,,,,,,,,,1,0,0,57,57,1,1,,,,,,,,,,,,,,,,,,,,,,,,,,,,,,,,,,,,,,,,,,,,,,,,,,,,,,,,,,,,,,,,,,,,,,,,,,,,,,,,,,,,,,,,,,,,,,
,,?,0.001,0,,,,,,stimuli/images/PICTURE_255.png,AREA,5c1a59395b2ab700015af793,01/01/1990,2020-08-13_12h53.34.302,proactive2,2020.1.2,MacIntel,60,5f341be081b9052c55068110,5f352791513d7347e9b3dfb3,2,,,,,,shovel,,,,,,,,,,,3,0,0,58,58,22,1,,,,,,,,,,,,,,,,,,,,,,,,,,,,,,,,,,,,,,,,,,,,,,,,,,,,,,,,,,,,,,,,,,,,,,,,,,,,,,,,,,,,,,,,,,,,,,
,,?,0.001,0,,,,,,stimuli/images/PICTURE_449.png,THING,5c1a59395b2ab700015af793,01/01/1990,2020-08-13_12h53.34.302,proactive2,2020.1.2,MacIntel,60,5f341be081b9052c55068110,5f352791513d7347e9b3dfb3,2,,,,,,bench,,,,,,,,,,,6,0,0,59,59,59,1,,,,,,,,,,,,,,,,,,,,,,,,,,,,,,,,,,,,,,,,,,,,,,,,,,,,,,,,,,,,,,,,,,,,,,,,,,,,,,,,,,,,,,,,,,,,,,
,,,,,,,,,,,,5c1a59395b2ab700015af793,01/01/1990,2020-08-13_12h53.34.302,proactive2,2020.1.2,MacIntel,60,5f341be081b9052c55068110,5f352791513d7347e9b3dfb3,2,,,,,,,,,,,,,,,,,,,,,,,,0,0,0,0,1,stimuli/learn-block1.csv,,,,,,,,,,,,,,,,,,,,,,,,,,,,,,,,,,,,,,,,,,,,,,,,,,,,,,,,,,,,,,,,,,,,,,,,,,,,,,,,,,,,,,,,
,,,,,,,,,,stimuli/images/PICTURE_469.png,AGENT,5c1a59395b2ab700015af793,01/01/1990,2020-08-13_12h53.34.302,proactive2,2020.1.2,MacIntel,60,5f341be081b9052c55068110,5f352791513d7347e9b3dfb3,2,,,,,,stool,,,,,,0,0,0,16,1,2,1,,,,,,,,,,,,,,,,,,,,,,,,,,,,,,,,,,,,,,,,,,,,,,,,,,,,,,,,,,,,,,,,,,,,,,,,,,,,,,,,,,,,,,,,,,,,,,,,,,,
,,,,,,,,,,stimuli/images/PICTURE_504.png,ARTIST,5c1a59395b2ab700015af793,01/01/1990,2020-08-13_12h53.34.302,proactive2,2020.1.2,MacIntel,60,5f341be081b9052c55068110,5f352791513d7347e9b3dfb3,2,,,,,,wheel,,,,,,0,1,1,49,1,5,1,,,,,,,,,,,,,,,,,,,,,,,,,,,,,,,,,,,,,,,,,,,,,,,,,,,,,,,,,,,,,,,,,,,,,,,,,,,,,,,,,,,,,,,,,,,,,,,,,,,
,,,,,,,,,,stimuli/images/PICTURE_296.png,LIFE,5c1a59395b2ab700015af793,01/01/1990,2020-08-13_12h53.34.302,proactive2,2020.1.2,MacIntel,60,5f341be081b9052c55068110,5f352791513d7347e9b3dfb3,2,,,,,,bolt,,,,,,0,2,2,57,1,6,1,,,,,,,,,,,,,,,,,,,,,,,,,,,,,,,,,,,,,,,,,,,,,,,,,,,,,,,,,,,,,,,,,,,,,,,,,,,,,,,,,,,,,,,,,,,,,,,,,,,
,,,,,,,,,,stimuli/images/PICTURE_32.png,KIND,5c1a59395b2ab700015af793,01/01/1990,2020-08-13_12h53.34.302,proactive2,2020.1.2,MacIntel,60,5f341be081b9052c55068110,5f352791513d7347e9b3dfb3,2,,,,,,crown,,,,,,0,3,3,35,1,4,1,,,,,,,,,,,,,,,,,,,,,,,,,,,,,,,,,,,,,,,,,,,,,,,,,,,,,,,,,,,,,,,,,,,,,,,,,,,,,,,,,,,,,,,,,,,,,,,,,,,
,,,,,,,,,,stimuli/images/PICTURE_667.png,RIVER,5c1a59395b2ab700015af793,01/01/1990,2020-08-13_12h53.34.302,proactive2,2020.1.2,MacIntel,60,5f341be081b9052c55068110,5f352791513d7347e9b3dfb3,2,,,,,,daisy,,,,,,0,4,4,10,1,2,1,,,,,,,,,,,,,,,,,,,,,,,,,,,,,,,,,,,,,,,,,,,,,,,,,,,,,,,,,,,,,,,,,,,,,,,,,,,,,,,,,,,,,,,,,,,,,,,,,,,
,,,,,,,,,,stimuli/images/PICTURE_177.png,WRITER,5c1a59395b2ab700015af793,01/01/1990,2020-08-13_12h53.34.302,proactive2,2020.1.2,MacIntel,60,5f341be081b9052c55068110,5f352791513d7347e9b3dfb3,2,,,,,,mushroom,,,,,,0,5,5,41,1,5,1,,,,,,,,,,,,,,,,,,,,,,,,,,,,,,,,,,,,,,,,,,,,,,,,,,,,,,,,,,,,,,,,,,,,,,,,,,,,,,,,,,,,,,,,,,,,,,,,,,,
,,,,,,,,,,stimuli/images/PICTURE_504.png,YEAR,5c1a59395b2ab700015af793,01/01/1990,2020-08-13_12h53.34.302,proactive2,2020.1.2,MacIntel,60,5f341be081b9052c55068110,5f352791513d7347e9b3dfb3,2,,,,,,wheel,,,,,,0,6,6,13,1,2,1,,,,,,,,,,,,,,,,,,,,,,,,,,,,,,,,,,,,,,,,,,,,,,,,,,,,,,,,,,,,,,,,,,,,,,,,,,,,,,,,,,,,,,,,,,,,,,,,,,,
,,,,,,,,,,stimuli/images/PICTURE_750.png,HOTEL,5c1a59395b2ab700015af793,01/01/1990,2020-08-13_12h53.34.302,proactive2,2020.1.2,MacIntel,60,5f341be081b9052c55068110,5f352791513d7347e9b3dfb3,2,,,,,,kettle,,,,,,0,7,7,27,1,3,1,,,,,,,,,,,,,,,,,,,,,,,,,,,,,,,,,,,,,,,,,,,,,,,,,,,,,,,,,,,,,,,,,,,,,,,,,,,,,,,,,,,,,,,,,,,,,,,,,,,
,,,,,,,,,,stimuli/images/PICTURE_147.png,YEAR,5c1a59395b2ab700015af793,01/01/1990,2020-08-13_12h53.34.302,proactive2,2020.1.2,MacIntel,60,5f341be081b9052c55068110,5f352791513d7347e9b3dfb3,2,,,,,,hanger,,,,,,0,8,8,21,1,3,1,,,,,,,,,,,,,,,,,,,,,,,,,,,,,,,,,,,,,,,,,,,,,,,,,,,,,,,,,,,,,,,,,,,,,,,,,,,,,,,,,,,,,,,,,,,,,,,,,,,
,,,,,,,,,,stimuli/images/PICTURE_449.png,DUDE,5c1a59395b2ab700015af793,01/01/1990,2020-08-13_12h53.34.302,proactive2,2020.1.2,MacIntel,60,5f341be081b9052c55068110,5f352791513d7347e9b3dfb3,2,,,,,,bench,,,,,,0,9,9,17,1,2,1,,,,,,,,,,,,,,,,,,,,,,,,,,,,,,,,,,,,,,,,,,,,,,,,,,,,,,,,,,,,,,,,,,,,,,,,,,,,,,,,,,,,,,,,,,,,,,,,,,,
,,,,,,,,,,stimuli/images/PICTURE_327.png,CASINO,5c1a59395b2ab700015af793,01/01/1990,2020-08-13_12h53.34.302,proactive2,2020.1.2,MacIntel,60,5f341be081b9052c55068110,5f352791513d7347e9b3dfb3,2,,,,,,helmet,,,,,,0,10,10,20,1,3,1,,,,,,,,,,,,,,,,,,,,,,,,,,,,,,,,,,,,,,,,,,,,,,,,,,,,,,,,,,,,,,,,,,,,,,,,,,,,,,,,,,,,,,,,,,,,,,,,,,,
,,,,,,,,,,stimuli/images/PICTURE_677.png,APPLE,5c1a59395b2ab700015af793,01/01/1990,2020-08-13_12h53.34.302,proactive2,2020.1.2,MacIntel,60,5f341be081b9052c55068110,5f352791513d7347e9b3dfb3,2,,,,,,map,,,,,,0,11,11,43,1,5,1,,,,,,,,,,,,,,,,,,,,,,,,,,,,,,,,,,,,,,,,,,,,,,,,,,,,,,,,,,,,,,,,,,,,,,,,,,,,,,,,,,,,,,,,,,,,,,,,,,,
,,,,,,,,,,stimuli/images/PICTURE_655.png,TOILET,5c1a59395b2ab700015af793,01/01/1990,2020-08-13_12h53.34.302,proactive2,2020.1.2,MacIntel,60,5f341be081b9052c55068110,5f352791513d7347e9b3dfb3,2,,,,,,megaphone,,,,,,0,12,12,12,1,2,1,,,,,,,,,,,,,,,,,,,,,,,,,,,,,,,,,,,,,,,,,,,,,,,,,,,,,,,,,,,,,,,,,,,,,,,,,,,,,,,,,,,,,,,,,,,,,,,,,,,
,,,,,,,,,,stimuli/images/PICTURE_68.png,MILE,5c1a59395b2ab700015af793,01/01/1990,2020-08-13_12h53.34.302,proactive2,2020.1.2,MacIntel,60,5f341be081b9052c55068110,5f352791513d7347e9b3dfb3,2,,,,,,candle,,,,,,0,13,13,51,1,6,1,,,,,,,,,,,,,,,,,,,,,,,,,,,,,,,,,,,,,,,,,,,,,,,,,,,,,,,,,,,,,,,,,,,,,,,,,,,,,,,,,,,,,,,,,,,,,,,,,,,
,,,,,,,,,,stimuli/images/PICTURE_340.png,LETTER,5c1a59395b2ab700015af793,01/01/1990,2020-08-13_12h53.34.302,proactive2,2020.1.2,MacIntel,60,5f341be081b9052c55068110,5f352791513d7347e9b3dfb3,2,,,,,,mirror,,,,,,0,14,14,24,1,3,1,,,,,,,,,,,,,,,,,,,,,,,,,,,,,,,,,,,,,,,,,,,,,,,,,,,,,,,,,,,,,,,,,,,,,,,,,,,,,,,,,,,,,,,,,,,,,,,,,,,
,,,,,,,,,,stimuli/images/PICTURE_85.png,TOILET,5c1a59395b2ab700015af793,01/01/1990,2020-08-13_12h53.34.302,proactive2,2020.1.2,MacIntel,60,5f341be081b9052c55068110,5f352791513d7347e9b3dfb3,2,,,,,,diamond,,,,,,0,15,15,48,1,5,1,,,,,,,,,,,,,,,,,,,,,,,,,,,,,,,,,,,,,,,,,,,,,,,,,,,,,,,,,,,,,,,,,,,,,,,,,,,,,,,,,,,,,,,,,,,,,,,,,,,
,,,,,,,,,,stimuli/images/PICTURE_108.png,FLIGHT,5c1a59395b2ab700015af793,01/01/1990,2020-08-13_12h53.34.302,proactive2,2020.1.2,MacIntel,60,5f341be081b9052c55068110,5f352791513d7347e9b3dfb3,2,,,,,,calendar,,,,,,0,16,16,59,1,6,1,,,,,,,,,,,,,,,,,,,,,,,,,,,,,,,,,,,,,,,,,,,,,,,,,,,,,,,,,,,,,,,,,,,,,,,,,,,,,,,,,,,,,,,,,,,,,,,,,,,
,,,,,,,,,,stimuli/images/PICTURE_675.png,SALE,5c1a59395b2ab700015af793,01/01/1990,2020-08-13_12h53.34.302,proactive2,2020.1.2,MacIntel,60,5f341be081b9052c55068110,5f352791513d7347e9b3dfb3,2,,,,,,windmill,,,,,,0,17,17,47,1,5,1,,,,,,,,,,,,,,,,,,,,,,,,,,,,,,,,,,,,,,,,,,,,,,,,,,,,,,,,,,,,,,,,,,,,,,,,,,,,,,,,,,,,,,,,,,,,,,,,,,,
,,,,,,,,,,stimuli/images/PICTURE_57.png,MOMENT,5c1a59395b2ab700015af793,01/01/1990,2020-08-13_12h53.34.302,proactive2,2020.1.2,MacIntel,60,5f341be081b9052c55068110,5f352791513d7347e9b3dfb3,2,,,,,,stamp,,,,,,0,18,18,37,1,4,1,,,,,,,,,,,,,,,,,,,,,,,,,,,,,,,,,,,,,,,,,,,,,,,,,,,,,,,,,,,,,,,,,,,,,,,,,,,,,,,,,,,,,,,,,,,,,,,,,,,
,,,,,,,,,,stimuli/images/PICTURE_327.png,SERIES,5c1a59395b2ab700015af793,01/01/1990,2020-08-13_12h53.34.302,proactive2,2020.1.2,MacIntel,60,5f341be081b9052c55068110,5f352791513d7347e9b3dfb3,2,,,,,,helmet,,,,,,0,19,19,3,1,1,1,,,,,,,,,,,,,,,,,,,,,,,,,,,,,,,,,,,,,,,,,,,,,,,,,,,,,,,,,,,,,,,,,,,,,,,,,,,,,,,,,,,,,,,,,,,,,,,,,,,
,,,,,,,,,,stimuli/images/PICTURE_487.png,GIRL,5c1a59395b2ab700015af793,01/01/1990,2020-08-13_12h53.34.302,proactive2,2020.1.2,MacIntel,60,5f341be081b9052c55068110,5f352791513d7347e9b3dfb3,2,,,,,,basket,,,,,,0,20,20,45,1,5,1,,,,,,,,,,,,,,,,,,,,,,,,,,,,,,,,,,,,,,,,,,,,,,,,,,,,,,,,,,,,,,,,,,,,,,,,,,,,,,,,,,,,,,,,,,,,,,,,,,,
,,,,,,,,,,stimuli/images/PICTURE_383.png,WRITER,5c1a59395b2ab700015af793,01/01/1990,2020-08-13_12h53.34.302,proactive2,2020.1.2,MacIntel,60,5f341be081b9052c55068110,5f352791513d7347e9b3dfb3,2,,,,,,coin,,,,,,0,21,21,28,1,3,1,,,,,,,,,,,,,,,,,,,,,,,,,,,,,,,,,,,,,,,,,,,,,,,,,,,,,,,,,,,,,,,,,,,,,,,,,,,,,,,,,,,,,,,,,,,,,,,,,,,
,,,,,,,,,,stimuli/images/PICTURE_491.png,GLASS,5c1a59395b2ab700015af793,01/01/1990,2020-08-13_12h53.34.302,proactive2,2020.1.2,MacIntel,60,5f341be081b9052c55068110,5f352791513d7347e9b3dfb3,2,,,,,,rug,,,,,,0,22,22,14,1,2,1,,,,,,,,,,,,,,,,,,,,,,,,,,,,,,,,,,,,,,,,,,,,,,,,,,,,,,,,,,,,,,,,,,,,,,,,,,,,,,,,,,,,,,,,,,,,,,,,,,,
,,,,,,,,,,stimuli/images/PICTURE_2.png,FLIGHT,5c1a59395b2ab700015af793,01/01/1990,2020-08-13_12h53.34.302,proactive2,2020.1.2,MacIntel,60,5f341be081b9052c55068110,5f352791513d7347e9b3dfb3,2,,,,,,tyre,,,,,,0,23,23,15,1,2,1,,,,,,,,,,,,,,,,,,,,,,,,,,,,,,,,,,,,,,,,,,,,,,,,,,,,,,,,,,,,,,,,,,,,,,,,,,,,,,,,,,,,,,,,,,,,,,,,,,,
,,,,,,,,,,stimuli/images/PICTURE_383.png,SERIES,5c1a59395b2ab700015af793,01/01/1990,2020-08-13_12h53.34.302,proactive2,2020.1.2,MacIntel,60,5f341be081b9052c55068110,5f352791513d7347e9b3dfb3,2,,,,,,coin,,,,,,0,24,24,46,1,5,1,,,,,,,,,,,,,,,,,,,,,,,,,,,,,,,,,,,,,,,,,,,,,,,,,,,,,,,,,,,,,,,,,,,,,,,,,,,,,,,,,,,,,,,,,,,,,,,,,,,
,,,,,,,,,,stimuli/images/PICTURE_95.png,BOYS,5c1a59395b2ab700015af793,01/01/1990,2020-08-13_12h53.34.302,proactive2,2020.1.2,MacIntel,60,5f341be081b9052c55068110,5f352791513d7347e9b3dfb3,2,,,,,,suitcase,,,,,,0,25,25,1,1,1,1,,,,,,,,,,,,,,,,,,,,,,,,,,,,,,,,,,,,,,,,,,,,,,,,,,,,,,,,,,,,,,,,,,,,,,,,,,,,,,,,,,,,,,,,,,,,,,,,,,,
,,,,,,,,,,stimuli/images/PICTURE_564.png,BATH,5c1a59395b2ab700015af793,01/01/1990,2020-08-13_12h53.34.302,proactive2,2020.1.2,MacIntel,60,5f341be081b9052c55068110,5f352791513d7347e9b3dfb3,2,,,,,,spoon,,,,,,0,26,26,26,1,3,1,,,,,,,,,,,,,,,,,,,,,,,,,,,,,,,,,,,,,,,,,,,,,,,,,,,,,,,,,,,,,,,,,,,,,,,,,,,,,,,,,,,,,,,,,,,,,,,,,,,
,,,,,,,,,,stimuli/images/PICTURE_403.png,WRITER,5c1a59395b2ab700015af793,01/01/1990,2020-08-13_12h53.34.302,proactive2,2020.1.2,MacIntel,60,5f341be081b9052c55068110,5f352791513d7347e9b3dfb3,2,,,,,,cathedral,,,,,,0,27,27,31,1,4,1,,,,,,,,,,,,,,,,,,,,,,,,,,,,,,,,,,,,,,,,,,,,,,,,,,,,,,,,,,,,,,,,,,,,,,,,,,,,,,,,,,,,,,,,,,,,,,,,,,,
,,,,,,,,,,stimuli/images/PICTURE_42.png,BOYS,5c1a59395b2ab700015af793,01/01/1990,2020-08-13_12h53.34.302,proactive2,2020.1.2,MacIntel,60,5f341be081b9052c55068110,5f352791513d7347e9b3dfb3,2,,,,,,pear,,,,,,0,28,28,55,1,6,1,,,,,,,,,,,,,,,,,,,,,,,,,,,,,,,,,,,,,,,,,,,,,,,,,,,,,,,,,,,,,,,,,,,,,,,,,,,,,,,,,,,,,,,,,,,,,,,,,,,
,,,,,,,,,,stimuli/images/PICTURE_380.png,CANDY,5c1a59395b2ab700015af793,01/01/1990,2020-08-13_12h53.34.302,proactive2,2020.1.2,MacIntel,60,5f341be081b9052c55068110,5f352791513d7347e9b3dfb3,2,,,,,,gorilla,,,,,,0,29,29,0,1,1,1,,,,,,,,,,,,,,,,,,,,,,,,,,,,,,,,,,,,,,,,,,,,,,,,,,,,,,,,,,,,,,,,,,,,,,,,,,,,,,,,,,,,,,,,,,,,,,,,,,,
,,,,,,,,,,stimuli/images/PICTURE_208.png,SYSTEM,5c1a59395b2ab700015af793,01/01/1990,2020-08-13_12h53.34.302,proactive2,2020.1.2,MacIntel,60,5f341be081b9052c55068110,5f352791513d7347e9b3dfb3,2,,,,,,microphone,,,,,,0,30,30,32,1,4,1,,,,,,,,,,,,,,,,,,,,,,,,,,,,,,,,,,,,,,,,,,,,,,,,,,,,,,,,,,,,,,,,,,,,,,,,,,,,,,,,,,,,,,,,,,,,,,,,,,,
,,,,,,,,,,stimuli/images/PICTURE_203.png,GODS,5c1a59395b2ab700015af793,01/01/1990,2020-08-13_12h53.34.302,proactive2,2020.1.2,MacIntel,60,5f341be081b9052c55068110,5f352791513d7347e9b3dfb3,2,,,,,,cap,,,,,,0,31,31,30,1,4,1,,,,,,,,,,,,,,,,,,,,,,,,,,,,,,,,,,,,,,,,,,,,,,,,,,,,,,,,,,,,,,,,,,,,,,,,,,,,,,,,,,,,,,,,,,,,,,,,,,,
,,,,,,,,,,stimuli/images/PICTURE_380.png,HONEY,5c1a59395b2ab700015af793,01/01/1990,2020-08-13_12h53.34.302,proactive2,2020.1.2,MacIntel,60,5f341be081b9052c55068110,5f352791513d7347e9b3dfb3,2,,,,,,gorilla,,,,,,0,32,32,19,1,2,1,,,,,,,,,,,,,,,,,,,,,,,,,,,,,,,,,,,,,,,,,,,,,,,,,,,,,,,,,,,,,,,,,,,,,,,,,,,,,,,,,,,,,,,,,,,,,,,,,,,
,,,,,,,,,,stimuli/images/PICTURE_491.png,RIVER,5c1a59395b2ab700015af793,01/01/1990,2020-08-13_12h53.34.302,proactive2,2020.1.2,MacIntel,60,5f341be081b9052c55068110,5f352791513d7347e9b3dfb3,2,,,,,,rug,,,,,,0,33,33,6,1,1,1,,,,,,,,,,,,,,,,,,,,,,,,,,,,,,,,,,,,,,,,,,,,,,,,,,,,,,,,,,,,,,,,,,,,,,,,,,,,,,,,,,,,,,,,,,,,,,,,,,,
,,,,,,,,,,stimuli/images/PICTURE_85.png,NATION,5c1a59395b2ab700015af793,01/01/1990,2020-08-13_12h53.34.302,proactive2,2020.1.2,MacIntel,60,5f341be081b9052c55068110,5f352791513d7347e9b3dfb3,2,,,,,,diamond,,,,,,0,34,34,5,1,1,1,,,,,,,,,,,,,,,,,,,,,,,,,,,,,,,,,,,,,,,,,,,,,,,,,,,,,,,,,,,,,,,,,,,,,,,,,,,,,,,,,,,,,,,,,,,,,,,,,,,
,,,,,,,,,,stimuli/images/PICTURE_467.png,POLICY,5c1a59395b2ab700015af793,01/01/1990,2020-08-13_12h53.34.302,proactive2,2020.1.2,MacIntel,60,5f341be081b9052c55068110,5f352791513d7347e9b3dfb3,2,,,,,,peg,,,,,,0,35,35,53,1,6,1,,,,,,,,,,,,,,,,,,,,,,,,,,,,,,,,,,,,,,,,,,,,,,,,,,,,,,,,,,,,,,,,,,,,,,,,,,,,,,,,,,,,,,,,,,,,,,,,,,,
,,,,,,,,,,stimuli/images/PICTURE_233.png,LOTS,5c1a59395b2ab700015af793,01/01/1990,2020-08-13_12h53.34.302,proactive2,2020.1.2,MacIntel,60,5f341be081b9052c55068110,5f352791513d7347e9b3dfb3,2,,,,,,salt,,,,,,0,36,36,42,1,5,1,,,,,,,,,,,,,,,,,,,,,,,,,,,,,,,,,,,,,,,,,,,,,,,,,,,,,,,,,,,,,,,,,,,,,,,,,,,,,,,,,,,,,,,,,,,,,,,,,,,
,,,,,,,,,,stimuli/images/PICTURE_108.png,POLICY,5c1a59395b2ab700015af793,01/01/1990,2020-08-13_12h53.34.302,proactive2,2020.1.2,MacIntel,60,5f341be081b9052c55068110,5f352791513d7347e9b3dfb3,2,,,,,,calendar,,,,,,0,37,37,22,1,3,1,,,,,,,,,,,,,,,,,,,,,,,,,,,,,,,,,,,,,,,,,,,,,,,,,,,,,,,,,,,,,,,,,,,,,,,,,,,,,,,,,,,,,,,,,,,,,,,,,,,
,,,,,,,,,,stimuli/images/PICTURE_147.png,WOMEN,5c1a59395b2ab700015af793,01/01/1990,2020-08-13_12h53.34.302,proactive2,2020.1.2,MacIntel,60,5f341be081b9052c55068110,5f352791513d7347e9b3dfb3,2,,,,,,hanger,,,,,,0,38,38,7,1,1,1,,,,,,,,,,,,,,,,,,,,,,,,,,,,,,,,,,,,,,,,,,,,,,,,,,,,,,,,,,,,,,,,,,,,,,,,,,,,,,,,,,,,,,,,,,,,,,,,,,,
,,,,,,,,,,stimuli/images/PICTURE_296.png,LOTS,5c1a59395b2ab700015af793,01/01/1990,2020-08-13_12h53.34.302,proactive2,2020.1.2,MacIntel,60,5f341be081b9052c55068110,5f352791513d7347e9b3dfb3,2,,,,,,bolt,,,,,,0,39,39,9,1,1,1,,,,,,,,,,,,,,,,,,,,,,,,,,,,,,,,,,,,,,,,,,,,,,,,,,,,,,,,,,,,,,,,,,,,,,,,,,,,,,,,,,,,,,,,,,,,,,,,,,,
,,,,,,,,,,stimuli/images/PICTURE_405.png,YEAR,5c1a59395b2ab700015af793,01/01/1990,2020-08-13_12h53.34.302,proactive2,2020.1.2,MacIntel,60,5f341be081b9052c55068110,5f352791513d7347e9b3dfb3,2,,,,,,anchor,,,,,,0,40,40,34,1,4,1,,,,,,,,,,,,,,,,,,,,,,,,,,,,,,,,,,,,,,,,,,,,,,,,,,,,,,,,,,,,,,,,,,,,,,,,,,,,,,,,,,,,,,,,,,,,,,,,,,,
,,,,,,,,,,stimuli/images/PICTURE_68.png,ROOF,5c1a59395b2ab700015af793,01/01/1990,2020-08-13_12h53.34.302,proactive2,2020.1.2,MacIntel,60,5f341be081b9052c55068110,5f352791513d7347e9b3dfb3,2,,,,,,candle,,,,,,0,41,41,38,1,4,1,,,,,,,,,,,,,,,,,,,,,,,,,,,,,,,,,,,,,,,,,,,,,,,,,,,,,,,,,,,,,,,,,,,,,,,,,,,,,,,,,,,,,,,,,,,,,,,,,,,
,,,,,,,,,,stimuli/images/PICTURE_685.png,PENNY,5c1a59395b2ab700015af793,01/01/1990,2020-08-13_12h53.34.302,proactive2,2020.1.2,MacIntel,60,5f341be081b9052c55068110,5f352791513d7347e9b3dfb3,2,,,,,,goose,,,,,,0,42,42,4,1,1,1,,,,,,,,,,,,,,,,,,,,,,,,,,,,,,,,,,,,,,,,,,,,,,,,,,,,,,,,,,,,,,,,,,,,,,,,,,,,,,,,,,,,,,,,,,,,,,,,,,,
,,,,,,,,,,stimuli/images/PICTURE_708.png,RECORD,5c1a59395b2ab700015af793,01/01/1990,2020-08-13_12h53.34.302,proactive2,2020.1.2,MacIntel,60,5f341be081b9052c55068110,5f352791513d7347e9b3dfb3,2,,,,,,monkey,,,,,,0,43,43,58,1,6,1,,,,,,,,,,,,,,,,,,,,,,,,,,,,,,,,,,,,,,,,,,,,,,,,,,,,,,,,,,,,,,,,,,,,,,,,,,,,,,,,,,,,,,,,,,,,,,,,,,,
,,,,,,,,,,stimuli/images/PICTURE_504.png,COPS,5c1a59395b2ab700015af793,01/01/1990,2020-08-13_12h53.34.302,proactive2,2020.1.2,MacIntel,60,5f341be081b9052c55068110,5f352791513d7347e9b3dfb3,2,,,,,,wheel,,,,,,0,44,44,52,1,6,1,,,,,,,,,,,,,,,,,,,,,,,,,,,,,,,,,,,,,,,,,,,,,,,,,,,,,,,,,,,,,,,,,,,,,,,,,,,,,,,,,,,,,,,,,,,,,,,,,,,
,,,,,,,,,,stimuli/images/PICTURE_297.png,RIVER,5c1a59395b2ab700015af793,01/01/1990,2020-08-13_12h53.34.302,proactive2,2020.1.2,MacIntel,60,5f341be081b9052c55068110,5f352791513d7347e9b3dfb3,2,,,,,,aeroplane,,,,,,0,45,45,39,1,4,1,,,,,,,,,,,,,,,,,,,,,,,,,,,,,,,,,,,,,,,,,,,,,,,,,,,,,,,,,,,,,,,,,,,,,,,,,,,,,,,,,,,,,,,,,,,,,,,,,,,
,,,,,,,,,,stimuli/images/PICTURE_744.png,WEAPON,5c1a59395b2ab700015af793,01/01/1990,2020-08-13_12h53.34.302,proactive2,2020.1.2,MacIntel,60,5f341be081b9052c55068110,5f352791513d7347e9b3dfb3,2,,,,,,ring,,,,,,0,46,46,50,1,6,1,,,,,,,,,,,,,,,,,,,,,,,,,,,,,,,,,,,,,,,,,,,,,,,,,,,,,,,,,,,,,,,,,,,,,,,,,,,,,,,,,,,,,,,,,,,,,,,,,,,
,,,,,,,,,,stimuli/images/PICTURE_308.png,FAMILY,5c1a59395b2ab700015af793,01/01/1990,2020-08-13_12h53.34.302,proactive2,2020.1.2,MacIntel,60,5f341be081b9052c55068110,5f352791513d7347e9b3dfb3,2,,,,,,dice,,,,,,0,47,47,36,1,4,1,,,,,,,,,,,,,,,,,,,,,,,,,,,,,,,,,,,,,,,,,,,,,,,,,,,,,,,,,,,,,,,,,,,,,,,,,,,,,,,,,,,,,,,,,,,,,,,,,,,
,,,,,,,,,,stimuli/images/PICTURE_340.png,VALLEY,5c1a59395b2ab700015af793,01/01/1990,2020-08-13_12h53.34.302,proactive2,2020.1.2,MacIntel,60,5f341be081b9052c55068110,5f352791513d7347e9b3dfb3,2,,,,,,mirror,,,,,,0,48,48,54,1,6,1,,,,,,,,,,,,,,,,,,,,,,,,,,,,,,,,,,,,,,,,,,,,,,,,,,,,,,,,,,,,,,,,,,,,,,,,,,,,,,,,,,,,,,,,,,,,,,,,,,,
,,,,,,,,,,stimuli/images/PICTURE_405.png,PLENTY,5c1a59395b2ab700015af793,01/01/1990,2020-08-13_12h53.34.302,proactive2,2020.1.2,MacIntel,60,5f341be081b9052c55068110,5f352791513d7347e9b3dfb3,2,,,,,,anchor,,,,,,0,49,49,23,1,3,1,,,,,,,,,,,,,,,,,,,,,,,,,,,,,,,,,,,,,,,,,,,,,,,,,,,,,,,,,,,,,,,,,,,,,,,,,,,,,,,,,,,,,,,,,,,,,,,,,,,
,,,,,,,,,,stimuli/images/PICTURE_339.png,CLIENT,5c1a59395b2ab700015af793,01/01/1990,2020-08-13_12h53.34.302,proactive2,2020.1.2,MacIntel,60,5f341be081b9052c55068110,5f352791513d7347e9b3dfb3,2,,,,,,backpack,,,,,,0,50,50,11,1,2,1,,,,,,,,,,,,,,,,,,,,,,,,,,,,,,,,,,,,,,,,,,,,,,,,,,,,,,,,,,,,,,,,,,,,,,,,,,,,,,,,,,,,,,,,,,,,,,,,,,,
,,,,,,,,,,stimuli/images/PICTURE_32.png,PILLS,5c1a59395b2ab700015af793,01/01/1990,2020-08-13_12h53.34.302,proactive2,2020.1.2,MacIntel,60,5f341be081b9052c55068110,5f352791513d7347e9b3dfb3,2,,,,,,crown,,,,,,0,51,51,18,1,2,1,,,,,,,,,,,,,,,,,,,,,,,,,,,,,,,,,,,,,,,,,,,,,,,,,,,,,,,,,,,,,,,,,,,,,,,,,,,,,,,,,,,,,,,,,,,,,,,,,,,
,,,,,,,,,,stimuli/images/PICTURE_403.png,RIVER,5c1a59395b2ab700015af793,01/01/1990,2020-08-13_12h53.34.302,proactive2,2020.1.2,MacIntel,60,5f341be081b9052c55068110,5f352791513d7347e9b3dfb3,2,,,,,,cathedral,,,,,,0,52,52,40,1,5,1,,,,,,,,,,,,,,,,,,,,,,,,,,,,,,,,,,,,,,,,,,,,,,,,,,,,,,,,,,,,,,,,,,,,,,,,,,,,,,,,,,,,,,,,,,,,,,,,,,,
,,,,,,,,,,stimuli/images/PICTURE_95.png,HONEY,5c1a59395b2ab700015af793,01/01/1990,2020-08-13_12h53.34.302,proactive2,2020.1.2,MacIntel,60,5f341be081b9052c55068110,5f352791513d7347e9b3dfb3,2,,,,,,suitcase,,,,,,0,53,53,44,1,5,1,,,,,,,,,,,,,,,,,,,,,,,,,,,,,,,,,,,,,,,,,,,,,,,,,,,,,,,,,,,,,,,,,,,,,,,,,,,,,,,,,,,,,,,,,,,,,,,,,,,
,,,,,,,,,,stimuli/images/PICTURE_654.png,MONTH,5c1a59395b2ab700015af793,01/01/1990,2020-08-13_12h53.34.302,proactive2,2020.1.2,MacIntel,60,5f341be081b9052c55068110,5f352791513d7347e9b3dfb3,2,,,,,,pencil,,,,,,0,54,54,29,1,3,1,,,,,,,,,,,,,,,,,,,,,,,,,,,,,,,,,,,,,,,,,,,,,,,,,,,,,,,,,,,,,,,,,,,,,,,,,,,,,,,,,,,,,,,,,,,,,,,,,,,
,,,,,,,,,,stimuli/images/PICTURE_95.png,MILLER,5c1a59395b2ab700015af793,01/01/1990,2020-08-13_12h53.34.302,proactive2,2020.1.2,MacIntel,60,5f341be081b9052c55068110,5f352791513d7347e9b3dfb3,2,,,,,,suitcase,,,,,,0,55,55,56,1,6,1,,,,,,,,,,,,,,,,,,,,,,,,,,,,,,,,,,,,,,,,,,,,,,,,,,,,,,,,,,,,,,,,,,,,,,,,,,,,,,,,,,,,,,,,,,,,,,,,,,,
,,,,,,,,,,stimuli/images/PICTURE_403.png,TOILET,5c1a59395b2ab700015af793,01/01/1990,2020-08-13_12h53.34.302,proactive2,2020.1.2,MacIntel,60,5f341be081b9052c55068110,5f352791513d7347e9b3dfb3,2,,,,,,cathedral,,,,,,0,56,56,25,1,3,1,,,,,,,,,,,,,,,,,,,,,,,,,,,,,,,,,,,,,,,,,,,,,,,,,,,,,,,,,,,,,,,,,,,,,,,,,,,,,,,,,,,,,,,,,,,,,,,,,,,
,,,,,,,,,,stimuli/images/PICTURE_285.png,LIFE,5c1a59395b2ab700015af793,01/01/1990,2020-08-13_12h53.34.302,proactive2,2020.1.2,MacIntel,60,5f341be081b9052c55068110,5f352791513d7347e9b3dfb3,2,,,,,,carrot,,,,,,0,57,57,33,1,4,1,,,,,,,,,,,,,,,,,,,,,,,,,,,,,,,,,,,,,,,,,,,,,,,,,,,,,,,,,,,,,,,,,,,,,,,,,,,,,,,,,,,,,,,,,,,,,,,,,,,
,,,,,,,,,,stimuli/images/PICTURE_33.png,FRIEND,5c1a59395b2ab700015af793,01/01/1990,2020-08-13_12h53.34.302,proactive2,2020.1.2,MacIntel,60,5f341be081b9052c55068110,5f352791513d7347e9b3dfb3,2,,,,,,frame,,,,,,0,58,58,8,1,1,1,,,,,,,,,,,,,,,,,,,,,,,,,,,,,,,,,,,,,,,,,,,,,,,,,,,,,,,,,,,,,,,,,,,,,,,,,,,,,,,,,,,,,,,,,,,,,,,,,,,
,,?,0.001,0,,,,,,stimuli/images/PICTURE_750.png,HOTEL,5c1a59395b2ab700015af793,01/01/1990,2020-08-13_12h53.34.302,proactive2,2020.1.2,MacIntel,60,5f341be081b9052c55068110,5f352791513d7347e9b3dfb3,2,,,,,,kettle,,,,,,,,,,,3,1,0,0,0,27,1,,,,,,,,,,,,,,,,,,,,,,,,,,,,,,,,,,,,,,,,,,,,,,,,,,,,,,,,,,,,,,,,,,,,,,,,,,,,,,,,,,,,,,,,,,,,,,
,,?,0.001,0,,,,,,stimuli/images/PICTURE_491.png,RIVER,5c1a59395b2ab700015af793,01/01/1990,2020-08-13_12h53.34.302,proactive2,2020.1.2,MacIntel,60,5f341be081b9052c55068110,5f352791513d7347e9b3dfb3,2,,,,,,rug,,,,,,,,,,,1,1,0,1,1,6,1,,,,,,,,,,,,,,,,,,,,,,,,,,,,,,,,,,,,,,,,,,,,,,,,,,,,,,,,,,,,,,,,,,,,,,,,,,,,,,,,,,,,,,,,,,,,,,
,,?,0.001,0,,,,,,stimuli/images/PICTURE_32.png,KIND,5c1a59395b2ab700015af793,01/01/1990,2020-08-13_12h53.34.302,proactive2,2020.1.2,MacIntel,60,5f341be081b9052c55068110,5f352791513d7347e9b3dfb3,2,,,,,,crown,,,,,,,,,,,4,1,0,2,2,35,1,,,,,,,,,,,,,,,,,,,,,,,,,,,,,,,,,,,,,,,,,,,,,,,,,,,,,,,,,,,,,,,,,,,,,,,,,,,,,,,,,,,,,,,,,,,,,,
,,?,0.001,0,,,,,,stimuli/images/PICTURE_68.png,ROOF,5c1a59395b2ab700015af793,01/01/1990,2020-08-13_12h53.34.302,proactive2,2020.1.2,MacIntel,60,5f341be081b9052c55068110,5f352791513d7347e9b3dfb3,2,,,,,,candle,,,,,,,,,,,4,1,0,3,3,38,1,,,,,,,,,,,,,,,,,,,,,,,,,,,,,,,,,,,,,,,,,,,,,,,,,,,,,,,,,,,,,,,,,,,,,,,,,,,,,,,,,,,,,,,,,,,,,,
,,?,0.001,0,,,,,,stimuli/images/PICTURE_504.png,ARTIST,5c1a59395b2ab700015af793,01/01/1990,2020-08-13_12h53.34.302,proactive2,2020.1.2,MacIntel,60,5f341be081b9052c55068110,5f352791513d7347e9b3dfb3,2,,,,,,wheel,,,,,,,,,,,5,1,0,4,4,49,1,,,,,,,,,,,,,,,,,,,,,,,,,,,,,,,,,,,,,,,,,,,,,,,,,,,,,,,,,,,,,,,,,,,,,,,,,,,,,,,,,,,,,,,,,,,,,,
,,?,0.001,0,,,,,,stimuli/images/PICTURE_564.png,BATH,5c1a59395b2ab700015af793,01/01/1990,2020-08-13_12h53.34.302,proactive2,2020.1.2,MacIntel,60,5f341be081b9052c55068110,5f352791513d7347e9b3dfb3,2,,,,,,spoon,,,,,,,,,,,3,1,0,5,5,26,1,,,,,,,,,,,,,,,,,,,,,,,,,,,,,,,,,,,,,,,,,,,,,,,,,,,,,,,,,,,,,,,,,,,,,,,,,,,,,,,,,,,,,,,,,,,,,,
,,?,0.001,0,,,,,,stimuli/images/PICTURE_33.png,FRIEND,5c1a59395b2ab700015af793,01/01/1990,2020-08-13_12h53.34.302,proactive2,2020.1.2,MacIntel,60,5f341be081b9052c55068110,5f352791513d7347e9b3dfb3,2,,,,,,frame,,,,,,,,,,,1,1,0,6,6,8,1,,,,,,,,,,,,,,,,,,,,,,,,,,,,,,,,,,,,,,,,,,,,,,,,,,,,,,,,,,,,,,,,,,,,,,,,,,,,,,,,,,,,,,,,,,,,,,
,,?,0,0,,,,,,stimuli/images/PICTURE_147.png,YEAR,5c1a59395b2ab700015af793,01/01/1990,2020-08-13_12h53.34.302,proactive2,2020.1.2,MacIntel,60,5f341be081b9052c55068110,5f352791513d7347e9b3dfb3,2,,,,,,hanger,,,,,,,,,,,3,1,0,7,7,21,1,,,,,,,,,,,,,,,,,,,,,,,,,,,,,,,,,,,,,,,,,,,,,,,,,,,,,,,,,,,,,,,,,,,,,,,,,,,,,,,,,,,,,,,,,,,,,,
,,?,0.001,0,,,,,,stimuli/images/PICTURE_95.png,BOYS,5c1a59395b2ab700015af793,01/01/1990,2020-08-13_12h53.34.302,proactive2,2020.1.2,MacIntel,60,5f341be081b9052c55068110,5f352791513d7347e9b3dfb3,2,,,,,,suitcase,,,,,,,,,,,1,1,0,8,8,1,1,,,,,,,,,,,,,,,,,,,,,,,,,,,,,,,,,,,,,,,,,,,,,,,,,,,,,,,,,,,,,,,,,,,,,,,,,,,,,,,,,,,,,,,,,,,,,,
,,?,0.001,0,,,,,,stimuli/images/PICTURE_504.png,COPS,5c1a59395b2ab700015af793,01/01/1990,2020-08-13_12h53.34.302,proactive2,2020.1.2,MacIntel,60,5f341be081b9052c55068110,5f352791513d7347e9b3dfb3,2,,,,,,wheel,,,,,,,,,,,6,1,0,9,9,52,1,,,,,,,,,,,,,,,,,,,,,,,,,,,,,,,,,,,,,,,,,,,,,,,,,,,,,,,,,,,,,,,,,,,,,,,,,,,,,,,,,,,,,,,,,,,,,,
,,?,0,0,,,,,,stimuli/images/PICTURE_327.png,CASINO,5c1a59395b2ab700015af793,01/01/1990,2020-08-13_12h53.34.302,proactive2,2020.1.2,MacIntel,60,5f341be081b9052c55068110,5f352791513d7347e9b3dfb3,2,,,,,,helmet,,,,,,,,,,,3,1,0,10,10,20,1,,,,,,,,,,,,,,,,,,,,,,,,,,,,,,,,,,,,,,,,,,,,,,,,,,,,,,,,,,,,,,,,,,,,,,,,,,,,,,,,,,,,,,,,,,,,,,
,,?,0.001,0,,,,,,stimuli/images/PICTURE_285.png,LIFE,5c1a59395b2ab700015af793,01/01/1990,2020-08-13_12h53.34.302,proactive2,2020.1.2,MacIntel,60,5f341be081b9052c55068110,5f352791513d7347e9b3dfb3,2,,,,,,carrot,,,,,,,,,,,4,1,0,11,11,33,1,,,,,,,,,,,,,,,,,,,,,,,,,,,,,,,,,,,,,,,,,,,,,,,,,,,,,,,,,,,,,,,,,,,,,,,,,,,,,,,,,,,,,,,,,,,,,,
,,?,3.742,0,,,,,,stimuli/images/PICTURE_469.png,AGENT,5c1a59395b2ab700015af793,01/01/1990,2020-08-13_12h53.34.302,proactive2,2020.1.2,MacIntel,60,5f341be081b9052c55068110,5f352791513d7347e9b3dfb3,2,,,,,,stool,,,,,,,,,,,2,1,0,12,12,16,1,,,,,,,,,,,,,,,,,,,,,,,,,,,,,,,,,,,,,,,,,,,,,,,,,,,,,,,,,,,,,,,,,,,,,,,,,,,,,,,,,,,,,,,,,,,,,,
,,?,0.002,0,,,,,,stimuli/images/PICTURE_95.png,HONEY,5c1a59395b2ab700015af793,01/01/1990,2020-08-13_12h53.34.302,proactive2,2020.1.2,MacIntel,60,5f341be081b9052c55068110,5f352791513d7347e9b3dfb3,2,,,,,,suitcase,,,,,,,,,,,5,1,0,13,13,44,1,,,,,,,,,,,,,,,,,,,,,,,,,,,,,,,,,,,,,,,,,,,,,,,,,,,,,,,,,,,,,,,,,,,,,,,,,,,,,,,,,,,,,,,,,,,,,,
,,?,0.002,0,,,,,,stimuli/images/PICTURE_675.png,SALE,5c1a59395b2ab700015af793,01/01/1990,2020-08-13_12h53.34.302,proactive2,2020.1.2,MacIntel,60,5f341be081b9052c55068110,5f352791513d7347e9b3dfb3,2,,,,,,windmill,,,,,,,,,,,5,1,0,14,14,47,1,,,,,,,,,,,,,,,,,,,,,,,,,,,,,,,,,,,,,,,,,,,,,,,,,,,,,,,,,,,,,,,,,,,,,,,,,,,,,,,,,,,,,,,,,,,,,,
,,?,0.001,0,,,,,,stimuli/images/PICTURE_708.png,RECORD,5c1a59395b2ab700015af793,01/01/1990,2020-08-13_12h53.34.302,proactive2,2020.1.2,MacIntel,60,5f341be081b9052c55068110,5f352791513d7347e9b3dfb3,2,,,,,,monkey,,,,,,,,,,,6,1,0,15,15,58,1,,,,,,,,,,,,,,,,,,,,,,,,,,,,,,,,,,,,,,,,,,,,,,,,,,,,,,,,,,,,,,,,,,,,,,,,,,,,,,,,,,,,,,,,,,,,,,
,,?,0,0,,,,,,stimuli/images/PICTURE_380.png,CANDY,5c1a59395b2ab700015af793,01/01/1990,2020-08-13_12h53.34.302,proactive2,2020.1.2,MacIntel,60,5f341be081b9052c55068110,5f352791513d7347e9b3dfb3,2,,,,,,gorilla,,,,,,,,,,,1,1,0,16,16,0,1,,,,,,,,,,,,,,,,,,,,,,,,,,,,,,,,,,,,,,,,,,,,,,,,,,,,,,,,,,,,,,,,,,,,,,,,,,,,,,,,,,,,,,,,,,,,,,
,,?,0.001,0,,,,,,stimuli/images/PICTURE_57.png,MOMENT,5c1a59395b2ab700015af793,01/01/1990,2020-08-13_12h53.34.302,proactive2,2020.1.2,MacIntel,60,5f341be081b9052c55068110,5f352791513d7347e9b3dfb3,2,,,,,,stamp,,,,,,,,,,,4,1,0,17,17,37,1,,,,,,,,,,,,,,,,,,,,,,,,,,,,,,,,,,,,,,,,,,,,,,,,,,,,,,,,,,,,,,,,,,,,,,,,,,,,,,,,,,,,,,,,,,,,,,
,,?,0.001,0,,,,,,stimuli/images/PICTURE_68.png,MILE,5c1a59395b2ab700015af793,01/01/1990,2020-08-13_12h53.34.302,proactive2,2020.1.2,MacIntel,60,5f341be081b9052c55068110,5f352791513d7347e9b3dfb3,2,,,,,,candle,,,,,,,,,,,6,1,0,18,18,51,1,,,,,,,,,,,,,,,,,,,,,,,,,,,,,,,,,,,,,,,,,,,,,,,,,,,,,,,,,,,,,,,,,,,,,,,,,,,,,,,,,,,,,,,,,,,,,,
,,?,0.001,0,,,,,,stimuli/images/PICTURE_403.png,TOILET,5c1a59395b2ab700015af793,01/01/1990,2020-08-13_12h53.34.302,proactive2,2020.1.2,MacIntel,60,5f341be081b9052c55068110,5f352791513d7347e9b3dfb3,2,,,,,,cathedral,,,,,,,,,,,3,1,0,19,19,25,1,,,,,,,,,,,,,,,,,,,,,,,,,,,,,,,,,,,,,,,,,,,,,,,,,,,,,,,,,,,,,,,,,,,,,,,,,,,,,,,,,,,,,,,,,,,,,,
,,?,0.001,0,,,,,,stimuli/images/PICTURE_233.png,LOTS,5c1a59395b2ab700015af793,01/01/1990,2020-08-13_12h53.34.302,proactive2,2020.1.2,MacIntel,60,5f341be081b9052c55068110,5f352791513d7347e9b3dfb3,2,,,,,,salt,,,,,,,,,,,5,1,0,20,20,42,1,,,,,,,,,,,,,,,,,,,,,,,,,,,,,,,,,,,,,,,,,,,,,,,,,,,,,,,,,,,,,,,,,,,,,,,,,,,,,,,,,,,,,,,,,,,,,,
,,?,0.001,0,,,,,,stimuli/images/PICTURE_744.png,WEAPON,5c1a59395b2ab700015af793,01/01/1990,2020-08-13_12h53.34.302,proactive2,2020.1.2,MacIntel,60,5f341be081b9052c55068110,5f352791513d7347e9b3dfb3,2,,,,,,ring,,,,,,,,,,,6,1,0,21,21,50,1,,,,,,,,,,,,,,,,,,,,,,,,,,,,,,,,,,,,,,,,,,,,,,,,,,,,,,,,,,,,,,,,,,,,,,,,,,,,,,,,,,,,,,,,,,,,,,
,,?,0.001,0,,,,,,stimuli/images/PICTURE_405.png,YEAR,5c1a59395b2ab700015af793,01/01/1990,2020-08-13_12h53.34.302,proactive2,2020.1.2,MacIntel,60,5f341be081b9052c55068110,5f352791513d7347e9b3dfb3,2,,,,,,anchor,,,,,,,,,,,4,1,0,22,22,34,1,,,,,,,,,,,,,,,,,,,,,,,,,,,,,,,,,,,,,,,,,,,,,,,,,,,,,,,,,,,,,,,,,,,,,,,,,,,,,,,,,,,,,,,,,,,,,,
,,?,0.001,0,,,,,,stimuli/images/PICTURE_42.png,BOYS,5c1a59395b2ab700015af793,01/01/1990,2020-08-13_12h53.34.302,proactive2,2020.1.2,MacIntel,60,5f341be081b9052c55068110,5f352791513d7347e9b3dfb3,2,,,,,,pear,,,,,,,,,,,6,1,0,23,23,55,1,,,,,,,,,,,,,,,,,,,,,,,,,,,,,,,,,,,,,,,,,,,,,,,,,,,,,,,,,,,,,,,,,,,,,,,,,,,,,,,,,,,,,,,,,,,,,,
,,?,0.001,0,,,,,,stimuli/images/PICTURE_383.png,WRITER,5c1a59395b2ab700015af793,01/01/1990,2020-08-13_12h53.34.302,proactive2,2020.1.2,MacIntel,60,5f341be081b9052c55068110,5f352791513d7347e9b3dfb3,2,,,,,,coin,,,,,,,,,,,3,1,0,24,24,28,1,,,,,,,,,,,,,,,,,,,,,,,,,,,,,,,,,,,,,,,,,,,,,,,,,,,,,,,,,,,,,,,,,,,,,,,,,,,,,,,,,,,,,,,,,,,,,,
,,?,0.001,0,,,,,,stimuli/images/PICTURE_208.png,SYSTEM,5c1a59395b2ab700015af793,01/01/1990,2020-08-13_12h53.34.302,proactive2,2020.1.2,MacIntel,60,5f341be081b9052c55068110,5f352791513d7347e9b3dfb3,2,,,,,,microphone,,,,,,,,,,,4,1,0,25,25,32,1,,,,,,,,,,,,,,,,,,,,,,,,,,,,,,,,,,,,,,,,,,,,,,,,,,,,,,,,,,,,,,,,,,,,,,,,,,,,,,,,,,,,,,,,,,,,,,
,,?,0,0,,,,,,stimuli/images/PICTURE_685.png,PENNY,5c1a59395b2ab700015af793,01/01/1990,2020-08-13_12h53.34.302,proactive2,2020.1.2,MacIntel,60,5f341be081b9052c55068110,5f352791513d7347e9b3dfb3,2,,,,,,goose,,,,,,,,,,,1,1,0,26,26,4,1,,,,,,,,,,,,,,,,,,,,,,,,,,,,,,,,,,,,,,,,,,,,,,,,,,,,,,,,,,,,,,,,,,,,,,,,,,,,,,,,,,,,,,,,,,,,,,
,,?,0.001,0,,,,,,stimuli/images/PICTURE_297.png,RIVER,5c1a59395b2ab700015af793,01/01/1990,2020-08-13_12h53.34.302,proactive2,2020.1.2,MacIntel,60,5f341be081b9052c55068110,5f352791513d7347e9b3dfb3,2,,,,,,aeroplane,,,,,,,,,,,4,1,0,27,27,39,1,,,,,,,,,,,,,,,,,,,,,,,,,,,,,,,,,,,,,,,,,,,,,,,,,,,,,,,,,,,,,,,,,,,,,,,,,,,,,,,,,,,,,,,,,,,,,,
,,DUDE,1.708,1,,,,,,stimuli/images/PICTURE_449.png,DUDE,5c1a59395b2ab700015af793,01/01/1990,2020-08-13_12h53.34.302,proactive2,2020.1.2,MacIntel,60,5f341be081b9052c55068110,5f352791513d7347e9b3dfb3,2,,,,,,bench,,,,,,,,,,,2,1,0,28,28,17,1,,,,,,,,,,,,,,,,,,,,,,,,,,,,,,,,,,,,,,,,,,,,,,,,,,,,,,,,,,,,,,,,,,,,,,,,,,,,,,,,,,,,,,,,,,,,,,
,,?,0.002,0,,,,,,stimuli/images/PICTURE_403.png,WRITER,5c1a59395b2ab700015af793,01/01/1990,2020-08-13_12h53.34.302,proactive2,2020.1.2,MacIntel,60,5f341be081b9052c55068110,5f352791513d7347e9b3dfb3,2,,,,,,cathedral,,,,,,,,,,,4,1,0,29,29,31,1,,,,,,,,,,,,,,,,,,,,,,,,,,,,,,,,,,,,,,,,,,,,,,,,,,,,,,,,,,,,,,,,,,,,,,,,,,,,,,,,,,,,,,,,,,,,,,
,,FLOWER,6.566,0,,,,,,stimuli/images/PICTURE_667.png,RIVER,5c1a59395b2ab700015af793,01/01/1990,2020-08-13_12h53.34.302,proactive2,2020.1.2,MacIntel,60,5f341be081b9052c55068110,5f352791513d7347e9b3dfb3,2,,,,,,daisy,,,,,,,,,,,2,1,0,30,30,10,1,,,,,,,,,,,,,,,,,,,,,,,,,,,,,,,,,,,,,,,,,,,,,,,,,,,,,,,,,,,,,,,,,,,,,,,,,,,,,,,,,,,,,,,,,,,,,,
,,?,4.018,0,,,,,,stimuli/images/PICTURE_339.png,CLIENT,5c1a59395b2ab700015af793,01/01/1990,2020-08-13_12h53.34.302,proactive2,2020.1.2,MacIntel,60,5f341be081b9052c55068110,5f352791513d7347e9b3dfb3,2,,,,,,backpack,,,,,,,,,,,2,1,0,31,31,11,1,,,,,,,,,,,,,,,,,,,,,,,,,,,,,,,,,,,,,,,,,,,,,,,,,,,,,,,,,,,,,,,,,,,,,,,,,,,,,,,,,,,,,,,,,,,,,,
,,PILLS,2.467,1,,,,,,stimuli/images/PICTURE_32.png,PILLS,5c1a59395b2ab700015af793,01/01/1990,2020-08-13_12h53.34.302,proactive2,2020.1.2,MacIntel,60,5f341be081b9052c55068110,5f352791513d7347e9b3dfb3,2,,,,,,crown,,,,,,,,,,,2,1,0,32,32,18,1,,,,,,,,,,,,,,,,,,,,,,,,,,,,,,,,,,,,,,,,,,,,,,,,,,,,,,,,,,,,,,,,,,,,,,,,,,,,,,,,,,,,,,,,,,,,,,
,,?,0.001,0,,,,,,stimuli/images/PICTURE_654.png,MONTH,5c1a59395b2ab700015af793,01/01/1990,2020-08-13_12h53.34.302,proactive2,2020.1.2,MacIntel,60,5f341be081b9052c55068110,5f352791513d7347e9b3dfb3,2,,,,,,pencil,,,,,,,,,,,3,1,0,33,33,29,1,,,,,,,,,,,,,,,,,,,,,,,,,,,,,,,,,,,,,,,,,,,,,,,,,,,,,,,,,,,,,,,,,,,,,,,,,,,,,,,,,,,,,,,,,,,,,,
,,?,0.001,0,,,,,,stimuli/images/PICTURE_108.png,FLIGHT,5c1a59395b2ab700015af793,01/01/1990,2020-08-13_12h53.34.302,proactive2,2020.1.2,MacIntel,60,5f341be081b9052c55068110,5f352791513d7347e9b3dfb3,2,,,,,,calendar,,,,,,,,,,,6,1,0,34,34,59,1,,,,,,,,,,,,,,,,,,,,,,,,,,,,,,,,,,,,,,,,,,,,,,,,,,,,,,,,,,,,,,,,,,,,,,,,,,,,,,,,,,,,,,,,,,,,,,
,,?,0.001,0,,,,,,stimuli/images/PICTURE_296.png,LOTS,5c1a59395b2ab700015af793,01/01/1990,2020-08-13_12h53.34.302,proactive2,2020.1.2,MacIntel,60,5f341be081b9052c55068110,5f352791513d7347e9b3dfb3,2,,,,,,bolt,,,,,,,,,,,1,1,0,35,35,9,1,,,,,,,,,,,,,,,,,,,,,,,,,,,,,,,,,,,,,,,,,,,,,,,,,,,,,,,,,,,,,,,,,,,,,,,,,,,,,,,,,,,,,,,,,,,,,,
,,?,0,0,,,,,,stimuli/images/PICTURE_327.png,SERIES,5c1a59395b2ab700015af793,01/01/1990,2020-08-13_12h53.34.302,proactive2,2020.1.2,MacIntel,60,5f341be081b9052c55068110,5f352791513d7347e9b3dfb3,2,,,,,,helmet,,,,,,,,,,,1,1,0,36,36,3,1,,,,,,,,,,,,,,,,,,,,,,,,,,,,,,,,,,,,,,,,,,,,,,,,,,,,,,,,,,,,,,,,,,,,,,,,,,,,,,,,,,,,,,,,,,,,,,
,,HONEY,1.843,1,,,,,,stimuli/images/PICTURE_380.png,HONEY,5c1a59395b2ab700015af793,01/01/1990,2020-08-13_12h53.34.302,proactive2,2020.1.2,MacIntel,60,5f341be081b9052c55068110,5f352791513d7347e9b3dfb3,2,,,,,,gorilla,,,,,,,,,,,2,1,0,37,37,19,1,,,,,,,,,,,,,,,,,,,,,,,,,,,,,,,,,,,,,,,,,,,,,,,,,,,,,,,,,,,,,,,,,,,,,,,,,,,,,,,,,,,,,,,,,,,,,,
,,?,0.001,0,,,,,,stimuli/images/PICTURE_487.png,GIRL,5c1a59395b2ab700015af793,01/01/1990,2020-08-13_12h53.34.302,proactive2,2020.1.2,MacIntel,60,5f341be081b9052c55068110,5f352791513d7347e9b3dfb3,2,,,,,,basket,,,,,,,,,,,5,1,0,38,38,45,1,,,,,,,,,,,,,,,,,,,,,,,,,,,,,,,,,,,,,,,,,,,,,,,,,,,,,,,,,,,,,,,,,,,,,,,,,,,,,,,,,,,,,,,,,,,,,,
,,?,0.001,0,,,,,,stimuli/images/PICTURE_340.png,LETTER,5c1a59395b2ab700015af793,01/01/1990,2020-08-13_12h53.34.302,proactive2,2020.1.2,MacIntel,60,5f341be081b9052c55068110,5f352791513d7347e9b3dfb3,2,,,,,,mirror,,,,,,,,,,,3,1,0,39,39,24,1,,,,,,,,,,,,,,,,,,,,,,,,,,,,,,,,,,,,,,,,,,,,,,,,,,,,,,,,,,,,,,,,,,,,,,,,,,,,,,,,,,,,,,,,,,,,,,
,,?,0,0,,,,,,stimuli/images/PICTURE_203.png,NIGHT,5c1a59395b2ab700015af793,01/01/1990,2020-08-13_12h53.34.302,proactive2,2020.1.2,MacIntel,60,5f341be081b9052c55068110,5f352791513d7347e9b3dfb3,2,,,,,,cap,,,,,,,,,,,1,1,0,40,40,2,1,,,,,,,,,,,,,,,,,,,,,,,,,,,,,,,,,,,,,,,,,,,,,,,,,,,,,,,,,,,,,,,,,,,,,,,,,,,,,,,,,,,,,,,,,,,,,,
,,?,0.001,0,,,,,,stimuli/images/PICTURE_296.png,LIFE,5c1a59395b2ab700015af793,01/01/1990,2020-08-13_12h53.34.302,proactive2,2020.1.2,MacIntel,60,5f341be081b9052c55068110,5f352791513d7347e9b3dfb3,2,,,,,,bolt,,,,,,,,,,,6,1,0,41,41,57,1,,,,,,,,,,,,,,,,,,,,,,,,,,,,,,,,,,,,,,,,,,,,,,,,,,,,,,,,,,,,,,,,,,,,,,,,,,,,,,,,,,,,,,,,,,,,,,
,,?,3.643,0,,,,,,stimuli/images/PICTURE_504.png,YEAR,5c1a59395b2ab700015af793,01/01/1990,2020-08-13_12h53.34.302,proactive2,2020.1.2,MacIntel,60,5f341be081b9052c55068110,5f352791513d7347e9b3dfb3,2,,,,,,wheel,,,,,,,,,,,2,1,0,42,42,13,1,,,,,,,,,,,,,,,,,,,,,,,,,,,,,,,,,,,,,,,,,,,,,,,,,,,,,,,,,,,,,,,,,,,,,,,,,,,,,,,,,,,,,,,,,,,,,,
,,SOCKS,3.452,0,,,,,,stimuli/images/PICTURE_655.png,TOILET,5c1a59395b2ab700015af793,01/01/1990,2020-08-13_12h53.34.302,proactive2,2020.1.2,MacIntel,60,5f341be081b9052c55068110,5f352791513d7347e9b3dfb3,2,,,,,,megaphone,,,,,,,,,,,2,1,0,43,43,12,1,,,,,,,,,,,,,,,,,,,,,,,,,,,,,,,,,,,,,,,,,,,,,,,,,,,,,,,,,,,,,,,,,,,,,,,,,,,,,,,,,,,,,,,,,,,,,,
,,?,0.001,0,,,,,,stimuli/images/PICTURE_108.png,POLICY,5c1a59395b2ab700015af793,01/01/1990,2020-08-13_12h53.34.302,proactive2,2020.1.2,MacIntel,60,5f341be081b9052c55068110,5f352791513d7347e9b3dfb3,2,,,,,,calendar,,,,,,,,,,,3,1,0,44,44,22,1,,,,,,,,,,,,,,,,,,,,,,,,,,,,,,,,,,,,,,,,,,,,,,,,,,,,,,,,,,,,,,,,,,,,,,,,,,,,,,,,,,,,,,,,,,,,,,
,,?,0.001,0,,,,,,stimuli/images/PICTURE_177.png,WRITER,5c1a59395b2ab700015af793,01/01/1990,2020-08-13_12h53.34.302,proactive2,2020.1.2,MacIntel,60,5f341be081b9052c55068110,5f352791513d7347e9b3dfb3,2,,,,,,mushroom,,,,,,,,,,,5,1,0,45,45,41,1,,,,,,,,,,,,,,,,,,,,,,,,,,,,,,,,,,,,,,,,,,,,,,,,,,,,,,,,,,,,,,,,,,,,,,,,,,,,,,,,,,,,,,,,,,,,,,
,,?,0.001,0,,,,,,stimuli/images/PICTURE_203.png,GODS,5c1a59395b2ab700015af793,01/01/1990,2020-08-13_12h53.34.302,proactive2,2020.1.2,MacIntel,60,5f341be081b9052c55068110,5f352791513d7347e9b3dfb3,2,,,,,,cap,,,,,,,,,,,4,1,0,46,46,30,1,,,,,,,,,,,,,,,,,,,,,,,,,,,,,,,,,,,,,,,,,,,,,,,,,,,,,,,,,,,,,,,,,,,,,,,,,,,,,,,,,,,,,,,,,,,,,,
,,?,0.001,0,,,,,,stimuli/images/PICTURE_467.png,POLICY,5c1a59395b2ab700015af793,01/01/1990,2020-08-13_12h53.34.302,proactive2,2020.1.2,MacIntel,60,5f341be081b9052c55068110,5f352791513d7347e9b3dfb3,2,,,,,,peg,,,,,,,,,,,6,1,0,47,47,53,1,,,,,,,,,,,,,,,,,,,,,,,,,,,,,,,,,,,,,,,,,,,,,,,,,,,,,,,,,,,,,,,,,,,,,,,,,,,,,,,,,,,,,,,,,,,,,,
,,?,0.001,0,,,,,,stimuli/images/PICTURE_677.png,APPLE,5c1a59395b2ab700015af793,01/01/1990,2020-08-13_12h53.34.302,proactive2,2020.1.2,MacIntel,60,5f341be081b9052c55068110,5f352791513d7347e9b3dfb3,2,,,,,,map,,,,,,,,,,,5,1,0,48,48,43,1,,,,,,,,,,,,,,,,,,,,,,,,,,,,,,,,,,,,,,,,,,,,,,,,,,,,,,,,,,,,,,,,,,,,,,,,,,,,,,,,,,,,,,,,,,,,,,
,,?,0,0,,,,,,stimuli/images/PICTURE_403.png,RIVER,5c1a59395b2ab700015af793,01/01/1990,2020-08-13_12h53.34.302,proactive2,2020.1.2,MacIntel,60,5f341be081b9052c55068110,5f352791513d7347e9b3dfb3,2,,,,,,cathedral,,,,,,,,,,,5,1,0,49,49,40,1,,,,,,,,,,,,,,,,,,,,,,,,,,,,,,,,,,,,,,,,,,,,,,,,,,,,,,,,,,,,,,,,,,,,,,,,,,,,,,,,,,,,,,,,,,,,,,
,,?,0.001,0,,,,,,stimuli/images/PICTURE_95.png,MILLER,5c1a59395b2ab700015af793,01/01/1990,2020-08-13_12h53.34.302,proactive2,2020.1.2,MacIntel,60,5f341be081b9052c55068110,5f352791513d7347e9b3dfb3,2,,,,,,suitcase,,,,,,,,,,,6,1,0,50,50,56,1,,,,,,,,,,,,,,,,,,,,,,,,,,,,,,,,,,,,,,,,,,,,,,,,,,,,,,,,,,,,,,,,,,,,,,,,,,,,,,,,,,,,,,,,,,,,,,
,,CELL,1.303,0,,,,,,stimuli/images/PICTURE_2.png,FLIGHT,5c1a59395b2ab700015af793,01/01/1990,2020-08-13_12h53.34.302,proactive2,2020.1.2,MacIntel,60,5f341be081b9052c55068110,5f352791513d7347e9b3dfb3,2,,,,,,tyre,,,,,,,,,,,2,1,0,51,51,15,1,,,,,,,,,,,,,,,,,,,,,,,,,,,,,,,,,,,,,,,,,,,,,,,,,,,,,,,,,,,,,,,,,,,,,,,,,,,,,,,,,,,,,,,,,,,,,,
,,GLASS,2.668,1,,,,,,stimuli/images/PICTURE_491.png,GLASS,5c1a59395b2ab700015af793,01/01/1990,2020-08-13_12h53.34.302,proactive2,2020.1.2,MacIntel,60,5f341be081b9052c55068110,5f352791513d7347e9b3dfb3,2,,,,,,rug,,,,,,,,,,,2,1,0,52,52,14,1,,,,,,,,,,,,,,,,,,,,,,,,,,,,,,,,,,,,,,,,,,,,,,,,,,,,,,,,,,,,,,,,,,,,,,,,,,,,,,,,,,,,,,,,,,,,,,
,,?,0.001,0,,,,,,stimuli/images/PICTURE_308.png,FAMILY,5c1a59395b2ab700015af793,01/01/1990,2020-08-13_12h53.34.302,proactive2,2020.1.2,MacIntel,60,5f341be081b9052c55068110,5f352791513d7347e9b3dfb3,2,,,,,,dice,,,,,,,,,,,4,1,0,53,53,36,1,,,,,,,,,,,,,,,,,,,,,,,,,,,,,,,,,,,,,,,,,,,,,,,,,,,,,,,,,,,,,,,,,,,,,,,,,,,,,,,,,,,,,,,,,,,,,,
,,?,0,0,,,,,,stimuli/images/PICTURE_85.png,NATION,5c1a59395b2ab700015af793,01/01/1990,2020-08-13_12h53.34.302,proactive2,2020.1.2,MacIntel,60,5f341be081b9052c55068110,5f352791513d7347e9b3dfb3,2,,,,,,diamond,,,,,,,,,,,1,1,0,54,54,5,1,,,,,,,,,,,,,,,,,,,,,,,,,,,,,,,,,,,,,,,,,,,,,,,,,,,,,,,,,,,,,,,,,,,,,,,,,,,,,,,,,,,,,,,,,,,,,,
,,?,0.001,0,,,,,,stimuli/images/PICTURE_383.png,SERIES,5c1a59395b2ab700015af793,01/01/1990,2020-08-13_12h53.34.302,proactive2,2020.1.2,MacIntel,60,5f341be081b9052c55068110,5f352791513d7347e9b3dfb3,2,,,,,,coin,,,,,,,,,,,5,1,0,55,55,46,1,,,,,,,,,,,,,,,,,,,,,,,,,,,,,,,,,,,,,,,,,,,,,,,,,,,,,,,,,,,,,,,,,,,,,,,,,,,,,,,,,,,,,,,,,,,,,,
,,?,0,0,,,,,,stimuli/images/PICTURE_85.png,TOILET,5c1a59395b2ab700015af793,01/01/1990,2020-08-13_12h53.34.302,proactive2,2020.1.2,MacIntel,60,5f341be081b9052c55068110,5f352791513d7347e9b3dfb3,2,,,,,,diamond,,,,,,,,,,,5,1,0,56,56,48,1,,,,,,,,,,,,,,,,,,,,,,,,,,,,,,,,,,,,,,,,,,,,,,,,,,,,,,,,,,,,,,,,,,,,,,,,,,,,,,,,,,,,,,,,,,,,,,
,,?,0.001,0,,,,,,stimuli/images/PICTURE_147.png,WOMEN,5c1a59395b2ab700015af793,01/01/1990,2020-08-13_12h53.34.302,proactive2,2020.1.2,MacIntel,60,5f341be081b9052c55068110,5f352791513d7347e9b3dfb3,2,,,,,,hanger,,,,,,,,,,,1,1,0,57,57,7,1,,,,,,,,,,,,,,,,,,,,,,,,,,,,,,,,,,,,,,,,,,,,,,,,,,,,,,,,,,,,,,,,,,,,,,,,,,,,,,,,,,,,,,,,,,,,,,
,,?,0,0,,,,,,stimuli/images/PICTURE_340.png,VALLEY,5c1a59395b2ab700015af793,01/01/1990,2020-08-13_12h53.34.302,proactive2,2020.1.2,MacIntel,60,5f341be081b9052c55068110,5f352791513d7347e9b3dfb3,2,,,,,,mirror,,,,,,,,,,,6,1,0,58,58,54,1,,,,,,,,,,,,,,,,,,,,,,,,,,,,,,,,,,,,,,,,,,,,,,,,,,,,,,,,,,,,,,,,,,,,,,,,,,,,,,,,,,,,,,,,,,,,,,
,,?,0.001,0,,,,,,stimuli/images/PICTURE_405.png,PLENTY,5c1a59395b2ab700015af793,01/01/1990,2020-08-13_12h53.34.302,proactive2,2020.1.2,MacIntel,60,5f341be081b9052c55068110,5f352791513d7347e9b3dfb3,2,,,,,,anchor,,,,,,,,,,,3,1,0,59,59,23,1,,,,,,,,,,,,,,,,,,,,,,,,,,,,,,,,,,,,,,,,,,,,,,,,,,,,,,,,,,,,,,,,,,,,,,,,,,,,,,,,,,,,,,,,,,,,,,
,,,,,,,,,,,,5c1a59395b2ab700015af793,01/01/1990,2020-08-13_12h53.34.302,proactive2,2020.1.2,MacIntel,60,5f341be081b9052c55068110,5f352791513d7347e9b3dfb3,2,,,,,,,,,,,,,,,,,,,,,,,,0,1,1,1,1,stimuli/learn-block2.csv,,,,,,,,,,,,,,,,,,,,,,,,,,,,,,,,,,,,,,,,,,,,,,,,,,,,,,,,,,,,,,,,,,,,,,,,,,,,,,,,,,,,,,,,
,,,,,,,,,,stimuli/images/PICTURE_2.png,JUNGLE,5c1a59395b2ab700015af793,01/01/1990,2020-08-13_12h53.34.302,proactive2,2020.1.2,MacIntel,60,5f341be081b9052c55068110,5f352791513d7347e9b3dfb3,2,,,,,,tyre,,,,,,0,0,0,1,1,1,2,,,,,,,,,,,,,,,,,,,,,,,,,,,,,,,,,,,,,,,,,,,,,,,,,,,,,,,,,,,,,,,,,,,,,,,,,,,,,,,,,,,,,,,,,,,,,,,,,,,
,,,,,,,,,,stimuli/images/PICTURE_33.png,COPS,5c1a59395b2ab700015af793,01/01/1990,2020-08-13_12h53.34.302,proactive2,2020.1.2,MacIntel,60,5f341be081b9052c55068110,5f352791513d7347e9b3dfb3,2,,,,,,frame,,,,,,0,1,1,29,1,3,2,,,,,,,,,,,,,,,,,,,,,,,,,,,,,,,,,,,,,,,,,,,,,,,,,,,,,,,,,,,,,,,,,,,,,,,,,,,,,,,,,,,,,,,,,,,,,,,,,,,
,,,,,,,,,,stimuli/images/PICTURE_297.png,BODY,5c1a59395b2ab700015af793,01/01/1990,2020-08-13_12h53.34.302,proactive2,2020.1.2,MacIntel,60,5f341be081b9052c55068110,5f352791513d7347e9b3dfb3,2,,,,,,aeroplane,,,,,,0,2,2,51,1,6,2,,,,,,,,,,,,,,,,,,,,,,,,,,,,,,,,,,,,,,,,,,,,,,,,,,,,,,,,,,,,,,,,,,,,,,,,,,,,,,,,,,,,,,,,,,,,,,,,,,,
,,,,,,,,,,stimuli/images/PICTURE_487.png,ROOF,5c1a59395b2ab700015af793,01/01/1990,2020-08-13_12h53.34.302,proactive2,2020.1.2,MacIntel,60,5f341be081b9052c55068110,5f352791513d7347e9b3dfb3,2,,,,,,basket,,,,,,0,3,3,50,1,6,2,,,,,,,,,,,,,,,,,,,,,,,,,,,,,,,,,,,,,,,,,,,,,,,,,,,,,,,,,,,,,,,,,,,,,,,,,,,,,,,,,,,,,,,,,,,,,,,,,,,
,,,,,,,,,,stimuli/images/PICTURE_147.png,LEADER,5c1a59395b2ab700015af793,01/01/1990,2020-08-13_12h53.34.302,proactive2,2020.1.2,MacIntel,60,5f341be081b9052c55068110,5f352791513d7347e9b3dfb3,2,,,,,,hanger,,,,,,0,4,4,33,1,4,2,,,,,,,,,,,,,,,,,,,,,,,,,,,,,,,,,,,,,,,,,,,,,,,,,,,,,,,,,,,,,,,,,,,,,,,,,,,,,,,,,,,,,,,,,,,,,,,,,,,
,,,,,,,,,,stimuli/images/PICTURE_95.png,NIGHT,5c1a59395b2ab700015af793,01/01/1990,2020-08-13_12h53.34.302,proactive2,2020.1.2,MacIntel,60,5f341be081b9052c55068110,5f352791513d7347e9b3dfb3,2,,,,,,suitcase,,,,,,0,5,5,37,1,4,2,,,,,,,,,,,,,,,,,,,,,,,,,,,,,,,,,,,,,,,,,,,,,,,,,,,,,,,,,,,,,,,,,,,,,,,,,,,,,,,,,,,,,,,,,,,,,,,,,,,
,,,,,,,,,,stimuli/images/PICTURE_405.png,HOUSE,5c1a59395b2ab700015af793,01/01/1990,2020-08-13_12h53.34.302,proactive2,2020.1.2,MacIntel,60,5f341be081b9052c55068110,5f352791513d7347e9b3dfb3,2,,,,,,anchor,,,,,,0,6,6,2,1,1,2,,,,,,,,,,,,,,,,,,,,,,,,,,,,,,,,,,,,,,,,,,,,,,,,,,,,,,,,,,,,,,,,,,,,,,,,,,,,,,,,,,,,,,,,,,,,,,,,,,,
,,,,,,,,,,stimuli/images/PICTURE_403.png,FAMILY,5c1a59395b2ab700015af793,01/01/1990,2020-08-13_12h53.34.302,proactive2,2020.1.2,MacIntel,60,5f341be081b9052c55068110,5f352791513d7347e9b3dfb3,2,,,,,,cathedral,,,,,,0,7,7,9,1,1,2,,,,,,,,,,,,,,,,,,,,,,,,,,,,,,,,,,,,,,,,,,,,,,,,,,,,,,,,,,,,,,,,,,,,,,,,,,,,,,,,,,,,,,,,,,,,,,,,,,,
,,,,,,,,,,stimuli/images/PICTURE_2.png,YARD,5c1a59395b2ab700015af793,01/01/1990,2020-08-13_12h53.34.302,proactive2,2020.1.2,MacIntel,60,5f341be081b9052c55068110,5f352791513d7347e9b3dfb3,2,,,,,,tyre,,,,,,0,8,8,55,1,6,2,,,,,,,,,,,,,,,,,,,,,,,,,,,,,,,,,,,,,,,,,,,,,,,,,,,,,,,,,,,,,,,,,,,,,,,,,,,,,,,,,,,,,,,,,,,,,,,,,,,
,,,,,,,,,,stimuli/images/PICTURE_509.png,SHOTS,5c1a59395b2ab700015af793,01/01/1990,2020-08-13_12h53.34.302,proactive2,2020.1.2,MacIntel,60,5f341be081b9052c55068110,5f352791513d7347e9b3dfb3,2,,,,,,telephone,,,,,,0,9,9,7,1,1,2,,,,,,,,,,,,,,,,,,,,,,,,,,,,,,,,,,,,,,,,,,,,,,,,,,,,,,,,,,,,,,,,,,,,,,,,,,,,,,,,,,,,,,,,,,,,,,,,,,,
,,,,,,,,,,stimuli/images/PICTURE_141.png,CLIENT,5c1a59395b2ab700015af793,01/01/1990,2020-08-13_12h53.34.302,proactive2,2020.1.2,MacIntel,60,5f341be081b9052c55068110,5f352791513d7347e9b3dfb3,2,,,,,,sunflower,,,,,,0,10,10,30,1,4,2,,,,,,,,,,,,,,,,,,,,,,,,,,,,,,,,,,,,,,,,,,,,,,,,,,,,,,,,,,,,,,,,,,,,,,,,,,,,,,,,,,,,,,,,,,,,,,,,,,,
,,,,,,,,,,stimuli/images/PICTURE_93.png,GIRL,5c1a59395b2ab700015af793,01/01/1990,2020-08-13_12h53.34.302,proactive2,2020.1.2,MacIntel,60,5f341be081b9052c55068110,5f352791513d7347e9b3dfb3,2,,,,,,skateboard,,,,,,0,11,11,31,1,4,2,,,,,,,,,,,,,,,,,,,,,,,,,,,,,,,,,,,,,,,,,,,,,,,,,,,,,,,,,,,,,,,,,,,,,,,,,,,,,,,,,,,,,,,,,,,,,,,,,,,
,,,,,,,,,,stimuli/images/PICTURE_296.png,CLOCK,5c1a59395b2ab700015af793,01/01/1990,2020-08-13_12h53.34.302,proactive2,2020.1.2,MacIntel,60,5f341be081b9052c55068110,5f352791513d7347e9b3dfb3,2,,,,,,bolt,,,,,,0,12,12,18,1,2,2,,,,,,,,,,,,,,,,,,,,,,,,,,,,,,,,,,,,,,,,,,,,,,,,,,,,,,,,,,,,,,,,,,,,,,,,,,,,,,,,,,,,,,,,,,,,,,,,,,,
,,,,,,,,,,stimuli/images/PICTURE_314.png,SPEECH,5c1a59395b2ab700015af793,01/01/1990,2020-08-13_12h53.34.302,proactive2,2020.1.2,MacIntel,60,5f341be081b9052c55068110,5f352791513d7347e9b3dfb3,2,,,,,,perfume,,,,,,0,13,13,35,1,4,2,,,,,,,,,,,,,,,,,,,,,,,,,,,,,,,,,,,,,,,,,,,,,,,,,,,,,,,,,,,,,,,,,,,,,,,,,,,,,,,,,,,,,,,,,,,,,,,,,,,
,,,,,,,,,,stimuli/images/PICTURE_348.png,TOILET,5c1a59395b2ab700015af793,01/01/1990,2020-08-13_12h53.34.302,proactive2,2020.1.2,MacIntel,60,5f341be081b9052c55068110,5f352791513d7347e9b3dfb3,2,,,,,,pepper,,,,,,0,14,14,4,1,1,2,,,,,,,,,,,,,,,,,,,,,,,,,,,,,,,,,,,,,,,,,,,,,,,,,,,,,,,,,,,,,,,,,,,,,,,,,,,,,,,,,,,,,,,,,,,,,,,,,,,
,,,,,,,,,,stimuli/images/PICTURE_688.png,CLOCK,5c1a59395b2ab700015af793,01/01/1990,2020-08-13_12h53.34.302,proactive2,2020.1.2,MacIntel,60,5f341be081b9052c55068110,5f352791513d7347e9b3dfb3,2,,,,,,runner,,,,,,0,15,15,42,1,5,2,,,,,,,,,,,,,,,,,,,,,,,,,,,,,,,,,,,,,,,,,,,,,,,,,,,,,,,,,,,,,,,,,,,,,,,,,,,,,,,,,,,,,,,,,,,,,,,,,,,
,,,,,,,,,,stimuli/images/PICTURE_405.png,JUNGLE,5c1a59395b2ab700015af793,01/01/1990,2020-08-13_12h53.34.302,proactive2,2020.1.2,MacIntel,60,5f341be081b9052c55068110,5f352791513d7347e9b3dfb3,2,,,,,,anchor,,,,,,0,16,16,13,1,2,2,,,,,,,,,,,,,,,,,,,,,,,,,,,,,,,,,,,,,,,,,,,,,,,,,,,,,,,,,,,,,,,,,,,,,,,,,,,,,,,,,,,,,,,,,,,,,,,,,,,
,,,,,,,,,,stimuli/images/PICTURE_57.png,NATION,5c1a59395b2ab700015af793,01/01/1990,2020-08-13_12h53.34.302,proactive2,2020.1.2,MacIntel,60,5f341be081b9052c55068110,5f352791513d7347e9b3dfb3,2,,,,,,stamp,,,,,,0,17,17,21,1,3,2,,,,,,,,,,,,,,,,,,,,,,,,,,,,,,,,,,,,,,,,,,,,,,,,,,,,,,,,,,,,,,,,,,,,,,,,,,,,,,,,,,,,,,,,,,,,,,,,,,,
,,,,,,,,,,stimuli/images/PICTURE_654.png,COPS,5c1a59395b2ab700015af793,01/01/1990,2020-08-13_12h53.34.302,proactive2,2020.1.2,MacIntel,60,5f341be081b9052c55068110,5f352791513d7347e9b3dfb3,2,,,,,,pencil,,,,,,0,18,18,10,1,2,2,,,,,,,,,,,,,,,,,,,,,,,,,,,,,,,,,,,,,,,,,,,,,,,,,,,,,,,,,,,,,,,,,,,,,,,,,,,,,,,,,,,,,,,,,,,,,,,,,,,
,,,,,,,,,,stimuli/images/PICTURE_215.png,BOYS,5c1a59395b2ab700015af793,01/01/1990,2020-08-13_12h53.34.302,proactive2,2020.1.2,MacIntel,60,5f341be081b9052c55068110,5f352791513d7347e9b3dfb3,2,,,,,,boot,,,,,,0,19,19,24,1,3,2,,,,,,,,,,,,,,,,,,,,,,,,,,,,,,,,,,,,,,,,,,,,,,,,,,,,,,,,,,,,,,,,,,,,,,,,,,,,,,,,,,,,,,,,,,,,,,,,,,,
,,,,,,,,,,stimuli/images/PICTURE_692.png,DUDE,5c1a59395b2ab700015af793,01/01/1990,2020-08-13_12h53.34.302,proactive2,2020.1.2,MacIntel,60,5f341be081b9052c55068110,5f352791513d7347e9b3dfb3,2,,,,,,cherry,,,,,,0,20,20,47,1,5,2,,,,,,,,,,,,,,,,,,,,,,,,,,,,,,,,,,,,,,,,,,,,,,,,,,,,,,,,,,,,,,,,,,,,,,,,,,,,,,,,,,,,,,,,,,,,,,,,,,,
,,,,,,,,,,stimuli/images/PICTURE_453.png,FAMILY,5c1a59395b2ab700015af793,01/01/1990,2020-08-13_12h53.34.302,proactive2,2020.1.2,MacIntel,60,5f341be081b9052c55068110,5f352791513d7347e9b3dfb3,2,,,,,,scissors,,,,,,0,21,21,48,1,5,2,,,,,,,,,,,,,,,,,,,,,,,,,,,,,,,,,,,,,,,,,,,,,,,,,,,,,,,,,,,,,,,,,,,,,,,,,,,,,,,,,,,,,,,,,,,,,,,,,,,
,,,,,,,,,,stimuli/images/PICTURE_215.png,LEADER,5c1a59395b2ab700015af793,01/01/1990,2020-08-13_12h53.34.302,proactive2,2020.1.2,MacIntel,60,5f341be081b9052c55068110,5f352791513d7347e9b3dfb3,2,,,,,,boot,,,,,,0,22,22,43,1,5,2,,,,,,,,,,,,,,,,,,,,,,,,,,,,,,,,,,,,,,,,,,,,,,,,,,,,,,,,,,,,,,,,,,,,,,,,,,,,,,,,,,,,,,,,,,,,,,,,,,,
,,,,,,,,,,stimuli/images/PICTURE_564.png,PLENTY,5c1a59395b2ab700015af793,01/01/1990,2020-08-13_12h53.34.302,proactive2,2020.1.2,MacIntel,60,5f341be081b9052c55068110,5f352791513d7347e9b3dfb3,2,,,,,,spoon,,,,,,0,23,23,11,1,2,2,,,,,,,,,,,,,,,,,,,,,,,,,,,,,,,,,,,,,,,,,,,,,,,,,,,,,,,,,,,,,,,,,,,,,,,,,,,,,,,,,,,,,,,,,,,,,,,,,,,
,,,,,,,,,,stimuli/images/PICTURE_123.png,SALE,5c1a59395b2ab700015af793,01/01/1990,2020-08-13_12h53.34.302,proactive2,2020.1.2,MacIntel,60,5f341be081b9052c55068110,5f352791513d7347e9b3dfb3,2,,,,,,dart,,,,,,0,24,24,8,1,1,2,,,,,,,,,,,,,,,,,,,,,,,,,,,,,,,,,,,,,,,,,,,,,,,,,,,,,,,,,,,,,,,,,,,,,,,,,,,,,,,,,,,,,,,,,,,,,,,,,,,
,,,,,,,,,,stimuli/images/PICTURE_177.png,HOUSE,5c1a59395b2ab700015af793,01/01/1990,2020-08-13_12h53.34.302,proactive2,2020.1.2,MacIntel,60,5f341be081b9052c55068110,5f352791513d7347e9b3dfb3,2,,,,,,mushroom,,,,,,0,25,25,25,1,3,2,,,,,,,,,,,,,,,,,,,,,,,,,,,,,,,,,,,,,,,,,,,,,,,,,,,,,,,,,,,,,,,,,,,,,,,,,,,,,,,,,,,,,,,,,,,,,,,,,,,
,,,,,,,,,,stimuli/images/PICTURE_655.png,SALE,5c1a59395b2ab700015af793,01/01/1990,2020-08-13_12h53.34.302,proactive2,2020.1.2,MacIntel,60,5f341be081b9052c55068110,5f352791513d7347e9b3dfb3,2,,,,,,megaphone,,,,,,0,26,26,57,1,6,2,,,,,,,,,,,,,,,,,,,,,,,,,,,,,,,,,,,,,,,,,,,,,,,,,,,,,,,,,,,,,,,,,,,,,,,,,,,,,,,,,,,,,,,,,,,,,,,,,,,
,,,,,,,,,,stimuli/images/PICTURE_677.png,FAMILY,5c1a59395b2ab700015af793,01/01/1990,2020-08-13_12h53.34.302,proactive2,2020.1.2,MacIntel,60,5f341be081b9052c55068110,5f352791513d7347e9b3dfb3,2,,,,,,map,,,,,,0,27,27,53,1,6,2,,,,,,,,,,,,,,,,,,,,,,,,,,,,,,,,,,,,,,,,,,,,,,,,,,,,,,,,,,,,,,,,,,,,,,,,,,,,,,,,,,,,,,,,,,,,,,,,,,,
,,,,,,,,,,stimuli/images/PICTURE_2.png,AREA,5c1a59395b2ab700015af793,01/01/1990,2020-08-13_12h53.34.302,proactive2,2020.1.2,MacIntel,60,5f341be081b9052c55068110,5f352791513d7347e9b3dfb3,2,,,,,,tyre,,,,,,0,28,28,32,1,4,2,,,,,,,,,,,,,,,,,,,,,,,,,,,,,,,,,,,,,,,,,,,,,,,,,,,,,,,,,,,,,,,,,,,,,,,,,,,,,,,,,,,,,,,,,,,,,,,,,,,
,,,,,,,,,,stimuli/images/PICTURE_677.png,PHOTO,5c1a59395b2ab700015af793,01/01/1990,2020-08-13_12h53.34.302,proactive2,2020.1.2,MacIntel,60,5f341be081b9052c55068110,5f352791513d7347e9b3dfb3,2,,,,,,map,,,,,,0,29,29,14,1,2,2,,,,,,,,,,,,,,,,,,,,,,,,,,,,,,,,,,,,,,,,,,,,,,,,,,,,,,,,,,,,,,,,,,,,,,,,,,,,,,,,,,,,,,,,,,,,,,,,,,,
,,,,,,,,,,stimuli/images/PICTURE_255.png,PENNY,5c1a59395b2ab700015af793,01/01/1990,2020-08-13_12h53.34.302,proactive2,2020.1.2,MacIntel,60,5f341be081b9052c55068110,5f352791513d7347e9b3dfb3,2,,,,,,shovel,,,,,,0,30,30,19,1,2,2,,,,,,,,,,,,,,,,,,,,,,,,,,,,,,,,,,,,,,,,,,,,,,,,,,,,,,,,,,,,,,,,,,,,,,,,,,,,,,,,,,,,,,,,,,,,,,,,,,,
,,,,,,,,,,stimuli/images/PICTURE_18.png,RIVER,5c1a59395b2ab700015af793,01/01/1990,2020-08-13_12h53.34.302,proactive2,2020.1.2,MacIntel,60,5f341be081b9052c55068110,5f352791513d7347e9b3dfb3,2,,,,,,planet,,,,,,0,31,31,22,1,3,2,,,,,,,,,,,,,,,,,,,,,,,,,,,,,,,,,,,,,,,,,,,,,,,,,,,,,,,,,,,,,,,,,,,,,,,,,,,,,,,,,,,,,,,,,,,,,,,,,,,
,,,,,,,,,,stimuli/images/PICTURE_311.png,TOILET,5c1a59395b2ab700015af793,01/01/1990,2020-08-13_12h53.34.302,proactive2,2020.1.2,MacIntel,60,5f341be081b9052c55068110,5f352791513d7347e9b3dfb3,2,,,,,,razor,,,,,,0,32,32,54,1,6,2,,,,,,,,,,,,,,,,,,,,,,,,,,,,,,,,,,,,,,,,,,,,,,,,,,,,,,,,,,,,,,,,,,,,,,,,,,,,,,,,,,,,,,,,,,,,,,,,,,,
,,,,,,,,,,stimuli/images/PICTURE_491.png,SERIES,5c1a59395b2ab700015af793,01/01/1990,2020-08-13_12h53.34.302,proactive2,2020.1.2,MacIntel,60,5f341be081b9052c55068110,5f352791513d7347e9b3dfb3,2,,,,,,rug,,,,,,0,33,33,39,1,4,2,,,,,,,,,,,,,,,,,,,,,,,,,,,,,,,,,,,,,,,,,,,,,,,,,,,,,,,,,,,,,,,,,,,,,,,,,,,,,,,,,,,,,,,,,,,,,,,,,,,
,,,,,,,,,,stimuli/images/PICTURE_708.png,VALLEY,5c1a59395b2ab700015af793,01/01/1990,2020-08-13_12h53.34.302,proactive2,2020.1.2,MacIntel,60,5f341be081b9052c55068110,5f352791513d7347e9b3dfb3,2,,,,,,monkey,,,,,,0,34,34,45,1,5,2,,,,,,,,,,,,,,,,,,,,,,,,,,,,,,,,,,,,,,,,,,,,,,,,,,,,,,,,,,,,,,,,,,,,,,,,,,,,,,,,,,,,,,,,,,,,,,,,,,,
,,,,,,,,,,stimuli/images/PICTURE_750.png,POLICY,5c1a59395b2ab700015af793,01/01/1990,2020-08-13_12h53.34.302,proactive2,2020.1.2,MacIntel,60,5f341be081b9052c55068110,5f352791513d7347e9b3dfb3,2,,,,,,kettle,,,,,,0,35,35,44,1,5,2,,,,,,,,,,,,,,,,,,,,,,,,,,,,,,,,,,,,,,,,,,,,,,,,,,,,,,,,,,,,,,,,,,,,,,,,,,,,,,,,,,,,,,,,,,,,,,,,,,,
,,,,,,,,,,stimuli/images/PICTURE_348.png,DUDE,5c1a59395b2ab700015af793,01/01/1990,2020-08-13_12h53.34.302,proactive2,2020.1.2,MacIntel,60,5f341be081b9052c55068110,5f352791513d7347e9b3dfb3,2,,,,,,pepper,,,,,,0,36,36,59,1,6,2,,,,,,,,,,,,,,,,,,,,,,,,,,,,,,,,,,,,,,,,,,,,,,,,,,,,,,,,,,,,,,,,,,,,,,,,,,,,,,,,,,,,,,,,,,,,,,,,,,,
,,,,,,,,,,stimuli/images/PICTURE_452.png,COPS,5c1a59395b2ab700015af793,01/01/1990,2020-08-13_12h53.34.302,proactive2,2020.1.2,MacIntel,60,5f341be081b9052c55068110,5f352791513d7347e9b3dfb3,2,,,,,,watch,,,,,,0,37,37,0,1,1,2,,,,,,,,,,,,,,,,,,,,,,,,,,,,,,,,,,,,,,,,,,,,,,,,,,,,,,,,,,,,,,,,,,,,,,,,,,,,,,,,,,,,,,,,,,,,,,,,,,,
,,,,,,,,,,stimuli/images/PICTURE_68.png,KIND,5c1a59395b2ab700015af793,01/01/1990,2020-08-13_12h53.34.302,proactive2,2020.1.2,MacIntel,60,5f341be081b9052c55068110,5f352791513d7347e9b3dfb3,2,,,,,,candle,,,,,,0,38,38,23,1,3,2,,,,,,,,,,,,,,,,,,,,,,,,,,,,,,,,,,,,,,,,,,,,,,,,,,,,,,,,,,,,,,,,,,,,,,,,,,,,,,,,,,,,,,,,,,,,,,,,,,,
,,,,,,,,,,stimuli/images/PICTURE_311.png,FLESH,5c1a59395b2ab700015af793,01/01/1990,2020-08-13_12h53.34.302,proactive2,2020.1.2,MacIntel,60,5f341be081b9052c55068110,5f352791513d7347e9b3dfb3,2,,,,,,razor,,,,,,0,39,39,3,1,1,2,,,,,,,,,,,,,,,,,,,,,,,,,,,,,,,,,,,,,,,,,,,,,,,,,,,,,,,,,,,,,,,,,,,,,,,,,,,,,,,,,,,,,,,,,,,,,,,,,,,
,,,,,,,,,,stimuli/images/PICTURE_57.png,CASINO,5c1a59395b2ab700015af793,01/01/1990,2020-08-13_12h53.34.302,proactive2,2020.1.2,MacIntel,60,5f341be081b9052c55068110,5f352791513d7347e9b3dfb3,2,,,,,,stamp,,,,,,0,40,40,12,1,2,2,,,,,,,,,,,,,,,,,,,,,,,,,,,,,,,,,,,,,,,,,,,,,,,,,,,,,,,,,,,,,,,,,,,,,,,,,,,,,,,,,,,,,,,,,,,,,,,,,,,
,,,,,,,,,,stimuli/images/PICTURE_208.png,SPIRIT,5c1a59395b2ab700015af793,01/01/1990,2020-08-13_12h53.34.302,proactive2,2020.1.2,MacIntel,60,5f341be081b9052c55068110,5f352791513d7347e9b3dfb3,2,,,,,,microphone,,,,,,0,41,41,28,1,3,2,,,,,,,,,,,,,,,,,,,,,,,,,,,,,,,,,,,,,,,,,,,,,,,,,,,,,,,,,,,,,,,,,,,,,,,,,,,,,,,,,,,,,,,,,,,,,,,,,,,
,,,,,,,,,,stimuli/images/PICTURE_509.png,APPLE,5c1a59395b2ab700015af793,01/01/1990,2020-08-13_12h53.34.302,proactive2,2020.1.2,MacIntel,60,5f341be081b9052c55068110,5f352791513d7347e9b3dfb3,2,,,,,,telephone,,,,,,0,42,42,38,1,4,2,,,,,,,,,,,,,,,,,,,,,,,,,,,,,,,,,,,,,,,,,,,,,,,,,,,,,,,,,,,,,,,,,,,,,,,,,,,,,,,,,,,,,,,,,,,,,,,,,,,
,,,,,,,,,,stimuli/images/PICTURE_470.png,MOMENT,5c1a59395b2ab700015af793,01/01/1990,2020-08-13_12h53.34.302,proactive2,2020.1.2,MacIntel,60,5f341be081b9052c55068110,5f352791513d7347e9b3dfb3,2,,,,,,motorbike,,,,,,0,43,43,40,1,5,2,,,,,,,,,,,,,,,,,,,,,,,,,,,,,,,,,,,,,,,,,,,,,,,,,,,,,,,,,,,,,,,,,,,,,,,,,,,,,,,,,,,,,,,,,,,,,,,,,,,
,,,,,,,,,,stimuli/images/PICTURE_32.png,LETTER,5c1a59395b2ab700015af793,01/01/1990,2020-08-13_12h53.34.302,proactive2,2020.1.2,MacIntel,60,5f341be081b9052c55068110,5f352791513d7347e9b3dfb3,2,,,,,,crown,,,,,,0,44,44,56,1,6,2,,,,,,,,,,,,,,,,,,,,,,,,,,,,,,,,,,,,,,,,,,,,,,,,,,,,,,,,,,,,,,,,,,,,,,,,,,,,,,,,,,,,,,,,,,,,,,,,,,,
,,,,,,,,,,stimuli/images/PICTURE_654.png,YEAR,5c1a59395b2ab700015af793,01/01/1990,2020-08-13_12h53.34.302,proactive2,2020.1.2,MacIntel,60,5f341be081b9052c55068110,5f352791513d7347e9b3dfb3,2,,,,,,pencil,,,,,,0,45,45,41,1,5,2,,,,,,,,,,,,,,,,,,,,,,,,,,,,,,,,,,,,,,,,,,,,,,,,,,,,,,,,,,,,,,,,,,,,,,,,,,,,,,,,,,,,,,,,,,,,,,,,,,,
,,,,,,,,,,stimuli/images/PICTURE_327.png,LEADER,5c1a59395b2ab700015af793,01/01/1990,2020-08-13_12h53.34.302,proactive2,2020.1.2,MacIntel,60,5f341be081b9052c55068110,5f352791513d7347e9b3dfb3,2,,,,,,helmet,,,,,,0,46,46,17,1,2,2,,,,,,,,,,,,,,,,,,,,,,,,,,,,,,,,,,,,,,,,,,,,,,,,,,,,,,,,,,,,,,,,,,,,,,,,,,,,,,,,,,,,,,,,,,,,,,,,,,,
,,,,,,,,,,stimuli/images/PICTURE_470.png,BEAUTY,5c1a59395b2ab700015af793,01/01/1990,2020-08-13_12h53.34.302,proactive2,2020.1.2,MacIntel,60,5f341be081b9052c55068110,5f352791513d7347e9b3dfb3,2,,,,,,motorbike,,,,,,0,47,47,26,1,3,2,,,,,,,,,,,,,,,,,,,,,,,,,,,,,,,,,,,,,,,,,,,,,,,,,,,,,,,,,,,,,,,,,,,,,,,,,,,,,,,,,,,,,,,,,,,,,,,,,,,
,,,,,,,,,,stimuli/images/PICTURE_285.png,PRINCE,5c1a59395b2ab700015af793,01/01/1990,2020-08-13_12h53.34.302,proactive2,2020.1.2,MacIntel,60,5f341be081b9052c55068110,5f352791513d7347e9b3dfb3,2,,,,,,carrot,,,,,,0,48,48,20,1,3,2,,,,,,,,,,,,,,,,,,,,,,,,,,,,,,,,,,,,,,,,,,,,,,,,,,,,,,,,,,,,,,,,,,,,,,,,,,,,,,,,,,,,,,,,,,,,,,,,,,,
