consent_key.keys,consent_key.rt,recalled,recalled_rt,recall_acc,example_recall.thisRepN,example_recall.thisTrialN,example_recall.thisN,example_recall.thisIndex,example_recall.ran,file,word,participant,please enter your date of birth (dd/mm/yyyy),date,expName,psychopyVersion,OS,frameRate,STUDY_ID,SESSION_ID,list,prac_learn_study_loop.thisRepN,prac_learn_study_loop.thisTrialN,prac_learn_study_loop.thisN,prac_learn_study_loop.thisIndex,prac_learn_study_loop.ran,image,prac_learn_test_loop.thisRepN,prac_learn_test_loop.thisTrialN,prac_learn_test_loop.thisN,prac_learn_test_loop.thisIndex,prac_learn_test_loop.ran,learn_study_loop.thisRepN,learn_study_loop.thisTrialN,learn_study_loop.thisN,learn_study_loop.thisIndex,learn_study_loop.ran,list_no,block_no,learn_test_loop.thisRepN,learn_test_loop.thisTrialN,learn_test_loop.thisN,learn_test_loop.thisIndex,learn_test_loop.ran,learn_blocks.thisRepN,learn_blocks.thisTrialN,learn_blocks.thisN,learn_blocks.thisIndex,learn_blocks.ran,block_csv,key_resp_13.keys,key_resp_13.rt,learn_blocks_loop.thisRepN,learn_blocks_loop.thisTrialN,learn_blocks_loop.thisN,learn_blocks_loop.thisIndex,learn_blocks_loop.ran,final_learn_test.thisRepN,final_learn_test.thisTrialN,final_learn_test.thisN,final_learn_test.thisIndex,final_learn_test.ran,s_im1,s_im2,s_im3,s_im4,s_im5,s_im6,s_im7,s_im8,s_im1pos,s_im2pos,s_im3pos,s_im4pos,s_im5pos,s_im6pos,s_im7pos,s_im8pos,s_tarright,search_resp.keys,search_resp.rt,search_loop.thisRepN,search_loop.thisTrialN,search_loop.thisN,search_loop.thisIndex,search_loop.ran,prac_wm_test_loop.thisRepN,prac_wm_test_loop.thisTrialN,prac_wm_test_loop.thisN,prac_wm_test_loop.thisIndex,prac_wm_test_loop.ran,wm_recalled1,wm_recall_rt1,wm_probed1,wm_recall_acc1,wm_recalled2,wm_recall_rt2,wm_probed2,wm_recall_acc2,wm_recalled3,wm_recall_rt3,wm_probed3,wm_recall_acc3,wm_recalled4,wm_recall_rt4,wm_probed4,wm_recall_acc4,prac_wm_trial_loop.thisRepN,prac_wm_trial_loop.thisTrialN,prac_wm_trial_loop.thisN,prac_wm_trial_loop.thisIndex,prac_wm_trial_loop.ran,word1,image1,file1,item_type1,word2,image2,file2,item_type2,word4,image4,file4,item_type4,word3,image3,file3,item_type3,wm_test_loop.thisRepN,wm_test_loop.thisTrialN,wm_test_loop.thisN,wm_test_loop.thisIndex,wm_test_loop.ran,wm_trial_loop.thisRepN,wm_trial_loop.thisTrialN,wm_trial_loop.thisN,wm_trial_loop.thisIndex,wm_trial_loop.ran
y,35.92242,TOUGH,4.61122,1,0,0,0,0,1,stimuli/images/PICTURE_747.png,TOUGH,5c645dfb78200f00012a3ba1,12/08/1985,2020-08-13_12h52.24.312,proactive2,2020.1.2,MacIntel,60,5f341be081b9052c55068110,5f352959a71fff47c36e3386,3,,,,,,,,,,,,,,,,,,,,,,,,,,,,,,,,,,,,,,,,,,,,,,,,,,,,,,,,,,,,,,,,,,,,,,,,,,,,,,,,,,,,,,,,,,,,,,,,,,,,,,,,,,,,,,,,,,,,,
,,,,,,,,,,stimuli/images/PICTURE_697.png,KILLER,5c645dfb78200f00012a3ba1,12/08/1985,2020-08-13_12h52.24.312,proactive2,2020.1.2,MacIntel,60,5f341be081b9052c55068110,5f352959a71fff47c36e3386,3,0,0,0,4,1,peach,,,,,,,,,,,,,,,,,,,,,,,,,,,,,,,,,,,,,,,,,,,,,,,,,,,,,,,,,,,,,,,,,,,,,,,,,,,,,,,,,,,,,,,,,,,,,,,,,,,,,,,,,,,,,,,
,,,,,,,,,,stimuli/images/PICTURE_378.png,LOSS,5c645dfb78200f00012a3ba1,12/08/1985,2020-08-13_12h52.24.312,proactive2,2020.1.2,MacIntel,60,5f341be081b9052c55068110,5f352959a71fff47c36e3386,3,0,1,1,2,1,lobster,,,,,,,,,,,,,,,,,,,,,,,,,,,,,,,,,,,,,,,,,,,,,,,,,,,,,,,,,,,,,,,,,,,,,,,,,,,,,,,,,,,,,,,,,,,,,,,,,,,,,,,,,,,,,,,
,,,,,,,,,,stimuli/images/PICTURE_269.png,GENIUS,5c645dfb78200f00012a3ba1,12/08/1985,2020-08-13_12h52.24.312,proactive2,2020.1.2,MacIntel,60,5f341be081b9052c55068110,5f352959a71fff47c36e3386,3,0,2,2,0,1,chameleon,,,,,,,,,,,,,,,,,,,,,,,,,,,,,,,,,,,,,,,,,,,,,,,,,,,,,,,,,,,,,,,,,,,,,,,,,,,,,,,,,,,,,,,,,,,,,,,,,,,,,,,,,,,,,,,
,,,,,,,,,,stimuli/images/PICTURE_727.png,CELL,5c645dfb78200f00012a3ba1,12/08/1985,2020-08-13_12h52.24.312,proactive2,2020.1.2,MacIntel,60,5f341be081b9052c55068110,5f352959a71fff47c36e3386,3,0,3,3,1,1,hose,,,,,,,,,,,,,,,,,,,,,,,,,,,,,,,,,,,,,,,,,,,,,,,,,,,,,,,,,,,,,,,,,,,,,,,,,,,,,,,,,,,,,,,,,,,,,,,,,,,,,,,,,,,,,,,
,,DEVIL,3.68078,1,,,,,,stimuli/images/PICTURE_658.png,DEVIL,5c645dfb78200f00012a3ba1,12/08/1985,2020-08-13_12h52.24.312,proactive2,2020.1.2,MacIntel,60,5f341be081b9052c55068110,5f352959a71fff47c36e3386,3,,,,,,crow,0,0,0,3,1,,,,,,,,,,,,,,,,,,,,,,,,,,,,,,,,,,,,,,,,,,,,,,,,,,,,,,,,,,,,,,,,,,,,,,,,,,,,,,,,,,,,,,,,,,,,,,,,,,,,,,,,,,
,,KILLER,2.276945,1,,,,,,stimuli/images/PICTURE_697.png,KILLER,5c645dfb78200f00012a3ba1,12/08/1985,2020-08-13_12h52.24.312,proactive2,2020.1.2,MacIntel,60,5f341be081b9052c55068110,5f352959a71fff47c36e3386,3,,,,,,peach,0,1,1,4,1,,,,,,,,,,,,,,,,,,,,,,,,,,,,,,,,,,,,,,,,,,,,,,,,,,,,,,,,,,,,,,,,,,,,,,,,,,,,,,,,,,,,,,,,,,,,,,,,,,,,,,,,,,
,,GENIUS,2.479735,1,,,,,,stimuli/images/PICTURE_269.png,GENIUS,5c645dfb78200f00012a3ba1,12/08/1985,2020-08-13_12h52.24.312,proactive2,2020.1.2,MacIntel,60,5f341be081b9052c55068110,5f352959a71fff47c36e3386,3,,,,,,chameleon,0,2,2,0,1,,,,,,,,,,,,,,,,,,,,,,,,,,,,,,,,,,,,,,,,,,,,,,,,,,,,,,,,,,,,,,,,,,,,,,,,,,,,,,,,,,,,,,,,,,,,,,,,,,,,,,,,,,
,,CELL,1.591335,1,,,,,,stimuli/images/PICTURE_727.png,CELL,5c645dfb78200f00012a3ba1,12/08/1985,2020-08-13_12h52.24.312,proactive2,2020.1.2,MacIntel,60,5f341be081b9052c55068110,5f352959a71fff47c36e3386,3,,,,,,hose,0,3,3,1,1,,,,,,,,,,,,,,,,,,,,,,,,,,,,,,,,,,,,,,,,,,,,,,,,,,,,,,,,,,,,,,,,,,,,,,,,,,,,,,,,,,,,,,,,,,,,,,,,,,,,,,,,,,
,,LOSS,2.831275,1,,,,,,stimuli/images/PICTURE_378.png,LOSS,5c645dfb78200f00012a3ba1,12/08/1985,2020-08-13_12h52.24.312,proactive2,2020.1.2,MacIntel,60,5f341be081b9052c55068110,5f352959a71fff47c36e3386,3,,,,,,lobster,0,4,4,2,1,,,,,,,,,,,,,,,,,,,,,,,,,,,,,,,,,,,,,,,,,,,,,,,,,,,,,,,,,,,,,,,,,,,,,,,,,,,,,,,,,,,,,,,,,,,,,,,,,,,,,,,,,,
,,,,,,,,,,stimuli/images/PICTURE_654.png,VALLEY,5c645dfb78200f00012a3ba1,12/08/1985,2020-08-13_12h52.24.312,proactive2,2020.1.2,MacIntel,60,5f341be081b9052c55068110,5f352959a71fff47c36e3386,3,,,,,,pencil,,,,,,0,0,0,1,1,1,0,,,,,,,,,,,,,,,,,,,,,,,,,,,,,,,,,,,,,,,,,,,,,,,,,,,,,,,,,,,,,,,,,,,,,,,,,,,,,,,,,,,,,,,,,,,,,,,,,,,
,,,,,,,,,,stimuli/images/PICTURE_453.png,PLENTY,5c645dfb78200f00012a3ba1,12/08/1985,2020-08-13_12h52.24.312,proactive2,2020.1.2,MacIntel,60,5f341be081b9052c55068110,5f352959a71fff47c36e3386,3,,,,,,scissors,,,,,,0,1,1,56,1,6,0,,,,,,,,,,,,,,,,,,,,,,,,,,,,,,,,,,,,,,,,,,,,,,,,,,,,,,,,,,,,,,,,,,,,,,,,,,,,,,,,,,,,,,,,,,,,,,,,,,,
,,,,,,,,,,stimuli/images/PICTURE_208.png,MONTH,5c645dfb78200f00012a3ba1,12/08/1985,2020-08-13_12h52.24.312,proactive2,2020.1.2,MacIntel,60,5f341be081b9052c55068110,5f352959a71fff47c36e3386,3,,,,,,microphone,,,,,,0,2,2,53,1,6,0,,,,,,,,,,,,,,,,,,,,,,,,,,,,,,,,,,,,,,,,,,,,,,,,,,,,,,,,,,,,,,,,,,,,,,,,,,,,,,,,,,,,,,,,,,,,,,,,,,,
,,,,,,,,,,stimuli/images/PICTURE_147.png,MOMENT,5c645dfb78200f00012a3ba1,12/08/1985,2020-08-13_12h52.24.312,proactive2,2020.1.2,MacIntel,60,5f341be081b9052c55068110,5f352959a71fff47c36e3386,3,,,,,,hanger,,,,,,0,3,3,51,1,6,0,,,,,,,,,,,,,,,,,,,,,,,,,,,,,,,,,,,,,,,,,,,,,,,,,,,,,,,,,,,,,,,,,,,,,,,,,,,,,,,,,,,,,,,,,,,,,,,,,,,
,,,,,,,,,,stimuli/images/PICTURE_255.png,AREA,5c645dfb78200f00012a3ba1,12/08/1985,2020-08-13_12h52.24.312,proactive2,2020.1.2,MacIntel,60,5f341be081b9052c55068110,5f352959a71fff47c36e3386,3,,,,,,shovel,,,,,,0,4,4,22,1,3,0,,,,,,,,,,,,,,,,,,,,,,,,,,,,,,,,,,,,,,,,,,,,,,,,,,,,,,,,,,,,,,,,,,,,,,,,,,,,,,,,,,,,,,,,,,,,,,,,,,,
,,,,,,,,,,stimuli/images/PICTURE_123.png,ADVICE,5c645dfb78200f00012a3ba1,12/08/1985,2020-08-13_12h52.24.312,proactive2,2020.1.2,MacIntel,60,5f341be081b9052c55068110,5f352959a71fff47c36e3386,3,,,,,,dart,,,,,,0,5,5,50,1,6,0,,,,,,,,,,,,,,,,,,,,,,,,,,,,,,,,,,,,,,,,,,,,,,,,,,,,,,,,,,,,,,,,,,,,,,,,,,,,,,,,,,,,,,,,,,,,,,,,,,,
,,,,,,,,,,stimuli/images/PICTURE_504.png,BODY,5c645dfb78200f00012a3ba1,12/08/1985,2020-08-13_12h52.24.312,proactive2,2020.1.2,MacIntel,60,5f341be081b9052c55068110,5f352959a71fff47c36e3386,3,,,,,,wheel,,,,,,0,6,6,8,1,1,0,,,,,,,,,,,,,,,,,,,,,,,,,,,,,,,,,,,,,,,,,,,,,,,,,,,,,,,,,,,,,,,,,,,,,,,,,,,,,,,,,,,,,,,,,,,,,,,,,,,
,,,,,,,,,,stimuli/images/PICTURE_95.png,STYLE,5c645dfb78200f00012a3ba1,12/08/1985,2020-08-13_12h52.24.312,proactive2,2020.1.2,MacIntel,60,5f341be081b9052c55068110,5f352959a71fff47c36e3386,3,,,,,,suitcase,,,,,,0,7,7,25,1,3,0,,,,,,,,,,,,,,,,,,,,,,,,,,,,,,,,,,,,,,,,,,,,,,,,,,,,,,,,,,,,,,,,,,,,,,,,,,,,,,,,,,,,,,,,,,,,,,,,,,,
,,,,,,,,,,stimuli/images/PICTURE_311.png,BEAUTY,5c645dfb78200f00012a3ba1,12/08/1985,2020-08-13_12h52.24.312,proactive2,2020.1.2,MacIntel,60,5f341be081b9052c55068110,5f352959a71fff47c36e3386,3,,,,,,razor,,,,,,0,8,8,13,1,2,0,,,,,,,,,,,,,,,,,,,,,,,,,,,,,,,,,,,,,,,,,,,,,,,,,,,,,,,,,,,,,,,,,,,,,,,,,,,,,,,,,,,,,,,,,,,,,,,,,,,
,,,,,,,,,,stimuli/images/PICTURE_487.png,FLIGHT,5c645dfb78200f00012a3ba1,12/08/1985,2020-08-13_12h52.24.312,proactive2,2020.1.2,MacIntel,60,5f341be081b9052c55068110,5f352959a71fff47c36e3386,3,,,,,,basket,,,,,,0,9,9,9,1,1,0,,,,,,,,,,,,,,,,,,,,,,,,,,,,,,,,,,,,,,,,,,,,,,,,,,,,,,,,,,,,,,,,,,,,,,,,,,,,,,,,,,,,,,,,,,,,,,,,,,,
,,,,,,,,,,stimuli/images/PICTURE_356.png,DANGER,5c645dfb78200f00012a3ba1,12/08/1985,2020-08-13_12h52.24.312,proactive2,2020.1.2,MacIntel,60,5f341be081b9052c55068110,5f352959a71fff47c36e3386,3,,,,,,pawn,,,,,,0,10,10,55,1,6,0,,,,,,,,,,,,,,,,,,,,,,,,,,,,,,,,,,,,,,,,,,,,,,,,,,,,,,,,,,,,,,,,,,,,,,,,,,,,,,,,,,,,,,,,,,,,,,,,,,,
,,,,,,,,,,stimuli/images/PICTURE_308.png,KIND,5c645dfb78200f00012a3ba1,12/08/1985,2020-08-13_12h52.24.312,proactive2,2020.1.2,MacIntel,60,5f341be081b9052c55068110,5f352959a71fff47c36e3386,3,,,,,,dice,,,,,,0,11,11,54,1,6,0,,,,,,,,,,,,,,,,,,,,,,,,,,,,,,,,,,,,,,,,,,,,,,,,,,,,,,,,,,,,,,,,,,,,,,,,,,,,,,,,,,,,,,,,,,,,,,,,,,,
,,,,,,,,,,stimuli/images/PICTURE_469.png,ARTIST,5c645dfb78200f00012a3ba1,12/08/1985,2020-08-13_12h52.24.312,proactive2,2020.1.2,MacIntel,60,5f341be081b9052c55068110,5f352959a71fff47c36e3386,3,,,,,,stool,,,,,,0,12,12,6,1,1,0,,,,,,,,,,,,,,,,,,,,,,,,,,,,,,,,,,,,,,,,,,,,,,,,,,,,,,,,,,,,,,,,,,,,,,,,,,,,,,,,,,,,,,,,,,,,,,,,,,,
,,,,,,,,,,stimuli/images/PICTURE_380.png,PHOTO,5c645dfb78200f00012a3ba1,12/08/1985,2020-08-13_12h52.24.312,proactive2,2020.1.2,MacIntel,60,5f341be081b9052c55068110,5f352959a71fff47c36e3386,3,,,,,,gorilla,,,,,,0,13,13,52,1,6,0,,,,,,,,,,,,,,,,,,,,,,,,,,,,,,,,,,,,,,,,,,,,,,,,,,,,,,,,,,,,,,,,,,,,,,,,,,,,,,,,,,,,,,,,,,,,,,,,,,,
,,,,,,,,,,stimuli/images/PICTURE_488.png,STYLE,5c645dfb78200f00012a3ba1,12/08/1985,2020-08-13_12h52.24.312,proactive2,2020.1.2,MacIntel,60,5f341be081b9052c55068110,5f352959a71fff47c36e3386,3,,,,,,sun,,,,,,0,14,14,33,1,4,0,,,,,,,,,,,,,,,,,,,,,,,,,,,,,,,,,,,,,,,,,,,,,,,,,,,,,,,,,,,,,,,,,,,,,,,,,,,,,,,,,,,,,,,,,,,,,,,,,,,
,,,,,,,,,,stimuli/images/PICTURE_151.png,GIRL,5c645dfb78200f00012a3ba1,12/08/1985,2020-08-13_12h52.24.312,proactive2,2020.1.2,MacIntel,60,5f341be081b9052c55068110,5f352959a71fff47c36e3386,3,,,,,,tray,,,,,,0,15,15,19,1,2,0,,,,,,,,,,,,,,,,,,,,,,,,,,,,,,,,,,,,,,,,,,,,,,,,,,,,,,,,,,,,,,,,,,,,,,,,,,,,,,,,,,,,,,,,,,,,,,,,,,,
,,,,,,,,,,stimuli/images/PICTURE_208.png,LOTS,5c645dfb78200f00012a3ba1,12/08/1985,2020-08-13_12h52.24.312,proactive2,2020.1.2,MacIntel,60,5f341be081b9052c55068110,5f352959a71fff47c36e3386,3,,,,,,microphone,,,,,,0,16,16,10,1,2,0,,,,,,,,,,,,,,,,,,,,,,,,,,,,,,,,,,,,,,,,,,,,,,,,,,,,,,,,,,,,,,,,,,,,,,,,,,,,,,,,,,,,,,,,,,,,,,,,,,,
,,,,,,,,,,stimuli/images/PICTURE_314.png,SAKE,5c645dfb78200f00012a3ba1,12/08/1985,2020-08-13_12h52.24.312,proactive2,2020.1.2,MacIntel,60,5f341be081b9052c55068110,5f352959a71fff47c36e3386,3,,,,,,perfume,,,,,,0,17,17,7,1,1,0,,,,,,,,,,,,,,,,,,,,,,,,,,,,,,,,,,,,,,,,,,,,,,,,,,,,,,,,,,,,,,,,,,,,,,,,,,,,,,,,,,,,,,,,,,,,,,,,,,,
,,,,,,,,,,stimuli/images/PICTURE_233.png,IDEAS,5c645dfb78200f00012a3ba1,12/08/1985,2020-08-13_12h52.24.312,proactive2,2020.1.2,MacIntel,60,5f341be081b9052c55068110,5f352959a71fff47c36e3386,3,,,,,,salt,,,,,,0,18,18,28,1,3,0,,,,,,,,,,,,,,,,,,,,,,,,,,,,,,,,,,,,,,,,,,,,,,,,,,,,,,,,,,,,,,,,,,,,,,,,,,,,,,,,,,,,,,,,,,,,,,,,,,,
,,,,,,,,,,stimuli/images/PICTURE_677.png,MILE,5c645dfb78200f00012a3ba1,12/08/1985,2020-08-13_12h52.24.312,proactive2,2020.1.2,MacIntel,60,5f341be081b9052c55068110,5f352959a71fff47c36e3386,3,,,,,,map,,,,,,0,19,19,30,1,4,0,,,,,,,,,,,,,,,,,,,,,,,,,,,,,,,,,,,,,,,,,,,,,,,,,,,,,,,,,,,,,,,,,,,,,,,,,,,,,,,,,,,,,,,,,,,,,,,,,,,
,,,,,,,,,,stimuli/images/PICTURE_509.png,PHOTO,5c645dfb78200f00012a3ba1,12/08/1985,2020-08-13_12h52.24.312,proactive2,2020.1.2,MacIntel,60,5f341be081b9052c55068110,5f352959a71fff47c36e3386,3,,,,,,telephone,,,,,,0,20,20,21,1,3,0,,,,,,,,,,,,,,,,,,,,,,,,,,,,,,,,,,,,,,,,,,,,,,,,,,,,,,,,,,,,,,,,,,,,,,,,,,,,,,,,,,,,,,,,,,,,,,,,,,,
,,,,,,,,,,stimuli/images/PICTURE_667.png,BATH,5c645dfb78200f00012a3ba1,12/08/1985,2020-08-13_12h52.24.312,proactive2,2020.1.2,MacIntel,60,5f341be081b9052c55068110,5f352959a71fff47c36e3386,3,,,,,,daisy,,,,,,0,21,21,4,1,1,0,,,,,,,,,,,,,,,,,,,,,,,,,,,,,,,,,,,,,,,,,,,,,,,,,,,,,,,,,,,,,,,,,,,,,,,,,,,,,,,,,,,,,,,,,,,,,,,,,,,
,,,,,,,,,,stimuli/images/PICTURE_85.png,THING,5c645dfb78200f00012a3ba1,12/08/1985,2020-08-13_12h52.24.312,proactive2,2020.1.2,MacIntel,60,5f341be081b9052c55068110,5f352959a71fff47c36e3386,3,,,,,,diamond,,,,,,0,22,22,15,1,2,0,,,,,,,,,,,,,,,,,,,,,,,,,,,,,,,,,,,,,,,,,,,,,,,,,,,,,,,,,,,,,,,,,,,,,,,,,,,,,,,,,,,,,,,,,,,,,,,,,,,
,,,,,,,,,,stimuli/images/PICTURE_469.png,LETTER,5c645dfb78200f00012a3ba1,12/08/1985,2020-08-13_12h52.24.312,proactive2,2020.1.2,MacIntel,60,5f341be081b9052c55068110,5f352959a71fff47c36e3386,3,,,,,,stool,,,,,,0,23,23,42,1,5,0,,,,,,,,,,,,,,,,,,,,,,,,,,,,,,,,,,,,,,,,,,,,,,,,,,,,,,,,,,,,,,,,,,,,,,,,,,,,,,,,,,,,,,,,,,,,,,,,,,,
,,,,,,,,,,stimuli/images/PICTURE_667.png,PLENTY,5c645dfb78200f00012a3ba1,12/08/1985,2020-08-13_12h52.24.312,proactive2,2020.1.2,MacIntel,60,5f341be081b9052c55068110,5f352959a71fff47c36e3386,3,,,,,,daisy,,,,,,0,24,24,41,1,5,0,,,,,,,,,,,,,,,,,,,,,,,,,,,,,,,,,,,,,,,,,,,,,,,,,,,,,,,,,,,,,,,,,,,,,,,,,,,,,,,,,,,,,,,,,,,,,,,,,,,
,,,,,,,,,,stimuli/images/PICTURE_688.png,CASINO,5c645dfb78200f00012a3ba1,12/08/1985,2020-08-13_12h52.24.312,proactive2,2020.1.2,MacIntel,60,5f341be081b9052c55068110,5f352959a71fff47c36e3386,3,,,,,,runner,,,,,,0,25,25,2,1,1,0,,,,,,,,,,,,,,,,,,,,,,,,,,,,,,,,,,,,,,,,,,,,,,,,,,,,,,,,,,,,,,,,,,,,,,,,,,,,,,,,,,,,,,,,,,,,,,,,,,,
,,,,,,,,,,stimuli/images/PICTURE_744.png,SAKE,5c645dfb78200f00012a3ba1,12/08/1985,2020-08-13_12h52.24.312,proactive2,2020.1.2,MacIntel,60,5f341be081b9052c55068110,5f352959a71fff47c36e3386,3,,,,,,ring,,,,,,0,26,26,17,1,2,0,,,,,,,,,,,,,,,,,,,,,,,,,,,,,,,,,,,,,,,,,,,,,,,,,,,,,,,,,,,,,,,,,,,,,,,,,,,,,,,,,,,,,,,,,,,,,,,,,,,
,,,,,,,,,,stimuli/images/PICTURE_744.png,SYSTEM,5c645dfb78200f00012a3ba1,12/08/1985,2020-08-13_12h52.24.312,proactive2,2020.1.2,MacIntel,60,5f341be081b9052c55068110,5f352959a71fff47c36e3386,3,,,,,,ring,,,,,,0,27,27,43,1,5,0,,,,,,,,,,,,,,,,,,,,,,,,,,,,,,,,,,,,,,,,,,,,,,,,,,,,,,,,,,,,,,,,,,,,,,,,,,,,,,,,,,,,,,,,,,,,,,,,,,,
,,,,,,,,,,stimuli/images/PICTURE_160.png,LEADER,5c645dfb78200f00012a3ba1,12/08/1985,2020-08-13_12h52.24.312,proactive2,2020.1.2,MacIntel,60,5f341be081b9052c55068110,5f352959a71fff47c36e3386,3,,,,,,wheelbarrow,,,,,,0,28,28,3,1,1,0,,,,,,,,,,,,,,,,,,,,,,,,,,,,,,,,,,,,,,,,,,,,,,,,,,,,,,,,,,,,,,,,,,,,,,,,,,,,,,,,,,,,,,,,,,,,,,,,,,,
,,,,,,,,,,stimuli/images/PICTURE_692.png,MONTH,5c645dfb78200f00012a3ba1,12/08/1985,2020-08-13_12h52.24.312,proactive2,2020.1.2,MacIntel,60,5f341be081b9052c55068110,5f352959a71fff47c36e3386,3,,,,,,cherry,,,,,,0,29,29,16,1,2,0,,,,,,,,,,,,,,,,,,,,,,,,,,,,,,,,,,,,,,,,,,,,,,,,,,,,,,,,,,,,,,,,,,,,,,,,,,,,,,,,,,,,,,,,,,,,,,,,,,,
,,,,,,,,,,stimuli/images/PICTURE_68.png,MILE,5c645dfb78200f00012a3ba1,12/08/1985,2020-08-13_12h52.24.312,proactive2,2020.1.2,MacIntel,60,5f341be081b9052c55068110,5f352959a71fff47c36e3386,3,,,,,,candle,,,,,,0,30,30,44,1,5,0,,,,,,,,,,,,,,,,,,,,,,,,,,,,,,,,,,,,,,,,,,,,,,,,,,,,,,,,,,,,,,,,,,,,,,,,,,,,,,,,,,,,,,,,,,,,,,,,,,,
,,,,,,,,,,stimuli/images/PICTURE_308.png,ESTATE,5c645dfb78200f00012a3ba1,12/08/1985,2020-08-13_12h52.24.312,proactive2,2020.1.2,MacIntel,60,5f341be081b9052c55068110,5f352959a71fff47c36e3386,3,,,,,,dice,,,,,,0,31,31,46,1,5,0,,,,,,,,,,,,,,,,,,,,,,,,,,,,,,,,,,,,,,,,,,,,,,,,,,,,,,,,,,,,,,,,,,,,,,,,,,,,,,,,,,,,,,,,,,,,,,,,,,,
,,,,,,,,,,stimuli/images/PICTURE_708.png,YARD,5c645dfb78200f00012a3ba1,12/08/1985,2020-08-13_12h52.24.312,proactive2,2020.1.2,MacIntel,60,5f341be081b9052c55068110,5f352959a71fff47c36e3386,3,,,,,,monkey,,,,,,0,32,32,29,1,3,0,,,,,,,,,,,,,,,,,,,,,,,,,,,,,,,,,,,,,,,,,,,,,,,,,,,,,,,,,,,,,,,,,,,,,,,,,,,,,,,,,,,,,,,,,,,,,,,,,,,
,,,,,,,,,,stimuli/images/PICTURE_339.png,PLENTY,5c645dfb78200f00012a3ba1,12/08/1985,2020-08-13_12h52.24.312,proactive2,2020.1.2,MacIntel,60,5f341be081b9052c55068110,5f352959a71fff47c36e3386,3,,,,,,backpack,,,,,,0,33,33,0,1,1,0,,,,,,,,,,,,,,,,,,,,,,,,,,,,,,,,,,,,,,,,,,,,,,,,,,,,,,,,,,,,,,,,,,,,,,,,,,,,,,,,,,,,,,,,,,,,,,,,,,,
,,,,,,,,,,stimuli/images/PICTURE_348.png,SPEECH,5c645dfb78200f00012a3ba1,12/08/1985,2020-08-13_12h52.24.312,proactive2,2020.1.2,MacIntel,60,5f341be081b9052c55068110,5f352959a71fff47c36e3386,3,,,,,,pepper,,,,,,0,34,34,20,1,3,0,,,,,,,,,,,,,,,,,,,,,,,,,,,,,,,,,,,,,,,,,,,,,,,,,,,,,,,,,,,,,,,,,,,,,,,,,,,,,,,,,,,,,,,,,,,,,,,,,,,
,,,,,,,,,,stimuli/images/PICTURE_491.png,WRITER,5c645dfb78200f00012a3ba1,12/08/1985,2020-08-13_12h52.24.312,proactive2,2020.1.2,MacIntel,60,5f341be081b9052c55068110,5f352959a71fff47c36e3386,3,,,,,,rug,,,,,,0,35,35,57,1,6,0,,,,,,,,,,,,,,,,,,,,,,,,,,,,,,,,,,,,,,,,,,,,,,,,,,,,,,,,,,,,,,,,,,,,,,,,,,,,,,,,,,,,,,,,,,,,,,,,,,,
,,,,,,,,,,stimuli/images/PICTURE_467.png,DEMON,5c645dfb78200f00012a3ba1,12/08/1985,2020-08-13_12h52.24.312,proactive2,2020.1.2,MacIntel,60,5f341be081b9052c55068110,5f352959a71fff47c36e3386,3,,,,,,peg,,,,,,0,36,36,23,1,3,0,,,,,,,,,,,,,,,,,,,,,,,,,,,,,,,,,,,,,,,,,,,,,,,,,,,,,,,,,,,,,,,,,,,,,,,,,,,,,,,,,,,,,,,,,,,,,,,,,,,
,,,,,,,,,,stimuli/images/PICTURE_160.png,FEET,5c645dfb78200f00012a3ba1,12/08/1985,2020-08-13_12h52.24.312,proactive2,2020.1.2,MacIntel,60,5f341be081b9052c55068110,5f352959a71fff47c36e3386,3,,,,,,wheelbarrow,,,,,,0,37,37,58,1,6,0,,,,,,,,,,,,,,,,,,,,,,,,,,,,,,,,,,,,,,,,,,,,,,,,,,,,,,,,,,,,,,,,,,,,,,,,,,,,,,,,,,,,,,,,,,,,,,,,,,,
,,,,,,,,,,stimuli/images/PICTURE_470.png,CASINO,5c645dfb78200f00012a3ba1,12/08/1985,2020-08-13_12h52.24.312,proactive2,2020.1.2,MacIntel,60,5f341be081b9052c55068110,5f352959a71fff47c36e3386,3,,,,,,motorbike,,,,,,0,38,38,36,1,4,0,,,,,,,,,,,,,,,,,,,,,,,,,,,,,,,,,,,,,,,,,,,,,,,,,,,,,,,,,,,,,,,,,,,,,,,,,,,,,,,,,,,,,,,,,,,,,,,,,,,
,,,,,,,,,,stimuli/images/PICTURE_314.png,GODS,5c645dfb78200f00012a3ba1,12/08/1985,2020-08-13_12h52.24.312,proactive2,2020.1.2,MacIntel,60,5f341be081b9052c55068110,5f352959a71fff47c36e3386,3,,,,,,perfume,,,,,,0,39,39,11,1,2,0,,,,,,,,,,,,,,,,,,,,,,,,,,,,,,,,,,,,,,,,,,,,,,,,,,,,,,,,,,,,,,,,,,,,,,,,,,,,,,,,,,,,,,,,,,,,,,,,,,,
,,,,,,,,,,stimuli/images/PICTURE_32.png,JUNGLE,5c645dfb78200f00012a3ba1,12/08/1985,2020-08-13_12h52.24.312,proactive2,2020.1.2,MacIntel,60,5f341be081b9052c55068110,5f352959a71fff47c36e3386,3,,,,,,crown,,,,,,0,40,40,45,1,5,0,,,,,,,,,,,,,,,,,,,,,,,,,,,,,,,,,,,,,,,,,,,,,,,,,,,,,,,,,,,,,,,,,,,,,,,,,,,,,,,,,,,,,,,,,,,,,,,,,,,
,,,,,,,,,,stimuli/images/PICTURE_453.png,DUDE,5c645dfb78200f00012a3ba1,12/08/1985,2020-08-13_12h52.24.312,proactive2,2020.1.2,MacIntel,60,5f341be081b9052c55068110,5f352959a71fff47c36e3386,3,,,,,,scissors,,,,,,0,41,41,27,1,3,0,,,,,,,,,,,,,,,,,,,,,,,,,,,,,,,,,,,,,,,,,,,,,,,,,,,,,,,,,,,,,,,,,,,,,,,,,,,,,,,,,,,,,,,,,,,,,,,,,,,
,,,,,,,,,,stimuli/images/PICTURE_285.png,ADVICE,5c645dfb78200f00012a3ba1,12/08/1985,2020-08-13_12h52.24.312,proactive2,2020.1.2,MacIntel,60,5f341be081b9052c55068110,5f352959a71fff47c36e3386,3,,,,,,carrot,,,,,,0,42,42,12,1,2,0,,,,,,,,,,,,,,,,,,,,,,,,,,,,,,,,,,,,,,,,,,,,,,,,,,,,,,,,,,,,,,,,,,,,,,,,,,,,,,,,,,,,,,,,,,,,,,,,,,,
,,,,,,,,,,stimuli/images/PICTURE_203.png,ARTIST,5c645dfb78200f00012a3ba1,12/08/1985,2020-08-13_12h52.24.312,proactive2,2020.1.2,MacIntel,60,5f341be081b9052c55068110,5f352959a71fff47c36e3386,3,,,,,,cap,,,,,,0,43,43,26,1,3,0,,,,,,,,,,,,,,,,,,,,,,,,,,,,,,,,,,,,,,,,,,,,,,,,,,,,,,,,,,,,,,,,,,,,,,,,,,,,,,,,,,,,,,,,,,,,,,,,,,,
,,,,,,,,,,stimuli/images/PICTURE_177.png,CARS,5c645dfb78200f00012a3ba1,12/08/1985,2020-08-13_12h52.24.312,proactive2,2020.1.2,MacIntel,60,5f341be081b9052c55068110,5f352959a71fff47c36e3386,3,,,,,,mushroom,,,,,,0,44,44,35,1,4,0,,,,,,,,,,,,,,,,,,,,,,,,,,,,,,,,,,,,,,,,,,,,,,,,,,,,,,,,,,,,,,,,,,,,,,,,,,,,,,,,,,,,,,,,,,,,,,,,,,,
,,,,,,,,,,stimuli/images/PICTURE_215.png,PLENTY,5c645dfb78200f00012a3ba1,12/08/1985,2020-08-13_12h52.24.312,proactive2,2020.1.2,MacIntel,60,5f341be081b9052c55068110,5f352959a71fff47c36e3386,3,,,,,,boot,,,,,,0,45,45,37,1,4,0,,,,,,,,,,,,,,,,,,,,,,,,,,,,,,,,,,,,,,,,,,,,,,,,,,,,,,,,,,,,,,,,,,,,,,,,,,,,,,,,,,,,,,,,,,,,,,,,,,,
,,,,,,,,,,stimuli/images/PICTURE_327.png,BEAUTY,5c645dfb78200f00012a3ba1,12/08/1985,2020-08-13_12h52.24.312,proactive2,2020.1.2,MacIntel,60,5f341be081b9052c55068110,5f352959a71fff47c36e3386,3,,,,,,helmet,,,,,,0,46,46,48,1,5,0,,,,,,,,,,,,,,,,,,,,,,,,,,,,,,,,,,,,,,,,,,,,,,,,,,,,,,,,,,,,,,,,,,,,,,,,,,,,,,,,,,,,,,,,,,,,,,,,,,,
,,,,,,,,,,stimuli/images/PICTURE_688.png,WOMEN,5c645dfb78200f00012a3ba1,12/08/1985,2020-08-13_12h52.24.312,proactive2,2020.1.2,MacIntel,60,5f341be081b9052c55068110,5f352959a71fff47c36e3386,3,,,,,,runner,,,,,,0,47,47,14,1,2,0,,,,,,,,,,,,,,,,,,,,,,,,,,,,,,,,,,,,,,,,,,,,,,,,,,,,,,,,,,,,,,,,,,,,,,,,,,,,,,,,,,,,,,,,,,,,,,,,,,,
,,,,,,,,,,stimuli/images/PICTURE_248.png,DOZEN,5c645dfb78200f00012a3ba1,12/08/1985,2020-08-13_12h52.24.312,proactive2,2020.1.2,MacIntel,60,5f341be081b9052c55068110,5f352959a71fff47c36e3386,3,,,,,,cart,,,,,,0,48,48,39,1,4,0,,,,,,,,,,,,,,,,,,,,,,,,,,,,,,,,,,,,,,,,,,,,,,,,,,,,,,,,,,,,,,,,,,,,,,,,,,,,,,,,,,,,,,,,,,,,,,,,,,,
,,,,,,,,,,stimuli/images/PICTURE_708.png,PENNY,5c645dfb78200f00012a3ba1,12/08/1985,2020-08-13_12h52.24.312,proactive2,2020.1.2,MacIntel,60,5f341be081b9052c55068110,5f352959a71fff47c36e3386,3,,,,,,monkey,,,,,,0,49,49,31,1,4,0,,,,,,,,,,,,,,,,,,,,,,,,,,,,,,,,,,,,,,,,,,,,,,,,,,,,,,,,,,,,,,,,,,,,,,,,,,,,,,,,,,,,,,,,,,,,,,,,,,,
,,,,,,,,,,stimuli/images/PICTURE_491.png,ROOF,5c645dfb78200f00012a3ba1,12/08/1985,2020-08-13_12h52.24.312,proactive2,2020.1.2,MacIntel,60,5f341be081b9052c55068110,5f352959a71fff47c36e3386,3,,,,,,rug,,,,,,0,50,50,24,1,3,0,,,,,,,,,,,,,,,,,,,,,,,,,,,,,,,,,,,,,,,,,,,,,,,,,,,,,,,,,,,,,,,,,,,,,,,,,,,,,,,,,,,,,,,,,,,,,,,,,,,
,,,,,,,,,,stimuli/images/PICTURE_708.png,CLIENT,5c645dfb78200f00012a3ba1,12/08/1985,2020-08-13_12h52.24.312,proactive2,2020.1.2,MacIntel,60,5f341be081b9052c55068110,5f352959a71fff47c36e3386,3,,,,,,monkey,,,,,,0,51,51,5,1,1,0,,,,,,,,,,,,,,,,,,,,,,,,,,,,,,,,,,,,,,,,,,,,,,,,,,,,,,,,,,,,,,,,,,,,,,,,,,,,,,,,,,,,,,,,,,,,,,,,,,,
,,,,,,,,,,stimuli/images/PICTURE_302.png,FAMILY,5c645dfb78200f00012a3ba1,12/08/1985,2020-08-13_12h52.24.312,proactive2,2020.1.2,MacIntel,60,5f341be081b9052c55068110,5f352959a71fff47c36e3386,3,,,,,,taxi,,,,,,0,52,52,18,1,2,0,,,,,,,,,,,,,,,,,,,,,,,,,,,,,,,,,,,,,,,,,,,,,,,,,,,,,,,,,,,,,,,,,,,,,,,,,,,,,,,,,,,,,,,,,,,,,,,,,,,
,,,,,,,,,,stimuli/images/PICTURE_208.png,THING,5c645dfb78200f00012a3ba1,12/08/1985,2020-08-13_12h52.24.312,proactive2,2020.1.2,MacIntel,60,5f341be081b9052c55068110,5f352959a71fff47c36e3386,3,,,,,,microphone,,,,,,0,53,53,47,1,5,0,,,,,,,,,,,,,,,,,,,,,,,,,,,,,,,,,,,,,,,,,,,,,,,,,,,,,,,,,,,,,,,,,,,,,,,,,,,,,,,,,,,,,,,,,,,,,,,,,,,
,,,,,,,,,,stimuli/images/PICTURE_449.png,THING,5c645dfb78200f00012a3ba1,12/08/1985,2020-08-13_12h52.24.312,proactive2,2020.1.2,MacIntel,60,5f341be081b9052c55068110,5f352959a71fff47c36e3386,3,,,,,,bench,,,,,,0,54,54,59,1,6,0,,,,,,,,,,,,,,,,,,,,,,,,,,,,,,,,,,,,,,,,,,,,,,,,,,,,,,,,,,,,,,,,,,,,,,,,,,,,,,,,,,,,,,,,,,,,,,,,,,,
,,,,,,,,,,stimuli/images/PICTURE_311.png,FRIEND,5c645dfb78200f00012a3ba1,12/08/1985,2020-08-13_12h52.24.312,proactive2,2020.1.2,MacIntel,60,5f341be081b9052c55068110,5f352959a71fff47c36e3386,3,,,,,,razor,,,,,,0,55,55,34,1,4,0,,,,,,,,,,,,,,,,,,,,,,,,,,,,,,,,,,,,,,,,,,,,,,,,,,,,,,,,,,,,,,,,,,,,,,,,,,,,,,,,,,,,,,,,,,,,,,,,,,,
,,,,,,,,,,stimuli/images/PICTURE_675.png,WEAPON,5c645dfb78200f00012a3ba1,12/08/1985,2020-08-13_12h52.24.312,proactive2,2020.1.2,MacIntel,60,5f341be081b9052c55068110,5f352959a71fff47c36e3386,3,,,,,,windmill,,,,,,0,56,56,32,1,4,0,,,,,,,,,,,,,,,,,,,,,,,,,,,,,,,,,,,,,,,,,,,,,,,,,,,,,,,,,,,,,,,,,,,,,,,,,,,,,,,,,,,,,,,,,,,,,,,,,,,
,,,,,,,,,,stimuli/images/PICTURE_233.png,WOMEN,5c645dfb78200f00012a3ba1,12/08/1985,2020-08-13_12h52.24.312,proactive2,2020.1.2,MacIntel,60,5f341be081b9052c55068110,5f352959a71fff47c36e3386,3,,,,,,salt,,,,,,0,57,57,38,1,4,0,,,,,,,,,,,,,,,,,,,,,,,,,,,,,,,,,,,,,,,,,,,,,,,,,,,,,,,,,,,,,,,,,,,,,,,,,,,,,,,,,,,,,,,,,,,,,,,,,,,
,,,,,,,,,,stimuli/images/PICTURE_123.png,ADVICE,5c645dfb78200f00012a3ba1,12/08/1985,2020-08-13_12h52.24.312,proactive2,2020.1.2,MacIntel,60,5f341be081b9052c55068110,5f352959a71fff47c36e3386,3,,,,,,dart,,,,,,0,58,58,40,1,5,0,,,,,,,,,,,,,,,,,,,,,,,,,,,,,,,,,,,,,,,,,,,,,,,,,,,,,,,,,,,,,,,,,,,,,,,,,,,,,,,,,,,,,,,,,,,,,,,,,,,
,,?,0.001005,0,,,,,,stimuli/images/PICTURE_85.png,THING,5c645dfb78200f00012a3ba1,12/08/1985,2020-08-13_12h52.24.312,proactive2,2020.1.2,MacIntel,60,5f341be081b9052c55068110,5f352959a71fff47c36e3386,3,,,,,,diamond,,,,,,,,,,,2,0,0,0,0,15,1,,,,,,,,,,,,,,,,,,,,,,,,,,,,,,,,,,,,,,,,,,,,,,,,,,,,,,,,,,,,,,,,,,,,,,,,,,,,,,,,,,,,,,,,,,,,,,
,,?,0.00103,0,,,,,,stimuli/images/PICTURE_688.png,CASINO,5c645dfb78200f00012a3ba1,12/08/1985,2020-08-13_12h52.24.312,proactive2,2020.1.2,MacIntel,60,5f341be081b9052c55068110,5f352959a71fff47c36e3386,3,,,,,,runner,,,,,,,,,,,1,0,0,1,1,2,1,,,,,,,,,,,,,,,,,,,,,,,,,,,,,,,,,,,,,,,,,,,,,,,,,,,,,,,,,,,,,,,,,,,,,,,,,,,,,,,,,,,,,,,,,,,,,,
,,?,0.000835,0,,,,,,stimuli/images/PICTURE_160.png,FEET,5c645dfb78200f00012a3ba1,12/08/1985,2020-08-13_12h52.24.312,proactive2,2020.1.2,MacIntel,60,5f341be081b9052c55068110,5f352959a71fff47c36e3386,3,,,,,,wheelbarrow,,,,,,,,,,,6,0,0,2,2,58,1,,,,,,,,,,,,,,,,,,,,,,,,,,,,,,,,,,,,,,,,,,,,,,,,,,,,,,,,,,,,,,,,,,,,,,,,,,,,,,,,,,,,,,,,,,,,,,
,,?,0.000865,0,,,,,,stimuli/images/PICTURE_311.png,BEAUTY,5c645dfb78200f00012a3ba1,12/08/1985,2020-08-13_12h52.24.312,proactive2,2020.1.2,MacIntel,60,5f341be081b9052c55068110,5f352959a71fff47c36e3386,3,,,,,,razor,,,,,,,,,,,2,0,0,3,3,13,1,,,,,,,,,,,,,,,,,,,,,,,,,,,,,,,,,,,,,,,,,,,,,,,,,,,,,,,,,,,,,,,,,,,,,,,,,,,,,,,,,,,,,,,,,,,,,,
,,?,0.000735,0,,,,,,stimuli/images/PICTURE_308.png,ESTATE,5c645dfb78200f00012a3ba1,12/08/1985,2020-08-13_12h52.24.312,proactive2,2020.1.2,MacIntel,60,5f341be081b9052c55068110,5f352959a71fff47c36e3386,3,,,,,,dice,,,,,,,,,,,5,0,0,4,4,46,1,,,,,,,,,,,,,,,,,,,,,,,,,,,,,,,,,,,,,,,,,,,,,,,,,,,,,,,,,,,,,,,,,,,,,,,,,,,,,,,,,,,,,,,,,,,,,,
,,?,0.000725,0,,,,,,stimuli/images/PICTURE_302.png,FAMILY,5c645dfb78200f00012a3ba1,12/08/1985,2020-08-13_12h52.24.312,proactive2,2020.1.2,MacIntel,60,5f341be081b9052c55068110,5f352959a71fff47c36e3386,3,,,,,,taxi,,,,,,,,,,,2,0,0,5,5,18,1,,,,,,,,,,,,,,,,,,,,,,,,,,,,,,,,,,,,,,,,,,,,,,,,,,,,,,,,,,,,,,,,,,,,,,,,,,,,,,,,,,,,,,,,,,,,,,
,,?,0.000725,0,,,,,,stimuli/images/PICTURE_491.png,WRITER,5c645dfb78200f00012a3ba1,12/08/1985,2020-08-13_12h52.24.312,proactive2,2020.1.2,MacIntel,60,5f341be081b9052c55068110,5f352959a71fff47c36e3386,3,,,,,,rug,,,,,,,,,,,6,0,0,6,6,57,1,,,,,,,,,,,,,,,,,,,,,,,,,,,,,,,,,,,,,,,,,,,,,,,,,,,,,,,,,,,,,,,,,,,,,,,,,,,,,,,,,,,,,,,,,,,,,,
,,?,0.000705,0,,,,,,stimuli/images/PICTURE_654.png,VALLEY,5c645dfb78200f00012a3ba1,12/08/1985,2020-08-13_12h52.24.312,proactive2,2020.1.2,MacIntel,60,5f341be081b9052c55068110,5f352959a71fff47c36e3386,3,,,,,,pencil,,,,,,,,,,,1,0,0,7,7,1,1,,,,,,,,,,,,,,,,,,,,,,,,,,,,,,,,,,,,,,,,,,,,,,,,,,,,,,,,,,,,,,,,,,,,,,,,,,,,,,,,,,,,,,,,,,,,,,
,,?,0.00303,0,,,,,,stimuli/images/PICTURE_380.png,DEATH,5c645dfb78200f00012a3ba1,12/08/1985,2020-08-13_12h52.24.312,proactive2,2020.1.2,MacIntel,60,5f341be081b9052c55068110,5f352959a71fff47c36e3386,3,,,,,,gorilla,,,,,,,,,,,5,0,0,8,8,49,1,,,,,,,,,,,,,,,,,,,,,,,,,,,,,,,,,,,,,,,,,,,,,,,,,,,,,,,,,,,,,,,,,,,,,,,,,,,,,,,,,,,,,,,,,,,,,,
,,?,0.000865,0,,,,,,stimuli/images/PICTURE_667.png,PLENTY,5c645dfb78200f00012a3ba1,12/08/1985,2020-08-13_12h52.24.312,proactive2,2020.1.2,MacIntel,60,5f341be081b9052c55068110,5f352959a71fff47c36e3386,3,,,,,,daisy,,,,,,,,,,,5,0,0,9,9,41,1,,,,,,,,,,,,,,,,,,,,,,,,,,,,,,,,,,,,,,,,,,,,,,,,,,,,,,,,,,,,,,,,,,,,,,,,,,,,,,,,,,,,,,,,,,,,,,
,,?,0.000835,0,,,,,,stimuli/images/PICTURE_314.png,GODS,5c645dfb78200f00012a3ba1,12/08/1985,2020-08-13_12h52.24.312,proactive2,2020.1.2,MacIntel,60,5f341be081b9052c55068110,5f352959a71fff47c36e3386,3,,,,,,perfume,,,,,,,,,,,2,0,0,10,10,11,1,,,,,,,,,,,,,,,,,,,,,,,,,,,,,,,,,,,,,,,,,,,,,,,,,,,,,,,,,,,,,,,,,,,,,,,,,,,,,,,,,,,,,,,,,,,,,,
,,?,0.001845,0,,,,,,stimuli/images/PICTURE_160.png,LEADER,5c645dfb78200f00012a3ba1,12/08/1985,2020-08-13_12h52.24.312,proactive2,2020.1.2,MacIntel,60,5f341be081b9052c55068110,5f352959a71fff47c36e3386,3,,,,,,wheelbarrow,,,,,,,,,,,1,0,0,11,11,3,1,,,,,,,,,,,,,,,,,,,,,,,,,,,,,,,,,,,,,,,,,,,,,,,,,,,,,,,,,,,,,,,,,,,,,,,,,,,,,,,,,,,,,,,,,,,,,,
,,?,0.00092,0,,,,,,stimuli/images/PICTURE_675.png,WEAPON,5c645dfb78200f00012a3ba1,12/08/1985,2020-08-13_12h52.24.312,proactive2,2020.1.2,MacIntel,60,5f341be081b9052c55068110,5f352959a71fff47c36e3386,3,,,,,,windmill,,,,,,,,,,,4,0,0,12,12,32,1,,,,,,,,,,,,,,,,,,,,,,,,,,,,,,,,,,,,,,,,,,,,,,,,,,,,,,,,,,,,,,,,,,,,,,,,,,,,,,,,,,,,,,,,,,,,,,
,,?,0.000885,0,,,,,,stimuli/images/PICTURE_208.png,LOTS,5c645dfb78200f00012a3ba1,12/08/1985,2020-08-13_12h52.24.312,proactive2,2020.1.2,MacIntel,60,5f341be081b9052c55068110,5f352959a71fff47c36e3386,3,,,,,,microphone,,,,,,,,,,,2,0,0,13,13,10,1,,,,,,,,,,,,,,,,,,,,,,,,,,,,,,,,,,,,,,,,,,,,,,,,,,,,,,,,,,,,,,,,,,,,,,,,,,,,,,,,,,,,,,,,,,,,,,
,,DUDE,3.459305,1,,,,,,stimuli/images/PICTURE_453.png,DUDE,5c645dfb78200f00012a3ba1,12/08/1985,2020-08-13_12h52.24.312,proactive2,2020.1.2,MacIntel,60,5f341be081b9052c55068110,5f352959a71fff47c36e3386,3,,,,,,scissors,,,,,,,,,,,3,0,0,14,14,27,1,,,,,,,,,,,,,,,,,,,,,,,,,,,,,,,,,,,,,,,,,,,,,,,,,,,,,,,,,,,,,,,,,,,,,,,,,,,,,,,,,,,,,,,,,,,,,,
,,?,0.002265,0,,,,,,stimuli/images/PICTURE_470.png,CASINO,5c645dfb78200f00012a3ba1,12/08/1985,2020-08-13_12h52.24.312,proactive2,2020.1.2,MacIntel,60,5f341be081b9052c55068110,5f352959a71fff47c36e3386,3,,,,,,motorbike,,,,,,,,,,,4,0,0,15,15,36,1,,,,,,,,,,,,,,,,,,,,,,,,,,,,,,,,,,,,,,,,,,,,,,,,,,,,,,,,,,,,,,,,,,,,,,,,,,,,,,,,,,,,,,,,,,,,,,
,,?,0.00131,0,,,,,,stimuli/images/PICTURE_311.png,FRIEND,5c645dfb78200f00012a3ba1,12/08/1985,2020-08-13_12h52.24.312,proactive2,2020.1.2,MacIntel,60,5f341be081b9052c55068110,5f352959a71fff47c36e3386,3,,,,,,razor,,,,,,,,,,,4,0,0,16,16,34,1,,,,,,,,,,,,,,,,,,,,,,,,,,,,,,,,,,,,,,,,,,,,,,,,,,,,,,,,,,,,,,,,,,,,,,,,,,,,,,,,,,,,,,,,,,,,,,
,,?,0.0011,0,,,,,,stimuli/images/PICTURE_327.png,BEAUTY,5c645dfb78200f00012a3ba1,12/08/1985,2020-08-13_12h52.24.312,proactive2,2020.1.2,MacIntel,60,5f341be081b9052c55068110,5f352959a71fff47c36e3386,3,,,,,,helmet,,,,,,,,,,,5,0,0,17,17,48,1,,,,,,,,,,,,,,,,,,,,,,,,,,,,,,,,,,,,,,,,,,,,,,,,,,,,,,,,,,,,,,,,,,,,,,,,,,,,,,,,,,,,,,,,,,,,,,
,,ARTIST,2.854785,1,,,,,,stimuli/images/PICTURE_203.png,ARTIST,5c645dfb78200f00012a3ba1,12/08/1985,2020-08-13_12h52.24.312,proactive2,2020.1.2,MacIntel,60,5f341be081b9052c55068110,5f352959a71fff47c36e3386,3,,,,,,cap,,,,,,,,,,,3,0,0,18,18,26,1,,,,,,,,,,,,,,,,,,,,,,,,,,,,,,,,,,,,,,,,,,,,,,,,,,,,,,,,,,,,,,,,,,,,,,,,,,,,,,,,,,,,,,,,,,,,,,
,,?,0.001565,0,,,,,,stimuli/images/PICTURE_208.png,THING,5c645dfb78200f00012a3ba1,12/08/1985,2020-08-13_12h52.24.312,proactive2,2020.1.2,MacIntel,60,5f341be081b9052c55068110,5f352959a71fff47c36e3386,3,,,,,,microphone,,,,,,,,,,,5,0,0,19,19,47,1,,,,,,,,,,,,,,,,,,,,,,,,,,,,,,,,,,,,,,,,,,,,,,,,,,,,,,,,,,,,,,,,,,,,,,,,,,,,,,,,,,,,,,,,,,,,,,
,,?,0.001435,0,,,,,,stimuli/images/PICTURE_308.png,KIND,5c645dfb78200f00012a3ba1,12/08/1985,2020-08-13_12h52.24.312,proactive2,2020.1.2,MacIntel,60,5f341be081b9052c55068110,5f352959a71fff47c36e3386,3,,,,,,dice,,,,,,,,,,,6,0,0,20,20,54,1,,,,,,,,,,,,,,,,,,,,,,,,,,,,,,,,,,,,,,,,,,,,,,,,,,,,,,,,,,,,,,,,,,,,,,,,,,,,,,,,,,,,,,,,,,,,,,
,,?,0.000985,0,,,,,,stimuli/images/PICTURE_208.png,MONTH,5c645dfb78200f00012a3ba1,12/08/1985,2020-08-13_12h52.24.312,proactive2,2020.1.2,MacIntel,60,5f341be081b9052c55068110,5f352959a71fff47c36e3386,3,,,,,,microphone,,,,,,,,,,,6,0,0,21,21,53,1,,,,,,,,,,,,,,,,,,,,,,,,,,,,,,,,,,,,,,,,,,,,,,,,,,,,,,,,,,,,,,,,,,,,,,,,,,,,,,,,,,,,,,,,,,,,,,
,,?,0.000745,0,,,,,,stimuli/images/PICTURE_123.png,ADVICE,5c645dfb78200f00012a3ba1,12/08/1985,2020-08-13_12h52.24.312,proactive2,2020.1.2,MacIntel,60,5f341be081b9052c55068110,5f352959a71fff47c36e3386,3,,,,,,dart,,,,,,,,,,,5,0,0,22,22,40,1,,,,,,,,,,,,,,,,,,,,,,,,,,,,,,,,,,,,,,,,,,,,,,,,,,,,,,,,,,,,,,,,,,,,,,,,,,,,,,,,,,,,,,,,,,,,,,
,,?,0.00068,0,,,,,,stimuli/images/PICTURE_32.png,JUNGLE,5c645dfb78200f00012a3ba1,12/08/1985,2020-08-13_12h52.24.312,proactive2,2020.1.2,MacIntel,60,5f341be081b9052c55068110,5f352959a71fff47c36e3386,3,,,,,,crown,,,,,,,,,,,5,0,0,23,23,45,1,,,,,,,,,,,,,,,,,,,,,,,,,,,,,,,,,,,,,,,,,,,,,,,,,,,,,,,,,,,,,,,,,,,,,,,,,,,,,,,,,,,,,,,,,,,,,,
,,?,0.000915,0,,,,,,stimuli/images/PICTURE_708.png,CLIENT,5c645dfb78200f00012a3ba1,12/08/1985,2020-08-13_12h52.24.312,proactive2,2020.1.2,MacIntel,60,5f341be081b9052c55068110,5f352959a71fff47c36e3386,3,,,,,,monkey,,,,,,,,,,,1,0,0,24,24,5,1,,,,,,,,,,,,,,,,,,,,,,,,,,,,,,,,,,,,,,,,,,,,,,,,,,,,,,,,,,,,,,,,,,,,,,,,,,,,,,,,,,,,,,,,,,,,,,
,,?,0.000865,0,,,,,,stimuli/images/PICTURE_453.png,PLENTY,5c645dfb78200f00012a3ba1,12/08/1985,2020-08-13_12h52.24.312,proactive2,2020.1.2,MacIntel,60,5f341be081b9052c55068110,5f352959a71fff47c36e3386,3,,,,,,scissors,,,,,,,,,,,6,0,0,25,25,56,1,,,,,,,,,,,,,,,,,,,,,,,,,,,,,,,,,,,,,,,,,,,,,,,,,,,,,,,,,,,,,,,,,,,,,,,,,,,,,,,,,,,,,,,,,,,,,,
,,AREA,1.95696,1,,,,,,stimuli/images/PICTURE_255.png,AREA,5c645dfb78200f00012a3ba1,12/08/1985,2020-08-13_12h52.24.312,proactive2,2020.1.2,MacIntel,60,5f341be081b9052c55068110,5f352959a71fff47c36e3386,3,,,,,,shovel,,,,,,,,,,,3,0,0,26,26,22,1,,,,,,,,,,,,,,,,,,,,,,,,,,,,,,,,,,,,,,,,,,,,,,,,,,,,,,,,,,,,,,,,,,,,,,,,,,,,,,,,,,,,,,,,,,,,,,
,,ROOF,2.17767,1,,,,,,stimuli/images/PICTURE_491.png,ROOF,5c645dfb78200f00012a3ba1,12/08/1985,2020-08-13_12h52.24.312,proactive2,2020.1.2,MacIntel,60,5f341be081b9052c55068110,5f352959a71fff47c36e3386,3,,,,,,rug,,,,,,,,,,,3,0,0,27,27,24,1,,,,,,,,,,,,,,,,,,,,,,,,,,,,,,,,,,,,,,,,,,,,,,,,,,,,,,,,,,,,,,,,,,,,,,,,,,,,,,,,,,,,,,,,,,,,,,
,,?,0.00209,0,,,,,,stimuli/images/PICTURE_123.png,ADVICE,5c645dfb78200f00012a3ba1,12/08/1985,2020-08-13_12h52.24.312,proactive2,2020.1.2,MacIntel,60,5f341be081b9052c55068110,5f352959a71fff47c36e3386,3,,,,,,dart,,,,,,,,,,,6,0,0,28,28,50,1,,,,,,,,,,,,,,,,,,,,,,,,,,,,,,,,,,,,,,,,,,,,,,,,,,,,,,,,,,,,,,,,,,,,,,,,,,,,,,,,,,,,,,,,,,,,,,
,,?,0.001145,0,,,,,,stimuli/images/PICTURE_356.png,DANGER,5c645dfb78200f00012a3ba1,12/08/1985,2020-08-13_12h52.24.312,proactive2,2020.1.2,MacIntel,60,5f341be081b9052c55068110,5f352959a71fff47c36e3386,3,,,,,,pawn,,,,,,,,,,,6,0,0,29,29,55,1,,,,,,,,,,,,,,,,,,,,,,,,,,,,,,,,,,,,,,,,,,,,,,,,,,,,,,,,,,,,,,,,,,,,,,,,,,,,,,,,,,,,,,,,,,,,,,
,,EVIL,12.808895,0,,,,,,stimuli/images/PICTURE_708.png,YARD,5c645dfb78200f00012a3ba1,12/08/1985,2020-08-13_12h52.24.312,proactive2,2020.1.2,MacIntel,60,5f341be081b9052c55068110,5f352959a71fff47c36e3386,3,,,,,,monkey,,,,,,,,,,,3,0,0,30,30,29,1,,,,,,,,,,,,,,,,,,,,,,,,,,,,,,,,,,,,,,,,,,,,,,,,,,,,,,,,,,,,,,,,,,,,,,,,,,,,,,,,,,,,,,,,,,,,,,
,,?,0.00145,0,,,,,,stimuli/images/PICTURE_504.png,BODY,5c645dfb78200f00012a3ba1,12/08/1985,2020-08-13_12h52.24.312,proactive2,2020.1.2,MacIntel,60,5f341be081b9052c55068110,5f352959a71fff47c36e3386,3,,,,,,wheel,,,,,,,,,,,1,0,0,31,31,8,1,,,,,,,,,,,,,,,,,,,,,,,,,,,,,,,,,,,,,,,,,,,,,,,,,,,,,,,,,,,,,,,,,,,,,,,,,,,,,,,,,,,,,,,,,,,,,,
,,?,0.001065,0,,,,,,stimuli/images/PICTURE_233.png,WOMEN,5c645dfb78200f00012a3ba1,12/08/1985,2020-08-13_12h52.24.312,proactive2,2020.1.2,MacIntel,60,5f341be081b9052c55068110,5f352959a71fff47c36e3386,3,,,,,,salt,,,,,,,,,,,4,0,0,32,32,38,1,,,,,,,,,,,,,,,,,,,,,,,,,,,,,,,,,,,,,,,,,,,,,,,,,,,,,,,,,,,,,,,,,,,,,,,,,,,,,,,,,,,,,,,,,,,,,,
,,?,0.00067,0,,,,,,stimuli/images/PICTURE_177.png,CARS,5c645dfb78200f00012a3ba1,12/08/1985,2020-08-13_12h52.24.312,proactive2,2020.1.2,MacIntel,60,5f341be081b9052c55068110,5f352959a71fff47c36e3386,3,,,,,,mushroom,,,,,,,,,,,4,0,0,33,33,35,1,,,,,,,,,,,,,,,,,,,,,,,,,,,,,,,,,,,,,,,,,,,,,,,,,,,,,,,,,,,,,,,,,,,,,,,,,,,,,,,,,,,,,,,,,,,,,,
,,?,0.000635,0,,,,,,stimuli/images/PICTURE_147.png,MOMENT,5c645dfb78200f00012a3ba1,12/08/1985,2020-08-13_12h52.24.312,proactive2,2020.1.2,MacIntel,60,5f341be081b9052c55068110,5f352959a71fff47c36e3386,3,,,,,,hanger,,,,,,,,,,,6,0,0,34,34,51,1,,,,,,,,,,,,,,,,,,,,,,,,,,,,,,,,,,,,,,,,,,,,,,,,,,,,,,,,,,,,,,,,,,,,,,,,,,,,,,,,,,,,,,,,,,,,,,
,,STYLE,5.85286,1,,,,,,stimuli/images/PICTURE_95.png,STYLE,5c645dfb78200f00012a3ba1,12/08/1985,2020-08-13_12h52.24.312,proactive2,2020.1.2,MacIntel,60,5f341be081b9052c55068110,5f352959a71fff47c36e3386,3,,,,,,suitcase,,,,,,,,,,,3,0,0,35,35,25,1,,,,,,,,,,,,,,,,,,,,,,,,,,,,,,,,,,,,,,,,,,,,,,,,,,,,,,,,,,,,,,,,,,,,,,,,,,,,,,,,,,,,,,,,,,,,,,
,,?,0.002035,0,,,,,,stimuli/images/PICTURE_151.png,GIRL,5c645dfb78200f00012a3ba1,12/08/1985,2020-08-13_12h52.24.312,proactive2,2020.1.2,MacIntel,60,5f341be081b9052c55068110,5f352959a71fff47c36e3386,3,,,,,,tray,,,,,,,,,,,2,0,0,36,36,19,1,,,,,,,,,,,,,,,,,,,,,,,,,,,,,,,,,,,,,,,,,,,,,,,,,,,,,,,,,,,,,,,,,,,,,,,,,,,,,,,,,,,,,,,,,,,,,,
,,?,0.00109,0,,,,,,stimuli/images/PICTURE_68.png,MILE,5c645dfb78200f00012a3ba1,12/08/1985,2020-08-13_12h52.24.312,proactive2,2020.1.2,MacIntel,60,5f341be081b9052c55068110,5f352959a71fff47c36e3386,3,,,,,,candle,,,,,,,,,,,5,0,0,37,37,44,1,,,,,,,,,,,,,,,,,,,,,,,,,,,,,,,,,,,,,,,,,,,,,,,,,,,,,,,,,,,,,,,,,,,,,,,,,,,,,,,,,,,,,,,,,,,,,,
,,?,0.002325,0,,,,,,stimuli/images/PICTURE_487.png,FLIGHT,5c645dfb78200f00012a3ba1,12/08/1985,2020-08-13_12h52.24.312,proactive2,2020.1.2,MacIntel,60,5f341be081b9052c55068110,5f352959a71fff47c36e3386,3,,,,,,basket,,,,,,,,,,,1,0,0,38,38,9,1,,,,,,,,,,,,,,,,,,,,,,,,,,,,,,,,,,,,,,,,,,,,,,,,,,,,,,,,,,,,,,,,,,,,,,,,,,,,,,,,,,,,,,,,,,,,,,
,,?,0.00132,0,,,,,,stimuli/images/PICTURE_314.png,SAKE,5c645dfb78200f00012a3ba1,12/08/1985,2020-08-13_12h52.24.312,proactive2,2020.1.2,MacIntel,60,5f341be081b9052c55068110,5f352959a71fff47c36e3386,3,,,,,,perfume,,,,,,,,,,,1,0,0,39,39,7,1,,,,,,,,,,,,,,,,,,,,,,,,,,,,,,,,,,,,,,,,,,,,,,,,,,,,,,,,,,,,,,,,,,,,,,,,,,,,,,,,,,,,,,,,,,,,,,
,,KILLER,2.63311,0,,,,,,stimuli/images/PICTURE_348.png,SPEECH,5c645dfb78200f00012a3ba1,12/08/1985,2020-08-13_12h52.24.312,proactive2,2020.1.2,MacIntel,60,5f341be081b9052c55068110,5f352959a71fff47c36e3386,3,,,,,,pepper,,,,,,,,,,,3,0,0,40,40,20,1,,,,,,,,,,,,,,,,,,,,,,,,,,,,,,,,,,,,,,,,,,,,,,,,,,,,,,,,,,,,,,,,,,,,,,,,,,,,,,,,,,,,,,,,,,,,,,
,,?,0.001615,0,,,,,,stimuli/images/PICTURE_339.png,PLENTY,5c645dfb78200f00012a3ba1,12/08/1985,2020-08-13_12h52.24.312,proactive2,2020.1.2,MacIntel,60,5f341be081b9052c55068110,5f352959a71fff47c36e3386,3,,,,,,backpack,,,,,,,,,,,1,0,0,41,41,0,1,,,,,,,,,,,,,,,,,,,,,,,,,,,,,,,,,,,,,,,,,,,,,,,,,,,,,,,,,,,,,,,,,,,,,,,,,,,,,,,,,,,,,,,,,,,,,,
,,?,0.000795,0,,,,,,stimuli/images/PICTURE_677.png,MILE,5c645dfb78200f00012a3ba1,12/08/1985,2020-08-13_12h52.24.312,proactive2,2020.1.2,MacIntel,60,5f341be081b9052c55068110,5f352959a71fff47c36e3386,3,,,,,,map,,,,,,,,,,,4,0,0,42,42,30,1,,,,,,,,,,,,,,,,,,,,,,,,,,,,,,,,,,,,,,,,,,,,,,,,,,,,,,,,,,,,,,,,,,,,,,,,,,,,,,,,,,,,,,,,,,,,,,
,,?,0.000755,0,,,,,,stimuli/images/PICTURE_449.png,THING,5c645dfb78200f00012a3ba1,12/08/1985,2020-08-13_12h52.24.312,proactive2,2020.1.2,MacIntel,60,5f341be081b9052c55068110,5f352959a71fff47c36e3386,3,,,,,,bench,,,,,,,,,,,6,0,0,43,43,59,1,,,,,,,,,,,,,,,,,,,,,,,,,,,,,,,,,,,,,,,,,,,,,,,,,,,,,,,,,,,,,,,,,,,,,,,,,,,,,,,,,,,,,,,,,,,,,,
,,?,0.00076,0,,,,,,stimuli/images/PICTURE_488.png,STYLE,5c645dfb78200f00012a3ba1,12/08/1985,2020-08-13_12h52.24.312,proactive2,2020.1.2,MacIntel,60,5f341be081b9052c55068110,5f352959a71fff47c36e3386,3,,,,,,sun,,,,,,,,,,,4,0,0,44,44,33,1,,,,,,,,,,,,,,,,,,,,,,,,,,,,,,,,,,,,,,,,,,,,,,,,,,,,,,,,,,,,,,,,,,,,,,,,,,,,,,,,,,,,,,,,,,,,,,
,,?,0.00076,0,,,,,,stimuli/images/PICTURE_285.png,ADVICE,5c645dfb78200f00012a3ba1,12/08/1985,2020-08-13_12h52.24.312,proactive2,2020.1.2,MacIntel,60,5f341be081b9052c55068110,5f352959a71fff47c36e3386,3,,,,,,carrot,,,,,,,,,,,2,0,0,45,45,12,1,,,,,,,,,,,,,,,,,,,,,,,,,,,,,,,,,,,,,,,,,,,,,,,,,,,,,,,,,,,,,,,,,,,,,,,,,,,,,,,,,,,,,,,,,,,,,,
,,?,0.000645,0,,,,,,stimuli/images/PICTURE_744.png,SAKE,5c645dfb78200f00012a3ba1,12/08/1985,2020-08-13_12h52.24.312,proactive2,2020.1.2,MacIntel,60,5f341be081b9052c55068110,5f352959a71fff47c36e3386,3,,,,,,ring,,,,,,,,,,,2,0,0,46,46,17,1,,,,,,,,,,,,,,,,,,,,,,,,,,,,,,,,,,,,,,,,,,,,,,,,,,,,,,,,,,,,,,,,,,,,,,,,,,,,,,,,,,,,,,,,,,,,,,
,,DD,8.02477,0,,,,,,stimuli/images/PICTURE_467.png,DEMON,5c645dfb78200f00012a3ba1,12/08/1985,2020-08-13_12h52.24.312,proactive2,2020.1.2,MacIntel,60,5f341be081b9052c55068110,5f352959a71fff47c36e3386,3,,,,,,peg,,,,,,,,,,,3,0,0,47,47,23,1,,,,,,,,,,,,,,,,,,,,,,,,,,,,,,,,,,,,,,,,,,,,,,,,,,,,,,,,,,,,,,,,,,,,,,,,,,,,,,,,,,,,,,,,,,,,,,
,,?,0.00152,0,,,,,,stimuli/images/PICTURE_469.png,ARTIST,5c645dfb78200f00012a3ba1,12/08/1985,2020-08-13_12h52.24.312,proactive2,2020.1.2,MacIntel,60,5f341be081b9052c55068110,5f352959a71fff47c36e3386,3,,,,,,stool,,,,,,,,,,,1,0,0,48,48,6,1,,,,,,,,,,,,,,,,,,,,,,,,,,,,,,,,,,,,,,,,,,,,,,,,,,,,,,,,,,,,,,,,,,,,,,,,,,,,,,,,,,,,,,,,,,,,,,
,,?,0.00072,0,,,,,,stimuli/images/PICTURE_692.png,MONTH,5c645dfb78200f00012a3ba1,12/08/1985,2020-08-13_12h52.24.312,proactive2,2020.1.2,MacIntel,60,5f341be081b9052c55068110,5f352959a71fff47c36e3386,3,,,,,,cherry,,,,,,,,,,,2,0,0,49,49,16,1,,,,,,,,,,,,,,,,,,,,,,,,,,,,,,,,,,,,,,,,,,,,,,,,,,,,,,,,,,,,,,,,,,,,,,,,,,,,,,,,,,,,,,,,,,,,,,
,,DD,1.817385,0,,,,,,stimuli/images/PICTURE_233.png,IDEAS,5c645dfb78200f00012a3ba1,12/08/1985,2020-08-13_12h52.24.312,proactive2,2020.1.2,MacIntel,60,5f341be081b9052c55068110,5f352959a71fff47c36e3386,3,,,,,,salt,,,,,,,,,,,3,0,0,50,50,28,1,,,,,,,,,,,,,,,,,,,,,,,,,,,,,,,,,,,,,,,,,,,,,,,,,,,,,,,,,,,,,,,,,,,,,,,,,,,,,,,,,,,,,,,,,,,,,,
,,?,0.001505,0,,,,,,stimuli/images/PICTURE_469.png,LETTER,5c645dfb78200f00012a3ba1,12/08/1985,2020-08-13_12h52.24.312,proactive2,2020.1.2,MacIntel,60,5f341be081b9052c55068110,5f352959a71fff47c36e3386,3,,,,,,stool,,,,,,,,,,,5,0,0,51,51,42,1,,,,,,,,,,,,,,,,,,,,,,,,,,,,,,,,,,,,,,,,,,,,,,,,,,,,,,,,,,,,,,,,,,,,,,,,,,,,,,,,,,,,,,,,,,,,,,
,,?,0.000815,0,,,,,,stimuli/images/PICTURE_667.png,BATH,5c645dfb78200f00012a3ba1,12/08/1985,2020-08-13_12h52.24.312,proactive2,2020.1.2,MacIntel,60,5f341be081b9052c55068110,5f352959a71fff47c36e3386,3,,,,,,daisy,,,,,,,,,,,1,0,0,52,52,4,1,,,,,,,,,,,,,,,,,,,,,,,,,,,,,,,,,,,,,,,,,,,,,,,,,,,,,,,,,,,,,,,,,,,,,,,,,,,,,,,,,,,,,,,,,,,,,,
,,?,0.00065,0,,,,,,stimuli/images/PICTURE_688.png,WOMEN,5c645dfb78200f00012a3ba1,12/08/1985,2020-08-13_12h52.24.312,proactive2,2020.1.2,MacIntel,60,5f341be081b9052c55068110,5f352959a71fff47c36e3386,3,,,,,,runner,,,,,,,,,,,2,0,0,53,53,14,1,,,,,,,,,,,,,,,,,,,,,,,,,,,,,,,,,,,,,,,,,,,,,,,,,,,,,,,,,,,,,,,,,,,,,,,,,,,,,,,,,,,,,,,,,,,,,,
,,PHOTO,3.609265,1,,,,,,stimuli/images/PICTURE_509.png,PHOTO,5c645dfb78200f00012a3ba1,12/08/1985,2020-08-13_12h52.24.312,proactive2,2020.1.2,MacIntel,60,5f341be081b9052c55068110,5f352959a71fff47c36e3386,3,,,,,,telephone,,,,,,,,,,,3,0,0,54,54,21,1,,,,,,,,,,,,,,,,,,,,,,,,,,,,,,,,,,,,,,,,,,,,,,,,,,,,,,,,,,,,,,,,,,,,,,,,,,,,,,,,,,,,,,,,,,,,,,
,,?,0.00336,0,,,,,,stimuli/images/PICTURE_215.png,PLENTY,5c645dfb78200f00012a3ba1,12/08/1985,2020-08-13_12h52.24.312,proactive2,2020.1.2,MacIntel,60,5f341be081b9052c55068110,5f352959a71fff47c36e3386,3,,,,,,boot,,,,,,,,,,,4,0,0,55,55,37,1,,,,,,,,,,,,,,,,,,,,,,,,,,,,,,,,,,,,,,,,,,,,,,,,,,,,,,,,,,,,,,,,,,,,,,,,,,,,,,,,,,,,,,,,,,,,,,
,,?,0.000645,0,,,,,,stimuli/images/PICTURE_380.png,PHOTO,5c645dfb78200f00012a3ba1,12/08/1985,2020-08-13_12h52.24.312,proactive2,2020.1.2,MacIntel,60,5f341be081b9052c55068110,5f352959a71fff47c36e3386,3,,,,,,gorilla,,,,,,,,,,,6,0,0,56,56,52,1,,,,,,,,,,,,,,,,,,,,,,,,,,,,,,,,,,,,,,,,,,,,,,,,,,,,,,,,,,,,,,,,,,,,,,,,,,,,,,,,,,,,,,,,,,,,,,
,,?,0.00063,0,,,,,,stimuli/images/PICTURE_708.png,PENNY,5c645dfb78200f00012a3ba1,12/08/1985,2020-08-13_12h52.24.312,proactive2,2020.1.2,MacIntel,60,5f341be081b9052c55068110,5f352959a71fff47c36e3386,3,,,,,,monkey,,,,,,,,,,,4,0,0,57,57,31,1,,,,,,,,,,,,,,,,,,,,,,,,,,,,,,,,,,,,,,,,,,,,,,,,,,,,,,,,,,,,,,,,,,,,,,,,,,,,,,,,,,,,,,,,,,,,,,
,,?,0.00072,0,,,,,,stimuli/images/PICTURE_248.png,DOZEN,5c645dfb78200f00012a3ba1,12/08/1985,2020-08-13_12h52.24.312,proactive2,2020.1.2,MacIntel,60,5f341be081b9052c55068110,5f352959a71fff47c36e3386,3,,,,,,cart,,,,,,,,,,,4,0,0,58,58,39,1,,,,,,,,,,,,,,,,,,,,,,,,,,,,,,,,,,,,,,,,,,,,,,,,,,,,,,,,,,,,,,,,,,,,,,,,,,,,,,,,,,,,,,,,,,,,,,
,,?,0.000725,0,,,,,,stimuli/images/PICTURE_744.png,SYSTEM,5c645dfb78200f00012a3ba1,12/08/1985,2020-08-13_12h52.24.312,proactive2,2020.1.2,MacIntel,60,5f341be081b9052c55068110,5f352959a71fff47c36e3386,3,,,,,,ring,,,,,,,,,,,5,0,0,59,59,43,1,,,,,,,,,,,,,,,,,,,,,,,,,,,,,,,,,,,,,,,,,,,,,,,,,,,,,,,,,,,,,,,,,,,,,,,,,,,,,,,,,,,,,,,,,,,,,,
,,,,,,,,,,,,5c645dfb78200f00012a3ba1,12/08/1985,2020-08-13_12h52.24.312,proactive2,2020.1.2,MacIntel,60,5f341be081b9052c55068110,5f352959a71fff47c36e3386,3,,,,,,,,,,,,,,,,,,,,,,,,0,0,0,0,1,stimuli/learn-block1.csv,,,,,,,,,,,,,,,,,,,,,,,,,,,,,,,,,,,,,,,,,,,,,,,,,,,,,,,,,,,,,,,,,,,,,,,,,,,,,,,,,,,,,,,,
,,,,,,,,,,stimuli/images/PICTURE_667.png,GLASS,5c645dfb78200f00012a3ba1,12/08/1985,2020-08-13_12h52.24.312,proactive2,2020.1.2,MacIntel,60,5f341be081b9052c55068110,5f352959a71fff47c36e3386,3,,,,,,daisy,,,,,,0,0,0,27,1,3,2,,,,,,,,,,,,,,,,,,,,,,,,,,,,,,,,,,,,,,,,,,,,,,,,,,,,,,,,,,,,,,,,,,,,,,,,,,,,,,,,,,,,,,,,,,,,,,,,,,,
,,,,,,,,,,stimuli/images/PICTURE_509.png,BATH,5c645dfb78200f00012a3ba1,12/08/1985,2020-08-13_12h52.24.312,proactive2,2020.1.2,MacIntel,60,5f341be081b9052c55068110,5f352959a71fff47c36e3386,3,,,,,,telephone,,,,,,0,1,1,15,1,2,2,,,,,,,,,,,,,,,,,,,,,,,,,,,,,,,,,,,,,,,,,,,,,,,,,,,,,,,,,,,,,,,,,,,,,,,,,,,,,,,,,,,,,,,,,,,,,,,,,,,
,,,,,,,,,,stimuli/images/PICTURE_93.png,GIRL,5c645dfb78200f00012a3ba1,12/08/1985,2020-08-13_12h52.24.312,proactive2,2020.1.2,MacIntel,60,5f341be081b9052c55068110,5f352959a71fff47c36e3386,3,,,,,,skateboard,,,,,,0,2,2,31,1,4,2,,,,,,,,,,,,,,,,,,,,,,,,,,,,,,,,,,,,,,,,,,,,,,,,,,,,,,,,,,,,,,,,,,,,,,,,,,,,,,,,,,,,,,,,,,,,,,,,,,,
,,,,,,,,,,stimuli/images/PICTURE_509.png,MILLER,5c645dfb78200f00012a3ba1,12/08/1985,2020-08-13_12h52.24.312,proactive2,2020.1.2,MacIntel,60,5f341be081b9052c55068110,5f352959a71fff47c36e3386,3,,,,,,telephone,,,,,,0,3,3,49,1,5,2,,,,,,,,,,,,,,,,,,,,,,,,,,,,,,,,,,,,,,,,,,,,,,,,,,,,,,,,,,,,,,,,,,,,,,,,,,,,,,,,,,,,,,,,,,,,,,,,,,,
,,,,,,,,,,stimuli/images/PICTURE_141.png,CLIENT,5c645dfb78200f00012a3ba1,12/08/1985,2020-08-13_12h52.24.312,proactive2,2020.1.2,MacIntel,60,5f341be081b9052c55068110,5f352959a71fff47c36e3386,3,,,,,,sunflower,,,,,,0,4,4,30,1,4,2,,,,,,,,,,,,,,,,,,,,,,,,,,,,,,,,,,,,,,,,,,,,,,,,,,,,,,,,,,,,,,,,,,,,,,,,,,,,,,,,,,,,,,,,,,,,,,,,,,,
,,,,,,,,,,stimuli/images/PICTURE_215.png,BOYS,5c645dfb78200f00012a3ba1,12/08/1985,2020-08-13_12h52.24.312,proactive2,2020.1.2,MacIntel,60,5f341be081b9052c55068110,5f352959a71fff47c36e3386,3,,,,,,boot,,,,,,0,5,5,24,1,3,2,,,,,,,,,,,,,,,,,,,,,,,,,,,,,,,,,,,,,,,,,,,,,,,,,,,,,,,,,,,,,,,,,,,,,,,,,,,,,,,,,,,,,,,,,,,,,,,,,,,
,,,,,,,,,,stimuli/images/PICTURE_2.png,JUNGLE,5c645dfb78200f00012a3ba1,12/08/1985,2020-08-13_12h52.24.312,proactive2,2020.1.2,MacIntel,60,5f341be081b9052c55068110,5f352959a71fff47c36e3386,3,,,,,,tyre,,,,,,0,6,6,1,1,1,2,,,,,,,,,,,,,,,,,,,,,,,,,,,,,,,,,,,,,,,,,,,,,,,,,,,,,,,,,,,,,,,,,,,,,,,,,,,,,,,,,,,,,,,,,,,,,,,,,,,
,,,,,,,,,,stimuli/images/PICTURE_57.png,CASINO,5c645dfb78200f00012a3ba1,12/08/1985,2020-08-13_12h52.24.312,proactive2,2020.1.2,MacIntel,60,5f341be081b9052c55068110,5f352959a71fff47c36e3386,3,,,,,,stamp,,,,,,0,7,7,12,1,2,2,,,,,,,,,,,,,,,,,,,,,,,,,,,,,,,,,,,,,,,,,,,,,,,,,,,,,,,,,,,,,,,,,,,,,,,,,,,,,,,,,,,,,,,,,,,,,,,,,,,
,,,,,,,,,,stimuli/images/PICTURE_509.png,SHOTS,5c645dfb78200f00012a3ba1,12/08/1985,2020-08-13_12h52.24.312,proactive2,2020.1.2,MacIntel,60,5f341be081b9052c55068110,5f352959a71fff47c36e3386,3,,,,,,telephone,,,,,,0,8,8,7,1,1,2,,,,,,,,,,,,,,,,,,,,,,,,,,,,,,,,,,,,,,,,,,,,,,,,,,,,,,,,,,,,,,,,,,,,,,,,,,,,,,,,,,,,,,,,,,,,,,,,,,,
,,,,,,,,,,stimuli/images/PICTURE_95.png,NIGHT,5c645dfb78200f00012a3ba1,12/08/1985,2020-08-13_12h52.24.312,proactive2,2020.1.2,MacIntel,60,5f341be081b9052c55068110,5f352959a71fff47c36e3386,3,,,,,,suitcase,,,,,,0,9,9,37,1,4,2,,,,,,,,,,,,,,,,,,,,,,,,,,,,,,,,,,,,,,,,,,,,,,,,,,,,,,,,,,,,,,,,,,,,,,,,,,,,,,,,,,,,,,,,,,,,,,,,,,,
,,,,,,,,,,stimuli/images/PICTURE_327.png,LEADER,5c645dfb78200f00012a3ba1,12/08/1985,2020-08-13_12h52.24.312,proactive2,2020.1.2,MacIntel,60,5f341be081b9052c55068110,5f352959a71fff47c36e3386,3,,,,,,helmet,,,,,,0,10,10,17,1,2,2,,,,,,,,,,,,,,,,,,,,,,,,,,,,,,,,,,,,,,,,,,,,,,,,,,,,,,,,,,,,,,,,,,,,,,,,,,,,,,,,,,,,,,,,,,,,,,,,,,,
,,,,,,,,,,stimuli/images/PICTURE_564.png,PLENTY,5c645dfb78200f00012a3ba1,12/08/1985,2020-08-13_12h52.24.312,proactive2,2020.1.2,MacIntel,60,5f341be081b9052c55068110,5f352959a71fff47c36e3386,3,,,,,,spoon,,,,,,0,11,11,11,1,2,2,,,,,,,,,,,,,,,,,,,,,,,,,,,,,,,,,,,,,,,,,,,,,,,,,,,,,,,,,,,,,,,,,,,,,,,,,,,,,,,,,,,,,,,,,,,,,,,,,,,
,,,,,,,,,,stimuli/images/PICTURE_509.png,APPLE,5c645dfb78200f00012a3ba1,12/08/1985,2020-08-13_12h52.24.312,proactive2,2020.1.2,MacIntel,60,5f341be081b9052c55068110,5f352959a71fff47c36e3386,3,,,,,,telephone,,,,,,0,12,12,38,1,4,2,,,,,,,,,,,,,,,,,,,,,,,,,,,,,,,,,,,,,,,,,,,,,,,,,,,,,,,,,,,,,,,,,,,,,,,,,,,,,,,,,,,,,,,,,,,,,,,,,,,
,,,,,,,,,,stimuli/images/PICTURE_405.png,HOUSE,5c645dfb78200f00012a3ba1,12/08/1985,2020-08-13_12h52.24.312,proactive2,2020.1.2,MacIntel,60,5f341be081b9052c55068110,5f352959a71fff47c36e3386,3,,,,,,anchor,,,,,,0,13,13,2,1,1,2,,,,,,,,,,,,,,,,,,,,,,,,,,,,,,,,,,,,,,,,,,,,,,,,,,,,,,,,,,,,,,,,,,,,,,,,,,,,,,,,,,,,,,,,,,,,,,,,,,,
,,,,,,,,,,stimuli/images/PICTURE_215.png,LEADER,5c645dfb78200f00012a3ba1,12/08/1985,2020-08-13_12h52.24.312,proactive2,2020.1.2,MacIntel,60,5f341be081b9052c55068110,5f352959a71fff47c36e3386,3,,,,,,boot,,,,,,0,14,14,43,1,5,2,,,,,,,,,,,,,,,,,,,,,,,,,,,,,,,,,,,,,,,,,,,,,,,,,,,,,,,,,,,,,,,,,,,,,,,,,,,,,,,,,,,,,,,,,,,,,,,,,,,
,,,,,,,,,,stimuli/images/PICTURE_32.png,LETTER,5c645dfb78200f00012a3ba1,12/08/1985,2020-08-13_12h52.24.312,proactive2,2020.1.2,MacIntel,60,5f341be081b9052c55068110,5f352959a71fff47c36e3386,3,,,,,,crown,,,,,,0,15,15,56,1,6,2,,,,,,,,,,,,,,,,,,,,,,,,,,,,,,,,,,,,,,,,,,,,,,,,,,,,,,,,,,,,,,,,,,,,,,,,,,,,,,,,,,,,,,,,,,,,,,,,,,,
,,,,,,,,,,stimuli/images/PICTURE_311.png,TOILET,5c645dfb78200f00012a3ba1,12/08/1985,2020-08-13_12h52.24.312,proactive2,2020.1.2,MacIntel,60,5f341be081b9052c55068110,5f352959a71fff47c36e3386,3,,,,,,razor,,,,,,0,16,16,54,1,6,2,,,,,,,,,,,,,,,,,,,,,,,,,,,,,,,,,,,,,,,,,,,,,,,,,,,,,,,,,,,,,,,,,,,,,,,,,,,,,,,,,,,,,,,,,,,,,,,,,,,
,,,,,,,,,,stimuli/images/PICTURE_654.png,COPS,5c645dfb78200f00012a3ba1,12/08/1985,2020-08-13_12h52.24.312,proactive2,2020.1.2,MacIntel,60,5f341be081b9052c55068110,5f352959a71fff47c36e3386,3,,,,,,pencil,,,,,,0,17,17,10,1,2,2,,,,,,,,,,,,,,,,,,,,,,,,,,,,,,,,,,,,,,,,,,,,,,,,,,,,,,,,,,,,,,,,,,,,,,,,,,,,,,,,,,,,,,,,,,,,,,,,,,,
,,,,,,,,,,stimuli/images/PICTURE_654.png,YEAR,5c645dfb78200f00012a3ba1,12/08/1985,2020-08-13_12h52.24.312,proactive2,2020.1.2,MacIntel,60,5f341be081b9052c55068110,5f352959a71fff47c36e3386,3,,,,,,pencil,,,,,,0,18,18,41,1,5,2,,,,,,,,,,,,,,,,,,,,,,,,,,,,,,,,,,,,,,,,,,,,,,,,,,,,,,,,,,,,,,,,,,,,,,,,,,,,,,,,,,,,,,,,,,,,,,,,,,,
,,,,,,,,,,stimuli/images/PICTURE_297.png,BODY,5c645dfb78200f00012a3ba1,12/08/1985,2020-08-13_12h52.24.312,proactive2,2020.1.2,MacIntel,60,5f341be081b9052c55068110,5f352959a71fff47c36e3386,3,,,,,,aeroplane,,,,,,0,19,19,51,1,6,2,,,,,,,,,,,,,,,,,,,,,,,,,,,,,,,,,,,,,,,,,,,,,,,,,,,,,,,,,,,,,,,,,,,,,,,,,,,,,,,,,,,,,,,,,,,,,,,,,,,
,,,,,,,,,,stimuli/images/PICTURE_470.png,BEAUTY,5c645dfb78200f00012a3ba1,12/08/1985,2020-08-13_12h52.24.312,proactive2,2020.1.2,MacIntel,60,5f341be081b9052c55068110,5f352959a71fff47c36e3386,3,,,,,,motorbike,,,,,,0,20,20,26,1,3,2,,,,,,,,,,,,,,,,,,,,,,,,,,,,,,,,,,,,,,,,,,,,,,,,,,,,,,,,,,,,,,,,,,,,,,,,,,,,,,,,,,,,,,,,,,,,,,,,,,,
,,,,,,,,,,stimuli/images/PICTURE_285.png,WRITER,5c645dfb78200f00012a3ba1,12/08/1985,2020-08-13_12h52.24.312,proactive2,2020.1.2,MacIntel,60,5f341be081b9052c55068110,5f352959a71fff47c36e3386,3,,,,,,carrot,,,,,,0,21,21,6,1,1,2,,,,,,,,,,,,,,,,,,,,,,,,,,,,,,,,,,,,,,,,,,,,,,,,,,,,,,,,,,,,,,,,,,,,,,,,,,,,,,,,,,,,,,,,,,,,,,,,,,,
,,,,,,,,,,stimuli/images/PICTURE_18.png,RIVER,5c645dfb78200f00012a3ba1,12/08/1985,2020-08-13_12h52.24.312,proactive2,2020.1.2,MacIntel,60,5f341be081b9052c55068110,5f352959a71fff47c36e3386,3,,,,,,planet,,,,,,0,22,22,22,1,3,2,,,,,,,,,,,,,,,,,,,,,,,,,,,,,,,,,,,,,,,,,,,,,,,,,,,,,,,,,,,,,,,,,,,,,,,,,,,,,,,,,,,,,,,,,,,,,,,,,,,
,,,,,,,,,,stimuli/images/PICTURE_405.png,JUNGLE,5c645dfb78200f00012a3ba1,12/08/1985,2020-08-13_12h52.24.312,proactive2,2020.1.2,MacIntel,60,5f341be081b9052c55068110,5f352959a71fff47c36e3386,3,,,,,,anchor,,,,,,0,23,23,58,1,6,2,,,,,,,,,,,,,,,,,,,,,,,,,,,,,,,,,,,,,,,,,,,,,,,,,,,,,,,,,,,,,,,,,,,,,,,,,,,,,,,,,,,,,,,,,,,,,,,,,,,
,,,,,,,,,,stimuli/images/PICTURE_177.png,HOUSE,5c645dfb78200f00012a3ba1,12/08/1985,2020-08-13_12h52.24.312,proactive2,2020.1.2,MacIntel,60,5f341be081b9052c55068110,5f352959a71fff47c36e3386,3,,,,,,mushroom,,,,,,0,24,24,25,1,3,2,,,,,,,,,,,,,,,,,,,,,,,,,,,,,,,,,,,,,,,,,,,,,,,,,,,,,,,,,,,,,,,,,,,,,,,,,,,,,,,,,,,,,,,,,,,,,,,,,,,
,,,,,,,,,,stimuli/images/PICTURE_491.png,SERIES,5c645dfb78200f00012a3ba1,12/08/1985,2020-08-13_12h52.24.312,proactive2,2020.1.2,MacIntel,60,5f341be081b9052c55068110,5f352959a71fff47c36e3386,3,,,,,,rug,,,,,,0,25,25,39,1,4,2,,,,,,,,,,,,,,,,,,,,,,,,,,,,,,,,,,,,,,,,,,,,,,,,,,,,,,,,,,,,,,,,,,,,,,,,,,,,,,,,,,,,,,,,,,,,,,,,,,,
,,,,,,,,,,stimuli/images/PICTURE_314.png,SPEECH,5c645dfb78200f00012a3ba1,12/08/1985,2020-08-13_12h52.24.312,proactive2,2020.1.2,MacIntel,60,5f341be081b9052c55068110,5f352959a71fff47c36e3386,3,,,,,,perfume,,,,,,0,26,26,35,1,4,2,,,,,,,,,,,,,,,,,,,,,,,,,,,,,,,,,,,,,,,,,,,,,,,,,,,,,,,,,,,,,,,,,,,,,,,,,,,,,,,,,,,,,,,,,,,,,,,,,,,
,,,,,,,,,,stimuli/images/PICTURE_348.png,DUDE,5c645dfb78200f00012a3ba1,12/08/1985,2020-08-13_12h52.24.312,proactive2,2020.1.2,MacIntel,60,5f341be081b9052c55068110,5f352959a71fff47c36e3386,3,,,,,,pepper,,,,,,0,27,27,59,1,6,2,,,,,,,,,,,,,,,,,,,,,,,,,,,,,,,,,,,,,,,,,,,,,,,,,,,,,,,,,,,,,,,,,,,,,,,,,,,,,,,,,,,,,,,,,,,,,,,,,,,
,,,,,,,,,,stimuli/images/PICTURE_2.png,YARD,5c645dfb78200f00012a3ba1,12/08/1985,2020-08-13_12h52.24.312,proactive2,2020.1.2,MacIntel,60,5f341be081b9052c55068110,5f352959a71fff47c36e3386,3,,,,,,tyre,,,,,,0,28,28,55,1,6,2,,,,,,,,,,,,,,,,,,,,,,,,,,,,,,,,,,,,,,,,,,,,,,,,,,,,,,,,,,,,,,,,,,,,,,,,,,,,,,,,,,,,,,,,,,,,,,,,,,,
,,,,,,,,,,stimuli/images/PICTURE_487.png,ROOF,5c645dfb78200f00012a3ba1,12/08/1985,2020-08-13_12h52.24.312,proactive2,2020.1.2,MacIntel,60,5f341be081b9052c55068110,5f352959a71fff47c36e3386,3,,,,,,basket,,,,,,0,29,29,50,1,6,2,,,,,,,,,,,,,,,,,,,,,,,,,,,,,,,,,,,,,,,,,,,,,,,,,,,,,,,,,,,,,,,,,,,,,,,,,,,,,,,,,,,,,,,,,,,,,,,,,,,
,,,,,,,,,,stimuli/images/PICTURE_57.png,CANDY,5c645dfb78200f00012a3ba1,12/08/1985,2020-08-13_12h52.24.312,proactive2,2020.1.2,MacIntel,60,5f341be081b9052c55068110,5f352959a71fff47c36e3386,3,,,,,,stamp,,,,,,0,30,30,52,1,6,2,,,,,,,,,,,,,,,,,,,,,,,,,,,,,,,,,,,,,,,,,,,,,,,,,,,,,,,,,,,,,,,,,,,,,,,,,,,,,,,,,,,,,,,,,,,,,,,,,,,
,,,,,,,,,,stimuli/images/PICTURE_470.png,MOMENT,5c645dfb78200f00012a3ba1,12/08/1985,2020-08-13_12h52.24.312,proactive2,2020.1.2,MacIntel,60,5f341be081b9052c55068110,5f352959a71fff47c36e3386,3,,,,,,motorbike,,,,,,0,31,31,40,1,5,2,,,,,,,,,,,,,,,,,,,,,,,,,,,,,,,,,,,,,,,,,,,,,,,,,,,,,,,,,,,,,,,,,,,,,,,,,,,,,,,,,,,,,,,,,,,,,,,,,,,
,,,,,,,,,,stimuli/images/PICTURE_452.png,COPS,5c645dfb78200f00012a3ba1,12/08/1985,2020-08-13_12h52.24.312,proactive2,2020.1.2,MacIntel,60,5f341be081b9052c55068110,5f352959a71fff47c36e3386,3,,,,,,watch,,,,,,0,32,32,0,1,1,2,,,,,,,,,,,,,,,,,,,,,,,,,,,,,,,,,,,,,,,,,,,,,,,,,,,,,,,,,,,,,,,,,,,,,,,,,,,,,,,,,,,,,,,,,,,,,,,,,,,
,,,,,,,,,,stimuli/images/PICTURE_487.png,POLICY,5c645dfb78200f00012a3ba1,12/08/1985,2020-08-13_12h52.24.312,proactive2,2020.1.2,MacIntel,60,5f341be081b9052c55068110,5f352959a71fff47c36e3386,3,,,,,,basket,,,,,,0,33,33,34,1,4,2,,,,,,,,,,,,,,,,,,,,,,,,,,,,,,,,,,,,,,,,,,,,,,,,,,,,,,,,,,,,,,,,,,,,,,,,,,,,,,,,,,,,,,,,,,,,,,,,,,,
,,,,,,,,,,stimuli/images/PICTURE_311.png,FLESH,5c645dfb78200f00012a3ba1,12/08/1985,2020-08-13_12h52.24.312,proactive2,2020.1.2,MacIntel,60,5f341be081b9052c55068110,5f352959a71fff47c36e3386,3,,,,,,razor,,,,,,0,34,34,3,1,1,2,,,,,,,,,,,,,,,,,,,,,,,,,,,,,,,,,,,,,,,,,,,,,,,,,,,,,,,,,,,,,,,,,,,,,,,,,,,,,,,,,,,,,,,,,,,,,,,,,,,
,,,,,,,,,,stimuli/images/PICTURE_147.png,LEADER,5c645dfb78200f00012a3ba1,12/08/1985,2020-08-13_12h52.24.312,proactive2,2020.1.2,MacIntel,60,5f341be081b9052c55068110,5f352959a71fff47c36e3386,3,,,,,,hanger,,,,,,0,35,35,33,1,4,2,,,,,,,,,,,,,,,,,,,,,,,,,,,,,,,,,,,,,,,,,,,,,,,,,,,,,,,,,,,,,,,,,,,,,,,,,,,,,,,,,,,,,,,,,,,,,,,,,,,
,,,,,,,,,,stimuli/images/PICTURE_348.png,TOILET,5c645dfb78200f00012a3ba1,12/08/1985,2020-08-13_12h52.24.312,proactive2,2020.1.2,MacIntel,60,5f341be081b9052c55068110,5f352959a71fff47c36e3386,3,,,,,,pepper,,,,,,0,36,36,4,1,1,2,,,,,,,,,,,,,,,,,,,,,,,,,,,,,,,,,,,,,,,,,,,,,,,,,,,,,,,,,,,,,,,,,,,,,,,,,,,,,,,,,,,,,,,,,,,,,,,,,,,
,,,,,,,,,,stimuli/images/PICTURE_123.png,SALE,5c645dfb78200f00012a3ba1,12/08/1985,2020-08-13_12h52.24.312,proactive2,2020.1.2,MacIntel,60,5f341be081b9052c55068110,5f352959a71fff47c36e3386,3,,,,,,dart,,,,,,0,37,37,8,1,1,2,,,,,,,,,,,,,,,,,,,,,,,,,,,,,,,,,,,,,,,,,,,,,,,,,,,,,,,,,,,,,,,,,,,,,,,,,,,,,,,,,,,,,,,,,,,,,,,,,,,
,,,,,,,,,,stimuli/images/PICTURE_2.png,AREA,5c645dfb78200f00012a3ba1,12/08/1985,2020-08-13_12h52.24.312,proactive2,2020.1.2,MacIntel,60,5f341be081b9052c55068110,5f352959a71fff47c36e3386,3,,,,,,tyre,,,,,,0,38,38,32,1,4,2,,,,,,,,,,,,,,,,,,,,,,,,,,,,,,,,,,,,,,,,,,,,,,,,,,,,,,,,,,,,,,,,,,,,,,,,,,,,,,,,,,,,,,,,,,,,,,,,,,,
,,,,,,,,,,stimuli/images/PICTURE_655.png,SALE,5c645dfb78200f00012a3ba1,12/08/1985,2020-08-13_12h52.24.312,proactive2,2020.1.2,MacIntel,60,5f341be081b9052c55068110,5f352959a71fff47c36e3386,3,,,,,,megaphone,,,,,,0,39,39,57,1,6,2,,,,,,,,,,,,,,,,,,,,,,,,,,,,,,,,,,,,,,,,,,,,,,,,,,,,,,,,,,,,,,,,,,,,,,,,,,,,,,,,,,,,,,,,,,,,,,,,,,,
,,,,,,,,,,stimuli/images/PICTURE_692.png,DUDE,5c645dfb78200f00012a3ba1,12/08/1985,2020-08-13_12h52.24.312,proactive2,2020.1.2,MacIntel,60,5f341be081b9052c55068110,5f352959a71fff47c36e3386,3,,,,,,cherry,,,,,,0,40,40,47,1,5,2,,,,,,,,,,,,,,,,,,,,,,,,,,,,,,,,,,,,,,,,,,,,,,,,,,,,,,,,,,,,,,,,,,,,,,,,,,,,,,,,,,,,,,,,,,,,,,,,,,,
,,,,,,,,,,stimuli/images/PICTURE_405.png,JUNGLE,5c645dfb78200f00012a3ba1,12/08/1985,2020-08-13_12h52.24.312,proactive2,2020.1.2,MacIntel,60,5f341be081b9052c55068110,5f352959a71fff47c36e3386,3,,,,,,anchor,,,,,,0,41,41,13,1,2,2,,,,,,,,,,,,,,,,,,,,,,,,,,,,,,,,,,,,,,,,,,,,,,,,,,,,,,,,,,,,,,,,,,,,,,,,,,,,,,,,,,,,,,,,,,,,,,,,,,,
,,,,,,,,,,stimuli/images/PICTURE_33.png,COPS,5c645dfb78200f00012a3ba1,12/08/1985,2020-08-13_12h52.24.312,proactive2,2020.1.2,MacIntel,60,5f341be081b9052c55068110,5f352959a71fff47c36e3386,3,,,,,,frame,,,,,,0,42,42,29,1,3,2,,,,,,,,,,,,,,,,,,,,,,,,,,,,,,,,,,,,,,,,,,,,,,,,,,,,,,,,,,,,,,,,,,,,,,,,,,,,,,,,,,,,,,,,,,,,,,,,,,,
,,,,,,,,,,stimuli/images/PICTURE_708.png,VALLEY,5c645dfb78200f00012a3ba1,12/08/1985,2020-08-13_12h52.24.312,proactive2,2020.1.2,MacIntel,60,5f341be081b9052c55068110,5f352959a71fff47c36e3386,3,,,,,,monkey,,,,,,0,43,43,45,1,5,2,,,,,,,,,,,,,,,,,,,,,,,,,,,,,,,,,,,,,,,,,,,,,,,,,,,,,,,,,,,,,,,,,,,,,,,,,,,,,,,,,,,,,,,,,,,,,,,,,,,
,,,,,,,,,,stimuli/images/PICTURE_688.png,CLOCK,5c645dfb78200f00012a3ba1,12/08/1985,2020-08-13_12h52.24.312,proactive2,2020.1.2,MacIntel,60,5f341be081b9052c55068110,5f352959a71fff47c36e3386,3,,,,,,runner,,,,,,0,44,44,42,1,5,2,,,,,,,,,,,,,,,,,,,,,,,,,,,,,,,,,,,,,,,,,,,,,,,,,,,,,,,,,,,,,,,,,,,,,,,,,,,,,,,,,,,,,,,,,,,,,,,,,,,
,,,,,,,,,,stimuli/images/PICTURE_403.png,FAMILY,5c645dfb78200f00012a3ba1,12/08/1985,2020-08-13_12h52.24.312,proactive2,2020.1.2,MacIntel,60,5f341be081b9052c55068110,5f352959a71fff47c36e3386,3,,,,,,cathedral,,,,,,0,45,45,9,1,1,2,,,,,,,,,,,,,,,,,,,,,,,,,,,,,,,,,,,,,,,,,,,,,,,,,,,,,,,,,,,,,,,,,,,,,,,,,,,,,,,,,,,,,,,,,,,,,,,,,,,
,,,,,,,,,,stimuli/images/PICTURE_356.png,CANDY,5c645dfb78200f00012a3ba1,12/08/1985,2020-08-13_12h52.24.312,proactive2,2020.1.2,MacIntel,60,5f341be081b9052c55068110,5f352959a71fff47c36e3386,3,,,,,,pawn,,,,,,0,46,46,46,1,5,2,,,,,,,,,,,,,,,,,,,,,,,,,,,,,,,,,,,,,,,,,,,,,,,,,,,,,,,,,,,,,,,,,,,,,,,,,,,,,,,,,,,,,,,,,,,,,,,,,,,
,,,,,,,,,,stimuli/images/PICTURE_57.png,NATION,5c645dfb78200f00012a3ba1,12/08/1985,2020-08-13_12h52.24.312,proactive2,2020.1.2,MacIntel,60,5f341be081b9052c55068110,5f352959a71fff47c36e3386,3,,,,,,stamp,,,,,,0,47,47,21,1,3,2,,,,,,,,,,,,,,,,,,,,,,,,,,,,,,,,,,,,,,,,,,,,,,,,,,,,,,,,,,,,,,,,,,,,,,,,,,,,,,,,,,,,,,,,,,,,,,,,,,,
,,,,,,,,,,stimuli/images/PICTURE_504.png,HOUSE,5c645dfb78200f00012a3ba1,12/08/1985,2020-08-13_12h52.24.312,proactive2,2020.1.2,MacIntel,60,5f341be081b9052c55068110,5f352959a71fff47c36e3386,3,,,,,,wheel,,,,,,0,48,48,36,1,4,2,,,,,,,,,,,,,,,,,,,,,,,,,,,,,,,,,,,,,,,,,,,,,,,,,,,,,,,,,,,,,,,,,,,,,,,,,,,,,,,,,,,,,,,,,,,,,,,,,,,
,,,,,,,,,,stimuli/images/PICTURE_296.png,CLOCK,5c645dfb78200f00012a3ba1,12/08/1985,2020-08-13_12h52.24.312,proactive2,2020.1.2,MacIntel,60,5f341be081b9052c55068110,5f352959a71fff47c36e3386,3,,,,,,bolt,,,,,,0,49,49,18,1,2,2,,,,,,,,,,,,,,,,,,,,,,,,,,,,,,,,,,,,,,,,,,,,,,,,,,,,,,,,,,,,,,,,,,,,,,,,,,,,,,,,,,,,,,,,,,,,,,,,,,,
,,,,,,,,,,stimuli/images/PICTURE_750.png,POLICY,5c645dfb78200f00012a3ba1,12/08/1985,2020-08-13_12h52.24.312,proactive2,2020.1.2,MacIntel,60,5f341be081b9052c55068110,5f352959a71fff47c36e3386,3,,,,,,kettle,,,,,,0,50,50,44,1,5,2,,,,,,,,,,,,,,,,,,,,,,,,,,,,,,,,,,,,,,,,,,,,,,,,,,,,,,,,,,,,,,,,,,,,,,,,,,,,,,,,,,,,,,,,,,,,,,,,,,,
,,,,,,,,,,stimuli/images/PICTURE_453.png,FAMILY,5c645dfb78200f00012a3ba1,12/08/1985,2020-08-13_12h52.24.312,proactive2,2020.1.2,MacIntel,60,5f341be081b9052c55068110,5f352959a71fff47c36e3386,3,,,,,,scissors,,,,,,0,51,51,48,1,5,2,,,,,,,,,,,,,,,,,,,,,,,,,,,,,,,,,,,,,,,,,,,,,,,,,,,,,,,,,,,,,,,,,,,,,,,,,,,,,,,,,,,,,,,,,,,,,,,,,,,
,,,,,,,,,,stimuli/images/PICTURE_160.png,HOTEL,5c645dfb78200f00012a3ba1,12/08/1985,2020-08-13_12h52.24.312,proactive2,2020.1.2,MacIntel,60,5f341be081b9052c55068110,5f352959a71fff47c36e3386,3,,,,,,wheelbarrow,,,,,,0,52,52,16,1,2,2,,,,,,,,,,,,,,,,,,,,,,,,,,,,,,,,,,,,,,,,,,,,,,,,,,,,,,,,,,,,,,,,,,,,,,,,,,,,,,,,,,,,,,,,,,,,,,,,,,,
,,,,,,,,,,stimuli/images/PICTURE_255.png,PENNY,5c645dfb78200f00012a3ba1,12/08/1985,2020-08-13_12h52.24.312,proactive2,2020.1.2,MacIntel,60,5f341be081b9052c55068110,5f352959a71fff47c36e3386,3,,,,,,shovel,,,,,,0,53,53,19,1,2,2,,,,,,,,,,,,,,,,,,,,,,,,,,,,,,,,,,,,,,,,,,,,,,,,,,,,,,,,,,,,,,,,,,,,,,,,,,,,,,,,,,,,,,,,,,,,,,,,,,,
,,,,,,,,,,stimuli/images/PICTURE_285.png,PRINCE,5c645dfb78200f00012a3ba1,12/08/1985,2020-08-13_12h52.24.312,proactive2,2020.1.2,MacIntel,60,5f341be081b9052c55068110,5f352959a71fff47c36e3386,3,,,,,,carrot,,,,,,0,54,54,20,1,3,2,,,,,,,,,,,,,,,,,,,,,,,,,,,,,,,,,,,,,,,,,,,,,,,,,,,,,,,,,,,,,,,,,,,,,,,,,,,,,,,,,,,,,,,,,,,,,,,,,,,
,,,,,,,,,,stimuli/images/PICTURE_677.png,FAMILY,5c645dfb78200f00012a3ba1,12/08/1985,2020-08-13_12h52.24.312,proactive2,2020.1.2,MacIntel,60,5f341be081b9052c55068110,5f352959a71fff47c36e3386,3,,,,,,map,,,,,,0,55,55,53,1,6,2,,,,,,,,,,,,,,,,,,,,,,,,,,,,,,,,,,,,,,,,,,,,,,,,,,,,,,,,,,,,,,,,,,,,,,,,,,,,,,,,,,,,,,,,,,,,,,,,,,,
,,,,,,,,,,stimuli/images/PICTURE_215.png,FOOD,5c645dfb78200f00012a3ba1,12/08/1985,2020-08-13_12h52.24.312,proactive2,2020.1.2,MacIntel,60,5f341be081b9052c55068110,5f352959a71fff47c36e3386,3,,,,,,boot,,,,,,0,56,56,5,1,1,2,,,,,,,,,,,,,,,,,,,,,,,,,,,,,,,,,,,,,,,,,,,,,,,,,,,,,,,,,,,,,,,,,,,,,,,,,,,,,,,,,,,,,,,,,,,,,,,,,,,
,,,,,,,,,,stimuli/images/PICTURE_68.png,KIND,5c645dfb78200f00012a3ba1,12/08/1985,2020-08-13_12h52.24.312,proactive2,2020.1.2,MacIntel,60,5f341be081b9052c55068110,5f352959a71fff47c36e3386,3,,,,,,candle,,,,,,0,57,57,23,1,3,2,,,,,,,,,,,,,,,,,,,,,,,,,,,,,,,,,,,,,,,,,,,,,,,,,,,,,,,,,,,,,,,,,,,,,,,,,,,,,,,,,,,,,,,,,,,,,,,,,,,
,,,,,,,,,,stimuli/images/PICTURE_677.png,PHOTO,5c645dfb78200f00012a3ba1,12/08/1985,2020-08-13_12h52.24.312,proactive2,2020.1.2,MacIntel,60,5f341be081b9052c55068110,5f352959a71fff47c36e3386,3,,,,,,map,,,,,,0,58,58,14,1,2,2,,,,,,,,,,,,,,,,,,,,,,,,,,,,,,,,,,,,,,,,,,,,,,,,,,,,,,,,,,,,,,,,,,,,,,,,,,,,,,,,,,,,,,,,,,,,,,,,,,,
,,?,0.000835,0,,,,,,stimuli/images/PICTURE_57.png,CASINO,5c645dfb78200f00012a3ba1,12/08/1985,2020-08-13_12h52.24.312,proactive2,2020.1.2,MacIntel,60,5f341be081b9052c55068110,5f352959a71fff47c36e3386,3,,,,,,stamp,,,,,,,,,,,2,2,0,0,0,12,1,,,,,,,,,,,,,,,,,,,,,,,,,,,,,,,,,,,,,,,,,,,,,,,,,,,,,,,,,,,,,,,,,,,,,,,,,,,,,,,,,,,,,,,,,,,,,,
,,?,0.00067,0,,,,,,stimuli/images/PICTURE_123.png,SALE,5c645dfb78200f00012a3ba1,12/08/1985,2020-08-13_12h52.24.312,proactive2,2020.1.2,MacIntel,60,5f341be081b9052c55068110,5f352959a71fff47c36e3386,3,,,,,,dart,,,,,,,,,,,1,2,0,1,1,8,1,,,,,,,,,,,,,,,,,,,,,,,,,,,,,,,,,,,,,,,,,,,,,,,,,,,,,,,,,,,,,,,,,,,,,,,,,,,,,,,,,,,,,,,,,,,,,,
,,?,0.00128,0,,,,,,stimuli/images/PICTURE_453.png,FAMILY,5c645dfb78200f00012a3ba1,12/08/1985,2020-08-13_12h52.24.312,proactive2,2020.1.2,MacIntel,60,5f341be081b9052c55068110,5f352959a71fff47c36e3386,3,,,,,,scissors,,,,,,,,,,,5,2,0,2,2,48,1,,,,,,,,,,,,,,,,,,,,,,,,,,,,,,,,,,,,,,,,,,,,,,,,,,,,,,,,,,,,,,,,,,,,,,,,,,,,,,,,,,,,,,,,,,,,,,
,,?,0.000875,0,,,,,,stimuli/images/PICTURE_93.png,GIRL,5c645dfb78200f00012a3ba1,12/08/1985,2020-08-13_12h52.24.312,proactive2,2020.1.2,MacIntel,60,5f341be081b9052c55068110,5f352959a71fff47c36e3386,3,,,,,,skateboard,,,,,,,,,,,4,2,0,3,3,31,1,,,,,,,,,,,,,,,,,,,,,,,,,,,,,,,,,,,,,,,,,,,,,,,,,,,,,,,,,,,,,,,,,,,,,,,,,,,,,,,,,,,,,,,,,,,,,,
,,GLASS,5.29502,1,,,,,,stimuli/images/PICTURE_667.png,GLASS,5c645dfb78200f00012a3ba1,12/08/1985,2020-08-13_12h52.24.312,proactive2,2020.1.2,MacIntel,60,5f341be081b9052c55068110,5f352959a71fff47c36e3386,3,,,,,,daisy,,,,,,,,,,,3,2,0,4,4,27,1,,,,,,,,,,,,,,,,,,,,,,,,,,,,,,,,,,,,,,,,,,,,,,,,,,,,,,,,,,,,,,,,,,,,,,,,,,,,,,,,,,,,,,,,,,,,,,
,,NATION,2.446475,1,,,,,,stimuli/images/PICTURE_57.png,NATION,5c645dfb78200f00012a3ba1,12/08/1985,2020-08-13_12h52.24.312,proactive2,2020.1.2,MacIntel,60,5f341be081b9052c55068110,5f352959a71fff47c36e3386,3,,,,,,stamp,,,,,,,,,,,3,2,0,5,5,21,1,,,,,,,,,,,,,,,,,,,,,,,,,,,,,,,,,,,,,,,,,,,,,,,,,,,,,,,,,,,,,,,,,,,,,,,,,,,,,,,,,,,,,,,,,,,,,,
,,?,0.00215,0,,,,,,stimuli/images/PICTURE_491.png,SERIES,5c645dfb78200f00012a3ba1,12/08/1985,2020-08-13_12h52.24.312,proactive2,2020.1.2,MacIntel,60,5f341be081b9052c55068110,5f352959a71fff47c36e3386,3,,,,,,rug,,,,,,,,,,,4,2,0,6,6,39,1,,,,,,,,,,,,,,,,,,,,,,,,,,,,,,,,,,,,,,,,,,,,,,,,,,,,,,,,,,,,,,,,,,,,,,,,,,,,,,,,,,,,,,,,,,,,,,
,,?,0.001105,0,,,,,,stimuli/images/PICTURE_2.png,JUNGLE,5c645dfb78200f00012a3ba1,12/08/1985,2020-08-13_12h52.24.312,proactive2,2020.1.2,MacIntel,60,5f341be081b9052c55068110,5f352959a71fff47c36e3386,3,,,,,,tyre,,,,,,,,,,,1,2,0,7,7,1,1,,,,,,,,,,,,,,,,,,,,,,,,,,,,,,,,,,,,,,,,,,,,,,,,,,,,,,,,,,,,,,,,,,,,,,,,,,,,,,,,,,,,,,,,,,,,,,
,,?,0.000635,0,,,,,,stimuli/images/PICTURE_405.png,JUNGLE,5c645dfb78200f00012a3ba1,12/08/1985,2020-08-13_12h52.24.312,proactive2,2020.1.2,MacIntel,60,5f341be081b9052c55068110,5f352959a71fff47c36e3386,3,,,,,,anchor,,,,,,,,,,,2,2,0,8,8,13,1,,,,,,,,,,,,,,,,,,,,,,,,,,,,,,,,,,,,,,,,,,,,,,,,,,,,,,,,,,,,,,,,,,,,,,,,,,,,,,,,,,,,,,,,,,,,,,
,,?,0.00062,0,,,,,,stimuli/images/PICTURE_677.png,FAMILY,5c645dfb78200f00012a3ba1,12/08/1985,2020-08-13_12h52.24.312,proactive2,2020.1.2,MacIntel,60,5f341be081b9052c55068110,5f352959a71fff47c36e3386,3,,,,,,map,,,,,,,,,,,6,2,0,9,9,53,1,,,,,,,,,,,,,,,,,,,,,,,,,,,,,,,,,,,,,,,,,,,,,,,,,,,,,,,,,,,,,,,,,,,,,,,,,,,,,,,,,,,,,,,,,,,,,,
,,?,0.000825,0,,,,,,stimuli/images/PICTURE_147.png,LEADER,5c645dfb78200f00012a3ba1,12/08/1985,2020-08-13_12h52.24.312,proactive2,2020.1.2,MacIntel,60,5f341be081b9052c55068110,5f352959a71fff47c36e3386,3,,,,,,hanger,,,,,,,,,,,4,2,0,10,10,33,1,,,,,,,,,,,,,,,,,,,,,,,,,,,,,,,,,,,,,,,,,,,,,,,,,,,,,,,,,,,,,,,,,,,,,,,,,,,,,,,,,,,,,,,,,,,,,,
,,?,0.000655,0,,,,,,stimuli/images/PICTURE_141.png,CLIENT,5c645dfb78200f00012a3ba1,12/08/1985,2020-08-13_12h52.24.312,proactive2,2020.1.2,MacIntel,60,5f341be081b9052c55068110,5f352959a71fff47c36e3386,3,,,,,,sunflower,,,,,,,,,,,4,2,0,11,11,30,1,,,,,,,,,,,,,,,,,,,,,,,,,,,,,,,,,,,,,,,,,,,,,,,,,,,,,,,,,,,,,,,,,,,,,,,,,,,,,,,,,,,,,,,,,,,,,,
,,?,0.000795,0,,,,,,stimuli/images/PICTURE_2.png,AREA,5c645dfb78200f00012a3ba1,12/08/1985,2020-08-13_12h52.24.312,proactive2,2020.1.2,MacIntel,60,5f341be081b9052c55068110,5f352959a71fff47c36e3386,3,,,,,,tyre,,,,,,,,,,,4,2,0,12,12,32,1,,,,,,,,,,,,,,,,,,,,,,,,,,,,,,,,,,,,,,,,,,,,,,,,,,,,,,,,,,,,,,,,,,,,,,,,,,,,,,,,,,,,,,,,,,,,,,
,,?,0.000745,0,,,,,,stimuli/images/PICTURE_403.png,FAMILY,5c645dfb78200f00012a3ba1,12/08/1985,2020-08-13_12h52.24.312,proactive2,2020.1.2,MacIntel,60,5f341be081b9052c55068110,5f352959a71fff47c36e3386,3,,,,,,cathedral,,,,,,,,,,,1,2,0,13,13,9,1,,,,,,,,,,,,,,,,,,,,,,,,,,,,,,,,,,,,,,,,,,,,,,,,,,,,,,,,,,,,,,,,,,,,,,,,,,,,,,,,,,,,,,,,,,,,,,
,,?,0.00075,0,,,,,,stimuli/images/PICTURE_296.png,CLOCK,5c645dfb78200f00012a3ba1,12/08/1985,2020-08-13_12h52.24.312,proactive2,2020.1.2,MacIntel,60,5f341be081b9052c55068110,5f352959a71fff47c36e3386,3,,,,,,bolt,,,,,,,,,,,2,2,0,14,14,18,1,,,,,,,,,,,,,,,,,,,,,,,,,,,,,,,,,,,,,,,,,,,,,,,,,,,,,,,,,,,,,,,,,,,,,,,,,,,,,,,,,,,,,,,,,,,,,,
,,?,0.00073,0,,,,,,stimuli/images/PICTURE_688.png,CLOCK,5c645dfb78200f00012a3ba1,12/08/1985,2020-08-13_12h52.24.312,proactive2,2020.1.2,MacIntel,60,5f341be081b9052c55068110,5f352959a71fff47c36e3386,3,,,,,,runner,,,,,,,,,,,5,2,0,15,15,42,1,,,,,,,,,,,,,,,,,,,,,,,,,,,,,,,,,,,,,,,,,,,,,,,,,,,,,,,,,,,,,,,,,,,,,,,,,,,,,,,,,,,,,,,,,,,,,,
,,?,0.00064,0,,,,,,stimuli/images/PICTURE_348.png,DUDE,5c645dfb78200f00012a3ba1,12/08/1985,2020-08-13_12h52.24.312,proactive2,2020.1.2,MacIntel,60,5f341be081b9052c55068110,5f352959a71fff47c36e3386,3,,,,,,pepper,,,,,,,,,,,6,2,0,16,16,59,1,,,,,,,,,,,,,,,,,,,,,,,,,,,,,,,,,,,,,,,,,,,,,,,,,,,,,,,,,,,,,,,,,,,,,,,,,,,,,,,,,,,,,,,,,,,,,,
,,SPIRIT,2.622155,1,,,,,,stimuli/images/PICTURE_208.png,SPIRIT,5c645dfb78200f00012a3ba1,12/08/1985,2020-08-13_12h52.24.312,proactive2,2020.1.2,MacIntel,60,5f341be081b9052c55068110,5f352959a71fff47c36e3386,3,,,,,,microphone,,,,,,,,,,,3,2,0,17,17,28,1,,,,,,,,,,,,,,,,,,,,,,,,,,,,,,,,,,,,,,,,,,,,,,,,,,,,,,,,,,,,,,,,,,,,,,,,,,,,,,,,,,,,,,,,,,,,,,
,,?,0.00178,0,,,,,,stimuli/images/PICTURE_311.png,FLESH,5c645dfb78200f00012a3ba1,12/08/1985,2020-08-13_12h52.24.312,proactive2,2020.1.2,MacIntel,60,5f341be081b9052c55068110,5f352959a71fff47c36e3386,3,,,,,,razor,,,,,,,,,,,1,2,0,18,18,3,1,,,,,,,,,,,,,,,,,,,,,,,,,,,,,,,,,,,,,,,,,,,,,,,,,,,,,,,,,,,,,,,,,,,,,,,,,,,,,,,,,,,,,,,,,,,,,,
,,BEAUTY,4.31791,1,,,,,,stimuli/images/PICTURE_470.png,BEAUTY,5c645dfb78200f00012a3ba1,12/08/1985,2020-08-13_12h52.24.312,proactive2,2020.1.2,MacIntel,60,5f341be081b9052c55068110,5f352959a71fff47c36e3386,3,,,,,,motorbike,,,,,,,,,,,3,2,0,19,19,26,1,,,,,,,,,,,,,,,,,,,,,,,,,,,,,,,,,,,,,,,,,,,,,,,,,,,,,,,,,,,,,,,,,,,,,,,,,,,,,,,,,,,,,,,,,,,,,,
,,?,0.0014,0,,,,,,stimuli/images/PICTURE_215.png,FOOD,5c645dfb78200f00012a3ba1,12/08/1985,2020-08-13_12h52.24.312,proactive2,2020.1.2,MacIntel,60,5f341be081b9052c55068110,5f352959a71fff47c36e3386,3,,,,,,boot,,,,,,,,,,,1,2,0,20,20,5,1,,,,,,,,,,,,,,,,,,,,,,,,,,,,,,,,,,,,,,,,,,,,,,,,,,,,,,,,,,,,,,,,,,,,,,,,,,,,,,,,,,,,,,,,,,,,,,
,,RIVER,3.49846,1,,,,,,stimuli/images/PICTURE_18.png,RIVER,5c645dfb78200f00012a3ba1,12/08/1985,2020-08-13_12h52.24.312,proactive2,2020.1.2,MacIntel,60,5f341be081b9052c55068110,5f352959a71fff47c36e3386,3,,,,,,planet,,,,,,,,,,,3,2,0,21,21,22,1,,,,,,,,,,,,,,,,,,,,,,,,,,,,,,,,,,,,,,,,,,,,,,,,,,,,,,,,,,,,,,,,,,,,,,,,,,,,,,,,,,,,,,,,,,,,,,
,,?,0.00208,0,,,,,,stimuli/images/PICTURE_160.png,HOTEL,5c645dfb78200f00012a3ba1,12/08/1985,2020-08-13_12h52.24.312,proactive2,2020.1.2,MacIntel,60,5f341be081b9052c55068110,5f352959a71fff47c36e3386,3,,,,,,wheelbarrow,,,,,,,,,,,2,2,0,22,22,16,1,,,,,,,,,,,,,,,,,,,,,,,,,,,,,,,,,,,,,,,,,,,,,,,,,,,,,,,,,,,,,,,,,,,,,,,,,,,,,,,,,,,,,,,,,,,,,,
,,?,0.001135,0,,,,,,stimuli/images/PICTURE_677.png,PHOTO,5c645dfb78200f00012a3ba1,12/08/1985,2020-08-13_12h52.24.312,proactive2,2020.1.2,MacIntel,60,5f341be081b9052c55068110,5f352959a71fff47c36e3386,3,,,,,,map,,,,,,,,,,,2,2,0,23,23,14,1,,,,,,,,,,,,,,,,,,,,,,,,,,,,,,,,,,,,,,,,,,,,,,,,,,,,,,,,,,,,,,,,,,,,,,,,,,,,,,,,,,,,,,,,,,,,,,
,,?,0.00076,0,,,,,,stimuli/images/PICTURE_356.png,CANDY,5c645dfb78200f00012a3ba1,12/08/1985,2020-08-13_12h52.24.312,proactive2,2020.1.2,MacIntel,60,5f341be081b9052c55068110,5f352959a71fff47c36e3386,3,,,,,,pawn,,,,,,,,,,,5,2,0,24,24,46,1,,,,,,,,,,,,,,,,,,,,,,,,,,,,,,,,,,,,,,,,,,,,,,,,,,,,,,,,,,,,,,,,,,,,,,,,,,,,,,,,,,,,,,,,,,,,,,
,,?,0.000655,0,,,,,,stimuli/images/PICTURE_504.png,HOUSE,5c645dfb78200f00012a3ba1,12/08/1985,2020-08-13_12h52.24.312,proactive2,2020.1.2,MacIntel,60,5f341be081b9052c55068110,5f352959a71fff47c36e3386,3,,,,,,wheel,,,,,,,,,,,4,2,0,25,25,36,1,,,,,,,,,,,,,,,,,,,,,,,,,,,,,,,,,,,,,,,,,,,,,,,,,,,,,,,,,,,,,,,,,,,,,,,,,,,,,,,,,,,,,,,,,,,,,,
,,?,0.000625,0,,,,,,stimuli/images/PICTURE_564.png,PLENTY,5c645dfb78200f00012a3ba1,12/08/1985,2020-08-13_12h52.24.312,proactive2,2020.1.2,MacIntel,60,5f341be081b9052c55068110,5f352959a71fff47c36e3386,3,,,,,,spoon,,,,,,,,,,,2,2,0,26,26,11,1,,,,,,,,,,,,,,,,,,,,,,,,,,,,,,,,,,,,,,,,,,,,,,,,,,,,,,,,,,,,,,,,,,,,,,,,,,,,,,,,,,,,,,,,,,,,,,
,,COPS,1.9981,1,,,,,,stimuli/images/PICTURE_33.png,COPS,5c645dfb78200f00012a3ba1,12/08/1985,2020-08-13_12h52.24.312,proactive2,2020.1.2,MacIntel,60,5f341be081b9052c55068110,5f352959a71fff47c36e3386,3,,,,,,frame,,,,,,,,,,,3,2,0,27,27,29,1,,,,,,,,,,,,,,,,,,,,,,,,,,,,,,,,,,,,,,,,,,,,,,,,,,,,,,,,,,,,,,,,,,,,,,,,,,,,,,,,,,,,,,,,,,,,,,
,,?,0.00134,0,,,,,,stimuli/images/PICTURE_405.png,HOUSE,5c645dfb78200f00012a3ba1,12/08/1985,2020-08-13_12h52.24.312,proactive2,2020.1.2,MacIntel,60,5f341be081b9052c55068110,5f352959a71fff47c36e3386,3,,,,,,anchor,,,,,,,,,,,1,2,0,28,28,2,1,,,,,,,,,,,,,,,,,,,,,,,,,,,,,,,,,,,,,,,,,,,,,,,,,,,,,,,,,,,,,,,,,,,,,,,,,,,,,,,,,,,,,,,,,,,,,,
,,PRINCE,1.840965,1,,,,,,stimuli/images/PICTURE_285.png,PRINCE,5c645dfb78200f00012a3ba1,12/08/1985,2020-08-13_12h52.24.312,proactive2,2020.1.2,MacIntel,60,5f341be081b9052c55068110,5f352959a71fff47c36e3386,3,,,,,,carrot,,,,,,,,,,,3,2,0,29,29,20,1,,,,,,,,,,,,,,,,,,,,,,,,,,,,,,,,,,,,,,,,,,,,,,,,,,,,,,,,,,,,,,,,,,,,,,,,,,,,,,,,,,,,,,,,,,,,,,
,,?,0.001915,0,,,,,,stimuli/images/PICTURE_297.png,BODY,5c645dfb78200f00012a3ba1,12/08/1985,2020-08-13_12h52.24.312,proactive2,2020.1.2,MacIntel,60,5f341be081b9052c55068110,5f352959a71fff47c36e3386,3,,,,,,aeroplane,,,,,,,,,,,6,2,0,30,30,51,1,,,,,,,,,,,,,,,,,,,,,,,,,,,,,,,,,,,,,,,,,,,,,,,,,,,,,,,,,,,,,,,,,,,,,,,,,,,,,,,,,,,,,,,,,,,,,,
,,?,0.00084,0,,,,,,stimuli/images/PICTURE_654.png,COPS,5c645dfb78200f00012a3ba1,12/08/1985,2020-08-13_12h52.24.312,proactive2,2020.1.2,MacIntel,60,5f341be081b9052c55068110,5f352959a71fff47c36e3386,3,,,,,,pencil,,,,,,,,,,,2,2,0,31,31,10,1,,,,,,,,,,,,,,,,,,,,,,,,,,,,,,,,,,,,,,,,,,,,,,,,,,,,,,,,,,,,,,,,,,,,,,,,,,,,,,,,,,,,,,,,,,,,,,
,,HOUSE,1.835805,1,,,,,,stimuli/images/PICTURE_177.png,HOUSE,5c645dfb78200f00012a3ba1,12/08/1985,2020-08-13_12h52.24.312,proactive2,2020.1.2,MacIntel,60,5f341be081b9052c55068110,5f352959a71fff47c36e3386,3,,,,,,mushroom,,,,,,,,,,,3,2,0,32,32,25,1,,,,,,,,,,,,,,,,,,,,,,,,,,,,,,,,,,,,,,,,,,,,,,,,,,,,,,,,,,,,,,,,,,,,,,,,,,,,,,,,,,,,,,,,,,,,,,
,,?,0.002125,0,,,,,,stimuli/images/PICTURE_487.png,POLICY,5c645dfb78200f00012a3ba1,12/08/1985,2020-08-13_12h52.24.312,proactive2,2020.1.2,MacIntel,60,5f341be081b9052c55068110,5f352959a71fff47c36e3386,3,,,,,,basket,,,,,,,,,,,4,2,0,33,33,34,1,,,,,,,,,,,,,,,,,,,,,,,,,,,,,,,,,,,,,,,,,,,,,,,,,,,,,,,,,,,,,,,,,,,,,,,,,,,,,,,,,,,,,,,,,,,,,,
,,?,0.001085,0,,,,,,stimuli/images/PICTURE_692.png,DUDE,5c645dfb78200f00012a3ba1,12/08/1985,2020-08-13_12h52.24.312,proactive2,2020.1.2,MacIntel,60,5f341be081b9052c55068110,5f352959a71fff47c36e3386,3,,,,,,cherry,,,,,,,,,,,5,2,0,34,34,47,1,,,,,,,,,,,,,,,,,,,,,,,,,,,,,,,,,,,,,,,,,,,,,,,,,,,,,,,,,,,,,,,,,,,,,,,,,,,,,,,,,,,,,,,,,,,,,,
,,?,0.00067,0,,,,,,stimuli/images/PICTURE_348.png,TOILET,5c645dfb78200f00012a3ba1,12/08/1985,2020-08-13_12h52.24.312,proactive2,2020.1.2,MacIntel,60,5f341be081b9052c55068110,5f352959a71fff47c36e3386,3,,,,,,pepper,,,,,,,,,,,1,2,0,35,35,4,1,,,,,,,,,,,,,,,,,,,,,,,,,,,,,,,,,,,,,,,,,,,,,,,,,,,,,,,,,,,,,,,,,,,,,,,,,,,,,,,,,,,,,,,,,,,,,,
,,?,0.00074,0,,,,,,stimuli/images/PICTURE_215.png,LEADER,5c645dfb78200f00012a3ba1,12/08/1985,2020-08-13_12h52.24.312,proactive2,2020.1.2,MacIntel,60,5f341be081b9052c55068110,5f352959a71fff47c36e3386,3,,,,,,boot,,,,,,,,,,,5,2,0,36,36,43,1,,,,,,,,,,,,,,,,,,,,,,,,,,,,,,,,,,,,,,,,,,,,,,,,,,,,,,,,,,,,,,,,,,,,,,,,,,,,,,,,,,,,,,,,,,,,,,
,,?,0.000665,0,,,,,,stimuli/images/PICTURE_32.png,LETTER,5c645dfb78200f00012a3ba1,12/08/1985,2020-08-13_12h52.24.312,proactive2,2020.1.2,MacIntel,60,5f341be081b9052c55068110,5f352959a71fff47c36e3386,3,,,,,,crown,,,,,,,,,,,6,2,0,37,37,56,1,,,,,,,,,,,,,,,,,,,,,,,,,,,,,,,,,,,,,,,,,,,,,,,,,,,,,,,,,,,,,,,,,,,,,,,,,,,,,,,,,,,,,,,,,,,,,,
,,?,0.007635,0,,,,,,stimuli/images/PICTURE_655.png,SALE,5c645dfb78200f00012a3ba1,12/08/1985,2020-08-13_12h52.24.312,proactive2,2020.1.2,MacIntel,60,5f341be081b9052c55068110,5f352959a71fff47c36e3386,3,,,,,,megaphone,,,,,,,,,,,6,2,0,38,38,57,1,,,,,,,,,,,,,,,,,,,,,,,,,,,,,,,,,,,,,,,,,,,,,,,,,,,,,,,,,,,,,,,,,,,,,,,,,,,,,,,,,,,,,,,,,,,,,,
,,BOYS,1.70368,1,,,,,,stimuli/images/PICTURE_215.png,BOYS,5c645dfb78200f00012a3ba1,12/08/1985,2020-08-13_12h52.24.312,proactive2,2020.1.2,MacIntel,60,5f341be081b9052c55068110,5f352959a71fff47c36e3386,3,,,,,,boot,,,,,,,,,,,3,2,0,39,39,24,1,,,,,,,,,,,,,,,,,,,,,,,,,,,,,,,,,,,,,,,,,,,,,,,,,,,,,,,,,,,,,,,,,,,,,,,,,,,,,,,,,,,,,,,,,,,,,,
,,?,0.00148,0,,,,,,stimuli/images/PICTURE_2.png,YARD,5c645dfb78200f00012a3ba1,12/08/1985,2020-08-13_12h52.24.312,proactive2,2020.1.2,MacIntel,60,5f341be081b9052c55068110,5f352959a71fff47c36e3386,3,,,,,,tyre,,,,,,,,,,,6,2,0,40,40,55,1,,,,,,,,,,,,,,,,,,,,,,,,,,,,,,,,,,,,,,,,,,,,,,,,,,,,,,,,,,,,,,,,,,,,,,,,,,,,,,,,,,,,,,,,,,,,,,
,,?,0.00096,0,,,,,,stimuli/images/PICTURE_285.png,WRITER,5c645dfb78200f00012a3ba1,12/08/1985,2020-08-13_12h52.24.312,proactive2,2020.1.2,MacIntel,60,5f341be081b9052c55068110,5f352959a71fff47c36e3386,3,,,,,,carrot,,,,,,,,,,,1,2,0,41,41,6,1,,,,,,,,,,,,,,,,,,,,,,,,,,,,,,,,,,,,,,,,,,,,,,,,,,,,,,,,,,,,,,,,,,,,,,,,,,,,,,,,,,,,,,,,,,,,,,
,,?,0.00068,0,,,,,,stimuli/images/PICTURE_95.png,NIGHT,5c645dfb78200f00012a3ba1,12/08/1985,2020-08-13_12h52.24.312,proactive2,2020.1.2,MacIntel,60,5f341be081b9052c55068110,5f352959a71fff47c36e3386,3,,,,,,suitcase,,,,,,,,,,,4,2,0,42,42,37,1,,,,,,,,,,,,,,,,,,,,,,,,,,,,,,,,,,,,,,,,,,,,,,,,,,,,,,,,,,,,,,,,,,,,,,,,,,,,,,,,,,,,,,,,,,,,,,
,,?,0.00085,0,,,,,,stimuli/images/PICTURE_750.png,POLICY,5c645dfb78200f00012a3ba1,12/08/1985,2020-08-13_12h52.24.312,proactive2,2020.1.2,MacIntel,60,5f341be081b9052c55068110,5f352959a71fff47c36e3386,3,,,,,,kettle,,,,,,,,,,,5,2,0,43,43,44,1,,,,,,,,,,,,,,,,,,,,,,,,,,,,,,,,,,,,,,,,,,,,,,,,,,,,,,,,,,,,,,,,,,,,,,,,,,,,,,,,,,,,,,,,,,,,,,
,,?,0.000715,0,,,,,,stimuli/images/PICTURE_255.png,PENNY,5c645dfb78200f00012a3ba1,12/08/1985,2020-08-13_12h52.24.312,proactive2,2020.1.2,MacIntel,60,5f341be081b9052c55068110,5f352959a71fff47c36e3386,3,,,,,,shovel,,,,,,,,,,,2,2,0,44,44,19,1,,,,,,,,,,,,,,,,,,,,,,,,,,,,,,,,,,,,,,,,,,,,,,,,,,,,,,,,,,,,,,,,,,,,,,,,,,,,,,,,,,,,,,,,,,,,,,
,,?,0.000695,0,,,,,,stimuli/images/PICTURE_509.png,MILLER,5c645dfb78200f00012a3ba1,12/08/1985,2020-08-13_12h52.24.312,proactive2,2020.1.2,MacIntel,60,5f341be081b9052c55068110,5f352959a71fff47c36e3386,3,,,,,,telephone,,,,,,,,,,,5,2,0,45,45,49,1,,,,,,,,,,,,,,,,,,,,,,,,,,,,,,,,,,,,,,,,,,,,,,,,,,,,,,,,,,,,,,,,,,,,,,,,,,,,,,,,,,,,,,,,,,,,,,
,,?,0.000705,0,,,,,,stimuli/images/PICTURE_509.png,SHOTS,5c645dfb78200f00012a3ba1,12/08/1985,2020-08-13_12h52.24.312,proactive2,2020.1.2,MacIntel,60,5f341be081b9052c55068110,5f352959a71fff47c36e3386,3,,,,,,telephone,,,,,,,,,,,1,2,0,46,46,7,1,,,,,,,,,,,,,,,,,,,,,,,,,,,,,,,,,,,,,,,,,,,,,,,,,,,,,,,,,,,,,,,,,,,,,,,,,,,,,,,,,,,,,,,,,,,,,,
,,?,0.000835,0,,,,,,stimuli/images/PICTURE_314.png,SPEECH,5c645dfb78200f00012a3ba1,12/08/1985,2020-08-13_12h52.24.312,proactive2,2020.1.2,MacIntel,60,5f341be081b9052c55068110,5f352959a71fff47c36e3386,3,,,,,,perfume,,,,,,,,,,,4,2,0,47,47,35,1,,,,,,,,,,,,,,,,,,,,,,,,,,,,,,,,,,,,,,,,,,,,,,,,,,,,,,,,,,,,,,,,,,,,,,,,,,,,,,,,,,,,,,,,,,,,,,
,,?,0.001395,0,,,,,,stimuli/images/PICTURE_452.png,COPS,5c645dfb78200f00012a3ba1,12/08/1985,2020-08-13_12h52.24.312,proactive2,2020.1.2,MacIntel,60,5f341be081b9052c55068110,5f352959a71fff47c36e3386,3,,,,,,watch,,,,,,,,,,,1,2,0,48,48,0,1,,,,,,,,,,,,,,,,,,,,,,,,,,,,,,,,,,,,,,,,,,,,,,,,,,,,,,,,,,,,,,,,,,,,,,,,,,,,,,,,,,,,,,,,,,,,,,
,,?,0.00113,0,,,,,,stimuli/images/PICTURE_509.png,APPLE,5c645dfb78200f00012a3ba1,12/08/1985,2020-08-13_12h52.24.312,proactive2,2020.1.2,MacIntel,60,5f341be081b9052c55068110,5f352959a71fff47c36e3386,3,,,,,,telephone,,,,,,,,,,,4,2,0,49,49,38,1,,,,,,,,,,,,,,,,,,,,,,,,,,,,,,,,,,,,,,,,,,,,,,,,,,,,,,,,,,,,,,,,,,,,,,,,,,,,,,,,,,,,,,,,,,,,,,
,,?,0.00084,0,,,,,,stimuli/images/PICTURE_405.png,JUNGLE,5c645dfb78200f00012a3ba1,12/08/1985,2020-08-13_12h52.24.312,proactive2,2020.1.2,MacIntel,60,5f341be081b9052c55068110,5f352959a71fff47c36e3386,3,,,,,,anchor,,,,,,,,,,,6,2,0,50,50,58,1,,,,,,,,,,,,,,,,,,,,,,,,,,,,,,,,,,,,,,,,,,,,,,,,,,,,,,,,,,,,,,,,,,,,,,,,,,,,,,,,,,,,,,,,,,,,,,
,,?,0.000945,0,,,,,,stimuli/images/PICTURE_654.png,YEAR,5c645dfb78200f00012a3ba1,12/08/1985,2020-08-13_12h52.24.312,proactive2,2020.1.2,MacIntel,60,5f341be081b9052c55068110,5f352959a71fff47c36e3386,3,,,,,,pencil,,,,,,,,,,,5,2,0,51,51,41,1,,,,,,,,,,,,,,,,,,,,,,,,,,,,,,,,,,,,,,,,,,,,,,,,,,,,,,,,,,,,,,,,,,,,,,,,,,,,,,,,,,,,,,,,,,,,,,
,,?,0.00111,0,,,,,,stimuli/images/PICTURE_311.png,TOILET,5c645dfb78200f00012a3ba1,12/08/1985,2020-08-13_12h52.24.312,proactive2,2020.1.2,MacIntel,60,5f341be081b9052c55068110,5f352959a71fff47c36e3386,3,,,,,,razor,,,,,,,,,,,6,2,0,52,52,54,1,,,,,,,,,,,,,,,,,,,,,,,,,,,,,,,,,,,,,,,,,,,,,,,,,,,,,,,,,,,,,,,,,,,,,,,,,,,,,,,,,,,,,,,,,,,,,,
,,?,0.000735,0,,,,,,stimuli/images/PICTURE_327.png,LEADER,5c645dfb78200f00012a3ba1,12/08/1985,2020-08-13_12h52.24.312,proactive2,2020.1.2,MacIntel,60,5f341be081b9052c55068110,5f352959a71fff47c36e3386,3,,,,,,helmet,,,,,,,,,,,2,2,0,53,53,17,1,,,,,,,,,,,,,,,,,,,,,,,,,,,,,,,,,,,,,,,,,,,,,,,,,,,,,,,,,,,,,,,,,,,,,,,,,,,,,,,,,,,,,,,,,,,,,,
,,?,0.000615,0,,,,,,stimuli/images/PICTURE_470.png,MOMENT,5c645dfb78200f00012a3ba1,12/08/1985,2020-08-13_12h52.24.312,proactive2,2020.1.2,MacIntel,60,5f341be081b9052c55068110,5f352959a71fff47c36e3386,3,,,,,,motorbike,,,,,,,,,,,5,2,0,54,54,40,1,,,,,,,,,,,,,,,,,,,,,,,,,,,,,,,,,,,,,,,,,,,,,,,,,,,,,,,,,,,,,,,,,,,,,,,,,,,,,,,,,,,,,,,,,,,,,,
,,KIND,4.53991,1,,,,,,stimuli/images/PICTURE_68.png,KIND,5c645dfb78200f00012a3ba1,12/08/1985,2020-08-13_12h52.24.312,proactive2,2020.1.2,MacIntel,60,5f341be081b9052c55068110,5f352959a71fff47c36e3386,3,,,,,,candle,,,,,,,,,,,3,2,0,55,55,23,1,,,,,,,,,,,,,,,,,,,,,,,,,,,,,,,,,,,,,,,,,,,,,,,,,,,,,,,,,,,,,,,,,,,,,,,,,,,,,,,,,,,,,,,,,,,,,,
,,?,0.005015,0,,,,,,stimuli/images/PICTURE_509.png,BATH,5c645dfb78200f00012a3ba1,12/08/1985,2020-08-13_12h52.24.312,proactive2,2020.1.2,MacIntel,60,5f341be081b9052c55068110,5f352959a71fff47c36e3386,3,,,,,,telephone,,,,,,,,,,,2,2,0,56,56,15,1,,,,,,,,,,,,,,,,,,,,,,,,,,,,,,,,,,,,,,,,,,,,,,,,,,,,,,,,,,,,,,,,,,,,,,,,,,,,,,,,,,,,,,,,,,,,,,
,,?,0.00071,0,,,,,,stimuli/images/PICTURE_487.png,ROOF,5c645dfb78200f00012a3ba1,12/08/1985,2020-08-13_12h52.24.312,proactive2,2020.1.2,MacIntel,60,5f341be081b9052c55068110,5f352959a71fff47c36e3386,3,,,,,,basket,,,,,,,,,,,6,2,0,57,57,50,1,,,,,,,,,,,,,,,,,,,,,,,,,,,,,,,,,,,,,,,,,,,,,,,,,,,,,,,,,,,,,,,,,,,,,,,,,,,,,,,,,,,,,,,,,,,,,,
,,?,0.000625,0,,,,,,stimuli/images/PICTURE_708.png,VALLEY,5c645dfb78200f00012a3ba1,12/08/1985,2020-08-13_12h52.24.312,proactive2,2020.1.2,MacIntel,60,5f341be081b9052c55068110,5f352959a71fff47c36e3386,3,,,,,,monkey,,,,,,,,,,,5,2,0,58,58,45,1,,,,,,,,,,,,,,,,,,,,,,,,,,,,,,,,,,,,,,,,,,,,,,,,,,,,,,,,,,,,,,,,,,,,,,,,,,,,,,,,,,,,,,,,,,,,,,
,,?,0.000625,0,,,,,,stimuli/images/PICTURE_57.png,CANDY,5c645dfb78200f00012a3ba1,12/08/1985,2020-08-13_12h52.24.312,proactive2,2020.1.2,MacIntel,60,5f341be081b9052c55068110,5f352959a71fff47c36e3386,3,,,,,,stamp,,,,,,,,,,,6,2,0,59,59,52,1,,,,,,,,,,,,,,,,,,,,,,,,,,,,,,,,,,,,,,,,,,,,,,,,,,,,,,,,,,,,,,,,,,,,,,,,,,,,,,,,,,,,,,,,,,,,,,
,,,,,,,,,,,,5c645dfb78200f00012a3ba1,12/08/1985,2020-08-13_12h52.24.312,proactive2,2020.1.2,MacIntel,60,5f341be081b9052c55068110,5f352959a71fff47c36e3386,3,,,,,,,,,,,,,,,,,,,,,,,,0,1,1,2,1,stimuli/learn-block3.csv,,,,,,,,,,,,,,,,,,,,,,,,,,,,,,,,,,,,,,,,,,,,,,,,,,,,,,,,,,,,,,,,,,,,,,,,,,,,,,,,,,,,,,,,
,,,,,,,,,,stimuli/images/PICTURE_383.png,SERIES,5c645dfb78200f00012a3ba1,12/08/1985,2020-08-13_12h52.24.312,proactive2,2020.1.2,MacIntel,60,5f341be081b9052c55068110,5f352959a71fff47c36e3386,3,,,,,,coin,,,,,,0,0,0,46,1,5,1,,,,,,,,,,,,,,,,,,,,,,,,,,,,,,,,,,,,,,,,,,,,,,,,,,,,,,,,,,,,,,,,,,,,,,,,,,,,,,,,,,,,,,,,,,,,,,,,,,,
,,,,,,,,,,stimuli/images/PICTURE_68.png,MILE,5c645dfb78200f00012a3ba1,12/08/1985,2020-08-13_12h52.24.312,proactive2,2020.1.2,MacIntel,60,5f341be081b9052c55068110,5f352959a71fff47c36e3386,3,,,,,,candle,,,,,,0,1,1,51,1,6,1,,,,,,,,,,,,,,,,,,,,,,,,,,,,,,,,,,,,,,,,,,,,,,,,,,,,,,,,,,,,,,,,,,,,,,,,,,,,,,,,,,,,,,,,,,,,,,,,,,,
,,,,,,,,,,stimuli/images/PICTURE_685.png,PENNY,5c645dfb78200f00012a3ba1,12/08/1985,2020-08-13_12h52.24.312,proactive2,2020.1.2,MacIntel,60,5f341be081b9052c55068110,5f352959a71fff47c36e3386,3,,,,,,goose,,,,,,0,2,2,4,1,1,1,,,,,,,,,,,,,,,,,,,,,,,,,,,,,,,,,,,,,,,,,,,,,,,,,,,,,,,,,,,,,,,,,,,,,,,,,,,,,,,,,,,,,,,,,,,,,,,,,,,
,,,,,,,,,,stimuli/images/PICTURE_95.png,HONEY,5c645dfb78200f00012a3ba1,12/08/1985,2020-08-13_12h52.24.312,proactive2,2020.1.2,MacIntel,60,5f341be081b9052c55068110,5f352959a71fff47c36e3386,3,,,,,,suitcase,,,,,,0,3,3,44,1,5,1,,,,,,,,,,,,,,,,,,,,,,,,,,,,,,,,,,,,,,,,,,,,,,,,,,,,,,,,,,,,,,,,,,,,,,,,,,,,,,,,,,,,,,,,,,,,,,,,,,,
,,,,,,,,,,stimuli/images/PICTURE_95.png,BOYS,5c645dfb78200f00012a3ba1,12/08/1985,2020-08-13_12h52.24.312,proactive2,2020.1.2,MacIntel,60,5f341be081b9052c55068110,5f352959a71fff47c36e3386,3,,,,,,suitcase,,,,,,0,4,4,1,1,1,1,,,,,,,,,,,,,,,,,,,,,,,,,,,,,,,,,,,,,,,,,,,,,,,,,,,,,,,,,,,,,,,,,,,,,,,,,,,,,,,,,,,,,,,,,,,,,,,,,,,
,,,,,,,,,,stimuli/images/PICTURE_42.png,BOYS,5c645dfb78200f00012a3ba1,12/08/1985,2020-08-13_12h52.24.312,proactive2,2020.1.2,MacIntel,60,5f341be081b9052c55068110,5f352959a71fff47c36e3386,3,,,,,,pear,,,,,,0,5,5,55,1,6,1,,,,,,,,,,,,,,,,,,,,,,,,,,,,,,,,,,,,,,,,,,,,,,,,,,,,,,,,,,,,,,,,,,,,,,,,,,,,,,,,,,,,,,,,,,,,,,,,,,,
,,,,,,,,,,stimuli/images/PICTURE_677.png,APPLE,5c645dfb78200f00012a3ba1,12/08/1985,2020-08-13_12h52.24.312,proactive2,2020.1.2,MacIntel,60,5f341be081b9052c55068110,5f352959a71fff47c36e3386,3,,,,,,map,,,,,,0,6,6,43,1,5,1,,,,,,,,,,,,,,,,,,,,,,,,,,,,,,,,,,,,,,,,,,,,,,,,,,,,,,,,,,,,,,,,,,,,,,,,,,,,,,,,,,,,,,,,,,,,,,,,,,,
,,,,,,,,,,stimuli/images/PICTURE_296.png,LIFE,5c645dfb78200f00012a3ba1,12/08/1985,2020-08-13_12h52.24.312,proactive2,2020.1.2,MacIntel,60,5f341be081b9052c55068110,5f352959a71fff47c36e3386,3,,,,,,bolt,,,,,,0,7,7,57,1,6,1,,,,,,,,,,,,,,,,,,,,,,,,,,,,,,,,,,,,,,,,,,,,,,,,,,,,,,,,,,,,,,,,,,,,,,,,,,,,,,,,,,,,,,,,,,,,,,,,,,,
,,,,,,,,,,stimuli/images/PICTURE_340.png,LETTER,5c645dfb78200f00012a3ba1,12/08/1985,2020-08-13_12h52.24.312,proactive2,2020.1.2,MacIntel,60,5f341be081b9052c55068110,5f352959a71fff47c36e3386,3,,,,,,mirror,,,,,,0,8,8,24,1,3,1,,,,,,,,,,,,,,,,,,,,,,,,,,,,,,,,,,,,,,,,,,,,,,,,,,,,,,,,,,,,,,,,,,,,,,,,,,,,,,,,,,,,,,,,,,,,,,,,,,,
,,,,,,,,,,stimuli/images/PICTURE_744.png,WEAPON,5c645dfb78200f00012a3ba1,12/08/1985,2020-08-13_12h52.24.312,proactive2,2020.1.2,MacIntel,60,5f341be081b9052c55068110,5f352959a71fff47c36e3386,3,,,,,,ring,,,,,,0,9,9,50,1,6,1,,,,,,,,,,,,,,,,,,,,,,,,,,,,,,,,,,,,,,,,,,,,,,,,,,,,,,,,,,,,,,,,,,,,,,,,,,,,,,,,,,,,,,,,,,,,,,,,,,,
,,,,,,,,,,stimuli/images/PICTURE_147.png,WOMEN,5c645dfb78200f00012a3ba1,12/08/1985,2020-08-13_12h52.24.312,proactive2,2020.1.2,MacIntel,60,5f341be081b9052c55068110,5f352959a71fff47c36e3386,3,,,,,,hanger,,,,,,0,10,10,7,1,1,1,,,,,,,,,,,,,,,,,,,,,,,,,,,,,,,,,,,,,,,,,,,,,,,,,,,,,,,,,,,,,,,,,,,,,,,,,,,,,,,,,,,,,,,,,,,,,,,,,,,
,,,,,,,,,,stimuli/images/PICTURE_403.png,WRITER,5c645dfb78200f00012a3ba1,12/08/1985,2020-08-13_12h52.24.312,proactive2,2020.1.2,MacIntel,60,5f341be081b9052c55068110,5f352959a71fff47c36e3386,3,,,,,,cathedral,,,,,,0,11,11,31,1,4,1,,,,,,,,,,,,,,,,,,,,,,,,,,,,,,,,,,,,,,,,,,,,,,,,,,,,,,,,,,,,,,,,,,,,,,,,,,,,,,,,,,,,,,,,,,,,,,,,,,,
,,,,,,,,,,stimuli/images/PICTURE_85.png,NATION,5c645dfb78200f00012a3ba1,12/08/1985,2020-08-13_12h52.24.312,proactive2,2020.1.2,MacIntel,60,5f341be081b9052c55068110,5f352959a71fff47c36e3386,3,,,,,,diamond,,,,,,0,12,12,5,1,1,1,,,,,,,,,,,,,,,,,,,,,,,,,,,,,,,,,,,,,,,,,,,,,,,,,,,,,,,,,,,,,,,,,,,,,,,,,,,,,,,,,,,,,,,,,,,,,,,,,,,
,,,,,,,,,,stimuli/images/PICTURE_491.png,RIVER,5c645dfb78200f00012a3ba1,12/08/1985,2020-08-13_12h52.24.312,proactive2,2020.1.2,MacIntel,60,5f341be081b9052c55068110,5f352959a71fff47c36e3386,3,,,,,,rug,,,,,,0,13,13,6,1,1,1,,,,,,,,,,,,,,,,,,,,,,,,,,,,,,,,,,,,,,,,,,,,,,,,,,,,,,,,,,,,,,,,,,,,,,,,,,,,,,,,,,,,,,,,,,,,,,,,,,,
,,,,,,,,,,stimuli/images/PICTURE_147.png,YEAR,5c645dfb78200f00012a3ba1,12/08/1985,2020-08-13_12h52.24.312,proactive2,2020.1.2,MacIntel,60,5f341be081b9052c55068110,5f352959a71fff47c36e3386,3,,,,,,hanger,,,,,,0,14,14,21,1,3,1,,,,,,,,,,,,,,,,,,,,,,,,,,,,,,,,,,,,,,,,,,,,,,,,,,,,,,,,,,,,,,,,,,,,,,,,,,,,,,,,,,,,,,,,,,,,,,,,,,,
,,,,,,,,,,stimuli/images/PICTURE_203.png,GODS,5c645dfb78200f00012a3ba1,12/08/1985,2020-08-13_12h52.24.312,proactive2,2020.1.2,MacIntel,60,5f341be081b9052c55068110,5f352959a71fff47c36e3386,3,,,,,,cap,,,,,,0,15,15,30,1,4,1,,,,,,,,,,,,,,,,,,,,,,,,,,,,,,,,,,,,,,,,,,,,,,,,,,,,,,,,,,,,,,,,,,,,,,,,,,,,,,,,,,,,,,,,,,,,,,,,,,,
,,,,,,,,,,stimuli/images/PICTURE_95.png,MILLER,5c645dfb78200f00012a3ba1,12/08/1985,2020-08-13_12h52.24.312,proactive2,2020.1.2,MacIntel,60,5f341be081b9052c55068110,5f352959a71fff47c36e3386,3,,,,,,suitcase,,,,,,0,16,16,56,1,6,1,,,,,,,,,,,,,,,,,,,,,,,,,,,,,,,,,,,,,,,,,,,,,,,,,,,,,,,,,,,,,,,,,,,,,,,,,,,,,,,,,,,,,,,,,,,,,,,,,,,
,,,,,,,,,,stimuli/images/PICTURE_203.png,NIGHT,5c645dfb78200f00012a3ba1,12/08/1985,2020-08-13_12h52.24.312,proactive2,2020.1.2,MacIntel,60,5f341be081b9052c55068110,5f352959a71fff47c36e3386,3,,,,,,cap,,,,,,0,17,17,2,1,1,1,,,,,,,,,,,,,,,,,,,,,,,,,,,,,,,,,,,,,,,,,,,,,,,,,,,,,,,,,,,,,,,,,,,,,,,,,,,,,,,,,,,,,,,,,,,,,,,,,,,
,,,,,,,,,,stimuli/images/PICTURE_177.png,WRITER,5c645dfb78200f00012a3ba1,12/08/1985,2020-08-13_12h52.24.312,proactive2,2020.1.2,MacIntel,60,5f341be081b9052c55068110,5f352959a71fff47c36e3386,3,,,,,,mushroom,,,,,,0,18,18,41,1,5,1,,,,,,,,,,,,,,,,,,,,,,,,,,,,,,,,,,,,,,,,,,,,,,,,,,,,,,,,,,,,,,,,,,,,,,,,,,,,,,,,,,,,,,,,,,,,,,,,,,,
,,,,,,,,,,stimuli/images/PICTURE_85.png,TOILET,5c645dfb78200f00012a3ba1,12/08/1985,2020-08-13_12h52.24.312,proactive2,2020.1.2,MacIntel,60,5f341be081b9052c55068110,5f352959a71fff47c36e3386,3,,,,,,diamond,,,,,,0,19,19,48,1,5,1,,,,,,,,,,,,,,,,,,,,,,,,,,,,,,,,,,,,,,,,,,,,,,,,,,,,,,,,,,,,,,,,,,,,,,,,,,,,,,,,,,,,,,,,,,,,,,,,,,,
,,,,,,,,,,stimuli/images/PICTURE_403.png,RIVER,5c645dfb78200f00012a3ba1,12/08/1985,2020-08-13_12h52.24.312,proactive2,2020.1.2,MacIntel,60,5f341be081b9052c55068110,5f352959a71fff47c36e3386,3,,,,,,cathedral,,,,,,0,20,20,40,1,5,1,,,,,,,,,,,,,,,,,,,,,,,,,,,,,,,,,,,,,,,,,,,,,,,,,,,,,,,,,,,,,,,,,,,,,,,,,,,,,,,,,,,,,,,,,,,,,,,,,,,
,,,,,,,,,,stimuli/images/PICTURE_667.png,RIVER,5c645dfb78200f00012a3ba1,12/08/1985,2020-08-13_12h52.24.312,proactive2,2020.1.2,MacIntel,60,5f341be081b9052c55068110,5f352959a71fff47c36e3386,3,,,,,,daisy,,,,,,0,21,21,10,1,2,1,,,,,,,,,,,,,,,,,,,,,,,,,,,,,,,,,,,,,,,,,,,,,,,,,,,,,,,,,,,,,,,,,,,,,,,,,,,,,,,,,,,,,,,,,,,,,,,,,,,
,,,,,,,,,,stimuli/images/PICTURE_32.png,PILLS,5c645dfb78200f00012a3ba1,12/08/1985,2020-08-13_12h52.24.312,proactive2,2020.1.2,MacIntel,60,5f341be081b9052c55068110,5f352959a71fff47c36e3386,3,,,,,,crown,,,,,,0,22,22,18,1,2,1,,,,,,,,,,,,,,,,,,,,,,,,,,,,,,,,,,,,,,,,,,,,,,,,,,,,,,,,,,,,,,,,,,,,,,,,,,,,,,,,,,,,,,,,,,,,,,,,,,,
,,,,,,,,,,stimuli/images/PICTURE_68.png,ROOF,5c645dfb78200f00012a3ba1,12/08/1985,2020-08-13_12h52.24.312,proactive2,2020.1.2,MacIntel,60,5f341be081b9052c55068110,5f352959a71fff47c36e3386,3,,,,,,candle,,,,,,0,23,23,38,1,4,1,,,,,,,,,,,,,,,,,,,,,,,,,,,,,,,,,,,,,,,,,,,,,,,,,,,,,,,,,,,,,,,,,,,,,,,,,,,,,,,,,,,,,,,,,,,,,,,,,,,
,,,,,,,,,,stimuli/images/PICTURE_491.png,GLASS,5c645dfb78200f00012a3ba1,12/08/1985,2020-08-13_12h52.24.312,proactive2,2020.1.2,MacIntel,60,5f341be081b9052c55068110,5f352959a71fff47c36e3386,3,,,,,,rug,,,,,,0,24,24,14,1,2,1,,,,,,,,,,,,,,,,,,,,,,,,,,,,,,,,,,,,,,,,,,,,,,,,,,,,,,,,,,,,,,,,,,,,,,,,,,,,,,,,,,,,,,,,,,,,,,,,,,,
,,,,,,,,,,stimuli/images/PICTURE_655.png,TOILET,5c645dfb78200f00012a3ba1,12/08/1985,2020-08-13_12h52.24.312,proactive2,2020.1.2,MacIntel,60,5f341be081b9052c55068110,5f352959a71fff47c36e3386,3,,,,,,megaphone,,,,,,0,25,25,12,1,2,1,,,,,,,,,,,,,,,,,,,,,,,,,,,,,,,,,,,,,,,,,,,,,,,,,,,,,,,,,,,,,,,,,,,,,,,,,,,,,,,,,,,,,,,,,,,,,,,,,,,
,,,,,,,,,,stimuli/images/PICTURE_654.png,MONTH,5c645dfb78200f00012a3ba1,12/08/1985,2020-08-13_12h52.24.312,proactive2,2020.1.2,MacIntel,60,5f341be081b9052c55068110,5f352959a71fff47c36e3386,3,,,,,,pencil,,,,,,0,26,26,29,1,3,1,,,,,,,,,,,,,,,,,,,,,,,,,,,,,,,,,,,,,,,,,,,,,,,,,,,,,,,,,,,,,,,,,,,,,,,,,,,,,,,,,,,,,,,,,,,,,,,,,,,
,,,,,,,,,,stimuli/images/PICTURE_233.png,LOTS,5c645dfb78200f00012a3ba1,12/08/1985,2020-08-13_12h52.24.312,proactive2,2020.1.2,MacIntel,60,5f341be081b9052c55068110,5f352959a71fff47c36e3386,3,,,,,,salt,,,,,,0,27,27,42,1,5,1,,,,,,,,,,,,,,,,,,,,,,,,,,,,,,,,,,,,,,,,,,,,,,,,,,,,,,,,,,,,,,,,,,,,,,,,,,,,,,,,,,,,,,,,,,,,,,,,,,,
,,,,,,,,,,stimuli/images/PICTURE_469.png,AGENT,5c645dfb78200f00012a3ba1,12/08/1985,2020-08-13_12h52.24.312,proactive2,2020.1.2,MacIntel,60,5f341be081b9052c55068110,5f352959a71fff47c36e3386,3,,,,,,stool,,,,,,0,28,28,16,1,2,1,,,,,,,,,,,,,,,,,,,,,,,,,,,,,,,,,,,,,,,,,,,,,,,,,,,,,,,,,,,,,,,,,,,,,,,,,,,,,,,,,,,,,,,,,,,,,,,,,,,
,,,,,,,,,,stimuli/images/PICTURE_327.png,CASINO,5c645dfb78200f00012a3ba1,12/08/1985,2020-08-13_12h52.24.312,proactive2,2020.1.2,MacIntel,60,5f341be081b9052c55068110,5f352959a71fff47c36e3386,3,,,,,,helmet,,,,,,0,29,29,20,1,3,1,,,,,,,,,,,,,,,,,,,,,,,,,,,,,,,,,,,,,,,,,,,,,,,,,,,,,,,,,,,,,,,,,,,,,,,,,,,,,,,,,,,,,,,,,,,,,,,,,,,
,,,,,,,,,,stimuli/images/PICTURE_750.png,HOTEL,5c645dfb78200f00012a3ba1,12/08/1985,2020-08-13_12h52.24.312,proactive2,2020.1.2,MacIntel,60,5f341be081b9052c55068110,5f352959a71fff47c36e3386,3,,,,,,kettle,,,,,,0,30,30,27,1,3,1,,,,,,,,,,,,,,,,,,,,,,,,,,,,,,,,,,,,,,,,,,,,,,,,,,,,,,,,,,,,,,,,,,,,,,,,,,,,,,,,,,,,,,,,,,,,,,,,,,,
,,,,,,,,,,stimuli/images/PICTURE_449.png,DUDE,5c645dfb78200f00012a3ba1,12/08/1985,2020-08-13_12h52.24.312,proactive2,2020.1.2,MacIntel,60,5f341be081b9052c55068110,5f352959a71fff47c36e3386,3,,,,,,bench,,,,,,0,31,31,17,1,2,1,,,,,,,,,,,,,,,,,,,,,,,,,,,,,,,,,,,,,,,,,,,,,,,,,,,,,,,,,,,,,,,,,,,,,,,,,,,,,,,,,,,,,,,,,,,,,,,,,,,
,,,,,,,,,,stimuli/images/PICTURE_308.png,FAMILY,5c645dfb78200f00012a3ba1,12/08/1985,2020-08-13_12h52.24.312,proactive2,2020.1.2,MacIntel,60,5f341be081b9052c55068110,5f352959a71fff47c36e3386,3,,,,,,dice,,,,,,0,32,32,36,1,4,1,,,,,,,,,,,,,,,,,,,,,,,,,,,,,,,,,,,,,,,,,,,,,,,,,,,,,,,,,,,,,,,,,,,,,,,,,,,,,,,,,,,,,,,,,,,,,,,,,,,
,,,,,,,,,,stimuli/images/PICTURE_2.png,FLIGHT,5c645dfb78200f00012a3ba1,12/08/1985,2020-08-13_12h52.24.312,proactive2,2020.1.2,MacIntel,60,5f341be081b9052c55068110,5f352959a71fff47c36e3386,3,,,,,,tyre,,,,,,0,33,33,15,1,2,1,,,,,,,,,,,,,,,,,,,,,,,,,,,,,,,,,,,,,,,,,,,,,,,,,,,,,,,,,,,,,,,,,,,,,,,,,,,,,,,,,,,,,,,,,,,,,,,,,,,
,,,,,,,,,,stimuli/images/PICTURE_108.png,FLIGHT,5c645dfb78200f00012a3ba1,12/08/1985,2020-08-13_12h52.24.312,proactive2,2020.1.2,MacIntel,60,5f341be081b9052c55068110,5f352959a71fff47c36e3386,3,,,,,,calendar,,,,,,0,34,34,59,1,6,1,,,,,,,,,,,,,,,,,,,,,,,,,,,,,,,,,,,,,,,,,,,,,,,,,,,,,,,,,,,,,,,,,,,,,,,,,,,,,,,,,,,,,,,,,,,,,,,,,,,
,,,,,,,,,,stimuli/images/PICTURE_297.png,RIVER,5c645dfb78200f00012a3ba1,12/08/1985,2020-08-13_12h52.24.312,proactive2,2020.1.2,MacIntel,60,5f341be081b9052c55068110,5f352959a71fff47c36e3386,3,,,,,,aeroplane,,,,,,0,35,35,39,1,4,1,,,,,,,,,,,,,,,,,,,,,,,,,,,,,,,,,,,,,,,,,,,,,,,,,,,,,,,,,,,,,,,,,,,,,,,,,,,,,,,,,,,,,,,,,,,,,,,,,,,
,,,,,,,,,,stimuli/images/PICTURE_403.png,TOILET,5c645dfb78200f00012a3ba1,12/08/1985,2020-08-13_12h52.24.312,proactive2,2020.1.2,MacIntel,60,5f341be081b9052c55068110,5f352959a71fff47c36e3386,3,,,,,,cathedral,,,,,,0,36,36,25,1,3,1,,,,,,,,,,,,,,,,,,,,,,,,,,,,,,,,,,,,,,,,,,,,,,,,,,,,,,,,,,,,,,,,,,,,,,,,,,,,,,,,,,,,,,,,,,,,,,,,,,,
,,,,,,,,,,stimuli/images/PICTURE_327.png,SERIES,5c645dfb78200f00012a3ba1,12/08/1985,2020-08-13_12h52.24.312,proactive2,2020.1.2,MacIntel,60,5f341be081b9052c55068110,5f352959a71fff47c36e3386,3,,,,,,helmet,,,,,,0,37,37,3,1,1,1,,,,,,,,,,,,,,,,,,,,,,,,,,,,,,,,,,,,,,,,,,,,,,,,,,,,,,,,,,,,,,,,,,,,,,,,,,,,,,,,,,,,,,,,,,,,,,,,,,,
,,,,,,,,,,stimuli/images/PICTURE_467.png,POLICY,5c645dfb78200f00012a3ba1,12/08/1985,2020-08-13_12h52.24.312,proactive2,2020.1.2,MacIntel,60,5f341be081b9052c55068110,5f352959a71fff47c36e3386,3,,,,,,peg,,,,,,0,38,38,53,1,6,1,,,,,,,,,,,,,,,,,,,,,,,,,,,,,,,,,,,,,,,,,,,,,,,,,,,,,,,,,,,,,,,,,,,,,,,,,,,,,,,,,,,,,,,,,,,,,,,,,,,
,,,,,,,,,,stimuli/images/PICTURE_380.png,HONEY,5c645dfb78200f00012a3ba1,12/08/1985,2020-08-13_12h52.24.312,proactive2,2020.1.2,MacIntel,60,5f341be081b9052c55068110,5f352959a71fff47c36e3386,3,,,,,,gorilla,,,,,,0,39,39,19,1,2,1,,,,,,,,,,,,,,,,,,,,,,,,,,,,,,,,,,,,,,,,,,,,,,,,,,,,,,,,,,,,,,,,,,,,,,,,,,,,,,,,,,,,,,,,,,,,,,,,,,,
,,,,,,,,,,stimuli/images/PICTURE_296.png,LOTS,5c645dfb78200f00012a3ba1,12/08/1985,2020-08-13_12h52.24.312,proactive2,2020.1.2,MacIntel,60,5f341be081b9052c55068110,5f352959a71fff47c36e3386,3,,,,,,bolt,,,,,,0,40,40,9,1,1,1,,,,,,,,,,,,,,,,,,,,,,,,,,,,,,,,,,,,,,,,,,,,,,,,,,,,,,,,,,,,,,,,,,,,,,,,,,,,,,,,,,,,,,,,,,,,,,,,,,,
,,,,,,,,,,stimuli/images/PICTURE_108.png,POLICY,5c645dfb78200f00012a3ba1,12/08/1985,2020-08-13_12h52.24.312,proactive2,2020.1.2,MacIntel,60,5f341be081b9052c55068110,5f352959a71fff47c36e3386,3,,,,,,calendar,,,,,,0,41,41,22,1,3,1,,,,,,,,,,,,,,,,,,,,,,,,,,,,,,,,,,,,,,,,,,,,,,,,,,,,,,,,,,,,,,,,,,,,,,,,,,,,,,,,,,,,,,,,,,,,,,,,,,,
,,,,,,,,,,stimuli/images/PICTURE_405.png,PLENTY,5c645dfb78200f00012a3ba1,12/08/1985,2020-08-13_12h52.24.312,proactive2,2020.1.2,MacIntel,60,5f341be081b9052c55068110,5f352959a71fff47c36e3386,3,,,,,,anchor,,,,,,0,42,42,23,1,3,1,,,,,,,,,,,,,,,,,,,,,,,,,,,,,,,,,,,,,,,,,,,,,,,,,,,,,,,,,,,,,,,,,,,,,,,,,,,,,,,,,,,,,,,,,,,,,,,,,,,
,,,,,,,,,,stimuli/images/PICTURE_564.png,BATH,5c645dfb78200f00012a3ba1,12/08/1985,2020-08-13_12h52.24.312,proactive2,2020.1.2,MacIntel,60,5f341be081b9052c55068110,5f352959a71fff47c36e3386,3,,,,,,spoon,,,,,,0,43,43,26,1,3,1,,,,,,,,,,,,,,,,,,,,,,,,,,,,,,,,,,,,,,,,,,,,,,,,,,,,,,,,,,,,,,,,,,,,,,,,,,,,,,,,,,,,,,,,,,,,,,,,,,,
,,,,,,,,,,stimuli/images/PICTURE_405.png,YEAR,5c645dfb78200f00012a3ba1,12/08/1985,2020-08-13_12h52.24.312,proactive2,2020.1.2,MacIntel,60,5f341be081b9052c55068110,5f352959a71fff47c36e3386,3,,,,,,anchor,,,,,,0,44,44,34,1,4,1,,,,,,,,,,,,,,,,,,,,,,,,,,,,,,,,,,,,,,,,,,,,,,,,,,,,,,,,,,,,,,,,,,,,,,,,,,,,,,,,,,,,,,,,,,,,,,,,,,,
,,,,,,,,,,stimuli/images/PICTURE_380.png,CANDY,5c645dfb78200f00012a3ba1,12/08/1985,2020-08-13_12h52.24.312,proactive2,2020.1.2,MacIntel,60,5f341be081b9052c55068110,5f352959a71fff47c36e3386,3,,,,,,gorilla,,,,,,0,45,45,0,1,1,1,,,,,,,,,,,,,,,,,,,,,,,,,,,,,,,,,,,,,,,,,,,,,,,,,,,,,,,,,,,,,,,,,,,,,,,,,,,,,,,,,,,,,,,,,,,,,,,,,,,
,,,,,,,,,,stimuli/images/PICTURE_487.png,GIRL,5c645dfb78200f00012a3ba1,12/08/1985,2020-08-13_12h52.24.312,proactive2,2020.1.2,MacIntel,60,5f341be081b9052c55068110,5f352959a71fff47c36e3386,3,,,,,,basket,,,,,,0,46,46,45,1,5,1,,,,,,,,,,,,,,,,,,,,,,,,,,,,,,,,,,,,,,,,,,,,,,,,,,,,,,,,,,,,,,,,,,,,,,,,,,,,,,,,,,,,,,,,,,,,,,,,,,,
,,,,,,,,,,stimuli/images/PICTURE_504.png,ARTIST,5c645dfb78200f00012a3ba1,12/08/1985,2020-08-13_12h52.24.312,proactive2,2020.1.2,MacIntel,60,5f341be081b9052c55068110,5f352959a71fff47c36e3386,3,,,,,,wheel,,,,,,0,47,47,49,1,5,1,,,,,,,,,,,,,,,,,,,,,,,,,,,,,,,,,,,,,,,,,,,,,,,,,,,,,,,,,,,,,,,,,,,,,,,,,,,,,,,,,,,,,,,,,,,,,,,,,,,
