consent_key.keys,consent_key.rt,recalled,recalled_rt,recall_acc,example_recall.thisRepN,example_recall.thisTrialN,example_recall.thisN,example_recall.thisIndex,example_recall.ran,file,word,participant,please enter your date of birth (dd/mm/yyyy),date,expName,psychopyVersion,OS,frameRate,STUDY_ID,SESSION_ID,list,prac_learn_study_loop.thisRepN,prac_learn_study_loop.thisTrialN,prac_learn_study_loop.thisN,prac_learn_study_loop.thisIndex,prac_learn_study_loop.ran,image,prac_learn_test_loop.thisRepN,prac_learn_test_loop.thisTrialN,prac_learn_test_loop.thisN,prac_learn_test_loop.thisIndex,prac_learn_test_loop.ran,learn_study_loop.thisRepN,learn_study_loop.thisTrialN,learn_study_loop.thisN,learn_study_loop.thisIndex,learn_study_loop.ran,list_no,block_no,learn_test_loop.thisRepN,learn_test_loop.thisTrialN,learn_test_loop.thisN,learn_test_loop.thisIndex,learn_test_loop.ran,learn_blocks.thisRepN,learn_blocks.thisTrialN,learn_blocks.thisN,learn_blocks.thisIndex,learn_blocks.ran,block_csv,key_resp_13.keys,key_resp_13.rt,learn_blocks_loop.thisRepN,learn_blocks_loop.thisTrialN,learn_blocks_loop.thisN,learn_blocks_loop.thisIndex,learn_blocks_loop.ran,final_learn_test.thisRepN,final_learn_test.thisTrialN,final_learn_test.thisN,final_learn_test.thisIndex,final_learn_test.ran,s_im1,s_im2,s_im3,s_im4,s_im5,s_im6,s_im7,s_im8,s_im1pos,s_im2pos,s_im3pos,s_im4pos,s_im5pos,s_im6pos,s_im7pos,s_im8pos,s_tarright,search_resp.keys,search_loop.thisRepN,search_loop.thisTrialN,search_loop.thisN,search_loop.thisIndex,search_loop.ran,search_resp.rt,prac_wm_test_loop.thisRepN,prac_wm_test_loop.thisTrialN,prac_wm_test_loop.thisN,prac_wm_test_loop.thisIndex,prac_wm_test_loop.ran,wm_recalled1,wm_recall_rt1,wm_probed1,wm_recall_acc1,wm_recalled2,wm_recall_rt2,wm_probed2,wm_recall_acc2,wm_recalled3,wm_recall_rt3,wm_probed3,wm_recall_acc3,wm_recalled4,wm_recall_rt4,wm_probed4,wm_recall_acc4,prac_wm_trial_loop.thisRepN,prac_wm_trial_loop.thisTrialN,prac_wm_trial_loop.thisN,prac_wm_trial_loop.thisIndex,prac_wm_trial_loop.ran,word1,image1,file1,item_type1,word2,image2,file2,item_type2,word4,image4,file4,item_type4,word3,image3,file3,item_type3,wm_test_loop.thisRepN,wm_test_loop.thisTrialN,wm_test_loop.thisN,wm_test_loop.thisIndex,wm_test_loop.ran,wm_trial_loop.thisRepN,wm_trial_loop.thisTrialN,wm_trial_loop.thisN,wm_trial_loop.thisIndex,wm_trial_loop.ran
y,13.47167,TOUGH,5.80167,1,0,0,0,0,1,stimuli/images/PICTURE_747.png,TOUGH,5d0ca909a37d8b0018913ca4,09/12/1937,2020-09-03_19h41.16.401,proactive2,2020.1.2,Linux x86_64,60,5f5126bb654d4b30ee6923d8,5f513836e96b0433f752330c,1,,,,,,,,,,,,,,,,,,,,,,,,,,,,,,,,,,,,,,,,,,,,,,,,,,,,,,,,,,,,,,,,,,,,,,,,,,,,,,,,,,,,,,,,,,,,,,,,,,,,,,,,,,,,,,,,,,,,,
,,,,,,,,,,stimuli/images/PICTURE_269.png,GENIUS,5d0ca909a37d8b0018913ca4,09/12/1937,2020-09-03_19h41.16.401,proactive2,2020.1.2,Linux x86_64,60,5f5126bb654d4b30ee6923d8,5f513836e96b0433f752330c,1,0,0,0,0,1,chameleon,,,,,,,,,,,,,,,,,,,,,,,,,,,,,,,,,,,,,,,,,,,,,,,,,,,,,,,,,,,,,,,,,,,,,,,,,,,,,,,,,,,,,,,,,,,,,,,,,,,,,,,,,,,,,,,
,,,,,,,,,,stimuli/images/PICTURE_727.png,CELL,5d0ca909a37d8b0018913ca4,09/12/1937,2020-09-03_19h41.16.401,proactive2,2020.1.2,Linux x86_64,60,5f5126bb654d4b30ee6923d8,5f513836e96b0433f752330c,1,0,1,1,1,1,hose,,,,,,,,,,,,,,,,,,,,,,,,,,,,,,,,,,,,,,,,,,,,,,,,,,,,,,,,,,,,,,,,,,,,,,,,,,,,,,,,,,,,,,,,,,,,,,,,,,,,,,,,,,,,,,,
,,,,,,,,,,stimuli/images/PICTURE_697.png,KILLER,5d0ca909a37d8b0018913ca4,09/12/1937,2020-09-03_19h41.16.401,proactive2,2020.1.2,Linux x86_64,60,5f5126bb654d4b30ee6923d8,5f513836e96b0433f752330c,1,0,2,2,4,1,peach,,,,,,,,,,,,,,,,,,,,,,,,,,,,,,,,,,,,,,,,,,,,,,,,,,,,,,,,,,,,,,,,,,,,,,,,,,,,,,,,,,,,,,,,,,,,,,,,,,,,,,,,,,,,,,,
,,,,,,,,,,stimuli/images/PICTURE_658.png,DEVIL,5d0ca909a37d8b0018913ca4,09/12/1937,2020-09-03_19h41.16.401,proactive2,2020.1.2,Linux x86_64,60,5f5126bb654d4b30ee6923d8,5f513836e96b0433f752330c,1,0,3,3,3,1,crow,,,,,,,,,,,,,,,,,,,,,,,,,,,,,,,,,,,,,,,,,,,,,,,,,,,,,,,,,,,,,,,,,,,,,,,,,,,,,,,,,,,,,,,,,,,,,,,,,,,,,,,,,,,,,,,
,,LOSS,4.717005,1,,,,,,stimuli/images/PICTURE_378.png,LOSS,5d0ca909a37d8b0018913ca4,09/12/1937,2020-09-03_19h41.16.401,proactive2,2020.1.2,Linux x86_64,60,5f5126bb654d4b30ee6923d8,5f513836e96b0433f752330c,1,,,,,,lobster,0,0,0,2,1,,,,,,,,,,,,,,,,,,,,,,,,,,,,,,,,,,,,,,,,,,,,,,,,,,,,,,,,,,,,,,,,,,,,,,,,,,,,,,,,,,,,,,,,,,,,,,,,,,,,,,,,,,
,,GENIUS,6.456605,1,,,,,,stimuli/images/PICTURE_269.png,GENIUS,5d0ca909a37d8b0018913ca4,09/12/1937,2020-09-03_19h41.16.401,proactive2,2020.1.2,Linux x86_64,60,5f5126bb654d4b30ee6923d8,5f513836e96b0433f752330c,1,,,,,,chameleon,0,1,1,0,1,,,,,,,,,,,,,,,,,,,,,,,,,,,,,,,,,,,,,,,,,,,,,,,,,,,,,,,,,,,,,,,,,,,,,,,,,,,,,,,,,,,,,,,,,,,,,,,,,,,,,,,,,,
,,?,6.22305,0,,,,,,stimuli/images/PICTURE_697.png,KILLER,5d0ca909a37d8b0018913ca4,09/12/1937,2020-09-03_19h41.16.401,proactive2,2020.1.2,Linux x86_64,60,5f5126bb654d4b30ee6923d8,5f513836e96b0433f752330c,1,,,,,,peach,0,2,2,4,1,,,,,,,,,,,,,,,,,,,,,,,,,,,,,,,,,,,,,,,,,,,,,,,,,,,,,,,,,,,,,,,,,,,,,,,,,,,,,,,,,,,,,,,,,,,,,,,,,,,,,,,,,,
,,LOSS,2.750095,0,,,,,,stimuli/images/PICTURE_727.png,CELL,5d0ca909a37d8b0018913ca4,09/12/1937,2020-09-03_19h41.16.401,proactive2,2020.1.2,Linux x86_64,60,5f5126bb654d4b30ee6923d8,5f513836e96b0433f752330c,1,,,,,,hose,0,3,3,1,1,,,,,,,,,,,,,,,,,,,,,,,,,,,,,,,,,,,,,,,,,,,,,,,,,,,,,,,,,,,,,,,,,,,,,,,,,,,,,,,,,,,,,,,,,,,,,,,,,,,,,,,,,,
,,KILLER,4.80091,0,,,,,,stimuli/images/PICTURE_658.png,DEVIL,5d0ca909a37d8b0018913ca4,09/12/1937,2020-09-03_19h41.16.401,proactive2,2020.1.2,Linux x86_64,60,5f5126bb654d4b30ee6923d8,5f513836e96b0433f752330c,1,,,,,,crow,0,4,4,3,1,,,,,,,,,,,,,,,,,,,,,,,,,,,,,,,,,,,,,,,,,,,,,,,,,,,,,,,,,,,,,,,,,,,,,,,,,,,,,,,,,,,,,,,,,,,,,,,,,,,,,,,,,,
,,,,,,,,,,stimuli/images/PICTURE_57.png,NATION,5d0ca909a37d8b0018913ca4,09/12/1937,2020-09-03_19h41.16.401,proactive2,2020.1.2,Linux x86_64,60,5f5126bb654d4b30ee6923d8,5f513836e96b0433f752330c,1,,,,,,stamp,,,,,,0,0,0,21,1,3,2,,,,,,,,,,,,,,,,,,,,,,,,,,,,,,,,,,,,,,,,,,,,,,,,,,,,,,,,,,,,,,,,,,,,,,,,,,,,,,,,,,,,,,,,,,,,,,,,,,,
,,,,,,,,,,stimuli/images/PICTURE_177.png,HOUSE,5d0ca909a37d8b0018913ca4,09/12/1937,2020-09-03_19h41.16.401,proactive2,2020.1.2,Linux x86_64,60,5f5126bb654d4b30ee6923d8,5f513836e96b0433f752330c,1,,,,,,mushroom,,,,,,0,1,1,25,1,3,2,,,,,,,,,,,,,,,,,,,,,,,,,,,,,,,,,,,,,,,,,,,,,,,,,,,,,,,,,,,,,,,,,,,,,,,,,,,,,,,,,,,,,,,,,,,,,,,,,,,
,,,,,,,,,,stimuli/images/PICTURE_57.png,CANDY,5d0ca909a37d8b0018913ca4,09/12/1937,2020-09-03_19h41.16.401,proactive2,2020.1.2,Linux x86_64,60,5f5126bb654d4b30ee6923d8,5f513836e96b0433f752330c,1,,,,,,stamp,,,,,,0,2,2,52,1,6,2,,,,,,,,,,,,,,,,,,,,,,,,,,,,,,,,,,,,,,,,,,,,,,,,,,,,,,,,,,,,,,,,,,,,,,,,,,,,,,,,,,,,,,,,,,,,,,,,,,,
,,,,,,,,,,stimuli/images/PICTURE_215.png,BOYS,5d0ca909a37d8b0018913ca4,09/12/1937,2020-09-03_19h41.16.401,proactive2,2020.1.2,Linux x86_64,60,5f5126bb654d4b30ee6923d8,5f513836e96b0433f752330c,1,,,,,,boot,,,,,,0,3,3,24,1,3,2,,,,,,,,,,,,,,,,,,,,,,,,,,,,,,,,,,,,,,,,,,,,,,,,,,,,,,,,,,,,,,,,,,,,,,,,,,,,,,,,,,,,,,,,,,,,,,,,,,,
,,,,,,,,,,stimuli/images/PICTURE_348.png,DUDE,5d0ca909a37d8b0018913ca4,09/12/1937,2020-09-03_19h41.16.401,proactive2,2020.1.2,Linux x86_64,60,5f5126bb654d4b30ee6923d8,5f513836e96b0433f752330c,1,,,,,,pepper,,,,,,0,4,4,59,1,6,2,,,,,,,,,,,,,,,,,,,,,,,,,,,,,,,,,,,,,,,,,,,,,,,,,,,,,,,,,,,,,,,,,,,,,,,,,,,,,,,,,,,,,,,,,,,,,,,,,,,
,,,,,,,,,,stimuli/images/PICTURE_311.png,TOILET,5d0ca909a37d8b0018913ca4,09/12/1937,2020-09-03_19h41.16.401,proactive2,2020.1.2,Linux x86_64,60,5f5126bb654d4b30ee6923d8,5f513836e96b0433f752330c,1,,,,,,razor,,,,,,0,5,5,54,1,6,2,,,,,,,,,,,,,,,,,,,,,,,,,,,,,,,,,,,,,,,,,,,,,,,,,,,,,,,,,,,,,,,,,,,,,,,,,,,,,,,,,,,,,,,,,,,,,,,,,,,
,,,,,,,,,,stimuli/images/PICTURE_509.png,APPLE,5d0ca909a37d8b0018913ca4,09/12/1937,2020-09-03_19h41.16.401,proactive2,2020.1.2,Linux x86_64,60,5f5126bb654d4b30ee6923d8,5f513836e96b0433f752330c,1,,,,,,telephone,,,,,,0,6,6,38,1,4,2,,,,,,,,,,,,,,,,,,,,,,,,,,,,,,,,,,,,,,,,,,,,,,,,,,,,,,,,,,,,,,,,,,,,,,,,,,,,,,,,,,,,,,,,,,,,,,,,,,,
,,,,,,,,,,stimuli/images/PICTURE_255.png,PENNY,5d0ca909a37d8b0018913ca4,09/12/1937,2020-09-03_19h41.16.401,proactive2,2020.1.2,Linux x86_64,60,5f5126bb654d4b30ee6923d8,5f513836e96b0433f752330c,1,,,,,,shovel,,,,,,0,7,7,19,1,2,2,,,,,,,,,,,,,,,,,,,,,,,,,,,,,,,,,,,,,,,,,,,,,,,,,,,,,,,,,,,,,,,,,,,,,,,,,,,,,,,,,,,,,,,,,,,,,,,,,,,
,,,,,,,,,,stimuli/images/PICTURE_654.png,YEAR,5d0ca909a37d8b0018913ca4,09/12/1937,2020-09-03_19h41.16.401,proactive2,2020.1.2,Linux x86_64,60,5f5126bb654d4b30ee6923d8,5f513836e96b0433f752330c,1,,,,,,pencil,,,,,,0,8,8,41,1,5,2,,,,,,,,,,,,,,,,,,,,,,,,,,,,,,,,,,,,,,,,,,,,,,,,,,,,,,,,,,,,,,,,,,,,,,,,,,,,,,,,,,,,,,,,,,,,,,,,,,,
,,,,,,,,,,stimuli/images/PICTURE_688.png,CLOCK,5d0ca909a37d8b0018913ca4,09/12/1937,2020-09-03_19h41.16.401,proactive2,2020.1.2,Linux x86_64,60,5f5126bb654d4b30ee6923d8,5f513836e96b0433f752330c,1,,,,,,runner,,,,,,0,9,9,42,1,5,2,,,,,,,,,,,,,,,,,,,,,,,,,,,,,,,,,,,,,,,,,,,,,,,,,,,,,,,,,,,,,,,,,,,,,,,,,,,,,,,,,,,,,,,,,,,,,,,,,,,
,,,,,,,,,,stimuli/images/PICTURE_314.png,SPEECH,5d0ca909a37d8b0018913ca4,09/12/1937,2020-09-03_19h41.16.401,proactive2,2020.1.2,Linux x86_64,60,5f5126bb654d4b30ee6923d8,5f513836e96b0433f752330c,1,,,,,,perfume,,,,,,0,10,10,35,1,4,2,,,,,,,,,,,,,,,,,,,,,,,,,,,,,,,,,,,,,,,,,,,,,,,,,,,,,,,,,,,,,,,,,,,,,,,,,,,,,,,,,,,,,,,,,,,,,,,,,,,
,,,,,,,,,,stimuli/images/PICTURE_403.png,FAMILY,5d0ca909a37d8b0018913ca4,09/12/1937,2020-09-03_19h41.16.401,proactive2,2020.1.2,Linux x86_64,60,5f5126bb654d4b30ee6923d8,5f513836e96b0433f752330c,1,,,,,,cathedral,,,,,,0,11,11,9,1,1,2,,,,,,,,,,,,,,,,,,,,,,,,,,,,,,,,,,,,,,,,,,,,,,,,,,,,,,,,,,,,,,,,,,,,,,,,,,,,,,,,,,,,,,,,,,,,,,,,,,,
,,,,,,,,,,stimuli/images/PICTURE_160.png,HOTEL,5d0ca909a37d8b0018913ca4,09/12/1937,2020-09-03_19h41.16.401,proactive2,2020.1.2,Linux x86_64,60,5f5126bb654d4b30ee6923d8,5f513836e96b0433f752330c,1,,,,,,wheelbarrow,,,,,,0,12,12,16,1,2,2,,,,,,,,,,,,,,,,,,,,,,,,,,,,,,,,,,,,,,,,,,,,,,,,,,,,,,,,,,,,,,,,,,,,,,,,,,,,,,,,,,,,,,,,,,,,,,,,,,,
,,,,,,,,,,stimuli/images/PICTURE_18.png,RIVER,5d0ca909a37d8b0018913ca4,09/12/1937,2020-09-03_19h41.16.401,proactive2,2020.1.2,Linux x86_64,60,5f5126bb654d4b30ee6923d8,5f513836e96b0433f752330c,1,,,,,,planet,,,,,,0,13,13,22,1,3,2,,,,,,,,,,,,,,,,,,,,,,,,,,,,,,,,,,,,,,,,,,,,,,,,,,,,,,,,,,,,,,,,,,,,,,,,,,,,,,,,,,,,,,,,,,,,,,,,,,,
,,,,,,,,,,stimuli/images/PICTURE_147.png,LEADER,5d0ca909a37d8b0018913ca4,09/12/1937,2020-09-03_19h41.16.401,proactive2,2020.1.2,Linux x86_64,60,5f5126bb654d4b30ee6923d8,5f513836e96b0433f752330c,1,,,,,,hanger,,,,,,0,14,14,33,1,4,2,,,,,,,,,,,,,,,,,,,,,,,,,,,,,,,,,,,,,,,,,,,,,,,,,,,,,,,,,,,,,,,,,,,,,,,,,,,,,,,,,,,,,,,,,,,,,,,,,,,
,,,,,,,,,,stimuli/images/PICTURE_311.png,FLESH,5d0ca909a37d8b0018913ca4,09/12/1937,2020-09-03_19h41.16.401,proactive2,2020.1.2,Linux x86_64,60,5f5126bb654d4b30ee6923d8,5f513836e96b0433f752330c,1,,,,,,razor,,,,,,0,15,15,3,1,1,2,,,,,,,,,,,,,,,,,,,,,,,,,,,,,,,,,,,,,,,,,,,,,,,,,,,,,,,,,,,,,,,,,,,,,,,,,,,,,,,,,,,,,,,,,,,,,,,,,,,
,,,,,,,,,,stimuli/images/PICTURE_296.png,CLOCK,5d0ca909a37d8b0018913ca4,09/12/1937,2020-09-03_19h41.16.401,proactive2,2020.1.2,Linux x86_64,60,5f5126bb654d4b30ee6923d8,5f513836e96b0433f752330c,1,,,,,,bolt,,,,,,0,16,16,18,1,2,2,,,,,,,,,,,,,,,,,,,,,,,,,,,,,,,,,,,,,,,,,,,,,,,,,,,,,,,,,,,,,,,,,,,,,,,,,,,,,,,,,,,,,,,,,,,,,,,,,,,
,,,,,,,,,,stimuli/images/PICTURE_509.png,SHOTS,5d0ca909a37d8b0018913ca4,09/12/1937,2020-09-03_19h41.16.401,proactive2,2020.1.2,Linux x86_64,60,5f5126bb654d4b30ee6923d8,5f513836e96b0433f752330c,1,,,,,,telephone,,,,,,0,17,17,7,1,1,2,,,,,,,,,,,,,,,,,,,,,,,,,,,,,,,,,,,,,,,,,,,,,,,,,,,,,,,,,,,,,,,,,,,,,,,,,,,,,,,,,,,,,,,,,,,,,,,,,,,
,,,,,,,,,,stimuli/images/PICTURE_692.png,DUDE,5d0ca909a37d8b0018913ca4,09/12/1937,2020-09-03_19h41.16.401,proactive2,2020.1.2,Linux x86_64,60,5f5126bb654d4b30ee6923d8,5f513836e96b0433f752330c,1,,,,,,cherry,,,,,,0,18,18,47,1,5,2,,,,,,,,,,,,,,,,,,,,,,,,,,,,,,,,,,,,,,,,,,,,,,,,,,,,,,,,,,,,,,,,,,,,,,,,,,,,,,,,,,,,,,,,,,,,,,,,,,,
,,,,,,,,,,stimuli/images/PICTURE_2.png,JUNGLE,5d0ca909a37d8b0018913ca4,09/12/1937,2020-09-03_19h41.16.401,proactive2,2020.1.2,Linux x86_64,60,5f5126bb654d4b30ee6923d8,5f513836e96b0433f752330c,1,,,,,,tyre,,,,,,0,19,19,1,1,1,2,,,,,,,,,,,,,,,,,,,,,,,,,,,,,,,,,,,,,,,,,,,,,,,,,,,,,,,,,,,,,,,,,,,,,,,,,,,,,,,,,,,,,,,,,,,,,,,,,,,
,,,,,,,,,,stimuli/images/PICTURE_356.png,CANDY,5d0ca909a37d8b0018913ca4,09/12/1937,2020-09-03_19h41.16.401,proactive2,2020.1.2,Linux x86_64,60,5f5126bb654d4b30ee6923d8,5f513836e96b0433f752330c,1,,,,,,pawn,,,,,,0,20,20,46,1,5,2,,,,,,,,,,,,,,,,,,,,,,,,,,,,,,,,,,,,,,,,,,,,,,,,,,,,,,,,,,,,,,,,,,,,,,,,,,,,,,,,,,,,,,,,,,,,,,,,,,,
,,,,,,,,,,stimuli/images/PICTURE_285.png,WRITER,5d0ca909a37d8b0018913ca4,09/12/1937,2020-09-03_19h41.16.401,proactive2,2020.1.2,Linux x86_64,60,5f5126bb654d4b30ee6923d8,5f513836e96b0433f752330c,1,,,,,,carrot,,,,,,0,21,21,6,1,1,2,,,,,,,,,,,,,,,,,,,,,,,,,,,,,,,,,,,,,,,,,,,,,,,,,,,,,,,,,,,,,,,,,,,,,,,,,,,,,,,,,,,,,,,,,,,,,,,,,,,
,,,,,,,,,,stimuli/images/PICTURE_453.png,FAMILY,5d0ca909a37d8b0018913ca4,09/12/1937,2020-09-03_19h41.16.401,proactive2,2020.1.2,Linux x86_64,60,5f5126bb654d4b30ee6923d8,5f513836e96b0433f752330c,1,,,,,,scissors,,,,,,0,22,22,48,1,5,2,,,,,,,,,,,,,,,,,,,,,,,,,,,,,,,,,,,,,,,,,,,,,,,,,,,,,,,,,,,,,,,,,,,,,,,,,,,,,,,,,,,,,,,,,,,,,,,,,,,
,,,,,,,,,,stimuli/images/PICTURE_470.png,BEAUTY,5d0ca909a37d8b0018913ca4,09/12/1937,2020-09-03_19h41.16.401,proactive2,2020.1.2,Linux x86_64,60,5f5126bb654d4b30ee6923d8,5f513836e96b0433f752330c,1,,,,,,motorbike,,,,,,0,23,23,26,1,3,2,,,,,,,,,,,,,,,,,,,,,,,,,,,,,,,,,,,,,,,,,,,,,,,,,,,,,,,,,,,,,,,,,,,,,,,,,,,,,,,,,,,,,,,,,,,,,,,,,,,
,,,,,,,,,,stimuli/images/PICTURE_452.png,COPS,5d0ca909a37d8b0018913ca4,09/12/1937,2020-09-03_19h41.16.401,proactive2,2020.1.2,Linux x86_64,60,5f5126bb654d4b30ee6923d8,5f513836e96b0433f752330c,1,,,,,,watch,,,,,,0,24,24,0,1,1,2,,,,,,,,,,,,,,,,,,,,,,,,,,,,,,,,,,,,,,,,,,,,,,,,,,,,,,,,,,,,,,,,,,,,,,,,,,,,,,,,,,,,,,,,,,,,,,,,,,,
,,,,,,,,,,stimuli/images/PICTURE_285.png,PRINCE,5d0ca909a37d8b0018913ca4,09/12/1937,2020-09-03_19h41.16.401,proactive2,2020.1.2,Linux x86_64,60,5f5126bb654d4b30ee6923d8,5f513836e96b0433f752330c,1,,,,,,carrot,,,,,,0,25,25,20,1,3,2,,,,,,,,,,,,,,,,,,,,,,,,,,,,,,,,,,,,,,,,,,,,,,,,,,,,,,,,,,,,,,,,,,,,,,,,,,,,,,,,,,,,,,,,,,,,,,,,,,,
,,,,,,,,,,stimuli/images/PICTURE_487.png,POLICY,5d0ca909a37d8b0018913ca4,09/12/1937,2020-09-03_19h41.16.401,proactive2,2020.1.2,Linux x86_64,60,5f5126bb654d4b30ee6923d8,5f513836e96b0433f752330c,1,,,,,,basket,,,,,,0,26,26,34,1,4,2,,,,,,,,,,,,,,,,,,,,,,,,,,,,,,,,,,,,,,,,,,,,,,,,,,,,,,,,,,,,,,,,,,,,,,,,,,,,,,,,,,,,,,,,,,,,,,,,,,,
,,,,,,,,,,stimuli/images/PICTURE_57.png,CASINO,5d0ca909a37d8b0018913ca4,09/12/1937,2020-09-03_19h41.16.401,proactive2,2020.1.2,Linux x86_64,60,5f5126bb654d4b30ee6923d8,5f513836e96b0433f752330c,1,,,,,,stamp,,,,,,0,27,27,12,1,2,2,,,,,,,,,,,,,,,,,,,,,,,,,,,,,,,,,,,,,,,,,,,,,,,,,,,,,,,,,,,,,,,,,,,,,,,,,,,,,,,,,,,,,,,,,,,,,,,,,,,
,,,,,,,,,,stimuli/images/PICTURE_487.png,ROOF,5d0ca909a37d8b0018913ca4,09/12/1937,2020-09-03_19h41.16.401,proactive2,2020.1.2,Linux x86_64,60,5f5126bb654d4b30ee6923d8,5f513836e96b0433f752330c,1,,,,,,basket,,,,,,0,28,28,50,1,6,2,,,,,,,,,,,,,,,,,,,,,,,,,,,,,,,,,,,,,,,,,,,,,,,,,,,,,,,,,,,,,,,,,,,,,,,,,,,,,,,,,,,,,,,,,,,,,,,,,,,
,,,,,,,,,,stimuli/images/PICTURE_327.png,LEADER,5d0ca909a37d8b0018913ca4,09/12/1937,2020-09-03_19h41.16.401,proactive2,2020.1.2,Linux x86_64,60,5f5126bb654d4b30ee6923d8,5f513836e96b0433f752330c,1,,,,,,helmet,,,,,,0,29,29,17,1,2,2,,,,,,,,,,,,,,,,,,,,,,,,,,,,,,,,,,,,,,,,,,,,,,,,,,,,,,,,,,,,,,,,,,,,,,,,,,,,,,,,,,,,,,,,,,,,,,,,,,,
,,,,,,,,,,stimuli/images/PICTURE_68.png,KIND,5d0ca909a37d8b0018913ca4,09/12/1937,2020-09-03_19h41.16.401,proactive2,2020.1.2,Linux x86_64,60,5f5126bb654d4b30ee6923d8,5f513836e96b0433f752330c,1,,,,,,candle,,,,,,0,30,30,23,1,3,2,,,,,,,,,,,,,,,,,,,,,,,,,,,,,,,,,,,,,,,,,,,,,,,,,,,,,,,,,,,,,,,,,,,,,,,,,,,,,,,,,,,,,,,,,,,,,,,,,,,
,,,,,,,,,,stimuli/images/PICTURE_215.png,LEADER,5d0ca909a37d8b0018913ca4,09/12/1937,2020-09-03_19h41.16.401,proactive2,2020.1.2,Linux x86_64,60,5f5126bb654d4b30ee6923d8,5f513836e96b0433f752330c,1,,,,,,boot,,,,,,0,31,31,43,1,5,2,,,,,,,,,,,,,,,,,,,,,,,,,,,,,,,,,,,,,,,,,,,,,,,,,,,,,,,,,,,,,,,,,,,,,,,,,,,,,,,,,,,,,,,,,,,,,,,,,,,
,,,,,,,,,,stimuli/images/PICTURE_405.png,JUNGLE,5d0ca909a37d8b0018913ca4,09/12/1937,2020-09-03_19h41.16.401,proactive2,2020.1.2,Linux x86_64,60,5f5126bb654d4b30ee6923d8,5f513836e96b0433f752330c,1,,,,,,anchor,,,,,,0,32,32,13,1,2,2,,,,,,,,,,,,,,,,,,,,,,,,,,,,,,,,,,,,,,,,,,,,,,,,,,,,,,,,,,,,,,,,,,,,,,,,,,,,,,,,,,,,,,,,,,,,,,,,,,,
,,,,,,,,,,stimuli/images/PICTURE_405.png,HOUSE,5d0ca909a37d8b0018913ca4,09/12/1937,2020-09-03_19h41.16.401,proactive2,2020.1.2,Linux x86_64,60,5f5126bb654d4b30ee6923d8,5f513836e96b0433f752330c,1,,,,,,anchor,,,,,,0,33,33,2,1,1,2,,,,,,,,,,,,,,,,,,,,,,,,,,,,,,,,,,,,,,,,,,,,,,,,,,,,,,,,,,,,,,,,,,,,,,,,,,,,,,,,,,,,,,,,,,,,,,,,,,,
,,,,,,,,,,stimuli/images/PICTURE_708.png,VALLEY,5d0ca909a37d8b0018913ca4,09/12/1937,2020-09-03_19h41.16.401,proactive2,2020.1.2,Linux x86_64,60,5f5126bb654d4b30ee6923d8,5f513836e96b0433f752330c,1,,,,,,monkey,,,,,,0,34,34,45,1,5,2,,,,,,,,,,,,,,,,,,,,,,,,,,,,,,,,,,,,,,,,,,,,,,,,,,,,,,,,,,,,,,,,,,,,,,,,,,,,,,,,,,,,,,,,,,,,,,,,,,,
,,,,,,,,,,stimuli/images/PICTURE_32.png,LETTER,5d0ca909a37d8b0018913ca4,09/12/1937,2020-09-03_19h41.16.401,proactive2,2020.1.2,Linux x86_64,60,5f5126bb654d4b30ee6923d8,5f513836e96b0433f752330c,1,,,,,,crown,,,,,,0,35,35,56,1,6,2,,,,,,,,,,,,,,,,,,,,,,,,,,,,,,,,,,,,,,,,,,,,,,,,,,,,,,,,,,,,,,,,,,,,,,,,,,,,,,,,,,,,,,,,,,,,,,,,,,,
,,,,,,,,,,stimuli/images/PICTURE_654.png,COPS,5d0ca909a37d8b0018913ca4,09/12/1937,2020-09-03_19h41.16.401,proactive2,2020.1.2,Linux x86_64,60,5f5126bb654d4b30ee6923d8,5f513836e96b0433f752330c,1,,,,,,pencil,,,,,,0,36,36,10,1,2,2,,,,,,,,,,,,,,,,,,,,,,,,,,,,,,,,,,,,,,,,,,,,,,,,,,,,,,,,,,,,,,,,,,,,,,,,,,,,,,,,,,,,,,,,,,,,,,,,,,,
,,,,,,,,,,stimuli/images/PICTURE_33.png,COPS,5d0ca909a37d8b0018913ca4,09/12/1937,2020-09-03_19h41.16.401,proactive2,2020.1.2,Linux x86_64,60,5f5126bb654d4b30ee6923d8,5f513836e96b0433f752330c,1,,,,,,frame,,,,,,0,37,37,29,1,3,2,,,,,,,,,,,,,,,,,,,,,,,,,,,,,,,,,,,,,,,,,,,,,,,,,,,,,,,,,,,,,,,,,,,,,,,,,,,,,,,,,,,,,,,,,,,,,,,,,,,
,,,,,,,,,,stimuli/images/PICTURE_208.png,SPIRIT,5d0ca909a37d8b0018913ca4,09/12/1937,2020-09-03_19h41.16.401,proactive2,2020.1.2,Linux x86_64,60,5f5126bb654d4b30ee6923d8,5f513836e96b0433f752330c,1,,,,,,microphone,,,,,,0,38,38,28,1,3,2,,,,,,,,,,,,,,,,,,,,,,,,,,,,,,,,,,,,,,,,,,,,,,,,,,,,,,,,,,,,,,,,,,,,,,,,,,,,,,,,,,,,,,,,,,,,,,,,,,,
,,,,,,,,,,stimuli/images/PICTURE_677.png,PHOTO,5d0ca909a37d8b0018913ca4,09/12/1937,2020-09-03_19h41.16.401,proactive2,2020.1.2,Linux x86_64,60,5f5126bb654d4b30ee6923d8,5f513836e96b0433f752330c,1,,,,,,map,,,,,,0,39,39,14,1,2,2,,,,,,,,,,,,,,,,,,,,,,,,,,,,,,,,,,,,,,,,,,,,,,,,,,,,,,,,,,,,,,,,,,,,,,,,,,,,,,,,,,,,,,,,,,,,,,,,,,,
,,,,,,,,,,stimuli/images/PICTURE_93.png,GIRL,5d0ca909a37d8b0018913ca4,09/12/1937,2020-09-03_19h41.16.401,proactive2,2020.1.2,Linux x86_64,60,5f5126bb654d4b30ee6923d8,5f513836e96b0433f752330c,1,,,,,,skateboard,,,,,,0,40,40,31,1,4,2,,,,,,,,,,,,,,,,,,,,,,,,,,,,,,,,,,,,,,,,,,,,,,,,,,,,,,,,,,,,,,,,,,,,,,,,,,,,,,,,,,,,,,,,,,,,,,,,,,,
,,,,,,,,,,stimuli/images/PICTURE_564.png,PLENTY,5d0ca909a37d8b0018913ca4,09/12/1937,2020-09-03_19h41.16.401,proactive2,2020.1.2,Linux x86_64,60,5f5126bb654d4b30ee6923d8,5f513836e96b0433f752330c,1,,,,,,spoon,,,,,,0,41,41,11,1,2,2,,,,,,,,,,,,,,,,,,,,,,,,,,,,,,,,,,,,,,,,,,,,,,,,,,,,,,,,,,,,,,,,,,,,,,,,,,,,,,,,,,,,,,,,,,,,,,,,,,,
,,,,,,,,,,stimuli/images/PICTURE_491.png,SERIES,5d0ca909a37d8b0018913ca4,09/12/1937,2020-09-03_19h41.16.401,proactive2,2020.1.2,Linux x86_64,60,5f5126bb654d4b30ee6923d8,5f513836e96b0433f752330c,1,,,,,,rug,,,,,,0,42,42,39,1,4,2,,,,,,,,,,,,,,,,,,,,,,,,,,,,,,,,,,,,,,,,,,,,,,,,,,,,,,,,,,,,,,,,,,,,,,,,,,,,,,,,,,,,,,,,,,,,,,,,,,,
,,,,,,,,,,stimuli/images/PICTURE_215.png,FOOD,5d0ca909a37d8b0018913ca4,09/12/1937,2020-09-03_19h41.16.401,proactive2,2020.1.2,Linux x86_64,60,5f5126bb654d4b30ee6923d8,5f513836e96b0433f752330c,1,,,,,,boot,,,,,,0,43,43,5,1,1,2,,,,,,,,,,,,,,,,,,,,,,,,,,,,,,,,,,,,,,,,,,,,,,,,,,,,,,,,,,,,,,,,,,,,,,,,,,,,,,,,,,,,,,,,,,,,,,,,,,,
,,,,,,,,,,stimuli/images/PICTURE_2.png,YARD,5d0ca909a37d8b0018913ca4,09/12/1937,2020-09-03_19h41.16.401,proactive2,2020.1.2,Linux x86_64,60,5f5126bb654d4b30ee6923d8,5f513836e96b0433f752330c,1,,,,,,tyre,,,,,,0,44,44,55,1,6,2,,,,,,,,,,,,,,,,,,,,,,,,,,,,,,,,,,,,,,,,,,,,,,,,,,,,,,,,,,,,,,,,,,,,,,,,,,,,,,,,,,,,,,,,,,,,,,,,,,,
,,,,,,,,,,stimuli/images/PICTURE_655.png,SALE,5d0ca909a37d8b0018913ca4,09/12/1937,2020-09-03_19h41.16.401,proactive2,2020.1.2,Linux x86_64,60,5f5126bb654d4b30ee6923d8,5f513836e96b0433f752330c,1,,,,,,megaphone,,,,,,0,45,45,57,1,6,2,,,,,,,,,,,,,,,,,,,,,,,,,,,,,,,,,,,,,,,,,,,,,,,,,,,,,,,,,,,,,,,,,,,,,,,,,,,,,,,,,,,,,,,,,,,,,,,,,,,
,,,,,,,,,,stimuli/images/PICTURE_297.png,BODY,5d0ca909a37d8b0018913ca4,09/12/1937,2020-09-03_19h41.16.401,proactive2,2020.1.2,Linux x86_64,60,5f5126bb654d4b30ee6923d8,5f513836e96b0433f752330c,1,,,,,,aeroplane,,,,,,0,46,46,51,1,6,2,,,,,,,,,,,,,,,,,,,,,,,,,,,,,,,,,,,,,,,,,,,,,,,,,,,,,,,,,,,,,,,,,,,,,,,,,,,,,,,,,,,,,,,,,,,,,,,,,,,
,,,,,,,,,,stimuli/images/PICTURE_2.png,AREA,5d0ca909a37d8b0018913ca4,09/12/1937,2020-09-03_19h41.16.401,proactive2,2020.1.2,Linux x86_64,60,5f5126bb654d4b30ee6923d8,5f513836e96b0433f752330c,1,,,,,,tyre,,,,,,0,47,47,32,1,4,2,,,,,,,,,,,,,,,,,,,,,,,,,,,,,,,,,,,,,,,,,,,,,,,,,,,,,,,,,,,,,,,,,,,,,,,,,,,,,,,,,,,,,,,,,,,,,,,,,,,
,,,,,,,,,,stimuli/images/PICTURE_677.png,FAMILY,5d0ca909a37d8b0018913ca4,09/12/1937,2020-09-03_19h41.16.401,proactive2,2020.1.2,Linux x86_64,60,5f5126bb654d4b30ee6923d8,5f513836e96b0433f752330c,1,,,,,,map,,,,,,0,48,48,53,1,6,2,,,,,,,,,,,,,,,,,,,,,,,,,,,,,,,,,,,,,,,,,,,,,,,,,,,,,,,,,,,,,,,,,,,,,,,,,,,,,,,,,,,,,,,,,,,,,,,,,,,
,,,,,,,,,,stimuli/images/PICTURE_509.png,MILLER,5d0ca909a37d8b0018913ca4,09/12/1937,2020-09-03_19h41.16.401,proactive2,2020.1.2,Linux x86_64,60,5f5126bb654d4b30ee6923d8,5f513836e96b0433f752330c,1,,,,,,telephone,,,,,,0,49,49,49,1,5,2,,,,,,,,,,,,,,,,,,,,,,,,,,,,,,,,,,,,,,,,,,,,,,,,,,,,,,,,,,,,,,,,,,,,,,,,,,,,,,,,,,,,,,,,,,,,,,,,,,,
,,,,,,,,,,stimuli/images/PICTURE_123.png,SALE,5d0ca909a37d8b0018913ca4,09/12/1937,2020-09-03_19h41.16.401,proactive2,2020.1.2,Linux x86_64,60,5f5126bb654d4b30ee6923d8,5f513836e96b0433f752330c,1,,,,,,dart,,,,,,0,50,50,8,1,1,2,,,,,,,,,,,,,,,,,,,,,,,,,,,,,,,,,,,,,,,,,,,,,,,,,,,,,,,,,,,,,,,,,,,,,,,,,,,,,,,,,,,,,,,,,,,,,,,,,,,
,,,,,,,,,,stimuli/images/PICTURE_95.png,NIGHT,5d0ca909a37d8b0018913ca4,09/12/1937,2020-09-03_19h41.16.401,proactive2,2020.1.2,Linux x86_64,60,5f5126bb654d4b30ee6923d8,5f513836e96b0433f752330c,1,,,,,,suitcase,,,,,,0,51,51,37,1,4,2,,,,,,,,,,,,,,,,,,,,,,,,,,,,,,,,,,,,,,,,,,,,,,,,,,,,,,,,,,,,,,,,,,,,,,,,,,,,,,,,,,,,,,,,,,,,,,,,,,,
,,,,,,,,,,stimuli/images/PICTURE_504.png,HOUSE,5d0ca909a37d8b0018913ca4,09/12/1937,2020-09-03_19h41.16.401,proactive2,2020.1.2,Linux x86_64,60,5f5126bb654d4b30ee6923d8,5f513836e96b0433f752330c,1,,,,,,wheel,,,,,,0,52,52,36,1,4,2,,,,,,,,,,,,,,,,,,,,,,,,,,,,,,,,,,,,,,,,,,,,,,,,,,,,,,,,,,,,,,,,,,,,,,,,,,,,,,,,,,,,,,,,,,,,,,,,,,,
,,,,,,,,,,stimuli/images/PICTURE_667.png,GLASS,5d0ca909a37d8b0018913ca4,09/12/1937,2020-09-03_19h41.16.401,proactive2,2020.1.2,Linux x86_64,60,5f5126bb654d4b30ee6923d8,5f513836e96b0433f752330c,1,,,,,,daisy,,,,,,0,53,53,27,1,3,2,,,,,,,,,,,,,,,,,,,,,,,,,,,,,,,,,,,,,,,,,,,,,,,,,,,,,,,,,,,,,,,,,,,,,,,,,,,,,,,,,,,,,,,,,,,,,,,,,,,
,,,,,,,,,,stimuli/images/PICTURE_750.png,POLICY,5d0ca909a37d8b0018913ca4,09/12/1937,2020-09-03_19h41.16.401,proactive2,2020.1.2,Linux x86_64,60,5f5126bb654d4b30ee6923d8,5f513836e96b0433f752330c,1,,,,,,kettle,,,,,,0,54,54,44,1,5,2,,,,,,,,,,,,,,,,,,,,,,,,,,,,,,,,,,,,,,,,,,,,,,,,,,,,,,,,,,,,,,,,,,,,,,,,,,,,,,,,,,,,,,,,,,,,,,,,,,,
,,,,,,,,,,stimuli/images/PICTURE_141.png,CLIENT,5d0ca909a37d8b0018913ca4,09/12/1937,2020-09-03_19h41.16.401,proactive2,2020.1.2,Linux x86_64,60,5f5126bb654d4b30ee6923d8,5f513836e96b0433f752330c,1,,,,,,sunflower,,,,,,0,55,55,30,1,4,2,,,,,,,,,,,,,,,,,,,,,,,,,,,,,,,,,,,,,,,,,,,,,,,,,,,,,,,,,,,,,,,,,,,,,,,,,,,,,,,,,,,,,,,,,,,,,,,,,,,
,,,,,,,,,,stimuli/images/PICTURE_509.png,BATH,5d0ca909a37d8b0018913ca4,09/12/1937,2020-09-03_19h41.16.401,proactive2,2020.1.2,Linux x86_64,60,5f5126bb654d4b30ee6923d8,5f513836e96b0433f752330c,1,,,,,,telephone,,,,,,0,56,56,15,1,2,2,,,,,,,,,,,,,,,,,,,,,,,,,,,,,,,,,,,,,,,,,,,,,,,,,,,,,,,,,,,,,,,,,,,,,,,,,,,,,,,,,,,,,,,,,,,,,,,,,,,
,,,,,,,,,,stimuli/images/PICTURE_470.png,MOMENT,5d0ca909a37d8b0018913ca4,09/12/1937,2020-09-03_19h41.16.401,proactive2,2020.1.2,Linux x86_64,60,5f5126bb654d4b30ee6923d8,5f513836e96b0433f752330c,1,,,,,,motorbike,,,,,,0,57,57,40,1,5,2,,,,,,,,,,,,,,,,,,,,,,,,,,,,,,,,,,,,,,,,,,,,,,,,,,,,,,,,,,,,,,,,,,,,,,,,,,,,,,,,,,,,,,,,,,,,,,,,,,,
,,,,,,,,,,stimuli/images/PICTURE_405.png,JUNGLE,5d0ca909a37d8b0018913ca4,09/12/1937,2020-09-03_19h41.16.401,proactive2,2020.1.2,Linux x86_64,60,5f5126bb654d4b30ee6923d8,5f513836e96b0433f752330c,1,,,,,,anchor,,,,,,0,58,58,58,1,6,2,,,,,,,,,,,,,,,,,,,,,,,,,,,,,,,,,,,,,,,,,,,,,,,,,,,,,,,,,,,,,,,,,,,,,,,,,,,,,,,,,,,,,,,,,,,,,,,,,,,
,,?,0.00113,0,,,,,,stimuli/images/PICTURE_255.png,PENNY,5d0ca909a37d8b0018913ca4,09/12/1937,2020-09-03_19h41.16.401,proactive2,2020.1.2,Linux x86_64,60,5f5126bb654d4b30ee6923d8,5f513836e96b0433f752330c,1,,,,,,shovel,,,,,,,,,,,2,2,0,0,0,19,1,,,,,,,,,,,,,,,,,,,,,,,,,,,,,,,,,,,,,,,,,,,,,,,,,,,,,,,,,,,,,,,,,,,,,,,,,,,,,,,,,,,,,,,,,,,,,,
,,?,0.000835,0,,,,,,stimuli/images/PICTURE_654.png,YEAR,5d0ca909a37d8b0018913ca4,09/12/1937,2020-09-03_19h41.16.401,proactive2,2020.1.2,Linux x86_64,60,5f5126bb654d4b30ee6923d8,5f513836e96b0433f752330c,1,,,,,,pencil,,,,,,,,,,,5,2,0,1,1,41,1,,,,,,,,,,,,,,,,,,,,,,,,,,,,,,,,,,,,,,,,,,,,,,,,,,,,,,,,,,,,,,,,,,,,,,,,,,,,,,,,,,,,,,,,,,,,,,
,,?,0.00083,0,,,,,,stimuli/images/PICTURE_677.png,PHOTO,5d0ca909a37d8b0018913ca4,09/12/1937,2020-09-03_19h41.16.401,proactive2,2020.1.2,Linux x86_64,60,5f5126bb654d4b30ee6923d8,5f513836e96b0433f752330c,1,,,,,,map,,,,,,,,,,,2,2,0,2,2,14,1,,,,,,,,,,,,,,,,,,,,,,,,,,,,,,,,,,,,,,,,,,,,,,,,,,,,,,,,,,,,,,,,,,,,,,,,,,,,,,,,,,,,,,,,,,,,,,
,,?,0.00086,0,,,,,,stimuli/images/PICTURE_2.png,AREA,5d0ca909a37d8b0018913ca4,09/12/1937,2020-09-03_19h41.16.401,proactive2,2020.1.2,Linux x86_64,60,5f5126bb654d4b30ee6923d8,5f513836e96b0433f752330c,1,,,,,,tyre,,,,,,,,,,,4,2,0,3,3,32,1,,,,,,,,,,,,,,,,,,,,,,,,,,,,,,,,,,,,,,,,,,,,,,,,,,,,,,,,,,,,,,,,,,,,,,,,,,,,,,,,,,,,,,,,,,,,,,
,,?,0.000825,0,,,,,,stimuli/images/PICTURE_68.png,KIND,5d0ca909a37d8b0018913ca4,09/12/1937,2020-09-03_19h41.16.401,proactive2,2020.1.2,Linux x86_64,60,5f5126bb654d4b30ee6923d8,5f513836e96b0433f752330c,1,,,,,,candle,,,,,,,,,,,3,2,0,4,4,23,1,,,,,,,,,,,,,,,,,,,,,,,,,,,,,,,,,,,,,,,,,,,,,,,,,,,,,,,,,,,,,,,,,,,,,,,,,,,,,,,,,,,,,,,,,,,,,,
,,?,0.000655,0,,,,,,stimuli/images/PICTURE_314.png,SPEECH,5d0ca909a37d8b0018913ca4,09/12/1937,2020-09-03_19h41.16.401,proactive2,2020.1.2,Linux x86_64,60,5f5126bb654d4b30ee6923d8,5f513836e96b0433f752330c,1,,,,,,perfume,,,,,,,,,,,4,2,0,5,5,35,1,,,,,,,,,,,,,,,,,,,,,,,,,,,,,,,,,,,,,,,,,,,,,,,,,,,,,,,,,,,,,,,,,,,,,,,,,,,,,,,,,,,,,,,,,,,,,,
,,?,0.000695,0,,,,,,stimuli/images/PICTURE_95.png,NIGHT,5d0ca909a37d8b0018913ca4,09/12/1937,2020-09-03_19h41.16.401,proactive2,2020.1.2,Linux x86_64,60,5f5126bb654d4b30ee6923d8,5f513836e96b0433f752330c,1,,,,,,suitcase,,,,,,,,,,,4,2,0,6,6,37,1,,,,,,,,,,,,,,,,,,,,,,,,,,,,,,,,,,,,,,,,,,,,,,,,,,,,,,,,,,,,,,,,,,,,,,,,,,,,,,,,,,,,,,,,,,,,,,
,,?,0.00076,0,,,,,,stimuli/images/PICTURE_509.png,BATH,5d0ca909a37d8b0018913ca4,09/12/1937,2020-09-03_19h41.16.401,proactive2,2020.1.2,Linux x86_64,60,5f5126bb654d4b30ee6923d8,5f513836e96b0433f752330c,1,,,,,,telephone,,,,,,,,,,,2,2,0,7,7,15,1,,,,,,,,,,,,,,,,,,,,,,,,,,,,,,,,,,,,,,,,,,,,,,,,,,,,,,,,,,,,,,,,,,,,,,,,,,,,,,,,,,,,,,,,,,,,,,
,,?,0.000785,0,,,,,,stimuli/images/PICTURE_708.png,VALLEY,5d0ca909a37d8b0018913ca4,09/12/1937,2020-09-03_19h41.16.401,proactive2,2020.1.2,Linux x86_64,60,5f5126bb654d4b30ee6923d8,5f513836e96b0433f752330c,1,,,,,,monkey,,,,,,,,,,,5,2,0,8,8,45,1,,,,,,,,,,,,,,,,,,,,,,,,,,,,,,,,,,,,,,,,,,,,,,,,,,,,,,,,,,,,,,,,,,,,,,,,,,,,,,,,,,,,,,,,,,,,,,
,,?,0.000745,0,,,,,,stimuli/images/PICTURE_33.png,COPS,5d0ca909a37d8b0018913ca4,09/12/1937,2020-09-03_19h41.16.401,proactive2,2020.1.2,Linux x86_64,60,5f5126bb654d4b30ee6923d8,5f513836e96b0433f752330c,1,,,,,,frame,,,,,,,,,,,3,2,0,9,9,29,1,,,,,,,,,,,,,,,,,,,,,,,,,,,,,,,,,,,,,,,,,,,,,,,,,,,,,,,,,,,,,,,,,,,,,,,,,,,,,,,,,,,,,,,,,,,,,,
,,?,0.0027,0,,,,,,stimuli/images/PICTURE_32.png,LETTER,5d0ca909a37d8b0018913ca4,09/12/1937,2020-09-03_19h41.16.401,proactive2,2020.1.2,Linux x86_64,60,5f5126bb654d4b30ee6923d8,5f513836e96b0433f752330c,1,,,,,,crown,,,,,,,,,,,6,2,0,10,10,56,1,,,,,,,,,,,,,,,,,,,,,,,,,,,,,,,,,,,,,,,,,,,,,,,,,,,,,,,,,,,,,,,,,,,,,,,,,,,,,,,,,,,,,,,,,,,,,,
,,?,0.00072,0,,,,,,stimuli/images/PICTURE_141.png,CLIENT,5d0ca909a37d8b0018913ca4,09/12/1937,2020-09-03_19h41.16.401,proactive2,2020.1.2,Linux x86_64,60,5f5126bb654d4b30ee6923d8,5f513836e96b0433f752330c,1,,,,,,sunflower,,,,,,,,,,,4,2,0,11,11,30,1,,,,,,,,,,,,,,,,,,,,,,,,,,,,,,,,,,,,,,,,,,,,,,,,,,,,,,,,,,,,,,,,,,,,,,,,,,,,,,,,,,,,,,,,,,,,,,
,,?,0.000685,0,,,,,,stimuli/images/PICTURE_57.png,CANDY,5d0ca909a37d8b0018913ca4,09/12/1937,2020-09-03_19h41.16.401,proactive2,2020.1.2,Linux x86_64,60,5f5126bb654d4b30ee6923d8,5f513836e96b0433f752330c,1,,,,,,stamp,,,,,,,,,,,6,2,0,12,12,52,1,,,,,,,,,,,,,,,,,,,,,,,,,,,,,,,,,,,,,,,,,,,,,,,,,,,,,,,,,,,,,,,,,,,,,,,,,,,,,,,,,,,,,,,,,,,,,,
,,?,0.000755,0,,,,,,stimuli/images/PICTURE_654.png,COPS,5d0ca909a37d8b0018913ca4,09/12/1937,2020-09-03_19h41.16.401,proactive2,2020.1.2,Linux x86_64,60,5f5126bb654d4b30ee6923d8,5f513836e96b0433f752330c,1,,,,,,pencil,,,,,,,,,,,2,2,0,13,13,10,1,,,,,,,,,,,,,,,,,,,,,,,,,,,,,,,,,,,,,,,,,,,,,,,,,,,,,,,,,,,,,,,,,,,,,,,,,,,,,,,,,,,,,,,,,,,,,,
,,?,0.00071,0,,,,,,stimuli/images/PICTURE_692.png,DUDE,5d0ca909a37d8b0018913ca4,09/12/1937,2020-09-03_19h41.16.401,proactive2,2020.1.2,Linux x86_64,60,5f5126bb654d4b30ee6923d8,5f513836e96b0433f752330c,1,,,,,,cherry,,,,,,,,,,,5,2,0,14,14,47,1,,,,,,,,,,,,,,,,,,,,,,,,,,,,,,,,,,,,,,,,,,,,,,,,,,,,,,,,,,,,,,,,,,,,,,,,,,,,,,,,,,,,,,,,,,,,,,
,,?,0.00076,0,,,,,,stimuli/images/PICTURE_688.png,CLOCK,5d0ca909a37d8b0018913ca4,09/12/1937,2020-09-03_19h41.16.401,proactive2,2020.1.2,Linux x86_64,60,5f5126bb654d4b30ee6923d8,5f513836e96b0433f752330c,1,,,,,,runner,,,,,,,,,,,5,2,0,15,15,42,1,,,,,,,,,,,,,,,,,,,,,,,,,,,,,,,,,,,,,,,,,,,,,,,,,,,,,,,,,,,,,,,,,,,,,,,,,,,,,,,,,,,,,,,,,,,,,,
,,?,0.00068,0,,,,,,stimuli/images/PICTURE_487.png,POLICY,5d0ca909a37d8b0018913ca4,09/12/1937,2020-09-03_19h41.16.401,proactive2,2020.1.2,Linux x86_64,60,5f5126bb654d4b30ee6923d8,5f513836e96b0433f752330c,1,,,,,,basket,,,,,,,,,,,4,2,0,16,16,34,1,,,,,,,,,,,,,,,,,,,,,,,,,,,,,,,,,,,,,,,,,,,,,,,,,,,,,,,,,,,,,,,,,,,,,,,,,,,,,,,,,,,,,,,,,,,,,,
,,HOUAW,14.891635,0,,,,,,stimuli/images/PICTURE_509.png,SHOTS,5d0ca909a37d8b0018913ca4,09/12/1937,2020-09-03_19h41.16.401,proactive2,2020.1.2,Linux x86_64,60,5f5126bb654d4b30ee6923d8,5f513836e96b0433f752330c,1,,,,,,telephone,,,,,,,,,,,1,2,0,17,17,7,1,,,,,,,,,,,,,,,,,,,,,,,,,,,,,,,,,,,,,,,,,,,,,,,,,,,,,,,,,,,,,,,,,,,,,,,,,,,,,,,,,,,,,,,,,,,,,,
,,?,0.001075,0,,,,,,stimuli/images/PICTURE_57.png,CASINO,5d0ca909a37d8b0018913ca4,09/12/1937,2020-09-03_19h41.16.401,proactive2,2020.1.2,Linux x86_64,60,5f5126bb654d4b30ee6923d8,5f513836e96b0433f752330c,1,,,,,,stamp,,,,,,,,,,,2,2,0,18,18,12,1,,,,,,,,,,,,,,,,,,,,,,,,,,,,,,,,,,,,,,,,,,,,,,,,,,,,,,,,,,,,,,,,,,,,,,,,,,,,,,,,,,,,,,,,,,,,,,
,,FLESH,8.53415,1,,,,,,stimuli/images/PICTURE_311.png,FLESH,5d0ca909a37d8b0018913ca4,09/12/1937,2020-09-03_19h41.16.401,proactive2,2020.1.2,Linux x86_64,60,5f5126bb654d4b30ee6923d8,5f513836e96b0433f752330c,1,,,,,,razor,,,,,,,,,,,1,2,0,19,19,3,1,,,,,,,,,,,,,,,,,,,,,,,,,,,,,,,,,,,,,,,,,,,,,,,,,,,,,,,,,,,,,,,,,,,,,,,,,,,,,,,,,,,,,,,,,,,,,,
,,SHOTS,6.39406,0,,,,,,stimuli/images/PICTURE_123.png,SALE,5d0ca909a37d8b0018913ca4,09/12/1937,2020-09-03_19h41.16.401,proactive2,2020.1.2,Linux x86_64,60,5f5126bb654d4b30ee6923d8,5f513836e96b0433f752330c,1,,,,,,dart,,,,,,,,,,,1,2,0,20,20,8,1,,,,,,,,,,,,,,,,,,,,,,,,,,,,,,,,,,,,,,,,,,,,,,,,,,,,,,,,,,,,,,,,,,,,,,,,,,,,,,,,,,,,,,,,,,,,,,
,,JUNGLE,10.465475,1,,,,,,stimuli/images/PICTURE_2.png,JUNGLE,5d0ca909a37d8b0018913ca4,09/12/1937,2020-09-03_19h41.16.401,proactive2,2020.1.2,Linux x86_64,60,5f5126bb654d4b30ee6923d8,5f513836e96b0433f752330c,1,,,,,,tyre,,,,,,,,,,,1,2,0,21,21,1,1,,,,,,,,,,,,,,,,,,,,,,,,,,,,,,,,,,,,,,,,,,,,,,,,,,,,,,,,,,,,,,,,,,,,,,,,,,,,,,,,,,,,,,,,,,,,,,
,,?,0.00139,0,,,,,,stimuli/images/PICTURE_470.png,MOMENT,5d0ca909a37d8b0018913ca4,09/12/1937,2020-09-03_19h41.16.401,proactive2,2020.1.2,Linux x86_64,60,5f5126bb654d4b30ee6923d8,5f513836e96b0433f752330c,1,,,,,,motorbike,,,,,,,,,,,5,2,0,22,22,40,1,,,,,,,,,,,,,,,,,,,,,,,,,,,,,,,,,,,,,,,,,,,,,,,,,,,,,,,,,,,,,,,,,,,,,,,,,,,,,,,,,,,,,,,,,,,,,,
,,?,0.001075,0,,,,,,stimuli/images/PICTURE_655.png,SALE,5d0ca909a37d8b0018913ca4,09/12/1937,2020-09-03_19h41.16.401,proactive2,2020.1.2,Linux x86_64,60,5f5126bb654d4b30ee6923d8,5f513836e96b0433f752330c,1,,,,,,megaphone,,,,,,,,,,,6,2,0,23,23,57,1,,,,,,,,,,,,,,,,,,,,,,,,,,,,,,,,,,,,,,,,,,,,,,,,,,,,,,,,,,,,,,,,,,,,,,,,,,,,,,,,,,,,,,,,,,,,,,
,,?,0.000725,0,,,,,,stimuli/images/PICTURE_487.png,ROOF,5d0ca909a37d8b0018913ca4,09/12/1937,2020-09-03_19h41.16.401,proactive2,2020.1.2,Linux x86_64,60,5f5126bb654d4b30ee6923d8,5f513836e96b0433f752330c,1,,,,,,basket,,,,,,,,,,,6,2,0,24,24,50,1,,,,,,,,,,,,,,,,,,,,,,,,,,,,,,,,,,,,,,,,,,,,,,,,,,,,,,,,,,,,,,,,,,,,,,,,,,,,,,,,,,,,,,,,,,,,,,
,,?,0.00072,0,,,,,,stimuli/images/PICTURE_509.png,APPLE,5d0ca909a37d8b0018913ca4,09/12/1937,2020-09-03_19h41.16.401,proactive2,2020.1.2,Linux x86_64,60,5f5126bb654d4b30ee6923d8,5f513836e96b0433f752330c,1,,,,,,telephone,,,,,,,,,,,4,2,0,25,25,38,1,,,,,,,,,,,,,,,,,,,,,,,,,,,,,,,,,,,,,,,,,,,,,,,,,,,,,,,,,,,,,,,,,,,,,,,,,,,,,,,,,,,,,,,,,,,,,,
,,?,0.000765,0,,,,,,stimuli/images/PICTURE_296.png,CLOCK,5d0ca909a37d8b0018913ca4,09/12/1937,2020-09-03_19h41.16.401,proactive2,2020.1.2,Linux x86_64,60,5f5126bb654d4b30ee6923d8,5f513836e96b0433f752330c,1,,,,,,bolt,,,,,,,,,,,2,2,0,26,26,18,1,,,,,,,,,,,,,,,,,,,,,,,,,,,,,,,,,,,,,,,,,,,,,,,,,,,,,,,,,,,,,,,,,,,,,,,,,,,,,,,,,,,,,,,,,,,,,,
,,?,0.00071,0,,,,,,stimuli/images/PICTURE_327.png,LEADER,5d0ca909a37d8b0018913ca4,09/12/1937,2020-09-03_19h41.16.401,proactive2,2020.1.2,Linux x86_64,60,5f5126bb654d4b30ee6923d8,5f513836e96b0433f752330c,1,,,,,,helmet,,,,,,,,,,,2,2,0,27,27,17,1,,,,,,,,,,,,,,,,,,,,,,,,,,,,,,,,,,,,,,,,,,,,,,,,,,,,,,,,,,,,,,,,,,,,,,,,,,,,,,,,,,,,,,,,,,,,,,
,,?,0.000665,0,,,,,,stimuli/images/PICTURE_18.png,RIVER,5d0ca909a37d8b0018913ca4,09/12/1937,2020-09-03_19h41.16.401,proactive2,2020.1.2,Linux x86_64,60,5f5126bb654d4b30ee6923d8,5f513836e96b0433f752330c,1,,,,,,planet,,,,,,,,,,,3,2,0,28,28,22,1,,,,,,,,,,,,,,,,,,,,,,,,,,,,,,,,,,,,,,,,,,,,,,,,,,,,,,,,,,,,,,,,,,,,,,,,,,,,,,,,,,,,,,,,,,,,,,
,,?,0.000975,0,,,,,,stimuli/images/PICTURE_215.png,BOYS,5d0ca909a37d8b0018913ca4,09/12/1937,2020-09-03_19h41.16.401,proactive2,2020.1.2,Linux x86_64,60,5f5126bb654d4b30ee6923d8,5f513836e96b0433f752330c,1,,,,,,boot,,,,,,,,,,,3,2,0,29,29,24,1,,,,,,,,,,,,,,,,,,,,,,,,,,,,,,,,,,,,,,,,,,,,,,,,,,,,,,,,,,,,,,,,,,,,,,,,,,,,,,,,,,,,,,,,,,,,,,
,,?,0.00077,0,,,,,,stimuli/images/PICTURE_285.png,PRINCE,5d0ca909a37d8b0018913ca4,09/12/1937,2020-09-03_19h41.16.401,proactive2,2020.1.2,Linux x86_64,60,5f5126bb654d4b30ee6923d8,5f513836e96b0433f752330c,1,,,,,,carrot,,,,,,,,,,,3,2,0,30,30,20,1,,,,,,,,,,,,,,,,,,,,,,,,,,,,,,,,,,,,,,,,,,,,,,,,,,,,,,,,,,,,,,,,,,,,,,,,,,,,,,,,,,,,,,,,,,,,,,
,,?,0.001545,0,,,,,,stimuli/images/PICTURE_93.png,GIRL,5d0ca909a37d8b0018913ca4,09/12/1937,2020-09-03_19h41.16.401,proactive2,2020.1.2,Linux x86_64,60,5f5126bb654d4b30ee6923d8,5f513836e96b0433f752330c,1,,,,,,skateboard,,,,,,,,,,,4,2,0,31,31,31,1,,,,,,,,,,,,,,,,,,,,,,,,,,,,,,,,,,,,,,,,,,,,,,,,,,,,,,,,,,,,,,,,,,,,,,,,,,,,,,,,,,,,,,,,,,,,,,
,,WRITER,5.112915,1,,,,,,stimuli/images/PICTURE_285.png,WRITER,5d0ca909a37d8b0018913ca4,09/12/1937,2020-09-03_19h41.16.401,proactive2,2020.1.2,Linux x86_64,60,5f5126bb654d4b30ee6923d8,5f513836e96b0433f752330c,1,,,,,,carrot,,,,,,,,,,,1,2,0,32,32,6,1,,,,,,,,,,,,,,,,,,,,,,,,,,,,,,,,,,,,,,,,,,,,,,,,,,,,,,,,,,,,,,,,,,,,,,,,,,,,,,,,,,,,,,,,,,,,,,
,,COPS,6.773605,1,,,,,,stimuli/images/PICTURE_452.png,COPS,5d0ca909a37d8b0018913ca4,09/12/1937,2020-09-03_19h41.16.401,proactive2,2020.1.2,Linux x86_64,60,5f5126bb654d4b30ee6923d8,5f513836e96b0433f752330c,1,,,,,,watch,,,,,,,,,,,1,2,0,33,33,0,1,,,,,,,,,,,,,,,,,,,,,,,,,,,,,,,,,,,,,,,,,,,,,,,,,,,,,,,,,,,,,,,,,,,,,,,,,,,,,,,,,,,,,,,,,,,,,,
,,?,0.00463,0,,,,,,stimuli/images/PICTURE_750.png,POLICY,5d0ca909a37d8b0018913ca4,09/12/1937,2020-09-03_19h41.16.401,proactive2,2020.1.2,Linux x86_64,60,5f5126bb654d4b30ee6923d8,5f513836e96b0433f752330c,1,,,,,,kettle,,,,,,,,,,,5,2,0,34,34,44,1,,,,,,,,,,,,,,,,,,,,,,,,,,,,,,,,,,,,,,,,,,,,,,,,,,,,,,,,,,,,,,,,,,,,,,,,,,,,,,,,,,,,,,,,,,,,,,
,,?,0.000785,0,,,,,,stimuli/images/PICTURE_177.png,HOUSE,5d0ca909a37d8b0018913ca4,09/12/1937,2020-09-03_19h41.16.401,proactive2,2020.1.2,Linux x86_64,60,5f5126bb654d4b30ee6923d8,5f513836e96b0433f752330c,1,,,,,,mushroom,,,,,,,,,,,3,2,0,35,35,25,1,,,,,,,,,,,,,,,,,,,,,,,,,,,,,,,,,,,,,,,,,,,,,,,,,,,,,,,,,,,,,,,,,,,,,,,,,,,,,,,,,,,,,,,,,,,,,,
,,?,0.00071,0,,,,,,stimuli/images/PICTURE_509.png,MILLER,5d0ca909a37d8b0018913ca4,09/12/1937,2020-09-03_19h41.16.401,proactive2,2020.1.2,Linux x86_64,60,5f5126bb654d4b30ee6923d8,5f513836e96b0433f752330c,1,,,,,,telephone,,,,,,,,,,,5,2,0,36,36,49,1,,,,,,,,,,,,,,,,,,,,,,,,,,,,,,,,,,,,,,,,,,,,,,,,,,,,,,,,,,,,,,,,,,,,,,,,,,,,,,,,,,,,,,,,,,,,,,
,,?,0.00063,0,,,,,,stimuli/images/PICTURE_491.png,SERIES,5d0ca909a37d8b0018913ca4,09/12/1937,2020-09-03_19h41.16.401,proactive2,2020.1.2,Linux x86_64,60,5f5126bb654d4b30ee6923d8,5f513836e96b0433f752330c,1,,,,,,rug,,,,,,,,,,,4,2,0,37,37,39,1,,,,,,,,,,,,,,,,,,,,,,,,,,,,,,,,,,,,,,,,,,,,,,,,,,,,,,,,,,,,,,,,,,,,,,,,,,,,,,,,,,,,,,,,,,,,,,
,,KILLER,9.291365,0,,,,,,stimuli/images/PICTURE_348.png,TOILET,5d0ca909a37d8b0018913ca4,09/12/1937,2020-09-03_19h41.16.401,proactive2,2020.1.2,Linux x86_64,60,5f5126bb654d4b30ee6923d8,5f513836e96b0433f752330c,1,,,,,,pepper,,,,,,,,,,,1,2,0,38,38,4,1,,,,,,,,,,,,,,,,,,,,,,,,,,,,,,,,,,,,,,,,,,,,,,,,,,,,,,,,,,,,,,,,,,,,,,,,,,,,,,,,,,,,,,,,,,,,,,
,,?,0.00097,0,,,,,,stimuli/images/PICTURE_147.png,LEADER,5d0ca909a37d8b0018913ca4,09/12/1937,2020-09-03_19h41.16.401,proactive2,2020.1.2,Linux x86_64,60,5f5126bb654d4b30ee6923d8,5f513836e96b0433f752330c,1,,,,,,hanger,,,,,,,,,,,4,2,0,39,39,33,1,,,,,,,,,,,,,,,,,,,,,,,,,,,,,,,,,,,,,,,,,,,,,,,,,,,,,,,,,,,,,,,,,,,,,,,,,,,,,,,,,,,,,,,,,,,,,,
,,?,0.000715,0,,,,,,stimuli/images/PICTURE_667.png,GLASS,5d0ca909a37d8b0018913ca4,09/12/1937,2020-09-03_19h41.16.401,proactive2,2020.1.2,Linux x86_64,60,5f5126bb654d4b30ee6923d8,5f513836e96b0433f752330c,1,,,,,,daisy,,,,,,,,,,,3,2,0,40,40,27,1,,,,,,,,,,,,,,,,,,,,,,,,,,,,,,,,,,,,,,,,,,,,,,,,,,,,,,,,,,,,,,,,,,,,,,,,,,,,,,,,,,,,,,,,,,,,,,
,,?,0.000665,0,,,,,,stimuli/images/PICTURE_453.png,FAMILY,5d0ca909a37d8b0018913ca4,09/12/1937,2020-09-03_19h41.16.401,proactive2,2020.1.2,Linux x86_64,60,5f5126bb654d4b30ee6923d8,5f513836e96b0433f752330c,1,,,,,,scissors,,,,,,,,,,,5,2,0,41,41,48,1,,,,,,,,,,,,,,,,,,,,,,,,,,,,,,,,,,,,,,,,,,,,,,,,,,,,,,,,,,,,,,,,,,,,,,,,,,,,,,,,,,,,,,,,,,,,,,
,,?,0.000695,0,,,,,,stimuli/images/PICTURE_405.png,JUNGLE,5d0ca909a37d8b0018913ca4,09/12/1937,2020-09-03_19h41.16.401,proactive2,2020.1.2,Linux x86_64,60,5f5126bb654d4b30ee6923d8,5f513836e96b0433f752330c,1,,,,,,anchor,,,,,,,,,,,6,2,0,42,42,58,1,,,,,,,,,,,,,,,,,,,,,,,,,,,,,,,,,,,,,,,,,,,,,,,,,,,,,,,,,,,,,,,,,,,,,,,,,,,,,,,,,,,,,,,,,,,,,,
,,?,0.00061,0,,,,,,stimuli/images/PICTURE_311.png,TOILET,5d0ca909a37d8b0018913ca4,09/12/1937,2020-09-03_19h41.16.401,proactive2,2020.1.2,Linux x86_64,60,5f5126bb654d4b30ee6923d8,5f513836e96b0433f752330c,1,,,,,,razor,,,,,,,,,,,6,2,0,43,43,54,1,,,,,,,,,,,,,,,,,,,,,,,,,,,,,,,,,,,,,,,,,,,,,,,,,,,,,,,,,,,,,,,,,,,,,,,,,,,,,,,,,,,,,,,,,,,,,,
,,?,0.00116,0,,,,,,stimuli/images/PICTURE_677.png,FAMILY,5d0ca909a37d8b0018913ca4,09/12/1937,2020-09-03_19h41.16.401,proactive2,2020.1.2,Linux x86_64,60,5f5126bb654d4b30ee6923d8,5f513836e96b0433f752330c,1,,,,,,map,,,,,,,,,,,6,2,0,44,44,53,1,,,,,,,,,,,,,,,,,,,,,,,,,,,,,,,,,,,,,,,,,,,,,,,,,,,,,,,,,,,,,,,,,,,,,,,,,,,,,,,,,,,,,,,,,,,,,,
,,?,0.0008,0,,,,,,stimuli/images/PICTURE_470.png,BEAUTY,5d0ca909a37d8b0018913ca4,09/12/1937,2020-09-03_19h41.16.401,proactive2,2020.1.2,Linux x86_64,60,5f5126bb654d4b30ee6923d8,5f513836e96b0433f752330c,1,,,,,,motorbike,,,,,,,,,,,3,2,0,45,45,26,1,,,,,,,,,,,,,,,,,,,,,,,,,,,,,,,,,,,,,,,,,,,,,,,,,,,,,,,,,,,,,,,,,,,,,,,,,,,,,,,,,,,,,,,,,,,,,,
,,FAMILY,3.941115,1,,,,,,stimuli/images/PICTURE_403.png,FAMILY,5d0ca909a37d8b0018913ca4,09/12/1937,2020-09-03_19h41.16.401,proactive2,2020.1.2,Linux x86_64,60,5f5126bb654d4b30ee6923d8,5f513836e96b0433f752330c,1,,,,,,cathedral,,,,,,,,,,,1,2,0,46,46,9,1,,,,,,,,,,,,,,,,,,,,,,,,,,,,,,,,,,,,,,,,,,,,,,,,,,,,,,,,,,,,,,,,,,,,,,,,,,,,,,,,,,,,,,,,,,,,,,
,,?,0.00098,0,,,,,,stimuli/images/PICTURE_564.png,PLENTY,5d0ca909a37d8b0018913ca4,09/12/1937,2020-09-03_19h41.16.401,proactive2,2020.1.2,Linux x86_64,60,5f5126bb654d4b30ee6923d8,5f513836e96b0433f752330c,1,,,,,,spoon,,,,,,,,,,,2,2,0,47,47,11,1,,,,,,,,,,,,,,,,,,,,,,,,,,,,,,,,,,,,,,,,,,,,,,,,,,,,,,,,,,,,,,,,,,,,,,,,,,,,,,,,,,,,,,,,,,,,,,
,,?,0.000635,0,,,,,,stimuli/images/PICTURE_405.png,JUNGLE,5d0ca909a37d8b0018913ca4,09/12/1937,2020-09-03_19h41.16.401,proactive2,2020.1.2,Linux x86_64,60,5f5126bb654d4b30ee6923d8,5f513836e96b0433f752330c,1,,,,,,anchor,,,,,,,,,,,2,2,0,48,48,13,1,,,,,,,,,,,,,,,,,,,,,,,,,,,,,,,,,,,,,,,,,,,,,,,,,,,,,,,,,,,,,,,,,,,,,,,,,,,,,,,,,,,,,,,,,,,,,,
,,?,0.000655,0,,,,,,stimuli/images/PICTURE_356.png,CANDY,5d0ca909a37d8b0018913ca4,09/12/1937,2020-09-03_19h41.16.401,proactive2,2020.1.2,Linux x86_64,60,5f5126bb654d4b30ee6923d8,5f513836e96b0433f752330c,1,,,,,,pawn,,,,,,,,,,,5,2,0,49,49,46,1,,,,,,,,,,,,,,,,,,,,,,,,,,,,,,,,,,,,,,,,,,,,,,,,,,,,,,,,,,,,,,,,,,,,,,,,,,,,,,,,,,,,,,,,,,,,,,
,,?,0.000565,0,,,,,,stimuli/images/PICTURE_348.png,DUDE,5d0ca909a37d8b0018913ca4,09/12/1937,2020-09-03_19h41.16.401,proactive2,2020.1.2,Linux x86_64,60,5f5126bb654d4b30ee6923d8,5f513836e96b0433f752330c,1,,,,,,pepper,,,,,,,,,,,6,2,0,50,50,59,1,,,,,,,,,,,,,,,,,,,,,,,,,,,,,,,,,,,,,,,,,,,,,,,,,,,,,,,,,,,,,,,,,,,,,,,,,,,,,,,,,,,,,,,,,,,,,,
,,?,0.00477,0,,,,,,stimuli/images/PICTURE_215.png,LEADER,5d0ca909a37d8b0018913ca4,09/12/1937,2020-09-03_19h41.16.401,proactive2,2020.1.2,Linux x86_64,60,5f5126bb654d4b30ee6923d8,5f513836e96b0433f752330c,1,,,,,,boot,,,,,,,,,,,5,2,0,51,51,43,1,,,,,,,,,,,,,,,,,,,,,,,,,,,,,,,,,,,,,,,,,,,,,,,,,,,,,,,,,,,,,,,,,,,,,,,,,,,,,,,,,,,,,,,,,,,,,,
,,HOUSE,3.54113,1,,,,,,stimuli/images/PICTURE_405.png,HOUSE,5d0ca909a37d8b0018913ca4,09/12/1937,2020-09-03_19h41.16.401,proactive2,2020.1.2,Linux x86_64,60,5f5126bb654d4b30ee6923d8,5f513836e96b0433f752330c,1,,,,,,anchor,,,,,,,,,,,1,2,0,52,52,2,1,,,,,,,,,,,,,,,,,,,,,,,,,,,,,,,,,,,,,,,,,,,,,,,,,,,,,,,,,,,,,,,,,,,,,,,,,,,,,,,,,,,,,,,,,,,,,,
,,?,0.00092,0,,,,,,stimuli/images/PICTURE_297.png,BODY,5d0ca909a37d8b0018913ca4,09/12/1937,2020-09-03_19h41.16.401,proactive2,2020.1.2,Linux x86_64,60,5f5126bb654d4b30ee6923d8,5f513836e96b0433f752330c,1,,,,,,aeroplane,,,,,,,,,,,6,2,0,53,53,51,1,,,,,,,,,,,,,,,,,,,,,,,,,,,,,,,,,,,,,,,,,,,,,,,,,,,,,,,,,,,,,,,,,,,,,,,,,,,,,,,,,,,,,,,,,,,,,,
,,?,0.00066,0,,,,,,stimuli/images/PICTURE_208.png,SPIRIT,5d0ca909a37d8b0018913ca4,09/12/1937,2020-09-03_19h41.16.401,proactive2,2020.1.2,Linux x86_64,60,5f5126bb654d4b30ee6923d8,5f513836e96b0433f752330c,1,,,,,,microphone,,,,,,,,,,,3,2,0,54,54,28,1,,,,,,,,,,,,,,,,,,,,,,,,,,,,,,,,,,,,,,,,,,,,,,,,,,,,,,,,,,,,,,,,,,,,,,,,,,,,,,,,,,,,,,,,,,,,,,
,,?,0.00062,0,,,,,,stimuli/images/PICTURE_2.png,YARD,5d0ca909a37d8b0018913ca4,09/12/1937,2020-09-03_19h41.16.401,proactive2,2020.1.2,Linux x86_64,60,5f5126bb654d4b30ee6923d8,5f513836e96b0433f752330c,1,,,,,,tyre,,,,,,,,,,,6,2,0,55,55,55,1,,,,,,,,,,,,,,,,,,,,,,,,,,,,,,,,,,,,,,,,,,,,,,,,,,,,,,,,,,,,,,,,,,,,,,,,,,,,,,,,,,,,,,,,,,,,,,
,,?,0.000635,0,,,,,,stimuli/images/PICTURE_504.png,HOUSE,5d0ca909a37d8b0018913ca4,09/12/1937,2020-09-03_19h41.16.401,proactive2,2020.1.2,Linux x86_64,60,5f5126bb654d4b30ee6923d8,5f513836e96b0433f752330c,1,,,,,,wheel,,,,,,,,,,,4,2,0,56,56,36,1,,,,,,,,,,,,,,,,,,,,,,,,,,,,,,,,,,,,,,,,,,,,,,,,,,,,,,,,,,,,,,,,,,,,,,,,,,,,,,,,,,,,,,,,,,,,,,
,,?,0.000605,0,,,,,,stimuli/images/PICTURE_57.png,NATION,5d0ca909a37d8b0018913ca4,09/12/1937,2020-09-03_19h41.16.401,proactive2,2020.1.2,Linux x86_64,60,5f5126bb654d4b30ee6923d8,5f513836e96b0433f752330c,1,,,,,,stamp,,,,,,,,,,,3,2,0,57,57,21,1,,,,,,,,,,,,,,,,,,,,,,,,,,,,,,,,,,,,,,,,,,,,,,,,,,,,,,,,,,,,,,,,,,,,,,,,,,,,,,,,,,,,,,,,,,,,,,
,,?,0.000585,0,,,,,,stimuli/images/PICTURE_160.png,HOTEL,5d0ca909a37d8b0018913ca4,09/12/1937,2020-09-03_19h41.16.401,proactive2,2020.1.2,Linux x86_64,60,5f5126bb654d4b30ee6923d8,5f513836e96b0433f752330c,1,,,,,,wheelbarrow,,,,,,,,,,,2,2,0,58,58,16,1,,,,,,,,,,,,,,,,,,,,,,,,,,,,,,,,,,,,,,,,,,,,,,,,,,,,,,,,,,,,,,,,,,,,,,,,,,,,,,,,,,,,,,,,,,,,,,
,,?,4.08543,0,,,,,,stimuli/images/PICTURE_215.png,FOOD,5d0ca909a37d8b0018913ca4,09/12/1937,2020-09-03_19h41.16.401,proactive2,2020.1.2,Linux x86_64,60,5f5126bb654d4b30ee6923d8,5f513836e96b0433f752330c,1,,,,,,boot,,,,,,,,,,,1,2,0,59,59,5,1,,,,,,,,,,,,,,,,,,,,,,,,,,,,,,,,,,,,,,,,,,,,,,,,,,,,,,,,,,,,,,,,,,,,,,,,,,,,,,,,,,,,,,,,,,,,,,
,,,,,,,,,,,,5d0ca909a37d8b0018913ca4,09/12/1937,2020-09-03_19h41.16.401,proactive2,2020.1.2,Linux x86_64,60,5f5126bb654d4b30ee6923d8,5f513836e96b0433f752330c,1,,,,,,,,,,,,,,,,,,,,,,,,0,0,0,2,1,stimuli/learn-block3.csv,,,,,,,,,,,,,,,,,,,,,,,,,,,,,,,,,,,,,,,,,,,,,,,,,,,,,,,,,,,,,,,,,,,,,,,,,,,,,,,,,,,,,,,,
,,,,,,,,,,stimuli/images/PICTURE_453.png,PLENTY,5d0ca909a37d8b0018913ca4,09/12/1937,2020-09-03_19h41.16.401,proactive2,2020.1.2,Linux x86_64,60,5f5126bb654d4b30ee6923d8,5f513836e96b0433f752330c,1,,,,,,scissors,,,,,,0,0,0,56,1,6,0,,,,,,,,,,,,,,,,,,,,,,,,,,,,,,,,,,,,,,,,,,,,,,,,,,,,,,,,,,,,,,,,,,,,,,,,,,,,,,,,,,,,,,,,,,,,,,,,,,,
,,,,,,,,,,stimuli/images/PICTURE_467.png,DEMON,5d0ca909a37d8b0018913ca4,09/12/1937,2020-09-03_19h41.16.401,proactive2,2020.1.2,Linux x86_64,60,5f5126bb654d4b30ee6923d8,5f513836e96b0433f752330c,1,,,,,,peg,,,,,,0,1,1,23,1,3,0,,,,,,,,,,,,,,,,,,,,,,,,,,,,,,,,,,,,,,,,,,,,,,,,,,,,,,,,,,,,,,,,,,,,,,,,,,,,,,,,,,,,,,,,,,,,,,,,,,,
,,,,,,,,,,stimuli/images/PICTURE_233.png,IDEAS,5d0ca909a37d8b0018913ca4,09/12/1937,2020-09-03_19h41.16.401,proactive2,2020.1.2,Linux x86_64,60,5f5126bb654d4b30ee6923d8,5f513836e96b0433f752330c,1,,,,,,salt,,,,,,0,2,2,28,1,3,0,,,,,,,,,,,,,,,,,,,,,,,,,,,,,,,,,,,,,,,,,,,,,,,,,,,,,,,,,,,,,,,,,,,,,,,,,,,,,,,,,,,,,,,,,,,,,,,,,,,
,,,,,,,,,,stimuli/images/PICTURE_453.png,DUDE,5d0ca909a37d8b0018913ca4,09/12/1937,2020-09-03_19h41.16.401,proactive2,2020.1.2,Linux x86_64,60,5f5126bb654d4b30ee6923d8,5f513836e96b0433f752330c,1,,,,,,scissors,,,,,,0,3,3,27,1,3,0,,,,,,,,,,,,,,,,,,,,,,,,,,,,,,,,,,,,,,,,,,,,,,,,,,,,,,,,,,,,,,,,,,,,,,,,,,,,,,,,,,,,,,,,,,,,,,,,,,,
,,,,,,,,,,stimuli/images/PICTURE_677.png,MILE,5d0ca909a37d8b0018913ca4,09/12/1937,2020-09-03_19h41.16.401,proactive2,2020.1.2,Linux x86_64,60,5f5126bb654d4b30ee6923d8,5f513836e96b0433f752330c,1,,,,,,map,,,,,,0,4,4,30,1,4,0,,,,,,,,,,,,,,,,,,,,,,,,,,,,,,,,,,,,,,,,,,,,,,,,,,,,,,,,,,,,,,,,,,,,,,,,,,,,,,,,,,,,,,,,,,,,,,,,,,,
,,,,,,,,,,stimuli/images/PICTURE_744.png,SAKE,5d0ca909a37d8b0018913ca4,09/12/1937,2020-09-03_19h41.16.401,proactive2,2020.1.2,Linux x86_64,60,5f5126bb654d4b30ee6923d8,5f513836e96b0433f752330c,1,,,,,,ring,,,,,,0,5,5,17,1,2,0,,,,,,,,,,,,,,,,,,,,,,,,,,,,,,,,,,,,,,,,,,,,,,,,,,,,,,,,,,,,,,,,,,,,,,,,,,,,,,,,,,,,,,,,,,,,,,,,,,,
,,,,,,,,,,stimuli/images/PICTURE_85.png,THING,5d0ca909a37d8b0018913ca4,09/12/1937,2020-09-03_19h41.16.401,proactive2,2020.1.2,Linux x86_64,60,5f5126bb654d4b30ee6923d8,5f513836e96b0433f752330c,1,,,,,,diamond,,,,,,0,6,6,15,1,2,0,,,,,,,,,,,,,,,,,,,,,,,,,,,,,,,,,,,,,,,,,,,,,,,,,,,,,,,,,,,,,,,,,,,,,,,,,,,,,,,,,,,,,,,,,,,,,,,,,,,
,,,,,,,,,,stimuli/images/PICTURE_744.png,SYSTEM,5d0ca909a37d8b0018913ca4,09/12/1937,2020-09-03_19h41.16.401,proactive2,2020.1.2,Linux x86_64,60,5f5126bb654d4b30ee6923d8,5f513836e96b0433f752330c,1,,,,,,ring,,,,,,0,7,7,43,1,5,0,,,,,,,,,,,,,,,,,,,,,,,,,,,,,,,,,,,,,,,,,,,,,,,,,,,,,,,,,,,,,,,,,,,,,,,,,,,,,,,,,,,,,,,,,,,,,,,,,,,
,,,,,,,,,,stimuli/images/PICTURE_488.png,STYLE,5d0ca909a37d8b0018913ca4,09/12/1937,2020-09-03_19h41.16.401,proactive2,2020.1.2,Linux x86_64,60,5f5126bb654d4b30ee6923d8,5f513836e96b0433f752330c,1,,,,,,sun,,,,,,0,8,8,33,1,4,0,,,,,,,,,,,,,,,,,,,,,,,,,,,,,,,,,,,,,,,,,,,,,,,,,,,,,,,,,,,,,,,,,,,,,,,,,,,,,,,,,,,,,,,,,,,,,,,,,,,
,,,,,,,,,,stimuli/images/PICTURE_708.png,CLIENT,5d0ca909a37d8b0018913ca4,09/12/1937,2020-09-03_19h41.16.401,proactive2,2020.1.2,Linux x86_64,60,5f5126bb654d4b30ee6923d8,5f513836e96b0433f752330c,1,,,,,,monkey,,,,,,0,9,9,5,1,1,0,,,,,,,,,,,,,,,,,,,,,,,,,,,,,,,,,,,,,,,,,,,,,,,,,,,,,,,,,,,,,,,,,,,,,,,,,,,,,,,,,,,,,,,,,,,,,,,,,,,
,,,,,,,,,,stimuli/images/PICTURE_356.png,DANGER,5d0ca909a37d8b0018913ca4,09/12/1937,2020-09-03_19h41.16.401,proactive2,2020.1.2,Linux x86_64,60,5f5126bb654d4b30ee6923d8,5f513836e96b0433f752330c,1,,,,,,pawn,,,,,,0,10,10,55,1,6,0,,,,,,,,,,,,,,,,,,,,,,,,,,,,,,,,,,,,,,,,,,,,,,,,,,,,,,,,,,,,,,,,,,,,,,,,,,,,,,,,,,,,,,,,,,,,,,,,,,,
,,,,,,,,,,stimuli/images/PICTURE_95.png,STYLE,5d0ca909a37d8b0018913ca4,09/12/1937,2020-09-03_19h41.16.401,proactive2,2020.1.2,Linux x86_64,60,5f5126bb654d4b30ee6923d8,5f513836e96b0433f752330c,1,,,,,,suitcase,,,,,,0,11,11,25,1,3,0,,,,,,,,,,,,,,,,,,,,,,,,,,,,,,,,,,,,,,,,,,,,,,,,,,,,,,,,,,,,,,,,,,,,,,,,,,,,,,,,,,,,,,,,,,,,,,,,,,,
,,,,,,,,,,stimuli/images/PICTURE_308.png,KIND,5d0ca909a37d8b0018913ca4,09/12/1937,2020-09-03_19h41.16.401,proactive2,2020.1.2,Linux x86_64,60,5f5126bb654d4b30ee6923d8,5f513836e96b0433f752330c,1,,,,,,dice,,,,,,0,12,12,54,1,6,0,,,,,,,,,,,,,,,,,,,,,,,,,,,,,,,,,,,,,,,,,,,,,,,,,,,,,,,,,,,,,,,,,,,,,,,,,,,,,,,,,,,,,,,,,,,,,,,,,,,
,,,,,,,,,,stimuli/images/PICTURE_708.png,PENNY,5d0ca909a37d8b0018913ca4,09/12/1937,2020-09-03_19h41.16.401,proactive2,2020.1.2,Linux x86_64,60,5f5126bb654d4b30ee6923d8,5f513836e96b0433f752330c,1,,,,,,monkey,,,,,,0,13,13,31,1,4,0,,,,,,,,,,,,,,,,,,,,,,,,,,,,,,,,,,,,,,,,,,,,,,,,,,,,,,,,,,,,,,,,,,,,,,,,,,,,,,,,,,,,,,,,,,,,,,,,,,,
,,,,,,,,,,stimuli/images/PICTURE_160.png,FEET,5d0ca909a37d8b0018913ca4,09/12/1937,2020-09-03_19h41.16.401,proactive2,2020.1.2,Linux x86_64,60,5f5126bb654d4b30ee6923d8,5f513836e96b0433f752330c,1,,,,,,wheelbarrow,,,,,,0,14,14,58,1,6,0,,,,,,,,,,,,,,,,,,,,,,,,,,,,,,,,,,,,,,,,,,,,,,,,,,,,,,,,,,,,,,,,,,,,,,,,,,,,,,,,,,,,,,,,,,,,,,,,,,,
,,,,,,,,,,stimuli/images/PICTURE_160.png,LEADER,5d0ca909a37d8b0018913ca4,09/12/1937,2020-09-03_19h41.16.401,proactive2,2020.1.2,Linux x86_64,60,5f5126bb654d4b30ee6923d8,5f513836e96b0433f752330c,1,,,,,,wheelbarrow,,,,,,0,15,15,3,1,1,0,,,,,,,,,,,,,,,,,,,,,,,,,,,,,,,,,,,,,,,,,,,,,,,,,,,,,,,,,,,,,,,,,,,,,,,,,,,,,,,,,,,,,,,,,,,,,,,,,,,
,,,,,,,,,,stimuli/images/PICTURE_380.png,DEATH,5d0ca909a37d8b0018913ca4,09/12/1937,2020-09-03_19h41.16.401,proactive2,2020.1.2,Linux x86_64,60,5f5126bb654d4b30ee6923d8,5f513836e96b0433f752330c,1,,,,,,gorilla,,,,,,0,16,16,49,1,5,0,,,,,,,,,,,,,,,,,,,,,,,,,,,,,,,,,,,,,,,,,,,,,,,,,,,,,,,,,,,,,,,,,,,,,,,,,,,,,,,,,,,,,,,,,,,,,,,,,,,
,,,,,,,,,,stimuli/images/PICTURE_68.png,MILE,5d0ca909a37d8b0018913ca4,09/12/1937,2020-09-03_19h41.16.401,proactive2,2020.1.2,Linux x86_64,60,5f5126bb654d4b30ee6923d8,5f513836e96b0433f752330c,1,,,,,,candle,,,,,,0,17,17,44,1,5,0,,,,,,,,,,,,,,,,,,,,,,,,,,,,,,,,,,,,,,,,,,,,,,,,,,,,,,,,,,,,,,,,,,,,,,,,,,,,,,,,,,,,,,,,,,,,,,,,,,,
,,,,,,,,,,stimuli/images/PICTURE_667.png,BATH,5d0ca909a37d8b0018913ca4,09/12/1937,2020-09-03_19h41.16.401,proactive2,2020.1.2,Linux x86_64,60,5f5126bb654d4b30ee6923d8,5f513836e96b0433f752330c,1,,,,,,daisy,,,,,,0,18,18,4,1,1,0,,,,,,,,,,,,,,,,,,,,,,,,,,,,,,,,,,,,,,,,,,,,,,,,,,,,,,,,,,,,,,,,,,,,,,,,,,,,,,,,,,,,,,,,,,,,,,,,,,,
,,,,,,,,,,stimuli/images/PICTURE_708.png,YARD,5d0ca909a37d8b0018913ca4,09/12/1937,2020-09-03_19h41.16.401,proactive2,2020.1.2,Linux x86_64,60,5f5126bb654d4b30ee6923d8,5f513836e96b0433f752330c,1,,,,,,monkey,,,,,,0,19,19,29,1,3,0,,,,,,,,,,,,,,,,,,,,,,,,,,,,,,,,,,,,,,,,,,,,,,,,,,,,,,,,,,,,,,,,,,,,,,,,,,,,,,,,,,,,,,,,,,,,,,,,,,,
,,,,,,,,,,stimuli/images/PICTURE_504.png,BODY,5d0ca909a37d8b0018913ca4,09/12/1937,2020-09-03_19h41.16.401,proactive2,2020.1.2,Linux x86_64,60,5f5126bb654d4b30ee6923d8,5f513836e96b0433f752330c,1,,,,,,wheel,,,,,,0,20,20,8,1,1,0,,,,,,,,,,,,,,,,,,,,,,,,,,,,,,,,,,,,,,,,,,,,,,,,,,,,,,,,,,,,,,,,,,,,,,,,,,,,,,,,,,,,,,,,,,,,,,,,,,,
,,,,,,,,,,stimuli/images/PICTURE_654.png,VALLEY,5d0ca909a37d8b0018913ca4,09/12/1937,2020-09-03_19h41.16.401,proactive2,2020.1.2,Linux x86_64,60,5f5126bb654d4b30ee6923d8,5f513836e96b0433f752330c,1,,,,,,pencil,,,,,,0,21,21,1,1,1,0,,,,,,,,,,,,,,,,,,,,,,,,,,,,,,,,,,,,,,,,,,,,,,,,,,,,,,,,,,,,,,,,,,,,,,,,,,,,,,,,,,,,,,,,,,,,,,,,,,,
,,,,,,,,,,stimuli/images/PICTURE_208.png,THING,5d0ca909a37d8b0018913ca4,09/12/1937,2020-09-03_19h41.16.401,proactive2,2020.1.2,Linux x86_64,60,5f5126bb654d4b30ee6923d8,5f513836e96b0433f752330c,1,,,,,,microphone,,,,,,0,22,22,47,1,5,0,,,,,,,,,,,,,,,,,,,,,,,,,,,,,,,,,,,,,,,,,,,,,,,,,,,,,,,,,,,,,,,,,,,,,,,,,,,,,,,,,,,,,,,,,,,,,,,,,,,
,,,,,,,,,,stimuli/images/PICTURE_491.png,ROOF,5d0ca909a37d8b0018913ca4,09/12/1937,2020-09-03_19h41.16.401,proactive2,2020.1.2,Linux x86_64,60,5f5126bb654d4b30ee6923d8,5f513836e96b0433f752330c,1,,,,,,rug,,,,,,0,23,23,24,1,3,0,,,,,,,,,,,,,,,,,,,,,,,,,,,,,,,,,,,,,,,,,,,,,,,,,,,,,,,,,,,,,,,,,,,,,,,,,,,,,,,,,,,,,,,,,,,,,,,,,,,
,,,,,,,,,,stimuli/images/PICTURE_123.png,ADVICE,5d0ca909a37d8b0018913ca4,09/12/1937,2020-09-03_19h41.16.401,proactive2,2020.1.2,Linux x86_64,60,5f5126bb654d4b30ee6923d8,5f513836e96b0433f752330c,1,,,,,,dart,,,,,,0,24,24,40,1,5,0,,,,,,,,,,,,,,,,,,,,,,,,,,,,,,,,,,,,,,,,,,,,,,,,,,,,,,,,,,,,,,,,,,,,,,,,,,,,,,,,,,,,,,,,,,,,,,,,,,,
,,,,,,,,,,stimuli/images/PICTURE_248.png,DOZEN,5d0ca909a37d8b0018913ca4,09/12/1937,2020-09-03_19h41.16.401,proactive2,2020.1.2,Linux x86_64,60,5f5126bb654d4b30ee6923d8,5f513836e96b0433f752330c,1,,,,,,cart,,,,,,0,25,25,39,1,4,0,,,,,,,,,,,,,,,,,,,,,,,,,,,,,,,,,,,,,,,,,,,,,,,,,,,,,,,,,,,,,,,,,,,,,,,,,,,,,,,,,,,,,,,,,,,,,,,,,,,
,,,,,,,,,,stimuli/images/PICTURE_215.png,PLENTY,5d0ca909a37d8b0018913ca4,09/12/1937,2020-09-03_19h41.16.401,proactive2,2020.1.2,Linux x86_64,60,5f5126bb654d4b30ee6923d8,5f513836e96b0433f752330c,1,,,,,,boot,,,,,,0,26,26,37,1,4,0,,,,,,,,,,,,,,,,,,,,,,,,,,,,,,,,,,,,,,,,,,,,,,,,,,,,,,,,,,,,,,,,,,,,,,,,,,,,,,,,,,,,,,,,,,,,,,,,,,,
,,,,,,,,,,stimuli/images/PICTURE_327.png,BEAUTY,5d0ca909a37d8b0018913ca4,09/12/1937,2020-09-03_19h41.16.401,proactive2,2020.1.2,Linux x86_64,60,5f5126bb654d4b30ee6923d8,5f513836e96b0433f752330c,1,,,,,,helmet,,,,,,0,27,27,48,1,5,0,,,,,,,,,,,,,,,,,,,,,,,,,,,,,,,,,,,,,,,,,,,,,,,,,,,,,,,,,,,,,,,,,,,,,,,,,,,,,,,,,,,,,,,,,,,,,,,,,,,
,,,,,,,,,,stimuli/images/PICTURE_675.png,WEAPON,5d0ca909a37d8b0018913ca4,09/12/1937,2020-09-03_19h41.16.401,proactive2,2020.1.2,Linux x86_64,60,5f5126bb654d4b30ee6923d8,5f513836e96b0433f752330c,1,,,,,,windmill,,,,,,0,28,28,32,1,4,0,,,,,,,,,,,,,,,,,,,,,,,,,,,,,,,,,,,,,,,,,,,,,,,,,,,,,,,,,,,,,,,,,,,,,,,,,,,,,,,,,,,,,,,,,,,,,,,,,,,
,,,,,,,,,,stimuli/images/PICTURE_339.png,PLENTY,5d0ca909a37d8b0018913ca4,09/12/1937,2020-09-03_19h41.16.401,proactive2,2020.1.2,Linux x86_64,60,5f5126bb654d4b30ee6923d8,5f513836e96b0433f752330c,1,,,,,,backpack,,,,,,0,29,29,0,1,1,0,,,,,,,,,,,,,,,,,,,,,,,,,,,,,,,,,,,,,,,,,,,,,,,,,,,,,,,,,,,,,,,,,,,,,,,,,,,,,,,,,,,,,,,,,,,,,,,,,,,
,,,,,,,,,,stimuli/images/PICTURE_314.png,SAKE,5d0ca909a37d8b0018913ca4,09/12/1937,2020-09-03_19h41.16.401,proactive2,2020.1.2,Linux x86_64,60,5f5126bb654d4b30ee6923d8,5f513836e96b0433f752330c,1,,,,,,perfume,,,,,,0,30,30,7,1,1,0,,,,,,,,,,,,,,,,,,,,,,,,,,,,,,,,,,,,,,,,,,,,,,,,,,,,,,,,,,,,,,,,,,,,,,,,,,,,,,,,,,,,,,,,,,,,,,,,,,,
,,,,,,,,,,stimuli/images/PICTURE_208.png,MONTH,5d0ca909a37d8b0018913ca4,09/12/1937,2020-09-03_19h41.16.401,proactive2,2020.1.2,Linux x86_64,60,5f5126bb654d4b30ee6923d8,5f513836e96b0433f752330c,1,,,,,,microphone,,,,,,0,31,31,53,1,6,0,,,,,,,,,,,,,,,,,,,,,,,,,,,,,,,,,,,,,,,,,,,,,,,,,,,,,,,,,,,,,,,,,,,,,,,,,,,,,,,,,,,,,,,,,,,,,,,,,,,
,,,,,,,,,,stimuli/images/PICTURE_233.png,WOMEN,5d0ca909a37d8b0018913ca4,09/12/1937,2020-09-03_19h41.16.401,proactive2,2020.1.2,Linux x86_64,60,5f5126bb654d4b30ee6923d8,5f513836e96b0433f752330c,1,,,,,,salt,,,,,,0,32,32,38,1,4,0,,,,,,,,,,,,,,,,,,,,,,,,,,,,,,,,,,,,,,,,,,,,,,,,,,,,,,,,,,,,,,,,,,,,,,,,,,,,,,,,,,,,,,,,,,,,,,,,,,,
,,,,,,,,,,stimuli/images/PICTURE_208.png,LOTS,5d0ca909a37d8b0018913ca4,09/12/1937,2020-09-03_19h41.16.401,proactive2,2020.1.2,Linux x86_64,60,5f5126bb654d4b30ee6923d8,5f513836e96b0433f752330c,1,,,,,,microphone,,,,,,0,33,33,10,1,2,0,,,,,,,,,,,,,,,,,,,,,,,,,,,,,,,,,,,,,,,,,,,,,,,,,,,,,,,,,,,,,,,,,,,,,,,,,,,,,,,,,,,,,,,,,,,,,,,,,,,
,,,,,,,,,,stimuli/images/PICTURE_203.png,ARTIST,5d0ca909a37d8b0018913ca4,09/12/1937,2020-09-03_19h41.16.401,proactive2,2020.1.2,Linux x86_64,60,5f5126bb654d4b30ee6923d8,5f513836e96b0433f752330c,1,,,,,,cap,,,,,,0,34,34,26,1,3,0,,,,,,,,,,,,,,,,,,,,,,,,,,,,,,,,,,,,,,,,,,,,,,,,,,,,,,,,,,,,,,,,,,,,,,,,,,,,,,,,,,,,,,,,,,,,,,,,,,,
,,,,,,,,,,stimuli/images/PICTURE_123.png,ADVICE,5d0ca909a37d8b0018913ca4,09/12/1937,2020-09-03_19h41.16.401,proactive2,2020.1.2,Linux x86_64,60,5f5126bb654d4b30ee6923d8,5f513836e96b0433f752330c,1,,,,,,dart,,,,,,0,35,35,50,1,6,0,,,,,,,,,,,,,,,,,,,,,,,,,,,,,,,,,,,,,,,,,,,,,,,,,,,,,,,,,,,,,,,,,,,,,,,,,,,,,,,,,,,,,,,,,,,,,,,,,,,
,,,,,,,,,,stimuli/images/PICTURE_380.png,PHOTO,5d0ca909a37d8b0018913ca4,09/12/1937,2020-09-03_19h41.16.401,proactive2,2020.1.2,Linux x86_64,60,5f5126bb654d4b30ee6923d8,5f513836e96b0433f752330c,1,,,,,,gorilla,,,,,,0,36,36,52,1,6,0,,,,,,,,,,,,,,,,,,,,,,,,,,,,,,,,,,,,,,,,,,,,,,,,,,,,,,,,,,,,,,,,,,,,,,,,,,,,,,,,,,,,,,,,,,,,,,,,,,,
,,,,,,,,,,stimuli/images/PICTURE_469.png,ARTIST,5d0ca909a37d8b0018913ca4,09/12/1937,2020-09-03_19h41.16.401,proactive2,2020.1.2,Linux x86_64,60,5f5126bb654d4b30ee6923d8,5f513836e96b0433f752330c,1,,,,,,stool,,,,,,0,37,37,6,1,1,0,,,,,,,,,,,,,,,,,,,,,,,,,,,,,,,,,,,,,,,,,,,,,,,,,,,,,,,,,,,,,,,,,,,,,,,,,,,,,,,,,,,,,,,,,,,,,,,,,,,
,,,,,,,,,,stimuli/images/PICTURE_692.png,MONTH,5d0ca909a37d8b0018913ca4,09/12/1937,2020-09-03_19h41.16.401,proactive2,2020.1.2,Linux x86_64,60,5f5126bb654d4b30ee6923d8,5f513836e96b0433f752330c,1,,,,,,cherry,,,,,,0,38,38,16,1,2,0,,,,,,,,,,,,,,,,,,,,,,,,,,,,,,,,,,,,,,,,,,,,,,,,,,,,,,,,,,,,,,,,,,,,,,,,,,,,,,,,,,,,,,,,,,,,,,,,,,,
,,,,,,,,,,stimuli/images/PICTURE_688.png,CASINO,5d0ca909a37d8b0018913ca4,09/12/1937,2020-09-03_19h41.16.401,proactive2,2020.1.2,Linux x86_64,60,5f5126bb654d4b30ee6923d8,5f513836e96b0433f752330c,1,,,,,,runner,,,,,,0,39,39,2,1,1,0,,,,,,,,,,,,,,,,,,,,,,,,,,,,,,,,,,,,,,,,,,,,,,,,,,,,,,,,,,,,,,,,,,,,,,,,,,,,,,,,,,,,,,,,,,,,,,,,,,,
,,,,,,,,,,stimuli/images/PICTURE_308.png,ESTATE,5d0ca909a37d8b0018913ca4,09/12/1937,2020-09-03_19h41.16.401,proactive2,2020.1.2,Linux x86_64,60,5f5126bb654d4b30ee6923d8,5f513836e96b0433f752330c,1,,,,,,dice,,,,,,0,40,40,46,1,5,0,,,,,,,,,,,,,,,,,,,,,,,,,,,,,,,,,,,,,,,,,,,,,,,,,,,,,,,,,,,,,,,,,,,,,,,,,,,,,,,,,,,,,,,,,,,,,,,,,,,
,,,,,,,,,,stimuli/images/PICTURE_688.png,WOMEN,5d0ca909a37d8b0018913ca4,09/12/1937,2020-09-03_19h41.16.401,proactive2,2020.1.2,Linux x86_64,60,5f5126bb654d4b30ee6923d8,5f513836e96b0433f752330c,1,,,,,,runner,,,,,,0,41,41,14,1,2,0,,,,,,,,,,,,,,,,,,,,,,,,,,,,,,,,,,,,,,,,,,,,,,,,,,,,,,,,,,,,,,,,,,,,,,,,,,,,,,,,,,,,,,,,,,,,,,,,,,,
,,,,,,,,,,stimuli/images/PICTURE_449.png,THING,5d0ca909a37d8b0018913ca4,09/12/1937,2020-09-03_19h41.16.401,proactive2,2020.1.2,Linux x86_64,60,5f5126bb654d4b30ee6923d8,5f513836e96b0433f752330c,1,,,,,,bench,,,,,,0,42,42,59,1,6,0,,,,,,,,,,,,,,,,,,,,,,,,,,,,,,,,,,,,,,,,,,,,,,,,,,,,,,,,,,,,,,,,,,,,,,,,,,,,,,,,,,,,,,,,,,,,,,,,,,,
,,,,,,,,,,stimuli/images/PICTURE_311.png,BEAUTY,5d0ca909a37d8b0018913ca4,09/12/1937,2020-09-03_19h41.16.401,proactive2,2020.1.2,Linux x86_64,60,5f5126bb654d4b30ee6923d8,5f513836e96b0433f752330c,1,,,,,,razor,,,,,,0,43,43,13,1,2,0,,,,,,,,,,,,,,,,,,,,,,,,,,,,,,,,,,,,,,,,,,,,,,,,,,,,,,,,,,,,,,,,,,,,,,,,,,,,,,,,,,,,,,,,,,,,,,,,,,,
,,,,,,,,,,stimuli/images/PICTURE_311.png,FRIEND,5d0ca909a37d8b0018913ca4,09/12/1937,2020-09-03_19h41.16.401,proactive2,2020.1.2,Linux x86_64,60,5f5126bb654d4b30ee6923d8,5f513836e96b0433f752330c,1,,,,,,razor,,,,,,0,44,44,34,1,4,0,,,,,,,,,,,,,,,,,,,,,,,,,,,,,,,,,,,,,,,,,,,,,,,,,,,,,,,,,,,,,,,,,,,,,,,,,,,,,,,,,,,,,,,,,,,,,,,,,,,
,,,,,,,,,,stimuli/images/PICTURE_314.png,GODS,5d0ca909a37d8b0018913ca4,09/12/1937,2020-09-03_19h41.16.401,proactive2,2020.1.2,Linux x86_64,60,5f5126bb654d4b30ee6923d8,5f513836e96b0433f752330c,1,,,,,,perfume,,,,,,0,45,45,11,1,2,0,,,,,,,,,,,,,,,,,,,,,,,,,,,,,,,,,,,,,,,,,,,,,,,,,,,,,,,,,,,,,,,,,,,,,,,,,,,,,,,,,,,,,,,,,,,,,,,,,,,
,,,,,,,,,,stimuli/images/PICTURE_255.png,AREA,5d0ca909a37d8b0018913ca4,09/12/1937,2020-09-03_19h41.16.401,proactive2,2020.1.2,Linux x86_64,60,5f5126bb654d4b30ee6923d8,5f513836e96b0433f752330c,1,,,,,,shovel,,,,,,0,46,46,22,1,3,0,,,,,,,,,,,,,,,,,,,,,,,,,,,,,,,,,,,,,,,,,,,,,,,,,,,,,,,,,,,,,,,,,,,,,,,,,,,,,,,,,,,,,,,,,,,,,,,,,,,
,,,,,,,,,,stimuli/images/PICTURE_509.png,PHOTO,5d0ca909a37d8b0018913ca4,09/12/1937,2020-09-03_19h41.16.401,proactive2,2020.1.2,Linux x86_64,60,5f5126bb654d4b30ee6923d8,5f513836e96b0433f752330c,1,,,,,,telephone,,,,,,0,47,47,21,1,3,0,,,,,,,,,,,,,,,,,,,,,,,,,,,,,,,,,,,,,,,,,,,,,,,,,,,,,,,,,,,,,,,,,,,,,,,,,,,,,,,,,,,,,,,,,,,,,,,,,,,
,,,,,,,,,,stimuli/images/PICTURE_470.png,CASINO,5d0ca909a37d8b0018913ca4,09/12/1937,2020-09-03_19h41.16.401,proactive2,2020.1.2,Linux x86_64,60,5f5126bb654d4b30ee6923d8,5f513836e96b0433f752330c,1,,,,,,motorbike,,,,,,0,48,48,36,1,4,0,,,,,,,,,,,,,,,,,,,,,,,,,,,,,,,,,,,,,,,,,,,,,,,,,,,,,,,,,,,,,,,,,,,,,,,,,,,,,,,,,,,,,,,,,,,,,,,,,,,
,,,,,,,,,,stimuli/images/PICTURE_147.png,MOMENT,5d0ca909a37d8b0018913ca4,09/12/1937,2020-09-03_19h41.16.401,proactive2,2020.1.2,Linux x86_64,60,5f5126bb654d4b30ee6923d8,5f513836e96b0433f752330c,1,,,,,,hanger,,,,,,0,49,49,51,1,6,0,,,,,,,,,,,,,,,,,,,,,,,,,,,,,,,,,,,,,,,,,,,,,,,,,,,,,,,,,,,,,,,,,,,,,,,,,,,,,,,,,,,,,,,,,,,,,,,,,,,
,,,,,,,,,,stimuli/images/PICTURE_302.png,FAMILY,5d0ca909a37d8b0018913ca4,09/12/1937,2020-09-03_19h41.16.401,proactive2,2020.1.2,Linux x86_64,60,5f5126bb654d4b30ee6923d8,5f513836e96b0433f752330c,1,,,,,,taxi,,,,,,0,50,50,18,1,2,0,,,,,,,,,,,,,,,,,,,,,,,,,,,,,,,,,,,,,,,,,,,,,,,,,,,,,,,,,,,,,,,,,,,,,,,,,,,,,,,,,,,,,,,,,,,,,,,,,,,
,,,,,,,,,,stimuli/images/PICTURE_348.png,SPEECH,5d0ca909a37d8b0018913ca4,09/12/1937,2020-09-03_19h41.16.401,proactive2,2020.1.2,Linux x86_64,60,5f5126bb654d4b30ee6923d8,5f513836e96b0433f752330c,1,,,,,,pepper,,,,,,0,51,51,20,1,3,0,,,,,,,,,,,,,,,,,,,,,,,,,,,,,,,,,,,,,,,,,,,,,,,,,,,,,,,,,,,,,,,,,,,,,,,,,,,,,,,,,,,,,,,,,,,,,,,,,,,
,,,,,,,,,,stimuli/images/PICTURE_151.png,GIRL,5d0ca909a37d8b0018913ca4,09/12/1937,2020-09-03_19h41.16.401,proactive2,2020.1.2,Linux x86_64,60,5f5126bb654d4b30ee6923d8,5f513836e96b0433f752330c,1,,,,,,tray,,,,,,0,52,52,19,1,2,0,,,,,,,,,,,,,,,,,,,,,,,,,,,,,,,,,,,,,,,,,,,,,,,,,,,,,,,,,,,,,,,,,,,,,,,,,,,,,,,,,,,,,,,,,,,,,,,,,,,
,,,,,,,,,,stimuli/images/PICTURE_469.png,LETTER,5d0ca909a37d8b0018913ca4,09/12/1937,2020-09-03_19h41.16.401,proactive2,2020.1.2,Linux x86_64,60,5f5126bb654d4b30ee6923d8,5f513836e96b0433f752330c,1,,,,,,stool,,,,,,0,53,53,42,1,5,0,,,,,,,,,,,,,,,,,,,,,,,,,,,,,,,,,,,,,,,,,,,,,,,,,,,,,,,,,,,,,,,,,,,,,,,,,,,,,,,,,,,,,,,,,,,,,,,,,,,
,,,,,,,,,,stimuli/images/PICTURE_491.png,WRITER,5d0ca909a37d8b0018913ca4,09/12/1937,2020-09-03_19h41.16.401,proactive2,2020.1.2,Linux x86_64,60,5f5126bb654d4b30ee6923d8,5f513836e96b0433f752330c,1,,,,,,rug,,,,,,0,54,54,57,1,6,0,,,,,,,,,,,,,,,,,,,,,,,,,,,,,,,,,,,,,,,,,,,,,,,,,,,,,,,,,,,,,,,,,,,,,,,,,,,,,,,,,,,,,,,,,,,,,,,,,,,
,,,,,,,,,,stimuli/images/PICTURE_285.png,ADVICE,5d0ca909a37d8b0018913ca4,09/12/1937,2020-09-03_19h41.16.401,proactive2,2020.1.2,Linux x86_64,60,5f5126bb654d4b30ee6923d8,5f513836e96b0433f752330c,1,,,,,,carrot,,,,,,0,55,55,12,1,2,0,,,,,,,,,,,,,,,,,,,,,,,,,,,,,,,,,,,,,,,,,,,,,,,,,,,,,,,,,,,,,,,,,,,,,,,,,,,,,,,,,,,,,,,,,,,,,,,,,,,
,,,,,,,,,,stimuli/images/PICTURE_32.png,JUNGLE,5d0ca909a37d8b0018913ca4,09/12/1937,2020-09-03_19h41.16.401,proactive2,2020.1.2,Linux x86_64,60,5f5126bb654d4b30ee6923d8,5f513836e96b0433f752330c,1,,,,,,crown,,,,,,0,56,56,45,1,5,0,,,,,,,,,,,,,,,,,,,,,,,,,,,,,,,,,,,,,,,,,,,,,,,,,,,,,,,,,,,,,,,,,,,,,,,,,,,,,,,,,,,,,,,,,,,,,,,,,,,
,,,,,,,,,,stimuli/images/PICTURE_487.png,FLIGHT,5d0ca909a37d8b0018913ca4,09/12/1937,2020-09-03_19h41.16.401,proactive2,2020.1.2,Linux x86_64,60,5f5126bb654d4b30ee6923d8,5f513836e96b0433f752330c,1,,,,,,basket,,,,,,0,57,57,9,1,1,0,,,,,,,,,,,,,,,,,,,,,,,,,,,,,,,,,,,,,,,,,,,,,,,,,,,,,,,,,,,,,,,,,,,,,,,,,,,,,,,,,,,,,,,,,,,,,,,,,,,
,,,,,,,,,,stimuli/images/PICTURE_177.png,CARS,5d0ca909a37d8b0018913ca4,09/12/1937,2020-09-03_19h41.16.401,proactive2,2020.1.2,Linux x86_64,60,5f5126bb654d4b30ee6923d8,5f513836e96b0433f752330c,1,,,,,,mushroom,,,,,,0,58,58,35,1,4,0,,,,,,,,,,,,,,,,,,,,,,,,,,,,,,,,,,,,,,,,,,,,,,,,,,,,,,,,,,,,,,,,,,,,,,,,,,,,,,,,,,,,,,,,,,,,,,,,,,,
,,?,0.001275,0,,,,,,stimuli/images/PICTURE_327.png,BEAUTY,5d0ca909a37d8b0018913ca4,09/12/1937,2020-09-03_19h41.16.401,proactive2,2020.1.2,Linux x86_64,60,5f5126bb654d4b30ee6923d8,5f513836e96b0433f752330c,1,,,,,,helmet,,,,,,,,,,,5,0,0,0,0,48,1,,,,,,,,,,,,,,,,,,,,,,,,,,,,,,,,,,,,,,,,,,,,,,,,,,,,,,,,,,,,,,,,,,,,,,,,,,,,,,,,,,,,,,,,,,,,,,
,,?,0.0007,0,,,,,,stimuli/images/PICTURE_68.png,MILE,5d0ca909a37d8b0018913ca4,09/12/1937,2020-09-03_19h41.16.401,proactive2,2020.1.2,Linux x86_64,60,5f5126bb654d4b30ee6923d8,5f513836e96b0433f752330c,1,,,,,,candle,,,,,,,,,,,5,0,0,1,1,44,1,,,,,,,,,,,,,,,,,,,,,,,,,,,,,,,,,,,,,,,,,,,,,,,,,,,,,,,,,,,,,,,,,,,,,,,,,,,,,,,,,,,,,,,,,,,,,,
,,?,0.00065,0,,,,,,stimuli/images/PICTURE_203.png,ARTIST,5d0ca909a37d8b0018913ca4,09/12/1937,2020-09-03_19h41.16.401,proactive2,2020.1.2,Linux x86_64,60,5f5126bb654d4b30ee6923d8,5f513836e96b0433f752330c,1,,,,,,cap,,,,,,,,,,,3,0,0,2,2,26,1,,,,,,,,,,,,,,,,,,,,,,,,,,,,,,,,,,,,,,,,,,,,,,,,,,,,,,,,,,,,,,,,,,,,,,,,,,,,,,,,,,,,,,,,,,,,,,
,,?,0.00066,0,,,,,,stimuli/images/PICTURE_744.png,SYSTEM,5d0ca909a37d8b0018913ca4,09/12/1937,2020-09-03_19h41.16.401,proactive2,2020.1.2,Linux x86_64,60,5f5126bb654d4b30ee6923d8,5f513836e96b0433f752330c,1,,,,,,ring,,,,,,,,,,,5,0,0,3,3,43,1,,,,,,,,,,,,,,,,,,,,,,,,,,,,,,,,,,,,,,,,,,,,,,,,,,,,,,,,,,,,,,,,,,,,,,,,,,,,,,,,,,,,,,,,,,,,,,
,,?,0.000725,0,,,,,,stimuli/images/PICTURE_308.png,ESTATE,5d0ca909a37d8b0018913ca4,09/12/1937,2020-09-03_19h41.16.401,proactive2,2020.1.2,Linux x86_64,60,5f5126bb654d4b30ee6923d8,5f513836e96b0433f752330c,1,,,,,,dice,,,,,,,,,,,5,0,0,4,4,46,1,,,,,,,,,,,,,,,,,,,,,,,,,,,,,,,,,,,,,,,,,,,,,,,,,,,,,,,,,,,,,,,,,,,,,,,,,,,,,,,,,,,,,,,,,,,,,,
,,?,0.00059,0,,,,,,stimuli/images/PICTURE_95.png,STYLE,5d0ca909a37d8b0018913ca4,09/12/1937,2020-09-03_19h41.16.401,proactive2,2020.1.2,Linux x86_64,60,5f5126bb654d4b30ee6923d8,5f513836e96b0433f752330c,1,,,,,,suitcase,,,,,,,,,,,3,0,0,5,5,25,1,,,,,,,,,,,,,,,,,,,,,,,,,,,,,,,,,,,,,,,,,,,,,,,,,,,,,,,,,,,,,,,,,,,,,,,,,,,,,,,,,,,,,,,,,,,,,,
,,?,0.00065,0,,,,,,stimuli/images/PICTURE_470.png,CASINO,5d0ca909a37d8b0018913ca4,09/12/1937,2020-09-03_19h41.16.401,proactive2,2020.1.2,Linux x86_64,60,5f5126bb654d4b30ee6923d8,5f513836e96b0433f752330c,1,,,,,,motorbike,,,,,,,,,,,4,0,0,6,6,36,1,,,,,,,,,,,,,,,,,,,,,,,,,,,,,,,,,,,,,,,,,,,,,,,,,,,,,,,,,,,,,,,,,,,,,,,,,,,,,,,,,,,,,,,,,,,,,,
,,RUN,6.715235,0,,,,,,stimuli/images/PICTURE_688.png,CASINO,5d0ca909a37d8b0018913ca4,09/12/1937,2020-09-03_19h41.16.401,proactive2,2020.1.2,Linux x86_64,60,5f5126bb654d4b30ee6923d8,5f513836e96b0433f752330c,1,,,,,,runner,,,,,,,,,,,1,0,0,7,7,2,1,,,,,,,,,,,,,,,,,,,,,,,,,,,,,,,,,,,,,,,,,,,,,,,,,,,,,,,,,,,,,,,,,,,,,,,,,,,,,,,,,,,,,,,,,,,,,,
,,?,0.00091,0,,,,,,stimuli/images/PICTURE_380.png,DEATH,5d0ca909a37d8b0018913ca4,09/12/1937,2020-09-03_19h41.16.401,proactive2,2020.1.2,Linux x86_64,60,5f5126bb654d4b30ee6923d8,5f513836e96b0433f752330c,1,,,,,,gorilla,,,,,,,,,,,5,0,0,8,8,49,1,,,,,,,,,,,,,,,,,,,,,,,,,,,,,,,,,,,,,,,,,,,,,,,,,,,,,,,,,,,,,,,,,,,,,,,,,,,,,,,,,,,,,,,,,,,,,,
,,?,0.00066,0,,,,,,stimuli/images/PICTURE_667.png,PLENTY,5d0ca909a37d8b0018913ca4,09/12/1937,2020-09-03_19h41.16.401,proactive2,2020.1.2,Linux x86_64,60,5f5126bb654d4b30ee6923d8,5f513836e96b0433f752330c,1,,,,,,daisy,,,,,,,,,,,5,0,0,9,9,41,1,,,,,,,,,,,,,,,,,,,,,,,,,,,,,,,,,,,,,,,,,,,,,,,,,,,,,,,,,,,,,,,,,,,,,,,,,,,,,,,,,,,,,,,,,,,,,,
,,?,0.000645,0,,,,,,stimuli/images/PICTURE_491.png,WRITER,5d0ca909a37d8b0018913ca4,09/12/1937,2020-09-03_19h41.16.401,proactive2,2020.1.2,Linux x86_64,60,5f5126bb654d4b30ee6923d8,5f513836e96b0433f752330c,1,,,,,,rug,,,,,,,,,,,6,0,0,10,10,57,1,,,,,,,,,,,,,,,,,,,,,,,,,,,,,,,,,,,,,,,,,,,,,,,,,,,,,,,,,,,,,,,,,,,,,,,,,,,,,,,,,,,,,,,,,,,,,,
,,?,0.000665,0,,,,,,stimuli/images/PICTURE_491.png,ROOF,5d0ca909a37d8b0018913ca4,09/12/1937,2020-09-03_19h41.16.401,proactive2,2020.1.2,Linux x86_64,60,5f5126bb654d4b30ee6923d8,5f513836e96b0433f752330c,1,,,,,,rug,,,,,,,,,,,3,0,0,11,11,24,1,,,,,,,,,,,,,,,,,,,,,,,,,,,,,,,,,,,,,,,,,,,,,,,,,,,,,,,,,,,,,,,,,,,,,,,,,,,,,,,,,,,,,,,,,,,,,,
,,?,0.000605,0,,,,,,stimuli/images/PICTURE_208.png,LOTS,5d0ca909a37d8b0018913ca4,09/12/1937,2020-09-03_19h41.16.401,proactive2,2020.1.2,Linux x86_64,60,5f5126bb654d4b30ee6923d8,5f513836e96b0433f752330c,1,,,,,,microphone,,,,,,,,,,,2,0,0,12,12,10,1,,,,,,,,,,,,,,,,,,,,,,,,,,,,,,,,,,,,,,,,,,,,,,,,,,,,,,,,,,,,,,,,,,,,,,,,,,,,,,,,,,,,,,,,,,,,,,
,,?,0.000615,0,,,,,,stimuli/images/PICTURE_469.png,LETTER,5d0ca909a37d8b0018913ca4,09/12/1937,2020-09-03_19h41.16.401,proactive2,2020.1.2,Linux x86_64,60,5f5126bb654d4b30ee6923d8,5f513836e96b0433f752330c,1,,,,,,stool,,,,,,,,,,,5,0,0,13,13,42,1,,,,,,,,,,,,,,,,,,,,,,,,,,,,,,,,,,,,,,,,,,,,,,,,,,,,,,,,,,,,,,,,,,,,,,,,,,,,,,,,,,,,,,,,,,,,,,
,,?,0.000685,0,,,,,,stimuli/images/PICTURE_453.png,DUDE,5d0ca909a37d8b0018913ca4,09/12/1937,2020-09-03_19h41.16.401,proactive2,2020.1.2,Linux x86_64,60,5f5126bb654d4b30ee6923d8,5f513836e96b0433f752330c,1,,,,,,scissors,,,,,,,,,,,3,0,0,14,14,27,1,,,,,,,,,,,,,,,,,,,,,,,,,,,,,,,,,,,,,,,,,,,,,,,,,,,,,,,,,,,,,,,,,,,,,,,,,,,,,,,,,,,,,,,,,,,,,,
,,?,0.000585,0,,,,,,stimuli/images/PICTURE_449.png,THING,5d0ca909a37d8b0018913ca4,09/12/1937,2020-09-03_19h41.16.401,proactive2,2020.1.2,Linux x86_64,60,5f5126bb654d4b30ee6923d8,5f513836e96b0433f752330c,1,,,,,,bench,,,,,,,,,,,6,0,0,15,15,59,1,,,,,,,,,,,,,,,,,,,,,,,,,,,,,,,,,,,,,,,,,,,,,,,,,,,,,,,,,,,,,,,,,,,,,,,,,,,,,,,,,,,,,,,,,,,,,,
,,?,0.00065,0,,,,,,stimuli/images/PICTURE_308.png,KIND,5d0ca909a37d8b0018913ca4,09/12/1937,2020-09-03_19h41.16.401,proactive2,2020.1.2,Linux x86_64,60,5f5126bb654d4b30ee6923d8,5f513836e96b0433f752330c,1,,,,,,dice,,,,,,,,,,,6,0,0,16,16,54,1,,,,,,,,,,,,,,,,,,,,,,,,,,,,,,,,,,,,,,,,,,,,,,,,,,,,,,,,,,,,,,,,,,,,,,,,,,,,,,,,,,,,,,,,,,,,,,
,,LEADER,3.4761,1,,,,,,stimuli/images/PICTURE_160.png,LEADER,5d0ca909a37d8b0018913ca4,09/12/1937,2020-09-03_19h41.16.401,proactive2,2020.1.2,Linux x86_64,60,5f5126bb654d4b30ee6923d8,5f513836e96b0433f752330c,1,,,,,,wheelbarrow,,,,,,,,,,,1,0,0,17,17,3,1,,,,,,,,,,,,,,,,,,,,,,,,,,,,,,,,,,,,,,,,,,,,,,,,,,,,,,,,,,,,,,,,,,,,,,,,,,,,,,,,,,,,,,,,,,,,,,
,,?,0.001005,0,,,,,,stimuli/images/PICTURE_311.png,FRIEND,5d0ca909a37d8b0018913ca4,09/12/1937,2020-09-03_19h41.16.401,proactive2,2020.1.2,Linux x86_64,60,5f5126bb654d4b30ee6923d8,5f513836e96b0433f752330c,1,,,,,,razor,,,,,,,,,,,4,0,0,18,18,34,1,,,,,,,,,,,,,,,,,,,,,,,,,,,,,,,,,,,,,,,,,,,,,,,,,,,,,,,,,,,,,,,,,,,,,,,,,,,,,,,,,,,,,,,,,,,,,,
,,?,0.00065,0,,,,,,stimuli/images/PICTURE_160.png,FEET,5d0ca909a37d8b0018913ca4,09/12/1937,2020-09-03_19h41.16.401,proactive2,2020.1.2,Linux x86_64,60,5f5126bb654d4b30ee6923d8,5f513836e96b0433f752330c,1,,,,,,wheelbarrow,,,,,,,,,,,6,0,0,19,19,58,1,,,,,,,,,,,,,,,,,,,,,,,,,,,,,,,,,,,,,,,,,,,,,,,,,,,,,,,,,,,,,,,,,,,,,,,,,,,,,,,,,,,,,,,,,,,,,,
,,?,0.000675,0,,,,,,stimuli/images/PICTURE_233.png,WOMEN,5d0ca909a37d8b0018913ca4,09/12/1937,2020-09-03_19h41.16.401,proactive2,2020.1.2,Linux x86_64,60,5f5126bb654d4b30ee6923d8,5f513836e96b0433f752330c,1,,,,,,salt,,,,,,,,,,,4,0,0,20,20,38,1,,,,,,,,,,,,,,,,,,,,,,,,,,,,,,,,,,,,,,,,,,,,,,,,,,,,,,,,,,,,,,,,,,,,,,,,,,,,,,,,,,,,,,,,,,,,,,
,,?,0.000595,0,,,,,,stimuli/images/PICTURE_208.png,THING,5d0ca909a37d8b0018913ca4,09/12/1937,2020-09-03_19h41.16.401,proactive2,2020.1.2,Linux x86_64,60,5f5126bb654d4b30ee6923d8,5f513836e96b0433f752330c,1,,,,,,microphone,,,,,,,,,,,5,0,0,21,21,47,1,,,,,,,,,,,,,,,,,,,,,,,,,,,,,,,,,,,,,,,,,,,,,,,,,,,,,,,,,,,,,,,,,,,,,,,,,,,,,,,,,,,,,,,,,,,,,,
,,?,0.00065,0,,,,,,stimuli/images/PICTURE_311.png,BEAUTY,5d0ca909a37d8b0018913ca4,09/12/1937,2020-09-03_19h41.16.401,proactive2,2020.1.2,Linux x86_64,60,5f5126bb654d4b30ee6923d8,5f513836e96b0433f752330c,1,,,,,,razor,,,,,,,,,,,2,0,0,22,22,13,1,,,,,,,,,,,,,,,,,,,,,,,,,,,,,,,,,,,,,,,,,,,,,,,,,,,,,,,,,,,,,,,,,,,,,,,,,,,,,,,,,,,,,,,,,,,,,,
,,?,0.00061,0,,,,,,stimuli/images/PICTURE_147.png,MOMENT,5d0ca909a37d8b0018913ca4,09/12/1937,2020-09-03_19h41.16.401,proactive2,2020.1.2,Linux x86_64,60,5f5126bb654d4b30ee6923d8,5f513836e96b0433f752330c,1,,,,,,hanger,,,,,,,,,,,6,0,0,23,23,51,1,,,,,,,,,,,,,,,,,,,,,,,,,,,,,,,,,,,,,,,,,,,,,,,,,,,,,,,,,,,,,,,,,,,,,,,,,,,,,,,,,,,,,,,,,,,,,,
,,?,0.000645,0,,,,,,stimuli/images/PICTURE_123.png,ADVICE,5d0ca909a37d8b0018913ca4,09/12/1937,2020-09-03_19h41.16.401,proactive2,2020.1.2,Linux x86_64,60,5f5126bb654d4b30ee6923d8,5f513836e96b0433f752330c,1,,,,,,dart,,,,,,,,,,,5,0,0,24,24,40,1,,,,,,,,,,,,,,,,,,,,,,,,,,,,,,,,,,,,,,,,,,,,,,,,,,,,,,,,,,,,,,,,,,,,,,,,,,,,,,,,,,,,,,,,,,,,,,
,,PLENTY,2.58127,1,,,,,,stimuli/images/PICTURE_339.png,PLENTY,5d0ca909a37d8b0018913ca4,09/12/1937,2020-09-03_19h41.16.401,proactive2,2020.1.2,Linux x86_64,60,5f5126bb654d4b30ee6923d8,5f513836e96b0433f752330c,1,,,,,,backpack,,,,,,,,,,,1,0,0,25,25,0,1,,,,,,,,,,,,,,,,,,,,,,,,,,,,,,,,,,,,,,,,,,,,,,,,,,,,,,,,,,,,,,,,,,,,,,,,,,,,,,,,,,,,,,,,,,,,,,
,,?,0.000925,0,,,,,,stimuli/images/PICTURE_215.png,PLENTY,5d0ca909a37d8b0018913ca4,09/12/1937,2020-09-03_19h41.16.401,proactive2,2020.1.2,Linux x86_64,60,5f5126bb654d4b30ee6923d8,5f513836e96b0433f752330c,1,,,,,,boot,,,,,,,,,,,4,0,0,26,26,37,1,,,,,,,,,,,,,,,,,,,,,,,,,,,,,,,,,,,,,,,,,,,,,,,,,,,,,,,,,,,,,,,,,,,,,,,,,,,,,,,,,,,,,,,,,,,,,,
,,SAKE,1.985785,1,,,,,,stimuli/images/PICTURE_314.png,SAKE,5d0ca909a37d8b0018913ca4,09/12/1937,2020-09-03_19h41.16.401,proactive2,2020.1.2,Linux x86_64,60,5f5126bb654d4b30ee6923d8,5f513836e96b0433f752330c,1,,,,,,perfume,,,,,,,,,,,1,0,0,27,27,7,1,,,,,,,,,,,,,,,,,,,,,,,,,,,,,,,,,,,,,,,,,,,,,,,,,,,,,,,,,,,,,,,,,,,,,,,,,,,,,,,,,,,,,,,,,,,,,,
,,?,0.001005,0,,,,,,stimuli/images/PICTURE_123.png,ADVICE,5d0ca909a37d8b0018913ca4,09/12/1937,2020-09-03_19h41.16.401,proactive2,2020.1.2,Linux x86_64,60,5f5126bb654d4b30ee6923d8,5f513836e96b0433f752330c,1,,,,,,dart,,,,,,,,,,,6,0,0,28,28,50,1,,,,,,,,,,,,,,,,,,,,,,,,,,,,,,,,,,,,,,,,,,,,,,,,,,,,,,,,,,,,,,,,,,,,,,,,,,,,,,,,,,,,,,,,,,,,,,
,,?,0.00099,0,,,,,,stimuli/images/PICTURE_285.png,ADVICE,5d0ca909a37d8b0018913ca4,09/12/1937,2020-09-03_19h41.16.401,proactive2,2020.1.2,Linux x86_64,60,5f5126bb654d4b30ee6923d8,5f513836e96b0433f752330c,1,,,,,,carrot,,,,,,,,,,,2,0,0,29,29,12,1,,,,,,,,,,,,,,,,,,,,,,,,,,,,,,,,,,,,,,,,,,,,,,,,,,,,,,,,,,,,,,,,,,,,,,,,,,,,,,,,,,,,,,,,,,,,,,
,,?,0.000935,0,,,,,,stimuli/images/PICTURE_248.png,DOZEN,5d0ca909a37d8b0018913ca4,09/12/1937,2020-09-03_19h41.16.401,proactive2,2020.1.2,Linux x86_64,60,5f5126bb654d4b30ee6923d8,5f513836e96b0433f752330c,1,,,,,,cart,,,,,,,,,,,4,0,0,30,30,39,1,,,,,,,,,,,,,,,,,,,,,,,,,,,,,,,,,,,,,,,,,,,,,,,,,,,,,,,,,,,,,,,,,,,,,,,,,,,,,,,,,,,,,,,,,,,,,,
,,?,0.000755,0,,,,,,stimuli/images/PICTURE_233.png,IDEAS,5d0ca909a37d8b0018913ca4,09/12/1937,2020-09-03_19h41.16.401,proactive2,2020.1.2,Linux x86_64,60,5f5126bb654d4b30ee6923d8,5f513836e96b0433f752330c,1,,,,,,salt,,,,,,,,,,,3,0,0,31,31,28,1,,,,,,,,,,,,,,,,,,,,,,,,,,,,,,,,,,,,,,,,,,,,,,,,,,,,,,,,,,,,,,,,,,,,,,,,,,,,,,,,,,,,,,,,,,,,,,
,,?,0.00084,0,,,,,,stimuli/images/PICTURE_708.png,PENNY,5d0ca909a37d8b0018913ca4,09/12/1937,2020-09-03_19h41.16.401,proactive2,2020.1.2,Linux x86_64,60,5f5126bb654d4b30ee6923d8,5f513836e96b0433f752330c,1,,,,,,monkey,,,,,,,,,,,4,0,0,32,32,31,1,,,,,,,,,,,,,,,,,,,,,,,,,,,,,,,,,,,,,,,,,,,,,,,,,,,,,,,,,,,,,,,,,,,,,,,,,,,,,,,,,,,,,,,,,,,,,,
,,WATER,7.895115,0,,,,,,stimuli/images/PICTURE_667.png,BATH,5d0ca909a37d8b0018913ca4,09/12/1937,2020-09-03_19h41.16.401,proactive2,2020.1.2,Linux x86_64,60,5f5126bb654d4b30ee6923d8,5f513836e96b0433f752330c,1,,,,,,daisy,,,,,,,,,,,1,0,0,33,33,4,1,,,,,,,,,,,,,,,,,,,,,,,,,,,,,,,,,,,,,,,,,,,,,,,,,,,,,,,,,,,,,,,,,,,,,,,,,,,,,,,,,,,,,,,,,,,,,,
,,?,0.000905,0,,,,,,stimuli/images/PICTURE_509.png,PHOTO,5d0ca909a37d8b0018913ca4,09/12/1937,2020-09-03_19h41.16.401,proactive2,2020.1.2,Linux x86_64,60,5f5126bb654d4b30ee6923d8,5f513836e96b0433f752330c,1,,,,,,telephone,,,,,,,,,,,3,0,0,34,34,21,1,,,,,,,,,,,,,,,,,,,,,,,,,,,,,,,,,,,,,,,,,,,,,,,,,,,,,,,,,,,,,,,,,,,,,,,,,,,,,,,,,,,,,,,,,,,,,,
,,?,5.94558,0,,,,,,stimuli/images/PICTURE_504.png,BODY,5d0ca909a37d8b0018913ca4,09/12/1937,2020-09-03_19h41.16.401,proactive2,2020.1.2,Linux x86_64,60,5f5126bb654d4b30ee6923d8,5f513836e96b0433f752330c,1,,,,,,wheel,,,,,,,,,,,1,0,0,35,35,8,1,,,,,,,,,,,,,,,,,,,,,,,,,,,,,,,,,,,,,,,,,,,,,,,,,,,,,,,,,,,,,,,,,,,,,,,,,,,,,,,,,,,,,,,,,,,,,,
,,?,0.000975,0,,,,,,stimuli/images/PICTURE_302.png,FAMILY,5d0ca909a37d8b0018913ca4,09/12/1937,2020-09-03_19h41.16.401,proactive2,2020.1.2,Linux x86_64,60,5f5126bb654d4b30ee6923d8,5f513836e96b0433f752330c,1,,,,,,taxi,,,,,,,,,,,2,0,0,36,36,18,1,,,,,,,,,,,,,,,,,,,,,,,,,,,,,,,,,,,,,,,,,,,,,,,,,,,,,,,,,,,,,,,,,,,,,,,,,,,,,,,,,,,,,,,,,,,,,,
,,?,0.00059,0,,,,,,stimuli/images/PICTURE_380.png,PHOTO,5d0ca909a37d8b0018913ca4,09/12/1937,2020-09-03_19h41.16.401,proactive2,2020.1.2,Linux x86_64,60,5f5126bb654d4b30ee6923d8,5f513836e96b0433f752330c,1,,,,,,gorilla,,,,,,,,,,,6,0,0,37,37,52,1,,,,,,,,,,,,,,,,,,,,,,,,,,,,,,,,,,,,,,,,,,,,,,,,,,,,,,,,,,,,,,,,,,,,,,,,,,,,,,,,,,,,,,,,,,,,,,
,,?,0.000585,0,,,,,,stimuli/images/PICTURE_467.png,DEMON,5d0ca909a37d8b0018913ca4,09/12/1937,2020-09-03_19h41.16.401,proactive2,2020.1.2,Linux x86_64,60,5f5126bb654d4b30ee6923d8,5f513836e96b0433f752330c,1,,,,,,peg,,,,,,,,,,,3,0,0,38,38,23,1,,,,,,,,,,,,,,,,,,,,,,,,,,,,,,,,,,,,,,,,,,,,,,,,,,,,,,,,,,,,,,,,,,,,,,,,,,,,,,,,,,,,,,,,,,,,,,
,,?,0.00084,0,,,,,,stimuli/images/PICTURE_85.png,THING,5d0ca909a37d8b0018913ca4,09/12/1937,2020-09-03_19h41.16.401,proactive2,2020.1.2,Linux x86_64,60,5f5126bb654d4b30ee6923d8,5f513836e96b0433f752330c,1,,,,,,diamond,,,,,,,,,,,2,0,0,39,39,15,1,,,,,,,,,,,,,,,,,,,,,,,,,,,,,,,,,,,,,,,,,,,,,,,,,,,,,,,,,,,,,,,,,,,,,,,,,,,,,,,,,,,,,,,,,,,,,,
,,PACK,7.93002,0,,,,,,stimuli/images/PICTURE_487.png,FLIGHT,5d0ca909a37d8b0018913ca4,09/12/1937,2020-09-03_19h41.16.401,proactive2,2020.1.2,Linux x86_64,60,5f5126bb654d4b30ee6923d8,5f513836e96b0433f752330c,1,,,,,,basket,,,,,,,,,,,1,0,0,40,40,9,1,,,,,,,,,,,,,,,,,,,,,,,,,,,,,,,,,,,,,,,,,,,,,,,,,,,,,,,,,,,,,,,,,,,,,,,,,,,,,,,,,,,,,,,,,,,,,,
,,?,0.000905,0,,,,,,stimuli/images/PICTURE_348.png,SPEECH,5d0ca909a37d8b0018913ca4,09/12/1937,2020-09-03_19h41.16.401,proactive2,2020.1.2,Linux x86_64,60,5f5126bb654d4b30ee6923d8,5f513836e96b0433f752330c,1,,,,,,pepper,,,,,,,,,,,3,0,0,41,41,20,1,,,,,,,,,,,,,,,,,,,,,,,,,,,,,,,,,,,,,,,,,,,,,,,,,,,,,,,,,,,,,,,,,,,,,,,,,,,,,,,,,,,,,,,,,,,,,,
,,?,0.00062,0,,,,,,stimuli/images/PICTURE_208.png,MONTH,5d0ca909a37d8b0018913ca4,09/12/1937,2020-09-03_19h41.16.401,proactive2,2020.1.2,Linux x86_64,60,5f5126bb654d4b30ee6923d8,5f513836e96b0433f752330c,1,,,,,,microphone,,,,,,,,,,,6,0,0,42,42,53,1,,,,,,,,,,,,,,,,,,,,,,,,,,,,,,,,,,,,,,,,,,,,,,,,,,,,,,,,,,,,,,,,,,,,,,,,,,,,,,,,,,,,,,,,,,,,,,
,,FAMILY,8.114035,0,,,,,,stimuli/images/PICTURE_708.png,CLIENT,5d0ca909a37d8b0018913ca4,09/12/1937,2020-09-03_19h41.16.401,proactive2,2020.1.2,Linux x86_64,60,5f5126bb654d4b30ee6923d8,5f513836e96b0433f752330c,1,,,,,,monkey,,,,,,,,,,,1,0,0,43,43,5,1,,,,,,,,,,,,,,,,,,,,,,,,,,,,,,,,,,,,,,,,,,,,,,,,,,,,,,,,,,,,,,,,,,,,,,,,,,,,,,,,,,,,,,,,,,,,,,
,,?,0.00139,0,,,,,,stimuli/images/PICTURE_708.png,YARD,5d0ca909a37d8b0018913ca4,09/12/1937,2020-09-03_19h41.16.401,proactive2,2020.1.2,Linux x86_64,60,5f5126bb654d4b30ee6923d8,5f513836e96b0433f752330c,1,,,,,,monkey,,,,,,,,,,,3,0,0,44,44,29,1,,,,,,,,,,,,,,,,,,,,,,,,,,,,,,,,,,,,,,,,,,,,,,,,,,,,,,,,,,,,,,,,,,,,,,,,,,,,,,,,,,,,,,,,,,,,,,
,,?,0.00069,0,,,,,,stimuli/images/PICTURE_688.png,WOMEN,5d0ca909a37d8b0018913ca4,09/12/1937,2020-09-03_19h41.16.401,proactive2,2020.1.2,Linux x86_64,60,5f5126bb654d4b30ee6923d8,5f513836e96b0433f752330c,1,,,,,,runner,,,,,,,,,,,2,0,0,45,45,14,1,,,,,,,,,,,,,,,,,,,,,,,,,,,,,,,,,,,,,,,,,,,,,,,,,,,,,,,,,,,,,,,,,,,,,,,,,,,,,,,,,,,,,,,,,,,,,,
,,?,0.003555,0,,,,,,stimuli/images/PICTURE_177.png,CARS,5d0ca909a37d8b0018913ca4,09/12/1937,2020-09-03_19h41.16.401,proactive2,2020.1.2,Linux x86_64,60,5f5126bb654d4b30ee6923d8,5f513836e96b0433f752330c,1,,,,,,mushroom,,,,,,,,,,,4,0,0,46,46,35,1,,,,,,,,,,,,,,,,,,,,,,,,,,,,,,,,,,,,,,,,,,,,,,,,,,,,,,,,,,,,,,,,,,,,,,,,,,,,,,,,,,,,,,,,,,,,,,
,,?,0.00062,0,,,,,,stimuli/images/PICTURE_675.png,WEAPON,5d0ca909a37d8b0018913ca4,09/12/1937,2020-09-03_19h41.16.401,proactive2,2020.1.2,Linux x86_64,60,5f5126bb654d4b30ee6923d8,5f513836e96b0433f752330c,1,,,,,,windmill,,,,,,,,,,,4,0,0,47,47,32,1,,,,,,,,,,,,,,,,,,,,,,,,,,,,,,,,,,,,,,,,,,,,,,,,,,,,,,,,,,,,,,,,,,,,,,,,,,,,,,,,,,,,,,,,,,,,,,
,,?,0.000625,0,,,,,,stimuli/images/PICTURE_151.png,GIRL,5d0ca909a37d8b0018913ca4,09/12/1937,2020-09-03_19h41.16.401,proactive2,2020.1.2,Linux x86_64,60,5f5126bb654d4b30ee6923d8,5f513836e96b0433f752330c,1,,,,,,tray,,,,,,,,,,,2,0,0,48,48,19,1,,,,,,,,,,,,,,,,,,,,,,,,,,,,,,,,,,,,,,,,,,,,,,,,,,,,,,,,,,,,,,,,,,,,,,,,,,,,,,,,,,,,,,,,,,,,,,
,,?,0.00058,0,,,,,,stimuli/images/PICTURE_255.png,AREA,5d0ca909a37d8b0018913ca4,09/12/1937,2020-09-03_19h41.16.401,proactive2,2020.1.2,Linux x86_64,60,5f5126bb654d4b30ee6923d8,5f513836e96b0433f752330c,1,,,,,,shovel,,,,,,,,,,,3,0,0,49,49,22,1,,,,,,,,,,,,,,,,,,,,,,,,,,,,,,,,,,,,,,,,,,,,,,,,,,,,,,,,,,,,,,,,,,,,,,,,,,,,,,,,,,,,,,,,,,,,,,
,,?,0.000585,0,,,,,,stimuli/images/PICTURE_453.png,PLENTY,5d0ca909a37d8b0018913ca4,09/12/1937,2020-09-03_19h41.16.401,proactive2,2020.1.2,Linux x86_64,60,5f5126bb654d4b30ee6923d8,5f513836e96b0433f752330c,1,,,,,,scissors,,,,,,,,,,,6,0,0,50,50,56,1,,,,,,,,,,,,,,,,,,,,,,,,,,,,,,,,,,,,,,,,,,,,,,,,,,,,,,,,,,,,,,,,,,,,,,,,,,,,,,,,,,,,,,,,,,,,,,
,,?,0.000625,0,,,,,,stimuli/images/PICTURE_677.png,MILE,5d0ca909a37d8b0018913ca4,09/12/1937,2020-09-03_19h41.16.401,proactive2,2020.1.2,Linux x86_64,60,5f5126bb654d4b30ee6923d8,5f513836e96b0433f752330c,1,,,,,,map,,,,,,,,,,,4,0,0,51,51,30,1,,,,,,,,,,,,,,,,,,,,,,,,,,,,,,,,,,,,,,,,,,,,,,,,,,,,,,,,,,,,,,,,,,,,,,,,,,,,,,,,,,,,,,,,,,,,,,
,,?,0.00063,0,,,,,,stimuli/images/PICTURE_356.png,DANGER,5d0ca909a37d8b0018913ca4,09/12/1937,2020-09-03_19h41.16.401,proactive2,2020.1.2,Linux x86_64,60,5f5126bb654d4b30ee6923d8,5f513836e96b0433f752330c,1,,,,,,pawn,,,,,,,,,,,6,0,0,52,52,55,1,,,,,,,,,,,,,,,,,,,,,,,,,,,,,,,,,,,,,,,,,,,,,,,,,,,,,,,,,,,,,,,,,,,,,,,,,,,,,,,,,,,,,,,,,,,,,,
,,?,0.00061,0,,,,,,stimuli/images/PICTURE_314.png,GODS,5d0ca909a37d8b0018913ca4,09/12/1937,2020-09-03_19h41.16.401,proactive2,2020.1.2,Linux x86_64,60,5f5126bb654d4b30ee6923d8,5f513836e96b0433f752330c,1,,,,,,perfume,,,,,,,,,,,2,0,0,53,53,11,1,,,,,,,,,,,,,,,,,,,,,,,,,,,,,,,,,,,,,,,,,,,,,,,,,,,,,,,,,,,,,,,,,,,,,,,,,,,,,,,,,,,,,,,,,,,,,,
,,?,0.00057,0,,,,,,stimuli/images/PICTURE_692.png,MONTH,5d0ca909a37d8b0018913ca4,09/12/1937,2020-09-03_19h41.16.401,proactive2,2020.1.2,Linux x86_64,60,5f5126bb654d4b30ee6923d8,5f513836e96b0433f752330c,1,,,,,,cherry,,,,,,,,,,,2,0,0,54,54,16,1,,,,,,,,,,,,,,,,,,,,,,,,,,,,,,,,,,,,,,,,,,,,,,,,,,,,,,,,,,,,,,,,,,,,,,,,,,,,,,,,,,,,,,,,,,,,,,
,,?,0.000525,0,,,,,,stimuli/images/PICTURE_32.png,JUNGLE,5d0ca909a37d8b0018913ca4,09/12/1937,2020-09-03_19h41.16.401,proactive2,2020.1.2,Linux x86_64,60,5f5126bb654d4b30ee6923d8,5f513836e96b0433f752330c,1,,,,,,crown,,,,,,,,,,,5,0,0,55,55,45,1,,,,,,,,,,,,,,,,,,,,,,,,,,,,,,,,,,,,,,,,,,,,,,,,,,,,,,,,,,,,,,,,,,,,,,,,,,,,,,,,,,,,,,,,,,,,,,
,,?,0.00074,0,,,,,,stimuli/images/PICTURE_744.png,SAKE,5d0ca909a37d8b0018913ca4,09/12/1937,2020-09-03_19h41.16.401,proactive2,2020.1.2,Linux x86_64,60,5f5126bb654d4b30ee6923d8,5f513836e96b0433f752330c,1,,,,,,ring,,,,,,,,,,,2,0,0,56,56,17,1,,,,,,,,,,,,,,,,,,,,,,,,,,,,,,,,,,,,,,,,,,,,,,,,,,,,,,,,,,,,,,,,,,,,,,,,,,,,,,,,,,,,,,,,,,,,,,
,,VALLEY,10.700495,1,,,,,,stimuli/images/PICTURE_654.png,VALLEY,5d0ca909a37d8b0018913ca4,09/12/1937,2020-09-03_19h41.16.401,proactive2,2020.1.2,Linux x86_64,60,5f5126bb654d4b30ee6923d8,5f513836e96b0433f752330c,1,,,,,,pencil,,,,,,,,,,,1,0,0,57,57,1,1,,,,,,,,,,,,,,,,,,,,,,,,,,,,,,,,,,,,,,,,,,,,,,,,,,,,,,,,,,,,,,,,,,,,,,,,,,,,,,,,,,,,,,,,,,,,,,
,,ARTIST,3.35233,1,,,,,,stimuli/images/PICTURE_469.png,ARTIST,5d0ca909a37d8b0018913ca4,09/12/1937,2020-09-03_19h41.16.401,proactive2,2020.1.2,Linux x86_64,60,5f5126bb654d4b30ee6923d8,5f513836e96b0433f752330c,1,,,,,,stool,,,,,,,,,,,1,0,0,58,58,6,1,,,,,,,,,,,,,,,,,,,,,,,,,,,,,,,,,,,,,,,,,,,,,,,,,,,,,,,,,,,,,,,,,,,,,,,,,,,,,,,,,,,,,,,,,,,,,,
,,?,0.001175,0,,,,,,stimuli/images/PICTURE_488.png,STYLE,5d0ca909a37d8b0018913ca4,09/12/1937,2020-09-03_19h41.16.401,proactive2,2020.1.2,Linux x86_64,60,5f5126bb654d4b30ee6923d8,5f513836e96b0433f752330c,1,,,,,,sun,,,,,,,,,,,4,0,0,59,59,33,1,,,,,,,,,,,,,,,,,,,,,,,,,,,,,,,,,,,,,,,,,,,,,,,,,,,,,,,,,,,,,,,,,,,,,,,,,,,,,,,,,,,,,,,,,,,,,,
,,,,,,,,,,,,5d0ca909a37d8b0018913ca4,09/12/1937,2020-09-03_19h41.16.401,proactive2,2020.1.2,Linux x86_64,60,5f5126bb654d4b30ee6923d8,5f513836e96b0433f752330c,1,,,,,,,,,,,,,,,,,,,,,,,,0,1,1,0,1,stimuli/learn-block1.csv,,,,,,,,,,,,,,,,,,,,,,,,,,,,,,,,,,,,,,,,,,,,,,,,,,,,,,,,,,,,,,,,,,,,,,,,,,,,,,,,,,,,,,,,
,,,,,,,,,,stimuli/images/PICTURE_2.png,FLIGHT,5d0ca909a37d8b0018913ca4,09/12/1937,2020-09-03_19h41.16.401,proactive2,2020.1.2,Linux x86_64,60,5f5126bb654d4b30ee6923d8,5f513836e96b0433f752330c,1,,,,,,tyre,,,,,,0,0,0,15,1,2,1,,,,,,,,,,,,,,,,,,,,,,,,,,,,,,,,,,,,,,,,,,,,,,,,,,,,,,,,,,,,,,,,,,,,,,,,,,,,,,,,,,,,,,,,,,,,,,,,,,,
,,,,,,,,,,stimuli/images/PICTURE_327.png,CASINO,5d0ca909a37d8b0018913ca4,09/12/1937,2020-09-03_19h41.16.401,proactive2,2020.1.2,Linux x86_64,60,5f5126bb654d4b30ee6923d8,5f513836e96b0433f752330c,1,,,,,,helmet,,,,,,0,1,1,20,1,3,1,,,,,,,,,,,,,,,,,,,,,,,,,,,,,,,,,,,,,,,,,,,,,,,,,,,,,,,,,,,,,,,,,,,,,,,,,,,,,,,,,,,,,,,,,,,,,,,,,,,
,,,,,,,,,,stimuli/images/PICTURE_467.png,POLICY,5d0ca909a37d8b0018913ca4,09/12/1937,2020-09-03_19h41.16.401,proactive2,2020.1.2,Linux x86_64,60,5f5126bb654d4b30ee6923d8,5f513836e96b0433f752330c,1,,,,,,peg,,,,,,0,2,2,53,1,6,1,,,,,,,,,,,,,,,,,,,,,,,,,,,,,,,,,,,,,,,,,,,,,,,,,,,,,,,,,,,,,,,,,,,,,,,,,,,,,,,,,,,,,,,,,,,,,,,,,,,
,,,,,,,,,,stimuli/images/PICTURE_208.png,SYSTEM,5d0ca909a37d8b0018913ca4,09/12/1937,2020-09-03_19h41.16.401,proactive2,2020.1.2,Linux x86_64,60,5f5126bb654d4b30ee6923d8,5f513836e96b0433f752330c,1,,,,,,microphone,,,,,,0,3,3,32,1,4,1,,,,,,,,,,,,,,,,,,,,,,,,,,,,,,,,,,,,,,,,,,,,,,,,,,,,,,,,,,,,,,,,,,,,,,,,,,,,,,,,,,,,,,,,,,,,,,,,,,,
,,,,,,,,,,stimuli/images/PICTURE_68.png,ROOF,5d0ca909a37d8b0018913ca4,09/12/1937,2020-09-03_19h41.16.401,proactive2,2020.1.2,Linux x86_64,60,5f5126bb654d4b30ee6923d8,5f513836e96b0433f752330c,1,,,,,,candle,,,,,,0,4,4,38,1,4,1,,,,,,,,,,,,,,,,,,,,,,,,,,,,,,,,,,,,,,,,,,,,,,,,,,,,,,,,,,,,,,,,,,,,,,,,,,,,,,,,,,,,,,,,,,,,,,,,,,,
,,,,,,,,,,stimuli/images/PICTURE_32.png,PILLS,5d0ca909a37d8b0018913ca4,09/12/1937,2020-09-03_19h41.16.401,proactive2,2020.1.2,Linux x86_64,60,5f5126bb654d4b30ee6923d8,5f513836e96b0433f752330c,1,,,,,,crown,,,,,,0,5,5,18,1,2,1,,,,,,,,,,,,,,,,,,,,,,,,,,,,,,,,,,,,,,,,,,,,,,,,,,,,,,,,,,,,,,,,,,,,,,,,,,,,,,,,,,,,,,,,,,,,,,,,,,,
,,,,,,,,,,stimuli/images/PICTURE_95.png,MILLER,5d0ca909a37d8b0018913ca4,09/12/1937,2020-09-03_19h41.16.401,proactive2,2020.1.2,Linux x86_64,60,5f5126bb654d4b30ee6923d8,5f513836e96b0433f752330c,1,,,,,,suitcase,,,,,,0,6,6,56,1,6,1,,,,,,,,,,,,,,,,,,,,,,,,,,,,,,,,,,,,,,,,,,,,,,,,,,,,,,,,,,,,,,,,,,,,,,,,,,,,,,,,,,,,,,,,,,,,,,,,,,,
,,,,,,,,,,stimuli/images/PICTURE_504.png,COPS,5d0ca909a37d8b0018913ca4,09/12/1937,2020-09-03_19h41.16.401,proactive2,2020.1.2,Linux x86_64,60,5f5126bb654d4b30ee6923d8,5f513836e96b0433f752330c,1,,,,,,wheel,,,,,,0,7,7,52,1,6,1,,,,,,,,,,,,,,,,,,,,,,,,,,,,,,,,,,,,,,,,,,,,,,,,,,,,,,,,,,,,,,,,,,,,,,,,,,,,,,,,,,,,,,,,,,,,,,,,,,,
,,,,,,,,,,stimuli/images/PICTURE_32.png,KIND,5d0ca909a37d8b0018913ca4,09/12/1937,2020-09-03_19h41.16.401,proactive2,2020.1.2,Linux x86_64,60,5f5126bb654d4b30ee6923d8,5f513836e96b0433f752330c,1,,,,,,crown,,,,,,0,8,8,35,1,4,1,,,,,,,,,,,,,,,,,,,,,,,,,,,,,,,,,,,,,,,,,,,,,,,,,,,,,,,,,,,,,,,,,,,,,,,,,,,,,,,,,,,,,,,,,,,,,,,,,,,
,,,,,,,,,,stimuli/images/PICTURE_285.png,LIFE,5d0ca909a37d8b0018913ca4,09/12/1937,2020-09-03_19h41.16.401,proactive2,2020.1.2,Linux x86_64,60,5f5126bb654d4b30ee6923d8,5f513836e96b0433f752330c,1,,,,,,carrot,,,,,,0,9,9,33,1,4,1,,,,,,,,,,,,,,,,,,,,,,,,,,,,,,,,,,,,,,,,,,,,,,,,,,,,,,,,,,,,,,,,,,,,,,,,,,,,,,,,,,,,,,,,,,,,,,,,,,,
,,,,,,,,,,stimuli/images/PICTURE_327.png,SERIES,5d0ca909a37d8b0018913ca4,09/12/1937,2020-09-03_19h41.16.401,proactive2,2020.1.2,Linux x86_64,60,5f5126bb654d4b30ee6923d8,5f513836e96b0433f752330c,1,,,,,,helmet,,,,,,0,10,10,3,1,1,1,,,,,,,,,,,,,,,,,,,,,,,,,,,,,,,,,,,,,,,,,,,,,,,,,,,,,,,,,,,,,,,,,,,,,,,,,,,,,,,,,,,,,,,,,,,,,,,,,,,
,,,,,,,,,,stimuli/images/PICTURE_339.png,CLIENT,5d0ca909a37d8b0018913ca4,09/12/1937,2020-09-03_19h41.16.401,proactive2,2020.1.2,Linux x86_64,60,5f5126bb654d4b30ee6923d8,5f513836e96b0433f752330c,1,,,,,,backpack,,,,,,0,11,11,11,1,2,1,,,,,,,,,,,,,,,,,,,,,,,,,,,,,,,,,,,,,,,,,,,,,,,,,,,,,,,,,,,,,,,,,,,,,,,,,,,,,,,,,,,,,,,,,,,,,,,,,,,
,,,,,,,,,,stimuli/images/PICTURE_403.png,RIVER,5d0ca909a37d8b0018913ca4,09/12/1937,2020-09-03_19h41.16.401,proactive2,2020.1.2,Linux x86_64,60,5f5126bb654d4b30ee6923d8,5f513836e96b0433f752330c,1,,,,,,cathedral,,,,,,0,12,12,40,1,5,1,,,,,,,,,,,,,,,,,,,,,,,,,,,,,,,,,,,,,,,,,,,,,,,,,,,,,,,,,,,,,,,,,,,,,,,,,,,,,,,,,,,,,,,,,,,,,,,,,,,
,,,,,,,,,,stimuli/images/PICTURE_340.png,VALLEY,5d0ca909a37d8b0018913ca4,09/12/1937,2020-09-03_19h41.16.401,proactive2,2020.1.2,Linux x86_64,60,5f5126bb654d4b30ee6923d8,5f513836e96b0433f752330c,1,,,,,,mirror,,,,,,0,13,13,54,1,6,1,,,,,,,,,,,,,,,,,,,,,,,,,,,,,,,,,,,,,,,,,,,,,,,,,,,,,,,,,,,,,,,,,,,,,,,,,,,,,,,,,,,,,,,,,,,,,,,,,,,
,,,,,,,,,,stimuli/images/PICTURE_308.png,FAMILY,5d0ca909a37d8b0018913ca4,09/12/1937,2020-09-03_19h41.16.401,proactive2,2020.1.2,Linux x86_64,60,5f5126bb654d4b30ee6923d8,5f513836e96b0433f752330c,1,,,,,,dice,,,,,,0,14,14,36,1,4,1,,,,,,,,,,,,,,,,,,,,,,,,,,,,,,,,,,,,,,,,,,,,,,,,,,,,,,,,,,,,,,,,,,,,,,,,,,,,,,,,,,,,,,,,,,,,,,,,,,,
,,,,,,,,,,stimuli/images/PICTURE_380.png,CANDY,5d0ca909a37d8b0018913ca4,09/12/1937,2020-09-03_19h41.16.401,proactive2,2020.1.2,Linux x86_64,60,5f5126bb654d4b30ee6923d8,5f513836e96b0433f752330c,1,,,,,,gorilla,,,,,,0,15,15,0,1,1,1,,,,,,,,,,,,,,,,,,,,,,,,,,,,,,,,,,,,,,,,,,,,,,,,,,,,,,,,,,,,,,,,,,,,,,,,,,,,,,,,,,,,,,,,,,,,,,,,,,,
,,,,,,,,,,stimuli/images/PICTURE_654.png,MONTH,5d0ca909a37d8b0018913ca4,09/12/1937,2020-09-03_19h41.16.401,proactive2,2020.1.2,Linux x86_64,60,5f5126bb654d4b30ee6923d8,5f513836e96b0433f752330c,1,,,,,,pencil,,,,,,0,16,16,29,1,3,1,,,,,,,,,,,,,,,,,,,,,,,,,,,,,,,,,,,,,,,,,,,,,,,,,,,,,,,,,,,,,,,,,,,,,,,,,,,,,,,,,,,,,,,,,,,,,,,,,,,
,,,,,,,,,,stimuli/images/PICTURE_708.png,RECORD,5d0ca909a37d8b0018913ca4,09/12/1937,2020-09-03_19h41.16.401,proactive2,2020.1.2,Linux x86_64,60,5f5126bb654d4b30ee6923d8,5f513836e96b0433f752330c,1,,,,,,monkey,,,,,,0,17,17,58,1,6,1,,,,,,,,,,,,,,,,,,,,,,,,,,,,,,,,,,,,,,,,,,,,,,,,,,,,,,,,,,,,,,,,,,,,,,,,,,,,,,,,,,,,,,,,,,,,,,,,,,,
,,,,,,,,,,stimuli/images/PICTURE_469.png,AGENT,5d0ca909a37d8b0018913ca4,09/12/1937,2020-09-03_19h41.16.401,proactive2,2020.1.2,Linux x86_64,60,5f5126bb654d4b30ee6923d8,5f513836e96b0433f752330c,1,,,,,,stool,,,,,,0,18,18,16,1,2,1,,,,,,,,,,,,,,,,,,,,,,,,,,,,,,,,,,,,,,,,,,,,,,,,,,,,,,,,,,,,,,,,,,,,,,,,,,,,,,,,,,,,,,,,,,,,,,,,,,,
,,,,,,,,,,stimuli/images/PICTURE_203.png,NIGHT,5d0ca909a37d8b0018913ca4,09/12/1937,2020-09-03_19h41.16.401,proactive2,2020.1.2,Linux x86_64,60,5f5126bb654d4b30ee6923d8,5f513836e96b0433f752330c,1,,,,,,cap,,,,,,0,19,19,2,1,1,1,,,,,,,,,,,,,,,,,,,,,,,,,,,,,,,,,,,,,,,,,,,,,,,,,,,,,,,,,,,,,,,,,,,,,,,,,,,,,,,,,,,,,,,,,,,,,,,,,,,
,,,,,,,,,,stimuli/images/PICTURE_667.png,RIVER,5d0ca909a37d8b0018913ca4,09/12/1937,2020-09-03_19h41.16.401,proactive2,2020.1.2,Linux x86_64,60,5f5126bb654d4b30ee6923d8,5f513836e96b0433f752330c,1,,,,,,daisy,,,,,,0,20,20,10,1,2,1,,,,,,,,,,,,,,,,,,,,,,,,,,,,,,,,,,,,,,,,,,,,,,,,,,,,,,,,,,,,,,,,,,,,,,,,,,,,,,,,,,,,,,,,,,,,,,,,,,,
,,,,,,,,,,stimuli/images/PICTURE_685.png,PENNY,5d0ca909a37d8b0018913ca4,09/12/1937,2020-09-03_19h41.16.401,proactive2,2020.1.2,Linux x86_64,60,5f5126bb654d4b30ee6923d8,5f513836e96b0433f752330c,1,,,,,,goose,,,,,,0,21,21,4,1,1,1,,,,,,,,,,,,,,,,,,,,,,,,,,,,,,,,,,,,,,,,,,,,,,,,,,,,,,,,,,,,,,,,,,,,,,,,,,,,,,,,,,,,,,,,,,,,,,,,,,,
,,,,,,,,,,stimuli/images/PICTURE_33.png,FRIEND,5d0ca909a37d8b0018913ca4,09/12/1937,2020-09-03_19h41.16.401,proactive2,2020.1.2,Linux x86_64,60,5f5126bb654d4b30ee6923d8,5f513836e96b0433f752330c,1,,,,,,frame,,,,,,0,22,22,8,1,1,1,,,,,,,,,,,,,,,,,,,,,,,,,,,,,,,,,,,,,,,,,,,,,,,,,,,,,,,,,,,,,,,,,,,,,,,,,,,,,,,,,,,,,,,,,,,,,,,,,,,
,,,,,,,,,,stimuli/images/PICTURE_147.png,YEAR,5d0ca909a37d8b0018913ca4,09/12/1937,2020-09-03_19h41.16.401,proactive2,2020.1.2,Linux x86_64,60,5f5126bb654d4b30ee6923d8,5f513836e96b0433f752330c,1,,,,,,hanger,,,,,,0,23,23,21,1,3,1,,,,,,,,,,,,,,,,,,,,,,,,,,,,,,,,,,,,,,,,,,,,,,,,,,,,,,,,,,,,,,,,,,,,,,,,,,,,,,,,,,,,,,,,,,,,,,,,,,,
,,,,,,,,,,stimuli/images/PICTURE_403.png,WRITER,5d0ca909a37d8b0018913ca4,09/12/1937,2020-09-03_19h41.16.401,proactive2,2020.1.2,Linux x86_64,60,5f5126bb654d4b30ee6923d8,5f513836e96b0433f752330c,1,,,,,,cathedral,,,,,,0,24,24,31,1,4,1,,,,,,,,,,,,,,,,,,,,,,,,,,,,,,,,,,,,,,,,,,,,,,,,,,,,,,,,,,,,,,,,,,,,,,,,,,,,,,,,,,,,,,,,,,,,,,,,,,,
,,,,,,,,,,stimuli/images/PICTURE_744.png,WEAPON,5d0ca909a37d8b0018913ca4,09/12/1937,2020-09-03_19h41.16.401,proactive2,2020.1.2,Linux x86_64,60,5f5126bb654d4b30ee6923d8,5f513836e96b0433f752330c,1,,,,,,ring,,,,,,0,25,25,50,1,6,1,,,,,,,,,,,,,,,,,,,,,,,,,,,,,,,,,,,,,,,,,,,,,,,,,,,,,,,,,,,,,,,,,,,,,,,,,,,,,,,,,,,,,,,,,,,,,,,,,,,
,,,,,,,,,,stimuli/images/PICTURE_405.png,PLENTY,5d0ca909a37d8b0018913ca4,09/12/1937,2020-09-03_19h41.16.401,proactive2,2020.1.2,Linux x86_64,60,5f5126bb654d4b30ee6923d8,5f513836e96b0433f752330c,1,,,,,,anchor,,,,,,0,26,26,23,1,3,1,,,,,,,,,,,,,,,,,,,,,,,,,,,,,,,,,,,,,,,,,,,,,,,,,,,,,,,,,,,,,,,,,,,,,,,,,,,,,,,,,,,,,,,,,,,,,,,,,,,
,,,,,,,,,,stimuli/images/PICTURE_491.png,RIVER,5d0ca909a37d8b0018913ca4,09/12/1937,2020-09-03_19h41.16.401,proactive2,2020.1.2,Linux x86_64,60,5f5126bb654d4b30ee6923d8,5f513836e96b0433f752330c,1,,,,,,rug,,,,,,0,27,27,6,1,1,1,,,,,,,,,,,,,,,,,,,,,,,,,,,,,,,,,,,,,,,,,,,,,,,,,,,,,,,,,,,,,,,,,,,,,,,,,,,,,,,,,,,,,,,,,,,,,,,,,,,
,,,,,,,,,,stimuli/images/PICTURE_677.png,APPLE,5d0ca909a37d8b0018913ca4,09/12/1937,2020-09-03_19h41.16.401,proactive2,2020.1.2,Linux x86_64,60,5f5126bb654d4b30ee6923d8,5f513836e96b0433f752330c,1,,,,,,map,,,,,,0,28,28,43,1,5,1,,,,,,,,,,,,,,,,,,,,,,,,,,,,,,,,,,,,,,,,,,,,,,,,,,,,,,,,,,,,,,,,,,,,,,,,,,,,,,,,,,,,,,,,,,,,,,,,,,,
,,,,,,,,,,stimuli/images/PICTURE_564.png,BATH,5d0ca909a37d8b0018913ca4,09/12/1937,2020-09-03_19h41.16.401,proactive2,2020.1.2,Linux x86_64,60,5f5126bb654d4b30ee6923d8,5f513836e96b0433f752330c,1,,,,,,spoon,,,,,,0,29,29,26,1,3,1,,,,,,,,,,,,,,,,,,,,,,,,,,,,,,,,,,,,,,,,,,,,,,,,,,,,,,,,,,,,,,,,,,,,,,,,,,,,,,,,,,,,,,,,,,,,,,,,,,,
,,,,,,,,,,stimuli/images/PICTURE_95.png,BOYS,5d0ca909a37d8b0018913ca4,09/12/1937,2020-09-03_19h41.16.401,proactive2,2020.1.2,Linux x86_64,60,5f5126bb654d4b30ee6923d8,5f513836e96b0433f752330c,1,,,,,,suitcase,,,,,,0,30,30,1,1,1,1,,,,,,,,,,,,,,,,,,,,,,,,,,,,,,,,,,,,,,,,,,,,,,,,,,,,,,,,,,,,,,,,,,,,,,,,,,,,,,,,,,,,,,,,,,,,,,,,,,,
,,,,,,,,,,stimuli/images/PICTURE_504.png,YEAR,5d0ca909a37d8b0018913ca4,09/12/1937,2020-09-03_19h41.16.401,proactive2,2020.1.2,Linux x86_64,60,5f5126bb654d4b30ee6923d8,5f513836e96b0433f752330c,1,,,,,,wheel,,,,,,0,31,31,13,1,2,1,,,,,,,,,,,,,,,,,,,,,,,,,,,,,,,,,,,,,,,,,,,,,,,,,,,,,,,,,,,,,,,,,,,,,,,,,,,,,,,,,,,,,,,,,,,,,,,,,,,
,,,,,,,,,,stimuli/images/PICTURE_203.png,GODS,5d0ca909a37d8b0018913ca4,09/12/1937,2020-09-03_19h41.16.401,proactive2,2020.1.2,Linux x86_64,60,5f5126bb654d4b30ee6923d8,5f513836e96b0433f752330c,1,,,,,,cap,,,,,,0,32,32,30,1,4,1,,,,,,,,,,,,,,,,,,,,,,,,,,,,,,,,,,,,,,,,,,,,,,,,,,,,,,,,,,,,,,,,,,,,,,,,,,,,,,,,,,,,,,,,,,,,,,,,,,,
,,,,,,,,,,stimuli/images/PICTURE_68.png,MILE,5d0ca909a37d8b0018913ca4,09/12/1937,2020-09-03_19h41.16.401,proactive2,2020.1.2,Linux x86_64,60,5f5126bb654d4b30ee6923d8,5f513836e96b0433f752330c,1,,,,,,candle,,,,,,0,33,33,51,1,6,1,,,,,,,,,,,,,,,,,,,,,,,,,,,,,,,,,,,,,,,,,,,,,,,,,,,,,,,,,,,,,,,,,,,,,,,,,,,,,,,,,,,,,,,,,,,,,,,,,,,
,,,,,,,,,,stimuli/images/PICTURE_108.png,POLICY,5d0ca909a37d8b0018913ca4,09/12/1937,2020-09-03_19h41.16.401,proactive2,2020.1.2,Linux x86_64,60,5f5126bb654d4b30ee6923d8,5f513836e96b0433f752330c,1,,,,,,calendar,,,,,,0,34,34,22,1,3,1,,,,,,,,,,,,,,,,,,,,,,,,,,,,,,,,,,,,,,,,,,,,,,,,,,,,,,,,,,,,,,,,,,,,,,,,,,,,,,,,,,,,,,,,,,,,,,,,,,,
,,,,,,,,,,stimuli/images/PICTURE_297.png,RIVER,5d0ca909a37d8b0018913ca4,09/12/1937,2020-09-03_19h41.16.401,proactive2,2020.1.2,Linux x86_64,60,5f5126bb654d4b30ee6923d8,5f513836e96b0433f752330c,1,,,,,,aeroplane,,,,,,0,35,35,39,1,4,1,,,,,,,,,,,,,,,,,,,,,,,,,,,,,,,,,,,,,,,,,,,,,,,,,,,,,,,,,,,,,,,,,,,,,,,,,,,,,,,,,,,,,,,,,,,,,,,,,,,
,,,,,,,,,,stimuli/images/PICTURE_449.png,DUDE,5d0ca909a37d8b0018913ca4,09/12/1937,2020-09-03_19h41.16.401,proactive2,2020.1.2,Linux x86_64,60,5f5126bb654d4b30ee6923d8,5f513836e96b0433f752330c,1,,,,,,bench,,,,,,0,36,36,17,1,2,1,,,,,,,,,,,,,,,,,,,,,,,,,,,,,,,,,,,,,,,,,,,,,,,,,,,,,,,,,,,,,,,,,,,,,,,,,,,,,,,,,,,,,,,,,,,,,,,,,,,
,,,,,,,,,,stimuli/images/PICTURE_108.png,FLIGHT,5d0ca909a37d8b0018913ca4,09/12/1937,2020-09-03_19h41.16.401,proactive2,2020.1.2,Linux x86_64,60,5f5126bb654d4b30ee6923d8,5f513836e96b0433f752330c,1,,,,,,calendar,,,,,,0,37,37,59,1,6,1,,,,,,,,,,,,,,,,,,,,,,,,,,,,,,,,,,,,,,,,,,,,,,,,,,,,,,,,,,,,,,,,,,,,,,,,,,,,,,,,,,,,,,,,,,,,,,,,,,,
,,,,,,,,,,stimuli/images/PICTURE_383.png,WRITER,5d0ca909a37d8b0018913ca4,09/12/1937,2020-09-03_19h41.16.401,proactive2,2020.1.2,Linux x86_64,60,5f5126bb654d4b30ee6923d8,5f513836e96b0433f752330c,1,,,,,,coin,,,,,,0,38,38,28,1,3,1,,,,,,,,,,,,,,,,,,,,,,,,,,,,,,,,,,,,,,,,,,,,,,,,,,,,,,,,,,,,,,,,,,,,,,,,,,,,,,,,,,,,,,,,,,,,,,,,,,,
,,,,,,,,,,stimuli/images/PICTURE_403.png,TOILET,5d0ca909a37d8b0018913ca4,09/12/1937,2020-09-03_19h41.16.401,proactive2,2020.1.2,Linux x86_64,60,5f5126bb654d4b30ee6923d8,5f513836e96b0433f752330c,1,,,,,,cathedral,,,,,,0,39,39,25,1,3,1,,,,,,,,,,,,,,,,,,,,,,,,,,,,,,,,,,,,,,,,,,,,,,,,,,,,,,,,,,,,,,,,,,,,,,,,,,,,,,,,,,,,,,,,,,,,,,,,,,,
,,,,,,,,,,stimuli/images/PICTURE_233.png,LOTS,5d0ca909a37d8b0018913ca4,09/12/1937,2020-09-03_19h41.16.401,proactive2,2020.1.2,Linux x86_64,60,5f5126bb654d4b30ee6923d8,5f513836e96b0433f752330c,1,,,,,,salt,,,,,,0,40,40,42,1,5,1,,,,,,,,,,,,,,,,,,,,,,,,,,,,,,,,,,,,,,,,,,,,,,,,,,,,,,,,,,,,,,,,,,,,,,,,,,,,,,,,,,,,,,,,,,,,,,,,,,,
,,,,,,,,,,stimuli/images/PICTURE_296.png,LIFE,5d0ca909a37d8b0018913ca4,09/12/1937,2020-09-03_19h41.16.401,proactive2,2020.1.2,Linux x86_64,60,5f5126bb654d4b30ee6923d8,5f513836e96b0433f752330c,1,,,,,,bolt,,,,,,0,41,41,57,1,6,1,,,,,,,,,,,,,,,,,,,,,,,,,,,,,,,,,,,,,,,,,,,,,,,,,,,,,,,,,,,,,,,,,,,,,,,,,,,,,,,,,,,,,,,,,,,,,,,,,,,
,,,,,,,,,,stimuli/images/PICTURE_504.png,ARTIST,5d0ca909a37d8b0018913ca4,09/12/1937,2020-09-03_19h41.16.401,proactive2,2020.1.2,Linux x86_64,60,5f5126bb654d4b30ee6923d8,5f513836e96b0433f752330c,1,,,,,,wheel,,,,,,0,42,42,49,1,5,1,,,,,,,,,,,,,,,,,,,,,,,,,,,,,,,,,,,,,,,,,,,,,,,,,,,,,,,,,,,,,,,,,,,,,,,,,,,,,,,,,,,,,,,,,,,,,,,,,,,
,,,,,,,,,,stimuli/images/PICTURE_85.png,NATION,5d0ca909a37d8b0018913ca4,09/12/1937,2020-09-03_19h41.16.401,proactive2,2020.1.2,Linux x86_64,60,5f5126bb654d4b30ee6923d8,5f513836e96b0433f752330c,1,,,,,,diamond,,,,,,0,43,43,5,1,1,1,,,,,,,,,,,,,,,,,,,,,,,,,,,,,,,,,,,,,,,,,,,,,,,,,,,,,,,,,,,,,,,,,,,,,,,,,,,,,,,,,,,,,,,,,,,,,,,,,,,
