consent_key.keys,consent_key.rt,recalled,recalled_rt,recall_acc,example_recall.thisRepN,example_recall.thisTrialN,example_recall.thisN,example_recall.thisIndex,example_recall.ran,file,word,participant,please enter your date of birth (dd/mm/yyyy),date,expName,psychopyVersion,OS,frameRate,STUDY_ID,SESSION_ID,list,prac_learn_study_loop.thisRepN,prac_learn_study_loop.thisTrialN,prac_learn_study_loop.thisN,prac_learn_study_loop.thisIndex,prac_learn_study_loop.ran,image,prac_learn_test_loop.thisRepN,prac_learn_test_loop.thisTrialN,prac_learn_test_loop.thisN,prac_learn_test_loop.thisIndex,prac_learn_test_loop.ran,learn_study_loop.thisRepN,learn_study_loop.thisTrialN,learn_study_loop.thisN,learn_study_loop.thisIndex,learn_study_loop.ran,list_no,block_no,learn_test_loop.thisRepN,learn_test_loop.thisTrialN,learn_test_loop.thisN,learn_test_loop.thisIndex,learn_test_loop.ran,learn_blocks.thisRepN,learn_blocks.thisTrialN,learn_blocks.thisN,learn_blocks.thisIndex,learn_blocks.ran,block_csv,key_resp_13.keys,key_resp_13.rt,learn_blocks_loop.thisRepN,learn_blocks_loop.thisTrialN,learn_blocks_loop.thisN,learn_blocks_loop.thisIndex,learn_blocks_loop.ran,final_learn_test.thisRepN,final_learn_test.thisTrialN,final_learn_test.thisN,final_learn_test.thisIndex,final_learn_test.ran,s_im1,s_im2,s_im3,s_im4,s_im5,s_im6,s_im7,s_im8,s_im1pos,s_im2pos,s_im3pos,s_im4pos,s_im5pos,s_im6pos,s_im7pos,s_im8pos,s_tarright,search_resp.keys,search_loop.thisRepN,search_loop.thisTrialN,search_loop.thisN,search_loop.thisIndex,search_loop.ran,search_resp.rt,prac_wm_test_loop.thisRepN,prac_wm_test_loop.thisTrialN,prac_wm_test_loop.thisN,prac_wm_test_loop.thisIndex,prac_wm_test_loop.ran,wm_recalled1,wm_recall_rt1,wm_probed1,wm_recall_acc1,wm_recalled2,wm_recall_rt2,wm_probed2,wm_recall_acc2,wm_recalled3,wm_recall_rt3,wm_probed3,wm_recall_acc3,wm_recalled4,wm_recall_rt4,wm_probed4,wm_recall_acc4,prac_wm_trial_loop.thisRepN,prac_wm_trial_loop.thisTrialN,prac_wm_trial_loop.thisN,prac_wm_trial_loop.thisIndex,prac_wm_trial_loop.ran,word1,image1,file1,item_type1,word2,image2,file2,item_type2,word4,image4,file4,item_type4,word3,image3,file3,item_type3,wm_test_loop.thisRepN,wm_test_loop.thisTrialN,wm_test_loop.thisN,wm_test_loop.thisIndex,wm_test_loop.ran,wm_trial_loop.thisRepN,wm_trial_loop.thisTrialN,wm_trial_loop.thisN,wm_trial_loop.thisIndex,wm_trial_loop.ran
y,18.41134,TOUGH,4.89475,1,0,0,0,0,1,stimuli/images/PICTURE_747.png,TOUGH,5d0e459e86e343000141468d,14/01/1953,2020-09-03_14h58.01.488,proactive2,2020.1.2,Win32,60,5f5126bb654d4b30ee6923d8,5f513cbe6e6c4c3464094b22,5,,,,,,,,,,,,,,,,,,,,,,,,,,,,,,,,,,,,,,,,,,,,,,,,,,,,,,,,,,,,,,,,,,,,,,,,,,,,,,,,,,,,,,,,,,,,,,,,,,,,,,,,,,,,,,,,,,,,,
,,,,,,,,,,stimuli/images/PICTURE_378.png,LOSS,5d0e459e86e343000141468d,14/01/1953,2020-09-03_14h58.01.488,proactive2,2020.1.2,Win32,60,5f5126bb654d4b30ee6923d8,5f513cbe6e6c4c3464094b22,5,0,0,0,2,1,lobster,,,,,,,,,,,,,,,,,,,,,,,,,,,,,,,,,,,,,,,,,,,,,,,,,,,,,,,,,,,,,,,,,,,,,,,,,,,,,,,,,,,,,,,,,,,,,,,,,,,,,,,,,,,,,,,
,,,,,,,,,,stimuli/images/PICTURE_658.png,DEVIL,5d0e459e86e343000141468d,14/01/1953,2020-09-03_14h58.01.488,proactive2,2020.1.2,Win32,60,5f5126bb654d4b30ee6923d8,5f513cbe6e6c4c3464094b22,5,0,1,1,3,1,crow,,,,,,,,,,,,,,,,,,,,,,,,,,,,,,,,,,,,,,,,,,,,,,,,,,,,,,,,,,,,,,,,,,,,,,,,,,,,,,,,,,,,,,,,,,,,,,,,,,,,,,,,,,,,,,,
,,,,,,,,,,stimuli/images/PICTURE_269.png,GENIUS,5d0e459e86e343000141468d,14/01/1953,2020-09-03_14h58.01.488,proactive2,2020.1.2,Win32,60,5f5126bb654d4b30ee6923d8,5f513cbe6e6c4c3464094b22,5,0,2,2,0,1,chameleon,,,,,,,,,,,,,,,,,,,,,,,,,,,,,,,,,,,,,,,,,,,,,,,,,,,,,,,,,,,,,,,,,,,,,,,,,,,,,,,,,,,,,,,,,,,,,,,,,,,,,,,,,,,,,,,
,,,,,,,,,,stimuli/images/PICTURE_727.png,CELL,5d0e459e86e343000141468d,14/01/1953,2020-09-03_14h58.01.488,proactive2,2020.1.2,Win32,60,5f5126bb654d4b30ee6923d8,5f513cbe6e6c4c3464094b22,5,0,3,3,1,1,hose,,,,,,,,,,,,,,,,,,,,,,,,,,,,,,,,,,,,,,,,,,,,,,,,,,,,,,,,,,,,,,,,,,,,,,,,,,,,,,,,,,,,,,,,,,,,,,,,,,,,,,,,,,,,,,,
,,LOSS,4.10538,0,,,,,,stimuli/images/PICTURE_727.png,CELL,5d0e459e86e343000141468d,14/01/1953,2020-09-03_14h58.01.488,proactive2,2020.1.2,Win32,60,5f5126bb654d4b30ee6923d8,5f513cbe6e6c4c3464094b22,5,,,,,,hose,0,0,0,1,1,,,,,,,,,,,,,,,,,,,,,,,,,,,,,,,,,,,,,,,,,,,,,,,,,,,,,,,,,,,,,,,,,,,,,,,,,,,,,,,,,,,,,,,,,,,,,,,,,,,,,,,,,,
,,KILL,3.95179,0,,,,,,stimuli/images/PICTURE_697.png,KILLER,5d0e459e86e343000141468d,14/01/1953,2020-09-03_14h58.01.488,proactive2,2020.1.2,Win32,60,5f5126bb654d4b30ee6923d8,5f513cbe6e6c4c3464094b22,5,,,,,,peach,0,1,1,4,1,,,,,,,,,,,,,,,,,,,,,,,,,,,,,,,,,,,,,,,,,,,,,,,,,,,,,,,,,,,,,,,,,,,,,,,,,,,,,,,,,,,,,,,,,,,,,,,,,,,,,,,,,,
,,GENIUS,4.16954,1,,,,,,stimuli/images/PICTURE_269.png,GENIUS,5d0e459e86e343000141468d,14/01/1953,2020-09-03_14h58.01.488,proactive2,2020.1.2,Win32,60,5f5126bb654d4b30ee6923d8,5f513cbe6e6c4c3464094b22,5,,,,,,chameleon,0,2,2,0,1,,,,,,,,,,,,,,,,,,,,,,,,,,,,,,,,,,,,,,,,,,,,,,,,,,,,,,,,,,,,,,,,,,,,,,,,,,,,,,,,,,,,,,,,,,,,,,,,,,,,,,,,,,
,,LOSS,2.343815,1,,,,,,stimuli/images/PICTURE_378.png,LOSS,5d0e459e86e343000141468d,14/01/1953,2020-09-03_14h58.01.488,proactive2,2020.1.2,Win32,60,5f5126bb654d4b30ee6923d8,5f513cbe6e6c4c3464094b22,5,,,,,,lobster,0,3,3,2,1,,,,,,,,,,,,,,,,,,,,,,,,,,,,,,,,,,,,,,,,,,,,,,,,,,,,,,,,,,,,,,,,,,,,,,,,,,,,,,,,,,,,,,,,,,,,,,,,,,,,,,,,,,
,,DEVIL,3.15004,1,,,,,,stimuli/images/PICTURE_658.png,DEVIL,5d0e459e86e343000141468d,14/01/1953,2020-09-03_14h58.01.488,proactive2,2020.1.2,Win32,60,5f5126bb654d4b30ee6923d8,5f513cbe6e6c4c3464094b22,5,,,,,,crow,0,4,4,3,1,,,,,,,,,,,,,,,,,,,,,,,,,,,,,,,,,,,,,,,,,,,,,,,,,,,,,,,,,,,,,,,,,,,,,,,,,,,,,,,,,,,,,,,,,,,,,,,,,,,,,,,,,,
,,,,,,,,,,stimuli/images/PICTURE_42.png,BOYS,5d0e459e86e343000141468d,14/01/1953,2020-09-03_14h58.01.488,proactive2,2020.1.2,Win32,60,5f5126bb654d4b30ee6923d8,5f513cbe6e6c4c3464094b22,5,,,,,,pear,,,,,,0,0,0,55,1,6,1,,,,,,,,,,,,,,,,,,,,,,,,,,,,,,,,,,,,,,,,,,,,,,,,,,,,,,,,,,,,,,,,,,,,,,,,,,,,,,,,,,,,,,,,,,,,,,,,,,,
,,,,,,,,,,stimuli/images/PICTURE_32.png,PILLS,5d0e459e86e343000141468d,14/01/1953,2020-09-03_14h58.01.488,proactive2,2020.1.2,Win32,60,5f5126bb654d4b30ee6923d8,5f513cbe6e6c4c3464094b22,5,,,,,,crown,,,,,,0,1,1,18,1,2,1,,,,,,,,,,,,,,,,,,,,,,,,,,,,,,,,,,,,,,,,,,,,,,,,,,,,,,,,,,,,,,,,,,,,,,,,,,,,,,,,,,,,,,,,,,,,,,,,,,,
,,,,,,,,,,stimuli/images/PICTURE_380.png,CANDY,5d0e459e86e343000141468d,14/01/1953,2020-09-03_14h58.01.488,proactive2,2020.1.2,Win32,60,5f5126bb654d4b30ee6923d8,5f513cbe6e6c4c3464094b22,5,,,,,,gorilla,,,,,,0,2,2,0,1,1,1,,,,,,,,,,,,,,,,,,,,,,,,,,,,,,,,,,,,,,,,,,,,,,,,,,,,,,,,,,,,,,,,,,,,,,,,,,,,,,,,,,,,,,,,,,,,,,,,,,,
,,,,,,,,,,stimuli/images/PICTURE_2.png,FLIGHT,5d0e459e86e343000141468d,14/01/1953,2020-09-03_14h58.01.488,proactive2,2020.1.2,Win32,60,5f5126bb654d4b30ee6923d8,5f513cbe6e6c4c3464094b22,5,,,,,,tyre,,,,,,0,3,3,15,1,2,1,,,,,,,,,,,,,,,,,,,,,,,,,,,,,,,,,,,,,,,,,,,,,,,,,,,,,,,,,,,,,,,,,,,,,,,,,,,,,,,,,,,,,,,,,,,,,,,,,,,
,,,,,,,,,,stimuli/images/PICTURE_327.png,CASINO,5d0e459e86e343000141468d,14/01/1953,2020-09-03_14h58.01.488,proactive2,2020.1.2,Win32,60,5f5126bb654d4b30ee6923d8,5f513cbe6e6c4c3464094b22,5,,,,,,helmet,,,,,,0,4,4,20,1,3,1,,,,,,,,,,,,,,,,,,,,,,,,,,,,,,,,,,,,,,,,,,,,,,,,,,,,,,,,,,,,,,,,,,,,,,,,,,,,,,,,,,,,,,,,,,,,,,,,,,,
,,,,,,,,,,stimuli/images/PICTURE_403.png,RIVER,5d0e459e86e343000141468d,14/01/1953,2020-09-03_14h58.01.488,proactive2,2020.1.2,Win32,60,5f5126bb654d4b30ee6923d8,5f513cbe6e6c4c3464094b22,5,,,,,,cathedral,,,,,,0,5,5,40,1,5,1,,,,,,,,,,,,,,,,,,,,,,,,,,,,,,,,,,,,,,,,,,,,,,,,,,,,,,,,,,,,,,,,,,,,,,,,,,,,,,,,,,,,,,,,,,,,,,,,,,,
,,,,,,,,,,stimuli/images/PICTURE_85.png,TOILET,5d0e459e86e343000141468d,14/01/1953,2020-09-03_14h58.01.488,proactive2,2020.1.2,Win32,60,5f5126bb654d4b30ee6923d8,5f513cbe6e6c4c3464094b22,5,,,,,,diamond,,,,,,0,6,6,48,1,5,1,,,,,,,,,,,,,,,,,,,,,,,,,,,,,,,,,,,,,,,,,,,,,,,,,,,,,,,,,,,,,,,,,,,,,,,,,,,,,,,,,,,,,,,,,,,,,,,,,,,
,,,,,,,,,,stimuli/images/PICTURE_297.png,RIVER,5d0e459e86e343000141468d,14/01/1953,2020-09-03_14h58.01.488,proactive2,2020.1.2,Win32,60,5f5126bb654d4b30ee6923d8,5f513cbe6e6c4c3464094b22,5,,,,,,aeroplane,,,,,,0,7,7,39,1,4,1,,,,,,,,,,,,,,,,,,,,,,,,,,,,,,,,,,,,,,,,,,,,,,,,,,,,,,,,,,,,,,,,,,,,,,,,,,,,,,,,,,,,,,,,,,,,,,,,,,,
,,,,,,,,,,stimuli/images/PICTURE_504.png,COPS,5d0e459e86e343000141468d,14/01/1953,2020-09-03_14h58.01.488,proactive2,2020.1.2,Win32,60,5f5126bb654d4b30ee6923d8,5f513cbe6e6c4c3464094b22,5,,,,,,wheel,,,,,,0,8,8,52,1,6,1,,,,,,,,,,,,,,,,,,,,,,,,,,,,,,,,,,,,,,,,,,,,,,,,,,,,,,,,,,,,,,,,,,,,,,,,,,,,,,,,,,,,,,,,,,,,,,,,,,,
,,,,,,,,,,stimuli/images/PICTURE_504.png,ARTIST,5d0e459e86e343000141468d,14/01/1953,2020-09-03_14h58.01.488,proactive2,2020.1.2,Win32,60,5f5126bb654d4b30ee6923d8,5f513cbe6e6c4c3464094b22,5,,,,,,wheel,,,,,,0,9,9,49,1,5,1,,,,,,,,,,,,,,,,,,,,,,,,,,,,,,,,,,,,,,,,,,,,,,,,,,,,,,,,,,,,,,,,,,,,,,,,,,,,,,,,,,,,,,,,,,,,,,,,,,,
,,,,,,,,,,stimuli/images/PICTURE_708.png,RECORD,5d0e459e86e343000141468d,14/01/1953,2020-09-03_14h58.01.488,proactive2,2020.1.2,Win32,60,5f5126bb654d4b30ee6923d8,5f513cbe6e6c4c3464094b22,5,,,,,,monkey,,,,,,0,10,10,58,1,6,1,,,,,,,,,,,,,,,,,,,,,,,,,,,,,,,,,,,,,,,,,,,,,,,,,,,,,,,,,,,,,,,,,,,,,,,,,,,,,,,,,,,,,,,,,,,,,,,,,,,
,,,,,,,,,,stimuli/images/PICTURE_655.png,TOILET,5d0e459e86e343000141468d,14/01/1953,2020-09-03_14h58.01.488,proactive2,2020.1.2,Win32,60,5f5126bb654d4b30ee6923d8,5f513cbe6e6c4c3464094b22,5,,,,,,megaphone,,,,,,0,11,11,12,1,2,1,,,,,,,,,,,,,,,,,,,,,,,,,,,,,,,,,,,,,,,,,,,,,,,,,,,,,,,,,,,,,,,,,,,,,,,,,,,,,,,,,,,,,,,,,,,,,,,,,,,
,,,,,,,,,,stimuli/images/PICTURE_177.png,WRITER,5d0e459e86e343000141468d,14/01/1953,2020-09-03_14h58.01.488,proactive2,2020.1.2,Win32,60,5f5126bb654d4b30ee6923d8,5f513cbe6e6c4c3464094b22,5,,,,,,mushroom,,,,,,0,12,12,41,1,5,1,,,,,,,,,,,,,,,,,,,,,,,,,,,,,,,,,,,,,,,,,,,,,,,,,,,,,,,,,,,,,,,,,,,,,,,,,,,,,,,,,,,,,,,,,,,,,,,,,,,
,,,,,,,,,,stimuli/images/PICTURE_147.png,YEAR,5d0e459e86e343000141468d,14/01/1953,2020-09-03_14h58.01.488,proactive2,2020.1.2,Win32,60,5f5126bb654d4b30ee6923d8,5f513cbe6e6c4c3464094b22,5,,,,,,hanger,,,,,,0,13,13,21,1,3,1,,,,,,,,,,,,,,,,,,,,,,,,,,,,,,,,,,,,,,,,,,,,,,,,,,,,,,,,,,,,,,,,,,,,,,,,,,,,,,,,,,,,,,,,,,,,,,,,,,,
,,,,,,,,,,stimuli/images/PICTURE_469.png,AGENT,5d0e459e86e343000141468d,14/01/1953,2020-09-03_14h58.01.488,proactive2,2020.1.2,Win32,60,5f5126bb654d4b30ee6923d8,5f513cbe6e6c4c3464094b22,5,,,,,,stool,,,,,,0,14,14,16,1,2,1,,,,,,,,,,,,,,,,,,,,,,,,,,,,,,,,,,,,,,,,,,,,,,,,,,,,,,,,,,,,,,,,,,,,,,,,,,,,,,,,,,,,,,,,,,,,,,,,,,,
,,,,,,,,,,stimuli/images/PICTURE_285.png,LIFE,5d0e459e86e343000141468d,14/01/1953,2020-09-03_14h58.01.488,proactive2,2020.1.2,Win32,60,5f5126bb654d4b30ee6923d8,5f513cbe6e6c4c3464094b22,5,,,,,,carrot,,,,,,0,15,15,33,1,4,1,,,,,,,,,,,,,,,,,,,,,,,,,,,,,,,,,,,,,,,,,,,,,,,,,,,,,,,,,,,,,,,,,,,,,,,,,,,,,,,,,,,,,,,,,,,,,,,,,,,
,,,,,,,,,,stimuli/images/PICTURE_564.png,BATH,5d0e459e86e343000141468d,14/01/1953,2020-09-03_14h58.01.488,proactive2,2020.1.2,Win32,60,5f5126bb654d4b30ee6923d8,5f513cbe6e6c4c3464094b22,5,,,,,,spoon,,,,,,0,16,16,26,1,3,1,,,,,,,,,,,,,,,,,,,,,,,,,,,,,,,,,,,,,,,,,,,,,,,,,,,,,,,,,,,,,,,,,,,,,,,,,,,,,,,,,,,,,,,,,,,,,,,,,,,
,,,,,,,,,,stimuli/images/PICTURE_504.png,YEAR,5d0e459e86e343000141468d,14/01/1953,2020-09-03_14h58.01.488,proactive2,2020.1.2,Win32,60,5f5126bb654d4b30ee6923d8,5f513cbe6e6c4c3464094b22,5,,,,,,wheel,,,,,,0,17,17,13,1,2,1,,,,,,,,,,,,,,,,,,,,,,,,,,,,,,,,,,,,,,,,,,,,,,,,,,,,,,,,,,,,,,,,,,,,,,,,,,,,,,,,,,,,,,,,,,,,,,,,,,,
,,,,,,,,,,stimuli/images/PICTURE_340.png,VALLEY,5d0e459e86e343000141468d,14/01/1953,2020-09-03_14h58.01.488,proactive2,2020.1.2,Win32,60,5f5126bb654d4b30ee6923d8,5f513cbe6e6c4c3464094b22,5,,,,,,mirror,,,,,,0,18,18,54,1,6,1,,,,,,,,,,,,,,,,,,,,,,,,,,,,,,,,,,,,,,,,,,,,,,,,,,,,,,,,,,,,,,,,,,,,,,,,,,,,,,,,,,,,,,,,,,,,,,,,,,,
,,,,,,,,,,stimuli/images/PICTURE_487.png,GIRL,5d0e459e86e343000141468d,14/01/1953,2020-09-03_14h58.01.488,proactive2,2020.1.2,Win32,60,5f5126bb654d4b30ee6923d8,5f513cbe6e6c4c3464094b22,5,,,,,,basket,,,,,,0,19,19,45,1,5,1,,,,,,,,,,,,,,,,,,,,,,,,,,,,,,,,,,,,,,,,,,,,,,,,,,,,,,,,,,,,,,,,,,,,,,,,,,,,,,,,,,,,,,,,,,,,,,,,,,,
,,,,,,,,,,stimuli/images/PICTURE_95.png,BOYS,5d0e459e86e343000141468d,14/01/1953,2020-09-03_14h58.01.488,proactive2,2020.1.2,Win32,60,5f5126bb654d4b30ee6923d8,5f513cbe6e6c4c3464094b22,5,,,,,,suitcase,,,,,,0,20,20,1,1,1,1,,,,,,,,,,,,,,,,,,,,,,,,,,,,,,,,,,,,,,,,,,,,,,,,,,,,,,,,,,,,,,,,,,,,,,,,,,,,,,,,,,,,,,,,,,,,,,,,,,,
,,,,,,,,,,stimuli/images/PICTURE_32.png,KIND,5d0e459e86e343000141468d,14/01/1953,2020-09-03_14h58.01.488,proactive2,2020.1.2,Win32,60,5f5126bb654d4b30ee6923d8,5f513cbe6e6c4c3464094b22,5,,,,,,crown,,,,,,0,21,21,35,1,4,1,,,,,,,,,,,,,,,,,,,,,,,,,,,,,,,,,,,,,,,,,,,,,,,,,,,,,,,,,,,,,,,,,,,,,,,,,,,,,,,,,,,,,,,,,,,,,,,,,,,
,,,,,,,,,,stimuli/images/PICTURE_203.png,GODS,5d0e459e86e343000141468d,14/01/1953,2020-09-03_14h58.01.488,proactive2,2020.1.2,Win32,60,5f5126bb654d4b30ee6923d8,5f513cbe6e6c4c3464094b22,5,,,,,,cap,,,,,,0,22,22,30,1,4,1,,,,,,,,,,,,,,,,,,,,,,,,,,,,,,,,,,,,,,,,,,,,,,,,,,,,,,,,,,,,,,,,,,,,,,,,,,,,,,,,,,,,,,,,,,,,,,,,,,,
,,,,,,,,,,stimuli/images/PICTURE_750.png,HOTEL,5d0e459e86e343000141468d,14/01/1953,2020-09-03_14h58.01.488,proactive2,2020.1.2,Win32,60,5f5126bb654d4b30ee6923d8,5f513cbe6e6c4c3464094b22,5,,,,,,kettle,,,,,,0,23,23,27,1,3,1,,,,,,,,,,,,,,,,,,,,,,,,,,,,,,,,,,,,,,,,,,,,,,,,,,,,,,,,,,,,,,,,,,,,,,,,,,,,,,,,,,,,,,,,,,,,,,,,,,,
,,,,,,,,,,stimuli/images/PICTURE_327.png,SERIES,5d0e459e86e343000141468d,14/01/1953,2020-09-03_14h58.01.488,proactive2,2020.1.2,Win32,60,5f5126bb654d4b30ee6923d8,5f513cbe6e6c4c3464094b22,5,,,,,,helmet,,,,,,0,24,24,3,1,1,1,,,,,,,,,,,,,,,,,,,,,,,,,,,,,,,,,,,,,,,,,,,,,,,,,,,,,,,,,,,,,,,,,,,,,,,,,,,,,,,,,,,,,,,,,,,,,,,,,,,
,,,,,,,,,,stimuli/images/PICTURE_108.png,POLICY,5d0e459e86e343000141468d,14/01/1953,2020-09-03_14h58.01.488,proactive2,2020.1.2,Win32,60,5f5126bb654d4b30ee6923d8,5f513cbe6e6c4c3464094b22,5,,,,,,calendar,,,,,,0,25,25,22,1,3,1,,,,,,,,,,,,,,,,,,,,,,,,,,,,,,,,,,,,,,,,,,,,,,,,,,,,,,,,,,,,,,,,,,,,,,,,,,,,,,,,,,,,,,,,,,,,,,,,,,,
,,,,,,,,,,stimuli/images/PICTURE_208.png,SYSTEM,5d0e459e86e343000141468d,14/01/1953,2020-09-03_14h58.01.488,proactive2,2020.1.2,Win32,60,5f5126bb654d4b30ee6923d8,5f513cbe6e6c4c3464094b22,5,,,,,,microphone,,,,,,0,26,26,32,1,4,1,,,,,,,,,,,,,,,,,,,,,,,,,,,,,,,,,,,,,,,,,,,,,,,,,,,,,,,,,,,,,,,,,,,,,,,,,,,,,,,,,,,,,,,,,,,,,,,,,,,
,,,,,,,,,,stimuli/images/PICTURE_685.png,PENNY,5d0e459e86e343000141468d,14/01/1953,2020-09-03_14h58.01.488,proactive2,2020.1.2,Win32,60,5f5126bb654d4b30ee6923d8,5f513cbe6e6c4c3464094b22,5,,,,,,goose,,,,,,0,27,27,4,1,1,1,,,,,,,,,,,,,,,,,,,,,,,,,,,,,,,,,,,,,,,,,,,,,,,,,,,,,,,,,,,,,,,,,,,,,,,,,,,,,,,,,,,,,,,,,,,,,,,,,,,
,,,,,,,,,,stimuli/images/PICTURE_467.png,POLICY,5d0e459e86e343000141468d,14/01/1953,2020-09-03_14h58.01.488,proactive2,2020.1.2,Win32,60,5f5126bb654d4b30ee6923d8,5f513cbe6e6c4c3464094b22,5,,,,,,peg,,,,,,0,28,28,53,1,6,1,,,,,,,,,,,,,,,,,,,,,,,,,,,,,,,,,,,,,,,,,,,,,,,,,,,,,,,,,,,,,,,,,,,,,,,,,,,,,,,,,,,,,,,,,,,,,,,,,,,
,,,,,,,,,,stimuli/images/PICTURE_677.png,APPLE,5d0e459e86e343000141468d,14/01/1953,2020-09-03_14h58.01.488,proactive2,2020.1.2,Win32,60,5f5126bb654d4b30ee6923d8,5f513cbe6e6c4c3464094b22,5,,,,,,map,,,,,,0,29,29,43,1,5,1,,,,,,,,,,,,,,,,,,,,,,,,,,,,,,,,,,,,,,,,,,,,,,,,,,,,,,,,,,,,,,,,,,,,,,,,,,,,,,,,,,,,,,,,,,,,,,,,,,,
,,,,,,,,,,stimuli/images/PICTURE_340.png,LETTER,5d0e459e86e343000141468d,14/01/1953,2020-09-03_14h58.01.488,proactive2,2020.1.2,Win32,60,5f5126bb654d4b30ee6923d8,5f513cbe6e6c4c3464094b22,5,,,,,,mirror,,,,,,0,30,30,24,1,3,1,,,,,,,,,,,,,,,,,,,,,,,,,,,,,,,,,,,,,,,,,,,,,,,,,,,,,,,,,,,,,,,,,,,,,,,,,,,,,,,,,,,,,,,,,,,,,,,,,,,
,,,,,,,,,,stimuli/images/PICTURE_33.png,FRIEND,5d0e459e86e343000141468d,14/01/1953,2020-09-03_14h58.01.488,proactive2,2020.1.2,Win32,60,5f5126bb654d4b30ee6923d8,5f513cbe6e6c4c3464094b22,5,,,,,,frame,,,,,,0,31,31,8,1,1,1,,,,,,,,,,,,,,,,,,,,,,,,,,,,,,,,,,,,,,,,,,,,,,,,,,,,,,,,,,,,,,,,,,,,,,,,,,,,,,,,,,,,,,,,,,,,,,,,,,,
,,,,,,,,,,stimuli/images/PICTURE_403.png,WRITER,5d0e459e86e343000141468d,14/01/1953,2020-09-03_14h58.01.488,proactive2,2020.1.2,Win32,60,5f5126bb654d4b30ee6923d8,5f513cbe6e6c4c3464094b22,5,,,,,,cathedral,,,,,,0,32,32,31,1,4,1,,,,,,,,,,,,,,,,,,,,,,,,,,,,,,,,,,,,,,,,,,,,,,,,,,,,,,,,,,,,,,,,,,,,,,,,,,,,,,,,,,,,,,,,,,,,,,,,,,,
,,,,,,,,,,stimuli/images/PICTURE_744.png,WEAPON,5d0e459e86e343000141468d,14/01/1953,2020-09-03_14h58.01.488,proactive2,2020.1.2,Win32,60,5f5126bb654d4b30ee6923d8,5f513cbe6e6c4c3464094b22,5,,,,,,ring,,,,,,0,33,33,50,1,6,1,,,,,,,,,,,,,,,,,,,,,,,,,,,,,,,,,,,,,,,,,,,,,,,,,,,,,,,,,,,,,,,,,,,,,,,,,,,,,,,,,,,,,,,,,,,,,,,,,,,
,,,,,,,,,,stimuli/images/PICTURE_296.png,LIFE,5d0e459e86e343000141468d,14/01/1953,2020-09-03_14h58.01.488,proactive2,2020.1.2,Win32,60,5f5126bb654d4b30ee6923d8,5f513cbe6e6c4c3464094b22,5,,,,,,bolt,,,,,,0,34,34,57,1,6,1,,,,,,,,,,,,,,,,,,,,,,,,,,,,,,,,,,,,,,,,,,,,,,,,,,,,,,,,,,,,,,,,,,,,,,,,,,,,,,,,,,,,,,,,,,,,,,,,,,,
,,,,,,,,,,stimuli/images/PICTURE_491.png,RIVER,5d0e459e86e343000141468d,14/01/1953,2020-09-03_14h58.01.488,proactive2,2020.1.2,Win32,60,5f5126bb654d4b30ee6923d8,5f513cbe6e6c4c3464094b22,5,,,,,,rug,,,,,,0,35,35,6,1,1,1,,,,,,,,,,,,,,,,,,,,,,,,,,,,,,,,,,,,,,,,,,,,,,,,,,,,,,,,,,,,,,,,,,,,,,,,,,,,,,,,,,,,,,,,,,,,,,,,,,,
,,,,,,,,,,stimuli/images/PICTURE_339.png,CLIENT,5d0e459e86e343000141468d,14/01/1953,2020-09-03_14h58.01.488,proactive2,2020.1.2,Win32,60,5f5126bb654d4b30ee6923d8,5f513cbe6e6c4c3464094b22,5,,,,,,backpack,,,,,,0,36,36,11,1,2,1,,,,,,,,,,,,,,,,,,,,,,,,,,,,,,,,,,,,,,,,,,,,,,,,,,,,,,,,,,,,,,,,,,,,,,,,,,,,,,,,,,,,,,,,,,,,,,,,,,,
,,,,,,,,,,stimuli/images/PICTURE_308.png,FAMILY,5d0e459e86e343000141468d,14/01/1953,2020-09-03_14h58.01.488,proactive2,2020.1.2,Win32,60,5f5126bb654d4b30ee6923d8,5f513cbe6e6c4c3464094b22,5,,,,,,dice,,,,,,0,37,37,36,1,4,1,,,,,,,,,,,,,,,,,,,,,,,,,,,,,,,,,,,,,,,,,,,,,,,,,,,,,,,,,,,,,,,,,,,,,,,,,,,,,,,,,,,,,,,,,,,,,,,,,,,
,,,,,,,,,,stimuli/images/PICTURE_57.png,MOMENT,5d0e459e86e343000141468d,14/01/1953,2020-09-03_14h58.01.488,proactive2,2020.1.2,Win32,60,5f5126bb654d4b30ee6923d8,5f513cbe6e6c4c3464094b22,5,,,,,,stamp,,,,,,0,38,38,37,1,4,1,,,,,,,,,,,,,,,,,,,,,,,,,,,,,,,,,,,,,,,,,,,,,,,,,,,,,,,,,,,,,,,,,,,,,,,,,,,,,,,,,,,,,,,,,,,,,,,,,,,
,,,,,,,,,,stimuli/images/PICTURE_491.png,GLASS,5d0e459e86e343000141468d,14/01/1953,2020-09-03_14h58.01.488,proactive2,2020.1.2,Win32,60,5f5126bb654d4b30ee6923d8,5f513cbe6e6c4c3464094b22,5,,,,,,rug,,,,,,0,39,39,14,1,2,1,,,,,,,,,,,,,,,,,,,,,,,,,,,,,,,,,,,,,,,,,,,,,,,,,,,,,,,,,,,,,,,,,,,,,,,,,,,,,,,,,,,,,,,,,,,,,,,,,,,
,,,,,,,,,,stimuli/images/PICTURE_233.png,LOTS,5d0e459e86e343000141468d,14/01/1953,2020-09-03_14h58.01.488,proactive2,2020.1.2,Win32,60,5f5126bb654d4b30ee6923d8,5f513cbe6e6c4c3464094b22,5,,,,,,salt,,,,,,0,40,40,42,1,5,1,,,,,,,,,,,,,,,,,,,,,,,,,,,,,,,,,,,,,,,,,,,,,,,,,,,,,,,,,,,,,,,,,,,,,,,,,,,,,,,,,,,,,,,,,,,,,,,,,,,
,,,,,,,,,,stimuli/images/PICTURE_449.png,DUDE,5d0e459e86e343000141468d,14/01/1953,2020-09-03_14h58.01.488,proactive2,2020.1.2,Win32,60,5f5126bb654d4b30ee6923d8,5f513cbe6e6c4c3464094b22,5,,,,,,bench,,,,,,0,41,41,17,1,2,1,,,,,,,,,,,,,,,,,,,,,,,,,,,,,,,,,,,,,,,,,,,,,,,,,,,,,,,,,,,,,,,,,,,,,,,,,,,,,,,,,,,,,,,,,,,,,,,,,,,
,,,,,,,,,,stimuli/images/PICTURE_68.png,MILE,5d0e459e86e343000141468d,14/01/1953,2020-09-03_14h58.01.488,proactive2,2020.1.2,Win32,60,5f5126bb654d4b30ee6923d8,5f513cbe6e6c4c3464094b22,5,,,,,,candle,,,,,,0,42,42,51,1,6,1,,,,,,,,,,,,,,,,,,,,,,,,,,,,,,,,,,,,,,,,,,,,,,,,,,,,,,,,,,,,,,,,,,,,,,,,,,,,,,,,,,,,,,,,,,,,,,,,,,,
,,,,,,,,,,stimuli/images/PICTURE_383.png,WRITER,5d0e459e86e343000141468d,14/01/1953,2020-09-03_14h58.01.488,proactive2,2020.1.2,Win32,60,5f5126bb654d4b30ee6923d8,5f513cbe6e6c4c3464094b22,5,,,,,,coin,,,,,,0,43,43,28,1,3,1,,,,,,,,,,,,,,,,,,,,,,,,,,,,,,,,,,,,,,,,,,,,,,,,,,,,,,,,,,,,,,,,,,,,,,,,,,,,,,,,,,,,,,,,,,,,,,,,,,,
,,,,,,,,,,stimuli/images/PICTURE_147.png,WOMEN,5d0e459e86e343000141468d,14/01/1953,2020-09-03_14h58.01.488,proactive2,2020.1.2,Win32,60,5f5126bb654d4b30ee6923d8,5f513cbe6e6c4c3464094b22,5,,,,,,hanger,,,,,,0,44,44,7,1,1,1,,,,,,,,,,,,,,,,,,,,,,,,,,,,,,,,,,,,,,,,,,,,,,,,,,,,,,,,,,,,,,,,,,,,,,,,,,,,,,,,,,,,,,,,,,,,,,,,,,,
,,,,,,,,,,stimuli/images/PICTURE_405.png,YEAR,5d0e459e86e343000141468d,14/01/1953,2020-09-03_14h58.01.488,proactive2,2020.1.2,Win32,60,5f5126bb654d4b30ee6923d8,5f513cbe6e6c4c3464094b22,5,,,,,,anchor,,,,,,0,45,45,34,1,4,1,,,,,,,,,,,,,,,,,,,,,,,,,,,,,,,,,,,,,,,,,,,,,,,,,,,,,,,,,,,,,,,,,,,,,,,,,,,,,,,,,,,,,,,,,,,,,,,,,,,
,,,,,,,,,,stimuli/images/PICTURE_203.png,NIGHT,5d0e459e86e343000141468d,14/01/1953,2020-09-03_14h58.01.488,proactive2,2020.1.2,Win32,60,5f5126bb654d4b30ee6923d8,5f513cbe6e6c4c3464094b22,5,,,,,,cap,,,,,,0,46,46,2,1,1,1,,,,,,,,,,,,,,,,,,,,,,,,,,,,,,,,,,,,,,,,,,,,,,,,,,,,,,,,,,,,,,,,,,,,,,,,,,,,,,,,,,,,,,,,,,,,,,,,,,,
,,,,,,,,,,stimuli/images/PICTURE_675.png,SALE,5d0e459e86e343000141468d,14/01/1953,2020-09-03_14h58.01.488,proactive2,2020.1.2,Win32,60,5f5126bb654d4b30ee6923d8,5f513cbe6e6c4c3464094b22,5,,,,,,windmill,,,,,,0,47,47,47,1,5,1,,,,,,,,,,,,,,,,,,,,,,,,,,,,,,,,,,,,,,,,,,,,,,,,,,,,,,,,,,,,,,,,,,,,,,,,,,,,,,,,,,,,,,,,,,,,,,,,,,,
,,,,,,,,,,stimuli/images/PICTURE_380.png,HONEY,5d0e459e86e343000141468d,14/01/1953,2020-09-03_14h58.01.488,proactive2,2020.1.2,Win32,60,5f5126bb654d4b30ee6923d8,5f513cbe6e6c4c3464094b22,5,,,,,,gorilla,,,,,,0,48,48,19,1,2,1,,,,,,,,,,,,,,,,,,,,,,,,,,,,,,,,,,,,,,,,,,,,,,,,,,,,,,,,,,,,,,,,,,,,,,,,,,,,,,,,,,,,,,,,,,,,,,,,,,,
,,,,,,,,,,stimuli/images/PICTURE_85.png,NATION,5d0e459e86e343000141468d,14/01/1953,2020-09-03_14h58.01.488,proactive2,2020.1.2,Win32,60,5f5126bb654d4b30ee6923d8,5f513cbe6e6c4c3464094b22,5,,,,,,diamond,,,,,,0,49,49,5,1,1,1,,,,,,,,,,,,,,,,,,,,,,,,,,,,,,,,,,,,,,,,,,,,,,,,,,,,,,,,,,,,,,,,,,,,,,,,,,,,,,,,,,,,,,,,,,,,,,,,,,,
,,,,,,,,,,stimuli/images/PICTURE_68.png,ROOF,5d0e459e86e343000141468d,14/01/1953,2020-09-03_14h58.01.488,proactive2,2020.1.2,Win32,60,5f5126bb654d4b30ee6923d8,5f513cbe6e6c4c3464094b22,5,,,,,,candle,,,,,,0,50,50,38,1,4,1,,,,,,,,,,,,,,,,,,,,,,,,,,,,,,,,,,,,,,,,,,,,,,,,,,,,,,,,,,,,,,,,,,,,,,,,,,,,,,,,,,,,,,,,,,,,,,,,,,,
,,,,,,,,,,stimuli/images/PICTURE_405.png,PLENTY,5d0e459e86e343000141468d,14/01/1953,2020-09-03_14h58.01.488,proactive2,2020.1.2,Win32,60,5f5126bb654d4b30ee6923d8,5f513cbe6e6c4c3464094b22,5,,,,,,anchor,,,,,,0,51,51,23,1,3,1,,,,,,,,,,,,,,,,,,,,,,,,,,,,,,,,,,,,,,,,,,,,,,,,,,,,,,,,,,,,,,,,,,,,,,,,,,,,,,,,,,,,,,,,,,,,,,,,,,,
,,,,,,,,,,stimuli/images/PICTURE_667.png,RIVER,5d0e459e86e343000141468d,14/01/1953,2020-09-03_14h58.01.488,proactive2,2020.1.2,Win32,60,5f5126bb654d4b30ee6923d8,5f513cbe6e6c4c3464094b22,5,,,,,,daisy,,,,,,0,52,52,10,1,2,1,,,,,,,,,,,,,,,,,,,,,,,,,,,,,,,,,,,,,,,,,,,,,,,,,,,,,,,,,,,,,,,,,,,,,,,,,,,,,,,,,,,,,,,,,,,,,,,,,,,
,,,,,,,,,,stimuli/images/PICTURE_95.png,HONEY,5d0e459e86e343000141468d,14/01/1953,2020-09-03_14h58.01.488,proactive2,2020.1.2,Win32,60,5f5126bb654d4b30ee6923d8,5f513cbe6e6c4c3464094b22,5,,,,,,suitcase,,,,,,0,53,53,44,1,5,1,,,,,,,,,,,,,,,,,,,,,,,,,,,,,,,,,,,,,,,,,,,,,,,,,,,,,,,,,,,,,,,,,,,,,,,,,,,,,,,,,,,,,,,,,,,,,,,,,,,
,,,,,,,,,,stimuli/images/PICTURE_108.png,FLIGHT,5d0e459e86e343000141468d,14/01/1953,2020-09-03_14h58.01.488,proactive2,2020.1.2,Win32,60,5f5126bb654d4b30ee6923d8,5f513cbe6e6c4c3464094b22,5,,,,,,calendar,,,,,,0,54,54,59,1,6,1,,,,,,,,,,,,,,,,,,,,,,,,,,,,,,,,,,,,,,,,,,,,,,,,,,,,,,,,,,,,,,,,,,,,,,,,,,,,,,,,,,,,,,,,,,,,,,,,,,,
,,,,,,,,,,stimuli/images/PICTURE_403.png,TOILET,5d0e459e86e343000141468d,14/01/1953,2020-09-03_14h58.01.488,proactive2,2020.1.2,Win32,60,5f5126bb654d4b30ee6923d8,5f513cbe6e6c4c3464094b22,5,,,,,,cathedral,,,,,,0,55,55,25,1,3,1,,,,,,,,,,,,,,,,,,,,,,,,,,,,,,,,,,,,,,,,,,,,,,,,,,,,,,,,,,,,,,,,,,,,,,,,,,,,,,,,,,,,,,,,,,,,,,,,,,,
,,,,,,,,,,stimuli/images/PICTURE_654.png,MONTH,5d0e459e86e343000141468d,14/01/1953,2020-09-03_14h58.01.488,proactive2,2020.1.2,Win32,60,5f5126bb654d4b30ee6923d8,5f513cbe6e6c4c3464094b22,5,,,,,,pencil,,,,,,0,56,56,29,1,3,1,,,,,,,,,,,,,,,,,,,,,,,,,,,,,,,,,,,,,,,,,,,,,,,,,,,,,,,,,,,,,,,,,,,,,,,,,,,,,,,,,,,,,,,,,,,,,,,,,,,
,,,,,,,,,,stimuli/images/PICTURE_296.png,LOTS,5d0e459e86e343000141468d,14/01/1953,2020-09-03_14h58.01.488,proactive2,2020.1.2,Win32,60,5f5126bb654d4b30ee6923d8,5f513cbe6e6c4c3464094b22,5,,,,,,bolt,,,,,,0,57,57,9,1,1,1,,,,,,,,,,,,,,,,,,,,,,,,,,,,,,,,,,,,,,,,,,,,,,,,,,,,,,,,,,,,,,,,,,,,,,,,,,,,,,,,,,,,,,,,,,,,,,,,,,,
,,,,,,,,,,stimuli/images/PICTURE_383.png,SERIES,5d0e459e86e343000141468d,14/01/1953,2020-09-03_14h58.01.488,proactive2,2020.1.2,Win32,60,5f5126bb654d4b30ee6923d8,5f513cbe6e6c4c3464094b22,5,,,,,,coin,,,,,,0,58,58,46,1,5,1,,,,,,,,,,,,,,,,,,,,,,,,,,,,,,,,,,,,,,,,,,,,,,,,,,,,,,,,,,,,,,,,,,,,,,,,,,,,,,,,,,,,,,,,,,,,,,,,,,,
,,?,0.000865,0,,,,,,stimuli/images/PICTURE_491.png,RIVER,5d0e459e86e343000141468d,14/01/1953,2020-09-03_14h58.01.488,proactive2,2020.1.2,Win32,60,5f5126bb654d4b30ee6923d8,5f513cbe6e6c4c3464094b22,5,,,,,,rug,,,,,,,,,,,1,1,0,0,0,6,1,,,,,,,,,,,,,,,,,,,,,,,,,,,,,,,,,,,,,,,,,,,,,,,,,,,,,,,,,,,,,,,,,,,,,,,,,,,,,,,,,,,,,,,,,,,,,,
,,?,0.00062,0,,,,,,stimuli/images/PICTURE_405.png,PLENTY,5d0e459e86e343000141468d,14/01/1953,2020-09-03_14h58.01.488,proactive2,2020.1.2,Win32,60,5f5126bb654d4b30ee6923d8,5f513cbe6e6c4c3464094b22,5,,,,,,anchor,,,,,,,,,,,3,1,0,1,1,23,1,,,,,,,,,,,,,,,,,,,,,,,,,,,,,,,,,,,,,,,,,,,,,,,,,,,,,,,,,,,,,,,,,,,,,,,,,,,,,,,,,,,,,,,,,,,,,,
,,?,0.00058,0,,,,,,stimuli/images/PICTURE_744.png,WEAPON,5d0e459e86e343000141468d,14/01/1953,2020-09-03_14h58.01.488,proactive2,2020.1.2,Win32,60,5f5126bb654d4b30ee6923d8,5f513cbe6e6c4c3464094b22,5,,,,,,ring,,,,,,,,,,,6,1,0,2,2,50,1,,,,,,,,,,,,,,,,,,,,,,,,,,,,,,,,,,,,,,,,,,,,,,,,,,,,,,,,,,,,,,,,,,,,,,,,,,,,,,,,,,,,,,,,,,,,,,
,,SALE,3.002125,1,,,,,,stimuli/images/PICTURE_675.png,SALE,5d0e459e86e343000141468d,14/01/1953,2020-09-03_14h58.01.488,proactive2,2020.1.2,Win32,60,5f5126bb654d4b30ee6923d8,5f513cbe6e6c4c3464094b22,5,,,,,,windmill,,,,,,,,,,,5,1,0,3,3,47,1,,,,,,,,,,,,,,,,,,,,,,,,,,,,,,,,,,,,,,,,,,,,,,,,,,,,,,,,,,,,,,,,,,,,,,,,,,,,,,,,,,,,,,,,,,,,,,
,,APPLE,2.91545,1,,,,,,stimuli/images/PICTURE_677.png,APPLE,5d0e459e86e343000141468d,14/01/1953,2020-09-03_14h58.01.488,proactive2,2020.1.2,Win32,60,5f5126bb654d4b30ee6923d8,5f513cbe6e6c4c3464094b22,5,,,,,,map,,,,,,,,,,,5,1,0,4,4,43,1,,,,,,,,,,,,,,,,,,,,,,,,,,,,,,,,,,,,,,,,,,,,,,,,,,,,,,,,,,,,,,,,,,,,,,,,,,,,,,,,,,,,,,,,,,,,,,
,,?,0.00074,0,,,,,,stimuli/images/PICTURE_203.png,GODS,5d0e459e86e343000141468d,14/01/1953,2020-09-03_14h58.01.488,proactive2,2020.1.2,Win32,60,5f5126bb654d4b30ee6923d8,5f513cbe6e6c4c3464094b22,5,,,,,,cap,,,,,,,,,,,4,1,0,5,5,30,1,,,,,,,,,,,,,,,,,,,,,,,,,,,,,,,,,,,,,,,,,,,,,,,,,,,,,,,,,,,,,,,,,,,,,,,,,,,,,,,,,,,,,,,,,,,,,,
,,?,0.000565,0,,,,,,stimuli/images/PICTURE_285.png,LIFE,5d0e459e86e343000141468d,14/01/1953,2020-09-03_14h58.01.488,proactive2,2020.1.2,Win32,60,5f5126bb654d4b30ee6923d8,5f513cbe6e6c4c3464094b22,5,,,,,,carrot,,,,,,,,,,,4,1,0,6,6,33,1,,,,,,,,,,,,,,,,,,,,,,,,,,,,,,,,,,,,,,,,,,,,,,,,,,,,,,,,,,,,,,,,,,,,,,,,,,,,,,,,,,,,,,,,,,,,,,
,,?,0.000585,0,,,,,,stimuli/images/PICTURE_339.png,CLIENT,5d0e459e86e343000141468d,14/01/1953,2020-09-03_14h58.01.488,proactive2,2020.1.2,Win32,60,5f5126bb654d4b30ee6923d8,5f513cbe6e6c4c3464094b22,5,,,,,,backpack,,,,,,,,,,,2,1,0,7,7,11,1,,,,,,,,,,,,,,,,,,,,,,,,,,,,,,,,,,,,,,,,,,,,,,,,,,,,,,,,,,,,,,,,,,,,,,,,,,,,,,,,,,,,,,,,,,,,,,
,,?,0.00053,0,,,,,,stimuli/images/PICTURE_68.png,ROOF,5d0e459e86e343000141468d,14/01/1953,2020-09-03_14h58.01.488,proactive2,2020.1.2,Win32,60,5f5126bb654d4b30ee6923d8,5f513cbe6e6c4c3464094b22,5,,,,,,candle,,,,,,,,,,,4,1,0,8,8,38,1,,,,,,,,,,,,,,,,,,,,,,,,,,,,,,,,,,,,,,,,,,,,,,,,,,,,,,,,,,,,,,,,,,,,,,,,,,,,,,,,,,,,,,,,,,,,,,
,,?,0.00052,0,,,,,,stimuli/images/PICTURE_491.png,GLASS,5d0e459e86e343000141468d,14/01/1953,2020-09-03_14h58.01.488,proactive2,2020.1.2,Win32,60,5f5126bb654d4b30ee6923d8,5f513cbe6e6c4c3464094b22,5,,,,,,rug,,,,,,,,,,,2,1,0,9,9,14,1,,,,,,,,,,,,,,,,,,,,,,,,,,,,,,,,,,,,,,,,,,,,,,,,,,,,,,,,,,,,,,,,,,,,,,,,,,,,,,,,,,,,,,,,,,,,,,
,,?,0.000655,0,,,,,,stimuli/images/PICTURE_708.png,RECORD,5d0e459e86e343000141468d,14/01/1953,2020-09-03_14h58.01.488,proactive2,2020.1.2,Win32,60,5f5126bb654d4b30ee6923d8,5f513cbe6e6c4c3464094b22,5,,,,,,monkey,,,,,,,,,,,6,1,0,10,10,58,1,,,,,,,,,,,,,,,,,,,,,,,,,,,,,,,,,,,,,,,,,,,,,,,,,,,,,,,,,,,,,,,,,,,,,,,,,,,,,,,,,,,,,,,,,,,,,,
,,SERIES,2.82973,1,,,,,,stimuli/images/PICTURE_383.png,SERIES,5d0e459e86e343000141468d,14/01/1953,2020-09-03_14h58.01.488,proactive2,2020.1.2,Win32,60,5f5126bb654d4b30ee6923d8,5f513cbe6e6c4c3464094b22,5,,,,,,coin,,,,,,,,,,,5,1,0,11,11,46,1,,,,,,,,,,,,,,,,,,,,,,,,,,,,,,,,,,,,,,,,,,,,,,,,,,,,,,,,,,,,,,,,,,,,,,,,,,,,,,,,,,,,,,,,,,,,,,
,,?,0.000735,0,,,,,,stimuli/images/PICTURE_405.png,YEAR,5d0e459e86e343000141468d,14/01/1953,2020-09-03_14h58.01.488,proactive2,2020.1.2,Win32,60,5f5126bb654d4b30ee6923d8,5f513cbe6e6c4c3464094b22,5,,,,,,anchor,,,,,,,,,,,4,1,0,12,12,34,1,,,,,,,,,,,,,,,,,,,,,,,,,,,,,,,,,,,,,,,,,,,,,,,,,,,,,,,,,,,,,,,,,,,,,,,,,,,,,,,,,,,,,,,,,,,,,,
,,?,0.000555,0,,,,,,stimuli/images/PICTURE_654.png,MONTH,5d0e459e86e343000141468d,14/01/1953,2020-09-03_14h58.01.488,proactive2,2020.1.2,Win32,60,5f5126bb654d4b30ee6923d8,5f513cbe6e6c4c3464094b22,5,,,,,,pencil,,,,,,,,,,,3,1,0,13,13,29,1,,,,,,,,,,,,,,,,,,,,,,,,,,,,,,,,,,,,,,,,,,,,,,,,,,,,,,,,,,,,,,,,,,,,,,,,,,,,,,,,,,,,,,,,,,,,,,
,,?,0.00057,0,,,,,,stimuli/images/PICTURE_32.png,KIND,5d0e459e86e343000141468d,14/01/1953,2020-09-03_14h58.01.488,proactive2,2020.1.2,Win32,60,5f5126bb654d4b30ee6923d8,5f513cbe6e6c4c3464094b22,5,,,,,,crown,,,,,,,,,,,4,1,0,14,14,35,1,,,,,,,,,,,,,,,,,,,,,,,,,,,,,,,,,,,,,,,,,,,,,,,,,,,,,,,,,,,,,,,,,,,,,,,,,,,,,,,,,,,,,,,,,,,,,,
,,?,0.000505,0,,,,,,stimuli/images/PICTURE_85.png,NATION,5d0e459e86e343000141468d,14/01/1953,2020-09-03_14h58.01.488,proactive2,2020.1.2,Win32,60,5f5126bb654d4b30ee6923d8,5f513cbe6e6c4c3464094b22,5,,,,,,diamond,,,,,,,,,,,1,1,0,15,15,5,1,,,,,,,,,,,,,,,,,,,,,,,,,,,,,,,,,,,,,,,,,,,,,,,,,,,,,,,,,,,,,,,,,,,,,,,,,,,,,,,,,,,,,,,,,,,,,,
,,?,0.00052,0,,,,,,stimuli/images/PICTURE_504.png,COPS,5d0e459e86e343000141468d,14/01/1953,2020-09-03_14h58.01.488,proactive2,2020.1.2,Win32,60,5f5126bb654d4b30ee6923d8,5f513cbe6e6c4c3464094b22,5,,,,,,wheel,,,,,,,,,,,6,1,0,16,16,52,1,,,,,,,,,,,,,,,,,,,,,,,,,,,,,,,,,,,,,,,,,,,,,,,,,,,,,,,,,,,,,,,,,,,,,,,,,,,,,,,,,,,,,,,,,,,,,,
,,RIVER,2.856805,1,,,,,,stimuli/images/PICTURE_403.png,RIVER,5d0e459e86e343000141468d,14/01/1953,2020-09-03_14h58.01.488,proactive2,2020.1.2,Win32,60,5f5126bb654d4b30ee6923d8,5f513cbe6e6c4c3464094b22,5,,,,,,cathedral,,,,,,,,,,,5,1,0,17,17,40,1,,,,,,,,,,,,,,,,,,,,,,,,,,,,,,,,,,,,,,,,,,,,,,,,,,,,,,,,,,,,,,,,,,,,,,,,,,,,,,,,,,,,,,,,,,,,,,
,,?,0.000775,0,,,,,,stimuli/images/PICTURE_95.png,BOYS,5d0e459e86e343000141468d,14/01/1953,2020-09-03_14h58.01.488,proactive2,2020.1.2,Win32,60,5f5126bb654d4b30ee6923d8,5f513cbe6e6c4c3464094b22,5,,,,,,suitcase,,,,,,,,,,,1,1,0,18,18,1,1,,,,,,,,,,,,,,,,,,,,,,,,,,,,,,,,,,,,,,,,,,,,,,,,,,,,,,,,,,,,,,,,,,,,,,,,,,,,,,,,,,,,,,,,,,,,,,
,,?,0.000555,0,,,,,,stimuli/images/PICTURE_467.png,POLICY,5d0e459e86e343000141468d,14/01/1953,2020-09-03_14h58.01.488,proactive2,2020.1.2,Win32,60,5f5126bb654d4b30ee6923d8,5f513cbe6e6c4c3464094b22,5,,,,,,peg,,,,,,,,,,,6,1,0,19,19,53,1,,,,,,,,,,,,,,,,,,,,,,,,,,,,,,,,,,,,,,,,,,,,,,,,,,,,,,,,,,,,,,,,,,,,,,,,,,,,,,,,,,,,,,,,,,,,,,
,,?,0.001395,0,,,,,,stimuli/images/PICTURE_296.png,LOTS,5d0e459e86e343000141468d,14/01/1953,2020-09-03_14h58.01.488,proactive2,2020.1.2,Win32,60,5f5126bb654d4b30ee6923d8,5f513cbe6e6c4c3464094b22,5,,,,,,bolt,,,,,,,,,,,1,1,0,20,20,9,1,,,,,,,,,,,,,,,,,,,,,,,,,,,,,,,,,,,,,,,,,,,,,,,,,,,,,,,,,,,,,,,,,,,,,,,,,,,,,,,,,,,,,,,,,,,,,,
,,?,0.000545,0,,,,,,stimuli/images/PICTURE_57.png,MOMENT,5d0e459e86e343000141468d,14/01/1953,2020-09-03_14h58.01.488,proactive2,2020.1.2,Win32,60,5f5126bb654d4b30ee6923d8,5f513cbe6e6c4c3464094b22,5,,,,,,stamp,,,,,,,,,,,4,1,0,21,21,37,1,,,,,,,,,,,,,,,,,,,,,,,,,,,,,,,,,,,,,,,,,,,,,,,,,,,,,,,,,,,,,,,,,,,,,,,,,,,,,,,,,,,,,,,,,,,,,,
,,?,0.000545,0,,,,,,stimuli/images/PICTURE_655.png,TOILET,5d0e459e86e343000141468d,14/01/1953,2020-09-03_14h58.01.488,proactive2,2020.1.2,Win32,60,5f5126bb654d4b30ee6923d8,5f513cbe6e6c4c3464094b22,5,,,,,,megaphone,,,,,,,,,,,2,1,0,22,22,12,1,,,,,,,,,,,,,,,,,,,,,,,,,,,,,,,,,,,,,,,,,,,,,,,,,,,,,,,,,,,,,,,,,,,,,,,,,,,,,,,,,,,,,,,,,,,,,,
,,?,0.00053,0,,,,,,stimuli/images/PICTURE_2.png,FLIGHT,5d0e459e86e343000141468d,14/01/1953,2020-09-03_14h58.01.488,proactive2,2020.1.2,Win32,60,5f5126bb654d4b30ee6923d8,5f513cbe6e6c4c3464094b22,5,,,,,,tyre,,,,,,,,,,,2,1,0,23,23,15,1,,,,,,,,,,,,,,,,,,,,,,,,,,,,,,,,,,,,,,,,,,,,,,,,,,,,,,,,,,,,,,,,,,,,,,,,,,,,,,,,,,,,,,,,,,,,,,
,,?,0.0005,0,,,,,,stimuli/images/PICTURE_327.png,CASINO,5d0e459e86e343000141468d,14/01/1953,2020-09-03_14h58.01.488,proactive2,2020.1.2,Win32,60,5f5126bb654d4b30ee6923d8,5f513cbe6e6c4c3464094b22,5,,,,,,helmet,,,,,,,,,,,3,1,0,24,24,20,1,,,,,,,,,,,,,,,,,,,,,,,,,,,,,,,,,,,,,,,,,,,,,,,,,,,,,,,,,,,,,,,,,,,,,,,,,,,,,,,,,,,,,,,,,,,,,,
,,?,0.000505,0,,,,,,stimuli/images/PICTURE_340.png,VALLEY,5d0e459e86e343000141468d,14/01/1953,2020-09-03_14h58.01.488,proactive2,2020.1.2,Win32,60,5f5126bb654d4b30ee6923d8,5f513cbe6e6c4c3464094b22,5,,,,,,mirror,,,,,,,,,,,6,1,0,25,25,54,1,,,,,,,,,,,,,,,,,,,,,,,,,,,,,,,,,,,,,,,,,,,,,,,,,,,,,,,,,,,,,,,,,,,,,,,,,,,,,,,,,,,,,,,,,,,,,,
,,?,0.00065,0,,,,,,stimuli/images/PICTURE_68.png,MILE,5d0e459e86e343000141468d,14/01/1953,2020-09-03_14h58.01.488,proactive2,2020.1.2,Win32,60,5f5126bb654d4b30ee6923d8,5f513cbe6e6c4c3464094b22,5,,,,,,candle,,,,,,,,,,,6,1,0,26,26,51,1,,,,,,,,,,,,,,,,,,,,,,,,,,,,,,,,,,,,,,,,,,,,,,,,,,,,,,,,,,,,,,,,,,,,,,,,,,,,,,,,,,,,,,,,,,,,,,
,,?,0.000535,0,,,,,,stimuli/images/PICTURE_32.png,PILLS,5d0e459e86e343000141468d,14/01/1953,2020-09-03_14h58.01.488,proactive2,2020.1.2,Win32,60,5f5126bb654d4b30ee6923d8,5f513cbe6e6c4c3464094b22,5,,,,,,crown,,,,,,,,,,,2,1,0,27,27,18,1,,,,,,,,,,,,,,,,,,,,,,,,,,,,,,,,,,,,,,,,,,,,,,,,,,,,,,,,,,,,,,,,,,,,,,,,,,,,,,,,,,,,,,,,,,,,,,
,,WRITER,3.678645,1,,,,,,stimuli/images/PICTURE_177.png,WRITER,5d0e459e86e343000141468d,14/01/1953,2020-09-03_14h58.01.488,proactive2,2020.1.2,Win32,60,5f5126bb654d4b30ee6923d8,5f513cbe6e6c4c3464094b22,5,,,,,,mushroom,,,,,,,,,,,5,1,0,28,28,41,1,,,,,,,,,,,,,,,,,,,,,,,,,,,,,,,,,,,,,,,,,,,,,,,,,,,,,,,,,,,,,,,,,,,,,,,,,,,,,,,,,,,,,,,,,,,,,,
,,GIRL,2.8307,1,,,,,,stimuli/images/PICTURE_487.png,GIRL,5d0e459e86e343000141468d,14/01/1953,2020-09-03_14h58.01.488,proactive2,2020.1.2,Win32,60,5f5126bb654d4b30ee6923d8,5f513cbe6e6c4c3464094b22,5,,,,,,basket,,,,,,,,,,,5,1,0,29,29,45,1,,,,,,,,,,,,,,,,,,,,,,,,,,,,,,,,,,,,,,,,,,,,,,,,,,,,,,,,,,,,,,,,,,,,,,,,,,,,,,,,,,,,,,,,,,,,,,
,,?,0.00076,0,,,,,,stimuli/images/PICTURE_108.png,POLICY,5d0e459e86e343000141468d,14/01/1953,2020-09-03_14h58.01.488,proactive2,2020.1.2,Win32,60,5f5126bb654d4b30ee6923d8,5f513cbe6e6c4c3464094b22,5,,,,,,calendar,,,,,,,,,,,3,1,0,30,30,22,1,,,,,,,,,,,,,,,,,,,,,,,,,,,,,,,,,,,,,,,,,,,,,,,,,,,,,,,,,,,,,,,,,,,,,,,,,,,,,,,,,,,,,,,,,,,,,,
,,?,0.000545,0,,,,,,stimuli/images/PICTURE_297.png,RIVER,5d0e459e86e343000141468d,14/01/1953,2020-09-03_14h58.01.488,proactive2,2020.1.2,Win32,60,5f5126bb654d4b30ee6923d8,5f513cbe6e6c4c3464094b22,5,,,,,,aeroplane,,,,,,,,,,,4,1,0,31,31,39,1,,,,,,,,,,,,,,,,,,,,,,,,,,,,,,,,,,,,,,,,,,,,,,,,,,,,,,,,,,,,,,,,,,,,,,,,,,,,,,,,,,,,,,,,,,,,,,
,,?,0.00054,0,,,,,,stimuli/images/PICTURE_449.png,DUDE,5d0e459e86e343000141468d,14/01/1953,2020-09-03_14h58.01.488,proactive2,2020.1.2,Win32,60,5f5126bb654d4b30ee6923d8,5f513cbe6e6c4c3464094b22,5,,,,,,bench,,,,,,,,,,,2,1,0,32,32,17,1,,,,,,,,,,,,,,,,,,,,,,,,,,,,,,,,,,,,,,,,,,,,,,,,,,,,,,,,,,,,,,,,,,,,,,,,,,,,,,,,,,,,,,,,,,,,,,
,,?,0.00061,0,,,,,,stimuli/images/PICTURE_95.png,MILLER,5d0e459e86e343000141468d,14/01/1953,2020-09-03_14h58.01.488,proactive2,2020.1.2,Win32,60,5f5126bb654d4b30ee6923d8,5f513cbe6e6c4c3464094b22,5,,,,,,suitcase,,,,,,,,,,,6,1,0,33,33,56,1,,,,,,,,,,,,,,,,,,,,,,,,,,,,,,,,,,,,,,,,,,,,,,,,,,,,,,,,,,,,,,,,,,,,,,,,,,,,,,,,,,,,,,,,,,,,,,
,,?,0.001315,0,,,,,,stimuli/images/PICTURE_147.png,YEAR,5d0e459e86e343000141468d,14/01/1953,2020-09-03_14h58.01.488,proactive2,2020.1.2,Win32,60,5f5126bb654d4b30ee6923d8,5f513cbe6e6c4c3464094b22,5,,,,,,hanger,,,,,,,,,,,3,1,0,34,34,21,1,,,,,,,,,,,,,,,,,,,,,,,,,,,,,,,,,,,,,,,,,,,,,,,,,,,,,,,,,,,,,,,,,,,,,,,,,,,,,,,,,,,,,,,,,,,,,,
,,?,0.00058,0,,,,,,stimuli/images/PICTURE_203.png,NIGHT,5d0e459e86e343000141468d,14/01/1953,2020-09-03_14h58.01.488,proactive2,2020.1.2,Win32,60,5f5126bb654d4b30ee6923d8,5f513cbe6e6c4c3464094b22,5,,,,,,cap,,,,,,,,,,,1,1,0,35,35,2,1,,,,,,,,,,,,,,,,,,,,,,,,,,,,,,,,,,,,,,,,,,,,,,,,,,,,,,,,,,,,,,,,,,,,,,,,,,,,,,,,,,,,,,,,,,,,,,
,,?,0.000505,0,,,,,,stimuli/images/PICTURE_403.png,WRITER,5d0e459e86e343000141468d,14/01/1953,2020-09-03_14h58.01.488,proactive2,2020.1.2,Win32,60,5f5126bb654d4b30ee6923d8,5f513cbe6e6c4c3464094b22,5,,,,,,cathedral,,,,,,,,,,,4,1,0,36,36,31,1,,,,,,,,,,,,,,,,,,,,,,,,,,,,,,,,,,,,,,,,,,,,,,,,,,,,,,,,,,,,,,,,,,,,,,,,,,,,,,,,,,,,,,,,,,,,,,
,,HONEY,3.803725,1,,,,,,stimuli/images/PICTURE_95.png,HONEY,5d0e459e86e343000141468d,14/01/1953,2020-09-03_14h58.01.488,proactive2,2020.1.2,Win32,60,5f5126bb654d4b30ee6923d8,5f513cbe6e6c4c3464094b22,5,,,,,,suitcase,,,,,,,,,,,5,1,0,37,37,44,1,,,,,,,,,,,,,,,,,,,,,,,,,,,,,,,,,,,,,,,,,,,,,,,,,,,,,,,,,,,,,,,,,,,,,,,,,,,,,,,,,,,,,,,,,,,,,,
,,?,0.000785,0,,,,,,stimuli/images/PICTURE_327.png,SERIES,5d0e459e86e343000141468d,14/01/1953,2020-09-03_14h58.01.488,proactive2,2020.1.2,Win32,60,5f5126bb654d4b30ee6923d8,5f513cbe6e6c4c3464094b22,5,,,,,,helmet,,,,,,,,,,,1,1,0,38,38,3,1,,,,,,,,,,,,,,,,,,,,,,,,,,,,,,,,,,,,,,,,,,,,,,,,,,,,,,,,,,,,,,,,,,,,,,,,,,,,,,,,,,,,,,,,,,,,,,
,,?,0.000635,0,,,,,,stimuli/images/PICTURE_685.png,PENNY,5d0e459e86e343000141468d,14/01/1953,2020-09-03_14h58.01.488,proactive2,2020.1.2,Win32,60,5f5126bb654d4b30ee6923d8,5f513cbe6e6c4c3464094b22,5,,,,,,goose,,,,,,,,,,,1,1,0,39,39,4,1,,,,,,,,,,,,,,,,,,,,,,,,,,,,,,,,,,,,,,,,,,,,,,,,,,,,,,,,,,,,,,,,,,,,,,,,,,,,,,,,,,,,,,,,,,,,,,
,,?,0.000535,0,,,,,,stimuli/images/PICTURE_383.png,WRITER,5d0e459e86e343000141468d,14/01/1953,2020-09-03_14h58.01.488,proactive2,2020.1.2,Win32,60,5f5126bb654d4b30ee6923d8,5f513cbe6e6c4c3464094b22,5,,,,,,coin,,,,,,,,,,,3,1,0,40,40,28,1,,,,,,,,,,,,,,,,,,,,,,,,,,,,,,,,,,,,,,,,,,,,,,,,,,,,,,,,,,,,,,,,,,,,,,,,,,,,,,,,,,,,,,,,,,,,,,
,,?,0.00052,0,,,,,,stimuli/images/PICTURE_108.png,FLIGHT,5d0e459e86e343000141468d,14/01/1953,2020-09-03_14h58.01.488,proactive2,2020.1.2,Win32,60,5f5126bb654d4b30ee6923d8,5f513cbe6e6c4c3464094b22,5,,,,,,calendar,,,,,,,,,,,6,1,0,41,41,59,1,,,,,,,,,,,,,,,,,,,,,,,,,,,,,,,,,,,,,,,,,,,,,,,,,,,,,,,,,,,,,,,,,,,,,,,,,,,,,,,,,,,,,,,,,,,,,,
,,?,0.00077,0,,,,,,stimuli/images/PICTURE_147.png,WOMEN,5d0e459e86e343000141468d,14/01/1953,2020-09-03_14h58.01.488,proactive2,2020.1.2,Win32,60,5f5126bb654d4b30ee6923d8,5f513cbe6e6c4c3464094b22,5,,,,,,hanger,,,,,,,,,,,1,1,0,42,42,7,1,,,,,,,,,,,,,,,,,,,,,,,,,,,,,,,,,,,,,,,,,,,,,,,,,,,,,,,,,,,,,,,,,,,,,,,,,,,,,,,,,,,,,,,,,,,,,,
,,?,0.000545,0,,,,,,stimuli/images/PICTURE_33.png,FRIEND,5d0e459e86e343000141468d,14/01/1953,2020-09-03_14h58.01.488,proactive2,2020.1.2,Win32,60,5f5126bb654d4b30ee6923d8,5f513cbe6e6c4c3464094b22,5,,,,,,frame,,,,,,,,,,,1,1,0,43,43,8,1,,,,,,,,,,,,,,,,,,,,,,,,,,,,,,,,,,,,,,,,,,,,,,,,,,,,,,,,,,,,,,,,,,,,,,,,,,,,,,,,,,,,,,,,,,,,,,
,,?,0.00049,0,,,,,,stimuli/images/PICTURE_308.png,FAMILY,5d0e459e86e343000141468d,14/01/1953,2020-09-03_14h58.01.488,proactive2,2020.1.2,Win32,60,5f5126bb654d4b30ee6923d8,5f513cbe6e6c4c3464094b22,5,,,,,,dice,,,,,,,,,,,4,1,0,44,44,36,1,,,,,,,,,,,,,,,,,,,,,,,,,,,,,,,,,,,,,,,,,,,,,,,,,,,,,,,,,,,,,,,,,,,,,,,,,,,,,,,,,,,,,,,,,,,,,,
,,?,0.000515,0,,,,,,stimuli/images/PICTURE_504.png,YEAR,5d0e459e86e343000141468d,14/01/1953,2020-09-03_14h58.01.488,proactive2,2020.1.2,Win32,60,5f5126bb654d4b30ee6923d8,5f513cbe6e6c4c3464094b22,5,,,,,,wheel,,,,,,,,,,,2,1,0,45,45,13,1,,,,,,,,,,,,,,,,,,,,,,,,,,,,,,,,,,,,,,,,,,,,,,,,,,,,,,,,,,,,,,,,,,,,,,,,,,,,,,,,,,,,,,,,,,,,,,
,,?,0.000565,0,,,,,,stimuli/images/PICTURE_340.png,LETTER,5d0e459e86e343000141468d,14/01/1953,2020-09-03_14h58.01.488,proactive2,2020.1.2,Win32,60,5f5126bb654d4b30ee6923d8,5f513cbe6e6c4c3464094b22,5,,,,,,mirror,,,,,,,,,,,3,1,0,46,46,24,1,,,,,,,,,,,,,,,,,,,,,,,,,,,,,,,,,,,,,,,,,,,,,,,,,,,,,,,,,,,,,,,,,,,,,,,,,,,,,,,,,,,,,,,,,,,,,,
,,?,0.000535,0,,,,,,stimuli/images/PICTURE_564.png,BATH,5d0e459e86e343000141468d,14/01/1953,2020-09-03_14h58.01.488,proactive2,2020.1.2,Win32,60,5f5126bb654d4b30ee6923d8,5f513cbe6e6c4c3464094b22,5,,,,,,spoon,,,,,,,,,,,3,1,0,47,47,26,1,,,,,,,,,,,,,,,,,,,,,,,,,,,,,,,,,,,,,,,,,,,,,,,,,,,,,,,,,,,,,,,,,,,,,,,,,,,,,,,,,,,,,,,,,,,,,,
,,LOTS,2.9665,1,,,,,,stimuli/images/PICTURE_233.png,LOTS,5d0e459e86e343000141468d,14/01/1953,2020-09-03_14h58.01.488,proactive2,2020.1.2,Win32,60,5f5126bb654d4b30ee6923d8,5f513cbe6e6c4c3464094b22,5,,,,,,salt,,,,,,,,,,,5,1,0,48,48,42,1,,,,,,,,,,,,,,,,,,,,,,,,,,,,,,,,,,,,,,,,,,,,,,,,,,,,,,,,,,,,,,,,,,,,,,,,,,,,,,,,,,,,,,,,,,,,,,
,,?,0.000775,0,,,,,,stimuli/images/PICTURE_380.png,CANDY,5d0e459e86e343000141468d,14/01/1953,2020-09-03_14h58.01.488,proactive2,2020.1.2,Win32,60,5f5126bb654d4b30ee6923d8,5f513cbe6e6c4c3464094b22,5,,,,,,gorilla,,,,,,,,,,,1,1,0,49,49,0,1,,,,,,,,,,,,,,,,,,,,,,,,,,,,,,,,,,,,,,,,,,,,,,,,,,,,,,,,,,,,,,,,,,,,,,,,,,,,,,,,,,,,,,,,,,,,,,
,,?,0.00061,0,,,,,,stimuli/images/PICTURE_296.png,LIFE,5d0e459e86e343000141468d,14/01/1953,2020-09-03_14h58.01.488,proactive2,2020.1.2,Win32,60,5f5126bb654d4b30ee6923d8,5f513cbe6e6c4c3464094b22,5,,,,,,bolt,,,,,,,,,,,6,1,0,50,50,57,1,,,,,,,,,,,,,,,,,,,,,,,,,,,,,,,,,,,,,,,,,,,,,,,,,,,,,,,,,,,,,,,,,,,,,,,,,,,,,,,,,,,,,,,,,,,,,,
,,TOILET,3.546715,1,,,,,,stimuli/images/PICTURE_85.png,TOILET,5d0e459e86e343000141468d,14/01/1953,2020-09-03_14h58.01.488,proactive2,2020.1.2,Win32,60,5f5126bb654d4b30ee6923d8,5f513cbe6e6c4c3464094b22,5,,,,,,diamond,,,,,,,,,,,5,1,0,51,51,48,1,,,,,,,,,,,,,,,,,,,,,,,,,,,,,,,,,,,,,,,,,,,,,,,,,,,,,,,,,,,,,,,,,,,,,,,,,,,,,,,,,,,,,,,,,,,,,,
,,?,0.000785,0,,,,,,stimuli/images/PICTURE_380.png,HONEY,5d0e459e86e343000141468d,14/01/1953,2020-09-03_14h58.01.488,proactive2,2020.1.2,Win32,60,5f5126bb654d4b30ee6923d8,5f513cbe6e6c4c3464094b22,5,,,,,,gorilla,,,,,,,,,,,2,1,0,52,52,19,1,,,,,,,,,,,,,,,,,,,,,,,,,,,,,,,,,,,,,,,,,,,,,,,,,,,,,,,,,,,,,,,,,,,,,,,,,,,,,,,,,,,,,,,,,,,,,,
,,?,0.00061,0,,,,,,stimuli/images/PICTURE_403.png,TOILET,5d0e459e86e343000141468d,14/01/1953,2020-09-03_14h58.01.488,proactive2,2020.1.2,Win32,60,5f5126bb654d4b30ee6923d8,5f513cbe6e6c4c3464094b22,5,,,,,,cathedral,,,,,,,,,,,3,1,0,53,53,25,1,,,,,,,,,,,,,,,,,,,,,,,,,,,,,,,,,,,,,,,,,,,,,,,,,,,,,,,,,,,,,,,,,,,,,,,,,,,,,,,,,,,,,,,,,,,,,,
,,?,0.000535,0,,,,,,stimuli/images/PICTURE_208.png,SYSTEM,5d0e459e86e343000141468d,14/01/1953,2020-09-03_14h58.01.488,proactive2,2020.1.2,Win32,60,5f5126bb654d4b30ee6923d8,5f513cbe6e6c4c3464094b22,5,,,,,,microphone,,,,,,,,,,,4,1,0,54,54,32,1,,,,,,,,,,,,,,,,,,,,,,,,,,,,,,,,,,,,,,,,,,,,,,,,,,,,,,,,,,,,,,,,,,,,,,,,,,,,,,,,,,,,,,,,,,,,,,
,,?,0.000495,0,,,,,,stimuli/images/PICTURE_667.png,RIVER,5d0e459e86e343000141468d,14/01/1953,2020-09-03_14h58.01.488,proactive2,2020.1.2,Win32,60,5f5126bb654d4b30ee6923d8,5f513cbe6e6c4c3464094b22,5,,,,,,daisy,,,,,,,,,,,2,1,0,55,55,10,1,,,,,,,,,,,,,,,,,,,,,,,,,,,,,,,,,,,,,,,,,,,,,,,,,,,,,,,,,,,,,,,,,,,,,,,,,,,,,,,,,,,,,,,,,,,,,,
,,?,0.000485,0,,,,,,stimuli/images/PICTURE_750.png,HOTEL,5d0e459e86e343000141468d,14/01/1953,2020-09-03_14h58.01.488,proactive2,2020.1.2,Win32,60,5f5126bb654d4b30ee6923d8,5f513cbe6e6c4c3464094b22,5,,,,,,kettle,,,,,,,,,,,3,1,0,56,56,27,1,,,,,,,,,,,,,,,,,,,,,,,,,,,,,,,,,,,,,,,,,,,,,,,,,,,,,,,,,,,,,,,,,,,,,,,,,,,,,,,,,,,,,,,,,,,,,,
,,?,15.0476,0,,,,,,stimuli/images/PICTURE_504.png,ARTIST,5d0e459e86e343000141468d,14/01/1953,2020-09-03_14h58.01.488,proactive2,2020.1.2,Win32,60,5f5126bb654d4b30ee6923d8,5f513cbe6e6c4c3464094b22,5,,,,,,wheel,,,,,,,,,,,5,1,0,57,57,49,1,,,,,,,,,,,,,,,,,,,,,,,,,,,,,,,,,,,,,,,,,,,,,,,,,,,,,,,,,,,,,,,,,,,,,,,,,,,,,,,,,,,,,,,,,,,,,,
,,?,0.00072,0,,,,,,stimuli/images/PICTURE_42.png,BOYS,5d0e459e86e343000141468d,14/01/1953,2020-09-03_14h58.01.488,proactive2,2020.1.2,Win32,60,5f5126bb654d4b30ee6923d8,5f513cbe6e6c4c3464094b22,5,,,,,,pear,,,,,,,,,,,6,1,0,58,58,55,1,,,,,,,,,,,,,,,,,,,,,,,,,,,,,,,,,,,,,,,,,,,,,,,,,,,,,,,,,,,,,,,,,,,,,,,,,,,,,,,,,,,,,,,,,,,,,,
,,?,0.000665,0,,,,,,stimuli/images/PICTURE_469.png,AGENT,5d0e459e86e343000141468d,14/01/1953,2020-09-03_14h58.01.488,proactive2,2020.1.2,Win32,60,5f5126bb654d4b30ee6923d8,5f513cbe6e6c4c3464094b22,5,,,,,,stool,,,,,,,,,,,2,1,0,59,59,16,1,,,,,,,,,,,,,,,,,,,,,,,,,,,,,,,,,,,,,,,,,,,,,,,,,,,,,,,,,,,,,,,,,,,,,,,,,,,,,,,,,,,,,,,,,,,,,,
,,,,,,,,,,,,5d0e459e86e343000141468d,14/01/1953,2020-09-03_14h58.01.488,proactive2,2020.1.2,Win32,60,5f5126bb654d4b30ee6923d8,5f513cbe6e6c4c3464094b22,5,,,,,,,,,,,,,,,,,,,,,,,,0,0,0,1,1,stimuli/learn-block2.csv,,,,,,,,,,,,,,,,,,,,,,,,,,,,,,,,,,,,,,,,,,,,,,,,,,,,,,,,,,,,,,,,,,,,,,,,,,,,,,,,,,,,,,,,
,,,,,,,,,,stimuli/images/PICTURE_470.png,MOMENT,5d0e459e86e343000141468d,14/01/1953,2020-09-03_14h58.01.488,proactive2,2020.1.2,Win32,60,5f5126bb654d4b30ee6923d8,5f513cbe6e6c4c3464094b22,5,,,,,,motorbike,,,,,,0,0,0,40,1,5,2,,,,,,,,,,,,,,,,,,,,,,,,,,,,,,,,,,,,,,,,,,,,,,,,,,,,,,,,,,,,,,,,,,,,,,,,,,,,,,,,,,,,,,,,,,,,,,,,,,,
,,,,,,,,,,stimuli/images/PICTURE_57.png,NATION,5d0e459e86e343000141468d,14/01/1953,2020-09-03_14h58.01.488,proactive2,2020.1.2,Win32,60,5f5126bb654d4b30ee6923d8,5f513cbe6e6c4c3464094b22,5,,,,,,stamp,,,,,,0,1,1,21,1,3,2,,,,,,,,,,,,,,,,,,,,,,,,,,,,,,,,,,,,,,,,,,,,,,,,,,,,,,,,,,,,,,,,,,,,,,,,,,,,,,,,,,,,,,,,,,,,,,,,,,,
,,,,,,,,,,stimuli/images/PICTURE_57.png,CANDY,5d0e459e86e343000141468d,14/01/1953,2020-09-03_14h58.01.488,proactive2,2020.1.2,Win32,60,5f5126bb654d4b30ee6923d8,5f513cbe6e6c4c3464094b22,5,,,,,,stamp,,,,,,0,2,2,52,1,6,2,,,,,,,,,,,,,,,,,,,,,,,,,,,,,,,,,,,,,,,,,,,,,,,,,,,,,,,,,,,,,,,,,,,,,,,,,,,,,,,,,,,,,,,,,,,,,,,,,,,
,,,,,,,,,,stimuli/images/PICTURE_356.png,CANDY,5d0e459e86e343000141468d,14/01/1953,2020-09-03_14h58.01.488,proactive2,2020.1.2,Win32,60,5f5126bb654d4b30ee6923d8,5f513cbe6e6c4c3464094b22,5,,,,,,pawn,,,,,,0,3,3,46,1,5,2,,,,,,,,,,,,,,,,,,,,,,,,,,,,,,,,,,,,,,,,,,,,,,,,,,,,,,,,,,,,,,,,,,,,,,,,,,,,,,,,,,,,,,,,,,,,,,,,,,,
,,,,,,,,,,stimuli/images/PICTURE_285.png,PRINCE,5d0e459e86e343000141468d,14/01/1953,2020-09-03_14h58.01.488,proactive2,2020.1.2,Win32,60,5f5126bb654d4b30ee6923d8,5f513cbe6e6c4c3464094b22,5,,,,,,carrot,,,,,,0,4,4,20,1,3,2,,,,,,,,,,,,,,,,,,,,,,,,,,,,,,,,,,,,,,,,,,,,,,,,,,,,,,,,,,,,,,,,,,,,,,,,,,,,,,,,,,,,,,,,,,,,,,,,,,,
,,,,,,,,,,stimuli/images/PICTURE_677.png,FAMILY,5d0e459e86e343000141468d,14/01/1953,2020-09-03_14h58.01.488,proactive2,2020.1.2,Win32,60,5f5126bb654d4b30ee6923d8,5f513cbe6e6c4c3464094b22,5,,,,,,map,,,,,,0,5,5,53,1,6,2,,,,,,,,,,,,,,,,,,,,,,,,,,,,,,,,,,,,,,,,,,,,,,,,,,,,,,,,,,,,,,,,,,,,,,,,,,,,,,,,,,,,,,,,,,,,,,,,,,,
,,,,,,,,,,stimuli/images/PICTURE_208.png,SPIRIT,5d0e459e86e343000141468d,14/01/1953,2020-09-03_14h58.01.488,proactive2,2020.1.2,Win32,60,5f5126bb654d4b30ee6923d8,5f513cbe6e6c4c3464094b22,5,,,,,,microphone,,,,,,0,6,6,28,1,3,2,,,,,,,,,,,,,,,,,,,,,,,,,,,,,,,,,,,,,,,,,,,,,,,,,,,,,,,,,,,,,,,,,,,,,,,,,,,,,,,,,,,,,,,,,,,,,,,,,,,
,,,,,,,,,,stimuli/images/PICTURE_655.png,SALE,5d0e459e86e343000141468d,14/01/1953,2020-09-03_14h58.01.488,proactive2,2020.1.2,Win32,60,5f5126bb654d4b30ee6923d8,5f513cbe6e6c4c3464094b22,5,,,,,,megaphone,,,,,,0,7,7,57,1,6,2,,,,,,,,,,,,,,,,,,,,,,,,,,,,,,,,,,,,,,,,,,,,,,,,,,,,,,,,,,,,,,,,,,,,,,,,,,,,,,,,,,,,,,,,,,,,,,,,,,,
,,,,,,,,,,stimuli/images/PICTURE_487.png,ROOF,5d0e459e86e343000141468d,14/01/1953,2020-09-03_14h58.01.488,proactive2,2020.1.2,Win32,60,5f5126bb654d4b30ee6923d8,5f513cbe6e6c4c3464094b22,5,,,,,,basket,,,,,,0,8,8,50,1,6,2,,,,,,,,,,,,,,,,,,,,,,,,,,,,,,,,,,,,,,,,,,,,,,,,,,,,,,,,,,,,,,,,,,,,,,,,,,,,,,,,,,,,,,,,,,,,,,,,,,,
,,,,,,,,,,stimuli/images/PICTURE_692.png,DUDE,5d0e459e86e343000141468d,14/01/1953,2020-09-03_14h58.01.488,proactive2,2020.1.2,Win32,60,5f5126bb654d4b30ee6923d8,5f513cbe6e6c4c3464094b22,5,,,,,,cherry,,,,,,0,9,9,47,1,5,2,,,,,,,,,,,,,,,,,,,,,,,,,,,,,,,,,,,,,,,,,,,,,,,,,,,,,,,,,,,,,,,,,,,,,,,,,,,,,,,,,,,,,,,,,,,,,,,,,,,
,,,,,,,,,,stimuli/images/PICTURE_509.png,APPLE,5d0e459e86e343000141468d,14/01/1953,2020-09-03_14h58.01.488,proactive2,2020.1.2,Win32,60,5f5126bb654d4b30ee6923d8,5f513cbe6e6c4c3464094b22,5,,,,,,telephone,,,,,,0,10,10,38,1,4,2,,,,,,,,,,,,,,,,,,,,,,,,,,,,,,,,,,,,,,,,,,,,,,,,,,,,,,,,,,,,,,,,,,,,,,,,,,,,,,,,,,,,,,,,,,,,,,,,,,,
,,,,,,,,,,stimuli/images/PICTURE_177.png,HOUSE,5d0e459e86e343000141468d,14/01/1953,2020-09-03_14h58.01.488,proactive2,2020.1.2,Win32,60,5f5126bb654d4b30ee6923d8,5f513cbe6e6c4c3464094b22,5,,,,,,mushroom,,,,,,0,11,11,25,1,3,2,,,,,,,,,,,,,,,,,,,,,,,,,,,,,,,,,,,,,,,,,,,,,,,,,,,,,,,,,,,,,,,,,,,,,,,,,,,,,,,,,,,,,,,,,,,,,,,,,,,
,,,,,,,,,,stimuli/images/PICTURE_141.png,CLIENT,5d0e459e86e343000141468d,14/01/1953,2020-09-03_14h58.01.488,proactive2,2020.1.2,Win32,60,5f5126bb654d4b30ee6923d8,5f513cbe6e6c4c3464094b22,5,,,,,,sunflower,,,,,,0,12,12,30,1,4,2,,,,,,,,,,,,,,,,,,,,,,,,,,,,,,,,,,,,,,,,,,,,,,,,,,,,,,,,,,,,,,,,,,,,,,,,,,,,,,,,,,,,,,,,,,,,,,,,,,,
,,,,,,,,,,stimuli/images/PICTURE_57.png,CASINO,5d0e459e86e343000141468d,14/01/1953,2020-09-03_14h58.01.488,proactive2,2020.1.2,Win32,60,5f5126bb654d4b30ee6923d8,5f513cbe6e6c4c3464094b22,5,,,,,,stamp,,,,,,0,13,13,12,1,2,2,,,,,,,,,,,,,,,,,,,,,,,,,,,,,,,,,,,,,,,,,,,,,,,,,,,,,,,,,,,,,,,,,,,,,,,,,,,,,,,,,,,,,,,,,,,,,,,,,,,
,,,,,,,,,,stimuli/images/PICTURE_311.png,TOILET,5d0e459e86e343000141468d,14/01/1953,2020-09-03_14h58.01.488,proactive2,2020.1.2,Win32,60,5f5126bb654d4b30ee6923d8,5f513cbe6e6c4c3464094b22,5,,,,,,razor,,,,,,0,14,14,54,1,6,2,,,,,,,,,,,,,,,,,,,,,,,,,,,,,,,,,,,,,,,,,,,,,,,,,,,,,,,,,,,,,,,,,,,,,,,,,,,,,,,,,,,,,,,,,,,,,,,,,,,
,,,,,,,,,,stimuli/images/PICTURE_452.png,COPS,5d0e459e86e343000141468d,14/01/1953,2020-09-03_14h58.01.488,proactive2,2020.1.2,Win32,60,5f5126bb654d4b30ee6923d8,5f513cbe6e6c4c3464094b22,5,,,,,,watch,,,,,,0,15,15,0,1,1,2,,,,,,,,,,,,,,,,,,,,,,,,,,,,,,,,,,,,,,,,,,,,,,,,,,,,,,,,,,,,,,,,,,,,,,,,,,,,,,,,,,,,,,,,,,,,,,,,,,,
,,,,,,,,,,stimuli/images/PICTURE_68.png,KIND,5d0e459e86e343000141468d,14/01/1953,2020-09-03_14h58.01.488,proactive2,2020.1.2,Win32,60,5f5126bb654d4b30ee6923d8,5f513cbe6e6c4c3464094b22,5,,,,,,candle,,,,,,0,16,16,23,1,3,2,,,,,,,,,,,,,,,,,,,,,,,,,,,,,,,,,,,,,,,,,,,,,,,,,,,,,,,,,,,,,,,,,,,,,,,,,,,,,,,,,,,,,,,,,,,,,,,,,,,
,,,,,,,,,,stimuli/images/PICTURE_348.png,TOILET,5d0e459e86e343000141468d,14/01/1953,2020-09-03_14h58.01.488,proactive2,2020.1.2,Win32,60,5f5126bb654d4b30ee6923d8,5f513cbe6e6c4c3464094b22,5,,,,,,pepper,,,,,,0,17,17,4,1,1,2,,,,,,,,,,,,,,,,,,,,,,,,,,,,,,,,,,,,,,,,,,,,,,,,,,,,,,,,,,,,,,,,,,,,,,,,,,,,,,,,,,,,,,,,,,,,,,,,,,,
,,,,,,,,,,stimuli/images/PICTURE_95.png,NIGHT,5d0e459e86e343000141468d,14/01/1953,2020-09-03_14h58.01.488,proactive2,2020.1.2,Win32,60,5f5126bb654d4b30ee6923d8,5f513cbe6e6c4c3464094b22,5,,,,,,suitcase,,,,,,0,18,18,37,1,4,2,,,,,,,,,,,,,,,,,,,,,,,,,,,,,,,,,,,,,,,,,,,,,,,,,,,,,,,,,,,,,,,,,,,,,,,,,,,,,,,,,,,,,,,,,,,,,,,,,,,
,,,,,,,,,,stimuli/images/PICTURE_677.png,PHOTO,5d0e459e86e343000141468d,14/01/1953,2020-09-03_14h58.01.488,proactive2,2020.1.2,Win32,60,5f5126bb654d4b30ee6923d8,5f513cbe6e6c4c3464094b22,5,,,,,,map,,,,,,0,19,19,14,1,2,2,,,,,,,,,,,,,,,,,,,,,,,,,,,,,,,,,,,,,,,,,,,,,,,,,,,,,,,,,,,,,,,,,,,,,,,,,,,,,,,,,,,,,,,,,,,,,,,,,,,
,,,,,,,,,,stimuli/images/PICTURE_405.png,JUNGLE,5d0e459e86e343000141468d,14/01/1953,2020-09-03_14h58.01.488,proactive2,2020.1.2,Win32,60,5f5126bb654d4b30ee6923d8,5f513cbe6e6c4c3464094b22,5,,,,,,anchor,,,,,,0,20,20,58,1,6,2,,,,,,,,,,,,,,,,,,,,,,,,,,,,,,,,,,,,,,,,,,,,,,,,,,,,,,,,,,,,,,,,,,,,,,,,,,,,,,,,,,,,,,,,,,,,,,,,,,,
,,,,,,,,,,stimuli/images/PICTURE_667.png,GLASS,5d0e459e86e343000141468d,14/01/1953,2020-09-03_14h58.01.488,proactive2,2020.1.2,Win32,60,5f5126bb654d4b30ee6923d8,5f513cbe6e6c4c3464094b22,5,,,,,,daisy,,,,,,0,21,21,27,1,3,2,,,,,,,,,,,,,,,,,,,,,,,,,,,,,,,,,,,,,,,,,,,,,,,,,,,,,,,,,,,,,,,,,,,,,,,,,,,,,,,,,,,,,,,,,,,,,,,,,,,
,,,,,,,,,,stimuli/images/PICTURE_750.png,POLICY,5d0e459e86e343000141468d,14/01/1953,2020-09-03_14h58.01.488,proactive2,2020.1.2,Win32,60,5f5126bb654d4b30ee6923d8,5f513cbe6e6c4c3464094b22,5,,,,,,kettle,,,,,,0,22,22,44,1,5,2,,,,,,,,,,,,,,,,,,,,,,,,,,,,,,,,,,,,,,,,,,,,,,,,,,,,,,,,,,,,,,,,,,,,,,,,,,,,,,,,,,,,,,,,,,,,,,,,,,,
,,,,,,,,,,stimuli/images/PICTURE_93.png,GIRL,5d0e459e86e343000141468d,14/01/1953,2020-09-03_14h58.01.488,proactive2,2020.1.2,Win32,60,5f5126bb654d4b30ee6923d8,5f513cbe6e6c4c3464094b22,5,,,,,,skateboard,,,,,,0,23,23,31,1,4,2,,,,,,,,,,,,,,,,,,,,,,,,,,,,,,,,,,,,,,,,,,,,,,,,,,,,,,,,,,,,,,,,,,,,,,,,,,,,,,,,,,,,,,,,,,,,,,,,,,,
,,,,,,,,,,stimuli/images/PICTURE_215.png,FOOD,5d0e459e86e343000141468d,14/01/1953,2020-09-03_14h58.01.488,proactive2,2020.1.2,Win32,60,5f5126bb654d4b30ee6923d8,5f513cbe6e6c4c3464094b22,5,,,,,,boot,,,,,,0,24,24,5,1,1,2,,,,,,,,,,,,,,,,,,,,,,,,,,,,,,,,,,,,,,,,,,,,,,,,,,,,,,,,,,,,,,,,,,,,,,,,,,,,,,,,,,,,,,,,,,,,,,,,,,,
,,,,,,,,,,stimuli/images/PICTURE_348.png,DUDE,5d0e459e86e343000141468d,14/01/1953,2020-09-03_14h58.01.488,proactive2,2020.1.2,Win32,60,5f5126bb654d4b30ee6923d8,5f513cbe6e6c4c3464094b22,5,,,,,,pepper,,,,,,0,25,25,59,1,6,2,,,,,,,,,,,,,,,,,,,,,,,,,,,,,,,,,,,,,,,,,,,,,,,,,,,,,,,,,,,,,,,,,,,,,,,,,,,,,,,,,,,,,,,,,,,,,,,,,,,
,,,,,,,,,,stimuli/images/PICTURE_491.png,SERIES,5d0e459e86e343000141468d,14/01/1953,2020-09-03_14h58.01.488,proactive2,2020.1.2,Win32,60,5f5126bb654d4b30ee6923d8,5f513cbe6e6c4c3464094b22,5,,,,,,rug,,,,,,0,26,26,39,1,4,2,,,,,,,,,,,,,,,,,,,,,,,,,,,,,,,,,,,,,,,,,,,,,,,,,,,,,,,,,,,,,,,,,,,,,,,,,,,,,,,,,,,,,,,,,,,,,,,,,,,
,,,,,,,,,,stimuli/images/PICTURE_255.png,PENNY,5d0e459e86e343000141468d,14/01/1953,2020-09-03_14h58.01.488,proactive2,2020.1.2,Win32,60,5f5126bb654d4b30ee6923d8,5f513cbe6e6c4c3464094b22,5,,,,,,shovel,,,,,,0,27,27,19,1,2,2,,,,,,,,,,,,,,,,,,,,,,,,,,,,,,,,,,,,,,,,,,,,,,,,,,,,,,,,,,,,,,,,,,,,,,,,,,,,,,,,,,,,,,,,,,,,,,,,,,,
,,,,,,,,,,stimuli/images/PICTURE_296.png,CLOCK,5d0e459e86e343000141468d,14/01/1953,2020-09-03_14h58.01.488,proactive2,2020.1.2,Win32,60,5f5126bb654d4b30ee6923d8,5f513cbe6e6c4c3464094b22,5,,,,,,bolt,,,,,,0,28,28,18,1,2,2,,,,,,,,,,,,,,,,,,,,,,,,,,,,,,,,,,,,,,,,,,,,,,,,,,,,,,,,,,,,,,,,,,,,,,,,,,,,,,,,,,,,,,,,,,,,,,,,,,,
,,,,,,,,,,stimuli/images/PICTURE_147.png,LEADER,5d0e459e86e343000141468d,14/01/1953,2020-09-03_14h58.01.488,proactive2,2020.1.2,Win32,60,5f5126bb654d4b30ee6923d8,5f513cbe6e6c4c3464094b22,5,,,,,,hanger,,,,,,0,29,29,33,1,4,2,,,,,,,,,,,,,,,,,,,,,,,,,,,,,,,,,,,,,,,,,,,,,,,,,,,,,,,,,,,,,,,,,,,,,,,,,,,,,,,,,,,,,,,,,,,,,,,,,,,
,,,,,,,,,,stimuli/images/PICTURE_215.png,BOYS,5d0e459e86e343000141468d,14/01/1953,2020-09-03_14h58.01.488,proactive2,2020.1.2,Win32,60,5f5126bb654d4b30ee6923d8,5f513cbe6e6c4c3464094b22,5,,,,,,boot,,,,,,0,30,30,24,1,3,2,,,,,,,,,,,,,,,,,,,,,,,,,,,,,,,,,,,,,,,,,,,,,,,,,,,,,,,,,,,,,,,,,,,,,,,,,,,,,,,,,,,,,,,,,,,,,,,,,,,
,,,,,,,,,,stimuli/images/PICTURE_509.png,MILLER,5d0e459e86e343000141468d,14/01/1953,2020-09-03_14h58.01.488,proactive2,2020.1.2,Win32,60,5f5126bb654d4b30ee6923d8,5f513cbe6e6c4c3464094b22,5,,,,,,telephone,,,,,,0,31,31,49,1,5,2,,,,,,,,,,,,,,,,,,,,,,,,,,,,,,,,,,,,,,,,,,,,,,,,,,,,,,,,,,,,,,,,,,,,,,,,,,,,,,,,,,,,,,,,,,,,,,,,,,,
,,,,,,,,,,stimuli/images/PICTURE_311.png,FLESH,5d0e459e86e343000141468d,14/01/1953,2020-09-03_14h58.01.488,proactive2,2020.1.2,Win32,60,5f5126bb654d4b30ee6923d8,5f513cbe6e6c4c3464094b22,5,,,,,,razor,,,,,,0,32,32,3,1,1,2,,,,,,,,,,,,,,,,,,,,,,,,,,,,,,,,,,,,,,,,,,,,,,,,,,,,,,,,,,,,,,,,,,,,,,,,,,,,,,,,,,,,,,,,,,,,,,,,,,,
,,,,,,,,,,stimuli/images/PICTURE_405.png,JUNGLE,5d0e459e86e343000141468d,14/01/1953,2020-09-03_14h58.01.488,proactive2,2020.1.2,Win32,60,5f5126bb654d4b30ee6923d8,5f513cbe6e6c4c3464094b22,5,,,,,,anchor,,,,,,0,33,33,13,1,2,2,,,,,,,,,,,,,,,,,,,,,,,,,,,,,,,,,,,,,,,,,,,,,,,,,,,,,,,,,,,,,,,,,,,,,,,,,,,,,,,,,,,,,,,,,,,,,,,,,,,
,,,,,,,,,,stimuli/images/PICTURE_32.png,LETTER,5d0e459e86e343000141468d,14/01/1953,2020-09-03_14h58.01.488,proactive2,2020.1.2,Win32,60,5f5126bb654d4b30ee6923d8,5f513cbe6e6c4c3464094b22,5,,,,,,crown,,,,,,0,34,34,56,1,6,2,,,,,,,,,,,,,,,,,,,,,,,,,,,,,,,,,,,,,,,,,,,,,,,,,,,,,,,,,,,,,,,,,,,,,,,,,,,,,,,,,,,,,,,,,,,,,,,,,,,
,,,,,,,,,,stimuli/images/PICTURE_2.png,JUNGLE,5d0e459e86e343000141468d,14/01/1953,2020-09-03_14h58.01.488,proactive2,2020.1.2,Win32,60,5f5126bb654d4b30ee6923d8,5f513cbe6e6c4c3464094b22,5,,,,,,tyre,,,,,,0,35,35,1,1,1,2,,,,,,,,,,,,,,,,,,,,,,,,,,,,,,,,,,,,,,,,,,,,,,,,,,,,,,,,,,,,,,,,,,,,,,,,,,,,,,,,,,,,,,,,,,,,,,,,,,,
,,,,,,,,,,stimuli/images/PICTURE_123.png,SALE,5d0e459e86e343000141468d,14/01/1953,2020-09-03_14h58.01.488,proactive2,2020.1.2,Win32,60,5f5126bb654d4b30ee6923d8,5f513cbe6e6c4c3464094b22,5,,,,,,dart,,,,,,0,36,36,8,1,1,2,,,,,,,,,,,,,,,,,,,,,,,,,,,,,,,,,,,,,,,,,,,,,,,,,,,,,,,,,,,,,,,,,,,,,,,,,,,,,,,,,,,,,,,,,,,,,,,,,,,
,,,,,,,,,,stimuli/images/PICTURE_688.png,CLOCK,5d0e459e86e343000141468d,14/01/1953,2020-09-03_14h58.01.488,proactive2,2020.1.2,Win32,60,5f5126bb654d4b30ee6923d8,5f513cbe6e6c4c3464094b22,5,,,,,,runner,,,,,,0,37,37,42,1,5,2,,,,,,,,,,,,,,,,,,,,,,,,,,,,,,,,,,,,,,,,,,,,,,,,,,,,,,,,,,,,,,,,,,,,,,,,,,,,,,,,,,,,,,,,,,,,,,,,,,,
,,,,,,,,,,stimuli/images/PICTURE_405.png,HOUSE,5d0e459e86e343000141468d,14/01/1953,2020-09-03_14h58.01.488,proactive2,2020.1.2,Win32,60,5f5126bb654d4b30ee6923d8,5f513cbe6e6c4c3464094b22,5,,,,,,anchor,,,,,,0,38,38,2,1,1,2,,,,,,,,,,,,,,,,,,,,,,,,,,,,,,,,,,,,,,,,,,,,,,,,,,,,,,,,,,,,,,,,,,,,,,,,,,,,,,,,,,,,,,,,,,,,,,,,,,,
,,,,,,,,,,stimuli/images/PICTURE_470.png,BEAUTY,5d0e459e86e343000141468d,14/01/1953,2020-09-03_14h58.01.488,proactive2,2020.1.2,Win32,60,5f5126bb654d4b30ee6923d8,5f513cbe6e6c4c3464094b22,5,,,,,,motorbike,,,,,,0,39,39,26,1,3,2,,,,,,,,,,,,,,,,,,,,,,,,,,,,,,,,,,,,,,,,,,,,,,,,,,,,,,,,,,,,,,,,,,,,,,,,,,,,,,,,,,,,,,,,,,,,,,,,,,,
,,,,,,,,,,stimuli/images/PICTURE_285.png,WRITER,5d0e459e86e343000141468d,14/01/1953,2020-09-03_14h58.01.488,proactive2,2020.1.2,Win32,60,5f5126bb654d4b30ee6923d8,5f513cbe6e6c4c3464094b22,5,,,,,,carrot,,,,,,0,40,40,6,1,1,2,,,,,,,,,,,,,,,,,,,,,,,,,,,,,,,,,,,,,,,,,,,,,,,,,,,,,,,,,,,,,,,,,,,,,,,,,,,,,,,,,,,,,,,,,,,,,,,,,,,
,,,,,,,,,,stimuli/images/PICTURE_504.png,HOUSE,5d0e459e86e343000141468d,14/01/1953,2020-09-03_14h58.01.488,proactive2,2020.1.2,Win32,60,5f5126bb654d4b30ee6923d8,5f513cbe6e6c4c3464094b22,5,,,,,,wheel,,,,,,0,41,41,36,1,4,2,,,,,,,,,,,,,,,,,,,,,,,,,,,,,,,,,,,,,,,,,,,,,,,,,,,,,,,,,,,,,,,,,,,,,,,,,,,,,,,,,,,,,,,,,,,,,,,,,,,
,,,,,,,,,,stimuli/images/PICTURE_33.png,COPS,5d0e459e86e343000141468d,14/01/1953,2020-09-03_14h58.01.488,proactive2,2020.1.2,Win32,60,5f5126bb654d4b30ee6923d8,5f513cbe6e6c4c3464094b22,5,,,,,,frame,,,,,,0,42,42,29,1,3,2,,,,,,,,,,,,,,,,,,,,,,,,,,,,,,,,,,,,,,,,,,,,,,,,,,,,,,,,,,,,,,,,,,,,,,,,,,,,,,,,,,,,,,,,,,,,,,,,,,,
,,,,,,,,,,stimuli/images/PICTURE_215.png,LEADER,5d0e459e86e343000141468d,14/01/1953,2020-09-03_14h58.01.488,proactive2,2020.1.2,Win32,60,5f5126bb654d4b30ee6923d8,5f513cbe6e6c4c3464094b22,5,,,,,,boot,,,,,,0,43,43,43,1,5,2,,,,,,,,,,,,,,,,,,,,,,,,,,,,,,,,,,,,,,,,,,,,,,,,,,,,,,,,,,,,,,,,,,,,,,,,,,,,,,,,,,,,,,,,,,,,,,,,,,,
,,,,,,,,,,stimuli/images/PICTURE_160.png,HOTEL,5d0e459e86e343000141468d,14/01/1953,2020-09-03_14h58.01.488,proactive2,2020.1.2,Win32,60,5f5126bb654d4b30ee6923d8,5f513cbe6e6c4c3464094b22,5,,,,,,wheelbarrow,,,,,,0,44,44,16,1,2,2,,,,,,,,,,,,,,,,,,,,,,,,,,,,,,,,,,,,,,,,,,,,,,,,,,,,,,,,,,,,,,,,,,,,,,,,,,,,,,,,,,,,,,,,,,,,,,,,,,,
,,,,,,,,,,stimuli/images/PICTURE_327.png,LEADER,5d0e459e86e343000141468d,14/01/1953,2020-09-03_14h58.01.488,proactive2,2020.1.2,Win32,60,5f5126bb654d4b30ee6923d8,5f513cbe6e6c4c3464094b22,5,,,,,,helmet,,,,,,0,45,45,17,1,2,2,,,,,,,,,,,,,,,,,,,,,,,,,,,,,,,,,,,,,,,,,,,,,,,,,,,,,,,,,,,,,,,,,,,,,,,,,,,,,,,,,,,,,,,,,,,,,,,,,,,
,,,,,,,,,,stimuli/images/PICTURE_708.png,VALLEY,5d0e459e86e343000141468d,14/01/1953,2020-09-03_14h58.01.488,proactive2,2020.1.2,Win32,60,5f5126bb654d4b30ee6923d8,5f513cbe6e6c4c3464094b22,5,,,,,,monkey,,,,,,0,46,46,45,1,5,2,,,,,,,,,,,,,,,,,,,,,,,,,,,,,,,,,,,,,,,,,,,,,,,,,,,,,,,,,,,,,,,,,,,,,,,,,,,,,,,,,,,,,,,,,,,,,,,,,,,
,,,,,,,,,,stimuli/images/PICTURE_509.png,BATH,5d0e459e86e343000141468d,14/01/1953,2020-09-03_14h58.01.488,proactive2,2020.1.2,Win32,60,5f5126bb654d4b30ee6923d8,5f513cbe6e6c4c3464094b22,5,,,,,,telephone,,,,,,0,47,47,15,1,2,2,,,,,,,,,,,,,,,,,,,,,,,,,,,,,,,,,,,,,,,,,,,,,,,,,,,,,,,,,,,,,,,,,,,,,,,,,,,,,,,,,,,,,,,,,,,,,,,,,,,
,,,,,,,,,,stimuli/images/PICTURE_453.png,FAMILY,5d0e459e86e343000141468d,14/01/1953,2020-09-03_14h58.01.488,proactive2,2020.1.2,Win32,60,5f5126bb654d4b30ee6923d8,5f513cbe6e6c4c3464094b22,5,,,,,,scissors,,,,,,0,48,48,48,1,5,2,,,,,,,,,,,,,,,,,,,,,,,,,,,,,,,,,,,,,,,,,,,,,,,,,,,,,,,,,,,,,,,,,,,,,,,,,,,,,,,,,,,,,,,,,,,,,,,,,,,
,,,,,,,,,,stimuli/images/PICTURE_314.png,SPEECH,5d0e459e86e343000141468d,14/01/1953,2020-09-03_14h58.01.488,proactive2,2020.1.2,Win32,60,5f5126bb654d4b30ee6923d8,5f513cbe6e6c4c3464094b22,5,,,,,,perfume,,,,,,0,49,49,35,1,4,2,,,,,,,,,,,,,,,,,,,,,,,,,,,,,,,,,,,,,,,,,,,,,,,,,,,,,,,,,,,,,,,,,,,,,,,,,,,,,,,,,,,,,,,,,,,,,,,,,,,
,,,,,,,,,,stimuli/images/PICTURE_2.png,AREA,5d0e459e86e343000141468d,14/01/1953,2020-09-03_14h58.01.488,proactive2,2020.1.2,Win32,60,5f5126bb654d4b30ee6923d8,5f513cbe6e6c4c3464094b22,5,,,,,,tyre,,,,,,0,50,50,32,1,4,2,,,,,,,,,,,,,,,,,,,,,,,,,,,,,,,,,,,,,,,,,,,,,,,,,,,,,,,,,,,,,,,,,,,,,,,,,,,,,,,,,,,,,,,,,,,,,,,,,,,
,,,,,,,,,,stimuli/images/PICTURE_654.png,YEAR,5d0e459e86e343000141468d,14/01/1953,2020-09-03_14h58.01.488,proactive2,2020.1.2,Win32,60,5f5126bb654d4b30ee6923d8,5f513cbe6e6c4c3464094b22,5,,,,,,pencil,,,,,,0,51,51,41,1,5,2,,,,,,,,,,,,,,,,,,,,,,,,,,,,,,,,,,,,,,,,,,,,,,,,,,,,,,,,,,,,,,,,,,,,,,,,,,,,,,,,,,,,,,,,,,,,,,,,,,,
,,,,,,,,,,stimuli/images/PICTURE_403.png,FAMILY,5d0e459e86e343000141468d,14/01/1953,2020-09-03_14h58.01.488,proactive2,2020.1.2,Win32,60,5f5126bb654d4b30ee6923d8,5f513cbe6e6c4c3464094b22,5,,,,,,cathedral,,,,,,0,52,52,9,1,1,2,,,,,,,,,,,,,,,,,,,,,,,,,,,,,,,,,,,,,,,,,,,,,,,,,,,,,,,,,,,,,,,,,,,,,,,,,,,,,,,,,,,,,,,,,,,,,,,,,,,
,,,,,,,,,,stimuli/images/PICTURE_18.png,RIVER,5d0e459e86e343000141468d,14/01/1953,2020-09-03_14h58.01.488,proactive2,2020.1.2,Win32,60,5f5126bb654d4b30ee6923d8,5f513cbe6e6c4c3464094b22,5,,,,,,planet,,,,,,0,53,53,22,1,3,2,,,,,,,,,,,,,,,,,,,,,,,,,,,,,,,,,,,,,,,,,,,,,,,,,,,,,,,,,,,,,,,,,,,,,,,,,,,,,,,,,,,,,,,,,,,,,,,,,,,
,,,,,,,,,,stimuli/images/PICTURE_2.png,YARD,5d0e459e86e343000141468d,14/01/1953,2020-09-03_14h58.01.488,proactive2,2020.1.2,Win32,60,5f5126bb654d4b30ee6923d8,5f513cbe6e6c4c3464094b22,5,,,,,,tyre,,,,,,0,54,54,55,1,6,2,,,,,,,,,,,,,,,,,,,,,,,,,,,,,,,,,,,,,,,,,,,,,,,,,,,,,,,,,,,,,,,,,,,,,,,,,,,,,,,,,,,,,,,,,,,,,,,,,,,
,,,,,,,,,,stimuli/images/PICTURE_654.png,COPS,5d0e459e86e343000141468d,14/01/1953,2020-09-03_14h58.01.488,proactive2,2020.1.2,Win32,60,5f5126bb654d4b30ee6923d8,5f513cbe6e6c4c3464094b22,5,,,,,,pencil,,,,,,0,55,55,10,1,2,2,,,,,,,,,,,,,,,,,,,,,,,,,,,,,,,,,,,,,,,,,,,,,,,,,,,,,,,,,,,,,,,,,,,,,,,,,,,,,,,,,,,,,,,,,,,,,,,,,,,
,,,,,,,,,,stimuli/images/PICTURE_509.png,SHOTS,5d0e459e86e343000141468d,14/01/1953,2020-09-03_14h58.01.488,proactive2,2020.1.2,Win32,60,5f5126bb654d4b30ee6923d8,5f513cbe6e6c4c3464094b22,5,,,,,,telephone,,,,,,0,56,56,7,1,1,2,,,,,,,,,,,,,,,,,,,,,,,,,,,,,,,,,,,,,,,,,,,,,,,,,,,,,,,,,,,,,,,,,,,,,,,,,,,,,,,,,,,,,,,,,,,,,,,,,,,
,,,,,,,,,,stimuli/images/PICTURE_297.png,BODY,5d0e459e86e343000141468d,14/01/1953,2020-09-03_14h58.01.488,proactive2,2020.1.2,Win32,60,5f5126bb654d4b30ee6923d8,5f513cbe6e6c4c3464094b22,5,,,,,,aeroplane,,,,,,0,57,57,51,1,6,2,,,,,,,,,,,,,,,,,,,,,,,,,,,,,,,,,,,,,,,,,,,,,,,,,,,,,,,,,,,,,,,,,,,,,,,,,,,,,,,,,,,,,,,,,,,,,,,,,,,
,,,,,,,,,,stimuli/images/PICTURE_564.png,PLENTY,5d0e459e86e343000141468d,14/01/1953,2020-09-03_14h58.01.488,proactive2,2020.1.2,Win32,60,5f5126bb654d4b30ee6923d8,5f513cbe6e6c4c3464094b22,5,,,,,,spoon,,,,,,0,58,58,11,1,2,2,,,,,,,,,,,,,,,,,,,,,,,,,,,,,,,,,,,,,,,,,,,,,,,,,,,,,,,,,,,,,,,,,,,,,,,,,,,,,,,,,,,,,,,,,,,,,,,,,,,
,,?,0.000935,0,,,,,,stimuli/images/PICTURE_93.png,GIRL,5d0e459e86e343000141468d,14/01/1953,2020-09-03_14h58.01.488,proactive2,2020.1.2,Win32,60,5f5126bb654d4b30ee6923d8,5f513cbe6e6c4c3464094b22,5,,,,,,skateboard,,,,,,,,,,,4,2,0,0,0,31,1,,,,,,,,,,,,,,,,,,,,,,,,,,,,,,,,,,,,,,,,,,,,,,,,,,,,,,,,,,,,,,,,,,,,,,,,,,,,,,,,,,,,,,,,,,,,,,
,,?,0.00069,0,,,,,,stimuli/images/PICTURE_452.png,COPS,5d0e459e86e343000141468d,14/01/1953,2020-09-03_14h58.01.488,proactive2,2020.1.2,Win32,60,5f5126bb654d4b30ee6923d8,5f513cbe6e6c4c3464094b22,5,,,,,,watch,,,,,,,,,,,1,2,0,1,1,0,1,,,,,,,,,,,,,,,,,,,,,,,,,,,,,,,,,,,,,,,,,,,,,,,,,,,,,,,,,,,,,,,,,,,,,,,,,,,,,,,,,,,,,,,,,,,,,,
,,CANDY,3.493535,1,,,,,,stimuli/images/PICTURE_356.png,CANDY,5d0e459e86e343000141468d,14/01/1953,2020-09-03_14h58.01.488,proactive2,2020.1.2,Win32,60,5f5126bb654d4b30ee6923d8,5f513cbe6e6c4c3464094b22,5,,,,,,pawn,,,,,,,,,,,5,2,0,2,2,46,1,,,,,,,,,,,,,,,,,,,,,,,,,,,,,,,,,,,,,,,,,,,,,,,,,,,,,,,,,,,,,,,,,,,,,,,,,,,,,,,,,,,,,,,,,,,,,,
,,?,0.00069,0,,,,,,stimuli/images/PICTURE_215.png,BOYS,5d0e459e86e343000141468d,14/01/1953,2020-09-03_14h58.01.488,proactive2,2020.1.2,Win32,60,5f5126bb654d4b30ee6923d8,5f513cbe6e6c4c3464094b22,5,,,,,,boot,,,,,,,,,,,3,2,0,3,3,24,1,,,,,,,,,,,,,,,,,,,,,,,,,,,,,,,,,,,,,,,,,,,,,,,,,,,,,,,,,,,,,,,,,,,,,,,,,,,,,,,,,,,,,,,,,,,,,,
,,?,0.000515,0,,,,,,stimuli/images/PICTURE_297.png,BODY,5d0e459e86e343000141468d,14/01/1953,2020-09-03_14h58.01.488,proactive2,2020.1.2,Win32,60,5f5126bb654d4b30ee6923d8,5f513cbe6e6c4c3464094b22,5,,,,,,aeroplane,,,,,,,,,,,6,2,0,4,4,51,1,,,,,,,,,,,,,,,,,,,,,,,,,,,,,,,,,,,,,,,,,,,,,,,,,,,,,,,,,,,,,,,,,,,,,,,,,,,,,,,,,,,,,,,,,,,,,,
,,?,0.00049,0,,,,,,stimuli/images/PICTURE_177.png,HOUSE,5d0e459e86e343000141468d,14/01/1953,2020-09-03_14h58.01.488,proactive2,2020.1.2,Win32,60,5f5126bb654d4b30ee6923d8,5f513cbe6e6c4c3464094b22,5,,,,,,mushroom,,,,,,,,,,,3,2,0,5,5,25,1,,,,,,,,,,,,,,,,,,,,,,,,,,,,,,,,,,,,,,,,,,,,,,,,,,,,,,,,,,,,,,,,,,,,,,,,,,,,,,,,,,,,,,,,,,,,,,
,,?,0.000485,0,,,,,,stimuli/images/PICTURE_285.png,PRINCE,5d0e459e86e343000141468d,14/01/1953,2020-09-03_14h58.01.488,proactive2,2020.1.2,Win32,60,5f5126bb654d4b30ee6923d8,5f513cbe6e6c4c3464094b22,5,,,,,,carrot,,,,,,,,,,,3,2,0,6,6,20,1,,,,,,,,,,,,,,,,,,,,,,,,,,,,,,,,,,,,,,,,,,,,,,,,,,,,,,,,,,,,,,,,,,,,,,,,,,,,,,,,,,,,,,,,,,,,,,
,,YEAR,3.408075,1,,,,,,stimuli/images/PICTURE_654.png,YEAR,5d0e459e86e343000141468d,14/01/1953,2020-09-03_14h58.01.488,proactive2,2020.1.2,Win32,60,5f5126bb654d4b30ee6923d8,5f513cbe6e6c4c3464094b22,5,,,,,,pencil,,,,,,,,,,,5,2,0,7,7,41,1,,,,,,,,,,,,,,,,,,,,,,,,,,,,,,,,,,,,,,,,,,,,,,,,,,,,,,,,,,,,,,,,,,,,,,,,,,,,,,,,,,,,,,,,,,,,,,
,,?,0.00069,0,,,,,,stimuli/images/PICTURE_18.png,RIVER,5d0e459e86e343000141468d,14/01/1953,2020-09-03_14h58.01.488,proactive2,2020.1.2,Win32,60,5f5126bb654d4b30ee6923d8,5f513cbe6e6c4c3464094b22,5,,,,,,planet,,,,,,,,,,,3,2,0,8,8,22,1,,,,,,,,,,,,,,,,,,,,,,,,,,,,,,,,,,,,,,,,,,,,,,,,,,,,,,,,,,,,,,,,,,,,,,,,,,,,,,,,,,,,,,,,,,,,,,
,,?,0.00068,0,,,,,,stimuli/images/PICTURE_147.png,LEADER,5d0e459e86e343000141468d,14/01/1953,2020-09-03_14h58.01.488,proactive2,2020.1.2,Win32,60,5f5126bb654d4b30ee6923d8,5f513cbe6e6c4c3464094b22,5,,,,,,hanger,,,,,,,,,,,4,2,0,9,9,33,1,,,,,,,,,,,,,,,,,,,,,,,,,,,,,,,,,,,,,,,,,,,,,,,,,,,,,,,,,,,,,,,,,,,,,,,,,,,,,,,,,,,,,,,,,,,,,,
,,RIVER,4.075185,0,,,,,,stimuli/images/PICTURE_688.png,CLOCK,5d0e459e86e343000141468d,14/01/1953,2020-09-03_14h58.01.488,proactive2,2020.1.2,Win32,60,5f5126bb654d4b30ee6923d8,5f513cbe6e6c4c3464094b22,5,,,,,,runner,,,,,,,,,,,5,2,0,10,10,42,1,,,,,,,,,,,,,,,,,,,,,,,,,,,,,,,,,,,,,,,,,,,,,,,,,,,,,,,,,,,,,,,,,,,,,,,,,,,,,,,,,,,,,,,,,,,,,,
,,?,0.00071,0,,,,,,stimuli/images/PICTURE_311.png,TOILET,5d0e459e86e343000141468d,14/01/1953,2020-09-03_14h58.01.488,proactive2,2020.1.2,Win32,60,5f5126bb654d4b30ee6923d8,5f513cbe6e6c4c3464094b22,5,,,,,,razor,,,,,,,,,,,6,2,0,11,11,54,1,,,,,,,,,,,,,,,,,,,,,,,,,,,,,,,,,,,,,,,,,,,,,,,,,,,,,,,,,,,,,,,,,,,,,,,,,,,,,,,,,,,,,,,,,,,,,,
,,?,0.000535,0,,,,,,stimuli/images/PICTURE_405.png,HOUSE,5d0e459e86e343000141468d,14/01/1953,2020-09-03_14h58.01.488,proactive2,2020.1.2,Win32,60,5f5126bb654d4b30ee6923d8,5f513cbe6e6c4c3464094b22,5,,,,,,anchor,,,,,,,,,,,1,2,0,12,12,2,1,,,,,,,,,,,,,,,,,,,,,,,,,,,,,,,,,,,,,,,,,,,,,,,,,,,,,,,,,,,,,,,,,,,,,,,,,,,,,,,,,,,,,,,,,,,,,,
,,?,0.00049,0,,,,,,stimuli/images/PICTURE_57.png,CASINO,5d0e459e86e343000141468d,14/01/1953,2020-09-03_14h58.01.488,proactive2,2020.1.2,Win32,60,5f5126bb654d4b30ee6923d8,5f513cbe6e6c4c3464094b22,5,,,,,,stamp,,,,,,,,,,,2,2,0,13,13,12,1,,,,,,,,,,,,,,,,,,,,,,,,,,,,,,,,,,,,,,,,,,,,,,,,,,,,,,,,,,,,,,,,,,,,,,,,,,,,,,,,,,,,,,,,,,,,,,
,,?,0.000465,0,,,,,,stimuli/images/PICTURE_491.png,SERIES,5d0e459e86e343000141468d,14/01/1953,2020-09-03_14h58.01.488,proactive2,2020.1.2,Win32,60,5f5126bb654d4b30ee6923d8,5f513cbe6e6c4c3464094b22,5,,,,,,rug,,,,,,,,,,,4,2,0,14,14,39,1,,,,,,,,,,,,,,,,,,,,,,,,,,,,,,,,,,,,,,,,,,,,,,,,,,,,,,,,,,,,,,,,,,,,,,,,,,,,,,,,,,,,,,,,,,,,,,
,,?,0.00046,0,,,,,,stimuli/images/PICTURE_405.png,JUNGLE,5d0e459e86e343000141468d,14/01/1953,2020-09-03_14h58.01.488,proactive2,2020.1.2,Win32,60,5f5126bb654d4b30ee6923d8,5f513cbe6e6c4c3464094b22,5,,,,,,anchor,,,,,,,,,,,6,2,0,15,15,58,1,,,,,,,,,,,,,,,,,,,,,,,,,,,,,,,,,,,,,,,,,,,,,,,,,,,,,,,,,,,,,,,,,,,,,,,,,,,,,,,,,,,,,,,,,,,,,,
,,?,0.00056,0,,,,,,stimuli/images/PICTURE_215.png,FOOD,5d0e459e86e343000141468d,14/01/1953,2020-09-03_14h58.01.488,proactive2,2020.1.2,Win32,60,5f5126bb654d4b30ee6923d8,5f513cbe6e6c4c3464094b22,5,,,,,,boot,,,,,,,,,,,1,2,0,16,16,5,1,,,,,,,,,,,,,,,,,,,,,,,,,,,,,,,,,,,,,,,,,,,,,,,,,,,,,,,,,,,,,,,,,,,,,,,,,,,,,,,,,,,,,,,,,,,,,,
,,DUDE,2.70051,1,,,,,,stimuli/images/PICTURE_692.png,DUDE,5d0e459e86e343000141468d,14/01/1953,2020-09-03_14h58.01.488,proactive2,2020.1.2,Win32,60,5f5126bb654d4b30ee6923d8,5f513cbe6e6c4c3464094b22,5,,,,,,cherry,,,,,,,,,,,5,2,0,17,17,47,1,,,,,,,,,,,,,,,,,,,,,,,,,,,,,,,,,,,,,,,,,,,,,,,,,,,,,,,,,,,,,,,,,,,,,,,,,,,,,,,,,,,,,,,,,,,,,,
,,?,0.00068,0,,,,,,stimuli/images/PICTURE_2.png,AREA,5d0e459e86e343000141468d,14/01/1953,2020-09-03_14h58.01.488,proactive2,2020.1.2,Win32,60,5f5126bb654d4b30ee6923d8,5f513cbe6e6c4c3464094b22,5,,,,,,tyre,,,,,,,,,,,4,2,0,18,18,32,1,,,,,,,,,,,,,,,,,,,,,,,,,,,,,,,,,,,,,,,,,,,,,,,,,,,,,,,,,,,,,,,,,,,,,,,,,,,,,,,,,,,,,,,,,,,,,,
,,RIVER,3.89632,0,,,,,,stimuli/images/PICTURE_708.png,VALLEY,5d0e459e86e343000141468d,14/01/1953,2020-09-03_14h58.01.488,proactive2,2020.1.2,Win32,60,5f5126bb654d4b30ee6923d8,5f513cbe6e6c4c3464094b22,5,,,,,,monkey,,,,,,,,,,,5,2,0,19,19,45,1,,,,,,,,,,,,,,,,,,,,,,,,,,,,,,,,,,,,,,,,,,,,,,,,,,,,,,,,,,,,,,,,,,,,,,,,,,,,,,,,,,,,,,,,,,,,,,
,,?,0.00081,0,,,,,,stimuli/images/PICTURE_2.png,JUNGLE,5d0e459e86e343000141468d,14/01/1953,2020-09-03_14h58.01.488,proactive2,2020.1.2,Win32,60,5f5126bb654d4b30ee6923d8,5f513cbe6e6c4c3464094b22,5,,,,,,tyre,,,,,,,,,,,1,2,0,20,20,1,1,,,,,,,,,,,,,,,,,,,,,,,,,,,,,,,,,,,,,,,,,,,,,,,,,,,,,,,,,,,,,,,,,,,,,,,,,,,,,,,,,,,,,,,,,,,,,,
,,?,0.000515,0,,,,,,stimuli/images/PICTURE_57.png,CANDY,5d0e459e86e343000141468d,14/01/1953,2020-09-03_14h58.01.488,proactive2,2020.1.2,Win32,60,5f5126bb654d4b30ee6923d8,5f513cbe6e6c4c3464094b22,5,,,,,,stamp,,,,,,,,,,,6,2,0,21,21,52,1,,,,,,,,,,,,,,,,,,,,,,,,,,,,,,,,,,,,,,,,,,,,,,,,,,,,,,,,,,,,,,,,,,,,,,,,,,,,,,,,,,,,,,,,,,,,,,
,,?,0.000475,0,,,,,,stimuli/images/PICTURE_2.png,YARD,5d0e459e86e343000141468d,14/01/1953,2020-09-03_14h58.01.488,proactive2,2020.1.2,Win32,60,5f5126bb654d4b30ee6923d8,5f513cbe6e6c4c3464094b22,5,,,,,,tyre,,,,,,,,,,,6,2,0,22,22,55,1,,,,,,,,,,,,,,,,,,,,,,,,,,,,,,,,,,,,,,,,,,,,,,,,,,,,,,,,,,,,,,,,,,,,,,,,,,,,,,,,,,,,,,,,,,,,,,
,,?,0.00057,0,,,,,,stimuli/images/PICTURE_348.png,DUDE,5d0e459e86e343000141468d,14/01/1953,2020-09-03_14h58.01.488,proactive2,2020.1.2,Win32,60,5f5126bb654d4b30ee6923d8,5f513cbe6e6c4c3464094b22,5,,,,,,pepper,,,,,,,,,,,6,2,0,23,23,59,1,,,,,,,,,,,,,,,,,,,,,,,,,,,,,,,,,,,,,,,,,,,,,,,,,,,,,,,,,,,,,,,,,,,,,,,,,,,,,,,,,,,,,,,,,,,,,,
,,?,0.00047,0,,,,,,stimuli/images/PICTURE_677.png,PHOTO,5d0e459e86e343000141468d,14/01/1953,2020-09-03_14h58.01.488,proactive2,2020.1.2,Win32,60,5f5126bb654d4b30ee6923d8,5f513cbe6e6c4c3464094b22,5,,,,,,map,,,,,,,,,,,2,2,0,24,24,14,1,,,,,,,,,,,,,,,,,,,,,,,,,,,,,,,,,,,,,,,,,,,,,,,,,,,,,,,,,,,,,,,,,,,,,,,,,,,,,,,,,,,,,,,,,,,,,,
,,?,0.00047,0,,,,,,stimuli/images/PICTURE_208.png,SPIRIT,5d0e459e86e343000141468d,14/01/1953,2020-09-03_14h58.01.488,proactive2,2020.1.2,Win32,60,5f5126bb654d4b30ee6923d8,5f513cbe6e6c4c3464094b22,5,,,,,,microphone,,,,,,,,,,,3,2,0,25,25,28,1,,,,,,,,,,,,,,,,,,,,,,,,,,,,,,,,,,,,,,,,,,,,,,,,,,,,,,,,,,,,,,,,,,,,,,,,,,,,,,,,,,,,,,,,,,,,,,
,,?,0.000535,0,,,,,,stimuli/images/PICTURE_504.png,HOUSE,5d0e459e86e343000141468d,14/01/1953,2020-09-03_14h58.01.488,proactive2,2020.1.2,Win32,60,5f5126bb654d4b30ee6923d8,5f513cbe6e6c4c3464094b22,5,,,,,,wheel,,,,,,,,,,,4,2,0,26,26,36,1,,,,,,,,,,,,,,,,,,,,,,,,,,,,,,,,,,,,,,,,,,,,,,,,,,,,,,,,,,,,,,,,,,,,,,,,,,,,,,,,,,,,,,,,,,,,,,
,,?,0.000635,0,,,,,,stimuli/images/PICTURE_348.png,TOILET,5d0e459e86e343000141468d,14/01/1953,2020-09-03_14h58.01.488,proactive2,2020.1.2,Win32,60,5f5126bb654d4b30ee6923d8,5f513cbe6e6c4c3464094b22,5,,,,,,pepper,,,,,,,,,,,1,2,0,27,27,4,1,,,,,,,,,,,,,,,,,,,,,,,,,,,,,,,,,,,,,,,,,,,,,,,,,,,,,,,,,,,,,,,,,,,,,,,,,,,,,,,,,,,,,,,,,,,,,,
,,?,0.00046,0,,,,,,stimuli/images/PICTURE_509.png,BATH,5d0e459e86e343000141468d,14/01/1953,2020-09-03_14h58.01.488,proactive2,2020.1.2,Win32,60,5f5126bb654d4b30ee6923d8,5f513cbe6e6c4c3464094b22,5,,,,,,telephone,,,,,,,,,,,2,2,0,28,28,15,1,,,,,,,,,,,,,,,,,,,,,,,,,,,,,,,,,,,,,,,,,,,,,,,,,,,,,,,,,,,,,,,,,,,,,,,,,,,,,,,,,,,,,,,,,,,,,,
,,FAMILY,3.87157,1,,,,,,stimuli/images/PICTURE_453.png,FAMILY,5d0e459e86e343000141468d,14/01/1953,2020-09-03_14h58.01.488,proactive2,2020.1.2,Win32,60,5f5126bb654d4b30ee6923d8,5f513cbe6e6c4c3464094b22,5,,,,,,scissors,,,,,,,,,,,5,2,0,29,29,48,1,,,,,,,,,,,,,,,,,,,,,,,,,,,,,,,,,,,,,,,,,,,,,,,,,,,,,,,,,,,,,,,,,,,,,,,,,,,,,,,,,,,,,,,,,,,,,,
,,?,0.000775,0,,,,,,stimuli/images/PICTURE_123.png,SALE,5d0e459e86e343000141468d,14/01/1953,2020-09-03_14h58.01.488,proactive2,2020.1.2,Win32,60,5f5126bb654d4b30ee6923d8,5f513cbe6e6c4c3464094b22,5,,,,,,dart,,,,,,,,,,,1,2,0,30,30,8,1,,,,,,,,,,,,,,,,,,,,,,,,,,,,,,,,,,,,,,,,,,,,,,,,,,,,,,,,,,,,,,,,,,,,,,,,,,,,,,,,,,,,,,,,,,,,,,
,,?,0.000515,0,,,,,,stimuli/images/PICTURE_677.png,FAMILY,5d0e459e86e343000141468d,14/01/1953,2020-09-03_14h58.01.488,proactive2,2020.1.2,Win32,60,5f5126bb654d4b30ee6923d8,5f513cbe6e6c4c3464094b22,5,,,,,,map,,,,,,,,,,,6,2,0,31,31,53,1,,,,,,,,,,,,,,,,,,,,,,,,,,,,,,,,,,,,,,,,,,,,,,,,,,,,,,,,,,,,,,,,,,,,,,,,,,,,,,,,,,,,,,,,,,,,,,
,,?,0.00048,0,,,,,,stimuli/images/PICTURE_509.png,SHOTS,5d0e459e86e343000141468d,14/01/1953,2020-09-03_14h58.01.488,proactive2,2020.1.2,Win32,60,5f5126bb654d4b30ee6923d8,5f513cbe6e6c4c3464094b22,5,,,,,,telephone,,,,,,,,,,,1,2,0,32,32,7,1,,,,,,,,,,,,,,,,,,,,,,,,,,,,,,,,,,,,,,,,,,,,,,,,,,,,,,,,,,,,,,,,,,,,,,,,,,,,,,,,,,,,,,,,,,,,,,
,,?,15.038185,0,,,,,,stimuli/images/PICTURE_750.png,POLICY,5d0e459e86e343000141468d,14/01/1953,2020-09-03_14h58.01.488,proactive2,2020.1.2,Win32,60,5f5126bb654d4b30ee6923d8,5f513cbe6e6c4c3464094b22,5,,,,,,kettle,,,,,,,,,,,5,2,0,33,33,44,1,,,,,,,,,,,,,,,,,,,,,,,,,,,,,,,,,,,,,,,,,,,,,,,,,,,,,,,,,,,,,,,,,,,,,,,,,,,,,,,,,,,,,,,,,,,,,,
,,?,0.000715,0,,,,,,stimuli/images/PICTURE_285.png,WRITER,5d0e459e86e343000141468d,14/01/1953,2020-09-03_14h58.01.488,proactive2,2020.1.2,Win32,60,5f5126bb654d4b30ee6923d8,5f513cbe6e6c4c3464094b22,5,,,,,,carrot,,,,,,,,,,,1,2,0,34,34,6,1,,,,,,,,,,,,,,,,,,,,,,,,,,,,,,,,,,,,,,,,,,,,,,,,,,,,,,,,,,,,,,,,,,,,,,,,,,,,,,,,,,,,,,,,,,,,,,
,,?,0.00055,0,,,,,,stimuli/images/PICTURE_33.png,COPS,5d0e459e86e343000141468d,14/01/1953,2020-09-03_14h58.01.488,proactive2,2020.1.2,Win32,60,5f5126bb654d4b30ee6923d8,5f513cbe6e6c4c3464094b22,5,,,,,,frame,,,,,,,,,,,3,2,0,35,35,29,1,,,,,,,,,,,,,,,,,,,,,,,,,,,,,,,,,,,,,,,,,,,,,,,,,,,,,,,,,,,,,,,,,,,,,,,,,,,,,,,,,,,,,,,,,,,,,,
,,?,15.01534,0,,,,,,stimuli/images/PICTURE_509.png,MILLER,5d0e459e86e343000141468d,14/01/1953,2020-09-03_14h58.01.488,proactive2,2020.1.2,Win32,60,5f5126bb654d4b30ee6923d8,5f513cbe6e6c4c3464094b22,5,,,,,,telephone,,,,,,,,,,,5,2,0,36,36,49,1,,,,,,,,,,,,,,,,,,,,,,,,,,,,,,,,,,,,,,,,,,,,,,,,,,,,,,,,,,,,,,,,,,,,,,,,,,,,,,,,,,,,,,,,,,,,,,
,,LEADER,3.24629,1,,,,,,stimuli/images/PICTURE_215.png,LEADER,5d0e459e86e343000141468d,14/01/1953,2020-09-03_14h58.01.488,proactive2,2020.1.2,Win32,60,5f5126bb654d4b30ee6923d8,5f513cbe6e6c4c3464094b22,5,,,,,,boot,,,,,,,,,,,5,2,0,37,37,43,1,,,,,,,,,,,,,,,,,,,,,,,,,,,,,,,,,,,,,,,,,,,,,,,,,,,,,,,,,,,,,,,,,,,,,,,,,,,,,,,,,,,,,,,,,,,,,,
,,?,0.000745,0,,,,,,stimuli/images/PICTURE_296.png,CLOCK,5d0e459e86e343000141468d,14/01/1953,2020-09-03_14h58.01.488,proactive2,2020.1.2,Win32,60,5f5126bb654d4b30ee6923d8,5f513cbe6e6c4c3464094b22,5,,,,,,bolt,,,,,,,,,,,2,2,0,38,38,18,1,,,,,,,,,,,,,,,,,,,,,,,,,,,,,,,,,,,,,,,,,,,,,,,,,,,,,,,,,,,,,,,,,,,,,,,,,,,,,,,,,,,,,,,,,,,,,,
,,?,0.00048,0,,,,,,stimuli/images/PICTURE_470.png,BEAUTY,5d0e459e86e343000141468d,14/01/1953,2020-09-03_14h58.01.488,proactive2,2020.1.2,Win32,60,5f5126bb654d4b30ee6923d8,5f513cbe6e6c4c3464094b22,5,,,,,,motorbike,,,,,,,,,,,3,2,0,39,39,26,1,,,,,,,,,,,,,,,,,,,,,,,,,,,,,,,,,,,,,,,,,,,,,,,,,,,,,,,,,,,,,,,,,,,,,,,,,,,,,,,,,,,,,,,,,,,,,,
,,?,0.000475,0,,,,,,stimuli/images/PICTURE_160.png,HOTEL,5d0e459e86e343000141468d,14/01/1953,2020-09-03_14h58.01.488,proactive2,2020.1.2,Win32,60,5f5126bb654d4b30ee6923d8,5f513cbe6e6c4c3464094b22,5,,,,,,wheelbarrow,,,,,,,,,,,2,2,0,40,40,16,1,,,,,,,,,,,,,,,,,,,,,,,,,,,,,,,,,,,,,,,,,,,,,,,,,,,,,,,,,,,,,,,,,,,,,,,,,,,,,,,,,,,,,,,,,,,,,,
,,?,0.000505,0,,,,,,stimuli/images/PICTURE_509.png,APPLE,5d0e459e86e343000141468d,14/01/1953,2020-09-03_14h58.01.488,proactive2,2020.1.2,Win32,60,5f5126bb654d4b30ee6923d8,5f513cbe6e6c4c3464094b22,5,,,,,,telephone,,,,,,,,,,,4,2,0,41,41,38,1,,,,,,,,,,,,,,,,,,,,,,,,,,,,,,,,,,,,,,,,,,,,,,,,,,,,,,,,,,,,,,,,,,,,,,,,,,,,,,,,,,,,,,,,,,,,,,
,,?,0.000695,0,,,,,,stimuli/images/PICTURE_327.png,LEADER,5d0e459e86e343000141468d,14/01/1953,2020-09-03_14h58.01.488,proactive2,2020.1.2,Win32,60,5f5126bb654d4b30ee6923d8,5f513cbe6e6c4c3464094b22,5,,,,,,helmet,,,,,,,,,,,2,2,0,42,42,17,1,,,,,,,,,,,,,,,,,,,,,,,,,,,,,,,,,,,,,,,,,,,,,,,,,,,,,,,,,,,,,,,,,,,,,,,,,,,,,,,,,,,,,,,,,,,,,,
,,?,0.00056,0,,,,,,stimuli/images/PICTURE_403.png,FAMILY,5d0e459e86e343000141468d,14/01/1953,2020-09-03_14h58.01.488,proactive2,2020.1.2,Win32,60,5f5126bb654d4b30ee6923d8,5f513cbe6e6c4c3464094b22,5,,,,,,cathedral,,,,,,,,,,,1,2,0,43,43,9,1,,,,,,,,,,,,,,,,,,,,,,,,,,,,,,,,,,,,,,,,,,,,,,,,,,,,,,,,,,,,,,,,,,,,,,,,,,,,,,,,,,,,,,,,,,,,,,
,,?,0.00049,0,,,,,,stimuli/images/PICTURE_57.png,NATION,5d0e459e86e343000141468d,14/01/1953,2020-09-03_14h58.01.488,proactive2,2020.1.2,Win32,60,5f5126bb654d4b30ee6923d8,5f513cbe6e6c4c3464094b22,5,,,,,,stamp,,,,,,,,,,,3,2,0,44,44,21,1,,,,,,,,,,,,,,,,,,,,,,,,,,,,,,,,,,,,,,,,,,,,,,,,,,,,,,,,,,,,,,,,,,,,,,,,,,,,,,,,,,,,,,,,,,,,,,
,,?,0.000455,0,,,,,,stimuli/images/PICTURE_141.png,CLIENT,5d0e459e86e343000141468d,14/01/1953,2020-09-03_14h58.01.488,proactive2,2020.1.2,Win32,60,5f5126bb654d4b30ee6923d8,5f513cbe6e6c4c3464094b22,5,,,,,,sunflower,,,,,,,,,,,4,2,0,45,45,30,1,,,,,,,,,,,,,,,,,,,,,,,,,,,,,,,,,,,,,,,,,,,,,,,,,,,,,,,,,,,,,,,,,,,,,,,,,,,,,,,,,,,,,,,,,,,,,,
,,?,0.00058,0,,,,,,stimuli/images/PICTURE_311.png,FLESH,5d0e459e86e343000141468d,14/01/1953,2020-09-03_14h58.01.488,proactive2,2020.1.2,Win32,60,5f5126bb654d4b30ee6923d8,5f513cbe6e6c4c3464094b22,5,,,,,,razor,,,,,,,,,,,1,2,0,46,46,3,1,,,,,,,,,,,,,,,,,,,,,,,,,,,,,,,,,,,,,,,,,,,,,,,,,,,,,,,,,,,,,,,,,,,,,,,,,,,,,,,,,,,,,,,,,,,,,,
,,?,0.000535,0,,,,,,stimuli/images/PICTURE_655.png,SALE,5d0e459e86e343000141468d,14/01/1953,2020-09-03_14h58.01.488,proactive2,2020.1.2,Win32,60,5f5126bb654d4b30ee6923d8,5f513cbe6e6c4c3464094b22,5,,,,,,megaphone,,,,,,,,,,,6,2,0,47,47,57,1,,,,,,,,,,,,,,,,,,,,,,,,,,,,,,,,,,,,,,,,,,,,,,,,,,,,,,,,,,,,,,,,,,,,,,,,,,,,,,,,,,,,,,,,,,,,,,
,,?,0.000545,0,,,,,,stimuli/images/PICTURE_487.png,POLICY,5d0e459e86e343000141468d,14/01/1953,2020-09-03_14h58.01.488,proactive2,2020.1.2,Win32,60,5f5126bb654d4b30ee6923d8,5f513cbe6e6c4c3464094b22,5,,,,,,basket,,,,,,,,,,,4,2,0,48,48,34,1,,,,,,,,,,,,,,,,,,,,,,,,,,,,,,,,,,,,,,,,,,,,,,,,,,,,,,,,,,,,,,,,,,,,,,,,,,,,,,,,,,,,,,,,,,,,,,
,,MOTION,5.25367,0,,,,,,stimuli/images/PICTURE_470.png,MOMENT,5d0e459e86e343000141468d,14/01/1953,2020-09-03_14h58.01.488,proactive2,2020.1.2,Win32,60,5f5126bb654d4b30ee6923d8,5f513cbe6e6c4c3464094b22,5,,,,,,motorbike,,,,,,,,,,,5,2,0,49,49,40,1,,,,,,,,,,,,,,,,,,,,,,,,,,,,,,,,,,,,,,,,,,,,,,,,,,,,,,,,,,,,,,,,,,,,,,,,,,,,,,,,,,,,,,,,,,,,,,
,,?,0.000675,0,,,,,,stimuli/images/PICTURE_667.png,GLASS,5d0e459e86e343000141468d,14/01/1953,2020-09-03_14h58.01.488,proactive2,2020.1.2,Win32,60,5f5126bb654d4b30ee6923d8,5f513cbe6e6c4c3464094b22,5,,,,,,daisy,,,,,,,,,,,3,2,0,50,50,27,1,,,,,,,,,,,,,,,,,,,,,,,,,,,,,,,,,,,,,,,,,,,,,,,,,,,,,,,,,,,,,,,,,,,,,,,,,,,,,,,,,,,,,,,,,,,,,,
,,?,0.00046,0,,,,,,stimuli/images/PICTURE_95.png,NIGHT,5d0e459e86e343000141468d,14/01/1953,2020-09-03_14h58.01.488,proactive2,2020.1.2,Win32,60,5f5126bb654d4b30ee6923d8,5f513cbe6e6c4c3464094b22,5,,,,,,suitcase,,,,,,,,,,,4,2,0,51,51,37,1,,,,,,,,,,,,,,,,,,,,,,,,,,,,,,,,,,,,,,,,,,,,,,,,,,,,,,,,,,,,,,,,,,,,,,,,,,,,,,,,,,,,,,,,,,,,,,
,,?,0.000445,0,,,,,,stimuli/images/PICTURE_255.png,PENNY,5d0e459e86e343000141468d,14/01/1953,2020-09-03_14h58.01.488,proactive2,2020.1.2,Win32,60,5f5126bb654d4b30ee6923d8,5f513cbe6e6c4c3464094b22,5,,,,,,shovel,,,,,,,,,,,2,2,0,52,52,19,1,,,,,,,,,,,,,,,,,,,,,,,,,,,,,,,,,,,,,,,,,,,,,,,,,,,,,,,,,,,,,,,,,,,,,,,,,,,,,,,,,,,,,,,,,,,,,,
,,?,0.00044,0,,,,,,stimuli/images/PICTURE_405.png,JUNGLE,5d0e459e86e343000141468d,14/01/1953,2020-09-03_14h58.01.488,proactive2,2020.1.2,Win32,60,5f5126bb654d4b30ee6923d8,5f513cbe6e6c4c3464094b22,5,,,,,,anchor,,,,,,,,,,,2,2,0,53,53,13,1,,,,,,,,,,,,,,,,,,,,,,,,,,,,,,,,,,,,,,,,,,,,,,,,,,,,,,,,,,,,,,,,,,,,,,,,,,,,,,,,,,,,,,,,,,,,,,
,,?,0.00049,0,,,,,,stimuli/images/PICTURE_564.png,PLENTY,5d0e459e86e343000141468d,14/01/1953,2020-09-03_14h58.01.488,proactive2,2020.1.2,Win32,60,5f5126bb654d4b30ee6923d8,5f513cbe6e6c4c3464094b22,5,,,,,,spoon,,,,,,,,,,,2,2,0,54,54,11,1,,,,,,,,,,,,,,,,,,,,,,,,,,,,,,,,,,,,,,,,,,,,,,,,,,,,,,,,,,,,,,,,,,,,,,,,,,,,,,,,,,,,,,,,,,,,,,
,,?,0.00045,0,,,,,,stimuli/images/PICTURE_487.png,ROOF,5d0e459e86e343000141468d,14/01/1953,2020-09-03_14h58.01.488,proactive2,2020.1.2,Win32,60,5f5126bb654d4b30ee6923d8,5f513cbe6e6c4c3464094b22,5,,,,,,basket,,,,,,,,,,,6,2,0,55,55,50,1,,,,,,,,,,,,,,,,,,,,,,,,,,,,,,,,,,,,,,,,,,,,,,,,,,,,,,,,,,,,,,,,,,,,,,,,,,,,,,,,,,,,,,,,,,,,,,
,,?,0.000525,0,,,,,,stimuli/images/PICTURE_32.png,LETTER,5d0e459e86e343000141468d,14/01/1953,2020-09-03_14h58.01.488,proactive2,2020.1.2,Win32,60,5f5126bb654d4b30ee6923d8,5f513cbe6e6c4c3464094b22,5,,,,,,crown,,,,,,,,,,,6,2,0,56,56,56,1,,,,,,,,,,,,,,,,,,,,,,,,,,,,,,,,,,,,,,,,,,,,,,,,,,,,,,,,,,,,,,,,,,,,,,,,,,,,,,,,,,,,,,,,,,,,,,
,,?,0.000425,0,,,,,,stimuli/images/PICTURE_314.png,SPEECH,5d0e459e86e343000141468d,14/01/1953,2020-09-03_14h58.01.488,proactive2,2020.1.2,Win32,60,5f5126bb654d4b30ee6923d8,5f513cbe6e6c4c3464094b22,5,,,,,,perfume,,,,,,,,,,,4,2,0,57,57,35,1,,,,,,,,,,,,,,,,,,,,,,,,,,,,,,,,,,,,,,,,,,,,,,,,,,,,,,,,,,,,,,,,,,,,,,,,,,,,,,,,,,,,,,,,,,,,,,
,,?,0.00043,0,,,,,,stimuli/images/PICTURE_654.png,COPS,5d0e459e86e343000141468d,14/01/1953,2020-09-03_14h58.01.488,proactive2,2020.1.2,Win32,60,5f5126bb654d4b30ee6923d8,5f513cbe6e6c4c3464094b22,5,,,,,,pencil,,,,,,,,,,,2,2,0,58,58,10,1,,,,,,,,,,,,,,,,,,,,,,,,,,,,,,,,,,,,,,,,,,,,,,,,,,,,,,,,,,,,,,,,,,,,,,,,,,,,,,,,,,,,,,,,,,,,,,
,,?,0.0004,0,,,,,,stimuli/images/PICTURE_68.png,KIND,5d0e459e86e343000141468d,14/01/1953,2020-09-03_14h58.01.488,proactive2,2020.1.2,Win32,60,5f5126bb654d4b30ee6923d8,5f513cbe6e6c4c3464094b22,5,,,,,,candle,,,,,,,,,,,3,2,0,59,59,23,1,,,,,,,,,,,,,,,,,,,,,,,,,,,,,,,,,,,,,,,,,,,,,,,,,,,,,,,,,,,,,,,,,,,,,,,,,,,,,,,,,,,,,,,,,,,,,,
,,,,,,,,,,,,5d0e459e86e343000141468d,14/01/1953,2020-09-03_14h58.01.488,proactive2,2020.1.2,Win32,60,5f5126bb654d4b30ee6923d8,5f513cbe6e6c4c3464094b22,5,,,,,,,,,,,,,,,,,,,,,,,,0,1,1,2,1,stimuli/learn-block3.csv,,,,,,,,,,,,,,,,,,,,,,,,,,,,,,,,,,,,,,,,,,,,,,,,,,,,,,,,,,,,,,,,,,,,,,,,,,,,,,,,,,,,,,,,
,,,,,,,,,,stimuli/images/PICTURE_667.png,BATH,5d0e459e86e343000141468d,14/01/1953,2020-09-03_14h58.01.488,proactive2,2020.1.2,Win32,60,5f5126bb654d4b30ee6923d8,5f513cbe6e6c4c3464094b22,5,,,,,,daisy,,,,,,0,0,0,4,1,1,0,,,,,,,,,,,,,,,,,,,,,,,,,,,,,,,,,,,,,,,,,,,,,,,,,,,,,,,,,,,,,,,,,,,,,,,,,,,,,,,,,,,,,,,,,,,,,,,,,,,
,,,,,,,,,,stimuli/images/PICTURE_123.png,ADVICE,5d0e459e86e343000141468d,14/01/1953,2020-09-03_14h58.01.488,proactive2,2020.1.2,Win32,60,5f5126bb654d4b30ee6923d8,5f513cbe6e6c4c3464094b22,5,,,,,,dart,,,,,,0,1,1,40,1,5,0,,,,,,,,,,,,,,,,,,,,,,,,,,,,,,,,,,,,,,,,,,,,,,,,,,,,,,,,,,,,,,,,,,,,,,,,,,,,,,,,,,,,,,,,,,,,,,,,,,,
,,,,,,,,,,stimuli/images/PICTURE_470.png,CASINO,5d0e459e86e343000141468d,14/01/1953,2020-09-03_14h58.01.488,proactive2,2020.1.2,Win32,60,5f5126bb654d4b30ee6923d8,5f513cbe6e6c4c3464094b22,5,,,,,,motorbike,,,,,,0,2,2,36,1,4,0,,,,,,,,,,,,,,,,,,,,,,,,,,,,,,,,,,,,,,,,,,,,,,,,,,,,,,,,,,,,,,,,,,,,,,,,,,,,,,,,,,,,,,,,,,,,,,,,,,,
,,,,,,,,,,stimuli/images/PICTURE_675.png,WEAPON,5d0e459e86e343000141468d,14/01/1953,2020-09-03_14h58.01.488,proactive2,2020.1.2,Win32,60,5f5126bb654d4b30ee6923d8,5f513cbe6e6c4c3464094b22,5,,,,,,windmill,,,,,,0,3,3,32,1,4,0,,,,,,,,,,,,,,,,,,,,,,,,,,,,,,,,,,,,,,,,,,,,,,,,,,,,,,,,,,,,,,,,,,,,,,,,,,,,,,,,,,,,,,,,,,,,,,,,,,,
,,,,,,,,,,stimuli/images/PICTURE_308.png,KIND,5d0e459e86e343000141468d,14/01/1953,2020-09-03_14h58.01.488,proactive2,2020.1.2,Win32,60,5f5126bb654d4b30ee6923d8,5f513cbe6e6c4c3464094b22,5,,,,,,dice,,,,,,0,4,4,54,1,6,0,,,,,,,,,,,,,,,,,,,,,,,,,,,,,,,,,,,,,,,,,,,,,,,,,,,,,,,,,,,,,,,,,,,,,,,,,,,,,,,,,,,,,,,,,,,,,,,,,,,
,,,,,,,,,,stimuli/images/PICTURE_285.png,ADVICE,5d0e459e86e343000141468d,14/01/1953,2020-09-03_14h58.01.488,proactive2,2020.1.2,Win32,60,5f5126bb654d4b30ee6923d8,5f513cbe6e6c4c3464094b22,5,,,,,,carrot,,,,,,0,5,5,12,1,2,0,,,,,,,,,,,,,,,,,,,,,,,,,,,,,,,,,,,,,,,,,,,,,,,,,,,,,,,,,,,,,,,,,,,,,,,,,,,,,,,,,,,,,,,,,,,,,,,,,,,
,,,,,,,,,,stimuli/images/PICTURE_208.png,MONTH,5d0e459e86e343000141468d,14/01/1953,2020-09-03_14h58.01.488,proactive2,2020.1.2,Win32,60,5f5126bb654d4b30ee6923d8,5f513cbe6e6c4c3464094b22,5,,,,,,microphone,,,,,,0,6,6,53,1,6,0,,,,,,,,,,,,,,,,,,,,,,,,,,,,,,,,,,,,,,,,,,,,,,,,,,,,,,,,,,,,,,,,,,,,,,,,,,,,,,,,,,,,,,,,,,,,,,,,,,,
,,,,,,,,,,stimuli/images/PICTURE_449.png,THING,5d0e459e86e343000141468d,14/01/1953,2020-09-03_14h58.01.488,proactive2,2020.1.2,Win32,60,5f5126bb654d4b30ee6923d8,5f513cbe6e6c4c3464094b22,5,,,,,,bench,,,,,,0,7,7,59,1,6,0,,,,,,,,,,,,,,,,,,,,,,,,,,,,,,,,,,,,,,,,,,,,,,,,,,,,,,,,,,,,,,,,,,,,,,,,,,,,,,,,,,,,,,,,,,,,,,,,,,,
,,,,,,,,,,stimuli/images/PICTURE_208.png,THING,5d0e459e86e343000141468d,14/01/1953,2020-09-03_14h58.01.488,proactive2,2020.1.2,Win32,60,5f5126bb654d4b30ee6923d8,5f513cbe6e6c4c3464094b22,5,,,,,,microphone,,,,,,0,8,8,47,1,5,0,,,,,,,,,,,,,,,,,,,,,,,,,,,,,,,,,,,,,,,,,,,,,,,,,,,,,,,,,,,,,,,,,,,,,,,,,,,,,,,,,,,,,,,,,,,,,,,,,,,
,,,,,,,,,,stimuli/images/PICTURE_233.png,WOMEN,5d0e459e86e343000141468d,14/01/1953,2020-09-03_14h58.01.488,proactive2,2020.1.2,Win32,60,5f5126bb654d4b30ee6923d8,5f513cbe6e6c4c3464094b22,5,,,,,,salt,,,,,,0,9,9,38,1,4,0,,,,,,,,,,,,,,,,,,,,,,,,,,,,,,,,,,,,,,,,,,,,,,,,,,,,,,,,,,,,,,,,,,,,,,,,,,,,,,,,,,,,,,,,,,,,,,,,,,,
,,,,,,,,,,stimuli/images/PICTURE_160.png,FEET,5d0e459e86e343000141468d,14/01/1953,2020-09-03_14h58.01.488,proactive2,2020.1.2,Win32,60,5f5126bb654d4b30ee6923d8,5f513cbe6e6c4c3464094b22,5,,,,,,wheelbarrow,,,,,,0,10,10,58,1,6,0,,,,,,,,,,,,,,,,,,,,,,,,,,,,,,,,,,,,,,,,,,,,,,,,,,,,,,,,,,,,,,,,,,,,,,,,,,,,,,,,,,,,,,,,,,,,,,,,,,,
,,,,,,,,,,stimuli/images/PICTURE_708.png,PENNY,5d0e459e86e343000141468d,14/01/1953,2020-09-03_14h58.01.488,proactive2,2020.1.2,Win32,60,5f5126bb654d4b30ee6923d8,5f513cbe6e6c4c3464094b22,5,,,,,,monkey,,,,,,0,11,11,31,1,4,0,,,,,,,,,,,,,,,,,,,,,,,,,,,,,,,,,,,,,,,,,,,,,,,,,,,,,,,,,,,,,,,,,,,,,,,,,,,,,,,,,,,,,,,,,,,,,,,,,,,
,,,,,,,,,,stimuli/images/PICTURE_380.png,DEATH,5d0e459e86e343000141468d,14/01/1953,2020-09-03_14h58.01.488,proactive2,2020.1.2,Win32,60,5f5126bb654d4b30ee6923d8,5f513cbe6e6c4c3464094b22,5,,,,,,gorilla,,,,,,0,12,12,49,1,5,0,,,,,,,,,,,,,,,,,,,,,,,,,,,,,,,,,,,,,,,,,,,,,,,,,,,,,,,,,,,,,,,,,,,,,,,,,,,,,,,,,,,,,,,,,,,,,,,,,,,
,,,,,,,,,,stimuli/images/PICTURE_667.png,PLENTY,5d0e459e86e343000141468d,14/01/1953,2020-09-03_14h58.01.488,proactive2,2020.1.2,Win32,60,5f5126bb654d4b30ee6923d8,5f513cbe6e6c4c3464094b22,5,,,,,,daisy,,,,,,0,13,13,41,1,5,0,,,,,,,,,,,,,,,,,,,,,,,,,,,,,,,,,,,,,,,,,,,,,,,,,,,,,,,,,,,,,,,,,,,,,,,,,,,,,,,,,,,,,,,,,,,,,,,,,,,
,,,,,,,,,,stimuli/images/PICTURE_677.png,MILE,5d0e459e86e343000141468d,14/01/1953,2020-09-03_14h58.01.488,proactive2,2020.1.2,Win32,60,5f5126bb654d4b30ee6923d8,5f513cbe6e6c4c3464094b22,5,,,,,,map,,,,,,0,14,14,30,1,4,0,,,,,,,,,,,,,,,,,,,,,,,,,,,,,,,,,,,,,,,,,,,,,,,,,,,,,,,,,,,,,,,,,,,,,,,,,,,,,,,,,,,,,,,,,,,,,,,,,,,
,,,,,,,,,,stimuli/images/PICTURE_215.png,PLENTY,5d0e459e86e343000141468d,14/01/1953,2020-09-03_14h58.01.488,proactive2,2020.1.2,Win32,60,5f5126bb654d4b30ee6923d8,5f513cbe6e6c4c3464094b22,5,,,,,,boot,,,,,,0,15,15,37,1,4,0,,,,,,,,,,,,,,,,,,,,,,,,,,,,,,,,,,,,,,,,,,,,,,,,,,,,,,,,,,,,,,,,,,,,,,,,,,,,,,,,,,,,,,,,,,,,,,,,,,,
,,,,,,,,,,stimuli/images/PICTURE_491.png,WRITER,5d0e459e86e343000141468d,14/01/1953,2020-09-03_14h58.01.488,proactive2,2020.1.2,Win32,60,5f5126bb654d4b30ee6923d8,5f513cbe6e6c4c3464094b22,5,,,,,,rug,,,,,,0,16,16,57,1,6,0,,,,,,,,,,,,,,,,,,,,,,,,,,,,,,,,,,,,,,,,,,,,,,,,,,,,,,,,,,,,,,,,,,,,,,,,,,,,,,,,,,,,,,,,,,,,,,,,,,,
,,,,,,,,,,stimuli/images/PICTURE_147.png,MOMENT,5d0e459e86e343000141468d,14/01/1953,2020-09-03_14h58.01.488,proactive2,2020.1.2,Win32,60,5f5126bb654d4b30ee6923d8,5f513cbe6e6c4c3464094b22,5,,,,,,hanger,,,,,,0,17,17,51,1,6,0,,,,,,,,,,,,,,,,,,,,,,,,,,,,,,,,,,,,,,,,,,,,,,,,,,,,,,,,,,,,,,,,,,,,,,,,,,,,,,,,,,,,,,,,,,,,,,,,,,,
,,,,,,,,,,stimuli/images/PICTURE_348.png,SPEECH,5d0e459e86e343000141468d,14/01/1953,2020-09-03_14h58.01.488,proactive2,2020.1.2,Win32,60,5f5126bb654d4b30ee6923d8,5f513cbe6e6c4c3464094b22,5,,,,,,pepper,,,,,,0,18,18,20,1,3,0,,,,,,,,,,,,,,,,,,,,,,,,,,,,,,,,,,,,,,,,,,,,,,,,,,,,,,,,,,,,,,,,,,,,,,,,,,,,,,,,,,,,,,,,,,,,,,,,,,,
,,,,,,,,,,stimuli/images/PICTURE_95.png,STYLE,5d0e459e86e343000141468d,14/01/1953,2020-09-03_14h58.01.488,proactive2,2020.1.2,Win32,60,5f5126bb654d4b30ee6923d8,5f513cbe6e6c4c3464094b22,5,,,,,,suitcase,,,,,,0,19,19,25,1,3,0,,,,,,,,,,,,,,,,,,,,,,,,,,,,,,,,,,,,,,,,,,,,,,,,,,,,,,,,,,,,,,,,,,,,,,,,,,,,,,,,,,,,,,,,,,,,,,,,,,,
,,,,,,,,,,stimuli/images/PICTURE_688.png,CASINO,5d0e459e86e343000141468d,14/01/1953,2020-09-03_14h58.01.488,proactive2,2020.1.2,Win32,60,5f5126bb654d4b30ee6923d8,5f513cbe6e6c4c3464094b22,5,,,,,,runner,,,,,,0,20,20,2,1,1,0,,,,,,,,,,,,,,,,,,,,,,,,,,,,,,,,,,,,,,,,,,,,,,,,,,,,,,,,,,,,,,,,,,,,,,,,,,,,,,,,,,,,,,,,,,,,,,,,,,,
,,,,,,,,,,stimuli/images/PICTURE_327.png,BEAUTY,5d0e459e86e343000141468d,14/01/1953,2020-09-03_14h58.01.488,proactive2,2020.1.2,Win32,60,5f5126bb654d4b30ee6923d8,5f513cbe6e6c4c3464094b22,5,,,,,,helmet,,,,,,0,21,21,48,1,5,0,,,,,,,,,,,,,,,,,,,,,,,,,,,,,,,,,,,,,,,,,,,,,,,,,,,,,,,,,,,,,,,,,,,,,,,,,,,,,,,,,,,,,,,,,,,,,,,,,,,
,,,,,,,,,,stimuli/images/PICTURE_255.png,AREA,5d0e459e86e343000141468d,14/01/1953,2020-09-03_14h58.01.488,proactive2,2020.1.2,Win32,60,5f5126bb654d4b30ee6923d8,5f513cbe6e6c4c3464094b22,5,,,,,,shovel,,,,,,0,22,22,22,1,3,0,,,,,,,,,,,,,,,,,,,,,,,,,,,,,,,,,,,,,,,,,,,,,,,,,,,,,,,,,,,,,,,,,,,,,,,,,,,,,,,,,,,,,,,,,,,,,,,,,,,
,,,,,,,,,,stimuli/images/PICTURE_177.png,CARS,5d0e459e86e343000141468d,14/01/1953,2020-09-03_14h58.01.488,proactive2,2020.1.2,Win32,60,5f5126bb654d4b30ee6923d8,5f513cbe6e6c4c3464094b22,5,,,,,,mushroom,,,,,,0,23,23,35,1,4,0,,,,,,,,,,,,,,,,,,,,,,,,,,,,,,,,,,,,,,,,,,,,,,,,,,,,,,,,,,,,,,,,,,,,,,,,,,,,,,,,,,,,,,,,,,,,,,,,,,,
,,,,,,,,,,stimuli/images/PICTURE_68.png,MILE,5d0e459e86e343000141468d,14/01/1953,2020-09-03_14h58.01.488,proactive2,2020.1.2,Win32,60,5f5126bb654d4b30ee6923d8,5f513cbe6e6c4c3464094b22,5,,,,,,candle,,,,,,0,24,24,44,1,5,0,,,,,,,,,,,,,,,,,,,,,,,,,,,,,,,,,,,,,,,,,,,,,,,,,,,,,,,,,,,,,,,,,,,,,,,,,,,,,,,,,,,,,,,,,,,,,,,,,,,
,,,,,,,,,,stimuli/images/PICTURE_314.png,SAKE,5d0e459e86e343000141468d,14/01/1953,2020-09-03_14h58.01.488,proactive2,2020.1.2,Win32,60,5f5126bb654d4b30ee6923d8,5f513cbe6e6c4c3464094b22,5,,,,,,perfume,,,,,,0,25,25,7,1,1,0,,,,,,,,,,,,,,,,,,,,,,,,,,,,,,,,,,,,,,,,,,,,,,,,,,,,,,,,,,,,,,,,,,,,,,,,,,,,,,,,,,,,,,,,,,,,,,,,,,,
,,,,,,,,,,stimuli/images/PICTURE_314.png,GODS,5d0e459e86e343000141468d,14/01/1953,2020-09-03_14h58.01.488,proactive2,2020.1.2,Win32,60,5f5126bb654d4b30ee6923d8,5f513cbe6e6c4c3464094b22,5,,,,,,perfume,,,,,,0,26,26,11,1,2,0,,,,,,,,,,,,,,,,,,,,,,,,,,,,,,,,,,,,,,,,,,,,,,,,,,,,,,,,,,,,,,,,,,,,,,,,,,,,,,,,,,,,,,,,,,,,,,,,,,,
,,,,,,,,,,stimuli/images/PICTURE_708.png,YARD,5d0e459e86e343000141468d,14/01/1953,2020-09-03_14h58.01.488,proactive2,2020.1.2,Win32,60,5f5126bb654d4b30ee6923d8,5f513cbe6e6c4c3464094b22,5,,,,,,monkey,,,,,,0,27,27,29,1,3,0,,,,,,,,,,,,,,,,,,,,,,,,,,,,,,,,,,,,,,,,,,,,,,,,,,,,,,,,,,,,,,,,,,,,,,,,,,,,,,,,,,,,,,,,,,,,,,,,,,,
,,,,,,,,,,stimuli/images/PICTURE_233.png,IDEAS,5d0e459e86e343000141468d,14/01/1953,2020-09-03_14h58.01.488,proactive2,2020.1.2,Win32,60,5f5126bb654d4b30ee6923d8,5f513cbe6e6c4c3464094b22,5,,,,,,salt,,,,,,0,28,28,28,1,3,0,,,,,,,,,,,,,,,,,,,,,,,,,,,,,,,,,,,,,,,,,,,,,,,,,,,,,,,,,,,,,,,,,,,,,,,,,,,,,,,,,,,,,,,,,,,,,,,,,,,
,,,,,,,,,,stimuli/images/PICTURE_160.png,LEADER,5d0e459e86e343000141468d,14/01/1953,2020-09-03_14h58.01.488,proactive2,2020.1.2,Win32,60,5f5126bb654d4b30ee6923d8,5f513cbe6e6c4c3464094b22,5,,,,,,wheelbarrow,,,,,,0,29,29,3,1,1,0,,,,,,,,,,,,,,,,,,,,,,,,,,,,,,,,,,,,,,,,,,,,,,,,,,,,,,,,,,,,,,,,,,,,,,,,,,,,,,,,,,,,,,,,,,,,,,,,,,,
,,,,,,,,,,stimuli/images/PICTURE_708.png,CLIENT,5d0e459e86e343000141468d,14/01/1953,2020-09-03_14h58.01.488,proactive2,2020.1.2,Win32,60,5f5126bb654d4b30ee6923d8,5f513cbe6e6c4c3464094b22,5,,,,,,monkey,,,,,,0,30,30,5,1,1,0,,,,,,,,,,,,,,,,,,,,,,,,,,,,,,,,,,,,,,,,,,,,,,,,,,,,,,,,,,,,,,,,,,,,,,,,,,,,,,,,,,,,,,,,,,,,,,,,,,,
,,,,,,,,,,stimuli/images/PICTURE_491.png,ROOF,5d0e459e86e343000141468d,14/01/1953,2020-09-03_14h58.01.488,proactive2,2020.1.2,Win32,60,5f5126bb654d4b30ee6923d8,5f513cbe6e6c4c3464094b22,5,,,,,,rug,,,,,,0,31,31,24,1,3,0,,,,,,,,,,,,,,,,,,,,,,,,,,,,,,,,,,,,,,,,,,,,,,,,,,,,,,,,,,,,,,,,,,,,,,,,,,,,,,,,,,,,,,,,,,,,,,,,,,,
,,,,,,,,,,stimuli/images/PICTURE_509.png,PHOTO,5d0e459e86e343000141468d,14/01/1953,2020-09-03_14h58.01.488,proactive2,2020.1.2,Win32,60,5f5126bb654d4b30ee6923d8,5f513cbe6e6c4c3464094b22,5,,,,,,telephone,,,,,,0,32,32,21,1,3,0,,,,,,,,,,,,,,,,,,,,,,,,,,,,,,,,,,,,,,,,,,,,,,,,,,,,,,,,,,,,,,,,,,,,,,,,,,,,,,,,,,,,,,,,,,,,,,,,,,,
,,,,,,,,,,stimuli/images/PICTURE_311.png,FRIEND,5d0e459e86e343000141468d,14/01/1953,2020-09-03_14h58.01.488,proactive2,2020.1.2,Win32,60,5f5126bb654d4b30ee6923d8,5f513cbe6e6c4c3464094b22,5,,,,,,razor,,,,,,0,33,33,34,1,4,0,,,,,,,,,,,,,,,,,,,,,,,,,,,,,,,,,,,,,,,,,,,,,,,,,,,,,,,,,,,,,,,,,,,,,,,,,,,,,,,,,,,,,,,,,,,,,,,,,,,
,,,,,,,,,,stimuli/images/PICTURE_208.png,LOTS,5d0e459e86e343000141468d,14/01/1953,2020-09-03_14h58.01.488,proactive2,2020.1.2,Win32,60,5f5126bb654d4b30ee6923d8,5f513cbe6e6c4c3464094b22,5,,,,,,microphone,,,,,,0,34,34,10,1,2,0,,,,,,,,,,,,,,,,,,,,,,,,,,,,,,,,,,,,,,,,,,,,,,,,,,,,,,,,,,,,,,,,,,,,,,,,,,,,,,,,,,,,,,,,,,,,,,,,,,,
,,,,,,,,,,stimuli/images/PICTURE_123.png,ADVICE,5d0e459e86e343000141468d,14/01/1953,2020-09-03_14h58.01.488,proactive2,2020.1.2,Win32,60,5f5126bb654d4b30ee6923d8,5f513cbe6e6c4c3464094b22,5,,,,,,dart,,,,,,0,35,35,50,1,6,0,,,,,,,,,,,,,,,,,,,,,,,,,,,,,,,,,,,,,,,,,,,,,,,,,,,,,,,,,,,,,,,,,,,,,,,,,,,,,,,,,,,,,,,,,,,,,,,,,,,
,,,,,,,,,,stimuli/images/PICTURE_302.png,FAMILY,5d0e459e86e343000141468d,14/01/1953,2020-09-03_14h58.01.488,proactive2,2020.1.2,Win32,60,5f5126bb654d4b30ee6923d8,5f513cbe6e6c4c3464094b22,5,,,,,,taxi,,,,,,0,36,36,18,1,2,0,,,,,,,,,,,,,,,,,,,,,,,,,,,,,,,,,,,,,,,,,,,,,,,,,,,,,,,,,,,,,,,,,,,,,,,,,,,,,,,,,,,,,,,,,,,,,,,,,,,
,,,,,,,,,,stimuli/images/PICTURE_203.png,ARTIST,5d0e459e86e343000141468d,14/01/1953,2020-09-03_14h58.01.488,proactive2,2020.1.2,Win32,60,5f5126bb654d4b30ee6923d8,5f513cbe6e6c4c3464094b22,5,,,,,,cap,,,,,,0,37,37,26,1,3,0,,,,,,,,,,,,,,,,,,,,,,,,,,,,,,,,,,,,,,,,,,,,,,,,,,,,,,,,,,,,,,,,,,,,,,,,,,,,,,,,,,,,,,,,,,,,,,,,,,,
,,,,,,,,,,stimuli/images/PICTURE_467.png,DEMON,5d0e459e86e343000141468d,14/01/1953,2020-09-03_14h58.01.488,proactive2,2020.1.2,Win32,60,5f5126bb654d4b30ee6923d8,5f513cbe6e6c4c3464094b22,5,,,,,,peg,,,,,,0,38,38,23,1,3,0,,,,,,,,,,,,,,,,,,,,,,,,,,,,,,,,,,,,,,,,,,,,,,,,,,,,,,,,,,,,,,,,,,,,,,,,,,,,,,,,,,,,,,,,,,,,,,,,,,,
,,,,,,,,,,stimuli/images/PICTURE_32.png,JUNGLE,5d0e459e86e343000141468d,14/01/1953,2020-09-03_14h58.01.488,proactive2,2020.1.2,Win32,60,5f5126bb654d4b30ee6923d8,5f513cbe6e6c4c3464094b22,5,,,,,,crown,,,,,,0,39,39,45,1,5,0,,,,,,,,,,,,,,,,,,,,,,,,,,,,,,,,,,,,,,,,,,,,,,,,,,,,,,,,,,,,,,,,,,,,,,,,,,,,,,,,,,,,,,,,,,,,,,,,,,,
,,,,,,,,,,stimuli/images/PICTURE_311.png,BEAUTY,5d0e459e86e343000141468d,14/01/1953,2020-09-03_14h58.01.488,proactive2,2020.1.2,Win32,60,5f5126bb654d4b30ee6923d8,5f513cbe6e6c4c3464094b22,5,,,,,,razor,,,,,,0,40,40,13,1,2,0,,,,,,,,,,,,,,,,,,,,,,,,,,,,,,,,,,,,,,,,,,,,,,,,,,,,,,,,,,,,,,,,,,,,,,,,,,,,,,,,,,,,,,,,,,,,,,,,,,,
,,,,,,,,,,stimuli/images/PICTURE_380.png,PHOTO,5d0e459e86e343000141468d,14/01/1953,2020-09-03_14h58.01.488,proactive2,2020.1.2,Win32,60,5f5126bb654d4b30ee6923d8,5f513cbe6e6c4c3464094b22,5,,,,,,gorilla,,,,,,0,41,41,52,1,6,0,,,,,,,,,,,,,,,,,,,,,,,,,,,,,,,,,,,,,,,,,,,,,,,,,,,,,,,,,,,,,,,,,,,,,,,,,,,,,,,,,,,,,,,,,,,,,,,,,,,
,,,,,,,,,,stimuli/images/PICTURE_654.png,VALLEY,5d0e459e86e343000141468d,14/01/1953,2020-09-03_14h58.01.488,proactive2,2020.1.2,Win32,60,5f5126bb654d4b30ee6923d8,5f513cbe6e6c4c3464094b22,5,,,,,,pencil,,,,,,0,42,42,1,1,1,0,,,,,,,,,,,,,,,,,,,,,,,,,,,,,,,,,,,,,,,,,,,,,,,,,,,,,,,,,,,,,,,,,,,,,,,,,,,,,,,,,,,,,,,,,,,,,,,,,,,
,,,,,,,,,,stimuli/images/PICTURE_85.png,THING,5d0e459e86e343000141468d,14/01/1953,2020-09-03_14h58.01.488,proactive2,2020.1.2,Win32,60,5f5126bb654d4b30ee6923d8,5f513cbe6e6c4c3464094b22,5,,,,,,diamond,,,,,,0,43,43,15,1,2,0,,,,,,,,,,,,,,,,,,,,,,,,,,,,,,,,,,,,,,,,,,,,,,,,,,,,,,,,,,,,,,,,,,,,,,,,,,,,,,,,,,,,,,,,,,,,,,,,,,,
,,,,,,,,,,stimuli/images/PICTURE_339.png,PLENTY,5d0e459e86e343000141468d,14/01/1953,2020-09-03_14h58.01.488,proactive2,2020.1.2,Win32,60,5f5126bb654d4b30ee6923d8,5f513cbe6e6c4c3464094b22,5,,,,,,backpack,,,,,,0,44,44,0,1,1,0,,,,,,,,,,,,,,,,,,,,,,,,,,,,,,,,,,,,,,,,,,,,,,,,,,,,,,,,,,,,,,,,,,,,,,,,,,,,,,,,,,,,,,,,,,,,,,,,,,,
,,,,,,,,,,stimuli/images/PICTURE_504.png,BODY,5d0e459e86e343000141468d,14/01/1953,2020-09-03_14h58.01.488,proactive2,2020.1.2,Win32,60,5f5126bb654d4b30ee6923d8,5f513cbe6e6c4c3464094b22,5,,,,,,wheel,,,,,,0,45,45,8,1,1,0,,,,,,,,,,,,,,,,,,,,,,,,,,,,,,,,,,,,,,,,,,,,,,,,,,,,,,,,,,,,,,,,,,,,,,,,,,,,,,,,,,,,,,,,,,,,,,,,,,,
,,,,,,,,,,stimuli/images/PICTURE_469.png,ARTIST,5d0e459e86e343000141468d,14/01/1953,2020-09-03_14h58.01.488,proactive2,2020.1.2,Win32,60,5f5126bb654d4b30ee6923d8,5f513cbe6e6c4c3464094b22,5,,,,,,stool,,,,,,0,46,46,6,1,1,0,,,,,,,,,,,,,,,,,,,,,,,,,,,,,,,,,,,,,,,,,,,,,,,,,,,,,,,,,,,,,,,,,,,,,,,,,,,,,,,,,,,,,,,,,,,,,,,,,,,
,,,,,,,,,,stimuli/images/PICTURE_469.png,LETTER,5d0e459e86e343000141468d,14/01/1953,2020-09-03_14h58.01.488,proactive2,2020.1.2,Win32,60,5f5126bb654d4b30ee6923d8,5f513cbe6e6c4c3464094b22,5,,,,,,stool,,,,,,0,47,47,42,1,5,0,,,,,,,,,,,,,,,,,,,,,,,,,,,,,,,,,,,,,,,,,,,,,,,,,,,,,,,,,,,,,,,,,,,,,,,,,,,,,,,,,,,,,,,,,,,,,,,,,,,
,,,,,,,,,,stimuli/images/PICTURE_688.png,WOMEN,5d0e459e86e343000141468d,14/01/1953,2020-09-03_14h58.01.488,proactive2,2020.1.2,Win32,60,5f5126bb654d4b30ee6923d8,5f513cbe6e6c4c3464094b22,5,,,,,,runner,,,,,,0,48,48,14,1,2,0,,,,,,,,,,,,,,,,,,,,,,,,,,,,,,,,,,,,,,,,,,,,,,,,,,,,,,,,,,,,,,,,,,,,,,,,,,,,,,,,,,,,,,,,,,,,,,,,,,,
,,,,,,,,,,stimuli/images/PICTURE_487.png,FLIGHT,5d0e459e86e343000141468d,14/01/1953,2020-09-03_14h58.01.488,proactive2,2020.1.2,Win32,60,5f5126bb654d4b30ee6923d8,5f513cbe6e6c4c3464094b22,5,,,,,,basket,,,,,,0,49,49,9,1,1,0,,,,,,,,,,,,,,,,,,,,,,,,,,,,,,,,,,,,,,,,,,,,,,,,,,,,,,,,,,,,,,,,,,,,,,,,,,,,,,,,,,,,,,,,,,,,,,,,,,,
