consent_key.keys,consent_key.rt,recalled,recalled_rt,recall_acc,example_recall.thisRepN,example_recall.thisTrialN,example_recall.thisN,example_recall.thisIndex,example_recall.ran,file,word,participant,please enter your date of birth (dd/mm/yyyy),date,expName,psychopyVersion,OS,frameRate,STUDY_ID,SESSION_ID,list,prac_learn_study_loop.thisRepN,prac_learn_study_loop.thisTrialN,prac_learn_study_loop.thisN,prac_learn_study_loop.thisIndex,prac_learn_study_loop.ran,image,prac_learn_test_loop.thisRepN,prac_learn_test_loop.thisTrialN,prac_learn_test_loop.thisN,prac_learn_test_loop.thisIndex,prac_learn_test_loop.ran,learn_study_loop.thisRepN,learn_study_loop.thisTrialN,learn_study_loop.thisN,learn_study_loop.thisIndex,learn_study_loop.ran,list_no,block_no,learn_test_loop.thisRepN,learn_test_loop.thisTrialN,learn_test_loop.thisN,learn_test_loop.thisIndex,learn_test_loop.ran,learn_blocks.thisRepN,learn_blocks.thisTrialN,learn_blocks.thisN,learn_blocks.thisIndex,learn_blocks.ran,block_csv,key_resp_13.keys,key_resp_13.rt,learn_blocks_loop.thisRepN,learn_blocks_loop.thisTrialN,learn_blocks_loop.thisN,learn_blocks_loop.thisIndex,learn_blocks_loop.ran,final_learn_test.thisRepN,final_learn_test.thisTrialN,final_learn_test.thisN,final_learn_test.thisIndex,final_learn_test.ran,s_im1,s_im2,s_im3,s_im4,s_im5,s_im6,s_im7,s_im8,s_im1pos,s_im2pos,s_im3pos,s_im4pos,s_im5pos,s_im6pos,s_im7pos,s_im8pos,s_tarright,search_resp.keys,search_resp.rt,search_loop.thisRepN,search_loop.thisTrialN,search_loop.thisN,search_loop.thisIndex,search_loop.ran,prac_wm_test_loop.thisRepN,prac_wm_test_loop.thisTrialN,prac_wm_test_loop.thisN,prac_wm_test_loop.thisIndex,prac_wm_test_loop.ran,wm_recalled1,wm_recall_rt1,wm_probed1,wm_recall_acc1,wm_recalled2,wm_recall_rt2,wm_probed2,wm_recall_acc2,wm_recalled3,wm_recall_rt3,wm_probed3,wm_recall_acc3,wm_recalled4,wm_recall_rt4,wm_probed4,wm_recall_acc4,prac_wm_trial_loop.thisRepN,prac_wm_trial_loop.thisTrialN,prac_wm_trial_loop.thisN,prac_wm_trial_loop.thisIndex,prac_wm_trial_loop.ran,word1,image1,file1,item_type1,word2,image2,file2,item_type2,word4,image4,file4,item_type4,word3,image3,file3,item_type3,wm_test_loop.thisRepN,wm_test_loop.thisTrialN,wm_test_loop.thisN,wm_test_loop.thisIndex,wm_test_loop.ran,wm_trial_loop.thisRepN,wm_trial_loop.thisTrialN,wm_trial_loop.thisN,wm_trial_loop.thisIndex,wm_trial_loop.ran
y,24.598715,TOUGH,4.882525,1,0,0,0,0,1,stimuli/images/PICTURE_747.png,TOUGH,5d76cf7be0fc510001e0a3e4,12/08/1955,2020-09-10_05h54.38.199,proactive2,2020.1.2,Win32,60,5f5126bb654d4b30ee6923d8,5f59aff93dcae7213fe87d38,3,,,,,,,,,,,,,,,,,,,,,,,,,,,,,,,,,,,,,,,,,,,,,,,,,,,,,,,,,,,,,,,,,,,,,,,,,,,,,,,,,,,,,,,,,,,,,,,,,,,,,,,,,,,,,,,,,,,,,
,,,,,,,,,,stimuli/images/PICTURE_727.png,CELL,5d76cf7be0fc510001e0a3e4,12/08/1955,2020-09-10_05h54.38.199,proactive2,2020.1.2,Win32,60,5f5126bb654d4b30ee6923d8,5f59aff93dcae7213fe87d38,3,0,0,0,1,1,hose,,,,,,,,,,,,,,,,,,,,,,,,,,,,,,,,,,,,,,,,,,,,,,,,,,,,,,,,,,,,,,,,,,,,,,,,,,,,,,,,,,,,,,,,,,,,,,,,,,,,,,,,,,,,,,,
,,,,,,,,,,stimuli/images/PICTURE_269.png,GENIUS,5d76cf7be0fc510001e0a3e4,12/08/1955,2020-09-10_05h54.38.199,proactive2,2020.1.2,Win32,60,5f5126bb654d4b30ee6923d8,5f59aff93dcae7213fe87d38,3,0,1,1,0,1,chameleon,,,,,,,,,,,,,,,,,,,,,,,,,,,,,,,,,,,,,,,,,,,,,,,,,,,,,,,,,,,,,,,,,,,,,,,,,,,,,,,,,,,,,,,,,,,,,,,,,,,,,,,,,,,,,,,
,,,,,,,,,,stimuli/images/PICTURE_378.png,LOSS,5d76cf7be0fc510001e0a3e4,12/08/1955,2020-09-10_05h54.38.199,proactive2,2020.1.2,Win32,60,5f5126bb654d4b30ee6923d8,5f59aff93dcae7213fe87d38,3,0,2,2,2,1,lobster,,,,,,,,,,,,,,,,,,,,,,,,,,,,,,,,,,,,,,,,,,,,,,,,,,,,,,,,,,,,,,,,,,,,,,,,,,,,,,,,,,,,,,,,,,,,,,,,,,,,,,,,,,,,,,,
,,,,,,,,,,stimuli/images/PICTURE_658.png,DEVIL,5d76cf7be0fc510001e0a3e4,12/08/1955,2020-09-10_05h54.38.199,proactive2,2020.1.2,Win32,60,5f5126bb654d4b30ee6923d8,5f59aff93dcae7213fe87d38,3,0,3,3,3,1,crow,,,,,,,,,,,,,,,,,,,,,,,,,,,,,,,,,,,,,,,,,,,,,,,,,,,,,,,,,,,,,,,,,,,,,,,,,,,,,,,,,,,,,,,,,,,,,,,,,,,,,,,,,,,,,,,
,,GENIUS,15.00948,1,,,,,,stimuli/images/PICTURE_269.png,GENIUS,5d76cf7be0fc510001e0a3e4,12/08/1955,2020-09-10_05h54.38.199,proactive2,2020.1.2,Win32,60,5f5126bb654d4b30ee6923d8,5f59aff93dcae7213fe87d38,3,,,,,,chameleon,0,0,0,0,1,,,,,,,,,,,,,,,,,,,,,,,,,,,,,,,,,,,,,,,,,,,,,,,,,,,,,,,,,,,,,,,,,,,,,,,,,,,,,,,,,,,,,,,,,,,,,,,,,,,,,,,,,,
,,DEVIL,6.09872,1,,,,,,stimuli/images/PICTURE_658.png,DEVIL,5d76cf7be0fc510001e0a3e4,12/08/1955,2020-09-10_05h54.38.199,proactive2,2020.1.2,Win32,60,5f5126bb654d4b30ee6923d8,5f59aff93dcae7213fe87d38,3,,,,,,crow,0,1,1,3,1,,,,,,,,,,,,,,,,,,,,,,,,,,,,,,,,,,,,,,,,,,,,,,,,,,,,,,,,,,,,,,,,,,,,,,,,,,,,,,,,,,,,,,,,,,,,,,,,,,,,,,,,,,
,,LOSS,3.23158,1,,,,,,stimuli/images/PICTURE_378.png,LOSS,5d76cf7be0fc510001e0a3e4,12/08/1955,2020-09-10_05h54.38.199,proactive2,2020.1.2,Win32,60,5f5126bb654d4b30ee6923d8,5f59aff93dcae7213fe87d38,3,,,,,,lobster,0,2,2,2,1,,,,,,,,,,,,,,,,,,,,,,,,,,,,,,,,,,,,,,,,,,,,,,,,,,,,,,,,,,,,,,,,,,,,,,,,,,,,,,,,,,,,,,,,,,,,,,,,,,,,,,,,,,
,,CELL,3.61565,1,,,,,,stimuli/images/PICTURE_727.png,CELL,5d76cf7be0fc510001e0a3e4,12/08/1955,2020-09-10_05h54.38.199,proactive2,2020.1.2,Win32,60,5f5126bb654d4b30ee6923d8,5f59aff93dcae7213fe87d38,3,,,,,,hose,0,3,3,1,1,,,,,,,,,,,,,,,,,,,,,,,,,,,,,,,,,,,,,,,,,,,,,,,,,,,,,,,,,,,,,,,,,,,,,,,,,,,,,,,,,,,,,,,,,,,,,,,,,,,,,,,,,,
,,KILLER,3.34902,1,,,,,,stimuli/images/PICTURE_697.png,KILLER,5d76cf7be0fc510001e0a3e4,12/08/1955,2020-09-10_05h54.38.199,proactive2,2020.1.2,Win32,60,5f5126bb654d4b30ee6923d8,5f59aff93dcae7213fe87d38,3,,,,,,peach,0,4,4,4,1,,,,,,,,,,,,,,,,,,,,,,,,,,,,,,,,,,,,,,,,,,,,,,,,,,,,,,,,,,,,,,,,,,,,,,,,,,,,,,,,,,,,,,,,,,,,,,,,,,,,,,,,,,
,,,,,,,,,,stimuli/images/PICTURE_177.png,CARS,5d76cf7be0fc510001e0a3e4,12/08/1955,2020-09-10_05h54.38.199,proactive2,2020.1.2,Win32,60,5f5126bb654d4b30ee6923d8,5f59aff93dcae7213fe87d38,3,,,,,,mushroom,,,,,,0,0,0,35,1,4,0,,,,,,,,,,,,,,,,,,,,,,,,,,,,,,,,,,,,,,,,,,,,,,,,,,,,,,,,,,,,,,,,,,,,,,,,,,,,,,,,,,,,,,,,,,,,,,,,,,,
,,,,,,,,,,stimuli/images/PICTURE_233.png,WOMEN,5d76cf7be0fc510001e0a3e4,12/08/1955,2020-09-10_05h54.38.199,proactive2,2020.1.2,Win32,60,5f5126bb654d4b30ee6923d8,5f59aff93dcae7213fe87d38,3,,,,,,salt,,,,,,0,1,1,38,1,4,0,,,,,,,,,,,,,,,,,,,,,,,,,,,,,,,,,,,,,,,,,,,,,,,,,,,,,,,,,,,,,,,,,,,,,,,,,,,,,,,,,,,,,,,,,,,,,,,,,,,
,,,,,,,,,,stimuli/images/PICTURE_147.png,MOMENT,5d76cf7be0fc510001e0a3e4,12/08/1955,2020-09-10_05h54.38.199,proactive2,2020.1.2,Win32,60,5f5126bb654d4b30ee6923d8,5f59aff93dcae7213fe87d38,3,,,,,,hanger,,,,,,0,2,2,51,1,6,0,,,,,,,,,,,,,,,,,,,,,,,,,,,,,,,,,,,,,,,,,,,,,,,,,,,,,,,,,,,,,,,,,,,,,,,,,,,,,,,,,,,,,,,,,,,,,,,,,,,
,,,,,,,,,,stimuli/images/PICTURE_327.png,BEAUTY,5d76cf7be0fc510001e0a3e4,12/08/1955,2020-09-10_05h54.38.199,proactive2,2020.1.2,Win32,60,5f5126bb654d4b30ee6923d8,5f59aff93dcae7213fe87d38,3,,,,,,helmet,,,,,,0,3,3,48,1,5,0,,,,,,,,,,,,,,,,,,,,,,,,,,,,,,,,,,,,,,,,,,,,,,,,,,,,,,,,,,,,,,,,,,,,,,,,,,,,,,,,,,,,,,,,,,,,,,,,,,,
,,,,,,,,,,stimuli/images/PICTURE_708.png,PENNY,5d76cf7be0fc510001e0a3e4,12/08/1955,2020-09-10_05h54.38.199,proactive2,2020.1.2,Win32,60,5f5126bb654d4b30ee6923d8,5f59aff93dcae7213fe87d38,3,,,,,,monkey,,,,,,0,4,4,31,1,4,0,,,,,,,,,,,,,,,,,,,,,,,,,,,,,,,,,,,,,,,,,,,,,,,,,,,,,,,,,,,,,,,,,,,,,,,,,,,,,,,,,,,,,,,,,,,,,,,,,,,
,,,,,,,,,,stimuli/images/PICTURE_688.png,WOMEN,5d76cf7be0fc510001e0a3e4,12/08/1955,2020-09-10_05h54.38.199,proactive2,2020.1.2,Win32,60,5f5126bb654d4b30ee6923d8,5f59aff93dcae7213fe87d38,3,,,,,,runner,,,,,,0,5,5,14,1,2,0,,,,,,,,,,,,,,,,,,,,,,,,,,,,,,,,,,,,,,,,,,,,,,,,,,,,,,,,,,,,,,,,,,,,,,,,,,,,,,,,,,,,,,,,,,,,,,,,,,,
,,,,,,,,,,stimuli/images/PICTURE_449.png,THING,5d76cf7be0fc510001e0a3e4,12/08/1955,2020-09-10_05h54.38.199,proactive2,2020.1.2,Win32,60,5f5126bb654d4b30ee6923d8,5f59aff93dcae7213fe87d38,3,,,,,,bench,,,,,,0,6,6,59,1,6,0,,,,,,,,,,,,,,,,,,,,,,,,,,,,,,,,,,,,,,,,,,,,,,,,,,,,,,,,,,,,,,,,,,,,,,,,,,,,,,,,,,,,,,,,,,,,,,,,,,,
,,,,,,,,,,stimuli/images/PICTURE_123.png,ADVICE,5d76cf7be0fc510001e0a3e4,12/08/1955,2020-09-10_05h54.38.199,proactive2,2020.1.2,Win32,60,5f5126bb654d4b30ee6923d8,5f59aff93dcae7213fe87d38,3,,,,,,dart,,,,,,0,7,7,50,1,6,0,,,,,,,,,,,,,,,,,,,,,,,,,,,,,,,,,,,,,,,,,,,,,,,,,,,,,,,,,,,,,,,,,,,,,,,,,,,,,,,,,,,,,,,,,,,,,,,,,,,
,,,,,,,,,,stimuli/images/PICTURE_708.png,CLIENT,5d76cf7be0fc510001e0a3e4,12/08/1955,2020-09-10_05h54.38.199,proactive2,2020.1.2,Win32,60,5f5126bb654d4b30ee6923d8,5f59aff93dcae7213fe87d38,3,,,,,,monkey,,,,,,0,8,8,5,1,1,0,,,,,,,,,,,,,,,,,,,,,,,,,,,,,,,,,,,,,,,,,,,,,,,,,,,,,,,,,,,,,,,,,,,,,,,,,,,,,,,,,,,,,,,,,,,,,,,,,,,
,,,,,,,,,,stimuli/images/PICTURE_675.png,WEAPON,5d76cf7be0fc510001e0a3e4,12/08/1955,2020-09-10_05h54.38.199,proactive2,2020.1.2,Win32,60,5f5126bb654d4b30ee6923d8,5f59aff93dcae7213fe87d38,3,,,,,,windmill,,,,,,0,9,9,32,1,4,0,,,,,,,,,,,,,,,,,,,,,,,,,,,,,,,,,,,,,,,,,,,,,,,,,,,,,,,,,,,,,,,,,,,,,,,,,,,,,,,,,,,,,,,,,,,,,,,,,,,
,,,,,,,,,,stimuli/images/PICTURE_208.png,THING,5d76cf7be0fc510001e0a3e4,12/08/1955,2020-09-10_05h54.38.199,proactive2,2020.1.2,Win32,60,5f5126bb654d4b30ee6923d8,5f59aff93dcae7213fe87d38,3,,,,,,microphone,,,,,,0,10,10,47,1,5,0,,,,,,,,,,,,,,,,,,,,,,,,,,,,,,,,,,,,,,,,,,,,,,,,,,,,,,,,,,,,,,,,,,,,,,,,,,,,,,,,,,,,,,,,,,,,,,,,,,,
,,,,,,,,,,stimuli/images/PICTURE_208.png,LOTS,5d76cf7be0fc510001e0a3e4,12/08/1955,2020-09-10_05h54.38.199,proactive2,2020.1.2,Win32,60,5f5126bb654d4b30ee6923d8,5f59aff93dcae7213fe87d38,3,,,,,,microphone,,,,,,0,11,11,10,1,2,0,,,,,,,,,,,,,,,,,,,,,,,,,,,,,,,,,,,,,,,,,,,,,,,,,,,,,,,,,,,,,,,,,,,,,,,,,,,,,,,,,,,,,,,,,,,,,,,,,,,
,,,,,,,,,,stimuli/images/PICTURE_491.png,WRITER,5d76cf7be0fc510001e0a3e4,12/08/1955,2020-09-10_05h54.38.199,proactive2,2020.1.2,Win32,60,5f5126bb654d4b30ee6923d8,5f59aff93dcae7213fe87d38,3,,,,,,rug,,,,,,0,12,12,57,1,6,0,,,,,,,,,,,,,,,,,,,,,,,,,,,,,,,,,,,,,,,,,,,,,,,,,,,,,,,,,,,,,,,,,,,,,,,,,,,,,,,,,,,,,,,,,,,,,,,,,,,
,,,,,,,,,,stimuli/images/PICTURE_255.png,AREA,5d76cf7be0fc510001e0a3e4,12/08/1955,2020-09-10_05h54.38.199,proactive2,2020.1.2,Win32,60,5f5126bb654d4b30ee6923d8,5f59aff93dcae7213fe87d38,3,,,,,,shovel,,,,,,0,13,13,22,1,3,0,,,,,,,,,,,,,,,,,,,,,,,,,,,,,,,,,,,,,,,,,,,,,,,,,,,,,,,,,,,,,,,,,,,,,,,,,,,,,,,,,,,,,,,,,,,,,,,,,,,
,,,,,,,,,,stimuli/images/PICTURE_233.png,IDEAS,5d76cf7be0fc510001e0a3e4,12/08/1955,2020-09-10_05h54.38.199,proactive2,2020.1.2,Win32,60,5f5126bb654d4b30ee6923d8,5f59aff93dcae7213fe87d38,3,,,,,,salt,,,,,,0,14,14,28,1,3,0,,,,,,,,,,,,,,,,,,,,,,,,,,,,,,,,,,,,,,,,,,,,,,,,,,,,,,,,,,,,,,,,,,,,,,,,,,,,,,,,,,,,,,,,,,,,,,,,,,,
,,,,,,,,,,stimuli/images/PICTURE_308.png,ESTATE,5d76cf7be0fc510001e0a3e4,12/08/1955,2020-09-10_05h54.38.199,proactive2,2020.1.2,Win32,60,5f5126bb654d4b30ee6923d8,5f59aff93dcae7213fe87d38,3,,,,,,dice,,,,,,0,15,15,46,1,5,0,,,,,,,,,,,,,,,,,,,,,,,,,,,,,,,,,,,,,,,,,,,,,,,,,,,,,,,,,,,,,,,,,,,,,,,,,,,,,,,,,,,,,,,,,,,,,,,,,,,
,,,,,,,,,,stimuli/images/PICTURE_469.png,LETTER,5d76cf7be0fc510001e0a3e4,12/08/1955,2020-09-10_05h54.38.199,proactive2,2020.1.2,Win32,60,5f5126bb654d4b30ee6923d8,5f59aff93dcae7213fe87d38,3,,,,,,stool,,,,,,0,16,16,42,1,5,0,,,,,,,,,,,,,,,,,,,,,,,,,,,,,,,,,,,,,,,,,,,,,,,,,,,,,,,,,,,,,,,,,,,,,,,,,,,,,,,,,,,,,,,,,,,,,,,,,,,
,,,,,,,,,,stimuli/images/PICTURE_453.png,DUDE,5d76cf7be0fc510001e0a3e4,12/08/1955,2020-09-10_05h54.38.199,proactive2,2020.1.2,Win32,60,5f5126bb654d4b30ee6923d8,5f59aff93dcae7213fe87d38,3,,,,,,scissors,,,,,,0,17,17,27,1,3,0,,,,,,,,,,,,,,,,,,,,,,,,,,,,,,,,,,,,,,,,,,,,,,,,,,,,,,,,,,,,,,,,,,,,,,,,,,,,,,,,,,,,,,,,,,,,,,,,,,,
,,,,,,,,,,stimuli/images/PICTURE_470.png,CASINO,5d76cf7be0fc510001e0a3e4,12/08/1955,2020-09-10_05h54.38.199,proactive2,2020.1.2,Win32,60,5f5126bb654d4b30ee6923d8,5f59aff93dcae7213fe87d38,3,,,,,,motorbike,,,,,,0,18,18,36,1,4,0,,,,,,,,,,,,,,,,,,,,,,,,,,,,,,,,,,,,,,,,,,,,,,,,,,,,,,,,,,,,,,,,,,,,,,,,,,,,,,,,,,,,,,,,,,,,,,,,,,,
,,,,,,,,,,stimuli/images/PICTURE_285.png,ADVICE,5d76cf7be0fc510001e0a3e4,12/08/1955,2020-09-10_05h54.38.199,proactive2,2020.1.2,Win32,60,5f5126bb654d4b30ee6923d8,5f59aff93dcae7213fe87d38,3,,,,,,carrot,,,,,,0,19,19,12,1,2,0,,,,,,,,,,,,,,,,,,,,,,,,,,,,,,,,,,,,,,,,,,,,,,,,,,,,,,,,,,,,,,,,,,,,,,,,,,,,,,,,,,,,,,,,,,,,,,,,,,,
,,,,,,,,,,stimuli/images/PICTURE_356.png,DANGER,5d76cf7be0fc510001e0a3e4,12/08/1955,2020-09-10_05h54.38.199,proactive2,2020.1.2,Win32,60,5f5126bb654d4b30ee6923d8,5f59aff93dcae7213fe87d38,3,,,,,,pawn,,,,,,0,20,20,55,1,6,0,,,,,,,,,,,,,,,,,,,,,,,,,,,,,,,,,,,,,,,,,,,,,,,,,,,,,,,,,,,,,,,,,,,,,,,,,,,,,,,,,,,,,,,,,,,,,,,,,,,
,,,,,,,,,,stimuli/images/PICTURE_32.png,JUNGLE,5d76cf7be0fc510001e0a3e4,12/08/1955,2020-09-10_05h54.38.199,proactive2,2020.1.2,Win32,60,5f5126bb654d4b30ee6923d8,5f59aff93dcae7213fe87d38,3,,,,,,crown,,,,,,0,21,21,45,1,5,0,,,,,,,,,,,,,,,,,,,,,,,,,,,,,,,,,,,,,,,,,,,,,,,,,,,,,,,,,,,,,,,,,,,,,,,,,,,,,,,,,,,,,,,,,,,,,,,,,,,
,,,,,,,,,,stimuli/images/PICTURE_488.png,STYLE,5d76cf7be0fc510001e0a3e4,12/08/1955,2020-09-10_05h54.38.199,proactive2,2020.1.2,Win32,60,5f5126bb654d4b30ee6923d8,5f59aff93dcae7213fe87d38,3,,,,,,sun,,,,,,0,22,22,33,1,4,0,,,,,,,,,,,,,,,,,,,,,,,,,,,,,,,,,,,,,,,,,,,,,,,,,,,,,,,,,,,,,,,,,,,,,,,,,,,,,,,,,,,,,,,,,,,,,,,,,,,
,,,,,,,,,,stimuli/images/PICTURE_123.png,ADVICE,5d76cf7be0fc510001e0a3e4,12/08/1955,2020-09-10_05h54.38.199,proactive2,2020.1.2,Win32,60,5f5126bb654d4b30ee6923d8,5f59aff93dcae7213fe87d38,3,,,,,,dart,,,,,,0,23,23,40,1,5,0,,,,,,,,,,,,,,,,,,,,,,,,,,,,,,,,,,,,,,,,,,,,,,,,,,,,,,,,,,,,,,,,,,,,,,,,,,,,,,,,,,,,,,,,,,,,,,,,,,,
,,,,,,,,,,stimuli/images/PICTURE_208.png,MONTH,5d76cf7be0fc510001e0a3e4,12/08/1955,2020-09-10_05h54.38.199,proactive2,2020.1.2,Win32,60,5f5126bb654d4b30ee6923d8,5f59aff93dcae7213fe87d38,3,,,,,,microphone,,,,,,0,24,24,53,1,6,0,,,,,,,,,,,,,,,,,,,,,,,,,,,,,,,,,,,,,,,,,,,,,,,,,,,,,,,,,,,,,,,,,,,,,,,,,,,,,,,,,,,,,,,,,,,,,,,,,,,
,,,,,,,,,,stimuli/images/PICTURE_314.png,GODS,5d76cf7be0fc510001e0a3e4,12/08/1955,2020-09-10_05h54.38.199,proactive2,2020.1.2,Win32,60,5f5126bb654d4b30ee6923d8,5f59aff93dcae7213fe87d38,3,,,,,,perfume,,,,,,0,25,25,11,1,2,0,,,,,,,,,,,,,,,,,,,,,,,,,,,,,,,,,,,,,,,,,,,,,,,,,,,,,,,,,,,,,,,,,,,,,,,,,,,,,,,,,,,,,,,,,,,,,,,,,,,
,,,,,,,,,,stimuli/images/PICTURE_654.png,VALLEY,5d76cf7be0fc510001e0a3e4,12/08/1955,2020-09-10_05h54.38.199,proactive2,2020.1.2,Win32,60,5f5126bb654d4b30ee6923d8,5f59aff93dcae7213fe87d38,3,,,,,,pencil,,,,,,0,26,26,1,1,1,0,,,,,,,,,,,,,,,,,,,,,,,,,,,,,,,,,,,,,,,,,,,,,,,,,,,,,,,,,,,,,,,,,,,,,,,,,,,,,,,,,,,,,,,,,,,,,,,,,,,
,,,,,,,,,,stimuli/images/PICTURE_302.png,FAMILY,5d76cf7be0fc510001e0a3e4,12/08/1955,2020-09-10_05h54.38.199,proactive2,2020.1.2,Win32,60,5f5126bb654d4b30ee6923d8,5f59aff93dcae7213fe87d38,3,,,,,,taxi,,,,,,0,27,27,18,1,2,0,,,,,,,,,,,,,,,,,,,,,,,,,,,,,,,,,,,,,,,,,,,,,,,,,,,,,,,,,,,,,,,,,,,,,,,,,,,,,,,,,,,,,,,,,,,,,,,,,,,
,,,,,,,,,,stimuli/images/PICTURE_314.png,SAKE,5d76cf7be0fc510001e0a3e4,12/08/1955,2020-09-10_05h54.38.199,proactive2,2020.1.2,Win32,60,5f5126bb654d4b30ee6923d8,5f59aff93dcae7213fe87d38,3,,,,,,perfume,,,,,,0,28,28,7,1,1,0,,,,,,,,,,,,,,,,,,,,,,,,,,,,,,,,,,,,,,,,,,,,,,,,,,,,,,,,,,,,,,,,,,,,,,,,,,,,,,,,,,,,,,,,,,,,,,,,,,,
,,,,,,,,,,stimuli/images/PICTURE_95.png,STYLE,5d76cf7be0fc510001e0a3e4,12/08/1955,2020-09-10_05h54.38.199,proactive2,2020.1.2,Win32,60,5f5126bb654d4b30ee6923d8,5f59aff93dcae7213fe87d38,3,,,,,,suitcase,,,,,,0,29,29,25,1,3,0,,,,,,,,,,,,,,,,,,,,,,,,,,,,,,,,,,,,,,,,,,,,,,,,,,,,,,,,,,,,,,,,,,,,,,,,,,,,,,,,,,,,,,,,,,,,,,,,,,,
,,,,,,,,,,stimuli/images/PICTURE_380.png,PHOTO,5d76cf7be0fc510001e0a3e4,12/08/1955,2020-09-10_05h54.38.199,proactive2,2020.1.2,Win32,60,5f5126bb654d4b30ee6923d8,5f59aff93dcae7213fe87d38,3,,,,,,gorilla,,,,,,0,30,30,52,1,6,0,,,,,,,,,,,,,,,,,,,,,,,,,,,,,,,,,,,,,,,,,,,,,,,,,,,,,,,,,,,,,,,,,,,,,,,,,,,,,,,,,,,,,,,,,,,,,,,,,,,
,,,,,,,,,,stimuli/images/PICTURE_677.png,MILE,5d76cf7be0fc510001e0a3e4,12/08/1955,2020-09-10_05h54.38.199,proactive2,2020.1.2,Win32,60,5f5126bb654d4b30ee6923d8,5f59aff93dcae7213fe87d38,3,,,,,,map,,,,,,0,31,31,30,1,4,0,,,,,,,,,,,,,,,,,,,,,,,,,,,,,,,,,,,,,,,,,,,,,,,,,,,,,,,,,,,,,,,,,,,,,,,,,,,,,,,,,,,,,,,,,,,,,,,,,,,
,,,,,,,,,,stimuli/images/PICTURE_487.png,FLIGHT,5d76cf7be0fc510001e0a3e4,12/08/1955,2020-09-10_05h54.38.199,proactive2,2020.1.2,Win32,60,5f5126bb654d4b30ee6923d8,5f59aff93dcae7213fe87d38,3,,,,,,basket,,,,,,0,32,32,9,1,1,0,,,,,,,,,,,,,,,,,,,,,,,,,,,,,,,,,,,,,,,,,,,,,,,,,,,,,,,,,,,,,,,,,,,,,,,,,,,,,,,,,,,,,,,,,,,,,,,,,,,
,,,,,,,,,,stimuli/images/PICTURE_667.png,BATH,5d76cf7be0fc510001e0a3e4,12/08/1955,2020-09-10_05h54.38.199,proactive2,2020.1.2,Win32,60,5f5126bb654d4b30ee6923d8,5f59aff93dcae7213fe87d38,3,,,,,,daisy,,,,,,0,33,33,4,1,1,0,,,,,,,,,,,,,,,,,,,,,,,,,,,,,,,,,,,,,,,,,,,,,,,,,,,,,,,,,,,,,,,,,,,,,,,,,,,,,,,,,,,,,,,,,,,,,,,,,,,
,,,,,,,,,,stimuli/images/PICTURE_160.png,LEADER,5d76cf7be0fc510001e0a3e4,12/08/1955,2020-09-10_05h54.38.199,proactive2,2020.1.2,Win32,60,5f5126bb654d4b30ee6923d8,5f59aff93dcae7213fe87d38,3,,,,,,wheelbarrow,,,,,,0,34,34,3,1,1,0,,,,,,,,,,,,,,,,,,,,,,,,,,,,,,,,,,,,,,,,,,,,,,,,,,,,,,,,,,,,,,,,,,,,,,,,,,,,,,,,,,,,,,,,,,,,,,,,,,,
,,,,,,,,,,stimuli/images/PICTURE_453.png,PLENTY,5d76cf7be0fc510001e0a3e4,12/08/1955,2020-09-10_05h54.38.199,proactive2,2020.1.2,Win32,60,5f5126bb654d4b30ee6923d8,5f59aff93dcae7213fe87d38,3,,,,,,scissors,,,,,,0,35,35,56,1,6,0,,,,,,,,,,,,,,,,,,,,,,,,,,,,,,,,,,,,,,,,,,,,,,,,,,,,,,,,,,,,,,,,,,,,,,,,,,,,,,,,,,,,,,,,,,,,,,,,,,,
,,,,,,,,,,stimuli/images/PICTURE_348.png,SPEECH,5d76cf7be0fc510001e0a3e4,12/08/1955,2020-09-10_05h54.38.199,proactive2,2020.1.2,Win32,60,5f5126bb654d4b30ee6923d8,5f59aff93dcae7213fe87d38,3,,,,,,pepper,,,,,,0,36,36,20,1,3,0,,,,,,,,,,,,,,,,,,,,,,,,,,,,,,,,,,,,,,,,,,,,,,,,,,,,,,,,,,,,,,,,,,,,,,,,,,,,,,,,,,,,,,,,,,,,,,,,,,,
,,,,,,,,,,stimuli/images/PICTURE_688.png,CASINO,5d76cf7be0fc510001e0a3e4,12/08/1955,2020-09-10_05h54.38.199,proactive2,2020.1.2,Win32,60,5f5126bb654d4b30ee6923d8,5f59aff93dcae7213fe87d38,3,,,,,,runner,,,,,,0,37,37,2,1,1,0,,,,,,,,,,,,,,,,,,,,,,,,,,,,,,,,,,,,,,,,,,,,,,,,,,,,,,,,,,,,,,,,,,,,,,,,,,,,,,,,,,,,,,,,,,,,,,,,,,,
,,,,,,,,,,stimuli/images/PICTURE_68.png,MILE,5d76cf7be0fc510001e0a3e4,12/08/1955,2020-09-10_05h54.38.199,proactive2,2020.1.2,Win32,60,5f5126bb654d4b30ee6923d8,5f59aff93dcae7213fe87d38,3,,,,,,candle,,,,,,0,38,38,44,1,5,0,,,,,,,,,,,,,,,,,,,,,,,,,,,,,,,,,,,,,,,,,,,,,,,,,,,,,,,,,,,,,,,,,,,,,,,,,,,,,,,,,,,,,,,,,,,,,,,,,,,
,,,,,,,,,,stimuli/images/PICTURE_504.png,BODY,5d76cf7be0fc510001e0a3e4,12/08/1955,2020-09-10_05h54.38.199,proactive2,2020.1.2,Win32,60,5f5126bb654d4b30ee6923d8,5f59aff93dcae7213fe87d38,3,,,,,,wheel,,,,,,0,39,39,8,1,1,0,,,,,,,,,,,,,,,,,,,,,,,,,,,,,,,,,,,,,,,,,,,,,,,,,,,,,,,,,,,,,,,,,,,,,,,,,,,,,,,,,,,,,,,,,,,,,,,,,,,
,,,,,,,,,,stimuli/images/PICTURE_160.png,FEET,5d76cf7be0fc510001e0a3e4,12/08/1955,2020-09-10_05h54.38.199,proactive2,2020.1.2,Win32,60,5f5126bb654d4b30ee6923d8,5f59aff93dcae7213fe87d38,3,,,,,,wheelbarrow,,,,,,0,40,40,58,1,6,0,,,,,,,,,,,,,,,,,,,,,,,,,,,,,,,,,,,,,,,,,,,,,,,,,,,,,,,,,,,,,,,,,,,,,,,,,,,,,,,,,,,,,,,,,,,,,,,,,,,
,,,,,,,,,,stimuli/images/PICTURE_491.png,ROOF,5d76cf7be0fc510001e0a3e4,12/08/1955,2020-09-10_05h54.38.199,proactive2,2020.1.2,Win32,60,5f5126bb654d4b30ee6923d8,5f59aff93dcae7213fe87d38,3,,,,,,rug,,,,,,0,41,41,24,1,3,0,,,,,,,,,,,,,,,,,,,,,,,,,,,,,,,,,,,,,,,,,,,,,,,,,,,,,,,,,,,,,,,,,,,,,,,,,,,,,,,,,,,,,,,,,,,,,,,,,,,
,,,,,,,,,,stimuli/images/PICTURE_509.png,PHOTO,5d76cf7be0fc510001e0a3e4,12/08/1955,2020-09-10_05h54.38.199,proactive2,2020.1.2,Win32,60,5f5126bb654d4b30ee6923d8,5f59aff93dcae7213fe87d38,3,,,,,,telephone,,,,,,0,42,42,21,1,3,0,,,,,,,,,,,,,,,,,,,,,,,,,,,,,,,,,,,,,,,,,,,,,,,,,,,,,,,,,,,,,,,,,,,,,,,,,,,,,,,,,,,,,,,,,,,,,,,,,,,
,,,,,,,,,,stimuli/images/PICTURE_467.png,DEMON,5d76cf7be0fc510001e0a3e4,12/08/1955,2020-09-10_05h54.38.199,proactive2,2020.1.2,Win32,60,5f5126bb654d4b30ee6923d8,5f59aff93dcae7213fe87d38,3,,,,,,peg,,,,,,0,43,43,23,1,3,0,,,,,,,,,,,,,,,,,,,,,,,,,,,,,,,,,,,,,,,,,,,,,,,,,,,,,,,,,,,,,,,,,,,,,,,,,,,,,,,,,,,,,,,,,,,,,,,,,,,
,,,,,,,,,,stimuli/images/PICTURE_215.png,PLENTY,5d76cf7be0fc510001e0a3e4,12/08/1955,2020-09-10_05h54.38.199,proactive2,2020.1.2,Win32,60,5f5126bb654d4b30ee6923d8,5f59aff93dcae7213fe87d38,3,,,,,,boot,,,,,,0,44,44,37,1,4,0,,,,,,,,,,,,,,,,,,,,,,,,,,,,,,,,,,,,,,,,,,,,,,,,,,,,,,,,,,,,,,,,,,,,,,,,,,,,,,,,,,,,,,,,,,,,,,,,,,,
,,,,,,,,,,stimuli/images/PICTURE_380.png,DEATH,5d76cf7be0fc510001e0a3e4,12/08/1955,2020-09-10_05h54.38.199,proactive2,2020.1.2,Win32,60,5f5126bb654d4b30ee6923d8,5f59aff93dcae7213fe87d38,3,,,,,,gorilla,,,,,,0,45,45,49,1,5,0,,,,,,,,,,,,,,,,,,,,,,,,,,,,,,,,,,,,,,,,,,,,,,,,,,,,,,,,,,,,,,,,,,,,,,,,,,,,,,,,,,,,,,,,,,,,,,,,,,,
,,,,,,,,,,stimuli/images/PICTURE_744.png,SYSTEM,5d76cf7be0fc510001e0a3e4,12/08/1955,2020-09-10_05h54.38.199,proactive2,2020.1.2,Win32,60,5f5126bb654d4b30ee6923d8,5f59aff93dcae7213fe87d38,3,,,,,,ring,,,,,,0,46,46,43,1,5,0,,,,,,,,,,,,,,,,,,,,,,,,,,,,,,,,,,,,,,,,,,,,,,,,,,,,,,,,,,,,,,,,,,,,,,,,,,,,,,,,,,,,,,,,,,,,,,,,,,,
,,,,,,,,,,stimuli/images/PICTURE_339.png,PLENTY,5d76cf7be0fc510001e0a3e4,12/08/1955,2020-09-10_05h54.38.199,proactive2,2020.1.2,Win32,60,5f5126bb654d4b30ee6923d8,5f59aff93dcae7213fe87d38,3,,,,,,backpack,,,,,,0,47,47,0,1,1,0,,,,,,,,,,,,,,,,,,,,,,,,,,,,,,,,,,,,,,,,,,,,,,,,,,,,,,,,,,,,,,,,,,,,,,,,,,,,,,,,,,,,,,,,,,,,,,,,,,,
,,,,,,,,,,stimuli/images/PICTURE_248.png,DOZEN,5d76cf7be0fc510001e0a3e4,12/08/1955,2020-09-10_05h54.38.199,proactive2,2020.1.2,Win32,60,5f5126bb654d4b30ee6923d8,5f59aff93dcae7213fe87d38,3,,,,,,cart,,,,,,0,48,48,39,1,4,0,,,,,,,,,,,,,,,,,,,,,,,,,,,,,,,,,,,,,,,,,,,,,,,,,,,,,,,,,,,,,,,,,,,,,,,,,,,,,,,,,,,,,,,,,,,,,,,,,,,
,,,,,,,,,,stimuli/images/PICTURE_708.png,YARD,5d76cf7be0fc510001e0a3e4,12/08/1955,2020-09-10_05h54.38.199,proactive2,2020.1.2,Win32,60,5f5126bb654d4b30ee6923d8,5f59aff93dcae7213fe87d38,3,,,,,,monkey,,,,,,0,49,49,29,1,3,0,,,,,,,,,,,,,,,,,,,,,,,,,,,,,,,,,,,,,,,,,,,,,,,,,,,,,,,,,,,,,,,,,,,,,,,,,,,,,,,,,,,,,,,,,,,,,,,,,,,
,,,,,,,,,,stimuli/images/PICTURE_692.png,MONTH,5d76cf7be0fc510001e0a3e4,12/08/1955,2020-09-10_05h54.38.199,proactive2,2020.1.2,Win32,60,5f5126bb654d4b30ee6923d8,5f59aff93dcae7213fe87d38,3,,,,,,cherry,,,,,,0,50,50,16,1,2,0,,,,,,,,,,,,,,,,,,,,,,,,,,,,,,,,,,,,,,,,,,,,,,,,,,,,,,,,,,,,,,,,,,,,,,,,,,,,,,,,,,,,,,,,,,,,,,,,,,,
,,,,,,,,,,stimuli/images/PICTURE_311.png,FRIEND,5d76cf7be0fc510001e0a3e4,12/08/1955,2020-09-10_05h54.38.199,proactive2,2020.1.2,Win32,60,5f5126bb654d4b30ee6923d8,5f59aff93dcae7213fe87d38,3,,,,,,razor,,,,,,0,51,51,34,1,4,0,,,,,,,,,,,,,,,,,,,,,,,,,,,,,,,,,,,,,,,,,,,,,,,,,,,,,,,,,,,,,,,,,,,,,,,,,,,,,,,,,,,,,,,,,,,,,,,,,,,
,,,,,,,,,,stimuli/images/PICTURE_85.png,THING,5d76cf7be0fc510001e0a3e4,12/08/1955,2020-09-10_05h54.38.199,proactive2,2020.1.2,Win32,60,5f5126bb654d4b30ee6923d8,5f59aff93dcae7213fe87d38,3,,,,,,diamond,,,,,,0,52,52,15,1,2,0,,,,,,,,,,,,,,,,,,,,,,,,,,,,,,,,,,,,,,,,,,,,,,,,,,,,,,,,,,,,,,,,,,,,,,,,,,,,,,,,,,,,,,,,,,,,,,,,,,,
,,,,,,,,,,stimuli/images/PICTURE_308.png,KIND,5d76cf7be0fc510001e0a3e4,12/08/1955,2020-09-10_05h54.38.199,proactive2,2020.1.2,Win32,60,5f5126bb654d4b30ee6923d8,5f59aff93dcae7213fe87d38,3,,,,,,dice,,,,,,0,53,53,54,1,6,0,,,,,,,,,,,,,,,,,,,,,,,,,,,,,,,,,,,,,,,,,,,,,,,,,,,,,,,,,,,,,,,,,,,,,,,,,,,,,,,,,,,,,,,,,,,,,,,,,,,
,,,,,,,,,,stimuli/images/PICTURE_151.png,GIRL,5d76cf7be0fc510001e0a3e4,12/08/1955,2020-09-10_05h54.38.199,proactive2,2020.1.2,Win32,60,5f5126bb654d4b30ee6923d8,5f59aff93dcae7213fe87d38,3,,,,,,tray,,,,,,0,54,54,19,1,2,0,,,,,,,,,,,,,,,,,,,,,,,,,,,,,,,,,,,,,,,,,,,,,,,,,,,,,,,,,,,,,,,,,,,,,,,,,,,,,,,,,,,,,,,,,,,,,,,,,,,
,,,,,,,,,,stimuli/images/PICTURE_667.png,PLENTY,5d76cf7be0fc510001e0a3e4,12/08/1955,2020-09-10_05h54.38.199,proactive2,2020.1.2,Win32,60,5f5126bb654d4b30ee6923d8,5f59aff93dcae7213fe87d38,3,,,,,,daisy,,,,,,0,55,55,41,1,5,0,,,,,,,,,,,,,,,,,,,,,,,,,,,,,,,,,,,,,,,,,,,,,,,,,,,,,,,,,,,,,,,,,,,,,,,,,,,,,,,,,,,,,,,,,,,,,,,,,,,
,,,,,,,,,,stimuli/images/PICTURE_203.png,ARTIST,5d76cf7be0fc510001e0a3e4,12/08/1955,2020-09-10_05h54.38.199,proactive2,2020.1.2,Win32,60,5f5126bb654d4b30ee6923d8,5f59aff93dcae7213fe87d38,3,,,,,,cap,,,,,,0,56,56,26,1,3,0,,,,,,,,,,,,,,,,,,,,,,,,,,,,,,,,,,,,,,,,,,,,,,,,,,,,,,,,,,,,,,,,,,,,,,,,,,,,,,,,,,,,,,,,,,,,,,,,,,,
,,,,,,,,,,stimuli/images/PICTURE_311.png,BEAUTY,5d76cf7be0fc510001e0a3e4,12/08/1955,2020-09-10_05h54.38.199,proactive2,2020.1.2,Win32,60,5f5126bb654d4b30ee6923d8,5f59aff93dcae7213fe87d38,3,,,,,,razor,,,,,,0,57,57,13,1,2,0,,,,,,,,,,,,,,,,,,,,,,,,,,,,,,,,,,,,,,,,,,,,,,,,,,,,,,,,,,,,,,,,,,,,,,,,,,,,,,,,,,,,,,,,,,,,,,,,,,,
,,,,,,,,,,stimuli/images/PICTURE_744.png,SAKE,5d76cf7be0fc510001e0a3e4,12/08/1955,2020-09-10_05h54.38.199,proactive2,2020.1.2,Win32,60,5f5126bb654d4b30ee6923d8,5f59aff93dcae7213fe87d38,3,,,,,,ring,,,,,,0,58,58,17,1,2,0,,,,,,,,,,,,,,,,,,,,,,,,,,,,,,,,,,,,,,,,,,,,,,,,,,,,,,,,,,,,,,,,,,,,,,,,,,,,,,,,,,,,,,,,,,,,,,,,,,,
,,?,0.00112,0,,,,,,stimuli/images/PICTURE_491.png,WRITER,5d76cf7be0fc510001e0a3e4,12/08/1955,2020-09-10_05h54.38.199,proactive2,2020.1.2,Win32,60,5f5126bb654d4b30ee6923d8,5f59aff93dcae7213fe87d38,3,,,,,,rug,,,,,,,,,,,6,0,0,0,0,57,1,,,,,,,,,,,,,,,,,,,,,,,,,,,,,,,,,,,,,,,,,,,,,,,,,,,,,,,,,,,,,,,,,,,,,,,,,,,,,,,,,,,,,,,,,,,,,,
,,?,0.000985,0,,,,,,stimuli/images/PICTURE_380.png,PHOTO,5d76cf7be0fc510001e0a3e4,12/08/1955,2020-09-10_05h54.38.199,proactive2,2020.1.2,Win32,60,5f5126bb654d4b30ee6923d8,5f59aff93dcae7213fe87d38,3,,,,,,gorilla,,,,,,,,,,,6,0,0,1,1,52,1,,,,,,,,,,,,,,,,,,,,,,,,,,,,,,,,,,,,,,,,,,,,,,,,,,,,,,,,,,,,,,,,,,,,,,,,,,,,,,,,,,,,,,,,,,,,,,
,,?,0.000925,0,,,,,,stimuli/images/PICTURE_248.png,DOZEN,5d76cf7be0fc510001e0a3e4,12/08/1955,2020-09-10_05h54.38.199,proactive2,2020.1.2,Win32,60,5f5126bb654d4b30ee6923d8,5f59aff93dcae7213fe87d38,3,,,,,,cart,,,,,,,,,,,4,0,0,2,2,39,1,,,,,,,,,,,,,,,,,,,,,,,,,,,,,,,,,,,,,,,,,,,,,,,,,,,,,,,,,,,,,,,,,,,,,,,,,,,,,,,,,,,,,,,,,,,,,,
,,?,0.001265,0,,,,,,stimuli/images/PICTURE_123.png,ADVICE,5d76cf7be0fc510001e0a3e4,12/08/1955,2020-09-10_05h54.38.199,proactive2,2020.1.2,Win32,60,5f5126bb654d4b30ee6923d8,5f59aff93dcae7213fe87d38,3,,,,,,dart,,,,,,,,,,,6,0,0,3,3,50,1,,,,,,,,,,,,,,,,,,,,,,,,,,,,,,,,,,,,,,,,,,,,,,,,,,,,,,,,,,,,,,,,,,,,,,,,,,,,,,,,,,,,,,,,,,,,,,
,,?,0.000945,0,,,,,,stimuli/images/PICTURE_160.png,FEET,5d76cf7be0fc510001e0a3e4,12/08/1955,2020-09-10_05h54.38.199,proactive2,2020.1.2,Win32,60,5f5126bb654d4b30ee6923d8,5f59aff93dcae7213fe87d38,3,,,,,,wheelbarrow,,,,,,,,,,,6,0,0,4,4,58,1,,,,,,,,,,,,,,,,,,,,,,,,,,,,,,,,,,,,,,,,,,,,,,,,,,,,,,,,,,,,,,,,,,,,,,,,,,,,,,,,,,,,,,,,,,,,,,
,,?,0.000855,0,,,,,,stimuli/images/PICTURE_314.png,GODS,5d76cf7be0fc510001e0a3e4,12/08/1955,2020-09-10_05h54.38.199,proactive2,2020.1.2,Win32,60,5f5126bb654d4b30ee6923d8,5f59aff93dcae7213fe87d38,3,,,,,,perfume,,,,,,,,,,,2,0,0,5,5,11,1,,,,,,,,,,,,,,,,,,,,,,,,,,,,,,,,,,,,,,,,,,,,,,,,,,,,,,,,,,,,,,,,,,,,,,,,,,,,,,,,,,,,,,,,,,,,,,
,,?,0.00098,0,,,,,,stimuli/images/PICTURE_449.png,THING,5d76cf7be0fc510001e0a3e4,12/08/1955,2020-09-10_05h54.38.199,proactive2,2020.1.2,Win32,60,5f5126bb654d4b30ee6923d8,5f59aff93dcae7213fe87d38,3,,,,,,bench,,,,,,,,,,,6,0,0,6,6,59,1,,,,,,,,,,,,,,,,,,,,,,,,,,,,,,,,,,,,,,,,,,,,,,,,,,,,,,,,,,,,,,,,,,,,,,,,,,,,,,,,,,,,,,,,,,,,,,
,,?,0.000945,0,,,,,,stimuli/images/PICTURE_453.png,PLENTY,5d76cf7be0fc510001e0a3e4,12/08/1955,2020-09-10_05h54.38.199,proactive2,2020.1.2,Win32,60,5f5126bb654d4b30ee6923d8,5f59aff93dcae7213fe87d38,3,,,,,,scissors,,,,,,,,,,,6,0,0,7,7,56,1,,,,,,,,,,,,,,,,,,,,,,,,,,,,,,,,,,,,,,,,,,,,,,,,,,,,,,,,,,,,,,,,,,,,,,,,,,,,,,,,,,,,,,,,,,,,,,
,,ARTIST,5.40523,1,,,,,,stimuli/images/PICTURE_203.png,ARTIST,5d76cf7be0fc510001e0a3e4,12/08/1955,2020-09-10_05h54.38.199,proactive2,2020.1.2,Win32,60,5f5126bb654d4b30ee6923d8,5f59aff93dcae7213fe87d38,3,,,,,,cap,,,,,,,,,,,3,0,0,8,8,26,1,,,,,,,,,,,,,,,,,,,,,,,,,,,,,,,,,,,,,,,,,,,,,,,,,,,,,,,,,,,,,,,,,,,,,,,,,,,,,,,,,,,,,,,,,,,,,,
,,?,0.003605,0,,,,,,stimuli/images/PICTURE_68.png,MILE,5d76cf7be0fc510001e0a3e4,12/08/1955,2020-09-10_05h54.38.199,proactive2,2020.1.2,Win32,60,5f5126bb654d4b30ee6923d8,5f59aff93dcae7213fe87d38,3,,,,,,candle,,,,,,,,,,,5,0,0,9,9,44,1,,,,,,,,,,,,,,,,,,,,,,,,,,,,,,,,,,,,,,,,,,,,,,,,,,,,,,,,,,,,,,,,,,,,,,,,,,,,,,,,,,,,,,,,,,,,,,
,,?,0.002245,0,,,,,,stimuli/images/PICTURE_308.png,ESTATE,5d76cf7be0fc510001e0a3e4,12/08/1955,2020-09-10_05h54.38.199,proactive2,2020.1.2,Win32,60,5f5126bb654d4b30ee6923d8,5f59aff93dcae7213fe87d38,3,,,,,,dice,,,,,,,,,,,5,0,0,10,10,46,1,,,,,,,,,,,,,,,,,,,,,,,,,,,,,,,,,,,,,,,,,,,,,,,,,,,,,,,,,,,,,,,,,,,,,,,,,,,,,,,,,,,,,,,,,,,,,,
,,?,0.001805,0,,,,,,stimuli/images/PICTURE_339.png,PLENTY,5d76cf7be0fc510001e0a3e4,12/08/1955,2020-09-10_05h54.38.199,proactive2,2020.1.2,Win32,60,5f5126bb654d4b30ee6923d8,5f59aff93dcae7213fe87d38,3,,,,,,backpack,,,,,,,,,,,1,0,0,11,11,0,1,,,,,,,,,,,,,,,,,,,,,,,,,,,,,,,,,,,,,,,,,,,,,,,,,,,,,,,,,,,,,,,,,,,,,,,,,,,,,,,,,,,,,,,,,,,,,,
,,?,0.00181,0,,,,,,stimuli/images/PICTURE_654.png,VALLEY,5d76cf7be0fc510001e0a3e4,12/08/1955,2020-09-10_05h54.38.199,proactive2,2020.1.2,Win32,60,5f5126bb654d4b30ee6923d8,5f59aff93dcae7213fe87d38,3,,,,,,pencil,,,,,,,,,,,1,0,0,12,12,1,1,,,,,,,,,,,,,,,,,,,,,,,,,,,,,,,,,,,,,,,,,,,,,,,,,,,,,,,,,,,,,,,,,,,,,,,,,,,,,,,,,,,,,,,,,,,,,,
,,?,0.002635,0,,,,,,stimuli/images/PICTURE_147.png,MOMENT,5d76cf7be0fc510001e0a3e4,12/08/1955,2020-09-10_05h54.38.199,proactive2,2020.1.2,Win32,60,5f5126bb654d4b30ee6923d8,5f59aff93dcae7213fe87d38,3,,,,,,hanger,,,,,,,,,,,6,0,0,13,13,51,1,,,,,,,,,,,,,,,,,,,,,,,,,,,,,,,,,,,,,,,,,,,,,,,,,,,,,,,,,,,,,,,,,,,,,,,,,,,,,,,,,,,,,,,,,,,,,,
,,DUDE,3.719935,0,,,,,,stimuli/images/PICTURE_348.png,SPEECH,5d76cf7be0fc510001e0a3e4,12/08/1955,2020-09-10_05h54.38.199,proactive2,2020.1.2,Win32,60,5f5126bb654d4b30ee6923d8,5f59aff93dcae7213fe87d38,3,,,,,,pepper,,,,,,,,,,,3,0,0,14,14,20,1,,,,,,,,,,,,,,,,,,,,,,,,,,,,,,,,,,,,,,,,,,,,,,,,,,,,,,,,,,,,,,,,,,,,,,,,,,,,,,,,,,,,,,,,,,,,,,
,,?,0.00207,0,,,,,,stimuli/images/PICTURE_380.png,DEATH,5d76cf7be0fc510001e0a3e4,12/08/1955,2020-09-10_05h54.38.199,proactive2,2020.1.2,Win32,60,5f5126bb654d4b30ee6923d8,5f59aff93dcae7213fe87d38,3,,,,,,gorilla,,,,,,,,,,,5,0,0,15,15,49,1,,,,,,,,,,,,,,,,,,,,,,,,,,,,,,,,,,,,,,,,,,,,,,,,,,,,,,,,,,,,,,,,,,,,,,,,,,,,,,,,,,,,,,,,,,,,,,
,,?,0.00176,0,,,,,,stimuli/images/PICTURE_488.png,STYLE,5d76cf7be0fc510001e0a3e4,12/08/1955,2020-09-10_05h54.38.199,proactive2,2020.1.2,Win32,60,5f5126bb654d4b30ee6923d8,5f59aff93dcae7213fe87d38,3,,,,,,sun,,,,,,,,,,,4,0,0,16,16,33,1,,,,,,,,,,,,,,,,,,,,,,,,,,,,,,,,,,,,,,,,,,,,,,,,,,,,,,,,,,,,,,,,,,,,,,,,,,,,,,,,,,,,,,,,,,,,,,
,,?,0.00173,0,,,,,,stimuli/images/PICTURE_311.png,FRIEND,5d76cf7be0fc510001e0a3e4,12/08/1955,2020-09-10_05h54.38.199,proactive2,2020.1.2,Win32,60,5f5126bb654d4b30ee6923d8,5f59aff93dcae7213fe87d38,3,,,,,,razor,,,,,,,,,,,4,0,0,17,17,34,1,,,,,,,,,,,,,,,,,,,,,,,,,,,,,,,,,,,,,,,,,,,,,,,,,,,,,,,,,,,,,,,,,,,,,,,,,,,,,,,,,,,,,,,,,,,,,,
,,?,0.001915,0,,,,,,stimuli/images/PICTURE_314.png,SAKE,5d76cf7be0fc510001e0a3e4,12/08/1955,2020-09-10_05h54.38.199,proactive2,2020.1.2,Win32,60,5f5126bb654d4b30ee6923d8,5f59aff93dcae7213fe87d38,3,,,,,,perfume,,,,,,,,,,,1,0,0,18,18,7,1,,,,,,,,,,,,,,,,,,,,,,,,,,,,,,,,,,,,,,,,,,,,,,,,,,,,,,,,,,,,,,,,,,,,,,,,,,,,,,,,,,,,,,,,,,,,,,
,,?,0.002115,0,,,,,,stimuli/images/PICTURE_302.png,FAMILY,5d76cf7be0fc510001e0a3e4,12/08/1955,2020-09-10_05h54.38.199,proactive2,2020.1.2,Win32,60,5f5126bb654d4b30ee6923d8,5f59aff93dcae7213fe87d38,3,,,,,,taxi,,,,,,,,,,,2,0,0,19,19,18,1,,,,,,,,,,,,,,,,,,,,,,,,,,,,,,,,,,,,,,,,,,,,,,,,,,,,,,,,,,,,,,,,,,,,,,,,,,,,,,,,,,,,,,,,,,,,,,
,,?,0.00168,0,,,,,,stimuli/images/PICTURE_677.png,MILE,5d76cf7be0fc510001e0a3e4,12/08/1955,2020-09-10_05h54.38.199,proactive2,2020.1.2,Win32,60,5f5126bb654d4b30ee6923d8,5f59aff93dcae7213fe87d38,3,,,,,,map,,,,,,,,,,,4,0,0,20,20,30,1,,,,,,,,,,,,,,,,,,,,,,,,,,,,,,,,,,,,,,,,,,,,,,,,,,,,,,,,,,,,,,,,,,,,,,,,,,,,,,,,,,,,,,,,,,,,,,
,,?,0.001955,0,,,,,,stimuli/images/PICTURE_356.png,DANGER,5d76cf7be0fc510001e0a3e4,12/08/1955,2020-09-10_05h54.38.199,proactive2,2020.1.2,Win32,60,5f5126bb654d4b30ee6923d8,5f59aff93dcae7213fe87d38,3,,,,,,pawn,,,,,,,,,,,6,0,0,21,21,55,1,,,,,,,,,,,,,,,,,,,,,,,,,,,,,,,,,,,,,,,,,,,,,,,,,,,,,,,,,,,,,,,,,,,,,,,,,,,,,,,,,,,,,,,,,,,,,,
,,AREA,4.7465,0,,,,,,stimuli/images/PICTURE_467.png,DEMON,5d76cf7be0fc510001e0a3e4,12/08/1955,2020-09-10_05h54.38.199,proactive2,2020.1.2,Win32,60,5f5126bb654d4b30ee6923d8,5f59aff93dcae7213fe87d38,3,,,,,,peg,,,,,,,,,,,3,0,0,22,22,23,1,,,,,,,,,,,,,,,,,,,,,,,,,,,,,,,,,,,,,,,,,,,,,,,,,,,,,,,,,,,,,,,,,,,,,,,,,,,,,,,,,,,,,,,,,,,,,,
,,?,0.002625,0,,,,,,stimuli/images/PICTURE_675.png,WEAPON,5d76cf7be0fc510001e0a3e4,12/08/1955,2020-09-10_05h54.38.199,proactive2,2020.1.2,Win32,60,5f5126bb654d4b30ee6923d8,5f59aff93dcae7213fe87d38,3,,,,,,windmill,,,,,,,,,,,4,0,0,23,23,32,1,,,,,,,,,,,,,,,,,,,,,,,,,,,,,,,,,,,,,,,,,,,,,,,,,,,,,,,,,,,,,,,,,,,,,,,,,,,,,,,,,,,,,,,,,,,,,,
,,?,0.00193,0,,,,,,stimuli/images/PICTURE_487.png,FLIGHT,5d76cf7be0fc510001e0a3e4,12/08/1955,2020-09-10_05h54.38.199,proactive2,2020.1.2,Win32,60,5f5126bb654d4b30ee6923d8,5f59aff93dcae7213fe87d38,3,,,,,,basket,,,,,,,,,,,1,0,0,24,24,9,1,,,,,,,,,,,,,,,,,,,,,,,,,,,,,,,,,,,,,,,,,,,,,,,,,,,,,,,,,,,,,,,,,,,,,,,,,,,,,,,,,,,,,,,,,,,,,,
,,?,0.00131,0,,,,,,stimuli/images/PICTURE_208.png,MONTH,5d76cf7be0fc510001e0a3e4,12/08/1955,2020-09-10_05h54.38.199,proactive2,2020.1.2,Win32,60,5f5126bb654d4b30ee6923d8,5f59aff93dcae7213fe87d38,3,,,,,,microphone,,,,,,,,,,,6,0,0,25,25,53,1,,,,,,,,,,,,,,,,,,,,,,,,,,,,,,,,,,,,,,,,,,,,,,,,,,,,,,,,,,,,,,,,,,,,,,,,,,,,,,,,,,,,,,,,,,,,,,
,,?,4.020285,0,,,,,,stimuli/images/PICTURE_95.png,STYLE,5d76cf7be0fc510001e0a3e4,12/08/1955,2020-09-10_05h54.38.199,proactive2,2020.1.2,Win32,60,5f5126bb654d4b30ee6923d8,5f59aff93dcae7213fe87d38,3,,,,,,suitcase,,,,,,,,,,,3,0,0,26,26,25,1,,,,,,,,,,,,,,,,,,,,,,,,,,,,,,,,,,,,,,,,,,,,,,,,,,,,,,,,,,,,,,,,,,,,,,,,,,,,,,,,,,,,,,,,,,,,,,
,,?,0.002115,0,,,,,,stimuli/images/PICTURE_744.png,SAKE,5d76cf7be0fc510001e0a3e4,12/08/1955,2020-09-10_05h54.38.199,proactive2,2020.1.2,Win32,60,5f5126bb654d4b30ee6923d8,5f59aff93dcae7213fe87d38,3,,,,,,ring,,,,,,,,,,,2,0,0,27,27,17,1,,,,,,,,,,,,,,,,,,,,,,,,,,,,,,,,,,,,,,,,,,,,,,,,,,,,,,,,,,,,,,,,,,,,,,,,,,,,,,,,,,,,,,,,,,,,,,
,,?,0.00186,0,,,,,,stimuli/images/PICTURE_469.png,ARTIST,5d76cf7be0fc510001e0a3e4,12/08/1955,2020-09-10_05h54.38.199,proactive2,2020.1.2,Win32,60,5f5126bb654d4b30ee6923d8,5f59aff93dcae7213fe87d38,3,,,,,,stool,,,,,,,,,,,1,0,0,28,28,6,1,,,,,,,,,,,,,,,,,,,,,,,,,,,,,,,,,,,,,,,,,,,,,,,,,,,,,,,,,,,,,,,,,,,,,,,,,,,,,,,,,,,,,,,,,,,,,,
,,?,0.00348,0,,,,,,stimuli/images/PICTURE_208.png,THING,5d76cf7be0fc510001e0a3e4,12/08/1955,2020-09-10_05h54.38.199,proactive2,2020.1.2,Win32,60,5f5126bb654d4b30ee6923d8,5f59aff93dcae7213fe87d38,3,,,,,,microphone,,,,,,,,,,,5,0,0,29,29,47,1,,,,,,,,,,,,,,,,,,,,,,,,,,,,,,,,,,,,,,,,,,,,,,,,,,,,,,,,,,,,,,,,,,,,,,,,,,,,,,,,,,,,,,,,,,,,,,
,,?,0.00169,0,,,,,,stimuli/images/PICTURE_160.png,LEADER,5d76cf7be0fc510001e0a3e4,12/08/1955,2020-09-10_05h54.38.199,proactive2,2020.1.2,Win32,60,5f5126bb654d4b30ee6923d8,5f59aff93dcae7213fe87d38,3,,,,,,wheelbarrow,,,,,,,,,,,1,0,0,30,30,3,1,,,,,,,,,,,,,,,,,,,,,,,,,,,,,,,,,,,,,,,,,,,,,,,,,,,,,,,,,,,,,,,,,,,,,,,,,,,,,,,,,,,,,,,,,,,,,,
,,ROOF,3.940875,1,,,,,,stimuli/images/PICTURE_491.png,ROOF,5d76cf7be0fc510001e0a3e4,12/08/1955,2020-09-10_05h54.38.199,proactive2,2020.1.2,Win32,60,5f5126bb654d4b30ee6923d8,5f59aff93dcae7213fe87d38,3,,,,,,rug,,,,,,,,,,,3,0,0,31,31,24,1,,,,,,,,,,,,,,,,,,,,,,,,,,,,,,,,,,,,,,,,,,,,,,,,,,,,,,,,,,,,,,,,,,,,,,,,,,,,,,,,,,,,,,,,,,,,,,
,,?,0.00246,0,,,,,,stimuli/images/PICTURE_692.png,MONTH,5d76cf7be0fc510001e0a3e4,12/08/1955,2020-09-10_05h54.38.199,proactive2,2020.1.2,Win32,60,5f5126bb654d4b30ee6923d8,5f59aff93dcae7213fe87d38,3,,,,,,cherry,,,,,,,,,,,2,0,0,32,32,16,1,,,,,,,,,,,,,,,,,,,,,,,,,,,,,,,,,,,,,,,,,,,,,,,,,,,,,,,,,,,,,,,,,,,,,,,,,,,,,,,,,,,,,,,,,,,,,,
,,?,0.002215,0,,,,,,stimuli/images/PICTURE_308.png,KIND,5d76cf7be0fc510001e0a3e4,12/08/1955,2020-09-10_05h54.38.199,proactive2,2020.1.2,Win32,60,5f5126bb654d4b30ee6923d8,5f59aff93dcae7213fe87d38,3,,,,,,dice,,,,,,,,,,,6,0,0,33,33,54,1,,,,,,,,,,,,,,,,,,,,,,,,,,,,,,,,,,,,,,,,,,,,,,,,,,,,,,,,,,,,,,,,,,,,,,,,,,,,,,,,,,,,,,,,,,,,,,
,,?,2.435215,0,,,,,,stimuli/images/PICTURE_453.png,DUDE,5d76cf7be0fc510001e0a3e4,12/08/1955,2020-09-10_05h54.38.199,proactive2,2020.1.2,Win32,60,5f5126bb654d4b30ee6923d8,5f59aff93dcae7213fe87d38,3,,,,,,scissors,,,,,,,,,,,3,0,0,34,34,27,1,,,,,,,,,,,,,,,,,,,,,,,,,,,,,,,,,,,,,,,,,,,,,,,,,,,,,,,,,,,,,,,,,,,,,,,,,,,,,,,,,,,,,,,,,,,,,,
,,?,0.002375,0,,,,,,stimuli/images/PICTURE_708.png,CLIENT,5d76cf7be0fc510001e0a3e4,12/08/1955,2020-09-10_05h54.38.199,proactive2,2020.1.2,Win32,60,5f5126bb654d4b30ee6923d8,5f59aff93dcae7213fe87d38,3,,,,,,monkey,,,,,,,,,,,1,0,0,35,35,5,1,,,,,,,,,,,,,,,,,,,,,,,,,,,,,,,,,,,,,,,,,,,,,,,,,,,,,,,,,,,,,,,,,,,,,,,,,,,,,,,,,,,,,,,,,,,,,,
,,?,0.001515,0,,,,,,stimuli/images/PICTURE_688.png,WOMEN,5d76cf7be0fc510001e0a3e4,12/08/1955,2020-09-10_05h54.38.199,proactive2,2020.1.2,Win32,60,5f5126bb654d4b30ee6923d8,5f59aff93dcae7213fe87d38,3,,,,,,runner,,,,,,,,,,,2,0,0,36,36,14,1,,,,,,,,,,,,,,,,,,,,,,,,,,,,,,,,,,,,,,,,,,,,,,,,,,,,,,,,,,,,,,,,,,,,,,,,,,,,,,,,,,,,,,,,,,,,,,
,,?,0.002815,0,,,,,,stimuli/images/PICTURE_215.png,PLENTY,5d76cf7be0fc510001e0a3e4,12/08/1955,2020-09-10_05h54.38.199,proactive2,2020.1.2,Win32,60,5f5126bb654d4b30ee6923d8,5f59aff93dcae7213fe87d38,3,,,,,,boot,,,,,,,,,,,4,0,0,37,37,37,1,,,,,,,,,,,,,,,,,,,,,,,,,,,,,,,,,,,,,,,,,,,,,,,,,,,,,,,,,,,,,,,,,,,,,,,,,,,,,,,,,,,,,,,,,,,,,,
,,?,0.00097,0,,,,,,stimuli/images/PICTURE_688.png,CASINO,5d76cf7be0fc510001e0a3e4,12/08/1955,2020-09-10_05h54.38.199,proactive2,2020.1.2,Win32,60,5f5126bb654d4b30ee6923d8,5f59aff93dcae7213fe87d38,3,,,,,,runner,,,,,,,,,,,1,0,0,38,38,2,1,,,,,,,,,,,,,,,,,,,,,,,,,,,,,,,,,,,,,,,,,,,,,,,,,,,,,,,,,,,,,,,,,,,,,,,,,,,,,,,,,,,,,,,,,,,,,,
,,?,0.00081,0,,,,,,stimuli/images/PICTURE_208.png,LOTS,5d76cf7be0fc510001e0a3e4,12/08/1955,2020-09-10_05h54.38.199,proactive2,2020.1.2,Win32,60,5f5126bb654d4b30ee6923d8,5f59aff93dcae7213fe87d38,3,,,,,,microphone,,,,,,,,,,,2,0,0,39,39,10,1,,,,,,,,,,,,,,,,,,,,,,,,,,,,,,,,,,,,,,,,,,,,,,,,,,,,,,,,,,,,,,,,,,,,,,,,,,,,,,,,,,,,,,,,,,,,,,
,,?,0.00081,0,,,,,,stimuli/images/PICTURE_708.png,PENNY,5d76cf7be0fc510001e0a3e4,12/08/1955,2020-09-10_05h54.38.199,proactive2,2020.1.2,Win32,60,5f5126bb654d4b30ee6923d8,5f59aff93dcae7213fe87d38,3,,,,,,monkey,,,,,,,,,,,4,0,0,40,40,31,1,,,,,,,,,,,,,,,,,,,,,,,,,,,,,,,,,,,,,,,,,,,,,,,,,,,,,,,,,,,,,,,,,,,,,,,,,,,,,,,,,,,,,,,,,,,,,,
,,?,0.00078,0,,,,,,stimuli/images/PICTURE_233.png,WOMEN,5d76cf7be0fc510001e0a3e4,12/08/1955,2020-09-10_05h54.38.199,proactive2,2020.1.2,Win32,60,5f5126bb654d4b30ee6923d8,5f59aff93dcae7213fe87d38,3,,,,,,salt,,,,,,,,,,,4,0,0,41,41,38,1,,,,,,,,,,,,,,,,,,,,,,,,,,,,,,,,,,,,,,,,,,,,,,,,,,,,,,,,,,,,,,,,,,,,,,,,,,,,,,,,,,,,,,,,,,,,,,
,,?,0.000785,0,,,,,,stimuli/images/PICTURE_32.png,JUNGLE,5d76cf7be0fc510001e0a3e4,12/08/1955,2020-09-10_05h54.38.199,proactive2,2020.1.2,Win32,60,5f5126bb654d4b30ee6923d8,5f59aff93dcae7213fe87d38,3,,,,,,crown,,,,,,,,,,,5,0,0,42,42,45,1,,,,,,,,,,,,,,,,,,,,,,,,,,,,,,,,,,,,,,,,,,,,,,,,,,,,,,,,,,,,,,,,,,,,,,,,,,,,,,,,,,,,,,,,,,,,,,
,,?,0.000785,0,,,,,,stimuli/images/PICTURE_667.png,BATH,5d76cf7be0fc510001e0a3e4,12/08/1955,2020-09-10_05h54.38.199,proactive2,2020.1.2,Win32,60,5f5126bb654d4b30ee6923d8,5f59aff93dcae7213fe87d38,3,,,,,,daisy,,,,,,,,,,,1,0,0,43,43,4,1,,,,,,,,,,,,,,,,,,,,,,,,,,,,,,,,,,,,,,,,,,,,,,,,,,,,,,,,,,,,,,,,,,,,,,,,,,,,,,,,,,,,,,,,,,,,,,
,,AREA,4.249985,1,,,,,,stimuli/images/PICTURE_255.png,AREA,5d76cf7be0fc510001e0a3e4,12/08/1955,2020-09-10_05h54.38.199,proactive2,2020.1.2,Win32,60,5f5126bb654d4b30ee6923d8,5f59aff93dcae7213fe87d38,3,,,,,,shovel,,,,,,,,,,,3,0,0,44,44,22,1,,,,,,,,,,,,,,,,,,,,,,,,,,,,,,,,,,,,,,,,,,,,,,,,,,,,,,,,,,,,,,,,,,,,,,,,,,,,,,,,,,,,,,,,,,,,,,
,,?,0.002075,0,,,,,,stimuli/images/PICTURE_177.png,CARS,5d76cf7be0fc510001e0a3e4,12/08/1955,2020-09-10_05h54.38.199,proactive2,2020.1.2,Win32,60,5f5126bb654d4b30ee6923d8,5f59aff93dcae7213fe87d38,3,,,,,,mushroom,,,,,,,,,,,4,0,0,45,45,35,1,,,,,,,,,,,,,,,,,,,,,,,,,,,,,,,,,,,,,,,,,,,,,,,,,,,,,,,,,,,,,,,,,,,,,,,,,,,,,,,,,,,,,,,,,,,,,,
,,?,0.00148,0,,,,,,stimuli/images/PICTURE_327.png,BEAUTY,5d76cf7be0fc510001e0a3e4,12/08/1955,2020-09-10_05h54.38.199,proactive2,2020.1.2,Win32,60,5f5126bb654d4b30ee6923d8,5f59aff93dcae7213fe87d38,3,,,,,,helmet,,,,,,,,,,,5,0,0,46,46,48,1,,,,,,,,,,,,,,,,,,,,,,,,,,,,,,,,,,,,,,,,,,,,,,,,,,,,,,,,,,,,,,,,,,,,,,,,,,,,,,,,,,,,,,,,,,,,,,
,,?,0.00147,0,,,,,,stimuli/images/PICTURE_123.png,ADVICE,5d76cf7be0fc510001e0a3e4,12/08/1955,2020-09-10_05h54.38.199,proactive2,2020.1.2,Win32,60,5f5126bb654d4b30ee6923d8,5f59aff93dcae7213fe87d38,3,,,,,,dart,,,,,,,,,,,5,0,0,47,47,40,1,,,,,,,,,,,,,,,,,,,,,,,,,,,,,,,,,,,,,,,,,,,,,,,,,,,,,,,,,,,,,,,,,,,,,,,,,,,,,,,,,,,,,,,,,,,,,,
,,?,2.000935,0,,,,,,stimuli/images/PICTURE_708.png,YARD,5d76cf7be0fc510001e0a3e4,12/08/1955,2020-09-10_05h54.38.199,proactive2,2020.1.2,Win32,60,5f5126bb654d4b30ee6923d8,5f59aff93dcae7213fe87d38,3,,,,,,monkey,,,,,,,,,,,3,0,0,48,48,29,1,,,,,,,,,,,,,,,,,,,,,,,,,,,,,,,,,,,,,,,,,,,,,,,,,,,,,,,,,,,,,,,,,,,,,,,,,,,,,,,,,,,,,,,,,,,,,,
,,EVIL,5.896685,0,,,,,,stimuli/images/PICTURE_509.png,PHOTO,5d76cf7be0fc510001e0a3e4,12/08/1955,2020-09-10_05h54.38.199,proactive2,2020.1.2,Win32,60,5f5126bb654d4b30ee6923d8,5f59aff93dcae7213fe87d38,3,,,,,,telephone,,,,,,,,,,,3,0,0,49,49,21,1,,,,,,,,,,,,,,,,,,,,,,,,,,,,,,,,,,,,,,,,,,,,,,,,,,,,,,,,,,,,,,,,,,,,,,,,,,,,,,,,,,,,,,,,,,,,,,
,,?,0.00129,0,,,,,,stimuli/images/PICTURE_311.png,BEAUTY,5d76cf7be0fc510001e0a3e4,12/08/1955,2020-09-10_05h54.38.199,proactive2,2020.1.2,Win32,60,5f5126bb654d4b30ee6923d8,5f59aff93dcae7213fe87d38,3,,,,,,razor,,,,,,,,,,,2,0,0,50,50,13,1,,,,,,,,,,,,,,,,,,,,,,,,,,,,,,,,,,,,,,,,,,,,,,,,,,,,,,,,,,,,,,,,,,,,,,,,,,,,,,,,,,,,,,,,,,,,,,
,,?,0.00097,0,,,,,,stimuli/images/PICTURE_667.png,PLENTY,5d76cf7be0fc510001e0a3e4,12/08/1955,2020-09-10_05h54.38.199,proactive2,2020.1.2,Win32,60,5f5126bb654d4b30ee6923d8,5f59aff93dcae7213fe87d38,3,,,,,,daisy,,,,,,,,,,,5,0,0,51,51,41,1,,,,,,,,,,,,,,,,,,,,,,,,,,,,,,,,,,,,,,,,,,,,,,,,,,,,,,,,,,,,,,,,,,,,,,,,,,,,,,,,,,,,,,,,,,,,,,
,,?,0.00103,0,,,,,,stimuli/images/PICTURE_85.png,THING,5d76cf7be0fc510001e0a3e4,12/08/1955,2020-09-10_05h54.38.199,proactive2,2020.1.2,Win32,60,5f5126bb654d4b30ee6923d8,5f59aff93dcae7213fe87d38,3,,,,,,diamond,,,,,,,,,,,2,0,0,52,52,15,1,,,,,,,,,,,,,,,,,,,,,,,,,,,,,,,,,,,,,,,,,,,,,,,,,,,,,,,,,,,,,,,,,,,,,,,,,,,,,,,,,,,,,,,,,,,,,,
,,?,0.000905,0,,,,,,stimuli/images/PICTURE_470.png,CASINO,5d76cf7be0fc510001e0a3e4,12/08/1955,2020-09-10_05h54.38.199,proactive2,2020.1.2,Win32,60,5f5126bb654d4b30ee6923d8,5f59aff93dcae7213fe87d38,3,,,,,,motorbike,,,,,,,,,,,4,0,0,53,53,36,1,,,,,,,,,,,,,,,,,,,,,,,,,,,,,,,,,,,,,,,,,,,,,,,,,,,,,,,,,,,,,,,,,,,,,,,,,,,,,,,,,,,,,,,,,,,,,,
,,?,1.658435,0,,,,,,stimuli/images/PICTURE_233.png,IDEAS,5d76cf7be0fc510001e0a3e4,12/08/1955,2020-09-10_05h54.38.199,proactive2,2020.1.2,Win32,60,5f5126bb654d4b30ee6923d8,5f59aff93dcae7213fe87d38,3,,,,,,salt,,,,,,,,,,,3,0,0,54,54,28,1,,,,,,,,,,,,,,,,,,,,,,,,,,,,,,,,,,,,,,,,,,,,,,,,,,,,,,,,,,,,,,,,,,,,,,,,,,,,,,,,,,,,,,,,,,,,,,
,,?,0.001065,0,,,,,,stimuli/images/PICTURE_469.png,LETTER,5d76cf7be0fc510001e0a3e4,12/08/1955,2020-09-10_05h54.38.199,proactive2,2020.1.2,Win32,60,5f5126bb654d4b30ee6923d8,5f59aff93dcae7213fe87d38,3,,,,,,stool,,,,,,,,,,,5,0,0,55,55,42,1,,,,,,,,,,,,,,,,,,,,,,,,,,,,,,,,,,,,,,,,,,,,,,,,,,,,,,,,,,,,,,,,,,,,,,,,,,,,,,,,,,,,,,,,,,,,,,
,,?,0.00073,0,,,,,,stimuli/images/PICTURE_744.png,SYSTEM,5d76cf7be0fc510001e0a3e4,12/08/1955,2020-09-10_05h54.38.199,proactive2,2020.1.2,Win32,60,5f5126bb654d4b30ee6923d8,5f59aff93dcae7213fe87d38,3,,,,,,ring,,,,,,,,,,,5,0,0,56,56,43,1,,,,,,,,,,,,,,,,,,,,,,,,,,,,,,,,,,,,,,,,,,,,,,,,,,,,,,,,,,,,,,,,,,,,,,,,,,,,,,,,,,,,,,,,,,,,,,
,,?,0.000685,0,,,,,,stimuli/images/PICTURE_504.png,BODY,5d76cf7be0fc510001e0a3e4,12/08/1955,2020-09-10_05h54.38.199,proactive2,2020.1.2,Win32,60,5f5126bb654d4b30ee6923d8,5f59aff93dcae7213fe87d38,3,,,,,,wheel,,,,,,,,,,,1,0,0,57,57,8,1,,,,,,,,,,,,,,,,,,,,,,,,,,,,,,,,,,,,,,,,,,,,,,,,,,,,,,,,,,,,,,,,,,,,,,,,,,,,,,,,,,,,,,,,,,,,,,
,,?,0.000835,0,,,,,,stimuli/images/PICTURE_151.png,GIRL,5d76cf7be0fc510001e0a3e4,12/08/1955,2020-09-10_05h54.38.199,proactive2,2020.1.2,Win32,60,5f5126bb654d4b30ee6923d8,5f59aff93dcae7213fe87d38,3,,,,,,tray,,,,,,,,,,,2,0,0,58,58,19,1,,,,,,,,,,,,,,,,,,,,,,,,,,,,,,,,,,,,,,,,,,,,,,,,,,,,,,,,,,,,,,,,,,,,,,,,,,,,,,,,,,,,,,,,,,,,,,
,,?,0.000795,0,,,,,,stimuli/images/PICTURE_285.png,ADVICE,5d76cf7be0fc510001e0a3e4,12/08/1955,2020-09-10_05h54.38.199,proactive2,2020.1.2,Win32,60,5f5126bb654d4b30ee6923d8,5f59aff93dcae7213fe87d38,3,,,,,,carrot,,,,,,,,,,,2,0,0,59,59,12,1,,,,,,,,,,,,,,,,,,,,,,,,,,,,,,,,,,,,,,,,,,,,,,,,,,,,,,,,,,,,,,,,,,,,,,,,,,,,,,,,,,,,,,,,,,,,,,
,,,,,,,,,,,,5d76cf7be0fc510001e0a3e4,12/08/1955,2020-09-10_05h54.38.199,proactive2,2020.1.2,Win32,60,5f5126bb654d4b30ee6923d8,5f59aff93dcae7213fe87d38,3,,,,,,,,,,,,,,,,,,,,,,,,0,0,0,0,1,stimuli/learn-block1.csv,,,,,,,,,,,,,,,,,,,,,,,,,,,,,,,,,,,,,,,,,,,,,,,,,,,,,,,,,,,,,,,,,,,,,,,,,,,,,,,,,,,,,,,,
,,,,,,,,,,stimuli/images/PICTURE_708.png,RECORD,5d76cf7be0fc510001e0a3e4,12/08/1955,2020-09-10_05h54.38.199,proactive2,2020.1.2,Win32,60,5f5126bb654d4b30ee6923d8,5f59aff93dcae7213fe87d38,3,,,,,,monkey,,,,,,0,0,0,58,1,6,1,,,,,,,,,,,,,,,,,,,,,,,,,,,,,,,,,,,,,,,,,,,,,,,,,,,,,,,,,,,,,,,,,,,,,,,,,,,,,,,,,,,,,,,,,,,,,,,,,,,
,,,,,,,,,,stimuli/images/PICTURE_85.png,TOILET,5d76cf7be0fc510001e0a3e4,12/08/1955,2020-09-10_05h54.38.199,proactive2,2020.1.2,Win32,60,5f5126bb654d4b30ee6923d8,5f59aff93dcae7213fe87d38,3,,,,,,diamond,,,,,,0,1,1,48,1,5,1,,,,,,,,,,,,,,,,,,,,,,,,,,,,,,,,,,,,,,,,,,,,,,,,,,,,,,,,,,,,,,,,,,,,,,,,,,,,,,,,,,,,,,,,,,,,,,,,,,,
,,,,,,,,,,stimuli/images/PICTURE_296.png,LOTS,5d76cf7be0fc510001e0a3e4,12/08/1955,2020-09-10_05h54.38.199,proactive2,2020.1.2,Win32,60,5f5126bb654d4b30ee6923d8,5f59aff93dcae7213fe87d38,3,,,,,,bolt,,,,,,0,2,2,9,1,1,1,,,,,,,,,,,,,,,,,,,,,,,,,,,,,,,,,,,,,,,,,,,,,,,,,,,,,,,,,,,,,,,,,,,,,,,,,,,,,,,,,,,,,,,,,,,,,,,,,,,
,,,,,,,,,,stimuli/images/PICTURE_42.png,BOYS,5d76cf7be0fc510001e0a3e4,12/08/1955,2020-09-10_05h54.38.199,proactive2,2020.1.2,Win32,60,5f5126bb654d4b30ee6923d8,5f59aff93dcae7213fe87d38,3,,,,,,pear,,,,,,0,3,3,55,1,6,1,,,,,,,,,,,,,,,,,,,,,,,,,,,,,,,,,,,,,,,,,,,,,,,,,,,,,,,,,,,,,,,,,,,,,,,,,,,,,,,,,,,,,,,,,,,,,,,,,,,
,,,,,,,,,,stimuli/images/PICTURE_403.png,TOILET,5d76cf7be0fc510001e0a3e4,12/08/1955,2020-09-10_05h54.38.199,proactive2,2020.1.2,Win32,60,5f5126bb654d4b30ee6923d8,5f59aff93dcae7213fe87d38,3,,,,,,cathedral,,,,,,0,4,4,25,1,3,1,,,,,,,,,,,,,,,,,,,,,,,,,,,,,,,,,,,,,,,,,,,,,,,,,,,,,,,,,,,,,,,,,,,,,,,,,,,,,,,,,,,,,,,,,,,,,,,,,,,
,,,,,,,,,,stimuli/images/PICTURE_340.png,LETTER,5d76cf7be0fc510001e0a3e4,12/08/1955,2020-09-10_05h54.38.199,proactive2,2020.1.2,Win32,60,5f5126bb654d4b30ee6923d8,5f59aff93dcae7213fe87d38,3,,,,,,mirror,,,,,,0,5,5,24,1,3,1,,,,,,,,,,,,,,,,,,,,,,,,,,,,,,,,,,,,,,,,,,,,,,,,,,,,,,,,,,,,,,,,,,,,,,,,,,,,,,,,,,,,,,,,,,,,,,,,,,,
,,,,,,,,,,stimuli/images/PICTURE_85.png,NATION,5d76cf7be0fc510001e0a3e4,12/08/1955,2020-09-10_05h54.38.199,proactive2,2020.1.2,Win32,60,5f5126bb654d4b30ee6923d8,5f59aff93dcae7213fe87d38,3,,,,,,diamond,,,,,,0,6,6,5,1,1,1,,,,,,,,,,,,,,,,,,,,,,,,,,,,,,,,,,,,,,,,,,,,,,,,,,,,,,,,,,,,,,,,,,,,,,,,,,,,,,,,,,,,,,,,,,,,,,,,,,,
,,,,,,,,,,stimuli/images/PICTURE_380.png,CANDY,5d76cf7be0fc510001e0a3e4,12/08/1955,2020-09-10_05h54.38.199,proactive2,2020.1.2,Win32,60,5f5126bb654d4b30ee6923d8,5f59aff93dcae7213fe87d38,3,,,,,,gorilla,,,,,,0,7,7,0,1,1,1,,,,,,,,,,,,,,,,,,,,,,,,,,,,,,,,,,,,,,,,,,,,,,,,,,,,,,,,,,,,,,,,,,,,,,,,,,,,,,,,,,,,,,,,,,,,,,,,,,,
,,,,,,,,,,stimuli/images/PICTURE_327.png,CASINO,5d76cf7be0fc510001e0a3e4,12/08/1955,2020-09-10_05h54.38.199,proactive2,2020.1.2,Win32,60,5f5126bb654d4b30ee6923d8,5f59aff93dcae7213fe87d38,3,,,,,,helmet,,,,,,0,8,8,20,1,3,1,,,,,,,,,,,,,,,,,,,,,,,,,,,,,,,,,,,,,,,,,,,,,,,,,,,,,,,,,,,,,,,,,,,,,,,,,,,,,,,,,,,,,,,,,,,,,,,,,,,
,,,,,,,,,,stimuli/images/PICTURE_95.png,MILLER,5d76cf7be0fc510001e0a3e4,12/08/1955,2020-09-10_05h54.38.199,proactive2,2020.1.2,Win32,60,5f5126bb654d4b30ee6923d8,5f59aff93dcae7213fe87d38,3,,,,,,suitcase,,,,,,0,9,9,56,1,6,1,,,,,,,,,,,,,,,,,,,,,,,,,,,,,,,,,,,,,,,,,,,,,,,,,,,,,,,,,,,,,,,,,,,,,,,,,,,,,,,,,,,,,,,,,,,,,,,,,,,
,,,,,,,,,,stimuli/images/PICTURE_177.png,WRITER,5d76cf7be0fc510001e0a3e4,12/08/1955,2020-09-10_05h54.38.199,proactive2,2020.1.2,Win32,60,5f5126bb654d4b30ee6923d8,5f59aff93dcae7213fe87d38,3,,,,,,mushroom,,,,,,0,10,10,41,1,5,1,,,,,,,,,,,,,,,,,,,,,,,,,,,,,,,,,,,,,,,,,,,,,,,,,,,,,,,,,,,,,,,,,,,,,,,,,,,,,,,,,,,,,,,,,,,,,,,,,,,
,,,,,,,,,,stimuli/images/PICTURE_654.png,MONTH,5d76cf7be0fc510001e0a3e4,12/08/1955,2020-09-10_05h54.38.199,proactive2,2020.1.2,Win32,60,5f5126bb654d4b30ee6923d8,5f59aff93dcae7213fe87d38,3,,,,,,pencil,,,,,,0,11,11,29,1,3,1,,,,,,,,,,,,,,,,,,,,,,,,,,,,,,,,,,,,,,,,,,,,,,,,,,,,,,,,,,,,,,,,,,,,,,,,,,,,,,,,,,,,,,,,,,,,,,,,,,,
,,,,,,,,,,stimuli/images/PICTURE_296.png,LIFE,5d76cf7be0fc510001e0a3e4,12/08/1955,2020-09-10_05h54.38.199,proactive2,2020.1.2,Win32,60,5f5126bb654d4b30ee6923d8,5f59aff93dcae7213fe87d38,3,,,,,,bolt,,,,,,0,12,12,57,1,6,1,,,,,,,,,,,,,,,,,,,,,,,,,,,,,,,,,,,,,,,,,,,,,,,,,,,,,,,,,,,,,,,,,,,,,,,,,,,,,,,,,,,,,,,,,,,,,,,,,,,
,,,,,,,,,,stimuli/images/PICTURE_2.png,FLIGHT,5d76cf7be0fc510001e0a3e4,12/08/1955,2020-09-10_05h54.38.199,proactive2,2020.1.2,Win32,60,5f5126bb654d4b30ee6923d8,5f59aff93dcae7213fe87d38,3,,,,,,tyre,,,,,,0,13,13,15,1,2,1,,,,,,,,,,,,,,,,,,,,,,,,,,,,,,,,,,,,,,,,,,,,,,,,,,,,,,,,,,,,,,,,,,,,,,,,,,,,,,,,,,,,,,,,,,,,,,,,,,,
,,,,,,,,,,stimuli/images/PICTURE_33.png,FRIEND,5d76cf7be0fc510001e0a3e4,12/08/1955,2020-09-10_05h54.38.199,proactive2,2020.1.2,Win32,60,5f5126bb654d4b30ee6923d8,5f59aff93dcae7213fe87d38,3,,,,,,frame,,,,,,0,14,14,8,1,1,1,,,,,,,,,,,,,,,,,,,,,,,,,,,,,,,,,,,,,,,,,,,,,,,,,,,,,,,,,,,,,,,,,,,,,,,,,,,,,,,,,,,,,,,,,,,,,,,,,,,
,,,,,,,,,,stimuli/images/PICTURE_564.png,BATH,5d76cf7be0fc510001e0a3e4,12/08/1955,2020-09-10_05h54.38.199,proactive2,2020.1.2,Win32,60,5f5126bb654d4b30ee6923d8,5f59aff93dcae7213fe87d38,3,,,,,,spoon,,,,,,0,15,15,26,1,3,1,,,,,,,,,,,,,,,,,,,,,,,,,,,,,,,,,,,,,,,,,,,,,,,,,,,,,,,,,,,,,,,,,,,,,,,,,,,,,,,,,,,,,,,,,,,,,,,,,,,
,,,,,,,,,,stimuli/images/PICTURE_655.png,TOILET,5d76cf7be0fc510001e0a3e4,12/08/1955,2020-09-10_05h54.38.199,proactive2,2020.1.2,Win32,60,5f5126bb654d4b30ee6923d8,5f59aff93dcae7213fe87d38,3,,,,,,megaphone,,,,,,0,16,16,12,1,2,1,,,,,,,,,,,,,,,,,,,,,,,,,,,,,,,,,,,,,,,,,,,,,,,,,,,,,,,,,,,,,,,,,,,,,,,,,,,,,,,,,,,,,,,,,,,,,,,,,,,
,,,,,,,,,,stimuli/images/PICTURE_469.png,AGENT,5d76cf7be0fc510001e0a3e4,12/08/1955,2020-09-10_05h54.38.199,proactive2,2020.1.2,Win32,60,5f5126bb654d4b30ee6923d8,5f59aff93dcae7213fe87d38,3,,,,,,stool,,,,,,0,17,17,16,1,2,1,,,,,,,,,,,,,,,,,,,,,,,,,,,,,,,,,,,,,,,,,,,,,,,,,,,,,,,,,,,,,,,,,,,,,,,,,,,,,,,,,,,,,,,,,,,,,,,,,,,
,,,,,,,,,,stimuli/images/PICTURE_383.png,WRITER,5d76cf7be0fc510001e0a3e4,12/08/1955,2020-09-10_05h54.38.199,proactive2,2020.1.2,Win32,60,5f5126bb654d4b30ee6923d8,5f59aff93dcae7213fe87d38,3,,,,,,coin,,,,,,0,18,18,28,1,3,1,,,,,,,,,,,,,,,,,,,,,,,,,,,,,,,,,,,,,,,,,,,,,,,,,,,,,,,,,,,,,,,,,,,,,,,,,,,,,,,,,,,,,,,,,,,,,,,,,,,
,,,,,,,,,,stimuli/images/PICTURE_685.png,PENNY,5d76cf7be0fc510001e0a3e4,12/08/1955,2020-09-10_05h54.38.199,proactive2,2020.1.2,Win32,60,5f5126bb654d4b30ee6923d8,5f59aff93dcae7213fe87d38,3,,,,,,goose,,,,,,0,19,19,4,1,1,1,,,,,,,,,,,,,,,,,,,,,,,,,,,,,,,,,,,,,,,,,,,,,,,,,,,,,,,,,,,,,,,,,,,,,,,,,,,,,,,,,,,,,,,,,,,,,,,,,,,
,,,,,,,,,,stimuli/images/PICTURE_449.png,DUDE,5d76cf7be0fc510001e0a3e4,12/08/1955,2020-09-10_05h54.38.199,proactive2,2020.1.2,Win32,60,5f5126bb654d4b30ee6923d8,5f59aff93dcae7213fe87d38,3,,,,,,bench,,,,,,0,20,20,17,1,2,1,,,,,,,,,,,,,,,,,,,,,,,,,,,,,,,,,,,,,,,,,,,,,,,,,,,,,,,,,,,,,,,,,,,,,,,,,,,,,,,,,,,,,,,,,,,,,,,,,,,
,,,,,,,,,,stimuli/images/PICTURE_675.png,SALE,5d76cf7be0fc510001e0a3e4,12/08/1955,2020-09-10_05h54.38.199,proactive2,2020.1.2,Win32,60,5f5126bb654d4b30ee6923d8,5f59aff93dcae7213fe87d38,3,,,,,,windmill,,,,,,0,21,21,47,1,5,1,,,,,,,,,,,,,,,,,,,,,,,,,,,,,,,,,,,,,,,,,,,,,,,,,,,,,,,,,,,,,,,,,,,,,,,,,,,,,,,,,,,,,,,,,,,,,,,,,,,
,,,,,,,,,,stimuli/images/PICTURE_208.png,SYSTEM,5d76cf7be0fc510001e0a3e4,12/08/1955,2020-09-10_05h54.38.199,proactive2,2020.1.2,Win32,60,5f5126bb654d4b30ee6923d8,5f59aff93dcae7213fe87d38,3,,,,,,microphone,,,,,,0,22,22,32,1,4,1,,,,,,,,,,,,,,,,,,,,,,,,,,,,,,,,,,,,,,,,,,,,,,,,,,,,,,,,,,,,,,,,,,,,,,,,,,,,,,,,,,,,,,,,,,,,,,,,,,,
,,,,,,,,,,stimuli/images/PICTURE_403.png,RIVER,5d76cf7be0fc510001e0a3e4,12/08/1955,2020-09-10_05h54.38.199,proactive2,2020.1.2,Win32,60,5f5126bb654d4b30ee6923d8,5f59aff93dcae7213fe87d38,3,,,,,,cathedral,,,,,,0,23,23,40,1,5,1,,,,,,,,,,,,,,,,,,,,,,,,,,,,,,,,,,,,,,,,,,,,,,,,,,,,,,,,,,,,,,,,,,,,,,,,,,,,,,,,,,,,,,,,,,,,,,,,,,,
,,,,,,,,,,stimuli/images/PICTURE_339.png,CLIENT,5d76cf7be0fc510001e0a3e4,12/08/1955,2020-09-10_05h54.38.199,proactive2,2020.1.2,Win32,60,5f5126bb654d4b30ee6923d8,5f59aff93dcae7213fe87d38,3,,,,,,backpack,,,,,,0,24,24,11,1,2,1,,,,,,,,,,,,,,,,,,,,,,,,,,,,,,,,,,,,,,,,,,,,,,,,,,,,,,,,,,,,,,,,,,,,,,,,,,,,,,,,,,,,,,,,,,,,,,,,,,,
,,,,,,,,,,stimuli/images/PICTURE_504.png,COPS,5d76cf7be0fc510001e0a3e4,12/08/1955,2020-09-10_05h54.38.199,proactive2,2020.1.2,Win32,60,5f5126bb654d4b30ee6923d8,5f59aff93dcae7213fe87d38,3,,,,,,wheel,,,,,,0,25,25,52,1,6,1,,,,,,,,,,,,,,,,,,,,,,,,,,,,,,,,,,,,,,,,,,,,,,,,,,,,,,,,,,,,,,,,,,,,,,,,,,,,,,,,,,,,,,,,,,,,,,,,,,,
,,,,,,,,,,stimuli/images/PICTURE_95.png,BOYS,5d76cf7be0fc510001e0a3e4,12/08/1955,2020-09-10_05h54.38.199,proactive2,2020.1.2,Win32,60,5f5126bb654d4b30ee6923d8,5f59aff93dcae7213fe87d38,3,,,,,,suitcase,,,,,,0,26,26,1,1,1,1,,,,,,,,,,,,,,,,,,,,,,,,,,,,,,,,,,,,,,,,,,,,,,,,,,,,,,,,,,,,,,,,,,,,,,,,,,,,,,,,,,,,,,,,,,,,,,,,,,,
,,,,,,,,,,stimuli/images/PICTURE_750.png,HOTEL,5d76cf7be0fc510001e0a3e4,12/08/1955,2020-09-10_05h54.38.199,proactive2,2020.1.2,Win32,60,5f5126bb654d4b30ee6923d8,5f59aff93dcae7213fe87d38,3,,,,,,kettle,,,,,,0,27,27,27,1,3,1,,,,,,,,,,,,,,,,,,,,,,,,,,,,,,,,,,,,,,,,,,,,,,,,,,,,,,,,,,,,,,,,,,,,,,,,,,,,,,,,,,,,,,,,,,,,,,,,,,,
,,,,,,,,,,stimuli/images/PICTURE_57.png,MOMENT,5d76cf7be0fc510001e0a3e4,12/08/1955,2020-09-10_05h54.38.199,proactive2,2020.1.2,Win32,60,5f5126bb654d4b30ee6923d8,5f59aff93dcae7213fe87d38,3,,,,,,stamp,,,,,,0,28,28,37,1,4,1,,,,,,,,,,,,,,,,,,,,,,,,,,,,,,,,,,,,,,,,,,,,,,,,,,,,,,,,,,,,,,,,,,,,,,,,,,,,,,,,,,,,,,,,,,,,,,,,,,,
,,,,,,,,,,stimuli/images/PICTURE_340.png,VALLEY,5d76cf7be0fc510001e0a3e4,12/08/1955,2020-09-10_05h54.38.199,proactive2,2020.1.2,Win32,60,5f5126bb654d4b30ee6923d8,5f59aff93dcae7213fe87d38,3,,,,,,mirror,,,,,,0,29,29,54,1,6,1,,,,,,,,,,,,,,,,,,,,,,,,,,,,,,,,,,,,,,,,,,,,,,,,,,,,,,,,,,,,,,,,,,,,,,,,,,,,,,,,,,,,,,,,,,,,,,,,,,,
,,,,,,,,,,stimuli/images/PICTURE_203.png,NIGHT,5d76cf7be0fc510001e0a3e4,12/08/1955,2020-09-10_05h54.38.199,proactive2,2020.1.2,Win32,60,5f5126bb654d4b30ee6923d8,5f59aff93dcae7213fe87d38,3,,,,,,cap,,,,,,0,30,30,2,1,1,1,,,,,,,,,,,,,,,,,,,,,,,,,,,,,,,,,,,,,,,,,,,,,,,,,,,,,,,,,,,,,,,,,,,,,,,,,,,,,,,,,,,,,,,,,,,,,,,,,,,
,,,,,,,,,,stimuli/images/PICTURE_95.png,HONEY,5d76cf7be0fc510001e0a3e4,12/08/1955,2020-09-10_05h54.38.199,proactive2,2020.1.2,Win32,60,5f5126bb654d4b30ee6923d8,5f59aff93dcae7213fe87d38,3,,,,,,suitcase,,,,,,0,31,31,44,1,5,1,,,,,,,,,,,,,,,,,,,,,,,,,,,,,,,,,,,,,,,,,,,,,,,,,,,,,,,,,,,,,,,,,,,,,,,,,,,,,,,,,,,,,,,,,,,,,,,,,,,
,,,,,,,,,,stimuli/images/PICTURE_667.png,RIVER,5d76cf7be0fc510001e0a3e4,12/08/1955,2020-09-10_05h54.38.199,proactive2,2020.1.2,Win32,60,5f5126bb654d4b30ee6923d8,5f59aff93dcae7213fe87d38,3,,,,,,daisy,,,,,,0,32,32,10,1,2,1,,,,,,,,,,,,,,,,,,,,,,,,,,,,,,,,,,,,,,,,,,,,,,,,,,,,,,,,,,,,,,,,,,,,,,,,,,,,,,,,,,,,,,,,,,,,,,,,,,,
,,,,,,,,,,stimuli/images/PICTURE_405.png,YEAR,5d76cf7be0fc510001e0a3e4,12/08/1955,2020-09-10_05h54.38.199,proactive2,2020.1.2,Win32,60,5f5126bb654d4b30ee6923d8,5f59aff93dcae7213fe87d38,3,,,,,,anchor,,,,,,0,33,33,34,1,4,1,,,,,,,,,,,,,,,,,,,,,,,,,,,,,,,,,,,,,,,,,,,,,,,,,,,,,,,,,,,,,,,,,,,,,,,,,,,,,,,,,,,,,,,,,,,,,,,,,,,
,,,,,,,,,,stimuli/images/PICTURE_203.png,GODS,5d76cf7be0fc510001e0a3e4,12/08/1955,2020-09-10_05h54.38.199,proactive2,2020.1.2,Win32,60,5f5126bb654d4b30ee6923d8,5f59aff93dcae7213fe87d38,3,,,,,,cap,,,,,,0,34,34,30,1,4,1,,,,,,,,,,,,,,,,,,,,,,,,,,,,,,,,,,,,,,,,,,,,,,,,,,,,,,,,,,,,,,,,,,,,,,,,,,,,,,,,,,,,,,,,,,,,,,,,,,,
,,,,,,,,,,stimuli/images/PICTURE_467.png,POLICY,5d76cf7be0fc510001e0a3e4,12/08/1955,2020-09-10_05h54.38.199,proactive2,2020.1.2,Win32,60,5f5126bb654d4b30ee6923d8,5f59aff93dcae7213fe87d38,3,,,,,,peg,,,,,,0,35,35,53,1,6,1,,,,,,,,,,,,,,,,,,,,,,,,,,,,,,,,,,,,,,,,,,,,,,,,,,,,,,,,,,,,,,,,,,,,,,,,,,,,,,,,,,,,,,,,,,,,,,,,,,,
,,,,,,,,,,stimuli/images/PICTURE_487.png,GIRL,5d76cf7be0fc510001e0a3e4,12/08/1955,2020-09-10_05h54.38.199,proactive2,2020.1.2,Win32,60,5f5126bb654d4b30ee6923d8,5f59aff93dcae7213fe87d38,3,,,,,,basket,,,,,,0,36,36,45,1,5,1,,,,,,,,,,,,,,,,,,,,,,,,,,,,,,,,,,,,,,,,,,,,,,,,,,,,,,,,,,,,,,,,,,,,,,,,,,,,,,,,,,,,,,,,,,,,,,,,,,,
,,,,,,,,,,stimuli/images/PICTURE_380.png,HONEY,5d76cf7be0fc510001e0a3e4,12/08/1955,2020-09-10_05h54.38.199,proactive2,2020.1.2,Win32,60,5f5126bb654d4b30ee6923d8,5f59aff93dcae7213fe87d38,3,,,,,,gorilla,,,,,,0,37,37,19,1,2,1,,,,,,,,,,,,,,,,,,,,,,,,,,,,,,,,,,,,,,,,,,,,,,,,,,,,,,,,,,,,,,,,,,,,,,,,,,,,,,,,,,,,,,,,,,,,,,,,,,,
,,,,,,,,,,stimuli/images/PICTURE_383.png,SERIES,5d76cf7be0fc510001e0a3e4,12/08/1955,2020-09-10_05h54.38.199,proactive2,2020.1.2,Win32,60,5f5126bb654d4b30ee6923d8,5f59aff93dcae7213fe87d38,3,,,,,,coin,,,,,,0,38,38,46,1,5,1,,,,,,,,,,,,,,,,,,,,,,,,,,,,,,,,,,,,,,,,,,,,,,,,,,,,,,,,,,,,,,,,,,,,,,,,,,,,,,,,,,,,,,,,,,,,,,,,,,,
,,,,,,,,,,stimuli/images/PICTURE_744.png,WEAPON,5d76cf7be0fc510001e0a3e4,12/08/1955,2020-09-10_05h54.38.199,proactive2,2020.1.2,Win32,60,5f5126bb654d4b30ee6923d8,5f59aff93dcae7213fe87d38,3,,,,,,ring,,,,,,0,39,39,50,1,6,1,,,,,,,,,,,,,,,,,,,,,,,,,,,,,,,,,,,,,,,,,,,,,,,,,,,,,,,,,,,,,,,,,,,,,,,,,,,,,,,,,,,,,,,,,,,,,,,,,,,
,,,,,,,,,,stimuli/images/PICTURE_327.png,SERIES,5d76cf7be0fc510001e0a3e4,12/08/1955,2020-09-10_05h54.38.199,proactive2,2020.1.2,Win32,60,5f5126bb654d4b30ee6923d8,5f59aff93dcae7213fe87d38,3,,,,,,helmet,,,,,,0,40,40,3,1,1,1,,,,,,,,,,,,,,,,,,,,,,,,,,,,,,,,,,,,,,,,,,,,,,,,,,,,,,,,,,,,,,,,,,,,,,,,,,,,,,,,,,,,,,,,,,,,,,,,,,,
,,,,,,,,,,stimuli/images/PICTURE_677.png,APPLE,5d76cf7be0fc510001e0a3e4,12/08/1955,2020-09-10_05h54.38.199,proactive2,2020.1.2,Win32,60,5f5126bb654d4b30ee6923d8,5f59aff93dcae7213fe87d38,3,,,,,,map,,,,,,0,41,41,43,1,5,1,,,,,,,,,,,,,,,,,,,,,,,,,,,,,,,,,,,,,,,,,,,,,,,,,,,,,,,,,,,,,,,,,,,,,,,,,,,,,,,,,,,,,,,,,,,,,,,,,,,
,,,,,,,,,,stimuli/images/PICTURE_32.png,KIND,5d76cf7be0fc510001e0a3e4,12/08/1955,2020-09-10_05h54.38.199,proactive2,2020.1.2,Win32,60,5f5126bb654d4b30ee6923d8,5f59aff93dcae7213fe87d38,3,,,,,,crown,,,,,,0,42,42,35,1,4,1,,,,,,,,,,,,,,,,,,,,,,,,,,,,,,,,,,,,,,,,,,,,,,,,,,,,,,,,,,,,,,,,,,,,,,,,,,,,,,,,,,,,,,,,,,,,,,,,,,,
,,,,,,,,,,stimuli/images/PICTURE_504.png,ARTIST,5d76cf7be0fc510001e0a3e4,12/08/1955,2020-09-10_05h54.38.199,proactive2,2020.1.2,Win32,60,5f5126bb654d4b30ee6923d8,5f59aff93dcae7213fe87d38,3,,,,,,wheel,,,,,,0,43,43,49,1,5,1,,,,,,,,,,,,,,,,,,,,,,,,,,,,,,,,,,,,,,,,,,,,,,,,,,,,,,,,,,,,,,,,,,,,,,,,,,,,,,,,,,,,,,,,,,,,,,,,,,,
,,,,,,,,,,stimuli/images/PICTURE_108.png,FLIGHT,5d76cf7be0fc510001e0a3e4,12/08/1955,2020-09-10_05h54.38.199,proactive2,2020.1.2,Win32,60,5f5126bb654d4b30ee6923d8,5f59aff93dcae7213fe87d38,3,,,,,,calendar,,,,,,0,44,44,59,1,6,1,,,,,,,,,,,,,,,,,,,,,,,,,,,,,,,,,,,,,,,,,,,,,,,,,,,,,,,,,,,,,,,,,,,,,,,,,,,,,,,,,,,,,,,,,,,,,,,,,,,
,,,,,,,,,,stimuli/images/PICTURE_308.png,FAMILY,5d76cf7be0fc510001e0a3e4,12/08/1955,2020-09-10_05h54.38.199,proactive2,2020.1.2,Win32,60,5f5126bb654d4b30ee6923d8,5f59aff93dcae7213fe87d38,3,,,,,,dice,,,,,,0,45,45,36,1,4,1,,,,,,,,,,,,,,,,,,,,,,,,,,,,,,,,,,,,,,,,,,,,,,,,,,,,,,,,,,,,,,,,,,,,,,,,,,,,,,,,,,,,,,,,,,,,,,,,,,,
,,,,,,,,,,stimuli/images/PICTURE_147.png,YEAR,5d76cf7be0fc510001e0a3e4,12/08/1955,2020-09-10_05h54.38.199,proactive2,2020.1.2,Win32,60,5f5126bb654d4b30ee6923d8,5f59aff93dcae7213fe87d38,3,,,,,,hanger,,,,,,0,46,46,21,1,3,1,,,,,,,,,,,,,,,,,,,,,,,,,,,,,,,,,,,,,,,,,,,,,,,,,,,,,,,,,,,,,,,,,,,,,,,,,,,,,,,,,,,,,,,,,,,,,,,,,,,
,,,,,,,,,,stimuli/images/PICTURE_147.png,WOMEN,5d76cf7be0fc510001e0a3e4,12/08/1955,2020-09-10_05h54.38.199,proactive2,2020.1.2,Win32,60,5f5126bb654d4b30ee6923d8,5f59aff93dcae7213fe87d38,3,,,,,,hanger,,,,,,0,47,47,7,1,1,1,,,,,,,,,,,,,,,,,,,,,,,,,,,,,,,,,,,,,,,,,,,,,,,,,,,,,,,,,,,,,,,,,,,,,,,,,,,,,,,,,,,,,,,,,,,,,,,,,,,
,,,,,,,,,,stimuli/images/PICTURE_405.png,PLENTY,5d76cf7be0fc510001e0a3e4,12/08/1955,2020-09-10_05h54.38.199,proactive2,2020.1.2,Win32,60,5f5126bb654d4b30ee6923d8,5f59aff93dcae7213fe87d38,3,,,,,,anchor,,,,,,0,48,48,23,1,3,1,,,,,,,,,,,,,,,,,,,,,,,,,,,,,,,,,,,,,,,,,,,,,,,,,,,,,,,,,,,,,,,,,,,,,,,,,,,,,,,,,,,,,,,,,,,,,,,,,,,
,,,,,,,,,,stimuli/images/PICTURE_68.png,MILE,5d76cf7be0fc510001e0a3e4,12/08/1955,2020-09-10_05h54.38.199,proactive2,2020.1.2,Win32,60,5f5126bb654d4b30ee6923d8,5f59aff93dcae7213fe87d38,3,,,,,,candle,,,,,,0,49,49,51,1,6,1,,,,,,,,,,,,,,,,,,,,,,,,,,,,,,,,,,,,,,,,,,,,,,,,,,,,,,,,,,,,,,,,,,,,,,,,,,,,,,,,,,,,,,,,,,,,,,,,,,,
,,,,,,,,,,stimuli/images/PICTURE_32.png,PILLS,5d76cf7be0fc510001e0a3e4,12/08/1955,2020-09-10_05h54.38.199,proactive2,2020.1.2,Win32,60,5f5126bb654d4b30ee6923d8,5f59aff93dcae7213fe87d38,3,,,,,,crown,,,,,,0,50,50,18,1,2,1,,,,,,,,,,,,,,,,,,,,,,,,,,,,,,,,,,,,,,,,,,,,,,,,,,,,,,,,,,,,,,,,,,,,,,,,,,,,,,,,,,,,,,,,,,,,,,,,,,,
,,,,,,,,,,stimuli/images/PICTURE_285.png,LIFE,5d76cf7be0fc510001e0a3e4,12/08/1955,2020-09-10_05h54.38.199,proactive2,2020.1.2,Win32,60,5f5126bb654d4b30ee6923d8,5f59aff93dcae7213fe87d38,3,,,,,,carrot,,,,,,0,51,51,33,1,4,1,,,,,,,,,,,,,,,,,,,,,,,,,,,,,,,,,,,,,,,,,,,,,,,,,,,,,,,,,,,,,,,,,,,,,,,,,,,,,,,,,,,,,,,,,,,,,,,,,,,
,,,,,,,,,,stimuli/images/PICTURE_403.png,WRITER,5d76cf7be0fc510001e0a3e4,12/08/1955,2020-09-10_05h54.38.199,proactive2,2020.1.2,Win32,60,5f5126bb654d4b30ee6923d8,5f59aff93dcae7213fe87d38,3,,,,,,cathedral,,,,,,0,52,52,31,1,4,1,,,,,,,,,,,,,,,,,,,,,,,,,,,,,,,,,,,,,,,,,,,,,,,,,,,,,,,,,,,,,,,,,,,,,,,,,,,,,,,,,,,,,,,,,,,,,,,,,,,
,,,,,,,,,,stimuli/images/PICTURE_504.png,YEAR,5d76cf7be0fc510001e0a3e4,12/08/1955,2020-09-10_05h54.38.199,proactive2,2020.1.2,Win32,60,5f5126bb654d4b30ee6923d8,5f59aff93dcae7213fe87d38,3,,,,,,wheel,,,,,,0,53,53,13,1,2,1,,,,,,,,,,,,,,,,,,,,,,,,,,,,,,,,,,,,,,,,,,,,,,,,,,,,,,,,,,,,,,,,,,,,,,,,,,,,,,,,,,,,,,,,,,,,,,,,,,,
,,,,,,,,,,stimuli/images/PICTURE_491.png,RIVER,5d76cf7be0fc510001e0a3e4,12/08/1955,2020-09-10_05h54.38.199,proactive2,2020.1.2,Win32,60,5f5126bb654d4b30ee6923d8,5f59aff93dcae7213fe87d38,3,,,,,,rug,,,,,,0,54,54,6,1,1,1,,,,,,,,,,,,,,,,,,,,,,,,,,,,,,,,,,,,,,,,,,,,,,,,,,,,,,,,,,,,,,,,,,,,,,,,,,,,,,,,,,,,,,,,,,,,,,,,,,,
,,,,,,,,,,stimuli/images/PICTURE_491.png,GLASS,5d76cf7be0fc510001e0a3e4,12/08/1955,2020-09-10_05h54.38.199,proactive2,2020.1.2,Win32,60,5f5126bb654d4b30ee6923d8,5f59aff93dcae7213fe87d38,3,,,,,,rug,,,,,,0,55,55,14,1,2,1,,,,,,,,,,,,,,,,,,,,,,,,,,,,,,,,,,,,,,,,,,,,,,,,,,,,,,,,,,,,,,,,,,,,,,,,,,,,,,,,,,,,,,,,,,,,,,,,,,,
,,,,,,,,,,stimuli/images/PICTURE_68.png,ROOF,5d76cf7be0fc510001e0a3e4,12/08/1955,2020-09-10_05h54.38.199,proactive2,2020.1.2,Win32,60,5f5126bb654d4b30ee6923d8,5f59aff93dcae7213fe87d38,3,,,,,,candle,,,,,,0,56,56,38,1,4,1,,,,,,,,,,,,,,,,,,,,,,,,,,,,,,,,,,,,,,,,,,,,,,,,,,,,,,,,,,,,,,,,,,,,,,,,,,,,,,,,,,,,,,,,,,,,,,,,,,,
,,,,,,,,,,stimuli/images/PICTURE_108.png,POLICY,5d76cf7be0fc510001e0a3e4,12/08/1955,2020-09-10_05h54.38.199,proactive2,2020.1.2,Win32,60,5f5126bb654d4b30ee6923d8,5f59aff93dcae7213fe87d38,3,,,,,,calendar,,,,,,0,57,57,22,1,3,1,,,,,,,,,,,,,,,,,,,,,,,,,,,,,,,,,,,,,,,,,,,,,,,,,,,,,,,,,,,,,,,,,,,,,,,,,,,,,,,,,,,,,,,,,,,,,,,,,,,
,,,,,,,,,,stimuli/images/PICTURE_233.png,LOTS,5d76cf7be0fc510001e0a3e4,12/08/1955,2020-09-10_05h54.38.199,proactive2,2020.1.2,Win32,60,5f5126bb654d4b30ee6923d8,5f59aff93dcae7213fe87d38,3,,,,,,salt,,,,,,0,58,58,42,1,5,1,,,,,,,,,,,,,,,,,,,,,,,,,,,,,,,,,,,,,,,,,,,,,,,,,,,,,,,,,,,,,,,,,,,,,,,,,,,,,,,,,,,,,,,,,,,,,,,,,,,
,,?,0.00141,0,,,,,,stimuli/images/PICTURE_685.png,PENNY,5d76cf7be0fc510001e0a3e4,12/08/1955,2020-09-10_05h54.38.199,proactive2,2020.1.2,Win32,60,5f5126bb654d4b30ee6923d8,5f59aff93dcae7213fe87d38,3,,,,,,goose,,,,,,,,,,,1,1,0,0,0,4,1,,,,,,,,,,,,,,,,,,,,,,,,,,,,,,,,,,,,,,,,,,,,,,,,,,,,,,,,,,,,,,,,,,,,,,,,,,,,,,,,,,,,,,,,,,,,,,
,,?,1.459605,0,,,,,,stimuli/images/PICTURE_147.png,YEAR,5d76cf7be0fc510001e0a3e4,12/08/1955,2020-09-10_05h54.38.199,proactive2,2020.1.2,Win32,60,5f5126bb654d4b30ee6923d8,5f59aff93dcae7213fe87d38,3,,,,,,hanger,,,,,,,,,,,3,1,0,1,1,21,1,,,,,,,,,,,,,,,,,,,,,,,,,,,,,,,,,,,,,,,,,,,,,,,,,,,,,,,,,,,,,,,,,,,,,,,,,,,,,,,,,,,,,,,,,,,,,,
,,?,0.00137,0,,,,,,stimuli/images/PICTURE_383.png,SERIES,5d76cf7be0fc510001e0a3e4,12/08/1955,2020-09-10_05h54.38.199,proactive2,2020.1.2,Win32,60,5f5126bb654d4b30ee6923d8,5f59aff93dcae7213fe87d38,3,,,,,,coin,,,,,,,,,,,5,1,0,2,2,46,1,,,,,,,,,,,,,,,,,,,,,,,,,,,,,,,,,,,,,,,,,,,,,,,,,,,,,,,,,,,,,,,,,,,,,,,,,,,,,,,,,,,,,,,,,,,,,,
,,?,2.943275,0,,,,,,stimuli/images/PICTURE_654.png,MONTH,5d76cf7be0fc510001e0a3e4,12/08/1955,2020-09-10_05h54.38.199,proactive2,2020.1.2,Win32,60,5f5126bb654d4b30ee6923d8,5f59aff93dcae7213fe87d38,3,,,,,,pencil,,,,,,,,,,,3,1,0,3,3,29,1,,,,,,,,,,,,,,,,,,,,,,,,,,,,,,,,,,,,,,,,,,,,,,,,,,,,,,,,,,,,,,,,,,,,,,,,,,,,,,,,,,,,,,,,,,,,,,
,,?,0.001515,0,,,,,,stimuli/images/PICTURE_744.png,WEAPON,5d76cf7be0fc510001e0a3e4,12/08/1955,2020-09-10_05h54.38.199,proactive2,2020.1.2,Win32,60,5f5126bb654d4b30ee6923d8,5f59aff93dcae7213fe87d38,3,,,,,,ring,,,,,,,,,,,6,1,0,4,4,50,1,,,,,,,,,,,,,,,,,,,,,,,,,,,,,,,,,,,,,,,,,,,,,,,,,,,,,,,,,,,,,,,,,,,,,,,,,,,,,,,,,,,,,,,,,,,,,,
,,?,0.00126,0,,,,,,stimuli/images/PICTURE_491.png,GLASS,5d76cf7be0fc510001e0a3e4,12/08/1955,2020-09-10_05h54.38.199,proactive2,2020.1.2,Win32,60,5f5126bb654d4b30ee6923d8,5f59aff93dcae7213fe87d38,3,,,,,,rug,,,,,,,,,,,2,1,0,5,5,14,1,,,,,,,,,,,,,,,,,,,,,,,,,,,,,,,,,,,,,,,,,,,,,,,,,,,,,,,,,,,,,,,,,,,,,,,,,,,,,,,,,,,,,,,,,,,,,,
,,?,0.00115,0,,,,,,stimuli/images/PICTURE_57.png,MOMENT,5d76cf7be0fc510001e0a3e4,12/08/1955,2020-09-10_05h54.38.199,proactive2,2020.1.2,Win32,60,5f5126bb654d4b30ee6923d8,5f59aff93dcae7213fe87d38,3,,,,,,stamp,,,,,,,,,,,4,1,0,6,6,37,1,,,,,,,,,,,,,,,,,,,,,,,,,,,,,,,,,,,,,,,,,,,,,,,,,,,,,,,,,,,,,,,,,,,,,,,,,,,,,,,,,,,,,,,,,,,,,,
,,?,0.001245,0,,,,,,stimuli/images/PICTURE_285.png,LIFE,5d76cf7be0fc510001e0a3e4,12/08/1955,2020-09-10_05h54.38.199,proactive2,2020.1.2,Win32,60,5f5126bb654d4b30ee6923d8,5f59aff93dcae7213fe87d38,3,,,,,,carrot,,,,,,,,,,,4,1,0,7,7,33,1,,,,,,,,,,,,,,,,,,,,,,,,,,,,,,,,,,,,,,,,,,,,,,,,,,,,,,,,,,,,,,,,,,,,,,,,,,,,,,,,,,,,,,,,,,,,,,
,,?,0.00098,0,,,,,,stimuli/images/PICTURE_655.png,TOILET,5d76cf7be0fc510001e0a3e4,12/08/1955,2020-09-10_05h54.38.199,proactive2,2020.1.2,Win32,60,5f5126bb654d4b30ee6923d8,5f59aff93dcae7213fe87d38,3,,,,,,megaphone,,,,,,,,,,,2,1,0,8,8,12,1,,,,,,,,,,,,,,,,,,,,,,,,,,,,,,,,,,,,,,,,,,,,,,,,,,,,,,,,,,,,,,,,,,,,,,,,,,,,,,,,,,,,,,,,,,,,,,
,,?,0.001145,0,,,,,,stimuli/images/PICTURE_297.png,RIVER,5d76cf7be0fc510001e0a3e4,12/08/1955,2020-09-10_05h54.38.199,proactive2,2020.1.2,Win32,60,5f5126bb654d4b30ee6923d8,5f59aff93dcae7213fe87d38,3,,,,,,aeroplane,,,,,,,,,,,4,1,0,9,9,39,1,,,,,,,,,,,,,,,,,,,,,,,,,,,,,,,,,,,,,,,,,,,,,,,,,,,,,,,,,,,,,,,,,,,,,,,,,,,,,,,,,,,,,,,,,,,,,,
,,?,0.001195,0,,,,,,stimuli/images/PICTURE_491.png,RIVER,5d76cf7be0fc510001e0a3e4,12/08/1955,2020-09-10_05h54.38.199,proactive2,2020.1.2,Win32,60,5f5126bb654d4b30ee6923d8,5f59aff93dcae7213fe87d38,3,,,,,,rug,,,,,,,,,,,1,1,0,10,10,6,1,,,,,,,,,,,,,,,,,,,,,,,,,,,,,,,,,,,,,,,,,,,,,,,,,,,,,,,,,,,,,,,,,,,,,,,,,,,,,,,,,,,,,,,,,,,,,,
,,?,0.0011,0,,,,,,stimuli/images/PICTURE_308.png,FAMILY,5d76cf7be0fc510001e0a3e4,12/08/1955,2020-09-10_05h54.38.199,proactive2,2020.1.2,Win32,60,5f5126bb654d4b30ee6923d8,5f59aff93dcae7213fe87d38,3,,,,,,dice,,,,,,,,,,,4,1,0,11,11,36,1,,,,,,,,,,,,,,,,,,,,,,,,,,,,,,,,,,,,,,,,,,,,,,,,,,,,,,,,,,,,,,,,,,,,,,,,,,,,,,,,,,,,,,,,,,,,,,
,,?,0.00111,0,,,,,,stimuli/images/PICTURE_85.png,NATION,5d76cf7be0fc510001e0a3e4,12/08/1955,2020-09-10_05h54.38.199,proactive2,2020.1.2,Win32,60,5f5126bb654d4b30ee6923d8,5f59aff93dcae7213fe87d38,3,,,,,,diamond,,,,,,,,,,,1,1,0,12,12,5,1,,,,,,,,,,,,,,,,,,,,,,,,,,,,,,,,,,,,,,,,,,,,,,,,,,,,,,,,,,,,,,,,,,,,,,,,,,,,,,,,,,,,,,,,,,,,,,
,,?,0.001385,0,,,,,,stimuli/images/PICTURE_95.png,MILLER,5d76cf7be0fc510001e0a3e4,12/08/1955,2020-09-10_05h54.38.199,proactive2,2020.1.2,Win32,60,5f5126bb654d4b30ee6923d8,5f59aff93dcae7213fe87d38,3,,,,,,suitcase,,,,,,,,,,,6,1,0,13,13,56,1,,,,,,,,,,,,,,,,,,,,,,,,,,,,,,,,,,,,,,,,,,,,,,,,,,,,,,,,,,,,,,,,,,,,,,,,,,,,,,,,,,,,,,,,,,,,,,
,,?,0.00109,0,,,,,,stimuli/images/PICTURE_32.png,KIND,5d76cf7be0fc510001e0a3e4,12/08/1955,2020-09-10_05h54.38.199,proactive2,2020.1.2,Win32,60,5f5126bb654d4b30ee6923d8,5f59aff93dcae7213fe87d38,3,,,,,,crown,,,,,,,,,,,4,1,0,14,14,35,1,,,,,,,,,,,,,,,,,,,,,,,,,,,,,,,,,,,,,,,,,,,,,,,,,,,,,,,,,,,,,,,,,,,,,,,,,,,,,,,,,,,,,,,,,,,,,,
,,?,0.00106,0,,,,,,stimuli/images/PICTURE_504.png,ARTIST,5d76cf7be0fc510001e0a3e4,12/08/1955,2020-09-10_05h54.38.199,proactive2,2020.1.2,Win32,60,5f5126bb654d4b30ee6923d8,5f59aff93dcae7213fe87d38,3,,,,,,wheel,,,,,,,,,,,5,1,0,15,15,49,1,,,,,,,,,,,,,,,,,,,,,,,,,,,,,,,,,,,,,,,,,,,,,,,,,,,,,,,,,,,,,,,,,,,,,,,,,,,,,,,,,,,,,,,,,,,,,,
,,?,0.00119,0,,,,,,stimuli/images/PICTURE_504.png,YEAR,5d76cf7be0fc510001e0a3e4,12/08/1955,2020-09-10_05h54.38.199,proactive2,2020.1.2,Win32,60,5f5126bb654d4b30ee6923d8,5f59aff93dcae7213fe87d38,3,,,,,,wheel,,,,,,,,,,,2,1,0,16,16,13,1,,,,,,,,,,,,,,,,,,,,,,,,,,,,,,,,,,,,,,,,,,,,,,,,,,,,,,,,,,,,,,,,,,,,,,,,,,,,,,,,,,,,,,,,,,,,,,
,,?,0.00112,0,,,,,,stimuli/images/PICTURE_467.png,POLICY,5d76cf7be0fc510001e0a3e4,12/08/1955,2020-09-10_05h54.38.199,proactive2,2020.1.2,Win32,60,5f5126bb654d4b30ee6923d8,5f59aff93dcae7213fe87d38,3,,,,,,peg,,,,,,,,,,,6,1,0,17,17,53,1,,,,,,,,,,,,,,,,,,,,,,,,,,,,,,,,,,,,,,,,,,,,,,,,,,,,,,,,,,,,,,,,,,,,,,,,,,,,,,,,,,,,,,,,,,,,,,
,,?,2.103085,0,,,,,,stimuli/images/PICTURE_383.png,WRITER,5d76cf7be0fc510001e0a3e4,12/08/1955,2020-09-10_05h54.38.199,proactive2,2020.1.2,Win32,60,5f5126bb654d4b30ee6923d8,5f59aff93dcae7213fe87d38,3,,,,,,coin,,,,,,,,,,,3,1,0,18,18,28,1,,,,,,,,,,,,,,,,,,,,,,,,,,,,,,,,,,,,,,,,,,,,,,,,,,,,,,,,,,,,,,,,,,,,,,,,,,,,,,,,,,,,,,,,,,,,,,
,,?,0.001165,0,,,,,,stimuli/images/PICTURE_667.png,RIVER,5d76cf7be0fc510001e0a3e4,12/08/1955,2020-09-10_05h54.38.199,proactive2,2020.1.2,Win32,60,5f5126bb654d4b30ee6923d8,5f59aff93dcae7213fe87d38,3,,,,,,daisy,,,,,,,,,,,2,1,0,19,19,10,1,,,,,,,,,,,,,,,,,,,,,,,,,,,,,,,,,,,,,,,,,,,,,,,,,,,,,,,,,,,,,,,,,,,,,,,,,,,,,,,,,,,,,,,,,,,,,,
,,?,0.001655,0,,,,,,stimuli/images/PICTURE_405.png,YEAR,5d76cf7be0fc510001e0a3e4,12/08/1955,2020-09-10_05h54.38.199,proactive2,2020.1.2,Win32,60,5f5126bb654d4b30ee6923d8,5f59aff93dcae7213fe87d38,3,,,,,,anchor,,,,,,,,,,,4,1,0,20,20,34,1,,,,,,,,,,,,,,,,,,,,,,,,,,,,,,,,,,,,,,,,,,,,,,,,,,,,,,,,,,,,,,,,,,,,,,,,,,,,,,,,,,,,,,,,,,,,,,
,,?,0.001205,0,,,,,,stimuli/images/PICTURE_32.png,PILLS,5d76cf7be0fc510001e0a3e4,12/08/1955,2020-09-10_05h54.38.199,proactive2,2020.1.2,Win32,60,5f5126bb654d4b30ee6923d8,5f59aff93dcae7213fe87d38,3,,,,,,crown,,,,,,,,,,,2,1,0,21,21,18,1,,,,,,,,,,,,,,,,,,,,,,,,,,,,,,,,,,,,,,,,,,,,,,,,,,,,,,,,,,,,,,,,,,,,,,,,,,,,,,,,,,,,,,,,,,,,,,
,,POLICY,4.652345,1,,,,,,stimuli/images/PICTURE_108.png,POLICY,5d76cf7be0fc510001e0a3e4,12/08/1955,2020-09-10_05h54.38.199,proactive2,2020.1.2,Win32,60,5f5126bb654d4b30ee6923d8,5f59aff93dcae7213fe87d38,3,,,,,,calendar,,,,,,,,,,,3,1,0,22,22,22,1,,,,,,,,,,,,,,,,,,,,,,,,,,,,,,,,,,,,,,,,,,,,,,,,,,,,,,,,,,,,,,,,,,,,,,,,,,,,,,,,,,,,,,,,,,,,,,
,,?,0.002355,0,,,,,,stimuli/images/PICTURE_380.png,HONEY,5d76cf7be0fc510001e0a3e4,12/08/1955,2020-09-10_05h54.38.199,proactive2,2020.1.2,Win32,60,5f5126bb654d4b30ee6923d8,5f59aff93dcae7213fe87d38,3,,,,,,gorilla,,,,,,,,,,,2,1,0,23,23,19,1,,,,,,,,,,,,,,,,,,,,,,,,,,,,,,,,,,,,,,,,,,,,,,,,,,,,,,,,,,,,,,,,,,,,,,,,,,,,,,,,,,,,,,,,,,,,,,
,,?,2.294865,0,,,,,,stimuli/images/PICTURE_405.png,PLENTY,5d76cf7be0fc510001e0a3e4,12/08/1955,2020-09-10_05h54.38.199,proactive2,2020.1.2,Win32,60,5f5126bb654d4b30ee6923d8,5f59aff93dcae7213fe87d38,3,,,,,,anchor,,,,,,,,,,,3,1,0,24,24,23,1,,,,,,,,,,,,,,,,,,,,,,,,,,,,,,,,,,,,,,,,,,,,,,,,,,,,,,,,,,,,,,,,,,,,,,,,,,,,,,,,,,,,,,,,,,,,,,
,,?,0.00168,0,,,,,,stimuli/images/PICTURE_675.png,SALE,5d76cf7be0fc510001e0a3e4,12/08/1955,2020-09-10_05h54.38.199,proactive2,2020.1.2,Win32,60,5f5126bb654d4b30ee6923d8,5f59aff93dcae7213fe87d38,3,,,,,,windmill,,,,,,,,,,,5,1,0,25,25,47,1,,,,,,,,,,,,,,,,,,,,,,,,,,,,,,,,,,,,,,,,,,,,,,,,,,,,,,,,,,,,,,,,,,,,,,,,,,,,,,,,,,,,,,,,,,,,,,
,,?,0.00266,0,,,,,,stimuli/images/PICTURE_85.png,TOILET,5d76cf7be0fc510001e0a3e4,12/08/1955,2020-09-10_05h54.38.199,proactive2,2020.1.2,Win32,60,5f5126bb654d4b30ee6923d8,5f59aff93dcae7213fe87d38,3,,,,,,diamond,,,,,,,,,,,5,1,0,26,26,48,1,,,,,,,,,,,,,,,,,,,,,,,,,,,,,,,,,,,,,,,,,,,,,,,,,,,,,,,,,,,,,,,,,,,,,,,,,,,,,,,,,,,,,,,,,,,,,,
,,?,0.002005,0,,,,,,stimuli/images/PICTURE_403.png,RIVER,5d76cf7be0fc510001e0a3e4,12/08/1955,2020-09-10_05h54.38.199,proactive2,2020.1.2,Win32,60,5f5126bb654d4b30ee6923d8,5f59aff93dcae7213fe87d38,3,,,,,,cathedral,,,,,,,,,,,5,1,0,27,27,40,1,,,,,,,,,,,,,,,,,,,,,,,,,,,,,,,,,,,,,,,,,,,,,,,,,,,,,,,,,,,,,,,,,,,,,,,,,,,,,,,,,,,,,,,,,,,,,,
,,?,0.00171,0,,,,,,stimuli/images/PICTURE_327.png,SERIES,5d76cf7be0fc510001e0a3e4,12/08/1955,2020-09-10_05h54.38.199,proactive2,2020.1.2,Win32,60,5f5126bb654d4b30ee6923d8,5f59aff93dcae7213fe87d38,3,,,,,,helmet,,,,,,,,,,,1,1,0,28,28,3,1,,,,,,,,,,,,,,,,,,,,,,,,,,,,,,,,,,,,,,,,,,,,,,,,,,,,,,,,,,,,,,,,,,,,,,,,,,,,,,,,,,,,,,,,,,,,,,
,,?,0.00302,0,,,,,,stimuli/images/PICTURE_449.png,DUDE,5d76cf7be0fc510001e0a3e4,12/08/1955,2020-09-10_05h54.38.199,proactive2,2020.1.2,Win32,60,5f5126bb654d4b30ee6923d8,5f59aff93dcae7213fe87d38,3,,,,,,bench,,,,,,,,,,,2,1,0,29,29,17,1,,,,,,,,,,,,,,,,,,,,,,,,,,,,,,,,,,,,,,,,,,,,,,,,,,,,,,,,,,,,,,,,,,,,,,,,,,,,,,,,,,,,,,,,,,,,,,
,,?,0.00154,0,,,,,,stimuli/images/PICTURE_296.png,LIFE,5d76cf7be0fc510001e0a3e4,12/08/1955,2020-09-10_05h54.38.199,proactive2,2020.1.2,Win32,60,5f5126bb654d4b30ee6923d8,5f59aff93dcae7213fe87d38,3,,,,,,bolt,,,,,,,,,,,6,1,0,30,30,57,1,,,,,,,,,,,,,,,,,,,,,,,,,,,,,,,,,,,,,,,,,,,,,,,,,,,,,,,,,,,,,,,,,,,,,,,,,,,,,,,,,,,,,,,,,,,,,,
,,?,0.00188,0,,,,,,stimuli/images/PICTURE_677.png,APPLE,5d76cf7be0fc510001e0a3e4,12/08/1955,2020-09-10_05h54.38.199,proactive2,2020.1.2,Win32,60,5f5126bb654d4b30ee6923d8,5f59aff93dcae7213fe87d38,3,,,,,,map,,,,,,,,,,,5,1,0,31,31,43,1,,,,,,,,,,,,,,,,,,,,,,,,,,,,,,,,,,,,,,,,,,,,,,,,,,,,,,,,,,,,,,,,,,,,,,,,,,,,,,,,,,,,,,,,,,,,,,
,,?,0.001185,0,,,,,,stimuli/images/PICTURE_708.png,RECORD,5d76cf7be0fc510001e0a3e4,12/08/1955,2020-09-10_05h54.38.199,proactive2,2020.1.2,Win32,60,5f5126bb654d4b30ee6923d8,5f59aff93dcae7213fe87d38,3,,,,,,monkey,,,,,,,,,,,6,1,0,32,32,58,1,,,,,,,,,,,,,,,,,,,,,,,,,,,,,,,,,,,,,,,,,,,,,,,,,,,,,,,,,,,,,,,,,,,,,,,,,,,,,,,,,,,,,,,,,,,,,,
,,?,0.001005,0,,,,,,stimuli/images/PICTURE_339.png,CLIENT,5d76cf7be0fc510001e0a3e4,12/08/1955,2020-09-10_05h54.38.199,proactive2,2020.1.2,Win32,60,5f5126bb654d4b30ee6923d8,5f59aff93dcae7213fe87d38,3,,,,,,backpack,,,,,,,,,,,2,1,0,33,33,11,1,,,,,,,,,,,,,,,,,,,,,,,,,,,,,,,,,,,,,,,,,,,,,,,,,,,,,,,,,,,,,,,,,,,,,,,,,,,,,,,,,,,,,,,,,,,,,,
,,?,0.00092,0,,,,,,stimuli/images/PICTURE_95.png,BOYS,5d76cf7be0fc510001e0a3e4,12/08/1955,2020-09-10_05h54.38.199,proactive2,2020.1.2,Win32,60,5f5126bb654d4b30ee6923d8,5f59aff93dcae7213fe87d38,3,,,,,,suitcase,,,,,,,,,,,1,1,0,34,34,1,1,,,,,,,,,,,,,,,,,,,,,,,,,,,,,,,,,,,,,,,,,,,,,,,,,,,,,,,,,,,,,,,,,,,,,,,,,,,,,,,,,,,,,,,,,,,,,,
,,?,1.6462,0,,,,,,stimuli/images/PICTURE_327.png,CASINO,5d76cf7be0fc510001e0a3e4,12/08/1955,2020-09-10_05h54.38.199,proactive2,2020.1.2,Win32,60,5f5126bb654d4b30ee6923d8,5f59aff93dcae7213fe87d38,3,,,,,,helmet,,,,,,,,,,,3,1,0,35,35,20,1,,,,,,,,,,,,,,,,,,,,,,,,,,,,,,,,,,,,,,,,,,,,,,,,,,,,,,,,,,,,,,,,,,,,,,,,,,,,,,,,,,,,,,,,,,,,,,
,,?,0.00109,0,,,,,,stimuli/images/PICTURE_233.png,LOTS,5d76cf7be0fc510001e0a3e4,12/08/1955,2020-09-10_05h54.38.199,proactive2,2020.1.2,Win32,60,5f5126bb654d4b30ee6923d8,5f59aff93dcae7213fe87d38,3,,,,,,salt,,,,,,,,,,,5,1,0,36,36,42,1,,,,,,,,,,,,,,,,,,,,,,,,,,,,,,,,,,,,,,,,,,,,,,,,,,,,,,,,,,,,,,,,,,,,,,,,,,,,,,,,,,,,,,,,,,,,,,
,,?,0.00072,0,,,,,,stimuli/images/PICTURE_2.png,FLIGHT,5d76cf7be0fc510001e0a3e4,12/08/1955,2020-09-10_05h54.38.199,proactive2,2020.1.2,Win32,60,5f5126bb654d4b30ee6923d8,5f59aff93dcae7213fe87d38,3,,,,,,tyre,,,,,,,,,,,2,1,0,37,37,15,1,,,,,,,,,,,,,,,,,,,,,,,,,,,,,,,,,,,,,,,,,,,,,,,,,,,,,,,,,,,,,,,,,,,,,,,,,,,,,,,,,,,,,,,,,,,,,,
,,?,1.643195,0,,,,,,stimuli/images/PICTURE_750.png,HOTEL,5d76cf7be0fc510001e0a3e4,12/08/1955,2020-09-10_05h54.38.199,proactive2,2020.1.2,Win32,60,5f5126bb654d4b30ee6923d8,5f59aff93dcae7213fe87d38,3,,,,,,kettle,,,,,,,,,,,3,1,0,38,38,27,1,,,,,,,,,,,,,,,,,,,,,,,,,,,,,,,,,,,,,,,,,,,,,,,,,,,,,,,,,,,,,,,,,,,,,,,,,,,,,,,,,,,,,,,,,,,,,,
,,?,0.001445,0,,,,,,stimuli/images/PICTURE_504.png,COPS,5d76cf7be0fc510001e0a3e4,12/08/1955,2020-09-10_05h54.38.199,proactive2,2020.1.2,Win32,60,5f5126bb654d4b30ee6923d8,5f59aff93dcae7213fe87d38,3,,,,,,wheel,,,,,,,,,,,6,1,0,39,39,52,1,,,,,,,,,,,,,,,,,,,,,,,,,,,,,,,,,,,,,,,,,,,,,,,,,,,,,,,,,,,,,,,,,,,,,,,,,,,,,,,,,,,,,,,,,,,,,,
,,?,0.001035,0,,,,,,stimuli/images/PICTURE_487.png,GIRL,5d76cf7be0fc510001e0a3e4,12/08/1955,2020-09-10_05h54.38.199,proactive2,2020.1.2,Win32,60,5f5126bb654d4b30ee6923d8,5f59aff93dcae7213fe87d38,3,,,,,,basket,,,,,,,,,,,5,1,0,40,40,45,1,,,,,,,,,,,,,,,,,,,,,,,,,,,,,,,,,,,,,,,,,,,,,,,,,,,,,,,,,,,,,,,,,,,,,,,,,,,,,,,,,,,,,,,,,,,,,,
,,TOILET,4.125135,1,,,,,,stimuli/images/PICTURE_403.png,TOILET,5d76cf7be0fc510001e0a3e4,12/08/1955,2020-09-10_05h54.38.199,proactive2,2020.1.2,Win32,60,5f5126bb654d4b30ee6923d8,5f59aff93dcae7213fe87d38,3,,,,,,cathedral,,,,,,,,,,,3,1,0,41,41,25,1,,,,,,,,,,,,,,,,,,,,,,,,,,,,,,,,,,,,,,,,,,,,,,,,,,,,,,,,,,,,,,,,,,,,,,,,,,,,,,,,,,,,,,,,,,,,,,
,,?,0.00245,0,,,,,,stimuli/images/PICTURE_42.png,BOYS,5d76cf7be0fc510001e0a3e4,12/08/1955,2020-09-10_05h54.38.199,proactive2,2020.1.2,Win32,60,5f5126bb654d4b30ee6923d8,5f59aff93dcae7213fe87d38,3,,,,,,pear,,,,,,,,,,,6,1,0,42,42,55,1,,,,,,,,,,,,,,,,,,,,,,,,,,,,,,,,,,,,,,,,,,,,,,,,,,,,,,,,,,,,,,,,,,,,,,,,,,,,,,,,,,,,,,,,,,,,,,
,,?,0.00076,0,,,,,,stimuli/images/PICTURE_469.png,AGENT,5d76cf7be0fc510001e0a3e4,12/08/1955,2020-09-10_05h54.38.199,proactive2,2020.1.2,Win32,60,5f5126bb654d4b30ee6923d8,5f59aff93dcae7213fe87d38,3,,,,,,stool,,,,,,,,,,,2,1,0,43,43,16,1,,,,,,,,,,,,,,,,,,,,,,,,,,,,,,,,,,,,,,,,,,,,,,,,,,,,,,,,,,,,,,,,,,,,,,,,,,,,,,,,,,,,,,,,,,,,,,
,,?,0.000685,0,,,,,,stimuli/images/PICTURE_340.png,VALLEY,5d76cf7be0fc510001e0a3e4,12/08/1955,2020-09-10_05h54.38.199,proactive2,2020.1.2,Win32,60,5f5126bb654d4b30ee6923d8,5f59aff93dcae7213fe87d38,3,,,,,,mirror,,,,,,,,,,,6,1,0,44,44,54,1,,,,,,,,,,,,,,,,,,,,,,,,,,,,,,,,,,,,,,,,,,,,,,,,,,,,,,,,,,,,,,,,,,,,,,,,,,,,,,,,,,,,,,,,,,,,,,
,,?,2.92503,0,,,,,,stimuli/images/PICTURE_340.png,LETTER,5d76cf7be0fc510001e0a3e4,12/08/1955,2020-09-10_05h54.38.199,proactive2,2020.1.2,Win32,60,5f5126bb654d4b30ee6923d8,5f59aff93dcae7213fe87d38,3,,,,,,mirror,,,,,,,,,,,3,1,0,45,45,24,1,,,,,,,,,,,,,,,,,,,,,,,,,,,,,,,,,,,,,,,,,,,,,,,,,,,,,,,,,,,,,,,,,,,,,,,,,,,,,,,,,,,,,,,,,,,,,,
,,?,0.00131,0,,,,,,stimuli/images/PICTURE_33.png,FRIEND,5d76cf7be0fc510001e0a3e4,12/08/1955,2020-09-10_05h54.38.199,proactive2,2020.1.2,Win32,60,5f5126bb654d4b30ee6923d8,5f59aff93dcae7213fe87d38,3,,,,,,frame,,,,,,,,,,,1,1,0,46,46,8,1,,,,,,,,,,,,,,,,,,,,,,,,,,,,,,,,,,,,,,,,,,,,,,,,,,,,,,,,,,,,,,,,,,,,,,,,,,,,,,,,,,,,,,,,,,,,,,
,,?,0.00091,0,,,,,,stimuli/images/PICTURE_208.png,SYSTEM,5d76cf7be0fc510001e0a3e4,12/08/1955,2020-09-10_05h54.38.199,proactive2,2020.1.2,Win32,60,5f5126bb654d4b30ee6923d8,5f59aff93dcae7213fe87d38,3,,,,,,microphone,,,,,,,,,,,4,1,0,47,47,32,1,,,,,,,,,,,,,,,,,,,,,,,,,,,,,,,,,,,,,,,,,,,,,,,,,,,,,,,,,,,,,,,,,,,,,,,,,,,,,,,,,,,,,,,,,,,,,,
,,?,0.000995,0,,,,,,stimuli/images/PICTURE_68.png,ROOF,5d76cf7be0fc510001e0a3e4,12/08/1955,2020-09-10_05h54.38.199,proactive2,2020.1.2,Win32,60,5f5126bb654d4b30ee6923d8,5f59aff93dcae7213fe87d38,3,,,,,,candle,,,,,,,,,,,4,1,0,48,48,38,1,,,,,,,,,,,,,,,,,,,,,,,,,,,,,,,,,,,,,,,,,,,,,,,,,,,,,,,,,,,,,,,,,,,,,,,,,,,,,,,,,,,,,,,,,,,,,,
,,?,0.00084,0,,,,,,stimuli/images/PICTURE_108.png,FLIGHT,5d76cf7be0fc510001e0a3e4,12/08/1955,2020-09-10_05h54.38.199,proactive2,2020.1.2,Win32,60,5f5126bb654d4b30ee6923d8,5f59aff93dcae7213fe87d38,3,,,,,,calendar,,,,,,,,,,,6,1,0,49,49,59,1,,,,,,,,,,,,,,,,,,,,,,,,,,,,,,,,,,,,,,,,,,,,,,,,,,,,,,,,,,,,,,,,,,,,,,,,,,,,,,,,,,,,,,,,,,,,,,
,,?,2.554415,0,,,,,,stimuli/images/PICTURE_564.png,BATH,5d76cf7be0fc510001e0a3e4,12/08/1955,2020-09-10_05h54.38.199,proactive2,2020.1.2,Win32,60,5f5126bb654d4b30ee6923d8,5f59aff93dcae7213fe87d38,3,,,,,,spoon,,,,,,,,,,,3,1,0,50,50,26,1,,,,,,,,,,,,,,,,,,,,,,,,,,,,,,,,,,,,,,,,,,,,,,,,,,,,,,,,,,,,,,,,,,,,,,,,,,,,,,,,,,,,,,,,,,,,,,
,,?,0.001065,0,,,,,,stimuli/images/PICTURE_68.png,MILE,5d76cf7be0fc510001e0a3e4,12/08/1955,2020-09-10_05h54.38.199,proactive2,2020.1.2,Win32,60,5f5126bb654d4b30ee6923d8,5f59aff93dcae7213fe87d38,3,,,,,,candle,,,,,,,,,,,6,1,0,51,51,51,1,,,,,,,,,,,,,,,,,,,,,,,,,,,,,,,,,,,,,,,,,,,,,,,,,,,,,,,,,,,,,,,,,,,,,,,,,,,,,,,,,,,,,,,,,,,,,,
,,?,0.000675,0,,,,,,stimuli/images/PICTURE_203.png,NIGHT,5d76cf7be0fc510001e0a3e4,12/08/1955,2020-09-10_05h54.38.199,proactive2,2020.1.2,Win32,60,5f5126bb654d4b30ee6923d8,5f59aff93dcae7213fe87d38,3,,,,,,cap,,,,,,,,,,,1,1,0,52,52,2,1,,,,,,,,,,,,,,,,,,,,,,,,,,,,,,,,,,,,,,,,,,,,,,,,,,,,,,,,,,,,,,,,,,,,,,,,,,,,,,,,,,,,,,,,,,,,,,
,,?,0.00066,0,,,,,,stimuli/images/PICTURE_380.png,CANDY,5d76cf7be0fc510001e0a3e4,12/08/1955,2020-09-10_05h54.38.199,proactive2,2020.1.2,Win32,60,5f5126bb654d4b30ee6923d8,5f59aff93dcae7213fe87d38,3,,,,,,gorilla,,,,,,,,,,,1,1,0,53,53,0,1,,,,,,,,,,,,,,,,,,,,,,,,,,,,,,,,,,,,,,,,,,,,,,,,,,,,,,,,,,,,,,,,,,,,,,,,,,,,,,,,,,,,,,,,,,,,,,
,,?,0.001025,0,,,,,,stimuli/images/PICTURE_147.png,WOMEN,5d76cf7be0fc510001e0a3e4,12/08/1955,2020-09-10_05h54.38.199,proactive2,2020.1.2,Win32,60,5f5126bb654d4b30ee6923d8,5f59aff93dcae7213fe87d38,3,,,,,,hanger,,,,,,,,,,,1,1,0,54,54,7,1,,,,,,,,,,,,,,,,,,,,,,,,,,,,,,,,,,,,,,,,,,,,,,,,,,,,,,,,,,,,,,,,,,,,,,,,,,,,,,,,,,,,,,,,,,,,,,
,,?,0.000875,0,,,,,,stimuli/images/PICTURE_403.png,WRITER,5d76cf7be0fc510001e0a3e4,12/08/1955,2020-09-10_05h54.38.199,proactive2,2020.1.2,Win32,60,5f5126bb654d4b30ee6923d8,5f59aff93dcae7213fe87d38,3,,,,,,cathedral,,,,,,,,,,,4,1,0,55,55,31,1,,,,,,,,,,,,,,,,,,,,,,,,,,,,,,,,,,,,,,,,,,,,,,,,,,,,,,,,,,,,,,,,,,,,,,,,,,,,,,,,,,,,,,,,,,,,,,
,,?,0.011165,0,,,,,,stimuli/images/PICTURE_203.png,GODS,5d76cf7be0fc510001e0a3e4,12/08/1955,2020-09-10_05h54.38.199,proactive2,2020.1.2,Win32,60,5f5126bb654d4b30ee6923d8,5f59aff93dcae7213fe87d38,3,,,,,,cap,,,,,,,,,,,4,1,0,56,56,30,1,,,,,,,,,,,,,,,,,,,,,,,,,,,,,,,,,,,,,,,,,,,,,,,,,,,,,,,,,,,,,,,,,,,,,,,,,,,,,,,,,,,,,,,,,,,,,,
,,?,0.00071,0,,,,,,stimuli/images/PICTURE_296.png,LOTS,5d76cf7be0fc510001e0a3e4,12/08/1955,2020-09-10_05h54.38.199,proactive2,2020.1.2,Win32,60,5f5126bb654d4b30ee6923d8,5f59aff93dcae7213fe87d38,3,,,,,,bolt,,,,,,,,,,,1,1,0,57,57,9,1,,,,,,,,,,,,,,,,,,,,,,,,,,,,,,,,,,,,,,,,,,,,,,,,,,,,,,,,,,,,,,,,,,,,,,,,,,,,,,,,,,,,,,,,,,,,,,
,,?,0.000675,0,,,,,,stimuli/images/PICTURE_95.png,HONEY,5d76cf7be0fc510001e0a3e4,12/08/1955,2020-09-10_05h54.38.199,proactive2,2020.1.2,Win32,60,5f5126bb654d4b30ee6923d8,5f59aff93dcae7213fe87d38,3,,,,,,suitcase,,,,,,,,,,,5,1,0,58,58,44,1,,,,,,,,,,,,,,,,,,,,,,,,,,,,,,,,,,,,,,,,,,,,,,,,,,,,,,,,,,,,,,,,,,,,,,,,,,,,,,,,,,,,,,,,,,,,,,
,,?,0.000685,0,,,,,,stimuli/images/PICTURE_177.png,WRITER,5d76cf7be0fc510001e0a3e4,12/08/1955,2020-09-10_05h54.38.199,proactive2,2020.1.2,Win32,60,5f5126bb654d4b30ee6923d8,5f59aff93dcae7213fe87d38,3,,,,,,mushroom,,,,,,,,,,,5,1,0,59,59,41,1,,,,,,,,,,,,,,,,,,,,,,,,,,,,,,,,,,,,,,,,,,,,,,,,,,,,,,,,,,,,,,,,,,,,,,,,,,,,,,,,,,,,,,,,,,,,,,
,,,,,,,,,,,,5d76cf7be0fc510001e0a3e4,12/08/1955,2020-09-10_05h54.38.199,proactive2,2020.1.2,Win32,60,5f5126bb654d4b30ee6923d8,5f59aff93dcae7213fe87d38,3,,,,,,,,,,,,,,,,,,,,,,,,0,1,1,1,1,stimuli/learn-block2.csv,,,,,,,,,,,,,,,,,,,,,,,,,,,,,,,,,,,,,,,,,,,,,,,,,,,,,,,,,,,,,,,,,,,,,,,,,,,,,,,,,,,,,,,,
,,,,,,,,,,stimuli/images/PICTURE_2.png,YARD,5d76cf7be0fc510001e0a3e4,12/08/1955,2020-09-10_05h54.38.199,proactive2,2020.1.2,Win32,60,5f5126bb654d4b30ee6923d8,5f59aff93dcae7213fe87d38,3,,,,,,tyre,,,,,,0,0,0,55,1,6,2,,,,,,,,,,,,,,,,,,,,,,,,,,,,,,,,,,,,,,,,,,,,,,,,,,,,,,,,,,,,,,,,,,,,,,,,,,,,,,,,,,,,,,,,,,,,,,,,,,,
,,,,,,,,,,stimuli/images/PICTURE_677.png,PHOTO,5d76cf7be0fc510001e0a3e4,12/08/1955,2020-09-10_05h54.38.199,proactive2,2020.1.2,Win32,60,5f5126bb654d4b30ee6923d8,5f59aff93dcae7213fe87d38,3,,,,,,map,,,,,,0,1,1,14,1,2,2,,,,,,,,,,,,,,,,,,,,,,,,,,,,,,,,,,,,,,,,,,,,,,,,,,,,,,,,,,,,,,,,,,,,,,,,,,,,,,,,,,,,,,,,,,,,,,,,,,,
,,,,,,,,,,stimuli/images/PICTURE_2.png,JUNGLE,5d76cf7be0fc510001e0a3e4,12/08/1955,2020-09-10_05h54.38.199,proactive2,2020.1.2,Win32,60,5f5126bb654d4b30ee6923d8,5f59aff93dcae7213fe87d38,3,,,,,,tyre,,,,,,0,2,2,1,1,1,2,,,,,,,,,,,,,,,,,,,,,,,,,,,,,,,,,,,,,,,,,,,,,,,,,,,,,,,,,,,,,,,,,,,,,,,,,,,,,,,,,,,,,,,,,,,,,,,,,,,
,,,,,,,,,,stimuli/images/PICTURE_123.png,SALE,5d76cf7be0fc510001e0a3e4,12/08/1955,2020-09-10_05h54.38.199,proactive2,2020.1.2,Win32,60,5f5126bb654d4b30ee6923d8,5f59aff93dcae7213fe87d38,3,,,,,,dart,,,,,,0,3,3,8,1,1,2,,,,,,,,,,,,,,,,,,,,,,,,,,,,,,,,,,,,,,,,,,,,,,,,,,,,,,,,,,,,,,,,,,,,,,,,,,,,,,,,,,,,,,,,,,,,,,,,,,,
,,,,,,,,,,stimuli/images/PICTURE_487.png,ROOF,5d76cf7be0fc510001e0a3e4,12/08/1955,2020-09-10_05h54.38.199,proactive2,2020.1.2,Win32,60,5f5126bb654d4b30ee6923d8,5f59aff93dcae7213fe87d38,3,,,,,,basket,,,,,,0,4,4,50,1,6,2,,,,,,,,,,,,,,,,,,,,,,,,,,,,,,,,,,,,,,,,,,,,,,,,,,,,,,,,,,,,,,,,,,,,,,,,,,,,,,,,,,,,,,,,,,,,,,,,,,,
,,,,,,,,,,stimuli/images/PICTURE_750.png,POLICY,5d76cf7be0fc510001e0a3e4,12/08/1955,2020-09-10_05h54.38.199,proactive2,2020.1.2,Win32,60,5f5126bb654d4b30ee6923d8,5f59aff93dcae7213fe87d38,3,,,,,,kettle,,,,,,0,5,5,44,1,5,2,,,,,,,,,,,,,,,,,,,,,,,,,,,,,,,,,,,,,,,,,,,,,,,,,,,,,,,,,,,,,,,,,,,,,,,,,,,,,,,,,,,,,,,,,,,,,,,,,,,
,,,,,,,,,,stimuli/images/PICTURE_655.png,SALE,5d76cf7be0fc510001e0a3e4,12/08/1955,2020-09-10_05h54.38.199,proactive2,2020.1.2,Win32,60,5f5126bb654d4b30ee6923d8,5f59aff93dcae7213fe87d38,3,,,,,,megaphone,,,,,,0,6,6,57,1,6,2,,,,,,,,,,,,,,,,,,,,,,,,,,,,,,,,,,,,,,,,,,,,,,,,,,,,,,,,,,,,,,,,,,,,,,,,,,,,,,,,,,,,,,,,,,,,,,,,,,,
,,,,,,,,,,stimuli/images/PICTURE_692.png,DUDE,5d76cf7be0fc510001e0a3e4,12/08/1955,2020-09-10_05h54.38.199,proactive2,2020.1.2,Win32,60,5f5126bb654d4b30ee6923d8,5f59aff93dcae7213fe87d38,3,,,,,,cherry,,,,,,0,7,7,47,1,5,2,,,,,,,,,,,,,,,,,,,,,,,,,,,,,,,,,,,,,,,,,,,,,,,,,,,,,,,,,,,,,,,,,,,,,,,,,,,,,,,,,,,,,,,,,,,,,,,,,,,
,,,,,,,,,,stimuli/images/PICTURE_708.png,VALLEY,5d76cf7be0fc510001e0a3e4,12/08/1955,2020-09-10_05h54.38.199,proactive2,2020.1.2,Win32,60,5f5126bb654d4b30ee6923d8,5f59aff93dcae7213fe87d38,3,,,,,,monkey,,,,,,0,8,8,45,1,5,2,,,,,,,,,,,,,,,,,,,,,,,,,,,,,,,,,,,,,,,,,,,,,,,,,,,,,,,,,,,,,,,,,,,,,,,,,,,,,,,,,,,,,,,,,,,,,,,,,,,
,,,,,,,,,,stimuli/images/PICTURE_327.png,LEADER,5d76cf7be0fc510001e0a3e4,12/08/1955,2020-09-10_05h54.38.199,proactive2,2020.1.2,Win32,60,5f5126bb654d4b30ee6923d8,5f59aff93dcae7213fe87d38,3,,,,,,helmet,,,,,,0,9,9,17,1,2,2,,,,,,,,,,,,,,,,,,,,,,,,,,,,,,,,,,,,,,,,,,,,,,,,,,,,,,,,,,,,,,,,,,,,,,,,,,,,,,,,,,,,,,,,,,,,,,,,,,,
,,,,,,,,,,stimuli/images/PICTURE_208.png,SPIRIT,5d76cf7be0fc510001e0a3e4,12/08/1955,2020-09-10_05h54.38.199,proactive2,2020.1.2,Win32,60,5f5126bb654d4b30ee6923d8,5f59aff93dcae7213fe87d38,3,,,,,,microphone,,,,,,0,10,10,28,1,3,2,,,,,,,,,,,,,,,,,,,,,,,,,,,,,,,,,,,,,,,,,,,,,,,,,,,,,,,,,,,,,,,,,,,,,,,,,,,,,,,,,,,,,,,,,,,,,,,,,,,
,,,,,,,,,,stimuli/images/PICTURE_2.png,AREA,5d76cf7be0fc510001e0a3e4,12/08/1955,2020-09-10_05h54.38.199,proactive2,2020.1.2,Win32,60,5f5126bb654d4b30ee6923d8,5f59aff93dcae7213fe87d38,3,,,,,,tyre,,,,,,0,11,11,32,1,4,2,,,,,,,,,,,,,,,,,,,,,,,,,,,,,,,,,,,,,,,,,,,,,,,,,,,,,,,,,,,,,,,,,,,,,,,,,,,,,,,,,,,,,,,,,,,,,,,,,,,
,,,,,,,,,,stimuli/images/PICTURE_297.png,BODY,5d76cf7be0fc510001e0a3e4,12/08/1955,2020-09-10_05h54.38.199,proactive2,2020.1.2,Win32,60,5f5126bb654d4b30ee6923d8,5f59aff93dcae7213fe87d38,3,,,,,,aeroplane,,,,,,0,12,12,51,1,6,2,,,,,,,,,,,,,,,,,,,,,,,,,,,,,,,,,,,,,,,,,,,,,,,,,,,,,,,,,,,,,,,,,,,,,,,,,,,,,,,,,,,,,,,,,,,,,,,,,,,
,,,,,,,,,,stimuli/images/PICTURE_403.png,FAMILY,5d76cf7be0fc510001e0a3e4,12/08/1955,2020-09-10_05h54.38.199,proactive2,2020.1.2,Win32,60,5f5126bb654d4b30ee6923d8,5f59aff93dcae7213fe87d38,3,,,,,,cathedral,,,,,,0,13,13,9,1,1,2,,,,,,,,,,,,,,,,,,,,,,,,,,,,,,,,,,,,,,,,,,,,,,,,,,,,,,,,,,,,,,,,,,,,,,,,,,,,,,,,,,,,,,,,,,,,,,,,,,,
,,,,,,,,,,stimuli/images/PICTURE_57.png,CANDY,5d76cf7be0fc510001e0a3e4,12/08/1955,2020-09-10_05h54.38.199,proactive2,2020.1.2,Win32,60,5f5126bb654d4b30ee6923d8,5f59aff93dcae7213fe87d38,3,,,,,,stamp,,,,,,0,14,14,52,1,6,2,,,,,,,,,,,,,,,,,,,,,,,,,,,,,,,,,,,,,,,,,,,,,,,,,,,,,,,,,,,,,,,,,,,,,,,,,,,,,,,,,,,,,,,,,,,,,,,,,,,
,,,,,,,,,,stimuli/images/PICTURE_255.png,PENNY,5d76cf7be0fc510001e0a3e4,12/08/1955,2020-09-10_05h54.38.199,proactive2,2020.1.2,Win32,60,5f5126bb654d4b30ee6923d8,5f59aff93dcae7213fe87d38,3,,,,,,shovel,,,,,,0,15,15,19,1,2,2,,,,,,,,,,,,,,,,,,,,,,,,,,,,,,,,,,,,,,,,,,,,,,,,,,,,,,,,,,,,,,,,,,,,,,,,,,,,,,,,,,,,,,,,,,,,,,,,,,,
,,,,,,,,,,stimuli/images/PICTURE_311.png,FLESH,5d76cf7be0fc510001e0a3e4,12/08/1955,2020-09-10_05h54.38.199,proactive2,2020.1.2,Win32,60,5f5126bb654d4b30ee6923d8,5f59aff93dcae7213fe87d38,3,,,,,,razor,,,,,,0,16,16,3,1,1,2,,,,,,,,,,,,,,,,,,,,,,,,,,,,,,,,,,,,,,,,,,,,,,,,,,,,,,,,,,,,,,,,,,,,,,,,,,,,,,,,,,,,,,,,,,,,,,,,,,,
,,,,,,,,,,stimuli/images/PICTURE_160.png,HOTEL,5d76cf7be0fc510001e0a3e4,12/08/1955,2020-09-10_05h54.38.199,proactive2,2020.1.2,Win32,60,5f5126bb654d4b30ee6923d8,5f59aff93dcae7213fe87d38,3,,,,,,wheelbarrow,,,,,,0,17,17,16,1,2,2,,,,,,,,,,,,,,,,,,,,,,,,,,,,,,,,,,,,,,,,,,,,,,,,,,,,,,,,,,,,,,,,,,,,,,,,,,,,,,,,,,,,,,,,,,,,,,,,,,,
,,,,,,,,,,stimuli/images/PICTURE_487.png,POLICY,5d76cf7be0fc510001e0a3e4,12/08/1955,2020-09-10_05h54.38.199,proactive2,2020.1.2,Win32,60,5f5126bb654d4b30ee6923d8,5f59aff93dcae7213fe87d38,3,,,,,,basket,,,,,,0,18,18,34,1,4,2,,,,,,,,,,,,,,,,,,,,,,,,,,,,,,,,,,,,,,,,,,,,,,,,,,,,,,,,,,,,,,,,,,,,,,,,,,,,,,,,,,,,,,,,,,,,,,,,,,,
,,,,,,,,,,stimuli/images/PICTURE_453.png,FAMILY,5d76cf7be0fc510001e0a3e4,12/08/1955,2020-09-10_05h54.38.199,proactive2,2020.1.2,Win32,60,5f5126bb654d4b30ee6923d8,5f59aff93dcae7213fe87d38,3,,,,,,scissors,,,,,,0,19,19,48,1,5,2,,,,,,,,,,,,,,,,,,,,,,,,,,,,,,,,,,,,,,,,,,,,,,,,,,,,,,,,,,,,,,,,,,,,,,,,,,,,,,,,,,,,,,,,,,,,,,,,,,,
,,,,,,,,,,stimuli/images/PICTURE_654.png,COPS,5d76cf7be0fc510001e0a3e4,12/08/1955,2020-09-10_05h54.38.199,proactive2,2020.1.2,Win32,60,5f5126bb654d4b30ee6923d8,5f59aff93dcae7213fe87d38,3,,,,,,pencil,,,,,,0,20,20,10,1,2,2,,,,,,,,,,,,,,,,,,,,,,,,,,,,,,,,,,,,,,,,,,,,,,,,,,,,,,,,,,,,,,,,,,,,,,,,,,,,,,,,,,,,,,,,,,,,,,,,,,,
,,,,,,,,,,stimuli/images/PICTURE_470.png,BEAUTY,5d76cf7be0fc510001e0a3e4,12/08/1955,2020-09-10_05h54.38.199,proactive2,2020.1.2,Win32,60,5f5126bb654d4b30ee6923d8,5f59aff93dcae7213fe87d38,3,,,,,,motorbike,,,,,,0,21,21,26,1,3,2,,,,,,,,,,,,,,,,,,,,,,,,,,,,,,,,,,,,,,,,,,,,,,,,,,,,,,,,,,,,,,,,,,,,,,,,,,,,,,,,,,,,,,,,,,,,,,,,,,,
,,,,,,,,,,stimuli/images/PICTURE_405.png,JUNGLE,5d76cf7be0fc510001e0a3e4,12/08/1955,2020-09-10_05h54.38.199,proactive2,2020.1.2,Win32,60,5f5126bb654d4b30ee6923d8,5f59aff93dcae7213fe87d38,3,,,,,,anchor,,,,,,0,22,22,13,1,2,2,,,,,,,,,,,,,,,,,,,,,,,,,,,,,,,,,,,,,,,,,,,,,,,,,,,,,,,,,,,,,,,,,,,,,,,,,,,,,,,,,,,,,,,,,,,,,,,,,,,
,,,,,,,,,,stimuli/images/PICTURE_311.png,TOILET,5d76cf7be0fc510001e0a3e4,12/08/1955,2020-09-10_05h54.38.199,proactive2,2020.1.2,Win32,60,5f5126bb654d4b30ee6923d8,5f59aff93dcae7213fe87d38,3,,,,,,razor,,,,,,0,23,23,54,1,6,2,,,,,,,,,,,,,,,,,,,,,,,,,,,,,,,,,,,,,,,,,,,,,,,,,,,,,,,,,,,,,,,,,,,,,,,,,,,,,,,,,,,,,,,,,,,,,,,,,,,
,,,,,,,,,,stimuli/images/PICTURE_677.png,FAMILY,5d76cf7be0fc510001e0a3e4,12/08/1955,2020-09-10_05h54.38.199,proactive2,2020.1.2,Win32,60,5f5126bb654d4b30ee6923d8,5f59aff93dcae7213fe87d38,3,,,,,,map,,,,,,0,24,24,53,1,6,2,,,,,,,,,,,,,,,,,,,,,,,,,,,,,,,,,,,,,,,,,,,,,,,,,,,,,,,,,,,,,,,,,,,,,,,,,,,,,,,,,,,,,,,,,,,,,,,,,,,
,,,,,,,,,,stimuli/images/PICTURE_177.png,HOUSE,5d76cf7be0fc510001e0a3e4,12/08/1955,2020-09-10_05h54.38.199,proactive2,2020.1.2,Win32,60,5f5126bb654d4b30ee6923d8,5f59aff93dcae7213fe87d38,3,,,,,,mushroom,,,,,,0,25,25,25,1,3,2,,,,,,,,,,,,,,,,,,,,,,,,,,,,,,,,,,,,,,,,,,,,,,,,,,,,,,,,,,,,,,,,,,,,,,,,,,,,,,,,,,,,,,,,,,,,,,,,,,,
,,,,,,,,,,stimuli/images/PICTURE_141.png,CLIENT,5d76cf7be0fc510001e0a3e4,12/08/1955,2020-09-10_05h54.38.199,proactive2,2020.1.2,Win32,60,5f5126bb654d4b30ee6923d8,5f59aff93dcae7213fe87d38,3,,,,,,sunflower,,,,,,0,26,26,30,1,4,2,,,,,,,,,,,,,,,,,,,,,,,,,,,,,,,,,,,,,,,,,,,,,,,,,,,,,,,,,,,,,,,,,,,,,,,,,,,,,,,,,,,,,,,,,,,,,,,,,,,
,,,,,,,,,,stimuli/images/PICTURE_93.png,GIRL,5d76cf7be0fc510001e0a3e4,12/08/1955,2020-09-10_05h54.38.199,proactive2,2020.1.2,Win32,60,5f5126bb654d4b30ee6923d8,5f59aff93dcae7213fe87d38,3,,,,,,skateboard,,,,,,0,27,27,31,1,4,2,,,,,,,,,,,,,,,,,,,,,,,,,,,,,,,,,,,,,,,,,,,,,,,,,,,,,,,,,,,,,,,,,,,,,,,,,,,,,,,,,,,,,,,,,,,,,,,,,,,
,,,,,,,,,,stimuli/images/PICTURE_57.png,CASINO,5d76cf7be0fc510001e0a3e4,12/08/1955,2020-09-10_05h54.38.199,proactive2,2020.1.2,Win32,60,5f5126bb654d4b30ee6923d8,5f59aff93dcae7213fe87d38,3,,,,,,stamp,,,,,,0,28,28,12,1,2,2,,,,,,,,,,,,,,,,,,,,,,,,,,,,,,,,,,,,,,,,,,,,,,,,,,,,,,,,,,,,,,,,,,,,,,,,,,,,,,,,,,,,,,,,,,,,,,,,,,,
,,,,,,,,,,stimuli/images/PICTURE_491.png,SERIES,5d76cf7be0fc510001e0a3e4,12/08/1955,2020-09-10_05h54.38.199,proactive2,2020.1.2,Win32,60,5f5126bb654d4b30ee6923d8,5f59aff93dcae7213fe87d38,3,,,,,,rug,,,,,,0,29,29,39,1,4,2,,,,,,,,,,,,,,,,,,,,,,,,,,,,,,,,,,,,,,,,,,,,,,,,,,,,,,,,,,,,,,,,,,,,,,,,,,,,,,,,,,,,,,,,,,,,,,,,,,,
,,,,,,,,,,stimuli/images/PICTURE_147.png,LEADER,5d76cf7be0fc510001e0a3e4,12/08/1955,2020-09-10_05h54.38.199,proactive2,2020.1.2,Win32,60,5f5126bb654d4b30ee6923d8,5f59aff93dcae7213fe87d38,3,,,,,,hanger,,,,,,0,30,30,33,1,4,2,,,,,,,,,,,,,,,,,,,,,,,,,,,,,,,,,,,,,,,,,,,,,,,,,,,,,,,,,,,,,,,,,,,,,,,,,,,,,,,,,,,,,,,,,,,,,,,,,,,
,,,,,,,,,,stimuli/images/PICTURE_509.png,MILLER,5d76cf7be0fc510001e0a3e4,12/08/1955,2020-09-10_05h54.38.199,proactive2,2020.1.2,Win32,60,5f5126bb654d4b30ee6923d8,5f59aff93dcae7213fe87d38,3,,,,,,telephone,,,,,,0,31,31,49,1,5,2,,,,,,,,,,,,,,,,,,,,,,,,,,,,,,,,,,,,,,,,,,,,,,,,,,,,,,,,,,,,,,,,,,,,,,,,,,,,,,,,,,,,,,,,,,,,,,,,,,,
,,,,,,,,,,stimuli/images/PICTURE_215.png,FOOD,5d76cf7be0fc510001e0a3e4,12/08/1955,2020-09-10_05h54.38.199,proactive2,2020.1.2,Win32,60,5f5126bb654d4b30ee6923d8,5f59aff93dcae7213fe87d38,3,,,,,,boot,,,,,,0,32,32,5,1,1,2,,,,,,,,,,,,,,,,,,,,,,,,,,,,,,,,,,,,,,,,,,,,,,,,,,,,,,,,,,,,,,,,,,,,,,,,,,,,,,,,,,,,,,,,,,,,,,,,,,,
,,,,,,,,,,stimuli/images/PICTURE_452.png,COPS,5d76cf7be0fc510001e0a3e4,12/08/1955,2020-09-10_05h54.38.199,proactive2,2020.1.2,Win32,60,5f5126bb654d4b30ee6923d8,5f59aff93dcae7213fe87d38,3,,,,,,watch,,,,,,0,33,33,0,1,1,2,,,,,,,,,,,,,,,,,,,,,,,,,,,,,,,,,,,,,,,,,,,,,,,,,,,,,,,,,,,,,,,,,,,,,,,,,,,,,,,,,,,,,,,,,,,,,,,,,,,
,,,,,,,,,,stimuli/images/PICTURE_654.png,YEAR,5d76cf7be0fc510001e0a3e4,12/08/1955,2020-09-10_05h54.38.199,proactive2,2020.1.2,Win32,60,5f5126bb654d4b30ee6923d8,5f59aff93dcae7213fe87d38,3,,,,,,pencil,,,,,,0,34,34,41,1,5,2,,,,,,,,,,,,,,,,,,,,,,,,,,,,,,,,,,,,,,,,,,,,,,,,,,,,,,,,,,,,,,,,,,,,,,,,,,,,,,,,,,,,,,,,,,,,,,,,,,,
,,,,,,,,,,stimuli/images/PICTURE_667.png,GLASS,5d76cf7be0fc510001e0a3e4,12/08/1955,2020-09-10_05h54.38.199,proactive2,2020.1.2,Win32,60,5f5126bb654d4b30ee6923d8,5f59aff93dcae7213fe87d38,3,,,,,,daisy,,,,,,0,35,35,27,1,3,2,,,,,,,,,,,,,,,,,,,,,,,,,,,,,,,,,,,,,,,,,,,,,,,,,,,,,,,,,,,,,,,,,,,,,,,,,,,,,,,,,,,,,,,,,,,,,,,,,,,
,,,,,,,,,,stimuli/images/PICTURE_470.png,MOMENT,5d76cf7be0fc510001e0a3e4,12/08/1955,2020-09-10_05h54.38.199,proactive2,2020.1.2,Win32,60,5f5126bb654d4b30ee6923d8,5f59aff93dcae7213fe87d38,3,,,,,,motorbike,,,,,,0,36,36,40,1,5,2,,,,,,,,,,,,,,,,,,,,,,,,,,,,,,,,,,,,,,,,,,,,,,,,,,,,,,,,,,,,,,,,,,,,,,,,,,,,,,,,,,,,,,,,,,,,,,,,,,,
,,,,,,,,,,stimuli/images/PICTURE_509.png,SHOTS,5d76cf7be0fc510001e0a3e4,12/08/1955,2020-09-10_05h54.38.199,proactive2,2020.1.2,Win32,60,5f5126bb654d4b30ee6923d8,5f59aff93dcae7213fe87d38,3,,,,,,telephone,,,,,,0,37,37,7,1,1,2,,,,,,,,,,,,,,,,,,,,,,,,,,,,,,,,,,,,,,,,,,,,,,,,,,,,,,,,,,,,,,,,,,,,,,,,,,,,,,,,,,,,,,,,,,,,,,,,,,,
,,,,,,,,,,stimuli/images/PICTURE_296.png,CLOCK,5d76cf7be0fc510001e0a3e4,12/08/1955,2020-09-10_05h54.38.199,proactive2,2020.1.2,Win32,60,5f5126bb654d4b30ee6923d8,5f59aff93dcae7213fe87d38,3,,,,,,bolt,,,,,,0,38,38,18,1,2,2,,,,,,,,,,,,,,,,,,,,,,,,,,,,,,,,,,,,,,,,,,,,,,,,,,,,,,,,,,,,,,,,,,,,,,,,,,,,,,,,,,,,,,,,,,,,,,,,,,,
,,,,,,,,,,stimuli/images/PICTURE_215.png,LEADER,5d76cf7be0fc510001e0a3e4,12/08/1955,2020-09-10_05h54.38.199,proactive2,2020.1.2,Win32,60,5f5126bb654d4b30ee6923d8,5f59aff93dcae7213fe87d38,3,,,,,,boot,,,,,,0,39,39,43,1,5,2,,,,,,,,,,,,,,,,,,,,,,,,,,,,,,,,,,,,,,,,,,,,,,,,,,,,,,,,,,,,,,,,,,,,,,,,,,,,,,,,,,,,,,,,,,,,,,,,,,,
,,,,,,,,,,stimuli/images/PICTURE_57.png,NATION,5d76cf7be0fc510001e0a3e4,12/08/1955,2020-09-10_05h54.38.199,proactive2,2020.1.2,Win32,60,5f5126bb654d4b30ee6923d8,5f59aff93dcae7213fe87d38,3,,,,,,stamp,,,,,,0,40,40,21,1,3,2,,,,,,,,,,,,,,,,,,,,,,,,,,,,,,,,,,,,,,,,,,,,,,,,,,,,,,,,,,,,,,,,,,,,,,,,,,,,,,,,,,,,,,,,,,,,,,,,,,,
,,,,,,,,,,stimuli/images/PICTURE_348.png,DUDE,5d76cf7be0fc510001e0a3e4,12/08/1955,2020-09-10_05h54.38.199,proactive2,2020.1.2,Win32,60,5f5126bb654d4b30ee6923d8,5f59aff93dcae7213fe87d38,3,,,,,,pepper,,,,,,0,41,41,59,1,6,2,,,,,,,,,,,,,,,,,,,,,,,,,,,,,,,,,,,,,,,,,,,,,,,,,,,,,,,,,,,,,,,,,,,,,,,,,,,,,,,,,,,,,,,,,,,,,,,,,,,
,,,,,,,,,,stimuli/images/PICTURE_405.png,HOUSE,5d76cf7be0fc510001e0a3e4,12/08/1955,2020-09-10_05h54.38.199,proactive2,2020.1.2,Win32,60,5f5126bb654d4b30ee6923d8,5f59aff93dcae7213fe87d38,3,,,,,,anchor,,,,,,0,42,42,2,1,1,2,,,,,,,,,,,,,,,,,,,,,,,,,,,,,,,,,,,,,,,,,,,,,,,,,,,,,,,,,,,,,,,,,,,,,,,,,,,,,,,,,,,,,,,,,,,,,,,,,,,
,,,,,,,,,,stimuli/images/PICTURE_314.png,SPEECH,5d76cf7be0fc510001e0a3e4,12/08/1955,2020-09-10_05h54.38.199,proactive2,2020.1.2,Win32,60,5f5126bb654d4b30ee6923d8,5f59aff93dcae7213fe87d38,3,,,,,,perfume,,,,,,0,43,43,35,1,4,2,,,,,,,,,,,,,,,,,,,,,,,,,,,,,,,,,,,,,,,,,,,,,,,,,,,,,,,,,,,,,,,,,,,,,,,,,,,,,,,,,,,,,,,,,,,,,,,,,,,
,,,,,,,,,,stimuli/images/PICTURE_509.png,APPLE,5d76cf7be0fc510001e0a3e4,12/08/1955,2020-09-10_05h54.38.199,proactive2,2020.1.2,Win32,60,5f5126bb654d4b30ee6923d8,5f59aff93dcae7213fe87d38,3,,,,,,telephone,,,,,,0,44,44,38,1,4,2,,,,,,,,,,,,,,,,,,,,,,,,,,,,,,,,,,,,,,,,,,,,,,,,,,,,,,,,,,,,,,,,,,,,,,,,,,,,,,,,,,,,,,,,,,,,,,,,,,,
,,,,,,,,,,stimuli/images/PICTURE_33.png,COPS,5d76cf7be0fc510001e0a3e4,12/08/1955,2020-09-10_05h54.38.199,proactive2,2020.1.2,Win32,60,5f5126bb654d4b30ee6923d8,5f59aff93dcae7213fe87d38,3,,,,,,frame,,,,,,0,45,45,29,1,3,2,,,,,,,,,,,,,,,,,,,,,,,,,,,,,,,,,,,,,,,,,,,,,,,,,,,,,,,,,,,,,,,,,,,,,,,,,,,,,,,,,,,,,,,,,,,,,,,,,,,
,,,,,,,,,,stimuli/images/PICTURE_285.png,WRITER,5d76cf7be0fc510001e0a3e4,12/08/1955,2020-09-10_05h54.38.199,proactive2,2020.1.2,Win32,60,5f5126bb654d4b30ee6923d8,5f59aff93dcae7213fe87d38,3,,,,,,carrot,,,,,,0,46,46,6,1,1,2,,,,,,,,,,,,,,,,,,,,,,,,,,,,,,,,,,,,,,,,,,,,,,,,,,,,,,,,,,,,,,,,,,,,,,,,,,,,,,,,,,,,,,,,,,,,,,,,,,,
,,,,,,,,,,stimuli/images/PICTURE_95.png,NIGHT,5d76cf7be0fc510001e0a3e4,12/08/1955,2020-09-10_05h54.38.199,proactive2,2020.1.2,Win32,60,5f5126bb654d4b30ee6923d8,5f59aff93dcae7213fe87d38,3,,,,,,suitcase,,,,,,0,47,47,37,1,4,2,,,,,,,,,,,,,,,,,,,,,,,,,,,,,,,,,,,,,,,,,,,,,,,,,,,,,,,,,,,,,,,,,,,,,,,,,,,,,,,,,,,,,,,,,,,,,,,,,,,
,,,,,,,,,,stimuli/images/PICTURE_32.png,LETTER,5d76cf7be0fc510001e0a3e4,12/08/1955,2020-09-10_05h54.38.199,proactive2,2020.1.2,Win32,60,5f5126bb654d4b30ee6923d8,5f59aff93dcae7213fe87d38,3,,,,,,crown,,,,,,0,48,48,56,1,6,2,,,,,,,,,,,,,,,,,,,,,,,,,,,,,,,,,,,,,,,,,,,,,,,,,,,,,,,,,,,,,,,,,,,,,,,,,,,,,,,,,,,,,,,,,,,,,,,,,,,
,,,,,,,,,,stimuli/images/PICTURE_18.png,RIVER,5d76cf7be0fc510001e0a3e4,12/08/1955,2020-09-10_05h54.38.199,proactive2,2020.1.2,Win32,60,5f5126bb654d4b30ee6923d8,5f59aff93dcae7213fe87d38,3,,,,,,planet,,,,,,0,49,49,22,1,3,2,,,,,,,,,,,,,,,,,,,,,,,,,,,,,,,,,,,,,,,,,,,,,,,,,,,,,,,,,,,,,,,,,,,,,,,,,,,,,,,,,,,,,,,,,,,,,,,,,,,
,,,,,,,,,,stimuli/images/PICTURE_285.png,PRINCE,5d76cf7be0fc510001e0a3e4,12/08/1955,2020-09-10_05h54.38.199,proactive2,2020.1.2,Win32,60,5f5126bb654d4b30ee6923d8,5f59aff93dcae7213fe87d38,3,,,,,,carrot,,,,,,0,50,50,20,1,3,2,,,,,,,,,,,,,,,,,,,,,,,,,,,,,,,,,,,,,,,,,,,,,,,,,,,,,,,,,,,,,,,,,,,,,,,,,,,,,,,,,,,,,,,,,,,,,,,,,,,
