consent_key.keys,consent_key.rt,recalled,recalled_rt,recall_acc,example_recall.thisRepN,example_recall.thisTrialN,example_recall.thisN,example_recall.thisIndex,example_recall.ran,file,word,participant,please enter your date of birth (dd/mm/yyyy),date,expName,psychopyVersion,OS,frameRate,STUDY_ID,SESSION_ID,list,prac_learn_study_loop.thisRepN,prac_learn_study_loop.thisTrialN,prac_learn_study_loop.thisN,prac_learn_study_loop.thisIndex,prac_learn_study_loop.ran,image,prac_learn_test_loop.thisRepN,prac_learn_test_loop.thisTrialN,prac_learn_test_loop.thisN,prac_learn_test_loop.thisIndex,prac_learn_test_loop.ran,learn_study_loop.thisRepN,learn_study_loop.thisTrialN,learn_study_loop.thisN,learn_study_loop.thisIndex,learn_study_loop.ran,list_no,block_no,learn_test_loop.thisRepN,learn_test_loop.thisTrialN,learn_test_loop.thisN,learn_test_loop.thisIndex,learn_test_loop.ran,learn_blocks.thisRepN,learn_blocks.thisTrialN,learn_blocks.thisN,learn_blocks.thisIndex,learn_blocks.ran,block_csv,key_resp_13.keys,key_resp_13.rt,learn_blocks_loop.thisRepN,learn_blocks_loop.thisTrialN,learn_blocks_loop.thisN,learn_blocks_loop.thisIndex,learn_blocks_loop.ran,final_learn_test.thisRepN,final_learn_test.thisTrialN,final_learn_test.thisN,final_learn_test.thisIndex,final_learn_test.ran,s_im1,s_im2,s_im3,s_im4,s_im5,s_im6,s_im7,s_im8,s_im1pos,s_im2pos,s_im3pos,s_im4pos,s_im5pos,s_im6pos,s_im7pos,s_im8pos,s_tarright,search_resp.keys,search_loop.thisRepN,search_loop.thisTrialN,search_loop.thisN,search_loop.thisIndex,search_loop.ran,search_resp.rt,prac_wm_test_loop.thisRepN,prac_wm_test_loop.thisTrialN,prac_wm_test_loop.thisN,prac_wm_test_loop.thisIndex,prac_wm_test_loop.ran,wm_recalled1,wm_recall_rt1,wm_probed1,wm_recall_acc1,wm_recalled2,wm_recall_rt2,wm_probed2,wm_recall_acc2,wm_recalled3,wm_recall_rt3,wm_probed3,wm_recall_acc3,wm_recalled4,wm_recall_rt4,wm_probed4,wm_recall_acc4,prac_wm_trial_loop.thisRepN,prac_wm_trial_loop.thisTrialN,prac_wm_trial_loop.thisN,prac_wm_trial_loop.thisIndex,prac_wm_trial_loop.ran,word1,image1,file1,item_type1,word2,image2,file2,item_type2,word4,image4,file4,item_type4,word3,image3,file3,item_type3,wm_test_loop.thisRepN,wm_test_loop.thisTrialN,wm_test_loop.thisN,wm_test_loop.thisIndex,wm_test_loop.ran,wm_trial_loop.thisRepN,wm_trial_loop.thisTrialN,wm_trial_loop.thisN,wm_trial_loop.thisIndex,wm_trial_loop.ran
y,296.938065,TOUGH,11.280505,1,0,0,0,0,1,stimuli/images/PICTURE_747.png,TOUGH,5dc9f3a0e2633171257d503e,31/03/1953,2020-09-09_23h23.13.144,proactive2,2020.1.2,Win32,60,5f5126bb654d4b30ee6923d8,5f599b758d367e2049aee6e5,1,,,,,,,,,,,,,,,,,,,,,,,,,,,,,,,,,,,,,,,,,,,,,,,,,,,,,,,,,,,,,,,,,,,,,,,,,,,,,,,,,,,,,,,,,,,,,,,,,,,,,,,,,,,,,,,,,,,,,
,,,,,,,,,,stimuli/images/PICTURE_269.png,GENIUS,5dc9f3a0e2633171257d503e,31/03/1953,2020-09-09_23h23.13.144,proactive2,2020.1.2,Win32,60,5f5126bb654d4b30ee6923d8,5f599b758d367e2049aee6e5,1,0,0,0,0,1,chameleon,,,,,,,,,,,,,,,,,,,,,,,,,,,,,,,,,,,,,,,,,,,,,,,,,,,,,,,,,,,,,,,,,,,,,,,,,,,,,,,,,,,,,,,,,,,,,,,,,,,,,,,,,,,,,,,
,,,,,,,,,,stimuli/images/PICTURE_697.png,KILLER,5dc9f3a0e2633171257d503e,31/03/1953,2020-09-09_23h23.13.144,proactive2,2020.1.2,Win32,60,5f5126bb654d4b30ee6923d8,5f599b758d367e2049aee6e5,1,0,1,1,4,1,peach,,,,,,,,,,,,,,,,,,,,,,,,,,,,,,,,,,,,,,,,,,,,,,,,,,,,,,,,,,,,,,,,,,,,,,,,,,,,,,,,,,,,,,,,,,,,,,,,,,,,,,,,,,,,,,,
,,,,,,,,,,stimuli/images/PICTURE_727.png,CELL,5dc9f3a0e2633171257d503e,31/03/1953,2020-09-09_23h23.13.144,proactive2,2020.1.2,Win32,60,5f5126bb654d4b30ee6923d8,5f599b758d367e2049aee6e5,1,0,2,2,1,1,hose,,,,,,,,,,,,,,,,,,,,,,,,,,,,,,,,,,,,,,,,,,,,,,,,,,,,,,,,,,,,,,,,,,,,,,,,,,,,,,,,,,,,,,,,,,,,,,,,,,,,,,,,,,,,,,,
,,,,,,,,,,stimuli/images/PICTURE_378.png,LOSS,5dc9f3a0e2633171257d503e,31/03/1953,2020-09-09_23h23.13.144,proactive2,2020.1.2,Win32,60,5f5126bb654d4b30ee6923d8,5f599b758d367e2049aee6e5,1,0,3,3,2,1,lobster,,,,,,,,,,,,,,,,,,,,,,,,,,,,,,,,,,,,,,,,,,,,,,,,,,,,,,,,,,,,,,,,,,,,,,,,,,,,,,,,,,,,,,,,,,,,,,,,,,,,,,,,,,,,,,,
,,KILLER,12.52355,0,,,,,,stimuli/images/PICTURE_378.png,LOSS,5dc9f3a0e2633171257d503e,31/03/1953,2020-09-09_23h23.13.144,proactive2,2020.1.2,Win32,60,5f5126bb654d4b30ee6923d8,5f599b758d367e2049aee6e5,1,,,,,,lobster,0,0,0,2,1,,,,,,,,,,,,,,,,,,,,,,,,,,,,,,,,,,,,,,,,,,,,,,,,,,,,,,,,,,,,,,,,,,,,,,,,,,,,,,,,,,,,,,,,,,,,,,,,,,,,,,,,,,
,,GENIUS,13.410025,1,,,,,,stimuli/images/PICTURE_269.png,GENIUS,5dc9f3a0e2633171257d503e,31/03/1953,2020-09-09_23h23.13.144,proactive2,2020.1.2,Win32,60,5f5126bb654d4b30ee6923d8,5f599b758d367e2049aee6e5,1,,,,,,chameleon,0,1,1,0,1,,,,,,,,,,,,,,,,,,,,,,,,,,,,,,,,,,,,,,,,,,,,,,,,,,,,,,,,,,,,,,,,,,,,,,,,,,,,,,,,,,,,,,,,,,,,,,,,,,,,,,,,,,
,,LOSS,8.601655,0,,,,,,stimuli/images/PICTURE_727.png,CELL,5dc9f3a0e2633171257d503e,31/03/1953,2020-09-09_23h23.13.144,proactive2,2020.1.2,Win32,60,5f5126bb654d4b30ee6923d8,5f599b758d367e2049aee6e5,1,,,,,,hose,0,2,2,1,1,,,,,,,,,,,,,,,,,,,,,,,,,,,,,,,,,,,,,,,,,,,,,,,,,,,,,,,,,,,,,,,,,,,,,,,,,,,,,,,,,,,,,,,,,,,,,,,,,,,,,,,,,,
,,GENIOUS,14.525075,0,,,,,,stimuli/images/PICTURE_697.png,KILLER,5dc9f3a0e2633171257d503e,31/03/1953,2020-09-09_23h23.13.144,proactive2,2020.1.2,Win32,60,5f5126bb654d4b30ee6923d8,5f599b758d367e2049aee6e5,1,,,,,,peach,0,3,3,4,1,,,,,,,,,,,,,,,,,,,,,,,,,,,,,,,,,,,,,,,,,,,,,,,,,,,,,,,,,,,,,,,,,,,,,,,,,,,,,,,,,,,,,,,,,,,,,,,,,,,,,,,,,,
,,D,15.00738,0,,,,,,stimuli/images/PICTURE_658.png,DEVIL,5dc9f3a0e2633171257d503e,31/03/1953,2020-09-09_23h23.13.144,proactive2,2020.1.2,Win32,60,5f5126bb654d4b30ee6923d8,5f599b758d367e2049aee6e5,1,,,,,,crow,0,4,4,3,1,,,,,,,,,,,,,,,,,,,,,,,,,,,,,,,,,,,,,,,,,,,,,,,,,,,,,,,,,,,,,,,,,,,,,,,,,,,,,,,,,,,,,,,,,,,,,,,,,,,,,,,,,,
,,,,,,,,,,stimuli/images/PICTURE_677.png,FAMILY,5dc9f3a0e2633171257d503e,31/03/1953,2020-09-09_23h23.13.144,proactive2,2020.1.2,Win32,60,5f5126bb654d4b30ee6923d8,5f599b758d367e2049aee6e5,1,,,,,,map,,,,,,0,0,0,53,1,6,2,,,,,,,,,,,,,,,,,,,,,,,,,,,,,,,,,,,,,,,,,,,,,,,,,,,,,,,,,,,,,,,,,,,,,,,,,,,,,,,,,,,,,,,,,,,,,,,,,,,
,,,,,,,,,,stimuli/images/PICTURE_311.png,FLESH,5dc9f3a0e2633171257d503e,31/03/1953,2020-09-09_23h23.13.144,proactive2,2020.1.2,Win32,60,5f5126bb654d4b30ee6923d8,5f599b758d367e2049aee6e5,1,,,,,,razor,,,,,,0,1,1,3,1,1,2,,,,,,,,,,,,,,,,,,,,,,,,,,,,,,,,,,,,,,,,,,,,,,,,,,,,,,,,,,,,,,,,,,,,,,,,,,,,,,,,,,,,,,,,,,,,,,,,,,,
,,,,,,,,,,stimuli/images/PICTURE_470.png,BEAUTY,5dc9f3a0e2633171257d503e,31/03/1953,2020-09-09_23h23.13.144,proactive2,2020.1.2,Win32,60,5f5126bb654d4b30ee6923d8,5f599b758d367e2049aee6e5,1,,,,,,motorbike,,,,,,0,2,2,26,1,3,2,,,,,,,,,,,,,,,,,,,,,,,,,,,,,,,,,,,,,,,,,,,,,,,,,,,,,,,,,,,,,,,,,,,,,,,,,,,,,,,,,,,,,,,,,,,,,,,,,,,
,,,,,,,,,,stimuli/images/PICTURE_285.png,PRINCE,5dc9f3a0e2633171257d503e,31/03/1953,2020-09-09_23h23.13.144,proactive2,2020.1.2,Win32,60,5f5126bb654d4b30ee6923d8,5f599b758d367e2049aee6e5,1,,,,,,carrot,,,,,,0,3,3,20,1,3,2,,,,,,,,,,,,,,,,,,,,,,,,,,,,,,,,,,,,,,,,,,,,,,,,,,,,,,,,,,,,,,,,,,,,,,,,,,,,,,,,,,,,,,,,,,,,,,,,,,,
,,,,,,,,,,stimuli/images/PICTURE_208.png,SPIRIT,5dc9f3a0e2633171257d503e,31/03/1953,2020-09-09_23h23.13.144,proactive2,2020.1.2,Win32,60,5f5126bb654d4b30ee6923d8,5f599b758d367e2049aee6e5,1,,,,,,microphone,,,,,,0,4,4,28,1,3,2,,,,,,,,,,,,,,,,,,,,,,,,,,,,,,,,,,,,,,,,,,,,,,,,,,,,,,,,,,,,,,,,,,,,,,,,,,,,,,,,,,,,,,,,,,,,,,,,,,,
,,,,,,,,,,stimuli/images/PICTURE_487.png,ROOF,5dc9f3a0e2633171257d503e,31/03/1953,2020-09-09_23h23.13.144,proactive2,2020.1.2,Win32,60,5f5126bb654d4b30ee6923d8,5f599b758d367e2049aee6e5,1,,,,,,basket,,,,,,0,5,5,50,1,6,2,,,,,,,,,,,,,,,,,,,,,,,,,,,,,,,,,,,,,,,,,,,,,,,,,,,,,,,,,,,,,,,,,,,,,,,,,,,,,,,,,,,,,,,,,,,,,,,,,,,
,,,,,,,,,,stimuli/images/PICTURE_215.png,LEADER,5dc9f3a0e2633171257d503e,31/03/1953,2020-09-09_23h23.13.144,proactive2,2020.1.2,Win32,60,5f5126bb654d4b30ee6923d8,5f599b758d367e2049aee6e5,1,,,,,,boot,,,,,,0,6,6,43,1,5,2,,,,,,,,,,,,,,,,,,,,,,,,,,,,,,,,,,,,,,,,,,,,,,,,,,,,,,,,,,,,,,,,,,,,,,,,,,,,,,,,,,,,,,,,,,,,,,,,,,,
,,,,,,,,,,stimuli/images/PICTURE_57.png,NATION,5dc9f3a0e2633171257d503e,31/03/1953,2020-09-09_23h23.13.144,proactive2,2020.1.2,Win32,60,5f5126bb654d4b30ee6923d8,5f599b758d367e2049aee6e5,1,,,,,,stamp,,,,,,0,7,7,21,1,3,2,,,,,,,,,,,,,,,,,,,,,,,,,,,,,,,,,,,,,,,,,,,,,,,,,,,,,,,,,,,,,,,,,,,,,,,,,,,,,,,,,,,,,,,,,,,,,,,,,,,
,,,,,,,,,,stimuli/images/PICTURE_509.png,APPLE,5dc9f3a0e2633171257d503e,31/03/1953,2020-09-09_23h23.13.144,proactive2,2020.1.2,Win32,60,5f5126bb654d4b30ee6923d8,5f599b758d367e2049aee6e5,1,,,,,,telephone,,,,,,0,8,8,38,1,4,2,,,,,,,,,,,,,,,,,,,,,,,,,,,,,,,,,,,,,,,,,,,,,,,,,,,,,,,,,,,,,,,,,,,,,,,,,,,,,,,,,,,,,,,,,,,,,,,,,,,
,,,,,,,,,,stimuli/images/PICTURE_504.png,HOUSE,5dc9f3a0e2633171257d503e,31/03/1953,2020-09-09_23h23.13.144,proactive2,2020.1.2,Win32,60,5f5126bb654d4b30ee6923d8,5f599b758d367e2049aee6e5,1,,,,,,wheel,,,,,,0,9,9,36,1,4,2,,,,,,,,,,,,,,,,,,,,,,,,,,,,,,,,,,,,,,,,,,,,,,,,,,,,,,,,,,,,,,,,,,,,,,,,,,,,,,,,,,,,,,,,,,,,,,,,,,,
,,,,,,,,,,stimuli/images/PICTURE_348.png,TOILET,5dc9f3a0e2633171257d503e,31/03/1953,2020-09-09_23h23.13.144,proactive2,2020.1.2,Win32,60,5f5126bb654d4b30ee6923d8,5f599b758d367e2049aee6e5,1,,,,,,pepper,,,,,,0,10,10,4,1,1,2,,,,,,,,,,,,,,,,,,,,,,,,,,,,,,,,,,,,,,,,,,,,,,,,,,,,,,,,,,,,,,,,,,,,,,,,,,,,,,,,,,,,,,,,,,,,,,,,,,,
,,,,,,,,,,stimuli/images/PICTURE_327.png,LEADER,5dc9f3a0e2633171257d503e,31/03/1953,2020-09-09_23h23.13.144,proactive2,2020.1.2,Win32,60,5f5126bb654d4b30ee6923d8,5f599b758d367e2049aee6e5,1,,,,,,helmet,,,,,,0,11,11,17,1,2,2,,,,,,,,,,,,,,,,,,,,,,,,,,,,,,,,,,,,,,,,,,,,,,,,,,,,,,,,,,,,,,,,,,,,,,,,,,,,,,,,,,,,,,,,,,,,,,,,,,,
,,,,,,,,,,stimuli/images/PICTURE_32.png,LETTER,5dc9f3a0e2633171257d503e,31/03/1953,2020-09-09_23h23.13.144,proactive2,2020.1.2,Win32,60,5f5126bb654d4b30ee6923d8,5f599b758d367e2049aee6e5,1,,,,,,crown,,,,,,0,12,12,56,1,6,2,,,,,,,,,,,,,,,,,,,,,,,,,,,,,,,,,,,,,,,,,,,,,,,,,,,,,,,,,,,,,,,,,,,,,,,,,,,,,,,,,,,,,,,,,,,,,,,,,,,
,,,,,,,,,,stimuli/images/PICTURE_57.png,CANDY,5dc9f3a0e2633171257d503e,31/03/1953,2020-09-09_23h23.13.144,proactive2,2020.1.2,Win32,60,5f5126bb654d4b30ee6923d8,5f599b758d367e2049aee6e5,1,,,,,,stamp,,,,,,0,13,13,52,1,6,2,,,,,,,,,,,,,,,,,,,,,,,,,,,,,,,,,,,,,,,,,,,,,,,,,,,,,,,,,,,,,,,,,,,,,,,,,,,,,,,,,,,,,,,,,,,,,,,,,,,
,,,,,,,,,,stimuli/images/PICTURE_509.png,SHOTS,5dc9f3a0e2633171257d503e,31/03/1953,2020-09-09_23h23.13.144,proactive2,2020.1.2,Win32,60,5f5126bb654d4b30ee6923d8,5f599b758d367e2049aee6e5,1,,,,,,telephone,,,,,,0,14,14,7,1,1,2,,,,,,,,,,,,,,,,,,,,,,,,,,,,,,,,,,,,,,,,,,,,,,,,,,,,,,,,,,,,,,,,,,,,,,,,,,,,,,,,,,,,,,,,,,,,,,,,,,,
,,,,,,,,,,stimuli/images/PICTURE_123.png,SALE,5dc9f3a0e2633171257d503e,31/03/1953,2020-09-09_23h23.13.144,proactive2,2020.1.2,Win32,60,5f5126bb654d4b30ee6923d8,5f599b758d367e2049aee6e5,1,,,,,,dart,,,,,,0,15,15,8,1,1,2,,,,,,,,,,,,,,,,,,,,,,,,,,,,,,,,,,,,,,,,,,,,,,,,,,,,,,,,,,,,,,,,,,,,,,,,,,,,,,,,,,,,,,,,,,,,,,,,,,,
,,,,,,,,,,stimuli/images/PICTURE_708.png,VALLEY,5dc9f3a0e2633171257d503e,31/03/1953,2020-09-09_23h23.13.144,proactive2,2020.1.2,Win32,60,5f5126bb654d4b30ee6923d8,5f599b758d367e2049aee6e5,1,,,,,,monkey,,,,,,0,16,16,45,1,5,2,,,,,,,,,,,,,,,,,,,,,,,,,,,,,,,,,,,,,,,,,,,,,,,,,,,,,,,,,,,,,,,,,,,,,,,,,,,,,,,,,,,,,,,,,,,,,,,,,,,
,,,,,,,,,,stimuli/images/PICTURE_677.png,PHOTO,5dc9f3a0e2633171257d503e,31/03/1953,2020-09-09_23h23.13.144,proactive2,2020.1.2,Win32,60,5f5126bb654d4b30ee6923d8,5f599b758d367e2049aee6e5,1,,,,,,map,,,,,,0,17,17,14,1,2,2,,,,,,,,,,,,,,,,,,,,,,,,,,,,,,,,,,,,,,,,,,,,,,,,,,,,,,,,,,,,,,,,,,,,,,,,,,,,,,,,,,,,,,,,,,,,,,,,,,,
,,,,,,,,,,stimuli/images/PICTURE_405.png,JUNGLE,5dc9f3a0e2633171257d503e,31/03/1953,2020-09-09_23h23.13.144,proactive2,2020.1.2,Win32,60,5f5126bb654d4b30ee6923d8,5f599b758d367e2049aee6e5,1,,,,,,anchor,,,,,,0,18,18,58,1,6,2,,,,,,,,,,,,,,,,,,,,,,,,,,,,,,,,,,,,,,,,,,,,,,,,,,,,,,,,,,,,,,,,,,,,,,,,,,,,,,,,,,,,,,,,,,,,,,,,,,,
,,,,,,,,,,stimuli/images/PICTURE_405.png,HOUSE,5dc9f3a0e2633171257d503e,31/03/1953,2020-09-09_23h23.13.144,proactive2,2020.1.2,Win32,60,5f5126bb654d4b30ee6923d8,5f599b758d367e2049aee6e5,1,,,,,,anchor,,,,,,0,19,19,2,1,1,2,,,,,,,,,,,,,,,,,,,,,,,,,,,,,,,,,,,,,,,,,,,,,,,,,,,,,,,,,,,,,,,,,,,,,,,,,,,,,,,,,,,,,,,,,,,,,,,,,,,
,,,,,,,,,,stimuli/images/PICTURE_491.png,SERIES,5dc9f3a0e2633171257d503e,31/03/1953,2020-09-09_23h23.13.144,proactive2,2020.1.2,Win32,60,5f5126bb654d4b30ee6923d8,5f599b758d367e2049aee6e5,1,,,,,,rug,,,,,,0,20,20,39,1,4,2,,,,,,,,,,,,,,,,,,,,,,,,,,,,,,,,,,,,,,,,,,,,,,,,,,,,,,,,,,,,,,,,,,,,,,,,,,,,,,,,,,,,,,,,,,,,,,,,,,,
,,,,,,,,,,stimuli/images/PICTURE_255.png,PENNY,5dc9f3a0e2633171257d503e,31/03/1953,2020-09-09_23h23.13.144,proactive2,2020.1.2,Win32,60,5f5126bb654d4b30ee6923d8,5f599b758d367e2049aee6e5,1,,,,,,shovel,,,,,,0,21,21,19,1,2,2,,,,,,,,,,,,,,,,,,,,,,,,,,,,,,,,,,,,,,,,,,,,,,,,,,,,,,,,,,,,,,,,,,,,,,,,,,,,,,,,,,,,,,,,,,,,,,,,,,,
,,,,,,,,,,stimuli/images/PICTURE_160.png,HOTEL,5dc9f3a0e2633171257d503e,31/03/1953,2020-09-09_23h23.13.144,proactive2,2020.1.2,Win32,60,5f5126bb654d4b30ee6923d8,5f599b758d367e2049aee6e5,1,,,,,,wheelbarrow,,,,,,0,22,22,16,1,2,2,,,,,,,,,,,,,,,,,,,,,,,,,,,,,,,,,,,,,,,,,,,,,,,,,,,,,,,,,,,,,,,,,,,,,,,,,,,,,,,,,,,,,,,,,,,,,,,,,,,
,,,,,,,,,,stimuli/images/PICTURE_285.png,WRITER,5dc9f3a0e2633171257d503e,31/03/1953,2020-09-09_23h23.13.144,proactive2,2020.1.2,Win32,60,5f5126bb654d4b30ee6923d8,5f599b758d367e2049aee6e5,1,,,,,,carrot,,,,,,0,23,23,6,1,1,2,,,,,,,,,,,,,,,,,,,,,,,,,,,,,,,,,,,,,,,,,,,,,,,,,,,,,,,,,,,,,,,,,,,,,,,,,,,,,,,,,,,,,,,,,,,,,,,,,,,
,,,,,,,,,,stimuli/images/PICTURE_403.png,FAMILY,5dc9f3a0e2633171257d503e,31/03/1953,2020-09-09_23h23.13.144,proactive2,2020.1.2,Win32,60,5f5126bb654d4b30ee6923d8,5f599b758d367e2049aee6e5,1,,,,,,cathedral,,,,,,0,24,24,9,1,1,2,,,,,,,,,,,,,,,,,,,,,,,,,,,,,,,,,,,,,,,,,,,,,,,,,,,,,,,,,,,,,,,,,,,,,,,,,,,,,,,,,,,,,,,,,,,,,,,,,,,
,,,,,,,,,,stimuli/images/PICTURE_18.png,RIVER,5dc9f3a0e2633171257d503e,31/03/1953,2020-09-09_23h23.13.144,proactive2,2020.1.2,Win32,60,5f5126bb654d4b30ee6923d8,5f599b758d367e2049aee6e5,1,,,,,,planet,,,,,,0,25,25,22,1,3,2,,,,,,,,,,,,,,,,,,,,,,,,,,,,,,,,,,,,,,,,,,,,,,,,,,,,,,,,,,,,,,,,,,,,,,,,,,,,,,,,,,,,,,,,,,,,,,,,,,,
,,,,,,,,,,stimuli/images/PICTURE_667.png,GLASS,5dc9f3a0e2633171257d503e,31/03/1953,2020-09-09_23h23.13.144,proactive2,2020.1.2,Win32,60,5f5126bb654d4b30ee6923d8,5f599b758d367e2049aee6e5,1,,,,,,daisy,,,,,,0,26,26,27,1,3,2,,,,,,,,,,,,,,,,,,,,,,,,,,,,,,,,,,,,,,,,,,,,,,,,,,,,,,,,,,,,,,,,,,,,,,,,,,,,,,,,,,,,,,,,,,,,,,,,,,,
,,,,,,,,,,stimuli/images/PICTURE_33.png,COPS,5dc9f3a0e2633171257d503e,31/03/1953,2020-09-09_23h23.13.144,proactive2,2020.1.2,Win32,60,5f5126bb654d4b30ee6923d8,5f599b758d367e2049aee6e5,1,,,,,,frame,,,,,,0,27,27,29,1,3,2,,,,,,,,,,,,,,,,,,,,,,,,,,,,,,,,,,,,,,,,,,,,,,,,,,,,,,,,,,,,,,,,,,,,,,,,,,,,,,,,,,,,,,,,,,,,,,,,,,,
,,,,,,,,,,stimuli/images/PICTURE_2.png,AREA,5dc9f3a0e2633171257d503e,31/03/1953,2020-09-09_23h23.13.144,proactive2,2020.1.2,Win32,60,5f5126bb654d4b30ee6923d8,5f599b758d367e2049aee6e5,1,,,,,,tyre,,,,,,0,28,28,32,1,4,2,,,,,,,,,,,,,,,,,,,,,,,,,,,,,,,,,,,,,,,,,,,,,,,,,,,,,,,,,,,,,,,,,,,,,,,,,,,,,,,,,,,,,,,,,,,,,,,,,,,
,,,,,,,,,,stimuli/images/PICTURE_564.png,PLENTY,5dc9f3a0e2633171257d503e,31/03/1953,2020-09-09_23h23.13.144,proactive2,2020.1.2,Win32,60,5f5126bb654d4b30ee6923d8,5f599b758d367e2049aee6e5,1,,,,,,spoon,,,,,,0,29,29,11,1,2,2,,,,,,,,,,,,,,,,,,,,,,,,,,,,,,,,,,,,,,,,,,,,,,,,,,,,,,,,,,,,,,,,,,,,,,,,,,,,,,,,,,,,,,,,,,,,,,,,,,,
,,,,,,,,,,stimuli/images/PICTURE_95.png,NIGHT,5dc9f3a0e2633171257d503e,31/03/1953,2020-09-09_23h23.13.144,proactive2,2020.1.2,Win32,60,5f5126bb654d4b30ee6923d8,5f599b758d367e2049aee6e5,1,,,,,,suitcase,,,,,,0,30,30,37,1,4,2,,,,,,,,,,,,,,,,,,,,,,,,,,,,,,,,,,,,,,,,,,,,,,,,,,,,,,,,,,,,,,,,,,,,,,,,,,,,,,,,,,,,,,,,,,,,,,,,,,,
,,,,,,,,,,stimuli/images/PICTURE_509.png,BATH,5dc9f3a0e2633171257d503e,31/03/1953,2020-09-09_23h23.13.144,proactive2,2020.1.2,Win32,60,5f5126bb654d4b30ee6923d8,5f599b758d367e2049aee6e5,1,,,,,,telephone,,,,,,0,31,31,15,1,2,2,,,,,,,,,,,,,,,,,,,,,,,,,,,,,,,,,,,,,,,,,,,,,,,,,,,,,,,,,,,,,,,,,,,,,,,,,,,,,,,,,,,,,,,,,,,,,,,,,,,
,,,,,,,,,,stimuli/images/PICTURE_141.png,CLIENT,5dc9f3a0e2633171257d503e,31/03/1953,2020-09-09_23h23.13.144,proactive2,2020.1.2,Win32,60,5f5126bb654d4b30ee6923d8,5f599b758d367e2049aee6e5,1,,,,,,sunflower,,,,,,0,32,32,30,1,4,2,,,,,,,,,,,,,,,,,,,,,,,,,,,,,,,,,,,,,,,,,,,,,,,,,,,,,,,,,,,,,,,,,,,,,,,,,,,,,,,,,,,,,,,,,,,,,,,,,,,
,,,,,,,,,,stimuli/images/PICTURE_314.png,SPEECH,5dc9f3a0e2633171257d503e,31/03/1953,2020-09-09_23h23.13.144,proactive2,2020.1.2,Win32,60,5f5126bb654d4b30ee6923d8,5f599b758d367e2049aee6e5,1,,,,,,perfume,,,,,,0,33,33,35,1,4,2,,,,,,,,,,,,,,,,,,,,,,,,,,,,,,,,,,,,,,,,,,,,,,,,,,,,,,,,,,,,,,,,,,,,,,,,,,,,,,,,,,,,,,,,,,,,,,,,,,,
,,,,,,,,,,stimuli/images/PICTURE_93.png,GIRL,5dc9f3a0e2633171257d503e,31/03/1953,2020-09-09_23h23.13.144,proactive2,2020.1.2,Win32,60,5f5126bb654d4b30ee6923d8,5f599b758d367e2049aee6e5,1,,,,,,skateboard,,,,,,0,34,34,31,1,4,2,,,,,,,,,,,,,,,,,,,,,,,,,,,,,,,,,,,,,,,,,,,,,,,,,,,,,,,,,,,,,,,,,,,,,,,,,,,,,,,,,,,,,,,,,,,,,,,,,,,
,,,,,,,,,,stimuli/images/PICTURE_405.png,JUNGLE,5dc9f3a0e2633171257d503e,31/03/1953,2020-09-09_23h23.13.144,proactive2,2020.1.2,Win32,60,5f5126bb654d4b30ee6923d8,5f599b758d367e2049aee6e5,1,,,,,,anchor,,,,,,0,35,35,13,1,2,2,,,,,,,,,,,,,,,,,,,,,,,,,,,,,,,,,,,,,,,,,,,,,,,,,,,,,,,,,,,,,,,,,,,,,,,,,,,,,,,,,,,,,,,,,,,,,,,,,,,
,,,,,,,,,,stimuli/images/PICTURE_311.png,TOILET,5dc9f3a0e2633171257d503e,31/03/1953,2020-09-09_23h23.13.144,proactive2,2020.1.2,Win32,60,5f5126bb654d4b30ee6923d8,5f599b758d367e2049aee6e5,1,,,,,,razor,,,,,,0,36,36,54,1,6,2,,,,,,,,,,,,,,,,,,,,,,,,,,,,,,,,,,,,,,,,,,,,,,,,,,,,,,,,,,,,,,,,,,,,,,,,,,,,,,,,,,,,,,,,,,,,,,,,,,,
,,,,,,,,,,stimuli/images/PICTURE_356.png,CANDY,5dc9f3a0e2633171257d503e,31/03/1953,2020-09-09_23h23.13.144,proactive2,2020.1.2,Win32,60,5f5126bb654d4b30ee6923d8,5f599b758d367e2049aee6e5,1,,,,,,pawn,,,,,,0,37,37,46,1,5,2,,,,,,,,,,,,,,,,,,,,,,,,,,,,,,,,,,,,,,,,,,,,,,,,,,,,,,,,,,,,,,,,,,,,,,,,,,,,,,,,,,,,,,,,,,,,,,,,,,,
,,,,,,,,,,stimuli/images/PICTURE_750.png,POLICY,5dc9f3a0e2633171257d503e,31/03/1953,2020-09-09_23h23.13.144,proactive2,2020.1.2,Win32,60,5f5126bb654d4b30ee6923d8,5f599b758d367e2049aee6e5,1,,,,,,kettle,,,,,,0,38,38,44,1,5,2,,,,,,,,,,,,,,,,,,,,,,,,,,,,,,,,,,,,,,,,,,,,,,,,,,,,,,,,,,,,,,,,,,,,,,,,,,,,,,,,,,,,,,,,,,,,,,,,,,,
,,,,,,,,,,stimuli/images/PICTURE_453.png,FAMILY,5dc9f3a0e2633171257d503e,31/03/1953,2020-09-09_23h23.13.144,proactive2,2020.1.2,Win32,60,5f5126bb654d4b30ee6923d8,5f599b758d367e2049aee6e5,1,,,,,,scissors,,,,,,0,39,39,48,1,5,2,,,,,,,,,,,,,,,,,,,,,,,,,,,,,,,,,,,,,,,,,,,,,,,,,,,,,,,,,,,,,,,,,,,,,,,,,,,,,,,,,,,,,,,,,,,,,,,,,,,
,,,,,,,,,,stimuli/images/PICTURE_509.png,MILLER,5dc9f3a0e2633171257d503e,31/03/1953,2020-09-09_23h23.13.144,proactive2,2020.1.2,Win32,60,5f5126bb654d4b30ee6923d8,5f599b758d367e2049aee6e5,1,,,,,,telephone,,,,,,0,40,40,49,1,5,2,,,,,,,,,,,,,,,,,,,,,,,,,,,,,,,,,,,,,,,,,,,,,,,,,,,,,,,,,,,,,,,,,,,,,,,,,,,,,,,,,,,,,,,,,,,,,,,,,,,
,,,,,,,,,,stimuli/images/PICTURE_487.png,POLICY,5dc9f3a0e2633171257d503e,31/03/1953,2020-09-09_23h23.13.144,proactive2,2020.1.2,Win32,60,5f5126bb654d4b30ee6923d8,5f599b758d367e2049aee6e5,1,,,,,,basket,,,,,,0,41,41,34,1,4,2,,,,,,,,,,,,,,,,,,,,,,,,,,,,,,,,,,,,,,,,,,,,,,,,,,,,,,,,,,,,,,,,,,,,,,,,,,,,,,,,,,,,,,,,,,,,,,,,,,,
,,,,,,,,,,stimuli/images/PICTURE_470.png,MOMENT,5dc9f3a0e2633171257d503e,31/03/1953,2020-09-09_23h23.13.144,proactive2,2020.1.2,Win32,60,5f5126bb654d4b30ee6923d8,5f599b758d367e2049aee6e5,1,,,,,,motorbike,,,,,,0,42,42,40,1,5,2,,,,,,,,,,,,,,,,,,,,,,,,,,,,,,,,,,,,,,,,,,,,,,,,,,,,,,,,,,,,,,,,,,,,,,,,,,,,,,,,,,,,,,,,,,,,,,,,,,,
,,,,,,,,,,stimuli/images/PICTURE_215.png,FOOD,5dc9f3a0e2633171257d503e,31/03/1953,2020-09-09_23h23.13.144,proactive2,2020.1.2,Win32,60,5f5126bb654d4b30ee6923d8,5f599b758d367e2049aee6e5,1,,,,,,boot,,,,,,0,43,43,5,1,1,2,,,,,,,,,,,,,,,,,,,,,,,,,,,,,,,,,,,,,,,,,,,,,,,,,,,,,,,,,,,,,,,,,,,,,,,,,,,,,,,,,,,,,,,,,,,,,,,,,,,
,,,,,,,,,,stimuli/images/PICTURE_692.png,DUDE,5dc9f3a0e2633171257d503e,31/03/1953,2020-09-09_23h23.13.144,proactive2,2020.1.2,Win32,60,5f5126bb654d4b30ee6923d8,5f599b758d367e2049aee6e5,1,,,,,,cherry,,,,,,0,44,44,47,1,5,2,,,,,,,,,,,,,,,,,,,,,,,,,,,,,,,,,,,,,,,,,,,,,,,,,,,,,,,,,,,,,,,,,,,,,,,,,,,,,,,,,,,,,,,,,,,,,,,,,,,
,,,,,,,,,,stimuli/images/PICTURE_57.png,CASINO,5dc9f3a0e2633171257d503e,31/03/1953,2020-09-09_23h23.13.144,proactive2,2020.1.2,Win32,60,5f5126bb654d4b30ee6923d8,5f599b758d367e2049aee6e5,1,,,,,,stamp,,,,,,0,45,45,12,1,2,2,,,,,,,,,,,,,,,,,,,,,,,,,,,,,,,,,,,,,,,,,,,,,,,,,,,,,,,,,,,,,,,,,,,,,,,,,,,,,,,,,,,,,,,,,,,,,,,,,,,
,,,,,,,,,,stimuli/images/PICTURE_348.png,DUDE,5dc9f3a0e2633171257d503e,31/03/1953,2020-09-09_23h23.13.144,proactive2,2020.1.2,Win32,60,5f5126bb654d4b30ee6923d8,5f599b758d367e2049aee6e5,1,,,,,,pepper,,,,,,0,46,46,59,1,6,2,,,,,,,,,,,,,,,,,,,,,,,,,,,,,,,,,,,,,,,,,,,,,,,,,,,,,,,,,,,,,,,,,,,,,,,,,,,,,,,,,,,,,,,,,,,,,,,,,,,
,,,,,,,,,,stimuli/images/PICTURE_655.png,SALE,5dc9f3a0e2633171257d503e,31/03/1953,2020-09-09_23h23.13.144,proactive2,2020.1.2,Win32,60,5f5126bb654d4b30ee6923d8,5f599b758d367e2049aee6e5,1,,,,,,megaphone,,,,,,0,47,47,57,1,6,2,,,,,,,,,,,,,,,,,,,,,,,,,,,,,,,,,,,,,,,,,,,,,,,,,,,,,,,,,,,,,,,,,,,,,,,,,,,,,,,,,,,,,,,,,,,,,,,,,,,
,,,,,,,,,,stimuli/images/PICTURE_215.png,BOYS,5dc9f3a0e2633171257d503e,31/03/1953,2020-09-09_23h23.13.144,proactive2,2020.1.2,Win32,60,5f5126bb654d4b30ee6923d8,5f599b758d367e2049aee6e5,1,,,,,,boot,,,,,,0,48,48,24,1,3,2,,,,,,,,,,,,,,,,,,,,,,,,,,,,,,,,,,,,,,,,,,,,,,,,,,,,,,,,,,,,,,,,,,,,,,,,,,,,,,,,,,,,,,,,,,,,,,,,,,,
,,,,,,,,,,stimuli/images/PICTURE_654.png,YEAR,5dc9f3a0e2633171257d503e,31/03/1953,2020-09-09_23h23.13.144,proactive2,2020.1.2,Win32,60,5f5126bb654d4b30ee6923d8,5f599b758d367e2049aee6e5,1,,,,,,pencil,,,,,,0,49,49,41,1,5,2,,,,,,,,,,,,,,,,,,,,,,,,,,,,,,,,,,,,,,,,,,,,,,,,,,,,,,,,,,,,,,,,,,,,,,,,,,,,,,,,,,,,,,,,,,,,,,,,,,,
,,,,,,,,,,stimuli/images/PICTURE_68.png,KIND,5dc9f3a0e2633171257d503e,31/03/1953,2020-09-09_23h23.13.144,proactive2,2020.1.2,Win32,60,5f5126bb654d4b30ee6923d8,5f599b758d367e2049aee6e5,1,,,,,,candle,,,,,,0,50,50,23,1,3,2,,,,,,,,,,,,,,,,,,,,,,,,,,,,,,,,,,,,,,,,,,,,,,,,,,,,,,,,,,,,,,,,,,,,,,,,,,,,,,,,,,,,,,,,,,,,,,,,,,,
,,,,,,,,,,stimuli/images/PICTURE_688.png,CLOCK,5dc9f3a0e2633171257d503e,31/03/1953,2020-09-09_23h23.13.144,proactive2,2020.1.2,Win32,60,5f5126bb654d4b30ee6923d8,5f599b758d367e2049aee6e5,1,,,,,,runner,,,,,,0,51,51,42,1,5,2,,,,,,,,,,,,,,,,,,,,,,,,,,,,,,,,,,,,,,,,,,,,,,,,,,,,,,,,,,,,,,,,,,,,,,,,,,,,,,,,,,,,,,,,,,,,,,,,,,,
,,,,,,,,,,stimuli/images/PICTURE_654.png,COPS,5dc9f3a0e2633171257d503e,31/03/1953,2020-09-09_23h23.13.144,proactive2,2020.1.2,Win32,60,5f5126bb654d4b30ee6923d8,5f599b758d367e2049aee6e5,1,,,,,,pencil,,,,,,0,52,52,10,1,2,2,,,,,,,,,,,,,,,,,,,,,,,,,,,,,,,,,,,,,,,,,,,,,,,,,,,,,,,,,,,,,,,,,,,,,,,,,,,,,,,,,,,,,,,,,,,,,,,,,,,
,,,,,,,,,,stimuli/images/PICTURE_296.png,CLOCK,5dc9f3a0e2633171257d503e,31/03/1953,2020-09-09_23h23.13.144,proactive2,2020.1.2,Win32,60,5f5126bb654d4b30ee6923d8,5f599b758d367e2049aee6e5,1,,,,,,bolt,,,,,,0,53,53,18,1,2,2,,,,,,,,,,,,,,,,,,,,,,,,,,,,,,,,,,,,,,,,,,,,,,,,,,,,,,,,,,,,,,,,,,,,,,,,,,,,,,,,,,,,,,,,,,,,,,,,,,,
,,,,,,,,,,stimuli/images/PICTURE_2.png,YARD,5dc9f3a0e2633171257d503e,31/03/1953,2020-09-09_23h23.13.144,proactive2,2020.1.2,Win32,60,5f5126bb654d4b30ee6923d8,5f599b758d367e2049aee6e5,1,,,,,,tyre,,,,,,0,54,54,55,1,6,2,,,,,,,,,,,,,,,,,,,,,,,,,,,,,,,,,,,,,,,,,,,,,,,,,,,,,,,,,,,,,,,,,,,,,,,,,,,,,,,,,,,,,,,,,,,,,,,,,,,
,,,,,,,,,,stimuli/images/PICTURE_147.png,LEADER,5dc9f3a0e2633171257d503e,31/03/1953,2020-09-09_23h23.13.144,proactive2,2020.1.2,Win32,60,5f5126bb654d4b30ee6923d8,5f599b758d367e2049aee6e5,1,,,,,,hanger,,,,,,0,55,55,33,1,4,2,,,,,,,,,,,,,,,,,,,,,,,,,,,,,,,,,,,,,,,,,,,,,,,,,,,,,,,,,,,,,,,,,,,,,,,,,,,,,,,,,,,,,,,,,,,,,,,,,,,
,,,,,,,,,,stimuli/images/PICTURE_2.png,JUNGLE,5dc9f3a0e2633171257d503e,31/03/1953,2020-09-09_23h23.13.144,proactive2,2020.1.2,Win32,60,5f5126bb654d4b30ee6923d8,5f599b758d367e2049aee6e5,1,,,,,,tyre,,,,,,0,56,56,1,1,1,2,,,,,,,,,,,,,,,,,,,,,,,,,,,,,,,,,,,,,,,,,,,,,,,,,,,,,,,,,,,,,,,,,,,,,,,,,,,,,,,,,,,,,,,,,,,,,,,,,,,
,,,,,,,,,,stimuli/images/PICTURE_297.png,BODY,5dc9f3a0e2633171257d503e,31/03/1953,2020-09-09_23h23.13.144,proactive2,2020.1.2,Win32,60,5f5126bb654d4b30ee6923d8,5f599b758d367e2049aee6e5,1,,,,,,aeroplane,,,,,,0,57,57,51,1,6,2,,,,,,,,,,,,,,,,,,,,,,,,,,,,,,,,,,,,,,,,,,,,,,,,,,,,,,,,,,,,,,,,,,,,,,,,,,,,,,,,,,,,,,,,,,,,,,,,,,,
,,,,,,,,,,stimuli/images/PICTURE_452.png,COPS,5dc9f3a0e2633171257d503e,31/03/1953,2020-09-09_23h23.13.144,proactive2,2020.1.2,Win32,60,5f5126bb654d4b30ee6923d8,5f599b758d367e2049aee6e5,1,,,,,,watch,,,,,,0,58,58,0,1,1,2,,,,,,,,,,,,,,,,,,,,,,,,,,,,,,,,,,,,,,,,,,,,,,,,,,,,,,,,,,,,,,,,,,,,,,,,,,,,,,,,,,,,,,,,,,,,,,,,,,,
,,?,0.0014,0,,,,,,stimuli/images/PICTURE_297.png,BODY,5dc9f3a0e2633171257d503e,31/03/1953,2020-09-09_23h23.13.144,proactive2,2020.1.2,Win32,60,5f5126bb654d4b30ee6923d8,5f599b758d367e2049aee6e5,1,,,,,,aeroplane,,,,,,,,,,,6,2,0,0,0,51,1,,,,,,,,,,,,,,,,,,,,,,,,,,,,,,,,,,,,,,,,,,,,,,,,,,,,,,,,,,,,,,,,,,,,,,,,,,,,,,,,,,,,,,,,,,,,,,
,,?,0.00136,0,,,,,,stimuli/images/PICTURE_487.png,ROOF,5dc9f3a0e2633171257d503e,31/03/1953,2020-09-09_23h23.13.144,proactive2,2020.1.2,Win32,60,5f5126bb654d4b30ee6923d8,5f599b758d367e2049aee6e5,1,,,,,,basket,,,,,,,,,,,6,2,0,1,1,50,1,,,,,,,,,,,,,,,,,,,,,,,,,,,,,,,,,,,,,,,,,,,,,,,,,,,,,,,,,,,,,,,,,,,,,,,,,,,,,,,,,,,,,,,,,,,,,,
,,?,0.00116,0,,,,,,stimuli/images/PICTURE_68.png,KIND,5dc9f3a0e2633171257d503e,31/03/1953,2020-09-09_23h23.13.144,proactive2,2020.1.2,Win32,60,5f5126bb654d4b30ee6923d8,5f599b758d367e2049aee6e5,1,,,,,,candle,,,,,,,,,,,3,2,0,2,2,23,1,,,,,,,,,,,,,,,,,,,,,,,,,,,,,,,,,,,,,,,,,,,,,,,,,,,,,,,,,,,,,,,,,,,,,,,,,,,,,,,,,,,,,,,,,,,,,,
,,SHOT,8.365555,0,,,,,,stimuli/images/PICTURE_509.png,SHOTS,5dc9f3a0e2633171257d503e,31/03/1953,2020-09-09_23h23.13.144,proactive2,2020.1.2,Win32,60,5f5126bb654d4b30ee6923d8,5f599b758d367e2049aee6e5,1,,,,,,telephone,,,,,,,,,,,1,2,0,3,3,7,1,,,,,,,,,,,,,,,,,,,,,,,,,,,,,,,,,,,,,,,,,,,,,,,,,,,,,,,,,,,,,,,,,,,,,,,,,,,,,,,,,,,,,,,,,,,,,,
,,?,0.00163,0,,,,,,stimuli/images/PICTURE_285.png,PRINCE,5dc9f3a0e2633171257d503e,31/03/1953,2020-09-09_23h23.13.144,proactive2,2020.1.2,Win32,60,5f5126bb654d4b30ee6923d8,5f599b758d367e2049aee6e5,1,,,,,,carrot,,,,,,,,,,,3,2,0,4,4,20,1,,,,,,,,,,,,,,,,,,,,,,,,,,,,,,,,,,,,,,,,,,,,,,,,,,,,,,,,,,,,,,,,,,,,,,,,,,,,,,,,,,,,,,,,,,,,,,
,,?,0.00124,0,,,,,,stimuli/images/PICTURE_57.png,CASINO,5dc9f3a0e2633171257d503e,31/03/1953,2020-09-09_23h23.13.144,proactive2,2020.1.2,Win32,60,5f5126bb654d4b30ee6923d8,5f599b758d367e2049aee6e5,1,,,,,,stamp,,,,,,,,,,,2,2,0,5,5,12,1,,,,,,,,,,,,,,,,,,,,,,,,,,,,,,,,,,,,,,,,,,,,,,,,,,,,,,,,,,,,,,,,,,,,,,,,,,,,,,,,,,,,,,,,,,,,,,
,,SALE,7.111975,0,,,,,,stimuli/images/PICTURE_348.png,TOILET,5dc9f3a0e2633171257d503e,31/03/1953,2020-09-09_23h23.13.144,proactive2,2020.1.2,Win32,60,5f5126bb654d4b30ee6923d8,5f599b758d367e2049aee6e5,1,,,,,,pepper,,,,,,,,,,,1,2,0,6,6,4,1,,,,,,,,,,,,,,,,,,,,,,,,,,,,,,,,,,,,,,,,,,,,,,,,,,,,,,,,,,,,,,,,,,,,,,,,,,,,,,,,,,,,,,,,,,,,,,
,,?,0.00318,0,,,,,,stimuli/images/PICTURE_141.png,CLIENT,5dc9f3a0e2633171257d503e,31/03/1953,2020-09-09_23h23.13.144,proactive2,2020.1.2,Win32,60,5f5126bb654d4b30ee6923d8,5f599b758d367e2049aee6e5,1,,,,,,sunflower,,,,,,,,,,,4,2,0,7,7,30,1,,,,,,,,,,,,,,,,,,,,,,,,,,,,,,,,,,,,,,,,,,,,,,,,,,,,,,,,,,,,,,,,,,,,,,,,,,,,,,,,,,,,,,,,,,,,,,
,,?,0.001375,0,,,,,,stimuli/images/PICTURE_327.png,LEADER,5dc9f3a0e2633171257d503e,31/03/1953,2020-09-09_23h23.13.144,proactive2,2020.1.2,Win32,60,5f5126bb654d4b30ee6923d8,5f599b758d367e2049aee6e5,1,,,,,,helmet,,,,,,,,,,,2,2,0,8,8,17,1,,,,,,,,,,,,,,,,,,,,,,,,,,,,,,,,,,,,,,,,,,,,,,,,,,,,,,,,,,,,,,,,,,,,,,,,,,,,,,,,,,,,,,,,,,,,,,
,,?,0.00379,0,,,,,,stimuli/images/PICTURE_95.png,NIGHT,5dc9f3a0e2633171257d503e,31/03/1953,2020-09-09_23h23.13.144,proactive2,2020.1.2,Win32,60,5f5126bb654d4b30ee6923d8,5f599b758d367e2049aee6e5,1,,,,,,suitcase,,,,,,,,,,,4,2,0,9,9,37,1,,,,,,,,,,,,,,,,,,,,,,,,,,,,,,,,,,,,,,,,,,,,,,,,,,,,,,,,,,,,,,,,,,,,,,,,,,,,,,,,,,,,,,,,,,,,,,
,,?,0.001385,0,,,,,,stimuli/images/PICTURE_491.png,SERIES,5dc9f3a0e2633171257d503e,31/03/1953,2020-09-09_23h23.13.144,proactive2,2020.1.2,Win32,60,5f5126bb654d4b30ee6923d8,5f599b758d367e2049aee6e5,1,,,,,,rug,,,,,,,,,,,4,2,0,10,10,39,1,,,,,,,,,,,,,,,,,,,,,,,,,,,,,,,,,,,,,,,,,,,,,,,,,,,,,,,,,,,,,,,,,,,,,,,,,,,,,,,,,,,,,,,,,,,,,,
,,?,0.00146,0,,,,,,stimuli/images/PICTURE_57.png,CANDY,5dc9f3a0e2633171257d503e,31/03/1953,2020-09-09_23h23.13.144,proactive2,2020.1.2,Win32,60,5f5126bb654d4b30ee6923d8,5f599b758d367e2049aee6e5,1,,,,,,stamp,,,,,,,,,,,6,2,0,11,11,52,1,,,,,,,,,,,,,,,,,,,,,,,,,,,,,,,,,,,,,,,,,,,,,,,,,,,,,,,,,,,,,,,,,,,,,,,,,,,,,,,,,,,,,,,,,,,,,,
,,?,0.001595,0,,,,,,stimuli/images/PICTURE_677.png,FAMILY,5dc9f3a0e2633171257d503e,31/03/1953,2020-09-09_23h23.13.144,proactive2,2020.1.2,Win32,60,5f5126bb654d4b30ee6923d8,5f599b758d367e2049aee6e5,1,,,,,,map,,,,,,,,,,,6,2,0,12,12,53,1,,,,,,,,,,,,,,,,,,,,,,,,,,,,,,,,,,,,,,,,,,,,,,,,,,,,,,,,,,,,,,,,,,,,,,,,,,,,,,,,,,,,,,,,,,,,,,
,,?,0.00164,0,,,,,,stimuli/images/PICTURE_509.png,MILLER,5dc9f3a0e2633171257d503e,31/03/1953,2020-09-09_23h23.13.144,proactive2,2020.1.2,Win32,60,5f5126bb654d4b30ee6923d8,5f599b758d367e2049aee6e5,1,,,,,,telephone,,,,,,,,,,,5,2,0,13,13,49,1,,,,,,,,,,,,,,,,,,,,,,,,,,,,,,,,,,,,,,,,,,,,,,,,,,,,,,,,,,,,,,,,,,,,,,,,,,,,,,,,,,,,,,,,,,,,,,
,,?,0.0022,0,,,,,,stimuli/images/PICTURE_177.png,HOUSE,5dc9f3a0e2633171257d503e,31/03/1953,2020-09-09_23h23.13.144,proactive2,2020.1.2,Win32,60,5f5126bb654d4b30ee6923d8,5f599b758d367e2049aee6e5,1,,,,,,mushroom,,,,,,,,,,,3,2,0,14,14,25,1,,,,,,,,,,,,,,,,,,,,,,,,,,,,,,,,,,,,,,,,,,,,,,,,,,,,,,,,,,,,,,,,,,,,,,,,,,,,,,,,,,,,,,,,,,,,,,
,,FOOD,9.148375,1,,,,,,stimuli/images/PICTURE_215.png,FOOD,5dc9f3a0e2633171257d503e,31/03/1953,2020-09-09_23h23.13.144,proactive2,2020.1.2,Win32,60,5f5126bb654d4b30ee6923d8,5f599b758d367e2049aee6e5,1,,,,,,boot,,,,,,,,,,,1,2,0,15,15,5,1,,,,,,,,,,,,,,,,,,,,,,,,,,,,,,,,,,,,,,,,,,,,,,,,,,,,,,,,,,,,,,,,,,,,,,,,,,,,,,,,,,,,,,,,,,,,,,
,,?,0.001775,0,,,,,,stimuli/images/PICTURE_2.png,AREA,5dc9f3a0e2633171257d503e,31/03/1953,2020-09-09_23h23.13.144,proactive2,2020.1.2,Win32,60,5f5126bb654d4b30ee6923d8,5f599b758d367e2049aee6e5,1,,,,,,tyre,,,,,,,,,,,4,2,0,16,16,32,1,,,,,,,,,,,,,,,,,,,,,,,,,,,,,,,,,,,,,,,,,,,,,,,,,,,,,,,,,,,,,,,,,,,,,,,,,,,,,,,,,,,,,,,,,,,,,,
,,?,0.00157,0,,,,,,stimuli/images/PICTURE_504.png,HOUSE,5dc9f3a0e2633171257d503e,31/03/1953,2020-09-09_23h23.13.144,proactive2,2020.1.2,Win32,60,5f5126bb654d4b30ee6923d8,5f599b758d367e2049aee6e5,1,,,,,,wheel,,,,,,,,,,,4,2,0,17,17,36,1,,,,,,,,,,,,,,,,,,,,,,,,,,,,,,,,,,,,,,,,,,,,,,,,,,,,,,,,,,,,,,,,,,,,,,,,,,,,,,,,,,,,,,,,,,,,,,
,,?,0.001325,0,,,,,,stimuli/images/PICTURE_564.png,PLENTY,5dc9f3a0e2633171257d503e,31/03/1953,2020-09-09_23h23.13.144,proactive2,2020.1.2,Win32,60,5f5126bb654d4b30ee6923d8,5f599b758d367e2049aee6e5,1,,,,,,spoon,,,,,,,,,,,2,2,0,18,18,11,1,,,,,,,,,,,,,,,,,,,,,,,,,,,,,,,,,,,,,,,,,,,,,,,,,,,,,,,,,,,,,,,,,,,,,,,,,,,,,,,,,,,,,,,,,,,,,,
,,?,0.001215,0,,,,,,stimuli/images/PICTURE_470.png,MOMENT,5dc9f3a0e2633171257d503e,31/03/1953,2020-09-09_23h23.13.144,proactive2,2020.1.2,Win32,60,5f5126bb654d4b30ee6923d8,5f599b758d367e2049aee6e5,1,,,,,,motorbike,,,,,,,,,,,5,2,0,19,19,40,1,,,,,,,,,,,,,,,,,,,,,,,,,,,,,,,,,,,,,,,,,,,,,,,,,,,,,,,,,,,,,,,,,,,,,,,,,,,,,,,,,,,,,,,,,,,,,,
,,SALE,7.653355,1,,,,,,stimuli/images/PICTURE_123.png,SALE,5dc9f3a0e2633171257d503e,31/03/1953,2020-09-09_23h23.13.144,proactive2,2020.1.2,Win32,60,5f5126bb654d4b30ee6923d8,5f599b758d367e2049aee6e5,1,,,,,,dart,,,,,,,,,,,1,2,0,20,20,8,1,,,,,,,,,,,,,,,,,,,,,,,,,,,,,,,,,,,,,,,,,,,,,,,,,,,,,,,,,,,,,,,,,,,,,,,,,,,,,,,,,,,,,,,,,,,,,,
,,?,0.00266,0,,,,,,stimuli/images/PICTURE_33.png,COPS,5dc9f3a0e2633171257d503e,31/03/1953,2020-09-09_23h23.13.144,proactive2,2020.1.2,Win32,60,5f5126bb654d4b30ee6923d8,5f599b758d367e2049aee6e5,1,,,,,,frame,,,,,,,,,,,3,2,0,21,21,29,1,,,,,,,,,,,,,,,,,,,,,,,,,,,,,,,,,,,,,,,,,,,,,,,,,,,,,,,,,,,,,,,,,,,,,,,,,,,,,,,,,,,,,,,,,,,,,,
,,?,0.001195,0,,,,,,stimuli/images/PICTURE_32.png,LETTER,5dc9f3a0e2633171257d503e,31/03/1953,2020-09-09_23h23.13.144,proactive2,2020.1.2,Win32,60,5f5126bb654d4b30ee6923d8,5f599b758d367e2049aee6e5,1,,,,,,crown,,,,,,,,,,,6,2,0,22,22,56,1,,,,,,,,,,,,,,,,,,,,,,,,,,,,,,,,,,,,,,,,,,,,,,,,,,,,,,,,,,,,,,,,,,,,,,,,,,,,,,,,,,,,,,,,,,,,,,
,,?,0.00115,0,,,,,,stimuli/images/PICTURE_215.png,BOYS,5dc9f3a0e2633171257d503e,31/03/1953,2020-09-09_23h23.13.144,proactive2,2020.1.2,Win32,60,5f5126bb654d4b30ee6923d8,5f599b758d367e2049aee6e5,1,,,,,,boot,,,,,,,,,,,3,2,0,23,23,24,1,,,,,,,,,,,,,,,,,,,,,,,,,,,,,,,,,,,,,,,,,,,,,,,,,,,,,,,,,,,,,,,,,,,,,,,,,,,,,,,,,,,,,,,,,,,,,,
,,?,0.001385,0,,,,,,stimuli/images/PICTURE_147.png,LEADER,5dc9f3a0e2633171257d503e,31/03/1953,2020-09-09_23h23.13.144,proactive2,2020.1.2,Win32,60,5f5126bb654d4b30ee6923d8,5f599b758d367e2049aee6e5,1,,,,,,hanger,,,,,,,,,,,4,2,0,24,24,33,1,,,,,,,,,,,,,,,,,,,,,,,,,,,,,,,,,,,,,,,,,,,,,,,,,,,,,,,,,,,,,,,,,,,,,,,,,,,,,,,,,,,,,,,,,,,,,,
,,FLOW,15.008445,0,,,,,,stimuli/images/PICTURE_405.png,HOUSE,5dc9f3a0e2633171257d503e,31/03/1953,2020-09-09_23h23.13.144,proactive2,2020.1.2,Win32,60,5f5126bb654d4b30ee6923d8,5f599b758d367e2049aee6e5,1,,,,,,anchor,,,,,,,,,,,1,2,0,25,25,2,1,,,,,,,,,,,,,,,,,,,,,,,,,,,,,,,,,,,,,,,,,,,,,,,,,,,,,,,,,,,,,,,,,,,,,,,,,,,,,,,,,,,,,,,,,,,,,,
,,?,0.001725,0,,,,,,stimuli/images/PICTURE_356.png,CANDY,5dc9f3a0e2633171257d503e,31/03/1953,2020-09-09_23h23.13.144,proactive2,2020.1.2,Win32,60,5f5126bb654d4b30ee6923d8,5f599b758d367e2049aee6e5,1,,,,,,pawn,,,,,,,,,,,5,2,0,26,26,46,1,,,,,,,,,,,,,,,,,,,,,,,,,,,,,,,,,,,,,,,,,,,,,,,,,,,,,,,,,,,,,,,,,,,,,,,,,,,,,,,,,,,,,,,,,,,,,,
,,?,0.001355,0,,,,,,stimuli/images/PICTURE_314.png,SPEECH,5dc9f3a0e2633171257d503e,31/03/1953,2020-09-09_23h23.13.144,proactive2,2020.1.2,Win32,60,5f5126bb654d4b30ee6923d8,5f599b758d367e2049aee6e5,1,,,,,,perfume,,,,,,,,,,,4,2,0,27,27,35,1,,,,,,,,,,,,,,,,,,,,,,,,,,,,,,,,,,,,,,,,,,,,,,,,,,,,,,,,,,,,,,,,,,,,,,,,,,,,,,,,,,,,,,,,,,,,,,
,,?,0.0011,0,,,,,,stimuli/images/PICTURE_750.png,POLICY,5dc9f3a0e2633171257d503e,31/03/1953,2020-09-09_23h23.13.144,proactive2,2020.1.2,Win32,60,5f5126bb654d4b30ee6923d8,5f599b758d367e2049aee6e5,1,,,,,,kettle,,,,,,,,,,,5,2,0,28,28,44,1,,,,,,,,,,,,,,,,,,,,,,,,,,,,,,,,,,,,,,,,,,,,,,,,,,,,,,,,,,,,,,,,,,,,,,,,,,,,,,,,,,,,,,,,,,,,,,
,,?,0.001165,0,,,,,,stimuli/images/PICTURE_405.png,JUNGLE,5dc9f3a0e2633171257d503e,31/03/1953,2020-09-09_23h23.13.144,proactive2,2020.1.2,Win32,60,5f5126bb654d4b30ee6923d8,5f599b758d367e2049aee6e5,1,,,,,,anchor,,,,,,,,,,,2,2,0,29,29,13,1,,,,,,,,,,,,,,,,,,,,,,,,,,,,,,,,,,,,,,,,,,,,,,,,,,,,,,,,,,,,,,,,,,,,,,,,,,,,,,,,,,,,,,,,,,,,,,
,,?,0.00244,0,,,,,,stimuli/images/PICTURE_453.png,FAMILY,5dc9f3a0e2633171257d503e,31/03/1953,2020-09-09_23h23.13.144,proactive2,2020.1.2,Win32,60,5f5126bb654d4b30ee6923d8,5f599b758d367e2049aee6e5,1,,,,,,scissors,,,,,,,,,,,5,2,0,30,30,48,1,,,,,,,,,,,,,,,,,,,,,,,,,,,,,,,,,,,,,,,,,,,,,,,,,,,,,,,,,,,,,,,,,,,,,,,,,,,,,,,,,,,,,,,,,,,,,,
,,?,0.00117,0,,,,,,stimuli/images/PICTURE_215.png,LEADER,5dc9f3a0e2633171257d503e,31/03/1953,2020-09-09_23h23.13.144,proactive2,2020.1.2,Win32,60,5f5126bb654d4b30ee6923d8,5f599b758d367e2049aee6e5,1,,,,,,boot,,,,,,,,,,,5,2,0,31,31,43,1,,,,,,,,,,,,,,,,,,,,,,,,,,,,,,,,,,,,,,,,,,,,,,,,,,,,,,,,,,,,,,,,,,,,,,,,,,,,,,,,,,,,,,,,,,,,,,
,,?,0.001165,0,,,,,,stimuli/images/PICTURE_160.png,HOTEL,5dc9f3a0e2633171257d503e,31/03/1953,2020-09-09_23h23.13.144,proactive2,2020.1.2,Win32,60,5f5126bb654d4b30ee6923d8,5f599b758d367e2049aee6e5,1,,,,,,wheelbarrow,,,,,,,,,,,2,2,0,32,32,16,1,,,,,,,,,,,,,,,,,,,,,,,,,,,,,,,,,,,,,,,,,,,,,,,,,,,,,,,,,,,,,,,,,,,,,,,,,,,,,,,,,,,,,,,,,,,,,,
,,?,0.001415,0,,,,,,stimuli/images/PICTURE_255.png,PENNY,5dc9f3a0e2633171257d503e,31/03/1953,2020-09-09_23h23.13.144,proactive2,2020.1.2,Win32,60,5f5126bb654d4b30ee6923d8,5f599b758d367e2049aee6e5,1,,,,,,shovel,,,,,,,,,,,2,2,0,33,33,19,1,,,,,,,,,,,,,,,,,,,,,,,,,,,,,,,,,,,,,,,,,,,,,,,,,,,,,,,,,,,,,,,,,,,,,,,,,,,,,,,,,,,,,,,,,,,,,,
,,?,0.00116,0,,,,,,stimuli/images/PICTURE_688.png,CLOCK,5dc9f3a0e2633171257d503e,31/03/1953,2020-09-09_23h23.13.144,proactive2,2020.1.2,Win32,60,5f5126bb654d4b30ee6923d8,5f599b758d367e2049aee6e5,1,,,,,,runner,,,,,,,,,,,5,2,0,34,34,42,1,,,,,,,,,,,,,,,,,,,,,,,,,,,,,,,,,,,,,,,,,,,,,,,,,,,,,,,,,,,,,,,,,,,,,,,,,,,,,,,,,,,,,,,,,,,,,,
,,CELL,8.818485,0,,,,,,stimuli/images/PICTURE_285.png,WRITER,5dc9f3a0e2633171257d503e,31/03/1953,2020-09-09_23h23.13.144,proactive2,2020.1.2,Win32,60,5f5126bb654d4b30ee6923d8,5f599b758d367e2049aee6e5,1,,,,,,carrot,,,,,,,,,,,1,2,0,35,35,6,1,,,,,,,,,,,,,,,,,,,,,,,,,,,,,,,,,,,,,,,,,,,,,,,,,,,,,,,,,,,,,,,,,,,,,,,,,,,,,,,,,,,,,,,,,,,,,,
,,?,0.002655,0,,,,,,stimuli/images/PICTURE_655.png,SALE,5dc9f3a0e2633171257d503e,31/03/1953,2020-09-09_23h23.13.144,proactive2,2020.1.2,Win32,60,5f5126bb654d4b30ee6923d8,5f599b758d367e2049aee6e5,1,,,,,,megaphone,,,,,,,,,,,6,2,0,36,36,57,1,,,,,,,,,,,,,,,,,,,,,,,,,,,,,,,,,,,,,,,,,,,,,,,,,,,,,,,,,,,,,,,,,,,,,,,,,,,,,,,,,,,,,,,,,,,,,,
,,?,0.00115,0,,,,,,stimuli/images/PICTURE_509.png,APPLE,5dc9f3a0e2633171257d503e,31/03/1953,2020-09-09_23h23.13.144,proactive2,2020.1.2,Win32,60,5f5126bb654d4b30ee6923d8,5f599b758d367e2049aee6e5,1,,,,,,telephone,,,,,,,,,,,4,2,0,37,37,38,1,,,,,,,,,,,,,,,,,,,,,,,,,,,,,,,,,,,,,,,,,,,,,,,,,,,,,,,,,,,,,,,,,,,,,,,,,,,,,,,,,,,,,,,,,,,,,,
,,?,0.00109,0,,,,,,stimuli/images/PICTURE_405.png,JUNGLE,5dc9f3a0e2633171257d503e,31/03/1953,2020-09-09_23h23.13.144,proactive2,2020.1.2,Win32,60,5f5126bb654d4b30ee6923d8,5f599b758d367e2049aee6e5,1,,,,,,anchor,,,,,,,,,,,6,2,0,38,38,58,1,,,,,,,,,,,,,,,,,,,,,,,,,,,,,,,,,,,,,,,,,,,,,,,,,,,,,,,,,,,,,,,,,,,,,,,,,,,,,,,,,,,,,,,,,,,,,,
,,?,0.00121,0,,,,,,stimuli/images/PICTURE_93.png,GIRL,5dc9f3a0e2633171257d503e,31/03/1953,2020-09-09_23h23.13.144,proactive2,2020.1.2,Win32,60,5f5126bb654d4b30ee6923d8,5f599b758d367e2049aee6e5,1,,,,,,skateboard,,,,,,,,,,,4,2,0,39,39,31,1,,,,,,,,,,,,,,,,,,,,,,,,,,,,,,,,,,,,,,,,,,,,,,,,,,,,,,,,,,,,,,,,,,,,,,,,,,,,,,,,,,,,,,,,,,,,,,
,,?,0.0014,0,,,,,,stimuli/images/PICTURE_311.png,TOILET,5dc9f3a0e2633171257d503e,31/03/1953,2020-09-09_23h23.13.144,proactive2,2020.1.2,Win32,60,5f5126bb654d4b30ee6923d8,5f599b758d367e2049aee6e5,1,,,,,,razor,,,,,,,,,,,6,2,0,40,40,54,1,,,,,,,,,,,,,,,,,,,,,,,,,,,,,,,,,,,,,,,,,,,,,,,,,,,,,,,,,,,,,,,,,,,,,,,,,,,,,,,,,,,,,,,,,,,,,,
,,?,0.00119,0,,,,,,stimuli/images/PICTURE_654.png,YEAR,5dc9f3a0e2633171257d503e,31/03/1953,2020-09-09_23h23.13.144,proactive2,2020.1.2,Win32,60,5f5126bb654d4b30ee6923d8,5f599b758d367e2049aee6e5,1,,,,,,pencil,,,,,,,,,,,5,2,0,41,41,41,1,,,,,,,,,,,,,,,,,,,,,,,,,,,,,,,,,,,,,,,,,,,,,,,,,,,,,,,,,,,,,,,,,,,,,,,,,,,,,,,,,,,,,,,,,,,,,,
,,?,0.001135,0,,,,,,stimuli/images/PICTURE_667.png,GLASS,5dc9f3a0e2633171257d503e,31/03/1953,2020-09-09_23h23.13.144,proactive2,2020.1.2,Win32,60,5f5126bb654d4b30ee6923d8,5f599b758d367e2049aee6e5,1,,,,,,daisy,,,,,,,,,,,3,2,0,42,42,27,1,,,,,,,,,,,,,,,,,,,,,,,,,,,,,,,,,,,,,,,,,,,,,,,,,,,,,,,,,,,,,,,,,,,,,,,,,,,,,,,,,,,,,,,,,,,,,,
,,?,0.001075,0,,,,,,stimuli/images/PICTURE_57.png,NATION,5dc9f3a0e2633171257d503e,31/03/1953,2020-09-09_23h23.13.144,proactive2,2020.1.2,Win32,60,5f5126bb654d4b30ee6923d8,5f599b758d367e2049aee6e5,1,,,,,,stamp,,,,,,,,,,,3,2,0,43,43,21,1,,,,,,,,,,,,,,,,,,,,,,,,,,,,,,,,,,,,,,,,,,,,,,,,,,,,,,,,,,,,,,,,,,,,,,,,,,,,,,,,,,,,,,,,,,,,,,
,,?,0.001115,0,,,,,,stimuli/images/PICTURE_708.png,VALLEY,5dc9f3a0e2633171257d503e,31/03/1953,2020-09-09_23h23.13.144,proactive2,2020.1.2,Win32,60,5f5126bb654d4b30ee6923d8,5f599b758d367e2049aee6e5,1,,,,,,monkey,,,,,,,,,,,5,2,0,44,44,45,1,,,,,,,,,,,,,,,,,,,,,,,,,,,,,,,,,,,,,,,,,,,,,,,,,,,,,,,,,,,,,,,,,,,,,,,,,,,,,,,,,,,,,,,,,,,,,,
,,?,0.00109,0,,,,,,stimuli/images/PICTURE_692.png,DUDE,5dc9f3a0e2633171257d503e,31/03/1953,2020-09-09_23h23.13.144,proactive2,2020.1.2,Win32,60,5f5126bb654d4b30ee6923d8,5f599b758d367e2049aee6e5,1,,,,,,cherry,,,,,,,,,,,5,2,0,45,45,47,1,,,,,,,,,,,,,,,,,,,,,,,,,,,,,,,,,,,,,,,,,,,,,,,,,,,,,,,,,,,,,,,,,,,,,,,,,,,,,,,,,,,,,,,,,,,,,,
,,?,0.001485,0,,,,,,stimuli/images/PICTURE_487.png,POLICY,5dc9f3a0e2633171257d503e,31/03/1953,2020-09-09_23h23.13.144,proactive2,2020.1.2,Win32,60,5f5126bb654d4b30ee6923d8,5f599b758d367e2049aee6e5,1,,,,,,basket,,,,,,,,,,,4,2,0,46,46,34,1,,,,,,,,,,,,,,,,,,,,,,,,,,,,,,,,,,,,,,,,,,,,,,,,,,,,,,,,,,,,,,,,,,,,,,,,,,,,,,,,,,,,,,,,,,,,,,
,,SALE,8.73337,0,,,,,,stimuli/images/PICTURE_452.png,COPS,5dc9f3a0e2633171257d503e,31/03/1953,2020-09-09_23h23.13.144,proactive2,2020.1.2,Win32,60,5f5126bb654d4b30ee6923d8,5f599b758d367e2049aee6e5,1,,,,,,watch,,,,,,,,,,,1,2,0,47,47,0,1,,,,,,,,,,,,,,,,,,,,,,,,,,,,,,,,,,,,,,,,,,,,,,,,,,,,,,,,,,,,,,,,,,,,,,,,,,,,,,,,,,,,,,,,,,,,,,
,,FAMILY,8.584815,1,,,,,,stimuli/images/PICTURE_403.png,FAMILY,5dc9f3a0e2633171257d503e,31/03/1953,2020-09-09_23h23.13.144,proactive2,2020.1.2,Win32,60,5f5126bb654d4b30ee6923d8,5f599b758d367e2049aee6e5,1,,,,,,cathedral,,,,,,,,,,,1,2,0,48,48,9,1,,,,,,,,,,,,,,,,,,,,,,,,,,,,,,,,,,,,,,,,,,,,,,,,,,,,,,,,,,,,,,,,,,,,,,,,,,,,,,,,,,,,,,,,,,,,,,
,,?,0.002165,0,,,,,,stimuli/images/PICTURE_509.png,BATH,5dc9f3a0e2633171257d503e,31/03/1953,2020-09-09_23h23.13.144,proactive2,2020.1.2,Win32,60,5f5126bb654d4b30ee6923d8,5f599b758d367e2049aee6e5,1,,,,,,telephone,,,,,,,,,,,2,2,0,49,49,15,1,,,,,,,,,,,,,,,,,,,,,,,,,,,,,,,,,,,,,,,,,,,,,,,,,,,,,,,,,,,,,,,,,,,,,,,,,,,,,,,,,,,,,,,,,,,,,,
,,?,0.001125,0,,,,,,stimuli/images/PICTURE_2.png,YARD,5dc9f3a0e2633171257d503e,31/03/1953,2020-09-09_23h23.13.144,proactive2,2020.1.2,Win32,60,5f5126bb654d4b30ee6923d8,5f599b758d367e2049aee6e5,1,,,,,,tyre,,,,,,,,,,,6,2,0,50,50,55,1,,,,,,,,,,,,,,,,,,,,,,,,,,,,,,,,,,,,,,,,,,,,,,,,,,,,,,,,,,,,,,,,,,,,,,,,,,,,,,,,,,,,,,,,,,,,,,
,,HUT,13.47073,0,,,,,,stimuli/images/PICTURE_311.png,FLESH,5dc9f3a0e2633171257d503e,31/03/1953,2020-09-09_23h23.13.144,proactive2,2020.1.2,Win32,60,5f5126bb654d4b30ee6923d8,5f599b758d367e2049aee6e5,1,,,,,,razor,,,,,,,,,,,1,2,0,51,51,3,1,,,,,,,,,,,,,,,,,,,,,,,,,,,,,,,,,,,,,,,,,,,,,,,,,,,,,,,,,,,,,,,,,,,,,,,,,,,,,,,,,,,,,,,,,,,,,,
,,?,0.00166,0,,,,,,stimuli/images/PICTURE_348.png,DUDE,5dc9f3a0e2633171257d503e,31/03/1953,2020-09-09_23h23.13.144,proactive2,2020.1.2,Win32,60,5f5126bb654d4b30ee6923d8,5f599b758d367e2049aee6e5,1,,,,,,pepper,,,,,,,,,,,6,2,0,52,52,59,1,,,,,,,,,,,,,,,,,,,,,,,,,,,,,,,,,,,,,,,,,,,,,,,,,,,,,,,,,,,,,,,,,,,,,,,,,,,,,,,,,,,,,,,,,,,,,,
,,?,0.001195,0,,,,,,stimuli/images/PICTURE_208.png,SPIRIT,5dc9f3a0e2633171257d503e,31/03/1953,2020-09-09_23h23.13.144,proactive2,2020.1.2,Win32,60,5f5126bb654d4b30ee6923d8,5f599b758d367e2049aee6e5,1,,,,,,microphone,,,,,,,,,,,3,2,0,53,53,28,1,,,,,,,,,,,,,,,,,,,,,,,,,,,,,,,,,,,,,,,,,,,,,,,,,,,,,,,,,,,,,,,,,,,,,,,,,,,,,,,,,,,,,,,,,,,,,,
,,?,0.00148,0,,,,,,stimuli/images/PICTURE_18.png,RIVER,5dc9f3a0e2633171257d503e,31/03/1953,2020-09-09_23h23.13.144,proactive2,2020.1.2,Win32,60,5f5126bb654d4b30ee6923d8,5f599b758d367e2049aee6e5,1,,,,,,planet,,,,,,,,,,,3,2,0,54,54,22,1,,,,,,,,,,,,,,,,,,,,,,,,,,,,,,,,,,,,,,,,,,,,,,,,,,,,,,,,,,,,,,,,,,,,,,,,,,,,,,,,,,,,,,,,,,,,,,
,,?,0.00124,0,,,,,,stimuli/images/PICTURE_296.png,CLOCK,5dc9f3a0e2633171257d503e,31/03/1953,2020-09-09_23h23.13.144,proactive2,2020.1.2,Win32,60,5f5126bb654d4b30ee6923d8,5f599b758d367e2049aee6e5,1,,,,,,bolt,,,,,,,,,,,2,2,0,55,55,18,1,,,,,,,,,,,,,,,,,,,,,,,,,,,,,,,,,,,,,,,,,,,,,,,,,,,,,,,,,,,,,,,,,,,,,,,,,,,,,,,,,,,,,,,,,,,,,,
,,?,0.001235,0,,,,,,stimuli/images/PICTURE_654.png,COPS,5dc9f3a0e2633171257d503e,31/03/1953,2020-09-09_23h23.13.144,proactive2,2020.1.2,Win32,60,5f5126bb654d4b30ee6923d8,5f599b758d367e2049aee6e5,1,,,,,,pencil,,,,,,,,,,,2,2,0,56,56,10,1,,,,,,,,,,,,,,,,,,,,,,,,,,,,,,,,,,,,,,,,,,,,,,,,,,,,,,,,,,,,,,,,,,,,,,,,,,,,,,,,,,,,,,,,,,,,,,
,,?,0.00119,0,,,,,,stimuli/images/PICTURE_470.png,BEAUTY,5dc9f3a0e2633171257d503e,31/03/1953,2020-09-09_23h23.13.144,proactive2,2020.1.2,Win32,60,5f5126bb654d4b30ee6923d8,5f599b758d367e2049aee6e5,1,,,,,,motorbike,,,,,,,,,,,3,2,0,57,57,26,1,,,,,,,,,,,,,,,,,,,,,,,,,,,,,,,,,,,,,,,,,,,,,,,,,,,,,,,,,,,,,,,,,,,,,,,,,,,,,,,,,,,,,,,,,,,,,,
,,SALE,10.70617,0,,,,,,stimuli/images/PICTURE_2.png,JUNGLE,5dc9f3a0e2633171257d503e,31/03/1953,2020-09-09_23h23.13.144,proactive2,2020.1.2,Win32,60,5f5126bb654d4b30ee6923d8,5f599b758d367e2049aee6e5,1,,,,,,tyre,,,,,,,,,,,1,2,0,58,58,1,1,,,,,,,,,,,,,,,,,,,,,,,,,,,,,,,,,,,,,,,,,,,,,,,,,,,,,,,,,,,,,,,,,,,,,,,,,,,,,,,,,,,,,,,,,,,,,,
,,?,0.00148,0,,,,,,stimuli/images/PICTURE_677.png,PHOTO,5dc9f3a0e2633171257d503e,31/03/1953,2020-09-09_23h23.13.144,proactive2,2020.1.2,Win32,60,5f5126bb654d4b30ee6923d8,5f599b758d367e2049aee6e5,1,,,,,,map,,,,,,,,,,,2,2,0,59,59,14,1,,,,,,,,,,,,,,,,,,,,,,,,,,,,,,,,,,,,,,,,,,,,,,,,,,,,,,,,,,,,,,,,,,,,,,,,,,,,,,,,,,,,,,,,,,,,,,
,,,,,,,,,,,,5dc9f3a0e2633171257d503e,31/03/1953,2020-09-09_23h23.13.144,proactive2,2020.1.2,Win32,60,5f5126bb654d4b30ee6923d8,5f599b758d367e2049aee6e5,1,,,,,,,,,,,,,,,,,,,,,,,,0,0,0,2,1,stimuli/learn-block3.csv,,,,,,,,,,,,,,,,,,,,,,,,,,,,,,,,,,,,,,,,,,,,,,,,,,,,,,,,,,,,,,,,,,,,,,,,,,,,,,,,,,,,,,,,
,,,,,,,,,,stimuli/images/PICTURE_311.png,BEAUTY,5dc9f3a0e2633171257d503e,31/03/1953,2020-09-09_23h23.13.144,proactive2,2020.1.2,Win32,60,5f5126bb654d4b30ee6923d8,5f599b758d367e2049aee6e5,1,,,,,,razor,,,,,,0,0,0,13,1,2,0,,,,,,,,,,,,,,,,,,,,,,,,,,,,,,,,,,,,,,,,,,,,,,,,,,,,,,,,,,,,,,,,,,,,,,,,,,,,,,,,,,,,,,,,,,,,,,,,,,,
,,,,,,,,,,stimuli/images/PICTURE_356.png,DANGER,5dc9f3a0e2633171257d503e,31/03/1953,2020-09-09_23h23.13.144,proactive2,2020.1.2,Win32,60,5f5126bb654d4b30ee6923d8,5f599b758d367e2049aee6e5,1,,,,,,pawn,,,,,,0,1,1,55,1,6,0,,,,,,,,,,,,,,,,,,,,,,,,,,,,,,,,,,,,,,,,,,,,,,,,,,,,,,,,,,,,,,,,,,,,,,,,,,,,,,,,,,,,,,,,,,,,,,,,,,,
,,,,,,,,,,stimuli/images/PICTURE_469.png,ARTIST,5dc9f3a0e2633171257d503e,31/03/1953,2020-09-09_23h23.13.144,proactive2,2020.1.2,Win32,60,5f5126bb654d4b30ee6923d8,5f599b758d367e2049aee6e5,1,,,,,,stool,,,,,,0,2,2,6,1,1,0,,,,,,,,,,,,,,,,,,,,,,,,,,,,,,,,,,,,,,,,,,,,,,,,,,,,,,,,,,,,,,,,,,,,,,,,,,,,,,,,,,,,,,,,,,,,,,,,,,,
,,,,,,,,,,stimuli/images/PICTURE_453.png,PLENTY,5dc9f3a0e2633171257d503e,31/03/1953,2020-09-09_23h23.13.144,proactive2,2020.1.2,Win32,60,5f5126bb654d4b30ee6923d8,5f599b758d367e2049aee6e5,1,,,,,,scissors,,,,,,0,3,3,56,1,6,0,,,,,,,,,,,,,,,,,,,,,,,,,,,,,,,,,,,,,,,,,,,,,,,,,,,,,,,,,,,,,,,,,,,,,,,,,,,,,,,,,,,,,,,,,,,,,,,,,,,
,,,,,,,,,,stimuli/images/PICTURE_208.png,MONTH,5dc9f3a0e2633171257d503e,31/03/1953,2020-09-09_23h23.13.144,proactive2,2020.1.2,Win32,60,5f5126bb654d4b30ee6923d8,5f599b758d367e2049aee6e5,1,,,,,,microphone,,,,,,0,4,4,53,1,6,0,,,,,,,,,,,,,,,,,,,,,,,,,,,,,,,,,,,,,,,,,,,,,,,,,,,,,,,,,,,,,,,,,,,,,,,,,,,,,,,,,,,,,,,,,,,,,,,,,,,
,,,,,,,,,,stimuli/images/PICTURE_469.png,LETTER,5dc9f3a0e2633171257d503e,31/03/1953,2020-09-09_23h23.13.144,proactive2,2020.1.2,Win32,60,5f5126bb654d4b30ee6923d8,5f599b758d367e2049aee6e5,1,,,,,,stool,,,,,,0,5,5,42,1,5,0,,,,,,,,,,,,,,,,,,,,,,,,,,,,,,,,,,,,,,,,,,,,,,,,,,,,,,,,,,,,,,,,,,,,,,,,,,,,,,,,,,,,,,,,,,,,,,,,,,,
,,,,,,,,,,stimuli/images/PICTURE_488.png,STYLE,5dc9f3a0e2633171257d503e,31/03/1953,2020-09-09_23h23.13.144,proactive2,2020.1.2,Win32,60,5f5126bb654d4b30ee6923d8,5f599b758d367e2049aee6e5,1,,,,,,sun,,,,,,0,6,6,33,1,4,0,,,,,,,,,,,,,,,,,,,,,,,,,,,,,,,,,,,,,,,,,,,,,,,,,,,,,,,,,,,,,,,,,,,,,,,,,,,,,,,,,,,,,,,,,,,,,,,,,,,
,,,,,,,,,,stimuli/images/PICTURE_314.png,GODS,5dc9f3a0e2633171257d503e,31/03/1953,2020-09-09_23h23.13.144,proactive2,2020.1.2,Win32,60,5f5126bb654d4b30ee6923d8,5f599b758d367e2049aee6e5,1,,,,,,perfume,,,,,,0,7,7,11,1,2,0,,,,,,,,,,,,,,,,,,,,,,,,,,,,,,,,,,,,,,,,,,,,,,,,,,,,,,,,,,,,,,,,,,,,,,,,,,,,,,,,,,,,,,,,,,,,,,,,,,,
,,,,,,,,,,stimuli/images/PICTURE_308.png,KIND,5dc9f3a0e2633171257d503e,31/03/1953,2020-09-09_23h23.13.144,proactive2,2020.1.2,Win32,60,5f5126bb654d4b30ee6923d8,5f599b758d367e2049aee6e5,1,,,,,,dice,,,,,,0,8,8,54,1,6,0,,,,,,,,,,,,,,,,,,,,,,,,,,,,,,,,,,,,,,,,,,,,,,,,,,,,,,,,,,,,,,,,,,,,,,,,,,,,,,,,,,,,,,,,,,,,,,,,,,,
,,,,,,,,,,stimuli/images/PICTURE_491.png,ROOF,5dc9f3a0e2633171257d503e,31/03/1953,2020-09-09_23h23.13.144,proactive2,2020.1.2,Win32,60,5f5126bb654d4b30ee6923d8,5f599b758d367e2049aee6e5,1,,,,,,rug,,,,,,0,9,9,24,1,3,0,,,,,,,,,,,,,,,,,,,,,,,,,,,,,,,,,,,,,,,,,,,,,,,,,,,,,,,,,,,,,,,,,,,,,,,,,,,,,,,,,,,,,,,,,,,,,,,,,,,
,,,,,,,,,,stimuli/images/PICTURE_248.png,DOZEN,5dc9f3a0e2633171257d503e,31/03/1953,2020-09-09_23h23.13.144,proactive2,2020.1.2,Win32,60,5f5126bb654d4b30ee6923d8,5f599b758d367e2049aee6e5,1,,,,,,cart,,,,,,0,10,10,39,1,4,0,,,,,,,,,,,,,,,,,,,,,,,,,,,,,,,,,,,,,,,,,,,,,,,,,,,,,,,,,,,,,,,,,,,,,,,,,,,,,,,,,,,,,,,,,,,,,,,,,,,
,,,,,,,,,,stimuli/images/PICTURE_708.png,YARD,5dc9f3a0e2633171257d503e,31/03/1953,2020-09-09_23h23.13.144,proactive2,2020.1.2,Win32,60,5f5126bb654d4b30ee6923d8,5f599b758d367e2049aee6e5,1,,,,,,monkey,,,,,,0,11,11,29,1,3,0,,,,,,,,,,,,,,,,,,,,,,,,,,,,,,,,,,,,,,,,,,,,,,,,,,,,,,,,,,,,,,,,,,,,,,,,,,,,,,,,,,,,,,,,,,,,,,,,,,,
,,,,,,,,,,stimuli/images/PICTURE_311.png,FRIEND,5dc9f3a0e2633171257d503e,31/03/1953,2020-09-09_23h23.13.144,proactive2,2020.1.2,Win32,60,5f5126bb654d4b30ee6923d8,5f599b758d367e2049aee6e5,1,,,,,,razor,,,,,,0,12,12,34,1,4,0,,,,,,,,,,,,,,,,,,,,,,,,,,,,,,,,,,,,,,,,,,,,,,,,,,,,,,,,,,,,,,,,,,,,,,,,,,,,,,,,,,,,,,,,,,,,,,,,,,,
,,,,,,,,,,stimuli/images/PICTURE_509.png,PHOTO,5dc9f3a0e2633171257d503e,31/03/1953,2020-09-09_23h23.13.144,proactive2,2020.1.2,Win32,60,5f5126bb654d4b30ee6923d8,5f599b758d367e2049aee6e5,1,,,,,,telephone,,,,,,0,13,13,21,1,3,0,,,,,,,,,,,,,,,,,,,,,,,,,,,,,,,,,,,,,,,,,,,,,,,,,,,,,,,,,,,,,,,,,,,,,,,,,,,,,,,,,,,,,,,,,,,,,,,,,,,
,,,,,,,,,,stimuli/images/PICTURE_327.png,BEAUTY,5dc9f3a0e2633171257d503e,31/03/1953,2020-09-09_23h23.13.144,proactive2,2020.1.2,Win32,60,5f5126bb654d4b30ee6923d8,5f599b758d367e2049aee6e5,1,,,,,,helmet,,,,,,0,14,14,48,1,5,0,,,,,,,,,,,,,,,,,,,,,,,,,,,,,,,,,,,,,,,,,,,,,,,,,,,,,,,,,,,,,,,,,,,,,,,,,,,,,,,,,,,,,,,,,,,,,,,,,,,
,,,,,,,,,,stimuli/images/PICTURE_692.png,MONTH,5dc9f3a0e2633171257d503e,31/03/1953,2020-09-09_23h23.13.144,proactive2,2020.1.2,Win32,60,5f5126bb654d4b30ee6923d8,5f599b758d367e2049aee6e5,1,,,,,,cherry,,,,,,0,15,15,16,1,2,0,,,,,,,,,,,,,,,,,,,,,,,,,,,,,,,,,,,,,,,,,,,,,,,,,,,,,,,,,,,,,,,,,,,,,,,,,,,,,,,,,,,,,,,,,,,,,,,,,,,
,,,,,,,,,,stimuli/images/PICTURE_32.png,JUNGLE,5dc9f3a0e2633171257d503e,31/03/1953,2020-09-09_23h23.13.144,proactive2,2020.1.2,Win32,60,5f5126bb654d4b30ee6923d8,5f599b758d367e2049aee6e5,1,,,,,,crown,,,,,,0,16,16,45,1,5,0,,,,,,,,,,,,,,,,,,,,,,,,,,,,,,,,,,,,,,,,,,,,,,,,,,,,,,,,,,,,,,,,,,,,,,,,,,,,,,,,,,,,,,,,,,,,,,,,,,,
,,,,,,,,,,stimuli/images/PICTURE_95.png,STYLE,5dc9f3a0e2633171257d503e,31/03/1953,2020-09-09_23h23.13.144,proactive2,2020.1.2,Win32,60,5f5126bb654d4b30ee6923d8,5f599b758d367e2049aee6e5,1,,,,,,suitcase,,,,,,0,17,17,25,1,3,0,,,,,,,,,,,,,,,,,,,,,,,,,,,,,,,,,,,,,,,,,,,,,,,,,,,,,,,,,,,,,,,,,,,,,,,,,,,,,,,,,,,,,,,,,,,,,,,,,,,
,,,,,,,,,,stimuli/images/PICTURE_744.png,SAKE,5dc9f3a0e2633171257d503e,31/03/1953,2020-09-09_23h23.13.144,proactive2,2020.1.2,Win32,60,5f5126bb654d4b30ee6923d8,5f599b758d367e2049aee6e5,1,,,,,,ring,,,,,,0,18,18,17,1,2,0,,,,,,,,,,,,,,,,,,,,,,,,,,,,,,,,,,,,,,,,,,,,,,,,,,,,,,,,,,,,,,,,,,,,,,,,,,,,,,,,,,,,,,,,,,,,,,,,,,,
,,,,,,,,,,stimuli/images/PICTURE_215.png,PLENTY,5dc9f3a0e2633171257d503e,31/03/1953,2020-09-09_23h23.13.144,proactive2,2020.1.2,Win32,60,5f5126bb654d4b30ee6923d8,5f599b758d367e2049aee6e5,1,,,,,,boot,,,,,,0,19,19,37,1,4,0,,,,,,,,,,,,,,,,,,,,,,,,,,,,,,,,,,,,,,,,,,,,,,,,,,,,,,,,,,,,,,,,,,,,,,,,,,,,,,,,,,,,,,,,,,,,,,,,,,,
,,,,,,,,,,stimuli/images/PICTURE_380.png,DEATH,5dc9f3a0e2633171257d503e,31/03/1953,2020-09-09_23h23.13.144,proactive2,2020.1.2,Win32,60,5f5126bb654d4b30ee6923d8,5f599b758d367e2049aee6e5,1,,,,,,gorilla,,,,,,0,20,20,49,1,5,0,,,,,,,,,,,,,,,,,,,,,,,,,,,,,,,,,,,,,,,,,,,,,,,,,,,,,,,,,,,,,,,,,,,,,,,,,,,,,,,,,,,,,,,,,,,,,,,,,,,
,,,,,,,,,,stimuli/images/PICTURE_123.png,ADVICE,5dc9f3a0e2633171257d503e,31/03/1953,2020-09-09_23h23.13.144,proactive2,2020.1.2,Win32,60,5f5126bb654d4b30ee6923d8,5f599b758d367e2049aee6e5,1,,,,,,dart,,,,,,0,21,21,40,1,5,0,,,,,,,,,,,,,,,,,,,,,,,,,,,,,,,,,,,,,,,,,,,,,,,,,,,,,,,,,,,,,,,,,,,,,,,,,,,,,,,,,,,,,,,,,,,,,,,,,,,
,,,,,,,,,,stimuli/images/PICTURE_308.png,ESTATE,5dc9f3a0e2633171257d503e,31/03/1953,2020-09-09_23h23.13.144,proactive2,2020.1.2,Win32,60,5f5126bb654d4b30ee6923d8,5f599b758d367e2049aee6e5,1,,,,,,dice,,,,,,0,22,22,46,1,5,0,,,,,,,,,,,,,,,,,,,,,,,,,,,,,,,,,,,,,,,,,,,,,,,,,,,,,,,,,,,,,,,,,,,,,,,,,,,,,,,,,,,,,,,,,,,,,,,,,,,
,,,,,,,,,,stimuli/images/PICTURE_160.png,FEET,5dc9f3a0e2633171257d503e,31/03/1953,2020-09-09_23h23.13.144,proactive2,2020.1.2,Win32,60,5f5126bb654d4b30ee6923d8,5f599b758d367e2049aee6e5,1,,,,,,wheelbarrow,,,,,,0,23,23,58,1,6,0,,,,,,,,,,,,,,,,,,,,,,,,,,,,,,,,,,,,,,,,,,,,,,,,,,,,,,,,,,,,,,,,,,,,,,,,,,,,,,,,,,,,,,,,,,,,,,,,,,,
,,,,,,,,,,stimuli/images/PICTURE_314.png,SAKE,5dc9f3a0e2633171257d503e,31/03/1953,2020-09-09_23h23.13.144,proactive2,2020.1.2,Win32,60,5f5126bb654d4b30ee6923d8,5f599b758d367e2049aee6e5,1,,,,,,perfume,,,,,,0,24,24,7,1,1,0,,,,,,,,,,,,,,,,,,,,,,,,,,,,,,,,,,,,,,,,,,,,,,,,,,,,,,,,,,,,,,,,,,,,,,,,,,,,,,,,,,,,,,,,,,,,,,,,,,,
,,,,,,,,,,stimuli/images/PICTURE_491.png,WRITER,5dc9f3a0e2633171257d503e,31/03/1953,2020-09-09_23h23.13.144,proactive2,2020.1.2,Win32,60,5f5126bb654d4b30ee6923d8,5f599b758d367e2049aee6e5,1,,,,,,rug,,,,,,0,25,25,57,1,6,0,,,,,,,,,,,,,,,,,,,,,,,,,,,,,,,,,,,,,,,,,,,,,,,,,,,,,,,,,,,,,,,,,,,,,,,,,,,,,,,,,,,,,,,,,,,,,,,,,,,
,,,,,,,,,,stimuli/images/PICTURE_233.png,IDEAS,5dc9f3a0e2633171257d503e,31/03/1953,2020-09-09_23h23.13.144,proactive2,2020.1.2,Win32,60,5f5126bb654d4b30ee6923d8,5f599b758d367e2049aee6e5,1,,,,,,salt,,,,,,0,26,26,28,1,3,0,,,,,,,,,,,,,,,,,,,,,,,,,,,,,,,,,,,,,,,,,,,,,,,,,,,,,,,,,,,,,,,,,,,,,,,,,,,,,,,,,,,,,,,,,,,,,,,,,,,
,,,,,,,,,,stimuli/images/PICTURE_470.png,CASINO,5dc9f3a0e2633171257d503e,31/03/1953,2020-09-09_23h23.13.144,proactive2,2020.1.2,Win32,60,5f5126bb654d4b30ee6923d8,5f599b758d367e2049aee6e5,1,,,,,,motorbike,,,,,,0,27,27,36,1,4,0,,,,,,,,,,,,,,,,,,,,,,,,,,,,,,,,,,,,,,,,,,,,,,,,,,,,,,,,,,,,,,,,,,,,,,,,,,,,,,,,,,,,,,,,,,,,,,,,,,,
,,,,,,,,,,stimuli/images/PICTURE_380.png,PHOTO,5dc9f3a0e2633171257d503e,31/03/1953,2020-09-09_23h23.13.144,proactive2,2020.1.2,Win32,60,5f5126bb654d4b30ee6923d8,5f599b758d367e2049aee6e5,1,,,,,,gorilla,,,,,,0,28,28,52,1,6,0,,,,,,,,,,,,,,,,,,,,,,,,,,,,,,,,,,,,,,,,,,,,,,,,,,,,,,,,,,,,,,,,,,,,,,,,,,,,,,,,,,,,,,,,,,,,,,,,,,,
,,,,,,,,,,stimuli/images/PICTURE_160.png,LEADER,5dc9f3a0e2633171257d503e,31/03/1953,2020-09-09_23h23.13.144,proactive2,2020.1.2,Win32,60,5f5126bb654d4b30ee6923d8,5f599b758d367e2049aee6e5,1,,,,,,wheelbarrow,,,,,,0,29,29,3,1,1,0,,,,,,,,,,,,,,,,,,,,,,,,,,,,,,,,,,,,,,,,,,,,,,,,,,,,,,,,,,,,,,,,,,,,,,,,,,,,,,,,,,,,,,,,,,,,,,,,,,,
,,,,,,,,,,stimuli/images/PICTURE_285.png,ADVICE,5dc9f3a0e2633171257d503e,31/03/1953,2020-09-09_23h23.13.144,proactive2,2020.1.2,Win32,60,5f5126bb654d4b30ee6923d8,5f599b758d367e2049aee6e5,1,,,,,,carrot,,,,,,0,30,30,12,1,2,0,,,,,,,,,,,,,,,,,,,,,,,,,,,,,,,,,,,,,,,,,,,,,,,,,,,,,,,,,,,,,,,,,,,,,,,,,,,,,,,,,,,,,,,,,,,,,,,,,,,
,,,,,,,,,,stimuli/images/PICTURE_708.png,CLIENT,5dc9f3a0e2633171257d503e,31/03/1953,2020-09-09_23h23.13.144,proactive2,2020.1.2,Win32,60,5f5126bb654d4b30ee6923d8,5f599b758d367e2049aee6e5,1,,,,,,monkey,,,,,,0,31,31,5,1,1,0,,,,,,,,,,,,,,,,,,,,,,,,,,,,,,,,,,,,,,,,,,,,,,,,,,,,,,,,,,,,,,,,,,,,,,,,,,,,,,,,,,,,,,,,,,,,,,,,,,,
,,,,,,,,,,stimuli/images/PICTURE_675.png,WEAPON,5dc9f3a0e2633171257d503e,31/03/1953,2020-09-09_23h23.13.144,proactive2,2020.1.2,Win32,60,5f5126bb654d4b30ee6923d8,5f599b758d367e2049aee6e5,1,,,,,,windmill,,,,,,0,32,32,32,1,4,0,,,,,,,,,,,,,,,,,,,,,,,,,,,,,,,,,,,,,,,,,,,,,,,,,,,,,,,,,,,,,,,,,,,,,,,,,,,,,,,,,,,,,,,,,,,,,,,,,,,
,,,,,,,,,,stimuli/images/PICTURE_348.png,SPEECH,5dc9f3a0e2633171257d503e,31/03/1953,2020-09-09_23h23.13.144,proactive2,2020.1.2,Win32,60,5f5126bb654d4b30ee6923d8,5f599b758d367e2049aee6e5,1,,,,,,pepper,,,,,,0,33,33,20,1,3,0,,,,,,,,,,,,,,,,,,,,,,,,,,,,,,,,,,,,,,,,,,,,,,,,,,,,,,,,,,,,,,,,,,,,,,,,,,,,,,,,,,,,,,,,,,,,,,,,,,,
,,,,,,,,,,stimuli/images/PICTURE_233.png,WOMEN,5dc9f3a0e2633171257d503e,31/03/1953,2020-09-09_23h23.13.144,proactive2,2020.1.2,Win32,60,5f5126bb654d4b30ee6923d8,5f599b758d367e2049aee6e5,1,,,,,,salt,,,,,,0,34,34,38,1,4,0,,,,,,,,,,,,,,,,,,,,,,,,,,,,,,,,,,,,,,,,,,,,,,,,,,,,,,,,,,,,,,,,,,,,,,,,,,,,,,,,,,,,,,,,,,,,,,,,,,,
,,,,,,,,,,stimuli/images/PICTURE_487.png,FLIGHT,5dc9f3a0e2633171257d503e,31/03/1953,2020-09-09_23h23.13.144,proactive2,2020.1.2,Win32,60,5f5126bb654d4b30ee6923d8,5f599b758d367e2049aee6e5,1,,,,,,basket,,,,,,0,35,35,9,1,1,0,,,,,,,,,,,,,,,,,,,,,,,,,,,,,,,,,,,,,,,,,,,,,,,,,,,,,,,,,,,,,,,,,,,,,,,,,,,,,,,,,,,,,,,,,,,,,,,,,,,
,,,,,,,,,,stimuli/images/PICTURE_449.png,THING,5dc9f3a0e2633171257d503e,31/03/1953,2020-09-09_23h23.13.144,proactive2,2020.1.2,Win32,60,5f5126bb654d4b30ee6923d8,5f599b758d367e2049aee6e5,1,,,,,,bench,,,,,,0,36,36,59,1,6,0,,,,,,,,,,,,,,,,,,,,,,,,,,,,,,,,,,,,,,,,,,,,,,,,,,,,,,,,,,,,,,,,,,,,,,,,,,,,,,,,,,,,,,,,,,,,,,,,,,,
,,,,,,,,,,stimuli/images/PICTURE_208.png,THING,5dc9f3a0e2633171257d503e,31/03/1953,2020-09-09_23h23.13.144,proactive2,2020.1.2,Win32,60,5f5126bb654d4b30ee6923d8,5f599b758d367e2049aee6e5,1,,,,,,microphone,,,,,,0,37,37,47,1,5,0,,,,,,,,,,,,,,,,,,,,,,,,,,,,,,,,,,,,,,,,,,,,,,,,,,,,,,,,,,,,,,,,,,,,,,,,,,,,,,,,,,,,,,,,,,,,,,,,,,,
,,,,,,,,,,stimuli/images/PICTURE_677.png,MILE,5dc9f3a0e2633171257d503e,31/03/1953,2020-09-09_23h23.13.144,proactive2,2020.1.2,Win32,60,5f5126bb654d4b30ee6923d8,5f599b758d367e2049aee6e5,1,,,,,,map,,,,,,0,38,38,30,1,4,0,,,,,,,,,,,,,,,,,,,,,,,,,,,,,,,,,,,,,,,,,,,,,,,,,,,,,,,,,,,,,,,,,,,,,,,,,,,,,,,,,,,,,,,,,,,,,,,,,,,
,,,,,,,,,,stimuli/images/PICTURE_68.png,MILE,5dc9f3a0e2633171257d503e,31/03/1953,2020-09-09_23h23.13.144,proactive2,2020.1.2,Win32,60,5f5126bb654d4b30ee6923d8,5f599b758d367e2049aee6e5,1,,,,,,candle,,,,,,0,39,39,44,1,5,0,,,,,,,,,,,,,,,,,,,,,,,,,,,,,,,,,,,,,,,,,,,,,,,,,,,,,,,,,,,,,,,,,,,,,,,,,,,,,,,,,,,,,,,,,,,,,,,,,,,
,,,,,,,,,,stimuli/images/PICTURE_203.png,ARTIST,5dc9f3a0e2633171257d503e,31/03/1953,2020-09-09_23h23.13.144,proactive2,2020.1.2,Win32,60,5f5126bb654d4b30ee6923d8,5f599b758d367e2049aee6e5,1,,,,,,cap,,,,,,0,40,40,26,1,3,0,,,,,,,,,,,,,,,,,,,,,,,,,,,,,,,,,,,,,,,,,,,,,,,,,,,,,,,,,,,,,,,,,,,,,,,,,,,,,,,,,,,,,,,,,,,,,,,,,,,
,,,,,,,,,,stimuli/images/PICTURE_151.png,GIRL,5dc9f3a0e2633171257d503e,31/03/1953,2020-09-09_23h23.13.144,proactive2,2020.1.2,Win32,60,5f5126bb654d4b30ee6923d8,5f599b758d367e2049aee6e5,1,,,,,,tray,,,,,,0,41,41,19,1,2,0,,,,,,,,,,,,,,,,,,,,,,,,,,,,,,,,,,,,,,,,,,,,,,,,,,,,,,,,,,,,,,,,,,,,,,,,,,,,,,,,,,,,,,,,,,,,,,,,,,,
,,,,,,,,,,stimuli/images/PICTURE_688.png,CASINO,5dc9f3a0e2633171257d503e,31/03/1953,2020-09-09_23h23.13.144,proactive2,2020.1.2,Win32,60,5f5126bb654d4b30ee6923d8,5f599b758d367e2049aee6e5,1,,,,,,runner,,,,,,0,42,42,2,1,1,0,,,,,,,,,,,,,,,,,,,,,,,,,,,,,,,,,,,,,,,,,,,,,,,,,,,,,,,,,,,,,,,,,,,,,,,,,,,,,,,,,,,,,,,,,,,,,,,,,,,
,,,,,,,,,,stimuli/images/PICTURE_85.png,THING,5dc9f3a0e2633171257d503e,31/03/1953,2020-09-09_23h23.13.144,proactive2,2020.1.2,Win32,60,5f5126bb654d4b30ee6923d8,5f599b758d367e2049aee6e5,1,,,,,,diamond,,,,,,0,43,43,15,1,2,0,,,,,,,,,,,,,,,,,,,,,,,,,,,,,,,,,,,,,,,,,,,,,,,,,,,,,,,,,,,,,,,,,,,,,,,,,,,,,,,,,,,,,,,,,,,,,,,,,,,
,,,,,,,,,,stimuli/images/PICTURE_123.png,ADVICE,5dc9f3a0e2633171257d503e,31/03/1953,2020-09-09_23h23.13.144,proactive2,2020.1.2,Win32,60,5f5126bb654d4b30ee6923d8,5f599b758d367e2049aee6e5,1,,,,,,dart,,,,,,0,44,44,50,1,6,0,,,,,,,,,,,,,,,,,,,,,,,,,,,,,,,,,,,,,,,,,,,,,,,,,,,,,,,,,,,,,,,,,,,,,,,,,,,,,,,,,,,,,,,,,,,,,,,,,,,
,,,,,,,,,,stimuli/images/PICTURE_667.png,BATH,5dc9f3a0e2633171257d503e,31/03/1953,2020-09-09_23h23.13.144,proactive2,2020.1.2,Win32,60,5f5126bb654d4b30ee6923d8,5f599b758d367e2049aee6e5,1,,,,,,daisy,,,,,,0,45,45,4,1,1,0,,,,,,,,,,,,,,,,,,,,,,,,,,,,,,,,,,,,,,,,,,,,,,,,,,,,,,,,,,,,,,,,,,,,,,,,,,,,,,,,,,,,,,,,,,,,,,,,,,,
,,,,,,,,,,stimuli/images/PICTURE_208.png,LOTS,5dc9f3a0e2633171257d503e,31/03/1953,2020-09-09_23h23.13.144,proactive2,2020.1.2,Win32,60,5f5126bb654d4b30ee6923d8,5f599b758d367e2049aee6e5,1,,,,,,microphone,,,,,,0,46,46,10,1,2,0,,,,,,,,,,,,,,,,,,,,,,,,,,,,,,,,,,,,,,,,,,,,,,,,,,,,,,,,,,,,,,,,,,,,,,,,,,,,,,,,,,,,,,,,,,,,,,,,,,,
,,,,,,,,,,stimuli/images/PICTURE_147.png,MOMENT,5dc9f3a0e2633171257d503e,31/03/1953,2020-09-09_23h23.13.144,proactive2,2020.1.2,Win32,60,5f5126bb654d4b30ee6923d8,5f599b758d367e2049aee6e5,1,,,,,,hanger,,,,,,0,47,47,51,1,6,0,,,,,,,,,,,,,,,,,,,,,,,,,,,,,,,,,,,,,,,,,,,,,,,,,,,,,,,,,,,,,,,,,,,,,,,,,,,,,,,,,,,,,,,,,,,,,,,,,,,
,,,,,,,,,,stimuli/images/PICTURE_504.png,BODY,5dc9f3a0e2633171257d503e,31/03/1953,2020-09-09_23h23.13.144,proactive2,2020.1.2,Win32,60,5f5126bb654d4b30ee6923d8,5f599b758d367e2049aee6e5,1,,,,,,wheel,,,,,,0,48,48,8,1,1,0,,,,,,,,,,,,,,,,,,,,,,,,,,,,,,,,,,,,,,,,,,,,,,,,,,,,,,,,,,,,,,,,,,,,,,,,,,,,,,,,,,,,,,,,,,,,,,,,,,,
,,,,,,,,,,stimuli/images/PICTURE_654.png,VALLEY,5dc9f3a0e2633171257d503e,31/03/1953,2020-09-09_23h23.13.144,proactive2,2020.1.2,Win32,60,5f5126bb654d4b30ee6923d8,5f599b758d367e2049aee6e5,1,,,,,,pencil,,,,,,0,49,49,1,1,1,0,,,,,,,,,,,,,,,,,,,,,,,,,,,,,,,,,,,,,,,,,,,,,,,,,,,,,,,,,,,,,,,,,,,,,,,,,,,,,,,,,,,,,,,,,,,,,,,,,,,
,,,,,,,,,,stimuli/images/PICTURE_453.png,DUDE,5dc9f3a0e2633171257d503e,31/03/1953,2020-09-09_23h23.13.144,proactive2,2020.1.2,Win32,60,5f5126bb654d4b30ee6923d8,5f599b758d367e2049aee6e5,1,,,,,,scissors,,,,,,0,50,50,27,1,3,0,,,,,,,,,,,,,,,,,,,,,,,,,,,,,,,,,,,,,,,,,,,,,,,,,,,,,,,,,,,,,,,,,,,,,,,,,,,,,,,,,,,,,,,,,,,,,,,,,,,
,,,,,,,,,,stimuli/images/PICTURE_302.png,FAMILY,5dc9f3a0e2633171257d503e,31/03/1953,2020-09-09_23h23.13.144,proactive2,2020.1.2,Win32,60,5f5126bb654d4b30ee6923d8,5f599b758d367e2049aee6e5,1,,,,,,taxi,,,,,,0,51,51,18,1,2,0,,,,,,,,,,,,,,,,,,,,,,,,,,,,,,,,,,,,,,,,,,,,,,,,,,,,,,,,,,,,,,,,,,,,,,,,,,,,,,,,,,,,,,,,,,,,,,,,,,,
,,,,,,,,,,stimuli/images/PICTURE_744.png,SYSTEM,5dc9f3a0e2633171257d503e,31/03/1953,2020-09-09_23h23.13.144,proactive2,2020.1.2,Win32,60,5f5126bb654d4b30ee6923d8,5f599b758d367e2049aee6e5,1,,,,,,ring,,,,,,0,52,52,43,1,5,0,,,,,,,,,,,,,,,,,,,,,,,,,,,,,,,,,,,,,,,,,,,,,,,,,,,,,,,,,,,,,,,,,,,,,,,,,,,,,,,,,,,,,,,,,,,,,,,,,,,
,,,,,,,,,,stimuli/images/PICTURE_255.png,AREA,5dc9f3a0e2633171257d503e,31/03/1953,2020-09-09_23h23.13.144,proactive2,2020.1.2,Win32,60,5f5126bb654d4b30ee6923d8,5f599b758d367e2049aee6e5,1,,,,,,shovel,,,,,,0,53,53,22,1,3,0,,,,,,,,,,,,,,,,,,,,,,,,,,,,,,,,,,,,,,,,,,,,,,,,,,,,,,,,,,,,,,,,,,,,,,,,,,,,,,,,,,,,,,,,,,,,,,,,,,,
,,,,,,,,,,stimuli/images/PICTURE_467.png,DEMON,5dc9f3a0e2633171257d503e,31/03/1953,2020-09-09_23h23.13.144,proactive2,2020.1.2,Win32,60,5f5126bb654d4b30ee6923d8,5f599b758d367e2049aee6e5,1,,,,,,peg,,,,,,0,54,54,23,1,3,0,,,,,,,,,,,,,,,,,,,,,,,,,,,,,,,,,,,,,,,,,,,,,,,,,,,,,,,,,,,,,,,,,,,,,,,,,,,,,,,,,,,,,,,,,,,,,,,,,,,
,,,,,,,,,,stimuli/images/PICTURE_708.png,PENNY,5dc9f3a0e2633171257d503e,31/03/1953,2020-09-09_23h23.13.144,proactive2,2020.1.2,Win32,60,5f5126bb654d4b30ee6923d8,5f599b758d367e2049aee6e5,1,,,,,,monkey,,,,,,0,55,55,31,1,4,0,,,,,,,,,,,,,,,,,,,,,,,,,,,,,,,,,,,,,,,,,,,,,,,,,,,,,,,,,,,,,,,,,,,,,,,,,,,,,,,,,,,,,,,,,,,,,,,,,,,
,,,,,,,,,,stimuli/images/PICTURE_667.png,PLENTY,5dc9f3a0e2633171257d503e,31/03/1953,2020-09-09_23h23.13.144,proactive2,2020.1.2,Win32,60,5f5126bb654d4b30ee6923d8,5f599b758d367e2049aee6e5,1,,,,,,daisy,,,,,,0,56,56,41,1,5,0,,,,,,,,,,,,,,,,,,,,,,,,,,,,,,,,,,,,,,,,,,,,,,,,,,,,,,,,,,,,,,,,,,,,,,,,,,,,,,,,,,,,,,,,,,,,,,,,,,,
,,,,,,,,,,stimuli/images/PICTURE_177.png,CARS,5dc9f3a0e2633171257d503e,31/03/1953,2020-09-09_23h23.13.144,proactive2,2020.1.2,Win32,60,5f5126bb654d4b30ee6923d8,5f599b758d367e2049aee6e5,1,,,,,,mushroom,,,,,,0,57,57,35,1,4,0,,,,,,,,,,,,,,,,,,,,,,,,,,,,,,,,,,,,,,,,,,,,,,,,,,,,,,,,,,,,,,,,,,,,,,,,,,,,,,,,,,,,,,,,,,,,,,,,,,,
,,,,,,,,,,stimuli/images/PICTURE_688.png,WOMEN,5dc9f3a0e2633171257d503e,31/03/1953,2020-09-09_23h23.13.144,proactive2,2020.1.2,Win32,60,5f5126bb654d4b30ee6923d8,5f599b758d367e2049aee6e5,1,,,,,,runner,,,,,,0,58,58,14,1,2,0,,,,,,,,,,,,,,,,,,,,,,,,,,,,,,,,,,,,,,,,,,,,,,,,,,,,,,,,,,,,,,,,,,,,,,,,,,,,,,,,,,,,,,,,,,,,,,,,,,,
,,?,0.001335,0,,,,,,stimuli/images/PICTURE_469.png,LETTER,5dc9f3a0e2633171257d503e,31/03/1953,2020-09-09_23h23.13.144,proactive2,2020.1.2,Win32,60,5f5126bb654d4b30ee6923d8,5f599b758d367e2049aee6e5,1,,,,,,stool,,,,,,,,,,,5,0,0,0,0,42,1,,,,,,,,,,,,,,,,,,,,,,,,,,,,,,,,,,,,,,,,,,,,,,,,,,,,,,,,,,,,,,,,,,,,,,,,,,,,,,,,,,,,,,,,,,,,,,
,,?,0.001405,0,,,,,,stimuli/images/PICTURE_708.png,PENNY,5dc9f3a0e2633171257d503e,31/03/1953,2020-09-09_23h23.13.144,proactive2,2020.1.2,Win32,60,5f5126bb654d4b30ee6923d8,5f599b758d367e2049aee6e5,1,,,,,,monkey,,,,,,,,,,,4,0,0,1,1,31,1,,,,,,,,,,,,,,,,,,,,,,,,,,,,,,,,,,,,,,,,,,,,,,,,,,,,,,,,,,,,,,,,,,,,,,,,,,,,,,,,,,,,,,,,,,,,,,
,,?,0.001075,0,,,,,,stimuli/images/PICTURE_314.png,GODS,5dc9f3a0e2633171257d503e,31/03/1953,2020-09-09_23h23.13.144,proactive2,2020.1.2,Win32,60,5f5126bb654d4b30ee6923d8,5f599b758d367e2049aee6e5,1,,,,,,perfume,,,,,,,,,,,2,0,0,2,2,11,1,,,,,,,,,,,,,,,,,,,,,,,,,,,,,,,,,,,,,,,,,,,,,,,,,,,,,,,,,,,,,,,,,,,,,,,,,,,,,,,,,,,,,,,,,,,,,,
,,?,0.00363,0,,,,,,stimuli/images/PICTURE_380.png,DEATH,5dc9f3a0e2633171257d503e,31/03/1953,2020-09-09_23h23.13.144,proactive2,2020.1.2,Win32,60,5f5126bb654d4b30ee6923d8,5f599b758d367e2049aee6e5,1,,,,,,gorilla,,,,,,,,,,,5,0,0,3,3,49,1,,,,,,,,,,,,,,,,,,,,,,,,,,,,,,,,,,,,,,,,,,,,,,,,,,,,,,,,,,,,,,,,,,,,,,,,,,,,,,,,,,,,,,,,,,,,,,
,,?,0.00108,0,,,,,,stimuli/images/PICTURE_491.png,ROOF,5dc9f3a0e2633171257d503e,31/03/1953,2020-09-09_23h23.13.144,proactive2,2020.1.2,Win32,60,5f5126bb654d4b30ee6923d8,5f599b758d367e2049aee6e5,1,,,,,,rug,,,,,,,,,,,3,0,0,4,4,24,1,,,,,,,,,,,,,,,,,,,,,,,,,,,,,,,,,,,,,,,,,,,,,,,,,,,,,,,,,,,,,,,,,,,,,,,,,,,,,,,,,,,,,,,,,,,,,,
,,ARTIST,11.00258,1,,,,,,stimuli/images/PICTURE_469.png,ARTIST,5dc9f3a0e2633171257d503e,31/03/1953,2020-09-09_23h23.13.144,proactive2,2020.1.2,Win32,60,5f5126bb654d4b30ee6923d8,5f599b758d367e2049aee6e5,1,,,,,,stool,,,,,,,,,,,1,0,0,5,5,6,1,,,,,,,,,,,,,,,,,,,,,,,,,,,,,,,,,,,,,,,,,,,,,,,,,,,,,,,,,,,,,,,,,,,,,,,,,,,,,,,,,,,,,,,,,,,,,,
,,?,0.00283,0,,,,,,stimuli/images/PICTURE_285.png,ADVICE,5dc9f3a0e2633171257d503e,31/03/1953,2020-09-09_23h23.13.144,proactive2,2020.1.2,Win32,60,5f5126bb654d4b30ee6923d8,5f599b758d367e2049aee6e5,1,,,,,,carrot,,,,,,,,,,,2,0,0,6,6,12,1,,,,,,,,,,,,,,,,,,,,,,,,,,,,,,,,,,,,,,,,,,,,,,,,,,,,,,,,,,,,,,,,,,,,,,,,,,,,,,,,,,,,,,,,,,,,,,
,,?,0.00135,0,,,,,,stimuli/images/PICTURE_215.png,PLENTY,5dc9f3a0e2633171257d503e,31/03/1953,2020-09-09_23h23.13.144,proactive2,2020.1.2,Win32,60,5f5126bb654d4b30ee6923d8,5f599b758d367e2049aee6e5,1,,,,,,boot,,,,,,,,,,,4,0,0,7,7,37,1,,,,,,,,,,,,,,,,,,,,,,,,,,,,,,,,,,,,,,,,,,,,,,,,,,,,,,,,,,,,,,,,,,,,,,,,,,,,,,,,,,,,,,,,,,,,,,
,,?,0.001365,0,,,,,,stimuli/images/PICTURE_509.png,PHOTO,5dc9f3a0e2633171257d503e,31/03/1953,2020-09-09_23h23.13.144,proactive2,2020.1.2,Win32,60,5f5126bb654d4b30ee6923d8,5f599b758d367e2049aee6e5,1,,,,,,telephone,,,,,,,,,,,3,0,0,8,8,21,1,,,,,,,,,,,,,,,,,,,,,,,,,,,,,,,,,,,,,,,,,,,,,,,,,,,,,,,,,,,,,,,,,,,,,,,,,,,,,,,,,,,,,,,,,,,,,,
,,LEADER,8.405385,1,,,,,,stimuli/images/PICTURE_160.png,LEADER,5dc9f3a0e2633171257d503e,31/03/1953,2020-09-09_23h23.13.144,proactive2,2020.1.2,Win32,60,5f5126bb654d4b30ee6923d8,5f599b758d367e2049aee6e5,1,,,,,,wheelbarrow,,,,,,,,,,,1,0,0,9,9,3,1,,,,,,,,,,,,,,,,,,,,,,,,,,,,,,,,,,,,,,,,,,,,,,,,,,,,,,,,,,,,,,,,,,,,,,,,,,,,,,,,,,,,,,,,,,,,,,
,,?,0.00333,0,,,,,,stimuli/images/PICTURE_744.png,SYSTEM,5dc9f3a0e2633171257d503e,31/03/1953,2020-09-09_23h23.13.144,proactive2,2020.1.2,Win32,60,5f5126bb654d4b30ee6923d8,5f599b758d367e2049aee6e5,1,,,,,,ring,,,,,,,,,,,5,0,0,10,10,43,1,,,,,,,,,,,,,,,,,,,,,,,,,,,,,,,,,,,,,,,,,,,,,,,,,,,,,,,,,,,,,,,,,,,,,,,,,,,,,,,,,,,,,,,,,,,,,,
,,?,0.001195,0,,,,,,stimuli/images/PICTURE_123.png,ADVICE,5dc9f3a0e2633171257d503e,31/03/1953,2020-09-09_23h23.13.144,proactive2,2020.1.2,Win32,60,5f5126bb654d4b30ee6923d8,5f599b758d367e2049aee6e5,1,,,,,,dart,,,,,,,,,,,6,0,0,11,11,50,1,,,,,,,,,,,,,,,,,,,,,,,,,,,,,,,,,,,,,,,,,,,,,,,,,,,,,,,,,,,,,,,,,,,,,,,,,,,,,,,,,,,,,,,,,,,,,,
,,?,0.001215,0,,,,,,stimuli/images/PICTURE_311.png,BEAUTY,5dc9f3a0e2633171257d503e,31/03/1953,2020-09-09_23h23.13.144,proactive2,2020.1.2,Win32,60,5f5126bb654d4b30ee6923d8,5f599b758d367e2049aee6e5,1,,,,,,razor,,,,,,,,,,,2,0,0,12,12,13,1,,,,,,,,,,,,,,,,,,,,,,,,,,,,,,,,,,,,,,,,,,,,,,,,,,,,,,,,,,,,,,,,,,,,,,,,,,,,,,,,,,,,,,,,,,,,,,
,,?,0.001145,0,,,,,,stimuli/images/PICTURE_160.png,FEET,5dc9f3a0e2633171257d503e,31/03/1953,2020-09-09_23h23.13.144,proactive2,2020.1.2,Win32,60,5f5126bb654d4b30ee6923d8,5f599b758d367e2049aee6e5,1,,,,,,wheelbarrow,,,,,,,,,,,6,0,0,13,13,58,1,,,,,,,,,,,,,,,,,,,,,,,,,,,,,,,,,,,,,,,,,,,,,,,,,,,,,,,,,,,,,,,,,,,,,,,,,,,,,,,,,,,,,,,,,,,,,,
,,?,0.00166,0,,,,,,stimuli/images/PICTURE_470.png,CASINO,5dc9f3a0e2633171257d503e,31/03/1953,2020-09-09_23h23.13.144,proactive2,2020.1.2,Win32,60,5f5126bb654d4b30ee6923d8,5f599b758d367e2049aee6e5,1,,,,,,motorbike,,,,,,,,,,,4,0,0,14,14,36,1,,,,,,,,,,,,,,,,,,,,,,,,,,,,,,,,,,,,,,,,,,,,,,,,,,,,,,,,,,,,,,,,,,,,,,,,,,,,,,,,,,,,,,,,,,,,,,
,,?,0.00119,0,,,,,,stimuli/images/PICTURE_488.png,STYLE,5dc9f3a0e2633171257d503e,31/03/1953,2020-09-09_23h23.13.144,proactive2,2020.1.2,Win32,60,5f5126bb654d4b30ee6923d8,5f599b758d367e2049aee6e5,1,,,,,,sun,,,,,,,,,,,4,0,0,15,15,33,1,,,,,,,,,,,,,,,,,,,,,,,,,,,,,,,,,,,,,,,,,,,,,,,,,,,,,,,,,,,,,,,,,,,,,,,,,,,,,,,,,,,,,,,,,,,,,,
,,?,0.001185,0,,,,,,stimuli/images/PICTURE_208.png,LOTS,5dc9f3a0e2633171257d503e,31/03/1953,2020-09-09_23h23.13.144,proactive2,2020.1.2,Win32,60,5f5126bb654d4b30ee6923d8,5f599b758d367e2049aee6e5,1,,,,,,microphone,,,,,,,,,,,2,0,0,16,16,10,1,,,,,,,,,,,,,,,,,,,,,,,,,,,,,,,,,,,,,,,,,,,,,,,,,,,,,,,,,,,,,,,,,,,,,,,,,,,,,,,,,,,,,,,,,,,,,,
,,?,0.001175,0,,,,,,stimuli/images/PICTURE_68.png,MILE,5dc9f3a0e2633171257d503e,31/03/1953,2020-09-09_23h23.13.144,proactive2,2020.1.2,Win32,60,5f5126bb654d4b30ee6923d8,5f599b758d367e2049aee6e5,1,,,,,,candle,,,,,,,,,,,5,0,0,17,17,44,1,,,,,,,,,,,,,,,,,,,,,,,,,,,,,,,,,,,,,,,,,,,,,,,,,,,,,,,,,,,,,,,,,,,,,,,,,,,,,,,,,,,,,,,,,,,,,,
,,?,0.001165,0,,,,,,stimuli/images/PICTURE_255.png,AREA,5dc9f3a0e2633171257d503e,31/03/1953,2020-09-09_23h23.13.144,proactive2,2020.1.2,Win32,60,5f5126bb654d4b30ee6923d8,5f599b758d367e2049aee6e5,1,,,,,,shovel,,,,,,,,,,,3,0,0,18,18,22,1,,,,,,,,,,,,,,,,,,,,,,,,,,,,,,,,,,,,,,,,,,,,,,,,,,,,,,,,,,,,,,,,,,,,,,,,,,,,,,,,,,,,,,,,,,,,,,
,,FLIGH,15.011475,0,,,,,,stimuli/images/PICTURE_688.png,CASINO,5dc9f3a0e2633171257d503e,31/03/1953,2020-09-09_23h23.13.144,proactive2,2020.1.2,Win32,60,5f5126bb654d4b30ee6923d8,5f599b758d367e2049aee6e5,1,,,,,,runner,,,,,,,,,,,1,0,0,19,19,2,1,,,,,,,,,,,,,,,,,,,,,,,,,,,,,,,,,,,,,,,,,,,,,,,,,,,,,,,,,,,,,,,,,,,,,,,,,,,,,,,,,,,,,,,,,,,,,,
,,?,0.00167,0,,,,,,stimuli/images/PICTURE_32.png,JUNGLE,5dc9f3a0e2633171257d503e,31/03/1953,2020-09-09_23h23.13.144,proactive2,2020.1.2,Win32,60,5f5126bb654d4b30ee6923d8,5f599b758d367e2049aee6e5,1,,,,,,crown,,,,,,,,,,,5,0,0,20,20,45,1,,,,,,,,,,,,,,,,,,,,,,,,,,,,,,,,,,,,,,,,,,,,,,,,,,,,,,,,,,,,,,,,,,,,,,,,,,,,,,,,,,,,,,,,,,,,,,
,,?,0.001295,0,,,,,,stimuli/images/PICTURE_95.png,STYLE,5dc9f3a0e2633171257d503e,31/03/1953,2020-09-09_23h23.13.144,proactive2,2020.1.2,Win32,60,5f5126bb654d4b30ee6923d8,5f599b758d367e2049aee6e5,1,,,,,,suitcase,,,,,,,,,,,3,0,0,21,21,25,1,,,,,,,,,,,,,,,,,,,,,,,,,,,,,,,,,,,,,,,,,,,,,,,,,,,,,,,,,,,,,,,,,,,,,,,,,,,,,,,,,,,,,,,,,,,,,,
,,FLIGHT,10.40735,0,,,,,,stimuli/images/PICTURE_654.png,VALLEY,5dc9f3a0e2633171257d503e,31/03/1953,2020-09-09_23h23.13.144,proactive2,2020.1.2,Win32,60,5f5126bb654d4b30ee6923d8,5f599b758d367e2049aee6e5,1,,,,,,pencil,,,,,,,,,,,1,0,0,22,22,1,1,,,,,,,,,,,,,,,,,,,,,,,,,,,,,,,,,,,,,,,,,,,,,,,,,,,,,,,,,,,,,,,,,,,,,,,,,,,,,,,,,,,,,,,,,,,,,,
,,?,0.00233,0,,,,,,stimuli/images/PICTURE_453.png,DUDE,5dc9f3a0e2633171257d503e,31/03/1953,2020-09-09_23h23.13.144,proactive2,2020.1.2,Win32,60,5f5126bb654d4b30ee6923d8,5f599b758d367e2049aee6e5,1,,,,,,scissors,,,,,,,,,,,3,0,0,23,23,27,1,,,,,,,,,,,,,,,,,,,,,,,,,,,,,,,,,,,,,,,,,,,,,,,,,,,,,,,,,,,,,,,,,,,,,,,,,,,,,,,,,,,,,,,,,,,,,,
,,?,0.001325,0,,,,,,stimuli/images/PICTURE_327.png,BEAUTY,5dc9f3a0e2633171257d503e,31/03/1953,2020-09-09_23h23.13.144,proactive2,2020.1.2,Win32,60,5f5126bb654d4b30ee6923d8,5f599b758d367e2049aee6e5,1,,,,,,helmet,,,,,,,,,,,5,0,0,24,24,48,1,,,,,,,,,,,,,,,,,,,,,,,,,,,,,,,,,,,,,,,,,,,,,,,,,,,,,,,,,,,,,,,,,,,,,,,,,,,,,,,,,,,,,,,,,,,,,,
,,?,0.00124,0,,,,,,stimuli/images/PICTURE_744.png,SAKE,5dc9f3a0e2633171257d503e,31/03/1953,2020-09-09_23h23.13.144,proactive2,2020.1.2,Win32,60,5f5126bb654d4b30ee6923d8,5f599b758d367e2049aee6e5,1,,,,,,ring,,,,,,,,,,,2,0,0,25,25,17,1,,,,,,,,,,,,,,,,,,,,,,,,,,,,,,,,,,,,,,,,,,,,,,,,,,,,,,,,,,,,,,,,,,,,,,,,,,,,,,,,,,,,,,,,,,,,,,
,,?,0.00127,0,,,,,,stimuli/images/PICTURE_467.png,DEMON,5dc9f3a0e2633171257d503e,31/03/1953,2020-09-09_23h23.13.144,proactive2,2020.1.2,Win32,60,5f5126bb654d4b30ee6923d8,5f599b758d367e2049aee6e5,1,,,,,,peg,,,,,,,,,,,3,0,0,26,26,23,1,,,,,,,,,,,,,,,,,,,,,,,,,,,,,,,,,,,,,,,,,,,,,,,,,,,,,,,,,,,,,,,,,,,,,,,,,,,,,,,,,,,,,,,,,,,,,,
,,?,0.001195,0,,,,,,stimuli/images/PICTURE_667.png,PLENTY,5dc9f3a0e2633171257d503e,31/03/1953,2020-09-09_23h23.13.144,proactive2,2020.1.2,Win32,60,5f5126bb654d4b30ee6923d8,5f599b758d367e2049aee6e5,1,,,,,,daisy,,,,,,,,,,,5,0,0,27,27,41,1,,,,,,,,,,,,,,,,,,,,,,,,,,,,,,,,,,,,,,,,,,,,,,,,,,,,,,,,,,,,,,,,,,,,,,,,,,,,,,,,,,,,,,,,,,,,,,
,,?,0.00118,0,,,,,,stimuli/images/PICTURE_123.png,ADVICE,5dc9f3a0e2633171257d503e,31/03/1953,2020-09-09_23h23.13.144,proactive2,2020.1.2,Win32,60,5f5126bb654d4b30ee6923d8,5f599b758d367e2049aee6e5,1,,,,,,dart,,,,,,,,,,,5,0,0,28,28,40,1,,,,,,,,,,,,,,,,,,,,,,,,,,,,,,,,,,,,,,,,,,,,,,,,,,,,,,,,,,,,,,,,,,,,,,,,,,,,,,,,,,,,,,,,,,,,,,
,,?,0.00119,0,,,,,,stimuli/images/PICTURE_308.png,ESTATE,5dc9f3a0e2633171257d503e,31/03/1953,2020-09-09_23h23.13.144,proactive2,2020.1.2,Win32,60,5f5126bb654d4b30ee6923d8,5f599b758d367e2049aee6e5,1,,,,,,dice,,,,,,,,,,,5,0,0,29,29,46,1,,,,,,,,,,,,,,,,,,,,,,,,,,,,,,,,,,,,,,,,,,,,,,,,,,,,,,,,,,,,,,,,,,,,,,,,,,,,,,,,,,,,,,,,,,,,,,
,,LOADER,12.354305,0,,,,,,stimuli/images/PICTURE_339.png,PLENTY,5dc9f3a0e2633171257d503e,31/03/1953,2020-09-09_23h23.13.144,proactive2,2020.1.2,Win32,60,5f5126bb654d4b30ee6923d8,5f599b758d367e2049aee6e5,1,,,,,,backpack,,,,,,,,,,,1,0,0,30,30,0,1,,,,,,,,,,,,,,,,,,,,,,,,,,,,,,,,,,,,,,,,,,,,,,,,,,,,,,,,,,,,,,,,,,,,,,,,,,,,,,,,,,,,,,,,,,,,,,
,,?,0.00226,0,,,,,,stimuli/images/PICTURE_233.png,IDEAS,5dc9f3a0e2633171257d503e,31/03/1953,2020-09-09_23h23.13.144,proactive2,2020.1.2,Win32,60,5f5126bb654d4b30ee6923d8,5f599b758d367e2049aee6e5,1,,,,,,salt,,,,,,,,,,,3,0,0,31,31,28,1,,,,,,,,,,,,,,,,,,,,,,,,,,,,,,,,,,,,,,,,,,,,,,,,,,,,,,,,,,,,,,,,,,,,,,,,,,,,,,,,,,,,,,,,,,,,,,
,,BODY,14.421235,0,,,,,,stimuli/images/PICTURE_667.png,BATH,5dc9f3a0e2633171257d503e,31/03/1953,2020-09-09_23h23.13.144,proactive2,2020.1.2,Win32,60,5f5126bb654d4b30ee6923d8,5f599b758d367e2049aee6e5,1,,,,,,daisy,,,,,,,,,,,1,0,0,32,32,4,1,,,,,,,,,,,,,,,,,,,,,,,,,,,,,,,,,,,,,,,,,,,,,,,,,,,,,,,,,,,,,,,,,,,,,,,,,,,,,,,,,,,,,,,,,,,,,,
,,?,0.002555,0,,,,,,stimuli/images/PICTURE_356.png,DANGER,5dc9f3a0e2633171257d503e,31/03/1953,2020-09-09_23h23.13.144,proactive2,2020.1.2,Win32,60,5f5126bb654d4b30ee6923d8,5f599b758d367e2049aee6e5,1,,,,,,pawn,,,,,,,,,,,6,0,0,33,33,55,1,,,,,,,,,,,,,,,,,,,,,,,,,,,,,,,,,,,,,,,,,,,,,,,,,,,,,,,,,,,,,,,,,,,,,,,,,,,,,,,,,,,,,,,,,,,,,,
,,BODY,7.631775,1,,,,,,stimuli/images/PICTURE_504.png,BODY,5dc9f3a0e2633171257d503e,31/03/1953,2020-09-09_23h23.13.144,proactive2,2020.1.2,Win32,60,5f5126bb654d4b30ee6923d8,5f599b758d367e2049aee6e5,1,,,,,,wheel,,,,,,,,,,,1,0,0,34,34,8,1,,,,,,,,,,,,,,,,,,,,,,,,,,,,,,,,,,,,,,,,,,,,,,,,,,,,,,,,,,,,,,,,,,,,,,,,,,,,,,,,,,,,,,,,,,,,,,
,,?,0.00183,0,,,,,,stimuli/images/PICTURE_449.png,THING,5dc9f3a0e2633171257d503e,31/03/1953,2020-09-09_23h23.13.144,proactive2,2020.1.2,Win32,60,5f5126bb654d4b30ee6923d8,5f599b758d367e2049aee6e5,1,,,,,,bench,,,,,,,,,,,6,0,0,35,35,59,1,,,,,,,,,,,,,,,,,,,,,,,,,,,,,,,,,,,,,,,,,,,,,,,,,,,,,,,,,,,,,,,,,,,,,,,,,,,,,,,,,,,,,,,,,,,,,,
,,?,0.00141,0,,,,,,stimuli/images/PICTURE_302.png,FAMILY,5dc9f3a0e2633171257d503e,31/03/1953,2020-09-09_23h23.13.144,proactive2,2020.1.2,Win32,60,5f5126bb654d4b30ee6923d8,5f599b758d367e2049aee6e5,1,,,,,,taxi,,,,,,,,,,,2,0,0,36,36,18,1,,,,,,,,,,,,,,,,,,,,,,,,,,,,,,,,,,,,,,,,,,,,,,,,,,,,,,,,,,,,,,,,,,,,,,,,,,,,,,,,,,,,,,,,,,,,,,
,,?,0.00116,0,,,,,,stimuli/images/PICTURE_677.png,MILE,5dc9f3a0e2633171257d503e,31/03/1953,2020-09-09_23h23.13.144,proactive2,2020.1.2,Win32,60,5f5126bb654d4b30ee6923d8,5f599b758d367e2049aee6e5,1,,,,,,map,,,,,,,,,,,4,0,0,37,37,30,1,,,,,,,,,,,,,,,,,,,,,,,,,,,,,,,,,,,,,,,,,,,,,,,,,,,,,,,,,,,,,,,,,,,,,,,,,,,,,,,,,,,,,,,,,,,,,,
,,?,0.001215,0,,,,,,stimuli/images/PICTURE_708.png,YARD,5dc9f3a0e2633171257d503e,31/03/1953,2020-09-09_23h23.13.144,proactive2,2020.1.2,Win32,60,5f5126bb654d4b30ee6923d8,5f599b758d367e2049aee6e5,1,,,,,,monkey,,,,,,,,,,,3,0,0,38,38,29,1,,,,,,,,,,,,,,,,,,,,,,,,,,,,,,,,,,,,,,,,,,,,,,,,,,,,,,,,,,,,,,,,,,,,,,,,,,,,,,,,,,,,,,,,,,,,,,
,,?,0.001855,0,,,,,,stimuli/images/PICTURE_348.png,SPEECH,5dc9f3a0e2633171257d503e,31/03/1953,2020-09-09_23h23.13.144,proactive2,2020.1.2,Win32,60,5f5126bb654d4b30ee6923d8,5f599b758d367e2049aee6e5,1,,,,,,pepper,,,,,,,,,,,3,0,0,39,39,20,1,,,,,,,,,,,,,,,,,,,,,,,,,,,,,,,,,,,,,,,,,,,,,,,,,,,,,,,,,,,,,,,,,,,,,,,,,,,,,,,,,,,,,,,,,,,,,,
,,BA,15.00635,0,,,,,,stimuli/images/PICTURE_487.png,FLIGHT,5dc9f3a0e2633171257d503e,31/03/1953,2020-09-09_23h23.13.144,proactive2,2020.1.2,Win32,60,5f5126bb654d4b30ee6923d8,5f599b758d367e2049aee6e5,1,,,,,,basket,,,,,,,,,,,1,0,0,40,40,9,1,,,,,,,,,,,,,,,,,,,,,,,,,,,,,,,,,,,,,,,,,,,,,,,,,,,,,,,,,,,,,,,,,,,,,,,,,,,,,,,,,,,,,,,,,,,,,,
,,?,0.002145,0,,,,,,stimuli/images/PICTURE_203.png,ARTIST,5dc9f3a0e2633171257d503e,31/03/1953,2020-09-09_23h23.13.144,proactive2,2020.1.2,Win32,60,5f5126bb654d4b30ee6923d8,5f599b758d367e2049aee6e5,1,,,,,,cap,,,,,,,,,,,3,0,0,41,41,26,1,,,,,,,,,,,,,,,,,,,,,,,,,,,,,,,,,,,,,,,,,,,,,,,,,,,,,,,,,,,,,,,,,,,,,,,,,,,,,,,,,,,,,,,,,,,,,,
,,?,0.00124,0,,,,,,stimuli/images/PICTURE_491.png,WRITER,5dc9f3a0e2633171257d503e,31/03/1953,2020-09-09_23h23.13.144,proactive2,2020.1.2,Win32,60,5f5126bb654d4b30ee6923d8,5f599b758d367e2049aee6e5,1,,,,,,rug,,,,,,,,,,,6,0,0,42,42,57,1,,,,,,,,,,,,,,,,,,,,,,,,,,,,,,,,,,,,,,,,,,,,,,,,,,,,,,,,,,,,,,,,,,,,,,,,,,,,,,,,,,,,,,,,,,,,,,
,,?,0.001175,0,,,,,,stimuli/images/PICTURE_453.png,PLENTY,5dc9f3a0e2633171257d503e,31/03/1953,2020-09-09_23h23.13.144,proactive2,2020.1.2,Win32,60,5f5126bb654d4b30ee6923d8,5f599b758d367e2049aee6e5,1,,,,,,scissors,,,,,,,,,,,6,0,0,43,43,56,1,,,,,,,,,,,,,,,,,,,,,,,,,,,,,,,,,,,,,,,,,,,,,,,,,,,,,,,,,,,,,,,,,,,,,,,,,,,,,,,,,,,,,,,,,,,,,,
,,?,0.00117,0,,,,,,stimuli/images/PICTURE_308.png,KIND,5dc9f3a0e2633171257d503e,31/03/1953,2020-09-09_23h23.13.144,proactive2,2020.1.2,Win32,60,5f5126bb654d4b30ee6923d8,5f599b758d367e2049aee6e5,1,,,,,,dice,,,,,,,,,,,6,0,0,44,44,54,1,,,,,,,,,,,,,,,,,,,,,,,,,,,,,,,,,,,,,,,,,,,,,,,,,,,,,,,,,,,,,,,,,,,,,,,,,,,,,,,,,,,,,,,,,,,,,,
,,?,0.001855,0,,,,,,stimuli/images/PICTURE_692.png,MONTH,5dc9f3a0e2633171257d503e,31/03/1953,2020-09-09_23h23.13.144,proactive2,2020.1.2,Win32,60,5f5126bb654d4b30ee6923d8,5f599b758d367e2049aee6e5,1,,,,,,cherry,,,,,,,,,,,2,0,0,45,45,16,1,,,,,,,,,,,,,,,,,,,,,,,,,,,,,,,,,,,,,,,,,,,,,,,,,,,,,,,,,,,,,,,,,,,,,,,,,,,,,,,,,,,,,,,,,,,,,,
,,?,0.001205,0,,,,,,stimuli/images/PICTURE_151.png,GIRL,5dc9f3a0e2633171257d503e,31/03/1953,2020-09-09_23h23.13.144,proactive2,2020.1.2,Win32,60,5f5126bb654d4b30ee6923d8,5f599b758d367e2049aee6e5,1,,,,,,tray,,,,,,,,,,,2,0,0,46,46,19,1,,,,,,,,,,,,,,,,,,,,,,,,,,,,,,,,,,,,,,,,,,,,,,,,,,,,,,,,,,,,,,,,,,,,,,,,,,,,,,,,,,,,,,,,,,,,,,
,,?,0.001245,0,,,,,,stimuli/images/PICTURE_85.png,THING,5dc9f3a0e2633171257d503e,31/03/1953,2020-09-09_23h23.13.144,proactive2,2020.1.2,Win32,60,5f5126bb654d4b30ee6923d8,5f599b758d367e2049aee6e5,1,,,,,,diamond,,,,,,,,,,,2,0,0,47,47,15,1,,,,,,,,,,,,,,,,,,,,,,,,,,,,,,,,,,,,,,,,,,,,,,,,,,,,,,,,,,,,,,,,,,,,,,,,,,,,,,,,,,,,,,,,,,,,,,
,,?,0.00116,0,,,,,,stimuli/images/PICTURE_208.png,THING,5dc9f3a0e2633171257d503e,31/03/1953,2020-09-09_23h23.13.144,proactive2,2020.1.2,Win32,60,5f5126bb654d4b30ee6923d8,5f599b758d367e2049aee6e5,1,,,,,,microphone,,,,,,,,,,,5,0,0,48,48,47,1,,,,,,,,,,,,,,,,,,,,,,,,,,,,,,,,,,,,,,,,,,,,,,,,,,,,,,,,,,,,,,,,,,,,,,,,,,,,,,,,,,,,,,,,,,,,,,
,,?,0.001395,0,,,,,,stimuli/images/PICTURE_380.png,PHOTO,5dc9f3a0e2633171257d503e,31/03/1953,2020-09-09_23h23.13.144,proactive2,2020.1.2,Win32,60,5f5126bb654d4b30ee6923d8,5f599b758d367e2049aee6e5,1,,,,,,gorilla,,,,,,,,,,,6,0,0,49,49,52,1,,,,,,,,,,,,,,,,,,,,,,,,,,,,,,,,,,,,,,,,,,,,,,,,,,,,,,,,,,,,,,,,,,,,,,,,,,,,,,,,,,,,,,,,,,,,,,
,,?,0.00132,0,,,,,,stimuli/images/PICTURE_688.png,WOMEN,5dc9f3a0e2633171257d503e,31/03/1953,2020-09-09_23h23.13.144,proactive2,2020.1.2,Win32,60,5f5126bb654d4b30ee6923d8,5f599b758d367e2049aee6e5,1,,,,,,runner,,,,,,,,,,,2,0,0,50,50,14,1,,,,,,,,,,,,,,,,,,,,,,,,,,,,,,,,,,,,,,,,,,,,,,,,,,,,,,,,,,,,,,,,,,,,,,,,,,,,,,,,,,,,,,,,,,,,,,
,,LEEBE,13.49215,0,,,,,,stimuli/images/PICTURE_314.png,SAKE,5dc9f3a0e2633171257d503e,31/03/1953,2020-09-09_23h23.13.144,proactive2,2020.1.2,Win32,60,5f5126bb654d4b30ee6923d8,5f599b758d367e2049aee6e5,1,,,,,,perfume,,,,,,,,,,,1,0,0,51,51,7,1,,,,,,,,,,,,,,,,,,,,,,,,,,,,,,,,,,,,,,,,,,,,,,,,,,,,,,,,,,,,,,,,,,,,,,,,,,,,,,,,,,,,,,,,,,,,,,
,,?,0.00168,0,,,,,,stimuli/images/PICTURE_675.png,WEAPON,5dc9f3a0e2633171257d503e,31/03/1953,2020-09-09_23h23.13.144,proactive2,2020.1.2,Win32,60,5f5126bb654d4b30ee6923d8,5f599b758d367e2049aee6e5,1,,,,,,windmill,,,,,,,,,,,4,0,0,52,52,32,1,,,,,,,,,,,,,,,,,,,,,,,,,,,,,,,,,,,,,,,,,,,,,,,,,,,,,,,,,,,,,,,,,,,,,,,,,,,,,,,,,,,,,,,,,,,,,,
,,?,0.001265,0,,,,,,stimuli/images/PICTURE_208.png,MONTH,5dc9f3a0e2633171257d503e,31/03/1953,2020-09-09_23h23.13.144,proactive2,2020.1.2,Win32,60,5f5126bb654d4b30ee6923d8,5f599b758d367e2049aee6e5,1,,,,,,microphone,,,,,,,,,,,6,0,0,53,53,53,1,,,,,,,,,,,,,,,,,,,,,,,,,,,,,,,,,,,,,,,,,,,,,,,,,,,,,,,,,,,,,,,,,,,,,,,,,,,,,,,,,,,,,,,,,,,,,,
,,BODY,7.495055,0,,,,,,stimuli/images/PICTURE_708.png,CLIENT,5dc9f3a0e2633171257d503e,31/03/1953,2020-09-09_23h23.13.144,proactive2,2020.1.2,Win32,60,5f5126bb654d4b30ee6923d8,5f599b758d367e2049aee6e5,1,,,,,,monkey,,,,,,,,,,,1,0,0,54,54,5,1,,,,,,,,,,,,,,,,,,,,,,,,,,,,,,,,,,,,,,,,,,,,,,,,,,,,,,,,,,,,,,,,,,,,,,,,,,,,,,,,,,,,,,,,,,,,,,
,,?,0.00164,0,,,,,,stimuli/images/PICTURE_233.png,WOMEN,5dc9f3a0e2633171257d503e,31/03/1953,2020-09-09_23h23.13.144,proactive2,2020.1.2,Win32,60,5f5126bb654d4b30ee6923d8,5f599b758d367e2049aee6e5,1,,,,,,salt,,,,,,,,,,,4,0,0,55,55,38,1,,,,,,,,,,,,,,,,,,,,,,,,,,,,,,,,,,,,,,,,,,,,,,,,,,,,,,,,,,,,,,,,,,,,,,,,,,,,,,,,,,,,,,,,,,,,,,
,,?,0.001185,0,,,,,,stimuli/images/PICTURE_248.png,DOZEN,5dc9f3a0e2633171257d503e,31/03/1953,2020-09-09_23h23.13.144,proactive2,2020.1.2,Win32,60,5f5126bb654d4b30ee6923d8,5f599b758d367e2049aee6e5,1,,,,,,cart,,,,,,,,,,,4,0,0,56,56,39,1,,,,,,,,,,,,,,,,,,,,,,,,,,,,,,,,,,,,,,,,,,,,,,,,,,,,,,,,,,,,,,,,,,,,,,,,,,,,,,,,,,,,,,,,,,,,,,
,,?,0.001335,0,,,,,,stimuli/images/PICTURE_177.png,CARS,5dc9f3a0e2633171257d503e,31/03/1953,2020-09-09_23h23.13.144,proactive2,2020.1.2,Win32,60,5f5126bb654d4b30ee6923d8,5f599b758d367e2049aee6e5,1,,,,,,mushroom,,,,,,,,,,,4,0,0,57,57,35,1,,,,,,,,,,,,,,,,,,,,,,,,,,,,,,,,,,,,,,,,,,,,,,,,,,,,,,,,,,,,,,,,,,,,,,,,,,,,,,,,,,,,,,,,,,,,,,
,,?,0.00171,0,,,,,,stimuli/images/PICTURE_311.png,FRIEND,5dc9f3a0e2633171257d503e,31/03/1953,2020-09-09_23h23.13.144,proactive2,2020.1.2,Win32,60,5f5126bb654d4b30ee6923d8,5f599b758d367e2049aee6e5,1,,,,,,razor,,,,,,,,,,,4,0,0,58,58,34,1,,,,,,,,,,,,,,,,,,,,,,,,,,,,,,,,,,,,,,,,,,,,,,,,,,,,,,,,,,,,,,,,,,,,,,,,,,,,,,,,,,,,,,,,,,,,,,
,,?,0.001155,0,,,,,,stimuli/images/PICTURE_147.png,MOMENT,5dc9f3a0e2633171257d503e,31/03/1953,2020-09-09_23h23.13.144,proactive2,2020.1.2,Win32,60,5f5126bb654d4b30ee6923d8,5f599b758d367e2049aee6e5,1,,,,,,hanger,,,,,,,,,,,6,0,0,59,59,51,1,,,,,,,,,,,,,,,,,,,,,,,,,,,,,,,,,,,,,,,,,,,,,,,,,,,,,,,,,,,,,,,,,,,,,,,,,,,,,,,,,,,,,,,,,,,,,,
,,,,,,,,,,,,5dc9f3a0e2633171257d503e,31/03/1953,2020-09-09_23h23.13.144,proactive2,2020.1.2,Win32,60,5f5126bb654d4b30ee6923d8,5f599b758d367e2049aee6e5,1,,,,,,,,,,,,,,,,,,,,,,,,0,1,1,0,1,stimuli/learn-block1.csv,,,,,,,,,,,,,,,,,,,,,,,,,,,,,,,,,,,,,,,,,,,,,,,,,,,,,,,,,,,,,,,,,,,,,,,,,,,,,,,,,,,,,,,,
,,,,,,,,,,stimuli/images/PICTURE_285.png,LIFE,5dc9f3a0e2633171257d503e,31/03/1953,2020-09-09_23h23.13.144,proactive2,2020.1.2,Win32,60,5f5126bb654d4b30ee6923d8,5f599b758d367e2049aee6e5,1,,,,,,carrot,,,,,,0,0,0,33,1,4,1,,,,,,,,,,,,,,,,,,,,,,,,,,,,,,,,,,,,,,,,,,,,,,,,,,,,,,,,,,,,,,,,,,,,,,,,,,,,,,,,,,,,,,,,,,,,,,,,,,,
,,,,,,,,,,stimuli/images/PICTURE_467.png,POLICY,5dc9f3a0e2633171257d503e,31/03/1953,2020-09-09_23h23.13.144,proactive2,2020.1.2,Win32,60,5f5126bb654d4b30ee6923d8,5f599b758d367e2049aee6e5,1,,,,,,peg,,,,,,0,1,1,53,1,6,1,,,,,,,,,,,,,,,,,,,,,,,,,,,,,,,,,,,,,,,,,,,,,,,,,,,,,,,,,,,,,,,,,,,,,,,,,,,,,,,,,,,,,,,,,,,,,,,,,,,
,,,,,,,,,,stimuli/images/PICTURE_208.png,SYSTEM,5dc9f3a0e2633171257d503e,31/03/1953,2020-09-09_23h23.13.144,proactive2,2020.1.2,Win32,60,5f5126bb654d4b30ee6923d8,5f599b758d367e2049aee6e5,1,,,,,,microphone,,,,,,0,2,2,32,1,4,1,,,,,,,,,,,,,,,,,,,,,,,,,,,,,,,,,,,,,,,,,,,,,,,,,,,,,,,,,,,,,,,,,,,,,,,,,,,,,,,,,,,,,,,,,,,,,,,,,,,
,,,,,,,,,,stimuli/images/PICTURE_2.png,FLIGHT,5dc9f3a0e2633171257d503e,31/03/1953,2020-09-09_23h23.13.144,proactive2,2020.1.2,Win32,60,5f5126bb654d4b30ee6923d8,5f599b758d367e2049aee6e5,1,,,,,,tyre,,,,,,0,3,3,15,1,2,1,,,,,,,,,,,,,,,,,,,,,,,,,,,,,,,,,,,,,,,,,,,,,,,,,,,,,,,,,,,,,,,,,,,,,,,,,,,,,,,,,,,,,,,,,,,,,,,,,,,
,,,,,,,,,,stimuli/images/PICTURE_504.png,COPS,5dc9f3a0e2633171257d503e,31/03/1953,2020-09-09_23h23.13.144,proactive2,2020.1.2,Win32,60,5f5126bb654d4b30ee6923d8,5f599b758d367e2049aee6e5,1,,,,,,wheel,,,,,,0,4,4,52,1,6,1,,,,,,,,,,,,,,,,,,,,,,,,,,,,,,,,,,,,,,,,,,,,,,,,,,,,,,,,,,,,,,,,,,,,,,,,,,,,,,,,,,,,,,,,,,,,,,,,,,,
,,,,,,,,,,stimuli/images/PICTURE_405.png,YEAR,5dc9f3a0e2633171257d503e,31/03/1953,2020-09-09_23h23.13.144,proactive2,2020.1.2,Win32,60,5f5126bb654d4b30ee6923d8,5f599b758d367e2049aee6e5,1,,,,,,anchor,,,,,,0,5,5,34,1,4,1,,,,,,,,,,,,,,,,,,,,,,,,,,,,,,,,,,,,,,,,,,,,,,,,,,,,,,,,,,,,,,,,,,,,,,,,,,,,,,,,,,,,,,,,,,,,,,,,,,,
,,,,,,,,,,stimuli/images/PICTURE_32.png,PILLS,5dc9f3a0e2633171257d503e,31/03/1953,2020-09-09_23h23.13.144,proactive2,2020.1.2,Win32,60,5f5126bb654d4b30ee6923d8,5f599b758d367e2049aee6e5,1,,,,,,crown,,,,,,0,6,6,18,1,2,1,,,,,,,,,,,,,,,,,,,,,,,,,,,,,,,,,,,,,,,,,,,,,,,,,,,,,,,,,,,,,,,,,,,,,,,,,,,,,,,,,,,,,,,,,,,,,,,,,,,
,,,,,,,,,,stimuli/images/PICTURE_85.png,TOILET,5dc9f3a0e2633171257d503e,31/03/1953,2020-09-09_23h23.13.144,proactive2,2020.1.2,Win32,60,5f5126bb654d4b30ee6923d8,5f599b758d367e2049aee6e5,1,,,,,,diamond,,,,,,0,7,7,48,1,5,1,,,,,,,,,,,,,,,,,,,,,,,,,,,,,,,,,,,,,,,,,,,,,,,,,,,,,,,,,,,,,,,,,,,,,,,,,,,,,,,,,,,,,,,,,,,,,,,,,,,
,,,,,,,,,,stimuli/images/PICTURE_744.png,WEAPON,5dc9f3a0e2633171257d503e,31/03/1953,2020-09-09_23h23.13.144,proactive2,2020.1.2,Win32,60,5f5126bb654d4b30ee6923d8,5f599b758d367e2049aee6e5,1,,,,,,ring,,,,,,0,8,8,50,1,6,1,,,,,,,,,,,,,,,,,,,,,,,,,,,,,,,,,,,,,,,,,,,,,,,,,,,,,,,,,,,,,,,,,,,,,,,,,,,,,,,,,,,,,,,,,,,,,,,,,,,
,,,,,,,,,,stimuli/images/PICTURE_564.png,BATH,5dc9f3a0e2633171257d503e,31/03/1953,2020-09-09_23h23.13.144,proactive2,2020.1.2,Win32,60,5f5126bb654d4b30ee6923d8,5f599b758d367e2049aee6e5,1,,,,,,spoon,,,,,,0,9,9,26,1,3,1,,,,,,,,,,,,,,,,,,,,,,,,,,,,,,,,,,,,,,,,,,,,,,,,,,,,,,,,,,,,,,,,,,,,,,,,,,,,,,,,,,,,,,,,,,,,,,,,,,,
,,,,,,,,,,stimuli/images/PICTURE_68.png,ROOF,5dc9f3a0e2633171257d503e,31/03/1953,2020-09-09_23h23.13.144,proactive2,2020.1.2,Win32,60,5f5126bb654d4b30ee6923d8,5f599b758d367e2049aee6e5,1,,,,,,candle,,,,,,0,10,10,38,1,4,1,,,,,,,,,,,,,,,,,,,,,,,,,,,,,,,,,,,,,,,,,,,,,,,,,,,,,,,,,,,,,,,,,,,,,,,,,,,,,,,,,,,,,,,,,,,,,,,,,,,
,,,,,,,,,,stimuli/images/PICTURE_383.png,WRITER,5dc9f3a0e2633171257d503e,31/03/1953,2020-09-09_23h23.13.144,proactive2,2020.1.2,Win32,60,5f5126bb654d4b30ee6923d8,5f599b758d367e2049aee6e5,1,,,,,,coin,,,,,,0,11,11,28,1,3,1,,,,,,,,,,,,,,,,,,,,,,,,,,,,,,,,,,,,,,,,,,,,,,,,,,,,,,,,,,,,,,,,,,,,,,,,,,,,,,,,,,,,,,,,,,,,,,,,,,,
,,,,,,,,,,stimuli/images/PICTURE_339.png,CLIENT,5dc9f3a0e2633171257d503e,31/03/1953,2020-09-09_23h23.13.144,proactive2,2020.1.2,Win32,60,5f5126bb654d4b30ee6923d8,5f599b758d367e2049aee6e5,1,,,,,,backpack,,,,,,0,12,12,11,1,2,1,,,,,,,,,,,,,,,,,,,,,,,,,,,,,,,,,,,,,,,,,,,,,,,,,,,,,,,,,,,,,,,,,,,,,,,,,,,,,,,,,,,,,,,,,,,,,,,,,,,
,,,,,,,,,,stimuli/images/PICTURE_203.png,GODS,5dc9f3a0e2633171257d503e,31/03/1953,2020-09-09_23h23.13.144,proactive2,2020.1.2,Win32,60,5f5126bb654d4b30ee6923d8,5f599b758d367e2049aee6e5,1,,,,,,cap,,,,,,0,13,13,30,1,4,1,,,,,,,,,,,,,,,,,,,,,,,,,,,,,,,,,,,,,,,,,,,,,,,,,,,,,,,,,,,,,,,,,,,,,,,,,,,,,,,,,,,,,,,,,,,,,,,,,,,
,,,,,,,,,,stimuli/images/PICTURE_504.png,ARTIST,5dc9f3a0e2633171257d503e,31/03/1953,2020-09-09_23h23.13.144,proactive2,2020.1.2,Win32,60,5f5126bb654d4b30ee6923d8,5f599b758d367e2049aee6e5,1,,,,,,wheel,,,,,,0,14,14,49,1,5,1,,,,,,,,,,,,,,,,,,,,,,,,,,,,,,,,,,,,,,,,,,,,,,,,,,,,,,,,,,,,,,,,,,,,,,,,,,,,,,,,,,,,,,,,,,,,,,,,,,,
,,,,,,,,,,stimuli/images/PICTURE_308.png,FAMILY,5dc9f3a0e2633171257d503e,31/03/1953,2020-09-09_23h23.13.144,proactive2,2020.1.2,Win32,60,5f5126bb654d4b30ee6923d8,5f599b758d367e2049aee6e5,1,,,,,,dice,,,,,,0,15,15,36,1,4,1,,,,,,,,,,,,,,,,,,,,,,,,,,,,,,,,,,,,,,,,,,,,,,,,,,,,,,,,,,,,,,,,,,,,,,,,,,,,,,,,,,,,,,,,,,,,,,,,,,,
,,,,,,,,,,stimuli/images/PICTURE_449.png,DUDE,5dc9f3a0e2633171257d503e,31/03/1953,2020-09-09_23h23.13.144,proactive2,2020.1.2,Win32,60,5f5126bb654d4b30ee6923d8,5f599b758d367e2049aee6e5,1,,,,,,bench,,,,,,0,16,16,17,1,2,1,,,,,,,,,,,,,,,,,,,,,,,,,,,,,,,,,,,,,,,,,,,,,,,,,,,,,,,,,,,,,,,,,,,,,,,,,,,,,,,,,,,,,,,,,,,,,,,,,,,
,,,,,,,,,,stimuli/images/PICTURE_57.png,MOMENT,5dc9f3a0e2633171257d503e,31/03/1953,2020-09-09_23h23.13.144,proactive2,2020.1.2,Win32,60,5f5126bb654d4b30ee6923d8,5f599b758d367e2049aee6e5,1,,,,,,stamp,,,,,,0,17,17,37,1,4,1,,,,,,,,,,,,,,,,,,,,,,,,,,,,,,,,,,,,,,,,,,,,,,,,,,,,,,,,,,,,,,,,,,,,,,,,,,,,,,,,,,,,,,,,,,,,,,,,,,,
,,,,,,,,,,stimuli/images/PICTURE_403.png,WRITER,5dc9f3a0e2633171257d503e,31/03/1953,2020-09-09_23h23.13.144,proactive2,2020.1.2,Win32,60,5f5126bb654d4b30ee6923d8,5f599b758d367e2049aee6e5,1,,,,,,cathedral,,,,,,0,18,18,31,1,4,1,,,,,,,,,,,,,,,,,,,,,,,,,,,,,,,,,,,,,,,,,,,,,,,,,,,,,,,,,,,,,,,,,,,,,,,,,,,,,,,,,,,,,,,,,,,,,,,,,,,
,,,,,,,,,,stimuli/images/PICTURE_177.png,WRITER,5dc9f3a0e2633171257d503e,31/03/1953,2020-09-09_23h23.13.144,proactive2,2020.1.2,Win32,60,5f5126bb654d4b30ee6923d8,5f599b758d367e2049aee6e5,1,,,,,,mushroom,,,,,,0,19,19,41,1,5,1,,,,,,,,,,,,,,,,,,,,,,,,,,,,,,,,,,,,,,,,,,,,,,,,,,,,,,,,,,,,,,,,,,,,,,,,,,,,,,,,,,,,,,,,,,,,,,,,,,,
,,,,,,,,,,stimuli/images/PICTURE_68.png,MILE,5dc9f3a0e2633171257d503e,31/03/1953,2020-09-09_23h23.13.144,proactive2,2020.1.2,Win32,60,5f5126bb654d4b30ee6923d8,5f599b758d367e2049aee6e5,1,,,,,,candle,,,,,,0,20,20,51,1,6,1,,,,,,,,,,,,,,,,,,,,,,,,,,,,,,,,,,,,,,,,,,,,,,,,,,,,,,,,,,,,,,,,,,,,,,,,,,,,,,,,,,,,,,,,,,,,,,,,,,,
,,,,,,,,,,stimuli/images/PICTURE_685.png,PENNY,5dc9f3a0e2633171257d503e,31/03/1953,2020-09-09_23h23.13.144,proactive2,2020.1.2,Win32,60,5f5126bb654d4b30ee6923d8,5f599b758d367e2049aee6e5,1,,,,,,goose,,,,,,0,21,21,4,1,1,1,,,,,,,,,,,,,,,,,,,,,,,,,,,,,,,,,,,,,,,,,,,,,,,,,,,,,,,,,,,,,,,,,,,,,,,,,,,,,,,,,,,,,,,,,,,,,,,,,,,
,,,,,,,,,,stimuli/images/PICTURE_380.png,HONEY,5dc9f3a0e2633171257d503e,31/03/1953,2020-09-09_23h23.13.144,proactive2,2020.1.2,Win32,60,5f5126bb654d4b30ee6923d8,5f599b758d367e2049aee6e5,1,,,,,,gorilla,,,,,,0,22,22,19,1,2,1,,,,,,,,,,,,,,,,,,,,,,,,,,,,,,,,,,,,,,,,,,,,,,,,,,,,,,,,,,,,,,,,,,,,,,,,,,,,,,,,,,,,,,,,,,,,,,,,,,,
,,,,,,,,,,stimuli/images/PICTURE_487.png,GIRL,5dc9f3a0e2633171257d503e,31/03/1953,2020-09-09_23h23.13.144,proactive2,2020.1.2,Win32,60,5f5126bb654d4b30ee6923d8,5f599b758d367e2049aee6e5,1,,,,,,basket,,,,,,0,23,23,45,1,5,1,,,,,,,,,,,,,,,,,,,,,,,,,,,,,,,,,,,,,,,,,,,,,,,,,,,,,,,,,,,,,,,,,,,,,,,,,,,,,,,,,,,,,,,,,,,,,,,,,,,
,,,,,,,,,,stimuli/images/PICTURE_667.png,RIVER,5dc9f3a0e2633171257d503e,31/03/1953,2020-09-09_23h23.13.144,proactive2,2020.1.2,Win32,60,5f5126bb654d4b30ee6923d8,5f599b758d367e2049aee6e5,1,,,,,,daisy,,,,,,0,24,24,10,1,2,1,,,,,,,,,,,,,,,,,,,,,,,,,,,,,,,,,,,,,,,,,,,,,,,,,,,,,,,,,,,,,,,,,,,,,,,,,,,,,,,,,,,,,,,,,,,,,,,,,,,
,,,,,,,,,,stimuli/images/PICTURE_33.png,FRIEND,5dc9f3a0e2633171257d503e,31/03/1953,2020-09-09_23h23.13.144,proactive2,2020.1.2,Win32,60,5f5126bb654d4b30ee6923d8,5f599b758d367e2049aee6e5,1,,,,,,frame,,,,,,0,25,25,8,1,1,1,,,,,,,,,,,,,,,,,,,,,,,,,,,,,,,,,,,,,,,,,,,,,,,,,,,,,,,,,,,,,,,,,,,,,,,,,,,,,,,,,,,,,,,,,,,,,,,,,,,
,,,,,,,,,,stimuli/images/PICTURE_654.png,MONTH,5dc9f3a0e2633171257d503e,31/03/1953,2020-09-09_23h23.13.144,proactive2,2020.1.2,Win32,60,5f5126bb654d4b30ee6923d8,5f599b758d367e2049aee6e5,1,,,,,,pencil,,,,,,0,26,26,29,1,3,1,,,,,,,,,,,,,,,,,,,,,,,,,,,,,,,,,,,,,,,,,,,,,,,,,,,,,,,,,,,,,,,,,,,,,,,,,,,,,,,,,,,,,,,,,,,,,,,,,,,
,,,,,,,,,,stimuli/images/PICTURE_296.png,LIFE,5dc9f3a0e2633171257d503e,31/03/1953,2020-09-09_23h23.13.144,proactive2,2020.1.2,Win32,60,5f5126bb654d4b30ee6923d8,5f599b758d367e2049aee6e5,1,,,,,,bolt,,,,,,0,27,27,57,1,6,1,,,,,,,,,,,,,,,,,,,,,,,,,,,,,,,,,,,,,,,,,,,,,,,,,,,,,,,,,,,,,,,,,,,,,,,,,,,,,,,,,,,,,,,,,,,,,,,,,,,
,,,,,,,,,,stimuli/images/PICTURE_340.png,VALLEY,5dc9f3a0e2633171257d503e,31/03/1953,2020-09-09_23h23.13.144,proactive2,2020.1.2,Win32,60,5f5126bb654d4b30ee6923d8,5f599b758d367e2049aee6e5,1,,,,,,mirror,,,,,,0,28,28,54,1,6,1,,,,,,,,,,,,,,,,,,,,,,,,,,,,,,,,,,,,,,,,,,,,,,,,,,,,,,,,,,,,,,,,,,,,,,,,,,,,,,,,,,,,,,,,,,,,,,,,,,,
,,,,,,,,,,stimuli/images/PICTURE_108.png,POLICY,5dc9f3a0e2633171257d503e,31/03/1953,2020-09-09_23h23.13.144,proactive2,2020.1.2,Win32,60,5f5126bb654d4b30ee6923d8,5f599b758d367e2049aee6e5,1,,,,,,calendar,,,,,,0,29,29,22,1,3,1,,,,,,,,,,,,,,,,,,,,,,,,,,,,,,,,,,,,,,,,,,,,,,,,,,,,,,,,,,,,,,,,,,,,,,,,,,,,,,,,,,,,,,,,,,,,,,,,,,,
,,,,,,,,,,stimuli/images/PICTURE_469.png,AGENT,5dc9f3a0e2633171257d503e,31/03/1953,2020-09-09_23h23.13.144,proactive2,2020.1.2,Win32,60,5f5126bb654d4b30ee6923d8,5f599b758d367e2049aee6e5,1,,,,,,stool,,,,,,0,30,30,16,1,2,1,,,,,,,,,,,,,,,,,,,,,,,,,,,,,,,,,,,,,,,,,,,,,,,,,,,,,,,,,,,,,,,,,,,,,,,,,,,,,,,,,,,,,,,,,,,,,,,,,,,
,,,,,,,,,,stimuli/images/PICTURE_108.png,FLIGHT,5dc9f3a0e2633171257d503e,31/03/1953,2020-09-09_23h23.13.144,proactive2,2020.1.2,Win32,60,5f5126bb654d4b30ee6923d8,5f599b758d367e2049aee6e5,1,,,,,,calendar,,,,,,0,31,31,59,1,6,1,,,,,,,,,,,,,,,,,,,,,,,,,,,,,,,,,,,,,,,,,,,,,,,,,,,,,,,,,,,,,,,,,,,,,,,,,,,,,,,,,,,,,,,,,,,,,,,,,,,
,,,,,,,,,,stimuli/images/PICTURE_296.png,LOTS,5dc9f3a0e2633171257d503e,31/03/1953,2020-09-09_23h23.13.144,proactive2,2020.1.2,Win32,60,5f5126bb654d4b30ee6923d8,5f599b758d367e2049aee6e5,1,,,,,,bolt,,,,,,0,32,32,9,1,1,1,,,,,,,,,,,,,,,,,,,,,,,,,,,,,,,,,,,,,,,,,,,,,,,,,,,,,,,,,,,,,,,,,,,,,,,,,,,,,,,,,,,,,,,,,,,,,,,,,,,
,,,,,,,,,,stimuli/images/PICTURE_675.png,SALE,5dc9f3a0e2633171257d503e,31/03/1953,2020-09-09_23h23.13.144,proactive2,2020.1.2,Win32,60,5f5126bb654d4b30ee6923d8,5f599b758d367e2049aee6e5,1,,,,,,windmill,,,,,,0,33,33,47,1,5,1,,,,,,,,,,,,,,,,,,,,,,,,,,,,,,,,,,,,,,,,,,,,,,,,,,,,,,,,,,,,,,,,,,,,,,,,,,,,,,,,,,,,,,,,,,,,,,,,,,,
,,,,,,,,,,stimuli/images/PICTURE_32.png,KIND,5dc9f3a0e2633171257d503e,31/03/1953,2020-09-09_23h23.13.144,proactive2,2020.1.2,Win32,60,5f5126bb654d4b30ee6923d8,5f599b758d367e2049aee6e5,1,,,,,,crown,,,,,,0,34,34,35,1,4,1,,,,,,,,,,,,,,,,,,,,,,,,,,,,,,,,,,,,,,,,,,,,,,,,,,,,,,,,,,,,,,,,,,,,,,,,,,,,,,,,,,,,,,,,,,,,,,,,,,,
,,,,,,,,,,stimuli/images/PICTURE_403.png,TOILET,5dc9f3a0e2633171257d503e,31/03/1953,2020-09-09_23h23.13.144,proactive2,2020.1.2,Win32,60,5f5126bb654d4b30ee6923d8,5f599b758d367e2049aee6e5,1,,,,,,cathedral,,,,,,0,35,35,25,1,3,1,,,,,,,,,,,,,,,,,,,,,,,,,,,,,,,,,,,,,,,,,,,,,,,,,,,,,,,,,,,,,,,,,,,,,,,,,,,,,,,,,,,,,,,,,,,,,,,,,,,
,,,,,,,,,,stimuli/images/PICTURE_491.png,RIVER,5dc9f3a0e2633171257d503e,31/03/1953,2020-09-09_23h23.13.144,proactive2,2020.1.2,Win32,60,5f5126bb654d4b30ee6923d8,5f599b758d367e2049aee6e5,1,,,,,,rug,,,,,,0,36,36,6,1,1,1,,,,,,,,,,,,,,,,,,,,,,,,,,,,,,,,,,,,,,,,,,,,,,,,,,,,,,,,,,,,,,,,,,,,,,,,,,,,,,,,,,,,,,,,,,,,,,,,,,,
,,,,,,,,,,stimuli/images/PICTURE_327.png,SERIES,5dc9f3a0e2633171257d503e,31/03/1953,2020-09-09_23h23.13.144,proactive2,2020.1.2,Win32,60,5f5126bb654d4b30ee6923d8,5f599b758d367e2049aee6e5,1,,,,,,helmet,,,,,,0,37,37,3,1,1,1,,,,,,,,,,,,,,,,,,,,,,,,,,,,,,,,,,,,,,,,,,,,,,,,,,,,,,,,,,,,,,,,,,,,,,,,,,,,,,,,,,,,,,,,,,,,,,,,,,,
,,,,,,,,,,stimuli/images/PICTURE_297.png,RIVER,5dc9f3a0e2633171257d503e,31/03/1953,2020-09-09_23h23.13.144,proactive2,2020.1.2,Win32,60,5f5126bb654d4b30ee6923d8,5f599b758d367e2049aee6e5,1,,,,,,aeroplane,,,,,,0,38,38,39,1,4,1,,,,,,,,,,,,,,,,,,,,,,,,,,,,,,,,,,,,,,,,,,,,,,,,,,,,,,,,,,,,,,,,,,,,,,,,,,,,,,,,,,,,,,,,,,,,,,,,,,,
,,,,,,,,,,stimuli/images/PICTURE_655.png,TOILET,5dc9f3a0e2633171257d503e,31/03/1953,2020-09-09_23h23.13.144,proactive2,2020.1.2,Win32,60,5f5126bb654d4b30ee6923d8,5f599b758d367e2049aee6e5,1,,,,,,megaphone,,,,,,0,39,39,12,1,2,1,,,,,,,,,,,,,,,,,,,,,,,,,,,,,,,,,,,,,,,,,,,,,,,,,,,,,,,,,,,,,,,,,,,,,,,,,,,,,,,,,,,,,,,,,,,,,,,,,,,
,,,,,,,,,,stimuli/images/PICTURE_677.png,APPLE,5dc9f3a0e2633171257d503e,31/03/1953,2020-09-09_23h23.13.144,proactive2,2020.1.2,Win32,60,5f5126bb654d4b30ee6923d8,5f599b758d367e2049aee6e5,1,,,,,,map,,,,,,0,40,40,43,1,5,1,,,,,,,,,,,,,,,,,,,,,,,,,,,,,,,,,,,,,,,,,,,,,,,,,,,,,,,,,,,,,,,,,,,,,,,,,,,,,,,,,,,,,,,,,,,,,,,,,,,
,,,,,,,,,,stimuli/images/PICTURE_42.png,BOYS,5dc9f3a0e2633171257d503e,31/03/1953,2020-09-09_23h23.13.144,proactive2,2020.1.2,Win32,60,5f5126bb654d4b30ee6923d8,5f599b758d367e2049aee6e5,1,,,,,,pear,,,,,,0,41,41,55,1,6,1,,,,,,,,,,,,,,,,,,,,,,,,,,,,,,,,,,,,,,,,,,,,,,,,,,,,,,,,,,,,,,,,,,,,,,,,,,,,,,,,,,,,,,,,,,,,,,,,,,,
,,,,,,,,,,stimuli/images/PICTURE_233.png,LOTS,5dc9f3a0e2633171257d503e,31/03/1953,2020-09-09_23h23.13.144,proactive2,2020.1.2,Win32,60,5f5126bb654d4b30ee6923d8,5f599b758d367e2049aee6e5,1,,,,,,salt,,,,,,0,42,42,42,1,5,1,,,,,,,,,,,,,,,,,,,,,,,,,,,,,,,,,,,,,,,,,,,,,,,,,,,,,,,,,,,,,,,,,,,,,,,,,,,,,,,,,,,,,,,,,,,,,,,,,,,
,,,,,,,,,,stimuli/images/PICTURE_383.png,SERIES,5dc9f3a0e2633171257d503e,31/03/1953,2020-09-09_23h23.13.144,proactive2,2020.1.2,Win32,60,5f5126bb654d4b30ee6923d8,5f599b758d367e2049aee6e5,1,,,,,,coin,,,,,,0,43,43,46,1,5,1,,,,,,,,,,,,,,,,,,,,,,,,,,,,,,,,,,,,,,,,,,,,,,,,,,,,,,,,,,,,,,,,,,,,,,,,,,,,,,,,,,,,,,,,,,,,,,,,,,,
,,,,,,,,,,stimuli/images/PICTURE_380.png,CANDY,5dc9f3a0e2633171257d503e,31/03/1953,2020-09-09_23h23.13.144,proactive2,2020.1.2,Win32,60,5f5126bb654d4b30ee6923d8,5f599b758d367e2049aee6e5,1,,,,,,gorilla,,,,,,0,44,44,0,1,1,1,,,,,,,,,,,,,,,,,,,,,,,,,,,,,,,,,,,,,,,,,,,,,,,,,,,,,,,,,,,,,,,,,,,,,,,,,,,,,,,,,,,,,,,,,,,,,,,,,,,
,,,,,,,,,,stimuli/images/PICTURE_85.png,NATION,5dc9f3a0e2633171257d503e,31/03/1953,2020-09-09_23h23.13.144,proactive2,2020.1.2,Win32,60,5f5126bb654d4b30ee6923d8,5f599b758d367e2049aee6e5,1,,,,,,diamond,,,,,,0,45,45,5,1,1,1,,,,,,,,,,,,,,,,,,,,,,,,,,,,,,,,,,,,,,,,,,,,,,,,,,,,,,,,,,,,,,,,,,,,,,,,,,,,,,,,,,,,,,,,,,,,,,,,,,,
,,,,,,,,,,stimuli/images/PICTURE_95.png,HONEY,5dc9f3a0e2633171257d503e,31/03/1953,2020-09-09_23h23.13.144,proactive2,2020.1.2,Win32,60,5f5126bb654d4b30ee6923d8,5f599b758d367e2049aee6e5,1,,,,,,suitcase,,,,,,0,46,46,44,1,5,1,,,,,,,,,,,,,,,,,,,,,,,,,,,,,,,,,,,,,,,,,,,,,,,,,,,,,,,,,,,,,,,,,,,,,,,,,,,,,,,,,,,,,,,,,,,,,,,,,,,
,,,,,,,,,,stimuli/images/PICTURE_203.png,NIGHT,5dc9f3a0e2633171257d503e,31/03/1953,2020-09-09_23h23.13.144,proactive2,2020.1.2,Win32,60,5f5126bb654d4b30ee6923d8,5f599b758d367e2049aee6e5,1,,,,,,cap,,,,,,0,47,47,2,1,1,1,,,,,,,,,,,,,,,,,,,,,,,,,,,,,,,,,,,,,,,,,,,,,,,,,,,,,,,,,,,,,,,,,,,,,,,,,,,,,,,,,,,,,,,,,,,,,,,,,,,
,,,,,,,,,,stimuli/images/PICTURE_708.png,RECORD,5dc9f3a0e2633171257d503e,31/03/1953,2020-09-09_23h23.13.144,proactive2,2020.1.2,Win32,60,5f5126bb654d4b30ee6923d8,5f599b758d367e2049aee6e5,1,,,,,,monkey,,,,,,0,48,48,58,1,6,1,,,,,,,,,,,,,,,,,,,,,,,,,,,,,,,,,,,,,,,,,,,,,,,,,,,,,,,,,,,,,,,,,,,,,,,,,,,,,,,,,,,,,,,,,,,,,,,,,,,
,,,,,,,,,,stimuli/images/PICTURE_327.png,CASINO,5dc9f3a0e2633171257d503e,31/03/1953,2020-09-09_23h23.13.144,proactive2,2020.1.2,Win32,60,5f5126bb654d4b30ee6923d8,5f599b758d367e2049aee6e5,1,,,,,,helmet,,,,,,0,49,49,20,1,3,1,,,,,,,,,,,,,,,,,,,,,,,,,,,,,,,,,,,,,,,,,,,,,,,,,,,,,,,,,,,,,,,,,,,,,,,,,,,,,,,,,,,,,,,,,,,,,,,,,,,
