consent_key.keys,consent_key.rt,recalled,recalled_rt,recall_acc,example_recall.thisRepN,example_recall.thisTrialN,example_recall.thisN,example_recall.thisIndex,example_recall.ran,file,word,participant,please enter your date of birth (dd/mm/yyyy),date,expName,psychopyVersion,OS,frameRate,STUDY_ID,SESSION_ID,list,prac_learn_study_loop.thisRepN,prac_learn_study_loop.thisTrialN,prac_learn_study_loop.thisN,prac_learn_study_loop.thisIndex,prac_learn_study_loop.ran,image,prac_learn_test_loop.thisRepN,prac_learn_test_loop.thisTrialN,prac_learn_test_loop.thisN,prac_learn_test_loop.thisIndex,prac_learn_test_loop.ran,learn_study_loop.thisRepN,learn_study_loop.thisTrialN,learn_study_loop.thisN,learn_study_loop.thisIndex,learn_study_loop.ran,list_no,block_no,learn_test_loop.thisRepN,learn_test_loop.thisTrialN,learn_test_loop.thisN,learn_test_loop.thisIndex,learn_test_loop.ran,learn_blocks.thisRepN,learn_blocks.thisTrialN,learn_blocks.thisN,learn_blocks.thisIndex,learn_blocks.ran,block_csv,key_resp_13.keys,key_resp_13.rt,learn_blocks_loop.thisRepN,learn_blocks_loop.thisTrialN,learn_blocks_loop.thisN,learn_blocks_loop.thisIndex,learn_blocks_loop.ran,final_learn_test.thisRepN,final_learn_test.thisTrialN,final_learn_test.thisN,final_learn_test.thisIndex,final_learn_test.ran,s_im1,s_im2,s_im3,s_im4,s_im5,s_im6,s_im7,s_im8,s_im1pos,s_im2pos,s_im3pos,s_im4pos,s_im5pos,s_im6pos,s_im7pos,s_im8pos,s_tarright,search_resp.keys,search_resp.rt,search_loop.thisRepN,search_loop.thisTrialN,search_loop.thisN,search_loop.thisIndex,search_loop.ran,prac_wm_test_loop.thisRepN,prac_wm_test_loop.thisTrialN,prac_wm_test_loop.thisN,prac_wm_test_loop.thisIndex,prac_wm_test_loop.ran,wm_recalled1,wm_recall_rt1,wm_probed1,wm_recall_acc1,wm_recalled2,wm_recall_rt2,wm_probed2,wm_recall_acc2,wm_recalled3,wm_recall_rt3,wm_probed3,wm_recall_acc3,wm_recalled4,wm_recall_rt4,wm_probed4,wm_recall_acc4,prac_wm_trial_loop.thisRepN,prac_wm_trial_loop.thisTrialN,prac_wm_trial_loop.thisN,prac_wm_trial_loop.thisIndex,prac_wm_trial_loop.ran,word1,image1,file1,item_type1,word2,image2,file2,item_type2,word4,image4,file4,item_type4,word3,image3,file3,item_type3,wm_test_loop.thisRepN,wm_test_loop.thisTrialN,wm_test_loop.thisN,wm_test_loop.thisIndex,wm_test_loop.ran,wm_trial_loop.thisRepN,wm_trial_loop.thisTrialN,wm_trial_loop.thisN,wm_trial_loop.thisIndex,wm_trial_loop.ran
y,15.655,TOUGH,2.894,1,0,0,0,0,1,stimuli/images/PICTURE_747.png,TOUGH,5dee8dc525332652f941f79b,12/08/1996,2020-08-13_12h41.39.678,proactive2,2020.1.2,MacIntel,60,5f341be081b9052c55068110,5f352687fbeb1447cc544e76,4,,,,,,,,,,,,,,,,,,,,,,,,,,,,,,,,,,,,,,,,,,,,,,,,,,,,,,,,,,,,,,,,,,,,,,,,,,,,,,,,,,,,,,,,,,,,,,,,,,,,,,,,,,,,,,,,,,,,,
,,,,,,,,,,stimuli/images/PICTURE_378.png,LOSS,5dee8dc525332652f941f79b,12/08/1996,2020-08-13_12h41.39.678,proactive2,2020.1.2,MacIntel,60,5f341be081b9052c55068110,5f352687fbeb1447cc544e76,4,0,0,0,2,1,lobster,,,,,,,,,,,,,,,,,,,,,,,,,,,,,,,,,,,,,,,,,,,,,,,,,,,,,,,,,,,,,,,,,,,,,,,,,,,,,,,,,,,,,,,,,,,,,,,,,,,,,,,,,,,,,,,
,,,,,,,,,,stimuli/images/PICTURE_697.png,KILLER,5dee8dc525332652f941f79b,12/08/1996,2020-08-13_12h41.39.678,proactive2,2020.1.2,MacIntel,60,5f341be081b9052c55068110,5f352687fbeb1447cc544e76,4,0,1,1,4,1,peach,,,,,,,,,,,,,,,,,,,,,,,,,,,,,,,,,,,,,,,,,,,,,,,,,,,,,,,,,,,,,,,,,,,,,,,,,,,,,,,,,,,,,,,,,,,,,,,,,,,,,,,,,,,,,,,
,,,,,,,,,,stimuli/images/PICTURE_269.png,GENIUS,5dee8dc525332652f941f79b,12/08/1996,2020-08-13_12h41.39.678,proactive2,2020.1.2,MacIntel,60,5f341be081b9052c55068110,5f352687fbeb1447cc544e76,4,0,2,2,0,1,chameleon,,,,,,,,,,,,,,,,,,,,,,,,,,,,,,,,,,,,,,,,,,,,,,,,,,,,,,,,,,,,,,,,,,,,,,,,,,,,,,,,,,,,,,,,,,,,,,,,,,,,,,,,,,,,,,,
,,,,,,,,,,stimuli/images/PICTURE_727.png,CELL,5dee8dc525332652f941f79b,12/08/1996,2020-08-13_12h41.39.678,proactive2,2020.1.2,MacIntel,60,5f341be081b9052c55068110,5f352687fbeb1447cc544e76,4,0,3,3,1,1,hose,,,,,,,,,,,,,,,,,,,,,,,,,,,,,,,,,,,,,,,,,,,,,,,,,,,,,,,,,,,,,,,,,,,,,,,,,,,,,,,,,,,,,,,,,,,,,,,,,,,,,,,,,,,,,,,
,,CELL,4.348,1,,,,,,stimuli/images/PICTURE_727.png,CELL,5dee8dc525332652f941f79b,12/08/1996,2020-08-13_12h41.39.678,proactive2,2020.1.2,MacIntel,60,5f341be081b9052c55068110,5f352687fbeb1447cc544e76,4,,,,,,hose,0,0,0,1,1,,,,,,,,,,,,,,,,,,,,,,,,,,,,,,,,,,,,,,,,,,,,,,,,,,,,,,,,,,,,,,,,,,,,,,,,,,,,,,,,,,,,,,,,,,,,,,,,,,,,,,,,,,
,,KILLER,1.918,1,,,,,,stimuli/images/PICTURE_697.png,KILLER,5dee8dc525332652f941f79b,12/08/1996,2020-08-13_12h41.39.678,proactive2,2020.1.2,MacIntel,60,5f341be081b9052c55068110,5f352687fbeb1447cc544e76,4,,,,,,peach,0,1,1,4,1,,,,,,,,,,,,,,,,,,,,,,,,,,,,,,,,,,,,,,,,,,,,,,,,,,,,,,,,,,,,,,,,,,,,,,,,,,,,,,,,,,,,,,,,,,,,,,,,,,,,,,,,,,
,,GENIUS,1.884,1,,,,,,stimuli/images/PICTURE_269.png,GENIUS,5dee8dc525332652f941f79b,12/08/1996,2020-08-13_12h41.39.678,proactive2,2020.1.2,MacIntel,60,5f341be081b9052c55068110,5f352687fbeb1447cc544e76,4,,,,,,chameleon,0,2,2,0,1,,,,,,,,,,,,,,,,,,,,,,,,,,,,,,,,,,,,,,,,,,,,,,,,,,,,,,,,,,,,,,,,,,,,,,,,,,,,,,,,,,,,,,,,,,,,,,,,,,,,,,,,,,
,,LOSS,1.234,1,,,,,,stimuli/images/PICTURE_378.png,LOSS,5dee8dc525332652f941f79b,12/08/1996,2020-08-13_12h41.39.678,proactive2,2020.1.2,MacIntel,60,5f341be081b9052c55068110,5f352687fbeb1447cc544e76,4,,,,,,lobster,0,3,3,2,1,,,,,,,,,,,,,,,,,,,,,,,,,,,,,,,,,,,,,,,,,,,,,,,,,,,,,,,,,,,,,,,,,,,,,,,,,,,,,,,,,,,,,,,,,,,,,,,,,,,,,,,,,,
,,DEVIL,1.683,1,,,,,,stimuli/images/PICTURE_658.png,DEVIL,5dee8dc525332652f941f79b,12/08/1996,2020-08-13_12h41.39.678,proactive2,2020.1.2,MacIntel,60,5f341be081b9052c55068110,5f352687fbeb1447cc544e76,4,,,,,,crow,0,4,4,3,1,,,,,,,,,,,,,,,,,,,,,,,,,,,,,,,,,,,,,,,,,,,,,,,,,,,,,,,,,,,,,,,,,,,,,,,,,,,,,,,,,,,,,,,,,,,,,,,,,,,,,,,,,,
,,,,,,,,,,stimuli/images/PICTURE_68.png,KIND,5dee8dc525332652f941f79b,12/08/1996,2020-08-13_12h41.39.678,proactive2,2020.1.2,MacIntel,60,5f341be081b9052c55068110,5f352687fbeb1447cc544e76,4,,,,,,candle,,,,,,0,0,0,23,1,3,2,,,,,,,,,,,,,,,,,,,,,,,,,,,,,,,,,,,,,,,,,,,,,,,,,,,,,,,,,,,,,,,,,,,,,,,,,,,,,,,,,,,,,,,,,,,,,,,,,,,
,,,,,,,,,,stimuli/images/PICTURE_177.png,HOUSE,5dee8dc525332652f941f79b,12/08/1996,2020-08-13_12h41.39.678,proactive2,2020.1.2,MacIntel,60,5f341be081b9052c55068110,5f352687fbeb1447cc544e76,4,,,,,,mushroom,,,,,,0,1,1,25,1,3,2,,,,,,,,,,,,,,,,,,,,,,,,,,,,,,,,,,,,,,,,,,,,,,,,,,,,,,,,,,,,,,,,,,,,,,,,,,,,,,,,,,,,,,,,,,,,,,,,,,,
,,,,,,,,,,stimuli/images/PICTURE_32.png,LETTER,5dee8dc525332652f941f79b,12/08/1996,2020-08-13_12h41.39.678,proactive2,2020.1.2,MacIntel,60,5f341be081b9052c55068110,5f352687fbeb1447cc544e76,4,,,,,,crown,,,,,,0,2,2,56,1,6,2,,,,,,,,,,,,,,,,,,,,,,,,,,,,,,,,,,,,,,,,,,,,,,,,,,,,,,,,,,,,,,,,,,,,,,,,,,,,,,,,,,,,,,,,,,,,,,,,,,,
,,,,,,,,,,stimuli/images/PICTURE_564.png,PLENTY,5dee8dc525332652f941f79b,12/08/1996,2020-08-13_12h41.39.678,proactive2,2020.1.2,MacIntel,60,5f341be081b9052c55068110,5f352687fbeb1447cc544e76,4,,,,,,spoon,,,,,,0,3,3,11,1,2,2,,,,,,,,,,,,,,,,,,,,,,,,,,,,,,,,,,,,,,,,,,,,,,,,,,,,,,,,,,,,,,,,,,,,,,,,,,,,,,,,,,,,,,,,,,,,,,,,,,,
,,,,,,,,,,stimuli/images/PICTURE_311.png,FLESH,5dee8dc525332652f941f79b,12/08/1996,2020-08-13_12h41.39.678,proactive2,2020.1.2,MacIntel,60,5f341be081b9052c55068110,5f352687fbeb1447cc544e76,4,,,,,,razor,,,,,,0,4,4,3,1,1,2,,,,,,,,,,,,,,,,,,,,,,,,,,,,,,,,,,,,,,,,,,,,,,,,,,,,,,,,,,,,,,,,,,,,,,,,,,,,,,,,,,,,,,,,,,,,,,,,,,,
,,,,,,,,,,stimuli/images/PICTURE_18.png,RIVER,5dee8dc525332652f941f79b,12/08/1996,2020-08-13_12h41.39.678,proactive2,2020.1.2,MacIntel,60,5f341be081b9052c55068110,5f352687fbeb1447cc544e76,4,,,,,,planet,,,,,,0,5,5,22,1,3,2,,,,,,,,,,,,,,,,,,,,,,,,,,,,,,,,,,,,,,,,,,,,,,,,,,,,,,,,,,,,,,,,,,,,,,,,,,,,,,,,,,,,,,,,,,,,,,,,,,,
,,,,,,,,,,stimuli/images/PICTURE_356.png,CANDY,5dee8dc525332652f941f79b,12/08/1996,2020-08-13_12h41.39.678,proactive2,2020.1.2,MacIntel,60,5f341be081b9052c55068110,5f352687fbeb1447cc544e76,4,,,,,,pawn,,,,,,0,6,6,46,1,5,2,,,,,,,,,,,,,,,,,,,,,,,,,,,,,,,,,,,,,,,,,,,,,,,,,,,,,,,,,,,,,,,,,,,,,,,,,,,,,,,,,,,,,,,,,,,,,,,,,,,
,,,,,,,,,,stimuli/images/PICTURE_509.png,BATH,5dee8dc525332652f941f79b,12/08/1996,2020-08-13_12h41.39.678,proactive2,2020.1.2,MacIntel,60,5f341be081b9052c55068110,5f352687fbeb1447cc544e76,4,,,,,,telephone,,,,,,0,7,7,15,1,2,2,,,,,,,,,,,,,,,,,,,,,,,,,,,,,,,,,,,,,,,,,,,,,,,,,,,,,,,,,,,,,,,,,,,,,,,,,,,,,,,,,,,,,,,,,,,,,,,,,,,
,,,,,,,,,,stimuli/images/PICTURE_677.png,PHOTO,5dee8dc525332652f941f79b,12/08/1996,2020-08-13_12h41.39.678,proactive2,2020.1.2,MacIntel,60,5f341be081b9052c55068110,5f352687fbeb1447cc544e76,4,,,,,,map,,,,,,0,8,8,14,1,2,2,,,,,,,,,,,,,,,,,,,,,,,,,,,,,,,,,,,,,,,,,,,,,,,,,,,,,,,,,,,,,,,,,,,,,,,,,,,,,,,,,,,,,,,,,,,,,,,,,,,
,,,,,,,,,,stimuli/images/PICTURE_327.png,LEADER,5dee8dc525332652f941f79b,12/08/1996,2020-08-13_12h41.39.678,proactive2,2020.1.2,MacIntel,60,5f341be081b9052c55068110,5f352687fbeb1447cc544e76,4,,,,,,helmet,,,,,,0,9,9,17,1,2,2,,,,,,,,,,,,,,,,,,,,,,,,,,,,,,,,,,,,,,,,,,,,,,,,,,,,,,,,,,,,,,,,,,,,,,,,,,,,,,,,,,,,,,,,,,,,,,,,,,,
,,,,,,,,,,stimuli/images/PICTURE_405.png,JUNGLE,5dee8dc525332652f941f79b,12/08/1996,2020-08-13_12h41.39.678,proactive2,2020.1.2,MacIntel,60,5f341be081b9052c55068110,5f352687fbeb1447cc544e76,4,,,,,,anchor,,,,,,0,10,10,58,1,6,2,,,,,,,,,,,,,,,,,,,,,,,,,,,,,,,,,,,,,,,,,,,,,,,,,,,,,,,,,,,,,,,,,,,,,,,,,,,,,,,,,,,,,,,,,,,,,,,,,,,
,,,,,,,,,,stimuli/images/PICTURE_348.png,DUDE,5dee8dc525332652f941f79b,12/08/1996,2020-08-13_12h41.39.678,proactive2,2020.1.2,MacIntel,60,5f341be081b9052c55068110,5f352687fbeb1447cc544e76,4,,,,,,pepper,,,,,,0,11,11,59,1,6,2,,,,,,,,,,,,,,,,,,,,,,,,,,,,,,,,,,,,,,,,,,,,,,,,,,,,,,,,,,,,,,,,,,,,,,,,,,,,,,,,,,,,,,,,,,,,,,,,,,,
,,,,,,,,,,stimuli/images/PICTURE_57.png,CASINO,5dee8dc525332652f941f79b,12/08/1996,2020-08-13_12h41.39.678,proactive2,2020.1.2,MacIntel,60,5f341be081b9052c55068110,5f352687fbeb1447cc544e76,4,,,,,,stamp,,,,,,0,12,12,12,1,2,2,,,,,,,,,,,,,,,,,,,,,,,,,,,,,,,,,,,,,,,,,,,,,,,,,,,,,,,,,,,,,,,,,,,,,,,,,,,,,,,,,,,,,,,,,,,,,,,,,,,
,,,,,,,,,,stimuli/images/PICTURE_667.png,GLASS,5dee8dc525332652f941f79b,12/08/1996,2020-08-13_12h41.39.678,proactive2,2020.1.2,MacIntel,60,5f341be081b9052c55068110,5f352687fbeb1447cc544e76,4,,,,,,daisy,,,,,,0,13,13,27,1,3,2,,,,,,,,,,,,,,,,,,,,,,,,,,,,,,,,,,,,,,,,,,,,,,,,,,,,,,,,,,,,,,,,,,,,,,,,,,,,,,,,,,,,,,,,,,,,,,,,,,,
,,,,,,,,,,stimuli/images/PICTURE_2.png,JUNGLE,5dee8dc525332652f941f79b,12/08/1996,2020-08-13_12h41.39.678,proactive2,2020.1.2,MacIntel,60,5f341be081b9052c55068110,5f352687fbeb1447cc544e76,4,,,,,,tyre,,,,,,0,14,14,1,1,1,2,,,,,,,,,,,,,,,,,,,,,,,,,,,,,,,,,,,,,,,,,,,,,,,,,,,,,,,,,,,,,,,,,,,,,,,,,,,,,,,,,,,,,,,,,,,,,,,,,,,
,,,,,,,,,,stimuli/images/PICTURE_655.png,SALE,5dee8dc525332652f941f79b,12/08/1996,2020-08-13_12h41.39.678,proactive2,2020.1.2,MacIntel,60,5f341be081b9052c55068110,5f352687fbeb1447cc544e76,4,,,,,,megaphone,,,,,,0,15,15,57,1,6,2,,,,,,,,,,,,,,,,,,,,,,,,,,,,,,,,,,,,,,,,,,,,,,,,,,,,,,,,,,,,,,,,,,,,,,,,,,,,,,,,,,,,,,,,,,,,,,,,,,,
,,,,,,,,,,stimuli/images/PICTURE_123.png,SALE,5dee8dc525332652f941f79b,12/08/1996,2020-08-13_12h41.39.678,proactive2,2020.1.2,MacIntel,60,5f341be081b9052c55068110,5f352687fbeb1447cc544e76,4,,,,,,dart,,,,,,0,16,16,8,1,1,2,,,,,,,,,,,,,,,,,,,,,,,,,,,,,,,,,,,,,,,,,,,,,,,,,,,,,,,,,,,,,,,,,,,,,,,,,,,,,,,,,,,,,,,,,,,,,,,,,,,
,,,,,,,,,,stimuli/images/PICTURE_509.png,MILLER,5dee8dc525332652f941f79b,12/08/1996,2020-08-13_12h41.39.678,proactive2,2020.1.2,MacIntel,60,5f341be081b9052c55068110,5f352687fbeb1447cc544e76,4,,,,,,telephone,,,,,,0,17,17,49,1,5,2,,,,,,,,,,,,,,,,,,,,,,,,,,,,,,,,,,,,,,,,,,,,,,,,,,,,,,,,,,,,,,,,,,,,,,,,,,,,,,,,,,,,,,,,,,,,,,,,,,,
,,,,,,,,,,stimuli/images/PICTURE_314.png,SPEECH,5dee8dc525332652f941f79b,12/08/1996,2020-08-13_12h41.39.678,proactive2,2020.1.2,MacIntel,60,5f341be081b9052c55068110,5f352687fbeb1447cc544e76,4,,,,,,perfume,,,,,,0,18,18,35,1,4,2,,,,,,,,,,,,,,,,,,,,,,,,,,,,,,,,,,,,,,,,,,,,,,,,,,,,,,,,,,,,,,,,,,,,,,,,,,,,,,,,,,,,,,,,,,,,,,,,,,,
,,,,,,,,,,stimuli/images/PICTURE_692.png,DUDE,5dee8dc525332652f941f79b,12/08/1996,2020-08-13_12h41.39.678,proactive2,2020.1.2,MacIntel,60,5f341be081b9052c55068110,5f352687fbeb1447cc544e76,4,,,,,,cherry,,,,,,0,19,19,47,1,5,2,,,,,,,,,,,,,,,,,,,,,,,,,,,,,,,,,,,,,,,,,,,,,,,,,,,,,,,,,,,,,,,,,,,,,,,,,,,,,,,,,,,,,,,,,,,,,,,,,,,
,,,,,,,,,,stimuli/images/PICTURE_215.png,LEADER,5dee8dc525332652f941f79b,12/08/1996,2020-08-13_12h41.39.678,proactive2,2020.1.2,MacIntel,60,5f341be081b9052c55068110,5f352687fbeb1447cc544e76,4,,,,,,boot,,,,,,0,20,20,43,1,5,2,,,,,,,,,,,,,,,,,,,,,,,,,,,,,,,,,,,,,,,,,,,,,,,,,,,,,,,,,,,,,,,,,,,,,,,,,,,,,,,,,,,,,,,,,,,,,,,,,,,
,,,,,,,,,,stimuli/images/PICTURE_208.png,SPIRIT,5dee8dc525332652f941f79b,12/08/1996,2020-08-13_12h41.39.678,proactive2,2020.1.2,MacIntel,60,5f341be081b9052c55068110,5f352687fbeb1447cc544e76,4,,,,,,microphone,,,,,,0,21,21,28,1,3,2,,,,,,,,,,,,,,,,,,,,,,,,,,,,,,,,,,,,,,,,,,,,,,,,,,,,,,,,,,,,,,,,,,,,,,,,,,,,,,,,,,,,,,,,,,,,,,,,,,,
,,,,,,,,,,stimuli/images/PICTURE_57.png,CANDY,5dee8dc525332652f941f79b,12/08/1996,2020-08-13_12h41.39.678,proactive2,2020.1.2,MacIntel,60,5f341be081b9052c55068110,5f352687fbeb1447cc544e76,4,,,,,,stamp,,,,,,0,22,22,52,1,6,2,,,,,,,,,,,,,,,,,,,,,,,,,,,,,,,,,,,,,,,,,,,,,,,,,,,,,,,,,,,,,,,,,,,,,,,,,,,,,,,,,,,,,,,,,,,,,,,,,,,
,,,,,,,,,,stimuli/images/PICTURE_348.png,TOILET,5dee8dc525332652f941f79b,12/08/1996,2020-08-13_12h41.39.678,proactive2,2020.1.2,MacIntel,60,5f341be081b9052c55068110,5f352687fbeb1447cc544e76,4,,,,,,pepper,,,,,,0,23,23,4,1,1,2,,,,,,,,,,,,,,,,,,,,,,,,,,,,,,,,,,,,,,,,,,,,,,,,,,,,,,,,,,,,,,,,,,,,,,,,,,,,,,,,,,,,,,,,,,,,,,,,,,,
,,,,,,,,,,stimuli/images/PICTURE_677.png,FAMILY,5dee8dc525332652f941f79b,12/08/1996,2020-08-13_12h41.39.678,proactive2,2020.1.2,MacIntel,60,5f341be081b9052c55068110,5f352687fbeb1447cc544e76,4,,,,,,map,,,,,,0,24,24,53,1,6,2,,,,,,,,,,,,,,,,,,,,,,,,,,,,,,,,,,,,,,,,,,,,,,,,,,,,,,,,,,,,,,,,,,,,,,,,,,,,,,,,,,,,,,,,,,,,,,,,,,,
,,,,,,,,,,stimuli/images/PICTURE_405.png,JUNGLE,5dee8dc525332652f941f79b,12/08/1996,2020-08-13_12h41.39.678,proactive2,2020.1.2,MacIntel,60,5f341be081b9052c55068110,5f352687fbeb1447cc544e76,4,,,,,,anchor,,,,,,0,25,25,13,1,2,2,,,,,,,,,,,,,,,,,,,,,,,,,,,,,,,,,,,,,,,,,,,,,,,,,,,,,,,,,,,,,,,,,,,,,,,,,,,,,,,,,,,,,,,,,,,,,,,,,,,
,,,,,,,,,,stimuli/images/PICTURE_491.png,SERIES,5dee8dc525332652f941f79b,12/08/1996,2020-08-13_12h41.39.678,proactive2,2020.1.2,MacIntel,60,5f341be081b9052c55068110,5f352687fbeb1447cc544e76,4,,,,,,rug,,,,,,0,26,26,39,1,4,2,,,,,,,,,,,,,,,,,,,,,,,,,,,,,,,,,,,,,,,,,,,,,,,,,,,,,,,,,,,,,,,,,,,,,,,,,,,,,,,,,,,,,,,,,,,,,,,,,,,
,,,,,,,,,,stimuli/images/PICTURE_285.png,WRITER,5dee8dc525332652f941f79b,12/08/1996,2020-08-13_12h41.39.678,proactive2,2020.1.2,MacIntel,60,5f341be081b9052c55068110,5f352687fbeb1447cc544e76,4,,,,,,carrot,,,,,,0,27,27,6,1,1,2,,,,,,,,,,,,,,,,,,,,,,,,,,,,,,,,,,,,,,,,,,,,,,,,,,,,,,,,,,,,,,,,,,,,,,,,,,,,,,,,,,,,,,,,,,,,,,,,,,,
,,,,,,,,,,stimuli/images/PICTURE_95.png,NIGHT,5dee8dc525332652f941f79b,12/08/1996,2020-08-13_12h41.39.678,proactive2,2020.1.2,MacIntel,60,5f341be081b9052c55068110,5f352687fbeb1447cc544e76,4,,,,,,suitcase,,,,,,0,28,28,37,1,4,2,,,,,,,,,,,,,,,,,,,,,,,,,,,,,,,,,,,,,,,,,,,,,,,,,,,,,,,,,,,,,,,,,,,,,,,,,,,,,,,,,,,,,,,,,,,,,,,,,,,
,,,,,,,,,,stimuli/images/PICTURE_487.png,POLICY,5dee8dc525332652f941f79b,12/08/1996,2020-08-13_12h41.39.678,proactive2,2020.1.2,MacIntel,60,5f341be081b9052c55068110,5f352687fbeb1447cc544e76,4,,,,,,basket,,,,,,0,29,29,34,1,4,2,,,,,,,,,,,,,,,,,,,,,,,,,,,,,,,,,,,,,,,,,,,,,,,,,,,,,,,,,,,,,,,,,,,,,,,,,,,,,,,,,,,,,,,,,,,,,,,,,,,
,,,,,,,,,,stimuli/images/PICTURE_509.png,APPLE,5dee8dc525332652f941f79b,12/08/1996,2020-08-13_12h41.39.678,proactive2,2020.1.2,MacIntel,60,5f341be081b9052c55068110,5f352687fbeb1447cc544e76,4,,,,,,telephone,,,,,,0,30,30,38,1,4,2,,,,,,,,,,,,,,,,,,,,,,,,,,,,,,,,,,,,,,,,,,,,,,,,,,,,,,,,,,,,,,,,,,,,,,,,,,,,,,,,,,,,,,,,,,,,,,,,,,,
,,,,,,,,,,stimuli/images/PICTURE_452.png,COPS,5dee8dc525332652f941f79b,12/08/1996,2020-08-13_12h41.39.678,proactive2,2020.1.2,MacIntel,60,5f341be081b9052c55068110,5f352687fbeb1447cc544e76,4,,,,,,watch,,,,,,0,31,31,0,1,1,2,,,,,,,,,,,,,,,,,,,,,,,,,,,,,,,,,,,,,,,,,,,,,,,,,,,,,,,,,,,,,,,,,,,,,,,,,,,,,,,,,,,,,,,,,,,,,,,,,,,
,,,,,,,,,,stimuli/images/PICTURE_33.png,COPS,5dee8dc525332652f941f79b,12/08/1996,2020-08-13_12h41.39.678,proactive2,2020.1.2,MacIntel,60,5f341be081b9052c55068110,5f352687fbeb1447cc544e76,4,,,,,,frame,,,,,,0,32,32,29,1,3,2,,,,,,,,,,,,,,,,,,,,,,,,,,,,,,,,,,,,,,,,,,,,,,,,,,,,,,,,,,,,,,,,,,,,,,,,,,,,,,,,,,,,,,,,,,,,,,,,,,,
,,,,,,,,,,stimuli/images/PICTURE_688.png,CLOCK,5dee8dc525332652f941f79b,12/08/1996,2020-08-13_12h41.39.678,proactive2,2020.1.2,MacIntel,60,5f341be081b9052c55068110,5f352687fbeb1447cc544e76,4,,,,,,runner,,,,,,0,33,33,42,1,5,2,,,,,,,,,,,,,,,,,,,,,,,,,,,,,,,,,,,,,,,,,,,,,,,,,,,,,,,,,,,,,,,,,,,,,,,,,,,,,,,,,,,,,,,,,,,,,,,,,,,
,,,,,,,,,,stimuli/images/PICTURE_57.png,NATION,5dee8dc525332652f941f79b,12/08/1996,2020-08-13_12h41.39.678,proactive2,2020.1.2,MacIntel,60,5f341be081b9052c55068110,5f352687fbeb1447cc544e76,4,,,,,,stamp,,,,,,0,34,34,21,1,3,2,,,,,,,,,,,,,,,,,,,,,,,,,,,,,,,,,,,,,,,,,,,,,,,,,,,,,,,,,,,,,,,,,,,,,,,,,,,,,,,,,,,,,,,,,,,,,,,,,,,
,,,,,,,,,,stimuli/images/PICTURE_708.png,VALLEY,5dee8dc525332652f941f79b,12/08/1996,2020-08-13_12h41.39.678,proactive2,2020.1.2,MacIntel,60,5f341be081b9052c55068110,5f352687fbeb1447cc544e76,4,,,,,,monkey,,,,,,0,35,35,45,1,5,2,,,,,,,,,,,,,,,,,,,,,,,,,,,,,,,,,,,,,,,,,,,,,,,,,,,,,,,,,,,,,,,,,,,,,,,,,,,,,,,,,,,,,,,,,,,,,,,,,,,
,,,,,,,,,,stimuli/images/PICTURE_453.png,FAMILY,5dee8dc525332652f941f79b,12/08/1996,2020-08-13_12h41.39.678,proactive2,2020.1.2,MacIntel,60,5f341be081b9052c55068110,5f352687fbeb1447cc544e76,4,,,,,,scissors,,,,,,0,36,36,48,1,5,2,,,,,,,,,,,,,,,,,,,,,,,,,,,,,,,,,,,,,,,,,,,,,,,,,,,,,,,,,,,,,,,,,,,,,,,,,,,,,,,,,,,,,,,,,,,,,,,,,,,
,,,,,,,,,,stimuli/images/PICTURE_2.png,YARD,5dee8dc525332652f941f79b,12/08/1996,2020-08-13_12h41.39.678,proactive2,2020.1.2,MacIntel,60,5f341be081b9052c55068110,5f352687fbeb1447cc544e76,4,,,,,,tyre,,,,,,0,37,37,55,1,6,2,,,,,,,,,,,,,,,,,,,,,,,,,,,,,,,,,,,,,,,,,,,,,,,,,,,,,,,,,,,,,,,,,,,,,,,,,,,,,,,,,,,,,,,,,,,,,,,,,,,
,,,,,,,,,,stimuli/images/PICTURE_255.png,PENNY,5dee8dc525332652f941f79b,12/08/1996,2020-08-13_12h41.39.678,proactive2,2020.1.2,MacIntel,60,5f341be081b9052c55068110,5f352687fbeb1447cc544e76,4,,,,,,shovel,,,,,,0,38,38,19,1,2,2,,,,,,,,,,,,,,,,,,,,,,,,,,,,,,,,,,,,,,,,,,,,,,,,,,,,,,,,,,,,,,,,,,,,,,,,,,,,,,,,,,,,,,,,,,,,,,,,,,,
,,,,,,,,,,stimuli/images/PICTURE_296.png,CLOCK,5dee8dc525332652f941f79b,12/08/1996,2020-08-13_12h41.39.678,proactive2,2020.1.2,MacIntel,60,5f341be081b9052c55068110,5f352687fbeb1447cc544e76,4,,,,,,bolt,,,,,,0,39,39,18,1,2,2,,,,,,,,,,,,,,,,,,,,,,,,,,,,,,,,,,,,,,,,,,,,,,,,,,,,,,,,,,,,,,,,,,,,,,,,,,,,,,,,,,,,,,,,,,,,,,,,,,,
,,,,,,,,,,stimuli/images/PICTURE_160.png,HOTEL,5dee8dc525332652f941f79b,12/08/1996,2020-08-13_12h41.39.678,proactive2,2020.1.2,MacIntel,60,5f341be081b9052c55068110,5f352687fbeb1447cc544e76,4,,,,,,wheelbarrow,,,,,,0,40,40,16,1,2,2,,,,,,,,,,,,,,,,,,,,,,,,,,,,,,,,,,,,,,,,,,,,,,,,,,,,,,,,,,,,,,,,,,,,,,,,,,,,,,,,,,,,,,,,,,,,,,,,,,,
,,,,,,,,,,stimuli/images/PICTURE_470.png,BEAUTY,5dee8dc525332652f941f79b,12/08/1996,2020-08-13_12h41.39.678,proactive2,2020.1.2,MacIntel,60,5f341be081b9052c55068110,5f352687fbeb1447cc544e76,4,,,,,,motorbike,,,,,,0,41,41,26,1,3,2,,,,,,,,,,,,,,,,,,,,,,,,,,,,,,,,,,,,,,,,,,,,,,,,,,,,,,,,,,,,,,,,,,,,,,,,,,,,,,,,,,,,,,,,,,,,,,,,,,,
,,,,,,,,,,stimuli/images/PICTURE_509.png,SHOTS,5dee8dc525332652f941f79b,12/08/1996,2020-08-13_12h41.39.678,proactive2,2020.1.2,MacIntel,60,5f341be081b9052c55068110,5f352687fbeb1447cc544e76,4,,,,,,telephone,,,,,,0,42,42,7,1,1,2,,,,,,,,,,,,,,,,,,,,,,,,,,,,,,,,,,,,,,,,,,,,,,,,,,,,,,,,,,,,,,,,,,,,,,,,,,,,,,,,,,,,,,,,,,,,,,,,,,,
,,,,,,,,,,stimuli/images/PICTURE_2.png,AREA,5dee8dc525332652f941f79b,12/08/1996,2020-08-13_12h41.39.678,proactive2,2020.1.2,MacIntel,60,5f341be081b9052c55068110,5f352687fbeb1447cc544e76,4,,,,,,tyre,,,,,,0,43,43,32,1,4,2,,,,,,,,,,,,,,,,,,,,,,,,,,,,,,,,,,,,,,,,,,,,,,,,,,,,,,,,,,,,,,,,,,,,,,,,,,,,,,,,,,,,,,,,,,,,,,,,,,,
,,,,,,,,,,stimuli/images/PICTURE_654.png,YEAR,5dee8dc525332652f941f79b,12/08/1996,2020-08-13_12h41.39.678,proactive2,2020.1.2,MacIntel,60,5f341be081b9052c55068110,5f352687fbeb1447cc544e76,4,,,,,,pencil,,,,,,0,44,44,41,1,5,2,,,,,,,,,,,,,,,,,,,,,,,,,,,,,,,,,,,,,,,,,,,,,,,,,,,,,,,,,,,,,,,,,,,,,,,,,,,,,,,,,,,,,,,,,,,,,,,,,,,
,,,,,,,,,,stimuli/images/PICTURE_285.png,PRINCE,5dee8dc525332652f941f79b,12/08/1996,2020-08-13_12h41.39.678,proactive2,2020.1.2,MacIntel,60,5f341be081b9052c55068110,5f352687fbeb1447cc544e76,4,,,,,,carrot,,,,,,0,45,45,20,1,3,2,,,,,,,,,,,,,,,,,,,,,,,,,,,,,,,,,,,,,,,,,,,,,,,,,,,,,,,,,,,,,,,,,,,,,,,,,,,,,,,,,,,,,,,,,,,,,,,,,,,
,,,,,,,,,,stimuli/images/PICTURE_654.png,COPS,5dee8dc525332652f941f79b,12/08/1996,2020-08-13_12h41.39.678,proactive2,2020.1.2,MacIntel,60,5f341be081b9052c55068110,5f352687fbeb1447cc544e76,4,,,,,,pencil,,,,,,0,46,46,10,1,2,2,,,,,,,,,,,,,,,,,,,,,,,,,,,,,,,,,,,,,,,,,,,,,,,,,,,,,,,,,,,,,,,,,,,,,,,,,,,,,,,,,,,,,,,,,,,,,,,,,,,
,,,,,,,,,,stimuli/images/PICTURE_403.png,FAMILY,5dee8dc525332652f941f79b,12/08/1996,2020-08-13_12h41.39.678,proactive2,2020.1.2,MacIntel,60,5f341be081b9052c55068110,5f352687fbeb1447cc544e76,4,,,,,,cathedral,,,,,,0,47,47,9,1,1,2,,,,,,,,,,,,,,,,,,,,,,,,,,,,,,,,,,,,,,,,,,,,,,,,,,,,,,,,,,,,,,,,,,,,,,,,,,,,,,,,,,,,,,,,,,,,,,,,,,,
,,,,,,,,,,stimuli/images/PICTURE_750.png,POLICY,5dee8dc525332652f941f79b,12/08/1996,2020-08-13_12h41.39.678,proactive2,2020.1.2,MacIntel,60,5f341be081b9052c55068110,5f352687fbeb1447cc544e76,4,,,,,,kettle,,,,,,0,48,48,44,1,5,2,,,,,,,,,,,,,,,,,,,,,,,,,,,,,,,,,,,,,,,,,,,,,,,,,,,,,,,,,,,,,,,,,,,,,,,,,,,,,,,,,,,,,,,,,,,,,,,,,,,
,,,,,,,,,,stimuli/images/PICTURE_215.png,BOYS,5dee8dc525332652f941f79b,12/08/1996,2020-08-13_12h41.39.678,proactive2,2020.1.2,MacIntel,60,5f341be081b9052c55068110,5f352687fbeb1447cc544e76,4,,,,,,boot,,,,,,0,49,49,24,1,3,2,,,,,,,,,,,,,,,,,,,,,,,,,,,,,,,,,,,,,,,,,,,,,,,,,,,,,,,,,,,,,,,,,,,,,,,,,,,,,,,,,,,,,,,,,,,,,,,,,,,
,,,,,,,,,,stimuli/images/PICTURE_470.png,MOMENT,5dee8dc525332652f941f79b,12/08/1996,2020-08-13_12h41.39.678,proactive2,2020.1.2,MacIntel,60,5f341be081b9052c55068110,5f352687fbeb1447cc544e76,4,,,,,,motorbike,,,,,,0,50,50,40,1,5,2,,,,,,,,,,,,,,,,,,,,,,,,,,,,,,,,,,,,,,,,,,,,,,,,,,,,,,,,,,,,,,,,,,,,,,,,,,,,,,,,,,,,,,,,,,,,,,,,,,,
,,,,,,,,,,stimuli/images/PICTURE_141.png,CLIENT,5dee8dc525332652f941f79b,12/08/1996,2020-08-13_12h41.39.678,proactive2,2020.1.2,MacIntel,60,5f341be081b9052c55068110,5f352687fbeb1447cc544e76,4,,,,,,sunflower,,,,,,0,51,51,30,1,4,2,,,,,,,,,,,,,,,,,,,,,,,,,,,,,,,,,,,,,,,,,,,,,,,,,,,,,,,,,,,,,,,,,,,,,,,,,,,,,,,,,,,,,,,,,,,,,,,,,,,
,,,,,,,,,,stimuli/images/PICTURE_215.png,FOOD,5dee8dc525332652f941f79b,12/08/1996,2020-08-13_12h41.39.678,proactive2,2020.1.2,MacIntel,60,5f341be081b9052c55068110,5f352687fbeb1447cc544e76,4,,,,,,boot,,,,,,0,52,52,5,1,1,2,,,,,,,,,,,,,,,,,,,,,,,,,,,,,,,,,,,,,,,,,,,,,,,,,,,,,,,,,,,,,,,,,,,,,,,,,,,,,,,,,,,,,,,,,,,,,,,,,,,
,,,,,,,,,,stimuli/images/PICTURE_487.png,ROOF,5dee8dc525332652f941f79b,12/08/1996,2020-08-13_12h41.39.678,proactive2,2020.1.2,MacIntel,60,5f341be081b9052c55068110,5f352687fbeb1447cc544e76,4,,,,,,basket,,,,,,0,53,53,50,1,6,2,,,,,,,,,,,,,,,,,,,,,,,,,,,,,,,,,,,,,,,,,,,,,,,,,,,,,,,,,,,,,,,,,,,,,,,,,,,,,,,,,,,,,,,,,,,,,,,,,,,
,,,,,,,,,,stimuli/images/PICTURE_405.png,HOUSE,5dee8dc525332652f941f79b,12/08/1996,2020-08-13_12h41.39.678,proactive2,2020.1.2,MacIntel,60,5f341be081b9052c55068110,5f352687fbeb1447cc544e76,4,,,,,,anchor,,,,,,0,54,54,2,1,1,2,,,,,,,,,,,,,,,,,,,,,,,,,,,,,,,,,,,,,,,,,,,,,,,,,,,,,,,,,,,,,,,,,,,,,,,,,,,,,,,,,,,,,,,,,,,,,,,,,,,
,,,,,,,,,,stimuli/images/PICTURE_297.png,BODY,5dee8dc525332652f941f79b,12/08/1996,2020-08-13_12h41.39.678,proactive2,2020.1.2,MacIntel,60,5f341be081b9052c55068110,5f352687fbeb1447cc544e76,4,,,,,,aeroplane,,,,,,0,55,55,51,1,6,2,,,,,,,,,,,,,,,,,,,,,,,,,,,,,,,,,,,,,,,,,,,,,,,,,,,,,,,,,,,,,,,,,,,,,,,,,,,,,,,,,,,,,,,,,,,,,,,,,,,
,,,,,,,,,,stimuli/images/PICTURE_311.png,TOILET,5dee8dc525332652f941f79b,12/08/1996,2020-08-13_12h41.39.678,proactive2,2020.1.2,MacIntel,60,5f341be081b9052c55068110,5f352687fbeb1447cc544e76,4,,,,,,razor,,,,,,0,56,56,54,1,6,2,,,,,,,,,,,,,,,,,,,,,,,,,,,,,,,,,,,,,,,,,,,,,,,,,,,,,,,,,,,,,,,,,,,,,,,,,,,,,,,,,,,,,,,,,,,,,,,,,,,
,,,,,,,,,,stimuli/images/PICTURE_147.png,LEADER,5dee8dc525332652f941f79b,12/08/1996,2020-08-13_12h41.39.678,proactive2,2020.1.2,MacIntel,60,5f341be081b9052c55068110,5f352687fbeb1447cc544e76,4,,,,,,hanger,,,,,,0,57,57,33,1,4,2,,,,,,,,,,,,,,,,,,,,,,,,,,,,,,,,,,,,,,,,,,,,,,,,,,,,,,,,,,,,,,,,,,,,,,,,,,,,,,,,,,,,,,,,,,,,,,,,,,,
,,,,,,,,,,stimuli/images/PICTURE_504.png,HOUSE,5dee8dc525332652f941f79b,12/08/1996,2020-08-13_12h41.39.678,proactive2,2020.1.2,MacIntel,60,5f341be081b9052c55068110,5f352687fbeb1447cc544e76,4,,,,,,wheel,,,,,,0,58,58,36,1,4,2,,,,,,,,,,,,,,,,,,,,,,,,,,,,,,,,,,,,,,,,,,,,,,,,,,,,,,,,,,,,,,,,,,,,,,,,,,,,,,,,,,,,,,,,,,,,,,,,,,,
,,HOUSE,2.946,0,,,,,,stimuli/images/PICTURE_147.png,LEADER,5dee8dc525332652f941f79b,12/08/1996,2020-08-13_12h41.39.678,proactive2,2020.1.2,MacIntel,60,5f341be081b9052c55068110,5f352687fbeb1447cc544e76,4,,,,,,hanger,,,,,,,,,,,4,2,0,0,0,33,1,,,,,,,,,,,,,,,,,,,,,,,,,,,,,,,,,,,,,,,,,,,,,,,,,,,,,,,,,,,,,,,,,,,,,,,,,,,,,,,,,,,,,,,,,,,,,,
,,?,0.001,0,,,,,,stimuli/images/PICTURE_348.png,TOILET,5dee8dc525332652f941f79b,12/08/1996,2020-08-13_12h41.39.678,proactive2,2020.1.2,MacIntel,60,5f341be081b9052c55068110,5f352687fbeb1447cc544e76,4,,,,,,pepper,,,,,,,,,,,1,2,0,1,1,4,1,,,,,,,,,,,,,,,,,,,,,,,,,,,,,,,,,,,,,,,,,,,,,,,,,,,,,,,,,,,,,,,,,,,,,,,,,,,,,,,,,,,,,,,,,,,,,,
,,?,0.001,0,,,,,,stimuli/images/PICTURE_215.png,BOYS,5dee8dc525332652f941f79b,12/08/1996,2020-08-13_12h41.39.678,proactive2,2020.1.2,MacIntel,60,5f341be081b9052c55068110,5f352687fbeb1447cc544e76,4,,,,,,boot,,,,,,,,,,,3,2,0,2,2,24,1,,,,,,,,,,,,,,,,,,,,,,,,,,,,,,,,,,,,,,,,,,,,,,,,,,,,,,,,,,,,,,,,,,,,,,,,,,,,,,,,,,,,,,,,,,,,,,
,,?,0.001,0,,,,,,stimuli/images/PICTURE_311.png,TOILET,5dee8dc525332652f941f79b,12/08/1996,2020-08-13_12h41.39.678,proactive2,2020.1.2,MacIntel,60,5f341be081b9052c55068110,5f352687fbeb1447cc544e76,4,,,,,,razor,,,,,,,,,,,6,2,0,3,3,54,1,,,,,,,,,,,,,,,,,,,,,,,,,,,,,,,,,,,,,,,,,,,,,,,,,,,,,,,,,,,,,,,,,,,,,,,,,,,,,,,,,,,,,,,,,,,,,,
,,?,0.001,0,,,,,,stimuli/images/PICTURE_57.png,NATION,5dee8dc525332652f941f79b,12/08/1996,2020-08-13_12h41.39.678,proactive2,2020.1.2,MacIntel,60,5f341be081b9052c55068110,5f352687fbeb1447cc544e76,4,,,,,,stamp,,,,,,,,,,,3,2,0,4,4,21,1,,,,,,,,,,,,,,,,,,,,,,,,,,,,,,,,,,,,,,,,,,,,,,,,,,,,,,,,,,,,,,,,,,,,,,,,,,,,,,,,,,,,,,,,,,,,,,
,,?,0,0,,,,,,stimuli/images/PICTURE_677.png,FAMILY,5dee8dc525332652f941f79b,12/08/1996,2020-08-13_12h41.39.678,proactive2,2020.1.2,MacIntel,60,5f341be081b9052c55068110,5f352687fbeb1447cc544e76,4,,,,,,map,,,,,,,,,,,6,2,0,5,5,53,1,,,,,,,,,,,,,,,,,,,,,,,,,,,,,,,,,,,,,,,,,,,,,,,,,,,,,,,,,,,,,,,,,,,,,,,,,,,,,,,,,,,,,,,,,,,,,,
,,?,0.001,0,,,,,,stimuli/images/PICTURE_470.png,BEAUTY,5dee8dc525332652f941f79b,12/08/1996,2020-08-13_12h41.39.678,proactive2,2020.1.2,MacIntel,60,5f341be081b9052c55068110,5f352687fbeb1447cc544e76,4,,,,,,motorbike,,,,,,,,,,,3,2,0,6,6,26,1,,,,,,,,,,,,,,,,,,,,,,,,,,,,,,,,,,,,,,,,,,,,,,,,,,,,,,,,,,,,,,,,,,,,,,,,,,,,,,,,,,,,,,,,,,,,,,
,,?,0.001,0,,,,,,stimuli/images/PICTURE_509.png,SHOTS,5dee8dc525332652f941f79b,12/08/1996,2020-08-13_12h41.39.678,proactive2,2020.1.2,MacIntel,60,5f341be081b9052c55068110,5f352687fbeb1447cc544e76,4,,,,,,telephone,,,,,,,,,,,1,2,0,7,7,7,1,,,,,,,,,,,,,,,,,,,,,,,,,,,,,,,,,,,,,,,,,,,,,,,,,,,,,,,,,,,,,,,,,,,,,,,,,,,,,,,,,,,,,,,,,,,,,,
,,?,0.001,0,,,,,,stimuli/images/PICTURE_208.png,SPIRIT,5dee8dc525332652f941f79b,12/08/1996,2020-08-13_12h41.39.678,proactive2,2020.1.2,MacIntel,60,5f341be081b9052c55068110,5f352687fbeb1447cc544e76,4,,,,,,microphone,,,,,,,,,,,3,2,0,8,8,28,1,,,,,,,,,,,,,,,,,,,,,,,,,,,,,,,,,,,,,,,,,,,,,,,,,,,,,,,,,,,,,,,,,,,,,,,,,,,,,,,,,,,,,,,,,,,,,,
,,?,0.001,0,,,,,,stimuli/images/PICTURE_509.png,MILLER,5dee8dc525332652f941f79b,12/08/1996,2020-08-13_12h41.39.678,proactive2,2020.1.2,MacIntel,60,5f341be081b9052c55068110,5f352687fbeb1447cc544e76,4,,,,,,telephone,,,,,,,,,,,5,2,0,9,9,49,1,,,,,,,,,,,,,,,,,,,,,,,,,,,,,,,,,,,,,,,,,,,,,,,,,,,,,,,,,,,,,,,,,,,,,,,,,,,,,,,,,,,,,,,,,,,,,,
,,?,0.001,0,,,,,,stimuli/images/PICTURE_453.png,FAMILY,5dee8dc525332652f941f79b,12/08/1996,2020-08-13_12h41.39.678,proactive2,2020.1.2,MacIntel,60,5f341be081b9052c55068110,5f352687fbeb1447cc544e76,4,,,,,,scissors,,,,,,,,,,,5,2,0,10,10,48,1,,,,,,,,,,,,,,,,,,,,,,,,,,,,,,,,,,,,,,,,,,,,,,,,,,,,,,,,,,,,,,,,,,,,,,,,,,,,,,,,,,,,,,,,,,,,,,
,,?,0,0,,,,,,stimuli/images/PICTURE_356.png,CANDY,5dee8dc525332652f941f79b,12/08/1996,2020-08-13_12h41.39.678,proactive2,2020.1.2,MacIntel,60,5f341be081b9052c55068110,5f352687fbeb1447cc544e76,4,,,,,,pawn,,,,,,,,,,,5,2,0,11,11,46,1,,,,,,,,,,,,,,,,,,,,,,,,,,,,,,,,,,,,,,,,,,,,,,,,,,,,,,,,,,,,,,,,,,,,,,,,,,,,,,,,,,,,,,,,,,,,,,
,,?,0.001,0,,,,,,stimuli/images/PICTURE_311.png,FLESH,5dee8dc525332652f941f79b,12/08/1996,2020-08-13_12h41.39.678,proactive2,2020.1.2,MacIntel,60,5f341be081b9052c55068110,5f352687fbeb1447cc544e76,4,,,,,,razor,,,,,,,,,,,1,2,0,12,12,3,1,,,,,,,,,,,,,,,,,,,,,,,,,,,,,,,,,,,,,,,,,,,,,,,,,,,,,,,,,,,,,,,,,,,,,,,,,,,,,,,,,,,,,,,,,,,,,,
,,?,4.194,0,,,,,,stimuli/images/PICTURE_141.png,CLIENT,5dee8dc525332652f941f79b,12/08/1996,2020-08-13_12h41.39.678,proactive2,2020.1.2,MacIntel,60,5f341be081b9052c55068110,5f352687fbeb1447cc544e76,4,,,,,,sunflower,,,,,,,,,,,4,2,0,13,13,30,1,,,,,,,,,,,,,,,,,,,,,,,,,,,,,,,,,,,,,,,,,,,,,,,,,,,,,,,,,,,,,,,,,,,,,,,,,,,,,,,,,,,,,,,,,,,,,,
,,?,0.001,0,,,,,,stimuli/images/PICTURE_348.png,DUDE,5dee8dc525332652f941f79b,12/08/1996,2020-08-13_12h41.39.678,proactive2,2020.1.2,MacIntel,60,5f341be081b9052c55068110,5f352687fbeb1447cc544e76,4,,,,,,pepper,,,,,,,,,,,6,2,0,14,14,59,1,,,,,,,,,,,,,,,,,,,,,,,,,,,,,,,,,,,,,,,,,,,,,,,,,,,,,,,,,,,,,,,,,,,,,,,,,,,,,,,,,,,,,,,,,,,,,,
,,?,0.001,0,,,,,,stimuli/images/PICTURE_2.png,YARD,5dee8dc525332652f941f79b,12/08/1996,2020-08-13_12h41.39.678,proactive2,2020.1.2,MacIntel,60,5f341be081b9052c55068110,5f352687fbeb1447cc544e76,4,,,,,,tyre,,,,,,,,,,,6,2,0,15,15,55,1,,,,,,,,,,,,,,,,,,,,,,,,,,,,,,,,,,,,,,,,,,,,,,,,,,,,,,,,,,,,,,,,,,,,,,,,,,,,,,,,,,,,,,,,,,,,,,
,,?,0.001,0,,,,,,stimuli/images/PICTURE_452.png,COPS,5dee8dc525332652f941f79b,12/08/1996,2020-08-13_12h41.39.678,proactive2,2020.1.2,MacIntel,60,5f341be081b9052c55068110,5f352687fbeb1447cc544e76,4,,,,,,watch,,,,,,,,,,,1,2,0,16,16,0,1,,,,,,,,,,,,,,,,,,,,,,,,,,,,,,,,,,,,,,,,,,,,,,,,,,,,,,,,,,,,,,,,,,,,,,,,,,,,,,,,,,,,,,,,,,,,,,
,,?,0.001,0,,,,,,stimuli/images/PICTURE_564.png,PLENTY,5dee8dc525332652f941f79b,12/08/1996,2020-08-13_12h41.39.678,proactive2,2020.1.2,MacIntel,60,5f341be081b9052c55068110,5f352687fbeb1447cc544e76,4,,,,,,spoon,,,,,,,,,,,2,2,0,17,17,11,1,,,,,,,,,,,,,,,,,,,,,,,,,,,,,,,,,,,,,,,,,,,,,,,,,,,,,,,,,,,,,,,,,,,,,,,,,,,,,,,,,,,,,,,,,,,,,,
,,?,0.001,0,,,,,,stimuli/images/PICTURE_403.png,FAMILY,5dee8dc525332652f941f79b,12/08/1996,2020-08-13_12h41.39.678,proactive2,2020.1.2,MacIntel,60,5f341be081b9052c55068110,5f352687fbeb1447cc544e76,4,,,,,,cathedral,,,,,,,,,,,1,2,0,18,18,9,1,,,,,,,,,,,,,,,,,,,,,,,,,,,,,,,,,,,,,,,,,,,,,,,,,,,,,,,,,,,,,,,,,,,,,,,,,,,,,,,,,,,,,,,,,,,,,,
,,?,0,0,,,,,,stimuli/images/PICTURE_18.png,RIVER,5dee8dc525332652f941f79b,12/08/1996,2020-08-13_12h41.39.678,proactive2,2020.1.2,MacIntel,60,5f341be081b9052c55068110,5f352687fbeb1447cc544e76,4,,,,,,planet,,,,,,,,,,,3,2,0,19,19,22,1,,,,,,,,,,,,,,,,,,,,,,,,,,,,,,,,,,,,,,,,,,,,,,,,,,,,,,,,,,,,,,,,,,,,,,,,,,,,,,,,,,,,,,,,,,,,,,
,,?,0.001,0,,,,,,stimuli/images/PICTURE_750.png,POLICY,5dee8dc525332652f941f79b,12/08/1996,2020-08-13_12h41.39.678,proactive2,2020.1.2,MacIntel,60,5f341be081b9052c55068110,5f352687fbeb1447cc544e76,4,,,,,,kettle,,,,,,,,,,,5,2,0,20,20,44,1,,,,,,,,,,,,,,,,,,,,,,,,,,,,,,,,,,,,,,,,,,,,,,,,,,,,,,,,,,,,,,,,,,,,,,,,,,,,,,,,,,,,,,,,,,,,,,
,,?,0,0,,,,,,stimuli/images/PICTURE_677.png,PHOTO,5dee8dc525332652f941f79b,12/08/1996,2020-08-13_12h41.39.678,proactive2,2020.1.2,MacIntel,60,5f341be081b9052c55068110,5f352687fbeb1447cc544e76,4,,,,,,map,,,,,,,,,,,2,2,0,21,21,14,1,,,,,,,,,,,,,,,,,,,,,,,,,,,,,,,,,,,,,,,,,,,,,,,,,,,,,,,,,,,,,,,,,,,,,,,,,,,,,,,,,,,,,,,,,,,,,,
,,?,0.001,0,,,,,,stimuli/images/PICTURE_405.png,JUNGLE,5dee8dc525332652f941f79b,12/08/1996,2020-08-13_12h41.39.678,proactive2,2020.1.2,MacIntel,60,5f341be081b9052c55068110,5f352687fbeb1447cc544e76,4,,,,,,anchor,,,,,,,,,,,2,2,0,22,22,13,1,,,,,,,,,,,,,,,,,,,,,,,,,,,,,,,,,,,,,,,,,,,,,,,,,,,,,,,,,,,,,,,,,,,,,,,,,,,,,,,,,,,,,,,,,,,,,,
,,?,0,0,,,,,,stimuli/images/PICTURE_708.png,VALLEY,5dee8dc525332652f941f79b,12/08/1996,2020-08-13_12h41.39.678,proactive2,2020.1.2,MacIntel,60,5f341be081b9052c55068110,5f352687fbeb1447cc544e76,4,,,,,,monkey,,,,,,,,,,,5,2,0,23,23,45,1,,,,,,,,,,,,,,,,,,,,,,,,,,,,,,,,,,,,,,,,,,,,,,,,,,,,,,,,,,,,,,,,,,,,,,,,,,,,,,,,,,,,,,,,,,,,,,
,,?,0.001,0,,,,,,stimuli/images/PICTURE_33.png,COPS,5dee8dc525332652f941f79b,12/08/1996,2020-08-13_12h41.39.678,proactive2,2020.1.2,MacIntel,60,5f341be081b9052c55068110,5f352687fbeb1447cc544e76,4,,,,,,frame,,,,,,,,,,,3,2,0,24,24,29,1,,,,,,,,,,,,,,,,,,,,,,,,,,,,,,,,,,,,,,,,,,,,,,,,,,,,,,,,,,,,,,,,,,,,,,,,,,,,,,,,,,,,,,,,,,,,,,
,,?,0.001,0,,,,,,stimuli/images/PICTURE_160.png,HOTEL,5dee8dc525332652f941f79b,12/08/1996,2020-08-13_12h41.39.678,proactive2,2020.1.2,MacIntel,60,5f341be081b9052c55068110,5f352687fbeb1447cc544e76,4,,,,,,wheelbarrow,,,,,,,,,,,2,2,0,25,25,16,1,,,,,,,,,,,,,,,,,,,,,,,,,,,,,,,,,,,,,,,,,,,,,,,,,,,,,,,,,,,,,,,,,,,,,,,,,,,,,,,,,,,,,,,,,,,,,,
,,?,0.001,0,,,,,,stimuli/images/PICTURE_215.png,LEADER,5dee8dc525332652f941f79b,12/08/1996,2020-08-13_12h41.39.678,proactive2,2020.1.2,MacIntel,60,5f341be081b9052c55068110,5f352687fbeb1447cc544e76,4,,,,,,boot,,,,,,,,,,,5,2,0,26,26,43,1,,,,,,,,,,,,,,,,,,,,,,,,,,,,,,,,,,,,,,,,,,,,,,,,,,,,,,,,,,,,,,,,,,,,,,,,,,,,,,,,,,,,,,,,,,,,,,
,,?,0.001,0,,,,,,stimuli/images/PICTURE_654.png,YEAR,5dee8dc525332652f941f79b,12/08/1996,2020-08-13_12h41.39.678,proactive2,2020.1.2,MacIntel,60,5f341be081b9052c55068110,5f352687fbeb1447cc544e76,4,,,,,,pencil,,,,,,,,,,,5,2,0,27,27,41,1,,,,,,,,,,,,,,,,,,,,,,,,,,,,,,,,,,,,,,,,,,,,,,,,,,,,,,,,,,,,,,,,,,,,,,,,,,,,,,,,,,,,,,,,,,,,,,
,,SPEECH,2.276,1,,,,,,stimuli/images/PICTURE_314.png,SPEECH,5dee8dc525332652f941f79b,12/08/1996,2020-08-13_12h41.39.678,proactive2,2020.1.2,MacIntel,60,5f341be081b9052c55068110,5f352687fbeb1447cc544e76,4,,,,,,perfume,,,,,,,,,,,4,2,0,28,28,35,1,,,,,,,,,,,,,,,,,,,,,,,,,,,,,,,,,,,,,,,,,,,,,,,,,,,,,,,,,,,,,,,,,,,,,,,,,,,,,,,,,,,,,,,,,,,,,,
,,GIRL,3.635,1,,,,,,stimuli/images/PICTURE_93.png,GIRL,5dee8dc525332652f941f79b,12/08/1996,2020-08-13_12h41.39.678,proactive2,2020.1.2,MacIntel,60,5f341be081b9052c55068110,5f352687fbeb1447cc544e76,4,,,,,,skateboard,,,,,,,,,,,4,2,0,29,29,31,1,,,,,,,,,,,,,,,,,,,,,,,,,,,,,,,,,,,,,,,,,,,,,,,,,,,,,,,,,,,,,,,,,,,,,,,,,,,,,,,,,,,,,,,,,,,,,,
,,?,0.002,0,,,,,,stimuli/images/PICTURE_68.png,KIND,5dee8dc525332652f941f79b,12/08/1996,2020-08-13_12h41.39.678,proactive2,2020.1.2,MacIntel,60,5f341be081b9052c55068110,5f352687fbeb1447cc544e76,4,,,,,,candle,,,,,,,,,,,3,2,0,30,30,23,1,,,,,,,,,,,,,,,,,,,,,,,,,,,,,,,,,,,,,,,,,,,,,,,,,,,,,,,,,,,,,,,,,,,,,,,,,,,,,,,,,,,,,,,,,,,,,,
,,?,0.001,0,,,,,,stimuli/images/PICTURE_405.png,HOUSE,5dee8dc525332652f941f79b,12/08/1996,2020-08-13_12h41.39.678,proactive2,2020.1.2,MacIntel,60,5f341be081b9052c55068110,5f352687fbeb1447cc544e76,4,,,,,,anchor,,,,,,,,,,,1,2,0,31,31,2,1,,,,,,,,,,,,,,,,,,,,,,,,,,,,,,,,,,,,,,,,,,,,,,,,,,,,,,,,,,,,,,,,,,,,,,,,,,,,,,,,,,,,,,,,,,,,,,
,,?,0.001,0,,,,,,stimuli/images/PICTURE_509.png,BATH,5dee8dc525332652f941f79b,12/08/1996,2020-08-13_12h41.39.678,proactive2,2020.1.2,MacIntel,60,5f341be081b9052c55068110,5f352687fbeb1447cc544e76,4,,,,,,telephone,,,,,,,,,,,2,2,0,32,32,15,1,,,,,,,,,,,,,,,,,,,,,,,,,,,,,,,,,,,,,,,,,,,,,,,,,,,,,,,,,,,,,,,,,,,,,,,,,,,,,,,,,,,,,,,,,,,,,,
,,NIGHT,5.614,0,,,,,,stimuli/images/PICTURE_487.png,POLICY,5dee8dc525332652f941f79b,12/08/1996,2020-08-13_12h41.39.678,proactive2,2020.1.2,MacIntel,60,5f341be081b9052c55068110,5f352687fbeb1447cc544e76,4,,,,,,basket,,,,,,,,,,,4,2,0,33,33,34,1,,,,,,,,,,,,,,,,,,,,,,,,,,,,,,,,,,,,,,,,,,,,,,,,,,,,,,,,,,,,,,,,,,,,,,,,,,,,,,,,,,,,,,,,,,,,,,
,,LEADER,2.533,0,,,,,,stimuli/images/PICTURE_504.png,HOUSE,5dee8dc525332652f941f79b,12/08/1996,2020-08-13_12h41.39.678,proactive2,2020.1.2,MacIntel,60,5f341be081b9052c55068110,5f352687fbeb1447cc544e76,4,,,,,,wheel,,,,,,,,,,,4,2,0,34,34,36,1,,,,,,,,,,,,,,,,,,,,,,,,,,,,,,,,,,,,,,,,,,,,,,,,,,,,,,,,,,,,,,,,,,,,,,,,,,,,,,,,,,,,,,,,,,,,,,
,,?,0.001,0,,,,,,stimuli/images/PICTURE_655.png,SALE,5dee8dc525332652f941f79b,12/08/1996,2020-08-13_12h41.39.678,proactive2,2020.1.2,MacIntel,60,5f341be081b9052c55068110,5f352687fbeb1447cc544e76,4,,,,,,megaphone,,,,,,,,,,,6,2,0,35,35,57,1,,,,,,,,,,,,,,,,,,,,,,,,,,,,,,,,,,,,,,,,,,,,,,,,,,,,,,,,,,,,,,,,,,,,,,,,,,,,,,,,,,,,,,,,,,,,,,
,,SERIES,2.599,1,,,,,,stimuli/images/PICTURE_491.png,SERIES,5dee8dc525332652f941f79b,12/08/1996,2020-08-13_12h41.39.678,proactive2,2020.1.2,MacIntel,60,5f341be081b9052c55068110,5f352687fbeb1447cc544e76,4,,,,,,rug,,,,,,,,,,,4,2,0,36,36,39,1,,,,,,,,,,,,,,,,,,,,,,,,,,,,,,,,,,,,,,,,,,,,,,,,,,,,,,,,,,,,,,,,,,,,,,,,,,,,,,,,,,,,,,,,,,,,,,
,,?,0.002,0,,,,,,stimuli/images/PICTURE_57.png,CASINO,5dee8dc525332652f941f79b,12/08/1996,2020-08-13_12h41.39.678,proactive2,2020.1.2,MacIntel,60,5f341be081b9052c55068110,5f352687fbeb1447cc544e76,4,,,,,,stamp,,,,,,,,,,,2,2,0,37,37,12,1,,,,,,,,,,,,,,,,,,,,,,,,,,,,,,,,,,,,,,,,,,,,,,,,,,,,,,,,,,,,,,,,,,,,,,,,,,,,,,,,,,,,,,,,,,,,,,
,,?,0.001,0,,,,,,stimuli/images/PICTURE_688.png,CLOCK,5dee8dc525332652f941f79b,12/08/1996,2020-08-13_12h41.39.678,proactive2,2020.1.2,MacIntel,60,5f341be081b9052c55068110,5f352687fbeb1447cc544e76,4,,,,,,runner,,,,,,,,,,,5,2,0,38,38,42,1,,,,,,,,,,,,,,,,,,,,,,,,,,,,,,,,,,,,,,,,,,,,,,,,,,,,,,,,,,,,,,,,,,,,,,,,,,,,,,,,,,,,,,,,,,,,,,
,,?,0,0,,,,,,stimuli/images/PICTURE_255.png,PENNY,5dee8dc525332652f941f79b,12/08/1996,2020-08-13_12h41.39.678,proactive2,2020.1.2,MacIntel,60,5f341be081b9052c55068110,5f352687fbeb1447cc544e76,4,,,,,,shovel,,,,,,,,,,,2,2,0,39,39,19,1,,,,,,,,,,,,,,,,,,,,,,,,,,,,,,,,,,,,,,,,,,,,,,,,,,,,,,,,,,,,,,,,,,,,,,,,,,,,,,,,,,,,,,,,,,,,,,
,,?,0.001,0,,,,,,stimuli/images/PICTURE_297.png,BODY,5dee8dc525332652f941f79b,12/08/1996,2020-08-13_12h41.39.678,proactive2,2020.1.2,MacIntel,60,5f341be081b9052c55068110,5f352687fbeb1447cc544e76,4,,,,,,aeroplane,,,,,,,,,,,6,2,0,40,40,51,1,,,,,,,,,,,,,,,,,,,,,,,,,,,,,,,,,,,,,,,,,,,,,,,,,,,,,,,,,,,,,,,,,,,,,,,,,,,,,,,,,,,,,,,,,,,,,,
,,?,0.001,0,,,,,,stimuli/images/PICTURE_285.png,PRINCE,5dee8dc525332652f941f79b,12/08/1996,2020-08-13_12h41.39.678,proactive2,2020.1.2,MacIntel,60,5f341be081b9052c55068110,5f352687fbeb1447cc544e76,4,,,,,,carrot,,,,,,,,,,,3,2,0,41,41,20,1,,,,,,,,,,,,,,,,,,,,,,,,,,,,,,,,,,,,,,,,,,,,,,,,,,,,,,,,,,,,,,,,,,,,,,,,,,,,,,,,,,,,,,,,,,,,,,
,,?,0.001,0,,,,,,stimuli/images/PICTURE_285.png,WRITER,5dee8dc525332652f941f79b,12/08/1996,2020-08-13_12h41.39.678,proactive2,2020.1.2,MacIntel,60,5f341be081b9052c55068110,5f352687fbeb1447cc544e76,4,,,,,,carrot,,,,,,,,,,,1,2,0,42,42,6,1,,,,,,,,,,,,,,,,,,,,,,,,,,,,,,,,,,,,,,,,,,,,,,,,,,,,,,,,,,,,,,,,,,,,,,,,,,,,,,,,,,,,,,,,,,,,,,
,,?,0.001,0,,,,,,stimuli/images/PICTURE_215.png,FOOD,5dee8dc525332652f941f79b,12/08/1996,2020-08-13_12h41.39.678,proactive2,2020.1.2,MacIntel,60,5f341be081b9052c55068110,5f352687fbeb1447cc544e76,4,,,,,,boot,,,,,,,,,,,1,2,0,43,43,5,1,,,,,,,,,,,,,,,,,,,,,,,,,,,,,,,,,,,,,,,,,,,,,,,,,,,,,,,,,,,,,,,,,,,,,,,,,,,,,,,,,,,,,,,,,,,,,,
,,?,0,0,,,,,,stimuli/images/PICTURE_327.png,LEADER,5dee8dc525332652f941f79b,12/08/1996,2020-08-13_12h41.39.678,proactive2,2020.1.2,MacIntel,60,5f341be081b9052c55068110,5f352687fbeb1447cc544e76,4,,,,,,helmet,,,,,,,,,,,2,2,0,44,44,17,1,,,,,,,,,,,,,,,,,,,,,,,,,,,,,,,,,,,,,,,,,,,,,,,,,,,,,,,,,,,,,,,,,,,,,,,,,,,,,,,,,,,,,,,,,,,,,,
,,?,0.001,0,,,,,,stimuli/images/PICTURE_57.png,CANDY,5dee8dc525332652f941f79b,12/08/1996,2020-08-13_12h41.39.678,proactive2,2020.1.2,MacIntel,60,5f341be081b9052c55068110,5f352687fbeb1447cc544e76,4,,,,,,stamp,,,,,,,,,,,6,2,0,45,45,52,1,,,,,,,,,,,,,,,,,,,,,,,,,,,,,,,,,,,,,,,,,,,,,,,,,,,,,,,,,,,,,,,,,,,,,,,,,,,,,,,,,,,,,,,,,,,,,,
,,?,0.001,0,,,,,,stimuli/images/PICTURE_667.png,GLASS,5dee8dc525332652f941f79b,12/08/1996,2020-08-13_12h41.39.678,proactive2,2020.1.2,MacIntel,60,5f341be081b9052c55068110,5f352687fbeb1447cc544e76,4,,,,,,daisy,,,,,,,,,,,3,2,0,46,46,27,1,,,,,,,,,,,,,,,,,,,,,,,,,,,,,,,,,,,,,,,,,,,,,,,,,,,,,,,,,,,,,,,,,,,,,,,,,,,,,,,,,,,,,,,,,,,,,,
,,?,0.001,0,,,,,,stimuli/images/PICTURE_405.png,JUNGLE,5dee8dc525332652f941f79b,12/08/1996,2020-08-13_12h41.39.678,proactive2,2020.1.2,MacIntel,60,5f341be081b9052c55068110,5f352687fbeb1447cc544e76,4,,,,,,anchor,,,,,,,,,,,6,2,0,47,47,58,1,,,,,,,,,,,,,,,,,,,,,,,,,,,,,,,,,,,,,,,,,,,,,,,,,,,,,,,,,,,,,,,,,,,,,,,,,,,,,,,,,,,,,,,,,,,,,,
,,?,0.001,0,,,,,,stimuli/images/PICTURE_2.png,JUNGLE,5dee8dc525332652f941f79b,12/08/1996,2020-08-13_12h41.39.678,proactive2,2020.1.2,MacIntel,60,5f341be081b9052c55068110,5f352687fbeb1447cc544e76,4,,,,,,tyre,,,,,,,,,,,1,2,0,48,48,1,1,,,,,,,,,,,,,,,,,,,,,,,,,,,,,,,,,,,,,,,,,,,,,,,,,,,,,,,,,,,,,,,,,,,,,,,,,,,,,,,,,,,,,,,,,,,,,,
,,?,0,0,,,,,,stimuli/images/PICTURE_123.png,SALE,5dee8dc525332652f941f79b,12/08/1996,2020-08-13_12h41.39.678,proactive2,2020.1.2,MacIntel,60,5f341be081b9052c55068110,5f352687fbeb1447cc544e76,4,,,,,,dart,,,,,,,,,,,1,2,0,49,49,8,1,,,,,,,,,,,,,,,,,,,,,,,,,,,,,,,,,,,,,,,,,,,,,,,,,,,,,,,,,,,,,,,,,,,,,,,,,,,,,,,,,,,,,,,,,,,,,,
,,?,0.001,0,,,,,,stimuli/images/PICTURE_654.png,COPS,5dee8dc525332652f941f79b,12/08/1996,2020-08-13_12h41.39.678,proactive2,2020.1.2,MacIntel,60,5f341be081b9052c55068110,5f352687fbeb1447cc544e76,4,,,,,,pencil,,,,,,,,,,,2,2,0,50,50,10,1,,,,,,,,,,,,,,,,,,,,,,,,,,,,,,,,,,,,,,,,,,,,,,,,,,,,,,,,,,,,,,,,,,,,,,,,,,,,,,,,,,,,,,,,,,,,,,
,,CLIENT,4.328,0,,,,,,stimuli/images/PICTURE_509.png,APPLE,5dee8dc525332652f941f79b,12/08/1996,2020-08-13_12h41.39.678,proactive2,2020.1.2,MacIntel,60,5f341be081b9052c55068110,5f352687fbeb1447cc544e76,4,,,,,,telephone,,,,,,,,,,,4,2,0,51,51,38,1,,,,,,,,,,,,,,,,,,,,,,,,,,,,,,,,,,,,,,,,,,,,,,,,,,,,,,,,,,,,,,,,,,,,,,,,,,,,,,,,,,,,,,,,,,,,,,
,,NIGHT,2.417,1,,,,,,stimuli/images/PICTURE_95.png,NIGHT,5dee8dc525332652f941f79b,12/08/1996,2020-08-13_12h41.39.678,proactive2,2020.1.2,MacIntel,60,5f341be081b9052c55068110,5f352687fbeb1447cc544e76,4,,,,,,suitcase,,,,,,,,,,,4,2,0,52,52,37,1,,,,,,,,,,,,,,,,,,,,,,,,,,,,,,,,,,,,,,,,,,,,,,,,,,,,,,,,,,,,,,,,,,,,,,,,,,,,,,,,,,,,,,,,,,,,,,
,,?,0.001,0,,,,,,stimuli/images/PICTURE_32.png,LETTER,5dee8dc525332652f941f79b,12/08/1996,2020-08-13_12h41.39.678,proactive2,2020.1.2,MacIntel,60,5f341be081b9052c55068110,5f352687fbeb1447cc544e76,4,,,,,,crown,,,,,,,,,,,6,2,0,53,53,56,1,,,,,,,,,,,,,,,,,,,,,,,,,,,,,,,,,,,,,,,,,,,,,,,,,,,,,,,,,,,,,,,,,,,,,,,,,,,,,,,,,,,,,,,,,,,,,,
,,?,0.001,0,,,,,,stimuli/images/PICTURE_692.png,DUDE,5dee8dc525332652f941f79b,12/08/1996,2020-08-13_12h41.39.678,proactive2,2020.1.2,MacIntel,60,5f341be081b9052c55068110,5f352687fbeb1447cc544e76,4,,,,,,cherry,,,,,,,,,,,5,2,0,54,54,47,1,,,,,,,,,,,,,,,,,,,,,,,,,,,,,,,,,,,,,,,,,,,,,,,,,,,,,,,,,,,,,,,,,,,,,,,,,,,,,,,,,,,,,,,,,,,,,,
,,?,0.001,0,,,,,,stimuli/images/PICTURE_470.png,MOMENT,5dee8dc525332652f941f79b,12/08/1996,2020-08-13_12h41.39.678,proactive2,2020.1.2,MacIntel,60,5f341be081b9052c55068110,5f352687fbeb1447cc544e76,4,,,,,,motorbike,,,,,,,,,,,5,2,0,55,55,40,1,,,,,,,,,,,,,,,,,,,,,,,,,,,,,,,,,,,,,,,,,,,,,,,,,,,,,,,,,,,,,,,,,,,,,,,,,,,,,,,,,,,,,,,,,,,,,,
,,?,0.001,0,,,,,,stimuli/images/PICTURE_177.png,HOUSE,5dee8dc525332652f941f79b,12/08/1996,2020-08-13_12h41.39.678,proactive2,2020.1.2,MacIntel,60,5f341be081b9052c55068110,5f352687fbeb1447cc544e76,4,,,,,,mushroom,,,,,,,,,,,3,2,0,56,56,25,1,,,,,,,,,,,,,,,,,,,,,,,,,,,,,,,,,,,,,,,,,,,,,,,,,,,,,,,,,,,,,,,,,,,,,,,,,,,,,,,,,,,,,,,,,,,,,,
,,?,0,0,,,,,,stimuli/images/PICTURE_296.png,CLOCK,5dee8dc525332652f941f79b,12/08/1996,2020-08-13_12h41.39.678,proactive2,2020.1.2,MacIntel,60,5f341be081b9052c55068110,5f352687fbeb1447cc544e76,4,,,,,,bolt,,,,,,,,,,,2,2,0,57,57,18,1,,,,,,,,,,,,,,,,,,,,,,,,,,,,,,,,,,,,,,,,,,,,,,,,,,,,,,,,,,,,,,,,,,,,,,,,,,,,,,,,,,,,,,,,,,,,,,
,,?,0.001,0,,,,,,stimuli/images/PICTURE_487.png,ROOF,5dee8dc525332652f941f79b,12/08/1996,2020-08-13_12h41.39.678,proactive2,2020.1.2,MacIntel,60,5f341be081b9052c55068110,5f352687fbeb1447cc544e76,4,,,,,,basket,,,,,,,,,,,6,2,0,58,58,50,1,,,,,,,,,,,,,,,,,,,,,,,,,,,,,,,,,,,,,,,,,,,,,,,,,,,,,,,,,,,,,,,,,,,,,,,,,,,,,,,,,,,,,,,,,,,,,,
,,?,4.524,0,,,,,,stimuli/images/PICTURE_2.png,AREA,5dee8dc525332652f941f79b,12/08/1996,2020-08-13_12h41.39.678,proactive2,2020.1.2,MacIntel,60,5f341be081b9052c55068110,5f352687fbeb1447cc544e76,4,,,,,,tyre,,,,,,,,,,,4,2,0,59,59,32,1,,,,,,,,,,,,,,,,,,,,,,,,,,,,,,,,,,,,,,,,,,,,,,,,,,,,,,,,,,,,,,,,,,,,,,,,,,,,,,,,,,,,,,,,,,,,,,
,,,,,,,,,,,,5dee8dc525332652f941f79b,12/08/1996,2020-08-13_12h41.39.678,proactive2,2020.1.2,MacIntel,60,5f341be081b9052c55068110,5f352687fbeb1447cc544e76,4,,,,,,,,,,,,,,,,,,,,,,,,0,0,0,2,1,stimuli/learn-block3.csv,,,,,,,,,,,,,,,,,,,,,,,,,,,,,,,,,,,,,,,,,,,,,,,,,,,,,,,,,,,,,,,,,,,,,,,,,,,,,,,,,,,,,,,,
,,,,,,,,,,stimuli/images/PICTURE_32.png,JUNGLE,5dee8dc525332652f941f79b,12/08/1996,2020-08-13_12h41.39.678,proactive2,2020.1.2,MacIntel,60,5f341be081b9052c55068110,5f352687fbeb1447cc544e76,4,,,,,,crown,,,,,,0,0,0,45,1,5,0,,,,,,,,,,,,,,,,,,,,,,,,,,,,,,,,,,,,,,,,,,,,,,,,,,,,,,,,,,,,,,,,,,,,,,,,,,,,,,,,,,,,,,,,,,,,,,,,,,,
,,,,,,,,,,stimuli/images/PICTURE_314.png,GODS,5dee8dc525332652f941f79b,12/08/1996,2020-08-13_12h41.39.678,proactive2,2020.1.2,MacIntel,60,5f341be081b9052c55068110,5f352687fbeb1447cc544e76,4,,,,,,perfume,,,,,,0,1,1,11,1,2,0,,,,,,,,,,,,,,,,,,,,,,,,,,,,,,,,,,,,,,,,,,,,,,,,,,,,,,,,,,,,,,,,,,,,,,,,,,,,,,,,,,,,,,,,,,,,,,,,,,,
,,,,,,,,,,stimuli/images/PICTURE_327.png,BEAUTY,5dee8dc525332652f941f79b,12/08/1996,2020-08-13_12h41.39.678,proactive2,2020.1.2,MacIntel,60,5f341be081b9052c55068110,5f352687fbeb1447cc544e76,4,,,,,,helmet,,,,,,0,2,2,48,1,5,0,,,,,,,,,,,,,,,,,,,,,,,,,,,,,,,,,,,,,,,,,,,,,,,,,,,,,,,,,,,,,,,,,,,,,,,,,,,,,,,,,,,,,,,,,,,,,,,,,,,
,,,,,,,,,,stimuli/images/PICTURE_233.png,IDEAS,5dee8dc525332652f941f79b,12/08/1996,2020-08-13_12h41.39.678,proactive2,2020.1.2,MacIntel,60,5f341be081b9052c55068110,5f352687fbeb1447cc544e76,4,,,,,,salt,,,,,,0,3,3,28,1,3,0,,,,,,,,,,,,,,,,,,,,,,,,,,,,,,,,,,,,,,,,,,,,,,,,,,,,,,,,,,,,,,,,,,,,,,,,,,,,,,,,,,,,,,,,,,,,,,,,,,,
,,,,,,,,,,stimuli/images/PICTURE_311.png,FRIEND,5dee8dc525332652f941f79b,12/08/1996,2020-08-13_12h41.39.678,proactive2,2020.1.2,MacIntel,60,5f341be081b9052c55068110,5f352687fbeb1447cc544e76,4,,,,,,razor,,,,,,0,4,4,34,1,4,0,,,,,,,,,,,,,,,,,,,,,,,,,,,,,,,,,,,,,,,,,,,,,,,,,,,,,,,,,,,,,,,,,,,,,,,,,,,,,,,,,,,,,,,,,,,,,,,,,,,
,,,,,,,,,,stimuli/images/PICTURE_356.png,DANGER,5dee8dc525332652f941f79b,12/08/1996,2020-08-13_12h41.39.678,proactive2,2020.1.2,MacIntel,60,5f341be081b9052c55068110,5f352687fbeb1447cc544e76,4,,,,,,pawn,,,,,,0,5,5,55,1,6,0,,,,,,,,,,,,,,,,,,,,,,,,,,,,,,,,,,,,,,,,,,,,,,,,,,,,,,,,,,,,,,,,,,,,,,,,,,,,,,,,,,,,,,,,,,,,,,,,,,,
,,,,,,,,,,stimuli/images/PICTURE_348.png,SPEECH,5dee8dc525332652f941f79b,12/08/1996,2020-08-13_12h41.39.678,proactive2,2020.1.2,MacIntel,60,5f341be081b9052c55068110,5f352687fbeb1447cc544e76,4,,,,,,pepper,,,,,,0,6,6,20,1,3,0,,,,,,,,,,,,,,,,,,,,,,,,,,,,,,,,,,,,,,,,,,,,,,,,,,,,,,,,,,,,,,,,,,,,,,,,,,,,,,,,,,,,,,,,,,,,,,,,,,,
,,,,,,,,,,stimuli/images/PICTURE_95.png,STYLE,5dee8dc525332652f941f79b,12/08/1996,2020-08-13_12h41.39.678,proactive2,2020.1.2,MacIntel,60,5f341be081b9052c55068110,5f352687fbeb1447cc544e76,4,,,,,,suitcase,,,,,,0,7,7,25,1,3,0,,,,,,,,,,,,,,,,,,,,,,,,,,,,,,,,,,,,,,,,,,,,,,,,,,,,,,,,,,,,,,,,,,,,,,,,,,,,,,,,,,,,,,,,,,,,,,,,,,,
,,,,,,,,,,stimuli/images/PICTURE_380.png,PHOTO,5dee8dc525332652f941f79b,12/08/1996,2020-08-13_12h41.39.678,proactive2,2020.1.2,MacIntel,60,5f341be081b9052c55068110,5f352687fbeb1447cc544e76,4,,,,,,gorilla,,,,,,0,8,8,52,1,6,0,,,,,,,,,,,,,,,,,,,,,,,,,,,,,,,,,,,,,,,,,,,,,,,,,,,,,,,,,,,,,,,,,,,,,,,,,,,,,,,,,,,,,,,,,,,,,,,,,,,
,,,,,,,,,,stimuli/images/PICTURE_302.png,FAMILY,5dee8dc525332652f941f79b,12/08/1996,2020-08-13_12h41.39.678,proactive2,2020.1.2,MacIntel,60,5f341be081b9052c55068110,5f352687fbeb1447cc544e76,4,,,,,,taxi,,,,,,0,9,9,18,1,2,0,,,,,,,,,,,,,,,,,,,,,,,,,,,,,,,,,,,,,,,,,,,,,,,,,,,,,,,,,,,,,,,,,,,,,,,,,,,,,,,,,,,,,,,,,,,,,,,,,,,
,,,,,,,,,,stimuli/images/PICTURE_215.png,PLENTY,5dee8dc525332652f941f79b,12/08/1996,2020-08-13_12h41.39.678,proactive2,2020.1.2,MacIntel,60,5f341be081b9052c55068110,5f352687fbeb1447cc544e76,4,,,,,,boot,,,,,,0,10,10,37,1,4,0,,,,,,,,,,,,,,,,,,,,,,,,,,,,,,,,,,,,,,,,,,,,,,,,,,,,,,,,,,,,,,,,,,,,,,,,,,,,,,,,,,,,,,,,,,,,,,,,,,,
,,,,,,,,,,stimuli/images/PICTURE_160.png,LEADER,5dee8dc525332652f941f79b,12/08/1996,2020-08-13_12h41.39.678,proactive2,2020.1.2,MacIntel,60,5f341be081b9052c55068110,5f352687fbeb1447cc544e76,4,,,,,,wheelbarrow,,,,,,0,11,11,3,1,1,0,,,,,,,,,,,,,,,,,,,,,,,,,,,,,,,,,,,,,,,,,,,,,,,,,,,,,,,,,,,,,,,,,,,,,,,,,,,,,,,,,,,,,,,,,,,,,,,,,,,
,,,,,,,,,,stimuli/images/PICTURE_491.png,WRITER,5dee8dc525332652f941f79b,12/08/1996,2020-08-13_12h41.39.678,proactive2,2020.1.2,MacIntel,60,5f341be081b9052c55068110,5f352687fbeb1447cc544e76,4,,,,,,rug,,,,,,0,12,12,57,1,6,0,,,,,,,,,,,,,,,,,,,,,,,,,,,,,,,,,,,,,,,,,,,,,,,,,,,,,,,,,,,,,,,,,,,,,,,,,,,,,,,,,,,,,,,,,,,,,,,,,,,
,,,,,,,,,,stimuli/images/PICTURE_208.png,MONTH,5dee8dc525332652f941f79b,12/08/1996,2020-08-13_12h41.39.678,proactive2,2020.1.2,MacIntel,60,5f341be081b9052c55068110,5f352687fbeb1447cc544e76,4,,,,,,microphone,,,,,,0,13,13,53,1,6,0,,,,,,,,,,,,,,,,,,,,,,,,,,,,,,,,,,,,,,,,,,,,,,,,,,,,,,,,,,,,,,,,,,,,,,,,,,,,,,,,,,,,,,,,,,,,,,,,,,,
,,,,,,,,,,stimuli/images/PICTURE_308.png,ESTATE,5dee8dc525332652f941f79b,12/08/1996,2020-08-13_12h41.39.678,proactive2,2020.1.2,MacIntel,60,5f341be081b9052c55068110,5f352687fbeb1447cc544e76,4,,,,,,dice,,,,,,0,14,14,46,1,5,0,,,,,,,,,,,,,,,,,,,,,,,,,,,,,,,,,,,,,,,,,,,,,,,,,,,,,,,,,,,,,,,,,,,,,,,,,,,,,,,,,,,,,,,,,,,,,,,,,,,
,,,,,,,,,,stimuli/images/PICTURE_380.png,DEATH,5dee8dc525332652f941f79b,12/08/1996,2020-08-13_12h41.39.678,proactive2,2020.1.2,MacIntel,60,5f341be081b9052c55068110,5f352687fbeb1447cc544e76,4,,,,,,gorilla,,,,,,0,15,15,49,1,5,0,,,,,,,,,,,,,,,,,,,,,,,,,,,,,,,,,,,,,,,,,,,,,,,,,,,,,,,,,,,,,,,,,,,,,,,,,,,,,,,,,,,,,,,,,,,,,,,,,,,
,,,,,,,,,,stimuli/images/PICTURE_177.png,CARS,5dee8dc525332652f941f79b,12/08/1996,2020-08-13_12h41.39.678,proactive2,2020.1.2,MacIntel,60,5f341be081b9052c55068110,5f352687fbeb1447cc544e76,4,,,,,,mushroom,,,,,,0,16,16,35,1,4,0,,,,,,,,,,,,,,,,,,,,,,,,,,,,,,,,,,,,,,,,,,,,,,,,,,,,,,,,,,,,,,,,,,,,,,,,,,,,,,,,,,,,,,,,,,,,,,,,,,,
,,,,,,,,,,stimuli/images/PICTURE_488.png,STYLE,5dee8dc525332652f941f79b,12/08/1996,2020-08-13_12h41.39.678,proactive2,2020.1.2,MacIntel,60,5f341be081b9052c55068110,5f352687fbeb1447cc544e76,4,,,,,,sun,,,,,,0,17,17,33,1,4,0,,,,,,,,,,,,,,,,,,,,,,,,,,,,,,,,,,,,,,,,,,,,,,,,,,,,,,,,,,,,,,,,,,,,,,,,,,,,,,,,,,,,,,,,,,,,,,,,,,,
,,,,,,,,,,stimuli/images/PICTURE_491.png,ROOF,5dee8dc525332652f941f79b,12/08/1996,2020-08-13_12h41.39.678,proactive2,2020.1.2,MacIntel,60,5f341be081b9052c55068110,5f352687fbeb1447cc544e76,4,,,,,,rug,,,,,,0,18,18,24,1,3,0,,,,,,,,,,,,,,,,,,,,,,,,,,,,,,,,,,,,,,,,,,,,,,,,,,,,,,,,,,,,,,,,,,,,,,,,,,,,,,,,,,,,,,,,,,,,,,,,,,,
,,,,,,,,,,stimuli/images/PICTURE_677.png,MILE,5dee8dc525332652f941f79b,12/08/1996,2020-08-13_12h41.39.678,proactive2,2020.1.2,MacIntel,60,5f341be081b9052c55068110,5f352687fbeb1447cc544e76,4,,,,,,map,,,,,,0,19,19,30,1,4,0,,,,,,,,,,,,,,,,,,,,,,,,,,,,,,,,,,,,,,,,,,,,,,,,,,,,,,,,,,,,,,,,,,,,,,,,,,,,,,,,,,,,,,,,,,,,,,,,,,,
,,,,,,,,,,stimuli/images/PICTURE_667.png,BATH,5dee8dc525332652f941f79b,12/08/1996,2020-08-13_12h41.39.678,proactive2,2020.1.2,MacIntel,60,5f341be081b9052c55068110,5f352687fbeb1447cc544e76,4,,,,,,daisy,,,,,,0,20,20,4,1,1,0,,,,,,,,,,,,,,,,,,,,,,,,,,,,,,,,,,,,,,,,,,,,,,,,,,,,,,,,,,,,,,,,,,,,,,,,,,,,,,,,,,,,,,,,,,,,,,,,,,,
,,,,,,,,,,stimuli/images/PICTURE_487.png,FLIGHT,5dee8dc525332652f941f79b,12/08/1996,2020-08-13_12h41.39.678,proactive2,2020.1.2,MacIntel,60,5f341be081b9052c55068110,5f352687fbeb1447cc544e76,4,,,,,,basket,,,,,,0,21,21,9,1,1,0,,,,,,,,,,,,,,,,,,,,,,,,,,,,,,,,,,,,,,,,,,,,,,,,,,,,,,,,,,,,,,,,,,,,,,,,,,,,,,,,,,,,,,,,,,,,,,,,,,,
,,,,,,,,,,stimuli/images/PICTURE_147.png,MOMENT,5dee8dc525332652f941f79b,12/08/1996,2020-08-13_12h41.39.678,proactive2,2020.1.2,MacIntel,60,5f341be081b9052c55068110,5f352687fbeb1447cc544e76,4,,,,,,hanger,,,,,,0,22,22,51,1,6,0,,,,,,,,,,,,,,,,,,,,,,,,,,,,,,,,,,,,,,,,,,,,,,,,,,,,,,,,,,,,,,,,,,,,,,,,,,,,,,,,,,,,,,,,,,,,,,,,,,,
,,,,,,,,,,stimuli/images/PICTURE_285.png,ADVICE,5dee8dc525332652f941f79b,12/08/1996,2020-08-13_12h41.39.678,proactive2,2020.1.2,MacIntel,60,5f341be081b9052c55068110,5f352687fbeb1447cc544e76,4,,,,,,carrot,,,,,,0,23,23,12,1,2,0,,,,,,,,,,,,,,,,,,,,,,,,,,,,,,,,,,,,,,,,,,,,,,,,,,,,,,,,,,,,,,,,,,,,,,,,,,,,,,,,,,,,,,,,,,,,,,,,,,,
,,,,,,,,,,stimuli/images/PICTURE_453.png,PLENTY,5dee8dc525332652f941f79b,12/08/1996,2020-08-13_12h41.39.678,proactive2,2020.1.2,MacIntel,60,5f341be081b9052c55068110,5f352687fbeb1447cc544e76,4,,,,,,scissors,,,,,,0,24,24,56,1,6,0,,,,,,,,,,,,,,,,,,,,,,,,,,,,,,,,,,,,,,,,,,,,,,,,,,,,,,,,,,,,,,,,,,,,,,,,,,,,,,,,,,,,,,,,,,,,,,,,,,,
,,,,,,,,,,stimuli/images/PICTURE_708.png,YARD,5dee8dc525332652f941f79b,12/08/1996,2020-08-13_12h41.39.678,proactive2,2020.1.2,MacIntel,60,5f341be081b9052c55068110,5f352687fbeb1447cc544e76,4,,,,,,monkey,,,,,,0,25,25,29,1,3,0,,,,,,,,,,,,,,,,,,,,,,,,,,,,,,,,,,,,,,,,,,,,,,,,,,,,,,,,,,,,,,,,,,,,,,,,,,,,,,,,,,,,,,,,,,,,,,,,,,,
,,,,,,,,,,stimuli/images/PICTURE_509.png,PHOTO,5dee8dc525332652f941f79b,12/08/1996,2020-08-13_12h41.39.678,proactive2,2020.1.2,MacIntel,60,5f341be081b9052c55068110,5f352687fbeb1447cc544e76,4,,,,,,telephone,,,,,,0,26,26,21,1,3,0,,,,,,,,,,,,,,,,,,,,,,,,,,,,,,,,,,,,,,,,,,,,,,,,,,,,,,,,,,,,,,,,,,,,,,,,,,,,,,,,,,,,,,,,,,,,,,,,,,,
,,,,,,,,,,stimuli/images/PICTURE_203.png,ARTIST,5dee8dc525332652f941f79b,12/08/1996,2020-08-13_12h41.39.678,proactive2,2020.1.2,MacIntel,60,5f341be081b9052c55068110,5f352687fbeb1447cc544e76,4,,,,,,cap,,,,,,0,27,27,26,1,3,0,,,,,,,,,,,,,,,,,,,,,,,,,,,,,,,,,,,,,,,,,,,,,,,,,,,,,,,,,,,,,,,,,,,,,,,,,,,,,,,,,,,,,,,,,,,,,,,,,,,
,,,,,,,,,,stimuli/images/PICTURE_654.png,VALLEY,5dee8dc525332652f941f79b,12/08/1996,2020-08-13_12h41.39.678,proactive2,2020.1.2,MacIntel,60,5f341be081b9052c55068110,5f352687fbeb1447cc544e76,4,,,,,,pencil,,,,,,0,28,28,1,1,1,0,,,,,,,,,,,,,,,,,,,,,,,,,,,,,,,,,,,,,,,,,,,,,,,,,,,,,,,,,,,,,,,,,,,,,,,,,,,,,,,,,,,,,,,,,,,,,,,,,,,
,,,,,,,,,,stimuli/images/PICTURE_744.png,SAKE,5dee8dc525332652f941f79b,12/08/1996,2020-08-13_12h41.39.678,proactive2,2020.1.2,MacIntel,60,5f341be081b9052c55068110,5f352687fbeb1447cc544e76,4,,,,,,ring,,,,,,0,29,29,17,1,2,0,,,,,,,,,,,,,,,,,,,,,,,,,,,,,,,,,,,,,,,,,,,,,,,,,,,,,,,,,,,,,,,,,,,,,,,,,,,,,,,,,,,,,,,,,,,,,,,,,,,
,,,,,,,,,,stimuli/images/PICTURE_469.png,LETTER,5dee8dc525332652f941f79b,12/08/1996,2020-08-13_12h41.39.678,proactive2,2020.1.2,MacIntel,60,5f341be081b9052c55068110,5f352687fbeb1447cc544e76,4,,,,,,stool,,,,,,0,30,30,42,1,5,0,,,,,,,,,,,,,,,,,,,,,,,,,,,,,,,,,,,,,,,,,,,,,,,,,,,,,,,,,,,,,,,,,,,,,,,,,,,,,,,,,,,,,,,,,,,,,,,,,,,
,,,,,,,,,,stimuli/images/PICTURE_308.png,KIND,5dee8dc525332652f941f79b,12/08/1996,2020-08-13_12h41.39.678,proactive2,2020.1.2,MacIntel,60,5f341be081b9052c55068110,5f352687fbeb1447cc544e76,4,,,,,,dice,,,,,,0,31,31,54,1,6,0,,,,,,,,,,,,,,,,,,,,,,,,,,,,,,,,,,,,,,,,,,,,,,,,,,,,,,,,,,,,,,,,,,,,,,,,,,,,,,,,,,,,,,,,,,,,,,,,,,,
,,,,,,,,,,stimuli/images/PICTURE_708.png,CLIENT,5dee8dc525332652f941f79b,12/08/1996,2020-08-13_12h41.39.678,proactive2,2020.1.2,MacIntel,60,5f341be081b9052c55068110,5f352687fbeb1447cc544e76,4,,,,,,monkey,,,,,,0,32,32,5,1,1,0,,,,,,,,,,,,,,,,,,,,,,,,,,,,,,,,,,,,,,,,,,,,,,,,,,,,,,,,,,,,,,,,,,,,,,,,,,,,,,,,,,,,,,,,,,,,,,,,,,,
,,,,,,,,,,stimuli/images/PICTURE_68.png,MILE,5dee8dc525332652f941f79b,12/08/1996,2020-08-13_12h41.39.678,proactive2,2020.1.2,MacIntel,60,5f341be081b9052c55068110,5f352687fbeb1447cc544e76,4,,,,,,candle,,,,,,0,33,33,44,1,5,0,,,,,,,,,,,,,,,,,,,,,,,,,,,,,,,,,,,,,,,,,,,,,,,,,,,,,,,,,,,,,,,,,,,,,,,,,,,,,,,,,,,,,,,,,,,,,,,,,,,
,,,,,,,,,,stimuli/images/PICTURE_692.png,MONTH,5dee8dc525332652f941f79b,12/08/1996,2020-08-13_12h41.39.678,proactive2,2020.1.2,MacIntel,60,5f341be081b9052c55068110,5f352687fbeb1447cc544e76,4,,,,,,cherry,,,,,,0,34,34,16,1,2,0,,,,,,,,,,,,,,,,,,,,,,,,,,,,,,,,,,,,,,,,,,,,,,,,,,,,,,,,,,,,,,,,,,,,,,,,,,,,,,,,,,,,,,,,,,,,,,,,,,,
,,,,,,,,,,stimuli/images/PICTURE_208.png,THING,5dee8dc525332652f941f79b,12/08/1996,2020-08-13_12h41.39.678,proactive2,2020.1.2,MacIntel,60,5f341be081b9052c55068110,5f352687fbeb1447cc544e76,4,,,,,,microphone,,,,,,0,35,35,47,1,5,0,,,,,,,,,,,,,,,,,,,,,,,,,,,,,,,,,,,,,,,,,,,,,,,,,,,,,,,,,,,,,,,,,,,,,,,,,,,,,,,,,,,,,,,,,,,,,,,,,,,
,,,,,,,,,,stimuli/images/PICTURE_469.png,ARTIST,5dee8dc525332652f941f79b,12/08/1996,2020-08-13_12h41.39.678,proactive2,2020.1.2,MacIntel,60,5f341be081b9052c55068110,5f352687fbeb1447cc544e76,4,,,,,,stool,,,,,,0,36,36,6,1,1,0,,,,,,,,,,,,,,,,,,,,,,,,,,,,,,,,,,,,,,,,,,,,,,,,,,,,,,,,,,,,,,,,,,,,,,,,,,,,,,,,,,,,,,,,,,,,,,,,,,,
,,,,,,,,,,stimuli/images/PICTURE_504.png,BODY,5dee8dc525332652f941f79b,12/08/1996,2020-08-13_12h41.39.678,proactive2,2020.1.2,MacIntel,60,5f341be081b9052c55068110,5f352687fbeb1447cc544e76,4,,,,,,wheel,,,,,,0,37,37,8,1,1,0,,,,,,,,,,,,,,,,,,,,,,,,,,,,,,,,,,,,,,,,,,,,,,,,,,,,,,,,,,,,,,,,,,,,,,,,,,,,,,,,,,,,,,,,,,,,,,,,,,,
,,,,,,,,,,stimuli/images/PICTURE_449.png,THING,5dee8dc525332652f941f79b,12/08/1996,2020-08-13_12h41.39.678,proactive2,2020.1.2,MacIntel,60,5f341be081b9052c55068110,5f352687fbeb1447cc544e76,4,,,,,,bench,,,,,,0,38,38,59,1,6,0,,,,,,,,,,,,,,,,,,,,,,,,,,,,,,,,,,,,,,,,,,,,,,,,,,,,,,,,,,,,,,,,,,,,,,,,,,,,,,,,,,,,,,,,,,,,,,,,,,,
,,,,,,,,,,stimuli/images/PICTURE_151.png,GIRL,5dee8dc525332652f941f79b,12/08/1996,2020-08-13_12h41.39.678,proactive2,2020.1.2,MacIntel,60,5f341be081b9052c55068110,5f352687fbeb1447cc544e76,4,,,,,,tray,,,,,,0,39,39,19,1,2,0,,,,,,,,,,,,,,,,,,,,,,,,,,,,,,,,,,,,,,,,,,,,,,,,,,,,,,,,,,,,,,,,,,,,,,,,,,,,,,,,,,,,,,,,,,,,,,,,,,,
,,,,,,,,,,stimuli/images/PICTURE_123.png,ADVICE,5dee8dc525332652f941f79b,12/08/1996,2020-08-13_12h41.39.678,proactive2,2020.1.2,MacIntel,60,5f341be081b9052c55068110,5f352687fbeb1447cc544e76,4,,,,,,dart,,,,,,0,40,40,50,1,6,0,,,,,,,,,,,,,,,,,,,,,,,,,,,,,,,,,,,,,,,,,,,,,,,,,,,,,,,,,,,,,,,,,,,,,,,,,,,,,,,,,,,,,,,,,,,,,,,,,,,
,,,,,,,,,,stimuli/images/PICTURE_688.png,WOMEN,5dee8dc525332652f941f79b,12/08/1996,2020-08-13_12h41.39.678,proactive2,2020.1.2,MacIntel,60,5f341be081b9052c55068110,5f352687fbeb1447cc544e76,4,,,,,,runner,,,,,,0,41,41,14,1,2,0,,,,,,,,,,,,,,,,,,,,,,,,,,,,,,,,,,,,,,,,,,,,,,,,,,,,,,,,,,,,,,,,,,,,,,,,,,,,,,,,,,,,,,,,,,,,,,,,,,,
,,,,,,,,,,stimuli/images/PICTURE_667.png,PLENTY,5dee8dc525332652f941f79b,12/08/1996,2020-08-13_12h41.39.678,proactive2,2020.1.2,MacIntel,60,5f341be081b9052c55068110,5f352687fbeb1447cc544e76,4,,,,,,daisy,,,,,,0,42,42,41,1,5,0,,,,,,,,,,,,,,,,,,,,,,,,,,,,,,,,,,,,,,,,,,,,,,,,,,,,,,,,,,,,,,,,,,,,,,,,,,,,,,,,,,,,,,,,,,,,,,,,,,,
,,,,,,,,,,stimuli/images/PICTURE_233.png,WOMEN,5dee8dc525332652f941f79b,12/08/1996,2020-08-13_12h41.39.678,proactive2,2020.1.2,MacIntel,60,5f341be081b9052c55068110,5f352687fbeb1447cc544e76,4,,,,,,salt,,,,,,0,43,43,38,1,4,0,,,,,,,,,,,,,,,,,,,,,,,,,,,,,,,,,,,,,,,,,,,,,,,,,,,,,,,,,,,,,,,,,,,,,,,,,,,,,,,,,,,,,,,,,,,,,,,,,,,
,,,,,,,,,,stimuli/images/PICTURE_688.png,CASINO,5dee8dc525332652f941f79b,12/08/1996,2020-08-13_12h41.39.678,proactive2,2020.1.2,MacIntel,60,5f341be081b9052c55068110,5f352687fbeb1447cc544e76,4,,,,,,runner,,,,,,0,44,44,2,1,1,0,,,,,,,,,,,,,,,,,,,,,,,,,,,,,,,,,,,,,,,,,,,,,,,,,,,,,,,,,,,,,,,,,,,,,,,,,,,,,,,,,,,,,,,,,,,,,,,,,,,
,,,,,,,,,,stimuli/images/PICTURE_744.png,SYSTEM,5dee8dc525332652f941f79b,12/08/1996,2020-08-13_12h41.39.678,proactive2,2020.1.2,MacIntel,60,5f341be081b9052c55068110,5f352687fbeb1447cc544e76,4,,,,,,ring,,,,,,0,45,45,43,1,5,0,,,,,,,,,,,,,,,,,,,,,,,,,,,,,,,,,,,,,,,,,,,,,,,,,,,,,,,,,,,,,,,,,,,,,,,,,,,,,,,,,,,,,,,,,,,,,,,,,,,
,,,,,,,,,,stimuli/images/PICTURE_453.png,DUDE,5dee8dc525332652f941f79b,12/08/1996,2020-08-13_12h41.39.678,proactive2,2020.1.2,MacIntel,60,5f341be081b9052c55068110,5f352687fbeb1447cc544e76,4,,,,,,scissors,,,,,,0,46,46,27,1,3,0,,,,,,,,,,,,,,,,,,,,,,,,,,,,,,,,,,,,,,,,,,,,,,,,,,,,,,,,,,,,,,,,,,,,,,,,,,,,,,,,,,,,,,,,,,,,,,,,,,,
,,,,,,,,,,stimuli/images/PICTURE_255.png,AREA,5dee8dc525332652f941f79b,12/08/1996,2020-08-13_12h41.39.678,proactive2,2020.1.2,MacIntel,60,5f341be081b9052c55068110,5f352687fbeb1447cc544e76,4,,,,,,shovel,,,,,,0,47,47,22,1,3,0,,,,,,,,,,,,,,,,,,,,,,,,,,,,,,,,,,,,,,,,,,,,,,,,,,,,,,,,,,,,,,,,,,,,,,,,,,,,,,,,,,,,,,,,,,,,,,,,,,,
,,,,,,,,,,stimuli/images/PICTURE_708.png,PENNY,5dee8dc525332652f941f79b,12/08/1996,2020-08-13_12h41.39.678,proactive2,2020.1.2,MacIntel,60,5f341be081b9052c55068110,5f352687fbeb1447cc544e76,4,,,,,,monkey,,,,,,0,48,48,31,1,4,0,,,,,,,,,,,,,,,,,,,,,,,,,,,,,,,,,,,,,,,,,,,,,,,,,,,,,,,,,,,,,,,,,,,,,,,,,,,,,,,,,,,,,,,,,,,,,,,,,,,
,,,,,,,,,,stimuli/images/PICTURE_675.png,WEAPON,5dee8dc525332652f941f79b,12/08/1996,2020-08-13_12h41.39.678,proactive2,2020.1.2,MacIntel,60,5f341be081b9052c55068110,5f352687fbeb1447cc544e76,4,,,,,,windmill,,,,,,0,49,49,32,1,4,0,,,,,,,,,,,,,,,,,,,,,,,,,,,,,,,,,,,,,,,,,,,,,,,,,,,,,,,,,,,,,,,,,,,,,,,,,,,,,,,,,,,,,,,,,,,,,,,,,,,
,,,,,,,,,,stimuli/images/PICTURE_339.png,PLENTY,5dee8dc525332652f941f79b,12/08/1996,2020-08-13_12h41.39.678,proactive2,2020.1.2,MacIntel,60,5f341be081b9052c55068110,5f352687fbeb1447cc544e76,4,,,,,,backpack,,,,,,0,50,50,0,1,1,0,,,,,,,,,,,,,,,,,,,,,,,,,,,,,,,,,,,,,,,,,,,,,,,,,,,,,,,,,,,,,,,,,,,,,,,,,,,,,,,,,,,,,,,,,,,,,,,,,,,
,,,,,,,,,,stimuli/images/PICTURE_311.png,BEAUTY,5dee8dc525332652f941f79b,12/08/1996,2020-08-13_12h41.39.678,proactive2,2020.1.2,MacIntel,60,5f341be081b9052c55068110,5f352687fbeb1447cc544e76,4,,,,,,razor,,,,,,0,51,51,13,1,2,0,,,,,,,,,,,,,,,,,,,,,,,,,,,,,,,,,,,,,,,,,,,,,,,,,,,,,,,,,,,,,,,,,,,,,,,,,,,,,,,,,,,,,,,,,,,,,,,,,,,
,,,,,,,,,,stimuli/images/PICTURE_314.png,SAKE,5dee8dc525332652f941f79b,12/08/1996,2020-08-13_12h41.39.678,proactive2,2020.1.2,MacIntel,60,5f341be081b9052c55068110,5f352687fbeb1447cc544e76,4,,,,,,perfume,,,,,,0,52,52,7,1,1,0,,,,,,,,,,,,,,,,,,,,,,,,,,,,,,,,,,,,,,,,,,,,,,,,,,,,,,,,,,,,,,,,,,,,,,,,,,,,,,,,,,,,,,,,,,,,,,,,,,,
,,,,,,,,,,stimuli/images/PICTURE_467.png,DEMON,5dee8dc525332652f941f79b,12/08/1996,2020-08-13_12h41.39.678,proactive2,2020.1.2,MacIntel,60,5f341be081b9052c55068110,5f352687fbeb1447cc544e76,4,,,,,,peg,,,,,,0,53,53,23,1,3,0,,,,,,,,,,,,,,,,,,,,,,,,,,,,,,,,,,,,,,,,,,,,,,,,,,,,,,,,,,,,,,,,,,,,,,,,,,,,,,,,,,,,,,,,,,,,,,,,,,,
,,,,,,,,,,stimuli/images/PICTURE_160.png,FEET,5dee8dc525332652f941f79b,12/08/1996,2020-08-13_12h41.39.678,proactive2,2020.1.2,MacIntel,60,5f341be081b9052c55068110,5f352687fbeb1447cc544e76,4,,,,,,wheelbarrow,,,,,,0,54,54,58,1,6,0,,,,,,,,,,,,,,,,,,,,,,,,,,,,,,,,,,,,,,,,,,,,,,,,,,,,,,,,,,,,,,,,,,,,,,,,,,,,,,,,,,,,,,,,,,,,,,,,,,,
,,,,,,,,,,stimuli/images/PICTURE_123.png,ADVICE,5dee8dc525332652f941f79b,12/08/1996,2020-08-13_12h41.39.678,proactive2,2020.1.2,MacIntel,60,5f341be081b9052c55068110,5f352687fbeb1447cc544e76,4,,,,,,dart,,,,,,0,55,55,40,1,5,0,,,,,,,,,,,,,,,,,,,,,,,,,,,,,,,,,,,,,,,,,,,,,,,,,,,,,,,,,,,,,,,,,,,,,,,,,,,,,,,,,,,,,,,,,,,,,,,,,,,
,,,,,,,,,,stimuli/images/PICTURE_248.png,DOZEN,5dee8dc525332652f941f79b,12/08/1996,2020-08-13_12h41.39.678,proactive2,2020.1.2,MacIntel,60,5f341be081b9052c55068110,5f352687fbeb1447cc544e76,4,,,,,,cart,,,,,,0,56,56,39,1,4,0,,,,,,,,,,,,,,,,,,,,,,,,,,,,,,,,,,,,,,,,,,,,,,,,,,,,,,,,,,,,,,,,,,,,,,,,,,,,,,,,,,,,,,,,,,,,,,,,,,,
,,,,,,,,,,stimuli/images/PICTURE_470.png,CASINO,5dee8dc525332652f941f79b,12/08/1996,2020-08-13_12h41.39.678,proactive2,2020.1.2,MacIntel,60,5f341be081b9052c55068110,5f352687fbeb1447cc544e76,4,,,,,,motorbike,,,,,,0,57,57,36,1,4,0,,,,,,,,,,,,,,,,,,,,,,,,,,,,,,,,,,,,,,,,,,,,,,,,,,,,,,,,,,,,,,,,,,,,,,,,,,,,,,,,,,,,,,,,,,,,,,,,,,,
,,,,,,,,,,stimuli/images/PICTURE_208.png,LOTS,5dee8dc525332652f941f79b,12/08/1996,2020-08-13_12h41.39.678,proactive2,2020.1.2,MacIntel,60,5f341be081b9052c55068110,5f352687fbeb1447cc544e76,4,,,,,,microphone,,,,,,0,58,58,10,1,2,0,,,,,,,,,,,,,,,,,,,,,,,,,,,,,,,,,,,,,,,,,,,,,,,,,,,,,,,,,,,,,,,,,,,,,,,,,,,,,,,,,,,,,,,,,,,,,,,,,,,
,,?,0.001,0,,,,,,stimuli/images/PICTURE_314.png,SAKE,5dee8dc525332652f941f79b,12/08/1996,2020-08-13_12h41.39.678,proactive2,2020.1.2,MacIntel,60,5f341be081b9052c55068110,5f352687fbeb1447cc544e76,4,,,,,,perfume,,,,,,,,,,,1,0,0,0,0,7,1,,,,,,,,,,,,,,,,,,,,,,,,,,,,,,,,,,,,,,,,,,,,,,,,,,,,,,,,,,,,,,,,,,,,,,,,,,,,,,,,,,,,,,,,,,,,,,
,,?,0.001,0,,,,,,stimuli/images/PICTURE_160.png,FEET,5dee8dc525332652f941f79b,12/08/1996,2020-08-13_12h41.39.678,proactive2,2020.1.2,MacIntel,60,5f341be081b9052c55068110,5f352687fbeb1447cc544e76,4,,,,,,wheelbarrow,,,,,,,,,,,6,0,0,1,1,58,1,,,,,,,,,,,,,,,,,,,,,,,,,,,,,,,,,,,,,,,,,,,,,,,,,,,,,,,,,,,,,,,,,,,,,,,,,,,,,,,,,,,,,,,,,,,,,,
,,WOMEN,3.757,0,,,,,,stimuli/images/PICTURE_177.png,CARS,5dee8dc525332652f941f79b,12/08/1996,2020-08-13_12h41.39.678,proactive2,2020.1.2,MacIntel,60,5f341be081b9052c55068110,5f352687fbeb1447cc544e76,4,,,,,,mushroom,,,,,,,,,,,4,0,0,2,2,35,1,,,,,,,,,,,,,,,,,,,,,,,,,,,,,,,,,,,,,,,,,,,,,,,,,,,,,,,,,,,,,,,,,,,,,,,,,,,,,,,,,,,,,,,,,,,,,,
,,?,0.002,0,,,,,,stimuli/images/PICTURE_491.png,WRITER,5dee8dc525332652f941f79b,12/08/1996,2020-08-13_12h41.39.678,proactive2,2020.1.2,MacIntel,60,5f341be081b9052c55068110,5f352687fbeb1447cc544e76,4,,,,,,rug,,,,,,,,,,,6,0,0,3,3,57,1,,,,,,,,,,,,,,,,,,,,,,,,,,,,,,,,,,,,,,,,,,,,,,,,,,,,,,,,,,,,,,,,,,,,,,,,,,,,,,,,,,,,,,,,,,,,,,
,,?,0.001,0,,,,,,stimuli/images/PICTURE_380.png,PHOTO,5dee8dc525332652f941f79b,12/08/1996,2020-08-13_12h41.39.678,proactive2,2020.1.2,MacIntel,60,5f341be081b9052c55068110,5f352687fbeb1447cc544e76,4,,,,,,gorilla,,,,,,,,,,,6,0,0,4,4,52,1,,,,,,,,,,,,,,,,,,,,,,,,,,,,,,,,,,,,,,,,,,,,,,,,,,,,,,,,,,,,,,,,,,,,,,,,,,,,,,,,,,,,,,,,,,,,,,
,,DOZEN,3.48,1,,,,,,stimuli/images/PICTURE_248.png,DOZEN,5dee8dc525332652f941f79b,12/08/1996,2020-08-13_12h41.39.678,proactive2,2020.1.2,MacIntel,60,5f341be081b9052c55068110,5f352687fbeb1447cc544e76,4,,,,,,cart,,,,,,,,,,,4,0,0,5,5,39,1,,,,,,,,,,,,,,,,,,,,,,,,,,,,,,,,,,,,,,,,,,,,,,,,,,,,,,,,,,,,,,,,,,,,,,,,,,,,,,,,,,,,,,,,,,,,,,
,,?,0.001,0,,,,,,stimuli/images/PICTURE_356.png,DANGER,5dee8dc525332652f941f79b,12/08/1996,2020-08-13_12h41.39.678,proactive2,2020.1.2,MacIntel,60,5f341be081b9052c55068110,5f352687fbeb1447cc544e76,4,,,,,,pawn,,,,,,,,,,,6,0,0,6,6,55,1,,,,,,,,,,,,,,,,,,,,,,,,,,,,,,,,,,,,,,,,,,,,,,,,,,,,,,,,,,,,,,,,,,,,,,,,,,,,,,,,,,,,,,,,,,,,,,
,,?,0.001,0,,,,,,stimuli/images/PICTURE_255.png,AREA,5dee8dc525332652f941f79b,12/08/1996,2020-08-13_12h41.39.678,proactive2,2020.1.2,MacIntel,60,5f341be081b9052c55068110,5f352687fbeb1447cc544e76,4,,,,,,shovel,,,,,,,,,,,3,0,0,7,7,22,1,,,,,,,,,,,,,,,,,,,,,,,,,,,,,,,,,,,,,,,,,,,,,,,,,,,,,,,,,,,,,,,,,,,,,,,,,,,,,,,,,,,,,,,,,,,,,,
,,?,0.001,0,,,,,,stimuli/images/PICTURE_708.png,YARD,5dee8dc525332652f941f79b,12/08/1996,2020-08-13_12h41.39.678,proactive2,2020.1.2,MacIntel,60,5f341be081b9052c55068110,5f352687fbeb1447cc544e76,4,,,,,,monkey,,,,,,,,,,,3,0,0,8,8,29,1,,,,,,,,,,,,,,,,,,,,,,,,,,,,,,,,,,,,,,,,,,,,,,,,,,,,,,,,,,,,,,,,,,,,,,,,,,,,,,,,,,,,,,,,,,,,,,
,,?,0.001,0,,,,,,stimuli/images/PICTURE_449.png,THING,5dee8dc525332652f941f79b,12/08/1996,2020-08-13_12h41.39.678,proactive2,2020.1.2,MacIntel,60,5f341be081b9052c55068110,5f352687fbeb1447cc544e76,4,,,,,,bench,,,,,,,,,,,6,0,0,9,9,59,1,,,,,,,,,,,,,,,,,,,,,,,,,,,,,,,,,,,,,,,,,,,,,,,,,,,,,,,,,,,,,,,,,,,,,,,,,,,,,,,,,,,,,,,,,,,,,,
,,?,0.001,0,,,,,,stimuli/images/PICTURE_308.png,KIND,5dee8dc525332652f941f79b,12/08/1996,2020-08-13_12h41.39.678,proactive2,2020.1.2,MacIntel,60,5f341be081b9052c55068110,5f352687fbeb1447cc544e76,4,,,,,,dice,,,,,,,,,,,6,0,0,10,10,54,1,,,,,,,,,,,,,,,,,,,,,,,,,,,,,,,,,,,,,,,,,,,,,,,,,,,,,,,,,,,,,,,,,,,,,,,,,,,,,,,,,,,,,,,,,,,,,,
,,MILE,2.807,1,,,,,,stimuli/images/PICTURE_677.png,MILE,5dee8dc525332652f941f79b,12/08/1996,2020-08-13_12h41.39.678,proactive2,2020.1.2,MacIntel,60,5f341be081b9052c55068110,5f352687fbeb1447cc544e76,4,,,,,,map,,,,,,,,,,,4,0,0,11,11,30,1,,,,,,,,,,,,,,,,,,,,,,,,,,,,,,,,,,,,,,,,,,,,,,,,,,,,,,,,,,,,,,,,,,,,,,,,,,,,,,,,,,,,,,,,,,,,,,
,,?,0.001,0,,,,,,stimuli/images/PICTURE_504.png,BODY,5dee8dc525332652f941f79b,12/08/1996,2020-08-13_12h41.39.678,proactive2,2020.1.2,MacIntel,60,5f341be081b9052c55068110,5f352687fbeb1447cc544e76,4,,,,,,wheel,,,,,,,,,,,1,0,0,12,12,8,1,,,,,,,,,,,,,,,,,,,,,,,,,,,,,,,,,,,,,,,,,,,,,,,,,,,,,,,,,,,,,,,,,,,,,,,,,,,,,,,,,,,,,,,,,,,,,,
,,?,0.001,0,,,,,,stimuli/images/PICTURE_708.png,CLIENT,5dee8dc525332652f941f79b,12/08/1996,2020-08-13_12h41.39.678,proactive2,2020.1.2,MacIntel,60,5f341be081b9052c55068110,5f352687fbeb1447cc544e76,4,,,,,,monkey,,,,,,,,,,,1,0,0,13,13,5,1,,,,,,,,,,,,,,,,,,,,,,,,,,,,,,,,,,,,,,,,,,,,,,,,,,,,,,,,,,,,,,,,,,,,,,,,,,,,,,,,,,,,,,,,,,,,,,
,,?,0.001,0,,,,,,stimuli/images/PICTURE_32.png,JUNGLE,5dee8dc525332652f941f79b,12/08/1996,2020-08-13_12h41.39.678,proactive2,2020.1.2,MacIntel,60,5f341be081b9052c55068110,5f352687fbeb1447cc544e76,4,,,,,,crown,,,,,,,,,,,5,0,0,14,14,45,1,,,,,,,,,,,,,,,,,,,,,,,,,,,,,,,,,,,,,,,,,,,,,,,,,,,,,,,,,,,,,,,,,,,,,,,,,,,,,,,,,,,,,,,,,,,,,,
,,?,0,0,,,,,,stimuli/images/PICTURE_509.png,PHOTO,5dee8dc525332652f941f79b,12/08/1996,2020-08-13_12h41.39.678,proactive2,2020.1.2,MacIntel,60,5f341be081b9052c55068110,5f352687fbeb1447cc544e76,4,,,,,,telephone,,,,,,,,,,,3,0,0,15,15,21,1,,,,,,,,,,,,,,,,,,,,,,,,,,,,,,,,,,,,,,,,,,,,,,,,,,,,,,,,,,,,,,,,,,,,,,,,,,,,,,,,,,,,,,,,,,,,,,
,,?,0.001,0,,,,,,stimuli/images/PICTURE_469.png,ARTIST,5dee8dc525332652f941f79b,12/08/1996,2020-08-13_12h41.39.678,proactive2,2020.1.2,MacIntel,60,5f341be081b9052c55068110,5f352687fbeb1447cc544e76,4,,,,,,stool,,,,,,,,,,,1,0,0,16,16,6,1,,,,,,,,,,,,,,,,,,,,,,,,,,,,,,,,,,,,,,,,,,,,,,,,,,,,,,,,,,,,,,,,,,,,,,,,,,,,,,,,,,,,,,,,,,,,,,
,,?,0.001,0,,,,,,stimuli/images/PICTURE_491.png,ROOF,5dee8dc525332652f941f79b,12/08/1996,2020-08-13_12h41.39.678,proactive2,2020.1.2,MacIntel,60,5f341be081b9052c55068110,5f352687fbeb1447cc544e76,4,,,,,,rug,,,,,,,,,,,3,0,0,17,17,24,1,,,,,,,,,,,,,,,,,,,,,,,,,,,,,,,,,,,,,,,,,,,,,,,,,,,,,,,,,,,,,,,,,,,,,,,,,,,,,,,,,,,,,,,,,,,,,,
,,?,0.001,0,,,,,,stimuli/images/PICTURE_453.png,DUDE,5dee8dc525332652f941f79b,12/08/1996,2020-08-13_12h41.39.678,proactive2,2020.1.2,MacIntel,60,5f341be081b9052c55068110,5f352687fbeb1447cc544e76,4,,,,,,scissors,,,,,,,,,,,3,0,0,18,18,27,1,,,,,,,,,,,,,,,,,,,,,,,,,,,,,,,,,,,,,,,,,,,,,,,,,,,,,,,,,,,,,,,,,,,,,,,,,,,,,,,,,,,,,,,,,,,,,,
,,?,0.001,0,,,,,,stimuli/images/PICTURE_453.png,PLENTY,5dee8dc525332652f941f79b,12/08/1996,2020-08-13_12h41.39.678,proactive2,2020.1.2,MacIntel,60,5f341be081b9052c55068110,5f352687fbeb1447cc544e76,4,,,,,,scissors,,,,,,,,,,,6,0,0,19,19,56,1,,,,,,,,,,,,,,,,,,,,,,,,,,,,,,,,,,,,,,,,,,,,,,,,,,,,,,,,,,,,,,,,,,,,,,,,,,,,,,,,,,,,,,,,,,,,,,
,,?,0,0,,,,,,stimuli/images/PICTURE_203.png,ARTIST,5dee8dc525332652f941f79b,12/08/1996,2020-08-13_12h41.39.678,proactive2,2020.1.2,MacIntel,60,5f341be081b9052c55068110,5f352687fbeb1447cc544e76,4,,,,,,cap,,,,,,,,,,,3,0,0,20,20,26,1,,,,,,,,,,,,,,,,,,,,,,,,,,,,,,,,,,,,,,,,,,,,,,,,,,,,,,,,,,,,,,,,,,,,,,,,,,,,,,,,,,,,,,,,,,,,,,
,,?,0.001,0,,,,,,stimuli/images/PICTURE_208.png,THING,5dee8dc525332652f941f79b,12/08/1996,2020-08-13_12h41.39.678,proactive2,2020.1.2,MacIntel,60,5f341be081b9052c55068110,5f352687fbeb1447cc544e76,4,,,,,,microphone,,,,,,,,,,,5,0,0,21,21,47,1,,,,,,,,,,,,,,,,,,,,,,,,,,,,,,,,,,,,,,,,,,,,,,,,,,,,,,,,,,,,,,,,,,,,,,,,,,,,,,,,,,,,,,,,,,,,,,
,,STARS,3.218,0,,,,,,stimuli/images/PICTURE_488.png,STYLE,5dee8dc525332652f941f79b,12/08/1996,2020-08-13_12h41.39.678,proactive2,2020.1.2,MacIntel,60,5f341be081b9052c55068110,5f352687fbeb1447cc544e76,4,,,,,,sun,,,,,,,,,,,4,0,0,22,22,33,1,,,,,,,,,,,,,,,,,,,,,,,,,,,,,,,,,,,,,,,,,,,,,,,,,,,,,,,,,,,,,,,,,,,,,,,,,,,,,,,,,,,,,,,,,,,,,,
,,?,0.001,0,,,,,,stimuli/images/PICTURE_85.png,THING,5dee8dc525332652f941f79b,12/08/1996,2020-08-13_12h41.39.678,proactive2,2020.1.2,MacIntel,60,5f341be081b9052c55068110,5f352687fbeb1447cc544e76,4,,,,,,diamond,,,,,,,,,,,2,0,0,23,23,15,1,,,,,,,,,,,,,,,,,,,,,,,,,,,,,,,,,,,,,,,,,,,,,,,,,,,,,,,,,,,,,,,,,,,,,,,,,,,,,,,,,,,,,,,,,,,,,,
,,?,0.001,0,,,,,,stimuli/images/PICTURE_688.png,CASINO,5dee8dc525332652f941f79b,12/08/1996,2020-08-13_12h41.39.678,proactive2,2020.1.2,MacIntel,60,5f341be081b9052c55068110,5f352687fbeb1447cc544e76,4,,,,,,runner,,,,,,,,,,,1,0,0,24,24,2,1,,,,,,,,,,,,,,,,,,,,,,,,,,,,,,,,,,,,,,,,,,,,,,,,,,,,,,,,,,,,,,,,,,,,,,,,,,,,,,,,,,,,,,,,,,,,,,
,,?,0,0,,,,,,stimuli/images/PICTURE_151.png,GIRL,5dee8dc525332652f941f79b,12/08/1996,2020-08-13_12h41.39.678,proactive2,2020.1.2,MacIntel,60,5f341be081b9052c55068110,5f352687fbeb1447cc544e76,4,,,,,,tray,,,,,,,,,,,2,0,0,25,25,19,1,,,,,,,,,,,,,,,,,,,,,,,,,,,,,,,,,,,,,,,,,,,,,,,,,,,,,,,,,,,,,,,,,,,,,,,,,,,,,,,,,,,,,,,,,,,,,,
,,?,0.001,0,,,,,,stimuli/images/PICTURE_233.png,IDEAS,5dee8dc525332652f941f79b,12/08/1996,2020-08-13_12h41.39.678,proactive2,2020.1.2,MacIntel,60,5f341be081b9052c55068110,5f352687fbeb1447cc544e76,4,,,,,,salt,,,,,,,,,,,3,0,0,26,26,28,1,,,,,,,,,,,,,,,,,,,,,,,,,,,,,,,,,,,,,,,,,,,,,,,,,,,,,,,,,,,,,,,,,,,,,,,,,,,,,,,,,,,,,,,,,,,,,,
,,?,0,0,,,,,,stimuli/images/PICTURE_123.png,ADVICE,5dee8dc525332652f941f79b,12/08/1996,2020-08-13_12h41.39.678,proactive2,2020.1.2,MacIntel,60,5f341be081b9052c55068110,5f352687fbeb1447cc544e76,4,,,,,,dart,,,,,,,,,,,6,0,0,27,27,50,1,,,,,,,,,,,,,,,,,,,,,,,,,,,,,,,,,,,,,,,,,,,,,,,,,,,,,,,,,,,,,,,,,,,,,,,,,,,,,,,,,,,,,,,,,,,,,,
,,?,0.001,0,,,,,,stimuli/images/PICTURE_744.png,SAKE,5dee8dc525332652f941f79b,12/08/1996,2020-08-13_12h41.39.678,proactive2,2020.1.2,MacIntel,60,5f341be081b9052c55068110,5f352687fbeb1447cc544e76,4,,,,,,ring,,,,,,,,,,,2,0,0,28,28,17,1,,,,,,,,,,,,,,,,,,,,,,,,,,,,,,,,,,,,,,,,,,,,,,,,,,,,,,,,,,,,,,,,,,,,,,,,,,,,,,,,,,,,,,,,,,,,,,
,,?,0.001,0,,,,,,stimuli/images/PICTURE_308.png,ESTATE,5dee8dc525332652f941f79b,12/08/1996,2020-08-13_12h41.39.678,proactive2,2020.1.2,MacIntel,60,5f341be081b9052c55068110,5f352687fbeb1447cc544e76,4,,,,,,dice,,,,,,,,,,,5,0,0,29,29,46,1,,,,,,,,,,,,,,,,,,,,,,,,,,,,,,,,,,,,,,,,,,,,,,,,,,,,,,,,,,,,,,,,,,,,,,,,,,,,,,,,,,,,,,,,,,,,,,
,,?,0,0,,,,,,stimuli/images/PICTURE_147.png,MOMENT,5dee8dc525332652f941f79b,12/08/1996,2020-08-13_12h41.39.678,proactive2,2020.1.2,MacIntel,60,5f341be081b9052c55068110,5f352687fbeb1447cc544e76,4,,,,,,hanger,,,,,,,,,,,6,0,0,30,30,51,1,,,,,,,,,,,,,,,,,,,,,,,,,,,,,,,,,,,,,,,,,,,,,,,,,,,,,,,,,,,,,,,,,,,,,,,,,,,,,,,,,,,,,,,,,,,,,,
,,?,0.001,0,,,,,,stimuli/images/PICTURE_469.png,LETTER,5dee8dc525332652f941f79b,12/08/1996,2020-08-13_12h41.39.678,proactive2,2020.1.2,MacIntel,60,5f341be081b9052c55068110,5f352687fbeb1447cc544e76,4,,,,,,stool,,,,,,,,,,,5,0,0,31,31,42,1,,,,,,,,,,,,,,,,,,,,,,,,,,,,,,,,,,,,,,,,,,,,,,,,,,,,,,,,,,,,,,,,,,,,,,,,,,,,,,,,,,,,,,,,,,,,,,
,,?,0,0,,,,,,stimuli/images/PICTURE_692.png,MONTH,5dee8dc525332652f941f79b,12/08/1996,2020-08-13_12h41.39.678,proactive2,2020.1.2,MacIntel,60,5f341be081b9052c55068110,5f352687fbeb1447cc544e76,4,,,,,,cherry,,,,,,,,,,,2,0,0,32,32,16,1,,,,,,,,,,,,,,,,,,,,,,,,,,,,,,,,,,,,,,,,,,,,,,,,,,,,,,,,,,,,,,,,,,,,,,,,,,,,,,,,,,,,,,,,,,,,,,
,,?,0,0,,,,,,stimuli/images/PICTURE_160.png,LEADER,5dee8dc525332652f941f79b,12/08/1996,2020-08-13_12h41.39.678,proactive2,2020.1.2,MacIntel,60,5f341be081b9052c55068110,5f352687fbeb1447cc544e76,4,,,,,,wheelbarrow,,,,,,,,,,,1,0,0,33,33,3,1,,,,,,,,,,,,,,,,,,,,,,,,,,,,,,,,,,,,,,,,,,,,,,,,,,,,,,,,,,,,,,,,,,,,,,,,,,,,,,,,,,,,,,,,,,,,,,
,,?,0.001,0,,,,,,stimuli/images/PICTURE_744.png,SYSTEM,5dee8dc525332652f941f79b,12/08/1996,2020-08-13_12h41.39.678,proactive2,2020.1.2,MacIntel,60,5f341be081b9052c55068110,5f352687fbeb1447cc544e76,4,,,,,,ring,,,,,,,,,,,5,0,0,34,34,43,1,,,,,,,,,,,,,,,,,,,,,,,,,,,,,,,,,,,,,,,,,,,,,,,,,,,,,,,,,,,,,,,,,,,,,,,,,,,,,,,,,,,,,,,,,,,,,,
,,PENNY,5.633,0,,,,,,stimuli/images/PICTURE_470.png,CASINO,5dee8dc525332652f941f79b,12/08/1996,2020-08-13_12h41.39.678,proactive2,2020.1.2,MacIntel,60,5f341be081b9052c55068110,5f352687fbeb1447cc544e76,4,,,,,,motorbike,,,,,,,,,,,4,0,0,35,35,36,1,,,,,,,,,,,,,,,,,,,,,,,,,,,,,,,,,,,,,,,,,,,,,,,,,,,,,,,,,,,,,,,,,,,,,,,,,,,,,,,,,,,,,,,,,,,,,,
,,PENNY,4.084,1,,,,,,stimuli/images/PICTURE_708.png,PENNY,5dee8dc525332652f941f79b,12/08/1996,2020-08-13_12h41.39.678,proactive2,2020.1.2,MacIntel,60,5f341be081b9052c55068110,5f352687fbeb1447cc544e76,4,,,,,,monkey,,,,,,,,,,,4,0,0,36,36,31,1,,,,,,,,,,,,,,,,,,,,,,,,,,,,,,,,,,,,,,,,,,,,,,,,,,,,,,,,,,,,,,,,,,,,,,,,,,,,,,,,,,,,,,,,,,,,,,
,,CARS,3.652,0,,,,,,stimuli/images/PICTURE_233.png,WOMEN,5dee8dc525332652f941f79b,12/08/1996,2020-08-13_12h41.39.678,proactive2,2020.1.2,MacIntel,60,5f341be081b9052c55068110,5f352687fbeb1447cc544e76,4,,,,,,salt,,,,,,,,,,,4,0,0,37,37,38,1,,,,,,,,,,,,,,,,,,,,,,,,,,,,,,,,,,,,,,,,,,,,,,,,,,,,,,,,,,,,,,,,,,,,,,,,,,,,,,,,,,,,,,,,,,,,,,
,,?,0.001,0,,,,,,stimuli/images/PICTURE_667.png,BATH,5dee8dc525332652f941f79b,12/08/1996,2020-08-13_12h41.39.678,proactive2,2020.1.2,MacIntel,60,5f341be081b9052c55068110,5f352687fbeb1447cc544e76,4,,,,,,daisy,,,,,,,,,,,1,0,0,38,38,4,1,,,,,,,,,,,,,,,,,,,,,,,,,,,,,,,,,,,,,,,,,,,,,,,,,,,,,,,,,,,,,,,,,,,,,,,,,,,,,,,,,,,,,,,,,,,,,,
,,?,0.001,0,,,,,,stimuli/images/PICTURE_95.png,STYLE,5dee8dc525332652f941f79b,12/08/1996,2020-08-13_12h41.39.678,proactive2,2020.1.2,MacIntel,60,5f341be081b9052c55068110,5f352687fbeb1447cc544e76,4,,,,,,suitcase,,,,,,,,,,,3,0,0,39,39,25,1,,,,,,,,,,,,,,,,,,,,,,,,,,,,,,,,,,,,,,,,,,,,,,,,,,,,,,,,,,,,,,,,,,,,,,,,,,,,,,,,,,,,,,,,,,,,,,
,,?,6.331,0,,,,,,stimuli/images/PICTURE_311.png,FRIEND,5dee8dc525332652f941f79b,12/08/1996,2020-08-13_12h41.39.678,proactive2,2020.1.2,MacIntel,60,5f341be081b9052c55068110,5f352687fbeb1447cc544e76,4,,,,,,razor,,,,,,,,,,,4,0,0,40,40,34,1,,,,,,,,,,,,,,,,,,,,,,,,,,,,,,,,,,,,,,,,,,,,,,,,,,,,,,,,,,,,,,,,,,,,,,,,,,,,,,,,,,,,,,,,,,,,,,
,,?,0.001,0,,,,,,stimuli/images/PICTURE_380.png,DEATH,5dee8dc525332652f941f79b,12/08/1996,2020-08-13_12h41.39.678,proactive2,2020.1.2,MacIntel,60,5f341be081b9052c55068110,5f352687fbeb1447cc544e76,4,,,,,,gorilla,,,,,,,,,,,5,0,0,41,41,49,1,,,,,,,,,,,,,,,,,,,,,,,,,,,,,,,,,,,,,,,,,,,,,,,,,,,,,,,,,,,,,,,,,,,,,,,,,,,,,,,,,,,,,,,,,,,,,,
,,DOZEN,6.617,0,,,,,,stimuli/images/PICTURE_215.png,PLENTY,5dee8dc525332652f941f79b,12/08/1996,2020-08-13_12h41.39.678,proactive2,2020.1.2,MacIntel,60,5f341be081b9052c55068110,5f352687fbeb1447cc544e76,4,,,,,,boot,,,,,,,,,,,4,0,0,42,42,37,1,,,,,,,,,,,,,,,,,,,,,,,,,,,,,,,,,,,,,,,,,,,,,,,,,,,,,,,,,,,,,,,,,,,,,,,,,,,,,,,,,,,,,,,,,,,,,,
,,?,0.001,0,,,,,,stimuli/images/PICTURE_667.png,PLENTY,5dee8dc525332652f941f79b,12/08/1996,2020-08-13_12h41.39.678,proactive2,2020.1.2,MacIntel,60,5f341be081b9052c55068110,5f352687fbeb1447cc544e76,4,,,,,,daisy,,,,,,,,,,,5,0,0,43,43,41,1,,,,,,,,,,,,,,,,,,,,,,,,,,,,,,,,,,,,,,,,,,,,,,,,,,,,,,,,,,,,,,,,,,,,,,,,,,,,,,,,,,,,,,,,,,,,,,
,,?,0.001,0,,,,,,stimuli/images/PICTURE_68.png,MILE,5dee8dc525332652f941f79b,12/08/1996,2020-08-13_12h41.39.678,proactive2,2020.1.2,MacIntel,60,5f341be081b9052c55068110,5f352687fbeb1447cc544e76,4,,,,,,candle,,,,,,,,,,,5,0,0,44,44,44,1,,,,,,,,,,,,,,,,,,,,,,,,,,,,,,,,,,,,,,,,,,,,,,,,,,,,,,,,,,,,,,,,,,,,,,,,,,,,,,,,,,,,,,,,,,,,,,
,,?,0.001,0,,,,,,stimuli/images/PICTURE_327.png,BEAUTY,5dee8dc525332652f941f79b,12/08/1996,2020-08-13_12h41.39.678,proactive2,2020.1.2,MacIntel,60,5f341be081b9052c55068110,5f352687fbeb1447cc544e76,4,,,,,,helmet,,,,,,,,,,,5,0,0,45,45,48,1,,,,,,,,,,,,,,,,,,,,,,,,,,,,,,,,,,,,,,,,,,,,,,,,,,,,,,,,,,,,,,,,,,,,,,,,,,,,,,,,,,,,,,,,,,,,,,
,,?,0,0,,,,,,stimuli/images/PICTURE_302.png,FAMILY,5dee8dc525332652f941f79b,12/08/1996,2020-08-13_12h41.39.678,proactive2,2020.1.2,MacIntel,60,5f341be081b9052c55068110,5f352687fbeb1447cc544e76,4,,,,,,taxi,,,,,,,,,,,2,0,0,46,46,18,1,,,,,,,,,,,,,,,,,,,,,,,,,,,,,,,,,,,,,,,,,,,,,,,,,,,,,,,,,,,,,,,,,,,,,,,,,,,,,,,,,,,,,,,,,,,,,,
,,?,0.001,0,,,,,,stimuli/images/PICTURE_348.png,SPEECH,5dee8dc525332652f941f79b,12/08/1996,2020-08-13_12h41.39.678,proactive2,2020.1.2,MacIntel,60,5f341be081b9052c55068110,5f352687fbeb1447cc544e76,4,,,,,,pepper,,,,,,,,,,,3,0,0,47,47,20,1,,,,,,,,,,,,,,,,,,,,,,,,,,,,,,,,,,,,,,,,,,,,,,,,,,,,,,,,,,,,,,,,,,,,,,,,,,,,,,,,,,,,,,,,,,,,,,
,,?,0,0,,,,,,stimuli/images/PICTURE_285.png,ADVICE,5dee8dc525332652f941f79b,12/08/1996,2020-08-13_12h41.39.678,proactive2,2020.1.2,MacIntel,60,5f341be081b9052c55068110,5f352687fbeb1447cc544e76,4,,,,,,carrot,,,,,,,,,,,2,0,0,48,48,12,1,,,,,,,,,,,,,,,,,,,,,,,,,,,,,,,,,,,,,,,,,,,,,,,,,,,,,,,,,,,,,,,,,,,,,,,,,,,,,,,,,,,,,,,,,,,,,,
,,?,0.001,0,,,,,,stimuli/images/PICTURE_339.png,PLENTY,5dee8dc525332652f941f79b,12/08/1996,2020-08-13_12h41.39.678,proactive2,2020.1.2,MacIntel,60,5f341be081b9052c55068110,5f352687fbeb1447cc544e76,4,,,,,,backpack,,,,,,,,,,,1,0,0,49,49,0,1,,,,,,,,,,,,,,,,,,,,,,,,,,,,,,,,,,,,,,,,,,,,,,,,,,,,,,,,,,,,,,,,,,,,,,,,,,,,,,,,,,,,,,,,,,,,,,
,,?,0,0,,,,,,stimuli/images/PICTURE_654.png,VALLEY,5dee8dc525332652f941f79b,12/08/1996,2020-08-13_12h41.39.678,proactive2,2020.1.2,MacIntel,60,5f341be081b9052c55068110,5f352687fbeb1447cc544e76,4,,,,,,pencil,,,,,,,,,,,1,0,0,50,50,1,1,,,,,,,,,,,,,,,,,,,,,,,,,,,,,,,,,,,,,,,,,,,,,,,,,,,,,,,,,,,,,,,,,,,,,,,,,,,,,,,,,,,,,,,,,,,,,,
,,?,0.001,0,,,,,,stimuli/images/PICTURE_487.png,FLIGHT,5dee8dc525332652f941f79b,12/08/1996,2020-08-13_12h41.39.678,proactive2,2020.1.2,MacIntel,60,5f341be081b9052c55068110,5f352687fbeb1447cc544e76,4,,,,,,basket,,,,,,,,,,,1,0,0,51,51,9,1,,,,,,,,,,,,,,,,,,,,,,,,,,,,,,,,,,,,,,,,,,,,,,,,,,,,,,,,,,,,,,,,,,,,,,,,,,,,,,,,,,,,,,,,,,,,,,
,,?,0,0,,,,,,stimuli/images/PICTURE_311.png,BEAUTY,5dee8dc525332652f941f79b,12/08/1996,2020-08-13_12h41.39.678,proactive2,2020.1.2,MacIntel,60,5f341be081b9052c55068110,5f352687fbeb1447cc544e76,4,,,,,,razor,,,,,,,,,,,2,0,0,52,52,13,1,,,,,,,,,,,,,,,,,,,,,,,,,,,,,,,,,,,,,,,,,,,,,,,,,,,,,,,,,,,,,,,,,,,,,,,,,,,,,,,,,,,,,,,,,,,,,,
,,?,4.169,0,,,,,,stimuli/images/PICTURE_675.png,WEAPON,5dee8dc525332652f941f79b,12/08/1996,2020-08-13_12h41.39.678,proactive2,2020.1.2,MacIntel,60,5f341be081b9052c55068110,5f352687fbeb1447cc544e76,4,,,,,,windmill,,,,,,,,,,,4,0,0,53,53,32,1,,,,,,,,,,,,,,,,,,,,,,,,,,,,,,,,,,,,,,,,,,,,,,,,,,,,,,,,,,,,,,,,,,,,,,,,,,,,,,,,,,,,,,,,,,,,,,
,,?,0.001,0,,,,,,stimuli/images/PICTURE_208.png,MONTH,5dee8dc525332652f941f79b,12/08/1996,2020-08-13_12h41.39.678,proactive2,2020.1.2,MacIntel,60,5f341be081b9052c55068110,5f352687fbeb1447cc544e76,4,,,,,,microphone,,,,,,,,,,,6,0,0,54,54,53,1,,,,,,,,,,,,,,,,,,,,,,,,,,,,,,,,,,,,,,,,,,,,,,,,,,,,,,,,,,,,,,,,,,,,,,,,,,,,,,,,,,,,,,,,,,,,,,
,,?,0.001,0,,,,,,stimuli/images/PICTURE_208.png,LOTS,5dee8dc525332652f941f79b,12/08/1996,2020-08-13_12h41.39.678,proactive2,2020.1.2,MacIntel,60,5f341be081b9052c55068110,5f352687fbeb1447cc544e76,4,,,,,,microphone,,,,,,,,,,,2,0,0,55,55,10,1,,,,,,,,,,,,,,,,,,,,,,,,,,,,,,,,,,,,,,,,,,,,,,,,,,,,,,,,,,,,,,,,,,,,,,,,,,,,,,,,,,,,,,,,,,,,,,
,,?,0.001,0,,,,,,stimuli/images/PICTURE_314.png,GODS,5dee8dc525332652f941f79b,12/08/1996,2020-08-13_12h41.39.678,proactive2,2020.1.2,MacIntel,60,5f341be081b9052c55068110,5f352687fbeb1447cc544e76,4,,,,,,perfume,,,,,,,,,,,2,0,0,56,56,11,1,,,,,,,,,,,,,,,,,,,,,,,,,,,,,,,,,,,,,,,,,,,,,,,,,,,,,,,,,,,,,,,,,,,,,,,,,,,,,,,,,,,,,,,,,,,,,,
,,?,0,0,,,,,,stimuli/images/PICTURE_467.png,DEMON,5dee8dc525332652f941f79b,12/08/1996,2020-08-13_12h41.39.678,proactive2,2020.1.2,MacIntel,60,5f341be081b9052c55068110,5f352687fbeb1447cc544e76,4,,,,,,peg,,,,,,,,,,,3,0,0,57,57,23,1,,,,,,,,,,,,,,,,,,,,,,,,,,,,,,,,,,,,,,,,,,,,,,,,,,,,,,,,,,,,,,,,,,,,,,,,,,,,,,,,,,,,,,,,,,,,,,
,,?,0.001,0,,,,,,stimuli/images/PICTURE_123.png,ADVICE,5dee8dc525332652f941f79b,12/08/1996,2020-08-13_12h41.39.678,proactive2,2020.1.2,MacIntel,60,5f341be081b9052c55068110,5f352687fbeb1447cc544e76,4,,,,,,dart,,,,,,,,,,,5,0,0,58,58,40,1,,,,,,,,,,,,,,,,,,,,,,,,,,,,,,,,,,,,,,,,,,,,,,,,,,,,,,,,,,,,,,,,,,,,,,,,,,,,,,,,,,,,,,,,,,,,,,
,,?,0,0,,,,,,stimuli/images/PICTURE_688.png,WOMEN,5dee8dc525332652f941f79b,12/08/1996,2020-08-13_12h41.39.678,proactive2,2020.1.2,MacIntel,60,5f341be081b9052c55068110,5f352687fbeb1447cc544e76,4,,,,,,runner,,,,,,,,,,,2,0,0,59,59,14,1,,,,,,,,,,,,,,,,,,,,,,,,,,,,,,,,,,,,,,,,,,,,,,,,,,,,,,,,,,,,,,,,,,,,,,,,,,,,,,,,,,,,,,,,,,,,,,
,,,,,,,,,,,,5dee8dc525332652f941f79b,12/08/1996,2020-08-13_12h41.39.678,proactive2,2020.1.2,MacIntel,60,5f341be081b9052c55068110,5f352687fbeb1447cc544e76,4,,,,,,,,,,,,,,,,,,,,,,,,0,1,1,0,1,stimuli/learn-block1.csv,,,,,,,,,,,,,,,,,,,,,,,,,,,,,,,,,,,,,,,,,,,,,,,,,,,,,,,,,,,,,,,,,,,,,,,,,,,,,,,,,,,,,,,,
,,,,,,,,,,stimuli/images/PICTURE_403.png,RIVER,5dee8dc525332652f941f79b,12/08/1996,2020-08-13_12h41.39.678,proactive2,2020.1.2,MacIntel,60,5f341be081b9052c55068110,5f352687fbeb1447cc544e76,4,,,,,,cathedral,,,,,,0,0,0,40,1,5,1,,,,,,,,,,,,,,,,,,,,,,,,,,,,,,,,,,,,,,,,,,,,,,,,,,,,,,,,,,,,,,,,,,,,,,,,,,,,,,,,,,,,,,,,,,,,,,,,,,,
,,,,,,,,,,stimuli/images/PICTURE_32.png,PILLS,5dee8dc525332652f941f79b,12/08/1996,2020-08-13_12h41.39.678,proactive2,2020.1.2,MacIntel,60,5f341be081b9052c55068110,5f352687fbeb1447cc544e76,4,,,,,,crown,,,,,,0,1,1,18,1,2,1,,,,,,,,,,,,,,,,,,,,,,,,,,,,,,,,,,,,,,,,,,,,,,,,,,,,,,,,,,,,,,,,,,,,,,,,,,,,,,,,,,,,,,,,,,,,,,,,,,,
,,,,,,,,,,stimuli/images/PICTURE_2.png,FLIGHT,5dee8dc525332652f941f79b,12/08/1996,2020-08-13_12h41.39.678,proactive2,2020.1.2,MacIntel,60,5f341be081b9052c55068110,5f352687fbeb1447cc544e76,4,,,,,,tyre,,,,,,0,2,2,15,1,2,1,,,,,,,,,,,,,,,,,,,,,,,,,,,,,,,,,,,,,,,,,,,,,,,,,,,,,,,,,,,,,,,,,,,,,,,,,,,,,,,,,,,,,,,,,,,,,,,,,,,
,,,,,,,,,,stimuli/images/PICTURE_68.png,MILE,5dee8dc525332652f941f79b,12/08/1996,2020-08-13_12h41.39.678,proactive2,2020.1.2,MacIntel,60,5f341be081b9052c55068110,5f352687fbeb1447cc544e76,4,,,,,,candle,,,,,,0,3,3,51,1,6,1,,,,,,,,,,,,,,,,,,,,,,,,,,,,,,,,,,,,,,,,,,,,,,,,,,,,,,,,,,,,,,,,,,,,,,,,,,,,,,,,,,,,,,,,,,,,,,,,,,,
,,,,,,,,,,stimuli/images/PICTURE_383.png,SERIES,5dee8dc525332652f941f79b,12/08/1996,2020-08-13_12h41.39.678,proactive2,2020.1.2,MacIntel,60,5f341be081b9052c55068110,5f352687fbeb1447cc544e76,4,,,,,,coin,,,,,,0,4,4,46,1,5,1,,,,,,,,,,,,,,,,,,,,,,,,,,,,,,,,,,,,,,,,,,,,,,,,,,,,,,,,,,,,,,,,,,,,,,,,,,,,,,,,,,,,,,,,,,,,,,,,,,,
,,,,,,,,,,stimuli/images/PICTURE_297.png,RIVER,5dee8dc525332652f941f79b,12/08/1996,2020-08-13_12h41.39.678,proactive2,2020.1.2,MacIntel,60,5f341be081b9052c55068110,5f352687fbeb1447cc544e76,4,,,,,,aeroplane,,,,,,0,5,5,39,1,4,1,,,,,,,,,,,,,,,,,,,,,,,,,,,,,,,,,,,,,,,,,,,,,,,,,,,,,,,,,,,,,,,,,,,,,,,,,,,,,,,,,,,,,,,,,,,,,,,,,,,
,,,,,,,,,,stimuli/images/PICTURE_147.png,YEAR,5dee8dc525332652f941f79b,12/08/1996,2020-08-13_12h41.39.678,proactive2,2020.1.2,MacIntel,60,5f341be081b9052c55068110,5f352687fbeb1447cc544e76,4,,,,,,hanger,,,,,,0,6,6,21,1,3,1,,,,,,,,,,,,,,,,,,,,,,,,,,,,,,,,,,,,,,,,,,,,,,,,,,,,,,,,,,,,,,,,,,,,,,,,,,,,,,,,,,,,,,,,,,,,,,,,,,,
,,,,,,,,,,stimuli/images/PICTURE_285.png,LIFE,5dee8dc525332652f941f79b,12/08/1996,2020-08-13_12h41.39.678,proactive2,2020.1.2,MacIntel,60,5f341be081b9052c55068110,5f352687fbeb1447cc544e76,4,,,,,,carrot,,,,,,0,7,7,33,1,4,1,,,,,,,,,,,,,,,,,,,,,,,,,,,,,,,,,,,,,,,,,,,,,,,,,,,,,,,,,,,,,,,,,,,,,,,,,,,,,,,,,,,,,,,,,,,,,,,,,,,
,,,,,,,,,,stimuli/images/PICTURE_327.png,SERIES,5dee8dc525332652f941f79b,12/08/1996,2020-08-13_12h41.39.678,proactive2,2020.1.2,MacIntel,60,5f341be081b9052c55068110,5f352687fbeb1447cc544e76,4,,,,,,helmet,,,,,,0,8,8,3,1,1,1,,,,,,,,,,,,,,,,,,,,,,,,,,,,,,,,,,,,,,,,,,,,,,,,,,,,,,,,,,,,,,,,,,,,,,,,,,,,,,,,,,,,,,,,,,,,,,,,,,,
,,,,,,,,,,stimuli/images/PICTURE_147.png,WOMEN,5dee8dc525332652f941f79b,12/08/1996,2020-08-13_12h41.39.678,proactive2,2020.1.2,MacIntel,60,5f341be081b9052c55068110,5f352687fbeb1447cc544e76,4,,,,,,hanger,,,,,,0,9,9,7,1,1,1,,,,,,,,,,,,,,,,,,,,,,,,,,,,,,,,,,,,,,,,,,,,,,,,,,,,,,,,,,,,,,,,,,,,,,,,,,,,,,,,,,,,,,,,,,,,,,,,,,,
,,,,,,,,,,stimuli/images/PICTURE_95.png,HONEY,5dee8dc525332652f941f79b,12/08/1996,2020-08-13_12h41.39.678,proactive2,2020.1.2,MacIntel,60,5f341be081b9052c55068110,5f352687fbeb1447cc544e76,4,,,,,,suitcase,,,,,,0,10,10,44,1,5,1,,,,,,,,,,,,,,,,,,,,,,,,,,,,,,,,,,,,,,,,,,,,,,,,,,,,,,,,,,,,,,,,,,,,,,,,,,,,,,,,,,,,,,,,,,,,,,,,,,,
,,,,,,,,,,stimuli/images/PICTURE_380.png,CANDY,5dee8dc525332652f941f79b,12/08/1996,2020-08-13_12h41.39.678,proactive2,2020.1.2,MacIntel,60,5f341be081b9052c55068110,5f352687fbeb1447cc544e76,4,,,,,,gorilla,,,,,,0,11,11,0,1,1,1,,,,,,,,,,,,,,,,,,,,,,,,,,,,,,,,,,,,,,,,,,,,,,,,,,,,,,,,,,,,,,,,,,,,,,,,,,,,,,,,,,,,,,,,,,,,,,,,,,,
,,,,,,,,,,stimuli/images/PICTURE_667.png,RIVER,5dee8dc525332652f941f79b,12/08/1996,2020-08-13_12h41.39.678,proactive2,2020.1.2,MacIntel,60,5f341be081b9052c55068110,5f352687fbeb1447cc544e76,4,,,,,,daisy,,,,,,0,12,12,10,1,2,1,,,,,,,,,,,,,,,,,,,,,,,,,,,,,,,,,,,,,,,,,,,,,,,,,,,,,,,,,,,,,,,,,,,,,,,,,,,,,,,,,,,,,,,,,,,,,,,,,,,
,,,,,,,,,,stimuli/images/PICTURE_750.png,HOTEL,5dee8dc525332652f941f79b,12/08/1996,2020-08-13_12h41.39.678,proactive2,2020.1.2,MacIntel,60,5f341be081b9052c55068110,5f352687fbeb1447cc544e76,4,,,,,,kettle,,,,,,0,13,13,27,1,3,1,,,,,,,,,,,,,,,,,,,,,,,,,,,,,,,,,,,,,,,,,,,,,,,,,,,,,,,,,,,,,,,,,,,,,,,,,,,,,,,,,,,,,,,,,,,,,,,,,,,
,,,,,,,,,,stimuli/images/PICTURE_403.png,TOILET,5dee8dc525332652f941f79b,12/08/1996,2020-08-13_12h41.39.678,proactive2,2020.1.2,MacIntel,60,5f341be081b9052c55068110,5f352687fbeb1447cc544e76,4,,,,,,cathedral,,,,,,0,14,14,25,1,3,1,,,,,,,,,,,,,,,,,,,,,,,,,,,,,,,,,,,,,,,,,,,,,,,,,,,,,,,,,,,,,,,,,,,,,,,,,,,,,,,,,,,,,,,,,,,,,,,,,,,
,,,,,,,,,,stimuli/images/PICTURE_405.png,PLENTY,5dee8dc525332652f941f79b,12/08/1996,2020-08-13_12h41.39.678,proactive2,2020.1.2,MacIntel,60,5f341be081b9052c55068110,5f352687fbeb1447cc544e76,4,,,,,,anchor,,,,,,0,15,15,23,1,3,1,,,,,,,,,,,,,,,,,,,,,,,,,,,,,,,,,,,,,,,,,,,,,,,,,,,,,,,,,,,,,,,,,,,,,,,,,,,,,,,,,,,,,,,,,,,,,,,,,,,
,,,,,,,,,,stimuli/images/PICTURE_467.png,POLICY,5dee8dc525332652f941f79b,12/08/1996,2020-08-13_12h41.39.678,proactive2,2020.1.2,MacIntel,60,5f341be081b9052c55068110,5f352687fbeb1447cc544e76,4,,,,,,peg,,,,,,0,16,16,53,1,6,1,,,,,,,,,,,,,,,,,,,,,,,,,,,,,,,,,,,,,,,,,,,,,,,,,,,,,,,,,,,,,,,,,,,,,,,,,,,,,,,,,,,,,,,,,,,,,,,,,,,
,,,,,,,,,,stimuli/images/PICTURE_108.png,POLICY,5dee8dc525332652f941f79b,12/08/1996,2020-08-13_12h41.39.678,proactive2,2020.1.2,MacIntel,60,5f341be081b9052c55068110,5f352687fbeb1447cc544e76,4,,,,,,calendar,,,,,,0,17,17,22,1,3,1,,,,,,,,,,,,,,,,,,,,,,,,,,,,,,,,,,,,,,,,,,,,,,,,,,,,,,,,,,,,,,,,,,,,,,,,,,,,,,,,,,,,,,,,,,,,,,,,,,,
,,,,,,,,,,stimuli/images/PICTURE_487.png,GIRL,5dee8dc525332652f941f79b,12/08/1996,2020-08-13_12h41.39.678,proactive2,2020.1.2,MacIntel,60,5f341be081b9052c55068110,5f352687fbeb1447cc544e76,4,,,,,,basket,,,,,,0,18,18,45,1,5,1,,,,,,,,,,,,,,,,,,,,,,,,,,,,,,,,,,,,,,,,,,,,,,,,,,,,,,,,,,,,,,,,,,,,,,,,,,,,,,,,,,,,,,,,,,,,,,,,,,,
,,,,,,,,,,stimuli/images/PICTURE_327.png,CASINO,5dee8dc525332652f941f79b,12/08/1996,2020-08-13_12h41.39.678,proactive2,2020.1.2,MacIntel,60,5f341be081b9052c55068110,5f352687fbeb1447cc544e76,4,,,,,,helmet,,,,,,0,19,19,20,1,3,1,,,,,,,,,,,,,,,,,,,,,,,,,,,,,,,,,,,,,,,,,,,,,,,,,,,,,,,,,,,,,,,,,,,,,,,,,,,,,,,,,,,,,,,,,,,,,,,,,,,
,,,,,,,,,,stimuli/images/PICTURE_504.png,ARTIST,5dee8dc525332652f941f79b,12/08/1996,2020-08-13_12h41.39.678,proactive2,2020.1.2,MacIntel,60,5f341be081b9052c55068110,5f352687fbeb1447cc544e76,4,,,,,,wheel,,,,,,0,20,20,49,1,5,1,,,,,,,,,,,,,,,,,,,,,,,,,,,,,,,,,,,,,,,,,,,,,,,,,,,,,,,,,,,,,,,,,,,,,,,,,,,,,,,,,,,,,,,,,,,,,,,,,,,
,,,,,,,,,,stimuli/images/PICTURE_57.png,MOMENT,5dee8dc525332652f941f79b,12/08/1996,2020-08-13_12h41.39.678,proactive2,2020.1.2,MacIntel,60,5f341be081b9052c55068110,5f352687fbeb1447cc544e76,4,,,,,,stamp,,,,,,0,21,21,37,1,4,1,,,,,,,,,,,,,,,,,,,,,,,,,,,,,,,,,,,,,,,,,,,,,,,,,,,,,,,,,,,,,,,,,,,,,,,,,,,,,,,,,,,,,,,,,,,,,,,,,,,
,,,,,,,,,,stimuli/images/PICTURE_449.png,DUDE,5dee8dc525332652f941f79b,12/08/1996,2020-08-13_12h41.39.678,proactive2,2020.1.2,MacIntel,60,5f341be081b9052c55068110,5f352687fbeb1447cc544e76,4,,,,,,bench,,,,,,0,22,22,17,1,2,1,,,,,,,,,,,,,,,,,,,,,,,,,,,,,,,,,,,,,,,,,,,,,,,,,,,,,,,,,,,,,,,,,,,,,,,,,,,,,,,,,,,,,,,,,,,,,,,,,,,
,,,,,,,,,,stimuli/images/PICTURE_744.png,WEAPON,5dee8dc525332652f941f79b,12/08/1996,2020-08-13_12h41.39.678,proactive2,2020.1.2,MacIntel,60,5f341be081b9052c55068110,5f352687fbeb1447cc544e76,4,,,,,,ring,,,,,,0,23,23,50,1,6,1,,,,,,,,,,,,,,,,,,,,,,,,,,,,,,,,,,,,,,,,,,,,,,,,,,,,,,,,,,,,,,,,,,,,,,,,,,,,,,,,,,,,,,,,,,,,,,,,,,,
,,,,,,,,,,stimuli/images/PICTURE_33.png,FRIEND,5dee8dc525332652f941f79b,12/08/1996,2020-08-13_12h41.39.678,proactive2,2020.1.2,MacIntel,60,5f341be081b9052c55068110,5f352687fbeb1447cc544e76,4,,,,,,frame,,,,,,0,24,24,8,1,1,1,,,,,,,,,,,,,,,,,,,,,,,,,,,,,,,,,,,,,,,,,,,,,,,,,,,,,,,,,,,,,,,,,,,,,,,,,,,,,,,,,,,,,,,,,,,,,,,,,,,
,,,,,,,,,,stimuli/images/PICTURE_654.png,MONTH,5dee8dc525332652f941f79b,12/08/1996,2020-08-13_12h41.39.678,proactive2,2020.1.2,MacIntel,60,5f341be081b9052c55068110,5f352687fbeb1447cc544e76,4,,,,,,pencil,,,,,,0,25,25,29,1,3,1,,,,,,,,,,,,,,,,,,,,,,,,,,,,,,,,,,,,,,,,,,,,,,,,,,,,,,,,,,,,,,,,,,,,,,,,,,,,,,,,,,,,,,,,,,,,,,,,,,,
,,,,,,,,,,stimuli/images/PICTURE_655.png,TOILET,5dee8dc525332652f941f79b,12/08/1996,2020-08-13_12h41.39.678,proactive2,2020.1.2,MacIntel,60,5f341be081b9052c55068110,5f352687fbeb1447cc544e76,4,,,,,,megaphone,,,,,,0,26,26,12,1,2,1,,,,,,,,,,,,,,,,,,,,,,,,,,,,,,,,,,,,,,,,,,,,,,,,,,,,,,,,,,,,,,,,,,,,,,,,,,,,,,,,,,,,,,,,,,,,,,,,,,,
,,,,,,,,,,stimuli/images/PICTURE_380.png,HONEY,5dee8dc525332652f941f79b,12/08/1996,2020-08-13_12h41.39.678,proactive2,2020.1.2,MacIntel,60,5f341be081b9052c55068110,5f352687fbeb1447cc544e76,4,,,,,,gorilla,,,,,,0,27,27,19,1,2,1,,,,,,,,,,,,,,,,,,,,,,,,,,,,,,,,,,,,,,,,,,,,,,,,,,,,,,,,,,,,,,,,,,,,,,,,,,,,,,,,,,,,,,,,,,,,,,,,,,,
,,,,,,,,,,stimuli/images/PICTURE_95.png,BOYS,5dee8dc525332652f941f79b,12/08/1996,2020-08-13_12h41.39.678,proactive2,2020.1.2,MacIntel,60,5f341be081b9052c55068110,5f352687fbeb1447cc544e76,4,,,,,,suitcase,,,,,,0,28,28,1,1,1,1,,,,,,,,,,,,,,,,,,,,,,,,,,,,,,,,,,,,,,,,,,,,,,,,,,,,,,,,,,,,,,,,,,,,,,,,,,,,,,,,,,,,,,,,,,,,,,,,,,,
,,,,,,,,,,stimuli/images/PICTURE_504.png,COPS,5dee8dc525332652f941f79b,12/08/1996,2020-08-13_12h41.39.678,proactive2,2020.1.2,MacIntel,60,5f341be081b9052c55068110,5f352687fbeb1447cc544e76,4,,,,,,wheel,,,,,,0,29,29,52,1,6,1,,,,,,,,,,,,,,,,,,,,,,,,,,,,,,,,,,,,,,,,,,,,,,,,,,,,,,,,,,,,,,,,,,,,,,,,,,,,,,,,,,,,,,,,,,,,,,,,,,,
,,,,,,,,,,stimuli/images/PICTURE_203.png,NIGHT,5dee8dc525332652f941f79b,12/08/1996,2020-08-13_12h41.39.678,proactive2,2020.1.2,MacIntel,60,5f341be081b9052c55068110,5f352687fbeb1447cc544e76,4,,,,,,cap,,,,,,0,30,30,2,1,1,1,,,,,,,,,,,,,,,,,,,,,,,,,,,,,,,,,,,,,,,,,,,,,,,,,,,,,,,,,,,,,,,,,,,,,,,,,,,,,,,,,,,,,,,,,,,,,,,,,,,
,,,,,,,,,,stimuli/images/PICTURE_677.png,APPLE,5dee8dc525332652f941f79b,12/08/1996,2020-08-13_12h41.39.678,proactive2,2020.1.2,MacIntel,60,5f341be081b9052c55068110,5f352687fbeb1447cc544e76,4,,,,,,map,,,,,,0,31,31,43,1,5,1,,,,,,,,,,,,,,,,,,,,,,,,,,,,,,,,,,,,,,,,,,,,,,,,,,,,,,,,,,,,,,,,,,,,,,,,,,,,,,,,,,,,,,,,,,,,,,,,,,,
,,,,,,,,,,stimuli/images/PICTURE_708.png,RECORD,5dee8dc525332652f941f79b,12/08/1996,2020-08-13_12h41.39.678,proactive2,2020.1.2,MacIntel,60,5f341be081b9052c55068110,5f352687fbeb1447cc544e76,4,,,,,,monkey,,,,,,0,32,32,58,1,6,1,,,,,,,,,,,,,,,,,,,,,,,,,,,,,,,,,,,,,,,,,,,,,,,,,,,,,,,,,,,,,,,,,,,,,,,,,,,,,,,,,,,,,,,,,,,,,,,,,,,
,,,,,,,,,,stimuli/images/PICTURE_685.png,PENNY,5dee8dc525332652f941f79b,12/08/1996,2020-08-13_12h41.39.678,proactive2,2020.1.2,MacIntel,60,5f341be081b9052c55068110,5f352687fbeb1447cc544e76,4,,,,,,goose,,,,,,0,33,33,4,1,1,1,,,,,,,,,,,,,,,,,,,,,,,,,,,,,,,,,,,,,,,,,,,,,,,,,,,,,,,,,,,,,,,,,,,,,,,,,,,,,,,,,,,,,,,,,,,,,,,,,,,
,,,,,,,,,,stimuli/images/PICTURE_177.png,WRITER,5dee8dc525332652f941f79b,12/08/1996,2020-08-13_12h41.39.678,proactive2,2020.1.2,MacIntel,60,5f341be081b9052c55068110,5f352687fbeb1447cc544e76,4,,,,,,mushroom,,,,,,0,34,34,41,1,5,1,,,,,,,,,,,,,,,,,,,,,,,,,,,,,,,,,,,,,,,,,,,,,,,,,,,,,,,,,,,,,,,,,,,,,,,,,,,,,,,,,,,,,,,,,,,,,,,,,,,
,,,,,,,,,,stimuli/images/PICTURE_85.png,NATION,5dee8dc525332652f941f79b,12/08/1996,2020-08-13_12h41.39.678,proactive2,2020.1.2,MacIntel,60,5f341be081b9052c55068110,5f352687fbeb1447cc544e76,4,,,,,,diamond,,,,,,0,35,35,5,1,1,1,,,,,,,,,,,,,,,,,,,,,,,,,,,,,,,,,,,,,,,,,,,,,,,,,,,,,,,,,,,,,,,,,,,,,,,,,,,,,,,,,,,,,,,,,,,,,,,,,,,
,,,,,,,,,,stimuli/images/PICTURE_340.png,LETTER,5dee8dc525332652f941f79b,12/08/1996,2020-08-13_12h41.39.678,proactive2,2020.1.2,MacIntel,60,5f341be081b9052c55068110,5f352687fbeb1447cc544e76,4,,,,,,mirror,,,,,,0,36,36,24,1,3,1,,,,,,,,,,,,,,,,,,,,,,,,,,,,,,,,,,,,,,,,,,,,,,,,,,,,,,,,,,,,,,,,,,,,,,,,,,,,,,,,,,,,,,,,,,,,,,,,,,,
,,,,,,,,,,stimuli/images/PICTURE_85.png,TOILET,5dee8dc525332652f941f79b,12/08/1996,2020-08-13_12h41.39.678,proactive2,2020.1.2,MacIntel,60,5f341be081b9052c55068110,5f352687fbeb1447cc544e76,4,,,,,,diamond,,,,,,0,37,37,48,1,5,1,,,,,,,,,,,,,,,,,,,,,,,,,,,,,,,,,,,,,,,,,,,,,,,,,,,,,,,,,,,,,,,,,,,,,,,,,,,,,,,,,,,,,,,,,,,,,,,,,,,
,,,,,,,,,,stimuli/images/PICTURE_491.png,GLASS,5dee8dc525332652f941f79b,12/08/1996,2020-08-13_12h41.39.678,proactive2,2020.1.2,MacIntel,60,5f341be081b9052c55068110,5f352687fbeb1447cc544e76,4,,,,,,rug,,,,,,0,38,38,14,1,2,1,,,,,,,,,,,,,,,,,,,,,,,,,,,,,,,,,,,,,,,,,,,,,,,,,,,,,,,,,,,,,,,,,,,,,,,,,,,,,,,,,,,,,,,,,,,,,,,,,,,
,,,,,,,,,,stimuli/images/PICTURE_383.png,WRITER,5dee8dc525332652f941f79b,12/08/1996,2020-08-13_12h41.39.678,proactive2,2020.1.2,MacIntel,60,5f341be081b9052c55068110,5f352687fbeb1447cc544e76,4,,,,,,coin,,,,,,0,39,39,28,1,3,1,,,,,,,,,,,,,,,,,,,,,,,,,,,,,,,,,,,,,,,,,,,,,,,,,,,,,,,,,,,,,,,,,,,,,,,,,,,,,,,,,,,,,,,,,,,,,,,,,,,
,,,,,,,,,,stimuli/images/PICTURE_675.png,SALE,5dee8dc525332652f941f79b,12/08/1996,2020-08-13_12h41.39.678,proactive2,2020.1.2,MacIntel,60,5f341be081b9052c55068110,5f352687fbeb1447cc544e76,4,,,,,,windmill,,,,,,0,40,40,47,1,5,1,,,,,,,,,,,,,,,,,,,,,,,,,,,,,,,,,,,,,,,,,,,,,,,,,,,,,,,,,,,,,,,,,,,,,,,,,,,,,,,,,,,,,,,,,,,,,,,,,,,
,,,,,,,,,,stimuli/images/PICTURE_296.png,LOTS,5dee8dc525332652f941f79b,12/08/1996,2020-08-13_12h41.39.678,proactive2,2020.1.2,MacIntel,60,5f341be081b9052c55068110,5f352687fbeb1447cc544e76,4,,,,,,bolt,,,,,,0,41,41,9,1,1,1,,,,,,,,,,,,,,,,,,,,,,,,,,,,,,,,,,,,,,,,,,,,,,,,,,,,,,,,,,,,,,,,,,,,,,,,,,,,,,,,,,,,,,,,,,,,,,,,,,,
,,,,,,,,,,stimuli/images/PICTURE_208.png,SYSTEM,5dee8dc525332652f941f79b,12/08/1996,2020-08-13_12h41.39.678,proactive2,2020.1.2,MacIntel,60,5f341be081b9052c55068110,5f352687fbeb1447cc544e76,4,,,,,,microphone,,,,,,0,42,42,32,1,4,1,,,,,,,,,,,,,,,,,,,,,,,,,,,,,,,,,,,,,,,,,,,,,,,,,,,,,,,,,,,,,,,,,,,,,,,,,,,,,,,,,,,,,,,,,,,,,,,,,,,
,,,,,,,,,,stimuli/images/PICTURE_403.png,WRITER,5dee8dc525332652f941f79b,12/08/1996,2020-08-13_12h41.39.678,proactive2,2020.1.2,MacIntel,60,5f341be081b9052c55068110,5f352687fbeb1447cc544e76,4,,,,,,cathedral,,,,,,0,43,43,31,1,4,1,,,,,,,,,,,,,,,,,,,,,,,,,,,,,,,,,,,,,,,,,,,,,,,,,,,,,,,,,,,,,,,,,,,,,,,,,,,,,,,,,,,,,,,,,,,,,,,,,,,
,,,,,,,,,,stimuli/images/PICTURE_564.png,BATH,5dee8dc525332652f941f79b,12/08/1996,2020-08-13_12h41.39.678,proactive2,2020.1.2,MacIntel,60,5f341be081b9052c55068110,5f352687fbeb1447cc544e76,4,,,,,,spoon,,,,,,0,44,44,26,1,3,1,,,,,,,,,,,,,,,,,,,,,,,,,,,,,,,,,,,,,,,,,,,,,,,,,,,,,,,,,,,,,,,,,,,,,,,,,,,,,,,,,,,,,,,,,,,,,,,,,,,
,,,,,,,,,,stimuli/images/PICTURE_296.png,LIFE,5dee8dc525332652f941f79b,12/08/1996,2020-08-13_12h41.39.678,proactive2,2020.1.2,MacIntel,60,5f341be081b9052c55068110,5f352687fbeb1447cc544e76,4,,,,,,bolt,,,,,,0,45,45,57,1,6,1,,,,,,,,,,,,,,,,,,,,,,,,,,,,,,,,,,,,,,,,,,,,,,,,,,,,,,,,,,,,,,,,,,,,,,,,,,,,,,,,,,,,,,,,,,,,,,,,,,,
,,,,,,,,,,stimuli/images/PICTURE_339.png,CLIENT,5dee8dc525332652f941f79b,12/08/1996,2020-08-13_12h41.39.678,proactive2,2020.1.2,MacIntel,60,5f341be081b9052c55068110,5f352687fbeb1447cc544e76,4,,,,,,backpack,,,,,,0,46,46,11,1,2,1,,,,,,,,,,,,,,,,,,,,,,,,,,,,,,,,,,,,,,,,,,,,,,,,,,,,,,,,,,,,,,,,,,,,,,,,,,,,,,,,,,,,,,,,,,,,,,,,,,,
,,,,,,,,,,stimuli/images/PICTURE_491.png,RIVER,5dee8dc525332652f941f79b,12/08/1996,2020-08-13_12h41.39.678,proactive2,2020.1.2,MacIntel,60,5f341be081b9052c55068110,5f352687fbeb1447cc544e76,4,,,,,,rug,,,,,,0,47,47,6,1,1,1,,,,,,,,,,,,,,,,,,,,,,,,,,,,,,,,,,,,,,,,,,,,,,,,,,,,,,,,,,,,,,,,,,,,,,,,,,,,,,,,,,,,,,,,,,,,,,,,,,,
,,,,,,,,,,stimuli/images/PICTURE_95.png,MILLER,5dee8dc525332652f941f79b,12/08/1996,2020-08-13_12h41.39.678,proactive2,2020.1.2,MacIntel,60,5f341be081b9052c55068110,5f352687fbeb1447cc544e76,4,,,,,,suitcase,,,,,,0,48,48,56,1,6,1,,,,,,,,,,,,,,,,,,,,,,,,,,,,,,,,,,,,,,,,,,,,,,,,,,,,,,,,,,,,,,,,,,,,,,,,,,,,,,,,,,,,,,,,,,,,,,,,,,,
