consent_key.keys,consent_key.rt,recalled,recalled_rt,recall_acc,example_recall.thisRepN,example_recall.thisTrialN,example_recall.thisN,example_recall.thisIndex,example_recall.ran,file,word,participant,please enter your date of birth (dd/mm/yyyy),date,expName,psychopyVersion,OS,frameRate,STUDY_ID,SESSION_ID,list,prac_learn_study_loop.thisRepN,prac_learn_study_loop.thisTrialN,prac_learn_study_loop.thisN,prac_learn_study_loop.thisIndex,prac_learn_study_loop.ran,image,prac_learn_test_loop.thisRepN,prac_learn_test_loop.thisTrialN,prac_learn_test_loop.thisN,prac_learn_test_loop.thisIndex,prac_learn_test_loop.ran,learn_study_loop.thisRepN,learn_study_loop.thisTrialN,learn_study_loop.thisN,learn_study_loop.thisIndex,learn_study_loop.ran,list_no,block_no,learn_test_loop.thisRepN,learn_test_loop.thisTrialN,learn_test_loop.thisN,learn_test_loop.thisIndex,learn_test_loop.ran,learn_blocks.thisRepN,learn_blocks.thisTrialN,learn_blocks.thisN,learn_blocks.thisIndex,learn_blocks.ran,block_csv,key_resp_13.keys,key_resp_13.rt,learn_blocks_loop.thisRepN,learn_blocks_loop.thisTrialN,learn_blocks_loop.thisN,learn_blocks_loop.thisIndex,learn_blocks_loop.ran,final_learn_test.thisRepN,final_learn_test.thisTrialN,final_learn_test.thisN,final_learn_test.thisIndex,final_learn_test.ran,s_im1,s_im2,s_im3,s_im4,s_im5,s_im6,s_im7,s_im8,s_im1pos,s_im2pos,s_im3pos,s_im4pos,s_im5pos,s_im6pos,s_im7pos,s_im8pos,s_tarright,search_resp.keys,search_loop.thisRepN,search_loop.thisTrialN,search_loop.thisN,search_loop.thisIndex,search_loop.ran,search_resp.rt,prac_wm_test_loop.thisRepN,prac_wm_test_loop.thisTrialN,prac_wm_test_loop.thisN,prac_wm_test_loop.thisIndex,prac_wm_test_loop.ran,wm_recalled1,wm_recall_rt1,wm_probed1,wm_recall_acc1,wm_recalled2,wm_recall_rt2,wm_probed2,wm_recall_acc2,wm_recalled3,wm_recall_rt3,wm_probed3,wm_recall_acc3,wm_recalled4,wm_recall_rt4,wm_probed4,wm_recall_acc4,prac_wm_trial_loop.thisRepN,prac_wm_trial_loop.thisTrialN,prac_wm_trial_loop.thisN,prac_wm_trial_loop.thisIndex,prac_wm_trial_loop.ran,word1,image1,file1,item_type1,word2,image2,file2,item_type2,word4,image4,file4,item_type4,word3,image3,file3,item_type3,wm_test_loop.thisRepN,wm_test_loop.thisTrialN,wm_test_loop.thisN,wm_test_loop.thisIndex,wm_test_loop.ran,wm_trial_loop.thisRepN,wm_trial_loop.thisTrialN,wm_trial_loop.thisN,wm_trial_loop.thisIndex,wm_trial_loop.ran
y,60.3618,?,4.837115,0,0,0,0,0,1,stimuli/images/PICTURE_747.png,TOUGH,5e5aa39b15b8d429d07abfd4,14/09/1939,2020-09-03_19h19.44.204,proactive2,2020.1.2,Win32,60,5f5126bb654d4b30ee6923d8,5f513388e39a4714a745c0ec,1,,,,,,,,,,,,,,,,,,,,,,,,,,,,,,,,,,,,,,,,,,,,,,,,,,,,,,,,,,,,,,,,,,,,,,,,,,,,,,,,,,,,,,,,,,,,,,,,,,,,,,,,,,,,,,,,,,,,,
,,,,,,,,,,stimuli/images/PICTURE_658.png,DEVIL,5e5aa39b15b8d429d07abfd4,14/09/1939,2020-09-03_19h19.44.204,proactive2,2020.1.2,Win32,60,5f5126bb654d4b30ee6923d8,5f513388e39a4714a745c0ec,1,0,0,0,3,1,crow,,,,,,,,,,,,,,,,,,,,,,,,,,,,,,,,,,,,,,,,,,,,,,,,,,,,,,,,,,,,,,,,,,,,,,,,,,,,,,,,,,,,,,,,,,,,,,,,,,,,,,,,,,,,,,,
,,,,,,,,,,stimuli/images/PICTURE_378.png,LOSS,5e5aa39b15b8d429d07abfd4,14/09/1939,2020-09-03_19h19.44.204,proactive2,2020.1.2,Win32,60,5f5126bb654d4b30ee6923d8,5f513388e39a4714a745c0ec,1,0,1,1,2,1,lobster,,,,,,,,,,,,,,,,,,,,,,,,,,,,,,,,,,,,,,,,,,,,,,,,,,,,,,,,,,,,,,,,,,,,,,,,,,,,,,,,,,,,,,,,,,,,,,,,,,,,,,,,,,,,,,,
,,,,,,,,,,stimuli/images/PICTURE_727.png,CELL,5e5aa39b15b8d429d07abfd4,14/09/1939,2020-09-03_19h19.44.204,proactive2,2020.1.2,Win32,60,5f5126bb654d4b30ee6923d8,5f513388e39a4714a745c0ec,1,0,2,2,1,1,hose,,,,,,,,,,,,,,,,,,,,,,,,,,,,,,,,,,,,,,,,,,,,,,,,,,,,,,,,,,,,,,,,,,,,,,,,,,,,,,,,,,,,,,,,,,,,,,,,,,,,,,,,,,,,,,,
,,,,,,,,,,stimuli/images/PICTURE_697.png,KILLER,5e5aa39b15b8d429d07abfd4,14/09/1939,2020-09-03_19h19.44.204,proactive2,2020.1.2,Win32,60,5f5126bb654d4b30ee6923d8,5f513388e39a4714a745c0ec,1,0,3,3,4,1,peach,,,,,,,,,,,,,,,,,,,,,,,,,,,,,,,,,,,,,,,,,,,,,,,,,,,,,,,,,,,,,,,,,,,,,,,,,,,,,,,,,,,,,,,,,,,,,,,,,,,,,,,,,,,,,,,
,,KILLER,4.99276,1,,,,,,stimuli/images/PICTURE_697.png,KILLER,5e5aa39b15b8d429d07abfd4,14/09/1939,2020-09-03_19h19.44.204,proactive2,2020.1.2,Win32,60,5f5126bb654d4b30ee6923d8,5f513388e39a4714a745c0ec,1,,,,,,peach,0,0,0,4,1,,,,,,,,,,,,,,,,,,,,,,,,,,,,,,,,,,,,,,,,,,,,,,,,,,,,,,,,,,,,,,,,,,,,,,,,,,,,,,,,,,,,,,,,,,,,,,,,,,,,,,,,,,
,,CELL,3.108115,1,,,,,,stimuli/images/PICTURE_727.png,CELL,5e5aa39b15b8d429d07abfd4,14/09/1939,2020-09-03_19h19.44.204,proactive2,2020.1.2,Win32,60,5f5126bb654d4b30ee6923d8,5f513388e39a4714a745c0ec,1,,,,,,hose,0,1,1,1,1,,,,,,,,,,,,,,,,,,,,,,,,,,,,,,,,,,,,,,,,,,,,,,,,,,,,,,,,,,,,,,,,,,,,,,,,,,,,,,,,,,,,,,,,,,,,,,,,,,,,,,,,,,
,,LOSS,2.62217,1,,,,,,stimuli/images/PICTURE_378.png,LOSS,5e5aa39b15b8d429d07abfd4,14/09/1939,2020-09-03_19h19.44.204,proactive2,2020.1.2,Win32,60,5f5126bb654d4b30ee6923d8,5f513388e39a4714a745c0ec,1,,,,,,lobster,0,2,2,2,1,,,,,,,,,,,,,,,,,,,,,,,,,,,,,,,,,,,,,,,,,,,,,,,,,,,,,,,,,,,,,,,,,,,,,,,,,,,,,,,,,,,,,,,,,,,,,,,,,,,,,,,,,,
,,DEVIL,3.294765,1,,,,,,stimuli/images/PICTURE_658.png,DEVIL,5e5aa39b15b8d429d07abfd4,14/09/1939,2020-09-03_19h19.44.204,proactive2,2020.1.2,Win32,60,5f5126bb654d4b30ee6923d8,5f513388e39a4714a745c0ec,1,,,,,,crow,0,3,3,3,1,,,,,,,,,,,,,,,,,,,,,,,,,,,,,,,,,,,,,,,,,,,,,,,,,,,,,,,,,,,,,,,,,,,,,,,,,,,,,,,,,,,,,,,,,,,,,,,,,,,,,,,,,,
,,GENIUS,2.94929,1,,,,,,stimuli/images/PICTURE_269.png,GENIUS,5e5aa39b15b8d429d07abfd4,14/09/1939,2020-09-03_19h19.44.204,proactive2,2020.1.2,Win32,60,5f5126bb654d4b30ee6923d8,5f513388e39a4714a745c0ec,1,,,,,,chameleon,0,4,4,0,1,,,,,,,,,,,,,,,,,,,,,,,,,,,,,,,,,,,,,,,,,,,,,,,,,,,,,,,,,,,,,,,,,,,,,,,,,,,,,,,,,,,,,,,,,,,,,,,,,,,,,,,,,,
,,,,,,,,,,stimuli/images/PICTURE_296.png,LIFE,5e5aa39b15b8d429d07abfd4,14/09/1939,2020-09-03_19h19.44.204,proactive2,2020.1.2,Win32,60,5f5126bb654d4b30ee6923d8,5f513388e39a4714a745c0ec,1,,,,,,bolt,,,,,,0,0,0,57,1,6,1,,,,,,,,,,,,,,,,,,,,,,,,,,,,,,,,,,,,,,,,,,,,,,,,,,,,,,,,,,,,,,,,,,,,,,,,,,,,,,,,,,,,,,,,,,,,,,,,,,,
,,,,,,,,,,stimuli/images/PICTURE_667.png,RIVER,5e5aa39b15b8d429d07abfd4,14/09/1939,2020-09-03_19h19.44.204,proactive2,2020.1.2,Win32,60,5f5126bb654d4b30ee6923d8,5f513388e39a4714a745c0ec,1,,,,,,daisy,,,,,,0,1,1,10,1,2,1,,,,,,,,,,,,,,,,,,,,,,,,,,,,,,,,,,,,,,,,,,,,,,,,,,,,,,,,,,,,,,,,,,,,,,,,,,,,,,,,,,,,,,,,,,,,,,,,,,,
,,,,,,,,,,stimuli/images/PICTURE_95.png,HONEY,5e5aa39b15b8d429d07abfd4,14/09/1939,2020-09-03_19h19.44.204,proactive2,2020.1.2,Win32,60,5f5126bb654d4b30ee6923d8,5f513388e39a4714a745c0ec,1,,,,,,suitcase,,,,,,0,2,2,44,1,5,1,,,,,,,,,,,,,,,,,,,,,,,,,,,,,,,,,,,,,,,,,,,,,,,,,,,,,,,,,,,,,,,,,,,,,,,,,,,,,,,,,,,,,,,,,,,,,,,,,,,
,,,,,,,,,,stimuli/images/PICTURE_308.png,FAMILY,5e5aa39b15b8d429d07abfd4,14/09/1939,2020-09-03_19h19.44.204,proactive2,2020.1.2,Win32,60,5f5126bb654d4b30ee6923d8,5f513388e39a4714a745c0ec,1,,,,,,dice,,,,,,0,3,3,36,1,4,1,,,,,,,,,,,,,,,,,,,,,,,,,,,,,,,,,,,,,,,,,,,,,,,,,,,,,,,,,,,,,,,,,,,,,,,,,,,,,,,,,,,,,,,,,,,,,,,,,,,
,,,,,,,,,,stimuli/images/PICTURE_380.png,HONEY,5e5aa39b15b8d429d07abfd4,14/09/1939,2020-09-03_19h19.44.204,proactive2,2020.1.2,Win32,60,5f5126bb654d4b30ee6923d8,5f513388e39a4714a745c0ec,1,,,,,,gorilla,,,,,,0,4,4,19,1,2,1,,,,,,,,,,,,,,,,,,,,,,,,,,,,,,,,,,,,,,,,,,,,,,,,,,,,,,,,,,,,,,,,,,,,,,,,,,,,,,,,,,,,,,,,,,,,,,,,,,,
,,,,,,,,,,stimuli/images/PICTURE_233.png,LOTS,5e5aa39b15b8d429d07abfd4,14/09/1939,2020-09-03_19h19.44.204,proactive2,2020.1.2,Win32,60,5f5126bb654d4b30ee6923d8,5f513388e39a4714a745c0ec,1,,,,,,salt,,,,,,0,5,5,42,1,5,1,,,,,,,,,,,,,,,,,,,,,,,,,,,,,,,,,,,,,,,,,,,,,,,,,,,,,,,,,,,,,,,,,,,,,,,,,,,,,,,,,,,,,,,,,,,,,,,,,,,
,,,,,,,,,,stimuli/images/PICTURE_744.png,WEAPON,5e5aa39b15b8d429d07abfd4,14/09/1939,2020-09-03_19h19.44.204,proactive2,2020.1.2,Win32,60,5f5126bb654d4b30ee6923d8,5f513388e39a4714a745c0ec,1,,,,,,ring,,,,,,0,6,6,50,1,6,1,,,,,,,,,,,,,,,,,,,,,,,,,,,,,,,,,,,,,,,,,,,,,,,,,,,,,,,,,,,,,,,,,,,,,,,,,,,,,,,,,,,,,,,,,,,,,,,,,,,
,,,,,,,,,,stimuli/images/PICTURE_327.png,CASINO,5e5aa39b15b8d429d07abfd4,14/09/1939,2020-09-03_19h19.44.204,proactive2,2020.1.2,Win32,60,5f5126bb654d4b30ee6923d8,5f513388e39a4714a745c0ec,1,,,,,,helmet,,,,,,0,7,7,20,1,3,1,,,,,,,,,,,,,,,,,,,,,,,,,,,,,,,,,,,,,,,,,,,,,,,,,,,,,,,,,,,,,,,,,,,,,,,,,,,,,,,,,,,,,,,,,,,,,,,,,,,
,,,,,,,,,,stimuli/images/PICTURE_108.png,FLIGHT,5e5aa39b15b8d429d07abfd4,14/09/1939,2020-09-03_19h19.44.204,proactive2,2020.1.2,Win32,60,5f5126bb654d4b30ee6923d8,5f513388e39a4714a745c0ec,1,,,,,,calendar,,,,,,0,8,8,59,1,6,1,,,,,,,,,,,,,,,,,,,,,,,,,,,,,,,,,,,,,,,,,,,,,,,,,,,,,,,,,,,,,,,,,,,,,,,,,,,,,,,,,,,,,,,,,,,,,,,,,,,
,,,,,,,,,,stimuli/images/PICTURE_383.png,SERIES,5e5aa39b15b8d429d07abfd4,14/09/1939,2020-09-03_19h19.44.204,proactive2,2020.1.2,Win32,60,5f5126bb654d4b30ee6923d8,5f513388e39a4714a745c0ec,1,,,,,,coin,,,,,,0,9,9,46,1,5,1,,,,,,,,,,,,,,,,,,,,,,,,,,,,,,,,,,,,,,,,,,,,,,,,,,,,,,,,,,,,,,,,,,,,,,,,,,,,,,,,,,,,,,,,,,,,,,,,,,,
,,,,,,,,,,stimuli/images/PICTURE_285.png,LIFE,5e5aa39b15b8d429d07abfd4,14/09/1939,2020-09-03_19h19.44.204,proactive2,2020.1.2,Win32,60,5f5126bb654d4b30ee6923d8,5f513388e39a4714a745c0ec,1,,,,,,carrot,,,,,,0,10,10,33,1,4,1,,,,,,,,,,,,,,,,,,,,,,,,,,,,,,,,,,,,,,,,,,,,,,,,,,,,,,,,,,,,,,,,,,,,,,,,,,,,,,,,,,,,,,,,,,,,,,,,,,,
,,,,,,,,,,stimuli/images/PICTURE_296.png,LOTS,5e5aa39b15b8d429d07abfd4,14/09/1939,2020-09-03_19h19.44.204,proactive2,2020.1.2,Win32,60,5f5126bb654d4b30ee6923d8,5f513388e39a4714a745c0ec,1,,,,,,bolt,,,,,,0,11,11,9,1,1,1,,,,,,,,,,,,,,,,,,,,,,,,,,,,,,,,,,,,,,,,,,,,,,,,,,,,,,,,,,,,,,,,,,,,,,,,,,,,,,,,,,,,,,,,,,,,,,,,,,,
,,,,,,,,,,stimuli/images/PICTURE_405.png,PLENTY,5e5aa39b15b8d429d07abfd4,14/09/1939,2020-09-03_19h19.44.204,proactive2,2020.1.2,Win32,60,5f5126bb654d4b30ee6923d8,5f513388e39a4714a745c0ec,1,,,,,,anchor,,,,,,0,12,12,23,1,3,1,,,,,,,,,,,,,,,,,,,,,,,,,,,,,,,,,,,,,,,,,,,,,,,,,,,,,,,,,,,,,,,,,,,,,,,,,,,,,,,,,,,,,,,,,,,,,,,,,,,
,,,,,,,,,,stimuli/images/PICTURE_380.png,CANDY,5e5aa39b15b8d429d07abfd4,14/09/1939,2020-09-03_19h19.44.204,proactive2,2020.1.2,Win32,60,5f5126bb654d4b30ee6923d8,5f513388e39a4714a745c0ec,1,,,,,,gorilla,,,,,,0,13,13,0,1,1,1,,,,,,,,,,,,,,,,,,,,,,,,,,,,,,,,,,,,,,,,,,,,,,,,,,,,,,,,,,,,,,,,,,,,,,,,,,,,,,,,,,,,,,,,,,,,,,,,,,,
,,,,,,,,,,stimuli/images/PICTURE_147.png,YEAR,5e5aa39b15b8d429d07abfd4,14/09/1939,2020-09-03_19h19.44.204,proactive2,2020.1.2,Win32,60,5f5126bb654d4b30ee6923d8,5f513388e39a4714a745c0ec,1,,,,,,hanger,,,,,,0,14,14,21,1,3,1,,,,,,,,,,,,,,,,,,,,,,,,,,,,,,,,,,,,,,,,,,,,,,,,,,,,,,,,,,,,,,,,,,,,,,,,,,,,,,,,,,,,,,,,,,,,,,,,,,,
,,,,,,,,,,stimuli/images/PICTURE_327.png,SERIES,5e5aa39b15b8d429d07abfd4,14/09/1939,2020-09-03_19h19.44.204,proactive2,2020.1.2,Win32,60,5f5126bb654d4b30ee6923d8,5f513388e39a4714a745c0ec,1,,,,,,helmet,,,,,,0,15,15,3,1,1,1,,,,,,,,,,,,,,,,,,,,,,,,,,,,,,,,,,,,,,,,,,,,,,,,,,,,,,,,,,,,,,,,,,,,,,,,,,,,,,,,,,,,,,,,,,,,,,,,,,,
,,,,,,,,,,stimuli/images/PICTURE_2.png,FLIGHT,5e5aa39b15b8d429d07abfd4,14/09/1939,2020-09-03_19h19.44.204,proactive2,2020.1.2,Win32,60,5f5126bb654d4b30ee6923d8,5f513388e39a4714a745c0ec,1,,,,,,tyre,,,,,,0,16,16,15,1,2,1,,,,,,,,,,,,,,,,,,,,,,,,,,,,,,,,,,,,,,,,,,,,,,,,,,,,,,,,,,,,,,,,,,,,,,,,,,,,,,,,,,,,,,,,,,,,,,,,,,,
,,,,,,,,,,stimuli/images/PICTURE_449.png,DUDE,5e5aa39b15b8d429d07abfd4,14/09/1939,2020-09-03_19h19.44.204,proactive2,2020.1.2,Win32,60,5f5126bb654d4b30ee6923d8,5f513388e39a4714a745c0ec,1,,,,,,bench,,,,,,0,17,17,17,1,2,1,,,,,,,,,,,,,,,,,,,,,,,,,,,,,,,,,,,,,,,,,,,,,,,,,,,,,,,,,,,,,,,,,,,,,,,,,,,,,,,,,,,,,,,,,,,,,,,,,,,
,,,,,,,,,,stimuli/images/PICTURE_564.png,BATH,5e5aa39b15b8d429d07abfd4,14/09/1939,2020-09-03_19h19.44.204,proactive2,2020.1.2,Win32,60,5f5126bb654d4b30ee6923d8,5f513388e39a4714a745c0ec,1,,,,,,spoon,,,,,,0,18,18,26,1,3,1,,,,,,,,,,,,,,,,,,,,,,,,,,,,,,,,,,,,,,,,,,,,,,,,,,,,,,,,,,,,,,,,,,,,,,,,,,,,,,,,,,,,,,,,,,,,,,,,,,,
,,,,,,,,,,stimuli/images/PICTURE_655.png,TOILET,5e5aa39b15b8d429d07abfd4,14/09/1939,2020-09-03_19h19.44.204,proactive2,2020.1.2,Win32,60,5f5126bb654d4b30ee6923d8,5f513388e39a4714a745c0ec,1,,,,,,megaphone,,,,,,0,19,19,12,1,2,1,,,,,,,,,,,,,,,,,,,,,,,,,,,,,,,,,,,,,,,,,,,,,,,,,,,,,,,,,,,,,,,,,,,,,,,,,,,,,,,,,,,,,,,,,,,,,,,,,,,
,,,,,,,,,,stimuli/images/PICTURE_469.png,AGENT,5e5aa39b15b8d429d07abfd4,14/09/1939,2020-09-03_19h19.44.204,proactive2,2020.1.2,Win32,60,5f5126bb654d4b30ee6923d8,5f513388e39a4714a745c0ec,1,,,,,,stool,,,,,,0,20,20,16,1,2,1,,,,,,,,,,,,,,,,,,,,,,,,,,,,,,,,,,,,,,,,,,,,,,,,,,,,,,,,,,,,,,,,,,,,,,,,,,,,,,,,,,,,,,,,,,,,,,,,,,,
,,,,,,,,,,stimuli/images/PICTURE_677.png,APPLE,5e5aa39b15b8d429d07abfd4,14/09/1939,2020-09-03_19h19.44.204,proactive2,2020.1.2,Win32,60,5f5126bb654d4b30ee6923d8,5f513388e39a4714a745c0ec,1,,,,,,map,,,,,,0,21,21,43,1,5,1,,,,,,,,,,,,,,,,,,,,,,,,,,,,,,,,,,,,,,,,,,,,,,,,,,,,,,,,,,,,,,,,,,,,,,,,,,,,,,,,,,,,,,,,,,,,,,,,,,,
,,,,,,,,,,stimuli/images/PICTURE_467.png,POLICY,5e5aa39b15b8d429d07abfd4,14/09/1939,2020-09-03_19h19.44.204,proactive2,2020.1.2,Win32,60,5f5126bb654d4b30ee6923d8,5f513388e39a4714a745c0ec,1,,,,,,peg,,,,,,0,22,22,53,1,6,1,,,,,,,,,,,,,,,,,,,,,,,,,,,,,,,,,,,,,,,,,,,,,,,,,,,,,,,,,,,,,,,,,,,,,,,,,,,,,,,,,,,,,,,,,,,,,,,,,,,
,,,,,,,,,,stimuli/images/PICTURE_32.png,PILLS,5e5aa39b15b8d429d07abfd4,14/09/1939,2020-09-03_19h19.44.204,proactive2,2020.1.2,Win32,60,5f5126bb654d4b30ee6923d8,5f513388e39a4714a745c0ec,1,,,,,,crown,,,,,,0,23,23,18,1,2,1,,,,,,,,,,,,,,,,,,,,,,,,,,,,,,,,,,,,,,,,,,,,,,,,,,,,,,,,,,,,,,,,,,,,,,,,,,,,,,,,,,,,,,,,,,,,,,,,,,,
,,,,,,,,,,stimuli/images/PICTURE_405.png,YEAR,5e5aa39b15b8d429d07abfd4,14/09/1939,2020-09-03_19h19.44.204,proactive2,2020.1.2,Win32,60,5f5126bb654d4b30ee6923d8,5f513388e39a4714a745c0ec,1,,,,,,anchor,,,,,,0,24,24,34,1,4,1,,,,,,,,,,,,,,,,,,,,,,,,,,,,,,,,,,,,,,,,,,,,,,,,,,,,,,,,,,,,,,,,,,,,,,,,,,,,,,,,,,,,,,,,,,,,,,,,,,,
,,,,,,,,,,stimuli/images/PICTURE_203.png,GODS,5e5aa39b15b8d429d07abfd4,14/09/1939,2020-09-03_19h19.44.204,proactive2,2020.1.2,Win32,60,5f5126bb654d4b30ee6923d8,5f513388e39a4714a745c0ec,1,,,,,,cap,,,,,,0,25,25,30,1,4,1,,,,,,,,,,,,,,,,,,,,,,,,,,,,,,,,,,,,,,,,,,,,,,,,,,,,,,,,,,,,,,,,,,,,,,,,,,,,,,,,,,,,,,,,,,,,,,,,,,,
,,,,,,,,,,stimuli/images/PICTURE_504.png,YEAR,5e5aa39b15b8d429d07abfd4,14/09/1939,2020-09-03_19h19.44.204,proactive2,2020.1.2,Win32,60,5f5126bb654d4b30ee6923d8,5f513388e39a4714a745c0ec,1,,,,,,wheel,,,,,,0,26,26,13,1,2,1,,,,,,,,,,,,,,,,,,,,,,,,,,,,,,,,,,,,,,,,,,,,,,,,,,,,,,,,,,,,,,,,,,,,,,,,,,,,,,,,,,,,,,,,,,,,,,,,,,,
,,,,,,,,,,stimuli/images/PICTURE_108.png,POLICY,5e5aa39b15b8d429d07abfd4,14/09/1939,2020-09-03_19h19.44.204,proactive2,2020.1.2,Win32,60,5f5126bb654d4b30ee6923d8,5f513388e39a4714a745c0ec,1,,,,,,calendar,,,,,,0,27,27,22,1,3,1,,,,,,,,,,,,,,,,,,,,,,,,,,,,,,,,,,,,,,,,,,,,,,,,,,,,,,,,,,,,,,,,,,,,,,,,,,,,,,,,,,,,,,,,,,,,,,,,,,,
,,,,,,,,,,stimuli/images/PICTURE_95.png,MILLER,5e5aa39b15b8d429d07abfd4,14/09/1939,2020-09-03_19h19.44.204,proactive2,2020.1.2,Win32,60,5f5126bb654d4b30ee6923d8,5f513388e39a4714a745c0ec,1,,,,,,suitcase,,,,,,0,28,28,56,1,6,1,,,,,,,,,,,,,,,,,,,,,,,,,,,,,,,,,,,,,,,,,,,,,,,,,,,,,,,,,,,,,,,,,,,,,,,,,,,,,,,,,,,,,,,,,,,,,,,,,,,
,,,,,,,,,,stimuli/images/PICTURE_147.png,WOMEN,5e5aa39b15b8d429d07abfd4,14/09/1939,2020-09-03_19h19.44.204,proactive2,2020.1.2,Win32,60,5f5126bb654d4b30ee6923d8,5f513388e39a4714a745c0ec,1,,,,,,hanger,,,,,,0,29,29,7,1,1,1,,,,,,,,,,,,,,,,,,,,,,,,,,,,,,,,,,,,,,,,,,,,,,,,,,,,,,,,,,,,,,,,,,,,,,,,,,,,,,,,,,,,,,,,,,,,,,,,,,,
,,,,,,,,,,stimuli/images/PICTURE_297.png,RIVER,5e5aa39b15b8d429d07abfd4,14/09/1939,2020-09-03_19h19.44.204,proactive2,2020.1.2,Win32,60,5f5126bb654d4b30ee6923d8,5f513388e39a4714a745c0ec,1,,,,,,aeroplane,,,,,,0,30,30,39,1,4,1,,,,,,,,,,,,,,,,,,,,,,,,,,,,,,,,,,,,,,,,,,,,,,,,,,,,,,,,,,,,,,,,,,,,,,,,,,,,,,,,,,,,,,,,,,,,,,,,,,,
,,,,,,,,,,stimuli/images/PICTURE_487.png,GIRL,5e5aa39b15b8d429d07abfd4,14/09/1939,2020-09-03_19h19.44.204,proactive2,2020.1.2,Win32,60,5f5126bb654d4b30ee6923d8,5f513388e39a4714a745c0ec,1,,,,,,basket,,,,,,0,31,31,45,1,5,1,,,,,,,,,,,,,,,,,,,,,,,,,,,,,,,,,,,,,,,,,,,,,,,,,,,,,,,,,,,,,,,,,,,,,,,,,,,,,,,,,,,,,,,,,,,,,,,,,,,
,,,,,,,,,,stimuli/images/PICTURE_504.png,COPS,5e5aa39b15b8d429d07abfd4,14/09/1939,2020-09-03_19h19.44.204,proactive2,2020.1.2,Win32,60,5f5126bb654d4b30ee6923d8,5f513388e39a4714a745c0ec,1,,,,,,wheel,,,,,,0,32,32,52,1,6,1,,,,,,,,,,,,,,,,,,,,,,,,,,,,,,,,,,,,,,,,,,,,,,,,,,,,,,,,,,,,,,,,,,,,,,,,,,,,,,,,,,,,,,,,,,,,,,,,,,,
,,,,,,,,,,stimuli/images/PICTURE_491.png,RIVER,5e5aa39b15b8d429d07abfd4,14/09/1939,2020-09-03_19h19.44.204,proactive2,2020.1.2,Win32,60,5f5126bb654d4b30ee6923d8,5f513388e39a4714a745c0ec,1,,,,,,rug,,,,,,0,33,33,6,1,1,1,,,,,,,,,,,,,,,,,,,,,,,,,,,,,,,,,,,,,,,,,,,,,,,,,,,,,,,,,,,,,,,,,,,,,,,,,,,,,,,,,,,,,,,,,,,,,,,,,,,
,,,,,,,,,,stimuli/images/PICTURE_403.png,RIVER,5e5aa39b15b8d429d07abfd4,14/09/1939,2020-09-03_19h19.44.204,proactive2,2020.1.2,Win32,60,5f5126bb654d4b30ee6923d8,5f513388e39a4714a745c0ec,1,,,,,,cathedral,,,,,,0,34,34,40,1,5,1,,,,,,,,,,,,,,,,,,,,,,,,,,,,,,,,,,,,,,,,,,,,,,,,,,,,,,,,,,,,,,,,,,,,,,,,,,,,,,,,,,,,,,,,,,,,,,,,,,,
,,,,,,,,,,stimuli/images/PICTURE_383.png,WRITER,5e5aa39b15b8d429d07abfd4,14/09/1939,2020-09-03_19h19.44.204,proactive2,2020.1.2,Win32,60,5f5126bb654d4b30ee6923d8,5f513388e39a4714a745c0ec,1,,,,,,coin,,,,,,0,35,35,28,1,3,1,,,,,,,,,,,,,,,,,,,,,,,,,,,,,,,,,,,,,,,,,,,,,,,,,,,,,,,,,,,,,,,,,,,,,,,,,,,,,,,,,,,,,,,,,,,,,,,,,,,
,,,,,,,,,,stimuli/images/PICTURE_339.png,CLIENT,5e5aa39b15b8d429d07abfd4,14/09/1939,2020-09-03_19h19.44.204,proactive2,2020.1.2,Win32,60,5f5126bb654d4b30ee6923d8,5f513388e39a4714a745c0ec,1,,,,,,backpack,,,,,,0,36,36,11,1,2,1,,,,,,,,,,,,,,,,,,,,,,,,,,,,,,,,,,,,,,,,,,,,,,,,,,,,,,,,,,,,,,,,,,,,,,,,,,,,,,,,,,,,,,,,,,,,,,,,,,,
,,,,,,,,,,stimuli/images/PICTURE_403.png,WRITER,5e5aa39b15b8d429d07abfd4,14/09/1939,2020-09-03_19h19.44.204,proactive2,2020.1.2,Win32,60,5f5126bb654d4b30ee6923d8,5f513388e39a4714a745c0ec,1,,,,,,cathedral,,,,,,0,37,37,31,1,4,1,,,,,,,,,,,,,,,,,,,,,,,,,,,,,,,,,,,,,,,,,,,,,,,,,,,,,,,,,,,,,,,,,,,,,,,,,,,,,,,,,,,,,,,,,,,,,,,,,,,
,,,,,,,,,,stimuli/images/PICTURE_57.png,MOMENT,5e5aa39b15b8d429d07abfd4,14/09/1939,2020-09-03_19h19.44.204,proactive2,2020.1.2,Win32,60,5f5126bb654d4b30ee6923d8,5f513388e39a4714a745c0ec,1,,,,,,stamp,,,,,,0,38,38,37,1,4,1,,,,,,,,,,,,,,,,,,,,,,,,,,,,,,,,,,,,,,,,,,,,,,,,,,,,,,,,,,,,,,,,,,,,,,,,,,,,,,,,,,,,,,,,,,,,,,,,,,,
,,,,,,,,,,stimuli/images/PICTURE_85.png,TOILET,5e5aa39b15b8d429d07abfd4,14/09/1939,2020-09-03_19h19.44.204,proactive2,2020.1.2,Win32,60,5f5126bb654d4b30ee6923d8,5f513388e39a4714a745c0ec,1,,,,,,diamond,,,,,,0,39,39,48,1,5,1,,,,,,,,,,,,,,,,,,,,,,,,,,,,,,,,,,,,,,,,,,,,,,,,,,,,,,,,,,,,,,,,,,,,,,,,,,,,,,,,,,,,,,,,,,,,,,,,,,,
,,,,,,,,,,stimuli/images/PICTURE_42.png,BOYS,5e5aa39b15b8d429d07abfd4,14/09/1939,2020-09-03_19h19.44.204,proactive2,2020.1.2,Win32,60,5f5126bb654d4b30ee6923d8,5f513388e39a4714a745c0ec,1,,,,,,pear,,,,,,0,40,40,55,1,6,1,,,,,,,,,,,,,,,,,,,,,,,,,,,,,,,,,,,,,,,,,,,,,,,,,,,,,,,,,,,,,,,,,,,,,,,,,,,,,,,,,,,,,,,,,,,,,,,,,,,
,,,,,,,,,,stimuli/images/PICTURE_504.png,ARTIST,5e5aa39b15b8d429d07abfd4,14/09/1939,2020-09-03_19h19.44.204,proactive2,2020.1.2,Win32,60,5f5126bb654d4b30ee6923d8,5f513388e39a4714a745c0ec,1,,,,,,wheel,,,,,,0,41,41,49,1,5,1,,,,,,,,,,,,,,,,,,,,,,,,,,,,,,,,,,,,,,,,,,,,,,,,,,,,,,,,,,,,,,,,,,,,,,,,,,,,,,,,,,,,,,,,,,,,,,,,,,,
,,,,,,,,,,stimuli/images/PICTURE_654.png,MONTH,5e5aa39b15b8d429d07abfd4,14/09/1939,2020-09-03_19h19.44.204,proactive2,2020.1.2,Win32,60,5f5126bb654d4b30ee6923d8,5f513388e39a4714a745c0ec,1,,,,,,pencil,,,,,,0,42,42,29,1,3,1,,,,,,,,,,,,,,,,,,,,,,,,,,,,,,,,,,,,,,,,,,,,,,,,,,,,,,,,,,,,,,,,,,,,,,,,,,,,,,,,,,,,,,,,,,,,,,,,,,,
,,,,,,,,,,stimuli/images/PICTURE_340.png,LETTER,5e5aa39b15b8d429d07abfd4,14/09/1939,2020-09-03_19h19.44.204,proactive2,2020.1.2,Win32,60,5f5126bb654d4b30ee6923d8,5f513388e39a4714a745c0ec,1,,,,,,mirror,,,,,,0,43,43,24,1,3,1,,,,,,,,,,,,,,,,,,,,,,,,,,,,,,,,,,,,,,,,,,,,,,,,,,,,,,,,,,,,,,,,,,,,,,,,,,,,,,,,,,,,,,,,,,,,,,,,,,,
,,,,,,,,,,stimuli/images/PICTURE_32.png,KIND,5e5aa39b15b8d429d07abfd4,14/09/1939,2020-09-03_19h19.44.204,proactive2,2020.1.2,Win32,60,5f5126bb654d4b30ee6923d8,5f513388e39a4714a745c0ec,1,,,,,,crown,,,,,,0,44,44,35,1,4,1,,,,,,,,,,,,,,,,,,,,,,,,,,,,,,,,,,,,,,,,,,,,,,,,,,,,,,,,,,,,,,,,,,,,,,,,,,,,,,,,,,,,,,,,,,,,,,,,,,,
,,,,,,,,,,stimuli/images/PICTURE_208.png,SYSTEM,5e5aa39b15b8d429d07abfd4,14/09/1939,2020-09-03_19h19.44.204,proactive2,2020.1.2,Win32,60,5f5126bb654d4b30ee6923d8,5f513388e39a4714a745c0ec,1,,,,,,microphone,,,,,,0,45,45,32,1,4,1,,,,,,,,,,,,,,,,,,,,,,,,,,,,,,,,,,,,,,,,,,,,,,,,,,,,,,,,,,,,,,,,,,,,,,,,,,,,,,,,,,,,,,,,,,,,,,,,,,,
,,,,,,,,,,stimuli/images/PICTURE_33.png,FRIEND,5e5aa39b15b8d429d07abfd4,14/09/1939,2020-09-03_19h19.44.204,proactive2,2020.1.2,Win32,60,5f5126bb654d4b30ee6923d8,5f513388e39a4714a745c0ec,1,,,,,,frame,,,,,,0,46,46,8,1,1,1,,,,,,,,,,,,,,,,,,,,,,,,,,,,,,,,,,,,,,,,,,,,,,,,,,,,,,,,,,,,,,,,,,,,,,,,,,,,,,,,,,,,,,,,,,,,,,,,,,,
,,,,,,,,,,stimuli/images/PICTURE_68.png,ROOF,5e5aa39b15b8d429d07abfd4,14/09/1939,2020-09-03_19h19.44.204,proactive2,2020.1.2,Win32,60,5f5126bb654d4b30ee6923d8,5f513388e39a4714a745c0ec,1,,,,,,candle,,,,,,0,47,47,38,1,4,1,,,,,,,,,,,,,,,,,,,,,,,,,,,,,,,,,,,,,,,,,,,,,,,,,,,,,,,,,,,,,,,,,,,,,,,,,,,,,,,,,,,,,,,,,,,,,,,,,,,
,,,,,,,,,,stimuli/images/PICTURE_403.png,TOILET,5e5aa39b15b8d429d07abfd4,14/09/1939,2020-09-03_19h19.44.204,proactive2,2020.1.2,Win32,60,5f5126bb654d4b30ee6923d8,5f513388e39a4714a745c0ec,1,,,,,,cathedral,,,,,,0,48,48,25,1,3,1,,,,,,,,,,,,,,,,,,,,,,,,,,,,,,,,,,,,,,,,,,,,,,,,,,,,,,,,,,,,,,,,,,,,,,,,,,,,,,,,,,,,,,,,,,,,,,,,,,,
,,,,,,,,,,stimuli/images/PICTURE_203.png,NIGHT,5e5aa39b15b8d429d07abfd4,14/09/1939,2020-09-03_19h19.44.204,proactive2,2020.1.2,Win32,60,5f5126bb654d4b30ee6923d8,5f513388e39a4714a745c0ec,1,,,,,,cap,,,,,,0,49,49,2,1,1,1,,,,,,,,,,,,,,,,,,,,,,,,,,,,,,,,,,,,,,,,,,,,,,,,,,,,,,,,,,,,,,,,,,,,,,,,,,,,,,,,,,,,,,,,,,,,,,,,,,,
,,,,,,,,,,stimuli/images/PICTURE_340.png,VALLEY,5e5aa39b15b8d429d07abfd4,14/09/1939,2020-09-03_19h19.44.204,proactive2,2020.1.2,Win32,60,5f5126bb654d4b30ee6923d8,5f513388e39a4714a745c0ec,1,,,,,,mirror,,,,,,0,50,50,54,1,6,1,,,,,,,,,,,,,,,,,,,,,,,,,,,,,,,,,,,,,,,,,,,,,,,,,,,,,,,,,,,,,,,,,,,,,,,,,,,,,,,,,,,,,,,,,,,,,,,,,,,
,,,,,,,,,,stimuli/images/PICTURE_85.png,NATION,5e5aa39b15b8d429d07abfd4,14/09/1939,2020-09-03_19h19.44.204,proactive2,2020.1.2,Win32,60,5f5126bb654d4b30ee6923d8,5f513388e39a4714a745c0ec,1,,,,,,diamond,,,,,,0,51,51,5,1,1,1,,,,,,,,,,,,,,,,,,,,,,,,,,,,,,,,,,,,,,,,,,,,,,,,,,,,,,,,,,,,,,,,,,,,,,,,,,,,,,,,,,,,,,,,,,,,,,,,,,,
,,,,,,,,,,stimuli/images/PICTURE_685.png,PENNY,5e5aa39b15b8d429d07abfd4,14/09/1939,2020-09-03_19h19.44.204,proactive2,2020.1.2,Win32,60,5f5126bb654d4b30ee6923d8,5f513388e39a4714a745c0ec,1,,,,,,goose,,,,,,0,52,52,4,1,1,1,,,,,,,,,,,,,,,,,,,,,,,,,,,,,,,,,,,,,,,,,,,,,,,,,,,,,,,,,,,,,,,,,,,,,,,,,,,,,,,,,,,,,,,,,,,,,,,,,,,
,,,,,,,,,,stimuli/images/PICTURE_491.png,GLASS,5e5aa39b15b8d429d07abfd4,14/09/1939,2020-09-03_19h19.44.204,proactive2,2020.1.2,Win32,60,5f5126bb654d4b30ee6923d8,5f513388e39a4714a745c0ec,1,,,,,,rug,,,,,,0,53,53,14,1,2,1,,,,,,,,,,,,,,,,,,,,,,,,,,,,,,,,,,,,,,,,,,,,,,,,,,,,,,,,,,,,,,,,,,,,,,,,,,,,,,,,,,,,,,,,,,,,,,,,,,,
,,,,,,,,,,stimuli/images/PICTURE_750.png,HOTEL,5e5aa39b15b8d429d07abfd4,14/09/1939,2020-09-03_19h19.44.204,proactive2,2020.1.2,Win32,60,5f5126bb654d4b30ee6923d8,5f513388e39a4714a745c0ec,1,,,,,,kettle,,,,,,0,54,54,27,1,3,1,,,,,,,,,,,,,,,,,,,,,,,,,,,,,,,,,,,,,,,,,,,,,,,,,,,,,,,,,,,,,,,,,,,,,,,,,,,,,,,,,,,,,,,,,,,,,,,,,,,
,,,,,,,,,,stimuli/images/PICTURE_675.png,SALE,5e5aa39b15b8d429d07abfd4,14/09/1939,2020-09-03_19h19.44.204,proactive2,2020.1.2,Win32,60,5f5126bb654d4b30ee6923d8,5f513388e39a4714a745c0ec,1,,,,,,windmill,,,,,,0,55,55,47,1,5,1,,,,,,,,,,,,,,,,,,,,,,,,,,,,,,,,,,,,,,,,,,,,,,,,,,,,,,,,,,,,,,,,,,,,,,,,,,,,,,,,,,,,,,,,,,,,,,,,,,,
,,,,,,,,,,stimuli/images/PICTURE_68.png,MILE,5e5aa39b15b8d429d07abfd4,14/09/1939,2020-09-03_19h19.44.204,proactive2,2020.1.2,Win32,60,5f5126bb654d4b30ee6923d8,5f513388e39a4714a745c0ec,1,,,,,,candle,,,,,,0,56,56,51,1,6,1,,,,,,,,,,,,,,,,,,,,,,,,,,,,,,,,,,,,,,,,,,,,,,,,,,,,,,,,,,,,,,,,,,,,,,,,,,,,,,,,,,,,,,,,,,,,,,,,,,,
,,,,,,,,,,stimuli/images/PICTURE_708.png,RECORD,5e5aa39b15b8d429d07abfd4,14/09/1939,2020-09-03_19h19.44.204,proactive2,2020.1.2,Win32,60,5f5126bb654d4b30ee6923d8,5f513388e39a4714a745c0ec,1,,,,,,monkey,,,,,,0,57,57,58,1,6,1,,,,,,,,,,,,,,,,,,,,,,,,,,,,,,,,,,,,,,,,,,,,,,,,,,,,,,,,,,,,,,,,,,,,,,,,,,,,,,,,,,,,,,,,,,,,,,,,,,,
,,,,,,,,,,stimuli/images/PICTURE_177.png,WRITER,5e5aa39b15b8d429d07abfd4,14/09/1939,2020-09-03_19h19.44.204,proactive2,2020.1.2,Win32,60,5f5126bb654d4b30ee6923d8,5f513388e39a4714a745c0ec,1,,,,,,mushroom,,,,,,0,58,58,41,1,5,1,,,,,,,,,,,,,,,,,,,,,,,,,,,,,,,,,,,,,,,,,,,,,,,,,,,,,,,,,,,,,,,,,,,,,,,,,,,,,,,,,,,,,,,,,,,,,,,,,,,
,,LOTS,3.19686,1,,,,,,stimuli/images/PICTURE_296.png,LOTS,5e5aa39b15b8d429d07abfd4,14/09/1939,2020-09-03_19h19.44.204,proactive2,2020.1.2,Win32,60,5f5126bb654d4b30ee6923d8,5f513388e39a4714a745c0ec,1,,,,,,bolt,,,,,,,,,,,1,1,0,0,0,9,1,,,,,,,,,,,,,,,,,,,,,,,,,,,,,,,,,,,,,,,,,,,,,,,,,,,,,,,,,,,,,,,,,,,,,,,,,,,,,,,,,,,,,,,,,,,,,,
,,?,0.0074,0,,,,,,stimuli/images/PICTURE_380.png,HONEY,5e5aa39b15b8d429d07abfd4,14/09/1939,2020-09-03_19h19.44.204,proactive2,2020.1.2,Win32,60,5f5126bb654d4b30ee6923d8,5f513388e39a4714a745c0ec,1,,,,,,gorilla,,,,,,,,,,,2,1,0,1,1,19,1,,,,,,,,,,,,,,,,,,,,,,,,,,,,,,,,,,,,,,,,,,,,,,,,,,,,,,,,,,,,,,,,,,,,,,,,,,,,,,,,,,,,,,,,,,,,,,
,,?,0.004575,0,,,,,,stimuli/images/PICTURE_750.png,HOTEL,5e5aa39b15b8d429d07abfd4,14/09/1939,2020-09-03_19h19.44.204,proactive2,2020.1.2,Win32,60,5f5126bb654d4b30ee6923d8,5f513388e39a4714a745c0ec,1,,,,,,kettle,,,,,,,,,,,3,1,0,2,2,27,1,,,,,,,,,,,,,,,,,,,,,,,,,,,,,,,,,,,,,,,,,,,,,,,,,,,,,,,,,,,,,,,,,,,,,,,,,,,,,,,,,,,,,,,,,,,,,,
,,?,0.003645,0,,,,,,stimuli/images/PICTURE_675.png,SALE,5e5aa39b15b8d429d07abfd4,14/09/1939,2020-09-03_19h19.44.204,proactive2,2020.1.2,Win32,60,5f5126bb654d4b30ee6923d8,5f513388e39a4714a745c0ec,1,,,,,,windmill,,,,,,,,,,,5,1,0,3,3,47,1,,,,,,,,,,,,,,,,,,,,,,,,,,,,,,,,,,,,,,,,,,,,,,,,,,,,,,,,,,,,,,,,,,,,,,,,,,,,,,,,,,,,,,,,,,,,,,
,,?,0.00258,0,,,,,,stimuli/images/PICTURE_85.png,TOILET,5e5aa39b15b8d429d07abfd4,14/09/1939,2020-09-03_19h19.44.204,proactive2,2020.1.2,Win32,60,5f5126bb654d4b30ee6923d8,5f513388e39a4714a745c0ec,1,,,,,,diamond,,,,,,,,,,,5,1,0,4,4,48,1,,,,,,,,,,,,,,,,,,,,,,,,,,,,,,,,,,,,,,,,,,,,,,,,,,,,,,,,,,,,,,,,,,,,,,,,,,,,,,,,,,,,,,,,,,,,,,
,,?,0.003935,0,,,,,,stimuli/images/PICTURE_108.png,POLICY,5e5aa39b15b8d429d07abfd4,14/09/1939,2020-09-03_19h19.44.204,proactive2,2020.1.2,Win32,60,5f5126bb654d4b30ee6923d8,5f513388e39a4714a745c0ec,1,,,,,,calendar,,,,,,,,,,,3,1,0,5,5,22,1,,,,,,,,,,,,,,,,,,,,,,,,,,,,,,,,,,,,,,,,,,,,,,,,,,,,,,,,,,,,,,,,,,,,,,,,,,,,,,,,,,,,,,,,,,,,,,
,,?,0.002655,0,,,,,,stimuli/images/PICTURE_403.png,RIVER,5e5aa39b15b8d429d07abfd4,14/09/1939,2020-09-03_19h19.44.204,proactive2,2020.1.2,Win32,60,5f5126bb654d4b30ee6923d8,5f513388e39a4714a745c0ec,1,,,,,,cathedral,,,,,,,,,,,5,1,0,6,6,40,1,,,,,,,,,,,,,,,,,,,,,,,,,,,,,,,,,,,,,,,,,,,,,,,,,,,,,,,,,,,,,,,,,,,,,,,,,,,,,,,,,,,,,,,,,,,,,,
,,PENNY,3.52924,1,,,,,,stimuli/images/PICTURE_685.png,PENNY,5e5aa39b15b8d429d07abfd4,14/09/1939,2020-09-03_19h19.44.204,proactive2,2020.1.2,Win32,60,5f5126bb654d4b30ee6923d8,5f513388e39a4714a745c0ec,1,,,,,,goose,,,,,,,,,,,1,1,0,7,7,4,1,,,,,,,,,,,,,,,,,,,,,,,,,,,,,,,,,,,,,,,,,,,,,,,,,,,,,,,,,,,,,,,,,,,,,,,,,,,,,,,,,,,,,,,,,,,,,,
,,?,0.007045,0,,,,,,stimuli/images/PICTURE_383.png,SERIES,5e5aa39b15b8d429d07abfd4,14/09/1939,2020-09-03_19h19.44.204,proactive2,2020.1.2,Win32,60,5f5126bb654d4b30ee6923d8,5f513388e39a4714a745c0ec,1,,,,,,coin,,,,,,,,,,,5,1,0,8,8,46,1,,,,,,,,,,,,,,,,,,,,,,,,,,,,,,,,,,,,,,,,,,,,,,,,,,,,,,,,,,,,,,,,,,,,,,,,,,,,,,,,,,,,,,,,,,,,,,
,,?,0.00451,0,,,,,,stimuli/images/PICTURE_95.png,HONEY,5e5aa39b15b8d429d07abfd4,14/09/1939,2020-09-03_19h19.44.204,proactive2,2020.1.2,Win32,60,5f5126bb654d4b30ee6923d8,5f513388e39a4714a745c0ec,1,,,,,,suitcase,,,,,,,,,,,5,1,0,9,9,44,1,,,,,,,,,,,,,,,,,,,,,,,,,,,,,,,,,,,,,,,,,,,,,,,,,,,,,,,,,,,,,,,,,,,,,,,,,,,,,,,,,,,,,,,,,,,,,,
,,?,0.003275,0,,,,,,stimuli/images/PICTURE_2.png,FLIGHT,5e5aa39b15b8d429d07abfd4,14/09/1939,2020-09-03_19h19.44.204,proactive2,2020.1.2,Win32,60,5f5126bb654d4b30ee6923d8,5f513388e39a4714a745c0ec,1,,,,,,tyre,,,,,,,,,,,2,1,0,10,10,15,1,,,,,,,,,,,,,,,,,,,,,,,,,,,,,,,,,,,,,,,,,,,,,,,,,,,,,,,,,,,,,,,,,,,,,,,,,,,,,,,,,,,,,,,,,,,,,,
,,?,0.00371,0,,,,,,stimuli/images/PICTURE_564.png,BATH,5e5aa39b15b8d429d07abfd4,14/09/1939,2020-09-03_19h19.44.204,proactive2,2020.1.2,Win32,60,5f5126bb654d4b30ee6923d8,5f513388e39a4714a745c0ec,1,,,,,,spoon,,,,,,,,,,,3,1,0,11,11,26,1,,,,,,,,,,,,,,,,,,,,,,,,,,,,,,,,,,,,,,,,,,,,,,,,,,,,,,,,,,,,,,,,,,,,,,,,,,,,,,,,,,,,,,,,,,,,,,
,,?,0.004885,0,,,,,,stimuli/images/PICTURE_469.png,AGENT,5e5aa39b15b8d429d07abfd4,14/09/1939,2020-09-03_19h19.44.204,proactive2,2020.1.2,Win32,60,5f5126bb654d4b30ee6923d8,5f513388e39a4714a745c0ec,1,,,,,,stool,,,,,,,,,,,2,1,0,12,12,16,1,,,,,,,,,,,,,,,,,,,,,,,,,,,,,,,,,,,,,,,,,,,,,,,,,,,,,,,,,,,,,,,,,,,,,,,,,,,,,,,,,,,,,,,,,,,,,,
,,?,0.004525,0,,,,,,stimuli/images/PICTURE_327.png,CASINO,5e5aa39b15b8d429d07abfd4,14/09/1939,2020-09-03_19h19.44.204,proactive2,2020.1.2,Win32,60,5f5126bb654d4b30ee6923d8,5f513388e39a4714a745c0ec,1,,,,,,helmet,,,,,,,,,,,3,1,0,13,13,20,1,,,,,,,,,,,,,,,,,,,,,,,,,,,,,,,,,,,,,,,,,,,,,,,,,,,,,,,,,,,,,,,,,,,,,,,,,,,,,,,,,,,,,,,,,,,,,,
,,?,0.0043,0,,,,,,stimuli/images/PICTURE_285.png,LIFE,5e5aa39b15b8d429d07abfd4,14/09/1939,2020-09-03_19h19.44.204,proactive2,2020.1.2,Win32,60,5f5126bb654d4b30ee6923d8,5f513388e39a4714a745c0ec,1,,,,,,carrot,,,,,,,,,,,4,1,0,14,14,33,1,,,,,,,,,,,,,,,,,,,,,,,,,,,,,,,,,,,,,,,,,,,,,,,,,,,,,,,,,,,,,,,,,,,,,,,,,,,,,,,,,,,,,,,,,,,,,,
,,?,0.00322,0,,,,,,stimuli/images/PICTURE_744.png,WEAPON,5e5aa39b15b8d429d07abfd4,14/09/1939,2020-09-03_19h19.44.204,proactive2,2020.1.2,Win32,60,5f5126bb654d4b30ee6923d8,5f513388e39a4714a745c0ec,1,,,,,,ring,,,,,,,,,,,6,1,0,15,15,50,1,,,,,,,,,,,,,,,,,,,,,,,,,,,,,,,,,,,,,,,,,,,,,,,,,,,,,,,,,,,,,,,,,,,,,,,,,,,,,,,,,,,,,,,,,,,,,,
,,?,0.003515,0,,,,,,stimuli/images/PICTURE_383.png,WRITER,5e5aa39b15b8d429d07abfd4,14/09/1939,2020-09-03_19h19.44.204,proactive2,2020.1.2,Win32,60,5f5126bb654d4b30ee6923d8,5f513388e39a4714a745c0ec,1,,,,,,coin,,,,,,,,,,,3,1,0,16,16,28,1,,,,,,,,,,,,,,,,,,,,,,,,,,,,,,,,,,,,,,,,,,,,,,,,,,,,,,,,,,,,,,,,,,,,,,,,,,,,,,,,,,,,,,,,,,,,,,
,,?,0.00305,0,,,,,,stimuli/images/PICTURE_467.png,POLICY,5e5aa39b15b8d429d07abfd4,14/09/1939,2020-09-03_19h19.44.204,proactive2,2020.1.2,Win32,60,5f5126bb654d4b30ee6923d8,5f513388e39a4714a745c0ec,1,,,,,,peg,,,,,,,,,,,6,1,0,17,17,53,1,,,,,,,,,,,,,,,,,,,,,,,,,,,,,,,,,,,,,,,,,,,,,,,,,,,,,,,,,,,,,,,,,,,,,,,,,,,,,,,,,,,,,,,,,,,,,,
,,?,0.003285,0,,,,,,stimuli/images/PICTURE_108.png,FLIGHT,5e5aa39b15b8d429d07abfd4,14/09/1939,2020-09-03_19h19.44.204,proactive2,2020.1.2,Win32,60,5f5126bb654d4b30ee6923d8,5f513388e39a4714a745c0ec,1,,,,,,calendar,,,,,,,,,,,6,1,0,18,18,59,1,,,,,,,,,,,,,,,,,,,,,,,,,,,,,,,,,,,,,,,,,,,,,,,,,,,,,,,,,,,,,,,,,,,,,,,,,,,,,,,,,,,,,,,,,,,,,,
,,?,0.00327,0,,,,,,stimuli/images/PICTURE_403.png,TOILET,5e5aa39b15b8d429d07abfd4,14/09/1939,2020-09-03_19h19.44.204,proactive2,2020.1.2,Win32,60,5f5126bb654d4b30ee6923d8,5f513388e39a4714a745c0ec,1,,,,,,cathedral,,,,,,,,,,,3,1,0,19,19,25,1,,,,,,,,,,,,,,,,,,,,,,,,,,,,,,,,,,,,,,,,,,,,,,,,,,,,,,,,,,,,,,,,,,,,,,,,,,,,,,,,,,,,,,,,,,,,,,
,,?,0.0031,0,,,,,,stimuli/images/PICTURE_177.png,WRITER,5e5aa39b15b8d429d07abfd4,14/09/1939,2020-09-03_19h19.44.204,proactive2,2020.1.2,Win32,60,5f5126bb654d4b30ee6923d8,5f513388e39a4714a745c0ec,1,,,,,,mushroom,,,,,,,,,,,5,1,0,20,20,41,1,,,,,,,,,,,,,,,,,,,,,,,,,,,,,,,,,,,,,,,,,,,,,,,,,,,,,,,,,,,,,,,,,,,,,,,,,,,,,,,,,,,,,,,,,,,,,,
,,RIVER,2.68613,1,,,,,,stimuli/images/PICTURE_491.png,RIVER,5e5aa39b15b8d429d07abfd4,14/09/1939,2020-09-03_19h19.44.204,proactive2,2020.1.2,Win32,60,5f5126bb654d4b30ee6923d8,5f513388e39a4714a745c0ec,1,,,,,,rug,,,,,,,,,,,1,1,0,21,21,6,1,,,,,,,,,,,,,,,,,,,,,,,,,,,,,,,,,,,,,,,,,,,,,,,,,,,,,,,,,,,,,,,,,,,,,,,,,,,,,,,,,,,,,,,,,,,,,,
,,WOMAN,2.675855,0,,,,,,stimuli/images/PICTURE_147.png,WOMEN,5e5aa39b15b8d429d07abfd4,14/09/1939,2020-09-03_19h19.44.204,proactive2,2020.1.2,Win32,60,5f5126bb654d4b30ee6923d8,5f513388e39a4714a745c0ec,1,,,,,,hanger,,,,,,,,,,,1,1,0,22,22,7,1,,,,,,,,,,,,,,,,,,,,,,,,,,,,,,,,,,,,,,,,,,,,,,,,,,,,,,,,,,,,,,,,,,,,,,,,,,,,,,,,,,,,,,,,,,,,,,
,,NATION,3.260135,1,,,,,,stimuli/images/PICTURE_85.png,NATION,5e5aa39b15b8d429d07abfd4,14/09/1939,2020-09-03_19h19.44.204,proactive2,2020.1.2,Win32,60,5f5126bb654d4b30ee6923d8,5f513388e39a4714a745c0ec,1,,,,,,diamond,,,,,,,,,,,1,1,0,23,23,5,1,,,,,,,,,,,,,,,,,,,,,,,,,,,,,,,,,,,,,,,,,,,,,,,,,,,,,,,,,,,,,,,,,,,,,,,,,,,,,,,,,,,,,,,,,,,,,,
,,?,0.006035,0,,,,,,stimuli/images/PICTURE_340.png,VALLEY,5e5aa39b15b8d429d07abfd4,14/09/1939,2020-09-03_19h19.44.204,proactive2,2020.1.2,Win32,60,5f5126bb654d4b30ee6923d8,5f513388e39a4714a745c0ec,1,,,,,,mirror,,,,,,,,,,,6,1,0,24,24,54,1,,,,,,,,,,,,,,,,,,,,,,,,,,,,,,,,,,,,,,,,,,,,,,,,,,,,,,,,,,,,,,,,,,,,,,,,,,,,,,,,,,,,,,,,,,,,,,
,,?,0.005665,0,,,,,,stimuli/images/PICTURE_296.png,LIFE,5e5aa39b15b8d429d07abfd4,14/09/1939,2020-09-03_19h19.44.204,proactive2,2020.1.2,Win32,60,5f5126bb654d4b30ee6923d8,5f513388e39a4714a745c0ec,1,,,,,,bolt,,,,,,,,,,,6,1,0,25,25,57,1,,,,,,,,,,,,,,,,,,,,,,,,,,,,,,,,,,,,,,,,,,,,,,,,,,,,,,,,,,,,,,,,,,,,,,,,,,,,,,,,,,,,,,,,,,,,,,
,,?,0.00425,0,,,,,,stimuli/images/PICTURE_297.png,RIVER,5e5aa39b15b8d429d07abfd4,14/09/1939,2020-09-03_19h19.44.204,proactive2,2020.1.2,Win32,60,5f5126bb654d4b30ee6923d8,5f513388e39a4714a745c0ec,1,,,,,,aeroplane,,,,,,,,,,,4,1,0,26,26,39,1,,,,,,,,,,,,,,,,,,,,,,,,,,,,,,,,,,,,,,,,,,,,,,,,,,,,,,,,,,,,,,,,,,,,,,,,,,,,,,,,,,,,,,,,,,,,,,
,,?,0.00311,0,,,,,,stimuli/images/PICTURE_68.png,ROOF,5e5aa39b15b8d429d07abfd4,14/09/1939,2020-09-03_19h19.44.204,proactive2,2020.1.2,Win32,60,5f5126bb654d4b30ee6923d8,5f513388e39a4714a745c0ec,1,,,,,,candle,,,,,,,,,,,4,1,0,27,27,38,1,,,,,,,,,,,,,,,,,,,,,,,,,,,,,,,,,,,,,,,,,,,,,,,,,,,,,,,,,,,,,,,,,,,,,,,,,,,,,,,,,,,,,,,,,,,,,,
,,BOYS,2.58314,1,,,,,,stimuli/images/PICTURE_95.png,BOYS,5e5aa39b15b8d429d07abfd4,14/09/1939,2020-09-03_19h19.44.204,proactive2,2020.1.2,Win32,60,5f5126bb654d4b30ee6923d8,5f513388e39a4714a745c0ec,1,,,,,,suitcase,,,,,,,,,,,1,1,0,28,28,1,1,,,,,,,,,,,,,,,,,,,,,,,,,,,,,,,,,,,,,,,,,,,,,,,,,,,,,,,,,,,,,,,,,,,,,,,,,,,,,,,,,,,,,,,,,,,,,,
,,?,0.007415,0,,,,,,stimuli/images/PICTURE_42.png,BOYS,5e5aa39b15b8d429d07abfd4,14/09/1939,2020-09-03_19h19.44.204,proactive2,2020.1.2,Win32,60,5f5126bb654d4b30ee6923d8,5f513388e39a4714a745c0ec,1,,,,,,pear,,,,,,,,,,,6,1,0,29,29,55,1,,,,,,,,,,,,,,,,,,,,,,,,,,,,,,,,,,,,,,,,,,,,,,,,,,,,,,,,,,,,,,,,,,,,,,,,,,,,,,,,,,,,,,,,,,,,,,
,,?,0.004125,0,,,,,,stimuli/images/PICTURE_340.png,LETTER,5e5aa39b15b8d429d07abfd4,14/09/1939,2020-09-03_19h19.44.204,proactive2,2020.1.2,Win32,60,5f5126bb654d4b30ee6923d8,5f513388e39a4714a745c0ec,1,,,,,,mirror,,,,,,,,,,,3,1,0,30,30,24,1,,,,,,,,,,,,,,,,,,,,,,,,,,,,,,,,,,,,,,,,,,,,,,,,,,,,,,,,,,,,,,,,,,,,,,,,,,,,,,,,,,,,,,,,,,,,,,
,,?,0.003735,0,,,,,,stimuli/images/PICTURE_32.png,KIND,5e5aa39b15b8d429d07abfd4,14/09/1939,2020-09-03_19h19.44.204,proactive2,2020.1.2,Win32,60,5f5126bb654d4b30ee6923d8,5f513388e39a4714a745c0ec,1,,,,,,crown,,,,,,,,,,,4,1,0,31,31,35,1,,,,,,,,,,,,,,,,,,,,,,,,,,,,,,,,,,,,,,,,,,,,,,,,,,,,,,,,,,,,,,,,,,,,,,,,,,,,,,,,,,,,,,,,,,,,,,
,,CANDY,3.384925,1,,,,,,stimuli/images/PICTURE_380.png,CANDY,5e5aa39b15b8d429d07abfd4,14/09/1939,2020-09-03_19h19.44.204,proactive2,2020.1.2,Win32,60,5f5126bb654d4b30ee6923d8,5f513388e39a4714a745c0ec,1,,,,,,gorilla,,,,,,,,,,,1,1,0,32,32,0,1,,,,,,,,,,,,,,,,,,,,,,,,,,,,,,,,,,,,,,,,,,,,,,,,,,,,,,,,,,,,,,,,,,,,,,,,,,,,,,,,,,,,,,,,,,,,,,
,,?,0.0067,0,,,,,,stimuli/images/PICTURE_655.png,TOILET,5e5aa39b15b8d429d07abfd4,14/09/1939,2020-09-03_19h19.44.204,proactive2,2020.1.2,Win32,60,5f5126bb654d4b30ee6923d8,5f513388e39a4714a745c0ec,1,,,,,,megaphone,,,,,,,,,,,2,1,0,33,33,12,1,,,,,,,,,,,,,,,,,,,,,,,,,,,,,,,,,,,,,,,,,,,,,,,,,,,,,,,,,,,,,,,,,,,,,,,,,,,,,,,,,,,,,,,,,,,,,,
,,NIGHT,4.08001,1,,,,,,stimuli/images/PICTURE_203.png,NIGHT,5e5aa39b15b8d429d07abfd4,14/09/1939,2020-09-03_19h19.44.204,proactive2,2020.1.2,Win32,60,5f5126bb654d4b30ee6923d8,5f513388e39a4714a745c0ec,1,,,,,,cap,,,,,,,,,,,1,1,0,34,34,2,1,,,,,,,,,,,,,,,,,,,,,,,,,,,,,,,,,,,,,,,,,,,,,,,,,,,,,,,,,,,,,,,,,,,,,,,,,,,,,,,,,,,,,,,,,,,,,,
,,?,0.007115,0,,,,,,stimuli/images/PICTURE_654.png,MONTH,5e5aa39b15b8d429d07abfd4,14/09/1939,2020-09-03_19h19.44.204,proactive2,2020.1.2,Win32,60,5f5126bb654d4b30ee6923d8,5f513388e39a4714a745c0ec,1,,,,,,pencil,,,,,,,,,,,3,1,0,35,35,29,1,,,,,,,,,,,,,,,,,,,,,,,,,,,,,,,,,,,,,,,,,,,,,,,,,,,,,,,,,,,,,,,,,,,,,,,,,,,,,,,,,,,,,,,,,,,,,,
,,?,0.00336,0,,,,,,stimuli/images/PICTURE_403.png,WRITER,5e5aa39b15b8d429d07abfd4,14/09/1939,2020-09-03_19h19.44.204,proactive2,2020.1.2,Win32,60,5f5126bb654d4b30ee6923d8,5f513388e39a4714a745c0ec,1,,,,,,cathedral,,,,,,,,,,,4,1,0,36,36,31,1,,,,,,,,,,,,,,,,,,,,,,,,,,,,,,,,,,,,,,,,,,,,,,,,,,,,,,,,,,,,,,,,,,,,,,,,,,,,,,,,,,,,,,,,,,,,,,
,,?,0.00374,0,,,,,,stimuli/images/PICTURE_32.png,PILLS,5e5aa39b15b8d429d07abfd4,14/09/1939,2020-09-03_19h19.44.204,proactive2,2020.1.2,Win32,60,5f5126bb654d4b30ee6923d8,5f513388e39a4714a745c0ec,1,,,,,,crown,,,,,,,,,,,2,1,0,37,37,18,1,,,,,,,,,,,,,,,,,,,,,,,,,,,,,,,,,,,,,,,,,,,,,,,,,,,,,,,,,,,,,,,,,,,,,,,,,,,,,,,,,,,,,,,,,,,,,,
,,?,0.00257,0,,,,,,stimuli/images/PICTURE_203.png,GODS,5e5aa39b15b8d429d07abfd4,14/09/1939,2020-09-03_19h19.44.204,proactive2,2020.1.2,Win32,60,5f5126bb654d4b30ee6923d8,5f513388e39a4714a745c0ec,1,,,,,,cap,,,,,,,,,,,4,1,0,38,38,30,1,,,,,,,,,,,,,,,,,,,,,,,,,,,,,,,,,,,,,,,,,,,,,,,,,,,,,,,,,,,,,,,,,,,,,,,,,,,,,,,,,,,,,,,,,,,,,,
,,FRIEND,2.67102,1,,,,,,stimuli/images/PICTURE_33.png,FRIEND,5e5aa39b15b8d429d07abfd4,14/09/1939,2020-09-03_19h19.44.204,proactive2,2020.1.2,Win32,60,5f5126bb654d4b30ee6923d8,5f513388e39a4714a745c0ec,1,,,,,,frame,,,,,,,,,,,1,1,0,39,39,8,1,,,,,,,,,,,,,,,,,,,,,,,,,,,,,,,,,,,,,,,,,,,,,,,,,,,,,,,,,,,,,,,,,,,,,,,,,,,,,,,,,,,,,,,,,,,,,,
,,?,0.00653,0,,,,,,stimuli/images/PICTURE_57.png,MOMENT,5e5aa39b15b8d429d07abfd4,14/09/1939,2020-09-03_19h19.44.204,proactive2,2020.1.2,Win32,60,5f5126bb654d4b30ee6923d8,5f513388e39a4714a745c0ec,1,,,,,,stamp,,,,,,,,,,,4,1,0,40,40,37,1,,,,,,,,,,,,,,,,,,,,,,,,,,,,,,,,,,,,,,,,,,,,,,,,,,,,,,,,,,,,,,,,,,,,,,,,,,,,,,,,,,,,,,,,,,,,,,
,,?,0.00536,0,,,,,,stimuli/images/PICTURE_504.png,COPS,5e5aa39b15b8d429d07abfd4,14/09/1939,2020-09-03_19h19.44.204,proactive2,2020.1.2,Win32,60,5f5126bb654d4b30ee6923d8,5f513388e39a4714a745c0ec,1,,,,,,wheel,,,,,,,,,,,6,1,0,41,41,52,1,,,,,,,,,,,,,,,,,,,,,,,,,,,,,,,,,,,,,,,,,,,,,,,,,,,,,,,,,,,,,,,,,,,,,,,,,,,,,,,,,,,,,,,,,,,,,,
,,?,0.00365,0,,,,,,stimuli/images/PICTURE_504.png,YEAR,5e5aa39b15b8d429d07abfd4,14/09/1939,2020-09-03_19h19.44.204,proactive2,2020.1.2,Win32,60,5f5126bb654d4b30ee6923d8,5f513388e39a4714a745c0ec,1,,,,,,wheel,,,,,,,,,,,2,1,0,42,42,13,1,,,,,,,,,,,,,,,,,,,,,,,,,,,,,,,,,,,,,,,,,,,,,,,,,,,,,,,,,,,,,,,,,,,,,,,,,,,,,,,,,,,,,,,,,,,,,,
,,?,0.004945,0,,,,,,stimuli/images/PICTURE_308.png,FAMILY,5e5aa39b15b8d429d07abfd4,14/09/1939,2020-09-03_19h19.44.204,proactive2,2020.1.2,Win32,60,5f5126bb654d4b30ee6923d8,5f513388e39a4714a745c0ec,1,,,,,,dice,,,,,,,,,,,4,1,0,43,43,36,1,,,,,,,,,,,,,,,,,,,,,,,,,,,,,,,,,,,,,,,,,,,,,,,,,,,,,,,,,,,,,,,,,,,,,,,,,,,,,,,,,,,,,,,,,,,,,,
,,?,0.003885,0,,,,,,stimuli/images/PICTURE_708.png,RECORD,5e5aa39b15b8d429d07abfd4,14/09/1939,2020-09-03_19h19.44.204,proactive2,2020.1.2,Win32,60,5f5126bb654d4b30ee6923d8,5f513388e39a4714a745c0ec,1,,,,,,monkey,,,,,,,,,,,6,1,0,44,44,58,1,,,,,,,,,,,,,,,,,,,,,,,,,,,,,,,,,,,,,,,,,,,,,,,,,,,,,,,,,,,,,,,,,,,,,,,,,,,,,,,,,,,,,,,,,,,,,,
,,?,0.00325,0,,,,,,stimuli/images/PICTURE_405.png,PLENTY,5e5aa39b15b8d429d07abfd4,14/09/1939,2020-09-03_19h19.44.204,proactive2,2020.1.2,Win32,60,5f5126bb654d4b30ee6923d8,5f513388e39a4714a745c0ec,1,,,,,,anchor,,,,,,,,,,,3,1,0,45,45,23,1,,,,,,,,,,,,,,,,,,,,,,,,,,,,,,,,,,,,,,,,,,,,,,,,,,,,,,,,,,,,,,,,,,,,,,,,,,,,,,,,,,,,,,,,,,,,,,
,,?,0.006115,0,,,,,,stimuli/images/PICTURE_487.png,GIRL,5e5aa39b15b8d429d07abfd4,14/09/1939,2020-09-03_19h19.44.204,proactive2,2020.1.2,Win32,60,5f5126bb654d4b30ee6923d8,5f513388e39a4714a745c0ec,1,,,,,,basket,,,,,,,,,,,5,1,0,46,46,45,1,,,,,,,,,,,,,,,,,,,,,,,,,,,,,,,,,,,,,,,,,,,,,,,,,,,,,,,,,,,,,,,,,,,,,,,,,,,,,,,,,,,,,,,,,,,,,,
,,SERIES,2.633345,1,,,,,,stimuli/images/PICTURE_327.png,SERIES,5e5aa39b15b8d429d07abfd4,14/09/1939,2020-09-03_19h19.44.204,proactive2,2020.1.2,Win32,60,5f5126bb654d4b30ee6923d8,5f513388e39a4714a745c0ec,1,,,,,,helmet,,,,,,,,,,,1,1,0,47,47,3,1,,,,,,,,,,,,,,,,,,,,,,,,,,,,,,,,,,,,,,,,,,,,,,,,,,,,,,,,,,,,,,,,,,,,,,,,,,,,,,,,,,,,,,,,,,,,,,
,,?,0.006745,0,,,,,,stimuli/images/PICTURE_667.png,RIVER,5e5aa39b15b8d429d07abfd4,14/09/1939,2020-09-03_19h19.44.204,proactive2,2020.1.2,Win32,60,5f5126bb654d4b30ee6923d8,5f513388e39a4714a745c0ec,1,,,,,,daisy,,,,,,,,,,,2,1,0,48,48,10,1,,,,,,,,,,,,,,,,,,,,,,,,,,,,,,,,,,,,,,,,,,,,,,,,,,,,,,,,,,,,,,,,,,,,,,,,,,,,,,,,,,,,,,,,,,,,,,
,,?,0.0036,0,,,,,,stimuli/images/PICTURE_449.png,DUDE,5e5aa39b15b8d429d07abfd4,14/09/1939,2020-09-03_19h19.44.204,proactive2,2020.1.2,Win32,60,5f5126bb654d4b30ee6923d8,5f513388e39a4714a745c0ec,1,,,,,,bench,,,,,,,,,,,2,1,0,49,49,17,1,,,,,,,,,,,,,,,,,,,,,,,,,,,,,,,,,,,,,,,,,,,,,,,,,,,,,,,,,,,,,,,,,,,,,,,,,,,,,,,,,,,,,,,,,,,,,,
,,?,0.00368,0,,,,,,stimuli/images/PICTURE_233.png,LOTS,5e5aa39b15b8d429d07abfd4,14/09/1939,2020-09-03_19h19.44.204,proactive2,2020.1.2,Win32,60,5f5126bb654d4b30ee6923d8,5f513388e39a4714a745c0ec,1,,,,,,salt,,,,,,,,,,,5,1,0,50,50,42,1,,,,,,,,,,,,,,,,,,,,,,,,,,,,,,,,,,,,,,,,,,,,,,,,,,,,,,,,,,,,,,,,,,,,,,,,,,,,,,,,,,,,,,,,,,,,,,
,,?,0.004155,0,,,,,,stimuli/images/PICTURE_405.png,YEAR,5e5aa39b15b8d429d07abfd4,14/09/1939,2020-09-03_19h19.44.204,proactive2,2020.1.2,Win32,60,5f5126bb654d4b30ee6923d8,5f513388e39a4714a745c0ec,1,,,,,,anchor,,,,,,,,,,,4,1,0,51,51,34,1,,,,,,,,,,,,,,,,,,,,,,,,,,,,,,,,,,,,,,,,,,,,,,,,,,,,,,,,,,,,,,,,,,,,,,,,,,,,,,,,,,,,,,,,,,,,,,
,,?,0.003495,0,,,,,,stimuli/images/PICTURE_208.png,SYSTEM,5e5aa39b15b8d429d07abfd4,14/09/1939,2020-09-03_19h19.44.204,proactive2,2020.1.2,Win32,60,5f5126bb654d4b30ee6923d8,5f513388e39a4714a745c0ec,1,,,,,,microphone,,,,,,,,,,,4,1,0,52,52,32,1,,,,,,,,,,,,,,,,,,,,,,,,,,,,,,,,,,,,,,,,,,,,,,,,,,,,,,,,,,,,,,,,,,,,,,,,,,,,,,,,,,,,,,,,,,,,,,
,,?,0.004015,0,,,,,,stimuli/images/PICTURE_147.png,YEAR,5e5aa39b15b8d429d07abfd4,14/09/1939,2020-09-03_19h19.44.204,proactive2,2020.1.2,Win32,60,5f5126bb654d4b30ee6923d8,5f513388e39a4714a745c0ec,1,,,,,,hanger,,,,,,,,,,,3,1,0,53,53,21,1,,,,,,,,,,,,,,,,,,,,,,,,,,,,,,,,,,,,,,,,,,,,,,,,,,,,,,,,,,,,,,,,,,,,,,,,,,,,,,,,,,,,,,,,,,,,,,
,,?,0.00458,0,,,,,,stimuli/images/PICTURE_491.png,GLASS,5e5aa39b15b8d429d07abfd4,14/09/1939,2020-09-03_19h19.44.204,proactive2,2020.1.2,Win32,60,5f5126bb654d4b30ee6923d8,5f513388e39a4714a745c0ec,1,,,,,,rug,,,,,,,,,,,2,1,0,54,54,14,1,,,,,,,,,,,,,,,,,,,,,,,,,,,,,,,,,,,,,,,,,,,,,,,,,,,,,,,,,,,,,,,,,,,,,,,,,,,,,,,,,,,,,,,,,,,,,,
,,?,0.00314,0,,,,,,stimuli/images/PICTURE_95.png,MILLER,5e5aa39b15b8d429d07abfd4,14/09/1939,2020-09-03_19h19.44.204,proactive2,2020.1.2,Win32,60,5f5126bb654d4b30ee6923d8,5f513388e39a4714a745c0ec,1,,,,,,suitcase,,,,,,,,,,,6,1,0,55,55,56,1,,,,,,,,,,,,,,,,,,,,,,,,,,,,,,,,,,,,,,,,,,,,,,,,,,,,,,,,,,,,,,,,,,,,,,,,,,,,,,,,,,,,,,,,,,,,,,
,,?,0.003685,0,,,,,,stimuli/images/PICTURE_68.png,MILE,5e5aa39b15b8d429d07abfd4,14/09/1939,2020-09-03_19h19.44.204,proactive2,2020.1.2,Win32,60,5f5126bb654d4b30ee6923d8,5f513388e39a4714a745c0ec,1,,,,,,candle,,,,,,,,,,,6,1,0,56,56,51,1,,,,,,,,,,,,,,,,,,,,,,,,,,,,,,,,,,,,,,,,,,,,,,,,,,,,,,,,,,,,,,,,,,,,,,,,,,,,,,,,,,,,,,,,,,,,,,
,,?,0.0031,0,,,,,,stimuli/images/PICTURE_339.png,CLIENT,5e5aa39b15b8d429d07abfd4,14/09/1939,2020-09-03_19h19.44.204,proactive2,2020.1.2,Win32,60,5f5126bb654d4b30ee6923d8,5f513388e39a4714a745c0ec,1,,,,,,backpack,,,,,,,,,,,2,1,0,57,57,11,1,,,,,,,,,,,,,,,,,,,,,,,,,,,,,,,,,,,,,,,,,,,,,,,,,,,,,,,,,,,,,,,,,,,,,,,,,,,,,,,,,,,,,,,,,,,,,,
,,?,0.002905,0,,,,,,stimuli/images/PICTURE_504.png,ARTIST,5e5aa39b15b8d429d07abfd4,14/09/1939,2020-09-03_19h19.44.204,proactive2,2020.1.2,Win32,60,5f5126bb654d4b30ee6923d8,5f513388e39a4714a745c0ec,1,,,,,,wheel,,,,,,,,,,,5,1,0,58,58,49,1,,,,,,,,,,,,,,,,,,,,,,,,,,,,,,,,,,,,,,,,,,,,,,,,,,,,,,,,,,,,,,,,,,,,,,,,,,,,,,,,,,,,,,,,,,,,,,
,,?,0.00277,0,,,,,,stimuli/images/PICTURE_677.png,APPLE,5e5aa39b15b8d429d07abfd4,14/09/1939,2020-09-03_19h19.44.204,proactive2,2020.1.2,Win32,60,5f5126bb654d4b30ee6923d8,5f513388e39a4714a745c0ec,1,,,,,,map,,,,,,,,,,,5,1,0,59,59,43,1,,,,,,,,,,,,,,,,,,,,,,,,,,,,,,,,,,,,,,,,,,,,,,,,,,,,,,,,,,,,,,,,,,,,,,,,,,,,,,,,,,,,,,,,,,,,,,
,,,,,,,,,,,,5e5aa39b15b8d429d07abfd4,14/09/1939,2020-09-03_19h19.44.204,proactive2,2020.1.2,Win32,60,5f5126bb654d4b30ee6923d8,5f513388e39a4714a745c0ec,1,,,,,,,,,,,,,,,,,,,,,,,,0,0,0,1,1,stimuli/learn-block2.csv,,,,,,,,,,,,,,,,,,,,,,,,,,,,,,,,,,,,,,,,,,,,,,,,,,,,,,,,,,,,,,,,,,,,,,,,,,,,,,,,,,,,,,,,
,,,,,,,,,,stimuli/images/PICTURE_487.png,FLIGHT,5e5aa39b15b8d429d07abfd4,14/09/1939,2020-09-03_19h19.44.204,proactive2,2020.1.2,Win32,60,5f5126bb654d4b30ee6923d8,5f513388e39a4714a745c0ec,1,,,,,,basket,,,,,,0,0,0,9,1,1,0,,,,,,,,,,,,,,,,,,,,,,,,,,,,,,,,,,,,,,,,,,,,,,,,,,,,,,,,,,,,,,,,,,,,,,,,,,,,,,,,,,,,,,,,,,,,,,,,,,,
,,,,,,,,,,stimuli/images/PICTURE_469.png,LETTER,5e5aa39b15b8d429d07abfd4,14/09/1939,2020-09-03_19h19.44.204,proactive2,2020.1.2,Win32,60,5f5126bb654d4b30ee6923d8,5f513388e39a4714a745c0ec,1,,,,,,stool,,,,,,0,1,1,42,1,5,0,,,,,,,,,,,,,,,,,,,,,,,,,,,,,,,,,,,,,,,,,,,,,,,,,,,,,,,,,,,,,,,,,,,,,,,,,,,,,,,,,,,,,,,,,,,,,,,,,,,
,,,,,,,,,,stimuli/images/PICTURE_311.png,BEAUTY,5e5aa39b15b8d429d07abfd4,14/09/1939,2020-09-03_19h19.44.204,proactive2,2020.1.2,Win32,60,5f5126bb654d4b30ee6923d8,5f513388e39a4714a745c0ec,1,,,,,,razor,,,,,,0,2,2,13,1,2,0,,,,,,,,,,,,,,,,,,,,,,,,,,,,,,,,,,,,,,,,,,,,,,,,,,,,,,,,,,,,,,,,,,,,,,,,,,,,,,,,,,,,,,,,,,,,,,,,,,,
,,,,,,,,,,stimuli/images/PICTURE_654.png,VALLEY,5e5aa39b15b8d429d07abfd4,14/09/1939,2020-09-03_19h19.44.204,proactive2,2020.1.2,Win32,60,5f5126bb654d4b30ee6923d8,5f513388e39a4714a745c0ec,1,,,,,,pencil,,,,,,0,3,3,1,1,1,0,,,,,,,,,,,,,,,,,,,,,,,,,,,,,,,,,,,,,,,,,,,,,,,,,,,,,,,,,,,,,,,,,,,,,,,,,,,,,,,,,,,,,,,,,,,,,,,,,,,
,,,,,,,,,,stimuli/images/PICTURE_123.png,ADVICE,5e5aa39b15b8d429d07abfd4,14/09/1939,2020-09-03_19h19.44.204,proactive2,2020.1.2,Win32,60,5f5126bb654d4b30ee6923d8,5f513388e39a4714a745c0ec,1,,,,,,dart,,,,,,0,4,4,50,1,6,0,,,,,,,,,,,,,,,,,,,,,,,,,,,,,,,,,,,,,,,,,,,,,,,,,,,,,,,,,,,,,,,,,,,,,,,,,,,,,,,,,,,,,,,,,,,,,,,,,,,
,,,,,,,,,,stimuli/images/PICTURE_302.png,FAMILY,5e5aa39b15b8d429d07abfd4,14/09/1939,2020-09-03_19h19.44.204,proactive2,2020.1.2,Win32,60,5f5126bb654d4b30ee6923d8,5f513388e39a4714a745c0ec,1,,,,,,taxi,,,,,,0,5,5,18,1,2,0,,,,,,,,,,,,,,,,,,,,,,,,,,,,,,,,,,,,,,,,,,,,,,,,,,,,,,,,,,,,,,,,,,,,,,,,,,,,,,,,,,,,,,,,,,,,,,,,,,,
,,,,,,,,,,stimuli/images/PICTURE_380.png,DEATH,5e5aa39b15b8d429d07abfd4,14/09/1939,2020-09-03_19h19.44.204,proactive2,2020.1.2,Win32,60,5f5126bb654d4b30ee6923d8,5f513388e39a4714a745c0ec,1,,,,,,gorilla,,,,,,0,6,6,49,1,5,0,,,,,,,,,,,,,,,,,,,,,,,,,,,,,,,,,,,,,,,,,,,,,,,,,,,,,,,,,,,,,,,,,,,,,,,,,,,,,,,,,,,,,,,,,,,,,,,,,,,
,,,,,,,,,,stimuli/images/PICTURE_147.png,MOMENT,5e5aa39b15b8d429d07abfd4,14/09/1939,2020-09-03_19h19.44.204,proactive2,2020.1.2,Win32,60,5f5126bb654d4b30ee6923d8,5f513388e39a4714a745c0ec,1,,,,,,hanger,,,,,,0,7,7,51,1,6,0,,,,,,,,,,,,,,,,,,,,,,,,,,,,,,,,,,,,,,,,,,,,,,,,,,,,,,,,,,,,,,,,,,,,,,,,,,,,,,,,,,,,,,,,,,,,,,,,,,,
,,,,,,,,,,stimuli/images/PICTURE_314.png,GODS,5e5aa39b15b8d429d07abfd4,14/09/1939,2020-09-03_19h19.44.204,proactive2,2020.1.2,Win32,60,5f5126bb654d4b30ee6923d8,5f513388e39a4714a745c0ec,1,,,,,,perfume,,,,,,0,8,8,11,1,2,0,,,,,,,,,,,,,,,,,,,,,,,,,,,,,,,,,,,,,,,,,,,,,,,,,,,,,,,,,,,,,,,,,,,,,,,,,,,,,,,,,,,,,,,,,,,,,,,,,,,
,,,,,,,,,,stimuli/images/PICTURE_151.png,GIRL,5e5aa39b15b8d429d07abfd4,14/09/1939,2020-09-03_19h19.44.204,proactive2,2020.1.2,Win32,60,5f5126bb654d4b30ee6923d8,5f513388e39a4714a745c0ec,1,,,,,,tray,,,,,,0,9,9,19,1,2,0,,,,,,,,,,,,,,,,,,,,,,,,,,,,,,,,,,,,,,,,,,,,,,,,,,,,,,,,,,,,,,,,,,,,,,,,,,,,,,,,,,,,,,,,,,,,,,,,,,,
,,,,,,,,,,stimuli/images/PICTURE_692.png,MONTH,5e5aa39b15b8d429d07abfd4,14/09/1939,2020-09-03_19h19.44.204,proactive2,2020.1.2,Win32,60,5f5126bb654d4b30ee6923d8,5f513388e39a4714a745c0ec,1,,,,,,cherry,,,,,,0,10,10,16,1,2,0,,,,,,,,,,,,,,,,,,,,,,,,,,,,,,,,,,,,,,,,,,,,,,,,,,,,,,,,,,,,,,,,,,,,,,,,,,,,,,,,,,,,,,,,,,,,,,,,,,,
,,,,,,,,,,stimuli/images/PICTURE_449.png,THING,5e5aa39b15b8d429d07abfd4,14/09/1939,2020-09-03_19h19.44.204,proactive2,2020.1.2,Win32,60,5f5126bb654d4b30ee6923d8,5f513388e39a4714a745c0ec,1,,,,,,bench,,,,,,0,11,11,59,1,6,0,,,,,,,,,,,,,,,,,,,,,,,,,,,,,,,,,,,,,,,,,,,,,,,,,,,,,,,,,,,,,,,,,,,,,,,,,,,,,,,,,,,,,,,,,,,,,,,,,,,
,,,,,,,,,,stimuli/images/PICTURE_160.png,FEET,5e5aa39b15b8d429d07abfd4,14/09/1939,2020-09-03_19h19.44.204,proactive2,2020.1.2,Win32,60,5f5126bb654d4b30ee6923d8,5f513388e39a4714a745c0ec,1,,,,,,wheelbarrow,,,,,,0,12,12,58,1,6,0,,,,,,,,,,,,,,,,,,,,,,,,,,,,,,,,,,,,,,,,,,,,,,,,,,,,,,,,,,,,,,,,,,,,,,,,,,,,,,,,,,,,,,,,,,,,,,,,,,,
,,,,,,,,,,stimuli/images/PICTURE_327.png,BEAUTY,5e5aa39b15b8d429d07abfd4,14/09/1939,2020-09-03_19h19.44.204,proactive2,2020.1.2,Win32,60,5f5126bb654d4b30ee6923d8,5f513388e39a4714a745c0ec,1,,,,,,helmet,,,,,,0,13,13,48,1,5,0,,,,,,,,,,,,,,,,,,,,,,,,,,,,,,,,,,,,,,,,,,,,,,,,,,,,,,,,,,,,,,,,,,,,,,,,,,,,,,,,,,,,,,,,,,,,,,,,,,,
,,,,,,,,,,stimuli/images/PICTURE_160.png,LEADER,5e5aa39b15b8d429d07abfd4,14/09/1939,2020-09-03_19h19.44.204,proactive2,2020.1.2,Win32,60,5f5126bb654d4b30ee6923d8,5f513388e39a4714a745c0ec,1,,,,,,wheelbarrow,,,,,,0,14,14,3,1,1,0,,,,,,,,,,,,,,,,,,,,,,,,,,,,,,,,,,,,,,,,,,,,,,,,,,,,,,,,,,,,,,,,,,,,,,,,,,,,,,,,,,,,,,,,,,,,,,,,,,,
,,,,,,,,,,stimuli/images/PICTURE_744.png,SYSTEM,5e5aa39b15b8d429d07abfd4,14/09/1939,2020-09-03_19h19.44.204,proactive2,2020.1.2,Win32,60,5f5126bb654d4b30ee6923d8,5f513388e39a4714a745c0ec,1,,,,,,ring,,,,,,0,15,15,43,1,5,0,,,,,,,,,,,,,,,,,,,,,,,,,,,,,,,,,,,,,,,,,,,,,,,,,,,,,,,,,,,,,,,,,,,,,,,,,,,,,,,,,,,,,,,,,,,,,,,,,,,
,,,,,,,,,,stimuli/images/PICTURE_215.png,PLENTY,5e5aa39b15b8d429d07abfd4,14/09/1939,2020-09-03_19h19.44.204,proactive2,2020.1.2,Win32,60,5f5126bb654d4b30ee6923d8,5f513388e39a4714a745c0ec,1,,,,,,boot,,,,,,0,16,16,37,1,4,0,,,,,,,,,,,,,,,,,,,,,,,,,,,,,,,,,,,,,,,,,,,,,,,,,,,,,,,,,,,,,,,,,,,,,,,,,,,,,,,,,,,,,,,,,,,,,,,,,,,
,,,,,,,,,,stimuli/images/PICTURE_356.png,DANGER,5e5aa39b15b8d429d07abfd4,14/09/1939,2020-09-03_19h19.44.204,proactive2,2020.1.2,Win32,60,5f5126bb654d4b30ee6923d8,5f513388e39a4714a745c0ec,1,,,,,,pawn,,,,,,0,17,17,55,1,6,0,,,,,,,,,,,,,,,,,,,,,,,,,,,,,,,,,,,,,,,,,,,,,,,,,,,,,,,,,,,,,,,,,,,,,,,,,,,,,,,,,,,,,,,,,,,,,,,,,,,
,,,,,,,,,,stimuli/images/PICTURE_453.png,PLENTY,5e5aa39b15b8d429d07abfd4,14/09/1939,2020-09-03_19h19.44.204,proactive2,2020.1.2,Win32,60,5f5126bb654d4b30ee6923d8,5f513388e39a4714a745c0ec,1,,,,,,scissors,,,,,,0,18,18,56,1,6,0,,,,,,,,,,,,,,,,,,,,,,,,,,,,,,,,,,,,,,,,,,,,,,,,,,,,,,,,,,,,,,,,,,,,,,,,,,,,,,,,,,,,,,,,,,,,,,,,,,,
,,,,,,,,,,stimuli/images/PICTURE_467.png,DEMON,5e5aa39b15b8d429d07abfd4,14/09/1939,2020-09-03_19h19.44.204,proactive2,2020.1.2,Win32,60,5f5126bb654d4b30ee6923d8,5f513388e39a4714a745c0ec,1,,,,,,peg,,,,,,0,19,19,23,1,3,0,,,,,,,,,,,,,,,,,,,,,,,,,,,,,,,,,,,,,,,,,,,,,,,,,,,,,,,,,,,,,,,,,,,,,,,,,,,,,,,,,,,,,,,,,,,,,,,,,,,
,,,,,,,,,,stimuli/images/PICTURE_85.png,THING,5e5aa39b15b8d429d07abfd4,14/09/1939,2020-09-03_19h19.44.204,proactive2,2020.1.2,Win32,60,5f5126bb654d4b30ee6923d8,5f513388e39a4714a745c0ec,1,,,,,,diamond,,,,,,0,20,20,15,1,2,0,,,,,,,,,,,,,,,,,,,,,,,,,,,,,,,,,,,,,,,,,,,,,,,,,,,,,,,,,,,,,,,,,,,,,,,,,,,,,,,,,,,,,,,,,,,,,,,,,,,
,,,,,,,,,,stimuli/images/PICTURE_453.png,DUDE,5e5aa39b15b8d429d07abfd4,14/09/1939,2020-09-03_19h19.44.204,proactive2,2020.1.2,Win32,60,5f5126bb654d4b30ee6923d8,5f513388e39a4714a745c0ec,1,,,,,,scissors,,,,,,0,21,21,27,1,3,0,,,,,,,,,,,,,,,,,,,,,,,,,,,,,,,,,,,,,,,,,,,,,,,,,,,,,,,,,,,,,,,,,,,,,,,,,,,,,,,,,,,,,,,,,,,,,,,,,,,
,,,,,,,,,,stimuli/images/PICTURE_314.png,SAKE,5e5aa39b15b8d429d07abfd4,14/09/1939,2020-09-03_19h19.44.204,proactive2,2020.1.2,Win32,60,5f5126bb654d4b30ee6923d8,5f513388e39a4714a745c0ec,1,,,,,,perfume,,,,,,0,22,22,7,1,1,0,,,,,,,,,,,,,,,,,,,,,,,,,,,,,,,,,,,,,,,,,,,,,,,,,,,,,,,,,,,,,,,,,,,,,,,,,,,,,,,,,,,,,,,,,,,,,,,,,,,
,,,,,,,,,,stimuli/images/PICTURE_177.png,CARS,5e5aa39b15b8d429d07abfd4,14/09/1939,2020-09-03_19h19.44.204,proactive2,2020.1.2,Win32,60,5f5126bb654d4b30ee6923d8,5f513388e39a4714a745c0ec,1,,,,,,mushroom,,,,,,0,23,23,35,1,4,0,,,,,,,,,,,,,,,,,,,,,,,,,,,,,,,,,,,,,,,,,,,,,,,,,,,,,,,,,,,,,,,,,,,,,,,,,,,,,,,,,,,,,,,,,,,,,,,,,,,
,,,,,,,,,,stimuli/images/PICTURE_688.png,CASINO,5e5aa39b15b8d429d07abfd4,14/09/1939,2020-09-03_19h19.44.204,proactive2,2020.1.2,Win32,60,5f5126bb654d4b30ee6923d8,5f513388e39a4714a745c0ec,1,,,,,,runner,,,,,,0,24,24,2,1,1,0,,,,,,,,,,,,,,,,,,,,,,,,,,,,,,,,,,,,,,,,,,,,,,,,,,,,,,,,,,,,,,,,,,,,,,,,,,,,,,,,,,,,,,,,,,,,,,,,,,,
,,,,,,,,,,stimuli/images/PICTURE_677.png,MILE,5e5aa39b15b8d429d07abfd4,14/09/1939,2020-09-03_19h19.44.204,proactive2,2020.1.2,Win32,60,5f5126bb654d4b30ee6923d8,5f513388e39a4714a745c0ec,1,,,,,,map,,,,,,0,25,25,30,1,4,0,,,,,,,,,,,,,,,,,,,,,,,,,,,,,,,,,,,,,,,,,,,,,,,,,,,,,,,,,,,,,,,,,,,,,,,,,,,,,,,,,,,,,,,,,,,,,,,,,,,
,,,,,,,,,,stimuli/images/PICTURE_233.png,IDEAS,5e5aa39b15b8d429d07abfd4,14/09/1939,2020-09-03_19h19.44.204,proactive2,2020.1.2,Win32,60,5f5126bb654d4b30ee6923d8,5f513388e39a4714a745c0ec,1,,,,,,salt,,,,,,0,26,26,28,1,3,0,,,,,,,,,,,,,,,,,,,,,,,,,,,,,,,,,,,,,,,,,,,,,,,,,,,,,,,,,,,,,,,,,,,,,,,,,,,,,,,,,,,,,,,,,,,,,,,,,,,
,,,,,,,,,,stimuli/images/PICTURE_675.png,WEAPON,5e5aa39b15b8d429d07abfd4,14/09/1939,2020-09-03_19h19.44.204,proactive2,2020.1.2,Win32,60,5f5126bb654d4b30ee6923d8,5f513388e39a4714a745c0ec,1,,,,,,windmill,,,,,,0,27,27,32,1,4,0,,,,,,,,,,,,,,,,,,,,,,,,,,,,,,,,,,,,,,,,,,,,,,,,,,,,,,,,,,,,,,,,,,,,,,,,,,,,,,,,,,,,,,,,,,,,,,,,,,,
,,,,,,,,,,stimuli/images/PICTURE_469.png,ARTIST,5e5aa39b15b8d429d07abfd4,14/09/1939,2020-09-03_19h19.44.204,proactive2,2020.1.2,Win32,60,5f5126bb654d4b30ee6923d8,5f513388e39a4714a745c0ec,1,,,,,,stool,,,,,,0,28,28,6,1,1,0,,,,,,,,,,,,,,,,,,,,,,,,,,,,,,,,,,,,,,,,,,,,,,,,,,,,,,,,,,,,,,,,,,,,,,,,,,,,,,,,,,,,,,,,,,,,,,,,,,,
,,,,,,,,,,stimuli/images/PICTURE_233.png,WOMEN,5e5aa39b15b8d429d07abfd4,14/09/1939,2020-09-03_19h19.44.204,proactive2,2020.1.2,Win32,60,5f5126bb654d4b30ee6923d8,5f513388e39a4714a745c0ec,1,,,,,,salt,,,,,,0,29,29,38,1,4,0,,,,,,,,,,,,,,,,,,,,,,,,,,,,,,,,,,,,,,,,,,,,,,,,,,,,,,,,,,,,,,,,,,,,,,,,,,,,,,,,,,,,,,,,,,,,,,,,,,,
,,,,,,,,,,stimuli/images/PICTURE_708.png,YARD,5e5aa39b15b8d429d07abfd4,14/09/1939,2020-09-03_19h19.44.204,proactive2,2020.1.2,Win32,60,5f5126bb654d4b30ee6923d8,5f513388e39a4714a745c0ec,1,,,,,,monkey,,,,,,0,30,30,29,1,3,0,,,,,,,,,,,,,,,,,,,,,,,,,,,,,,,,,,,,,,,,,,,,,,,,,,,,,,,,,,,,,,,,,,,,,,,,,,,,,,,,,,,,,,,,,,,,,,,,,,,
,,,,,,,,,,stimuli/images/PICTURE_285.png,ADVICE,5e5aa39b15b8d429d07abfd4,14/09/1939,2020-09-03_19h19.44.204,proactive2,2020.1.2,Win32,60,5f5126bb654d4b30ee6923d8,5f513388e39a4714a745c0ec,1,,,,,,carrot,,,,,,0,31,31,12,1,2,0,,,,,,,,,,,,,,,,,,,,,,,,,,,,,,,,,,,,,,,,,,,,,,,,,,,,,,,,,,,,,,,,,,,,,,,,,,,,,,,,,,,,,,,,,,,,,,,,,,,
,,,,,,,,,,stimuli/images/PICTURE_488.png,STYLE,5e5aa39b15b8d429d07abfd4,14/09/1939,2020-09-03_19h19.44.204,proactive2,2020.1.2,Win32,60,5f5126bb654d4b30ee6923d8,5f513388e39a4714a745c0ec,1,,,,,,sun,,,,,,0,32,32,33,1,4,0,,,,,,,,,,,,,,,,,,,,,,,,,,,,,,,,,,,,,,,,,,,,,,,,,,,,,,,,,,,,,,,,,,,,,,,,,,,,,,,,,,,,,,,,,,,,,,,,,,,
,,,,,,,,,,stimuli/images/PICTURE_380.png,PHOTO,5e5aa39b15b8d429d07abfd4,14/09/1939,2020-09-03_19h19.44.204,proactive2,2020.1.2,Win32,60,5f5126bb654d4b30ee6923d8,5f513388e39a4714a745c0ec,1,,,,,,gorilla,,,,,,0,33,33,52,1,6,0,,,,,,,,,,,,,,,,,,,,,,,,,,,,,,,,,,,,,,,,,,,,,,,,,,,,,,,,,,,,,,,,,,,,,,,,,,,,,,,,,,,,,,,,,,,,,,,,,,,
,,,,,,,,,,stimuli/images/PICTURE_208.png,MONTH,5e5aa39b15b8d429d07abfd4,14/09/1939,2020-09-03_19h19.44.204,proactive2,2020.1.2,Win32,60,5f5126bb654d4b30ee6923d8,5f513388e39a4714a745c0ec,1,,,,,,microphone,,,,,,0,34,34,53,1,6,0,,,,,,,,,,,,,,,,,,,,,,,,,,,,,,,,,,,,,,,,,,,,,,,,,,,,,,,,,,,,,,,,,,,,,,,,,,,,,,,,,,,,,,,,,,,,,,,,,,,
,,,,,,,,,,stimuli/images/PICTURE_504.png,BODY,5e5aa39b15b8d429d07abfd4,14/09/1939,2020-09-03_19h19.44.204,proactive2,2020.1.2,Win32,60,5f5126bb654d4b30ee6923d8,5f513388e39a4714a745c0ec,1,,,,,,wheel,,,,,,0,35,35,8,1,1,0,,,,,,,,,,,,,,,,,,,,,,,,,,,,,,,,,,,,,,,,,,,,,,,,,,,,,,,,,,,,,,,,,,,,,,,,,,,,,,,,,,,,,,,,,,,,,,,,,,,
,,,,,,,,,,stimuli/images/PICTURE_667.png,BATH,5e5aa39b15b8d429d07abfd4,14/09/1939,2020-09-03_19h19.44.204,proactive2,2020.1.2,Win32,60,5f5126bb654d4b30ee6923d8,5f513388e39a4714a745c0ec,1,,,,,,daisy,,,,,,0,36,36,4,1,1,0,,,,,,,,,,,,,,,,,,,,,,,,,,,,,,,,,,,,,,,,,,,,,,,,,,,,,,,,,,,,,,,,,,,,,,,,,,,,,,,,,,,,,,,,,,,,,,,,,,,
,,,,,,,,,,stimuli/images/PICTURE_470.png,CASINO,5e5aa39b15b8d429d07abfd4,14/09/1939,2020-09-03_19h19.44.204,proactive2,2020.1.2,Win32,60,5f5126bb654d4b30ee6923d8,5f513388e39a4714a745c0ec,1,,,,,,motorbike,,,,,,0,37,37,36,1,4,0,,,,,,,,,,,,,,,,,,,,,,,,,,,,,,,,,,,,,,,,,,,,,,,,,,,,,,,,,,,,,,,,,,,,,,,,,,,,,,,,,,,,,,,,,,,,,,,,,,,
,,,,,,,,,,stimuli/images/PICTURE_123.png,ADVICE,5e5aa39b15b8d429d07abfd4,14/09/1939,2020-09-03_19h19.44.204,proactive2,2020.1.2,Win32,60,5f5126bb654d4b30ee6923d8,5f513388e39a4714a745c0ec,1,,,,,,dart,,,,,,0,38,38,40,1,5,0,,,,,,,,,,,,,,,,,,,,,,,,,,,,,,,,,,,,,,,,,,,,,,,,,,,,,,,,,,,,,,,,,,,,,,,,,,,,,,,,,,,,,,,,,,,,,,,,,,,
,,,,,,,,,,stimuli/images/PICTURE_509.png,PHOTO,5e5aa39b15b8d429d07abfd4,14/09/1939,2020-09-03_19h19.44.204,proactive2,2020.1.2,Win32,60,5f5126bb654d4b30ee6923d8,5f513388e39a4714a745c0ec,1,,,,,,telephone,,,,,,0,39,39,21,1,3,0,,,,,,,,,,,,,,,,,,,,,,,,,,,,,,,,,,,,,,,,,,,,,,,,,,,,,,,,,,,,,,,,,,,,,,,,,,,,,,,,,,,,,,,,,,,,,,,,,,,
,,,,,,,,,,stimuli/images/PICTURE_208.png,THING,5e5aa39b15b8d429d07abfd4,14/09/1939,2020-09-03_19h19.44.204,proactive2,2020.1.2,Win32,60,5f5126bb654d4b30ee6923d8,5f513388e39a4714a745c0ec,1,,,,,,microphone,,,,,,0,40,40,47,1,5,0,,,,,,,,,,,,,,,,,,,,,,,,,,,,,,,,,,,,,,,,,,,,,,,,,,,,,,,,,,,,,,,,,,,,,,,,,,,,,,,,,,,,,,,,,,,,,,,,,,,
,,,,,,,,,,stimuli/images/PICTURE_255.png,AREA,5e5aa39b15b8d429d07abfd4,14/09/1939,2020-09-03_19h19.44.204,proactive2,2020.1.2,Win32,60,5f5126bb654d4b30ee6923d8,5f513388e39a4714a745c0ec,1,,,,,,shovel,,,,,,0,41,41,22,1,3,0,,,,,,,,,,,,,,,,,,,,,,,,,,,,,,,,,,,,,,,,,,,,,,,,,,,,,,,,,,,,,,,,,,,,,,,,,,,,,,,,,,,,,,,,,,,,,,,,,,,
,,,,,,,,,,stimuli/images/PICTURE_308.png,KIND,5e5aa39b15b8d429d07abfd4,14/09/1939,2020-09-03_19h19.44.204,proactive2,2020.1.2,Win32,60,5f5126bb654d4b30ee6923d8,5f513388e39a4714a745c0ec,1,,,,,,dice,,,,,,0,42,42,54,1,6,0,,,,,,,,,,,,,,,,,,,,,,,,,,,,,,,,,,,,,,,,,,,,,,,,,,,,,,,,,,,,,,,,,,,,,,,,,,,,,,,,,,,,,,,,,,,,,,,,,,,
,,,,,,,,,,stimuli/images/PICTURE_308.png,ESTATE,5e5aa39b15b8d429d07abfd4,14/09/1939,2020-09-03_19h19.44.204,proactive2,2020.1.2,Win32,60,5f5126bb654d4b30ee6923d8,5f513388e39a4714a745c0ec,1,,,,,,dice,,,,,,0,43,43,46,1,5,0,,,,,,,,,,,,,,,,,,,,,,,,,,,,,,,,,,,,,,,,,,,,,,,,,,,,,,,,,,,,,,,,,,,,,,,,,,,,,,,,,,,,,,,,,,,,,,,,,,,
,,,,,,,,,,stimuli/images/PICTURE_491.png,ROOF,5e5aa39b15b8d429d07abfd4,14/09/1939,2020-09-03_19h19.44.204,proactive2,2020.1.2,Win32,60,5f5126bb654d4b30ee6923d8,5f513388e39a4714a745c0ec,1,,,,,,rug,,,,,,0,44,44,24,1,3,0,,,,,,,,,,,,,,,,,,,,,,,,,,,,,,,,,,,,,,,,,,,,,,,,,,,,,,,,,,,,,,,,,,,,,,,,,,,,,,,,,,,,,,,,,,,,,,,,,,,
,,,,,,,,,,stimuli/images/PICTURE_708.png,PENNY,5e5aa39b15b8d429d07abfd4,14/09/1939,2020-09-03_19h19.44.204,proactive2,2020.1.2,Win32,60,5f5126bb654d4b30ee6923d8,5f513388e39a4714a745c0ec,1,,,,,,monkey,,,,,,0,45,45,31,1,4,0,,,,,,,,,,,,,,,,,,,,,,,,,,,,,,,,,,,,,,,,,,,,,,,,,,,,,,,,,,,,,,,,,,,,,,,,,,,,,,,,,,,,,,,,,,,,,,,,,,,
,,,,,,,,,,stimuli/images/PICTURE_95.png,STYLE,5e5aa39b15b8d429d07abfd4,14/09/1939,2020-09-03_19h19.44.204,proactive2,2020.1.2,Win32,60,5f5126bb654d4b30ee6923d8,5f513388e39a4714a745c0ec,1,,,,,,suitcase,,,,,,0,46,46,25,1,3,0,,,,,,,,,,,,,,,,,,,,,,,,,,,,,,,,,,,,,,,,,,,,,,,,,,,,,,,,,,,,,,,,,,,,,,,,,,,,,,,,,,,,,,,,,,,,,,,,,,,
,,,,,,,,,,stimuli/images/PICTURE_339.png,PLENTY,5e5aa39b15b8d429d07abfd4,14/09/1939,2020-09-03_19h19.44.204,proactive2,2020.1.2,Win32,60,5f5126bb654d4b30ee6923d8,5f513388e39a4714a745c0ec,1,,,,,,backpack,,,,,,0,47,47,0,1,1,0,,,,,,,,,,,,,,,,,,,,,,,,,,,,,,,,,,,,,,,,,,,,,,,,,,,,,,,,,,,,,,,,,,,,,,,,,,,,,,,,,,,,,,,,,,,,,,,,,,,
,,,,,,,,,,stimuli/images/PICTURE_688.png,WOMEN,5e5aa39b15b8d429d07abfd4,14/09/1939,2020-09-03_19h19.44.204,proactive2,2020.1.2,Win32,60,5f5126bb654d4b30ee6923d8,5f513388e39a4714a745c0ec,1,,,,,,runner,,,,,,0,48,48,14,1,2,0,,,,,,,,,,,,,,,,,,,,,,,,,,,,,,,,,,,,,,,,,,,,,,,,,,,,,,,,,,,,,,,,,,,,,,,,,,,,,,,,,,,,,,,,,,,,,,,,,,,
,,,,,,,,,,stimuli/images/PICTURE_311.png,FRIEND,5e5aa39b15b8d429d07abfd4,14/09/1939,2020-09-03_19h19.44.204,proactive2,2020.1.2,Win32,60,5f5126bb654d4b30ee6923d8,5f513388e39a4714a745c0ec,1,,,,,,razor,,,,,,0,49,49,34,1,4,0,,,,,,,,,,,,,,,,,,,,,,,,,,,,,,,,,,,,,,,,,,,,,,,,,,,,,,,,,,,,,,,,,,,,,,,,,,,,,,,,,,,,,,,,,,,,,,,,,,,
,,,,,,,,,,stimuli/images/PICTURE_68.png,MILE,5e5aa39b15b8d429d07abfd4,14/09/1939,2020-09-03_19h19.44.204,proactive2,2020.1.2,Win32,60,5f5126bb654d4b30ee6923d8,5f513388e39a4714a745c0ec,1,,,,,,candle,,,,,,0,50,50,44,1,5,0,,,,,,,,,,,,,,,,,,,,,,,,,,,,,,,,,,,,,,,,,,,,,,,,,,,,,,,,,,,,,,,,,,,,,,,,,,,,,,,,,,,,,,,,,,,,,,,,,,,
,,,,,,,,,,stimuli/images/PICTURE_248.png,DOZEN,5e5aa39b15b8d429d07abfd4,14/09/1939,2020-09-03_19h19.44.204,proactive2,2020.1.2,Win32,60,5f5126bb654d4b30ee6923d8,5f513388e39a4714a745c0ec,1,,,,,,cart,,,,,,0,51,51,39,1,4,0,,,,,,,,,,,,,,,,,,,,,,,,,,,,,,,,,,,,,,,,,,,,,,,,,,,,,,,,,,,,,,,,,,,,,,,,,,,,,,,,,,,,,,,,,,,,,,,,,,,
,,,,,,,,,,stimuli/images/PICTURE_208.png,LOTS,5e5aa39b15b8d429d07abfd4,14/09/1939,2020-09-03_19h19.44.204,proactive2,2020.1.2,Win32,60,5f5126bb654d4b30ee6923d8,5f513388e39a4714a745c0ec,1,,,,,,microphone,,,,,,0,52,52,10,1,2,0,,,,,,,,,,,,,,,,,,,,,,,,,,,,,,,,,,,,,,,,,,,,,,,,,,,,,,,,,,,,,,,,,,,,,,,,,,,,,,,,,,,,,,,,,,,,,,,,,,,
,,,,,,,,,,stimuli/images/PICTURE_708.png,CLIENT,5e5aa39b15b8d429d07abfd4,14/09/1939,2020-09-03_19h19.44.204,proactive2,2020.1.2,Win32,60,5f5126bb654d4b30ee6923d8,5f513388e39a4714a745c0ec,1,,,,,,monkey,,,,,,0,53,53,5,1,1,0,,,,,,,,,,,,,,,,,,,,,,,,,,,,,,,,,,,,,,,,,,,,,,,,,,,,,,,,,,,,,,,,,,,,,,,,,,,,,,,,,,,,,,,,,,,,,,,,,,,
,,,,,,,,,,stimuli/images/PICTURE_203.png,ARTIST,5e5aa39b15b8d429d07abfd4,14/09/1939,2020-09-03_19h19.44.204,proactive2,2020.1.2,Win32,60,5f5126bb654d4b30ee6923d8,5f513388e39a4714a745c0ec,1,,,,,,cap,,,,,,0,54,54,26,1,3,0,,,,,,,,,,,,,,,,,,,,,,,,,,,,,,,,,,,,,,,,,,,,,,,,,,,,,,,,,,,,,,,,,,,,,,,,,,,,,,,,,,,,,,,,,,,,,,,,,,,
,,,,,,,,,,stimuli/images/PICTURE_32.png,JUNGLE,5e5aa39b15b8d429d07abfd4,14/09/1939,2020-09-03_19h19.44.204,proactive2,2020.1.2,Win32,60,5f5126bb654d4b30ee6923d8,5f513388e39a4714a745c0ec,1,,,,,,crown,,,,,,0,55,55,45,1,5,0,,,,,,,,,,,,,,,,,,,,,,,,,,,,,,,,,,,,,,,,,,,,,,,,,,,,,,,,,,,,,,,,,,,,,,,,,,,,,,,,,,,,,,,,,,,,,,,,,,,
,,,,,,,,,,stimuli/images/PICTURE_348.png,SPEECH,5e5aa39b15b8d429d07abfd4,14/09/1939,2020-09-03_19h19.44.204,proactive2,2020.1.2,Win32,60,5f5126bb654d4b30ee6923d8,5f513388e39a4714a745c0ec,1,,,,,,pepper,,,,,,0,56,56,20,1,3,0,,,,,,,,,,,,,,,,,,,,,,,,,,,,,,,,,,,,,,,,,,,,,,,,,,,,,,,,,,,,,,,,,,,,,,,,,,,,,,,,,,,,,,,,,,,,,,,,,,,
,,,,,,,,,,stimuli/images/PICTURE_667.png,PLENTY,5e5aa39b15b8d429d07abfd4,14/09/1939,2020-09-03_19h19.44.204,proactive2,2020.1.2,Win32,60,5f5126bb654d4b30ee6923d8,5f513388e39a4714a745c0ec,1,,,,,,daisy,,,,,,0,57,57,41,1,5,0,,,,,,,,,,,,,,,,,,,,,,,,,,,,,,,,,,,,,,,,,,,,,,,,,,,,,,,,,,,,,,,,,,,,,,,,,,,,,,,,,,,,,,,,,,,,,,,,,,,
,,,,,,,,,,stimuli/images/PICTURE_744.png,SAKE,5e5aa39b15b8d429d07abfd4,14/09/1939,2020-09-03_19h19.44.204,proactive2,2020.1.2,Win32,60,5f5126bb654d4b30ee6923d8,5f513388e39a4714a745c0ec,1,,,,,,ring,,,,,,0,58,58,17,1,2,0,,,,,,,,,,,,,,,,,,,,,,,,,,,,,,,,,,,,,,,,,,,,,,,,,,,,,,,,,,,,,,,,,,,,,,,,,,,,,,,,,,,,,,,,,,,,,,,,,,,
,,?,0.003085,0,,,,,,stimuli/images/PICTURE_453.png,DUDE,5e5aa39b15b8d429d07abfd4,14/09/1939,2020-09-03_19h19.44.204,proactive2,2020.1.2,Win32,60,5f5126bb654d4b30ee6923d8,5f513388e39a4714a745c0ec,1,,,,,,scissors,,,,,,,,,,,3,0,0,0,0,27,1,,,,,,,,,,,,,,,,,,,,,,,,,,,,,,,,,,,,,,,,,,,,,,,,,,,,,,,,,,,,,,,,,,,,,,,,,,,,,,,,,,,,,,,,,,,,,,
,,?,0.002945,0,,,,,,stimuli/images/PICTURE_491.png,WRITER,5e5aa39b15b8d429d07abfd4,14/09/1939,2020-09-03_19h19.44.204,proactive2,2020.1.2,Win32,60,5f5126bb654d4b30ee6923d8,5f513388e39a4714a745c0ec,1,,,,,,rug,,,,,,,,,,,6,0,0,1,1,57,1,,,,,,,,,,,,,,,,,,,,,,,,,,,,,,,,,,,,,,,,,,,,,,,,,,,,,,,,,,,,,,,,,,,,,,,,,,,,,,,,,,,,,,,,,,,,,,
,,?,0.00268,0,,,,,,stimuli/images/PICTURE_327.png,BEAUTY,5e5aa39b15b8d429d07abfd4,14/09/1939,2020-09-03_19h19.44.204,proactive2,2020.1.2,Win32,60,5f5126bb654d4b30ee6923d8,5f513388e39a4714a745c0ec,1,,,,,,helmet,,,,,,,,,,,5,0,0,2,2,48,1,,,,,,,,,,,,,,,,,,,,,,,,,,,,,,,,,,,,,,,,,,,,,,,,,,,,,,,,,,,,,,,,,,,,,,,,,,,,,,,,,,,,,,,,,,,,,,
,,?,0.00306,0,,,,,,stimuli/images/PICTURE_248.png,DOZEN,5e5aa39b15b8d429d07abfd4,14/09/1939,2020-09-03_19h19.44.204,proactive2,2020.1.2,Win32,60,5f5126bb654d4b30ee6923d8,5f513388e39a4714a745c0ec,1,,,,,,cart,,,,,,,,,,,4,0,0,3,3,39,1,,,,,,,,,,,,,,,,,,,,,,,,,,,,,,,,,,,,,,,,,,,,,,,,,,,,,,,,,,,,,,,,,,,,,,,,,,,,,,,,,,,,,,,,,,,,,,
,,?,0.002745,0,,,,,,stimuli/images/PICTURE_285.png,ADVICE,5e5aa39b15b8d429d07abfd4,14/09/1939,2020-09-03_19h19.44.204,proactive2,2020.1.2,Win32,60,5f5126bb654d4b30ee6923d8,5f513388e39a4714a745c0ec,1,,,,,,carrot,,,,,,,,,,,2,0,0,4,4,12,1,,,,,,,,,,,,,,,,,,,,,,,,,,,,,,,,,,,,,,,,,,,,,,,,,,,,,,,,,,,,,,,,,,,,,,,,,,,,,,,,,,,,,,,,,,,,,,
,,?,0.00243,0,,,,,,stimuli/images/PICTURE_356.png,DANGER,5e5aa39b15b8d429d07abfd4,14/09/1939,2020-09-03_19h19.44.204,proactive2,2020.1.2,Win32,60,5f5126bb654d4b30ee6923d8,5f513388e39a4714a745c0ec,1,,,,,,pawn,,,,,,,,,,,6,0,0,5,5,55,1,,,,,,,,,,,,,,,,,,,,,,,,,,,,,,,,,,,,,,,,,,,,,,,,,,,,,,,,,,,,,,,,,,,,,,,,,,,,,,,,,,,,,,,,,,,,,,
,,?,0.002545,0,,,,,,stimuli/images/PICTURE_470.png,CASINO,5e5aa39b15b8d429d07abfd4,14/09/1939,2020-09-03_19h19.44.204,proactive2,2020.1.2,Win32,60,5f5126bb654d4b30ee6923d8,5f513388e39a4714a745c0ec,1,,,,,,motorbike,,,,,,,,,,,4,0,0,6,6,36,1,,,,,,,,,,,,,,,,,,,,,,,,,,,,,,,,,,,,,,,,,,,,,,,,,,,,,,,,,,,,,,,,,,,,,,,,,,,,,,,,,,,,,,,,,,,,,,
,,?,0.002605,0,,,,,,stimuli/images/PICTURE_509.png,PHOTO,5e5aa39b15b8d429d07abfd4,14/09/1939,2020-09-03_19h19.44.204,proactive2,2020.1.2,Win32,60,5f5126bb654d4b30ee6923d8,5f513388e39a4714a745c0ec,1,,,,,,telephone,,,,,,,,,,,3,0,0,7,7,21,1,,,,,,,,,,,,,,,,,,,,,,,,,,,,,,,,,,,,,,,,,,,,,,,,,,,,,,,,,,,,,,,,,,,,,,,,,,,,,,,,,,,,,,,,,,,,,,
,,PLENTY,5.151055,1,,,,,,stimuli/images/PICTURE_339.png,PLENTY,5e5aa39b15b8d429d07abfd4,14/09/1939,2020-09-03_19h19.44.204,proactive2,2020.1.2,Win32,60,5f5126bb654d4b30ee6923d8,5f513388e39a4714a745c0ec,1,,,,,,backpack,,,,,,,,,,,1,0,0,8,8,0,1,,,,,,,,,,,,,,,,,,,,,,,,,,,,,,,,,,,,,,,,,,,,,,,,,,,,,,,,,,,,,,,,,,,,,,,,,,,,,,,,,,,,,,,,,,,,,,
,,?,9.02578,0,,,,,,stimuli/images/PICTURE_504.png,BODY,5e5aa39b15b8d429d07abfd4,14/09/1939,2020-09-03_19h19.44.204,proactive2,2020.1.2,Win32,60,5f5126bb654d4b30ee6923d8,5f513388e39a4714a745c0ec,1,,,,,,wheel,,,,,,,,,,,1,0,0,9,9,8,1,,,,,,,,,,,,,,,,,,,,,,,,,,,,,,,,,,,,,,,,,,,,,,,,,,,,,,,,,,,,,,,,,,,,,,,,,,,,,,,,,,,,,,,,,,,,,,
,,?,0.00678,0,,,,,,stimuli/images/PICTURE_32.png,JUNGLE,5e5aa39b15b8d429d07abfd4,14/09/1939,2020-09-03_19h19.44.204,proactive2,2020.1.2,Win32,60,5f5126bb654d4b30ee6923d8,5f513388e39a4714a745c0ec,1,,,,,,crown,,,,,,,,,,,5,0,0,10,10,45,1,,,,,,,,,,,,,,,,,,,,,,,,,,,,,,,,,,,,,,,,,,,,,,,,,,,,,,,,,,,,,,,,,,,,,,,,,,,,,,,,,,,,,,,,,,,,,,
,,CASINO,3.581185,1,,,,,,stimuli/images/PICTURE_688.png,CASINO,5e5aa39b15b8d429d07abfd4,14/09/1939,2020-09-03_19h19.44.204,proactive2,2020.1.2,Win32,60,5f5126bb654d4b30ee6923d8,5f513388e39a4714a745c0ec,1,,,,,,runner,,,,,,,,,,,1,0,0,11,11,2,1,,,,,,,,,,,,,,,,,,,,,,,,,,,,,,,,,,,,,,,,,,,,,,,,,,,,,,,,,,,,,,,,,,,,,,,,,,,,,,,,,,,,,,,,,,,,,,
,,?,0.007315,0,,,,,,stimuli/images/PICTURE_667.png,PLENTY,5e5aa39b15b8d429d07abfd4,14/09/1939,2020-09-03_19h19.44.204,proactive2,2020.1.2,Win32,60,5f5126bb654d4b30ee6923d8,5f513388e39a4714a745c0ec,1,,,,,,daisy,,,,,,,,,,,5,0,0,12,12,41,1,,,,,,,,,,,,,,,,,,,,,,,,,,,,,,,,,,,,,,,,,,,,,,,,,,,,,,,,,,,,,,,,,,,,,,,,,,,,,,,,,,,,,,,,,,,,,,
,,?,0.002675,0,,,,,,stimuli/images/PICTURE_215.png,PLENTY,5e5aa39b15b8d429d07abfd4,14/09/1939,2020-09-03_19h19.44.204,proactive2,2020.1.2,Win32,60,5f5126bb654d4b30ee6923d8,5f513388e39a4714a745c0ec,1,,,,,,boot,,,,,,,,,,,4,0,0,13,13,37,1,,,,,,,,,,,,,,,,,,,,,,,,,,,,,,,,,,,,,,,,,,,,,,,,,,,,,,,,,,,,,,,,,,,,,,,,,,,,,,,,,,,,,,,,,,,,,,
,,?,0.002895,0,,,,,,stimuli/images/PICTURE_233.png,WOMEN,5e5aa39b15b8d429d07abfd4,14/09/1939,2020-09-03_19h19.44.204,proactive2,2020.1.2,Win32,60,5f5126bb654d4b30ee6923d8,5f513388e39a4714a745c0ec,1,,,,,,salt,,,,,,,,,,,4,0,0,14,14,38,1,,,,,,,,,,,,,,,,,,,,,,,,,,,,,,,,,,,,,,,,,,,,,,,,,,,,,,,,,,,,,,,,,,,,,,,,,,,,,,,,,,,,,,,,,,,,,,
,,?,0.002785,0,,,,,,stimuli/images/PICTURE_348.png,SPEECH,5e5aa39b15b8d429d07abfd4,14/09/1939,2020-09-03_19h19.44.204,proactive2,2020.1.2,Win32,60,5f5126bb654d4b30ee6923d8,5f513388e39a4714a745c0ec,1,,,,,,pepper,,,,,,,,,,,3,0,0,15,15,20,1,,,,,,,,,,,,,,,,,,,,,,,,,,,,,,,,,,,,,,,,,,,,,,,,,,,,,,,,,,,,,,,,,,,,,,,,,,,,,,,,,,,,,,,,,,,,,,
,,?,0.00293,0,,,,,,stimuli/images/PICTURE_744.png,SAKE,5e5aa39b15b8d429d07abfd4,14/09/1939,2020-09-03_19h19.44.204,proactive2,2020.1.2,Win32,60,5f5126bb654d4b30ee6923d8,5f513388e39a4714a745c0ec,1,,,,,,ring,,,,,,,,,,,2,0,0,16,16,17,1,,,,,,,,,,,,,,,,,,,,,,,,,,,,,,,,,,,,,,,,,,,,,,,,,,,,,,,,,,,,,,,,,,,,,,,,,,,,,,,,,,,,,,,,,,,,,,
,,?,0.002725,0,,,,,,stimuli/images/PICTURE_160.png,FEET,5e5aa39b15b8d429d07abfd4,14/09/1939,2020-09-03_19h19.44.204,proactive2,2020.1.2,Win32,60,5f5126bb654d4b30ee6923d8,5f513388e39a4714a745c0ec,1,,,,,,wheelbarrow,,,,,,,,,,,6,0,0,17,17,58,1,,,,,,,,,,,,,,,,,,,,,,,,,,,,,,,,,,,,,,,,,,,,,,,,,,,,,,,,,,,,,,,,,,,,,,,,,,,,,,,,,,,,,,,,,,,,,,
,,?,0.002885,0,,,,,,stimuli/images/PICTURE_453.png,PLENTY,5e5aa39b15b8d429d07abfd4,14/09/1939,2020-09-03_19h19.44.204,proactive2,2020.1.2,Win32,60,5f5126bb654d4b30ee6923d8,5f513388e39a4714a745c0ec,1,,,,,,scissors,,,,,,,,,,,6,0,0,18,18,56,1,,,,,,,,,,,,,,,,,,,,,,,,,,,,,,,,,,,,,,,,,,,,,,,,,,,,,,,,,,,,,,,,,,,,,,,,,,,,,,,,,,,,,,,,,,,,,,
,,?,0.00248,0,,,,,,stimuli/images/PICTURE_123.png,ADVICE,5e5aa39b15b8d429d07abfd4,14/09/1939,2020-09-03_19h19.44.204,proactive2,2020.1.2,Win32,60,5f5126bb654d4b30ee6923d8,5f513388e39a4714a745c0ec,1,,,,,,dart,,,,,,,,,,,5,0,0,19,19,40,1,,,,,,,,,,,,,,,,,,,,,,,,,,,,,,,,,,,,,,,,,,,,,,,,,,,,,,,,,,,,,,,,,,,,,,,,,,,,,,,,,,,,,,,,,,,,,,
,,?,0.002415,0,,,,,,stimuli/images/PICTURE_95.png,STYLE,5e5aa39b15b8d429d07abfd4,14/09/1939,2020-09-03_19h19.44.204,proactive2,2020.1.2,Win32,60,5f5126bb654d4b30ee6923d8,5f513388e39a4714a745c0ec,1,,,,,,suitcase,,,,,,,,,,,3,0,0,20,20,25,1,,,,,,,,,,,,,,,,,,,,,,,,,,,,,,,,,,,,,,,,,,,,,,,,,,,,,,,,,,,,,,,,,,,,,,,,,,,,,,,,,,,,,,,,,,,,,,
,,LEADER,3.476485,1,,,,,,stimuli/images/PICTURE_160.png,LEADER,5e5aa39b15b8d429d07abfd4,14/09/1939,2020-09-03_19h19.44.204,proactive2,2020.1.2,Win32,60,5f5126bb654d4b30ee6923d8,5f513388e39a4714a745c0ec,1,,,,,,wheelbarrow,,,,,,,,,,,1,0,0,21,21,3,1,,,,,,,,,,,,,,,,,,,,,,,,,,,,,,,,,,,,,,,,,,,,,,,,,,,,,,,,,,,,,,,,,,,,,,,,,,,,,,,,,,,,,,,,,,,,,,
,,?,0.007185,0,,,,,,stimuli/images/PICTURE_123.png,ADVICE,5e5aa39b15b8d429d07abfd4,14/09/1939,2020-09-03_19h19.44.204,proactive2,2020.1.2,Win32,60,5f5126bb654d4b30ee6923d8,5f513388e39a4714a745c0ec,1,,,,,,dart,,,,,,,,,,,6,0,0,22,22,50,1,,,,,,,,,,,,,,,,,,,,,,,,,,,,,,,,,,,,,,,,,,,,,,,,,,,,,,,,,,,,,,,,,,,,,,,,,,,,,,,,,,,,,,,,,,,,,,
,,?,0.003755,0,,,,,,stimuli/images/PICTURE_208.png,THING,5e5aa39b15b8d429d07abfd4,14/09/1939,2020-09-03_19h19.44.204,proactive2,2020.1.2,Win32,60,5f5126bb654d4b30ee6923d8,5f513388e39a4714a745c0ec,1,,,,,,microphone,,,,,,,,,,,5,0,0,23,23,47,1,,,,,,,,,,,,,,,,,,,,,,,,,,,,,,,,,,,,,,,,,,,,,,,,,,,,,,,,,,,,,,,,,,,,,,,,,,,,,,,,,,,,,,,,,,,,,,
,,?,0.00237,0,,,,,,stimuli/images/PICTURE_85.png,THING,5e5aa39b15b8d429d07abfd4,14/09/1939,2020-09-03_19h19.44.204,proactive2,2020.1.2,Win32,60,5f5126bb654d4b30ee6923d8,5f513388e39a4714a745c0ec,1,,,,,,diamond,,,,,,,,,,,2,0,0,24,24,15,1,,,,,,,,,,,,,,,,,,,,,,,,,,,,,,,,,,,,,,,,,,,,,,,,,,,,,,,,,,,,,,,,,,,,,,,,,,,,,,,,,,,,,,,,,,,,,,
,,?,0.00249,0,,,,,,stimuli/images/PICTURE_208.png,LOTS,5e5aa39b15b8d429d07abfd4,14/09/1939,2020-09-03_19h19.44.204,proactive2,2020.1.2,Win32,60,5f5126bb654d4b30ee6923d8,5f513388e39a4714a745c0ec,1,,,,,,microphone,,,,,,,,,,,2,0,0,25,25,10,1,,,,,,,,,,,,,,,,,,,,,,,,,,,,,,,,,,,,,,,,,,,,,,,,,,,,,,,,,,,,,,,,,,,,,,,,,,,,,,,,,,,,,,,,,,,,,,
,,?,0.002415,0,,,,,,stimuli/images/PICTURE_677.png,MILE,5e5aa39b15b8d429d07abfd4,14/09/1939,2020-09-03_19h19.44.204,proactive2,2020.1.2,Win32,60,5f5126bb654d4b30ee6923d8,5f513388e39a4714a745c0ec,1,,,,,,map,,,,,,,,,,,4,0,0,26,26,30,1,,,,,,,,,,,,,,,,,,,,,,,,,,,,,,,,,,,,,,,,,,,,,,,,,,,,,,,,,,,,,,,,,,,,,,,,,,,,,,,,,,,,,,,,,,,,,,
,,ARTIST,3.49731,1,,,,,,stimuli/images/PICTURE_469.png,ARTIST,5e5aa39b15b8d429d07abfd4,14/09/1939,2020-09-03_19h19.44.204,proactive2,2020.1.2,Win32,60,5f5126bb654d4b30ee6923d8,5f513388e39a4714a745c0ec,1,,,,,,stool,,,,,,,,,,,1,0,0,27,27,6,1,,,,,,,,,,,,,,,,,,,,,,,,,,,,,,,,,,,,,,,,,,,,,,,,,,,,,,,,,,,,,,,,,,,,,,,,,,,,,,,,,,,,,,,,,,,,,,
,,?,0.00643,0,,,,,,stimuli/images/PICTURE_208.png,MONTH,5e5aa39b15b8d429d07abfd4,14/09/1939,2020-09-03_19h19.44.204,proactive2,2020.1.2,Win32,60,5f5126bb654d4b30ee6923d8,5f513388e39a4714a745c0ec,1,,,,,,microphone,,,,,,,,,,,6,0,0,28,28,53,1,,,,,,,,,,,,,,,,,,,,,,,,,,,,,,,,,,,,,,,,,,,,,,,,,,,,,,,,,,,,,,,,,,,,,,,,,,,,,,,,,,,,,,,,,,,,,,
,,?,0.002995,0,,,,,,stimuli/images/PICTURE_488.png,STYLE,5e5aa39b15b8d429d07abfd4,14/09/1939,2020-09-03_19h19.44.204,proactive2,2020.1.2,Win32,60,5f5126bb654d4b30ee6923d8,5f513388e39a4714a745c0ec,1,,,,,,sun,,,,,,,,,,,4,0,0,29,29,33,1,,,,,,,,,,,,,,,,,,,,,,,,,,,,,,,,,,,,,,,,,,,,,,,,,,,,,,,,,,,,,,,,,,,,,,,,,,,,,,,,,,,,,,,,,,,,,,
,,?,0.00283,0,,,,,,stimuli/images/PICTURE_708.png,YARD,5e5aa39b15b8d429d07abfd4,14/09/1939,2020-09-03_19h19.44.204,proactive2,2020.1.2,Win32,60,5f5126bb654d4b30ee6923d8,5f513388e39a4714a745c0ec,1,,,,,,monkey,,,,,,,,,,,3,0,0,30,30,29,1,,,,,,,,,,,,,,,,,,,,,,,,,,,,,,,,,,,,,,,,,,,,,,,,,,,,,,,,,,,,,,,,,,,,,,,,,,,,,,,,,,,,,,,,,,,,,,
,,?,0.00262,0,,,,,,stimuli/images/PICTURE_688.png,WOMEN,5e5aa39b15b8d429d07abfd4,14/09/1939,2020-09-03_19h19.44.204,proactive2,2020.1.2,Win32,60,5f5126bb654d4b30ee6923d8,5f513388e39a4714a745c0ec,1,,,,,,runner,,,,,,,,,,,2,0,0,31,31,14,1,,,,,,,,,,,,,,,,,,,,,,,,,,,,,,,,,,,,,,,,,,,,,,,,,,,,,,,,,,,,,,,,,,,,,,,,,,,,,,,,,,,,,,,,,,,,,,
,,?,0.002645,0,,,,,,stimuli/images/PICTURE_147.png,MOMENT,5e5aa39b15b8d429d07abfd4,14/09/1939,2020-09-03_19h19.44.204,proactive2,2020.1.2,Win32,60,5f5126bb654d4b30ee6923d8,5f513388e39a4714a745c0ec,1,,,,,,hanger,,,,,,,,,,,6,0,0,32,32,51,1,,,,,,,,,,,,,,,,,,,,,,,,,,,,,,,,,,,,,,,,,,,,,,,,,,,,,,,,,,,,,,,,,,,,,,,,,,,,,,,,,,,,,,,,,,,,,,
,,?,0.00279,0,,,,,,stimuli/images/PICTURE_675.png,WEAPON,5e5aa39b15b8d429d07abfd4,14/09/1939,2020-09-03_19h19.44.204,proactive2,2020.1.2,Win32,60,5f5126bb654d4b30ee6923d8,5f513388e39a4714a745c0ec,1,,,,,,windmill,,,,,,,,,,,4,0,0,33,33,32,1,,,,,,,,,,,,,,,,,,,,,,,,,,,,,,,,,,,,,,,,,,,,,,,,,,,,,,,,,,,,,,,,,,,,,,,,,,,,,,,,,,,,,,,,,,,,,,
,,?,0.002685,0,,,,,,stimuli/images/PICTURE_708.png,PENNY,5e5aa39b15b8d429d07abfd4,14/09/1939,2020-09-03_19h19.44.204,proactive2,2020.1.2,Win32,60,5f5126bb654d4b30ee6923d8,5f513388e39a4714a745c0ec,1,,,,,,monkey,,,,,,,,,,,4,0,0,34,34,31,1,,,,,,,,,,,,,,,,,,,,,,,,,,,,,,,,,,,,,,,,,,,,,,,,,,,,,,,,,,,,,,,,,,,,,,,,,,,,,,,,,,,,,,,,,,,,,,
,,?,0.0027,0,,,,,,stimuli/images/PICTURE_491.png,ROOF,5e5aa39b15b8d429d07abfd4,14/09/1939,2020-09-03_19h19.44.204,proactive2,2020.1.2,Win32,60,5f5126bb654d4b30ee6923d8,5f513388e39a4714a745c0ec,1,,,,,,rug,,,,,,,,,,,3,0,0,35,35,24,1,,,,,,,,,,,,,,,,,,,,,,,,,,,,,,,,,,,,,,,,,,,,,,,,,,,,,,,,,,,,,,,,,,,,,,,,,,,,,,,,,,,,,,,,,,,,,,
,,?,0.0034,0,,,,,,stimuli/images/PICTURE_380.png,DEATH,5e5aa39b15b8d429d07abfd4,14/09/1939,2020-09-03_19h19.44.204,proactive2,2020.1.2,Win32,60,5f5126bb654d4b30ee6923d8,5f513388e39a4714a745c0ec,1,,,,,,gorilla,,,,,,,,,,,5,0,0,36,36,49,1,,,,,,,,,,,,,,,,,,,,,,,,,,,,,,,,,,,,,,,,,,,,,,,,,,,,,,,,,,,,,,,,,,,,,,,,,,,,,,,,,,,,,,,,,,,,,,
,,?,0.0026,0,,,,,,stimuli/images/PICTURE_744.png,SYSTEM,5e5aa39b15b8d429d07abfd4,14/09/1939,2020-09-03_19h19.44.204,proactive2,2020.1.2,Win32,60,5f5126bb654d4b30ee6923d8,5f513388e39a4714a745c0ec,1,,,,,,ring,,,,,,,,,,,5,0,0,37,37,43,1,,,,,,,,,,,,,,,,,,,,,,,,,,,,,,,,,,,,,,,,,,,,,,,,,,,,,,,,,,,,,,,,,,,,,,,,,,,,,,,,,,,,,,,,,,,,,,
,,?,15.00433,0,,,,,,stimuli/images/PICTURE_654.png,VALLEY,5e5aa39b15b8d429d07abfd4,14/09/1939,2020-09-03_19h19.44.204,proactive2,2020.1.2,Win32,60,5f5126bb654d4b30ee6923d8,5f513388e39a4714a745c0ec,1,,,,,,pencil,,,,,,,,,,,1,0,0,38,38,1,1,,,,,,,,,,,,,,,,,,,,,,,,,,,,,,,,,,,,,,,,,,,,,,,,,,,,,,,,,,,,,,,,,,,,,,,,,,,,,,,,,,,,,,,,,,,,,,
,,?,0.00635,0,,,,,,stimuli/images/PICTURE_467.png,DEMON,5e5aa39b15b8d429d07abfd4,14/09/1939,2020-09-03_19h19.44.204,proactive2,2020.1.2,Win32,60,5f5126bb654d4b30ee6923d8,5f513388e39a4714a745c0ec,1,,,,,,peg,,,,,,,,,,,3,0,0,39,39,23,1,,,,,,,,,,,,,,,,,,,,,,,,,,,,,,,,,,,,,,,,,,,,,,,,,,,,,,,,,,,,,,,,,,,,,,,,,,,,,,,,,,,,,,,,,,,,,,
,,?,0.00372,0,,,,,,stimuli/images/PICTURE_151.png,GIRL,5e5aa39b15b8d429d07abfd4,14/09/1939,2020-09-03_19h19.44.204,proactive2,2020.1.2,Win32,60,5f5126bb654d4b30ee6923d8,5f513388e39a4714a745c0ec,1,,,,,,tray,,,,,,,,,,,2,0,0,40,40,19,1,,,,,,,,,,,,,,,,,,,,,,,,,,,,,,,,,,,,,,,,,,,,,,,,,,,,,,,,,,,,,,,,,,,,,,,,,,,,,,,,,,,,,,,,,,,,,,
,,?,0.003655,0,,,,,,stimuli/images/PICTURE_311.png,BEAUTY,5e5aa39b15b8d429d07abfd4,14/09/1939,2020-09-03_19h19.44.204,proactive2,2020.1.2,Win32,60,5f5126bb654d4b30ee6923d8,5f513388e39a4714a745c0ec,1,,,,,,razor,,,,,,,,,,,2,0,0,41,41,13,1,,,,,,,,,,,,,,,,,,,,,,,,,,,,,,,,,,,,,,,,,,,,,,,,,,,,,,,,,,,,,,,,,,,,,,,,,,,,,,,,,,,,,,,,,,,,,,
,,CLIENT,8.569845,1,,,,,,stimuli/images/PICTURE_708.png,CLIENT,5e5aa39b15b8d429d07abfd4,14/09/1939,2020-09-03_19h19.44.204,proactive2,2020.1.2,Win32,60,5f5126bb654d4b30ee6923d8,5f513388e39a4714a745c0ec,1,,,,,,monkey,,,,,,,,,,,1,0,0,42,42,5,1,,,,,,,,,,,,,,,,,,,,,,,,,,,,,,,,,,,,,,,,,,,,,,,,,,,,,,,,,,,,,,,,,,,,,,,,,,,,,,,,,,,,,,,,,,,,,,
,,?,0.008165,0,,,,,,stimuli/images/PICTURE_469.png,LETTER,5e5aa39b15b8d429d07abfd4,14/09/1939,2020-09-03_19h19.44.204,proactive2,2020.1.2,Win32,60,5f5126bb654d4b30ee6923d8,5f513388e39a4714a745c0ec,1,,,,,,stool,,,,,,,,,,,5,0,0,43,43,42,1,,,,,,,,,,,,,,,,,,,,,,,,,,,,,,,,,,,,,,,,,,,,,,,,,,,,,,,,,,,,,,,,,,,,,,,,,,,,,,,,,,,,,,,,,,,,,,
,,?,0.006475,0,,,,,,stimuli/images/PICTURE_308.png,KIND,5e5aa39b15b8d429d07abfd4,14/09/1939,2020-09-03_19h19.44.204,proactive2,2020.1.2,Win32,60,5f5126bb654d4b30ee6923d8,5f513388e39a4714a745c0ec,1,,,,,,dice,,,,,,,,,,,6,0,0,44,44,54,1,,,,,,,,,,,,,,,,,,,,,,,,,,,,,,,,,,,,,,,,,,,,,,,,,,,,,,,,,,,,,,,,,,,,,,,,,,,,,,,,,,,,,,,,,,,,,,
,,?,0.00557,0,,,,,,stimuli/images/PICTURE_233.png,IDEAS,5e5aa39b15b8d429d07abfd4,14/09/1939,2020-09-03_19h19.44.204,proactive2,2020.1.2,Win32,60,5f5126bb654d4b30ee6923d8,5f513388e39a4714a745c0ec,1,,,,,,salt,,,,,,,,,,,3,0,0,45,45,28,1,,,,,,,,,,,,,,,,,,,,,,,,,,,,,,,,,,,,,,,,,,,,,,,,,,,,,,,,,,,,,,,,,,,,,,,,,,,,,,,,,,,,,,,,,,,,,,
,,?,0.003395,0,,,,,,stimuli/images/PICTURE_255.png,AREA,5e5aa39b15b8d429d07abfd4,14/09/1939,2020-09-03_19h19.44.204,proactive2,2020.1.2,Win32,60,5f5126bb654d4b30ee6923d8,5f513388e39a4714a745c0ec,1,,,,,,shovel,,,,,,,,,,,3,0,0,46,46,22,1,,,,,,,,,,,,,,,,,,,,,,,,,,,,,,,,,,,,,,,,,,,,,,,,,,,,,,,,,,,,,,,,,,,,,,,,,,,,,,,,,,,,,,,,,,,,,,
,,?,0.00222,0,,,,,,stimuli/images/PICTURE_380.png,PHOTO,5e5aa39b15b8d429d07abfd4,14/09/1939,2020-09-03_19h19.44.204,proactive2,2020.1.2,Win32,60,5f5126bb654d4b30ee6923d8,5f513388e39a4714a745c0ec,1,,,,,,gorilla,,,,,,,,,,,6,0,0,47,47,52,1,,,,,,,,,,,,,,,,,,,,,,,,,,,,,,,,,,,,,,,,,,,,,,,,,,,,,,,,,,,,,,,,,,,,,,,,,,,,,,,,,,,,,,,,,,,,,,
,,?,0.00249,0,,,,,,stimuli/images/PICTURE_314.png,GODS,5e5aa39b15b8d429d07abfd4,14/09/1939,2020-09-03_19h19.44.204,proactive2,2020.1.2,Win32,60,5f5126bb654d4b30ee6923d8,5f513388e39a4714a745c0ec,1,,,,,,perfume,,,,,,,,,,,2,0,0,48,48,11,1,,,,,,,,,,,,,,,,,,,,,,,,,,,,,,,,,,,,,,,,,,,,,,,,,,,,,,,,,,,,,,,,,,,,,,,,,,,,,,,,,,,,,,,,,,,,,,
,,?,0.00217,0,,,,,,stimuli/images/PICTURE_177.png,CARS,5e5aa39b15b8d429d07abfd4,14/09/1939,2020-09-03_19h19.44.204,proactive2,2020.1.2,Win32,60,5f5126bb654d4b30ee6923d8,5f513388e39a4714a745c0ec,1,,,,,,mushroom,,,,,,,,,,,4,0,0,49,49,35,1,,,,,,,,,,,,,,,,,,,,,,,,,,,,,,,,,,,,,,,,,,,,,,,,,,,,,,,,,,,,,,,,,,,,,,,,,,,,,,,,,,,,,,,,,,,,,,
,,SAKE,2.674935,1,,,,,,stimuli/images/PICTURE_314.png,SAKE,5e5aa39b15b8d429d07abfd4,14/09/1939,2020-09-03_19h19.44.204,proactive2,2020.1.2,Win32,60,5f5126bb654d4b30ee6923d8,5f513388e39a4714a745c0ec,1,,,,,,perfume,,,,,,,,,,,1,0,0,50,50,7,1,,,,,,,,,,,,,,,,,,,,,,,,,,,,,,,,,,,,,,,,,,,,,,,,,,,,,,,,,,,,,,,,,,,,,,,,,,,,,,,,,,,,,,,,,,,,,,
,,?,0.006295,0,,,,,,stimuli/images/PICTURE_308.png,ESTATE,5e5aa39b15b8d429d07abfd4,14/09/1939,2020-09-03_19h19.44.204,proactive2,2020.1.2,Win32,60,5f5126bb654d4b30ee6923d8,5f513388e39a4714a745c0ec,1,,,,,,dice,,,,,,,,,,,5,0,0,51,51,46,1,,,,,,,,,,,,,,,,,,,,,,,,,,,,,,,,,,,,,,,,,,,,,,,,,,,,,,,,,,,,,,,,,,,,,,,,,,,,,,,,,,,,,,,,,,,,,,
,,?,0.002295,0,,,,,,stimuli/images/PICTURE_302.png,FAMILY,5e5aa39b15b8d429d07abfd4,14/09/1939,2020-09-03_19h19.44.204,proactive2,2020.1.2,Win32,60,5f5126bb654d4b30ee6923d8,5f513388e39a4714a745c0ec,1,,,,,,taxi,,,,,,,,,,,2,0,0,52,52,18,1,,,,,,,,,,,,,,,,,,,,,,,,,,,,,,,,,,,,,,,,,,,,,,,,,,,,,,,,,,,,,,,,,,,,,,,,,,,,,,,,,,,,,,,,,,,,,,
,,?,0.00276,0,,,,,,stimuli/images/PICTURE_692.png,MONTH,5e5aa39b15b8d429d07abfd4,14/09/1939,2020-09-03_19h19.44.204,proactive2,2020.1.2,Win32,60,5f5126bb654d4b30ee6923d8,5f513388e39a4714a745c0ec,1,,,,,,cherry,,,,,,,,,,,2,0,0,53,53,16,1,,,,,,,,,,,,,,,,,,,,,,,,,,,,,,,,,,,,,,,,,,,,,,,,,,,,,,,,,,,,,,,,,,,,,,,,,,,,,,,,,,,,,,,,,,,,,,
,,?,0.002405,0,,,,,,stimuli/images/PICTURE_68.png,MILE,5e5aa39b15b8d429d07abfd4,14/09/1939,2020-09-03_19h19.44.204,proactive2,2020.1.2,Win32,60,5f5126bb654d4b30ee6923d8,5f513388e39a4714a745c0ec,1,,,,,,candle,,,,,,,,,,,5,0,0,54,54,44,1,,,,,,,,,,,,,,,,,,,,,,,,,,,,,,,,,,,,,,,,,,,,,,,,,,,,,,,,,,,,,,,,,,,,,,,,,,,,,,,,,,,,,,,,,,,,,,
,,?,0.00232,0,,,,,,stimuli/images/PICTURE_311.png,FRIEND,5e5aa39b15b8d429d07abfd4,14/09/1939,2020-09-03_19h19.44.204,proactive2,2020.1.2,Win32,60,5f5126bb654d4b30ee6923d8,5f513388e39a4714a745c0ec,1,,,,,,razor,,,,,,,,,,,4,0,0,55,55,34,1,,,,,,,,,,,,,,,,,,,,,,,,,,,,,,,,,,,,,,,,,,,,,,,,,,,,,,,,,,,,,,,,,,,,,,,,,,,,,,,,,,,,,,,,,,,,,,
,,?,0.002595,0,,,,,,stimuli/images/PICTURE_203.png,ARTIST,5e5aa39b15b8d429d07abfd4,14/09/1939,2020-09-03_19h19.44.204,proactive2,2020.1.2,Win32,60,5f5126bb654d4b30ee6923d8,5f513388e39a4714a745c0ec,1,,,,,,cap,,,,,,,,,,,3,0,0,56,56,26,1,,,,,,,,,,,,,,,,,,,,,,,,,,,,,,,,,,,,,,,,,,,,,,,,,,,,,,,,,,,,,,,,,,,,,,,,,,,,,,,,,,,,,,,,,,,,,,
,,?,0.002675,0,,,,,,stimuli/images/PICTURE_449.png,THING,5e5aa39b15b8d429d07abfd4,14/09/1939,2020-09-03_19h19.44.204,proactive2,2020.1.2,Win32,60,5f5126bb654d4b30ee6923d8,5f513388e39a4714a745c0ec,1,,,,,,bench,,,,,,,,,,,6,0,0,57,57,59,1,,,,,,,,,,,,,,,,,,,,,,,,,,,,,,,,,,,,,,,,,,,,,,,,,,,,,,,,,,,,,,,,,,,,,,,,,,,,,,,,,,,,,,,,,,,,,,
,,FLIGHT,3.962885,1,,,,,,stimuli/images/PICTURE_487.png,FLIGHT,5e5aa39b15b8d429d07abfd4,14/09/1939,2020-09-03_19h19.44.204,proactive2,2020.1.2,Win32,60,5f5126bb654d4b30ee6923d8,5f513388e39a4714a745c0ec,1,,,,,,basket,,,,,,,,,,,1,0,0,58,58,9,1,,,,,,,,,,,,,,,,,,,,,,,,,,,,,,,,,,,,,,,,,,,,,,,,,,,,,,,,,,,,,,,,,,,,,,,,,,,,,,,,,,,,,,,,,,,,,,
,,PENNY,5.05433,0,,,,,,stimuli/images/PICTURE_667.png,BATH,5e5aa39b15b8d429d07abfd4,14/09/1939,2020-09-03_19h19.44.204,proactive2,2020.1.2,Win32,60,5f5126bb654d4b30ee6923d8,5f513388e39a4714a745c0ec,1,,,,,,daisy,,,,,,,,,,,1,0,0,59,59,4,1,,,,,,,,,,,,,,,,,,,,,,,,,,,,,,,,,,,,,,,,,,,,,,,,,,,,,,,,,,,,,,,,,,,,,,,,,,,,,,,,,,,,,,,,,,,,,,
,,,,,,,,,,,,5e5aa39b15b8d429d07abfd4,14/09/1939,2020-09-03_19h19.44.204,proactive2,2020.1.2,Win32,60,5f5126bb654d4b30ee6923d8,5f513388e39a4714a745c0ec,1,,,,,,,,,,,,,,,,,,,,,,,,0,1,1,0,1,stimuli/learn-block1.csv,,,,,,,,,,,,,,,,,,,,,,,,,,,,,,,,,,,,,,,,,,,,,,,,,,,,,,,,,,,,,,,,,,,,,,,,,,,,,,,,,,,,,,,,
,,,,,,,,,,stimuli/images/PICTURE_123.png,SALE,5e5aa39b15b8d429d07abfd4,14/09/1939,2020-09-03_19h19.44.204,proactive2,2020.1.2,Win32,60,5f5126bb654d4b30ee6923d8,5f513388e39a4714a745c0ec,1,,,,,,dart,,,,,,0,0,0,8,1,1,2,,,,,,,,,,,,,,,,,,,,,,,,,,,,,,,,,,,,,,,,,,,,,,,,,,,,,,,,,,,,,,,,,,,,,,,,,,,,,,,,,,,,,,,,,,,,,,,,,,,
,,,,,,,,,,stimuli/images/PICTURE_18.png,RIVER,5e5aa39b15b8d429d07abfd4,14/09/1939,2020-09-03_19h19.44.204,proactive2,2020.1.2,Win32,60,5f5126bb654d4b30ee6923d8,5f513388e39a4714a745c0ec,1,,,,,,planet,,,,,,0,1,1,22,1,3,2,,,,,,,,,,,,,,,,,,,,,,,,,,,,,,,,,,,,,,,,,,,,,,,,,,,,,,,,,,,,,,,,,,,,,,,,,,,,,,,,,,,,,,,,,,,,,,,,,,,
,,,,,,,,,,stimuli/images/PICTURE_93.png,GIRL,5e5aa39b15b8d429d07abfd4,14/09/1939,2020-09-03_19h19.44.204,proactive2,2020.1.2,Win32,60,5f5126bb654d4b30ee6923d8,5f513388e39a4714a745c0ec,1,,,,,,skateboard,,,,,,0,2,2,31,1,4,2,,,,,,,,,,,,,,,,,,,,,,,,,,,,,,,,,,,,,,,,,,,,,,,,,,,,,,,,,,,,,,,,,,,,,,,,,,,,,,,,,,,,,,,,,,,,,,,,,,,
,,,,,,,,,,stimuli/images/PICTURE_141.png,CLIENT,5e5aa39b15b8d429d07abfd4,14/09/1939,2020-09-03_19h19.44.204,proactive2,2020.1.2,Win32,60,5f5126bb654d4b30ee6923d8,5f513388e39a4714a745c0ec,1,,,,,,sunflower,,,,,,0,3,3,30,1,4,2,,,,,,,,,,,,,,,,,,,,,,,,,,,,,,,,,,,,,,,,,,,,,,,,,,,,,,,,,,,,,,,,,,,,,,,,,,,,,,,,,,,,,,,,,,,,,,,,,,,
,,,,,,,,,,stimuli/images/PICTURE_564.png,PLENTY,5e5aa39b15b8d429d07abfd4,14/09/1939,2020-09-03_19h19.44.204,proactive2,2020.1.2,Win32,60,5f5126bb654d4b30ee6923d8,5f513388e39a4714a745c0ec,1,,,,,,spoon,,,,,,0,4,4,11,1,2,2,,,,,,,,,,,,,,,,,,,,,,,,,,,,,,,,,,,,,,,,,,,,,,,,,,,,,,,,,,,,,,,,,,,,,,,,,,,,,,,,,,,,,,,,,,,,,,,,,,,
,,,,,,,,,,stimuli/images/PICTURE_296.png,CLOCK,5e5aa39b15b8d429d07abfd4,14/09/1939,2020-09-03_19h19.44.204,proactive2,2020.1.2,Win32,60,5f5126bb654d4b30ee6923d8,5f513388e39a4714a745c0ec,1,,,,,,bolt,,,,,,0,5,5,18,1,2,2,,,,,,,,,,,,,,,,,,,,,,,,,,,,,,,,,,,,,,,,,,,,,,,,,,,,,,,,,,,,,,,,,,,,,,,,,,,,,,,,,,,,,,,,,,,,,,,,,,,
,,,,,,,,,,stimuli/images/PICTURE_327.png,LEADER,5e5aa39b15b8d429d07abfd4,14/09/1939,2020-09-03_19h19.44.204,proactive2,2020.1.2,Win32,60,5f5126bb654d4b30ee6923d8,5f513388e39a4714a745c0ec,1,,,,,,helmet,,,,,,0,6,6,17,1,2,2,,,,,,,,,,,,,,,,,,,,,,,,,,,,,,,,,,,,,,,,,,,,,,,,,,,,,,,,,,,,,,,,,,,,,,,,,,,,,,,,,,,,,,,,,,,,,,,,,,,
,,,,,,,,,,stimuli/images/PICTURE_491.png,SERIES,5e5aa39b15b8d429d07abfd4,14/09/1939,2020-09-03_19h19.44.204,proactive2,2020.1.2,Win32,60,5f5126bb654d4b30ee6923d8,5f513388e39a4714a745c0ec,1,,,,,,rug,,,,,,0,7,7,39,1,4,2,,,,,,,,,,,,,,,,,,,,,,,,,,,,,,,,,,,,,,,,,,,,,,,,,,,,,,,,,,,,,,,,,,,,,,,,,,,,,,,,,,,,,,,,,,,,,,,,,,,
,,,,,,,,,,stimuli/images/PICTURE_33.png,COPS,5e5aa39b15b8d429d07abfd4,14/09/1939,2020-09-03_19h19.44.204,proactive2,2020.1.2,Win32,60,5f5126bb654d4b30ee6923d8,5f513388e39a4714a745c0ec,1,,,,,,frame,,,,,,0,8,8,29,1,3,2,,,,,,,,,,,,,,,,,,,,,,,,,,,,,,,,,,,,,,,,,,,,,,,,,,,,,,,,,,,,,,,,,,,,,,,,,,,,,,,,,,,,,,,,,,,,,,,,,,,
,,,,,,,,,,stimuli/images/PICTURE_160.png,HOTEL,5e5aa39b15b8d429d07abfd4,14/09/1939,2020-09-03_19h19.44.204,proactive2,2020.1.2,Win32,60,5f5126bb654d4b30ee6923d8,5f513388e39a4714a745c0ec,1,,,,,,wheelbarrow,,,,,,0,9,9,16,1,2,2,,,,,,,,,,,,,,,,,,,,,,,,,,,,,,,,,,,,,,,,,,,,,,,,,,,,,,,,,,,,,,,,,,,,,,,,,,,,,,,,,,,,,,,,,,,,,,,,,,,
,,,,,,,,,,stimuli/images/PICTURE_470.png,BEAUTY,5e5aa39b15b8d429d07abfd4,14/09/1939,2020-09-03_19h19.44.204,proactive2,2020.1.2,Win32,60,5f5126bb654d4b30ee6923d8,5f513388e39a4714a745c0ec,1,,,,,,motorbike,,,,,,0,10,10,26,1,3,2,,,,,,,,,,,,,,,,,,,,,,,,,,,,,,,,,,,,,,,,,,,,,,,,,,,,,,,,,,,,,,,,,,,,,,,,,,,,,,,,,,,,,,,,,,,,,,,,,,,
,,,,,,,,,,stimuli/images/PICTURE_285.png,PRINCE,5e5aa39b15b8d429d07abfd4,14/09/1939,2020-09-03_19h19.44.204,proactive2,2020.1.2,Win32,60,5f5126bb654d4b30ee6923d8,5f513388e39a4714a745c0ec,1,,,,,,carrot,,,,,,0,11,11,20,1,3,2,,,,,,,,,,,,,,,,,,,,,,,,,,,,,,,,,,,,,,,,,,,,,,,,,,,,,,,,,,,,,,,,,,,,,,,,,,,,,,,,,,,,,,,,,,,,,,,,,,,
,,,,,,,,,,stimuli/images/PICTURE_453.png,FAMILY,5e5aa39b15b8d429d07abfd4,14/09/1939,2020-09-03_19h19.44.204,proactive2,2020.1.2,Win32,60,5f5126bb654d4b30ee6923d8,5f513388e39a4714a745c0ec,1,,,,,,scissors,,,,,,0,12,12,48,1,5,2,,,,,,,,,,,,,,,,,,,,,,,,,,,,,,,,,,,,,,,,,,,,,,,,,,,,,,,,,,,,,,,,,,,,,,,,,,,,,,,,,,,,,,,,,,,,,,,,,,,
,,,,,,,,,,stimuli/images/PICTURE_2.png,AREA,5e5aa39b15b8d429d07abfd4,14/09/1939,2020-09-03_19h19.44.204,proactive2,2020.1.2,Win32,60,5f5126bb654d4b30ee6923d8,5f513388e39a4714a745c0ec,1,,,,,,tyre,,,,,,0,13,13,32,1,4,2,,,,,,,,,,,,,,,,,,,,,,,,,,,,,,,,,,,,,,,,,,,,,,,,,,,,,,,,,,,,,,,,,,,,,,,,,,,,,,,,,,,,,,,,,,,,,,,,,,,
,,,,,,,,,,stimuli/images/PICTURE_509.png,SHOTS,5e5aa39b15b8d429d07abfd4,14/09/1939,2020-09-03_19h19.44.204,proactive2,2020.1.2,Win32,60,5f5126bb654d4b30ee6923d8,5f513388e39a4714a745c0ec,1,,,,,,telephone,,,,,,0,14,14,7,1,1,2,,,,,,,,,,,,,,,,,,,,,,,,,,,,,,,,,,,,,,,,,,,,,,,,,,,,,,,,,,,,,,,,,,,,,,,,,,,,,,,,,,,,,,,,,,,,,,,,,,,
,,,,,,,,,,stimuli/images/PICTURE_2.png,JUNGLE,5e5aa39b15b8d429d07abfd4,14/09/1939,2020-09-03_19h19.44.204,proactive2,2020.1.2,Win32,60,5f5126bb654d4b30ee6923d8,5f513388e39a4714a745c0ec,1,,,,,,tyre,,,,,,0,15,15,1,1,1,2,,,,,,,,,,,,,,,,,,,,,,,,,,,,,,,,,,,,,,,,,,,,,,,,,,,,,,,,,,,,,,,,,,,,,,,,,,,,,,,,,,,,,,,,,,,,,,,,,,,
,,,,,,,,,,stimuli/images/PICTURE_655.png,SALE,5e5aa39b15b8d429d07abfd4,14/09/1939,2020-09-03_19h19.44.204,proactive2,2020.1.2,Win32,60,5f5126bb654d4b30ee6923d8,5f513388e39a4714a745c0ec,1,,,,,,megaphone,,,,,,0,16,16,57,1,6,2,,,,,,,,,,,,,,,,,,,,,,,,,,,,,,,,,,,,,,,,,,,,,,,,,,,,,,,,,,,,,,,,,,,,,,,,,,,,,,,,,,,,,,,,,,,,,,,,,,,
,,,,,,,,,,stimuli/images/PICTURE_708.png,VALLEY,5e5aa39b15b8d429d07abfd4,14/09/1939,2020-09-03_19h19.44.204,proactive2,2020.1.2,Win32,60,5f5126bb654d4b30ee6923d8,5f513388e39a4714a745c0ec,1,,,,,,monkey,,,,,,0,17,17,45,1,5,2,,,,,,,,,,,,,,,,,,,,,,,,,,,,,,,,,,,,,,,,,,,,,,,,,,,,,,,,,,,,,,,,,,,,,,,,,,,,,,,,,,,,,,,,,,,,,,,,,,,
,,,,,,,,,,stimuli/images/PICTURE_405.png,JUNGLE,5e5aa39b15b8d429d07abfd4,14/09/1939,2020-09-03_19h19.44.204,proactive2,2020.1.2,Win32,60,5f5126bb654d4b30ee6923d8,5f513388e39a4714a745c0ec,1,,,,,,anchor,,,,,,0,18,18,13,1,2,2,,,,,,,,,,,,,,,,,,,,,,,,,,,,,,,,,,,,,,,,,,,,,,,,,,,,,,,,,,,,,,,,,,,,,,,,,,,,,,,,,,,,,,,,,,,,,,,,,,,
,,,,,,,,,,stimuli/images/PICTURE_692.png,DUDE,5e5aa39b15b8d429d07abfd4,14/09/1939,2020-09-03_19h19.44.204,proactive2,2020.1.2,Win32,60,5f5126bb654d4b30ee6923d8,5f513388e39a4714a745c0ec,1,,,,,,cherry,,,,,,0,19,19,47,1,5,2,,,,,,,,,,,,,,,,,,,,,,,,,,,,,,,,,,,,,,,,,,,,,,,,,,,,,,,,,,,,,,,,,,,,,,,,,,,,,,,,,,,,,,,,,,,,,,,,,,,
,,,,,,,,,,stimuli/images/PICTURE_504.png,HOUSE,5e5aa39b15b8d429d07abfd4,14/09/1939,2020-09-03_19h19.44.204,proactive2,2020.1.2,Win32,60,5f5126bb654d4b30ee6923d8,5f513388e39a4714a745c0ec,1,,,,,,wheel,,,,,,0,20,20,36,1,4,2,,,,,,,,,,,,,,,,,,,,,,,,,,,,,,,,,,,,,,,,,,,,,,,,,,,,,,,,,,,,,,,,,,,,,,,,,,,,,,,,,,,,,,,,,,,,,,,,,,,
,,,,,,,,,,stimuli/images/PICTURE_2.png,YARD,5e5aa39b15b8d429d07abfd4,14/09/1939,2020-09-03_19h19.44.204,proactive2,2020.1.2,Win32,60,5f5126bb654d4b30ee6923d8,5f513388e39a4714a745c0ec,1,,,,,,tyre,,,,,,0,21,21,55,1,6,2,,,,,,,,,,,,,,,,,,,,,,,,,,,,,,,,,,,,,,,,,,,,,,,,,,,,,,,,,,,,,,,,,,,,,,,,,,,,,,,,,,,,,,,,,,,,,,,,,,,
,,,,,,,,,,stimuli/images/PICTURE_356.png,CANDY,5e5aa39b15b8d429d07abfd4,14/09/1939,2020-09-03_19h19.44.204,proactive2,2020.1.2,Win32,60,5f5126bb654d4b30ee6923d8,5f513388e39a4714a745c0ec,1,,,,,,pawn,,,,,,0,22,22,46,1,5,2,,,,,,,,,,,,,,,,,,,,,,,,,,,,,,,,,,,,,,,,,,,,,,,,,,,,,,,,,,,,,,,,,,,,,,,,,,,,,,,,,,,,,,,,,,,,,,,,,,,
,,,,,,,,,,stimuli/images/PICTURE_667.png,GLASS,5e5aa39b15b8d429d07abfd4,14/09/1939,2020-09-03_19h19.44.204,proactive2,2020.1.2,Win32,60,5f5126bb654d4b30ee6923d8,5f513388e39a4714a745c0ec,1,,,,,,daisy,,,,,,0,23,23,27,1,3,2,,,,,,,,,,,,,,,,,,,,,,,,,,,,,,,,,,,,,,,,,,,,,,,,,,,,,,,,,,,,,,,,,,,,,,,,,,,,,,,,,,,,,,,,,,,,,,,,,,,
,,,,,,,,,,stimuli/images/PICTURE_311.png,TOILET,5e5aa39b15b8d429d07abfd4,14/09/1939,2020-09-03_19h19.44.204,proactive2,2020.1.2,Win32,60,5f5126bb654d4b30ee6923d8,5f513388e39a4714a745c0ec,1,,,,,,razor,,,,,,0,24,24,54,1,6,2,,,,,,,,,,,,,,,,,,,,,,,,,,,,,,,,,,,,,,,,,,,,,,,,,,,,,,,,,,,,,,,,,,,,,,,,,,,,,,,,,,,,,,,,,,,,,,,,,,,
,,,,,,,,,,stimuli/images/PICTURE_57.png,NATION,5e5aa39b15b8d429d07abfd4,14/09/1939,2020-09-03_19h19.44.204,proactive2,2020.1.2,Win32,60,5f5126bb654d4b30ee6923d8,5f513388e39a4714a745c0ec,1,,,,,,stamp,,,,,,0,25,25,21,1,3,2,,,,,,,,,,,,,,,,,,,,,,,,,,,,,,,,,,,,,,,,,,,,,,,,,,,,,,,,,,,,,,,,,,,,,,,,,,,,,,,,,,,,,,,,,,,,,,,,,,,
,,,,,,,,,,stimuli/images/PICTURE_405.png,HOUSE,5e5aa39b15b8d429d07abfd4,14/09/1939,2020-09-03_19h19.44.204,proactive2,2020.1.2,Win32,60,5f5126bb654d4b30ee6923d8,5f513388e39a4714a745c0ec,1,,,,,,anchor,,,,,,0,26,26,2,1,1,2,,,,,,,,,,,,,,,,,,,,,,,,,,,,,,,,,,,,,,,,,,,,,,,,,,,,,,,,,,,,,,,,,,,,,,,,,,,,,,,,,,,,,,,,,,,,,,,,,,,
,,,,,,,,,,stimuli/images/PICTURE_654.png,COPS,5e5aa39b15b8d429d07abfd4,14/09/1939,2020-09-03_19h19.44.204,proactive2,2020.1.2,Win32,60,5f5126bb654d4b30ee6923d8,5f513388e39a4714a745c0ec,1,,,,,,pencil,,,,,,0,27,27,10,1,2,2,,,,,,,,,,,,,,,,,,,,,,,,,,,,,,,,,,,,,,,,,,,,,,,,,,,,,,,,,,,,,,,,,,,,,,,,,,,,,,,,,,,,,,,,,,,,,,,,,,,
,,,,,,,,,,stimuli/images/PICTURE_255.png,PENNY,5e5aa39b15b8d429d07abfd4,14/09/1939,2020-09-03_19h19.44.204,proactive2,2020.1.2,Win32,60,5f5126bb654d4b30ee6923d8,5f513388e39a4714a745c0ec,1,,,,,,shovel,,,,,,0,28,28,19,1,2,2,,,,,,,,,,,,,,,,,,,,,,,,,,,,,,,,,,,,,,,,,,,,,,,,,,,,,,,,,,,,,,,,,,,,,,,,,,,,,,,,,,,,,,,,,,,,,,,,,,,
,,,,,,,,,,stimuli/images/PICTURE_654.png,YEAR,5e5aa39b15b8d429d07abfd4,14/09/1939,2020-09-03_19h19.44.204,proactive2,2020.1.2,Win32,60,5f5126bb654d4b30ee6923d8,5f513388e39a4714a745c0ec,1,,,,,,pencil,,,,,,0,29,29,41,1,5,2,,,,,,,,,,,,,,,,,,,,,,,,,,,,,,,,,,,,,,,,,,,,,,,,,,,,,,,,,,,,,,,,,,,,,,,,,,,,,,,,,,,,,,,,,,,,,,,,,,,
,,,,,,,,,,stimuli/images/PICTURE_68.png,KIND,5e5aa39b15b8d429d07abfd4,14/09/1939,2020-09-03_19h19.44.204,proactive2,2020.1.2,Win32,60,5f5126bb654d4b30ee6923d8,5f513388e39a4714a745c0ec,1,,,,,,candle,,,,,,0,30,30,23,1,3,2,,,,,,,,,,,,,,,,,,,,,,,,,,,,,,,,,,,,,,,,,,,,,,,,,,,,,,,,,,,,,,,,,,,,,,,,,,,,,,,,,,,,,,,,,,,,,,,,,,,
,,,,,,,,,,stimuli/images/PICTURE_208.png,SPIRIT,5e5aa39b15b8d429d07abfd4,14/09/1939,2020-09-03_19h19.44.204,proactive2,2020.1.2,Win32,60,5f5126bb654d4b30ee6923d8,5f513388e39a4714a745c0ec,1,,,,,,microphone,,,,,,0,31,31,28,1,3,2,,,,,,,,,,,,,,,,,,,,,,,,,,,,,,,,,,,,,,,,,,,,,,,,,,,,,,,,,,,,,,,,,,,,,,,,,,,,,,,,,,,,,,,,,,,,,,,,,,,
,,,,,,,,,,stimuli/images/PICTURE_215.png,FOOD,5e5aa39b15b8d429d07abfd4,14/09/1939,2020-09-03_19h19.44.204,proactive2,2020.1.2,Win32,60,5f5126bb654d4b30ee6923d8,5f513388e39a4714a745c0ec,1,,,,,,boot,,,,,,0,32,32,5,1,1,2,,,,,,,,,,,,,,,,,,,,,,,,,,,,,,,,,,,,,,,,,,,,,,,,,,,,,,,,,,,,,,,,,,,,,,,,,,,,,,,,,,,,,,,,,,,,,,,,,,,
,,,,,,,,,,stimuli/images/PICTURE_405.png,JUNGLE,5e5aa39b15b8d429d07abfd4,14/09/1939,2020-09-03_19h19.44.204,proactive2,2020.1.2,Win32,60,5f5126bb654d4b30ee6923d8,5f513388e39a4714a745c0ec,1,,,,,,anchor,,,,,,0,33,33,58,1,6,2,,,,,,,,,,,,,,,,,,,,,,,,,,,,,,,,,,,,,,,,,,,,,,,,,,,,,,,,,,,,,,,,,,,,,,,,,,,,,,,,,,,,,,,,,,,,,,,,,,,
,,,,,,,,,,stimuli/images/PICTURE_95.png,NIGHT,5e5aa39b15b8d429d07abfd4,14/09/1939,2020-09-03_19h19.44.204,proactive2,2020.1.2,Win32,60,5f5126bb654d4b30ee6923d8,5f513388e39a4714a745c0ec,1,,,,,,suitcase,,,,,,0,34,34,37,1,4,2,,,,,,,,,,,,,,,,,,,,,,,,,,,,,,,,,,,,,,,,,,,,,,,,,,,,,,,,,,,,,,,,,,,,,,,,,,,,,,,,,,,,,,,,,,,,,,,,,,,
,,,,,,,,,,stimuli/images/PICTURE_285.png,WRITER,5e5aa39b15b8d429d07abfd4,14/09/1939,2020-09-03_19h19.44.204,proactive2,2020.1.2,Win32,60,5f5126bb654d4b30ee6923d8,5f513388e39a4714a745c0ec,1,,,,,,carrot,,,,,,0,35,35,6,1,1,2,,,,,,,,,,,,,,,,,,,,,,,,,,,,,,,,,,,,,,,,,,,,,,,,,,,,,,,,,,,,,,,,,,,,,,,,,,,,,,,,,,,,,,,,,,,,,,,,,,,
,,,,,,,,,,stimuli/images/PICTURE_32.png,LETTER,5e5aa39b15b8d429d07abfd4,14/09/1939,2020-09-03_19h19.44.204,proactive2,2020.1.2,Win32,60,5f5126bb654d4b30ee6923d8,5f513388e39a4714a745c0ec,1,,,,,,crown,,,,,,0,36,36,56,1,6,2,,,,,,,,,,,,,,,,,,,,,,,,,,,,,,,,,,,,,,,,,,,,,,,,,,,,,,,,,,,,,,,,,,,,,,,,,,,,,,,,,,,,,,,,,,,,,,,,,,,
,,,,,,,,,,stimuli/images/PICTURE_677.png,FAMILY,5e5aa39b15b8d429d07abfd4,14/09/1939,2020-09-03_19h19.44.204,proactive2,2020.1.2,Win32,60,5f5126bb654d4b30ee6923d8,5f513388e39a4714a745c0ec,1,,,,,,map,,,,,,0,37,37,53,1,6,2,,,,,,,,,,,,,,,,,,,,,,,,,,,,,,,,,,,,,,,,,,,,,,,,,,,,,,,,,,,,,,,,,,,,,,,,,,,,,,,,,,,,,,,,,,,,,,,,,,,
,,,,,,,,,,stimuli/images/PICTURE_314.png,SPEECH,5e5aa39b15b8d429d07abfd4,14/09/1939,2020-09-03_19h19.44.204,proactive2,2020.1.2,Win32,60,5f5126bb654d4b30ee6923d8,5f513388e39a4714a745c0ec,1,,,,,,perfume,,,,,,0,38,38,35,1,4,2,,,,,,,,,,,,,,,,,,,,,,,,,,,,,,,,,,,,,,,,,,,,,,,,,,,,,,,,,,,,,,,,,,,,,,,,,,,,,,,,,,,,,,,,,,,,,,,,,,,
,,,,,,,,,,stimuli/images/PICTURE_403.png,FAMILY,5e5aa39b15b8d429d07abfd4,14/09/1939,2020-09-03_19h19.44.204,proactive2,2020.1.2,Win32,60,5f5126bb654d4b30ee6923d8,5f513388e39a4714a745c0ec,1,,,,,,cathedral,,,,,,0,39,39,9,1,1,2,,,,,,,,,,,,,,,,,,,,,,,,,,,,,,,,,,,,,,,,,,,,,,,,,,,,,,,,,,,,,,,,,,,,,,,,,,,,,,,,,,,,,,,,,,,,,,,,,,,
,,,,,,,,,,stimuli/images/PICTURE_509.png,BATH,5e5aa39b15b8d429d07abfd4,14/09/1939,2020-09-03_19h19.44.204,proactive2,2020.1.2,Win32,60,5f5126bb654d4b30ee6923d8,5f513388e39a4714a745c0ec,1,,,,,,telephone,,,,,,0,40,40,15,1,2,2,,,,,,,,,,,,,,,,,,,,,,,,,,,,,,,,,,,,,,,,,,,,,,,,,,,,,,,,,,,,,,,,,,,,,,,,,,,,,,,,,,,,,,,,,,,,,,,,,,,
,,,,,,,,,,stimuli/images/PICTURE_311.png,FLESH,5e5aa39b15b8d429d07abfd4,14/09/1939,2020-09-03_19h19.44.204,proactive2,2020.1.2,Win32,60,5f5126bb654d4b30ee6923d8,5f513388e39a4714a745c0ec,1,,,,,,razor,,,,,,0,41,41,3,1,1,2,,,,,,,,,,,,,,,,,,,,,,,,,,,,,,,,,,,,,,,,,,,,,,,,,,,,,,,,,,,,,,,,,,,,,,,,,,,,,,,,,,,,,,,,,,,,,,,,,,,
,,,,,,,,,,stimuli/images/PICTURE_57.png,CANDY,5e5aa39b15b8d429d07abfd4,14/09/1939,2020-09-03_19h19.44.204,proactive2,2020.1.2,Win32,60,5f5126bb654d4b30ee6923d8,5f513388e39a4714a745c0ec,1,,,,,,stamp,,,,,,0,42,42,52,1,6,2,,,,,,,,,,,,,,,,,,,,,,,,,,,,,,,,,,,,,,,,,,,,,,,,,,,,,,,,,,,,,,,,,,,,,,,,,,,,,,,,,,,,,,,,,,,,,,,,,,,
,,,,,,,,,,stimuli/images/PICTURE_177.png,HOUSE,5e5aa39b15b8d429d07abfd4,14/09/1939,2020-09-03_19h19.44.204,proactive2,2020.1.2,Win32,60,5f5126bb654d4b30ee6923d8,5f513388e39a4714a745c0ec,1,,,,,,mushroom,,,,,,0,43,43,25,1,3,2,,,,,,,,,,,,,,,,,,,,,,,,,,,,,,,,,,,,,,,,,,,,,,,,,,,,,,,,,,,,,,,,,,,,,,,,,,,,,,,,,,,,,,,,,,,,,,,,,,,
,,,,,,,,,,stimuli/images/PICTURE_509.png,APPLE,5e5aa39b15b8d429d07abfd4,14/09/1939,2020-09-03_19h19.44.204,proactive2,2020.1.2,Win32,60,5f5126bb654d4b30ee6923d8,5f513388e39a4714a745c0ec,1,,,,,,telephone,,,,,,0,44,44,38,1,4,2,,,,,,,,,,,,,,,,,,,,,,,,,,,,,,,,,,,,,,,,,,,,,,,,,,,,,,,,,,,,,,,,,,,,,,,,,,,,,,,,,,,,,,,,,,,,,,,,,,,
,,,,,,,,,,stimuli/images/PICTURE_215.png,BOYS,5e5aa39b15b8d429d07abfd4,14/09/1939,2020-09-03_19h19.44.204,proactive2,2020.1.2,Win32,60,5f5126bb654d4b30ee6923d8,5f513388e39a4714a745c0ec,1,,,,,,boot,,,,,,0,45,45,24,1,3,2,,,,,,,,,,,,,,,,,,,,,,,,,,,,,,,,,,,,,,,,,,,,,,,,,,,,,,,,,,,,,,,,,,,,,,,,,,,,,,,,,,,,,,,,,,,,,,,,,,,
,,,,,,,,,,stimuli/images/PICTURE_452.png,COPS,5e5aa39b15b8d429d07abfd4,14/09/1939,2020-09-03_19h19.44.204,proactive2,2020.1.2,Win32,60,5f5126bb654d4b30ee6923d8,5f513388e39a4714a745c0ec,1,,,,,,watch,,,,,,0,46,46,0,1,1,2,,,,,,,,,,,,,,,,,,,,,,,,,,,,,,,,,,,,,,,,,,,,,,,,,,,,,,,,,,,,,,,,,,,,,,,,,,,,,,,,,,,,,,,,,,,,,,,,,,,
,,,,,,,,,,stimuli/images/PICTURE_57.png,CASINO,5e5aa39b15b8d429d07abfd4,14/09/1939,2020-09-03_19h19.44.204,proactive2,2020.1.2,Win32,60,5f5126bb654d4b30ee6923d8,5f513388e39a4714a745c0ec,1,,,,,,stamp,,,,,,0,47,47,12,1,2,2,,,,,,,,,,,,,,,,,,,,,,,,,,,,,,,,,,,,,,,,,,,,,,,,,,,,,,,,,,,,,,,,,,,,,,,,,,,,,,,,,,,,,,,,,,,,,,,,,,,
,,,,,,,,,,stimuli/images/PICTURE_487.png,ROOF,5e5aa39b15b8d429d07abfd4,14/09/1939,2020-09-03_19h19.44.204,proactive2,2020.1.2,Win32,60,5f5126bb654d4b30ee6923d8,5f513388e39a4714a745c0ec,1,,,,,,basket,,,,,,0,48,48,50,1,6,2,,,,,,,,,,,,,,,,,,,,,,,,,,,,,,,,,,,,,,,,,,,,,,,,,,,,,,,,,,,,,,,,,,,,,,,,,,,,,,,,,,,,,,,,,,,,,,,,,,,
,,,,,,,,,,stimuli/images/PICTURE_348.png,DUDE,5e5aa39b15b8d429d07abfd4,14/09/1939,2020-09-03_19h19.44.204,proactive2,2020.1.2,Win32,60,5f5126bb654d4b30ee6923d8,5f513388e39a4714a745c0ec,1,,,,,,pepper,,,,,,0,49,49,59,1,6,2,,,,,,,,,,,,,,,,,,,,,,,,,,,,,,,,,,,,,,,,,,,,,,,,,,,,,,,,,,,,,,,,,,,,,,,,,,,,,,,,,,,,,,,,,,,,,,,,,,,
,,,,,,,,,,stimuli/images/PICTURE_688.png,CLOCK,5e5aa39b15b8d429d07abfd4,14/09/1939,2020-09-03_19h19.44.204,proactive2,2020.1.2,Win32,60,5f5126bb654d4b30ee6923d8,5f513388e39a4714a745c0ec,1,,,,,,runner,,,,,,0,50,50,42,1,5,2,,,,,,,,,,,,,,,,,,,,,,,,,,,,,,,,,,,,,,,,,,,,,,,,,,,,,,,,,,,,,,,,,,,,,,,,,,,,,,,,,,,,,,,,,,,,,,,,,,,
