consent_key.keys,consent_key.rt,recalled,recalled_rt,recall_acc,example_recall.thisRepN,example_recall.thisTrialN,example_recall.thisN,example_recall.thisIndex,example_recall.ran,file,word,participant,please enter your date of birth (dd/mm/yyyy),date,expName,psychopyVersion,OS,frameRate,STUDY_ID,SESSION_ID,list,prac_learn_study_loop.thisRepN,prac_learn_study_loop.thisTrialN,prac_learn_study_loop.thisN,prac_learn_study_loop.thisIndex,prac_learn_study_loop.ran,image,prac_learn_test_loop.thisRepN,prac_learn_test_loop.thisTrialN,prac_learn_test_loop.thisN,prac_learn_test_loop.thisIndex,prac_learn_test_loop.ran,learn_study_loop.thisRepN,learn_study_loop.thisTrialN,learn_study_loop.thisN,learn_study_loop.thisIndex,learn_study_loop.ran,list_no,block_no,learn_test_loop.thisRepN,learn_test_loop.thisTrialN,learn_test_loop.thisN,learn_test_loop.thisIndex,learn_test_loop.ran,learn_blocks.thisRepN,learn_blocks.thisTrialN,learn_blocks.thisN,learn_blocks.thisIndex,learn_blocks.ran,block_csv,key_resp_13.keys,key_resp_13.rt,learn_blocks_loop.thisRepN,learn_blocks_loop.thisTrialN,learn_blocks_loop.thisN,learn_blocks_loop.thisIndex,learn_blocks_loop.ran,final_learn_test.thisRepN,final_learn_test.thisTrialN,final_learn_test.thisN,final_learn_test.thisIndex,final_learn_test.ran,s_im1,s_im2,s_im3,s_im4,s_im5,s_im6,s_im7,s_im8,s_im1pos,s_im2pos,s_im3pos,s_im4pos,s_im5pos,s_im6pos,s_im7pos,s_im8pos,s_tarright,search_resp.keys,search_loop.thisRepN,search_loop.thisTrialN,search_loop.thisN,search_loop.thisIndex,search_loop.ran,search_resp.rt,prac_wm_test_loop.thisRepN,prac_wm_test_loop.thisTrialN,prac_wm_test_loop.thisN,prac_wm_test_loop.thisIndex,prac_wm_test_loop.ran,wm_recalled1,wm_recall_rt1,wm_probed1,wm_recall_acc1,wm_recalled2,wm_recall_rt2,wm_probed2,wm_recall_acc2,wm_recalled3,wm_recall_rt3,wm_probed3,wm_recall_acc3,wm_recalled4,wm_recall_rt4,wm_probed4,wm_recall_acc4,prac_wm_trial_loop.thisRepN,prac_wm_trial_loop.thisTrialN,prac_wm_trial_loop.thisN,prac_wm_trial_loop.thisIndex,prac_wm_trial_loop.ran,word1,image1,file1,item_type1,word2,image2,file2,item_type2,word4,image4,file4,item_type4,word3,image3,file3,item_type3,wm_test_loop.thisRepN,wm_test_loop.thisTrialN,wm_test_loop.thisN,wm_test_loop.thisIndex,wm_test_loop.ran,wm_trial_loop.thisRepN,wm_trial_loop.thisTrialN,wm_trial_loop.thisN,wm_trial_loop.thisIndex,wm_trial_loop.ran
y,32.195,BATH,6.444,0,0,0,0,0,1,stimuli/images/PICTURE_747.png,TOUGH,5e8b5bd1ac48b2027b9f76e8,11/04/1999,2020-08-13_12h52.50.810,proactive2,2020.1.2,MacIntel,60,5f341be081b9052c55068110,5f3528d30d301447d9448383,6,,,,,,,,,,,,,,,,,,,,,,,,,,,,,,,,,,,,,,,,,,,,,,,,,,,,,,,,,,,,,,,,,,,,,,,,,,,,,,,,,,,,,,,,,,,,,,,,,,,,,,,,,,,,,,,,,,,,,
,,,,,,,,,,stimuli/images/PICTURE_269.png,GENIUS,5e8b5bd1ac48b2027b9f76e8,11/04/1999,2020-08-13_12h52.50.810,proactive2,2020.1.2,MacIntel,60,5f341be081b9052c55068110,5f3528d30d301447d9448383,6,0,0,0,0,1,chameleon,,,,,,,,,,,,,,,,,,,,,,,,,,,,,,,,,,,,,,,,,,,,,,,,,,,,,,,,,,,,,,,,,,,,,,,,,,,,,,,,,,,,,,,,,,,,,,,,,,,,,,,,,,,,,,,
,,,,,,,,,,stimuli/images/PICTURE_697.png,KILLER,5e8b5bd1ac48b2027b9f76e8,11/04/1999,2020-08-13_12h52.50.810,proactive2,2020.1.2,MacIntel,60,5f341be081b9052c55068110,5f3528d30d301447d9448383,6,0,1,1,4,1,peach,,,,,,,,,,,,,,,,,,,,,,,,,,,,,,,,,,,,,,,,,,,,,,,,,,,,,,,,,,,,,,,,,,,,,,,,,,,,,,,,,,,,,,,,,,,,,,,,,,,,,,,,,,,,,,,
,,,,,,,,,,stimuli/images/PICTURE_727.png,CELL,5e8b5bd1ac48b2027b9f76e8,11/04/1999,2020-08-13_12h52.50.810,proactive2,2020.1.2,MacIntel,60,5f341be081b9052c55068110,5f3528d30d301447d9448383,6,0,2,2,1,1,hose,,,,,,,,,,,,,,,,,,,,,,,,,,,,,,,,,,,,,,,,,,,,,,,,,,,,,,,,,,,,,,,,,,,,,,,,,,,,,,,,,,,,,,,,,,,,,,,,,,,,,,,,,,,,,,,
,,,,,,,,,,stimuli/images/PICTURE_658.png,DEVIL,5e8b5bd1ac48b2027b9f76e8,11/04/1999,2020-08-13_12h52.50.810,proactive2,2020.1.2,MacIntel,60,5f341be081b9052c55068110,5f3528d30d301447d9448383,6,0,3,3,3,1,crow,,,,,,,,,,,,,,,,,,,,,,,,,,,,,,,,,,,,,,,,,,,,,,,,,,,,,,,,,,,,,,,,,,,,,,,,,,,,,,,,,,,,,,,,,,,,,,,,,,,,,,,,,,,,,,,
,,CELL,7.097,0,,,,,,stimuli/images/PICTURE_697.png,KILLER,5e8b5bd1ac48b2027b9f76e8,11/04/1999,2020-08-13_12h52.50.810,proactive2,2020.1.2,MacIntel,60,5f341be081b9052c55068110,5f3528d30d301447d9448383,6,,,,,,peach,0,0,0,4,1,,,,,,,,,,,,,,,,,,,,,,,,,,,,,,,,,,,,,,,,,,,,,,,,,,,,,,,,,,,,,,,,,,,,,,,,,,,,,,,,,,,,,,,,,,,,,,,,,,,,,,,,,,
,,CROSS,6.202,0,,,,,,stimuli/images/PICTURE_658.png,DEVIL,5e8b5bd1ac48b2027b9f76e8,11/04/1999,2020-08-13_12h52.50.810,proactive2,2020.1.2,MacIntel,60,5f341be081b9052c55068110,5f3528d30d301447d9448383,6,,,,,,crow,0,1,1,3,1,,,,,,,,,,,,,,,,,,,,,,,,,,,,,,,,,,,,,,,,,,,,,,,,,,,,,,,,,,,,,,,,,,,,,,,,,,,,,,,,,,,,,,,,,,,,,,,,,,,,,,,,,,
,,GENUIS,4.15,0,,,,,,stimuli/images/PICTURE_269.png,GENIUS,5e8b5bd1ac48b2027b9f76e8,11/04/1999,2020-08-13_12h52.50.810,proactive2,2020.1.2,MacIntel,60,5f341be081b9052c55068110,5f3528d30d301447d9448383,6,,,,,,chameleon,0,2,2,0,1,,,,,,,,,,,,,,,,,,,,,,,,,,,,,,,,,,,,,,,,,,,,,,,,,,,,,,,,,,,,,,,,,,,,,,,,,,,,,,,,,,,,,,,,,,,,,,,,,,,,,,,,,,
,,CELL,3.586,1,,,,,,stimuli/images/PICTURE_727.png,CELL,5e8b5bd1ac48b2027b9f76e8,11/04/1999,2020-08-13_12h52.50.810,proactive2,2020.1.2,MacIntel,60,5f341be081b9052c55068110,5f3528d30d301447d9448383,6,,,,,,hose,0,3,3,1,1,,,,,,,,,,,,,,,,,,,,,,,,,,,,,,,,,,,,,,,,,,,,,,,,,,,,,,,,,,,,,,,,,,,,,,,,,,,,,,,,,,,,,,,,,,,,,,,,,,,,,,,,,,
,,RED,10.002,0,,,,,,stimuli/images/PICTURE_378.png,LOSS,5e8b5bd1ac48b2027b9f76e8,11/04/1999,2020-08-13_12h52.50.810,proactive2,2020.1.2,MacIntel,60,5f341be081b9052c55068110,5f3528d30d301447d9448383,6,,,,,,lobster,0,4,4,2,1,,,,,,,,,,,,,,,,,,,,,,,,,,,,,,,,,,,,,,,,,,,,,,,,,,,,,,,,,,,,,,,,,,,,,,,,,,,,,,,,,,,,,,,,,,,,,,,,,,,,,,,,,,
,,,,,,,,,,stimuli/images/PICTURE_677.png,APPLE,5e8b5bd1ac48b2027b9f76e8,11/04/1999,2020-08-13_12h52.50.810,proactive2,2020.1.2,MacIntel,60,5f341be081b9052c55068110,5f3528d30d301447d9448383,6,,,,,,map,,,,,,0,0,0,43,1,5,1,,,,,,,,,,,,,,,,,,,,,,,,,,,,,,,,,,,,,,,,,,,,,,,,,,,,,,,,,,,,,,,,,,,,,,,,,,,,,,,,,,,,,,,,,,,,,,,,,,,
,,,,,,,,,,stimuli/images/PICTURE_405.png,PLENTY,5e8b5bd1ac48b2027b9f76e8,11/04/1999,2020-08-13_12h52.50.810,proactive2,2020.1.2,MacIntel,60,5f341be081b9052c55068110,5f3528d30d301447d9448383,6,,,,,,anchor,,,,,,0,1,1,23,1,3,1,,,,,,,,,,,,,,,,,,,,,,,,,,,,,,,,,,,,,,,,,,,,,,,,,,,,,,,,,,,,,,,,,,,,,,,,,,,,,,,,,,,,,,,,,,,,,,,,,,,
,,,,,,,,,,stimuli/images/PICTURE_655.png,TOILET,5e8b5bd1ac48b2027b9f76e8,11/04/1999,2020-08-13_12h52.50.810,proactive2,2020.1.2,MacIntel,60,5f341be081b9052c55068110,5f3528d30d301447d9448383,6,,,,,,megaphone,,,,,,0,2,2,12,1,2,1,,,,,,,,,,,,,,,,,,,,,,,,,,,,,,,,,,,,,,,,,,,,,,,,,,,,,,,,,,,,,,,,,,,,,,,,,,,,,,,,,,,,,,,,,,,,,,,,,,,
,,,,,,,,,,stimuli/images/PICTURE_85.png,TOILET,5e8b5bd1ac48b2027b9f76e8,11/04/1999,2020-08-13_12h52.50.810,proactive2,2020.1.2,MacIntel,60,5f341be081b9052c55068110,5f3528d30d301447d9448383,6,,,,,,diamond,,,,,,0,3,3,48,1,5,1,,,,,,,,,,,,,,,,,,,,,,,,,,,,,,,,,,,,,,,,,,,,,,,,,,,,,,,,,,,,,,,,,,,,,,,,,,,,,,,,,,,,,,,,,,,,,,,,,,,
,,,,,,,,,,stimuli/images/PICTURE_177.png,WRITER,5e8b5bd1ac48b2027b9f76e8,11/04/1999,2020-08-13_12h52.50.810,proactive2,2020.1.2,MacIntel,60,5f341be081b9052c55068110,5f3528d30d301447d9448383,6,,,,,,mushroom,,,,,,0,4,4,41,1,5,1,,,,,,,,,,,,,,,,,,,,,,,,,,,,,,,,,,,,,,,,,,,,,,,,,,,,,,,,,,,,,,,,,,,,,,,,,,,,,,,,,,,,,,,,,,,,,,,,,,,
,,,,,,,,,,stimuli/images/PICTURE_2.png,FLIGHT,5e8b5bd1ac48b2027b9f76e8,11/04/1999,2020-08-13_12h52.50.810,proactive2,2020.1.2,MacIntel,60,5f341be081b9052c55068110,5f3528d30d301447d9448383,6,,,,,,tyre,,,,,,0,5,5,15,1,2,1,,,,,,,,,,,,,,,,,,,,,,,,,,,,,,,,,,,,,,,,,,,,,,,,,,,,,,,,,,,,,,,,,,,,,,,,,,,,,,,,,,,,,,,,,,,,,,,,,,,
,,,,,,,,,,stimuli/images/PICTURE_297.png,RIVER,5e8b5bd1ac48b2027b9f76e8,11/04/1999,2020-08-13_12h52.50.810,proactive2,2020.1.2,MacIntel,60,5f341be081b9052c55068110,5f3528d30d301447d9448383,6,,,,,,aeroplane,,,,,,0,6,6,39,1,4,1,,,,,,,,,,,,,,,,,,,,,,,,,,,,,,,,,,,,,,,,,,,,,,,,,,,,,,,,,,,,,,,,,,,,,,,,,,,,,,,,,,,,,,,,,,,,,,,,,,,
,,,,,,,,,,stimuli/images/PICTURE_203.png,NIGHT,5e8b5bd1ac48b2027b9f76e8,11/04/1999,2020-08-13_12h52.50.810,proactive2,2020.1.2,MacIntel,60,5f341be081b9052c55068110,5f3528d30d301447d9448383,6,,,,,,cap,,,,,,0,7,7,2,1,1,1,,,,,,,,,,,,,,,,,,,,,,,,,,,,,,,,,,,,,,,,,,,,,,,,,,,,,,,,,,,,,,,,,,,,,,,,,,,,,,,,,,,,,,,,,,,,,,,,,,,
,,,,,,,,,,stimuli/images/PICTURE_147.png,WOMEN,5e8b5bd1ac48b2027b9f76e8,11/04/1999,2020-08-13_12h52.50.810,proactive2,2020.1.2,MacIntel,60,5f341be081b9052c55068110,5f3528d30d301447d9448383,6,,,,,,hanger,,,,,,0,8,8,7,1,1,1,,,,,,,,,,,,,,,,,,,,,,,,,,,,,,,,,,,,,,,,,,,,,,,,,,,,,,,,,,,,,,,,,,,,,,,,,,,,,,,,,,,,,,,,,,,,,,,,,,,
,,,,,,,,,,stimuli/images/PICTURE_285.png,LIFE,5e8b5bd1ac48b2027b9f76e8,11/04/1999,2020-08-13_12h52.50.810,proactive2,2020.1.2,MacIntel,60,5f341be081b9052c55068110,5f3528d30d301447d9448383,6,,,,,,carrot,,,,,,0,9,9,33,1,4,1,,,,,,,,,,,,,,,,,,,,,,,,,,,,,,,,,,,,,,,,,,,,,,,,,,,,,,,,,,,,,,,,,,,,,,,,,,,,,,,,,,,,,,,,,,,,,,,,,,,
,,,,,,,,,,stimuli/images/PICTURE_469.png,AGENT,5e8b5bd1ac48b2027b9f76e8,11/04/1999,2020-08-13_12h52.50.810,proactive2,2020.1.2,MacIntel,60,5f341be081b9052c55068110,5f3528d30d301447d9448383,6,,,,,,stool,,,,,,0,10,10,16,1,2,1,,,,,,,,,,,,,,,,,,,,,,,,,,,,,,,,,,,,,,,,,,,,,,,,,,,,,,,,,,,,,,,,,,,,,,,,,,,,,,,,,,,,,,,,,,,,,,,,,,,
,,,,,,,,,,stimuli/images/PICTURE_327.png,CASINO,5e8b5bd1ac48b2027b9f76e8,11/04/1999,2020-08-13_12h52.50.810,proactive2,2020.1.2,MacIntel,60,5f341be081b9052c55068110,5f3528d30d301447d9448383,6,,,,,,helmet,,,,,,0,11,11,20,1,3,1,,,,,,,,,,,,,,,,,,,,,,,,,,,,,,,,,,,,,,,,,,,,,,,,,,,,,,,,,,,,,,,,,,,,,,,,,,,,,,,,,,,,,,,,,,,,,,,,,,,
,,,,,,,,,,stimuli/images/PICTURE_108.png,FLIGHT,5e8b5bd1ac48b2027b9f76e8,11/04/1999,2020-08-13_12h52.50.810,proactive2,2020.1.2,MacIntel,60,5f341be081b9052c55068110,5f3528d30d301447d9448383,6,,,,,,calendar,,,,,,0,12,12,59,1,6,1,,,,,,,,,,,,,,,,,,,,,,,,,,,,,,,,,,,,,,,,,,,,,,,,,,,,,,,,,,,,,,,,,,,,,,,,,,,,,,,,,,,,,,,,,,,,,,,,,,,
,,,,,,,,,,stimuli/images/PICTURE_675.png,SALE,5e8b5bd1ac48b2027b9f76e8,11/04/1999,2020-08-13_12h52.50.810,proactive2,2020.1.2,MacIntel,60,5f341be081b9052c55068110,5f3528d30d301447d9448383,6,,,,,,windmill,,,,,,0,13,13,47,1,5,1,,,,,,,,,,,,,,,,,,,,,,,,,,,,,,,,,,,,,,,,,,,,,,,,,,,,,,,,,,,,,,,,,,,,,,,,,,,,,,,,,,,,,,,,,,,,,,,,,,,
,,,,,,,,,,stimuli/images/PICTURE_380.png,HONEY,5e8b5bd1ac48b2027b9f76e8,11/04/1999,2020-08-13_12h52.50.810,proactive2,2020.1.2,MacIntel,60,5f341be081b9052c55068110,5f3528d30d301447d9448383,6,,,,,,gorilla,,,,,,0,14,14,19,1,2,1,,,,,,,,,,,,,,,,,,,,,,,,,,,,,,,,,,,,,,,,,,,,,,,,,,,,,,,,,,,,,,,,,,,,,,,,,,,,,,,,,,,,,,,,,,,,,,,,,,,
,,,,,,,,,,stimuli/images/PICTURE_403.png,WRITER,5e8b5bd1ac48b2027b9f76e8,11/04/1999,2020-08-13_12h52.50.810,proactive2,2020.1.2,MacIntel,60,5f341be081b9052c55068110,5f3528d30d301447d9448383,6,,,,,,cathedral,,,,,,0,15,15,31,1,4,1,,,,,,,,,,,,,,,,,,,,,,,,,,,,,,,,,,,,,,,,,,,,,,,,,,,,,,,,,,,,,,,,,,,,,,,,,,,,,,,,,,,,,,,,,,,,,,,,,,,
,,,,,,,,,,stimuli/images/PICTURE_380.png,CANDY,5e8b5bd1ac48b2027b9f76e8,11/04/1999,2020-08-13_12h52.50.810,proactive2,2020.1.2,MacIntel,60,5f341be081b9052c55068110,5f3528d30d301447d9448383,6,,,,,,gorilla,,,,,,0,16,16,0,1,1,1,,,,,,,,,,,,,,,,,,,,,,,,,,,,,,,,,,,,,,,,,,,,,,,,,,,,,,,,,,,,,,,,,,,,,,,,,,,,,,,,,,,,,,,,,,,,,,,,,,,
,,,,,,,,,,stimuli/images/PICTURE_667.png,RIVER,5e8b5bd1ac48b2027b9f76e8,11/04/1999,2020-08-13_12h52.50.810,proactive2,2020.1.2,MacIntel,60,5f341be081b9052c55068110,5f3528d30d301447d9448383,6,,,,,,daisy,,,,,,0,17,17,10,1,2,1,,,,,,,,,,,,,,,,,,,,,,,,,,,,,,,,,,,,,,,,,,,,,,,,,,,,,,,,,,,,,,,,,,,,,,,,,,,,,,,,,,,,,,,,,,,,,,,,,,,
,,,,,,,,,,stimuli/images/PICTURE_233.png,LOTS,5e8b5bd1ac48b2027b9f76e8,11/04/1999,2020-08-13_12h52.50.810,proactive2,2020.1.2,MacIntel,60,5f341be081b9052c55068110,5f3528d30d301447d9448383,6,,,,,,salt,,,,,,0,18,18,42,1,5,1,,,,,,,,,,,,,,,,,,,,,,,,,,,,,,,,,,,,,,,,,,,,,,,,,,,,,,,,,,,,,,,,,,,,,,,,,,,,,,,,,,,,,,,,,,,,,,,,,,,
,,,,,,,,,,stimuli/images/PICTURE_340.png,VALLEY,5e8b5bd1ac48b2027b9f76e8,11/04/1999,2020-08-13_12h52.50.810,proactive2,2020.1.2,MacIntel,60,5f341be081b9052c55068110,5f3528d30d301447d9448383,6,,,,,,mirror,,,,,,0,19,19,54,1,6,1,,,,,,,,,,,,,,,,,,,,,,,,,,,,,,,,,,,,,,,,,,,,,,,,,,,,,,,,,,,,,,,,,,,,,,,,,,,,,,,,,,,,,,,,,,,,,,,,,,,
,,,,,,,,,,stimuli/images/PICTURE_95.png,HONEY,5e8b5bd1ac48b2027b9f76e8,11/04/1999,2020-08-13_12h52.50.810,proactive2,2020.1.2,MacIntel,60,5f341be081b9052c55068110,5f3528d30d301447d9448383,6,,,,,,suitcase,,,,,,0,20,20,44,1,5,1,,,,,,,,,,,,,,,,,,,,,,,,,,,,,,,,,,,,,,,,,,,,,,,,,,,,,,,,,,,,,,,,,,,,,,,,,,,,,,,,,,,,,,,,,,,,,,,,,,,
,,,,,,,,,,stimuli/images/PICTURE_68.png,MILE,5e8b5bd1ac48b2027b9f76e8,11/04/1999,2020-08-13_12h52.50.810,proactive2,2020.1.2,MacIntel,60,5f341be081b9052c55068110,5f3528d30d301447d9448383,6,,,,,,candle,,,,,,0,21,21,51,1,6,1,,,,,,,,,,,,,,,,,,,,,,,,,,,,,,,,,,,,,,,,,,,,,,,,,,,,,,,,,,,,,,,,,,,,,,,,,,,,,,,,,,,,,,,,,,,,,,,,,,,
,,,,,,,,,,stimuli/images/PICTURE_504.png,YEAR,5e8b5bd1ac48b2027b9f76e8,11/04/1999,2020-08-13_12h52.50.810,proactive2,2020.1.2,MacIntel,60,5f341be081b9052c55068110,5f3528d30d301447d9448383,6,,,,,,wheel,,,,,,0,22,22,13,1,2,1,,,,,,,,,,,,,,,,,,,,,,,,,,,,,,,,,,,,,,,,,,,,,,,,,,,,,,,,,,,,,,,,,,,,,,,,,,,,,,,,,,,,,,,,,,,,,,,,,,,
,,,,,,,,,,stimuli/images/PICTURE_296.png,LIFE,5e8b5bd1ac48b2027b9f76e8,11/04/1999,2020-08-13_12h52.50.810,proactive2,2020.1.2,MacIntel,60,5f341be081b9052c55068110,5f3528d30d301447d9448383,6,,,,,,bolt,,,,,,0,23,23,57,1,6,1,,,,,,,,,,,,,,,,,,,,,,,,,,,,,,,,,,,,,,,,,,,,,,,,,,,,,,,,,,,,,,,,,,,,,,,,,,,,,,,,,,,,,,,,,,,,,,,,,,,
,,,,,,,,,,stimuli/images/PICTURE_85.png,NATION,5e8b5bd1ac48b2027b9f76e8,11/04/1999,2020-08-13_12h52.50.810,proactive2,2020.1.2,MacIntel,60,5f341be081b9052c55068110,5f3528d30d301447d9448383,6,,,,,,diamond,,,,,,0,24,24,5,1,1,1,,,,,,,,,,,,,,,,,,,,,,,,,,,,,,,,,,,,,,,,,,,,,,,,,,,,,,,,,,,,,,,,,,,,,,,,,,,,,,,,,,,,,,,,,,,,,,,,,,,
,,,,,,,,,,stimuli/images/PICTURE_33.png,FRIEND,5e8b5bd1ac48b2027b9f76e8,11/04/1999,2020-08-13_12h52.50.810,proactive2,2020.1.2,MacIntel,60,5f341be081b9052c55068110,5f3528d30d301447d9448383,6,,,,,,frame,,,,,,0,25,25,8,1,1,1,,,,,,,,,,,,,,,,,,,,,,,,,,,,,,,,,,,,,,,,,,,,,,,,,,,,,,,,,,,,,,,,,,,,,,,,,,,,,,,,,,,,,,,,,,,,,,,,,,,
,,,,,,,,,,stimuli/images/PICTURE_491.png,RIVER,5e8b5bd1ac48b2027b9f76e8,11/04/1999,2020-08-13_12h52.50.810,proactive2,2020.1.2,MacIntel,60,5f341be081b9052c55068110,5f3528d30d301447d9448383,6,,,,,,rug,,,,,,0,26,26,6,1,1,1,,,,,,,,,,,,,,,,,,,,,,,,,,,,,,,,,,,,,,,,,,,,,,,,,,,,,,,,,,,,,,,,,,,,,,,,,,,,,,,,,,,,,,,,,,,,,,,,,,,
,,,,,,,,,,stimuli/images/PICTURE_708.png,RECORD,5e8b5bd1ac48b2027b9f76e8,11/04/1999,2020-08-13_12h52.50.810,proactive2,2020.1.2,MacIntel,60,5f341be081b9052c55068110,5f3528d30d301447d9448383,6,,,,,,monkey,,,,,,0,27,27,58,1,6,1,,,,,,,,,,,,,,,,,,,,,,,,,,,,,,,,,,,,,,,,,,,,,,,,,,,,,,,,,,,,,,,,,,,,,,,,,,,,,,,,,,,,,,,,,,,,,,,,,,,
,,,,,,,,,,stimuli/images/PICTURE_32.png,PILLS,5e8b5bd1ac48b2027b9f76e8,11/04/1999,2020-08-13_12h52.50.810,proactive2,2020.1.2,MacIntel,60,5f341be081b9052c55068110,5f3528d30d301447d9448383,6,,,,,,crown,,,,,,0,28,28,18,1,2,1,,,,,,,,,,,,,,,,,,,,,,,,,,,,,,,,,,,,,,,,,,,,,,,,,,,,,,,,,,,,,,,,,,,,,,,,,,,,,,,,,,,,,,,,,,,,,,,,,,,
,,,,,,,,,,stimuli/images/PICTURE_405.png,YEAR,5e8b5bd1ac48b2027b9f76e8,11/04/1999,2020-08-13_12h52.50.810,proactive2,2020.1.2,MacIntel,60,5f341be081b9052c55068110,5f3528d30d301447d9448383,6,,,,,,anchor,,,,,,0,29,29,34,1,4,1,,,,,,,,,,,,,,,,,,,,,,,,,,,,,,,,,,,,,,,,,,,,,,,,,,,,,,,,,,,,,,,,,,,,,,,,,,,,,,,,,,,,,,,,,,,,,,,,,,,
,,,,,,,,,,stimuli/images/PICTURE_504.png,COPS,5e8b5bd1ac48b2027b9f76e8,11/04/1999,2020-08-13_12h52.50.810,proactive2,2020.1.2,MacIntel,60,5f341be081b9052c55068110,5f3528d30d301447d9448383,6,,,,,,wheel,,,,,,0,30,30,52,1,6,1,,,,,,,,,,,,,,,,,,,,,,,,,,,,,,,,,,,,,,,,,,,,,,,,,,,,,,,,,,,,,,,,,,,,,,,,,,,,,,,,,,,,,,,,,,,,,,,,,,,
,,,,,,,,,,stimuli/images/PICTURE_339.png,CLIENT,5e8b5bd1ac48b2027b9f76e8,11/04/1999,2020-08-13_12h52.50.810,proactive2,2020.1.2,MacIntel,60,5f341be081b9052c55068110,5f3528d30d301447d9448383,6,,,,,,backpack,,,,,,0,31,31,11,1,2,1,,,,,,,,,,,,,,,,,,,,,,,,,,,,,,,,,,,,,,,,,,,,,,,,,,,,,,,,,,,,,,,,,,,,,,,,,,,,,,,,,,,,,,,,,,,,,,,,,,,
,,,,,,,,,,stimuli/images/PICTURE_449.png,DUDE,5e8b5bd1ac48b2027b9f76e8,11/04/1999,2020-08-13_12h52.50.810,proactive2,2020.1.2,MacIntel,60,5f341be081b9052c55068110,5f3528d30d301447d9448383,6,,,,,,bench,,,,,,0,32,32,17,1,2,1,,,,,,,,,,,,,,,,,,,,,,,,,,,,,,,,,,,,,,,,,,,,,,,,,,,,,,,,,,,,,,,,,,,,,,,,,,,,,,,,,,,,,,,,,,,,,,,,,,,
,,,,,,,,,,stimuli/images/PICTURE_42.png,BOYS,5e8b5bd1ac48b2027b9f76e8,11/04/1999,2020-08-13_12h52.50.810,proactive2,2020.1.2,MacIntel,60,5f341be081b9052c55068110,5f3528d30d301447d9448383,6,,,,,,pear,,,,,,0,33,33,55,1,6,1,,,,,,,,,,,,,,,,,,,,,,,,,,,,,,,,,,,,,,,,,,,,,,,,,,,,,,,,,,,,,,,,,,,,,,,,,,,,,,,,,,,,,,,,,,,,,,,,,,,
,,,,,,,,,,stimuli/images/PICTURE_296.png,LOTS,5e8b5bd1ac48b2027b9f76e8,11/04/1999,2020-08-13_12h52.50.810,proactive2,2020.1.2,MacIntel,60,5f341be081b9052c55068110,5f3528d30d301447d9448383,6,,,,,,bolt,,,,,,0,34,34,9,1,1,1,,,,,,,,,,,,,,,,,,,,,,,,,,,,,,,,,,,,,,,,,,,,,,,,,,,,,,,,,,,,,,,,,,,,,,,,,,,,,,,,,,,,,,,,,,,,,,,,,,,
,,,,,,,,,,stimuli/images/PICTURE_491.png,GLASS,5e8b5bd1ac48b2027b9f76e8,11/04/1999,2020-08-13_12h52.50.810,proactive2,2020.1.2,MacIntel,60,5f341be081b9052c55068110,5f3528d30d301447d9448383,6,,,,,,rug,,,,,,0,35,35,14,1,2,1,,,,,,,,,,,,,,,,,,,,,,,,,,,,,,,,,,,,,,,,,,,,,,,,,,,,,,,,,,,,,,,,,,,,,,,,,,,,,,,,,,,,,,,,,,,,,,,,,,,
,,,,,,,,,,stimuli/images/PICTURE_750.png,HOTEL,5e8b5bd1ac48b2027b9f76e8,11/04/1999,2020-08-13_12h52.50.810,proactive2,2020.1.2,MacIntel,60,5f341be081b9052c55068110,5f3528d30d301447d9448383,6,,,,,,kettle,,,,,,0,36,36,27,1,3,1,,,,,,,,,,,,,,,,,,,,,,,,,,,,,,,,,,,,,,,,,,,,,,,,,,,,,,,,,,,,,,,,,,,,,,,,,,,,,,,,,,,,,,,,,,,,,,,,,,,
,,,,,,,,,,stimuli/images/PICTURE_383.png,WRITER,5e8b5bd1ac48b2027b9f76e8,11/04/1999,2020-08-13_12h52.50.810,proactive2,2020.1.2,MacIntel,60,5f341be081b9052c55068110,5f3528d30d301447d9448383,6,,,,,,coin,,,,,,0,37,37,28,1,3,1,,,,,,,,,,,,,,,,,,,,,,,,,,,,,,,,,,,,,,,,,,,,,,,,,,,,,,,,,,,,,,,,,,,,,,,,,,,,,,,,,,,,,,,,,,,,,,,,,,,
,,,,,,,,,,stimuli/images/PICTURE_57.png,MOMENT,5e8b5bd1ac48b2027b9f76e8,11/04/1999,2020-08-13_12h52.50.810,proactive2,2020.1.2,MacIntel,60,5f341be081b9052c55068110,5f3528d30d301447d9448383,6,,,,,,stamp,,,,,,0,38,38,37,1,4,1,,,,,,,,,,,,,,,,,,,,,,,,,,,,,,,,,,,,,,,,,,,,,,,,,,,,,,,,,,,,,,,,,,,,,,,,,,,,,,,,,,,,,,,,,,,,,,,,,,,
,,,,,,,,,,stimuli/images/PICTURE_68.png,ROOF,5e8b5bd1ac48b2027b9f76e8,11/04/1999,2020-08-13_12h52.50.810,proactive2,2020.1.2,MacIntel,60,5f341be081b9052c55068110,5f3528d30d301447d9448383,6,,,,,,candle,,,,,,0,39,39,38,1,4,1,,,,,,,,,,,,,,,,,,,,,,,,,,,,,,,,,,,,,,,,,,,,,,,,,,,,,,,,,,,,,,,,,,,,,,,,,,,,,,,,,,,,,,,,,,,,,,,,,,,
,,,,,,,,,,stimuli/images/PICTURE_108.png,POLICY,5e8b5bd1ac48b2027b9f76e8,11/04/1999,2020-08-13_12h52.50.810,proactive2,2020.1.2,MacIntel,60,5f341be081b9052c55068110,5f3528d30d301447d9448383,6,,,,,,calendar,,,,,,0,40,40,22,1,3,1,,,,,,,,,,,,,,,,,,,,,,,,,,,,,,,,,,,,,,,,,,,,,,,,,,,,,,,,,,,,,,,,,,,,,,,,,,,,,,,,,,,,,,,,,,,,,,,,,,,
,,,,,,,,,,stimuli/images/PICTURE_95.png,MILLER,5e8b5bd1ac48b2027b9f76e8,11/04/1999,2020-08-13_12h52.50.810,proactive2,2020.1.2,MacIntel,60,5f341be081b9052c55068110,5f3528d30d301447d9448383,6,,,,,,suitcase,,,,,,0,41,41,56,1,6,1,,,,,,,,,,,,,,,,,,,,,,,,,,,,,,,,,,,,,,,,,,,,,,,,,,,,,,,,,,,,,,,,,,,,,,,,,,,,,,,,,,,,,,,,,,,,,,,,,,,
,,,,,,,,,,stimuli/images/PICTURE_208.png,SYSTEM,5e8b5bd1ac48b2027b9f76e8,11/04/1999,2020-08-13_12h52.50.810,proactive2,2020.1.2,MacIntel,60,5f341be081b9052c55068110,5f3528d30d301447d9448383,6,,,,,,microphone,,,,,,0,42,42,32,1,4,1,,,,,,,,,,,,,,,,,,,,,,,,,,,,,,,,,,,,,,,,,,,,,,,,,,,,,,,,,,,,,,,,,,,,,,,,,,,,,,,,,,,,,,,,,,,,,,,,,,,
,,,,,,,,,,stimuli/images/PICTURE_32.png,KIND,5e8b5bd1ac48b2027b9f76e8,11/04/1999,2020-08-13_12h52.50.810,proactive2,2020.1.2,MacIntel,60,5f341be081b9052c55068110,5f3528d30d301447d9448383,6,,,,,,crown,,,,,,0,43,43,35,1,4,1,,,,,,,,,,,,,,,,,,,,,,,,,,,,,,,,,,,,,,,,,,,,,,,,,,,,,,,,,,,,,,,,,,,,,,,,,,,,,,,,,,,,,,,,,,,,,,,,,,,
,,,,,,,,,,stimuli/images/PICTURE_95.png,BOYS,5e8b5bd1ac48b2027b9f76e8,11/04/1999,2020-08-13_12h52.50.810,proactive2,2020.1.2,MacIntel,60,5f341be081b9052c55068110,5f3528d30d301447d9448383,6,,,,,,suitcase,,,,,,0,44,44,1,1,1,1,,,,,,,,,,,,,,,,,,,,,,,,,,,,,,,,,,,,,,,,,,,,,,,,,,,,,,,,,,,,,,,,,,,,,,,,,,,,,,,,,,,,,,,,,,,,,,,,,,,
,,,,,,,,,,stimuli/images/PICTURE_403.png,RIVER,5e8b5bd1ac48b2027b9f76e8,11/04/1999,2020-08-13_12h52.50.810,proactive2,2020.1.2,MacIntel,60,5f341be081b9052c55068110,5f3528d30d301447d9448383,6,,,,,,cathedral,,,,,,0,45,45,40,1,5,1,,,,,,,,,,,,,,,,,,,,,,,,,,,,,,,,,,,,,,,,,,,,,,,,,,,,,,,,,,,,,,,,,,,,,,,,,,,,,,,,,,,,,,,,,,,,,,,,,,,
,,,,,,,,,,stimuli/images/PICTURE_467.png,POLICY,5e8b5bd1ac48b2027b9f76e8,11/04/1999,2020-08-13_12h52.50.810,proactive2,2020.1.2,MacIntel,60,5f341be081b9052c55068110,5f3528d30d301447d9448383,6,,,,,,peg,,,,,,0,46,46,53,1,6,1,,,,,,,,,,,,,,,,,,,,,,,,,,,,,,,,,,,,,,,,,,,,,,,,,,,,,,,,,,,,,,,,,,,,,,,,,,,,,,,,,,,,,,,,,,,,,,,,,,,
,,,,,,,,,,stimuli/images/PICTURE_383.png,SERIES,5e8b5bd1ac48b2027b9f76e8,11/04/1999,2020-08-13_12h52.50.810,proactive2,2020.1.2,MacIntel,60,5f341be081b9052c55068110,5f3528d30d301447d9448383,6,,,,,,coin,,,,,,0,47,47,46,1,5,1,,,,,,,,,,,,,,,,,,,,,,,,,,,,,,,,,,,,,,,,,,,,,,,,,,,,,,,,,,,,,,,,,,,,,,,,,,,,,,,,,,,,,,,,,,,,,,,,,,,
,,,,,,,,,,stimuli/images/PICTURE_744.png,WEAPON,5e8b5bd1ac48b2027b9f76e8,11/04/1999,2020-08-13_12h52.50.810,proactive2,2020.1.2,MacIntel,60,5f341be081b9052c55068110,5f3528d30d301447d9448383,6,,,,,,ring,,,,,,0,48,48,50,1,6,1,,,,,,,,,,,,,,,,,,,,,,,,,,,,,,,,,,,,,,,,,,,,,,,,,,,,,,,,,,,,,,,,,,,,,,,,,,,,,,,,,,,,,,,,,,,,,,,,,,,
,,,,,,,,,,stimuli/images/PICTURE_504.png,ARTIST,5e8b5bd1ac48b2027b9f76e8,11/04/1999,2020-08-13_12h52.50.810,proactive2,2020.1.2,MacIntel,60,5f341be081b9052c55068110,5f3528d30d301447d9448383,6,,,,,,wheel,,,,,,0,49,49,49,1,5,1,,,,,,,,,,,,,,,,,,,,,,,,,,,,,,,,,,,,,,,,,,,,,,,,,,,,,,,,,,,,,,,,,,,,,,,,,,,,,,,,,,,,,,,,,,,,,,,,,,,
,,,,,,,,,,stimuli/images/PICTURE_564.png,BATH,5e8b5bd1ac48b2027b9f76e8,11/04/1999,2020-08-13_12h52.50.810,proactive2,2020.1.2,MacIntel,60,5f341be081b9052c55068110,5f3528d30d301447d9448383,6,,,,,,spoon,,,,,,0,50,50,26,1,3,1,,,,,,,,,,,,,,,,,,,,,,,,,,,,,,,,,,,,,,,,,,,,,,,,,,,,,,,,,,,,,,,,,,,,,,,,,,,,,,,,,,,,,,,,,,,,,,,,,,,
,,,,,,,,,,stimuli/images/PICTURE_147.png,YEAR,5e8b5bd1ac48b2027b9f76e8,11/04/1999,2020-08-13_12h52.50.810,proactive2,2020.1.2,MacIntel,60,5f341be081b9052c55068110,5f3528d30d301447d9448383,6,,,,,,hanger,,,,,,0,51,51,21,1,3,1,,,,,,,,,,,,,,,,,,,,,,,,,,,,,,,,,,,,,,,,,,,,,,,,,,,,,,,,,,,,,,,,,,,,,,,,,,,,,,,,,,,,,,,,,,,,,,,,,,,
,,,,,,,,,,stimuli/images/PICTURE_340.png,LETTER,5e8b5bd1ac48b2027b9f76e8,11/04/1999,2020-08-13_12h52.50.810,proactive2,2020.1.2,MacIntel,60,5f341be081b9052c55068110,5f3528d30d301447d9448383,6,,,,,,mirror,,,,,,0,52,52,24,1,3,1,,,,,,,,,,,,,,,,,,,,,,,,,,,,,,,,,,,,,,,,,,,,,,,,,,,,,,,,,,,,,,,,,,,,,,,,,,,,,,,,,,,,,,,,,,,,,,,,,,,
,,,,,,,,,,stimuli/images/PICTURE_403.png,TOILET,5e8b5bd1ac48b2027b9f76e8,11/04/1999,2020-08-13_12h52.50.810,proactive2,2020.1.2,MacIntel,60,5f341be081b9052c55068110,5f3528d30d301447d9448383,6,,,,,,cathedral,,,,,,0,53,53,25,1,3,1,,,,,,,,,,,,,,,,,,,,,,,,,,,,,,,,,,,,,,,,,,,,,,,,,,,,,,,,,,,,,,,,,,,,,,,,,,,,,,,,,,,,,,,,,,,,,,,,,,,
,,,,,,,,,,stimuli/images/PICTURE_654.png,MONTH,5e8b5bd1ac48b2027b9f76e8,11/04/1999,2020-08-13_12h52.50.810,proactive2,2020.1.2,MacIntel,60,5f341be081b9052c55068110,5f3528d30d301447d9448383,6,,,,,,pencil,,,,,,0,54,54,29,1,3,1,,,,,,,,,,,,,,,,,,,,,,,,,,,,,,,,,,,,,,,,,,,,,,,,,,,,,,,,,,,,,,,,,,,,,,,,,,,,,,,,,,,,,,,,,,,,,,,,,,,
,,,,,,,,,,stimuli/images/PICTURE_308.png,FAMILY,5e8b5bd1ac48b2027b9f76e8,11/04/1999,2020-08-13_12h52.50.810,proactive2,2020.1.2,MacIntel,60,5f341be081b9052c55068110,5f3528d30d301447d9448383,6,,,,,,dice,,,,,,0,55,55,36,1,4,1,,,,,,,,,,,,,,,,,,,,,,,,,,,,,,,,,,,,,,,,,,,,,,,,,,,,,,,,,,,,,,,,,,,,,,,,,,,,,,,,,,,,,,,,,,,,,,,,,,,
,,,,,,,,,,stimuli/images/PICTURE_685.png,PENNY,5e8b5bd1ac48b2027b9f76e8,11/04/1999,2020-08-13_12h52.50.810,proactive2,2020.1.2,MacIntel,60,5f341be081b9052c55068110,5f3528d30d301447d9448383,6,,,,,,goose,,,,,,0,56,56,4,1,1,1,,,,,,,,,,,,,,,,,,,,,,,,,,,,,,,,,,,,,,,,,,,,,,,,,,,,,,,,,,,,,,,,,,,,,,,,,,,,,,,,,,,,,,,,,,,,,,,,,,,
,,,,,,,,,,stimuli/images/PICTURE_203.png,GODS,5e8b5bd1ac48b2027b9f76e8,11/04/1999,2020-08-13_12h52.50.810,proactive2,2020.1.2,MacIntel,60,5f341be081b9052c55068110,5f3528d30d301447d9448383,6,,,,,,cap,,,,,,0,57,57,30,1,4,1,,,,,,,,,,,,,,,,,,,,,,,,,,,,,,,,,,,,,,,,,,,,,,,,,,,,,,,,,,,,,,,,,,,,,,,,,,,,,,,,,,,,,,,,,,,,,,,,,,,
,,,,,,,,,,stimuli/images/PICTURE_327.png,SERIES,5e8b5bd1ac48b2027b9f76e8,11/04/1999,2020-08-13_12h52.50.810,proactive2,2020.1.2,MacIntel,60,5f341be081b9052c55068110,5f3528d30d301447d9448383,6,,,,,,helmet,,,,,,0,58,58,3,1,1,1,,,,,,,,,,,,,,,,,,,,,,,,,,,,,,,,,,,,,,,,,,,,,,,,,,,,,,,,,,,,,,,,,,,,,,,,,,,,,,,,,,,,,,,,,,,,,,,,,,,
,,?,0.001,0,,,,,,stimuli/images/PICTURE_383.png,WRITER,5e8b5bd1ac48b2027b9f76e8,11/04/1999,2020-08-13_12h52.50.810,proactive2,2020.1.2,MacIntel,60,5f341be081b9052c55068110,5f3528d30d301447d9448383,6,,,,,,coin,,,,,,,,,,,3,1,0,0,0,28,1,,,,,,,,,,,,,,,,,,,,,,,,,,,,,,,,,,,,,,,,,,,,,,,,,,,,,,,,,,,,,,,,,,,,,,,,,,,,,,,,,,,,,,,,,,,,,,
,,?,0.002,0,,,,,,stimuli/images/PICTURE_203.png,GODS,5e8b5bd1ac48b2027b9f76e8,11/04/1999,2020-08-13_12h52.50.810,proactive2,2020.1.2,MacIntel,60,5f341be081b9052c55068110,5f3528d30d301447d9448383,6,,,,,,cap,,,,,,,,,,,4,1,0,1,1,30,1,,,,,,,,,,,,,,,,,,,,,,,,,,,,,,,,,,,,,,,,,,,,,,,,,,,,,,,,,,,,,,,,,,,,,,,,,,,,,,,,,,,,,,,,,,,,,,
,,?,0,0,,,,,,stimuli/images/PICTURE_32.png,KIND,5e8b5bd1ac48b2027b9f76e8,11/04/1999,2020-08-13_12h52.50.810,proactive2,2020.1.2,MacIntel,60,5f341be081b9052c55068110,5f3528d30d301447d9448383,6,,,,,,crown,,,,,,,,,,,4,1,0,2,2,35,1,,,,,,,,,,,,,,,,,,,,,,,,,,,,,,,,,,,,,,,,,,,,,,,,,,,,,,,,,,,,,,,,,,,,,,,,,,,,,,,,,,,,,,,,,,,,,,
,,?,0.001,0,,,,,,stimuli/images/PICTURE_403.png,WRITER,5e8b5bd1ac48b2027b9f76e8,11/04/1999,2020-08-13_12h52.50.810,proactive2,2020.1.2,MacIntel,60,5f341be081b9052c55068110,5f3528d30d301447d9448383,6,,,,,,cathedral,,,,,,,,,,,4,1,0,3,3,31,1,,,,,,,,,,,,,,,,,,,,,,,,,,,,,,,,,,,,,,,,,,,,,,,,,,,,,,,,,,,,,,,,,,,,,,,,,,,,,,,,,,,,,,,,,,,,,,
,,?,0.001,0,,,,,,stimuli/images/PICTURE_487.png,GIRL,5e8b5bd1ac48b2027b9f76e8,11/04/1999,2020-08-13_12h52.50.810,proactive2,2020.1.2,MacIntel,60,5f341be081b9052c55068110,5f3528d30d301447d9448383,6,,,,,,basket,,,,,,,,,,,5,1,0,4,4,45,1,,,,,,,,,,,,,,,,,,,,,,,,,,,,,,,,,,,,,,,,,,,,,,,,,,,,,,,,,,,,,,,,,,,,,,,,,,,,,,,,,,,,,,,,,,,,,,
,,WEAPON,7.25,1,,,,,,stimuli/images/PICTURE_744.png,WEAPON,5e8b5bd1ac48b2027b9f76e8,11/04/1999,2020-08-13_12h52.50.810,proactive2,2020.1.2,MacIntel,60,5f341be081b9052c55068110,5f3528d30d301447d9448383,6,,,,,,ring,,,,,,,,,,,6,1,0,5,5,50,1,,,,,,,,,,,,,,,,,,,,,,,,,,,,,,,,,,,,,,,,,,,,,,,,,,,,,,,,,,,,,,,,,,,,,,,,,,,,,,,,,,,,,,,,,,,,,,
,,?,0.002,0,,,,,,stimuli/images/PICTURE_95.png,BOYS,5e8b5bd1ac48b2027b9f76e8,11/04/1999,2020-08-13_12h52.50.810,proactive2,2020.1.2,MacIntel,60,5f341be081b9052c55068110,5f3528d30d301447d9448383,6,,,,,,suitcase,,,,,,,,,,,1,1,0,6,6,1,1,,,,,,,,,,,,,,,,,,,,,,,,,,,,,,,,,,,,,,,,,,,,,,,,,,,,,,,,,,,,,,,,,,,,,,,,,,,,,,,,,,,,,,,,,,,,,,
,,?,0.001,0,,,,,,stimuli/images/PICTURE_203.png,NIGHT,5e8b5bd1ac48b2027b9f76e8,11/04/1999,2020-08-13_12h52.50.810,proactive2,2020.1.2,MacIntel,60,5f341be081b9052c55068110,5f3528d30d301447d9448383,6,,,,,,cap,,,,,,,,,,,1,1,0,7,7,2,1,,,,,,,,,,,,,,,,,,,,,,,,,,,,,,,,,,,,,,,,,,,,,,,,,,,,,,,,,,,,,,,,,,,,,,,,,,,,,,,,,,,,,,,,,,,,,,
,,MILE,3.128,1,,,,,,stimuli/images/PICTURE_68.png,MILE,5e8b5bd1ac48b2027b9f76e8,11/04/1999,2020-08-13_12h52.50.810,proactive2,2020.1.2,MacIntel,60,5f341be081b9052c55068110,5f3528d30d301447d9448383,6,,,,,,candle,,,,,,,,,,,6,1,0,8,8,51,1,,,,,,,,,,,,,,,,,,,,,,,,,,,,,,,,,,,,,,,,,,,,,,,,,,,,,,,,,,,,,,,,,,,,,,,,,,,,,,,,,,,,,,,,,,,,,,
,,?,0.001,0,,,,,,stimuli/images/PICTURE_469.png,AGENT,5e8b5bd1ac48b2027b9f76e8,11/04/1999,2020-08-13_12h52.50.810,proactive2,2020.1.2,MacIntel,60,5f341be081b9052c55068110,5f3528d30d301447d9448383,6,,,,,,stool,,,,,,,,,,,2,1,0,9,9,16,1,,,,,,,,,,,,,,,,,,,,,,,,,,,,,,,,,,,,,,,,,,,,,,,,,,,,,,,,,,,,,,,,,,,,,,,,,,,,,,,,,,,,,,,,,,,,,,
,,?,0.001,0,,,,,,stimuli/images/PICTURE_675.png,SALE,5e8b5bd1ac48b2027b9f76e8,11/04/1999,2020-08-13_12h52.50.810,proactive2,2020.1.2,MacIntel,60,5f341be081b9052c55068110,5f3528d30d301447d9448383,6,,,,,,windmill,,,,,,,,,,,5,1,0,10,10,47,1,,,,,,,,,,,,,,,,,,,,,,,,,,,,,,,,,,,,,,,,,,,,,,,,,,,,,,,,,,,,,,,,,,,,,,,,,,,,,,,,,,,,,,,,,,,,,,
,,?,0.001,0,,,,,,stimuli/images/PICTURE_2.png,FLIGHT,5e8b5bd1ac48b2027b9f76e8,11/04/1999,2020-08-13_12h52.50.810,proactive2,2020.1.2,MacIntel,60,5f341be081b9052c55068110,5f3528d30d301447d9448383,6,,,,,,tyre,,,,,,,,,,,2,1,0,11,11,15,1,,,,,,,,,,,,,,,,,,,,,,,,,,,,,,,,,,,,,,,,,,,,,,,,,,,,,,,,,,,,,,,,,,,,,,,,,,,,,,,,,,,,,,,,,,,,,,
,,?,0.001,0,,,,,,stimuli/images/PICTURE_403.png,TOILET,5e8b5bd1ac48b2027b9f76e8,11/04/1999,2020-08-13_12h52.50.810,proactive2,2020.1.2,MacIntel,60,5f341be081b9052c55068110,5f3528d30d301447d9448383,6,,,,,,cathedral,,,,,,,,,,,3,1,0,12,12,25,1,,,,,,,,,,,,,,,,,,,,,,,,,,,,,,,,,,,,,,,,,,,,,,,,,,,,,,,,,,,,,,,,,,,,,,,,,,,,,,,,,,,,,,,,,,,,,,
,,?,0,0,,,,,,stimuli/images/PICTURE_677.png,APPLE,5e8b5bd1ac48b2027b9f76e8,11/04/1999,2020-08-13_12h52.50.810,proactive2,2020.1.2,MacIntel,60,5f341be081b9052c55068110,5f3528d30d301447d9448383,6,,,,,,map,,,,,,,,,,,5,1,0,13,13,43,1,,,,,,,,,,,,,,,,,,,,,,,,,,,,,,,,,,,,,,,,,,,,,,,,,,,,,,,,,,,,,,,,,,,,,,,,,,,,,,,,,,,,,,,,,,,,,,
,,COPS,3.24,1,,,,,,stimuli/images/PICTURE_504.png,COPS,5e8b5bd1ac48b2027b9f76e8,11/04/1999,2020-08-13_12h52.50.810,proactive2,2020.1.2,MacIntel,60,5f341be081b9052c55068110,5f3528d30d301447d9448383,6,,,,,,wheel,,,,,,,,,,,6,1,0,14,14,52,1,,,,,,,,,,,,,,,,,,,,,,,,,,,,,,,,,,,,,,,,,,,,,,,,,,,,,,,,,,,,,,,,,,,,,,,,,,,,,,,,,,,,,,,,,,,,,,
,,?,0.002,0,,,,,,stimuli/images/PICTURE_32.png,PILLS,5e8b5bd1ac48b2027b9f76e8,11/04/1999,2020-08-13_12h52.50.810,proactive2,2020.1.2,MacIntel,60,5f341be081b9052c55068110,5f3528d30d301447d9448383,6,,,,,,crown,,,,,,,,,,,2,1,0,15,15,18,1,,,,,,,,,,,,,,,,,,,,,,,,,,,,,,,,,,,,,,,,,,,,,,,,,,,,,,,,,,,,,,,,,,,,,,,,,,,,,,,,,,,,,,,,,,,,,,
,,?,0.001,0,,,,,,stimuli/images/PICTURE_504.png,YEAR,5e8b5bd1ac48b2027b9f76e8,11/04/1999,2020-08-13_12h52.50.810,proactive2,2020.1.2,MacIntel,60,5f341be081b9052c55068110,5f3528d30d301447d9448383,6,,,,,,wheel,,,,,,,,,,,2,1,0,16,16,13,1,,,,,,,,,,,,,,,,,,,,,,,,,,,,,,,,,,,,,,,,,,,,,,,,,,,,,,,,,,,,,,,,,,,,,,,,,,,,,,,,,,,,,,,,,,,,,,
,,?,0.001,0,,,,,,stimuli/images/PICTURE_285.png,LIFE,5e8b5bd1ac48b2027b9f76e8,11/04/1999,2020-08-13_12h52.50.810,proactive2,2020.1.2,MacIntel,60,5f341be081b9052c55068110,5f3528d30d301447d9448383,6,,,,,,carrot,,,,,,,,,,,4,1,0,17,17,33,1,,,,,,,,,,,,,,,,,,,,,,,,,,,,,,,,,,,,,,,,,,,,,,,,,,,,,,,,,,,,,,,,,,,,,,,,,,,,,,,,,,,,,,,,,,,,,,
,,LIFE,2.843,1,,,,,,stimuli/images/PICTURE_296.png,LIFE,5e8b5bd1ac48b2027b9f76e8,11/04/1999,2020-08-13_12h52.50.810,proactive2,2020.1.2,MacIntel,60,5f341be081b9052c55068110,5f3528d30d301447d9448383,6,,,,,,bolt,,,,,,,,,,,6,1,0,18,18,57,1,,,,,,,,,,,,,,,,,,,,,,,,,,,,,,,,,,,,,,,,,,,,,,,,,,,,,,,,,,,,,,,,,,,,,,,,,,,,,,,,,,,,,,,,,,,,,,
,,?,0.001,0,,,,,,stimuli/images/PICTURE_491.png,GLASS,5e8b5bd1ac48b2027b9f76e8,11/04/1999,2020-08-13_12h52.50.810,proactive2,2020.1.2,MacIntel,60,5f341be081b9052c55068110,5f3528d30d301447d9448383,6,,,,,,rug,,,,,,,,,,,2,1,0,19,19,14,1,,,,,,,,,,,,,,,,,,,,,,,,,,,,,,,,,,,,,,,,,,,,,,,,,,,,,,,,,,,,,,,,,,,,,,,,,,,,,,,,,,,,,,,,,,,,,,
,,?,0.001,0,,,,,,stimuli/images/PICTURE_68.png,ROOF,5e8b5bd1ac48b2027b9f76e8,11/04/1999,2020-08-13_12h52.50.810,proactive2,2020.1.2,MacIntel,60,5f341be081b9052c55068110,5f3528d30d301447d9448383,6,,,,,,candle,,,,,,,,,,,4,1,0,20,20,38,1,,,,,,,,,,,,,,,,,,,,,,,,,,,,,,,,,,,,,,,,,,,,,,,,,,,,,,,,,,,,,,,,,,,,,,,,,,,,,,,,,,,,,,,,,,,,,,
,,?,0.002,0,,,,,,stimuli/images/PICTURE_449.png,DUDE,5e8b5bd1ac48b2027b9f76e8,11/04/1999,2020-08-13_12h52.50.810,proactive2,2020.1.2,MacIntel,60,5f341be081b9052c55068110,5f3528d30d301447d9448383,6,,,,,,bench,,,,,,,,,,,2,1,0,21,21,17,1,,,,,,,,,,,,,,,,,,,,,,,,,,,,,,,,,,,,,,,,,,,,,,,,,,,,,,,,,,,,,,,,,,,,,,,,,,,,,,,,,,,,,,,,,,,,,,
,,RECORD,4.326,1,,,,,,stimuli/images/PICTURE_708.png,RECORD,5e8b5bd1ac48b2027b9f76e8,11/04/1999,2020-08-13_12h52.50.810,proactive2,2020.1.2,MacIntel,60,5f341be081b9052c55068110,5f3528d30d301447d9448383,6,,,,,,monkey,,,,,,,,,,,6,1,0,22,22,58,1,,,,,,,,,,,,,,,,,,,,,,,,,,,,,,,,,,,,,,,,,,,,,,,,,,,,,,,,,,,,,,,,,,,,,,,,,,,,,,,,,,,,,,,,,,,,,,
,,?,0.002,0,,,,,,stimuli/images/PICTURE_108.png,POLICY,5e8b5bd1ac48b2027b9f76e8,11/04/1999,2020-08-13_12h52.50.810,proactive2,2020.1.2,MacIntel,60,5f341be081b9052c55068110,5f3528d30d301447d9448383,6,,,,,,calendar,,,,,,,,,,,3,1,0,23,23,22,1,,,,,,,,,,,,,,,,,,,,,,,,,,,,,,,,,,,,,,,,,,,,,,,,,,,,,,,,,,,,,,,,,,,,,,,,,,,,,,,,,,,,,,,,,,,,,,
,,?,0.001,0,,,,,,stimuli/images/PICTURE_233.png,LOTS,5e8b5bd1ac48b2027b9f76e8,11/04/1999,2020-08-13_12h52.50.810,proactive2,2020.1.2,MacIntel,60,5f341be081b9052c55068110,5f3528d30d301447d9448383,6,,,,,,salt,,,,,,,,,,,5,1,0,24,24,42,1,,,,,,,,,,,,,,,,,,,,,,,,,,,,,,,,,,,,,,,,,,,,,,,,,,,,,,,,,,,,,,,,,,,,,,,,,,,,,,,,,,,,,,,,,,,,,,
,,?,0.001,0,,,,,,stimuli/images/PICTURE_339.png,CLIENT,5e8b5bd1ac48b2027b9f76e8,11/04/1999,2020-08-13_12h52.50.810,proactive2,2020.1.2,MacIntel,60,5f341be081b9052c55068110,5f3528d30d301447d9448383,6,,,,,,backpack,,,,,,,,,,,2,1,0,25,25,11,1,,,,,,,,,,,,,,,,,,,,,,,,,,,,,,,,,,,,,,,,,,,,,,,,,,,,,,,,,,,,,,,,,,,,,,,,,,,,,,,,,,,,,,,,,,,,,,
,,MILLER,3.626,1,,,,,,stimuli/images/PICTURE_95.png,MILLER,5e8b5bd1ac48b2027b9f76e8,11/04/1999,2020-08-13_12h52.50.810,proactive2,2020.1.2,MacIntel,60,5f341be081b9052c55068110,5f3528d30d301447d9448383,6,,,,,,suitcase,,,,,,,,,,,6,1,0,26,26,56,1,,,,,,,,,,,,,,,,,,,,,,,,,,,,,,,,,,,,,,,,,,,,,,,,,,,,,,,,,,,,,,,,,,,,,,,,,,,,,,,,,,,,,,,,,,,,,,
,,?,0.001,0,,,,,,stimuli/images/PICTURE_308.png,FAMILY,5e8b5bd1ac48b2027b9f76e8,11/04/1999,2020-08-13_12h52.50.810,proactive2,2020.1.2,MacIntel,60,5f341be081b9052c55068110,5f3528d30d301447d9448383,6,,,,,,dice,,,,,,,,,,,4,1,0,27,27,36,1,,,,,,,,,,,,,,,,,,,,,,,,,,,,,,,,,,,,,,,,,,,,,,,,,,,,,,,,,,,,,,,,,,,,,,,,,,,,,,,,,,,,,,,,,,,,,,
,,?,0.001,0,,,,,,stimuli/images/PICTURE_297.png,RIVER,5e8b5bd1ac48b2027b9f76e8,11/04/1999,2020-08-13_12h52.50.810,proactive2,2020.1.2,MacIntel,60,5f341be081b9052c55068110,5f3528d30d301447d9448383,6,,,,,,aeroplane,,,,,,,,,,,4,1,0,28,28,39,1,,,,,,,,,,,,,,,,,,,,,,,,,,,,,,,,,,,,,,,,,,,,,,,,,,,,,,,,,,,,,,,,,,,,,,,,,,,,,,,,,,,,,,,,,,,,,,
,,?,0.001,0,,,,,,stimuli/images/PICTURE_57.png,MOMENT,5e8b5bd1ac48b2027b9f76e8,11/04/1999,2020-08-13_12h52.50.810,proactive2,2020.1.2,MacIntel,60,5f341be081b9052c55068110,5f3528d30d301447d9448383,6,,,,,,stamp,,,,,,,,,,,4,1,0,29,29,37,1,,,,,,,,,,,,,,,,,,,,,,,,,,,,,,,,,,,,,,,,,,,,,,,,,,,,,,,,,,,,,,,,,,,,,,,,,,,,,,,,,,,,,,,,,,,,,,
,,POLICY,3.128,1,,,,,,stimuli/images/PICTURE_467.png,POLICY,5e8b5bd1ac48b2027b9f76e8,11/04/1999,2020-08-13_12h52.50.810,proactive2,2020.1.2,MacIntel,60,5f341be081b9052c55068110,5f3528d30d301447d9448383,6,,,,,,peg,,,,,,,,,,,6,1,0,30,30,53,1,,,,,,,,,,,,,,,,,,,,,,,,,,,,,,,,,,,,,,,,,,,,,,,,,,,,,,,,,,,,,,,,,,,,,,,,,,,,,,,,,,,,,,,,,,,,,,
,,?,0.001,0,,,,,,stimuli/images/PICTURE_667.png,RIVER,5e8b5bd1ac48b2027b9f76e8,11/04/1999,2020-08-13_12h52.50.810,proactive2,2020.1.2,MacIntel,60,5f341be081b9052c55068110,5f3528d30d301447d9448383,6,,,,,,daisy,,,,,,,,,,,2,1,0,31,31,10,1,,,,,,,,,,,,,,,,,,,,,,,,,,,,,,,,,,,,,,,,,,,,,,,,,,,,,,,,,,,,,,,,,,,,,,,,,,,,,,,,,,,,,,,,,,,,,,
,,?,0,0,,,,,,stimuli/images/PICTURE_403.png,RIVER,5e8b5bd1ac48b2027b9f76e8,11/04/1999,2020-08-13_12h52.50.810,proactive2,2020.1.2,MacIntel,60,5f341be081b9052c55068110,5f3528d30d301447d9448383,6,,,,,,cathedral,,,,,,,,,,,5,1,0,32,32,40,1,,,,,,,,,,,,,,,,,,,,,,,,,,,,,,,,,,,,,,,,,,,,,,,,,,,,,,,,,,,,,,,,,,,,,,,,,,,,,,,,,,,,,,,,,,,,,,
,,?,0.001,0,,,,,,stimuli/images/PICTURE_655.png,TOILET,5e8b5bd1ac48b2027b9f76e8,11/04/1999,2020-08-13_12h52.50.810,proactive2,2020.1.2,MacIntel,60,5f341be081b9052c55068110,5f3528d30d301447d9448383,6,,,,,,megaphone,,,,,,,,,,,2,1,0,33,33,12,1,,,,,,,,,,,,,,,,,,,,,,,,,,,,,,,,,,,,,,,,,,,,,,,,,,,,,,,,,,,,,,,,,,,,,,,,,,,,,,,,,,,,,,,,,,,,,,
,,?,0.001,0,,,,,,stimuli/images/PICTURE_327.png,CASINO,5e8b5bd1ac48b2027b9f76e8,11/04/1999,2020-08-13_12h52.50.810,proactive2,2020.1.2,MacIntel,60,5f341be081b9052c55068110,5f3528d30d301447d9448383,6,,,,,,helmet,,,,,,,,,,,3,1,0,34,34,20,1,,,,,,,,,,,,,,,,,,,,,,,,,,,,,,,,,,,,,,,,,,,,,,,,,,,,,,,,,,,,,,,,,,,,,,,,,,,,,,,,,,,,,,,,,,,,,,
,,?,0.001,0,,,,,,stimuli/images/PICTURE_33.png,FRIEND,5e8b5bd1ac48b2027b9f76e8,11/04/1999,2020-08-13_12h52.50.810,proactive2,2020.1.2,MacIntel,60,5f341be081b9052c55068110,5f3528d30d301447d9448383,6,,,,,,frame,,,,,,,,,,,1,1,0,35,35,8,1,,,,,,,,,,,,,,,,,,,,,,,,,,,,,,,,,,,,,,,,,,,,,,,,,,,,,,,,,,,,,,,,,,,,,,,,,,,,,,,,,,,,,,,,,,,,,,
,,?,0,0,,,,,,stimuli/images/PICTURE_654.png,MONTH,5e8b5bd1ac48b2027b9f76e8,11/04/1999,2020-08-13_12h52.50.810,proactive2,2020.1.2,MacIntel,60,5f341be081b9052c55068110,5f3528d30d301447d9448383,6,,,,,,pencil,,,,,,,,,,,3,1,0,36,36,29,1,,,,,,,,,,,,,,,,,,,,,,,,,,,,,,,,,,,,,,,,,,,,,,,,,,,,,,,,,,,,,,,,,,,,,,,,,,,,,,,,,,,,,,,,,,,,,,
,,?,0.001,0,,,,,,stimuli/images/PICTURE_380.png,CANDY,5e8b5bd1ac48b2027b9f76e8,11/04/1999,2020-08-13_12h52.50.810,proactive2,2020.1.2,MacIntel,60,5f341be081b9052c55068110,5f3528d30d301447d9448383,6,,,,,,gorilla,,,,,,,,,,,1,1,0,37,37,0,1,,,,,,,,,,,,,,,,,,,,,,,,,,,,,,,,,,,,,,,,,,,,,,,,,,,,,,,,,,,,,,,,,,,,,,,,,,,,,,,,,,,,,,,,,,,,,,
,,?,0,0,,,,,,stimuli/images/PICTURE_208.png,SYSTEM,5e8b5bd1ac48b2027b9f76e8,11/04/1999,2020-08-13_12h52.50.810,proactive2,2020.1.2,MacIntel,60,5f341be081b9052c55068110,5f3528d30d301447d9448383,6,,,,,,microphone,,,,,,,,,,,4,1,0,38,38,32,1,,,,,,,,,,,,,,,,,,,,,,,,,,,,,,,,,,,,,,,,,,,,,,,,,,,,,,,,,,,,,,,,,,,,,,,,,,,,,,,,,,,,,,,,,,,,,,
,,?,0.001,0,,,,,,stimuli/images/PICTURE_405.png,PLENTY,5e8b5bd1ac48b2027b9f76e8,11/04/1999,2020-08-13_12h52.50.810,proactive2,2020.1.2,MacIntel,60,5f341be081b9052c55068110,5f3528d30d301447d9448383,6,,,,,,anchor,,,,,,,,,,,3,1,0,39,39,23,1,,,,,,,,,,,,,,,,,,,,,,,,,,,,,,,,,,,,,,,,,,,,,,,,,,,,,,,,,,,,,,,,,,,,,,,,,,,,,,,,,,,,,,,,,,,,,,
,,?,0.001,0,,,,,,stimuli/images/PICTURE_296.png,LOTS,5e8b5bd1ac48b2027b9f76e8,11/04/1999,2020-08-13_12h52.50.810,proactive2,2020.1.2,MacIntel,60,5f341be081b9052c55068110,5f3528d30d301447d9448383,6,,,,,,bolt,,,,,,,,,,,1,1,0,40,40,9,1,,,,,,,,,,,,,,,,,,,,,,,,,,,,,,,,,,,,,,,,,,,,,,,,,,,,,,,,,,,,,,,,,,,,,,,,,,,,,,,,,,,,,,,,,,,,,,
,,?,0,0,,,,,,stimuli/images/PICTURE_147.png,YEAR,5e8b5bd1ac48b2027b9f76e8,11/04/1999,2020-08-13_12h52.50.810,proactive2,2020.1.2,MacIntel,60,5f341be081b9052c55068110,5f3528d30d301447d9448383,6,,,,,,hanger,,,,,,,,,,,3,1,0,41,41,21,1,,,,,,,,,,,,,,,,,,,,,,,,,,,,,,,,,,,,,,,,,,,,,,,,,,,,,,,,,,,,,,,,,,,,,,,,,,,,,,,,,,,,,,,,,,,,,,
,,BOYS,2.315,1,,,,,,stimuli/images/PICTURE_42.png,BOYS,5e8b5bd1ac48b2027b9f76e8,11/04/1999,2020-08-13_12h52.50.810,proactive2,2020.1.2,MacIntel,60,5f341be081b9052c55068110,5f3528d30d301447d9448383,6,,,,,,pear,,,,,,,,,,,6,1,0,42,42,55,1,,,,,,,,,,,,,,,,,,,,,,,,,,,,,,,,,,,,,,,,,,,,,,,,,,,,,,,,,,,,,,,,,,,,,,,,,,,,,,,,,,,,,,,,,,,,,,
,,?,0.002,0,,,,,,stimuli/images/PICTURE_85.png,NATION,5e8b5bd1ac48b2027b9f76e8,11/04/1999,2020-08-13_12h52.50.810,proactive2,2020.1.2,MacIntel,60,5f341be081b9052c55068110,5f3528d30d301447d9448383,6,,,,,,diamond,,,,,,,,,,,1,1,0,43,43,5,1,,,,,,,,,,,,,,,,,,,,,,,,,,,,,,,,,,,,,,,,,,,,,,,,,,,,,,,,,,,,,,,,,,,,,,,,,,,,,,,,,,,,,,,,,,,,,,
,,?,0.001,0,,,,,,stimuli/images/PICTURE_564.png,BATH,5e8b5bd1ac48b2027b9f76e8,11/04/1999,2020-08-13_12h52.50.810,proactive2,2020.1.2,MacIntel,60,5f341be081b9052c55068110,5f3528d30d301447d9448383,6,,,,,,spoon,,,,,,,,,,,3,1,0,44,44,26,1,,,,,,,,,,,,,,,,,,,,,,,,,,,,,,,,,,,,,,,,,,,,,,,,,,,,,,,,,,,,,,,,,,,,,,,,,,,,,,,,,,,,,,,,,,,,,,
,,?,0.001,0,,,,,,stimuli/images/PICTURE_340.png,LETTER,5e8b5bd1ac48b2027b9f76e8,11/04/1999,2020-08-13_12h52.50.810,proactive2,2020.1.2,MacIntel,60,5f341be081b9052c55068110,5f3528d30d301447d9448383,6,,,,,,mirror,,,,,,,,,,,3,1,0,45,45,24,1,,,,,,,,,,,,,,,,,,,,,,,,,,,,,,,,,,,,,,,,,,,,,,,,,,,,,,,,,,,,,,,,,,,,,,,,,,,,,,,,,,,,,,,,,,,,,,
,,?,0.002,0,,,,,,stimuli/images/PICTURE_380.png,HONEY,5e8b5bd1ac48b2027b9f76e8,11/04/1999,2020-08-13_12h52.50.810,proactive2,2020.1.2,MacIntel,60,5f341be081b9052c55068110,5f3528d30d301447d9448383,6,,,,,,gorilla,,,,,,,,,,,2,1,0,46,46,19,1,,,,,,,,,,,,,,,,,,,,,,,,,,,,,,,,,,,,,,,,,,,,,,,,,,,,,,,,,,,,,,,,,,,,,,,,,,,,,,,,,,,,,,,,,,,,,,
,,?,0.001,0,,,,,,stimuli/images/PICTURE_85.png,TOILET,5e8b5bd1ac48b2027b9f76e8,11/04/1999,2020-08-13_12h52.50.810,proactive2,2020.1.2,MacIntel,60,5f341be081b9052c55068110,5f3528d30d301447d9448383,6,,,,,,diamond,,,,,,,,,,,5,1,0,47,47,48,1,,,,,,,,,,,,,,,,,,,,,,,,,,,,,,,,,,,,,,,,,,,,,,,,,,,,,,,,,,,,,,,,,,,,,,,,,,,,,,,,,,,,,,,,,,,,,,
,,VALLEY,3.704,1,,,,,,stimuli/images/PICTURE_340.png,VALLEY,5e8b5bd1ac48b2027b9f76e8,11/04/1999,2020-08-13_12h52.50.810,proactive2,2020.1.2,MacIntel,60,5f341be081b9052c55068110,5f3528d30d301447d9448383,6,,,,,,mirror,,,,,,,,,,,6,1,0,48,48,54,1,,,,,,,,,,,,,,,,,,,,,,,,,,,,,,,,,,,,,,,,,,,,,,,,,,,,,,,,,,,,,,,,,,,,,,,,,,,,,,,,,,,,,,,,,,,,,,
,,?,0.001,0,,,,,,stimuli/images/PICTURE_383.png,SERIES,5e8b5bd1ac48b2027b9f76e8,11/04/1999,2020-08-13_12h52.50.810,proactive2,2020.1.2,MacIntel,60,5f341be081b9052c55068110,5f3528d30d301447d9448383,6,,,,,,coin,,,,,,,,,,,5,1,0,49,49,46,1,,,,,,,,,,,,,,,,,,,,,,,,,,,,,,,,,,,,,,,,,,,,,,,,,,,,,,,,,,,,,,,,,,,,,,,,,,,,,,,,,,,,,,,,,,,,,,
,,?,0.001,0,,,,,,stimuli/images/PICTURE_147.png,WOMEN,5e8b5bd1ac48b2027b9f76e8,11/04/1999,2020-08-13_12h52.50.810,proactive2,2020.1.2,MacIntel,60,5f341be081b9052c55068110,5f3528d30d301447d9448383,6,,,,,,hanger,,,,,,,,,,,1,1,0,50,50,7,1,,,,,,,,,,,,,,,,,,,,,,,,,,,,,,,,,,,,,,,,,,,,,,,,,,,,,,,,,,,,,,,,,,,,,,,,,,,,,,,,,,,,,,,,,,,,,,
,,?,0.001,0,,,,,,stimuli/images/PICTURE_750.png,HOTEL,5e8b5bd1ac48b2027b9f76e8,11/04/1999,2020-08-13_12h52.50.810,proactive2,2020.1.2,MacIntel,60,5f341be081b9052c55068110,5f3528d30d301447d9448383,6,,,,,,kettle,,,,,,,,,,,3,1,0,51,51,27,1,,,,,,,,,,,,,,,,,,,,,,,,,,,,,,,,,,,,,,,,,,,,,,,,,,,,,,,,,,,,,,,,,,,,,,,,,,,,,,,,,,,,,,,,,,,,,,
,,?,0.002,0,,,,,,stimuli/images/PICTURE_405.png,YEAR,5e8b5bd1ac48b2027b9f76e8,11/04/1999,2020-08-13_12h52.50.810,proactive2,2020.1.2,MacIntel,60,5f341be081b9052c55068110,5f3528d30d301447d9448383,6,,,,,,anchor,,,,,,,,,,,4,1,0,52,52,34,1,,,,,,,,,,,,,,,,,,,,,,,,,,,,,,,,,,,,,,,,,,,,,,,,,,,,,,,,,,,,,,,,,,,,,,,,,,,,,,,,,,,,,,,,,,,,,,
,,?,0.001,0,,,,,,stimuli/images/PICTURE_491.png,RIVER,5e8b5bd1ac48b2027b9f76e8,11/04/1999,2020-08-13_12h52.50.810,proactive2,2020.1.2,MacIntel,60,5f341be081b9052c55068110,5f3528d30d301447d9448383,6,,,,,,rug,,,,,,,,,,,1,1,0,53,53,6,1,,,,,,,,,,,,,,,,,,,,,,,,,,,,,,,,,,,,,,,,,,,,,,,,,,,,,,,,,,,,,,,,,,,,,,,,,,,,,,,,,,,,,,,,,,,,,,
,,?,0.001,0,,,,,,stimuli/images/PICTURE_685.png,PENNY,5e8b5bd1ac48b2027b9f76e8,11/04/1999,2020-08-13_12h52.50.810,proactive2,2020.1.2,MacIntel,60,5f341be081b9052c55068110,5f3528d30d301447d9448383,6,,,,,,goose,,,,,,,,,,,1,1,0,54,54,4,1,,,,,,,,,,,,,,,,,,,,,,,,,,,,,,,,,,,,,,,,,,,,,,,,,,,,,,,,,,,,,,,,,,,,,,,,,,,,,,,,,,,,,,,,,,,,,,
,,FLIGHT,4.719,1,,,,,,stimuli/images/PICTURE_108.png,FLIGHT,5e8b5bd1ac48b2027b9f76e8,11/04/1999,2020-08-13_12h52.50.810,proactive2,2020.1.2,MacIntel,60,5f341be081b9052c55068110,5f3528d30d301447d9448383,6,,,,,,calendar,,,,,,,,,,,6,1,0,55,55,59,1,,,,,,,,,,,,,,,,,,,,,,,,,,,,,,,,,,,,,,,,,,,,,,,,,,,,,,,,,,,,,,,,,,,,,,,,,,,,,,,,,,,,,,,,,,,,,,
,,?,0.002,0,,,,,,stimuli/images/PICTURE_504.png,ARTIST,5e8b5bd1ac48b2027b9f76e8,11/04/1999,2020-08-13_12h52.50.810,proactive2,2020.1.2,MacIntel,60,5f341be081b9052c55068110,5f3528d30d301447d9448383,6,,,,,,wheel,,,,,,,,,,,5,1,0,56,56,49,1,,,,,,,,,,,,,,,,,,,,,,,,,,,,,,,,,,,,,,,,,,,,,,,,,,,,,,,,,,,,,,,,,,,,,,,,,,,,,,,,,,,,,,,,,,,,,,
,,?,0.001,0,,,,,,stimuli/images/PICTURE_95.png,HONEY,5e8b5bd1ac48b2027b9f76e8,11/04/1999,2020-08-13_12h52.50.810,proactive2,2020.1.2,MacIntel,60,5f341be081b9052c55068110,5f3528d30d301447d9448383,6,,,,,,suitcase,,,,,,,,,,,5,1,0,57,57,44,1,,,,,,,,,,,,,,,,,,,,,,,,,,,,,,,,,,,,,,,,,,,,,,,,,,,,,,,,,,,,,,,,,,,,,,,,,,,,,,,,,,,,,,,,,,,,,,
,,?,0.001,0,,,,,,stimuli/images/PICTURE_177.png,WRITER,5e8b5bd1ac48b2027b9f76e8,11/04/1999,2020-08-13_12h52.50.810,proactive2,2020.1.2,MacIntel,60,5f341be081b9052c55068110,5f3528d30d301447d9448383,6,,,,,,mushroom,,,,,,,,,,,5,1,0,58,58,41,1,,,,,,,,,,,,,,,,,,,,,,,,,,,,,,,,,,,,,,,,,,,,,,,,,,,,,,,,,,,,,,,,,,,,,,,,,,,,,,,,,,,,,,,,,,,,,,
,,?,0.001,0,,,,,,stimuli/images/PICTURE_327.png,SERIES,5e8b5bd1ac48b2027b9f76e8,11/04/1999,2020-08-13_12h52.50.810,proactive2,2020.1.2,MacIntel,60,5f341be081b9052c55068110,5f3528d30d301447d9448383,6,,,,,,helmet,,,,,,,,,,,1,1,0,59,59,3,1,,,,,,,,,,,,,,,,,,,,,,,,,,,,,,,,,,,,,,,,,,,,,,,,,,,,,,,,,,,,,,,,,,,,,,,,,,,,,,,,,,,,,,,,,,,,,,
,,,,,,,,,,,,5e8b5bd1ac48b2027b9f76e8,11/04/1999,2020-08-13_12h52.50.810,proactive2,2020.1.2,MacIntel,60,5f341be081b9052c55068110,5f3528d30d301447d9448383,6,,,,,,,,,,,,,,,,,,,,,,,,0,0,0,1,1,stimuli/learn-block2.csv,,,,,,,,,,,,,,,,,,,,,,,,,,,,,,,,,,,,,,,,,,,,,,,,,,,,,,,,,,,,,,,,,,,,,,,,,,,,,,,,,,,,,,,,
,,,,,,,,,,stimuli/images/PICTURE_677.png,FAMILY,5e8b5bd1ac48b2027b9f76e8,11/04/1999,2020-08-13_12h52.50.810,proactive2,2020.1.2,MacIntel,60,5f341be081b9052c55068110,5f3528d30d301447d9448383,6,,,,,,map,,,,,,0,0,0,53,1,6,2,,,,,,,,,,,,,,,,,,,,,,,,,,,,,,,,,,,,,,,,,,,,,,,,,,,,,,,,,,,,,,,,,,,,,,,,,,,,,,,,,,,,,,,,,,,,,,,,,,,
,,,,,,,,,,stimuli/images/PICTURE_215.png,LEADER,5e8b5bd1ac48b2027b9f76e8,11/04/1999,2020-08-13_12h52.50.810,proactive2,2020.1.2,MacIntel,60,5f341be081b9052c55068110,5f3528d30d301447d9448383,6,,,,,,boot,,,,,,0,1,1,43,1,5,2,,,,,,,,,,,,,,,,,,,,,,,,,,,,,,,,,,,,,,,,,,,,,,,,,,,,,,,,,,,,,,,,,,,,,,,,,,,,,,,,,,,,,,,,,,,,,,,,,,,
,,,,,,,,,,stimuli/images/PICTURE_177.png,HOUSE,5e8b5bd1ac48b2027b9f76e8,11/04/1999,2020-08-13_12h52.50.810,proactive2,2020.1.2,MacIntel,60,5f341be081b9052c55068110,5f3528d30d301447d9448383,6,,,,,,mushroom,,,,,,0,2,2,25,1,3,2,,,,,,,,,,,,,,,,,,,,,,,,,,,,,,,,,,,,,,,,,,,,,,,,,,,,,,,,,,,,,,,,,,,,,,,,,,,,,,,,,,,,,,,,,,,,,,,,,,,
,,,,,,,,,,stimuli/images/PICTURE_18.png,RIVER,5e8b5bd1ac48b2027b9f76e8,11/04/1999,2020-08-13_12h52.50.810,proactive2,2020.1.2,MacIntel,60,5f341be081b9052c55068110,5f3528d30d301447d9448383,6,,,,,,planet,,,,,,0,3,3,22,1,3,2,,,,,,,,,,,,,,,,,,,,,,,,,,,,,,,,,,,,,,,,,,,,,,,,,,,,,,,,,,,,,,,,,,,,,,,,,,,,,,,,,,,,,,,,,,,,,,,,,,,
,,,,,,,,,,stimuli/images/PICTURE_285.png,PRINCE,5e8b5bd1ac48b2027b9f76e8,11/04/1999,2020-08-13_12h52.50.810,proactive2,2020.1.2,MacIntel,60,5f341be081b9052c55068110,5f3528d30d301447d9448383,6,,,,,,carrot,,,,,,0,4,4,20,1,3,2,,,,,,,,,,,,,,,,,,,,,,,,,,,,,,,,,,,,,,,,,,,,,,,,,,,,,,,,,,,,,,,,,,,,,,,,,,,,,,,,,,,,,,,,,,,,,,,,,,,
,,,,,,,,,,stimuli/images/PICTURE_147.png,LEADER,5e8b5bd1ac48b2027b9f76e8,11/04/1999,2020-08-13_12h52.50.810,proactive2,2020.1.2,MacIntel,60,5f341be081b9052c55068110,5f3528d30d301447d9448383,6,,,,,,hanger,,,,,,0,5,5,33,1,4,2,,,,,,,,,,,,,,,,,,,,,,,,,,,,,,,,,,,,,,,,,,,,,,,,,,,,,,,,,,,,,,,,,,,,,,,,,,,,,,,,,,,,,,,,,,,,,,,,,,,
,,,,,,,,,,stimuli/images/PICTURE_403.png,FAMILY,5e8b5bd1ac48b2027b9f76e8,11/04/1999,2020-08-13_12h52.50.810,proactive2,2020.1.2,MacIntel,60,5f341be081b9052c55068110,5f3528d30d301447d9448383,6,,,,,,cathedral,,,,,,0,6,6,9,1,1,2,,,,,,,,,,,,,,,,,,,,,,,,,,,,,,,,,,,,,,,,,,,,,,,,,,,,,,,,,,,,,,,,,,,,,,,,,,,,,,,,,,,,,,,,,,,,,,,,,,,
,,,,,,,,,,stimuli/images/PICTURE_2.png,JUNGLE,5e8b5bd1ac48b2027b9f76e8,11/04/1999,2020-08-13_12h52.50.810,proactive2,2020.1.2,MacIntel,60,5f341be081b9052c55068110,5f3528d30d301447d9448383,6,,,,,,tyre,,,,,,0,7,7,1,1,1,2,,,,,,,,,,,,,,,,,,,,,,,,,,,,,,,,,,,,,,,,,,,,,,,,,,,,,,,,,,,,,,,,,,,,,,,,,,,,,,,,,,,,,,,,,,,,,,,,,,,
,,,,,,,,,,stimuli/images/PICTURE_297.png,BODY,5e8b5bd1ac48b2027b9f76e8,11/04/1999,2020-08-13_12h52.50.810,proactive2,2020.1.2,MacIntel,60,5f341be081b9052c55068110,5f3528d30d301447d9448383,6,,,,,,aeroplane,,,,,,0,8,8,51,1,6,2,,,,,,,,,,,,,,,,,,,,,,,,,,,,,,,,,,,,,,,,,,,,,,,,,,,,,,,,,,,,,,,,,,,,,,,,,,,,,,,,,,,,,,,,,,,,,,,,,,,
,,,,,,,,,,stimuli/images/PICTURE_255.png,PENNY,5e8b5bd1ac48b2027b9f76e8,11/04/1999,2020-08-13_12h52.50.810,proactive2,2020.1.2,MacIntel,60,5f341be081b9052c55068110,5f3528d30d301447d9448383,6,,,,,,shovel,,,,,,0,9,9,19,1,2,2,,,,,,,,,,,,,,,,,,,,,,,,,,,,,,,,,,,,,,,,,,,,,,,,,,,,,,,,,,,,,,,,,,,,,,,,,,,,,,,,,,,,,,,,,,,,,,,,,,,
,,,,,,,,,,stimuli/images/PICTURE_677.png,PHOTO,5e8b5bd1ac48b2027b9f76e8,11/04/1999,2020-08-13_12h52.50.810,proactive2,2020.1.2,MacIntel,60,5f341be081b9052c55068110,5f3528d30d301447d9448383,6,,,,,,map,,,,,,0,10,10,14,1,2,2,,,,,,,,,,,,,,,,,,,,,,,,,,,,,,,,,,,,,,,,,,,,,,,,,,,,,,,,,,,,,,,,,,,,,,,,,,,,,,,,,,,,,,,,,,,,,,,,,,,
,,,,,,,,,,stimuli/images/PICTURE_141.png,CLIENT,5e8b5bd1ac48b2027b9f76e8,11/04/1999,2020-08-13_12h52.50.810,proactive2,2020.1.2,MacIntel,60,5f341be081b9052c55068110,5f3528d30d301447d9448383,6,,,,,,sunflower,,,,,,0,11,11,30,1,4,2,,,,,,,,,,,,,,,,,,,,,,,,,,,,,,,,,,,,,,,,,,,,,,,,,,,,,,,,,,,,,,,,,,,,,,,,,,,,,,,,,,,,,,,,,,,,,,,,,,,
,,,,,,,,,,stimuli/images/PICTURE_564.png,PLENTY,5e8b5bd1ac48b2027b9f76e8,11/04/1999,2020-08-13_12h52.50.810,proactive2,2020.1.2,MacIntel,60,5f341be081b9052c55068110,5f3528d30d301447d9448383,6,,,,,,spoon,,,,,,0,12,12,11,1,2,2,,,,,,,,,,,,,,,,,,,,,,,,,,,,,,,,,,,,,,,,,,,,,,,,,,,,,,,,,,,,,,,,,,,,,,,,,,,,,,,,,,,,,,,,,,,,,,,,,,,
,,,,,,,,,,stimuli/images/PICTURE_311.png,FLESH,5e8b5bd1ac48b2027b9f76e8,11/04/1999,2020-08-13_12h52.50.810,proactive2,2020.1.2,MacIntel,60,5f341be081b9052c55068110,5f3528d30d301447d9448383,6,,,,,,razor,,,,,,0,13,13,3,1,1,2,,,,,,,,,,,,,,,,,,,,,,,,,,,,,,,,,,,,,,,,,,,,,,,,,,,,,,,,,,,,,,,,,,,,,,,,,,,,,,,,,,,,,,,,,,,,,,,,,,,
,,,,,,,,,,stimuli/images/PICTURE_750.png,POLICY,5e8b5bd1ac48b2027b9f76e8,11/04/1999,2020-08-13_12h52.50.810,proactive2,2020.1.2,MacIntel,60,5f341be081b9052c55068110,5f3528d30d301447d9448383,6,,,,,,kettle,,,,,,0,14,14,44,1,5,2,,,,,,,,,,,,,,,,,,,,,,,,,,,,,,,,,,,,,,,,,,,,,,,,,,,,,,,,,,,,,,,,,,,,,,,,,,,,,,,,,,,,,,,,,,,,,,,,,,,
,,,,,,,,,,stimuli/images/PICTURE_667.png,GLASS,5e8b5bd1ac48b2027b9f76e8,11/04/1999,2020-08-13_12h52.50.810,proactive2,2020.1.2,MacIntel,60,5f341be081b9052c55068110,5f3528d30d301447d9448383,6,,,,,,daisy,,,,,,0,15,15,27,1,3,2,,,,,,,,,,,,,,,,,,,,,,,,,,,,,,,,,,,,,,,,,,,,,,,,,,,,,,,,,,,,,,,,,,,,,,,,,,,,,,,,,,,,,,,,,,,,,,,,,,,
,,,,,,,,,,stimuli/images/PICTURE_487.png,ROOF,5e8b5bd1ac48b2027b9f76e8,11/04/1999,2020-08-13_12h52.50.810,proactive2,2020.1.2,MacIntel,60,5f341be081b9052c55068110,5f3528d30d301447d9448383,6,,,,,,basket,,,,,,0,16,16,50,1,6,2,,,,,,,,,,,,,,,,,,,,,,,,,,,,,,,,,,,,,,,,,,,,,,,,,,,,,,,,,,,,,,,,,,,,,,,,,,,,,,,,,,,,,,,,,,,,,,,,,,,
,,,,,,,,,,stimuli/images/PICTURE_2.png,YARD,5e8b5bd1ac48b2027b9f76e8,11/04/1999,2020-08-13_12h52.50.810,proactive2,2020.1.2,MacIntel,60,5f341be081b9052c55068110,5f3528d30d301447d9448383,6,,,,,,tyre,,,,,,0,17,17,55,1,6,2,,,,,,,,,,,,,,,,,,,,,,,,,,,,,,,,,,,,,,,,,,,,,,,,,,,,,,,,,,,,,,,,,,,,,,,,,,,,,,,,,,,,,,,,,,,,,,,,,,,
,,,,,,,,,,stimuli/images/PICTURE_688.png,CLOCK,5e8b5bd1ac48b2027b9f76e8,11/04/1999,2020-08-13_12h52.50.810,proactive2,2020.1.2,MacIntel,60,5f341be081b9052c55068110,5f3528d30d301447d9448383,6,,,,,,runner,,,,,,0,18,18,42,1,5,2,,,,,,,,,,,,,,,,,,,,,,,,,,,,,,,,,,,,,,,,,,,,,,,,,,,,,,,,,,,,,,,,,,,,,,,,,,,,,,,,,,,,,,,,,,,,,,,,,,,
,,,,,,,,,,stimuli/images/PICTURE_405.png,HOUSE,5e8b5bd1ac48b2027b9f76e8,11/04/1999,2020-08-13_12h52.50.810,proactive2,2020.1.2,MacIntel,60,5f341be081b9052c55068110,5f3528d30d301447d9448383,6,,,,,,anchor,,,,,,0,19,19,2,1,1,2,,,,,,,,,,,,,,,,,,,,,,,,,,,,,,,,,,,,,,,,,,,,,,,,,,,,,,,,,,,,,,,,,,,,,,,,,,,,,,,,,,,,,,,,,,,,,,,,,,,
,,,,,,,,,,stimuli/images/PICTURE_311.png,TOILET,5e8b5bd1ac48b2027b9f76e8,11/04/1999,2020-08-13_12h52.50.810,proactive2,2020.1.2,MacIntel,60,5f341be081b9052c55068110,5f3528d30d301447d9448383,6,,,,,,razor,,,,,,0,20,20,54,1,6,2,,,,,,,,,,,,,,,,,,,,,,,,,,,,,,,,,,,,,,,,,,,,,,,,,,,,,,,,,,,,,,,,,,,,,,,,,,,,,,,,,,,,,,,,,,,,,,,,,,,
,,,,,,,,,,stimuli/images/PICTURE_655.png,SALE,5e8b5bd1ac48b2027b9f76e8,11/04/1999,2020-08-13_12h52.50.810,proactive2,2020.1.2,MacIntel,60,5f341be081b9052c55068110,5f3528d30d301447d9448383,6,,,,,,megaphone,,,,,,0,21,21,57,1,6,2,,,,,,,,,,,,,,,,,,,,,,,,,,,,,,,,,,,,,,,,,,,,,,,,,,,,,,,,,,,,,,,,,,,,,,,,,,,,,,,,,,,,,,,,,,,,,,,,,,,
,,,,,,,,,,stimuli/images/PICTURE_470.png,BEAUTY,5e8b5bd1ac48b2027b9f76e8,11/04/1999,2020-08-13_12h52.50.810,proactive2,2020.1.2,MacIntel,60,5f341be081b9052c55068110,5f3528d30d301447d9448383,6,,,,,,motorbike,,,,,,0,22,22,26,1,3,2,,,,,,,,,,,,,,,,,,,,,,,,,,,,,,,,,,,,,,,,,,,,,,,,,,,,,,,,,,,,,,,,,,,,,,,,,,,,,,,,,,,,,,,,,,,,,,,,,,,
,,,,,,,,,,stimuli/images/PICTURE_32.png,LETTER,5e8b5bd1ac48b2027b9f76e8,11/04/1999,2020-08-13_12h52.50.810,proactive2,2020.1.2,MacIntel,60,5f341be081b9052c55068110,5f3528d30d301447d9448383,6,,,,,,crown,,,,,,0,23,23,56,1,6,2,,,,,,,,,,,,,,,,,,,,,,,,,,,,,,,,,,,,,,,,,,,,,,,,,,,,,,,,,,,,,,,,,,,,,,,,,,,,,,,,,,,,,,,,,,,,,,,,,,,
,,,,,,,,,,stimuli/images/PICTURE_452.png,COPS,5e8b5bd1ac48b2027b9f76e8,11/04/1999,2020-08-13_12h52.50.810,proactive2,2020.1.2,MacIntel,60,5f341be081b9052c55068110,5f3528d30d301447d9448383,6,,,,,,watch,,,,,,0,24,24,0,1,1,2,,,,,,,,,,,,,,,,,,,,,,,,,,,,,,,,,,,,,,,,,,,,,,,,,,,,,,,,,,,,,,,,,,,,,,,,,,,,,,,,,,,,,,,,,,,,,,,,,,,
,,,,,,,,,,stimuli/images/PICTURE_215.png,FOOD,5e8b5bd1ac48b2027b9f76e8,11/04/1999,2020-08-13_12h52.50.810,proactive2,2020.1.2,MacIntel,60,5f341be081b9052c55068110,5f3528d30d301447d9448383,6,,,,,,boot,,,,,,0,25,25,5,1,1,2,,,,,,,,,,,,,,,,,,,,,,,,,,,,,,,,,,,,,,,,,,,,,,,,,,,,,,,,,,,,,,,,,,,,,,,,,,,,,,,,,,,,,,,,,,,,,,,,,,,
,,,,,,,,,,stimuli/images/PICTURE_68.png,KIND,5e8b5bd1ac48b2027b9f76e8,11/04/1999,2020-08-13_12h52.50.810,proactive2,2020.1.2,MacIntel,60,5f341be081b9052c55068110,5f3528d30d301447d9448383,6,,,,,,candle,,,,,,0,26,26,23,1,3,2,,,,,,,,,,,,,,,,,,,,,,,,,,,,,,,,,,,,,,,,,,,,,,,,,,,,,,,,,,,,,,,,,,,,,,,,,,,,,,,,,,,,,,,,,,,,,,,,,,,
,,,,,,,,,,stimuli/images/PICTURE_57.png,CASINO,5e8b5bd1ac48b2027b9f76e8,11/04/1999,2020-08-13_12h52.50.810,proactive2,2020.1.2,MacIntel,60,5f341be081b9052c55068110,5f3528d30d301447d9448383,6,,,,,,stamp,,,,,,0,27,27,12,1,2,2,,,,,,,,,,,,,,,,,,,,,,,,,,,,,,,,,,,,,,,,,,,,,,,,,,,,,,,,,,,,,,,,,,,,,,,,,,,,,,,,,,,,,,,,,,,,,,,,,,,
,,,,,,,,,,stimuli/images/PICTURE_296.png,CLOCK,5e8b5bd1ac48b2027b9f76e8,11/04/1999,2020-08-13_12h52.50.810,proactive2,2020.1.2,MacIntel,60,5f341be081b9052c55068110,5f3528d30d301447d9448383,6,,,,,,bolt,,,,,,0,28,28,18,1,2,2,,,,,,,,,,,,,,,,,,,,,,,,,,,,,,,,,,,,,,,,,,,,,,,,,,,,,,,,,,,,,,,,,,,,,,,,,,,,,,,,,,,,,,,,,,,,,,,,,,,
,,,,,,,,,,stimuli/images/PICTURE_504.png,HOUSE,5e8b5bd1ac48b2027b9f76e8,11/04/1999,2020-08-13_12h52.50.810,proactive2,2020.1.2,MacIntel,60,5f341be081b9052c55068110,5f3528d30d301447d9448383,6,,,,,,wheel,,,,,,0,29,29,36,1,4,2,,,,,,,,,,,,,,,,,,,,,,,,,,,,,,,,,,,,,,,,,,,,,,,,,,,,,,,,,,,,,,,,,,,,,,,,,,,,,,,,,,,,,,,,,,,,,,,,,,,
,,,,,,,,,,stimuli/images/PICTURE_348.png,TOILET,5e8b5bd1ac48b2027b9f76e8,11/04/1999,2020-08-13_12h52.50.810,proactive2,2020.1.2,MacIntel,60,5f341be081b9052c55068110,5f3528d30d301447d9448383,6,,,,,,pepper,,,,,,0,30,30,4,1,1,2,,,,,,,,,,,,,,,,,,,,,,,,,,,,,,,,,,,,,,,,,,,,,,,,,,,,,,,,,,,,,,,,,,,,,,,,,,,,,,,,,,,,,,,,,,,,,,,,,,,
,,,,,,,,,,stimuli/images/PICTURE_93.png,GIRL,5e8b5bd1ac48b2027b9f76e8,11/04/1999,2020-08-13_12h52.50.810,proactive2,2020.1.2,MacIntel,60,5f341be081b9052c55068110,5f3528d30d301447d9448383,6,,,,,,skateboard,,,,,,0,31,31,31,1,4,2,,,,,,,,,,,,,,,,,,,,,,,,,,,,,,,,,,,,,,,,,,,,,,,,,,,,,,,,,,,,,,,,,,,,,,,,,,,,,,,,,,,,,,,,,,,,,,,,,,,
,,,,,,,,,,stimuli/images/PICTURE_453.png,FAMILY,5e8b5bd1ac48b2027b9f76e8,11/04/1999,2020-08-13_12h52.50.810,proactive2,2020.1.2,MacIntel,60,5f341be081b9052c55068110,5f3528d30d301447d9448383,6,,,,,,scissors,,,,,,0,32,32,48,1,5,2,,,,,,,,,,,,,,,,,,,,,,,,,,,,,,,,,,,,,,,,,,,,,,,,,,,,,,,,,,,,,,,,,,,,,,,,,,,,,,,,,,,,,,,,,,,,,,,,,,,
,,,,,,,,,,stimuli/images/PICTURE_285.png,WRITER,5e8b5bd1ac48b2027b9f76e8,11/04/1999,2020-08-13_12h52.50.810,proactive2,2020.1.2,MacIntel,60,5f341be081b9052c55068110,5f3528d30d301447d9448383,6,,,,,,carrot,,,,,,0,33,33,6,1,1,2,,,,,,,,,,,,,,,,,,,,,,,,,,,,,,,,,,,,,,,,,,,,,,,,,,,,,,,,,,,,,,,,,,,,,,,,,,,,,,,,,,,,,,,,,,,,,,,,,,,
,,,,,,,,,,stimuli/images/PICTURE_654.png,COPS,5e8b5bd1ac48b2027b9f76e8,11/04/1999,2020-08-13_12h52.50.810,proactive2,2020.1.2,MacIntel,60,5f341be081b9052c55068110,5f3528d30d301447d9448383,6,,,,,,pencil,,,,,,0,34,34,10,1,2,2,,,,,,,,,,,,,,,,,,,,,,,,,,,,,,,,,,,,,,,,,,,,,,,,,,,,,,,,,,,,,,,,,,,,,,,,,,,,,,,,,,,,,,,,,,,,,,,,,,,
,,,,,,,,,,stimuli/images/PICTURE_123.png,SALE,5e8b5bd1ac48b2027b9f76e8,11/04/1999,2020-08-13_12h52.50.810,proactive2,2020.1.2,MacIntel,60,5f341be081b9052c55068110,5f3528d30d301447d9448383,6,,,,,,dart,,,,,,0,35,35,8,1,1,2,,,,,,,,,,,,,,,,,,,,,,,,,,,,,,,,,,,,,,,,,,,,,,,,,,,,,,,,,,,,,,,,,,,,,,,,,,,,,,,,,,,,,,,,,,,,,,,,,,,
,,,,,,,,,,stimuli/images/PICTURE_708.png,VALLEY,5e8b5bd1ac48b2027b9f76e8,11/04/1999,2020-08-13_12h52.50.810,proactive2,2020.1.2,MacIntel,60,5f341be081b9052c55068110,5f3528d30d301447d9448383,6,,,,,,monkey,,,,,,0,36,36,45,1,5,2,,,,,,,,,,,,,,,,,,,,,,,,,,,,,,,,,,,,,,,,,,,,,,,,,,,,,,,,,,,,,,,,,,,,,,,,,,,,,,,,,,,,,,,,,,,,,,,,,,,
,,,,,,,,,,stimuli/images/PICTURE_95.png,NIGHT,5e8b5bd1ac48b2027b9f76e8,11/04/1999,2020-08-13_12h52.50.810,proactive2,2020.1.2,MacIntel,60,5f341be081b9052c55068110,5f3528d30d301447d9448383,6,,,,,,suitcase,,,,,,0,37,37,37,1,4,2,,,,,,,,,,,,,,,,,,,,,,,,,,,,,,,,,,,,,,,,,,,,,,,,,,,,,,,,,,,,,,,,,,,,,,,,,,,,,,,,,,,,,,,,,,,,,,,,,,,
,,,,,,,,,,stimuli/images/PICTURE_509.png,MILLER,5e8b5bd1ac48b2027b9f76e8,11/04/1999,2020-08-13_12h52.50.810,proactive2,2020.1.2,MacIntel,60,5f341be081b9052c55068110,5f3528d30d301447d9448383,6,,,,,,telephone,,,,,,0,38,38,49,1,5,2,,,,,,,,,,,,,,,,,,,,,,,,,,,,,,,,,,,,,,,,,,,,,,,,,,,,,,,,,,,,,,,,,,,,,,,,,,,,,,,,,,,,,,,,,,,,,,,,,,,
,,,,,,,,,,stimuli/images/PICTURE_509.png,SHOTS,5e8b5bd1ac48b2027b9f76e8,11/04/1999,2020-08-13_12h52.50.810,proactive2,2020.1.2,MacIntel,60,5f341be081b9052c55068110,5f3528d30d301447d9448383,6,,,,,,telephone,,,,,,0,39,39,7,1,1,2,,,,,,,,,,,,,,,,,,,,,,,,,,,,,,,,,,,,,,,,,,,,,,,,,,,,,,,,,,,,,,,,,,,,,,,,,,,,,,,,,,,,,,,,,,,,,,,,,,,
,,,,,,,,,,stimuli/images/PICTURE_208.png,SPIRIT,5e8b5bd1ac48b2027b9f76e8,11/04/1999,2020-08-13_12h52.50.810,proactive2,2020.1.2,MacIntel,60,5f341be081b9052c55068110,5f3528d30d301447d9448383,6,,,,,,microphone,,,,,,0,40,40,28,1,3,2,,,,,,,,,,,,,,,,,,,,,,,,,,,,,,,,,,,,,,,,,,,,,,,,,,,,,,,,,,,,,,,,,,,,,,,,,,,,,,,,,,,,,,,,,,,,,,,,,,,
,,,,,,,,,,stimuli/images/PICTURE_57.png,CANDY,5e8b5bd1ac48b2027b9f76e8,11/04/1999,2020-08-13_12h52.50.810,proactive2,2020.1.2,MacIntel,60,5f341be081b9052c55068110,5f3528d30d301447d9448383,6,,,,,,stamp,,,,,,0,41,41,52,1,6,2,,,,,,,,,,,,,,,,,,,,,,,,,,,,,,,,,,,,,,,,,,,,,,,,,,,,,,,,,,,,,,,,,,,,,,,,,,,,,,,,,,,,,,,,,,,,,,,,,,,
,,,,,,,,,,stimuli/images/PICTURE_509.png,BATH,5e8b5bd1ac48b2027b9f76e8,11/04/1999,2020-08-13_12h52.50.810,proactive2,2020.1.2,MacIntel,60,5f341be081b9052c55068110,5f3528d30d301447d9448383,6,,,,,,telephone,,,,,,0,42,42,15,1,2,2,,,,,,,,,,,,,,,,,,,,,,,,,,,,,,,,,,,,,,,,,,,,,,,,,,,,,,,,,,,,,,,,,,,,,,,,,,,,,,,,,,,,,,,,,,,,,,,,,,,
,,,,,,,,,,stimuli/images/PICTURE_348.png,DUDE,5e8b5bd1ac48b2027b9f76e8,11/04/1999,2020-08-13_12h52.50.810,proactive2,2020.1.2,MacIntel,60,5f341be081b9052c55068110,5f3528d30d301447d9448383,6,,,,,,pepper,,,,,,0,43,43,59,1,6,2,,,,,,,,,,,,,,,,,,,,,,,,,,,,,,,,,,,,,,,,,,,,,,,,,,,,,,,,,,,,,,,,,,,,,,,,,,,,,,,,,,,,,,,,,,,,,,,,,,,
,,,,,,,,,,stimuli/images/PICTURE_356.png,CANDY,5e8b5bd1ac48b2027b9f76e8,11/04/1999,2020-08-13_12h52.50.810,proactive2,2020.1.2,MacIntel,60,5f341be081b9052c55068110,5f3528d30d301447d9448383,6,,,,,,pawn,,,,,,0,44,44,46,1,5,2,,,,,,,,,,,,,,,,,,,,,,,,,,,,,,,,,,,,,,,,,,,,,,,,,,,,,,,,,,,,,,,,,,,,,,,,,,,,,,,,,,,,,,,,,,,,,,,,,,,
,,,,,,,,,,stimuli/images/PICTURE_327.png,LEADER,5e8b5bd1ac48b2027b9f76e8,11/04/1999,2020-08-13_12h52.50.810,proactive2,2020.1.2,MacIntel,60,5f341be081b9052c55068110,5f3528d30d301447d9448383,6,,,,,,helmet,,,,,,0,45,45,17,1,2,2,,,,,,,,,,,,,,,,,,,,,,,,,,,,,,,,,,,,,,,,,,,,,,,,,,,,,,,,,,,,,,,,,,,,,,,,,,,,,,,,,,,,,,,,,,,,,,,,,,,
,,,,,,,,,,stimuli/images/PICTURE_33.png,COPS,5e8b5bd1ac48b2027b9f76e8,11/04/1999,2020-08-13_12h52.50.810,proactive2,2020.1.2,MacIntel,60,5f341be081b9052c55068110,5f3528d30d301447d9448383,6,,,,,,frame,,,,,,0,46,46,29,1,3,2,,,,,,,,,,,,,,,,,,,,,,,,,,,,,,,,,,,,,,,,,,,,,,,,,,,,,,,,,,,,,,,,,,,,,,,,,,,,,,,,,,,,,,,,,,,,,,,,,,,
,,,,,,,,,,stimuli/images/PICTURE_491.png,SERIES,5e8b5bd1ac48b2027b9f76e8,11/04/1999,2020-08-13_12h52.50.810,proactive2,2020.1.2,MacIntel,60,5f341be081b9052c55068110,5f3528d30d301447d9448383,6,,,,,,rug,,,,,,0,47,47,39,1,4,2,,,,,,,,,,,,,,,,,,,,,,,,,,,,,,,,,,,,,,,,,,,,,,,,,,,,,,,,,,,,,,,,,,,,,,,,,,,,,,,,,,,,,,,,,,,,,,,,,,,
,,,,,,,,,,stimuli/images/PICTURE_160.png,HOTEL,5e8b5bd1ac48b2027b9f76e8,11/04/1999,2020-08-13_12h52.50.810,proactive2,2020.1.2,MacIntel,60,5f341be081b9052c55068110,5f3528d30d301447d9448383,6,,,,,,wheelbarrow,,,,,,0,48,48,16,1,2,2,,,,,,,,,,,,,,,,,,,,,,,,,,,,,,,,,,,,,,,,,,,,,,,,,,,,,,,,,,,,,,,,,,,,,,,,,,,,,,,,,,,,,,,,,,,,,,,,,,,
,,,,,,,,,,stimuli/images/PICTURE_509.png,APPLE,5e8b5bd1ac48b2027b9f76e8,11/04/1999,2020-08-13_12h52.50.810,proactive2,2020.1.2,MacIntel,60,5f341be081b9052c55068110,5f3528d30d301447d9448383,6,,,,,,telephone,,,,,,0,49,49,38,1,4,2,,,,,,,,,,,,,,,,,,,,,,,,,,,,,,,,,,,,,,,,,,,,,,,,,,,,,,,,,,,,,,,,,,,,,,,,,,,,,,,,,,,,,,,,,,,,,,,,,,,
,,,,,,,,,,stimuli/images/PICTURE_470.png,MOMENT,5e8b5bd1ac48b2027b9f76e8,11/04/1999,2020-08-13_12h52.50.810,proactive2,2020.1.2,MacIntel,60,5f341be081b9052c55068110,5f3528d30d301447d9448383,6,,,,,,motorbike,,,,,,0,50,50,40,1,5,2,,,,,,,,,,,,,,,,,,,,,,,,,,,,,,,,,,,,,,,,,,,,,,,,,,,,,,,,,,,,,,,,,,,,,,,,,,,,,,,,,,,,,,,,,,,,,,,,,,,
,,,,,,,,,,stimuli/images/PICTURE_314.png,SPEECH,5e8b5bd1ac48b2027b9f76e8,11/04/1999,2020-08-13_12h52.50.810,proactive2,2020.1.2,MacIntel,60,5f341be081b9052c55068110,5f3528d30d301447d9448383,6,,,,,,perfume,,,,,,0,51,51,35,1,4,2,,,,,,,,,,,,,,,,,,,,,,,,,,,,,,,,,,,,,,,,,,,,,,,,,,,,,,,,,,,,,,,,,,,,,,,,,,,,,,,,,,,,,,,,,,,,,,,,,,,
,,,,,,,,,,stimuli/images/PICTURE_57.png,NATION,5e8b5bd1ac48b2027b9f76e8,11/04/1999,2020-08-13_12h52.50.810,proactive2,2020.1.2,MacIntel,60,5f341be081b9052c55068110,5f3528d30d301447d9448383,6,,,,,,stamp,,,,,,0,52,52,21,1,3,2,,,,,,,,,,,,,,,,,,,,,,,,,,,,,,,,,,,,,,,,,,,,,,,,,,,,,,,,,,,,,,,,,,,,,,,,,,,,,,,,,,,,,,,,,,,,,,,,,,,
,,,,,,,,,,stimuli/images/PICTURE_2.png,AREA,5e8b5bd1ac48b2027b9f76e8,11/04/1999,2020-08-13_12h52.50.810,proactive2,2020.1.2,MacIntel,60,5f341be081b9052c55068110,5f3528d30d301447d9448383,6,,,,,,tyre,,,,,,0,53,53,32,1,4,2,,,,,,,,,,,,,,,,,,,,,,,,,,,,,,,,,,,,,,,,,,,,,,,,,,,,,,,,,,,,,,,,,,,,,,,,,,,,,,,,,,,,,,,,,,,,,,,,,,,
,,,,,,,,,,stimuli/images/PICTURE_215.png,BOYS,5e8b5bd1ac48b2027b9f76e8,11/04/1999,2020-08-13_12h52.50.810,proactive2,2020.1.2,MacIntel,60,5f341be081b9052c55068110,5f3528d30d301447d9448383,6,,,,,,boot,,,,,,0,54,54,24,1,3,2,,,,,,,,,,,,,,,,,,,,,,,,,,,,,,,,,,,,,,,,,,,,,,,,,,,,,,,,,,,,,,,,,,,,,,,,,,,,,,,,,,,,,,,,,,,,,,,,,,,
,,,,,,,,,,stimuli/images/PICTURE_405.png,JUNGLE,5e8b5bd1ac48b2027b9f76e8,11/04/1999,2020-08-13_12h52.50.810,proactive2,2020.1.2,MacIntel,60,5f341be081b9052c55068110,5f3528d30d301447d9448383,6,,,,,,anchor,,,,,,0,55,55,13,1,2,2,,,,,,,,,,,,,,,,,,,,,,,,,,,,,,,,,,,,,,,,,,,,,,,,,,,,,,,,,,,,,,,,,,,,,,,,,,,,,,,,,,,,,,,,,,,,,,,,,,,
,,,,,,,,,,stimuli/images/PICTURE_692.png,DUDE,5e8b5bd1ac48b2027b9f76e8,11/04/1999,2020-08-13_12h52.50.810,proactive2,2020.1.2,MacIntel,60,5f341be081b9052c55068110,5f3528d30d301447d9448383,6,,,,,,cherry,,,,,,0,56,56,47,1,5,2,,,,,,,,,,,,,,,,,,,,,,,,,,,,,,,,,,,,,,,,,,,,,,,,,,,,,,,,,,,,,,,,,,,,,,,,,,,,,,,,,,,,,,,,,,,,,,,,,,,
,,,,,,,,,,stimuli/images/PICTURE_654.png,YEAR,5e8b5bd1ac48b2027b9f76e8,11/04/1999,2020-08-13_12h52.50.810,proactive2,2020.1.2,MacIntel,60,5f341be081b9052c55068110,5f3528d30d301447d9448383,6,,,,,,pencil,,,,,,0,57,57,41,1,5,2,,,,,,,,,,,,,,,,,,,,,,,,,,,,,,,,,,,,,,,,,,,,,,,,,,,,,,,,,,,,,,,,,,,,,,,,,,,,,,,,,,,,,,,,,,,,,,,,,,,
,,,,,,,,,,stimuli/images/PICTURE_405.png,JUNGLE,5e8b5bd1ac48b2027b9f76e8,11/04/1999,2020-08-13_12h52.50.810,proactive2,2020.1.2,MacIntel,60,5f341be081b9052c55068110,5f3528d30d301447d9448383,6,,,,,,anchor,,,,,,0,58,58,58,1,6,2,,,,,,,,,,,,,,,,,,,,,,,,,,,,,,,,,,,,,,,,,,,,,,,,,,,,,,,,,,,,,,,,,,,,,,,,,,,,,,,,,,,,,,,,,,,,,,,,,,,
,,?,0.002,0,,,,,,stimuli/images/PICTURE_509.png,SHOTS,5e8b5bd1ac48b2027b9f76e8,11/04/1999,2020-08-13_12h52.50.810,proactive2,2020.1.2,MacIntel,60,5f341be081b9052c55068110,5f3528d30d301447d9448383,6,,,,,,telephone,,,,,,,,,,,1,2,0,0,0,7,1,,,,,,,,,,,,,,,,,,,,,,,,,,,,,,,,,,,,,,,,,,,,,,,,,,,,,,,,,,,,,,,,,,,,,,,,,,,,,,,,,,,,,,,,,,,,,,
,,?,0.001,0,,,,,,stimuli/images/PICTURE_93.png,GIRL,5e8b5bd1ac48b2027b9f76e8,11/04/1999,2020-08-13_12h52.50.810,proactive2,2020.1.2,MacIntel,60,5f341be081b9052c55068110,5f3528d30d301447d9448383,6,,,,,,skateboard,,,,,,,,,,,4,2,0,1,1,31,1,,,,,,,,,,,,,,,,,,,,,,,,,,,,,,,,,,,,,,,,,,,,,,,,,,,,,,,,,,,,,,,,,,,,,,,,,,,,,,,,,,,,,,,,,,,,,,
,,?,0.001,0,,,,,,stimuli/images/PICTURE_509.png,BATH,5e8b5bd1ac48b2027b9f76e8,11/04/1999,2020-08-13_12h52.50.810,proactive2,2020.1.2,MacIntel,60,5f341be081b9052c55068110,5f3528d30d301447d9448383,6,,,,,,telephone,,,,,,,,,,,2,2,0,2,2,15,1,,,,,,,,,,,,,,,,,,,,,,,,,,,,,,,,,,,,,,,,,,,,,,,,,,,,,,,,,,,,,,,,,,,,,,,,,,,,,,,,,,,,,,,,,,,,,,
,,?,0.001,0,,,,,,stimuli/images/PICTURE_504.png,HOUSE,5e8b5bd1ac48b2027b9f76e8,11/04/1999,2020-08-13_12h52.50.810,proactive2,2020.1.2,MacIntel,60,5f341be081b9052c55068110,5f3528d30d301447d9448383,6,,,,,,wheel,,,,,,,,,,,4,2,0,3,3,36,1,,,,,,,,,,,,,,,,,,,,,,,,,,,,,,,,,,,,,,,,,,,,,,,,,,,,,,,,,,,,,,,,,,,,,,,,,,,,,,,,,,,,,,,,,,,,,,
,,?,0.001,0,,,,,,stimuli/images/PICTURE_311.png,FLESH,5e8b5bd1ac48b2027b9f76e8,11/04/1999,2020-08-13_12h52.50.810,proactive2,2020.1.2,MacIntel,60,5f341be081b9052c55068110,5f3528d30d301447d9448383,6,,,,,,razor,,,,,,,,,,,1,2,0,4,4,3,1,,,,,,,,,,,,,,,,,,,,,,,,,,,,,,,,,,,,,,,,,,,,,,,,,,,,,,,,,,,,,,,,,,,,,,,,,,,,,,,,,,,,,,,,,,,,,,
,,?,0.001,0,,,,,,stimuli/images/PICTURE_403.png,FAMILY,5e8b5bd1ac48b2027b9f76e8,11/04/1999,2020-08-13_12h52.50.810,proactive2,2020.1.2,MacIntel,60,5f341be081b9052c55068110,5f3528d30d301447d9448383,6,,,,,,cathedral,,,,,,,,,,,1,2,0,5,5,9,1,,,,,,,,,,,,,,,,,,,,,,,,,,,,,,,,,,,,,,,,,,,,,,,,,,,,,,,,,,,,,,,,,,,,,,,,,,,,,,,,,,,,,,,,,,,,,,
,,?,0,0,,,,,,stimuli/images/PICTURE_95.png,NIGHT,5e8b5bd1ac48b2027b9f76e8,11/04/1999,2020-08-13_12h52.50.810,proactive2,2020.1.2,MacIntel,60,5f341be081b9052c55068110,5f3528d30d301447d9448383,6,,,,,,suitcase,,,,,,,,,,,4,2,0,6,6,37,1,,,,,,,,,,,,,,,,,,,,,,,,,,,,,,,,,,,,,,,,,,,,,,,,,,,,,,,,,,,,,,,,,,,,,,,,,,,,,,,,,,,,,,,,,,,,,,
,,CANDY,5.733,1,,,,,,stimuli/images/PICTURE_57.png,CANDY,5e8b5bd1ac48b2027b9f76e8,11/04/1999,2020-08-13_12h52.50.810,proactive2,2020.1.2,MacIntel,60,5f341be081b9052c55068110,5f3528d30d301447d9448383,6,,,,,,stamp,,,,,,,,,,,6,2,0,7,7,52,1,,,,,,,,,,,,,,,,,,,,,,,,,,,,,,,,,,,,,,,,,,,,,,,,,,,,,,,,,,,,,,,,,,,,,,,,,,,,,,,,,,,,,,,,,,,,,,
,,?,0.002,0,,,,,,stimuli/images/PICTURE_750.png,POLICY,5e8b5bd1ac48b2027b9f76e8,11/04/1999,2020-08-13_12h52.50.810,proactive2,2020.1.2,MacIntel,60,5f341be081b9052c55068110,5f3528d30d301447d9448383,6,,,,,,kettle,,,,,,,,,,,5,2,0,8,8,44,1,,,,,,,,,,,,,,,,,,,,,,,,,,,,,,,,,,,,,,,,,,,,,,,,,,,,,,,,,,,,,,,,,,,,,,,,,,,,,,,,,,,,,,,,,,,,,,
,,?,0.001,0,,,,,,stimuli/images/PICTURE_123.png,SALE,5e8b5bd1ac48b2027b9f76e8,11/04/1999,2020-08-13_12h52.50.810,proactive2,2020.1.2,MacIntel,60,5f341be081b9052c55068110,5f3528d30d301447d9448383,6,,,,,,dart,,,,,,,,,,,1,2,0,9,9,8,1,,,,,,,,,,,,,,,,,,,,,,,,,,,,,,,,,,,,,,,,,,,,,,,,,,,,,,,,,,,,,,,,,,,,,,,,,,,,,,,,,,,,,,,,,,,,,,
,,?,0.001,0,,,,,,stimuli/images/PICTURE_654.png,COPS,5e8b5bd1ac48b2027b9f76e8,11/04/1999,2020-08-13_12h52.50.810,proactive2,2020.1.2,MacIntel,60,5f341be081b9052c55068110,5f3528d30d301447d9448383,6,,,,,,pencil,,,,,,,,,,,2,2,0,10,10,10,1,,,,,,,,,,,,,,,,,,,,,,,,,,,,,,,,,,,,,,,,,,,,,,,,,,,,,,,,,,,,,,,,,,,,,,,,,,,,,,,,,,,,,,,,,,,,,,
,,?,0.001,0,,,,,,stimuli/images/PICTURE_215.png,BOYS,5e8b5bd1ac48b2027b9f76e8,11/04/1999,2020-08-13_12h52.50.810,proactive2,2020.1.2,MacIntel,60,5f341be081b9052c55068110,5f3528d30d301447d9448383,6,,,,,,boot,,,,,,,,,,,3,2,0,11,11,24,1,,,,,,,,,,,,,,,,,,,,,,,,,,,,,,,,,,,,,,,,,,,,,,,,,,,,,,,,,,,,,,,,,,,,,,,,,,,,,,,,,,,,,,,,,,,,,,
,,?,0.001,0,,,,,,stimuli/images/PICTURE_285.png,WRITER,5e8b5bd1ac48b2027b9f76e8,11/04/1999,2020-08-13_12h52.50.810,proactive2,2020.1.2,MacIntel,60,5f341be081b9052c55068110,5f3528d30d301447d9448383,6,,,,,,carrot,,,,,,,,,,,1,2,0,12,12,6,1,,,,,,,,,,,,,,,,,,,,,,,,,,,,,,,,,,,,,,,,,,,,,,,,,,,,,,,,,,,,,,,,,,,,,,,,,,,,,,,,,,,,,,,,,,,,,,
,,DUDE,2.522,1,,,,,,stimuli/images/PICTURE_348.png,DUDE,5e8b5bd1ac48b2027b9f76e8,11/04/1999,2020-08-13_12h52.50.810,proactive2,2020.1.2,MacIntel,60,5f341be081b9052c55068110,5f3528d30d301447d9448383,6,,,,,,pepper,,,,,,,,,,,6,2,0,13,13,59,1,,,,,,,,,,,,,,,,,,,,,,,,,,,,,,,,,,,,,,,,,,,,,,,,,,,,,,,,,,,,,,,,,,,,,,,,,,,,,,,,,,,,,,,,,,,,,,
,,FAMILY,3.084,1,,,,,,stimuli/images/PICTURE_677.png,FAMILY,5e8b5bd1ac48b2027b9f76e8,11/04/1999,2020-08-13_12h52.50.810,proactive2,2020.1.2,MacIntel,60,5f341be081b9052c55068110,5f3528d30d301447d9448383,6,,,,,,map,,,,,,,,,,,6,2,0,14,14,53,1,,,,,,,,,,,,,,,,,,,,,,,,,,,,,,,,,,,,,,,,,,,,,,,,,,,,,,,,,,,,,,,,,,,,,,,,,,,,,,,,,,,,,,,,,,,,,,
,,?,0.001,0,,,,,,stimuli/images/PICTURE_255.png,PENNY,5e8b5bd1ac48b2027b9f76e8,11/04/1999,2020-08-13_12h52.50.810,proactive2,2020.1.2,MacIntel,60,5f341be081b9052c55068110,5f3528d30d301447d9448383,6,,,,,,shovel,,,,,,,,,,,2,2,0,15,15,19,1,,,,,,,,,,,,,,,,,,,,,,,,,,,,,,,,,,,,,,,,,,,,,,,,,,,,,,,,,,,,,,,,,,,,,,,,,,,,,,,,,,,,,,,,,,,,,,
,,?,0.001,0,,,,,,stimuli/images/PICTURE_470.png,MOMENT,5e8b5bd1ac48b2027b9f76e8,11/04/1999,2020-08-13_12h52.50.810,proactive2,2020.1.2,MacIntel,60,5f341be081b9052c55068110,5f3528d30d301447d9448383,6,,,,,,motorbike,,,,,,,,,,,5,2,0,16,16,40,1,,,,,,,,,,,,,,,,,,,,,,,,,,,,,,,,,,,,,,,,,,,,,,,,,,,,,,,,,,,,,,,,,,,,,,,,,,,,,,,,,,,,,,,,,,,,,,
,,TOILET,2.379,1,,,,,,stimuli/images/PICTURE_311.png,TOILET,5e8b5bd1ac48b2027b9f76e8,11/04/1999,2020-08-13_12h52.50.810,proactive2,2020.1.2,MacIntel,60,5f341be081b9052c55068110,5f3528d30d301447d9448383,6,,,,,,razor,,,,,,,,,,,6,2,0,17,17,54,1,,,,,,,,,,,,,,,,,,,,,,,,,,,,,,,,,,,,,,,,,,,,,,,,,,,,,,,,,,,,,,,,,,,,,,,,,,,,,,,,,,,,,,,,,,,,,,
,,?,0.002,0,,,,,,stimuli/images/PICTURE_452.png,COPS,5e8b5bd1ac48b2027b9f76e8,11/04/1999,2020-08-13_12h52.50.810,proactive2,2020.1.2,MacIntel,60,5f341be081b9052c55068110,5f3528d30d301447d9448383,6,,,,,,watch,,,,,,,,,,,1,2,0,18,18,0,1,,,,,,,,,,,,,,,,,,,,,,,,,,,,,,,,,,,,,,,,,,,,,,,,,,,,,,,,,,,,,,,,,,,,,,,,,,,,,,,,,,,,,,,,,,,,,,
,,?,0.001,0,,,,,,stimuli/images/PICTURE_667.png,GLASS,5e8b5bd1ac48b2027b9f76e8,11/04/1999,2020-08-13_12h52.50.810,proactive2,2020.1.2,MacIntel,60,5f341be081b9052c55068110,5f3528d30d301447d9448383,6,,,,,,daisy,,,,,,,,,,,3,2,0,19,19,27,1,,,,,,,,,,,,,,,,,,,,,,,,,,,,,,,,,,,,,,,,,,,,,,,,,,,,,,,,,,,,,,,,,,,,,,,,,,,,,,,,,,,,,,,,,,,,,,
,,?,0.001,0,,,,,,stimuli/images/PICTURE_470.png,BEAUTY,5e8b5bd1ac48b2027b9f76e8,11/04/1999,2020-08-13_12h52.50.810,proactive2,2020.1.2,MacIntel,60,5f341be081b9052c55068110,5f3528d30d301447d9448383,6,,,,,,motorbike,,,,,,,,,,,3,2,0,20,20,26,1,,,,,,,,,,,,,,,,,,,,,,,,,,,,,,,,,,,,,,,,,,,,,,,,,,,,,,,,,,,,,,,,,,,,,,,,,,,,,,,,,,,,,,,,,,,,,,
,,?,0.001,0,,,,,,stimuli/images/PICTURE_708.png,VALLEY,5e8b5bd1ac48b2027b9f76e8,11/04/1999,2020-08-13_12h52.50.810,proactive2,2020.1.2,MacIntel,60,5f341be081b9052c55068110,5f3528d30d301447d9448383,6,,,,,,monkey,,,,,,,,,,,5,2,0,21,21,45,1,,,,,,,,,,,,,,,,,,,,,,,,,,,,,,,,,,,,,,,,,,,,,,,,,,,,,,,,,,,,,,,,,,,,,,,,,,,,,,,,,,,,,,,,,,,,,,
,,?,0.001,0,,,,,,stimuli/images/PICTURE_68.png,KIND,5e8b5bd1ac48b2027b9f76e8,11/04/1999,2020-08-13_12h52.50.810,proactive2,2020.1.2,MacIntel,60,5f341be081b9052c55068110,5f3528d30d301447d9448383,6,,,,,,candle,,,,,,,,,,,3,2,0,22,22,23,1,,,,,,,,,,,,,,,,,,,,,,,,,,,,,,,,,,,,,,,,,,,,,,,,,,,,,,,,,,,,,,,,,,,,,,,,,,,,,,,,,,,,,,,,,,,,,,
,,LETTER,2.49,1,,,,,,stimuli/images/PICTURE_32.png,LETTER,5e8b5bd1ac48b2027b9f76e8,11/04/1999,2020-08-13_12h52.50.810,proactive2,2020.1.2,MacIntel,60,5f341be081b9052c55068110,5f3528d30d301447d9448383,6,,,,,,crown,,,,,,,,,,,6,2,0,23,23,56,1,,,,,,,,,,,,,,,,,,,,,,,,,,,,,,,,,,,,,,,,,,,,,,,,,,,,,,,,,,,,,,,,,,,,,,,,,,,,,,,,,,,,,,,,,,,,,,
,,?,0.001,0,,,,,,stimuli/images/PICTURE_296.png,CLOCK,5e8b5bd1ac48b2027b9f76e8,11/04/1999,2020-08-13_12h52.50.810,proactive2,2020.1.2,MacIntel,60,5f341be081b9052c55068110,5f3528d30d301447d9448383,6,,,,,,bolt,,,,,,,,,,,2,2,0,24,24,18,1,,,,,,,,,,,,,,,,,,,,,,,,,,,,,,,,,,,,,,,,,,,,,,,,,,,,,,,,,,,,,,,,,,,,,,,,,,,,,,,,,,,,,,,,,,,,,,
,,?,0.001,0,,,,,,stimuli/images/PICTURE_215.png,LEADER,5e8b5bd1ac48b2027b9f76e8,11/04/1999,2020-08-13_12h52.50.810,proactive2,2020.1.2,MacIntel,60,5f341be081b9052c55068110,5f3528d30d301447d9448383,6,,,,,,boot,,,,,,,,,,,5,2,0,25,25,43,1,,,,,,,,,,,,,,,,,,,,,,,,,,,,,,,,,,,,,,,,,,,,,,,,,,,,,,,,,,,,,,,,,,,,,,,,,,,,,,,,,,,,,,,,,,,,,,
,,?,0.001,0,,,,,,stimuli/images/PICTURE_160.png,HOTEL,5e8b5bd1ac48b2027b9f76e8,11/04/1999,2020-08-13_12h52.50.810,proactive2,2020.1.2,MacIntel,60,5f341be081b9052c55068110,5f3528d30d301447d9448383,6,,,,,,wheelbarrow,,,,,,,,,,,2,2,0,26,26,16,1,,,,,,,,,,,,,,,,,,,,,,,,,,,,,,,,,,,,,,,,,,,,,,,,,,,,,,,,,,,,,,,,,,,,,,,,,,,,,,,,,,,,,,,,,,,,,,
,,ROOF,1.525,1,,,,,,stimuli/images/PICTURE_487.png,ROOF,5e8b5bd1ac48b2027b9f76e8,11/04/1999,2020-08-13_12h52.50.810,proactive2,2020.1.2,MacIntel,60,5f341be081b9052c55068110,5f3528d30d301447d9448383,6,,,,,,basket,,,,,,,,,,,6,2,0,27,27,50,1,,,,,,,,,,,,,,,,,,,,,,,,,,,,,,,,,,,,,,,,,,,,,,,,,,,,,,,,,,,,,,,,,,,,,,,,,,,,,,,,,,,,,,,,,,,,,,
,,?,0.001,0,,,,,,stimuli/images/PICTURE_405.png,HOUSE,5e8b5bd1ac48b2027b9f76e8,11/04/1999,2020-08-13_12h52.50.810,proactive2,2020.1.2,MacIntel,60,5f341be081b9052c55068110,5f3528d30d301447d9448383,6,,,,,,anchor,,,,,,,,,,,1,2,0,28,28,2,1,,,,,,,,,,,,,,,,,,,,,,,,,,,,,,,,,,,,,,,,,,,,,,,,,,,,,,,,,,,,,,,,,,,,,,,,,,,,,,,,,,,,,,,,,,,,,,
,,?,0.001,0,,,,,,stimuli/images/PICTURE_356.png,CANDY,5e8b5bd1ac48b2027b9f76e8,11/04/1999,2020-08-13_12h52.50.810,proactive2,2020.1.2,MacIntel,60,5f341be081b9052c55068110,5f3528d30d301447d9448383,6,,,,,,pawn,,,,,,,,,,,5,2,0,29,29,46,1,,,,,,,,,,,,,,,,,,,,,,,,,,,,,,,,,,,,,,,,,,,,,,,,,,,,,,,,,,,,,,,,,,,,,,,,,,,,,,,,,,,,,,,,,,,,,,
,,SALE,2.046,1,,,,,,stimuli/images/PICTURE_655.png,SALE,5e8b5bd1ac48b2027b9f76e8,11/04/1999,2020-08-13_12h52.50.810,proactive2,2020.1.2,MacIntel,60,5f341be081b9052c55068110,5f3528d30d301447d9448383,6,,,,,,megaphone,,,,,,,,,,,6,2,0,30,30,57,1,,,,,,,,,,,,,,,,,,,,,,,,,,,,,,,,,,,,,,,,,,,,,,,,,,,,,,,,,,,,,,,,,,,,,,,,,,,,,,,,,,,,,,,,,,,,,,
,,?,0.001,0,,,,,,stimuli/images/PICTURE_177.png,HOUSE,5e8b5bd1ac48b2027b9f76e8,11/04/1999,2020-08-13_12h52.50.810,proactive2,2020.1.2,MacIntel,60,5f341be081b9052c55068110,5f3528d30d301447d9448383,6,,,,,,mushroom,,,,,,,,,,,3,2,0,31,31,25,1,,,,,,,,,,,,,,,,,,,,,,,,,,,,,,,,,,,,,,,,,,,,,,,,,,,,,,,,,,,,,,,,,,,,,,,,,,,,,,,,,,,,,,,,,,,,,,
,,JUNGLE,2.281,1,,,,,,stimuli/images/PICTURE_405.png,JUNGLE,5e8b5bd1ac48b2027b9f76e8,11/04/1999,2020-08-13_12h52.50.810,proactive2,2020.1.2,MacIntel,60,5f341be081b9052c55068110,5f3528d30d301447d9448383,6,,,,,,anchor,,,,,,,,,,,6,2,0,32,32,58,1,,,,,,,,,,,,,,,,,,,,,,,,,,,,,,,,,,,,,,,,,,,,,,,,,,,,,,,,,,,,,,,,,,,,,,,,,,,,,,,,,,,,,,,,,,,,,,
,,?,0.001,0,,,,,,stimuli/images/PICTURE_2.png,AREA,5e8b5bd1ac48b2027b9f76e8,11/04/1999,2020-08-13_12h52.50.810,proactive2,2020.1.2,MacIntel,60,5f341be081b9052c55068110,5f3528d30d301447d9448383,6,,,,,,tyre,,,,,,,,,,,4,2,0,33,33,32,1,,,,,,,,,,,,,,,,,,,,,,,,,,,,,,,,,,,,,,,,,,,,,,,,,,,,,,,,,,,,,,,,,,,,,,,,,,,,,,,,,,,,,,,,,,,,,,
,,?,0.001,0,,,,,,stimuli/images/PICTURE_654.png,YEAR,5e8b5bd1ac48b2027b9f76e8,11/04/1999,2020-08-13_12h52.50.810,proactive2,2020.1.2,MacIntel,60,5f341be081b9052c55068110,5f3528d30d301447d9448383,6,,,,,,pencil,,,,,,,,,,,5,2,0,34,34,41,1,,,,,,,,,,,,,,,,,,,,,,,,,,,,,,,,,,,,,,,,,,,,,,,,,,,,,,,,,,,,,,,,,,,,,,,,,,,,,,,,,,,,,,,,,,,,,,
,,?,0.001,0,,,,,,stimuli/images/PICTURE_327.png,LEADER,5e8b5bd1ac48b2027b9f76e8,11/04/1999,2020-08-13_12h52.50.810,proactive2,2020.1.2,MacIntel,60,5f341be081b9052c55068110,5f3528d30d301447d9448383,6,,,,,,helmet,,,,,,,,,,,2,2,0,35,35,17,1,,,,,,,,,,,,,,,,,,,,,,,,,,,,,,,,,,,,,,,,,,,,,,,,,,,,,,,,,,,,,,,,,,,,,,,,,,,,,,,,,,,,,,,,,,,,,,
,,?,0.001,0,,,,,,stimuli/images/PICTURE_215.png,FOOD,5e8b5bd1ac48b2027b9f76e8,11/04/1999,2020-08-13_12h52.50.810,proactive2,2020.1.2,MacIntel,60,5f341be081b9052c55068110,5f3528d30d301447d9448383,6,,,,,,boot,,,,,,,,,,,1,2,0,36,36,5,1,,,,,,,,,,,,,,,,,,,,,,,,,,,,,,,,,,,,,,,,,,,,,,,,,,,,,,,,,,,,,,,,,,,,,,,,,,,,,,,,,,,,,,,,,,,,,,
,,?,0.001,0,,,,,,stimuli/images/PICTURE_57.png,CASINO,5e8b5bd1ac48b2027b9f76e8,11/04/1999,2020-08-13_12h52.50.810,proactive2,2020.1.2,MacIntel,60,5f341be081b9052c55068110,5f3528d30d301447d9448383,6,,,,,,stamp,,,,,,,,,,,2,2,0,37,37,12,1,,,,,,,,,,,,,,,,,,,,,,,,,,,,,,,,,,,,,,,,,,,,,,,,,,,,,,,,,,,,,,,,,,,,,,,,,,,,,,,,,,,,,,,,,,,,,,
,,?,0,0,,,,,,stimuli/images/PICTURE_692.png,DUDE,5e8b5bd1ac48b2027b9f76e8,11/04/1999,2020-08-13_12h52.50.810,proactive2,2020.1.2,MacIntel,60,5f341be081b9052c55068110,5f3528d30d301447d9448383,6,,,,,,cherry,,,,,,,,,,,5,2,0,38,38,47,1,,,,,,,,,,,,,,,,,,,,,,,,,,,,,,,,,,,,,,,,,,,,,,,,,,,,,,,,,,,,,,,,,,,,,,,,,,,,,,,,,,,,,,,,,,,,,,
,,?,0.001,0,,,,,,stimuli/images/PICTURE_688.png,CLOCK,5e8b5bd1ac48b2027b9f76e8,11/04/1999,2020-08-13_12h52.50.810,proactive2,2020.1.2,MacIntel,60,5f341be081b9052c55068110,5f3528d30d301447d9448383,6,,,,,,runner,,,,,,,,,,,5,2,0,39,39,42,1,,,,,,,,,,,,,,,,,,,,,,,,,,,,,,,,,,,,,,,,,,,,,,,,,,,,,,,,,,,,,,,,,,,,,,,,,,,,,,,,,,,,,,,,,,,,,,
,,?,0.001,0,,,,,,stimuli/images/PICTURE_33.png,COPS,5e8b5bd1ac48b2027b9f76e8,11/04/1999,2020-08-13_12h52.50.810,proactive2,2020.1.2,MacIntel,60,5f341be081b9052c55068110,5f3528d30d301447d9448383,6,,,,,,frame,,,,,,,,,,,3,2,0,40,40,29,1,,,,,,,,,,,,,,,,,,,,,,,,,,,,,,,,,,,,,,,,,,,,,,,,,,,,,,,,,,,,,,,,,,,,,,,,,,,,,,,,,,,,,,,,,,,,,,
,,?,0,0,,,,,,stimuli/images/PICTURE_453.png,FAMILY,5e8b5bd1ac48b2027b9f76e8,11/04/1999,2020-08-13_12h52.50.810,proactive2,2020.1.2,MacIntel,60,5f341be081b9052c55068110,5f3528d30d301447d9448383,6,,,,,,scissors,,,,,,,,,,,5,2,0,41,41,48,1,,,,,,,,,,,,,,,,,,,,,,,,,,,,,,,,,,,,,,,,,,,,,,,,,,,,,,,,,,,,,,,,,,,,,,,,,,,,,,,,,,,,,,,,,,,,,,
,,?,0,0,,,,,,stimuli/images/PICTURE_509.png,MILLER,5e8b5bd1ac48b2027b9f76e8,11/04/1999,2020-08-13_12h52.50.810,proactive2,2020.1.2,MacIntel,60,5f341be081b9052c55068110,5f3528d30d301447d9448383,6,,,,,,telephone,,,,,,,,,,,5,2,0,42,42,49,1,,,,,,,,,,,,,,,,,,,,,,,,,,,,,,,,,,,,,,,,,,,,,,,,,,,,,,,,,,,,,,,,,,,,,,,,,,,,,,,,,,,,,,,,,,,,,,
,,?,0,0,,,,,,stimuli/images/PICTURE_487.png,POLICY,5e8b5bd1ac48b2027b9f76e8,11/04/1999,2020-08-13_12h52.50.810,proactive2,2020.1.2,MacIntel,60,5f341be081b9052c55068110,5f3528d30d301447d9448383,6,,,,,,basket,,,,,,,,,,,4,2,0,43,43,34,1,,,,,,,,,,,,,,,,,,,,,,,,,,,,,,,,,,,,,,,,,,,,,,,,,,,,,,,,,,,,,,,,,,,,,,,,,,,,,,,,,,,,,,,,,,,,,,
,,?,0.001,0,,,,,,stimuli/images/PICTURE_208.png,SPIRIT,5e8b5bd1ac48b2027b9f76e8,11/04/1999,2020-08-13_12h52.50.810,proactive2,2020.1.2,MacIntel,60,5f341be081b9052c55068110,5f3528d30d301447d9448383,6,,,,,,microphone,,,,,,,,,,,3,2,0,44,44,28,1,,,,,,,,,,,,,,,,,,,,,,,,,,,,,,,,,,,,,,,,,,,,,,,,,,,,,,,,,,,,,,,,,,,,,,,,,,,,,,,,,,,,,,,,,,,,,,
,,?,0.001,0,,,,,,stimuli/images/PICTURE_677.png,PHOTO,5e8b5bd1ac48b2027b9f76e8,11/04/1999,2020-08-13_12h52.50.810,proactive2,2020.1.2,MacIntel,60,5f341be081b9052c55068110,5f3528d30d301447d9448383,6,,,,,,map,,,,,,,,,,,2,2,0,45,45,14,1,,,,,,,,,,,,,,,,,,,,,,,,,,,,,,,,,,,,,,,,,,,,,,,,,,,,,,,,,,,,,,,,,,,,,,,,,,,,,,,,,,,,,,,,,,,,,,
,,BODY,5.13,1,,,,,,stimuli/images/PICTURE_297.png,BODY,5e8b5bd1ac48b2027b9f76e8,11/04/1999,2020-08-13_12h52.50.810,proactive2,2020.1.2,MacIntel,60,5f341be081b9052c55068110,5f3528d30d301447d9448383,6,,,,,,aeroplane,,,,,,,,,,,6,2,0,46,46,51,1,,,,,,,,,,,,,,,,,,,,,,,,,,,,,,,,,,,,,,,,,,,,,,,,,,,,,,,,,,,,,,,,,,,,,,,,,,,,,,,,,,,,,,,,,,,,,,
,,?,0.001,0,,,,,,stimuli/images/PICTURE_314.png,SPEECH,5e8b5bd1ac48b2027b9f76e8,11/04/1999,2020-08-13_12h52.50.810,proactive2,2020.1.2,MacIntel,60,5f341be081b9052c55068110,5f3528d30d301447d9448383,6,,,,,,perfume,,,,,,,,,,,4,2,0,47,47,35,1,,,,,,,,,,,,,,,,,,,,,,,,,,,,,,,,,,,,,,,,,,,,,,,,,,,,,,,,,,,,,,,,,,,,,,,,,,,,,,,,,,,,,,,,,,,,,,
,,?,0.001,0,,,,,,stimuli/images/PICTURE_509.png,APPLE,5e8b5bd1ac48b2027b9f76e8,11/04/1999,2020-08-13_12h52.50.810,proactive2,2020.1.2,MacIntel,60,5f341be081b9052c55068110,5f3528d30d301447d9448383,6,,,,,,telephone,,,,,,,,,,,4,2,0,48,48,38,1,,,,,,,,,,,,,,,,,,,,,,,,,,,,,,,,,,,,,,,,,,,,,,,,,,,,,,,,,,,,,,,,,,,,,,,,,,,,,,,,,,,,,,,,,,,,,,
,,?,0.002,0,,,,,,stimuli/images/PICTURE_564.png,PLENTY,5e8b5bd1ac48b2027b9f76e8,11/04/1999,2020-08-13_12h52.50.810,proactive2,2020.1.2,MacIntel,60,5f341be081b9052c55068110,5f3528d30d301447d9448383,6,,,,,,spoon,,,,,,,,,,,2,2,0,49,49,11,1,,,,,,,,,,,,,,,,,,,,,,,,,,,,,,,,,,,,,,,,,,,,,,,,,,,,,,,,,,,,,,,,,,,,,,,,,,,,,,,,,,,,,,,,,,,,,,
,,?,0.001,0,,,,,,stimuli/images/PICTURE_141.png,CLIENT,5e8b5bd1ac48b2027b9f76e8,11/04/1999,2020-08-13_12h52.50.810,proactive2,2020.1.2,MacIntel,60,5f341be081b9052c55068110,5f3528d30d301447d9448383,6,,,,,,sunflower,,,,,,,,,,,4,2,0,50,50,30,1,,,,,,,,,,,,,,,,,,,,,,,,,,,,,,,,,,,,,,,,,,,,,,,,,,,,,,,,,,,,,,,,,,,,,,,,,,,,,,,,,,,,,,,,,,,,,,
,,?,0,0,,,,,,stimuli/images/PICTURE_405.png,JUNGLE,5e8b5bd1ac48b2027b9f76e8,11/04/1999,2020-08-13_12h52.50.810,proactive2,2020.1.2,MacIntel,60,5f341be081b9052c55068110,5f3528d30d301447d9448383,6,,,,,,anchor,,,,,,,,,,,2,2,0,51,51,13,1,,,,,,,,,,,,,,,,,,,,,,,,,,,,,,,,,,,,,,,,,,,,,,,,,,,,,,,,,,,,,,,,,,,,,,,,,,,,,,,,,,,,,,,,,,,,,,
,,?,0.001,0,,,,,,stimuli/images/PICTURE_18.png,RIVER,5e8b5bd1ac48b2027b9f76e8,11/04/1999,2020-08-13_12h52.50.810,proactive2,2020.1.2,MacIntel,60,5f341be081b9052c55068110,5f3528d30d301447d9448383,6,,,,,,planet,,,,,,,,,,,3,2,0,52,52,22,1,,,,,,,,,,,,,,,,,,,,,,,,,,,,,,,,,,,,,,,,,,,,,,,,,,,,,,,,,,,,,,,,,,,,,,,,,,,,,,,,,,,,,,,,,,,,,,
,,?,0.001,0,,,,,,stimuli/images/PICTURE_2.png,JUNGLE,5e8b5bd1ac48b2027b9f76e8,11/04/1999,2020-08-13_12h52.50.810,proactive2,2020.1.2,MacIntel,60,5f341be081b9052c55068110,5f3528d30d301447d9448383,6,,,,,,tyre,,,,,,,,,,,1,2,0,53,53,1,1,,,,,,,,,,,,,,,,,,,,,,,,,,,,,,,,,,,,,,,,,,,,,,,,,,,,,,,,,,,,,,,,,,,,,,,,,,,,,,,,,,,,,,,,,,,,,,
,,?,0,0,,,,,,stimuli/images/PICTURE_491.png,SERIES,5e8b5bd1ac48b2027b9f76e8,11/04/1999,2020-08-13_12h52.50.810,proactive2,2020.1.2,MacIntel,60,5f341be081b9052c55068110,5f3528d30d301447d9448383,6,,,,,,rug,,,,,,,,,,,4,2,0,54,54,39,1,,,,,,,,,,,,,,,,,,,,,,,,,,,,,,,,,,,,,,,,,,,,,,,,,,,,,,,,,,,,,,,,,,,,,,,,,,,,,,,,,,,,,,,,,,,,,,
,,?,0.001,0,,,,,,stimuli/images/PICTURE_348.png,TOILET,5e8b5bd1ac48b2027b9f76e8,11/04/1999,2020-08-13_12h52.50.810,proactive2,2020.1.2,MacIntel,60,5f341be081b9052c55068110,5f3528d30d301447d9448383,6,,,,,,pepper,,,,,,,,,,,1,2,0,55,55,4,1,,,,,,,,,,,,,,,,,,,,,,,,,,,,,,,,,,,,,,,,,,,,,,,,,,,,,,,,,,,,,,,,,,,,,,,,,,,,,,,,,,,,,,,,,,,,,,
,,?,0,0,,,,,,stimuli/images/PICTURE_147.png,LEADER,5e8b5bd1ac48b2027b9f76e8,11/04/1999,2020-08-13_12h52.50.810,proactive2,2020.1.2,MacIntel,60,5f341be081b9052c55068110,5f3528d30d301447d9448383,6,,,,,,hanger,,,,,,,,,,,4,2,0,56,56,33,1,,,,,,,,,,,,,,,,,,,,,,,,,,,,,,,,,,,,,,,,,,,,,,,,,,,,,,,,,,,,,,,,,,,,,,,,,,,,,,,,,,,,,,,,,,,,,,
,,YARD,2.699,1,,,,,,stimuli/images/PICTURE_2.png,YARD,5e8b5bd1ac48b2027b9f76e8,11/04/1999,2020-08-13_12h52.50.810,proactive2,2020.1.2,MacIntel,60,5f341be081b9052c55068110,5f3528d30d301447d9448383,6,,,,,,tyre,,,,,,,,,,,6,2,0,57,57,55,1,,,,,,,,,,,,,,,,,,,,,,,,,,,,,,,,,,,,,,,,,,,,,,,,,,,,,,,,,,,,,,,,,,,,,,,,,,,,,,,,,,,,,,,,,,,,,,
,,?,0.001,0,,,,,,stimuli/images/PICTURE_285.png,PRINCE,5e8b5bd1ac48b2027b9f76e8,11/04/1999,2020-08-13_12h52.50.810,proactive2,2020.1.2,MacIntel,60,5f341be081b9052c55068110,5f3528d30d301447d9448383,6,,,,,,carrot,,,,,,,,,,,3,2,0,58,58,20,1,,,,,,,,,,,,,,,,,,,,,,,,,,,,,,,,,,,,,,,,,,,,,,,,,,,,,,,,,,,,,,,,,,,,,,,,,,,,,,,,,,,,,,,,,,,,,,
,,?,0.001,0,,,,,,stimuli/images/PICTURE_57.png,NATION,5e8b5bd1ac48b2027b9f76e8,11/04/1999,2020-08-13_12h52.50.810,proactive2,2020.1.2,MacIntel,60,5f341be081b9052c55068110,5f3528d30d301447d9448383,6,,,,,,stamp,,,,,,,,,,,3,2,0,59,59,21,1,,,,,,,,,,,,,,,,,,,,,,,,,,,,,,,,,,,,,,,,,,,,,,,,,,,,,,,,,,,,,,,,,,,,,,,,,,,,,,,,,,,,,,,,,,,,,,
,,,,,,,,,,,,5e8b5bd1ac48b2027b9f76e8,11/04/1999,2020-08-13_12h52.50.810,proactive2,2020.1.2,MacIntel,60,5f341be081b9052c55068110,5f3528d30d301447d9448383,6,,,,,,,,,,,,,,,,,,,,,,,,0,1,1,2,1,stimuli/learn-block3.csv,,,,,,,,,,,,,,,,,,,,,,,,,,,,,,,,,,,,,,,,,,,,,,,,,,,,,,,,,,,,,,,,,,,,,,,,,,,,,,,,,,,,,,,,
,,,,,,,,,,stimuli/images/PICTURE_95.png,STYLE,5e8b5bd1ac48b2027b9f76e8,11/04/1999,2020-08-13_12h52.50.810,proactive2,2020.1.2,MacIntel,60,5f341be081b9052c55068110,5f3528d30d301447d9448383,6,,,,,,suitcase,,,,,,0,0,0,25,1,3,0,,,,,,,,,,,,,,,,,,,,,,,,,,,,,,,,,,,,,,,,,,,,,,,,,,,,,,,,,,,,,,,,,,,,,,,,,,,,,,,,,,,,,,,,,,,,,,,,,,,
,,,,,,,,,,stimuli/images/PICTURE_208.png,LOTS,5e8b5bd1ac48b2027b9f76e8,11/04/1999,2020-08-13_12h52.50.810,proactive2,2020.1.2,MacIntel,60,5f341be081b9052c55068110,5f3528d30d301447d9448383,6,,,,,,microphone,,,,,,0,1,1,10,1,2,0,,,,,,,,,,,,,,,,,,,,,,,,,,,,,,,,,,,,,,,,,,,,,,,,,,,,,,,,,,,,,,,,,,,,,,,,,,,,,,,,,,,,,,,,,,,,,,,,,,,
,,,,,,,,,,stimuli/images/PICTURE_675.png,WEAPON,5e8b5bd1ac48b2027b9f76e8,11/04/1999,2020-08-13_12h52.50.810,proactive2,2020.1.2,MacIntel,60,5f341be081b9052c55068110,5f3528d30d301447d9448383,6,,,,,,windmill,,,,,,0,2,2,32,1,4,0,,,,,,,,,,,,,,,,,,,,,,,,,,,,,,,,,,,,,,,,,,,,,,,,,,,,,,,,,,,,,,,,,,,,,,,,,,,,,,,,,,,,,,,,,,,,,,,,,,,
,,,,,,,,,,stimuli/images/PICTURE_677.png,MILE,5e8b5bd1ac48b2027b9f76e8,11/04/1999,2020-08-13_12h52.50.810,proactive2,2020.1.2,MacIntel,60,5f341be081b9052c55068110,5f3528d30d301447d9448383,6,,,,,,map,,,,,,0,3,3,30,1,4,0,,,,,,,,,,,,,,,,,,,,,,,,,,,,,,,,,,,,,,,,,,,,,,,,,,,,,,,,,,,,,,,,,,,,,,,,,,,,,,,,,,,,,,,,,,,,,,,,,,,
,,,,,,,,,,stimuli/images/PICTURE_147.png,MOMENT,5e8b5bd1ac48b2027b9f76e8,11/04/1999,2020-08-13_12h52.50.810,proactive2,2020.1.2,MacIntel,60,5f341be081b9052c55068110,5f3528d30d301447d9448383,6,,,,,,hanger,,,,,,0,4,4,51,1,6,0,,,,,,,,,,,,,,,,,,,,,,,,,,,,,,,,,,,,,,,,,,,,,,,,,,,,,,,,,,,,,,,,,,,,,,,,,,,,,,,,,,,,,,,,,,,,,,,,,,,
,,,,,,,,,,stimuli/images/PICTURE_453.png,DUDE,5e8b5bd1ac48b2027b9f76e8,11/04/1999,2020-08-13_12h52.50.810,proactive2,2020.1.2,MacIntel,60,5f341be081b9052c55068110,5f3528d30d301447d9448383,6,,,,,,scissors,,,,,,0,5,5,27,1,3,0,,,,,,,,,,,,,,,,,,,,,,,,,,,,,,,,,,,,,,,,,,,,,,,,,,,,,,,,,,,,,,,,,,,,,,,,,,,,,,,,,,,,,,,,,,,,,,,,,,,
,,,,,,,,,,stimuli/images/PICTURE_285.png,ADVICE,5e8b5bd1ac48b2027b9f76e8,11/04/1999,2020-08-13_12h52.50.810,proactive2,2020.1.2,MacIntel,60,5f341be081b9052c55068110,5f3528d30d301447d9448383,6,,,,,,carrot,,,,,,0,6,6,12,1,2,0,,,,,,,,,,,,,,,,,,,,,,,,,,,,,,,,,,,,,,,,,,,,,,,,,,,,,,,,,,,,,,,,,,,,,,,,,,,,,,,,,,,,,,,,,,,,,,,,,,,
,,,,,,,,,,stimuli/images/PICTURE_308.png,KIND,5e8b5bd1ac48b2027b9f76e8,11/04/1999,2020-08-13_12h52.50.810,proactive2,2020.1.2,MacIntel,60,5f341be081b9052c55068110,5f3528d30d301447d9448383,6,,,,,,dice,,,,,,0,7,7,54,1,6,0,,,,,,,,,,,,,,,,,,,,,,,,,,,,,,,,,,,,,,,,,,,,,,,,,,,,,,,,,,,,,,,,,,,,,,,,,,,,,,,,,,,,,,,,,,,,,,,,,,,
,,,,,,,,,,stimuli/images/PICTURE_708.png,CLIENT,5e8b5bd1ac48b2027b9f76e8,11/04/1999,2020-08-13_12h52.50.810,proactive2,2020.1.2,MacIntel,60,5f341be081b9052c55068110,5f3528d30d301447d9448383,6,,,,,,monkey,,,,,,0,8,8,5,1,1,0,,,,,,,,,,,,,,,,,,,,,,,,,,,,,,,,,,,,,,,,,,,,,,,,,,,,,,,,,,,,,,,,,,,,,,,,,,,,,,,,,,,,,,,,,,,,,,,,,,,
,,,,,,,,,,stimuli/images/PICTURE_469.png,ARTIST,5e8b5bd1ac48b2027b9f76e8,11/04/1999,2020-08-13_12h52.50.810,proactive2,2020.1.2,MacIntel,60,5f341be081b9052c55068110,5f3528d30d301447d9448383,6,,,,,,stool,,,,,,0,9,9,6,1,1,0,,,,,,,,,,,,,,,,,,,,,,,,,,,,,,,,,,,,,,,,,,,,,,,,,,,,,,,,,,,,,,,,,,,,,,,,,,,,,,,,,,,,,,,,,,,,,,,,,,,
,,,,,,,,,,stimuli/images/PICTURE_314.png,GODS,5e8b5bd1ac48b2027b9f76e8,11/04/1999,2020-08-13_12h52.50.810,proactive2,2020.1.2,MacIntel,60,5f341be081b9052c55068110,5f3528d30d301447d9448383,6,,,,,,perfume,,,,,,0,10,10,11,1,2,0,,,,,,,,,,,,,,,,,,,,,,,,,,,,,,,,,,,,,,,,,,,,,,,,,,,,,,,,,,,,,,,,,,,,,,,,,,,,,,,,,,,,,,,,,,,,,,,,,,,
,,,,,,,,,,stimuli/images/PICTURE_688.png,WOMEN,5e8b5bd1ac48b2027b9f76e8,11/04/1999,2020-08-13_12h52.50.810,proactive2,2020.1.2,MacIntel,60,5f341be081b9052c55068110,5f3528d30d301447d9448383,6,,,,,,runner,,,,,,0,11,11,14,1,2,0,,,,,,,,,,,,,,,,,,,,,,,,,,,,,,,,,,,,,,,,,,,,,,,,,,,,,,,,,,,,,,,,,,,,,,,,,,,,,,,,,,,,,,,,,,,,,,,,,,,
,,,,,,,,,,stimuli/images/PICTURE_314.png,SAKE,5e8b5bd1ac48b2027b9f76e8,11/04/1999,2020-08-13_12h52.50.810,proactive2,2020.1.2,MacIntel,60,5f341be081b9052c55068110,5f3528d30d301447d9448383,6,,,,,,perfume,,,,,,0,12,12,7,1,1,0,,,,,,,,,,,,,,,,,,,,,,,,,,,,,,,,,,,,,,,,,,,,,,,,,,,,,,,,,,,,,,,,,,,,,,,,,,,,,,,,,,,,,,,,,,,,,,,,,,,
,,,,,,,,,,stimuli/images/PICTURE_311.png,FRIEND,5e8b5bd1ac48b2027b9f76e8,11/04/1999,2020-08-13_12h52.50.810,proactive2,2020.1.2,MacIntel,60,5f341be081b9052c55068110,5f3528d30d301447d9448383,6,,,,,,razor,,,,,,0,13,13,34,1,4,0,,,,,,,,,,,,,,,,,,,,,,,,,,,,,,,,,,,,,,,,,,,,,,,,,,,,,,,,,,,,,,,,,,,,,,,,,,,,,,,,,,,,,,,,,,,,,,,,,,,
,,,,,,,,,,stimuli/images/PICTURE_302.png,FAMILY,5e8b5bd1ac48b2027b9f76e8,11/04/1999,2020-08-13_12h52.50.810,proactive2,2020.1.2,MacIntel,60,5f341be081b9052c55068110,5f3528d30d301447d9448383,6,,,,,,taxi,,,,,,0,14,14,18,1,2,0,,,,,,,,,,,,,,,,,,,,,,,,,,,,,,,,,,,,,,,,,,,,,,,,,,,,,,,,,,,,,,,,,,,,,,,,,,,,,,,,,,,,,,,,,,,,,,,,,,,
,,,,,,,,,,stimuli/images/PICTURE_215.png,PLENTY,5e8b5bd1ac48b2027b9f76e8,11/04/1999,2020-08-13_12h52.50.810,proactive2,2020.1.2,MacIntel,60,5f341be081b9052c55068110,5f3528d30d301447d9448383,6,,,,,,boot,,,,,,0,15,15,37,1,4,0,,,,,,,,,,,,,,,,,,,,,,,,,,,,,,,,,,,,,,,,,,,,,,,,,,,,,,,,,,,,,,,,,,,,,,,,,,,,,,,,,,,,,,,,,,,,,,,,,,,
,,,,,,,,,,stimuli/images/PICTURE_449.png,THING,5e8b5bd1ac48b2027b9f76e8,11/04/1999,2020-08-13_12h52.50.810,proactive2,2020.1.2,MacIntel,60,5f341be081b9052c55068110,5f3528d30d301447d9448383,6,,,,,,bench,,,,,,0,16,16,59,1,6,0,,,,,,,,,,,,,,,,,,,,,,,,,,,,,,,,,,,,,,,,,,,,,,,,,,,,,,,,,,,,,,,,,,,,,,,,,,,,,,,,,,,,,,,,,,,,,,,,,,,
,,,,,,,,,,stimuli/images/PICTURE_504.png,BODY,5e8b5bd1ac48b2027b9f76e8,11/04/1999,2020-08-13_12h52.50.810,proactive2,2020.1.2,MacIntel,60,5f341be081b9052c55068110,5f3528d30d301447d9448383,6,,,,,,wheel,,,,,,0,17,17,8,1,1,0,,,,,,,,,,,,,,,,,,,,,,,,,,,,,,,,,,,,,,,,,,,,,,,,,,,,,,,,,,,,,,,,,,,,,,,,,,,,,,,,,,,,,,,,,,,,,,,,,,,
,,,,,,,,,,stimuli/images/PICTURE_667.png,PLENTY,5e8b5bd1ac48b2027b9f76e8,11/04/1999,2020-08-13_12h52.50.810,proactive2,2020.1.2,MacIntel,60,5f341be081b9052c55068110,5f3528d30d301447d9448383,6,,,,,,daisy,,,,,,0,18,18,41,1,5,0,,,,,,,,,,,,,,,,,,,,,,,,,,,,,,,,,,,,,,,,,,,,,,,,,,,,,,,,,,,,,,,,,,,,,,,,,,,,,,,,,,,,,,,,,,,,,,,,,,,
,,,,,,,,,,stimuli/images/PICTURE_380.png,DEATH,5e8b5bd1ac48b2027b9f76e8,11/04/1999,2020-08-13_12h52.50.810,proactive2,2020.1.2,MacIntel,60,5f341be081b9052c55068110,5f3528d30d301447d9448383,6,,,,,,gorilla,,,,,,0,19,19,49,1,5,0,,,,,,,,,,,,,,,,,,,,,,,,,,,,,,,,,,,,,,,,,,,,,,,,,,,,,,,,,,,,,,,,,,,,,,,,,,,,,,,,,,,,,,,,,,,,,,,,,,,
,,,,,,,,,,stimuli/images/PICTURE_469.png,LETTER,5e8b5bd1ac48b2027b9f76e8,11/04/1999,2020-08-13_12h52.50.810,proactive2,2020.1.2,MacIntel,60,5f341be081b9052c55068110,5f3528d30d301447d9448383,6,,,,,,stool,,,,,,0,20,20,42,1,5,0,,,,,,,,,,,,,,,,,,,,,,,,,,,,,,,,,,,,,,,,,,,,,,,,,,,,,,,,,,,,,,,,,,,,,,,,,,,,,,,,,,,,,,,,,,,,,,,,,,,
,,,,,,,,,,stimuli/images/PICTURE_68.png,MILE,5e8b5bd1ac48b2027b9f76e8,11/04/1999,2020-08-13_12h52.50.810,proactive2,2020.1.2,MacIntel,60,5f341be081b9052c55068110,5f3528d30d301447d9448383,6,,,,,,candle,,,,,,0,21,21,44,1,5,0,,,,,,,,,,,,,,,,,,,,,,,,,,,,,,,,,,,,,,,,,,,,,,,,,,,,,,,,,,,,,,,,,,,,,,,,,,,,,,,,,,,,,,,,,,,,,,,,,,,
,,,,,,,,,,stimuli/images/PICTURE_744.png,SAKE,5e8b5bd1ac48b2027b9f76e8,11/04/1999,2020-08-13_12h52.50.810,proactive2,2020.1.2,MacIntel,60,5f341be081b9052c55068110,5f3528d30d301447d9448383,6,,,,,,ring,,,,,,0,22,22,17,1,2,0,,,,,,,,,,,,,,,,,,,,,,,,,,,,,,,,,,,,,,,,,,,,,,,,,,,,,,,,,,,,,,,,,,,,,,,,,,,,,,,,,,,,,,,,,,,,,,,,,,,
,,,,,,,,,,stimuli/images/PICTURE_487.png,FLIGHT,5e8b5bd1ac48b2027b9f76e8,11/04/1999,2020-08-13_12h52.50.810,proactive2,2020.1.2,MacIntel,60,5f341be081b9052c55068110,5f3528d30d301447d9448383,6,,,,,,basket,,,,,,0,23,23,9,1,1,0,,,,,,,,,,,,,,,,,,,,,,,,,,,,,,,,,,,,,,,,,,,,,,,,,,,,,,,,,,,,,,,,,,,,,,,,,,,,,,,,,,,,,,,,,,,,,,,,,,,
,,,,,,,,,,stimuli/images/PICTURE_708.png,PENNY,5e8b5bd1ac48b2027b9f76e8,11/04/1999,2020-08-13_12h52.50.810,proactive2,2020.1.2,MacIntel,60,5f341be081b9052c55068110,5f3528d30d301447d9448383,6,,,,,,monkey,,,,,,0,24,24,31,1,4,0,,,,,,,,,,,,,,,,,,,,,,,,,,,,,,,,,,,,,,,,,,,,,,,,,,,,,,,,,,,,,,,,,,,,,,,,,,,,,,,,,,,,,,,,,,,,,,,,,,,
,,,,,,,,,,stimuli/images/PICTURE_339.png,PLENTY,5e8b5bd1ac48b2027b9f76e8,11/04/1999,2020-08-13_12h52.50.810,proactive2,2020.1.2,MacIntel,60,5f341be081b9052c55068110,5f3528d30d301447d9448383,6,,,,,,backpack,,,,,,0,25,25,0,1,1,0,,,,,,,,,,,,,,,,,,,,,,,,,,,,,,,,,,,,,,,,,,,,,,,,,,,,,,,,,,,,,,,,,,,,,,,,,,,,,,,,,,,,,,,,,,,,,,,,,,,
,,,,,,,,,,stimuli/images/PICTURE_248.png,DOZEN,5e8b5bd1ac48b2027b9f76e8,11/04/1999,2020-08-13_12h52.50.810,proactive2,2020.1.2,MacIntel,60,5f341be081b9052c55068110,5f3528d30d301447d9448383,6,,,,,,cart,,,,,,0,26,26,39,1,4,0,,,,,,,,,,,,,,,,,,,,,,,,,,,,,,,,,,,,,,,,,,,,,,,,,,,,,,,,,,,,,,,,,,,,,,,,,,,,,,,,,,,,,,,,,,,,,,,,,,,
,,,,,,,,,,stimuli/images/PICTURE_491.png,ROOF,5e8b5bd1ac48b2027b9f76e8,11/04/1999,2020-08-13_12h52.50.810,proactive2,2020.1.2,MacIntel,60,5f341be081b9052c55068110,5f3528d30d301447d9448383,6,,,,,,rug,,,,,,0,27,27,24,1,3,0,,,,,,,,,,,,,,,,,,,,,,,,,,,,,,,,,,,,,,,,,,,,,,,,,,,,,,,,,,,,,,,,,,,,,,,,,,,,,,,,,,,,,,,,,,,,,,,,,,,
,,,,,,,,,,stimuli/images/PICTURE_453.png,PLENTY,5e8b5bd1ac48b2027b9f76e8,11/04/1999,2020-08-13_12h52.50.810,proactive2,2020.1.2,MacIntel,60,5f341be081b9052c55068110,5f3528d30d301447d9448383,6,,,,,,scissors,,,,,,0,28,28,56,1,6,0,,,,,,,,,,,,,,,,,,,,,,,,,,,,,,,,,,,,,,,,,,,,,,,,,,,,,,,,,,,,,,,,,,,,,,,,,,,,,,,,,,,,,,,,,,,,,,,,,,,
,,,,,,,,,,stimuli/images/PICTURE_488.png,STYLE,5e8b5bd1ac48b2027b9f76e8,11/04/1999,2020-08-13_12h52.50.810,proactive2,2020.1.2,MacIntel,60,5f341be081b9052c55068110,5f3528d30d301447d9448383,6,,,,,,sun,,,,,,0,29,29,33,1,4,0,,,,,,,,,,,,,,,,,,,,,,,,,,,,,,,,,,,,,,,,,,,,,,,,,,,,,,,,,,,,,,,,,,,,,,,,,,,,,,,,,,,,,,,,,,,,,,,,,,,
,,,,,,,,,,stimuli/images/PICTURE_348.png,SPEECH,5e8b5bd1ac48b2027b9f76e8,11/04/1999,2020-08-13_12h52.50.810,proactive2,2020.1.2,MacIntel,60,5f341be081b9052c55068110,5f3528d30d301447d9448383,6,,,,,,pepper,,,,,,0,30,30,20,1,3,0,,,,,,,,,,,,,,,,,,,,,,,,,,,,,,,,,,,,,,,,,,,,,,,,,,,,,,,,,,,,,,,,,,,,,,,,,,,,,,,,,,,,,,,,,,,,,,,,,,,
,,,,,,,,,,stimuli/images/PICTURE_380.png,PHOTO,5e8b5bd1ac48b2027b9f76e8,11/04/1999,2020-08-13_12h52.50.810,proactive2,2020.1.2,MacIntel,60,5f341be081b9052c55068110,5f3528d30d301447d9448383,6,,,,,,gorilla,,,,,,0,31,31,52,1,6,0,,,,,,,,,,,,,,,,,,,,,,,,,,,,,,,,,,,,,,,,,,,,,,,,,,,,,,,,,,,,,,,,,,,,,,,,,,,,,,,,,,,,,,,,,,,,,,,,,,,
,,,,,,,,,,stimuli/images/PICTURE_470.png,CASINO,5e8b5bd1ac48b2027b9f76e8,11/04/1999,2020-08-13_12h52.50.810,proactive2,2020.1.2,MacIntel,60,5f341be081b9052c55068110,5f3528d30d301447d9448383,6,,,,,,motorbike,,,,,,0,32,32,36,1,4,0,,,,,,,,,,,,,,,,,,,,,,,,,,,,,,,,,,,,,,,,,,,,,,,,,,,,,,,,,,,,,,,,,,,,,,,,,,,,,,,,,,,,,,,,,,,,,,,,,,,
,,,,,,,,,,stimuli/images/PICTURE_356.png,DANGER,5e8b5bd1ac48b2027b9f76e8,11/04/1999,2020-08-13_12h52.50.810,proactive2,2020.1.2,MacIntel,60,5f341be081b9052c55068110,5f3528d30d301447d9448383,6,,,,,,pawn,,,,,,0,33,33,55,1,6,0,,,,,,,,,,,,,,,,,,,,,,,,,,,,,,,,,,,,,,,,,,,,,,,,,,,,,,,,,,,,,,,,,,,,,,,,,,,,,,,,,,,,,,,,,,,,,,,,,,,
,,,,,,,,,,stimuli/images/PICTURE_667.png,BATH,5e8b5bd1ac48b2027b9f76e8,11/04/1999,2020-08-13_12h52.50.810,proactive2,2020.1.2,MacIntel,60,5f341be081b9052c55068110,5f3528d30d301447d9448383,6,,,,,,daisy,,,,,,0,34,34,4,1,1,0,,,,,,,,,,,,,,,,,,,,,,,,,,,,,,,,,,,,,,,,,,,,,,,,,,,,,,,,,,,,,,,,,,,,,,,,,,,,,,,,,,,,,,,,,,,,,,,,,,,
,,,,,,,,,,stimuli/images/PICTURE_32.png,JUNGLE,5e8b5bd1ac48b2027b9f76e8,11/04/1999,2020-08-13_12h52.50.810,proactive2,2020.1.2,MacIntel,60,5f341be081b9052c55068110,5f3528d30d301447d9448383,6,,,,,,crown,,,,,,0,35,35,45,1,5,0,,,,,,,,,,,,,,,,,,,,,,,,,,,,,,,,,,,,,,,,,,,,,,,,,,,,,,,,,,,,,,,,,,,,,,,,,,,,,,,,,,,,,,,,,,,,,,,,,,,
,,,,,,,,,,stimuli/images/PICTURE_467.png,DEMON,5e8b5bd1ac48b2027b9f76e8,11/04/1999,2020-08-13_12h52.50.810,proactive2,2020.1.2,MacIntel,60,5f341be081b9052c55068110,5f3528d30d301447d9448383,6,,,,,,peg,,,,,,0,36,36,23,1,3,0,,,,,,,,,,,,,,,,,,,,,,,,,,,,,,,,,,,,,,,,,,,,,,,,,,,,,,,,,,,,,,,,,,,,,,,,,,,,,,,,,,,,,,,,,,,,,,,,,,,
,,,,,,,,,,stimuli/images/PICTURE_744.png,SYSTEM,5e8b5bd1ac48b2027b9f76e8,11/04/1999,2020-08-13_12h52.50.810,proactive2,2020.1.2,MacIntel,60,5f341be081b9052c55068110,5f3528d30d301447d9448383,6,,,,,,ring,,,,,,0,37,37,43,1,5,0,,,,,,,,,,,,,,,,,,,,,,,,,,,,,,,,,,,,,,,,,,,,,,,,,,,,,,,,,,,,,,,,,,,,,,,,,,,,,,,,,,,,,,,,,,,,,,,,,,,
,,,,,,,,,,stimuli/images/PICTURE_688.png,CASINO,5e8b5bd1ac48b2027b9f76e8,11/04/1999,2020-08-13_12h52.50.810,proactive2,2020.1.2,MacIntel,60,5f341be081b9052c55068110,5f3528d30d301447d9448383,6,,,,,,runner,,,,,,0,38,38,2,1,1,0,,,,,,,,,,,,,,,,,,,,,,,,,,,,,,,,,,,,,,,,,,,,,,,,,,,,,,,,,,,,,,,,,,,,,,,,,,,,,,,,,,,,,,,,,,,,,,,,,,,
,,,,,,,,,,stimuli/images/PICTURE_177.png,CARS,5e8b5bd1ac48b2027b9f76e8,11/04/1999,2020-08-13_12h52.50.810,proactive2,2020.1.2,MacIntel,60,5f341be081b9052c55068110,5f3528d30d301447d9448383,6,,,,,,mushroom,,,,,,0,39,39,35,1,4,0,,,,,,,,,,,,,,,,,,,,,,,,,,,,,,,,,,,,,,,,,,,,,,,,,,,,,,,,,,,,,,,,,,,,,,,,,,,,,,,,,,,,,,,,,,,,,,,,,,,
,,,,,,,,,,stimuli/images/PICTURE_208.png,MONTH,5e8b5bd1ac48b2027b9f76e8,11/04/1999,2020-08-13_12h52.50.810,proactive2,2020.1.2,MacIntel,60,5f341be081b9052c55068110,5f3528d30d301447d9448383,6,,,,,,microphone,,,,,,0,40,40,53,1,6,0,,,,,,,,,,,,,,,,,,,,,,,,,,,,,,,,,,,,,,,,,,,,,,,,,,,,,,,,,,,,,,,,,,,,,,,,,,,,,,,,,,,,,,,,,,,,,,,,,,,
,,,,,,,,,,stimuli/images/PICTURE_85.png,THING,5e8b5bd1ac48b2027b9f76e8,11/04/1999,2020-08-13_12h52.50.810,proactive2,2020.1.2,MacIntel,60,5f341be081b9052c55068110,5f3528d30d301447d9448383,6,,,,,,diamond,,,,,,0,41,41,15,1,2,0,,,,,,,,,,,,,,,,,,,,,,,,,,,,,,,,,,,,,,,,,,,,,,,,,,,,,,,,,,,,,,,,,,,,,,,,,,,,,,,,,,,,,,,,,,,,,,,,,,,
,,,,,,,,,,stimuli/images/PICTURE_160.png,FEET,5e8b5bd1ac48b2027b9f76e8,11/04/1999,2020-08-13_12h52.50.810,proactive2,2020.1.2,MacIntel,60,5f341be081b9052c55068110,5f3528d30d301447d9448383,6,,,,,,wheelbarrow,,,,,,0,42,42,58,1,6,0,,,,,,,,,,,,,,,,,,,,,,,,,,,,,,,,,,,,,,,,,,,,,,,,,,,,,,,,,,,,,,,,,,,,,,,,,,,,,,,,,,,,,,,,,,,,,,,,,,,
,,,,,,,,,,stimuli/images/PICTURE_692.png,MONTH,5e8b5bd1ac48b2027b9f76e8,11/04/1999,2020-08-13_12h52.50.810,proactive2,2020.1.2,MacIntel,60,5f341be081b9052c55068110,5f3528d30d301447d9448383,6,,,,,,cherry,,,,,,0,43,43,16,1,2,0,,,,,,,,,,,,,,,,,,,,,,,,,,,,,,,,,,,,,,,,,,,,,,,,,,,,,,,,,,,,,,,,,,,,,,,,,,,,,,,,,,,,,,,,,,,,,,,,,,,
,,,,,,,,,,stimuli/images/PICTURE_208.png,THING,5e8b5bd1ac48b2027b9f76e8,11/04/1999,2020-08-13_12h52.50.810,proactive2,2020.1.2,MacIntel,60,5f341be081b9052c55068110,5f3528d30d301447d9448383,6,,,,,,microphone,,,,,,0,44,44,47,1,5,0,,,,,,,,,,,,,,,,,,,,,,,,,,,,,,,,,,,,,,,,,,,,,,,,,,,,,,,,,,,,,,,,,,,,,,,,,,,,,,,,,,,,,,,,,,,,,,,,,,,
,,,,,,,,,,stimuli/images/PICTURE_151.png,GIRL,5e8b5bd1ac48b2027b9f76e8,11/04/1999,2020-08-13_12h52.50.810,proactive2,2020.1.2,MacIntel,60,5f341be081b9052c55068110,5f3528d30d301447d9448383,6,,,,,,tray,,,,,,0,45,45,19,1,2,0,,,,,,,,,,,,,,,,,,,,,,,,,,,,,,,,,,,,,,,,,,,,,,,,,,,,,,,,,,,,,,,,,,,,,,,,,,,,,,,,,,,,,,,,,,,,,,,,,,,
,,,,,,,,,,stimuli/images/PICTURE_160.png,LEADER,5e8b5bd1ac48b2027b9f76e8,11/04/1999,2020-08-13_12h52.50.810,proactive2,2020.1.2,MacIntel,60,5f341be081b9052c55068110,5f3528d30d301447d9448383,6,,,,,,wheelbarrow,,,,,,0,46,46,3,1,1,0,,,,,,,,,,,,,,,,,,,,,,,,,,,,,,,,,,,,,,,,,,,,,,,,,,,,,,,,,,,,,,,,,,,,,,,,,,,,,,,,,,,,,,,,,,,,,,,,,,,
,,,,,,,,,,stimuli/images/PICTURE_233.png,IDEAS,5e8b5bd1ac48b2027b9f76e8,11/04/1999,2020-08-13_12h52.50.810,proactive2,2020.1.2,MacIntel,60,5f341be081b9052c55068110,5f3528d30d301447d9448383,6,,,,,,salt,,,,,,0,47,47,28,1,3,0,,,,,,,,,,,,,,,,,,,,,,,,,,,,,,,,,,,,,,,,,,,,,,,,,,,,,,,,,,,,,,,,,,,,,,,,,,,,,,,,,,,,,,,,,,,,,,,,,,,
,,,,,,,,,,stimuli/images/PICTURE_123.png,ADVICE,5e8b5bd1ac48b2027b9f76e8,11/04/1999,2020-08-13_12h52.50.810,proactive2,2020.1.2,MacIntel,60,5f341be081b9052c55068110,5f3528d30d301447d9448383,6,,,,,,dart,,,,,,0,48,48,40,1,5,0,,,,,,,,,,,,,,,,,,,,,,,,,,,,,,,,,,,,,,,,,,,,,,,,,,,,,,,,,,,,,,,,,,,,,,,,,,,,,,,,,,,,,,,,,,,,,,,,,,,
