consent_key.keys,consent_key.rt,recalled,recalled_rt,recall_acc,example_recall.thisRepN,example_recall.thisTrialN,example_recall.thisN,example_recall.thisIndex,example_recall.ran,file,word,participant,please enter your date of birth (dd/mm/yyyy),date,expName,psychopyVersion,OS,frameRate,STUDY_ID,SESSION_ID,list,prac_learn_study_loop.thisRepN,prac_learn_study_loop.thisTrialN,prac_learn_study_loop.thisN,prac_learn_study_loop.thisIndex,prac_learn_study_loop.ran,image,prac_learn_test_loop.thisRepN,prac_learn_test_loop.thisTrialN,prac_learn_test_loop.thisN,prac_learn_test_loop.thisIndex,prac_learn_test_loop.ran,learn_study_loop.thisRepN,learn_study_loop.thisTrialN,learn_study_loop.thisN,learn_study_loop.thisIndex,learn_study_loop.ran,list_no,block_no,learn_test_loop.thisRepN,learn_test_loop.thisTrialN,learn_test_loop.thisN,learn_test_loop.thisIndex,learn_test_loop.ran,learn_blocks.thisRepN,learn_blocks.thisTrialN,learn_blocks.thisN,learn_blocks.thisIndex,learn_blocks.ran,block_csv,key_resp_13.keys,key_resp_13.rt,learn_blocks_loop.thisRepN,learn_blocks_loop.thisTrialN,learn_blocks_loop.thisN,learn_blocks_loop.thisIndex,learn_blocks_loop.ran,final_learn_test.thisRepN,final_learn_test.thisTrialN,final_learn_test.thisN,final_learn_test.thisIndex,final_learn_test.ran
y,34.76726,TROUGH,11.722055,0,0,0,0,0,1,stimuli/images/PICTURE_747.png,TOUGH,5e9cc569aff5bd1ec9764db5,06/09/1952,2020-09-03_13h41.25.232,proactive2,2020.1.2,MacIntel,60,5f5126bb654d4b30ee6923d8,5f512aa262b184331912dad9,6,,,,,,,,,,,,,,,,,,,,,,,,,,,,,,,,,,,,,,,,,
,,,,,,,,,,stimuli/images/PICTURE_697.png,KILLER,5e9cc569aff5bd1ec9764db5,06/09/1952,2020-09-03_13h41.25.232,proactive2,2020.1.2,MacIntel,60,5f5126bb654d4b30ee6923d8,5f512aa262b184331912dad9,6,0,0,0,4,1,peach,,,,,,,,,,,,,,,,,,,,,,,,,,,,,,,,,,,
,,,,,,,,,,stimuli/images/PICTURE_658.png,DEVIL,5e9cc569aff5bd1ec9764db5,06/09/1952,2020-09-03_13h41.25.232,proactive2,2020.1.2,MacIntel,60,5f5126bb654d4b30ee6923d8,5f512aa262b184331912dad9,6,0,1,1,3,1,crow,,,,,,,,,,,,,,,,,,,,,,,,,,,,,,,,,,,
,,,,,,,,,,stimuli/images/PICTURE_727.png,CELL,5e9cc569aff5bd1ec9764db5,06/09/1952,2020-09-03_13h41.25.232,proactive2,2020.1.2,MacIntel,60,5f5126bb654d4b30ee6923d8,5f512aa262b184331912dad9,6,0,2,2,1,1,hose,,,,,,,,,,,,,,,,,,,,,,,,,,,,,,,,,,,
,,,,,,,,,,stimuli/images/PICTURE_269.png,GENIUS,5e9cc569aff5bd1ec9764db5,06/09/1952,2020-09-03_13h41.25.232,proactive2,2020.1.2,MacIntel,60,5f5126bb654d4b30ee6923d8,5f512aa262b184331912dad9,6,0,3,3,0,1,chameleon,,,,,,,,,,,,,,,,,,,,,,,,,,,,,,,,,,,
,,GENIUS,5.497235,1,,,,,,stimuli/images/PICTURE_269.png,GENIUS,5e9cc569aff5bd1ec9764db5,06/09/1952,2020-09-03_13h41.25.232,proactive2,2020.1.2,MacIntel,60,5f5126bb654d4b30ee6923d8,5f512aa262b184331912dad9,6,,,,,,chameleon,0,0,0,0,1,,,,,,,,,,,,,,,,,,,,,,,,,,,,,,
,,KILLKER,2.30022,0,,,,,,stimuli/images/PICTURE_697.png,KILLER,5e9cc569aff5bd1ec9764db5,06/09/1952,2020-09-03_13h41.25.232,proactive2,2020.1.2,MacIntel,60,5f5126bb654d4b30ee6923d8,5f512aa262b184331912dad9,6,,,,,,peach,0,1,1,4,1,,,,,,,,,,,,,,,,,,,,,,,,,,,,,,
,,DEVIL,4.116615,1,,,,,,stimuli/images/PICTURE_658.png,DEVIL,5e9cc569aff5bd1ec9764db5,06/09/1952,2020-09-03_13h41.25.232,proactive2,2020.1.2,MacIntel,60,5f5126bb654d4b30ee6923d8,5f512aa262b184331912dad9,6,,,,,,crow,0,2,2,3,1,,,,,,,,,,,,,,,,,,,,,,,,,,,,,,
,,?,13.01552,0,,,,,,stimuli/images/PICTURE_727.png,CELL,5e9cc569aff5bd1ec9764db5,06/09/1952,2020-09-03_13h41.25.232,proactive2,2020.1.2,MacIntel,60,5f5126bb654d4b30ee6923d8,5f512aa262b184331912dad9,6,,,,,,hose,0,3,3,1,1,,,,,,,,,,,,,,,,,,,,,,,,,,,,,,
,,LOSS,4.11456,1,,,,,,stimuli/images/PICTURE_378.png,LOSS,5e9cc569aff5bd1ec9764db5,06/09/1952,2020-09-03_13h41.25.232,proactive2,2020.1.2,MacIntel,60,5f5126bb654d4b30ee6923d8,5f512aa262b184331912dad9,6,,,,,,lobster,0,4,4,2,1,,,,,,,,,,,,,,,,,,,,,,,,,,,,,,
,,,,,,,,,,stimuli/images/PICTURE_285.png,LIFE,5e9cc569aff5bd1ec9764db5,06/09/1952,2020-09-03_13h41.25.232,proactive2,2020.1.2,MacIntel,60,5f5126bb654d4b30ee6923d8,5f512aa262b184331912dad9,6,,,,,,carrot,,,,,,0,0,0,33,1,4,1,,,,,,,,,,,,,,,,,,,,,,,
,,,,,,,,,,stimuli/images/PICTURE_380.png,HONEY,5e9cc569aff5bd1ec9764db5,06/09/1952,2020-09-03_13h41.25.232,proactive2,2020.1.2,MacIntel,60,5f5126bb654d4b30ee6923d8,5f512aa262b184331912dad9,6,,,,,,gorilla,,,,,,0,1,1,19,1,2,1,,,,,,,,,,,,,,,,,,,,,,,
,,,,,,,,,,stimuli/images/PICTURE_469.png,AGENT,5e9cc569aff5bd1ec9764db5,06/09/1952,2020-09-03_13h41.25.232,proactive2,2020.1.2,MacIntel,60,5f5126bb654d4b30ee6923d8,5f512aa262b184331912dad9,6,,,,,,stool,,,,,,0,2,2,16,1,2,1,,,,,,,,,,,,,,,,,,,,,,,
,,,,,,,,,,stimuli/images/PICTURE_327.png,CASINO,5e9cc569aff5bd1ec9764db5,06/09/1952,2020-09-03_13h41.25.232,proactive2,2020.1.2,MacIntel,60,5f5126bb654d4b30ee6923d8,5f512aa262b184331912dad9,6,,,,,,helmet,,,,,,0,3,3,20,1,3,1,,,,,,,,,,,,,,,,,,,,,,,
,,,,,,,,,,stimuli/images/PICTURE_750.png,HOTEL,5e9cc569aff5bd1ec9764db5,06/09/1952,2020-09-03_13h41.25.232,proactive2,2020.1.2,MacIntel,60,5f5126bb654d4b30ee6923d8,5f512aa262b184331912dad9,6,,,,,,kettle,,,,,,0,4,4,27,1,3,1,,,,,,,,,,,,,,,,,,,,,,,
,,,,,,,,,,stimuli/images/PICTURE_297.png,RIVER,5e9cc569aff5bd1ec9764db5,06/09/1952,2020-09-03_13h41.25.232,proactive2,2020.1.2,MacIntel,60,5f5126bb654d4b30ee6923d8,5f512aa262b184331912dad9,6,,,,,,aeroplane,,,,,,0,5,5,39,1,4,1,,,,,,,,,,,,,,,,,,,,,,,
,,,,,,,,,,stimuli/images/PICTURE_339.png,CLIENT,5e9cc569aff5bd1ec9764db5,06/09/1952,2020-09-03_13h41.25.232,proactive2,2020.1.2,MacIntel,60,5f5126bb654d4b30ee6923d8,5f512aa262b184331912dad9,6,,,,,,backpack,,,,,,0,6,6,11,1,2,1,,,,,,,,,,,,,,,,,,,,,,,
,,,,,,,,,,stimuli/images/PICTURE_327.png,SERIES,5e9cc569aff5bd1ec9764db5,06/09/1952,2020-09-03_13h41.25.232,proactive2,2020.1.2,MacIntel,60,5f5126bb654d4b30ee6923d8,5f512aa262b184331912dad9,6,,,,,,helmet,,,,,,0,7,7,3,1,1,1,,,,,,,,,,,,,,,,,,,,,,,
,,,,,,,,,,stimuli/images/PICTURE_308.png,FAMILY,5e9cc569aff5bd1ec9764db5,06/09/1952,2020-09-03_13h41.25.232,proactive2,2020.1.2,MacIntel,60,5f5126bb654d4b30ee6923d8,5f512aa262b184331912dad9,6,,,,,,dice,,,,,,0,8,8,36,1,4,1,,,,,,,,,,,,,,,,,,,,,,,
,,,,,,,,,,stimuli/images/PICTURE_449.png,DUDE,5e9cc569aff5bd1ec9764db5,06/09/1952,2020-09-03_13h41.25.232,proactive2,2020.1.2,MacIntel,60,5f5126bb654d4b30ee6923d8,5f512aa262b184331912dad9,6,,,,,,bench,,,,,,0,9,9,17,1,2,1,,,,,,,,,,,,,,,,,,,,,,,
,,,,,,,,,,stimuli/images/PICTURE_708.png,RECORD,5e9cc569aff5bd1ec9764db5,06/09/1952,2020-09-03_13h41.25.232,proactive2,2020.1.2,MacIntel,60,5f5126bb654d4b30ee6923d8,5f512aa262b184331912dad9,6,,,,,,monkey,,,,,,0,10,10,58,1,6,1,,,,,,,,,,,,,,,,,,,,,,,
,,,,,,,,,,stimuli/images/PICTURE_203.png,GODS,5e9cc569aff5bd1ec9764db5,06/09/1952,2020-09-03_13h41.25.232,proactive2,2020.1.2,MacIntel,60,5f5126bb654d4b30ee6923d8,5f512aa262b184331912dad9,6,,,,,,cap,,,,,,0,11,11,30,1,4,1,,,,,,,,,,,,,,,,,,,,,,,
,,,,,,,,,,stimuli/images/PICTURE_504.png,ARTIST,5e9cc569aff5bd1ec9764db5,06/09/1952,2020-09-03_13h41.25.232,proactive2,2020.1.2,MacIntel,60,5f5126bb654d4b30ee6923d8,5f512aa262b184331912dad9,6,,,,,,wheel,,,,,,0,12,12,49,1,5,1,,,,,,,,,,,,,,,,,,,,,,,
,,,,,,,,,,stimuli/images/PICTURE_405.png,YEAR,5e9cc569aff5bd1ec9764db5,06/09/1952,2020-09-03_13h41.25.232,proactive2,2020.1.2,MacIntel,60,5f5126bb654d4b30ee6923d8,5f512aa262b184331912dad9,6,,,,,,anchor,,,,,,0,13,13,34,1,4,1,,,,,,,,,,,,,,,,,,,,,,,
,,,,,,,,,,stimuli/images/PICTURE_654.png,MONTH,5e9cc569aff5bd1ec9764db5,06/09/1952,2020-09-03_13h41.25.232,proactive2,2020.1.2,MacIntel,60,5f5126bb654d4b30ee6923d8,5f512aa262b184331912dad9,6,,,,,,pencil,,,,,,0,14,14,29,1,3,1,,,,,,,,,,,,,,,,,,,,,,,
,,,,,,,,,,stimuli/images/PICTURE_147.png,YEAR,5e9cc569aff5bd1ec9764db5,06/09/1952,2020-09-03_13h41.25.232,proactive2,2020.1.2,MacIntel,60,5f5126bb654d4b30ee6923d8,5f512aa262b184331912dad9,6,,,,,,hanger,,,,,,0,15,15,21,1,3,1,,,,,,,,,,,,,,,,,,,,,,,
,,,,,,,,,,stimuli/images/PICTURE_203.png,NIGHT,5e9cc569aff5bd1ec9764db5,06/09/1952,2020-09-03_13h41.25.232,proactive2,2020.1.2,MacIntel,60,5f5126bb654d4b30ee6923d8,5f512aa262b184331912dad9,6,,,,,,cap,,,,,,0,16,16,2,1,1,1,,,,,,,,,,,,,,,,,,,,,,,
,,,,,,,,,,stimuli/images/PICTURE_177.png,WRITER,5e9cc569aff5bd1ec9764db5,06/09/1952,2020-09-03_13h41.25.232,proactive2,2020.1.2,MacIntel,60,5f5126bb654d4b30ee6923d8,5f512aa262b184331912dad9,6,,,,,,mushroom,,,,,,0,17,17,41,1,5,1,,,,,,,,,,,,,,,,,,,,,,,
,,,,,,,,,,stimuli/images/PICTURE_491.png,RIVER,5e9cc569aff5bd1ec9764db5,06/09/1952,2020-09-03_13h41.25.232,proactive2,2020.1.2,MacIntel,60,5f5126bb654d4b30ee6923d8,5f512aa262b184331912dad9,6,,,,,,rug,,,,,,0,18,18,6,1,1,1,,,,,,,,,,,,,,,,,,,,,,,
,,,,,,,,,,stimuli/images/PICTURE_85.png,NATION,5e9cc569aff5bd1ec9764db5,06/09/1952,2020-09-03_13h41.25.232,proactive2,2020.1.2,MacIntel,60,5f5126bb654d4b30ee6923d8,5f512aa262b184331912dad9,6,,,,,,diamond,,,,,,0,19,19,5,1,1,1,,,,,,,,,,,,,,,,,,,,,,,
,,,,,,,,,,stimuli/images/PICTURE_208.png,SYSTEM,5e9cc569aff5bd1ec9764db5,06/09/1952,2020-09-03_13h41.25.232,proactive2,2020.1.2,MacIntel,60,5f5126bb654d4b30ee6923d8,5f512aa262b184331912dad9,6,,,,,,microphone,,,,,,0,20,20,32,1,4,1,,,,,,,,,,,,,,,,,,,,,,,
,,,,,,,,,,stimuli/images/PICTURE_380.png,CANDY,5e9cc569aff5bd1ec9764db5,06/09/1952,2020-09-03_13h41.25.232,proactive2,2020.1.2,MacIntel,60,5f5126bb654d4b30ee6923d8,5f512aa262b184331912dad9,6,,,,,,gorilla,,,,,,0,21,21,0,1,1,1,,,,,,,,,,,,,,,,,,,,,,,
,,,,,,,,,,stimuli/images/PICTURE_68.png,ROOF,5e9cc569aff5bd1ec9764db5,06/09/1952,2020-09-03_13h41.25.232,proactive2,2020.1.2,MacIntel,60,5f5126bb654d4b30ee6923d8,5f512aa262b184331912dad9,6,,,,,,candle,,,,,,0,22,22,38,1,4,1,,,,,,,,,,,,,,,,,,,,,,,
,,,,,,,,,,stimuli/images/PICTURE_296.png,LOTS,5e9cc569aff5bd1ec9764db5,06/09/1952,2020-09-03_13h41.25.232,proactive2,2020.1.2,MacIntel,60,5f5126bb654d4b30ee6923d8,5f512aa262b184331912dad9,6,,,,,,bolt,,,,,,0,23,23,9,1,1,1,,,,,,,,,,,,,,,,,,,,,,,
,,,,,,,,,,stimuli/images/PICTURE_57.png,MOMENT,5e9cc569aff5bd1ec9764db5,06/09/1952,2020-09-03_13h41.25.232,proactive2,2020.1.2,MacIntel,60,5f5126bb654d4b30ee6923d8,5f512aa262b184331912dad9,6,,,,,,stamp,,,,,,0,24,24,37,1,4,1,,,,,,,,,,,,,,,,,,,,,,,
,,,,,,,,,,stimuli/images/PICTURE_467.png,POLICY,5e9cc569aff5bd1ec9764db5,06/09/1952,2020-09-03_13h41.25.232,proactive2,2020.1.2,MacIntel,60,5f5126bb654d4b30ee6923d8,5f512aa262b184331912dad9,6,,,,,,peg,,,,,,0,25,25,53,1,6,1,,,,,,,,,,,,,,,,,,,,,,,
,,,,,,,,,,stimuli/images/PICTURE_504.png,COPS,5e9cc569aff5bd1ec9764db5,06/09/1952,2020-09-03_13h41.25.232,proactive2,2020.1.2,MacIntel,60,5f5126bb654d4b30ee6923d8,5f512aa262b184331912dad9,6,,,,,,wheel,,,,,,0,26,26,52,1,6,1,,,,,,,,,,,,,,,,,,,,,,,
,,,,,,,,,,stimuli/images/PICTURE_564.png,BATH,5e9cc569aff5bd1ec9764db5,06/09/1952,2020-09-03_13h41.25.232,proactive2,2020.1.2,MacIntel,60,5f5126bb654d4b30ee6923d8,5f512aa262b184331912dad9,6,,,,,,spoon,,,,,,0,27,27,26,1,3,1,,,,,,,,,,,,,,,,,,,,,,,
,,,,,,,,,,stimuli/images/PICTURE_504.png,YEAR,5e9cc569aff5bd1ec9764db5,06/09/1952,2020-09-03_13h41.25.232,proactive2,2020.1.2,MacIntel,60,5f5126bb654d4b30ee6923d8,5f512aa262b184331912dad9,6,,,,,,wheel,,,,,,0,28,28,13,1,2,1,,,,,,,,,,,,,,,,,,,,,,,
,,,,,,,,,,stimuli/images/PICTURE_147.png,WOMEN,5e9cc569aff5bd1ec9764db5,06/09/1952,2020-09-03_13h41.25.232,proactive2,2020.1.2,MacIntel,60,5f5126bb654d4b30ee6923d8,5f512aa262b184331912dad9,6,,,,,,hanger,,,,,,0,29,29,7,1,1,1,,,,,,,,,,,,,,,,,,,,,,,
,,,,,,,,,,stimuli/images/PICTURE_744.png,WEAPON,5e9cc569aff5bd1ec9764db5,06/09/1952,2020-09-03_13h41.25.232,proactive2,2020.1.2,MacIntel,60,5f5126bb654d4b30ee6923d8,5f512aa262b184331912dad9,6,,,,,,ring,,,,,,0,30,30,50,1,6,1,,,,,,,,,,,,,,,,,,,,,,,
,,,,,,,,,,stimuli/images/PICTURE_85.png,TOILET,5e9cc569aff5bd1ec9764db5,06/09/1952,2020-09-03_13h41.25.232,proactive2,2020.1.2,MacIntel,60,5f5126bb654d4b30ee6923d8,5f512aa262b184331912dad9,6,,,,,,diamond,,,,,,0,31,31,48,1,5,1,,,,,,,,,,,,,,,,,,,,,,,
,,,,,,,,,,stimuli/images/PICTURE_383.png,WRITER,5e9cc569aff5bd1ec9764db5,06/09/1952,2020-09-03_13h41.25.232,proactive2,2020.1.2,MacIntel,60,5f5126bb654d4b30ee6923d8,5f512aa262b184331912dad9,6,,,,,,coin,,,,,,0,32,32,28,1,3,1,,,,,,,,,,,,,,,,,,,,,,,
,,,,,,,,,,stimuli/images/PICTURE_32.png,KIND,5e9cc569aff5bd1ec9764db5,06/09/1952,2020-09-03_13h41.25.232,proactive2,2020.1.2,MacIntel,60,5f5126bb654d4b30ee6923d8,5f512aa262b184331912dad9,6,,,,,,crown,,,,,,0,33,33,35,1,4,1,,,,,,,,,,,,,,,,,,,,,,,
,,,,,,,,,,stimuli/images/PICTURE_95.png,MILLER,5e9cc569aff5bd1ec9764db5,06/09/1952,2020-09-03_13h41.25.232,proactive2,2020.1.2,MacIntel,60,5f5126bb654d4b30ee6923d8,5f512aa262b184331912dad9,6,,,,,,suitcase,,,,,,0,34,34,56,1,6,1,,,,,,,,,,,,,,,,,,,,,,,
,,,,,,,,,,stimuli/images/PICTURE_667.png,RIVER,5e9cc569aff5bd1ec9764db5,06/09/1952,2020-09-03_13h41.25.232,proactive2,2020.1.2,MacIntel,60,5f5126bb654d4b30ee6923d8,5f512aa262b184331912dad9,6,,,,,,daisy,,,,,,0,35,35,10,1,2,1,,,,,,,,,,,,,,,,,,,,,,,
,,,,,,,,,,stimuli/images/PICTURE_42.png,BOYS,5e9cc569aff5bd1ec9764db5,06/09/1952,2020-09-03_13h41.25.232,proactive2,2020.1.2,MacIntel,60,5f5126bb654d4b30ee6923d8,5f512aa262b184331912dad9,6,,,,,,pear,,,,,,0,36,36,55,1,6,1,,,,,,,,,,,,,,,,,,,,,,,
,,,,,,,,,,stimuli/images/PICTURE_296.png,LIFE,5e9cc569aff5bd1ec9764db5,06/09/1952,2020-09-03_13h41.25.232,proactive2,2020.1.2,MacIntel,60,5f5126bb654d4b30ee6923d8,5f512aa262b184331912dad9,6,,,,,,bolt,,,,,,0,37,37,57,1,6,1,,,,,,,,,,,,,,,,,,,,,,,
,,,,,,,,,,stimuli/images/PICTURE_655.png,TOILET,5e9cc569aff5bd1ec9764db5,06/09/1952,2020-09-03_13h41.25.232,proactive2,2020.1.2,MacIntel,60,5f5126bb654d4b30ee6923d8,5f512aa262b184331912dad9,6,,,,,,megaphone,,,,,,0,38,38,12,1,2,1,,,,,,,,,,,,,,,,,,,,,,,
,,,,,,,,,,stimuli/images/PICTURE_677.png,APPLE,5e9cc569aff5bd1ec9764db5,06/09/1952,2020-09-03_13h41.25.232,proactive2,2020.1.2,MacIntel,60,5f5126bb654d4b30ee6923d8,5f512aa262b184331912dad9,6,,,,,,map,,,,,,0,39,39,43,1,5,1,,,,,,,,,,,,,,,,,,,,,,,
,,,,,,,,,,stimuli/images/PICTURE_233.png,LOTS,5e9cc569aff5bd1ec9764db5,06/09/1952,2020-09-03_13h41.25.232,proactive2,2020.1.2,MacIntel,60,5f5126bb654d4b30ee6923d8,5f512aa262b184331912dad9,6,,,,,,salt,,,,,,0,40,40,42,1,5,1,,,,,,,,,,,,,,,,,,,,,,,
,,,,,,,,,,stimuli/images/PICTURE_340.png,LETTER,5e9cc569aff5bd1ec9764db5,06/09/1952,2020-09-03_13h41.25.232,proactive2,2020.1.2,MacIntel,60,5f5126bb654d4b30ee6923d8,5f512aa262b184331912dad9,6,,,,,,mirror,,,,,,0,41,41,24,1,3,1,,,,,,,,,,,,,,,,,,,,,,,
,,,,,,,,,,stimuli/images/PICTURE_33.png,FRIEND,5e9cc569aff5bd1ec9764db5,06/09/1952,2020-09-03_13h41.25.232,proactive2,2020.1.2,MacIntel,60,5f5126bb654d4b30ee6923d8,5f512aa262b184331912dad9,6,,,,,,frame,,,,,,0,42,42,8,1,1,1,,,,,,,,,,,,,,,,,,,,,,,
,,,,,,,,,,stimuli/images/PICTURE_2.png,FLIGHT,5e9cc569aff5bd1ec9764db5,06/09/1952,2020-09-03_13h41.25.232,proactive2,2020.1.2,MacIntel,60,5f5126bb654d4b30ee6923d8,5f512aa262b184331912dad9,6,,,,,,tyre,,,,,,0,43,43,15,1,2,1,,,,,,,,,,,,,,,,,,,,,,,
,,,,,,,,,,stimuli/images/PICTURE_403.png,RIVER,5e9cc569aff5bd1ec9764db5,06/09/1952,2020-09-03_13h41.25.232,proactive2,2020.1.2,MacIntel,60,5f5126bb654d4b30ee6923d8,5f512aa262b184331912dad9,6,,,,,,cathedral,,,,,,0,44,44,40,1,5,1,,,,,,,,,,,,,,,,,,,,,,,
,,,,,,,,,,stimuli/images/PICTURE_95.png,HONEY,5e9cc569aff5bd1ec9764db5,06/09/1952,2020-09-03_13h41.25.232,proactive2,2020.1.2,MacIntel,60,5f5126bb654d4b30ee6923d8,5f512aa262b184331912dad9,6,,,,,,suitcase,,,,,,0,45,45,44,1,5,1,,,,,,,,,,,,,,,,,,,,,,,
,,,,,,,,,,stimuli/images/PICTURE_675.png,SALE,5e9cc569aff5bd1ec9764db5,06/09/1952,2020-09-03_13h41.25.232,proactive2,2020.1.2,MacIntel,60,5f5126bb654d4b30ee6923d8,5f512aa262b184331912dad9,6,,,,,,windmill,,,,,,0,46,46,47,1,5,1,,,,,,,,,,,,,,,,,,,,,,,
,,,,,,,,,,stimuli/images/PICTURE_108.png,POLICY,5e9cc569aff5bd1ec9764db5,06/09/1952,2020-09-03_13h41.25.232,proactive2,2020.1.2,MacIntel,60,5f5126bb654d4b30ee6923d8,5f512aa262b184331912dad9,6,,,,,,calendar,,,,,,0,47,47,22,1,3,1,,,,,,,,,,,,,,,,,,,,,,,
,,,,,,,,,,stimuli/images/PICTURE_108.png,FLIGHT,5e9cc569aff5bd1ec9764db5,06/09/1952,2020-09-03_13h41.25.232,proactive2,2020.1.2,MacIntel,60,5f5126bb654d4b30ee6923d8,5f512aa262b184331912dad9,6,,,,,,calendar,,,,,,0,48,48,59,1,6,1,,,,,,,,,,,,,,,,,,,,,,,
,,,,,,,,,,stimuli/images/PICTURE_32.png,PILLS,5e9cc569aff5bd1ec9764db5,06/09/1952,2020-09-03_13h41.25.232,proactive2,2020.1.2,MacIntel,60,5f5126bb654d4b30ee6923d8,5f512aa262b184331912dad9,6,,,,,,crown,,,,,,0,49,49,18,1,2,1,,,,,,,,,,,,,,,,,,,,,,,
,,,,,,,,,,stimuli/images/PICTURE_68.png,MILE,5e9cc569aff5bd1ec9764db5,06/09/1952,2020-09-03_13h41.25.232,proactive2,2020.1.2,MacIntel,60,5f5126bb654d4b30ee6923d8,5f512aa262b184331912dad9,6,,,,,,candle,,,,,,0,50,50,51,1,6,1,,,,,,,,,,,,,,,,,,,,,,,
,,,,,,,,,,stimuli/images/PICTURE_487.png,GIRL,5e9cc569aff5bd1ec9764db5,06/09/1952,2020-09-03_13h41.25.232,proactive2,2020.1.2,MacIntel,60,5f5126bb654d4b30ee6923d8,5f512aa262b184331912dad9,6,,,,,,basket,,,,,,0,51,51,45,1,5,1,,,,,,,,,,,,,,,,,,,,,,,
,,,,,,,,,,stimuli/images/PICTURE_383.png,SERIES,5e9cc569aff5bd1ec9764db5,06/09/1952,2020-09-03_13h41.25.232,proactive2,2020.1.2,MacIntel,60,5f5126bb654d4b30ee6923d8,5f512aa262b184331912dad9,6,,,,,,coin,,,,,,0,52,52,46,1,5,1,,,,,,,,,,,,,,,,,,,,,,,
,,,,,,,,,,stimuli/images/PICTURE_403.png,TOILET,5e9cc569aff5bd1ec9764db5,06/09/1952,2020-09-03_13h41.25.232,proactive2,2020.1.2,MacIntel,60,5f5126bb654d4b30ee6923d8,5f512aa262b184331912dad9,6,,,,,,cathedral,,,,,,0,53,53,25,1,3,1,,,,,,,,,,,,,,,,,,,,,,,
,,,,,,,,,,stimuli/images/PICTURE_685.png,PENNY,5e9cc569aff5bd1ec9764db5,06/09/1952,2020-09-03_13h41.25.232,proactive2,2020.1.2,MacIntel,60,5f5126bb654d4b30ee6923d8,5f512aa262b184331912dad9,6,,,,,,goose,,,,,,0,54,54,4,1,1,1,,,,,,,,,,,,,,,,,,,,,,,
,,,,,,,,,,stimuli/images/PICTURE_405.png,PLENTY,5e9cc569aff5bd1ec9764db5,06/09/1952,2020-09-03_13h41.25.232,proactive2,2020.1.2,MacIntel,60,5f5126bb654d4b30ee6923d8,5f512aa262b184331912dad9,6,,,,,,anchor,,,,,,0,55,55,23,1,3,1,,,,,,,,,,,,,,,,,,,,,,,
,,,,,,,,,,stimuli/images/PICTURE_340.png,VALLEY,5e9cc569aff5bd1ec9764db5,06/09/1952,2020-09-03_13h41.25.232,proactive2,2020.1.2,MacIntel,60,5f5126bb654d4b30ee6923d8,5f512aa262b184331912dad9,6,,,,,,mirror,,,,,,0,56,56,54,1,6,1,,,,,,,,,,,,,,,,,,,,,,,
,,,,,,,,,,stimuli/images/PICTURE_403.png,WRITER,5e9cc569aff5bd1ec9764db5,06/09/1952,2020-09-03_13h41.25.232,proactive2,2020.1.2,MacIntel,60,5f5126bb654d4b30ee6923d8,5f512aa262b184331912dad9,6,,,,,,cathedral,,,,,,0,57,57,31,1,4,1,,,,,,,,,,,,,,,,,,,,,,,
,,,,,,,,,,stimuli/images/PICTURE_491.png,GLASS,5e9cc569aff5bd1ec9764db5,06/09/1952,2020-09-03_13h41.25.232,proactive2,2020.1.2,MacIntel,60,5f5126bb654d4b30ee6923d8,5f512aa262b184331912dad9,6,,,,,,rug,,,,,,0,58,58,14,1,2,1,,,,,,,,,,,,,,,,,,,,,,,
,,?,0.000905,0,,,,,,stimuli/images/PICTURE_654.png,MONTH,5e9cc569aff5bd1ec9764db5,06/09/1952,2020-09-03_13h41.25.232,proactive2,2020.1.2,MacIntel,60,5f5126bb654d4b30ee6923d8,5f512aa262b184331912dad9,6,,,,,,pencil,,,,,,,,,,,3,1,0,0,0,29,1,,,,,,,,,,,,,,,,,,
,,?,0.00041,0,,,,,,stimuli/images/PICTURE_308.png,FAMILY,5e9cc569aff5bd1ec9764db5,06/09/1952,2020-09-03_13h41.25.232,proactive2,2020.1.2,MacIntel,60,5f5126bb654d4b30ee6923d8,5f512aa262b184331912dad9,6,,,,,,dice,,,,,,,,,,,4,1,0,1,1,36,1,,,,,,,,,,,,,,,,,,
,,?,0.000395,0,,,,,,stimuli/images/PICTURE_32.png,PILLS,5e9cc569aff5bd1ec9764db5,06/09/1952,2020-09-03_13h41.25.232,proactive2,2020.1.2,MacIntel,60,5f5126bb654d4b30ee6923d8,5f512aa262b184331912dad9,6,,,,,,crown,,,,,,,,,,,2,1,0,2,2,18,1,,,,,,,,,,,,,,,,,,
,,?,0.000405,0,,,,,,stimuli/images/PICTURE_32.png,KIND,5e9cc569aff5bd1ec9764db5,06/09/1952,2020-09-03_13h41.25.232,proactive2,2020.1.2,MacIntel,60,5f5126bb654d4b30ee6923d8,5f512aa262b184331912dad9,6,,,,,,crown,,,,,,,,,,,4,1,0,3,3,35,1,,,,,,,,,,,,,,,,,,
,,?,0.000385,0,,,,,,stimuli/images/PICTURE_383.png,WRITER,5e9cc569aff5bd1ec9764db5,06/09/1952,2020-09-03_13h41.25.232,proactive2,2020.1.2,MacIntel,60,5f5126bb654d4b30ee6923d8,5f512aa262b184331912dad9,6,,,,,,coin,,,,,,,,,,,3,1,0,4,4,28,1,,,,,,,,,,,,,,,,,,
,,COPS,3.304645,1,,,,,,stimuli/images/PICTURE_504.png,COPS,5e9cc569aff5bd1ec9764db5,06/09/1952,2020-09-03_13h41.25.232,proactive2,2020.1.2,MacIntel,60,5f5126bb654d4b30ee6923d8,5f512aa262b184331912dad9,6,,,,,,wheel,,,,,,,,,,,6,1,0,5,5,52,1,,,,,,,,,,,,,,,,,,
,,?,0.000895,0,,,,,,stimuli/images/PICTURE_504.png,ARTIST,5e9cc569aff5bd1ec9764db5,06/09/1952,2020-09-03_13h41.25.232,proactive2,2020.1.2,MacIntel,60,5f5126bb654d4b30ee6923d8,5f512aa262b184331912dad9,6,,,,,,wheel,,,,,,,,,,,5,1,0,6,6,49,1,,,,,,,,,,,,,,,,,,
,,?,0.00056,0,,,,,,stimuli/images/PICTURE_403.png,WRITER,5e9cc569aff5bd1ec9764db5,06/09/1952,2020-09-03_13h41.25.232,proactive2,2020.1.2,MacIntel,60,5f5126bb654d4b30ee6923d8,5f512aa262b184331912dad9,6,,,,,,cathedral,,,,,,,,,,,4,1,0,7,7,31,1,,,,,,,,,,,,,,,,,,
,,?,0.00056,0,,,,,,stimuli/images/PICTURE_655.png,TOILET,5e9cc569aff5bd1ec9764db5,06/09/1952,2020-09-03_13h41.25.232,proactive2,2020.1.2,MacIntel,60,5f5126bb654d4b30ee6923d8,5f512aa262b184331912dad9,6,,,,,,megaphone,,,,,,,,,,,2,1,0,8,8,12,1,,,,,,,,,,,,,,,,,,
,,?,0.000455,0,,,,,,stimuli/images/PICTURE_203.png,GODS,5e9cc569aff5bd1ec9764db5,06/09/1952,2020-09-03_13h41.25.232,proactive2,2020.1.2,MacIntel,60,5f5126bb654d4b30ee6923d8,5f512aa262b184331912dad9,6,,,,,,cap,,,,,,,,,,,4,1,0,9,9,30,1,,,,,,,,,,,,,,,,,,
,,LIFE,5.893655,1,,,,,,stimuli/images/PICTURE_296.png,LIFE,5e9cc569aff5bd1ec9764db5,06/09/1952,2020-09-03_13h41.25.232,proactive2,2020.1.2,MacIntel,60,5f5126bb654d4b30ee6923d8,5f512aa262b184331912dad9,6,,,,,,bolt,,,,,,,,,,,6,1,0,10,10,57,1,,,,,,,,,,,,,,,,,,
,,?,0.000915,0,,,,,,stimuli/images/PICTURE_285.png,LIFE,5e9cc569aff5bd1ec9764db5,06/09/1952,2020-09-03_13h41.25.232,proactive2,2020.1.2,MacIntel,60,5f5126bb654d4b30ee6923d8,5f512aa262b184331912dad9,6,,,,,,carrot,,,,,,,,,,,4,1,0,11,11,33,1,,,,,,,,,,,,,,,,,,
,,?,0.00055,0,,,,,,stimuli/images/PICTURE_208.png,SYSTEM,5e9cc569aff5bd1ec9764db5,06/09/1952,2020-09-03_13h41.25.232,proactive2,2020.1.2,MacIntel,60,5f5126bb654d4b30ee6923d8,5f512aa262b184331912dad9,6,,,,,,microphone,,,,,,,,,,,4,1,0,12,12,32,1,,,,,,,,,,,,,,,,,,
,,?,4.861695,0,,,,,,stimuli/images/PICTURE_340.png,VALLEY,5e9cc569aff5bd1ec9764db5,06/09/1952,2020-09-03_13h41.25.232,proactive2,2020.1.2,MacIntel,60,5f5126bb654d4b30ee6923d8,5f512aa262b184331912dad9,6,,,,,,mirror,,,,,,,,,,,6,1,0,13,13,54,1,,,,,,,,,,,,,,,,,,
,,?,0.000815,0,,,,,,stimuli/images/PICTURE_405.png,YEAR,5e9cc569aff5bd1ec9764db5,06/09/1952,2020-09-03_13h41.25.232,proactive2,2020.1.2,MacIntel,60,5f5126bb654d4b30ee6923d8,5f512aa262b184331912dad9,6,,,,,,anchor,,,,,,,,,,,4,1,0,14,14,34,1,,,,,,,,,,,,,,,,,,
,,?,0.000575,0,,,,,,stimuli/images/PICTURE_380.png,HONEY,5e9cc569aff5bd1ec9764db5,06/09/1952,2020-09-03_13h41.25.232,proactive2,2020.1.2,MacIntel,60,5f5126bb654d4b30ee6923d8,5f512aa262b184331912dad9,6,,,,,,gorilla,,,,,,,,,,,2,1,0,15,15,19,1,,,,,,,,,,,,,,,,,,
,,?,0.000635,0,,,,,,stimuli/images/PICTURE_675.png,SALE,5e9cc569aff5bd1ec9764db5,06/09/1952,2020-09-03_13h41.25.232,proactive2,2020.1.2,MacIntel,60,5f5126bb654d4b30ee6923d8,5f512aa262b184331912dad9,6,,,,,,windmill,,,,,,,,,,,5,1,0,16,16,47,1,,,,,,,,,,,,,,,,,,
,,TRIP,4.759805,0,,,,,,stimuli/images/PICTURE_108.png,FLIGHT,5e9cc569aff5bd1ec9764db5,06/09/1952,2020-09-03_13h41.25.232,proactive2,2020.1.2,MacIntel,60,5f5126bb654d4b30ee6923d8,5f512aa262b184331912dad9,6,,,,,,calendar,,,,,,,,,,,6,1,0,17,17,59,1,,,,,,,,,,,,,,,,,,
,,?,0.00118,0,,,,,,stimuli/images/PICTURE_233.png,LOTS,5e9cc569aff5bd1ec9764db5,06/09/1952,2020-09-03_13h41.25.232,proactive2,2020.1.2,MacIntel,60,5f5126bb654d4b30ee6923d8,5f512aa262b184331912dad9,6,,,,,,salt,,,,,,,,,,,5,1,0,18,18,42,1,,,,,,,,,,,,,,,,,,
,,?,0.00053,0,,,,,,stimuli/images/PICTURE_491.png,RIVER,5e9cc569aff5bd1ec9764db5,06/09/1952,2020-09-03_13h41.25.232,proactive2,2020.1.2,MacIntel,60,5f5126bb654d4b30ee6923d8,5f512aa262b184331912dad9,6,,,,,,rug,,,,,,,,,,,1,1,0,19,19,6,1,,,,,,,,,,,,,,,,,,
,,?,0.00057,0,,,,,,stimuli/images/PICTURE_383.png,SERIES,5e9cc569aff5bd1ec9764db5,06/09/1952,2020-09-03_13h41.25.232,proactive2,2020.1.2,MacIntel,60,5f5126bb654d4b30ee6923d8,5f512aa262b184331912dad9,6,,,,,,coin,,,,,,,,,,,5,1,0,20,20,46,1,,,,,,,,,,,,,,,,,,
,,?,0.000445,0,,,,,,stimuli/images/PICTURE_339.png,CLIENT,5e9cc569aff5bd1ec9764db5,06/09/1952,2020-09-03_13h41.25.232,proactive2,2020.1.2,MacIntel,60,5f5126bb654d4b30ee6923d8,5f512aa262b184331912dad9,6,,,,,,backpack,,,,,,,,,,,2,1,0,21,21,11,1,,,,,,,,,,,,,,,,,,
,,?,0.000435,0,,,,,,stimuli/images/PICTURE_380.png,CANDY,5e9cc569aff5bd1ec9764db5,06/09/1952,2020-09-03_13h41.25.232,proactive2,2020.1.2,MacIntel,60,5f5126bb654d4b30ee6923d8,5f512aa262b184331912dad9,6,,,,,,gorilla,,,,,,,,,,,1,1,0,22,22,0,1,,,,,,,,,,,,,,,,,,
,,?,0.00038,0,,,,,,stimuli/images/PICTURE_403.png,TOILET,5e9cc569aff5bd1ec9764db5,06/09/1952,2020-09-03_13h41.25.232,proactive2,2020.1.2,MacIntel,60,5f5126bb654d4b30ee6923d8,5f512aa262b184331912dad9,6,,,,,,cathedral,,,,,,,,,,,3,1,0,23,23,25,1,,,,,,,,,,,,,,,,,,
,,?,0.000365,0,,,,,,stimuli/images/PICTURE_147.png,YEAR,5e9cc569aff5bd1ec9764db5,06/09/1952,2020-09-03_13h41.25.232,proactive2,2020.1.2,MacIntel,60,5f5126bb654d4b30ee6923d8,5f512aa262b184331912dad9,6,,,,,,hanger,,,,,,,,,,,3,1,0,24,24,21,1,,,,,,,,,,,,,,,,,,
,,?,0.00039,0,,,,,,stimuli/images/PICTURE_147.png,WOMEN,5e9cc569aff5bd1ec9764db5,06/09/1952,2020-09-03_13h41.25.232,proactive2,2020.1.2,MacIntel,60,5f5126bb654d4b30ee6923d8,5f512aa262b184331912dad9,6,,,,,,hanger,,,,,,,,,,,1,1,0,25,25,7,1,,,,,,,,,,,,,,,,,,
,,?,0.000365,0,,,,,,stimuli/images/PICTURE_750.png,HOTEL,5e9cc569aff5bd1ec9764db5,06/09/1952,2020-09-03_13h41.25.232,proactive2,2020.1.2,MacIntel,60,5f5126bb654d4b30ee6923d8,5f512aa262b184331912dad9,6,,,,,,kettle,,,,,,,,,,,3,1,0,26,26,27,1,,,,,,,,,,,,,,,,,,
,,?,0.00035,0,,,,,,stimuli/images/PICTURE_68.png,ROOF,5e9cc569aff5bd1ec9764db5,06/09/1952,2020-09-03_13h41.25.232,proactive2,2020.1.2,MacIntel,60,5f5126bb654d4b30ee6923d8,5f512aa262b184331912dad9,6,,,,,,candle,,,,,,,,,,,4,1,0,27,27,38,1,,,,,,,,,,,,,,,,,,
,,?,0.00035,0,,,,,,stimuli/images/PICTURE_33.png,FRIEND,5e9cc569aff5bd1ec9764db5,06/09/1952,2020-09-03_13h41.25.232,proactive2,2020.1.2,MacIntel,60,5f5126bb654d4b30ee6923d8,5f512aa262b184331912dad9,6,,,,,,frame,,,,,,,,,,,1,1,0,28,28,8,1,,,,,,,,,,,,,,,,,,
,,BOYS,3.13701,1,,,,,,stimuli/images/PICTURE_42.png,BOYS,5e9cc569aff5bd1ec9764db5,06/09/1952,2020-09-03_13h41.25.232,proactive2,2020.1.2,MacIntel,60,5f5126bb654d4b30ee6923d8,5f512aa262b184331912dad9,6,,,,,,pear,,,,,,,,,,,6,1,0,29,29,55,1,,,,,,,,,,,,,,,,,,
,,KILLER,4.89919,0,,,,,,stimuli/images/PICTURE_708.png,RECORD,5e9cc569aff5bd1ec9764db5,06/09/1952,2020-09-03_13h41.25.232,proactive2,2020.1.2,MacIntel,60,5f5126bb654d4b30ee6923d8,5f512aa262b184331912dad9,6,,,,,,monkey,,,,,,,,,,,6,1,0,30,30,58,1,,,,,,,,,,,,,,,,,,
,,?,0.00092,0,,,,,,stimuli/images/PICTURE_677.png,APPLE,5e9cc569aff5bd1ec9764db5,06/09/1952,2020-09-03_13h41.25.232,proactive2,2020.1.2,MacIntel,60,5f5126bb654d4b30ee6923d8,5f512aa262b184331912dad9,6,,,,,,map,,,,,,,,,,,5,1,0,31,31,43,1,,,,,,,,,,,,,,,,,,
,,?,0.00053,0,,,,,,stimuli/images/PICTURE_327.png,SERIES,5e9cc569aff5bd1ec9764db5,06/09/1952,2020-09-03_13h41.25.232,proactive2,2020.1.2,MacIntel,60,5f5126bb654d4b30ee6923d8,5f512aa262b184331912dad9,6,,,,,,helmet,,,,,,,,,,,1,1,0,32,32,3,1,,,,,,,,,,,,,,,,,,
,,TRIP,4.34542,0,,,,,,stimuli/images/PICTURE_95.png,MILLER,5e9cc569aff5bd1ec9764db5,06/09/1952,2020-09-03_13h41.25.232,proactive2,2020.1.2,MacIntel,60,5f5126bb654d4b30ee6923d8,5f512aa262b184331912dad9,6,,,,,,suitcase,,,,,,,,,,,6,1,0,33,33,56,1,,,,,,,,,,,,,,,,,,
,,?,0.0013,0,,,,,,stimuli/images/PICTURE_685.png,PENNY,5e9cc569aff5bd1ec9764db5,06/09/1952,2020-09-03_13h41.25.232,proactive2,2020.1.2,MacIntel,60,5f5126bb654d4b30ee6923d8,5f512aa262b184331912dad9,6,,,,,,goose,,,,,,,,,,,1,1,0,34,34,4,1,,,,,,,,,,,,,,,,,,
,,?,0.00052,0,,,,,,stimuli/images/PICTURE_57.png,MOMENT,5e9cc569aff5bd1ec9764db5,06/09/1952,2020-09-03_13h41.25.232,proactive2,2020.1.2,MacIntel,60,5f5126bb654d4b30ee6923d8,5f512aa262b184331912dad9,6,,,,,,stamp,,,,,,,,,,,4,1,0,35,35,37,1,,,,,,,,,,,,,,,,,,
,,?,5.847785,0,,,,,,stimuli/images/PICTURE_467.png,POLICY,5e9cc569aff5bd1ec9764db5,06/09/1952,2020-09-03_13h41.25.232,proactive2,2020.1.2,MacIntel,60,5f5126bb654d4b30ee6923d8,5f512aa262b184331912dad9,6,,,,,,peg,,,,,,,,,,,6,1,0,36,36,53,1,,,,,,,,,,,,,,,,,,
,,?,0.00087,0,,,,,,stimuli/images/PICTURE_564.png,BATH,5e9cc569aff5bd1ec9764db5,06/09/1952,2020-09-03_13h41.25.232,proactive2,2020.1.2,MacIntel,60,5f5126bb654d4b30ee6923d8,5f512aa262b184331912dad9,6,,,,,,spoon,,,,,,,,,,,3,1,0,37,37,26,1,,,,,,,,,,,,,,,,,,
,,?,0.000535,0,,,,,,stimuli/images/PICTURE_403.png,RIVER,5e9cc569aff5bd1ec9764db5,06/09/1952,2020-09-03_13h41.25.232,proactive2,2020.1.2,MacIntel,60,5f5126bb654d4b30ee6923d8,5f512aa262b184331912dad9,6,,,,,,cathedral,,,,,,,,,,,5,1,0,38,38,40,1,,,,,,,,,,,,,,,,,,
,,?,0.00042,0,,,,,,stimuli/images/PICTURE_297.png,RIVER,5e9cc569aff5bd1ec9764db5,06/09/1952,2020-09-03_13h41.25.232,proactive2,2020.1.2,MacIntel,60,5f5126bb654d4b30ee6923d8,5f512aa262b184331912dad9,6,,,,,,aeroplane,,,,,,,,,,,4,1,0,39,39,39,1,,,,,,,,,,,,,,,,,,
,,?,0.000435,0,,,,,,stimuli/images/PICTURE_340.png,LETTER,5e9cc569aff5bd1ec9764db5,06/09/1952,2020-09-03_13h41.25.232,proactive2,2020.1.2,MacIntel,60,5f5126bb654d4b30ee6923d8,5f512aa262b184331912dad9,6,,,,,,mirror,,,,,,,,,,,3,1,0,40,40,24,1,,,,,,,,,,,,,,,,,,
,,?,0.004505,0,,,,,,stimuli/images/PICTURE_85.png,TOILET,5e9cc569aff5bd1ec9764db5,06/09/1952,2020-09-03_13h41.25.232,proactive2,2020.1.2,MacIntel,60,5f5126bb654d4b30ee6923d8,5f512aa262b184331912dad9,6,,,,,,diamond,,,,,,,,,,,5,1,0,41,41,48,1,,,,,,,,,,,,,,,,,,
,,?,0.00038,0,,,,,,stimuli/images/PICTURE_95.png,BOYS,5e9cc569aff5bd1ec9764db5,06/09/1952,2020-09-03_13h41.25.232,proactive2,2020.1.2,MacIntel,60,5f5126bb654d4b30ee6923d8,5f512aa262b184331912dad9,6,,,,,,suitcase,,,,,,,,,,,1,1,0,42,42,1,1,,,,,,,,,,,,,,,,,,
,,?,0.00035,0,,,,,,stimuli/images/PICTURE_491.png,GLASS,5e9cc569aff5bd1ec9764db5,06/09/1952,2020-09-03_13h41.25.232,proactive2,2020.1.2,MacIntel,60,5f5126bb654d4b30ee6923d8,5f512aa262b184331912dad9,6,,,,,,rug,,,,,,,,,,,2,1,0,43,43,14,1,,,,,,,,,,,,,,,,,,
,,?,0.000355,0,,,,,,stimuli/images/PICTURE_327.png,CASINO,5e9cc569aff5bd1ec9764db5,06/09/1952,2020-09-03_13h41.25.232,proactive2,2020.1.2,MacIntel,60,5f5126bb654d4b30ee6923d8,5f512aa262b184331912dad9,6,,,,,,helmet,,,,,,,,,,,3,1,0,44,44,20,1,,,,,,,,,,,,,,,,,,
,,?,0.001155,0,,,,,,stimuli/images/PICTURE_85.png,NATION,5e9cc569aff5bd1ec9764db5,06/09/1952,2020-09-03_13h41.25.232,proactive2,2020.1.2,MacIntel,60,5f5126bb654d4b30ee6923d8,5f512aa262b184331912dad9,6,,,,,,diamond,,,,,,,,,,,1,1,0,45,45,5,1,,,,,,,,,,,,,,,,,,
,,?,0.000455,0,,,,,,stimuli/images/PICTURE_108.png,POLICY,5e9cc569aff5bd1ec9764db5,06/09/1952,2020-09-03_13h41.25.232,proactive2,2020.1.2,MacIntel,60,5f5126bb654d4b30ee6923d8,5f512aa262b184331912dad9,6,,,,,,calendar,,,,,,,,,,,3,1,0,46,46,22,1,,,,,,,,,,,,,,,,,,
,,?,0.00041,0,,,,,,stimuli/images/PICTURE_2.png,FLIGHT,5e9cc569aff5bd1ec9764db5,06/09/1952,2020-09-03_13h41.25.232,proactive2,2020.1.2,MacIntel,60,5f5126bb654d4b30ee6923d8,5f512aa262b184331912dad9,6,,,,,,tyre,,,,,,,,,,,2,1,0,47,47,15,1,,,,,,,,,,,,,,,,,,
,,?,0.000395,0,,,,,,stimuli/images/PICTURE_203.png,NIGHT,5e9cc569aff5bd1ec9764db5,06/09/1952,2020-09-03_13h41.25.232,proactive2,2020.1.2,MacIntel,60,5f5126bb654d4b30ee6923d8,5f512aa262b184331912dad9,6,,,,,,cap,,,,,,,,,,,1,1,0,48,48,2,1,,,,,,,,,,,,,,,,,,
,,?,0.00036,0,,,,,,stimuli/images/PICTURE_177.png,WRITER,5e9cc569aff5bd1ec9764db5,06/09/1952,2020-09-03_13h41.25.232,proactive2,2020.1.2,MacIntel,60,5f5126bb654d4b30ee6923d8,5f512aa262b184331912dad9,6,,,,,,mushroom,,,,,,,,,,,5,1,0,49,49,41,1,,,,,,,,,,,,,,,,,,
,,?,0.00044,0,,,,,,stimuli/images/PICTURE_449.png,DUDE,5e9cc569aff5bd1ec9764db5,06/09/1952,2020-09-03_13h41.25.232,proactive2,2020.1.2,MacIntel,60,5f5126bb654d4b30ee6923d8,5f512aa262b184331912dad9,6,,,,,,bench,,,,,,,,,,,2,1,0,50,50,17,1,,,,,,,,,,,,,,,,,,
,,LIFE,4.662565,0,,,,,,stimuli/images/PICTURE_744.png,WEAPON,5e9cc569aff5bd1ec9764db5,06/09/1952,2020-09-03_13h41.25.232,proactive2,2020.1.2,MacIntel,60,5f5126bb654d4b30ee6923d8,5f512aa262b184331912dad9,6,,,,,,ring,,,,,,,,,,,6,1,0,51,51,50,1,,,,,,,,,,,,,,,,,,
,,?,0.001135,0,,,,,,stimuli/images/PICTURE_487.png,GIRL,5e9cc569aff5bd1ec9764db5,06/09/1952,2020-09-03_13h41.25.232,proactive2,2020.1.2,MacIntel,60,5f5126bb654d4b30ee6923d8,5f512aa262b184331912dad9,6,,,,,,basket,,,,,,,,,,,5,1,0,52,52,45,1,,,,,,,,,,,,,,,,,,
,,?,0.00053,0,,,,,,stimuli/images/PICTURE_95.png,HONEY,5e9cc569aff5bd1ec9764db5,06/09/1952,2020-09-03_13h41.25.232,proactive2,2020.1.2,MacIntel,60,5f5126bb654d4b30ee6923d8,5f512aa262b184331912dad9,6,,,,,,suitcase,,,,,,,,,,,5,1,0,53,53,44,1,,,,,,,,,,,,,,,,,,
,,?,0.000555,0,,,,,,stimuli/images/PICTURE_469.png,AGENT,5e9cc569aff5bd1ec9764db5,06/09/1952,2020-09-03_13h41.25.232,proactive2,2020.1.2,MacIntel,60,5f5126bb654d4b30ee6923d8,5f512aa262b184331912dad9,6,,,,,,stool,,,,,,,,,,,2,1,0,54,54,16,1,,,,,,,,,,,,,,,,,,
,,ROAD,6.811905,0,,,,,,stimuli/images/PICTURE_68.png,MILE,5e9cc569aff5bd1ec9764db5,06/09/1952,2020-09-03_13h41.25.232,proactive2,2020.1.2,MacIntel,60,5f5126bb654d4b30ee6923d8,5f512aa262b184331912dad9,6,,,,,,candle,,,,,,,,,,,6,1,0,55,55,51,1,,,,,,,,,,,,,,,,,,
,,?,0.001095,0,,,,,,stimuli/images/PICTURE_405.png,PLENTY,5e9cc569aff5bd1ec9764db5,06/09/1952,2020-09-03_13h41.25.232,proactive2,2020.1.2,MacIntel,60,5f5126bb654d4b30ee6923d8,5f512aa262b184331912dad9,6,,,,,,anchor,,,,,,,,,,,3,1,0,56,56,23,1,,,,,,,,,,,,,,,,,,
,,?,0.00049,0,,,,,,stimuli/images/PICTURE_504.png,YEAR,5e9cc569aff5bd1ec9764db5,06/09/1952,2020-09-03_13h41.25.232,proactive2,2020.1.2,MacIntel,60,5f5126bb654d4b30ee6923d8,5f512aa262b184331912dad9,6,,,,,,wheel,,,,,,,,,,,2,1,0,57,57,13,1,,,,,,,,,,,,,,,,,,
,,?,0.00056,0,,,,,,stimuli/images/PICTURE_667.png,RIVER,5e9cc569aff5bd1ec9764db5,06/09/1952,2020-09-03_13h41.25.232,proactive2,2020.1.2,MacIntel,60,5f5126bb654d4b30ee6923d8,5f512aa262b184331912dad9,6,,,,,,daisy,,,,,,,,,,,2,1,0,58,58,10,1,,,,,,,,,,,,,,,,,,
,,?,0.000485,0,,,,,,stimuli/images/PICTURE_296.png,LOTS,5e9cc569aff5bd1ec9764db5,06/09/1952,2020-09-03_13h41.25.232,proactive2,2020.1.2,MacIntel,60,5f5126bb654d4b30ee6923d8,5f512aa262b184331912dad9,6,,,,,,bolt,,,,,,,,,,,1,1,0,59,59,9,1,,,,,,,,,,,,,,,,,,
,,,,,,,,,,,,5e9cc569aff5bd1ec9764db5,06/09/1952,2020-09-03_13h41.25.232,proactive2,2020.1.2,MacIntel,60,5f5126bb654d4b30ee6923d8,5f512aa262b184331912dad9,6,,,,,,,,,,,,,,,,,,,,,,,,0,0,0,1,1,stimuli/learn-block2.csv,,,,,,,,,,,,
,,,,,,,,,,stimuli/images/PICTURE_744.png,SYSTEM,5e9cc569aff5bd1ec9764db5,06/09/1952,2020-09-03_13h41.25.232,proactive2,2020.1.2,MacIntel,60,5f5126bb654d4b30ee6923d8,5f512aa262b184331912dad9,6,,,,,,ring,,,,,,0,0,0,43,1,5,0,,,,,,,,,,,,,,,,,,,,,,,
,,,,,,,,,,stimuli/images/PICTURE_147.png,MOMENT,5e9cc569aff5bd1ec9764db5,06/09/1952,2020-09-03_13h41.25.232,proactive2,2020.1.2,MacIntel,60,5f5126bb654d4b30ee6923d8,5f512aa262b184331912dad9,6,,,,,,hanger,,,,,,0,1,1,51,1,6,0,,,,,,,,,,,,,,,,,,,,,,,
,,,,,,,,,,stimuli/images/PICTURE_308.png,KIND,5e9cc569aff5bd1ec9764db5,06/09/1952,2020-09-03_13h41.25.232,proactive2,2020.1.2,MacIntel,60,5f5126bb654d4b30ee6923d8,5f512aa262b184331912dad9,6,,,,,,dice,,,,,,0,2,2,54,1,6,0,,,,,,,,,,,,,,,,,,,,,,,
,,,,,,,,,,stimuli/images/PICTURE_453.png,PLENTY,5e9cc569aff5bd1ec9764db5,06/09/1952,2020-09-03_13h41.25.232,proactive2,2020.1.2,MacIntel,60,5f5126bb654d4b30ee6923d8,5f512aa262b184331912dad9,6,,,,,,scissors,,,,,,0,3,3,56,1,6,0,,,,,,,,,,,,,,,,,,,,,,,
,,,,,,,,,,stimuli/images/PICTURE_208.png,LOTS,5e9cc569aff5bd1ec9764db5,06/09/1952,2020-09-03_13h41.25.232,proactive2,2020.1.2,MacIntel,60,5f5126bb654d4b30ee6923d8,5f512aa262b184331912dad9,6,,,,,,microphone,,,,,,0,4,4,10,1,2,0,,,,,,,,,,,,,,,,,,,,,,,
,,,,,,,,,,stimuli/images/PICTURE_302.png,FAMILY,5e9cc569aff5bd1ec9764db5,06/09/1952,2020-09-03_13h41.25.232,proactive2,2020.1.2,MacIntel,60,5f5126bb654d4b30ee6923d8,5f512aa262b184331912dad9,6,,,,,,taxi,,,,,,0,5,5,18,1,2,0,,,,,,,,,,,,,,,,,,,,,,,
,,,,,,,,,,stimuli/images/PICTURE_285.png,ADVICE,5e9cc569aff5bd1ec9764db5,06/09/1952,2020-09-03_13h41.25.232,proactive2,2020.1.2,MacIntel,60,5f5126bb654d4b30ee6923d8,5f512aa262b184331912dad9,6,,,,,,carrot,,,,,,0,6,6,12,1,2,0,,,,,,,,,,,,,,,,,,,,,,,
,,,,,,,,,,stimuli/images/PICTURE_348.png,SPEECH,5e9cc569aff5bd1ec9764db5,06/09/1952,2020-09-03_13h41.25.232,proactive2,2020.1.2,MacIntel,60,5f5126bb654d4b30ee6923d8,5f512aa262b184331912dad9,6,,,,,,pepper,,,,,,0,7,7,20,1,3,0,,,,,,,,,,,,,,,,,,,,,,,
,,,,,,,,,,stimuli/images/PICTURE_509.png,PHOTO,5e9cc569aff5bd1ec9764db5,06/09/1952,2020-09-03_13h41.25.232,proactive2,2020.1.2,MacIntel,60,5f5126bb654d4b30ee6923d8,5f512aa262b184331912dad9,6,,,,,,telephone,,,,,,0,8,8,21,1,3,0,,,,,,,,,,,,,,,,,,,,,,,
,,,,,,,,,,stimuli/images/PICTURE_68.png,MILE,5e9cc569aff5bd1ec9764db5,06/09/1952,2020-09-03_13h41.25.232,proactive2,2020.1.2,MacIntel,60,5f5126bb654d4b30ee6923d8,5f512aa262b184331912dad9,6,,,,,,candle,,,,,,0,9,9,44,1,5,0,,,,,,,,,,,,,,,,,,,,,,,
,,,,,,,,,,stimuli/images/PICTURE_177.png,CARS,5e9cc569aff5bd1ec9764db5,06/09/1952,2020-09-03_13h41.25.232,proactive2,2020.1.2,MacIntel,60,5f5126bb654d4b30ee6923d8,5f512aa262b184331912dad9,6,,,,,,mushroom,,,,,,0,10,10,35,1,4,0,,,,,,,,,,,,,,,,,,,,,,,
,,,,,,,,,,stimuli/images/PICTURE_32.png,JUNGLE,5e9cc569aff5bd1ec9764db5,06/09/1952,2020-09-03_13h41.25.232,proactive2,2020.1.2,MacIntel,60,5f5126bb654d4b30ee6923d8,5f512aa262b184331912dad9,6,,,,,,crown,,,,,,0,11,11,45,1,5,0,,,,,,,,,,,,,,,,,,,,,,,
,,,,,,,,,,stimuli/images/PICTURE_208.png,THING,5e9cc569aff5bd1ec9764db5,06/09/1952,2020-09-03_13h41.25.232,proactive2,2020.1.2,MacIntel,60,5f5126bb654d4b30ee6923d8,5f512aa262b184331912dad9,6,,,,,,microphone,,,,,,0,12,12,47,1,5,0,,,,,,,,,,,,,,,,,,,,,,,
,,,,,,,,,,stimuli/images/PICTURE_311.png,FRIEND,5e9cc569aff5bd1ec9764db5,06/09/1952,2020-09-03_13h41.25.232,proactive2,2020.1.2,MacIntel,60,5f5126bb654d4b30ee6923d8,5f512aa262b184331912dad9,6,,,,,,razor,,,,,,0,13,13,34,1,4,0,,,,,,,,,,,,,,,,,,,,,,,
,,,,,,,,,,stimuli/images/PICTURE_491.png,ROOF,5e9cc569aff5bd1ec9764db5,06/09/1952,2020-09-03_13h41.25.232,proactive2,2020.1.2,MacIntel,60,5f5126bb654d4b30ee6923d8,5f512aa262b184331912dad9,6,,,,,,rug,,,,,,0,14,14,24,1,3,0,,,,,,,,,,,,,,,,,,,,,,,
,,,,,,,,,,stimuli/images/PICTURE_675.png,WEAPON,5e9cc569aff5bd1ec9764db5,06/09/1952,2020-09-03_13h41.25.232,proactive2,2020.1.2,MacIntel,60,5f5126bb654d4b30ee6923d8,5f512aa262b184331912dad9,6,,,,,,windmill,,,,,,0,15,15,32,1,4,0,,,,,,,,,,,,,,,,,,,,,,,
,,,,,,,,,,stimuli/images/PICTURE_688.png,CASINO,5e9cc569aff5bd1ec9764db5,06/09/1952,2020-09-03_13h41.25.232,proactive2,2020.1.2,MacIntel,60,5f5126bb654d4b30ee6923d8,5f512aa262b184331912dad9,6,,,,,,runner,,,,,,0,16,16,2,1,1,0,,,,,,,,,,,,,,,,,,,,,,,
,,,,,,,,,,stimuli/images/PICTURE_203.png,ARTIST,5e9cc569aff5bd1ec9764db5,06/09/1952,2020-09-03_13h41.25.232,proactive2,2020.1.2,MacIntel,60,5f5126bb654d4b30ee6923d8,5f512aa262b184331912dad9,6,,,,,,cap,,,,,,0,17,17,26,1,3,0,,,,,,,,,,,,,,,,,,,,,,,
,,,,,,,,,,stimuli/images/PICTURE_123.png,ADVICE,5e9cc569aff5bd1ec9764db5,06/09/1952,2020-09-03_13h41.25.232,proactive2,2020.1.2,MacIntel,60,5f5126bb654d4b30ee6923d8,5f512aa262b184331912dad9,6,,,,,,dart,,,,,,0,18,18,40,1,5,0,,,,,,,,,,,,,,,,,,,,,,,
,,,,,,,,,,stimuli/images/PICTURE_95.png,STYLE,5e9cc569aff5bd1ec9764db5,06/09/1952,2020-09-03_13h41.25.232,proactive2,2020.1.2,MacIntel,60,5f5126bb654d4b30ee6923d8,5f512aa262b184331912dad9,6,,,,,,suitcase,,,,,,0,19,19,25,1,3,0,,,,,,,,,,,,,,,,,,,,,,,
,,,,,,,,,,stimuli/images/PICTURE_308.png,ESTATE,5e9cc569aff5bd1ec9764db5,06/09/1952,2020-09-03_13h41.25.232,proactive2,2020.1.2,MacIntel,60,5f5126bb654d4b30ee6923d8,5f512aa262b184331912dad9,6,,,,,,dice,,,,,,0,20,20,46,1,5,0,,,,,,,,,,,,,,,,,,,,,,,
,,,,,,,,,,stimuli/images/PICTURE_85.png,THING,5e9cc569aff5bd1ec9764db5,06/09/1952,2020-09-03_13h41.25.232,proactive2,2020.1.2,MacIntel,60,5f5126bb654d4b30ee6923d8,5f512aa262b184331912dad9,6,,,,,,diamond,,,,,,0,21,21,15,1,2,0,,,,,,,,,,,,,,,,,,,,,,,
,,,,,,,,,,stimuli/images/PICTURE_215.png,PLENTY,5e9cc569aff5bd1ec9764db5,06/09/1952,2020-09-03_13h41.25.232,proactive2,2020.1.2,MacIntel,60,5f5126bb654d4b30ee6923d8,5f512aa262b184331912dad9,6,,,,,,boot,,,,,,0,22,22,37,1,4,0,,,,,,,,,,,,,,,,,,,,,,,
,,,,,,,,,,stimuli/images/PICTURE_314.png,SAKE,5e9cc569aff5bd1ec9764db5,06/09/1952,2020-09-03_13h41.25.232,proactive2,2020.1.2,MacIntel,60,5f5126bb654d4b30ee6923d8,5f512aa262b184331912dad9,6,,,,,,perfume,,,,,,0,23,23,7,1,1,0,,,,,,,,,,,,,,,,,,,,,,,
,,,,,,,,,,stimuli/images/PICTURE_208.png,MONTH,5e9cc569aff5bd1ec9764db5,06/09/1952,2020-09-03_13h41.25.232,proactive2,2020.1.2,MacIntel,60,5f5126bb654d4b30ee6923d8,5f512aa262b184331912dad9,6,,,,,,microphone,,,,,,0,24,24,53,1,6,0,,,,,,,,,,,,,,,,,,,,,,,
,,,,,,,,,,stimuli/images/PICTURE_744.png,SAKE,5e9cc569aff5bd1ec9764db5,06/09/1952,2020-09-03_13h41.25.232,proactive2,2020.1.2,MacIntel,60,5f5126bb654d4b30ee6923d8,5f512aa262b184331912dad9,6,,,,,,ring,,,,,,0,25,25,17,1,2,0,,,,,,,,,,,,,,,,,,,,,,,
,,,,,,,,,,stimuli/images/PICTURE_708.png,CLIENT,5e9cc569aff5bd1ec9764db5,06/09/1952,2020-09-03_13h41.25.232,proactive2,2020.1.2,MacIntel,60,5f5126bb654d4b30ee6923d8,5f512aa262b184331912dad9,6,,,,,,monkey,,,,,,0,26,26,5,1,1,0,,,,,,,,,,,,,,,,,,,,,,,
,,,,,,,,,,stimuli/images/PICTURE_314.png,GODS,5e9cc569aff5bd1ec9764db5,06/09/1952,2020-09-03_13h41.25.232,proactive2,2020.1.2,MacIntel,60,5f5126bb654d4b30ee6923d8,5f512aa262b184331912dad9,6,,,,,,perfume,,,,,,0,27,27,11,1,2,0,,,,,,,,,,,,,,,,,,,,,,,
,,,,,,,,,,stimuli/images/PICTURE_667.png,BATH,5e9cc569aff5bd1ec9764db5,06/09/1952,2020-09-03_13h41.25.232,proactive2,2020.1.2,MacIntel,60,5f5126bb654d4b30ee6923d8,5f512aa262b184331912dad9,6,,,,,,daisy,,,,,,0,28,28,4,1,1,0,,,,,,,,,,,,,,,,,,,,,,,
,,,,,,,,,,stimuli/images/PICTURE_327.png,BEAUTY,5e9cc569aff5bd1ec9764db5,06/09/1952,2020-09-03_13h41.25.232,proactive2,2020.1.2,MacIntel,60,5f5126bb654d4b30ee6923d8,5f512aa262b184331912dad9,6,,,,,,helmet,,,,,,0,29,29,48,1,5,0,,,,,,,,,,,,,,,,,,,,,,,
,,,,,,,,,,stimuli/images/PICTURE_311.png,BEAUTY,5e9cc569aff5bd1ec9764db5,06/09/1952,2020-09-03_13h41.25.232,proactive2,2020.1.2,MacIntel,60,5f5126bb654d4b30ee6923d8,5f512aa262b184331912dad9,6,,,,,,razor,,,,,,0,30,30,13,1,2,0,,,,,,,,,,,,,,,,,,,,,,,
,,,,,,,,,,stimuli/images/PICTURE_504.png,BODY,5e9cc569aff5bd1ec9764db5,06/09/1952,2020-09-03_13h41.25.232,proactive2,2020.1.2,MacIntel,60,5f5126bb654d4b30ee6923d8,5f512aa262b184331912dad9,6,,,,,,wheel,,,,,,0,31,31,8,1,1,0,,,,,,,,,,,,,,,,,,,,,,,
,,,,,,,,,,stimuli/images/PICTURE_453.png,DUDE,5e9cc569aff5bd1ec9764db5,06/09/1952,2020-09-03_13h41.25.232,proactive2,2020.1.2,MacIntel,60,5f5126bb654d4b30ee6923d8,5f512aa262b184331912dad9,6,,,,,,scissors,,,,,,0,32,32,27,1,3,0,,,,,,,,,,,,,,,,,,,,,,,
,,,,,,,,,,stimuli/images/PICTURE_356.png,DANGER,5e9cc569aff5bd1ec9764db5,06/09/1952,2020-09-03_13h41.25.232,proactive2,2020.1.2,MacIntel,60,5f5126bb654d4b30ee6923d8,5f512aa262b184331912dad9,6,,,,,,pawn,,,,,,0,33,33,55,1,6,0,,,,,,,,,,,,,,,,,,,,,,,
,,,,,,,,,,stimuli/images/PICTURE_692.png,MONTH,5e9cc569aff5bd1ec9764db5,06/09/1952,2020-09-03_13h41.25.232,proactive2,2020.1.2,MacIntel,60,5f5126bb654d4b30ee6923d8,5f512aa262b184331912dad9,6,,,,,,cherry,,,,,,0,34,34,16,1,2,0,,,,,,,,,,,,,,,,,,,,,,,
,,,,,,,,,,stimuli/images/PICTURE_708.png,PENNY,5e9cc569aff5bd1ec9764db5,06/09/1952,2020-09-03_13h41.25.232,proactive2,2020.1.2,MacIntel,60,5f5126bb654d4b30ee6923d8,5f512aa262b184331912dad9,6,,,,,,monkey,,,,,,0,35,35,31,1,4,0,,,,,,,,,,,,,,,,,,,,,,,
,,,,,,,,,,stimuli/images/PICTURE_160.png,LEADER,5e9cc569aff5bd1ec9764db5,06/09/1952,2020-09-03_13h41.25.232,proactive2,2020.1.2,MacIntel,60,5f5126bb654d4b30ee6923d8,5f512aa262b184331912dad9,6,,,,,,wheelbarrow,,,,,,0,36,36,3,1,1,0,,,,,,,,,,,,,,,,,,,,,,,
,,,,,,,,,,stimuli/images/PICTURE_487.png,FLIGHT,5e9cc569aff5bd1ec9764db5,06/09/1952,2020-09-03_13h41.25.232,proactive2,2020.1.2,MacIntel,60,5f5126bb654d4b30ee6923d8,5f512aa262b184331912dad9,6,,,,,,basket,,,,,,0,37,37,9,1,1,0,,,,,,,,,,,,,,,,,,,,,,,
,,,,,,,,,,stimuli/images/PICTURE_255.png,AREA,5e9cc569aff5bd1ec9764db5,06/09/1952,2020-09-03_13h41.25.232,proactive2,2020.1.2,MacIntel,60,5f5126bb654d4b30ee6923d8,5f512aa262b184331912dad9,6,,,,,,shovel,,,,,,0,38,38,22,1,3,0,,,,,,,,,,,,,,,,,,,,,,,
,,,,,,,,,,stimuli/images/PICTURE_469.png,ARTIST,5e9cc569aff5bd1ec9764db5,06/09/1952,2020-09-03_13h41.25.232,proactive2,2020.1.2,MacIntel,60,5f5126bb654d4b30ee6923d8,5f512aa262b184331912dad9,6,,,,,,stool,,,,,,0,39,39,6,1,1,0,,,,,,,,,,,,,,,,,,,,,,,
,,,,,,,,,,stimuli/images/PICTURE_688.png,WOMEN,5e9cc569aff5bd1ec9764db5,06/09/1952,2020-09-03_13h41.25.232,proactive2,2020.1.2,MacIntel,60,5f5126bb654d4b30ee6923d8,5f512aa262b184331912dad9,6,,,,,,runner,,,,,,0,40,40,14,1,2,0,,,,,,,,,,,,,,,,,,,,,,,
,,,,,,,,,,stimuli/images/PICTURE_470.png,CASINO,5e9cc569aff5bd1ec9764db5,06/09/1952,2020-09-03_13h41.25.232,proactive2,2020.1.2,MacIntel,60,5f5126bb654d4b30ee6923d8,5f512aa262b184331912dad9,6,,,,,,motorbike,,,,,,0,41,41,36,1,4,0,,,,,,,,,,,,,,,,,,,,,,,
,,,,,,,,,,stimuli/images/PICTURE_708.png,YARD,5e9cc569aff5bd1ec9764db5,06/09/1952,2020-09-03_13h41.25.232,proactive2,2020.1.2,MacIntel,60,5f5126bb654d4b30ee6923d8,5f512aa262b184331912dad9,6,,,,,,monkey,,,,,,0,42,42,29,1,3,0,,,,,,,,,,,,,,,,,,,,,,,
,,,,,,,,,,stimuli/images/PICTURE_123.png,ADVICE,5e9cc569aff5bd1ec9764db5,06/09/1952,2020-09-03_13h41.25.232,proactive2,2020.1.2,MacIntel,60,5f5126bb654d4b30ee6923d8,5f512aa262b184331912dad9,6,,,,,,dart,,,,,,0,43,43,50,1,6,0,,,,,,,,,,,,,,,,,,,,,,,
,,,,,,,,,,stimuli/images/PICTURE_654.png,VALLEY,5e9cc569aff5bd1ec9764db5,06/09/1952,2020-09-03_13h41.25.232,proactive2,2020.1.2,MacIntel,60,5f5126bb654d4b30ee6923d8,5f512aa262b184331912dad9,6,,,,,,pencil,,,,,,0,44,44,1,1,1,0,,,,,,,,,,,,,,,,,,,,,,,
,,,,,,,,,,stimuli/images/PICTURE_233.png,IDEAS,5e9cc569aff5bd1ec9764db5,06/09/1952,2020-09-03_13h41.25.232,proactive2,2020.1.2,MacIntel,60,5f5126bb654d4b30ee6923d8,5f512aa262b184331912dad9,6,,,,,,salt,,,,,,0,45,45,28,1,3,0,,,,,,,,,,,,,,,,,,,,,,,
,,,,,,,,,,stimuli/images/PICTURE_677.png,MILE,5e9cc569aff5bd1ec9764db5,06/09/1952,2020-09-03_13h41.25.232,proactive2,2020.1.2,MacIntel,60,5f5126bb654d4b30ee6923d8,5f512aa262b184331912dad9,6,,,,,,map,,,,,,0,46,46,30,1,4,0,,,,,,,,,,,,,,,,,,,,,,,
,,,,,,,,,,stimuli/images/PICTURE_469.png,LETTER,5e9cc569aff5bd1ec9764db5,06/09/1952,2020-09-03_13h41.25.232,proactive2,2020.1.2,MacIntel,60,5f5126bb654d4b30ee6923d8,5f512aa262b184331912dad9,6,,,,,,stool,,,,,,0,47,47,42,1,5,0,,,,,,,,,,,,,,,,,,,,,,,
,,,,,,,,,,stimuli/images/PICTURE_488.png,STYLE,5e9cc569aff5bd1ec9764db5,06/09/1952,2020-09-03_13h41.25.232,proactive2,2020.1.2,MacIntel,60,5f5126bb654d4b30ee6923d8,5f512aa262b184331912dad9,6,,,,,,sun,,,,,,0,48,48,33,1,4,0,,,,,,,,,,,,,,,,,,,,,,,
,,,,,,,,,,stimuli/images/PICTURE_233.png,WOMEN,5e9cc569aff5bd1ec9764db5,06/09/1952,2020-09-03_13h41.25.232,proactive2,2020.1.2,MacIntel,60,5f5126bb654d4b30ee6923d8,5f512aa262b184331912dad9,6,,,,,,salt,,,,,,0,49,49,38,1,4,0,,,,,,,,,,,,,,,,,,,,,,,
,,,,,,,,,,stimuli/images/PICTURE_467.png,DEMON,5e9cc569aff5bd1ec9764db5,06/09/1952,2020-09-03_13h41.25.232,proactive2,2020.1.2,MacIntel,60,5f5126bb654d4b30ee6923d8,5f512aa262b184331912dad9,6,,,,,,peg,,,,,,0,50,50,23,1,3,0,,,,,,,,,,,,,,,,,,,,,,,
,,,,,,,,,,stimuli/images/PICTURE_339.png,PLENTY,5e9cc569aff5bd1ec9764db5,06/09/1952,2020-09-03_13h41.25.232,proactive2,2020.1.2,MacIntel,60,5f5126bb654d4b30ee6923d8,5f512aa262b184331912dad9,6,,,,,,backpack,,,,,,0,51,51,0,1,1,0,,,,,,,,,,,,,,,,,,,,,,,
,,,,,,,,,,stimuli/images/PICTURE_491.png,WRITER,5e9cc569aff5bd1ec9764db5,06/09/1952,2020-09-03_13h41.25.232,proactive2,2020.1.2,MacIntel,60,5f5126bb654d4b30ee6923d8,5f512aa262b184331912dad9,6,,,,,,rug,,,,,,0,52,52,57,1,6,0,,,,,,,,,,,,,,,,,,,,,,,
,,,,,,,,,,stimuli/images/PICTURE_151.png,GIRL,5e9cc569aff5bd1ec9764db5,06/09/1952,2020-09-03_13h41.25.232,proactive2,2020.1.2,MacIntel,60,5f5126bb654d4b30ee6923d8,5f512aa262b184331912dad9,6,,,,,,tray,,,,,,0,53,53,19,1,2,0,,,,,,,,,,,,,,,,,,,,,,,
,,,,,,,,,,stimuli/images/PICTURE_160.png,FEET,5e9cc569aff5bd1ec9764db5,06/09/1952,2020-09-03_13h41.25.232,proactive2,2020.1.2,MacIntel,60,5f5126bb654d4b30ee6923d8,5f512aa262b184331912dad9,6,,,,,,wheelbarrow,,,,,,0,54,54,58,1,6,0,,,,,,,,,,,,,,,,,,,,,,,
,,,,,,,,,,stimuli/images/PICTURE_667.png,PLENTY,5e9cc569aff5bd1ec9764db5,06/09/1952,2020-09-03_13h41.25.232,proactive2,2020.1.2,MacIntel,60,5f5126bb654d4b30ee6923d8,5f512aa262b184331912dad9,6,,,,,,daisy,,,,,,0,55,55,41,1,5,0,,,,,,,,,,,,,,,,,,,,,,,
,,,,,,,,,,stimuli/images/PICTURE_380.png,PHOTO,5e9cc569aff5bd1ec9764db5,06/09/1952,2020-09-03_13h41.25.232,proactive2,2020.1.2,MacIntel,60,5f5126bb654d4b30ee6923d8,5f512aa262b184331912dad9,6,,,,,,gorilla,,,,,,0,56,56,52,1,6,0,,,,,,,,,,,,,,,,,,,,,,,
,,,,,,,,,,stimuli/images/PICTURE_380.png,DEATH,5e9cc569aff5bd1ec9764db5,06/09/1952,2020-09-03_13h41.25.232,proactive2,2020.1.2,MacIntel,60,5f5126bb654d4b30ee6923d8,5f512aa262b184331912dad9,6,,,,,,gorilla,,,,,,0,57,57,49,1,5,0,,,,,,,,,,,,,,,,,,,,,,,
,,,,,,,,,,stimuli/images/PICTURE_449.png,THING,5e9cc569aff5bd1ec9764db5,06/09/1952,2020-09-03_13h41.25.232,proactive2,2020.1.2,MacIntel,60,5f5126bb654d4b30ee6923d8,5f512aa262b184331912dad9,6,,,,,,bench,,,,,,0,58,58,59,1,6,0,,,,,,,,,,,,,,,,,,,,,,,
,,?,0.00065,0,,,,,,stimuli/images/PICTURE_744.png,SAKE,5e9cc569aff5bd1ec9764db5,06/09/1952,2020-09-03_13h41.25.232,proactive2,2020.1.2,MacIntel,60,5f5126bb654d4b30ee6923d8,5f512aa262b184331912dad9,6,,,,,,ring,,,,,,,,,,,2,0,0,0,0,17,1,,,,,,,,,,,,,,,,,,
,,?,0.00045,0,,,,,,stimuli/images/PICTURE_677.png,MILE,5e9cc569aff5bd1ec9764db5,06/09/1952,2020-09-03_13h41.25.232,proactive2,2020.1.2,MacIntel,60,5f5126bb654d4b30ee6923d8,5f512aa262b184331912dad9,6,,,,,,map,,,,,,,,,,,4,0,0,1,1,30,1,,,,,,,,,,,,,,,,,,
,,DRAG,11.691905,0,,,,,,stimuli/images/PICTURE_356.png,DANGER,5e9cc569aff5bd1ec9764db5,06/09/1952,2020-09-03_13h41.25.232,proactive2,2020.1.2,MacIntel,60,5f5126bb654d4b30ee6923d8,5f512aa262b184331912dad9,6,,,,,,pawn,,,,,,,,,,,6,0,0,2,2,55,1,,,,,,,,,,,,,,,,,,
,,?,0.00106,0,,,,,,stimuli/images/PICTURE_470.png,CASINO,5e9cc569aff5bd1ec9764db5,06/09/1952,2020-09-03_13h41.25.232,proactive2,2020.1.2,MacIntel,60,5f5126bb654d4b30ee6923d8,5f512aa262b184331912dad9,6,,,,,,motorbike,,,,,,,,,,,4,0,0,3,3,36,1,,,,,,,,,,,,,,,,,,
,,?,0.000605,0,,,,,,stimuli/images/PICTURE_688.png,CASINO,5e9cc569aff5bd1ec9764db5,06/09/1952,2020-09-03_13h41.25.232,proactive2,2020.1.2,MacIntel,60,5f5126bb654d4b30ee6923d8,5f512aa262b184331912dad9,6,,,,,,runner,,,,,,,,,,,1,0,0,4,4,2,1,,,,,,,,,,,,,,,,,,
,,?,0.000565,0,,,,,,stimuli/images/PICTURE_487.png,FLIGHT,5e9cc569aff5bd1ec9764db5,06/09/1952,2020-09-03_13h41.25.232,proactive2,2020.1.2,MacIntel,60,5f5126bb654d4b30ee6923d8,5f512aa262b184331912dad9,6,,,,,,basket,,,,,,,,,,,1,0,0,5,5,9,1,,,,,,,,,,,,,,,,,,
,,?,0.000415,0,,,,,,stimuli/images/PICTURE_467.png,DEMON,5e9cc569aff5bd1ec9764db5,06/09/1952,2020-09-03_13h41.25.232,proactive2,2020.1.2,MacIntel,60,5f5126bb654d4b30ee6923d8,5f512aa262b184331912dad9,6,,,,,,peg,,,,,,,,,,,3,0,0,6,6,23,1,,,,,,,,,,,,,,,,,,
,,?,0.00036,0,,,,,,stimuli/images/PICTURE_255.png,AREA,5e9cc569aff5bd1ec9764db5,06/09/1952,2020-09-03_13h41.25.232,proactive2,2020.1.2,MacIntel,60,5f5126bb654d4b30ee6923d8,5f512aa262b184331912dad9,6,,,,,,shovel,,,,,,,,,,,3,0,0,7,7,22,1,,,,,,,,,,,,,,,,,,
,,?,0.000365,0,,,,,,stimuli/images/PICTURE_311.png,BEAUTY,5e9cc569aff5bd1ec9764db5,06/09/1952,2020-09-03_13h41.25.232,proactive2,2020.1.2,MacIntel,60,5f5126bb654d4b30ee6923d8,5f512aa262b184331912dad9,6,,,,,,razor,,,,,,,,,,,2,0,0,8,8,13,1,,,,,,,,,,,,,,,,,,
,,?,0.000345,0,,,,,,stimuli/images/PICTURE_339.png,PLENTY,5e9cc569aff5bd1ec9764db5,06/09/1952,2020-09-03_13h41.25.232,proactive2,2020.1.2,MacIntel,60,5f5126bb654d4b30ee6923d8,5f512aa262b184331912dad9,6,,,,,,backpack,,,,,,,,,,,1,0,0,9,9,0,1,,,,,,,,,,,,,,,,,,
,,?,0.000345,0,,,,,,stimuli/images/PICTURE_208.png,THING,5e9cc569aff5bd1ec9764db5,06/09/1952,2020-09-03_13h41.25.232,proactive2,2020.1.2,MacIntel,60,5f5126bb654d4b30ee6923d8,5f512aa262b184331912dad9,6,,,,,,microphone,,,,,,,,,,,5,0,0,10,10,47,1,,,,,,,,,,,,,,,,,,
,,?,0.00034,0,,,,,,stimuli/images/PICTURE_308.png,ESTATE,5e9cc569aff5bd1ec9764db5,06/09/1952,2020-09-03_13h41.25.232,proactive2,2020.1.2,MacIntel,60,5f5126bb654d4b30ee6923d8,5f512aa262b184331912dad9,6,,,,,,dice,,,,,,,,,,,5,0,0,11,11,46,1,,,,,,,,,,,,,,,,,,
,,?,0.000335,0,,,,,,stimuli/images/PICTURE_744.png,SYSTEM,5e9cc569aff5bd1ec9764db5,06/09/1952,2020-09-03_13h41.25.232,proactive2,2020.1.2,MacIntel,60,5f5126bb654d4b30ee6923d8,5f512aa262b184331912dad9,6,,,,,,ring,,,,,,,,,,,5,0,0,12,12,43,1,,,,,,,,,,,,,,,,,,
,,?,0.00034,0,,,,,,stimuli/images/PICTURE_348.png,SPEECH,5e9cc569aff5bd1ec9764db5,06/09/1952,2020-09-03_13h41.25.232,proactive2,2020.1.2,MacIntel,60,5f5126bb654d4b30ee6923d8,5f512aa262b184331912dad9,6,,,,,,pepper,,,,,,,,,,,3,0,0,13,13,20,1,,,,,,,,,,,,,,,,,,
,,?,0.000335,0,,,,,,stimuli/images/PICTURE_68.png,MILE,5e9cc569aff5bd1ec9764db5,06/09/1952,2020-09-03_13h41.25.232,proactive2,2020.1.2,MacIntel,60,5f5126bb654d4b30ee6923d8,5f512aa262b184331912dad9,6,,,,,,candle,,,,,,,,,,,5,0,0,14,14,44,1,,,,,,,,,,,,,,,,,,
,,?,0.00034,0,,,,,,stimuli/images/PICTURE_123.png,ADVICE,5e9cc569aff5bd1ec9764db5,06/09/1952,2020-09-03_13h41.25.232,proactive2,2020.1.2,MacIntel,60,5f5126bb654d4b30ee6923d8,5f512aa262b184331912dad9,6,,,,,,dart,,,,,,,,,,,5,0,0,15,15,40,1,,,,,,,,,,,,,,,,,,
,,?,0.00052,0,,,,,,stimuli/images/PICTURE_667.png,BATH,5e9cc569aff5bd1ec9764db5,06/09/1952,2020-09-03_13h41.25.232,proactive2,2020.1.2,MacIntel,60,5f5126bb654d4b30ee6923d8,5f512aa262b184331912dad9,6,,,,,,daisy,,,,,,,,,,,1,0,0,16,16,4,1,,,,,,,,,,,,,,,,,,
,,?,0.00045,0,,,,,,stimuli/images/PICTURE_654.png,VALLEY,5e9cc569aff5bd1ec9764db5,06/09/1952,2020-09-03_13h41.25.232,proactive2,2020.1.2,MacIntel,60,5f5126bb654d4b30ee6923d8,5f512aa262b184331912dad9,6,,,,,,pencil,,,,,,,,,,,1,0,0,17,17,1,1,,,,,,,,,,,,,,,,,,
,,?,0.000395,0,,,,,,stimuli/images/PICTURE_692.png,MONTH,5e9cc569aff5bd1ec9764db5,06/09/1952,2020-09-03_13h41.25.232,proactive2,2020.1.2,MacIntel,60,5f5126bb654d4b30ee6923d8,5f512aa262b184331912dad9,6,,,,,,cherry,,,,,,,,,,,2,0,0,18,18,16,1,,,,,,,,,,,,,,,,,,
,,?,0.00045,0,,,,,,stimuli/images/PICTURE_667.png,PLENTY,5e9cc569aff5bd1ec9764db5,06/09/1952,2020-09-03_13h41.25.232,proactive2,2020.1.2,MacIntel,60,5f5126bb654d4b30ee6923d8,5f512aa262b184331912dad9,6,,,,,,daisy,,,,,,,,,,,5,0,0,19,19,41,1,,,,,,,,,,,,,,,,,,
,,?,0.000425,0,,,,,,stimuli/images/PICTURE_233.png,IDEAS,5e9cc569aff5bd1ec9764db5,06/09/1952,2020-09-03_13h41.25.232,proactive2,2020.1.2,MacIntel,60,5f5126bb654d4b30ee6923d8,5f512aa262b184331912dad9,6,,,,,,salt,,,,,,,,,,,3,0,0,20,20,28,1,,,,,,,,,,,,,,,,,,
,,?,0.000445,0,,,,,,stimuli/images/PICTURE_302.png,FAMILY,5e9cc569aff5bd1ec9764db5,06/09/1952,2020-09-03_13h41.25.232,proactive2,2020.1.2,MacIntel,60,5f5126bb654d4b30ee6923d8,5f512aa262b184331912dad9,6,,,,,,taxi,,,,,,,,,,,2,0,0,21,21,18,1,,,,,,,,,,,,,,,,,,
,,?,0.000345,0,,,,,,stimuli/images/PICTURE_469.png,ARTIST,5e9cc569aff5bd1ec9764db5,06/09/1952,2020-09-03_13h41.25.232,proactive2,2020.1.2,MacIntel,60,5f5126bb654d4b30ee6923d8,5f512aa262b184331912dad9,6,,,,,,stool,,,,,,,,,,,1,0,0,22,22,6,1,,,,,,,,,,,,,,,,,,
,,?,0.000335,0,,,,,,stimuli/images/PICTURE_95.png,STYLE,5e9cc569aff5bd1ec9764db5,06/09/1952,2020-09-03_13h41.25.232,proactive2,2020.1.2,MacIntel,60,5f5126bb654d4b30ee6923d8,5f512aa262b184331912dad9,6,,,,,,suitcase,,,,,,,,,,,3,0,0,23,23,25,1,,,,,,,,,,,,,,,,,,
,,?,0.000355,0,,,,,,stimuli/images/PICTURE_314.png,SAKE,5e9cc569aff5bd1ec9764db5,06/09/1952,2020-09-03_13h41.25.232,proactive2,2020.1.2,MacIntel,60,5f5126bb654d4b30ee6923d8,5f512aa262b184331912dad9,6,,,,,,perfume,,,,,,,,,,,1,0,0,24,24,7,1,,,,,,,,,,,,,,,,,,
,,?,0.00033,0,,,,,,stimuli/images/PICTURE_469.png,LETTER,5e9cc569aff5bd1ec9764db5,06/09/1952,2020-09-03_13h41.25.232,proactive2,2020.1.2,MacIntel,60,5f5126bb654d4b30ee6923d8,5f512aa262b184331912dad9,6,,,,,,stool,,,,,,,,,,,5,0,0,25,25,42,1,,,,,,,,,,,,,,,,,,
,,KIND,5.589055,1,,,,,,stimuli/images/PICTURE_308.png,KIND,5e9cc569aff5bd1ec9764db5,06/09/1952,2020-09-03_13h41.25.232,proactive2,2020.1.2,MacIntel,60,5f5126bb654d4b30ee6923d8,5f512aa262b184331912dad9,6,,,,,,dice,,,,,,,,,,,6,0,0,26,26,54,1,,,,,,,,,,,,,,,,,,
,,?,0.000905,0,,,,,,stimuli/images/PICTURE_708.png,CLIENT,5e9cc569aff5bd1ec9764db5,06/09/1952,2020-09-03_13h41.25.232,proactive2,2020.1.2,MacIntel,60,5f5126bb654d4b30ee6923d8,5f512aa262b184331912dad9,6,,,,,,monkey,,,,,,,,,,,1,0,0,27,27,5,1,,,,,,,,,,,,,,,,,,
,,?,0.00061,0,,,,,,stimuli/images/PICTURE_248.png,DOZEN,5e9cc569aff5bd1ec9764db5,06/09/1952,2020-09-03_13h41.25.232,proactive2,2020.1.2,MacIntel,60,5f5126bb654d4b30ee6923d8,5f512aa262b184331912dad9,6,,,,,,cart,,,,,,,,,,,4,0,0,28,28,39,1,,,,,,,,,,,,,,,,,,
,,?,0.00056,0,,,,,,stimuli/images/PICTURE_488.png,STYLE,5e9cc569aff5bd1ec9764db5,06/09/1952,2020-09-03_13h41.25.232,proactive2,2020.1.2,MacIntel,60,5f5126bb654d4b30ee6923d8,5f512aa262b184331912dad9,6,,,,,,sun,,,,,,,,,,,4,0,0,29,29,33,1,,,,,,,,,,,,,,,,,,
,,?,0.000595,0,,,,,,stimuli/images/PICTURE_708.png,YARD,5e9cc569aff5bd1ec9764db5,06/09/1952,2020-09-03_13h41.25.232,proactive2,2020.1.2,MacIntel,60,5f5126bb654d4b30ee6923d8,5f512aa262b184331912dad9,6,,,,,,monkey,,,,,,,,,,,3,0,0,30,30,29,1,,,,,,,,,,,,,,,,,,
,,PLENTY,6.491715,1,,,,,,stimuli/images/PICTURE_453.png,PLENTY,5e9cc569aff5bd1ec9764db5,06/09/1952,2020-09-03_13h41.25.232,proactive2,2020.1.2,MacIntel,60,5f5126bb654d4b30ee6923d8,5f512aa262b184331912dad9,6,,,,,,scissors,,,,,,,,,,,6,0,0,31,31,56,1,,,,,,,,,,,,,,,,,,
,,?,0.00078,0,,,,,,stimuli/images/PICTURE_151.png,GIRL,5e9cc569aff5bd1ec9764db5,06/09/1952,2020-09-03_13h41.25.232,proactive2,2020.1.2,MacIntel,60,5f5126bb654d4b30ee6923d8,5f512aa262b184331912dad9,6,,,,,,tray,,,,,,,,,,,2,0,0,32,32,19,1,,,,,,,,,,,,,,,,,,
,,WRITER,4.79626,1,,,,,,stimuli/images/PICTURE_491.png,WRITER,5e9cc569aff5bd1ec9764db5,06/09/1952,2020-09-03_13h41.25.232,proactive2,2020.1.2,MacIntel,60,5f5126bb654d4b30ee6923d8,5f512aa262b184331912dad9,6,,,,,,rug,,,,,,,,,,,6,0,0,33,33,57,1,,,,,,,,,,,,,,,,,,
,,?,0.001005,0,,,,,,stimuli/images/PICTURE_327.png,BEAUTY,5e9cc569aff5bd1ec9764db5,06/09/1952,2020-09-03_13h41.25.232,proactive2,2020.1.2,MacIntel,60,5f5126bb654d4b30ee6923d8,5f512aa262b184331912dad9,6,,,,,,helmet,,,,,,,,,,,5,0,0,34,34,48,1,,,,,,,,,,,,,,,,,,
,,?,0.000595,0,,,,,,stimuli/images/PICTURE_453.png,DUDE,5e9cc569aff5bd1ec9764db5,06/09/1952,2020-09-03_13h41.25.232,proactive2,2020.1.2,MacIntel,60,5f5126bb654d4b30ee6923d8,5f512aa262b184331912dad9,6,,,,,,scissors,,,,,,,,,,,3,0,0,35,35,27,1,,,,,,,,,,,,,,,,,,
,,?,0.000635,0,,,,,,stimuli/images/PICTURE_32.png,JUNGLE,5e9cc569aff5bd1ec9764db5,06/09/1952,2020-09-03_13h41.25.232,proactive2,2020.1.2,MacIntel,60,5f5126bb654d4b30ee6923d8,5f512aa262b184331912dad9,6,,,,,,crown,,,,,,,,,,,5,0,0,36,36,45,1,,,,,,,,,,,,,,,,,,
,,FEET,4.593315,1,,,,,,stimuli/images/PICTURE_160.png,FEET,5e9cc569aff5bd1ec9764db5,06/09/1952,2020-09-03_13h41.25.232,proactive2,2020.1.2,MacIntel,60,5f5126bb654d4b30ee6923d8,5f512aa262b184331912dad9,6,,,,,,wheelbarrow,,,,,,,,,,,6,0,0,37,37,58,1,,,,,,,,,,,,,,,,,,
,,?,0.00089,0,,,,,,stimuli/images/PICTURE_203.png,ARTIST,5e9cc569aff5bd1ec9764db5,06/09/1952,2020-09-03_13h41.25.232,proactive2,2020.1.2,MacIntel,60,5f5126bb654d4b30ee6923d8,5f512aa262b184331912dad9,6,,,,,,cap,,,,,,,,,,,3,0,0,38,38,26,1,,,,,,,,,,,,,,,,,,
,,?,0.00054,0,,,,,,stimuli/images/PICTURE_509.png,PHOTO,5e9cc569aff5bd1ec9764db5,06/09/1952,2020-09-03_13h41.25.232,proactive2,2020.1.2,MacIntel,60,5f5126bb654d4b30ee6923d8,5f512aa262b184331912dad9,6,,,,,,telephone,,,,,,,,,,,3,0,0,39,39,21,1,,,,,,,,,,,,,,,,,,
,,?,0.0006,0,,,,,,stimuli/images/PICTURE_504.png,BODY,5e9cc569aff5bd1ec9764db5,06/09/1952,2020-09-03_13h41.25.232,proactive2,2020.1.2,MacIntel,60,5f5126bb654d4b30ee6923d8,5f512aa262b184331912dad9,6,,,,,,wheel,,,,,,,,,,,1,0,0,40,40,8,1,,,,,,,,,,,,,,,,,,
,,PHOTO,4.1601,1,,,,,,stimuli/images/PICTURE_380.png,PHOTO,5e9cc569aff5bd1ec9764db5,06/09/1952,2020-09-03_13h41.25.232,proactive2,2020.1.2,MacIntel,60,5f5126bb654d4b30ee6923d8,5f512aa262b184331912dad9,6,,,,,,gorilla,,,,,,,,,,,6,0,0,41,41,52,1,,,,,,,,,,,,,,,,,,
,,?,0.00055,0,,,,,,stimuli/images/PICTURE_285.png,ADVICE,5e9cc569aff5bd1ec9764db5,06/09/1952,2020-09-03_13h41.25.232,proactive2,2020.1.2,MacIntel,60,5f5126bb654d4b30ee6923d8,5f512aa262b184331912dad9,6,,,,,,carrot,,,,,,,,,,,2,0,0,42,42,12,1,,,,,,,,,,,,,,,,,,
,,?,0.00044,0,,,,,,stimuli/images/PICTURE_177.png,CARS,5e9cc569aff5bd1ec9764db5,06/09/1952,2020-09-03_13h41.25.232,proactive2,2020.1.2,MacIntel,60,5f5126bb654d4b30ee6923d8,5f512aa262b184331912dad9,6,,,,,,mushroom,,,,,,,,,,,4,0,0,43,43,35,1,,,,,,,,,,,,,,,,,,
,,?,0.000495,0,,,,,,stimuli/images/PICTURE_311.png,FRIEND,5e9cc569aff5bd1ec9764db5,06/09/1952,2020-09-03_13h41.25.232,proactive2,2020.1.2,MacIntel,60,5f5126bb654d4b30ee6923d8,5f512aa262b184331912dad9,6,,,,,,razor,,,,,,,,,,,4,0,0,44,44,34,1,,,,,,,,,,,,,,,,,,
,,?,0.00053,0,,,,,,stimuli/images/PICTURE_675.png,WEAPON,5e9cc569aff5bd1ec9764db5,06/09/1952,2020-09-03_13h41.25.232,proactive2,2020.1.2,MacIntel,60,5f5126bb654d4b30ee6923d8,5f512aa262b184331912dad9,6,,,,,,windmill,,,,,,,,,,,4,0,0,45,45,32,1,,,,,,,,,,,,,,,,,,
,,?,0.00051,0,,,,,,stimuli/images/PICTURE_160.png,LEADER,5e9cc569aff5bd1ec9764db5,06/09/1952,2020-09-03_13h41.25.232,proactive2,2020.1.2,MacIntel,60,5f5126bb654d4b30ee6923d8,5f512aa262b184331912dad9,6,,,,,,wheelbarrow,,,,,,,,,,,1,0,0,46,46,3,1,,,,,,,,,,,,,,,,,,
,,?,0.000445,0,,,,,,stimuli/images/PICTURE_215.png,PLENTY,5e9cc569aff5bd1ec9764db5,06/09/1952,2020-09-03_13h41.25.232,proactive2,2020.1.2,MacIntel,60,5f5126bb654d4b30ee6923d8,5f512aa262b184331912dad9,6,,,,,,boot,,,,,,,,,,,4,0,0,47,47,37,1,,,,,,,,,,,,,,,,,,
,,MONTH,5.759235,1,,,,,,stimuli/images/PICTURE_208.png,MONTH,5e9cc569aff5bd1ec9764db5,06/09/1952,2020-09-03_13h41.25.232,proactive2,2020.1.2,MacIntel,60,5f5126bb654d4b30ee6923d8,5f512aa262b184331912dad9,6,,,,,,microphone,,,,,,,,,,,6,0,0,48,48,53,1,,,,,,,,,,,,,,,,,,
,,MOMENT,4.949615,1,,,,,,stimuli/images/PICTURE_147.png,MOMENT,5e9cc569aff5bd1ec9764db5,06/09/1952,2020-09-03_13h41.25.232,proactive2,2020.1.2,MacIntel,60,5f5126bb654d4b30ee6923d8,5f512aa262b184331912dad9,6,,,,,,hanger,,,,,,,,,,,6,0,0,49,49,51,1,,,,,,,,,,,,,,,,,,
,,ADVISE,3.999375,0,,,,,,stimuli/images/PICTURE_123.png,ADVICE,5e9cc569aff5bd1ec9764db5,06/09/1952,2020-09-03_13h41.25.232,proactive2,2020.1.2,MacIntel,60,5f5126bb654d4b30ee6923d8,5f512aa262b184331912dad9,6,,,,,,dart,,,,,,,,,,,6,0,0,50,50,50,1,,,,,,,,,,,,,,,,,,
,,?,0.001,0,,,,,,stimuli/images/PICTURE_688.png,WOMEN,5e9cc569aff5bd1ec9764db5,06/09/1952,2020-09-03_13h41.25.232,proactive2,2020.1.2,MacIntel,60,5f5126bb654d4b30ee6923d8,5f512aa262b184331912dad9,6,,,,,,runner,,,,,,,,,,,2,0,0,51,51,14,1,,,,,,,,,,,,,,,,,,
,,?,0.000625,0,,,,,,stimuli/images/PICTURE_380.png,DEATH,5e9cc569aff5bd1ec9764db5,06/09/1952,2020-09-03_13h41.25.232,proactive2,2020.1.2,MacIntel,60,5f5126bb654d4b30ee6923d8,5f512aa262b184331912dad9,6,,,,,,gorilla,,,,,,,,,,,5,0,0,52,52,49,1,,,,,,,,,,,,,,,,,,
,,?,0.000655,0,,,,,,stimuli/images/PICTURE_208.png,LOTS,5e9cc569aff5bd1ec9764db5,06/09/1952,2020-09-03_13h41.25.232,proactive2,2020.1.2,MacIntel,60,5f5126bb654d4b30ee6923d8,5f512aa262b184331912dad9,6,,,,,,microphone,,,,,,,,,,,2,0,0,53,53,10,1,,,,,,,,,,,,,,,,,,
,,?,0.000405,0,,,,,,stimuli/images/PICTURE_708.png,PENNY,5e9cc569aff5bd1ec9764db5,06/09/1952,2020-09-03_13h41.25.232,proactive2,2020.1.2,MacIntel,60,5f5126bb654d4b30ee6923d8,5f512aa262b184331912dad9,6,,,,,,monkey,,,,,,,,,,,4,0,0,54,54,31,1,,,,,,,,,,,,,,,,,,
,,?,0.000405,0,,,,,,stimuli/images/PICTURE_314.png,GODS,5e9cc569aff5bd1ec9764db5,06/09/1952,2020-09-03_13h41.25.232,proactive2,2020.1.2,MacIntel,60,5f5126bb654d4b30ee6923d8,5f512aa262b184331912dad9,6,,,,,,perfume,,,,,,,,,,,2,0,0,55,55,11,1,,,,,,,,,,,,,,,,,,
,,?,0.000355,0,,,,,,stimuli/images/PICTURE_491.png,ROOF,5e9cc569aff5bd1ec9764db5,06/09/1952,2020-09-03_13h41.25.232,proactive2,2020.1.2,MacIntel,60,5f5126bb654d4b30ee6923d8,5f512aa262b184331912dad9,6,,,,,,rug,,,,,,,,,,,3,0,0,56,56,24,1,,,,,,,,,,,,,,,,,,
,,?,0.00037,0,,,,,,stimuli/images/PICTURE_85.png,THING,5e9cc569aff5bd1ec9764db5,06/09/1952,2020-09-03_13h41.25.232,proactive2,2020.1.2,MacIntel,60,5f5126bb654d4b30ee6923d8,5f512aa262b184331912dad9,6,,,,,,diamond,,,,,,,,,,,2,0,0,57,57,15,1,,,,,,,,,,,,,,,,,,
,,THING,4.35614,1,,,,,,stimuli/images/PICTURE_449.png,THING,5e9cc569aff5bd1ec9764db5,06/09/1952,2020-09-03_13h41.25.232,proactive2,2020.1.2,MacIntel,60,5f5126bb654d4b30ee6923d8,5f512aa262b184331912dad9,6,,,,,,bench,,,,,,,,,,,6,0,0,58,58,59,1,,,,,,,,,,,,,,,,,,
,,?,0.000925,0,,,,,,stimuli/images/PICTURE_233.png,WOMEN,5e9cc569aff5bd1ec9764db5,06/09/1952,2020-09-03_13h41.25.232,proactive2,2020.1.2,MacIntel,60,5f5126bb654d4b30ee6923d8,5f512aa262b184331912dad9,6,,,,,,salt,,,,,,,,,,,4,0,0,59,59,38,1,,,,,,,,,,,,,,,,,,
,,,,,,,,,,,,5e9cc569aff5bd1ec9764db5,06/09/1952,2020-09-03_13h41.25.232,proactive2,2020.1.2,MacIntel,60,5f5126bb654d4b30ee6923d8,5f512aa262b184331912dad9,6,,,,,,,,,,,,,,,,,,,,,,,,0,1,1,0,1,stimuli/learn-block1.csv,,,,,,,,,,,,
,,,,,,,,,,stimuli/images/PICTURE_452.png,COPS,5e9cc569aff5bd1ec9764db5,06/09/1952,2020-09-03_13h41.25.232,proactive2,2020.1.2,MacIntel,60,5f5126bb654d4b30ee6923d8,5f512aa262b184331912dad9,6,,,,,,watch,,,,,,0,0,0,0,1,1,2,,,,,,,,,,,,,,,,,,,,,,,
,,,,,,,,,,stimuli/images/PICTURE_403.png,FAMILY,5e9cc569aff5bd1ec9764db5,06/09/1952,2020-09-03_13h41.25.232,proactive2,2020.1.2,MacIntel,60,5f5126bb654d4b30ee6923d8,5f512aa262b184331912dad9,6,,,,,,cathedral,,,,,,0,1,1,9,1,1,2,,,,,,,,,,,,,,,,,,,,,,,
,,,,,,,,,,stimuli/images/PICTURE_509.png,MILLER,5e9cc569aff5bd1ec9764db5,06/09/1952,2020-09-03_13h41.25.232,proactive2,2020.1.2,MacIntel,60,5f5126bb654d4b30ee6923d8,5f512aa262b184331912dad9,6,,,,,,telephone,,,,,,0,2,2,49,1,5,2,,,,,,,,,,,,,,,,,,,,,,,
,,,,,,,,,,stimuli/images/PICTURE_677.png,PHOTO,5e9cc569aff5bd1ec9764db5,06/09/1952,2020-09-03_13h41.25.232,proactive2,2020.1.2,MacIntel,60,5f5126bb654d4b30ee6923d8,5f512aa262b184331912dad9,6,,,,,,map,,,,,,0,3,3,14,1,2,2,,,,,,,,,,,,,,,,,,,,,,,
,,,,,,,,,,stimuli/images/PICTURE_296.png,CLOCK,5e9cc569aff5bd1ec9764db5,06/09/1952,2020-09-03_13h41.25.232,proactive2,2020.1.2,MacIntel,60,5f5126bb654d4b30ee6923d8,5f512aa262b184331912dad9,6,,,,,,bolt,,,,,,0,4,4,18,1,2,2,,,,,,,,,,,,,,,,,,,,,,,
,,,,,,,,,,stimuli/images/PICTURE_95.png,NIGHT,5e9cc569aff5bd1ec9764db5,06/09/1952,2020-09-03_13h41.25.232,proactive2,2020.1.2,MacIntel,60,5f5126bb654d4b30ee6923d8,5f512aa262b184331912dad9,6,,,,,,suitcase,,,,,,0,5,5,37,1,4,2,,,,,,,,,,,,,,,,,,,,,,,
,,,,,,,,,,stimuli/images/PICTURE_215.png,LEADER,5e9cc569aff5bd1ec9764db5,06/09/1952,2020-09-03_13h41.25.232,proactive2,2020.1.2,MacIntel,60,5f5126bb654d4b30ee6923d8,5f512aa262b184331912dad9,6,,,,,,boot,,,,,,0,6,6,43,1,5,2,,,,,,,,,,,,,,,,,,,,,,,
,,,,,,,,,,stimuli/images/PICTURE_32.png,LETTER,5e9cc569aff5bd1ec9764db5,06/09/1952,2020-09-03_13h41.25.232,proactive2,2020.1.2,MacIntel,60,5f5126bb654d4b30ee6923d8,5f512aa262b184331912dad9,6,,,,,,crown,,,,,,0,7,7,56,1,6,2,,,,,,,,,,,,,,,,,,,,,,,
,,,,,,,,,,stimuli/images/PICTURE_311.png,FLESH,5e9cc569aff5bd1ec9764db5,06/09/1952,2020-09-03_13h41.25.232,proactive2,2020.1.2,MacIntel,60,5f5126bb654d4b30ee6923d8,5f512aa262b184331912dad9,6,,,,,,razor,,,,,,0,8,8,3,1,1,2,,,,,,,,,,,,,,,,,,,,,,,
,,,,,,,,,,stimuli/images/PICTURE_692.png,DUDE,5e9cc569aff5bd1ec9764db5,06/09/1952,2020-09-03_13h41.25.232,proactive2,2020.1.2,MacIntel,60,5f5126bb654d4b30ee6923d8,5f512aa262b184331912dad9,6,,,,,,cherry,,,,,,0,9,9,47,1,5,2,,,,,,,,,,,,,,,,,,,,,,,
,,,,,,,,,,stimuli/images/PICTURE_667.png,GLASS,5e9cc569aff5bd1ec9764db5,06/09/1952,2020-09-03_13h41.25.232,proactive2,2020.1.2,MacIntel,60,5f5126bb654d4b30ee6923d8,5f512aa262b184331912dad9,6,,,,,,daisy,,,,,,0,10,10,27,1,3,2,,,,,,,,,,,,,,,,,,,,,,,
,,,,,,,,,,stimuli/images/PICTURE_708.png,VALLEY,5e9cc569aff5bd1ec9764db5,06/09/1952,2020-09-03_13h41.25.232,proactive2,2020.1.2,MacIntel,60,5f5126bb654d4b30ee6923d8,5f512aa262b184331912dad9,6,,,,,,monkey,,,,,,0,11,11,45,1,5,2,,,,,,,,,,,,,,,,,,,,,,,
,,,,,,,,,,stimuli/images/PICTURE_654.png,COPS,5e9cc569aff5bd1ec9764db5,06/09/1952,2020-09-03_13h41.25.232,proactive2,2020.1.2,MacIntel,60,5f5126bb654d4b30ee6923d8,5f512aa262b184331912dad9,6,,,,,,pencil,,,,,,0,12,12,10,1,2,2,,,,,,,,,,,,,,,,,,,,,,,
,,,,,,,,,,stimuli/images/PICTURE_491.png,SERIES,5e9cc569aff5bd1ec9764db5,06/09/1952,2020-09-03_13h41.25.232,proactive2,2020.1.2,MacIntel,60,5f5126bb654d4b30ee6923d8,5f512aa262b184331912dad9,6,,,,,,rug,,,,,,0,13,13,39,1,4,2,,,,,,,,,,,,,,,,,,,,,,,
,,,,,,,,,,stimuli/images/PICTURE_33.png,COPS,5e9cc569aff5bd1ec9764db5,06/09/1952,2020-09-03_13h41.25.232,proactive2,2020.1.2,MacIntel,60,5f5126bb654d4b30ee6923d8,5f512aa262b184331912dad9,6,,,,,,frame,,,,,,0,14,14,29,1,3,2,,,,,,,,,,,,,,,,,,,,,,,
,,,,,,,,,,stimuli/images/PICTURE_348.png,DUDE,5e9cc569aff5bd1ec9764db5,06/09/1952,2020-09-03_13h41.25.232,proactive2,2020.1.2,MacIntel,60,5f5126bb654d4b30ee6923d8,5f512aa262b184331912dad9,6,,,,,,pepper,,,,,,0,15,15,59,1,6,2,,,,,,,,,,,,,,,,,,,,,,,
,,,,,,,,,,stimuli/images/PICTURE_93.png,GIRL,5e9cc569aff5bd1ec9764db5,06/09/1952,2020-09-03_13h41.25.232,proactive2,2020.1.2,MacIntel,60,5f5126bb654d4b30ee6923d8,5f512aa262b184331912dad9,6,,,,,,skateboard,,,,,,0,16,16,31,1,4,2,,,,,,,,,,,,,,,,,,,,,,,
,,,,,,,,,,stimuli/images/PICTURE_255.png,PENNY,5e9cc569aff5bd1ec9764db5,06/09/1952,2020-09-03_13h41.25.232,proactive2,2020.1.2,MacIntel,60,5f5126bb654d4b30ee6923d8,5f512aa262b184331912dad9,6,,,,,,shovel,,,,,,0,17,17,19,1,2,2,,,,,,,,,,,,,,,,,,,,,,,
,,,,,,,,,,stimuli/images/PICTURE_327.png,LEADER,5e9cc569aff5bd1ec9764db5,06/09/1952,2020-09-03_13h41.25.232,proactive2,2020.1.2,MacIntel,60,5f5126bb654d4b30ee6923d8,5f512aa262b184331912dad9,6,,,,,,helmet,,,,,,0,18,18,17,1,2,2,,,,,,,,,,,,,,,,,,,,,,,
,,,,,,,,,,stimuli/images/PICTURE_453.png,FAMILY,5e9cc569aff5bd1ec9764db5,06/09/1952,2020-09-03_13h41.25.232,proactive2,2020.1.2,MacIntel,60,5f5126bb654d4b30ee6923d8,5f512aa262b184331912dad9,6,,,,,,scissors,,,,,,0,19,19,48,1,5,2,,,,,,,,,,,,,,,,,,,,,,,
,,,,,,,,,,stimuli/images/PICTURE_356.png,CANDY,5e9cc569aff5bd1ec9764db5,06/09/1952,2020-09-03_13h41.25.232,proactive2,2020.1.2,MacIntel,60,5f5126bb654d4b30ee6923d8,5f512aa262b184331912dad9,6,,,,,,pawn,,,,,,0,20,20,46,1,5,2,,,,,,,,,,,,,,,,,,,,,,,
,,,,,,,,,,stimuli/images/PICTURE_2.png,YARD,5e9cc569aff5bd1ec9764db5,06/09/1952,2020-09-03_13h41.25.232,proactive2,2020.1.2,MacIntel,60,5f5126bb654d4b30ee6923d8,5f512aa262b184331912dad9,6,,,,,,tyre,,,,,,0,21,21,55,1,6,2,,,,,,,,,,,,,,,,,,,,,,,
,,,,,,,,,,stimuli/images/PICTURE_123.png,SALE,5e9cc569aff5bd1ec9764db5,06/09/1952,2020-09-03_13h41.25.232,proactive2,2020.1.2,MacIntel,60,5f5126bb654d4b30ee6923d8,5f512aa262b184331912dad9,6,,,,,,dart,,,,,,0,22,22,8,1,1,2,,,,,,,,,,,,,,,,,,,,,,,
,,,,,,,,,,stimuli/images/PICTURE_147.png,LEADER,5e9cc569aff5bd1ec9764db5,06/09/1952,2020-09-03_13h41.25.232,proactive2,2020.1.2,MacIntel,60,5f5126bb654d4b30ee6923d8,5f512aa262b184331912dad9,6,,,,,,hanger,,,,,,0,23,23,33,1,4,2,,,,,,,,,,,,,,,,,,,,,,,
,,,,,,,,,,stimuli/images/PICTURE_509.png,APPLE,5e9cc569aff5bd1ec9764db5,06/09/1952,2020-09-03_13h41.25.232,proactive2,2020.1.2,MacIntel,60,5f5126bb654d4b30ee6923d8,5f512aa262b184331912dad9,6,,,,,,telephone,,,,,,0,24,24,38,1,4,2,,,,,,,,,,,,,,,,,,,,,,,
,,,,,,,,,,stimuli/images/PICTURE_688.png,CLOCK,5e9cc569aff5bd1ec9764db5,06/09/1952,2020-09-03_13h41.25.232,proactive2,2020.1.2,MacIntel,60,5f5126bb654d4b30ee6923d8,5f512aa262b184331912dad9,6,,,,,,runner,,,,,,0,25,25,42,1,5,2,,,,,,,,,,,,,,,,,,,,,,,
,,,,,,,,,,stimuli/images/PICTURE_297.png,BODY,5e9cc569aff5bd1ec9764db5,06/09/1952,2020-09-03_13h41.25.232,proactive2,2020.1.2,MacIntel,60,5f5126bb654d4b30ee6923d8,5f512aa262b184331912dad9,6,,,,,,aeroplane,,,,,,0,26,26,51,1,6,2,,,,,,,,,,,,,,,,,,,,,,,
,,,,,,,,,,stimuli/images/PICTURE_509.png,SHOTS,5e9cc569aff5bd1ec9764db5,06/09/1952,2020-09-03_13h41.25.232,proactive2,2020.1.2,MacIntel,60,5f5126bb654d4b30ee6923d8,5f512aa262b184331912dad9,6,,,,,,telephone,,,,,,0,27,27,7,1,1,2,,,,,,,,,,,,,,,,,,,,,,,
,,,,,,,,,,stimuli/images/PICTURE_405.png,JUNGLE,5e9cc569aff5bd1ec9764db5,06/09/1952,2020-09-03_13h41.25.232,proactive2,2020.1.2,MacIntel,60,5f5126bb654d4b30ee6923d8,5f512aa262b184331912dad9,6,,,,,,anchor,,,,,,0,28,28,13,1,2,2,,,,,,,,,,,,,,,,,,,,,,,
,,,,,,,,,,stimuli/images/PICTURE_2.png,JUNGLE,5e9cc569aff5bd1ec9764db5,06/09/1952,2020-09-03_13h41.25.232,proactive2,2020.1.2,MacIntel,60,5f5126bb654d4b30ee6923d8,5f512aa262b184331912dad9,6,,,,,,tyre,,,,,,0,29,29,1,1,1,2,,,,,,,,,,,,,,,,,,,,,,,
,,,,,,,,,,stimuli/images/PICTURE_470.png,BEAUTY,5e9cc569aff5bd1ec9764db5,06/09/1952,2020-09-03_13h41.25.232,proactive2,2020.1.2,MacIntel,60,5f5126bb654d4b30ee6923d8,5f512aa262b184331912dad9,6,,,,,,motorbike,,,,,,0,30,30,26,1,3,2,,,,,,,,,,,,,,,,,,,,,,,
,,,,,,,,,,stimuli/images/PICTURE_160.png,HOTEL,5e9cc569aff5bd1ec9764db5,06/09/1952,2020-09-03_13h41.25.232,proactive2,2020.1.2,MacIntel,60,5f5126bb654d4b30ee6923d8,5f512aa262b184331912dad9,6,,,,,,wheelbarrow,,,,,,0,31,31,16,1,2,2,,,,,,,,,,,,,,,,,,,,,,,
,,,,,,,,,,stimuli/images/PICTURE_405.png,HOUSE,5e9cc569aff5bd1ec9764db5,06/09/1952,2020-09-03_13h41.25.232,proactive2,2020.1.2,MacIntel,60,5f5126bb654d4b30ee6923d8,5f512aa262b184331912dad9,6,,,,,,anchor,,,,,,0,32,32,2,1,1,2,,,,,,,,,,,,,,,,,,,,,,,
,,,,,,,,,,stimuli/images/PICTURE_285.png,PRINCE,5e9cc569aff5bd1ec9764db5,06/09/1952,2020-09-03_13h41.25.232,proactive2,2020.1.2,MacIntel,60,5f5126bb654d4b30ee6923d8,5f512aa262b184331912dad9,6,,,,,,carrot,,,,,,0,33,33,20,1,3,2,,,,,,,,,,,,,,,,,,,,,,,
,,,,,,,,,,stimuli/images/PICTURE_208.png,SPIRIT,5e9cc569aff5bd1ec9764db5,06/09/1952,2020-09-03_13h41.25.232,proactive2,2020.1.2,MacIntel,60,5f5126bb654d4b30ee6923d8,5f512aa262b184331912dad9,6,,,,,,microphone,,,,,,0,34,34,28,1,3,2,,,,,,,,,,,,,,,,,,,,,,,
,,,,,,,,,,stimuli/images/PICTURE_314.png,SPEECH,5e9cc569aff5bd1ec9764db5,06/09/1952,2020-09-03_13h41.25.232,proactive2,2020.1.2,MacIntel,60,5f5126bb654d4b30ee6923d8,5f512aa262b184331912dad9,6,,,,,,perfume,,,,,,0,35,35,35,1,4,2,,,,,,,,,,,,,,,,,,,,,,,
,,,,,,,,,,stimuli/images/PICTURE_405.png,JUNGLE,5e9cc569aff5bd1ec9764db5,06/09/1952,2020-09-03_13h41.25.232,proactive2,2020.1.2,MacIntel,60,5f5126bb654d4b30ee6923d8,5f512aa262b184331912dad9,6,,,,,,anchor,,,,,,0,36,36,58,1,6,2,,,,,,,,,,,,,,,,,,,,,,,
,,,,,,,,,,stimuli/images/PICTURE_285.png,WRITER,5e9cc569aff5bd1ec9764db5,06/09/1952,2020-09-03_13h41.25.232,proactive2,2020.1.2,MacIntel,60,5f5126bb654d4b30ee6923d8,5f512aa262b184331912dad9,6,,,,,,carrot,,,,,,0,37,37,6,1,1,2,,,,,,,,,,,,,,,,,,,,,,,
,,,,,,,,,,stimuli/images/PICTURE_348.png,TOILET,5e9cc569aff5bd1ec9764db5,06/09/1952,2020-09-03_13h41.25.232,proactive2,2020.1.2,MacIntel,60,5f5126bb654d4b30ee6923d8,5f512aa262b184331912dad9,6,,,,,,pepper,,,,,,0,38,38,4,1,1,2,,,,,,,,,,,,,,,,,,,,,,,
,,,,,,,,,,stimuli/images/PICTURE_311.png,TOILET,5e9cc569aff5bd1ec9764db5,06/09/1952,2020-09-03_13h41.25.232,proactive2,2020.1.2,MacIntel,60,5f5126bb654d4b30ee6923d8,5f512aa262b184331912dad9,6,,,,,,razor,,,,,,0,39,39,54,1,6,2,,,,,,,,,,,,,,,,,,,,,,,
,,,,,,,,,,stimuli/images/PICTURE_215.png,FOOD,5e9cc569aff5bd1ec9764db5,06/09/1952,2020-09-03_13h41.25.232,proactive2,2020.1.2,MacIntel,60,5f5126bb654d4b30ee6923d8,5f512aa262b184331912dad9,6,,,,,,boot,,,,,,0,40,40,5,1,1,2,,,,,,,,,,,,,,,,,,,,,,,
,,,,,,,,,,stimuli/images/PICTURE_750.png,POLICY,5e9cc569aff5bd1ec9764db5,06/09/1952,2020-09-03_13h41.25.232,proactive2,2020.1.2,MacIntel,60,5f5126bb654d4b30ee6923d8,5f512aa262b184331912dad9,6,,,,,,kettle,,,,,,0,41,41,44,1,5,2,,,,,,,,,,,,,,,,,,,,,,,
,,,,,,,,,,stimuli/images/PICTURE_677.png,FAMILY,5e9cc569aff5bd1ec9764db5,06/09/1952,2020-09-03_13h41.25.232,proactive2,2020.1.2,MacIntel,60,5f5126bb654d4b30ee6923d8,5f512aa262b184331912dad9,6,,,,,,map,,,,,,0,42,42,53,1,6,2,,,,,,,,,,,,,,,,,,,,,,,
,,,,,,,,,,stimuli/images/PICTURE_509.png,BATH,5e9cc569aff5bd1ec9764db5,06/09/1952,2020-09-03_13h41.25.232,proactive2,2020.1.2,MacIntel,60,5f5126bb654d4b30ee6923d8,5f512aa262b184331912dad9,6,,,,,,telephone,,,,,,0,43,43,15,1,2,2,,,,,,,,,,,,,,,,,,,,,,,
,,,,,,,,,,stimuli/images/PICTURE_177.png,HOUSE,5e9cc569aff5bd1ec9764db5,06/09/1952,2020-09-03_13h41.25.232,proactive2,2020.1.2,MacIntel,60,5f5126bb654d4b30ee6923d8,5f512aa262b184331912dad9,6,,,,,,mushroom,,,,,,0,44,44,25,1,3,2,,,,,,,,,,,,,,,,,,,,,,,
,,,,,,,,,,stimuli/images/PICTURE_654.png,YEAR,5e9cc569aff5bd1ec9764db5,06/09/1952,2020-09-03_13h41.25.232,proactive2,2020.1.2,MacIntel,60,5f5126bb654d4b30ee6923d8,5f512aa262b184331912dad9,6,,,,,,pencil,,,,,,0,45,45,41,1,5,2,,,,,,,,,,,,,,,,,,,,,,,
,,,,,,,,,,stimuli/images/PICTURE_487.png,POLICY,5e9cc569aff5bd1ec9764db5,06/09/1952,2020-09-03_13h41.25.232,proactive2,2020.1.2,MacIntel,60,5f5126bb654d4b30ee6923d8,5f512aa262b184331912dad9,6,,,,,,basket,,,,,,0,46,46,34,1,4,2,,,,,,,,,,,,,,,,,,,,,,,
,,,,,,,,,,stimuli/images/PICTURE_68.png,KIND,5e9cc569aff5bd1ec9764db5,06/09/1952,2020-09-03_13h41.25.232,proactive2,2020.1.2,MacIntel,60,5f5126bb654d4b30ee6923d8,5f512aa262b184331912dad9,6,,,,,,candle,,,,,,0,47,47,23,1,3,2,,,,,,,,,,,,,,,,,,,,,,,
,,,,,,,,,,stimuli/images/PICTURE_504.png,HOUSE,5e9cc569aff5bd1ec9764db5,06/09/1952,2020-09-03_13h41.25.232,proactive2,2020.1.2,MacIntel,60,5f5126bb654d4b30ee6923d8,5f512aa262b184331912dad9,6,,,,,,wheel,,,,,,0,48,48,36,1,4,2,,,,,,,,,,,,,,,,,,,,,,,
,,,,,,,,,,stimuli/images/PICTURE_655.png,SALE,5e9cc569aff5bd1ec9764db5,06/09/1952,2020-09-03_13h41.25.232,proactive2,2020.1.2,MacIntel,60,5f5126bb654d4b30ee6923d8,5f512aa262b184331912dad9,6,,,,,,megaphone,,,,,,0,49,49,57,1,6,2,,,,,,,,,,,,,,,,,,,,,,,
,,,,,,,,,,stimuli/images/PICTURE_57.png,CANDY,5e9cc569aff5bd1ec9764db5,06/09/1952,2020-09-03_13h41.25.232,proactive2,2020.1.2,MacIntel,60,5f5126bb654d4b30ee6923d8,5f512aa262b184331912dad9,6,,,,,,stamp,,,,,,0,50,50,52,1,6,2,,,,,,,,,,,,,,,,,,,,,,,
,,,,,,,,,,stimuli/images/PICTURE_215.png,BOYS,5e9cc569aff5bd1ec9764db5,06/09/1952,2020-09-03_13h41.25.232,proactive2,2020.1.2,MacIntel,60,5f5126bb654d4b30ee6923d8,5f512aa262b184331912dad9,6,,,,,,boot,,,,,,0,51,51,24,1,3,2,,,,,,,,,,,,,,,,,,,,,,,
,,,,,,,,,,stimuli/images/PICTURE_2.png,AREA,5e9cc569aff5bd1ec9764db5,06/09/1952,2020-09-03_13h41.25.232,proactive2,2020.1.2,MacIntel,60,5f5126bb654d4b30ee6923d8,5f512aa262b184331912dad9,6,,,,,,tyre,,,,,,0,52,52,32,1,4,2,,,,,,,,,,,,,,,,,,,,,,,
,,,,,,,,,,stimuli/images/PICTURE_141.png,CLIENT,5e9cc569aff5bd1ec9764db5,06/09/1952,2020-09-03_13h41.25.232,proactive2,2020.1.2,MacIntel,60,5f5126bb654d4b30ee6923d8,5f512aa262b184331912dad9,6,,,,,,sunflower,,,,,,0,53,53,30,1,4,2,,,,,,,,,,,,,,,,,,,,,,,
,,,,,,,,,,stimuli/images/PICTURE_564.png,PLENTY,5e9cc569aff5bd1ec9764db5,06/09/1952,2020-09-03_13h41.25.232,proactive2,2020.1.2,MacIntel,60,5f5126bb654d4b30ee6923d8,5f512aa262b184331912dad9,6,,,,,,spoon,,,,,,0,54,54,11,1,2,2,,,,,,,,,,,,,,,,,,,,,,,
,,,,,,,,,,stimuli/images/PICTURE_18.png,RIVER,5e9cc569aff5bd1ec9764db5,06/09/1952,2020-09-03_13h41.25.232,proactive2,2020.1.2,MacIntel,60,5f5126bb654d4b30ee6923d8,5f512aa262b184331912dad9,6,,,,,,planet,,,,,,0,55,55,22,1,3,2,,,,,,,,,,,,,,,,,,,,,,,
,,,,,,,,,,stimuli/images/PICTURE_57.png,NATION,5e9cc569aff5bd1ec9764db5,06/09/1952,2020-09-03_13h41.25.232,proactive2,2020.1.2,MacIntel,60,5f5126bb654d4b30ee6923d8,5f512aa262b184331912dad9,6,,,,,,stamp,,,,,,0,56,56,21,1,3,2,,,,,,,,,,,,,,,,,,,,,,,
,,,,,,,,,,stimuli/images/PICTURE_487.png,ROOF,5e9cc569aff5bd1ec9764db5,06/09/1952,2020-09-03_13h41.25.232,proactive2,2020.1.2,MacIntel,60,5f5126bb654d4b30ee6923d8,5f512aa262b184331912dad9,6,,,,,,basket,,,,,,0,57,57,50,1,6,2,,,,,,,,,,,,,,,,,,,,,,,
,,,,,,,,,,stimuli/images/PICTURE_470.png,MOMENT,5e9cc569aff5bd1ec9764db5,06/09/1952,2020-09-03_13h41.25.232,proactive2,2020.1.2,MacIntel,60,5f5126bb654d4b30ee6923d8,5f512aa262b184331912dad9,6,,,,,,motorbike,,,,,,0,58,58,40,1,5,2,,,,,,,,,,,,,,,,,,,,,,,
,,ROOF,4.44382,1,,,,,,stimuli/images/PICTURE_487.png,ROOF,5e9cc569aff5bd1ec9764db5,06/09/1952,2020-09-03_13h41.25.232,proactive2,2020.1.2,MacIntel,60,5f5126bb654d4b30ee6923d8,5f512aa262b184331912dad9,6,,,,,,basket,,,,,,,,,,,6,2,0,0,0,50,1,,,,,,,,,,,,,,,,,,
,,YARD,3.84974,1,,,,,,stimuli/images/PICTURE_2.png,YARD,5e9cc569aff5bd1ec9764db5,06/09/1952,2020-09-03_13h41.25.232,proactive2,2020.1.2,MacIntel,60,5f5126bb654d4b30ee6923d8,5f512aa262b184331912dad9,6,,,,,,tyre,,,,,,,,,,,6,2,0,1,1,55,1,,,,,,,,,,,,,,,,,,
,,?,0.00097,0,,,,,,stimuli/images/PICTURE_123.png,SALE,5e9cc569aff5bd1ec9764db5,06/09/1952,2020-09-03_13h41.25.232,proactive2,2020.1.2,MacIntel,60,5f5126bb654d4b30ee6923d8,5f512aa262b184331912dad9,6,,,,,,dart,,,,,,,,,,,1,2,0,2,2,8,1,,,,,,,,,,,,,,,,,,
,,?,0.000545,0,,,,,,stimuli/images/PICTURE_356.png,CANDY,5e9cc569aff5bd1ec9764db5,06/09/1952,2020-09-03_13h41.25.232,proactive2,2020.1.2,MacIntel,60,5f5126bb654d4b30ee6923d8,5f512aa262b184331912dad9,6,,,,,,pawn,,,,,,,,,,,5,2,0,3,3,46,1,,,,,,,,,,,,,,,,,,
,,?,0.00054,0,,,,,,stimuli/images/PICTURE_470.png,BEAUTY,5e9cc569aff5bd1ec9764db5,06/09/1952,2020-09-03_13h41.25.232,proactive2,2020.1.2,MacIntel,60,5f5126bb654d4b30ee6923d8,5f512aa262b184331912dad9,6,,,,,,motorbike,,,,,,,,,,,3,2,0,4,4,26,1,,,,,,,,,,,,,,,,,,
,,?,0.000465,0,,,,,,stimuli/images/PICTURE_453.png,FAMILY,5e9cc569aff5bd1ec9764db5,06/09/1952,2020-09-03_13h41.25.232,proactive2,2020.1.2,MacIntel,60,5f5126bb654d4b30ee6923d8,5f512aa262b184331912dad9,6,,,,,,scissors,,,,,,,,,,,5,2,0,5,5,48,1,,,,,,,,,,,,,,,,,,
,,?,0.00039,0,,,,,,stimuli/images/PICTURE_509.png,SHOTS,5e9cc569aff5bd1ec9764db5,06/09/1952,2020-09-03_13h41.25.232,proactive2,2020.1.2,MacIntel,60,5f5126bb654d4b30ee6923d8,5f512aa262b184331912dad9,6,,,,,,telephone,,,,,,,,,,,1,2,0,6,6,7,1,,,,,,,,,,,,,,,,,,
,,?,0.001025,0,,,,,,stimuli/images/PICTURE_564.png,PLENTY,5e9cc569aff5bd1ec9764db5,06/09/1952,2020-09-03_13h41.25.232,proactive2,2020.1.2,MacIntel,60,5f5126bb654d4b30ee6923d8,5f512aa262b184331912dad9,6,,,,,,spoon,,,,,,,,,,,2,2,0,7,7,11,1,,,,,,,,,,,,,,,,,,
,,?,0.000365,0,,,,,,stimuli/images/PICTURE_93.png,GIRL,5e9cc569aff5bd1ec9764db5,06/09/1952,2020-09-03_13h41.25.232,proactive2,2020.1.2,MacIntel,60,5f5126bb654d4b30ee6923d8,5f512aa262b184331912dad9,6,,,,,,skateboard,,,,,,,,,,,4,2,0,8,8,31,1,,,,,,,,,,,,,,,,,,
,,?,0.00034,0,,,,,,stimuli/images/PICTURE_215.png,BOYS,5e9cc569aff5bd1ec9764db5,06/09/1952,2020-09-03_13h41.25.232,proactive2,2020.1.2,MacIntel,60,5f5126bb654d4b30ee6923d8,5f512aa262b184331912dad9,6,,,,,,boot,,,,,,,,,,,3,2,0,9,9,24,1,,,,,,,,,,,,,,,,,,
,,?,0.000355,0,,,,,,stimuli/images/PICTURE_57.png,NATION,5e9cc569aff5bd1ec9764db5,06/09/1952,2020-09-03_13h41.25.232,proactive2,2020.1.2,MacIntel,60,5f5126bb654d4b30ee6923d8,5f512aa262b184331912dad9,6,,,,,,stamp,,,,,,,,,,,3,2,0,10,10,21,1,,,,,,,,,,,,,,,,,,
,,?,0.00034,0,,,,,,stimuli/images/PICTURE_215.png,LEADER,5e9cc569aff5bd1ec9764db5,06/09/1952,2020-09-03_13h41.25.232,proactive2,2020.1.2,MacIntel,60,5f5126bb654d4b30ee6923d8,5f512aa262b184331912dad9,6,,,,,,boot,,,,,,,,,,,5,2,0,11,11,43,1,,,,,,,,,,,,,,,,,,
,,?,0.000355,0,,,,,,stimuli/images/PICTURE_708.png,VALLEY,5e9cc569aff5bd1ec9764db5,06/09/1952,2020-09-03_13h41.25.232,proactive2,2020.1.2,MacIntel,60,5f5126bb654d4b30ee6923d8,5f512aa262b184331912dad9,6,,,,,,monkey,,,,,,,,,,,5,2,0,12,12,45,1,,,,,,,,,,,,,,,,,,
,,?,0.000335,0,,,,,,stimuli/images/PICTURE_285.png,WRITER,5e9cc569aff5bd1ec9764db5,06/09/1952,2020-09-03_13h41.25.232,proactive2,2020.1.2,MacIntel,60,5f5126bb654d4b30ee6923d8,5f512aa262b184331912dad9,6,,,,,,carrot,,,,,,,,,,,1,2,0,13,13,6,1,,,,,,,,,,,,,,,,,,
,,CANDY,3.201805,1,,,,,,stimuli/images/PICTURE_57.png,CANDY,5e9cc569aff5bd1ec9764db5,06/09/1952,2020-09-03_13h41.25.232,proactive2,2020.1.2,MacIntel,60,5f5126bb654d4b30ee6923d8,5f512aa262b184331912dad9,6,,,,,,stamp,,,,,,,,,,,6,2,0,14,14,52,1,,,,,,,,,,,,,,,,,,
,,?,0.001025,0,,,,,,stimuli/images/PICTURE_314.png,SPEECH,5e9cc569aff5bd1ec9764db5,06/09/1952,2020-09-03_13h41.25.232,proactive2,2020.1.2,MacIntel,60,5f5126bb654d4b30ee6923d8,5f512aa262b184331912dad9,6,,,,,,perfume,,,,,,,,,,,4,2,0,15,15,35,1,,,,,,,,,,,,,,,,,,
,,?,0.000685,0,,,,,,stimuli/images/PICTURE_692.png,DUDE,5e9cc569aff5bd1ec9764db5,06/09/1952,2020-09-03_13h41.25.232,proactive2,2020.1.2,MacIntel,60,5f5126bb654d4b30ee6923d8,5f512aa262b184331912dad9,6,,,,,,cherry,,,,,,,,,,,5,2,0,16,16,47,1,,,,,,,,,,,,,,,,,,
,,?,0.00059,0,,,,,,stimuli/images/PICTURE_487.png,POLICY,5e9cc569aff5bd1ec9764db5,06/09/1952,2020-09-03_13h41.25.232,proactive2,2020.1.2,MacIntel,60,5f5126bb654d4b30ee6923d8,5f512aa262b184331912dad9,6,,,,,,basket,,,,,,,,,,,4,2,0,17,17,34,1,,,,,,,,,,,,,,,,,,
,,?,0.00058,0,,,,,,stimuli/images/PICTURE_667.png,GLASS,5e9cc569aff5bd1ec9764db5,06/09/1952,2020-09-03_13h41.25.232,proactive2,2020.1.2,MacIntel,60,5f5126bb654d4b30ee6923d8,5f512aa262b184331912dad9,6,,,,,,daisy,,,,,,,,,,,3,2,0,18,18,27,1,,,,,,,,,,,,,,,,,,
,,SALE,5.89242,1,,,,,,stimuli/images/PICTURE_655.png,SALE,5e9cc569aff5bd1ec9764db5,06/09/1952,2020-09-03_13h41.25.232,proactive2,2020.1.2,MacIntel,60,5f5126bb654d4b30ee6923d8,5f512aa262b184331912dad9,6,,,,,,megaphone,,,,,,,,,,,6,2,0,19,19,57,1,,,,,,,,,,,,,,,,,,
,,?,0.00092,0,,,,,,stimuli/images/PICTURE_403.png,FAMILY,5e9cc569aff5bd1ec9764db5,06/09/1952,2020-09-03_13h41.25.232,proactive2,2020.1.2,MacIntel,60,5f5126bb654d4b30ee6923d8,5f512aa262b184331912dad9,6,,,,,,cathedral,,,,,,,,,,,1,2,0,20,20,9,1,,,,,,,,,,,,,,,,,,
,,?,0.000685,0,,,,,,stimuli/images/PICTURE_68.png,KIND,5e9cc569aff5bd1ec9764db5,06/09/1952,2020-09-03_13h41.25.232,proactive2,2020.1.2,MacIntel,60,5f5126bb654d4b30ee6923d8,5f512aa262b184331912dad9,6,,,,,,candle,,,,,,,,,,,3,2,0,21,21,23,1,,,,,,,,,,,,,,,,,,
,,?,0.00058,0,,,,,,stimuli/images/PICTURE_208.png,SPIRIT,5e9cc569aff5bd1ec9764db5,06/09/1952,2020-09-03_13h41.25.232,proactive2,2020.1.2,MacIntel,60,5f5126bb654d4b30ee6923d8,5f512aa262b184331912dad9,6,,,,,,microphone,,,,,,,,,,,3,2,0,22,22,28,1,,,,,,,,,,,,,,,,,,
,,?,0.00057,0,,,,,,stimuli/images/PICTURE_18.png,RIVER,5e9cc569aff5bd1ec9764db5,06/09/1952,2020-09-03_13h41.25.232,proactive2,2020.1.2,MacIntel,60,5f5126bb654d4b30ee6923d8,5f512aa262b184331912dad9,6,,,,,,planet,,,,,,,,,,,3,2,0,23,23,22,1,,,,,,,,,,,,,,,,,,
,,?,0.00041,0,,,,,,stimuli/images/PICTURE_677.png,PHOTO,5e9cc569aff5bd1ec9764db5,06/09/1952,2020-09-03_13h41.25.232,proactive2,2020.1.2,MacIntel,60,5f5126bb654d4b30ee6923d8,5f512aa262b184331912dad9,6,,,,,,map,,,,,,,,,,,2,2,0,24,24,14,1,,,,,,,,,,,,,,,,,,
,,?,0.00039,0,,,,,,stimuli/images/PICTURE_654.png,COPS,5e9cc569aff5bd1ec9764db5,06/09/1952,2020-09-03_13h41.25.232,proactive2,2020.1.2,MacIntel,60,5f5126bb654d4b30ee6923d8,5f512aa262b184331912dad9,6,,,,,,pencil,,,,,,,,,,,2,2,0,25,25,10,1,,,,,,,,,,,,,,,,,,
,,?,0.00038,0,,,,,,stimuli/images/PICTURE_177.png,HOUSE,5e9cc569aff5bd1ec9764db5,06/09/1952,2020-09-03_13h41.25.232,proactive2,2020.1.2,MacIntel,60,5f5126bb654d4b30ee6923d8,5f512aa262b184331912dad9,6,,,,,,mushroom,,,,,,,,,,,3,2,0,26,26,25,1,,,,,,,,,,,,,,,,,,
,,?,0.00037,0,,,,,,stimuli/images/PICTURE_296.png,CLOCK,5e9cc569aff5bd1ec9764db5,06/09/1952,2020-09-03_13h41.25.232,proactive2,2020.1.2,MacIntel,60,5f5126bb654d4b30ee6923d8,5f512aa262b184331912dad9,6,,,,,,bolt,,,,,,,,,,,2,2,0,27,27,18,1,,,,,,,,,,,,,,,,,,
,,?,0.000375,0,,,,,,stimuli/images/PICTURE_255.png,PENNY,5e9cc569aff5bd1ec9764db5,06/09/1952,2020-09-03_13h41.25.232,proactive2,2020.1.2,MacIntel,60,5f5126bb654d4b30ee6923d8,5f512aa262b184331912dad9,6,,,,,,shovel,,,,,,,,,,,2,2,0,28,28,19,1,,,,,,,,,,,,,,,,,,
,,?,0.000395,0,,,,,,stimuli/images/PICTURE_405.png,HOUSE,5e9cc569aff5bd1ec9764db5,06/09/1952,2020-09-03_13h41.25.232,proactive2,2020.1.2,MacIntel,60,5f5126bb654d4b30ee6923d8,5f512aa262b184331912dad9,6,,,,,,anchor,,,,,,,,,,,1,2,0,29,29,2,1,,,,,,,,,,,,,,,,,,
,,?,0.000395,0,,,,,,stimuli/images/PICTURE_215.png,FOOD,5e9cc569aff5bd1ec9764db5,06/09/1952,2020-09-03_13h41.25.232,proactive2,2020.1.2,MacIntel,60,5f5126bb654d4b30ee6923d8,5f512aa262b184331912dad9,6,,,,,,boot,,,,,,,,,,,1,2,0,30,30,5,1,,,,,,,,,,,,,,,,,,
,,LETTER,2.885185,1,,,,,,stimuli/images/PICTURE_32.png,LETTER,5e9cc569aff5bd1ec9764db5,06/09/1952,2020-09-03_13h41.25.232,proactive2,2020.1.2,MacIntel,60,5f5126bb654d4b30ee6923d8,5f512aa262b184331912dad9,6,,,,,,crown,,,,,,,,,,,6,2,0,31,31,56,1,,,,,,,,,,,,,,,,,,
,,?,0.000965,0,,,,,,stimuli/images/PICTURE_33.png,COPS,5e9cc569aff5bd1ec9764db5,06/09/1952,2020-09-03_13h41.25.232,proactive2,2020.1.2,MacIntel,60,5f5126bb654d4b30ee6923d8,5f512aa262b184331912dad9,6,,,,,,frame,,,,,,,,,,,3,2,0,32,32,29,1,,,,,,,,,,,,,,,,,,
,,?,0.00069,0,,,,,,stimuli/images/PICTURE_509.png,APPLE,5e9cc569aff5bd1ec9764db5,06/09/1952,2020-09-03_13h41.25.232,proactive2,2020.1.2,MacIntel,60,5f5126bb654d4b30ee6923d8,5f512aa262b184331912dad9,6,,,,,,telephone,,,,,,,,,,,4,2,0,33,33,38,1,,,,,,,,,,,,,,,,,,
,,?,0.000555,0,,,,,,stimuli/images/PICTURE_452.png,COPS,5e9cc569aff5bd1ec9764db5,06/09/1952,2020-09-03_13h41.25.232,proactive2,2020.1.2,MacIntel,60,5f5126bb654d4b30ee6923d8,5f512aa262b184331912dad9,6,,,,,,watch,,,,,,,,,,,1,2,0,34,34,0,1,,,,,,,,,,,,,,,,,,
,,?,0.000585,0,,,,,,stimuli/images/PICTURE_504.png,HOUSE,5e9cc569aff5bd1ec9764db5,06/09/1952,2020-09-03_13h41.25.232,proactive2,2020.1.2,MacIntel,60,5f5126bb654d4b30ee6923d8,5f512aa262b184331912dad9,6,,,,,,wheel,,,,,,,,,,,4,2,0,35,35,36,1,,,,,,,,,,,,,,,,,,
,,?,0.00044,0,,,,,,stimuli/images/PICTURE_654.png,YEAR,5e9cc569aff5bd1ec9764db5,06/09/1952,2020-09-03_13h41.25.232,proactive2,2020.1.2,MacIntel,60,5f5126bb654d4b30ee6923d8,5f512aa262b184331912dad9,6,,,,,,pencil,,,,,,,,,,,5,2,0,36,36,41,1,,,,,,,,,,,,,,,,,,
,,?,0.000385,0,,,,,,stimuli/images/PICTURE_160.png,HOTEL,5e9cc569aff5bd1ec9764db5,06/09/1952,2020-09-03_13h41.25.232,proactive2,2020.1.2,MacIntel,60,5f5126bb654d4b30ee6923d8,5f512aa262b184331912dad9,6,,,,,,wheelbarrow,,,,,,,,,,,2,2,0,37,37,16,1,,,,,,,,,,,,,,,,,,
,,?,0.00038,0,,,,,,stimuli/images/PICTURE_509.png,MILLER,5e9cc569aff5bd1ec9764db5,06/09/1952,2020-09-03_13h41.25.232,proactive2,2020.1.2,MacIntel,60,5f5126bb654d4b30ee6923d8,5f512aa262b184331912dad9,6,,,,,,telephone,,,,,,,,,,,5,2,0,38,38,49,1,,,,,,,,,,,,,,,,,,
,,?,0.000385,0,,,,,,stimuli/images/PICTURE_2.png,JUNGLE,5e9cc569aff5bd1ec9764db5,06/09/1952,2020-09-03_13h41.25.232,proactive2,2020.1.2,MacIntel,60,5f5126bb654d4b30ee6923d8,5f512aa262b184331912dad9,6,,,,,,tyre,,,,,,,,,,,1,2,0,39,39,1,1,,,,,,,,,,,,,,,,,,
,,BODY,3.155915,1,,,,,,stimuli/images/PICTURE_297.png,BODY,5e9cc569aff5bd1ec9764db5,06/09/1952,2020-09-03_13h41.25.232,proactive2,2020.1.2,MacIntel,60,5f5126bb654d4b30ee6923d8,5f512aa262b184331912dad9,6,,,,,,aeroplane,,,,,,,,,,,6,2,0,40,40,51,1,,,,,,,,,,,,,,,,,,
,,?,0.000795,0,,,,,,stimuli/images/PICTURE_95.png,NIGHT,5e9cc569aff5bd1ec9764db5,06/09/1952,2020-09-03_13h41.25.232,proactive2,2020.1.2,MacIntel,60,5f5126bb654d4b30ee6923d8,5f512aa262b184331912dad9,6,,,,,,suitcase,,,,,,,,,,,4,2,0,41,41,37,1,,,,,,,,,,,,,,,,,,
,,?,0.000455,0,,,,,,stimuli/images/PICTURE_405.png,JUNGLE,5e9cc569aff5bd1ec9764db5,06/09/1952,2020-09-03_13h41.25.232,proactive2,2020.1.2,MacIntel,60,5f5126bb654d4b30ee6923d8,5f512aa262b184331912dad9,6,,,,,,anchor,,,,,,,,,,,2,2,0,42,42,13,1,,,,,,,,,,,,,,,,,,
,,FAMILY,2.779985,1,,,,,,stimuli/images/PICTURE_677.png,FAMILY,5e9cc569aff5bd1ec9764db5,06/09/1952,2020-09-03_13h41.25.232,proactive2,2020.1.2,MacIntel,60,5f5126bb654d4b30ee6923d8,5f512aa262b184331912dad9,6,,,,,,map,,,,,,,,,,,6,2,0,43,43,53,1,,,,,,,,,,,,,,,,,,
,,DUDE,3.39891,1,,,,,,stimuli/images/PICTURE_348.png,DUDE,5e9cc569aff5bd1ec9764db5,06/09/1952,2020-09-03_13h41.25.232,proactive2,2020.1.2,MacIntel,60,5f5126bb654d4b30ee6923d8,5f512aa262b184331912dad9,6,,,,,,pepper,,,,,,,,,,,6,2,0,44,44,59,1,,,,,,,,,,,,,,,,,,
,,?,0.000895,0,,,,,,stimuli/images/PICTURE_470.png,MOMENT,5e9cc569aff5bd1ec9764db5,06/09/1952,2020-09-03_13h41.25.232,proactive2,2020.1.2,MacIntel,60,5f5126bb654d4b30ee6923d8,5f512aa262b184331912dad9,6,,,,,,motorbike,,,,,,,,,,,5,2,0,45,45,40,1,,,,,,,,,,,,,,,,,,
,,?,0.00057,0,,,,,,stimuli/images/PICTURE_688.png,CLOCK,5e9cc569aff5bd1ec9764db5,06/09/1952,2020-09-03_13h41.25.232,proactive2,2020.1.2,MacIntel,60,5f5126bb654d4b30ee6923d8,5f512aa262b184331912dad9,6,,,,,,runner,,,,,,,,,,,5,2,0,46,46,42,1,,,,,,,,,,,,,,,,,,
,,?,0.00057,0,,,,,,stimuli/images/PICTURE_2.png,AREA,5e9cc569aff5bd1ec9764db5,06/09/1952,2020-09-03_13h41.25.232,proactive2,2020.1.2,MacIntel,60,5f5126bb654d4b30ee6923d8,5f512aa262b184331912dad9,6,,,,,,tyre,,,,,,,,,,,4,2,0,47,47,32,1,,,,,,,,,,,,,,,,,,
,,?,0.00056,0,,,,,,stimuli/images/PICTURE_285.png,PRINCE,5e9cc569aff5bd1ec9764db5,06/09/1952,2020-09-03_13h41.25.232,proactive2,2020.1.2,MacIntel,60,5f5126bb654d4b30ee6923d8,5f512aa262b184331912dad9,6,,,,,,carrot,,,,,,,,,,,3,2,0,48,48,20,1,,,,,,,,,,,,,,,,,,
,,?,0.0004,0,,,,,,stimuli/images/PICTURE_491.png,SERIES,5e9cc569aff5bd1ec9764db5,06/09/1952,2020-09-03_13h41.25.232,proactive2,2020.1.2,MacIntel,60,5f5126bb654d4b30ee6923d8,5f512aa262b184331912dad9,6,,,,,,rug,,,,,,,,,,,4,2,0,49,49,39,1,,,,,,,,,,,,,,,,,,
,,?,0.000355,0,,,,,,stimuli/images/PICTURE_57.png,CASINO,5e9cc569aff5bd1ec9764db5,06/09/1952,2020-09-03_13h41.25.232,proactive2,2020.1.2,MacIntel,60,5f5126bb654d4b30ee6923d8,5f512aa262b184331912dad9,6,,,,,,stamp,,,,,,,,,,,2,2,0,50,50,12,1,,,,,,,,,,,,,,,,,,
,,?,0.00117,0,,,,,,stimuli/images/PICTURE_509.png,BATH,5e9cc569aff5bd1ec9764db5,06/09/1952,2020-09-03_13h41.25.232,proactive2,2020.1.2,MacIntel,60,5f5126bb654d4b30ee6923d8,5f512aa262b184331912dad9,6,,,,,,telephone,,,,,,,,,,,2,2,0,51,51,15,1,,,,,,,,,,,,,,,,,,
,,TOILET,4.189525,1,,,,,,stimuli/images/PICTURE_311.png,TOILET,5e9cc569aff5bd1ec9764db5,06/09/1952,2020-09-03_13h41.25.232,proactive2,2020.1.2,MacIntel,60,5f5126bb654d4b30ee6923d8,5f512aa262b184331912dad9,6,,,,,,razor,,,,,,,,,,,6,2,0,52,52,54,1,,,,,,,,,,,,,,,,,,
,,JUNGLE,9.01596,1,,,,,,stimuli/images/PICTURE_405.png,JUNGLE,5e9cc569aff5bd1ec9764db5,06/09/1952,2020-09-03_13h41.25.232,proactive2,2020.1.2,MacIntel,60,5f5126bb654d4b30ee6923d8,5f512aa262b184331912dad9,6,,,,,,anchor,,,,,,,,,,,6,2,0,53,53,58,1,,,,,,,,,,,,,,,,,,
,,?,0.00103,0,,,,,,stimuli/images/PICTURE_327.png,LEADER,5e9cc569aff5bd1ec9764db5,06/09/1952,2020-09-03_13h41.25.232,proactive2,2020.1.2,MacIntel,60,5f5126bb654d4b30ee6923d8,5f512aa262b184331912dad9,6,,,,,,helmet,,,,,,,,,,,2,2,0,54,54,17,1,,,,,,,,,,,,,,,,,,
,,?,0.0007,0,,,,,,stimuli/images/PICTURE_141.png,CLIENT,5e9cc569aff5bd1ec9764db5,06/09/1952,2020-09-03_13h41.25.232,proactive2,2020.1.2,MacIntel,60,5f5126bb654d4b30ee6923d8,5f512aa262b184331912dad9,6,,,,,,sunflower,,,,,,,,,,,4,2,0,55,55,30,1,,,,,,,,,,,,,,,,,,
,,?,0.0006,0,,,,,,stimuli/images/PICTURE_311.png,FLESH,5e9cc569aff5bd1ec9764db5,06/09/1952,2020-09-03_13h41.25.232,proactive2,2020.1.2,MacIntel,60,5f5126bb654d4b30ee6923d8,5f512aa262b184331912dad9,6,,,,,,razor,,,,,,,,,,,1,2,0,56,56,3,1,,,,,,,,,,,,,,,,,,
,,?,0.00047,0,,,,,,stimuli/images/PICTURE_348.png,TOILET,5e9cc569aff5bd1ec9764db5,06/09/1952,2020-09-03_13h41.25.232,proactive2,2020.1.2,MacIntel,60,5f5126bb654d4b30ee6923d8,5f512aa262b184331912dad9,6,,,,,,pepper,,,,,,,,,,,1,2,0,57,57,4,1,,,,,,,,,,,,,,,,,,
,,?,0.00039,0,,,,,,stimuli/images/PICTURE_147.png,LEADER,5e9cc569aff5bd1ec9764db5,06/09/1952,2020-09-03_13h41.25.232,proactive2,2020.1.2,MacIntel,60,5f5126bb654d4b30ee6923d8,5f512aa262b184331912dad9,6,,,,,,hanger,,,,,,,,,,,4,2,0,58,58,33,1,,,,,,,,,,,,,,,,,,
,,?,0.00038,0,,,,,,stimuli/images/PICTURE_750.png,POLICY,5e9cc569aff5bd1ec9764db5,06/09/1952,2020-09-03_13h41.25.232,proactive2,2020.1.2,MacIntel,60,5f5126bb654d4b30ee6923d8,5f512aa262b184331912dad9,6,,,,,,kettle,,,,,,,,,,,5,2,0,59,59,44,1,,,,,,,,,,,,,,,,,,
,,,,,,,,,,,,5e9cc569aff5bd1ec9764db5,06/09/1952,2020-09-03_13h41.25.232,proactive2,2020.1.2,MacIntel,60,5f5126bb654d4b30ee6923d8,5f512aa262b184331912dad9,6,,,,,,,,,,,,,,,,,,,,,,,,,,,,,,space,17.083635,0,0,0,0,1,,,,,
,,,,,,,,,,stimuli/images/PICTURE_296.png,LOTS,5e9cc569aff5bd1ec9764db5,06/09/1952,2020-09-03_13h41.25.232,proactive2,2020.1.2,MacIntel,60,5f5126bb654d4b30ee6923d8,5f512aa262b184331912dad9,6,,,,,,bolt,,,,,,0,0,0,9,1,1,1,,,,,,,,,,,,,,,,,,,,,,,
,,,,,,,,,,stimuli/images/PICTURE_487.png,GIRL,5e9cc569aff5bd1ec9764db5,06/09/1952,2020-09-03_13h41.25.232,proactive2,2020.1.2,MacIntel,60,5f5126bb654d4b30ee6923d8,5f512aa262b184331912dad9,6,,,,,,basket,,,,,,0,1,1,45,1,5,1,,,,,,,,,,,,,,,,,,,,,,,
,,,,,,,,,,stimuli/images/PICTURE_449.png,DUDE,5e9cc569aff5bd1ec9764db5,06/09/1952,2020-09-03_13h41.25.232,proactive2,2020.1.2,MacIntel,60,5f5126bb654d4b30ee6923d8,5f512aa262b184331912dad9,6,,,,,,bench,,,,,,0,2,2,17,1,2,1,,,,,,,,,,,,,,,,,,,,,,,
,,,,,,,,,,stimuli/images/PICTURE_405.png,PLENTY,5e9cc569aff5bd1ec9764db5,06/09/1952,2020-09-03_13h41.25.232,proactive2,2020.1.2,MacIntel,60,5f5126bb654d4b30ee6923d8,5f512aa262b184331912dad9,6,,,,,,anchor,,,,,,0,3,3,23,1,3,1,,,,,,,,,,,,,,,,,,,,,,,
,,,,,,,,,,stimuli/images/PICTURE_339.png,CLIENT,5e9cc569aff5bd1ec9764db5,06/09/1952,2020-09-03_13h41.25.232,proactive2,2020.1.2,MacIntel,60,5f5126bb654d4b30ee6923d8,5f512aa262b184331912dad9,6,,,,,,backpack,,,,,,0,4,4,11,1,2,1,,,,,,,,,,,,,,,,,,,,,,,
,,,,,,,,,,stimuli/images/PICTURE_177.png,WRITER,5e9cc569aff5bd1ec9764db5,06/09/1952,2020-09-03_13h41.25.232,proactive2,2020.1.2,MacIntel,60,5f5126bb654d4b30ee6923d8,5f512aa262b184331912dad9,6,,,,,,mushroom,,,,,,0,5,5,41,1,5,1,,,,,,,,,,,,,,,,,,,,,,,
,,,,,,,,,,stimuli/images/PICTURE_491.png,RIVER,5e9cc569aff5bd1ec9764db5,06/09/1952,2020-09-03_13h41.25.232,proactive2,2020.1.2,MacIntel,60,5f5126bb654d4b30ee6923d8,5f512aa262b184331912dad9,6,,,,,,rug,,,,,,0,6,6,6,1,1,1,,,,,,,,,,,,,,,,,,,,,,,
,,,,,,,,,,stimuli/images/PICTURE_42.png,BOYS,5e9cc569aff5bd1ec9764db5,06/09/1952,2020-09-03_13h41.25.232,proactive2,2020.1.2,MacIntel,60,5f5126bb654d4b30ee6923d8,5f512aa262b184331912dad9,6,,,,,,pear,,,,,,0,7,7,55,1,6,1,,,,,,,,,,,,,,,,,,,,,,,
,,,,,,,,,,stimuli/images/PICTURE_405.png,YEAR,5e9cc569aff5bd1ec9764db5,06/09/1952,2020-09-03_13h41.25.232,proactive2,2020.1.2,MacIntel,60,5f5126bb654d4b30ee6923d8,5f512aa262b184331912dad9,6,,,,,,anchor,,,,,,0,8,8,34,1,4,1,,,,,,,,,,,,,,,,,,,,,,,
,,,,,,,,,,stimuli/images/PICTURE_147.png,WOMEN,5e9cc569aff5bd1ec9764db5,06/09/1952,2020-09-03_13h41.25.232,proactive2,2020.1.2,MacIntel,60,5f5126bb654d4b30ee6923d8,5f512aa262b184331912dad9,6,,,,,,hanger,,,,,,0,9,9,7,1,1,1,,,,,,,,,,,,,,,,,,,,,,,
,,,,,,,,,,stimuli/images/PICTURE_655.png,TOILET,5e9cc569aff5bd1ec9764db5,06/09/1952,2020-09-03_13h41.25.232,proactive2,2020.1.2,MacIntel,60,5f5126bb654d4b30ee6923d8,5f512aa262b184331912dad9,6,,,,,,megaphone,,,,,,0,10,10,12,1,2,1,,,,,,,,,,,,,,,,,,,,,,,
,,,,,,,,,,stimuli/images/PICTURE_285.png,LIFE,5e9cc569aff5bd1ec9764db5,06/09/1952,2020-09-03_13h41.25.232,proactive2,2020.1.2,MacIntel,60,5f5126bb654d4b30ee6923d8,5f512aa262b184331912dad9,6,,,,,,carrot,,,,,,0,11,11,33,1,4,1,,,,,,,,,,,,,,,,,,,,,,,
,,,,,,,,,,stimuli/images/PICTURE_147.png,YEAR,5e9cc569aff5bd1ec9764db5,06/09/1952,2020-09-03_13h41.25.232,proactive2,2020.1.2,MacIntel,60,5f5126bb654d4b30ee6923d8,5f512aa262b184331912dad9,6,,,,,,hanger,,,,,,0,12,12,21,1,3,1,,,,,,,,,,,,,,,,,,,,,,,
,,,,,,,,,,stimuli/images/PICTURE_380.png,CANDY,5e9cc569aff5bd1ec9764db5,06/09/1952,2020-09-03_13h41.25.232,proactive2,2020.1.2,MacIntel,60,5f5126bb654d4b30ee6923d8,5f512aa262b184331912dad9,6,,,,,,gorilla,,,,,,0,13,13,0,1,1,1,,,,,,,,,,,,,,,,,,,,,,,
,,,,,,,,,,stimuli/images/PICTURE_296.png,LIFE,5e9cc569aff5bd1ec9764db5,06/09/1952,2020-09-03_13h41.25.232,proactive2,2020.1.2,MacIntel,60,5f5126bb654d4b30ee6923d8,5f512aa262b184331912dad9,6,,,,,,bolt,,,,,,0,14,14,57,1,6,1,,,,,,,,,,,,,,,,,,,,,,,
,,,,,,,,,,stimuli/images/PICTURE_2.png,FLIGHT,5e9cc569aff5bd1ec9764db5,06/09/1952,2020-09-03_13h41.25.232,proactive2,2020.1.2,MacIntel,60,5f5126bb654d4b30ee6923d8,5f512aa262b184331912dad9,6,,,,,,tyre,,,,,,0,15,15,15,1,2,1,,,,,,,,,,,,,,,,,,,,,,,
,,,,,,,,,,stimuli/images/PICTURE_491.png,GLASS,5e9cc569aff5bd1ec9764db5,06/09/1952,2020-09-03_13h41.25.232,proactive2,2020.1.2,MacIntel,60,5f5126bb654d4b30ee6923d8,5f512aa262b184331912dad9,6,,,,,,rug,,,,,,0,16,16,14,1,2,1,,,,,,,,,,,,,,,,,,,,,,,
,,,,,,,,,,stimuli/images/PICTURE_504.png,COPS,5e9cc569aff5bd1ec9764db5,06/09/1952,2020-09-03_13h41.25.232,proactive2,2020.1.2,MacIntel,60,5f5126bb654d4b30ee6923d8,5f512aa262b184331912dad9,6,,,,,,wheel,,,,,,0,17,17,52,1,6,1,,,,,,,,,,,,,,,,,,,,,,,
,,,,,,,,,,stimuli/images/PICTURE_403.png,WRITER,5e9cc569aff5bd1ec9764db5,06/09/1952,2020-09-03_13h41.25.232,proactive2,2020.1.2,MacIntel,60,5f5126bb654d4b30ee6923d8,5f512aa262b184331912dad9,6,,,,,,cathedral,,,,,,0,18,18,31,1,4,1,,,,,,,,,,,,,,,,,,,,,,,
,,,,,,,,,,stimuli/images/PICTURE_108.png,POLICY,5e9cc569aff5bd1ec9764db5,06/09/1952,2020-09-03_13h41.25.232,proactive2,2020.1.2,MacIntel,60,5f5126bb654d4b30ee6923d8,5f512aa262b184331912dad9,6,,,,,,calendar,,,,,,0,19,19,22,1,3,1,,,,,,,,,,,,,,,,,,,,,,,
,,,,,,,,,,stimuli/images/PICTURE_708.png,RECORD,5e9cc569aff5bd1ec9764db5,06/09/1952,2020-09-03_13h41.25.232,proactive2,2020.1.2,MacIntel,60,5f5126bb654d4b30ee6923d8,5f512aa262b184331912dad9,6,,,,,,monkey,,,,,,0,20,20,58,1,6,1,,,,,,,,,,,,,,,,,,,,,,,
