consent_key.keys,consent_key.rt,recalled,recalled_rt,recall_acc,example_recall.thisRepN,example_recall.thisTrialN,example_recall.thisN,example_recall.thisIndex,example_recall.ran,file,word,participant,please enter your date of birth (dd/mm/yyyy),date,expName,psychopyVersion,OS,frameRate,STUDY_ID,SESSION_ID,list,prac_learn_study_loop.thisRepN,prac_learn_study_loop.thisTrialN,prac_learn_study_loop.thisN,prac_learn_study_loop.thisIndex,prac_learn_study_loop.ran,image,prac_learn_test_loop.thisRepN,prac_learn_test_loop.thisTrialN,prac_learn_test_loop.thisN,prac_learn_test_loop.thisIndex,prac_learn_test_loop.ran,learn_study_loop.thisRepN,learn_study_loop.thisTrialN,learn_study_loop.thisN,learn_study_loop.thisIndex,learn_study_loop.ran,list_no,block_no,learn_test_loop.thisRepN,learn_test_loop.thisTrialN,learn_test_loop.thisN,learn_test_loop.thisIndex,learn_test_loop.ran,learn_blocks.thisRepN,learn_blocks.thisTrialN,learn_blocks.thisN,learn_blocks.thisIndex,learn_blocks.ran,block_csv,key_resp_13.keys,key_resp_13.rt,learn_blocks_loop.thisRepN,learn_blocks_loop.thisTrialN,learn_blocks_loop.thisN,learn_blocks_loop.thisIndex,learn_blocks_loop.ran,final_learn_test.thisRepN,final_learn_test.thisTrialN,final_learn_test.thisN,final_learn_test.thisIndex,final_learn_test.ran,s_im1,s_im2,s_im3,s_im4,s_im5,s_im6,s_im7,s_im8,s_im1pos,s_im2pos,s_im3pos,s_im4pos,s_im5pos,s_im6pos,s_im7pos,s_im8pos,s_tarright,search_resp.keys,search_resp.rt,search_loop.thisRepN,search_loop.thisTrialN,search_loop.thisN,search_loop.thisIndex,search_loop.ran,prac_wm_test_loop.thisRepN,prac_wm_test_loop.thisTrialN,prac_wm_test_loop.thisN,prac_wm_test_loop.thisIndex,prac_wm_test_loop.ran,wm_recalled1,wm_recall_rt1,wm_probed1,wm_recall_acc1,wm_recalled2,wm_recall_rt2,wm_probed2,wm_recall_acc2,wm_recalled3,wm_recall_rt3,wm_probed3,wm_recall_acc3,wm_recalled4,wm_recall_rt4,wm_probed4,wm_recall_acc4,prac_wm_trial_loop.thisRepN,prac_wm_trial_loop.thisTrialN,prac_wm_trial_loop.thisN,prac_wm_trial_loop.thisIndex,prac_wm_trial_loop.ran,word1,image1,file1,item_type1,word2,image2,file2,item_type2,word4,image4,file4,item_type4,word3,image3,file3,item_type3,wm_test_loop.thisRepN,wm_test_loop.thisTrialN,wm_test_loop.thisN,wm_test_loop.thisIndex,wm_test_loop.ran,wm_trial_loop.thisRepN,wm_trial_loop.thisTrialN,wm_trial_loop.thisN,wm_trial_loop.thisIndex,wm_trial_loop.ran
y,21.016,TOUGH,5.082,1,0,0,0,0,1,stimuli/images/PICTURE_747.png,TOUGH,5e9ffcf4db51941ad78e04f3,19/01/1953,2020-09-03_21h02.21.418,proactive2,2020.1.2,Win32,60,5f5126bb654d4b30ee6923d8,5f514b92d864aa373a2ae7dc,1,,,,,,,,,,,,,,,,,,,,,,,,,,,,,,,,,,,,,,,,,,,,,,,,,,,,,,,,,,,,,,,,,,,,,,,,,,,,,,,,,,,,,,,,,,,,,,,,,,,,,,,,,,,,,,,,,,,,,
,,,,,,,,,,stimuli/images/PICTURE_727.png,CELL,5e9ffcf4db51941ad78e04f3,19/01/1953,2020-09-03_21h02.21.418,proactive2,2020.1.2,Win32,60,5f5126bb654d4b30ee6923d8,5f514b92d864aa373a2ae7dc,1,0,0,0,1,1,hose,,,,,,,,,,,,,,,,,,,,,,,,,,,,,,,,,,,,,,,,,,,,,,,,,,,,,,,,,,,,,,,,,,,,,,,,,,,,,,,,,,,,,,,,,,,,,,,,,,,,,,,,,,,,,,,
,,,,,,,,,,stimuli/images/PICTURE_658.png,DEVIL,5e9ffcf4db51941ad78e04f3,19/01/1953,2020-09-03_21h02.21.418,proactive2,2020.1.2,Win32,60,5f5126bb654d4b30ee6923d8,5f514b92d864aa373a2ae7dc,1,0,1,1,3,1,crow,,,,,,,,,,,,,,,,,,,,,,,,,,,,,,,,,,,,,,,,,,,,,,,,,,,,,,,,,,,,,,,,,,,,,,,,,,,,,,,,,,,,,,,,,,,,,,,,,,,,,,,,,,,,,,,
,,,,,,,,,,stimuli/images/PICTURE_697.png,KILLER,5e9ffcf4db51941ad78e04f3,19/01/1953,2020-09-03_21h02.21.418,proactive2,2020.1.2,Win32,60,5f5126bb654d4b30ee6923d8,5f514b92d864aa373a2ae7dc,1,0,2,2,4,1,peach,,,,,,,,,,,,,,,,,,,,,,,,,,,,,,,,,,,,,,,,,,,,,,,,,,,,,,,,,,,,,,,,,,,,,,,,,,,,,,,,,,,,,,,,,,,,,,,,,,,,,,,,,,,,,,,
,,,,,,,,,,stimuli/images/PICTURE_269.png,GENIUS,5e9ffcf4db51941ad78e04f3,19/01/1953,2020-09-03_21h02.21.418,proactive2,2020.1.2,Win32,60,5f5126bb654d4b30ee6923d8,5f514b92d864aa373a2ae7dc,1,0,3,3,0,1,chameleon,,,,,,,,,,,,,,,,,,,,,,,,,,,,,,,,,,,,,,,,,,,,,,,,,,,,,,,,,,,,,,,,,,,,,,,,,,,,,,,,,,,,,,,,,,,,,,,,,,,,,,,,,,,,,,,
,,LOSS,4.369,1,,,,,,stimuli/images/PICTURE_378.png,LOSS,5e9ffcf4db51941ad78e04f3,19/01/1953,2020-09-03_21h02.21.418,proactive2,2020.1.2,Win32,60,5f5126bb654d4b30ee6923d8,5f514b92d864aa373a2ae7dc,1,,,,,,lobster,0,0,0,2,1,,,,,,,,,,,,,,,,,,,,,,,,,,,,,,,,,,,,,,,,,,,,,,,,,,,,,,,,,,,,,,,,,,,,,,,,,,,,,,,,,,,,,,,,,,,,,,,,,,,,,,,,,,
,,KILLER,3.616,1,,,,,,stimuli/images/PICTURE_697.png,KILLER,5e9ffcf4db51941ad78e04f3,19/01/1953,2020-09-03_21h02.21.418,proactive2,2020.1.2,Win32,60,5f5126bb654d4b30ee6923d8,5f514b92d864aa373a2ae7dc,1,,,,,,peach,0,1,1,4,1,,,,,,,,,,,,,,,,,,,,,,,,,,,,,,,,,,,,,,,,,,,,,,,,,,,,,,,,,,,,,,,,,,,,,,,,,,,,,,,,,,,,,,,,,,,,,,,,,,,,,,,,,,
,,DEVIL,3.689,1,,,,,,stimuli/images/PICTURE_658.png,DEVIL,5e9ffcf4db51941ad78e04f3,19/01/1953,2020-09-03_21h02.21.418,proactive2,2020.1.2,Win32,60,5f5126bb654d4b30ee6923d8,5f514b92d864aa373a2ae7dc,1,,,,,,crow,0,2,2,3,1,,,,,,,,,,,,,,,,,,,,,,,,,,,,,,,,,,,,,,,,,,,,,,,,,,,,,,,,,,,,,,,,,,,,,,,,,,,,,,,,,,,,,,,,,,,,,,,,,,,,,,,,,,
,,?,3.554,0,,,,,,stimuli/images/PICTURE_269.png,GENIUS,5e9ffcf4db51941ad78e04f3,19/01/1953,2020-09-03_21h02.21.418,proactive2,2020.1.2,Win32,60,5f5126bb654d4b30ee6923d8,5f514b92d864aa373a2ae7dc,1,,,,,,chameleon,0,3,3,0,1,,,,,,,,,,,,,,,,,,,,,,,,,,,,,,,,,,,,,,,,,,,,,,,,,,,,,,,,,,,,,,,,,,,,,,,,,,,,,,,,,,,,,,,,,,,,,,,,,,,,,,,,,,
,,?,2.008,0,,,,,,stimuli/images/PICTURE_727.png,CELL,5e9ffcf4db51941ad78e04f3,19/01/1953,2020-09-03_21h02.21.418,proactive2,2020.1.2,Win32,60,5f5126bb654d4b30ee6923d8,5f514b92d864aa373a2ae7dc,1,,,,,,hose,0,4,4,1,1,,,,,,,,,,,,,,,,,,,,,,,,,,,,,,,,,,,,,,,,,,,,,,,,,,,,,,,,,,,,,,,,,,,,,,,,,,,,,,,,,,,,,,,,,,,,,,,,,,,,,,,,,,
,,,,,,,,,,stimuli/images/PICTURE_655.png,SALE,5e9ffcf4db51941ad78e04f3,19/01/1953,2020-09-03_21h02.21.418,proactive2,2020.1.2,Win32,60,5f5126bb654d4b30ee6923d8,5f514b92d864aa373a2ae7dc,1,,,,,,megaphone,,,,,,0,0,0,57,1,6,2,,,,,,,,,,,,,,,,,,,,,,,,,,,,,,,,,,,,,,,,,,,,,,,,,,,,,,,,,,,,,,,,,,,,,,,,,,,,,,,,,,,,,,,,,,,,,,,,,,,
,,,,,,,,,,stimuli/images/PICTURE_57.png,CASINO,5e9ffcf4db51941ad78e04f3,19/01/1953,2020-09-03_21h02.21.418,proactive2,2020.1.2,Win32,60,5f5126bb654d4b30ee6923d8,5f514b92d864aa373a2ae7dc,1,,,,,,stamp,,,,,,0,1,1,12,1,2,2,,,,,,,,,,,,,,,,,,,,,,,,,,,,,,,,,,,,,,,,,,,,,,,,,,,,,,,,,,,,,,,,,,,,,,,,,,,,,,,,,,,,,,,,,,,,,,,,,,,
,,,,,,,,,,stimuli/images/PICTURE_311.png,FLESH,5e9ffcf4db51941ad78e04f3,19/01/1953,2020-09-03_21h02.21.418,proactive2,2020.1.2,Win32,60,5f5126bb654d4b30ee6923d8,5f514b92d864aa373a2ae7dc,1,,,,,,razor,,,,,,0,2,2,3,1,1,2,,,,,,,,,,,,,,,,,,,,,,,,,,,,,,,,,,,,,,,,,,,,,,,,,,,,,,,,,,,,,,,,,,,,,,,,,,,,,,,,,,,,,,,,,,,,,,,,,,,
,,,,,,,,,,stimuli/images/PICTURE_692.png,DUDE,5e9ffcf4db51941ad78e04f3,19/01/1953,2020-09-03_21h02.21.418,proactive2,2020.1.2,Win32,60,5f5126bb654d4b30ee6923d8,5f514b92d864aa373a2ae7dc,1,,,,,,cherry,,,,,,0,3,3,47,1,5,2,,,,,,,,,,,,,,,,,,,,,,,,,,,,,,,,,,,,,,,,,,,,,,,,,,,,,,,,,,,,,,,,,,,,,,,,,,,,,,,,,,,,,,,,,,,,,,,,,,,
,,,,,,,,,,stimuli/images/PICTURE_297.png,BODY,5e9ffcf4db51941ad78e04f3,19/01/1953,2020-09-03_21h02.21.418,proactive2,2020.1.2,Win32,60,5f5126bb654d4b30ee6923d8,5f514b92d864aa373a2ae7dc,1,,,,,,aeroplane,,,,,,0,4,4,51,1,6,2,,,,,,,,,,,,,,,,,,,,,,,,,,,,,,,,,,,,,,,,,,,,,,,,,,,,,,,,,,,,,,,,,,,,,,,,,,,,,,,,,,,,,,,,,,,,,,,,,,,
,,,,,,,,,,stimuli/images/PICTURE_750.png,POLICY,5e9ffcf4db51941ad78e04f3,19/01/1953,2020-09-03_21h02.21.418,proactive2,2020.1.2,Win32,60,5f5126bb654d4b30ee6923d8,5f514b92d864aa373a2ae7dc,1,,,,,,kettle,,,,,,0,5,5,44,1,5,2,,,,,,,,,,,,,,,,,,,,,,,,,,,,,,,,,,,,,,,,,,,,,,,,,,,,,,,,,,,,,,,,,,,,,,,,,,,,,,,,,,,,,,,,,,,,,,,,,,,
,,,,,,,,,,stimuli/images/PICTURE_2.png,AREA,5e9ffcf4db51941ad78e04f3,19/01/1953,2020-09-03_21h02.21.418,proactive2,2020.1.2,Win32,60,5f5126bb654d4b30ee6923d8,5f514b92d864aa373a2ae7dc,1,,,,,,tyre,,,,,,0,6,6,32,1,4,2,,,,,,,,,,,,,,,,,,,,,,,,,,,,,,,,,,,,,,,,,,,,,,,,,,,,,,,,,,,,,,,,,,,,,,,,,,,,,,,,,,,,,,,,,,,,,,,,,,,
,,,,,,,,,,stimuli/images/PICTURE_654.png,COPS,5e9ffcf4db51941ad78e04f3,19/01/1953,2020-09-03_21h02.21.418,proactive2,2020.1.2,Win32,60,5f5126bb654d4b30ee6923d8,5f514b92d864aa373a2ae7dc,1,,,,,,pencil,,,,,,0,7,7,10,1,2,2,,,,,,,,,,,,,,,,,,,,,,,,,,,,,,,,,,,,,,,,,,,,,,,,,,,,,,,,,,,,,,,,,,,,,,,,,,,,,,,,,,,,,,,,,,,,,,,,,,,
,,,,,,,,,,stimuli/images/PICTURE_123.png,SALE,5e9ffcf4db51941ad78e04f3,19/01/1953,2020-09-03_21h02.21.418,proactive2,2020.1.2,Win32,60,5f5126bb654d4b30ee6923d8,5f514b92d864aa373a2ae7dc,1,,,,,,dart,,,,,,0,8,8,8,1,1,2,,,,,,,,,,,,,,,,,,,,,,,,,,,,,,,,,,,,,,,,,,,,,,,,,,,,,,,,,,,,,,,,,,,,,,,,,,,,,,,,,,,,,,,,,,,,,,,,,,,
,,,,,,,,,,stimuli/images/PICTURE_314.png,SPEECH,5e9ffcf4db51941ad78e04f3,19/01/1953,2020-09-03_21h02.21.418,proactive2,2020.1.2,Win32,60,5f5126bb654d4b30ee6923d8,5f514b92d864aa373a2ae7dc,1,,,,,,perfume,,,,,,0,9,9,35,1,4,2,,,,,,,,,,,,,,,,,,,,,,,,,,,,,,,,,,,,,,,,,,,,,,,,,,,,,,,,,,,,,,,,,,,,,,,,,,,,,,,,,,,,,,,,,,,,,,,,,,,
,,,,,,,,,,stimuli/images/PICTURE_667.png,GLASS,5e9ffcf4db51941ad78e04f3,19/01/1953,2020-09-03_21h02.21.418,proactive2,2020.1.2,Win32,60,5f5126bb654d4b30ee6923d8,5f514b92d864aa373a2ae7dc,1,,,,,,daisy,,,,,,0,10,10,27,1,3,2,,,,,,,,,,,,,,,,,,,,,,,,,,,,,,,,,,,,,,,,,,,,,,,,,,,,,,,,,,,,,,,,,,,,,,,,,,,,,,,,,,,,,,,,,,,,,,,,,,,
,,,,,,,,,,stimuli/images/PICTURE_509.png,MILLER,5e9ffcf4db51941ad78e04f3,19/01/1953,2020-09-03_21h02.21.418,proactive2,2020.1.2,Win32,60,5f5126bb654d4b30ee6923d8,5f514b92d864aa373a2ae7dc,1,,,,,,telephone,,,,,,0,11,11,49,1,5,2,,,,,,,,,,,,,,,,,,,,,,,,,,,,,,,,,,,,,,,,,,,,,,,,,,,,,,,,,,,,,,,,,,,,,,,,,,,,,,,,,,,,,,,,,,,,,,,,,,,
,,,,,,,,,,stimuli/images/PICTURE_564.png,PLENTY,5e9ffcf4db51941ad78e04f3,19/01/1953,2020-09-03_21h02.21.418,proactive2,2020.1.2,Win32,60,5f5126bb654d4b30ee6923d8,5f514b92d864aa373a2ae7dc,1,,,,,,spoon,,,,,,0,12,12,11,1,2,2,,,,,,,,,,,,,,,,,,,,,,,,,,,,,,,,,,,,,,,,,,,,,,,,,,,,,,,,,,,,,,,,,,,,,,,,,,,,,,,,,,,,,,,,,,,,,,,,,,,
,,,,,,,,,,stimuli/images/PICTURE_57.png,NATION,5e9ffcf4db51941ad78e04f3,19/01/1953,2020-09-03_21h02.21.418,proactive2,2020.1.2,Win32,60,5f5126bb654d4b30ee6923d8,5f514b92d864aa373a2ae7dc,1,,,,,,stamp,,,,,,0,13,13,21,1,3,2,,,,,,,,,,,,,,,,,,,,,,,,,,,,,,,,,,,,,,,,,,,,,,,,,,,,,,,,,,,,,,,,,,,,,,,,,,,,,,,,,,,,,,,,,,,,,,,,,,,
,,,,,,,,,,stimuli/images/PICTURE_93.png,GIRL,5e9ffcf4db51941ad78e04f3,19/01/1953,2020-09-03_21h02.21.418,proactive2,2020.1.2,Win32,60,5f5126bb654d4b30ee6923d8,5f514b92d864aa373a2ae7dc,1,,,,,,skateboard,,,,,,0,14,14,31,1,4,2,,,,,,,,,,,,,,,,,,,,,,,,,,,,,,,,,,,,,,,,,,,,,,,,,,,,,,,,,,,,,,,,,,,,,,,,,,,,,,,,,,,,,,,,,,,,,,,,,,,
,,,,,,,,,,stimuli/images/PICTURE_403.png,FAMILY,5e9ffcf4db51941ad78e04f3,19/01/1953,2020-09-03_21h02.21.418,proactive2,2020.1.2,Win32,60,5f5126bb654d4b30ee6923d8,5f514b92d864aa373a2ae7dc,1,,,,,,cathedral,,,,,,0,15,15,9,1,1,2,,,,,,,,,,,,,,,,,,,,,,,,,,,,,,,,,,,,,,,,,,,,,,,,,,,,,,,,,,,,,,,,,,,,,,,,,,,,,,,,,,,,,,,,,,,,,,,,,,,
,,,,,,,,,,stimuli/images/PICTURE_32.png,LETTER,5e9ffcf4db51941ad78e04f3,19/01/1953,2020-09-03_21h02.21.418,proactive2,2020.1.2,Win32,60,5f5126bb654d4b30ee6923d8,5f514b92d864aa373a2ae7dc,1,,,,,,crown,,,,,,0,16,16,56,1,6,2,,,,,,,,,,,,,,,,,,,,,,,,,,,,,,,,,,,,,,,,,,,,,,,,,,,,,,,,,,,,,,,,,,,,,,,,,,,,,,,,,,,,,,,,,,,,,,,,,,,
,,,,,,,,,,stimuli/images/PICTURE_509.png,SHOTS,5e9ffcf4db51941ad78e04f3,19/01/1953,2020-09-03_21h02.21.418,proactive2,2020.1.2,Win32,60,5f5126bb654d4b30ee6923d8,5f514b92d864aa373a2ae7dc,1,,,,,,telephone,,,,,,0,17,17,7,1,1,2,,,,,,,,,,,,,,,,,,,,,,,,,,,,,,,,,,,,,,,,,,,,,,,,,,,,,,,,,,,,,,,,,,,,,,,,,,,,,,,,,,,,,,,,,,,,,,,,,,,
,,,,,,,,,,stimuli/images/PICTURE_215.png,FOOD,5e9ffcf4db51941ad78e04f3,19/01/1953,2020-09-03_21h02.21.418,proactive2,2020.1.2,Win32,60,5f5126bb654d4b30ee6923d8,5f514b92d864aa373a2ae7dc,1,,,,,,boot,,,,,,0,18,18,5,1,1,2,,,,,,,,,,,,,,,,,,,,,,,,,,,,,,,,,,,,,,,,,,,,,,,,,,,,,,,,,,,,,,,,,,,,,,,,,,,,,,,,,,,,,,,,,,,,,,,,,,,
,,,,,,,,,,stimuli/images/PICTURE_654.png,YEAR,5e9ffcf4db51941ad78e04f3,19/01/1953,2020-09-03_21h02.21.418,proactive2,2020.1.2,Win32,60,5f5126bb654d4b30ee6923d8,5f514b92d864aa373a2ae7dc,1,,,,,,pencil,,,,,,0,19,19,41,1,5,2,,,,,,,,,,,,,,,,,,,,,,,,,,,,,,,,,,,,,,,,,,,,,,,,,,,,,,,,,,,,,,,,,,,,,,,,,,,,,,,,,,,,,,,,,,,,,,,,,,,
,,,,,,,,,,stimuli/images/PICTURE_405.png,JUNGLE,5e9ffcf4db51941ad78e04f3,19/01/1953,2020-09-03_21h02.21.418,proactive2,2020.1.2,Win32,60,5f5126bb654d4b30ee6923d8,5f514b92d864aa373a2ae7dc,1,,,,,,anchor,,,,,,0,20,20,13,1,2,2,,,,,,,,,,,,,,,,,,,,,,,,,,,,,,,,,,,,,,,,,,,,,,,,,,,,,,,,,,,,,,,,,,,,,,,,,,,,,,,,,,,,,,,,,,,,,,,,,,,
,,,,,,,,,,stimuli/images/PICTURE_296.png,CLOCK,5e9ffcf4db51941ad78e04f3,19/01/1953,2020-09-03_21h02.21.418,proactive2,2020.1.2,Win32,60,5f5126bb654d4b30ee6923d8,5f514b92d864aa373a2ae7dc,1,,,,,,bolt,,,,,,0,21,21,18,1,2,2,,,,,,,,,,,,,,,,,,,,,,,,,,,,,,,,,,,,,,,,,,,,,,,,,,,,,,,,,,,,,,,,,,,,,,,,,,,,,,,,,,,,,,,,,,,,,,,,,,,
,,,,,,,,,,stimuli/images/PICTURE_57.png,CANDY,5e9ffcf4db51941ad78e04f3,19/01/1953,2020-09-03_21h02.21.418,proactive2,2020.1.2,Win32,60,5f5126bb654d4b30ee6923d8,5f514b92d864aa373a2ae7dc,1,,,,,,stamp,,,,,,0,22,22,52,1,6,2,,,,,,,,,,,,,,,,,,,,,,,,,,,,,,,,,,,,,,,,,,,,,,,,,,,,,,,,,,,,,,,,,,,,,,,,,,,,,,,,,,,,,,,,,,,,,,,,,,,
,,,,,,,,,,stimuli/images/PICTURE_677.png,FAMILY,5e9ffcf4db51941ad78e04f3,19/01/1953,2020-09-03_21h02.21.418,proactive2,2020.1.2,Win32,60,5f5126bb654d4b30ee6923d8,5f514b92d864aa373a2ae7dc,1,,,,,,map,,,,,,0,23,23,53,1,6,2,,,,,,,,,,,,,,,,,,,,,,,,,,,,,,,,,,,,,,,,,,,,,,,,,,,,,,,,,,,,,,,,,,,,,,,,,,,,,,,,,,,,,,,,,,,,,,,,,,,
,,,,,,,,,,stimuli/images/PICTURE_509.png,APPLE,5e9ffcf4db51941ad78e04f3,19/01/1953,2020-09-03_21h02.21.418,proactive2,2020.1.2,Win32,60,5f5126bb654d4b30ee6923d8,5f514b92d864aa373a2ae7dc,1,,,,,,telephone,,,,,,0,24,24,38,1,4,2,,,,,,,,,,,,,,,,,,,,,,,,,,,,,,,,,,,,,,,,,,,,,,,,,,,,,,,,,,,,,,,,,,,,,,,,,,,,,,,,,,,,,,,,,,,,,,,,,,,
,,,,,,,,,,stimuli/images/PICTURE_504.png,HOUSE,5e9ffcf4db51941ad78e04f3,19/01/1953,2020-09-03_21h02.21.418,proactive2,2020.1.2,Win32,60,5f5126bb654d4b30ee6923d8,5f514b92d864aa373a2ae7dc,1,,,,,,wheel,,,,,,0,25,25,36,1,4,2,,,,,,,,,,,,,,,,,,,,,,,,,,,,,,,,,,,,,,,,,,,,,,,,,,,,,,,,,,,,,,,,,,,,,,,,,,,,,,,,,,,,,,,,,,,,,,,,,,,
,,,,,,,,,,stimuli/images/PICTURE_33.png,COPS,5e9ffcf4db51941ad78e04f3,19/01/1953,2020-09-03_21h02.21.418,proactive2,2020.1.2,Win32,60,5f5126bb654d4b30ee6923d8,5f514b92d864aa373a2ae7dc,1,,,,,,frame,,,,,,0,26,26,29,1,3,2,,,,,,,,,,,,,,,,,,,,,,,,,,,,,,,,,,,,,,,,,,,,,,,,,,,,,,,,,,,,,,,,,,,,,,,,,,,,,,,,,,,,,,,,,,,,,,,,,,,
,,,,,,,,,,stimuli/images/PICTURE_177.png,HOUSE,5e9ffcf4db51941ad78e04f3,19/01/1953,2020-09-03_21h02.21.418,proactive2,2020.1.2,Win32,60,5f5126bb654d4b30ee6923d8,5f514b92d864aa373a2ae7dc,1,,,,,,mushroom,,,,,,0,27,27,25,1,3,2,,,,,,,,,,,,,,,,,,,,,,,,,,,,,,,,,,,,,,,,,,,,,,,,,,,,,,,,,,,,,,,,,,,,,,,,,,,,,,,,,,,,,,,,,,,,,,,,,,,
,,,,,,,,,,stimuli/images/PICTURE_18.png,RIVER,5e9ffcf4db51941ad78e04f3,19/01/1953,2020-09-03_21h02.21.418,proactive2,2020.1.2,Win32,60,5f5126bb654d4b30ee6923d8,5f514b92d864aa373a2ae7dc,1,,,,,,planet,,,,,,0,28,28,22,1,3,2,,,,,,,,,,,,,,,,,,,,,,,,,,,,,,,,,,,,,,,,,,,,,,,,,,,,,,,,,,,,,,,,,,,,,,,,,,,,,,,,,,,,,,,,,,,,,,,,,,,
,,,,,,,,,,stimuli/images/PICTURE_95.png,NIGHT,5e9ffcf4db51941ad78e04f3,19/01/1953,2020-09-03_21h02.21.418,proactive2,2020.1.2,Win32,60,5f5126bb654d4b30ee6923d8,5f514b92d864aa373a2ae7dc,1,,,,,,suitcase,,,,,,0,29,29,37,1,4,2,,,,,,,,,,,,,,,,,,,,,,,,,,,,,,,,,,,,,,,,,,,,,,,,,,,,,,,,,,,,,,,,,,,,,,,,,,,,,,,,,,,,,,,,,,,,,,,,,,,
,,,,,,,,,,stimuli/images/PICTURE_348.png,DUDE,5e9ffcf4db51941ad78e04f3,19/01/1953,2020-09-03_21h02.21.418,proactive2,2020.1.2,Win32,60,5f5126bb654d4b30ee6923d8,5f514b92d864aa373a2ae7dc,1,,,,,,pepper,,,,,,0,30,30,59,1,6,2,,,,,,,,,,,,,,,,,,,,,,,,,,,,,,,,,,,,,,,,,,,,,,,,,,,,,,,,,,,,,,,,,,,,,,,,,,,,,,,,,,,,,,,,,,,,,,,,,,,
,,,,,,,,,,stimuli/images/PICTURE_215.png,BOYS,5e9ffcf4db51941ad78e04f3,19/01/1953,2020-09-03_21h02.21.418,proactive2,2020.1.2,Win32,60,5f5126bb654d4b30ee6923d8,5f514b92d864aa373a2ae7dc,1,,,,,,boot,,,,,,0,31,31,24,1,3,2,,,,,,,,,,,,,,,,,,,,,,,,,,,,,,,,,,,,,,,,,,,,,,,,,,,,,,,,,,,,,,,,,,,,,,,,,,,,,,,,,,,,,,,,,,,,,,,,,,,
,,,,,,,,,,stimuli/images/PICTURE_285.png,WRITER,5e9ffcf4db51941ad78e04f3,19/01/1953,2020-09-03_21h02.21.418,proactive2,2020.1.2,Win32,60,5f5126bb654d4b30ee6923d8,5f514b92d864aa373a2ae7dc,1,,,,,,carrot,,,,,,0,32,32,6,1,1,2,,,,,,,,,,,,,,,,,,,,,,,,,,,,,,,,,,,,,,,,,,,,,,,,,,,,,,,,,,,,,,,,,,,,,,,,,,,,,,,,,,,,,,,,,,,,,,,,,,,
,,,,,,,,,,stimuli/images/PICTURE_208.png,SPIRIT,5e9ffcf4db51941ad78e04f3,19/01/1953,2020-09-03_21h02.21.418,proactive2,2020.1.2,Win32,60,5f5126bb654d4b30ee6923d8,5f514b92d864aa373a2ae7dc,1,,,,,,microphone,,,,,,0,33,33,28,1,3,2,,,,,,,,,,,,,,,,,,,,,,,,,,,,,,,,,,,,,,,,,,,,,,,,,,,,,,,,,,,,,,,,,,,,,,,,,,,,,,,,,,,,,,,,,,,,,,,,,,,
,,,,,,,,,,stimuli/images/PICTURE_348.png,TOILET,5e9ffcf4db51941ad78e04f3,19/01/1953,2020-09-03_21h02.21.418,proactive2,2020.1.2,Win32,60,5f5126bb654d4b30ee6923d8,5f514b92d864aa373a2ae7dc,1,,,,,,pepper,,,,,,0,34,34,4,1,1,2,,,,,,,,,,,,,,,,,,,,,,,,,,,,,,,,,,,,,,,,,,,,,,,,,,,,,,,,,,,,,,,,,,,,,,,,,,,,,,,,,,,,,,,,,,,,,,,,,,,
,,,,,,,,,,stimuli/images/PICTURE_487.png,ROOF,5e9ffcf4db51941ad78e04f3,19/01/1953,2020-09-03_21h02.21.418,proactive2,2020.1.2,Win32,60,5f5126bb654d4b30ee6923d8,5f514b92d864aa373a2ae7dc,1,,,,,,basket,,,,,,0,35,35,50,1,6,2,,,,,,,,,,,,,,,,,,,,,,,,,,,,,,,,,,,,,,,,,,,,,,,,,,,,,,,,,,,,,,,,,,,,,,,,,,,,,,,,,,,,,,,,,,,,,,,,,,,
,,,,,,,,,,stimuli/images/PICTURE_688.png,CLOCK,5e9ffcf4db51941ad78e04f3,19/01/1953,2020-09-03_21h02.21.418,proactive2,2020.1.2,Win32,60,5f5126bb654d4b30ee6923d8,5f514b92d864aa373a2ae7dc,1,,,,,,runner,,,,,,0,36,36,42,1,5,2,,,,,,,,,,,,,,,,,,,,,,,,,,,,,,,,,,,,,,,,,,,,,,,,,,,,,,,,,,,,,,,,,,,,,,,,,,,,,,,,,,,,,,,,,,,,,,,,,,,
,,,,,,,,,,stimuli/images/PICTURE_311.png,TOILET,5e9ffcf4db51941ad78e04f3,19/01/1953,2020-09-03_21h02.21.418,proactive2,2020.1.2,Win32,60,5f5126bb654d4b30ee6923d8,5f514b92d864aa373a2ae7dc,1,,,,,,razor,,,,,,0,37,37,54,1,6,2,,,,,,,,,,,,,,,,,,,,,,,,,,,,,,,,,,,,,,,,,,,,,,,,,,,,,,,,,,,,,,,,,,,,,,,,,,,,,,,,,,,,,,,,,,,,,,,,,,,
,,,,,,,,,,stimuli/images/PICTURE_2.png,YARD,5e9ffcf4db51941ad78e04f3,19/01/1953,2020-09-03_21h02.21.418,proactive2,2020.1.2,Win32,60,5f5126bb654d4b30ee6923d8,5f514b92d864aa373a2ae7dc,1,,,,,,tyre,,,,,,0,38,38,55,1,6,2,,,,,,,,,,,,,,,,,,,,,,,,,,,,,,,,,,,,,,,,,,,,,,,,,,,,,,,,,,,,,,,,,,,,,,,,,,,,,,,,,,,,,,,,,,,,,,,,,,,
,,,,,,,,,,stimuli/images/PICTURE_141.png,CLIENT,5e9ffcf4db51941ad78e04f3,19/01/1953,2020-09-03_21h02.21.418,proactive2,2020.1.2,Win32,60,5f5126bb654d4b30ee6923d8,5f514b92d864aa373a2ae7dc,1,,,,,,sunflower,,,,,,0,39,39,30,1,4,2,,,,,,,,,,,,,,,,,,,,,,,,,,,,,,,,,,,,,,,,,,,,,,,,,,,,,,,,,,,,,,,,,,,,,,,,,,,,,,,,,,,,,,,,,,,,,,,,,,,
,,,,,,,,,,stimuli/images/PICTURE_285.png,PRINCE,5e9ffcf4db51941ad78e04f3,19/01/1953,2020-09-03_21h02.21.418,proactive2,2020.1.2,Win32,60,5f5126bb654d4b30ee6923d8,5f514b92d864aa373a2ae7dc,1,,,,,,carrot,,,,,,0,40,40,20,1,3,2,,,,,,,,,,,,,,,,,,,,,,,,,,,,,,,,,,,,,,,,,,,,,,,,,,,,,,,,,,,,,,,,,,,,,,,,,,,,,,,,,,,,,,,,,,,,,,,,,,,
,,,,,,,,,,stimuli/images/PICTURE_405.png,JUNGLE,5e9ffcf4db51941ad78e04f3,19/01/1953,2020-09-03_21h02.21.418,proactive2,2020.1.2,Win32,60,5f5126bb654d4b30ee6923d8,5f514b92d864aa373a2ae7dc,1,,,,,,anchor,,,,,,0,41,41,58,1,6,2,,,,,,,,,,,,,,,,,,,,,,,,,,,,,,,,,,,,,,,,,,,,,,,,,,,,,,,,,,,,,,,,,,,,,,,,,,,,,,,,,,,,,,,,,,,,,,,,,,,
,,,,,,,,,,stimuli/images/PICTURE_509.png,BATH,5e9ffcf4db51941ad78e04f3,19/01/1953,2020-09-03_21h02.21.418,proactive2,2020.1.2,Win32,60,5f5126bb654d4b30ee6923d8,5f514b92d864aa373a2ae7dc,1,,,,,,telephone,,,,,,0,42,42,15,1,2,2,,,,,,,,,,,,,,,,,,,,,,,,,,,,,,,,,,,,,,,,,,,,,,,,,,,,,,,,,,,,,,,,,,,,,,,,,,,,,,,,,,,,,,,,,,,,,,,,,,,
,,,,,,,,,,stimuli/images/PICTURE_677.png,PHOTO,5e9ffcf4db51941ad78e04f3,19/01/1953,2020-09-03_21h02.21.418,proactive2,2020.1.2,Win32,60,5f5126bb654d4b30ee6923d8,5f514b92d864aa373a2ae7dc,1,,,,,,map,,,,,,0,43,43,14,1,2,2,,,,,,,,,,,,,,,,,,,,,,,,,,,,,,,,,,,,,,,,,,,,,,,,,,,,,,,,,,,,,,,,,,,,,,,,,,,,,,,,,,,,,,,,,,,,,,,,,,,
,,,,,,,,,,stimuli/images/PICTURE_491.png,SERIES,5e9ffcf4db51941ad78e04f3,19/01/1953,2020-09-03_21h02.21.418,proactive2,2020.1.2,Win32,60,5f5126bb654d4b30ee6923d8,5f514b92d864aa373a2ae7dc,1,,,,,,rug,,,,,,0,44,44,39,1,4,2,,,,,,,,,,,,,,,,,,,,,,,,,,,,,,,,,,,,,,,,,,,,,,,,,,,,,,,,,,,,,,,,,,,,,,,,,,,,,,,,,,,,,,,,,,,,,,,,,,,
,,,,,,,,,,stimuli/images/PICTURE_2.png,JUNGLE,5e9ffcf4db51941ad78e04f3,19/01/1953,2020-09-03_21h02.21.418,proactive2,2020.1.2,Win32,60,5f5126bb654d4b30ee6923d8,5f514b92d864aa373a2ae7dc,1,,,,,,tyre,,,,,,0,45,45,1,1,1,2,,,,,,,,,,,,,,,,,,,,,,,,,,,,,,,,,,,,,,,,,,,,,,,,,,,,,,,,,,,,,,,,,,,,,,,,,,,,,,,,,,,,,,,,,,,,,,,,,,,
,,,,,,,,,,stimuli/images/PICTURE_68.png,KIND,5e9ffcf4db51941ad78e04f3,19/01/1953,2020-09-03_21h02.21.418,proactive2,2020.1.2,Win32,60,5f5126bb654d4b30ee6923d8,5f514b92d864aa373a2ae7dc,1,,,,,,candle,,,,,,0,46,46,23,1,3,2,,,,,,,,,,,,,,,,,,,,,,,,,,,,,,,,,,,,,,,,,,,,,,,,,,,,,,,,,,,,,,,,,,,,,,,,,,,,,,,,,,,,,,,,,,,,,,,,,,,
,,,,,,,,,,stimuli/images/PICTURE_215.png,LEADER,5e9ffcf4db51941ad78e04f3,19/01/1953,2020-09-03_21h02.21.418,proactive2,2020.1.2,Win32,60,5f5126bb654d4b30ee6923d8,5f514b92d864aa373a2ae7dc,1,,,,,,boot,,,,,,0,47,47,43,1,5,2,,,,,,,,,,,,,,,,,,,,,,,,,,,,,,,,,,,,,,,,,,,,,,,,,,,,,,,,,,,,,,,,,,,,,,,,,,,,,,,,,,,,,,,,,,,,,,,,,,,
,,,,,,,,,,stimuli/images/PICTURE_327.png,LEADER,5e9ffcf4db51941ad78e04f3,19/01/1953,2020-09-03_21h02.21.418,proactive2,2020.1.2,Win32,60,5f5126bb654d4b30ee6923d8,5f514b92d864aa373a2ae7dc,1,,,,,,helmet,,,,,,0,48,48,17,1,2,2,,,,,,,,,,,,,,,,,,,,,,,,,,,,,,,,,,,,,,,,,,,,,,,,,,,,,,,,,,,,,,,,,,,,,,,,,,,,,,,,,,,,,,,,,,,,,,,,,,,
,,,,,,,,,,stimuli/images/PICTURE_708.png,VALLEY,5e9ffcf4db51941ad78e04f3,19/01/1953,2020-09-03_21h02.21.418,proactive2,2020.1.2,Win32,60,5f5126bb654d4b30ee6923d8,5f514b92d864aa373a2ae7dc,1,,,,,,monkey,,,,,,0,49,49,45,1,5,2,,,,,,,,,,,,,,,,,,,,,,,,,,,,,,,,,,,,,,,,,,,,,,,,,,,,,,,,,,,,,,,,,,,,,,,,,,,,,,,,,,,,,,,,,,,,,,,,,,,
,,,,,,,,,,stimuli/images/PICTURE_452.png,COPS,5e9ffcf4db51941ad78e04f3,19/01/1953,2020-09-03_21h02.21.418,proactive2,2020.1.2,Win32,60,5f5126bb654d4b30ee6923d8,5f514b92d864aa373a2ae7dc,1,,,,,,watch,,,,,,0,50,50,0,1,1,2,,,,,,,,,,,,,,,,,,,,,,,,,,,,,,,,,,,,,,,,,,,,,,,,,,,,,,,,,,,,,,,,,,,,,,,,,,,,,,,,,,,,,,,,,,,,,,,,,,,
,,,,,,,,,,stimuli/images/PICTURE_405.png,HOUSE,5e9ffcf4db51941ad78e04f3,19/01/1953,2020-09-03_21h02.21.418,proactive2,2020.1.2,Win32,60,5f5126bb654d4b30ee6923d8,5f514b92d864aa373a2ae7dc,1,,,,,,anchor,,,,,,0,51,51,2,1,1,2,,,,,,,,,,,,,,,,,,,,,,,,,,,,,,,,,,,,,,,,,,,,,,,,,,,,,,,,,,,,,,,,,,,,,,,,,,,,,,,,,,,,,,,,,,,,,,,,,,,
,,,,,,,,,,stimuli/images/PICTURE_160.png,HOTEL,5e9ffcf4db51941ad78e04f3,19/01/1953,2020-09-03_21h02.21.418,proactive2,2020.1.2,Win32,60,5f5126bb654d4b30ee6923d8,5f514b92d864aa373a2ae7dc,1,,,,,,wheelbarrow,,,,,,0,52,52,16,1,2,2,,,,,,,,,,,,,,,,,,,,,,,,,,,,,,,,,,,,,,,,,,,,,,,,,,,,,,,,,,,,,,,,,,,,,,,,,,,,,,,,,,,,,,,,,,,,,,,,,,,
,,,,,,,,,,stimuli/images/PICTURE_255.png,PENNY,5e9ffcf4db51941ad78e04f3,19/01/1953,2020-09-03_21h02.21.418,proactive2,2020.1.2,Win32,60,5f5126bb654d4b30ee6923d8,5f514b92d864aa373a2ae7dc,1,,,,,,shovel,,,,,,0,53,53,19,1,2,2,,,,,,,,,,,,,,,,,,,,,,,,,,,,,,,,,,,,,,,,,,,,,,,,,,,,,,,,,,,,,,,,,,,,,,,,,,,,,,,,,,,,,,,,,,,,,,,,,,,
,,,,,,,,,,stimuli/images/PICTURE_470.png,BEAUTY,5e9ffcf4db51941ad78e04f3,19/01/1953,2020-09-03_21h02.21.418,proactive2,2020.1.2,Win32,60,5f5126bb654d4b30ee6923d8,5f514b92d864aa373a2ae7dc,1,,,,,,motorbike,,,,,,0,54,54,26,1,3,2,,,,,,,,,,,,,,,,,,,,,,,,,,,,,,,,,,,,,,,,,,,,,,,,,,,,,,,,,,,,,,,,,,,,,,,,,,,,,,,,,,,,,,,,,,,,,,,,,,,
,,,,,,,,,,stimuli/images/PICTURE_453.png,FAMILY,5e9ffcf4db51941ad78e04f3,19/01/1953,2020-09-03_21h02.21.418,proactive2,2020.1.2,Win32,60,5f5126bb654d4b30ee6923d8,5f514b92d864aa373a2ae7dc,1,,,,,,scissors,,,,,,0,55,55,48,1,5,2,,,,,,,,,,,,,,,,,,,,,,,,,,,,,,,,,,,,,,,,,,,,,,,,,,,,,,,,,,,,,,,,,,,,,,,,,,,,,,,,,,,,,,,,,,,,,,,,,,,
,,,,,,,,,,stimuli/images/PICTURE_470.png,MOMENT,5e9ffcf4db51941ad78e04f3,19/01/1953,2020-09-03_21h02.21.418,proactive2,2020.1.2,Win32,60,5f5126bb654d4b30ee6923d8,5f514b92d864aa373a2ae7dc,1,,,,,,motorbike,,,,,,0,56,56,40,1,5,2,,,,,,,,,,,,,,,,,,,,,,,,,,,,,,,,,,,,,,,,,,,,,,,,,,,,,,,,,,,,,,,,,,,,,,,,,,,,,,,,,,,,,,,,,,,,,,,,,,,
,,,,,,,,,,stimuli/images/PICTURE_356.png,CANDY,5e9ffcf4db51941ad78e04f3,19/01/1953,2020-09-03_21h02.21.418,proactive2,2020.1.2,Win32,60,5f5126bb654d4b30ee6923d8,5f514b92d864aa373a2ae7dc,1,,,,,,pawn,,,,,,0,57,57,46,1,5,2,,,,,,,,,,,,,,,,,,,,,,,,,,,,,,,,,,,,,,,,,,,,,,,,,,,,,,,,,,,,,,,,,,,,,,,,,,,,,,,,,,,,,,,,,,,,,,,,,,,
,,,,,,,,,,stimuli/images/PICTURE_487.png,POLICY,5e9ffcf4db51941ad78e04f3,19/01/1953,2020-09-03_21h02.21.418,proactive2,2020.1.2,Win32,60,5f5126bb654d4b30ee6923d8,5f514b92d864aa373a2ae7dc,1,,,,,,basket,,,,,,0,58,58,34,1,4,2,,,,,,,,,,,,,,,,,,,,,,,,,,,,,,,,,,,,,,,,,,,,,,,,,,,,,,,,,,,,,,,,,,,,,,,,,,,,,,,,,,,,,,,,,,,,,,,,,,,
,,?,0.002,0,,,,,,stimuli/images/PICTURE_33.png,COPS,5e9ffcf4db51941ad78e04f3,19/01/1953,2020-09-03_21h02.21.418,proactive2,2020.1.2,Win32,60,5f5126bb654d4b30ee6923d8,5f514b92d864aa373a2ae7dc,1,,,,,,frame,,,,,,,,,,,3,2,0,0,0,29,1,,,,,,,,,,,,,,,,,,,,,,,,,,,,,,,,,,,,,,,,,,,,,,,,,,,,,,,,,,,,,,,,,,,,,,,,,,,,,,,,,,,,,,,,,,,,,,
,,?,0.002,0,,,,,,stimuli/images/PICTURE_147.png,LEADER,5e9ffcf4db51941ad78e04f3,19/01/1953,2020-09-03_21h02.21.418,proactive2,2020.1.2,Win32,60,5f5126bb654d4b30ee6923d8,5f514b92d864aa373a2ae7dc,1,,,,,,hanger,,,,,,,,,,,4,2,0,1,1,33,1,,,,,,,,,,,,,,,,,,,,,,,,,,,,,,,,,,,,,,,,,,,,,,,,,,,,,,,,,,,,,,,,,,,,,,,,,,,,,,,,,,,,,,,,,,,,,,
,,?,0.003,0,,,,,,stimuli/images/PICTURE_487.png,ROOF,5e9ffcf4db51941ad78e04f3,19/01/1953,2020-09-03_21h02.21.418,proactive2,2020.1.2,Win32,60,5f5126bb654d4b30ee6923d8,5f514b92d864aa373a2ae7dc,1,,,,,,basket,,,,,,,,,,,6,2,0,2,2,50,1,,,,,,,,,,,,,,,,,,,,,,,,,,,,,,,,,,,,,,,,,,,,,,,,,,,,,,,,,,,,,,,,,,,,,,,,,,,,,,,,,,,,,,,,,,,,,,
,,?,0.003,0,,,,,,stimuli/images/PICTURE_655.png,SALE,5e9ffcf4db51941ad78e04f3,19/01/1953,2020-09-03_21h02.21.418,proactive2,2020.1.2,Win32,60,5f5126bb654d4b30ee6923d8,5f514b92d864aa373a2ae7dc,1,,,,,,megaphone,,,,,,,,,,,6,2,0,3,3,57,1,,,,,,,,,,,,,,,,,,,,,,,,,,,,,,,,,,,,,,,,,,,,,,,,,,,,,,,,,,,,,,,,,,,,,,,,,,,,,,,,,,,,,,,,,,,,,,
,,?,0.002,0,,,,,,stimuli/images/PICTURE_667.png,GLASS,5e9ffcf4db51941ad78e04f3,19/01/1953,2020-09-03_21h02.21.418,proactive2,2020.1.2,Win32,60,5f5126bb654d4b30ee6923d8,5f514b92d864aa373a2ae7dc,1,,,,,,daisy,,,,,,,,,,,3,2,0,4,4,27,1,,,,,,,,,,,,,,,,,,,,,,,,,,,,,,,,,,,,,,,,,,,,,,,,,,,,,,,,,,,,,,,,,,,,,,,,,,,,,,,,,,,,,,,,,,,,,,
,,?,6.115,0,,,,,,stimuli/images/PICTURE_285.png,WRITER,5e9ffcf4db51941ad78e04f3,19/01/1953,2020-09-03_21h02.21.418,proactive2,2020.1.2,Win32,60,5f5126bb654d4b30ee6923d8,5f514b92d864aa373a2ae7dc,1,,,,,,carrot,,,,,,,,,,,1,2,0,5,5,6,1,,,,,,,,,,,,,,,,,,,,,,,,,,,,,,,,,,,,,,,,,,,,,,,,,,,,,,,,,,,,,,,,,,,,,,,,,,,,,,,,,,,,,,,,,,,,,,
,,?,0.002,0,,,,,,stimuli/images/PICTURE_93.png,GIRL,5e9ffcf4db51941ad78e04f3,19/01/1953,2020-09-03_21h02.21.418,proactive2,2020.1.2,Win32,60,5f5126bb654d4b30ee6923d8,5f514b92d864aa373a2ae7dc,1,,,,,,skateboard,,,,,,,,,,,4,2,0,6,6,31,1,,,,,,,,,,,,,,,,,,,,,,,,,,,,,,,,,,,,,,,,,,,,,,,,,,,,,,,,,,,,,,,,,,,,,,,,,,,,,,,,,,,,,,,,,,,,,,
,,?,0.002,0,,,,,,stimuli/images/PICTURE_57.png,CANDY,5e9ffcf4db51941ad78e04f3,19/01/1953,2020-09-03_21h02.21.418,proactive2,2020.1.2,Win32,60,5f5126bb654d4b30ee6923d8,5f514b92d864aa373a2ae7dc,1,,,,,,stamp,,,,,,,,,,,6,2,0,7,7,52,1,,,,,,,,,,,,,,,,,,,,,,,,,,,,,,,,,,,,,,,,,,,,,,,,,,,,,,,,,,,,,,,,,,,,,,,,,,,,,,,,,,,,,,,,,,,,,,
,,?,0.002,0,,,,,,stimuli/images/PICTURE_509.png,MILLER,5e9ffcf4db51941ad78e04f3,19/01/1953,2020-09-03_21h02.21.418,proactive2,2020.1.2,Win32,60,5f5126bb654d4b30ee6923d8,5f514b92d864aa373a2ae7dc,1,,,,,,telephone,,,,,,,,,,,5,2,0,8,8,49,1,,,,,,,,,,,,,,,,,,,,,,,,,,,,,,,,,,,,,,,,,,,,,,,,,,,,,,,,,,,,,,,,,,,,,,,,,,,,,,,,,,,,,,,,,,,,,,
,,?,0.002,0,,,,,,stimuli/images/PICTURE_470.png,BEAUTY,5e9ffcf4db51941ad78e04f3,19/01/1953,2020-09-03_21h02.21.418,proactive2,2020.1.2,Win32,60,5f5126bb654d4b30ee6923d8,5f514b92d864aa373a2ae7dc,1,,,,,,motorbike,,,,,,,,,,,3,2,0,9,9,26,1,,,,,,,,,,,,,,,,,,,,,,,,,,,,,,,,,,,,,,,,,,,,,,,,,,,,,,,,,,,,,,,,,,,,,,,,,,,,,,,,,,,,,,,,,,,,,,
,,?,0.002,0,,,,,,stimuli/images/PICTURE_654.png,COPS,5e9ffcf4db51941ad78e04f3,19/01/1953,2020-09-03_21h02.21.418,proactive2,2020.1.2,Win32,60,5f5126bb654d4b30ee6923d8,5f514b92d864aa373a2ae7dc,1,,,,,,pencil,,,,,,,,,,,2,2,0,10,10,10,1,,,,,,,,,,,,,,,,,,,,,,,,,,,,,,,,,,,,,,,,,,,,,,,,,,,,,,,,,,,,,,,,,,,,,,,,,,,,,,,,,,,,,,,,,,,,,,
,,?,0.002,0,,,,,,stimuli/images/PICTURE_2.png,AREA,5e9ffcf4db51941ad78e04f3,19/01/1953,2020-09-03_21h02.21.418,proactive2,2020.1.2,Win32,60,5f5126bb654d4b30ee6923d8,5f514b92d864aa373a2ae7dc,1,,,,,,tyre,,,,,,,,,,,4,2,0,11,11,32,1,,,,,,,,,,,,,,,,,,,,,,,,,,,,,,,,,,,,,,,,,,,,,,,,,,,,,,,,,,,,,,,,,,,,,,,,,,,,,,,,,,,,,,,,,,,,,,
,,?,0.002,0,,,,,,stimuli/images/PICTURE_491.png,SERIES,5e9ffcf4db51941ad78e04f3,19/01/1953,2020-09-03_21h02.21.418,proactive2,2020.1.2,Win32,60,5f5126bb654d4b30ee6923d8,5f514b92d864aa373a2ae7dc,1,,,,,,rug,,,,,,,,,,,4,2,0,12,12,39,1,,,,,,,,,,,,,,,,,,,,,,,,,,,,,,,,,,,,,,,,,,,,,,,,,,,,,,,,,,,,,,,,,,,,,,,,,,,,,,,,,,,,,,,,,,,,,,
,,?,0.002,0,,,,,,stimuli/images/PICTURE_215.png,BOYS,5e9ffcf4db51941ad78e04f3,19/01/1953,2020-09-03_21h02.21.418,proactive2,2020.1.2,Win32,60,5f5126bb654d4b30ee6923d8,5f514b92d864aa373a2ae7dc,1,,,,,,boot,,,,,,,,,,,3,2,0,13,13,24,1,,,,,,,,,,,,,,,,,,,,,,,,,,,,,,,,,,,,,,,,,,,,,,,,,,,,,,,,,,,,,,,,,,,,,,,,,,,,,,,,,,,,,,,,,,,,,,
,,?,0.002,0,,,,,,stimuli/images/PICTURE_57.png,NATION,5e9ffcf4db51941ad78e04f3,19/01/1953,2020-09-03_21h02.21.418,proactive2,2020.1.2,Win32,60,5f5126bb654d4b30ee6923d8,5f514b92d864aa373a2ae7dc,1,,,,,,stamp,,,,,,,,,,,3,2,0,14,14,21,1,,,,,,,,,,,,,,,,,,,,,,,,,,,,,,,,,,,,,,,,,,,,,,,,,,,,,,,,,,,,,,,,,,,,,,,,,,,,,,,,,,,,,,,,,,,,,,
,,?,0.001,0,,,,,,stimuli/images/PICTURE_509.png,BATH,5e9ffcf4db51941ad78e04f3,19/01/1953,2020-09-03_21h02.21.418,proactive2,2020.1.2,Win32,60,5f5126bb654d4b30ee6923d8,5f514b92d864aa373a2ae7dc,1,,,,,,telephone,,,,,,,,,,,2,2,0,15,15,15,1,,,,,,,,,,,,,,,,,,,,,,,,,,,,,,,,,,,,,,,,,,,,,,,,,,,,,,,,,,,,,,,,,,,,,,,,,,,,,,,,,,,,,,,,,,,,,,
,,KILLER,3.766,0,,,,,,stimuli/images/PICTURE_405.png,HOUSE,5e9ffcf4db51941ad78e04f3,19/01/1953,2020-09-03_21h02.21.418,proactive2,2020.1.2,Win32,60,5f5126bb654d4b30ee6923d8,5f514b92d864aa373a2ae7dc,1,,,,,,anchor,,,,,,,,,,,1,2,0,16,16,2,1,,,,,,,,,,,,,,,,,,,,,,,,,,,,,,,,,,,,,,,,,,,,,,,,,,,,,,,,,,,,,,,,,,,,,,,,,,,,,,,,,,,,,,,,,,,,,,
,,?,0.002,0,,,,,,stimuli/images/PICTURE_32.png,LETTER,5e9ffcf4db51941ad78e04f3,19/01/1953,2020-09-03_21h02.21.418,proactive2,2020.1.2,Win32,60,5f5126bb654d4b30ee6923d8,5f514b92d864aa373a2ae7dc,1,,,,,,crown,,,,,,,,,,,6,2,0,17,17,56,1,,,,,,,,,,,,,,,,,,,,,,,,,,,,,,,,,,,,,,,,,,,,,,,,,,,,,,,,,,,,,,,,,,,,,,,,,,,,,,,,,,,,,,,,,,,,,,
,,?,0.002,0,,,,,,stimuli/images/PICTURE_177.png,HOUSE,5e9ffcf4db51941ad78e04f3,19/01/1953,2020-09-03_21h02.21.418,proactive2,2020.1.2,Win32,60,5f5126bb654d4b30ee6923d8,5f514b92d864aa373a2ae7dc,1,,,,,,mushroom,,,,,,,,,,,3,2,0,18,18,25,1,,,,,,,,,,,,,,,,,,,,,,,,,,,,,,,,,,,,,,,,,,,,,,,,,,,,,,,,,,,,,,,,,,,,,,,,,,,,,,,,,,,,,,,,,,,,,,
,,?,0.002,0,,,,,,stimuli/images/PICTURE_208.png,SPIRIT,5e9ffcf4db51941ad78e04f3,19/01/1953,2020-09-03_21h02.21.418,proactive2,2020.1.2,Win32,60,5f5126bb654d4b30ee6923d8,5f514b92d864aa373a2ae7dc,1,,,,,,microphone,,,,,,,,,,,3,2,0,19,19,28,1,,,,,,,,,,,,,,,,,,,,,,,,,,,,,,,,,,,,,,,,,,,,,,,,,,,,,,,,,,,,,,,,,,,,,,,,,,,,,,,,,,,,,,,,,,,,,,
,,?,0.004,0,,,,,,stimuli/images/PICTURE_708.png,VALLEY,5e9ffcf4db51941ad78e04f3,19/01/1953,2020-09-03_21h02.21.418,proactive2,2020.1.2,Win32,60,5f5126bb654d4b30ee6923d8,5f514b92d864aa373a2ae7dc,1,,,,,,monkey,,,,,,,,,,,5,2,0,20,20,45,1,,,,,,,,,,,,,,,,,,,,,,,,,,,,,,,,,,,,,,,,,,,,,,,,,,,,,,,,,,,,,,,,,,,,,,,,,,,,,,,,,,,,,,,,,,,,,,
,,?,0.003,0,,,,,,stimuli/images/PICTURE_297.png,BODY,5e9ffcf4db51941ad78e04f3,19/01/1953,2020-09-03_21h02.21.418,proactive2,2020.1.2,Win32,60,5f5126bb654d4b30ee6923d8,5f514b92d864aa373a2ae7dc,1,,,,,,aeroplane,,,,,,,,,,,6,2,0,21,21,51,1,,,,,,,,,,,,,,,,,,,,,,,,,,,,,,,,,,,,,,,,,,,,,,,,,,,,,,,,,,,,,,,,,,,,,,,,,,,,,,,,,,,,,,,,,,,,,,
,,?,0.002,0,,,,,,stimuli/images/PICTURE_688.png,CLOCK,5e9ffcf4db51941ad78e04f3,19/01/1953,2020-09-03_21h02.21.418,proactive2,2020.1.2,Win32,60,5f5126bb654d4b30ee6923d8,5f514b92d864aa373a2ae7dc,1,,,,,,runner,,,,,,,,,,,5,2,0,22,22,42,1,,,,,,,,,,,,,,,,,,,,,,,,,,,,,,,,,,,,,,,,,,,,,,,,,,,,,,,,,,,,,,,,,,,,,,,,,,,,,,,,,,,,,,,,,,,,,,
,,?,0.002,0,,,,,,stimuli/images/PICTURE_2.png,YARD,5e9ffcf4db51941ad78e04f3,19/01/1953,2020-09-03_21h02.21.418,proactive2,2020.1.2,Win32,60,5f5126bb654d4b30ee6923d8,5f514b92d864aa373a2ae7dc,1,,,,,,tyre,,,,,,,,,,,6,2,0,23,23,55,1,,,,,,,,,,,,,,,,,,,,,,,,,,,,,,,,,,,,,,,,,,,,,,,,,,,,,,,,,,,,,,,,,,,,,,,,,,,,,,,,,,,,,,,,,,,,,,
,,EVIL,5.596,0,,,,,,stimuli/images/PICTURE_2.png,JUNGLE,5e9ffcf4db51941ad78e04f3,19/01/1953,2020-09-03_21h02.21.418,proactive2,2020.1.2,Win32,60,5f5126bb654d4b30ee6923d8,5f514b92d864aa373a2ae7dc,1,,,,,,tyre,,,,,,,,,,,1,2,0,24,24,1,1,,,,,,,,,,,,,,,,,,,,,,,,,,,,,,,,,,,,,,,,,,,,,,,,,,,,,,,,,,,,,,,,,,,,,,,,,,,,,,,,,,,,,,,,,,,,,,
,,?,0.002,0,,,,,,stimuli/images/PICTURE_141.png,CLIENT,5e9ffcf4db51941ad78e04f3,19/01/1953,2020-09-03_21h02.21.418,proactive2,2020.1.2,Win32,60,5f5126bb654d4b30ee6923d8,5f514b92d864aa373a2ae7dc,1,,,,,,sunflower,,,,,,,,,,,4,2,0,25,25,30,1,,,,,,,,,,,,,,,,,,,,,,,,,,,,,,,,,,,,,,,,,,,,,,,,,,,,,,,,,,,,,,,,,,,,,,,,,,,,,,,,,,,,,,,,,,,,,,
,,?,0.001,0,,,,,,stimuli/images/PICTURE_68.png,KIND,5e9ffcf4db51941ad78e04f3,19/01/1953,2020-09-03_21h02.21.418,proactive2,2020.1.2,Win32,60,5f5126bb654d4b30ee6923d8,5f514b92d864aa373a2ae7dc,1,,,,,,candle,,,,,,,,,,,3,2,0,26,26,23,1,,,,,,,,,,,,,,,,,,,,,,,,,,,,,,,,,,,,,,,,,,,,,,,,,,,,,,,,,,,,,,,,,,,,,,,,,,,,,,,,,,,,,,,,,,,,,,
,,?,0.002,0,,,,,,stimuli/images/PICTURE_692.png,DUDE,5e9ffcf4db51941ad78e04f3,19/01/1953,2020-09-03_21h02.21.418,proactive2,2020.1.2,Win32,60,5f5126bb654d4b30ee6923d8,5f514b92d864aa373a2ae7dc,1,,,,,,cherry,,,,,,,,,,,5,2,0,27,27,47,1,,,,,,,,,,,,,,,,,,,,,,,,,,,,,,,,,,,,,,,,,,,,,,,,,,,,,,,,,,,,,,,,,,,,,,,,,,,,,,,,,,,,,,,,,,,,,,
,,?,0.002,0,,,,,,stimuli/images/PICTURE_677.png,PHOTO,5e9ffcf4db51941ad78e04f3,19/01/1953,2020-09-03_21h02.21.418,proactive2,2020.1.2,Win32,60,5f5126bb654d4b30ee6923d8,5f514b92d864aa373a2ae7dc,1,,,,,,map,,,,,,,,,,,2,2,0,28,28,14,1,,,,,,,,,,,,,,,,,,,,,,,,,,,,,,,,,,,,,,,,,,,,,,,,,,,,,,,,,,,,,,,,,,,,,,,,,,,,,,,,,,,,,,,,,,,,,,
,,?,3.232,0,,,,,,stimuli/images/PICTURE_509.png,SHOTS,5e9ffcf4db51941ad78e04f3,19/01/1953,2020-09-03_21h02.21.418,proactive2,2020.1.2,Win32,60,5f5126bb654d4b30ee6923d8,5f514b92d864aa373a2ae7dc,1,,,,,,telephone,,,,,,,,,,,1,2,0,29,29,7,1,,,,,,,,,,,,,,,,,,,,,,,,,,,,,,,,,,,,,,,,,,,,,,,,,,,,,,,,,,,,,,,,,,,,,,,,,,,,,,,,,,,,,,,,,,,,,,
,,?,0.002,0,,,,,,stimuli/images/PICTURE_487.png,POLICY,5e9ffcf4db51941ad78e04f3,19/01/1953,2020-09-03_21h02.21.418,proactive2,2020.1.2,Win32,60,5f5126bb654d4b30ee6923d8,5f514b92d864aa373a2ae7dc,1,,,,,,basket,,,,,,,,,,,4,2,0,30,30,34,1,,,,,,,,,,,,,,,,,,,,,,,,,,,,,,,,,,,,,,,,,,,,,,,,,,,,,,,,,,,,,,,,,,,,,,,,,,,,,,,,,,,,,,,,,,,,,,
,,?,0.002,0,,,,,,stimuli/images/PICTURE_677.png,FAMILY,5e9ffcf4db51941ad78e04f3,19/01/1953,2020-09-03_21h02.21.418,proactive2,2020.1.2,Win32,60,5f5126bb654d4b30ee6923d8,5f514b92d864aa373a2ae7dc,1,,,,,,map,,,,,,,,,,,6,2,0,31,31,53,1,,,,,,,,,,,,,,,,,,,,,,,,,,,,,,,,,,,,,,,,,,,,,,,,,,,,,,,,,,,,,,,,,,,,,,,,,,,,,,,,,,,,,,,,,,,,,,
,,?,0.002,0,,,,,,stimuli/images/PICTURE_564.png,PLENTY,5e9ffcf4db51941ad78e04f3,19/01/1953,2020-09-03_21h02.21.418,proactive2,2020.1.2,Win32,60,5f5126bb654d4b30ee6923d8,5f514b92d864aa373a2ae7dc,1,,,,,,spoon,,,,,,,,,,,2,2,0,32,32,11,1,,,,,,,,,,,,,,,,,,,,,,,,,,,,,,,,,,,,,,,,,,,,,,,,,,,,,,,,,,,,,,,,,,,,,,,,,,,,,,,,,,,,,,,,,,,,,,
,,?,1.258,0,,,,,,stimuli/images/PICTURE_452.png,COPS,5e9ffcf4db51941ad78e04f3,19/01/1953,2020-09-03_21h02.21.418,proactive2,2020.1.2,Win32,60,5f5126bb654d4b30ee6923d8,5f514b92d864aa373a2ae7dc,1,,,,,,watch,,,,,,,,,,,1,2,0,33,33,0,1,,,,,,,,,,,,,,,,,,,,,,,,,,,,,,,,,,,,,,,,,,,,,,,,,,,,,,,,,,,,,,,,,,,,,,,,,,,,,,,,,,,,,,,,,,,,,,
,,?,0.002,0,,,,,,stimuli/images/PICTURE_314.png,SPEECH,5e9ffcf4db51941ad78e04f3,19/01/1953,2020-09-03_21h02.21.418,proactive2,2020.1.2,Win32,60,5f5126bb654d4b30ee6923d8,5f514b92d864aa373a2ae7dc,1,,,,,,perfume,,,,,,,,,,,4,2,0,34,34,35,1,,,,,,,,,,,,,,,,,,,,,,,,,,,,,,,,,,,,,,,,,,,,,,,,,,,,,,,,,,,,,,,,,,,,,,,,,,,,,,,,,,,,,,,,,,,,,,
,,?,2.701,0,,,,,,stimuli/images/PICTURE_123.png,SALE,5e9ffcf4db51941ad78e04f3,19/01/1953,2020-09-03_21h02.21.418,proactive2,2020.1.2,Win32,60,5f5126bb654d4b30ee6923d8,5f514b92d864aa373a2ae7dc,1,,,,,,dart,,,,,,,,,,,1,2,0,35,35,8,1,,,,,,,,,,,,,,,,,,,,,,,,,,,,,,,,,,,,,,,,,,,,,,,,,,,,,,,,,,,,,,,,,,,,,,,,,,,,,,,,,,,,,,,,,,,,,,
,,?,0.002,0,,,,,,stimuli/images/PICTURE_327.png,LEADER,5e9ffcf4db51941ad78e04f3,19/01/1953,2020-09-03_21h02.21.418,proactive2,2020.1.2,Win32,60,5f5126bb654d4b30ee6923d8,5f514b92d864aa373a2ae7dc,1,,,,,,helmet,,,,,,,,,,,2,2,0,36,36,17,1,,,,,,,,,,,,,,,,,,,,,,,,,,,,,,,,,,,,,,,,,,,,,,,,,,,,,,,,,,,,,,,,,,,,,,,,,,,,,,,,,,,,,,,,,,,,,,
,,?,0.004,0,,,,,,stimuli/images/PICTURE_654.png,YEAR,5e9ffcf4db51941ad78e04f3,19/01/1953,2020-09-03_21h02.21.418,proactive2,2020.1.2,Win32,60,5f5126bb654d4b30ee6923d8,5f514b92d864aa373a2ae7dc,1,,,,,,pencil,,,,,,,,,,,5,2,0,37,37,41,1,,,,,,,,,,,,,,,,,,,,,,,,,,,,,,,,,,,,,,,,,,,,,,,,,,,,,,,,,,,,,,,,,,,,,,,,,,,,,,,,,,,,,,,,,,,,,,
,,?,0.001,0,,,,,,stimuli/images/PICTURE_356.png,CANDY,5e9ffcf4db51941ad78e04f3,19/01/1953,2020-09-03_21h02.21.418,proactive2,2020.1.2,Win32,60,5f5126bb654d4b30ee6923d8,5f514b92d864aa373a2ae7dc,1,,,,,,pawn,,,,,,,,,,,5,2,0,38,38,46,1,,,,,,,,,,,,,,,,,,,,,,,,,,,,,,,,,,,,,,,,,,,,,,,,,,,,,,,,,,,,,,,,,,,,,,,,,,,,,,,,,,,,,,,,,,,,,,
,,?,0.002,0,,,,,,stimuli/images/PICTURE_750.png,POLICY,5e9ffcf4db51941ad78e04f3,19/01/1953,2020-09-03_21h02.21.418,proactive2,2020.1.2,Win32,60,5f5126bb654d4b30ee6923d8,5f514b92d864aa373a2ae7dc,1,,,,,,kettle,,,,,,,,,,,5,2,0,39,39,44,1,,,,,,,,,,,,,,,,,,,,,,,,,,,,,,,,,,,,,,,,,,,,,,,,,,,,,,,,,,,,,,,,,,,,,,,,,,,,,,,,,,,,,,,,,,,,,,
,,?,0.002,0,,,,,,stimuli/images/PICTURE_509.png,APPLE,5e9ffcf4db51941ad78e04f3,19/01/1953,2020-09-03_21h02.21.418,proactive2,2020.1.2,Win32,60,5f5126bb654d4b30ee6923d8,5f514b92d864aa373a2ae7dc,1,,,,,,telephone,,,,,,,,,,,4,2,0,40,40,38,1,,,,,,,,,,,,,,,,,,,,,,,,,,,,,,,,,,,,,,,,,,,,,,,,,,,,,,,,,,,,,,,,,,,,,,,,,,,,,,,,,,,,,,,,,,,,,,
,,?,0.004,0,,,,,,stimuli/images/PICTURE_405.png,JUNGLE,5e9ffcf4db51941ad78e04f3,19/01/1953,2020-09-03_21h02.21.418,proactive2,2020.1.2,Win32,60,5f5126bb654d4b30ee6923d8,5f514b92d864aa373a2ae7dc,1,,,,,,anchor,,,,,,,,,,,6,2,0,41,41,58,1,,,,,,,,,,,,,,,,,,,,,,,,,,,,,,,,,,,,,,,,,,,,,,,,,,,,,,,,,,,,,,,,,,,,,,,,,,,,,,,,,,,,,,,,,,,,,,
,,?,0.002,0,,,,,,stimuli/images/PICTURE_348.png,DUDE,5e9ffcf4db51941ad78e04f3,19/01/1953,2020-09-03_21h02.21.418,proactive2,2020.1.2,Win32,60,5f5126bb654d4b30ee6923d8,5f514b92d864aa373a2ae7dc,1,,,,,,pepper,,,,,,,,,,,6,2,0,42,42,59,1,,,,,,,,,,,,,,,,,,,,,,,,,,,,,,,,,,,,,,,,,,,,,,,,,,,,,,,,,,,,,,,,,,,,,,,,,,,,,,,,,,,,,,,,,,,,,,
,,?,0.002,0,,,,,,stimuli/images/PICTURE_405.png,JUNGLE,5e9ffcf4db51941ad78e04f3,19/01/1953,2020-09-03_21h02.21.418,proactive2,2020.1.2,Win32,60,5f5126bb654d4b30ee6923d8,5f514b92d864aa373a2ae7dc,1,,,,,,anchor,,,,,,,,,,,2,2,0,43,43,13,1,,,,,,,,,,,,,,,,,,,,,,,,,,,,,,,,,,,,,,,,,,,,,,,,,,,,,,,,,,,,,,,,,,,,,,,,,,,,,,,,,,,,,,,,,,,,,,
,,?,0.002,0,,,,,,stimuli/images/PICTURE_296.png,CLOCK,5e9ffcf4db51941ad78e04f3,19/01/1953,2020-09-03_21h02.21.418,proactive2,2020.1.2,Win32,60,5f5126bb654d4b30ee6923d8,5f514b92d864aa373a2ae7dc,1,,,,,,bolt,,,,,,,,,,,2,2,0,44,44,18,1,,,,,,,,,,,,,,,,,,,,,,,,,,,,,,,,,,,,,,,,,,,,,,,,,,,,,,,,,,,,,,,,,,,,,,,,,,,,,,,,,,,,,,,,,,,,,,
,,FLESH,5.972,1,,,,,,stimuli/images/PICTURE_311.png,FLESH,5e9ffcf4db51941ad78e04f3,19/01/1953,2020-09-03_21h02.21.418,proactive2,2020.1.2,Win32,60,5f5126bb654d4b30ee6923d8,5f514b92d864aa373a2ae7dc,1,,,,,,razor,,,,,,,,,,,1,2,0,45,45,3,1,,,,,,,,,,,,,,,,,,,,,,,,,,,,,,,,,,,,,,,,,,,,,,,,,,,,,,,,,,,,,,,,,,,,,,,,,,,,,,,,,,,,,,,,,,,,,,
,,?,0.003,0,,,,,,stimuli/images/PICTURE_453.png,FAMILY,5e9ffcf4db51941ad78e04f3,19/01/1953,2020-09-03_21h02.21.418,proactive2,2020.1.2,Win32,60,5f5126bb654d4b30ee6923d8,5f514b92d864aa373a2ae7dc,1,,,,,,scissors,,,,,,,,,,,5,2,0,46,46,48,1,,,,,,,,,,,,,,,,,,,,,,,,,,,,,,,,,,,,,,,,,,,,,,,,,,,,,,,,,,,,,,,,,,,,,,,,,,,,,,,,,,,,,,,,,,,,,,
,,FOOD,3.775,1,,,,,,stimuli/images/PICTURE_215.png,FOOD,5e9ffcf4db51941ad78e04f3,19/01/1953,2020-09-03_21h02.21.418,proactive2,2020.1.2,Win32,60,5f5126bb654d4b30ee6923d8,5f514b92d864aa373a2ae7dc,1,,,,,,boot,,,,,,,,,,,1,2,0,47,47,5,1,,,,,,,,,,,,,,,,,,,,,,,,,,,,,,,,,,,,,,,,,,,,,,,,,,,,,,,,,,,,,,,,,,,,,,,,,,,,,,,,,,,,,,,,,,,,,,
,,?,0.002,0,,,,,,stimuli/images/PICTURE_215.png,LEADER,5e9ffcf4db51941ad78e04f3,19/01/1953,2020-09-03_21h02.21.418,proactive2,2020.1.2,Win32,60,5f5126bb654d4b30ee6923d8,5f514b92d864aa373a2ae7dc,1,,,,,,boot,,,,,,,,,,,5,2,0,48,48,43,1,,,,,,,,,,,,,,,,,,,,,,,,,,,,,,,,,,,,,,,,,,,,,,,,,,,,,,,,,,,,,,,,,,,,,,,,,,,,,,,,,,,,,,,,,,,,,,
,,FAMILY,3.881,1,,,,,,stimuli/images/PICTURE_403.png,FAMILY,5e9ffcf4db51941ad78e04f3,19/01/1953,2020-09-03_21h02.21.418,proactive2,2020.1.2,Win32,60,5f5126bb654d4b30ee6923d8,5f514b92d864aa373a2ae7dc,1,,,,,,cathedral,,,,,,,,,,,1,2,0,49,49,9,1,,,,,,,,,,,,,,,,,,,,,,,,,,,,,,,,,,,,,,,,,,,,,,,,,,,,,,,,,,,,,,,,,,,,,,,,,,,,,,,,,,,,,,,,,,,,,,
,,?,0.002,0,,,,,,stimuli/images/PICTURE_57.png,CASINO,5e9ffcf4db51941ad78e04f3,19/01/1953,2020-09-03_21h02.21.418,proactive2,2020.1.2,Win32,60,5f5126bb654d4b30ee6923d8,5f514b92d864aa373a2ae7dc,1,,,,,,stamp,,,,,,,,,,,2,2,0,50,50,12,1,,,,,,,,,,,,,,,,,,,,,,,,,,,,,,,,,,,,,,,,,,,,,,,,,,,,,,,,,,,,,,,,,,,,,,,,,,,,,,,,,,,,,,,,,,,,,,
,,?,0.001,0,,,,,,stimuli/images/PICTURE_160.png,HOTEL,5e9ffcf4db51941ad78e04f3,19/01/1953,2020-09-03_21h02.21.418,proactive2,2020.1.2,Win32,60,5f5126bb654d4b30ee6923d8,5f514b92d864aa373a2ae7dc,1,,,,,,wheelbarrow,,,,,,,,,,,2,2,0,51,51,16,1,,,,,,,,,,,,,,,,,,,,,,,,,,,,,,,,,,,,,,,,,,,,,,,,,,,,,,,,,,,,,,,,,,,,,,,,,,,,,,,,,,,,,,,,,,,,,,
,,?,0.002,0,,,,,,stimuli/images/PICTURE_504.png,HOUSE,5e9ffcf4db51941ad78e04f3,19/01/1953,2020-09-03_21h02.21.418,proactive2,2020.1.2,Win32,60,5f5126bb654d4b30ee6923d8,5f514b92d864aa373a2ae7dc,1,,,,,,wheel,,,,,,,,,,,4,2,0,52,52,36,1,,,,,,,,,,,,,,,,,,,,,,,,,,,,,,,,,,,,,,,,,,,,,,,,,,,,,,,,,,,,,,,,,,,,,,,,,,,,,,,,,,,,,,,,,,,,,,
,,?,0.005,0,,,,,,stimuli/images/PICTURE_285.png,PRINCE,5e9ffcf4db51941ad78e04f3,19/01/1953,2020-09-03_21h02.21.418,proactive2,2020.1.2,Win32,60,5f5126bb654d4b30ee6923d8,5f514b92d864aa373a2ae7dc,1,,,,,,carrot,,,,,,,,,,,3,2,0,53,53,20,1,,,,,,,,,,,,,,,,,,,,,,,,,,,,,,,,,,,,,,,,,,,,,,,,,,,,,,,,,,,,,,,,,,,,,,,,,,,,,,,,,,,,,,,,,,,,,,
,,?,0.001,0,,,,,,stimuli/images/PICTURE_311.png,TOILET,5e9ffcf4db51941ad78e04f3,19/01/1953,2020-09-03_21h02.21.418,proactive2,2020.1.2,Win32,60,5f5126bb654d4b30ee6923d8,5f514b92d864aa373a2ae7dc,1,,,,,,razor,,,,,,,,,,,6,2,0,54,54,54,1,,,,,,,,,,,,,,,,,,,,,,,,,,,,,,,,,,,,,,,,,,,,,,,,,,,,,,,,,,,,,,,,,,,,,,,,,,,,,,,,,,,,,,,,,,,,,,
,,?,0.002,0,,,,,,stimuli/images/PICTURE_95.png,NIGHT,5e9ffcf4db51941ad78e04f3,19/01/1953,2020-09-03_21h02.21.418,proactive2,2020.1.2,Win32,60,5f5126bb654d4b30ee6923d8,5f514b92d864aa373a2ae7dc,1,,,,,,suitcase,,,,,,,,,,,4,2,0,55,55,37,1,,,,,,,,,,,,,,,,,,,,,,,,,,,,,,,,,,,,,,,,,,,,,,,,,,,,,,,,,,,,,,,,,,,,,,,,,,,,,,,,,,,,,,,,,,,,,,
,,?,0.001,0,,,,,,stimuli/images/PICTURE_255.png,PENNY,5e9ffcf4db51941ad78e04f3,19/01/1953,2020-09-03_21h02.21.418,proactive2,2020.1.2,Win32,60,5f5126bb654d4b30ee6923d8,5f514b92d864aa373a2ae7dc,1,,,,,,shovel,,,,,,,,,,,2,2,0,56,56,19,1,,,,,,,,,,,,,,,,,,,,,,,,,,,,,,,,,,,,,,,,,,,,,,,,,,,,,,,,,,,,,,,,,,,,,,,,,,,,,,,,,,,,,,,,,,,,,,
,,?,0.001,0,,,,,,stimuli/images/PICTURE_470.png,MOMENT,5e9ffcf4db51941ad78e04f3,19/01/1953,2020-09-03_21h02.21.418,proactive2,2020.1.2,Win32,60,5f5126bb654d4b30ee6923d8,5f514b92d864aa373a2ae7dc,1,,,,,,motorbike,,,,,,,,,,,5,2,0,57,57,40,1,,,,,,,,,,,,,,,,,,,,,,,,,,,,,,,,,,,,,,,,,,,,,,,,,,,,,,,,,,,,,,,,,,,,,,,,,,,,,,,,,,,,,,,,,,,,,,
,,?,0.002,0,,,,,,stimuli/images/PICTURE_18.png,RIVER,5e9ffcf4db51941ad78e04f3,19/01/1953,2020-09-03_21h02.21.418,proactive2,2020.1.2,Win32,60,5f5126bb654d4b30ee6923d8,5f514b92d864aa373a2ae7dc,1,,,,,,planet,,,,,,,,,,,3,2,0,58,58,22,1,,,,,,,,,,,,,,,,,,,,,,,,,,,,,,,,,,,,,,,,,,,,,,,,,,,,,,,,,,,,,,,,,,,,,,,,,,,,,,,,,,,,,,,,,,,,,,
,,TOILET,6.078,1,,,,,,stimuli/images/PICTURE_348.png,TOILET,5e9ffcf4db51941ad78e04f3,19/01/1953,2020-09-03_21h02.21.418,proactive2,2020.1.2,Win32,60,5f5126bb654d4b30ee6923d8,5f514b92d864aa373a2ae7dc,1,,,,,,pepper,,,,,,,,,,,1,2,0,59,59,4,1,,,,,,,,,,,,,,,,,,,,,,,,,,,,,,,,,,,,,,,,,,,,,,,,,,,,,,,,,,,,,,,,,,,,,,,,,,,,,,,,,,,,,,,,,,,,,,
,,,,,,,,,,,,5e9ffcf4db51941ad78e04f3,19/01/1953,2020-09-03_21h02.21.418,proactive2,2020.1.2,Win32,60,5f5126bb654d4b30ee6923d8,5f514b92d864aa373a2ae7dc,1,,,,,,,,,,,,,,,,,,,,,,,,0,0,0,2,1,stimuli/learn-block3.csv,,,,,,,,,,,,,,,,,,,,,,,,,,,,,,,,,,,,,,,,,,,,,,,,,,,,,,,,,,,,,,,,,,,,,,,,,,,,,,,,,,,,,,,,
,,,,,,,,,,stimuli/images/PICTURE_177.png,WRITER,5e9ffcf4db51941ad78e04f3,19/01/1953,2020-09-03_21h02.21.418,proactive2,2020.1.2,Win32,60,5f5126bb654d4b30ee6923d8,5f514b92d864aa373a2ae7dc,1,,,,,,mushroom,,,,,,0,0,0,41,1,5,1,,,,,,,,,,,,,,,,,,,,,,,,,,,,,,,,,,,,,,,,,,,,,,,,,,,,,,,,,,,,,,,,,,,,,,,,,,,,,,,,,,,,,,,,,,,,,,,,,,,
,,,,,,,,,,stimuli/images/PICTURE_327.png,CASINO,5e9ffcf4db51941ad78e04f3,19/01/1953,2020-09-03_21h02.21.418,proactive2,2020.1.2,Win32,60,5f5126bb654d4b30ee6923d8,5f514b92d864aa373a2ae7dc,1,,,,,,helmet,,,,,,0,1,1,20,1,3,1,,,,,,,,,,,,,,,,,,,,,,,,,,,,,,,,,,,,,,,,,,,,,,,,,,,,,,,,,,,,,,,,,,,,,,,,,,,,,,,,,,,,,,,,,,,,,,,,,,,
,,,,,,,,,,stimuli/images/PICTURE_487.png,GIRL,5e9ffcf4db51941ad78e04f3,19/01/1953,2020-09-03_21h02.21.418,proactive2,2020.1.2,Win32,60,5f5126bb654d4b30ee6923d8,5f514b92d864aa373a2ae7dc,1,,,,,,basket,,,,,,0,2,2,45,1,5,1,,,,,,,,,,,,,,,,,,,,,,,,,,,,,,,,,,,,,,,,,,,,,,,,,,,,,,,,,,,,,,,,,,,,,,,,,,,,,,,,,,,,,,,,,,,,,,,,,,,
,,,,,,,,,,stimuli/images/PICTURE_57.png,MOMENT,5e9ffcf4db51941ad78e04f3,19/01/1953,2020-09-03_21h02.21.418,proactive2,2020.1.2,Win32,60,5f5126bb654d4b30ee6923d8,5f514b92d864aa373a2ae7dc,1,,,,,,stamp,,,,,,0,3,3,37,1,4,1,,,,,,,,,,,,,,,,,,,,,,,,,,,,,,,,,,,,,,,,,,,,,,,,,,,,,,,,,,,,,,,,,,,,,,,,,,,,,,,,,,,,,,,,,,,,,,,,,,,
,,,,,,,,,,stimuli/images/PICTURE_42.png,BOYS,5e9ffcf4db51941ad78e04f3,19/01/1953,2020-09-03_21h02.21.418,proactive2,2020.1.2,Win32,60,5f5126bb654d4b30ee6923d8,5f514b92d864aa373a2ae7dc,1,,,,,,pear,,,,,,0,4,4,55,1,6,1,,,,,,,,,,,,,,,,,,,,,,,,,,,,,,,,,,,,,,,,,,,,,,,,,,,,,,,,,,,,,,,,,,,,,,,,,,,,,,,,,,,,,,,,,,,,,,,,,,,
,,,,,,,,,,stimuli/images/PICTURE_655.png,TOILET,5e9ffcf4db51941ad78e04f3,19/01/1953,2020-09-03_21h02.21.418,proactive2,2020.1.2,Win32,60,5f5126bb654d4b30ee6923d8,5f514b92d864aa373a2ae7dc,1,,,,,,megaphone,,,,,,0,5,5,12,1,2,1,,,,,,,,,,,,,,,,,,,,,,,,,,,,,,,,,,,,,,,,,,,,,,,,,,,,,,,,,,,,,,,,,,,,,,,,,,,,,,,,,,,,,,,,,,,,,,,,,,,
,,,,,,,,,,stimuli/images/PICTURE_677.png,APPLE,5e9ffcf4db51941ad78e04f3,19/01/1953,2020-09-03_21h02.21.418,proactive2,2020.1.2,Win32,60,5f5126bb654d4b30ee6923d8,5f514b92d864aa373a2ae7dc,1,,,,,,map,,,,,,0,6,6,43,1,5,1,,,,,,,,,,,,,,,,,,,,,,,,,,,,,,,,,,,,,,,,,,,,,,,,,,,,,,,,,,,,,,,,,,,,,,,,,,,,,,,,,,,,,,,,,,,,,,,,,,,
,,,,,,,,,,stimuli/images/PICTURE_95.png,HONEY,5e9ffcf4db51941ad78e04f3,19/01/1953,2020-09-03_21h02.21.418,proactive2,2020.1.2,Win32,60,5f5126bb654d4b30ee6923d8,5f514b92d864aa373a2ae7dc,1,,,,,,suitcase,,,,,,0,7,7,44,1,5,1,,,,,,,,,,,,,,,,,,,,,,,,,,,,,,,,,,,,,,,,,,,,,,,,,,,,,,,,,,,,,,,,,,,,,,,,,,,,,,,,,,,,,,,,,,,,,,,,,,,
,,,,,,,,,,stimuli/images/PICTURE_108.png,POLICY,5e9ffcf4db51941ad78e04f3,19/01/1953,2020-09-03_21h02.21.418,proactive2,2020.1.2,Win32,60,5f5126bb654d4b30ee6923d8,5f514b92d864aa373a2ae7dc,1,,,,,,calendar,,,,,,0,8,8,22,1,3,1,,,,,,,,,,,,,,,,,,,,,,,,,,,,,,,,,,,,,,,,,,,,,,,,,,,,,,,,,,,,,,,,,,,,,,,,,,,,,,,,,,,,,,,,,,,,,,,,,,,
,,,,,,,,,,stimuli/images/PICTURE_308.png,FAMILY,5e9ffcf4db51941ad78e04f3,19/01/1953,2020-09-03_21h02.21.418,proactive2,2020.1.2,Win32,60,5f5126bb654d4b30ee6923d8,5f514b92d864aa373a2ae7dc,1,,,,,,dice,,,,,,0,9,9,36,1,4,1,,,,,,,,,,,,,,,,,,,,,,,,,,,,,,,,,,,,,,,,,,,,,,,,,,,,,,,,,,,,,,,,,,,,,,,,,,,,,,,,,,,,,,,,,,,,,,,,,,,
,,,,,,,,,,stimuli/images/PICTURE_33.png,FRIEND,5e9ffcf4db51941ad78e04f3,19/01/1953,2020-09-03_21h02.21.418,proactive2,2020.1.2,Win32,60,5f5126bb654d4b30ee6923d8,5f514b92d864aa373a2ae7dc,1,,,,,,frame,,,,,,0,10,10,8,1,1,1,,,,,,,,,,,,,,,,,,,,,,,,,,,,,,,,,,,,,,,,,,,,,,,,,,,,,,,,,,,,,,,,,,,,,,,,,,,,,,,,,,,,,,,,,,,,,,,,,,,
,,,,,,,,,,stimuli/images/PICTURE_68.png,MILE,5e9ffcf4db51941ad78e04f3,19/01/1953,2020-09-03_21h02.21.418,proactive2,2020.1.2,Win32,60,5f5126bb654d4b30ee6923d8,5f514b92d864aa373a2ae7dc,1,,,,,,candle,,,,,,0,11,11,51,1,6,1,,,,,,,,,,,,,,,,,,,,,,,,,,,,,,,,,,,,,,,,,,,,,,,,,,,,,,,,,,,,,,,,,,,,,,,,,,,,,,,,,,,,,,,,,,,,,,,,,,,
,,,,,,,,,,stimuli/images/PICTURE_405.png,PLENTY,5e9ffcf4db51941ad78e04f3,19/01/1953,2020-09-03_21h02.21.418,proactive2,2020.1.2,Win32,60,5f5126bb654d4b30ee6923d8,5f514b92d864aa373a2ae7dc,1,,,,,,anchor,,,,,,0,12,12,23,1,3,1,,,,,,,,,,,,,,,,,,,,,,,,,,,,,,,,,,,,,,,,,,,,,,,,,,,,,,,,,,,,,,,,,,,,,,,,,,,,,,,,,,,,,,,,,,,,,,,,,,,
,,,,,,,,,,stimuli/images/PICTURE_296.png,LIFE,5e9ffcf4db51941ad78e04f3,19/01/1953,2020-09-03_21h02.21.418,proactive2,2020.1.2,Win32,60,5f5126bb654d4b30ee6923d8,5f514b92d864aa373a2ae7dc,1,,,,,,bolt,,,,,,0,13,13,57,1,6,1,,,,,,,,,,,,,,,,,,,,,,,,,,,,,,,,,,,,,,,,,,,,,,,,,,,,,,,,,,,,,,,,,,,,,,,,,,,,,,,,,,,,,,,,,,,,,,,,,,,
,,,,,,,,,,stimuli/images/PICTURE_383.png,WRITER,5e9ffcf4db51941ad78e04f3,19/01/1953,2020-09-03_21h02.21.418,proactive2,2020.1.2,Win32,60,5f5126bb654d4b30ee6923d8,5f514b92d864aa373a2ae7dc,1,,,,,,coin,,,,,,0,14,14,28,1,3,1,,,,,,,,,,,,,,,,,,,,,,,,,,,,,,,,,,,,,,,,,,,,,,,,,,,,,,,,,,,,,,,,,,,,,,,,,,,,,,,,,,,,,,,,,,,,,,,,,,,
,,,,,,,,,,stimuli/images/PICTURE_491.png,RIVER,5e9ffcf4db51941ad78e04f3,19/01/1953,2020-09-03_21h02.21.418,proactive2,2020.1.2,Win32,60,5f5126bb654d4b30ee6923d8,5f514b92d864aa373a2ae7dc,1,,,,,,rug,,,,,,0,15,15,6,1,1,1,,,,,,,,,,,,,,,,,,,,,,,,,,,,,,,,,,,,,,,,,,,,,,,,,,,,,,,,,,,,,,,,,,,,,,,,,,,,,,,,,,,,,,,,,,,,,,,,,,,
,,,,,,,,,,stimuli/images/PICTURE_340.png,VALLEY,5e9ffcf4db51941ad78e04f3,19/01/1953,2020-09-03_21h02.21.418,proactive2,2020.1.2,Win32,60,5f5126bb654d4b30ee6923d8,5f514b92d864aa373a2ae7dc,1,,,,,,mirror,,,,,,0,16,16,54,1,6,1,,,,,,,,,,,,,,,,,,,,,,,,,,,,,,,,,,,,,,,,,,,,,,,,,,,,,,,,,,,,,,,,,,,,,,,,,,,,,,,,,,,,,,,,,,,,,,,,,,,
,,,,,,,,,,stimuli/images/PICTURE_108.png,FLIGHT,5e9ffcf4db51941ad78e04f3,19/01/1953,2020-09-03_21h02.21.418,proactive2,2020.1.2,Win32,60,5f5126bb654d4b30ee6923d8,5f514b92d864aa373a2ae7dc,1,,,,,,calendar,,,,,,0,17,17,59,1,6,1,,,,,,,,,,,,,,,,,,,,,,,,,,,,,,,,,,,,,,,,,,,,,,,,,,,,,,,,,,,,,,,,,,,,,,,,,,,,,,,,,,,,,,,,,,,,,,,,,,,
,,,,,,,,,,stimuli/images/PICTURE_203.png,GODS,5e9ffcf4db51941ad78e04f3,19/01/1953,2020-09-03_21h02.21.418,proactive2,2020.1.2,Win32,60,5f5126bb654d4b30ee6923d8,5f514b92d864aa373a2ae7dc,1,,,,,,cap,,,,,,0,18,18,30,1,4,1,,,,,,,,,,,,,,,,,,,,,,,,,,,,,,,,,,,,,,,,,,,,,,,,,,,,,,,,,,,,,,,,,,,,,,,,,,,,,,,,,,,,,,,,,,,,,,,,,,,
,,,,,,,,,,stimuli/images/PICTURE_32.png,PILLS,5e9ffcf4db51941ad78e04f3,19/01/1953,2020-09-03_21h02.21.418,proactive2,2020.1.2,Win32,60,5f5126bb654d4b30ee6923d8,5f514b92d864aa373a2ae7dc,1,,,,,,crown,,,,,,0,19,19,18,1,2,1,,,,,,,,,,,,,,,,,,,,,,,,,,,,,,,,,,,,,,,,,,,,,,,,,,,,,,,,,,,,,,,,,,,,,,,,,,,,,,,,,,,,,,,,,,,,,,,,,,,
,,,,,,,,,,stimuli/images/PICTURE_750.png,HOTEL,5e9ffcf4db51941ad78e04f3,19/01/1953,2020-09-03_21h02.21.418,proactive2,2020.1.2,Win32,60,5f5126bb654d4b30ee6923d8,5f514b92d864aa373a2ae7dc,1,,,,,,kettle,,,,,,0,20,20,27,1,3,1,,,,,,,,,,,,,,,,,,,,,,,,,,,,,,,,,,,,,,,,,,,,,,,,,,,,,,,,,,,,,,,,,,,,,,,,,,,,,,,,,,,,,,,,,,,,,,,,,,,
,,,,,,,,,,stimuli/images/PICTURE_744.png,WEAPON,5e9ffcf4db51941ad78e04f3,19/01/1953,2020-09-03_21h02.21.418,proactive2,2020.1.2,Win32,60,5f5126bb654d4b30ee6923d8,5f514b92d864aa373a2ae7dc,1,,,,,,ring,,,,,,0,21,21,50,1,6,1,,,,,,,,,,,,,,,,,,,,,,,,,,,,,,,,,,,,,,,,,,,,,,,,,,,,,,,,,,,,,,,,,,,,,,,,,,,,,,,,,,,,,,,,,,,,,,,,,,,
,,,,,,,,,,stimuli/images/PICTURE_85.png,TOILET,5e9ffcf4db51941ad78e04f3,19/01/1953,2020-09-03_21h02.21.418,proactive2,2020.1.2,Win32,60,5f5126bb654d4b30ee6923d8,5f514b92d864aa373a2ae7dc,1,,,,,,diamond,,,,,,0,22,22,48,1,5,1,,,,,,,,,,,,,,,,,,,,,,,,,,,,,,,,,,,,,,,,,,,,,,,,,,,,,,,,,,,,,,,,,,,,,,,,,,,,,,,,,,,,,,,,,,,,,,,,,,,
,,,,,,,,,,stimuli/images/PICTURE_667.png,RIVER,5e9ffcf4db51941ad78e04f3,19/01/1953,2020-09-03_21h02.21.418,proactive2,2020.1.2,Win32,60,5f5126bb654d4b30ee6923d8,5f514b92d864aa373a2ae7dc,1,,,,,,daisy,,,,,,0,23,23,10,1,2,1,,,,,,,,,,,,,,,,,,,,,,,,,,,,,,,,,,,,,,,,,,,,,,,,,,,,,,,,,,,,,,,,,,,,,,,,,,,,,,,,,,,,,,,,,,,,,,,,,,,
,,,,,,,,,,stimuli/images/PICTURE_297.png,RIVER,5e9ffcf4db51941ad78e04f3,19/01/1953,2020-09-03_21h02.21.418,proactive2,2020.1.2,Win32,60,5f5126bb654d4b30ee6923d8,5f514b92d864aa373a2ae7dc,1,,,,,,aeroplane,,,,,,0,24,24,39,1,4,1,,,,,,,,,,,,,,,,,,,,,,,,,,,,,,,,,,,,,,,,,,,,,,,,,,,,,,,,,,,,,,,,,,,,,,,,,,,,,,,,,,,,,,,,,,,,,,,,,,,
,,,,,,,,,,stimuli/images/PICTURE_95.png,MILLER,5e9ffcf4db51941ad78e04f3,19/01/1953,2020-09-03_21h02.21.418,proactive2,2020.1.2,Win32,60,5f5126bb654d4b30ee6923d8,5f514b92d864aa373a2ae7dc,1,,,,,,suitcase,,,,,,0,25,25,56,1,6,1,,,,,,,,,,,,,,,,,,,,,,,,,,,,,,,,,,,,,,,,,,,,,,,,,,,,,,,,,,,,,,,,,,,,,,,,,,,,,,,,,,,,,,,,,,,,,,,,,,,
,,,,,,,,,,stimuli/images/PICTURE_708.png,RECORD,5e9ffcf4db51941ad78e04f3,19/01/1953,2020-09-03_21h02.21.418,proactive2,2020.1.2,Win32,60,5f5126bb654d4b30ee6923d8,5f514b92d864aa373a2ae7dc,1,,,,,,monkey,,,,,,0,26,26,58,1,6,1,,,,,,,,,,,,,,,,,,,,,,,,,,,,,,,,,,,,,,,,,,,,,,,,,,,,,,,,,,,,,,,,,,,,,,,,,,,,,,,,,,,,,,,,,,,,,,,,,,,
,,,,,,,,,,stimuli/images/PICTURE_675.png,SALE,5e9ffcf4db51941ad78e04f3,19/01/1953,2020-09-03_21h02.21.418,proactive2,2020.1.2,Win32,60,5f5126bb654d4b30ee6923d8,5f514b92d864aa373a2ae7dc,1,,,,,,windmill,,,,,,0,27,27,47,1,5,1,,,,,,,,,,,,,,,,,,,,,,,,,,,,,,,,,,,,,,,,,,,,,,,,,,,,,,,,,,,,,,,,,,,,,,,,,,,,,,,,,,,,,,,,,,,,,,,,,,,
,,,,,,,,,,stimuli/images/PICTURE_147.png,WOMEN,5e9ffcf4db51941ad78e04f3,19/01/1953,2020-09-03_21h02.21.418,proactive2,2020.1.2,Win32,60,5f5126bb654d4b30ee6923d8,5f514b92d864aa373a2ae7dc,1,,,,,,hanger,,,,,,0,28,28,7,1,1,1,,,,,,,,,,,,,,,,,,,,,,,,,,,,,,,,,,,,,,,,,,,,,,,,,,,,,,,,,,,,,,,,,,,,,,,,,,,,,,,,,,,,,,,,,,,,,,,,,,,
,,,,,,,,,,stimuli/images/PICTURE_380.png,CANDY,5e9ffcf4db51941ad78e04f3,19/01/1953,2020-09-03_21h02.21.418,proactive2,2020.1.2,Win32,60,5f5126bb654d4b30ee6923d8,5f514b92d864aa373a2ae7dc,1,,,,,,gorilla,,,,,,0,29,29,0,1,1,1,,,,,,,,,,,,,,,,,,,,,,,,,,,,,,,,,,,,,,,,,,,,,,,,,,,,,,,,,,,,,,,,,,,,,,,,,,,,,,,,,,,,,,,,,,,,,,,,,,,
,,,,,,,,,,stimuli/images/PICTURE_68.png,ROOF,5e9ffcf4db51941ad78e04f3,19/01/1953,2020-09-03_21h02.21.418,proactive2,2020.1.2,Win32,60,5f5126bb654d4b30ee6923d8,5f514b92d864aa373a2ae7dc,1,,,,,,candle,,,,,,0,30,30,38,1,4,1,,,,,,,,,,,,,,,,,,,,,,,,,,,,,,,,,,,,,,,,,,,,,,,,,,,,,,,,,,,,,,,,,,,,,,,,,,,,,,,,,,,,,,,,,,,,,,,,,,,
,,,,,,,,,,stimuli/images/PICTURE_685.png,PENNY,5e9ffcf4db51941ad78e04f3,19/01/1953,2020-09-03_21h02.21.418,proactive2,2020.1.2,Win32,60,5f5126bb654d4b30ee6923d8,5f514b92d864aa373a2ae7dc,1,,,,,,goose,,,,,,0,31,31,4,1,1,1,,,,,,,,,,,,,,,,,,,,,,,,,,,,,,,,,,,,,,,,,,,,,,,,,,,,,,,,,,,,,,,,,,,,,,,,,,,,,,,,,,,,,,,,,,,,,,,,,,,
,,,,,,,,,,stimuli/images/PICTURE_504.png,COPS,5e9ffcf4db51941ad78e04f3,19/01/1953,2020-09-03_21h02.21.418,proactive2,2020.1.2,Win32,60,5f5126bb654d4b30ee6923d8,5f514b92d864aa373a2ae7dc,1,,,,,,wheel,,,,,,0,32,32,52,1,6,1,,,,,,,,,,,,,,,,,,,,,,,,,,,,,,,,,,,,,,,,,,,,,,,,,,,,,,,,,,,,,,,,,,,,,,,,,,,,,,,,,,,,,,,,,,,,,,,,,,,
,,,,,,,,,,stimuli/images/PICTURE_504.png,ARTIST,5e9ffcf4db51941ad78e04f3,19/01/1953,2020-09-03_21h02.21.418,proactive2,2020.1.2,Win32,60,5f5126bb654d4b30ee6923d8,5f514b92d864aa373a2ae7dc,1,,,,,,wheel,,,,,,0,33,33,49,1,5,1,,,,,,,,,,,,,,,,,,,,,,,,,,,,,,,,,,,,,,,,,,,,,,,,,,,,,,,,,,,,,,,,,,,,,,,,,,,,,,,,,,,,,,,,,,,,,,,,,,,
,,,,,,,,,,stimuli/images/PICTURE_95.png,BOYS,5e9ffcf4db51941ad78e04f3,19/01/1953,2020-09-03_21h02.21.418,proactive2,2020.1.2,Win32,60,5f5126bb654d4b30ee6923d8,5f514b92d864aa373a2ae7dc,1,,,,,,suitcase,,,,,,0,34,34,1,1,1,1,,,,,,,,,,,,,,,,,,,,,,,,,,,,,,,,,,,,,,,,,,,,,,,,,,,,,,,,,,,,,,,,,,,,,,,,,,,,,,,,,,,,,,,,,,,,,,,,,,,
,,,,,,,,,,stimuli/images/PICTURE_383.png,SERIES,5e9ffcf4db51941ad78e04f3,19/01/1953,2020-09-03_21h02.21.418,proactive2,2020.1.2,Win32,60,5f5126bb654d4b30ee6923d8,5f514b92d864aa373a2ae7dc,1,,,,,,coin,,,,,,0,35,35,46,1,5,1,,,,,,,,,,,,,,,,,,,,,,,,,,,,,,,,,,,,,,,,,,,,,,,,,,,,,,,,,,,,,,,,,,,,,,,,,,,,,,,,,,,,,,,,,,,,,,,,,,,
,,,,,,,,,,stimuli/images/PICTURE_32.png,KIND,5e9ffcf4db51941ad78e04f3,19/01/1953,2020-09-03_21h02.21.418,proactive2,2020.1.2,Win32,60,5f5126bb654d4b30ee6923d8,5f514b92d864aa373a2ae7dc,1,,,,,,crown,,,,,,0,36,36,35,1,4,1,,,,,,,,,,,,,,,,,,,,,,,,,,,,,,,,,,,,,,,,,,,,,,,,,,,,,,,,,,,,,,,,,,,,,,,,,,,,,,,,,,,,,,,,,,,,,,,,,,,
,,,,,,,,,,stimuli/images/PICTURE_449.png,DUDE,5e9ffcf4db51941ad78e04f3,19/01/1953,2020-09-03_21h02.21.418,proactive2,2020.1.2,Win32,60,5f5126bb654d4b30ee6923d8,5f514b92d864aa373a2ae7dc,1,,,,,,bench,,,,,,0,37,37,17,1,2,1,,,,,,,,,,,,,,,,,,,,,,,,,,,,,,,,,,,,,,,,,,,,,,,,,,,,,,,,,,,,,,,,,,,,,,,,,,,,,,,,,,,,,,,,,,,,,,,,,,,
,,,,,,,,,,stimuli/images/PICTURE_339.png,CLIENT,5e9ffcf4db51941ad78e04f3,19/01/1953,2020-09-03_21h02.21.418,proactive2,2020.1.2,Win32,60,5f5126bb654d4b30ee6923d8,5f514b92d864aa373a2ae7dc,1,,,,,,backpack,,,,,,0,38,38,11,1,2,1,,,,,,,,,,,,,,,,,,,,,,,,,,,,,,,,,,,,,,,,,,,,,,,,,,,,,,,,,,,,,,,,,,,,,,,,,,,,,,,,,,,,,,,,,,,,,,,,,,,
,,,,,,,,,,stimuli/images/PICTURE_285.png,LIFE,5e9ffcf4db51941ad78e04f3,19/01/1953,2020-09-03_21h02.21.418,proactive2,2020.1.2,Win32,60,5f5126bb654d4b30ee6923d8,5f514b92d864aa373a2ae7dc,1,,,,,,carrot,,,,,,0,39,39,33,1,4,1,,,,,,,,,,,,,,,,,,,,,,,,,,,,,,,,,,,,,,,,,,,,,,,,,,,,,,,,,,,,,,,,,,,,,,,,,,,,,,,,,,,,,,,,,,,,,,,,,,,
,,,,,,,,,,stimuli/images/PICTURE_380.png,HONEY,5e9ffcf4db51941ad78e04f3,19/01/1953,2020-09-03_21h02.21.418,proactive2,2020.1.2,Win32,60,5f5126bb654d4b30ee6923d8,5f514b92d864aa373a2ae7dc,1,,,,,,gorilla,,,,,,0,40,40,19,1,2,1,,,,,,,,,,,,,,,,,,,,,,,,,,,,,,,,,,,,,,,,,,,,,,,,,,,,,,,,,,,,,,,,,,,,,,,,,,,,,,,,,,,,,,,,,,,,,,,,,,,
,,,,,,,,,,stimuli/images/PICTURE_403.png,TOILET,5e9ffcf4db51941ad78e04f3,19/01/1953,2020-09-03_21h02.21.418,proactive2,2020.1.2,Win32,60,5f5126bb654d4b30ee6923d8,5f514b92d864aa373a2ae7dc,1,,,,,,cathedral,,,,,,0,41,41,25,1,3,1,,,,,,,,,,,,,,,,,,,,,,,,,,,,,,,,,,,,,,,,,,,,,,,,,,,,,,,,,,,,,,,,,,,,,,,,,,,,,,,,,,,,,,,,,,,,,,,,,,,
,,,,,,,,,,stimuli/images/PICTURE_147.png,YEAR,5e9ffcf4db51941ad78e04f3,19/01/1953,2020-09-03_21h02.21.418,proactive2,2020.1.2,Win32,60,5f5126bb654d4b30ee6923d8,5f514b92d864aa373a2ae7dc,1,,,,,,hanger,,,,,,0,42,42,21,1,3,1,,,,,,,,,,,,,,,,,,,,,,,,,,,,,,,,,,,,,,,,,,,,,,,,,,,,,,,,,,,,,,,,,,,,,,,,,,,,,,,,,,,,,,,,,,,,,,,,,,,
,,,,,,,,,,stimuli/images/PICTURE_403.png,RIVER,5e9ffcf4db51941ad78e04f3,19/01/1953,2020-09-03_21h02.21.418,proactive2,2020.1.2,Win32,60,5f5126bb654d4b30ee6923d8,5f514b92d864aa373a2ae7dc,1,,,,,,cathedral,,,,,,0,43,43,40,1,5,1,,,,,,,,,,,,,,,,,,,,,,,,,,,,,,,,,,,,,,,,,,,,,,,,,,,,,,,,,,,,,,,,,,,,,,,,,,,,,,,,,,,,,,,,,,,,,,,,,,,
,,,,,,,,,,stimuli/images/PICTURE_654.png,MONTH,5e9ffcf4db51941ad78e04f3,19/01/1953,2020-09-03_21h02.21.418,proactive2,2020.1.2,Win32,60,5f5126bb654d4b30ee6923d8,5f514b92d864aa373a2ae7dc,1,,,,,,pencil,,,,,,0,44,44,29,1,3,1,,,,,,,,,,,,,,,,,,,,,,,,,,,,,,,,,,,,,,,,,,,,,,,,,,,,,,,,,,,,,,,,,,,,,,,,,,,,,,,,,,,,,,,,,,,,,,,,,,,
,,,,,,,,,,stimuli/images/PICTURE_469.png,AGENT,5e9ffcf4db51941ad78e04f3,19/01/1953,2020-09-03_21h02.21.418,proactive2,2020.1.2,Win32,60,5f5126bb654d4b30ee6923d8,5f514b92d864aa373a2ae7dc,1,,,,,,stool,,,,,,0,45,45,16,1,2,1,,,,,,,,,,,,,,,,,,,,,,,,,,,,,,,,,,,,,,,,,,,,,,,,,,,,,,,,,,,,,,,,,,,,,,,,,,,,,,,,,,,,,,,,,,,,,,,,,,,
,,,,,,,,,,stimuli/images/PICTURE_405.png,YEAR,5e9ffcf4db51941ad78e04f3,19/01/1953,2020-09-03_21h02.21.418,proactive2,2020.1.2,Win32,60,5f5126bb654d4b30ee6923d8,5f514b92d864aa373a2ae7dc,1,,,,,,anchor,,,,,,0,46,46,34,1,4,1,,,,,,,,,,,,,,,,,,,,,,,,,,,,,,,,,,,,,,,,,,,,,,,,,,,,,,,,,,,,,,,,,,,,,,,,,,,,,,,,,,,,,,,,,,,,,,,,,,,
,,,,,,,,,,stimuli/images/PICTURE_564.png,BATH,5e9ffcf4db51941ad78e04f3,19/01/1953,2020-09-03_21h02.21.418,proactive2,2020.1.2,Win32,60,5f5126bb654d4b30ee6923d8,5f514b92d864aa373a2ae7dc,1,,,,,,spoon,,,,,,0,47,47,26,1,3,1,,,,,,,,,,,,,,,,,,,,,,,,,,,,,,,,,,,,,,,,,,,,,,,,,,,,,,,,,,,,,,,,,,,,,,,,,,,,,,,,,,,,,,,,,,,,,,,,,,,
,,,,,,,,,,stimuli/images/PICTURE_403.png,WRITER,5e9ffcf4db51941ad78e04f3,19/01/1953,2020-09-03_21h02.21.418,proactive2,2020.1.2,Win32,60,5f5126bb654d4b30ee6923d8,5f514b92d864aa373a2ae7dc,1,,,,,,cathedral,,,,,,0,48,48,31,1,4,1,,,,,,,,,,,,,,,,,,,,,,,,,,,,,,,,,,,,,,,,,,,,,,,,,,,,,,,,,,,,,,,,,,,,,,,,,,,,,,,,,,,,,,,,,,,,,,,,,,,
,,,,,,,,,,stimuli/images/PICTURE_340.png,LETTER,5e9ffcf4db51941ad78e04f3,19/01/1953,2020-09-03_21h02.21.418,proactive2,2020.1.2,Win32,60,5f5126bb654d4b30ee6923d8,5f514b92d864aa373a2ae7dc,1,,,,,,mirror,,,,,,0,49,49,24,1,3,1,,,,,,,,,,,,,,,,,,,,,,,,,,,,,,,,,,,,,,,,,,,,,,,,,,,,,,,,,,,,,,,,,,,,,,,,,,,,,,,,,,,,,,,,,,,,,,,,,,,
,,,,,,,,,,stimuli/images/PICTURE_491.png,GLASS,5e9ffcf4db51941ad78e04f3,19/01/1953,2020-09-03_21h02.21.418,proactive2,2020.1.2,Win32,60,5f5126bb654d4b30ee6923d8,5f514b92d864aa373a2ae7dc,1,,,,,,rug,,,,,,0,50,50,14,1,2,1,,,,,,,,,,,,,,,,,,,,,,,,,,,,,,,,,,,,,,,,,,,,,,,,,,,,,,,,,,,,,,,,,,,,,,,,,,,,,,,,,,,,,,,,,,,,,,,,,,,
,,,,,,,,,,stimuli/images/PICTURE_85.png,NATION,5e9ffcf4db51941ad78e04f3,19/01/1953,2020-09-03_21h02.21.418,proactive2,2020.1.2,Win32,60,5f5126bb654d4b30ee6923d8,5f514b92d864aa373a2ae7dc,1,,,,,,diamond,,,,,,0,51,51,5,1,1,1,,,,,,,,,,,,,,,,,,,,,,,,,,,,,,,,,,,,,,,,,,,,,,,,,,,,,,,,,,,,,,,,,,,,,,,,,,,,,,,,,,,,,,,,,,,,,,,,,,,
,,,,,,,,,,stimuli/images/PICTURE_504.png,YEAR,5e9ffcf4db51941ad78e04f3,19/01/1953,2020-09-03_21h02.21.418,proactive2,2020.1.2,Win32,60,5f5126bb654d4b30ee6923d8,5f514b92d864aa373a2ae7dc,1,,,,,,wheel,,,,,,0,52,52,13,1,2,1,,,,,,,,,,,,,,,,,,,,,,,,,,,,,,,,,,,,,,,,,,,,,,,,,,,,,,,,,,,,,,,,,,,,,,,,,,,,,,,,,,,,,,,,,,,,,,,,,,,
,,,,,,,,,,stimuli/images/PICTURE_327.png,SERIES,5e9ffcf4db51941ad78e04f3,19/01/1953,2020-09-03_21h02.21.418,proactive2,2020.1.2,Win32,60,5f5126bb654d4b30ee6923d8,5f514b92d864aa373a2ae7dc,1,,,,,,helmet,,,,,,0,53,53,3,1,1,1,,,,,,,,,,,,,,,,,,,,,,,,,,,,,,,,,,,,,,,,,,,,,,,,,,,,,,,,,,,,,,,,,,,,,,,,,,,,,,,,,,,,,,,,,,,,,,,,,,,
,,,,,,,,,,stimuli/images/PICTURE_2.png,FLIGHT,5e9ffcf4db51941ad78e04f3,19/01/1953,2020-09-03_21h02.21.418,proactive2,2020.1.2,Win32,60,5f5126bb654d4b30ee6923d8,5f514b92d864aa373a2ae7dc,1,,,,,,tyre,,,,,,0,54,54,15,1,2,1,,,,,,,,,,,,,,,,,,,,,,,,,,,,,,,,,,,,,,,,,,,,,,,,,,,,,,,,,,,,,,,,,,,,,,,,,,,,,,,,,,,,,,,,,,,,,,,,,,,
,,,,,,,,,,stimuli/images/PICTURE_467.png,POLICY,5e9ffcf4db51941ad78e04f3,19/01/1953,2020-09-03_21h02.21.418,proactive2,2020.1.2,Win32,60,5f5126bb654d4b30ee6923d8,5f514b92d864aa373a2ae7dc,1,,,,,,peg,,,,,,0,55,55,53,1,6,1,,,,,,,,,,,,,,,,,,,,,,,,,,,,,,,,,,,,,,,,,,,,,,,,,,,,,,,,,,,,,,,,,,,,,,,,,,,,,,,,,,,,,,,,,,,,,,,,,,,
,,,,,,,,,,stimuli/images/PICTURE_203.png,NIGHT,5e9ffcf4db51941ad78e04f3,19/01/1953,2020-09-03_21h02.21.418,proactive2,2020.1.2,Win32,60,5f5126bb654d4b30ee6923d8,5f514b92d864aa373a2ae7dc,1,,,,,,cap,,,,,,0,56,56,2,1,1,1,,,,,,,,,,,,,,,,,,,,,,,,,,,,,,,,,,,,,,,,,,,,,,,,,,,,,,,,,,,,,,,,,,,,,,,,,,,,,,,,,,,,,,,,,,,,,,,,,,,
,,,,,,,,,,stimuli/images/PICTURE_233.png,LOTS,5e9ffcf4db51941ad78e04f3,19/01/1953,2020-09-03_21h02.21.418,proactive2,2020.1.2,Win32,60,5f5126bb654d4b30ee6923d8,5f514b92d864aa373a2ae7dc,1,,,,,,salt,,,,,,0,57,57,42,1,5,1,,,,,,,,,,,,,,,,,,,,,,,,,,,,,,,,,,,,,,,,,,,,,,,,,,,,,,,,,,,,,,,,,,,,,,,,,,,,,,,,,,,,,,,,,,,,,,,,,,,
,,,,,,,,,,stimuli/images/PICTURE_208.png,SYSTEM,5e9ffcf4db51941ad78e04f3,19/01/1953,2020-09-03_21h02.21.418,proactive2,2020.1.2,Win32,60,5f5126bb654d4b30ee6923d8,5f514b92d864aa373a2ae7dc,1,,,,,,microphone,,,,,,0,58,58,32,1,4,1,,,,,,,,,,,,,,,,,,,,,,,,,,,,,,,,,,,,,,,,,,,,,,,,,,,,,,,,,,,,,,,,,,,,,,,,,,,,,,,,,,,,,,,,,,,,,,,,,,,
,,?,0.002,0,,,,,,stimuli/images/PICTURE_285.png,LIFE,5e9ffcf4db51941ad78e04f3,19/01/1953,2020-09-03_21h02.21.418,proactive2,2020.1.2,Win32,60,5f5126bb654d4b30ee6923d8,5f514b92d864aa373a2ae7dc,1,,,,,,carrot,,,,,,,,,,,4,1,0,0,0,33,1,,,,,,,,,,,,,,,,,,,,,,,,,,,,,,,,,,,,,,,,,,,,,,,,,,,,,,,,,,,,,,,,,,,,,,,,,,,,,,,,,,,,,,,,,,,,,,
,,NATION,6.968,0,,,,,,stimuli/images/PICTURE_380.png,CANDY,5e9ffcf4db51941ad78e04f3,19/01/1953,2020-09-03_21h02.21.418,proactive2,2020.1.2,Win32,60,5f5126bb654d4b30ee6923d8,5f514b92d864aa373a2ae7dc,1,,,,,,gorilla,,,,,,,,,,,1,1,0,1,1,0,1,,,,,,,,,,,,,,,,,,,,,,,,,,,,,,,,,,,,,,,,,,,,,,,,,,,,,,,,,,,,,,,,,,,,,,,,,,,,,,,,,,,,,,,,,,,,,,
,,BOYS,4.721,1,,,,,,stimuli/images/PICTURE_95.png,BOYS,5e9ffcf4db51941ad78e04f3,19/01/1953,2020-09-03_21h02.21.418,proactive2,2020.1.2,Win32,60,5f5126bb654d4b30ee6923d8,5f514b92d864aa373a2ae7dc,1,,,,,,suitcase,,,,,,,,,,,1,1,0,2,2,1,1,,,,,,,,,,,,,,,,,,,,,,,,,,,,,,,,,,,,,,,,,,,,,,,,,,,,,,,,,,,,,,,,,,,,,,,,,,,,,,,,,,,,,,,,,,,,,,
,,?,0.002,0,,,,,,stimuli/images/PICTURE_296.png,LIFE,5e9ffcf4db51941ad78e04f3,19/01/1953,2020-09-03_21h02.21.418,proactive2,2020.1.2,Win32,60,5f5126bb654d4b30ee6923d8,5f514b92d864aa373a2ae7dc,1,,,,,,bolt,,,,,,,,,,,6,1,0,3,3,57,1,,,,,,,,,,,,,,,,,,,,,,,,,,,,,,,,,,,,,,,,,,,,,,,,,,,,,,,,,,,,,,,,,,,,,,,,,,,,,,,,,,,,,,,,,,,,,,
,,?,0.001,0,,,,,,stimuli/images/PICTURE_203.png,GODS,5e9ffcf4db51941ad78e04f3,19/01/1953,2020-09-03_21h02.21.418,proactive2,2020.1.2,Win32,60,5f5126bb654d4b30ee6923d8,5f514b92d864aa373a2ae7dc,1,,,,,,cap,,,,,,,,,,,4,1,0,4,4,30,1,,,,,,,,,,,,,,,,,,,,,,,,,,,,,,,,,,,,,,,,,,,,,,,,,,,,,,,,,,,,,,,,,,,,,,,,,,,,,,,,,,,,,,,,,,,,,,
,,?,0.005,0,,,,,,stimuli/images/PICTURE_504.png,COPS,5e9ffcf4db51941ad78e04f3,19/01/1953,2020-09-03_21h02.21.418,proactive2,2020.1.2,Win32,60,5f5126bb654d4b30ee6923d8,5f514b92d864aa373a2ae7dc,1,,,,,,wheel,,,,,,,,,,,6,1,0,5,5,52,1,,,,,,,,,,,,,,,,,,,,,,,,,,,,,,,,,,,,,,,,,,,,,,,,,,,,,,,,,,,,,,,,,,,,,,,,,,,,,,,,,,,,,,,,,,,,,,
,,?,0.003,0,,,,,,stimuli/images/PICTURE_677.png,APPLE,5e9ffcf4db51941ad78e04f3,19/01/1953,2020-09-03_21h02.21.418,proactive2,2020.1.2,Win32,60,5f5126bb654d4b30ee6923d8,5f514b92d864aa373a2ae7dc,1,,,,,,map,,,,,,,,,,,5,1,0,6,6,43,1,,,,,,,,,,,,,,,,,,,,,,,,,,,,,,,,,,,,,,,,,,,,,,,,,,,,,,,,,,,,,,,,,,,,,,,,,,,,,,,,,,,,,,,,,,,,,,
,,?,0.003,0,,,,,,stimuli/images/PICTURE_42.png,BOYS,5e9ffcf4db51941ad78e04f3,19/01/1953,2020-09-03_21h02.21.418,proactive2,2020.1.2,Win32,60,5f5126bb654d4b30ee6923d8,5f514b92d864aa373a2ae7dc,1,,,,,,pear,,,,,,,,,,,6,1,0,7,7,55,1,,,,,,,,,,,,,,,,,,,,,,,,,,,,,,,,,,,,,,,,,,,,,,,,,,,,,,,,,,,,,,,,,,,,,,,,,,,,,,,,,,,,,,,,,,,,,,
,,?,0.002,0,,,,,,stimuli/images/PICTURE_667.png,RIVER,5e9ffcf4db51941ad78e04f3,19/01/1953,2020-09-03_21h02.21.418,proactive2,2020.1.2,Win32,60,5f5126bb654d4b30ee6923d8,5f514b92d864aa373a2ae7dc,1,,,,,,daisy,,,,,,,,,,,2,1,0,8,8,10,1,,,,,,,,,,,,,,,,,,,,,,,,,,,,,,,,,,,,,,,,,,,,,,,,,,,,,,,,,,,,,,,,,,,,,,,,,,,,,,,,,,,,,,,,,,,,,,
,,?,0.002,0,,,,,,stimuli/images/PICTURE_68.png,MILE,5e9ffcf4db51941ad78e04f3,19/01/1953,2020-09-03_21h02.21.418,proactive2,2020.1.2,Win32,60,5f5126bb654d4b30ee6923d8,5f514b92d864aa373a2ae7dc,1,,,,,,candle,,,,,,,,,,,6,1,0,9,9,51,1,,,,,,,,,,,,,,,,,,,,,,,,,,,,,,,,,,,,,,,,,,,,,,,,,,,,,,,,,,,,,,,,,,,,,,,,,,,,,,,,,,,,,,,,,,,,,,
,,?,0.001,0,,,,,,stimuli/images/PICTURE_469.png,AGENT,5e9ffcf4db51941ad78e04f3,19/01/1953,2020-09-03_21h02.21.418,proactive2,2020.1.2,Win32,60,5f5126bb654d4b30ee6923d8,5f514b92d864aa373a2ae7dc,1,,,,,,stool,,,,,,,,,,,2,1,0,10,10,16,1,,,,,,,,,,,,,,,,,,,,,,,,,,,,,,,,,,,,,,,,,,,,,,,,,,,,,,,,,,,,,,,,,,,,,,,,,,,,,,,,,,,,,,,,,,,,,,
,,?,0.002,0,,,,,,stimuli/images/PICTURE_340.png,VALLEY,5e9ffcf4db51941ad78e04f3,19/01/1953,2020-09-03_21h02.21.418,proactive2,2020.1.2,Win32,60,5f5126bb654d4b30ee6923d8,5f514b92d864aa373a2ae7dc,1,,,,,,mirror,,,,,,,,,,,6,1,0,11,11,54,1,,,,,,,,,,,,,,,,,,,,,,,,,,,,,,,,,,,,,,,,,,,,,,,,,,,,,,,,,,,,,,,,,,,,,,,,,,,,,,,,,,,,,,,,,,,,,,
,,?,0.002,0,,,,,,stimuli/images/PICTURE_675.png,SALE,5e9ffcf4db51941ad78e04f3,19/01/1953,2020-09-03_21h02.21.418,proactive2,2020.1.2,Win32,60,5f5126bb654d4b30ee6923d8,5f514b92d864aa373a2ae7dc,1,,,,,,windmill,,,,,,,,,,,5,1,0,12,12,47,1,,,,,,,,,,,,,,,,,,,,,,,,,,,,,,,,,,,,,,,,,,,,,,,,,,,,,,,,,,,,,,,,,,,,,,,,,,,,,,,,,,,,,,,,,,,,,,
,,?,0.002,0,,,,,,stimuli/images/PICTURE_564.png,BATH,5e9ffcf4db51941ad78e04f3,19/01/1953,2020-09-03_21h02.21.418,proactive2,2020.1.2,Win32,60,5f5126bb654d4b30ee6923d8,5f514b92d864aa373a2ae7dc,1,,,,,,spoon,,,,,,,,,,,3,1,0,13,13,26,1,,,,,,,,,,,,,,,,,,,,,,,,,,,,,,,,,,,,,,,,,,,,,,,,,,,,,,,,,,,,,,,,,,,,,,,,,,,,,,,,,,,,,,,,,,,,,,
,,NATION,3.861,0,,,,,,stimuli/images/PICTURE_296.png,LOTS,5e9ffcf4db51941ad78e04f3,19/01/1953,2020-09-03_21h02.21.418,proactive2,2020.1.2,Win32,60,5f5126bb654d4b30ee6923d8,5f514b92d864aa373a2ae7dc,1,,,,,,bolt,,,,,,,,,,,1,1,0,14,14,9,1,,,,,,,,,,,,,,,,,,,,,,,,,,,,,,,,,,,,,,,,,,,,,,,,,,,,,,,,,,,,,,,,,,,,,,,,,,,,,,,,,,,,,,,,,,,,,,
,,?,0.002,0,,,,,,stimuli/images/PICTURE_95.png,HONEY,5e9ffcf4db51941ad78e04f3,19/01/1953,2020-09-03_21h02.21.418,proactive2,2020.1.2,Win32,60,5f5126bb654d4b30ee6923d8,5f514b92d864aa373a2ae7dc,1,,,,,,suitcase,,,,,,,,,,,5,1,0,15,15,44,1,,,,,,,,,,,,,,,,,,,,,,,,,,,,,,,,,,,,,,,,,,,,,,,,,,,,,,,,,,,,,,,,,,,,,,,,,,,,,,,,,,,,,,,,,,,,,,
,,?,0.001,0,,,,,,stimuli/images/PICTURE_487.png,GIRL,5e9ffcf4db51941ad78e04f3,19/01/1953,2020-09-03_21h02.21.418,proactive2,2020.1.2,Win32,60,5f5126bb654d4b30ee6923d8,5f514b92d864aa373a2ae7dc,1,,,,,,basket,,,,,,,,,,,5,1,0,16,16,45,1,,,,,,,,,,,,,,,,,,,,,,,,,,,,,,,,,,,,,,,,,,,,,,,,,,,,,,,,,,,,,,,,,,,,,,,,,,,,,,,,,,,,,,,,,,,,,,
,,?,0.001,0,,,,,,stimuli/images/PICTURE_340.png,LETTER,5e9ffcf4db51941ad78e04f3,19/01/1953,2020-09-03_21h02.21.418,proactive2,2020.1.2,Win32,60,5f5126bb654d4b30ee6923d8,5f514b92d864aa373a2ae7dc,1,,,,,,mirror,,,,,,,,,,,3,1,0,17,17,24,1,,,,,,,,,,,,,,,,,,,,,,,,,,,,,,,,,,,,,,,,,,,,,,,,,,,,,,,,,,,,,,,,,,,,,,,,,,,,,,,,,,,,,,,,,,,,,,
,,?,0.002,0,,,,,,stimuli/images/PICTURE_108.png,FLIGHT,5e9ffcf4db51941ad78e04f3,19/01/1953,2020-09-03_21h02.21.418,proactive2,2020.1.2,Win32,60,5f5126bb654d4b30ee6923d8,5f514b92d864aa373a2ae7dc,1,,,,,,calendar,,,,,,,,,,,6,1,0,18,18,59,1,,,,,,,,,,,,,,,,,,,,,,,,,,,,,,,,,,,,,,,,,,,,,,,,,,,,,,,,,,,,,,,,,,,,,,,,,,,,,,,,,,,,,,,,,,,,,,
,,?,0.002,0,,,,,,stimuli/images/PICTURE_405.png,PLENTY,5e9ffcf4db51941ad78e04f3,19/01/1953,2020-09-03_21h02.21.418,proactive2,2020.1.2,Win32,60,5f5126bb654d4b30ee6923d8,5f514b92d864aa373a2ae7dc,1,,,,,,anchor,,,,,,,,,,,3,1,0,19,19,23,1,,,,,,,,,,,,,,,,,,,,,,,,,,,,,,,,,,,,,,,,,,,,,,,,,,,,,,,,,,,,,,,,,,,,,,,,,,,,,,,,,,,,,,,,,,,,,,
,,?,0.001,0,,,,,,stimuli/images/PICTURE_68.png,ROOF,5e9ffcf4db51941ad78e04f3,19/01/1953,2020-09-03_21h02.21.418,proactive2,2020.1.2,Win32,60,5f5126bb654d4b30ee6923d8,5f514b92d864aa373a2ae7dc,1,,,,,,candle,,,,,,,,,,,4,1,0,20,20,38,1,,,,,,,,,,,,,,,,,,,,,,,,,,,,,,,,,,,,,,,,,,,,,,,,,,,,,,,,,,,,,,,,,,,,,,,,,,,,,,,,,,,,,,,,,,,,,,
,,?,0.003,0,,,,,,stimuli/images/PICTURE_744.png,WEAPON,5e9ffcf4db51941ad78e04f3,19/01/1953,2020-09-03_21h02.21.418,proactive2,2020.1.2,Win32,60,5f5126bb654d4b30ee6923d8,5f514b92d864aa373a2ae7dc,1,,,,,,ring,,,,,,,,,,,6,1,0,21,21,50,1,,,,,,,,,,,,,,,,,,,,,,,,,,,,,,,,,,,,,,,,,,,,,,,,,,,,,,,,,,,,,,,,,,,,,,,,,,,,,,,,,,,,,,,,,,,,,,
,,?,0.002,0,,,,,,stimuli/images/PICTURE_2.png,FLIGHT,5e9ffcf4db51941ad78e04f3,19/01/1953,2020-09-03_21h02.21.418,proactive2,2020.1.2,Win32,60,5f5126bb654d4b30ee6923d8,5f514b92d864aa373a2ae7dc,1,,,,,,tyre,,,,,,,,,,,2,1,0,22,22,15,1,,,,,,,,,,,,,,,,,,,,,,,,,,,,,,,,,,,,,,,,,,,,,,,,,,,,,,,,,,,,,,,,,,,,,,,,,,,,,,,,,,,,,,,,,,,,,,
,,?,0.002,0,,,,,,stimuli/images/PICTURE_177.png,WRITER,5e9ffcf4db51941ad78e04f3,19/01/1953,2020-09-03_21h02.21.418,proactive2,2020.1.2,Win32,60,5f5126bb654d4b30ee6923d8,5f514b92d864aa373a2ae7dc,1,,,,,,mushroom,,,,,,,,,,,5,1,0,23,23,41,1,,,,,,,,,,,,,,,,,,,,,,,,,,,,,,,,,,,,,,,,,,,,,,,,,,,,,,,,,,,,,,,,,,,,,,,,,,,,,,,,,,,,,,,,,,,,,,
,,?,0.002,0,,,,,,stimuli/images/PICTURE_208.png,SYSTEM,5e9ffcf4db51941ad78e04f3,19/01/1953,2020-09-03_21h02.21.418,proactive2,2020.1.2,Win32,60,5f5126bb654d4b30ee6923d8,5f514b92d864aa373a2ae7dc,1,,,,,,microphone,,,,,,,,,,,4,1,0,24,24,32,1,,,,,,,,,,,,,,,,,,,,,,,,,,,,,,,,,,,,,,,,,,,,,,,,,,,,,,,,,,,,,,,,,,,,,,,,,,,,,,,,,,,,,,,,,,,,,,
,,?,0.003,0,,,,,,stimuli/images/PICTURE_108.png,POLICY,5e9ffcf4db51941ad78e04f3,19/01/1953,2020-09-03_21h02.21.418,proactive2,2020.1.2,Win32,60,5f5126bb654d4b30ee6923d8,5f514b92d864aa373a2ae7dc,1,,,,,,calendar,,,,,,,,,,,3,1,0,25,25,22,1,,,,,,,,,,,,,,,,,,,,,,,,,,,,,,,,,,,,,,,,,,,,,,,,,,,,,,,,,,,,,,,,,,,,,,,,,,,,,,,,,,,,,,,,,,,,,,
,,?,0.002,0,,,,,,stimuli/images/PICTURE_383.png,WRITER,5e9ffcf4db51941ad78e04f3,19/01/1953,2020-09-03_21h02.21.418,proactive2,2020.1.2,Win32,60,5f5126bb654d4b30ee6923d8,5f514b92d864aa373a2ae7dc,1,,,,,,coin,,,,,,,,,,,3,1,0,26,26,28,1,,,,,,,,,,,,,,,,,,,,,,,,,,,,,,,,,,,,,,,,,,,,,,,,,,,,,,,,,,,,,,,,,,,,,,,,,,,,,,,,,,,,,,,,,,,,,,
,,NATION,4.711,1,,,,,,stimuli/images/PICTURE_85.png,NATION,5e9ffcf4db51941ad78e04f3,19/01/1953,2020-09-03_21h02.21.418,proactive2,2020.1.2,Win32,60,5f5126bb654d4b30ee6923d8,5f514b92d864aa373a2ae7dc,1,,,,,,diamond,,,,,,,,,,,1,1,0,27,27,5,1,,,,,,,,,,,,,,,,,,,,,,,,,,,,,,,,,,,,,,,,,,,,,,,,,,,,,,,,,,,,,,,,,,,,,,,,,,,,,,,,,,,,,,,,,,,,,,
,,?,0.002,0,,,,,,stimuli/images/PICTURE_85.png,TOILET,5e9ffcf4db51941ad78e04f3,19/01/1953,2020-09-03_21h02.21.418,proactive2,2020.1.2,Win32,60,5f5126bb654d4b30ee6923d8,5f514b92d864aa373a2ae7dc,1,,,,,,diamond,,,,,,,,,,,5,1,0,28,28,48,1,,,,,,,,,,,,,,,,,,,,,,,,,,,,,,,,,,,,,,,,,,,,,,,,,,,,,,,,,,,,,,,,,,,,,,,,,,,,,,,,,,,,,,,,,,,,,,
,,?,0.001,0,,,,,,stimuli/images/PICTURE_403.png,WRITER,5e9ffcf4db51941ad78e04f3,19/01/1953,2020-09-03_21h02.21.418,proactive2,2020.1.2,Win32,60,5f5126bb654d4b30ee6923d8,5f514b92d864aa373a2ae7dc,1,,,,,,cathedral,,,,,,,,,,,4,1,0,29,29,31,1,,,,,,,,,,,,,,,,,,,,,,,,,,,,,,,,,,,,,,,,,,,,,,,,,,,,,,,,,,,,,,,,,,,,,,,,,,,,,,,,,,,,,,,,,,,,,,
,,?,0.001,0,,,,,,stimuli/images/PICTURE_403.png,RIVER,5e9ffcf4db51941ad78e04f3,19/01/1953,2020-09-03_21h02.21.418,proactive2,2020.1.2,Win32,60,5f5126bb654d4b30ee6923d8,5f514b92d864aa373a2ae7dc,1,,,,,,cathedral,,,,,,,,,,,5,1,0,30,30,40,1,,,,,,,,,,,,,,,,,,,,,,,,,,,,,,,,,,,,,,,,,,,,,,,,,,,,,,,,,,,,,,,,,,,,,,,,,,,,,,,,,,,,,,,,,,,,,,
,,NIGHT,6.959,1,,,,,,stimuli/images/PICTURE_203.png,NIGHT,5e9ffcf4db51941ad78e04f3,19/01/1953,2020-09-03_21h02.21.418,proactive2,2020.1.2,Win32,60,5f5126bb654d4b30ee6923d8,5f514b92d864aa373a2ae7dc,1,,,,,,cap,,,,,,,,,,,1,1,0,31,31,2,1,,,,,,,,,,,,,,,,,,,,,,,,,,,,,,,,,,,,,,,,,,,,,,,,,,,,,,,,,,,,,,,,,,,,,,,,,,,,,,,,,,,,,,,,,,,,,,
,,?,2.649,0,,,,,,stimuli/images/PICTURE_491.png,RIVER,5e9ffcf4db51941ad78e04f3,19/01/1953,2020-09-03_21h02.21.418,proactive2,2020.1.2,Win32,60,5f5126bb654d4b30ee6923d8,5f514b92d864aa373a2ae7dc,1,,,,,,rug,,,,,,,,,,,1,1,0,32,32,6,1,,,,,,,,,,,,,,,,,,,,,,,,,,,,,,,,,,,,,,,,,,,,,,,,,,,,,,,,,,,,,,,,,,,,,,,,,,,,,,,,,,,,,,,,,,,,,,
,,?,0.002,0,,,,,,stimuli/images/PICTURE_504.png,ARTIST,5e9ffcf4db51941ad78e04f3,19/01/1953,2020-09-03_21h02.21.418,proactive2,2020.1.2,Win32,60,5f5126bb654d4b30ee6923d8,5f514b92d864aa373a2ae7dc,1,,,,,,wheel,,,,,,,,,,,5,1,0,33,33,49,1,,,,,,,,,,,,,,,,,,,,,,,,,,,,,,,,,,,,,,,,,,,,,,,,,,,,,,,,,,,,,,,,,,,,,,,,,,,,,,,,,,,,,,,,,,,,,,
,,?,0.002,0,,,,,,stimuli/images/PICTURE_380.png,HONEY,5e9ffcf4db51941ad78e04f3,19/01/1953,2020-09-03_21h02.21.418,proactive2,2020.1.2,Win32,60,5f5126bb654d4b30ee6923d8,5f514b92d864aa373a2ae7dc,1,,,,,,gorilla,,,,,,,,,,,2,1,0,34,34,19,1,,,,,,,,,,,,,,,,,,,,,,,,,,,,,,,,,,,,,,,,,,,,,,,,,,,,,,,,,,,,,,,,,,,,,,,,,,,,,,,,,,,,,,,,,,,,,,
,,?,0.002,0,,,,,,stimuli/images/PICTURE_147.png,YEAR,5e9ffcf4db51941ad78e04f3,19/01/1953,2020-09-03_21h02.21.418,proactive2,2020.1.2,Win32,60,5f5126bb654d4b30ee6923d8,5f514b92d864aa373a2ae7dc,1,,,,,,hanger,,,,,,,,,,,3,1,0,35,35,21,1,,,,,,,,,,,,,,,,,,,,,,,,,,,,,,,,,,,,,,,,,,,,,,,,,,,,,,,,,,,,,,,,,,,,,,,,,,,,,,,,,,,,,,,,,,,,,,
,,?,0.002,0,,,,,,stimuli/images/PICTURE_654.png,MONTH,5e9ffcf4db51941ad78e04f3,19/01/1953,2020-09-03_21h02.21.418,proactive2,2020.1.2,Win32,60,5f5126bb654d4b30ee6923d8,5f514b92d864aa373a2ae7dc,1,,,,,,pencil,,,,,,,,,,,3,1,0,36,36,29,1,,,,,,,,,,,,,,,,,,,,,,,,,,,,,,,,,,,,,,,,,,,,,,,,,,,,,,,,,,,,,,,,,,,,,,,,,,,,,,,,,,,,,,,,,,,,,,
,,?,0.002,0,,,,,,stimuli/images/PICTURE_57.png,MOMENT,5e9ffcf4db51941ad78e04f3,19/01/1953,2020-09-03_21h02.21.418,proactive2,2020.1.2,Win32,60,5f5126bb654d4b30ee6923d8,5f514b92d864aa373a2ae7dc,1,,,,,,stamp,,,,,,,,,,,4,1,0,37,37,37,1,,,,,,,,,,,,,,,,,,,,,,,,,,,,,,,,,,,,,,,,,,,,,,,,,,,,,,,,,,,,,,,,,,,,,,,,,,,,,,,,,,,,,,,,,,,,,,
,,?,0.003,0,,,,,,stimuli/images/PICTURE_383.png,SERIES,5e9ffcf4db51941ad78e04f3,19/01/1953,2020-09-03_21h02.21.418,proactive2,2020.1.2,Win32,60,5f5126bb654d4b30ee6923d8,5f514b92d864aa373a2ae7dc,1,,,,,,coin,,,,,,,,,,,5,1,0,38,38,46,1,,,,,,,,,,,,,,,,,,,,,,,,,,,,,,,,,,,,,,,,,,,,,,,,,,,,,,,,,,,,,,,,,,,,,,,,,,,,,,,,,,,,,,,,,,,,,,
,,?,0.001,0,,,,,,stimuli/images/PICTURE_405.png,YEAR,5e9ffcf4db51941ad78e04f3,19/01/1953,2020-09-03_21h02.21.418,proactive2,2020.1.2,Win32,60,5f5126bb654d4b30ee6923d8,5f514b92d864aa373a2ae7dc,1,,,,,,anchor,,,,,,,,,,,4,1,0,39,39,34,1,,,,,,,,,,,,,,,,,,,,,,,,,,,,,,,,,,,,,,,,,,,,,,,,,,,,,,,,,,,,,,,,,,,,,,,,,,,,,,,,,,,,,,,,,,,,,,
,,?,0.001,0,,,,,,stimuli/images/PICTURE_32.png,PILLS,5e9ffcf4db51941ad78e04f3,19/01/1953,2020-09-03_21h02.21.418,proactive2,2020.1.2,Win32,60,5f5126bb654d4b30ee6923d8,5f514b92d864aa373a2ae7dc,1,,,,,,crown,,,,,,,,,,,2,1,0,40,40,18,1,,,,,,,,,,,,,,,,,,,,,,,,,,,,,,,,,,,,,,,,,,,,,,,,,,,,,,,,,,,,,,,,,,,,,,,,,,,,,,,,,,,,,,,,,,,,,,
,,WOMEN,5.208,1,,,,,,stimuli/images/PICTURE_147.png,WOMEN,5e9ffcf4db51941ad78e04f3,19/01/1953,2020-09-03_21h02.21.418,proactive2,2020.1.2,Win32,60,5f5126bb654d4b30ee6923d8,5f514b92d864aa373a2ae7dc,1,,,,,,hanger,,,,,,,,,,,1,1,0,41,41,7,1,,,,,,,,,,,,,,,,,,,,,,,,,,,,,,,,,,,,,,,,,,,,,,,,,,,,,,,,,,,,,,,,,,,,,,,,,,,,,,,,,,,,,,,,,,,,,,
,,?,0.002,0,,,,,,stimuli/images/PICTURE_750.png,HOTEL,5e9ffcf4db51941ad78e04f3,19/01/1953,2020-09-03_21h02.21.418,proactive2,2020.1.2,Win32,60,5f5126bb654d4b30ee6923d8,5f514b92d864aa373a2ae7dc,1,,,,,,kettle,,,,,,,,,,,3,1,0,42,42,27,1,,,,,,,,,,,,,,,,,,,,,,,,,,,,,,,,,,,,,,,,,,,,,,,,,,,,,,,,,,,,,,,,,,,,,,,,,,,,,,,,,,,,,,,,,,,,,,
,,?,0.002,0,,,,,,stimuli/images/PICTURE_308.png,FAMILY,5e9ffcf4db51941ad78e04f3,19/01/1953,2020-09-03_21h02.21.418,proactive2,2020.1.2,Win32,60,5f5126bb654d4b30ee6923d8,5f514b92d864aa373a2ae7dc,1,,,,,,dice,,,,,,,,,,,4,1,0,43,43,36,1,,,,,,,,,,,,,,,,,,,,,,,,,,,,,,,,,,,,,,,,,,,,,,,,,,,,,,,,,,,,,,,,,,,,,,,,,,,,,,,,,,,,,,,,,,,,,,
,,?,0.002,0,,,,,,stimuli/images/PICTURE_655.png,TOILET,5e9ffcf4db51941ad78e04f3,19/01/1953,2020-09-03_21h02.21.418,proactive2,2020.1.2,Win32,60,5f5126bb654d4b30ee6923d8,5f514b92d864aa373a2ae7dc,1,,,,,,megaphone,,,,,,,,,,,2,1,0,44,44,12,1,,,,,,,,,,,,,,,,,,,,,,,,,,,,,,,,,,,,,,,,,,,,,,,,,,,,,,,,,,,,,,,,,,,,,,,,,,,,,,,,,,,,,,,,,,,,,,
,,?,0.005,0,,,,,,stimuli/images/PICTURE_339.png,CLIENT,5e9ffcf4db51941ad78e04f3,19/01/1953,2020-09-03_21h02.21.418,proactive2,2020.1.2,Win32,60,5f5126bb654d4b30ee6923d8,5f514b92d864aa373a2ae7dc,1,,,,,,backpack,,,,,,,,,,,2,1,0,45,45,11,1,,,,,,,,,,,,,,,,,,,,,,,,,,,,,,,,,,,,,,,,,,,,,,,,,,,,,,,,,,,,,,,,,,,,,,,,,,,,,,,,,,,,,,,,,,,,,,
,,?,0.002,0,,,,,,stimuli/images/PICTURE_504.png,YEAR,5e9ffcf4db51941ad78e04f3,19/01/1953,2020-09-03_21h02.21.418,proactive2,2020.1.2,Win32,60,5f5126bb654d4b30ee6923d8,5f514b92d864aa373a2ae7dc,1,,,,,,wheel,,,,,,,,,,,2,1,0,46,46,13,1,,,,,,,,,,,,,,,,,,,,,,,,,,,,,,,,,,,,,,,,,,,,,,,,,,,,,,,,,,,,,,,,,,,,,,,,,,,,,,,,,,,,,,,,,,,,,,
,,?,0.002,0,,,,,,stimuli/images/PICTURE_297.png,RIVER,5e9ffcf4db51941ad78e04f3,19/01/1953,2020-09-03_21h02.21.418,proactive2,2020.1.2,Win32,60,5f5126bb654d4b30ee6923d8,5f514b92d864aa373a2ae7dc,1,,,,,,aeroplane,,,,,,,,,,,4,1,0,47,47,39,1,,,,,,,,,,,,,,,,,,,,,,,,,,,,,,,,,,,,,,,,,,,,,,,,,,,,,,,,,,,,,,,,,,,,,,,,,,,,,,,,,,,,,,,,,,,,,,
,,?,0.002,0,,,,,,stimuli/images/PICTURE_449.png,DUDE,5e9ffcf4db51941ad78e04f3,19/01/1953,2020-09-03_21h02.21.418,proactive2,2020.1.2,Win32,60,5f5126bb654d4b30ee6923d8,5f514b92d864aa373a2ae7dc,1,,,,,,bench,,,,,,,,,,,2,1,0,48,48,17,1,,,,,,,,,,,,,,,,,,,,,,,,,,,,,,,,,,,,,,,,,,,,,,,,,,,,,,,,,,,,,,,,,,,,,,,,,,,,,,,,,,,,,,,,,,,,,,
,,FRIEND,4.1,1,,,,,,stimuli/images/PICTURE_33.png,FRIEND,5e9ffcf4db51941ad78e04f3,19/01/1953,2020-09-03_21h02.21.418,proactive2,2020.1.2,Win32,60,5f5126bb654d4b30ee6923d8,5f514b92d864aa373a2ae7dc,1,,,,,,frame,,,,,,,,,,,1,1,0,49,49,8,1,,,,,,,,,,,,,,,,,,,,,,,,,,,,,,,,,,,,,,,,,,,,,,,,,,,,,,,,,,,,,,,,,,,,,,,,,,,,,,,,,,,,,,,,,,,,,,
,,?,0.002,0,,,,,,stimuli/images/PICTURE_233.png,LOTS,5e9ffcf4db51941ad78e04f3,19/01/1953,2020-09-03_21h02.21.418,proactive2,2020.1.2,Win32,60,5f5126bb654d4b30ee6923d8,5f514b92d864aa373a2ae7dc,1,,,,,,salt,,,,,,,,,,,5,1,0,50,50,42,1,,,,,,,,,,,,,,,,,,,,,,,,,,,,,,,,,,,,,,,,,,,,,,,,,,,,,,,,,,,,,,,,,,,,,,,,,,,,,,,,,,,,,,,,,,,,,,
,,ANGRY,4.629,0,,,,,,stimuli/images/PICTURE_685.png,PENNY,5e9ffcf4db51941ad78e04f3,19/01/1953,2020-09-03_21h02.21.418,proactive2,2020.1.2,Win32,60,5f5126bb654d4b30ee6923d8,5f514b92d864aa373a2ae7dc,1,,,,,,goose,,,,,,,,,,,1,1,0,51,51,4,1,,,,,,,,,,,,,,,,,,,,,,,,,,,,,,,,,,,,,,,,,,,,,,,,,,,,,,,,,,,,,,,,,,,,,,,,,,,,,,,,,,,,,,,,,,,,,,
,,?,0.001,0,,,,,,stimuli/images/PICTURE_95.png,MILLER,5e9ffcf4db51941ad78e04f3,19/01/1953,2020-09-03_21h02.21.418,proactive2,2020.1.2,Win32,60,5f5126bb654d4b30ee6923d8,5f514b92d864aa373a2ae7dc,1,,,,,,suitcase,,,,,,,,,,,6,1,0,52,52,56,1,,,,,,,,,,,,,,,,,,,,,,,,,,,,,,,,,,,,,,,,,,,,,,,,,,,,,,,,,,,,,,,,,,,,,,,,,,,,,,,,,,,,,,,,,,,,,,
,,?,0.001,0,,,,,,stimuli/images/PICTURE_467.png,POLICY,5e9ffcf4db51941ad78e04f3,19/01/1953,2020-09-03_21h02.21.418,proactive2,2020.1.2,Win32,60,5f5126bb654d4b30ee6923d8,5f514b92d864aa373a2ae7dc,1,,,,,,peg,,,,,,,,,,,6,1,0,53,53,53,1,,,,,,,,,,,,,,,,,,,,,,,,,,,,,,,,,,,,,,,,,,,,,,,,,,,,,,,,,,,,,,,,,,,,,,,,,,,,,,,,,,,,,,,,,,,,,,
,,?,0.002,0,,,,,,stimuli/images/PICTURE_327.png,CASINO,5e9ffcf4db51941ad78e04f3,19/01/1953,2020-09-03_21h02.21.418,proactive2,2020.1.2,Win32,60,5f5126bb654d4b30ee6923d8,5f514b92d864aa373a2ae7dc,1,,,,,,helmet,,,,,,,,,,,3,1,0,54,54,20,1,,,,,,,,,,,,,,,,,,,,,,,,,,,,,,,,,,,,,,,,,,,,,,,,,,,,,,,,,,,,,,,,,,,,,,,,,,,,,,,,,,,,,,,,,,,,,,
,,?,1.772,0,,,,,,stimuli/images/PICTURE_327.png,SERIES,5e9ffcf4db51941ad78e04f3,19/01/1953,2020-09-03_21h02.21.418,proactive2,2020.1.2,Win32,60,5f5126bb654d4b30ee6923d8,5f514b92d864aa373a2ae7dc,1,,,,,,helmet,,,,,,,,,,,1,1,0,55,55,3,1,,,,,,,,,,,,,,,,,,,,,,,,,,,,,,,,,,,,,,,,,,,,,,,,,,,,,,,,,,,,,,,,,,,,,,,,,,,,,,,,,,,,,,,,,,,,,,
,,?,0.002,0,,,,,,stimuli/images/PICTURE_491.png,GLASS,5e9ffcf4db51941ad78e04f3,19/01/1953,2020-09-03_21h02.21.418,proactive2,2020.1.2,Win32,60,5f5126bb654d4b30ee6923d8,5f514b92d864aa373a2ae7dc,1,,,,,,rug,,,,,,,,,,,2,1,0,56,56,14,1,,,,,,,,,,,,,,,,,,,,,,,,,,,,,,,,,,,,,,,,,,,,,,,,,,,,,,,,,,,,,,,,,,,,,,,,,,,,,,,,,,,,,,,,,,,,,,
,,?,0.001,0,,,,,,stimuli/images/PICTURE_403.png,TOILET,5e9ffcf4db51941ad78e04f3,19/01/1953,2020-09-03_21h02.21.418,proactive2,2020.1.2,Win32,60,5f5126bb654d4b30ee6923d8,5f514b92d864aa373a2ae7dc,1,,,,,,cathedral,,,,,,,,,,,3,1,0,57,57,25,1,,,,,,,,,,,,,,,,,,,,,,,,,,,,,,,,,,,,,,,,,,,,,,,,,,,,,,,,,,,,,,,,,,,,,,,,,,,,,,,,,,,,,,,,,,,,,,
,,?,0.001,0,,,,,,stimuli/images/PICTURE_32.png,KIND,5e9ffcf4db51941ad78e04f3,19/01/1953,2020-09-03_21h02.21.418,proactive2,2020.1.2,Win32,60,5f5126bb654d4b30ee6923d8,5f514b92d864aa373a2ae7dc,1,,,,,,crown,,,,,,,,,,,4,1,0,58,58,35,1,,,,,,,,,,,,,,,,,,,,,,,,,,,,,,,,,,,,,,,,,,,,,,,,,,,,,,,,,,,,,,,,,,,,,,,,,,,,,,,,,,,,,,,,,,,,,,
,,?,0.001,0,,,,,,stimuli/images/PICTURE_708.png,RECORD,5e9ffcf4db51941ad78e04f3,19/01/1953,2020-09-03_21h02.21.418,proactive2,2020.1.2,Win32,60,5f5126bb654d4b30ee6923d8,5f514b92d864aa373a2ae7dc,1,,,,,,monkey,,,,,,,,,,,6,1,0,59,59,58,1,,,,,,,,,,,,,,,,,,,,,,,,,,,,,,,,,,,,,,,,,,,,,,,,,,,,,,,,,,,,,,,,,,,,,,,,,,,,,,,,,,,,,,,,,,,,,,
,,,,,,,,,,,,5e9ffcf4db51941ad78e04f3,19/01/1953,2020-09-03_21h02.21.418,proactive2,2020.1.2,Win32,60,5f5126bb654d4b30ee6923d8,5f514b92d864aa373a2ae7dc,1,,,,,,,,,,,,,,,,,,,,,,,,0,1,1,1,1,stimuli/learn-block2.csv,,,,,,,,,,,,,,,,,,,,,,,,,,,,,,,,,,,,,,,,,,,,,,,,,,,,,,,,,,,,,,,,,,,,,,,,,,,,,,,,,,,,,,,,
,,,,,,,,,,stimuli/images/PICTURE_469.png,LETTER,5e9ffcf4db51941ad78e04f3,19/01/1953,2020-09-03_21h02.21.418,proactive2,2020.1.2,Win32,60,5f5126bb654d4b30ee6923d8,5f514b92d864aa373a2ae7dc,1,,,,,,stool,,,,,,0,0,0,42,1,5,0,,,,,,,,,,,,,,,,,,,,,,,,,,,,,,,,,,,,,,,,,,,,,,,,,,,,,,,,,,,,,,,,,,,,,,,,,,,,,,,,,,,,,,,,,,,,,,,,,,,
,,,,,,,,,,stimuli/images/PICTURE_487.png,FLIGHT,5e9ffcf4db51941ad78e04f3,19/01/1953,2020-09-03_21h02.21.418,proactive2,2020.1.2,Win32,60,5f5126bb654d4b30ee6923d8,5f514b92d864aa373a2ae7dc,1,,,,,,basket,,,,,,0,1,1,9,1,1,0,,,,,,,,,,,,,,,,,,,,,,,,,,,,,,,,,,,,,,,,,,,,,,,,,,,,,,,,,,,,,,,,,,,,,,,,,,,,,,,,,,,,,,,,,,,,,,,,,,,
,,,,,,,,,,stimuli/images/PICTURE_177.png,CARS,5e9ffcf4db51941ad78e04f3,19/01/1953,2020-09-03_21h02.21.418,proactive2,2020.1.2,Win32,60,5f5126bb654d4b30ee6923d8,5f514b92d864aa373a2ae7dc,1,,,,,,mushroom,,,,,,0,2,2,35,1,4,0,,,,,,,,,,,,,,,,,,,,,,,,,,,,,,,,,,,,,,,,,,,,,,,,,,,,,,,,,,,,,,,,,,,,,,,,,,,,,,,,,,,,,,,,,,,,,,,,,,,
,,,,,,,,,,stimuli/images/PICTURE_248.png,DOZEN,5e9ffcf4db51941ad78e04f3,19/01/1953,2020-09-03_21h02.21.418,proactive2,2020.1.2,Win32,60,5f5126bb654d4b30ee6923d8,5f514b92d864aa373a2ae7dc,1,,,,,,cart,,,,,,0,3,3,39,1,4,0,,,,,,,,,,,,,,,,,,,,,,,,,,,,,,,,,,,,,,,,,,,,,,,,,,,,,,,,,,,,,,,,,,,,,,,,,,,,,,,,,,,,,,,,,,,,,,,,,,,
,,,,,,,,,,stimuli/images/PICTURE_308.png,ESTATE,5e9ffcf4db51941ad78e04f3,19/01/1953,2020-09-03_21h02.21.418,proactive2,2020.1.2,Win32,60,5f5126bb654d4b30ee6923d8,5f514b92d864aa373a2ae7dc,1,,,,,,dice,,,,,,0,4,4,46,1,5,0,,,,,,,,,,,,,,,,,,,,,,,,,,,,,,,,,,,,,,,,,,,,,,,,,,,,,,,,,,,,,,,,,,,,,,,,,,,,,,,,,,,,,,,,,,,,,,,,,,,
,,,,,,,,,,stimuli/images/PICTURE_160.png,LEADER,5e9ffcf4db51941ad78e04f3,19/01/1953,2020-09-03_21h02.21.418,proactive2,2020.1.2,Win32,60,5f5126bb654d4b30ee6923d8,5f514b92d864aa373a2ae7dc,1,,,,,,wheelbarrow,,,,,,0,5,5,3,1,1,0,,,,,,,,,,,,,,,,,,,,,,,,,,,,,,,,,,,,,,,,,,,,,,,,,,,,,,,,,,,,,,,,,,,,,,,,,,,,,,,,,,,,,,,,,,,,,,,,,,,
,,,,,,,,,,stimuli/images/PICTURE_470.png,CASINO,5e9ffcf4db51941ad78e04f3,19/01/1953,2020-09-03_21h02.21.418,proactive2,2020.1.2,Win32,60,5f5126bb654d4b30ee6923d8,5f514b92d864aa373a2ae7dc,1,,,,,,motorbike,,,,,,0,6,6,36,1,4,0,,,,,,,,,,,,,,,,,,,,,,,,,,,,,,,,,,,,,,,,,,,,,,,,,,,,,,,,,,,,,,,,,,,,,,,,,,,,,,,,,,,,,,,,,,,,,,,,,,,
,,,,,,,,,,stimuli/images/PICTURE_208.png,LOTS,5e9ffcf4db51941ad78e04f3,19/01/1953,2020-09-03_21h02.21.418,proactive2,2020.1.2,Win32,60,5f5126bb654d4b30ee6923d8,5f514b92d864aa373a2ae7dc,1,,,,,,microphone,,,,,,0,7,7,10,1,2,0,,,,,,,,,,,,,,,,,,,,,,,,,,,,,,,,,,,,,,,,,,,,,,,,,,,,,,,,,,,,,,,,,,,,,,,,,,,,,,,,,,,,,,,,,,,,,,,,,,,
,,,,,,,,,,stimuli/images/PICTURE_675.png,WEAPON,5e9ffcf4db51941ad78e04f3,19/01/1953,2020-09-03_21h02.21.418,proactive2,2020.1.2,Win32,60,5f5126bb654d4b30ee6923d8,5f514b92d864aa373a2ae7dc,1,,,,,,windmill,,,,,,0,8,8,32,1,4,0,,,,,,,,,,,,,,,,,,,,,,,,,,,,,,,,,,,,,,,,,,,,,,,,,,,,,,,,,,,,,,,,,,,,,,,,,,,,,,,,,,,,,,,,,,,,,,,,,,,
,,,,,,,,,,stimuli/images/PICTURE_311.png,FRIEND,5e9ffcf4db51941ad78e04f3,19/01/1953,2020-09-03_21h02.21.418,proactive2,2020.1.2,Win32,60,5f5126bb654d4b30ee6923d8,5f514b92d864aa373a2ae7dc,1,,,,,,razor,,,,,,0,9,9,34,1,4,0,,,,,,,,,,,,,,,,,,,,,,,,,,,,,,,,,,,,,,,,,,,,,,,,,,,,,,,,,,,,,,,,,,,,,,,,,,,,,,,,,,,,,,,,,,,,,,,,,,,
,,,,,,,,,,stimuli/images/PICTURE_327.png,BEAUTY,5e9ffcf4db51941ad78e04f3,19/01/1953,2020-09-03_21h02.21.418,proactive2,2020.1.2,Win32,60,5f5126bb654d4b30ee6923d8,5f514b92d864aa373a2ae7dc,1,,,,,,helmet,,,,,,0,10,10,48,1,5,0,,,,,,,,,,,,,,,,,,,,,,,,,,,,,,,,,,,,,,,,,,,,,,,,,,,,,,,,,,,,,,,,,,,,,,,,,,,,,,,,,,,,,,,,,,,,,,,,,,,
,,,,,,,,,,stimuli/images/PICTURE_123.png,ADVICE,5e9ffcf4db51941ad78e04f3,19/01/1953,2020-09-03_21h02.21.418,proactive2,2020.1.2,Win32,60,5f5126bb654d4b30ee6923d8,5f514b92d864aa373a2ae7dc,1,,,,,,dart,,,,,,0,11,11,40,1,5,0,,,,,,,,,,,,,,,,,,,,,,,,,,,,,,,,,,,,,,,,,,,,,,,,,,,,,,,,,,,,,,,,,,,,,,,,,,,,,,,,,,,,,,,,,,,,,,,,,,,
,,,,,,,,,,stimuli/images/PICTURE_453.png,DUDE,5e9ffcf4db51941ad78e04f3,19/01/1953,2020-09-03_21h02.21.418,proactive2,2020.1.2,Win32,60,5f5126bb654d4b30ee6923d8,5f514b92d864aa373a2ae7dc,1,,,,,,scissors,,,,,,0,12,12,27,1,3,0,,,,,,,,,,,,,,,,,,,,,,,,,,,,,,,,,,,,,,,,,,,,,,,,,,,,,,,,,,,,,,,,,,,,,,,,,,,,,,,,,,,,,,,,,,,,,,,,,,,
,,,,,,,,,,stimuli/images/PICTURE_147.png,MOMENT,5e9ffcf4db51941ad78e04f3,19/01/1953,2020-09-03_21h02.21.418,proactive2,2020.1.2,Win32,60,5f5126bb654d4b30ee6923d8,5f514b92d864aa373a2ae7dc,1,,,,,,hanger,,,,,,0,13,13,51,1,6,0,,,,,,,,,,,,,,,,,,,,,,,,,,,,,,,,,,,,,,,,,,,,,,,,,,,,,,,,,,,,,,,,,,,,,,,,,,,,,,,,,,,,,,,,,,,,,,,,,,,
,,,,,,,,,,stimuli/images/PICTURE_215.png,PLENTY,5e9ffcf4db51941ad78e04f3,19/01/1953,2020-09-03_21h02.21.418,proactive2,2020.1.2,Win32,60,5f5126bb654d4b30ee6923d8,5f514b92d864aa373a2ae7dc,1,,,,,,boot,,,,,,0,14,14,37,1,4,0,,,,,,,,,,,,,,,,,,,,,,,,,,,,,,,,,,,,,,,,,,,,,,,,,,,,,,,,,,,,,,,,,,,,,,,,,,,,,,,,,,,,,,,,,,,,,,,,,,,
,,,,,,,,,,stimuli/images/PICTURE_85.png,THING,5e9ffcf4db51941ad78e04f3,19/01/1953,2020-09-03_21h02.21.418,proactive2,2020.1.2,Win32,60,5f5126bb654d4b30ee6923d8,5f514b92d864aa373a2ae7dc,1,,,,,,diamond,,,,,,0,15,15,15,1,2,0,,,,,,,,,,,,,,,,,,,,,,,,,,,,,,,,,,,,,,,,,,,,,,,,,,,,,,,,,,,,,,,,,,,,,,,,,,,,,,,,,,,,,,,,,,,,,,,,,,,
,,,,,,,,,,stimuli/images/PICTURE_123.png,ADVICE,5e9ffcf4db51941ad78e04f3,19/01/1953,2020-09-03_21h02.21.418,proactive2,2020.1.2,Win32,60,5f5126bb654d4b30ee6923d8,5f514b92d864aa373a2ae7dc,1,,,,,,dart,,,,,,0,16,16,50,1,6,0,,,,,,,,,,,,,,,,,,,,,,,,,,,,,,,,,,,,,,,,,,,,,,,,,,,,,,,,,,,,,,,,,,,,,,,,,,,,,,,,,,,,,,,,,,,,,,,,,,,
,,,,,,,,,,stimuli/images/PICTURE_467.png,DEMON,5e9ffcf4db51941ad78e04f3,19/01/1953,2020-09-03_21h02.21.418,proactive2,2020.1.2,Win32,60,5f5126bb654d4b30ee6923d8,5f514b92d864aa373a2ae7dc,1,,,,,,peg,,,,,,0,17,17,23,1,3,0,,,,,,,,,,,,,,,,,,,,,,,,,,,,,,,,,,,,,,,,,,,,,,,,,,,,,,,,,,,,,,,,,,,,,,,,,,,,,,,,,,,,,,,,,,,,,,,,,,,
,,,,,,,,,,stimuli/images/PICTURE_469.png,ARTIST,5e9ffcf4db51941ad78e04f3,19/01/1953,2020-09-03_21h02.21.418,proactive2,2020.1.2,Win32,60,5f5126bb654d4b30ee6923d8,5f514b92d864aa373a2ae7dc,1,,,,,,stool,,,,,,0,18,18,6,1,1,0,,,,,,,,,,,,,,,,,,,,,,,,,,,,,,,,,,,,,,,,,,,,,,,,,,,,,,,,,,,,,,,,,,,,,,,,,,,,,,,,,,,,,,,,,,,,,,,,,,,
,,,,,,,,,,stimuli/images/PICTURE_504.png,BODY,5e9ffcf4db51941ad78e04f3,19/01/1953,2020-09-03_21h02.21.418,proactive2,2020.1.2,Win32,60,5f5126bb654d4b30ee6923d8,5f514b92d864aa373a2ae7dc,1,,,,,,wheel,,,,,,0,19,19,8,1,1,0,,,,,,,,,,,,,,,,,,,,,,,,,,,,,,,,,,,,,,,,,,,,,,,,,,,,,,,,,,,,,,,,,,,,,,,,,,,,,,,,,,,,,,,,,,,,,,,,,,,
,,,,,,,,,,stimuli/images/PICTURE_308.png,KIND,5e9ffcf4db51941ad78e04f3,19/01/1953,2020-09-03_21h02.21.418,proactive2,2020.1.2,Win32,60,5f5126bb654d4b30ee6923d8,5f514b92d864aa373a2ae7dc,1,,,,,,dice,,,,,,0,20,20,54,1,6,0,,,,,,,,,,,,,,,,,,,,,,,,,,,,,,,,,,,,,,,,,,,,,,,,,,,,,,,,,,,,,,,,,,,,,,,,,,,,,,,,,,,,,,,,,,,,,,,,,,,
,,,,,,,,,,stimuli/images/PICTURE_68.png,MILE,5e9ffcf4db51941ad78e04f3,19/01/1953,2020-09-03_21h02.21.418,proactive2,2020.1.2,Win32,60,5f5126bb654d4b30ee6923d8,5f514b92d864aa373a2ae7dc,1,,,,,,candle,,,,,,0,21,21,44,1,5,0,,,,,,,,,,,,,,,,,,,,,,,,,,,,,,,,,,,,,,,,,,,,,,,,,,,,,,,,,,,,,,,,,,,,,,,,,,,,,,,,,,,,,,,,,,,,,,,,,,,
,,,,,,,,,,stimuli/images/PICTURE_380.png,PHOTO,5e9ffcf4db51941ad78e04f3,19/01/1953,2020-09-03_21h02.21.418,proactive2,2020.1.2,Win32,60,5f5126bb654d4b30ee6923d8,5f514b92d864aa373a2ae7dc,1,,,,,,gorilla,,,,,,0,22,22,52,1,6,0,,,,,,,,,,,,,,,,,,,,,,,,,,,,,,,,,,,,,,,,,,,,,,,,,,,,,,,,,,,,,,,,,,,,,,,,,,,,,,,,,,,,,,,,,,,,,,,,,,,
,,,,,,,,,,stimuli/images/PICTURE_667.png,PLENTY,5e9ffcf4db51941ad78e04f3,19/01/1953,2020-09-03_21h02.21.418,proactive2,2020.1.2,Win32,60,5f5126bb654d4b30ee6923d8,5f514b92d864aa373a2ae7dc,1,,,,,,daisy,,,,,,0,23,23,41,1,5,0,,,,,,,,,,,,,,,,,,,,,,,,,,,,,,,,,,,,,,,,,,,,,,,,,,,,,,,,,,,,,,,,,,,,,,,,,,,,,,,,,,,,,,,,,,,,,,,,,,,
,,,,,,,,,,stimuli/images/PICTURE_667.png,BATH,5e9ffcf4db51941ad78e04f3,19/01/1953,2020-09-03_21h02.21.418,proactive2,2020.1.2,Win32,60,5f5126bb654d4b30ee6923d8,5f514b92d864aa373a2ae7dc,1,,,,,,daisy,,,,,,0,24,24,4,1,1,0,,,,,,,,,,,,,,,,,,,,,,,,,,,,,,,,,,,,,,,,,,,,,,,,,,,,,,,,,,,,,,,,,,,,,,,,,,,,,,,,,,,,,,,,,,,,,,,,,,,
,,,,,,,,,,stimuli/images/PICTURE_654.png,VALLEY,5e9ffcf4db51941ad78e04f3,19/01/1953,2020-09-03_21h02.21.418,proactive2,2020.1.2,Win32,60,5f5126bb654d4b30ee6923d8,5f514b92d864aa373a2ae7dc,1,,,,,,pencil,,,,,,0,25,25,1,1,1,0,,,,,,,,,,,,,,,,,,,,,,,,,,,,,,,,,,,,,,,,,,,,,,,,,,,,,,,,,,,,,,,,,,,,,,,,,,,,,,,,,,,,,,,,,,,,,,,,,,,
,,,,,,,,,,stimuli/images/PICTURE_708.png,YARD,5e9ffcf4db51941ad78e04f3,19/01/1953,2020-09-03_21h02.21.418,proactive2,2020.1.2,Win32,60,5f5126bb654d4b30ee6923d8,5f514b92d864aa373a2ae7dc,1,,,,,,monkey,,,,,,0,26,26,29,1,3,0,,,,,,,,,,,,,,,,,,,,,,,,,,,,,,,,,,,,,,,,,,,,,,,,,,,,,,,,,,,,,,,,,,,,,,,,,,,,,,,,,,,,,,,,,,,,,,,,,,,
,,,,,,,,,,stimuli/images/PICTURE_95.png,STYLE,5e9ffcf4db51941ad78e04f3,19/01/1953,2020-09-03_21h02.21.418,proactive2,2020.1.2,Win32,60,5f5126bb654d4b30ee6923d8,5f514b92d864aa373a2ae7dc,1,,,,,,suitcase,,,,,,0,27,27,25,1,3,0,,,,,,,,,,,,,,,,,,,,,,,,,,,,,,,,,,,,,,,,,,,,,,,,,,,,,,,,,,,,,,,,,,,,,,,,,,,,,,,,,,,,,,,,,,,,,,,,,,,
,,,,,,,,,,stimuli/images/PICTURE_32.png,JUNGLE,5e9ffcf4db51941ad78e04f3,19/01/1953,2020-09-03_21h02.21.418,proactive2,2020.1.2,Win32,60,5f5126bb654d4b30ee6923d8,5f514b92d864aa373a2ae7dc,1,,,,,,crown,,,,,,0,28,28,45,1,5,0,,,,,,,,,,,,,,,,,,,,,,,,,,,,,,,,,,,,,,,,,,,,,,,,,,,,,,,,,,,,,,,,,,,,,,,,,,,,,,,,,,,,,,,,,,,,,,,,,,,
,,,,,,,,,,stimuli/images/PICTURE_208.png,MONTH,5e9ffcf4db51941ad78e04f3,19/01/1953,2020-09-03_21h02.21.418,proactive2,2020.1.2,Win32,60,5f5126bb654d4b30ee6923d8,5f514b92d864aa373a2ae7dc,1,,,,,,microphone,,,,,,0,29,29,53,1,6,0,,,,,,,,,,,,,,,,,,,,,,,,,,,,,,,,,,,,,,,,,,,,,,,,,,,,,,,,,,,,,,,,,,,,,,,,,,,,,,,,,,,,,,,,,,,,,,,,,,,
,,,,,,,,,,stimuli/images/PICTURE_339.png,PLENTY,5e9ffcf4db51941ad78e04f3,19/01/1953,2020-09-03_21h02.21.418,proactive2,2020.1.2,Win32,60,5f5126bb654d4b30ee6923d8,5f514b92d864aa373a2ae7dc,1,,,,,,backpack,,,,,,0,30,30,0,1,1,0,,,,,,,,,,,,,,,,,,,,,,,,,,,,,,,,,,,,,,,,,,,,,,,,,,,,,,,,,,,,,,,,,,,,,,,,,,,,,,,,,,,,,,,,,,,,,,,,,,,
,,,,,,,,,,stimuli/images/PICTURE_302.png,FAMILY,5e9ffcf4db51941ad78e04f3,19/01/1953,2020-09-03_21h02.21.418,proactive2,2020.1.2,Win32,60,5f5126bb654d4b30ee6923d8,5f514b92d864aa373a2ae7dc,1,,,,,,taxi,,,,,,0,31,31,18,1,2,0,,,,,,,,,,,,,,,,,,,,,,,,,,,,,,,,,,,,,,,,,,,,,,,,,,,,,,,,,,,,,,,,,,,,,,,,,,,,,,,,,,,,,,,,,,,,,,,,,,,
,,,,,,,,,,stimuli/images/PICTURE_708.png,PENNY,5e9ffcf4db51941ad78e04f3,19/01/1953,2020-09-03_21h02.21.418,proactive2,2020.1.2,Win32,60,5f5126bb654d4b30ee6923d8,5f514b92d864aa373a2ae7dc,1,,,,,,monkey,,,,,,0,32,32,31,1,4,0,,,,,,,,,,,,,,,,,,,,,,,,,,,,,,,,,,,,,,,,,,,,,,,,,,,,,,,,,,,,,,,,,,,,,,,,,,,,,,,,,,,,,,,,,,,,,,,,,,,
,,,,,,,,,,stimuli/images/PICTURE_151.png,GIRL,5e9ffcf4db51941ad78e04f3,19/01/1953,2020-09-03_21h02.21.418,proactive2,2020.1.2,Win32,60,5f5126bb654d4b30ee6923d8,5f514b92d864aa373a2ae7dc,1,,,,,,tray,,,,,,0,33,33,19,1,2,0,,,,,,,,,,,,,,,,,,,,,,,,,,,,,,,,,,,,,,,,,,,,,,,,,,,,,,,,,,,,,,,,,,,,,,,,,,,,,,,,,,,,,,,,,,,,,,,,,,,
,,,,,,,,,,stimuli/images/PICTURE_491.png,ROOF,5e9ffcf4db51941ad78e04f3,19/01/1953,2020-09-03_21h02.21.418,proactive2,2020.1.2,Win32,60,5f5126bb654d4b30ee6923d8,5f514b92d864aa373a2ae7dc,1,,,,,,rug,,,,,,0,34,34,24,1,3,0,,,,,,,,,,,,,,,,,,,,,,,,,,,,,,,,,,,,,,,,,,,,,,,,,,,,,,,,,,,,,,,,,,,,,,,,,,,,,,,,,,,,,,,,,,,,,,,,,,,
,,,,,,,,,,stimuli/images/PICTURE_509.png,PHOTO,5e9ffcf4db51941ad78e04f3,19/01/1953,2020-09-03_21h02.21.418,proactive2,2020.1.2,Win32,60,5f5126bb654d4b30ee6923d8,5f514b92d864aa373a2ae7dc,1,,,,,,telephone,,,,,,0,35,35,21,1,3,0,,,,,,,,,,,,,,,,,,,,,,,,,,,,,,,,,,,,,,,,,,,,,,,,,,,,,,,,,,,,,,,,,,,,,,,,,,,,,,,,,,,,,,,,,,,,,,,,,,,
,,,,,,,,,,stimuli/images/PICTURE_233.png,WOMEN,5e9ffcf4db51941ad78e04f3,19/01/1953,2020-09-03_21h02.21.418,proactive2,2020.1.2,Win32,60,5f5126bb654d4b30ee6923d8,5f514b92d864aa373a2ae7dc,1,,,,,,salt,,,,,,0,36,36,38,1,4,0,,,,,,,,,,,,,,,,,,,,,,,,,,,,,,,,,,,,,,,,,,,,,,,,,,,,,,,,,,,,,,,,,,,,,,,,,,,,,,,,,,,,,,,,,,,,,,,,,,,
,,,,,,,,,,stimuli/images/PICTURE_688.png,CASINO,5e9ffcf4db51941ad78e04f3,19/01/1953,2020-09-03_21h02.21.418,proactive2,2020.1.2,Win32,60,5f5126bb654d4b30ee6923d8,5f514b92d864aa373a2ae7dc,1,,,,,,runner,,,,,,0,37,37,2,1,1,0,,,,,,,,,,,,,,,,,,,,,,,,,,,,,,,,,,,,,,,,,,,,,,,,,,,,,,,,,,,,,,,,,,,,,,,,,,,,,,,,,,,,,,,,,,,,,,,,,,,
,,,,,,,,,,stimuli/images/PICTURE_692.png,MONTH,5e9ffcf4db51941ad78e04f3,19/01/1953,2020-09-03_21h02.21.418,proactive2,2020.1.2,Win32,60,5f5126bb654d4b30ee6923d8,5f514b92d864aa373a2ae7dc,1,,,,,,cherry,,,,,,0,38,38,16,1,2,0,,,,,,,,,,,,,,,,,,,,,,,,,,,,,,,,,,,,,,,,,,,,,,,,,,,,,,,,,,,,,,,,,,,,,,,,,,,,,,,,,,,,,,,,,,,,,,,,,,,
,,,,,,,,,,stimuli/images/PICTURE_314.png,SAKE,5e9ffcf4db51941ad78e04f3,19/01/1953,2020-09-03_21h02.21.418,proactive2,2020.1.2,Win32,60,5f5126bb654d4b30ee6923d8,5f514b92d864aa373a2ae7dc,1,,,,,,perfume,,,,,,0,39,39,7,1,1,0,,,,,,,,,,,,,,,,,,,,,,,,,,,,,,,,,,,,,,,,,,,,,,,,,,,,,,,,,,,,,,,,,,,,,,,,,,,,,,,,,,,,,,,,,,,,,,,,,,,
,,,,,,,,,,stimuli/images/PICTURE_311.png,BEAUTY,5e9ffcf4db51941ad78e04f3,19/01/1953,2020-09-03_21h02.21.418,proactive2,2020.1.2,Win32,60,5f5126bb654d4b30ee6923d8,5f514b92d864aa373a2ae7dc,1,,,,,,razor,,,,,,0,40,40,13,1,2,0,,,,,,,,,,,,,,,,,,,,,,,,,,,,,,,,,,,,,,,,,,,,,,,,,,,,,,,,,,,,,,,,,,,,,,,,,,,,,,,,,,,,,,,,,,,,,,,,,,,
,,,,,,,,,,stimuli/images/PICTURE_314.png,GODS,5e9ffcf4db51941ad78e04f3,19/01/1953,2020-09-03_21h02.21.418,proactive2,2020.1.2,Win32,60,5f5126bb654d4b30ee6923d8,5f514b92d864aa373a2ae7dc,1,,,,,,perfume,,,,,,0,41,41,11,1,2,0,,,,,,,,,,,,,,,,,,,,,,,,,,,,,,,,,,,,,,,,,,,,,,,,,,,,,,,,,,,,,,,,,,,,,,,,,,,,,,,,,,,,,,,,,,,,,,,,,,,
,,,,,,,,,,stimuli/images/PICTURE_255.png,AREA,5e9ffcf4db51941ad78e04f3,19/01/1953,2020-09-03_21h02.21.418,proactive2,2020.1.2,Win32,60,5f5126bb654d4b30ee6923d8,5f514b92d864aa373a2ae7dc,1,,,,,,shovel,,,,,,0,42,42,22,1,3,0,,,,,,,,,,,,,,,,,,,,,,,,,,,,,,,,,,,,,,,,,,,,,,,,,,,,,,,,,,,,,,,,,,,,,,,,,,,,,,,,,,,,,,,,,,,,,,,,,,,
,,,,,,,,,,stimuli/images/PICTURE_744.png,SYSTEM,5e9ffcf4db51941ad78e04f3,19/01/1953,2020-09-03_21h02.21.418,proactive2,2020.1.2,Win32,60,5f5126bb654d4b30ee6923d8,5f514b92d864aa373a2ae7dc,1,,,,,,ring,,,,,,0,43,43,43,1,5,0,,,,,,,,,,,,,,,,,,,,,,,,,,,,,,,,,,,,,,,,,,,,,,,,,,,,,,,,,,,,,,,,,,,,,,,,,,,,,,,,,,,,,,,,,,,,,,,,,,,
,,,,,,,,,,stimuli/images/PICTURE_285.png,ADVICE,5e9ffcf4db51941ad78e04f3,19/01/1953,2020-09-03_21h02.21.418,proactive2,2020.1.2,Win32,60,5f5126bb654d4b30ee6923d8,5f514b92d864aa373a2ae7dc,1,,,,,,carrot,,,,,,0,44,44,12,1,2,0,,,,,,,,,,,,,,,,,,,,,,,,,,,,,,,,,,,,,,,,,,,,,,,,,,,,,,,,,,,,,,,,,,,,,,,,,,,,,,,,,,,,,,,,,,,,,,,,,,,
,,,,,,,,,,stimuli/images/PICTURE_380.png,DEATH,5e9ffcf4db51941ad78e04f3,19/01/1953,2020-09-03_21h02.21.418,proactive2,2020.1.2,Win32,60,5f5126bb654d4b30ee6923d8,5f514b92d864aa373a2ae7dc,1,,,,,,gorilla,,,,,,0,45,45,49,1,5,0,,,,,,,,,,,,,,,,,,,,,,,,,,,,,,,,,,,,,,,,,,,,,,,,,,,,,,,,,,,,,,,,,,,,,,,,,,,,,,,,,,,,,,,,,,,,,,,,,,,
,,,,,,,,,,stimuli/images/PICTURE_677.png,MILE,5e9ffcf4db51941ad78e04f3,19/01/1953,2020-09-03_21h02.21.418,proactive2,2020.1.2,Win32,60,5f5126bb654d4b30ee6923d8,5f514b92d864aa373a2ae7dc,1,,,,,,map,,,,,,0,46,46,30,1,4,0,,,,,,,,,,,,,,,,,,,,,,,,,,,,,,,,,,,,,,,,,,,,,,,,,,,,,,,,,,,,,,,,,,,,,,,,,,,,,,,,,,,,,,,,,,,,,,,,,,,
,,,,,,,,,,stimuli/images/PICTURE_491.png,WRITER,5e9ffcf4db51941ad78e04f3,19/01/1953,2020-09-03_21h02.21.418,proactive2,2020.1.2,Win32,60,5f5126bb654d4b30ee6923d8,5f514b92d864aa373a2ae7dc,1,,,,,,rug,,,,,,0,47,47,57,1,6,0,,,,,,,,,,,,,,,,,,,,,,,,,,,,,,,,,,,,,,,,,,,,,,,,,,,,,,,,,,,,,,,,,,,,,,,,,,,,,,,,,,,,,,,,,,,,,,,,,,,
,,,,,,,,,,stimuli/images/PICTURE_203.png,ARTIST,5e9ffcf4db51941ad78e04f3,19/01/1953,2020-09-03_21h02.21.418,proactive2,2020.1.2,Win32,60,5f5126bb654d4b30ee6923d8,5f514b92d864aa373a2ae7dc,1,,,,,,cap,,,,,,0,48,48,26,1,3,0,,,,,,,,,,,,,,,,,,,,,,,,,,,,,,,,,,,,,,,,,,,,,,,,,,,,,,,,,,,,,,,,,,,,,,,,,,,,,,,,,,,,,,,,,,,,,,,,,,,
,,,,,,,,,,stimuli/images/PICTURE_208.png,THING,5e9ffcf4db51941ad78e04f3,19/01/1953,2020-09-03_21h02.21.418,proactive2,2020.1.2,Win32,60,5f5126bb654d4b30ee6923d8,5f514b92d864aa373a2ae7dc,1,,,,,,microphone,,,,,,0,49,49,47,1,5,0,,,,,,,,,,,,,,,,,,,,,,,,,,,,,,,,,,,,,,,,,,,,,,,,,,,,,,,,,,,,,,,,,,,,,,,,,,,,,,,,,,,,,,,,,,,,,,,,,,,
,,,,,,,,,,stimuli/images/PICTURE_453.png,PLENTY,5e9ffcf4db51941ad78e04f3,19/01/1953,2020-09-03_21h02.21.418,proactive2,2020.1.2,Win32,60,5f5126bb654d4b30ee6923d8,5f514b92d864aa373a2ae7dc,1,,,,,,scissors,,,,,,0,50,50,56,1,6,0,,,,,,,,,,,,,,,,,,,,,,,,,,,,,,,,,,,,,,,,,,,,,,,,,,,,,,,,,,,,,,,,,,,,,,,,,,,,,,,,,,,,,,,,,,,,,,,,,,,
,,,,,,,,,,stimuli/images/PICTURE_233.png,IDEAS,5e9ffcf4db51941ad78e04f3,19/01/1953,2020-09-03_21h02.21.418,proactive2,2020.1.2,Win32,60,5f5126bb654d4b30ee6923d8,5f514b92d864aa373a2ae7dc,1,,,,,,salt,,,,,,0,51,51,28,1,3,0,,,,,,,,,,,,,,,,,,,,,,,,,,,,,,,,,,,,,,,,,,,,,,,,,,,,,,,,,,,,,,,,,,,,,,,,,,,,,,,,,,,,,,,,,,,,,,,,,,,
