consent_key.keys,consent_key.rt,recalled,recalled_rt,recall_acc,example_recall.thisRepN,example_recall.thisTrialN,example_recall.thisN,example_recall.thisIndex,example_recall.ran,file,word,participant,please enter your date of birth (dd/mm/yyyy),date,expName,psychopyVersion,OS,frameRate,STUDY_ID,SESSION_ID,list,prac_learn_study_loop.thisRepN,prac_learn_study_loop.thisTrialN,prac_learn_study_loop.thisN,prac_learn_study_loop.thisIndex,prac_learn_study_loop.ran,image,prac_learn_test_loop.thisRepN,prac_learn_test_loop.thisTrialN,prac_learn_test_loop.thisN,prac_learn_test_loop.thisIndex,prac_learn_test_loop.ran,learn_study_loop.thisRepN,learn_study_loop.thisTrialN,learn_study_loop.thisN,learn_study_loop.thisIndex,learn_study_loop.ran,list_no,block_no,learn_test_loop.thisRepN,learn_test_loop.thisTrialN,learn_test_loop.thisN,learn_test_loop.thisIndex,learn_test_loop.ran,learn_blocks.thisRepN,learn_blocks.thisTrialN,learn_blocks.thisN,learn_blocks.thisIndex,learn_blocks.ran,block_csv,key_resp_13.keys,key_resp_13.rt,learn_blocks_loop.thisRepN,learn_blocks_loop.thisTrialN,learn_blocks_loop.thisN,learn_blocks_loop.thisIndex,learn_blocks_loop.ran,final_learn_test.thisRepN,final_learn_test.thisTrialN,final_learn_test.thisN,final_learn_test.thisIndex,final_learn_test.ran,s_im1,s_im2,s_im3,s_im4,s_im5,s_im6,s_im7,s_im8,s_im1pos,s_im2pos,s_im3pos,s_im4pos,s_im5pos,s_im6pos,s_im7pos,s_im8pos,s_tarright,search_resp.keys,search_loop.thisRepN,search_loop.thisTrialN,search_loop.thisN,search_loop.thisIndex,search_loop.ran,search_resp.rt,prac_wm_test_loop.thisRepN,prac_wm_test_loop.thisTrialN,prac_wm_test_loop.thisN,prac_wm_test_loop.thisIndex,prac_wm_test_loop.ran,wm_recalled1,wm_recall_rt1,wm_probed1,wm_recall_acc1,wm_recalled2,wm_recall_rt2,wm_probed2,wm_recall_acc2,wm_recalled3,wm_recall_rt3,wm_probed3,wm_recall_acc3,wm_recalled4,wm_recall_rt4,wm_probed4,wm_recall_acc4,prac_wm_trial_loop.thisRepN,prac_wm_trial_loop.thisTrialN,prac_wm_trial_loop.thisN,prac_wm_trial_loop.thisIndex,prac_wm_trial_loop.ran,word1,image1,file1,item_type1,word2,image2,file2,item_type2,word4,image4,file4,item_type4,word3,image3,file3,item_type3,wm_test_loop.thisRepN,wm_test_loop.thisTrialN,wm_test_loop.thisN,wm_test_loop.thisIndex,wm_test_loop.ran,wm_trial_loop.thisRepN,wm_trial_loop.thisTrialN,wm_trial_loop.thisN,wm_trial_loop.thisIndex,wm_trial_loop.ran
y,16.02327,TOUGH,15.001445,1,0,0,0,0,1,stimuli/images/PICTURE_747.png,TOUGH,5ea00c9769e0250009a479df,12/08/1943,2020-09-03_18h48.00.567,proactive2,2020.1.2,Win32,60,5f5126bb654d4b30ee6923d8,5f512c3bdb04a83278c1f2e0,5,,,,,,,,,,,,,,,,,,,,,,,,,,,,,,,,,,,,,,,,,,,,,,,,,,,,,,,,,,,,,,,,,,,,,,,,,,,,,,,,,,,,,,,,,,,,,,,,,,,,,,,,,,,,,,,,,,,,,
,,,,,,,,,,stimuli/images/PICTURE_727.png,CELL,5ea00c9769e0250009a479df,12/08/1943,2020-09-03_18h48.00.567,proactive2,2020.1.2,Win32,60,5f5126bb654d4b30ee6923d8,5f512c3bdb04a83278c1f2e0,5,0,0,0,1,1,hose,,,,,,,,,,,,,,,,,,,,,,,,,,,,,,,,,,,,,,,,,,,,,,,,,,,,,,,,,,,,,,,,,,,,,,,,,,,,,,,,,,,,,,,,,,,,,,,,,,,,,,,,,,,,,,,
,,,,,,,,,,stimuli/images/PICTURE_378.png,LOSS,5ea00c9769e0250009a479df,12/08/1943,2020-09-03_18h48.00.567,proactive2,2020.1.2,Win32,60,5f5126bb654d4b30ee6923d8,5f512c3bdb04a83278c1f2e0,5,0,1,1,2,1,lobster,,,,,,,,,,,,,,,,,,,,,,,,,,,,,,,,,,,,,,,,,,,,,,,,,,,,,,,,,,,,,,,,,,,,,,,,,,,,,,,,,,,,,,,,,,,,,,,,,,,,,,,,,,,,,,,
,,,,,,,,,,stimuli/images/PICTURE_658.png,DEVIL,5ea00c9769e0250009a479df,12/08/1943,2020-09-03_18h48.00.567,proactive2,2020.1.2,Win32,60,5f5126bb654d4b30ee6923d8,5f512c3bdb04a83278c1f2e0,5,0,2,2,3,1,crow,,,,,,,,,,,,,,,,,,,,,,,,,,,,,,,,,,,,,,,,,,,,,,,,,,,,,,,,,,,,,,,,,,,,,,,,,,,,,,,,,,,,,,,,,,,,,,,,,,,,,,,,,,,,,,,
,,,,,,,,,,stimuli/images/PICTURE_697.png,KILLER,5ea00c9769e0250009a479df,12/08/1943,2020-09-03_18h48.00.567,proactive2,2020.1.2,Win32,60,5f5126bb654d4b30ee6923d8,5f512c3bdb04a83278c1f2e0,5,0,3,3,4,1,peach,,,,,,,,,,,,,,,,,,,,,,,,,,,,,,,,,,,,,,,,,,,,,,,,,,,,,,,,,,,,,,,,,,,,,,,,,,,,,,,,,,,,,,,,,,,,,,,,,,,,,,,,,,,,,,,
,,DEADLY,15.008065,0,,,,,,stimuli/images/PICTURE_697.png,KILLER,5ea00c9769e0250009a479df,12/08/1943,2020-09-03_18h48.00.567,proactive2,2020.1.2,Win32,60,5f5126bb654d4b30ee6923d8,5f512c3bdb04a83278c1f2e0,5,,,,,,peach,0,0,0,4,1,,,,,,,,,,,,,,,,,,,,,,,,,,,,,,,,,,,,,,,,,,,,,,,,,,,,,,,,,,,,,,,,,,,,,,,,,,,,,,,,,,,,,,,,,,,,,,,,,,,,,,,,,,
,,KIL,15.014095,0,,,,,,stimuli/images/PICTURE_658.png,DEVIL,5ea00c9769e0250009a479df,12/08/1943,2020-09-03_18h48.00.567,proactive2,2020.1.2,Win32,60,5f5126bb654d4b30ee6923d8,5f512c3bdb04a83278c1f2e0,5,,,,,,crow,0,1,1,3,1,,,,,,,,,,,,,,,,,,,,,,,,,,,,,,,,,,,,,,,,,,,,,,,,,,,,,,,,,,,,,,,,,,,,,,,,,,,,,,,,,,,,,,,,,,,,,,,,,,,,,,,,,,
,,GENIUS,9.61241,1,,,,,,stimuli/images/PICTURE_269.png,GENIUS,5ea00c9769e0250009a479df,12/08/1943,2020-09-03_18h48.00.567,proactive2,2020.1.2,Win32,60,5f5126bb654d4b30ee6923d8,5f512c3bdb04a83278c1f2e0,5,,,,,,chameleon,0,2,2,0,1,,,,,,,,,,,,,,,,,,,,,,,,,,,,,,,,,,,,,,,,,,,,,,,,,,,,,,,,,,,,,,,,,,,,,,,,,,,,,,,,,,,,,,,,,,,,,,,,,,,,,,,,,,
,,LOSS,13.030555,1,,,,,,stimuli/images/PICTURE_378.png,LOSS,5ea00c9769e0250009a479df,12/08/1943,2020-09-03_18h48.00.567,proactive2,2020.1.2,Win32,60,5f5126bb654d4b30ee6923d8,5f512c3bdb04a83278c1f2e0,5,,,,,,lobster,0,3,3,2,1,,,,,,,,,,,,,,,,,,,,,,,,,,,,,,,,,,,,,,,,,,,,,,,,,,,,,,,,,,,,,,,,,,,,,,,,,,,,,,,,,,,,,,,,,,,,,,,,,,,,,,,,,,
,,CELL,3.48141,1,,,,,,stimuli/images/PICTURE_727.png,CELL,5ea00c9769e0250009a479df,12/08/1943,2020-09-03_18h48.00.567,proactive2,2020.1.2,Win32,60,5f5126bb654d4b30ee6923d8,5f512c3bdb04a83278c1f2e0,5,,,,,,hose,0,4,4,1,1,,,,,,,,,,,,,,,,,,,,,,,,,,,,,,,,,,,,,,,,,,,,,,,,,,,,,,,,,,,,,,,,,,,,,,,,,,,,,,,,,,,,,,,,,,,,,,,,,,,,,,,,,,
,,,,,,,,,,stimuli/images/PICTURE_667.png,GLASS,5ea00c9769e0250009a479df,12/08/1943,2020-09-03_18h48.00.567,proactive2,2020.1.2,Win32,60,5f5126bb654d4b30ee6923d8,5f512c3bdb04a83278c1f2e0,5,,,,,,daisy,,,,,,0,0,0,27,1,3,2,,,,,,,,,,,,,,,,,,,,,,,,,,,,,,,,,,,,,,,,,,,,,,,,,,,,,,,,,,,,,,,,,,,,,,,,,,,,,,,,,,,,,,,,,,,,,,,,,,,
,,,,,,,,,,stimuli/images/PICTURE_470.png,BEAUTY,5ea00c9769e0250009a479df,12/08/1943,2020-09-03_18h48.00.567,proactive2,2020.1.2,Win32,60,5f5126bb654d4b30ee6923d8,5f512c3bdb04a83278c1f2e0,5,,,,,,motorbike,,,,,,0,1,1,26,1,3,2,,,,,,,,,,,,,,,,,,,,,,,,,,,,,,,,,,,,,,,,,,,,,,,,,,,,,,,,,,,,,,,,,,,,,,,,,,,,,,,,,,,,,,,,,,,,,,,,,,,
,,,,,,,,,,stimuli/images/PICTURE_57.png,CANDY,5ea00c9769e0250009a479df,12/08/1943,2020-09-03_18h48.00.567,proactive2,2020.1.2,Win32,60,5f5126bb654d4b30ee6923d8,5f512c3bdb04a83278c1f2e0,5,,,,,,stamp,,,,,,0,2,2,52,1,6,2,,,,,,,,,,,,,,,,,,,,,,,,,,,,,,,,,,,,,,,,,,,,,,,,,,,,,,,,,,,,,,,,,,,,,,,,,,,,,,,,,,,,,,,,,,,,,,,,,,,
,,,,,,,,,,stimuli/images/PICTURE_57.png,NATION,5ea00c9769e0250009a479df,12/08/1943,2020-09-03_18h48.00.567,proactive2,2020.1.2,Win32,60,5f5126bb654d4b30ee6923d8,5f512c3bdb04a83278c1f2e0,5,,,,,,stamp,,,,,,0,3,3,21,1,3,2,,,,,,,,,,,,,,,,,,,,,,,,,,,,,,,,,,,,,,,,,,,,,,,,,,,,,,,,,,,,,,,,,,,,,,,,,,,,,,,,,,,,,,,,,,,,,,,,,,,
,,,,,,,,,,stimuli/images/PICTURE_405.png,HOUSE,5ea00c9769e0250009a479df,12/08/1943,2020-09-03_18h48.00.567,proactive2,2020.1.2,Win32,60,5f5126bb654d4b30ee6923d8,5f512c3bdb04a83278c1f2e0,5,,,,,,anchor,,,,,,0,4,4,2,1,1,2,,,,,,,,,,,,,,,,,,,,,,,,,,,,,,,,,,,,,,,,,,,,,,,,,,,,,,,,,,,,,,,,,,,,,,,,,,,,,,,,,,,,,,,,,,,,,,,,,,,
,,,,,,,,,,stimuli/images/PICTURE_296.png,CLOCK,5ea00c9769e0250009a479df,12/08/1943,2020-09-03_18h48.00.567,proactive2,2020.1.2,Win32,60,5f5126bb654d4b30ee6923d8,5f512c3bdb04a83278c1f2e0,5,,,,,,bolt,,,,,,0,5,5,18,1,2,2,,,,,,,,,,,,,,,,,,,,,,,,,,,,,,,,,,,,,,,,,,,,,,,,,,,,,,,,,,,,,,,,,,,,,,,,,,,,,,,,,,,,,,,,,,,,,,,,,,,
,,,,,,,,,,stimuli/images/PICTURE_215.png,FOOD,5ea00c9769e0250009a479df,12/08/1943,2020-09-03_18h48.00.567,proactive2,2020.1.2,Win32,60,5f5126bb654d4b30ee6923d8,5f512c3bdb04a83278c1f2e0,5,,,,,,boot,,,,,,0,6,6,5,1,1,2,,,,,,,,,,,,,,,,,,,,,,,,,,,,,,,,,,,,,,,,,,,,,,,,,,,,,,,,,,,,,,,,,,,,,,,,,,,,,,,,,,,,,,,,,,,,,,,,,,,
,,,,,,,,,,stimuli/images/PICTURE_356.png,CANDY,5ea00c9769e0250009a479df,12/08/1943,2020-09-03_18h48.00.567,proactive2,2020.1.2,Win32,60,5f5126bb654d4b30ee6923d8,5f512c3bdb04a83278c1f2e0,5,,,,,,pawn,,,,,,0,7,7,46,1,5,2,,,,,,,,,,,,,,,,,,,,,,,,,,,,,,,,,,,,,,,,,,,,,,,,,,,,,,,,,,,,,,,,,,,,,,,,,,,,,,,,,,,,,,,,,,,,,,,,,,,
,,,,,,,,,,stimuli/images/PICTURE_491.png,SERIES,5ea00c9769e0250009a479df,12/08/1943,2020-09-03_18h48.00.567,proactive2,2020.1.2,Win32,60,5f5126bb654d4b30ee6923d8,5f512c3bdb04a83278c1f2e0,5,,,,,,rug,,,,,,0,8,8,39,1,4,2,,,,,,,,,,,,,,,,,,,,,,,,,,,,,,,,,,,,,,,,,,,,,,,,,,,,,,,,,,,,,,,,,,,,,,,,,,,,,,,,,,,,,,,,,,,,,,,,,,,
,,,,,,,,,,stimuli/images/PICTURE_215.png,LEADER,5ea00c9769e0250009a479df,12/08/1943,2020-09-03_18h48.00.567,proactive2,2020.1.2,Win32,60,5f5126bb654d4b30ee6923d8,5f512c3bdb04a83278c1f2e0,5,,,,,,boot,,,,,,0,9,9,43,1,5,2,,,,,,,,,,,,,,,,,,,,,,,,,,,,,,,,,,,,,,,,,,,,,,,,,,,,,,,,,,,,,,,,,,,,,,,,,,,,,,,,,,,,,,,,,,,,,,,,,,,
,,,,,,,,,,stimuli/images/PICTURE_285.png,WRITER,5ea00c9769e0250009a479df,12/08/1943,2020-09-03_18h48.00.567,proactive2,2020.1.2,Win32,60,5f5126bb654d4b30ee6923d8,5f512c3bdb04a83278c1f2e0,5,,,,,,carrot,,,,,,0,10,10,6,1,1,2,,,,,,,,,,,,,,,,,,,,,,,,,,,,,,,,,,,,,,,,,,,,,,,,,,,,,,,,,,,,,,,,,,,,,,,,,,,,,,,,,,,,,,,,,,,,,,,,,,,
,,,,,,,,,,stimuli/images/PICTURE_147.png,LEADER,5ea00c9769e0250009a479df,12/08/1943,2020-09-03_18h48.00.567,proactive2,2020.1.2,Win32,60,5f5126bb654d4b30ee6923d8,5f512c3bdb04a83278c1f2e0,5,,,,,,hanger,,,,,,0,11,11,33,1,4,2,,,,,,,,,,,,,,,,,,,,,,,,,,,,,,,,,,,,,,,,,,,,,,,,,,,,,,,,,,,,,,,,,,,,,,,,,,,,,,,,,,,,,,,,,,,,,,,,,,,
,,,,,,,,,,stimuli/images/PICTURE_453.png,FAMILY,5ea00c9769e0250009a479df,12/08/1943,2020-09-03_18h48.00.567,proactive2,2020.1.2,Win32,60,5f5126bb654d4b30ee6923d8,5f512c3bdb04a83278c1f2e0,5,,,,,,scissors,,,,,,0,12,12,48,1,5,2,,,,,,,,,,,,,,,,,,,,,,,,,,,,,,,,,,,,,,,,,,,,,,,,,,,,,,,,,,,,,,,,,,,,,,,,,,,,,,,,,,,,,,,,,,,,,,,,,,,
,,,,,,,,,,stimuli/images/PICTURE_311.png,TOILET,5ea00c9769e0250009a479df,12/08/1943,2020-09-03_18h48.00.567,proactive2,2020.1.2,Win32,60,5f5126bb654d4b30ee6923d8,5f512c3bdb04a83278c1f2e0,5,,,,,,razor,,,,,,0,13,13,54,1,6,2,,,,,,,,,,,,,,,,,,,,,,,,,,,,,,,,,,,,,,,,,,,,,,,,,,,,,,,,,,,,,,,,,,,,,,,,,,,,,,,,,,,,,,,,,,,,,,,,,,,
,,,,,,,,,,stimuli/images/PICTURE_487.png,POLICY,5ea00c9769e0250009a479df,12/08/1943,2020-09-03_18h48.00.567,proactive2,2020.1.2,Win32,60,5f5126bb654d4b30ee6923d8,5f512c3bdb04a83278c1f2e0,5,,,,,,basket,,,,,,0,14,14,34,1,4,2,,,,,,,,,,,,,,,,,,,,,,,,,,,,,,,,,,,,,,,,,,,,,,,,,,,,,,,,,,,,,,,,,,,,,,,,,,,,,,,,,,,,,,,,,,,,,,,,,,,
,,,,,,,,,,stimuli/images/PICTURE_327.png,LEADER,5ea00c9769e0250009a479df,12/08/1943,2020-09-03_18h48.00.567,proactive2,2020.1.2,Win32,60,5f5126bb654d4b30ee6923d8,5f512c3bdb04a83278c1f2e0,5,,,,,,helmet,,,,,,0,15,15,17,1,2,2,,,,,,,,,,,,,,,,,,,,,,,,,,,,,,,,,,,,,,,,,,,,,,,,,,,,,,,,,,,,,,,,,,,,,,,,,,,,,,,,,,,,,,,,,,,,,,,,,,,
,,,,,,,,,,stimuli/images/PICTURE_509.png,APPLE,5ea00c9769e0250009a479df,12/08/1943,2020-09-03_18h48.00.567,proactive2,2020.1.2,Win32,60,5f5126bb654d4b30ee6923d8,5f512c3bdb04a83278c1f2e0,5,,,,,,telephone,,,,,,0,16,16,38,1,4,2,,,,,,,,,,,,,,,,,,,,,,,,,,,,,,,,,,,,,,,,,,,,,,,,,,,,,,,,,,,,,,,,,,,,,,,,,,,,,,,,,,,,,,,,,,,,,,,,,,,
,,,,,,,,,,stimuli/images/PICTURE_311.png,FLESH,5ea00c9769e0250009a479df,12/08/1943,2020-09-03_18h48.00.567,proactive2,2020.1.2,Win32,60,5f5126bb654d4b30ee6923d8,5f512c3bdb04a83278c1f2e0,5,,,,,,razor,,,,,,0,17,17,3,1,1,2,,,,,,,,,,,,,,,,,,,,,,,,,,,,,,,,,,,,,,,,,,,,,,,,,,,,,,,,,,,,,,,,,,,,,,,,,,,,,,,,,,,,,,,,,,,,,,,,,,,
,,,,,,,,,,stimuli/images/PICTURE_141.png,CLIENT,5ea00c9769e0250009a479df,12/08/1943,2020-09-03_18h48.00.567,proactive2,2020.1.2,Win32,60,5f5126bb654d4b30ee6923d8,5f512c3bdb04a83278c1f2e0,5,,,,,,sunflower,,,,,,0,18,18,30,1,4,2,,,,,,,,,,,,,,,,,,,,,,,,,,,,,,,,,,,,,,,,,,,,,,,,,,,,,,,,,,,,,,,,,,,,,,,,,,,,,,,,,,,,,,,,,,,,,,,,,,,
,,,,,,,,,,stimuli/images/PICTURE_348.png,TOILET,5ea00c9769e0250009a479df,12/08/1943,2020-09-03_18h48.00.567,proactive2,2020.1.2,Win32,60,5f5126bb654d4b30ee6923d8,5f512c3bdb04a83278c1f2e0,5,,,,,,pepper,,,,,,0,19,19,4,1,1,2,,,,,,,,,,,,,,,,,,,,,,,,,,,,,,,,,,,,,,,,,,,,,,,,,,,,,,,,,,,,,,,,,,,,,,,,,,,,,,,,,,,,,,,,,,,,,,,,,,,
,,,,,,,,,,stimuli/images/PICTURE_2.png,JUNGLE,5ea00c9769e0250009a479df,12/08/1943,2020-09-03_18h48.00.567,proactive2,2020.1.2,Win32,60,5f5126bb654d4b30ee6923d8,5f512c3bdb04a83278c1f2e0,5,,,,,,tyre,,,,,,0,20,20,1,1,1,2,,,,,,,,,,,,,,,,,,,,,,,,,,,,,,,,,,,,,,,,,,,,,,,,,,,,,,,,,,,,,,,,,,,,,,,,,,,,,,,,,,,,,,,,,,,,,,,,,,,
,,,,,,,,,,stimuli/images/PICTURE_2.png,YARD,5ea00c9769e0250009a479df,12/08/1943,2020-09-03_18h48.00.567,proactive2,2020.1.2,Win32,60,5f5126bb654d4b30ee6923d8,5f512c3bdb04a83278c1f2e0,5,,,,,,tyre,,,,,,0,21,21,55,1,6,2,,,,,,,,,,,,,,,,,,,,,,,,,,,,,,,,,,,,,,,,,,,,,,,,,,,,,,,,,,,,,,,,,,,,,,,,,,,,,,,,,,,,,,,,,,,,,,,,,,,
,,,,,,,,,,stimuli/images/PICTURE_33.png,COPS,5ea00c9769e0250009a479df,12/08/1943,2020-09-03_18h48.00.567,proactive2,2020.1.2,Win32,60,5f5126bb654d4b30ee6923d8,5f512c3bdb04a83278c1f2e0,5,,,,,,frame,,,,,,0,22,22,29,1,3,2,,,,,,,,,,,,,,,,,,,,,,,,,,,,,,,,,,,,,,,,,,,,,,,,,,,,,,,,,,,,,,,,,,,,,,,,,,,,,,,,,,,,,,,,,,,,,,,,,,,
,,,,,,,,,,stimuli/images/PICTURE_692.png,DUDE,5ea00c9769e0250009a479df,12/08/1943,2020-09-03_18h48.00.567,proactive2,2020.1.2,Win32,60,5f5126bb654d4b30ee6923d8,5f512c3bdb04a83278c1f2e0,5,,,,,,cherry,,,,,,0,23,23,47,1,5,2,,,,,,,,,,,,,,,,,,,,,,,,,,,,,,,,,,,,,,,,,,,,,,,,,,,,,,,,,,,,,,,,,,,,,,,,,,,,,,,,,,,,,,,,,,,,,,,,,,,
,,,,,,,,,,stimuli/images/PICTURE_688.png,CLOCK,5ea00c9769e0250009a479df,12/08/1943,2020-09-03_18h48.00.567,proactive2,2020.1.2,Win32,60,5f5126bb654d4b30ee6923d8,5f512c3bdb04a83278c1f2e0,5,,,,,,runner,,,,,,0,24,24,42,1,5,2,,,,,,,,,,,,,,,,,,,,,,,,,,,,,,,,,,,,,,,,,,,,,,,,,,,,,,,,,,,,,,,,,,,,,,,,,,,,,,,,,,,,,,,,,,,,,,,,,,,
,,,,,,,,,,stimuli/images/PICTURE_509.png,SHOTS,5ea00c9769e0250009a479df,12/08/1943,2020-09-03_18h48.00.567,proactive2,2020.1.2,Win32,60,5f5126bb654d4b30ee6923d8,5f512c3bdb04a83278c1f2e0,5,,,,,,telephone,,,,,,0,25,25,7,1,1,2,,,,,,,,,,,,,,,,,,,,,,,,,,,,,,,,,,,,,,,,,,,,,,,,,,,,,,,,,,,,,,,,,,,,,,,,,,,,,,,,,,,,,,,,,,,,,,,,,,,
,,,,,,,,,,stimuli/images/PICTURE_208.png,SPIRIT,5ea00c9769e0250009a479df,12/08/1943,2020-09-03_18h48.00.567,proactive2,2020.1.2,Win32,60,5f5126bb654d4b30ee6923d8,5f512c3bdb04a83278c1f2e0,5,,,,,,microphone,,,,,,0,26,26,28,1,3,2,,,,,,,,,,,,,,,,,,,,,,,,,,,,,,,,,,,,,,,,,,,,,,,,,,,,,,,,,,,,,,,,,,,,,,,,,,,,,,,,,,,,,,,,,,,,,,,,,,,
,,,,,,,,,,stimuli/images/PICTURE_405.png,JUNGLE,5ea00c9769e0250009a479df,12/08/1943,2020-09-03_18h48.00.567,proactive2,2020.1.2,Win32,60,5f5126bb654d4b30ee6923d8,5f512c3bdb04a83278c1f2e0,5,,,,,,anchor,,,,,,0,27,27,13,1,2,2,,,,,,,,,,,,,,,,,,,,,,,,,,,,,,,,,,,,,,,,,,,,,,,,,,,,,,,,,,,,,,,,,,,,,,,,,,,,,,,,,,,,,,,,,,,,,,,,,,,
,,,,,,,,,,stimuli/images/PICTURE_57.png,CASINO,5ea00c9769e0250009a479df,12/08/1943,2020-09-03_18h48.00.567,proactive2,2020.1.2,Win32,60,5f5126bb654d4b30ee6923d8,5f512c3bdb04a83278c1f2e0,5,,,,,,stamp,,,,,,0,28,28,12,1,2,2,,,,,,,,,,,,,,,,,,,,,,,,,,,,,,,,,,,,,,,,,,,,,,,,,,,,,,,,,,,,,,,,,,,,,,,,,,,,,,,,,,,,,,,,,,,,,,,,,,,
,,,,,,,,,,stimuli/images/PICTURE_564.png,PLENTY,5ea00c9769e0250009a479df,12/08/1943,2020-09-03_18h48.00.567,proactive2,2020.1.2,Win32,60,5f5126bb654d4b30ee6923d8,5f512c3bdb04a83278c1f2e0,5,,,,,,spoon,,,,,,0,29,29,11,1,2,2,,,,,,,,,,,,,,,,,,,,,,,,,,,,,,,,,,,,,,,,,,,,,,,,,,,,,,,,,,,,,,,,,,,,,,,,,,,,,,,,,,,,,,,,,,,,,,,,,,,
,,,,,,,,,,stimuli/images/PICTURE_403.png,FAMILY,5ea00c9769e0250009a479df,12/08/1943,2020-09-03_18h48.00.567,proactive2,2020.1.2,Win32,60,5f5126bb654d4b30ee6923d8,5f512c3bdb04a83278c1f2e0,5,,,,,,cathedral,,,,,,0,30,30,9,1,1,2,,,,,,,,,,,,,,,,,,,,,,,,,,,,,,,,,,,,,,,,,,,,,,,,,,,,,,,,,,,,,,,,,,,,,,,,,,,,,,,,,,,,,,,,,,,,,,,,,,,
,,,,,,,,,,stimuli/images/PICTURE_2.png,AREA,5ea00c9769e0250009a479df,12/08/1943,2020-09-03_18h48.00.567,proactive2,2020.1.2,Win32,60,5f5126bb654d4b30ee6923d8,5f512c3bdb04a83278c1f2e0,5,,,,,,tyre,,,,,,0,31,31,32,1,4,2,,,,,,,,,,,,,,,,,,,,,,,,,,,,,,,,,,,,,,,,,,,,,,,,,,,,,,,,,,,,,,,,,,,,,,,,,,,,,,,,,,,,,,,,,,,,,,,,,,,
,,,,,,,,,,stimuli/images/PICTURE_509.png,MILLER,5ea00c9769e0250009a479df,12/08/1943,2020-09-03_18h48.00.567,proactive2,2020.1.2,Win32,60,5f5126bb654d4b30ee6923d8,5f512c3bdb04a83278c1f2e0,5,,,,,,telephone,,,,,,0,32,32,49,1,5,2,,,,,,,,,,,,,,,,,,,,,,,,,,,,,,,,,,,,,,,,,,,,,,,,,,,,,,,,,,,,,,,,,,,,,,,,,,,,,,,,,,,,,,,,,,,,,,,,,,,
,,,,,,,,,,stimuli/images/PICTURE_405.png,JUNGLE,5ea00c9769e0250009a479df,12/08/1943,2020-09-03_18h48.00.567,proactive2,2020.1.2,Win32,60,5f5126bb654d4b30ee6923d8,5f512c3bdb04a83278c1f2e0,5,,,,,,anchor,,,,,,0,33,33,58,1,6,2,,,,,,,,,,,,,,,,,,,,,,,,,,,,,,,,,,,,,,,,,,,,,,,,,,,,,,,,,,,,,,,,,,,,,,,,,,,,,,,,,,,,,,,,,,,,,,,,,,,
,,,,,,,,,,stimuli/images/PICTURE_160.png,HOTEL,5ea00c9769e0250009a479df,12/08/1943,2020-09-03_18h48.00.567,proactive2,2020.1.2,Win32,60,5f5126bb654d4b30ee6923d8,5f512c3bdb04a83278c1f2e0,5,,,,,,wheelbarrow,,,,,,0,34,34,16,1,2,2,,,,,,,,,,,,,,,,,,,,,,,,,,,,,,,,,,,,,,,,,,,,,,,,,,,,,,,,,,,,,,,,,,,,,,,,,,,,,,,,,,,,,,,,,,,,,,,,,,,
,,,,,,,,,,stimuli/images/PICTURE_297.png,BODY,5ea00c9769e0250009a479df,12/08/1943,2020-09-03_18h48.00.567,proactive2,2020.1.2,Win32,60,5f5126bb654d4b30ee6923d8,5f512c3bdb04a83278c1f2e0,5,,,,,,aeroplane,,,,,,0,35,35,51,1,6,2,,,,,,,,,,,,,,,,,,,,,,,,,,,,,,,,,,,,,,,,,,,,,,,,,,,,,,,,,,,,,,,,,,,,,,,,,,,,,,,,,,,,,,,,,,,,,,,,,,,
,,,,,,,,,,stimuli/images/PICTURE_452.png,COPS,5ea00c9769e0250009a479df,12/08/1943,2020-09-03_18h48.00.567,proactive2,2020.1.2,Win32,60,5f5126bb654d4b30ee6923d8,5f512c3bdb04a83278c1f2e0,5,,,,,,watch,,,,,,0,36,36,0,1,1,2,,,,,,,,,,,,,,,,,,,,,,,,,,,,,,,,,,,,,,,,,,,,,,,,,,,,,,,,,,,,,,,,,,,,,,,,,,,,,,,,,,,,,,,,,,,,,,,,,,,
,,,,,,,,,,stimuli/images/PICTURE_215.png,BOYS,5ea00c9769e0250009a479df,12/08/1943,2020-09-03_18h48.00.567,proactive2,2020.1.2,Win32,60,5f5126bb654d4b30ee6923d8,5f512c3bdb04a83278c1f2e0,5,,,,,,boot,,,,,,0,37,37,24,1,3,2,,,,,,,,,,,,,,,,,,,,,,,,,,,,,,,,,,,,,,,,,,,,,,,,,,,,,,,,,,,,,,,,,,,,,,,,,,,,,,,,,,,,,,,,,,,,,,,,,,,
,,,,,,,,,,stimuli/images/PICTURE_68.png,KIND,5ea00c9769e0250009a479df,12/08/1943,2020-09-03_18h48.00.567,proactive2,2020.1.2,Win32,60,5f5126bb654d4b30ee6923d8,5f512c3bdb04a83278c1f2e0,5,,,,,,candle,,,,,,0,38,38,23,1,3,2,,,,,,,,,,,,,,,,,,,,,,,,,,,,,,,,,,,,,,,,,,,,,,,,,,,,,,,,,,,,,,,,,,,,,,,,,,,,,,,,,,,,,,,,,,,,,,,,,,,
,,,,,,,,,,stimuli/images/PICTURE_123.png,SALE,5ea00c9769e0250009a479df,12/08/1943,2020-09-03_18h48.00.567,proactive2,2020.1.2,Win32,60,5f5126bb654d4b30ee6923d8,5f512c3bdb04a83278c1f2e0,5,,,,,,dart,,,,,,0,39,39,8,1,1,2,,,,,,,,,,,,,,,,,,,,,,,,,,,,,,,,,,,,,,,,,,,,,,,,,,,,,,,,,,,,,,,,,,,,,,,,,,,,,,,,,,,,,,,,,,,,,,,,,,,
,,,,,,,,,,stimuli/images/PICTURE_655.png,SALE,5ea00c9769e0250009a479df,12/08/1943,2020-09-03_18h48.00.567,proactive2,2020.1.2,Win32,60,5f5126bb654d4b30ee6923d8,5f512c3bdb04a83278c1f2e0,5,,,,,,megaphone,,,,,,0,40,40,57,1,6,2,,,,,,,,,,,,,,,,,,,,,,,,,,,,,,,,,,,,,,,,,,,,,,,,,,,,,,,,,,,,,,,,,,,,,,,,,,,,,,,,,,,,,,,,,,,,,,,,,,,
,,,,,,,,,,stimuli/images/PICTURE_654.png,YEAR,5ea00c9769e0250009a479df,12/08/1943,2020-09-03_18h48.00.567,proactive2,2020.1.2,Win32,60,5f5126bb654d4b30ee6923d8,5f512c3bdb04a83278c1f2e0,5,,,,,,pencil,,,,,,0,41,41,41,1,5,2,,,,,,,,,,,,,,,,,,,,,,,,,,,,,,,,,,,,,,,,,,,,,,,,,,,,,,,,,,,,,,,,,,,,,,,,,,,,,,,,,,,,,,,,,,,,,,,,,,,
,,,,,,,,,,stimuli/images/PICTURE_95.png,NIGHT,5ea00c9769e0250009a479df,12/08/1943,2020-09-03_18h48.00.567,proactive2,2020.1.2,Win32,60,5f5126bb654d4b30ee6923d8,5f512c3bdb04a83278c1f2e0,5,,,,,,suitcase,,,,,,0,42,42,37,1,4,2,,,,,,,,,,,,,,,,,,,,,,,,,,,,,,,,,,,,,,,,,,,,,,,,,,,,,,,,,,,,,,,,,,,,,,,,,,,,,,,,,,,,,,,,,,,,,,,,,,,
,,,,,,,,,,stimuli/images/PICTURE_677.png,FAMILY,5ea00c9769e0250009a479df,12/08/1943,2020-09-03_18h48.00.567,proactive2,2020.1.2,Win32,60,5f5126bb654d4b30ee6923d8,5f512c3bdb04a83278c1f2e0,5,,,,,,map,,,,,,0,43,43,53,1,6,2,,,,,,,,,,,,,,,,,,,,,,,,,,,,,,,,,,,,,,,,,,,,,,,,,,,,,,,,,,,,,,,,,,,,,,,,,,,,,,,,,,,,,,,,,,,,,,,,,,,
,,,,,,,,,,stimuli/images/PICTURE_285.png,PRINCE,5ea00c9769e0250009a479df,12/08/1943,2020-09-03_18h48.00.567,proactive2,2020.1.2,Win32,60,5f5126bb654d4b30ee6923d8,5f512c3bdb04a83278c1f2e0,5,,,,,,carrot,,,,,,0,44,44,20,1,3,2,,,,,,,,,,,,,,,,,,,,,,,,,,,,,,,,,,,,,,,,,,,,,,,,,,,,,,,,,,,,,,,,,,,,,,,,,,,,,,,,,,,,,,,,,,,,,,,,,,,
,,,,,,,,,,stimuli/images/PICTURE_348.png,DUDE,5ea00c9769e0250009a479df,12/08/1943,2020-09-03_18h48.00.567,proactive2,2020.1.2,Win32,60,5f5126bb654d4b30ee6923d8,5f512c3bdb04a83278c1f2e0,5,,,,,,pepper,,,,,,0,45,45,59,1,6,2,,,,,,,,,,,,,,,,,,,,,,,,,,,,,,,,,,,,,,,,,,,,,,,,,,,,,,,,,,,,,,,,,,,,,,,,,,,,,,,,,,,,,,,,,,,,,,,,,,,
,,,,,,,,,,stimuli/images/PICTURE_504.png,HOUSE,5ea00c9769e0250009a479df,12/08/1943,2020-09-03_18h48.00.567,proactive2,2020.1.2,Win32,60,5f5126bb654d4b30ee6923d8,5f512c3bdb04a83278c1f2e0,5,,,,,,wheel,,,,,,0,46,46,36,1,4,2,,,,,,,,,,,,,,,,,,,,,,,,,,,,,,,,,,,,,,,,,,,,,,,,,,,,,,,,,,,,,,,,,,,,,,,,,,,,,,,,,,,,,,,,,,,,,,,,,,,
,,,,,,,,,,stimuli/images/PICTURE_255.png,PENNY,5ea00c9769e0250009a479df,12/08/1943,2020-09-03_18h48.00.567,proactive2,2020.1.2,Win32,60,5f5126bb654d4b30ee6923d8,5f512c3bdb04a83278c1f2e0,5,,,,,,shovel,,,,,,0,47,47,19,1,2,2,,,,,,,,,,,,,,,,,,,,,,,,,,,,,,,,,,,,,,,,,,,,,,,,,,,,,,,,,,,,,,,,,,,,,,,,,,,,,,,,,,,,,,,,,,,,,,,,,,,
,,,,,,,,,,stimuli/images/PICTURE_509.png,BATH,5ea00c9769e0250009a479df,12/08/1943,2020-09-03_18h48.00.567,proactive2,2020.1.2,Win32,60,5f5126bb654d4b30ee6923d8,5f512c3bdb04a83278c1f2e0,5,,,,,,telephone,,,,,,0,48,48,15,1,2,2,,,,,,,,,,,,,,,,,,,,,,,,,,,,,,,,,,,,,,,,,,,,,,,,,,,,,,,,,,,,,,,,,,,,,,,,,,,,,,,,,,,,,,,,,,,,,,,,,,,
,,,,,,,,,,stimuli/images/PICTURE_18.png,RIVER,5ea00c9769e0250009a479df,12/08/1943,2020-09-03_18h48.00.567,proactive2,2020.1.2,Win32,60,5f5126bb654d4b30ee6923d8,5f512c3bdb04a83278c1f2e0,5,,,,,,planet,,,,,,0,49,49,22,1,3,2,,,,,,,,,,,,,,,,,,,,,,,,,,,,,,,,,,,,,,,,,,,,,,,,,,,,,,,,,,,,,,,,,,,,,,,,,,,,,,,,,,,,,,,,,,,,,,,,,,,
,,,,,,,,,,stimuli/images/PICTURE_750.png,POLICY,5ea00c9769e0250009a479df,12/08/1943,2020-09-03_18h48.00.567,proactive2,2020.1.2,Win32,60,5f5126bb654d4b30ee6923d8,5f512c3bdb04a83278c1f2e0,5,,,,,,kettle,,,,,,0,50,50,44,1,5,2,,,,,,,,,,,,,,,,,,,,,,,,,,,,,,,,,,,,,,,,,,,,,,,,,,,,,,,,,,,,,,,,,,,,,,,,,,,,,,,,,,,,,,,,,,,,,,,,,,,
,,,,,,,,,,stimuli/images/PICTURE_487.png,ROOF,5ea00c9769e0250009a479df,12/08/1943,2020-09-03_18h48.00.567,proactive2,2020.1.2,Win32,60,5f5126bb654d4b30ee6923d8,5f512c3bdb04a83278c1f2e0,5,,,,,,basket,,,,,,0,51,51,50,1,6,2,,,,,,,,,,,,,,,,,,,,,,,,,,,,,,,,,,,,,,,,,,,,,,,,,,,,,,,,,,,,,,,,,,,,,,,,,,,,,,,,,,,,,,,,,,,,,,,,,,,
,,,,,,,,,,stimuli/images/PICTURE_93.png,GIRL,5ea00c9769e0250009a479df,12/08/1943,2020-09-03_18h48.00.567,proactive2,2020.1.2,Win32,60,5f5126bb654d4b30ee6923d8,5f512c3bdb04a83278c1f2e0,5,,,,,,skateboard,,,,,,0,52,52,31,1,4,2,,,,,,,,,,,,,,,,,,,,,,,,,,,,,,,,,,,,,,,,,,,,,,,,,,,,,,,,,,,,,,,,,,,,,,,,,,,,,,,,,,,,,,,,,,,,,,,,,,,
,,,,,,,,,,stimuli/images/PICTURE_708.png,VALLEY,5ea00c9769e0250009a479df,12/08/1943,2020-09-03_18h48.00.567,proactive2,2020.1.2,Win32,60,5f5126bb654d4b30ee6923d8,5f512c3bdb04a83278c1f2e0,5,,,,,,monkey,,,,,,0,53,53,45,1,5,2,,,,,,,,,,,,,,,,,,,,,,,,,,,,,,,,,,,,,,,,,,,,,,,,,,,,,,,,,,,,,,,,,,,,,,,,,,,,,,,,,,,,,,,,,,,,,,,,,,,
,,,,,,,,,,stimuli/images/PICTURE_32.png,LETTER,5ea00c9769e0250009a479df,12/08/1943,2020-09-03_18h48.00.567,proactive2,2020.1.2,Win32,60,5f5126bb654d4b30ee6923d8,5f512c3bdb04a83278c1f2e0,5,,,,,,crown,,,,,,0,54,54,56,1,6,2,,,,,,,,,,,,,,,,,,,,,,,,,,,,,,,,,,,,,,,,,,,,,,,,,,,,,,,,,,,,,,,,,,,,,,,,,,,,,,,,,,,,,,,,,,,,,,,,,,,
,,,,,,,,,,stimuli/images/PICTURE_177.png,HOUSE,5ea00c9769e0250009a479df,12/08/1943,2020-09-03_18h48.00.567,proactive2,2020.1.2,Win32,60,5f5126bb654d4b30ee6923d8,5f512c3bdb04a83278c1f2e0,5,,,,,,mushroom,,,,,,0,55,55,25,1,3,2,,,,,,,,,,,,,,,,,,,,,,,,,,,,,,,,,,,,,,,,,,,,,,,,,,,,,,,,,,,,,,,,,,,,,,,,,,,,,,,,,,,,,,,,,,,,,,,,,,,
,,,,,,,,,,stimuli/images/PICTURE_470.png,MOMENT,5ea00c9769e0250009a479df,12/08/1943,2020-09-03_18h48.00.567,proactive2,2020.1.2,Win32,60,5f5126bb654d4b30ee6923d8,5f512c3bdb04a83278c1f2e0,5,,,,,,motorbike,,,,,,0,56,56,40,1,5,2,,,,,,,,,,,,,,,,,,,,,,,,,,,,,,,,,,,,,,,,,,,,,,,,,,,,,,,,,,,,,,,,,,,,,,,,,,,,,,,,,,,,,,,,,,,,,,,,,,,
,,,,,,,,,,stimuli/images/PICTURE_654.png,COPS,5ea00c9769e0250009a479df,12/08/1943,2020-09-03_18h48.00.567,proactive2,2020.1.2,Win32,60,5f5126bb654d4b30ee6923d8,5f512c3bdb04a83278c1f2e0,5,,,,,,pencil,,,,,,0,57,57,10,1,2,2,,,,,,,,,,,,,,,,,,,,,,,,,,,,,,,,,,,,,,,,,,,,,,,,,,,,,,,,,,,,,,,,,,,,,,,,,,,,,,,,,,,,,,,,,,,,,,,,,,,
,,,,,,,,,,stimuli/images/PICTURE_314.png,SPEECH,5ea00c9769e0250009a479df,12/08/1943,2020-09-03_18h48.00.567,proactive2,2020.1.2,Win32,60,5f5126bb654d4b30ee6923d8,5f512c3bdb04a83278c1f2e0,5,,,,,,perfume,,,,,,0,58,58,35,1,4,2,,,,,,,,,,,,,,,,,,,,,,,,,,,,,,,,,,,,,,,,,,,,,,,,,,,,,,,,,,,,,,,,,,,,,,,,,,,,,,,,,,,,,,,,,,,,,,,,,,,
,,?,0.000775,0,,,,,,stimuli/images/PICTURE_215.png,FOOD,5ea00c9769e0250009a479df,12/08/1943,2020-09-03_18h48.00.567,proactive2,2020.1.2,Win32,60,5f5126bb654d4b30ee6923d8,5f512c3bdb04a83278c1f2e0,5,,,,,,boot,,,,,,,,,,,1,2,0,0,0,5,1,,,,,,,,,,,,,,,,,,,,,,,,,,,,,,,,,,,,,,,,,,,,,,,,,,,,,,,,,,,,,,,,,,,,,,,,,,,,,,,,,,,,,,,,,,,,,,
,,?,0.000695,0,,,,,,stimuli/images/PICTURE_33.png,COPS,5ea00c9769e0250009a479df,12/08/1943,2020-09-03_18h48.00.567,proactive2,2020.1.2,Win32,60,5f5126bb654d4b30ee6923d8,5f512c3bdb04a83278c1f2e0,5,,,,,,frame,,,,,,,,,,,3,2,0,1,1,29,1,,,,,,,,,,,,,,,,,,,,,,,,,,,,,,,,,,,,,,,,,,,,,,,,,,,,,,,,,,,,,,,,,,,,,,,,,,,,,,,,,,,,,,,,,,,,,,
,,?,0.00068,0,,,,,,stimuli/images/PICTURE_564.png,PLENTY,5ea00c9769e0250009a479df,12/08/1943,2020-09-03_18h48.00.567,proactive2,2020.1.2,Win32,60,5f5126bb654d4b30ee6923d8,5f512c3bdb04a83278c1f2e0,5,,,,,,spoon,,,,,,,,,,,2,2,0,2,2,11,1,,,,,,,,,,,,,,,,,,,,,,,,,,,,,,,,,,,,,,,,,,,,,,,,,,,,,,,,,,,,,,,,,,,,,,,,,,,,,,,,,,,,,,,,,,,,,,
,,?,0.000645,0,,,,,,stimuli/images/PICTURE_327.png,LEADER,5ea00c9769e0250009a479df,12/08/1943,2020-09-03_18h48.00.567,proactive2,2020.1.2,Win32,60,5f5126bb654d4b30ee6923d8,5f512c3bdb04a83278c1f2e0,5,,,,,,helmet,,,,,,,,,,,2,2,0,3,3,17,1,,,,,,,,,,,,,,,,,,,,,,,,,,,,,,,,,,,,,,,,,,,,,,,,,,,,,,,,,,,,,,,,,,,,,,,,,,,,,,,,,,,,,,,,,,,,,,
,,LEADER,15.00712,0,,,,,,stimuli/images/PICTURE_688.png,CLOCK,5ea00c9769e0250009a479df,12/08/1943,2020-09-03_18h48.00.567,proactive2,2020.1.2,Win32,60,5f5126bb654d4b30ee6923d8,5f512c3bdb04a83278c1f2e0,5,,,,,,runner,,,,,,,,,,,5,2,0,4,4,42,1,,,,,,,,,,,,,,,,,,,,,,,,,,,,,,,,,,,,,,,,,,,,,,,,,,,,,,,,,,,,,,,,,,,,,,,,,,,,,,,,,,,,,,,,,,,,,,
,,?,0.00147,0,,,,,,stimuli/images/PICTURE_255.png,PENNY,5ea00c9769e0250009a479df,12/08/1943,2020-09-03_18h48.00.567,proactive2,2020.1.2,Win32,60,5f5126bb654d4b30ee6923d8,5f512c3bdb04a83278c1f2e0,5,,,,,,shovel,,,,,,,,,,,2,2,0,5,5,19,1,,,,,,,,,,,,,,,,,,,,,,,,,,,,,,,,,,,,,,,,,,,,,,,,,,,,,,,,,,,,,,,,,,,,,,,,,,,,,,,,,,,,,,,,,,,,,,
,,?,0.00216,0,,,,,,stimuli/images/PICTURE_487.png,ROOF,5ea00c9769e0250009a479df,12/08/1943,2020-09-03_18h48.00.567,proactive2,2020.1.2,Win32,60,5f5126bb654d4b30ee6923d8,5f512c3bdb04a83278c1f2e0,5,,,,,,basket,,,,,,,,,,,6,2,0,6,6,50,1,,,,,,,,,,,,,,,,,,,,,,,,,,,,,,,,,,,,,,,,,,,,,,,,,,,,,,,,,,,,,,,,,,,,,,,,,,,,,,,,,,,,,,,,,,,,,,
,,HERT,15.003395,0,,,,,,stimuli/images/PICTURE_356.png,CANDY,5ea00c9769e0250009a479df,12/08/1943,2020-09-03_18h48.00.567,proactive2,2020.1.2,Win32,60,5f5126bb654d4b30ee6923d8,5f512c3bdb04a83278c1f2e0,5,,,,,,pawn,,,,,,,,,,,5,2,0,7,7,46,1,,,,,,,,,,,,,,,,,,,,,,,,,,,,,,,,,,,,,,,,,,,,,,,,,,,,,,,,,,,,,,,,,,,,,,,,,,,,,,,,,,,,,,,,,,,,,,
,,?,0.002565,0,,,,,,stimuli/images/PICTURE_509.png,APPLE,5ea00c9769e0250009a479df,12/08/1943,2020-09-03_18h48.00.567,proactive2,2020.1.2,Win32,60,5f5126bb654d4b30ee6923d8,5f512c3bdb04a83278c1f2e0,5,,,,,,telephone,,,,,,,,,,,4,2,0,8,8,38,1,,,,,,,,,,,,,,,,,,,,,,,,,,,,,,,,,,,,,,,,,,,,,,,,,,,,,,,,,,,,,,,,,,,,,,,,,,,,,,,,,,,,,,,,,,,,,,
,,?,0.000885,0,,,,,,stimuli/images/PICTURE_160.png,HOTEL,5ea00c9769e0250009a479df,12/08/1943,2020-09-03_18h48.00.567,proactive2,2020.1.2,Win32,60,5f5126bb654d4b30ee6923d8,5f512c3bdb04a83278c1f2e0,5,,,,,,wheelbarrow,,,,,,,,,,,2,2,0,9,9,16,1,,,,,,,,,,,,,,,,,,,,,,,,,,,,,,,,,,,,,,,,,,,,,,,,,,,,,,,,,,,,,,,,,,,,,,,,,,,,,,,,,,,,,,,,,,,,,,
,,?,0.000575,0,,,,,,stimuli/images/PICTURE_285.png,PRINCE,5ea00c9769e0250009a479df,12/08/1943,2020-09-03_18h48.00.567,proactive2,2020.1.2,Win32,60,5f5126bb654d4b30ee6923d8,5f512c3bdb04a83278c1f2e0,5,,,,,,carrot,,,,,,,,,,,3,2,0,10,10,20,1,,,,,,,,,,,,,,,,,,,,,,,,,,,,,,,,,,,,,,,,,,,,,,,,,,,,,,,,,,,,,,,,,,,,,,,,,,,,,,,,,,,,,,,,,,,,,,
,,?,0.000665,0,,,,,,stimuli/images/PICTURE_654.png,COPS,5ea00c9769e0250009a479df,12/08/1943,2020-09-03_18h48.00.567,proactive2,2020.1.2,Win32,60,5f5126bb654d4b30ee6923d8,5f512c3bdb04a83278c1f2e0,5,,,,,,pencil,,,,,,,,,,,2,2,0,11,11,10,1,,,,,,,,,,,,,,,,,,,,,,,,,,,,,,,,,,,,,,,,,,,,,,,,,,,,,,,,,,,,,,,,,,,,,,,,,,,,,,,,,,,,,,,,,,,,,,
,,?,0.00056,0,,,,,,stimuli/images/PICTURE_123.png,SALE,5ea00c9769e0250009a479df,12/08/1943,2020-09-03_18h48.00.567,proactive2,2020.1.2,Win32,60,5f5126bb654d4b30ee6923d8,5f512c3bdb04a83278c1f2e0,5,,,,,,dart,,,,,,,,,,,1,2,0,12,12,8,1,,,,,,,,,,,,,,,,,,,,,,,,,,,,,,,,,,,,,,,,,,,,,,,,,,,,,,,,,,,,,,,,,,,,,,,,,,,,,,,,,,,,,,,,,,,,,,
,,?,0.00079,0,,,,,,stimuli/images/PICTURE_147.png,LEADER,5ea00c9769e0250009a479df,12/08/1943,2020-09-03_18h48.00.567,proactive2,2020.1.2,Win32,60,5f5126bb654d4b30ee6923d8,5f512c3bdb04a83278c1f2e0,5,,,,,,hanger,,,,,,,,,,,4,2,0,13,13,33,1,,,,,,,,,,,,,,,,,,,,,,,,,,,,,,,,,,,,,,,,,,,,,,,,,,,,,,,,,,,,,,,,,,,,,,,,,,,,,,,,,,,,,,,,,,,,,,
,,FAMILY,12.296355,1,,,,,,stimuli/images/PICTURE_453.png,FAMILY,5ea00c9769e0250009a479df,12/08/1943,2020-09-03_18h48.00.567,proactive2,2020.1.2,Win32,60,5f5126bb654d4b30ee6923d8,5f512c3bdb04a83278c1f2e0,5,,,,,,scissors,,,,,,,,,,,5,2,0,14,14,48,1,,,,,,,,,,,,,,,,,,,,,,,,,,,,,,,,,,,,,,,,,,,,,,,,,,,,,,,,,,,,,,,,,,,,,,,,,,,,,,,,,,,,,,,,,,,,,,
,,BREAK,15.000515,0,,,,,,stimuli/images/PICTURE_750.png,POLICY,5ea00c9769e0250009a479df,12/08/1943,2020-09-03_18h48.00.567,proactive2,2020.1.2,Win32,60,5f5126bb654d4b30ee6923d8,5f512c3bdb04a83278c1f2e0,5,,,,,,kettle,,,,,,,,,,,5,2,0,15,15,44,1,,,,,,,,,,,,,,,,,,,,,,,,,,,,,,,,,,,,,,,,,,,,,,,,,,,,,,,,,,,,,,,,,,,,,,,,,,,,,,,,,,,,,,,,,,,,,,
,,VLLEY,7.261455,0,,,,,,stimuli/images/PICTURE_708.png,VALLEY,5ea00c9769e0250009a479df,12/08/1943,2020-09-03_18h48.00.567,proactive2,2020.1.2,Win32,60,5f5126bb654d4b30ee6923d8,5f512c3bdb04a83278c1f2e0,5,,,,,,monkey,,,,,,,,,,,5,2,0,16,16,45,1,,,,,,,,,,,,,,,,,,,,,,,,,,,,,,,,,,,,,,,,,,,,,,,,,,,,,,,,,,,,,,,,,,,,,,,,,,,,,,,,,,,,,,,,,,,,,,
,,?,0.00264,0,,,,,,stimuli/images/PICTURE_297.png,BODY,5ea00c9769e0250009a479df,12/08/1943,2020-09-03_18h48.00.567,proactive2,2020.1.2,Win32,60,5f5126bb654d4b30ee6923d8,5f512c3bdb04a83278c1f2e0,5,,,,,,aeroplane,,,,,,,,,,,6,2,0,17,17,51,1,,,,,,,,,,,,,,,,,,,,,,,,,,,,,,,,,,,,,,,,,,,,,,,,,,,,,,,,,,,,,,,,,,,,,,,,,,,,,,,,,,,,,,,,,,,,,,
,,?,0.002195,0,,,,,,stimuli/images/PICTURE_32.png,LETTER,5ea00c9769e0250009a479df,12/08/1943,2020-09-03_18h48.00.567,proactive2,2020.1.2,Win32,60,5f5126bb654d4b30ee6923d8,5f512c3bdb04a83278c1f2e0,5,,,,,,crown,,,,,,,,,,,6,2,0,18,18,56,1,,,,,,,,,,,,,,,,,,,,,,,,,,,,,,,,,,,,,,,,,,,,,,,,,,,,,,,,,,,,,,,,,,,,,,,,,,,,,,,,,,,,,,,,,,,,,,
,,?,0.002655,0,,,,,,stimuli/images/PICTURE_311.png,FLESH,5ea00c9769e0250009a479df,12/08/1943,2020-09-03_18h48.00.567,proactive2,2020.1.2,Win32,60,5f5126bb654d4b30ee6923d8,5f512c3bdb04a83278c1f2e0,5,,,,,,razor,,,,,,,,,,,1,2,0,19,19,3,1,,,,,,,,,,,,,,,,,,,,,,,,,,,,,,,,,,,,,,,,,,,,,,,,,,,,,,,,,,,,,,,,,,,,,,,,,,,,,,,,,,,,,,,,,,,,,,
,,RACE,15.013545,0,,,,,,stimuli/images/PICTURE_470.png,MOMENT,5ea00c9769e0250009a479df,12/08/1943,2020-09-03_18h48.00.567,proactive2,2020.1.2,Win32,60,5f5126bb654d4b30ee6923d8,5f512c3bdb04a83278c1f2e0,5,,,,,,motorbike,,,,,,,,,,,5,2,0,20,20,40,1,,,,,,,,,,,,,,,,,,,,,,,,,,,,,,,,,,,,,,,,,,,,,,,,,,,,,,,,,,,,,,,,,,,,,,,,,,,,,,,,,,,,,,,,,,,,,,
,,?,0.002835,0,,,,,,stimuli/images/PICTURE_504.png,HOUSE,5ea00c9769e0250009a479df,12/08/1943,2020-09-03_18h48.00.567,proactive2,2020.1.2,Win32,60,5f5126bb654d4b30ee6923d8,5f512c3bdb04a83278c1f2e0,5,,,,,,wheel,,,,,,,,,,,4,2,0,21,21,36,1,,,,,,,,,,,,,,,,,,,,,,,,,,,,,,,,,,,,,,,,,,,,,,,,,,,,,,,,,,,,,,,,,,,,,,,,,,,,,,,,,,,,,,,,,,,,,,
,,?,0.002195,0,,,,,,stimuli/images/PICTURE_311.png,TOILET,5ea00c9769e0250009a479df,12/08/1943,2020-09-03_18h48.00.567,proactive2,2020.1.2,Win32,60,5f5126bb654d4b30ee6923d8,5f512c3bdb04a83278c1f2e0,5,,,,,,razor,,,,,,,,,,,6,2,0,22,22,54,1,,,,,,,,,,,,,,,,,,,,,,,,,,,,,,,,,,,,,,,,,,,,,,,,,,,,,,,,,,,,,,,,,,,,,,,,,,,,,,,,,,,,,,,,,,,,,,
,,?,0.00314,0,,,,,,stimuli/images/PICTURE_208.png,SPIRIT,5ea00c9769e0250009a479df,12/08/1943,2020-09-03_18h48.00.567,proactive2,2020.1.2,Win32,60,5f5126bb654d4b30ee6923d8,5f512c3bdb04a83278c1f2e0,5,,,,,,microphone,,,,,,,,,,,3,2,0,23,23,28,1,,,,,,,,,,,,,,,,,,,,,,,,,,,,,,,,,,,,,,,,,,,,,,,,,,,,,,,,,,,,,,,,,,,,,,,,,,,,,,,,,,,,,,,,,,,,,,
,,?,0.00265,0,,,,,,stimuli/images/PICTURE_18.png,RIVER,5ea00c9769e0250009a479df,12/08/1943,2020-09-03_18h48.00.567,proactive2,2020.1.2,Win32,60,5f5126bb654d4b30ee6923d8,5f512c3bdb04a83278c1f2e0,5,,,,,,planet,,,,,,,,,,,3,2,0,24,24,22,1,,,,,,,,,,,,,,,,,,,,,,,,,,,,,,,,,,,,,,,,,,,,,,,,,,,,,,,,,,,,,,,,,,,,,,,,,,,,,,,,,,,,,,,,,,,,,,
,,?,0.00223,0,,,,,,stimuli/images/PICTURE_68.png,KIND,5ea00c9769e0250009a479df,12/08/1943,2020-09-03_18h48.00.567,proactive2,2020.1.2,Win32,60,5f5126bb654d4b30ee6923d8,5f512c3bdb04a83278c1f2e0,5,,,,,,candle,,,,,,,,,,,3,2,0,25,25,23,1,,,,,,,,,,,,,,,,,,,,,,,,,,,,,,,,,,,,,,,,,,,,,,,,,,,,,,,,,,,,,,,,,,,,,,,,,,,,,,,,,,,,,,,,,,,,,,
,,?,0.002175,0,,,,,,stimuli/images/PICTURE_491.png,SERIES,5ea00c9769e0250009a479df,12/08/1943,2020-09-03_18h48.00.567,proactive2,2020.1.2,Win32,60,5f5126bb654d4b30ee6923d8,5f512c3bdb04a83278c1f2e0,5,,,,,,rug,,,,,,,,,,,4,2,0,26,26,39,1,,,,,,,,,,,,,,,,,,,,,,,,,,,,,,,,,,,,,,,,,,,,,,,,,,,,,,,,,,,,,,,,,,,,,,,,,,,,,,,,,,,,,,,,,,,,,,
,,?,0.002185,0,,,,,,stimuli/images/PICTURE_2.png,JUNGLE,5ea00c9769e0250009a479df,12/08/1943,2020-09-03_18h48.00.567,proactive2,2020.1.2,Win32,60,5f5126bb654d4b30ee6923d8,5f512c3bdb04a83278c1f2e0,5,,,,,,tyre,,,,,,,,,,,1,2,0,27,27,1,1,,,,,,,,,,,,,,,,,,,,,,,,,,,,,,,,,,,,,,,,,,,,,,,,,,,,,,,,,,,,,,,,,,,,,,,,,,,,,,,,,,,,,,,,,,,,,,
,,?,0.00237,0,,,,,,stimuli/images/PICTURE_2.png,YARD,5ea00c9769e0250009a479df,12/08/1943,2020-09-03_18h48.00.567,proactive2,2020.1.2,Win32,60,5f5126bb654d4b30ee6923d8,5f512c3bdb04a83278c1f2e0,5,,,,,,tyre,,,,,,,,,,,6,2,0,28,28,55,1,,,,,,,,,,,,,,,,,,,,,,,,,,,,,,,,,,,,,,,,,,,,,,,,,,,,,,,,,,,,,,,,,,,,,,,,,,,,,,,,,,,,,,,,,,,,,,
,,?,0.00113,0,,,,,,stimuli/images/PICTURE_57.png,CASINO,5ea00c9769e0250009a479df,12/08/1943,2020-09-03_18h48.00.567,proactive2,2020.1.2,Win32,60,5f5126bb654d4b30ee6923d8,5f512c3bdb04a83278c1f2e0,5,,,,,,stamp,,,,,,,,,,,2,2,0,29,29,12,1,,,,,,,,,,,,,,,,,,,,,,,,,,,,,,,,,,,,,,,,,,,,,,,,,,,,,,,,,,,,,,,,,,,,,,,,,,,,,,,,,,,,,,,,,,,,,,
,,?,0.0009,0,,,,,,stimuli/images/PICTURE_215.png,BOYS,5ea00c9769e0250009a479df,12/08/1943,2020-09-03_18h48.00.567,proactive2,2020.1.2,Win32,60,5f5126bb654d4b30ee6923d8,5f512c3bdb04a83278c1f2e0,5,,,,,,boot,,,,,,,,,,,3,2,0,30,30,24,1,,,,,,,,,,,,,,,,,,,,,,,,,,,,,,,,,,,,,,,,,,,,,,,,,,,,,,,,,,,,,,,,,,,,,,,,,,,,,,,,,,,,,,,,,,,,,,
,,?,0.000915,0,,,,,,stimuli/images/PICTURE_2.png,AREA,5ea00c9769e0250009a479df,12/08/1943,2020-09-03_18h48.00.567,proactive2,2020.1.2,Win32,60,5f5126bb654d4b30ee6923d8,5f512c3bdb04a83278c1f2e0,5,,,,,,tyre,,,,,,,,,,,4,2,0,31,31,32,1,,,,,,,,,,,,,,,,,,,,,,,,,,,,,,,,,,,,,,,,,,,,,,,,,,,,,,,,,,,,,,,,,,,,,,,,,,,,,,,,,,,,,,,,,,,,,,
,,?,0.000735,0,,,,,,stimuli/images/PICTURE_95.png,NIGHT,5ea00c9769e0250009a479df,12/08/1943,2020-09-03_18h48.00.567,proactive2,2020.1.2,Win32,60,5f5126bb654d4b30ee6923d8,5f512c3bdb04a83278c1f2e0,5,,,,,,suitcase,,,,,,,,,,,4,2,0,32,32,37,1,,,,,,,,,,,,,,,,,,,,,,,,,,,,,,,,,,,,,,,,,,,,,,,,,,,,,,,,,,,,,,,,,,,,,,,,,,,,,,,,,,,,,,,,,,,,,,
,,?,0.000725,0,,,,,,stimuli/images/PICTURE_509.png,SHOTS,5ea00c9769e0250009a479df,12/08/1943,2020-09-03_18h48.00.567,proactive2,2020.1.2,Win32,60,5f5126bb654d4b30ee6923d8,5f512c3bdb04a83278c1f2e0,5,,,,,,telephone,,,,,,,,,,,1,2,0,33,33,7,1,,,,,,,,,,,,,,,,,,,,,,,,,,,,,,,,,,,,,,,,,,,,,,,,,,,,,,,,,,,,,,,,,,,,,,,,,,,,,,,,,,,,,,,,,,,,,,
,,?,0.000725,0,,,,,,stimuli/images/PICTURE_296.png,CLOCK,5ea00c9769e0250009a479df,12/08/1943,2020-09-03_18h48.00.567,proactive2,2020.1.2,Win32,60,5f5126bb654d4b30ee6923d8,5f512c3bdb04a83278c1f2e0,5,,,,,,bolt,,,,,,,,,,,2,2,0,34,34,18,1,,,,,,,,,,,,,,,,,,,,,,,,,,,,,,,,,,,,,,,,,,,,,,,,,,,,,,,,,,,,,,,,,,,,,,,,,,,,,,,,,,,,,,,,,,,,,,
,,?,0.000565,0,,,,,,stimuli/images/PICTURE_667.png,GLASS,5ea00c9769e0250009a479df,12/08/1943,2020-09-03_18h48.00.567,proactive2,2020.1.2,Win32,60,5f5126bb654d4b30ee6923d8,5f512c3bdb04a83278c1f2e0,5,,,,,,daisy,,,,,,,,,,,3,2,0,35,35,27,1,,,,,,,,,,,,,,,,,,,,,,,,,,,,,,,,,,,,,,,,,,,,,,,,,,,,,,,,,,,,,,,,,,,,,,,,,,,,,,,,,,,,,,,,,,,,,,
,,?,0.000615,0,,,,,,stimuli/images/PICTURE_314.png,SPEECH,5ea00c9769e0250009a479df,12/08/1943,2020-09-03_18h48.00.567,proactive2,2020.1.2,Win32,60,5f5126bb654d4b30ee6923d8,5f512c3bdb04a83278c1f2e0,5,,,,,,perfume,,,,,,,,,,,4,2,0,36,36,35,1,,,,,,,,,,,,,,,,,,,,,,,,,,,,,,,,,,,,,,,,,,,,,,,,,,,,,,,,,,,,,,,,,,,,,,,,,,,,,,,,,,,,,,,,,,,,,,
,,?,0.000575,0,,,,,,stimuli/images/PICTURE_57.png,CANDY,5ea00c9769e0250009a479df,12/08/1943,2020-09-03_18h48.00.567,proactive2,2020.1.2,Win32,60,5f5126bb654d4b30ee6923d8,5f512c3bdb04a83278c1f2e0,5,,,,,,stamp,,,,,,,,,,,6,2,0,37,37,52,1,,,,,,,,,,,,,,,,,,,,,,,,,,,,,,,,,,,,,,,,,,,,,,,,,,,,,,,,,,,,,,,,,,,,,,,,,,,,,,,,,,,,,,,,,,,,,,
,,?,0.000645,0,,,,,,stimuli/images/PICTURE_470.png,BEAUTY,5ea00c9769e0250009a479df,12/08/1943,2020-09-03_18h48.00.567,proactive2,2020.1.2,Win32,60,5f5126bb654d4b30ee6923d8,5f512c3bdb04a83278c1f2e0,5,,,,,,motorbike,,,,,,,,,,,3,2,0,38,38,26,1,,,,,,,,,,,,,,,,,,,,,,,,,,,,,,,,,,,,,,,,,,,,,,,,,,,,,,,,,,,,,,,,,,,,,,,,,,,,,,,,,,,,,,,,,,,,,,
,,?,0.00048,0,,,,,,stimuli/images/PICTURE_93.png,GIRL,5ea00c9769e0250009a479df,12/08/1943,2020-09-03_18h48.00.567,proactive2,2020.1.2,Win32,60,5f5126bb654d4b30ee6923d8,5f512c3bdb04a83278c1f2e0,5,,,,,,skateboard,,,,,,,,,,,4,2,0,39,39,31,1,,,,,,,,,,,,,,,,,,,,,,,,,,,,,,,,,,,,,,,,,,,,,,,,,,,,,,,,,,,,,,,,,,,,,,,,,,,,,,,,,,,,,,,,,,,,,,
,,?,0.000675,0,,,,,,stimuli/images/PICTURE_348.png,DUDE,5ea00c9769e0250009a479df,12/08/1943,2020-09-03_18h48.00.567,proactive2,2020.1.2,Win32,60,5f5126bb654d4b30ee6923d8,5f512c3bdb04a83278c1f2e0,5,,,,,,pepper,,,,,,,,,,,6,2,0,40,40,59,1,,,,,,,,,,,,,,,,,,,,,,,,,,,,,,,,,,,,,,,,,,,,,,,,,,,,,,,,,,,,,,,,,,,,,,,,,,,,,,,,,,,,,,,,,,,,,,
,,?,0.0007,0,,,,,,stimuli/images/PICTURE_177.png,HOUSE,5ea00c9769e0250009a479df,12/08/1943,2020-09-03_18h48.00.567,proactive2,2020.1.2,Win32,60,5f5126bb654d4b30ee6923d8,5f512c3bdb04a83278c1f2e0,5,,,,,,mushroom,,,,,,,,,,,3,2,0,41,41,25,1,,,,,,,,,,,,,,,,,,,,,,,,,,,,,,,,,,,,,,,,,,,,,,,,,,,,,,,,,,,,,,,,,,,,,,,,,,,,,,,,,,,,,,,,,,,,,,
,,?,0.00074,0,,,,,,stimuli/images/PICTURE_403.png,FAMILY,5ea00c9769e0250009a479df,12/08/1943,2020-09-03_18h48.00.567,proactive2,2020.1.2,Win32,60,5f5126bb654d4b30ee6923d8,5f512c3bdb04a83278c1f2e0,5,,,,,,cathedral,,,,,,,,,,,1,2,0,42,42,9,1,,,,,,,,,,,,,,,,,,,,,,,,,,,,,,,,,,,,,,,,,,,,,,,,,,,,,,,,,,,,,,,,,,,,,,,,,,,,,,,,,,,,,,,,,,,,,,
,,?,0.000715,0,,,,,,stimuli/images/PICTURE_141.png,CLIENT,5ea00c9769e0250009a479df,12/08/1943,2020-09-03_18h48.00.567,proactive2,2020.1.2,Win32,60,5f5126bb654d4b30ee6923d8,5f512c3bdb04a83278c1f2e0,5,,,,,,sunflower,,,,,,,,,,,4,2,0,43,43,30,1,,,,,,,,,,,,,,,,,,,,,,,,,,,,,,,,,,,,,,,,,,,,,,,,,,,,,,,,,,,,,,,,,,,,,,,,,,,,,,,,,,,,,,,,,,,,,,
,,RACE,15.001875,0,,,,,,stimuli/images/PICTURE_215.png,LEADER,5ea00c9769e0250009a479df,12/08/1943,2020-09-03_18h48.00.567,proactive2,2020.1.2,Win32,60,5f5126bb654d4b30ee6923d8,5f512c3bdb04a83278c1f2e0,5,,,,,,boot,,,,,,,,,,,5,2,0,44,44,43,1,,,,,,,,,,,,,,,,,,,,,,,,,,,,,,,,,,,,,,,,,,,,,,,,,,,,,,,,,,,,,,,,,,,,,,,,,,,,,,,,,,,,,,,,,,,,,,
,,?,0.00237,0,,,,,,stimuli/images/PICTURE_487.png,POLICY,5ea00c9769e0250009a479df,12/08/1943,2020-09-03_18h48.00.567,proactive2,2020.1.2,Win32,60,5f5126bb654d4b30ee6923d8,5f512c3bdb04a83278c1f2e0,5,,,,,,basket,,,,,,,,,,,4,2,0,45,45,34,1,,,,,,,,,,,,,,,,,,,,,,,,,,,,,,,,,,,,,,,,,,,,,,,,,,,,,,,,,,,,,,,,,,,,,,,,,,,,,,,,,,,,,,,,,,,,,,
,,?,0.002095,0,,,,,,stimuli/images/PICTURE_348.png,TOILET,5ea00c9769e0250009a479df,12/08/1943,2020-09-03_18h48.00.567,proactive2,2020.1.2,Win32,60,5f5126bb654d4b30ee6923d8,5f512c3bdb04a83278c1f2e0,5,,,,,,pepper,,,,,,,,,,,1,2,0,46,46,4,1,,,,,,,,,,,,,,,,,,,,,,,,,,,,,,,,,,,,,,,,,,,,,,,,,,,,,,,,,,,,,,,,,,,,,,,,,,,,,,,,,,,,,,,,,,,,,,
,,?,0.00261,0,,,,,,stimuli/images/PICTURE_509.png,BATH,5ea00c9769e0250009a479df,12/08/1943,2020-09-03_18h48.00.567,proactive2,2020.1.2,Win32,60,5f5126bb654d4b30ee6923d8,5f512c3bdb04a83278c1f2e0,5,,,,,,telephone,,,,,,,,,,,2,2,0,47,47,15,1,,,,,,,,,,,,,,,,,,,,,,,,,,,,,,,,,,,,,,,,,,,,,,,,,,,,,,,,,,,,,,,,,,,,,,,,,,,,,,,,,,,,,,,,,,,,,,
,,CHERRY,14.69469,0,,,,,,stimuli/images/PICTURE_509.png,MILLER,5ea00c9769e0250009a479df,12/08/1943,2020-09-03_18h48.00.567,proactive2,2020.1.2,Win32,60,5f5126bb654d4b30ee6923d8,5f512c3bdb04a83278c1f2e0,5,,,,,,telephone,,,,,,,,,,,5,2,0,48,48,49,1,,,,,,,,,,,,,,,,,,,,,,,,,,,,,,,,,,,,,,,,,,,,,,,,,,,,,,,,,,,,,,,,,,,,,,,,,,,,,,,,,,,,,,,,,,,,,,
,,?,0.0007,0,,,,,,stimuli/images/PICTURE_655.png,SALE,5ea00c9769e0250009a479df,12/08/1943,2020-09-03_18h48.00.567,proactive2,2020.1.2,Win32,60,5f5126bb654d4b30ee6923d8,5f512c3bdb04a83278c1f2e0,5,,,,,,megaphone,,,,,,,,,,,6,2,0,49,49,57,1,,,,,,,,,,,,,,,,,,,,,,,,,,,,,,,,,,,,,,,,,,,,,,,,,,,,,,,,,,,,,,,,,,,,,,,,,,,,,,,,,,,,,,,,,,,,,,
,,?,0.000915,0,,,,,,stimuli/images/PICTURE_285.png,WRITER,5ea00c9769e0250009a479df,12/08/1943,2020-09-03_18h48.00.567,proactive2,2020.1.2,Win32,60,5f5126bb654d4b30ee6923d8,5f512c3bdb04a83278c1f2e0,5,,,,,,carrot,,,,,,,,,,,1,2,0,50,50,6,1,,,,,,,,,,,,,,,,,,,,,,,,,,,,,,,,,,,,,,,,,,,,,,,,,,,,,,,,,,,,,,,,,,,,,,,,,,,,,,,,,,,,,,,,,,,,,,
,,?,0.00074,0,,,,,,stimuli/images/PICTURE_677.png,FAMILY,5ea00c9769e0250009a479df,12/08/1943,2020-09-03_18h48.00.567,proactive2,2020.1.2,Win32,60,5f5126bb654d4b30ee6923d8,5f512c3bdb04a83278c1f2e0,5,,,,,,map,,,,,,,,,,,6,2,0,51,51,53,1,,,,,,,,,,,,,,,,,,,,,,,,,,,,,,,,,,,,,,,,,,,,,,,,,,,,,,,,,,,,,,,,,,,,,,,,,,,,,,,,,,,,,,,,,,,,,,
,,?,0.000885,0,,,,,,stimuli/images/PICTURE_677.png,PHOTO,5ea00c9769e0250009a479df,12/08/1943,2020-09-03_18h48.00.567,proactive2,2020.1.2,Win32,60,5f5126bb654d4b30ee6923d8,5f512c3bdb04a83278c1f2e0,5,,,,,,map,,,,,,,,,,,2,2,0,52,52,14,1,,,,,,,,,,,,,,,,,,,,,,,,,,,,,,,,,,,,,,,,,,,,,,,,,,,,,,,,,,,,,,,,,,,,,,,,,,,,,,,,,,,,,,,,,,,,,,
,,?,0.00075,0,,,,,,stimuli/images/PICTURE_452.png,COPS,5ea00c9769e0250009a479df,12/08/1943,2020-09-03_18h48.00.567,proactive2,2020.1.2,Win32,60,5f5126bb654d4b30ee6923d8,5f512c3bdb04a83278c1f2e0,5,,,,,,watch,,,,,,,,,,,1,2,0,53,53,0,1,,,,,,,,,,,,,,,,,,,,,,,,,,,,,,,,,,,,,,,,,,,,,,,,,,,,,,,,,,,,,,,,,,,,,,,,,,,,,,,,,,,,,,,,,,,,,,
,,?,0.00074,0,,,,,,stimuli/images/PICTURE_57.png,NATION,5ea00c9769e0250009a479df,12/08/1943,2020-09-03_18h48.00.567,proactive2,2020.1.2,Win32,60,5f5126bb654d4b30ee6923d8,5f512c3bdb04a83278c1f2e0,5,,,,,,stamp,,,,,,,,,,,3,2,0,54,54,21,1,,,,,,,,,,,,,,,,,,,,,,,,,,,,,,,,,,,,,,,,,,,,,,,,,,,,,,,,,,,,,,,,,,,,,,,,,,,,,,,,,,,,,,,,,,,,,,
,,?,0.00085,0,,,,,,stimuli/images/PICTURE_405.png,JUNGLE,5ea00c9769e0250009a479df,12/08/1943,2020-09-03_18h48.00.567,proactive2,2020.1.2,Win32,60,5f5126bb654d4b30ee6923d8,5f512c3bdb04a83278c1f2e0,5,,,,,,anchor,,,,,,,,,,,6,2,0,55,55,58,1,,,,,,,,,,,,,,,,,,,,,,,,,,,,,,,,,,,,,,,,,,,,,,,,,,,,,,,,,,,,,,,,,,,,,,,,,,,,,,,,,,,,,,,,,,,,,,
,,RED,7.301915,0,,,,,,stimuli/images/PICTURE_692.png,DUDE,5ea00c9769e0250009a479df,12/08/1943,2020-09-03_18h48.00.567,proactive2,2020.1.2,Win32,60,5f5126bb654d4b30ee6923d8,5f512c3bdb04a83278c1f2e0,5,,,,,,cherry,,,,,,,,,,,5,2,0,56,56,47,1,,,,,,,,,,,,,,,,,,,,,,,,,,,,,,,,,,,,,,,,,,,,,,,,,,,,,,,,,,,,,,,,,,,,,,,,,,,,,,,,,,,,,,,,,,,,,,
,,?,0.00221,0,,,,,,stimuli/images/PICTURE_405.png,HOUSE,5ea00c9769e0250009a479df,12/08/1943,2020-09-03_18h48.00.567,proactive2,2020.1.2,Win32,60,5f5126bb654d4b30ee6923d8,5f512c3bdb04a83278c1f2e0,5,,,,,,anchor,,,,,,,,,,,1,2,0,57,57,2,1,,,,,,,,,,,,,,,,,,,,,,,,,,,,,,,,,,,,,,,,,,,,,,,,,,,,,,,,,,,,,,,,,,,,,,,,,,,,,,,,,,,,,,,,,,,,,,
,,?,0.00248,0,,,,,,stimuli/images/PICTURE_405.png,JUNGLE,5ea00c9769e0250009a479df,12/08/1943,2020-09-03_18h48.00.567,proactive2,2020.1.2,Win32,60,5f5126bb654d4b30ee6923d8,5f512c3bdb04a83278c1f2e0,5,,,,,,anchor,,,,,,,,,,,2,2,0,58,58,13,1,,,,,,,,,,,,,,,,,,,,,,,,,,,,,,,,,,,,,,,,,,,,,,,,,,,,,,,,,,,,,,,,,,,,,,,,,,,,,,,,,,,,,,,,,,,,,,
,,LEADER,9.001075,0,,,,,,stimuli/images/PICTURE_654.png,YEAR,5ea00c9769e0250009a479df,12/08/1943,2020-09-03_18h48.00.567,proactive2,2020.1.2,Win32,60,5f5126bb654d4b30ee6923d8,5f512c3bdb04a83278c1f2e0,5,,,,,,pencil,,,,,,,,,,,5,2,0,59,59,41,1,,,,,,,,,,,,,,,,,,,,,,,,,,,,,,,,,,,,,,,,,,,,,,,,,,,,,,,,,,,,,,,,,,,,,,,,,,,,,,,,,,,,,,,,,,,,,,
,,,,,,,,,,,,5ea00c9769e0250009a479df,12/08/1943,2020-09-03_18h48.00.567,proactive2,2020.1.2,Win32,60,5f5126bb654d4b30ee6923d8,5f512c3bdb04a83278c1f2e0,5,,,,,,,,,,,,,,,,,,,,,,,,0,0,0,2,1,stimuli/learn-block3.csv,,,,,,,,,,,,,,,,,,,,,,,,,,,,,,,,,,,,,,,,,,,,,,,,,,,,,,,,,,,,,,,,,,,,,,,,,,,,,,,,,,,,,,,,
,,,,,,,,,,stimuli/images/PICTURE_296.png,LIFE,5ea00c9769e0250009a479df,12/08/1943,2020-09-03_18h48.00.567,proactive2,2020.1.2,Win32,60,5f5126bb654d4b30ee6923d8,5f512c3bdb04a83278c1f2e0,5,,,,,,bolt,,,,,,0,0,0,57,1,6,1,,,,,,,,,,,,,,,,,,,,,,,,,,,,,,,,,,,,,,,,,,,,,,,,,,,,,,,,,,,,,,,,,,,,,,,,,,,,,,,,,,,,,,,,,,,,,,,,,,,
,,,,,,,,,,stimuli/images/PICTURE_491.png,GLASS,5ea00c9769e0250009a479df,12/08/1943,2020-09-03_18h48.00.567,proactive2,2020.1.2,Win32,60,5f5126bb654d4b30ee6923d8,5f512c3bdb04a83278c1f2e0,5,,,,,,rug,,,,,,0,1,1,14,1,2,1,,,,,,,,,,,,,,,,,,,,,,,,,,,,,,,,,,,,,,,,,,,,,,,,,,,,,,,,,,,,,,,,,,,,,,,,,,,,,,,,,,,,,,,,,,,,,,,,,,,
,,,,,,,,,,stimuli/images/PICTURE_95.png,BOYS,5ea00c9769e0250009a479df,12/08/1943,2020-09-03_18h48.00.567,proactive2,2020.1.2,Win32,60,5f5126bb654d4b30ee6923d8,5f512c3bdb04a83278c1f2e0,5,,,,,,suitcase,,,,,,0,2,2,1,1,1,1,,,,,,,,,,,,,,,,,,,,,,,,,,,,,,,,,,,,,,,,,,,,,,,,,,,,,,,,,,,,,,,,,,,,,,,,,,,,,,,,,,,,,,,,,,,,,,,,,,,
,,,,,,,,,,stimuli/images/PICTURE_147.png,WOMEN,5ea00c9769e0250009a479df,12/08/1943,2020-09-03_18h48.00.567,proactive2,2020.1.2,Win32,60,5f5126bb654d4b30ee6923d8,5f512c3bdb04a83278c1f2e0,5,,,,,,hanger,,,,,,0,3,3,7,1,1,1,,,,,,,,,,,,,,,,,,,,,,,,,,,,,,,,,,,,,,,,,,,,,,,,,,,,,,,,,,,,,,,,,,,,,,,,,,,,,,,,,,,,,,,,,,,,,,,,,,,
,,,,,,,,,,stimuli/images/PICTURE_504.png,ARTIST,5ea00c9769e0250009a479df,12/08/1943,2020-09-03_18h48.00.567,proactive2,2020.1.2,Win32,60,5f5126bb654d4b30ee6923d8,5f512c3bdb04a83278c1f2e0,5,,,,,,wheel,,,,,,0,4,4,49,1,5,1,,,,,,,,,,,,,,,,,,,,,,,,,,,,,,,,,,,,,,,,,,,,,,,,,,,,,,,,,,,,,,,,,,,,,,,,,,,,,,,,,,,,,,,,,,,,,,,,,,,
,,,,,,,,,,stimuli/images/PICTURE_655.png,TOILET,5ea00c9769e0250009a479df,12/08/1943,2020-09-03_18h48.00.567,proactive2,2020.1.2,Win32,60,5f5126bb654d4b30ee6923d8,5f512c3bdb04a83278c1f2e0,5,,,,,,megaphone,,,,,,0,5,5,12,1,2,1,,,,,,,,,,,,,,,,,,,,,,,,,,,,,,,,,,,,,,,,,,,,,,,,,,,,,,,,,,,,,,,,,,,,,,,,,,,,,,,,,,,,,,,,,,,,,,,,,,,
,,,,,,,,,,stimuli/images/PICTURE_504.png,YEAR,5ea00c9769e0250009a479df,12/08/1943,2020-09-03_18h48.00.567,proactive2,2020.1.2,Win32,60,5f5126bb654d4b30ee6923d8,5f512c3bdb04a83278c1f2e0,5,,,,,,wheel,,,,,,0,6,6,13,1,2,1,,,,,,,,,,,,,,,,,,,,,,,,,,,,,,,,,,,,,,,,,,,,,,,,,,,,,,,,,,,,,,,,,,,,,,,,,,,,,,,,,,,,,,,,,,,,,,,,,,,
,,,,,,,,,,stimuli/images/PICTURE_667.png,RIVER,5ea00c9769e0250009a479df,12/08/1943,2020-09-03_18h48.00.567,proactive2,2020.1.2,Win32,60,5f5126bb654d4b30ee6923d8,5f512c3bdb04a83278c1f2e0,5,,,,,,daisy,,,,,,0,7,7,10,1,2,1,,,,,,,,,,,,,,,,,,,,,,,,,,,,,,,,,,,,,,,,,,,,,,,,,,,,,,,,,,,,,,,,,,,,,,,,,,,,,,,,,,,,,,,,,,,,,,,,,,,
,,,,,,,,,,stimuli/images/PICTURE_469.png,AGENT,5ea00c9769e0250009a479df,12/08/1943,2020-09-03_18h48.00.567,proactive2,2020.1.2,Win32,60,5f5126bb654d4b30ee6923d8,5f512c3bdb04a83278c1f2e0,5,,,,,,stool,,,,,,0,8,8,16,1,2,1,,,,,,,,,,,,,,,,,,,,,,,,,,,,,,,,,,,,,,,,,,,,,,,,,,,,,,,,,,,,,,,,,,,,,,,,,,,,,,,,,,,,,,,,,,,,,,,,,,,
,,,,,,,,,,stimuli/images/PICTURE_57.png,MOMENT,5ea00c9769e0250009a479df,12/08/1943,2020-09-03_18h48.00.567,proactive2,2020.1.2,Win32,60,5f5126bb654d4b30ee6923d8,5f512c3bdb04a83278c1f2e0,5,,,,,,stamp,,,,,,0,9,9,37,1,4,1,,,,,,,,,,,,,,,,,,,,,,,,,,,,,,,,,,,,,,,,,,,,,,,,,,,,,,,,,,,,,,,,,,,,,,,,,,,,,,,,,,,,,,,,,,,,,,,,,,,
,,,,,,,,,,stimuli/images/PICTURE_340.png,VALLEY,5ea00c9769e0250009a479df,12/08/1943,2020-09-03_18h48.00.567,proactive2,2020.1.2,Win32,60,5f5126bb654d4b30ee6923d8,5f512c3bdb04a83278c1f2e0,5,,,,,,mirror,,,,,,0,10,10,54,1,6,1,,,,,,,,,,,,,,,,,,,,,,,,,,,,,,,,,,,,,,,,,,,,,,,,,,,,,,,,,,,,,,,,,,,,,,,,,,,,,,,,,,,,,,,,,,,,,,,,,,,
,,,,,,,,,,stimuli/images/PICTURE_383.png,WRITER,5ea00c9769e0250009a479df,12/08/1943,2020-09-03_18h48.00.567,proactive2,2020.1.2,Win32,60,5f5126bb654d4b30ee6923d8,5f512c3bdb04a83278c1f2e0,5,,,,,,coin,,,,,,0,11,11,28,1,3,1,,,,,,,,,,,,,,,,,,,,,,,,,,,,,,,,,,,,,,,,,,,,,,,,,,,,,,,,,,,,,,,,,,,,,,,,,,,,,,,,,,,,,,,,,,,,,,,,,,,
,,,,,,,,,,stimuli/images/PICTURE_487.png,GIRL,5ea00c9769e0250009a479df,12/08/1943,2020-09-03_18h48.00.567,proactive2,2020.1.2,Win32,60,5f5126bb654d4b30ee6923d8,5f512c3bdb04a83278c1f2e0,5,,,,,,basket,,,,,,0,12,12,45,1,5,1,,,,,,,,,,,,,,,,,,,,,,,,,,,,,,,,,,,,,,,,,,,,,,,,,,,,,,,,,,,,,,,,,,,,,,,,,,,,,,,,,,,,,,,,,,,,,,,,,,,
,,,,,,,,,,stimuli/images/PICTURE_32.png,PILLS,5ea00c9769e0250009a479df,12/08/1943,2020-09-03_18h48.00.567,proactive2,2020.1.2,Win32,60,5f5126bb654d4b30ee6923d8,5f512c3bdb04a83278c1f2e0,5,,,,,,crown,,,,,,0,13,13,18,1,2,1,,,,,,,,,,,,,,,,,,,,,,,,,,,,,,,,,,,,,,,,,,,,,,,,,,,,,,,,,,,,,,,,,,,,,,,,,,,,,,,,,,,,,,,,,,,,,,,,,,,
,,,,,,,,,,stimuli/images/PICTURE_33.png,FRIEND,5ea00c9769e0250009a479df,12/08/1943,2020-09-03_18h48.00.567,proactive2,2020.1.2,Win32,60,5f5126bb654d4b30ee6923d8,5f512c3bdb04a83278c1f2e0,5,,,,,,frame,,,,,,0,14,14,8,1,1,1,,,,,,,,,,,,,,,,,,,,,,,,,,,,,,,,,,,,,,,,,,,,,,,,,,,,,,,,,,,,,,,,,,,,,,,,,,,,,,,,,,,,,,,,,,,,,,,,,,,
,,,,,,,,,,stimuli/images/PICTURE_95.png,MILLER,5ea00c9769e0250009a479df,12/08/1943,2020-09-03_18h48.00.567,proactive2,2020.1.2,Win32,60,5f5126bb654d4b30ee6923d8,5f512c3bdb04a83278c1f2e0,5,,,,,,suitcase,,,,,,0,15,15,56,1,6,1,,,,,,,,,,,,,,,,,,,,,,,,,,,,,,,,,,,,,,,,,,,,,,,,,,,,,,,,,,,,,,,,,,,,,,,,,,,,,,,,,,,,,,,,,,,,,,,,,,,
,,,,,,,,,,stimuli/images/PICTURE_95.png,HONEY,5ea00c9769e0250009a479df,12/08/1943,2020-09-03_18h48.00.567,proactive2,2020.1.2,Win32,60,5f5126bb654d4b30ee6923d8,5f512c3bdb04a83278c1f2e0,5,,,,,,suitcase,,,,,,0,16,16,44,1,5,1,,,,,,,,,,,,,,,,,,,,,,,,,,,,,,,,,,,,,,,,,,,,,,,,,,,,,,,,,,,,,,,,,,,,,,,,,,,,,,,,,,,,,,,,,,,,,,,,,,,
,,,,,,,,,,stimuli/images/PICTURE_32.png,KIND,5ea00c9769e0250009a479df,12/08/1943,2020-09-03_18h48.00.567,proactive2,2020.1.2,Win32,60,5f5126bb654d4b30ee6923d8,5f512c3bdb04a83278c1f2e0,5,,,,,,crown,,,,,,0,17,17,35,1,4,1,,,,,,,,,,,,,,,,,,,,,,,,,,,,,,,,,,,,,,,,,,,,,,,,,,,,,,,,,,,,,,,,,,,,,,,,,,,,,,,,,,,,,,,,,,,,,,,,,,,
,,,,,,,,,,stimuli/images/PICTURE_675.png,SALE,5ea00c9769e0250009a479df,12/08/1943,2020-09-03_18h48.00.567,proactive2,2020.1.2,Win32,60,5f5126bb654d4b30ee6923d8,5f512c3bdb04a83278c1f2e0,5,,,,,,windmill,,,,,,0,18,18,47,1,5,1,,,,,,,,,,,,,,,,,,,,,,,,,,,,,,,,,,,,,,,,,,,,,,,,,,,,,,,,,,,,,,,,,,,,,,,,,,,,,,,,,,,,,,,,,,,,,,,,,,,
,,,,,,,,,,stimuli/images/PICTURE_750.png,HOTEL,5ea00c9769e0250009a479df,12/08/1943,2020-09-03_18h48.00.567,proactive2,2020.1.2,Win32,60,5f5126bb654d4b30ee6923d8,5f512c3bdb04a83278c1f2e0,5,,,,,,kettle,,,,,,0,19,19,27,1,3,1,,,,,,,,,,,,,,,,,,,,,,,,,,,,,,,,,,,,,,,,,,,,,,,,,,,,,,,,,,,,,,,,,,,,,,,,,,,,,,,,,,,,,,,,,,,,,,,,,,,
,,,,,,,,,,stimuli/images/PICTURE_340.png,LETTER,5ea00c9769e0250009a479df,12/08/1943,2020-09-03_18h48.00.567,proactive2,2020.1.2,Win32,60,5f5126bb654d4b30ee6923d8,5f512c3bdb04a83278c1f2e0,5,,,,,,mirror,,,,,,0,20,20,24,1,3,1,,,,,,,,,,,,,,,,,,,,,,,,,,,,,,,,,,,,,,,,,,,,,,,,,,,,,,,,,,,,,,,,,,,,,,,,,,,,,,,,,,,,,,,,,,,,,,,,,,,
,,,,,,,,,,stimuli/images/PICTURE_285.png,LIFE,5ea00c9769e0250009a479df,12/08/1943,2020-09-03_18h48.00.567,proactive2,2020.1.2,Win32,60,5f5126bb654d4b30ee6923d8,5f512c3bdb04a83278c1f2e0,5,,,,,,carrot,,,,,,0,21,21,33,1,4,1,,,,,,,,,,,,,,,,,,,,,,,,,,,,,,,,,,,,,,,,,,,,,,,,,,,,,,,,,,,,,,,,,,,,,,,,,,,,,,,,,,,,,,,,,,,,,,,,,,,
,,,,,,,,,,stimuli/images/PICTURE_383.png,SERIES,5ea00c9769e0250009a479df,12/08/1943,2020-09-03_18h48.00.567,proactive2,2020.1.2,Win32,60,5f5126bb654d4b30ee6923d8,5f512c3bdb04a83278c1f2e0,5,,,,,,coin,,,,,,0,22,22,46,1,5,1,,,,,,,,,,,,,,,,,,,,,,,,,,,,,,,,,,,,,,,,,,,,,,,,,,,,,,,,,,,,,,,,,,,,,,,,,,,,,,,,,,,,,,,,,,,,,,,,,,,
,,,,,,,,,,stimuli/images/PICTURE_2.png,FLIGHT,5ea00c9769e0250009a479df,12/08/1943,2020-09-03_18h48.00.567,proactive2,2020.1.2,Win32,60,5f5126bb654d4b30ee6923d8,5f512c3bdb04a83278c1f2e0,5,,,,,,tyre,,,,,,0,23,23,15,1,2,1,,,,,,,,,,,,,,,,,,,,,,,,,,,,,,,,,,,,,,,,,,,,,,,,,,,,,,,,,,,,,,,,,,,,,,,,,,,,,,,,,,,,,,,,,,,,,,,,,,,
,,,,,,,,,,stimuli/images/PICTURE_203.png,GODS,5ea00c9769e0250009a479df,12/08/1943,2020-09-03_18h48.00.567,proactive2,2020.1.2,Win32,60,5f5126bb654d4b30ee6923d8,5f512c3bdb04a83278c1f2e0,5,,,,,,cap,,,,,,0,24,24,30,1,4,1,,,,,,,,,,,,,,,,,,,,,,,,,,,,,,,,,,,,,,,,,,,,,,,,,,,,,,,,,,,,,,,,,,,,,,,,,,,,,,,,,,,,,,,,,,,,,,,,,,,
,,,,,,,,,,stimuli/images/PICTURE_327.png,SERIES,5ea00c9769e0250009a479df,12/08/1943,2020-09-03_18h48.00.567,proactive2,2020.1.2,Win32,60,5f5126bb654d4b30ee6923d8,5f512c3bdb04a83278c1f2e0,5,,,,,,helmet,,,,,,0,25,25,3,1,1,1,,,,,,,,,,,,,,,,,,,,,,,,,,,,,,,,,,,,,,,,,,,,,,,,,,,,,,,,,,,,,,,,,,,,,,,,,,,,,,,,,,,,,,,,,,,,,,,,,,,
,,,,,,,,,,stimuli/images/PICTURE_177.png,WRITER,5ea00c9769e0250009a479df,12/08/1943,2020-09-03_18h48.00.567,proactive2,2020.1.2,Win32,60,5f5126bb654d4b30ee6923d8,5f512c3bdb04a83278c1f2e0,5,,,,,,mushroom,,,,,,0,26,26,41,1,5,1,,,,,,,,,,,,,,,,,,,,,,,,,,,,,,,,,,,,,,,,,,,,,,,,,,,,,,,,,,,,,,,,,,,,,,,,,,,,,,,,,,,,,,,,,,,,,,,,,,,
,,,,,,,,,,stimuli/images/PICTURE_108.png,FLIGHT,5ea00c9769e0250009a479df,12/08/1943,2020-09-03_18h48.00.567,proactive2,2020.1.2,Win32,60,5f5126bb654d4b30ee6923d8,5f512c3bdb04a83278c1f2e0,5,,,,,,calendar,,,,,,0,27,27,59,1,6,1,,,,,,,,,,,,,,,,,,,,,,,,,,,,,,,,,,,,,,,,,,,,,,,,,,,,,,,,,,,,,,,,,,,,,,,,,,,,,,,,,,,,,,,,,,,,,,,,,,,
,,,,,,,,,,stimuli/images/PICTURE_147.png,YEAR,5ea00c9769e0250009a479df,12/08/1943,2020-09-03_18h48.00.567,proactive2,2020.1.2,Win32,60,5f5126bb654d4b30ee6923d8,5f512c3bdb04a83278c1f2e0,5,,,,,,hanger,,,,,,0,28,28,21,1,3,1,,,,,,,,,,,,,,,,,,,,,,,,,,,,,,,,,,,,,,,,,,,,,,,,,,,,,,,,,,,,,,,,,,,,,,,,,,,,,,,,,,,,,,,,,,,,,,,,,,,
,,,,,,,,,,stimuli/images/PICTURE_491.png,RIVER,5ea00c9769e0250009a479df,12/08/1943,2020-09-03_18h48.00.567,proactive2,2020.1.2,Win32,60,5f5126bb654d4b30ee6923d8,5f512c3bdb04a83278c1f2e0,5,,,,,,rug,,,,,,0,29,29,6,1,1,1,,,,,,,,,,,,,,,,,,,,,,,,,,,,,,,,,,,,,,,,,,,,,,,,,,,,,,,,,,,,,,,,,,,,,,,,,,,,,,,,,,,,,,,,,,,,,,,,,,,
,,,,,,,,,,stimuli/images/PICTURE_68.png,ROOF,5ea00c9769e0250009a479df,12/08/1943,2020-09-03_18h48.00.567,proactive2,2020.1.2,Win32,60,5f5126bb654d4b30ee6923d8,5f512c3bdb04a83278c1f2e0,5,,,,,,candle,,,,,,0,30,30,38,1,4,1,,,,,,,,,,,,,,,,,,,,,,,,,,,,,,,,,,,,,,,,,,,,,,,,,,,,,,,,,,,,,,,,,,,,,,,,,,,,,,,,,,,,,,,,,,,,,,,,,,,
,,,,,,,,,,stimuli/images/PICTURE_85.png,TOILET,5ea00c9769e0250009a479df,12/08/1943,2020-09-03_18h48.00.567,proactive2,2020.1.2,Win32,60,5f5126bb654d4b30ee6923d8,5f512c3bdb04a83278c1f2e0,5,,,,,,diamond,,,,,,0,31,31,48,1,5,1,,,,,,,,,,,,,,,,,,,,,,,,,,,,,,,,,,,,,,,,,,,,,,,,,,,,,,,,,,,,,,,,,,,,,,,,,,,,,,,,,,,,,,,,,,,,,,,,,,,
,,,,,,,,,,stimuli/images/PICTURE_449.png,DUDE,5ea00c9769e0250009a479df,12/08/1943,2020-09-03_18h48.00.567,proactive2,2020.1.2,Win32,60,5f5126bb654d4b30ee6923d8,5f512c3bdb04a83278c1f2e0,5,,,,,,bench,,,,,,0,32,32,17,1,2,1,,,,,,,,,,,,,,,,,,,,,,,,,,,,,,,,,,,,,,,,,,,,,,,,,,,,,,,,,,,,,,,,,,,,,,,,,,,,,,,,,,,,,,,,,,,,,,,,,,,
,,,,,,,,,,stimuli/images/PICTURE_42.png,BOYS,5ea00c9769e0250009a479df,12/08/1943,2020-09-03_18h48.00.567,proactive2,2020.1.2,Win32,60,5f5126bb654d4b30ee6923d8,5f512c3bdb04a83278c1f2e0,5,,,,,,pear,,,,,,0,33,33,55,1,6,1,,,,,,,,,,,,,,,,,,,,,,,,,,,,,,,,,,,,,,,,,,,,,,,,,,,,,,,,,,,,,,,,,,,,,,,,,,,,,,,,,,,,,,,,,,,,,,,,,,,
,,,,,,,,,,stimuli/images/PICTURE_85.png,NATION,5ea00c9769e0250009a479df,12/08/1943,2020-09-03_18h48.00.567,proactive2,2020.1.2,Win32,60,5f5126bb654d4b30ee6923d8,5f512c3bdb04a83278c1f2e0,5,,,,,,diamond,,,,,,0,34,34,5,1,1,1,,,,,,,,,,,,,,,,,,,,,,,,,,,,,,,,,,,,,,,,,,,,,,,,,,,,,,,,,,,,,,,,,,,,,,,,,,,,,,,,,,,,,,,,,,,,,,,,,,,
,,,,,,,,,,stimuli/images/PICTURE_380.png,CANDY,5ea00c9769e0250009a479df,12/08/1943,2020-09-03_18h48.00.567,proactive2,2020.1.2,Win32,60,5f5126bb654d4b30ee6923d8,5f512c3bdb04a83278c1f2e0,5,,,,,,gorilla,,,,,,0,35,35,0,1,1,1,,,,,,,,,,,,,,,,,,,,,,,,,,,,,,,,,,,,,,,,,,,,,,,,,,,,,,,,,,,,,,,,,,,,,,,,,,,,,,,,,,,,,,,,,,,,,,,,,,,
,,,,,,,,,,stimuli/images/PICTURE_504.png,COPS,5ea00c9769e0250009a479df,12/08/1943,2020-09-03_18h48.00.567,proactive2,2020.1.2,Win32,60,5f5126bb654d4b30ee6923d8,5f512c3bdb04a83278c1f2e0,5,,,,,,wheel,,,,,,0,36,36,52,1,6,1,,,,,,,,,,,,,,,,,,,,,,,,,,,,,,,,,,,,,,,,,,,,,,,,,,,,,,,,,,,,,,,,,,,,,,,,,,,,,,,,,,,,,,,,,,,,,,,,,,,
,,,,,,,,,,stimuli/images/PICTURE_327.png,CASINO,5ea00c9769e0250009a479df,12/08/1943,2020-09-03_18h48.00.567,proactive2,2020.1.2,Win32,60,5f5126bb654d4b30ee6923d8,5f512c3bdb04a83278c1f2e0,5,,,,,,helmet,,,,,,0,37,37,20,1,3,1,,,,,,,,,,,,,,,,,,,,,,,,,,,,,,,,,,,,,,,,,,,,,,,,,,,,,,,,,,,,,,,,,,,,,,,,,,,,,,,,,,,,,,,,,,,,,,,,,,,
,,,,,,,,,,stimuli/images/PICTURE_108.png,POLICY,5ea00c9769e0250009a479df,12/08/1943,2020-09-03_18h48.00.567,proactive2,2020.1.2,Win32,60,5f5126bb654d4b30ee6923d8,5f512c3bdb04a83278c1f2e0,5,,,,,,calendar,,,,,,0,38,38,22,1,3,1,,,,,,,,,,,,,,,,,,,,,,,,,,,,,,,,,,,,,,,,,,,,,,,,,,,,,,,,,,,,,,,,,,,,,,,,,,,,,,,,,,,,,,,,,,,,,,,,,,,
,,,,,,,,,,stimuli/images/PICTURE_677.png,APPLE,5ea00c9769e0250009a479df,12/08/1943,2020-09-03_18h48.00.567,proactive2,2020.1.2,Win32,60,5f5126bb654d4b30ee6923d8,5f512c3bdb04a83278c1f2e0,5,,,,,,map,,,,,,0,39,39,43,1,5,1,,,,,,,,,,,,,,,,,,,,,,,,,,,,,,,,,,,,,,,,,,,,,,,,,,,,,,,,,,,,,,,,,,,,,,,,,,,,,,,,,,,,,,,,,,,,,,,,,,,
,,,,,,,,,,stimuli/images/PICTURE_708.png,RECORD,5ea00c9769e0250009a479df,12/08/1943,2020-09-03_18h48.00.567,proactive2,2020.1.2,Win32,60,5f5126bb654d4b30ee6923d8,5f512c3bdb04a83278c1f2e0,5,,,,,,monkey,,,,,,0,40,40,58,1,6,1,,,,,,,,,,,,,,,,,,,,,,,,,,,,,,,,,,,,,,,,,,,,,,,,,,,,,,,,,,,,,,,,,,,,,,,,,,,,,,,,,,,,,,,,,,,,,,,,,,,
,,,,,,,,,,stimuli/images/PICTURE_296.png,LOTS,5ea00c9769e0250009a479df,12/08/1943,2020-09-03_18h48.00.567,proactive2,2020.1.2,Win32,60,5f5126bb654d4b30ee6923d8,5f512c3bdb04a83278c1f2e0,5,,,,,,bolt,,,,,,0,41,41,9,1,1,1,,,,,,,,,,,,,,,,,,,,,,,,,,,,,,,,,,,,,,,,,,,,,,,,,,,,,,,,,,,,,,,,,,,,,,,,,,,,,,,,,,,,,,,,,,,,,,,,,,,
,,,,,,,,,,stimuli/images/PICTURE_564.png,BATH,5ea00c9769e0250009a479df,12/08/1943,2020-09-03_18h48.00.567,proactive2,2020.1.2,Win32,60,5f5126bb654d4b30ee6923d8,5f512c3bdb04a83278c1f2e0,5,,,,,,spoon,,,,,,0,42,42,26,1,3,1,,,,,,,,,,,,,,,,,,,,,,,,,,,,,,,,,,,,,,,,,,,,,,,,,,,,,,,,,,,,,,,,,,,,,,,,,,,,,,,,,,,,,,,,,,,,,,,,,,,
,,,,,,,,,,stimuli/images/PICTURE_339.png,CLIENT,5ea00c9769e0250009a479df,12/08/1943,2020-09-03_18h48.00.567,proactive2,2020.1.2,Win32,60,5f5126bb654d4b30ee6923d8,5f512c3bdb04a83278c1f2e0,5,,,,,,backpack,,,,,,0,43,43,11,1,2,1,,,,,,,,,,,,,,,,,,,,,,,,,,,,,,,,,,,,,,,,,,,,,,,,,,,,,,,,,,,,,,,,,,,,,,,,,,,,,,,,,,,,,,,,,,,,,,,,,,,
,,,,,,,,,,stimuli/images/PICTURE_380.png,HONEY,5ea00c9769e0250009a479df,12/08/1943,2020-09-03_18h48.00.567,proactive2,2020.1.2,Win32,60,5f5126bb654d4b30ee6923d8,5f512c3bdb04a83278c1f2e0,5,,,,,,gorilla,,,,,,0,44,44,19,1,2,1,,,,,,,,,,,,,,,,,,,,,,,,,,,,,,,,,,,,,,,,,,,,,,,,,,,,,,,,,,,,,,,,,,,,,,,,,,,,,,,,,,,,,,,,,,,,,,,,,,,
,,,,,,,,,,stimuli/images/PICTURE_744.png,WEAPON,5ea00c9769e0250009a479df,12/08/1943,2020-09-03_18h48.00.567,proactive2,2020.1.2,Win32,60,5f5126bb654d4b30ee6923d8,5f512c3bdb04a83278c1f2e0,5,,,,,,ring,,,,,,0,45,45,50,1,6,1,,,,,,,,,,,,,,,,,,,,,,,,,,,,,,,,,,,,,,,,,,,,,,,,,,,,,,,,,,,,,,,,,,,,,,,,,,,,,,,,,,,,,,,,,,,,,,,,,,,
,,,,,,,,,,stimuli/images/PICTURE_297.png,RIVER,5ea00c9769e0250009a479df,12/08/1943,2020-09-03_18h48.00.567,proactive2,2020.1.2,Win32,60,5f5126bb654d4b30ee6923d8,5f512c3bdb04a83278c1f2e0,5,,,,,,aeroplane,,,,,,0,46,46,39,1,4,1,,,,,,,,,,,,,,,,,,,,,,,,,,,,,,,,,,,,,,,,,,,,,,,,,,,,,,,,,,,,,,,,,,,,,,,,,,,,,,,,,,,,,,,,,,,,,,,,,,,
,,,,,,,,,,stimuli/images/PICTURE_403.png,RIVER,5ea00c9769e0250009a479df,12/08/1943,2020-09-03_18h48.00.567,proactive2,2020.1.2,Win32,60,5f5126bb654d4b30ee6923d8,5f512c3bdb04a83278c1f2e0,5,,,,,,cathedral,,,,,,0,47,47,40,1,5,1,,,,,,,,,,,,,,,,,,,,,,,,,,,,,,,,,,,,,,,,,,,,,,,,,,,,,,,,,,,,,,,,,,,,,,,,,,,,,,,,,,,,,,,,,,,,,,,,,,,
,,,,,,,,,,stimuli/images/PICTURE_654.png,MONTH,5ea00c9769e0250009a479df,12/08/1943,2020-09-03_18h48.00.567,proactive2,2020.1.2,Win32,60,5f5126bb654d4b30ee6923d8,5f512c3bdb04a83278c1f2e0,5,,,,,,pencil,,,,,,0,48,48,29,1,3,1,,,,,,,,,,,,,,,,,,,,,,,,,,,,,,,,,,,,,,,,,,,,,,,,,,,,,,,,,,,,,,,,,,,,,,,,,,,,,,,,,,,,,,,,,,,,,,,,,,,
,,,,,,,,,,stimuli/images/PICTURE_405.png,PLENTY,5ea00c9769e0250009a479df,12/08/1943,2020-09-03_18h48.00.567,proactive2,2020.1.2,Win32,60,5f5126bb654d4b30ee6923d8,5f512c3bdb04a83278c1f2e0,5,,,,,,anchor,,,,,,0,49,49,23,1,3,1,,,,,,,,,,,,,,,,,,,,,,,,,,,,,,,,,,,,,,,,,,,,,,,,,,,,,,,,,,,,,,,,,,,,,,,,,,,,,,,,,,,,,,,,,,,,,,,,,,,
,,,,,,,,,,stimuli/images/PICTURE_403.png,TOILET,5ea00c9769e0250009a479df,12/08/1943,2020-09-03_18h48.00.567,proactive2,2020.1.2,Win32,60,5f5126bb654d4b30ee6923d8,5f512c3bdb04a83278c1f2e0,5,,,,,,cathedral,,,,,,0,50,50,25,1,3,1,,,,,,,,,,,,,,,,,,,,,,,,,,,,,,,,,,,,,,,,,,,,,,,,,,,,,,,,,,,,,,,,,,,,,,,,,,,,,,,,,,,,,,,,,,,,,,,,,,,
,,,,,,,,,,stimuli/images/PICTURE_467.png,POLICY,5ea00c9769e0250009a479df,12/08/1943,2020-09-03_18h48.00.567,proactive2,2020.1.2,Win32,60,5f5126bb654d4b30ee6923d8,5f512c3bdb04a83278c1f2e0,5,,,,,,peg,,,,,,0,51,51,53,1,6,1,,,,,,,,,,,,,,,,,,,,,,,,,,,,,,,,,,,,,,,,,,,,,,,,,,,,,,,,,,,,,,,,,,,,,,,,,,,,,,,,,,,,,,,,,,,,,,,,,,,
,,,,,,,,,,stimuli/images/PICTURE_685.png,PENNY,5ea00c9769e0250009a479df,12/08/1943,2020-09-03_18h48.00.567,proactive2,2020.1.2,Win32,60,5f5126bb654d4b30ee6923d8,5f512c3bdb04a83278c1f2e0,5,,,,,,goose,,,,,,0,52,52,4,1,1,1,,,,,,,,,,,,,,,,,,,,,,,,,,,,,,,,,,,,,,,,,,,,,,,,,,,,,,,,,,,,,,,,,,,,,,,,,,,,,,,,,,,,,,,,,,,,,,,,,,,
,,,,,,,,,,stimuli/images/PICTURE_208.png,SYSTEM,5ea00c9769e0250009a479df,12/08/1943,2020-09-03_18h48.00.567,proactive2,2020.1.2,Win32,60,5f5126bb654d4b30ee6923d8,5f512c3bdb04a83278c1f2e0,5,,,,,,microphone,,,,,,0,53,53,32,1,4,1,,,,,,,,,,,,,,,,,,,,,,,,,,,,,,,,,,,,,,,,,,,,,,,,,,,,,,,,,,,,,,,,,,,,,,,,,,,,,,,,,,,,,,,,,,,,,,,,,,,
,,,,,,,,,,stimuli/images/PICTURE_233.png,LOTS,5ea00c9769e0250009a479df,12/08/1943,2020-09-03_18h48.00.567,proactive2,2020.1.2,Win32,60,5f5126bb654d4b30ee6923d8,5f512c3bdb04a83278c1f2e0,5,,,,,,salt,,,,,,0,54,54,42,1,5,1,,,,,,,,,,,,,,,,,,,,,,,,,,,,,,,,,,,,,,,,,,,,,,,,,,,,,,,,,,,,,,,,,,,,,,,,,,,,,,,,,,,,,,,,,,,,,,,,,,,
,,,,,,,,,,stimuli/images/PICTURE_203.png,NIGHT,5ea00c9769e0250009a479df,12/08/1943,2020-09-03_18h48.00.567,proactive2,2020.1.2,Win32,60,5f5126bb654d4b30ee6923d8,5f512c3bdb04a83278c1f2e0,5,,,,,,cap,,,,,,0,55,55,2,1,1,1,,,,,,,,,,,,,,,,,,,,,,,,,,,,,,,,,,,,,,,,,,,,,,,,,,,,,,,,,,,,,,,,,,,,,,,,,,,,,,,,,,,,,,,,,,,,,,,,,,,
,,,,,,,,,,stimuli/images/PICTURE_405.png,YEAR,5ea00c9769e0250009a479df,12/08/1943,2020-09-03_18h48.00.567,proactive2,2020.1.2,Win32,60,5f5126bb654d4b30ee6923d8,5f512c3bdb04a83278c1f2e0,5,,,,,,anchor,,,,,,0,56,56,34,1,4,1,,,,,,,,,,,,,,,,,,,,,,,,,,,,,,,,,,,,,,,,,,,,,,,,,,,,,,,,,,,,,,,,,,,,,,,,,,,,,,,,,,,,,,,,,,,,,,,,,,,
,,,,,,,,,,stimuli/images/PICTURE_403.png,WRITER,5ea00c9769e0250009a479df,12/08/1943,2020-09-03_18h48.00.567,proactive2,2020.1.2,Win32,60,5f5126bb654d4b30ee6923d8,5f512c3bdb04a83278c1f2e0,5,,,,,,cathedral,,,,,,0,57,57,31,1,4,1,,,,,,,,,,,,,,,,,,,,,,,,,,,,,,,,,,,,,,,,,,,,,,,,,,,,,,,,,,,,,,,,,,,,,,,,,,,,,,,,,,,,,,,,,,,,,,,,,,,
,,,,,,,,,,stimuli/images/PICTURE_68.png,MILE,5ea00c9769e0250009a479df,12/08/1943,2020-09-03_18h48.00.567,proactive2,2020.1.2,Win32,60,5f5126bb654d4b30ee6923d8,5f512c3bdb04a83278c1f2e0,5,,,,,,candle,,,,,,0,58,58,51,1,6,1,,,,,,,,,,,,,,,,,,,,,,,,,,,,,,,,,,,,,,,,,,,,,,,,,,,,,,,,,,,,,,,,,,,,,,,,,,,,,,,,,,,,,,,,,,,,,,,,,,,
,,?,0.001345,0,,,,,,stimuli/images/PICTURE_95.png,MILLER,5ea00c9769e0250009a479df,12/08/1943,2020-09-03_18h48.00.567,proactive2,2020.1.2,Win32,60,5f5126bb654d4b30ee6923d8,5f512c3bdb04a83278c1f2e0,5,,,,,,suitcase,,,,,,,,,,,6,1,0,0,0,56,1,,,,,,,,,,,,,,,,,,,,,,,,,,,,,,,,,,,,,,,,,,,,,,,,,,,,,,,,,,,,,,,,,,,,,,,,,,,,,,,,,,,,,,,,,,,,,,
,,?,0.000905,0,,,,,,stimuli/images/PICTURE_403.png,TOILET,5ea00c9769e0250009a479df,12/08/1943,2020-09-03_18h48.00.567,proactive2,2020.1.2,Win32,60,5f5126bb654d4b30ee6923d8,5f512c3bdb04a83278c1f2e0,5,,,,,,cathedral,,,,,,,,,,,3,1,0,1,1,25,1,,,,,,,,,,,,,,,,,,,,,,,,,,,,,,,,,,,,,,,,,,,,,,,,,,,,,,,,,,,,,,,,,,,,,,,,,,,,,,,,,,,,,,,,,,,,,,
,,?,0.000675,0,,,,,,stimuli/images/PICTURE_68.png,MILE,5ea00c9769e0250009a479df,12/08/1943,2020-09-03_18h48.00.567,proactive2,2020.1.2,Win32,60,5f5126bb654d4b30ee6923d8,5f512c3bdb04a83278c1f2e0,5,,,,,,candle,,,,,,,,,,,6,1,0,2,2,51,1,,,,,,,,,,,,,,,,,,,,,,,,,,,,,,,,,,,,,,,,,,,,,,,,,,,,,,,,,,,,,,,,,,,,,,,,,,,,,,,,,,,,,,,,,,,,,,
,,?,0.00067,0,,,,,,stimuli/images/PICTURE_33.png,FRIEND,5ea00c9769e0250009a479df,12/08/1943,2020-09-03_18h48.00.567,proactive2,2020.1.2,Win32,60,5f5126bb654d4b30ee6923d8,5f512c3bdb04a83278c1f2e0,5,,,,,,frame,,,,,,,,,,,1,1,0,3,3,8,1,,,,,,,,,,,,,,,,,,,,,,,,,,,,,,,,,,,,,,,,,,,,,,,,,,,,,,,,,,,,,,,,,,,,,,,,,,,,,,,,,,,,,,,,,,,,,,
,,?,0.000645,0,,,,,,stimuli/images/PICTURE_297.png,RIVER,5ea00c9769e0250009a479df,12/08/1943,2020-09-03_18h48.00.567,proactive2,2020.1.2,Win32,60,5f5126bb654d4b30ee6923d8,5f512c3bdb04a83278c1f2e0,5,,,,,,aeroplane,,,,,,,,,,,4,1,0,4,4,39,1,,,,,,,,,,,,,,,,,,,,,,,,,,,,,,,,,,,,,,,,,,,,,,,,,,,,,,,,,,,,,,,,,,,,,,,,,,,,,,,,,,,,,,,,,,,,,,
,,?,0.00061,0,,,,,,stimuli/images/PICTURE_327.png,CASINO,5ea00c9769e0250009a479df,12/08/1943,2020-09-03_18h48.00.567,proactive2,2020.1.2,Win32,60,5f5126bb654d4b30ee6923d8,5f512c3bdb04a83278c1f2e0,5,,,,,,helmet,,,,,,,,,,,3,1,0,5,5,20,1,,,,,,,,,,,,,,,,,,,,,,,,,,,,,,,,,,,,,,,,,,,,,,,,,,,,,,,,,,,,,,,,,,,,,,,,,,,,,,,,,,,,,,,,,,,,,,
,,?,0.00061,0,,,,,,stimuli/images/PICTURE_340.png,VALLEY,5ea00c9769e0250009a479df,12/08/1943,2020-09-03_18h48.00.567,proactive2,2020.1.2,Win32,60,5f5126bb654d4b30ee6923d8,5f512c3bdb04a83278c1f2e0,5,,,,,,mirror,,,,,,,,,,,6,1,0,6,6,54,1,,,,,,,,,,,,,,,,,,,,,,,,,,,,,,,,,,,,,,,,,,,,,,,,,,,,,,,,,,,,,,,,,,,,,,,,,,,,,,,,,,,,,,,,,,,,,,
,,?,0.000755,0,,,,,,stimuli/images/PICTURE_32.png,KIND,5ea00c9769e0250009a479df,12/08/1943,2020-09-03_18h48.00.567,proactive2,2020.1.2,Win32,60,5f5126bb654d4b30ee6923d8,5f512c3bdb04a83278c1f2e0,5,,,,,,crown,,,,,,,,,,,4,1,0,7,7,35,1,,,,,,,,,,,,,,,,,,,,,,,,,,,,,,,,,,,,,,,,,,,,,,,,,,,,,,,,,,,,,,,,,,,,,,,,,,,,,,,,,,,,,,,,,,,,,,
,,?,0.00074,0,,,,,,stimuli/images/PICTURE_108.png,POLICY,5ea00c9769e0250009a479df,12/08/1943,2020-09-03_18h48.00.567,proactive2,2020.1.2,Win32,60,5f5126bb654d4b30ee6923d8,5f512c3bdb04a83278c1f2e0,5,,,,,,calendar,,,,,,,,,,,3,1,0,8,8,22,1,,,,,,,,,,,,,,,,,,,,,,,,,,,,,,,,,,,,,,,,,,,,,,,,,,,,,,,,,,,,,,,,,,,,,,,,,,,,,,,,,,,,,,,,,,,,,,
,,?,0.00052,0,,,,,,stimuli/images/PICTURE_564.png,BATH,5ea00c9769e0250009a479df,12/08/1943,2020-09-03_18h48.00.567,proactive2,2020.1.2,Win32,60,5f5126bb654d4b30ee6923d8,5f512c3bdb04a83278c1f2e0,5,,,,,,spoon,,,,,,,,,,,3,1,0,9,9,26,1,,,,,,,,,,,,,,,,,,,,,,,,,,,,,,,,,,,,,,,,,,,,,,,,,,,,,,,,,,,,,,,,,,,,,,,,,,,,,,,,,,,,,,,,,,,,,,
,,?,0.00047,0,,,,,,stimuli/images/PICTURE_327.png,SERIES,5ea00c9769e0250009a479df,12/08/1943,2020-09-03_18h48.00.567,proactive2,2020.1.2,Win32,60,5f5126bb654d4b30ee6923d8,5f512c3bdb04a83278c1f2e0,5,,,,,,helmet,,,,,,,,,,,1,1,0,10,10,3,1,,,,,,,,,,,,,,,,,,,,,,,,,,,,,,,,,,,,,,,,,,,,,,,,,,,,,,,,,,,,,,,,,,,,,,,,,,,,,,,,,,,,,,,,,,,,,,
,,?,0.00052,0,,,,,,stimuli/images/PICTURE_340.png,LETTER,5ea00c9769e0250009a479df,12/08/1943,2020-09-03_18h48.00.567,proactive2,2020.1.2,Win32,60,5f5126bb654d4b30ee6923d8,5f512c3bdb04a83278c1f2e0,5,,,,,,mirror,,,,,,,,,,,3,1,0,11,11,24,1,,,,,,,,,,,,,,,,,,,,,,,,,,,,,,,,,,,,,,,,,,,,,,,,,,,,,,,,,,,,,,,,,,,,,,,,,,,,,,,,,,,,,,,,,,,,,,
,,?,0.000455,0,,,,,,stimuli/images/PICTURE_42.png,BOYS,5ea00c9769e0250009a479df,12/08/1943,2020-09-03_18h48.00.567,proactive2,2020.1.2,Win32,60,5f5126bb654d4b30ee6923d8,5f512c3bdb04a83278c1f2e0,5,,,,,,pear,,,,,,,,,,,6,1,0,12,12,55,1,,,,,,,,,,,,,,,,,,,,,,,,,,,,,,,,,,,,,,,,,,,,,,,,,,,,,,,,,,,,,,,,,,,,,,,,,,,,,,,,,,,,,,,,,,,,,,
,,?,0.00048,0,,,,,,stimuli/images/PICTURE_469.png,AGENT,5ea00c9769e0250009a479df,12/08/1943,2020-09-03_18h48.00.567,proactive2,2020.1.2,Win32,60,5f5126bb654d4b30ee6923d8,5f512c3bdb04a83278c1f2e0,5,,,,,,stool,,,,,,,,,,,2,1,0,13,13,16,1,,,,,,,,,,,,,,,,,,,,,,,,,,,,,,,,,,,,,,,,,,,,,,,,,,,,,,,,,,,,,,,,,,,,,,,,,,,,,,,,,,,,,,,,,,,,,,
,,?,0.000445,0,,,,,,stimuli/images/PICTURE_667.png,RIVER,5ea00c9769e0250009a479df,12/08/1943,2020-09-03_18h48.00.567,proactive2,2020.1.2,Win32,60,5f5126bb654d4b30ee6923d8,5f512c3bdb04a83278c1f2e0,5,,,,,,daisy,,,,,,,,,,,2,1,0,14,14,10,1,,,,,,,,,,,,,,,,,,,,,,,,,,,,,,,,,,,,,,,,,,,,,,,,,,,,,,,,,,,,,,,,,,,,,,,,,,,,,,,,,,,,,,,,,,,,,,
,,?,0.000665,0,,,,,,stimuli/images/PICTURE_203.png,GODS,5ea00c9769e0250009a479df,12/08/1943,2020-09-03_18h48.00.567,proactive2,2020.1.2,Win32,60,5f5126bb654d4b30ee6923d8,5f512c3bdb04a83278c1f2e0,5,,,,,,cap,,,,,,,,,,,4,1,0,15,15,30,1,,,,,,,,,,,,,,,,,,,,,,,,,,,,,,,,,,,,,,,,,,,,,,,,,,,,,,,,,,,,,,,,,,,,,,,,,,,,,,,,,,,,,,,,,,,,,,
,,?,0.000525,0,,,,,,stimuli/images/PICTURE_380.png,HONEY,5ea00c9769e0250009a479df,12/08/1943,2020-09-03_18h48.00.567,proactive2,2020.1.2,Win32,60,5f5126bb654d4b30ee6923d8,5f512c3bdb04a83278c1f2e0,5,,,,,,gorilla,,,,,,,,,,,2,1,0,16,16,19,1,,,,,,,,,,,,,,,,,,,,,,,,,,,,,,,,,,,,,,,,,,,,,,,,,,,,,,,,,,,,,,,,,,,,,,,,,,,,,,,,,,,,,,,,,,,,,,
,,RIVER,6.233515,1,,,,,,stimuli/images/PICTURE_403.png,RIVER,5ea00c9769e0250009a479df,12/08/1943,2020-09-03_18h48.00.567,proactive2,2020.1.2,Win32,60,5f5126bb654d4b30ee6923d8,5f512c3bdb04a83278c1f2e0,5,,,,,,cathedral,,,,,,,,,,,5,1,0,17,17,40,1,,,,,,,,,,,,,,,,,,,,,,,,,,,,,,,,,,,,,,,,,,,,,,,,,,,,,,,,,,,,,,,,,,,,,,,,,,,,,,,,,,,,,,,,,,,,,,
,,?,0.00219,0,,,,,,stimuli/images/PICTURE_380.png,CANDY,5ea00c9769e0250009a479df,12/08/1943,2020-09-03_18h48.00.567,proactive2,2020.1.2,Win32,60,5f5126bb654d4b30ee6923d8,5f512c3bdb04a83278c1f2e0,5,,,,,,gorilla,,,,,,,,,,,1,1,0,18,18,0,1,,,,,,,,,,,,,,,,,,,,,,,,,,,,,,,,,,,,,,,,,,,,,,,,,,,,,,,,,,,,,,,,,,,,,,,,,,,,,,,,,,,,,,,,,,,,,,
,,?,0.002585,0,,,,,,stimuli/images/PICTURE_95.png,BOYS,5ea00c9769e0250009a479df,12/08/1943,2020-09-03_18h48.00.567,proactive2,2020.1.2,Win32,60,5f5126bb654d4b30ee6923d8,5f512c3bdb04a83278c1f2e0,5,,,,,,suitcase,,,,,,,,,,,1,1,0,19,19,1,1,,,,,,,,,,,,,,,,,,,,,,,,,,,,,,,,,,,,,,,,,,,,,,,,,,,,,,,,,,,,,,,,,,,,,,,,,,,,,,,,,,,,,,,,,,,,,,
,,?,0.002005,0,,,,,,stimuli/images/PICTURE_296.png,LIFE,5ea00c9769e0250009a479df,12/08/1943,2020-09-03_18h48.00.567,proactive2,2020.1.2,Win32,60,5f5126bb654d4b30ee6923d8,5f512c3bdb04a83278c1f2e0,5,,,,,,bolt,,,,,,,,,,,6,1,0,20,20,57,1,,,,,,,,,,,,,,,,,,,,,,,,,,,,,,,,,,,,,,,,,,,,,,,,,,,,,,,,,,,,,,,,,,,,,,,,,,,,,,,,,,,,,,,,,,,,,,
,,ARTIST,14.38047,1,,,,,,stimuli/images/PICTURE_504.png,ARTIST,5ea00c9769e0250009a479df,12/08/1943,2020-09-03_18h48.00.567,proactive2,2020.1.2,Win32,60,5f5126bb654d4b30ee6923d8,5f512c3bdb04a83278c1f2e0,5,,,,,,wheel,,,,,,,,,,,5,1,0,21,21,49,1,,,,,,,,,,,,,,,,,,,,,,,,,,,,,,,,,,,,,,,,,,,,,,,,,,,,,,,,,,,,,,,,,,,,,,,,,,,,,,,,,,,,,,,,,,,,,,
,,WRITER,8.09699,1,,,,,,stimuli/images/PICTURE_177.png,WRITER,5ea00c9769e0250009a479df,12/08/1943,2020-09-03_18h48.00.567,proactive2,2020.1.2,Win32,60,5f5126bb654d4b30ee6923d8,5f512c3bdb04a83278c1f2e0,5,,,,,,mushroom,,,,,,,,,,,5,1,0,22,22,41,1,,,,,,,,,,,,,,,,,,,,,,,,,,,,,,,,,,,,,,,,,,,,,,,,,,,,,,,,,,,,,,,,,,,,,,,,,,,,,,,,,,,,,,,,,,,,,,
,,?,0.002225,0,,,,,,stimuli/images/PICTURE_654.png,MONTH,5ea00c9769e0250009a479df,12/08/1943,2020-09-03_18h48.00.567,proactive2,2020.1.2,Win32,60,5f5126bb654d4b30ee6923d8,5f512c3bdb04a83278c1f2e0,5,,,,,,pencil,,,,,,,,,,,3,1,0,23,23,29,1,,,,,,,,,,,,,,,,,,,,,,,,,,,,,,,,,,,,,,,,,,,,,,,,,,,,,,,,,,,,,,,,,,,,,,,,,,,,,,,,,,,,,,,,,,,,,,
,,?,0.002815,0,,,,,,stimuli/images/PICTURE_491.png,RIVER,5ea00c9769e0250009a479df,12/08/1943,2020-09-03_18h48.00.567,proactive2,2020.1.2,Win32,60,5f5126bb654d4b30ee6923d8,5f512c3bdb04a83278c1f2e0,5,,,,,,rug,,,,,,,,,,,1,1,0,24,24,6,1,,,,,,,,,,,,,,,,,,,,,,,,,,,,,,,,,,,,,,,,,,,,,,,,,,,,,,,,,,,,,,,,,,,,,,,,,,,,,,,,,,,,,,,,,,,,,,
,,?,0.00279,0,,,,,,stimuli/images/PICTURE_285.png,LIFE,5ea00c9769e0250009a479df,12/08/1943,2020-09-03_18h48.00.567,proactive2,2020.1.2,Win32,60,5f5126bb654d4b30ee6923d8,5f512c3bdb04a83278c1f2e0,5,,,,,,carrot,,,,,,,,,,,4,1,0,25,25,33,1,,,,,,,,,,,,,,,,,,,,,,,,,,,,,,,,,,,,,,,,,,,,,,,,,,,,,,,,,,,,,,,,,,,,,,,,,,,,,,,,,,,,,,,,,,,,,,
,,?,0.00234,0,,,,,,stimuli/images/PICTURE_2.png,FLIGHT,5ea00c9769e0250009a479df,12/08/1943,2020-09-03_18h48.00.567,proactive2,2020.1.2,Win32,60,5f5126bb654d4b30ee6923d8,5f512c3bdb04a83278c1f2e0,5,,,,,,tyre,,,,,,,,,,,2,1,0,26,26,15,1,,,,,,,,,,,,,,,,,,,,,,,,,,,,,,,,,,,,,,,,,,,,,,,,,,,,,,,,,,,,,,,,,,,,,,,,,,,,,,,,,,,,,,,,,,,,,,
,,?,0.0014,0,,,,,,stimuli/images/PICTURE_504.png,YEAR,5ea00c9769e0250009a479df,12/08/1943,2020-09-03_18h48.00.567,proactive2,2020.1.2,Win32,60,5f5126bb654d4b30ee6923d8,5f512c3bdb04a83278c1f2e0,5,,,,,,wheel,,,,,,,,,,,2,1,0,27,27,13,1,,,,,,,,,,,,,,,,,,,,,,,,,,,,,,,,,,,,,,,,,,,,,,,,,,,,,,,,,,,,,,,,,,,,,,,,,,,,,,,,,,,,,,,,,,,,,,
,,?,0.001405,0,,,,,,stimuli/images/PICTURE_491.png,GLASS,5ea00c9769e0250009a479df,12/08/1943,2020-09-03_18h48.00.567,proactive2,2020.1.2,Win32,60,5f5126bb654d4b30ee6923d8,5f512c3bdb04a83278c1f2e0,5,,,,,,rug,,,,,,,,,,,2,1,0,28,28,14,1,,,,,,,,,,,,,,,,,,,,,,,,,,,,,,,,,,,,,,,,,,,,,,,,,,,,,,,,,,,,,,,,,,,,,,,,,,,,,,,,,,,,,,,,,,,,,,
,,?,0.00083,0,,,,,,stimuli/images/PICTURE_208.png,SYSTEM,5ea00c9769e0250009a479df,12/08/1943,2020-09-03_18h48.00.567,proactive2,2020.1.2,Win32,60,5f5126bb654d4b30ee6923d8,5f512c3bdb04a83278c1f2e0,5,,,,,,microphone,,,,,,,,,,,4,1,0,29,29,32,1,,,,,,,,,,,,,,,,,,,,,,,,,,,,,,,,,,,,,,,,,,,,,,,,,,,,,,,,,,,,,,,,,,,,,,,,,,,,,,,,,,,,,,,,,,,,,,
,,?,0.0009,0,,,,,,stimuli/images/PICTURE_403.png,WRITER,5ea00c9769e0250009a479df,12/08/1943,2020-09-03_18h48.00.567,proactive2,2020.1.2,Win32,60,5f5126bb654d4b30ee6923d8,5f512c3bdb04a83278c1f2e0,5,,,,,,cathedral,,,,,,,,,,,4,1,0,30,30,31,1,,,,,,,,,,,,,,,,,,,,,,,,,,,,,,,,,,,,,,,,,,,,,,,,,,,,,,,,,,,,,,,,,,,,,,,,,,,,,,,,,,,,,,,,,,,,,,
,,?,0.000795,0,,,,,,stimuli/images/PICTURE_405.png,YEAR,5ea00c9769e0250009a479df,12/08/1943,2020-09-03_18h48.00.567,proactive2,2020.1.2,Win32,60,5f5126bb654d4b30ee6923d8,5f512c3bdb04a83278c1f2e0,5,,,,,,anchor,,,,,,,,,,,4,1,0,31,31,34,1,,,,,,,,,,,,,,,,,,,,,,,,,,,,,,,,,,,,,,,,,,,,,,,,,,,,,,,,,,,,,,,,,,,,,,,,,,,,,,,,,,,,,,,,,,,,,,
,,?,0.00072,0,,,,,,stimuli/images/PICTURE_57.png,MOMENT,5ea00c9769e0250009a479df,12/08/1943,2020-09-03_18h48.00.567,proactive2,2020.1.2,Win32,60,5f5126bb654d4b30ee6923d8,5f512c3bdb04a83278c1f2e0,5,,,,,,stamp,,,,,,,,,,,4,1,0,32,32,37,1,,,,,,,,,,,,,,,,,,,,,,,,,,,,,,,,,,,,,,,,,,,,,,,,,,,,,,,,,,,,,,,,,,,,,,,,,,,,,,,,,,,,,,,,,,,,,,
,,?,0.000675,0,,,,,,stimuli/images/PICTURE_108.png,FLIGHT,5ea00c9769e0250009a479df,12/08/1943,2020-09-03_18h48.00.567,proactive2,2020.1.2,Win32,60,5f5126bb654d4b30ee6923d8,5f512c3bdb04a83278c1f2e0,5,,,,,,calendar,,,,,,,,,,,6,1,0,33,33,59,1,,,,,,,,,,,,,,,,,,,,,,,,,,,,,,,,,,,,,,,,,,,,,,,,,,,,,,,,,,,,,,,,,,,,,,,,,,,,,,,,,,,,,,,,,,,,,,
,,?,0.000935,0,,,,,,stimuli/images/PICTURE_467.png,POLICY,5ea00c9769e0250009a479df,12/08/1943,2020-09-03_18h48.00.567,proactive2,2020.1.2,Win32,60,5f5126bb654d4b30ee6923d8,5f512c3bdb04a83278c1f2e0,5,,,,,,peg,,,,,,,,,,,6,1,0,34,34,53,1,,,,,,,,,,,,,,,,,,,,,,,,,,,,,,,,,,,,,,,,,,,,,,,,,,,,,,,,,,,,,,,,,,,,,,,,,,,,,,,,,,,,,,,,,,,,,,
,,?,0.000585,0,,,,,,stimuli/images/PICTURE_449.png,DUDE,5ea00c9769e0250009a479df,12/08/1943,2020-09-03_18h48.00.567,proactive2,2020.1.2,Win32,60,5f5126bb654d4b30ee6923d8,5f512c3bdb04a83278c1f2e0,5,,,,,,bench,,,,,,,,,,,2,1,0,35,35,17,1,,,,,,,,,,,,,,,,,,,,,,,,,,,,,,,,,,,,,,,,,,,,,,,,,,,,,,,,,,,,,,,,,,,,,,,,,,,,,,,,,,,,,,,,,,,,,,
,,?,0.000565,0,,,,,,stimuli/images/PICTURE_32.png,PILLS,5ea00c9769e0250009a479df,12/08/1943,2020-09-03_18h48.00.567,proactive2,2020.1.2,Win32,60,5f5126bb654d4b30ee6923d8,5f512c3bdb04a83278c1f2e0,5,,,,,,crown,,,,,,,,,,,2,1,0,36,36,18,1,,,,,,,,,,,,,,,,,,,,,,,,,,,,,,,,,,,,,,,,,,,,,,,,,,,,,,,,,,,,,,,,,,,,,,,,,,,,,,,,,,,,,,,,,,,,,,
,,?,0.00055,0,,,,,,stimuli/images/PICTURE_147.png,WOMEN,5ea00c9769e0250009a479df,12/08/1943,2020-09-03_18h48.00.567,proactive2,2020.1.2,Win32,60,5f5126bb654d4b30ee6923d8,5f512c3bdb04a83278c1f2e0,5,,,,,,hanger,,,,,,,,,,,1,1,0,37,37,7,1,,,,,,,,,,,,,,,,,,,,,,,,,,,,,,,,,,,,,,,,,,,,,,,,,,,,,,,,,,,,,,,,,,,,,,,,,,,,,,,,,,,,,,,,,,,,,,
,,?,0.000635,0,,,,,,stimuli/images/PICTURE_68.png,ROOF,5ea00c9769e0250009a479df,12/08/1943,2020-09-03_18h48.00.567,proactive2,2020.1.2,Win32,60,5f5126bb654d4b30ee6923d8,5f512c3bdb04a83278c1f2e0,5,,,,,,candle,,,,,,,,,,,4,1,0,38,38,38,1,,,,,,,,,,,,,,,,,,,,,,,,,,,,,,,,,,,,,,,,,,,,,,,,,,,,,,,,,,,,,,,,,,,,,,,,,,,,,,,,,,,,,,,,,,,,,,
,,?,0.000475,0,,,,,,stimuli/images/PICTURE_744.png,WEAPON,5ea00c9769e0250009a479df,12/08/1943,2020-09-03_18h48.00.567,proactive2,2020.1.2,Win32,60,5f5126bb654d4b30ee6923d8,5f512c3bdb04a83278c1f2e0,5,,,,,,ring,,,,,,,,,,,6,1,0,39,39,50,1,,,,,,,,,,,,,,,,,,,,,,,,,,,,,,,,,,,,,,,,,,,,,,,,,,,,,,,,,,,,,,,,,,,,,,,,,,,,,,,,,,,,,,,,,,,,,,
,,?,0.00062,0,,,,,,stimuli/images/PICTURE_85.png,NATION,5ea00c9769e0250009a479df,12/08/1943,2020-09-03_18h48.00.567,proactive2,2020.1.2,Win32,60,5f5126bb654d4b30ee6923d8,5f512c3bdb04a83278c1f2e0,5,,,,,,diamond,,,,,,,,,,,1,1,0,40,40,5,1,,,,,,,,,,,,,,,,,,,,,,,,,,,,,,,,,,,,,,,,,,,,,,,,,,,,,,,,,,,,,,,,,,,,,,,,,,,,,,,,,,,,,,,,,,,,,,
,,APPLE,5.74742,1,,,,,,stimuli/images/PICTURE_677.png,APPLE,5ea00c9769e0250009a479df,12/08/1943,2020-09-03_18h48.00.567,proactive2,2020.1.2,Win32,60,5f5126bb654d4b30ee6923d8,5f512c3bdb04a83278c1f2e0,5,,,,,,map,,,,,,,,,,,5,1,0,41,41,43,1,,,,,,,,,,,,,,,,,,,,,,,,,,,,,,,,,,,,,,,,,,,,,,,,,,,,,,,,,,,,,,,,,,,,,,,,,,,,,,,,,,,,,,,,,,,,,,
,,HONEY,5.298535,1,,,,,,stimuli/images/PICTURE_95.png,HONEY,5ea00c9769e0250009a479df,12/08/1943,2020-09-03_18h48.00.567,proactive2,2020.1.2,Win32,60,5f5126bb654d4b30ee6923d8,5f512c3bdb04a83278c1f2e0,5,,,,,,suitcase,,,,,,,,,,,5,1,0,42,42,44,1,,,,,,,,,,,,,,,,,,,,,,,,,,,,,,,,,,,,,,,,,,,,,,,,,,,,,,,,,,,,,,,,,,,,,,,,,,,,,,,,,,,,,,,,,,,,,,
,,GIRL,5.180925,1,,,,,,stimuli/images/PICTURE_487.png,GIRL,5ea00c9769e0250009a479df,12/08/1943,2020-09-03_18h48.00.567,proactive2,2020.1.2,Win32,60,5f5126bb654d4b30ee6923d8,5f512c3bdb04a83278c1f2e0,5,,,,,,basket,,,,,,,,,,,5,1,0,43,43,45,1,,,,,,,,,,,,,,,,,,,,,,,,,,,,,,,,,,,,,,,,,,,,,,,,,,,,,,,,,,,,,,,,,,,,,,,,,,,,,,,,,,,,,,,,,,,,,,
,,?,0.002445,0,,,,,,stimuli/images/PICTURE_655.png,TOILET,5ea00c9769e0250009a479df,12/08/1943,2020-09-03_18h48.00.567,proactive2,2020.1.2,Win32,60,5f5126bb654d4b30ee6923d8,5f512c3bdb04a83278c1f2e0,5,,,,,,megaphone,,,,,,,,,,,2,1,0,44,44,12,1,,,,,,,,,,,,,,,,,,,,,,,,,,,,,,,,,,,,,,,,,,,,,,,,,,,,,,,,,,,,,,,,,,,,,,,,,,,,,,,,,,,,,,,,,,,,,,
,,LOTS,4.725595,1,,,,,,stimuli/images/PICTURE_233.png,LOTS,5ea00c9769e0250009a479df,12/08/1943,2020-09-03_18h48.00.567,proactive2,2020.1.2,Win32,60,5f5126bb654d4b30ee6923d8,5f512c3bdb04a83278c1f2e0,5,,,,,,salt,,,,,,,,,,,5,1,0,45,45,42,1,,,,,,,,,,,,,,,,,,,,,,,,,,,,,,,,,,,,,,,,,,,,,,,,,,,,,,,,,,,,,,,,,,,,,,,,,,,,,,,,,,,,,,,,,,,,,,
,,SERIES,6.131815,1,,,,,,stimuli/images/PICTURE_383.png,SERIES,5ea00c9769e0250009a479df,12/08/1943,2020-09-03_18h48.00.567,proactive2,2020.1.2,Win32,60,5f5126bb654d4b30ee6923d8,5f512c3bdb04a83278c1f2e0,5,,,,,,coin,,,,,,,,,,,5,1,0,46,46,46,1,,,,,,,,,,,,,,,,,,,,,,,,,,,,,,,,,,,,,,,,,,,,,,,,,,,,,,,,,,,,,,,,,,,,,,,,,,,,,,,,,,,,,,,,,,,,,,
,,?,0.00213,0,,,,,,stimuli/images/PICTURE_147.png,YEAR,5ea00c9769e0250009a479df,12/08/1943,2020-09-03_18h48.00.567,proactive2,2020.1.2,Win32,60,5f5126bb654d4b30ee6923d8,5f512c3bdb04a83278c1f2e0,5,,,,,,hanger,,,,,,,,,,,3,1,0,47,47,21,1,,,,,,,,,,,,,,,,,,,,,,,,,,,,,,,,,,,,,,,,,,,,,,,,,,,,,,,,,,,,,,,,,,,,,,,,,,,,,,,,,,,,,,,,,,,,,,
,,?,0.00253,0,,,,,,stimuli/images/PICTURE_405.png,PLENTY,5ea00c9769e0250009a479df,12/08/1943,2020-09-03_18h48.00.567,proactive2,2020.1.2,Win32,60,5f5126bb654d4b30ee6923d8,5f512c3bdb04a83278c1f2e0,5,,,,,,anchor,,,,,,,,,,,3,1,0,48,48,23,1,,,,,,,,,,,,,,,,,,,,,,,,,,,,,,,,,,,,,,,,,,,,,,,,,,,,,,,,,,,,,,,,,,,,,,,,,,,,,,,,,,,,,,,,,,,,,,
,,?,0.002255,0,,,,,,stimuli/images/PICTURE_504.png,COPS,5ea00c9769e0250009a479df,12/08/1943,2020-09-03_18h48.00.567,proactive2,2020.1.2,Win32,60,5f5126bb654d4b30ee6923d8,5f512c3bdb04a83278c1f2e0,5,,,,,,wheel,,,,,,,,,,,6,1,0,49,49,52,1,,,,,,,,,,,,,,,,,,,,,,,,,,,,,,,,,,,,,,,,,,,,,,,,,,,,,,,,,,,,,,,,,,,,,,,,,,,,,,,,,,,,,,,,,,,,,,
,,SALE,5.579835,1,,,,,,stimuli/images/PICTURE_675.png,SALE,5ea00c9769e0250009a479df,12/08/1943,2020-09-03_18h48.00.567,proactive2,2020.1.2,Win32,60,5f5126bb654d4b30ee6923d8,5f512c3bdb04a83278c1f2e0,5,,,,,,windmill,,,,,,,,,,,5,1,0,50,50,47,1,,,,,,,,,,,,,,,,,,,,,,,,,,,,,,,,,,,,,,,,,,,,,,,,,,,,,,,,,,,,,,,,,,,,,,,,,,,,,,,,,,,,,,,,,,,,,,
,,?,0.0022,0,,,,,,stimuli/images/PICTURE_383.png,WRITER,5ea00c9769e0250009a479df,12/08/1943,2020-09-03_18h48.00.567,proactive2,2020.1.2,Win32,60,5f5126bb654d4b30ee6923d8,5f512c3bdb04a83278c1f2e0,5,,,,,,coin,,,,,,,,,,,3,1,0,51,51,28,1,,,,,,,,,,,,,,,,,,,,,,,,,,,,,,,,,,,,,,,,,,,,,,,,,,,,,,,,,,,,,,,,,,,,,,,,,,,,,,,,,,,,,,,,,,,,,,
,,?,0.002145,0,,,,,,stimuli/images/PICTURE_339.png,CLIENT,5ea00c9769e0250009a479df,12/08/1943,2020-09-03_18h48.00.567,proactive2,2020.1.2,Win32,60,5f5126bb654d4b30ee6923d8,5f512c3bdb04a83278c1f2e0,5,,,,,,backpack,,,,,,,,,,,2,1,0,52,52,11,1,,,,,,,,,,,,,,,,,,,,,,,,,,,,,,,,,,,,,,,,,,,,,,,,,,,,,,,,,,,,,,,,,,,,,,,,,,,,,,,,,,,,,,,,,,,,,,
,,TOIL,5.386935,0,,,,,,stimuli/images/PICTURE_85.png,TOILET,5ea00c9769e0250009a479df,12/08/1943,2020-09-03_18h48.00.567,proactive2,2020.1.2,Win32,60,5f5126bb654d4b30ee6923d8,5f512c3bdb04a83278c1f2e0,5,,,,,,diamond,,,,,,,,,,,5,1,0,53,53,48,1,,,,,,,,,,,,,,,,,,,,,,,,,,,,,,,,,,,,,,,,,,,,,,,,,,,,,,,,,,,,,,,,,,,,,,,,,,,,,,,,,,,,,,,,,,,,,,
,,?,0.00092,0,,,,,,stimuli/images/PICTURE_685.png,PENNY,5ea00c9769e0250009a479df,12/08/1943,2020-09-03_18h48.00.567,proactive2,2020.1.2,Win32,60,5f5126bb654d4b30ee6923d8,5f512c3bdb04a83278c1f2e0,5,,,,,,goose,,,,,,,,,,,1,1,0,54,54,4,1,,,,,,,,,,,,,,,,,,,,,,,,,,,,,,,,,,,,,,,,,,,,,,,,,,,,,,,,,,,,,,,,,,,,,,,,,,,,,,,,,,,,,,,,,,,,,,
,,?,0.00078,0,,,,,,stimuli/images/PICTURE_750.png,HOTEL,5ea00c9769e0250009a479df,12/08/1943,2020-09-03_18h48.00.567,proactive2,2020.1.2,Win32,60,5f5126bb654d4b30ee6923d8,5f512c3bdb04a83278c1f2e0,5,,,,,,kettle,,,,,,,,,,,3,1,0,55,55,27,1,,,,,,,,,,,,,,,,,,,,,,,,,,,,,,,,,,,,,,,,,,,,,,,,,,,,,,,,,,,,,,,,,,,,,,,,,,,,,,,,,,,,,,,,,,,,,,
,,?,0.0008,0,,,,,,stimuli/images/PICTURE_203.png,NIGHT,5ea00c9769e0250009a479df,12/08/1943,2020-09-03_18h48.00.567,proactive2,2020.1.2,Win32,60,5f5126bb654d4b30ee6923d8,5f512c3bdb04a83278c1f2e0,5,,,,,,cap,,,,,,,,,,,1,1,0,56,56,2,1,,,,,,,,,,,,,,,,,,,,,,,,,,,,,,,,,,,,,,,,,,,,,,,,,,,,,,,,,,,,,,,,,,,,,,,,,,,,,,,,,,,,,,,,,,,,,,
,,?,0.00092,0,,,,,,stimuli/images/PICTURE_308.png,FAMILY,5ea00c9769e0250009a479df,12/08/1943,2020-09-03_18h48.00.567,proactive2,2020.1.2,Win32,60,5f5126bb654d4b30ee6923d8,5f512c3bdb04a83278c1f2e0,5,,,,,,dice,,,,,,,,,,,4,1,0,57,57,36,1,,,,,,,,,,,,,,,,,,,,,,,,,,,,,,,,,,,,,,,,,,,,,,,,,,,,,,,,,,,,,,,,,,,,,,,,,,,,,,,,,,,,,,,,,,,,,,
,,?,0.0008,0,,,,,,stimuli/images/PICTURE_708.png,RECORD,5ea00c9769e0250009a479df,12/08/1943,2020-09-03_18h48.00.567,proactive2,2020.1.2,Win32,60,5f5126bb654d4b30ee6923d8,5f512c3bdb04a83278c1f2e0,5,,,,,,monkey,,,,,,,,,,,6,1,0,58,58,58,1,,,,,,,,,,,,,,,,,,,,,,,,,,,,,,,,,,,,,,,,,,,,,,,,,,,,,,,,,,,,,,,,,,,,,,,,,,,,,,,,,,,,,,,,,,,,,,
,,?,0.00083,0,,,,,,stimuli/images/PICTURE_296.png,LOTS,5ea00c9769e0250009a479df,12/08/1943,2020-09-03_18h48.00.567,proactive2,2020.1.2,Win32,60,5f5126bb654d4b30ee6923d8,5f512c3bdb04a83278c1f2e0,5,,,,,,bolt,,,,,,,,,,,1,1,0,59,59,9,1,,,,,,,,,,,,,,,,,,,,,,,,,,,,,,,,,,,,,,,,,,,,,,,,,,,,,,,,,,,,,,,,,,,,,,,,,,,,,,,,,,,,,,,,,,,,,,
,,,,,,,,,,,,5ea00c9769e0250009a479df,12/08/1943,2020-09-03_18h48.00.567,proactive2,2020.1.2,Win32,60,5f5126bb654d4b30ee6923d8,5f512c3bdb04a83278c1f2e0,5,,,,,,,,,,,,,,,,,,,,,,,,0,1,1,1,1,stimuli/learn-block2.csv,,,,,,,,,,,,,,,,,,,,,,,,,,,,,,,,,,,,,,,,,,,,,,,,,,,,,,,,,,,,,,,,,,,,,,,,,,,,,,,,,,,,,,,,
,,,,,,,,,,stimuli/images/PICTURE_654.png,VALLEY,5ea00c9769e0250009a479df,12/08/1943,2020-09-03_18h48.00.567,proactive2,2020.1.2,Win32,60,5f5126bb654d4b30ee6923d8,5f512c3bdb04a83278c1f2e0,5,,,,,,pencil,,,,,,0,0,0,1,1,1,0,,,,,,,,,,,,,,,,,,,,,,,,,,,,,,,,,,,,,,,,,,,,,,,,,,,,,,,,,,,,,,,,,,,,,,,,,,,,,,,,,,,,,,,,,,,,,,,,,,,
,,,,,,,,,,stimuli/images/PICTURE_487.png,FLIGHT,5ea00c9769e0250009a479df,12/08/1943,2020-09-03_18h48.00.567,proactive2,2020.1.2,Win32,60,5f5126bb654d4b30ee6923d8,5f512c3bdb04a83278c1f2e0,5,,,,,,basket,,,,,,0,1,1,9,1,1,0,,,,,,,,,,,,,,,,,,,,,,,,,,,,,,,,,,,,,,,,,,,,,,,,,,,,,,,,,,,,,,,,,,,,,,,,,,,,,,,,,,,,,,,,,,,,,,,,,,,
,,,,,,,,,,stimuli/images/PICTURE_677.png,MILE,5ea00c9769e0250009a479df,12/08/1943,2020-09-03_18h48.00.567,proactive2,2020.1.2,Win32,60,5f5126bb654d4b30ee6923d8,5f512c3bdb04a83278c1f2e0,5,,,,,,map,,,,,,0,2,2,30,1,4,0,,,,,,,,,,,,,,,,,,,,,,,,,,,,,,,,,,,,,,,,,,,,,,,,,,,,,,,,,,,,,,,,,,,,,,,,,,,,,,,,,,,,,,,,,,,,,,,,,,,
,,,,,,,,,,stimuli/images/PICTURE_233.png,IDEAS,5ea00c9769e0250009a479df,12/08/1943,2020-09-03_18h48.00.567,proactive2,2020.1.2,Win32,60,5f5126bb654d4b30ee6923d8,5f512c3bdb04a83278c1f2e0,5,,,,,,salt,,,,,,0,3,3,28,1,3,0,,,,,,,,,,,,,,,,,,,,,,,,,,,,,,,,,,,,,,,,,,,,,,,,,,,,,,,,,,,,,,,,,,,,,,,,,,,,,,,,,,,,,,,,,,,,,,,,,,,
,,,,,,,,,,stimuli/images/PICTURE_32.png,JUNGLE,5ea00c9769e0250009a479df,12/08/1943,2020-09-03_18h48.00.567,proactive2,2020.1.2,Win32,60,5f5126bb654d4b30ee6923d8,5f512c3bdb04a83278c1f2e0,5,,,,,,crown,,,,,,0,4,4,45,1,5,0,,,,,,,,,,,,,,,,,,,,,,,,,,,,,,,,,,,,,,,,,,,,,,,,,,,,,,,,,,,,,,,,,,,,,,,,,,,,,,,,,,,,,,,,,,,,,,,,,,,
,,,,,,,,,,stimuli/images/PICTURE_380.png,PHOTO,5ea00c9769e0250009a479df,12/08/1943,2020-09-03_18h48.00.567,proactive2,2020.1.2,Win32,60,5f5126bb654d4b30ee6923d8,5f512c3bdb04a83278c1f2e0,5,,,,,,gorilla,,,,,,0,5,5,52,1,6,0,,,,,,,,,,,,,,,,,,,,,,,,,,,,,,,,,,,,,,,,,,,,,,,,,,,,,,,,,,,,,,,,,,,,,,,,,,,,,,,,,,,,,,,,,,,,,,,,,,,
,,,,,,,,,,stimuli/images/PICTURE_469.png,ARTIST,5ea00c9769e0250009a479df,12/08/1943,2020-09-03_18h48.00.567,proactive2,2020.1.2,Win32,60,5f5126bb654d4b30ee6923d8,5f512c3bdb04a83278c1f2e0,5,,,,,,stool,,,,,,0,6,6,6,1,1,0,,,,,,,,,,,,,,,,,,,,,,,,,,,,,,,,,,,,,,,,,,,,,,,,,,,,,,,,,,,,,,,,,,,,,,,,,,,,,,,,,,,,,,,,,,,,,,,,,,,
,,,,,,,,,,stimuli/images/PICTURE_308.png,ESTATE,5ea00c9769e0250009a479df,12/08/1943,2020-09-03_18h48.00.567,proactive2,2020.1.2,Win32,60,5f5126bb654d4b30ee6923d8,5f512c3bdb04a83278c1f2e0,5,,,,,,dice,,,,,,0,7,7,46,1,5,0,,,,,,,,,,,,,,,,,,,,,,,,,,,,,,,,,,,,,,,,,,,,,,,,,,,,,,,,,,,,,,,,,,,,,,,,,,,,,,,,,,,,,,,,,,,,,,,,,,,
,,,,,,,,,,stimuli/images/PICTURE_308.png,KIND,5ea00c9769e0250009a479df,12/08/1943,2020-09-03_18h48.00.567,proactive2,2020.1.2,Win32,60,5f5126bb654d4b30ee6923d8,5f512c3bdb04a83278c1f2e0,5,,,,,,dice,,,,,,0,8,8,54,1,6,0,,,,,,,,,,,,,,,,,,,,,,,,,,,,,,,,,,,,,,,,,,,,,,,,,,,,,,,,,,,,,,,,,,,,,,,,,,,,,,,,,,,,,,,,,,,,,,,,,,,
,,,,,,,,,,stimuli/images/PICTURE_123.png,ADVICE,5ea00c9769e0250009a479df,12/08/1943,2020-09-03_18h48.00.567,proactive2,2020.1.2,Win32,60,5f5126bb654d4b30ee6923d8,5f512c3bdb04a83278c1f2e0,5,,,,,,dart,,,,,,0,9,9,40,1,5,0,,,,,,,,,,,,,,,,,,,,,,,,,,,,,,,,,,,,,,,,,,,,,,,,,,,,,,,,,,,,,,,,,,,,,,,,,,,,,,,,,,,,,,,,,,,,,,,,,,,
,,,,,,,,,,stimuli/images/PICTURE_314.png,GODS,5ea00c9769e0250009a479df,12/08/1943,2020-09-03_18h48.00.567,proactive2,2020.1.2,Win32,60,5f5126bb654d4b30ee6923d8,5f512c3bdb04a83278c1f2e0,5,,,,,,perfume,,,,,,0,10,10,11,1,2,0,,,,,,,,,,,,,,,,,,,,,,,,,,,,,,,,,,,,,,,,,,,,,,,,,,,,,,,,,,,,,,,,,,,,,,,,,,,,,,,,,,,,,,,,,,,,,,,,,,,
,,,,,,,,,,stimuli/images/PICTURE_692.png,MONTH,5ea00c9769e0250009a479df,12/08/1943,2020-09-03_18h48.00.567,proactive2,2020.1.2,Win32,60,5f5126bb654d4b30ee6923d8,5f512c3bdb04a83278c1f2e0,5,,,,,,cherry,,,,,,0,11,11,16,1,2,0,,,,,,,,,,,,,,,,,,,,,,,,,,,,,,,,,,,,,,,,,,,,,,,,,,,,,,,,,,,,,,,,,,,,,,,,,,,,,,,,,,,,,,,,,,,,,,,,,,,
,,,,,,,,,,stimuli/images/PICTURE_177.png,CARS,5ea00c9769e0250009a479df,12/08/1943,2020-09-03_18h48.00.567,proactive2,2020.1.2,Win32,60,5f5126bb654d4b30ee6923d8,5f512c3bdb04a83278c1f2e0,5,,,,,,mushroom,,,,,,0,12,12,35,1,4,0,,,,,,,,,,,,,,,,,,,,,,,,,,,,,,,,,,,,,,,,,,,,,,,,,,,,,,,,,,,,,,,,,,,,,,,,,,,,,,,,,,,,,,,,,,,,,,,,,,,
,,,,,,,,,,stimuli/images/PICTURE_380.png,DEATH,5ea00c9769e0250009a479df,12/08/1943,2020-09-03_18h48.00.567,proactive2,2020.1.2,Win32,60,5f5126bb654d4b30ee6923d8,5f512c3bdb04a83278c1f2e0,5,,,,,,gorilla,,,,,,0,13,13,49,1,5,0,,,,,,,,,,,,,,,,,,,,,,,,,,,,,,,,,,,,,,,,,,,,,,,,,,,,,,,,,,,,,,,,,,,,,,,,,,,,,,,,,,,,,,,,,,,,,,,,,,,
,,,,,,,,,,stimuli/images/PICTURE_453.png,DUDE,5ea00c9769e0250009a479df,12/08/1943,2020-09-03_18h48.00.567,proactive2,2020.1.2,Win32,60,5f5126bb654d4b30ee6923d8,5f512c3bdb04a83278c1f2e0,5,,,,,,scissors,,,,,,0,14,14,27,1,3,0,,,,,,,,,,,,,,,,,,,,,,,,,,,,,,,,,,,,,,,,,,,,,,,,,,,,,,,,,,,,,,,,,,,,,,,,,,,,,,,,,,,,,,,,,,,,,,,,,,,
,,,,,,,,,,stimuli/images/PICTURE_708.png,CLIENT,5ea00c9769e0250009a479df,12/08/1943,2020-09-03_18h48.00.567,proactive2,2020.1.2,Win32,60,5f5126bb654d4b30ee6923d8,5f512c3bdb04a83278c1f2e0,5,,,,,,monkey,,,,,,0,15,15,5,1,1,0,,,,,,,,,,,,,,,,,,,,,,,,,,,,,,,,,,,,,,,,,,,,,,,,,,,,,,,,,,,,,,,,,,,,,,,,,,,,,,,,,,,,,,,,,,,,,,,,,,,
,,,,,,,,,,stimuli/images/PICTURE_504.png,BODY,5ea00c9769e0250009a479df,12/08/1943,2020-09-03_18h48.00.567,proactive2,2020.1.2,Win32,60,5f5126bb654d4b30ee6923d8,5f512c3bdb04a83278c1f2e0,5,,,,,,wheel,,,,,,0,16,16,8,1,1,0,,,,,,,,,,,,,,,,,,,,,,,,,,,,,,,,,,,,,,,,,,,,,,,,,,,,,,,,,,,,,,,,,,,,,,,,,,,,,,,,,,,,,,,,,,,,,,,,,,,
,,,,,,,,,,stimuli/images/PICTURE_302.png,FAMILY,5ea00c9769e0250009a479df,12/08/1943,2020-09-03_18h48.00.567,proactive2,2020.1.2,Win32,60,5f5126bb654d4b30ee6923d8,5f512c3bdb04a83278c1f2e0,5,,,,,,taxi,,,,,,0,17,17,18,1,2,0,,,,,,,,,,,,,,,,,,,,,,,,,,,,,,,,,,,,,,,,,,,,,,,,,,,,,,,,,,,,,,,,,,,,,,,,,,,,,,,,,,,,,,,,,,,,,,,,,,,
,,,,,,,,,,stimuli/images/PICTURE_467.png,DEMON,5ea00c9769e0250009a479df,12/08/1943,2020-09-03_18h48.00.567,proactive2,2020.1.2,Win32,60,5f5126bb654d4b30ee6923d8,5f512c3bdb04a83278c1f2e0,5,,,,,,peg,,,,,,0,18,18,23,1,3,0,,,,,,,,,,,,,,,,,,,,,,,,,,,,,,,,,,,,,,,,,,,,,,,,,,,,,,,,,,,,,,,,,,,,,,,,,,,,,,,,,,,,,,,,,,,,,,,,,,,
,,,,,,,,,,stimuli/images/PICTURE_509.png,PHOTO,5ea00c9769e0250009a479df,12/08/1943,2020-09-03_18h48.00.567,proactive2,2020.1.2,Win32,60,5f5126bb654d4b30ee6923d8,5f512c3bdb04a83278c1f2e0,5,,,,,,telephone,,,,,,0,19,19,21,1,3,0,,,,,,,,,,,,,,,,,,,,,,,,,,,,,,,,,,,,,,,,,,,,,,,,,,,,,,,,,,,,,,,,,,,,,,,,,,,,,,,,,,,,,,,,,,,,,,,,,,,
,,,,,,,,,,stimuli/images/PICTURE_491.png,ROOF,5ea00c9769e0250009a479df,12/08/1943,2020-09-03_18h48.00.567,proactive2,2020.1.2,Win32,60,5f5126bb654d4b30ee6923d8,5f512c3bdb04a83278c1f2e0,5,,,,,,rug,,,,,,0,20,20,24,1,3,0,,,,,,,,,,,,,,,,,,,,,,,,,,,,,,,,,,,,,,,,,,,,,,,,,,,,,,,,,,,,,,,,,,,,,,,,,,,,,,,,,,,,,,,,,,,,,,,,,,,
,,,,,,,,,,stimuli/images/PICTURE_688.png,WOMEN,5ea00c9769e0250009a479df,12/08/1943,2020-09-03_18h48.00.567,proactive2,2020.1.2,Win32,60,5f5126bb654d4b30ee6923d8,5f512c3bdb04a83278c1f2e0,5,,,,,,runner,,,,,,0,21,21,14,1,2,0,,,,,,,,,,,,,,,,,,,,,,,,,,,,,,,,,,,,,,,,,,,,,,,,,,,,,,,,,,,,,,,,,,,,,,,,,,,,,,,,,,,,,,,,,,,,,,,,,,,
,,,,,,,,,,stimuli/images/PICTURE_470.png,CASINO,5ea00c9769e0250009a479df,12/08/1943,2020-09-03_18h48.00.567,proactive2,2020.1.2,Win32,60,5f5126bb654d4b30ee6923d8,5f512c3bdb04a83278c1f2e0,5,,,,,,motorbike,,,,,,0,22,22,36,1,4,0,,,,,,,,,,,,,,,,,,,,,,,,,,,,,,,,,,,,,,,,,,,,,,,,,,,,,,,,,,,,,,,,,,,,,,,,,,,,,,,,,,,,,,,,,,,,,,,,,,,
,,,,,,,,,,stimuli/images/PICTURE_744.png,SAKE,5ea00c9769e0250009a479df,12/08/1943,2020-09-03_18h48.00.567,proactive2,2020.1.2,Win32,60,5f5126bb654d4b30ee6923d8,5f512c3bdb04a83278c1f2e0,5,,,,,,ring,,,,,,0,23,23,17,1,2,0,,,,,,,,,,,,,,,,,,,,,,,,,,,,,,,,,,,,,,,,,,,,,,,,,,,,,,,,,,,,,,,,,,,,,,,,,,,,,,,,,,,,,,,,,,,,,,,,,,,
,,,,,,,,,,stimuli/images/PICTURE_469.png,LETTER,5ea00c9769e0250009a479df,12/08/1943,2020-09-03_18h48.00.567,proactive2,2020.1.2,Win32,60,5f5126bb654d4b30ee6923d8,5f512c3bdb04a83278c1f2e0,5,,,,,,stool,,,,,,0,24,24,42,1,5,0,,,,,,,,,,,,,,,,,,,,,,,,,,,,,,,,,,,,,,,,,,,,,,,,,,,,,,,,,,,,,,,,,,,,,,,,,,,,,,,,,,,,,,,,,,,,,,,,,,,
,,,,,,,,,,stimuli/images/PICTURE_208.png,MONTH,5ea00c9769e0250009a479df,12/08/1943,2020-09-03_18h48.00.567,proactive2,2020.1.2,Win32,60,5f5126bb654d4b30ee6923d8,5f512c3bdb04a83278c1f2e0,5,,,,,,microphone,,,,,,0,25,25,53,1,6,0,,,,,,,,,,,,,,,,,,,,,,,,,,,,,,,,,,,,,,,,,,,,,,,,,,,,,,,,,,,,,,,,,,,,,,,,,,,,,,,,,,,,,,,,,,,,,,,,,,,
,,,,,,,,,,stimuli/images/PICTURE_675.png,WEAPON,5ea00c9769e0250009a479df,12/08/1943,2020-09-03_18h48.00.567,proactive2,2020.1.2,Win32,60,5f5126bb654d4b30ee6923d8,5f512c3bdb04a83278c1f2e0,5,,,,,,windmill,,,,,,0,26,26,32,1,4,0,,,,,,,,,,,,,,,,,,,,,,,,,,,,,,,,,,,,,,,,,,,,,,,,,,,,,,,,,,,,,,,,,,,,,,,,,,,,,,,,,,,,,,,,,,,,,,,,,,,
,,,,,,,,,,stimuli/images/PICTURE_311.png,FRIEND,5ea00c9769e0250009a479df,12/08/1943,2020-09-03_18h48.00.567,proactive2,2020.1.2,Win32,60,5f5126bb654d4b30ee6923d8,5f512c3bdb04a83278c1f2e0,5,,,,,,razor,,,,,,0,27,27,34,1,4,0,,,,,,,,,,,,,,,,,,,,,,,,,,,,,,,,,,,,,,,,,,,,,,,,,,,,,,,,,,,,,,,,,,,,,,,,,,,,,,,,,,,,,,,,,,,,,,,,,,,
,,,,,,,,,,stimuli/images/PICTURE_95.png,STYLE,5ea00c9769e0250009a479df,12/08/1943,2020-09-03_18h48.00.567,proactive2,2020.1.2,Win32,60,5f5126bb654d4b30ee6923d8,5f512c3bdb04a83278c1f2e0,5,,,,,,suitcase,,,,,,0,28,28,25,1,3,0,,,,,,,,,,,,,,,,,,,,,,,,,,,,,,,,,,,,,,,,,,,,,,,,,,,,,,,,,,,,,,,,,,,,,,,,,,,,,,,,,,,,,,,,,,,,,,,,,,,
,,,,,,,,,,stimuli/images/PICTURE_255.png,AREA,5ea00c9769e0250009a479df,12/08/1943,2020-09-03_18h48.00.567,proactive2,2020.1.2,Win32,60,5f5126bb654d4b30ee6923d8,5f512c3bdb04a83278c1f2e0,5,,,,,,shovel,,,,,,0,29,29,22,1,3,0,,,,,,,,,,,,,,,,,,,,,,,,,,,,,,,,,,,,,,,,,,,,,,,,,,,,,,,,,,,,,,,,,,,,,,,,,,,,,,,,,,,,,,,,,,,,,,,,,,,
,,,,,,,,,,stimuli/images/PICTURE_285.png,ADVICE,5ea00c9769e0250009a479df,12/08/1943,2020-09-03_18h48.00.567,proactive2,2020.1.2,Win32,60,5f5126bb654d4b30ee6923d8,5f512c3bdb04a83278c1f2e0,5,,,,,,carrot,,,,,,0,30,30,12,1,2,0,,,,,,,,,,,,,,,,,,,,,,,,,,,,,,,,,,,,,,,,,,,,,,,,,,,,,,,,,,,,,,,,,,,,,,,,,,,,,,,,,,,,,,,,,,,,,,,,,,,
,,,,,,,,,,stimuli/images/PICTURE_85.png,THING,5ea00c9769e0250009a479df,12/08/1943,2020-09-03_18h48.00.567,proactive2,2020.1.2,Win32,60,5f5126bb654d4b30ee6923d8,5f512c3bdb04a83278c1f2e0,5,,,,,,diamond,,,,,,0,31,31,15,1,2,0,,,,,,,,,,,,,,,,,,,,,,,,,,,,,,,,,,,,,,,,,,,,,,,,,,,,,,,,,,,,,,,,,,,,,,,,,,,,,,,,,,,,,,,,,,,,,,,,,,,
,,,,,,,,,,stimuli/images/PICTURE_488.png,STYLE,5ea00c9769e0250009a479df,12/08/1943,2020-09-03_18h48.00.567,proactive2,2020.1.2,Win32,60,5f5126bb654d4b30ee6923d8,5f512c3bdb04a83278c1f2e0,5,,,,,,sun,,,,,,0,32,32,33,1,4,0,,,,,,,,,,,,,,,,,,,,,,,,,,,,,,,,,,,,,,,,,,,,,,,,,,,,,,,,,,,,,,,,,,,,,,,,,,,,,,,,,,,,,,,,,,,,,,,,,,,
,,,,,,,,,,stimuli/images/PICTURE_744.png,SYSTEM,5ea00c9769e0250009a479df,12/08/1943,2020-09-03_18h48.00.567,proactive2,2020.1.2,Win32,60,5f5126bb654d4b30ee6923d8,5f512c3bdb04a83278c1f2e0,5,,,,,,ring,,,,,,0,33,33,43,1,5,0,,,,,,,,,,,,,,,,,,,,,,,,,,,,,,,,,,,,,,,,,,,,,,,,,,,,,,,,,,,,,,,,,,,,,,,,,,,,,,,,,,,,,,,,,,,,,,,,,,,
,,,,,,,,,,stimuli/images/PICTURE_453.png,PLENTY,5ea00c9769e0250009a479df,12/08/1943,2020-09-03_18h48.00.567,proactive2,2020.1.2,Win32,60,5f5126bb654d4b30ee6923d8,5f512c3bdb04a83278c1f2e0,5,,,,,,scissors,,,,,,0,34,34,56,1,6,0,,,,,,,,,,,,,,,,,,,,,,,,,,,,,,,,,,,,,,,,,,,,,,,,,,,,,,,,,,,,,,,,,,,,,,,,,,,,,,,,,,,,,,,,,,,,,,,,,,,
,,,,,,,,,,stimuli/images/PICTURE_449.png,THING,5ea00c9769e0250009a479df,12/08/1943,2020-09-03_18h48.00.567,proactive2,2020.1.2,Win32,60,5f5126bb654d4b30ee6923d8,5f512c3bdb04a83278c1f2e0,5,,,,,,bench,,,,,,0,35,35,59,1,6,0,,,,,,,,,,,,,,,,,,,,,,,,,,,,,,,,,,,,,,,,,,,,,,,,,,,,,,,,,,,,,,,,,,,,,,,,,,,,,,,,,,,,,,,,,,,,,,,,,,,
,,,,,,,,,,stimuli/images/PICTURE_708.png,YARD,5ea00c9769e0250009a479df,12/08/1943,2020-09-03_18h48.00.567,proactive2,2020.1.2,Win32,60,5f5126bb654d4b30ee6923d8,5f512c3bdb04a83278c1f2e0,5,,,,,,monkey,,,,,,0,36,36,29,1,3,0,,,,,,,,,,,,,,,,,,,,,,,,,,,,,,,,,,,,,,,,,,,,,,,,,,,,,,,,,,,,,,,,,,,,,,,,,,,,,,,,,,,,,,,,,,,,,,,,,,,
,,,,,,,,,,stimuli/images/PICTURE_215.png,PLENTY,5ea00c9769e0250009a479df,12/08/1943,2020-09-03_18h48.00.567,proactive2,2020.1.2,Win32,60,5f5126bb654d4b30ee6923d8,5f512c3bdb04a83278c1f2e0,5,,,,,,boot,,,,,,0,37,37,37,1,4,0,,,,,,,,,,,,,,,,,,,,,,,,,,,,,,,,,,,,,,,,,,,,,,,,,,,,,,,,,,,,,,,,,,,,,,,,,,,,,,,,,,,,,,,,,,,,,,,,,,,
,,,,,,,,,,stimuli/images/PICTURE_327.png,BEAUTY,5ea00c9769e0250009a479df,12/08/1943,2020-09-03_18h48.00.567,proactive2,2020.1.2,Win32,60,5f5126bb654d4b30ee6923d8,5f512c3bdb04a83278c1f2e0,5,,,,,,helmet,,,,,,0,38,38,48,1,5,0,,,,,,,,,,,,,,,,,,,,,,,,,,,,,,,,,,,,,,,,,,,,,,,,,,,,,,,,,,,,,,,,,,,,,,,,,,,,,,,,,,,,,,,,,,,,,,,,,,,
,,,,,,,,,,stimuli/images/PICTURE_203.png,ARTIST,5ea00c9769e0250009a479df,12/08/1943,2020-09-03_18h48.00.567,proactive2,2020.1.2,Win32,60,5f5126bb654d4b30ee6923d8,5f512c3bdb04a83278c1f2e0,5,,,,,,cap,,,,,,0,39,39,26,1,3,0,,,,,,,,,,,,,,,,,,,,,,,,,,,,,,,,,,,,,,,,,,,,,,,,,,,,,,,,,,,,,,,,,,,,,,,,,,,,,,,,,,,,,,,,,,,,,,,,,,,
,,,,,,,,,,stimuli/images/PICTURE_688.png,CASINO,5ea00c9769e0250009a479df,12/08/1943,2020-09-03_18h48.00.567,proactive2,2020.1.2,Win32,60,5f5126bb654d4b30ee6923d8,5f512c3bdb04a83278c1f2e0,5,,,,,,runner,,,,,,0,40,40,2,1,1,0,,,,,,,,,,,,,,,,,,,,,,,,,,,,,,,,,,,,,,,,,,,,,,,,,,,,,,,,,,,,,,,,,,,,,,,,,,,,,,,,,,,,,,,,,,,,,,,,,,,
,,,,,,,,,,stimuli/images/PICTURE_208.png,THING,5ea00c9769e0250009a479df,12/08/1943,2020-09-03_18h48.00.567,proactive2,2020.1.2,Win32,60,5f5126bb654d4b30ee6923d8,5f512c3bdb04a83278c1f2e0,5,,,,,,microphone,,,,,,0,41,41,47,1,5,0,,,,,,,,,,,,,,,,,,,,,,,,,,,,,,,,,,,,,,,,,,,,,,,,,,,,,,,,,,,,,,,,,,,,,,,,,,,,,,,,,,,,,,,,,,,,,,,,,,,
,,,,,,,,,,stimuli/images/PICTURE_339.png,PLENTY,5ea00c9769e0250009a479df,12/08/1943,2020-09-03_18h48.00.567,proactive2,2020.1.2,Win32,60,5f5126bb654d4b30ee6923d8,5f512c3bdb04a83278c1f2e0,5,,,,,,backpack,,,,,,0,42,42,0,1,1,0,,,,,,,,,,,,,,,,,,,,,,,,,,,,,,,,,,,,,,,,,,,,,,,,,,,,,,,,,,,,,,,,,,,,,,,,,,,,,,,,,,,,,,,,,,,,,,,,,,,
,,,,,,,,,,stimuli/images/PICTURE_147.png,MOMENT,5ea00c9769e0250009a479df,12/08/1943,2020-09-03_18h48.00.567,proactive2,2020.1.2,Win32,60,5f5126bb654d4b30ee6923d8,5f512c3bdb04a83278c1f2e0,5,,,,,,hanger,,,,,,0,43,43,51,1,6,0,,,,,,,,,,,,,,,,,,,,,,,,,,,,,,,,,,,,,,,,,,,,,,,,,,,,,,,,,,,,,,,,,,,,,,,,,,,,,,,,,,,,,,,,,,,,,,,,,,,
,,,,,,,,,,stimuli/images/PICTURE_248.png,DOZEN,5ea00c9769e0250009a479df,12/08/1943,2020-09-03_18h48.00.567,proactive2,2020.1.2,Win32,60,5f5126bb654d4b30ee6923d8,5f512c3bdb04a83278c1f2e0,5,,,,,,cart,,,,,,0,44,44,39,1,4,0,,,,,,,,,,,,,,,,,,,,,,,,,,,,,,,,,,,,,,,,,,,,,,,,,,,,,,,,,,,,,,,,,,,,,,,,,,,,,,,,,,,,,,,,,,,,,,,,,,,
,,,,,,,,,,stimuli/images/PICTURE_708.png,PENNY,5ea00c9769e0250009a479df,12/08/1943,2020-09-03_18h48.00.567,proactive2,2020.1.2,Win32,60,5f5126bb654d4b30ee6923d8,5f512c3bdb04a83278c1f2e0,5,,,,,,monkey,,,,,,0,45,45,31,1,4,0,,,,,,,,,,,,,,,,,,,,,,,,,,,,,,,,,,,,,,,,,,,,,,,,,,,,,,,,,,,,,,,,,,,,,,,,,,,,,,,,,,,,,,,,,,,,,,,,,,,
,,,,,,,,,,stimuli/images/PICTURE_233.png,WOMEN,5ea00c9769e0250009a479df,12/08/1943,2020-09-03_18h48.00.567,proactive2,2020.1.2,Win32,60,5f5126bb654d4b30ee6923d8,5f512c3bdb04a83278c1f2e0,5,,,,,,salt,,,,,,0,46,46,38,1,4,0,,,,,,,,,,,,,,,,,,,,,,,,,,,,,,,,,,,,,,,,,,,,,,,,,,,,,,,,,,,,,,,,,,,,,,,,,,,,,,,,,,,,,,,,,,,,,,,,,,,
,,,,,,,,,,stimuli/images/PICTURE_208.png,LOTS,5ea00c9769e0250009a479df,12/08/1943,2020-09-03_18h48.00.567,proactive2,2020.1.2,Win32,60,5f5126bb654d4b30ee6923d8,5f512c3bdb04a83278c1f2e0,5,,,,,,microphone,,,,,,0,47,47,10,1,2,0,,,,,,,,,,,,,,,,,,,,,,,,,,,,,,,,,,,,,,,,,,,,,,,,,,,,,,,,,,,,,,,,,,,,,,,,,,,,,,,,,,,,,,,,,,,,,,,,,,,
,,,,,,,,,,stimuli/images/PICTURE_160.png,FEET,5ea00c9769e0250009a479df,12/08/1943,2020-09-03_18h48.00.567,proactive2,2020.1.2,Win32,60,5f5126bb654d4b30ee6923d8,5f512c3bdb04a83278c1f2e0,5,,,,,,wheelbarrow,,,,,,0,48,48,58,1,6,0,,,,,,,,,,,,,,,,,,,,,,,,,,,,,,,,,,,,,,,,,,,,,,,,,,,,,,,,,,,,,,,,,,,,,,,,,,,,,,,,,,,,,,,,,,,,,,,,,,,
,,,,,,,,,,stimuli/images/PICTURE_348.png,SPEECH,5ea00c9769e0250009a479df,12/08/1943,2020-09-03_18h48.00.567,proactive2,2020.1.2,Win32,60,5f5126bb654d4b30ee6923d8,5f512c3bdb04a83278c1f2e0,5,,,,,,pepper,,,,,,0,49,49,20,1,3,0,,,,,,,,,,,,,,,,,,,,,,,,,,,,,,,,,,,,,,,,,,,,,,,,,,,,,,,,,,,,,,,,,,,,,,,,,,,,,,,,,,,,,,,,,,,,,,,,,,,
