consent_key.keys,consent_key.rt,recalled,recalled_rt,recall_acc,example_recall.thisRepN,example_recall.thisTrialN,example_recall.thisN,example_recall.thisIndex,example_recall.ran,file,word,participant,please enter your date of birth (dd/mm/yyyy),date,expName,psychopyVersion,OS,frameRate,STUDY_ID,SESSION_ID,list,prac_learn_study_loop.thisRepN,prac_learn_study_loop.thisTrialN,prac_learn_study_loop.thisN,prac_learn_study_loop.thisIndex,prac_learn_study_loop.ran,image,prac_learn_test_loop.thisRepN,prac_learn_test_loop.thisTrialN,prac_learn_test_loop.thisN,prac_learn_test_loop.thisIndex,prac_learn_test_loop.ran,learn_study_loop.thisRepN,learn_study_loop.thisTrialN,learn_study_loop.thisN,learn_study_loop.thisIndex,learn_study_loop.ran,list_no,block_no,learn_test_loop.thisRepN,learn_test_loop.thisTrialN,learn_test_loop.thisN,learn_test_loop.thisIndex,learn_test_loop.ran,learn_blocks.thisRepN,learn_blocks.thisTrialN,learn_blocks.thisN,learn_blocks.thisIndex,learn_blocks.ran,block_csv,key_resp_13.keys,key_resp_13.rt,learn_blocks_loop.thisRepN,learn_blocks_loop.thisTrialN,learn_blocks_loop.thisN,learn_blocks_loop.thisIndex,learn_blocks_loop.ran,final_learn_test.thisRepN,final_learn_test.thisTrialN,final_learn_test.thisN,final_learn_test.thisIndex,final_learn_test.ran,s_im1,s_im2,s_im3,s_im4,s_im5,s_im6,s_im7,s_im8,s_im1pos,s_im2pos,s_im3pos,s_im4pos,s_im5pos,s_im6pos,s_im7pos,s_im8pos,s_tarright,search_resp.keys,search_loop.thisRepN,search_loop.thisTrialN,search_loop.thisN,search_loop.thisIndex,search_loop.ran,search_resp.rt,prac_wm_test_loop.thisRepN,prac_wm_test_loop.thisTrialN,prac_wm_test_loop.thisN,prac_wm_test_loop.thisIndex,prac_wm_test_loop.ran,wm_recalled1,wm_recall_rt1,wm_probed1,wm_recall_acc1,wm_recalled2,wm_recall_rt2,wm_probed2,wm_recall_acc2,wm_recalled3,wm_recall_rt3,wm_probed3,wm_recall_acc3,wm_recalled4,wm_recall_rt4,wm_probed4,wm_recall_acc4,prac_wm_trial_loop.thisRepN,prac_wm_trial_loop.thisTrialN,prac_wm_trial_loop.thisN,prac_wm_trial_loop.thisIndex,prac_wm_trial_loop.ran,word1,image1,file1,item_type1,word2,image2,file2,item_type2,word4,image4,file4,item_type4,word3,image3,file3,item_type3,wm_test_loop.thisRepN,wm_test_loop.thisTrialN,wm_test_loop.thisN,wm_test_loop.thisIndex,wm_test_loop.ran,wm_trial_loop.thisRepN,wm_trial_loop.thisTrialN,wm_trial_loop.thisN,wm_trial_loop.thisIndex,wm_trial_loop.ran
y,34.785755,TOUGH,2.569055,1,0,0,0,0,1,stimuli/images/PICTURE_747.png,TOUGH,5ea17afa9b1fb6023ebc9117,24/08/1989,2020-08-13_12h53.18.213,proactive2,2020.1.2,Win32,60,5f341be081b9052c55068110,5f35297c29beab480531b140,4,,,,,,,,,,,,,,,,,,,,,,,,,,,,,,,,,,,,,,,,,,,,,,,,,,,,,,,,,,,,,,,,,,,,,,,,,,,,,,,,,,,,,,,,,,,,,,,,,,,,,,,,,,,,,,,,,,,,,
,,,,,,,,,,stimuli/images/PICTURE_378.png,LOSS,5ea17afa9b1fb6023ebc9117,24/08/1989,2020-08-13_12h53.18.213,proactive2,2020.1.2,Win32,60,5f341be081b9052c55068110,5f35297c29beab480531b140,4,0,0,0,2,1,lobster,,,,,,,,,,,,,,,,,,,,,,,,,,,,,,,,,,,,,,,,,,,,,,,,,,,,,,,,,,,,,,,,,,,,,,,,,,,,,,,,,,,,,,,,,,,,,,,,,,,,,,,,,,,,,,,
,,,,,,,,,,stimuli/images/PICTURE_269.png,GENIUS,5ea17afa9b1fb6023ebc9117,24/08/1989,2020-08-13_12h53.18.213,proactive2,2020.1.2,Win32,60,5f341be081b9052c55068110,5f35297c29beab480531b140,4,0,1,1,0,1,chameleon,,,,,,,,,,,,,,,,,,,,,,,,,,,,,,,,,,,,,,,,,,,,,,,,,,,,,,,,,,,,,,,,,,,,,,,,,,,,,,,,,,,,,,,,,,,,,,,,,,,,,,,,,,,,,,,
,,,,,,,,,,stimuli/images/PICTURE_697.png,KILLER,5ea17afa9b1fb6023ebc9117,24/08/1989,2020-08-13_12h53.18.213,proactive2,2020.1.2,Win32,60,5f341be081b9052c55068110,5f35297c29beab480531b140,4,0,2,2,4,1,peach,,,,,,,,,,,,,,,,,,,,,,,,,,,,,,,,,,,,,,,,,,,,,,,,,,,,,,,,,,,,,,,,,,,,,,,,,,,,,,,,,,,,,,,,,,,,,,,,,,,,,,,,,,,,,,,
,,,,,,,,,,stimuli/images/PICTURE_658.png,DEVIL,5ea17afa9b1fb6023ebc9117,24/08/1989,2020-08-13_12h53.18.213,proactive2,2020.1.2,Win32,60,5f341be081b9052c55068110,5f35297c29beab480531b140,4,0,3,3,3,1,crow,,,,,,,,,,,,,,,,,,,,,,,,,,,,,,,,,,,,,,,,,,,,,,,,,,,,,,,,,,,,,,,,,,,,,,,,,,,,,,,,,,,,,,,,,,,,,,,,,,,,,,,,,,,,,,,
,,DEVIL,2.59454,1,,,,,,stimuli/images/PICTURE_658.png,DEVIL,5ea17afa9b1fb6023ebc9117,24/08/1989,2020-08-13_12h53.18.213,proactive2,2020.1.2,Win32,60,5f341be081b9052c55068110,5f35297c29beab480531b140,4,,,,,,crow,0,0,0,3,1,,,,,,,,,,,,,,,,,,,,,,,,,,,,,,,,,,,,,,,,,,,,,,,,,,,,,,,,,,,,,,,,,,,,,,,,,,,,,,,,,,,,,,,,,,,,,,,,,,,,,,,,,,
,,CELL,1.948615,1,,,,,,stimuli/images/PICTURE_727.png,CELL,5ea17afa9b1fb6023ebc9117,24/08/1989,2020-08-13_12h53.18.213,proactive2,2020.1.2,Win32,60,5f341be081b9052c55068110,5f35297c29beab480531b140,4,,,,,,hose,0,1,1,1,1,,,,,,,,,,,,,,,,,,,,,,,,,,,,,,,,,,,,,,,,,,,,,,,,,,,,,,,,,,,,,,,,,,,,,,,,,,,,,,,,,,,,,,,,,,,,,,,,,,,,,,,,,,
,,LOSS,4.50174,1,,,,,,stimuli/images/PICTURE_378.png,LOSS,5ea17afa9b1fb6023ebc9117,24/08/1989,2020-08-13_12h53.18.213,proactive2,2020.1.2,Win32,60,5f341be081b9052c55068110,5f35297c29beab480531b140,4,,,,,,lobster,0,2,2,2,1,,,,,,,,,,,,,,,,,,,,,,,,,,,,,,,,,,,,,,,,,,,,,,,,,,,,,,,,,,,,,,,,,,,,,,,,,,,,,,,,,,,,,,,,,,,,,,,,,,,,,,,,,,
,,KILLER,2.448695,1,,,,,,stimuli/images/PICTURE_697.png,KILLER,5ea17afa9b1fb6023ebc9117,24/08/1989,2020-08-13_12h53.18.213,proactive2,2020.1.2,Win32,60,5f341be081b9052c55068110,5f35297c29beab480531b140,4,,,,,,peach,0,3,3,4,1,,,,,,,,,,,,,,,,,,,,,,,,,,,,,,,,,,,,,,,,,,,,,,,,,,,,,,,,,,,,,,,,,,,,,,,,,,,,,,,,,,,,,,,,,,,,,,,,,,,,,,,,,,
,,GENIUS,2.99959,1,,,,,,stimuli/images/PICTURE_269.png,GENIUS,5ea17afa9b1fb6023ebc9117,24/08/1989,2020-08-13_12h53.18.213,proactive2,2020.1.2,Win32,60,5f341be081b9052c55068110,5f35297c29beab480531b140,4,,,,,,chameleon,0,4,4,0,1,,,,,,,,,,,,,,,,,,,,,,,,,,,,,,,,,,,,,,,,,,,,,,,,,,,,,,,,,,,,,,,,,,,,,,,,,,,,,,,,,,,,,,,,,,,,,,,,,,,,,,,,,,
,,,,,,,,,,stimuli/images/PICTURE_208.png,THING,5ea17afa9b1fb6023ebc9117,24/08/1989,2020-08-13_12h53.18.213,proactive2,2020.1.2,Win32,60,5f341be081b9052c55068110,5f35297c29beab480531b140,4,,,,,,microphone,,,,,,0,0,0,47,1,5,0,,,,,,,,,,,,,,,,,,,,,,,,,,,,,,,,,,,,,,,,,,,,,,,,,,,,,,,,,,,,,,,,,,,,,,,,,,,,,,,,,,,,,,,,,,,,,,,,,,,
,,,,,,,,,,stimuli/images/PICTURE_248.png,DOZEN,5ea17afa9b1fb6023ebc9117,24/08/1989,2020-08-13_12h53.18.213,proactive2,2020.1.2,Win32,60,5f341be081b9052c55068110,5f35297c29beab480531b140,4,,,,,,cart,,,,,,0,1,1,39,1,4,0,,,,,,,,,,,,,,,,,,,,,,,,,,,,,,,,,,,,,,,,,,,,,,,,,,,,,,,,,,,,,,,,,,,,,,,,,,,,,,,,,,,,,,,,,,,,,,,,,,,
,,,,,,,,,,stimuli/images/PICTURE_160.png,FEET,5ea17afa9b1fb6023ebc9117,24/08/1989,2020-08-13_12h53.18.213,proactive2,2020.1.2,Win32,60,5f341be081b9052c55068110,5f35297c29beab480531b140,4,,,,,,wheelbarrow,,,,,,0,2,2,58,1,6,0,,,,,,,,,,,,,,,,,,,,,,,,,,,,,,,,,,,,,,,,,,,,,,,,,,,,,,,,,,,,,,,,,,,,,,,,,,,,,,,,,,,,,,,,,,,,,,,,,,,
,,,,,,,,,,stimuli/images/PICTURE_203.png,ARTIST,5ea17afa9b1fb6023ebc9117,24/08/1989,2020-08-13_12h53.18.213,proactive2,2020.1.2,Win32,60,5f341be081b9052c55068110,5f35297c29beab480531b140,4,,,,,,cap,,,,,,0,3,3,26,1,3,0,,,,,,,,,,,,,,,,,,,,,,,,,,,,,,,,,,,,,,,,,,,,,,,,,,,,,,,,,,,,,,,,,,,,,,,,,,,,,,,,,,,,,,,,,,,,,,,,,,,
,,,,,,,,,,stimuli/images/PICTURE_453.png,PLENTY,5ea17afa9b1fb6023ebc9117,24/08/1989,2020-08-13_12h53.18.213,proactive2,2020.1.2,Win32,60,5f341be081b9052c55068110,5f35297c29beab480531b140,4,,,,,,scissors,,,,,,0,4,4,56,1,6,0,,,,,,,,,,,,,,,,,,,,,,,,,,,,,,,,,,,,,,,,,,,,,,,,,,,,,,,,,,,,,,,,,,,,,,,,,,,,,,,,,,,,,,,,,,,,,,,,,,,
,,,,,,,,,,stimuli/images/PICTURE_449.png,THING,5ea17afa9b1fb6023ebc9117,24/08/1989,2020-08-13_12h53.18.213,proactive2,2020.1.2,Win32,60,5f341be081b9052c55068110,5f35297c29beab480531b140,4,,,,,,bench,,,,,,0,5,5,59,1,6,0,,,,,,,,,,,,,,,,,,,,,,,,,,,,,,,,,,,,,,,,,,,,,,,,,,,,,,,,,,,,,,,,,,,,,,,,,,,,,,,,,,,,,,,,,,,,,,,,,,,
,,,,,,,,,,stimuli/images/PICTURE_327.png,BEAUTY,5ea17afa9b1fb6023ebc9117,24/08/1989,2020-08-13_12h53.18.213,proactive2,2020.1.2,Win32,60,5f341be081b9052c55068110,5f35297c29beab480531b140,4,,,,,,helmet,,,,,,0,6,6,48,1,5,0,,,,,,,,,,,,,,,,,,,,,,,,,,,,,,,,,,,,,,,,,,,,,,,,,,,,,,,,,,,,,,,,,,,,,,,,,,,,,,,,,,,,,,,,,,,,,,,,,,,
,,,,,,,,,,stimuli/images/PICTURE_311.png,FRIEND,5ea17afa9b1fb6023ebc9117,24/08/1989,2020-08-13_12h53.18.213,proactive2,2020.1.2,Win32,60,5f341be081b9052c55068110,5f35297c29beab480531b140,4,,,,,,razor,,,,,,0,7,7,34,1,4,0,,,,,,,,,,,,,,,,,,,,,,,,,,,,,,,,,,,,,,,,,,,,,,,,,,,,,,,,,,,,,,,,,,,,,,,,,,,,,,,,,,,,,,,,,,,,,,,,,,,
,,,,,,,,,,stimuli/images/PICTURE_667.png,BATH,5ea17afa9b1fb6023ebc9117,24/08/1989,2020-08-13_12h53.18.213,proactive2,2020.1.2,Win32,60,5f341be081b9052c55068110,5f35297c29beab480531b140,4,,,,,,daisy,,,,,,0,8,8,4,1,1,0,,,,,,,,,,,,,,,,,,,,,,,,,,,,,,,,,,,,,,,,,,,,,,,,,,,,,,,,,,,,,,,,,,,,,,,,,,,,,,,,,,,,,,,,,,,,,,,,,,,
,,,,,,,,,,stimuli/images/PICTURE_308.png,ESTATE,5ea17afa9b1fb6023ebc9117,24/08/1989,2020-08-13_12h53.18.213,proactive2,2020.1.2,Win32,60,5f341be081b9052c55068110,5f35297c29beab480531b140,4,,,,,,dice,,,,,,0,9,9,46,1,5,0,,,,,,,,,,,,,,,,,,,,,,,,,,,,,,,,,,,,,,,,,,,,,,,,,,,,,,,,,,,,,,,,,,,,,,,,,,,,,,,,,,,,,,,,,,,,,,,,,,,
,,,,,,,,,,stimuli/images/PICTURE_302.png,FAMILY,5ea17afa9b1fb6023ebc9117,24/08/1989,2020-08-13_12h53.18.213,proactive2,2020.1.2,Win32,60,5f341be081b9052c55068110,5f35297c29beab480531b140,4,,,,,,taxi,,,,,,0,10,10,18,1,2,0,,,,,,,,,,,,,,,,,,,,,,,,,,,,,,,,,,,,,,,,,,,,,,,,,,,,,,,,,,,,,,,,,,,,,,,,,,,,,,,,,,,,,,,,,,,,,,,,,,,
,,,,,,,,,,stimuli/images/PICTURE_32.png,JUNGLE,5ea17afa9b1fb6023ebc9117,24/08/1989,2020-08-13_12h53.18.213,proactive2,2020.1.2,Win32,60,5f341be081b9052c55068110,5f35297c29beab480531b140,4,,,,,,crown,,,,,,0,11,11,45,1,5,0,,,,,,,,,,,,,,,,,,,,,,,,,,,,,,,,,,,,,,,,,,,,,,,,,,,,,,,,,,,,,,,,,,,,,,,,,,,,,,,,,,,,,,,,,,,,,,,,,,,
,,,,,,,,,,stimuli/images/PICTURE_744.png,SAKE,5ea17afa9b1fb6023ebc9117,24/08/1989,2020-08-13_12h53.18.213,proactive2,2020.1.2,Win32,60,5f341be081b9052c55068110,5f35297c29beab480531b140,4,,,,,,ring,,,,,,0,12,12,17,1,2,0,,,,,,,,,,,,,,,,,,,,,,,,,,,,,,,,,,,,,,,,,,,,,,,,,,,,,,,,,,,,,,,,,,,,,,,,,,,,,,,,,,,,,,,,,,,,,,,,,,,
,,,,,,,,,,stimuli/images/PICTURE_708.png,PENNY,5ea17afa9b1fb6023ebc9117,24/08/1989,2020-08-13_12h53.18.213,proactive2,2020.1.2,Win32,60,5f341be081b9052c55068110,5f35297c29beab480531b140,4,,,,,,monkey,,,,,,0,13,13,31,1,4,0,,,,,,,,,,,,,,,,,,,,,,,,,,,,,,,,,,,,,,,,,,,,,,,,,,,,,,,,,,,,,,,,,,,,,,,,,,,,,,,,,,,,,,,,,,,,,,,,,,,
,,,,,,,,,,stimuli/images/PICTURE_667.png,PLENTY,5ea17afa9b1fb6023ebc9117,24/08/1989,2020-08-13_12h53.18.213,proactive2,2020.1.2,Win32,60,5f341be081b9052c55068110,5f35297c29beab480531b140,4,,,,,,daisy,,,,,,0,14,14,41,1,5,0,,,,,,,,,,,,,,,,,,,,,,,,,,,,,,,,,,,,,,,,,,,,,,,,,,,,,,,,,,,,,,,,,,,,,,,,,,,,,,,,,,,,,,,,,,,,,,,,,,,
,,,,,,,,,,stimuli/images/PICTURE_488.png,STYLE,5ea17afa9b1fb6023ebc9117,24/08/1989,2020-08-13_12h53.18.213,proactive2,2020.1.2,Win32,60,5f341be081b9052c55068110,5f35297c29beab480531b140,4,,,,,,sun,,,,,,0,15,15,33,1,4,0,,,,,,,,,,,,,,,,,,,,,,,,,,,,,,,,,,,,,,,,,,,,,,,,,,,,,,,,,,,,,,,,,,,,,,,,,,,,,,,,,,,,,,,,,,,,,,,,,,,
,,,,,,,,,,stimuli/images/PICTURE_311.png,BEAUTY,5ea17afa9b1fb6023ebc9117,24/08/1989,2020-08-13_12h53.18.213,proactive2,2020.1.2,Win32,60,5f341be081b9052c55068110,5f35297c29beab480531b140,4,,,,,,razor,,,,,,0,16,16,13,1,2,0,,,,,,,,,,,,,,,,,,,,,,,,,,,,,,,,,,,,,,,,,,,,,,,,,,,,,,,,,,,,,,,,,,,,,,,,,,,,,,,,,,,,,,,,,,,,,,,,,,,
,,,,,,,,,,stimuli/images/PICTURE_467.png,DEMON,5ea17afa9b1fb6023ebc9117,24/08/1989,2020-08-13_12h53.18.213,proactive2,2020.1.2,Win32,60,5f341be081b9052c55068110,5f35297c29beab480531b140,4,,,,,,peg,,,,,,0,17,17,23,1,3,0,,,,,,,,,,,,,,,,,,,,,,,,,,,,,,,,,,,,,,,,,,,,,,,,,,,,,,,,,,,,,,,,,,,,,,,,,,,,,,,,,,,,,,,,,,,,,,,,,,,
,,,,,,,,,,stimuli/images/PICTURE_469.png,LETTER,5ea17afa9b1fb6023ebc9117,24/08/1989,2020-08-13_12h53.18.213,proactive2,2020.1.2,Win32,60,5f341be081b9052c55068110,5f35297c29beab480531b140,4,,,,,,stool,,,,,,0,18,18,42,1,5,0,,,,,,,,,,,,,,,,,,,,,,,,,,,,,,,,,,,,,,,,,,,,,,,,,,,,,,,,,,,,,,,,,,,,,,,,,,,,,,,,,,,,,,,,,,,,,,,,,,,
,,,,,,,,,,stimuli/images/PICTURE_308.png,KIND,5ea17afa9b1fb6023ebc9117,24/08/1989,2020-08-13_12h53.18.213,proactive2,2020.1.2,Win32,60,5f341be081b9052c55068110,5f35297c29beab480531b140,4,,,,,,dice,,,,,,0,19,19,54,1,6,0,,,,,,,,,,,,,,,,,,,,,,,,,,,,,,,,,,,,,,,,,,,,,,,,,,,,,,,,,,,,,,,,,,,,,,,,,,,,,,,,,,,,,,,,,,,,,,,,,,,
,,,,,,,,,,stimuli/images/PICTURE_314.png,SAKE,5ea17afa9b1fb6023ebc9117,24/08/1989,2020-08-13_12h53.18.213,proactive2,2020.1.2,Win32,60,5f341be081b9052c55068110,5f35297c29beab480531b140,4,,,,,,perfume,,,,,,0,20,20,7,1,1,0,,,,,,,,,,,,,,,,,,,,,,,,,,,,,,,,,,,,,,,,,,,,,,,,,,,,,,,,,,,,,,,,,,,,,,,,,,,,,,,,,,,,,,,,,,,,,,,,,,,
,,,,,,,,,,stimuli/images/PICTURE_285.png,ADVICE,5ea17afa9b1fb6023ebc9117,24/08/1989,2020-08-13_12h53.18.213,proactive2,2020.1.2,Win32,60,5f341be081b9052c55068110,5f35297c29beab480531b140,4,,,,,,carrot,,,,,,0,21,21,12,1,2,0,,,,,,,,,,,,,,,,,,,,,,,,,,,,,,,,,,,,,,,,,,,,,,,,,,,,,,,,,,,,,,,,,,,,,,,,,,,,,,,,,,,,,,,,,,,,,,,,,,,
,,,,,,,,,,stimuli/images/PICTURE_487.png,FLIGHT,5ea17afa9b1fb6023ebc9117,24/08/1989,2020-08-13_12h53.18.213,proactive2,2020.1.2,Win32,60,5f341be081b9052c55068110,5f35297c29beab480531b140,4,,,,,,basket,,,,,,0,22,22,9,1,1,0,,,,,,,,,,,,,,,,,,,,,,,,,,,,,,,,,,,,,,,,,,,,,,,,,,,,,,,,,,,,,,,,,,,,,,,,,,,,,,,,,,,,,,,,,,,,,,,,,,,
,,,,,,,,,,stimuli/images/PICTURE_95.png,STYLE,5ea17afa9b1fb6023ebc9117,24/08/1989,2020-08-13_12h53.18.213,proactive2,2020.1.2,Win32,60,5f341be081b9052c55068110,5f35297c29beab480531b140,4,,,,,,suitcase,,,,,,0,23,23,25,1,3,0,,,,,,,,,,,,,,,,,,,,,,,,,,,,,,,,,,,,,,,,,,,,,,,,,,,,,,,,,,,,,,,,,,,,,,,,,,,,,,,,,,,,,,,,,,,,,,,,,,,
,,,,,,,,,,stimuli/images/PICTURE_85.png,THING,5ea17afa9b1fb6023ebc9117,24/08/1989,2020-08-13_12h53.18.213,proactive2,2020.1.2,Win32,60,5f341be081b9052c55068110,5f35297c29beab480531b140,4,,,,,,diamond,,,,,,0,24,24,15,1,2,0,,,,,,,,,,,,,,,,,,,,,,,,,,,,,,,,,,,,,,,,,,,,,,,,,,,,,,,,,,,,,,,,,,,,,,,,,,,,,,,,,,,,,,,,,,,,,,,,,,,
,,,,,,,,,,stimuli/images/PICTURE_380.png,PHOTO,5ea17afa9b1fb6023ebc9117,24/08/1989,2020-08-13_12h53.18.213,proactive2,2020.1.2,Win32,60,5f341be081b9052c55068110,5f35297c29beab480531b140,4,,,,,,gorilla,,,,,,0,25,25,52,1,6,0,,,,,,,,,,,,,,,,,,,,,,,,,,,,,,,,,,,,,,,,,,,,,,,,,,,,,,,,,,,,,,,,,,,,,,,,,,,,,,,,,,,,,,,,,,,,,,,,,,,
,,,,,,,,,,stimuli/images/PICTURE_675.png,WEAPON,5ea17afa9b1fb6023ebc9117,24/08/1989,2020-08-13_12h53.18.213,proactive2,2020.1.2,Win32,60,5f341be081b9052c55068110,5f35297c29beab480531b140,4,,,,,,windmill,,,,,,0,26,26,32,1,4,0,,,,,,,,,,,,,,,,,,,,,,,,,,,,,,,,,,,,,,,,,,,,,,,,,,,,,,,,,,,,,,,,,,,,,,,,,,,,,,,,,,,,,,,,,,,,,,,,,,,
,,,,,,,,,,stimuli/images/PICTURE_744.png,SYSTEM,5ea17afa9b1fb6023ebc9117,24/08/1989,2020-08-13_12h53.18.213,proactive2,2020.1.2,Win32,60,5f341be081b9052c55068110,5f35297c29beab480531b140,4,,,,,,ring,,,,,,0,27,27,43,1,5,0,,,,,,,,,,,,,,,,,,,,,,,,,,,,,,,,,,,,,,,,,,,,,,,,,,,,,,,,,,,,,,,,,,,,,,,,,,,,,,,,,,,,,,,,,,,,,,,,,,,
,,,,,,,,,,stimuli/images/PICTURE_504.png,BODY,5ea17afa9b1fb6023ebc9117,24/08/1989,2020-08-13_12h53.18.213,proactive2,2020.1.2,Win32,60,5f341be081b9052c55068110,5f35297c29beab480531b140,4,,,,,,wheel,,,,,,0,28,28,8,1,1,0,,,,,,,,,,,,,,,,,,,,,,,,,,,,,,,,,,,,,,,,,,,,,,,,,,,,,,,,,,,,,,,,,,,,,,,,,,,,,,,,,,,,,,,,,,,,,,,,,,,
,,,,,,,,,,stimuli/images/PICTURE_491.png,WRITER,5ea17afa9b1fb6023ebc9117,24/08/1989,2020-08-13_12h53.18.213,proactive2,2020.1.2,Win32,60,5f341be081b9052c55068110,5f35297c29beab480531b140,4,,,,,,rug,,,,,,0,29,29,57,1,6,0,,,,,,,,,,,,,,,,,,,,,,,,,,,,,,,,,,,,,,,,,,,,,,,,,,,,,,,,,,,,,,,,,,,,,,,,,,,,,,,,,,,,,,,,,,,,,,,,,,,
,,,,,,,,,,stimuli/images/PICTURE_339.png,PLENTY,5ea17afa9b1fb6023ebc9117,24/08/1989,2020-08-13_12h53.18.213,proactive2,2020.1.2,Win32,60,5f341be081b9052c55068110,5f35297c29beab480531b140,4,,,,,,backpack,,,,,,0,30,30,0,1,1,0,,,,,,,,,,,,,,,,,,,,,,,,,,,,,,,,,,,,,,,,,,,,,,,,,,,,,,,,,,,,,,,,,,,,,,,,,,,,,,,,,,,,,,,,,,,,,,,,,,,
,,,,,,,,,,stimuli/images/PICTURE_470.png,CASINO,5ea17afa9b1fb6023ebc9117,24/08/1989,2020-08-13_12h53.18.213,proactive2,2020.1.2,Win32,60,5f341be081b9052c55068110,5f35297c29beab480531b140,4,,,,,,motorbike,,,,,,0,31,31,36,1,4,0,,,,,,,,,,,,,,,,,,,,,,,,,,,,,,,,,,,,,,,,,,,,,,,,,,,,,,,,,,,,,,,,,,,,,,,,,,,,,,,,,,,,,,,,,,,,,,,,,,,
,,,,,,,,,,stimuli/images/PICTURE_348.png,SPEECH,5ea17afa9b1fb6023ebc9117,24/08/1989,2020-08-13_12h53.18.213,proactive2,2020.1.2,Win32,60,5f341be081b9052c55068110,5f35297c29beab480531b140,4,,,,,,pepper,,,,,,0,32,32,20,1,3,0,,,,,,,,,,,,,,,,,,,,,,,,,,,,,,,,,,,,,,,,,,,,,,,,,,,,,,,,,,,,,,,,,,,,,,,,,,,,,,,,,,,,,,,,,,,,,,,,,,,
,,,,,,,,,,stimuli/images/PICTURE_233.png,IDEAS,5ea17afa9b1fb6023ebc9117,24/08/1989,2020-08-13_12h53.18.213,proactive2,2020.1.2,Win32,60,5f341be081b9052c55068110,5f35297c29beab480531b140,4,,,,,,salt,,,,,,0,33,33,28,1,3,0,,,,,,,,,,,,,,,,,,,,,,,,,,,,,,,,,,,,,,,,,,,,,,,,,,,,,,,,,,,,,,,,,,,,,,,,,,,,,,,,,,,,,,,,,,,,,,,,,,,
,,,,,,,,,,stimuli/images/PICTURE_208.png,MONTH,5ea17afa9b1fb6023ebc9117,24/08/1989,2020-08-13_12h53.18.213,proactive2,2020.1.2,Win32,60,5f341be081b9052c55068110,5f35297c29beab480531b140,4,,,,,,microphone,,,,,,0,34,34,53,1,6,0,,,,,,,,,,,,,,,,,,,,,,,,,,,,,,,,,,,,,,,,,,,,,,,,,,,,,,,,,,,,,,,,,,,,,,,,,,,,,,,,,,,,,,,,,,,,,,,,,,,
,,,,,,,,,,stimuli/images/PICTURE_708.png,YARD,5ea17afa9b1fb6023ebc9117,24/08/1989,2020-08-13_12h53.18.213,proactive2,2020.1.2,Win32,60,5f341be081b9052c55068110,5f35297c29beab480531b140,4,,,,,,monkey,,,,,,0,35,35,29,1,3,0,,,,,,,,,,,,,,,,,,,,,,,,,,,,,,,,,,,,,,,,,,,,,,,,,,,,,,,,,,,,,,,,,,,,,,,,,,,,,,,,,,,,,,,,,,,,,,,,,,,
,,,,,,,,,,stimuli/images/PICTURE_233.png,WOMEN,5ea17afa9b1fb6023ebc9117,24/08/1989,2020-08-13_12h53.18.213,proactive2,2020.1.2,Win32,60,5f341be081b9052c55068110,5f35297c29beab480531b140,4,,,,,,salt,,,,,,0,36,36,38,1,4,0,,,,,,,,,,,,,,,,,,,,,,,,,,,,,,,,,,,,,,,,,,,,,,,,,,,,,,,,,,,,,,,,,,,,,,,,,,,,,,,,,,,,,,,,,,,,,,,,,,,
,,,,,,,,,,stimuli/images/PICTURE_654.png,VALLEY,5ea17afa9b1fb6023ebc9117,24/08/1989,2020-08-13_12h53.18.213,proactive2,2020.1.2,Win32,60,5f341be081b9052c55068110,5f35297c29beab480531b140,4,,,,,,pencil,,,,,,0,37,37,1,1,1,0,,,,,,,,,,,,,,,,,,,,,,,,,,,,,,,,,,,,,,,,,,,,,,,,,,,,,,,,,,,,,,,,,,,,,,,,,,,,,,,,,,,,,,,,,,,,,,,,,,,
,,,,,,,,,,stimuli/images/PICTURE_688.png,CASINO,5ea17afa9b1fb6023ebc9117,24/08/1989,2020-08-13_12h53.18.213,proactive2,2020.1.2,Win32,60,5f341be081b9052c55068110,5f35297c29beab480531b140,4,,,,,,runner,,,,,,0,38,38,2,1,1,0,,,,,,,,,,,,,,,,,,,,,,,,,,,,,,,,,,,,,,,,,,,,,,,,,,,,,,,,,,,,,,,,,,,,,,,,,,,,,,,,,,,,,,,,,,,,,,,,,,,
,,,,,,,,,,stimuli/images/PICTURE_509.png,PHOTO,5ea17afa9b1fb6023ebc9117,24/08/1989,2020-08-13_12h53.18.213,proactive2,2020.1.2,Win32,60,5f341be081b9052c55068110,5f35297c29beab480531b140,4,,,,,,telephone,,,,,,0,39,39,21,1,3,0,,,,,,,,,,,,,,,,,,,,,,,,,,,,,,,,,,,,,,,,,,,,,,,,,,,,,,,,,,,,,,,,,,,,,,,,,,,,,,,,,,,,,,,,,,,,,,,,,,,
,,,,,,,,,,stimuli/images/PICTURE_314.png,GODS,5ea17afa9b1fb6023ebc9117,24/08/1989,2020-08-13_12h53.18.213,proactive2,2020.1.2,Win32,60,5f341be081b9052c55068110,5f35297c29beab480531b140,4,,,,,,perfume,,,,,,0,40,40,11,1,2,0,,,,,,,,,,,,,,,,,,,,,,,,,,,,,,,,,,,,,,,,,,,,,,,,,,,,,,,,,,,,,,,,,,,,,,,,,,,,,,,,,,,,,,,,,,,,,,,,,,,
,,,,,,,,,,stimuli/images/PICTURE_123.png,ADVICE,5ea17afa9b1fb6023ebc9117,24/08/1989,2020-08-13_12h53.18.213,proactive2,2020.1.2,Win32,60,5f341be081b9052c55068110,5f35297c29beab480531b140,4,,,,,,dart,,,,,,0,41,41,40,1,5,0,,,,,,,,,,,,,,,,,,,,,,,,,,,,,,,,,,,,,,,,,,,,,,,,,,,,,,,,,,,,,,,,,,,,,,,,,,,,,,,,,,,,,,,,,,,,,,,,,,,
,,,,,,,,,,stimuli/images/PICTURE_469.png,ARTIST,5ea17afa9b1fb6023ebc9117,24/08/1989,2020-08-13_12h53.18.213,proactive2,2020.1.2,Win32,60,5f341be081b9052c55068110,5f35297c29beab480531b140,4,,,,,,stool,,,,,,0,42,42,6,1,1,0,,,,,,,,,,,,,,,,,,,,,,,,,,,,,,,,,,,,,,,,,,,,,,,,,,,,,,,,,,,,,,,,,,,,,,,,,,,,,,,,,,,,,,,,,,,,,,,,,,,
,,,,,,,,,,stimuli/images/PICTURE_491.png,ROOF,5ea17afa9b1fb6023ebc9117,24/08/1989,2020-08-13_12h53.18.213,proactive2,2020.1.2,Win32,60,5f341be081b9052c55068110,5f35297c29beab480531b140,4,,,,,,rug,,,,,,0,43,43,24,1,3,0,,,,,,,,,,,,,,,,,,,,,,,,,,,,,,,,,,,,,,,,,,,,,,,,,,,,,,,,,,,,,,,,,,,,,,,,,,,,,,,,,,,,,,,,,,,,,,,,,,,
,,,,,,,,,,stimuli/images/PICTURE_215.png,PLENTY,5ea17afa9b1fb6023ebc9117,24/08/1989,2020-08-13_12h53.18.213,proactive2,2020.1.2,Win32,60,5f341be081b9052c55068110,5f35297c29beab480531b140,4,,,,,,boot,,,,,,0,44,44,37,1,4,0,,,,,,,,,,,,,,,,,,,,,,,,,,,,,,,,,,,,,,,,,,,,,,,,,,,,,,,,,,,,,,,,,,,,,,,,,,,,,,,,,,,,,,,,,,,,,,,,,,,
,,,,,,,,,,stimuli/images/PICTURE_380.png,DEATH,5ea17afa9b1fb6023ebc9117,24/08/1989,2020-08-13_12h53.18.213,proactive2,2020.1.2,Win32,60,5f341be081b9052c55068110,5f35297c29beab480531b140,4,,,,,,gorilla,,,,,,0,45,45,49,1,5,0,,,,,,,,,,,,,,,,,,,,,,,,,,,,,,,,,,,,,,,,,,,,,,,,,,,,,,,,,,,,,,,,,,,,,,,,,,,,,,,,,,,,,,,,,,,,,,,,,,,
,,,,,,,,,,stimuli/images/PICTURE_68.png,MILE,5ea17afa9b1fb6023ebc9117,24/08/1989,2020-08-13_12h53.18.213,proactive2,2020.1.2,Win32,60,5f341be081b9052c55068110,5f35297c29beab480531b140,4,,,,,,candle,,,,,,0,46,46,44,1,5,0,,,,,,,,,,,,,,,,,,,,,,,,,,,,,,,,,,,,,,,,,,,,,,,,,,,,,,,,,,,,,,,,,,,,,,,,,,,,,,,,,,,,,,,,,,,,,,,,,,,
,,,,,,,,,,stimuli/images/PICTURE_177.png,CARS,5ea17afa9b1fb6023ebc9117,24/08/1989,2020-08-13_12h53.18.213,proactive2,2020.1.2,Win32,60,5f341be081b9052c55068110,5f35297c29beab480531b140,4,,,,,,mushroom,,,,,,0,47,47,35,1,4,0,,,,,,,,,,,,,,,,,,,,,,,,,,,,,,,,,,,,,,,,,,,,,,,,,,,,,,,,,,,,,,,,,,,,,,,,,,,,,,,,,,,,,,,,,,,,,,,,,,,
,,,,,,,,,,stimuli/images/PICTURE_208.png,LOTS,5ea17afa9b1fb6023ebc9117,24/08/1989,2020-08-13_12h53.18.213,proactive2,2020.1.2,Win32,60,5f341be081b9052c55068110,5f35297c29beab480531b140,4,,,,,,microphone,,,,,,0,48,48,10,1,2,0,,,,,,,,,,,,,,,,,,,,,,,,,,,,,,,,,,,,,,,,,,,,,,,,,,,,,,,,,,,,,,,,,,,,,,,,,,,,,,,,,,,,,,,,,,,,,,,,,,,
,,,,,,,,,,stimuli/images/PICTURE_123.png,ADVICE,5ea17afa9b1fb6023ebc9117,24/08/1989,2020-08-13_12h53.18.213,proactive2,2020.1.2,Win32,60,5f341be081b9052c55068110,5f35297c29beab480531b140,4,,,,,,dart,,,,,,0,49,49,50,1,6,0,,,,,,,,,,,,,,,,,,,,,,,,,,,,,,,,,,,,,,,,,,,,,,,,,,,,,,,,,,,,,,,,,,,,,,,,,,,,,,,,,,,,,,,,,,,,,,,,,,,
,,,,,,,,,,stimuli/images/PICTURE_356.png,DANGER,5ea17afa9b1fb6023ebc9117,24/08/1989,2020-08-13_12h53.18.213,proactive2,2020.1.2,Win32,60,5f341be081b9052c55068110,5f35297c29beab480531b140,4,,,,,,pawn,,,,,,0,50,50,55,1,6,0,,,,,,,,,,,,,,,,,,,,,,,,,,,,,,,,,,,,,,,,,,,,,,,,,,,,,,,,,,,,,,,,,,,,,,,,,,,,,,,,,,,,,,,,,,,,,,,,,,,
,,,,,,,,,,stimuli/images/PICTURE_692.png,MONTH,5ea17afa9b1fb6023ebc9117,24/08/1989,2020-08-13_12h53.18.213,proactive2,2020.1.2,Win32,60,5f341be081b9052c55068110,5f35297c29beab480531b140,4,,,,,,cherry,,,,,,0,51,51,16,1,2,0,,,,,,,,,,,,,,,,,,,,,,,,,,,,,,,,,,,,,,,,,,,,,,,,,,,,,,,,,,,,,,,,,,,,,,,,,,,,,,,,,,,,,,,,,,,,,,,,,,,
,,,,,,,,,,stimuli/images/PICTURE_160.png,LEADER,5ea17afa9b1fb6023ebc9117,24/08/1989,2020-08-13_12h53.18.213,proactive2,2020.1.2,Win32,60,5f341be081b9052c55068110,5f35297c29beab480531b140,4,,,,,,wheelbarrow,,,,,,0,52,52,3,1,1,0,,,,,,,,,,,,,,,,,,,,,,,,,,,,,,,,,,,,,,,,,,,,,,,,,,,,,,,,,,,,,,,,,,,,,,,,,,,,,,,,,,,,,,,,,,,,,,,,,,,
,,,,,,,,,,stimuli/images/PICTURE_147.png,MOMENT,5ea17afa9b1fb6023ebc9117,24/08/1989,2020-08-13_12h53.18.213,proactive2,2020.1.2,Win32,60,5f341be081b9052c55068110,5f35297c29beab480531b140,4,,,,,,hanger,,,,,,0,53,53,51,1,6,0,,,,,,,,,,,,,,,,,,,,,,,,,,,,,,,,,,,,,,,,,,,,,,,,,,,,,,,,,,,,,,,,,,,,,,,,,,,,,,,,,,,,,,,,,,,,,,,,,,,
,,,,,,,,,,stimuli/images/PICTURE_708.png,CLIENT,5ea17afa9b1fb6023ebc9117,24/08/1989,2020-08-13_12h53.18.213,proactive2,2020.1.2,Win32,60,5f341be081b9052c55068110,5f35297c29beab480531b140,4,,,,,,monkey,,,,,,0,54,54,5,1,1,0,,,,,,,,,,,,,,,,,,,,,,,,,,,,,,,,,,,,,,,,,,,,,,,,,,,,,,,,,,,,,,,,,,,,,,,,,,,,,,,,,,,,,,,,,,,,,,,,,,,
,,,,,,,,,,stimuli/images/PICTURE_677.png,MILE,5ea17afa9b1fb6023ebc9117,24/08/1989,2020-08-13_12h53.18.213,proactive2,2020.1.2,Win32,60,5f341be081b9052c55068110,5f35297c29beab480531b140,4,,,,,,map,,,,,,0,55,55,30,1,4,0,,,,,,,,,,,,,,,,,,,,,,,,,,,,,,,,,,,,,,,,,,,,,,,,,,,,,,,,,,,,,,,,,,,,,,,,,,,,,,,,,,,,,,,,,,,,,,,,,,,
,,,,,,,,,,stimuli/images/PICTURE_453.png,DUDE,5ea17afa9b1fb6023ebc9117,24/08/1989,2020-08-13_12h53.18.213,proactive2,2020.1.2,Win32,60,5f341be081b9052c55068110,5f35297c29beab480531b140,4,,,,,,scissors,,,,,,0,56,56,27,1,3,0,,,,,,,,,,,,,,,,,,,,,,,,,,,,,,,,,,,,,,,,,,,,,,,,,,,,,,,,,,,,,,,,,,,,,,,,,,,,,,,,,,,,,,,,,,,,,,,,,,,
,,,,,,,,,,stimuli/images/PICTURE_255.png,AREA,5ea17afa9b1fb6023ebc9117,24/08/1989,2020-08-13_12h53.18.213,proactive2,2020.1.2,Win32,60,5f341be081b9052c55068110,5f35297c29beab480531b140,4,,,,,,shovel,,,,,,0,57,57,22,1,3,0,,,,,,,,,,,,,,,,,,,,,,,,,,,,,,,,,,,,,,,,,,,,,,,,,,,,,,,,,,,,,,,,,,,,,,,,,,,,,,,,,,,,,,,,,,,,,,,,,,,
,,,,,,,,,,stimuli/images/PICTURE_151.png,GIRL,5ea17afa9b1fb6023ebc9117,24/08/1989,2020-08-13_12h53.18.213,proactive2,2020.1.2,Win32,60,5f341be081b9052c55068110,5f35297c29beab480531b140,4,,,,,,tray,,,,,,0,58,58,19,1,2,0,,,,,,,,,,,,,,,,,,,,,,,,,,,,,,,,,,,,,,,,,,,,,,,,,,,,,,,,,,,,,,,,,,,,,,,,,,,,,,,,,,,,,,,,,,,,,,,,,,,
,,?,0.00252,0,,,,,,stimuli/images/PICTURE_491.png,WRITER,5ea17afa9b1fb6023ebc9117,24/08/1989,2020-08-13_12h53.18.213,proactive2,2020.1.2,Win32,60,5f341be081b9052c55068110,5f35297c29beab480531b140,4,,,,,,rug,,,,,,,,,,,6,0,0,0,0,57,1,,,,,,,,,,,,,,,,,,,,,,,,,,,,,,,,,,,,,,,,,,,,,,,,,,,,,,,,,,,,,,,,,,,,,,,,,,,,,,,,,,,,,,,,,,,,,,
,,PENNY,2.755885,1,,,,,,stimuli/images/PICTURE_708.png,PENNY,5ea17afa9b1fb6023ebc9117,24/08/1989,2020-08-13_12h53.18.213,proactive2,2020.1.2,Win32,60,5f341be081b9052c55068110,5f35297c29beab480531b140,4,,,,,,monkey,,,,,,,,,,,4,0,0,1,1,31,1,,,,,,,,,,,,,,,,,,,,,,,,,,,,,,,,,,,,,,,,,,,,,,,,,,,,,,,,,,,,,,,,,,,,,,,,,,,,,,,,,,,,,,,,,,,,,,
,,?,0.002315,0,,,,,,stimuli/images/PICTURE_151.png,GIRL,5ea17afa9b1fb6023ebc9117,24/08/1989,2020-08-13_12h53.18.213,proactive2,2020.1.2,Win32,60,5f341be081b9052c55068110,5f35297c29beab480531b140,4,,,,,,tray,,,,,,,,,,,2,0,0,2,2,19,1,,,,,,,,,,,,,,,,,,,,,,,,,,,,,,,,,,,,,,,,,,,,,,,,,,,,,,,,,,,,,,,,,,,,,,,,,,,,,,,,,,,,,,,,,,,,,,
,,?,0.002675,0,,,,,,stimuli/images/PICTURE_314.png,GODS,5ea17afa9b1fb6023ebc9117,24/08/1989,2020-08-13_12h53.18.213,proactive2,2020.1.2,Win32,60,5f341be081b9052c55068110,5f35297c29beab480531b140,4,,,,,,perfume,,,,,,,,,,,2,0,0,3,3,11,1,,,,,,,,,,,,,,,,,,,,,,,,,,,,,,,,,,,,,,,,,,,,,,,,,,,,,,,,,,,,,,,,,,,,,,,,,,,,,,,,,,,,,,,,,,,,,,
,,?,0.00349,0,,,,,,stimuli/images/PICTURE_308.png,ESTATE,5ea17afa9b1fb6023ebc9117,24/08/1989,2020-08-13_12h53.18.213,proactive2,2020.1.2,Win32,60,5f341be081b9052c55068110,5f35297c29beab480531b140,4,,,,,,dice,,,,,,,,,,,5,0,0,4,4,46,1,,,,,,,,,,,,,,,,,,,,,,,,,,,,,,,,,,,,,,,,,,,,,,,,,,,,,,,,,,,,,,,,,,,,,,,,,,,,,,,,,,,,,,,,,,,,,,
,,?,0.00233,0,,,,,,stimuli/images/PICTURE_708.png,YARD,5ea17afa9b1fb6023ebc9117,24/08/1989,2020-08-13_12h53.18.213,proactive2,2020.1.2,Win32,60,5f341be081b9052c55068110,5f35297c29beab480531b140,4,,,,,,monkey,,,,,,,,,,,3,0,0,5,5,29,1,,,,,,,,,,,,,,,,,,,,,,,,,,,,,,,,,,,,,,,,,,,,,,,,,,,,,,,,,,,,,,,,,,,,,,,,,,,,,,,,,,,,,,,,,,,,,,
,,?,0.002325,0,,,,,,stimuli/images/PICTURE_285.png,ADVICE,5ea17afa9b1fb6023ebc9117,24/08/1989,2020-08-13_12h53.18.213,proactive2,2020.1.2,Win32,60,5f341be081b9052c55068110,5f35297c29beab480531b140,4,,,,,,carrot,,,,,,,,,,,2,0,0,6,6,12,1,,,,,,,,,,,,,,,,,,,,,,,,,,,,,,,,,,,,,,,,,,,,,,,,,,,,,,,,,,,,,,,,,,,,,,,,,,,,,,,,,,,,,,,,,,,,,,
,,?,0.002395,0,,,,,,stimuli/images/PICTURE_233.png,IDEAS,5ea17afa9b1fb6023ebc9117,24/08/1989,2020-08-13_12h53.18.213,proactive2,2020.1.2,Win32,60,5f341be081b9052c55068110,5f35297c29beab480531b140,4,,,,,,salt,,,,,,,,,,,3,0,0,7,7,28,1,,,,,,,,,,,,,,,,,,,,,,,,,,,,,,,,,,,,,,,,,,,,,,,,,,,,,,,,,,,,,,,,,,,,,,,,,,,,,,,,,,,,,,,,,,,,,,
,,?,0.002595,0,,,,,,stimuli/images/PICTURE_123.png,ADVICE,5ea17afa9b1fb6023ebc9117,24/08/1989,2020-08-13_12h53.18.213,proactive2,2020.1.2,Win32,60,5f341be081b9052c55068110,5f35297c29beab480531b140,4,,,,,,dart,,,,,,,,,,,6,0,0,8,8,50,1,,,,,,,,,,,,,,,,,,,,,,,,,,,,,,,,,,,,,,,,,,,,,,,,,,,,,,,,,,,,,,,,,,,,,,,,,,,,,,,,,,,,,,,,,,,,,,
,,?,0.003055,0,,,,,,stimuli/images/PICTURE_208.png,LOTS,5ea17afa9b1fb6023ebc9117,24/08/1989,2020-08-13_12h53.18.213,proactive2,2020.1.2,Win32,60,5f341be081b9052c55068110,5f35297c29beab480531b140,4,,,,,,microphone,,,,,,,,,,,2,0,0,9,9,10,1,,,,,,,,,,,,,,,,,,,,,,,,,,,,,,,,,,,,,,,,,,,,,,,,,,,,,,,,,,,,,,,,,,,,,,,,,,,,,,,,,,,,,,,,,,,,,,
,,?,0.002485,0,,,,,,stimuli/images/PICTURE_449.png,THING,5ea17afa9b1fb6023ebc9117,24/08/1989,2020-08-13_12h53.18.213,proactive2,2020.1.2,Win32,60,5f341be081b9052c55068110,5f35297c29beab480531b140,4,,,,,,bench,,,,,,,,,,,6,0,0,10,10,59,1,,,,,,,,,,,,,,,,,,,,,,,,,,,,,,,,,,,,,,,,,,,,,,,,,,,,,,,,,,,,,,,,,,,,,,,,,,,,,,,,,,,,,,,,,,,,,,
,,CAR,4.15743,0,,,,,,stimuli/images/PICTURE_177.png,CARS,5ea17afa9b1fb6023ebc9117,24/08/1989,2020-08-13_12h53.18.213,proactive2,2020.1.2,Win32,60,5f341be081b9052c55068110,5f35297c29beab480531b140,4,,,,,,mushroom,,,,,,,,,,,4,0,0,11,11,35,1,,,,,,,,,,,,,,,,,,,,,,,,,,,,,,,,,,,,,,,,,,,,,,,,,,,,,,,,,,,,,,,,,,,,,,,,,,,,,,,,,,,,,,,,,,,,,,
,,CASINO,3.631515,1,,,,,,stimuli/images/PICTURE_470.png,CASINO,5ea17afa9b1fb6023ebc9117,24/08/1989,2020-08-13_12h53.18.213,proactive2,2020.1.2,Win32,60,5f341be081b9052c55068110,5f35297c29beab480531b140,4,,,,,,motorbike,,,,,,,,,,,4,0,0,12,12,36,1,,,,,,,,,,,,,,,,,,,,,,,,,,,,,,,,,,,,,,,,,,,,,,,,,,,,,,,,,,,,,,,,,,,,,,,,,,,,,,,,,,,,,,,,,,,,,,
,,STYLE,2.548505,1,,,,,,stimuli/images/PICTURE_488.png,STYLE,5ea17afa9b1fb6023ebc9117,24/08/1989,2020-08-13_12h53.18.213,proactive2,2020.1.2,Win32,60,5f341be081b9052c55068110,5f35297c29beab480531b140,4,,,,,,sun,,,,,,,,,,,4,0,0,13,13,33,1,,,,,,,,,,,,,,,,,,,,,,,,,,,,,,,,,,,,,,,,,,,,,,,,,,,,,,,,,,,,,,,,,,,,,,,,,,,,,,,,,,,,,,,,,,,,,,
,,?,0.00228,0,,,,,,stimuli/images/PICTURE_302.png,FAMILY,5ea17afa9b1fb6023ebc9117,24/08/1989,2020-08-13_12h53.18.213,proactive2,2020.1.2,Win32,60,5f341be081b9052c55068110,5f35297c29beab480531b140,4,,,,,,taxi,,,,,,,,,,,2,0,0,14,14,18,1,,,,,,,,,,,,,,,,,,,,,,,,,,,,,,,,,,,,,,,,,,,,,,,,,,,,,,,,,,,,,,,,,,,,,,,,,,,,,,,,,,,,,,,,,,,,,,
,,?,0.002235,0,,,,,,stimuli/images/PICTURE_654.png,VALLEY,5ea17afa9b1fb6023ebc9117,24/08/1989,2020-08-13_12h53.18.213,proactive2,2020.1.2,Win32,60,5f341be081b9052c55068110,5f35297c29beab480531b140,4,,,,,,pencil,,,,,,,,,,,1,0,0,15,15,1,1,,,,,,,,,,,,,,,,,,,,,,,,,,,,,,,,,,,,,,,,,,,,,,,,,,,,,,,,,,,,,,,,,,,,,,,,,,,,,,,,,,,,,,,,,,,,,,
,,?,0.002905,0,,,,,,stimuli/images/PICTURE_667.png,BATH,5ea17afa9b1fb6023ebc9117,24/08/1989,2020-08-13_12h53.18.213,proactive2,2020.1.2,Win32,60,5f341be081b9052c55068110,5f35297c29beab480531b140,4,,,,,,daisy,,,,,,,,,,,1,0,0,16,16,4,1,,,,,,,,,,,,,,,,,,,,,,,,,,,,,,,,,,,,,,,,,,,,,,,,,,,,,,,,,,,,,,,,,,,,,,,,,,,,,,,,,,,,,,,,,,,,,,
,,?,0.002205,0,,,,,,stimuli/images/PICTURE_314.png,SAKE,5ea17afa9b1fb6023ebc9117,24/08/1989,2020-08-13_12h53.18.213,proactive2,2020.1.2,Win32,60,5f341be081b9052c55068110,5f35297c29beab480531b140,4,,,,,,perfume,,,,,,,,,,,1,0,0,17,17,7,1,,,,,,,,,,,,,,,,,,,,,,,,,,,,,,,,,,,,,,,,,,,,,,,,,,,,,,,,,,,,,,,,,,,,,,,,,,,,,,,,,,,,,,,,,,,,,,
,,?,0.002295,0,,,,,,stimuli/images/PICTURE_123.png,ADVICE,5ea17afa9b1fb6023ebc9117,24/08/1989,2020-08-13_12h53.18.213,proactive2,2020.1.2,Win32,60,5f341be081b9052c55068110,5f35297c29beab480531b140,4,,,,,,dart,,,,,,,,,,,5,0,0,18,18,40,1,,,,,,,,,,,,,,,,,,,,,,,,,,,,,,,,,,,,,,,,,,,,,,,,,,,,,,,,,,,,,,,,,,,,,,,,,,,,,,,,,,,,,,,,,,,,,,
,,?,0.002925,0,,,,,,stimuli/images/PICTURE_453.png,PLENTY,5ea17afa9b1fb6023ebc9117,24/08/1989,2020-08-13_12h53.18.213,proactive2,2020.1.2,Win32,60,5f341be081b9052c55068110,5f35297c29beab480531b140,4,,,,,,scissors,,,,,,,,,,,6,0,0,19,19,56,1,,,,,,,,,,,,,,,,,,,,,,,,,,,,,,,,,,,,,,,,,,,,,,,,,,,,,,,,,,,,,,,,,,,,,,,,,,,,,,,,,,,,,,,,,,,,,,
,,?,0.00243,0,,,,,,stimuli/images/PICTURE_467.png,DEMON,5ea17afa9b1fb6023ebc9117,24/08/1989,2020-08-13_12h53.18.213,proactive2,2020.1.2,Win32,60,5f341be081b9052c55068110,5f35297c29beab480531b140,4,,,,,,peg,,,,,,,,,,,3,0,0,20,20,23,1,,,,,,,,,,,,,,,,,,,,,,,,,,,,,,,,,,,,,,,,,,,,,,,,,,,,,,,,,,,,,,,,,,,,,,,,,,,,,,,,,,,,,,,,,,,,,,
,,?,0.002335,0,,,,,,stimuli/images/PICTURE_453.png,DUDE,5ea17afa9b1fb6023ebc9117,24/08/1989,2020-08-13_12h53.18.213,proactive2,2020.1.2,Win32,60,5f341be081b9052c55068110,5f35297c29beab480531b140,4,,,,,,scissors,,,,,,,,,,,3,0,0,21,21,27,1,,,,,,,,,,,,,,,,,,,,,,,,,,,,,,,,,,,,,,,,,,,,,,,,,,,,,,,,,,,,,,,,,,,,,,,,,,,,,,,,,,,,,,,,,,,,,,
,,PLENTY,3.98173,1,,,,,,stimuli/images/PICTURE_215.png,PLENTY,5ea17afa9b1fb6023ebc9117,24/08/1989,2020-08-13_12h53.18.213,proactive2,2020.1.2,Win32,60,5f341be081b9052c55068110,5f35297c29beab480531b140,4,,,,,,boot,,,,,,,,,,,4,0,0,22,22,37,1,,,,,,,,,,,,,,,,,,,,,,,,,,,,,,,,,,,,,,,,,,,,,,,,,,,,,,,,,,,,,,,,,,,,,,,,,,,,,,,,,,,,,,,,,,,,,,
,,?,0.00226,0,,,,,,stimuli/images/PICTURE_380.png,DEATH,5ea17afa9b1fb6023ebc9117,24/08/1989,2020-08-13_12h53.18.213,proactive2,2020.1.2,Win32,60,5f341be081b9052c55068110,5f35297c29beab480531b140,4,,,,,,gorilla,,,,,,,,,,,5,0,0,23,23,49,1,,,,,,,,,,,,,,,,,,,,,,,,,,,,,,,,,,,,,,,,,,,,,,,,,,,,,,,,,,,,,,,,,,,,,,,,,,,,,,,,,,,,,,,,,,,,,,
,,?,0.00275,0,,,,,,stimuli/images/PICTURE_744.png,SAKE,5ea17afa9b1fb6023ebc9117,24/08/1989,2020-08-13_12h53.18.213,proactive2,2020.1.2,Win32,60,5f341be081b9052c55068110,5f35297c29beab480531b140,4,,,,,,ring,,,,,,,,,,,2,0,0,24,24,17,1,,,,,,,,,,,,,,,,,,,,,,,,,,,,,,,,,,,,,,,,,,,,,,,,,,,,,,,,,,,,,,,,,,,,,,,,,,,,,,,,,,,,,,,,,,,,,,
,,?,0.00335,0,,,,,,stimuli/images/PICTURE_68.png,MILE,5ea17afa9b1fb6023ebc9117,24/08/1989,2020-08-13_12h53.18.213,proactive2,2020.1.2,Win32,60,5f341be081b9052c55068110,5f35297c29beab480531b140,4,,,,,,candle,,,,,,,,,,,5,0,0,25,25,44,1,,,,,,,,,,,,,,,,,,,,,,,,,,,,,,,,,,,,,,,,,,,,,,,,,,,,,,,,,,,,,,,,,,,,,,,,,,,,,,,,,,,,,,,,,,,,,,
,,?,0.0022,0,,,,,,stimuli/images/PICTURE_469.png,ARTIST,5ea17afa9b1fb6023ebc9117,24/08/1989,2020-08-13_12h53.18.213,proactive2,2020.1.2,Win32,60,5f341be081b9052c55068110,5f35297c29beab480531b140,4,,,,,,stool,,,,,,,,,,,1,0,0,26,26,6,1,,,,,,,,,,,,,,,,,,,,,,,,,,,,,,,,,,,,,,,,,,,,,,,,,,,,,,,,,,,,,,,,,,,,,,,,,,,,,,,,,,,,,,,,,,,,,,
,,?,0.00233,0,,,,,,stimuli/images/PICTURE_504.png,BODY,5ea17afa9b1fb6023ebc9117,24/08/1989,2020-08-13_12h53.18.213,proactive2,2020.1.2,Win32,60,5f341be081b9052c55068110,5f35297c29beab480531b140,4,,,,,,wheel,,,,,,,,,,,1,0,0,27,27,8,1,,,,,,,,,,,,,,,,,,,,,,,,,,,,,,,,,,,,,,,,,,,,,,,,,,,,,,,,,,,,,,,,,,,,,,,,,,,,,,,,,,,,,,,,,,,,,,
,,?,0.00232,0,,,,,,stimuli/images/PICTURE_95.png,STYLE,5ea17afa9b1fb6023ebc9117,24/08/1989,2020-08-13_12h53.18.213,proactive2,2020.1.2,Win32,60,5f341be081b9052c55068110,5f35297c29beab480531b140,4,,,,,,suitcase,,,,,,,,,,,3,0,0,28,28,25,1,,,,,,,,,,,,,,,,,,,,,,,,,,,,,,,,,,,,,,,,,,,,,,,,,,,,,,,,,,,,,,,,,,,,,,,,,,,,,,,,,,,,,,,,,,,,,,
,,WEAPON,4.475885,1,,,,,,stimuli/images/PICTURE_675.png,WEAPON,5ea17afa9b1fb6023ebc9117,24/08/1989,2020-08-13_12h53.18.213,proactive2,2020.1.2,Win32,60,5f341be081b9052c55068110,5f35297c29beab480531b140,4,,,,,,windmill,,,,,,,,,,,4,0,0,29,29,32,1,,,,,,,,,,,,,,,,,,,,,,,,,,,,,,,,,,,,,,,,,,,,,,,,,,,,,,,,,,,,,,,,,,,,,,,,,,,,,,,,,,,,,,,,,,,,,,
,,?,0.00229,0,,,,,,stimuli/images/PICTURE_491.png,ROOF,5ea17afa9b1fb6023ebc9117,24/08/1989,2020-08-13_12h53.18.213,proactive2,2020.1.2,Win32,60,5f341be081b9052c55068110,5f35297c29beab480531b140,4,,,,,,rug,,,,,,,,,,,3,0,0,30,30,24,1,,,,,,,,,,,,,,,,,,,,,,,,,,,,,,,,,,,,,,,,,,,,,,,,,,,,,,,,,,,,,,,,,,,,,,,,,,,,,,,,,,,,,,,,,,,,,,
,,DOZEN,3.509915,1,,,,,,stimuli/images/PICTURE_248.png,DOZEN,5ea17afa9b1fb6023ebc9117,24/08/1989,2020-08-13_12h53.18.213,proactive2,2020.1.2,Win32,60,5f341be081b9052c55068110,5f35297c29beab480531b140,4,,,,,,cart,,,,,,,,,,,4,0,0,31,31,39,1,,,,,,,,,,,,,,,,,,,,,,,,,,,,,,,,,,,,,,,,,,,,,,,,,,,,,,,,,,,,,,,,,,,,,,,,,,,,,,,,,,,,,,,,,,,,,,
,,?,0.00232,0,,,,,,stimuli/images/PICTURE_255.png,AREA,5ea17afa9b1fb6023ebc9117,24/08/1989,2020-08-13_12h53.18.213,proactive2,2020.1.2,Win32,60,5f341be081b9052c55068110,5f35297c29beab480531b140,4,,,,,,shovel,,,,,,,,,,,3,0,0,32,32,22,1,,,,,,,,,,,,,,,,,,,,,,,,,,,,,,,,,,,,,,,,,,,,,,,,,,,,,,,,,,,,,,,,,,,,,,,,,,,,,,,,,,,,,,,,,,,,,,
,,?,0.00223,0,,,,,,stimuli/images/PICTURE_85.png,THING,5ea17afa9b1fb6023ebc9117,24/08/1989,2020-08-13_12h53.18.213,proactive2,2020.1.2,Win32,60,5f341be081b9052c55068110,5f35297c29beab480531b140,4,,,,,,diamond,,,,,,,,,,,2,0,0,33,33,15,1,,,,,,,,,,,,,,,,,,,,,,,,,,,,,,,,,,,,,,,,,,,,,,,,,,,,,,,,,,,,,,,,,,,,,,,,,,,,,,,,,,,,,,,,,,,,,,
,,?,0.00248,0,,,,,,stimuli/images/PICTURE_208.png,THING,5ea17afa9b1fb6023ebc9117,24/08/1989,2020-08-13_12h53.18.213,proactive2,2020.1.2,Win32,60,5f341be081b9052c55068110,5f35297c29beab480531b140,4,,,,,,microphone,,,,,,,,,,,5,0,0,34,34,47,1,,,,,,,,,,,,,,,,,,,,,,,,,,,,,,,,,,,,,,,,,,,,,,,,,,,,,,,,,,,,,,,,,,,,,,,,,,,,,,,,,,,,,,,,,,,,,,
,,?,0.002245,0,,,,,,stimuli/images/PICTURE_308.png,KIND,5ea17afa9b1fb6023ebc9117,24/08/1989,2020-08-13_12h53.18.213,proactive2,2020.1.2,Win32,60,5f341be081b9052c55068110,5f35297c29beab480531b140,4,,,,,,dice,,,,,,,,,,,6,0,0,35,35,54,1,,,,,,,,,,,,,,,,,,,,,,,,,,,,,,,,,,,,,,,,,,,,,,,,,,,,,,,,,,,,,,,,,,,,,,,,,,,,,,,,,,,,,,,,,,,,,,
,,?,0.00226,0,,,,,,stimuli/images/PICTURE_348.png,SPEECH,5ea17afa9b1fb6023ebc9117,24/08/1989,2020-08-13_12h53.18.213,proactive2,2020.1.2,Win32,60,5f341be081b9052c55068110,5f35297c29beab480531b140,4,,,,,,pepper,,,,,,,,,,,3,0,0,36,36,20,1,,,,,,,,,,,,,,,,,,,,,,,,,,,,,,,,,,,,,,,,,,,,,,,,,,,,,,,,,,,,,,,,,,,,,,,,,,,,,,,,,,,,,,,,,,,,,,
,,MILES,3.00473,0,,,,,,stimuli/images/PICTURE_677.png,MILE,5ea17afa9b1fb6023ebc9117,24/08/1989,2020-08-13_12h53.18.213,proactive2,2020.1.2,Win32,60,5f341be081b9052c55068110,5f35297c29beab480531b140,4,,,,,,map,,,,,,,,,,,4,0,0,37,37,30,1,,,,,,,,,,,,,,,,,,,,,,,,,,,,,,,,,,,,,,,,,,,,,,,,,,,,,,,,,,,,,,,,,,,,,,,,,,,,,,,,,,,,,,,,,,,,,,
,,?,0.00718,0,,,,,,stimuli/images/PICTURE_509.png,PHOTO,5ea17afa9b1fb6023ebc9117,24/08/1989,2020-08-13_12h53.18.213,proactive2,2020.1.2,Win32,60,5f341be081b9052c55068110,5f35297c29beab480531b140,4,,,,,,telephone,,,,,,,,,,,3,0,0,38,38,21,1,,,,,,,,,,,,,,,,,,,,,,,,,,,,,,,,,,,,,,,,,,,,,,,,,,,,,,,,,,,,,,,,,,,,,,,,,,,,,,,,,,,,,,,,,,,,,,
,,?,0.00294,0,,,,,,stimuli/images/PICTURE_744.png,SYSTEM,5ea17afa9b1fb6023ebc9117,24/08/1989,2020-08-13_12h53.18.213,proactive2,2020.1.2,Win32,60,5f341be081b9052c55068110,5f35297c29beab480531b140,4,,,,,,ring,,,,,,,,,,,5,0,0,39,39,43,1,,,,,,,,,,,,,,,,,,,,,,,,,,,,,,,,,,,,,,,,,,,,,,,,,,,,,,,,,,,,,,,,,,,,,,,,,,,,,,,,,,,,,,,,,,,,,,
,,?,0.00244,0,,,,,,stimuli/images/PICTURE_327.png,BEAUTY,5ea17afa9b1fb6023ebc9117,24/08/1989,2020-08-13_12h53.18.213,proactive2,2020.1.2,Win32,60,5f341be081b9052c55068110,5f35297c29beab480531b140,4,,,,,,helmet,,,,,,,,,,,5,0,0,40,40,48,1,,,,,,,,,,,,,,,,,,,,,,,,,,,,,,,,,,,,,,,,,,,,,,,,,,,,,,,,,,,,,,,,,,,,,,,,,,,,,,,,,,,,,,,,,,,,,,
,,WOMAN,3.33515,0,,,,,,stimuli/images/PICTURE_233.png,WOMEN,5ea17afa9b1fb6023ebc9117,24/08/1989,2020-08-13_12h53.18.213,proactive2,2020.1.2,Win32,60,5f341be081b9052c55068110,5f35297c29beab480531b140,4,,,,,,salt,,,,,,,,,,,4,0,0,41,41,38,1,,,,,,,,,,,,,,,,,,,,,,,,,,,,,,,,,,,,,,,,,,,,,,,,,,,,,,,,,,,,,,,,,,,,,,,,,,,,,,,,,,,,,,,,,,,,,,
,,?,0.00251,0,,,,,,stimuli/images/PICTURE_339.png,PLENTY,5ea17afa9b1fb6023ebc9117,24/08/1989,2020-08-13_12h53.18.213,proactive2,2020.1.2,Win32,60,5f341be081b9052c55068110,5f35297c29beab480531b140,4,,,,,,backpack,,,,,,,,,,,1,0,0,42,42,0,1,,,,,,,,,,,,,,,,,,,,,,,,,,,,,,,,,,,,,,,,,,,,,,,,,,,,,,,,,,,,,,,,,,,,,,,,,,,,,,,,,,,,,,,,,,,,,,
,,?,0.00217,0,,,,,,stimuli/images/PICTURE_469.png,LETTER,5ea17afa9b1fb6023ebc9117,24/08/1989,2020-08-13_12h53.18.213,proactive2,2020.1.2,Win32,60,5f341be081b9052c55068110,5f35297c29beab480531b140,4,,,,,,stool,,,,,,,,,,,5,0,0,43,43,42,1,,,,,,,,,,,,,,,,,,,,,,,,,,,,,,,,,,,,,,,,,,,,,,,,,,,,,,,,,,,,,,,,,,,,,,,,,,,,,,,,,,,,,,,,,,,,,,
,,?,0.00339,0,,,,,,stimuli/images/PICTURE_203.png,ARTIST,5ea17afa9b1fb6023ebc9117,24/08/1989,2020-08-13_12h53.18.213,proactive2,2020.1.2,Win32,60,5f341be081b9052c55068110,5f35297c29beab480531b140,4,,,,,,cap,,,,,,,,,,,3,0,0,44,44,26,1,,,,,,,,,,,,,,,,,,,,,,,,,,,,,,,,,,,,,,,,,,,,,,,,,,,,,,,,,,,,,,,,,,,,,,,,,,,,,,,,,,,,,,,,,,,,,,
,,?,0.00219,0,,,,,,stimuli/images/PICTURE_32.png,JUNGLE,5ea17afa9b1fb6023ebc9117,24/08/1989,2020-08-13_12h53.18.213,proactive2,2020.1.2,Win32,60,5f341be081b9052c55068110,5f35297c29beab480531b140,4,,,,,,crown,,,,,,,,,,,5,0,0,45,45,45,1,,,,,,,,,,,,,,,,,,,,,,,,,,,,,,,,,,,,,,,,,,,,,,,,,,,,,,,,,,,,,,,,,,,,,,,,,,,,,,,,,,,,,,,,,,,,,,
,,?,0.003145,0,,,,,,stimuli/images/PICTURE_380.png,PHOTO,5ea17afa9b1fb6023ebc9117,24/08/1989,2020-08-13_12h53.18.213,proactive2,2020.1.2,Win32,60,5f341be081b9052c55068110,5f35297c29beab480531b140,4,,,,,,gorilla,,,,,,,,,,,6,0,0,46,46,52,1,,,,,,,,,,,,,,,,,,,,,,,,,,,,,,,,,,,,,,,,,,,,,,,,,,,,,,,,,,,,,,,,,,,,,,,,,,,,,,,,,,,,,,,,,,,,,,
,,?,0.00231,0,,,,,,stimuli/images/PICTURE_708.png,CLIENT,5ea17afa9b1fb6023ebc9117,24/08/1989,2020-08-13_12h53.18.213,proactive2,2020.1.2,Win32,60,5f341be081b9052c55068110,5f35297c29beab480531b140,4,,,,,,monkey,,,,,,,,,,,1,0,0,47,47,5,1,,,,,,,,,,,,,,,,,,,,,,,,,,,,,,,,,,,,,,,,,,,,,,,,,,,,,,,,,,,,,,,,,,,,,,,,,,,,,,,,,,,,,,,,,,,,,,
,,?,0.002285,0,,,,,,stimuli/images/PICTURE_688.png,WOMEN,5ea17afa9b1fb6023ebc9117,24/08/1989,2020-08-13_12h53.18.213,proactive2,2020.1.2,Win32,60,5f341be081b9052c55068110,5f35297c29beab480531b140,4,,,,,,runner,,,,,,,,,,,2,0,0,48,48,14,1,,,,,,,,,,,,,,,,,,,,,,,,,,,,,,,,,,,,,,,,,,,,,,,,,,,,,,,,,,,,,,,,,,,,,,,,,,,,,,,,,,,,,,,,,,,,,,
,,?,0.006005,0,,,,,,stimuli/images/PICTURE_160.png,FEET,5ea17afa9b1fb6023ebc9117,24/08/1989,2020-08-13_12h53.18.213,proactive2,2020.1.2,Win32,60,5f341be081b9052c55068110,5f35297c29beab480531b140,4,,,,,,wheelbarrow,,,,,,,,,,,6,0,0,49,49,58,1,,,,,,,,,,,,,,,,,,,,,,,,,,,,,,,,,,,,,,,,,,,,,,,,,,,,,,,,,,,,,,,,,,,,,,,,,,,,,,,,,,,,,,,,,,,,,,
,,?,0.002365,0,,,,,,stimuli/images/PICTURE_667.png,PLENTY,5ea17afa9b1fb6023ebc9117,24/08/1989,2020-08-13_12h53.18.213,proactive2,2020.1.2,Win32,60,5f341be081b9052c55068110,5f35297c29beab480531b140,4,,,,,,daisy,,,,,,,,,,,5,0,0,50,50,41,1,,,,,,,,,,,,,,,,,,,,,,,,,,,,,,,,,,,,,,,,,,,,,,,,,,,,,,,,,,,,,,,,,,,,,,,,,,,,,,,,,,,,,,,,,,,,,,
,,FRIEND,3.85671,1,,,,,,stimuli/images/PICTURE_311.png,FRIEND,5ea17afa9b1fb6023ebc9117,24/08/1989,2020-08-13_12h53.18.213,proactive2,2020.1.2,Win32,60,5f341be081b9052c55068110,5f35297c29beab480531b140,4,,,,,,razor,,,,,,,,,,,4,0,0,51,51,34,1,,,,,,,,,,,,,,,,,,,,,,,,,,,,,,,,,,,,,,,,,,,,,,,,,,,,,,,,,,,,,,,,,,,,,,,,,,,,,,,,,,,,,,,,,,,,,,
,,?,0.002265,0,,,,,,stimuli/images/PICTURE_147.png,MOMENT,5ea17afa9b1fb6023ebc9117,24/08/1989,2020-08-13_12h53.18.213,proactive2,2020.1.2,Win32,60,5f341be081b9052c55068110,5f35297c29beab480531b140,4,,,,,,hanger,,,,,,,,,,,6,0,0,52,52,51,1,,,,,,,,,,,,,,,,,,,,,,,,,,,,,,,,,,,,,,,,,,,,,,,,,,,,,,,,,,,,,,,,,,,,,,,,,,,,,,,,,,,,,,,,,,,,,,
,,?,0.00254,0,,,,,,stimuli/images/PICTURE_487.png,FLIGHT,5ea17afa9b1fb6023ebc9117,24/08/1989,2020-08-13_12h53.18.213,proactive2,2020.1.2,Win32,60,5f341be081b9052c55068110,5f35297c29beab480531b140,4,,,,,,basket,,,,,,,,,,,1,0,0,53,53,9,1,,,,,,,,,,,,,,,,,,,,,,,,,,,,,,,,,,,,,,,,,,,,,,,,,,,,,,,,,,,,,,,,,,,,,,,,,,,,,,,,,,,,,,,,,,,,,,
,,?,0.002345,0,,,,,,stimuli/images/PICTURE_356.png,DANGER,5ea17afa9b1fb6023ebc9117,24/08/1989,2020-08-13_12h53.18.213,proactive2,2020.1.2,Win32,60,5f341be081b9052c55068110,5f35297c29beab480531b140,4,,,,,,pawn,,,,,,,,,,,6,0,0,54,54,55,1,,,,,,,,,,,,,,,,,,,,,,,,,,,,,,,,,,,,,,,,,,,,,,,,,,,,,,,,,,,,,,,,,,,,,,,,,,,,,,,,,,,,,,,,,,,,,,
,,?,0.00281,0,,,,,,stimuli/images/PICTURE_311.png,BEAUTY,5ea17afa9b1fb6023ebc9117,24/08/1989,2020-08-13_12h53.18.213,proactive2,2020.1.2,Win32,60,5f341be081b9052c55068110,5f35297c29beab480531b140,4,,,,,,razor,,,,,,,,,,,2,0,0,55,55,13,1,,,,,,,,,,,,,,,,,,,,,,,,,,,,,,,,,,,,,,,,,,,,,,,,,,,,,,,,,,,,,,,,,,,,,,,,,,,,,,,,,,,,,,,,,,,,,,
,,?,0.002225,0,,,,,,stimuli/images/PICTURE_208.png,MONTH,5ea17afa9b1fb6023ebc9117,24/08/1989,2020-08-13_12h53.18.213,proactive2,2020.1.2,Win32,60,5f341be081b9052c55068110,5f35297c29beab480531b140,4,,,,,,microphone,,,,,,,,,,,6,0,0,56,56,53,1,,,,,,,,,,,,,,,,,,,,,,,,,,,,,,,,,,,,,,,,,,,,,,,,,,,,,,,,,,,,,,,,,,,,,,,,,,,,,,,,,,,,,,,,,,,,,,
,,?,0.003235,0,,,,,,stimuli/images/PICTURE_160.png,LEADER,5ea17afa9b1fb6023ebc9117,24/08/1989,2020-08-13_12h53.18.213,proactive2,2020.1.2,Win32,60,5f341be081b9052c55068110,5f35297c29beab480531b140,4,,,,,,wheelbarrow,,,,,,,,,,,1,0,0,57,57,3,1,,,,,,,,,,,,,,,,,,,,,,,,,,,,,,,,,,,,,,,,,,,,,,,,,,,,,,,,,,,,,,,,,,,,,,,,,,,,,,,,,,,,,,,,,,,,,,
,,?,0.002435,0,,,,,,stimuli/images/PICTURE_692.png,MONTH,5ea17afa9b1fb6023ebc9117,24/08/1989,2020-08-13_12h53.18.213,proactive2,2020.1.2,Win32,60,5f341be081b9052c55068110,5f35297c29beab480531b140,4,,,,,,cherry,,,,,,,,,,,2,0,0,58,58,16,1,,,,,,,,,,,,,,,,,,,,,,,,,,,,,,,,,,,,,,,,,,,,,,,,,,,,,,,,,,,,,,,,,,,,,,,,,,,,,,,,,,,,,,,,,,,,,,
,,?,0.002065,0,,,,,,stimuli/images/PICTURE_688.png,CASINO,5ea17afa9b1fb6023ebc9117,24/08/1989,2020-08-13_12h53.18.213,proactive2,2020.1.2,Win32,60,5f341be081b9052c55068110,5f35297c29beab480531b140,4,,,,,,runner,,,,,,,,,,,1,0,0,59,59,2,1,,,,,,,,,,,,,,,,,,,,,,,,,,,,,,,,,,,,,,,,,,,,,,,,,,,,,,,,,,,,,,,,,,,,,,,,,,,,,,,,,,,,,,,,,,,,,,
,,,,,,,,,,,,5ea17afa9b1fb6023ebc9117,24/08/1989,2020-08-13_12h53.18.213,proactive2,2020.1.2,Win32,60,5f341be081b9052c55068110,5f35297c29beab480531b140,4,,,,,,,,,,,,,,,,,,,,,,,,0,0,0,0,1,stimuli/learn-block1.csv,,,,,,,,,,,,,,,,,,,,,,,,,,,,,,,,,,,,,,,,,,,,,,,,,,,,,,,,,,,,,,,,,,,,,,,,,,,,,,,,,,,,,,,,
,,,,,,,,,,stimuli/images/PICTURE_452.png,COPS,5ea17afa9b1fb6023ebc9117,24/08/1989,2020-08-13_12h53.18.213,proactive2,2020.1.2,Win32,60,5f341be081b9052c55068110,5f35297c29beab480531b140,4,,,,,,watch,,,,,,0,0,0,0,1,1,2,,,,,,,,,,,,,,,,,,,,,,,,,,,,,,,,,,,,,,,,,,,,,,,,,,,,,,,,,,,,,,,,,,,,,,,,,,,,,,,,,,,,,,,,,,,,,,,,,,,
,,,,,,,,,,stimuli/images/PICTURE_405.png,JUNGLE,5ea17afa9b1fb6023ebc9117,24/08/1989,2020-08-13_12h53.18.213,proactive2,2020.1.2,Win32,60,5f341be081b9052c55068110,5f35297c29beab480531b140,4,,,,,,anchor,,,,,,0,1,1,58,1,6,2,,,,,,,,,,,,,,,,,,,,,,,,,,,,,,,,,,,,,,,,,,,,,,,,,,,,,,,,,,,,,,,,,,,,,,,,,,,,,,,,,,,,,,,,,,,,,,,,,,,
,,,,,,,,,,stimuli/images/PICTURE_487.png,ROOF,5ea17afa9b1fb6023ebc9117,24/08/1989,2020-08-13_12h53.18.213,proactive2,2020.1.2,Win32,60,5f341be081b9052c55068110,5f35297c29beab480531b140,4,,,,,,basket,,,,,,0,2,2,50,1,6,2,,,,,,,,,,,,,,,,,,,,,,,,,,,,,,,,,,,,,,,,,,,,,,,,,,,,,,,,,,,,,,,,,,,,,,,,,,,,,,,,,,,,,,,,,,,,,,,,,,,
,,,,,,,,,,stimuli/images/PICTURE_470.png,MOMENT,5ea17afa9b1fb6023ebc9117,24/08/1989,2020-08-13_12h53.18.213,proactive2,2020.1.2,Win32,60,5f341be081b9052c55068110,5f35297c29beab480531b140,4,,,,,,motorbike,,,,,,0,3,3,40,1,5,2,,,,,,,,,,,,,,,,,,,,,,,,,,,,,,,,,,,,,,,,,,,,,,,,,,,,,,,,,,,,,,,,,,,,,,,,,,,,,,,,,,,,,,,,,,,,,,,,,,,
,,,,,,,,,,stimuli/images/PICTURE_177.png,HOUSE,5ea17afa9b1fb6023ebc9117,24/08/1989,2020-08-13_12h53.18.213,proactive2,2020.1.2,Win32,60,5f341be081b9052c55068110,5f35297c29beab480531b140,4,,,,,,mushroom,,,,,,0,4,4,25,1,3,2,,,,,,,,,,,,,,,,,,,,,,,,,,,,,,,,,,,,,,,,,,,,,,,,,,,,,,,,,,,,,,,,,,,,,,,,,,,,,,,,,,,,,,,,,,,,,,,,,,,
,,,,,,,,,,stimuli/images/PICTURE_57.png,NATION,5ea17afa9b1fb6023ebc9117,24/08/1989,2020-08-13_12h53.18.213,proactive2,2020.1.2,Win32,60,5f341be081b9052c55068110,5f35297c29beab480531b140,4,,,,,,stamp,,,,,,0,5,5,21,1,3,2,,,,,,,,,,,,,,,,,,,,,,,,,,,,,,,,,,,,,,,,,,,,,,,,,,,,,,,,,,,,,,,,,,,,,,,,,,,,,,,,,,,,,,,,,,,,,,,,,,,
,,,,,,,,,,stimuli/images/PICTURE_57.png,CANDY,5ea17afa9b1fb6023ebc9117,24/08/1989,2020-08-13_12h53.18.213,proactive2,2020.1.2,Win32,60,5f341be081b9052c55068110,5f35297c29beab480531b140,4,,,,,,stamp,,,,,,0,6,6,52,1,6,2,,,,,,,,,,,,,,,,,,,,,,,,,,,,,,,,,,,,,,,,,,,,,,,,,,,,,,,,,,,,,,,,,,,,,,,,,,,,,,,,,,,,,,,,,,,,,,,,,,,
,,,,,,,,,,stimuli/images/PICTURE_491.png,SERIES,5ea17afa9b1fb6023ebc9117,24/08/1989,2020-08-13_12h53.18.213,proactive2,2020.1.2,Win32,60,5f341be081b9052c55068110,5f35297c29beab480531b140,4,,,,,,rug,,,,,,0,7,7,39,1,4,2,,,,,,,,,,,,,,,,,,,,,,,,,,,,,,,,,,,,,,,,,,,,,,,,,,,,,,,,,,,,,,,,,,,,,,,,,,,,,,,,,,,,,,,,,,,,,,,,,,,
,,,,,,,,,,stimuli/images/PICTURE_2.png,JUNGLE,5ea17afa9b1fb6023ebc9117,24/08/1989,2020-08-13_12h53.18.213,proactive2,2020.1.2,Win32,60,5f341be081b9052c55068110,5f35297c29beab480531b140,4,,,,,,tyre,,,,,,0,8,8,1,1,1,2,,,,,,,,,,,,,,,,,,,,,,,,,,,,,,,,,,,,,,,,,,,,,,,,,,,,,,,,,,,,,,,,,,,,,,,,,,,,,,,,,,,,,,,,,,,,,,,,,,,
,,,,,,,,,,stimuli/images/PICTURE_95.png,NIGHT,5ea17afa9b1fb6023ebc9117,24/08/1989,2020-08-13_12h53.18.213,proactive2,2020.1.2,Win32,60,5f341be081b9052c55068110,5f35297c29beab480531b140,4,,,,,,suitcase,,,,,,0,9,9,37,1,4,2,,,,,,,,,,,,,,,,,,,,,,,,,,,,,,,,,,,,,,,,,,,,,,,,,,,,,,,,,,,,,,,,,,,,,,,,,,,,,,,,,,,,,,,,,,,,,,,,,,,
,,,,,,,,,,stimuli/images/PICTURE_564.png,PLENTY,5ea17afa9b1fb6023ebc9117,24/08/1989,2020-08-13_12h53.18.213,proactive2,2020.1.2,Win32,60,5f341be081b9052c55068110,5f35297c29beab480531b140,4,,,,,,spoon,,,,,,0,10,10,11,1,2,2,,,,,,,,,,,,,,,,,,,,,,,,,,,,,,,,,,,,,,,,,,,,,,,,,,,,,,,,,,,,,,,,,,,,,,,,,,,,,,,,,,,,,,,,,,,,,,,,,,,
,,,,,,,,,,stimuli/images/PICTURE_314.png,SPEECH,5ea17afa9b1fb6023ebc9117,24/08/1989,2020-08-13_12h53.18.213,proactive2,2020.1.2,Win32,60,5f341be081b9052c55068110,5f35297c29beab480531b140,4,,,,,,perfume,,,,,,0,11,11,35,1,4,2,,,,,,,,,,,,,,,,,,,,,,,,,,,,,,,,,,,,,,,,,,,,,,,,,,,,,,,,,,,,,,,,,,,,,,,,,,,,,,,,,,,,,,,,,,,,,,,,,,,
,,,,,,,,,,stimuli/images/PICTURE_296.png,CLOCK,5ea17afa9b1fb6023ebc9117,24/08/1989,2020-08-13_12h53.18.213,proactive2,2020.1.2,Win32,60,5f341be081b9052c55068110,5f35297c29beab480531b140,4,,,,,,bolt,,,,,,0,12,12,18,1,2,2,,,,,,,,,,,,,,,,,,,,,,,,,,,,,,,,,,,,,,,,,,,,,,,,,,,,,,,,,,,,,,,,,,,,,,,,,,,,,,,,,,,,,,,,,,,,,,,,,,,
,,,,,,,,,,stimuli/images/PICTURE_285.png,PRINCE,5ea17afa9b1fb6023ebc9117,24/08/1989,2020-08-13_12h53.18.213,proactive2,2020.1.2,Win32,60,5f341be081b9052c55068110,5f35297c29beab480531b140,4,,,,,,carrot,,,,,,0,13,13,20,1,3,2,,,,,,,,,,,,,,,,,,,,,,,,,,,,,,,,,,,,,,,,,,,,,,,,,,,,,,,,,,,,,,,,,,,,,,,,,,,,,,,,,,,,,,,,,,,,,,,,,,,
,,,,,,,,,,stimuli/images/PICTURE_327.png,LEADER,5ea17afa9b1fb6023ebc9117,24/08/1989,2020-08-13_12h53.18.213,proactive2,2020.1.2,Win32,60,5f341be081b9052c55068110,5f35297c29beab480531b140,4,,,,,,helmet,,,,,,0,14,14,17,1,2,2,,,,,,,,,,,,,,,,,,,,,,,,,,,,,,,,,,,,,,,,,,,,,,,,,,,,,,,,,,,,,,,,,,,,,,,,,,,,,,,,,,,,,,,,,,,,,,,,,,,
,,,,,,,,,,stimuli/images/PICTURE_57.png,CASINO,5ea17afa9b1fb6023ebc9117,24/08/1989,2020-08-13_12h53.18.213,proactive2,2020.1.2,Win32,60,5f341be081b9052c55068110,5f35297c29beab480531b140,4,,,,,,stamp,,,,,,0,15,15,12,1,2,2,,,,,,,,,,,,,,,,,,,,,,,,,,,,,,,,,,,,,,,,,,,,,,,,,,,,,,,,,,,,,,,,,,,,,,,,,,,,,,,,,,,,,,,,,,,,,,,,,,,
,,,,,,,,,,stimuli/images/PICTURE_147.png,LEADER,5ea17afa9b1fb6023ebc9117,24/08/1989,2020-08-13_12h53.18.213,proactive2,2020.1.2,Win32,60,5f341be081b9052c55068110,5f35297c29beab480531b140,4,,,,,,hanger,,,,,,0,16,16,33,1,4,2,,,,,,,,,,,,,,,,,,,,,,,,,,,,,,,,,,,,,,,,,,,,,,,,,,,,,,,,,,,,,,,,,,,,,,,,,,,,,,,,,,,,,,,,,,,,,,,,,,,
,,,,,,,,,,stimuli/images/PICTURE_677.png,FAMILY,5ea17afa9b1fb6023ebc9117,24/08/1989,2020-08-13_12h53.18.213,proactive2,2020.1.2,Win32,60,5f341be081b9052c55068110,5f35297c29beab480531b140,4,,,,,,map,,,,,,0,17,17,53,1,6,2,,,,,,,,,,,,,,,,,,,,,,,,,,,,,,,,,,,,,,,,,,,,,,,,,,,,,,,,,,,,,,,,,,,,,,,,,,,,,,,,,,,,,,,,,,,,,,,,,,,
,,,,,,,,,,stimuli/images/PICTURE_654.png,COPS,5ea17afa9b1fb6023ebc9117,24/08/1989,2020-08-13_12h53.18.213,proactive2,2020.1.2,Win32,60,5f341be081b9052c55068110,5f35297c29beab480531b140,4,,,,,,pencil,,,,,,0,18,18,10,1,2,2,,,,,,,,,,,,,,,,,,,,,,,,,,,,,,,,,,,,,,,,,,,,,,,,,,,,,,,,,,,,,,,,,,,,,,,,,,,,,,,,,,,,,,,,,,,,,,,,,,,
,,,,,,,,,,stimuli/images/PICTURE_677.png,PHOTO,5ea17afa9b1fb6023ebc9117,24/08/1989,2020-08-13_12h53.18.213,proactive2,2020.1.2,Win32,60,5f341be081b9052c55068110,5f35297c29beab480531b140,4,,,,,,map,,,,,,0,19,19,14,1,2,2,,,,,,,,,,,,,,,,,,,,,,,,,,,,,,,,,,,,,,,,,,,,,,,,,,,,,,,,,,,,,,,,,,,,,,,,,,,,,,,,,,,,,,,,,,,,,,,,,,,
,,,,,,,,,,stimuli/images/PICTURE_509.png,APPLE,5ea17afa9b1fb6023ebc9117,24/08/1989,2020-08-13_12h53.18.213,proactive2,2020.1.2,Win32,60,5f341be081b9052c55068110,5f35297c29beab480531b140,4,,,,,,telephone,,,,,,0,20,20,38,1,4,2,,,,,,,,,,,,,,,,,,,,,,,,,,,,,,,,,,,,,,,,,,,,,,,,,,,,,,,,,,,,,,,,,,,,,,,,,,,,,,,,,,,,,,,,,,,,,,,,,,,
,,,,,,,,,,stimuli/images/PICTURE_2.png,YARD,5ea17afa9b1fb6023ebc9117,24/08/1989,2020-08-13_12h53.18.213,proactive2,2020.1.2,Win32,60,5f341be081b9052c55068110,5f35297c29beab480531b140,4,,,,,,tyre,,,,,,0,21,21,55,1,6,2,,,,,,,,,,,,,,,,,,,,,,,,,,,,,,,,,,,,,,,,,,,,,,,,,,,,,,,,,,,,,,,,,,,,,,,,,,,,,,,,,,,,,,,,,,,,,,,,,,,
,,,,,,,,,,stimuli/images/PICTURE_509.png,MILLER,5ea17afa9b1fb6023ebc9117,24/08/1989,2020-08-13_12h53.18.213,proactive2,2020.1.2,Win32,60,5f341be081b9052c55068110,5f35297c29beab480531b140,4,,,,,,telephone,,,,,,0,22,22,49,1,5,2,,,,,,,,,,,,,,,,,,,,,,,,,,,,,,,,,,,,,,,,,,,,,,,,,,,,,,,,,,,,,,,,,,,,,,,,,,,,,,,,,,,,,,,,,,,,,,,,,,,
,,,,,,,,,,stimuli/images/PICTURE_68.png,KIND,5ea17afa9b1fb6023ebc9117,24/08/1989,2020-08-13_12h53.18.213,proactive2,2020.1.2,Win32,60,5f341be081b9052c55068110,5f35297c29beab480531b140,4,,,,,,candle,,,,,,0,23,23,23,1,3,2,,,,,,,,,,,,,,,,,,,,,,,,,,,,,,,,,,,,,,,,,,,,,,,,,,,,,,,,,,,,,,,,,,,,,,,,,,,,,,,,,,,,,,,,,,,,,,,,,,,
,,,,,,,,,,stimuli/images/PICTURE_470.png,BEAUTY,5ea17afa9b1fb6023ebc9117,24/08/1989,2020-08-13_12h53.18.213,proactive2,2020.1.2,Win32,60,5f341be081b9052c55068110,5f35297c29beab480531b140,4,,,,,,motorbike,,,,,,0,24,24,26,1,3,2,,,,,,,,,,,,,,,,,,,,,,,,,,,,,,,,,,,,,,,,,,,,,,,,,,,,,,,,,,,,,,,,,,,,,,,,,,,,,,,,,,,,,,,,,,,,,,,,,,,
,,,,,,,,,,stimuli/images/PICTURE_655.png,SALE,5ea17afa9b1fb6023ebc9117,24/08/1989,2020-08-13_12h53.18.213,proactive2,2020.1.2,Win32,60,5f341be081b9052c55068110,5f35297c29beab480531b140,4,,,,,,megaphone,,,,,,0,25,25,57,1,6,2,,,,,,,,,,,,,,,,,,,,,,,,,,,,,,,,,,,,,,,,,,,,,,,,,,,,,,,,,,,,,,,,,,,,,,,,,,,,,,,,,,,,,,,,,,,,,,,,,,,
,,,,,,,,,,stimuli/images/PICTURE_654.png,YEAR,5ea17afa9b1fb6023ebc9117,24/08/1989,2020-08-13_12h53.18.213,proactive2,2020.1.2,Win32,60,5f341be081b9052c55068110,5f35297c29beab480531b140,4,,,,,,pencil,,,,,,0,26,26,41,1,5,2,,,,,,,,,,,,,,,,,,,,,,,,,,,,,,,,,,,,,,,,,,,,,,,,,,,,,,,,,,,,,,,,,,,,,,,,,,,,,,,,,,,,,,,,,,,,,,,,,,,
,,,,,,,,,,stimuli/images/PICTURE_356.png,CANDY,5ea17afa9b1fb6023ebc9117,24/08/1989,2020-08-13_12h53.18.213,proactive2,2020.1.2,Win32,60,5f341be081b9052c55068110,5f35297c29beab480531b140,4,,,,,,pawn,,,,,,0,27,27,46,1,5,2,,,,,,,,,,,,,,,,,,,,,,,,,,,,,,,,,,,,,,,,,,,,,,,,,,,,,,,,,,,,,,,,,,,,,,,,,,,,,,,,,,,,,,,,,,,,,,,,,,,
,,,,,,,,,,stimuli/images/PICTURE_297.png,BODY,5ea17afa9b1fb6023ebc9117,24/08/1989,2020-08-13_12h53.18.213,proactive2,2020.1.2,Win32,60,5f341be081b9052c55068110,5f35297c29beab480531b140,4,,,,,,aeroplane,,,,,,0,28,28,51,1,6,2,,,,,,,,,,,,,,,,,,,,,,,,,,,,,,,,,,,,,,,,,,,,,,,,,,,,,,,,,,,,,,,,,,,,,,,,,,,,,,,,,,,,,,,,,,,,,,,,,,,
,,,,,,,,,,stimuli/images/PICTURE_208.png,SPIRIT,5ea17afa9b1fb6023ebc9117,24/08/1989,2020-08-13_12h53.18.213,proactive2,2020.1.2,Win32,60,5f341be081b9052c55068110,5f35297c29beab480531b140,4,,,,,,microphone,,,,,,0,29,29,28,1,3,2,,,,,,,,,,,,,,,,,,,,,,,,,,,,,,,,,,,,,,,,,,,,,,,,,,,,,,,,,,,,,,,,,,,,,,,,,,,,,,,,,,,,,,,,,,,,,,,,,,,
,,,,,,,,,,stimuli/images/PICTURE_215.png,LEADER,5ea17afa9b1fb6023ebc9117,24/08/1989,2020-08-13_12h53.18.213,proactive2,2020.1.2,Win32,60,5f341be081b9052c55068110,5f35297c29beab480531b140,4,,,,,,boot,,,,,,0,30,30,43,1,5,2,,,,,,,,,,,,,,,,,,,,,,,,,,,,,,,,,,,,,,,,,,,,,,,,,,,,,,,,,,,,,,,,,,,,,,,,,,,,,,,,,,,,,,,,,,,,,,,,,,,
,,,,,,,,,,stimuli/images/PICTURE_285.png,WRITER,5ea17afa9b1fb6023ebc9117,24/08/1989,2020-08-13_12h53.18.213,proactive2,2020.1.2,Win32,60,5f341be081b9052c55068110,5f35297c29beab480531b140,4,,,,,,carrot,,,,,,0,31,31,6,1,1,2,,,,,,,,,,,,,,,,,,,,,,,,,,,,,,,,,,,,,,,,,,,,,,,,,,,,,,,,,,,,,,,,,,,,,,,,,,,,,,,,,,,,,,,,,,,,,,,,,,,
,,,,,,,,,,stimuli/images/PICTURE_403.png,FAMILY,5ea17afa9b1fb6023ebc9117,24/08/1989,2020-08-13_12h53.18.213,proactive2,2020.1.2,Win32,60,5f341be081b9052c55068110,5f35297c29beab480531b140,4,,,,,,cathedral,,,,,,0,32,32,9,1,1,2,,,,,,,,,,,,,,,,,,,,,,,,,,,,,,,,,,,,,,,,,,,,,,,,,,,,,,,,,,,,,,,,,,,,,,,,,,,,,,,,,,,,,,,,,,,,,,,,,,,
,,,,,,,,,,stimuli/images/PICTURE_750.png,POLICY,5ea17afa9b1fb6023ebc9117,24/08/1989,2020-08-13_12h53.18.213,proactive2,2020.1.2,Win32,60,5f341be081b9052c55068110,5f35297c29beab480531b140,4,,,,,,kettle,,,,,,0,33,33,44,1,5,2,,,,,,,,,,,,,,,,,,,,,,,,,,,,,,,,,,,,,,,,,,,,,,,,,,,,,,,,,,,,,,,,,,,,,,,,,,,,,,,,,,,,,,,,,,,,,,,,,,,
,,,,,,,,,,stimuli/images/PICTURE_311.png,FLESH,5ea17afa9b1fb6023ebc9117,24/08/1989,2020-08-13_12h53.18.213,proactive2,2020.1.2,Win32,60,5f341be081b9052c55068110,5f35297c29beab480531b140,4,,,,,,razor,,,,,,0,34,34,3,1,1,2,,,,,,,,,,,,,,,,,,,,,,,,,,,,,,,,,,,,,,,,,,,,,,,,,,,,,,,,,,,,,,,,,,,,,,,,,,,,,,,,,,,,,,,,,,,,,,,,,,,
,,,,,,,,,,stimuli/images/PICTURE_405.png,HOUSE,5ea17afa9b1fb6023ebc9117,24/08/1989,2020-08-13_12h53.18.213,proactive2,2020.1.2,Win32,60,5f341be081b9052c55068110,5f35297c29beab480531b140,4,,,,,,anchor,,,,,,0,35,35,2,1,1,2,,,,,,,,,,,,,,,,,,,,,,,,,,,,,,,,,,,,,,,,,,,,,,,,,,,,,,,,,,,,,,,,,,,,,,,,,,,,,,,,,,,,,,,,,,,,,,,,,,,
,,,,,,,,,,stimuli/images/PICTURE_692.png,DUDE,5ea17afa9b1fb6023ebc9117,24/08/1989,2020-08-13_12h53.18.213,proactive2,2020.1.2,Win32,60,5f341be081b9052c55068110,5f35297c29beab480531b140,4,,,,,,cherry,,,,,,0,36,36,47,1,5,2,,,,,,,,,,,,,,,,,,,,,,,,,,,,,,,,,,,,,,,,,,,,,,,,,,,,,,,,,,,,,,,,,,,,,,,,,,,,,,,,,,,,,,,,,,,,,,,,,,,
,,,,,,,,,,stimuli/images/PICTURE_348.png,DUDE,5ea17afa9b1fb6023ebc9117,24/08/1989,2020-08-13_12h53.18.213,proactive2,2020.1.2,Win32,60,5f341be081b9052c55068110,5f35297c29beab480531b140,4,,,,,,pepper,,,,,,0,37,37,59,1,6,2,,,,,,,,,,,,,,,,,,,,,,,,,,,,,,,,,,,,,,,,,,,,,,,,,,,,,,,,,,,,,,,,,,,,,,,,,,,,,,,,,,,,,,,,,,,,,,,,,,,
,,,,,,,,,,stimuli/images/PICTURE_509.png,BATH,5ea17afa9b1fb6023ebc9117,24/08/1989,2020-08-13_12h53.18.213,proactive2,2020.1.2,Win32,60,5f341be081b9052c55068110,5f35297c29beab480531b140,4,,,,,,telephone,,,,,,0,38,38,15,1,2,2,,,,,,,,,,,,,,,,,,,,,,,,,,,,,,,,,,,,,,,,,,,,,,,,,,,,,,,,,,,,,,,,,,,,,,,,,,,,,,,,,,,,,,,,,,,,,,,,,,,
,,,,,,,,,,stimuli/images/PICTURE_215.png,FOOD,5ea17afa9b1fb6023ebc9117,24/08/1989,2020-08-13_12h53.18.213,proactive2,2020.1.2,Win32,60,5f341be081b9052c55068110,5f35297c29beab480531b140,4,,,,,,boot,,,,,,0,39,39,5,1,1,2,,,,,,,,,,,,,,,,,,,,,,,,,,,,,,,,,,,,,,,,,,,,,,,,,,,,,,,,,,,,,,,,,,,,,,,,,,,,,,,,,,,,,,,,,,,,,,,,,,,
,,,,,,,,,,stimuli/images/PICTURE_688.png,CLOCK,5ea17afa9b1fb6023ebc9117,24/08/1989,2020-08-13_12h53.18.213,proactive2,2020.1.2,Win32,60,5f341be081b9052c55068110,5f35297c29beab480531b140,4,,,,,,runner,,,,,,0,40,40,42,1,5,2,,,,,,,,,,,,,,,,,,,,,,,,,,,,,,,,,,,,,,,,,,,,,,,,,,,,,,,,,,,,,,,,,,,,,,,,,,,,,,,,,,,,,,,,,,,,,,,,,,,
,,,,,,,,,,stimuli/images/PICTURE_311.png,TOILET,5ea17afa9b1fb6023ebc9117,24/08/1989,2020-08-13_12h53.18.213,proactive2,2020.1.2,Win32,60,5f341be081b9052c55068110,5f35297c29beab480531b140,4,,,,,,razor,,,,,,0,41,41,54,1,6,2,,,,,,,,,,,,,,,,,,,,,,,,,,,,,,,,,,,,,,,,,,,,,,,,,,,,,,,,,,,,,,,,,,,,,,,,,,,,,,,,,,,,,,,,,,,,,,,,,,,
,,,,,,,,,,stimuli/images/PICTURE_215.png,BOYS,5ea17afa9b1fb6023ebc9117,24/08/1989,2020-08-13_12h53.18.213,proactive2,2020.1.2,Win32,60,5f341be081b9052c55068110,5f35297c29beab480531b140,4,,,,,,boot,,,,,,0,42,42,24,1,3,2,,,,,,,,,,,,,,,,,,,,,,,,,,,,,,,,,,,,,,,,,,,,,,,,,,,,,,,,,,,,,,,,,,,,,,,,,,,,,,,,,,,,,,,,,,,,,,,,,,,
,,,,,,,,,,stimuli/images/PICTURE_487.png,POLICY,5ea17afa9b1fb6023ebc9117,24/08/1989,2020-08-13_12h53.18.213,proactive2,2020.1.2,Win32,60,5f341be081b9052c55068110,5f35297c29beab480531b140,4,,,,,,basket,,,,,,0,43,43,34,1,4,2,,,,,,,,,,,,,,,,,,,,,,,,,,,,,,,,,,,,,,,,,,,,,,,,,,,,,,,,,,,,,,,,,,,,,,,,,,,,,,,,,,,,,,,,,,,,,,,,,,,
,,,,,,,,,,stimuli/images/PICTURE_123.png,SALE,5ea17afa9b1fb6023ebc9117,24/08/1989,2020-08-13_12h53.18.213,proactive2,2020.1.2,Win32,60,5f341be081b9052c55068110,5f35297c29beab480531b140,4,,,,,,dart,,,,,,0,44,44,8,1,1,2,,,,,,,,,,,,,,,,,,,,,,,,,,,,,,,,,,,,,,,,,,,,,,,,,,,,,,,,,,,,,,,,,,,,,,,,,,,,,,,,,,,,,,,,,,,,,,,,,,,
,,,,,,,,,,stimuli/images/PICTURE_405.png,JUNGLE,5ea17afa9b1fb6023ebc9117,24/08/1989,2020-08-13_12h53.18.213,proactive2,2020.1.2,Win32,60,5f341be081b9052c55068110,5f35297c29beab480531b140,4,,,,,,anchor,,,,,,0,45,45,13,1,2,2,,,,,,,,,,,,,,,,,,,,,,,,,,,,,,,,,,,,,,,,,,,,,,,,,,,,,,,,,,,,,,,,,,,,,,,,,,,,,,,,,,,,,,,,,,,,,,,,,,,
,,,,,,,,,,stimuli/images/PICTURE_32.png,LETTER,5ea17afa9b1fb6023ebc9117,24/08/1989,2020-08-13_12h53.18.213,proactive2,2020.1.2,Win32,60,5f341be081b9052c55068110,5f35297c29beab480531b140,4,,,,,,crown,,,,,,0,46,46,56,1,6,2,,,,,,,,,,,,,,,,,,,,,,,,,,,,,,,,,,,,,,,,,,,,,,,,,,,,,,,,,,,,,,,,,,,,,,,,,,,,,,,,,,,,,,,,,,,,,,,,,,,
,,,,,,,,,,stimuli/images/PICTURE_255.png,PENNY,5ea17afa9b1fb6023ebc9117,24/08/1989,2020-08-13_12h53.18.213,proactive2,2020.1.2,Win32,60,5f341be081b9052c55068110,5f35297c29beab480531b140,4,,,,,,shovel,,,,,,0,47,47,19,1,2,2,,,,,,,,,,,,,,,,,,,,,,,,,,,,,,,,,,,,,,,,,,,,,,,,,,,,,,,,,,,,,,,,,,,,,,,,,,,,,,,,,,,,,,,,,,,,,,,,,,,
,,,,,,,,,,stimuli/images/PICTURE_93.png,GIRL,5ea17afa9b1fb6023ebc9117,24/08/1989,2020-08-13_12h53.18.213,proactive2,2020.1.2,Win32,60,5f341be081b9052c55068110,5f35297c29beab480531b140,4,,,,,,skateboard,,,,,,0,48,48,31,1,4,2,,,,,,,,,,,,,,,,,,,,,,,,,,,,,,,,,,,,,,,,,,,,,,,,,,,,,,,,,,,,,,,,,,,,,,,,,,,,,,,,,,,,,,,,,,,,,,,,,,,
,,,,,,,,,,stimuli/images/PICTURE_2.png,AREA,5ea17afa9b1fb6023ebc9117,24/08/1989,2020-08-13_12h53.18.213,proactive2,2020.1.2,Win32,60,5f341be081b9052c55068110,5f35297c29beab480531b140,4,,,,,,tyre,,,,,,0,49,49,32,1,4,2,,,,,,,,,,,,,,,,,,,,,,,,,,,,,,,,,,,,,,,,,,,,,,,,,,,,,,,,,,,,,,,,,,,,,,,,,,,,,,,,,,,,,,,,,,,,,,,,,,,
,,,,,,,,,,stimuli/images/PICTURE_18.png,RIVER,5ea17afa9b1fb6023ebc9117,24/08/1989,2020-08-13_12h53.18.213,proactive2,2020.1.2,Win32,60,5f341be081b9052c55068110,5f35297c29beab480531b140,4,,,,,,planet,,,,,,0,50,50,22,1,3,2,,,,,,,,,,,,,,,,,,,,,,,,,,,,,,,,,,,,,,,,,,,,,,,,,,,,,,,,,,,,,,,,,,,,,,,,,,,,,,,,,,,,,,,,,,,,,,,,,,,
,,,,,,,,,,stimuli/images/PICTURE_509.png,SHOTS,5ea17afa9b1fb6023ebc9117,24/08/1989,2020-08-13_12h53.18.213,proactive2,2020.1.2,Win32,60,5f341be081b9052c55068110,5f35297c29beab480531b140,4,,,,,,telephone,,,,,,0,51,51,7,1,1,2,,,,,,,,,,,,,,,,,,,,,,,,,,,,,,,,,,,,,,,,,,,,,,,,,,,,,,,,,,,,,,,,,,,,,,,,,,,,,,,,,,,,,,,,,,,,,,,,,,,
,,,,,,,,,,stimuli/images/PICTURE_453.png,FAMILY,5ea17afa9b1fb6023ebc9117,24/08/1989,2020-08-13_12h53.18.213,proactive2,2020.1.2,Win32,60,5f341be081b9052c55068110,5f35297c29beab480531b140,4,,,,,,scissors,,,,,,0,52,52,48,1,5,2,,,,,,,,,,,,,,,,,,,,,,,,,,,,,,,,,,,,,,,,,,,,,,,,,,,,,,,,,,,,,,,,,,,,,,,,,,,,,,,,,,,,,,,,,,,,,,,,,,,
,,,,,,,,,,stimuli/images/PICTURE_504.png,HOUSE,5ea17afa9b1fb6023ebc9117,24/08/1989,2020-08-13_12h53.18.213,proactive2,2020.1.2,Win32,60,5f341be081b9052c55068110,5f35297c29beab480531b140,4,,,,,,wheel,,,,,,0,53,53,36,1,4,2,,,,,,,,,,,,,,,,,,,,,,,,,,,,,,,,,,,,,,,,,,,,,,,,,,,,,,,,,,,,,,,,,,,,,,,,,,,,,,,,,,,,,,,,,,,,,,,,,,,
,,,,,,,,,,stimuli/images/PICTURE_667.png,GLASS,5ea17afa9b1fb6023ebc9117,24/08/1989,2020-08-13_12h53.18.213,proactive2,2020.1.2,Win32,60,5f341be081b9052c55068110,5f35297c29beab480531b140,4,,,,,,daisy,,,,,,0,54,54,27,1,3,2,,,,,,,,,,,,,,,,,,,,,,,,,,,,,,,,,,,,,,,,,,,,,,,,,,,,,,,,,,,,,,,,,,,,,,,,,,,,,,,,,,,,,,,,,,,,,,,,,,,
,,,,,,,,,,stimuli/images/PICTURE_33.png,COPS,5ea17afa9b1fb6023ebc9117,24/08/1989,2020-08-13_12h53.18.213,proactive2,2020.1.2,Win32,60,5f341be081b9052c55068110,5f35297c29beab480531b140,4,,,,,,frame,,,,,,0,55,55,29,1,3,2,,,,,,,,,,,,,,,,,,,,,,,,,,,,,,,,,,,,,,,,,,,,,,,,,,,,,,,,,,,,,,,,,,,,,,,,,,,,,,,,,,,,,,,,,,,,,,,,,,,
,,,,,,,,,,stimuli/images/PICTURE_708.png,VALLEY,5ea17afa9b1fb6023ebc9117,24/08/1989,2020-08-13_12h53.18.213,proactive2,2020.1.2,Win32,60,5f341be081b9052c55068110,5f35297c29beab480531b140,4,,,,,,monkey,,,,,,0,56,56,45,1,5,2,,,,,,,,,,,,,,,,,,,,,,,,,,,,,,,,,,,,,,,,,,,,,,,,,,,,,,,,,,,,,,,,,,,,,,,,,,,,,,,,,,,,,,,,,,,,,,,,,,,
,,,,,,,,,,stimuli/images/PICTURE_348.png,TOILET,5ea17afa9b1fb6023ebc9117,24/08/1989,2020-08-13_12h53.18.213,proactive2,2020.1.2,Win32,60,5f341be081b9052c55068110,5f35297c29beab480531b140,4,,,,,,pepper,,,,,,0,57,57,4,1,1,2,,,,,,,,,,,,,,,,,,,,,,,,,,,,,,,,,,,,,,,,,,,,,,,,,,,,,,,,,,,,,,,,,,,,,,,,,,,,,,,,,,,,,,,,,,,,,,,,,,,
,,,,,,,,,,stimuli/images/PICTURE_141.png,CLIENT,5ea17afa9b1fb6023ebc9117,24/08/1989,2020-08-13_12h53.18.213,proactive2,2020.1.2,Win32,60,5f341be081b9052c55068110,5f35297c29beab480531b140,4,,,,,,sunflower,,,,,,0,58,58,30,1,4,2,,,,,,,,,,,,,,,,,,,,,,,,,,,,,,,,,,,,,,,,,,,,,,,,,,,,,,,,,,,,,,,,,,,,,,,,,,,,,,,,,,,,,,,,,,,,,,,,,,,
,,?,0.00295,0,,,,,,stimuli/images/PICTURE_403.png,FAMILY,5ea17afa9b1fb6023ebc9117,24/08/1989,2020-08-13_12h53.18.213,proactive2,2020.1.2,Win32,60,5f341be081b9052c55068110,5f35297c29beab480531b140,4,,,,,,cathedral,,,,,,,,,,,1,2,0,0,0,9,1,,,,,,,,,,,,,,,,,,,,,,,,,,,,,,,,,,,,,,,,,,,,,,,,,,,,,,,,,,,,,,,,,,,,,,,,,,,,,,,,,,,,,,,,,,,,,,
,,CLIENT,2.37633,1,,,,,,stimuli/images/PICTURE_141.png,CLIENT,5ea17afa9b1fb6023ebc9117,24/08/1989,2020-08-13_12h53.18.213,proactive2,2020.1.2,Win32,60,5f341be081b9052c55068110,5f35297c29beab480531b140,4,,,,,,sunflower,,,,,,,,,,,4,2,0,1,1,30,1,,,,,,,,,,,,,,,,,,,,,,,,,,,,,,,,,,,,,,,,,,,,,,,,,,,,,,,,,,,,,,,,,,,,,,,,,,,,,,,,,,,,,,,,,,,,,,
,,?,0.002105,0,,,,,,stimuli/images/PICTURE_215.png,LEADER,5ea17afa9b1fb6023ebc9117,24/08/1989,2020-08-13_12h53.18.213,proactive2,2020.1.2,Win32,60,5f341be081b9052c55068110,5f35297c29beab480531b140,4,,,,,,boot,,,,,,,,,,,5,2,0,2,2,43,1,,,,,,,,,,,,,,,,,,,,,,,,,,,,,,,,,,,,,,,,,,,,,,,,,,,,,,,,,,,,,,,,,,,,,,,,,,,,,,,,,,,,,,,,,,,,,,
,,?,0.00218,0,,,,,,stimuli/images/PICTURE_688.png,CLOCK,5ea17afa9b1fb6023ebc9117,24/08/1989,2020-08-13_12h53.18.213,proactive2,2020.1.2,Win32,60,5f341be081b9052c55068110,5f35297c29beab480531b140,4,,,,,,runner,,,,,,,,,,,5,2,0,3,3,42,1,,,,,,,,,,,,,,,,,,,,,,,,,,,,,,,,,,,,,,,,,,,,,,,,,,,,,,,,,,,,,,,,,,,,,,,,,,,,,,,,,,,,,,,,,,,,,,
,,?,0.002095,0,,,,,,stimuli/images/PICTURE_654.png,COPS,5ea17afa9b1fb6023ebc9117,24/08/1989,2020-08-13_12h53.18.213,proactive2,2020.1.2,Win32,60,5f341be081b9052c55068110,5f35297c29beab480531b140,4,,,,,,pencil,,,,,,,,,,,2,2,0,4,4,10,1,,,,,,,,,,,,,,,,,,,,,,,,,,,,,,,,,,,,,,,,,,,,,,,,,,,,,,,,,,,,,,,,,,,,,,,,,,,,,,,,,,,,,,,,,,,,,,
,,AREA,2.83169,1,,,,,,stimuli/images/PICTURE_2.png,AREA,5ea17afa9b1fb6023ebc9117,24/08/1989,2020-08-13_12h53.18.213,proactive2,2020.1.2,Win32,60,5f341be081b9052c55068110,5f35297c29beab480531b140,4,,,,,,tyre,,,,,,,,,,,4,2,0,5,5,32,1,,,,,,,,,,,,,,,,,,,,,,,,,,,,,,,,,,,,,,,,,,,,,,,,,,,,,,,,,,,,,,,,,,,,,,,,,,,,,,,,,,,,,,,,,,,,,,
,,?,0.00219,0,,,,,,stimuli/images/PICTURE_215.png,FOOD,5ea17afa9b1fb6023ebc9117,24/08/1989,2020-08-13_12h53.18.213,proactive2,2020.1.2,Win32,60,5f341be081b9052c55068110,5f35297c29beab480531b140,4,,,,,,boot,,,,,,,,,,,1,2,0,6,6,5,1,,,,,,,,,,,,,,,,,,,,,,,,,,,,,,,,,,,,,,,,,,,,,,,,,,,,,,,,,,,,,,,,,,,,,,,,,,,,,,,,,,,,,,,,,,,,,,
,,?,0.002085,0,,,,,,stimuli/images/PICTURE_18.png,RIVER,5ea17afa9b1fb6023ebc9117,24/08/1989,2020-08-13_12h53.18.213,proactive2,2020.1.2,Win32,60,5f341be081b9052c55068110,5f35297c29beab480531b140,4,,,,,,planet,,,,,,,,,,,3,2,0,7,7,22,1,,,,,,,,,,,,,,,,,,,,,,,,,,,,,,,,,,,,,,,,,,,,,,,,,,,,,,,,,,,,,,,,,,,,,,,,,,,,,,,,,,,,,,,,,,,,,,
,,?,0.00329,0,,,,,,stimuli/images/PICTURE_405.png,HOUSE,5ea17afa9b1fb6023ebc9117,24/08/1989,2020-08-13_12h53.18.213,proactive2,2020.1.2,Win32,60,5f341be081b9052c55068110,5f35297c29beab480531b140,4,,,,,,anchor,,,,,,,,,,,1,2,0,8,8,2,1,,,,,,,,,,,,,,,,,,,,,,,,,,,,,,,,,,,,,,,,,,,,,,,,,,,,,,,,,,,,,,,,,,,,,,,,,,,,,,,,,,,,,,,,,,,,,,
,,?,0.00229,0,,,,,,stimuli/images/PICTURE_2.png,YARD,5ea17afa9b1fb6023ebc9117,24/08/1989,2020-08-13_12h53.18.213,proactive2,2020.1.2,Win32,60,5f341be081b9052c55068110,5f35297c29beab480531b140,4,,,,,,tyre,,,,,,,,,,,6,2,0,9,9,55,1,,,,,,,,,,,,,,,,,,,,,,,,,,,,,,,,,,,,,,,,,,,,,,,,,,,,,,,,,,,,,,,,,,,,,,,,,,,,,,,,,,,,,,,,,,,,,,
,,?,0.00211,0,,,,,,stimuli/images/PICTURE_692.png,DUDE,5ea17afa9b1fb6023ebc9117,24/08/1989,2020-08-13_12h53.18.213,proactive2,2020.1.2,Win32,60,5f341be081b9052c55068110,5f35297c29beab480531b140,4,,,,,,cherry,,,,,,,,,,,5,2,0,10,10,47,1,,,,,,,,,,,,,,,,,,,,,,,,,,,,,,,,,,,,,,,,,,,,,,,,,,,,,,,,,,,,,,,,,,,,,,,,,,,,,,,,,,,,,,,,,,,,,,
,,?,0.002995,0,,,,,,stimuli/images/PICTURE_348.png,DUDE,5ea17afa9b1fb6023ebc9117,24/08/1989,2020-08-13_12h53.18.213,proactive2,2020.1.2,Win32,60,5f341be081b9052c55068110,5f35297c29beab480531b140,4,,,,,,pepper,,,,,,,,,,,6,2,0,11,11,59,1,,,,,,,,,,,,,,,,,,,,,,,,,,,,,,,,,,,,,,,,,,,,,,,,,,,,,,,,,,,,,,,,,,,,,,,,,,,,,,,,,,,,,,,,,,,,,,
,,?,0.005605,0,,,,,,stimuli/images/PICTURE_509.png,MILLER,5ea17afa9b1fb6023ebc9117,24/08/1989,2020-08-13_12h53.18.213,proactive2,2020.1.2,Win32,60,5f341be081b9052c55068110,5f35297c29beab480531b140,4,,,,,,telephone,,,,,,,,,,,5,2,0,12,12,49,1,,,,,,,,,,,,,,,,,,,,,,,,,,,,,,,,,,,,,,,,,,,,,,,,,,,,,,,,,,,,,,,,,,,,,,,,,,,,,,,,,,,,,,,,,,,,,,
,,?,0.002695,0,,,,,,stimuli/images/PICTURE_453.png,FAMILY,5ea17afa9b1fb6023ebc9117,24/08/1989,2020-08-13_12h53.18.213,proactive2,2020.1.2,Win32,60,5f341be081b9052c55068110,5f35297c29beab480531b140,4,,,,,,scissors,,,,,,,,,,,5,2,0,13,13,48,1,,,,,,,,,,,,,,,,,,,,,,,,,,,,,,,,,,,,,,,,,,,,,,,,,,,,,,,,,,,,,,,,,,,,,,,,,,,,,,,,,,,,,,,,,,,,,,
,,?,0.002585,0,,,,,,stimuli/images/PICTURE_677.png,PHOTO,5ea17afa9b1fb6023ebc9117,24/08/1989,2020-08-13_12h53.18.213,proactive2,2020.1.2,Win32,60,5f341be081b9052c55068110,5f35297c29beab480531b140,4,,,,,,map,,,,,,,,,,,2,2,0,14,14,14,1,,,,,,,,,,,,,,,,,,,,,,,,,,,,,,,,,,,,,,,,,,,,,,,,,,,,,,,,,,,,,,,,,,,,,,,,,,,,,,,,,,,,,,,,,,,,,,
,,?,0.00294,0,,,,,,stimuli/images/PICTURE_564.png,PLENTY,5ea17afa9b1fb6023ebc9117,24/08/1989,2020-08-13_12h53.18.213,proactive2,2020.1.2,Win32,60,5f341be081b9052c55068110,5f35297c29beab480531b140,4,,,,,,spoon,,,,,,,,,,,2,2,0,15,15,11,1,,,,,,,,,,,,,,,,,,,,,,,,,,,,,,,,,,,,,,,,,,,,,,,,,,,,,,,,,,,,,,,,,,,,,,,,,,,,,,,,,,,,,,,,,,,,,,
,,?,0.00217,0,,,,,,stimuli/images/PICTURE_68.png,KIND,5ea17afa9b1fb6023ebc9117,24/08/1989,2020-08-13_12h53.18.213,proactive2,2020.1.2,Win32,60,5f341be081b9052c55068110,5f35297c29beab480531b140,4,,,,,,candle,,,,,,,,,,,3,2,0,16,16,23,1,,,,,,,,,,,,,,,,,,,,,,,,,,,,,,,,,,,,,,,,,,,,,,,,,,,,,,,,,,,,,,,,,,,,,,,,,,,,,,,,,,,,,,,,,,,,,,
,,?,0.002035,0,,,,,,stimuli/images/PICTURE_57.png,CANDY,5ea17afa9b1fb6023ebc9117,24/08/1989,2020-08-13_12h53.18.213,proactive2,2020.1.2,Win32,60,5f341be081b9052c55068110,5f35297c29beab480531b140,4,,,,,,stamp,,,,,,,,,,,6,2,0,17,17,52,1,,,,,,,,,,,,,,,,,,,,,,,,,,,,,,,,,,,,,,,,,,,,,,,,,,,,,,,,,,,,,,,,,,,,,,,,,,,,,,,,,,,,,,,,,,,,,,
,,?,0.002715,0,,,,,,stimuli/images/PICTURE_327.png,LEADER,5ea17afa9b1fb6023ebc9117,24/08/1989,2020-08-13_12h53.18.213,proactive2,2020.1.2,Win32,60,5f341be081b9052c55068110,5f35297c29beab480531b140,4,,,,,,helmet,,,,,,,,,,,2,2,0,18,18,17,1,,,,,,,,,,,,,,,,,,,,,,,,,,,,,,,,,,,,,,,,,,,,,,,,,,,,,,,,,,,,,,,,,,,,,,,,,,,,,,,,,,,,,,,,,,,,,,
,,?,0.002135,0,,,,,,stimuli/images/PICTURE_32.png,LETTER,5ea17afa9b1fb6023ebc9117,24/08/1989,2020-08-13_12h53.18.213,proactive2,2020.1.2,Win32,60,5f341be081b9052c55068110,5f35297c29beab480531b140,4,,,,,,crown,,,,,,,,,,,6,2,0,19,19,56,1,,,,,,,,,,,,,,,,,,,,,,,,,,,,,,,,,,,,,,,,,,,,,,,,,,,,,,,,,,,,,,,,,,,,,,,,,,,,,,,,,,,,,,,,,,,,,,
,,?,0.002095,0,,,,,,stimuli/images/PICTURE_177.png,HOUSE,5ea17afa9b1fb6023ebc9117,24/08/1989,2020-08-13_12h53.18.213,proactive2,2020.1.2,Win32,60,5f341be081b9052c55068110,5f35297c29beab480531b140,4,,,,,,mushroom,,,,,,,,,,,3,2,0,20,20,25,1,,,,,,,,,,,,,,,,,,,,,,,,,,,,,,,,,,,,,,,,,,,,,,,,,,,,,,,,,,,,,,,,,,,,,,,,,,,,,,,,,,,,,,,,,,,,,,
,,?,0.003005,0,,,,,,stimuli/images/PICTURE_123.png,SALE,5ea17afa9b1fb6023ebc9117,24/08/1989,2020-08-13_12h53.18.213,proactive2,2020.1.2,Win32,60,5f341be081b9052c55068110,5f35297c29beab480531b140,4,,,,,,dart,,,,,,,,,,,1,2,0,21,21,8,1,,,,,,,,,,,,,,,,,,,,,,,,,,,,,,,,,,,,,,,,,,,,,,,,,,,,,,,,,,,,,,,,,,,,,,,,,,,,,,,,,,,,,,,,,,,,,,
,,?,0.00218,0,,,,,,stimuli/images/PICTURE_33.png,COPS,5ea17afa9b1fb6023ebc9117,24/08/1989,2020-08-13_12h53.18.213,proactive2,2020.1.2,Win32,60,5f341be081b9052c55068110,5f35297c29beab480531b140,4,,,,,,frame,,,,,,,,,,,3,2,0,22,22,29,1,,,,,,,,,,,,,,,,,,,,,,,,,,,,,,,,,,,,,,,,,,,,,,,,,,,,,,,,,,,,,,,,,,,,,,,,,,,,,,,,,,,,,,,,,,,,,,
,,?,0.00211,0,,,,,,stimuli/images/PICTURE_654.png,YEAR,5ea17afa9b1fb6023ebc9117,24/08/1989,2020-08-13_12h53.18.213,proactive2,2020.1.2,Win32,60,5f341be081b9052c55068110,5f35297c29beab480531b140,4,,,,,,pencil,,,,,,,,,,,5,2,0,23,23,41,1,,,,,,,,,,,,,,,,,,,,,,,,,,,,,,,,,,,,,,,,,,,,,,,,,,,,,,,,,,,,,,,,,,,,,,,,,,,,,,,,,,,,,,,,,,,,,,
,,?,0.002865,0,,,,,,stimuli/images/PICTURE_285.png,WRITER,5ea17afa9b1fb6023ebc9117,24/08/1989,2020-08-13_12h53.18.213,proactive2,2020.1.2,Win32,60,5f341be081b9052c55068110,5f35297c29beab480531b140,4,,,,,,carrot,,,,,,,,,,,1,2,0,24,24,6,1,,,,,,,,,,,,,,,,,,,,,,,,,,,,,,,,,,,,,,,,,,,,,,,,,,,,,,,,,,,,,,,,,,,,,,,,,,,,,,,,,,,,,,,,,,,,,,
,,POLICY,4.51199,1,,,,,,stimuli/images/PICTURE_487.png,POLICY,5ea17afa9b1fb6023ebc9117,24/08/1989,2020-08-13_12h53.18.213,proactive2,2020.1.2,Win32,60,5f341be081b9052c55068110,5f35297c29beab480531b140,4,,,,,,basket,,,,,,,,,,,4,2,0,25,25,34,1,,,,,,,,,,,,,,,,,,,,,,,,,,,,,,,,,,,,,,,,,,,,,,,,,,,,,,,,,,,,,,,,,,,,,,,,,,,,,,,,,,,,,,,,,,,,,,
,,?,0.002095,0,,,,,,stimuli/images/PICTURE_708.png,VALLEY,5ea17afa9b1fb6023ebc9117,24/08/1989,2020-08-13_12h53.18.213,proactive2,2020.1.2,Win32,60,5f341be081b9052c55068110,5f35297c29beab480531b140,4,,,,,,monkey,,,,,,,,,,,5,2,0,26,26,45,1,,,,,,,,,,,,,,,,,,,,,,,,,,,,,,,,,,,,,,,,,,,,,,,,,,,,,,,,,,,,,,,,,,,,,,,,,,,,,,,,,,,,,,,,,,,,,,
,,?,0.0021,0,,,,,,stimuli/images/PICTURE_311.png,TOILET,5ea17afa9b1fb6023ebc9117,24/08/1989,2020-08-13_12h53.18.213,proactive2,2020.1.2,Win32,60,5f341be081b9052c55068110,5f35297c29beab480531b140,4,,,,,,razor,,,,,,,,,,,6,2,0,27,27,54,1,,,,,,,,,,,,,,,,,,,,,,,,,,,,,,,,,,,,,,,,,,,,,,,,,,,,,,,,,,,,,,,,,,,,,,,,,,,,,,,,,,,,,,,,,,,,,,
,,STYLES,5.438245,0,,,,,,stimuli/images/PICTURE_491.png,SERIES,5ea17afa9b1fb6023ebc9117,24/08/1989,2020-08-13_12h53.18.213,proactive2,2020.1.2,Win32,60,5f341be081b9052c55068110,5f35297c29beab480531b140,4,,,,,,rug,,,,,,,,,,,4,2,0,28,28,39,1,,,,,,,,,,,,,,,,,,,,,,,,,,,,,,,,,,,,,,,,,,,,,,,,,,,,,,,,,,,,,,,,,,,,,,,,,,,,,,,,,,,,,,,,,,,,,,
,,?,0.002155,0,,,,,,stimuli/images/PICTURE_297.png,BODY,5ea17afa9b1fb6023ebc9117,24/08/1989,2020-08-13_12h53.18.213,proactive2,2020.1.2,Win32,60,5f341be081b9052c55068110,5f35297c29beab480531b140,4,,,,,,aeroplane,,,,,,,,,,,6,2,0,29,29,51,1,,,,,,,,,,,,,,,,,,,,,,,,,,,,,,,,,,,,,,,,,,,,,,,,,,,,,,,,,,,,,,,,,,,,,,,,,,,,,,,,,,,,,,,,,,,,,,
,,?,0.00206,0,,,,,,stimuli/images/PICTURE_405.png,JUNGLE,5ea17afa9b1fb6023ebc9117,24/08/1989,2020-08-13_12h53.18.213,proactive2,2020.1.2,Win32,60,5f341be081b9052c55068110,5f35297c29beab480531b140,4,,,,,,anchor,,,,,,,,,,,2,2,0,30,30,13,1,,,,,,,,,,,,,,,,,,,,,,,,,,,,,,,,,,,,,,,,,,,,,,,,,,,,,,,,,,,,,,,,,,,,,,,,,,,,,,,,,,,,,,,,,,,,,,
,,?,0.002015,0,,,,,,stimuli/images/PICTURE_750.png,POLICY,5ea17afa9b1fb6023ebc9117,24/08/1989,2020-08-13_12h53.18.213,proactive2,2020.1.2,Win32,60,5f341be081b9052c55068110,5f35297c29beab480531b140,4,,,,,,kettle,,,,,,,,,,,5,2,0,31,31,44,1,,,,,,,,,,,,,,,,,,,,,,,,,,,,,,,,,,,,,,,,,,,,,,,,,,,,,,,,,,,,,,,,,,,,,,,,,,,,,,,,,,,,,,,,,,,,,,
,,?,0.00205,0,,,,,,stimuli/images/PICTURE_160.png,HOTEL,5ea17afa9b1fb6023ebc9117,24/08/1989,2020-08-13_12h53.18.213,proactive2,2020.1.2,Win32,60,5f341be081b9052c55068110,5f35297c29beab480531b140,4,,,,,,wheelbarrow,,,,,,,,,,,2,2,0,32,32,16,1,,,,,,,,,,,,,,,,,,,,,,,,,,,,,,,,,,,,,,,,,,,,,,,,,,,,,,,,,,,,,,,,,,,,,,,,,,,,,,,,,,,,,,,,,,,,,,
,,?,0.002065,0,,,,,,stimuli/images/PICTURE_57.png,CASINO,5ea17afa9b1fb6023ebc9117,24/08/1989,2020-08-13_12h53.18.213,proactive2,2020.1.2,Win32,60,5f341be081b9052c55068110,5f35297c29beab480531b140,4,,,,,,stamp,,,,,,,,,,,2,2,0,33,33,12,1,,,,,,,,,,,,,,,,,,,,,,,,,,,,,,,,,,,,,,,,,,,,,,,,,,,,,,,,,,,,,,,,,,,,,,,,,,,,,,,,,,,,,,,,,,,,,,
,,?,0.003035,0,,,,,,stimuli/images/PICTURE_215.png,BOYS,5ea17afa9b1fb6023ebc9117,24/08/1989,2020-08-13_12h53.18.213,proactive2,2020.1.2,Win32,60,5f341be081b9052c55068110,5f35297c29beab480531b140,4,,,,,,boot,,,,,,,,,,,3,2,0,34,34,24,1,,,,,,,,,,,,,,,,,,,,,,,,,,,,,,,,,,,,,,,,,,,,,,,,,,,,,,,,,,,,,,,,,,,,,,,,,,,,,,,,,,,,,,,,,,,,,,
,,SPEECH,4.247155,1,,,,,,stimuli/images/PICTURE_314.png,SPEECH,5ea17afa9b1fb6023ebc9117,24/08/1989,2020-08-13_12h53.18.213,proactive2,2020.1.2,Win32,60,5f341be081b9052c55068110,5f35297c29beab480531b140,4,,,,,,perfume,,,,,,,,,,,4,2,0,35,35,35,1,,,,,,,,,,,,,,,,,,,,,,,,,,,,,,,,,,,,,,,,,,,,,,,,,,,,,,,,,,,,,,,,,,,,,,,,,,,,,,,,,,,,,,,,,,,,,,
,,?,0.002495,0,,,,,,stimuli/images/PICTURE_348.png,TOILET,5ea17afa9b1fb6023ebc9117,24/08/1989,2020-08-13_12h53.18.213,proactive2,2020.1.2,Win32,60,5f341be081b9052c55068110,5f35297c29beab480531b140,4,,,,,,pepper,,,,,,,,,,,1,2,0,36,36,4,1,,,,,,,,,,,,,,,,,,,,,,,,,,,,,,,,,,,,,,,,,,,,,,,,,,,,,,,,,,,,,,,,,,,,,,,,,,,,,,,,,,,,,,,,,,,,,,
,,?,0.00204,0,,,,,,stimuli/images/PICTURE_655.png,SALE,5ea17afa9b1fb6023ebc9117,24/08/1989,2020-08-13_12h53.18.213,proactive2,2020.1.2,Win32,60,5f341be081b9052c55068110,5f35297c29beab480531b140,4,,,,,,megaphone,,,,,,,,,,,6,2,0,37,37,57,1,,,,,,,,,,,,,,,,,,,,,,,,,,,,,,,,,,,,,,,,,,,,,,,,,,,,,,,,,,,,,,,,,,,,,,,,,,,,,,,,,,,,,,,,,,,,,,
,,HOUSE,2.22191,1,,,,,,stimuli/images/PICTURE_504.png,HOUSE,5ea17afa9b1fb6023ebc9117,24/08/1989,2020-08-13_12h53.18.213,proactive2,2020.1.2,Win32,60,5f341be081b9052c55068110,5f35297c29beab480531b140,4,,,,,,wheel,,,,,,,,,,,4,2,0,38,38,36,1,,,,,,,,,,,,,,,,,,,,,,,,,,,,,,,,,,,,,,,,,,,,,,,,,,,,,,,,,,,,,,,,,,,,,,,,,,,,,,,,,,,,,,,,,,,,,,
,,NIGHT,3.84831,1,,,,,,stimuli/images/PICTURE_95.png,NIGHT,5ea17afa9b1fb6023ebc9117,24/08/1989,2020-08-13_12h53.18.213,proactive2,2020.1.2,Win32,60,5f341be081b9052c55068110,5f35297c29beab480531b140,4,,,,,,suitcase,,,,,,,,,,,4,2,0,39,39,37,1,,,,,,,,,,,,,,,,,,,,,,,,,,,,,,,,,,,,,,,,,,,,,,,,,,,,,,,,,,,,,,,,,,,,,,,,,,,,,,,,,,,,,,,,,,,,,,
,,?,0.00217,0,,,,,,stimuli/images/PICTURE_208.png,SPIRIT,5ea17afa9b1fb6023ebc9117,24/08/1989,2020-08-13_12h53.18.213,proactive2,2020.1.2,Win32,60,5f341be081b9052c55068110,5f35297c29beab480531b140,4,,,,,,microphone,,,,,,,,,,,3,2,0,40,40,28,1,,,,,,,,,,,,,,,,,,,,,,,,,,,,,,,,,,,,,,,,,,,,,,,,,,,,,,,,,,,,,,,,,,,,,,,,,,,,,,,,,,,,,,,,,,,,,,
,,?,0.00288,0,,,,,,stimuli/images/PICTURE_296.png,CLOCK,5ea17afa9b1fb6023ebc9117,24/08/1989,2020-08-13_12h53.18.213,proactive2,2020.1.2,Win32,60,5f341be081b9052c55068110,5f35297c29beab480531b140,4,,,,,,bolt,,,,,,,,,,,2,2,0,41,41,18,1,,,,,,,,,,,,,,,,,,,,,,,,,,,,,,,,,,,,,,,,,,,,,,,,,,,,,,,,,,,,,,,,,,,,,,,,,,,,,,,,,,,,,,,,,,,,,,
,,?,0.003055,0,,,,,,stimuli/images/PICTURE_509.png,BATH,5ea17afa9b1fb6023ebc9117,24/08/1989,2020-08-13_12h53.18.213,proactive2,2020.1.2,Win32,60,5f341be081b9052c55068110,5f35297c29beab480531b140,4,,,,,,telephone,,,,,,,,,,,2,2,0,42,42,15,1,,,,,,,,,,,,,,,,,,,,,,,,,,,,,,,,,,,,,,,,,,,,,,,,,,,,,,,,,,,,,,,,,,,,,,,,,,,,,,,,,,,,,,,,,,,,,,
,,?,0.00205,0,,,,,,stimuli/images/PICTURE_470.png,MOMENT,5ea17afa9b1fb6023ebc9117,24/08/1989,2020-08-13_12h53.18.213,proactive2,2020.1.2,Win32,60,5f341be081b9052c55068110,5f35297c29beab480531b140,4,,,,,,motorbike,,,,,,,,,,,5,2,0,43,43,40,1,,,,,,,,,,,,,,,,,,,,,,,,,,,,,,,,,,,,,,,,,,,,,,,,,,,,,,,,,,,,,,,,,,,,,,,,,,,,,,,,,,,,,,,,,,,,,,
,,?,0.002255,0,,,,,,stimuli/images/PICTURE_2.png,JUNGLE,5ea17afa9b1fb6023ebc9117,24/08/1989,2020-08-13_12h53.18.213,proactive2,2020.1.2,Win32,60,5f341be081b9052c55068110,5f35297c29beab480531b140,4,,,,,,tyre,,,,,,,,,,,1,2,0,44,44,1,1,,,,,,,,,,,,,,,,,,,,,,,,,,,,,,,,,,,,,,,,,,,,,,,,,,,,,,,,,,,,,,,,,,,,,,,,,,,,,,,,,,,,,,,,,,,,,,
,,?,0.00277,0,,,,,,stimuli/images/PICTURE_57.png,NATION,5ea17afa9b1fb6023ebc9117,24/08/1989,2020-08-13_12h53.18.213,proactive2,2020.1.2,Win32,60,5f341be081b9052c55068110,5f35297c29beab480531b140,4,,,,,,stamp,,,,,,,,,,,3,2,0,45,45,21,1,,,,,,,,,,,,,,,,,,,,,,,,,,,,,,,,,,,,,,,,,,,,,,,,,,,,,,,,,,,,,,,,,,,,,,,,,,,,,,,,,,,,,,,,,,,,,,
,,?,0.002365,0,,,,,,stimuli/images/PICTURE_311.png,FLESH,5ea17afa9b1fb6023ebc9117,24/08/1989,2020-08-13_12h53.18.213,proactive2,2020.1.2,Win32,60,5f341be081b9052c55068110,5f35297c29beab480531b140,4,,,,,,razor,,,,,,,,,,,1,2,0,46,46,3,1,,,,,,,,,,,,,,,,,,,,,,,,,,,,,,,,,,,,,,,,,,,,,,,,,,,,,,,,,,,,,,,,,,,,,,,,,,,,,,,,,,,,,,,,,,,,,,
,,?,0.00199,0,,,,,,stimuli/images/PICTURE_470.png,BEAUTY,5ea17afa9b1fb6023ebc9117,24/08/1989,2020-08-13_12h53.18.213,proactive2,2020.1.2,Win32,60,5f341be081b9052c55068110,5f35297c29beab480531b140,4,,,,,,motorbike,,,,,,,,,,,3,2,0,47,47,26,1,,,,,,,,,,,,,,,,,,,,,,,,,,,,,,,,,,,,,,,,,,,,,,,,,,,,,,,,,,,,,,,,,,,,,,,,,,,,,,,,,,,,,,,,,,,,,,
,,GIRL,2.65166,1,,,,,,stimuli/images/PICTURE_93.png,GIRL,5ea17afa9b1fb6023ebc9117,24/08/1989,2020-08-13_12h53.18.213,proactive2,2020.1.2,Win32,60,5f341be081b9052c55068110,5f35297c29beab480531b140,4,,,,,,skateboard,,,,,,,,,,,4,2,0,48,48,31,1,,,,,,,,,,,,,,,,,,,,,,,,,,,,,,,,,,,,,,,,,,,,,,,,,,,,,,,,,,,,,,,,,,,,,,,,,,,,,,,,,,,,,,,,,,,,,,
,,APPLE,2.66847,1,,,,,,stimuli/images/PICTURE_509.png,APPLE,5ea17afa9b1fb6023ebc9117,24/08/1989,2020-08-13_12h53.18.213,proactive2,2020.1.2,Win32,60,5f341be081b9052c55068110,5f35297c29beab480531b140,4,,,,,,telephone,,,,,,,,,,,4,2,0,49,49,38,1,,,,,,,,,,,,,,,,,,,,,,,,,,,,,,,,,,,,,,,,,,,,,,,,,,,,,,,,,,,,,,,,,,,,,,,,,,,,,,,,,,,,,,,,,,,,,,
,,?,0.002065,0,,,,,,stimuli/images/PICTURE_452.png,COPS,5ea17afa9b1fb6023ebc9117,24/08/1989,2020-08-13_12h53.18.213,proactive2,2020.1.2,Win32,60,5f341be081b9052c55068110,5f35297c29beab480531b140,4,,,,,,watch,,,,,,,,,,,1,2,0,50,50,0,1,,,,,,,,,,,,,,,,,,,,,,,,,,,,,,,,,,,,,,,,,,,,,,,,,,,,,,,,,,,,,,,,,,,,,,,,,,,,,,,,,,,,,,,,,,,,,,
,,?,0.0024,0,,,,,,stimuli/images/PICTURE_487.png,ROOF,5ea17afa9b1fb6023ebc9117,24/08/1989,2020-08-13_12h53.18.213,proactive2,2020.1.2,Win32,60,5f341be081b9052c55068110,5f35297c29beab480531b140,4,,,,,,basket,,,,,,,,,,,6,2,0,51,51,50,1,,,,,,,,,,,,,,,,,,,,,,,,,,,,,,,,,,,,,,,,,,,,,,,,,,,,,,,,,,,,,,,,,,,,,,,,,,,,,,,,,,,,,,,,,,,,,,
,,?,0.00306,0,,,,,,stimuli/images/PICTURE_509.png,SHOTS,5ea17afa9b1fb6023ebc9117,24/08/1989,2020-08-13_12h53.18.213,proactive2,2020.1.2,Win32,60,5f341be081b9052c55068110,5f35297c29beab480531b140,4,,,,,,telephone,,,,,,,,,,,1,2,0,52,52,7,1,,,,,,,,,,,,,,,,,,,,,,,,,,,,,,,,,,,,,,,,,,,,,,,,,,,,,,,,,,,,,,,,,,,,,,,,,,,,,,,,,,,,,,,,,,,,,,
,,LEADER,3.196485,1,,,,,,stimuli/images/PICTURE_147.png,LEADER,5ea17afa9b1fb6023ebc9117,24/08/1989,2020-08-13_12h53.18.213,proactive2,2020.1.2,Win32,60,5f341be081b9052c55068110,5f35297c29beab480531b140,4,,,,,,hanger,,,,,,,,,,,4,2,0,53,53,33,1,,,,,,,,,,,,,,,,,,,,,,,,,,,,,,,,,,,,,,,,,,,,,,,,,,,,,,,,,,,,,,,,,,,,,,,,,,,,,,,,,,,,,,,,,,,,,,
,,?,0.002055,0,,,,,,stimuli/images/PICTURE_356.png,CANDY,5ea17afa9b1fb6023ebc9117,24/08/1989,2020-08-13_12h53.18.213,proactive2,2020.1.2,Win32,60,5f341be081b9052c55068110,5f35297c29beab480531b140,4,,,,,,pawn,,,,,,,,,,,5,2,0,54,54,46,1,,,,,,,,,,,,,,,,,,,,,,,,,,,,,,,,,,,,,,,,,,,,,,,,,,,,,,,,,,,,,,,,,,,,,,,,,,,,,,,,,,,,,,,,,,,,,,
,,?,0.00216,0,,,,,,stimuli/images/PICTURE_285.png,PRINCE,5ea17afa9b1fb6023ebc9117,24/08/1989,2020-08-13_12h53.18.213,proactive2,2020.1.2,Win32,60,5f341be081b9052c55068110,5f35297c29beab480531b140,4,,,,,,carrot,,,,,,,,,,,3,2,0,55,55,20,1,,,,,,,,,,,,,,,,,,,,,,,,,,,,,,,,,,,,,,,,,,,,,,,,,,,,,,,,,,,,,,,,,,,,,,,,,,,,,,,,,,,,,,,,,,,,,,
,,?,0.00223,0,,,,,,stimuli/images/PICTURE_677.png,FAMILY,5ea17afa9b1fb6023ebc9117,24/08/1989,2020-08-13_12h53.18.213,proactive2,2020.1.2,Win32,60,5f341be081b9052c55068110,5f35297c29beab480531b140,4,,,,,,map,,,,,,,,,,,6,2,0,56,56,53,1,,,,,,,,,,,,,,,,,,,,,,,,,,,,,,,,,,,,,,,,,,,,,,,,,,,,,,,,,,,,,,,,,,,,,,,,,,,,,,,,,,,,,,,,,,,,,,
,,?,0.00253,0,,,,,,stimuli/images/PICTURE_667.png,GLASS,5ea17afa9b1fb6023ebc9117,24/08/1989,2020-08-13_12h53.18.213,proactive2,2020.1.2,Win32,60,5f341be081b9052c55068110,5f35297c29beab480531b140,4,,,,,,daisy,,,,,,,,,,,3,2,0,57,57,27,1,,,,,,,,,,,,,,,,,,,,,,,,,,,,,,,,,,,,,,,,,,,,,,,,,,,,,,,,,,,,,,,,,,,,,,,,,,,,,,,,,,,,,,,,,,,,,,
,,?,0.002125,0,,,,,,stimuli/images/PICTURE_255.png,PENNY,5ea17afa9b1fb6023ebc9117,24/08/1989,2020-08-13_12h53.18.213,proactive2,2020.1.2,Win32,60,5f341be081b9052c55068110,5f35297c29beab480531b140,4,,,,,,shovel,,,,,,,,,,,2,2,0,58,58,19,1,,,,,,,,,,,,,,,,,,,,,,,,,,,,,,,,,,,,,,,,,,,,,,,,,,,,,,,,,,,,,,,,,,,,,,,,,,,,,,,,,,,,,,,,,,,,,,
,,?,0.003105,0,,,,,,stimuli/images/PICTURE_405.png,JUNGLE,5ea17afa9b1fb6023ebc9117,24/08/1989,2020-08-13_12h53.18.213,proactive2,2020.1.2,Win32,60,5f341be081b9052c55068110,5f35297c29beab480531b140,4,,,,,,anchor,,,,,,,,,,,6,2,0,59,59,58,1,,,,,,,,,,,,,,,,,,,,,,,,,,,,,,,,,,,,,,,,,,,,,,,,,,,,,,,,,,,,,,,,,,,,,,,,,,,,,,,,,,,,,,,,,,,,,,
,,,,,,,,,,,,5ea17afa9b1fb6023ebc9117,24/08/1989,2020-08-13_12h53.18.213,proactive2,2020.1.2,Win32,60,5f341be081b9052c55068110,5f35297c29beab480531b140,4,,,,,,,,,,,,,,,,,,,,,,,,0,1,1,2,1,stimuli/learn-block3.csv,,,,,,,,,,,,,,,,,,,,,,,,,,,,,,,,,,,,,,,,,,,,,,,,,,,,,,,,,,,,,,,,,,,,,,,,,,,,,,,,,,,,,,,,
,,,,,,,,,,stimuli/images/PICTURE_504.png,COPS,5ea17afa9b1fb6023ebc9117,24/08/1989,2020-08-13_12h53.18.213,proactive2,2020.1.2,Win32,60,5f341be081b9052c55068110,5f35297c29beab480531b140,4,,,,,,wheel,,,,,,0,0,0,52,1,6,1,,,,,,,,,,,,,,,,,,,,,,,,,,,,,,,,,,,,,,,,,,,,,,,,,,,,,,,,,,,,,,,,,,,,,,,,,,,,,,,,,,,,,,,,,,,,,,,,,,,
,,,,,,,,,,stimuli/images/PICTURE_383.png,WRITER,5ea17afa9b1fb6023ebc9117,24/08/1989,2020-08-13_12h53.18.213,proactive2,2020.1.2,Win32,60,5f341be081b9052c55068110,5f35297c29beab480531b140,4,,,,,,coin,,,,,,0,1,1,28,1,3,1,,,,,,,,,,,,,,,,,,,,,,,,,,,,,,,,,,,,,,,,,,,,,,,,,,,,,,,,,,,,,,,,,,,,,,,,,,,,,,,,,,,,,,,,,,,,,,,,,,,
,,,,,,,,,,stimuli/images/PICTURE_177.png,WRITER,5ea17afa9b1fb6023ebc9117,24/08/1989,2020-08-13_12h53.18.213,proactive2,2020.1.2,Win32,60,5f341be081b9052c55068110,5f35297c29beab480531b140,4,,,,,,mushroom,,,,,,0,2,2,41,1,5,1,,,,,,,,,,,,,,,,,,,,,,,,,,,,,,,,,,,,,,,,,,,,,,,,,,,,,,,,,,,,,,,,,,,,,,,,,,,,,,,,,,,,,,,,,,,,,,,,,,,
,,,,,,,,,,stimuli/images/PICTURE_340.png,LETTER,5ea17afa9b1fb6023ebc9117,24/08/1989,2020-08-13_12h53.18.213,proactive2,2020.1.2,Win32,60,5f341be081b9052c55068110,5f35297c29beab480531b140,4,,,,,,mirror,,,,,,0,3,3,24,1,3,1,,,,,,,,,,,,,,,,,,,,,,,,,,,,,,,,,,,,,,,,,,,,,,,,,,,,,,,,,,,,,,,,,,,,,,,,,,,,,,,,,,,,,,,,,,,,,,,,,,,
,,,,,,,,,,stimuli/images/PICTURE_147.png,WOMEN,5ea17afa9b1fb6023ebc9117,24/08/1989,2020-08-13_12h53.18.213,proactive2,2020.1.2,Win32,60,5f341be081b9052c55068110,5f35297c29beab480531b140,4,,,,,,hanger,,,,,,0,4,4,7,1,1,1,,,,,,,,,,,,,,,,,,,,,,,,,,,,,,,,,,,,,,,,,,,,,,,,,,,,,,,,,,,,,,,,,,,,,,,,,,,,,,,,,,,,,,,,,,,,,,,,,,,
,,,,,,,,,,stimuli/images/PICTURE_504.png,YEAR,5ea17afa9b1fb6023ebc9117,24/08/1989,2020-08-13_12h53.18.213,proactive2,2020.1.2,Win32,60,5f341be081b9052c55068110,5f35297c29beab480531b140,4,,,,,,wheel,,,,,,0,5,5,13,1,2,1,,,,,,,,,,,,,,,,,,,,,,,,,,,,,,,,,,,,,,,,,,,,,,,,,,,,,,,,,,,,,,,,,,,,,,,,,,,,,,,,,,,,,,,,,,,,,,,,,,,
,,,,,,,,,,stimuli/images/PICTURE_491.png,RIVER,5ea17afa9b1fb6023ebc9117,24/08/1989,2020-08-13_12h53.18.213,proactive2,2020.1.2,Win32,60,5f341be081b9052c55068110,5f35297c29beab480531b140,4,,,,,,rug,,,,,,0,6,6,6,1,1,1,,,,,,,,,,,,,,,,,,,,,,,,,,,,,,,,,,,,,,,,,,,,,,,,,,,,,,,,,,,,,,,,,,,,,,,,,,,,,,,,,,,,,,,,,,,,,,,,,,,
,,,,,,,,,,stimuli/images/PICTURE_33.png,FRIEND,5ea17afa9b1fb6023ebc9117,24/08/1989,2020-08-13_12h53.18.213,proactive2,2020.1.2,Win32,60,5f341be081b9052c55068110,5f35297c29beab480531b140,4,,,,,,frame,,,,,,0,7,7,8,1,1,1,,,,,,,,,,,,,,,,,,,,,,,,,,,,,,,,,,,,,,,,,,,,,,,,,,,,,,,,,,,,,,,,,,,,,,,,,,,,,,,,,,,,,,,,,,,,,,,,,,,
,,,,,,,,,,stimuli/images/PICTURE_655.png,TOILET,5ea17afa9b1fb6023ebc9117,24/08/1989,2020-08-13_12h53.18.213,proactive2,2020.1.2,Win32,60,5f341be081b9052c55068110,5f35297c29beab480531b140,4,,,,,,megaphone,,,,,,0,8,8,12,1,2,1,,,,,,,,,,,,,,,,,,,,,,,,,,,,,,,,,,,,,,,,,,,,,,,,,,,,,,,,,,,,,,,,,,,,,,,,,,,,,,,,,,,,,,,,,,,,,,,,,,,
,,,,,,,,,,stimuli/images/PICTURE_339.png,CLIENT,5ea17afa9b1fb6023ebc9117,24/08/1989,2020-08-13_12h53.18.213,proactive2,2020.1.2,Win32,60,5f341be081b9052c55068110,5f35297c29beab480531b140,4,,,,,,backpack,,,,,,0,9,9,11,1,2,1,,,,,,,,,,,,,,,,,,,,,,,,,,,,,,,,,,,,,,,,,,,,,,,,,,,,,,,,,,,,,,,,,,,,,,,,,,,,,,,,,,,,,,,,,,,,,,,,,,,
,,,,,,,,,,stimuli/images/PICTURE_85.png,TOILET,5ea17afa9b1fb6023ebc9117,24/08/1989,2020-08-13_12h53.18.213,proactive2,2020.1.2,Win32,60,5f341be081b9052c55068110,5f35297c29beab480531b140,4,,,,,,diamond,,,,,,0,10,10,48,1,5,1,,,,,,,,,,,,,,,,,,,,,,,,,,,,,,,,,,,,,,,,,,,,,,,,,,,,,,,,,,,,,,,,,,,,,,,,,,,,,,,,,,,,,,,,,,,,,,,,,,,
,,,,,,,,,,stimuli/images/PICTURE_95.png,MILLER,5ea17afa9b1fb6023ebc9117,24/08/1989,2020-08-13_12h53.18.213,proactive2,2020.1.2,Win32,60,5f341be081b9052c55068110,5f35297c29beab480531b140,4,,,,,,suitcase,,,,,,0,11,11,56,1,6,1,,,,,,,,,,,,,,,,,,,,,,,,,,,,,,,,,,,,,,,,,,,,,,,,,,,,,,,,,,,,,,,,,,,,,,,,,,,,,,,,,,,,,,,,,,,,,,,,,,,
,,,,,,,,,,stimuli/images/PICTURE_285.png,LIFE,5ea17afa9b1fb6023ebc9117,24/08/1989,2020-08-13_12h53.18.213,proactive2,2020.1.2,Win32,60,5f341be081b9052c55068110,5f35297c29beab480531b140,4,,,,,,carrot,,,,,,0,12,12,33,1,4,1,,,,,,,,,,,,,,,,,,,,,,,,,,,,,,,,,,,,,,,,,,,,,,,,,,,,,,,,,,,,,,,,,,,,,,,,,,,,,,,,,,,,,,,,,,,,,,,,,,,
,,,,,,,,,,stimuli/images/PICTURE_208.png,SYSTEM,5ea17afa9b1fb6023ebc9117,24/08/1989,2020-08-13_12h53.18.213,proactive2,2020.1.2,Win32,60,5f341be081b9052c55068110,5f35297c29beab480531b140,4,,,,,,microphone,,,,,,0,13,13,32,1,4,1,,,,,,,,,,,,,,,,,,,,,,,,,,,,,,,,,,,,,,,,,,,,,,,,,,,,,,,,,,,,,,,,,,,,,,,,,,,,,,,,,,,,,,,,,,,,,,,,,,,
,,,,,,,,,,stimuli/images/PICTURE_327.png,SERIES,5ea17afa9b1fb6023ebc9117,24/08/1989,2020-08-13_12h53.18.213,proactive2,2020.1.2,Win32,60,5f341be081b9052c55068110,5f35297c29beab480531b140,4,,,,,,helmet,,,,,,0,14,14,3,1,1,1,,,,,,,,,,,,,,,,,,,,,,,,,,,,,,,,,,,,,,,,,,,,,,,,,,,,,,,,,,,,,,,,,,,,,,,,,,,,,,,,,,,,,,,,,,,,,,,,,,,
,,,,,,,,,,stimuli/images/PICTURE_95.png,BOYS,5ea17afa9b1fb6023ebc9117,24/08/1989,2020-08-13_12h53.18.213,proactive2,2020.1.2,Win32,60,5f341be081b9052c55068110,5f35297c29beab480531b140,4,,,,,,suitcase,,,,,,0,15,15,1,1,1,1,,,,,,,,,,,,,,,,,,,,,,,,,,,,,,,,,,,,,,,,,,,,,,,,,,,,,,,,,,,,,,,,,,,,,,,,,,,,,,,,,,,,,,,,,,,,,,,,,,,
,,,,,,,,,,stimuli/images/PICTURE_203.png,NIGHT,5ea17afa9b1fb6023ebc9117,24/08/1989,2020-08-13_12h53.18.213,proactive2,2020.1.2,Win32,60,5f341be081b9052c55068110,5f35297c29beab480531b140,4,,,,,,cap,,,,,,0,16,16,2,1,1,1,,,,,,,,,,,,,,,,,,,,,,,,,,,,,,,,,,,,,,,,,,,,,,,,,,,,,,,,,,,,,,,,,,,,,,,,,,,,,,,,,,,,,,,,,,,,,,,,,,,
,,,,,,,,,,stimuli/images/PICTURE_68.png,MILE,5ea17afa9b1fb6023ebc9117,24/08/1989,2020-08-13_12h53.18.213,proactive2,2020.1.2,Win32,60,5f341be081b9052c55068110,5f35297c29beab480531b140,4,,,,,,candle,,,,,,0,17,17,51,1,6,1,,,,,,,,,,,,,,,,,,,,,,,,,,,,,,,,,,,,,,,,,,,,,,,,,,,,,,,,,,,,,,,,,,,,,,,,,,,,,,,,,,,,,,,,,,,,,,,,,,,
,,,,,,,,,,stimuli/images/PICTURE_708.png,RECORD,5ea17afa9b1fb6023ebc9117,24/08/1989,2020-08-13_12h53.18.213,proactive2,2020.1.2,Win32,60,5f341be081b9052c55068110,5f35297c29beab480531b140,4,,,,,,monkey,,,,,,0,18,18,58,1,6,1,,,,,,,,,,,,,,,,,,,,,,,,,,,,,,,,,,,,,,,,,,,,,,,,,,,,,,,,,,,,,,,,,,,,,,,,,,,,,,,,,,,,,,,,,,,,,,,,,,,
,,,,,,,,,,stimuli/images/PICTURE_308.png,FAMILY,5ea17afa9b1fb6023ebc9117,24/08/1989,2020-08-13_12h53.18.213,proactive2,2020.1.2,Win32,60,5f341be081b9052c55068110,5f35297c29beab480531b140,4,,,,,,dice,,,,,,0,19,19,36,1,4,1,,,,,,,,,,,,,,,,,,,,,,,,,,,,,,,,,,,,,,,,,,,,,,,,,,,,,,,,,,,,,,,,,,,,,,,,,,,,,,,,,,,,,,,,,,,,,,,,,,,
,,,,,,,,,,stimuli/images/PICTURE_233.png,LOTS,5ea17afa9b1fb6023ebc9117,24/08/1989,2020-08-13_12h53.18.213,proactive2,2020.1.2,Win32,60,5f341be081b9052c55068110,5f35297c29beab480531b140,4,,,,,,salt,,,,,,0,20,20,42,1,5,1,,,,,,,,,,,,,,,,,,,,,,,,,,,,,,,,,,,,,,,,,,,,,,,,,,,,,,,,,,,,,,,,,,,,,,,,,,,,,,,,,,,,,,,,,,,,,,,,,,,
,,,,,,,,,,stimuli/images/PICTURE_203.png,GODS,5ea17afa9b1fb6023ebc9117,24/08/1989,2020-08-13_12h53.18.213,proactive2,2020.1.2,Win32,60,5f341be081b9052c55068110,5f35297c29beab480531b140,4,,,,,,cap,,,,,,0,21,21,30,1,4,1,,,,,,,,,,,,,,,,,,,,,,,,,,,,,,,,,,,,,,,,,,,,,,,,,,,,,,,,,,,,,,,,,,,,,,,,,,,,,,,,,,,,,,,,,,,,,,,,,,,
,,,,,,,,,,stimuli/images/PICTURE_340.png,VALLEY,5ea17afa9b1fb6023ebc9117,24/08/1989,2020-08-13_12h53.18.213,proactive2,2020.1.2,Win32,60,5f341be081b9052c55068110,5f35297c29beab480531b140,4,,,,,,mirror,,,,,,0,22,22,54,1,6,1,,,,,,,,,,,,,,,,,,,,,,,,,,,,,,,,,,,,,,,,,,,,,,,,,,,,,,,,,,,,,,,,,,,,,,,,,,,,,,,,,,,,,,,,,,,,,,,,,,,
,,,,,,,,,,stimuli/images/PICTURE_405.png,YEAR,5ea17afa9b1fb6023ebc9117,24/08/1989,2020-08-13_12h53.18.213,proactive2,2020.1.2,Win32,60,5f341be081b9052c55068110,5f35297c29beab480531b140,4,,,,,,anchor,,,,,,0,23,23,34,1,4,1,,,,,,,,,,,,,,,,,,,,,,,,,,,,,,,,,,,,,,,,,,,,,,,,,,,,,,,,,,,,,,,,,,,,,,,,,,,,,,,,,,,,,,,,,,,,,,,,,,,
,,,,,,,,,,stimuli/images/PICTURE_750.png,HOTEL,5ea17afa9b1fb6023ebc9117,24/08/1989,2020-08-13_12h53.18.213,proactive2,2020.1.2,Win32,60,5f341be081b9052c55068110,5f35297c29beab480531b140,4,,,,,,kettle,,,,,,0,24,24,27,1,3,1,,,,,,,,,,,,,,,,,,,,,,,,,,,,,,,,,,,,,,,,,,,,,,,,,,,,,,,,,,,,,,,,,,,,,,,,,,,,,,,,,,,,,,,,,,,,,,,,,,,
,,,,,,,,,,stimuli/images/PICTURE_297.png,RIVER,5ea17afa9b1fb6023ebc9117,24/08/1989,2020-08-13_12h53.18.213,proactive2,2020.1.2,Win32,60,5f341be081b9052c55068110,5f35297c29beab480531b140,4,,,,,,aeroplane,,,,,,0,25,25,39,1,4,1,,,,,,,,,,,,,,,,,,,,,,,,,,,,,,,,,,,,,,,,,,,,,,,,,,,,,,,,,,,,,,,,,,,,,,,,,,,,,,,,,,,,,,,,,,,,,,,,,,,
,,,,,,,,,,stimuli/images/PICTURE_403.png,RIVER,5ea17afa9b1fb6023ebc9117,24/08/1989,2020-08-13_12h53.18.213,proactive2,2020.1.2,Win32,60,5f341be081b9052c55068110,5f35297c29beab480531b140,4,,,,,,cathedral,,,,,,0,26,26,40,1,5,1,,,,,,,,,,,,,,,,,,,,,,,,,,,,,,,,,,,,,,,,,,,,,,,,,,,,,,,,,,,,,,,,,,,,,,,,,,,,,,,,,,,,,,,,,,,,,,,,,,,
,,,,,,,,,,stimuli/images/PICTURE_327.png,CASINO,5ea17afa9b1fb6023ebc9117,24/08/1989,2020-08-13_12h53.18.213,proactive2,2020.1.2,Win32,60,5f341be081b9052c55068110,5f35297c29beab480531b140,4,,,,,,helmet,,,,,,0,27,27,20,1,3,1,,,,,,,,,,,,,,,,,,,,,,,,,,,,,,,,,,,,,,,,,,,,,,,,,,,,,,,,,,,,,,,,,,,,,,,,,,,,,,,,,,,,,,,,,,,,,,,,,,,
,,,,,,,,,,stimuli/images/PICTURE_57.png,MOMENT,5ea17afa9b1fb6023ebc9117,24/08/1989,2020-08-13_12h53.18.213,proactive2,2020.1.2,Win32,60,5f341be081b9052c55068110,5f35297c29beab480531b140,4,,,,,,stamp,,,,,,0,28,28,37,1,4,1,,,,,,,,,,,,,,,,,,,,,,,,,,,,,,,,,,,,,,,,,,,,,,,,,,,,,,,,,,,,,,,,,,,,,,,,,,,,,,,,,,,,,,,,,,,,,,,,,,,
,,,,,,,,,,stimuli/images/PICTURE_405.png,PLENTY,5ea17afa9b1fb6023ebc9117,24/08/1989,2020-08-13_12h53.18.213,proactive2,2020.1.2,Win32,60,5f341be081b9052c55068110,5f35297c29beab480531b140,4,,,,,,anchor,,,,,,0,29,29,23,1,3,1,,,,,,,,,,,,,,,,,,,,,,,,,,,,,,,,,,,,,,,,,,,,,,,,,,,,,,,,,,,,,,,,,,,,,,,,,,,,,,,,,,,,,,,,,,,,,,,,,,,
,,,,,,,,,,stimuli/images/PICTURE_108.png,POLICY,5ea17afa9b1fb6023ebc9117,24/08/1989,2020-08-13_12h53.18.213,proactive2,2020.1.2,Win32,60,5f341be081b9052c55068110,5f35297c29beab480531b140,4,,,,,,calendar,,,,,,0,30,30,22,1,3,1,,,,,,,,,,,,,,,,,,,,,,,,,,,,,,,,,,,,,,,,,,,,,,,,,,,,,,,,,,,,,,,,,,,,,,,,,,,,,,,,,,,,,,,,,,,,,,,,,,,
,,,,,,,,,,stimuli/images/PICTURE_383.png,SERIES,5ea17afa9b1fb6023ebc9117,24/08/1989,2020-08-13_12h53.18.213,proactive2,2020.1.2,Win32,60,5f341be081b9052c55068110,5f35297c29beab480531b140,4,,,,,,coin,,,,,,0,31,31,46,1,5,1,,,,,,,,,,,,,,,,,,,,,,,,,,,,,,,,,,,,,,,,,,,,,,,,,,,,,,,,,,,,,,,,,,,,,,,,,,,,,,,,,,,,,,,,,,,,,,,,,,,
,,,,,,,,,,stimuli/images/PICTURE_564.png,BATH,5ea17afa9b1fb6023ebc9117,24/08/1989,2020-08-13_12h53.18.213,proactive2,2020.1.2,Win32,60,5f341be081b9052c55068110,5f35297c29beab480531b140,4,,,,,,spoon,,,,,,0,32,32,26,1,3,1,,,,,,,,,,,,,,,,,,,,,,,,,,,,,,,,,,,,,,,,,,,,,,,,,,,,,,,,,,,,,,,,,,,,,,,,,,,,,,,,,,,,,,,,,,,,,,,,,,,
,,,,,,,,,,stimuli/images/PICTURE_469.png,AGENT,5ea17afa9b1fb6023ebc9117,24/08/1989,2020-08-13_12h53.18.213,proactive2,2020.1.2,Win32,60,5f341be081b9052c55068110,5f35297c29beab480531b140,4,,,,,,stool,,,,,,0,33,33,16,1,2,1,,,,,,,,,,,,,,,,,,,,,,,,,,,,,,,,,,,,,,,,,,,,,,,,,,,,,,,,,,,,,,,,,,,,,,,,,,,,,,,,,,,,,,,,,,,,,,,,,,,
,,,,,,,,,,stimuli/images/PICTURE_108.png,FLIGHT,5ea17afa9b1fb6023ebc9117,24/08/1989,2020-08-13_12h53.18.213,proactive2,2020.1.2,Win32,60,5f341be081b9052c55068110,5f35297c29beab480531b140,4,,,,,,calendar,,,,,,0,34,34,59,1,6,1,,,,,,,,,,,,,,,,,,,,,,,,,,,,,,,,,,,,,,,,,,,,,,,,,,,,,,,,,,,,,,,,,,,,,,,,,,,,,,,,,,,,,,,,,,,,,,,,,,,
,,,,,,,,,,stimuli/images/PICTURE_32.png,PILLS,5ea17afa9b1fb6023ebc9117,24/08/1989,2020-08-13_12h53.18.213,proactive2,2020.1.2,Win32,60,5f341be081b9052c55068110,5f35297c29beab480531b140,4,,,,,,crown,,,,,,0,35,35,18,1,2,1,,,,,,,,,,,,,,,,,,,,,,,,,,,,,,,,,,,,,,,,,,,,,,,,,,,,,,,,,,,,,,,,,,,,,,,,,,,,,,,,,,,,,,,,,,,,,,,,,,,
,,,,,,,,,,stimuli/images/PICTURE_85.png,NATION,5ea17afa9b1fb6023ebc9117,24/08/1989,2020-08-13_12h53.18.213,proactive2,2020.1.2,Win32,60,5f341be081b9052c55068110,5f35297c29beab480531b140,4,,,,,,diamond,,,,,,0,36,36,5,1,1,1,,,,,,,,,,,,,,,,,,,,,,,,,,,,,,,,,,,,,,,,,,,,,,,,,,,,,,,,,,,,,,,,,,,,,,,,,,,,,,,,,,,,,,,,,,,,,,,,,,,
,,,,,,,,,,stimuli/images/PICTURE_95.png,HONEY,5ea17afa9b1fb6023ebc9117,24/08/1989,2020-08-13_12h53.18.213,proactive2,2020.1.2,Win32,60,5f341be081b9052c55068110,5f35297c29beab480531b140,4,,,,,,suitcase,,,,,,0,37,37,44,1,5,1,,,,,,,,,,,,,,,,,,,,,,,,,,,,,,,,,,,,,,,,,,,,,,,,,,,,,,,,,,,,,,,,,,,,,,,,,,,,,,,,,,,,,,,,,,,,,,,,,,,
,,,,,,,,,,stimuli/images/PICTURE_32.png,KIND,5ea17afa9b1fb6023ebc9117,24/08/1989,2020-08-13_12h53.18.213,proactive2,2020.1.2,Win32,60,5f341be081b9052c55068110,5f35297c29beab480531b140,4,,,,,,crown,,,,,,0,38,38,35,1,4,1,,,,,,,,,,,,,,,,,,,,,,,,,,,,,,,,,,,,,,,,,,,,,,,,,,,,,,,,,,,,,,,,,,,,,,,,,,,,,,,,,,,,,,,,,,,,,,,,,,,
,,,,,,,,,,stimuli/images/PICTURE_487.png,GIRL,5ea17afa9b1fb6023ebc9117,24/08/1989,2020-08-13_12h53.18.213,proactive2,2020.1.2,Win32,60,5f341be081b9052c55068110,5f35297c29beab480531b140,4,,,,,,basket,,,,,,0,39,39,45,1,5,1,,,,,,,,,,,,,,,,,,,,,,,,,,,,,,,,,,,,,,,,,,,,,,,,,,,,,,,,,,,,,,,,,,,,,,,,,,,,,,,,,,,,,,,,,,,,,,,,,,,
,,,,,,,,,,stimuli/images/PICTURE_449.png,DUDE,5ea17afa9b1fb6023ebc9117,24/08/1989,2020-08-13_12h53.18.213,proactive2,2020.1.2,Win32,60,5f341be081b9052c55068110,5f35297c29beab480531b140,4,,,,,,bench,,,,,,0,40,40,17,1,2,1,,,,,,,,,,,,,,,,,,,,,,,,,,,,,,,,,,,,,,,,,,,,,,,,,,,,,,,,,,,,,,,,,,,,,,,,,,,,,,,,,,,,,,,,,,,,,,,,,,,
,,,,,,,,,,stimuli/images/PICTURE_403.png,TOILET,5ea17afa9b1fb6023ebc9117,24/08/1989,2020-08-13_12h53.18.213,proactive2,2020.1.2,Win32,60,5f341be081b9052c55068110,5f35297c29beab480531b140,4,,,,,,cathedral,,,,,,0,41,41,25,1,3,1,,,,,,,,,,,,,,,,,,,,,,,,,,,,,,,,,,,,,,,,,,,,,,,,,,,,,,,,,,,,,,,,,,,,,,,,,,,,,,,,,,,,,,,,,,,,,,,,,,,
,,,,,,,,,,stimuli/images/PICTURE_68.png,ROOF,5ea17afa9b1fb6023ebc9117,24/08/1989,2020-08-13_12h53.18.213,proactive2,2020.1.2,Win32,60,5f341be081b9052c55068110,5f35297c29beab480531b140,4,,,,,,candle,,,,,,0,42,42,38,1,4,1,,,,,,,,,,,,,,,,,,,,,,,,,,,,,,,,,,,,,,,,,,,,,,,,,,,,,,,,,,,,,,,,,,,,,,,,,,,,,,,,,,,,,,,,,,,,,,,,,,,
,,,,,,,,,,stimuli/images/PICTURE_744.png,WEAPON,5ea17afa9b1fb6023ebc9117,24/08/1989,2020-08-13_12h53.18.213,proactive2,2020.1.2,Win32,60,5f341be081b9052c55068110,5f35297c29beab480531b140,4,,,,,,ring,,,,,,0,43,43,50,1,6,1,,,,,,,,,,,,,,,,,,,,,,,,,,,,,,,,,,,,,,,,,,,,,,,,,,,,,,,,,,,,,,,,,,,,,,,,,,,,,,,,,,,,,,,,,,,,,,,,,,,
,,,,,,,,,,stimuli/images/PICTURE_504.png,ARTIST,5ea17afa9b1fb6023ebc9117,24/08/1989,2020-08-13_12h53.18.213,proactive2,2020.1.2,Win32,60,5f341be081b9052c55068110,5f35297c29beab480531b140,4,,,,,,wheel,,,,,,0,44,44,49,1,5,1,,,,,,,,,,,,,,,,,,,,,,,,,,,,,,,,,,,,,,,,,,,,,,,,,,,,,,,,,,,,,,,,,,,,,,,,,,,,,,,,,,,,,,,,,,,,,,,,,,,
,,,,,,,,,,stimuli/images/PICTURE_667.png,RIVER,5ea17afa9b1fb6023ebc9117,24/08/1989,2020-08-13_12h53.18.213,proactive2,2020.1.2,Win32,60,5f341be081b9052c55068110,5f35297c29beab480531b140,4,,,,,,daisy,,,,,,0,45,45,10,1,2,1,,,,,,,,,,,,,,,,,,,,,,,,,,,,,,,,,,,,,,,,,,,,,,,,,,,,,,,,,,,,,,,,,,,,,,,,,,,,,,,,,,,,,,,,,,,,,,,,,,,
,,,,,,,,,,stimuli/images/PICTURE_296.png,LIFE,5ea17afa9b1fb6023ebc9117,24/08/1989,2020-08-13_12h53.18.213,proactive2,2020.1.2,Win32,60,5f341be081b9052c55068110,5f35297c29beab480531b140,4,,,,,,bolt,,,,,,0,46,46,57,1,6,1,,,,,,,,,,,,,,,,,,,,,,,,,,,,,,,,,,,,,,,,,,,,,,,,,,,,,,,,,,,,,,,,,,,,,,,,,,,,,,,,,,,,,,,,,,,,,,,,,,,
,,,,,,,,,,stimuli/images/PICTURE_467.png,POLICY,5ea17afa9b1fb6023ebc9117,24/08/1989,2020-08-13_12h53.18.213,proactive2,2020.1.2,Win32,60,5f341be081b9052c55068110,5f35297c29beab480531b140,4,,,,,,peg,,,,,,0,47,47,53,1,6,1,,,,,,,,,,,,,,,,,,,,,,,,,,,,,,,,,,,,,,,,,,,,,,,,,,,,,,,,,,,,,,,,,,,,,,,,,,,,,,,,,,,,,,,,,,,,,,,,,,,
,,,,,,,,,,stimuli/images/PICTURE_42.png,BOYS,5ea17afa9b1fb6023ebc9117,24/08/1989,2020-08-13_12h53.18.213,proactive2,2020.1.2,Win32,60,5f341be081b9052c55068110,5f35297c29beab480531b140,4,,,,,,pear,,,,,,0,48,48,55,1,6,1,,,,,,,,,,,,,,,,,,,,,,,,,,,,,,,,,,,,,,,,,,,,,,,,,,,,,,,,,,,,,,,,,,,,,,,,,,,,,,,,,,,,,,,,,,,,,,,,,,,
,,,,,,,,,,stimuli/images/PICTURE_491.png,GLASS,5ea17afa9b1fb6023ebc9117,24/08/1989,2020-08-13_12h53.18.213,proactive2,2020.1.2,Win32,60,5f341be081b9052c55068110,5f35297c29beab480531b140,4,,,,,,rug,,,,,,0,49,49,14,1,2,1,,,,,,,,,,,,,,,,,,,,,,,,,,,,,,,,,,,,,,,,,,,,,,,,,,,,,,,,,,,,,,,,,,,,,,,,,,,,,,,,,,,,,,,,,,,,,,,,,,,
