consent_key.keys,consent_key.rt,recalled,recalled_rt,recall_acc,example_recall.thisRepN,example_recall.thisTrialN,example_recall.thisN,example_recall.thisIndex,example_recall.ran,file,word,participant,please enter your date of birth (dd/mm/yyyy),date,expName,psychopyVersion,OS,frameRate,STUDY_ID,SESSION_ID,list,prac_learn_study_loop.thisRepN,prac_learn_study_loop.thisTrialN,prac_learn_study_loop.thisN,prac_learn_study_loop.thisIndex,prac_learn_study_loop.ran,image,prac_learn_test_loop.thisRepN,prac_learn_test_loop.thisTrialN,prac_learn_test_loop.thisN,prac_learn_test_loop.thisIndex,prac_learn_test_loop.ran,learn_study_loop.thisRepN,learn_study_loop.thisTrialN,learn_study_loop.thisN,learn_study_loop.thisIndex,learn_study_loop.ran,list_no,block_no,learn_test_loop.thisRepN,learn_test_loop.thisTrialN,learn_test_loop.thisN,learn_test_loop.thisIndex,learn_test_loop.ran,learn_blocks.thisRepN,learn_blocks.thisTrialN,learn_blocks.thisN,learn_blocks.thisIndex,learn_blocks.ran,block_csv,key_resp_13.keys,key_resp_13.rt,learn_blocks_loop.thisRepN,learn_blocks_loop.thisTrialN,learn_blocks_loop.thisN,learn_blocks_loop.thisIndex,learn_blocks_loop.ran
y,28.80728,TOUGH,5.8545,1,0,0,0,0,1,stimuli/images/PICTURE_747.png,TOUGH,5eab13155a85f50c05f6e9f7,05/08/1947,2020-09-03_19h22.46.837,proactive2,2020.1.2,Win32,60,5f5126bb654d4b30ee6923d8,5f51340d9062f8337771b3d9,6,,,,,,,,,,,,,,,,,,,,,,,,,,,,,,,,,,,,
,,,,,,,,,,stimuli/images/PICTURE_697.png,KILLER,5eab13155a85f50c05f6e9f7,05/08/1947,2020-09-03_19h22.46.837,proactive2,2020.1.2,Win32,60,5f5126bb654d4b30ee6923d8,5f51340d9062f8337771b3d9,6,0,0,0,4,1,peach,,,,,,,,,,,,,,,,,,,,,,,,,,,,,,
,,,,,,,,,,stimuli/images/PICTURE_658.png,DEVIL,5eab13155a85f50c05f6e9f7,05/08/1947,2020-09-03_19h22.46.837,proactive2,2020.1.2,Win32,60,5f5126bb654d4b30ee6923d8,5f51340d9062f8337771b3d9,6,0,1,1,3,1,crow,,,,,,,,,,,,,,,,,,,,,,,,,,,,,,
,,,,,,,,,,stimuli/images/PICTURE_269.png,GENIUS,5eab13155a85f50c05f6e9f7,05/08/1947,2020-09-03_19h22.46.837,proactive2,2020.1.2,Win32,60,5f5126bb654d4b30ee6923d8,5f51340d9062f8337771b3d9,6,0,2,2,0,1,chameleon,,,,,,,,,,,,,,,,,,,,,,,,,,,,,,
,,,,,,,,,,stimuli/images/PICTURE_378.png,LOSS,5eab13155a85f50c05f6e9f7,05/08/1947,2020-09-03_19h22.46.837,proactive2,2020.1.2,Win32,60,5f5126bb654d4b30ee6923d8,5f51340d9062f8337771b3d9,6,0,3,3,2,1,lobster,,,,,,,,,,,,,,,,,,,,,,,,,,,,,,
,,LOSSDE,15.01397,0,,,,,,stimuli/images/PICTURE_269.png,GENIUS,5eab13155a85f50c05f6e9f7,05/08/1947,2020-09-03_19h22.46.837,proactive2,2020.1.2,Win32,60,5f5126bb654d4b30ee6923d8,5f51340d9062f8337771b3d9,6,,,,,,chameleon,0,0,0,0,1,,,,,,,,,,,,,,,,,,,,,,,,,
,,DEVIL,15.001825,1,,,,,,stimuli/images/PICTURE_658.png,DEVIL,5eab13155a85f50c05f6e9f7,05/08/1947,2020-09-03_19h22.46.837,proactive2,2020.1.2,Win32,60,5f5126bb654d4b30ee6923d8,5f51340d9062f8337771b3d9,6,,,,,,crow,0,1,1,3,1,,,,,,,,,,,,,,,,,,,,,,,,,
,,LOSS,15.00311,0,,,,,,stimuli/images/PICTURE_727.png,CELL,5eab13155a85f50c05f6e9f7,05/08/1947,2020-09-03_19h22.46.837,proactive2,2020.1.2,Win32,60,5f5126bb654d4b30ee6923d8,5f51340d9062f8337771b3d9,6,,,,,,hose,0,2,2,1,1,,,,,,,,,,,,,,,,,,,,,,,,,
,,KILLER,7.209965,0,,,,,,stimuli/images/PICTURE_378.png,LOSS,5eab13155a85f50c05f6e9f7,05/08/1947,2020-09-03_19h22.46.837,proactive2,2020.1.2,Win32,60,5f5126bb654d4b30ee6923d8,5f51340d9062f8337771b3d9,6,,,,,,lobster,0,3,3,2,1,,,,,,,,,,,,,,,,,,,,,,,,,
,,KILLER,6.133565,1,,,,,,stimuli/images/PICTURE_697.png,KILLER,5eab13155a85f50c05f6e9f7,05/08/1947,2020-09-03_19h22.46.837,proactive2,2020.1.2,Win32,60,5f5126bb654d4b30ee6923d8,5f51340d9062f8337771b3d9,6,,,,,,peach,0,4,4,4,1,,,,,,,,,,,,,,,,,,,,,,,,,
,,,,,,,,,,stimuli/images/PICTURE_177.png,CARS,5eab13155a85f50c05f6e9f7,05/08/1947,2020-09-03_19h22.46.837,proactive2,2020.1.2,Win32,60,5f5126bb654d4b30ee6923d8,5f51340d9062f8337771b3d9,6,,,,,,mushroom,,,,,,0,0,0,35,1,4,0,,,,,,,,,,,,,,,,,,
,,,,,,,,,,stimuli/images/PICTURE_453.png,DUDE,5eab13155a85f50c05f6e9f7,05/08/1947,2020-09-03_19h22.46.837,proactive2,2020.1.2,Win32,60,5f5126bb654d4b30ee6923d8,5f51340d9062f8337771b3d9,6,,,,,,scissors,,,,,,0,1,1,27,1,3,0,,,,,,,,,,,,,,,,,,
,,,,,,,,,,stimuli/images/PICTURE_233.png,IDEAS,5eab13155a85f50c05f6e9f7,05/08/1947,2020-09-03_19h22.46.837,proactive2,2020.1.2,Win32,60,5f5126bb654d4b30ee6923d8,5f51340d9062f8337771b3d9,6,,,,,,salt,,,,,,0,2,2,28,1,3,0,,,,,,,,,,,,,,,,,,
,,,,,,,,,,stimuli/images/PICTURE_95.png,STYLE,5eab13155a85f50c05f6e9f7,05/08/1947,2020-09-03_19h22.46.837,proactive2,2020.1.2,Win32,60,5f5126bb654d4b30ee6923d8,5f51340d9062f8337771b3d9,6,,,,,,suitcase,,,,,,0,3,3,25,1,3,0,,,,,,,,,,,,,,,,,,
,,,,,,,,,,stimuli/images/PICTURE_215.png,PLENTY,5eab13155a85f50c05f6e9f7,05/08/1947,2020-09-03_19h22.46.837,proactive2,2020.1.2,Win32,60,5f5126bb654d4b30ee6923d8,5f51340d9062f8337771b3d9,6,,,,,,boot,,,,,,0,4,4,37,1,4,0,,,,,,,,,,,,,,,,,,
,,,,,,,,,,stimuli/images/PICTURE_667.png,PLENTY,5eab13155a85f50c05f6e9f7,05/08/1947,2020-09-03_19h22.46.837,proactive2,2020.1.2,Win32,60,5f5126bb654d4b30ee6923d8,5f51340d9062f8337771b3d9,6,,,,,,daisy,,,,,,0,5,5,41,1,5,0,,,,,,,,,,,,,,,,,,
,,,,,,,,,,stimuli/images/PICTURE_208.png,THING,5eab13155a85f50c05f6e9f7,05/08/1947,2020-09-03_19h22.46.837,proactive2,2020.1.2,Win32,60,5f5126bb654d4b30ee6923d8,5f51340d9062f8337771b3d9,6,,,,,,microphone,,,,,,0,6,6,47,1,5,0,,,,,,,,,,,,,,,,,,
,,,,,,,,,,stimuli/images/PICTURE_151.png,GIRL,5eab13155a85f50c05f6e9f7,05/08/1947,2020-09-03_19h22.46.837,proactive2,2020.1.2,Win32,60,5f5126bb654d4b30ee6923d8,5f51340d9062f8337771b3d9,6,,,,,,tray,,,,,,0,7,7,19,1,2,0,,,,,,,,,,,,,,,,,,
,,,,,,,,,,stimuli/images/PICTURE_708.png,YARD,5eab13155a85f50c05f6e9f7,05/08/1947,2020-09-03_19h22.46.837,proactive2,2020.1.2,Win32,60,5f5126bb654d4b30ee6923d8,5f51340d9062f8337771b3d9,6,,,,,,monkey,,,,,,0,8,8,29,1,3,0,,,,,,,,,,,,,,,,,,
,,,,,,,,,,stimuli/images/PICTURE_308.png,ESTATE,5eab13155a85f50c05f6e9f7,05/08/1947,2020-09-03_19h22.46.837,proactive2,2020.1.2,Win32,60,5f5126bb654d4b30ee6923d8,5f51340d9062f8337771b3d9,6,,,,,,dice,,,,,,0,9,9,46,1,5,0,,,,,,,,,,,,,,,,,,
,,,,,,,,,,stimuli/images/PICTURE_208.png,MONTH,5eab13155a85f50c05f6e9f7,05/08/1947,2020-09-03_19h22.46.837,proactive2,2020.1.2,Win32,60,5f5126bb654d4b30ee6923d8,5f51340d9062f8337771b3d9,6,,,,,,microphone,,,,,,0,10,10,53,1,6,0,,,,,,,,,,,,,,,,,,
,,,,,,,,,,stimuli/images/PICTURE_348.png,SPEECH,5eab13155a85f50c05f6e9f7,05/08/1947,2020-09-03_19h22.46.837,proactive2,2020.1.2,Win32,60,5f5126bb654d4b30ee6923d8,5f51340d9062f8337771b3d9,6,,,,,,pepper,,,,,,0,11,11,20,1,3,0,,,,,,,,,,,,,,,,,,
,,,,,,,,,,stimuli/images/PICTURE_491.png,WRITER,5eab13155a85f50c05f6e9f7,05/08/1947,2020-09-03_19h22.46.837,proactive2,2020.1.2,Win32,60,5f5126bb654d4b30ee6923d8,5f51340d9062f8337771b3d9,6,,,,,,rug,,,,,,0,12,12,57,1,6,0,,,,,,,,,,,,,,,,,,
,,,,,,,,,,stimuli/images/PICTURE_203.png,ARTIST,5eab13155a85f50c05f6e9f7,05/08/1947,2020-09-03_19h22.46.837,proactive2,2020.1.2,Win32,60,5f5126bb654d4b30ee6923d8,5f51340d9062f8337771b3d9,6,,,,,,cap,,,,,,0,13,13,26,1,3,0,,,,,,,,,,,,,,,,,,
,,,,,,,,,,stimuli/images/PICTURE_449.png,THING,5eab13155a85f50c05f6e9f7,05/08/1947,2020-09-03_19h22.46.837,proactive2,2020.1.2,Win32,60,5f5126bb654d4b30ee6923d8,5f51340d9062f8337771b3d9,6,,,,,,bench,,,,,,0,14,14,59,1,6,0,,,,,,,,,,,,,,,,,,
,,,,,,,,,,stimuli/images/PICTURE_744.png,SAKE,5eab13155a85f50c05f6e9f7,05/08/1947,2020-09-03_19h22.46.837,proactive2,2020.1.2,Win32,60,5f5126bb654d4b30ee6923d8,5f51340d9062f8337771b3d9,6,,,,,,ring,,,,,,0,15,15,17,1,2,0,,,,,,,,,,,,,,,,,,
,,,,,,,,,,stimuli/images/PICTURE_248.png,DOZEN,5eab13155a85f50c05f6e9f7,05/08/1947,2020-09-03_19h22.46.837,proactive2,2020.1.2,Win32,60,5f5126bb654d4b30ee6923d8,5f51340d9062f8337771b3d9,6,,,,,,cart,,,,,,0,16,16,39,1,4,0,,,,,,,,,,,,,,,,,,
,,,,,,,,,,stimuli/images/PICTURE_470.png,CASINO,5eab13155a85f50c05f6e9f7,05/08/1947,2020-09-03_19h22.46.837,proactive2,2020.1.2,Win32,60,5f5126bb654d4b30ee6923d8,5f51340d9062f8337771b3d9,6,,,,,,motorbike,,,,,,0,17,17,36,1,4,0,,,,,,,,,,,,,,,,,,
,,,,,,,,,,stimuli/images/PICTURE_675.png,WEAPON,5eab13155a85f50c05f6e9f7,05/08/1947,2020-09-03_19h22.46.837,proactive2,2020.1.2,Win32,60,5f5126bb654d4b30ee6923d8,5f51340d9062f8337771b3d9,6,,,,,,windmill,,,,,,0,18,18,32,1,4,0,,,,,,,,,,,,,,,,,,
,,,,,,,,,,stimuli/images/PICTURE_314.png,GODS,5eab13155a85f50c05f6e9f7,05/08/1947,2020-09-03_19h22.46.837,proactive2,2020.1.2,Win32,60,5f5126bb654d4b30ee6923d8,5f51340d9062f8337771b3d9,6,,,,,,perfume,,,,,,0,19,19,11,1,2,0,,,,,,,,,,,,,,,,,,
,,,,,,,,,,stimuli/images/PICTURE_314.png,SAKE,5eab13155a85f50c05f6e9f7,05/08/1947,2020-09-03_19h22.46.837,proactive2,2020.1.2,Win32,60,5f5126bb654d4b30ee6923d8,5f51340d9062f8337771b3d9,6,,,,,,perfume,,,,,,0,20,20,7,1,1,0,,,,,,,,,,,,,,,,,,
,,,,,,,,,,stimuli/images/PICTURE_160.png,FEET,5eab13155a85f50c05f6e9f7,05/08/1947,2020-09-03_19h22.46.837,proactive2,2020.1.2,Win32,60,5f5126bb654d4b30ee6923d8,5f51340d9062f8337771b3d9,6,,,,,,wheelbarrow,,,,,,0,21,21,58,1,6,0,,,,,,,,,,,,,,,,,,
,,,,,,,,,,stimuli/images/PICTURE_327.png,BEAUTY,5eab13155a85f50c05f6e9f7,05/08/1947,2020-09-03_19h22.46.837,proactive2,2020.1.2,Win32,60,5f5126bb654d4b30ee6923d8,5f51340d9062f8337771b3d9,6,,,,,,helmet,,,,,,0,22,22,48,1,5,0,,,,,,,,,,,,,,,,,,
,,,,,,,,,,stimuli/images/PICTURE_85.png,THING,5eab13155a85f50c05f6e9f7,05/08/1947,2020-09-03_19h22.46.837,proactive2,2020.1.2,Win32,60,5f5126bb654d4b30ee6923d8,5f51340d9062f8337771b3d9,6,,,,,,diamond,,,,,,0,23,23,15,1,2,0,,,,,,,,,,,,,,,,,,
,,,,,,,,,,stimuli/images/PICTURE_233.png,WOMEN,5eab13155a85f50c05f6e9f7,05/08/1947,2020-09-03_19h22.46.837,proactive2,2020.1.2,Win32,60,5f5126bb654d4b30ee6923d8,5f51340d9062f8337771b3d9,6,,,,,,salt,,,,,,0,24,24,38,1,4,0,,,,,,,,,,,,,,,,,,
,,,,,,,,,,stimuli/images/PICTURE_32.png,JUNGLE,5eab13155a85f50c05f6e9f7,05/08/1947,2020-09-03_19h22.46.837,proactive2,2020.1.2,Win32,60,5f5126bb654d4b30ee6923d8,5f51340d9062f8337771b3d9,6,,,,,,crown,,,,,,0,25,25,45,1,5,0,,,,,,,,,,,,,,,,,,
,,,,,,,,,,stimuli/images/PICTURE_123.png,ADVICE,5eab13155a85f50c05f6e9f7,05/08/1947,2020-09-03_19h22.46.837,proactive2,2020.1.2,Win32,60,5f5126bb654d4b30ee6923d8,5f51340d9062f8337771b3d9,6,,,,,,dart,,,,,,0,26,26,50,1,6,0,,,,,,,,,,,,,,,,,,
,,,,,,,,,,stimuli/images/PICTURE_654.png,VALLEY,5eab13155a85f50c05f6e9f7,05/08/1947,2020-09-03_19h22.46.837,proactive2,2020.1.2,Win32,60,5f5126bb654d4b30ee6923d8,5f51340d9062f8337771b3d9,6,,,,,,pencil,,,,,,0,27,27,1,1,1,0,,,,,,,,,,,,,,,,,,
,,,,,,,,,,stimuli/images/PICTURE_311.png,BEAUTY,5eab13155a85f50c05f6e9f7,05/08/1947,2020-09-03_19h22.46.837,proactive2,2020.1.2,Win32,60,5f5126bb654d4b30ee6923d8,5f51340d9062f8337771b3d9,6,,,,,,razor,,,,,,0,28,28,13,1,2,0,,,,,,,,,,,,,,,,,,
,,,,,,,,,,stimuli/images/PICTURE_302.png,FAMILY,5eab13155a85f50c05f6e9f7,05/08/1947,2020-09-03_19h22.46.837,proactive2,2020.1.2,Win32,60,5f5126bb654d4b30ee6923d8,5f51340d9062f8337771b3d9,6,,,,,,taxi,,,,,,0,29,29,18,1,2,0,,,,,,,,,,,,,,,,,,
,,,,,,,,,,stimuli/images/PICTURE_469.png,ARTIST,5eab13155a85f50c05f6e9f7,05/08/1947,2020-09-03_19h22.46.837,proactive2,2020.1.2,Win32,60,5f5126bb654d4b30ee6923d8,5f51340d9062f8337771b3d9,6,,,,,,stool,,,,,,0,30,30,6,1,1,0,,,,,,,,,,,,,,,,,,
,,,,,,,,,,stimuli/images/PICTURE_147.png,MOMENT,5eab13155a85f50c05f6e9f7,05/08/1947,2020-09-03_19h22.46.837,proactive2,2020.1.2,Win32,60,5f5126bb654d4b30ee6923d8,5f51340d9062f8337771b3d9,6,,,,,,hanger,,,,,,0,31,31,51,1,6,0,,,,,,,,,,,,,,,,,,
,,,,,,,,,,stimuli/images/PICTURE_491.png,ROOF,5eab13155a85f50c05f6e9f7,05/08/1947,2020-09-03_19h22.46.837,proactive2,2020.1.2,Win32,60,5f5126bb654d4b30ee6923d8,5f51340d9062f8337771b3d9,6,,,,,,rug,,,,,,0,32,32,24,1,3,0,,,,,,,,,,,,,,,,,,
,,,,,,,,,,stimuli/images/PICTURE_744.png,SYSTEM,5eab13155a85f50c05f6e9f7,05/08/1947,2020-09-03_19h22.46.837,proactive2,2020.1.2,Win32,60,5f5126bb654d4b30ee6923d8,5f51340d9062f8337771b3d9,6,,,,,,ring,,,,,,0,33,33,43,1,5,0,,,,,,,,,,,,,,,,,,
,,,,,,,,,,stimuli/images/PICTURE_68.png,MILE,5eab13155a85f50c05f6e9f7,05/08/1947,2020-09-03_19h22.46.837,proactive2,2020.1.2,Win32,60,5f5126bb654d4b30ee6923d8,5f51340d9062f8337771b3d9,6,,,,,,candle,,,,,,0,34,34,44,1,5,0,,,,,,,,,,,,,,,,,,
,,,,,,,,,,stimuli/images/PICTURE_380.png,PHOTO,5eab13155a85f50c05f6e9f7,05/08/1947,2020-09-03_19h22.46.837,proactive2,2020.1.2,Win32,60,5f5126bb654d4b30ee6923d8,5f51340d9062f8337771b3d9,6,,,,,,gorilla,,,,,,0,35,35,52,1,6,0,,,,,,,,,,,,,,,,,,
,,,,,,,,,,stimuli/images/PICTURE_509.png,PHOTO,5eab13155a85f50c05f6e9f7,05/08/1947,2020-09-03_19h22.46.837,proactive2,2020.1.2,Win32,60,5f5126bb654d4b30ee6923d8,5f51340d9062f8337771b3d9,6,,,,,,telephone,,,,,,0,36,36,21,1,3,0,,,,,,,,,,,,,,,,,,
,,,,,,,,,,stimuli/images/PICTURE_339.png,PLENTY,5eab13155a85f50c05f6e9f7,05/08/1947,2020-09-03_19h22.46.837,proactive2,2020.1.2,Win32,60,5f5126bb654d4b30ee6923d8,5f51340d9062f8337771b3d9,6,,,,,,backpack,,,,,,0,37,37,0,1,1,0,,,,,,,,,,,,,,,,,,
,,,,,,,,,,stimuli/images/PICTURE_356.png,DANGER,5eab13155a85f50c05f6e9f7,05/08/1947,2020-09-03_19h22.46.837,proactive2,2020.1.2,Win32,60,5f5126bb654d4b30ee6923d8,5f51340d9062f8337771b3d9,6,,,,,,pawn,,,,,,0,38,38,55,1,6,0,,,,,,,,,,,,,,,,,,
,,,,,,,,,,stimuli/images/PICTURE_708.png,CLIENT,5eab13155a85f50c05f6e9f7,05/08/1947,2020-09-03_19h22.46.837,proactive2,2020.1.2,Win32,60,5f5126bb654d4b30ee6923d8,5f51340d9062f8337771b3d9,6,,,,,,monkey,,,,,,0,39,39,5,1,1,0,,,,,,,,,,,,,,,,,,
,,,,,,,,,,stimuli/images/PICTURE_453.png,PLENTY,5eab13155a85f50c05f6e9f7,05/08/1947,2020-09-03_19h22.46.837,proactive2,2020.1.2,Win32,60,5f5126bb654d4b30ee6923d8,5f51340d9062f8337771b3d9,6,,,,,,scissors,,,,,,0,40,40,56,1,6,0,,,,,,,,,,,,,,,,,,
,,,,,,,,,,stimuli/images/PICTURE_308.png,KIND,5eab13155a85f50c05f6e9f7,05/08/1947,2020-09-03_19h22.46.837,proactive2,2020.1.2,Win32,60,5f5126bb654d4b30ee6923d8,5f51340d9062f8337771b3d9,6,,,,,,dice,,,,,,0,41,41,54,1,6,0,,,,,,,,,,,,,,,,,,
,,,,,,,,,,stimuli/images/PICTURE_467.png,DEMON,5eab13155a85f50c05f6e9f7,05/08/1947,2020-09-03_19h22.46.837,proactive2,2020.1.2,Win32,60,5f5126bb654d4b30ee6923d8,5f51340d9062f8337771b3d9,6,,,,,,peg,,,,,,0,42,42,23,1,3,0,,,,,,,,,,,,,,,,,,
,,,,,,,,,,stimuli/images/PICTURE_692.png,MONTH,5eab13155a85f50c05f6e9f7,05/08/1947,2020-09-03_19h22.46.837,proactive2,2020.1.2,Win32,60,5f5126bb654d4b30ee6923d8,5f51340d9062f8337771b3d9,6,,,,,,cherry,,,,,,0,43,43,16,1,2,0,,,,,,,,,,,,,,,,,,
,,,,,,,,,,stimuli/images/PICTURE_380.png,DEATH,5eab13155a85f50c05f6e9f7,05/08/1947,2020-09-03_19h22.46.837,proactive2,2020.1.2,Win32,60,5f5126bb654d4b30ee6923d8,5f51340d9062f8337771b3d9,6,,,,,,gorilla,,,,,,0,44,44,49,1,5,0,,,,,,,,,,,,,,,,,,
,,,,,,,,,,stimuli/images/PICTURE_708.png,PENNY,5eab13155a85f50c05f6e9f7,05/08/1947,2020-09-03_19h22.46.837,proactive2,2020.1.2,Win32,60,5f5126bb654d4b30ee6923d8,5f51340d9062f8337771b3d9,6,,,,,,monkey,,,,,,0,45,45,31,1,4,0,,,,,,,,,,,,,,,,,,
,,,,,,,,,,stimuli/images/PICTURE_688.png,CASINO,5eab13155a85f50c05f6e9f7,05/08/1947,2020-09-03_19h22.46.837,proactive2,2020.1.2,Win32,60,5f5126bb654d4b30ee6923d8,5f51340d9062f8337771b3d9,6,,,,,,runner,,,,,,0,46,46,2,1,1,0,,,,,,,,,,,,,,,,,,
,,,,,,,,,,stimuli/images/PICTURE_488.png,STYLE,5eab13155a85f50c05f6e9f7,05/08/1947,2020-09-03_19h22.46.837,proactive2,2020.1.2,Win32,60,5f5126bb654d4b30ee6923d8,5f51340d9062f8337771b3d9,6,,,,,,sun,,,,,,0,47,47,33,1,4,0,,,,,,,,,,,,,,,,,,
,,,,,,,,,,stimuli/images/PICTURE_208.png,LOTS,5eab13155a85f50c05f6e9f7,05/08/1947,2020-09-03_19h22.46.837,proactive2,2020.1.2,Win32,60,5f5126bb654d4b30ee6923d8,5f51340d9062f8337771b3d9,6,,,,,,microphone,,,,,,0,48,48,10,1,2,0,,,,,,,,,,,,,,,,,,
,,,,,,,,,,stimuli/images/PICTURE_123.png,ADVICE,5eab13155a85f50c05f6e9f7,05/08/1947,2020-09-03_19h22.46.837,proactive2,2020.1.2,Win32,60,5f5126bb654d4b30ee6923d8,5f51340d9062f8337771b3d9,6,,,,,,dart,,,,,,0,49,49,40,1,5,0,,,,,,,,,,,,,,,,,,
,,,,,,,,,,stimuli/images/PICTURE_469.png,LETTER,5eab13155a85f50c05f6e9f7,05/08/1947,2020-09-03_19h22.46.837,proactive2,2020.1.2,Win32,60,5f5126bb654d4b30ee6923d8,5f51340d9062f8337771b3d9,6,,,,,,stool,,,,,,0,50,50,42,1,5,0,,,,,,,,,,,,,,,,,,
,,,,,,,,,,stimuli/images/PICTURE_667.png,BATH,5eab13155a85f50c05f6e9f7,05/08/1947,2020-09-03_19h22.46.837,proactive2,2020.1.2,Win32,60,5f5126bb654d4b30ee6923d8,5f51340d9062f8337771b3d9,6,,,,,,daisy,,,,,,0,51,51,4,1,1,0,,,,,,,,,,,,,,,,,,
,,,,,,,,,,stimuli/images/PICTURE_255.png,AREA,5eab13155a85f50c05f6e9f7,05/08/1947,2020-09-03_19h22.46.837,proactive2,2020.1.2,Win32,60,5f5126bb654d4b30ee6923d8,5f51340d9062f8337771b3d9,6,,,,,,shovel,,,,,,0,52,52,22,1,3,0,,,,,,,,,,,,,,,,,,
,,,,,,,,,,stimuli/images/PICTURE_688.png,WOMEN,5eab13155a85f50c05f6e9f7,05/08/1947,2020-09-03_19h22.46.837,proactive2,2020.1.2,Win32,60,5f5126bb654d4b30ee6923d8,5f51340d9062f8337771b3d9,6,,,,,,runner,,,,,,0,53,53,14,1,2,0,,,,,,,,,,,,,,,,,,
,,,,,,,,,,stimuli/images/PICTURE_311.png,FRIEND,5eab13155a85f50c05f6e9f7,05/08/1947,2020-09-03_19h22.46.837,proactive2,2020.1.2,Win32,60,5f5126bb654d4b30ee6923d8,5f51340d9062f8337771b3d9,6,,,,,,razor,,,,,,0,54,54,34,1,4,0,,,,,,,,,,,,,,,,,,
,,,,,,,,,,stimuli/images/PICTURE_677.png,MILE,5eab13155a85f50c05f6e9f7,05/08/1947,2020-09-03_19h22.46.837,proactive2,2020.1.2,Win32,60,5f5126bb654d4b30ee6923d8,5f51340d9062f8337771b3d9,6,,,,,,map,,,,,,0,55,55,30,1,4,0,,,,,,,,,,,,,,,,,,
,,,,,,,,,,stimuli/images/PICTURE_160.png,LEADER,5eab13155a85f50c05f6e9f7,05/08/1947,2020-09-03_19h22.46.837,proactive2,2020.1.2,Win32,60,5f5126bb654d4b30ee6923d8,5f51340d9062f8337771b3d9,6,,,,,,wheelbarrow,,,,,,0,56,56,3,1,1,0,,,,,,,,,,,,,,,,,,
,,,,,,,,,,stimuli/images/PICTURE_285.png,ADVICE,5eab13155a85f50c05f6e9f7,05/08/1947,2020-09-03_19h22.46.837,proactive2,2020.1.2,Win32,60,5f5126bb654d4b30ee6923d8,5f51340d9062f8337771b3d9,6,,,,,,carrot,,,,,,0,57,57,12,1,2,0,,,,,,,,,,,,,,,,,,
,,,,,,,,,,stimuli/images/PICTURE_504.png,BODY,5eab13155a85f50c05f6e9f7,05/08/1947,2020-09-03_19h22.46.837,proactive2,2020.1.2,Win32,60,5f5126bb654d4b30ee6923d8,5f51340d9062f8337771b3d9,6,,,,,,wheel,,,,,,0,58,58,8,1,1,0,,,,,,,,,,,,,,,,,,
,,?,0.003715,0,,,,,,stimuli/images/PICTURE_467.png,DEMON,5eab13155a85f50c05f6e9f7,05/08/1947,2020-09-03_19h22.46.837,proactive2,2020.1.2,Win32,60,5f5126bb654d4b30ee6923d8,5f51340d9062f8337771b3d9,6,,,,,,peg,,,,,,,,,,,3,0,0,0,0,23,1,,,,,,,,,,,,,
,,?,0.00175,0,,,,,,stimuli/images/PICTURE_688.png,WOMEN,5eab13155a85f50c05f6e9f7,05/08/1947,2020-09-03_19h22.46.837,proactive2,2020.1.2,Win32,60,5f5126bb654d4b30ee6923d8,5f51340d9062f8337771b3d9,6,,,,,,runner,,,,,,,,,,,2,0,0,1,1,14,1,,,,,,,,,,,,,
,,PLENTY,9.258435,1,,,,,,stimuli/images/PICTURE_453.png,PLENTY,5eab13155a85f50c05f6e9f7,05/08/1947,2020-09-03_19h22.46.837,proactive2,2020.1.2,Win32,60,5f5126bb654d4b30ee6923d8,5f51340d9062f8337771b3d9,6,,,,,,scissors,,,,,,,,,,,6,0,0,2,2,56,1,,,,,,,,,,,,,
,,?,0.00223,0,,,,,,stimuli/images/PICTURE_491.png,ROOF,5eab13155a85f50c05f6e9f7,05/08/1947,2020-09-03_19h22.46.837,proactive2,2020.1.2,Win32,60,5f5126bb654d4b30ee6923d8,5f51340d9062f8337771b3d9,6,,,,,,rug,,,,,,,,,,,3,0,0,3,3,24,1,,,,,,,,,,,,,
,,?,0.00208,0,,,,,,stimuli/images/PICTURE_311.png,FRIEND,5eab13155a85f50c05f6e9f7,05/08/1947,2020-09-03_19h22.46.837,proactive2,2020.1.2,Win32,60,5f5126bb654d4b30ee6923d8,5f51340d9062f8337771b3d9,6,,,,,,razor,,,,,,,,,,,4,0,0,4,4,34,1,,,,,,,,,,,,,
,,?,0.00183,0,,,,,,stimuli/images/PICTURE_177.png,CARS,5eab13155a85f50c05f6e9f7,05/08/1947,2020-09-03_19h22.46.837,proactive2,2020.1.2,Win32,60,5f5126bb654d4b30ee6923d8,5f51340d9062f8337771b3d9,6,,,,,,mushroom,,,,,,,,,,,4,0,0,5,5,35,1,,,,,,,,,,,,,
,,?,0.00282,0,,,,,,stimuli/images/PICTURE_233.png,WOMEN,5eab13155a85f50c05f6e9f7,05/08/1947,2020-09-03_19h22.46.837,proactive2,2020.1.2,Win32,60,5f5126bb654d4b30ee6923d8,5f51340d9062f8337771b3d9,6,,,,,,salt,,,,,,,,,,,4,0,0,6,6,38,1,,,,,,,,,,,,,
,,?,0.0019,0,,,,,,stimuli/images/PICTURE_314.png,GODS,5eab13155a85f50c05f6e9f7,05/08/1947,2020-09-03_19h22.46.837,proactive2,2020.1.2,Win32,60,5f5126bb654d4b30ee6923d8,5f51340d9062f8337771b3d9,6,,,,,,perfume,,,,,,,,,,,2,0,0,7,7,11,1,,,,,,,,,,,,,
,,?,0.002425,0,,,,,,stimuli/images/PICTURE_208.png,LOTS,5eab13155a85f50c05f6e9f7,05/08/1947,2020-09-03_19h22.46.837,proactive2,2020.1.2,Win32,60,5f5126bb654d4b30ee6923d8,5f51340d9062f8337771b3d9,6,,,,,,microphone,,,,,,,,,,,2,0,0,8,8,10,1,,,,,,,,,,,,,
,,?,0.00176,0,,,,,,stimuli/images/PICTURE_314.png,SAKE,5eab13155a85f50c05f6e9f7,05/08/1947,2020-09-03_19h22.46.837,proactive2,2020.1.2,Win32,60,5f5126bb654d4b30ee6923d8,5f51340d9062f8337771b3d9,6,,,,,,perfume,,,,,,,,,,,1,0,0,9,9,7,1,,,,,,,,,,,,,
,,?,0.00179,0,,,,,,stimuli/images/PICTURE_688.png,CASINO,5eab13155a85f50c05f6e9f7,05/08/1947,2020-09-03_19h22.46.837,proactive2,2020.1.2,Win32,60,5f5126bb654d4b30ee6923d8,5f51340d9062f8337771b3d9,6,,,,,,runner,,,,,,,,,,,1,0,0,10,10,2,1,,,,,,,,,,,,,
,,FEET,4.559165,1,,,,,,stimuli/images/PICTURE_160.png,FEET,5eab13155a85f50c05f6e9f7,05/08/1947,2020-09-03_19h22.46.837,proactive2,2020.1.2,Win32,60,5f5126bb654d4b30ee6923d8,5f51340d9062f8337771b3d9,6,,,,,,wheelbarrow,,,,,,,,,,,6,0,0,11,11,58,1,,,,,,,,,,,,,
,,?,0.002075,0,,,,,,stimuli/images/PICTURE_32.png,JUNGLE,5eab13155a85f50c05f6e9f7,05/08/1947,2020-09-03_19h22.46.837,proactive2,2020.1.2,Win32,60,5f5126bb654d4b30ee6923d8,5f51340d9062f8337771b3d9,6,,,,,,crown,,,,,,,,,,,5,0,0,12,12,45,1,,,,,,,,,,,,,
,,?,0.00193,0,,,,,,stimuli/images/PICTURE_285.png,ADVICE,5eab13155a85f50c05f6e9f7,05/08/1947,2020-09-03_19h22.46.837,proactive2,2020.1.2,Win32,60,5f5126bb654d4b30ee6923d8,5f51340d9062f8337771b3d9,6,,,,,,carrot,,,,,,,,,,,2,0,0,13,13,12,1,,,,,,,,,,,,,
,,?,0.002105,0,,,,,,stimuli/images/PICTURE_339.png,PLENTY,5eab13155a85f50c05f6e9f7,05/08/1947,2020-09-03_19h22.46.837,proactive2,2020.1.2,Win32,60,5f5126bb654d4b30ee6923d8,5f51340d9062f8337771b3d9,6,,,,,,backpack,,,,,,,,,,,1,0,0,14,14,0,1,,,,,,,,,,,,,
,,?,0.00164,0,,,,,,stimuli/images/PICTURE_151.png,GIRL,5eab13155a85f50c05f6e9f7,05/08/1947,2020-09-03_19h22.46.837,proactive2,2020.1.2,Win32,60,5f5126bb654d4b30ee6923d8,5f51340d9062f8337771b3d9,6,,,,,,tray,,,,,,,,,,,2,0,0,15,15,19,1,,,,,,,,,,,,,
,,?,0.00223,0,,,,,,stimuli/images/PICTURE_123.png,ADVICE,5eab13155a85f50c05f6e9f7,05/08/1947,2020-09-03_19h22.46.837,proactive2,2020.1.2,Win32,60,5f5126bb654d4b30ee6923d8,5f51340d9062f8337771b3d9,6,,,,,,dart,,,,,,,,,,,5,0,0,16,16,40,1,,,,,,,,,,,,,
,,?,0.00192,0,,,,,,stimuli/images/PICTURE_504.png,BODY,5eab13155a85f50c05f6e9f7,05/08/1947,2020-09-03_19h22.46.837,proactive2,2020.1.2,Win32,60,5f5126bb654d4b30ee6923d8,5f51340d9062f8337771b3d9,6,,,,,,wheel,,,,,,,,,,,1,0,0,17,17,8,1,,,,,,,,,,,,,
,,?,0.001775,0,,,,,,stimuli/images/PICTURE_68.png,MILE,5eab13155a85f50c05f6e9f7,05/08/1947,2020-09-03_19h22.46.837,proactive2,2020.1.2,Win32,60,5f5126bb654d4b30ee6923d8,5f51340d9062f8337771b3d9,6,,,,,,candle,,,,,,,,,,,5,0,0,18,18,44,1,,,,,,,,,,,,,
,,?,0.002285,0,,,,,,stimuli/images/PICTURE_208.png,THING,5eab13155a85f50c05f6e9f7,05/08/1947,2020-09-03_19h22.46.837,proactive2,2020.1.2,Win32,60,5f5126bb654d4b30ee6923d8,5f51340d9062f8337771b3d9,6,,,,,,microphone,,,,,,,,,,,5,0,0,19,19,47,1,,,,,,,,,,,,,
,,?,0.001775,0,,,,,,stimuli/images/PICTURE_203.png,ARTIST,5eab13155a85f50c05f6e9f7,05/08/1947,2020-09-03_19h22.46.837,proactive2,2020.1.2,Win32,60,5f5126bb654d4b30ee6923d8,5f51340d9062f8337771b3d9,6,,,,,,cap,,,,,,,,,,,3,0,0,20,20,26,1,,,,,,,,,,,,,
,,?,0.001825,0,,,,,,stimuli/images/PICTURE_302.png,FAMILY,5eab13155a85f50c05f6e9f7,05/08/1947,2020-09-03_19h22.46.837,proactive2,2020.1.2,Win32,60,5f5126bb654d4b30ee6923d8,5f51340d9062f8337771b3d9,6,,,,,,taxi,,,,,,,,,,,2,0,0,21,21,18,1,,,,,,,,,,,,,
,,?,0.00222,0,,,,,,stimuli/images/PICTURE_487.png,FLIGHT,5eab13155a85f50c05f6e9f7,05/08/1947,2020-09-03_19h22.46.837,proactive2,2020.1.2,Win32,60,5f5126bb654d4b30ee6923d8,5f51340d9062f8337771b3d9,6,,,,,,basket,,,,,,,,,,,1,0,0,22,22,9,1,,,,,,,,,,,,,
,,?,0.001755,0,,,,,,stimuli/images/PICTURE_654.png,VALLEY,5eab13155a85f50c05f6e9f7,05/08/1947,2020-09-03_19h22.46.837,proactive2,2020.1.2,Win32,60,5f5126bb654d4b30ee6923d8,5f51340d9062f8337771b3d9,6,,,,,,pencil,,,,,,,,,,,1,0,0,23,23,1,1,,,,,,,,,,,,,
,,?,0.00549,0,,,,,,stimuli/images/PICTURE_308.png,ESTATE,5eab13155a85f50c05f6e9f7,05/08/1947,2020-09-03_19h22.46.837,proactive2,2020.1.2,Win32,60,5f5126bb654d4b30ee6923d8,5f51340d9062f8337771b3d9,6,,,,,,dice,,,,,,,,,,,5,0,0,24,24,46,1,,,,,,,,,,,,,
,,?,0.002185,0,,,,,,stimuli/images/PICTURE_380.png,DEATH,5eab13155a85f50c05f6e9f7,05/08/1947,2020-09-03_19h22.46.837,proactive2,2020.1.2,Win32,60,5f5126bb654d4b30ee6923d8,5f51340d9062f8337771b3d9,6,,,,,,gorilla,,,,,,,,,,,5,0,0,25,25,49,1,,,,,,,,,,,,,
,,?,0.002645,0,,,,,,stimuli/images/PICTURE_469.png,ARTIST,5eab13155a85f50c05f6e9f7,05/08/1947,2020-09-03_19h22.46.837,proactive2,2020.1.2,Win32,60,5f5126bb654d4b30ee6923d8,5f51340d9062f8337771b3d9,6,,,,,,stool,,,,,,,,,,,1,0,0,26,26,6,1,,,,,,,,,,,,,
,,?,0.00195,0,,,,,,stimuli/images/PICTURE_488.png,STYLE,5eab13155a85f50c05f6e9f7,05/08/1947,2020-09-03_19h22.46.837,proactive2,2020.1.2,Win32,60,5f5126bb654d4b30ee6923d8,5f51340d9062f8337771b3d9,6,,,,,,sun,,,,,,,,,,,4,0,0,27,27,33,1,,,,,,,,,,,,,
,,?,0.002135,0,,,,,,stimuli/images/PICTURE_255.png,AREA,5eab13155a85f50c05f6e9f7,05/08/1947,2020-09-03_19h22.46.837,proactive2,2020.1.2,Win32,60,5f5126bb654d4b30ee6923d8,5f51340d9062f8337771b3d9,6,,,,,,shovel,,,,,,,,,,,3,0,0,28,28,22,1,,,,,,,,,,,,,
,,KILLER,5.38953,0,,,,,,stimuli/images/PICTURE_356.png,DANGER,5eab13155a85f50c05f6e9f7,05/08/1947,2020-09-03_19h22.46.837,proactive2,2020.1.2,Win32,60,5f5126bb654d4b30ee6923d8,5f51340d9062f8337771b3d9,6,,,,,,pawn,,,,,,,,,,,6,0,0,29,29,55,1,,,,,,,,,,,,,
,,?,0.002015,0,,,,,,stimuli/images/PICTURE_744.png,SAKE,5eab13155a85f50c05f6e9f7,05/08/1947,2020-09-03_19h22.46.837,proactive2,2020.1.2,Win32,60,5f5126bb654d4b30ee6923d8,5f51340d9062f8337771b3d9,6,,,,,,ring,,,,,,,,,,,2,0,0,30,30,17,1,,,,,,,,,,,,,
,,?,0.001645,0,,,,,,stimuli/images/PICTURE_667.png,BATH,5eab13155a85f50c05f6e9f7,05/08/1947,2020-09-03_19h22.46.837,proactive2,2020.1.2,Win32,60,5f5126bb654d4b30ee6923d8,5f51340d9062f8337771b3d9,6,,,,,,daisy,,,,,,,,,,,1,0,0,31,31,4,1,,,,,,,,,,,,,
,,PLENTY,8.44233,0,,,,,,stimuli/images/PICTURE_308.png,KIND,5eab13155a85f50c05f6e9f7,05/08/1947,2020-09-03_19h22.46.837,proactive2,2020.1.2,Win32,60,5f5126bb654d4b30ee6923d8,5f51340d9062f8337771b3d9,6,,,,,,dice,,,,,,,,,,,6,0,0,32,32,54,1,,,,,,,,,,,,,
,,?,0.001695,0,,,,,,stimuli/images/PICTURE_233.png,IDEAS,5eab13155a85f50c05f6e9f7,05/08/1947,2020-09-03_19h22.46.837,proactive2,2020.1.2,Win32,60,5f5126bb654d4b30ee6923d8,5f51340d9062f8337771b3d9,6,,,,,,salt,,,,,,,,,,,3,0,0,33,33,28,1,,,,,,,,,,,,,
,,?,0.0016,0,,,,,,stimuli/images/PICTURE_667.png,PLENTY,5eab13155a85f50c05f6e9f7,05/08/1947,2020-09-03_19h22.46.837,proactive2,2020.1.2,Win32,60,5f5126bb654d4b30ee6923d8,5f51340d9062f8337771b3d9,6,,,,,,daisy,,,,,,,,,,,5,0,0,34,34,41,1,,,,,,,,,,,,,
,,?,0.001545,0,,,,,,stimuli/images/PICTURE_692.png,MONTH,5eab13155a85f50c05f6e9f7,05/08/1947,2020-09-03_19h22.46.837,proactive2,2020.1.2,Win32,60,5f5126bb654d4b30ee6923d8,5f51340d9062f8337771b3d9,6,,,,,,cherry,,,,,,,,,,,2,0,0,35,35,16,1,,,,,,,,,,,,,
,,?,0.00165,0,,,,,,stimuli/images/PICTURE_311.png,BEAUTY,5eab13155a85f50c05f6e9f7,05/08/1947,2020-09-03_19h22.46.837,proactive2,2020.1.2,Win32,60,5f5126bb654d4b30ee6923d8,5f51340d9062f8337771b3d9,6,,,,,,razor,,,,,,,,,,,2,0,0,36,36,13,1,,,,,,,,,,,,,
,,?,0.00163,0,,,,,,stimuli/images/PICTURE_95.png,STYLE,5eab13155a85f50c05f6e9f7,05/08/1947,2020-09-03_19h22.46.837,proactive2,2020.1.2,Win32,60,5f5126bb654d4b30ee6923d8,5f51340d9062f8337771b3d9,6,,,,,,suitcase,,,,,,,,,,,3,0,0,37,37,25,1,,,,,,,,,,,,,
,,MONTH,5.192115,1,,,,,,stimuli/images/PICTURE_208.png,MONTH,5eab13155a85f50c05f6e9f7,05/08/1947,2020-09-03_19h22.46.837,proactive2,2020.1.2,Win32,60,5f5126bb654d4b30ee6923d8,5f51340d9062f8337771b3d9,6,,,,,,microphone,,,,,,,,,,,6,0,0,38,38,53,1,,,,,,,,,,,,,
,,?,0.00174,0,,,,,,stimuli/images/PICTURE_708.png,YARD,5eab13155a85f50c05f6e9f7,05/08/1947,2020-09-03_19h22.46.837,proactive2,2020.1.2,Win32,60,5f5126bb654d4b30ee6923d8,5f51340d9062f8337771b3d9,6,,,,,,monkey,,,,,,,,,,,3,0,0,39,39,29,1,,,,,,,,,,,,,
,,?,0.00156,0,,,,,,stimuli/images/PICTURE_708.png,CLIENT,5eab13155a85f50c05f6e9f7,05/08/1947,2020-09-03_19h22.46.837,proactive2,2020.1.2,Win32,60,5f5126bb654d4b30ee6923d8,5f51340d9062f8337771b3d9,6,,,,,,monkey,,,,,,,,,,,1,0,0,40,40,5,1,,,,,,,,,,,,,
,,?,0.001535,0,,,,,,stimuli/images/PICTURE_708.png,PENNY,5eab13155a85f50c05f6e9f7,05/08/1947,2020-09-03_19h22.46.837,proactive2,2020.1.2,Win32,60,5f5126bb654d4b30ee6923d8,5f51340d9062f8337771b3d9,6,,,,,,monkey,,,,,,,,,,,4,0,0,41,41,31,1,,,,,,,,,,,,,
,,?,0.001815,0,,,,,,stimuli/images/PICTURE_453.png,DUDE,5eab13155a85f50c05f6e9f7,05/08/1947,2020-09-03_19h22.46.837,proactive2,2020.1.2,Win32,60,5f5126bb654d4b30ee6923d8,5f51340d9062f8337771b3d9,6,,,,,,scissors,,,,,,,,,,,3,0,0,42,42,27,1,,,,,,,,,,,,,
,,?,0.00153,0,,,,,,stimuli/images/PICTURE_675.png,WEAPON,5eab13155a85f50c05f6e9f7,05/08/1947,2020-09-03_19h22.46.837,proactive2,2020.1.2,Win32,60,5f5126bb654d4b30ee6923d8,5f51340d9062f8337771b3d9,6,,,,,,windmill,,,,,,,,,,,4,0,0,43,43,32,1,,,,,,,,,,,,,
,,?,0.001625,0,,,,,,stimuli/images/PICTURE_348.png,SPEECH,5eab13155a85f50c05f6e9f7,05/08/1947,2020-09-03_19h22.46.837,proactive2,2020.1.2,Win32,60,5f5126bb654d4b30ee6923d8,5f51340d9062f8337771b3d9,6,,,,,,pepper,,,,,,,,,,,3,0,0,44,44,20,1,,,,,,,,,,,,,
,,?,0.00161,0,,,,,,stimuli/images/PICTURE_160.png,LEADER,5eab13155a85f50c05f6e9f7,05/08/1947,2020-09-03_19h22.46.837,proactive2,2020.1.2,Win32,60,5f5126bb654d4b30ee6923d8,5f51340d9062f8337771b3d9,6,,,,,,wheelbarrow,,,,,,,,,,,1,0,0,45,45,3,1,,,,,,,,,,,,,
,,?,0.00177,0,,,,,,stimuli/images/PICTURE_85.png,THING,5eab13155a85f50c05f6e9f7,05/08/1947,2020-09-03_19h22.46.837,proactive2,2020.1.2,Win32,60,5f5126bb654d4b30ee6923d8,5f51340d9062f8337771b3d9,6,,,,,,diamond,,,,,,,,,,,2,0,0,46,46,15,1,,,,,,,,,,,,,
,,?,0.00156,0,,,,,,stimuli/images/PICTURE_744.png,SYSTEM,5eab13155a85f50c05f6e9f7,05/08/1947,2020-09-03_19h22.46.837,proactive2,2020.1.2,Win32,60,5f5126bb654d4b30ee6923d8,5f51340d9062f8337771b3d9,6,,,,,,ring,,,,,,,,,,,5,0,0,47,47,43,1,,,,,,,,,,,,,
,,THING,6.91546,0,,,,,,stimuli/images/PICTURE_380.png,PHOTO,5eab13155a85f50c05f6e9f7,05/08/1947,2020-09-03_19h22.46.837,proactive2,2020.1.2,Win32,60,5f5126bb654d4b30ee6923d8,5f51340d9062f8337771b3d9,6,,,,,,gorilla,,,,,,,,,,,6,0,0,48,48,52,1,,,,,,,,,,,,,
,,?,0.001635,0,,,,,,stimuli/images/PICTURE_509.png,PHOTO,5eab13155a85f50c05f6e9f7,05/08/1947,2020-09-03_19h22.46.837,proactive2,2020.1.2,Win32,60,5f5126bb654d4b30ee6923d8,5f51340d9062f8337771b3d9,6,,,,,,telephone,,,,,,,,,,,3,0,0,49,49,21,1,,,,,,,,,,,,,
,,MOMENT,5.22634,1,,,,,,stimuli/images/PICTURE_147.png,MOMENT,5eab13155a85f50c05f6e9f7,05/08/1947,2020-09-03_19h22.46.837,proactive2,2020.1.2,Win32,60,5f5126bb654d4b30ee6923d8,5f51340d9062f8337771b3d9,6,,,,,,hanger,,,,,,,,,,,6,0,0,50,50,51,1,,,,,,,,,,,,,
,,THING,4.962335,0,,,,,,stimuli/images/PICTURE_491.png,WRITER,5eab13155a85f50c05f6e9f7,05/08/1947,2020-09-03_19h22.46.837,proactive2,2020.1.2,Win32,60,5f5126bb654d4b30ee6923d8,5f51340d9062f8337771b3d9,6,,,,,,rug,,,,,,,,,,,6,0,0,51,51,57,1,,,,,,,,,,,,,
,,?,0.00163,0,,,,,,stimuli/images/PICTURE_470.png,CASINO,5eab13155a85f50c05f6e9f7,05/08/1947,2020-09-03_19h22.46.837,proactive2,2020.1.2,Win32,60,5f5126bb654d4b30ee6923d8,5f51340d9062f8337771b3d9,6,,,,,,motorbike,,,,,,,,,,,4,0,0,52,52,36,1,,,,,,,,,,,,,
,,?,0.001755,0,,,,,,stimuli/images/PICTURE_248.png,DOZEN,5eab13155a85f50c05f6e9f7,05/08/1947,2020-09-03_19h22.46.837,proactive2,2020.1.2,Win32,60,5f5126bb654d4b30ee6923d8,5f51340d9062f8337771b3d9,6,,,,,,cart,,,,,,,,,,,4,0,0,53,53,39,1,,,,,,,,,,,,,
,,?,0.002595,0,,,,,,stimuli/images/PICTURE_677.png,MILE,5eab13155a85f50c05f6e9f7,05/08/1947,2020-09-03_19h22.46.837,proactive2,2020.1.2,Win32,60,5f5126bb654d4b30ee6923d8,5f51340d9062f8337771b3d9,6,,,,,,map,,,,,,,,,,,4,0,0,54,54,30,1,,,,,,,,,,,,,
,,?,0.001785,0,,,,,,stimuli/images/PICTURE_469.png,LETTER,5eab13155a85f50c05f6e9f7,05/08/1947,2020-09-03_19h22.46.837,proactive2,2020.1.2,Win32,60,5f5126bb654d4b30ee6923d8,5f51340d9062f8337771b3d9,6,,,,,,stool,,,,,,,,,,,5,0,0,55,55,42,1,,,,,,,,,,,,,
,,?,0.00151,0,,,,,,stimuli/images/PICTURE_215.png,PLENTY,5eab13155a85f50c05f6e9f7,05/08/1947,2020-09-03_19h22.46.837,proactive2,2020.1.2,Win32,60,5f5126bb654d4b30ee6923d8,5f51340d9062f8337771b3d9,6,,,,,,boot,,,,,,,,,,,4,0,0,56,56,37,1,,,,,,,,,,,,,
,,?,0.00185,0,,,,,,stimuli/images/PICTURE_327.png,BEAUTY,5eab13155a85f50c05f6e9f7,05/08/1947,2020-09-03_19h22.46.837,proactive2,2020.1.2,Win32,60,5f5126bb654d4b30ee6923d8,5f51340d9062f8337771b3d9,6,,,,,,helmet,,,,,,,,,,,5,0,0,57,57,48,1,,,,,,,,,,,,,
,,THING,3.99963,1,,,,,,stimuli/images/PICTURE_449.png,THING,5eab13155a85f50c05f6e9f7,05/08/1947,2020-09-03_19h22.46.837,proactive2,2020.1.2,Win32,60,5f5126bb654d4b30ee6923d8,5f51340d9062f8337771b3d9,6,,,,,,bench,,,,,,,,,,,6,0,0,58,58,59,1,,,,,,,,,,,,,
,,ADVICE,6.75595,1,,,,,,stimuli/images/PICTURE_123.png,ADVICE,5eab13155a85f50c05f6e9f7,05/08/1947,2020-09-03_19h22.46.837,proactive2,2020.1.2,Win32,60,5f5126bb654d4b30ee6923d8,5f51340d9062f8337771b3d9,6,,,,,,dart,,,,,,,,,,,6,0,0,59,59,50,1,,,,,,,,,,,,,
,,,,,,,,,,,,5eab13155a85f50c05f6e9f7,05/08/1947,2020-09-03_19h22.46.837,proactive2,2020.1.2,Win32,60,5f5126bb654d4b30ee6923d8,5f51340d9062f8337771b3d9,6,,,,,,,,,,,,,,,,,,,,,,,,0,0,0,0,1,stimuli/learn-block1.csv,,,,,,,
,,,,,,,,,,stimuli/images/PICTURE_297.png,RIVER,5eab13155a85f50c05f6e9f7,05/08/1947,2020-09-03_19h22.46.837,proactive2,2020.1.2,Win32,60,5f5126bb654d4b30ee6923d8,5f51340d9062f8337771b3d9,6,,,,,,aeroplane,,,,,,0,0,0,39,1,4,1,,,,,,,,,,,,,,,,,,
,,,,,,,,,,stimuli/images/PICTURE_108.png,POLICY,5eab13155a85f50c05f6e9f7,05/08/1947,2020-09-03_19h22.46.837,proactive2,2020.1.2,Win32,60,5f5126bb654d4b30ee6923d8,5f51340d9062f8337771b3d9,6,,,,,,calendar,,,,,,0,1,1,22,1,3,1,,,,,,,,,,,,,,,,,,
,,,,,,,,,,stimuli/images/PICTURE_95.png,BOYS,5eab13155a85f50c05f6e9f7,05/08/1947,2020-09-03_19h22.46.837,proactive2,2020.1.2,Win32,60,5f5126bb654d4b30ee6923d8,5f51340d9062f8337771b3d9,6,,,,,,suitcase,,,,,,0,2,2,1,1,1,1,,,,,,,,,,,,,,,,,,
,,,,,,,,,,stimuli/images/PICTURE_85.png,TOILET,5eab13155a85f50c05f6e9f7,05/08/1947,2020-09-03_19h22.46.837,proactive2,2020.1.2,Win32,60,5f5126bb654d4b30ee6923d8,5f51340d9062f8337771b3d9,6,,,,,,diamond,,,,,,0,3,3,48,1,5,1,,,,,,,,,,,,,,,,,,
,,,,,,,,,,stimuli/images/PICTURE_340.png,VALLEY,5eab13155a85f50c05f6e9f7,05/08/1947,2020-09-03_19h22.46.837,proactive2,2020.1.2,Win32,60,5f5126bb654d4b30ee6923d8,5f51340d9062f8337771b3d9,6,,,,,,mirror,,,,,,0,4,4,54,1,6,1,,,,,,,,,,,,,,,,,,
,,,,,,,,,,stimuli/images/PICTURE_296.png,LOTS,5eab13155a85f50c05f6e9f7,05/08/1947,2020-09-03_19h22.46.837,proactive2,2020.1.2,Win32,60,5f5126bb654d4b30ee6923d8,5f51340d9062f8337771b3d9,6,,,,,,bolt,,,,,,0,5,5,9,1,1,1,,,,,,,,,,,,,,,,,,
,,,,,,,,,,stimuli/images/PICTURE_203.png,NIGHT,5eab13155a85f50c05f6e9f7,05/08/1947,2020-09-03_19h22.46.837,proactive2,2020.1.2,Win32,60,5f5126bb654d4b30ee6923d8,5f51340d9062f8337771b3d9,6,,,,,,cap,,,,,,0,6,6,2,1,1,1,,,,,,,,,,,,,,,,,,
,,,,,,,,,,stimuli/images/PICTURE_383.png,SERIES,5eab13155a85f50c05f6e9f7,05/08/1947,2020-09-03_19h22.46.837,proactive2,2020.1.2,Win32,60,5f5126bb654d4b30ee6923d8,5f51340d9062f8337771b3d9,6,,,,,,coin,,,,,,0,7,7,46,1,5,1,,,,,,,,,,,,,,,,,,
,,,,,,,,,,stimuli/images/PICTURE_95.png,MILLER,5eab13155a85f50c05f6e9f7,05/08/1947,2020-09-03_19h22.46.837,proactive2,2020.1.2,Win32,60,5f5126bb654d4b30ee6923d8,5f51340d9062f8337771b3d9,6,,,,,,suitcase,,,,,,0,8,8,56,1,6,1,,,,,,,,,,,,,,,,,,
,,,,,,,,,,stimuli/images/PICTURE_33.png,FRIEND,5eab13155a85f50c05f6e9f7,05/08/1947,2020-09-03_19h22.46.837,proactive2,2020.1.2,Win32,60,5f5126bb654d4b30ee6923d8,5f51340d9062f8337771b3d9,6,,,,,,frame,,,,,,0,9,9,8,1,1,1,,,,,,,,,,,,,,,,,,
,,,,,,,,,,stimuli/images/PICTURE_340.png,LETTER,5eab13155a85f50c05f6e9f7,05/08/1947,2020-09-03_19h22.46.837,proactive2,2020.1.2,Win32,60,5f5126bb654d4b30ee6923d8,5f51340d9062f8337771b3d9,6,,,,,,mirror,,,,,,0,10,10,24,1,3,1,,,,,,,,,,,,,,,,,,
,,,,,,,,,,stimuli/images/PICTURE_491.png,RIVER,5eab13155a85f50c05f6e9f7,05/08/1947,2020-09-03_19h22.46.837,proactive2,2020.1.2,Win32,60,5f5126bb654d4b30ee6923d8,5f51340d9062f8337771b3d9,6,,,,,,rug,,,,,,0,11,11,6,1,1,1,,,,,,,,,,,,,,,,,,
,,,,,,,,,,stimuli/images/PICTURE_380.png,HONEY,5eab13155a85f50c05f6e9f7,05/08/1947,2020-09-03_19h22.46.837,proactive2,2020.1.2,Win32,60,5f5126bb654d4b30ee6923d8,5f51340d9062f8337771b3d9,6,,,,,,gorilla,,,,,,0,12,12,19,1,2,1,,,,,,,,,,,,,,,,,,
,,,,,,,,,,stimuli/images/PICTURE_147.png,YEAR,5eab13155a85f50c05f6e9f7,05/08/1947,2020-09-03_19h22.46.837,proactive2,2020.1.2,Win32,60,5f5126bb654d4b30ee6923d8,5f51340d9062f8337771b3d9,6,,,,,,hanger,,,,,,0,13,13,21,1,3,1,,,,,,,,,,,,,,,,,,
,,,,,,,,,,stimuli/images/PICTURE_487.png,GIRL,5eab13155a85f50c05f6e9f7,05/08/1947,2020-09-03_19h22.46.837,proactive2,2020.1.2,Win32,60,5f5126bb654d4b30ee6923d8,5f51340d9062f8337771b3d9,6,,,,,,basket,,,,,,0,14,14,45,1,5,1,,,,,,,,,,,,,,,,,,
,,,,,,,,,,stimuli/images/PICTURE_32.png,PILLS,5eab13155a85f50c05f6e9f7,05/08/1947,2020-09-03_19h22.46.837,proactive2,2020.1.2,Win32,60,5f5126bb654d4b30ee6923d8,5f51340d9062f8337771b3d9,6,,,,,,crown,,,,,,0,15,15,18,1,2,1,,,,,,,,,,,,,,,,,,
,,,,,,,,,,stimuli/images/PICTURE_405.png,PLENTY,5eab13155a85f50c05f6e9f7,05/08/1947,2020-09-03_19h22.46.837,proactive2,2020.1.2,Win32,60,5f5126bb654d4b30ee6923d8,5f51340d9062f8337771b3d9,6,,,,,,anchor,,,,,,0,16,16,23,1,3,1,,,,,,,,,,,,,,,,,,
,,,,,,,,,,stimuli/images/PICTURE_42.png,BOYS,5eab13155a85f50c05f6e9f7,05/08/1947,2020-09-03_19h22.46.837,proactive2,2020.1.2,Win32,60,5f5126bb654d4b30ee6923d8,5f51340d9062f8337771b3d9,6,,,,,,pear,,,,,,0,17,17,55,1,6,1,,,,,,,,,,,,,,,,,,
,,,,,,,,,,stimuli/images/PICTURE_467.png,POLICY,5eab13155a85f50c05f6e9f7,05/08/1947,2020-09-03_19h22.46.837,proactive2,2020.1.2,Win32,60,5f5126bb654d4b30ee6923d8,5f51340d9062f8337771b3d9,6,,,,,,peg,,,,,,0,18,18,53,1,6,1,,,,,,,,,,,,,,,,,,
,,,,,,,,,,stimuli/images/PICTURE_403.png,RIVER,5eab13155a85f50c05f6e9f7,05/08/1947,2020-09-03_19h22.46.837,proactive2,2020.1.2,Win32,60,5f5126bb654d4b30ee6923d8,5f51340d9062f8337771b3d9,6,,,,,,cathedral,,,,,,0,19,19,40,1,5,1,,,,,,,,,,,,,,,,,,
,,,,,,,,,,stimuli/images/PICTURE_296.png,LIFE,5eab13155a85f50c05f6e9f7,05/08/1947,2020-09-03_19h22.46.837,proactive2,2020.1.2,Win32,60,5f5126bb654d4b30ee6923d8,5f51340d9062f8337771b3d9,6,,,,,,bolt,,,,,,0,20,20,57,1,6,1,,,,,,,,,,,,,,,,,,
,,,,,,,,,,stimuli/images/PICTURE_504.png,YEAR,5eab13155a85f50c05f6e9f7,05/08/1947,2020-09-03_19h22.46.837,proactive2,2020.1.2,Win32,60,5f5126bb654d4b30ee6923d8,5f51340d9062f8337771b3d9,6,,,,,,wheel,,,,,,0,21,21,13,1,2,1,,,,,,,,,,,,,,,,,,
,,,,,,,,,,stimuli/images/PICTURE_327.png,SERIES,5eab13155a85f50c05f6e9f7,05/08/1947,2020-09-03_19h22.46.837,proactive2,2020.1.2,Win32,60,5f5126bb654d4b30ee6923d8,5f51340d9062f8337771b3d9,6,,,,,,helmet,,,,,,0,22,22,3,1,1,1,,,,,,,,,,,,,,,,,,
,,,,,,,,,,stimuli/images/PICTURE_383.png,WRITER,5eab13155a85f50c05f6e9f7,05/08/1947,2020-09-03_19h22.46.837,proactive2,2020.1.2,Win32,60,5f5126bb654d4b30ee6923d8,5f51340d9062f8337771b3d9,6,,,,,,coin,,,,,,0,23,23,28,1,3,1,,,,,,,,,,,,,,,,,,
,,,,,,,,,,stimuli/images/PICTURE_564.png,BATH,5eab13155a85f50c05f6e9f7,05/08/1947,2020-09-03_19h22.46.837,proactive2,2020.1.2,Win32,60,5f5126bb654d4b30ee6923d8,5f51340d9062f8337771b3d9,6,,,,,,spoon,,,,,,0,24,24,26,1,3,1,,,,,,,,,,,,,,,,,,
,,,,,,,,,,stimuli/images/PICTURE_233.png,LOTS,5eab13155a85f50c05f6e9f7,05/08/1947,2020-09-03_19h22.46.837,proactive2,2020.1.2,Win32,60,5f5126bb654d4b30ee6923d8,5f51340d9062f8337771b3d9,6,,,,,,salt,,,,,,0,25,25,42,1,5,1,,,,,,,,,,,,,,,,,,
,,,,,,,,,,stimuli/images/PICTURE_327.png,CASINO,5eab13155a85f50c05f6e9f7,05/08/1947,2020-09-03_19h22.46.837,proactive2,2020.1.2,Win32,60,5f5126bb654d4b30ee6923d8,5f51340d9062f8337771b3d9,6,,,,,,helmet,,,,,,0,26,26,20,1,3,1,,,,,,,,,,,,,,,,,,
,,,,,,,,,,stimuli/images/PICTURE_147.png,WOMEN,5eab13155a85f50c05f6e9f7,05/08/1947,2020-09-03_19h22.46.837,proactive2,2020.1.2,Win32,60,5f5126bb654d4b30ee6923d8,5f51340d9062f8337771b3d9,6,,,,,,hanger,,,,,,0,27,27,7,1,1,1,,,,,,,,,,,,,,,,,,
,,,,,,,,,,stimuli/images/PICTURE_285.png,LIFE,5eab13155a85f50c05f6e9f7,05/08/1947,2020-09-03_19h22.46.837,proactive2,2020.1.2,Win32,60,5f5126bb654d4b30ee6923d8,5f51340d9062f8337771b3d9,6,,,,,,carrot,,,,,,0,28,28,33,1,4,1,,,,,,,,,,,,,,,,,,
,,,,,,,,,,stimuli/images/PICTURE_177.png,WRITER,5eab13155a85f50c05f6e9f7,05/08/1947,2020-09-03_19h22.46.837,proactive2,2020.1.2,Win32,60,5f5126bb654d4b30ee6923d8,5f51340d9062f8337771b3d9,6,,,,,,mushroom,,,,,,0,29,29,41,1,5,1,,,,,,,,,,,,,,,,,,
,,,,,,,,,,stimuli/images/PICTURE_469.png,AGENT,5eab13155a85f50c05f6e9f7,05/08/1947,2020-09-03_19h22.46.837,proactive2,2020.1.2,Win32,60,5f5126bb654d4b30ee6923d8,5f51340d9062f8337771b3d9,6,,,,,,stool,,,,,,0,30,30,16,1,2,1,,,,,,,,,,,,,,,,,,
,,,,,,,,,,stimuli/images/PICTURE_308.png,FAMILY,5eab13155a85f50c05f6e9f7,05/08/1947,2020-09-03_19h22.46.837,proactive2,2020.1.2,Win32,60,5f5126bb654d4b30ee6923d8,5f51340d9062f8337771b3d9,6,,,,,,dice,,,,,,0,31,31,36,1,4,1,,,,,,,,,,,,,,,,,,
,,,,,,,,,,stimuli/images/PICTURE_654.png,MONTH,5eab13155a85f50c05f6e9f7,05/08/1947,2020-09-03_19h22.46.837,proactive2,2020.1.2,Win32,60,5f5126bb654d4b30ee6923d8,5f51340d9062f8337771b3d9,6,,,,,,pencil,,,,,,0,32,32,29,1,3,1,,,,,,,,,,,,,,,,,,
,,,,,,,,,,stimuli/images/PICTURE_655.png,TOILET,5eab13155a85f50c05f6e9f7,05/08/1947,2020-09-03_19h22.46.837,proactive2,2020.1.2,Win32,60,5f5126bb654d4b30ee6923d8,5f51340d9062f8337771b3d9,6,,,,,,megaphone,,,,,,0,33,33,12,1,2,1,,,,,,,,,,,,,,,,,,
,,,,,,,,,,stimuli/images/PICTURE_57.png,MOMENT,5eab13155a85f50c05f6e9f7,05/08/1947,2020-09-03_19h22.46.837,proactive2,2020.1.2,Win32,60,5f5126bb654d4b30ee6923d8,5f51340d9062f8337771b3d9,6,,,,,,stamp,,,,,,0,34,34,37,1,4,1,,,,,,,,,,,,,,,,,,
,,,,,,,,,,stimuli/images/PICTURE_68.png,ROOF,5eab13155a85f50c05f6e9f7,05/08/1947,2020-09-03_19h22.46.837,proactive2,2020.1.2,Win32,60,5f5126bb654d4b30ee6923d8,5f51340d9062f8337771b3d9,6,,,,,,candle,,,,,,0,35,35,38,1,4,1,,,,,,,,,,,,,,,,,,
,,,,,,,,,,stimuli/images/PICTURE_750.png,HOTEL,5eab13155a85f50c05f6e9f7,05/08/1947,2020-09-03_19h22.46.837,proactive2,2020.1.2,Win32,60,5f5126bb654d4b30ee6923d8,5f51340d9062f8337771b3d9,6,,,,,,kettle,,,,,,0,36,36,27,1,3,1,,,,,,,,,,,,,,,,,,
,,,,,,,,,,stimuli/images/PICTURE_708.png,RECORD,5eab13155a85f50c05f6e9f7,05/08/1947,2020-09-03_19h22.46.837,proactive2,2020.1.2,Win32,60,5f5126bb654d4b30ee6923d8,5f51340d9062f8337771b3d9,6,,,,,,monkey,,,,,,0,37,37,58,1,6,1,,,,,,,,,,,,,,,,,,
,,,,,,,,,,stimuli/images/PICTURE_85.png,NATION,5eab13155a85f50c05f6e9f7,05/08/1947,2020-09-03_19h22.46.837,proactive2,2020.1.2,Win32,60,5f5126bb654d4b30ee6923d8,5f51340d9062f8337771b3d9,6,,,,,,diamond,,,,,,0,38,38,5,1,1,1,,,,,,,,,,,,,,,,,,
,,,,,,,,,,stimuli/images/PICTURE_208.png,SYSTEM,5eab13155a85f50c05f6e9f7,05/08/1947,2020-09-03_19h22.46.837,proactive2,2020.1.2,Win32,60,5f5126bb654d4b30ee6923d8,5f51340d9062f8337771b3d9,6,,,,,,microphone,,,,,,0,39,39,32,1,4,1,,,,,,,,,,,,,,,,,,
,,,,,,,,,,stimuli/images/PICTURE_68.png,MILE,5eab13155a85f50c05f6e9f7,05/08/1947,2020-09-03_19h22.46.837,proactive2,2020.1.2,Win32,60,5f5126bb654d4b30ee6923d8,5f51340d9062f8337771b3d9,6,,,,,,candle,,,,,,0,40,40,51,1,6,1,,,,,,,,,,,,,,,,,,
,,,,,,,,,,stimuli/images/PICTURE_504.png,ARTIST,5eab13155a85f50c05f6e9f7,05/08/1947,2020-09-03_19h22.46.837,proactive2,2020.1.2,Win32,60,5f5126bb654d4b30ee6923d8,5f51340d9062f8337771b3d9,6,,,,,,wheel,,,,,,0,41,41,49,1,5,1,,,,,,,,,,,,,,,,,,
,,,,,,,,,,stimuli/images/PICTURE_491.png,GLASS,5eab13155a85f50c05f6e9f7,05/08/1947,2020-09-03_19h22.46.837,proactive2,2020.1.2,Win32,60,5f5126bb654d4b30ee6923d8,5f51340d9062f8337771b3d9,6,,,,,,rug,,,,,,0,42,42,14,1,2,1,,,,,,,,,,,,,,,,,,
,,,,,,,,,,stimuli/images/PICTURE_2.png,FLIGHT,5eab13155a85f50c05f6e9f7,05/08/1947,2020-09-03_19h22.46.837,proactive2,2020.1.2,Win32,60,5f5126bb654d4b30ee6923d8,5f51340d9062f8337771b3d9,6,,,,,,tyre,,,,,,0,43,43,15,1,2,1,,,,,,,,,,,,,,,,,,
,,,,,,,,,,stimuli/images/PICTURE_203.png,GODS,5eab13155a85f50c05f6e9f7,05/08/1947,2020-09-03_19h22.46.837,proactive2,2020.1.2,Win32,60,5f5126bb654d4b30ee6923d8,5f51340d9062f8337771b3d9,6,,,,,,cap,,,,,,0,44,44,30,1,4,1,,,,,,,,,,,,,,,,,,
,,,,,,,,,,stimuli/images/PICTURE_677.png,APPLE,5eab13155a85f50c05f6e9f7,05/08/1947,2020-09-03_19h22.46.837,proactive2,2020.1.2,Win32,60,5f5126bb654d4b30ee6923d8,5f51340d9062f8337771b3d9,6,,,,,,map,,,,,,0,45,45,43,1,5,1,,,,,,,,,,,,,,,,,,
,,,,,,,,,,stimuli/images/PICTURE_667.png,RIVER,5eab13155a85f50c05f6e9f7,05/08/1947,2020-09-03_19h22.46.837,proactive2,2020.1.2,Win32,60,5f5126bb654d4b30ee6923d8,5f51340d9062f8337771b3d9,6,,,,,,daisy,,,,,,0,46,46,10,1,2,1,,,,,,,,,,,,,,,,,,
,,,,,,,,,,stimuli/images/PICTURE_95.png,HONEY,5eab13155a85f50c05f6e9f7,05/08/1947,2020-09-03_19h22.46.837,proactive2,2020.1.2,Win32,60,5f5126bb654d4b30ee6923d8,5f51340d9062f8337771b3d9,6,,,,,,suitcase,,,,,,0,47,47,44,1,5,1,,,,,,,,,,,,,,,,,,
,,,,,,,,,,stimuli/images/PICTURE_403.png,WRITER,5eab13155a85f50c05f6e9f7,05/08/1947,2020-09-03_19h22.46.837,proactive2,2020.1.2,Win32,60,5f5126bb654d4b30ee6923d8,5f51340d9062f8337771b3d9,6,,,,,,cathedral,,,,,,0,48,48,31,1,4,1,,,,,,,,,,,,,,,,,,
,,,,,,,,,,stimuli/images/PICTURE_339.png,CLIENT,5eab13155a85f50c05f6e9f7,05/08/1947,2020-09-03_19h22.46.837,proactive2,2020.1.2,Win32,60,5f5126bb654d4b30ee6923d8,5f51340d9062f8337771b3d9,6,,,,,,backpack,,,,,,0,49,49,11,1,2,1,,,,,,,,,,,,,,,,,,
,,,,,,,,,,stimuli/images/PICTURE_32.png,KIND,5eab13155a85f50c05f6e9f7,05/08/1947,2020-09-03_19h22.46.837,proactive2,2020.1.2,Win32,60,5f5126bb654d4b30ee6923d8,5f51340d9062f8337771b3d9,6,,,,,,crown,,,,,,0,50,50,35,1,4,1,,,,,,,,,,,,,,,,,,
,,,,,,,,,,stimuli/images/PICTURE_403.png,TOILET,5eab13155a85f50c05f6e9f7,05/08/1947,2020-09-03_19h22.46.837,proactive2,2020.1.2,Win32,60,5f5126bb654d4b30ee6923d8,5f51340d9062f8337771b3d9,6,,,,,,cathedral,,,,,,0,51,51,25,1,3,1,,,,,,,,,,,,,,,,,,
,,,,,,,,,,stimuli/images/PICTURE_108.png,FLIGHT,5eab13155a85f50c05f6e9f7,05/08/1947,2020-09-03_19h22.46.837,proactive2,2020.1.2,Win32,60,5f5126bb654d4b30ee6923d8,5f51340d9062f8337771b3d9,6,,,,,,calendar,,,,,,0,52,52,59,1,6,1,,,,,,,,,,,,,,,,,,
,,,,,,,,,,stimuli/images/PICTURE_504.png,COPS,5eab13155a85f50c05f6e9f7,05/08/1947,2020-09-03_19h22.46.837,proactive2,2020.1.2,Win32,60,5f5126bb654d4b30ee6923d8,5f51340d9062f8337771b3d9,6,,,,,,wheel,,,,,,0,53,53,52,1,6,1,,,,,,,,,,,,,,,,,,
,,,,,,,,,,stimuli/images/PICTURE_675.png,SALE,5eab13155a85f50c05f6e9f7,05/08/1947,2020-09-03_19h22.46.837,proactive2,2020.1.2,Win32,60,5f5126bb654d4b30ee6923d8,5f51340d9062f8337771b3d9,6,,,,,,windmill,,,,,,0,54,54,47,1,5,1,,,,,,,,,,,,,,,,,,
,,,,,,,,,,stimuli/images/PICTURE_449.png,DUDE,5eab13155a85f50c05f6e9f7,05/08/1947,2020-09-03_19h22.46.837,proactive2,2020.1.2,Win32,60,5f5126bb654d4b30ee6923d8,5f51340d9062f8337771b3d9,6,,,,,,bench,,,,,,0,55,55,17,1,2,1,,,,,,,,,,,,,,,,,,
,,,,,,,,,,stimuli/images/PICTURE_744.png,WEAPON,5eab13155a85f50c05f6e9f7,05/08/1947,2020-09-03_19h22.46.837,proactive2,2020.1.2,Win32,60,5f5126bb654d4b30ee6923d8,5f51340d9062f8337771b3d9,6,,,,,,ring,,,,,,0,56,56,50,1,6,1,,,,,,,,,,,,,,,,,,
,,,,,,,,,,stimuli/images/PICTURE_380.png,CANDY,5eab13155a85f50c05f6e9f7,05/08/1947,2020-09-03_19h22.46.837,proactive2,2020.1.2,Win32,60,5f5126bb654d4b30ee6923d8,5f51340d9062f8337771b3d9,6,,,,,,gorilla,,,,,,0,57,57,0,1,1,1,,,,,,,,,,,,,,,,,,
,,,,,,,,,,stimuli/images/PICTURE_685.png,PENNY,5eab13155a85f50c05f6e9f7,05/08/1947,2020-09-03_19h22.46.837,proactive2,2020.1.2,Win32,60,5f5126bb654d4b30ee6923d8,5f51340d9062f8337771b3d9,6,,,,,,goose,,,,,,0,58,58,4,1,1,1,,,,,,,,,,,,,,,,,,
,,?,0.00201,0,,,,,,stimuli/images/PICTURE_32.png,PILLS,5eab13155a85f50c05f6e9f7,05/08/1947,2020-09-03_19h22.46.837,proactive2,2020.1.2,Win32,60,5f5126bb654d4b30ee6923d8,5f51340d9062f8337771b3d9,6,,,,,,crown,,,,,,,,,,,2,1,0,0,0,18,1,,,,,,,,,,,,,
,,?,0.00156,0,,,,,,stimuli/images/PICTURE_380.png,HONEY,5eab13155a85f50c05f6e9f7,05/08/1947,2020-09-03_19h22.46.837,proactive2,2020.1.2,Win32,60,5f5126bb654d4b30ee6923d8,5f51340d9062f8337771b3d9,6,,,,,,gorilla,,,,,,,,,,,2,1,0,1,1,19,1,,,,,,,,,,,,,
,,?,0.00176,0,,,,,,stimuli/images/PICTURE_405.png,PLENTY,5eab13155a85f50c05f6e9f7,05/08/1947,2020-09-03_19h22.46.837,proactive2,2020.1.2,Win32,60,5f5126bb654d4b30ee6923d8,5f51340d9062f8337771b3d9,6,,,,,,anchor,,,,,,,,,,,3,1,0,2,2,23,1,,,,,,,,,,,,,
,,?,0.001575,0,,,,,,stimuli/images/PICTURE_491.png,GLASS,5eab13155a85f50c05f6e9f7,05/08/1947,2020-09-03_19h22.46.837,proactive2,2020.1.2,Win32,60,5f5126bb654d4b30ee6923d8,5f51340d9062f8337771b3d9,6,,,,,,rug,,,,,,,,,,,2,1,0,3,3,14,1,,,,,,,,,,,,,
,,?,0.002425,0,,,,,,stimuli/images/PICTURE_327.png,CASINO,5eab13155a85f50c05f6e9f7,05/08/1947,2020-09-03_19h22.46.837,proactive2,2020.1.2,Win32,60,5f5126bb654d4b30ee6923d8,5f51340d9062f8337771b3d9,6,,,,,,helmet,,,,,,,,,,,3,1,0,4,4,20,1,,,,,,,,,,,,,
,,?,0.001585,0,,,,,,stimuli/images/PICTURE_233.png,LOTS,5eab13155a85f50c05f6e9f7,05/08/1947,2020-09-03_19h22.46.837,proactive2,2020.1.2,Win32,60,5f5126bb654d4b30ee6923d8,5f51340d9062f8337771b3d9,6,,,,,,salt,,,,,,,,,,,5,1,0,5,5,42,1,,,,,,,,,,,,,
,,?,0.001615,0,,,,,,stimuli/images/PICTURE_383.png,WRITER,5eab13155a85f50c05f6e9f7,05/08/1947,2020-09-03_19h22.46.837,proactive2,2020.1.2,Win32,60,5f5126bb654d4b30ee6923d8,5f51340d9062f8337771b3d9,6,,,,,,coin,,,,,,,,,,,3,1,0,6,6,28,1,,,,,,,,,,,,,
,,BOYS,6.444545,0,,,,,,stimuli/images/PICTURE_708.png,RECORD,5eab13155a85f50c05f6e9f7,05/08/1947,2020-09-03_19h22.46.837,proactive2,2020.1.2,Win32,60,5f5126bb654d4b30ee6923d8,5f51340d9062f8337771b3d9,6,,,,,,monkey,,,,,,,,,,,6,1,0,7,7,58,1,,,,,,,,,,,,,
,,?,0.00208,0,,,,,,stimuli/images/PICTURE_487.png,GIRL,5eab13155a85f50c05f6e9f7,05/08/1947,2020-09-03_19h22.46.837,proactive2,2020.1.2,Win32,60,5f5126bb654d4b30ee6923d8,5f51340d9062f8337771b3d9,6,,,,,,basket,,,,,,,,,,,5,1,0,8,8,45,1,,,,,,,,,,,,,
,,BOYS,8.406835,0,,,,,,stimuli/images/PICTURE_340.png,VALLEY,5eab13155a85f50c05f6e9f7,05/08/1947,2020-09-03_19h22.46.837,proactive2,2020.1.2,Win32,60,5f5126bb654d4b30ee6923d8,5f51340d9062f8337771b3d9,6,,,,,,mirror,,,,,,,,,,,6,1,0,9,9,54,1,,,,,,,,,,,,,
,,WEAPON,5.282895,1,,,,,,stimuli/images/PICTURE_744.png,WEAPON,5eab13155a85f50c05f6e9f7,05/08/1947,2020-09-03_19h22.46.837,proactive2,2020.1.2,Win32,60,5f5126bb654d4b30ee6923d8,5f51340d9062f8337771b3d9,6,,,,,,ring,,,,,,,,,,,6,1,0,10,10,50,1,,,,,,,,,,,,,
,,?,0.001975,0,,,,,,stimuli/images/PICTURE_685.png,PENNY,5eab13155a85f50c05f6e9f7,05/08/1947,2020-09-03_19h22.46.837,proactive2,2020.1.2,Win32,60,5f5126bb654d4b30ee6923d8,5f51340d9062f8337771b3d9,6,,,,,,goose,,,,,,,,,,,1,1,0,11,11,4,1,,,,,,,,,,,,,
,,?,0.002055,0,,,,,,stimuli/images/PICTURE_491.png,RIVER,5eab13155a85f50c05f6e9f7,05/08/1947,2020-09-03_19h22.46.837,proactive2,2020.1.2,Win32,60,5f5126bb654d4b30ee6923d8,5f51340d9062f8337771b3d9,6,,,,,,rug,,,,,,,,,,,1,1,0,12,12,6,1,,,,,,,,,,,,,
,,?,0.00169,0,,,,,,stimuli/images/PICTURE_564.png,BATH,5eab13155a85f50c05f6e9f7,05/08/1947,2020-09-03_19h22.46.837,proactive2,2020.1.2,Win32,60,5f5126bb654d4b30ee6923d8,5f51340d9062f8337771b3d9,6,,,,,,spoon,,,,,,,,,,,3,1,0,13,13,26,1,,,,,,,,,,,,,
,,?,0.00155,0,,,,,,stimuli/images/PICTURE_2.png,FLIGHT,5eab13155a85f50c05f6e9f7,05/08/1947,2020-09-03_19h22.46.837,proactive2,2020.1.2,Win32,60,5f5126bb654d4b30ee6923d8,5f51340d9062f8337771b3d9,6,,,,,,tyre,,,,,,,,,,,2,1,0,14,14,15,1,,,,,,,,,,,,,
,,?,0.001645,0,,,,,,stimuli/images/PICTURE_177.png,WRITER,5eab13155a85f50c05f6e9f7,05/08/1947,2020-09-03_19h22.46.837,proactive2,2020.1.2,Win32,60,5f5126bb654d4b30ee6923d8,5f51340d9062f8337771b3d9,6,,,,,,mushroom,,,,,,,,,,,5,1,0,15,15,41,1,,,,,,,,,,,,,
,,?,0.001665,0,,,,,,stimuli/images/PICTURE_147.png,YEAR,5eab13155a85f50c05f6e9f7,05/08/1947,2020-09-03_19h22.46.837,proactive2,2020.1.2,Win32,60,5f5126bb654d4b30ee6923d8,5f51340d9062f8337771b3d9,6,,,,,,hanger,,,,,,,,,,,3,1,0,16,16,21,1,,,,,,,,,,,,,
,,?,0.002475,0,,,,,,stimuli/images/PICTURE_208.png,SYSTEM,5eab13155a85f50c05f6e9f7,05/08/1947,2020-09-03_19h22.46.837,proactive2,2020.1.2,Win32,60,5f5126bb654d4b30ee6923d8,5f51340d9062f8337771b3d9,6,,,,,,microphone,,,,,,,,,,,4,1,0,17,17,32,1,,,,,,,,,,,,,
,,?,0.00168,0,,,,,,stimuli/images/PICTURE_339.png,CLIENT,5eab13155a85f50c05f6e9f7,05/08/1947,2020-09-03_19h22.46.837,proactive2,2020.1.2,Win32,60,5f5126bb654d4b30ee6923d8,5f51340d9062f8337771b3d9,6,,,,,,backpack,,,,,,,,,,,2,1,0,18,18,11,1,,,,,,,,,,,,,
,,?,0.00169,0,,,,,,stimuli/images/PICTURE_750.png,HOTEL,5eab13155a85f50c05f6e9f7,05/08/1947,2020-09-03_19h22.46.837,proactive2,2020.1.2,Win32,60,5f5126bb654d4b30ee6923d8,5f51340d9062f8337771b3d9,6,,,,,,kettle,,,,,,,,,,,3,1,0,19,19,27,1,,,,,,,,,,,,,
,,?,0.00166,0,,,,,,stimuli/images/PICTURE_57.png,MOMENT,5eab13155a85f50c05f6e9f7,05/08/1947,2020-09-03_19h22.46.837,proactive2,2020.1.2,Win32,60,5f5126bb654d4b30ee6923d8,5f51340d9062f8337771b3d9,6,,,,,,stamp,,,,,,,,,,,4,1,0,20,20,37,1,,,,,,,,,,,,,
,,?,0.00165,0,,,,,,stimuli/images/PICTURE_147.png,WOMEN,5eab13155a85f50c05f6e9f7,05/08/1947,2020-09-03_19h22.46.837,proactive2,2020.1.2,Win32,60,5f5126bb654d4b30ee6923d8,5f51340d9062f8337771b3d9,6,,,,,,hanger,,,,,,,,,,,1,1,0,21,21,7,1,,,,,,,,,,,,,
,,?,0.003735,0,,,,,,stimuli/images/PICTURE_403.png,TOILET,5eab13155a85f50c05f6e9f7,05/08/1947,2020-09-03_19h22.46.837,proactive2,2020.1.2,Win32,60,5f5126bb654d4b30ee6923d8,5f51340d9062f8337771b3d9,6,,,,,,cathedral,,,,,,,,,,,3,1,0,22,22,25,1,,,,,,,,,,,,,
,,?,0.00183,0,,,,,,stimuli/images/PICTURE_655.png,TOILET,5eab13155a85f50c05f6e9f7,05/08/1947,2020-09-03_19h22.46.837,proactive2,2020.1.2,Win32,60,5f5126bb654d4b30ee6923d8,5f51340d9062f8337771b3d9,6,,,,,,megaphone,,,,,,,,,,,2,1,0,23,23,12,1,,,,,,,,,,,,,
,,?,0.00187,0,,,,,,stimuli/images/PICTURE_667.png,RIVER,5eab13155a85f50c05f6e9f7,05/08/1947,2020-09-03_19h22.46.837,proactive2,2020.1.2,Win32,60,5f5126bb654d4b30ee6923d8,5f51340d9062f8337771b3d9,6,,,,,,daisy,,,,,,,,,,,2,1,0,24,24,10,1,,,,,,,,,,,,,
,,?,0.001885,0,,,,,,stimuli/images/PICTURE_297.png,RIVER,5eab13155a85f50c05f6e9f7,05/08/1947,2020-09-03_19h22.46.837,proactive2,2020.1.2,Win32,60,5f5126bb654d4b30ee6923d8,5f51340d9062f8337771b3d9,6,,,,,,aeroplane,,,,,,,,,,,4,1,0,25,25,39,1,,,,,,,,,,,,,
,,?,0.001775,0,,,,,,stimuli/images/PICTURE_403.png,RIVER,5eab13155a85f50c05f6e9f7,05/08/1947,2020-09-03_19h22.46.837,proactive2,2020.1.2,Win32,60,5f5126bb654d4b30ee6923d8,5f51340d9062f8337771b3d9,6,,,,,,cathedral,,,,,,,,,,,5,1,0,26,26,40,1,,,,,,,,,,,,,
,,FLIGHT,5.496915,0,,,,,,stimuli/images/PICTURE_296.png,LIFE,5eab13155a85f50c05f6e9f7,05/08/1947,2020-09-03_19h22.46.837,proactive2,2020.1.2,Win32,60,5f5126bb654d4b30ee6923d8,5f51340d9062f8337771b3d9,6,,,,,,bolt,,,,,,,,,,,6,1,0,27,27,57,1,,,,,,,,,,,,,
,,?,0.00218,0,,,,,,stimuli/images/PICTURE_340.png,LETTER,5eab13155a85f50c05f6e9f7,05/08/1947,2020-09-03_19h22.46.837,proactive2,2020.1.2,Win32,60,5f5126bb654d4b30ee6923d8,5f51340d9062f8337771b3d9,6,,,,,,mirror,,,,,,,,,,,3,1,0,28,28,24,1,,,,,,,,,,,,,
,,?,0.00162,0,,,,,,stimuli/images/PICTURE_95.png,BOYS,5eab13155a85f50c05f6e9f7,05/08/1947,2020-09-03_19h22.46.837,proactive2,2020.1.2,Win32,60,5f5126bb654d4b30ee6923d8,5f51340d9062f8337771b3d9,6,,,,,,suitcase,,,,,,,,,,,1,1,0,29,29,1,1,,,,,,,,,,,,,
,,?,0.00224,0,,,,,,stimuli/images/PICTURE_108.png,POLICY,5eab13155a85f50c05f6e9f7,05/08/1947,2020-09-03_19h22.46.837,proactive2,2020.1.2,Win32,60,5f5126bb654d4b30ee6923d8,5f51340d9062f8337771b3d9,6,,,,,,calendar,,,,,,,,,,,3,1,0,30,30,22,1,,,,,,,,,,,,,
,,BOYS,4.630035,1,,,,,,stimuli/images/PICTURE_42.png,BOYS,5eab13155a85f50c05f6e9f7,05/08/1947,2020-09-03_19h22.46.837,proactive2,2020.1.2,Win32,60,5f5126bb654d4b30ee6923d8,5f51340d9062f8337771b3d9,6,,,,,,pear,,,,,,,,,,,6,1,0,31,31,55,1,,,,,,,,,,,,,
,,?,0.00191,0,,,,,,stimuli/images/PICTURE_33.png,FRIEND,5eab13155a85f50c05f6e9f7,05/08/1947,2020-09-03_19h22.46.837,proactive2,2020.1.2,Win32,60,5f5126bb654d4b30ee6923d8,5f51340d9062f8337771b3d9,6,,,,,,frame,,,,,,,,,,,1,1,0,32,32,8,1,,,,,,,,,,,,,
,,?,0.001625,0,,,,,,stimuli/images/PICTURE_203.png,GODS,5eab13155a85f50c05f6e9f7,05/08/1947,2020-09-03_19h22.46.837,proactive2,2020.1.2,Win32,60,5f5126bb654d4b30ee6923d8,5f51340d9062f8337771b3d9,6,,,,,,cap,,,,,,,,,,,4,1,0,33,33,30,1,,,,,,,,,,,,,
,,?,0.00152,0,,,,,,stimuli/images/PICTURE_85.png,NATION,5eab13155a85f50c05f6e9f7,05/08/1947,2020-09-03_19h22.46.837,proactive2,2020.1.2,Win32,60,5f5126bb654d4b30ee6923d8,5f51340d9062f8337771b3d9,6,,,,,,diamond,,,,,,,,,,,1,1,0,34,34,5,1,,,,,,,,,,,,,
,,?,0.002135,0,,,,,,stimuli/images/PICTURE_654.png,MONTH,5eab13155a85f50c05f6e9f7,05/08/1947,2020-09-03_19h22.46.837,proactive2,2020.1.2,Win32,60,5f5126bb654d4b30ee6923d8,5f51340d9062f8337771b3d9,6,,,,,,pencil,,,,,,,,,,,3,1,0,35,35,29,1,,,,,,,,,,,,,
,,FLIGHT,7.610825,1,,,,,,stimuli/images/PICTURE_108.png,FLIGHT,5eab13155a85f50c05f6e9f7,05/08/1947,2020-09-03_19h22.46.837,proactive2,2020.1.2,Win32,60,5f5126bb654d4b30ee6923d8,5f51340d9062f8337771b3d9,6,,,,,,calendar,,,,,,,,,,,6,1,0,36,36,59,1,,,,,,,,,,,,,
,,?,0.002055,0,,,,,,stimuli/images/PICTURE_296.png,LOTS,5eab13155a85f50c05f6e9f7,05/08/1947,2020-09-03_19h22.46.837,proactive2,2020.1.2,Win32,60,5f5126bb654d4b30ee6923d8,5f51340d9062f8337771b3d9,6,,,,,,bolt,,,,,,,,,,,1,1,0,37,37,9,1,,,,,,,,,,,,,
,,?,0.00185,0,,,,,,stimuli/images/PICTURE_383.png,SERIES,5eab13155a85f50c05f6e9f7,05/08/1947,2020-09-03_19h22.46.837,proactive2,2020.1.2,Win32,60,5f5126bb654d4b30ee6923d8,5f51340d9062f8337771b3d9,6,,,,,,coin,,,,,,,,,,,5,1,0,38,38,46,1,,,,,,,,,,,,,
,,?,0.00282,0,,,,,,stimuli/images/PICTURE_405.png,YEAR,5eab13155a85f50c05f6e9f7,05/08/1947,2020-09-03_19h22.46.837,proactive2,2020.1.2,Win32,60,5f5126bb654d4b30ee6923d8,5f51340d9062f8337771b3d9,6,,,,,,anchor,,,,,,,,,,,4,1,0,39,39,34,1,,,,,,,,,,,,,
,,?,0.001575,0,,,,,,stimuli/images/PICTURE_469.png,AGENT,5eab13155a85f50c05f6e9f7,05/08/1947,2020-09-03_19h22.46.837,proactive2,2020.1.2,Win32,60,5f5126bb654d4b30ee6923d8,5f51340d9062f8337771b3d9,6,,,,,,stool,,,,,,,,,,,2,1,0,40,40,16,1,,,,,,,,,,,,,
,,?,0.00172,0,,,,,,stimuli/images/PICTURE_327.png,SERIES,5eab13155a85f50c05f6e9f7,05/08/1947,2020-09-03_19h22.46.837,proactive2,2020.1.2,Win32,60,5f5126bb654d4b30ee6923d8,5f51340d9062f8337771b3d9,6,,,,,,helmet,,,,,,,,,,,1,1,0,41,41,3,1,,,,,,,,,,,,,
,,?,0.001875,0,,,,,,stimuli/images/PICTURE_677.png,APPLE,5eab13155a85f50c05f6e9f7,05/08/1947,2020-09-03_19h22.46.837,proactive2,2020.1.2,Win32,60,5f5126bb654d4b30ee6923d8,5f51340d9062f8337771b3d9,6,,,,,,map,,,,,,,,,,,5,1,0,42,42,43,1,,,,,,,,,,,,,
,,?,0.001735,0,,,,,,stimuli/images/PICTURE_504.png,YEAR,5eab13155a85f50c05f6e9f7,05/08/1947,2020-09-03_19h22.46.837,proactive2,2020.1.2,Win32,60,5f5126bb654d4b30ee6923d8,5f51340d9062f8337771b3d9,6,,,,,,wheel,,,,,,,,,,,2,1,0,43,43,13,1,,,,,,,,,,,,,
,,COPS,7.15612,1,,,,,,stimuli/images/PICTURE_504.png,COPS,5eab13155a85f50c05f6e9f7,05/08/1947,2020-09-03_19h22.46.837,proactive2,2020.1.2,Win32,60,5f5126bb654d4b30ee6923d8,5f51340d9062f8337771b3d9,6,,,,,,wheel,,,,,,,,,,,6,1,0,44,44,52,1,,,,,,,,,,,,,
,,?,0.001665,0,,,,,,stimuli/images/PICTURE_675.png,SALE,5eab13155a85f50c05f6e9f7,05/08/1947,2020-09-03_19h22.46.837,proactive2,2020.1.2,Win32,60,5f5126bb654d4b30ee6923d8,5f51340d9062f8337771b3d9,6,,,,,,windmill,,,,,,,,,,,5,1,0,45,45,47,1,,,,,,,,,,,,,
,,?,0.00188,0,,,,,,stimuli/images/PICTURE_285.png,LIFE,5eab13155a85f50c05f6e9f7,05/08/1947,2020-09-03_19h22.46.837,proactive2,2020.1.2,Win32,60,5f5126bb654d4b30ee6923d8,5f51340d9062f8337771b3d9,6,,,,,,carrot,,,,,,,,,,,4,1,0,46,46,33,1,,,,,,,,,,,,,
,,?,0.00161,0,,,,,,stimuli/images/PICTURE_380.png,CANDY,5eab13155a85f50c05f6e9f7,05/08/1947,2020-09-03_19h22.46.837,proactive2,2020.1.2,Win32,60,5f5126bb654d4b30ee6923d8,5f51340d9062f8337771b3d9,6,,,,,,gorilla,,,,,,,,,,,1,1,0,47,47,0,1,,,,,,,,,,,,,
,,?,0.00159,0,,,,,,stimuli/images/PICTURE_308.png,FAMILY,5eab13155a85f50c05f6e9f7,05/08/1947,2020-09-03_19h22.46.837,proactive2,2020.1.2,Win32,60,5f5126bb654d4b30ee6923d8,5f51340d9062f8337771b3d9,6,,,,,,dice,,,,,,,,,,,4,1,0,48,48,36,1,,,,,,,,,,,,,
,,MULE,6.51129,0,,,,,,stimuli/images/PICTURE_68.png,MILE,5eab13155a85f50c05f6e9f7,05/08/1947,2020-09-03_19h22.46.837,proactive2,2020.1.2,Win32,60,5f5126bb654d4b30ee6923d8,5f51340d9062f8337771b3d9,6,,,,,,candle,,,,,,,,,,,6,1,0,49,49,51,1,,,,,,,,,,,,,
,,?,0.0026,0,,,,,,stimuli/images/PICTURE_449.png,DUDE,5eab13155a85f50c05f6e9f7,05/08/1947,2020-09-03_19h22.46.837,proactive2,2020.1.2,Win32,60,5f5126bb654d4b30ee6923d8,5f51340d9062f8337771b3d9,6,,,,,,bench,,,,,,,,,,,2,1,0,50,50,17,1,,,,,,,,,,,,,
,,?,0.002355,0,,,,,,stimuli/images/PICTURE_68.png,ROOF,5eab13155a85f50c05f6e9f7,05/08/1947,2020-09-03_19h22.46.837,proactive2,2020.1.2,Win32,60,5f5126bb654d4b30ee6923d8,5f51340d9062f8337771b3d9,6,,,,,,candle,,,,,,,,,,,4,1,0,51,51,38,1,,,,,,,,,,,,,
,,?,0.00166,0,,,,,,stimuli/images/PICTURE_203.png,NIGHT,5eab13155a85f50c05f6e9f7,05/08/1947,2020-09-03_19h22.46.837,proactive2,2020.1.2,Win32,60,5f5126bb654d4b30ee6923d8,5f51340d9062f8337771b3d9,6,,,,,,cap,,,,,,,,,,,1,1,0,52,52,2,1,,,,,,,,,,,,,
,,MILLER,5.36848,1,,,,,,stimuli/images/PICTURE_95.png,MILLER,5eab13155a85f50c05f6e9f7,05/08/1947,2020-09-03_19h22.46.837,proactive2,2020.1.2,Win32,60,5f5126bb654d4b30ee6923d8,5f51340d9062f8337771b3d9,6,,,,,,suitcase,,,,,,,,,,,6,1,0,53,53,56,1,,,,,,,,,,,,,
,,?,0.001815,0,,,,,,stimuli/images/PICTURE_95.png,HONEY,5eab13155a85f50c05f6e9f7,05/08/1947,2020-09-03_19h22.46.837,proactive2,2020.1.2,Win32,60,5f5126bb654d4b30ee6923d8,5f51340d9062f8337771b3d9,6,,,,,,suitcase,,,,,,,,,,,5,1,0,54,54,44,1,,,,,,,,,,,,,
,,?,0.001965,0,,,,,,stimuli/images/PICTURE_504.png,ARTIST,5eab13155a85f50c05f6e9f7,05/08/1947,2020-09-03_19h22.46.837,proactive2,2020.1.2,Win32,60,5f5126bb654d4b30ee6923d8,5f51340d9062f8337771b3d9,6,,,,,,wheel,,,,,,,,,,,5,1,0,55,55,49,1,,,,,,,,,,,,,
,,?,0.00151,0,,,,,,stimuli/images/PICTURE_85.png,TOILET,5eab13155a85f50c05f6e9f7,05/08/1947,2020-09-03_19h22.46.837,proactive2,2020.1.2,Win32,60,5f5126bb654d4b30ee6923d8,5f51340d9062f8337771b3d9,6,,,,,,diamond,,,,,,,,,,,5,1,0,56,56,48,1,,,,,,,,,,,,,
,,?,0.00183,0,,,,,,stimuli/images/PICTURE_403.png,WRITER,5eab13155a85f50c05f6e9f7,05/08/1947,2020-09-03_19h22.46.837,proactive2,2020.1.2,Win32,60,5f5126bb654d4b30ee6923d8,5f51340d9062f8337771b3d9,6,,,,,,cathedral,,,,,,,,,,,4,1,0,57,57,31,1,,,,,,,,,,,,,
,,?,0.001605,0,,,,,,stimuli/images/PICTURE_32.png,KIND,5eab13155a85f50c05f6e9f7,05/08/1947,2020-09-03_19h22.46.837,proactive2,2020.1.2,Win32,60,5f5126bb654d4b30ee6923d8,5f51340d9062f8337771b3d9,6,,,,,,crown,,,,,,,,,,,4,1,0,58,58,35,1,,,,,,,,,,,,,
,,POLICY,5.785795,1,,,,,,stimuli/images/PICTURE_467.png,POLICY,5eab13155a85f50c05f6e9f7,05/08/1947,2020-09-03_19h22.46.837,proactive2,2020.1.2,Win32,60,5f5126bb654d4b30ee6923d8,5f51340d9062f8337771b3d9,6,,,,,,peg,,,,,,,,,,,6,1,0,59,59,53,1,,,,,,,,,,,,,
,,,,,,,,,,,,5eab13155a85f50c05f6e9f7,05/08/1947,2020-09-03_19h22.46.837,proactive2,2020.1.2,Win32,60,5f5126bb654d4b30ee6923d8,5f51340d9062f8337771b3d9,6,,,,,,,,,,,,,,,,,,,,,,,,0,1,1,1,1,stimuli/learn-block2.csv,,,,,,,
,,,,,,,,,,stimuli/images/PICTURE_68.png,KIND,5eab13155a85f50c05f6e9f7,05/08/1947,2020-09-03_19h22.46.837,proactive2,2020.1.2,Win32,60,5f5126bb654d4b30ee6923d8,5f51340d9062f8337771b3d9,6,,,,,,candle,,,,,,0,0,0,23,1,3,2,,,,,,,,,,,,,,,,,,
,,,,,,,,,,stimuli/images/PICTURE_2.png,AREA,5eab13155a85f50c05f6e9f7,05/08/1947,2020-09-03_19h22.46.837,proactive2,2020.1.2,Win32,60,5f5126bb654d4b30ee6923d8,5f51340d9062f8337771b3d9,6,,,,,,tyre,,,,,,0,1,1,32,1,4,2,,,,,,,,,,,,,,,,,,
,,,,,,,,,,stimuli/images/PICTURE_327.png,LEADER,5eab13155a85f50c05f6e9f7,05/08/1947,2020-09-03_19h22.46.837,proactive2,2020.1.2,Win32,60,5f5126bb654d4b30ee6923d8,5f51340d9062f8337771b3d9,6,,,,,,helmet,,,,,,0,2,2,17,1,2,2,,,,,,,,,,,,,,,,,,
,,,,,,,,,,stimuli/images/PICTURE_18.png,RIVER,5eab13155a85f50c05f6e9f7,05/08/1947,2020-09-03_19h22.46.837,proactive2,2020.1.2,Win32,60,5f5126bb654d4b30ee6923d8,5f51340d9062f8337771b3d9,6,,,,,,planet,,,,,,0,3,3,22,1,3,2,,,,,,,,,,,,,,,,,,
,,,,,,,,,,stimuli/images/PICTURE_208.png,SPIRIT,5eab13155a85f50c05f6e9f7,05/08/1947,2020-09-03_19h22.46.837,proactive2,2020.1.2,Win32,60,5f5126bb654d4b30ee6923d8,5f51340d9062f8337771b3d9,6,,,,,,microphone,,,,,,0,4,4,28,1,3,2,,,,,,,,,,,,,,,,,,
,,,,,,,,,,stimuli/images/PICTURE_655.png,SALE,5eab13155a85f50c05f6e9f7,05/08/1947,2020-09-03_19h22.46.837,proactive2,2020.1.2,Win32,60,5f5126bb654d4b30ee6923d8,5f51340d9062f8337771b3d9,6,,,,,,megaphone,,,,,,0,5,5,57,1,6,2,,,,,,,,,,,,,,,,,,
,,,,,,,,,,stimuli/images/PICTURE_297.png,BODY,5eab13155a85f50c05f6e9f7,05/08/1947,2020-09-03_19h22.46.837,proactive2,2020.1.2,Win32,60,5f5126bb654d4b30ee6923d8,5f51340d9062f8337771b3d9,6,,,,,,aeroplane,,,,,,0,6,6,51,1,6,2,,,,,,,,,,,,,,,,,,
,,,,,,,,,,stimuli/images/PICTURE_692.png,DUDE,5eab13155a85f50c05f6e9f7,05/08/1947,2020-09-03_19h22.46.837,proactive2,2020.1.2,Win32,60,5f5126bb654d4b30ee6923d8,5f51340d9062f8337771b3d9,6,,,,,,cherry,,,,,,0,7,7,47,1,5,2,,,,,,,,,,,,,,,,,,
,,,,,,,,,,stimuli/images/PICTURE_487.png,POLICY,5eab13155a85f50c05f6e9f7,05/08/1947,2020-09-03_19h22.46.837,proactive2,2020.1.2,Win32,60,5f5126bb654d4b30ee6923d8,5f51340d9062f8337771b3d9,6,,,,,,basket,,,,,,0,8,8,34,1,4,2,,,,,,,,,,,,,,,,,,
,,,,,,,,,,stimuli/images/PICTURE_32.png,LETTER,5eab13155a85f50c05f6e9f7,05/08/1947,2020-09-03_19h22.46.837,proactive2,2020.1.2,Win32,60,5f5126bb654d4b30ee6923d8,5f51340d9062f8337771b3d9,6,,,,,,crown,,,,,,0,9,9,56,1,6,2,,,,,,,,,,,,,,,,,,
,,,,,,,,,,stimuli/images/PICTURE_177.png,HOUSE,5eab13155a85f50c05f6e9f7,05/08/1947,2020-09-03_19h22.46.837,proactive2,2020.1.2,Win32,60,5f5126bb654d4b30ee6923d8,5f51340d9062f8337771b3d9,6,,,,,,mushroom,,,,,,0,10,10,25,1,3,2,,,,,,,,,,,,,,,,,,
,,,,,,,,,,stimuli/images/PICTURE_348.png,DUDE,5eab13155a85f50c05f6e9f7,05/08/1947,2020-09-03_19h22.46.837,proactive2,2020.1.2,Win32,60,5f5126bb654d4b30ee6923d8,5f51340d9062f8337771b3d9,6,,,,,,pepper,,,,,,0,11,11,59,1,6,2,,,,,,,,,,,,,,,,,,
,,,,,,,,,,stimuli/images/PICTURE_453.png,FAMILY,5eab13155a85f50c05f6e9f7,05/08/1947,2020-09-03_19h22.46.837,proactive2,2020.1.2,Win32,60,5f5126bb654d4b30ee6923d8,5f51340d9062f8337771b3d9,6,,,,,,scissors,,,,,,0,12,12,48,1,5,2,,,,,,,,,,,,,,,,,,
,,,,,,,,,,stimuli/images/PICTURE_95.png,NIGHT,5eab13155a85f50c05f6e9f7,05/08/1947,2020-09-03_19h22.46.837,proactive2,2020.1.2,Win32,60,5f5126bb654d4b30ee6923d8,5f51340d9062f8337771b3d9,6,,,,,,suitcase,,,,,,0,13,13,37,1,4,2,,,,,,,,,,,,,,,,,,
,,,,,,,,,,stimuli/images/PICTURE_285.png,PRINCE,5eab13155a85f50c05f6e9f7,05/08/1947,2020-09-03_19h22.46.837,proactive2,2020.1.2,Win32,60,5f5126bb654d4b30ee6923d8,5f51340d9062f8337771b3d9,6,,,,,,carrot,,,,,,0,14,14,20,1,3,2,,,,,,,,,,,,,,,,,,
,,,,,,,,,,stimuli/images/PICTURE_677.png,PHOTO,5eab13155a85f50c05f6e9f7,05/08/1947,2020-09-03_19h22.46.837,proactive2,2020.1.2,Win32,60,5f5126bb654d4b30ee6923d8,5f51340d9062f8337771b3d9,6,,,,,,map,,,,,,0,15,15,14,1,2,2,,,,,,,,,,,,,,,,,,
,,,,,,,,,,stimuli/images/PICTURE_57.png,CANDY,5eab13155a85f50c05f6e9f7,05/08/1947,2020-09-03_19h22.46.837,proactive2,2020.1.2,Win32,60,5f5126bb654d4b30ee6923d8,5f51340d9062f8337771b3d9,6,,,,,,stamp,,,,,,0,16,16,52,1,6,2,,,,,,,,,,,,,,,,,,
,,,,,,,,,,stimuli/images/PICTURE_564.png,PLENTY,5eab13155a85f50c05f6e9f7,05/08/1947,2020-09-03_19h22.46.837,proactive2,2020.1.2,Win32,60,5f5126bb654d4b30ee6923d8,5f51340d9062f8337771b3d9,6,,,,,,spoon,,,,,,0,17,17,11,1,2,2,,,,,,,,,,,,,,,,,,
,,,,,,,,,,stimuli/images/PICTURE_123.png,SALE,5eab13155a85f50c05f6e9f7,05/08/1947,2020-09-03_19h22.46.837,proactive2,2020.1.2,Win32,60,5f5126bb654d4b30ee6923d8,5f51340d9062f8337771b3d9,6,,,,,,dart,,,,,,0,18,18,8,1,1,2,,,,,,,,,,,,,,,,,,
,,,,,,,,,,stimuli/images/PICTURE_403.png,FAMILY,5eab13155a85f50c05f6e9f7,05/08/1947,2020-09-03_19h22.46.837,proactive2,2020.1.2,Win32,60,5f5126bb654d4b30ee6923d8,5f51340d9062f8337771b3d9,6,,,,,,cathedral,,,,,,0,19,19,9,1,1,2,,,,,,,,,,,,,,,,,,
,,,,,,,,,,stimuli/images/PICTURE_2.png,YARD,5eab13155a85f50c05f6e9f7,05/08/1947,2020-09-03_19h22.46.837,proactive2,2020.1.2,Win32,60,5f5126bb654d4b30ee6923d8,5f51340d9062f8337771b3d9,6,,,,,,tyre,,,,,,0,20,20,55,1,6,2,,,,,,,,,,,,,,,,,,
,,,,,,,,,,stimuli/images/PICTURE_654.png,YEAR,5eab13155a85f50c05f6e9f7,05/08/1947,2020-09-03_19h22.46.837,proactive2,2020.1.2,Win32,60,5f5126bb654d4b30ee6923d8,5f51340d9062f8337771b3d9,6,,,,,,pencil,,,,,,0,21,21,41,1,5,2,,,,,,,,,,,,,,,,,,
,,,,,,,,,,stimuli/images/PICTURE_147.png,LEADER,5eab13155a85f50c05f6e9f7,05/08/1947,2020-09-03_19h22.46.837,proactive2,2020.1.2,Win32,60,5f5126bb654d4b30ee6923d8,5f51340d9062f8337771b3d9,6,,,,,,hanger,,,,,,0,22,22,33,1,4,2,,,,,,,,,,,,,,,,,,
,,,,,,,,,,stimuli/images/PICTURE_215.png,LEADER,5eab13155a85f50c05f6e9f7,05/08/1947,2020-09-03_19h22.46.837,proactive2,2020.1.2,Win32,60,5f5126bb654d4b30ee6923d8,5f51340d9062f8337771b3d9,6,,,,,,boot,,,,,,0,23,23,43,1,5,2,,,,,,,,,,,,,,,,,,
,,,,,,,,,,stimuli/images/PICTURE_487.png,ROOF,5eab13155a85f50c05f6e9f7,05/08/1947,2020-09-03_19h22.46.837,proactive2,2020.1.2,Win32,60,5f5126bb654d4b30ee6923d8,5f51340d9062f8337771b3d9,6,,,,,,basket,,,,,,0,24,24,50,1,6,2,,,,,,,,,,,,,,,,,,
,,,,,,,,,,stimuli/images/PICTURE_215.png,BOYS,5eab13155a85f50c05f6e9f7,05/08/1947,2020-09-03_19h22.46.837,proactive2,2020.1.2,Win32,60,5f5126bb654d4b30ee6923d8,5f51340d9062f8337771b3d9,6,,,,,,boot,,,,,,0,25,25,24,1,3,2,,,,,,,,,,,,,,,,,,
,,,,,,,,,,stimuli/images/PICTURE_215.png,FOOD,5eab13155a85f50c05f6e9f7,05/08/1947,2020-09-03_19h22.46.837,proactive2,2020.1.2,Win32,60,5f5126bb654d4b30ee6923d8,5f51340d9062f8337771b3d9,6,,,,,,boot,,,,,,0,26,26,5,1,1,2,,,,,,,,,,,,,,,,,,
,,,,,,,,,,stimuli/images/PICTURE_141.png,CLIENT,5eab13155a85f50c05f6e9f7,05/08/1947,2020-09-03_19h22.46.837,proactive2,2020.1.2,Win32,60,5f5126bb654d4b30ee6923d8,5f51340d9062f8337771b3d9,6,,,,,,sunflower,,,,,,0,27,27,30,1,4,2,,,,,,,,,,,,,,,,,,
,,,,,,,,,,stimuli/images/PICTURE_654.png,COPS,5eab13155a85f50c05f6e9f7,05/08/1947,2020-09-03_19h22.46.837,proactive2,2020.1.2,Win32,60,5f5126bb654d4b30ee6923d8,5f51340d9062f8337771b3d9,6,,,,,,pencil,,,,,,0,28,28,10,1,2,2,,,,,,,,,,,,,,,,,,
,,,,,,,,,,stimuli/images/PICTURE_452.png,COPS,5eab13155a85f50c05f6e9f7,05/08/1947,2020-09-03_19h22.46.837,proactive2,2020.1.2,Win32,60,5f5126bb654d4b30ee6923d8,5f51340d9062f8337771b3d9,6,,,,,,watch,,,,,,0,29,29,0,1,1,2,,,,,,,,,,,,,,,,,,
,,,,,,,,,,stimuli/images/PICTURE_93.png,GIRL,5eab13155a85f50c05f6e9f7,05/08/1947,2020-09-03_19h22.46.837,proactive2,2020.1.2,Win32,60,5f5126bb654d4b30ee6923d8,5f51340d9062f8337771b3d9,6,,,,,,skateboard,,,,,,0,30,30,31,1,4,2,,,,,,,,,,,,,,,,,,
,,,,,,,,,,stimuli/images/PICTURE_311.png,FLESH,5eab13155a85f50c05f6e9f7,05/08/1947,2020-09-03_19h22.46.837,proactive2,2020.1.2,Win32,60,5f5126bb654d4b30ee6923d8,5f51340d9062f8337771b3d9,6,,,,,,razor,,,,,,0,31,31,3,1,1,2,,,,,,,,,,,,,,,,,,
,,,,,,,,,,stimuli/images/PICTURE_509.png,SHOTS,5eab13155a85f50c05f6e9f7,05/08/1947,2020-09-03_19h22.46.837,proactive2,2020.1.2,Win32,60,5f5126bb654d4b30ee6923d8,5f51340d9062f8337771b3d9,6,,,,,,telephone,,,,,,0,32,32,7,1,1,2,,,,,,,,,,,,,,,,,,
,,,,,,,,,,stimuli/images/PICTURE_667.png,GLASS,5eab13155a85f50c05f6e9f7,05/08/1947,2020-09-03_19h22.46.837,proactive2,2020.1.2,Win32,60,5f5126bb654d4b30ee6923d8,5f51340d9062f8337771b3d9,6,,,,,,daisy,,,,,,0,33,33,27,1,3,2,,,,,,,,,,,,,,,,,,
,,,,,,,,,,stimuli/images/PICTURE_750.png,POLICY,5eab13155a85f50c05f6e9f7,05/08/1947,2020-09-03_19h22.46.837,proactive2,2020.1.2,Win32,60,5f5126bb654d4b30ee6923d8,5f51340d9062f8337771b3d9,6,,,,,,kettle,,,,,,0,34,34,44,1,5,2,,,,,,,,,,,,,,,,,,
,,,,,,,,,,stimuli/images/PICTURE_491.png,SERIES,5eab13155a85f50c05f6e9f7,05/08/1947,2020-09-03_19h22.46.837,proactive2,2020.1.2,Win32,60,5f5126bb654d4b30ee6923d8,5f51340d9062f8337771b3d9,6,,,,,,rug,,,,,,0,35,35,39,1,4,2,,,,,,,,,,,,,,,,,,
,,,,,,,,,,stimuli/images/PICTURE_405.png,HOUSE,5eab13155a85f50c05f6e9f7,05/08/1947,2020-09-03_19h22.46.837,proactive2,2020.1.2,Win32,60,5f5126bb654d4b30ee6923d8,5f51340d9062f8337771b3d9,6,,,,,,anchor,,,,,,0,36,36,2,1,1,2,,,,,,,,,,,,,,,,,,
,,,,,,,,,,stimuli/images/PICTURE_285.png,WRITER,5eab13155a85f50c05f6e9f7,05/08/1947,2020-09-03_19h22.46.837,proactive2,2020.1.2,Win32,60,5f5126bb654d4b30ee6923d8,5f51340d9062f8337771b3d9,6,,,,,,carrot,,,,,,0,37,37,6,1,1,2,,,,,,,,,,,,,,,,,,
,,,,,,,,,,stimuli/images/PICTURE_160.png,HOTEL,5eab13155a85f50c05f6e9f7,05/08/1947,2020-09-03_19h22.46.837,proactive2,2020.1.2,Win32,60,5f5126bb654d4b30ee6923d8,5f51340d9062f8337771b3d9,6,,,,,,wheelbarrow,,,,,,0,38,38,16,1,2,2,,,,,,,,,,,,,,,,,,
,,,,,,,,,,stimuli/images/PICTURE_314.png,SPEECH,5eab13155a85f50c05f6e9f7,05/08/1947,2020-09-03_19h22.46.837,proactive2,2020.1.2,Win32,60,5f5126bb654d4b30ee6923d8,5f51340d9062f8337771b3d9,6,,,,,,perfume,,,,,,0,39,39,35,1,4,2,,,,,,,,,,,,,,,,,,
,,,,,,,,,,stimuli/images/PICTURE_470.png,BEAUTY,5eab13155a85f50c05f6e9f7,05/08/1947,2020-09-03_19h22.46.837,proactive2,2020.1.2,Win32,60,5f5126bb654d4b30ee6923d8,5f51340d9062f8337771b3d9,6,,,,,,motorbike,,,,,,0,40,40,26,1,3,2,,,,,,,,,,,,,,,,,,
,,,,,,,,,,stimuli/images/PICTURE_509.png,BATH,5eab13155a85f50c05f6e9f7,05/08/1947,2020-09-03_19h22.46.837,proactive2,2020.1.2,Win32,60,5f5126bb654d4b30ee6923d8,5f51340d9062f8337771b3d9,6,,,,,,telephone,,,,,,0,41,41,15,1,2,2,,,,,,,,,,,,,,,,,,
,,,,,,,,,,stimuli/images/PICTURE_348.png,TOILET,5eab13155a85f50c05f6e9f7,05/08/1947,2020-09-03_19h22.46.837,proactive2,2020.1.2,Win32,60,5f5126bb654d4b30ee6923d8,5f51340d9062f8337771b3d9,6,,,,,,pepper,,,,,,0,42,42,4,1,1,2,,,,,,,,,,,,,,,,,,
,,,,,,,,,,stimuli/images/PICTURE_296.png,CLOCK,5eab13155a85f50c05f6e9f7,05/08/1947,2020-09-03_19h22.46.837,proactive2,2020.1.2,Win32,60,5f5126bb654d4b30ee6923d8,5f51340d9062f8337771b3d9,6,,,,,,bolt,,,,,,0,43,43,18,1,2,2,,,,,,,,,,,,,,,,,,
,,,,,,,,,,stimuli/images/PICTURE_33.png,COPS,5eab13155a85f50c05f6e9f7,05/08/1947,2020-09-03_19h22.46.837,proactive2,2020.1.2,Win32,60,5f5126bb654d4b30ee6923d8,5f51340d9062f8337771b3d9,6,,,,,,frame,,,,,,0,44,44,29,1,3,2,,,,,,,,,,,,,,,,,,
,,,,,,,,,,stimuli/images/PICTURE_677.png,FAMILY,5eab13155a85f50c05f6e9f7,05/08/1947,2020-09-03_19h22.46.837,proactive2,2020.1.2,Win32,60,5f5126bb654d4b30ee6923d8,5f51340d9062f8337771b3d9,6,,,,,,map,,,,,,0,45,45,53,1,6,2,,,,,,,,,,,,,,,,,,
,,,,,,,,,,stimuli/images/PICTURE_504.png,HOUSE,5eab13155a85f50c05f6e9f7,05/08/1947,2020-09-03_19h22.46.837,proactive2,2020.1.2,Win32,60,5f5126bb654d4b30ee6923d8,5f51340d9062f8337771b3d9,6,,,,,,wheel,,,,,,0,46,46,36,1,4,2,,,,,,,,,,,,,,,,,,
,,,,,,,,,,stimuli/images/PICTURE_688.png,CLOCK,5eab13155a85f50c05f6e9f7,05/08/1947,2020-09-03_19h22.46.837,proactive2,2020.1.2,Win32,60,5f5126bb654d4b30ee6923d8,5f51340d9062f8337771b3d9,6,,,,,,runner,,,,,,0,47,47,42,1,5,2,,,,,,,,,,,,,,,,,,
,,,,,,,,,,stimuli/images/PICTURE_255.png,PENNY,5eab13155a85f50c05f6e9f7,05/08/1947,2020-09-03_19h22.46.837,proactive2,2020.1.2,Win32,60,5f5126bb654d4b30ee6923d8,5f51340d9062f8337771b3d9,6,,,,,,shovel,,,,,,0,48,48,19,1,2,2,,,,,,,,,,,,,,,,,,
,,,,,,,,,,stimuli/images/PICTURE_405.png,JUNGLE,5eab13155a85f50c05f6e9f7,05/08/1947,2020-09-03_19h22.46.837,proactive2,2020.1.2,Win32,60,5f5126bb654d4b30ee6923d8,5f51340d9062f8337771b3d9,6,,,,,,anchor,,,,,,0,49,49,13,1,2,2,,,,,,,,,,,,,,,,,,
,,,,,,,,,,stimuli/images/PICTURE_509.png,MILLER,5eab13155a85f50c05f6e9f7,05/08/1947,2020-09-03_19h22.46.837,proactive2,2020.1.2,Win32,60,5f5126bb654d4b30ee6923d8,5f51340d9062f8337771b3d9,6,,,,,,telephone,,,,,,0,50,50,49,1,5,2,,,,,,,,,,,,,,,,,,
,,,,,,,,,,stimuli/images/PICTURE_509.png,APPLE,5eab13155a85f50c05f6e9f7,05/08/1947,2020-09-03_19h22.46.837,proactive2,2020.1.2,Win32,60,5f5126bb654d4b30ee6923d8,5f51340d9062f8337771b3d9,6,,,,,,telephone,,,,,,0,51,51,38,1,4,2,,,,,,,,,,,,,,,,,,
,,,,,,,,,,stimuli/images/PICTURE_356.png,CANDY,5eab13155a85f50c05f6e9f7,05/08/1947,2020-09-03_19h22.46.837,proactive2,2020.1.2,Win32,60,5f5126bb654d4b30ee6923d8,5f51340d9062f8337771b3d9,6,,,,,,pawn,,,,,,0,52,52,46,1,5,2,,,,,,,,,,,,,,,,,,
,,,,,,,,,,stimuli/images/PICTURE_2.png,JUNGLE,5eab13155a85f50c05f6e9f7,05/08/1947,2020-09-03_19h22.46.837,proactive2,2020.1.2,Win32,60,5f5126bb654d4b30ee6923d8,5f51340d9062f8337771b3d9,6,,,,,,tyre,,,,,,0,53,53,1,1,1,2,,,,,,,,,,,,,,,,,,
,,,,,,,,,,stimuli/images/PICTURE_405.png,JUNGLE,5eab13155a85f50c05f6e9f7,05/08/1947,2020-09-03_19h22.46.837,proactive2,2020.1.2,Win32,60,5f5126bb654d4b30ee6923d8,5f51340d9062f8337771b3d9,6,,,,,,anchor,,,,,,0,54,54,58,1,6,2,,,,,,,,,,,,,,,,,,
,,,,,,,,,,stimuli/images/PICTURE_57.png,NATION,5eab13155a85f50c05f6e9f7,05/08/1947,2020-09-03_19h22.46.837,proactive2,2020.1.2,Win32,60,5f5126bb654d4b30ee6923d8,5f51340d9062f8337771b3d9,6,,,,,,stamp,,,,,,0,55,55,21,1,3,2,,,,,,,,,,,,,,,,,,
,,,,,,,,,,stimuli/images/PICTURE_57.png,CASINO,5eab13155a85f50c05f6e9f7,05/08/1947,2020-09-03_19h22.46.837,proactive2,2020.1.2,Win32,60,5f5126bb654d4b30ee6923d8,5f51340d9062f8337771b3d9,6,,,,,,stamp,,,,,,0,56,56,12,1,2,2,,,,,,,,,,,,,,,,,,
,,,,,,,,,,stimuli/images/PICTURE_470.png,MOMENT,5eab13155a85f50c05f6e9f7,05/08/1947,2020-09-03_19h22.46.837,proactive2,2020.1.2,Win32,60,5f5126bb654d4b30ee6923d8,5f51340d9062f8337771b3d9,6,,,,,,motorbike,,,,,,0,57,57,40,1,5,2,,,,,,,,,,,,,,,,,,
,,,,,,,,,,stimuli/images/PICTURE_311.png,TOILET,5eab13155a85f50c05f6e9f7,05/08/1947,2020-09-03_19h22.46.837,proactive2,2020.1.2,Win32,60,5f5126bb654d4b30ee6923d8,5f51340d9062f8337771b3d9,6,,,,,,razor,,,,,,0,58,58,54,1,6,2,,,,,,,,,,,,,,,,,,
,,?,0.00173,0,,,,,,stimuli/images/PICTURE_95.png,NIGHT,5eab13155a85f50c05f6e9f7,05/08/1947,2020-09-03_19h22.46.837,proactive2,2020.1.2,Win32,60,5f5126bb654d4b30ee6923d8,5f51340d9062f8337771b3d9,6,,,,,,suitcase,,,,,,,,,,,4,2,0,0,0,37,1,,,,,,,,,,,,,
,,?,0.001625,0,,,,,,stimuli/images/PICTURE_509.png,APPLE,5eab13155a85f50c05f6e9f7,05/08/1947,2020-09-03_19h22.46.837,proactive2,2020.1.2,Win32,60,5f5126bb654d4b30ee6923d8,5f51340d9062f8337771b3d9,6,,,,,,telephone,,,,,,,,,,,4,2,0,1,1,38,1,,,,,,,,,,,,,
,,?,0.00179,0,,,,,,stimuli/images/PICTURE_123.png,SALE,5eab13155a85f50c05f6e9f7,05/08/1947,2020-09-03_19h22.46.837,proactive2,2020.1.2,Win32,60,5f5126bb654d4b30ee6923d8,5f51340d9062f8337771b3d9,6,,,,,,dart,,,,,,,,,,,1,2,0,2,2,8,1,,,,,,,,,,,,,
,,?,0.00159,0,,,,,,stimuli/images/PICTURE_509.png,MILLER,5eab13155a85f50c05f6e9f7,05/08/1947,2020-09-03_19h22.46.837,proactive2,2020.1.2,Win32,60,5f5126bb654d4b30ee6923d8,5f51340d9062f8337771b3d9,6,,,,,,telephone,,,,,,,,,,,5,2,0,3,3,49,1,,,,,,,,,,,,,
,,?,0.002485,0,,,,,,stimuli/images/PICTURE_405.png,HOUSE,5eab13155a85f50c05f6e9f7,05/08/1947,2020-09-03_19h22.46.837,proactive2,2020.1.2,Win32,60,5f5126bb654d4b30ee6923d8,5f51340d9062f8337771b3d9,6,,,,,,anchor,,,,,,,,,,,1,2,0,4,4,2,1,,,,,,,,,,,,,
,,?,0.00164,0,,,,,,stimuli/images/PICTURE_93.png,GIRL,5eab13155a85f50c05f6e9f7,05/08/1947,2020-09-03_19h22.46.837,proactive2,2020.1.2,Win32,60,5f5126bb654d4b30ee6923d8,5f51340d9062f8337771b3d9,6,,,,,,skateboard,,,,,,,,,,,4,2,0,5,5,31,1,,,,,,,,,,,,,
,,?,0.00407,0,,,,,,stimuli/images/PICTURE_654.png,COPS,5eab13155a85f50c05f6e9f7,05/08/1947,2020-09-03_19h22.46.837,proactive2,2020.1.2,Win32,60,5f5126bb654d4b30ee6923d8,5f51340d9062f8337771b3d9,6,,,,,,pencil,,,,,,,,,,,2,2,0,6,6,10,1,,,,,,,,,,,,,
,,?,0.001635,0,,,,,,stimuli/images/PICTURE_708.png,VALLEY,5eab13155a85f50c05f6e9f7,05/08/1947,2020-09-03_19h22.46.837,proactive2,2020.1.2,Win32,60,5f5126bb654d4b30ee6923d8,5f51340d9062f8337771b3d9,6,,,,,,monkey,,,,,,,,,,,5,2,0,7,7,45,1,,,,,,,,,,,,,
,,?,0.00169,0,,,,,,stimuli/images/PICTURE_147.png,LEADER,5eab13155a85f50c05f6e9f7,05/08/1947,2020-09-03_19h22.46.837,proactive2,2020.1.2,Win32,60,5f5126bb654d4b30ee6923d8,5f51340d9062f8337771b3d9,6,,,,,,hanger,,,,,,,,,,,4,2,0,8,8,33,1,,,,,,,,,,,,,
,,?,0.001865,0,,,,,,stimuli/images/PICTURE_487.png,POLICY,5eab13155a85f50c05f6e9f7,05/08/1947,2020-09-03_19h22.46.837,proactive2,2020.1.2,Win32,60,5f5126bb654d4b30ee6923d8,5f51340d9062f8337771b3d9,6,,,,,,basket,,,,,,,,,,,4,2,0,9,9,34,1,,,,,,,,,,,,,
,,TOILET,11.91754,1,,,,,,stimuli/images/PICTURE_311.png,TOILET,5eab13155a85f50c05f6e9f7,05/08/1947,2020-09-03_19h22.46.837,proactive2,2020.1.2,Win32,60,5f5126bb654d4b30ee6923d8,5f51340d9062f8337771b3d9,6,,,,,,razor,,,,,,,,,,,6,2,0,10,10,54,1,,,,,,,,,,,,,
,,?,0.00178,0,,,,,,stimuli/images/PICTURE_504.png,HOUSE,5eab13155a85f50c05f6e9f7,05/08/1947,2020-09-03_19h22.46.837,proactive2,2020.1.2,Win32,60,5f5126bb654d4b30ee6923d8,5f51340d9062f8337771b3d9,6,,,,,,wheel,,,,,,,,,,,4,2,0,11,11,36,1,,,,,,,,,,,,,
,,?,0.001915,0,,,,,,stimuli/images/PICTURE_215.png,BOYS,5eab13155a85f50c05f6e9f7,05/08/1947,2020-09-03_19h22.46.837,proactive2,2020.1.2,Win32,60,5f5126bb654d4b30ee6923d8,5f51340d9062f8337771b3d9,6,,,,,,boot,,,,,,,,,,,3,2,0,12,12,24,1,,,,,,,,,,,,,
,,BODY,5.00439,1,,,,,,stimuli/images/PICTURE_297.png,BODY,5eab13155a85f50c05f6e9f7,05/08/1947,2020-09-03_19h22.46.837,proactive2,2020.1.2,Win32,60,5f5126bb654d4b30ee6923d8,5f51340d9062f8337771b3d9,6,,,,,,aeroplane,,,,,,,,,,,6,2,0,13,13,51,1,,,,,,,,,,,,,
,,?,0.001845,0,,,,,,stimuli/images/PICTURE_208.png,SPIRIT,5eab13155a85f50c05f6e9f7,05/08/1947,2020-09-03_19h22.46.837,proactive2,2020.1.2,Win32,60,5f5126bb654d4b30ee6923d8,5f51340d9062f8337771b3d9,6,,,,,,microphone,,,,,,,,,,,3,2,0,14,14,28,1,,,,,,,,,,,,,
,,?,0.0015,0,,,,,,stimuli/images/PICTURE_667.png,GLASS,5eab13155a85f50c05f6e9f7,05/08/1947,2020-09-03_19h22.46.837,proactive2,2020.1.2,Win32,60,5f5126bb654d4b30ee6923d8,5f51340d9062f8337771b3d9,6,,,,,,daisy,,,,,,,,,,,3,2,0,15,15,27,1,,,,,,,,,,,,,
,,?,0.001565,0,,,,,,stimuli/images/PICTURE_453.png,FAMILY,5eab13155a85f50c05f6e9f7,05/08/1947,2020-09-03_19h22.46.837,proactive2,2020.1.2,Win32,60,5f5126bb654d4b30ee6923d8,5f51340d9062f8337771b3d9,6,,,,,,scissors,,,,,,,,,,,5,2,0,16,16,48,1,,,,,,,,,,,,,
,,?,0.002225,0,,,,,,stimuli/images/PICTURE_654.png,YEAR,5eab13155a85f50c05f6e9f7,05/08/1947,2020-09-03_19h22.46.837,proactive2,2020.1.2,Win32,60,5f5126bb654d4b30ee6923d8,5f51340d9062f8337771b3d9,6,,,,,,pencil,,,,,,,,,,,5,2,0,17,17,41,1,,,,,,,,,,,,,
,,?,0.001825,0,,,,,,stimuli/images/PICTURE_285.png,WRITER,5eab13155a85f50c05f6e9f7,05/08/1947,2020-09-03_19h22.46.837,proactive2,2020.1.2,Win32,60,5f5126bb654d4b30ee6923d8,5f51340d9062f8337771b3d9,6,,,,,,carrot,,,,,,,,,,,1,2,0,18,18,6,1,,,,,,,,,,,,,
,,?,0.001825,0,,,,,,stimuli/images/PICTURE_491.png,SERIES,5eab13155a85f50c05f6e9f7,05/08/1947,2020-09-03_19h22.46.837,proactive2,2020.1.2,Win32,60,5f5126bb654d4b30ee6923d8,5f51340d9062f8337771b3d9,6,,,,,,rug,,,,,,,,,,,4,2,0,19,19,39,1,,,,,,,,,,,,,
,,?,0.001615,0,,,,,,stimuli/images/PICTURE_470.png,BEAUTY,5eab13155a85f50c05f6e9f7,05/08/1947,2020-09-03_19h22.46.837,proactive2,2020.1.2,Win32,60,5f5126bb654d4b30ee6923d8,5f51340d9062f8337771b3d9,6,,,,,,motorbike,,,,,,,,,,,3,2,0,20,20,26,1,,,,,,,,,,,,,
,,YARD,5.106935,1,,,,,,stimuli/images/PICTURE_2.png,YARD,5eab13155a85f50c05f6e9f7,05/08/1947,2020-09-03_19h22.46.837,proactive2,2020.1.2,Win32,60,5f5126bb654d4b30ee6923d8,5f51340d9062f8337771b3d9,6,,,,,,tyre,,,,,,,,,,,6,2,0,21,21,55,1,,,,,,,,,,,,,
,,?,0.001945,0,,,,,,stimuli/images/PICTURE_160.png,HOTEL,5eab13155a85f50c05f6e9f7,05/08/1947,2020-09-03_19h22.46.837,proactive2,2020.1.2,Win32,60,5f5126bb654d4b30ee6923d8,5f51340d9062f8337771b3d9,6,,,,,,wheelbarrow,,,,,,,,,,,2,2,0,22,22,16,1,,,,,,,,,,,,,
,,?,0.0016,0,,,,,,stimuli/images/PICTURE_57.png,NATION,5eab13155a85f50c05f6e9f7,05/08/1947,2020-09-03_19h22.46.837,proactive2,2020.1.2,Win32,60,5f5126bb654d4b30ee6923d8,5f51340d9062f8337771b3d9,6,,,,,,stamp,,,,,,,,,,,3,2,0,23,23,21,1,,,,,,,,,,,,,
,,?,0.00165,0,,,,,,stimuli/images/PICTURE_677.png,PHOTO,5eab13155a85f50c05f6e9f7,05/08/1947,2020-09-03_19h22.46.837,proactive2,2020.1.2,Win32,60,5f5126bb654d4b30ee6923d8,5f51340d9062f8337771b3d9,6,,,,,,map,,,,,,,,,,,2,2,0,24,24,14,1,,,,,,,,,,,,,
,,?,0.001575,0,,,,,,stimuli/images/PICTURE_255.png,PENNY,5eab13155a85f50c05f6e9f7,05/08/1947,2020-09-03_19h22.46.837,proactive2,2020.1.2,Win32,60,5f5126bb654d4b30ee6923d8,5f51340d9062f8337771b3d9,6,,,,,,shovel,,,,,,,,,,,2,2,0,25,25,19,1,,,,,,,,,,,,,
,,?,0.001575,0,,,,,,stimuli/images/PICTURE_141.png,CLIENT,5eab13155a85f50c05f6e9f7,05/08/1947,2020-09-03_19h22.46.837,proactive2,2020.1.2,Win32,60,5f5126bb654d4b30ee6923d8,5f51340d9062f8337771b3d9,6,,,,,,sunflower,,,,,,,,,,,4,2,0,26,26,30,1,,,,,,,,,,,,,
,,?,0.001685,0,,,,,,stimuli/images/PICTURE_177.png,HOUSE,5eab13155a85f50c05f6e9f7,05/08/1947,2020-09-03_19h22.46.837,proactive2,2020.1.2,Win32,60,5f5126bb654d4b30ee6923d8,5f51340d9062f8337771b3d9,6,,,,,,mushroom,,,,,,,,,,,3,2,0,27,27,25,1,,,,,,,,,,,,,
,,JUNGLE,6.578925,1,,,,,,stimuli/images/PICTURE_405.png,JUNGLE,5eab13155a85f50c05f6e9f7,05/08/1947,2020-09-03_19h22.46.837,proactive2,2020.1.2,Win32,60,5f5126bb654d4b30ee6923d8,5f51340d9062f8337771b3d9,6,,,,,,anchor,,,,,,,,,,,6,2,0,28,28,58,1,,,,,,,,,,,,,
,,LETTER,5.263675,1,,,,,,stimuli/images/PICTURE_32.png,LETTER,5eab13155a85f50c05f6e9f7,05/08/1947,2020-09-03_19h22.46.837,proactive2,2020.1.2,Win32,60,5f5126bb654d4b30ee6923d8,5f51340d9062f8337771b3d9,6,,,,,,crown,,,,,,,,,,,6,2,0,29,29,56,1,,,,,,,,,,,,,
,,?,0.00187,0,,,,,,stimuli/images/PICTURE_405.png,JUNGLE,5eab13155a85f50c05f6e9f7,05/08/1947,2020-09-03_19h22.46.837,proactive2,2020.1.2,Win32,60,5f5126bb654d4b30ee6923d8,5f51340d9062f8337771b3d9,6,,,,,,anchor,,,,,,,,,,,2,2,0,30,30,13,1,,,,,,,,,,,,,
,,?,0.00211,0,,,,,,stimuli/images/PICTURE_509.png,BATH,5eab13155a85f50c05f6e9f7,05/08/1947,2020-09-03_19h22.46.837,proactive2,2020.1.2,Win32,60,5f5126bb654d4b30ee6923d8,5f51340d9062f8337771b3d9,6,,,,,,telephone,,,,,,,,,,,2,2,0,31,31,15,1,,,,,,,,,,,,,
,,?,0.00152,0,,,,,,stimuli/images/PICTURE_452.png,COPS,5eab13155a85f50c05f6e9f7,05/08/1947,2020-09-03_19h22.46.837,proactive2,2020.1.2,Win32,60,5f5126bb654d4b30ee6923d8,5f51340d9062f8337771b3d9,6,,,,,,watch,,,,,,,,,,,1,2,0,32,32,0,1,,,,,,,,,,,,,
,,SALE,4.40163,1,,,,,,stimuli/images/PICTURE_655.png,SALE,5eab13155a85f50c05f6e9f7,05/08/1947,2020-09-03_19h22.46.837,proactive2,2020.1.2,Win32,60,5f5126bb654d4b30ee6923d8,5f51340d9062f8337771b3d9,6,,,,,,megaphone,,,,,,,,,,,6,2,0,33,33,57,1,,,,,,,,,,,,,
,,DUDE,4.86888,0,,,,,,stimuli/images/PICTURE_57.png,CANDY,5eab13155a85f50c05f6e9f7,05/08/1947,2020-09-03_19h22.46.837,proactive2,2020.1.2,Win32,60,5f5126bb654d4b30ee6923d8,5f51340d9062f8337771b3d9,6,,,,,,stamp,,,,,,,,,,,6,2,0,34,34,52,1,,,,,,,,,,,,,
,,FAMILY,4.22865,1,,,,,,stimuli/images/PICTURE_677.png,FAMILY,5eab13155a85f50c05f6e9f7,05/08/1947,2020-09-03_19h22.46.837,proactive2,2020.1.2,Win32,60,5f5126bb654d4b30ee6923d8,5f51340d9062f8337771b3d9,6,,,,,,map,,,,,,,,,,,6,2,0,35,35,53,1,,,,,,,,,,,,,
,,?,0.001755,0,,,,,,stimuli/images/PICTURE_311.png,FLESH,5eab13155a85f50c05f6e9f7,05/08/1947,2020-09-03_19h22.46.837,proactive2,2020.1.2,Win32,60,5f5126bb654d4b30ee6923d8,5f51340d9062f8337771b3d9,6,,,,,,razor,,,,,,,,,,,1,2,0,36,36,3,1,,,,,,,,,,,,,
,,?,0.0016,0,,,,,,stimuli/images/PICTURE_564.png,PLENTY,5eab13155a85f50c05f6e9f7,05/08/1947,2020-09-03_19h22.46.837,proactive2,2020.1.2,Win32,60,5f5126bb654d4b30ee6923d8,5f51340d9062f8337771b3d9,6,,,,,,spoon,,,,,,,,,,,2,2,0,37,37,11,1,,,,,,,,,,,,,
,,?,0.00598,0,,,,,,stimuli/images/PICTURE_692.png,DUDE,5eab13155a85f50c05f6e9f7,05/08/1947,2020-09-03_19h22.46.837,proactive2,2020.1.2,Win32,60,5f5126bb654d4b30ee6923d8,5f51340d9062f8337771b3d9,6,,,,,,cherry,,,,,,,,,,,5,2,0,38,38,47,1,,,,,,,,,,,,,
,,?,0.001645,0,,,,,,stimuli/images/PICTURE_688.png,CLOCK,5eab13155a85f50c05f6e9f7,05/08/1947,2020-09-03_19h22.46.837,proactive2,2020.1.2,Win32,60,5f5126bb654d4b30ee6923d8,5f51340d9062f8337771b3d9,6,,,,,,runner,,,,,,,,,,,5,2,0,39,39,42,1,,,,,,,,,,,,,
,,?,0.00159,0,,,,,,stimuli/images/PICTURE_2.png,JUNGLE,5eab13155a85f50c05f6e9f7,05/08/1947,2020-09-03_19h22.46.837,proactive2,2020.1.2,Win32,60,5f5126bb654d4b30ee6923d8,5f51340d9062f8337771b3d9,6,,,,,,tyre,,,,,,,,,,,1,2,0,40,40,1,1,,,,,,,,,,,,,
,,?,0.00182,0,,,,,,stimuli/images/PICTURE_33.png,COPS,5eab13155a85f50c05f6e9f7,05/08/1947,2020-09-03_19h22.46.837,proactive2,2020.1.2,Win32,60,5f5126bb654d4b30ee6923d8,5f51340d9062f8337771b3d9,6,,,,,,frame,,,,,,,,,,,3,2,0,41,41,29,1,,,,,,,,,,,,,
,,?,0.001595,0,,,,,,stimuli/images/PICTURE_215.png,LEADER,5eab13155a85f50c05f6e9f7,05/08/1947,2020-09-03_19h22.46.837,proactive2,2020.1.2,Win32,60,5f5126bb654d4b30ee6923d8,5f51340d9062f8337771b3d9,6,,,,,,boot,,,,,,,,,,,5,2,0,42,42,43,1,,,,,,,,,,,,,
,,?,0.001775,0,,,,,,stimuli/images/PICTURE_68.png,KIND,5eab13155a85f50c05f6e9f7,05/08/1947,2020-09-03_19h22.46.837,proactive2,2020.1.2,Win32,60,5f5126bb654d4b30ee6923d8,5f51340d9062f8337771b3d9,6,,,,,,candle,,,,,,,,,,,3,2,0,43,43,23,1,,,,,,,,,,,,,
,,?,0.00161,0,,,,,,stimuli/images/PICTURE_296.png,CLOCK,5eab13155a85f50c05f6e9f7,05/08/1947,2020-09-03_19h22.46.837,proactive2,2020.1.2,Win32,60,5f5126bb654d4b30ee6923d8,5f51340d9062f8337771b3d9,6,,,,,,bolt,,,,,,,,,,,2,2,0,44,44,18,1,,,,,,,,,,,,,
,,?,0.001615,0,,,,,,stimuli/images/PICTURE_18.png,RIVER,5eab13155a85f50c05f6e9f7,05/08/1947,2020-09-03_19h22.46.837,proactive2,2020.1.2,Win32,60,5f5126bb654d4b30ee6923d8,5f51340d9062f8337771b3d9,6,,,,,,planet,,,,,,,,,,,3,2,0,45,45,22,1,,,,,,,,,,,,,
,,?,0.00158,0,,,,,,stimuli/images/PICTURE_215.png,FOOD,5eab13155a85f50c05f6e9f7,05/08/1947,2020-09-03_19h22.46.837,proactive2,2020.1.2,Win32,60,5f5126bb654d4b30ee6923d8,5f51340d9062f8337771b3d9,6,,,,,,boot,,,,,,,,,,,1,2,0,46,46,5,1,,,,,,,,,,,,,
,,?,0.001595,0,,,,,,stimuli/images/PICTURE_470.png,MOMENT,5eab13155a85f50c05f6e9f7,05/08/1947,2020-09-03_19h22.46.837,proactive2,2020.1.2,Win32,60,5f5126bb654d4b30ee6923d8,5f51340d9062f8337771b3d9,6,,,,,,motorbike,,,,,,,,,,,5,2,0,47,47,40,1,,,,,,,,,,,,,
,,?,0.00173,0,,,,,,stimuli/images/PICTURE_356.png,CANDY,5eab13155a85f50c05f6e9f7,05/08/1947,2020-09-03_19h22.46.837,proactive2,2020.1.2,Win32,60,5f5126bb654d4b30ee6923d8,5f51340d9062f8337771b3d9,6,,,,,,pawn,,,,,,,,,,,5,2,0,48,48,46,1,,,,,,,,,,,,,
,,?,0.001765,0,,,,,,stimuli/images/PICTURE_327.png,LEADER,5eab13155a85f50c05f6e9f7,05/08/1947,2020-09-03_19h22.46.837,proactive2,2020.1.2,Win32,60,5f5126bb654d4b30ee6923d8,5f51340d9062f8337771b3d9,6,,,,,,helmet,,,,,,,,,,,2,2,0,49,49,17,1,,,,,,,,,,,,,
,,DUDE,4.790495,1,,,,,,stimuli/images/PICTURE_348.png,DUDE,5eab13155a85f50c05f6e9f7,05/08/1947,2020-09-03_19h22.46.837,proactive2,2020.1.2,Win32,60,5f5126bb654d4b30ee6923d8,5f51340d9062f8337771b3d9,6,,,,,,pepper,,,,,,,,,,,6,2,0,50,50,59,1,,,,,,,,,,,,,
,,?,0.001585,0,,,,,,stimuli/images/PICTURE_750.png,POLICY,5eab13155a85f50c05f6e9f7,05/08/1947,2020-09-03_19h22.46.837,proactive2,2020.1.2,Win32,60,5f5126bb654d4b30ee6923d8,5f51340d9062f8337771b3d9,6,,,,,,kettle,,,,,,,,,,,5,2,0,51,51,44,1,,,,,,,,,,,,,
,,?,0.00174,0,,,,,,stimuli/images/PICTURE_509.png,SHOTS,5eab13155a85f50c05f6e9f7,05/08/1947,2020-09-03_19h22.46.837,proactive2,2020.1.2,Win32,60,5f5126bb654d4b30ee6923d8,5f51340d9062f8337771b3d9,6,,,,,,telephone,,,,,,,,,,,1,2,0,52,52,7,1,,,,,,,,,,,,,
,,?,0.001745,0,,,,,,stimuli/images/PICTURE_403.png,FAMILY,5eab13155a85f50c05f6e9f7,05/08/1947,2020-09-03_19h22.46.837,proactive2,2020.1.2,Win32,60,5f5126bb654d4b30ee6923d8,5f51340d9062f8337771b3d9,6,,,,,,cathedral,,,,,,,,,,,1,2,0,53,53,9,1,,,,,,,,,,,,,
,,?,0.00201,0,,,,,,stimuli/images/PICTURE_285.png,PRINCE,5eab13155a85f50c05f6e9f7,05/08/1947,2020-09-03_19h22.46.837,proactive2,2020.1.2,Win32,60,5f5126bb654d4b30ee6923d8,5f51340d9062f8337771b3d9,6,,,,,,carrot,,,,,,,,,,,3,2,0,54,54,20,1,,,,,,,,,,,,,
,,?,0.002,0,,,,,,stimuli/images/PICTURE_57.png,CASINO,5eab13155a85f50c05f6e9f7,05/08/1947,2020-09-03_19h22.46.837,proactive2,2020.1.2,Win32,60,5f5126bb654d4b30ee6923d8,5f51340d9062f8337771b3d9,6,,,,,,stamp,,,,,,,,,,,2,2,0,55,55,12,1,,,,,,,,,,,,,
,,?,0.0025,0,,,,,,stimuli/images/PICTURE_348.png,TOILET,5eab13155a85f50c05f6e9f7,05/08/1947,2020-09-03_19h22.46.837,proactive2,2020.1.2,Win32,60,5f5126bb654d4b30ee6923d8,5f51340d9062f8337771b3d9,6,,,,,,pepper,,,,,,,,,,,1,2,0,56,56,4,1,,,,,,,,,,,,,
,,?,0.00174,0,,,,,,stimuli/images/PICTURE_2.png,AREA,5eab13155a85f50c05f6e9f7,05/08/1947,2020-09-03_19h22.46.837,proactive2,2020.1.2,Win32,60,5f5126bb654d4b30ee6923d8,5f51340d9062f8337771b3d9,6,,,,,,tyre,,,,,,,,,,,4,2,0,57,57,32,1,,,,,,,,,,,,,
,,ROOF,3.947005,1,,,,,,stimuli/images/PICTURE_487.png,ROOF,5eab13155a85f50c05f6e9f7,05/08/1947,2020-09-03_19h22.46.837,proactive2,2020.1.2,Win32,60,5f5126bb654d4b30ee6923d8,5f51340d9062f8337771b3d9,6,,,,,,basket,,,,,,,,,,,6,2,0,58,58,50,1,,,,,,,,,,,,,
,,?,0.00172,0,,,,,,stimuli/images/PICTURE_314.png,SPEECH,5eab13155a85f50c05f6e9f7,05/08/1947,2020-09-03_19h22.46.837,proactive2,2020.1.2,Win32,60,5f5126bb654d4b30ee6923d8,5f51340d9062f8337771b3d9,6,,,,,,perfume,,,,,,,,,,,4,2,0,59,59,35,1,,,,,,,,,,,,,
,,,,,,,,,,,,5eab13155a85f50c05f6e9f7,05/08/1947,2020-09-03_19h22.46.837,proactive2,2020.1.2,Win32,60,5f5126bb654d4b30ee6923d8,5f51340d9062f8337771b3d9,6,,,,,,,,,,,,,,,,,,,,,,,,,,,,,,space,28.36672,0,0,0,0,1
,,,,,,,,,,stimuli/images/PICTURE_469.png,ARTIST,5eab13155a85f50c05f6e9f7,05/08/1947,2020-09-03_19h22.46.837,proactive2,2020.1.2,Win32,60,5f5126bb654d4b30ee6923d8,5f51340d9062f8337771b3d9,6,,,,,,stool,,,,,,0,0,0,6,1,1,0,,,,,,,,,,,,,,,,,,
,,,,,,,,,,stimuli/images/PICTURE_255.png,AREA,5eab13155a85f50c05f6e9f7,05/08/1947,2020-09-03_19h22.46.837,proactive2,2020.1.2,Win32,60,5f5126bb654d4b30ee6923d8,5f51340d9062f8337771b3d9,6,,,,,,shovel,,,,,,0,1,1,22,1,3,0,,,,,,,,,,,,,,,,,,
,,,,,,,,,,stimuli/images/PICTURE_688.png,CASINO,5eab13155a85f50c05f6e9f7,05/08/1947,2020-09-03_19h22.46.837,proactive2,2020.1.2,Win32,60,5f5126bb654d4b30ee6923d8,5f51340d9062f8337771b3d9,6,,,,,,runner,,,,,,0,2,2,2,1,1,0,,,,,,,,,,,,,,,,,,
,,,,,,,,,,stimuli/images/PICTURE_95.png,STYLE,5eab13155a85f50c05f6e9f7,05/08/1947,2020-09-03_19h22.46.837,proactive2,2020.1.2,Win32,60,5f5126bb654d4b30ee6923d8,5f51340d9062f8337771b3d9,6,,,,,,suitcase,,,,,,0,3,3,25,1,3,0,,,,,,,,,,,,,,,,,,
,,,,,,,,,,stimuli/images/PICTURE_677.png,MILE,5eab13155a85f50c05f6e9f7,05/08/1947,2020-09-03_19h22.46.837,proactive2,2020.1.2,Win32,60,5f5126bb654d4b30ee6923d8,5f51340d9062f8337771b3d9,6,,,,,,map,,,,,,0,4,4,30,1,4,0,,,,,,,,,,,,,,,,,,
,,,,,,,,,,stimuli/images/PICTURE_380.png,DEATH,5eab13155a85f50c05f6e9f7,05/08/1947,2020-09-03_19h22.46.837,proactive2,2020.1.2,Win32,60,5f5126bb654d4b30ee6923d8,5f51340d9062f8337771b3d9,6,,,,,,gorilla,,,,,,0,5,5,49,1,5,0,,,,,,,,,,,,,,,,,,
,,,,,,,,,,stimuli/images/PICTURE_449.png,THING,5eab13155a85f50c05f6e9f7,05/08/1947,2020-09-03_19h22.46.837,proactive2,2020.1.2,Win32,60,5f5126bb654d4b30ee6923d8,5f51340d9062f8337771b3d9,6,,,,,,bench,,,,,,0,6,6,59,1,6,0,,,,,,,,,,,,,,,,,,
,,,,,,,,,,stimuli/images/PICTURE_348.png,SPEECH,5eab13155a85f50c05f6e9f7,05/08/1947,2020-09-03_19h22.46.837,proactive2,2020.1.2,Win32,60,5f5126bb654d4b30ee6923d8,5f51340d9062f8337771b3d9,6,,,,,,pepper,,,,,,0,7,7,20,1,3,0,,,,,,,,,,,,,,,,,,
,,,,,,,,,,stimuli/images/PICTURE_160.png,LEADER,5eab13155a85f50c05f6e9f7,05/08/1947,2020-09-03_19h22.46.837,proactive2,2020.1.2,Win32,60,5f5126bb654d4b30ee6923d8,5f51340d9062f8337771b3d9,6,,,,,,wheelbarrow,,,,,,0,8,8,3,1,1,0,,,,,,,,,,,,,,,,,,
,,,,,,,,,,stimuli/images/PICTURE_327.png,BEAUTY,5eab13155a85f50c05f6e9f7,05/08/1947,2020-09-03_19h22.46.837,proactive2,2020.1.2,Win32,60,5f5126bb654d4b30ee6923d8,5f51340d9062f8337771b3d9,6,,,,,,helmet,,,,,,0,9,9,48,1,5,0,,,,,,,,,,,,,,,,,,
,,,,,,,,,,stimuli/images/PICTURE_123.png,ADVICE,5eab13155a85f50c05f6e9f7,05/08/1947,2020-09-03_19h22.46.837,proactive2,2020.1.2,Win32,60,5f5126bb654d4b30ee6923d8,5f51340d9062f8337771b3d9,6,,,,,,dart,,,,,,0,10,10,40,1,5,0,,,,,,,,,,,,,,,,,,
,,,,,,,,,,stimuli/images/PICTURE_285.png,ADVICE,5eab13155a85f50c05f6e9f7,05/08/1947,2020-09-03_19h22.46.837,proactive2,2020.1.2,Win32,60,5f5126bb654d4b30ee6923d8,5f51340d9062f8337771b3d9,6,,,,,,carrot,,,,,,0,11,11,12,1,2,0,,,,,,,,,,,,,,,,,,
,,,,,,,,,,stimuli/images/PICTURE_208.png,MONTH,5eab13155a85f50c05f6e9f7,05/08/1947,2020-09-03_19h22.46.837,proactive2,2020.1.2,Win32,60,5f5126bb654d4b30ee6923d8,5f51340d9062f8337771b3d9,6,,,,,,microphone,,,,,,0,12,12,53,1,6,0,,,,,,,,,,,,,,,,,,
,,,,,,,,,,stimuli/images/PICTURE_308.png,ESTATE,5eab13155a85f50c05f6e9f7,05/08/1947,2020-09-03_19h22.46.837,proactive2,2020.1.2,Win32,60,5f5126bb654d4b30ee6923d8,5f51340d9062f8337771b3d9,6,,,,,,dice,,,,,,0,13,13,46,1,5,0,,,,,,,,,,,,,,,,,,
,,,,,,,,,,stimuli/images/PICTURE_151.png,GIRL,5eab13155a85f50c05f6e9f7,05/08/1947,2020-09-03_19h22.46.837,proactive2,2020.1.2,Win32,60,5f5126bb654d4b30ee6923d8,5f51340d9062f8337771b3d9,6,,,,,,tray,,,,,,0,14,14,19,1,2,0,,,,,,,,,,,,,,,,,,
,,,,,,,,,,stimuli/images/PICTURE_708.png,PENNY,5eab13155a85f50c05f6e9f7,05/08/1947,2020-09-03_19h22.46.837,proactive2,2020.1.2,Win32,60,5f5126bb654d4b30ee6923d8,5f51340d9062f8337771b3d9,6,,,,,,monkey,,,,,,0,15,15,31,1,4,0,,,,,,,,,,,,,,,,,,
,,,,,,,,,,stimuli/images/PICTURE_667.png,PLENTY,5eab13155a85f50c05f6e9f7,05/08/1947,2020-09-03_19h22.46.837,proactive2,2020.1.2,Win32,60,5f5126bb654d4b30ee6923d8,5f51340d9062f8337771b3d9,6,,,,,,daisy,,,,,,0,16,16,41,1,5,0,,,,,,,,,,,,,,,,,,
,,,,,,,,,,stimuli/images/PICTURE_68.png,MILE,5eab13155a85f50c05f6e9f7,05/08/1947,2020-09-03_19h22.46.837,proactive2,2020.1.2,Win32,60,5f5126bb654d4b30ee6923d8,5f51340d9062f8337771b3d9,6,,,,,,candle,,,,,,0,17,17,44,1,5,0,,,,,,,,,,,,,,,,,,
,,,,,,,,,,stimuli/images/PICTURE_688.png,WOMEN,5eab13155a85f50c05f6e9f7,05/08/1947,2020-09-03_19h22.46.837,proactive2,2020.1.2,Win32,60,5f5126bb654d4b30ee6923d8,5f51340d9062f8337771b3d9,6,,,,,,runner,,,,,,0,18,18,14,1,2,0,,,,,,,,,,,,,,,,,,
,,,,,,,,,,stimuli/images/PICTURE_487.png,FLIGHT,5eab13155a85f50c05f6e9f7,05/08/1947,2020-09-03_19h22.46.837,proactive2,2020.1.2,Win32,60,5f5126bb654d4b30ee6923d8,5f51340d9062f8337771b3d9,6,,,,,,basket,,,,,,0,19,19,9,1,1,0,,,,,,,,,,,,,,,,,,
,,,,,,,,,,stimuli/images/PICTURE_675.png,WEAPON,5eab13155a85f50c05f6e9f7,05/08/1947,2020-09-03_19h22.46.837,proactive2,2020.1.2,Win32,60,5f5126bb654d4b30ee6923d8,5f51340d9062f8337771b3d9,6,,,,,,windmill,,,,,,0,20,20,32,1,4,0,,,,,,,,,,,,,,,,,,
,,,,,,,,,,stimuli/images/PICTURE_692.png,MONTH,5eab13155a85f50c05f6e9f7,05/08/1947,2020-09-03_19h22.46.837,proactive2,2020.1.2,Win32,60,5f5126bb654d4b30ee6923d8,5f51340d9062f8337771b3d9,6,,,,,,cherry,,,,,,0,21,21,16,1,2,0,,,,,,,,,,,,,,,,,,
,,,,,,,,,,stimuli/images/PICTURE_380.png,PHOTO,5eab13155a85f50c05f6e9f7,05/08/1947,2020-09-03_19h22.46.837,proactive2,2020.1.2,Win32,60,5f5126bb654d4b30ee6923d8,5f51340d9062f8337771b3d9,6,,,,,,gorilla,,,,,,0,22,22,52,1,6,0,,,,,,,,,,,,,,,,,,
,,,,,,,,,,stimuli/images/PICTURE_488.png,STYLE,5eab13155a85f50c05f6e9f7,05/08/1947,2020-09-03_19h22.46.837,proactive2,2020.1.2,Win32,60,5f5126bb654d4b30ee6923d8,5f51340d9062f8337771b3d9,6,,,,,,sun,,,,,,0,23,23,33,1,4,0,,,,,,,,,,,,,,,,,,
,,,,,,,,,,stimuli/images/PICTURE_744.png,SYSTEM,5eab13155a85f50c05f6e9f7,05/08/1947,2020-09-03_19h22.46.837,proactive2,2020.1.2,Win32,60,5f5126bb654d4b30ee6923d8,5f51340d9062f8337771b3d9,6,,,,,,ring,,,,,,0,24,24,43,1,5,0,,,,,,,,,,,,,,,,,,
,,,,,,,,,,stimuli/images/PICTURE_233.png,IDEAS,5eab13155a85f50c05f6e9f7,05/08/1947,2020-09-03_19h22.46.837,proactive2,2020.1.2,Win32,60,5f5126bb654d4b30ee6923d8,5f51340d9062f8337771b3d9,6,,,,,,salt,,,,,,0,25,25,28,1,3,0,,,,,,,,,,,,,,,,,,
,,,,,,,,,,stimuli/images/PICTURE_504.png,BODY,5eab13155a85f50c05f6e9f7,05/08/1947,2020-09-03_19h22.46.837,proactive2,2020.1.2,Win32,60,5f5126bb654d4b30ee6923d8,5f51340d9062f8337771b3d9,6,,,,,,wheel,,,,,,0,26,26,8,1,1,0,,,,,,,,,,,,,,,,,,
,,,,,,,,,,stimuli/images/PICTURE_744.png,SAKE,5eab13155a85f50c05f6e9f7,05/08/1947,2020-09-03_19h22.46.837,proactive2,2020.1.2,Win32,60,5f5126bb654d4b30ee6923d8,5f51340d9062f8337771b3d9,6,,,,,,ring,,,,,,0,27,27,17,1,2,0,,,,,,,,,,,,,,,,,,
,,,,,,,,,,stimuli/images/PICTURE_469.png,LETTER,5eab13155a85f50c05f6e9f7,05/08/1947,2020-09-03_19h22.46.837,proactive2,2020.1.2,Win32,60,5f5126bb654d4b30ee6923d8,5f51340d9062f8337771b3d9,6,,,,,,stool,,,,,,0,28,28,42,1,5,0,,,,,,,,,,,,,,,,,,
,,,,,,,,,,stimuli/images/PICTURE_203.png,ARTIST,5eab13155a85f50c05f6e9f7,05/08/1947,2020-09-03_19h22.46.837,proactive2,2020.1.2,Win32,60,5f5126bb654d4b30ee6923d8,5f51340d9062f8337771b3d9,6,,,,,,cap,,,,,,0,29,29,26,1,3,0,,,,,,,,,,,,,,,,,,
,,,,,,,,,,stimuli/images/PICTURE_147.png,MOMENT,5eab13155a85f50c05f6e9f7,05/08/1947,2020-09-03_19h22.46.837,proactive2,2020.1.2,Win32,60,5f5126bb654d4b30ee6923d8,5f51340d9062f8337771b3d9,6,,,,,,hanger,,,,,,0,30,30,51,1,6,0,,,,,,,,,,,,,,,,,,
,,,,,,,,,,stimuli/images/PICTURE_708.png,CLIENT,5eab13155a85f50c05f6e9f7,05/08/1947,2020-09-03_19h22.46.837,proactive2,2020.1.2,Win32,60,5f5126bb654d4b30ee6923d8,5f51340d9062f8337771b3d9,6,,,,,,monkey,,,,,,0,31,31,5,1,1,0,,,,,,,,,,,,,,,,,,
,,,,,,,,,,stimuli/images/PICTURE_32.png,JUNGLE,5eab13155a85f50c05f6e9f7,05/08/1947,2020-09-03_19h22.46.837,proactive2,2020.1.2,Win32,60,5f5126bb654d4b30ee6923d8,5f51340d9062f8337771b3d9,6,,,,,,crown,,,,,,0,32,32,45,1,5,0,,,,,,,,,,,,,,,,,,
,,,,,,,,,,stimuli/images/PICTURE_208.png,LOTS,5eab13155a85f50c05f6e9f7,05/08/1947,2020-09-03_19h22.46.837,proactive2,2020.1.2,Win32,60,5f5126bb654d4b30ee6923d8,5f51340d9062f8337771b3d9,6,,,,,,microphone,,,,,,0,33,33,10,1,2,0,,,,,,,,,,,,,,,,,,
,,,,,,,,,,stimuli/images/PICTURE_248.png,DOZEN,5eab13155a85f50c05f6e9f7,05/08/1947,2020-09-03_19h22.46.837,proactive2,2020.1.2,Win32,60,5f5126bb654d4b30ee6923d8,5f51340d9062f8337771b3d9,6,,,,,,cart,,,,,,0,34,34,39,1,4,0,,,,,,,,,,,,,,,,,,
