consent_key.keys,consent_key.rt,recalled,recalled_rt,recall_acc,example_recall.thisRepN,example_recall.thisTrialN,example_recall.thisN,example_recall.thisIndex,example_recall.ran,file,word,participant,please enter your date of birth (dd/mm/yyyy),date,expName,psychopyVersion,OS,frameRate,STUDY_ID,SESSION_ID,list,prac_learn_study_loop.thisRepN,prac_learn_study_loop.thisTrialN,prac_learn_study_loop.thisN,prac_learn_study_loop.thisIndex,prac_learn_study_loop.ran,image,prac_learn_test_loop.thisRepN,prac_learn_test_loop.thisTrialN,prac_learn_test_loop.thisN,prac_learn_test_loop.thisIndex,prac_learn_test_loop.ran,learn_study_loop.thisRepN,learn_study_loop.thisTrialN,learn_study_loop.thisN,learn_study_loop.thisIndex,learn_study_loop.ran,list_no,block_no,learn_test_loop.thisRepN,learn_test_loop.thisTrialN,learn_test_loop.thisN,learn_test_loop.thisIndex,learn_test_loop.ran,learn_blocks.thisRepN,learn_blocks.thisTrialN,learn_blocks.thisN,learn_blocks.thisIndex,learn_blocks.ran,block_csv,key_resp_13.keys,key_resp_13.rt,learn_blocks_loop.thisRepN,learn_blocks_loop.thisTrialN,learn_blocks_loop.thisN,learn_blocks_loop.thisIndex,learn_blocks_loop.ran,final_learn_test.thisRepN,final_learn_test.thisTrialN,final_learn_test.thisN,final_learn_test.thisIndex,final_learn_test.ran,s_im1,s_im2,s_im3,s_im4,s_im5,s_im6,s_im7,s_im8,s_im1pos,s_im2pos,s_im3pos,s_im4pos,s_im5pos,s_im6pos,s_im7pos,s_im8pos,s_tarright,search_resp.keys,search_loop.thisRepN,search_loop.thisTrialN,search_loop.thisN,search_loop.thisIndex,search_loop.ran,search_resp.rt,prac_wm_test_loop.thisRepN,prac_wm_test_loop.thisTrialN,prac_wm_test_loop.thisN,prac_wm_test_loop.thisIndex,prac_wm_test_loop.ran,wm_recalled1,wm_recall_rt1,wm_probed1,wm_recall_acc1,wm_recalled2,wm_recall_rt2,wm_probed2,wm_recall_acc2,wm_recalled3,wm_recall_rt3,wm_probed3,wm_recall_acc3,wm_recalled4,wm_recall_rt4,wm_probed4,wm_recall_acc4,prac_wm_trial_loop.thisRepN,prac_wm_trial_loop.thisTrialN,prac_wm_trial_loop.thisN,prac_wm_trial_loop.thisIndex,prac_wm_trial_loop.ran,word1,image1,file1,item_type1,word2,image2,file2,item_type2,word4,image4,file4,item_type4,word3,image3,file3,item_type3,wm_test_loop.thisRepN,wm_test_loop.thisTrialN,wm_test_loop.thisN,wm_test_loop.thisIndex,wm_test_loop.ran,wm_trial_loop.thisRepN,wm_trial_loop.thisTrialN,wm_trial_loop.thisN,wm_trial_loop.thisIndex,wm_trial_loop.ran
y,169.308825,TOUGH,6.3448,1,0,0,0,0,1,stimuli/images/PICTURE_747.png,TOUGH,5ead2b253bb47c3b40b94425,04/05/1991,2020-08-13_13h58.32.435,proactive2,2020.1.2,Win32,60,5f341be081b9052c55068110,5f3537400853f23053a59fc0,2,,,,,,,,,,,,,,,,,,,,,,,,,,,,,,,,,,,,,,,,,,,,,,,,,,,,,,,,,,,,,,,,,,,,,,,,,,,,,,,,,,,,,,,,,,,,,,,,,,,,,,,,,,,,,,,,,,,,,
,,,,,,,,,,stimuli/images/PICTURE_269.png,GENIUS,5ead2b253bb47c3b40b94425,04/05/1991,2020-08-13_13h58.32.435,proactive2,2020.1.2,Win32,60,5f341be081b9052c55068110,5f3537400853f23053a59fc0,2,0,0,0,0,1,chameleon,,,,,,,,,,,,,,,,,,,,,,,,,,,,,,,,,,,,,,,,,,,,,,,,,,,,,,,,,,,,,,,,,,,,,,,,,,,,,,,,,,,,,,,,,,,,,,,,,,,,,,,,,,,,,,,
,,,,,,,,,,stimuli/images/PICTURE_727.png,CELL,5ead2b253bb47c3b40b94425,04/05/1991,2020-08-13_13h58.32.435,proactive2,2020.1.2,Win32,60,5f341be081b9052c55068110,5f3537400853f23053a59fc0,2,0,1,1,1,1,hose,,,,,,,,,,,,,,,,,,,,,,,,,,,,,,,,,,,,,,,,,,,,,,,,,,,,,,,,,,,,,,,,,,,,,,,,,,,,,,,,,,,,,,,,,,,,,,,,,,,,,,,,,,,,,,,
,,,,,,,,,,stimuli/images/PICTURE_378.png,LOSS,5ead2b253bb47c3b40b94425,04/05/1991,2020-08-13_13h58.32.435,proactive2,2020.1.2,Win32,60,5f341be081b9052c55068110,5f3537400853f23053a59fc0,2,0,2,2,2,1,lobster,,,,,,,,,,,,,,,,,,,,,,,,,,,,,,,,,,,,,,,,,,,,,,,,,,,,,,,,,,,,,,,,,,,,,,,,,,,,,,,,,,,,,,,,,,,,,,,,,,,,,,,,,,,,,,,
,,,,,,,,,,stimuli/images/PICTURE_697.png,KILLER,5ead2b253bb47c3b40b94425,04/05/1991,2020-08-13_13h58.32.435,proactive2,2020.1.2,Win32,60,5f341be081b9052c55068110,5f3537400853f23053a59fc0,2,0,3,3,4,1,peach,,,,,,,,,,,,,,,,,,,,,,,,,,,,,,,,,,,,,,,,,,,,,,,,,,,,,,,,,,,,,,,,,,,,,,,,,,,,,,,,,,,,,,,,,,,,,,,,,,,,,,,,,,,,,,,
,,LOSS,6.647285,1,,,,,,stimuli/images/PICTURE_378.png,LOSS,5ead2b253bb47c3b40b94425,04/05/1991,2020-08-13_13h58.32.435,proactive2,2020.1.2,Win32,60,5f341be081b9052c55068110,5f3537400853f23053a59fc0,2,,,,,,lobster,0,0,0,2,1,,,,,,,,,,,,,,,,,,,,,,,,,,,,,,,,,,,,,,,,,,,,,,,,,,,,,,,,,,,,,,,,,,,,,,,,,,,,,,,,,,,,,,,,,,,,,,,,,,,,,,,,,,
,,DEVIL,5.98399,1,,,,,,stimuli/images/PICTURE_658.png,DEVIL,5ead2b253bb47c3b40b94425,04/05/1991,2020-08-13_13h58.32.435,proactive2,2020.1.2,Win32,60,5f341be081b9052c55068110,5f3537400853f23053a59fc0,2,,,,,,crow,0,1,1,3,1,,,,,,,,,,,,,,,,,,,,,,,,,,,,,,,,,,,,,,,,,,,,,,,,,,,,,,,,,,,,,,,,,,,,,,,,,,,,,,,,,,,,,,,,,,,,,,,,,,,,,,,,,,
,,GENIUS,3.504675,1,,,,,,stimuli/images/PICTURE_269.png,GENIUS,5ead2b253bb47c3b40b94425,04/05/1991,2020-08-13_13h58.32.435,proactive2,2020.1.2,Win32,60,5f341be081b9052c55068110,5f3537400853f23053a59fc0,2,,,,,,chameleon,0,2,2,0,1,,,,,,,,,,,,,,,,,,,,,,,,,,,,,,,,,,,,,,,,,,,,,,,,,,,,,,,,,,,,,,,,,,,,,,,,,,,,,,,,,,,,,,,,,,,,,,,,,,,,,,,,,,
,,KILLER,4.815585,1,,,,,,stimuli/images/PICTURE_697.png,KILLER,5ead2b253bb47c3b40b94425,04/05/1991,2020-08-13_13h58.32.435,proactive2,2020.1.2,Win32,60,5f341be081b9052c55068110,5f3537400853f23053a59fc0,2,,,,,,peach,0,3,3,4,1,,,,,,,,,,,,,,,,,,,,,,,,,,,,,,,,,,,,,,,,,,,,,,,,,,,,,,,,,,,,,,,,,,,,,,,,,,,,,,,,,,,,,,,,,,,,,,,,,,,,,,,,,,
,,CELL,5.68244,1,,,,,,stimuli/images/PICTURE_727.png,CELL,5ead2b253bb47c3b40b94425,04/05/1991,2020-08-13_13h58.32.435,proactive2,2020.1.2,Win32,60,5f341be081b9052c55068110,5f3537400853f23053a59fc0,2,,,,,,hose,0,4,4,1,1,,,,,,,,,,,,,,,,,,,,,,,,,,,,,,,,,,,,,,,,,,,,,,,,,,,,,,,,,,,,,,,,,,,,,,,,,,,,,,,,,,,,,,,,,,,,,,,,,,,,,,,,,,
,,,,,,,,,,stimuli/images/PICTURE_296.png,CLOCK,5ead2b253bb47c3b40b94425,04/05/1991,2020-08-13_13h58.32.435,proactive2,2020.1.2,Win32,60,5f341be081b9052c55068110,5f3537400853f23053a59fc0,2,,,,,,bolt,,,,,,0,0,0,18,1,2,2,,,,,,,,,,,,,,,,,,,,,,,,,,,,,,,,,,,,,,,,,,,,,,,,,,,,,,,,,,,,,,,,,,,,,,,,,,,,,,,,,,,,,,,,,,,,,,,,,,,
,,,,,,,,,,stimuli/images/PICTURE_470.png,MOMENT,5ead2b253bb47c3b40b94425,04/05/1991,2020-08-13_13h58.32.435,proactive2,2020.1.2,Win32,60,5f341be081b9052c55068110,5f3537400853f23053a59fc0,2,,,,,,motorbike,,,,,,0,1,1,40,1,5,2,,,,,,,,,,,,,,,,,,,,,,,,,,,,,,,,,,,,,,,,,,,,,,,,,,,,,,,,,,,,,,,,,,,,,,,,,,,,,,,,,,,,,,,,,,,,,,,,,,,
,,,,,,,,,,stimuli/images/PICTURE_452.png,COPS,5ead2b253bb47c3b40b94425,04/05/1991,2020-08-13_13h58.32.435,proactive2,2020.1.2,Win32,60,5f341be081b9052c55068110,5f3537400853f23053a59fc0,2,,,,,,watch,,,,,,0,2,2,0,1,1,2,,,,,,,,,,,,,,,,,,,,,,,,,,,,,,,,,,,,,,,,,,,,,,,,,,,,,,,,,,,,,,,,,,,,,,,,,,,,,,,,,,,,,,,,,,,,,,,,,,,
,,,,,,,,,,stimuli/images/PICTURE_255.png,PENNY,5ead2b253bb47c3b40b94425,04/05/1991,2020-08-13_13h58.32.435,proactive2,2020.1.2,Win32,60,5f341be081b9052c55068110,5f3537400853f23053a59fc0,2,,,,,,shovel,,,,,,0,3,3,19,1,2,2,,,,,,,,,,,,,,,,,,,,,,,,,,,,,,,,,,,,,,,,,,,,,,,,,,,,,,,,,,,,,,,,,,,,,,,,,,,,,,,,,,,,,,,,,,,,,,,,,,,
,,,,,,,,,,stimuli/images/PICTURE_327.png,LEADER,5ead2b253bb47c3b40b94425,04/05/1991,2020-08-13_13h58.32.435,proactive2,2020.1.2,Win32,60,5f341be081b9052c55068110,5f3537400853f23053a59fc0,2,,,,,,helmet,,,,,,0,4,4,17,1,2,2,,,,,,,,,,,,,,,,,,,,,,,,,,,,,,,,,,,,,,,,,,,,,,,,,,,,,,,,,,,,,,,,,,,,,,,,,,,,,,,,,,,,,,,,,,,,,,,,,,,
,,,,,,,,,,stimuli/images/PICTURE_403.png,FAMILY,5ead2b253bb47c3b40b94425,04/05/1991,2020-08-13_13h58.32.435,proactive2,2020.1.2,Win32,60,5f341be081b9052c55068110,5f3537400853f23053a59fc0,2,,,,,,cathedral,,,,,,0,5,5,9,1,1,2,,,,,,,,,,,,,,,,,,,,,,,,,,,,,,,,,,,,,,,,,,,,,,,,,,,,,,,,,,,,,,,,,,,,,,,,,,,,,,,,,,,,,,,,,,,,,,,,,,,
,,,,,,,,,,stimuli/images/PICTURE_688.png,CLOCK,5ead2b253bb47c3b40b94425,04/05/1991,2020-08-13_13h58.32.435,proactive2,2020.1.2,Win32,60,5f341be081b9052c55068110,5f3537400853f23053a59fc0,2,,,,,,runner,,,,,,0,6,6,42,1,5,2,,,,,,,,,,,,,,,,,,,,,,,,,,,,,,,,,,,,,,,,,,,,,,,,,,,,,,,,,,,,,,,,,,,,,,,,,,,,,,,,,,,,,,,,,,,,,,,,,,,
,,,,,,,,,,stimuli/images/PICTURE_314.png,SPEECH,5ead2b253bb47c3b40b94425,04/05/1991,2020-08-13_13h58.32.435,proactive2,2020.1.2,Win32,60,5f341be081b9052c55068110,5f3537400853f23053a59fc0,2,,,,,,perfume,,,,,,0,7,7,35,1,4,2,,,,,,,,,,,,,,,,,,,,,,,,,,,,,,,,,,,,,,,,,,,,,,,,,,,,,,,,,,,,,,,,,,,,,,,,,,,,,,,,,,,,,,,,,,,,,,,,,,,
,,,,,,,,,,stimuli/images/PICTURE_750.png,POLICY,5ead2b253bb47c3b40b94425,04/05/1991,2020-08-13_13h58.32.435,proactive2,2020.1.2,Win32,60,5f341be081b9052c55068110,5f3537400853f23053a59fc0,2,,,,,,kettle,,,,,,0,8,8,44,1,5,2,,,,,,,,,,,,,,,,,,,,,,,,,,,,,,,,,,,,,,,,,,,,,,,,,,,,,,,,,,,,,,,,,,,,,,,,,,,,,,,,,,,,,,,,,,,,,,,,,,,
,,,,,,,,,,stimuli/images/PICTURE_654.png,COPS,5ead2b253bb47c3b40b94425,04/05/1991,2020-08-13_13h58.32.435,proactive2,2020.1.2,Win32,60,5f341be081b9052c55068110,5f3537400853f23053a59fc0,2,,,,,,pencil,,,,,,0,9,9,10,1,2,2,,,,,,,,,,,,,,,,,,,,,,,,,,,,,,,,,,,,,,,,,,,,,,,,,,,,,,,,,,,,,,,,,,,,,,,,,,,,,,,,,,,,,,,,,,,,,,,,,,,
,,,,,,,,,,stimuli/images/PICTURE_491.png,SERIES,5ead2b253bb47c3b40b94425,04/05/1991,2020-08-13_13h58.32.435,proactive2,2020.1.2,Win32,60,5f341be081b9052c55068110,5f3537400853f23053a59fc0,2,,,,,,rug,,,,,,0,10,10,39,1,4,2,,,,,,,,,,,,,,,,,,,,,,,,,,,,,,,,,,,,,,,,,,,,,,,,,,,,,,,,,,,,,,,,,,,,,,,,,,,,,,,,,,,,,,,,,,,,,,,,,,,
,,,,,,,,,,stimuli/images/PICTURE_285.png,PRINCE,5ead2b253bb47c3b40b94425,04/05/1991,2020-08-13_13h58.32.435,proactive2,2020.1.2,Win32,60,5f341be081b9052c55068110,5f3537400853f23053a59fc0,2,,,,,,carrot,,,,,,0,11,11,20,1,3,2,,,,,,,,,,,,,,,,,,,,,,,,,,,,,,,,,,,,,,,,,,,,,,,,,,,,,,,,,,,,,,,,,,,,,,,,,,,,,,,,,,,,,,,,,,,,,,,,,,,
,,,,,,,,,,stimuli/images/PICTURE_18.png,RIVER,5ead2b253bb47c3b40b94425,04/05/1991,2020-08-13_13h58.32.435,proactive2,2020.1.2,Win32,60,5f341be081b9052c55068110,5f3537400853f23053a59fc0,2,,,,,,planet,,,,,,0,12,12,22,1,3,2,,,,,,,,,,,,,,,,,,,,,,,,,,,,,,,,,,,,,,,,,,,,,,,,,,,,,,,,,,,,,,,,,,,,,,,,,,,,,,,,,,,,,,,,,,,,,,,,,,,
,,,,,,,,,,stimuli/images/PICTURE_215.png,LEADER,5ead2b253bb47c3b40b94425,04/05/1991,2020-08-13_13h58.32.435,proactive2,2020.1.2,Win32,60,5f341be081b9052c55068110,5f3537400853f23053a59fc0,2,,,,,,boot,,,,,,0,13,13,43,1,5,2,,,,,,,,,,,,,,,,,,,,,,,,,,,,,,,,,,,,,,,,,,,,,,,,,,,,,,,,,,,,,,,,,,,,,,,,,,,,,,,,,,,,,,,,,,,,,,,,,,,
,,,,,,,,,,stimuli/images/PICTURE_348.png,TOILET,5ead2b253bb47c3b40b94425,04/05/1991,2020-08-13_13h58.32.435,proactive2,2020.1.2,Win32,60,5f341be081b9052c55068110,5f3537400853f23053a59fc0,2,,,,,,pepper,,,,,,0,14,14,4,1,1,2,,,,,,,,,,,,,,,,,,,,,,,,,,,,,,,,,,,,,,,,,,,,,,,,,,,,,,,,,,,,,,,,,,,,,,,,,,,,,,,,,,,,,,,,,,,,,,,,,,,
,,,,,,,,,,stimuli/images/PICTURE_667.png,GLASS,5ead2b253bb47c3b40b94425,04/05/1991,2020-08-13_13h58.32.435,proactive2,2020.1.2,Win32,60,5f341be081b9052c55068110,5f3537400853f23053a59fc0,2,,,,,,daisy,,,,,,0,15,15,27,1,3,2,,,,,,,,,,,,,,,,,,,,,,,,,,,,,,,,,,,,,,,,,,,,,,,,,,,,,,,,,,,,,,,,,,,,,,,,,,,,,,,,,,,,,,,,,,,,,,,,,,,
,,,,,,,,,,stimuli/images/PICTURE_311.png,TOILET,5ead2b253bb47c3b40b94425,04/05/1991,2020-08-13_13h58.32.435,proactive2,2020.1.2,Win32,60,5f341be081b9052c55068110,5f3537400853f23053a59fc0,2,,,,,,razor,,,,,,0,16,16,54,1,6,2,,,,,,,,,,,,,,,,,,,,,,,,,,,,,,,,,,,,,,,,,,,,,,,,,,,,,,,,,,,,,,,,,,,,,,,,,,,,,,,,,,,,,,,,,,,,,,,,,,,
,,,,,,,,,,stimuli/images/PICTURE_123.png,SALE,5ead2b253bb47c3b40b94425,04/05/1991,2020-08-13_13h58.32.435,proactive2,2020.1.2,Win32,60,5f341be081b9052c55068110,5f3537400853f23053a59fc0,2,,,,,,dart,,,,,,0,17,17,8,1,1,2,,,,,,,,,,,,,,,,,,,,,,,,,,,,,,,,,,,,,,,,,,,,,,,,,,,,,,,,,,,,,,,,,,,,,,,,,,,,,,,,,,,,,,,,,,,,,,,,,,,
,,,,,,,,,,stimuli/images/PICTURE_297.png,BODY,5ead2b253bb47c3b40b94425,04/05/1991,2020-08-13_13h58.32.435,proactive2,2020.1.2,Win32,60,5f341be081b9052c55068110,5f3537400853f23053a59fc0,2,,,,,,aeroplane,,,,,,0,18,18,51,1,6,2,,,,,,,,,,,,,,,,,,,,,,,,,,,,,,,,,,,,,,,,,,,,,,,,,,,,,,,,,,,,,,,,,,,,,,,,,,,,,,,,,,,,,,,,,,,,,,,,,,,
,,,,,,,,,,stimuli/images/PICTURE_32.png,LETTER,5ead2b253bb47c3b40b94425,04/05/1991,2020-08-13_13h58.32.435,proactive2,2020.1.2,Win32,60,5f341be081b9052c55068110,5f3537400853f23053a59fc0,2,,,,,,crown,,,,,,0,19,19,56,1,6,2,,,,,,,,,,,,,,,,,,,,,,,,,,,,,,,,,,,,,,,,,,,,,,,,,,,,,,,,,,,,,,,,,,,,,,,,,,,,,,,,,,,,,,,,,,,,,,,,,,,
,,,,,,,,,,stimuli/images/PICTURE_692.png,DUDE,5ead2b253bb47c3b40b94425,04/05/1991,2020-08-13_13h58.32.435,proactive2,2020.1.2,Win32,60,5f341be081b9052c55068110,5f3537400853f23053a59fc0,2,,,,,,cherry,,,,,,0,20,20,47,1,5,2,,,,,,,,,,,,,,,,,,,,,,,,,,,,,,,,,,,,,,,,,,,,,,,,,,,,,,,,,,,,,,,,,,,,,,,,,,,,,,,,,,,,,,,,,,,,,,,,,,,
,,,,,,,,,,stimuli/images/PICTURE_708.png,VALLEY,5ead2b253bb47c3b40b94425,04/05/1991,2020-08-13_13h58.32.435,proactive2,2020.1.2,Win32,60,5f341be081b9052c55068110,5f3537400853f23053a59fc0,2,,,,,,monkey,,,,,,0,21,21,45,1,5,2,,,,,,,,,,,,,,,,,,,,,,,,,,,,,,,,,,,,,,,,,,,,,,,,,,,,,,,,,,,,,,,,,,,,,,,,,,,,,,,,,,,,,,,,,,,,,,,,,,,
,,,,,,,,,,stimuli/images/PICTURE_405.png,HOUSE,5ead2b253bb47c3b40b94425,04/05/1991,2020-08-13_13h58.32.435,proactive2,2020.1.2,Win32,60,5f341be081b9052c55068110,5f3537400853f23053a59fc0,2,,,,,,anchor,,,,,,0,22,22,2,1,1,2,,,,,,,,,,,,,,,,,,,,,,,,,,,,,,,,,,,,,,,,,,,,,,,,,,,,,,,,,,,,,,,,,,,,,,,,,,,,,,,,,,,,,,,,,,,,,,,,,,,
,,,,,,,,,,stimuli/images/PICTURE_509.png,BATH,5ead2b253bb47c3b40b94425,04/05/1991,2020-08-13_13h58.32.435,proactive2,2020.1.2,Win32,60,5f341be081b9052c55068110,5f3537400853f23053a59fc0,2,,,,,,telephone,,,,,,0,23,23,15,1,2,2,,,,,,,,,,,,,,,,,,,,,,,,,,,,,,,,,,,,,,,,,,,,,,,,,,,,,,,,,,,,,,,,,,,,,,,,,,,,,,,,,,,,,,,,,,,,,,,,,,,
,,,,,,,,,,stimuli/images/PICTURE_509.png,SHOTS,5ead2b253bb47c3b40b94425,04/05/1991,2020-08-13_13h58.32.435,proactive2,2020.1.2,Win32,60,5f341be081b9052c55068110,5f3537400853f23053a59fc0,2,,,,,,telephone,,,,,,0,24,24,7,1,1,2,,,,,,,,,,,,,,,,,,,,,,,,,,,,,,,,,,,,,,,,,,,,,,,,,,,,,,,,,,,,,,,,,,,,,,,,,,,,,,,,,,,,,,,,,,,,,,,,,,,
,,,,,,,,,,stimuli/images/PICTURE_504.png,HOUSE,5ead2b253bb47c3b40b94425,04/05/1991,2020-08-13_13h58.32.435,proactive2,2020.1.2,Win32,60,5f341be081b9052c55068110,5f3537400853f23053a59fc0,2,,,,,,wheel,,,,,,0,25,25,36,1,4,2,,,,,,,,,,,,,,,,,,,,,,,,,,,,,,,,,,,,,,,,,,,,,,,,,,,,,,,,,,,,,,,,,,,,,,,,,,,,,,,,,,,,,,,,,,,,,,,,,,,
,,,,,,,,,,stimuli/images/PICTURE_509.png,APPLE,5ead2b253bb47c3b40b94425,04/05/1991,2020-08-13_13h58.32.435,proactive2,2020.1.2,Win32,60,5f341be081b9052c55068110,5f3537400853f23053a59fc0,2,,,,,,telephone,,,,,,0,26,26,38,1,4,2,,,,,,,,,,,,,,,,,,,,,,,,,,,,,,,,,,,,,,,,,,,,,,,,,,,,,,,,,,,,,,,,,,,,,,,,,,,,,,,,,,,,,,,,,,,,,,,,,,,
,,,,,,,,,,stimuli/images/PICTURE_509.png,MILLER,5ead2b253bb47c3b40b94425,04/05/1991,2020-08-13_13h58.32.435,proactive2,2020.1.2,Win32,60,5f341be081b9052c55068110,5f3537400853f23053a59fc0,2,,,,,,telephone,,,,,,0,27,27,49,1,5,2,,,,,,,,,,,,,,,,,,,,,,,,,,,,,,,,,,,,,,,,,,,,,,,,,,,,,,,,,,,,,,,,,,,,,,,,,,,,,,,,,,,,,,,,,,,,,,,,,,,
,,,,,,,,,,stimuli/images/PICTURE_208.png,SPIRIT,5ead2b253bb47c3b40b94425,04/05/1991,2020-08-13_13h58.32.435,proactive2,2020.1.2,Win32,60,5f341be081b9052c55068110,5f3537400853f23053a59fc0,2,,,,,,microphone,,,,,,0,28,28,28,1,3,2,,,,,,,,,,,,,,,,,,,,,,,,,,,,,,,,,,,,,,,,,,,,,,,,,,,,,,,,,,,,,,,,,,,,,,,,,,,,,,,,,,,,,,,,,,,,,,,,,,,
,,,,,,,,,,stimuli/images/PICTURE_405.png,JUNGLE,5ead2b253bb47c3b40b94425,04/05/1991,2020-08-13_13h58.32.435,proactive2,2020.1.2,Win32,60,5f341be081b9052c55068110,5f3537400853f23053a59fc0,2,,,,,,anchor,,,,,,0,29,29,58,1,6,2,,,,,,,,,,,,,,,,,,,,,,,,,,,,,,,,,,,,,,,,,,,,,,,,,,,,,,,,,,,,,,,,,,,,,,,,,,,,,,,,,,,,,,,,,,,,,,,,,,,
,,,,,,,,,,stimuli/images/PICTURE_405.png,JUNGLE,5ead2b253bb47c3b40b94425,04/05/1991,2020-08-13_13h58.32.435,proactive2,2020.1.2,Win32,60,5f341be081b9052c55068110,5f3537400853f23053a59fc0,2,,,,,,anchor,,,,,,0,30,30,13,1,2,2,,,,,,,,,,,,,,,,,,,,,,,,,,,,,,,,,,,,,,,,,,,,,,,,,,,,,,,,,,,,,,,,,,,,,,,,,,,,,,,,,,,,,,,,,,,,,,,,,,,
,,,,,,,,,,stimuli/images/PICTURE_93.png,GIRL,5ead2b253bb47c3b40b94425,04/05/1991,2020-08-13_13h58.32.435,proactive2,2020.1.2,Win32,60,5f341be081b9052c55068110,5f3537400853f23053a59fc0,2,,,,,,skateboard,,,,,,0,31,31,31,1,4,2,,,,,,,,,,,,,,,,,,,,,,,,,,,,,,,,,,,,,,,,,,,,,,,,,,,,,,,,,,,,,,,,,,,,,,,,,,,,,,,,,,,,,,,,,,,,,,,,,,,
,,,,,,,,,,stimuli/images/PICTURE_356.png,CANDY,5ead2b253bb47c3b40b94425,04/05/1991,2020-08-13_13h58.32.435,proactive2,2020.1.2,Win32,60,5f341be081b9052c55068110,5f3537400853f23053a59fc0,2,,,,,,pawn,,,,,,0,32,32,46,1,5,2,,,,,,,,,,,,,,,,,,,,,,,,,,,,,,,,,,,,,,,,,,,,,,,,,,,,,,,,,,,,,,,,,,,,,,,,,,,,,,,,,,,,,,,,,,,,,,,,,,,
,,,,,,,,,,stimuli/images/PICTURE_33.png,COPS,5ead2b253bb47c3b40b94425,04/05/1991,2020-08-13_13h58.32.435,proactive2,2020.1.2,Win32,60,5f341be081b9052c55068110,5f3537400853f23053a59fc0,2,,,,,,frame,,,,,,0,33,33,29,1,3,2,,,,,,,,,,,,,,,,,,,,,,,,,,,,,,,,,,,,,,,,,,,,,,,,,,,,,,,,,,,,,,,,,,,,,,,,,,,,,,,,,,,,,,,,,,,,,,,,,,,
,,,,,,,,,,stimuli/images/PICTURE_487.png,ROOF,5ead2b253bb47c3b40b94425,04/05/1991,2020-08-13_13h58.32.435,proactive2,2020.1.2,Win32,60,5f341be081b9052c55068110,5f3537400853f23053a59fc0,2,,,,,,basket,,,,,,0,34,34,50,1,6,2,,,,,,,,,,,,,,,,,,,,,,,,,,,,,,,,,,,,,,,,,,,,,,,,,,,,,,,,,,,,,,,,,,,,,,,,,,,,,,,,,,,,,,,,,,,,,,,,,,,
,,,,,,,,,,stimuli/images/PICTURE_655.png,SALE,5ead2b253bb47c3b40b94425,04/05/1991,2020-08-13_13h58.32.435,proactive2,2020.1.2,Win32,60,5f341be081b9052c55068110,5f3537400853f23053a59fc0,2,,,,,,megaphone,,,,,,0,35,35,57,1,6,2,,,,,,,,,,,,,,,,,,,,,,,,,,,,,,,,,,,,,,,,,,,,,,,,,,,,,,,,,,,,,,,,,,,,,,,,,,,,,,,,,,,,,,,,,,,,,,,,,,,
,,,,,,,,,,stimuli/images/PICTURE_57.png,NATION,5ead2b253bb47c3b40b94425,04/05/1991,2020-08-13_13h58.32.435,proactive2,2020.1.2,Win32,60,5f341be081b9052c55068110,5f3537400853f23053a59fc0,2,,,,,,stamp,,,,,,0,36,36,21,1,3,2,,,,,,,,,,,,,,,,,,,,,,,,,,,,,,,,,,,,,,,,,,,,,,,,,,,,,,,,,,,,,,,,,,,,,,,,,,,,,,,,,,,,,,,,,,,,,,,,,,,
,,,,,,,,,,stimuli/images/PICTURE_177.png,HOUSE,5ead2b253bb47c3b40b94425,04/05/1991,2020-08-13_13h58.32.435,proactive2,2020.1.2,Win32,60,5f341be081b9052c55068110,5f3537400853f23053a59fc0,2,,,,,,mushroom,,,,,,0,37,37,25,1,3,2,,,,,,,,,,,,,,,,,,,,,,,,,,,,,,,,,,,,,,,,,,,,,,,,,,,,,,,,,,,,,,,,,,,,,,,,,,,,,,,,,,,,,,,,,,,,,,,,,,,
,,,,,,,,,,stimuli/images/PICTURE_160.png,HOTEL,5ead2b253bb47c3b40b94425,04/05/1991,2020-08-13_13h58.32.435,proactive2,2020.1.2,Win32,60,5f341be081b9052c55068110,5f3537400853f23053a59fc0,2,,,,,,wheelbarrow,,,,,,0,38,38,16,1,2,2,,,,,,,,,,,,,,,,,,,,,,,,,,,,,,,,,,,,,,,,,,,,,,,,,,,,,,,,,,,,,,,,,,,,,,,,,,,,,,,,,,,,,,,,,,,,,,,,,,,
,,,,,,,,,,stimuli/images/PICTURE_2.png,YARD,5ead2b253bb47c3b40b94425,04/05/1991,2020-08-13_13h58.32.435,proactive2,2020.1.2,Win32,60,5f341be081b9052c55068110,5f3537400853f23053a59fc0,2,,,,,,tyre,,,,,,0,39,39,55,1,6,2,,,,,,,,,,,,,,,,,,,,,,,,,,,,,,,,,,,,,,,,,,,,,,,,,,,,,,,,,,,,,,,,,,,,,,,,,,,,,,,,,,,,,,,,,,,,,,,,,,,
,,,,,,,,,,stimuli/images/PICTURE_147.png,LEADER,5ead2b253bb47c3b40b94425,04/05/1991,2020-08-13_13h58.32.435,proactive2,2020.1.2,Win32,60,5f341be081b9052c55068110,5f3537400853f23053a59fc0,2,,,,,,hanger,,,,,,0,40,40,33,1,4,2,,,,,,,,,,,,,,,,,,,,,,,,,,,,,,,,,,,,,,,,,,,,,,,,,,,,,,,,,,,,,,,,,,,,,,,,,,,,,,,,,,,,,,,,,,,,,,,,,,,
,,,,,,,,,,stimuli/images/PICTURE_348.png,DUDE,5ead2b253bb47c3b40b94425,04/05/1991,2020-08-13_13h58.32.435,proactive2,2020.1.2,Win32,60,5f341be081b9052c55068110,5f3537400853f23053a59fc0,2,,,,,,pepper,,,,,,0,41,41,59,1,6,2,,,,,,,,,,,,,,,,,,,,,,,,,,,,,,,,,,,,,,,,,,,,,,,,,,,,,,,,,,,,,,,,,,,,,,,,,,,,,,,,,,,,,,,,,,,,,,,,,,,
,,,,,,,,,,stimuli/images/PICTURE_453.png,FAMILY,5ead2b253bb47c3b40b94425,04/05/1991,2020-08-13_13h58.32.435,proactive2,2020.1.2,Win32,60,5f341be081b9052c55068110,5f3537400853f23053a59fc0,2,,,,,,scissors,,,,,,0,42,42,48,1,5,2,,,,,,,,,,,,,,,,,,,,,,,,,,,,,,,,,,,,,,,,,,,,,,,,,,,,,,,,,,,,,,,,,,,,,,,,,,,,,,,,,,,,,,,,,,,,,,,,,,,
,,,,,,,,,,stimuli/images/PICTURE_2.png,JUNGLE,5ead2b253bb47c3b40b94425,04/05/1991,2020-08-13_13h58.32.435,proactive2,2020.1.2,Win32,60,5f341be081b9052c55068110,5f3537400853f23053a59fc0,2,,,,,,tyre,,,,,,0,43,43,1,1,1,2,,,,,,,,,,,,,,,,,,,,,,,,,,,,,,,,,,,,,,,,,,,,,,,,,,,,,,,,,,,,,,,,,,,,,,,,,,,,,,,,,,,,,,,,,,,,,,,,,,,
,,,,,,,,,,stimuli/images/PICTURE_677.png,FAMILY,5ead2b253bb47c3b40b94425,04/05/1991,2020-08-13_13h58.32.435,proactive2,2020.1.2,Win32,60,5f341be081b9052c55068110,5f3537400853f23053a59fc0,2,,,,,,map,,,,,,0,44,44,53,1,6,2,,,,,,,,,,,,,,,,,,,,,,,,,,,,,,,,,,,,,,,,,,,,,,,,,,,,,,,,,,,,,,,,,,,,,,,,,,,,,,,,,,,,,,,,,,,,,,,,,,,
,,,,,,,,,,stimuli/images/PICTURE_141.png,CLIENT,5ead2b253bb47c3b40b94425,04/05/1991,2020-08-13_13h58.32.435,proactive2,2020.1.2,Win32,60,5f341be081b9052c55068110,5f3537400853f23053a59fc0,2,,,,,,sunflower,,,,,,0,45,45,30,1,4,2,,,,,,,,,,,,,,,,,,,,,,,,,,,,,,,,,,,,,,,,,,,,,,,,,,,,,,,,,,,,,,,,,,,,,,,,,,,,,,,,,,,,,,,,,,,,,,,,,,,
,,,,,,,,,,stimuli/images/PICTURE_2.png,AREA,5ead2b253bb47c3b40b94425,04/05/1991,2020-08-13_13h58.32.435,proactive2,2020.1.2,Win32,60,5f341be081b9052c55068110,5f3537400853f23053a59fc0,2,,,,,,tyre,,,,,,0,46,46,32,1,4,2,,,,,,,,,,,,,,,,,,,,,,,,,,,,,,,,,,,,,,,,,,,,,,,,,,,,,,,,,,,,,,,,,,,,,,,,,,,,,,,,,,,,,,,,,,,,,,,,,,,
,,,,,,,,,,stimuli/images/PICTURE_285.png,WRITER,5ead2b253bb47c3b40b94425,04/05/1991,2020-08-13_13h58.32.435,proactive2,2020.1.2,Win32,60,5f341be081b9052c55068110,5f3537400853f23053a59fc0,2,,,,,,carrot,,,,,,0,47,47,6,1,1,2,,,,,,,,,,,,,,,,,,,,,,,,,,,,,,,,,,,,,,,,,,,,,,,,,,,,,,,,,,,,,,,,,,,,,,,,,,,,,,,,,,,,,,,,,,,,,,,,,,,
,,,,,,,,,,stimuli/images/PICTURE_215.png,BOYS,5ead2b253bb47c3b40b94425,04/05/1991,2020-08-13_13h58.32.435,proactive2,2020.1.2,Win32,60,5f341be081b9052c55068110,5f3537400853f23053a59fc0,2,,,,,,boot,,,,,,0,48,48,24,1,3,2,,,,,,,,,,,,,,,,,,,,,,,,,,,,,,,,,,,,,,,,,,,,,,,,,,,,,,,,,,,,,,,,,,,,,,,,,,,,,,,,,,,,,,,,,,,,,,,,,,,
,,,,,,,,,,stimuli/images/PICTURE_215.png,FOOD,5ead2b253bb47c3b40b94425,04/05/1991,2020-08-13_13h58.32.435,proactive2,2020.1.2,Win32,60,5f341be081b9052c55068110,5f3537400853f23053a59fc0,2,,,,,,boot,,,,,,0,49,49,5,1,1,2,,,,,,,,,,,,,,,,,,,,,,,,,,,,,,,,,,,,,,,,,,,,,,,,,,,,,,,,,,,,,,,,,,,,,,,,,,,,,,,,,,,,,,,,,,,,,,,,,,,
,,,,,,,,,,stimuli/images/PICTURE_564.png,PLENTY,5ead2b253bb47c3b40b94425,04/05/1991,2020-08-13_13h58.32.435,proactive2,2020.1.2,Win32,60,5f341be081b9052c55068110,5f3537400853f23053a59fc0,2,,,,,,spoon,,,,,,0,50,50,11,1,2,2,,,,,,,,,,,,,,,,,,,,,,,,,,,,,,,,,,,,,,,,,,,,,,,,,,,,,,,,,,,,,,,,,,,,,,,,,,,,,,,,,,,,,,,,,,,,,,,,,,,
,,,,,,,,,,stimuli/images/PICTURE_654.png,YEAR,5ead2b253bb47c3b40b94425,04/05/1991,2020-08-13_13h58.32.435,proactive2,2020.1.2,Win32,60,5f341be081b9052c55068110,5f3537400853f23053a59fc0,2,,,,,,pencil,,,,,,0,51,51,41,1,5,2,,,,,,,,,,,,,,,,,,,,,,,,,,,,,,,,,,,,,,,,,,,,,,,,,,,,,,,,,,,,,,,,,,,,,,,,,,,,,,,,,,,,,,,,,,,,,,,,,,,
,,,,,,,,,,stimuli/images/PICTURE_677.png,PHOTO,5ead2b253bb47c3b40b94425,04/05/1991,2020-08-13_13h58.32.435,proactive2,2020.1.2,Win32,60,5f341be081b9052c55068110,5f3537400853f23053a59fc0,2,,,,,,map,,,,,,0,52,52,14,1,2,2,,,,,,,,,,,,,,,,,,,,,,,,,,,,,,,,,,,,,,,,,,,,,,,,,,,,,,,,,,,,,,,,,,,,,,,,,,,,,,,,,,,,,,,,,,,,,,,,,,,
,,,,,,,,,,stimuli/images/PICTURE_311.png,FLESH,5ead2b253bb47c3b40b94425,04/05/1991,2020-08-13_13h58.32.435,proactive2,2020.1.2,Win32,60,5f341be081b9052c55068110,5f3537400853f23053a59fc0,2,,,,,,razor,,,,,,0,53,53,3,1,1,2,,,,,,,,,,,,,,,,,,,,,,,,,,,,,,,,,,,,,,,,,,,,,,,,,,,,,,,,,,,,,,,,,,,,,,,,,,,,,,,,,,,,,,,,,,,,,,,,,,,
,,,,,,,,,,stimuli/images/PICTURE_68.png,KIND,5ead2b253bb47c3b40b94425,04/05/1991,2020-08-13_13h58.32.435,proactive2,2020.1.2,Win32,60,5f341be081b9052c55068110,5f3537400853f23053a59fc0,2,,,,,,candle,,,,,,0,54,54,23,1,3,2,,,,,,,,,,,,,,,,,,,,,,,,,,,,,,,,,,,,,,,,,,,,,,,,,,,,,,,,,,,,,,,,,,,,,,,,,,,,,,,,,,,,,,,,,,,,,,,,,,,
,,,,,,,,,,stimuli/images/PICTURE_57.png,CANDY,5ead2b253bb47c3b40b94425,04/05/1991,2020-08-13_13h58.32.435,proactive2,2020.1.2,Win32,60,5f341be081b9052c55068110,5f3537400853f23053a59fc0,2,,,,,,stamp,,,,,,0,55,55,52,1,6,2,,,,,,,,,,,,,,,,,,,,,,,,,,,,,,,,,,,,,,,,,,,,,,,,,,,,,,,,,,,,,,,,,,,,,,,,,,,,,,,,,,,,,,,,,,,,,,,,,,,
,,,,,,,,,,stimuli/images/PICTURE_470.png,BEAUTY,5ead2b253bb47c3b40b94425,04/05/1991,2020-08-13_13h58.32.435,proactive2,2020.1.2,Win32,60,5f341be081b9052c55068110,5f3537400853f23053a59fc0,2,,,,,,motorbike,,,,,,0,56,56,26,1,3,2,,,,,,,,,,,,,,,,,,,,,,,,,,,,,,,,,,,,,,,,,,,,,,,,,,,,,,,,,,,,,,,,,,,,,,,,,,,,,,,,,,,,,,,,,,,,,,,,,,,
,,,,,,,,,,stimuli/images/PICTURE_487.png,POLICY,5ead2b253bb47c3b40b94425,04/05/1991,2020-08-13_13h58.32.435,proactive2,2020.1.2,Win32,60,5f341be081b9052c55068110,5f3537400853f23053a59fc0,2,,,,,,basket,,,,,,0,57,57,34,1,4,2,,,,,,,,,,,,,,,,,,,,,,,,,,,,,,,,,,,,,,,,,,,,,,,,,,,,,,,,,,,,,,,,,,,,,,,,,,,,,,,,,,,,,,,,,,,,,,,,,,,
,,,,,,,,,,stimuli/images/PICTURE_95.png,NIGHT,5ead2b253bb47c3b40b94425,04/05/1991,2020-08-13_13h58.32.435,proactive2,2020.1.2,Win32,60,5f341be081b9052c55068110,5f3537400853f23053a59fc0,2,,,,,,suitcase,,,,,,0,58,58,37,1,4,2,,,,,,,,,,,,,,,,,,,,,,,,,,,,,,,,,,,,,,,,,,,,,,,,,,,,,,,,,,,,,,,,,,,,,,,,,,,,,,,,,,,,,,,,,,,,,,,,,,,
,,?,0.00444,0,,,,,,stimuli/images/PICTURE_285.png,PRINCE,5ead2b253bb47c3b40b94425,04/05/1991,2020-08-13_13h58.32.435,proactive2,2020.1.2,Win32,60,5f341be081b9052c55068110,5f3537400853f23053a59fc0,2,,,,,,carrot,,,,,,,,,,,3,2,0,0,0,20,1,,,,,,,,,,,,,,,,,,,,,,,,,,,,,,,,,,,,,,,,,,,,,,,,,,,,,,,,,,,,,,,,,,,,,,,,,,,,,,,,,,,,,,,,,,,,,,
,,JUNGLE,11.313795,1,,,,,,stimuli/images/PICTURE_405.png,JUNGLE,5ead2b253bb47c3b40b94425,04/05/1991,2020-08-13_13h58.32.435,proactive2,2020.1.2,Win32,60,5f341be081b9052c55068110,5f3537400853f23053a59fc0,2,,,,,,anchor,,,,,,,,,,,2,2,0,1,1,13,1,,,,,,,,,,,,,,,,,,,,,,,,,,,,,,,,,,,,,,,,,,,,,,,,,,,,,,,,,,,,,,,,,,,,,,,,,,,,,,,,,,,,,,,,,,,,,,
,,?,0.00742,0,,,,,,stimuli/images/PICTURE_215.png,BOYS,5ead2b253bb47c3b40b94425,04/05/1991,2020-08-13_13h58.32.435,proactive2,2020.1.2,Win32,60,5f341be081b9052c55068110,5f3537400853f23053a59fc0,2,,,,,,boot,,,,,,,,,,,3,2,0,2,2,24,1,,,,,,,,,,,,,,,,,,,,,,,,,,,,,,,,,,,,,,,,,,,,,,,,,,,,,,,,,,,,,,,,,,,,,,,,,,,,,,,,,,,,,,,,,,,,,,
,,?,0.00371,0,,,,,,stimuli/images/PICTURE_487.png,POLICY,5ead2b253bb47c3b40b94425,04/05/1991,2020-08-13_13h58.32.435,proactive2,2020.1.2,Win32,60,5f341be081b9052c55068110,5f3537400853f23053a59fc0,2,,,,,,basket,,,,,,,,,,,4,2,0,3,3,34,1,,,,,,,,,,,,,,,,,,,,,,,,,,,,,,,,,,,,,,,,,,,,,,,,,,,,,,,,,,,,,,,,,,,,,,,,,,,,,,,,,,,,,,,,,,,,,,
,,?,0.003965,0,,,,,,stimuli/images/PICTURE_487.png,ROOF,5ead2b253bb47c3b40b94425,04/05/1991,2020-08-13_13h58.32.435,proactive2,2020.1.2,Win32,60,5f341be081b9052c55068110,5f3537400853f23053a59fc0,2,,,,,,basket,,,,,,,,,,,6,2,0,4,4,50,1,,,,,,,,,,,,,,,,,,,,,,,,,,,,,,,,,,,,,,,,,,,,,,,,,,,,,,,,,,,,,,,,,,,,,,,,,,,,,,,,,,,,,,,,,,,,,,
,,?,0.003905,0,,,,,,stimuli/images/PICTURE_452.png,COPS,5ead2b253bb47c3b40b94425,04/05/1991,2020-08-13_13h58.32.435,proactive2,2020.1.2,Win32,60,5f341be081b9052c55068110,5f3537400853f23053a59fc0,2,,,,,,watch,,,,,,,,,,,1,2,0,5,5,0,1,,,,,,,,,,,,,,,,,,,,,,,,,,,,,,,,,,,,,,,,,,,,,,,,,,,,,,,,,,,,,,,,,,,,,,,,,,,,,,,,,,,,,,,,,,,,,,
,,?,0.00726,0,,,,,,stimuli/images/PICTURE_215.png,FOOD,5ead2b253bb47c3b40b94425,04/05/1991,2020-08-13_13h58.32.435,proactive2,2020.1.2,Win32,60,5f341be081b9052c55068110,5f3537400853f23053a59fc0,2,,,,,,boot,,,,,,,,,,,1,2,0,6,6,5,1,,,,,,,,,,,,,,,,,,,,,,,,,,,,,,,,,,,,,,,,,,,,,,,,,,,,,,,,,,,,,,,,,,,,,,,,,,,,,,,,,,,,,,,,,,,,,,
,,?,0.0042,0,,,,,,stimuli/images/PICTURE_177.png,HOUSE,5ead2b253bb47c3b40b94425,04/05/1991,2020-08-13_13h58.32.435,proactive2,2020.1.2,Win32,60,5f341be081b9052c55068110,5f3537400853f23053a59fc0,2,,,,,,mushroom,,,,,,,,,,,3,2,0,7,7,25,1,,,,,,,,,,,,,,,,,,,,,,,,,,,,,,,,,,,,,,,,,,,,,,,,,,,,,,,,,,,,,,,,,,,,,,,,,,,,,,,,,,,,,,,,,,,,,,
,,?,0.003545,0,,,,,,stimuli/images/PICTURE_356.png,CANDY,5ead2b253bb47c3b40b94425,04/05/1991,2020-08-13_13h58.32.435,proactive2,2020.1.2,Win32,60,5f341be081b9052c55068110,5f3537400853f23053a59fc0,2,,,,,,pawn,,,,,,,,,,,5,2,0,8,8,46,1,,,,,,,,,,,,,,,,,,,,,,,,,,,,,,,,,,,,,,,,,,,,,,,,,,,,,,,,,,,,,,,,,,,,,,,,,,,,,,,,,,,,,,,,,,,,,,
,,?,0.00417,0,,,,,,stimuli/images/PICTURE_215.png,LEADER,5ead2b253bb47c3b40b94425,04/05/1991,2020-08-13_13h58.32.435,proactive2,2020.1.2,Win32,60,5f341be081b9052c55068110,5f3537400853f23053a59fc0,2,,,,,,boot,,,,,,,,,,,5,2,0,9,9,43,1,,,,,,,,,,,,,,,,,,,,,,,,,,,,,,,,,,,,,,,,,,,,,,,,,,,,,,,,,,,,,,,,,,,,,,,,,,,,,,,,,,,,,,,,,,,,,,
,,?,0.004015,0,,,,,,stimuli/images/PICTURE_285.png,WRITER,5ead2b253bb47c3b40b94425,04/05/1991,2020-08-13_13h58.32.435,proactive2,2020.1.2,Win32,60,5f341be081b9052c55068110,5f3537400853f23053a59fc0,2,,,,,,carrot,,,,,,,,,,,1,2,0,10,10,6,1,,,,,,,,,,,,,,,,,,,,,,,,,,,,,,,,,,,,,,,,,,,,,,,,,,,,,,,,,,,,,,,,,,,,,,,,,,,,,,,,,,,,,,,,,,,,,,
,,?,0.003555,0,,,,,,stimuli/images/PICTURE_470.png,BEAUTY,5ead2b253bb47c3b40b94425,04/05/1991,2020-08-13_13h58.32.435,proactive2,2020.1.2,Win32,60,5f341be081b9052c55068110,5f3537400853f23053a59fc0,2,,,,,,motorbike,,,,,,,,,,,3,2,0,11,11,26,1,,,,,,,,,,,,,,,,,,,,,,,,,,,,,,,,,,,,,,,,,,,,,,,,,,,,,,,,,,,,,,,,,,,,,,,,,,,,,,,,,,,,,,,,,,,,,,
,,?,0.00379,0,,,,,,stimuli/images/PICTURE_453.png,FAMILY,5ead2b253bb47c3b40b94425,04/05/1991,2020-08-13_13h58.32.435,proactive2,2020.1.2,Win32,60,5f341be081b9052c55068110,5f3537400853f23053a59fc0,2,,,,,,scissors,,,,,,,,,,,5,2,0,12,12,48,1,,,,,,,,,,,,,,,,,,,,,,,,,,,,,,,,,,,,,,,,,,,,,,,,,,,,,,,,,,,,,,,,,,,,,,,,,,,,,,,,,,,,,,,,,,,,,,
,,?,0.003725,0,,,,,,stimuli/images/PICTURE_18.png,RIVER,5ead2b253bb47c3b40b94425,04/05/1991,2020-08-13_13h58.32.435,proactive2,2020.1.2,Win32,60,5f341be081b9052c55068110,5f3537400853f23053a59fc0,2,,,,,,planet,,,,,,,,,,,3,2,0,13,13,22,1,,,,,,,,,,,,,,,,,,,,,,,,,,,,,,,,,,,,,,,,,,,,,,,,,,,,,,,,,,,,,,,,,,,,,,,,,,,,,,,,,,,,,,,,,,,,,,
,,?,0.004295,0,,,,,,stimuli/images/PICTURE_654.png,YEAR,5ead2b253bb47c3b40b94425,04/05/1991,2020-08-13_13h58.32.435,proactive2,2020.1.2,Win32,60,5f341be081b9052c55068110,5f3537400853f23053a59fc0,2,,,,,,pencil,,,,,,,,,,,5,2,0,14,14,41,1,,,,,,,,,,,,,,,,,,,,,,,,,,,,,,,,,,,,,,,,,,,,,,,,,,,,,,,,,,,,,,,,,,,,,,,,,,,,,,,,,,,,,,,,,,,,,,
,,?,0.00456,0,,,,,,stimuli/images/PICTURE_504.png,HOUSE,5ead2b253bb47c3b40b94425,04/05/1991,2020-08-13_13h58.32.435,proactive2,2020.1.2,Win32,60,5f341be081b9052c55068110,5f3537400853f23053a59fc0,2,,,,,,wheel,,,,,,,,,,,4,2,0,15,15,36,1,,,,,,,,,,,,,,,,,,,,,,,,,,,,,,,,,,,,,,,,,,,,,,,,,,,,,,,,,,,,,,,,,,,,,,,,,,,,,,,,,,,,,,,,,,,,,,
,,?,0.004005,0,,,,,,stimuli/images/PICTURE_405.png,HOUSE,5ead2b253bb47c3b40b94425,04/05/1991,2020-08-13_13h58.32.435,proactive2,2020.1.2,Win32,60,5f341be081b9052c55068110,5f3537400853f23053a59fc0,2,,,,,,anchor,,,,,,,,,,,1,2,0,16,16,2,1,,,,,,,,,,,,,,,,,,,,,,,,,,,,,,,,,,,,,,,,,,,,,,,,,,,,,,,,,,,,,,,,,,,,,,,,,,,,,,,,,,,,,,,,,,,,,,
,,?,0.003965,0,,,,,,stimuli/images/PICTURE_141.png,CLIENT,5ead2b253bb47c3b40b94425,04/05/1991,2020-08-13_13h58.32.435,proactive2,2020.1.2,Win32,60,5f341be081b9052c55068110,5f3537400853f23053a59fc0,2,,,,,,sunflower,,,,,,,,,,,4,2,0,17,17,30,1,,,,,,,,,,,,,,,,,,,,,,,,,,,,,,,,,,,,,,,,,,,,,,,,,,,,,,,,,,,,,,,,,,,,,,,,,,,,,,,,,,,,,,,,,,,,,,
,,?,0.00369,0,,,,,,stimuli/images/PICTURE_509.png,SHOTS,5ead2b253bb47c3b40b94425,04/05/1991,2020-08-13_13h58.32.435,proactive2,2020.1.2,Win32,60,5f341be081b9052c55068110,5f3537400853f23053a59fc0,2,,,,,,telephone,,,,,,,,,,,1,2,0,18,18,7,1,,,,,,,,,,,,,,,,,,,,,,,,,,,,,,,,,,,,,,,,,,,,,,,,,,,,,,,,,,,,,,,,,,,,,,,,,,,,,,,,,,,,,,,,,,,,,,
,,?,0.0035,0,,,,,,stimuli/images/PICTURE_470.png,MOMENT,5ead2b253bb47c3b40b94425,04/05/1991,2020-08-13_13h58.32.435,proactive2,2020.1.2,Win32,60,5f341be081b9052c55068110,5f3537400853f23053a59fc0,2,,,,,,motorbike,,,,,,,,,,,5,2,0,19,19,40,1,,,,,,,,,,,,,,,,,,,,,,,,,,,,,,,,,,,,,,,,,,,,,,,,,,,,,,,,,,,,,,,,,,,,,,,,,,,,,,,,,,,,,,,,,,,,,,
,,COPS,4.72357,1,,,,,,stimuli/images/PICTURE_654.png,COPS,5ead2b253bb47c3b40b94425,04/05/1991,2020-08-13_13h58.32.435,proactive2,2020.1.2,Win32,60,5f341be081b9052c55068110,5f3537400853f23053a59fc0,2,,,,,,pencil,,,,,,,,,,,2,2,0,20,20,10,1,,,,,,,,,,,,,,,,,,,,,,,,,,,,,,,,,,,,,,,,,,,,,,,,,,,,,,,,,,,,,,,,,,,,,,,,,,,,,,,,,,,,,,,,,,,,,,
,,?,0.003455,0,,,,,,stimuli/images/PICTURE_2.png,AREA,5ead2b253bb47c3b40b94425,04/05/1991,2020-08-13_13h58.32.435,proactive2,2020.1.2,Win32,60,5f341be081b9052c55068110,5f3537400853f23053a59fc0,2,,,,,,tyre,,,,,,,,,,,4,2,0,21,21,32,1,,,,,,,,,,,,,,,,,,,,,,,,,,,,,,,,,,,,,,,,,,,,,,,,,,,,,,,,,,,,,,,,,,,,,,,,,,,,,,,,,,,,,,,,,,,,,,
,,?,0.003575,0,,,,,,stimuli/images/PICTURE_677.png,FAMILY,5ead2b253bb47c3b40b94425,04/05/1991,2020-08-13_13h58.32.435,proactive2,2020.1.2,Win32,60,5f341be081b9052c55068110,5f3537400853f23053a59fc0,2,,,,,,map,,,,,,,,,,,6,2,0,22,22,53,1,,,,,,,,,,,,,,,,,,,,,,,,,,,,,,,,,,,,,,,,,,,,,,,,,,,,,,,,,,,,,,,,,,,,,,,,,,,,,,,,,,,,,,,,,,,,,,
,,BATH,5.15736,1,,,,,,stimuli/images/PICTURE_509.png,BATH,5ead2b253bb47c3b40b94425,04/05/1991,2020-08-13_13h58.32.435,proactive2,2020.1.2,Win32,60,5f341be081b9052c55068110,5f3537400853f23053a59fc0,2,,,,,,telephone,,,,,,,,,,,2,2,0,23,23,15,1,,,,,,,,,,,,,,,,,,,,,,,,,,,,,,,,,,,,,,,,,,,,,,,,,,,,,,,,,,,,,,,,,,,,,,,,,,,,,,,,,,,,,,,,,,,,,,
,,?,0.00335,0,,,,,,stimuli/images/PICTURE_403.png,FAMILY,5ead2b253bb47c3b40b94425,04/05/1991,2020-08-13_13h58.32.435,proactive2,2020.1.2,Win32,60,5f341be081b9052c55068110,5f3537400853f23053a59fc0,2,,,,,,cathedral,,,,,,,,,,,1,2,0,24,24,9,1,,,,,,,,,,,,,,,,,,,,,,,,,,,,,,,,,,,,,,,,,,,,,,,,,,,,,,,,,,,,,,,,,,,,,,,,,,,,,,,,,,,,,,,,,,,,,,
,,?,0.0035,0,,,,,,stimuli/images/PICTURE_348.png,TOILET,5ead2b253bb47c3b40b94425,04/05/1991,2020-08-13_13h58.32.435,proactive2,2020.1.2,Win32,60,5f341be081b9052c55068110,5f3537400853f23053a59fc0,2,,,,,,pepper,,,,,,,,,,,1,2,0,25,25,4,1,,,,,,,,,,,,,,,,,,,,,,,,,,,,,,,,,,,,,,,,,,,,,,,,,,,,,,,,,,,,,,,,,,,,,,,,,,,,,,,,,,,,,,,,,,,,,,
,,?,0.003995,0,,,,,,stimuli/images/PICTURE_123.png,SALE,5ead2b253bb47c3b40b94425,04/05/1991,2020-08-13_13h58.32.435,proactive2,2020.1.2,Win32,60,5f341be081b9052c55068110,5f3537400853f23053a59fc0,2,,,,,,dart,,,,,,,,,,,1,2,0,26,26,8,1,,,,,,,,,,,,,,,,,,,,,,,,,,,,,,,,,,,,,,,,,,,,,,,,,,,,,,,,,,,,,,,,,,,,,,,,,,,,,,,,,,,,,,,,,,,,,,
,,?,0.00328,0,,,,,,stimuli/images/PICTURE_93.png,GIRL,5ead2b253bb47c3b40b94425,04/05/1991,2020-08-13_13h58.32.435,proactive2,2020.1.2,Win32,60,5f341be081b9052c55068110,5f3537400853f23053a59fc0,2,,,,,,skateboard,,,,,,,,,,,4,2,0,27,27,31,1,,,,,,,,,,,,,,,,,,,,,,,,,,,,,,,,,,,,,,,,,,,,,,,,,,,,,,,,,,,,,,,,,,,,,,,,,,,,,,,,,,,,,,,,,,,,,,
,,?,0.00828,0,,,,,,stimuli/images/PICTURE_297.png,BODY,5ead2b253bb47c3b40b94425,04/05/1991,2020-08-13_13h58.32.435,proactive2,2020.1.2,Win32,60,5f341be081b9052c55068110,5f3537400853f23053a59fc0,2,,,,,,aeroplane,,,,,,,,,,,6,2,0,28,28,51,1,,,,,,,,,,,,,,,,,,,,,,,,,,,,,,,,,,,,,,,,,,,,,,,,,,,,,,,,,,,,,,,,,,,,,,,,,,,,,,,,,,,,,,,,,,,,,,
,,?,0.0033,0,,,,,,stimuli/images/PICTURE_57.png,NATION,5ead2b253bb47c3b40b94425,04/05/1991,2020-08-13_13h58.32.435,proactive2,2020.1.2,Win32,60,5f341be081b9052c55068110,5f3537400853f23053a59fc0,2,,,,,,stamp,,,,,,,,,,,3,2,0,29,29,21,1,,,,,,,,,,,,,,,,,,,,,,,,,,,,,,,,,,,,,,,,,,,,,,,,,,,,,,,,,,,,,,,,,,,,,,,,,,,,,,,,,,,,,,,,,,,,,,
,,PLENTY,5.602595,1,,,,,,stimuli/images/PICTURE_564.png,PLENTY,5ead2b253bb47c3b40b94425,04/05/1991,2020-08-13_13h58.32.435,proactive2,2020.1.2,Win32,60,5f341be081b9052c55068110,5f3537400853f23053a59fc0,2,,,,,,spoon,,,,,,,,,,,2,2,0,30,30,11,1,,,,,,,,,,,,,,,,,,,,,,,,,,,,,,,,,,,,,,,,,,,,,,,,,,,,,,,,,,,,,,,,,,,,,,,,,,,,,,,,,,,,,,,,,,,,,,
,,?,0.028775,0,,,,,,stimuli/images/PICTURE_314.png,SPEECH,5ead2b253bb47c3b40b94425,04/05/1991,2020-08-13_13h58.32.435,proactive2,2020.1.2,Win32,60,5f341be081b9052c55068110,5f3537400853f23053a59fc0,2,,,,,,perfume,,,,,,,,,,,4,2,0,31,31,35,1,,,,,,,,,,,,,,,,,,,,,,,,,,,,,,,,,,,,,,,,,,,,,,,,,,,,,,,,,,,,,,,,,,,,,,,,,,,,,,,,,,,,,,,,,,,,,,
,,?,0.004,0,,,,,,stimuli/images/PICTURE_95.png,NIGHT,5ead2b253bb47c3b40b94425,04/05/1991,2020-08-13_13h58.32.435,proactive2,2020.1.2,Win32,60,5f341be081b9052c55068110,5f3537400853f23053a59fc0,2,,,,,,suitcase,,,,,,,,,,,4,2,0,32,32,37,1,,,,,,,,,,,,,,,,,,,,,,,,,,,,,,,,,,,,,,,,,,,,,,,,,,,,,,,,,,,,,,,,,,,,,,,,,,,,,,,,,,,,,,,,,,,,,,
,,?,0.009295,0,,,,,,stimuli/images/PICTURE_311.png,TOILET,5ead2b253bb47c3b40b94425,04/05/1991,2020-08-13_13h58.32.435,proactive2,2020.1.2,Win32,60,5f341be081b9052c55068110,5f3537400853f23053a59fc0,2,,,,,,razor,,,,,,,,,,,6,2,0,33,33,54,1,,,,,,,,,,,,,,,,,,,,,,,,,,,,,,,,,,,,,,,,,,,,,,,,,,,,,,,,,,,,,,,,,,,,,,,,,,,,,,,,,,,,,,,,,,,,,,
,,?,0.00384,0,,,,,,stimuli/images/PICTURE_33.png,COPS,5ead2b253bb47c3b40b94425,04/05/1991,2020-08-13_13h58.32.435,proactive2,2020.1.2,Win32,60,5f341be081b9052c55068110,5f3537400853f23053a59fc0,2,,,,,,frame,,,,,,,,,,,3,2,0,34,34,29,1,,,,,,,,,,,,,,,,,,,,,,,,,,,,,,,,,,,,,,,,,,,,,,,,,,,,,,,,,,,,,,,,,,,,,,,,,,,,,,,,,,,,,,,,,,,,,,
,,?,0.003285,0,,,,,,stimuli/images/PICTURE_509.png,MILLER,5ead2b253bb47c3b40b94425,04/05/1991,2020-08-13_13h58.32.435,proactive2,2020.1.2,Win32,60,5f341be081b9052c55068110,5f3537400853f23053a59fc0,2,,,,,,telephone,,,,,,,,,,,5,2,0,35,35,49,1,,,,,,,,,,,,,,,,,,,,,,,,,,,,,,,,,,,,,,,,,,,,,,,,,,,,,,,,,,,,,,,,,,,,,,,,,,,,,,,,,,,,,,,,,,,,,,
,,?,0.00336,0,,,,,,stimuli/images/PICTURE_2.png,JUNGLE,5ead2b253bb47c3b40b94425,04/05/1991,2020-08-13_13h58.32.435,proactive2,2020.1.2,Win32,60,5f341be081b9052c55068110,5f3537400853f23053a59fc0,2,,,,,,tyre,,,,,,,,,,,1,2,0,36,36,1,1,,,,,,,,,,,,,,,,,,,,,,,,,,,,,,,,,,,,,,,,,,,,,,,,,,,,,,,,,,,,,,,,,,,,,,,,,,,,,,,,,,,,,,,,,,,,,,
,,?,0.003335,0,,,,,,stimuli/images/PICTURE_57.png,CANDY,5ead2b253bb47c3b40b94425,04/05/1991,2020-08-13_13h58.32.435,proactive2,2020.1.2,Win32,60,5f341be081b9052c55068110,5f3537400853f23053a59fc0,2,,,,,,stamp,,,,,,,,,,,6,2,0,37,37,52,1,,,,,,,,,,,,,,,,,,,,,,,,,,,,,,,,,,,,,,,,,,,,,,,,,,,,,,,,,,,,,,,,,,,,,,,,,,,,,,,,,,,,,,,,,,,,,,
,,?,0.004275,0,,,,,,stimuli/images/PICTURE_491.png,SERIES,5ead2b253bb47c3b40b94425,04/05/1991,2020-08-13_13h58.32.435,proactive2,2020.1.2,Win32,60,5f341be081b9052c55068110,5f3537400853f23053a59fc0,2,,,,,,rug,,,,,,,,,,,4,2,0,38,38,39,1,,,,,,,,,,,,,,,,,,,,,,,,,,,,,,,,,,,,,,,,,,,,,,,,,,,,,,,,,,,,,,,,,,,,,,,,,,,,,,,,,,,,,,,,,,,,,,
,,?,0.00322,0,,,,,,stimuli/images/PICTURE_348.png,DUDE,5ead2b253bb47c3b40b94425,04/05/1991,2020-08-13_13h58.32.435,proactive2,2020.1.2,Win32,60,5f341be081b9052c55068110,5f3537400853f23053a59fc0,2,,,,,,pepper,,,,,,,,,,,6,2,0,39,39,59,1,,,,,,,,,,,,,,,,,,,,,,,,,,,,,,,,,,,,,,,,,,,,,,,,,,,,,,,,,,,,,,,,,,,,,,,,,,,,,,,,,,,,,,,,,,,,,,
,,?,0.006025,0,,,,,,stimuli/images/PICTURE_2.png,YARD,5ead2b253bb47c3b40b94425,04/05/1991,2020-08-13_13h58.32.435,proactive2,2020.1.2,Win32,60,5f341be081b9052c55068110,5f3537400853f23053a59fc0,2,,,,,,tyre,,,,,,,,,,,6,2,0,40,40,55,1,,,,,,,,,,,,,,,,,,,,,,,,,,,,,,,,,,,,,,,,,,,,,,,,,,,,,,,,,,,,,,,,,,,,,,,,,,,,,,,,,,,,,,,,,,,,,,
,,?,0.00355,0,,,,,,stimuli/images/PICTURE_311.png,FLESH,5ead2b253bb47c3b40b94425,04/05/1991,2020-08-13_13h58.32.435,proactive2,2020.1.2,Win32,60,5f341be081b9052c55068110,5f3537400853f23053a59fc0,2,,,,,,razor,,,,,,,,,,,1,2,0,41,41,3,1,,,,,,,,,,,,,,,,,,,,,,,,,,,,,,,,,,,,,,,,,,,,,,,,,,,,,,,,,,,,,,,,,,,,,,,,,,,,,,,,,,,,,,,,,,,,,,
,,CASINO,5.89823,1,,,,,,stimuli/images/PICTURE_57.png,CASINO,5ead2b253bb47c3b40b94425,04/05/1991,2020-08-13_13h58.32.435,proactive2,2020.1.2,Win32,60,5f341be081b9052c55068110,5f3537400853f23053a59fc0,2,,,,,,stamp,,,,,,,,,,,2,2,0,42,42,12,1,,,,,,,,,,,,,,,,,,,,,,,,,,,,,,,,,,,,,,,,,,,,,,,,,,,,,,,,,,,,,,,,,,,,,,,,,,,,,,,,,,,,,,,,,,,,,,
,,CLOCK,4.019095,1,,,,,,stimuli/images/PICTURE_296.png,CLOCK,5ead2b253bb47c3b40b94425,04/05/1991,2020-08-13_13h58.32.435,proactive2,2020.1.2,Win32,60,5f341be081b9052c55068110,5f3537400853f23053a59fc0,2,,,,,,bolt,,,,,,,,,,,2,2,0,43,43,18,1,,,,,,,,,,,,,,,,,,,,,,,,,,,,,,,,,,,,,,,,,,,,,,,,,,,,,,,,,,,,,,,,,,,,,,,,,,,,,,,,,,,,,,,,,,,,,,
,,?,0.00364,0,,,,,,stimuli/images/PICTURE_32.png,LETTER,5ead2b253bb47c3b40b94425,04/05/1991,2020-08-13_13h58.32.435,proactive2,2020.1.2,Win32,60,5f341be081b9052c55068110,5f3537400853f23053a59fc0,2,,,,,,crown,,,,,,,,,,,6,2,0,44,44,56,1,,,,,,,,,,,,,,,,,,,,,,,,,,,,,,,,,,,,,,,,,,,,,,,,,,,,,,,,,,,,,,,,,,,,,,,,,,,,,,,,,,,,,,,,,,,,,,
,,?,0.004315,0,,,,,,stimuli/images/PICTURE_688.png,CLOCK,5ead2b253bb47c3b40b94425,04/05/1991,2020-08-13_13h58.32.435,proactive2,2020.1.2,Win32,60,5f341be081b9052c55068110,5f3537400853f23053a59fc0,2,,,,,,runner,,,,,,,,,,,5,2,0,45,45,42,1,,,,,,,,,,,,,,,,,,,,,,,,,,,,,,,,,,,,,,,,,,,,,,,,,,,,,,,,,,,,,,,,,,,,,,,,,,,,,,,,,,,,,,,,,,,,,,
,,?,0.00345,0,,,,,,stimuli/images/PICTURE_708.png,VALLEY,5ead2b253bb47c3b40b94425,04/05/1991,2020-08-13_13h58.32.435,proactive2,2020.1.2,Win32,60,5f341be081b9052c55068110,5f3537400853f23053a59fc0,2,,,,,,monkey,,,,,,,,,,,5,2,0,46,46,45,1,,,,,,,,,,,,,,,,,,,,,,,,,,,,,,,,,,,,,,,,,,,,,,,,,,,,,,,,,,,,,,,,,,,,,,,,,,,,,,,,,,,,,,,,,,,,,,
,,?,0.00324,0,,,,,,stimuli/images/PICTURE_692.png,DUDE,5ead2b253bb47c3b40b94425,04/05/1991,2020-08-13_13h58.32.435,proactive2,2020.1.2,Win32,60,5f341be081b9052c55068110,5f3537400853f23053a59fc0,2,,,,,,cherry,,,,,,,,,,,5,2,0,47,47,47,1,,,,,,,,,,,,,,,,,,,,,,,,,,,,,,,,,,,,,,,,,,,,,,,,,,,,,,,,,,,,,,,,,,,,,,,,,,,,,,,,,,,,,,,,,,,,,,
,,?,0.003945,0,,,,,,stimuli/images/PICTURE_655.png,SALE,5ead2b253bb47c3b40b94425,04/05/1991,2020-08-13_13h58.32.435,proactive2,2020.1.2,Win32,60,5f341be081b9052c55068110,5f3537400853f23053a59fc0,2,,,,,,megaphone,,,,,,,,,,,6,2,0,48,48,57,1,,,,,,,,,,,,,,,,,,,,,,,,,,,,,,,,,,,,,,,,,,,,,,,,,,,,,,,,,,,,,,,,,,,,,,,,,,,,,,,,,,,,,,,,,,,,,,
,,?,0.003395,0,,,,,,stimuli/images/PICTURE_68.png,KIND,5ead2b253bb47c3b40b94425,04/05/1991,2020-08-13_13h58.32.435,proactive2,2020.1.2,Win32,60,5f341be081b9052c55068110,5f3537400853f23053a59fc0,2,,,,,,candle,,,,,,,,,,,3,2,0,49,49,23,1,,,,,,,,,,,,,,,,,,,,,,,,,,,,,,,,,,,,,,,,,,,,,,,,,,,,,,,,,,,,,,,,,,,,,,,,,,,,,,,,,,,,,,,,,,,,,,
,,LEADER,7.398785,1,,,,,,stimuli/images/PICTURE_327.png,LEADER,5ead2b253bb47c3b40b94425,04/05/1991,2020-08-13_13h58.32.435,proactive2,2020.1.2,Win32,60,5f341be081b9052c55068110,5f3537400853f23053a59fc0,2,,,,,,helmet,,,,,,,,,,,2,2,0,50,50,17,1,,,,,,,,,,,,,,,,,,,,,,,,,,,,,,,,,,,,,,,,,,,,,,,,,,,,,,,,,,,,,,,,,,,,,,,,,,,,,,,,,,,,,,,,,,,,,,
,,?,0.00326,0,,,,,,stimuli/images/PICTURE_509.png,APPLE,5ead2b253bb47c3b40b94425,04/05/1991,2020-08-13_13h58.32.435,proactive2,2020.1.2,Win32,60,5f341be081b9052c55068110,5f3537400853f23053a59fc0,2,,,,,,telephone,,,,,,,,,,,4,2,0,51,51,38,1,,,,,,,,,,,,,,,,,,,,,,,,,,,,,,,,,,,,,,,,,,,,,,,,,,,,,,,,,,,,,,,,,,,,,,,,,,,,,,,,,,,,,,,,,,,,,,
,,?,0.00379,0,,,,,,stimuli/images/PICTURE_667.png,GLASS,5ead2b253bb47c3b40b94425,04/05/1991,2020-08-13_13h58.32.435,proactive2,2020.1.2,Win32,60,5f341be081b9052c55068110,5f3537400853f23053a59fc0,2,,,,,,daisy,,,,,,,,,,,3,2,0,52,52,27,1,,,,,,,,,,,,,,,,,,,,,,,,,,,,,,,,,,,,,,,,,,,,,,,,,,,,,,,,,,,,,,,,,,,,,,,,,,,,,,,,,,,,,,,,,,,,,,
,,PENNY,5.11903,1,,,,,,stimuli/images/PICTURE_255.png,PENNY,5ead2b253bb47c3b40b94425,04/05/1991,2020-08-13_13h58.32.435,proactive2,2020.1.2,Win32,60,5f341be081b9052c55068110,5f3537400853f23053a59fc0,2,,,,,,shovel,,,,,,,,,,,2,2,0,53,53,19,1,,,,,,,,,,,,,,,,,,,,,,,,,,,,,,,,,,,,,,,,,,,,,,,,,,,,,,,,,,,,,,,,,,,,,,,,,,,,,,,,,,,,,,,,,,,,,,
,,?,0.003295,0,,,,,,stimuli/images/PICTURE_750.png,POLICY,5ead2b253bb47c3b40b94425,04/05/1991,2020-08-13_13h58.32.435,proactive2,2020.1.2,Win32,60,5f341be081b9052c55068110,5f3537400853f23053a59fc0,2,,,,,,kettle,,,,,,,,,,,5,2,0,54,54,44,1,,,,,,,,,,,,,,,,,,,,,,,,,,,,,,,,,,,,,,,,,,,,,,,,,,,,,,,,,,,,,,,,,,,,,,,,,,,,,,,,,,,,,,,,,,,,,,
,,HOTEL,5.30121,1,,,,,,stimuli/images/PICTURE_160.png,HOTEL,5ead2b253bb47c3b40b94425,04/05/1991,2020-08-13_13h58.32.435,proactive2,2020.1.2,Win32,60,5f341be081b9052c55068110,5f3537400853f23053a59fc0,2,,,,,,wheelbarrow,,,,,,,,,,,2,2,0,55,55,16,1,,,,,,,,,,,,,,,,,,,,,,,,,,,,,,,,,,,,,,,,,,,,,,,,,,,,,,,,,,,,,,,,,,,,,,,,,,,,,,,,,,,,,,,,,,,,,,
,,?,0.003325,0,,,,,,stimuli/images/PICTURE_405.png,JUNGLE,5ead2b253bb47c3b40b94425,04/05/1991,2020-08-13_13h58.32.435,proactive2,2020.1.2,Win32,60,5f341be081b9052c55068110,5f3537400853f23053a59fc0,2,,,,,,anchor,,,,,,,,,,,6,2,0,56,56,58,1,,,,,,,,,,,,,,,,,,,,,,,,,,,,,,,,,,,,,,,,,,,,,,,,,,,,,,,,,,,,,,,,,,,,,,,,,,,,,,,,,,,,,,,,,,,,,,
,,?,0.00389,0,,,,,,stimuli/images/PICTURE_208.png,SPIRIT,5ead2b253bb47c3b40b94425,04/05/1991,2020-08-13_13h58.32.435,proactive2,2020.1.2,Win32,60,5f341be081b9052c55068110,5f3537400853f23053a59fc0,2,,,,,,microphone,,,,,,,,,,,3,2,0,57,57,28,1,,,,,,,,,,,,,,,,,,,,,,,,,,,,,,,,,,,,,,,,,,,,,,,,,,,,,,,,,,,,,,,,,,,,,,,,,,,,,,,,,,,,,,,,,,,,,,
,,?,0.006155,0,,,,,,stimuli/images/PICTURE_147.png,LEADER,5ead2b253bb47c3b40b94425,04/05/1991,2020-08-13_13h58.32.435,proactive2,2020.1.2,Win32,60,5f341be081b9052c55068110,5f3537400853f23053a59fc0,2,,,,,,hanger,,,,,,,,,,,4,2,0,58,58,33,1,,,,,,,,,,,,,,,,,,,,,,,,,,,,,,,,,,,,,,,,,,,,,,,,,,,,,,,,,,,,,,,,,,,,,,,,,,,,,,,,,,,,,,,,,,,,,,
,,MAP,6.33325,0,,,,,,stimuli/images/PICTURE_677.png,PHOTO,5ead2b253bb47c3b40b94425,04/05/1991,2020-08-13_13h58.32.435,proactive2,2020.1.2,Win32,60,5f341be081b9052c55068110,5f3537400853f23053a59fc0,2,,,,,,map,,,,,,,,,,,2,2,0,59,59,14,1,,,,,,,,,,,,,,,,,,,,,,,,,,,,,,,,,,,,,,,,,,,,,,,,,,,,,,,,,,,,,,,,,,,,,,,,,,,,,,,,,,,,,,,,,,,,,,
,,,,,,,,,,,,5ead2b253bb47c3b40b94425,04/05/1991,2020-08-13_13h58.32.435,proactive2,2020.1.2,Win32,60,5f341be081b9052c55068110,5f3537400853f23053a59fc0,2,,,,,,,,,,,,,,,,,,,,,,,,0,0,0,2,1,stimuli/learn-block3.csv,,,,,,,,,,,,,,,,,,,,,,,,,,,,,,,,,,,,,,,,,,,,,,,,,,,,,,,,,,,,,,,,,,,,,,,,,,,,,,,,,,,,,,,,
,,,,,,,,,,stimuli/images/PICTURE_215.png,PLENTY,5ead2b253bb47c3b40b94425,04/05/1991,2020-08-13_13h58.32.435,proactive2,2020.1.2,Win32,60,5f341be081b9052c55068110,5f3537400853f23053a59fc0,2,,,,,,boot,,,,,,0,0,0,37,1,4,0,,,,,,,,,,,,,,,,,,,,,,,,,,,,,,,,,,,,,,,,,,,,,,,,,,,,,,,,,,,,,,,,,,,,,,,,,,,,,,,,,,,,,,,,,,,,,,,,,,,
,,,,,,,,,,stimuli/images/PICTURE_708.png,PENNY,5ead2b253bb47c3b40b94425,04/05/1991,2020-08-13_13h58.32.435,proactive2,2020.1.2,Win32,60,5f341be081b9052c55068110,5f3537400853f23053a59fc0,2,,,,,,monkey,,,,,,0,1,1,31,1,4,0,,,,,,,,,,,,,,,,,,,,,,,,,,,,,,,,,,,,,,,,,,,,,,,,,,,,,,,,,,,,,,,,,,,,,,,,,,,,,,,,,,,,,,,,,,,,,,,,,,,
,,,,,,,,,,stimuli/images/PICTURE_302.png,FAMILY,5ead2b253bb47c3b40b94425,04/05/1991,2020-08-13_13h58.32.435,proactive2,2020.1.2,Win32,60,5f341be081b9052c55068110,5f3537400853f23053a59fc0,2,,,,,,taxi,,,,,,0,2,2,18,1,2,0,,,,,,,,,,,,,,,,,,,,,,,,,,,,,,,,,,,,,,,,,,,,,,,,,,,,,,,,,,,,,,,,,,,,,,,,,,,,,,,,,,,,,,,,,,,,,,,,,,,
,,,,,,,,,,stimuli/images/PICTURE_233.png,WOMEN,5ead2b253bb47c3b40b94425,04/05/1991,2020-08-13_13h58.32.435,proactive2,2020.1.2,Win32,60,5f341be081b9052c55068110,5f3537400853f23053a59fc0,2,,,,,,salt,,,,,,0,3,3,38,1,4,0,,,,,,,,,,,,,,,,,,,,,,,,,,,,,,,,,,,,,,,,,,,,,,,,,,,,,,,,,,,,,,,,,,,,,,,,,,,,,,,,,,,,,,,,,,,,,,,,,,,
,,,,,,,,,,stimuli/images/PICTURE_675.png,WEAPON,5ead2b253bb47c3b40b94425,04/05/1991,2020-08-13_13h58.32.435,proactive2,2020.1.2,Win32,60,5f341be081b9052c55068110,5f3537400853f23053a59fc0,2,,,,,,windmill,,,,,,0,4,4,32,1,4,0,,,,,,,,,,,,,,,,,,,,,,,,,,,,,,,,,,,,,,,,,,,,,,,,,,,,,,,,,,,,,,,,,,,,,,,,,,,,,,,,,,,,,,,,,,,,,,,,,,,
,,,,,,,,,,stimuli/images/PICTURE_380.png,DEATH,5ead2b253bb47c3b40b94425,04/05/1991,2020-08-13_13h58.32.435,proactive2,2020.1.2,Win32,60,5f341be081b9052c55068110,5f3537400853f23053a59fc0,2,,,,,,gorilla,,,,,,0,5,5,49,1,5,0,,,,,,,,,,,,,,,,,,,,,,,,,,,,,,,,,,,,,,,,,,,,,,,,,,,,,,,,,,,,,,,,,,,,,,,,,,,,,,,,,,,,,,,,,,,,,,,,,,,
,,,,,,,,,,stimuli/images/PICTURE_488.png,STYLE,5ead2b253bb47c3b40b94425,04/05/1991,2020-08-13_13h58.32.435,proactive2,2020.1.2,Win32,60,5f341be081b9052c55068110,5f3537400853f23053a59fc0,2,,,,,,sun,,,,,,0,6,6,33,1,4,0,,,,,,,,,,,,,,,,,,,,,,,,,,,,,,,,,,,,,,,,,,,,,,,,,,,,,,,,,,,,,,,,,,,,,,,,,,,,,,,,,,,,,,,,,,,,,,,,,,,
,,,,,,,,,,stimuli/images/PICTURE_255.png,AREA,5ead2b253bb47c3b40b94425,04/05/1991,2020-08-13_13h58.32.435,proactive2,2020.1.2,Win32,60,5f341be081b9052c55068110,5f3537400853f23053a59fc0,2,,,,,,shovel,,,,,,0,7,7,22,1,3,0,,,,,,,,,,,,,,,,,,,,,,,,,,,,,,,,,,,,,,,,,,,,,,,,,,,,,,,,,,,,,,,,,,,,,,,,,,,,,,,,,,,,,,,,,,,,,,,,,,,
,,,,,,,,,,stimuli/images/PICTURE_453.png,PLENTY,5ead2b253bb47c3b40b94425,04/05/1991,2020-08-13_13h58.32.435,proactive2,2020.1.2,Win32,60,5f341be081b9052c55068110,5f3537400853f23053a59fc0,2,,,,,,scissors,,,,,,0,8,8,56,1,6,0,,,,,,,,,,,,,,,,,,,,,,,,,,,,,,,,,,,,,,,,,,,,,,,,,,,,,,,,,,,,,,,,,,,,,,,,,,,,,,,,,,,,,,,,,,,,,,,,,,,
,,,,,,,,,,stimuli/images/PICTURE_380.png,PHOTO,5ead2b253bb47c3b40b94425,04/05/1991,2020-08-13_13h58.32.435,proactive2,2020.1.2,Win32,60,5f341be081b9052c55068110,5f3537400853f23053a59fc0,2,,,,,,gorilla,,,,,,0,9,9,52,1,6,0,,,,,,,,,,,,,,,,,,,,,,,,,,,,,,,,,,,,,,,,,,,,,,,,,,,,,,,,,,,,,,,,,,,,,,,,,,,,,,,,,,,,,,,,,,,,,,,,,,,
,,,,,,,,,,stimuli/images/PICTURE_177.png,CARS,5ead2b253bb47c3b40b94425,04/05/1991,2020-08-13_13h58.32.435,proactive2,2020.1.2,Win32,60,5f341be081b9052c55068110,5f3537400853f23053a59fc0,2,,,,,,mushroom,,,,,,0,10,10,35,1,4,0,,,,,,,,,,,,,,,,,,,,,,,,,,,,,,,,,,,,,,,,,,,,,,,,,,,,,,,,,,,,,,,,,,,,,,,,,,,,,,,,,,,,,,,,,,,,,,,,,,,
,,,,,,,,,,stimuli/images/PICTURE_744.png,SYSTEM,5ead2b253bb47c3b40b94425,04/05/1991,2020-08-13_13h58.32.435,proactive2,2020.1.2,Win32,60,5f341be081b9052c55068110,5f3537400853f23053a59fc0,2,,,,,,ring,,,,,,0,11,11,43,1,5,0,,,,,,,,,,,,,,,,,,,,,,,,,,,,,,,,,,,,,,,,,,,,,,,,,,,,,,,,,,,,,,,,,,,,,,,,,,,,,,,,,,,,,,,,,,,,,,,,,,,
,,,,,,,,,,stimuli/images/PICTURE_151.png,GIRL,5ead2b253bb47c3b40b94425,04/05/1991,2020-08-13_13h58.32.435,proactive2,2020.1.2,Win32,60,5f341be081b9052c55068110,5f3537400853f23053a59fc0,2,,,,,,tray,,,,,,0,12,12,19,1,2,0,,,,,,,,,,,,,,,,,,,,,,,,,,,,,,,,,,,,,,,,,,,,,,,,,,,,,,,,,,,,,,,,,,,,,,,,,,,,,,,,,,,,,,,,,,,,,,,,,,,
,,,,,,,,,,stimuli/images/PICTURE_160.png,LEADER,5ead2b253bb47c3b40b94425,04/05/1991,2020-08-13_13h58.32.435,proactive2,2020.1.2,Win32,60,5f341be081b9052c55068110,5f3537400853f23053a59fc0,2,,,,,,wheelbarrow,,,,,,0,13,13,3,1,1,0,,,,,,,,,,,,,,,,,,,,,,,,,,,,,,,,,,,,,,,,,,,,,,,,,,,,,,,,,,,,,,,,,,,,,,,,,,,,,,,,,,,,,,,,,,,,,,,,,,,
,,,,,,,,,,stimuli/images/PICTURE_85.png,THING,5ead2b253bb47c3b40b94425,04/05/1991,2020-08-13_13h58.32.435,proactive2,2020.1.2,Win32,60,5f341be081b9052c55068110,5f3537400853f23053a59fc0,2,,,,,,diamond,,,,,,0,14,14,15,1,2,0,,,,,,,,,,,,,,,,,,,,,,,,,,,,,,,,,,,,,,,,,,,,,,,,,,,,,,,,,,,,,,,,,,,,,,,,,,,,,,,,,,,,,,,,,,,,,,,,,,,
,,,,,,,,,,stimuli/images/PICTURE_667.png,PLENTY,5ead2b253bb47c3b40b94425,04/05/1991,2020-08-13_13h58.32.435,proactive2,2020.1.2,Win32,60,5f341be081b9052c55068110,5f3537400853f23053a59fc0,2,,,,,,daisy,,,,,,0,15,15,41,1,5,0,,,,,,,,,,,,,,,,,,,,,,,,,,,,,,,,,,,,,,,,,,,,,,,,,,,,,,,,,,,,,,,,,,,,,,,,,,,,,,,,,,,,,,,,,,,,,,,,,,,
,,,,,,,,,,stimuli/images/PICTURE_68.png,MILE,5ead2b253bb47c3b40b94425,04/05/1991,2020-08-13_13h58.32.435,proactive2,2020.1.2,Win32,60,5f341be081b9052c55068110,5f3537400853f23053a59fc0,2,,,,,,candle,,,,,,0,16,16,44,1,5,0,,,,,,,,,,,,,,,,,,,,,,,,,,,,,,,,,,,,,,,,,,,,,,,,,,,,,,,,,,,,,,,,,,,,,,,,,,,,,,,,,,,,,,,,,,,,,,,,,,,
,,,,,,,,,,stimuli/images/PICTURE_208.png,MONTH,5ead2b253bb47c3b40b94425,04/05/1991,2020-08-13_13h58.32.435,proactive2,2020.1.2,Win32,60,5f341be081b9052c55068110,5f3537400853f23053a59fc0,2,,,,,,microphone,,,,,,0,17,17,53,1,6,0,,,,,,,,,,,,,,,,,,,,,,,,,,,,,,,,,,,,,,,,,,,,,,,,,,,,,,,,,,,,,,,,,,,,,,,,,,,,,,,,,,,,,,,,,,,,,,,,,,,
,,,,,,,,,,stimuli/images/PICTURE_688.png,CASINO,5ead2b253bb47c3b40b94425,04/05/1991,2020-08-13_13h58.32.435,proactive2,2020.1.2,Win32,60,5f341be081b9052c55068110,5f3537400853f23053a59fc0,2,,,,,,runner,,,,,,0,18,18,2,1,1,0,,,,,,,,,,,,,,,,,,,,,,,,,,,,,,,,,,,,,,,,,,,,,,,,,,,,,,,,,,,,,,,,,,,,,,,,,,,,,,,,,,,,,,,,,,,,,,,,,,,
,,,,,,,,,,stimuli/images/PICTURE_311.png,BEAUTY,5ead2b253bb47c3b40b94425,04/05/1991,2020-08-13_13h58.32.435,proactive2,2020.1.2,Win32,60,5f341be081b9052c55068110,5f3537400853f23053a59fc0,2,,,,,,razor,,,,,,0,19,19,13,1,2,0,,,,,,,,,,,,,,,,,,,,,,,,,,,,,,,,,,,,,,,,,,,,,,,,,,,,,,,,,,,,,,,,,,,,,,,,,,,,,,,,,,,,,,,,,,,,,,,,,,,
,,,,,,,,,,stimuli/images/PICTURE_692.png,MONTH,5ead2b253bb47c3b40b94425,04/05/1991,2020-08-13_13h58.32.435,proactive2,2020.1.2,Win32,60,5f341be081b9052c55068110,5f3537400853f23053a59fc0,2,,,,,,cherry,,,,,,0,20,20,16,1,2,0,,,,,,,,,,,,,,,,,,,,,,,,,,,,,,,,,,,,,,,,,,,,,,,,,,,,,,,,,,,,,,,,,,,,,,,,,,,,,,,,,,,,,,,,,,,,,,,,,,,
,,,,,,,,,,stimuli/images/PICTURE_491.png,WRITER,5ead2b253bb47c3b40b94425,04/05/1991,2020-08-13_13h58.32.435,proactive2,2020.1.2,Win32,60,5f341be081b9052c55068110,5f3537400853f23053a59fc0,2,,,,,,rug,,,,,,0,21,21,57,1,6,0,,,,,,,,,,,,,,,,,,,,,,,,,,,,,,,,,,,,,,,,,,,,,,,,,,,,,,,,,,,,,,,,,,,,,,,,,,,,,,,,,,,,,,,,,,,,,,,,,,,
,,,,,,,,,,stimuli/images/PICTURE_667.png,BATH,5ead2b253bb47c3b40b94425,04/05/1991,2020-08-13_13h58.32.435,proactive2,2020.1.2,Win32,60,5f341be081b9052c55068110,5f3537400853f23053a59fc0,2,,,,,,daisy,,,,,,0,22,22,4,1,1,0,,,,,,,,,,,,,,,,,,,,,,,,,,,,,,,,,,,,,,,,,,,,,,,,,,,,,,,,,,,,,,,,,,,,,,,,,,,,,,,,,,,,,,,,,,,,,,,,,,,
,,,,,,,,,,stimuli/images/PICTURE_123.png,ADVICE,5ead2b253bb47c3b40b94425,04/05/1991,2020-08-13_13h58.32.435,proactive2,2020.1.2,Win32,60,5f341be081b9052c55068110,5f3537400853f23053a59fc0,2,,,,,,dart,,,,,,0,23,23,40,1,5,0,,,,,,,,,,,,,,,,,,,,,,,,,,,,,,,,,,,,,,,,,,,,,,,,,,,,,,,,,,,,,,,,,,,,,,,,,,,,,,,,,,,,,,,,,,,,,,,,,,,
,,,,,,,,,,stimuli/images/PICTURE_311.png,FRIEND,5ead2b253bb47c3b40b94425,04/05/1991,2020-08-13_13h58.32.435,proactive2,2020.1.2,Win32,60,5f341be081b9052c55068110,5f3537400853f23053a59fc0,2,,,,,,razor,,,,,,0,24,24,34,1,4,0,,,,,,,,,,,,,,,,,,,,,,,,,,,,,,,,,,,,,,,,,,,,,,,,,,,,,,,,,,,,,,,,,,,,,,,,,,,,,,,,,,,,,,,,,,,,,,,,,,,
,,,,,,,,,,stimuli/images/PICTURE_308.png,ESTATE,5ead2b253bb47c3b40b94425,04/05/1991,2020-08-13_13h58.32.435,proactive2,2020.1.2,Win32,60,5f341be081b9052c55068110,5f3537400853f23053a59fc0,2,,,,,,dice,,,,,,0,25,25,46,1,5,0,,,,,,,,,,,,,,,,,,,,,,,,,,,,,,,,,,,,,,,,,,,,,,,,,,,,,,,,,,,,,,,,,,,,,,,,,,,,,,,,,,,,,,,,,,,,,,,,,,,
,,,,,,,,,,stimuli/images/PICTURE_348.png,SPEECH,5ead2b253bb47c3b40b94425,04/05/1991,2020-08-13_13h58.32.435,proactive2,2020.1.2,Win32,60,5f341be081b9052c55068110,5f3537400853f23053a59fc0,2,,,,,,pepper,,,,,,0,26,26,20,1,3,0,,,,,,,,,,,,,,,,,,,,,,,,,,,,,,,,,,,,,,,,,,,,,,,,,,,,,,,,,,,,,,,,,,,,,,,,,,,,,,,,,,,,,,,,,,,,,,,,,,,
,,,,,,,,,,stimuli/images/PICTURE_708.png,YARD,5ead2b253bb47c3b40b94425,04/05/1991,2020-08-13_13h58.32.435,proactive2,2020.1.2,Win32,60,5f341be081b9052c55068110,5f3537400853f23053a59fc0,2,,,,,,monkey,,,,,,0,27,27,29,1,3,0,,,,,,,,,,,,,,,,,,,,,,,,,,,,,,,,,,,,,,,,,,,,,,,,,,,,,,,,,,,,,,,,,,,,,,,,,,,,,,,,,,,,,,,,,,,,,,,,,,,
,,,,,,,,,,stimuli/images/PICTURE_314.png,GODS,5ead2b253bb47c3b40b94425,04/05/1991,2020-08-13_13h58.32.435,proactive2,2020.1.2,Win32,60,5f341be081b9052c55068110,5f3537400853f23053a59fc0,2,,,,,,perfume,,,,,,0,28,28,11,1,2,0,,,,,,,,,,,,,,,,,,,,,,,,,,,,,,,,,,,,,,,,,,,,,,,,,,,,,,,,,,,,,,,,,,,,,,,,,,,,,,,,,,,,,,,,,,,,,,,,,,,
,,,,,,,,,,stimuli/images/PICTURE_449.png,THING,5ead2b253bb47c3b40b94425,04/05/1991,2020-08-13_13h58.32.435,proactive2,2020.1.2,Win32,60,5f341be081b9052c55068110,5f3537400853f23053a59fc0,2,,,,,,bench,,,,,,0,29,29,59,1,6,0,,,,,,,,,,,,,,,,,,,,,,,,,,,,,,,,,,,,,,,,,,,,,,,,,,,,,,,,,,,,,,,,,,,,,,,,,,,,,,,,,,,,,,,,,,,,,,,,,,,
,,,,,,,,,,stimuli/images/PICTURE_327.png,BEAUTY,5ead2b253bb47c3b40b94425,04/05/1991,2020-08-13_13h58.32.435,proactive2,2020.1.2,Win32,60,5f341be081b9052c55068110,5f3537400853f23053a59fc0,2,,,,,,helmet,,,,,,0,30,30,48,1,5,0,,,,,,,,,,,,,,,,,,,,,,,,,,,,,,,,,,,,,,,,,,,,,,,,,,,,,,,,,,,,,,,,,,,,,,,,,,,,,,,,,,,,,,,,,,,,,,,,,,,
,,,,,,,,,,stimuli/images/PICTURE_487.png,FLIGHT,5ead2b253bb47c3b40b94425,04/05/1991,2020-08-13_13h58.32.435,proactive2,2020.1.2,Win32,60,5f341be081b9052c55068110,5f3537400853f23053a59fc0,2,,,,,,basket,,,,,,0,31,31,9,1,1,0,,,,,,,,,,,,,,,,,,,,,,,,,,,,,,,,,,,,,,,,,,,,,,,,,,,,,,,,,,,,,,,,,,,,,,,,,,,,,,,,,,,,,,,,,,,,,,,,,,,
,,,,,,,,,,stimuli/images/PICTURE_677.png,MILE,5ead2b253bb47c3b40b94425,04/05/1991,2020-08-13_13h58.32.435,proactive2,2020.1.2,Win32,60,5f341be081b9052c55068110,5f3537400853f23053a59fc0,2,,,,,,map,,,,,,0,32,32,30,1,4,0,,,,,,,,,,,,,,,,,,,,,,,,,,,,,,,,,,,,,,,,,,,,,,,,,,,,,,,,,,,,,,,,,,,,,,,,,,,,,,,,,,,,,,,,,,,,,,,,,,,
,,,,,,,,,,stimuli/images/PICTURE_744.png,SAKE,5ead2b253bb47c3b40b94425,04/05/1991,2020-08-13_13h58.32.435,proactive2,2020.1.2,Win32,60,5f341be081b9052c55068110,5f3537400853f23053a59fc0,2,,,,,,ring,,,,,,0,33,33,17,1,2,0,,,,,,,,,,,,,,,,,,,,,,,,,,,,,,,,,,,,,,,,,,,,,,,,,,,,,,,,,,,,,,,,,,,,,,,,,,,,,,,,,,,,,,,,,,,,,,,,,,,
,,,,,,,,,,stimuli/images/PICTURE_467.png,DEMON,5ead2b253bb47c3b40b94425,04/05/1991,2020-08-13_13h58.32.435,proactive2,2020.1.2,Win32,60,5f341be081b9052c55068110,5f3537400853f23053a59fc0,2,,,,,,peg,,,,,,0,34,34,23,1,3,0,,,,,,,,,,,,,,,,,,,,,,,,,,,,,,,,,,,,,,,,,,,,,,,,,,,,,,,,,,,,,,,,,,,,,,,,,,,,,,,,,,,,,,,,,,,,,,,,,,,
,,,,,,,,,,stimuli/images/PICTURE_285.png,ADVICE,5ead2b253bb47c3b40b94425,04/05/1991,2020-08-13_13h58.32.435,proactive2,2020.1.2,Win32,60,5f341be081b9052c55068110,5f3537400853f23053a59fc0,2,,,,,,carrot,,,,,,0,35,35,12,1,2,0,,,,,,,,,,,,,,,,,,,,,,,,,,,,,,,,,,,,,,,,,,,,,,,,,,,,,,,,,,,,,,,,,,,,,,,,,,,,,,,,,,,,,,,,,,,,,,,,,,,
,,,,,,,,,,stimuli/images/PICTURE_203.png,ARTIST,5ead2b253bb47c3b40b94425,04/05/1991,2020-08-13_13h58.32.435,proactive2,2020.1.2,Win32,60,5f341be081b9052c55068110,5f3537400853f23053a59fc0,2,,,,,,cap,,,,,,0,36,36,26,1,3,0,,,,,,,,,,,,,,,,,,,,,,,,,,,,,,,,,,,,,,,,,,,,,,,,,,,,,,,,,,,,,,,,,,,,,,,,,,,,,,,,,,,,,,,,,,,,,,,,,,,
,,,,,,,,,,stimuli/images/PICTURE_160.png,FEET,5ead2b253bb47c3b40b94425,04/05/1991,2020-08-13_13h58.32.435,proactive2,2020.1.2,Win32,60,5f341be081b9052c55068110,5f3537400853f23053a59fc0,2,,,,,,wheelbarrow,,,,,,0,37,37,58,1,6,0,,,,,,,,,,,,,,,,,,,,,,,,,,,,,,,,,,,,,,,,,,,,,,,,,,,,,,,,,,,,,,,,,,,,,,,,,,,,,,,,,,,,,,,,,,,,,,,,,,,
,,,,,,,,,,stimuli/images/PICTURE_32.png,JUNGLE,5ead2b253bb47c3b40b94425,04/05/1991,2020-08-13_13h58.32.435,proactive2,2020.1.2,Win32,60,5f341be081b9052c55068110,5f3537400853f23053a59fc0,2,,,,,,crown,,,,,,0,38,38,45,1,5,0,,,,,,,,,,,,,,,,,,,,,,,,,,,,,,,,,,,,,,,,,,,,,,,,,,,,,,,,,,,,,,,,,,,,,,,,,,,,,,,,,,,,,,,,,,,,,,,,,,,
,,,,,,,,,,stimuli/images/PICTURE_314.png,SAKE,5ead2b253bb47c3b40b94425,04/05/1991,2020-08-13_13h58.32.435,proactive2,2020.1.2,Win32,60,5f341be081b9052c55068110,5f3537400853f23053a59fc0,2,,,,,,perfume,,,,,,0,39,39,7,1,1,0,,,,,,,,,,,,,,,,,,,,,,,,,,,,,,,,,,,,,,,,,,,,,,,,,,,,,,,,,,,,,,,,,,,,,,,,,,,,,,,,,,,,,,,,,,,,,,,,,,,
,,,,,,,,,,stimuli/images/PICTURE_123.png,ADVICE,5ead2b253bb47c3b40b94425,04/05/1991,2020-08-13_13h58.32.435,proactive2,2020.1.2,Win32,60,5f341be081b9052c55068110,5f3537400853f23053a59fc0,2,,,,,,dart,,,,,,0,40,40,50,1,6,0,,,,,,,,,,,,,,,,,,,,,,,,,,,,,,,,,,,,,,,,,,,,,,,,,,,,,,,,,,,,,,,,,,,,,,,,,,,,,,,,,,,,,,,,,,,,,,,,,,,
,,,,,,,,,,stimuli/images/PICTURE_654.png,VALLEY,5ead2b253bb47c3b40b94425,04/05/1991,2020-08-13_13h58.32.435,proactive2,2020.1.2,Win32,60,5f341be081b9052c55068110,5f3537400853f23053a59fc0,2,,,,,,pencil,,,,,,0,41,41,1,1,1,0,,,,,,,,,,,,,,,,,,,,,,,,,,,,,,,,,,,,,,,,,,,,,,,,,,,,,,,,,,,,,,,,,,,,,,,,,,,,,,,,,,,,,,,,,,,,,,,,,,,
,,,,,,,,,,stimuli/images/PICTURE_470.png,CASINO,5ead2b253bb47c3b40b94425,04/05/1991,2020-08-13_13h58.32.435,proactive2,2020.1.2,Win32,60,5f341be081b9052c55068110,5f3537400853f23053a59fc0,2,,,,,,motorbike,,,,,,0,42,42,36,1,4,0,,,,,,,,,,,,,,,,,,,,,,,,,,,,,,,,,,,,,,,,,,,,,,,,,,,,,,,,,,,,,,,,,,,,,,,,,,,,,,,,,,,,,,,,,,,,,,,,,,,
,,,,,,,,,,stimuli/images/PICTURE_688.png,WOMEN,5ead2b253bb47c3b40b94425,04/05/1991,2020-08-13_13h58.32.435,proactive2,2020.1.2,Win32,60,5f341be081b9052c55068110,5f3537400853f23053a59fc0,2,,,,,,runner,,,,,,0,43,43,14,1,2,0,,,,,,,,,,,,,,,,,,,,,,,,,,,,,,,,,,,,,,,,,,,,,,,,,,,,,,,,,,,,,,,,,,,,,,,,,,,,,,,,,,,,,,,,,,,,,,,,,,,
,,,,,,,,,,stimuli/images/PICTURE_233.png,IDEAS,5ead2b253bb47c3b40b94425,04/05/1991,2020-08-13_13h58.32.435,proactive2,2020.1.2,Win32,60,5f341be081b9052c55068110,5f3537400853f23053a59fc0,2,,,,,,salt,,,,,,0,44,44,28,1,3,0,,,,,,,,,,,,,,,,,,,,,,,,,,,,,,,,,,,,,,,,,,,,,,,,,,,,,,,,,,,,,,,,,,,,,,,,,,,,,,,,,,,,,,,,,,,,,,,,,,,
,,,,,,,,,,stimuli/images/PICTURE_208.png,LOTS,5ead2b253bb47c3b40b94425,04/05/1991,2020-08-13_13h58.32.435,proactive2,2020.1.2,Win32,60,5f341be081b9052c55068110,5f3537400853f23053a59fc0,2,,,,,,microphone,,,,,,0,45,45,10,1,2,0,,,,,,,,,,,,,,,,,,,,,,,,,,,,,,,,,,,,,,,,,,,,,,,,,,,,,,,,,,,,,,,,,,,,,,,,,,,,,,,,,,,,,,,,,,,,,,,,,,,
,,,,,,,,,,stimuli/images/PICTURE_469.png,LETTER,5ead2b253bb47c3b40b94425,04/05/1991,2020-08-13_13h58.32.435,proactive2,2020.1.2,Win32,60,5f341be081b9052c55068110,5f3537400853f23053a59fc0,2,,,,,,stool,,,,,,0,46,46,42,1,5,0,,,,,,,,,,,,,,,,,,,,,,,,,,,,,,,,,,,,,,,,,,,,,,,,,,,,,,,,,,,,,,,,,,,,,,,,,,,,,,,,,,,,,,,,,,,,,,,,,,,
,,,,,,,,,,stimuli/images/PICTURE_491.png,ROOF,5ead2b253bb47c3b40b94425,04/05/1991,2020-08-13_13h58.32.435,proactive2,2020.1.2,Win32,60,5f341be081b9052c55068110,5f3537400853f23053a59fc0,2,,,,,,rug,,,,,,0,47,47,24,1,3,0,,,,,,,,,,,,,,,,,,,,,,,,,,,,,,,,,,,,,,,,,,,,,,,,,,,,,,,,,,,,,,,,,,,,,,,,,,,,,,,,,,,,,,,,,,,,,,,,,,,
,,,,,,,,,,stimuli/images/PICTURE_248.png,DOZEN,5ead2b253bb47c3b40b94425,04/05/1991,2020-08-13_13h58.32.435,proactive2,2020.1.2,Win32,60,5f341be081b9052c55068110,5f3537400853f23053a59fc0,2,,,,,,cart,,,,,,0,48,48,39,1,4,0,,,,,,,,,,,,,,,,,,,,,,,,,,,,,,,,,,,,,,,,,,,,,,,,,,,,,,,,,,,,,,,,,,,,,,,,,,,,,,,,,,,,,,,,,,,,,,,,,,,
,,,,,,,,,,stimuli/images/PICTURE_308.png,KIND,5ead2b253bb47c3b40b94425,04/05/1991,2020-08-13_13h58.32.435,proactive2,2020.1.2,Win32,60,5f341be081b9052c55068110,5f3537400853f23053a59fc0,2,,,,,,dice,,,,,,0,49,49,54,1,6,0,,,,,,,,,,,,,,,,,,,,,,,,,,,,,,,,,,,,,,,,,,,,,,,,,,,,,,,,,,,,,,,,,,,,,,,,,,,,,,,,,,,,,,,,,,,,,,,,,,,
,,,,,,,,,,stimuli/images/PICTURE_339.png,PLENTY,5ead2b253bb47c3b40b94425,04/05/1991,2020-08-13_13h58.32.435,proactive2,2020.1.2,Win32,60,5f341be081b9052c55068110,5f3537400853f23053a59fc0,2,,,,,,backpack,,,,,,0,50,50,0,1,1,0,,,,,,,,,,,,,,,,,,,,,,,,,,,,,,,,,,,,,,,,,,,,,,,,,,,,,,,,,,,,,,,,,,,,,,,,,,,,,,,,,,,,,,,,,,,,,,,,,,,
,,,,,,,,,,stimuli/images/PICTURE_208.png,THING,5ead2b253bb47c3b40b94425,04/05/1991,2020-08-13_13h58.32.435,proactive2,2020.1.2,Win32,60,5f341be081b9052c55068110,5f3537400853f23053a59fc0,2,,,,,,microphone,,,,,,0,51,51,47,1,5,0,,,,,,,,,,,,,,,,,,,,,,,,,,,,,,,,,,,,,,,,,,,,,,,,,,,,,,,,,,,,,,,,,,,,,,,,,,,,,,,,,,,,,,,,,,,,,,,,,,,
,,,,,,,,,,stimuli/images/PICTURE_453.png,DUDE,5ead2b253bb47c3b40b94425,04/05/1991,2020-08-13_13h58.32.435,proactive2,2020.1.2,Win32,60,5f341be081b9052c55068110,5f3537400853f23053a59fc0,2,,,,,,scissors,,,,,,0,52,52,27,1,3,0,,,,,,,,,,,,,,,,,,,,,,,,,,,,,,,,,,,,,,,,,,,,,,,,,,,,,,,,,,,,,,,,,,,,,,,,,,,,,,,,,,,,,,,,,,,,,,,,,,,
,,,,,,,,,,stimuli/images/PICTURE_356.png,DANGER,5ead2b253bb47c3b40b94425,04/05/1991,2020-08-13_13h58.32.435,proactive2,2020.1.2,Win32,60,5f341be081b9052c55068110,5f3537400853f23053a59fc0,2,,,,,,pawn,,,,,,0,53,53,55,1,6,0,,,,,,,,,,,,,,,,,,,,,,,,,,,,,,,,,,,,,,,,,,,,,,,,,,,,,,,,,,,,,,,,,,,,,,,,,,,,,,,,,,,,,,,,,,,,,,,,,,,
,,,,,,,,,,stimuli/images/PICTURE_469.png,ARTIST,5ead2b253bb47c3b40b94425,04/05/1991,2020-08-13_13h58.32.435,proactive2,2020.1.2,Win32,60,5f341be081b9052c55068110,5f3537400853f23053a59fc0,2,,,,,,stool,,,,,,0,54,54,6,1,1,0,,,,,,,,,,,,,,,,,,,,,,,,,,,,,,,,,,,,,,,,,,,,,,,,,,,,,,,,,,,,,,,,,,,,,,,,,,,,,,,,,,,,,,,,,,,,,,,,,,,
,,,,,,,,,,stimuli/images/PICTURE_95.png,STYLE,5ead2b253bb47c3b40b94425,04/05/1991,2020-08-13_13h58.32.435,proactive2,2020.1.2,Win32,60,5f341be081b9052c55068110,5f3537400853f23053a59fc0,2,,,,,,suitcase,,,,,,0,55,55,25,1,3,0,,,,,,,,,,,,,,,,,,,,,,,,,,,,,,,,,,,,,,,,,,,,,,,,,,,,,,,,,,,,,,,,,,,,,,,,,,,,,,,,,,,,,,,,,,,,,,,,,,,
,,,,,,,,,,stimuli/images/PICTURE_509.png,PHOTO,5ead2b253bb47c3b40b94425,04/05/1991,2020-08-13_13h58.32.435,proactive2,2020.1.2,Win32,60,5f341be081b9052c55068110,5f3537400853f23053a59fc0,2,,,,,,telephone,,,,,,0,56,56,21,1,3,0,,,,,,,,,,,,,,,,,,,,,,,,,,,,,,,,,,,,,,,,,,,,,,,,,,,,,,,,,,,,,,,,,,,,,,,,,,,,,,,,,,,,,,,,,,,,,,,,,,,
,,,,,,,,,,stimuli/images/PICTURE_504.png,BODY,5ead2b253bb47c3b40b94425,04/05/1991,2020-08-13_13h58.32.435,proactive2,2020.1.2,Win32,60,5f341be081b9052c55068110,5f3537400853f23053a59fc0,2,,,,,,wheel,,,,,,0,57,57,8,1,1,0,,,,,,,,,,,,,,,,,,,,,,,,,,,,,,,,,,,,,,,,,,,,,,,,,,,,,,,,,,,,,,,,,,,,,,,,,,,,,,,,,,,,,,,,,,,,,,,,,,,
,,,,,,,,,,stimuli/images/PICTURE_708.png,CLIENT,5ead2b253bb47c3b40b94425,04/05/1991,2020-08-13_13h58.32.435,proactive2,2020.1.2,Win32,60,5f341be081b9052c55068110,5f3537400853f23053a59fc0,2,,,,,,monkey,,,,,,0,58,58,5,1,1,0,,,,,,,,,,,,,,,,,,,,,,,,,,,,,,,,,,,,,,,,,,,,,,,,,,,,,,,,,,,,,,,,,,,,,,,,,,,,,,,,,,,,,,,,,,,,,,,,,,,
,,?,0.004175,0,,,,,,stimuli/images/PICTURE_255.png,AREA,5ead2b253bb47c3b40b94425,04/05/1991,2020-08-13_13h58.32.435,proactive2,2020.1.2,Win32,60,5f341be081b9052c55068110,5f3537400853f23053a59fc0,2,,,,,,shovel,,,,,,,,,,,3,0,0,0,0,22,1,,,,,,,,,,,,,,,,,,,,,,,,,,,,,,,,,,,,,,,,,,,,,,,,,,,,,,,,,,,,,,,,,,,,,,,,,,,,,,,,,,,,,,,,,,,,,,
,,?,0.004485,0,,,,,,stimuli/images/PICTURE_509.png,PHOTO,5ead2b253bb47c3b40b94425,04/05/1991,2020-08-13_13h58.32.435,proactive2,2020.1.2,Win32,60,5f341be081b9052c55068110,5f3537400853f23053a59fc0,2,,,,,,telephone,,,,,,,,,,,3,0,0,1,1,21,1,,,,,,,,,,,,,,,,,,,,,,,,,,,,,,,,,,,,,,,,,,,,,,,,,,,,,,,,,,,,,,,,,,,,,,,,,,,,,,,,,,,,,,,,,,,,,,
,,?,0.00371,0,,,,,,stimuli/images/PICTURE_177.png,CARS,5ead2b253bb47c3b40b94425,04/05/1991,2020-08-13_13h58.32.435,proactive2,2020.1.2,Win32,60,5f341be081b9052c55068110,5f3537400853f23053a59fc0,2,,,,,,mushroom,,,,,,,,,,,4,0,0,2,2,35,1,,,,,,,,,,,,,,,,,,,,,,,,,,,,,,,,,,,,,,,,,,,,,,,,,,,,,,,,,,,,,,,,,,,,,,,,,,,,,,,,,,,,,,,,,,,,,,
,,?,0.003255,0,,,,,,stimuli/images/PICTURE_248.png,DOZEN,5ead2b253bb47c3b40b94425,04/05/1991,2020-08-13_13h58.32.435,proactive2,2020.1.2,Win32,60,5f341be081b9052c55068110,5f3537400853f23053a59fc0,2,,,,,,cart,,,,,,,,,,,4,0,0,3,3,39,1,,,,,,,,,,,,,,,,,,,,,,,,,,,,,,,,,,,,,,,,,,,,,,,,,,,,,,,,,,,,,,,,,,,,,,,,,,,,,,,,,,,,,,,,,,,,,,
,,?,0.005275,0,,,,,,stimuli/images/PICTURE_453.png,PLENTY,5ead2b253bb47c3b40b94425,04/05/1991,2020-08-13_13h58.32.435,proactive2,2020.1.2,Win32,60,5f341be081b9052c55068110,5f3537400853f23053a59fc0,2,,,,,,scissors,,,,,,,,,,,6,0,0,4,4,56,1,,,,,,,,,,,,,,,,,,,,,,,,,,,,,,,,,,,,,,,,,,,,,,,,,,,,,,,,,,,,,,,,,,,,,,,,,,,,,,,,,,,,,,,,,,,,,,
,,?,0.003765,0,,,,,,stimuli/images/PICTURE_677.png,MILE,5ead2b253bb47c3b40b94425,04/05/1991,2020-08-13_13h58.32.435,proactive2,2020.1.2,Win32,60,5f341be081b9052c55068110,5f3537400853f23053a59fc0,2,,,,,,map,,,,,,,,,,,4,0,0,5,5,30,1,,,,,,,,,,,,,,,,,,,,,,,,,,,,,,,,,,,,,,,,,,,,,,,,,,,,,,,,,,,,,,,,,,,,,,,,,,,,,,,,,,,,,,,,,,,,,,
,,?,0.00357,0,,,,,,stimuli/images/PICTURE_233.png,WOMEN,5ead2b253bb47c3b40b94425,04/05/1991,2020-08-13_13h58.32.435,proactive2,2020.1.2,Win32,60,5f341be081b9052c55068110,5f3537400853f23053a59fc0,2,,,,,,salt,,,,,,,,,,,4,0,0,6,6,38,1,,,,,,,,,,,,,,,,,,,,,,,,,,,,,,,,,,,,,,,,,,,,,,,,,,,,,,,,,,,,,,,,,,,,,,,,,,,,,,,,,,,,,,,,,,,,,,
,,SAKE,4.03703,0,,,,,,stimuli/images/PICTURE_85.png,THING,5ead2b253bb47c3b40b94425,04/05/1991,2020-08-13_13h58.32.435,proactive2,2020.1.2,Win32,60,5f341be081b9052c55068110,5f3537400853f23053a59fc0,2,,,,,,diamond,,,,,,,,,,,2,0,0,7,7,15,1,,,,,,,,,,,,,,,,,,,,,,,,,,,,,,,,,,,,,,,,,,,,,,,,,,,,,,,,,,,,,,,,,,,,,,,,,,,,,,,,,,,,,,,,,,,,,,
,,?,0.004005,0,,,,,,stimuli/images/PICTURE_327.png,BEAUTY,5ead2b253bb47c3b40b94425,04/05/1991,2020-08-13_13h58.32.435,proactive2,2020.1.2,Win32,60,5f341be081b9052c55068110,5f3537400853f23053a59fc0,2,,,,,,helmet,,,,,,,,,,,5,0,0,8,8,48,1,,,,,,,,,,,,,,,,,,,,,,,,,,,,,,,,,,,,,,,,,,,,,,,,,,,,,,,,,,,,,,,,,,,,,,,,,,,,,,,,,,,,,,,,,,,,,,
,,?,0.00392,0,,,,,,stimuli/images/PICTURE_356.png,DANGER,5ead2b253bb47c3b40b94425,04/05/1991,2020-08-13_13h58.32.435,proactive2,2020.1.2,Win32,60,5f341be081b9052c55068110,5f3537400853f23053a59fc0,2,,,,,,pawn,,,,,,,,,,,6,0,0,9,9,55,1,,,,,,,,,,,,,,,,,,,,,,,,,,,,,,,,,,,,,,,,,,,,,,,,,,,,,,,,,,,,,,,,,,,,,,,,,,,,,,,,,,,,,,,,,,,,,,
,,?,0.005115,0,,,,,,stimuli/images/PICTURE_339.png,PLENTY,5ead2b253bb47c3b40b94425,04/05/1991,2020-08-13_13h58.32.435,proactive2,2020.1.2,Win32,60,5f341be081b9052c55068110,5f3537400853f23053a59fc0,2,,,,,,backpack,,,,,,,,,,,1,0,0,10,10,0,1,,,,,,,,,,,,,,,,,,,,,,,,,,,,,,,,,,,,,,,,,,,,,,,,,,,,,,,,,,,,,,,,,,,,,,,,,,,,,,,,,,,,,,,,,,,,,,
,,?,0.0032,0,,,,,,stimuli/images/PICTURE_348.png,SPEECH,5ead2b253bb47c3b40b94425,04/05/1991,2020-08-13_13h58.32.435,proactive2,2020.1.2,Win32,60,5f341be081b9052c55068110,5f3537400853f23053a59fc0,2,,,,,,pepper,,,,,,,,,,,3,0,0,11,11,20,1,,,,,,,,,,,,,,,,,,,,,,,,,,,,,,,,,,,,,,,,,,,,,,,,,,,,,,,,,,,,,,,,,,,,,,,,,,,,,,,,,,,,,,,,,,,,,,
,,?,0.003545,0,,,,,,stimuli/images/PICTURE_32.png,JUNGLE,5ead2b253bb47c3b40b94425,04/05/1991,2020-08-13_13h58.32.435,proactive2,2020.1.2,Win32,60,5f341be081b9052c55068110,5f3537400853f23053a59fc0,2,,,,,,crown,,,,,,,,,,,5,0,0,12,12,45,1,,,,,,,,,,,,,,,,,,,,,,,,,,,,,,,,,,,,,,,,,,,,,,,,,,,,,,,,,,,,,,,,,,,,,,,,,,,,,,,,,,,,,,,,,,,,,,
,,?,0.00345,0,,,,,,stimuli/images/PICTURE_744.png,SYSTEM,5ead2b253bb47c3b40b94425,04/05/1991,2020-08-13_13h58.32.435,proactive2,2020.1.2,Win32,60,5f341be081b9052c55068110,5f3537400853f23053a59fc0,2,,,,,,ring,,,,,,,,,,,5,0,0,13,13,43,1,,,,,,,,,,,,,,,,,,,,,,,,,,,,,,,,,,,,,,,,,,,,,,,,,,,,,,,,,,,,,,,,,,,,,,,,,,,,,,,,,,,,,,,,,,,,,,
,,?,0.00411,0,,,,,,stimuli/images/PICTURE_467.png,DEMON,5ead2b253bb47c3b40b94425,04/05/1991,2020-08-13_13h58.32.435,proactive2,2020.1.2,Win32,60,5f341be081b9052c55068110,5f3537400853f23053a59fc0,2,,,,,,peg,,,,,,,,,,,3,0,0,14,14,23,1,,,,,,,,,,,,,,,,,,,,,,,,,,,,,,,,,,,,,,,,,,,,,,,,,,,,,,,,,,,,,,,,,,,,,,,,,,,,,,,,,,,,,,,,,,,,,,
,,?,0.003375,0,,,,,,stimuli/images/PICTURE_308.png,ESTATE,5ead2b253bb47c3b40b94425,04/05/1991,2020-08-13_13h58.32.435,proactive2,2020.1.2,Win32,60,5f341be081b9052c55068110,5f3537400853f23053a59fc0,2,,,,,,dice,,,,,,,,,,,5,0,0,15,15,46,1,,,,,,,,,,,,,,,,,,,,,,,,,,,,,,,,,,,,,,,,,,,,,,,,,,,,,,,,,,,,,,,,,,,,,,,,,,,,,,,,,,,,,,,,,,,,,,
,,?,0.00326,0,,,,,,stimuli/images/PICTURE_215.png,PLENTY,5ead2b253bb47c3b40b94425,04/05/1991,2020-08-13_13h58.32.435,proactive2,2020.1.2,Win32,60,5f341be081b9052c55068110,5f3537400853f23053a59fc0,2,,,,,,boot,,,,,,,,,,,4,0,0,16,16,37,1,,,,,,,,,,,,,,,,,,,,,,,,,,,,,,,,,,,,,,,,,,,,,,,,,,,,,,,,,,,,,,,,,,,,,,,,,,,,,,,,,,,,,,,,,,,,,,
,,?,0.003275,0,,,,,,stimuli/images/PICTURE_203.png,ARTIST,5ead2b253bb47c3b40b94425,04/05/1991,2020-08-13_13h58.32.435,proactive2,2020.1.2,Win32,60,5f341be081b9052c55068110,5f3537400853f23053a59fc0,2,,,,,,cap,,,,,,,,,,,3,0,0,17,17,26,1,,,,,,,,,,,,,,,,,,,,,,,,,,,,,,,,,,,,,,,,,,,,,,,,,,,,,,,,,,,,,,,,,,,,,,,,,,,,,,,,,,,,,,,,,,,,,,
,,?,0.003135,0,,,,,,stimuli/images/PICTURE_708.png,YARD,5ead2b253bb47c3b40b94425,04/05/1991,2020-08-13_13h58.32.435,proactive2,2020.1.2,Win32,60,5f341be081b9052c55068110,5f3537400853f23053a59fc0,2,,,,,,monkey,,,,,,,,,,,3,0,0,18,18,29,1,,,,,,,,,,,,,,,,,,,,,,,,,,,,,,,,,,,,,,,,,,,,,,,,,,,,,,,,,,,,,,,,,,,,,,,,,,,,,,,,,,,,,,,,,,,,,,
,,?,0.00399,0,,,,,,stimuli/images/PICTURE_311.png,FRIEND,5ead2b253bb47c3b40b94425,04/05/1991,2020-08-13_13h58.32.435,proactive2,2020.1.2,Win32,60,5f341be081b9052c55068110,5f3537400853f23053a59fc0,2,,,,,,razor,,,,,,,,,,,4,0,0,19,19,34,1,,,,,,,,,,,,,,,,,,,,,,,,,,,,,,,,,,,,,,,,,,,,,,,,,,,,,,,,,,,,,,,,,,,,,,,,,,,,,,,,,,,,,,,,,,,,,,
,,?,0.00357,0,,,,,,stimuli/images/PICTURE_314.png,SAKE,5ead2b253bb47c3b40b94425,04/05/1991,2020-08-13_13h58.32.435,proactive2,2020.1.2,Win32,60,5f341be081b9052c55068110,5f3537400853f23053a59fc0,2,,,,,,perfume,,,,,,,,,,,1,0,0,20,20,7,1,,,,,,,,,,,,,,,,,,,,,,,,,,,,,,,,,,,,,,,,,,,,,,,,,,,,,,,,,,,,,,,,,,,,,,,,,,,,,,,,,,,,,,,,,,,,,,
,,BEAUTY,4.803145,1,,,,,,stimuli/images/PICTURE_311.png,BEAUTY,5ead2b253bb47c3b40b94425,04/05/1991,2020-08-13_13h58.32.435,proactive2,2020.1.2,Win32,60,5f341be081b9052c55068110,5f3537400853f23053a59fc0,2,,,,,,razor,,,,,,,,,,,2,0,0,21,21,13,1,,,,,,,,,,,,,,,,,,,,,,,,,,,,,,,,,,,,,,,,,,,,,,,,,,,,,,,,,,,,,,,,,,,,,,,,,,,,,,,,,,,,,,,,,,,,,,
,,?,0.003335,0,,,,,,stimuli/images/PICTURE_469.png,ARTIST,5ead2b253bb47c3b40b94425,04/05/1991,2020-08-13_13h58.32.435,proactive2,2020.1.2,Win32,60,5f341be081b9052c55068110,5f3537400853f23053a59fc0,2,,,,,,stool,,,,,,,,,,,1,0,0,22,22,6,1,,,,,,,,,,,,,,,,,,,,,,,,,,,,,,,,,,,,,,,,,,,,,,,,,,,,,,,,,,,,,,,,,,,,,,,,,,,,,,,,,,,,,,,,,,,,,,
,,SAKE,3.21039,1,,,,,,stimuli/images/PICTURE_744.png,SAKE,5ead2b253bb47c3b40b94425,04/05/1991,2020-08-13_13h58.32.435,proactive2,2020.1.2,Win32,60,5f341be081b9052c55068110,5f3537400853f23053a59fc0,2,,,,,,ring,,,,,,,,,,,2,0,0,23,23,17,1,,,,,,,,,,,,,,,,,,,,,,,,,,,,,,,,,,,,,,,,,,,,,,,,,,,,,,,,,,,,,,,,,,,,,,,,,,,,,,,,,,,,,,,,,,,,,,
,,?,0.00748,0,,,,,,stimuli/images/PICTURE_208.png,MONTH,5ead2b253bb47c3b40b94425,04/05/1991,2020-08-13_13h58.32.435,proactive2,2020.1.2,Win32,60,5f341be081b9052c55068110,5f3537400853f23053a59fc0,2,,,,,,microphone,,,,,,,,,,,6,0,0,24,24,53,1,,,,,,,,,,,,,,,,,,,,,,,,,,,,,,,,,,,,,,,,,,,,,,,,,,,,,,,,,,,,,,,,,,,,,,,,,,,,,,,,,,,,,,,,,,,,,,
,,?,0.00355,0,,,,,,stimuli/images/PICTURE_95.png,STYLE,5ead2b253bb47c3b40b94425,04/05/1991,2020-08-13_13h58.32.435,proactive2,2020.1.2,Win32,60,5f341be081b9052c55068110,5f3537400853f23053a59fc0,2,,,,,,suitcase,,,,,,,,,,,3,0,0,25,25,25,1,,,,,,,,,,,,,,,,,,,,,,,,,,,,,,,,,,,,,,,,,,,,,,,,,,,,,,,,,,,,,,,,,,,,,,,,,,,,,,,,,,,,,,,,,,,,,,
,,?,0.004515,0,,,,,,stimuli/images/PICTURE_487.png,FLIGHT,5ead2b253bb47c3b40b94425,04/05/1991,2020-08-13_13h58.32.435,proactive2,2020.1.2,Win32,60,5f341be081b9052c55068110,5f3537400853f23053a59fc0,2,,,,,,basket,,,,,,,,,,,1,0,0,26,26,9,1,,,,,,,,,,,,,,,,,,,,,,,,,,,,,,,,,,,,,,,,,,,,,,,,,,,,,,,,,,,,,,,,,,,,,,,,,,,,,,,,,,,,,,,,,,,,,,
,,?,0.00496,0,,,,,,stimuli/images/PICTURE_491.png,WRITER,5ead2b253bb47c3b40b94425,04/05/1991,2020-08-13_13h58.32.435,proactive2,2020.1.2,Win32,60,5f341be081b9052c55068110,5f3537400853f23053a59fc0,2,,,,,,rug,,,,,,,,,,,6,0,0,27,27,57,1,,,,,,,,,,,,,,,,,,,,,,,,,,,,,,,,,,,,,,,,,,,,,,,,,,,,,,,,,,,,,,,,,,,,,,,,,,,,,,,,,,,,,,,,,,,,,,
,,?,0.003625,0,,,,,,stimuli/images/PICTURE_504.png,BODY,5ead2b253bb47c3b40b94425,04/05/1991,2020-08-13_13h58.32.435,proactive2,2020.1.2,Win32,60,5f341be081b9052c55068110,5f3537400853f23053a59fc0,2,,,,,,wheel,,,,,,,,,,,1,0,0,28,28,8,1,,,,,,,,,,,,,,,,,,,,,,,,,,,,,,,,,,,,,,,,,,,,,,,,,,,,,,,,,,,,,,,,,,,,,,,,,,,,,,,,,,,,,,,,,,,,,,
,,GOD,4.70825,0,,,,,,stimuli/images/PICTURE_314.png,GODS,5ead2b253bb47c3b40b94425,04/05/1991,2020-08-13_13h58.32.435,proactive2,2020.1.2,Win32,60,5f341be081b9052c55068110,5f3537400853f23053a59fc0,2,,,,,,perfume,,,,,,,,,,,2,0,0,29,29,11,1,,,,,,,,,,,,,,,,,,,,,,,,,,,,,,,,,,,,,,,,,,,,,,,,,,,,,,,,,,,,,,,,,,,,,,,,,,,,,,,,,,,,,,,,,,,,,,
,,?,0.003255,0,,,,,,stimuli/images/PICTURE_449.png,THING,5ead2b253bb47c3b40b94425,04/05/1991,2020-08-13_13h58.32.435,proactive2,2020.1.2,Win32,60,5f341be081b9052c55068110,5f3537400853f23053a59fc0,2,,,,,,bench,,,,,,,,,,,6,0,0,30,30,59,1,,,,,,,,,,,,,,,,,,,,,,,,,,,,,,,,,,,,,,,,,,,,,,,,,,,,,,,,,,,,,,,,,,,,,,,,,,,,,,,,,,,,,,,,,,,,,,
,,MONTH,4.708815,1,,,,,,stimuli/images/PICTURE_692.png,MONTH,5ead2b253bb47c3b40b94425,04/05/1991,2020-08-13_13h58.32.435,proactive2,2020.1.2,Win32,60,5f341be081b9052c55068110,5f3537400853f23053a59fc0,2,,,,,,cherry,,,,,,,,,,,2,0,0,31,31,16,1,,,,,,,,,,,,,,,,,,,,,,,,,,,,,,,,,,,,,,,,,,,,,,,,,,,,,,,,,,,,,,,,,,,,,,,,,,,,,,,,,,,,,,,,,,,,,,
,,?,0.007715,0,,,,,,stimuli/images/PICTURE_667.png,BATH,5ead2b253bb47c3b40b94425,04/05/1991,2020-08-13_13h58.32.435,proactive2,2020.1.2,Win32,60,5f341be081b9052c55068110,5f3537400853f23053a59fc0,2,,,,,,daisy,,,,,,,,,,,1,0,0,32,32,4,1,,,,,,,,,,,,,,,,,,,,,,,,,,,,,,,,,,,,,,,,,,,,,,,,,,,,,,,,,,,,,,,,,,,,,,,,,,,,,,,,,,,,,,,,,,,,,,
,,LOT,4.81317,0,,,,,,stimuli/images/PICTURE_208.png,LOTS,5ead2b253bb47c3b40b94425,04/05/1991,2020-08-13_13h58.32.435,proactive2,2020.1.2,Win32,60,5f341be081b9052c55068110,5f3537400853f23053a59fc0,2,,,,,,microphone,,,,,,,,,,,2,0,0,33,33,10,1,,,,,,,,,,,,,,,,,,,,,,,,,,,,,,,,,,,,,,,,,,,,,,,,,,,,,,,,,,,,,,,,,,,,,,,,,,,,,,,,,,,,,,,,,,,,,,
,,?,0.003625,0,,,,,,stimuli/images/PICTURE_147.png,MOMENT,5ead2b253bb47c3b40b94425,04/05/1991,2020-08-13_13h58.32.435,proactive2,2020.1.2,Win32,60,5f341be081b9052c55068110,5f3537400853f23053a59fc0,2,,,,,,hanger,,,,,,,,,,,6,0,0,34,34,51,1,,,,,,,,,,,,,,,,,,,,,,,,,,,,,,,,,,,,,,,,,,,,,,,,,,,,,,,,,,,,,,,,,,,,,,,,,,,,,,,,,,,,,,,,,,,,,,
,,?,0.005735,0,,,,,,stimuli/images/PICTURE_233.png,IDEAS,5ead2b253bb47c3b40b94425,04/05/1991,2020-08-13_13h58.32.435,proactive2,2020.1.2,Win32,60,5f341be081b9052c55068110,5f3537400853f23053a59fc0,2,,,,,,salt,,,,,,,,,,,3,0,0,35,35,28,1,,,,,,,,,,,,,,,,,,,,,,,,,,,,,,,,,,,,,,,,,,,,,,,,,,,,,,,,,,,,,,,,,,,,,,,,,,,,,,,,,,,,,,,,,,,,,,
,,?,0.00591,0,,,,,,stimuli/images/PICTURE_208.png,THING,5ead2b253bb47c3b40b94425,04/05/1991,2020-08-13_13h58.32.435,proactive2,2020.1.2,Win32,60,5f341be081b9052c55068110,5f3537400853f23053a59fc0,2,,,,,,microphone,,,,,,,,,,,5,0,0,36,36,47,1,,,,,,,,,,,,,,,,,,,,,,,,,,,,,,,,,,,,,,,,,,,,,,,,,,,,,,,,,,,,,,,,,,,,,,,,,,,,,,,,,,,,,,,,,,,,,,
,,?,0.00326,0,,,,,,stimuli/images/PICTURE_453.png,DUDE,5ead2b253bb47c3b40b94425,04/05/1991,2020-08-13_13h58.32.435,proactive2,2020.1.2,Win32,60,5f341be081b9052c55068110,5f3537400853f23053a59fc0,2,,,,,,scissors,,,,,,,,,,,3,0,0,37,37,27,1,,,,,,,,,,,,,,,,,,,,,,,,,,,,,,,,,,,,,,,,,,,,,,,,,,,,,,,,,,,,,,,,,,,,,,,,,,,,,,,,,,,,,,,,,,,,,,
,,?,0.00331,0,,,,,,stimuli/images/PICTURE_708.png,PENNY,5ead2b253bb47c3b40b94425,04/05/1991,2020-08-13_13h58.32.435,proactive2,2020.1.2,Win32,60,5f341be081b9052c55068110,5f3537400853f23053a59fc0,2,,,,,,monkey,,,,,,,,,,,4,0,0,38,38,31,1,,,,,,,,,,,,,,,,,,,,,,,,,,,,,,,,,,,,,,,,,,,,,,,,,,,,,,,,,,,,,,,,,,,,,,,,,,,,,,,,,,,,,,,,,,,,,,
,,?,0.003495,0,,,,,,stimuli/images/PICTURE_667.png,PLENTY,5ead2b253bb47c3b40b94425,04/05/1991,2020-08-13_13h58.32.435,proactive2,2020.1.2,Win32,60,5f341be081b9052c55068110,5f3537400853f23053a59fc0,2,,,,,,daisy,,,,,,,,,,,5,0,0,39,39,41,1,,,,,,,,,,,,,,,,,,,,,,,,,,,,,,,,,,,,,,,,,,,,,,,,,,,,,,,,,,,,,,,,,,,,,,,,,,,,,,,,,,,,,,,,,,,,,,
,,?,0.00318,0,,,,,,stimuli/images/PICTURE_68.png,MILE,5ead2b253bb47c3b40b94425,04/05/1991,2020-08-13_13h58.32.435,proactive2,2020.1.2,Win32,60,5f341be081b9052c55068110,5f3537400853f23053a59fc0,2,,,,,,candle,,,,,,,,,,,5,0,0,40,40,44,1,,,,,,,,,,,,,,,,,,,,,,,,,,,,,,,,,,,,,,,,,,,,,,,,,,,,,,,,,,,,,,,,,,,,,,,,,,,,,,,,,,,,,,,,,,,,,,
,,FAMILY,7.920155,1,,,,,,stimuli/images/PICTURE_302.png,FAMILY,5ead2b253bb47c3b40b94425,04/05/1991,2020-08-13_13h58.32.435,proactive2,2020.1.2,Win32,60,5f341be081b9052c55068110,5f3537400853f23053a59fc0,2,,,,,,taxi,,,,,,,,,,,2,0,0,41,41,18,1,,,,,,,,,,,,,,,,,,,,,,,,,,,,,,,,,,,,,,,,,,,,,,,,,,,,,,,,,,,,,,,,,,,,,,,,,,,,,,,,,,,,,,,,,,,,,,
,,?,0.0034,0,,,,,,stimuli/images/PICTURE_708.png,CLIENT,5ead2b253bb47c3b40b94425,04/05/1991,2020-08-13_13h58.32.435,proactive2,2020.1.2,Win32,60,5f341be081b9052c55068110,5f3537400853f23053a59fc0,2,,,,,,monkey,,,,,,,,,,,1,0,0,42,42,5,1,,,,,,,,,,,,,,,,,,,,,,,,,,,,,,,,,,,,,,,,,,,,,,,,,,,,,,,,,,,,,,,,,,,,,,,,,,,,,,,,,,,,,,,,,,,,,,
,,?,0.00309,0,,,,,,stimuli/images/PICTURE_308.png,KIND,5ead2b253bb47c3b40b94425,04/05/1991,2020-08-13_13h58.32.435,proactive2,2020.1.2,Win32,60,5f341be081b9052c55068110,5f3537400853f23053a59fc0,2,,,,,,dice,,,,,,,,,,,6,0,0,43,43,54,1,,,,,,,,,,,,,,,,,,,,,,,,,,,,,,,,,,,,,,,,,,,,,,,,,,,,,,,,,,,,,,,,,,,,,,,,,,,,,,,,,,,,,,,,,,,,,,
,,?,0.00711,0,,,,,,stimuli/images/PICTURE_380.png,DEATH,5ead2b253bb47c3b40b94425,04/05/1991,2020-08-13_13h58.32.435,proactive2,2020.1.2,Win32,60,5f341be081b9052c55068110,5f3537400853f23053a59fc0,2,,,,,,gorilla,,,,,,,,,,,5,0,0,44,44,49,1,,,,,,,,,,,,,,,,,,,,,,,,,,,,,,,,,,,,,,,,,,,,,,,,,,,,,,,,,,,,,,,,,,,,,,,,,,,,,,,,,,,,,,,,,,,,,,
,,GIRL,3.844635,1,,,,,,stimuli/images/PICTURE_151.png,GIRL,5ead2b253bb47c3b40b94425,04/05/1991,2020-08-13_13h58.32.435,proactive2,2020.1.2,Win32,60,5f341be081b9052c55068110,5f3537400853f23053a59fc0,2,,,,,,tray,,,,,,,,,,,2,0,0,45,45,19,1,,,,,,,,,,,,,,,,,,,,,,,,,,,,,,,,,,,,,,,,,,,,,,,,,,,,,,,,,,,,,,,,,,,,,,,,,,,,,,,,,,,,,,,,,,,,,,
,,?,0.004745,0,,,,,,stimuli/images/PICTURE_675.png,WEAPON,5ead2b253bb47c3b40b94425,04/05/1991,2020-08-13_13h58.32.435,proactive2,2020.1.2,Win32,60,5f341be081b9052c55068110,5f3537400853f23053a59fc0,2,,,,,,windmill,,,,,,,,,,,4,0,0,46,46,32,1,,,,,,,,,,,,,,,,,,,,,,,,,,,,,,,,,,,,,,,,,,,,,,,,,,,,,,,,,,,,,,,,,,,,,,,,,,,,,,,,,,,,,,,,,,,,,,
,,?,0.003365,0,,,,,,stimuli/images/PICTURE_160.png,LEADER,5ead2b253bb47c3b40b94425,04/05/1991,2020-08-13_13h58.32.435,proactive2,2020.1.2,Win32,60,5f341be081b9052c55068110,5f3537400853f23053a59fc0,2,,,,,,wheelbarrow,,,,,,,,,,,1,0,0,47,47,3,1,,,,,,,,,,,,,,,,,,,,,,,,,,,,,,,,,,,,,,,,,,,,,,,,,,,,,,,,,,,,,,,,,,,,,,,,,,,,,,,,,,,,,,,,,,,,,,
,,?,0.00431,0,,,,,,stimuli/images/PICTURE_160.png,FEET,5ead2b253bb47c3b40b94425,04/05/1991,2020-08-13_13h58.32.435,proactive2,2020.1.2,Win32,60,5f341be081b9052c55068110,5f3537400853f23053a59fc0,2,,,,,,wheelbarrow,,,,,,,,,,,6,0,0,48,48,58,1,,,,,,,,,,,,,,,,,,,,,,,,,,,,,,,,,,,,,,,,,,,,,,,,,,,,,,,,,,,,,,,,,,,,,,,,,,,,,,,,,,,,,,,,,,,,,,
,,?,0.003275,0,,,,,,stimuli/images/PICTURE_380.png,PHOTO,5ead2b253bb47c3b40b94425,04/05/1991,2020-08-13_13h58.32.435,proactive2,2020.1.2,Win32,60,5f341be081b9052c55068110,5f3537400853f23053a59fc0,2,,,,,,gorilla,,,,,,,,,,,6,0,0,49,49,52,1,,,,,,,,,,,,,,,,,,,,,,,,,,,,,,,,,,,,,,,,,,,,,,,,,,,,,,,,,,,,,,,,,,,,,,,,,,,,,,,,,,,,,,,,,,,,,,
,,ADVICE,5.99408,1,,,,,,stimuli/images/PICTURE_285.png,ADVICE,5ead2b253bb47c3b40b94425,04/05/1991,2020-08-13_13h58.32.435,proactive2,2020.1.2,Win32,60,5f341be081b9052c55068110,5f3537400853f23053a59fc0,2,,,,,,carrot,,,,,,,,,,,2,0,0,50,50,12,1,,,,,,,,,,,,,,,,,,,,,,,,,,,,,,,,,,,,,,,,,,,,,,,,,,,,,,,,,,,,,,,,,,,,,,,,,,,,,,,,,,,,,,,,,,,,,,
,,?,0.00339,0,,,,,,stimuli/images/PICTURE_491.png,ROOF,5ead2b253bb47c3b40b94425,04/05/1991,2020-08-13_13h58.32.435,proactive2,2020.1.2,Win32,60,5f341be081b9052c55068110,5f3537400853f23053a59fc0,2,,,,,,rug,,,,,,,,,,,3,0,0,51,51,24,1,,,,,,,,,,,,,,,,,,,,,,,,,,,,,,,,,,,,,,,,,,,,,,,,,,,,,,,,,,,,,,,,,,,,,,,,,,,,,,,,,,,,,,,,,,,,,,
,,?,0.00637,0,,,,,,stimuli/images/PICTURE_123.png,ADVICE,5ead2b253bb47c3b40b94425,04/05/1991,2020-08-13_13h58.32.435,proactive2,2020.1.2,Win32,60,5f341be081b9052c55068110,5f3537400853f23053a59fc0,2,,,,,,dart,,,,,,,,,,,6,0,0,52,52,50,1,,,,,,,,,,,,,,,,,,,,,,,,,,,,,,,,,,,,,,,,,,,,,,,,,,,,,,,,,,,,,,,,,,,,,,,,,,,,,,,,,,,,,,,,,,,,,,
,,?,0.00413,0,,,,,,stimuli/images/PICTURE_688.png,CASINO,5ead2b253bb47c3b40b94425,04/05/1991,2020-08-13_13h58.32.435,proactive2,2020.1.2,Win32,60,5f341be081b9052c55068110,5f3537400853f23053a59fc0,2,,,,,,runner,,,,,,,,,,,1,0,0,53,53,2,1,,,,,,,,,,,,,,,,,,,,,,,,,,,,,,,,,,,,,,,,,,,,,,,,,,,,,,,,,,,,,,,,,,,,,,,,,,,,,,,,,,,,,,,,,,,,,,
,,?,0.00362,0,,,,,,stimuli/images/PICTURE_123.png,ADVICE,5ead2b253bb47c3b40b94425,04/05/1991,2020-08-13_13h58.32.435,proactive2,2020.1.2,Win32,60,5f341be081b9052c55068110,5f3537400853f23053a59fc0,2,,,,,,dart,,,,,,,,,,,5,0,0,54,54,40,1,,,,,,,,,,,,,,,,,,,,,,,,,,,,,,,,,,,,,,,,,,,,,,,,,,,,,,,,,,,,,,,,,,,,,,,,,,,,,,,,,,,,,,,,,,,,,,
,,?,0.00315,0,,,,,,stimuli/images/PICTURE_654.png,VALLEY,5ead2b253bb47c3b40b94425,04/05/1991,2020-08-13_13h58.32.435,proactive2,2020.1.2,Win32,60,5f341be081b9052c55068110,5f3537400853f23053a59fc0,2,,,,,,pencil,,,,,,,,,,,1,0,0,55,55,1,1,,,,,,,,,,,,,,,,,,,,,,,,,,,,,,,,,,,,,,,,,,,,,,,,,,,,,,,,,,,,,,,,,,,,,,,,,,,,,,,,,,,,,,,,,,,,,,
,,?,0.00332,0,,,,,,stimuli/images/PICTURE_488.png,STYLE,5ead2b253bb47c3b40b94425,04/05/1991,2020-08-13_13h58.32.435,proactive2,2020.1.2,Win32,60,5f341be081b9052c55068110,5f3537400853f23053a59fc0,2,,,,,,sun,,,,,,,,,,,4,0,0,56,56,33,1,,,,,,,,,,,,,,,,,,,,,,,,,,,,,,,,,,,,,,,,,,,,,,,,,,,,,,,,,,,,,,,,,,,,,,,,,,,,,,,,,,,,,,,,,,,,,,
,,?,0.003575,0,,,,,,stimuli/images/PICTURE_469.png,LETTER,5ead2b253bb47c3b40b94425,04/05/1991,2020-08-13_13h58.32.435,proactive2,2020.1.2,Win32,60,5f341be081b9052c55068110,5f3537400853f23053a59fc0,2,,,,,,stool,,,,,,,,,,,5,0,0,57,57,42,1,,,,,,,,,,,,,,,,,,,,,,,,,,,,,,,,,,,,,,,,,,,,,,,,,,,,,,,,,,,,,,,,,,,,,,,,,,,,,,,,,,,,,,,,,,,,,,
,,WOMEN,5.10223,1,,,,,,stimuli/images/PICTURE_688.png,WOMEN,5ead2b253bb47c3b40b94425,04/05/1991,2020-08-13_13h58.32.435,proactive2,2020.1.2,Win32,60,5f341be081b9052c55068110,5f3537400853f23053a59fc0,2,,,,,,runner,,,,,,,,,,,2,0,0,58,58,14,1,,,,,,,,,,,,,,,,,,,,,,,,,,,,,,,,,,,,,,,,,,,,,,,,,,,,,,,,,,,,,,,,,,,,,,,,,,,,,,,,,,,,,,,,,,,,,,
,,?,0.003385,0,,,,,,stimuli/images/PICTURE_470.png,CASINO,5ead2b253bb47c3b40b94425,04/05/1991,2020-08-13_13h58.32.435,proactive2,2020.1.2,Win32,60,5f341be081b9052c55068110,5f3537400853f23053a59fc0,2,,,,,,motorbike,,,,,,,,,,,4,0,0,59,59,36,1,,,,,,,,,,,,,,,,,,,,,,,,,,,,,,,,,,,,,,,,,,,,,,,,,,,,,,,,,,,,,,,,,,,,,,,,,,,,,,,,,,,,,,,,,,,,,,
,,,,,,,,,,,,5ead2b253bb47c3b40b94425,04/05/1991,2020-08-13_13h58.32.435,proactive2,2020.1.2,Win32,60,5f341be081b9052c55068110,5f3537400853f23053a59fc0,2,,,,,,,,,,,,,,,,,,,,,,,,0,1,1,0,1,stimuli/learn-block1.csv,,,,,,,,,,,,,,,,,,,,,,,,,,,,,,,,,,,,,,,,,,,,,,,,,,,,,,,,,,,,,,,,,,,,,,,,,,,,,,,,,,,,,,,,
,,,,,,,,,,stimuli/images/PICTURE_667.png,RIVER,5ead2b253bb47c3b40b94425,04/05/1991,2020-08-13_13h58.32.435,proactive2,2020.1.2,Win32,60,5f341be081b9052c55068110,5f3537400853f23053a59fc0,2,,,,,,daisy,,,,,,0,0,0,10,1,2,1,,,,,,,,,,,,,,,,,,,,,,,,,,,,,,,,,,,,,,,,,,,,,,,,,,,,,,,,,,,,,,,,,,,,,,,,,,,,,,,,,,,,,,,,,,,,,,,,,,,
,,,,,,,,,,stimuli/images/PICTURE_95.png,MILLER,5ead2b253bb47c3b40b94425,04/05/1991,2020-08-13_13h58.32.435,proactive2,2020.1.2,Win32,60,5f341be081b9052c55068110,5f3537400853f23053a59fc0,2,,,,,,suitcase,,,,,,0,1,1,56,1,6,1,,,,,,,,,,,,,,,,,,,,,,,,,,,,,,,,,,,,,,,,,,,,,,,,,,,,,,,,,,,,,,,,,,,,,,,,,,,,,,,,,,,,,,,,,,,,,,,,,,,
,,,,,,,,,,stimuli/images/PICTURE_380.png,CANDY,5ead2b253bb47c3b40b94425,04/05/1991,2020-08-13_13h58.32.435,proactive2,2020.1.2,Win32,60,5f341be081b9052c55068110,5f3537400853f23053a59fc0,2,,,,,,gorilla,,,,,,0,2,2,0,1,1,1,,,,,,,,,,,,,,,,,,,,,,,,,,,,,,,,,,,,,,,,,,,,,,,,,,,,,,,,,,,,,,,,,,,,,,,,,,,,,,,,,,,,,,,,,,,,,,,,,,,
,,,,,,,,,,stimuli/images/PICTURE_68.png,MILE,5ead2b253bb47c3b40b94425,04/05/1991,2020-08-13_13h58.32.435,proactive2,2020.1.2,Win32,60,5f341be081b9052c55068110,5f3537400853f23053a59fc0,2,,,,,,candle,,,,,,0,3,3,51,1,6,1,,,,,,,,,,,,,,,,,,,,,,,,,,,,,,,,,,,,,,,,,,,,,,,,,,,,,,,,,,,,,,,,,,,,,,,,,,,,,,,,,,,,,,,,,,,,,,,,,,,
,,,,,,,,,,stimuli/images/PICTURE_296.png,LIFE,5ead2b253bb47c3b40b94425,04/05/1991,2020-08-13_13h58.32.435,proactive2,2020.1.2,Win32,60,5f341be081b9052c55068110,5f3537400853f23053a59fc0,2,,,,,,bolt,,,,,,0,4,4,57,1,6,1,,,,,,,,,,,,,,,,,,,,,,,,,,,,,,,,,,,,,,,,,,,,,,,,,,,,,,,,,,,,,,,,,,,,,,,,,,,,,,,,,,,,,,,,,,,,,,,,,,,
,,,,,,,,,,stimuli/images/PICTURE_675.png,SALE,5ead2b253bb47c3b40b94425,04/05/1991,2020-08-13_13h58.32.435,proactive2,2020.1.2,Win32,60,5f341be081b9052c55068110,5f3537400853f23053a59fc0,2,,,,,,windmill,,,,,,0,5,5,47,1,5,1,,,,,,,,,,,,,,,,,,,,,,,,,,,,,,,,,,,,,,,,,,,,,,,,,,,,,,,,,,,,,,,,,,,,,,,,,,,,,,,,,,,,,,,,,,,,,,,,,,,
,,,,,,,,,,stimuli/images/PICTURE_449.png,DUDE,5ead2b253bb47c3b40b94425,04/05/1991,2020-08-13_13h58.32.435,proactive2,2020.1.2,Win32,60,5f341be081b9052c55068110,5f3537400853f23053a59fc0,2,,,,,,bench,,,,,,0,6,6,17,1,2,1,,,,,,,,,,,,,,,,,,,,,,,,,,,,,,,,,,,,,,,,,,,,,,,,,,,,,,,,,,,,,,,,,,,,,,,,,,,,,,,,,,,,,,,,,,,,,,,,,,,
,,,,,,,,,,stimuli/images/PICTURE_33.png,FRIEND,5ead2b253bb47c3b40b94425,04/05/1991,2020-08-13_13h58.32.435,proactive2,2020.1.2,Win32,60,5f341be081b9052c55068110,5f3537400853f23053a59fc0,2,,,,,,frame,,,,,,0,7,7,8,1,1,1,,,,,,,,,,,,,,,,,,,,,,,,,,,,,,,,,,,,,,,,,,,,,,,,,,,,,,,,,,,,,,,,,,,,,,,,,,,,,,,,,,,,,,,,,,,,,,,,,,,
,,,,,,,,,,stimuli/images/PICTURE_383.png,WRITER,5ead2b253bb47c3b40b94425,04/05/1991,2020-08-13_13h58.32.435,proactive2,2020.1.2,Win32,60,5f341be081b9052c55068110,5f3537400853f23053a59fc0,2,,,,,,coin,,,,,,0,8,8,28,1,3,1,,,,,,,,,,,,,,,,,,,,,,,,,,,,,,,,,,,,,,,,,,,,,,,,,,,,,,,,,,,,,,,,,,,,,,,,,,,,,,,,,,,,,,,,,,,,,,,,,,,
,,,,,,,,,,stimuli/images/PICTURE_504.png,YEAR,5ead2b253bb47c3b40b94425,04/05/1991,2020-08-13_13h58.32.435,proactive2,2020.1.2,Win32,60,5f341be081b9052c55068110,5f3537400853f23053a59fc0,2,,,,,,wheel,,,,,,0,9,9,13,1,2,1,,,,,,,,,,,,,,,,,,,,,,,,,,,,,,,,,,,,,,,,,,,,,,,,,,,,,,,,,,,,,,,,,,,,,,,,,,,,,,,,,,,,,,,,,,,,,,,,,,,
,,,,,,,,,,stimuli/images/PICTURE_297.png,RIVER,5ead2b253bb47c3b40b94425,04/05/1991,2020-08-13_13h58.32.435,proactive2,2020.1.2,Win32,60,5f341be081b9052c55068110,5f3537400853f23053a59fc0,2,,,,,,aeroplane,,,,,,0,10,10,39,1,4,1,,,,,,,,,,,,,,,,,,,,,,,,,,,,,,,,,,,,,,,,,,,,,,,,,,,,,,,,,,,,,,,,,,,,,,,,,,,,,,,,,,,,,,,,,,,,,,,,,,,
,,,,,,,,,,stimuli/images/PICTURE_2.png,FLIGHT,5ead2b253bb47c3b40b94425,04/05/1991,2020-08-13_13h58.32.435,proactive2,2020.1.2,Win32,60,5f341be081b9052c55068110,5f3537400853f23053a59fc0,2,,,,,,tyre,,,,,,0,11,11,15,1,2,1,,,,,,,,,,,,,,,,,,,,,,,,,,,,,,,,,,,,,,,,,,,,,,,,,,,,,,,,,,,,,,,,,,,,,,,,,,,,,,,,,,,,,,,,,,,,,,,,,,,
,,,,,,,,,,stimuli/images/PICTURE_233.png,LOTS,5ead2b253bb47c3b40b94425,04/05/1991,2020-08-13_13h58.32.435,proactive2,2020.1.2,Win32,60,5f341be081b9052c55068110,5f3537400853f23053a59fc0,2,,,,,,salt,,,,,,0,12,12,42,1,5,1,,,,,,,,,,,,,,,,,,,,,,,,,,,,,,,,,,,,,,,,,,,,,,,,,,,,,,,,,,,,,,,,,,,,,,,,,,,,,,,,,,,,,,,,,,,,,,,,,,,
,,,,,,,,,,stimuli/images/PICTURE_403.png,RIVER,5ead2b253bb47c3b40b94425,04/05/1991,2020-08-13_13h58.32.435,proactive2,2020.1.2,Win32,60,5f341be081b9052c55068110,5f3537400853f23053a59fc0,2,,,,,,cathedral,,,,,,0,13,13,40,1,5,1,,,,,,,,,,,,,,,,,,,,,,,,,,,,,,,,,,,,,,,,,,,,,,,,,,,,,,,,,,,,,,,,,,,,,,,,,,,,,,,,,,,,,,,,,,,,,,,,,,,
,,,,,,,,,,stimuli/images/PICTURE_108.png,FLIGHT,5ead2b253bb47c3b40b94425,04/05/1991,2020-08-13_13h58.32.435,proactive2,2020.1.2,Win32,60,5f341be081b9052c55068110,5f3537400853f23053a59fc0,2,,,,,,calendar,,,,,,0,14,14,59,1,6,1,,,,,,,,,,,,,,,,,,,,,,,,,,,,,,,,,,,,,,,,,,,,,,,,,,,,,,,,,,,,,,,,,,,,,,,,,,,,,,,,,,,,,,,,,,,,,,,,,,,
,,,,,,,,,,stimuli/images/PICTURE_95.png,HONEY,5ead2b253bb47c3b40b94425,04/05/1991,2020-08-13_13h58.32.435,proactive2,2020.1.2,Win32,60,5f341be081b9052c55068110,5f3537400853f23053a59fc0,2,,,,,,suitcase,,,,,,0,15,15,44,1,5,1,,,,,,,,,,,,,,,,,,,,,,,,,,,,,,,,,,,,,,,,,,,,,,,,,,,,,,,,,,,,,,,,,,,,,,,,,,,,,,,,,,,,,,,,,,,,,,,,,,,
,,,,,,,,,,stimuli/images/PICTURE_564.png,BATH,5ead2b253bb47c3b40b94425,04/05/1991,2020-08-13_13h58.32.435,proactive2,2020.1.2,Win32,60,5f341be081b9052c55068110,5f3537400853f23053a59fc0,2,,,,,,spoon,,,,,,0,16,16,26,1,3,1,,,,,,,,,,,,,,,,,,,,,,,,,,,,,,,,,,,,,,,,,,,,,,,,,,,,,,,,,,,,,,,,,,,,,,,,,,,,,,,,,,,,,,,,,,,,,,,,,,,
,,,,,,,,,,stimuli/images/PICTURE_147.png,YEAR,5ead2b253bb47c3b40b94425,04/05/1991,2020-08-13_13h58.32.435,proactive2,2020.1.2,Win32,60,5f341be081b9052c55068110,5f3537400853f23053a59fc0,2,,,,,,hanger,,,,,,0,17,17,21,1,3,1,,,,,,,,,,,,,,,,,,,,,,,,,,,,,,,,,,,,,,,,,,,,,,,,,,,,,,,,,,,,,,,,,,,,,,,,,,,,,,,,,,,,,,,,,,,,,,,,,,,
,,,,,,,,,,stimuli/images/PICTURE_405.png,PLENTY,5ead2b253bb47c3b40b94425,04/05/1991,2020-08-13_13h58.32.435,proactive2,2020.1.2,Win32,60,5f341be081b9052c55068110,5f3537400853f23053a59fc0,2,,,,,,anchor,,,,,,0,18,18,23,1,3,1,,,,,,,,,,,,,,,,,,,,,,,,,,,,,,,,,,,,,,,,,,,,,,,,,,,,,,,,,,,,,,,,,,,,,,,,,,,,,,,,,,,,,,,,,,,,,,,,,,,
,,,,,,,,,,stimuli/images/PICTURE_677.png,APPLE,5ead2b253bb47c3b40b94425,04/05/1991,2020-08-13_13h58.32.435,proactive2,2020.1.2,Win32,60,5f341be081b9052c55068110,5f3537400853f23053a59fc0,2,,,,,,map,,,,,,0,19,19,43,1,5,1,,,,,,,,,,,,,,,,,,,,,,,,,,,,,,,,,,,,,,,,,,,,,,,,,,,,,,,,,,,,,,,,,,,,,,,,,,,,,,,,,,,,,,,,,,,,,,,,,,,
,,,,,,,,,,stimuli/images/PICTURE_750.png,HOTEL,5ead2b253bb47c3b40b94425,04/05/1991,2020-08-13_13h58.32.435,proactive2,2020.1.2,Win32,60,5f341be081b9052c55068110,5f3537400853f23053a59fc0,2,,,,,,kettle,,,,,,0,20,20,27,1,3,1,,,,,,,,,,,,,,,,,,,,,,,,,,,,,,,,,,,,,,,,,,,,,,,,,,,,,,,,,,,,,,,,,,,,,,,,,,,,,,,,,,,,,,,,,,,,,,,,,,,
,,,,,,,,,,stimuli/images/PICTURE_203.png,NIGHT,5ead2b253bb47c3b40b94425,04/05/1991,2020-08-13_13h58.32.435,proactive2,2020.1.2,Win32,60,5f341be081b9052c55068110,5f3537400853f23053a59fc0,2,,,,,,cap,,,,,,0,21,21,2,1,1,1,,,,,,,,,,,,,,,,,,,,,,,,,,,,,,,,,,,,,,,,,,,,,,,,,,,,,,,,,,,,,,,,,,,,,,,,,,,,,,,,,,,,,,,,,,,,,,,,,,,
,,,,,,,,,,stimuli/images/PICTURE_95.png,BOYS,5ead2b253bb47c3b40b94425,04/05/1991,2020-08-13_13h58.32.435,proactive2,2020.1.2,Win32,60,5f341be081b9052c55068110,5f3537400853f23053a59fc0,2,,,,,,suitcase,,,,,,0,22,22,1,1,1,1,,,,,,,,,,,,,,,,,,,,,,,,,,,,,,,,,,,,,,,,,,,,,,,,,,,,,,,,,,,,,,,,,,,,,,,,,,,,,,,,,,,,,,,,,,,,,,,,,,,
,,,,,,,,,,stimuli/images/PICTURE_208.png,SYSTEM,5ead2b253bb47c3b40b94425,04/05/1991,2020-08-13_13h58.32.435,proactive2,2020.1.2,Win32,60,5f341be081b9052c55068110,5f3537400853f23053a59fc0,2,,,,,,microphone,,,,,,0,23,23,32,1,4,1,,,,,,,,,,,,,,,,,,,,,,,,,,,,,,,,,,,,,,,,,,,,,,,,,,,,,,,,,,,,,,,,,,,,,,,,,,,,,,,,,,,,,,,,,,,,,,,,,,,
,,,,,,,,,,stimuli/images/PICTURE_744.png,WEAPON,5ead2b253bb47c3b40b94425,04/05/1991,2020-08-13_13h58.32.435,proactive2,2020.1.2,Win32,60,5f341be081b9052c55068110,5f3537400853f23053a59fc0,2,,,,,,ring,,,,,,0,24,24,50,1,6,1,,,,,,,,,,,,,,,,,,,,,,,,,,,,,,,,,,,,,,,,,,,,,,,,,,,,,,,,,,,,,,,,,,,,,,,,,,,,,,,,,,,,,,,,,,,,,,,,,,,
,,,,,,,,,,stimuli/images/PICTURE_340.png,VALLEY,5ead2b253bb47c3b40b94425,04/05/1991,2020-08-13_13h58.32.435,proactive2,2020.1.2,Win32,60,5f341be081b9052c55068110,5f3537400853f23053a59fc0,2,,,,,,mirror,,,,,,0,25,25,54,1,6,1,,,,,,,,,,,,,,,,,,,,,,,,,,,,,,,,,,,,,,,,,,,,,,,,,,,,,,,,,,,,,,,,,,,,,,,,,,,,,,,,,,,,,,,,,,,,,,,,,,,
,,,,,,,,,,stimuli/images/PICTURE_285.png,LIFE,5ead2b253bb47c3b40b94425,04/05/1991,2020-08-13_13h58.32.435,proactive2,2020.1.2,Win32,60,5f341be081b9052c55068110,5f3537400853f23053a59fc0,2,,,,,,carrot,,,,,,0,26,26,33,1,4,1,,,,,,,,,,,,,,,,,,,,,,,,,,,,,,,,,,,,,,,,,,,,,,,,,,,,,,,,,,,,,,,,,,,,,,,,,,,,,,,,,,,,,,,,,,,,,,,,,,,
,,,,,,,,,,stimuli/images/PICTURE_469.png,AGENT,5ead2b253bb47c3b40b94425,04/05/1991,2020-08-13_13h58.32.435,proactive2,2020.1.2,Win32,60,5f341be081b9052c55068110,5f3537400853f23053a59fc0,2,,,,,,stool,,,,,,0,27,27,16,1,2,1,,,,,,,,,,,,,,,,,,,,,,,,,,,,,,,,,,,,,,,,,,,,,,,,,,,,,,,,,,,,,,,,,,,,,,,,,,,,,,,,,,,,,,,,,,,,,,,,,,,
,,,,,,,,,,stimuli/images/PICTURE_147.png,WOMEN,5ead2b253bb47c3b40b94425,04/05/1991,2020-08-13_13h58.32.435,proactive2,2020.1.2,Win32,60,5f341be081b9052c55068110,5f3537400853f23053a59fc0,2,,,,,,hanger,,,,,,0,28,28,7,1,1,1,,,,,,,,,,,,,,,,,,,,,,,,,,,,,,,,,,,,,,,,,,,,,,,,,,,,,,,,,,,,,,,,,,,,,,,,,,,,,,,,,,,,,,,,,,,,,,,,,,,
,,,,,,,,,,stimuli/images/PICTURE_405.png,YEAR,5ead2b253bb47c3b40b94425,04/05/1991,2020-08-13_13h58.32.435,proactive2,2020.1.2,Win32,60,5f341be081b9052c55068110,5f3537400853f23053a59fc0,2,,,,,,anchor,,,,,,0,29,29,34,1,4,1,,,,,,,,,,,,,,,,,,,,,,,,,,,,,,,,,,,,,,,,,,,,,,,,,,,,,,,,,,,,,,,,,,,,,,,,,,,,,,,,,,,,,,,,,,,,,,,,,,,
,,,,,,,,,,stimuli/images/PICTURE_403.png,TOILET,5ead2b253bb47c3b40b94425,04/05/1991,2020-08-13_13h58.32.435,proactive2,2020.1.2,Win32,60,5f341be081b9052c55068110,5f3537400853f23053a59fc0,2,,,,,,cathedral,,,,,,0,30,30,25,1,3,1,,,,,,,,,,,,,,,,,,,,,,,,,,,,,,,,,,,,,,,,,,,,,,,,,,,,,,,,,,,,,,,,,,,,,,,,,,,,,,,,,,,,,,,,,,,,,,,,,,,
,,,,,,,,,,stimuli/images/PICTURE_308.png,FAMILY,5ead2b253bb47c3b40b94425,04/05/1991,2020-08-13_13h58.32.435,proactive2,2020.1.2,Win32,60,5f341be081b9052c55068110,5f3537400853f23053a59fc0,2,,,,,,dice,,,,,,0,31,31,36,1,4,1,,,,,,,,,,,,,,,,,,,,,,,,,,,,,,,,,,,,,,,,,,,,,,,,,,,,,,,,,,,,,,,,,,,,,,,,,,,,,,,,,,,,,,,,,,,,,,,,,,,
,,,,,,,,,,stimuli/images/PICTURE_380.png,HONEY,5ead2b253bb47c3b40b94425,04/05/1991,2020-08-13_13h58.32.435,proactive2,2020.1.2,Win32,60,5f341be081b9052c55068110,5f3537400853f23053a59fc0,2,,,,,,gorilla,,,,,,0,32,32,19,1,2,1,,,,,,,,,,,,,,,,,,,,,,,,,,,,,,,,,,,,,,,,,,,,,,,,,,,,,,,,,,,,,,,,,,,,,,,,,,,,,,,,,,,,,,,,,,,,,,,,,,,
,,,,,,,,,,stimuli/images/PICTURE_403.png,WRITER,5ead2b253bb47c3b40b94425,04/05/1991,2020-08-13_13h58.32.435,proactive2,2020.1.2,Win32,60,5f341be081b9052c55068110,5f3537400853f23053a59fc0,2,,,,,,cathedral,,,,,,0,33,33,31,1,4,1,,,,,,,,,,,,,,,,,,,,,,,,,,,,,,,,,,,,,,,,,,,,,,,,,,,,,,,,,,,,,,,,,,,,,,,,,,,,,,,,,,,,,,,,,,,,,,,,,,,
,,,,,,,,,,stimuli/images/PICTURE_32.png,KIND,5ead2b253bb47c3b40b94425,04/05/1991,2020-08-13_13h58.32.435,proactive2,2020.1.2,Win32,60,5f341be081b9052c55068110,5f3537400853f23053a59fc0,2,,,,,,crown,,,,,,0,34,34,35,1,4,1,,,,,,,,,,,,,,,,,,,,,,,,,,,,,,,,,,,,,,,,,,,,,,,,,,,,,,,,,,,,,,,,,,,,,,,,,,,,,,,,,,,,,,,,,,,,,,,,,,,
,,,,,,,,,,stimuli/images/PICTURE_504.png,ARTIST,5ead2b253bb47c3b40b94425,04/05/1991,2020-08-13_13h58.32.435,proactive2,2020.1.2,Win32,60,5f341be081b9052c55068110,5f3537400853f23053a59fc0,2,,,,,,wheel,,,,,,0,35,35,49,1,5,1,,,,,,,,,,,,,,,,,,,,,,,,,,,,,,,,,,,,,,,,,,,,,,,,,,,,,,,,,,,,,,,,,,,,,,,,,,,,,,,,,,,,,,,,,,,,,,,,,,,
,,,,,,,,,,stimuli/images/PICTURE_340.png,LETTER,5ead2b253bb47c3b40b94425,04/05/1991,2020-08-13_13h58.32.435,proactive2,2020.1.2,Win32,60,5f341be081b9052c55068110,5f3537400853f23053a59fc0,2,,,,,,mirror,,,,,,0,36,36,24,1,3,1,,,,,,,,,,,,,,,,,,,,,,,,,,,,,,,,,,,,,,,,,,,,,,,,,,,,,,,,,,,,,,,,,,,,,,,,,,,,,,,,,,,,,,,,,,,,,,,,,,,
,,,,,,,,,,stimuli/images/PICTURE_108.png,POLICY,5ead2b253bb47c3b40b94425,04/05/1991,2020-08-13_13h58.32.435,proactive2,2020.1.2,Win32,60,5f341be081b9052c55068110,5f3537400853f23053a59fc0,2,,,,,,calendar,,,,,,0,37,37,22,1,3,1,,,,,,,,,,,,,,,,,,,,,,,,,,,,,,,,,,,,,,,,,,,,,,,,,,,,,,,,,,,,,,,,,,,,,,,,,,,,,,,,,,,,,,,,,,,,,,,,,,,
,,,,,,,,,,stimuli/images/PICTURE_339.png,CLIENT,5ead2b253bb47c3b40b94425,04/05/1991,2020-08-13_13h58.32.435,proactive2,2020.1.2,Win32,60,5f341be081b9052c55068110,5f3537400853f23053a59fc0,2,,,,,,backpack,,,,,,0,38,38,11,1,2,1,,,,,,,,,,,,,,,,,,,,,,,,,,,,,,,,,,,,,,,,,,,,,,,,,,,,,,,,,,,,,,,,,,,,,,,,,,,,,,,,,,,,,,,,,,,,,,,,,,,
,,,,,,,,,,stimuli/images/PICTURE_383.png,SERIES,5ead2b253bb47c3b40b94425,04/05/1991,2020-08-13_13h58.32.435,proactive2,2020.1.2,Win32,60,5f341be081b9052c55068110,5f3537400853f23053a59fc0,2,,,,,,coin,,,,,,0,39,39,46,1,5,1,,,,,,,,,,,,,,,,,,,,,,,,,,,,,,,,,,,,,,,,,,,,,,,,,,,,,,,,,,,,,,,,,,,,,,,,,,,,,,,,,,,,,,,,,,,,,,,,,,,
,,,,,,,,,,stimuli/images/PICTURE_685.png,PENNY,5ead2b253bb47c3b40b94425,04/05/1991,2020-08-13_13h58.32.435,proactive2,2020.1.2,Win32,60,5f341be081b9052c55068110,5f3537400853f23053a59fc0,2,,,,,,goose,,,,,,0,40,40,4,1,1,1,,,,,,,,,,,,,,,,,,,,,,,,,,,,,,,,,,,,,,,,,,,,,,,,,,,,,,,,,,,,,,,,,,,,,,,,,,,,,,,,,,,,,,,,,,,,,,,,,,,
,,,,,,,,,,stimuli/images/PICTURE_654.png,MONTH,5ead2b253bb47c3b40b94425,04/05/1991,2020-08-13_13h58.32.435,proactive2,2020.1.2,Win32,60,5f341be081b9052c55068110,5f3537400853f23053a59fc0,2,,,,,,pencil,,,,,,0,41,41,29,1,3,1,,,,,,,,,,,,,,,,,,,,,,,,,,,,,,,,,,,,,,,,,,,,,,,,,,,,,,,,,,,,,,,,,,,,,,,,,,,,,,,,,,,,,,,,,,,,,,,,,,,
,,,,,,,,,,stimuli/images/PICTURE_68.png,ROOF,5ead2b253bb47c3b40b94425,04/05/1991,2020-08-13_13h58.32.435,proactive2,2020.1.2,Win32,60,5f341be081b9052c55068110,5f3537400853f23053a59fc0,2,,,,,,candle,,,,,,0,42,42,38,1,4,1,,,,,,,,,,,,,,,,,,,,,,,,,,,,,,,,,,,,,,,,,,,,,,,,,,,,,,,,,,,,,,,,,,,,,,,,,,,,,,,,,,,,,,,,,,,,,,,,,,,
,,,,,,,,,,stimuli/images/PICTURE_655.png,TOILET,5ead2b253bb47c3b40b94425,04/05/1991,2020-08-13_13h58.32.435,proactive2,2020.1.2,Win32,60,5f341be081b9052c55068110,5f3537400853f23053a59fc0,2,,,,,,megaphone,,,,,,0,43,43,12,1,2,1,,,,,,,,,,,,,,,,,,,,,,,,,,,,,,,,,,,,,,,,,,,,,,,,,,,,,,,,,,,,,,,,,,,,,,,,,,,,,,,,,,,,,,,,,,,,,,,,,,,
,,,,,,,,,,stimuli/images/PICTURE_32.png,PILLS,5ead2b253bb47c3b40b94425,04/05/1991,2020-08-13_13h58.32.435,proactive2,2020.1.2,Win32,60,5f341be081b9052c55068110,5f3537400853f23053a59fc0,2,,,,,,crown,,,,,,0,44,44,18,1,2,1,,,,,,,,,,,,,,,,,,,,,,,,,,,,,,,,,,,,,,,,,,,,,,,,,,,,,,,,,,,,,,,,,,,,,,,,,,,,,,,,,,,,,,,,,,,,,,,,,,,
,,,,,,,,,,stimuli/images/PICTURE_708.png,RECORD,5ead2b253bb47c3b40b94425,04/05/1991,2020-08-13_13h58.32.435,proactive2,2020.1.2,Win32,60,5f341be081b9052c55068110,5f3537400853f23053a59fc0,2,,,,,,monkey,,,,,,0,45,45,58,1,6,1,,,,,,,,,,,,,,,,,,,,,,,,,,,,,,,,,,,,,,,,,,,,,,,,,,,,,,,,,,,,,,,,,,,,,,,,,,,,,,,,,,,,,,,,,,,,,,,,,,,
,,,,,,,,,,stimuli/images/PICTURE_327.png,CASINO,5ead2b253bb47c3b40b94425,04/05/1991,2020-08-13_13h58.32.435,proactive2,2020.1.2,Win32,60,5f341be081b9052c55068110,5f3537400853f23053a59fc0,2,,,,,,helmet,,,,,,0,46,46,20,1,3,1,,,,,,,,,,,,,,,,,,,,,,,,,,,,,,,,,,,,,,,,,,,,,,,,,,,,,,,,,,,,,,,,,,,,,,,,,,,,,,,,,,,,,,,,,,,,,,,,,,,
,,,,,,,,,,stimuli/images/PICTURE_177.png,WRITER,5ead2b253bb47c3b40b94425,04/05/1991,2020-08-13_13h58.32.435,proactive2,2020.1.2,Win32,60,5f341be081b9052c55068110,5f3537400853f23053a59fc0,2,,,,,,mushroom,,,,,,0,47,47,41,1,5,1,,,,,,,,,,,,,,,,,,,,,,,,,,,,,,,,,,,,,,,,,,,,,,,,,,,,,,,,,,,,,,,,,,,,,,,,,,,,,,,,,,,,,,,,,,,,,,,,,,,
,,,,,,,,,,stimuli/images/PICTURE_203.png,GODS,5ead2b253bb47c3b40b94425,04/05/1991,2020-08-13_13h58.32.435,proactive2,2020.1.2,Win32,60,5f341be081b9052c55068110,5f3537400853f23053a59fc0,2,,,,,,cap,,,,,,0,48,48,30,1,4,1,,,,,,,,,,,,,,,,,,,,,,,,,,,,,,,,,,,,,,,,,,,,,,,,,,,,,,,,,,,,,,,,,,,,,,,,,,,,,,,,,,,,,,,,,,,,,,,,,,,
,,,,,,,,,,stimuli/images/PICTURE_85.png,TOILET,5ead2b253bb47c3b40b94425,04/05/1991,2020-08-13_13h58.32.435,proactive2,2020.1.2,Win32,60,5f341be081b9052c55068110,5f3537400853f23053a59fc0,2,,,,,,diamond,,,,,,0,49,49,48,1,5,1,,,,,,,,,,,,,,,,,,,,,,,,,,,,,,,,,,,,,,,,,,,,,,,,,,,,,,,,,,,,,,,,,,,,,,,,,,,,,,,,,,,,,,,,,,,,,,,,,,,
