consent_key.keys,consent_key.rt,recalled,recalled_rt,recall_acc,example_recall.thisRepN,example_recall.thisTrialN,example_recall.thisN,example_recall.thisIndex,example_recall.ran,file,word,participant,please enter your date of birth (dd/mm/yyyy),date,expName,psychopyVersion,OS,frameRate,STUDY_ID,SESSION_ID,list,prac_learn_study_loop.thisRepN,prac_learn_study_loop.thisTrialN,prac_learn_study_loop.thisN,prac_learn_study_loop.thisIndex,prac_learn_study_loop.ran,image,prac_learn_test_loop.thisRepN,prac_learn_test_loop.thisTrialN,prac_learn_test_loop.thisN,prac_learn_test_loop.thisIndex,prac_learn_test_loop.ran,learn_study_loop.thisRepN,learn_study_loop.thisTrialN,learn_study_loop.thisN,learn_study_loop.thisIndex,learn_study_loop.ran,list_no,block_no,learn_test_loop.thisRepN,learn_test_loop.thisTrialN,learn_test_loop.thisN,learn_test_loop.thisIndex,learn_test_loop.ran,learn_blocks.thisRepN,learn_blocks.thisTrialN,learn_blocks.thisN,learn_blocks.thisIndex,learn_blocks.ran,block_csv,key_resp_13.keys,key_resp_13.rt,learn_blocks_loop.thisRepN,learn_blocks_loop.thisTrialN,learn_blocks_loop.thisN,learn_blocks_loop.thisIndex,learn_blocks_loop.ran,final_learn_test.thisRepN,final_learn_test.thisTrialN,final_learn_test.thisN,final_learn_test.thisIndex,final_learn_test.ran,s_im1,s_im2,s_im3,s_im4,s_im5,s_im6,s_im7,s_im8,s_im1pos,s_im2pos,s_im3pos,s_im4pos,s_im5pos,s_im6pos,s_im7pos,s_im8pos,s_tarright,search_resp.keys,search_resp.rt,search_loop.thisRepN,search_loop.thisTrialN,search_loop.thisN,search_loop.thisIndex,search_loop.ran,prac_wm_test_loop.thisRepN,prac_wm_test_loop.thisTrialN,prac_wm_test_loop.thisN,prac_wm_test_loop.thisIndex,prac_wm_test_loop.ran,wm_recalled1,wm_recall_rt1,wm_probed1,wm_recall_acc1,wm_recalled2,wm_recall_rt2,wm_probed2,wm_recall_acc2,wm_recalled3,wm_recall_rt3,wm_probed3,wm_recall_acc3,wm_recalled4,wm_recall_rt4,wm_probed4,wm_recall_acc4,prac_wm_trial_loop.thisRepN,prac_wm_trial_loop.thisTrialN,prac_wm_trial_loop.thisN,prac_wm_trial_loop.thisIndex,prac_wm_trial_loop.ran,word1,image1,file1,item_type1,word2,image2,file2,item_type2,word4,image4,file4,item_type4,word3,image3,file3,item_type3,wm_test_loop.thisRepN,wm_test_loop.thisTrialN,wm_test_loop.thisN,wm_test_loop.thisIndex,wm_test_loop.ran,wm_trial_loop.thisRepN,wm_trial_loop.thisTrialN,wm_trial_loop.thisN,wm_trial_loop.thisIndex,wm_trial_loop.ran
y,30.647555,TOUGH,2.120315,1,0,0,0,0,1,stimuli/images/PICTURE_747.png,TOUGH,5eb45f0df625d52a7ebdf0ea,21/04/2000,2020-08-13_12h48.28.945,proactive2,2020.1.2,Win32,60,5f341be081b9052c55068110,5f352849c3f0bb06f4edbccf,2,,,,,,,,,,,,,,,,,,,,,,,,,,,,,,,,,,,,,,,,,,,,,,,,,,,,,,,,,,,,,,,,,,,,,,,,,,,,,,,,,,,,,,,,,,,,,,,,,,,,,,,,,,,,,,,,,,,,,
,,,,,,,,,,stimuli/images/PICTURE_697.png,KILLER,5eb45f0df625d52a7ebdf0ea,21/04/2000,2020-08-13_12h48.28.945,proactive2,2020.1.2,Win32,60,5f341be081b9052c55068110,5f352849c3f0bb06f4edbccf,2,0,0,0,4,1,peach,,,,,,,,,,,,,,,,,,,,,,,,,,,,,,,,,,,,,,,,,,,,,,,,,,,,,,,,,,,,,,,,,,,,,,,,,,,,,,,,,,,,,,,,,,,,,,,,,,,,,,,,,,,,,,,
,,,,,,,,,,stimuli/images/PICTURE_269.png,GENIUS,5eb45f0df625d52a7ebdf0ea,21/04/2000,2020-08-13_12h48.28.945,proactive2,2020.1.2,Win32,60,5f341be081b9052c55068110,5f352849c3f0bb06f4edbccf,2,0,1,1,0,1,chameleon,,,,,,,,,,,,,,,,,,,,,,,,,,,,,,,,,,,,,,,,,,,,,,,,,,,,,,,,,,,,,,,,,,,,,,,,,,,,,,,,,,,,,,,,,,,,,,,,,,,,,,,,,,,,,,,
,,,,,,,,,,stimuli/images/PICTURE_378.png,LOSS,5eb45f0df625d52a7ebdf0ea,21/04/2000,2020-08-13_12h48.28.945,proactive2,2020.1.2,Win32,60,5f341be081b9052c55068110,5f352849c3f0bb06f4edbccf,2,0,2,2,2,1,lobster,,,,,,,,,,,,,,,,,,,,,,,,,,,,,,,,,,,,,,,,,,,,,,,,,,,,,,,,,,,,,,,,,,,,,,,,,,,,,,,,,,,,,,,,,,,,,,,,,,,,,,,,,,,,,,,
,,,,,,,,,,stimuli/images/PICTURE_727.png,CELL,5eb45f0df625d52a7ebdf0ea,21/04/2000,2020-08-13_12h48.28.945,proactive2,2020.1.2,Win32,60,5f341be081b9052c55068110,5f352849c3f0bb06f4edbccf,2,0,3,3,1,1,hose,,,,,,,,,,,,,,,,,,,,,,,,,,,,,,,,,,,,,,,,,,,,,,,,,,,,,,,,,,,,,,,,,,,,,,,,,,,,,,,,,,,,,,,,,,,,,,,,,,,,,,,,,,,,,,,
,,GENIUS,2.659775,1,,,,,,stimuli/images/PICTURE_269.png,GENIUS,5eb45f0df625d52a7ebdf0ea,21/04/2000,2020-08-13_12h48.28.945,proactive2,2020.1.2,Win32,60,5f341be081b9052c55068110,5f352849c3f0bb06f4edbccf,2,,,,,,chameleon,0,0,0,0,1,,,,,,,,,,,,,,,,,,,,,,,,,,,,,,,,,,,,,,,,,,,,,,,,,,,,,,,,,,,,,,,,,,,,,,,,,,,,,,,,,,,,,,,,,,,,,,,,,,,,,,,,,,
,,KILLER,1.963485,1,,,,,,stimuli/images/PICTURE_697.png,KILLER,5eb45f0df625d52a7ebdf0ea,21/04/2000,2020-08-13_12h48.28.945,proactive2,2020.1.2,Win32,60,5f341be081b9052c55068110,5f352849c3f0bb06f4edbccf,2,,,,,,peach,0,1,1,4,1,,,,,,,,,,,,,,,,,,,,,,,,,,,,,,,,,,,,,,,,,,,,,,,,,,,,,,,,,,,,,,,,,,,,,,,,,,,,,,,,,,,,,,,,,,,,,,,,,,,,,,,,,,
,,LOSS,1.447045,1,,,,,,stimuli/images/PICTURE_378.png,LOSS,5eb45f0df625d52a7ebdf0ea,21/04/2000,2020-08-13_12h48.28.945,proactive2,2020.1.2,Win32,60,5f341be081b9052c55068110,5f352849c3f0bb06f4edbccf,2,,,,,,lobster,0,2,2,2,1,,,,,,,,,,,,,,,,,,,,,,,,,,,,,,,,,,,,,,,,,,,,,,,,,,,,,,,,,,,,,,,,,,,,,,,,,,,,,,,,,,,,,,,,,,,,,,,,,,,,,,,,,,
,,DEVIL,2.13026,1,,,,,,stimuli/images/PICTURE_658.png,DEVIL,5eb45f0df625d52a7ebdf0ea,21/04/2000,2020-08-13_12h48.28.945,proactive2,2020.1.2,Win32,60,5f341be081b9052c55068110,5f352849c3f0bb06f4edbccf,2,,,,,,crow,0,3,3,3,1,,,,,,,,,,,,,,,,,,,,,,,,,,,,,,,,,,,,,,,,,,,,,,,,,,,,,,,,,,,,,,,,,,,,,,,,,,,,,,,,,,,,,,,,,,,,,,,,,,,,,,,,,,
,,CELL,1.86305,1,,,,,,stimuli/images/PICTURE_727.png,CELL,5eb45f0df625d52a7ebdf0ea,21/04/2000,2020-08-13_12h48.28.945,proactive2,2020.1.2,Win32,60,5f341be081b9052c55068110,5f352849c3f0bb06f4edbccf,2,,,,,,hose,0,4,4,1,1,,,,,,,,,,,,,,,,,,,,,,,,,,,,,,,,,,,,,,,,,,,,,,,,,,,,,,,,,,,,,,,,,,,,,,,,,,,,,,,,,,,,,,,,,,,,,,,,,,,,,,,,,,
,,,,,,,,,,stimuli/images/PICTURE_504.png,COPS,5eb45f0df625d52a7ebdf0ea,21/04/2000,2020-08-13_12h48.28.945,proactive2,2020.1.2,Win32,60,5f341be081b9052c55068110,5f352849c3f0bb06f4edbccf,2,,,,,,wheel,,,,,,0,0,0,52,1,6,1,,,,,,,,,,,,,,,,,,,,,,,,,,,,,,,,,,,,,,,,,,,,,,,,,,,,,,,,,,,,,,,,,,,,,,,,,,,,,,,,,,,,,,,,,,,,,,,,,,,
,,,,,,,,,,stimuli/images/PICTURE_327.png,CASINO,5eb45f0df625d52a7ebdf0ea,21/04/2000,2020-08-13_12h48.28.945,proactive2,2020.1.2,Win32,60,5f341be081b9052c55068110,5f352849c3f0bb06f4edbccf,2,,,,,,helmet,,,,,,0,1,1,20,1,3,1,,,,,,,,,,,,,,,,,,,,,,,,,,,,,,,,,,,,,,,,,,,,,,,,,,,,,,,,,,,,,,,,,,,,,,,,,,,,,,,,,,,,,,,,,,,,,,,,,,,
,,,,,,,,,,stimuli/images/PICTURE_685.png,PENNY,5eb45f0df625d52a7ebdf0ea,21/04/2000,2020-08-13_12h48.28.945,proactive2,2020.1.2,Win32,60,5f341be081b9052c55068110,5f352849c3f0bb06f4edbccf,2,,,,,,goose,,,,,,0,2,2,4,1,1,1,,,,,,,,,,,,,,,,,,,,,,,,,,,,,,,,,,,,,,,,,,,,,,,,,,,,,,,,,,,,,,,,,,,,,,,,,,,,,,,,,,,,,,,,,,,,,,,,,,,
,,,,,,,,,,stimuli/images/PICTURE_57.png,MOMENT,5eb45f0df625d52a7ebdf0ea,21/04/2000,2020-08-13_12h48.28.945,proactive2,2020.1.2,Win32,60,5f341be081b9052c55068110,5f352849c3f0bb06f4edbccf,2,,,,,,stamp,,,,,,0,3,3,37,1,4,1,,,,,,,,,,,,,,,,,,,,,,,,,,,,,,,,,,,,,,,,,,,,,,,,,,,,,,,,,,,,,,,,,,,,,,,,,,,,,,,,,,,,,,,,,,,,,,,,,,,
,,,,,,,,,,stimuli/images/PICTURE_203.png,GODS,5eb45f0df625d52a7ebdf0ea,21/04/2000,2020-08-13_12h48.28.945,proactive2,2020.1.2,Win32,60,5f341be081b9052c55068110,5f352849c3f0bb06f4edbccf,2,,,,,,cap,,,,,,0,4,4,30,1,4,1,,,,,,,,,,,,,,,,,,,,,,,,,,,,,,,,,,,,,,,,,,,,,,,,,,,,,,,,,,,,,,,,,,,,,,,,,,,,,,,,,,,,,,,,,,,,,,,,,,,
,,,,,,,,,,stimuli/images/PICTURE_285.png,LIFE,5eb45f0df625d52a7ebdf0ea,21/04/2000,2020-08-13_12h48.28.945,proactive2,2020.1.2,Win32,60,5f341be081b9052c55068110,5f352849c3f0bb06f4edbccf,2,,,,,,carrot,,,,,,0,5,5,33,1,4,1,,,,,,,,,,,,,,,,,,,,,,,,,,,,,,,,,,,,,,,,,,,,,,,,,,,,,,,,,,,,,,,,,,,,,,,,,,,,,,,,,,,,,,,,,,,,,,,,,,,
,,,,,,,,,,stimuli/images/PICTURE_339.png,CLIENT,5eb45f0df625d52a7ebdf0ea,21/04/2000,2020-08-13_12h48.28.945,proactive2,2020.1.2,Win32,60,5f341be081b9052c55068110,5f352849c3f0bb06f4edbccf,2,,,,,,backpack,,,,,,0,6,6,11,1,2,1,,,,,,,,,,,,,,,,,,,,,,,,,,,,,,,,,,,,,,,,,,,,,,,,,,,,,,,,,,,,,,,,,,,,,,,,,,,,,,,,,,,,,,,,,,,,,,,,,,,
,,,,,,,,,,stimuli/images/PICTURE_708.png,RECORD,5eb45f0df625d52a7ebdf0ea,21/04/2000,2020-08-13_12h48.28.945,proactive2,2020.1.2,Win32,60,5f341be081b9052c55068110,5f352849c3f0bb06f4edbccf,2,,,,,,monkey,,,,,,0,7,7,58,1,6,1,,,,,,,,,,,,,,,,,,,,,,,,,,,,,,,,,,,,,,,,,,,,,,,,,,,,,,,,,,,,,,,,,,,,,,,,,,,,,,,,,,,,,,,,,,,,,,,,,,,
,,,,,,,,,,stimuli/images/PICTURE_33.png,FRIEND,5eb45f0df625d52a7ebdf0ea,21/04/2000,2020-08-13_12h48.28.945,proactive2,2020.1.2,Win32,60,5f341be081b9052c55068110,5f352849c3f0bb06f4edbccf,2,,,,,,frame,,,,,,0,8,8,8,1,1,1,,,,,,,,,,,,,,,,,,,,,,,,,,,,,,,,,,,,,,,,,,,,,,,,,,,,,,,,,,,,,,,,,,,,,,,,,,,,,,,,,,,,,,,,,,,,,,,,,,,
,,,,,,,,,,stimuli/images/PICTURE_95.png,HONEY,5eb45f0df625d52a7ebdf0ea,21/04/2000,2020-08-13_12h48.28.945,proactive2,2020.1.2,Win32,60,5f341be081b9052c55068110,5f352849c3f0bb06f4edbccf,2,,,,,,suitcase,,,,,,0,9,9,44,1,5,1,,,,,,,,,,,,,,,,,,,,,,,,,,,,,,,,,,,,,,,,,,,,,,,,,,,,,,,,,,,,,,,,,,,,,,,,,,,,,,,,,,,,,,,,,,,,,,,,,,,
,,,,,,,,,,stimuli/images/PICTURE_95.png,BOYS,5eb45f0df625d52a7ebdf0ea,21/04/2000,2020-08-13_12h48.28.945,proactive2,2020.1.2,Win32,60,5f341be081b9052c55068110,5f352849c3f0bb06f4edbccf,2,,,,,,suitcase,,,,,,0,10,10,1,1,1,1,,,,,,,,,,,,,,,,,,,,,,,,,,,,,,,,,,,,,,,,,,,,,,,,,,,,,,,,,,,,,,,,,,,,,,,,,,,,,,,,,,,,,,,,,,,,,,,,,,,
,,,,,,,,,,stimuli/images/PICTURE_405.png,PLENTY,5eb45f0df625d52a7ebdf0ea,21/04/2000,2020-08-13_12h48.28.945,proactive2,2020.1.2,Win32,60,5f341be081b9052c55068110,5f352849c3f0bb06f4edbccf,2,,,,,,anchor,,,,,,0,11,11,23,1,3,1,,,,,,,,,,,,,,,,,,,,,,,,,,,,,,,,,,,,,,,,,,,,,,,,,,,,,,,,,,,,,,,,,,,,,,,,,,,,,,,,,,,,,,,,,,,,,,,,,,,
,,,,,,,,,,stimuli/images/PICTURE_85.png,TOILET,5eb45f0df625d52a7ebdf0ea,21/04/2000,2020-08-13_12h48.28.945,proactive2,2020.1.2,Win32,60,5f341be081b9052c55068110,5f352849c3f0bb06f4edbccf,2,,,,,,diamond,,,,,,0,12,12,48,1,5,1,,,,,,,,,,,,,,,,,,,,,,,,,,,,,,,,,,,,,,,,,,,,,,,,,,,,,,,,,,,,,,,,,,,,,,,,,,,,,,,,,,,,,,,,,,,,,,,,,,,
,,,,,,,,,,stimuli/images/PICTURE_504.png,YEAR,5eb45f0df625d52a7ebdf0ea,21/04/2000,2020-08-13_12h48.28.945,proactive2,2020.1.2,Win32,60,5f341be081b9052c55068110,5f352849c3f0bb06f4edbccf,2,,,,,,wheel,,,,,,0,13,13,13,1,2,1,,,,,,,,,,,,,,,,,,,,,,,,,,,,,,,,,,,,,,,,,,,,,,,,,,,,,,,,,,,,,,,,,,,,,,,,,,,,,,,,,,,,,,,,,,,,,,,,,,,
,,,,,,,,,,stimuli/images/PICTURE_233.png,LOTS,5eb45f0df625d52a7ebdf0ea,21/04/2000,2020-08-13_12h48.28.945,proactive2,2020.1.2,Win32,60,5f341be081b9052c55068110,5f352849c3f0bb06f4edbccf,2,,,,,,salt,,,,,,0,14,14,42,1,5,1,,,,,,,,,,,,,,,,,,,,,,,,,,,,,,,,,,,,,,,,,,,,,,,,,,,,,,,,,,,,,,,,,,,,,,,,,,,,,,,,,,,,,,,,,,,,,,,,,,,
,,,,,,,,,,stimuli/images/PICTURE_677.png,APPLE,5eb45f0df625d52a7ebdf0ea,21/04/2000,2020-08-13_12h48.28.945,proactive2,2020.1.2,Win32,60,5f341be081b9052c55068110,5f352849c3f0bb06f4edbccf,2,,,,,,map,,,,,,0,15,15,43,1,5,1,,,,,,,,,,,,,,,,,,,,,,,,,,,,,,,,,,,,,,,,,,,,,,,,,,,,,,,,,,,,,,,,,,,,,,,,,,,,,,,,,,,,,,,,,,,,,,,,,,,
,,,,,,,,,,stimuli/images/PICTURE_667.png,RIVER,5eb45f0df625d52a7ebdf0ea,21/04/2000,2020-08-13_12h48.28.945,proactive2,2020.1.2,Win32,60,5f341be081b9052c55068110,5f352849c3f0bb06f4edbccf,2,,,,,,daisy,,,,,,0,16,16,10,1,2,1,,,,,,,,,,,,,,,,,,,,,,,,,,,,,,,,,,,,,,,,,,,,,,,,,,,,,,,,,,,,,,,,,,,,,,,,,,,,,,,,,,,,,,,,,,,,,,,,,,,
,,,,,,,,,,stimuli/images/PICTURE_42.png,BOYS,5eb45f0df625d52a7ebdf0ea,21/04/2000,2020-08-13_12h48.28.945,proactive2,2020.1.2,Win32,60,5f341be081b9052c55068110,5f352849c3f0bb06f4edbccf,2,,,,,,pear,,,,,,0,17,17,55,1,6,1,,,,,,,,,,,,,,,,,,,,,,,,,,,,,,,,,,,,,,,,,,,,,,,,,,,,,,,,,,,,,,,,,,,,,,,,,,,,,,,,,,,,,,,,,,,,,,,,,,,
,,,,,,,,,,stimuli/images/PICTURE_147.png,WOMEN,5eb45f0df625d52a7ebdf0ea,21/04/2000,2020-08-13_12h48.28.945,proactive2,2020.1.2,Win32,60,5f341be081b9052c55068110,5f352849c3f0bb06f4edbccf,2,,,,,,hanger,,,,,,0,18,18,7,1,1,1,,,,,,,,,,,,,,,,,,,,,,,,,,,,,,,,,,,,,,,,,,,,,,,,,,,,,,,,,,,,,,,,,,,,,,,,,,,,,,,,,,,,,,,,,,,,,,,,,,,
,,,,,,,,,,stimuli/images/PICTURE_487.png,GIRL,5eb45f0df625d52a7ebdf0ea,21/04/2000,2020-08-13_12h48.28.945,proactive2,2020.1.2,Win32,60,5f341be081b9052c55068110,5f352849c3f0bb06f4edbccf,2,,,,,,basket,,,,,,0,19,19,45,1,5,1,,,,,,,,,,,,,,,,,,,,,,,,,,,,,,,,,,,,,,,,,,,,,,,,,,,,,,,,,,,,,,,,,,,,,,,,,,,,,,,,,,,,,,,,,,,,,,,,,,,
,,,,,,,,,,stimuli/images/PICTURE_85.png,NATION,5eb45f0df625d52a7ebdf0ea,21/04/2000,2020-08-13_12h48.28.945,proactive2,2020.1.2,Win32,60,5f341be081b9052c55068110,5f352849c3f0bb06f4edbccf,2,,,,,,diamond,,,,,,0,20,20,5,1,1,1,,,,,,,,,,,,,,,,,,,,,,,,,,,,,,,,,,,,,,,,,,,,,,,,,,,,,,,,,,,,,,,,,,,,,,,,,,,,,,,,,,,,,,,,,,,,,,,,,,,
,,,,,,,,,,stimuli/images/PICTURE_108.png,POLICY,5eb45f0df625d52a7ebdf0ea,21/04/2000,2020-08-13_12h48.28.945,proactive2,2020.1.2,Win32,60,5f341be081b9052c55068110,5f352849c3f0bb06f4edbccf,2,,,,,,calendar,,,,,,0,21,21,22,1,3,1,,,,,,,,,,,,,,,,,,,,,,,,,,,,,,,,,,,,,,,,,,,,,,,,,,,,,,,,,,,,,,,,,,,,,,,,,,,,,,,,,,,,,,,,,,,,,,,,,,,
,,,,,,,,,,stimuli/images/PICTURE_469.png,AGENT,5eb45f0df625d52a7ebdf0ea,21/04/2000,2020-08-13_12h48.28.945,proactive2,2020.1.2,Win32,60,5f341be081b9052c55068110,5f352849c3f0bb06f4edbccf,2,,,,,,stool,,,,,,0,22,22,16,1,2,1,,,,,,,,,,,,,,,,,,,,,,,,,,,,,,,,,,,,,,,,,,,,,,,,,,,,,,,,,,,,,,,,,,,,,,,,,,,,,,,,,,,,,,,,,,,,,,,,,,,
,,,,,,,,,,stimuli/images/PICTURE_654.png,MONTH,5eb45f0df625d52a7ebdf0ea,21/04/2000,2020-08-13_12h48.28.945,proactive2,2020.1.2,Win32,60,5f341be081b9052c55068110,5f352849c3f0bb06f4edbccf,2,,,,,,pencil,,,,,,0,23,23,29,1,3,1,,,,,,,,,,,,,,,,,,,,,,,,,,,,,,,,,,,,,,,,,,,,,,,,,,,,,,,,,,,,,,,,,,,,,,,,,,,,,,,,,,,,,,,,,,,,,,,,,,,
,,,,,,,,,,stimuli/images/PICTURE_449.png,DUDE,5eb45f0df625d52a7ebdf0ea,21/04/2000,2020-08-13_12h48.28.945,proactive2,2020.1.2,Win32,60,5f341be081b9052c55068110,5f352849c3f0bb06f4edbccf,2,,,,,,bench,,,,,,0,24,24,17,1,2,1,,,,,,,,,,,,,,,,,,,,,,,,,,,,,,,,,,,,,,,,,,,,,,,,,,,,,,,,,,,,,,,,,,,,,,,,,,,,,,,,,,,,,,,,,,,,,,,,,,,
,,,,,,,,,,stimuli/images/PICTURE_297.png,RIVER,5eb45f0df625d52a7ebdf0ea,21/04/2000,2020-08-13_12h48.28.945,proactive2,2020.1.2,Win32,60,5f341be081b9052c55068110,5f352849c3f0bb06f4edbccf,2,,,,,,aeroplane,,,,,,0,25,25,39,1,4,1,,,,,,,,,,,,,,,,,,,,,,,,,,,,,,,,,,,,,,,,,,,,,,,,,,,,,,,,,,,,,,,,,,,,,,,,,,,,,,,,,,,,,,,,,,,,,,,,,,,
,,,,,,,,,,stimuli/images/PICTURE_308.png,FAMILY,5eb45f0df625d52a7ebdf0ea,21/04/2000,2020-08-13_12h48.28.945,proactive2,2020.1.2,Win32,60,5f341be081b9052c55068110,5f352849c3f0bb06f4edbccf,2,,,,,,dice,,,,,,0,26,26,36,1,4,1,,,,,,,,,,,,,,,,,,,,,,,,,,,,,,,,,,,,,,,,,,,,,,,,,,,,,,,,,,,,,,,,,,,,,,,,,,,,,,,,,,,,,,,,,,,,,,,,,,,
,,,,,,,,,,stimuli/images/PICTURE_675.png,SALE,5eb45f0df625d52a7ebdf0ea,21/04/2000,2020-08-13_12h48.28.945,proactive2,2020.1.2,Win32,60,5f341be081b9052c55068110,5f352849c3f0bb06f4edbccf,2,,,,,,windmill,,,,,,0,27,27,47,1,5,1,,,,,,,,,,,,,,,,,,,,,,,,,,,,,,,,,,,,,,,,,,,,,,,,,,,,,,,,,,,,,,,,,,,,,,,,,,,,,,,,,,,,,,,,,,,,,,,,,,,
,,,,,,,,,,stimuli/images/PICTURE_403.png,TOILET,5eb45f0df625d52a7ebdf0ea,21/04/2000,2020-08-13_12h48.28.945,proactive2,2020.1.2,Win32,60,5f341be081b9052c55068110,5f352849c3f0bb06f4edbccf,2,,,,,,cathedral,,,,,,0,28,28,25,1,3,1,,,,,,,,,,,,,,,,,,,,,,,,,,,,,,,,,,,,,,,,,,,,,,,,,,,,,,,,,,,,,,,,,,,,,,,,,,,,,,,,,,,,,,,,,,,,,,,,,,,
,,,,,,,,,,stimuli/images/PICTURE_296.png,LOTS,5eb45f0df625d52a7ebdf0ea,21/04/2000,2020-08-13_12h48.28.945,proactive2,2020.1.2,Win32,60,5f341be081b9052c55068110,5f352849c3f0bb06f4edbccf,2,,,,,,bolt,,,,,,0,29,29,9,1,1,1,,,,,,,,,,,,,,,,,,,,,,,,,,,,,,,,,,,,,,,,,,,,,,,,,,,,,,,,,,,,,,,,,,,,,,,,,,,,,,,,,,,,,,,,,,,,,,,,,,,
,,,,,,,,,,stimuli/images/PICTURE_296.png,LIFE,5eb45f0df625d52a7ebdf0ea,21/04/2000,2020-08-13_12h48.28.945,proactive2,2020.1.2,Win32,60,5f341be081b9052c55068110,5f352849c3f0bb06f4edbccf,2,,,,,,bolt,,,,,,0,30,30,57,1,6,1,,,,,,,,,,,,,,,,,,,,,,,,,,,,,,,,,,,,,,,,,,,,,,,,,,,,,,,,,,,,,,,,,,,,,,,,,,,,,,,,,,,,,,,,,,,,,,,,,,,
,,,,,,,,,,stimuli/images/PICTURE_108.png,FLIGHT,5eb45f0df625d52a7ebdf0ea,21/04/2000,2020-08-13_12h48.28.945,proactive2,2020.1.2,Win32,60,5f341be081b9052c55068110,5f352849c3f0bb06f4edbccf,2,,,,,,calendar,,,,,,0,31,31,59,1,6,1,,,,,,,,,,,,,,,,,,,,,,,,,,,,,,,,,,,,,,,,,,,,,,,,,,,,,,,,,,,,,,,,,,,,,,,,,,,,,,,,,,,,,,,,,,,,,,,,,,,
,,,,,,,,,,stimuli/images/PICTURE_564.png,BATH,5eb45f0df625d52a7ebdf0ea,21/04/2000,2020-08-13_12h48.28.945,proactive2,2020.1.2,Win32,60,5f341be081b9052c55068110,5f352849c3f0bb06f4edbccf,2,,,,,,spoon,,,,,,0,32,32,26,1,3,1,,,,,,,,,,,,,,,,,,,,,,,,,,,,,,,,,,,,,,,,,,,,,,,,,,,,,,,,,,,,,,,,,,,,,,,,,,,,,,,,,,,,,,,,,,,,,,,,,,,
,,,,,,,,,,stimuli/images/PICTURE_32.png,PILLS,5eb45f0df625d52a7ebdf0ea,21/04/2000,2020-08-13_12h48.28.945,proactive2,2020.1.2,Win32,60,5f341be081b9052c55068110,5f352849c3f0bb06f4edbccf,2,,,,,,crown,,,,,,0,33,33,18,1,2,1,,,,,,,,,,,,,,,,,,,,,,,,,,,,,,,,,,,,,,,,,,,,,,,,,,,,,,,,,,,,,,,,,,,,,,,,,,,,,,,,,,,,,,,,,,,,,,,,,,,
,,,,,,,,,,stimuli/images/PICTURE_68.png,ROOF,5eb45f0df625d52a7ebdf0ea,21/04/2000,2020-08-13_12h48.28.945,proactive2,2020.1.2,Win32,60,5f341be081b9052c55068110,5f352849c3f0bb06f4edbccf,2,,,,,,candle,,,,,,0,34,34,38,1,4,1,,,,,,,,,,,,,,,,,,,,,,,,,,,,,,,,,,,,,,,,,,,,,,,,,,,,,,,,,,,,,,,,,,,,,,,,,,,,,,,,,,,,,,,,,,,,,,,,,,,
,,,,,,,,,,stimuli/images/PICTURE_177.png,WRITER,5eb45f0df625d52a7ebdf0ea,21/04/2000,2020-08-13_12h48.28.945,proactive2,2020.1.2,Win32,60,5f341be081b9052c55068110,5f352849c3f0bb06f4edbccf,2,,,,,,mushroom,,,,,,0,35,35,41,1,5,1,,,,,,,,,,,,,,,,,,,,,,,,,,,,,,,,,,,,,,,,,,,,,,,,,,,,,,,,,,,,,,,,,,,,,,,,,,,,,,,,,,,,,,,,,,,,,,,,,,,
,,,,,,,,,,stimuli/images/PICTURE_327.png,SERIES,5eb45f0df625d52a7ebdf0ea,21/04/2000,2020-08-13_12h48.28.945,proactive2,2020.1.2,Win32,60,5f341be081b9052c55068110,5f352849c3f0bb06f4edbccf,2,,,,,,helmet,,,,,,0,36,36,3,1,1,1,,,,,,,,,,,,,,,,,,,,,,,,,,,,,,,,,,,,,,,,,,,,,,,,,,,,,,,,,,,,,,,,,,,,,,,,,,,,,,,,,,,,,,,,,,,,,,,,,,,
,,,,,,,,,,stimuli/images/PICTURE_147.png,YEAR,5eb45f0df625d52a7ebdf0ea,21/04/2000,2020-08-13_12h48.28.945,proactive2,2020.1.2,Win32,60,5f341be081b9052c55068110,5f352849c3f0bb06f4edbccf,2,,,,,,hanger,,,,,,0,37,37,21,1,3,1,,,,,,,,,,,,,,,,,,,,,,,,,,,,,,,,,,,,,,,,,,,,,,,,,,,,,,,,,,,,,,,,,,,,,,,,,,,,,,,,,,,,,,,,,,,,,,,,,,,
,,,,,,,,,,stimuli/images/PICTURE_68.png,MILE,5eb45f0df625d52a7ebdf0ea,21/04/2000,2020-08-13_12h48.28.945,proactive2,2020.1.2,Win32,60,5f341be081b9052c55068110,5f352849c3f0bb06f4edbccf,2,,,,,,candle,,,,,,0,38,38,51,1,6,1,,,,,,,,,,,,,,,,,,,,,,,,,,,,,,,,,,,,,,,,,,,,,,,,,,,,,,,,,,,,,,,,,,,,,,,,,,,,,,,,,,,,,,,,,,,,,,,,,,,
,,,,,,,,,,stimuli/images/PICTURE_403.png,WRITER,5eb45f0df625d52a7ebdf0ea,21/04/2000,2020-08-13_12h48.28.945,proactive2,2020.1.2,Win32,60,5f341be081b9052c55068110,5f352849c3f0bb06f4edbccf,2,,,,,,cathedral,,,,,,0,39,39,31,1,4,1,,,,,,,,,,,,,,,,,,,,,,,,,,,,,,,,,,,,,,,,,,,,,,,,,,,,,,,,,,,,,,,,,,,,,,,,,,,,,,,,,,,,,,,,,,,,,,,,,,,
,,,,,,,,,,stimuli/images/PICTURE_504.png,ARTIST,5eb45f0df625d52a7ebdf0ea,21/04/2000,2020-08-13_12h48.28.945,proactive2,2020.1.2,Win32,60,5f341be081b9052c55068110,5f352849c3f0bb06f4edbccf,2,,,,,,wheel,,,,,,0,40,40,49,1,5,1,,,,,,,,,,,,,,,,,,,,,,,,,,,,,,,,,,,,,,,,,,,,,,,,,,,,,,,,,,,,,,,,,,,,,,,,,,,,,,,,,,,,,,,,,,,,,,,,,,,
,,,,,,,,,,stimuli/images/PICTURE_95.png,MILLER,5eb45f0df625d52a7ebdf0ea,21/04/2000,2020-08-13_12h48.28.945,proactive2,2020.1.2,Win32,60,5f341be081b9052c55068110,5f352849c3f0bb06f4edbccf,2,,,,,,suitcase,,,,,,0,41,41,56,1,6,1,,,,,,,,,,,,,,,,,,,,,,,,,,,,,,,,,,,,,,,,,,,,,,,,,,,,,,,,,,,,,,,,,,,,,,,,,,,,,,,,,,,,,,,,,,,,,,,,,,,
,,,,,,,,,,stimuli/images/PICTURE_203.png,NIGHT,5eb45f0df625d52a7ebdf0ea,21/04/2000,2020-08-13_12h48.28.945,proactive2,2020.1.2,Win32,60,5f341be081b9052c55068110,5f352849c3f0bb06f4edbccf,2,,,,,,cap,,,,,,0,42,42,2,1,1,1,,,,,,,,,,,,,,,,,,,,,,,,,,,,,,,,,,,,,,,,,,,,,,,,,,,,,,,,,,,,,,,,,,,,,,,,,,,,,,,,,,,,,,,,,,,,,,,,,,,
,,,,,,,,,,stimuli/images/PICTURE_380.png,CANDY,5eb45f0df625d52a7ebdf0ea,21/04/2000,2020-08-13_12h48.28.945,proactive2,2020.1.2,Win32,60,5f341be081b9052c55068110,5f352849c3f0bb06f4edbccf,2,,,,,,gorilla,,,,,,0,43,43,0,1,1,1,,,,,,,,,,,,,,,,,,,,,,,,,,,,,,,,,,,,,,,,,,,,,,,,,,,,,,,,,,,,,,,,,,,,,,,,,,,,,,,,,,,,,,,,,,,,,,,,,,,
,,,,,,,,,,stimuli/images/PICTURE_383.png,WRITER,5eb45f0df625d52a7ebdf0ea,21/04/2000,2020-08-13_12h48.28.945,proactive2,2020.1.2,Win32,60,5f341be081b9052c55068110,5f352849c3f0bb06f4edbccf,2,,,,,,coin,,,,,,0,44,44,28,1,3,1,,,,,,,,,,,,,,,,,,,,,,,,,,,,,,,,,,,,,,,,,,,,,,,,,,,,,,,,,,,,,,,,,,,,,,,,,,,,,,,,,,,,,,,,,,,,,,,,,,,
,,,,,,,,,,stimuli/images/PICTURE_467.png,POLICY,5eb45f0df625d52a7ebdf0ea,21/04/2000,2020-08-13_12h48.28.945,proactive2,2020.1.2,Win32,60,5f341be081b9052c55068110,5f352849c3f0bb06f4edbccf,2,,,,,,peg,,,,,,0,45,45,53,1,6,1,,,,,,,,,,,,,,,,,,,,,,,,,,,,,,,,,,,,,,,,,,,,,,,,,,,,,,,,,,,,,,,,,,,,,,,,,,,,,,,,,,,,,,,,,,,,,,,,,,,
,,,,,,,,,,stimuli/images/PICTURE_380.png,HONEY,5eb45f0df625d52a7ebdf0ea,21/04/2000,2020-08-13_12h48.28.945,proactive2,2020.1.2,Win32,60,5f341be081b9052c55068110,5f352849c3f0bb06f4edbccf,2,,,,,,gorilla,,,,,,0,46,46,19,1,2,1,,,,,,,,,,,,,,,,,,,,,,,,,,,,,,,,,,,,,,,,,,,,,,,,,,,,,,,,,,,,,,,,,,,,,,,,,,,,,,,,,,,,,,,,,,,,,,,,,,,
,,,,,,,,,,stimuli/images/PICTURE_405.png,YEAR,5eb45f0df625d52a7ebdf0ea,21/04/2000,2020-08-13_12h48.28.945,proactive2,2020.1.2,Win32,60,5f341be081b9052c55068110,5f352849c3f0bb06f4edbccf,2,,,,,,anchor,,,,,,0,47,47,34,1,4,1,,,,,,,,,,,,,,,,,,,,,,,,,,,,,,,,,,,,,,,,,,,,,,,,,,,,,,,,,,,,,,,,,,,,,,,,,,,,,,,,,,,,,,,,,,,,,,,,,,,
,,,,,,,,,,stimuli/images/PICTURE_750.png,HOTEL,5eb45f0df625d52a7ebdf0ea,21/04/2000,2020-08-13_12h48.28.945,proactive2,2020.1.2,Win32,60,5f341be081b9052c55068110,5f352849c3f0bb06f4edbccf,2,,,,,,kettle,,,,,,0,48,48,27,1,3,1,,,,,,,,,,,,,,,,,,,,,,,,,,,,,,,,,,,,,,,,,,,,,,,,,,,,,,,,,,,,,,,,,,,,,,,,,,,,,,,,,,,,,,,,,,,,,,,,,,,
,,,,,,,,,,stimuli/images/PICTURE_340.png,VALLEY,5eb45f0df625d52a7ebdf0ea,21/04/2000,2020-08-13_12h48.28.945,proactive2,2020.1.2,Win32,60,5f341be081b9052c55068110,5f352849c3f0bb06f4edbccf,2,,,,,,mirror,,,,,,0,49,49,54,1,6,1,,,,,,,,,,,,,,,,,,,,,,,,,,,,,,,,,,,,,,,,,,,,,,,,,,,,,,,,,,,,,,,,,,,,,,,,,,,,,,,,,,,,,,,,,,,,,,,,,,,
,,,,,,,,,,stimuli/images/PICTURE_2.png,FLIGHT,5eb45f0df625d52a7ebdf0ea,21/04/2000,2020-08-13_12h48.28.945,proactive2,2020.1.2,Win32,60,5f341be081b9052c55068110,5f352849c3f0bb06f4edbccf,2,,,,,,tyre,,,,,,0,50,50,15,1,2,1,,,,,,,,,,,,,,,,,,,,,,,,,,,,,,,,,,,,,,,,,,,,,,,,,,,,,,,,,,,,,,,,,,,,,,,,,,,,,,,,,,,,,,,,,,,,,,,,,,,
,,,,,,,,,,stimuli/images/PICTURE_744.png,WEAPON,5eb45f0df625d52a7ebdf0ea,21/04/2000,2020-08-13_12h48.28.945,proactive2,2020.1.2,Win32,60,5f341be081b9052c55068110,5f352849c3f0bb06f4edbccf,2,,,,,,ring,,,,,,0,51,51,50,1,6,1,,,,,,,,,,,,,,,,,,,,,,,,,,,,,,,,,,,,,,,,,,,,,,,,,,,,,,,,,,,,,,,,,,,,,,,,,,,,,,,,,,,,,,,,,,,,,,,,,,,
,,,,,,,,,,stimuli/images/PICTURE_340.png,LETTER,5eb45f0df625d52a7ebdf0ea,21/04/2000,2020-08-13_12h48.28.945,proactive2,2020.1.2,Win32,60,5f341be081b9052c55068110,5f352849c3f0bb06f4edbccf,2,,,,,,mirror,,,,,,0,52,52,24,1,3,1,,,,,,,,,,,,,,,,,,,,,,,,,,,,,,,,,,,,,,,,,,,,,,,,,,,,,,,,,,,,,,,,,,,,,,,,,,,,,,,,,,,,,,,,,,,,,,,,,,,
,,,,,,,,,,stimuli/images/PICTURE_491.png,RIVER,5eb45f0df625d52a7ebdf0ea,21/04/2000,2020-08-13_12h48.28.945,proactive2,2020.1.2,Win32,60,5f341be081b9052c55068110,5f352849c3f0bb06f4edbccf,2,,,,,,rug,,,,,,0,53,53,6,1,1,1,,,,,,,,,,,,,,,,,,,,,,,,,,,,,,,,,,,,,,,,,,,,,,,,,,,,,,,,,,,,,,,,,,,,,,,,,,,,,,,,,,,,,,,,,,,,,,,,,,,
,,,,,,,,,,stimuli/images/PICTURE_208.png,SYSTEM,5eb45f0df625d52a7ebdf0ea,21/04/2000,2020-08-13_12h48.28.945,proactive2,2020.1.2,Win32,60,5f341be081b9052c55068110,5f352849c3f0bb06f4edbccf,2,,,,,,microphone,,,,,,0,54,54,32,1,4,1,,,,,,,,,,,,,,,,,,,,,,,,,,,,,,,,,,,,,,,,,,,,,,,,,,,,,,,,,,,,,,,,,,,,,,,,,,,,,,,,,,,,,,,,,,,,,,,,,,,
,,,,,,,,,,stimuli/images/PICTURE_491.png,GLASS,5eb45f0df625d52a7ebdf0ea,21/04/2000,2020-08-13_12h48.28.945,proactive2,2020.1.2,Win32,60,5f341be081b9052c55068110,5f352849c3f0bb06f4edbccf,2,,,,,,rug,,,,,,0,55,55,14,1,2,1,,,,,,,,,,,,,,,,,,,,,,,,,,,,,,,,,,,,,,,,,,,,,,,,,,,,,,,,,,,,,,,,,,,,,,,,,,,,,,,,,,,,,,,,,,,,,,,,,,,
,,,,,,,,,,stimuli/images/PICTURE_383.png,SERIES,5eb45f0df625d52a7ebdf0ea,21/04/2000,2020-08-13_12h48.28.945,proactive2,2020.1.2,Win32,60,5f341be081b9052c55068110,5f352849c3f0bb06f4edbccf,2,,,,,,coin,,,,,,0,56,56,46,1,5,1,,,,,,,,,,,,,,,,,,,,,,,,,,,,,,,,,,,,,,,,,,,,,,,,,,,,,,,,,,,,,,,,,,,,,,,,,,,,,,,,,,,,,,,,,,,,,,,,,,,
,,,,,,,,,,stimuli/images/PICTURE_403.png,RIVER,5eb45f0df625d52a7ebdf0ea,21/04/2000,2020-08-13_12h48.28.945,proactive2,2020.1.2,Win32,60,5f341be081b9052c55068110,5f352849c3f0bb06f4edbccf,2,,,,,,cathedral,,,,,,0,57,57,40,1,5,1,,,,,,,,,,,,,,,,,,,,,,,,,,,,,,,,,,,,,,,,,,,,,,,,,,,,,,,,,,,,,,,,,,,,,,,,,,,,,,,,,,,,,,,,,,,,,,,,,,,
,,,,,,,,,,stimuli/images/PICTURE_32.png,KIND,5eb45f0df625d52a7ebdf0ea,21/04/2000,2020-08-13_12h48.28.945,proactive2,2020.1.2,Win32,60,5f341be081b9052c55068110,5f352849c3f0bb06f4edbccf,2,,,,,,crown,,,,,,0,58,58,35,1,4,1,,,,,,,,,,,,,,,,,,,,,,,,,,,,,,,,,,,,,,,,,,,,,,,,,,,,,,,,,,,,,,,,,,,,,,,,,,,,,,,,,,,,,,,,,,,,,,,,,,,
,,?,0.000815,0,,,,,,stimuli/images/PICTURE_405.png,PLENTY,5eb45f0df625d52a7ebdf0ea,21/04/2000,2020-08-13_12h48.28.945,proactive2,2020.1.2,Win32,60,5f341be081b9052c55068110,5f352849c3f0bb06f4edbccf,2,,,,,,anchor,,,,,,,,,,,3,1,0,0,0,23,1,,,,,,,,,,,,,,,,,,,,,,,,,,,,,,,,,,,,,,,,,,,,,,,,,,,,,,,,,,,,,,,,,,,,,,,,,,,,,,,,,,,,,,,,,,,,,,
,,?,0.00054,0,,,,,,stimuli/images/PICTURE_208.png,SYSTEM,5eb45f0df625d52a7ebdf0ea,21/04/2000,2020-08-13_12h48.28.945,proactive2,2020.1.2,Win32,60,5f341be081b9052c55068110,5f352849c3f0bb06f4edbccf,2,,,,,,microphone,,,,,,,,,,,4,1,0,1,1,32,1,,,,,,,,,,,,,,,,,,,,,,,,,,,,,,,,,,,,,,,,,,,,,,,,,,,,,,,,,,,,,,,,,,,,,,,,,,,,,,,,,,,,,,,,,,,,,,
,,PILLS,2.13652,1,,,,,,stimuli/images/PICTURE_32.png,PILLS,5eb45f0df625d52a7ebdf0ea,21/04/2000,2020-08-13_12h48.28.945,proactive2,2020.1.2,Win32,60,5f341be081b9052c55068110,5f352849c3f0bb06f4edbccf,2,,,,,,crown,,,,,,,,,,,2,1,0,2,2,18,1,,,,,,,,,,,,,,,,,,,,,,,,,,,,,,,,,,,,,,,,,,,,,,,,,,,,,,,,,,,,,,,,,,,,,,,,,,,,,,,,,,,,,,,,,,,,,,
,,?,0.001615,0,,,,,,stimuli/images/PICTURE_233.png,LOTS,5eb45f0df625d52a7ebdf0ea,21/04/2000,2020-08-13_12h48.28.945,proactive2,2020.1.2,Win32,60,5f341be081b9052c55068110,5f352849c3f0bb06f4edbccf,2,,,,,,salt,,,,,,,,,,,5,1,0,3,3,42,1,,,,,,,,,,,,,,,,,,,,,,,,,,,,,,,,,,,,,,,,,,,,,,,,,,,,,,,,,,,,,,,,,,,,,,,,,,,,,,,,,,,,,,,,,,,,,,
,,?,0.001025,0,,,,,,stimuli/images/PICTURE_68.png,MILE,5eb45f0df625d52a7ebdf0ea,21/04/2000,2020-08-13_12h48.28.945,proactive2,2020.1.2,Win32,60,5f341be081b9052c55068110,5f352849c3f0bb06f4edbccf,2,,,,,,candle,,,,,,,,,,,6,1,0,4,4,51,1,,,,,,,,,,,,,,,,,,,,,,,,,,,,,,,,,,,,,,,,,,,,,,,,,,,,,,,,,,,,,,,,,,,,,,,,,,,,,,,,,,,,,,,,,,,,,,
,,?,0.00051,0,,,,,,stimuli/images/PICTURE_296.png,LOTS,5eb45f0df625d52a7ebdf0ea,21/04/2000,2020-08-13_12h48.28.945,proactive2,2020.1.2,Win32,60,5f341be081b9052c55068110,5f352849c3f0bb06f4edbccf,2,,,,,,bolt,,,,,,,,,,,1,1,0,5,5,9,1,,,,,,,,,,,,,,,,,,,,,,,,,,,,,,,,,,,,,,,,,,,,,,,,,,,,,,,,,,,,,,,,,,,,,,,,,,,,,,,,,,,,,,,,,,,,,,
,,?,0.00052,0,,,,,,stimuli/images/PICTURE_33.png,FRIEND,5eb45f0df625d52a7ebdf0ea,21/04/2000,2020-08-13_12h48.28.945,proactive2,2020.1.2,Win32,60,5f341be081b9052c55068110,5f352849c3f0bb06f4edbccf,2,,,,,,frame,,,,,,,,,,,1,1,0,6,6,8,1,,,,,,,,,,,,,,,,,,,,,,,,,,,,,,,,,,,,,,,,,,,,,,,,,,,,,,,,,,,,,,,,,,,,,,,,,,,,,,,,,,,,,,,,,,,,,,
,,?,0.00044,0,,,,,,stimuli/images/PICTURE_308.png,FAMILY,5eb45f0df625d52a7ebdf0ea,21/04/2000,2020-08-13_12h48.28.945,proactive2,2020.1.2,Win32,60,5f341be081b9052c55068110,5f352849c3f0bb06f4edbccf,2,,,,,,dice,,,,,,,,,,,4,1,0,7,7,36,1,,,,,,,,,,,,,,,,,,,,,,,,,,,,,,,,,,,,,,,,,,,,,,,,,,,,,,,,,,,,,,,,,,,,,,,,,,,,,,,,,,,,,,,,,,,,,,
,,?,0.000485,0,,,,,,stimuli/images/PICTURE_203.png,GODS,5eb45f0df625d52a7ebdf0ea,21/04/2000,2020-08-13_12h48.28.945,proactive2,2020.1.2,Win32,60,5f341be081b9052c55068110,5f352849c3f0bb06f4edbccf,2,,,,,,cap,,,,,,,,,,,4,1,0,8,8,30,1,,,,,,,,,,,,,,,,,,,,,,,,,,,,,,,,,,,,,,,,,,,,,,,,,,,,,,,,,,,,,,,,,,,,,,,,,,,,,,,,,,,,,,,,,,,,,,
,,?,0.0005,0,,,,,,stimuli/images/PICTURE_147.png,YEAR,5eb45f0df625d52a7ebdf0ea,21/04/2000,2020-08-13_12h48.28.945,proactive2,2020.1.2,Win32,60,5f341be081b9052c55068110,5f352849c3f0bb06f4edbccf,2,,,,,,hanger,,,,,,,,,,,3,1,0,9,9,21,1,,,,,,,,,,,,,,,,,,,,,,,,,,,,,,,,,,,,,,,,,,,,,,,,,,,,,,,,,,,,,,,,,,,,,,,,,,,,,,,,,,,,,,,,,,,,,,
,,?,0.000525,0,,,,,,stimuli/images/PICTURE_85.png,TOILET,5eb45f0df625d52a7ebdf0ea,21/04/2000,2020-08-13_12h48.28.945,proactive2,2020.1.2,Win32,60,5f341be081b9052c55068110,5f352849c3f0bb06f4edbccf,2,,,,,,diamond,,,,,,,,,,,5,1,0,10,10,48,1,,,,,,,,,,,,,,,,,,,,,,,,,,,,,,,,,,,,,,,,,,,,,,,,,,,,,,,,,,,,,,,,,,,,,,,,,,,,,,,,,,,,,,,,,,,,,,
,,?,0.00043,0,,,,,,stimuli/images/PICTURE_403.png,RIVER,5eb45f0df625d52a7ebdf0ea,21/04/2000,2020-08-13_12h48.28.945,proactive2,2020.1.2,Win32,60,5f341be081b9052c55068110,5f352849c3f0bb06f4edbccf,2,,,,,,cathedral,,,,,,,,,,,5,1,0,11,11,40,1,,,,,,,,,,,,,,,,,,,,,,,,,,,,,,,,,,,,,,,,,,,,,,,,,,,,,,,,,,,,,,,,,,,,,,,,,,,,,,,,,,,,,,,,,,,,,,
,,FLIGHT,1.848225,1,,,,,,stimuli/images/PICTURE_2.png,FLIGHT,5eb45f0df625d52a7ebdf0ea,21/04/2000,2020-08-13_12h48.28.945,proactive2,2020.1.2,Win32,60,5f341be081b9052c55068110,5f352849c3f0bb06f4edbccf,2,,,,,,tyre,,,,,,,,,,,2,1,0,12,12,15,1,,,,,,,,,,,,,,,,,,,,,,,,,,,,,,,,,,,,,,,,,,,,,,,,,,,,,,,,,,,,,,,,,,,,,,,,,,,,,,,,,,,,,,,,,,,,,,
,,?,0.00168,0,,,,,,stimuli/images/PICTURE_327.png,SERIES,5eb45f0df625d52a7ebdf0ea,21/04/2000,2020-08-13_12h48.28.945,proactive2,2020.1.2,Win32,60,5f341be081b9052c55068110,5f352849c3f0bb06f4edbccf,2,,,,,,helmet,,,,,,,,,,,1,1,0,13,13,3,1,,,,,,,,,,,,,,,,,,,,,,,,,,,,,,,,,,,,,,,,,,,,,,,,,,,,,,,,,,,,,,,,,,,,,,,,,,,,,,,,,,,,,,,,,,,,,,
,,?,0.0009,0,,,,,,stimuli/images/PICTURE_685.png,PENNY,5eb45f0df625d52a7ebdf0ea,21/04/2000,2020-08-13_12h48.28.945,proactive2,2020.1.2,Win32,60,5f341be081b9052c55068110,5f352849c3f0bb06f4edbccf,2,,,,,,goose,,,,,,,,,,,1,1,0,14,14,4,1,,,,,,,,,,,,,,,,,,,,,,,,,,,,,,,,,,,,,,,,,,,,,,,,,,,,,,,,,,,,,,,,,,,,,,,,,,,,,,,,,,,,,,,,,,,,,,
,,AGENT,1.92623,1,,,,,,stimuli/images/PICTURE_469.png,AGENT,5eb45f0df625d52a7ebdf0ea,21/04/2000,2020-08-13_12h48.28.945,proactive2,2020.1.2,Win32,60,5f341be081b9052c55068110,5f352849c3f0bb06f4edbccf,2,,,,,,stool,,,,,,,,,,,2,1,0,15,15,16,1,,,,,,,,,,,,,,,,,,,,,,,,,,,,,,,,,,,,,,,,,,,,,,,,,,,,,,,,,,,,,,,,,,,,,,,,,,,,,,,,,,,,,,,,,,,,,,
,,GLASS,2.829885,1,,,,,,stimuli/images/PICTURE_491.png,GLASS,5eb45f0df625d52a7ebdf0ea,21/04/2000,2020-08-13_12h48.28.945,proactive2,2020.1.2,Win32,60,5f341be081b9052c55068110,5f352849c3f0bb06f4edbccf,2,,,,,,rug,,,,,,,,,,,2,1,0,16,16,14,1,,,,,,,,,,,,,,,,,,,,,,,,,,,,,,,,,,,,,,,,,,,,,,,,,,,,,,,,,,,,,,,,,,,,,,,,,,,,,,,,,,,,,,,,,,,,,,
,,?,0.001645,0,,,,,,stimuli/images/PICTURE_177.png,WRITER,5eb45f0df625d52a7ebdf0ea,21/04/2000,2020-08-13_12h48.28.945,proactive2,2020.1.2,Win32,60,5f341be081b9052c55068110,5f352849c3f0bb06f4edbccf,2,,,,,,mushroom,,,,,,,,,,,5,1,0,17,17,41,1,,,,,,,,,,,,,,,,,,,,,,,,,,,,,,,,,,,,,,,,,,,,,,,,,,,,,,,,,,,,,,,,,,,,,,,,,,,,,,,,,,,,,,,,,,,,,,
,,?,0.002855,0,,,,,,stimuli/images/PICTURE_68.png,ROOF,5eb45f0df625d52a7ebdf0ea,21/04/2000,2020-08-13_12h48.28.945,proactive2,2020.1.2,Win32,60,5f341be081b9052c55068110,5f352849c3f0bb06f4edbccf,2,,,,,,candle,,,,,,,,,,,4,1,0,18,18,38,1,,,,,,,,,,,,,,,,,,,,,,,,,,,,,,,,,,,,,,,,,,,,,,,,,,,,,,,,,,,,,,,,,,,,,,,,,,,,,,,,,,,,,,,,,,,,,,
,,?,0.00065,0,,,,,,stimuli/images/PICTURE_297.png,RIVER,5eb45f0df625d52a7ebdf0ea,21/04/2000,2020-08-13_12h48.28.945,proactive2,2020.1.2,Win32,60,5f341be081b9052c55068110,5f352849c3f0bb06f4edbccf,2,,,,,,aeroplane,,,,,,,,,,,4,1,0,19,19,39,1,,,,,,,,,,,,,,,,,,,,,,,,,,,,,,,,,,,,,,,,,,,,,,,,,,,,,,,,,,,,,,,,,,,,,,,,,,,,,,,,,,,,,,,,,,,,,,
,,?,0.00063,0,,,,,,stimuli/images/PICTURE_42.png,BOYS,5eb45f0df625d52a7ebdf0ea,21/04/2000,2020-08-13_12h48.28.945,proactive2,2020.1.2,Win32,60,5f341be081b9052c55068110,5f352849c3f0bb06f4edbccf,2,,,,,,pear,,,,,,,,,,,6,1,0,20,20,55,1,,,,,,,,,,,,,,,,,,,,,,,,,,,,,,,,,,,,,,,,,,,,,,,,,,,,,,,,,,,,,,,,,,,,,,,,,,,,,,,,,,,,,,,,,,,,,,
,,?,0.00038,0,,,,,,stimuli/images/PICTURE_32.png,KIND,5eb45f0df625d52a7ebdf0ea,21/04/2000,2020-08-13_12h48.28.945,proactive2,2020.1.2,Win32,60,5f341be081b9052c55068110,5f352849c3f0bb06f4edbccf,2,,,,,,crown,,,,,,,,,,,4,1,0,21,21,35,1,,,,,,,,,,,,,,,,,,,,,,,,,,,,,,,,,,,,,,,,,,,,,,,,,,,,,,,,,,,,,,,,,,,,,,,,,,,,,,,,,,,,,,,,,,,,,,
,,?,0.00047,0,,,,,,stimuli/images/PICTURE_744.png,WEAPON,5eb45f0df625d52a7ebdf0ea,21/04/2000,2020-08-13_12h48.28.945,proactive2,2020.1.2,Win32,60,5f341be081b9052c55068110,5f352849c3f0bb06f4edbccf,2,,,,,,ring,,,,,,,,,,,6,1,0,22,22,50,1,,,,,,,,,,,,,,,,,,,,,,,,,,,,,,,,,,,,,,,,,,,,,,,,,,,,,,,,,,,,,,,,,,,,,,,,,,,,,,,,,,,,,,,,,,,,,,
,,?,0.00054,0,,,,,,stimuli/images/PICTURE_504.png,COPS,5eb45f0df625d52a7ebdf0ea,21/04/2000,2020-08-13_12h48.28.945,proactive2,2020.1.2,Win32,60,5f341be081b9052c55068110,5f352849c3f0bb06f4edbccf,2,,,,,,wheel,,,,,,,,,,,6,1,0,23,23,52,1,,,,,,,,,,,,,,,,,,,,,,,,,,,,,,,,,,,,,,,,,,,,,,,,,,,,,,,,,,,,,,,,,,,,,,,,,,,,,,,,,,,,,,,,,,,,,,
,,?,0.00058,0,,,,,,stimuli/images/PICTURE_383.png,WRITER,5eb45f0df625d52a7ebdf0ea,21/04/2000,2020-08-13_12h48.28.945,proactive2,2020.1.2,Win32,60,5f341be081b9052c55068110,5f352849c3f0bb06f4edbccf,2,,,,,,coin,,,,,,,,,,,3,1,0,24,24,28,1,,,,,,,,,,,,,,,,,,,,,,,,,,,,,,,,,,,,,,,,,,,,,,,,,,,,,,,,,,,,,,,,,,,,,,,,,,,,,,,,,,,,,,,,,,,,,,
,,?,0.000485,0,,,,,,stimuli/images/PICTURE_677.png,APPLE,5eb45f0df625d52a7ebdf0ea,21/04/2000,2020-08-13_12h48.28.945,proactive2,2020.1.2,Win32,60,5f341be081b9052c55068110,5f352849c3f0bb06f4edbccf,2,,,,,,map,,,,,,,,,,,5,1,0,25,25,43,1,,,,,,,,,,,,,,,,,,,,,,,,,,,,,,,,,,,,,,,,,,,,,,,,,,,,,,,,,,,,,,,,,,,,,,,,,,,,,,,,,,,,,,,,,,,,,,
,,?,0.000385,0,,,,,,stimuli/images/PICTURE_750.png,HOTEL,5eb45f0df625d52a7ebdf0ea,21/04/2000,2020-08-13_12h48.28.945,proactive2,2020.1.2,Win32,60,5f341be081b9052c55068110,5f352849c3f0bb06f4edbccf,2,,,,,,kettle,,,,,,,,,,,3,1,0,26,26,27,1,,,,,,,,,,,,,,,,,,,,,,,,,,,,,,,,,,,,,,,,,,,,,,,,,,,,,,,,,,,,,,,,,,,,,,,,,,,,,,,,,,,,,,,,,,,,,,
,,CLIENT,1.746565,1,,,,,,stimuli/images/PICTURE_339.png,CLIENT,5eb45f0df625d52a7ebdf0ea,21/04/2000,2020-08-13_12h48.28.945,proactive2,2020.1.2,Win32,60,5f341be081b9052c55068110,5f352849c3f0bb06f4edbccf,2,,,,,,backpack,,,,,,,,,,,2,1,0,27,27,11,1,,,,,,,,,,,,,,,,,,,,,,,,,,,,,,,,,,,,,,,,,,,,,,,,,,,,,,,,,,,,,,,,,,,,,,,,,,,,,,,,,,,,,,,,,,,,,,
,,?,0.001625,0,,,,,,stimuli/images/PICTURE_57.png,MOMENT,5eb45f0df625d52a7ebdf0ea,21/04/2000,2020-08-13_12h48.28.945,proactive2,2020.1.2,Win32,60,5f341be081b9052c55068110,5f352849c3f0bb06f4edbccf,2,,,,,,stamp,,,,,,,,,,,4,1,0,28,28,37,1,,,,,,,,,,,,,,,,,,,,,,,,,,,,,,,,,,,,,,,,,,,,,,,,,,,,,,,,,,,,,,,,,,,,,,,,,,,,,,,,,,,,,,,,,,,,,,
,,?,0.000905,0,,,,,,stimuli/images/PICTURE_85.png,NATION,5eb45f0df625d52a7ebdf0ea,21/04/2000,2020-08-13_12h48.28.945,proactive2,2020.1.2,Win32,60,5f341be081b9052c55068110,5f352849c3f0bb06f4edbccf,2,,,,,,diamond,,,,,,,,,,,1,1,0,29,29,5,1,,,,,,,,,,,,,,,,,,,,,,,,,,,,,,,,,,,,,,,,,,,,,,,,,,,,,,,,,,,,,,,,,,,,,,,,,,,,,,,,,,,,,,,,,,,,,,
,,?,0.000545,0,,,,,,stimuli/images/PICTURE_380.png,CANDY,5eb45f0df625d52a7ebdf0ea,21/04/2000,2020-08-13_12h48.28.945,proactive2,2020.1.2,Win32,60,5f341be081b9052c55068110,5f352849c3f0bb06f4edbccf,2,,,,,,gorilla,,,,,,,,,,,1,1,0,30,30,0,1,,,,,,,,,,,,,,,,,,,,,,,,,,,,,,,,,,,,,,,,,,,,,,,,,,,,,,,,,,,,,,,,,,,,,,,,,,,,,,,,,,,,,,,,,,,,,,
,,?,0.00051,0,,,,,,stimuli/images/PICTURE_675.png,SALE,5eb45f0df625d52a7ebdf0ea,21/04/2000,2020-08-13_12h48.28.945,proactive2,2020.1.2,Win32,60,5f341be081b9052c55068110,5f352849c3f0bb06f4edbccf,2,,,,,,windmill,,,,,,,,,,,5,1,0,31,31,47,1,,,,,,,,,,,,,,,,,,,,,,,,,,,,,,,,,,,,,,,,,,,,,,,,,,,,,,,,,,,,,,,,,,,,,,,,,,,,,,,,,,,,,,,,,,,,,,
,,?,0.00047,0,,,,,,stimuli/images/PICTURE_405.png,YEAR,5eb45f0df625d52a7ebdf0ea,21/04/2000,2020-08-13_12h48.28.945,proactive2,2020.1.2,Win32,60,5f341be081b9052c55068110,5f352849c3f0bb06f4edbccf,2,,,,,,anchor,,,,,,,,,,,4,1,0,32,32,34,1,,,,,,,,,,,,,,,,,,,,,,,,,,,,,,,,,,,,,,,,,,,,,,,,,,,,,,,,,,,,,,,,,,,,,,,,,,,,,,,,,,,,,,,,,,,,,,
,,?,0.00203,0,,,,,,stimuli/images/PICTURE_487.png,GIRL,5eb45f0df625d52a7ebdf0ea,21/04/2000,2020-08-13_12h48.28.945,proactive2,2020.1.2,Win32,60,5f341be081b9052c55068110,5f352849c3f0bb06f4edbccf,2,,,,,,basket,,,,,,,,,,,5,1,0,33,33,45,1,,,,,,,,,,,,,,,,,,,,,,,,,,,,,,,,,,,,,,,,,,,,,,,,,,,,,,,,,,,,,,,,,,,,,,,,,,,,,,,,,,,,,,,,,,,,,,
,,DUDE,1.2857,1,,,,,,stimuli/images/PICTURE_449.png,DUDE,5eb45f0df625d52a7ebdf0ea,21/04/2000,2020-08-13_12h48.28.945,proactive2,2020.1.2,Win32,60,5f341be081b9052c55068110,5f352849c3f0bb06f4edbccf,2,,,,,,bench,,,,,,,,,,,2,1,0,34,34,17,1,,,,,,,,,,,,,,,,,,,,,,,,,,,,,,,,,,,,,,,,,,,,,,,,,,,,,,,,,,,,,,,,,,,,,,,,,,,,,,,,,,,,,,,,,,,,,,
,,?,0.001615,0,,,,,,stimuli/images/PICTURE_108.png,FLIGHT,5eb45f0df625d52a7ebdf0ea,21/04/2000,2020-08-13_12h48.28.945,proactive2,2020.1.2,Win32,60,5f341be081b9052c55068110,5f352849c3f0bb06f4edbccf,2,,,,,,calendar,,,,,,,,,,,6,1,0,35,35,59,1,,,,,,,,,,,,,,,,,,,,,,,,,,,,,,,,,,,,,,,,,,,,,,,,,,,,,,,,,,,,,,,,,,,,,,,,,,,,,,,,,,,,,,,,,,,,,,
,,?,0.000955,0,,,,,,stimuli/images/PICTURE_95.png,MILLER,5eb45f0df625d52a7ebdf0ea,21/04/2000,2020-08-13_12h48.28.945,proactive2,2020.1.2,Win32,60,5f341be081b9052c55068110,5f352849c3f0bb06f4edbccf,2,,,,,,suitcase,,,,,,,,,,,6,1,0,36,36,56,1,,,,,,,,,,,,,,,,,,,,,,,,,,,,,,,,,,,,,,,,,,,,,,,,,,,,,,,,,,,,,,,,,,,,,,,,,,,,,,,,,,,,,,,,,,,,,,
,,TOILET,2.04163,1,,,,,,stimuli/images/PICTURE_655.png,TOILET,5eb45f0df625d52a7ebdf0ea,21/04/2000,2020-08-13_12h48.28.945,proactive2,2020.1.2,Win32,60,5f341be081b9052c55068110,5f352849c3f0bb06f4edbccf,2,,,,,,megaphone,,,,,,,,,,,2,1,0,37,37,12,1,,,,,,,,,,,,,,,,,,,,,,,,,,,,,,,,,,,,,,,,,,,,,,,,,,,,,,,,,,,,,,,,,,,,,,,,,,,,,,,,,,,,,,,,,,,,,,
,,?,0.00157,0,,,,,,stimuli/images/PICTURE_403.png,TOILET,5eb45f0df625d52a7ebdf0ea,21/04/2000,2020-08-13_12h48.28.945,proactive2,2020.1.2,Win32,60,5f341be081b9052c55068110,5f352849c3f0bb06f4edbccf,2,,,,,,cathedral,,,,,,,,,,,3,1,0,38,38,25,1,,,,,,,,,,,,,,,,,,,,,,,,,,,,,,,,,,,,,,,,,,,,,,,,,,,,,,,,,,,,,,,,,,,,,,,,,,,,,,,,,,,,,,,,,,,,,,
,,HONEY,1.744285,1,,,,,,stimuli/images/PICTURE_380.png,HONEY,5eb45f0df625d52a7ebdf0ea,21/04/2000,2020-08-13_12h48.28.945,proactive2,2020.1.2,Win32,60,5f341be081b9052c55068110,5f352849c3f0bb06f4edbccf,2,,,,,,gorilla,,,,,,,,,,,2,1,0,39,39,19,1,,,,,,,,,,,,,,,,,,,,,,,,,,,,,,,,,,,,,,,,,,,,,,,,,,,,,,,,,,,,,,,,,,,,,,,,,,,,,,,,,,,,,,,,,,,,,,
,,?,0.001535,0,,,,,,stimuli/images/PICTURE_340.png,VALLEY,5eb45f0df625d52a7ebdf0ea,21/04/2000,2020-08-13_12h48.28.945,proactive2,2020.1.2,Win32,60,5f341be081b9052c55068110,5f352849c3f0bb06f4edbccf,2,,,,,,mirror,,,,,,,,,,,6,1,0,40,40,54,1,,,,,,,,,,,,,,,,,,,,,,,,,,,,,,,,,,,,,,,,,,,,,,,,,,,,,,,,,,,,,,,,,,,,,,,,,,,,,,,,,,,,,,,,,,,,,,
,,?,0.000855,0,,,,,,stimuli/images/PICTURE_296.png,LIFE,5eb45f0df625d52a7ebdf0ea,21/04/2000,2020-08-13_12h48.28.945,proactive2,2020.1.2,Win32,60,5f341be081b9052c55068110,5f352849c3f0bb06f4edbccf,2,,,,,,bolt,,,,,,,,,,,6,1,0,41,41,57,1,,,,,,,,,,,,,,,,,,,,,,,,,,,,,,,,,,,,,,,,,,,,,,,,,,,,,,,,,,,,,,,,,,,,,,,,,,,,,,,,,,,,,,,,,,,,,,
,,YEAR,1.742245,1,,,,,,stimuli/images/PICTURE_504.png,YEAR,5eb45f0df625d52a7ebdf0ea,21/04/2000,2020-08-13_12h48.28.945,proactive2,2020.1.2,Win32,60,5f341be081b9052c55068110,5f352849c3f0bb06f4edbccf,2,,,,,,wheel,,,,,,,,,,,2,1,0,42,42,13,1,,,,,,,,,,,,,,,,,,,,,,,,,,,,,,,,,,,,,,,,,,,,,,,,,,,,,,,,,,,,,,,,,,,,,,,,,,,,,,,,,,,,,,,,,,,,,,
,,RIVER,2.07962,1,,,,,,stimuli/images/PICTURE_667.png,RIVER,5eb45f0df625d52a7ebdf0ea,21/04/2000,2020-08-13_12h48.28.945,proactive2,2020.1.2,Win32,60,5f341be081b9052c55068110,5f352849c3f0bb06f4edbccf,2,,,,,,daisy,,,,,,,,,,,2,1,0,43,43,10,1,,,,,,,,,,,,,,,,,,,,,,,,,,,,,,,,,,,,,,,,,,,,,,,,,,,,,,,,,,,,,,,,,,,,,,,,,,,,,,,,,,,,,,,,,,,,,,
,,?,0.0015,0,,,,,,stimuli/images/PICTURE_467.png,POLICY,5eb45f0df625d52a7ebdf0ea,21/04/2000,2020-08-13_12h48.28.945,proactive2,2020.1.2,Win32,60,5f341be081b9052c55068110,5f352849c3f0bb06f4edbccf,2,,,,,,peg,,,,,,,,,,,6,1,0,44,44,53,1,,,,,,,,,,,,,,,,,,,,,,,,,,,,,,,,,,,,,,,,,,,,,,,,,,,,,,,,,,,,,,,,,,,,,,,,,,,,,,,,,,,,,,,,,,,,,,
,,?,0.001035,0,,,,,,stimuli/images/PICTURE_95.png,BOYS,5eb45f0df625d52a7ebdf0ea,21/04/2000,2020-08-13_12h48.28.945,proactive2,2020.1.2,Win32,60,5f341be081b9052c55068110,5f352849c3f0bb06f4edbccf,2,,,,,,suitcase,,,,,,,,,,,1,1,0,45,45,1,1,,,,,,,,,,,,,,,,,,,,,,,,,,,,,,,,,,,,,,,,,,,,,,,,,,,,,,,,,,,,,,,,,,,,,,,,,,,,,,,,,,,,,,,,,,,,,,
,,?,0.000575,0,,,,,,stimuli/images/PICTURE_491.png,RIVER,5eb45f0df625d52a7ebdf0ea,21/04/2000,2020-08-13_12h48.28.945,proactive2,2020.1.2,Win32,60,5f341be081b9052c55068110,5f352849c3f0bb06f4edbccf,2,,,,,,rug,,,,,,,,,,,1,1,0,46,46,6,1,,,,,,,,,,,,,,,,,,,,,,,,,,,,,,,,,,,,,,,,,,,,,,,,,,,,,,,,,,,,,,,,,,,,,,,,,,,,,,,,,,,,,,,,,,,,,,
,,?,0.000635,0,,,,,,stimuli/images/PICTURE_203.png,NIGHT,5eb45f0df625d52a7ebdf0ea,21/04/2000,2020-08-13_12h48.28.945,proactive2,2020.1.2,Win32,60,5f341be081b9052c55068110,5f352849c3f0bb06f4edbccf,2,,,,,,cap,,,,,,,,,,,1,1,0,47,47,2,1,,,,,,,,,,,,,,,,,,,,,,,,,,,,,,,,,,,,,,,,,,,,,,,,,,,,,,,,,,,,,,,,,,,,,,,,,,,,,,,,,,,,,,,,,,,,,,
,,?,0.000325,0,,,,,,stimuli/images/PICTURE_108.png,POLICY,5eb45f0df625d52a7ebdf0ea,21/04/2000,2020-08-13_12h48.28.945,proactive2,2020.1.2,Win32,60,5f341be081b9052c55068110,5f352849c3f0bb06f4edbccf,2,,,,,,calendar,,,,,,,,,,,3,1,0,48,48,22,1,,,,,,,,,,,,,,,,,,,,,,,,,,,,,,,,,,,,,,,,,,,,,,,,,,,,,,,,,,,,,,,,,,,,,,,,,,,,,,,,,,,,,,,,,,,,,,
,,?,0.000335,0,,,,,,stimuli/images/PICTURE_95.png,HONEY,5eb45f0df625d52a7ebdf0ea,21/04/2000,2020-08-13_12h48.28.945,proactive2,2020.1.2,Win32,60,5f341be081b9052c55068110,5f352849c3f0bb06f4edbccf,2,,,,,,suitcase,,,,,,,,,,,5,1,0,49,49,44,1,,,,,,,,,,,,,,,,,,,,,,,,,,,,,,,,,,,,,,,,,,,,,,,,,,,,,,,,,,,,,,,,,,,,,,,,,,,,,,,,,,,,,,,,,,,,,,
,,?,0.000315,0,,,,,,stimuli/images/PICTURE_340.png,LETTER,5eb45f0df625d52a7ebdf0ea,21/04/2000,2020-08-13_12h48.28.945,proactive2,2020.1.2,Win32,60,5f341be081b9052c55068110,5f352849c3f0bb06f4edbccf,2,,,,,,mirror,,,,,,,,,,,3,1,0,50,50,24,1,,,,,,,,,,,,,,,,,,,,,,,,,,,,,,,,,,,,,,,,,,,,,,,,,,,,,,,,,,,,,,,,,,,,,,,,,,,,,,,,,,,,,,,,,,,,,,
,,?,0.00044,0,,,,,,stimuli/images/PICTURE_654.png,MONTH,5eb45f0df625d52a7ebdf0ea,21/04/2000,2020-08-13_12h48.28.945,proactive2,2020.1.2,Win32,60,5f341be081b9052c55068110,5f352849c3f0bb06f4edbccf,2,,,,,,pencil,,,,,,,,,,,3,1,0,51,51,29,1,,,,,,,,,,,,,,,,,,,,,,,,,,,,,,,,,,,,,,,,,,,,,,,,,,,,,,,,,,,,,,,,,,,,,,,,,,,,,,,,,,,,,,,,,,,,,,
,,?,0.000505,0,,,,,,stimuli/images/PICTURE_504.png,ARTIST,5eb45f0df625d52a7ebdf0ea,21/04/2000,2020-08-13_12h48.28.945,proactive2,2020.1.2,Win32,60,5f341be081b9052c55068110,5f352849c3f0bb06f4edbccf,2,,,,,,wheel,,,,,,,,,,,5,1,0,52,52,49,1,,,,,,,,,,,,,,,,,,,,,,,,,,,,,,,,,,,,,,,,,,,,,,,,,,,,,,,,,,,,,,,,,,,,,,,,,,,,,,,,,,,,,,,,,,,,,,
,,?,0.00047,0,,,,,,stimuli/images/PICTURE_383.png,SERIES,5eb45f0df625d52a7ebdf0ea,21/04/2000,2020-08-13_12h48.28.945,proactive2,2020.1.2,Win32,60,5f341be081b9052c55068110,5f352849c3f0bb06f4edbccf,2,,,,,,coin,,,,,,,,,,,5,1,0,53,53,46,1,,,,,,,,,,,,,,,,,,,,,,,,,,,,,,,,,,,,,,,,,,,,,,,,,,,,,,,,,,,,,,,,,,,,,,,,,,,,,,,,,,,,,,,,,,,,,,
,,?,0.000415,0,,,,,,stimuli/images/PICTURE_147.png,WOMEN,5eb45f0df625d52a7ebdf0ea,21/04/2000,2020-08-13_12h48.28.945,proactive2,2020.1.2,Win32,60,5f341be081b9052c55068110,5f352849c3f0bb06f4edbccf,2,,,,,,hanger,,,,,,,,,,,1,1,0,54,54,7,1,,,,,,,,,,,,,,,,,,,,,,,,,,,,,,,,,,,,,,,,,,,,,,,,,,,,,,,,,,,,,,,,,,,,,,,,,,,,,,,,,,,,,,,,,,,,,,
,,?,0.000415,0,,,,,,stimuli/images/PICTURE_327.png,CASINO,5eb45f0df625d52a7ebdf0ea,21/04/2000,2020-08-13_12h48.28.945,proactive2,2020.1.2,Win32,60,5f341be081b9052c55068110,5f352849c3f0bb06f4edbccf,2,,,,,,helmet,,,,,,,,,,,3,1,0,55,55,20,1,,,,,,,,,,,,,,,,,,,,,,,,,,,,,,,,,,,,,,,,,,,,,,,,,,,,,,,,,,,,,,,,,,,,,,,,,,,,,,,,,,,,,,,,,,,,,,
,,?,0.000475,0,,,,,,stimuli/images/PICTURE_564.png,BATH,5eb45f0df625d52a7ebdf0ea,21/04/2000,2020-08-13_12h48.28.945,proactive2,2020.1.2,Win32,60,5f341be081b9052c55068110,5f352849c3f0bb06f4edbccf,2,,,,,,spoon,,,,,,,,,,,3,1,0,56,56,26,1,,,,,,,,,,,,,,,,,,,,,,,,,,,,,,,,,,,,,,,,,,,,,,,,,,,,,,,,,,,,,,,,,,,,,,,,,,,,,,,,,,,,,,,,,,,,,,
,,?,0.00055,0,,,,,,stimuli/images/PICTURE_403.png,WRITER,5eb45f0df625d52a7ebdf0ea,21/04/2000,2020-08-13_12h48.28.945,proactive2,2020.1.2,Win32,60,5f341be081b9052c55068110,5f352849c3f0bb06f4edbccf,2,,,,,,cathedral,,,,,,,,,,,4,1,0,57,57,31,1,,,,,,,,,,,,,,,,,,,,,,,,,,,,,,,,,,,,,,,,,,,,,,,,,,,,,,,,,,,,,,,,,,,,,,,,,,,,,,,,,,,,,,,,,,,,,,
,,?,0.00047,0,,,,,,stimuli/images/PICTURE_285.png,LIFE,5eb45f0df625d52a7ebdf0ea,21/04/2000,2020-08-13_12h48.28.945,proactive2,2020.1.2,Win32,60,5f341be081b9052c55068110,5f352849c3f0bb06f4edbccf,2,,,,,,carrot,,,,,,,,,,,4,1,0,58,58,33,1,,,,,,,,,,,,,,,,,,,,,,,,,,,,,,,,,,,,,,,,,,,,,,,,,,,,,,,,,,,,,,,,,,,,,,,,,,,,,,,,,,,,,,,,,,,,,,
,,?,0.000615,0,,,,,,stimuli/images/PICTURE_708.png,RECORD,5eb45f0df625d52a7ebdf0ea,21/04/2000,2020-08-13_12h48.28.945,proactive2,2020.1.2,Win32,60,5f341be081b9052c55068110,5f352849c3f0bb06f4edbccf,2,,,,,,monkey,,,,,,,,,,,6,1,0,59,59,58,1,,,,,,,,,,,,,,,,,,,,,,,,,,,,,,,,,,,,,,,,,,,,,,,,,,,,,,,,,,,,,,,,,,,,,,,,,,,,,,,,,,,,,,,,,,,,,,
,,,,,,,,,,,,5eb45f0df625d52a7ebdf0ea,21/04/2000,2020-08-13_12h48.28.945,proactive2,2020.1.2,Win32,60,5f341be081b9052c55068110,5f352849c3f0bb06f4edbccf,2,,,,,,,,,,,,,,,,,,,,,,,,0,0,0,1,1,stimuli/learn-block2.csv,,,,,,,,,,,,,,,,,,,,,,,,,,,,,,,,,,,,,,,,,,,,,,,,,,,,,,,,,,,,,,,,,,,,,,,,,,,,,,,,,,,,,,,,
,,,,,,,,,,stimuli/images/PICTURE_509.png,APPLE,5eb45f0df625d52a7ebdf0ea,21/04/2000,2020-08-13_12h48.28.945,proactive2,2020.1.2,Win32,60,5f341be081b9052c55068110,5f352849c3f0bb06f4edbccf,2,,,,,,telephone,,,,,,0,0,0,38,1,4,2,,,,,,,,,,,,,,,,,,,,,,,,,,,,,,,,,,,,,,,,,,,,,,,,,,,,,,,,,,,,,,,,,,,,,,,,,,,,,,,,,,,,,,,,,,,,,,,,,,,
,,,,,,,,,,stimuli/images/PICTURE_285.png,WRITER,5eb45f0df625d52a7ebdf0ea,21/04/2000,2020-08-13_12h48.28.945,proactive2,2020.1.2,Win32,60,5f341be081b9052c55068110,5f352849c3f0bb06f4edbccf,2,,,,,,carrot,,,,,,0,1,1,6,1,1,2,,,,,,,,,,,,,,,,,,,,,,,,,,,,,,,,,,,,,,,,,,,,,,,,,,,,,,,,,,,,,,,,,,,,,,,,,,,,,,,,,,,,,,,,,,,,,,,,,,,
,,,,,,,,,,stimuli/images/PICTURE_141.png,CLIENT,5eb45f0df625d52a7ebdf0ea,21/04/2000,2020-08-13_12h48.28.945,proactive2,2020.1.2,Win32,60,5f341be081b9052c55068110,5f352849c3f0bb06f4edbccf,2,,,,,,sunflower,,,,,,0,2,2,30,1,4,2,,,,,,,,,,,,,,,,,,,,,,,,,,,,,,,,,,,,,,,,,,,,,,,,,,,,,,,,,,,,,,,,,,,,,,,,,,,,,,,,,,,,,,,,,,,,,,,,,,,
,,,,,,,,,,stimuli/images/PICTURE_215.png,FOOD,5eb45f0df625d52a7ebdf0ea,21/04/2000,2020-08-13_12h48.28.945,proactive2,2020.1.2,Win32,60,5f341be081b9052c55068110,5f352849c3f0bb06f4edbccf,2,,,,,,boot,,,,,,0,3,3,5,1,1,2,,,,,,,,,,,,,,,,,,,,,,,,,,,,,,,,,,,,,,,,,,,,,,,,,,,,,,,,,,,,,,,,,,,,,,,,,,,,,,,,,,,,,,,,,,,,,,,,,,,
,,,,,,,,,,stimuli/images/PICTURE_491.png,SERIES,5eb45f0df625d52a7ebdf0ea,21/04/2000,2020-08-13_12h48.28.945,proactive2,2020.1.2,Win32,60,5f341be081b9052c55068110,5f352849c3f0bb06f4edbccf,2,,,,,,rug,,,,,,0,4,4,39,1,4,2,,,,,,,,,,,,,,,,,,,,,,,,,,,,,,,,,,,,,,,,,,,,,,,,,,,,,,,,,,,,,,,,,,,,,,,,,,,,,,,,,,,,,,,,,,,,,,,,,,,
,,,,,,,,,,stimuli/images/PICTURE_504.png,HOUSE,5eb45f0df625d52a7ebdf0ea,21/04/2000,2020-08-13_12h48.28.945,proactive2,2020.1.2,Win32,60,5f341be081b9052c55068110,5f352849c3f0bb06f4edbccf,2,,,,,,wheel,,,,,,0,5,5,36,1,4,2,,,,,,,,,,,,,,,,,,,,,,,,,,,,,,,,,,,,,,,,,,,,,,,,,,,,,,,,,,,,,,,,,,,,,,,,,,,,,,,,,,,,,,,,,,,,,,,,,,,
,,,,,,,,,,stimuli/images/PICTURE_327.png,LEADER,5eb45f0df625d52a7ebdf0ea,21/04/2000,2020-08-13_12h48.28.945,proactive2,2020.1.2,Win32,60,5f341be081b9052c55068110,5f352849c3f0bb06f4edbccf,2,,,,,,helmet,,,,,,0,6,6,17,1,2,2,,,,,,,,,,,,,,,,,,,,,,,,,,,,,,,,,,,,,,,,,,,,,,,,,,,,,,,,,,,,,,,,,,,,,,,,,,,,,,,,,,,,,,,,,,,,,,,,,,,
,,,,,,,,,,stimuli/images/PICTURE_348.png,TOILET,5eb45f0df625d52a7ebdf0ea,21/04/2000,2020-08-13_12h48.28.945,proactive2,2020.1.2,Win32,60,5f341be081b9052c55068110,5f352849c3f0bb06f4edbccf,2,,,,,,pepper,,,,,,0,7,7,4,1,1,2,,,,,,,,,,,,,,,,,,,,,,,,,,,,,,,,,,,,,,,,,,,,,,,,,,,,,,,,,,,,,,,,,,,,,,,,,,,,,,,,,,,,,,,,,,,,,,,,,,,
,,,,,,,,,,stimuli/images/PICTURE_215.png,BOYS,5eb45f0df625d52a7ebdf0ea,21/04/2000,2020-08-13_12h48.28.945,proactive2,2020.1.2,Win32,60,5f341be081b9052c55068110,5f352849c3f0bb06f4edbccf,2,,,,,,boot,,,,,,0,8,8,24,1,3,2,,,,,,,,,,,,,,,,,,,,,,,,,,,,,,,,,,,,,,,,,,,,,,,,,,,,,,,,,,,,,,,,,,,,,,,,,,,,,,,,,,,,,,,,,,,,,,,,,,,
,,,,,,,,,,stimuli/images/PICTURE_177.png,HOUSE,5eb45f0df625d52a7ebdf0ea,21/04/2000,2020-08-13_12h48.28.945,proactive2,2020.1.2,Win32,60,5f341be081b9052c55068110,5f352849c3f0bb06f4edbccf,2,,,,,,mushroom,,,,,,0,9,9,25,1,3,2,,,,,,,,,,,,,,,,,,,,,,,,,,,,,,,,,,,,,,,,,,,,,,,,,,,,,,,,,,,,,,,,,,,,,,,,,,,,,,,,,,,,,,,,,,,,,,,,,,,
,,,,,,,,,,stimuli/images/PICTURE_564.png,PLENTY,5eb45f0df625d52a7ebdf0ea,21/04/2000,2020-08-13_12h48.28.945,proactive2,2020.1.2,Win32,60,5f341be081b9052c55068110,5f352849c3f0bb06f4edbccf,2,,,,,,spoon,,,,,,0,10,10,11,1,2,2,,,,,,,,,,,,,,,,,,,,,,,,,,,,,,,,,,,,,,,,,,,,,,,,,,,,,,,,,,,,,,,,,,,,,,,,,,,,,,,,,,,,,,,,,,,,,,,,,,,
,,,,,,,,,,stimuli/images/PICTURE_33.png,COPS,5eb45f0df625d52a7ebdf0ea,21/04/2000,2020-08-13_12h48.28.945,proactive2,2020.1.2,Win32,60,5f341be081b9052c55068110,5f352849c3f0bb06f4edbccf,2,,,,,,frame,,,,,,0,11,11,29,1,3,2,,,,,,,,,,,,,,,,,,,,,,,,,,,,,,,,,,,,,,,,,,,,,,,,,,,,,,,,,,,,,,,,,,,,,,,,,,,,,,,,,,,,,,,,,,,,,,,,,,,
,,,,,,,,,,stimuli/images/PICTURE_285.png,PRINCE,5eb45f0df625d52a7ebdf0ea,21/04/2000,2020-08-13_12h48.28.945,proactive2,2020.1.2,Win32,60,5f341be081b9052c55068110,5f352849c3f0bb06f4edbccf,2,,,,,,carrot,,,,,,0,12,12,20,1,3,2,,,,,,,,,,,,,,,,,,,,,,,,,,,,,,,,,,,,,,,,,,,,,,,,,,,,,,,,,,,,,,,,,,,,,,,,,,,,,,,,,,,,,,,,,,,,,,,,,,,
,,,,,,,,,,stimuli/images/PICTURE_654.png,COPS,5eb45f0df625d52a7ebdf0ea,21/04/2000,2020-08-13_12h48.28.945,proactive2,2020.1.2,Win32,60,5f341be081b9052c55068110,5f352849c3f0bb06f4edbccf,2,,,,,,pencil,,,,,,0,13,13,10,1,2,2,,,,,,,,,,,,,,,,,,,,,,,,,,,,,,,,,,,,,,,,,,,,,,,,,,,,,,,,,,,,,,,,,,,,,,,,,,,,,,,,,,,,,,,,,,,,,,,,,,,
,,,,,,,,,,stimuli/images/PICTURE_403.png,FAMILY,5eb45f0df625d52a7ebdf0ea,21/04/2000,2020-08-13_12h48.28.945,proactive2,2020.1.2,Win32,60,5f341be081b9052c55068110,5f352849c3f0bb06f4edbccf,2,,,,,,cathedral,,,,,,0,14,14,9,1,1,2,,,,,,,,,,,,,,,,,,,,,,,,,,,,,,,,,,,,,,,,,,,,,,,,,,,,,,,,,,,,,,,,,,,,,,,,,,,,,,,,,,,,,,,,,,,,,,,,,,,
,,,,,,,,,,stimuli/images/PICTURE_147.png,LEADER,5eb45f0df625d52a7ebdf0ea,21/04/2000,2020-08-13_12h48.28.945,proactive2,2020.1.2,Win32,60,5f341be081b9052c55068110,5f352849c3f0bb06f4edbccf,2,,,,,,hanger,,,,,,0,15,15,33,1,4,2,,,,,,,,,,,,,,,,,,,,,,,,,,,,,,,,,,,,,,,,,,,,,,,,,,,,,,,,,,,,,,,,,,,,,,,,,,,,,,,,,,,,,,,,,,,,,,,,,,,
,,,,,,,,,,stimuli/images/PICTURE_750.png,POLICY,5eb45f0df625d52a7ebdf0ea,21/04/2000,2020-08-13_12h48.28.945,proactive2,2020.1.2,Win32,60,5f341be081b9052c55068110,5f352849c3f0bb06f4edbccf,2,,,,,,kettle,,,,,,0,16,16,44,1,5,2,,,,,,,,,,,,,,,,,,,,,,,,,,,,,,,,,,,,,,,,,,,,,,,,,,,,,,,,,,,,,,,,,,,,,,,,,,,,,,,,,,,,,,,,,,,,,,,,,,,
,,,,,,,,,,stimuli/images/PICTURE_57.png,NATION,5eb45f0df625d52a7ebdf0ea,21/04/2000,2020-08-13_12h48.28.945,proactive2,2020.1.2,Win32,60,5f341be081b9052c55068110,5f352849c3f0bb06f4edbccf,2,,,,,,stamp,,,,,,0,17,17,21,1,3,2,,,,,,,,,,,,,,,,,,,,,,,,,,,,,,,,,,,,,,,,,,,,,,,,,,,,,,,,,,,,,,,,,,,,,,,,,,,,,,,,,,,,,,,,,,,,,,,,,,,
,,,,,,,,,,stimuli/images/PICTURE_677.png,FAMILY,5eb45f0df625d52a7ebdf0ea,21/04/2000,2020-08-13_12h48.28.945,proactive2,2020.1.2,Win32,60,5f341be081b9052c55068110,5f352849c3f0bb06f4edbccf,2,,,,,,map,,,,,,0,18,18,53,1,6,2,,,,,,,,,,,,,,,,,,,,,,,,,,,,,,,,,,,,,,,,,,,,,,,,,,,,,,,,,,,,,,,,,,,,,,,,,,,,,,,,,,,,,,,,,,,,,,,,,,,
,,,,,,,,,,stimuli/images/PICTURE_160.png,HOTEL,5eb45f0df625d52a7ebdf0ea,21/04/2000,2020-08-13_12h48.28.945,proactive2,2020.1.2,Win32,60,5f341be081b9052c55068110,5f352849c3f0bb06f4edbccf,2,,,,,,wheelbarrow,,,,,,0,19,19,16,1,2,2,,,,,,,,,,,,,,,,,,,,,,,,,,,,,,,,,,,,,,,,,,,,,,,,,,,,,,,,,,,,,,,,,,,,,,,,,,,,,,,,,,,,,,,,,,,,,,,,,,,
,,,,,,,,,,stimuli/images/PICTURE_255.png,PENNY,5eb45f0df625d52a7ebdf0ea,21/04/2000,2020-08-13_12h48.28.945,proactive2,2020.1.2,Win32,60,5f341be081b9052c55068110,5f352849c3f0bb06f4edbccf,2,,,,,,shovel,,,,,,0,20,20,19,1,2,2,,,,,,,,,,,,,,,,,,,,,,,,,,,,,,,,,,,,,,,,,,,,,,,,,,,,,,,,,,,,,,,,,,,,,,,,,,,,,,,,,,,,,,,,,,,,,,,,,,,
,,,,,,,,,,stimuli/images/PICTURE_487.png,ROOF,5eb45f0df625d52a7ebdf0ea,21/04/2000,2020-08-13_12h48.28.945,proactive2,2020.1.2,Win32,60,5f341be081b9052c55068110,5f352849c3f0bb06f4edbccf,2,,,,,,basket,,,,,,0,21,21,50,1,6,2,,,,,,,,,,,,,,,,,,,,,,,,,,,,,,,,,,,,,,,,,,,,,,,,,,,,,,,,,,,,,,,,,,,,,,,,,,,,,,,,,,,,,,,,,,,,,,,,,,,
,,,,,,,,,,stimuli/images/PICTURE_470.png,MOMENT,5eb45f0df625d52a7ebdf0ea,21/04/2000,2020-08-13_12h48.28.945,proactive2,2020.1.2,Win32,60,5f341be081b9052c55068110,5f352849c3f0bb06f4edbccf,2,,,,,,motorbike,,,,,,0,22,22,40,1,5,2,,,,,,,,,,,,,,,,,,,,,,,,,,,,,,,,,,,,,,,,,,,,,,,,,,,,,,,,,,,,,,,,,,,,,,,,,,,,,,,,,,,,,,,,,,,,,,,,,,,
,,,,,,,,,,stimuli/images/PICTURE_68.png,KIND,5eb45f0df625d52a7ebdf0ea,21/04/2000,2020-08-13_12h48.28.945,proactive2,2020.1.2,Win32,60,5f341be081b9052c55068110,5f352849c3f0bb06f4edbccf,2,,,,,,candle,,,,,,0,23,23,23,1,3,2,,,,,,,,,,,,,,,,,,,,,,,,,,,,,,,,,,,,,,,,,,,,,,,,,,,,,,,,,,,,,,,,,,,,,,,,,,,,,,,,,,,,,,,,,,,,,,,,,,,
,,,,,,,,,,stimuli/images/PICTURE_470.png,BEAUTY,5eb45f0df625d52a7ebdf0ea,21/04/2000,2020-08-13_12h48.28.945,proactive2,2020.1.2,Win32,60,5f341be081b9052c55068110,5f352849c3f0bb06f4edbccf,2,,,,,,motorbike,,,,,,0,24,24,26,1,3,2,,,,,,,,,,,,,,,,,,,,,,,,,,,,,,,,,,,,,,,,,,,,,,,,,,,,,,,,,,,,,,,,,,,,,,,,,,,,,,,,,,,,,,,,,,,,,,,,,,,
,,,,,,,,,,stimuli/images/PICTURE_692.png,DUDE,5eb45f0df625d52a7ebdf0ea,21/04/2000,2020-08-13_12h48.28.945,proactive2,2020.1.2,Win32,60,5f341be081b9052c55068110,5f352849c3f0bb06f4edbccf,2,,,,,,cherry,,,,,,0,25,25,47,1,5,2,,,,,,,,,,,,,,,,,,,,,,,,,,,,,,,,,,,,,,,,,,,,,,,,,,,,,,,,,,,,,,,,,,,,,,,,,,,,,,,,,,,,,,,,,,,,,,,,,,,
,,,,,,,,,,stimuli/images/PICTURE_311.png,TOILET,5eb45f0df625d52a7ebdf0ea,21/04/2000,2020-08-13_12h48.28.945,proactive2,2020.1.2,Win32,60,5f341be081b9052c55068110,5f352849c3f0bb06f4edbccf,2,,,,,,razor,,,,,,0,26,26,54,1,6,2,,,,,,,,,,,,,,,,,,,,,,,,,,,,,,,,,,,,,,,,,,,,,,,,,,,,,,,,,,,,,,,,,,,,,,,,,,,,,,,,,,,,,,,,,,,,,,,,,,,
,,,,,,,,,,stimuli/images/PICTURE_32.png,LETTER,5eb45f0df625d52a7ebdf0ea,21/04/2000,2020-08-13_12h48.28.945,proactive2,2020.1.2,Win32,60,5f341be081b9052c55068110,5f352849c3f0bb06f4edbccf,2,,,,,,crown,,,,,,0,27,27,56,1,6,2,,,,,,,,,,,,,,,,,,,,,,,,,,,,,,,,,,,,,,,,,,,,,,,,,,,,,,,,,,,,,,,,,,,,,,,,,,,,,,,,,,,,,,,,,,,,,,,,,,,
,,,,,,,,,,stimuli/images/PICTURE_405.png,HOUSE,5eb45f0df625d52a7ebdf0ea,21/04/2000,2020-08-13_12h48.28.945,proactive2,2020.1.2,Win32,60,5f341be081b9052c55068110,5f352849c3f0bb06f4edbccf,2,,,,,,anchor,,,,,,0,28,28,2,1,1,2,,,,,,,,,,,,,,,,,,,,,,,,,,,,,,,,,,,,,,,,,,,,,,,,,,,,,,,,,,,,,,,,,,,,,,,,,,,,,,,,,,,,,,,,,,,,,,,,,,,
,,,,,,,,,,stimuli/images/PICTURE_18.png,RIVER,5eb45f0df625d52a7ebdf0ea,21/04/2000,2020-08-13_12h48.28.945,proactive2,2020.1.2,Win32,60,5f341be081b9052c55068110,5f352849c3f0bb06f4edbccf,2,,,,,,planet,,,,,,0,29,29,22,1,3,2,,,,,,,,,,,,,,,,,,,,,,,,,,,,,,,,,,,,,,,,,,,,,,,,,,,,,,,,,,,,,,,,,,,,,,,,,,,,,,,,,,,,,,,,,,,,,,,,,,,
,,,,,,,,,,stimuli/images/PICTURE_348.png,DUDE,5eb45f0df625d52a7ebdf0ea,21/04/2000,2020-08-13_12h48.28.945,proactive2,2020.1.2,Win32,60,5f341be081b9052c55068110,5f352849c3f0bb06f4edbccf,2,,,,,,pepper,,,,,,0,30,30,59,1,6,2,,,,,,,,,,,,,,,,,,,,,,,,,,,,,,,,,,,,,,,,,,,,,,,,,,,,,,,,,,,,,,,,,,,,,,,,,,,,,,,,,,,,,,,,,,,,,,,,,,,
,,,,,,,,,,stimuli/images/PICTURE_314.png,SPEECH,5eb45f0df625d52a7ebdf0ea,21/04/2000,2020-08-13_12h48.28.945,proactive2,2020.1.2,Win32,60,5f341be081b9052c55068110,5f352849c3f0bb06f4edbccf,2,,,,,,perfume,,,,,,0,31,31,35,1,4,2,,,,,,,,,,,,,,,,,,,,,,,,,,,,,,,,,,,,,,,,,,,,,,,,,,,,,,,,,,,,,,,,,,,,,,,,,,,,,,,,,,,,,,,,,,,,,,,,,,,
,,,,,,,,,,stimuli/images/PICTURE_296.png,CLOCK,5eb45f0df625d52a7ebdf0ea,21/04/2000,2020-08-13_12h48.28.945,proactive2,2020.1.2,Win32,60,5f341be081b9052c55068110,5f352849c3f0bb06f4edbccf,2,,,,,,bolt,,,,,,0,32,32,18,1,2,2,,,,,,,,,,,,,,,,,,,,,,,,,,,,,,,,,,,,,,,,,,,,,,,,,,,,,,,,,,,,,,,,,,,,,,,,,,,,,,,,,,,,,,,,,,,,,,,,,,,
,,,,,,,,,,stimuli/images/PICTURE_123.png,SALE,5eb45f0df625d52a7ebdf0ea,21/04/2000,2020-08-13_12h48.28.945,proactive2,2020.1.2,Win32,60,5f341be081b9052c55068110,5f352849c3f0bb06f4edbccf,2,,,,,,dart,,,,,,0,33,33,8,1,1,2,,,,,,,,,,,,,,,,,,,,,,,,,,,,,,,,,,,,,,,,,,,,,,,,,,,,,,,,,,,,,,,,,,,,,,,,,,,,,,,,,,,,,,,,,,,,,,,,,,,
,,,,,,,,,,stimuli/images/PICTURE_487.png,POLICY,5eb45f0df625d52a7ebdf0ea,21/04/2000,2020-08-13_12h48.28.945,proactive2,2020.1.2,Win32,60,5f341be081b9052c55068110,5f352849c3f0bb06f4edbccf,2,,,,,,basket,,,,,,0,34,34,34,1,4,2,,,,,,,,,,,,,,,,,,,,,,,,,,,,,,,,,,,,,,,,,,,,,,,,,,,,,,,,,,,,,,,,,,,,,,,,,,,,,,,,,,,,,,,,,,,,,,,,,,,
,,,,,,,,,,stimuli/images/PICTURE_2.png,AREA,5eb45f0df625d52a7ebdf0ea,21/04/2000,2020-08-13_12h48.28.945,proactive2,2020.1.2,Win32,60,5f341be081b9052c55068110,5f352849c3f0bb06f4edbccf,2,,,,,,tyre,,,,,,0,35,35,32,1,4,2,,,,,,,,,,,,,,,,,,,,,,,,,,,,,,,,,,,,,,,,,,,,,,,,,,,,,,,,,,,,,,,,,,,,,,,,,,,,,,,,,,,,,,,,,,,,,,,,,,,
,,,,,,,,,,stimuli/images/PICTURE_509.png,SHOTS,5eb45f0df625d52a7ebdf0ea,21/04/2000,2020-08-13_12h48.28.945,proactive2,2020.1.2,Win32,60,5f341be081b9052c55068110,5f352849c3f0bb06f4edbccf,2,,,,,,telephone,,,,,,0,36,36,7,1,1,2,,,,,,,,,,,,,,,,,,,,,,,,,,,,,,,,,,,,,,,,,,,,,,,,,,,,,,,,,,,,,,,,,,,,,,,,,,,,,,,,,,,,,,,,,,,,,,,,,,,
,,,,,,,,,,stimuli/images/PICTURE_453.png,FAMILY,5eb45f0df625d52a7ebdf0ea,21/04/2000,2020-08-13_12h48.28.945,proactive2,2020.1.2,Win32,60,5f341be081b9052c55068110,5f352849c3f0bb06f4edbccf,2,,,,,,scissors,,,,,,0,37,37,48,1,5,2,,,,,,,,,,,,,,,,,,,,,,,,,,,,,,,,,,,,,,,,,,,,,,,,,,,,,,,,,,,,,,,,,,,,,,,,,,,,,,,,,,,,,,,,,,,,,,,,,,,
,,,,,,,,,,stimuli/images/PICTURE_405.png,JUNGLE,5eb45f0df625d52a7ebdf0ea,21/04/2000,2020-08-13_12h48.28.945,proactive2,2020.1.2,Win32,60,5f341be081b9052c55068110,5f352849c3f0bb06f4edbccf,2,,,,,,anchor,,,,,,0,38,38,58,1,6,2,,,,,,,,,,,,,,,,,,,,,,,,,,,,,,,,,,,,,,,,,,,,,,,,,,,,,,,,,,,,,,,,,,,,,,,,,,,,,,,,,,,,,,,,,,,,,,,,,,,
,,,,,,,,,,stimuli/images/PICTURE_667.png,GLASS,5eb45f0df625d52a7ebdf0ea,21/04/2000,2020-08-13_12h48.28.945,proactive2,2020.1.2,Win32,60,5f341be081b9052c55068110,5f352849c3f0bb06f4edbccf,2,,,,,,daisy,,,,,,0,39,39,27,1,3,2,,,,,,,,,,,,,,,,,,,,,,,,,,,,,,,,,,,,,,,,,,,,,,,,,,,,,,,,,,,,,,,,,,,,,,,,,,,,,,,,,,,,,,,,,,,,,,,,,,,
,,,,,,,,,,stimuli/images/PICTURE_356.png,CANDY,5eb45f0df625d52a7ebdf0ea,21/04/2000,2020-08-13_12h48.28.945,proactive2,2020.1.2,Win32,60,5f341be081b9052c55068110,5f352849c3f0bb06f4edbccf,2,,,,,,pawn,,,,,,0,40,40,46,1,5,2,,,,,,,,,,,,,,,,,,,,,,,,,,,,,,,,,,,,,,,,,,,,,,,,,,,,,,,,,,,,,,,,,,,,,,,,,,,,,,,,,,,,,,,,,,,,,,,,,,,
,,,,,,,,,,stimuli/images/PICTURE_677.png,PHOTO,5eb45f0df625d52a7ebdf0ea,21/04/2000,2020-08-13_12h48.28.945,proactive2,2020.1.2,Win32,60,5f341be081b9052c55068110,5f352849c3f0bb06f4edbccf,2,,,,,,map,,,,,,0,41,41,14,1,2,2,,,,,,,,,,,,,,,,,,,,,,,,,,,,,,,,,,,,,,,,,,,,,,,,,,,,,,,,,,,,,,,,,,,,,,,,,,,,,,,,,,,,,,,,,,,,,,,,,,,
,,,,,,,,,,stimuli/images/PICTURE_509.png,BATH,5eb45f0df625d52a7ebdf0ea,21/04/2000,2020-08-13_12h48.28.945,proactive2,2020.1.2,Win32,60,5f341be081b9052c55068110,5f352849c3f0bb06f4edbccf,2,,,,,,telephone,,,,,,0,42,42,15,1,2,2,,,,,,,,,,,,,,,,,,,,,,,,,,,,,,,,,,,,,,,,,,,,,,,,,,,,,,,,,,,,,,,,,,,,,,,,,,,,,,,,,,,,,,,,,,,,,,,,,,,
,,,,,,,,,,stimuli/images/PICTURE_452.png,COPS,5eb45f0df625d52a7ebdf0ea,21/04/2000,2020-08-13_12h48.28.945,proactive2,2020.1.2,Win32,60,5f341be081b9052c55068110,5f352849c3f0bb06f4edbccf,2,,,,,,watch,,,,,,0,43,43,0,1,1,2,,,,,,,,,,,,,,,,,,,,,,,,,,,,,,,,,,,,,,,,,,,,,,,,,,,,,,,,,,,,,,,,,,,,,,,,,,,,,,,,,,,,,,,,,,,,,,,,,,,
,,,,,,,,,,stimuli/images/PICTURE_2.png,YARD,5eb45f0df625d52a7ebdf0ea,21/04/2000,2020-08-13_12h48.28.945,proactive2,2020.1.2,Win32,60,5f341be081b9052c55068110,5f352849c3f0bb06f4edbccf,2,,,,,,tyre,,,,,,0,44,44,55,1,6,2,,,,,,,,,,,,,,,,,,,,,,,,,,,,,,,,,,,,,,,,,,,,,,,,,,,,,,,,,,,,,,,,,,,,,,,,,,,,,,,,,,,,,,,,,,,,,,,,,,,
,,,,,,,,,,stimuli/images/PICTURE_655.png,SALE,5eb45f0df625d52a7ebdf0ea,21/04/2000,2020-08-13_12h48.28.945,proactive2,2020.1.2,Win32,60,5f341be081b9052c55068110,5f352849c3f0bb06f4edbccf,2,,,,,,megaphone,,,,,,0,45,45,57,1,6,2,,,,,,,,,,,,,,,,,,,,,,,,,,,,,,,,,,,,,,,,,,,,,,,,,,,,,,,,,,,,,,,,,,,,,,,,,,,,,,,,,,,,,,,,,,,,,,,,,,,
,,,,,,,,,,stimuli/images/PICTURE_405.png,JUNGLE,5eb45f0df625d52a7ebdf0ea,21/04/2000,2020-08-13_12h48.28.945,proactive2,2020.1.2,Win32,60,5f341be081b9052c55068110,5f352849c3f0bb06f4edbccf,2,,,,,,anchor,,,,,,0,46,46,13,1,2,2,,,,,,,,,,,,,,,,,,,,,,,,,,,,,,,,,,,,,,,,,,,,,,,,,,,,,,,,,,,,,,,,,,,,,,,,,,,,,,,,,,,,,,,,,,,,,,,,,,,
,,,,,,,,,,stimuli/images/PICTURE_708.png,VALLEY,5eb45f0df625d52a7ebdf0ea,21/04/2000,2020-08-13_12h48.28.945,proactive2,2020.1.2,Win32,60,5f341be081b9052c55068110,5f352849c3f0bb06f4edbccf,2,,,,,,monkey,,,,,,0,47,47,45,1,5,2,,,,,,,,,,,,,,,,,,,,,,,,,,,,,,,,,,,,,,,,,,,,,,,,,,,,,,,,,,,,,,,,,,,,,,,,,,,,,,,,,,,,,,,,,,,,,,,,,,,
,,,,,,,,,,stimuli/images/PICTURE_57.png,CANDY,5eb45f0df625d52a7ebdf0ea,21/04/2000,2020-08-13_12h48.28.945,proactive2,2020.1.2,Win32,60,5f341be081b9052c55068110,5f352849c3f0bb06f4edbccf,2,,,,,,stamp,,,,,,0,48,48,52,1,6,2,,,,,,,,,,,,,,,,,,,,,,,,,,,,,,,,,,,,,,,,,,,,,,,,,,,,,,,,,,,,,,,,,,,,,,,,,,,,,,,,,,,,,,,,,,,,,,,,,,,
,,,,,,,,,,stimuli/images/PICTURE_95.png,NIGHT,5eb45f0df625d52a7ebdf0ea,21/04/2000,2020-08-13_12h48.28.945,proactive2,2020.1.2,Win32,60,5f341be081b9052c55068110,5f352849c3f0bb06f4edbccf,2,,,,,,suitcase,,,,,,0,49,49,37,1,4,2,,,,,,,,,,,,,,,,,,,,,,,,,,,,,,,,,,,,,,,,,,,,,,,,,,,,,,,,,,,,,,,,,,,,,,,,,,,,,,,,,,,,,,,,,,,,,,,,,,,
,,,,,,,,,,stimuli/images/PICTURE_215.png,LEADER,5eb45f0df625d52a7ebdf0ea,21/04/2000,2020-08-13_12h48.28.945,proactive2,2020.1.2,Win32,60,5f341be081b9052c55068110,5f352849c3f0bb06f4edbccf,2,,,,,,boot,,,,,,0,50,50,43,1,5,2,,,,,,,,,,,,,,,,,,,,,,,,,,,,,,,,,,,,,,,,,,,,,,,,,,,,,,,,,,,,,,,,,,,,,,,,,,,,,,,,,,,,,,,,,,,,,,,,,,,
,,,,,,,,,,stimuli/images/PICTURE_57.png,CASINO,5eb45f0df625d52a7ebdf0ea,21/04/2000,2020-08-13_12h48.28.945,proactive2,2020.1.2,Win32,60,5f341be081b9052c55068110,5f352849c3f0bb06f4edbccf,2,,,,,,stamp,,,,,,0,51,51,12,1,2,2,,,,,,,,,,,,,,,,,,,,,,,,,,,,,,,,,,,,,,,,,,,,,,,,,,,,,,,,,,,,,,,,,,,,,,,,,,,,,,,,,,,,,,,,,,,,,,,,,,,
,,,,,,,,,,stimuli/images/PICTURE_311.png,FLESH,5eb45f0df625d52a7ebdf0ea,21/04/2000,2020-08-13_12h48.28.945,proactive2,2020.1.2,Win32,60,5f341be081b9052c55068110,5f352849c3f0bb06f4edbccf,2,,,,,,razor,,,,,,0,52,52,3,1,1,2,,,,,,,,,,,,,,,,,,,,,,,,,,,,,,,,,,,,,,,,,,,,,,,,,,,,,,,,,,,,,,,,,,,,,,,,,,,,,,,,,,,,,,,,,,,,,,,,,,,
,,,,,,,,,,stimuli/images/PICTURE_688.png,CLOCK,5eb45f0df625d52a7ebdf0ea,21/04/2000,2020-08-13_12h48.28.945,proactive2,2020.1.2,Win32,60,5f341be081b9052c55068110,5f352849c3f0bb06f4edbccf,2,,,,,,runner,,,,,,0,53,53,42,1,5,2,,,,,,,,,,,,,,,,,,,,,,,,,,,,,,,,,,,,,,,,,,,,,,,,,,,,,,,,,,,,,,,,,,,,,,,,,,,,,,,,,,,,,,,,,,,,,,,,,,,
,,,,,,,,,,stimuli/images/PICTURE_208.png,SPIRIT,5eb45f0df625d52a7ebdf0ea,21/04/2000,2020-08-13_12h48.28.945,proactive2,2020.1.2,Win32,60,5f341be081b9052c55068110,5f352849c3f0bb06f4edbccf,2,,,,,,microphone,,,,,,0,54,54,28,1,3,2,,,,,,,,,,,,,,,,,,,,,,,,,,,,,,,,,,,,,,,,,,,,,,,,,,,,,,,,,,,,,,,,,,,,,,,,,,,,,,,,,,,,,,,,,,,,,,,,,,,
,,,,,,,,,,stimuli/images/PICTURE_2.png,JUNGLE,5eb45f0df625d52a7ebdf0ea,21/04/2000,2020-08-13_12h48.28.945,proactive2,2020.1.2,Win32,60,5f341be081b9052c55068110,5f352849c3f0bb06f4edbccf,2,,,,,,tyre,,,,,,0,55,55,1,1,1,2,,,,,,,,,,,,,,,,,,,,,,,,,,,,,,,,,,,,,,,,,,,,,,,,,,,,,,,,,,,,,,,,,,,,,,,,,,,,,,,,,,,,,,,,,,,,,,,,,,,
,,,,,,,,,,stimuli/images/PICTURE_297.png,BODY,5eb45f0df625d52a7ebdf0ea,21/04/2000,2020-08-13_12h48.28.945,proactive2,2020.1.2,Win32,60,5f341be081b9052c55068110,5f352849c3f0bb06f4edbccf,2,,,,,,aeroplane,,,,,,0,56,56,51,1,6,2,,,,,,,,,,,,,,,,,,,,,,,,,,,,,,,,,,,,,,,,,,,,,,,,,,,,,,,,,,,,,,,,,,,,,,,,,,,,,,,,,,,,,,,,,,,,,,,,,,,
,,,,,,,,,,stimuli/images/PICTURE_654.png,YEAR,5eb45f0df625d52a7ebdf0ea,21/04/2000,2020-08-13_12h48.28.945,proactive2,2020.1.2,Win32,60,5f341be081b9052c55068110,5f352849c3f0bb06f4edbccf,2,,,,,,pencil,,,,,,0,57,57,41,1,5,2,,,,,,,,,,,,,,,,,,,,,,,,,,,,,,,,,,,,,,,,,,,,,,,,,,,,,,,,,,,,,,,,,,,,,,,,,,,,,,,,,,,,,,,,,,,,,,,,,,,
,,,,,,,,,,stimuli/images/PICTURE_93.png,GIRL,5eb45f0df625d52a7ebdf0ea,21/04/2000,2020-08-13_12h48.28.945,proactive2,2020.1.2,Win32,60,5f341be081b9052c55068110,5f352849c3f0bb06f4edbccf,2,,,,,,skateboard,,,,,,0,58,58,31,1,4,2,,,,,,,,,,,,,,,,,,,,,,,,,,,,,,,,,,,,,,,,,,,,,,,,,,,,,,,,,,,,,,,,,,,,,,,,,,,,,,,,,,,,,,,,,,,,,,,,,,,
,,?,0.000625,0,,,,,,stimuli/images/PICTURE_750.png,POLICY,5eb45f0df625d52a7ebdf0ea,21/04/2000,2020-08-13_12h48.28.945,proactive2,2020.1.2,Win32,60,5f341be081b9052c55068110,5f352849c3f0bb06f4edbccf,2,,,,,,kettle,,,,,,,,,,,5,2,0,0,0,44,1,,,,,,,,,,,,,,,,,,,,,,,,,,,,,,,,,,,,,,,,,,,,,,,,,,,,,,,,,,,,,,,,,,,,,,,,,,,,,,,,,,,,,,,,,,,,,,
,,?,0.000425,0,,,,,,stimuli/images/PICTURE_504.png,HOUSE,5eb45f0df625d52a7ebdf0ea,21/04/2000,2020-08-13_12h48.28.945,proactive2,2020.1.2,Win32,60,5f341be081b9052c55068110,5f352849c3f0bb06f4edbccf,2,,,,,,wheel,,,,,,,,,,,4,2,0,1,1,36,1,,,,,,,,,,,,,,,,,,,,,,,,,,,,,,,,,,,,,,,,,,,,,,,,,,,,,,,,,,,,,,,,,,,,,,,,,,,,,,,,,,,,,,,,,,,,,,
,,?,0.000365,0,,,,,,stimuli/images/PICTURE_57.png,NATION,5eb45f0df625d52a7ebdf0ea,21/04/2000,2020-08-13_12h48.28.945,proactive2,2020.1.2,Win32,60,5f341be081b9052c55068110,5f352849c3f0bb06f4edbccf,2,,,,,,stamp,,,,,,,,,,,3,2,0,2,2,21,1,,,,,,,,,,,,,,,,,,,,,,,,,,,,,,,,,,,,,,,,,,,,,,,,,,,,,,,,,,,,,,,,,,,,,,,,,,,,,,,,,,,,,,,,,,,,,,
,,?,0.000365,0,,,,,,stimuli/images/PICTURE_453.png,FAMILY,5eb45f0df625d52a7ebdf0ea,21/04/2000,2020-08-13_12h48.28.945,proactive2,2020.1.2,Win32,60,5f341be081b9052c55068110,5f352849c3f0bb06f4edbccf,2,,,,,,scissors,,,,,,,,,,,5,2,0,3,3,48,1,,,,,,,,,,,,,,,,,,,,,,,,,,,,,,,,,,,,,,,,,,,,,,,,,,,,,,,,,,,,,,,,,,,,,,,,,,,,,,,,,,,,,,,,,,,,,,
,,FULL,4.448805,0,,,,,,stimuli/images/PICTURE_564.png,PLENTY,5eb45f0df625d52a7ebdf0ea,21/04/2000,2020-08-13_12h48.28.945,proactive2,2020.1.2,Win32,60,5f341be081b9052c55068110,5f352849c3f0bb06f4edbccf,2,,,,,,spoon,,,,,,,,,,,2,2,0,4,4,11,1,,,,,,,,,,,,,,,,,,,,,,,,,,,,,,,,,,,,,,,,,,,,,,,,,,,,,,,,,,,,,,,,,,,,,,,,,,,,,,,,,,,,,,,,,,,,,,
,,?,0.001565,0,,,,,,stimuli/images/PICTURE_141.png,CLIENT,5eb45f0df625d52a7ebdf0ea,21/04/2000,2020-08-13_12h48.28.945,proactive2,2020.1.2,Win32,60,5f341be081b9052c55068110,5f352849c3f0bb06f4edbccf,2,,,,,,sunflower,,,,,,,,,,,4,2,0,5,5,30,1,,,,,,,,,,,,,,,,,,,,,,,,,,,,,,,,,,,,,,,,,,,,,,,,,,,,,,,,,,,,,,,,,,,,,,,,,,,,,,,,,,,,,,,,,,,,,,
,,?,0.000725,0,,,,,,stimuli/images/PICTURE_692.png,DUDE,5eb45f0df625d52a7ebdf0ea,21/04/2000,2020-08-13_12h48.28.945,proactive2,2020.1.2,Win32,60,5f341be081b9052c55068110,5f352849c3f0bb06f4edbccf,2,,,,,,cherry,,,,,,,,,,,5,2,0,6,6,47,1,,,,,,,,,,,,,,,,,,,,,,,,,,,,,,,,,,,,,,,,,,,,,,,,,,,,,,,,,,,,,,,,,,,,,,,,,,,,,,,,,,,,,,,,,,,,,,
,,?,0.000665,0,,,,,,stimuli/images/PICTURE_470.png,MOMENT,5eb45f0df625d52a7ebdf0ea,21/04/2000,2020-08-13_12h48.28.945,proactive2,2020.1.2,Win32,60,5f341be081b9052c55068110,5f352849c3f0bb06f4edbccf,2,,,,,,motorbike,,,,,,,,,,,5,2,0,7,7,40,1,,,,,,,,,,,,,,,,,,,,,,,,,,,,,,,,,,,,,,,,,,,,,,,,,,,,,,,,,,,,,,,,,,,,,,,,,,,,,,,,,,,,,,,,,,,,,,
,,PENNY,1.85543,1,,,,,,stimuli/images/PICTURE_255.png,PENNY,5eb45f0df625d52a7ebdf0ea,21/04/2000,2020-08-13_12h48.28.945,proactive2,2020.1.2,Win32,60,5f341be081b9052c55068110,5f352849c3f0bb06f4edbccf,2,,,,,,shovel,,,,,,,,,,,2,2,0,8,8,19,1,,,,,,,,,,,,,,,,,,,,,,,,,,,,,,,,,,,,,,,,,,,,,,,,,,,,,,,,,,,,,,,,,,,,,,,,,,,,,,,,,,,,,,,,,,,,,,
,,CASINO,2.96388,1,,,,,,stimuli/images/PICTURE_57.png,CASINO,5eb45f0df625d52a7ebdf0ea,21/04/2000,2020-08-13_12h48.28.945,proactive2,2020.1.2,Win32,60,5f341be081b9052c55068110,5f352849c3f0bb06f4edbccf,2,,,,,,stamp,,,,,,,,,,,2,2,0,9,9,12,1,,,,,,,,,,,,,,,,,,,,,,,,,,,,,,,,,,,,,,,,,,,,,,,,,,,,,,,,,,,,,,,,,,,,,,,,,,,,,,,,,,,,,,,,,,,,,,
,,?,0.001445,0,,,,,,stimuli/images/PICTURE_311.png,FLESH,5eb45f0df625d52a7ebdf0ea,21/04/2000,2020-08-13_12h48.28.945,proactive2,2020.1.2,Win32,60,5f341be081b9052c55068110,5f352849c3f0bb06f4edbccf,2,,,,,,razor,,,,,,,,,,,1,2,0,10,10,3,1,,,,,,,,,,,,,,,,,,,,,,,,,,,,,,,,,,,,,,,,,,,,,,,,,,,,,,,,,,,,,,,,,,,,,,,,,,,,,,,,,,,,,,,,,,,,,,
,,?,0.001015,0,,,,,,stimuli/images/PICTURE_708.png,VALLEY,5eb45f0df625d52a7ebdf0ea,21/04/2000,2020-08-13_12h48.28.945,proactive2,2020.1.2,Win32,60,5f341be081b9052c55068110,5f352849c3f0bb06f4edbccf,2,,,,,,monkey,,,,,,,,,,,5,2,0,11,11,45,1,,,,,,,,,,,,,,,,,,,,,,,,,,,,,,,,,,,,,,,,,,,,,,,,,,,,,,,,,,,,,,,,,,,,,,,,,,,,,,,,,,,,,,,,,,,,,,
,,CLOCK,1.77652,1,,,,,,stimuli/images/PICTURE_296.png,CLOCK,5eb45f0df625d52a7ebdf0ea,21/04/2000,2020-08-13_12h48.28.945,proactive2,2020.1.2,Win32,60,5f341be081b9052c55068110,5f352849c3f0bb06f4edbccf,2,,,,,,bolt,,,,,,,,,,,2,2,0,12,12,18,1,,,,,,,,,,,,,,,,,,,,,,,,,,,,,,,,,,,,,,,,,,,,,,,,,,,,,,,,,,,,,,,,,,,,,,,,,,,,,,,,,,,,,,,,,,,,,,
,,?,0.001485,0,,,,,,stimuli/images/PICTURE_509.png,MILLER,5eb45f0df625d52a7ebdf0ea,21/04/2000,2020-08-13_12h48.28.945,proactive2,2020.1.2,Win32,60,5f341be081b9052c55068110,5f352849c3f0bb06f4edbccf,2,,,,,,telephone,,,,,,,,,,,5,2,0,13,13,49,1,,,,,,,,,,,,,,,,,,,,,,,,,,,,,,,,,,,,,,,,,,,,,,,,,,,,,,,,,,,,,,,,,,,,,,,,,,,,,,,,,,,,,,,,,,,,,,
,,?,0.000735,0,,,,,,stimuli/images/PICTURE_208.png,SPIRIT,5eb45f0df625d52a7ebdf0ea,21/04/2000,2020-08-13_12h48.28.945,proactive2,2020.1.2,Win32,60,5f341be081b9052c55068110,5f352849c3f0bb06f4edbccf,2,,,,,,microphone,,,,,,,,,,,3,2,0,14,14,28,1,,,,,,,,,,,,,,,,,,,,,,,,,,,,,,,,,,,,,,,,,,,,,,,,,,,,,,,,,,,,,,,,,,,,,,,,,,,,,,,,,,,,,,,,,,,,,,
,,?,0.00075,0,,,,,,stimuli/images/PICTURE_667.png,GLASS,5eb45f0df625d52a7ebdf0ea,21/04/2000,2020-08-13_12h48.28.945,proactive2,2020.1.2,Win32,60,5f341be081b9052c55068110,5f352849c3f0bb06f4edbccf,2,,,,,,daisy,,,,,,,,,,,3,2,0,15,15,27,1,,,,,,,,,,,,,,,,,,,,,,,,,,,,,,,,,,,,,,,,,,,,,,,,,,,,,,,,,,,,,,,,,,,,,,,,,,,,,,,,,,,,,,,,,,,,,,
,,?,0.0004,0,,,,,,stimuli/images/PICTURE_405.png,HOUSE,5eb45f0df625d52a7ebdf0ea,21/04/2000,2020-08-13_12h48.28.945,proactive2,2020.1.2,Win32,60,5f341be081b9052c55068110,5f352849c3f0bb06f4edbccf,2,,,,,,anchor,,,,,,,,,,,1,2,0,16,16,2,1,,,,,,,,,,,,,,,,,,,,,,,,,,,,,,,,,,,,,,,,,,,,,,,,,,,,,,,,,,,,,,,,,,,,,,,,,,,,,,,,,,,,,,,,,,,,,,
,,?,0.00039,0,,,,,,stimuli/images/PICTURE_677.png,FAMILY,5eb45f0df625d52a7ebdf0ea,21/04/2000,2020-08-13_12h48.28.945,proactive2,2020.1.2,Win32,60,5f341be081b9052c55068110,5f352849c3f0bb06f4edbccf,2,,,,,,map,,,,,,,,,,,6,2,0,17,17,53,1,,,,,,,,,,,,,,,,,,,,,,,,,,,,,,,,,,,,,,,,,,,,,,,,,,,,,,,,,,,,,,,,,,,,,,,,,,,,,,,,,,,,,,,,,,,,,,
,,?,0.000415,0,,,,,,stimuli/images/PICTURE_33.png,COPS,5eb45f0df625d52a7ebdf0ea,21/04/2000,2020-08-13_12h48.28.945,proactive2,2020.1.2,Win32,60,5f341be081b9052c55068110,5f352849c3f0bb06f4edbccf,2,,,,,,frame,,,,,,,,,,,3,2,0,18,18,29,1,,,,,,,,,,,,,,,,,,,,,,,,,,,,,,,,,,,,,,,,,,,,,,,,,,,,,,,,,,,,,,,,,,,,,,,,,,,,,,,,,,,,,,,,,,,,,,
,,?,0.00207,0,,,,,,stimuli/images/PICTURE_487.png,ROOF,5eb45f0df625d52a7ebdf0ea,21/04/2000,2020-08-13_12h48.28.945,proactive2,2020.1.2,Win32,60,5f341be081b9052c55068110,5f352849c3f0bb06f4edbccf,2,,,,,,basket,,,,,,,,,,,6,2,0,19,19,50,1,,,,,,,,,,,,,,,,,,,,,,,,,,,,,,,,,,,,,,,,,,,,,,,,,,,,,,,,,,,,,,,,,,,,,,,,,,,,,,,,,,,,,,,,,,,,,,
,,?,0.00036,0,,,,,,stimuli/images/PICTURE_311.png,TOILET,5eb45f0df625d52a7ebdf0ea,21/04/2000,2020-08-13_12h48.28.945,proactive2,2020.1.2,Win32,60,5f341be081b9052c55068110,5f352849c3f0bb06f4edbccf,2,,,,,,razor,,,,,,,,,,,6,2,0,20,20,54,1,,,,,,,,,,,,,,,,,,,,,,,,,,,,,,,,,,,,,,,,,,,,,,,,,,,,,,,,,,,,,,,,,,,,,,,,,,,,,,,,,,,,,,,,,,,,,,
,,HOTEL,2.0338,1,,,,,,stimuli/images/PICTURE_160.png,HOTEL,5eb45f0df625d52a7ebdf0ea,21/04/2000,2020-08-13_12h48.28.945,proactive2,2020.1.2,Win32,60,5f341be081b9052c55068110,5f352849c3f0bb06f4edbccf,2,,,,,,wheelbarrow,,,,,,,,,,,2,2,0,21,21,16,1,,,,,,,,,,,,,,,,,,,,,,,,,,,,,,,,,,,,,,,,,,,,,,,,,,,,,,,,,,,,,,,,,,,,,,,,,,,,,,,,,,,,,,,,,,,,,,
,,PHOTO,2.1135,1,,,,,,stimuli/images/PICTURE_677.png,PHOTO,5eb45f0df625d52a7ebdf0ea,21/04/2000,2020-08-13_12h48.28.945,proactive2,2020.1.2,Win32,60,5f341be081b9052c55068110,5f352849c3f0bb06f4edbccf,2,,,,,,map,,,,,,,,,,,2,2,0,22,22,14,1,,,,,,,,,,,,,,,,,,,,,,,,,,,,,,,,,,,,,,,,,,,,,,,,,,,,,,,,,,,,,,,,,,,,,,,,,,,,,,,,,,,,,,,,,,,,,,
,,?,0.00142,0,,,,,,stimuli/images/PICTURE_95.png,NIGHT,5eb45f0df625d52a7ebdf0ea,21/04/2000,2020-08-13_12h48.28.945,proactive2,2020.1.2,Win32,60,5f341be081b9052c55068110,5f352849c3f0bb06f4edbccf,2,,,,,,suitcase,,,,,,,,,,,4,2,0,23,23,37,1,,,,,,,,,,,,,,,,,,,,,,,,,,,,,,,,,,,,,,,,,,,,,,,,,,,,,,,,,,,,,,,,,,,,,,,,,,,,,,,,,,,,,,,,,,,,,,
,,?,0.000915,0,,,,,,stimuli/images/PICTURE_57.png,CANDY,5eb45f0df625d52a7ebdf0ea,21/04/2000,2020-08-13_12h48.28.945,proactive2,2020.1.2,Win32,60,5f341be081b9052c55068110,5f352849c3f0bb06f4edbccf,2,,,,,,stamp,,,,,,,,,,,6,2,0,24,24,52,1,,,,,,,,,,,,,,,,,,,,,,,,,,,,,,,,,,,,,,,,,,,,,,,,,,,,,,,,,,,,,,,,,,,,,,,,,,,,,,,,,,,,,,,,,,,,,,
,,?,0.000695,0,,,,,,stimuli/images/PICTURE_297.png,BODY,5eb45f0df625d52a7ebdf0ea,21/04/2000,2020-08-13_12h48.28.945,proactive2,2020.1.2,Win32,60,5f341be081b9052c55068110,5f352849c3f0bb06f4edbccf,2,,,,,,aeroplane,,,,,,,,,,,6,2,0,25,25,51,1,,,,,,,,,,,,,,,,,,,,,,,,,,,,,,,,,,,,,,,,,,,,,,,,,,,,,,,,,,,,,,,,,,,,,,,,,,,,,,,,,,,,,,,,,,,,,,
,,?,0.000405,0,,,,,,stimuli/images/PICTURE_215.png,FOOD,5eb45f0df625d52a7ebdf0ea,21/04/2000,2020-08-13_12h48.28.945,proactive2,2020.1.2,Win32,60,5f341be081b9052c55068110,5f352849c3f0bb06f4edbccf,2,,,,,,boot,,,,,,,,,,,1,2,0,26,26,5,1,,,,,,,,,,,,,,,,,,,,,,,,,,,,,,,,,,,,,,,,,,,,,,,,,,,,,,,,,,,,,,,,,,,,,,,,,,,,,,,,,,,,,,,,,,,,,,
,,?,0.001035,0,,,,,,stimuli/images/PICTURE_215.png,BOYS,5eb45f0df625d52a7ebdf0ea,21/04/2000,2020-08-13_12h48.28.945,proactive2,2020.1.2,Win32,60,5f341be081b9052c55068110,5f352849c3f0bb06f4edbccf,2,,,,,,boot,,,,,,,,,,,3,2,0,27,27,24,1,,,,,,,,,,,,,,,,,,,,,,,,,,,,,,,,,,,,,,,,,,,,,,,,,,,,,,,,,,,,,,,,,,,,,,,,,,,,,,,,,,,,,,,,,,,,,,
,,?,0.000455,0,,,,,,stimuli/images/PICTURE_348.png,DUDE,5eb45f0df625d52a7ebdf0ea,21/04/2000,2020-08-13_12h48.28.945,proactive2,2020.1.2,Win32,60,5f341be081b9052c55068110,5f352849c3f0bb06f4edbccf,2,,,,,,pepper,,,,,,,,,,,6,2,0,28,28,59,1,,,,,,,,,,,,,,,,,,,,,,,,,,,,,,,,,,,,,,,,,,,,,,,,,,,,,,,,,,,,,,,,,,,,,,,,,,,,,,,,,,,,,,,,,,,,,,
,,?,0.000335,0,,,,,,stimuli/images/PICTURE_285.png,WRITER,5eb45f0df625d52a7ebdf0ea,21/04/2000,2020-08-13_12h48.28.945,proactive2,2020.1.2,Win32,60,5f341be081b9052c55068110,5f352849c3f0bb06f4edbccf,2,,,,,,carrot,,,,,,,,,,,1,2,0,29,29,6,1,,,,,,,,,,,,,,,,,,,,,,,,,,,,,,,,,,,,,,,,,,,,,,,,,,,,,,,,,,,,,,,,,,,,,,,,,,,,,,,,,,,,,,,,,,,,,,
,,?,0.000525,0,,,,,,stimuli/images/PICTURE_405.png,JUNGLE,5eb45f0df625d52a7ebdf0ea,21/04/2000,2020-08-13_12h48.28.945,proactive2,2020.1.2,Win32,60,5f341be081b9052c55068110,5f352849c3f0bb06f4edbccf,2,,,,,,anchor,,,,,,,,,,,6,2,0,30,30,58,1,,,,,,,,,,,,,,,,,,,,,,,,,,,,,,,,,,,,,,,,,,,,,,,,,,,,,,,,,,,,,,,,,,,,,,,,,,,,,,,,,,,,,,,,,,,,,,
,,?,0.00038,0,,,,,,stimuli/images/PICTURE_18.png,RIVER,5eb45f0df625d52a7ebdf0ea,21/04/2000,2020-08-13_12h48.28.945,proactive2,2020.1.2,Win32,60,5f341be081b9052c55068110,5f352849c3f0bb06f4edbccf,2,,,,,,planet,,,,,,,,,,,3,2,0,31,31,22,1,,,,,,,,,,,,,,,,,,,,,,,,,,,,,,,,,,,,,,,,,,,,,,,,,,,,,,,,,,,,,,,,,,,,,,,,,,,,,,,,,,,,,,,,,,,,,,
,,?,0.00047,0,,,,,,stimuli/images/PICTURE_147.png,LEADER,5eb45f0df625d52a7ebdf0ea,21/04/2000,2020-08-13_12h48.28.945,proactive2,2020.1.2,Win32,60,5f341be081b9052c55068110,5f352849c3f0bb06f4edbccf,2,,,,,,hanger,,,,,,,,,,,4,2,0,32,32,33,1,,,,,,,,,,,,,,,,,,,,,,,,,,,,,,,,,,,,,,,,,,,,,,,,,,,,,,,,,,,,,,,,,,,,,,,,,,,,,,,,,,,,,,,,,,,,,,
,,COPS,1.46547,1,,,,,,stimuli/images/PICTURE_654.png,COPS,5eb45f0df625d52a7ebdf0ea,21/04/2000,2020-08-13_12h48.28.945,proactive2,2020.1.2,Win32,60,5f341be081b9052c55068110,5f352849c3f0bb06f4edbccf,2,,,,,,pencil,,,,,,,,,,,2,2,0,33,33,10,1,,,,,,,,,,,,,,,,,,,,,,,,,,,,,,,,,,,,,,,,,,,,,,,,,,,,,,,,,,,,,,,,,,,,,,,,,,,,,,,,,,,,,,,,,,,,,,
,,?,0.000655,0,,,,,,stimuli/images/PICTURE_470.png,BEAUTY,5eb45f0df625d52a7ebdf0ea,21/04/2000,2020-08-13_12h48.28.945,proactive2,2020.1.2,Win32,60,5f341be081b9052c55068110,5f352849c3f0bb06f4edbccf,2,,,,,,motorbike,,,,,,,,,,,3,2,0,34,34,26,1,,,,,,,,,,,,,,,,,,,,,,,,,,,,,,,,,,,,,,,,,,,,,,,,,,,,,,,,,,,,,,,,,,,,,,,,,,,,,,,,,,,,,,,,,,,,,,
,,?,0.000395,0,,,,,,stimuli/images/PICTURE_215.png,LEADER,5eb45f0df625d52a7ebdf0ea,21/04/2000,2020-08-13_12h48.28.945,proactive2,2020.1.2,Win32,60,5f341be081b9052c55068110,5f352849c3f0bb06f4edbccf,2,,,,,,boot,,,,,,,,,,,5,2,0,35,35,43,1,,,,,,,,,,,,,,,,,,,,,,,,,,,,,,,,,,,,,,,,,,,,,,,,,,,,,,,,,,,,,,,,,,,,,,,,,,,,,,,,,,,,,,,,,,,,,,
,,?,0.00041,0,,,,,,stimuli/images/PICTURE_452.png,COPS,5eb45f0df625d52a7ebdf0ea,21/04/2000,2020-08-13_12h48.28.945,proactive2,2020.1.2,Win32,60,5f341be081b9052c55068110,5f352849c3f0bb06f4edbccf,2,,,,,,watch,,,,,,,,,,,1,2,0,36,36,0,1,,,,,,,,,,,,,,,,,,,,,,,,,,,,,,,,,,,,,,,,,,,,,,,,,,,,,,,,,,,,,,,,,,,,,,,,,,,,,,,,,,,,,,,,,,,,,,
,,?,0.00051,0,,,,,,stimuli/images/PICTURE_654.png,YEAR,5eb45f0df625d52a7ebdf0ea,21/04/2000,2020-08-13_12h48.28.945,proactive2,2020.1.2,Win32,60,5f341be081b9052c55068110,5f352849c3f0bb06f4edbccf,2,,,,,,pencil,,,,,,,,,,,5,2,0,37,37,41,1,,,,,,,,,,,,,,,,,,,,,,,,,,,,,,,,,,,,,,,,,,,,,,,,,,,,,,,,,,,,,,,,,,,,,,,,,,,,,,,,,,,,,,,,,,,,,,
,,?,0.00042,0,,,,,,stimuli/images/PICTURE_491.png,SERIES,5eb45f0df625d52a7ebdf0ea,21/04/2000,2020-08-13_12h48.28.945,proactive2,2020.1.2,Win32,60,5f341be081b9052c55068110,5f352849c3f0bb06f4edbccf,2,,,,,,rug,,,,,,,,,,,4,2,0,38,38,39,1,,,,,,,,,,,,,,,,,,,,,,,,,,,,,,,,,,,,,,,,,,,,,,,,,,,,,,,,,,,,,,,,,,,,,,,,,,,,,,,,,,,,,,,,,,,,,,
,,?,0.00043,0,,,,,,stimuli/images/PICTURE_314.png,SPEECH,5eb45f0df625d52a7ebdf0ea,21/04/2000,2020-08-13_12h48.28.945,proactive2,2020.1.2,Win32,60,5f341be081b9052c55068110,5f352849c3f0bb06f4edbccf,2,,,,,,perfume,,,,,,,,,,,4,2,0,39,39,35,1,,,,,,,,,,,,,,,,,,,,,,,,,,,,,,,,,,,,,,,,,,,,,,,,,,,,,,,,,,,,,,,,,,,,,,,,,,,,,,,,,,,,,,,,,,,,,,
,,LEADER,1.624285,1,,,,,,stimuli/images/PICTURE_327.png,LEADER,5eb45f0df625d52a7ebdf0ea,21/04/2000,2020-08-13_12h48.28.945,proactive2,2020.1.2,Win32,60,5f341be081b9052c55068110,5f352849c3f0bb06f4edbccf,2,,,,,,helmet,,,,,,,,,,,2,2,0,40,40,17,1,,,,,,,,,,,,,,,,,,,,,,,,,,,,,,,,,,,,,,,,,,,,,,,,,,,,,,,,,,,,,,,,,,,,,,,,,,,,,,,,,,,,,,,,,,,,,,
,,?,0.001495,0,,,,,,stimuli/images/PICTURE_655.png,SALE,5eb45f0df625d52a7ebdf0ea,21/04/2000,2020-08-13_12h48.28.945,proactive2,2020.1.2,Win32,60,5f341be081b9052c55068110,5f352849c3f0bb06f4edbccf,2,,,,,,megaphone,,,,,,,,,,,6,2,0,41,41,57,1,,,,,,,,,,,,,,,,,,,,,,,,,,,,,,,,,,,,,,,,,,,,,,,,,,,,,,,,,,,,,,,,,,,,,,,,,,,,,,,,,,,,,,,,,,,,,,
,,?,0.00067,0,,,,,,stimuli/images/PICTURE_32.png,LETTER,5eb45f0df625d52a7ebdf0ea,21/04/2000,2020-08-13_12h48.28.945,proactive2,2020.1.2,Win32,60,5f341be081b9052c55068110,5f352849c3f0bb06f4edbccf,2,,,,,,crown,,,,,,,,,,,6,2,0,42,42,56,1,,,,,,,,,,,,,,,,,,,,,,,,,,,,,,,,,,,,,,,,,,,,,,,,,,,,,,,,,,,,,,,,,,,,,,,,,,,,,,,,,,,,,,,,,,,,,,
,,?,0.00063,0,,,,,,stimuli/images/PICTURE_177.png,HOUSE,5eb45f0df625d52a7ebdf0ea,21/04/2000,2020-08-13_12h48.28.945,proactive2,2020.1.2,Win32,60,5f341be081b9052c55068110,5f352849c3f0bb06f4edbccf,2,,,,,,mushroom,,,,,,,,,,,3,2,0,43,43,25,1,,,,,,,,,,,,,,,,,,,,,,,,,,,,,,,,,,,,,,,,,,,,,,,,,,,,,,,,,,,,,,,,,,,,,,,,,,,,,,,,,,,,,,,,,,,,,,
,,?,0.00149,0,,,,,,stimuli/images/PICTURE_509.png,SHOTS,5eb45f0df625d52a7ebdf0ea,21/04/2000,2020-08-13_12h48.28.945,proactive2,2020.1.2,Win32,60,5f341be081b9052c55068110,5f352849c3f0bb06f4edbccf,2,,,,,,telephone,,,,,,,,,,,1,2,0,44,44,7,1,,,,,,,,,,,,,,,,,,,,,,,,,,,,,,,,,,,,,,,,,,,,,,,,,,,,,,,,,,,,,,,,,,,,,,,,,,,,,,,,,,,,,,,,,,,,,,
,,?,0.00039,0,,,,,,stimuli/images/PICTURE_348.png,TOILET,5eb45f0df625d52a7ebdf0ea,21/04/2000,2020-08-13_12h48.28.945,proactive2,2020.1.2,Win32,60,5f341be081b9052c55068110,5f352849c3f0bb06f4edbccf,2,,,,,,pepper,,,,,,,,,,,1,2,0,45,45,4,1,,,,,,,,,,,,,,,,,,,,,,,,,,,,,,,,,,,,,,,,,,,,,,,,,,,,,,,,,,,,,,,,,,,,,,,,,,,,,,,,,,,,,,,,,,,,,,
,,BATH,1.722265,1,,,,,,stimuli/images/PICTURE_509.png,BATH,5eb45f0df625d52a7ebdf0ea,21/04/2000,2020-08-13_12h48.28.945,proactive2,2020.1.2,Win32,60,5f341be081b9052c55068110,5f352849c3f0bb06f4edbccf,2,,,,,,telephone,,,,,,,,,,,2,2,0,46,46,15,1,,,,,,,,,,,,,,,,,,,,,,,,,,,,,,,,,,,,,,,,,,,,,,,,,,,,,,,,,,,,,,,,,,,,,,,,,,,,,,,,,,,,,,,,,,,,,,
,,?,0.001425,0,,,,,,stimuli/images/PICTURE_123.png,SALE,5eb45f0df625d52a7ebdf0ea,21/04/2000,2020-08-13_12h48.28.945,proactive2,2020.1.2,Win32,60,5f341be081b9052c55068110,5f352849c3f0bb06f4edbccf,2,,,,,,dart,,,,,,,,,,,1,2,0,47,47,8,1,,,,,,,,,,,,,,,,,,,,,,,,,,,,,,,,,,,,,,,,,,,,,,,,,,,,,,,,,,,,,,,,,,,,,,,,,,,,,,,,,,,,,,,,,,,,,,
,,?,0.00071,0,,,,,,stimuli/images/PICTURE_68.png,KIND,5eb45f0df625d52a7ebdf0ea,21/04/2000,2020-08-13_12h48.28.945,proactive2,2020.1.2,Win32,60,5f341be081b9052c55068110,5f352849c3f0bb06f4edbccf,2,,,,,,candle,,,,,,,,,,,3,2,0,48,48,23,1,,,,,,,,,,,,,,,,,,,,,,,,,,,,,,,,,,,,,,,,,,,,,,,,,,,,,,,,,,,,,,,,,,,,,,,,,,,,,,,,,,,,,,,,,,,,,,
,,?,0.000705,0,,,,,,stimuli/images/PICTURE_2.png,YARD,5eb45f0df625d52a7ebdf0ea,21/04/2000,2020-08-13_12h48.28.945,proactive2,2020.1.2,Win32,60,5f341be081b9052c55068110,5f352849c3f0bb06f4edbccf,2,,,,,,tyre,,,,,,,,,,,6,2,0,49,49,55,1,,,,,,,,,,,,,,,,,,,,,,,,,,,,,,,,,,,,,,,,,,,,,,,,,,,,,,,,,,,,,,,,,,,,,,,,,,,,,,,,,,,,,,,,,,,,,,
,,?,0.000465,0,,,,,,stimuli/images/PICTURE_285.png,PRINCE,5eb45f0df625d52a7ebdf0ea,21/04/2000,2020-08-13_12h48.28.945,proactive2,2020.1.2,Win32,60,5f341be081b9052c55068110,5f352849c3f0bb06f4edbccf,2,,,,,,carrot,,,,,,,,,,,3,2,0,50,50,20,1,,,,,,,,,,,,,,,,,,,,,,,,,,,,,,,,,,,,,,,,,,,,,,,,,,,,,,,,,,,,,,,,,,,,,,,,,,,,,,,,,,,,,,,,,,,,,,
,,?,0.00042,0,,,,,,stimuli/images/PICTURE_688.png,CLOCK,5eb45f0df625d52a7ebdf0ea,21/04/2000,2020-08-13_12h48.28.945,proactive2,2020.1.2,Win32,60,5f341be081b9052c55068110,5f352849c3f0bb06f4edbccf,2,,,,,,runner,,,,,,,,,,,5,2,0,51,51,42,1,,,,,,,,,,,,,,,,,,,,,,,,,,,,,,,,,,,,,,,,,,,,,,,,,,,,,,,,,,,,,,,,,,,,,,,,,,,,,,,,,,,,,,,,,,,,,,
,,JUNGLE,1.8043,1,,,,,,stimuli/images/PICTURE_405.png,JUNGLE,5eb45f0df625d52a7ebdf0ea,21/04/2000,2020-08-13_12h48.28.945,proactive2,2020.1.2,Win32,60,5f341be081b9052c55068110,5f352849c3f0bb06f4edbccf,2,,,,,,anchor,,,,,,,,,,,2,2,0,52,52,13,1,,,,,,,,,,,,,,,,,,,,,,,,,,,,,,,,,,,,,,,,,,,,,,,,,,,,,,,,,,,,,,,,,,,,,,,,,,,,,,,,,,,,,,,,,,,,,,
,,?,0.00138,0,,,,,,stimuli/images/PICTURE_93.png,GIRL,5eb45f0df625d52a7ebdf0ea,21/04/2000,2020-08-13_12h48.28.945,proactive2,2020.1.2,Win32,60,5f341be081b9052c55068110,5f352849c3f0bb06f4edbccf,2,,,,,,skateboard,,,,,,,,,,,4,2,0,53,53,31,1,,,,,,,,,,,,,,,,,,,,,,,,,,,,,,,,,,,,,,,,,,,,,,,,,,,,,,,,,,,,,,,,,,,,,,,,,,,,,,,,,,,,,,,,,,,,,,
,,?,0.000885,0,,,,,,stimuli/images/PICTURE_356.png,CANDY,5eb45f0df625d52a7ebdf0ea,21/04/2000,2020-08-13_12h48.28.945,proactive2,2020.1.2,Win32,60,5f341be081b9052c55068110,5f352849c3f0bb06f4edbccf,2,,,,,,pawn,,,,,,,,,,,5,2,0,54,54,46,1,,,,,,,,,,,,,,,,,,,,,,,,,,,,,,,,,,,,,,,,,,,,,,,,,,,,,,,,,,,,,,,,,,,,,,,,,,,,,,,,,,,,,,,,,,,,,,
,,?,0.00072,0,,,,,,stimuli/images/PICTURE_487.png,POLICY,5eb45f0df625d52a7ebdf0ea,21/04/2000,2020-08-13_12h48.28.945,proactive2,2020.1.2,Win32,60,5f341be081b9052c55068110,5f352849c3f0bb06f4edbccf,2,,,,,,basket,,,,,,,,,,,4,2,0,55,55,34,1,,,,,,,,,,,,,,,,,,,,,,,,,,,,,,,,,,,,,,,,,,,,,,,,,,,,,,,,,,,,,,,,,,,,,,,,,,,,,,,,,,,,,,,,,,,,,,
,,?,0.00047,0,,,,,,stimuli/images/PICTURE_403.png,FAMILY,5eb45f0df625d52a7ebdf0ea,21/04/2000,2020-08-13_12h48.28.945,proactive2,2020.1.2,Win32,60,5f341be081b9052c55068110,5f352849c3f0bb06f4edbccf,2,,,,,,cathedral,,,,,,,,,,,1,2,0,56,56,9,1,,,,,,,,,,,,,,,,,,,,,,,,,,,,,,,,,,,,,,,,,,,,,,,,,,,,,,,,,,,,,,,,,,,,,,,,,,,,,,,,,,,,,,,,,,,,,,
,,?,0.000315,0,,,,,,stimuli/images/PICTURE_2.png,JUNGLE,5eb45f0df625d52a7ebdf0ea,21/04/2000,2020-08-13_12h48.28.945,proactive2,2020.1.2,Win32,60,5f341be081b9052c55068110,5f352849c3f0bb06f4edbccf,2,,,,,,tyre,,,,,,,,,,,1,2,0,57,57,1,1,,,,,,,,,,,,,,,,,,,,,,,,,,,,,,,,,,,,,,,,,,,,,,,,,,,,,,,,,,,,,,,,,,,,,,,,,,,,,,,,,,,,,,,,,,,,,,
,,?,0.0003,0,,,,,,stimuli/images/PICTURE_2.png,AREA,5eb45f0df625d52a7ebdf0ea,21/04/2000,2020-08-13_12h48.28.945,proactive2,2020.1.2,Win32,60,5f341be081b9052c55068110,5f352849c3f0bb06f4edbccf,2,,,,,,tyre,,,,,,,,,,,4,2,0,58,58,32,1,,,,,,,,,,,,,,,,,,,,,,,,,,,,,,,,,,,,,,,,,,,,,,,,,,,,,,,,,,,,,,,,,,,,,,,,,,,,,,,,,,,,,,,,,,,,,,
,,?,0.000315,0,,,,,,stimuli/images/PICTURE_509.png,APPLE,5eb45f0df625d52a7ebdf0ea,21/04/2000,2020-08-13_12h48.28.945,proactive2,2020.1.2,Win32,60,5f341be081b9052c55068110,5f352849c3f0bb06f4edbccf,2,,,,,,telephone,,,,,,,,,,,4,2,0,59,59,38,1,,,,,,,,,,,,,,,,,,,,,,,,,,,,,,,,,,,,,,,,,,,,,,,,,,,,,,,,,,,,,,,,,,,,,,,,,,,,,,,,,,,,,,,,,,,,,,
,,,,,,,,,,,,5eb45f0df625d52a7ebdf0ea,21/04/2000,2020-08-13_12h48.28.945,proactive2,2020.1.2,Win32,60,5f341be081b9052c55068110,5f352849c3f0bb06f4edbccf,2,,,,,,,,,,,,,,,,,,,,,,,,0,1,1,2,1,stimuli/learn-block3.csv,,,,,,,,,,,,,,,,,,,,,,,,,,,,,,,,,,,,,,,,,,,,,,,,,,,,,,,,,,,,,,,,,,,,,,,,,,,,,,,,,,,,,,,,
,,,,,,,,,,stimuli/images/PICTURE_348.png,SPEECH,5eb45f0df625d52a7ebdf0ea,21/04/2000,2020-08-13_12h48.28.945,proactive2,2020.1.2,Win32,60,5f341be081b9052c55068110,5f352849c3f0bb06f4edbccf,2,,,,,,pepper,,,,,,0,0,0,20,1,3,0,,,,,,,,,,,,,,,,,,,,,,,,,,,,,,,,,,,,,,,,,,,,,,,,,,,,,,,,,,,,,,,,,,,,,,,,,,,,,,,,,,,,,,,,,,,,,,,,,,,
,,,,,,,,,,stimuli/images/PICTURE_308.png,KIND,5eb45f0df625d52a7ebdf0ea,21/04/2000,2020-08-13_12h48.28.945,proactive2,2020.1.2,Win32,60,5f341be081b9052c55068110,5f352849c3f0bb06f4edbccf,2,,,,,,dice,,,,,,0,1,1,54,1,6,0,,,,,,,,,,,,,,,,,,,,,,,,,,,,,,,,,,,,,,,,,,,,,,,,,,,,,,,,,,,,,,,,,,,,,,,,,,,,,,,,,,,,,,,,,,,,,,,,,,,
,,,,,,,,,,stimuli/images/PICTURE_327.png,BEAUTY,5eb45f0df625d52a7ebdf0ea,21/04/2000,2020-08-13_12h48.28.945,proactive2,2020.1.2,Win32,60,5f341be081b9052c55068110,5f352849c3f0bb06f4edbccf,2,,,,,,helmet,,,,,,0,2,2,48,1,5,0,,,,,,,,,,,,,,,,,,,,,,,,,,,,,,,,,,,,,,,,,,,,,,,,,,,,,,,,,,,,,,,,,,,,,,,,,,,,,,,,,,,,,,,,,,,,,,,,,,,
,,,,,,,,,,stimuli/images/PICTURE_123.png,ADVICE,5eb45f0df625d52a7ebdf0ea,21/04/2000,2020-08-13_12h48.28.945,proactive2,2020.1.2,Win32,60,5f341be081b9052c55068110,5f352849c3f0bb06f4edbccf,2,,,,,,dart,,,,,,0,3,3,40,1,5,0,,,,,,,,,,,,,,,,,,,,,,,,,,,,,,,,,,,,,,,,,,,,,,,,,,,,,,,,,,,,,,,,,,,,,,,,,,,,,,,,,,,,,,,,,,,,,,,,,,,
,,,,,,,,,,stimuli/images/PICTURE_177.png,CARS,5eb45f0df625d52a7ebdf0ea,21/04/2000,2020-08-13_12h48.28.945,proactive2,2020.1.2,Win32,60,5f341be081b9052c55068110,5f352849c3f0bb06f4edbccf,2,,,,,,mushroom,,,,,,0,4,4,35,1,4,0,,,,,,,,,,,,,,,,,,,,,,,,,,,,,,,,,,,,,,,,,,,,,,,,,,,,,,,,,,,,,,,,,,,,,,,,,,,,,,,,,,,,,,,,,,,,,,,,,,,
,,,,,,,,,,stimuli/images/PICTURE_453.png,PLENTY,5eb45f0df625d52a7ebdf0ea,21/04/2000,2020-08-13_12h48.28.945,proactive2,2020.1.2,Win32,60,5f341be081b9052c55068110,5f352849c3f0bb06f4edbccf,2,,,,,,scissors,,,,,,0,5,5,56,1,6,0,,,,,,,,,,,,,,,,,,,,,,,,,,,,,,,,,,,,,,,,,,,,,,,,,,,,,,,,,,,,,,,,,,,,,,,,,,,,,,,,,,,,,,,,,,,,,,,,,,,
,,,,,,,,,,stimuli/images/PICTURE_311.png,BEAUTY,5eb45f0df625d52a7ebdf0ea,21/04/2000,2020-08-13_12h48.28.945,proactive2,2020.1.2,Win32,60,5f341be081b9052c55068110,5f352849c3f0bb06f4edbccf,2,,,,,,razor,,,,,,0,6,6,13,1,2,0,,,,,,,,,,,,,,,,,,,,,,,,,,,,,,,,,,,,,,,,,,,,,,,,,,,,,,,,,,,,,,,,,,,,,,,,,,,,,,,,,,,,,,,,,,,,,,,,,,,
,,,,,,,,,,stimuli/images/PICTURE_467.png,DEMON,5eb45f0df625d52a7ebdf0ea,21/04/2000,2020-08-13_12h48.28.945,proactive2,2020.1.2,Win32,60,5f341be081b9052c55068110,5f352849c3f0bb06f4edbccf,2,,,,,,peg,,,,,,0,7,7,23,1,3,0,,,,,,,,,,,,,,,,,,,,,,,,,,,,,,,,,,,,,,,,,,,,,,,,,,,,,,,,,,,,,,,,,,,,,,,,,,,,,,,,,,,,,,,,,,,,,,,,,,,
,,,,,,,,,,stimuli/images/PICTURE_744.png,SYSTEM,5eb45f0df625d52a7ebdf0ea,21/04/2000,2020-08-13_12h48.28.945,proactive2,2020.1.2,Win32,60,5f341be081b9052c55068110,5f352849c3f0bb06f4edbccf,2,,,,,,ring,,,,,,0,8,8,43,1,5,0,,,,,,,,,,,,,,,,,,,,,,,,,,,,,,,,,,,,,,,,,,,,,,,,,,,,,,,,,,,,,,,,,,,,,,,,,,,,,,,,,,,,,,,,,,,,,,,,,,,
,,,,,,,,,,stimuli/images/PICTURE_233.png,IDEAS,5eb45f0df625d52a7ebdf0ea,21/04/2000,2020-08-13_12h48.28.945,proactive2,2020.1.2,Win32,60,5f341be081b9052c55068110,5f352849c3f0bb06f4edbccf,2,,,,,,salt,,,,,,0,9,9,28,1,3,0,,,,,,,,,,,,,,,,,,,,,,,,,,,,,,,,,,,,,,,,,,,,,,,,,,,,,,,,,,,,,,,,,,,,,,,,,,,,,,,,,,,,,,,,,,,,,,,,,,,
,,,,,,,,,,stimuli/images/PICTURE_151.png,GIRL,5eb45f0df625d52a7ebdf0ea,21/04/2000,2020-08-13_12h48.28.945,proactive2,2020.1.2,Win32,60,5f341be081b9052c55068110,5f352849c3f0bb06f4edbccf,2,,,,,,tray,,,,,,0,10,10,19,1,2,0,,,,,,,,,,,,,,,,,,,,,,,,,,,,,,,,,,,,,,,,,,,,,,,,,,,,,,,,,,,,,,,,,,,,,,,,,,,,,,,,,,,,,,,,,,,,,,,,,,,
,,,,,,,,,,stimuli/images/PICTURE_85.png,THING,5eb45f0df625d52a7ebdf0ea,21/04/2000,2020-08-13_12h48.28.945,proactive2,2020.1.2,Win32,60,5f341be081b9052c55068110,5f352849c3f0bb06f4edbccf,2,,,,,,diamond,,,,,,0,11,11,15,1,2,0,,,,,,,,,,,,,,,,,,,,,,,,,,,,,,,,,,,,,,,,,,,,,,,,,,,,,,,,,,,,,,,,,,,,,,,,,,,,,,,,,,,,,,,,,,,,,,,,,,,
,,,,,,,,,,stimuli/images/PICTURE_314.png,SAKE,5eb45f0df625d52a7ebdf0ea,21/04/2000,2020-08-13_12h48.28.945,proactive2,2020.1.2,Win32,60,5f341be081b9052c55068110,5f352849c3f0bb06f4edbccf,2,,,,,,perfume,,,,,,0,12,12,7,1,1,0,,,,,,,,,,,,,,,,,,,,,,,,,,,,,,,,,,,,,,,,,,,,,,,,,,,,,,,,,,,,,,,,,,,,,,,,,,,,,,,,,,,,,,,,,,,,,,,,,,,
,,,,,,,,,,stimuli/images/PICTURE_356.png,DANGER,5eb45f0df625d52a7ebdf0ea,21/04/2000,2020-08-13_12h48.28.945,proactive2,2020.1.2,Win32,60,5f341be081b9052c55068110,5f352849c3f0bb06f4edbccf,2,,,,,,pawn,,,,,,0,13,13,55,1,6,0,,,,,,,,,,,,,,,,,,,,,,,,,,,,,,,,,,,,,,,,,,,,,,,,,,,,,,,,,,,,,,,,,,,,,,,,,,,,,,,,,,,,,,,,,,,,,,,,,,,
,,,,,,,,,,stimuli/images/PICTURE_688.png,WOMEN,5eb45f0df625d52a7ebdf0ea,21/04/2000,2020-08-13_12h48.28.945,proactive2,2020.1.2,Win32,60,5f341be081b9052c55068110,5f352849c3f0bb06f4edbccf,2,,,,,,runner,,,,,,0,14,14,14,1,2,0,,,,,,,,,,,,,,,,,,,,,,,,,,,,,,,,,,,,,,,,,,,,,,,,,,,,,,,,,,,,,,,,,,,,,,,,,,,,,,,,,,,,,,,,,,,,,,,,,,,
,,,,,,,,,,stimuli/images/PICTURE_654.png,VALLEY,5eb45f0df625d52a7ebdf0ea,21/04/2000,2020-08-13_12h48.28.945,proactive2,2020.1.2,Win32,60,5f341be081b9052c55068110,5f352849c3f0bb06f4edbccf,2,,,,,,pencil,,,,,,0,15,15,1,1,1,0,,,,,,,,,,,,,,,,,,,,,,,,,,,,,,,,,,,,,,,,,,,,,,,,,,,,,,,,,,,,,,,,,,,,,,,,,,,,,,,,,,,,,,,,,,,,,,,,,,,
,,,,,,,,,,stimuli/images/PICTURE_160.png,FEET,5eb45f0df625d52a7ebdf0ea,21/04/2000,2020-08-13_12h48.28.945,proactive2,2020.1.2,Win32,60,5f341be081b9052c55068110,5f352849c3f0bb06f4edbccf,2,,,,,,wheelbarrow,,,,,,0,16,16,58,1,6,0,,,,,,,,,,,,,,,,,,,,,,,,,,,,,,,,,,,,,,,,,,,,,,,,,,,,,,,,,,,,,,,,,,,,,,,,,,,,,,,,,,,,,,,,,,,,,,,,,,,
,,,,,,,,,,stimuli/images/PICTURE_708.png,YARD,5eb45f0df625d52a7ebdf0ea,21/04/2000,2020-08-13_12h48.28.945,proactive2,2020.1.2,Win32,60,5f341be081b9052c55068110,5f352849c3f0bb06f4edbccf,2,,,,,,monkey,,,,,,0,17,17,29,1,3,0,,,,,,,,,,,,,,,,,,,,,,,,,,,,,,,,,,,,,,,,,,,,,,,,,,,,,,,,,,,,,,,,,,,,,,,,,,,,,,,,,,,,,,,,,,,,,,,,,,,
,,,,,,,,,,stimuli/images/PICTURE_667.png,BATH,5eb45f0df625d52a7ebdf0ea,21/04/2000,2020-08-13_12h48.28.945,proactive2,2020.1.2,Win32,60,5f341be081b9052c55068110,5f352849c3f0bb06f4edbccf,2,,,,,,daisy,,,,,,0,18,18,4,1,1,0,,,,,,,,,,,,,,,,,,,,,,,,,,,,,,,,,,,,,,,,,,,,,,,,,,,,,,,,,,,,,,,,,,,,,,,,,,,,,,,,,,,,,,,,,,,,,,,,,,,
,,,,,,,,,,stimuli/images/PICTURE_708.png,CLIENT,5eb45f0df625d52a7ebdf0ea,21/04/2000,2020-08-13_12h48.28.945,proactive2,2020.1.2,Win32,60,5f341be081b9052c55068110,5f352849c3f0bb06f4edbccf,2,,,,,,monkey,,,,,,0,19,19,5,1,1,0,,,,,,,,,,,,,,,,,,,,,,,,,,,,,,,,,,,,,,,,,,,,,,,,,,,,,,,,,,,,,,,,,,,,,,,,,,,,,,,,,,,,,,,,,,,,,,,,,,,
,,,,,,,,,,stimuli/images/PICTURE_470.png,CASINO,5eb45f0df625d52a7ebdf0ea,21/04/2000,2020-08-13_12h48.28.945,proactive2,2020.1.2,Win32,60,5f341be081b9052c55068110,5f352849c3f0bb06f4edbccf,2,,,,,,motorbike,,,,,,0,20,20,36,1,4,0,,,,,,,,,,,,,,,,,,,,,,,,,,,,,,,,,,,,,,,,,,,,,,,,,,,,,,,,,,,,,,,,,,,,,,,,,,,,,,,,,,,,,,,,,,,,,,,,,,,
,,,,,,,,,,stimuli/images/PICTURE_453.png,DUDE,5eb45f0df625d52a7ebdf0ea,21/04/2000,2020-08-13_12h48.28.945,proactive2,2020.1.2,Win32,60,5f341be081b9052c55068110,5f352849c3f0bb06f4edbccf,2,,,,,,scissors,,,,,,0,21,21,27,1,3,0,,,,,,,,,,,,,,,,,,,,,,,,,,,,,,,,,,,,,,,,,,,,,,,,,,,,,,,,,,,,,,,,,,,,,,,,,,,,,,,,,,,,,,,,,,,,,,,,,,,
,,,,,,,,,,stimuli/images/PICTURE_504.png,BODY,5eb45f0df625d52a7ebdf0ea,21/04/2000,2020-08-13_12h48.28.945,proactive2,2020.1.2,Win32,60,5f341be081b9052c55068110,5f352849c3f0bb06f4edbccf,2,,,,,,wheel,,,,,,0,22,22,8,1,1,0,,,,,,,,,,,,,,,,,,,,,,,,,,,,,,,,,,,,,,,,,,,,,,,,,,,,,,,,,,,,,,,,,,,,,,,,,,,,,,,,,,,,,,,,,,,,,,,,,,,
,,,,,,,,,,stimuli/images/PICTURE_233.png,WOMEN,5eb45f0df625d52a7ebdf0ea,21/04/2000,2020-08-13_12h48.28.945,proactive2,2020.1.2,Win32,60,5f341be081b9052c55068110,5f352849c3f0bb06f4edbccf,2,,,,,,salt,,,,,,0,23,23,38,1,4,0,,,,,,,,,,,,,,,,,,,,,,,,,,,,,,,,,,,,,,,,,,,,,,,,,,,,,,,,,,,,,,,,,,,,,,,,,,,,,,,,,,,,,,,,,,,,,,,,,,,
,,,,,,,,,,stimuli/images/PICTURE_677.png,MILE,5eb45f0df625d52a7ebdf0ea,21/04/2000,2020-08-13_12h48.28.945,proactive2,2020.1.2,Win32,60,5f341be081b9052c55068110,5f352849c3f0bb06f4edbccf,2,,,,,,map,,,,,,0,24,24,30,1,4,0,,,,,,,,,,,,,,,,,,,,,,,,,,,,,,,,,,,,,,,,,,,,,,,,,,,,,,,,,,,,,,,,,,,,,,,,,,,,,,,,,,,,,,,,,,,,,,,,,,,
,,,,,,,,,,stimuli/images/PICTURE_123.png,ADVICE,5eb45f0df625d52a7ebdf0ea,21/04/2000,2020-08-13_12h48.28.945,proactive2,2020.1.2,Win32,60,5f341be081b9052c55068110,5f352849c3f0bb06f4edbccf,2,,,,,,dart,,,,,,0,25,25,50,1,6,0,,,,,,,,,,,,,,,,,,,,,,,,,,,,,,,,,,,,,,,,,,,,,,,,,,,,,,,,,,,,,,,,,,,,,,,,,,,,,,,,,,,,,,,,,,,,,,,,,,,
,,,,,,,,,,stimuli/images/PICTURE_380.png,DEATH,5eb45f0df625d52a7ebdf0ea,21/04/2000,2020-08-13_12h48.28.945,proactive2,2020.1.2,Win32,60,5f341be081b9052c55068110,5f352849c3f0bb06f4edbccf,2,,,,,,gorilla,,,,,,0,26,26,49,1,5,0,,,,,,,,,,,,,,,,,,,,,,,,,,,,,,,,,,,,,,,,,,,,,,,,,,,,,,,,,,,,,,,,,,,,,,,,,,,,,,,,,,,,,,,,,,,,,,,,,,,
,,,,,,,,,,stimuli/images/PICTURE_692.png,MONTH,5eb45f0df625d52a7ebdf0ea,21/04/2000,2020-08-13_12h48.28.945,proactive2,2020.1.2,Win32,60,5f341be081b9052c55068110,5f352849c3f0bb06f4edbccf,2,,,,,,cherry,,,,,,0,27,27,16,1,2,0,,,,,,,,,,,,,,,,,,,,,,,,,,,,,,,,,,,,,,,,,,,,,,,,,,,,,,,,,,,,,,,,,,,,,,,,,,,,,,,,,,,,,,,,,,,,,,,,,,,
,,,,,,,,,,stimuli/images/PICTURE_215.png,PLENTY,5eb45f0df625d52a7ebdf0ea,21/04/2000,2020-08-13_12h48.28.945,proactive2,2020.1.2,Win32,60,5f341be081b9052c55068110,5f352849c3f0bb06f4edbccf,2,,,,,,boot,,,,,,0,28,28,37,1,4,0,,,,,,,,,,,,,,,,,,,,,,,,,,,,,,,,,,,,,,,,,,,,,,,,,,,,,,,,,,,,,,,,,,,,,,,,,,,,,,,,,,,,,,,,,,,,,,,,,,,
,,,,,,,,,,stimuli/images/PICTURE_744.png,SAKE,5eb45f0df625d52a7ebdf0ea,21/04/2000,2020-08-13_12h48.28.945,proactive2,2020.1.2,Win32,60,5f341be081b9052c55068110,5f352849c3f0bb06f4edbccf,2,,,,,,ring,,,,,,0,29,29,17,1,2,0,,,,,,,,,,,,,,,,,,,,,,,,,,,,,,,,,,,,,,,,,,,,,,,,,,,,,,,,,,,,,,,,,,,,,,,,,,,,,,,,,,,,,,,,,,,,,,,,,,,
,,,,,,,,,,stimuli/images/PICTURE_314.png,GODS,5eb45f0df625d52a7ebdf0ea,21/04/2000,2020-08-13_12h48.28.945,proactive2,2020.1.2,Win32,60,5f341be081b9052c55068110,5f352849c3f0bb06f4edbccf,2,,,,,,perfume,,,,,,0,30,30,11,1,2,0,,,,,,,,,,,,,,,,,,,,,,,,,,,,,,,,,,,,,,,,,,,,,,,,,,,,,,,,,,,,,,,,,,,,,,,,,,,,,,,,,,,,,,,,,,,,,,,,,,,
,,,,,,,,,,stimuli/images/PICTURE_203.png,ARTIST,5eb45f0df625d52a7ebdf0ea,21/04/2000,2020-08-13_12h48.28.945,proactive2,2020.1.2,Win32,60,5f341be081b9052c55068110,5f352849c3f0bb06f4edbccf,2,,,,,,cap,,,,,,0,31,31,26,1,3,0,,,,,,,,,,,,,,,,,,,,,,,,,,,,,,,,,,,,,,,,,,,,,,,,,,,,,,,,,,,,,,,,,,,,,,,,,,,,,,,,,,,,,,,,,,,,,,,,,,,
,,,,,,,,,,stimuli/images/PICTURE_469.png,LETTER,5eb45f0df625d52a7ebdf0ea,21/04/2000,2020-08-13_12h48.28.945,proactive2,2020.1.2,Win32,60,5f341be081b9052c55068110,5f352849c3f0bb06f4edbccf,2,,,,,,stool,,,,,,0,32,32,42,1,5,0,,,,,,,,,,,,,,,,,,,,,,,,,,,,,,,,,,,,,,,,,,,,,,,,,,,,,,,,,,,,,,,,,,,,,,,,,,,,,,,,,,,,,,,,,,,,,,,,,,,
,,,,,,,,,,stimuli/images/PICTURE_68.png,MILE,5eb45f0df625d52a7ebdf0ea,21/04/2000,2020-08-13_12h48.28.945,proactive2,2020.1.2,Win32,60,5f341be081b9052c55068110,5f352849c3f0bb06f4edbccf,2,,,,,,candle,,,,,,0,33,33,44,1,5,0,,,,,,,,,,,,,,,,,,,,,,,,,,,,,,,,,,,,,,,,,,,,,,,,,,,,,,,,,,,,,,,,,,,,,,,,,,,,,,,,,,,,,,,,,,,,,,,,,,,
,,,,,,,,,,stimuli/images/PICTURE_208.png,MONTH,5eb45f0df625d52a7ebdf0ea,21/04/2000,2020-08-13_12h48.28.945,proactive2,2020.1.2,Win32,60,5f341be081b9052c55068110,5f352849c3f0bb06f4edbccf,2,,,,,,microphone,,,,,,0,34,34,53,1,6,0,,,,,,,,,,,,,,,,,,,,,,,,,,,,,,,,,,,,,,,,,,,,,,,,,,,,,,,,,,,,,,,,,,,,,,,,,,,,,,,,,,,,,,,,,,,,,,,,,,,
,,,,,,,,,,stimuli/images/PICTURE_255.png,AREA,5eb45f0df625d52a7ebdf0ea,21/04/2000,2020-08-13_12h48.28.945,proactive2,2020.1.2,Win32,60,5f341be081b9052c55068110,5f352849c3f0bb06f4edbccf,2,,,,,,shovel,,,,,,0,35,35,22,1,3,0,,,,,,,,,,,,,,,,,,,,,,,,,,,,,,,,,,,,,,,,,,,,,,,,,,,,,,,,,,,,,,,,,,,,,,,,,,,,,,,,,,,,,,,,,,,,,,,,,,,
,,,,,,,,,,stimuli/images/PICTURE_688.png,CASINO,5eb45f0df625d52a7ebdf0ea,21/04/2000,2020-08-13_12h48.28.945,proactive2,2020.1.2,Win32,60,5f341be081b9052c55068110,5f352849c3f0bb06f4edbccf,2,,,,,,runner,,,,,,0,36,36,2,1,1,0,,,,,,,,,,,,,,,,,,,,,,,,,,,,,,,,,,,,,,,,,,,,,,,,,,,,,,,,,,,,,,,,,,,,,,,,,,,,,,,,,,,,,,,,,,,,,,,,,,,
,,,,,,,,,,stimuli/images/PICTURE_285.png,ADVICE,5eb45f0df625d52a7ebdf0ea,21/04/2000,2020-08-13_12h48.28.945,proactive2,2020.1.2,Win32,60,5f341be081b9052c55068110,5f352849c3f0bb06f4edbccf,2,,,,,,carrot,,,,,,0,37,37,12,1,2,0,,,,,,,,,,,,,,,,,,,,,,,,,,,,,,,,,,,,,,,,,,,,,,,,,,,,,,,,,,,,,,,,,,,,,,,,,,,,,,,,,,,,,,,,,,,,,,,,,,,
,,,,,,,,,,stimuli/images/PICTURE_308.png,ESTATE,5eb45f0df625d52a7ebdf0ea,21/04/2000,2020-08-13_12h48.28.945,proactive2,2020.1.2,Win32,60,5f341be081b9052c55068110,5f352849c3f0bb06f4edbccf,2,,,,,,dice,,,,,,0,38,38,46,1,5,0,,,,,,,,,,,,,,,,,,,,,,,,,,,,,,,,,,,,,,,,,,,,,,,,,,,,,,,,,,,,,,,,,,,,,,,,,,,,,,,,,,,,,,,,,,,,,,,,,,,
,,,,,,,,,,stimuli/images/PICTURE_339.png,PLENTY,5eb45f0df625d52a7ebdf0ea,21/04/2000,2020-08-13_12h48.28.945,proactive2,2020.1.2,Win32,60,5f341be081b9052c55068110,5f352849c3f0bb06f4edbccf,2,,,,,,backpack,,,,,,0,39,39,0,1,1,0,,,,,,,,,,,,,,,,,,,,,,,,,,,,,,,,,,,,,,,,,,,,,,,,,,,,,,,,,,,,,,,,,,,,,,,,,,,,,,,,,,,,,,,,,,,,,,,,,,,
,,,,,,,,,,stimuli/images/PICTURE_95.png,STYLE,5eb45f0df625d52a7ebdf0ea,21/04/2000,2020-08-13_12h48.28.945,proactive2,2020.1.2,Win32,60,5f341be081b9052c55068110,5f352849c3f0bb06f4edbccf,2,,,,,,suitcase,,,,,,0,40,40,25,1,3,0,,,,,,,,,,,,,,,,,,,,,,,,,,,,,,,,,,,,,,,,,,,,,,,,,,,,,,,,,,,,,,,,,,,,,,,,,,,,,,,,,,,,,,,,,,,,,,,,,,,
,,,,,,,,,,stimuli/images/PICTURE_469.png,ARTIST,5eb45f0df625d52a7ebdf0ea,21/04/2000,2020-08-13_12h48.28.945,proactive2,2020.1.2,Win32,60,5f341be081b9052c55068110,5f352849c3f0bb06f4edbccf,2,,,,,,stool,,,,,,0,41,41,6,1,1,0,,,,,,,,,,,,,,,,,,,,,,,,,,,,,,,,,,,,,,,,,,,,,,,,,,,,,,,,,,,,,,,,,,,,,,,,,,,,,,,,,,,,,,,,,,,,,,,,,,,
,,,,,,,,,,stimuli/images/PICTURE_248.png,DOZEN,5eb45f0df625d52a7ebdf0ea,21/04/2000,2020-08-13_12h48.28.945,proactive2,2020.1.2,Win32,60,5f341be081b9052c55068110,5f352849c3f0bb06f4edbccf,2,,,,,,cart,,,,,,0,42,42,39,1,4,0,,,,,,,,,,,,,,,,,,,,,,,,,,,,,,,,,,,,,,,,,,,,,,,,,,,,,,,,,,,,,,,,,,,,,,,,,,,,,,,,,,,,,,,,,,,,,,,,,,,
,,,,,,,,,,stimuli/images/PICTURE_708.png,PENNY,5eb45f0df625d52a7ebdf0ea,21/04/2000,2020-08-13_12h48.28.945,proactive2,2020.1.2,Win32,60,5f341be081b9052c55068110,5f352849c3f0bb06f4edbccf,2,,,,,,monkey,,,,,,0,43,43,31,1,4,0,,,,,,,,,,,,,,,,,,,,,,,,,,,,,,,,,,,,,,,,,,,,,,,,,,,,,,,,,,,,,,,,,,,,,,,,,,,,,,,,,,,,,,,,,,,,,,,,,,,
,,,,,,,,,,stimuli/images/PICTURE_488.png,STYLE,5eb45f0df625d52a7ebdf0ea,21/04/2000,2020-08-13_12h48.28.945,proactive2,2020.1.2,Win32,60,5f341be081b9052c55068110,5f352849c3f0bb06f4edbccf,2,,,,,,sun,,,,,,0,44,44,33,1,4,0,,,,,,,,,,,,,,,,,,,,,,,,,,,,,,,,,,,,,,,,,,,,,,,,,,,,,,,,,,,,,,,,,,,,,,,,,,,,,,,,,,,,,,,,,,,,,,,,,,,
,,,,,,,,,,stimuli/images/PICTURE_208.png,LOTS,5eb45f0df625d52a7ebdf0ea,21/04/2000,2020-08-13_12h48.28.945,proactive2,2020.1.2,Win32,60,5f341be081b9052c55068110,5f352849c3f0bb06f4edbccf,2,,,,,,microphone,,,,,,0,45,45,10,1,2,0,,,,,,,,,,,,,,,,,,,,,,,,,,,,,,,,,,,,,,,,,,,,,,,,,,,,,,,,,,,,,,,,,,,,,,,,,,,,,,,,,,,,,,,,,,,,,,,,,,,
,,,,,,,,,,stimuli/images/PICTURE_449.png,THING,5eb45f0df625d52a7ebdf0ea,21/04/2000,2020-08-13_12h48.28.945,proactive2,2020.1.2,Win32,60,5f341be081b9052c55068110,5f352849c3f0bb06f4edbccf,2,,,,,,bench,,,,,,0,46,46,59,1,6,0,,,,,,,,,,,,,,,,,,,,,,,,,,,,,,,,,,,,,,,,,,,,,,,,,,,,,,,,,,,,,,,,,,,,,,,,,,,,,,,,,,,,,,,,,,,,,,,,,,,
,,,,,,,,,,stimuli/images/PICTURE_491.png,ROOF,5eb45f0df625d52a7ebdf0ea,21/04/2000,2020-08-13_12h48.28.945,proactive2,2020.1.2,Win32,60,5f341be081b9052c55068110,5f352849c3f0bb06f4edbccf,2,,,,,,rug,,,,,,0,47,47,24,1,3,0,,,,,,,,,,,,,,,,,,,,,,,,,,,,,,,,,,,,,,,,,,,,,,,,,,,,,,,,,,,,,,,,,,,,,,,,,,,,,,,,,,,,,,,,,,,,,,,,,,,
,,,,,,,,,,stimuli/images/PICTURE_311.png,FRIEND,5eb45f0df625d52a7ebdf0ea,21/04/2000,2020-08-13_12h48.28.945,proactive2,2020.1.2,Win32,60,5f341be081b9052c55068110,5f352849c3f0bb06f4edbccf,2,,,,,,razor,,,,,,0,48,48,34,1,4,0,,,,,,,,,,,,,,,,,,,,,,,,,,,,,,,,,,,,,,,,,,,,,,,,,,,,,,,,,,,,,,,,,,,,,,,,,,,,,,,,,,,,,,,,,,,,,,,,,,,
,,,,,,,,,,stimuli/images/PICTURE_380.png,PHOTO,5eb45f0df625d52a7ebdf0ea,21/04/2000,2020-08-13_12h48.28.945,proactive2,2020.1.2,Win32,60,5f341be081b9052c55068110,5f352849c3f0bb06f4edbccf,2,,,,,,gorilla,,,,,,0,49,49,52,1,6,0,,,,,,,,,,,,,,,,,,,,,,,,,,,,,,,,,,,,,,,,,,,,,,,,,,,,,,,,,,,,,,,,,,,,,,,,,,,,,,,,,,,,,,,,,,,,,,,,,,,
,,,,,,,,,,stimuli/images/PICTURE_147.png,MOMENT,5eb45f0df625d52a7ebdf0ea,21/04/2000,2020-08-13_12h48.28.945,proactive2,2020.1.2,Win32,60,5f341be081b9052c55068110,5f352849c3f0bb06f4edbccf,2,,,,,,hanger,,,,,,0,50,50,51,1,6,0,,,,,,,,,,,,,,,,,,,,,,,,,,,,,,,,,,,,,,,,,,,,,,,,,,,,,,,,,,,,,,,,,,,,,,,,,,,,,,,,,,,,,,,,,,,,,,,,,,,
