consent_key.keys,consent_key.rt,recalled,recalled_rt,recall_acc,example_recall.thisRepN,example_recall.thisTrialN,example_recall.thisN,example_recall.thisIndex,example_recall.ran,file,word,participant,please enter your date of birth (dd/mm/yyyy),date,expName,psychopyVersion,OS,frameRate,STUDY_ID,SESSION_ID,list,prac_learn_study_loop.thisRepN,prac_learn_study_loop.thisTrialN,prac_learn_study_loop.thisN,prac_learn_study_loop.thisIndex,prac_learn_study_loop.ran,image,prac_learn_test_loop.thisRepN,prac_learn_test_loop.thisTrialN,prac_learn_test_loop.thisN,prac_learn_test_loop.thisIndex,prac_learn_test_loop.ran,learn_study_loop.thisRepN,learn_study_loop.thisTrialN,learn_study_loop.thisN,learn_study_loop.thisIndex,learn_study_loop.ran,list_no,block_no,learn_test_loop.thisRepN,learn_test_loop.thisTrialN,learn_test_loop.thisN,learn_test_loop.thisIndex,learn_test_loop.ran,learn_blocks.thisRepN,learn_blocks.thisTrialN,learn_blocks.thisN,learn_blocks.thisIndex,learn_blocks.ran,block_csv,key_resp_13.keys,key_resp_13.rt,learn_blocks_loop.thisRepN,learn_blocks_loop.thisTrialN,learn_blocks_loop.thisN,learn_blocks_loop.thisIndex,learn_blocks_loop.ran,final_learn_test.thisRepN,final_learn_test.thisTrialN,final_learn_test.thisN,final_learn_test.thisIndex,final_learn_test.ran,s_im1,s_im2,s_im3,s_im4,s_im5,s_im6,s_im7,s_im8,s_im1pos,s_im2pos,s_im3pos,s_im4pos,s_im5pos,s_im6pos,s_im7pos,s_im8pos,s_tarright,search_resp.keys,search_loop.thisRepN,search_loop.thisTrialN,search_loop.thisN,search_loop.thisIndex,search_loop.ran,search_resp.rt,prac_wm_test_loop.thisRepN,prac_wm_test_loop.thisTrialN,prac_wm_test_loop.thisN,prac_wm_test_loop.thisIndex,prac_wm_test_loop.ran,wm_recalled1,wm_recall_rt1,wm_probed1,wm_recall_acc1,wm_recalled2,wm_recall_rt2,wm_probed2,wm_recall_acc2,wm_recalled3,wm_recall_rt3,wm_probed3,wm_recall_acc3,wm_recalled4,wm_recall_rt4,wm_probed4,wm_recall_acc4,prac_wm_trial_loop.thisRepN,prac_wm_trial_loop.thisTrialN,prac_wm_trial_loop.thisN,prac_wm_trial_loop.thisIndex,prac_wm_trial_loop.ran,word1,image1,file1,item_type1,word2,image2,file2,item_type2,word4,image4,file4,item_type4,word3,image3,file3,item_type3,wm_test_loop.thisRepN,wm_test_loop.thisTrialN,wm_test_loop.thisN,wm_test_loop.thisIndex,wm_test_loop.ran,wm_trial_loop.thisRepN,wm_trial_loop.thisTrialN,wm_trial_loop.thisN,wm_trial_loop.thisIndex,wm_trial_loop.ran
y,109.042,?,6.225,0,0,0,0,0,1,stimuli/images/PICTURE_747.png,TOUGH,5eb44fb0caffba299096cc38,27/10/1993,2020-08-13_12h47.51.675,proactive2,2020.1.2,MacIntel,60,5f341be081b9052c55068110,5f3528429acb9b07781c94d3,4,,,,,,,,,,,,,,,,,,,,,,,,,,,,,,,,,,,,,,,,,,,,,,,,,,,,,,,,,,,,,,,,,,,,,,,,,,,,,,,,,,,,,,,,,,,,,,,,,,,,,,,,,,,,,,,,,,,,,
,,,,,,,,,,stimuli/images/PICTURE_658.png,DEVIL,5eb44fb0caffba299096cc38,27/10/1993,2020-08-13_12h47.51.675,proactive2,2020.1.2,MacIntel,60,5f341be081b9052c55068110,5f3528429acb9b07781c94d3,4,0,0,0,3,1,crow,,,,,,,,,,,,,,,,,,,,,,,,,,,,,,,,,,,,,,,,,,,,,,,,,,,,,,,,,,,,,,,,,,,,,,,,,,,,,,,,,,,,,,,,,,,,,,,,,,,,,,,,,,,,,,,
,,,,,,,,,,stimuli/images/PICTURE_269.png,GENIUS,5eb44fb0caffba299096cc38,27/10/1993,2020-08-13_12h47.51.675,proactive2,2020.1.2,MacIntel,60,5f341be081b9052c55068110,5f3528429acb9b07781c94d3,4,0,1,1,0,1,chameleon,,,,,,,,,,,,,,,,,,,,,,,,,,,,,,,,,,,,,,,,,,,,,,,,,,,,,,,,,,,,,,,,,,,,,,,,,,,,,,,,,,,,,,,,,,,,,,,,,,,,,,,,,,,,,,,
,,,,,,,,,,stimuli/images/PICTURE_727.png,CELL,5eb44fb0caffba299096cc38,27/10/1993,2020-08-13_12h47.51.675,proactive2,2020.1.2,MacIntel,60,5f341be081b9052c55068110,5f3528429acb9b07781c94d3,4,0,2,2,1,1,hose,,,,,,,,,,,,,,,,,,,,,,,,,,,,,,,,,,,,,,,,,,,,,,,,,,,,,,,,,,,,,,,,,,,,,,,,,,,,,,,,,,,,,,,,,,,,,,,,,,,,,,,,,,,,,,,
,,,,,,,,,,stimuli/images/PICTURE_697.png,KILLER,5eb44fb0caffba299096cc38,27/10/1993,2020-08-13_12h47.51.675,proactive2,2020.1.2,MacIntel,60,5f341be081b9052c55068110,5f3528429acb9b07781c94d3,4,0,3,3,4,1,peach,,,,,,,,,,,,,,,,,,,,,,,,,,,,,,,,,,,,,,,,,,,,,,,,,,,,,,,,,,,,,,,,,,,,,,,,,,,,,,,,,,,,,,,,,,,,,,,,,,,,,,,,,,,,,,,
,,PASS,5.399,0,,,,,,stimuli/images/PICTURE_658.png,DEVIL,5eb44fb0caffba299096cc38,27/10/1993,2020-08-13_12h47.51.675,proactive2,2020.1.2,MacIntel,60,5f341be081b9052c55068110,5f3528429acb9b07781c94d3,4,,,,,,crow,0,0,0,3,1,,,,,,,,,,,,,,,,,,,,,,,,,,,,,,,,,,,,,,,,,,,,,,,,,,,,,,,,,,,,,,,,,,,,,,,,,,,,,,,,,,,,,,,,,,,,,,,,,,,,,,,,,,
,,KILLER,4.765,1,,,,,,stimuli/images/PICTURE_697.png,KILLER,5eb44fb0caffba299096cc38,27/10/1993,2020-08-13_12h47.51.675,proactive2,2020.1.2,MacIntel,60,5f341be081b9052c55068110,5f3528429acb9b07781c94d3,4,,,,,,peach,0,1,1,4,1,,,,,,,,,,,,,,,,,,,,,,,,,,,,,,,,,,,,,,,,,,,,,,,,,,,,,,,,,,,,,,,,,,,,,,,,,,,,,,,,,,,,,,,,,,,,,,,,,,,,,,,,,,
,,PASS,10.268,0,,,,,,stimuli/images/PICTURE_378.png,LOSS,5eb44fb0caffba299096cc38,27/10/1993,2020-08-13_12h47.51.675,proactive2,2020.1.2,MacIntel,60,5f341be081b9052c55068110,5f3528429acb9b07781c94d3,4,,,,,,lobster,0,2,2,2,1,,,,,,,,,,,,,,,,,,,,,,,,,,,,,,,,,,,,,,,,,,,,,,,,,,,,,,,,,,,,,,,,,,,,,,,,,,,,,,,,,,,,,,,,,,,,,,,,,,,,,,,,,,
,,PASS,9.299,0,,,,,,stimuli/images/PICTURE_269.png,GENIUS,5eb44fb0caffba299096cc38,27/10/1993,2020-08-13_12h47.51.675,proactive2,2020.1.2,MacIntel,60,5f341be081b9052c55068110,5f3528429acb9b07781c94d3,4,,,,,,chameleon,0,3,3,0,1,,,,,,,,,,,,,,,,,,,,,,,,,,,,,,,,,,,,,,,,,,,,,,,,,,,,,,,,,,,,,,,,,,,,,,,,,,,,,,,,,,,,,,,,,,,,,,,,,,,,,,,,,,
,,PASS,6.215,0,,,,,,stimuli/images/PICTURE_727.png,CELL,5eb44fb0caffba299096cc38,27/10/1993,2020-08-13_12h47.51.675,proactive2,2020.1.2,MacIntel,60,5f341be081b9052c55068110,5f3528429acb9b07781c94d3,4,,,,,,hose,0,4,4,1,1,,,,,,,,,,,,,,,,,,,,,,,,,,,,,,,,,,,,,,,,,,,,,,,,,,,,,,,,,,,,,,,,,,,,,,,,,,,,,,,,,,,,,,,,,,,,,,,,,,,,,,,,,,
,,,,,,,,,,stimuli/images/PICTURE_311.png,BEAUTY,5eb44fb0caffba299096cc38,27/10/1993,2020-08-13_12h47.51.675,proactive2,2020.1.2,MacIntel,60,5f341be081b9052c55068110,5f3528429acb9b07781c94d3,4,,,,,,razor,,,,,,0,0,0,13,1,2,0,,,,,,,,,,,,,,,,,,,,,,,,,,,,,,,,,,,,,,,,,,,,,,,,,,,,,,,,,,,,,,,,,,,,,,,,,,,,,,,,,,,,,,,,,,,,,,,,,,,
,,,,,,,,,,stimuli/images/PICTURE_453.png,PLENTY,5eb44fb0caffba299096cc38,27/10/1993,2020-08-13_12h47.51.675,proactive2,2020.1.2,MacIntel,60,5f341be081b9052c55068110,5f3528429acb9b07781c94d3,4,,,,,,scissors,,,,,,0,1,1,56,1,6,0,,,,,,,,,,,,,,,,,,,,,,,,,,,,,,,,,,,,,,,,,,,,,,,,,,,,,,,,,,,,,,,,,,,,,,,,,,,,,,,,,,,,,,,,,,,,,,,,,,,
,,,,,,,,,,stimuli/images/PICTURE_688.png,CASINO,5eb44fb0caffba299096cc38,27/10/1993,2020-08-13_12h47.51.675,proactive2,2020.1.2,MacIntel,60,5f341be081b9052c55068110,5f3528429acb9b07781c94d3,4,,,,,,runner,,,,,,0,2,2,2,1,1,0,,,,,,,,,,,,,,,,,,,,,,,,,,,,,,,,,,,,,,,,,,,,,,,,,,,,,,,,,,,,,,,,,,,,,,,,,,,,,,,,,,,,,,,,,,,,,,,,,,,
,,,,,,,,,,stimuli/images/PICTURE_470.png,CASINO,5eb44fb0caffba299096cc38,27/10/1993,2020-08-13_12h47.51.675,proactive2,2020.1.2,MacIntel,60,5f341be081b9052c55068110,5f3528429acb9b07781c94d3,4,,,,,,motorbike,,,,,,0,3,3,36,1,4,0,,,,,,,,,,,,,,,,,,,,,,,,,,,,,,,,,,,,,,,,,,,,,,,,,,,,,,,,,,,,,,,,,,,,,,,,,,,,,,,,,,,,,,,,,,,,,,,,,,,
,,,,,,,,,,stimuli/images/PICTURE_467.png,DEMON,5eb44fb0caffba299096cc38,27/10/1993,2020-08-13_12h47.51.675,proactive2,2020.1.2,MacIntel,60,5f341be081b9052c55068110,5f3528429acb9b07781c94d3,4,,,,,,peg,,,,,,0,4,4,23,1,3,0,,,,,,,,,,,,,,,,,,,,,,,,,,,,,,,,,,,,,,,,,,,,,,,,,,,,,,,,,,,,,,,,,,,,,,,,,,,,,,,,,,,,,,,,,,,,,,,,,,,
,,,,,,,,,,stimuli/images/PICTURE_469.png,LETTER,5eb44fb0caffba299096cc38,27/10/1993,2020-08-13_12h47.51.675,proactive2,2020.1.2,MacIntel,60,5f341be081b9052c55068110,5f3528429acb9b07781c94d3,4,,,,,,stool,,,,,,0,5,5,42,1,5,0,,,,,,,,,,,,,,,,,,,,,,,,,,,,,,,,,,,,,,,,,,,,,,,,,,,,,,,,,,,,,,,,,,,,,,,,,,,,,,,,,,,,,,,,,,,,,,,,,,,
,,,,,,,,,,stimuli/images/PICTURE_314.png,GODS,5eb44fb0caffba299096cc38,27/10/1993,2020-08-13_12h47.51.675,proactive2,2020.1.2,MacIntel,60,5f341be081b9052c55068110,5f3528429acb9b07781c94d3,4,,,,,,perfume,,,,,,0,6,6,11,1,2,0,,,,,,,,,,,,,,,,,,,,,,,,,,,,,,,,,,,,,,,,,,,,,,,,,,,,,,,,,,,,,,,,,,,,,,,,,,,,,,,,,,,,,,,,,,,,,,,,,,,
,,,,,,,,,,stimuli/images/PICTURE_380.png,DEATH,5eb44fb0caffba299096cc38,27/10/1993,2020-08-13_12h47.51.675,proactive2,2020.1.2,MacIntel,60,5f341be081b9052c55068110,5f3528429acb9b07781c94d3,4,,,,,,gorilla,,,,,,0,7,7,49,1,5,0,,,,,,,,,,,,,,,,,,,,,,,,,,,,,,,,,,,,,,,,,,,,,,,,,,,,,,,,,,,,,,,,,,,,,,,,,,,,,,,,,,,,,,,,,,,,,,,,,,,
,,,,,,,,,,stimuli/images/PICTURE_488.png,STYLE,5eb44fb0caffba299096cc38,27/10/1993,2020-08-13_12h47.51.675,proactive2,2020.1.2,MacIntel,60,5f341be081b9052c55068110,5f3528429acb9b07781c94d3,4,,,,,,sun,,,,,,0,8,8,33,1,4,0,,,,,,,,,,,,,,,,,,,,,,,,,,,,,,,,,,,,,,,,,,,,,,,,,,,,,,,,,,,,,,,,,,,,,,,,,,,,,,,,,,,,,,,,,,,,,,,,,,,
,,,,,,,,,,stimuli/images/PICTURE_327.png,BEAUTY,5eb44fb0caffba299096cc38,27/10/1993,2020-08-13_12h47.51.675,proactive2,2020.1.2,MacIntel,60,5f341be081b9052c55068110,5f3528429acb9b07781c94d3,4,,,,,,helmet,,,,,,0,9,9,48,1,5,0,,,,,,,,,,,,,,,,,,,,,,,,,,,,,,,,,,,,,,,,,,,,,,,,,,,,,,,,,,,,,,,,,,,,,,,,,,,,,,,,,,,,,,,,,,,,,,,,,,,
,,,,,,,,,,stimuli/images/PICTURE_453.png,DUDE,5eb44fb0caffba299096cc38,27/10/1993,2020-08-13_12h47.51.675,proactive2,2020.1.2,MacIntel,60,5f341be081b9052c55068110,5f3528429acb9b07781c94d3,4,,,,,,scissors,,,,,,0,10,10,27,1,3,0,,,,,,,,,,,,,,,,,,,,,,,,,,,,,,,,,,,,,,,,,,,,,,,,,,,,,,,,,,,,,,,,,,,,,,,,,,,,,,,,,,,,,,,,,,,,,,,,,,,
,,,,,,,,,,stimuli/images/PICTURE_160.png,FEET,5eb44fb0caffba299096cc38,27/10/1993,2020-08-13_12h47.51.675,proactive2,2020.1.2,MacIntel,60,5f341be081b9052c55068110,5f3528429acb9b07781c94d3,4,,,,,,wheelbarrow,,,,,,0,11,11,58,1,6,0,,,,,,,,,,,,,,,,,,,,,,,,,,,,,,,,,,,,,,,,,,,,,,,,,,,,,,,,,,,,,,,,,,,,,,,,,,,,,,,,,,,,,,,,,,,,,,,,,,,
,,,,,,,,,,stimuli/images/PICTURE_68.png,MILE,5eb44fb0caffba299096cc38,27/10/1993,2020-08-13_12h47.51.675,proactive2,2020.1.2,MacIntel,60,5f341be081b9052c55068110,5f3528429acb9b07781c94d3,4,,,,,,candle,,,,,,0,12,12,44,1,5,0,,,,,,,,,,,,,,,,,,,,,,,,,,,,,,,,,,,,,,,,,,,,,,,,,,,,,,,,,,,,,,,,,,,,,,,,,,,,,,,,,,,,,,,,,,,,,,,,,,,
,,,,,,,,,,stimuli/images/PICTURE_302.png,FAMILY,5eb44fb0caffba299096cc38,27/10/1993,2020-08-13_12h47.51.675,proactive2,2020.1.2,MacIntel,60,5f341be081b9052c55068110,5f3528429acb9b07781c94d3,4,,,,,,taxi,,,,,,0,13,13,18,1,2,0,,,,,,,,,,,,,,,,,,,,,,,,,,,,,,,,,,,,,,,,,,,,,,,,,,,,,,,,,,,,,,,,,,,,,,,,,,,,,,,,,,,,,,,,,,,,,,,,,,,
,,,,,,,,,,stimuli/images/PICTURE_708.png,YARD,5eb44fb0caffba299096cc38,27/10/1993,2020-08-13_12h47.51.675,proactive2,2020.1.2,MacIntel,60,5f341be081b9052c55068110,5f3528429acb9b07781c94d3,4,,,,,,monkey,,,,,,0,14,14,29,1,3,0,,,,,,,,,,,,,,,,,,,,,,,,,,,,,,,,,,,,,,,,,,,,,,,,,,,,,,,,,,,,,,,,,,,,,,,,,,,,,,,,,,,,,,,,,,,,,,,,,,,
,,,,,,,,,,stimuli/images/PICTURE_95.png,STYLE,5eb44fb0caffba299096cc38,27/10/1993,2020-08-13_12h47.51.675,proactive2,2020.1.2,MacIntel,60,5f341be081b9052c55068110,5f3528429acb9b07781c94d3,4,,,,,,suitcase,,,,,,0,15,15,25,1,3,0,,,,,,,,,,,,,,,,,,,,,,,,,,,,,,,,,,,,,,,,,,,,,,,,,,,,,,,,,,,,,,,,,,,,,,,,,,,,,,,,,,,,,,,,,,,,,,,,,,,
,,,,,,,,,,stimuli/images/PICTURE_708.png,PENNY,5eb44fb0caffba299096cc38,27/10/1993,2020-08-13_12h47.51.675,proactive2,2020.1.2,MacIntel,60,5f341be081b9052c55068110,5f3528429acb9b07781c94d3,4,,,,,,monkey,,,,,,0,16,16,31,1,4,0,,,,,,,,,,,,,,,,,,,,,,,,,,,,,,,,,,,,,,,,,,,,,,,,,,,,,,,,,,,,,,,,,,,,,,,,,,,,,,,,,,,,,,,,,,,,,,,,,,,
,,,,,,,,,,stimuli/images/PICTURE_667.png,PLENTY,5eb44fb0caffba299096cc38,27/10/1993,2020-08-13_12h47.51.675,proactive2,2020.1.2,MacIntel,60,5f341be081b9052c55068110,5f3528429acb9b07781c94d3,4,,,,,,daisy,,,,,,0,17,17,41,1,5,0,,,,,,,,,,,,,,,,,,,,,,,,,,,,,,,,,,,,,,,,,,,,,,,,,,,,,,,,,,,,,,,,,,,,,,,,,,,,,,,,,,,,,,,,,,,,,,,,,,,
,,,,,,,,,,stimuli/images/PICTURE_491.png,ROOF,5eb44fb0caffba299096cc38,27/10/1993,2020-08-13_12h47.51.675,proactive2,2020.1.2,MacIntel,60,5f341be081b9052c55068110,5f3528429acb9b07781c94d3,4,,,,,,rug,,,,,,0,18,18,24,1,3,0,,,,,,,,,,,,,,,,,,,,,,,,,,,,,,,,,,,,,,,,,,,,,,,,,,,,,,,,,,,,,,,,,,,,,,,,,,,,,,,,,,,,,,,,,,,,,,,,,,,
,,,,,,,,,,stimuli/images/PICTURE_339.png,PLENTY,5eb44fb0caffba299096cc38,27/10/1993,2020-08-13_12h47.51.675,proactive2,2020.1.2,MacIntel,60,5f341be081b9052c55068110,5f3528429acb9b07781c94d3,4,,,,,,backpack,,,,,,0,19,19,0,1,1,0,,,,,,,,,,,,,,,,,,,,,,,,,,,,,,,,,,,,,,,,,,,,,,,,,,,,,,,,,,,,,,,,,,,,,,,,,,,,,,,,,,,,,,,,,,,,,,,,,,,
,,,,,,,,,,stimuli/images/PICTURE_491.png,WRITER,5eb44fb0caffba299096cc38,27/10/1993,2020-08-13_12h47.51.675,proactive2,2020.1.2,MacIntel,60,5f341be081b9052c55068110,5f3528429acb9b07781c94d3,4,,,,,,rug,,,,,,0,20,20,57,1,6,0,,,,,,,,,,,,,,,,,,,,,,,,,,,,,,,,,,,,,,,,,,,,,,,,,,,,,,,,,,,,,,,,,,,,,,,,,,,,,,,,,,,,,,,,,,,,,,,,,,,
,,,,,,,,,,stimuli/images/PICTURE_151.png,GIRL,5eb44fb0caffba299096cc38,27/10/1993,2020-08-13_12h47.51.675,proactive2,2020.1.2,MacIntel,60,5f341be081b9052c55068110,5f3528429acb9b07781c94d3,4,,,,,,tray,,,,,,0,21,21,19,1,2,0,,,,,,,,,,,,,,,,,,,,,,,,,,,,,,,,,,,,,,,,,,,,,,,,,,,,,,,,,,,,,,,,,,,,,,,,,,,,,,,,,,,,,,,,,,,,,,,,,,,
,,,,,,,,,,stimuli/images/PICTURE_308.png,ESTATE,5eb44fb0caffba299096cc38,27/10/1993,2020-08-13_12h47.51.675,proactive2,2020.1.2,MacIntel,60,5f341be081b9052c55068110,5f3528429acb9b07781c94d3,4,,,,,,dice,,,,,,0,22,22,46,1,5,0,,,,,,,,,,,,,,,,,,,,,,,,,,,,,,,,,,,,,,,,,,,,,,,,,,,,,,,,,,,,,,,,,,,,,,,,,,,,,,,,,,,,,,,,,,,,,,,,,,,
,,,,,,,,,,stimuli/images/PICTURE_314.png,SAKE,5eb44fb0caffba299096cc38,27/10/1993,2020-08-13_12h47.51.675,proactive2,2020.1.2,MacIntel,60,5f341be081b9052c55068110,5f3528429acb9b07781c94d3,4,,,,,,perfume,,,,,,0,23,23,7,1,1,0,,,,,,,,,,,,,,,,,,,,,,,,,,,,,,,,,,,,,,,,,,,,,,,,,,,,,,,,,,,,,,,,,,,,,,,,,,,,,,,,,,,,,,,,,,,,,,,,,,,
,,,,,,,,,,stimuli/images/PICTURE_248.png,DOZEN,5eb44fb0caffba299096cc38,27/10/1993,2020-08-13_12h47.51.675,proactive2,2020.1.2,MacIntel,60,5f341be081b9052c55068110,5f3528429acb9b07781c94d3,4,,,,,,cart,,,,,,0,24,24,39,1,4,0,,,,,,,,,,,,,,,,,,,,,,,,,,,,,,,,,,,,,,,,,,,,,,,,,,,,,,,,,,,,,,,,,,,,,,,,,,,,,,,,,,,,,,,,,,,,,,,,,,,
,,,,,,,,,,stimuli/images/PICTURE_32.png,JUNGLE,5eb44fb0caffba299096cc38,27/10/1993,2020-08-13_12h47.51.675,proactive2,2020.1.2,MacIntel,60,5f341be081b9052c55068110,5f3528429acb9b07781c94d3,4,,,,,,crown,,,,,,0,25,25,45,1,5,0,,,,,,,,,,,,,,,,,,,,,,,,,,,,,,,,,,,,,,,,,,,,,,,,,,,,,,,,,,,,,,,,,,,,,,,,,,,,,,,,,,,,,,,,,,,,,,,,,,,
,,,,,,,,,,stimuli/images/PICTURE_85.png,THING,5eb44fb0caffba299096cc38,27/10/1993,2020-08-13_12h47.51.675,proactive2,2020.1.2,MacIntel,60,5f341be081b9052c55068110,5f3528429acb9b07781c94d3,4,,,,,,diamond,,,,,,0,26,26,15,1,2,0,,,,,,,,,,,,,,,,,,,,,,,,,,,,,,,,,,,,,,,,,,,,,,,,,,,,,,,,,,,,,,,,,,,,,,,,,,,,,,,,,,,,,,,,,,,,,,,,,,,
,,,,,,,,,,stimuli/images/PICTURE_677.png,MILE,5eb44fb0caffba299096cc38,27/10/1993,2020-08-13_12h47.51.675,proactive2,2020.1.2,MacIntel,60,5f341be081b9052c55068110,5f3528429acb9b07781c94d3,4,,,,,,map,,,,,,0,27,27,30,1,4,0,,,,,,,,,,,,,,,,,,,,,,,,,,,,,,,,,,,,,,,,,,,,,,,,,,,,,,,,,,,,,,,,,,,,,,,,,,,,,,,,,,,,,,,,,,,,,,,,,,,
,,,,,,,,,,stimuli/images/PICTURE_255.png,AREA,5eb44fb0caffba299096cc38,27/10/1993,2020-08-13_12h47.51.675,proactive2,2020.1.2,MacIntel,60,5f341be081b9052c55068110,5f3528429acb9b07781c94d3,4,,,,,,shovel,,,,,,0,28,28,22,1,3,0,,,,,,,,,,,,,,,,,,,,,,,,,,,,,,,,,,,,,,,,,,,,,,,,,,,,,,,,,,,,,,,,,,,,,,,,,,,,,,,,,,,,,,,,,,,,,,,,,,,
,,,,,,,,,,stimuli/images/PICTURE_285.png,ADVICE,5eb44fb0caffba299096cc38,27/10/1993,2020-08-13_12h47.51.675,proactive2,2020.1.2,MacIntel,60,5f341be081b9052c55068110,5f3528429acb9b07781c94d3,4,,,,,,carrot,,,,,,0,29,29,12,1,2,0,,,,,,,,,,,,,,,,,,,,,,,,,,,,,,,,,,,,,,,,,,,,,,,,,,,,,,,,,,,,,,,,,,,,,,,,,,,,,,,,,,,,,,,,,,,,,,,,,,,
,,,,,,,,,,stimuli/images/PICTURE_509.png,PHOTO,5eb44fb0caffba299096cc38,27/10/1993,2020-08-13_12h47.51.675,proactive2,2020.1.2,MacIntel,60,5f341be081b9052c55068110,5f3528429acb9b07781c94d3,4,,,,,,telephone,,,,,,0,30,30,21,1,3,0,,,,,,,,,,,,,,,,,,,,,,,,,,,,,,,,,,,,,,,,,,,,,,,,,,,,,,,,,,,,,,,,,,,,,,,,,,,,,,,,,,,,,,,,,,,,,,,,,,,
,,,,,,,,,,stimuli/images/PICTURE_692.png,MONTH,5eb44fb0caffba299096cc38,27/10/1993,2020-08-13_12h47.51.675,proactive2,2020.1.2,MacIntel,60,5f341be081b9052c55068110,5f3528429acb9b07781c94d3,4,,,,,,cherry,,,,,,0,31,31,16,1,2,0,,,,,,,,,,,,,,,,,,,,,,,,,,,,,,,,,,,,,,,,,,,,,,,,,,,,,,,,,,,,,,,,,,,,,,,,,,,,,,,,,,,,,,,,,,,,,,,,,,,
,,,,,,,,,,stimuli/images/PICTURE_708.png,CLIENT,5eb44fb0caffba299096cc38,27/10/1993,2020-08-13_12h47.51.675,proactive2,2020.1.2,MacIntel,60,5f341be081b9052c55068110,5f3528429acb9b07781c94d3,4,,,,,,monkey,,,,,,0,32,32,5,1,1,0,,,,,,,,,,,,,,,,,,,,,,,,,,,,,,,,,,,,,,,,,,,,,,,,,,,,,,,,,,,,,,,,,,,,,,,,,,,,,,,,,,,,,,,,,,,,,,,,,,,
,,,,,,,,,,stimuli/images/PICTURE_487.png,FLIGHT,5eb44fb0caffba299096cc38,27/10/1993,2020-08-13_12h47.51.675,proactive2,2020.1.2,MacIntel,60,5f341be081b9052c55068110,5f3528429acb9b07781c94d3,4,,,,,,basket,,,,,,0,33,33,9,1,1,0,,,,,,,,,,,,,,,,,,,,,,,,,,,,,,,,,,,,,,,,,,,,,,,,,,,,,,,,,,,,,,,,,,,,,,,,,,,,,,,,,,,,,,,,,,,,,,,,,,,
,,,,,,,,,,stimuli/images/PICTURE_203.png,ARTIST,5eb44fb0caffba299096cc38,27/10/1993,2020-08-13_12h47.51.675,proactive2,2020.1.2,MacIntel,60,5f341be081b9052c55068110,5f3528429acb9b07781c94d3,4,,,,,,cap,,,,,,0,34,34,26,1,3,0,,,,,,,,,,,,,,,,,,,,,,,,,,,,,,,,,,,,,,,,,,,,,,,,,,,,,,,,,,,,,,,,,,,,,,,,,,,,,,,,,,,,,,,,,,,,,,,,,,,
,,,,,,,,,,stimuli/images/PICTURE_504.png,BODY,5eb44fb0caffba299096cc38,27/10/1993,2020-08-13_12h47.51.675,proactive2,2020.1.2,MacIntel,60,5f341be081b9052c55068110,5f3528429acb9b07781c94d3,4,,,,,,wheel,,,,,,0,35,35,8,1,1,0,,,,,,,,,,,,,,,,,,,,,,,,,,,,,,,,,,,,,,,,,,,,,,,,,,,,,,,,,,,,,,,,,,,,,,,,,,,,,,,,,,,,,,,,,,,,,,,,,,,
,,,,,,,,,,stimuli/images/PICTURE_208.png,LOTS,5eb44fb0caffba299096cc38,27/10/1993,2020-08-13_12h47.51.675,proactive2,2020.1.2,MacIntel,60,5f341be081b9052c55068110,5f3528429acb9b07781c94d3,4,,,,,,microphone,,,,,,0,36,36,10,1,2,0,,,,,,,,,,,,,,,,,,,,,,,,,,,,,,,,,,,,,,,,,,,,,,,,,,,,,,,,,,,,,,,,,,,,,,,,,,,,,,,,,,,,,,,,,,,,,,,,,,,
,,,,,,,,,,stimuli/images/PICTURE_123.png,ADVICE,5eb44fb0caffba299096cc38,27/10/1993,2020-08-13_12h47.51.675,proactive2,2020.1.2,MacIntel,60,5f341be081b9052c55068110,5f3528429acb9b07781c94d3,4,,,,,,dart,,,,,,0,37,37,40,1,5,0,,,,,,,,,,,,,,,,,,,,,,,,,,,,,,,,,,,,,,,,,,,,,,,,,,,,,,,,,,,,,,,,,,,,,,,,,,,,,,,,,,,,,,,,,,,,,,,,,,,
,,,,,,,,,,stimuli/images/PICTURE_208.png,MONTH,5eb44fb0caffba299096cc38,27/10/1993,2020-08-13_12h47.51.675,proactive2,2020.1.2,MacIntel,60,5f341be081b9052c55068110,5f3528429acb9b07781c94d3,4,,,,,,microphone,,,,,,0,38,38,53,1,6,0,,,,,,,,,,,,,,,,,,,,,,,,,,,,,,,,,,,,,,,,,,,,,,,,,,,,,,,,,,,,,,,,,,,,,,,,,,,,,,,,,,,,,,,,,,,,,,,,,,,
,,,,,,,,,,stimuli/images/PICTURE_667.png,BATH,5eb44fb0caffba299096cc38,27/10/1993,2020-08-13_12h47.51.675,proactive2,2020.1.2,MacIntel,60,5f341be081b9052c55068110,5f3528429acb9b07781c94d3,4,,,,,,daisy,,,,,,0,39,39,4,1,1,0,,,,,,,,,,,,,,,,,,,,,,,,,,,,,,,,,,,,,,,,,,,,,,,,,,,,,,,,,,,,,,,,,,,,,,,,,,,,,,,,,,,,,,,,,,,,,,,,,,,
,,,,,,,,,,stimuli/images/PICTURE_308.png,KIND,5eb44fb0caffba299096cc38,27/10/1993,2020-08-13_12h47.51.675,proactive2,2020.1.2,MacIntel,60,5f341be081b9052c55068110,5f3528429acb9b07781c94d3,4,,,,,,dice,,,,,,0,40,40,54,1,6,0,,,,,,,,,,,,,,,,,,,,,,,,,,,,,,,,,,,,,,,,,,,,,,,,,,,,,,,,,,,,,,,,,,,,,,,,,,,,,,,,,,,,,,,,,,,,,,,,,,,
,,,,,,,,,,stimuli/images/PICTURE_744.png,SYSTEM,5eb44fb0caffba299096cc38,27/10/1993,2020-08-13_12h47.51.675,proactive2,2020.1.2,MacIntel,60,5f341be081b9052c55068110,5f3528429acb9b07781c94d3,4,,,,,,ring,,,,,,0,41,41,43,1,5,0,,,,,,,,,,,,,,,,,,,,,,,,,,,,,,,,,,,,,,,,,,,,,,,,,,,,,,,,,,,,,,,,,,,,,,,,,,,,,,,,,,,,,,,,,,,,,,,,,,,
,,,,,,,,,,stimuli/images/PICTURE_356.png,DANGER,5eb44fb0caffba299096cc38,27/10/1993,2020-08-13_12h47.51.675,proactive2,2020.1.2,MacIntel,60,5f341be081b9052c55068110,5f3528429acb9b07781c94d3,4,,,,,,pawn,,,,,,0,42,42,55,1,6,0,,,,,,,,,,,,,,,,,,,,,,,,,,,,,,,,,,,,,,,,,,,,,,,,,,,,,,,,,,,,,,,,,,,,,,,,,,,,,,,,,,,,,,,,,,,,,,,,,,,
,,,,,,,,,,stimuli/images/PICTURE_233.png,WOMEN,5eb44fb0caffba299096cc38,27/10/1993,2020-08-13_12h47.51.675,proactive2,2020.1.2,MacIntel,60,5f341be081b9052c55068110,5f3528429acb9b07781c94d3,4,,,,,,salt,,,,,,0,43,43,38,1,4,0,,,,,,,,,,,,,,,,,,,,,,,,,,,,,,,,,,,,,,,,,,,,,,,,,,,,,,,,,,,,,,,,,,,,,,,,,,,,,,,,,,,,,,,,,,,,,,,,,,,
,,,,,,,,,,stimuli/images/PICTURE_744.png,SAKE,5eb44fb0caffba299096cc38,27/10/1993,2020-08-13_12h47.51.675,proactive2,2020.1.2,MacIntel,60,5f341be081b9052c55068110,5f3528429acb9b07781c94d3,4,,,,,,ring,,,,,,0,44,44,17,1,2,0,,,,,,,,,,,,,,,,,,,,,,,,,,,,,,,,,,,,,,,,,,,,,,,,,,,,,,,,,,,,,,,,,,,,,,,,,,,,,,,,,,,,,,,,,,,,,,,,,,,
,,,,,,,,,,stimuli/images/PICTURE_147.png,MOMENT,5eb44fb0caffba299096cc38,27/10/1993,2020-08-13_12h47.51.675,proactive2,2020.1.2,MacIntel,60,5f341be081b9052c55068110,5f3528429acb9b07781c94d3,4,,,,,,hanger,,,,,,0,45,45,51,1,6,0,,,,,,,,,,,,,,,,,,,,,,,,,,,,,,,,,,,,,,,,,,,,,,,,,,,,,,,,,,,,,,,,,,,,,,,,,,,,,,,,,,,,,,,,,,,,,,,,,,,
,,,,,,,,,,stimuli/images/PICTURE_215.png,PLENTY,5eb44fb0caffba299096cc38,27/10/1993,2020-08-13_12h47.51.675,proactive2,2020.1.2,MacIntel,60,5f341be081b9052c55068110,5f3528429acb9b07781c94d3,4,,,,,,boot,,,,,,0,46,46,37,1,4,0,,,,,,,,,,,,,,,,,,,,,,,,,,,,,,,,,,,,,,,,,,,,,,,,,,,,,,,,,,,,,,,,,,,,,,,,,,,,,,,,,,,,,,,,,,,,,,,,,,,
,,,,,,,,,,stimuli/images/PICTURE_654.png,VALLEY,5eb44fb0caffba299096cc38,27/10/1993,2020-08-13_12h47.51.675,proactive2,2020.1.2,MacIntel,60,5f341be081b9052c55068110,5f3528429acb9b07781c94d3,4,,,,,,pencil,,,,,,0,47,47,1,1,1,0,,,,,,,,,,,,,,,,,,,,,,,,,,,,,,,,,,,,,,,,,,,,,,,,,,,,,,,,,,,,,,,,,,,,,,,,,,,,,,,,,,,,,,,,,,,,,,,,,,,
,,,,,,,,,,stimuli/images/PICTURE_208.png,THING,5eb44fb0caffba299096cc38,27/10/1993,2020-08-13_12h47.51.675,proactive2,2020.1.2,MacIntel,60,5f341be081b9052c55068110,5f3528429acb9b07781c94d3,4,,,,,,microphone,,,,,,0,48,48,47,1,5,0,,,,,,,,,,,,,,,,,,,,,,,,,,,,,,,,,,,,,,,,,,,,,,,,,,,,,,,,,,,,,,,,,,,,,,,,,,,,,,,,,,,,,,,,,,,,,,,,,,,
,,,,,,,,,,stimuli/images/PICTURE_177.png,CARS,5eb44fb0caffba299096cc38,27/10/1993,2020-08-13_12h47.51.675,proactive2,2020.1.2,MacIntel,60,5f341be081b9052c55068110,5f3528429acb9b07781c94d3,4,,,,,,mushroom,,,,,,0,49,49,35,1,4,0,,,,,,,,,,,,,,,,,,,,,,,,,,,,,,,,,,,,,,,,,,,,,,,,,,,,,,,,,,,,,,,,,,,,,,,,,,,,,,,,,,,,,,,,,,,,,,,,,,,
,,,,,,,,,,stimuli/images/PICTURE_675.png,WEAPON,5eb44fb0caffba299096cc38,27/10/1993,2020-08-13_12h47.51.675,proactive2,2020.1.2,MacIntel,60,5f341be081b9052c55068110,5f3528429acb9b07781c94d3,4,,,,,,windmill,,,,,,0,50,50,32,1,4,0,,,,,,,,,,,,,,,,,,,,,,,,,,,,,,,,,,,,,,,,,,,,,,,,,,,,,,,,,,,,,,,,,,,,,,,,,,,,,,,,,,,,,,,,,,,,,,,,,,,
,,,,,,,,,,stimuli/images/PICTURE_233.png,IDEAS,5eb44fb0caffba299096cc38,27/10/1993,2020-08-13_12h47.51.675,proactive2,2020.1.2,MacIntel,60,5f341be081b9052c55068110,5f3528429acb9b07781c94d3,4,,,,,,salt,,,,,,0,51,51,28,1,3,0,,,,,,,,,,,,,,,,,,,,,,,,,,,,,,,,,,,,,,,,,,,,,,,,,,,,,,,,,,,,,,,,,,,,,,,,,,,,,,,,,,,,,,,,,,,,,,,,,,,
,,,,,,,,,,stimuli/images/PICTURE_469.png,ARTIST,5eb44fb0caffba299096cc38,27/10/1993,2020-08-13_12h47.51.675,proactive2,2020.1.2,MacIntel,60,5f341be081b9052c55068110,5f3528429acb9b07781c94d3,4,,,,,,stool,,,,,,0,52,52,6,1,1,0,,,,,,,,,,,,,,,,,,,,,,,,,,,,,,,,,,,,,,,,,,,,,,,,,,,,,,,,,,,,,,,,,,,,,,,,,,,,,,,,,,,,,,,,,,,,,,,,,,,
,,,,,,,,,,stimuli/images/PICTURE_688.png,WOMEN,5eb44fb0caffba299096cc38,27/10/1993,2020-08-13_12h47.51.675,proactive2,2020.1.2,MacIntel,60,5f341be081b9052c55068110,5f3528429acb9b07781c94d3,4,,,,,,runner,,,,,,0,53,53,14,1,2,0,,,,,,,,,,,,,,,,,,,,,,,,,,,,,,,,,,,,,,,,,,,,,,,,,,,,,,,,,,,,,,,,,,,,,,,,,,,,,,,,,,,,,,,,,,,,,,,,,,,
,,,,,,,,,,stimuli/images/PICTURE_123.png,ADVICE,5eb44fb0caffba299096cc38,27/10/1993,2020-08-13_12h47.51.675,proactive2,2020.1.2,MacIntel,60,5f341be081b9052c55068110,5f3528429acb9b07781c94d3,4,,,,,,dart,,,,,,0,54,54,50,1,6,0,,,,,,,,,,,,,,,,,,,,,,,,,,,,,,,,,,,,,,,,,,,,,,,,,,,,,,,,,,,,,,,,,,,,,,,,,,,,,,,,,,,,,,,,,,,,,,,,,,,
,,,,,,,,,,stimuli/images/PICTURE_449.png,THING,5eb44fb0caffba299096cc38,27/10/1993,2020-08-13_12h47.51.675,proactive2,2020.1.2,MacIntel,60,5f341be081b9052c55068110,5f3528429acb9b07781c94d3,4,,,,,,bench,,,,,,0,55,55,59,1,6,0,,,,,,,,,,,,,,,,,,,,,,,,,,,,,,,,,,,,,,,,,,,,,,,,,,,,,,,,,,,,,,,,,,,,,,,,,,,,,,,,,,,,,,,,,,,,,,,,,,,
,,,,,,,,,,stimuli/images/PICTURE_348.png,SPEECH,5eb44fb0caffba299096cc38,27/10/1993,2020-08-13_12h47.51.675,proactive2,2020.1.2,MacIntel,60,5f341be081b9052c55068110,5f3528429acb9b07781c94d3,4,,,,,,pepper,,,,,,0,56,56,20,1,3,0,,,,,,,,,,,,,,,,,,,,,,,,,,,,,,,,,,,,,,,,,,,,,,,,,,,,,,,,,,,,,,,,,,,,,,,,,,,,,,,,,,,,,,,,,,,,,,,,,,,
,,,,,,,,,,stimuli/images/PICTURE_311.png,FRIEND,5eb44fb0caffba299096cc38,27/10/1993,2020-08-13_12h47.51.675,proactive2,2020.1.2,MacIntel,60,5f341be081b9052c55068110,5f3528429acb9b07781c94d3,4,,,,,,razor,,,,,,0,57,57,34,1,4,0,,,,,,,,,,,,,,,,,,,,,,,,,,,,,,,,,,,,,,,,,,,,,,,,,,,,,,,,,,,,,,,,,,,,,,,,,,,,,,,,,,,,,,,,,,,,,,,,,,,
,,,,,,,,,,stimuli/images/PICTURE_380.png,PHOTO,5eb44fb0caffba299096cc38,27/10/1993,2020-08-13_12h47.51.675,proactive2,2020.1.2,MacIntel,60,5f341be081b9052c55068110,5f3528429acb9b07781c94d3,4,,,,,,gorilla,,,,,,0,58,58,52,1,6,0,,,,,,,,,,,,,,,,,,,,,,,,,,,,,,,,,,,,,,,,,,,,,,,,,,,,,,,,,,,,,,,,,,,,,,,,,,,,,,,,,,,,,,,,,,,,,,,,,,,
,,?,0.001,0,,,,,,stimuli/images/PICTURE_688.png,WOMEN,5eb44fb0caffba299096cc38,27/10/1993,2020-08-13_12h47.51.675,proactive2,2020.1.2,MacIntel,60,5f341be081b9052c55068110,5f3528429acb9b07781c94d3,4,,,,,,runner,,,,,,,,,,,2,0,0,0,0,14,1,,,,,,,,,,,,,,,,,,,,,,,,,,,,,,,,,,,,,,,,,,,,,,,,,,,,,,,,,,,,,,,,,,,,,,,,,,,,,,,,,,,,,,,,,,,,,,
,,PASS,10.339,0,,,,,,stimuli/images/PICTURE_470.png,CASINO,5eb44fb0caffba299096cc38,27/10/1993,2020-08-13_12h47.51.675,proactive2,2020.1.2,MacIntel,60,5f341be081b9052c55068110,5f3528429acb9b07781c94d3,4,,,,,,motorbike,,,,,,,,,,,4,0,0,1,1,36,1,,,,,,,,,,,,,,,,,,,,,,,,,,,,,,,,,,,,,,,,,,,,,,,,,,,,,,,,,,,,,,,,,,,,,,,,,,,,,,,,,,,,,,,,,,,,,,
,,PLENTY,5.167,1,,,,,,stimuli/images/PICTURE_215.png,PLENTY,5eb44fb0caffba299096cc38,27/10/1993,2020-08-13_12h47.51.675,proactive2,2020.1.2,MacIntel,60,5f341be081b9052c55068110,5f3528429acb9b07781c94d3,4,,,,,,boot,,,,,,,,,,,4,0,0,2,2,37,1,,,,,,,,,,,,,,,,,,,,,,,,,,,,,,,,,,,,,,,,,,,,,,,,,,,,,,,,,,,,,,,,,,,,,,,,,,,,,,,,,,,,,,,,,,,,,,
,,?,0,0,,,,,,stimuli/images/PICTURE_356.png,DANGER,5eb44fb0caffba299096cc38,27/10/1993,2020-08-13_12h47.51.675,proactive2,2020.1.2,MacIntel,60,5f341be081b9052c55068110,5f3528429acb9b07781c94d3,4,,,,,,pawn,,,,,,,,,,,6,0,0,3,3,55,1,,,,,,,,,,,,,,,,,,,,,,,,,,,,,,,,,,,,,,,,,,,,,,,,,,,,,,,,,,,,,,,,,,,,,,,,,,,,,,,,,,,,,,,,,,,,,,
,,?,0.001,0,,,,,,stimuli/images/PICTURE_692.png,MONTH,5eb44fb0caffba299096cc38,27/10/1993,2020-08-13_12h47.51.675,proactive2,2020.1.2,MacIntel,60,5f341be081b9052c55068110,5f3528429acb9b07781c94d3,4,,,,,,cherry,,,,,,,,,,,2,0,0,4,4,16,1,,,,,,,,,,,,,,,,,,,,,,,,,,,,,,,,,,,,,,,,,,,,,,,,,,,,,,,,,,,,,,,,,,,,,,,,,,,,,,,,,,,,,,,,,,,,,,
,,?,0.001,0,,,,,,stimuli/images/PICTURE_654.png,VALLEY,5eb44fb0caffba299096cc38,27/10/1993,2020-08-13_12h47.51.675,proactive2,2020.1.2,MacIntel,60,5f341be081b9052c55068110,5f3528429acb9b07781c94d3,4,,,,,,pencil,,,,,,,,,,,1,0,0,5,5,1,1,,,,,,,,,,,,,,,,,,,,,,,,,,,,,,,,,,,,,,,,,,,,,,,,,,,,,,,,,,,,,,,,,,,,,,,,,,,,,,,,,,,,,,,,,,,,,,
,,?,0,0,,,,,,stimuli/images/PICTURE_688.png,CASINO,5eb44fb0caffba299096cc38,27/10/1993,2020-08-13_12h47.51.675,proactive2,2020.1.2,MacIntel,60,5f341be081b9052c55068110,5f3528429acb9b07781c94d3,4,,,,,,runner,,,,,,,,,,,1,0,0,6,6,2,1,,,,,,,,,,,,,,,,,,,,,,,,,,,,,,,,,,,,,,,,,,,,,,,,,,,,,,,,,,,,,,,,,,,,,,,,,,,,,,,,,,,,,,,,,,,,,,
,,?,0.001,0,,,,,,stimuli/images/PICTURE_233.png,IDEAS,5eb44fb0caffba299096cc38,27/10/1993,2020-08-13_12h47.51.675,proactive2,2020.1.2,MacIntel,60,5f341be081b9052c55068110,5f3528429acb9b07781c94d3,4,,,,,,salt,,,,,,,,,,,3,0,0,7,7,28,1,,,,,,,,,,,,,,,,,,,,,,,,,,,,,,,,,,,,,,,,,,,,,,,,,,,,,,,,,,,,,,,,,,,,,,,,,,,,,,,,,,,,,,,,,,,,,,
,,?,0,0,,,,,,stimuli/images/PICTURE_151.png,GIRL,5eb44fb0caffba299096cc38,27/10/1993,2020-08-13_12h47.51.675,proactive2,2020.1.2,MacIntel,60,5f341be081b9052c55068110,5f3528429acb9b07781c94d3,4,,,,,,tray,,,,,,,,,,,2,0,0,8,8,19,1,,,,,,,,,,,,,,,,,,,,,,,,,,,,,,,,,,,,,,,,,,,,,,,,,,,,,,,,,,,,,,,,,,,,,,,,,,,,,,,,,,,,,,,,,,,,,,
,,?,0.001,0,,,,,,stimuli/images/PICTURE_160.png,LEADER,5eb44fb0caffba299096cc38,27/10/1993,2020-08-13_12h47.51.675,proactive2,2020.1.2,MacIntel,60,5f341be081b9052c55068110,5f3528429acb9b07781c94d3,4,,,,,,wheelbarrow,,,,,,,,,,,1,0,0,9,9,3,1,,,,,,,,,,,,,,,,,,,,,,,,,,,,,,,,,,,,,,,,,,,,,,,,,,,,,,,,,,,,,,,,,,,,,,,,,,,,,,,,,,,,,,,,,,,,,,
,,?,0,0,,,,,,stimuli/images/PICTURE_339.png,PLENTY,5eb44fb0caffba299096cc38,27/10/1993,2020-08-13_12h47.51.675,proactive2,2020.1.2,MacIntel,60,5f341be081b9052c55068110,5f3528429acb9b07781c94d3,4,,,,,,backpack,,,,,,,,,,,1,0,0,10,10,0,1,,,,,,,,,,,,,,,,,,,,,,,,,,,,,,,,,,,,,,,,,,,,,,,,,,,,,,,,,,,,,,,,,,,,,,,,,,,,,,,,,,,,,,,,,,,,,,
,,?,0,0,,,,,,stimuli/images/PICTURE_123.png,ADVICE,5eb44fb0caffba299096cc38,27/10/1993,2020-08-13_12h47.51.675,proactive2,2020.1.2,MacIntel,60,5f341be081b9052c55068110,5f3528429acb9b07781c94d3,4,,,,,,dart,,,,,,,,,,,6,0,0,11,11,50,1,,,,,,,,,,,,,,,,,,,,,,,,,,,,,,,,,,,,,,,,,,,,,,,,,,,,,,,,,,,,,,,,,,,,,,,,,,,,,,,,,,,,,,,,,,,,,,
,,CARS,2.418,1,,,,,,stimuli/images/PICTURE_177.png,CARS,5eb44fb0caffba299096cc38,27/10/1993,2020-08-13_12h47.51.675,proactive2,2020.1.2,MacIntel,60,5f341be081b9052c55068110,5f3528429acb9b07781c94d3,4,,,,,,mushroom,,,,,,,,,,,4,0,0,12,12,35,1,,,,,,,,,,,,,,,,,,,,,,,,,,,,,,,,,,,,,,,,,,,,,,,,,,,,,,,,,,,,,,,,,,,,,,,,,,,,,,,,,,,,,,,,,,,,,,
,,WEAPON,13.066,1,,,,,,stimuli/images/PICTURE_675.png,WEAPON,5eb44fb0caffba299096cc38,27/10/1993,2020-08-13_12h47.51.675,proactive2,2020.1.2,MacIntel,60,5f341be081b9052c55068110,5f3528429acb9b07781c94d3,4,,,,,,windmill,,,,,,,,,,,4,0,0,13,13,32,1,,,,,,,,,,,,,,,,,,,,,,,,,,,,,,,,,,,,,,,,,,,,,,,,,,,,,,,,,,,,,,,,,,,,,,,,,,,,,,,,,,,,,,,,,,,,,,
,,?,0.001,0,,,,,,stimuli/images/PICTURE_123.png,ADVICE,5eb44fb0caffba299096cc38,27/10/1993,2020-08-13_12h47.51.675,proactive2,2020.1.2,MacIntel,60,5f341be081b9052c55068110,5f3528429acb9b07781c94d3,4,,,,,,dart,,,,,,,,,,,5,0,0,14,14,40,1,,,,,,,,,,,,,,,,,,,,,,,,,,,,,,,,,,,,,,,,,,,,,,,,,,,,,,,,,,,,,,,,,,,,,,,,,,,,,,,,,,,,,,,,,,,,,,
,,?,0.001,0,,,,,,stimuli/images/PICTURE_95.png,STYLE,5eb44fb0caffba299096cc38,27/10/1993,2020-08-13_12h47.51.675,proactive2,2020.1.2,MacIntel,60,5f341be081b9052c55068110,5f3528429acb9b07781c94d3,4,,,,,,suitcase,,,,,,,,,,,3,0,0,15,15,25,1,,,,,,,,,,,,,,,,,,,,,,,,,,,,,,,,,,,,,,,,,,,,,,,,,,,,,,,,,,,,,,,,,,,,,,,,,,,,,,,,,,,,,,,,,,,,,,
,,?,0,0,,,,,,stimuli/images/PICTURE_509.png,PHOTO,5eb44fb0caffba299096cc38,27/10/1993,2020-08-13_12h47.51.675,proactive2,2020.1.2,MacIntel,60,5f341be081b9052c55068110,5f3528429acb9b07781c94d3,4,,,,,,telephone,,,,,,,,,,,3,0,0,16,16,21,1,,,,,,,,,,,,,,,,,,,,,,,,,,,,,,,,,,,,,,,,,,,,,,,,,,,,,,,,,,,,,,,,,,,,,,,,,,,,,,,,,,,,,,,,,,,,,,
,,?,0.001,0,,,,,,stimuli/images/PICTURE_308.png,KIND,5eb44fb0caffba299096cc38,27/10/1993,2020-08-13_12h47.51.675,proactive2,2020.1.2,MacIntel,60,5f341be081b9052c55068110,5f3528429acb9b07781c94d3,4,,,,,,dice,,,,,,,,,,,6,0,0,17,17,54,1,,,,,,,,,,,,,,,,,,,,,,,,,,,,,,,,,,,,,,,,,,,,,,,,,,,,,,,,,,,,,,,,,,,,,,,,,,,,,,,,,,,,,,,,,,,,,,
,,?,0.001,0,,,,,,stimuli/images/PICTURE_311.png,BEAUTY,5eb44fb0caffba299096cc38,27/10/1993,2020-08-13_12h47.51.675,proactive2,2020.1.2,MacIntel,60,5f341be081b9052c55068110,5f3528429acb9b07781c94d3,4,,,,,,razor,,,,,,,,,,,2,0,0,18,18,13,1,,,,,,,,,,,,,,,,,,,,,,,,,,,,,,,,,,,,,,,,,,,,,,,,,,,,,,,,,,,,,,,,,,,,,,,,,,,,,,,,,,,,,,,,,,,,,,
,,?,0,0,,,,,,stimuli/images/PICTURE_467.png,DEMON,5eb44fb0caffba299096cc38,27/10/1993,2020-08-13_12h47.51.675,proactive2,2020.1.2,MacIntel,60,5f341be081b9052c55068110,5f3528429acb9b07781c94d3,4,,,,,,peg,,,,,,,,,,,3,0,0,19,19,23,1,,,,,,,,,,,,,,,,,,,,,,,,,,,,,,,,,,,,,,,,,,,,,,,,,,,,,,,,,,,,,,,,,,,,,,,,,,,,,,,,,,,,,,,,,,,,,,
,,?,0,0,,,,,,stimuli/images/PICTURE_208.png,THING,5eb44fb0caffba299096cc38,27/10/1993,2020-08-13_12h47.51.675,proactive2,2020.1.2,MacIntel,60,5f341be081b9052c55068110,5f3528429acb9b07781c94d3,4,,,,,,microphone,,,,,,,,,,,5,0,0,20,20,47,1,,,,,,,,,,,,,,,,,,,,,,,,,,,,,,,,,,,,,,,,,,,,,,,,,,,,,,,,,,,,,,,,,,,,,,,,,,,,,,,,,,,,,,,,,,,,,,
,,?,0,0,,,,,,stimuli/images/PICTURE_147.png,MOMENT,5eb44fb0caffba299096cc38,27/10/1993,2020-08-13_12h47.51.675,proactive2,2020.1.2,MacIntel,60,5f341be081b9052c55068110,5f3528429acb9b07781c94d3,4,,,,,,hanger,,,,,,,,,,,6,0,0,21,21,51,1,,,,,,,,,,,,,,,,,,,,,,,,,,,,,,,,,,,,,,,,,,,,,,,,,,,,,,,,,,,,,,,,,,,,,,,,,,,,,,,,,,,,,,,,,,,,,,
,,PENNY,2.637,1,,,,,,stimuli/images/PICTURE_708.png,PENNY,5eb44fb0caffba299096cc38,27/10/1993,2020-08-13_12h47.51.675,proactive2,2020.1.2,MacIntel,60,5f341be081b9052c55068110,5f3528429acb9b07781c94d3,4,,,,,,monkey,,,,,,,,,,,4,0,0,22,22,31,1,,,,,,,,,,,,,,,,,,,,,,,,,,,,,,,,,,,,,,,,,,,,,,,,,,,,,,,,,,,,,,,,,,,,,,,,,,,,,,,,,,,,,,,,,,,,,,
,,?,0.001,0,,,,,,stimuli/images/PICTURE_453.png,DUDE,5eb44fb0caffba299096cc38,27/10/1993,2020-08-13_12h47.51.675,proactive2,2020.1.2,MacIntel,60,5f341be081b9052c55068110,5f3528429acb9b07781c94d3,4,,,,,,scissors,,,,,,,,,,,3,0,0,23,23,27,1,,,,,,,,,,,,,,,,,,,,,,,,,,,,,,,,,,,,,,,,,,,,,,,,,,,,,,,,,,,,,,,,,,,,,,,,,,,,,,,,,,,,,,,,,,,,,,
,,?,0.001,0,,,,,,stimuli/images/PICTURE_32.png,JUNGLE,5eb44fb0caffba299096cc38,27/10/1993,2020-08-13_12h47.51.675,proactive2,2020.1.2,MacIntel,60,5f341be081b9052c55068110,5f3528429acb9b07781c94d3,4,,,,,,crown,,,,,,,,,,,5,0,0,24,24,45,1,,,,,,,,,,,,,,,,,,,,,,,,,,,,,,,,,,,,,,,,,,,,,,,,,,,,,,,,,,,,,,,,,,,,,,,,,,,,,,,,,,,,,,,,,,,,,,
,,PASS,8.862,0,,,,,,stimuli/images/PICTURE_488.png,STYLE,5eb44fb0caffba299096cc38,27/10/1993,2020-08-13_12h47.51.675,proactive2,2020.1.2,MacIntel,60,5f341be081b9052c55068110,5f3528429acb9b07781c94d3,4,,,,,,sun,,,,,,,,,,,4,0,0,25,25,33,1,,,,,,,,,,,,,,,,,,,,,,,,,,,,,,,,,,,,,,,,,,,,,,,,,,,,,,,,,,,,,,,,,,,,,,,,,,,,,,,,,,,,,,,,,,,,,,
,,?,0.001,0,,,,,,stimuli/images/PICTURE_208.png,MONTH,5eb44fb0caffba299096cc38,27/10/1993,2020-08-13_12h47.51.675,proactive2,2020.1.2,MacIntel,60,5f341be081b9052c55068110,5f3528429acb9b07781c94d3,4,,,,,,microphone,,,,,,,,,,,6,0,0,26,26,53,1,,,,,,,,,,,,,,,,,,,,,,,,,,,,,,,,,,,,,,,,,,,,,,,,,,,,,,,,,,,,,,,,,,,,,,,,,,,,,,,,,,,,,,,,,,,,,,
,,?,0,0,,,,,,stimuli/images/PICTURE_504.png,BODY,5eb44fb0caffba299096cc38,27/10/1993,2020-08-13_12h47.51.675,proactive2,2020.1.2,MacIntel,60,5f341be081b9052c55068110,5f3528429acb9b07781c94d3,4,,,,,,wheel,,,,,,,,,,,1,0,0,27,27,8,1,,,,,,,,,,,,,,,,,,,,,,,,,,,,,,,,,,,,,,,,,,,,,,,,,,,,,,,,,,,,,,,,,,,,,,,,,,,,,,,,,,,,,,,,,,,,,,
,,?,0.001,0,,,,,,stimuli/images/PICTURE_285.png,ADVICE,5eb44fb0caffba299096cc38,27/10/1993,2020-08-13_12h47.51.675,proactive2,2020.1.2,MacIntel,60,5f341be081b9052c55068110,5f3528429acb9b07781c94d3,4,,,,,,carrot,,,,,,,,,,,2,0,0,28,28,12,1,,,,,,,,,,,,,,,,,,,,,,,,,,,,,,,,,,,,,,,,,,,,,,,,,,,,,,,,,,,,,,,,,,,,,,,,,,,,,,,,,,,,,,,,,,,,,,
,,?,0.001,0,,,,,,stimuli/images/PICTURE_449.png,THING,5eb44fb0caffba299096cc38,27/10/1993,2020-08-13_12h47.51.675,proactive2,2020.1.2,MacIntel,60,5f341be081b9052c55068110,5f3528429acb9b07781c94d3,4,,,,,,bench,,,,,,,,,,,6,0,0,29,29,59,1,,,,,,,,,,,,,,,,,,,,,,,,,,,,,,,,,,,,,,,,,,,,,,,,,,,,,,,,,,,,,,,,,,,,,,,,,,,,,,,,,,,,,,,,,,,,,,
,,?,0.001,0,,,,,,stimuli/images/PICTURE_708.png,YARD,5eb44fb0caffba299096cc38,27/10/1993,2020-08-13_12h47.51.675,proactive2,2020.1.2,MacIntel,60,5f341be081b9052c55068110,5f3528429acb9b07781c94d3,4,,,,,,monkey,,,,,,,,,,,3,0,0,30,30,29,1,,,,,,,,,,,,,,,,,,,,,,,,,,,,,,,,,,,,,,,,,,,,,,,,,,,,,,,,,,,,,,,,,,,,,,,,,,,,,,,,,,,,,,,,,,,,,,
,,?,0.001,0,,,,,,stimuli/images/PICTURE_744.png,SAKE,5eb44fb0caffba299096cc38,27/10/1993,2020-08-13_12h47.51.675,proactive2,2020.1.2,MacIntel,60,5f341be081b9052c55068110,5f3528429acb9b07781c94d3,4,,,,,,ring,,,,,,,,,,,2,0,0,31,31,17,1,,,,,,,,,,,,,,,,,,,,,,,,,,,,,,,,,,,,,,,,,,,,,,,,,,,,,,,,,,,,,,,,,,,,,,,,,,,,,,,,,,,,,,,,,,,,,,
,,?,0,0,,,,,,stimuli/images/PICTURE_302.png,FAMILY,5eb44fb0caffba299096cc38,27/10/1993,2020-08-13_12h47.51.675,proactive2,2020.1.2,MacIntel,60,5f341be081b9052c55068110,5f3528429acb9b07781c94d3,4,,,,,,taxi,,,,,,,,,,,2,0,0,32,32,18,1,,,,,,,,,,,,,,,,,,,,,,,,,,,,,,,,,,,,,,,,,,,,,,,,,,,,,,,,,,,,,,,,,,,,,,,,,,,,,,,,,,,,,,,,,,,,,,
,,?,0,0,,,,,,stimuli/images/PICTURE_348.png,SPEECH,5eb44fb0caffba299096cc38,27/10/1993,2020-08-13_12h47.51.675,proactive2,2020.1.2,MacIntel,60,5f341be081b9052c55068110,5f3528429acb9b07781c94d3,4,,,,,,pepper,,,,,,,,,,,3,0,0,33,33,20,1,,,,,,,,,,,,,,,,,,,,,,,,,,,,,,,,,,,,,,,,,,,,,,,,,,,,,,,,,,,,,,,,,,,,,,,,,,,,,,,,,,,,,,,,,,,,,,
,,?,0.001,0,,,,,,stimuli/images/PICTURE_314.png,SAKE,5eb44fb0caffba299096cc38,27/10/1993,2020-08-13_12h47.51.675,proactive2,2020.1.2,MacIntel,60,5f341be081b9052c55068110,5f3528429acb9b07781c94d3,4,,,,,,perfume,,,,,,,,,,,1,0,0,34,34,7,1,,,,,,,,,,,,,,,,,,,,,,,,,,,,,,,,,,,,,,,,,,,,,,,,,,,,,,,,,,,,,,,,,,,,,,,,,,,,,,,,,,,,,,,,,,,,,,
,,?,0.001,0,,,,,,stimuli/images/PICTURE_667.png,BATH,5eb44fb0caffba299096cc38,27/10/1993,2020-08-13_12h47.51.675,proactive2,2020.1.2,MacIntel,60,5f341be081b9052c55068110,5f3528429acb9b07781c94d3,4,,,,,,daisy,,,,,,,,,,,1,0,0,35,35,4,1,,,,,,,,,,,,,,,,,,,,,,,,,,,,,,,,,,,,,,,,,,,,,,,,,,,,,,,,,,,,,,,,,,,,,,,,,,,,,,,,,,,,,,,,,,,,,,
,,?,0,0,,,,,,stimuli/images/PICTURE_667.png,PLENTY,5eb44fb0caffba299096cc38,27/10/1993,2020-08-13_12h47.51.675,proactive2,2020.1.2,MacIntel,60,5f341be081b9052c55068110,5f3528429acb9b07781c94d3,4,,,,,,daisy,,,,,,,,,,,5,0,0,36,36,41,1,,,,,,,,,,,,,,,,,,,,,,,,,,,,,,,,,,,,,,,,,,,,,,,,,,,,,,,,,,,,,,,,,,,,,,,,,,,,,,,,,,,,,,,,,,,,,,
,,?,0,0,,,,,,stimuli/images/PICTURE_469.png,ARTIST,5eb44fb0caffba299096cc38,27/10/1993,2020-08-13_12h47.51.675,proactive2,2020.1.2,MacIntel,60,5f341be081b9052c55068110,5f3528429acb9b07781c94d3,4,,,,,,stool,,,,,,,,,,,1,0,0,37,37,6,1,,,,,,,,,,,,,,,,,,,,,,,,,,,,,,,,,,,,,,,,,,,,,,,,,,,,,,,,,,,,,,,,,,,,,,,,,,,,,,,,,,,,,,,,,,,,,,
,,?,0.001,0,,,,,,stimuli/images/PICTURE_744.png,SYSTEM,5eb44fb0caffba299096cc38,27/10/1993,2020-08-13_12h47.51.675,proactive2,2020.1.2,MacIntel,60,5f341be081b9052c55068110,5f3528429acb9b07781c94d3,4,,,,,,ring,,,,,,,,,,,5,0,0,38,38,43,1,,,,,,,,,,,,,,,,,,,,,,,,,,,,,,,,,,,,,,,,,,,,,,,,,,,,,,,,,,,,,,,,,,,,,,,,,,,,,,,,,,,,,,,,,,,,,,
,,?,0.001,0,,,,,,stimuli/images/PICTURE_255.png,AREA,5eb44fb0caffba299096cc38,27/10/1993,2020-08-13_12h47.51.675,proactive2,2020.1.2,MacIntel,60,5f341be081b9052c55068110,5f3528429acb9b07781c94d3,4,,,,,,shovel,,,,,,,,,,,3,0,0,39,39,22,1,,,,,,,,,,,,,,,,,,,,,,,,,,,,,,,,,,,,,,,,,,,,,,,,,,,,,,,,,,,,,,,,,,,,,,,,,,,,,,,,,,,,,,,,,,,,,,
,,?,0.001,0,,,,,,stimuli/images/PICTURE_491.png,WRITER,5eb44fb0caffba299096cc38,27/10/1993,2020-08-13_12h47.51.675,proactive2,2020.1.2,MacIntel,60,5f341be081b9052c55068110,5f3528429acb9b07781c94d3,4,,,,,,rug,,,,,,,,,,,6,0,0,40,40,57,1,,,,,,,,,,,,,,,,,,,,,,,,,,,,,,,,,,,,,,,,,,,,,,,,,,,,,,,,,,,,,,,,,,,,,,,,,,,,,,,,,,,,,,,,,,,,,,
,,WORLD,6.813,0,,,,,,stimuli/images/PICTURE_677.png,MILE,5eb44fb0caffba299096cc38,27/10/1993,2020-08-13_12h47.51.675,proactive2,2020.1.2,MacIntel,60,5f341be081b9052c55068110,5f3528429acb9b07781c94d3,4,,,,,,map,,,,,,,,,,,4,0,0,41,41,30,1,,,,,,,,,,,,,,,,,,,,,,,,,,,,,,,,,,,,,,,,,,,,,,,,,,,,,,,,,,,,,,,,,,,,,,,,,,,,,,,,,,,,,,,,,,,,,,
,,?,0.001,0,,,,,,stimuli/images/PICTURE_491.png,ROOF,5eb44fb0caffba299096cc38,27/10/1993,2020-08-13_12h47.51.675,proactive2,2020.1.2,MacIntel,60,5f341be081b9052c55068110,5f3528429acb9b07781c94d3,4,,,,,,rug,,,,,,,,,,,3,0,0,42,42,24,1,,,,,,,,,,,,,,,,,,,,,,,,,,,,,,,,,,,,,,,,,,,,,,,,,,,,,,,,,,,,,,,,,,,,,,,,,,,,,,,,,,,,,,,,,,,,,,
,,?,0.001,0,,,,,,stimuli/images/PICTURE_160.png,FEET,5eb44fb0caffba299096cc38,27/10/1993,2020-08-13_12h47.51.675,proactive2,2020.1.2,MacIntel,60,5f341be081b9052c55068110,5f3528429acb9b07781c94d3,4,,,,,,wheelbarrow,,,,,,,,,,,6,0,0,43,43,58,1,,,,,,,,,,,,,,,,,,,,,,,,,,,,,,,,,,,,,,,,,,,,,,,,,,,,,,,,,,,,,,,,,,,,,,,,,,,,,,,,,,,,,,,,,,,,,,
,,?,0.001,0,,,,,,stimuli/images/PICTURE_380.png,DEATH,5eb44fb0caffba299096cc38,27/10/1993,2020-08-13_12h47.51.675,proactive2,2020.1.2,MacIntel,60,5f341be081b9052c55068110,5f3528429acb9b07781c94d3,4,,,,,,gorilla,,,,,,,,,,,5,0,0,44,44,49,1,,,,,,,,,,,,,,,,,,,,,,,,,,,,,,,,,,,,,,,,,,,,,,,,,,,,,,,,,,,,,,,,,,,,,,,,,,,,,,,,,,,,,,,,,,,,,,
,,?,0.001,0,,,,,,stimuli/images/PICTURE_68.png,MILE,5eb44fb0caffba299096cc38,27/10/1993,2020-08-13_12h47.51.675,proactive2,2020.1.2,MacIntel,60,5f341be081b9052c55068110,5f3528429acb9b07781c94d3,4,,,,,,candle,,,,,,,,,,,5,0,0,45,45,44,1,,,,,,,,,,,,,,,,,,,,,,,,,,,,,,,,,,,,,,,,,,,,,,,,,,,,,,,,,,,,,,,,,,,,,,,,,,,,,,,,,,,,,,,,,,,,,,
,,?,0.001,0,,,,,,stimuli/images/PICTURE_469.png,LETTER,5eb44fb0caffba299096cc38,27/10/1993,2020-08-13_12h47.51.675,proactive2,2020.1.2,MacIntel,60,5f341be081b9052c55068110,5f3528429acb9b07781c94d3,4,,,,,,stool,,,,,,,,,,,5,0,0,46,46,42,1,,,,,,,,,,,,,,,,,,,,,,,,,,,,,,,,,,,,,,,,,,,,,,,,,,,,,,,,,,,,,,,,,,,,,,,,,,,,,,,,,,,,,,,,,,,,,,
,,?,0,0,,,,,,stimuli/images/PICTURE_327.png,BEAUTY,5eb44fb0caffba299096cc38,27/10/1993,2020-08-13_12h47.51.675,proactive2,2020.1.2,MacIntel,60,5f341be081b9052c55068110,5f3528429acb9b07781c94d3,4,,,,,,helmet,,,,,,,,,,,5,0,0,47,47,48,1,,,,,,,,,,,,,,,,,,,,,,,,,,,,,,,,,,,,,,,,,,,,,,,,,,,,,,,,,,,,,,,,,,,,,,,,,,,,,,,,,,,,,,,,,,,,,,
,,?,0.001,0,,,,,,stimuli/images/PICTURE_308.png,ESTATE,5eb44fb0caffba299096cc38,27/10/1993,2020-08-13_12h47.51.675,proactive2,2020.1.2,MacIntel,60,5f341be081b9052c55068110,5f3528429acb9b07781c94d3,4,,,,,,dice,,,,,,,,,,,5,0,0,48,48,46,1,,,,,,,,,,,,,,,,,,,,,,,,,,,,,,,,,,,,,,,,,,,,,,,,,,,,,,,,,,,,,,,,,,,,,,,,,,,,,,,,,,,,,,,,,,,,,,
,,?,0.001,0,,,,,,stimuli/images/PICTURE_203.png,ARTIST,5eb44fb0caffba299096cc38,27/10/1993,2020-08-13_12h47.51.675,proactive2,2020.1.2,MacIntel,60,5f341be081b9052c55068110,5f3528429acb9b07781c94d3,4,,,,,,cap,,,,,,,,,,,3,0,0,49,49,26,1,,,,,,,,,,,,,,,,,,,,,,,,,,,,,,,,,,,,,,,,,,,,,,,,,,,,,,,,,,,,,,,,,,,,,,,,,,,,,,,,,,,,,,,,,,,,,,
,,?,0,0,,,,,,stimuli/images/PICTURE_85.png,THING,5eb44fb0caffba299096cc38,27/10/1993,2020-08-13_12h47.51.675,proactive2,2020.1.2,MacIntel,60,5f341be081b9052c55068110,5f3528429acb9b07781c94d3,4,,,,,,diamond,,,,,,,,,,,2,0,0,50,50,15,1,,,,,,,,,,,,,,,,,,,,,,,,,,,,,,,,,,,,,,,,,,,,,,,,,,,,,,,,,,,,,,,,,,,,,,,,,,,,,,,,,,,,,,,,,,,,,,
,,RADAR,13.15,0,,,,,,stimuli/images/PICTURE_248.png,DOZEN,5eb44fb0caffba299096cc38,27/10/1993,2020-08-13_12h47.51.675,proactive2,2020.1.2,MacIntel,60,5f341be081b9052c55068110,5f3528429acb9b07781c94d3,4,,,,,,cart,,,,,,,,,,,4,0,0,51,51,39,1,,,,,,,,,,,,,,,,,,,,,,,,,,,,,,,,,,,,,,,,,,,,,,,,,,,,,,,,,,,,,,,,,,,,,,,,,,,,,,,,,,,,,,,,,,,,,,
,,?,0.001,0,,,,,,stimuli/images/PICTURE_487.png,FLIGHT,5eb44fb0caffba299096cc38,27/10/1993,2020-08-13_12h47.51.675,proactive2,2020.1.2,MacIntel,60,5f341be081b9052c55068110,5f3528429acb9b07781c94d3,4,,,,,,basket,,,,,,,,,,,1,0,0,52,52,9,1,,,,,,,,,,,,,,,,,,,,,,,,,,,,,,,,,,,,,,,,,,,,,,,,,,,,,,,,,,,,,,,,,,,,,,,,,,,,,,,,,,,,,,,,,,,,,,
,,?,0.001,0,,,,,,stimuli/images/PICTURE_380.png,PHOTO,5eb44fb0caffba299096cc38,27/10/1993,2020-08-13_12h47.51.675,proactive2,2020.1.2,MacIntel,60,5f341be081b9052c55068110,5f3528429acb9b07781c94d3,4,,,,,,gorilla,,,,,,,,,,,6,0,0,53,53,52,1,,,,,,,,,,,,,,,,,,,,,,,,,,,,,,,,,,,,,,,,,,,,,,,,,,,,,,,,,,,,,,,,,,,,,,,,,,,,,,,,,,,,,,,,,,,,,,
,,?,0,0,,,,,,stimuli/images/PICTURE_314.png,GODS,5eb44fb0caffba299096cc38,27/10/1993,2020-08-13_12h47.51.675,proactive2,2020.1.2,MacIntel,60,5f341be081b9052c55068110,5f3528429acb9b07781c94d3,4,,,,,,perfume,,,,,,,,,,,2,0,0,54,54,11,1,,,,,,,,,,,,,,,,,,,,,,,,,,,,,,,,,,,,,,,,,,,,,,,,,,,,,,,,,,,,,,,,,,,,,,,,,,,,,,,,,,,,,,,,,,,,,,
,,?,0.001,0,,,,,,stimuli/images/PICTURE_708.png,CLIENT,5eb44fb0caffba299096cc38,27/10/1993,2020-08-13_12h47.51.675,proactive2,2020.1.2,MacIntel,60,5f341be081b9052c55068110,5f3528429acb9b07781c94d3,4,,,,,,monkey,,,,,,,,,,,1,0,0,55,55,5,1,,,,,,,,,,,,,,,,,,,,,,,,,,,,,,,,,,,,,,,,,,,,,,,,,,,,,,,,,,,,,,,,,,,,,,,,,,,,,,,,,,,,,,,,,,,,,,
,,?,0.001,0,,,,,,stimuli/images/PICTURE_208.png,LOTS,5eb44fb0caffba299096cc38,27/10/1993,2020-08-13_12h47.51.675,proactive2,2020.1.2,MacIntel,60,5f341be081b9052c55068110,5f3528429acb9b07781c94d3,4,,,,,,microphone,,,,,,,,,,,2,0,0,56,56,10,1,,,,,,,,,,,,,,,,,,,,,,,,,,,,,,,,,,,,,,,,,,,,,,,,,,,,,,,,,,,,,,,,,,,,,,,,,,,,,,,,,,,,,,,,,,,,,,
,,?,0.001,0,,,,,,stimuli/images/PICTURE_453.png,PLENTY,5eb44fb0caffba299096cc38,27/10/1993,2020-08-13_12h47.51.675,proactive2,2020.1.2,MacIntel,60,5f341be081b9052c55068110,5f3528429acb9b07781c94d3,4,,,,,,scissors,,,,,,,,,,,6,0,0,57,57,56,1,,,,,,,,,,,,,,,,,,,,,,,,,,,,,,,,,,,,,,,,,,,,,,,,,,,,,,,,,,,,,,,,,,,,,,,,,,,,,,,,,,,,,,,,,,,,,,
,,FRIEND,3.142,1,,,,,,stimuli/images/PICTURE_311.png,FRIEND,5eb44fb0caffba299096cc38,27/10/1993,2020-08-13_12h47.51.675,proactive2,2020.1.2,MacIntel,60,5f341be081b9052c55068110,5f3528429acb9b07781c94d3,4,,,,,,razor,,,,,,,,,,,4,0,0,58,58,34,1,,,,,,,,,,,,,,,,,,,,,,,,,,,,,,,,,,,,,,,,,,,,,,,,,,,,,,,,,,,,,,,,,,,,,,,,,,,,,,,,,,,,,,,,,,,,,,
,,WOMAN,3.366,0,,,,,,stimuli/images/PICTURE_233.png,WOMEN,5eb44fb0caffba299096cc38,27/10/1993,2020-08-13_12h47.51.675,proactive2,2020.1.2,MacIntel,60,5f341be081b9052c55068110,5f3528429acb9b07781c94d3,4,,,,,,salt,,,,,,,,,,,4,0,0,59,59,38,1,,,,,,,,,,,,,,,,,,,,,,,,,,,,,,,,,,,,,,,,,,,,,,,,,,,,,,,,,,,,,,,,,,,,,,,,,,,,,,,,,,,,,,,,,,,,,,
,,,,,,,,,,,,5eb44fb0caffba299096cc38,27/10/1993,2020-08-13_12h47.51.675,proactive2,2020.1.2,MacIntel,60,5f341be081b9052c55068110,5f3528429acb9b07781c94d3,4,,,,,,,,,,,,,,,,,,,,,,,,0,0,0,0,1,stimuli/learn-block1.csv,,,,,,,,,,,,,,,,,,,,,,,,,,,,,,,,,,,,,,,,,,,,,,,,,,,,,,,,,,,,,,,,,,,,,,,,,,,,,,,,,,,,,,,,
,,,,,,,,,,stimuli/images/PICTURE_57.png,CANDY,5eb44fb0caffba299096cc38,27/10/1993,2020-08-13_12h47.51.675,proactive2,2020.1.2,MacIntel,60,5f341be081b9052c55068110,5f3528429acb9b07781c94d3,4,,,,,,stamp,,,,,,0,0,0,52,1,6,2,,,,,,,,,,,,,,,,,,,,,,,,,,,,,,,,,,,,,,,,,,,,,,,,,,,,,,,,,,,,,,,,,,,,,,,,,,,,,,,,,,,,,,,,,,,,,,,,,,,
,,,,,,,,,,stimuli/images/PICTURE_93.png,GIRL,5eb44fb0caffba299096cc38,27/10/1993,2020-08-13_12h47.51.675,proactive2,2020.1.2,MacIntel,60,5f341be081b9052c55068110,5f3528429acb9b07781c94d3,4,,,,,,skateboard,,,,,,0,1,1,31,1,4,2,,,,,,,,,,,,,,,,,,,,,,,,,,,,,,,,,,,,,,,,,,,,,,,,,,,,,,,,,,,,,,,,,,,,,,,,,,,,,,,,,,,,,,,,,,,,,,,,,,,
,,,,,,,,,,stimuli/images/PICTURE_564.png,PLENTY,5eb44fb0caffba299096cc38,27/10/1993,2020-08-13_12h47.51.675,proactive2,2020.1.2,MacIntel,60,5f341be081b9052c55068110,5f3528429acb9b07781c94d3,4,,,,,,spoon,,,,,,0,2,2,11,1,2,2,,,,,,,,,,,,,,,,,,,,,,,,,,,,,,,,,,,,,,,,,,,,,,,,,,,,,,,,,,,,,,,,,,,,,,,,,,,,,,,,,,,,,,,,,,,,,,,,,,,
,,,,,,,,,,stimuli/images/PICTURE_95.png,NIGHT,5eb44fb0caffba299096cc38,27/10/1993,2020-08-13_12h47.51.675,proactive2,2020.1.2,MacIntel,60,5f341be081b9052c55068110,5f3528429acb9b07781c94d3,4,,,,,,suitcase,,,,,,0,3,3,37,1,4,2,,,,,,,,,,,,,,,,,,,,,,,,,,,,,,,,,,,,,,,,,,,,,,,,,,,,,,,,,,,,,,,,,,,,,,,,,,,,,,,,,,,,,,,,,,,,,,,,,,,
,,,,,,,,,,stimuli/images/PICTURE_348.png,TOILET,5eb44fb0caffba299096cc38,27/10/1993,2020-08-13_12h47.51.675,proactive2,2020.1.2,MacIntel,60,5f341be081b9052c55068110,5f3528429acb9b07781c94d3,4,,,,,,pepper,,,,,,0,4,4,4,1,1,2,,,,,,,,,,,,,,,,,,,,,,,,,,,,,,,,,,,,,,,,,,,,,,,,,,,,,,,,,,,,,,,,,,,,,,,,,,,,,,,,,,,,,,,,,,,,,,,,,,,
,,,,,,,,,,stimuli/images/PICTURE_654.png,COPS,5eb44fb0caffba299096cc38,27/10/1993,2020-08-13_12h47.51.675,proactive2,2020.1.2,MacIntel,60,5f341be081b9052c55068110,5f3528429acb9b07781c94d3,4,,,,,,pencil,,,,,,0,5,5,10,1,2,2,,,,,,,,,,,,,,,,,,,,,,,,,,,,,,,,,,,,,,,,,,,,,,,,,,,,,,,,,,,,,,,,,,,,,,,,,,,,,,,,,,,,,,,,,,,,,,,,,,,
,,,,,,,,,,stimuli/images/PICTURE_504.png,HOUSE,5eb44fb0caffba299096cc38,27/10/1993,2020-08-13_12h47.51.675,proactive2,2020.1.2,MacIntel,60,5f341be081b9052c55068110,5f3528429acb9b07781c94d3,4,,,,,,wheel,,,,,,0,6,6,36,1,4,2,,,,,,,,,,,,,,,,,,,,,,,,,,,,,,,,,,,,,,,,,,,,,,,,,,,,,,,,,,,,,,,,,,,,,,,,,,,,,,,,,,,,,,,,,,,,,,,,,,,
,,,,,,,,,,stimuli/images/PICTURE_453.png,FAMILY,5eb44fb0caffba299096cc38,27/10/1993,2020-08-13_12h47.51.675,proactive2,2020.1.2,MacIntel,60,5f341be081b9052c55068110,5f3528429acb9b07781c94d3,4,,,,,,scissors,,,,,,0,7,7,48,1,5,2,,,,,,,,,,,,,,,,,,,,,,,,,,,,,,,,,,,,,,,,,,,,,,,,,,,,,,,,,,,,,,,,,,,,,,,,,,,,,,,,,,,,,,,,,,,,,,,,,,,
,,,,,,,,,,stimuli/images/PICTURE_18.png,RIVER,5eb44fb0caffba299096cc38,27/10/1993,2020-08-13_12h47.51.675,proactive2,2020.1.2,MacIntel,60,5f341be081b9052c55068110,5f3528429acb9b07781c94d3,4,,,,,,planet,,,,,,0,8,8,22,1,3,2,,,,,,,,,,,,,,,,,,,,,,,,,,,,,,,,,,,,,,,,,,,,,,,,,,,,,,,,,,,,,,,,,,,,,,,,,,,,,,,,,,,,,,,,,,,,,,,,,,,
,,,,,,,,,,stimuli/images/PICTURE_688.png,CLOCK,5eb44fb0caffba299096cc38,27/10/1993,2020-08-13_12h47.51.675,proactive2,2020.1.2,MacIntel,60,5f341be081b9052c55068110,5f3528429acb9b07781c94d3,4,,,,,,runner,,,,,,0,9,9,42,1,5,2,,,,,,,,,,,,,,,,,,,,,,,,,,,,,,,,,,,,,,,,,,,,,,,,,,,,,,,,,,,,,,,,,,,,,,,,,,,,,,,,,,,,,,,,,,,,,,,,,,,
,,,,,,,,,,stimuli/images/PICTURE_677.png,FAMILY,5eb44fb0caffba299096cc38,27/10/1993,2020-08-13_12h47.51.675,proactive2,2020.1.2,MacIntel,60,5f341be081b9052c55068110,5f3528429acb9b07781c94d3,4,,,,,,map,,,,,,0,10,10,53,1,6,2,,,,,,,,,,,,,,,,,,,,,,,,,,,,,,,,,,,,,,,,,,,,,,,,,,,,,,,,,,,,,,,,,,,,,,,,,,,,,,,,,,,,,,,,,,,,,,,,,,,
,,,,,,,,,,stimuli/images/PICTURE_215.png,LEADER,5eb44fb0caffba299096cc38,27/10/1993,2020-08-13_12h47.51.675,proactive2,2020.1.2,MacIntel,60,5f341be081b9052c55068110,5f3528429acb9b07781c94d3,4,,,,,,boot,,,,,,0,11,11,43,1,5,2,,,,,,,,,,,,,,,,,,,,,,,,,,,,,,,,,,,,,,,,,,,,,,,,,,,,,,,,,,,,,,,,,,,,,,,,,,,,,,,,,,,,,,,,,,,,,,,,,,,
,,,,,,,,,,stimuli/images/PICTURE_491.png,SERIES,5eb44fb0caffba299096cc38,27/10/1993,2020-08-13_12h47.51.675,proactive2,2020.1.2,MacIntel,60,5f341be081b9052c55068110,5f3528429acb9b07781c94d3,4,,,,,,rug,,,,,,0,12,12,39,1,4,2,,,,,,,,,,,,,,,,,,,,,,,,,,,,,,,,,,,,,,,,,,,,,,,,,,,,,,,,,,,,,,,,,,,,,,,,,,,,,,,,,,,,,,,,,,,,,,,,,,,
,,,,,,,,,,stimuli/images/PICTURE_32.png,LETTER,5eb44fb0caffba299096cc38,27/10/1993,2020-08-13_12h47.51.675,proactive2,2020.1.2,MacIntel,60,5f341be081b9052c55068110,5f3528429acb9b07781c94d3,4,,,,,,crown,,,,,,0,13,13,56,1,6,2,,,,,,,,,,,,,,,,,,,,,,,,,,,,,,,,,,,,,,,,,,,,,,,,,,,,,,,,,,,,,,,,,,,,,,,,,,,,,,,,,,,,,,,,,,,,,,,,,,,
,,,,,,,,,,stimuli/images/PICTURE_147.png,LEADER,5eb44fb0caffba299096cc38,27/10/1993,2020-08-13_12h47.51.675,proactive2,2020.1.2,MacIntel,60,5f341be081b9052c55068110,5f3528429acb9b07781c94d3,4,,,,,,hanger,,,,,,0,14,14,33,1,4,2,,,,,,,,,,,,,,,,,,,,,,,,,,,,,,,,,,,,,,,,,,,,,,,,,,,,,,,,,,,,,,,,,,,,,,,,,,,,,,,,,,,,,,,,,,,,,,,,,,,
,,,,,,,,,,stimuli/images/PICTURE_487.png,ROOF,5eb44fb0caffba299096cc38,27/10/1993,2020-08-13_12h47.51.675,proactive2,2020.1.2,MacIntel,60,5f341be081b9052c55068110,5f3528429acb9b07781c94d3,4,,,,,,basket,,,,,,0,15,15,50,1,6,2,,,,,,,,,,,,,,,,,,,,,,,,,,,,,,,,,,,,,,,,,,,,,,,,,,,,,,,,,,,,,,,,,,,,,,,,,,,,,,,,,,,,,,,,,,,,,,,,,,,
,,,,,,,,,,stimuli/images/PICTURE_470.png,MOMENT,5eb44fb0caffba299096cc38,27/10/1993,2020-08-13_12h47.51.675,proactive2,2020.1.2,MacIntel,60,5f341be081b9052c55068110,5f3528429acb9b07781c94d3,4,,,,,,motorbike,,,,,,0,16,16,40,1,5,2,,,,,,,,,,,,,,,,,,,,,,,,,,,,,,,,,,,,,,,,,,,,,,,,,,,,,,,,,,,,,,,,,,,,,,,,,,,,,,,,,,,,,,,,,,,,,,,,,,,
,,,,,,,,,,stimuli/images/PICTURE_177.png,HOUSE,5eb44fb0caffba299096cc38,27/10/1993,2020-08-13_12h47.51.675,proactive2,2020.1.2,MacIntel,60,5f341be081b9052c55068110,5f3528429acb9b07781c94d3,4,,,,,,mushroom,,,,,,0,17,17,25,1,3,2,,,,,,,,,,,,,,,,,,,,,,,,,,,,,,,,,,,,,,,,,,,,,,,,,,,,,,,,,,,,,,,,,,,,,,,,,,,,,,,,,,,,,,,,,,,,,,,,,,,
,,,,,,,,,,stimuli/images/PICTURE_509.png,APPLE,5eb44fb0caffba299096cc38,27/10/1993,2020-08-13_12h47.51.675,proactive2,2020.1.2,MacIntel,60,5f341be081b9052c55068110,5f3528429acb9b07781c94d3,4,,,,,,telephone,,,,,,0,18,18,38,1,4,2,,,,,,,,,,,,,,,,,,,,,,,,,,,,,,,,,,,,,,,,,,,,,,,,,,,,,,,,,,,,,,,,,,,,,,,,,,,,,,,,,,,,,,,,,,,,,,,,,,,
,,,,,,,,,,stimuli/images/PICTURE_160.png,HOTEL,5eb44fb0caffba299096cc38,27/10/1993,2020-08-13_12h47.51.675,proactive2,2020.1.2,MacIntel,60,5f341be081b9052c55068110,5f3528429acb9b07781c94d3,4,,,,,,wheelbarrow,,,,,,0,19,19,16,1,2,2,,,,,,,,,,,,,,,,,,,,,,,,,,,,,,,,,,,,,,,,,,,,,,,,,,,,,,,,,,,,,,,,,,,,,,,,,,,,,,,,,,,,,,,,,,,,,,,,,,,
,,,,,,,,,,stimuli/images/PICTURE_655.png,SALE,5eb44fb0caffba299096cc38,27/10/1993,2020-08-13_12h47.51.675,proactive2,2020.1.2,MacIntel,60,5f341be081b9052c55068110,5f3528429acb9b07781c94d3,4,,,,,,megaphone,,,,,,0,20,20,57,1,6,2,,,,,,,,,,,,,,,,,,,,,,,,,,,,,,,,,,,,,,,,,,,,,,,,,,,,,,,,,,,,,,,,,,,,,,,,,,,,,,,,,,,,,,,,,,,,,,,,,,,
,,,,,,,,,,stimuli/images/PICTURE_215.png,BOYS,5eb44fb0caffba299096cc38,27/10/1993,2020-08-13_12h47.51.675,proactive2,2020.1.2,MacIntel,60,5f341be081b9052c55068110,5f3528429acb9b07781c94d3,4,,,,,,boot,,,,,,0,21,21,24,1,3,2,,,,,,,,,,,,,,,,,,,,,,,,,,,,,,,,,,,,,,,,,,,,,,,,,,,,,,,,,,,,,,,,,,,,,,,,,,,,,,,,,,,,,,,,,,,,,,,,,,,
,,,,,,,,,,stimuli/images/PICTURE_677.png,PHOTO,5eb44fb0caffba299096cc38,27/10/1993,2020-08-13_12h47.51.675,proactive2,2020.1.2,MacIntel,60,5f341be081b9052c55068110,5f3528429acb9b07781c94d3,4,,,,,,map,,,,,,0,22,22,14,1,2,2,,,,,,,,,,,,,,,,,,,,,,,,,,,,,,,,,,,,,,,,,,,,,,,,,,,,,,,,,,,,,,,,,,,,,,,,,,,,,,,,,,,,,,,,,,,,,,,,,,,
,,,,,,,,,,stimuli/images/PICTURE_654.png,YEAR,5eb44fb0caffba299096cc38,27/10/1993,2020-08-13_12h47.51.675,proactive2,2020.1.2,MacIntel,60,5f341be081b9052c55068110,5f3528429acb9b07781c94d3,4,,,,,,pencil,,,,,,0,23,23,41,1,5,2,,,,,,,,,,,,,,,,,,,,,,,,,,,,,,,,,,,,,,,,,,,,,,,,,,,,,,,,,,,,,,,,,,,,,,,,,,,,,,,,,,,,,,,,,,,,,,,,,,,
,,,,,,,,,,stimuli/images/PICTURE_452.png,COPS,5eb44fb0caffba299096cc38,27/10/1993,2020-08-13_12h47.51.675,proactive2,2020.1.2,MacIntel,60,5f341be081b9052c55068110,5f3528429acb9b07781c94d3,4,,,,,,watch,,,,,,0,24,24,0,1,1,2,,,,,,,,,,,,,,,,,,,,,,,,,,,,,,,,,,,,,,,,,,,,,,,,,,,,,,,,,,,,,,,,,,,,,,,,,,,,,,,,,,,,,,,,,,,,,,,,,,,
,,,,,,,,,,stimuli/images/PICTURE_470.png,BEAUTY,5eb44fb0caffba299096cc38,27/10/1993,2020-08-13_12h47.51.675,proactive2,2020.1.2,MacIntel,60,5f341be081b9052c55068110,5f3528429acb9b07781c94d3,4,,,,,,motorbike,,,,,,0,25,25,26,1,3,2,,,,,,,,,,,,,,,,,,,,,,,,,,,,,,,,,,,,,,,,,,,,,,,,,,,,,,,,,,,,,,,,,,,,,,,,,,,,,,,,,,,,,,,,,,,,,,,,,,,
,,,,,,,,,,stimuli/images/PICTURE_311.png,TOILET,5eb44fb0caffba299096cc38,27/10/1993,2020-08-13_12h47.51.675,proactive2,2020.1.2,MacIntel,60,5f341be081b9052c55068110,5f3528429acb9b07781c94d3,4,,,,,,razor,,,,,,0,26,26,54,1,6,2,,,,,,,,,,,,,,,,,,,,,,,,,,,,,,,,,,,,,,,,,,,,,,,,,,,,,,,,,,,,,,,,,,,,,,,,,,,,,,,,,,,,,,,,,,,,,,,,,,,
,,,,,,,,,,stimuli/images/PICTURE_356.png,CANDY,5eb44fb0caffba299096cc38,27/10/1993,2020-08-13_12h47.51.675,proactive2,2020.1.2,MacIntel,60,5f341be081b9052c55068110,5f3528429acb9b07781c94d3,4,,,,,,pawn,,,,,,0,27,27,46,1,5,2,,,,,,,,,,,,,,,,,,,,,,,,,,,,,,,,,,,,,,,,,,,,,,,,,,,,,,,,,,,,,,,,,,,,,,,,,,,,,,,,,,,,,,,,,,,,,,,,,,,
,,,,,,,,,,stimuli/images/PICTURE_509.png,MILLER,5eb44fb0caffba299096cc38,27/10/1993,2020-08-13_12h47.51.675,proactive2,2020.1.2,MacIntel,60,5f341be081b9052c55068110,5f3528429acb9b07781c94d3,4,,,,,,telephone,,,,,,0,28,28,49,1,5,2,,,,,,,,,,,,,,,,,,,,,,,,,,,,,,,,,,,,,,,,,,,,,,,,,,,,,,,,,,,,,,,,,,,,,,,,,,,,,,,,,,,,,,,,,,,,,,,,,,,
,,,,,,,,,,stimuli/images/PICTURE_750.png,POLICY,5eb44fb0caffba299096cc38,27/10/1993,2020-08-13_12h47.51.675,proactive2,2020.1.2,MacIntel,60,5f341be081b9052c55068110,5f3528429acb9b07781c94d3,4,,,,,,kettle,,,,,,0,29,29,44,1,5,2,,,,,,,,,,,,,,,,,,,,,,,,,,,,,,,,,,,,,,,,,,,,,,,,,,,,,,,,,,,,,,,,,,,,,,,,,,,,,,,,,,,,,,,,,,,,,,,,,,,
,,,,,,,,,,stimuli/images/PICTURE_311.png,FLESH,5eb44fb0caffba299096cc38,27/10/1993,2020-08-13_12h47.51.675,proactive2,2020.1.2,MacIntel,60,5f341be081b9052c55068110,5f3528429acb9b07781c94d3,4,,,,,,razor,,,,,,0,30,30,3,1,1,2,,,,,,,,,,,,,,,,,,,,,,,,,,,,,,,,,,,,,,,,,,,,,,,,,,,,,,,,,,,,,,,,,,,,,,,,,,,,,,,,,,,,,,,,,,,,,,,,,,,
,,,,,,,,,,stimuli/images/PICTURE_255.png,PENNY,5eb44fb0caffba299096cc38,27/10/1993,2020-08-13_12h47.51.675,proactive2,2020.1.2,MacIntel,60,5f341be081b9052c55068110,5f3528429acb9b07781c94d3,4,,,,,,shovel,,,,,,0,31,31,19,1,2,2,,,,,,,,,,,,,,,,,,,,,,,,,,,,,,,,,,,,,,,,,,,,,,,,,,,,,,,,,,,,,,,,,,,,,,,,,,,,,,,,,,,,,,,,,,,,,,,,,,,
,,,,,,,,,,stimuli/images/PICTURE_68.png,KIND,5eb44fb0caffba299096cc38,27/10/1993,2020-08-13_12h47.51.675,proactive2,2020.1.2,MacIntel,60,5f341be081b9052c55068110,5f3528429acb9b07781c94d3,4,,,,,,candle,,,,,,0,32,32,23,1,3,2,,,,,,,,,,,,,,,,,,,,,,,,,,,,,,,,,,,,,,,,,,,,,,,,,,,,,,,,,,,,,,,,,,,,,,,,,,,,,,,,,,,,,,,,,,,,,,,,,,,
,,,,,,,,,,stimuli/images/PICTURE_141.png,CLIENT,5eb44fb0caffba299096cc38,27/10/1993,2020-08-13_12h47.51.675,proactive2,2020.1.2,MacIntel,60,5f341be081b9052c55068110,5f3528429acb9b07781c94d3,4,,,,,,sunflower,,,,,,0,33,33,30,1,4,2,,,,,,,,,,,,,,,,,,,,,,,,,,,,,,,,,,,,,,,,,,,,,,,,,,,,,,,,,,,,,,,,,,,,,,,,,,,,,,,,,,,,,,,,,,,,,,,,,,,
,,,,,,,,,,stimuli/images/PICTURE_509.png,BATH,5eb44fb0caffba299096cc38,27/10/1993,2020-08-13_12h47.51.675,proactive2,2020.1.2,MacIntel,60,5f341be081b9052c55068110,5f3528429acb9b07781c94d3,4,,,,,,telephone,,,,,,0,34,34,15,1,2,2,,,,,,,,,,,,,,,,,,,,,,,,,,,,,,,,,,,,,,,,,,,,,,,,,,,,,,,,,,,,,,,,,,,,,,,,,,,,,,,,,,,,,,,,,,,,,,,,,,,
,,,,,,,,,,stimuli/images/PICTURE_296.png,CLOCK,5eb44fb0caffba299096cc38,27/10/1993,2020-08-13_12h47.51.675,proactive2,2020.1.2,MacIntel,60,5f341be081b9052c55068110,5f3528429acb9b07781c94d3,4,,,,,,bolt,,,,,,0,35,35,18,1,2,2,,,,,,,,,,,,,,,,,,,,,,,,,,,,,,,,,,,,,,,,,,,,,,,,,,,,,,,,,,,,,,,,,,,,,,,,,,,,,,,,,,,,,,,,,,,,,,,,,,,
,,,,,,,,,,stimuli/images/PICTURE_405.png,HOUSE,5eb44fb0caffba299096cc38,27/10/1993,2020-08-13_12h47.51.675,proactive2,2020.1.2,MacIntel,60,5f341be081b9052c55068110,5f3528429acb9b07781c94d3,4,,,,,,anchor,,,,,,0,36,36,2,1,1,2,,,,,,,,,,,,,,,,,,,,,,,,,,,,,,,,,,,,,,,,,,,,,,,,,,,,,,,,,,,,,,,,,,,,,,,,,,,,,,,,,,,,,,,,,,,,,,,,,,,
,,,,,,,,,,stimuli/images/PICTURE_57.png,NATION,5eb44fb0caffba299096cc38,27/10/1993,2020-08-13_12h47.51.675,proactive2,2020.1.2,MacIntel,60,5f341be081b9052c55068110,5f3528429acb9b07781c94d3,4,,,,,,stamp,,,,,,0,37,37,21,1,3,2,,,,,,,,,,,,,,,,,,,,,,,,,,,,,,,,,,,,,,,,,,,,,,,,,,,,,,,,,,,,,,,,,,,,,,,,,,,,,,,,,,,,,,,,,,,,,,,,,,,
,,,,,,,,,,stimuli/images/PICTURE_285.png,WRITER,5eb44fb0caffba299096cc38,27/10/1993,2020-08-13_12h47.51.675,proactive2,2020.1.2,MacIntel,60,5f341be081b9052c55068110,5f3528429acb9b07781c94d3,4,,,,,,carrot,,,,,,0,38,38,6,1,1,2,,,,,,,,,,,,,,,,,,,,,,,,,,,,,,,,,,,,,,,,,,,,,,,,,,,,,,,,,,,,,,,,,,,,,,,,,,,,,,,,,,,,,,,,,,,,,,,,,,,
,,,,,,,,,,stimuli/images/PICTURE_57.png,CASINO,5eb44fb0caffba299096cc38,27/10/1993,2020-08-13_12h47.51.675,proactive2,2020.1.2,MacIntel,60,5f341be081b9052c55068110,5f3528429acb9b07781c94d3,4,,,,,,stamp,,,,,,0,39,39,12,1,2,2,,,,,,,,,,,,,,,,,,,,,,,,,,,,,,,,,,,,,,,,,,,,,,,,,,,,,,,,,,,,,,,,,,,,,,,,,,,,,,,,,,,,,,,,,,,,,,,,,,,
,,,,,,,,,,stimuli/images/PICTURE_405.png,JUNGLE,5eb44fb0caffba299096cc38,27/10/1993,2020-08-13_12h47.51.675,proactive2,2020.1.2,MacIntel,60,5f341be081b9052c55068110,5f3528429acb9b07781c94d3,4,,,,,,anchor,,,,,,0,40,40,13,1,2,2,,,,,,,,,,,,,,,,,,,,,,,,,,,,,,,,,,,,,,,,,,,,,,,,,,,,,,,,,,,,,,,,,,,,,,,,,,,,,,,,,,,,,,,,,,,,,,,,,,,
,,,,,,,,,,stimuli/images/PICTURE_692.png,DUDE,5eb44fb0caffba299096cc38,27/10/1993,2020-08-13_12h47.51.675,proactive2,2020.1.2,MacIntel,60,5f341be081b9052c55068110,5f3528429acb9b07781c94d3,4,,,,,,cherry,,,,,,0,41,41,47,1,5,2,,,,,,,,,,,,,,,,,,,,,,,,,,,,,,,,,,,,,,,,,,,,,,,,,,,,,,,,,,,,,,,,,,,,,,,,,,,,,,,,,,,,,,,,,,,,,,,,,,,
,,,,,,,,,,stimuli/images/PICTURE_667.png,GLASS,5eb44fb0caffba299096cc38,27/10/1993,2020-08-13_12h47.51.675,proactive2,2020.1.2,MacIntel,60,5f341be081b9052c55068110,5f3528429acb9b07781c94d3,4,,,,,,daisy,,,,,,0,42,42,27,1,3,2,,,,,,,,,,,,,,,,,,,,,,,,,,,,,,,,,,,,,,,,,,,,,,,,,,,,,,,,,,,,,,,,,,,,,,,,,,,,,,,,,,,,,,,,,,,,,,,,,,,
,,,,,,,,,,stimuli/images/PICTURE_2.png,JUNGLE,5eb44fb0caffba299096cc38,27/10/1993,2020-08-13_12h47.51.675,proactive2,2020.1.2,MacIntel,60,5f341be081b9052c55068110,5f3528429acb9b07781c94d3,4,,,,,,tyre,,,,,,0,43,43,1,1,1,2,,,,,,,,,,,,,,,,,,,,,,,,,,,,,,,,,,,,,,,,,,,,,,,,,,,,,,,,,,,,,,,,,,,,,,,,,,,,,,,,,,,,,,,,,,,,,,,,,,,
,,,,,,,,,,stimuli/images/PICTURE_403.png,FAMILY,5eb44fb0caffba299096cc38,27/10/1993,2020-08-13_12h47.51.675,proactive2,2020.1.2,MacIntel,60,5f341be081b9052c55068110,5f3528429acb9b07781c94d3,4,,,,,,cathedral,,,,,,0,44,44,9,1,1,2,,,,,,,,,,,,,,,,,,,,,,,,,,,,,,,,,,,,,,,,,,,,,,,,,,,,,,,,,,,,,,,,,,,,,,,,,,,,,,,,,,,,,,,,,,,,,,,,,,,
,,,,,,,,,,stimuli/images/PICTURE_314.png,SPEECH,5eb44fb0caffba299096cc38,27/10/1993,2020-08-13_12h47.51.675,proactive2,2020.1.2,MacIntel,60,5f341be081b9052c55068110,5f3528429acb9b07781c94d3,4,,,,,,perfume,,,,,,0,45,45,35,1,4,2,,,,,,,,,,,,,,,,,,,,,,,,,,,,,,,,,,,,,,,,,,,,,,,,,,,,,,,,,,,,,,,,,,,,,,,,,,,,,,,,,,,,,,,,,,,,,,,,,,,
,,,,,,,,,,stimuli/images/PICTURE_2.png,AREA,5eb44fb0caffba299096cc38,27/10/1993,2020-08-13_12h47.51.675,proactive2,2020.1.2,MacIntel,60,5f341be081b9052c55068110,5f3528429acb9b07781c94d3,4,,,,,,tyre,,,,,,0,46,46,32,1,4,2,,,,,,,,,,,,,,,,,,,,,,,,,,,,,,,,,,,,,,,,,,,,,,,,,,,,,,,,,,,,,,,,,,,,,,,,,,,,,,,,,,,,,,,,,,,,,,,,,,,
,,,,,,,,,,stimuli/images/PICTURE_33.png,COPS,5eb44fb0caffba299096cc38,27/10/1993,2020-08-13_12h47.51.675,proactive2,2020.1.2,MacIntel,60,5f341be081b9052c55068110,5f3528429acb9b07781c94d3,4,,,,,,frame,,,,,,0,47,47,29,1,3,2,,,,,,,,,,,,,,,,,,,,,,,,,,,,,,,,,,,,,,,,,,,,,,,,,,,,,,,,,,,,,,,,,,,,,,,,,,,,,,,,,,,,,,,,,,,,,,,,,,,
,,,,,,,,,,stimuli/images/PICTURE_405.png,JUNGLE,5eb44fb0caffba299096cc38,27/10/1993,2020-08-13_12h47.51.675,proactive2,2020.1.2,MacIntel,60,5f341be081b9052c55068110,5f3528429acb9b07781c94d3,4,,,,,,anchor,,,,,,0,48,48,58,1,6,2,,,,,,,,,,,,,,,,,,,,,,,,,,,,,,,,,,,,,,,,,,,,,,,,,,,,,,,,,,,,,,,,,,,,,,,,,,,,,,,,,,,,,,,,,,,,,,,,,,,
,,,,,,,,,,stimuli/images/PICTURE_708.png,VALLEY,5eb44fb0caffba299096cc38,27/10/1993,2020-08-13_12h47.51.675,proactive2,2020.1.2,MacIntel,60,5f341be081b9052c55068110,5f3528429acb9b07781c94d3,4,,,,,,monkey,,,,,,0,49,49,45,1,5,2,,,,,,,,,,,,,,,,,,,,,,,,,,,,,,,,,,,,,,,,,,,,,,,,,,,,,,,,,,,,,,,,,,,,,,,,,,,,,,,,,,,,,,,,,,,,,,,,,,,
,,,,,,,,,,stimuli/images/PICTURE_285.png,PRINCE,5eb44fb0caffba299096cc38,27/10/1993,2020-08-13_12h47.51.675,proactive2,2020.1.2,MacIntel,60,5f341be081b9052c55068110,5f3528429acb9b07781c94d3,4,,,,,,carrot,,,,,,0,50,50,20,1,3,2,,,,,,,,,,,,,,,,,,,,,,,,,,,,,,,,,,,,,,,,,,,,,,,,,,,,,,,,,,,,,,,,,,,,,,,,,,,,,,,,,,,,,,,,,,,,,,,,,,,
,,,,,,,,,,stimuli/images/PICTURE_215.png,FOOD,5eb44fb0caffba299096cc38,27/10/1993,2020-08-13_12h47.51.675,proactive2,2020.1.2,MacIntel,60,5f341be081b9052c55068110,5f3528429acb9b07781c94d3,4,,,,,,boot,,,,,,0,51,51,5,1,1,2,,,,,,,,,,,,,,,,,,,,,,,,,,,,,,,,,,,,,,,,,,,,,,,,,,,,,,,,,,,,,,,,,,,,,,,,,,,,,,,,,,,,,,,,,,,,,,,,,,,
,,,,,,,,,,stimuli/images/PICTURE_487.png,POLICY,5eb44fb0caffba299096cc38,27/10/1993,2020-08-13_12h47.51.675,proactive2,2020.1.2,MacIntel,60,5f341be081b9052c55068110,5f3528429acb9b07781c94d3,4,,,,,,basket,,,,,,0,52,52,34,1,4,2,,,,,,,,,,,,,,,,,,,,,,,,,,,,,,,,,,,,,,,,,,,,,,,,,,,,,,,,,,,,,,,,,,,,,,,,,,,,,,,,,,,,,,,,,,,,,,,,,,,
,,,,,,,,,,stimuli/images/PICTURE_297.png,BODY,5eb44fb0caffba299096cc38,27/10/1993,2020-08-13_12h47.51.675,proactive2,2020.1.2,MacIntel,60,5f341be081b9052c55068110,5f3528429acb9b07781c94d3,4,,,,,,aeroplane,,,,,,0,53,53,51,1,6,2,,,,,,,,,,,,,,,,,,,,,,,,,,,,,,,,,,,,,,,,,,,,,,,,,,,,,,,,,,,,,,,,,,,,,,,,,,,,,,,,,,,,,,,,,,,,,,,,,,,
,,,,,,,,,,stimuli/images/PICTURE_208.png,SPIRIT,5eb44fb0caffba299096cc38,27/10/1993,2020-08-13_12h47.51.675,proactive2,2020.1.2,MacIntel,60,5f341be081b9052c55068110,5f3528429acb9b07781c94d3,4,,,,,,microphone,,,,,,0,54,54,28,1,3,2,,,,,,,,,,,,,,,,,,,,,,,,,,,,,,,,,,,,,,,,,,,,,,,,,,,,,,,,,,,,,,,,,,,,,,,,,,,,,,,,,,,,,,,,,,,,,,,,,,,
,,,,,,,,,,stimuli/images/PICTURE_509.png,SHOTS,5eb44fb0caffba299096cc38,27/10/1993,2020-08-13_12h47.51.675,proactive2,2020.1.2,MacIntel,60,5f341be081b9052c55068110,5f3528429acb9b07781c94d3,4,,,,,,telephone,,,,,,0,55,55,7,1,1,2,,,,,,,,,,,,,,,,,,,,,,,,,,,,,,,,,,,,,,,,,,,,,,,,,,,,,,,,,,,,,,,,,,,,,,,,,,,,,,,,,,,,,,,,,,,,,,,,,,,
,,,,,,,,,,stimuli/images/PICTURE_123.png,SALE,5eb44fb0caffba299096cc38,27/10/1993,2020-08-13_12h47.51.675,proactive2,2020.1.2,MacIntel,60,5f341be081b9052c55068110,5f3528429acb9b07781c94d3,4,,,,,,dart,,,,,,0,56,56,8,1,1,2,,,,,,,,,,,,,,,,,,,,,,,,,,,,,,,,,,,,,,,,,,,,,,,,,,,,,,,,,,,,,,,,,,,,,,,,,,,,,,,,,,,,,,,,,,,,,,,,,,,
,,,,,,,,,,stimuli/images/PICTURE_348.png,DUDE,5eb44fb0caffba299096cc38,27/10/1993,2020-08-13_12h47.51.675,proactive2,2020.1.2,MacIntel,60,5f341be081b9052c55068110,5f3528429acb9b07781c94d3,4,,,,,,pepper,,,,,,0,57,57,59,1,6,2,,,,,,,,,,,,,,,,,,,,,,,,,,,,,,,,,,,,,,,,,,,,,,,,,,,,,,,,,,,,,,,,,,,,,,,,,,,,,,,,,,,,,,,,,,,,,,,,,,,
,,,,,,,,,,stimuli/images/PICTURE_2.png,YARD,5eb44fb0caffba299096cc38,27/10/1993,2020-08-13_12h47.51.675,proactive2,2020.1.2,MacIntel,60,5f341be081b9052c55068110,5f3528429acb9b07781c94d3,4,,,,,,tyre,,,,,,0,58,58,55,1,6,2,,,,,,,,,,,,,,,,,,,,,,,,,,,,,,,,,,,,,,,,,,,,,,,,,,,,,,,,,,,,,,,,,,,,,,,,,,,,,,,,,,,,,,,,,,,,,,,,,,,
,,?,0.002,0,,,,,,stimuli/images/PICTURE_677.png,PHOTO,5eb44fb0caffba299096cc38,27/10/1993,2020-08-13_12h47.51.675,proactive2,2020.1.2,MacIntel,60,5f341be081b9052c55068110,5f3528429acb9b07781c94d3,4,,,,,,map,,,,,,,,,,,2,2,0,0,0,14,1,,,,,,,,,,,,,,,,,,,,,,,,,,,,,,,,,,,,,,,,,,,,,,,,,,,,,,,,,,,,,,,,,,,,,,,,,,,,,,,,,,,,,,,,,,,,,,
,,?,0.001,0,,,,,,stimuli/images/PICTURE_57.png,NATION,5eb44fb0caffba299096cc38,27/10/1993,2020-08-13_12h47.51.675,proactive2,2020.1.2,MacIntel,60,5f341be081b9052c55068110,5f3528429acb9b07781c94d3,4,,,,,,stamp,,,,,,,,,,,3,2,0,1,1,21,1,,,,,,,,,,,,,,,,,,,,,,,,,,,,,,,,,,,,,,,,,,,,,,,,,,,,,,,,,,,,,,,,,,,,,,,,,,,,,,,,,,,,,,,,,,,,,,
,,NIGHT,3.122,1,,,,,,stimuli/images/PICTURE_95.png,NIGHT,5eb44fb0caffba299096cc38,27/10/1993,2020-08-13_12h47.51.675,proactive2,2020.1.2,MacIntel,60,5f341be081b9052c55068110,5f3528429acb9b07781c94d3,4,,,,,,suitcase,,,,,,,,,,,4,2,0,2,2,37,1,,,,,,,,,,,,,,,,,,,,,,,,,,,,,,,,,,,,,,,,,,,,,,,,,,,,,,,,,,,,,,,,,,,,,,,,,,,,,,,,,,,,,,,,,,,,,,
,,?,0.001,0,,,,,,stimuli/images/PICTURE_356.png,CANDY,5eb44fb0caffba299096cc38,27/10/1993,2020-08-13_12h47.51.675,proactive2,2020.1.2,MacIntel,60,5f341be081b9052c55068110,5f3528429acb9b07781c94d3,4,,,,,,pawn,,,,,,,,,,,5,2,0,3,3,46,1,,,,,,,,,,,,,,,,,,,,,,,,,,,,,,,,,,,,,,,,,,,,,,,,,,,,,,,,,,,,,,,,,,,,,,,,,,,,,,,,,,,,,,,,,,,,,,
,,?,0.001,0,,,,,,stimuli/images/PICTURE_311.png,TOILET,5eb44fb0caffba299096cc38,27/10/1993,2020-08-13_12h47.51.675,proactive2,2020.1.2,MacIntel,60,5f341be081b9052c55068110,5f3528429acb9b07781c94d3,4,,,,,,razor,,,,,,,,,,,6,2,0,4,4,54,1,,,,,,,,,,,,,,,,,,,,,,,,,,,,,,,,,,,,,,,,,,,,,,,,,,,,,,,,,,,,,,,,,,,,,,,,,,,,,,,,,,,,,,,,,,,,,,
,,?,0,0,,,,,,stimuli/images/PICTURE_57.png,CASINO,5eb44fb0caffba299096cc38,27/10/1993,2020-08-13_12h47.51.675,proactive2,2020.1.2,MacIntel,60,5f341be081b9052c55068110,5f3528429acb9b07781c94d3,4,,,,,,stamp,,,,,,,,,,,2,2,0,5,5,12,1,,,,,,,,,,,,,,,,,,,,,,,,,,,,,,,,,,,,,,,,,,,,,,,,,,,,,,,,,,,,,,,,,,,,,,,,,,,,,,,,,,,,,,,,,,,,,,
,,?,0.001,0,,,,,,stimuli/images/PICTURE_667.png,GLASS,5eb44fb0caffba299096cc38,27/10/1993,2020-08-13_12h47.51.675,proactive2,2020.1.2,MacIntel,60,5f341be081b9052c55068110,5f3528429acb9b07781c94d3,4,,,,,,daisy,,,,,,,,,,,3,2,0,6,6,27,1,,,,,,,,,,,,,,,,,,,,,,,,,,,,,,,,,,,,,,,,,,,,,,,,,,,,,,,,,,,,,,,,,,,,,,,,,,,,,,,,,,,,,,,,,,,,,,
,,?,0,0,,,,,,stimuli/images/PICTURE_403.png,FAMILY,5eb44fb0caffba299096cc38,27/10/1993,2020-08-13_12h47.51.675,proactive2,2020.1.2,MacIntel,60,5f341be081b9052c55068110,5f3528429acb9b07781c94d3,4,,,,,,cathedral,,,,,,,,,,,1,2,0,7,7,9,1,,,,,,,,,,,,,,,,,,,,,,,,,,,,,,,,,,,,,,,,,,,,,,,,,,,,,,,,,,,,,,,,,,,,,,,,,,,,,,,,,,,,,,,,,,,,,,
,,?,0.001,0,,,,,,stimuli/images/PICTURE_18.png,RIVER,5eb44fb0caffba299096cc38,27/10/1993,2020-08-13_12h47.51.675,proactive2,2020.1.2,MacIntel,60,5f341be081b9052c55068110,5f3528429acb9b07781c94d3,4,,,,,,planet,,,,,,,,,,,3,2,0,8,8,22,1,,,,,,,,,,,,,,,,,,,,,,,,,,,,,,,,,,,,,,,,,,,,,,,,,,,,,,,,,,,,,,,,,,,,,,,,,,,,,,,,,,,,,,,,,,,,,,
,,?,0,0,,,,,,stimuli/images/PICTURE_487.png,ROOF,5eb44fb0caffba299096cc38,27/10/1993,2020-08-13_12h47.51.675,proactive2,2020.1.2,MacIntel,60,5f341be081b9052c55068110,5f3528429acb9b07781c94d3,4,,,,,,basket,,,,,,,,,,,6,2,0,9,9,50,1,,,,,,,,,,,,,,,,,,,,,,,,,,,,,,,,,,,,,,,,,,,,,,,,,,,,,,,,,,,,,,,,,,,,,,,,,,,,,,,,,,,,,,,,,,,,,,
,,?,0,0,,,,,,stimuli/images/PICTURE_297.png,BODY,5eb44fb0caffba299096cc38,27/10/1993,2020-08-13_12h47.51.675,proactive2,2020.1.2,MacIntel,60,5f341be081b9052c55068110,5f3528429acb9b07781c94d3,4,,,,,,aeroplane,,,,,,,,,,,6,2,0,10,10,51,1,,,,,,,,,,,,,,,,,,,,,,,,,,,,,,,,,,,,,,,,,,,,,,,,,,,,,,,,,,,,,,,,,,,,,,,,,,,,,,,,,,,,,,,,,,,,,,
,,POLICY,4.537,1,,,,,,stimuli/images/PICTURE_487.png,POLICY,5eb44fb0caffba299096cc38,27/10/1993,2020-08-13_12h47.51.675,proactive2,2020.1.2,MacIntel,60,5f341be081b9052c55068110,5f3528429acb9b07781c94d3,4,,,,,,basket,,,,,,,,,,,4,2,0,11,11,34,1,,,,,,,,,,,,,,,,,,,,,,,,,,,,,,,,,,,,,,,,,,,,,,,,,,,,,,,,,,,,,,,,,,,,,,,,,,,,,,,,,,,,,,,,,,,,,,
,,?,0.001,0,,,,,,stimuli/images/PICTURE_564.png,PLENTY,5eb44fb0caffba299096cc38,27/10/1993,2020-08-13_12h47.51.675,proactive2,2020.1.2,MacIntel,60,5f341be081b9052c55068110,5f3528429acb9b07781c94d3,4,,,,,,spoon,,,,,,,,,,,2,2,0,12,12,11,1,,,,,,,,,,,,,,,,,,,,,,,,,,,,,,,,,,,,,,,,,,,,,,,,,,,,,,,,,,,,,,,,,,,,,,,,,,,,,,,,,,,,,,,,,,,,,,
,,LEADER,4.514,1,,,,,,stimuli/images/PICTURE_147.png,LEADER,5eb44fb0caffba299096cc38,27/10/1993,2020-08-13_12h47.51.675,proactive2,2020.1.2,MacIntel,60,5f341be081b9052c55068110,5f3528429acb9b07781c94d3,4,,,,,,hanger,,,,,,,,,,,4,2,0,13,13,33,1,,,,,,,,,,,,,,,,,,,,,,,,,,,,,,,,,,,,,,,,,,,,,,,,,,,,,,,,,,,,,,,,,,,,,,,,,,,,,,,,,,,,,,,,,,,,,,
,,?,0.001,0,,,,,,stimuli/images/PICTURE_215.png,BOYS,5eb44fb0caffba299096cc38,27/10/1993,2020-08-13_12h47.51.675,proactive2,2020.1.2,MacIntel,60,5f341be081b9052c55068110,5f3528429acb9b07781c94d3,4,,,,,,boot,,,,,,,,,,,3,2,0,14,14,24,1,,,,,,,,,,,,,,,,,,,,,,,,,,,,,,,,,,,,,,,,,,,,,,,,,,,,,,,,,,,,,,,,,,,,,,,,,,,,,,,,,,,,,,,,,,,,,,
,,?,0.001,0,,,,,,stimuli/images/PICTURE_255.png,PENNY,5eb44fb0caffba299096cc38,27/10/1993,2020-08-13_12h47.51.675,proactive2,2020.1.2,MacIntel,60,5f341be081b9052c55068110,5f3528429acb9b07781c94d3,4,,,,,,shovel,,,,,,,,,,,2,2,0,15,15,19,1,,,,,,,,,,,,,,,,,,,,,,,,,,,,,,,,,,,,,,,,,,,,,,,,,,,,,,,,,,,,,,,,,,,,,,,,,,,,,,,,,,,,,,,,,,,,,,
,,APPLE,3.445,1,,,,,,stimuli/images/PICTURE_509.png,APPLE,5eb44fb0caffba299096cc38,27/10/1993,2020-08-13_12h47.51.675,proactive2,2020.1.2,MacIntel,60,5f341be081b9052c55068110,5f3528429acb9b07781c94d3,4,,,,,,telephone,,,,,,,,,,,4,2,0,16,16,38,1,,,,,,,,,,,,,,,,,,,,,,,,,,,,,,,,,,,,,,,,,,,,,,,,,,,,,,,,,,,,,,,,,,,,,,,,,,,,,,,,,,,,,,,,,,,,,,
,,?,0.004,0,,,,,,stimuli/images/PICTURE_405.png,JUNGLE,5eb44fb0caffba299096cc38,27/10/1993,2020-08-13_12h47.51.675,proactive2,2020.1.2,MacIntel,60,5f341be081b9052c55068110,5f3528429acb9b07781c94d3,4,,,,,,anchor,,,,,,,,,,,2,2,0,17,17,13,1,,,,,,,,,,,,,,,,,,,,,,,,,,,,,,,,,,,,,,,,,,,,,,,,,,,,,,,,,,,,,,,,,,,,,,,,,,,,,,,,,,,,,,,,,,,,,,
,,?,0.001,0,,,,,,stimuli/images/PICTURE_750.png,POLICY,5eb44fb0caffba299096cc38,27/10/1993,2020-08-13_12h47.51.675,proactive2,2020.1.2,MacIntel,60,5f341be081b9052c55068110,5f3528429acb9b07781c94d3,4,,,,,,kettle,,,,,,,,,,,5,2,0,18,18,44,1,,,,,,,,,,,,,,,,,,,,,,,,,,,,,,,,,,,,,,,,,,,,,,,,,,,,,,,,,,,,,,,,,,,,,,,,,,,,,,,,,,,,,,,,,,,,,,
,,?,0.001,0,,,,,,stimuli/images/PICTURE_509.png,MILLER,5eb44fb0caffba299096cc38,27/10/1993,2020-08-13_12h47.51.675,proactive2,2020.1.2,MacIntel,60,5f341be081b9052c55068110,5f3528429acb9b07781c94d3,4,,,,,,telephone,,,,,,,,,,,5,2,0,19,19,49,1,,,,,,,,,,,,,,,,,,,,,,,,,,,,,,,,,,,,,,,,,,,,,,,,,,,,,,,,,,,,,,,,,,,,,,,,,,,,,,,,,,,,,,,,,,,,,,
,,?,0,0,,,,,,stimuli/images/PICTURE_348.png,TOILET,5eb44fb0caffba299096cc38,27/10/1993,2020-08-13_12h47.51.675,proactive2,2020.1.2,MacIntel,60,5f341be081b9052c55068110,5f3528429acb9b07781c94d3,4,,,,,,pepper,,,,,,,,,,,1,2,0,20,20,4,1,,,,,,,,,,,,,,,,,,,,,,,,,,,,,,,,,,,,,,,,,,,,,,,,,,,,,,,,,,,,,,,,,,,,,,,,,,,,,,,,,,,,,,,,,,,,,,
,,?,0,0,,,,,,stimuli/images/PICTURE_311.png,FLESH,5eb44fb0caffba299096cc38,27/10/1993,2020-08-13_12h47.51.675,proactive2,2020.1.2,MacIntel,60,5f341be081b9052c55068110,5f3528429acb9b07781c94d3,4,,,,,,razor,,,,,,,,,,,1,2,0,21,21,3,1,,,,,,,,,,,,,,,,,,,,,,,,,,,,,,,,,,,,,,,,,,,,,,,,,,,,,,,,,,,,,,,,,,,,,,,,,,,,,,,,,,,,,,,,,,,,,,
,,?,0,0,,,,,,stimuli/images/PICTURE_655.png,SALE,5eb44fb0caffba299096cc38,27/10/1993,2020-08-13_12h47.51.675,proactive2,2020.1.2,MacIntel,60,5f341be081b9052c55068110,5f3528429acb9b07781c94d3,4,,,,,,megaphone,,,,,,,,,,,6,2,0,22,22,57,1,,,,,,,,,,,,,,,,,,,,,,,,,,,,,,,,,,,,,,,,,,,,,,,,,,,,,,,,,,,,,,,,,,,,,,,,,,,,,,,,,,,,,,,,,,,,,,
,,?,0.001,0,,,,,,stimuli/images/PICTURE_33.png,COPS,5eb44fb0caffba299096cc38,27/10/1993,2020-08-13_12h47.51.675,proactive2,2020.1.2,MacIntel,60,5f341be081b9052c55068110,5f3528429acb9b07781c94d3,4,,,,,,frame,,,,,,,,,,,3,2,0,23,23,29,1,,,,,,,,,,,,,,,,,,,,,,,,,,,,,,,,,,,,,,,,,,,,,,,,,,,,,,,,,,,,,,,,,,,,,,,,,,,,,,,,,,,,,,,,,,,,,,
,,PASS,9.353,0,,,,,,stimuli/images/PICTURE_141.png,CLIENT,5eb44fb0caffba299096cc38,27/10/1993,2020-08-13_12h47.51.675,proactive2,2020.1.2,MacIntel,60,5f341be081b9052c55068110,5f3528429acb9b07781c94d3,4,,,,,,sunflower,,,,,,,,,,,4,2,0,24,24,30,1,,,,,,,,,,,,,,,,,,,,,,,,,,,,,,,,,,,,,,,,,,,,,,,,,,,,,,,,,,,,,,,,,,,,,,,,,,,,,,,,,,,,,,,,,,,,,,
,,?,0.001,0,,,,,,stimuli/images/PICTURE_2.png,JUNGLE,5eb44fb0caffba299096cc38,27/10/1993,2020-08-13_12h47.51.675,proactive2,2020.1.2,MacIntel,60,5f341be081b9052c55068110,5f3528429acb9b07781c94d3,4,,,,,,tyre,,,,,,,,,,,1,2,0,25,25,1,1,,,,,,,,,,,,,,,,,,,,,,,,,,,,,,,,,,,,,,,,,,,,,,,,,,,,,,,,,,,,,,,,,,,,,,,,,,,,,,,,,,,,,,,,,,,,,,
,,?,0.001,0,,,,,,stimuli/images/PICTURE_509.png,BATH,5eb44fb0caffba299096cc38,27/10/1993,2020-08-13_12h47.51.675,proactive2,2020.1.2,MacIntel,60,5f341be081b9052c55068110,5f3528429acb9b07781c94d3,4,,,,,,telephone,,,,,,,,,,,2,2,0,26,26,15,1,,,,,,,,,,,,,,,,,,,,,,,,,,,,,,,,,,,,,,,,,,,,,,,,,,,,,,,,,,,,,,,,,,,,,,,,,,,,,,,,,,,,,,,,,,,,,,
,,?,0.001,0,,,,,,stimuli/images/PICTURE_177.png,HOUSE,5eb44fb0caffba299096cc38,27/10/1993,2020-08-13_12h47.51.675,proactive2,2020.1.2,MacIntel,60,5f341be081b9052c55068110,5f3528429acb9b07781c94d3,4,,,,,,mushroom,,,,,,,,,,,3,2,0,27,27,25,1,,,,,,,,,,,,,,,,,,,,,,,,,,,,,,,,,,,,,,,,,,,,,,,,,,,,,,,,,,,,,,,,,,,,,,,,,,,,,,,,,,,,,,,,,,,,,,
,,?,0,0,,,,,,stimuli/images/PICTURE_405.png,HOUSE,5eb44fb0caffba299096cc38,27/10/1993,2020-08-13_12h47.51.675,proactive2,2020.1.2,MacIntel,60,5f341be081b9052c55068110,5f3528429acb9b07781c94d3,4,,,,,,anchor,,,,,,,,,,,1,2,0,28,28,2,1,,,,,,,,,,,,,,,,,,,,,,,,,,,,,,,,,,,,,,,,,,,,,,,,,,,,,,,,,,,,,,,,,,,,,,,,,,,,,,,,,,,,,,,,,,,,,,
,,?,0.001,0,,,,,,stimuli/images/PICTURE_453.png,FAMILY,5eb44fb0caffba299096cc38,27/10/1993,2020-08-13_12h47.51.675,proactive2,2020.1.2,MacIntel,60,5f341be081b9052c55068110,5f3528429acb9b07781c94d3,4,,,,,,scissors,,,,,,,,,,,5,2,0,29,29,48,1,,,,,,,,,,,,,,,,,,,,,,,,,,,,,,,,,,,,,,,,,,,,,,,,,,,,,,,,,,,,,,,,,,,,,,,,,,,,,,,,,,,,,,,,,,,,,,
,,?,0.001,0,,,,,,stimuli/images/PICTURE_348.png,DUDE,5eb44fb0caffba299096cc38,27/10/1993,2020-08-13_12h47.51.675,proactive2,2020.1.2,MacIntel,60,5f341be081b9052c55068110,5f3528429acb9b07781c94d3,4,,,,,,pepper,,,,,,,,,,,6,2,0,30,30,59,1,,,,,,,,,,,,,,,,,,,,,,,,,,,,,,,,,,,,,,,,,,,,,,,,,,,,,,,,,,,,,,,,,,,,,,,,,,,,,,,,,,,,,,,,,,,,,,
,,?,0.001,0,,,,,,stimuli/images/PICTURE_215.png,LEADER,5eb44fb0caffba299096cc38,27/10/1993,2020-08-13_12h47.51.675,proactive2,2020.1.2,MacIntel,60,5f341be081b9052c55068110,5f3528429acb9b07781c94d3,4,,,,,,boot,,,,,,,,,,,5,2,0,31,31,43,1,,,,,,,,,,,,,,,,,,,,,,,,,,,,,,,,,,,,,,,,,,,,,,,,,,,,,,,,,,,,,,,,,,,,,,,,,,,,,,,,,,,,,,,,,,,,,,
,,AREA,2.653,1,,,,,,stimuli/images/PICTURE_2.png,AREA,5eb44fb0caffba299096cc38,27/10/1993,2020-08-13_12h47.51.675,proactive2,2020.1.2,MacIntel,60,5f341be081b9052c55068110,5f3528429acb9b07781c94d3,4,,,,,,tyre,,,,,,,,,,,4,2,0,32,32,32,1,,,,,,,,,,,,,,,,,,,,,,,,,,,,,,,,,,,,,,,,,,,,,,,,,,,,,,,,,,,,,,,,,,,,,,,,,,,,,,,,,,,,,,,,,,,,,,
,,?,0.001,0,,,,,,stimuli/images/PICTURE_470.png,BEAUTY,5eb44fb0caffba299096cc38,27/10/1993,2020-08-13_12h47.51.675,proactive2,2020.1.2,MacIntel,60,5f341be081b9052c55068110,5f3528429acb9b07781c94d3,4,,,,,,motorbike,,,,,,,,,,,3,2,0,33,33,26,1,,,,,,,,,,,,,,,,,,,,,,,,,,,,,,,,,,,,,,,,,,,,,,,,,,,,,,,,,,,,,,,,,,,,,,,,,,,,,,,,,,,,,,,,,,,,,,
,,?,0,0,,,,,,stimuli/images/PICTURE_677.png,FAMILY,5eb44fb0caffba299096cc38,27/10/1993,2020-08-13_12h47.51.675,proactive2,2020.1.2,MacIntel,60,5f341be081b9052c55068110,5f3528429acb9b07781c94d3,4,,,,,,map,,,,,,,,,,,6,2,0,34,34,53,1,,,,,,,,,,,,,,,,,,,,,,,,,,,,,,,,,,,,,,,,,,,,,,,,,,,,,,,,,,,,,,,,,,,,,,,,,,,,,,,,,,,,,,,,,,,,,,
,,SPEECH,7.081,1,,,,,,stimuli/images/PICTURE_314.png,SPEECH,5eb44fb0caffba299096cc38,27/10/1993,2020-08-13_12h47.51.675,proactive2,2020.1.2,MacIntel,60,5f341be081b9052c55068110,5f3528429acb9b07781c94d3,4,,,,,,perfume,,,,,,,,,,,4,2,0,35,35,35,1,,,,,,,,,,,,,,,,,,,,,,,,,,,,,,,,,,,,,,,,,,,,,,,,,,,,,,,,,,,,,,,,,,,,,,,,,,,,,,,,,,,,,,,,,,,,,,
,,?,0.001,0,,,,,,stimuli/images/PICTURE_123.png,SALE,5eb44fb0caffba299096cc38,27/10/1993,2020-08-13_12h47.51.675,proactive2,2020.1.2,MacIntel,60,5f341be081b9052c55068110,5f3528429acb9b07781c94d3,4,,,,,,dart,,,,,,,,,,,1,2,0,36,36,8,1,,,,,,,,,,,,,,,,,,,,,,,,,,,,,,,,,,,,,,,,,,,,,,,,,,,,,,,,,,,,,,,,,,,,,,,,,,,,,,,,,,,,,,,,,,,,,,
,,?,0.001,0,,,,,,stimuli/images/PICTURE_2.png,YARD,5eb44fb0caffba299096cc38,27/10/1993,2020-08-13_12h47.51.675,proactive2,2020.1.2,MacIntel,60,5f341be081b9052c55068110,5f3528429acb9b07781c94d3,4,,,,,,tyre,,,,,,,,,,,6,2,0,37,37,55,1,,,,,,,,,,,,,,,,,,,,,,,,,,,,,,,,,,,,,,,,,,,,,,,,,,,,,,,,,,,,,,,,,,,,,,,,,,,,,,,,,,,,,,,,,,,,,,
,,?,0.001,0,,,,,,stimuli/images/PICTURE_688.png,CLOCK,5eb44fb0caffba299096cc38,27/10/1993,2020-08-13_12h47.51.675,proactive2,2020.1.2,MacIntel,60,5f341be081b9052c55068110,5f3528429acb9b07781c94d3,4,,,,,,runner,,,,,,,,,,,5,2,0,38,38,42,1,,,,,,,,,,,,,,,,,,,,,,,,,,,,,,,,,,,,,,,,,,,,,,,,,,,,,,,,,,,,,,,,,,,,,,,,,,,,,,,,,,,,,,,,,,,,,,
,,?,0,0,,,,,,stimuli/images/PICTURE_68.png,KIND,5eb44fb0caffba299096cc38,27/10/1993,2020-08-13_12h47.51.675,proactive2,2020.1.2,MacIntel,60,5f341be081b9052c55068110,5f3528429acb9b07781c94d3,4,,,,,,candle,,,,,,,,,,,3,2,0,39,39,23,1,,,,,,,,,,,,,,,,,,,,,,,,,,,,,,,,,,,,,,,,,,,,,,,,,,,,,,,,,,,,,,,,,,,,,,,,,,,,,,,,,,,,,,,,,,,,,,
,,HOUSE,3.343,1,,,,,,stimuli/images/PICTURE_504.png,HOUSE,5eb44fb0caffba299096cc38,27/10/1993,2020-08-13_12h47.51.675,proactive2,2020.1.2,MacIntel,60,5f341be081b9052c55068110,5f3528429acb9b07781c94d3,4,,,,,,wheel,,,,,,,,,,,4,2,0,40,40,36,1,,,,,,,,,,,,,,,,,,,,,,,,,,,,,,,,,,,,,,,,,,,,,,,,,,,,,,,,,,,,,,,,,,,,,,,,,,,,,,,,,,,,,,,,,,,,,,
,,?,0.001,0,,,,,,stimuli/images/PICTURE_327.png,LEADER,5eb44fb0caffba299096cc38,27/10/1993,2020-08-13_12h47.51.675,proactive2,2020.1.2,MacIntel,60,5f341be081b9052c55068110,5f3528429acb9b07781c94d3,4,,,,,,helmet,,,,,,,,,,,2,2,0,41,41,17,1,,,,,,,,,,,,,,,,,,,,,,,,,,,,,,,,,,,,,,,,,,,,,,,,,,,,,,,,,,,,,,,,,,,,,,,,,,,,,,,,,,,,,,,,,,,,,,
,,?,0,0,,,,,,stimuli/images/PICTURE_452.png,COPS,5eb44fb0caffba299096cc38,27/10/1993,2020-08-13_12h47.51.675,proactive2,2020.1.2,MacIntel,60,5f341be081b9052c55068110,5f3528429acb9b07781c94d3,4,,,,,,watch,,,,,,,,,,,1,2,0,42,42,0,1,,,,,,,,,,,,,,,,,,,,,,,,,,,,,,,,,,,,,,,,,,,,,,,,,,,,,,,,,,,,,,,,,,,,,,,,,,,,,,,,,,,,,,,,,,,,,,
,,?,0.001,0,,,,,,stimuli/images/PICTURE_654.png,YEAR,5eb44fb0caffba299096cc38,27/10/1993,2020-08-13_12h47.51.675,proactive2,2020.1.2,MacIntel,60,5f341be081b9052c55068110,5f3528429acb9b07781c94d3,4,,,,,,pencil,,,,,,,,,,,5,2,0,43,43,41,1,,,,,,,,,,,,,,,,,,,,,,,,,,,,,,,,,,,,,,,,,,,,,,,,,,,,,,,,,,,,,,,,,,,,,,,,,,,,,,,,,,,,,,,,,,,,,,
,,GIRL,3.477,1,,,,,,stimuli/images/PICTURE_93.png,GIRL,5eb44fb0caffba299096cc38,27/10/1993,2020-08-13_12h47.51.675,proactive2,2020.1.2,MacIntel,60,5f341be081b9052c55068110,5f3528429acb9b07781c94d3,4,,,,,,skateboard,,,,,,,,,,,4,2,0,44,44,31,1,,,,,,,,,,,,,,,,,,,,,,,,,,,,,,,,,,,,,,,,,,,,,,,,,,,,,,,,,,,,,,,,,,,,,,,,,,,,,,,,,,,,,,,,,,,,,,
,,?,0.001,0,,,,,,stimuli/images/PICTURE_160.png,HOTEL,5eb44fb0caffba299096cc38,27/10/1993,2020-08-13_12h47.51.675,proactive2,2020.1.2,MacIntel,60,5f341be081b9052c55068110,5f3528429acb9b07781c94d3,4,,,,,,wheelbarrow,,,,,,,,,,,2,2,0,45,45,16,1,,,,,,,,,,,,,,,,,,,,,,,,,,,,,,,,,,,,,,,,,,,,,,,,,,,,,,,,,,,,,,,,,,,,,,,,,,,,,,,,,,,,,,,,,,,,,,
,,?,0.001,0,,,,,,stimuli/images/PICTURE_57.png,CANDY,5eb44fb0caffba299096cc38,27/10/1993,2020-08-13_12h47.51.675,proactive2,2020.1.2,MacIntel,60,5f341be081b9052c55068110,5f3528429acb9b07781c94d3,4,,,,,,stamp,,,,,,,,,,,6,2,0,46,46,52,1,,,,,,,,,,,,,,,,,,,,,,,,,,,,,,,,,,,,,,,,,,,,,,,,,,,,,,,,,,,,,,,,,,,,,,,,,,,,,,,,,,,,,,,,,,,,,,
,,?,0.001,0,,,,,,stimuli/images/PICTURE_509.png,SHOTS,5eb44fb0caffba299096cc38,27/10/1993,2020-08-13_12h47.51.675,proactive2,2020.1.2,MacIntel,60,5f341be081b9052c55068110,5f3528429acb9b07781c94d3,4,,,,,,telephone,,,,,,,,,,,1,2,0,47,47,7,1,,,,,,,,,,,,,,,,,,,,,,,,,,,,,,,,,,,,,,,,,,,,,,,,,,,,,,,,,,,,,,,,,,,,,,,,,,,,,,,,,,,,,,,,,,,,,,
,,?,0,0,,,,,,stimuli/images/PICTURE_32.png,LETTER,5eb44fb0caffba299096cc38,27/10/1993,2020-08-13_12h47.51.675,proactive2,2020.1.2,MacIntel,60,5f341be081b9052c55068110,5f3528429acb9b07781c94d3,4,,,,,,crown,,,,,,,,,,,6,2,0,48,48,56,1,,,,,,,,,,,,,,,,,,,,,,,,,,,,,,,,,,,,,,,,,,,,,,,,,,,,,,,,,,,,,,,,,,,,,,,,,,,,,,,,,,,,,,,,,,,,,,
,,?,0.001,0,,,,,,stimuli/images/PICTURE_470.png,MOMENT,5eb44fb0caffba299096cc38,27/10/1993,2020-08-13_12h47.51.675,proactive2,2020.1.2,MacIntel,60,5f341be081b9052c55068110,5f3528429acb9b07781c94d3,4,,,,,,motorbike,,,,,,,,,,,5,2,0,49,49,40,1,,,,,,,,,,,,,,,,,,,,,,,,,,,,,,,,,,,,,,,,,,,,,,,,,,,,,,,,,,,,,,,,,,,,,,,,,,,,,,,,,,,,,,,,,,,,,,
,,?,0.001,0,,,,,,stimuli/images/PICTURE_708.png,VALLEY,5eb44fb0caffba299096cc38,27/10/1993,2020-08-13_12h47.51.675,proactive2,2020.1.2,MacIntel,60,5f341be081b9052c55068110,5f3528429acb9b07781c94d3,4,,,,,,monkey,,,,,,,,,,,5,2,0,50,50,45,1,,,,,,,,,,,,,,,,,,,,,,,,,,,,,,,,,,,,,,,,,,,,,,,,,,,,,,,,,,,,,,,,,,,,,,,,,,,,,,,,,,,,,,,,,,,,,,
,,?,0,0,,,,,,stimuli/images/PICTURE_215.png,FOOD,5eb44fb0caffba299096cc38,27/10/1993,2020-08-13_12h47.51.675,proactive2,2020.1.2,MacIntel,60,5f341be081b9052c55068110,5f3528429acb9b07781c94d3,4,,,,,,boot,,,,,,,,,,,1,2,0,51,51,5,1,,,,,,,,,,,,,,,,,,,,,,,,,,,,,,,,,,,,,,,,,,,,,,,,,,,,,,,,,,,,,,,,,,,,,,,,,,,,,,,,,,,,,,,,,,,,,,
,,?,0.001,0,,,,,,stimuli/images/PICTURE_654.png,COPS,5eb44fb0caffba299096cc38,27/10/1993,2020-08-13_12h47.51.675,proactive2,2020.1.2,MacIntel,60,5f341be081b9052c55068110,5f3528429acb9b07781c94d3,4,,,,,,pencil,,,,,,,,,,,2,2,0,52,52,10,1,,,,,,,,,,,,,,,,,,,,,,,,,,,,,,,,,,,,,,,,,,,,,,,,,,,,,,,,,,,,,,,,,,,,,,,,,,,,,,,,,,,,,,,,,,,,,,
,,?,0,0,,,,,,stimuli/images/PICTURE_692.png,DUDE,5eb44fb0caffba299096cc38,27/10/1993,2020-08-13_12h47.51.675,proactive2,2020.1.2,MacIntel,60,5f341be081b9052c55068110,5f3528429acb9b07781c94d3,4,,,,,,cherry,,,,,,,,,,,5,2,0,53,53,47,1,,,,,,,,,,,,,,,,,,,,,,,,,,,,,,,,,,,,,,,,,,,,,,,,,,,,,,,,,,,,,,,,,,,,,,,,,,,,,,,,,,,,,,,,,,,,,,
,,?,0.001,0,,,,,,stimuli/images/PICTURE_285.png,PRINCE,5eb44fb0caffba299096cc38,27/10/1993,2020-08-13_12h47.51.675,proactive2,2020.1.2,MacIntel,60,5f341be081b9052c55068110,5f3528429acb9b07781c94d3,4,,,,,,carrot,,,,,,,,,,,3,2,0,54,54,20,1,,,,,,,,,,,,,,,,,,,,,,,,,,,,,,,,,,,,,,,,,,,,,,,,,,,,,,,,,,,,,,,,,,,,,,,,,,,,,,,,,,,,,,,,,,,,,,
,,?,0.001,0,,,,,,stimuli/images/PICTURE_208.png,SPIRIT,5eb44fb0caffba299096cc38,27/10/1993,2020-08-13_12h47.51.675,proactive2,2020.1.2,MacIntel,60,5f341be081b9052c55068110,5f3528429acb9b07781c94d3,4,,,,,,microphone,,,,,,,,,,,3,2,0,55,55,28,1,,,,,,,,,,,,,,,,,,,,,,,,,,,,,,,,,,,,,,,,,,,,,,,,,,,,,,,,,,,,,,,,,,,,,,,,,,,,,,,,,,,,,,,,,,,,,,
,,?,0,0,,,,,,stimuli/images/PICTURE_405.png,JUNGLE,5eb44fb0caffba299096cc38,27/10/1993,2020-08-13_12h47.51.675,proactive2,2020.1.2,MacIntel,60,5f341be081b9052c55068110,5f3528429acb9b07781c94d3,4,,,,,,anchor,,,,,,,,,,,6,2,0,56,56,58,1,,,,,,,,,,,,,,,,,,,,,,,,,,,,,,,,,,,,,,,,,,,,,,,,,,,,,,,,,,,,,,,,,,,,,,,,,,,,,,,,,,,,,,,,,,,,,,
,,?,0,0,,,,,,stimuli/images/PICTURE_296.png,CLOCK,5eb44fb0caffba299096cc38,27/10/1993,2020-08-13_12h47.51.675,proactive2,2020.1.2,MacIntel,60,5f341be081b9052c55068110,5f3528429acb9b07781c94d3,4,,,,,,bolt,,,,,,,,,,,2,2,0,57,57,18,1,,,,,,,,,,,,,,,,,,,,,,,,,,,,,,,,,,,,,,,,,,,,,,,,,,,,,,,,,,,,,,,,,,,,,,,,,,,,,,,,,,,,,,,,,,,,,,
,,SERIES,2.514,1,,,,,,stimuli/images/PICTURE_491.png,SERIES,5eb44fb0caffba299096cc38,27/10/1993,2020-08-13_12h47.51.675,proactive2,2020.1.2,MacIntel,60,5f341be081b9052c55068110,5f3528429acb9b07781c94d3,4,,,,,,rug,,,,,,,,,,,4,2,0,58,58,39,1,,,,,,,,,,,,,,,,,,,,,,,,,,,,,,,,,,,,,,,,,,,,,,,,,,,,,,,,,,,,,,,,,,,,,,,,,,,,,,,,,,,,,,,,,,,,,,
,,?,0.001,0,,,,,,stimuli/images/PICTURE_285.png,WRITER,5eb44fb0caffba299096cc38,27/10/1993,2020-08-13_12h47.51.675,proactive2,2020.1.2,MacIntel,60,5f341be081b9052c55068110,5f3528429acb9b07781c94d3,4,,,,,,carrot,,,,,,,,,,,1,2,0,59,59,6,1,,,,,,,,,,,,,,,,,,,,,,,,,,,,,,,,,,,,,,,,,,,,,,,,,,,,,,,,,,,,,,,,,,,,,,,,,,,,,,,,,,,,,,,,,,,,,,
,,,,,,,,,,,,5eb44fb0caffba299096cc38,27/10/1993,2020-08-13_12h47.51.675,proactive2,2020.1.2,MacIntel,60,5f341be081b9052c55068110,5f3528429acb9b07781c94d3,4,,,,,,,,,,,,,,,,,,,,,,,,0,1,1,2,1,stimuli/learn-block3.csv,,,,,,,,,,,,,,,,,,,,,,,,,,,,,,,,,,,,,,,,,,,,,,,,,,,,,,,,,,,,,,,,,,,,,,,,,,,,,,,,,,,,,,,,
,,,,,,,,,,stimuli/images/PICTURE_327.png,SERIES,5eb44fb0caffba299096cc38,27/10/1993,2020-08-13_12h47.51.675,proactive2,2020.1.2,MacIntel,60,5f341be081b9052c55068110,5f3528429acb9b07781c94d3,4,,,,,,helmet,,,,,,0,0,0,3,1,1,1,,,,,,,,,,,,,,,,,,,,,,,,,,,,,,,,,,,,,,,,,,,,,,,,,,,,,,,,,,,,,,,,,,,,,,,,,,,,,,,,,,,,,,,,,,,,,,,,,,,
,,,,,,,,,,stimuli/images/PICTURE_147.png,WOMEN,5eb44fb0caffba299096cc38,27/10/1993,2020-08-13_12h47.51.675,proactive2,2020.1.2,MacIntel,60,5f341be081b9052c55068110,5f3528429acb9b07781c94d3,4,,,,,,hanger,,,,,,0,1,1,7,1,1,1,,,,,,,,,,,,,,,,,,,,,,,,,,,,,,,,,,,,,,,,,,,,,,,,,,,,,,,,,,,,,,,,,,,,,,,,,,,,,,,,,,,,,,,,,,,,,,,,,,,
,,,,,,,,,,stimuli/images/PICTURE_654.png,MONTH,5eb44fb0caffba299096cc38,27/10/1993,2020-08-13_12h47.51.675,proactive2,2020.1.2,MacIntel,60,5f341be081b9052c55068110,5f3528429acb9b07781c94d3,4,,,,,,pencil,,,,,,0,2,2,29,1,3,1,,,,,,,,,,,,,,,,,,,,,,,,,,,,,,,,,,,,,,,,,,,,,,,,,,,,,,,,,,,,,,,,,,,,,,,,,,,,,,,,,,,,,,,,,,,,,,,,,,,
,,,,,,,,,,stimuli/images/PICTURE_296.png,LIFE,5eb44fb0caffba299096cc38,27/10/1993,2020-08-13_12h47.51.675,proactive2,2020.1.2,MacIntel,60,5f341be081b9052c55068110,5f3528429acb9b07781c94d3,4,,,,,,bolt,,,,,,0,3,3,57,1,6,1,,,,,,,,,,,,,,,,,,,,,,,,,,,,,,,,,,,,,,,,,,,,,,,,,,,,,,,,,,,,,,,,,,,,,,,,,,,,,,,,,,,,,,,,,,,,,,,,,,,
,,,,,,,,,,stimuli/images/PICTURE_675.png,SALE,5eb44fb0caffba299096cc38,27/10/1993,2020-08-13_12h47.51.675,proactive2,2020.1.2,MacIntel,60,5f341be081b9052c55068110,5f3528429acb9b07781c94d3,4,,,,,,windmill,,,,,,0,4,4,47,1,5,1,,,,,,,,,,,,,,,,,,,,,,,,,,,,,,,,,,,,,,,,,,,,,,,,,,,,,,,,,,,,,,,,,,,,,,,,,,,,,,,,,,,,,,,,,,,,,,,,,,,
,,,,,,,,,,stimuli/images/PICTURE_327.png,CASINO,5eb44fb0caffba299096cc38,27/10/1993,2020-08-13_12h47.51.675,proactive2,2020.1.2,MacIntel,60,5f341be081b9052c55068110,5f3528429acb9b07781c94d3,4,,,,,,helmet,,,,,,0,5,5,20,1,3,1,,,,,,,,,,,,,,,,,,,,,,,,,,,,,,,,,,,,,,,,,,,,,,,,,,,,,,,,,,,,,,,,,,,,,,,,,,,,,,,,,,,,,,,,,,,,,,,,,,,
,,,,,,,,,,stimuli/images/PICTURE_491.png,GLASS,5eb44fb0caffba299096cc38,27/10/1993,2020-08-13_12h47.51.675,proactive2,2020.1.2,MacIntel,60,5f341be081b9052c55068110,5f3528429acb9b07781c94d3,4,,,,,,rug,,,,,,0,6,6,14,1,2,1,,,,,,,,,,,,,,,,,,,,,,,,,,,,,,,,,,,,,,,,,,,,,,,,,,,,,,,,,,,,,,,,,,,,,,,,,,,,,,,,,,,,,,,,,,,,,,,,,,,
,,,,,,,,,,stimuli/images/PICTURE_685.png,PENNY,5eb44fb0caffba299096cc38,27/10/1993,2020-08-13_12h47.51.675,proactive2,2020.1.2,MacIntel,60,5f341be081b9052c55068110,5f3528429acb9b07781c94d3,4,,,,,,goose,,,,,,0,7,7,4,1,1,1,,,,,,,,,,,,,,,,,,,,,,,,,,,,,,,,,,,,,,,,,,,,,,,,,,,,,,,,,,,,,,,,,,,,,,,,,,,,,,,,,,,,,,,,,,,,,,,,,,,
,,,,,,,,,,stimuli/images/PICTURE_203.png,NIGHT,5eb44fb0caffba299096cc38,27/10/1993,2020-08-13_12h47.51.675,proactive2,2020.1.2,MacIntel,60,5f341be081b9052c55068110,5f3528429acb9b07781c94d3,4,,,,,,cap,,,,,,0,8,8,2,1,1,1,,,,,,,,,,,,,,,,,,,,,,,,,,,,,,,,,,,,,,,,,,,,,,,,,,,,,,,,,,,,,,,,,,,,,,,,,,,,,,,,,,,,,,,,,,,,,,,,,,,
,,,,,,,,,,stimuli/images/PICTURE_147.png,YEAR,5eb44fb0caffba299096cc38,27/10/1993,2020-08-13_12h47.51.675,proactive2,2020.1.2,MacIntel,60,5f341be081b9052c55068110,5f3528429acb9b07781c94d3,4,,,,,,hanger,,,,,,0,9,9,21,1,3,1,,,,,,,,,,,,,,,,,,,,,,,,,,,,,,,,,,,,,,,,,,,,,,,,,,,,,,,,,,,,,,,,,,,,,,,,,,,,,,,,,,,,,,,,,,,,,,,,,,,
,,,,,,,,,,stimuli/images/PICTURE_383.png,SERIES,5eb44fb0caffba299096cc38,27/10/1993,2020-08-13_12h47.51.675,proactive2,2020.1.2,MacIntel,60,5f341be081b9052c55068110,5f3528429acb9b07781c94d3,4,,,,,,coin,,,,,,0,10,10,46,1,5,1,,,,,,,,,,,,,,,,,,,,,,,,,,,,,,,,,,,,,,,,,,,,,,,,,,,,,,,,,,,,,,,,,,,,,,,,,,,,,,,,,,,,,,,,,,,,,,,,,,,
,,,,,,,,,,stimuli/images/PICTURE_469.png,AGENT,5eb44fb0caffba299096cc38,27/10/1993,2020-08-13_12h47.51.675,proactive2,2020.1.2,MacIntel,60,5f341be081b9052c55068110,5f3528429acb9b07781c94d3,4,,,,,,stool,,,,,,0,11,11,16,1,2,1,,,,,,,,,,,,,,,,,,,,,,,,,,,,,,,,,,,,,,,,,,,,,,,,,,,,,,,,,,,,,,,,,,,,,,,,,,,,,,,,,,,,,,,,,,,,,,,,,,,
,,,,,,,,,,stimuli/images/PICTURE_467.png,POLICY,5eb44fb0caffba299096cc38,27/10/1993,2020-08-13_12h47.51.675,proactive2,2020.1.2,MacIntel,60,5f341be081b9052c55068110,5f3528429acb9b07781c94d3,4,,,,,,peg,,,,,,0,12,12,53,1,6,1,,,,,,,,,,,,,,,,,,,,,,,,,,,,,,,,,,,,,,,,,,,,,,,,,,,,,,,,,,,,,,,,,,,,,,,,,,,,,,,,,,,,,,,,,,,,,,,,,,,
,,,,,,,,,,stimuli/images/PICTURE_380.png,CANDY,5eb44fb0caffba299096cc38,27/10/1993,2020-08-13_12h47.51.675,proactive2,2020.1.2,MacIntel,60,5f341be081b9052c55068110,5f3528429acb9b07781c94d3,4,,,,,,gorilla,,,,,,0,13,13,0,1,1,1,,,,,,,,,,,,,,,,,,,,,,,,,,,,,,,,,,,,,,,,,,,,,,,,,,,,,,,,,,,,,,,,,,,,,,,,,,,,,,,,,,,,,,,,,,,,,,,,,,,
,,,,,,,,,,stimuli/images/PICTURE_449.png,DUDE,5eb44fb0caffba299096cc38,27/10/1993,2020-08-13_12h47.51.675,proactive2,2020.1.2,MacIntel,60,5f341be081b9052c55068110,5f3528429acb9b07781c94d3,4,,,,,,bench,,,,,,0,14,14,17,1,2,1,,,,,,,,,,,,,,,,,,,,,,,,,,,,,,,,,,,,,,,,,,,,,,,,,,,,,,,,,,,,,,,,,,,,,,,,,,,,,,,,,,,,,,,,,,,,,,,,,,,
,,,,,,,,,,stimuli/images/PICTURE_32.png,PILLS,5eb44fb0caffba299096cc38,27/10/1993,2020-08-13_12h47.51.675,proactive2,2020.1.2,MacIntel,60,5f341be081b9052c55068110,5f3528429acb9b07781c94d3,4,,,,,,crown,,,,,,0,15,15,18,1,2,1,,,,,,,,,,,,,,,,,,,,,,,,,,,,,,,,,,,,,,,,,,,,,,,,,,,,,,,,,,,,,,,,,,,,,,,,,,,,,,,,,,,,,,,,,,,,,,,,,,,
,,,,,,,,,,stimuli/images/PICTURE_339.png,CLIENT,5eb44fb0caffba299096cc38,27/10/1993,2020-08-13_12h47.51.675,proactive2,2020.1.2,MacIntel,60,5f341be081b9052c55068110,5f3528429acb9b07781c94d3,4,,,,,,backpack,,,,,,0,16,16,11,1,2,1,,,,,,,,,,,,,,,,,,,,,,,,,,,,,,,,,,,,,,,,,,,,,,,,,,,,,,,,,,,,,,,,,,,,,,,,,,,,,,,,,,,,,,,,,,,,,,,,,,,
,,,,,,,,,,stimuli/images/PICTURE_744.png,WEAPON,5eb44fb0caffba299096cc38,27/10/1993,2020-08-13_12h47.51.675,proactive2,2020.1.2,MacIntel,60,5f341be081b9052c55068110,5f3528429acb9b07781c94d3,4,,,,,,ring,,,,,,0,17,17,50,1,6,1,,,,,,,,,,,,,,,,,,,,,,,,,,,,,,,,,,,,,,,,,,,,,,,,,,,,,,,,,,,,,,,,,,,,,,,,,,,,,,,,,,,,,,,,,,,,,,,,,,,
,,,,,,,,,,stimuli/images/PICTURE_667.png,RIVER,5eb44fb0caffba299096cc38,27/10/1993,2020-08-13_12h47.51.675,proactive2,2020.1.2,MacIntel,60,5f341be081b9052c55068110,5f3528429acb9b07781c94d3,4,,,,,,daisy,,,,,,0,18,18,10,1,2,1,,,,,,,,,,,,,,,,,,,,,,,,,,,,,,,,,,,,,,,,,,,,,,,,,,,,,,,,,,,,,,,,,,,,,,,,,,,,,,,,,,,,,,,,,,,,,,,,,,,
,,,,,,,,,,stimuli/images/PICTURE_403.png,WRITER,5eb44fb0caffba299096cc38,27/10/1993,2020-08-13_12h47.51.675,proactive2,2020.1.2,MacIntel,60,5f341be081b9052c55068110,5f3528429acb9b07781c94d3,4,,,,,,cathedral,,,,,,0,19,19,31,1,4,1,,,,,,,,,,,,,,,,,,,,,,,,,,,,,,,,,,,,,,,,,,,,,,,,,,,,,,,,,,,,,,,,,,,,,,,,,,,,,,,,,,,,,,,,,,,,,,,,,,,
,,,,,,,,,,stimuli/images/PICTURE_95.png,MILLER,5eb44fb0caffba299096cc38,27/10/1993,2020-08-13_12h47.51.675,proactive2,2020.1.2,MacIntel,60,5f341be081b9052c55068110,5f3528429acb9b07781c94d3,4,,,,,,suitcase,,,,,,0,20,20,56,1,6,1,,,,,,,,,,,,,,,,,,,,,,,,,,,,,,,,,,,,,,,,,,,,,,,,,,,,,,,,,,,,,,,,,,,,,,,,,,,,,,,,,,,,,,,,,,,,,,,,,,,
,,,,,,,,,,stimuli/images/PICTURE_504.png,YEAR,5eb44fb0caffba299096cc38,27/10/1993,2020-08-13_12h47.51.675,proactive2,2020.1.2,MacIntel,60,5f341be081b9052c55068110,5f3528429acb9b07781c94d3,4,,,,,,wheel,,,,,,0,21,21,13,1,2,1,,,,,,,,,,,,,,,,,,,,,,,,,,,,,,,,,,,,,,,,,,,,,,,,,,,,,,,,,,,,,,,,,,,,,,,,,,,,,,,,,,,,,,,,,,,,,,,,,,,
,,,,,,,,,,stimuli/images/PICTURE_708.png,RECORD,5eb44fb0caffba299096cc38,27/10/1993,2020-08-13_12h47.51.675,proactive2,2020.1.2,MacIntel,60,5f341be081b9052c55068110,5f3528429acb9b07781c94d3,4,,,,,,monkey,,,,,,0,22,22,58,1,6,1,,,,,,,,,,,,,,,,,,,,,,,,,,,,,,,,,,,,,,,,,,,,,,,,,,,,,,,,,,,,,,,,,,,,,,,,,,,,,,,,,,,,,,,,,,,,,,,,,,,
,,,,,,,,,,stimuli/images/PICTURE_297.png,RIVER,5eb44fb0caffba299096cc38,27/10/1993,2020-08-13_12h47.51.675,proactive2,2020.1.2,MacIntel,60,5f341be081b9052c55068110,5f3528429acb9b07781c94d3,4,,,,,,aeroplane,,,,,,0,23,23,39,1,4,1,,,,,,,,,,,,,,,,,,,,,,,,,,,,,,,,,,,,,,,,,,,,,,,,,,,,,,,,,,,,,,,,,,,,,,,,,,,,,,,,,,,,,,,,,,,,,,,,,,,
,,,,,,,,,,stimuli/images/PICTURE_233.png,LOTS,5eb44fb0caffba299096cc38,27/10/1993,2020-08-13_12h47.51.675,proactive2,2020.1.2,MacIntel,60,5f341be081b9052c55068110,5f3528429acb9b07781c94d3,4,,,,,,salt,,,,,,0,24,24,42,1,5,1,,,,,,,,,,,,,,,,,,,,,,,,,,,,,,,,,,,,,,,,,,,,,,,,,,,,,,,,,,,,,,,,,,,,,,,,,,,,,,,,,,,,,,,,,,,,,,,,,,,
,,,,,,,,,,stimuli/images/PICTURE_504.png,COPS,5eb44fb0caffba299096cc38,27/10/1993,2020-08-13_12h47.51.675,proactive2,2020.1.2,MacIntel,60,5f341be081b9052c55068110,5f3528429acb9b07781c94d3,4,,,,,,wheel,,,,,,0,25,25,52,1,6,1,,,,,,,,,,,,,,,,,,,,,,,,,,,,,,,,,,,,,,,,,,,,,,,,,,,,,,,,,,,,,,,,,,,,,,,,,,,,,,,,,,,,,,,,,,,,,,,,,,,
,,,,,,,,,,stimuli/images/PICTURE_504.png,ARTIST,5eb44fb0caffba299096cc38,27/10/1993,2020-08-13_12h47.51.675,proactive2,2020.1.2,MacIntel,60,5f341be081b9052c55068110,5f3528429acb9b07781c94d3,4,,,,,,wheel,,,,,,0,26,26,49,1,5,1,,,,,,,,,,,,,,,,,,,,,,,,,,,,,,,,,,,,,,,,,,,,,,,,,,,,,,,,,,,,,,,,,,,,,,,,,,,,,,,,,,,,,,,,,,,,,,,,,,,
,,,,,,,,,,stimuli/images/PICTURE_33.png,FRIEND,5eb44fb0caffba299096cc38,27/10/1993,2020-08-13_12h47.51.675,proactive2,2020.1.2,MacIntel,60,5f341be081b9052c55068110,5f3528429acb9b07781c94d3,4,,,,,,frame,,,,,,0,27,27,8,1,1,1,,,,,,,,,,,,,,,,,,,,,,,,,,,,,,,,,,,,,,,,,,,,,,,,,,,,,,,,,,,,,,,,,,,,,,,,,,,,,,,,,,,,,,,,,,,,,,,,,,,
,,,,,,,,,,stimuli/images/PICTURE_487.png,GIRL,5eb44fb0caffba299096cc38,27/10/1993,2020-08-13_12h47.51.675,proactive2,2020.1.2,MacIntel,60,5f341be081b9052c55068110,5f3528429acb9b07781c94d3,4,,,,,,basket,,,,,,0,28,28,45,1,5,1,,,,,,,,,,,,,,,,,,,,,,,,,,,,,,,,,,,,,,,,,,,,,,,,,,,,,,,,,,,,,,,,,,,,,,,,,,,,,,,,,,,,,,,,,,,,,,,,,,,
,,,,,,,,,,stimuli/images/PICTURE_340.png,VALLEY,5eb44fb0caffba299096cc38,27/10/1993,2020-08-13_12h47.51.675,proactive2,2020.1.2,MacIntel,60,5f341be081b9052c55068110,5f3528429acb9b07781c94d3,4,,,,,,mirror,,,,,,0,29,29,54,1,6,1,,,,,,,,,,,,,,,,,,,,,,,,,,,,,,,,,,,,,,,,,,,,,,,,,,,,,,,,,,,,,,,,,,,,,,,,,,,,,,,,,,,,,,,,,,,,,,,,,,,
,,,,,,,,,,stimuli/images/PICTURE_340.png,LETTER,5eb44fb0caffba299096cc38,27/10/1993,2020-08-13_12h47.51.675,proactive2,2020.1.2,MacIntel,60,5f341be081b9052c55068110,5f3528429acb9b07781c94d3,4,,,,,,mirror,,,,,,0,30,30,24,1,3,1,,,,,,,,,,,,,,,,,,,,,,,,,,,,,,,,,,,,,,,,,,,,,,,,,,,,,,,,,,,,,,,,,,,,,,,,,,,,,,,,,,,,,,,,,,,,,,,,,,,
,,,,,,,,,,stimuli/images/PICTURE_85.png,NATION,5eb44fb0caffba299096cc38,27/10/1993,2020-08-13_12h47.51.675,proactive2,2020.1.2,MacIntel,60,5f341be081b9052c55068110,5f3528429acb9b07781c94d3,4,,,,,,diamond,,,,,,0,31,31,5,1,1,1,,,,,,,,,,,,,,,,,,,,,,,,,,,,,,,,,,,,,,,,,,,,,,,,,,,,,,,,,,,,,,,,,,,,,,,,,,,,,,,,,,,,,,,,,,,,,,,,,,,
,,,,,,,,,,stimuli/images/PICTURE_655.png,TOILET,5eb44fb0caffba299096cc38,27/10/1993,2020-08-13_12h47.51.675,proactive2,2020.1.2,MacIntel,60,5f341be081b9052c55068110,5f3528429acb9b07781c94d3,4,,,,,,megaphone,,,,,,0,32,32,12,1,2,1,,,,,,,,,,,,,,,,,,,,,,,,,,,,,,,,,,,,,,,,,,,,,,,,,,,,,,,,,,,,,,,,,,,,,,,,,,,,,,,,,,,,,,,,,,,,,,,,,,,
,,,,,,,,,,stimuli/images/PICTURE_85.png,TOILET,5eb44fb0caffba299096cc38,27/10/1993,2020-08-13_12h47.51.675,proactive2,2020.1.2,MacIntel,60,5f341be081b9052c55068110,5f3528429acb9b07781c94d3,4,,,,,,diamond,,,,,,0,33,33,48,1,5,1,,,,,,,,,,,,,,,,,,,,,,,,,,,,,,,,,,,,,,,,,,,,,,,,,,,,,,,,,,,,,,,,,,,,,,,,,,,,,,,,,,,,,,,,,,,,,,,,,,,
,,,,,,,,,,stimuli/images/PICTURE_380.png,HONEY,5eb44fb0caffba299096cc38,27/10/1993,2020-08-13_12h47.51.675,proactive2,2020.1.2,MacIntel,60,5f341be081b9052c55068110,5f3528429acb9b07781c94d3,4,,,,,,gorilla,,,,,,0,34,34,19,1,2,1,,,,,,,,,,,,,,,,,,,,,,,,,,,,,,,,,,,,,,,,,,,,,,,,,,,,,,,,,,,,,,,,,,,,,,,,,,,,,,,,,,,,,,,,,,,,,,,,,,,
,,,,,,,,,,stimuli/images/PICTURE_203.png,GODS,5eb44fb0caffba299096cc38,27/10/1993,2020-08-13_12h47.51.675,proactive2,2020.1.2,MacIntel,60,5f341be081b9052c55068110,5f3528429acb9b07781c94d3,4,,,,,,cap,,,,,,0,35,35,30,1,4,1,,,,,,,,,,,,,,,,,,,,,,,,,,,,,,,,,,,,,,,,,,,,,,,,,,,,,,,,,,,,,,,,,,,,,,,,,,,,,,,,,,,,,,,,,,,,,,,,,,,
,,,,,,,,,,stimuli/images/PICTURE_32.png,KIND,5eb44fb0caffba299096cc38,27/10/1993,2020-08-13_12h47.51.675,proactive2,2020.1.2,MacIntel,60,5f341be081b9052c55068110,5f3528429acb9b07781c94d3,4,,,,,,crown,,,,,,0,36,36,35,1,4,1,,,,,,,,,,,,,,,,,,,,,,,,,,,,,,,,,,,,,,,,,,,,,,,,,,,,,,,,,,,,,,,,,,,,,,,,,,,,,,,,,,,,,,,,,,,,,,,,,,,
,,,,,,,,,,stimuli/images/PICTURE_677.png,APPLE,5eb44fb0caffba299096cc38,27/10/1993,2020-08-13_12h47.51.675,proactive2,2020.1.2,MacIntel,60,5f341be081b9052c55068110,5f3528429acb9b07781c94d3,4,,,,,,map,,,,,,0,37,37,43,1,5,1,,,,,,,,,,,,,,,,,,,,,,,,,,,,,,,,,,,,,,,,,,,,,,,,,,,,,,,,,,,,,,,,,,,,,,,,,,,,,,,,,,,,,,,,,,,,,,,,,,,
,,,,,,,,,,stimuli/images/PICTURE_308.png,FAMILY,5eb44fb0caffba299096cc38,27/10/1993,2020-08-13_12h47.51.675,proactive2,2020.1.2,MacIntel,60,5f341be081b9052c55068110,5f3528429acb9b07781c94d3,4,,,,,,dice,,,,,,0,38,38,36,1,4,1,,,,,,,,,,,,,,,,,,,,,,,,,,,,,,,,,,,,,,,,,,,,,,,,,,,,,,,,,,,,,,,,,,,,,,,,,,,,,,,,,,,,,,,,,,,,,,,,,,,
,,,,,,,,,,stimuli/images/PICTURE_208.png,SYSTEM,5eb44fb0caffba299096cc38,27/10/1993,2020-08-13_12h47.51.675,proactive2,2020.1.2,MacIntel,60,5f341be081b9052c55068110,5f3528429acb9b07781c94d3,4,,,,,,microphone,,,,,,0,39,39,32,1,4,1,,,,,,,,,,,,,,,,,,,,,,,,,,,,,,,,,,,,,,,,,,,,,,,,,,,,,,,,,,,,,,,,,,,,,,,,,,,,,,,,,,,,,,,,,,,,,,,,,,,
,,,,,,,,,,stimuli/images/PICTURE_296.png,LOTS,5eb44fb0caffba299096cc38,27/10/1993,2020-08-13_12h47.51.675,proactive2,2020.1.2,MacIntel,60,5f341be081b9052c55068110,5f3528429acb9b07781c94d3,4,,,,,,bolt,,,,,,0,40,40,9,1,1,1,,,,,,,,,,,,,,,,,,,,,,,,,,,,,,,,,,,,,,,,,,,,,,,,,,,,,,,,,,,,,,,,,,,,,,,,,,,,,,,,,,,,,,,,,,,,,,,,,,,
,,,,,,,,,,stimuli/images/PICTURE_95.png,HONEY,5eb44fb0caffba299096cc38,27/10/1993,2020-08-13_12h47.51.675,proactive2,2020.1.2,MacIntel,60,5f341be081b9052c55068110,5f3528429acb9b07781c94d3,4,,,,,,suitcase,,,,,,0,41,41,44,1,5,1,,,,,,,,,,,,,,,,,,,,,,,,,,,,,,,,,,,,,,,,,,,,,,,,,,,,,,,,,,,,,,,,,,,,,,,,,,,,,,,,,,,,,,,,,,,,,,,,,,,
,,,,,,,,,,stimuli/images/PICTURE_68.png,MILE,5eb44fb0caffba299096cc38,27/10/1993,2020-08-13_12h47.51.675,proactive2,2020.1.2,MacIntel,60,5f341be081b9052c55068110,5f3528429acb9b07781c94d3,4,,,,,,candle,,,,,,0,42,42,51,1,6,1,,,,,,,,,,,,,,,,,,,,,,,,,,,,,,,,,,,,,,,,,,,,,,,,,,,,,,,,,,,,,,,,,,,,,,,,,,,,,,,,,,,,,,,,,,,,,,,,,,,
,,,,,,,,,,stimuli/images/PICTURE_108.png,FLIGHT,5eb44fb0caffba299096cc38,27/10/1993,2020-08-13_12h47.51.675,proactive2,2020.1.2,MacIntel,60,5f341be081b9052c55068110,5f3528429acb9b07781c94d3,4,,,,,,calendar,,,,,,0,43,43,59,1,6,1,,,,,,,,,,,,,,,,,,,,,,,,,,,,,,,,,,,,,,,,,,,,,,,,,,,,,,,,,,,,,,,,,,,,,,,,,,,,,,,,,,,,,,,,,,,,,,,,,,,
,,,,,,,,,,stimuli/images/PICTURE_403.png,RIVER,5eb44fb0caffba299096cc38,27/10/1993,2020-08-13_12h47.51.675,proactive2,2020.1.2,MacIntel,60,5f341be081b9052c55068110,5f3528429acb9b07781c94d3,4,,,,,,cathedral,,,,,,0,44,44,40,1,5,1,,,,,,,,,,,,,,,,,,,,,,,,,,,,,,,,,,,,,,,,,,,,,,,,,,,,,,,,,,,,,,,,,,,,,,,,,,,,,,,,,,,,,,,,,,,,,,,,,,,
,,,,,,,,,,stimuli/images/PICTURE_68.png,ROOF,5eb44fb0caffba299096cc38,27/10/1993,2020-08-13_12h47.51.675,proactive2,2020.1.2,MacIntel,60,5f341be081b9052c55068110,5f3528429acb9b07781c94d3,4,,,,,,candle,,,,,,0,45,45,38,1,4,1,,,,,,,,,,,,,,,,,,,,,,,,,,,,,,,,,,,,,,,,,,,,,,,,,,,,,,,,,,,,,,,,,,,,,,,,,,,,,,,,,,,,,,,,,,,,,,,,,,,
,,,,,,,,,,stimuli/images/PICTURE_750.png,HOTEL,5eb44fb0caffba299096cc38,27/10/1993,2020-08-13_12h47.51.675,proactive2,2020.1.2,MacIntel,60,5f341be081b9052c55068110,5f3528429acb9b07781c94d3,4,,,,,,kettle,,,,,,0,46,46,27,1,3,1,,,,,,,,,,,,,,,,,,,,,,,,,,,,,,,,,,,,,,,,,,,,,,,,,,,,,,,,,,,,,,,,,,,,,,,,,,,,,,,,,,,,,,,,,,,,,,,,,,,
,,,,,,,,,,stimuli/images/PICTURE_403.png,TOILET,5eb44fb0caffba299096cc38,27/10/1993,2020-08-13_12h47.51.675,proactive2,2020.1.2,MacIntel,60,5f341be081b9052c55068110,5f3528429acb9b07781c94d3,4,,,,,,cathedral,,,,,,0,47,47,25,1,3,1,,,,,,,,,,,,,,,,,,,,,,,,,,,,,,,,,,,,,,,,,,,,,,,,,,,,,,,,,,,,,,,,,,,,,,,,,,,,,,,,,,,,,,,,,,,,,,,,,,,
,,,,,,,,,,stimuli/images/PICTURE_285.png,LIFE,5eb44fb0caffba299096cc38,27/10/1993,2020-08-13_12h47.51.675,proactive2,2020.1.2,MacIntel,60,5f341be081b9052c55068110,5f3528429acb9b07781c94d3,4,,,,,,carrot,,,,,,0,48,48,33,1,4,1,,,,,,,,,,,,,,,,,,,,,,,,,,,,,,,,,,,,,,,,,,,,,,,,,,,,,,,,,,,,,,,,,,,,,,,,,,,,,,,,,,,,,,,,,,,,,,,,,,,
