consent_key.keys,consent_key.rt,recalled,recalled_rt,recall_acc,example_recall.thisRepN,example_recall.thisTrialN,example_recall.thisN,example_recall.thisIndex,example_recall.ran,file,word,participant,please enter your date of birth (dd/mm/yyyy),date,expName,psychopyVersion,OS,frameRate,STUDY_ID,SESSION_ID,list,prac_learn_study_loop.thisRepN,prac_learn_study_loop.thisTrialN,prac_learn_study_loop.thisN,prac_learn_study_loop.thisIndex,prac_learn_study_loop.ran,image,prac_learn_test_loop.thisRepN,prac_learn_test_loop.thisTrialN,prac_learn_test_loop.thisN,prac_learn_test_loop.thisIndex,prac_learn_test_loop.ran,learn_study_loop.thisRepN,learn_study_loop.thisTrialN,learn_study_loop.thisN,learn_study_loop.thisIndex,learn_study_loop.ran,list_no,block_no,learn_test_loop.thisRepN,learn_test_loop.thisTrialN,learn_test_loop.thisN,learn_test_loop.thisIndex,learn_test_loop.ran,learn_blocks.thisRepN,learn_blocks.thisTrialN,learn_blocks.thisN,learn_blocks.thisIndex,learn_blocks.ran,block_csv,key_resp_13.keys,key_resp_13.rt,learn_blocks_loop.thisRepN,learn_blocks_loop.thisTrialN,learn_blocks_loop.thisN,learn_blocks_loop.thisIndex,learn_blocks_loop.ran,final_learn_test.thisRepN,final_learn_test.thisTrialN,final_learn_test.thisN,final_learn_test.thisIndex,final_learn_test.ran
y,26.218,?,11.558,0,0,0,0,0,1,stimuli/images/PICTURE_747.png,TOUGH,5ec513570e821a440f878858,29/04/1999,2020-08-13_12h52.19.132,proactive2,2020.1.2,MacIntel,60,5f341be081b9052c55068110,5f3529559e502b4786c79dd7,4,,,,,,,,,,,,,,,,,,,,,,,,,,,,,,,,,,,,,,,,,
,,,,,,,,,,stimuli/images/PICTURE_697.png,KILLER,5ec513570e821a440f878858,29/04/1999,2020-08-13_12h52.19.132,proactive2,2020.1.2,MacIntel,60,5f341be081b9052c55068110,5f3529559e502b4786c79dd7,4,0,0,0,4,1,peach,,,,,,,,,,,,,,,,,,,,,,,,,,,,,,,,,,,
,,,,,,,,,,stimuli/images/PICTURE_269.png,GENIUS,5ec513570e821a440f878858,29/04/1999,2020-08-13_12h52.19.132,proactive2,2020.1.2,MacIntel,60,5f341be081b9052c55068110,5f3529559e502b4786c79dd7,4,0,1,1,0,1,chameleon,,,,,,,,,,,,,,,,,,,,,,,,,,,,,,,,,,,
,,,,,,,,,,stimuli/images/PICTURE_727.png,CELL,5ec513570e821a440f878858,29/04/1999,2020-08-13_12h52.19.132,proactive2,2020.1.2,MacIntel,60,5f341be081b9052c55068110,5f3529559e502b4786c79dd7,4,0,2,2,1,1,hose,,,,,,,,,,,,,,,,,,,,,,,,,,,,,,,,,,,
,,,,,,,,,,stimuli/images/PICTURE_378.png,LOSS,5ec513570e821a440f878858,29/04/1999,2020-08-13_12h52.19.132,proactive2,2020.1.2,MacIntel,60,5f341be081b9052c55068110,5f3529559e502b4786c79dd7,4,0,3,3,2,1,lobster,,,,,,,,,,,,,,,,,,,,,,,,,,,,,,,,,,,
,,KILL,4.296,0,,,,,,stimuli/images/PICTURE_697.png,KILLER,5ec513570e821a440f878858,29/04/1999,2020-08-13_12h52.19.132,proactive2,2020.1.2,MacIntel,60,5f341be081b9052c55068110,5f3529559e502b4786c79dd7,4,,,,,,peach,0,0,0,4,1,,,,,,,,,,,,,,,,,,,,,,,,,,,,,,
,,CELL,3.415,1,,,,,,stimuli/images/PICTURE_727.png,CELL,5ec513570e821a440f878858,29/04/1999,2020-08-13_12h52.19.132,proactive2,2020.1.2,MacIntel,60,5f341be081b9052c55068110,5f3529559e502b4786c79dd7,4,,,,,,hose,0,1,1,1,1,,,,,,,,,,,,,,,,,,,,,,,,,,,,,,
,,DEVIL,2.537,1,,,,,,stimuli/images/PICTURE_658.png,DEVIL,5ec513570e821a440f878858,29/04/1999,2020-08-13_12h52.19.132,proactive2,2020.1.2,MacIntel,60,5f341be081b9052c55068110,5f3529559e502b4786c79dd7,4,,,,,,crow,0,2,2,3,1,,,,,,,,,,,,,,,,,,,,,,,,,,,,,,
,,LOSS,1.832,1,,,,,,stimuli/images/PICTURE_378.png,LOSS,5ec513570e821a440f878858,29/04/1999,2020-08-13_12h52.19.132,proactive2,2020.1.2,MacIntel,60,5f341be081b9052c55068110,5f3529559e502b4786c79dd7,4,,,,,,lobster,0,3,3,2,1,,,,,,,,,,,,,,,,,,,,,,,,,,,,,,
,,GENIUS,2.849,1,,,,,,stimuli/images/PICTURE_269.png,GENIUS,5ec513570e821a440f878858,29/04/1999,2020-08-13_12h52.19.132,proactive2,2020.1.2,MacIntel,60,5f341be081b9052c55068110,5f3529559e502b4786c79dd7,4,,,,,,chameleon,0,4,4,0,1,,,,,,,,,,,,,,,,,,,,,,,,,,,,,,
,,,,,,,,,,stimuli/images/PICTURE_509.png,BATH,5ec513570e821a440f878858,29/04/1999,2020-08-13_12h52.19.132,proactive2,2020.1.2,MacIntel,60,5f341be081b9052c55068110,5f3529559e502b4786c79dd7,4,,,,,,telephone,,,,,,0,0,0,15,1,2,2,,,,,,,,,,,,,,,,,,,,,,,
,,,,,,,,,,stimuli/images/PICTURE_141.png,CLIENT,5ec513570e821a440f878858,29/04/1999,2020-08-13_12h52.19.132,proactive2,2020.1.2,MacIntel,60,5f341be081b9052c55068110,5f3529559e502b4786c79dd7,4,,,,,,sunflower,,,,,,0,1,1,30,1,4,2,,,,,,,,,,,,,,,,,,,,,,,
,,,,,,,,,,stimuli/images/PICTURE_692.png,DUDE,5ec513570e821a440f878858,29/04/1999,2020-08-13_12h52.19.132,proactive2,2020.1.2,MacIntel,60,5f341be081b9052c55068110,5f3529559e502b4786c79dd7,4,,,,,,cherry,,,,,,0,2,2,47,1,5,2,,,,,,,,,,,,,,,,,,,,,,,
,,,,,,,,,,stimuli/images/PICTURE_708.png,VALLEY,5ec513570e821a440f878858,29/04/1999,2020-08-13_12h52.19.132,proactive2,2020.1.2,MacIntel,60,5f341be081b9052c55068110,5f3529559e502b4786c79dd7,4,,,,,,monkey,,,,,,0,3,3,45,1,5,2,,,,,,,,,,,,,,,,,,,,,,,
,,,,,,,,,,stimuli/images/PICTURE_509.png,SHOTS,5ec513570e821a440f878858,29/04/1999,2020-08-13_12h52.19.132,proactive2,2020.1.2,MacIntel,60,5f341be081b9052c55068110,5f3529559e502b4786c79dd7,4,,,,,,telephone,,,,,,0,4,4,7,1,1,2,,,,,,,,,,,,,,,,,,,,,,,
,,,,,,,,,,stimuli/images/PICTURE_68.png,KIND,5ec513570e821a440f878858,29/04/1999,2020-08-13_12h52.19.132,proactive2,2020.1.2,MacIntel,60,5f341be081b9052c55068110,5f3529559e502b4786c79dd7,4,,,,,,candle,,,,,,0,5,5,23,1,3,2,,,,,,,,,,,,,,,,,,,,,,,
,,,,,,,,,,stimuli/images/PICTURE_504.png,HOUSE,5ec513570e821a440f878858,29/04/1999,2020-08-13_12h52.19.132,proactive2,2020.1.2,MacIntel,60,5f341be081b9052c55068110,5f3529559e502b4786c79dd7,4,,,,,,wheel,,,,,,0,6,6,36,1,4,2,,,,,,,,,,,,,,,,,,,,,,,
,,,,,,,,,,stimuli/images/PICTURE_296.png,CLOCK,5ec513570e821a440f878858,29/04/1999,2020-08-13_12h52.19.132,proactive2,2020.1.2,MacIntel,60,5f341be081b9052c55068110,5f3529559e502b4786c79dd7,4,,,,,,bolt,,,,,,0,7,7,18,1,2,2,,,,,,,,,,,,,,,,,,,,,,,
,,,,,,,,,,stimuli/images/PICTURE_297.png,BODY,5ec513570e821a440f878858,29/04/1999,2020-08-13_12h52.19.132,proactive2,2020.1.2,MacIntel,60,5f341be081b9052c55068110,5f3529559e502b4786c79dd7,4,,,,,,aeroplane,,,,,,0,8,8,51,1,6,2,,,,,,,,,,,,,,,,,,,,,,,
,,,,,,,,,,stimuli/images/PICTURE_487.png,ROOF,5ec513570e821a440f878858,29/04/1999,2020-08-13_12h52.19.132,proactive2,2020.1.2,MacIntel,60,5f341be081b9052c55068110,5f3529559e502b4786c79dd7,4,,,,,,basket,,,,,,0,9,9,50,1,6,2,,,,,,,,,,,,,,,,,,,,,,,
,,,,,,,,,,stimuli/images/PICTURE_654.png,COPS,5ec513570e821a440f878858,29/04/1999,2020-08-13_12h52.19.132,proactive2,2020.1.2,MacIntel,60,5f341be081b9052c55068110,5f3529559e502b4786c79dd7,4,,,,,,pencil,,,,,,0,10,10,10,1,2,2,,,,,,,,,,,,,,,,,,,,,,,
,,,,,,,,,,stimuli/images/PICTURE_33.png,COPS,5ec513570e821a440f878858,29/04/1999,2020-08-13_12h52.19.132,proactive2,2020.1.2,MacIntel,60,5f341be081b9052c55068110,5f3529559e502b4786c79dd7,4,,,,,,frame,,,,,,0,11,11,29,1,3,2,,,,,,,,,,,,,,,,,,,,,,,
,,,,,,,,,,stimuli/images/PICTURE_215.png,FOOD,5ec513570e821a440f878858,29/04/1999,2020-08-13_12h52.19.132,proactive2,2020.1.2,MacIntel,60,5f341be081b9052c55068110,5f3529559e502b4786c79dd7,4,,,,,,boot,,,,,,0,12,12,5,1,1,2,,,,,,,,,,,,,,,,,,,,,,,
,,,,,,,,,,stimuli/images/PICTURE_405.png,JUNGLE,5ec513570e821a440f878858,29/04/1999,2020-08-13_12h52.19.132,proactive2,2020.1.2,MacIntel,60,5f341be081b9052c55068110,5f3529559e502b4786c79dd7,4,,,,,,anchor,,,,,,0,13,13,13,1,2,2,,,,,,,,,,,,,,,,,,,,,,,
,,,,,,,,,,stimuli/images/PICTURE_688.png,CLOCK,5ec513570e821a440f878858,29/04/1999,2020-08-13_12h52.19.132,proactive2,2020.1.2,MacIntel,60,5f341be081b9052c55068110,5f3529559e502b4786c79dd7,4,,,,,,runner,,,,,,0,14,14,42,1,5,2,,,,,,,,,,,,,,,,,,,,,,,
,,,,,,,,,,stimuli/images/PICTURE_487.png,POLICY,5ec513570e821a440f878858,29/04/1999,2020-08-13_12h52.19.132,proactive2,2020.1.2,MacIntel,60,5f341be081b9052c55068110,5f3529559e502b4786c79dd7,4,,,,,,basket,,,,,,0,15,15,34,1,4,2,,,,,,,,,,,,,,,,,,,,,,,
,,,,,,,,,,stimuli/images/PICTURE_509.png,MILLER,5ec513570e821a440f878858,29/04/1999,2020-08-13_12h52.19.132,proactive2,2020.1.2,MacIntel,60,5f341be081b9052c55068110,5f3529559e502b4786c79dd7,4,,,,,,telephone,,,,,,0,16,16,49,1,5,2,,,,,,,,,,,,,,,,,,,,,,,
,,,,,,,,,,stimuli/images/PICTURE_453.png,FAMILY,5ec513570e821a440f878858,29/04/1999,2020-08-13_12h52.19.132,proactive2,2020.1.2,MacIntel,60,5f341be081b9052c55068110,5f3529559e502b4786c79dd7,4,,,,,,scissors,,,,,,0,17,17,48,1,5,2,,,,,,,,,,,,,,,,,,,,,,,
,,,,,,,,,,stimuli/images/PICTURE_405.png,JUNGLE,5ec513570e821a440f878858,29/04/1999,2020-08-13_12h52.19.132,proactive2,2020.1.2,MacIntel,60,5f341be081b9052c55068110,5f3529559e502b4786c79dd7,4,,,,,,anchor,,,,,,0,18,18,58,1,6,2,,,,,,,,,,,,,,,,,,,,,,,
,,,,,,,,,,stimuli/images/PICTURE_356.png,CANDY,5ec513570e821a440f878858,29/04/1999,2020-08-13_12h52.19.132,proactive2,2020.1.2,MacIntel,60,5f341be081b9052c55068110,5f3529559e502b4786c79dd7,4,,,,,,pawn,,,,,,0,19,19,46,1,5,2,,,,,,,,,,,,,,,,,,,,,,,
,,,,,,,,,,stimuli/images/PICTURE_405.png,HOUSE,5ec513570e821a440f878858,29/04/1999,2020-08-13_12h52.19.132,proactive2,2020.1.2,MacIntel,60,5f341be081b9052c55068110,5f3529559e502b4786c79dd7,4,,,,,,anchor,,,,,,0,20,20,2,1,1,2,,,,,,,,,,,,,,,,,,,,,,,
,,,,,,,,,,stimuli/images/PICTURE_403.png,FAMILY,5ec513570e821a440f878858,29/04/1999,2020-08-13_12h52.19.132,proactive2,2020.1.2,MacIntel,60,5f341be081b9052c55068110,5f3529559e502b4786c79dd7,4,,,,,,cathedral,,,,,,0,21,21,9,1,1,2,,,,,,,,,,,,,,,,,,,,,,,
,,,,,,,,,,stimuli/images/PICTURE_667.png,GLASS,5ec513570e821a440f878858,29/04/1999,2020-08-13_12h52.19.132,proactive2,2020.1.2,MacIntel,60,5f341be081b9052c55068110,5f3529559e502b4786c79dd7,4,,,,,,daisy,,,,,,0,22,22,27,1,3,2,,,,,,,,,,,,,,,,,,,,,,,
,,,,,,,,,,stimuli/images/PICTURE_57.png,CANDY,5ec513570e821a440f878858,29/04/1999,2020-08-13_12h52.19.132,proactive2,2020.1.2,MacIntel,60,5f341be081b9052c55068110,5f3529559e502b4786c79dd7,4,,,,,,stamp,,,,,,0,23,23,52,1,6,2,,,,,,,,,,,,,,,,,,,,,,,
,,,,,,,,,,stimuli/images/PICTURE_564.png,PLENTY,5ec513570e821a440f878858,29/04/1999,2020-08-13_12h52.19.132,proactive2,2020.1.2,MacIntel,60,5f341be081b9052c55068110,5f3529559e502b4786c79dd7,4,,,,,,spoon,,,,,,0,24,24,11,1,2,2,,,,,,,,,,,,,,,,,,,,,,,
,,,,,,,,,,stimuli/images/PICTURE_750.png,POLICY,5ec513570e821a440f878858,29/04/1999,2020-08-13_12h52.19.132,proactive2,2020.1.2,MacIntel,60,5f341be081b9052c55068110,5f3529559e502b4786c79dd7,4,,,,,,kettle,,,,,,0,25,25,44,1,5,2,,,,,,,,,,,,,,,,,,,,,,,
,,,,,,,,,,stimuli/images/PICTURE_93.png,GIRL,5ec513570e821a440f878858,29/04/1999,2020-08-13_12h52.19.132,proactive2,2020.1.2,MacIntel,60,5f341be081b9052c55068110,5f3529559e502b4786c79dd7,4,,,,,,skateboard,,,,,,0,26,26,31,1,4,2,,,,,,,,,,,,,,,,,,,,,,,
,,,,,,,,,,stimuli/images/PICTURE_348.png,DUDE,5ec513570e821a440f878858,29/04/1999,2020-08-13_12h52.19.132,proactive2,2020.1.2,MacIntel,60,5f341be081b9052c55068110,5f3529559e502b4786c79dd7,4,,,,,,pepper,,,,,,0,27,27,59,1,6,2,,,,,,,,,,,,,,,,,,,,,,,
,,,,,,,,,,stimuli/images/PICTURE_208.png,SPIRIT,5ec513570e821a440f878858,29/04/1999,2020-08-13_12h52.19.132,proactive2,2020.1.2,MacIntel,60,5f341be081b9052c55068110,5f3529559e502b4786c79dd7,4,,,,,,microphone,,,,,,0,28,28,28,1,3,2,,,,,,,,,,,,,,,,,,,,,,,
,,,,,,,,,,stimuli/images/PICTURE_123.png,SALE,5ec513570e821a440f878858,29/04/1999,2020-08-13_12h52.19.132,proactive2,2020.1.2,MacIntel,60,5f341be081b9052c55068110,5f3529559e502b4786c79dd7,4,,,,,,dart,,,,,,0,29,29,8,1,1,2,,,,,,,,,,,,,,,,,,,,,,,
,,,,,,,,,,stimuli/images/PICTURE_2.png,JUNGLE,5ec513570e821a440f878858,29/04/1999,2020-08-13_12h52.19.132,proactive2,2020.1.2,MacIntel,60,5f341be081b9052c55068110,5f3529559e502b4786c79dd7,4,,,,,,tyre,,,,,,0,30,30,1,1,1,2,,,,,,,,,,,,,,,,,,,,,,,
,,,,,,,,,,stimuli/images/PICTURE_177.png,HOUSE,5ec513570e821a440f878858,29/04/1999,2020-08-13_12h52.19.132,proactive2,2020.1.2,MacIntel,60,5f341be081b9052c55068110,5f3529559e502b4786c79dd7,4,,,,,,mushroom,,,,,,0,31,31,25,1,3,2,,,,,,,,,,,,,,,,,,,,,,,
,,,,,,,,,,stimuli/images/PICTURE_348.png,TOILET,5ec513570e821a440f878858,29/04/1999,2020-08-13_12h52.19.132,proactive2,2020.1.2,MacIntel,60,5f341be081b9052c55068110,5f3529559e502b4786c79dd7,4,,,,,,pepper,,,,,,0,32,32,4,1,1,2,,,,,,,,,,,,,,,,,,,,,,,
,,,,,,,,,,stimuli/images/PICTURE_311.png,TOILET,5ec513570e821a440f878858,29/04/1999,2020-08-13_12h52.19.132,proactive2,2020.1.2,MacIntel,60,5f341be081b9052c55068110,5f3529559e502b4786c79dd7,4,,,,,,razor,,,,,,0,33,33,54,1,6,2,,,,,,,,,,,,,,,,,,,,,,,
,,,,,,,,,,stimuli/images/PICTURE_470.png,BEAUTY,5ec513570e821a440f878858,29/04/1999,2020-08-13_12h52.19.132,proactive2,2020.1.2,MacIntel,60,5f341be081b9052c55068110,5f3529559e502b4786c79dd7,4,,,,,,motorbike,,,,,,0,34,34,26,1,3,2,,,,,,,,,,,,,,,,,,,,,,,
,,,,,,,,,,stimuli/images/PICTURE_57.png,NATION,5ec513570e821a440f878858,29/04/1999,2020-08-13_12h52.19.132,proactive2,2020.1.2,MacIntel,60,5f341be081b9052c55068110,5f3529559e502b4786c79dd7,4,,,,,,stamp,,,,,,0,35,35,21,1,3,2,,,,,,,,,,,,,,,,,,,,,,,
,,,,,,,,,,stimuli/images/PICTURE_509.png,APPLE,5ec513570e821a440f878858,29/04/1999,2020-08-13_12h52.19.132,proactive2,2020.1.2,MacIntel,60,5f341be081b9052c55068110,5f3529559e502b4786c79dd7,4,,,,,,telephone,,,,,,0,36,36,38,1,4,2,,,,,,,,,,,,,,,,,,,,,,,
,,,,,,,,,,stimuli/images/PICTURE_2.png,AREA,5ec513570e821a440f878858,29/04/1999,2020-08-13_12h52.19.132,proactive2,2020.1.2,MacIntel,60,5f341be081b9052c55068110,5f3529559e502b4786c79dd7,4,,,,,,tyre,,,,,,0,37,37,32,1,4,2,,,,,,,,,,,,,,,,,,,,,,,
,,,,,,,,,,stimuli/images/PICTURE_147.png,LEADER,5ec513570e821a440f878858,29/04/1999,2020-08-13_12h52.19.132,proactive2,2020.1.2,MacIntel,60,5f341be081b9052c55068110,5f3529559e502b4786c79dd7,4,,,,,,hanger,,,,,,0,38,38,33,1,4,2,,,,,,,,,,,,,,,,,,,,,,,
,,,,,,,,,,stimuli/images/PICTURE_311.png,FLESH,5ec513570e821a440f878858,29/04/1999,2020-08-13_12h52.19.132,proactive2,2020.1.2,MacIntel,60,5f341be081b9052c55068110,5f3529559e502b4786c79dd7,4,,,,,,razor,,,,,,0,39,39,3,1,1,2,,,,,,,,,,,,,,,,,,,,,,,
,,,,,,,,,,stimuli/images/PICTURE_314.png,SPEECH,5ec513570e821a440f878858,29/04/1999,2020-08-13_12h52.19.132,proactive2,2020.1.2,MacIntel,60,5f341be081b9052c55068110,5f3529559e502b4786c79dd7,4,,,,,,perfume,,,,,,0,40,40,35,1,4,2,,,,,,,,,,,,,,,,,,,,,,,
,,,,,,,,,,stimuli/images/PICTURE_18.png,RIVER,5ec513570e821a440f878858,29/04/1999,2020-08-13_12h52.19.132,proactive2,2020.1.2,MacIntel,60,5f341be081b9052c55068110,5f3529559e502b4786c79dd7,4,,,,,,planet,,,,,,0,41,41,22,1,3,2,,,,,,,,,,,,,,,,,,,,,,,
,,,,,,,,,,stimuli/images/PICTURE_285.png,PRINCE,5ec513570e821a440f878858,29/04/1999,2020-08-13_12h52.19.132,proactive2,2020.1.2,MacIntel,60,5f341be081b9052c55068110,5f3529559e502b4786c79dd7,4,,,,,,carrot,,,,,,0,42,42,20,1,3,2,,,,,,,,,,,,,,,,,,,,,,,
,,,,,,,,,,stimuli/images/PICTURE_285.png,WRITER,5ec513570e821a440f878858,29/04/1999,2020-08-13_12h52.19.132,proactive2,2020.1.2,MacIntel,60,5f341be081b9052c55068110,5f3529559e502b4786c79dd7,4,,,,,,carrot,,,,,,0,43,43,6,1,1,2,,,,,,,,,,,,,,,,,,,,,,,
,,,,,,,,,,stimuli/images/PICTURE_57.png,CASINO,5ec513570e821a440f878858,29/04/1999,2020-08-13_12h52.19.132,proactive2,2020.1.2,MacIntel,60,5f341be081b9052c55068110,5f3529559e502b4786c79dd7,4,,,,,,stamp,,,,,,0,44,44,12,1,2,2,,,,,,,,,,,,,,,,,,,,,,,
,,,,,,,,,,stimuli/images/PICTURE_2.png,YARD,5ec513570e821a440f878858,29/04/1999,2020-08-13_12h52.19.132,proactive2,2020.1.2,MacIntel,60,5f341be081b9052c55068110,5f3529559e502b4786c79dd7,4,,,,,,tyre,,,,,,0,45,45,55,1,6,2,,,,,,,,,,,,,,,,,,,,,,,
,,,,,,,,,,stimuli/images/PICTURE_327.png,LEADER,5ec513570e821a440f878858,29/04/1999,2020-08-13_12h52.19.132,proactive2,2020.1.2,MacIntel,60,5f341be081b9052c55068110,5f3529559e502b4786c79dd7,4,,,,,,helmet,,,,,,0,46,46,17,1,2,2,,,,,,,,,,,,,,,,,,,,,,,
,,,,,,,,,,stimuli/images/PICTURE_452.png,COPS,5ec513570e821a440f878858,29/04/1999,2020-08-13_12h52.19.132,proactive2,2020.1.2,MacIntel,60,5f341be081b9052c55068110,5f3529559e502b4786c79dd7,4,,,,,,watch,,,,,,0,47,47,0,1,1,2,,,,,,,,,,,,,,,,,,,,,,,
,,,,,,,,,,stimuli/images/PICTURE_32.png,LETTER,5ec513570e821a440f878858,29/04/1999,2020-08-13_12h52.19.132,proactive2,2020.1.2,MacIntel,60,5f341be081b9052c55068110,5f3529559e502b4786c79dd7,4,,,,,,crown,,,,,,0,48,48,56,1,6,2,,,,,,,,,,,,,,,,,,,,,,,
,,,,,,,,,,stimuli/images/PICTURE_677.png,FAMILY,5ec513570e821a440f878858,29/04/1999,2020-08-13_12h52.19.132,proactive2,2020.1.2,MacIntel,60,5f341be081b9052c55068110,5f3529559e502b4786c79dd7,4,,,,,,map,,,,,,0,49,49,53,1,6,2,,,,,,,,,,,,,,,,,,,,,,,
,,,,,,,,,,stimuli/images/PICTURE_655.png,SALE,5ec513570e821a440f878858,29/04/1999,2020-08-13_12h52.19.132,proactive2,2020.1.2,MacIntel,60,5f341be081b9052c55068110,5f3529559e502b4786c79dd7,4,,,,,,megaphone,,,,,,0,50,50,57,1,6,2,,,,,,,,,,,,,,,,,,,,,,,
,,,,,,,,,,stimuli/images/PICTURE_255.png,PENNY,5ec513570e821a440f878858,29/04/1999,2020-08-13_12h52.19.132,proactive2,2020.1.2,MacIntel,60,5f341be081b9052c55068110,5f3529559e502b4786c79dd7,4,,,,,,shovel,,,,,,0,51,51,19,1,2,2,,,,,,,,,,,,,,,,,,,,,,,
,,,,,,,,,,stimuli/images/PICTURE_677.png,PHOTO,5ec513570e821a440f878858,29/04/1999,2020-08-13_12h52.19.132,proactive2,2020.1.2,MacIntel,60,5f341be081b9052c55068110,5f3529559e502b4786c79dd7,4,,,,,,map,,,,,,0,52,52,14,1,2,2,,,,,,,,,,,,,,,,,,,,,,,
,,,,,,,,,,stimuli/images/PICTURE_491.png,SERIES,5ec513570e821a440f878858,29/04/1999,2020-08-13_12h52.19.132,proactive2,2020.1.2,MacIntel,60,5f341be081b9052c55068110,5f3529559e502b4786c79dd7,4,,,,,,rug,,,,,,0,53,53,39,1,4,2,,,,,,,,,,,,,,,,,,,,,,,
,,,,,,,,,,stimuli/images/PICTURE_215.png,LEADER,5ec513570e821a440f878858,29/04/1999,2020-08-13_12h52.19.132,proactive2,2020.1.2,MacIntel,60,5f341be081b9052c55068110,5f3529559e502b4786c79dd7,4,,,,,,boot,,,,,,0,54,54,43,1,5,2,,,,,,,,,,,,,,,,,,,,,,,
,,,,,,,,,,stimuli/images/PICTURE_470.png,MOMENT,5ec513570e821a440f878858,29/04/1999,2020-08-13_12h52.19.132,proactive2,2020.1.2,MacIntel,60,5f341be081b9052c55068110,5f3529559e502b4786c79dd7,4,,,,,,motorbike,,,,,,0,55,55,40,1,5,2,,,,,,,,,,,,,,,,,,,,,,,
,,,,,,,,,,stimuli/images/PICTURE_215.png,BOYS,5ec513570e821a440f878858,29/04/1999,2020-08-13_12h52.19.132,proactive2,2020.1.2,MacIntel,60,5f341be081b9052c55068110,5f3529559e502b4786c79dd7,4,,,,,,boot,,,,,,0,56,56,24,1,3,2,,,,,,,,,,,,,,,,,,,,,,,
,,,,,,,,,,stimuli/images/PICTURE_95.png,NIGHT,5ec513570e821a440f878858,29/04/1999,2020-08-13_12h52.19.132,proactive2,2020.1.2,MacIntel,60,5f341be081b9052c55068110,5f3529559e502b4786c79dd7,4,,,,,,suitcase,,,,,,0,57,57,37,1,4,2,,,,,,,,,,,,,,,,,,,,,,,
,,,,,,,,,,stimuli/images/PICTURE_654.png,YEAR,5ec513570e821a440f878858,29/04/1999,2020-08-13_12h52.19.132,proactive2,2020.1.2,MacIntel,60,5f341be081b9052c55068110,5f3529559e502b4786c79dd7,4,,,,,,pencil,,,,,,0,58,58,41,1,5,2,,,,,,,,,,,,,,,,,,,,,,,
,,?,0.001,0,,,,,,stimuli/images/PICTURE_57.png,CASINO,5ec513570e821a440f878858,29/04/1999,2020-08-13_12h52.19.132,proactive2,2020.1.2,MacIntel,60,5f341be081b9052c55068110,5f3529559e502b4786c79dd7,4,,,,,,stamp,,,,,,,,,,,2,2,0,0,0,12,1,,,,,,,,,,,,,,,,,,
,,?,0.001,0,,,,,,stimuli/images/PICTURE_509.png,BATH,5ec513570e821a440f878858,29/04/1999,2020-08-13_12h52.19.132,proactive2,2020.1.2,MacIntel,60,5f341be081b9052c55068110,5f3529559e502b4786c79dd7,4,,,,,,telephone,,,,,,,,,,,2,2,0,1,1,15,1,,,,,,,,,,,,,,,,,,
,,APPLE,2.589,1,,,,,,stimuli/images/PICTURE_509.png,APPLE,5ec513570e821a440f878858,29/04/1999,2020-08-13_12h52.19.132,proactive2,2020.1.2,MacIntel,60,5f341be081b9052c55068110,5f3529559e502b4786c79dd7,4,,,,,,telephone,,,,,,,,,,,4,2,0,2,2,38,1,,,,,,,,,,,,,,,,,,
,,?,0.001,0,,,,,,stimuli/images/PICTURE_509.png,SHOTS,5ec513570e821a440f878858,29/04/1999,2020-08-13_12h52.19.132,proactive2,2020.1.2,MacIntel,60,5f341be081b9052c55068110,5f3529559e502b4786c79dd7,4,,,,,,telephone,,,,,,,,,,,1,2,0,3,3,7,1,,,,,,,,,,,,,,,,,,
,,LEADER,3.129,1,,,,,,stimuli/images/PICTURE_147.png,LEADER,5ec513570e821a440f878858,29/04/1999,2020-08-13_12h52.19.132,proactive2,2020.1.2,MacIntel,60,5f341be081b9052c55068110,5f3529559e502b4786c79dd7,4,,,,,,hanger,,,,,,,,,,,4,2,0,4,4,33,1,,,,,,,,,,,,,,,,,,
,,?,0.001,0,,,,,,stimuli/images/PICTURE_405.png,JUNGLE,5ec513570e821a440f878858,29/04/1999,2020-08-13_12h52.19.132,proactive2,2020.1.2,MacIntel,60,5f341be081b9052c55068110,5f3529559e502b4786c79dd7,4,,,,,,anchor,,,,,,,,,,,6,2,0,5,5,58,1,,,,,,,,,,,,,,,,,,
,,?,0.001,0,,,,,,stimuli/images/PICTURE_348.png,TOILET,5ec513570e821a440f878858,29/04/1999,2020-08-13_12h52.19.132,proactive2,2020.1.2,MacIntel,60,5f341be081b9052c55068110,5f3529559e502b4786c79dd7,4,,,,,,pepper,,,,,,,,,,,1,2,0,6,6,4,1,,,,,,,,,,,,,,,,,,
,,?,0.001,0,,,,,,stimuli/images/PICTURE_123.png,SALE,5ec513570e821a440f878858,29/04/1999,2020-08-13_12h52.19.132,proactive2,2020.1.2,MacIntel,60,5f341be081b9052c55068110,5f3529559e502b4786c79dd7,4,,,,,,dart,,,,,,,,,,,1,2,0,7,7,8,1,,,,,,,,,,,,,,,,,,
,,?,0,0,,,,,,stimuli/images/PICTURE_677.png,FAMILY,5ec513570e821a440f878858,29/04/1999,2020-08-13_12h52.19.132,proactive2,2020.1.2,MacIntel,60,5f341be081b9052c55068110,5f3529559e502b4786c79dd7,4,,,,,,map,,,,,,,,,,,6,2,0,8,8,53,1,,,,,,,,,,,,,,,,,,
,,?,0.001,0,,,,,,stimuli/images/PICTURE_311.png,FLESH,5ec513570e821a440f878858,29/04/1999,2020-08-13_12h52.19.132,proactive2,2020.1.2,MacIntel,60,5f341be081b9052c55068110,5f3529559e502b4786c79dd7,4,,,,,,razor,,,,,,,,,,,1,2,0,9,9,3,1,,,,,,,,,,,,,,,,,,
,,?,0,0,,,,,,stimuli/images/PICTURE_2.png,YARD,5ec513570e821a440f878858,29/04/1999,2020-08-13_12h52.19.132,proactive2,2020.1.2,MacIntel,60,5f341be081b9052c55068110,5f3529559e502b4786c79dd7,4,,,,,,tyre,,,,,,,,,,,6,2,0,10,10,55,1,,,,,,,,,,,,,,,,,,
,,?,0,0,,,,,,stimuli/images/PICTURE_32.png,LETTER,5ec513570e821a440f878858,29/04/1999,2020-08-13_12h52.19.132,proactive2,2020.1.2,MacIntel,60,5f341be081b9052c55068110,5f3529559e502b4786c79dd7,4,,,,,,crown,,,,,,,,,,,6,2,0,11,11,56,1,,,,,,,,,,,,,,,,,,
,,GIRL,2.204,1,,,,,,stimuli/images/PICTURE_93.png,GIRL,5ec513570e821a440f878858,29/04/1999,2020-08-13_12h52.19.132,proactive2,2020.1.2,MacIntel,60,5f341be081b9052c55068110,5f3529559e502b4786c79dd7,4,,,,,,skateboard,,,,,,,,,,,4,2,0,12,12,31,1,,,,,,,,,,,,,,,,,,
,,?,0.002,0,,,,,,stimuli/images/PICTURE_18.png,RIVER,5ec513570e821a440f878858,29/04/1999,2020-08-13_12h52.19.132,proactive2,2020.1.2,MacIntel,60,5f341be081b9052c55068110,5f3529559e502b4786c79dd7,4,,,,,,planet,,,,,,,,,,,3,2,0,13,13,22,1,,,,,,,,,,,,,,,,,,
,,?,0.001,0,,,,,,stimuli/images/PICTURE_348.png,DUDE,5ec513570e821a440f878858,29/04/1999,2020-08-13_12h52.19.132,proactive2,2020.1.2,MacIntel,60,5f341be081b9052c55068110,5f3529559e502b4786c79dd7,4,,,,,,pepper,,,,,,,,,,,6,2,0,14,14,59,1,,,,,,,,,,,,,,,,,,
,,NIGHT,2.278,1,,,,,,stimuli/images/PICTURE_95.png,NIGHT,5ec513570e821a440f878858,29/04/1999,2020-08-13_12h52.19.132,proactive2,2020.1.2,MacIntel,60,5f341be081b9052c55068110,5f3529559e502b4786c79dd7,4,,,,,,suitcase,,,,,,,,,,,4,2,0,15,15,37,1,,,,,,,,,,,,,,,,,,
,,?,0.001,0,,,,,,stimuli/images/PICTURE_215.png,LEADER,5ec513570e821a440f878858,29/04/1999,2020-08-13_12h52.19.132,proactive2,2020.1.2,MacIntel,60,5f341be081b9052c55068110,5f3529559e502b4786c79dd7,4,,,,,,boot,,,,,,,,,,,5,2,0,16,16,43,1,,,,,,,,,,,,,,,,,,
,,?,0.001,0,,,,,,stimuli/images/PICTURE_750.png,POLICY,5ec513570e821a440f878858,29/04/1999,2020-08-13_12h52.19.132,proactive2,2020.1.2,MacIntel,60,5f341be081b9052c55068110,5f3529559e502b4786c79dd7,4,,,,,,kettle,,,,,,,,,,,5,2,0,17,17,44,1,,,,,,,,,,,,,,,,,,
,,?,0,0,,,,,,stimuli/images/PICTURE_509.png,MILLER,5ec513570e821a440f878858,29/04/1999,2020-08-13_12h52.19.132,proactive2,2020.1.2,MacIntel,60,5f341be081b9052c55068110,5f3529559e502b4786c79dd7,4,,,,,,telephone,,,,,,,,,,,5,2,0,18,18,49,1,,,,,,,,,,,,,,,,,,
,,AREA,2.21,1,,,,,,stimuli/images/PICTURE_2.png,AREA,5ec513570e821a440f878858,29/04/1999,2020-08-13_12h52.19.132,proactive2,2020.1.2,MacIntel,60,5f341be081b9052c55068110,5f3529559e502b4786c79dd7,4,,,,,,tyre,,,,,,,,,,,4,2,0,19,19,32,1,,,,,,,,,,,,,,,,,,
,,?,0.002,0,,,,,,stimuli/images/PICTURE_215.png,FOOD,5ec513570e821a440f878858,29/04/1999,2020-08-13_12h52.19.132,proactive2,2020.1.2,MacIntel,60,5f341be081b9052c55068110,5f3529559e502b4786c79dd7,4,,,,,,boot,,,,,,,,,,,1,2,0,20,20,5,1,,,,,,,,,,,,,,,,,,
,,?,0.001,0,,,,,,stimuli/images/PICTURE_654.png,YEAR,5ec513570e821a440f878858,29/04/1999,2020-08-13_12h52.19.132,proactive2,2020.1.2,MacIntel,60,5f341be081b9052c55068110,5f3529559e502b4786c79dd7,4,,,,,,pencil,,,,,,,,,,,5,2,0,21,21,41,1,,,,,,,,,,,,,,,,,,
,,?,0.001,0,,,,,,stimuli/images/PICTURE_564.png,PLENTY,5ec513570e821a440f878858,29/04/1999,2020-08-13_12h52.19.132,proactive2,2020.1.2,MacIntel,60,5f341be081b9052c55068110,5f3529559e502b4786c79dd7,4,,,,,,spoon,,,,,,,,,,,2,2,0,22,22,11,1,,,,,,,,,,,,,,,,,,
,,SERIES,2.826,1,,,,,,stimuli/images/PICTURE_491.png,SERIES,5ec513570e821a440f878858,29/04/1999,2020-08-13_12h52.19.132,proactive2,2020.1.2,MacIntel,60,5f341be081b9052c55068110,5f3529559e502b4786c79dd7,4,,,,,,rug,,,,,,,,,,,4,2,0,23,23,39,1,,,,,,,,,,,,,,,,,,
,,?,0.002,0,,,,,,stimuli/images/PICTURE_405.png,HOUSE,5ec513570e821a440f878858,29/04/1999,2020-08-13_12h52.19.132,proactive2,2020.1.2,MacIntel,60,5f341be081b9052c55068110,5f3529559e502b4786c79dd7,4,,,,,,anchor,,,,,,,,,,,1,2,0,24,24,2,1,,,,,,,,,,,,,,,,,,
,,?,0.001,0,,,,,,stimuli/images/PICTURE_285.png,PRINCE,5ec513570e821a440f878858,29/04/1999,2020-08-13_12h52.19.132,proactive2,2020.1.2,MacIntel,60,5f341be081b9052c55068110,5f3529559e502b4786c79dd7,4,,,,,,carrot,,,,,,,,,,,3,2,0,25,25,20,1,,,,,,,,,,,,,,,,,,
,,?,0.001,0,,,,,,stimuli/images/PICTURE_33.png,COPS,5ec513570e821a440f878858,29/04/1999,2020-08-13_12h52.19.132,proactive2,2020.1.2,MacIntel,60,5f341be081b9052c55068110,5f3529559e502b4786c79dd7,4,,,,,,frame,,,,,,,,,,,3,2,0,26,26,29,1,,,,,,,,,,,,,,,,,,
,,?,0,0,,,,,,stimuli/images/PICTURE_453.png,FAMILY,5ec513570e821a440f878858,29/04/1999,2020-08-13_12h52.19.132,proactive2,2020.1.2,MacIntel,60,5f341be081b9052c55068110,5f3529559e502b4786c79dd7,4,,,,,,scissors,,,,,,,,,,,5,2,0,27,27,48,1,,,,,,,,,,,,,,,,,,
,,?,0.001,0,,,,,,stimuli/images/PICTURE_160.png,HOTEL,5ec513570e821a440f878858,29/04/1999,2020-08-13_12h52.19.132,proactive2,2020.1.2,MacIntel,60,5f341be081b9052c55068110,5f3529559e502b4786c79dd7,4,,,,,,wheelbarrow,,,,,,,,,,,2,2,0,28,28,16,1,,,,,,,,,,,,,,,,,,
,,HOUSE,2.09,1,,,,,,stimuli/images/PICTURE_504.png,HOUSE,5ec513570e821a440f878858,29/04/1999,2020-08-13_12h52.19.132,proactive2,2020.1.2,MacIntel,60,5f341be081b9052c55068110,5f3529559e502b4786c79dd7,4,,,,,,wheel,,,,,,,,,,,4,2,0,29,29,36,1,,,,,,,,,,,,,,,,,,
,,?,0.001,0,,,,,,stimuli/images/PICTURE_677.png,PHOTO,5ec513570e821a440f878858,29/04/1999,2020-08-13_12h52.19.132,proactive2,2020.1.2,MacIntel,60,5f341be081b9052c55068110,5f3529559e502b4786c79dd7,4,,,,,,map,,,,,,,,,,,2,2,0,30,30,14,1,,,,,,,,,,,,,,,,,,
,,CLIENT,2.164,1,,,,,,stimuli/images/PICTURE_141.png,CLIENT,5ec513570e821a440f878858,29/04/1999,2020-08-13_12h52.19.132,proactive2,2020.1.2,MacIntel,60,5f341be081b9052c55068110,5f3529559e502b4786c79dd7,4,,,,,,sunflower,,,,,,,,,,,4,2,0,31,31,30,1,,,,,,,,,,,,,,,,,,
,,?,0.001,0,,,,,,stimuli/images/PICTURE_2.png,JUNGLE,5ec513570e821a440f878858,29/04/1999,2020-08-13_12h52.19.132,proactive2,2020.1.2,MacIntel,60,5f341be081b9052c55068110,5f3529559e502b4786c79dd7,4,,,,,,tyre,,,,,,,,,,,1,2,0,32,32,1,1,,,,,,,,,,,,,,,,,,
,,?,0.001,0,,,,,,stimuli/images/PICTURE_327.png,LEADER,5ec513570e821a440f878858,29/04/1999,2020-08-13_12h52.19.132,proactive2,2020.1.2,MacIntel,60,5f341be081b9052c55068110,5f3529559e502b4786c79dd7,4,,,,,,helmet,,,,,,,,,,,2,2,0,33,33,17,1,,,,,,,,,,,,,,,,,,
,,?,0.001,0,,,,,,stimuli/images/PICTURE_57.png,CANDY,5ec513570e821a440f878858,29/04/1999,2020-08-13_12h52.19.132,proactive2,2020.1.2,MacIntel,60,5f341be081b9052c55068110,5f3529559e502b4786c79dd7,4,,,,,,stamp,,,,,,,,,,,6,2,0,34,34,52,1,,,,,,,,,,,,,,,,,,
,,?,0.001,0,,,,,,stimuli/images/PICTURE_655.png,SALE,5ec513570e821a440f878858,29/04/1999,2020-08-13_12h52.19.132,proactive2,2020.1.2,MacIntel,60,5f341be081b9052c55068110,5f3529559e502b4786c79dd7,4,,,,,,megaphone,,,,,,,,,,,6,2,0,35,35,57,1,,,,,,,,,,,,,,,,,,
,,?,0,0,,,,,,stimuli/images/PICTURE_285.png,WRITER,5ec513570e821a440f878858,29/04/1999,2020-08-13_12h52.19.132,proactive2,2020.1.2,MacIntel,60,5f341be081b9052c55068110,5f3529559e502b4786c79dd7,4,,,,,,carrot,,,,,,,,,,,1,2,0,36,36,6,1,,,,,,,,,,,,,,,,,,
,,?,0.001,0,,,,,,stimuli/images/PICTURE_470.png,MOMENT,5ec513570e821a440f878858,29/04/1999,2020-08-13_12h52.19.132,proactive2,2020.1.2,MacIntel,60,5f341be081b9052c55068110,5f3529559e502b4786c79dd7,4,,,,,,motorbike,,,,,,,,,,,5,2,0,37,37,40,1,,,,,,,,,,,,,,,,,,
,,?,0.001,0,,,,,,stimuli/images/PICTURE_405.png,JUNGLE,5ec513570e821a440f878858,29/04/1999,2020-08-13_12h52.19.132,proactive2,2020.1.2,MacIntel,60,5f341be081b9052c55068110,5f3529559e502b4786c79dd7,4,,,,,,anchor,,,,,,,,,,,2,2,0,38,38,13,1,,,,,,,,,,,,,,,,,,
,,?,0,0,,,,,,stimuli/images/PICTURE_57.png,NATION,5ec513570e821a440f878858,29/04/1999,2020-08-13_12h52.19.132,proactive2,2020.1.2,MacIntel,60,5f341be081b9052c55068110,5f3529559e502b4786c79dd7,4,,,,,,stamp,,,,,,,,,,,3,2,0,39,39,21,1,,,,,,,,,,,,,,,,,,
,,SPEECH,4.169,1,,,,,,stimuli/images/PICTURE_314.png,SPEECH,5ec513570e821a440f878858,29/04/1999,2020-08-13_12h52.19.132,proactive2,2020.1.2,MacIntel,60,5f341be081b9052c55068110,5f3529559e502b4786c79dd7,4,,,,,,perfume,,,,,,,,,,,4,2,0,40,40,35,1,,,,,,,,,,,,,,,,,,
,,?,0.002,0,,,,,,stimuli/images/PICTURE_667.png,GLASS,5ec513570e821a440f878858,29/04/1999,2020-08-13_12h52.19.132,proactive2,2020.1.2,MacIntel,60,5f341be081b9052c55068110,5f3529559e502b4786c79dd7,4,,,,,,daisy,,,,,,,,,,,3,2,0,41,41,27,1,,,,,,,,,,,,,,,,,,
,,?,0.001,0,,,,,,stimuli/images/PICTURE_296.png,CLOCK,5ec513570e821a440f878858,29/04/1999,2020-08-13_12h52.19.132,proactive2,2020.1.2,MacIntel,60,5f341be081b9052c55068110,5f3529559e502b4786c79dd7,4,,,,,,bolt,,,,,,,,,,,2,2,0,42,42,18,1,,,,,,,,,,,,,,,,,,
,,?,0.001,0,,,,,,stimuli/images/PICTURE_708.png,VALLEY,5ec513570e821a440f878858,29/04/1999,2020-08-13_12h52.19.132,proactive2,2020.1.2,MacIntel,60,5f341be081b9052c55068110,5f3529559e502b4786c79dd7,4,,,,,,monkey,,,,,,,,,,,5,2,0,43,43,45,1,,,,,,,,,,,,,,,,,,
,,?,0.001,0,,,,,,stimuli/images/PICTURE_487.png,ROOF,5ec513570e821a440f878858,29/04/1999,2020-08-13_12h52.19.132,proactive2,2020.1.2,MacIntel,60,5f341be081b9052c55068110,5f3529559e502b4786c79dd7,4,,,,,,basket,,,,,,,,,,,6,2,0,44,44,50,1,,,,,,,,,,,,,,,,,,
,,?,0.001,0,,,,,,stimuli/images/PICTURE_356.png,CANDY,5ec513570e821a440f878858,29/04/1999,2020-08-13_12h52.19.132,proactive2,2020.1.2,MacIntel,60,5f341be081b9052c55068110,5f3529559e502b4786c79dd7,4,,,,,,pawn,,,,,,,,,,,5,2,0,45,45,46,1,,,,,,,,,,,,,,,,,,
,,?,0.001,0,,,,,,stimuli/images/PICTURE_654.png,COPS,5ec513570e821a440f878858,29/04/1999,2020-08-13_12h52.19.132,proactive2,2020.1.2,MacIntel,60,5f341be081b9052c55068110,5f3529559e502b4786c79dd7,4,,,,,,pencil,,,,,,,,,,,2,2,0,46,46,10,1,,,,,,,,,,,,,,,,,,
,,?,0,0,,,,,,stimuli/images/PICTURE_208.png,SPIRIT,5ec513570e821a440f878858,29/04/1999,2020-08-13_12h52.19.132,proactive2,2020.1.2,MacIntel,60,5f341be081b9052c55068110,5f3529559e502b4786c79dd7,4,,,,,,microphone,,,,,,,,,,,3,2,0,47,47,28,1,,,,,,,,,,,,,,,,,,
,,?,0.001,0,,,,,,stimuli/images/PICTURE_255.png,PENNY,5ec513570e821a440f878858,29/04/1999,2020-08-13_12h52.19.132,proactive2,2020.1.2,MacIntel,60,5f341be081b9052c55068110,5f3529559e502b4786c79dd7,4,,,,,,shovel,,,,,,,,,,,2,2,0,48,48,19,1,,,,,,,,,,,,,,,,,,
,,?,0.001,0,,,,,,stimuli/images/PICTURE_311.png,TOILET,5ec513570e821a440f878858,29/04/1999,2020-08-13_12h52.19.132,proactive2,2020.1.2,MacIntel,60,5f341be081b9052c55068110,5f3529559e502b4786c79dd7,4,,,,,,razor,,,,,,,,,,,6,2,0,49,49,54,1,,,,,,,,,,,,,,,,,,
,,?,0.001,0,,,,,,stimuli/images/PICTURE_452.png,COPS,5ec513570e821a440f878858,29/04/1999,2020-08-13_12h52.19.132,proactive2,2020.1.2,MacIntel,60,5f341be081b9052c55068110,5f3529559e502b4786c79dd7,4,,,,,,watch,,,,,,,,,,,1,2,0,50,50,0,1,,,,,,,,,,,,,,,,,,
,,POLICY,2.567,1,,,,,,stimuli/images/PICTURE_487.png,POLICY,5ec513570e821a440f878858,29/04/1999,2020-08-13_12h52.19.132,proactive2,2020.1.2,MacIntel,60,5f341be081b9052c55068110,5f3529559e502b4786c79dd7,4,,,,,,basket,,,,,,,,,,,4,2,0,51,51,34,1,,,,,,,,,,,,,,,,,,
,,?,0.001,0,,,,,,stimuli/images/PICTURE_403.png,FAMILY,5ec513570e821a440f878858,29/04/1999,2020-08-13_12h52.19.132,proactive2,2020.1.2,MacIntel,60,5f341be081b9052c55068110,5f3529559e502b4786c79dd7,4,,,,,,cathedral,,,,,,,,,,,1,2,0,52,52,9,1,,,,,,,,,,,,,,,,,,
,,?,0.001,0,,,,,,stimuli/images/PICTURE_688.png,CLOCK,5ec513570e821a440f878858,29/04/1999,2020-08-13_12h52.19.132,proactive2,2020.1.2,MacIntel,60,5f341be081b9052c55068110,5f3529559e502b4786c79dd7,4,,,,,,runner,,,,,,,,,,,5,2,0,53,53,42,1,,,,,,,,,,,,,,,,,,
,,?,0.001,0,,,,,,stimuli/images/PICTURE_692.png,DUDE,5ec513570e821a440f878858,29/04/1999,2020-08-13_12h52.19.132,proactive2,2020.1.2,MacIntel,60,5f341be081b9052c55068110,5f3529559e502b4786c79dd7,4,,,,,,cherry,,,,,,,,,,,5,2,0,54,54,47,1,,,,,,,,,,,,,,,,,,
,,?,0,0,,,,,,stimuli/images/PICTURE_215.png,BOYS,5ec513570e821a440f878858,29/04/1999,2020-08-13_12h52.19.132,proactive2,2020.1.2,MacIntel,60,5f341be081b9052c55068110,5f3529559e502b4786c79dd7,4,,,,,,boot,,,,,,,,,,,3,2,0,55,55,24,1,,,,,,,,,,,,,,,,,,
,,?,0.001,0,,,,,,stimuli/images/PICTURE_297.png,BODY,5ec513570e821a440f878858,29/04/1999,2020-08-13_12h52.19.132,proactive2,2020.1.2,MacIntel,60,5f341be081b9052c55068110,5f3529559e502b4786c79dd7,4,,,,,,aeroplane,,,,,,,,,,,6,2,0,56,56,51,1,,,,,,,,,,,,,,,,,,
,,?,0.001,0,,,,,,stimuli/images/PICTURE_470.png,BEAUTY,5ec513570e821a440f878858,29/04/1999,2020-08-13_12h52.19.132,proactive2,2020.1.2,MacIntel,60,5f341be081b9052c55068110,5f3529559e502b4786c79dd7,4,,,,,,motorbike,,,,,,,,,,,3,2,0,57,57,26,1,,,,,,,,,,,,,,,,,,
,,?,0.001,0,,,,,,stimuli/images/PICTURE_68.png,KIND,5ec513570e821a440f878858,29/04/1999,2020-08-13_12h52.19.132,proactive2,2020.1.2,MacIntel,60,5f341be081b9052c55068110,5f3529559e502b4786c79dd7,4,,,,,,candle,,,,,,,,,,,3,2,0,58,58,23,1,,,,,,,,,,,,,,,,,,
,,?,0,0,,,,,,stimuli/images/PICTURE_177.png,HOUSE,5ec513570e821a440f878858,29/04/1999,2020-08-13_12h52.19.132,proactive2,2020.1.2,MacIntel,60,5f341be081b9052c55068110,5f3529559e502b4786c79dd7,4,,,,,,mushroom,,,,,,,,,,,3,2,0,59,59,25,1,,,,,,,,,,,,,,,,,,
,,,,,,,,,,,,5ec513570e821a440f878858,29/04/1999,2020-08-13_12h52.19.132,proactive2,2020.1.2,MacIntel,60,5f341be081b9052c55068110,5f3529559e502b4786c79dd7,4,,,,,,,,,,,,,,,,,,,,,,,,0,0,0,2,1,stimuli/learn-block3.csv,,,,,,,,,,,,
,,,,,,,,,,stimuli/images/PICTURE_667.png,RIVER,5ec513570e821a440f878858,29/04/1999,2020-08-13_12h52.19.132,proactive2,2020.1.2,MacIntel,60,5f341be081b9052c55068110,5f3529559e502b4786c79dd7,4,,,,,,daisy,,,,,,0,0,0,10,1,2,1,,,,,,,,,,,,,,,,,,,,,,,
,,,,,,,,,,stimuli/images/PICTURE_564.png,BATH,5ec513570e821a440f878858,29/04/1999,2020-08-13_12h52.19.132,proactive2,2020.1.2,MacIntel,60,5f341be081b9052c55068110,5f3529559e502b4786c79dd7,4,,,,,,spoon,,,,,,0,1,1,26,1,3,1,,,,,,,,,,,,,,,,,,,,,,,
,,,,,,,,,,stimuli/images/PICTURE_403.png,WRITER,5ec513570e821a440f878858,29/04/1999,2020-08-13_12h52.19.132,proactive2,2020.1.2,MacIntel,60,5f341be081b9052c55068110,5f3529559e502b4786c79dd7,4,,,,,,cathedral,,,,,,0,2,2,31,1,4,1,,,,,,,,,,,,,,,,,,,,,,,
,,,,,,,,,,stimuli/images/PICTURE_68.png,ROOF,5ec513570e821a440f878858,29/04/1999,2020-08-13_12h52.19.132,proactive2,2020.1.2,MacIntel,60,5f341be081b9052c55068110,5f3529559e502b4786c79dd7,4,,,,,,candle,,,,,,0,3,3,38,1,4,1,,,,,,,,,,,,,,,,,,,,,,,
,,,,,,,,,,stimuli/images/PICTURE_504.png,ARTIST,5ec513570e821a440f878858,29/04/1999,2020-08-13_12h52.19.132,proactive2,2020.1.2,MacIntel,60,5f341be081b9052c55068110,5f3529559e502b4786c79dd7,4,,,,,,wheel,,,,,,0,4,4,49,1,5,1,,,,,,,,,,,,,,,,,,,,,,,
,,,,,,,,,,stimuli/images/PICTURE_32.png,PILLS,5ec513570e821a440f878858,29/04/1999,2020-08-13_12h52.19.132,proactive2,2020.1.2,MacIntel,60,5f341be081b9052c55068110,5f3529559e502b4786c79dd7,4,,,,,,crown,,,,,,0,5,5,18,1,2,1,,,,,,,,,,,,,,,,,,,,,,,
,,,,,,,,,,stimuli/images/PICTURE_68.png,MILE,5ec513570e821a440f878858,29/04/1999,2020-08-13_12h52.19.132,proactive2,2020.1.2,MacIntel,60,5f341be081b9052c55068110,5f3529559e502b4786c79dd7,4,,,,,,candle,,,,,,0,6,6,51,1,6,1,,,,,,,,,,,,,,,,,,,,,,,
,,,,,,,,,,stimuli/images/PICTURE_405.png,PLENTY,5ec513570e821a440f878858,29/04/1999,2020-08-13_12h52.19.132,proactive2,2020.1.2,MacIntel,60,5f341be081b9052c55068110,5f3529559e502b4786c79dd7,4,,,,,,anchor,,,,,,0,7,7,23,1,3,1,,,,,,,,,,,,,,,,,,,,,,,
,,,,,,,,,,stimuli/images/PICTURE_32.png,KIND,5ec513570e821a440f878858,29/04/1999,2020-08-13_12h52.19.132,proactive2,2020.1.2,MacIntel,60,5f341be081b9052c55068110,5f3529559e502b4786c79dd7,4,,,,,,crown,,,,,,0,8,8,35,1,4,1,,,,,,,,,,,,,,,,,,,,,,,
,,,,,,,,,,stimuli/images/PICTURE_33.png,FRIEND,5ec513570e821a440f878858,29/04/1999,2020-08-13_12h52.19.132,proactive2,2020.1.2,MacIntel,60,5f341be081b9052c55068110,5f3529559e502b4786c79dd7,4,,,,,,frame,,,,,,0,9,9,8,1,1,1,,,,,,,,,,,,,,,,,,,,,,,
,,,,,,,,,,stimuli/images/PICTURE_685.png,PENNY,5ec513570e821a440f878858,29/04/1999,2020-08-13_12h52.19.132,proactive2,2020.1.2,MacIntel,60,5f341be081b9052c55068110,5f3529559e502b4786c79dd7,4,,,,,,goose,,,,,,0,10,10,4,1,1,1,,,,,,,,,,,,,,,,,,,,,,,
,,,,,,,,,,stimuli/images/PICTURE_85.png,TOILET,5ec513570e821a440f878858,29/04/1999,2020-08-13_12h52.19.132,proactive2,2020.1.2,MacIntel,60,5f341be081b9052c55068110,5f3529559e502b4786c79dd7,4,,,,,,diamond,,,,,,0,11,11,48,1,5,1,,,,,,,,,,,,,,,,,,,,,,,
,,,,,,,,,,stimuli/images/PICTURE_203.png,GODS,5ec513570e821a440f878858,29/04/1999,2020-08-13_12h52.19.132,proactive2,2020.1.2,MacIntel,60,5f341be081b9052c55068110,5f3529559e502b4786c79dd7,4,,,,,,cap,,,,,,0,12,12,30,1,4,1,,,,,,,,,,,,,,,,,,,,,,,
,,,,,,,,,,stimuli/images/PICTURE_308.png,FAMILY,5ec513570e821a440f878858,29/04/1999,2020-08-13_12h52.19.132,proactive2,2020.1.2,MacIntel,60,5f341be081b9052c55068110,5f3529559e502b4786c79dd7,4,,,,,,dice,,,,,,0,13,13,36,1,4,1,,,,,,,,,,,,,,,,,,,,,,,
,,,,,,,,,,stimuli/images/PICTURE_675.png,SALE,5ec513570e821a440f878858,29/04/1999,2020-08-13_12h52.19.132,proactive2,2020.1.2,MacIntel,60,5f341be081b9052c55068110,5f3529559e502b4786c79dd7,4,,,,,,windmill,,,,,,0,14,14,47,1,5,1,,,,,,,,,,,,,,,,,,,,,,,
,,,,,,,,,,stimuli/images/PICTURE_504.png,COPS,5ec513570e821a440f878858,29/04/1999,2020-08-13_12h52.19.132,proactive2,2020.1.2,MacIntel,60,5f341be081b9052c55068110,5f3529559e502b4786c79dd7,4,,,,,,wheel,,,,,,0,15,15,52,1,6,1,,,,,,,,,,,,,,,,,,,,,,,
,,,,,,,,,,stimuli/images/PICTURE_296.png,LIFE,5ec513570e821a440f878858,29/04/1999,2020-08-13_12h52.19.132,proactive2,2020.1.2,MacIntel,60,5f341be081b9052c55068110,5f3529559e502b4786c79dd7,4,,,,,,bolt,,,,,,0,16,16,57,1,6,1,,,,,,,,,,,,,,,,,,,,,,,
,,,,,,,,,,stimuli/images/PICTURE_469.png,AGENT,5ec513570e821a440f878858,29/04/1999,2020-08-13_12h52.19.132,proactive2,2020.1.2,MacIntel,60,5f341be081b9052c55068110,5f3529559e502b4786c79dd7,4,,,,,,stool,,,,,,0,17,17,16,1,2,1,,,,,,,,,,,,,,,,,,,,,,,
,,,,,,,,,,stimuli/images/PICTURE_296.png,LOTS,5ec513570e821a440f878858,29/04/1999,2020-08-13_12h52.19.132,proactive2,2020.1.2,MacIntel,60,5f341be081b9052c55068110,5f3529559e502b4786c79dd7,4,,,,,,bolt,,,,,,0,18,18,9,1,1,1,,,,,,,,,,,,,,,,,,,,,,,
,,,,,,,,,,stimuli/images/PICTURE_403.png,TOILET,5ec513570e821a440f878858,29/04/1999,2020-08-13_12h52.19.132,proactive2,2020.1.2,MacIntel,60,5f341be081b9052c55068110,5f3529559e502b4786c79dd7,4,,,,,,cathedral,,,,,,0,19,19,25,1,3,1,,,,,,,,,,,,,,,,,,,,,,,
,,,,,,,,,,stimuli/images/PICTURE_487.png,GIRL,5ec513570e821a440f878858,29/04/1999,2020-08-13_12h52.19.132,proactive2,2020.1.2,MacIntel,60,5f341be081b9052c55068110,5f3529559e502b4786c79dd7,4,,,,,,basket,,,,,,0,20,20,45,1,5,1,,,,,,,,,,,,,,,,,,,,,,,
,,,,,,,,,,stimuli/images/PICTURE_233.png,LOTS,5ec513570e821a440f878858,29/04/1999,2020-08-13_12h52.19.132,proactive2,2020.1.2,MacIntel,60,5f341be081b9052c55068110,5f3529559e502b4786c79dd7,4,,,,,,salt,,,,,,0,21,21,42,1,5,1,,,,,,,,,,,,,,,,,,,,,,,
,,,,,,,,,,stimuli/images/PICTURE_655.png,TOILET,5ec513570e821a440f878858,29/04/1999,2020-08-13_12h52.19.132,proactive2,2020.1.2,MacIntel,60,5f341be081b9052c55068110,5f3529559e502b4786c79dd7,4,,,,,,megaphone,,,,,,0,22,22,12,1,2,1,,,,,,,,,,,,,,,,,,,,,,,
,,,,,,,,,,stimuli/images/PICTURE_380.png,HONEY,5ec513570e821a440f878858,29/04/1999,2020-08-13_12h52.19.132,proactive2,2020.1.2,MacIntel,60,5f341be081b9052c55068110,5f3529559e502b4786c79dd7,4,,,,,,gorilla,,,,,,0,23,23,19,1,2,1,,,,,,,,,,,,,,,,,,,,,,,
,,,,,,,,,,stimuli/images/PICTURE_177.png,WRITER,5ec513570e821a440f878858,29/04/1999,2020-08-13_12h52.19.132,proactive2,2020.1.2,MacIntel,60,5f341be081b9052c55068110,5f3529559e502b4786c79dd7,4,,,,,,mushroom,,,,,,0,24,24,41,1,5,1,,,,,,,,,,,,,,,,,,,,,,,
,,,,,,,,,,stimuli/images/PICTURE_340.png,LETTER,5ec513570e821a440f878858,29/04/1999,2020-08-13_12h52.19.132,proactive2,2020.1.2,MacIntel,60,5f341be081b9052c55068110,5f3529559e502b4786c79dd7,4,,,,,,mirror,,,,,,0,25,25,24,1,3,1,,,,,,,,,,,,,,,,,,,,,,,
,,,,,,,,,,stimuli/images/PICTURE_85.png,NATION,5ec513570e821a440f878858,29/04/1999,2020-08-13_12h52.19.132,proactive2,2020.1.2,MacIntel,60,5f341be081b9052c55068110,5f3529559e502b4786c79dd7,4,,,,,,diamond,,,,,,0,26,26,5,1,1,1,,,,,,,,,,,,,,,,,,,,,,,
,,,,,,,,,,stimuli/images/PICTURE_147.png,WOMEN,5ec513570e821a440f878858,29/04/1999,2020-08-13_12h52.19.132,proactive2,2020.1.2,MacIntel,60,5f341be081b9052c55068110,5f3529559e502b4786c79dd7,4,,,,,,hanger,,,,,,0,27,27,7,1,1,1,,,,,,,,,,,,,,,,,,,,,,,
,,,,,,,,,,stimuli/images/PICTURE_403.png,RIVER,5ec513570e821a440f878858,29/04/1999,2020-08-13_12h52.19.132,proactive2,2020.1.2,MacIntel,60,5f341be081b9052c55068110,5f3529559e502b4786c79dd7,4,,,,,,cathedral,,,,,,0,28,28,40,1,5,1,,,,,,,,,,,,,,,,,,,,,,,
,,,,,,,,,,stimuli/images/PICTURE_467.png,POLICY,5ec513570e821a440f878858,29/04/1999,2020-08-13_12h52.19.132,proactive2,2020.1.2,MacIntel,60,5f341be081b9052c55068110,5f3529559e502b4786c79dd7,4,,,,,,peg,,,,,,0,29,29,53,1,6,1,,,,,,,,,,,,,,,,,,,,,,,
,,,,,,,,,,stimuli/images/PICTURE_42.png,BOYS,5ec513570e821a440f878858,29/04/1999,2020-08-13_12h52.19.132,proactive2,2020.1.2,MacIntel,60,5f341be081b9052c55068110,5f3529559e502b4786c79dd7,4,,,,,,pear,,,,,,0,30,30,55,1,6,1,,,,,,,,,,,,,,,,,,,,,,,
,,,,,,,,,,stimuli/images/PICTURE_95.png,MILLER,5ec513570e821a440f878858,29/04/1999,2020-08-13_12h52.19.132,proactive2,2020.1.2,MacIntel,60,5f341be081b9052c55068110,5f3529559e502b4786c79dd7,4,,,,,,suitcase,,,,,,0,31,31,56,1,6,1,,,,,,,,,,,,,,,,,,,,,,,
,,,,,,,,,,stimuli/images/PICTURE_285.png,LIFE,5ec513570e821a440f878858,29/04/1999,2020-08-13_12h52.19.132,proactive2,2020.1.2,MacIntel,60,5f341be081b9052c55068110,5f3529559e502b4786c79dd7,4,,,,,,carrot,,,,,,0,32,32,33,1,4,1,,,,,,,,,,,,,,,,,,,,,,,
,,,,,,,,,,stimuli/images/PICTURE_203.png,NIGHT,5ec513570e821a440f878858,29/04/1999,2020-08-13_12h52.19.132,proactive2,2020.1.2,MacIntel,60,5f341be081b9052c55068110,5f3529559e502b4786c79dd7,4,,,,,,cap,,,,,,0,33,33,2,1,1,1,,,,,,,,,,,,,,,,,,,,,,,
,,,,,,,,,,stimuli/images/PICTURE_327.png,CASINO,5ec513570e821a440f878858,29/04/1999,2020-08-13_12h52.19.132,proactive2,2020.1.2,MacIntel,60,5f341be081b9052c55068110,5f3529559e502b4786c79dd7,4,,,,,,helmet,,,,,,0,34,34,20,1,3,1,,,,,,,,,,,,,,,,,,,,,,,
,,,,,,,,,,stimuli/images/PICTURE_340.png,VALLEY,5ec513570e821a440f878858,29/04/1999,2020-08-13_12h52.19.132,proactive2,2020.1.2,MacIntel,60,5f341be081b9052c55068110,5f3529559e502b4786c79dd7,4,,,,,,mirror,,,,,,0,35,35,54,1,6,1,,,,,,,,,,,,,,,,,,,,,,,
,,,,,,,,,,stimuli/images/PICTURE_677.png,APPLE,5ec513570e821a440f878858,29/04/1999,2020-08-13_12h52.19.132,proactive2,2020.1.2,MacIntel,60,5f341be081b9052c55068110,5f3529559e502b4786c79dd7,4,,,,,,map,,,,,,0,36,36,43,1,5,1,,,,,,,,,,,,,,,,,,,,,,,
,,,,,,,,,,stimuli/images/PICTURE_750.png,HOTEL,5ec513570e821a440f878858,29/04/1999,2020-08-13_12h52.19.132,proactive2,2020.1.2,MacIntel,60,5f341be081b9052c55068110,5f3529559e502b4786c79dd7,4,,,,,,kettle,,,,,,0,37,37,27,1,3,1,,,,,,,,,,,,,,,,,,,,,,,
,,,,,,,,,,stimuli/images/PICTURE_708.png,RECORD,5ec513570e821a440f878858,29/04/1999,2020-08-13_12h52.19.132,proactive2,2020.1.2,MacIntel,60,5f341be081b9052c55068110,5f3529559e502b4786c79dd7,4,,,,,,monkey,,,,,,0,38,38,58,1,6,1,,,,,,,,,,,,,,,,,,,,,,,
,,,,,,,,,,stimuli/images/PICTURE_108.png,FLIGHT,5ec513570e821a440f878858,29/04/1999,2020-08-13_12h52.19.132,proactive2,2020.1.2,MacIntel,60,5f341be081b9052c55068110,5f3529559e502b4786c79dd7,4,,,,,,calendar,,,,,,0,39,39,59,1,6,1,,,,,,,,,,,,,,,,,,,,,,,
,,,,,,,,,,stimuli/images/PICTURE_383.png,SERIES,5ec513570e821a440f878858,29/04/1999,2020-08-13_12h52.19.132,proactive2,2020.1.2,MacIntel,60,5f341be081b9052c55068110,5f3529559e502b4786c79dd7,4,,,,,,coin,,,,,,0,40,40,46,1,5,1,,,,,,,,,,,,,,,,,,,,,,,
,,,,,,,,,,stimuli/images/PICTURE_297.png,RIVER,5ec513570e821a440f878858,29/04/1999,2020-08-13_12h52.19.132,proactive2,2020.1.2,MacIntel,60,5f341be081b9052c55068110,5f3529559e502b4786c79dd7,4,,,,,,aeroplane,,,,,,0,41,41,39,1,4,1,,,,,,,,,,,,,,,,,,,,,,,
,,,,,,,,,,stimuli/images/PICTURE_95.png,HONEY,5ec513570e821a440f878858,29/04/1999,2020-08-13_12h52.19.132,proactive2,2020.1.2,MacIntel,60,5f341be081b9052c55068110,5f3529559e502b4786c79dd7,4,,,,,,suitcase,,,,,,0,42,42,44,1,5,1,,,,,,,,,,,,,,,,,,,,,,,
,,,,,,,,,,stimuli/images/PICTURE_491.png,GLASS,5ec513570e821a440f878858,29/04/1999,2020-08-13_12h52.19.132,proactive2,2020.1.2,MacIntel,60,5f341be081b9052c55068110,5f3529559e502b4786c79dd7,4,,,,,,rug,,,,,,0,43,43,14,1,2,1,,,,,,,,,,,,,,,,,,,,,,,
,,,,,,,,,,stimuli/images/PICTURE_654.png,MONTH,5ec513570e821a440f878858,29/04/1999,2020-08-13_12h52.19.132,proactive2,2020.1.2,MacIntel,60,5f341be081b9052c55068110,5f3529559e502b4786c79dd7,4,,,,,,pencil,,,,,,0,44,44,29,1,3,1,,,,,,,,,,,,,,,,,,,,,,,
,,,,,,,,,,stimuli/images/PICTURE_383.png,WRITER,5ec513570e821a440f878858,29/04/1999,2020-08-13_12h52.19.132,proactive2,2020.1.2,MacIntel,60,5f341be081b9052c55068110,5f3529559e502b4786c79dd7,4,,,,,,coin,,,,,,0,45,45,28,1,3,1,,,,,,,,,,,,,,,,,,,,,,,
,,,,,,,,,,stimuli/images/PICTURE_449.png,DUDE,5ec513570e821a440f878858,29/04/1999,2020-08-13_12h52.19.132,proactive2,2020.1.2,MacIntel,60,5f341be081b9052c55068110,5f3529559e502b4786c79dd7,4,,,,,,bench,,,,,,0,46,46,17,1,2,1,,,,,,,,,,,,,,,,,,,,,,,
,,,,,,,,,,stimuli/images/PICTURE_339.png,CLIENT,5ec513570e821a440f878858,29/04/1999,2020-08-13_12h52.19.132,proactive2,2020.1.2,MacIntel,60,5f341be081b9052c55068110,5f3529559e502b4786c79dd7,4,,,,,,backpack,,,,,,0,47,47,11,1,2,1,,,,,,,,,,,,,,,,,,,,,,,
,,,,,,,,,,stimuli/images/PICTURE_504.png,YEAR,5ec513570e821a440f878858,29/04/1999,2020-08-13_12h52.19.132,proactive2,2020.1.2,MacIntel,60,5f341be081b9052c55068110,5f3529559e502b4786c79dd7,4,,,,,,wheel,,,,,,0,48,48,13,1,2,1,,,,,,,,,,,,,,,,,,,,,,,
,,,,,,,,,,stimuli/images/PICTURE_405.png,YEAR,5ec513570e821a440f878858,29/04/1999,2020-08-13_12h52.19.132,proactive2,2020.1.2,MacIntel,60,5f341be081b9052c55068110,5f3529559e502b4786c79dd7,4,,,,,,anchor,,,,,,0,49,49,34,1,4,1,,,,,,,,,,,,,,,,,,,,,,,
,,,,,,,,,,stimuli/images/PICTURE_491.png,RIVER,5ec513570e821a440f878858,29/04/1999,2020-08-13_12h52.19.132,proactive2,2020.1.2,MacIntel,60,5f341be081b9052c55068110,5f3529559e502b4786c79dd7,4,,,,,,rug,,,,,,0,50,50,6,1,1,1,,,,,,,,,,,,,,,,,,,,,,,
,,,,,,,,,,stimuli/images/PICTURE_744.png,WEAPON,5ec513570e821a440f878858,29/04/1999,2020-08-13_12h52.19.132,proactive2,2020.1.2,MacIntel,60,5f341be081b9052c55068110,5f3529559e502b4786c79dd7,4,,,,,,ring,,,,,,0,51,51,50,1,6,1,,,,,,,,,,,,,,,,,,,,,,,
,,,,,,,,,,stimuli/images/PICTURE_327.png,SERIES,5ec513570e821a440f878858,29/04/1999,2020-08-13_12h52.19.132,proactive2,2020.1.2,MacIntel,60,5f341be081b9052c55068110,5f3529559e502b4786c79dd7,4,,,,,,helmet,,,,,,0,52,52,3,1,1,1,,,,,,,,,,,,,,,,,,,,,,,
,,,,,,,,,,stimuli/images/PICTURE_208.png,SYSTEM,5ec513570e821a440f878858,29/04/1999,2020-08-13_12h52.19.132,proactive2,2020.1.2,MacIntel,60,5f341be081b9052c55068110,5f3529559e502b4786c79dd7,4,,,,,,microphone,,,,,,0,53,53,32,1,4,1,,,,,,,,,,,,,,,,,,,,,,,
,,,,,,,,,,stimuli/images/PICTURE_108.png,POLICY,5ec513570e821a440f878858,29/04/1999,2020-08-13_12h52.19.132,proactive2,2020.1.2,MacIntel,60,5f341be081b9052c55068110,5f3529559e502b4786c79dd7,4,,,,,,calendar,,,,,,0,54,54,22,1,3,1,,,,,,,,,,,,,,,,,,,,,,,
,,,,,,,,,,stimuli/images/PICTURE_57.png,MOMENT,5ec513570e821a440f878858,29/04/1999,2020-08-13_12h52.19.132,proactive2,2020.1.2,MacIntel,60,5f341be081b9052c55068110,5f3529559e502b4786c79dd7,4,,,,,,stamp,,,,,,0,55,55,37,1,4,1,,,,,,,,,,,,,,,,,,,,,,,
,,,,,,,,,,stimuli/images/PICTURE_95.png,BOYS,5ec513570e821a440f878858,29/04/1999,2020-08-13_12h52.19.132,proactive2,2020.1.2,MacIntel,60,5f341be081b9052c55068110,5f3529559e502b4786c79dd7,4,,,,,,suitcase,,,,,,0,56,56,1,1,1,1,,,,,,,,,,,,,,,,,,,,,,,
,,,,,,,,,,stimuli/images/PICTURE_380.png,CANDY,5ec513570e821a440f878858,29/04/1999,2020-08-13_12h52.19.132,proactive2,2020.1.2,MacIntel,60,5f341be081b9052c55068110,5f3529559e502b4786c79dd7,4,,,,,,gorilla,,,,,,0,57,57,0,1,1,1,,,,,,,,,,,,,,,,,,,,,,,
,,,,,,,,,,stimuli/images/PICTURE_147.png,YEAR,5ec513570e821a440f878858,29/04/1999,2020-08-13_12h52.19.132,proactive2,2020.1.2,MacIntel,60,5f341be081b9052c55068110,5f3529559e502b4786c79dd7,4,,,,,,hanger,,,,,,0,58,58,21,1,3,1,,,,,,,,,,,,,,,,,,,,,,,
,,GODS,2.21,1,,,,,,stimuli/images/PICTURE_203.png,GODS,5ec513570e821a440f878858,29/04/1999,2020-08-13_12h52.19.132,proactive2,2020.1.2,MacIntel,60,5f341be081b9052c55068110,5f3529559e502b4786c79dd7,4,,,,,,cap,,,,,,,,,,,4,1,0,0,0,30,1,,,,,,,,,,,,,,,,,,
,,?,0.002,0,,,,,,stimuli/images/PICTURE_708.png,RECORD,5ec513570e821a440f878858,29/04/1999,2020-08-13_12h52.19.132,proactive2,2020.1.2,MacIntel,60,5f341be081b9052c55068110,5f3529559e502b4786c79dd7,4,,,,,,monkey,,,,,,,,,,,6,1,0,1,1,58,1,,,,,,,,,,,,,,,,,,
,,?,0.001,0,,,,,,stimuli/images/PICTURE_405.png,PLENTY,5ec513570e821a440f878858,29/04/1999,2020-08-13_12h52.19.132,proactive2,2020.1.2,MacIntel,60,5f341be081b9052c55068110,5f3529559e502b4786c79dd7,4,,,,,,anchor,,,,,,,,,,,3,1,0,2,2,23,1,,,,,,,,,,,,,,,,,,
,,?,0.001,0,,,,,,stimuli/images/PICTURE_491.png,RIVER,5ec513570e821a440f878858,29/04/1999,2020-08-13_12h52.19.132,proactive2,2020.1.2,MacIntel,60,5f341be081b9052c55068110,5f3529559e502b4786c79dd7,4,,,,,,rug,,,,,,,,,,,1,1,0,3,3,6,1,,,,,,,,,,,,,,,,,,
,,?,0.001,0,,,,,,stimuli/images/PICTURE_677.png,APPLE,5ec513570e821a440f878858,29/04/1999,2020-08-13_12h52.19.132,proactive2,2020.1.2,MacIntel,60,5f341be081b9052c55068110,5f3529559e502b4786c79dd7,4,,,,,,map,,,,,,,,,,,5,1,0,4,4,43,1,,,,,,,,,,,,,,,,,,
,,?,0.001,0,,,,,,stimuli/images/PICTURE_339.png,CLIENT,5ec513570e821a440f878858,29/04/1999,2020-08-13_12h52.19.132,proactive2,2020.1.2,MacIntel,60,5f341be081b9052c55068110,5f3529559e502b4786c79dd7,4,,,,,,backpack,,,,,,,,,,,2,1,0,5,5,11,1,,,,,,,,,,,,,,,,,,
,,?,0,0,,,,,,stimuli/images/PICTURE_95.png,HONEY,5ec513570e821a440f878858,29/04/1999,2020-08-13_12h52.19.132,proactive2,2020.1.2,MacIntel,60,5f341be081b9052c55068110,5f3529559e502b4786c79dd7,4,,,,,,suitcase,,,,,,,,,,,5,1,0,6,6,44,1,,,,,,,,,,,,,,,,,,
,,ROOF,2.288,1,,,,,,stimuli/images/PICTURE_68.png,ROOF,5ec513570e821a440f878858,29/04/1999,2020-08-13_12h52.19.132,proactive2,2020.1.2,MacIntel,60,5f341be081b9052c55068110,5f3529559e502b4786c79dd7,4,,,,,,candle,,,,,,,,,,,4,1,0,7,7,38,1,,,,,,,,,,,,,,,,,,
,,?,0.002,0,,,,,,stimuli/images/PICTURE_467.png,POLICY,5ec513570e821a440f878858,29/04/1999,2020-08-13_12h52.19.132,proactive2,2020.1.2,MacIntel,60,5f341be081b9052c55068110,5f3529559e502b4786c79dd7,4,,,,,,peg,,,,,,,,,,,6,1,0,8,8,53,1,,,,,,,,,,,,,,,,,,
,,?,0.001,0,,,,,,stimuli/images/PICTURE_327.png,SERIES,5ec513570e821a440f878858,29/04/1999,2020-08-13_12h52.19.132,proactive2,2020.1.2,MacIntel,60,5f341be081b9052c55068110,5f3529559e502b4786c79dd7,4,,,,,,helmet,,,,,,,,,,,1,1,0,9,9,3,1,,,,,,,,,,,,,,,,,,
,,WRITER,3.045,1,,,,,,stimuli/images/PICTURE_403.png,WRITER,5ec513570e821a440f878858,29/04/1999,2020-08-13_12h52.19.132,proactive2,2020.1.2,MacIntel,60,5f341be081b9052c55068110,5f3529559e502b4786c79dd7,4,,,,,,cathedral,,,,,,,,,,,4,1,0,10,10,31,1,,,,,,,,,,,,,,,,,,
,,?,0.002,0,,,,,,stimuli/images/PICTURE_42.png,BOYS,5ec513570e821a440f878858,29/04/1999,2020-08-13_12h52.19.132,proactive2,2020.1.2,MacIntel,60,5f341be081b9052c55068110,5f3529559e502b4786c79dd7,4,,,,,,pear,,,,,,,,,,,6,1,0,11,11,55,1,,,,,,,,,,,,,,,,,,
,,?,0.001,0,,,,,,stimuli/images/PICTURE_95.png,MILLER,5ec513570e821a440f878858,29/04/1999,2020-08-13_12h52.19.132,proactive2,2020.1.2,MacIntel,60,5f341be081b9052c55068110,5f3529559e502b4786c79dd7,4,,,,,,suitcase,,,,,,,,,,,6,1,0,12,12,56,1,,,,,,,,,,,,,,,,,,
,,FAMILY,2.278,1,,,,,,stimuli/images/PICTURE_308.png,FAMILY,5ec513570e821a440f878858,29/04/1999,2020-08-13_12h52.19.132,proactive2,2020.1.2,MacIntel,60,5f341be081b9052c55068110,5f3529559e502b4786c79dd7,4,,,,,,dice,,,,,,,,,,,4,1,0,13,13,36,1,,,,,,,,,,,,,,,,,,
,,?,0.001,0,,,,,,stimuli/images/PICTURE_469.png,AGENT,5ec513570e821a440f878858,29/04/1999,2020-08-13_12h52.19.132,proactive2,2020.1.2,MacIntel,60,5f341be081b9052c55068110,5f3529559e502b4786c79dd7,4,,,,,,stool,,,,,,,,,,,2,1,0,14,14,16,1,,,,,,,,,,,,,,,,,,
,,?,0.001,0,,,,,,stimuli/images/PICTURE_95.png,BOYS,5ec513570e821a440f878858,29/04/1999,2020-08-13_12h52.19.132,proactive2,2020.1.2,MacIntel,60,5f341be081b9052c55068110,5f3529559e502b4786c79dd7,4,,,,,,suitcase,,,,,,,,,,,1,1,0,15,15,1,1,,,,,,,,,,,,,,,,,,
,,?,0.001,0,,,,,,stimuli/images/PICTURE_383.png,SERIES,5ec513570e821a440f878858,29/04/1999,2020-08-13_12h52.19.132,proactive2,2020.1.2,MacIntel,60,5f341be081b9052c55068110,5f3529559e502b4786c79dd7,4,,,,,,coin,,,,,,,,,,,5,1,0,16,16,46,1,,,,,,,,,,,,,,,,,,
,,?,0,0,,,,,,stimuli/images/PICTURE_203.png,NIGHT,5ec513570e821a440f878858,29/04/1999,2020-08-13_12h52.19.132,proactive2,2020.1.2,MacIntel,60,5f341be081b9052c55068110,5f3529559e502b4786c79dd7,4,,,,,,cap,,,,,,,,,,,1,1,0,17,17,2,1,,,,,,,,,,,,,,,,,,
,,?,0.001,0,,,,,,stimuli/images/PICTURE_744.png,WEAPON,5ec513570e821a440f878858,29/04/1999,2020-08-13_12h52.19.132,proactive2,2020.1.2,MacIntel,60,5f341be081b9052c55068110,5f3529559e502b4786c79dd7,4,,,,,,ring,,,,,,,,,,,6,1,0,18,18,50,1,,,,,,,,,,,,,,,,,,
,,RIVER,5.274,1,,,,,,stimuli/images/PICTURE_297.png,RIVER,5ec513570e821a440f878858,29/04/1999,2020-08-13_12h52.19.132,proactive2,2020.1.2,MacIntel,60,5f341be081b9052c55068110,5f3529559e502b4786c79dd7,4,,,,,,aeroplane,,,,,,,,,,,4,1,0,19,19,39,1,,,,,,,,,,,,,,,,,,
,,?,0.001,0,,,,,,stimuli/images/PICTURE_147.png,YEAR,5ec513570e821a440f878858,29/04/1999,2020-08-13_12h52.19.132,proactive2,2020.1.2,MacIntel,60,5f341be081b9052c55068110,5f3529559e502b4786c79dd7,4,,,,,,hanger,,,,,,,,,,,3,1,0,20,20,21,1,,,,,,,,,,,,,,,,,,
,,MOMENT,2.247,1,,,,,,stimuli/images/PICTURE_57.png,MOMENT,5ec513570e821a440f878858,29/04/1999,2020-08-13_12h52.19.132,proactive2,2020.1.2,MacIntel,60,5f341be081b9052c55068110,5f3529559e502b4786c79dd7,4,,,,,,stamp,,,,,,,,,,,4,1,0,21,21,37,1,,,,,,,,,,,,,,,,,,
,,?,0.001,0,,,,,,stimuli/images/PICTURE_491.png,GLASS,5ec513570e821a440f878858,29/04/1999,2020-08-13_12h52.19.132,proactive2,2020.1.2,MacIntel,60,5f341be081b9052c55068110,5f3529559e502b4786c79dd7,4,,,,,,rug,,,,,,,,,,,2,1,0,22,22,14,1,,,,,,,,,,,,,,,,,,
,,?,0.001,0,,,,,,stimuli/images/PICTURE_750.png,HOTEL,5ec513570e821a440f878858,29/04/1999,2020-08-13_12h52.19.132,proactive2,2020.1.2,MacIntel,60,5f341be081b9052c55068110,5f3529559e502b4786c79dd7,4,,,,,,kettle,,,,,,,,,,,3,1,0,23,23,27,1,,,,,,,,,,,,,,,,,,
,,?,0,0,,,,,,stimuli/images/PICTURE_487.png,GIRL,5ec513570e821a440f878858,29/04/1999,2020-08-13_12h52.19.132,proactive2,2020.1.2,MacIntel,60,5f341be081b9052c55068110,5f3529559e502b4786c79dd7,4,,,,,,basket,,,,,,,,,,,5,1,0,24,24,45,1,,,,,,,,,,,,,,,,,,
,,?,0.001,0,,,,,,stimuli/images/PICTURE_504.png,COPS,5ec513570e821a440f878858,29/04/1999,2020-08-13_12h52.19.132,proactive2,2020.1.2,MacIntel,60,5f341be081b9052c55068110,5f3529559e502b4786c79dd7,4,,,,,,wheel,,,,,,,,,,,6,1,0,25,25,52,1,,,,,,,,,,,,,,,,,,
,,KIND,2.125,1,,,,,,stimuli/images/PICTURE_32.png,KIND,5ec513570e821a440f878858,29/04/1999,2020-08-13_12h52.19.132,proactive2,2020.1.2,MacIntel,60,5f341be081b9052c55068110,5f3529559e502b4786c79dd7,4,,,,,,crown,,,,,,,,,,,4,1,0,26,26,35,1,,,,,,,,,,,,,,,,,,
,,?,0.001,0,,,,,,stimuli/images/PICTURE_504.png,ARTIST,5ec513570e821a440f878858,29/04/1999,2020-08-13_12h52.19.132,proactive2,2020.1.2,MacIntel,60,5f341be081b9052c55068110,5f3529559e502b4786c79dd7,4,,,,,,wheel,,,,,,,,,,,5,1,0,27,27,49,1,,,,,,,,,,,,,,,,,,
,,?,0.001,0,,,,,,stimuli/images/PICTURE_33.png,FRIEND,5ec513570e821a440f878858,29/04/1999,2020-08-13_12h52.19.132,proactive2,2020.1.2,MacIntel,60,5f341be081b9052c55068110,5f3529559e502b4786c79dd7,4,,,,,,frame,,,,,,,,,,,1,1,0,28,28,8,1,,,,,,,,,,,,,,,,,,
,,?,0,0,,,,,,stimuli/images/PICTURE_380.png,CANDY,5ec513570e821a440f878858,29/04/1999,2020-08-13_12h52.19.132,proactive2,2020.1.2,MacIntel,60,5f341be081b9052c55068110,5f3529559e502b4786c79dd7,4,,,,,,gorilla,,,,,,,,,,,1,1,0,29,29,0,1,,,,,,,,,,,,,,,,,,
,,LIFE,3.409,1,,,,,,stimuli/images/PICTURE_285.png,LIFE,5ec513570e821a440f878858,29/04/1999,2020-08-13_12h52.19.132,proactive2,2020.1.2,MacIntel,60,5f341be081b9052c55068110,5f3529559e502b4786c79dd7,4,,,,,,carrot,,,,,,,,,,,4,1,0,30,30,33,1,,,,,,,,,,,,,,,,,,
,,?,0.001,0,,,,,,stimuli/images/PICTURE_32.png,PILLS,5ec513570e821a440f878858,29/04/1999,2020-08-13_12h52.19.132,proactive2,2020.1.2,MacIntel,60,5f341be081b9052c55068110,5f3529559e502b4786c79dd7,4,,,,,,crown,,,,,,,,,,,2,1,0,31,31,18,1,,,,,,,,,,,,,,,,,,
,,?,0.001,0,,,,,,stimuli/images/PICTURE_654.png,MONTH,5ec513570e821a440f878858,29/04/1999,2020-08-13_12h52.19.132,proactive2,2020.1.2,MacIntel,60,5f341be081b9052c55068110,5f3529559e502b4786c79dd7,4,,,,,,pencil,,,,,,,,,,,3,1,0,32,32,29,1,,,,,,,,,,,,,,,,,,
,,?,0.001,0,,,,,,stimuli/images/PICTURE_340.png,VALLEY,5ec513570e821a440f878858,29/04/1999,2020-08-13_12h52.19.132,proactive2,2020.1.2,MacIntel,60,5f341be081b9052c55068110,5f3529559e502b4786c79dd7,4,,,,,,mirror,,,,,,,,,,,6,1,0,33,33,54,1,,,,,,,,,,,,,,,,,,
,,?,0,0,,,,,,stimuli/images/PICTURE_108.png,POLICY,5ec513570e821a440f878858,29/04/1999,2020-08-13_12h52.19.132,proactive2,2020.1.2,MacIntel,60,5f341be081b9052c55068110,5f3529559e502b4786c79dd7,4,,,,,,calendar,,,,,,,,,,,3,1,0,34,34,22,1,,,,,,,,,,,,,,,,,,
,,?,0.001,0,,,,,,stimuli/images/PICTURE_380.png,HONEY,5ec513570e821a440f878858,29/04/1999,2020-08-13_12h52.19.132,proactive2,2020.1.2,MacIntel,60,5f341be081b9052c55068110,5f3529559e502b4786c79dd7,4,,,,,,gorilla,,,,,,,,,,,2,1,0,35,35,19,1,,,,,,,,,,,,,,,,,,
,,?,0.001,0,,,,,,stimuli/images/PICTURE_403.png,RIVER,5ec513570e821a440f878858,29/04/1999,2020-08-13_12h52.19.132,proactive2,2020.1.2,MacIntel,60,5f341be081b9052c55068110,5f3529559e502b4786c79dd7,4,,,,,,cathedral,,,,,,,,,,,5,1,0,36,36,40,1,,,,,,,,,,,,,,,,,,
,,?,0,0,,,,,,stimuli/images/PICTURE_68.png,MILE,5ec513570e821a440f878858,29/04/1999,2020-08-13_12h52.19.132,proactive2,2020.1.2,MacIntel,60,5f341be081b9052c55068110,5f3529559e502b4786c79dd7,4,,,,,,candle,,,,,,,,,,,6,1,0,37,37,51,1,,,,,,,,,,,,,,,,,,
,,?,0.001,0,,,,,,stimuli/images/PICTURE_383.png,WRITER,5ec513570e821a440f878858,29/04/1999,2020-08-13_12h52.19.132,proactive2,2020.1.2,MacIntel,60,5f341be081b9052c55068110,5f3529559e502b4786c79dd7,4,,,,,,coin,,,,,,,,,,,3,1,0,38,38,28,1,,,,,,,,,,,,,,,,,,
,,?,0.001,0,,,,,,stimuli/images/PICTURE_2.png,FLIGHT,5ec513570e821a440f878858,29/04/1999,2020-08-13_12h52.19.132,proactive2,2020.1.2,MacIntel,60,5f341be081b9052c55068110,5f3529559e502b4786c79dd7,4,,,,,,tyre,,,,,,,,,,,2,1,0,39,39,15,1,,,,,,,,,,,,,,,,,,
,,?,0,0,,,,,,stimuli/images/PICTURE_685.png,PENNY,5ec513570e821a440f878858,29/04/1999,2020-08-13_12h52.19.132,proactive2,2020.1.2,MacIntel,60,5f341be081b9052c55068110,5f3529559e502b4786c79dd7,4,,,,,,goose,,,,,,,,,,,1,1,0,40,40,4,1,,,,,,,,,,,,,,,,,,
,,?,0,0,,,,,,stimuli/images/PICTURE_449.png,DUDE,5ec513570e821a440f878858,29/04/1999,2020-08-13_12h52.19.132,proactive2,2020.1.2,MacIntel,60,5f341be081b9052c55068110,5f3529559e502b4786c79dd7,4,,,,,,bench,,,,,,,,,,,2,1,0,41,41,17,1,,,,,,,,,,,,,,,,,,
,,?,0.001,0,,,,,,stimuli/images/PICTURE_340.png,LETTER,5ec513570e821a440f878858,29/04/1999,2020-08-13_12h52.19.132,proactive2,2020.1.2,MacIntel,60,5f341be081b9052c55068110,5f3529559e502b4786c79dd7,4,,,,,,mirror,,,,,,,,,,,3,1,0,42,42,24,1,,,,,,,,,,,,,,,,,,
,,?,0.001,0,,,,,,stimuli/images/PICTURE_655.png,TOILET,5ec513570e821a440f878858,29/04/1999,2020-08-13_12h52.19.132,proactive2,2020.1.2,MacIntel,60,5f341be081b9052c55068110,5f3529559e502b4786c79dd7,4,,,,,,megaphone,,,,,,,,,,,2,1,0,43,43,12,1,,,,,,,,,,,,,,,,,,
,,?,0,0,,,,,,stimuli/images/PICTURE_147.png,WOMEN,5ec513570e821a440f878858,29/04/1999,2020-08-13_12h52.19.132,proactive2,2020.1.2,MacIntel,60,5f341be081b9052c55068110,5f3529559e502b4786c79dd7,4,,,,,,hanger,,,,,,,,,,,1,1,0,44,44,7,1,,,,,,,,,,,,,,,,,,
,,?,0,0,,,,,,stimuli/images/PICTURE_108.png,FLIGHT,5ec513570e821a440f878858,29/04/1999,2020-08-13_12h52.19.132,proactive2,2020.1.2,MacIntel,60,5f341be081b9052c55068110,5f3529559e502b4786c79dd7,4,,,,,,calendar,,,,,,,,,,,6,1,0,45,45,59,1,,,,,,,,,,,,,,,,,,
,,?,0.001,0,,,,,,stimuli/images/PICTURE_327.png,CASINO,5ec513570e821a440f878858,29/04/1999,2020-08-13_12h52.19.132,proactive2,2020.1.2,MacIntel,60,5f341be081b9052c55068110,5f3529559e502b4786c79dd7,4,,,,,,helmet,,,,,,,,,,,3,1,0,46,46,20,1,,,,,,,,,,,,,,,,,,
,,?,0.001,0,,,,,,stimuli/images/PICTURE_177.png,WRITER,5ec513570e821a440f878858,29/04/1999,2020-08-13_12h52.19.132,proactive2,2020.1.2,MacIntel,60,5f341be081b9052c55068110,5f3529559e502b4786c79dd7,4,,,,,,mushroom,,,,,,,,,,,5,1,0,47,47,41,1,,,,,,,,,,,,,,,,,,
,,?,0.001,0,,,,,,stimuli/images/PICTURE_675.png,SALE,5ec513570e821a440f878858,29/04/1999,2020-08-13_12h52.19.132,proactive2,2020.1.2,MacIntel,60,5f341be081b9052c55068110,5f3529559e502b4786c79dd7,4,,,,,,windmill,,,,,,,,,,,5,1,0,48,48,47,1,,,,,,,,,,,,,,,,,,
,,?,0,0,,,,,,stimuli/images/PICTURE_667.png,RIVER,5ec513570e821a440f878858,29/04/1999,2020-08-13_12h52.19.132,proactive2,2020.1.2,MacIntel,60,5f341be081b9052c55068110,5f3529559e502b4786c79dd7,4,,,,,,daisy,,,,,,,,,,,2,1,0,49,49,10,1,,,,,,,,,,,,,,,,,,
,,?,0,0,,,,,,stimuli/images/PICTURE_564.png,BATH,5ec513570e821a440f878858,29/04/1999,2020-08-13_12h52.19.132,proactive2,2020.1.2,MacIntel,60,5f341be081b9052c55068110,5f3529559e502b4786c79dd7,4,,,,,,spoon,,,,,,,,,,,3,1,0,50,50,26,1,,,,,,,,,,,,,,,,,,
,,?,0,0,,,,,,stimuli/images/PICTURE_85.png,TOILET,5ec513570e821a440f878858,29/04/1999,2020-08-13_12h52.19.132,proactive2,2020.1.2,MacIntel,60,5f341be081b9052c55068110,5f3529559e502b4786c79dd7,4,,,,,,diamond,,,,,,,,,,,5,1,0,51,51,48,1,,,,,,,,,,,,,,,,,,
,,?,0.001,0,,,,,,stimuli/images/PICTURE_504.png,YEAR,5ec513570e821a440f878858,29/04/1999,2020-08-13_12h52.19.132,proactive2,2020.1.2,MacIntel,60,5f341be081b9052c55068110,5f3529559e502b4786c79dd7,4,,,,,,wheel,,,,,,,,,,,2,1,0,52,52,13,1,,,,,,,,,,,,,,,,,,
,,?,0,0,,,,,,stimuli/images/PICTURE_296.png,LOTS,5ec513570e821a440f878858,29/04/1999,2020-08-13_12h52.19.132,proactive2,2020.1.2,MacIntel,60,5f341be081b9052c55068110,5f3529559e502b4786c79dd7,4,,,,,,bolt,,,,,,,,,,,1,1,0,53,53,9,1,,,,,,,,,,,,,,,,,,
,,?,0,0,,,,,,stimuli/images/PICTURE_403.png,TOILET,5ec513570e821a440f878858,29/04/1999,2020-08-13_12h52.19.132,proactive2,2020.1.2,MacIntel,60,5f341be081b9052c55068110,5f3529559e502b4786c79dd7,4,,,,,,cathedral,,,,,,,,,,,3,1,0,54,54,25,1,,,,,,,,,,,,,,,,,,
,,?,0.001,0,,,,,,stimuli/images/PICTURE_85.png,NATION,5ec513570e821a440f878858,29/04/1999,2020-08-13_12h52.19.132,proactive2,2020.1.2,MacIntel,60,5f341be081b9052c55068110,5f3529559e502b4786c79dd7,4,,,,,,diamond,,,,,,,,,,,1,1,0,55,55,5,1,,,,,,,,,,,,,,,,,,
,,?,0.001,0,,,,,,stimuli/images/PICTURE_233.png,LOTS,5ec513570e821a440f878858,29/04/1999,2020-08-13_12h52.19.132,proactive2,2020.1.2,MacIntel,60,5f341be081b9052c55068110,5f3529559e502b4786c79dd7,4,,,,,,salt,,,,,,,,,,,5,1,0,56,56,42,1,,,,,,,,,,,,,,,,,,
,,HOUSE,3.282,0,,,,,,stimuli/images/PICTURE_405.png,YEAR,5ec513570e821a440f878858,29/04/1999,2020-08-13_12h52.19.132,proactive2,2020.1.2,MacIntel,60,5f341be081b9052c55068110,5f3529559e502b4786c79dd7,4,,,,,,anchor,,,,,,,,,,,4,1,0,57,57,34,1,,,,,,,,,,,,,,,,,,
,,?,0.002,0,,,,,,stimuli/images/PICTURE_296.png,LIFE,5ec513570e821a440f878858,29/04/1999,2020-08-13_12h52.19.132,proactive2,2020.1.2,MacIntel,60,5f341be081b9052c55068110,5f3529559e502b4786c79dd7,4,,,,,,bolt,,,,,,,,,,,6,1,0,58,58,57,1,,,,,,,,,,,,,,,,,,
,,SYSTEM,2.613,1,,,,,,stimuli/images/PICTURE_208.png,SYSTEM,5ec513570e821a440f878858,29/04/1999,2020-08-13_12h52.19.132,proactive2,2020.1.2,MacIntel,60,5f341be081b9052c55068110,5f3529559e502b4786c79dd7,4,,,,,,microphone,,,,,,,,,,,4,1,0,59,59,32,1,,,,,,,,,,,,,,,,,,
,,,,,,,,,,,,5ec513570e821a440f878858,29/04/1999,2020-08-13_12h52.19.132,proactive2,2020.1.2,MacIntel,60,5f341be081b9052c55068110,5f3529559e502b4786c79dd7,4,,,,,,,,,,,,,,,,,,,,,,,,0,1,1,1,1,stimuli/learn-block2.csv,,,,,,,,,,,,
,,,,,,,,,,stimuli/images/PICTURE_380.png,DEATH,5ec513570e821a440f878858,29/04/1999,2020-08-13_12h52.19.132,proactive2,2020.1.2,MacIntel,60,5f341be081b9052c55068110,5f3529559e502b4786c79dd7,4,,,,,,gorilla,,,,,,0,0,0,49,1,5,0,,,,,,,,,,,,,,,,,,,,,,,
,,,,,,,,,,stimuli/images/PICTURE_470.png,CASINO,5ec513570e821a440f878858,29/04/1999,2020-08-13_12h52.19.132,proactive2,2020.1.2,MacIntel,60,5f341be081b9052c55068110,5f3529559e502b4786c79dd7,4,,,,,,motorbike,,,,,,0,1,1,36,1,4,0,,,,,,,,,,,,,,,,,,,,,,,
,,,,,,,,,,stimuli/images/PICTURE_123.png,ADVICE,5ec513570e821a440f878858,29/04/1999,2020-08-13_12h52.19.132,proactive2,2020.1.2,MacIntel,60,5f341be081b9052c55068110,5f3529559e502b4786c79dd7,4,,,,,,dart,,,,,,0,2,2,50,1,6,0,,,,,,,,,,,,,,,,,,,,,,,
,,,,,,,,,,stimuli/images/PICTURE_469.png,LETTER,5ec513570e821a440f878858,29/04/1999,2020-08-13_12h52.19.132,proactive2,2020.1.2,MacIntel,60,5f341be081b9052c55068110,5f3529559e502b4786c79dd7,4,,,,,,stool,,,,,,0,3,3,42,1,5,0,,,,,,,,,,,,,,,,,,,,,,,
,,,,,,,,,,stimuli/images/PICTURE_151.png,GIRL,5ec513570e821a440f878858,29/04/1999,2020-08-13_12h52.19.132,proactive2,2020.1.2,MacIntel,60,5f341be081b9052c55068110,5f3529559e502b4786c79dd7,4,,,,,,tray,,,,,,0,4,4,19,1,2,0,,,,,,,,,,,,,,,,,,,,,,,
,,,,,,,,,,stimuli/images/PICTURE_488.png,STYLE,5ec513570e821a440f878858,29/04/1999,2020-08-13_12h52.19.132,proactive2,2020.1.2,MacIntel,60,5f341be081b9052c55068110,5f3529559e502b4786c79dd7,4,,,,,,sun,,,,,,0,5,5,33,1,4,0,,,,,,,,,,,,,,,,,,,,,,,
,,,,,,,,,,stimuli/images/PICTURE_467.png,DEMON,5ec513570e821a440f878858,29/04/1999,2020-08-13_12h52.19.132,proactive2,2020.1.2,MacIntel,60,5f341be081b9052c55068110,5f3529559e502b4786c79dd7,4,,,,,,peg,,,,,,0,6,6,23,1,3,0,,,,,,,,,,,,,,,,,,,,,,,
,,,,,,,,,,stimuli/images/PICTURE_208.png,LOTS,5ec513570e821a440f878858,29/04/1999,2020-08-13_12h52.19.132,proactive2,2020.1.2,MacIntel,60,5f341be081b9052c55068110,5f3529559e502b4786c79dd7,4,,,,,,microphone,,,,,,0,7,7,10,1,2,0,,,,,,,,,,,,,,,,,,,,,,,
,,,,,,,,,,stimuli/images/PICTURE_667.png,PLENTY,5ec513570e821a440f878858,29/04/1999,2020-08-13_12h52.19.132,proactive2,2020.1.2,MacIntel,60,5f341be081b9052c55068110,5f3529559e502b4786c79dd7,4,,,,,,daisy,,,,,,0,8,8,41,1,5,0,,,,,,,,,,,,,,,,,,,,,,,
,,,,,,,,,,stimuli/images/PICTURE_233.png,WOMEN,5ec513570e821a440f878858,29/04/1999,2020-08-13_12h52.19.132,proactive2,2020.1.2,MacIntel,60,5f341be081b9052c55068110,5f3529559e502b4786c79dd7,4,,,,,,salt,,,,,,0,9,9,38,1,4,0,,,,,,,,,,,,,,,,,,,,,,,
,,,,,,,,,,stimuli/images/PICTURE_380.png,PHOTO,5ec513570e821a440f878858,29/04/1999,2020-08-13_12h52.19.132,proactive2,2020.1.2,MacIntel,60,5f341be081b9052c55068110,5f3529559e502b4786c79dd7,4,,,,,,gorilla,,,,,,0,10,10,52,1,6,0,,,,,,,,,,,,,,,,,,,,,,,
,,,,,,,,,,stimuli/images/PICTURE_677.png,MILE,5ec513570e821a440f878858,29/04/1999,2020-08-13_12h52.19.132,proactive2,2020.1.2,MacIntel,60,5f341be081b9052c55068110,5f3529559e502b4786c79dd7,4,,,,,,map,,,,,,0,11,11,30,1,4,0,,,,,,,,,,,,,,,,,,,,,,,
,,,,,,,,,,stimuli/images/PICTURE_744.png,SYSTEM,5ec513570e821a440f878858,29/04/1999,2020-08-13_12h52.19.132,proactive2,2020.1.2,MacIntel,60,5f341be081b9052c55068110,5f3529559e502b4786c79dd7,4,,,,,,ring,,,,,,0,12,12,43,1,5,0,,,,,,,,,,,,,,,,,,,,,,,
,,,,,,,,,,stimuli/images/PICTURE_469.png,ARTIST,5ec513570e821a440f878858,29/04/1999,2020-08-13_12h52.19.132,proactive2,2020.1.2,MacIntel,60,5f341be081b9052c55068110,5f3529559e502b4786c79dd7,4,,,,,,stool,,,,,,0,13,13,6,1,1,0,,,,,,,,,,,,,,,,,,,,,,,
,,,,,,,,,,stimuli/images/PICTURE_85.png,THING,5ec513570e821a440f878858,29/04/1999,2020-08-13_12h52.19.132,proactive2,2020.1.2,MacIntel,60,5f341be081b9052c55068110,5f3529559e502b4786c79dd7,4,,,,,,diamond,,,,,,0,14,14,15,1,2,0,,,,,,,,,,,,,,,,,,,,,,,
,,,,,,,,,,stimuli/images/PICTURE_302.png,FAMILY,5ec513570e821a440f878858,29/04/1999,2020-08-13_12h52.19.132,proactive2,2020.1.2,MacIntel,60,5f341be081b9052c55068110,5f3529559e502b4786c79dd7,4,,,,,,taxi,,,,,,0,15,15,18,1,2,0,,,,,,,,,,,,,,,,,,,,,,,
,,,,,,,,,,stimuli/images/PICTURE_708.png,CLIENT,5ec513570e821a440f878858,29/04/1999,2020-08-13_12h52.19.132,proactive2,2020.1.2,MacIntel,60,5f341be081b9052c55068110,5f3529559e502b4786c79dd7,4,,,,,,monkey,,,,,,0,16,16,5,1,1,0,,,,,,,,,,,,,,,,,,,,,,,
,,,,,,,,,,stimuli/images/PICTURE_708.png,PENNY,5ec513570e821a440f878858,29/04/1999,2020-08-13_12h52.19.132,proactive2,2020.1.2,MacIntel,60,5f341be081b9052c55068110,5f3529559e502b4786c79dd7,4,,,,,,monkey,,,,,,0,17,17,31,1,4,0,,,,,,,,,,,,,,,,,,,,,,,
,,,,,,,,,,stimuli/images/PICTURE_285.png,ADVICE,5ec513570e821a440f878858,29/04/1999,2020-08-13_12h52.19.132,proactive2,2020.1.2,MacIntel,60,5f341be081b9052c55068110,5f3529559e502b4786c79dd7,4,,,,,,carrot,,,,,,0,18,18,12,1,2,0,,,,,,,,,,,,,,,,,,,,,,,
,,,,,,,,,,stimuli/images/PICTURE_160.png,LEADER,5ec513570e821a440f878858,29/04/1999,2020-08-13_12h52.19.132,proactive2,2020.1.2,MacIntel,60,5f341be081b9052c55068110,5f3529559e502b4786c79dd7,4,,,,,,wheelbarrow,,,,,,0,19,19,3,1,1,0,,,,,,,,,,,,,,,,,,,,,,,
,,,,,,,,,,stimuli/images/PICTURE_453.png,PLENTY,5ec513570e821a440f878858,29/04/1999,2020-08-13_12h52.19.132,proactive2,2020.1.2,MacIntel,60,5f341be081b9052c55068110,5f3529559e502b4786c79dd7,4,,,,,,scissors,,,,,,0,20,20,56,1,6,0,,,,,,,,,,,,,,,,,,,,,,,
,,,,,,,,,,stimuli/images/PICTURE_208.png,THING,5ec513570e821a440f878858,29/04/1999,2020-08-13_12h52.19.132,proactive2,2020.1.2,MacIntel,60,5f341be081b9052c55068110,5f3529559e502b4786c79dd7,4,,,,,,microphone,,,,,,0,21,21,47,1,5,0,,,,,,,,,,,,,,,,,,,,,,,
,,,,,,,,,,stimuli/images/PICTURE_314.png,GODS,5ec513570e821a440f878858,29/04/1999,2020-08-13_12h52.19.132,proactive2,2020.1.2,MacIntel,60,5f341be081b9052c55068110,5f3529559e502b4786c79dd7,4,,,,,,perfume,,,,,,0,22,22,11,1,2,0,,,,,,,,,,,,,,,,,,,,,,,
,,,,,,,,,,stimuli/images/PICTURE_32.png,JUNGLE,5ec513570e821a440f878858,29/04/1999,2020-08-13_12h52.19.132,proactive2,2020.1.2,MacIntel,60,5f341be081b9052c55068110,5f3529559e502b4786c79dd7,4,,,,,,crown,,,,,,0,23,23,45,1,5,0,,,,,,,,,,,,,,,,,,,,,,,
,,,,,,,,,,stimuli/images/PICTURE_68.png,MILE,5ec513570e821a440f878858,29/04/1999,2020-08-13_12h52.19.132,proactive2,2020.1.2,MacIntel,60,5f341be081b9052c55068110,5f3529559e502b4786c79dd7,4,,,,,,candle,,,,,,0,24,24,44,1,5,0,,,,,,,,,,,,,,,,,,,,,,,
,,,,,,,,,,stimuli/images/PICTURE_208.png,MONTH,5ec513570e821a440f878858,29/04/1999,2020-08-13_12h52.19.132,proactive2,2020.1.2,MacIntel,60,5f341be081b9052c55068110,5f3529559e502b4786c79dd7,4,,,,,,microphone,,,,,,0,25,25,53,1,6,0,,,,,,,,,,,,,,,,,,,,,,,
,,,,,,,,,,stimuli/images/PICTURE_203.png,ARTIST,5ec513570e821a440f878858,29/04/1999,2020-08-13_12h52.19.132,proactive2,2020.1.2,MacIntel,60,5f341be081b9052c55068110,5f3529559e502b4786c79dd7,4,,,,,,cap,,,,,,0,26,26,26,1,3,0,,,,,,,,,,,,,,,,,,,,,,,
,,,,,,,,,,stimuli/images/PICTURE_308.png,KIND,5ec513570e821a440f878858,29/04/1999,2020-08-13_12h52.19.132,proactive2,2020.1.2,MacIntel,60,5f341be081b9052c55068110,5f3529559e502b4786c79dd7,4,,,,,,dice,,,,,,0,27,27,54,1,6,0,,,,,,,,,,,,,,,,,,,,,,,
,,,,,,,,,,stimuli/images/PICTURE_255.png,AREA,5ec513570e821a440f878858,29/04/1999,2020-08-13_12h52.19.132,proactive2,2020.1.2,MacIntel,60,5f341be081b9052c55068110,5f3529559e502b4786c79dd7,4,,,,,,shovel,,,,,,0,28,28,22,1,3,0,,,,,,,,,,,,,,,,,,,,,,,
,,,,,,,,,,stimuli/images/PICTURE_160.png,FEET,5ec513570e821a440f878858,29/04/1999,2020-08-13_12h52.19.132,proactive2,2020.1.2,MacIntel,60,5f341be081b9052c55068110,5f3529559e502b4786c79dd7,4,,,,,,wheelbarrow,,,,,,0,29,29,58,1,6,0,,,,,,,,,,,,,,,,,,,,,,,
,,,,,,,,,,stimuli/images/PICTURE_675.png,WEAPON,5ec513570e821a440f878858,29/04/1999,2020-08-13_12h52.19.132,proactive2,2020.1.2,MacIntel,60,5f341be081b9052c55068110,5f3529559e502b4786c79dd7,4,,,,,,windmill,,,,,,0,30,30,32,1,4,0,,,,,,,,,,,,,,,,,,,,,,,
,,,,,,,,,,stimuli/images/PICTURE_95.png,STYLE,5ec513570e821a440f878858,29/04/1999,2020-08-13_12h52.19.132,proactive2,2020.1.2,MacIntel,60,5f341be081b9052c55068110,5f3529559e502b4786c79dd7,4,,,,,,suitcase,,,,,,0,31,31,25,1,3,0,,,,,,,,,,,,,,,,,,,,,,,
,,,,,,,,,,stimuli/images/PICTURE_667.png,BATH,5ec513570e821a440f878858,29/04/1999,2020-08-13_12h52.19.132,proactive2,2020.1.2,MacIntel,60,5f341be081b9052c55068110,5f3529559e502b4786c79dd7,4,,,,,,daisy,,,,,,0,32,32,4,1,1,0,,,,,,,,,,,,,,,,,,,,,,,
,,,,,,,,,,stimuli/images/PICTURE_233.png,IDEAS,5ec513570e821a440f878858,29/04/1999,2020-08-13_12h52.19.132,proactive2,2020.1.2,MacIntel,60,5f341be081b9052c55068110,5f3529559e502b4786c79dd7,4,,,,,,salt,,,,,,0,33,33,28,1,3,0,,,,,,,,,,,,,,,,,,,,,,,
,,,,,,,,,,stimuli/images/PICTURE_708.png,YARD,5ec513570e821a440f878858,29/04/1999,2020-08-13_12h52.19.132,proactive2,2020.1.2,MacIntel,60,5f341be081b9052c55068110,5f3529559e502b4786c79dd7,4,,,,,,monkey,,,,,,0,34,34,29,1,3,0,,,,,,,,,,,,,,,,,,,,,,,
,,,,,,,,,,stimuli/images/PICTURE_504.png,BODY,5ec513570e821a440f878858,29/04/1999,2020-08-13_12h52.19.132,proactive2,2020.1.2,MacIntel,60,5f341be081b9052c55068110,5f3529559e502b4786c79dd7,4,,,,,,wheel,,,,,,0,35,35,8,1,1,0,,,,,,,,,,,,,,,,,,,,,,,
,,,,,,,,,,stimuli/images/PICTURE_123.png,ADVICE,5ec513570e821a440f878858,29/04/1999,2020-08-13_12h52.19.132,proactive2,2020.1.2,MacIntel,60,5f341be081b9052c55068110,5f3529559e502b4786c79dd7,4,,,,,,dart,,,,,,0,36,36,40,1,5,0,,,,,,,,,,,,,,,,,,,,,,,
,,,,,,,,,,stimuli/images/PICTURE_327.png,BEAUTY,5ec513570e821a440f878858,29/04/1999,2020-08-13_12h52.19.132,proactive2,2020.1.2,MacIntel,60,5f341be081b9052c55068110,5f3529559e502b4786c79dd7,4,,,,,,helmet,,,,,,0,37,37,48,1,5,0,,,,,,,,,,,,,,,,,,,,,,,
,,,,,,,,,,stimuli/images/PICTURE_487.png,FLIGHT,5ec513570e821a440f878858,29/04/1999,2020-08-13_12h52.19.132,proactive2,2020.1.2,MacIntel,60,5f341be081b9052c55068110,5f3529559e502b4786c79dd7,4,,,,,,basket,,,,,,0,38,38,9,1,1,0,,,,,,,,,,,,,,,,,,,,,,,
,,,,,,,,,,stimuli/images/PICTURE_491.png,ROOF,5ec513570e821a440f878858,29/04/1999,2020-08-13_12h52.19.132,proactive2,2020.1.2,MacIntel,60,5f341be081b9052c55068110,5f3529559e502b4786c79dd7,4,,,,,,rug,,,,,,0,39,39,24,1,3,0,,,,,,,,,,,,,,,,,,,,,,,
,,,,,,,,,,stimuli/images/PICTURE_248.png,DOZEN,5ec513570e821a440f878858,29/04/1999,2020-08-13_12h52.19.132,proactive2,2020.1.2,MacIntel,60,5f341be081b9052c55068110,5f3529559e502b4786c79dd7,4,,,,,,cart,,,,,,0,40,40,39,1,4,0,,,,,,,,,,,,,,,,,,,,,,,
,,,,,,,,,,stimuli/images/PICTURE_692.png,MONTH,5ec513570e821a440f878858,29/04/1999,2020-08-13_12h52.19.132,proactive2,2020.1.2,MacIntel,60,5f341be081b9052c55068110,5f3529559e502b4786c79dd7,4,,,,,,cherry,,,,,,0,41,41,16,1,2,0,,,,,,,,,,,,,,,,,,,,,,,
,,,,,,,,,,stimuli/images/PICTURE_491.png,WRITER,5ec513570e821a440f878858,29/04/1999,2020-08-13_12h52.19.132,proactive2,2020.1.2,MacIntel,60,5f341be081b9052c55068110,5f3529559e502b4786c79dd7,4,,,,,,rug,,,,,,0,42,42,57,1,6,0,,,,,,,,,,,,,,,,,,,,,,,
,,,,,,,,,,stimuli/images/PICTURE_356.png,DANGER,5ec513570e821a440f878858,29/04/1999,2020-08-13_12h52.19.132,proactive2,2020.1.2,MacIntel,60,5f341be081b9052c55068110,5f3529559e502b4786c79dd7,4,,,,,,pawn,,,,,,0,43,43,55,1,6,0,,,,,,,,,,,,,,,,,,,,,,,
,,,,,,,,,,stimuli/images/PICTURE_177.png,CARS,5ec513570e821a440f878858,29/04/1999,2020-08-13_12h52.19.132,proactive2,2020.1.2,MacIntel,60,5f341be081b9052c55068110,5f3529559e502b4786c79dd7,4,,,,,,mushroom,,,,,,0,44,44,35,1,4,0,,,,,,,,,,,,,,,,,,,,,,,
,,,,,,,,,,stimuli/images/PICTURE_449.png,THING,5ec513570e821a440f878858,29/04/1999,2020-08-13_12h52.19.132,proactive2,2020.1.2,MacIntel,60,5f341be081b9052c55068110,5f3529559e502b4786c79dd7,4,,,,,,bench,,,,,,0,45,45,59,1,6,0,,,,,,,,,,,,,,,,,,,,,,,
,,,,,,,,,,stimuli/images/PICTURE_688.png,WOMEN,5ec513570e821a440f878858,29/04/1999,2020-08-13_12h52.19.132,proactive2,2020.1.2,MacIntel,60,5f341be081b9052c55068110,5f3529559e502b4786c79dd7,4,,,,,,runner,,,,,,0,46,46,14,1,2,0,,,,,,,,,,,,,,,,,,,,,,,
,,,,,,,,,,stimuli/images/PICTURE_308.png,ESTATE,5ec513570e821a440f878858,29/04/1999,2020-08-13_12h52.19.132,proactive2,2020.1.2,MacIntel,60,5f341be081b9052c55068110,5f3529559e502b4786c79dd7,4,,,,,,dice,,,,,,0,47,47,46,1,5,0,,,,,,,,,,,,,,,,,,,,,,,
,,,,,,,,,,stimuli/images/PICTURE_311.png,BEAUTY,5ec513570e821a440f878858,29/04/1999,2020-08-13_12h52.19.132,proactive2,2020.1.2,MacIntel,60,5f341be081b9052c55068110,5f3529559e502b4786c79dd7,4,,,,,,razor,,,,,,0,48,48,13,1,2,0,,,,,,,,,,,,,,,,,,,,,,,
,,,,,,,,,,stimuli/images/PICTURE_453.png,DUDE,5ec513570e821a440f878858,29/04/1999,2020-08-13_12h52.19.132,proactive2,2020.1.2,MacIntel,60,5f341be081b9052c55068110,5f3529559e502b4786c79dd7,4,,,,,,scissors,,,,,,0,49,49,27,1,3,0,,,,,,,,,,,,,,,,,,,,,,,
,,,,,,,,,,stimuli/images/PICTURE_744.png,SAKE,5ec513570e821a440f878858,29/04/1999,2020-08-13_12h52.19.132,proactive2,2020.1.2,MacIntel,60,5f341be081b9052c55068110,5f3529559e502b4786c79dd7,4,,,,,,ring,,,,,,0,50,50,17,1,2,0,,,,,,,,,,,,,,,,,,,,,,,
,,,,,,,,,,stimuli/images/PICTURE_654.png,VALLEY,5ec513570e821a440f878858,29/04/1999,2020-08-13_12h52.19.132,proactive2,2020.1.2,MacIntel,60,5f341be081b9052c55068110,5f3529559e502b4786c79dd7,4,,,,,,pencil,,,,,,0,51,51,1,1,1,0,,,,,,,,,,,,,,,,,,,,,,,
,,,,,,,,,,stimuli/images/PICTURE_509.png,PHOTO,5ec513570e821a440f878858,29/04/1999,2020-08-13_12h52.19.132,proactive2,2020.1.2,MacIntel,60,5f341be081b9052c55068110,5f3529559e502b4786c79dd7,4,,,,,,telephone,,,,,,0,52,52,21,1,3,0,,,,,,,,,,,,,,,,,,,,,,,
,,,,,,,,,,stimuli/images/PICTURE_311.png,FRIEND,5ec513570e821a440f878858,29/04/1999,2020-08-13_12h52.19.132,proactive2,2020.1.2,MacIntel,60,5f341be081b9052c55068110,5f3529559e502b4786c79dd7,4,,,,,,razor,,,,,,0,53,53,34,1,4,0,,,,,,,,,,,,,,,,,,,,,,,
,,,,,,,,,,stimuli/images/PICTURE_147.png,MOMENT,5ec513570e821a440f878858,29/04/1999,2020-08-13_12h52.19.132,proactive2,2020.1.2,MacIntel,60,5f341be081b9052c55068110,5f3529559e502b4786c79dd7,4,,,,,,hanger,,,,,,0,54,54,51,1,6,0,,,,,,,,,,,,,,,,,,,,,,,
,,,,,,,,,,stimuli/images/PICTURE_688.png,CASINO,5ec513570e821a440f878858,29/04/1999,2020-08-13_12h52.19.132,proactive2,2020.1.2,MacIntel,60,5f341be081b9052c55068110,5f3529559e502b4786c79dd7,4,,,,,,runner,,,,,,0,55,55,2,1,1,0,,,,,,,,,,,,,,,,,,,,,,,
,,,,,,,,,,stimuli/images/PICTURE_215.png,PLENTY,5ec513570e821a440f878858,29/04/1999,2020-08-13_12h52.19.132,proactive2,2020.1.2,MacIntel,60,5f341be081b9052c55068110,5f3529559e502b4786c79dd7,4,,,,,,boot,,,,,,0,56,56,37,1,4,0,,,,,,,,,,,,,,,,,,,,,,,
,,,,,,,,,,stimuli/images/PICTURE_314.png,SAKE,5ec513570e821a440f878858,29/04/1999,2020-08-13_12h52.19.132,proactive2,2020.1.2,MacIntel,60,5f341be081b9052c55068110,5f3529559e502b4786c79dd7,4,,,,,,perfume,,,,,,0,57,57,7,1,1,0,,,,,,,,,,,,,,,,,,,,,,,
,,,,,,,,,,stimuli/images/PICTURE_339.png,PLENTY,5ec513570e821a440f878858,29/04/1999,2020-08-13_12h52.19.132,proactive2,2020.1.2,MacIntel,60,5f341be081b9052c55068110,5f3529559e502b4786c79dd7,4,,,,,,backpack,,,,,,0,58,58,0,1,1,0,,,,,,,,,,,,,,,,,,,,,,,
,,?,0.001,0,,,,,,stimuli/images/PICTURE_348.png,SPEECH,5ec513570e821a440f878858,29/04/1999,2020-08-13_12h52.19.132,proactive2,2020.1.2,MacIntel,60,5f341be081b9052c55068110,5f3529559e502b4786c79dd7,4,,,,,,pepper,,,,,,,,,,,3,0,0,0,0,20,1,,,,,,,,,,,,,,,,,,
,,PLENTY,2.894,1,,,,,,stimuli/images/PICTURE_215.png,PLENTY,5ec513570e821a440f878858,29/04/1999,2020-08-13_12h52.19.132,proactive2,2020.1.2,MacIntel,60,5f341be081b9052c55068110,5f3529559e502b4786c79dd7,4,,,,,,boot,,,,,,,,,,,4,0,0,1,1,37,1,,,,,,,,,,,,,,,,,,
,,?,0.001,0,,,,,,stimuli/images/PICTURE_160.png,LEADER,5ec513570e821a440f878858,29/04/1999,2020-08-13_12h52.19.132,proactive2,2020.1.2,MacIntel,60,5f341be081b9052c55068110,5f3529559e502b4786c79dd7,4,,,,,,wheelbarrow,,,,,,,,,,,1,0,0,2,2,3,1,,,,,,,,,,,,,,,,,,
,,?,0.001,0,,,,,,stimuli/images/PICTURE_208.png,THING,5ec513570e821a440f878858,29/04/1999,2020-08-13_12h52.19.132,proactive2,2020.1.2,MacIntel,60,5f341be081b9052c55068110,5f3529559e502b4786c79dd7,4,,,,,,microphone,,,,,,,,,,,5,0,0,3,3,47,1,,,,,,,,,,,,,,,,,,
,,?,0.001,0,,,,,,stimuli/images/PICTURE_504.png,BODY,5ec513570e821a440f878858,29/04/1999,2020-08-13_12h52.19.132,proactive2,2020.1.2,MacIntel,60,5f341be081b9052c55068110,5f3529559e502b4786c79dd7,4,,,,,,wheel,,,,,,,,,,,1,0,0,4,4,8,1,,,,,,,,,,,,,,,,,,
,,?,0,0,,,,,,stimuli/images/PICTURE_95.png,STYLE,5ec513570e821a440f878858,29/04/1999,2020-08-13_12h52.19.132,proactive2,2020.1.2,MacIntel,60,5f341be081b9052c55068110,5f3529559e502b4786c79dd7,4,,,,,,suitcase,,,,,,,,,,,3,0,0,5,5,25,1,,,,,,,,,,,,,,,,,,
,,?,0,0,,,,,,stimuli/images/PICTURE_469.png,ARTIST,5ec513570e821a440f878858,29/04/1999,2020-08-13_12h52.19.132,proactive2,2020.1.2,MacIntel,60,5f341be081b9052c55068110,5f3529559e502b4786c79dd7,4,,,,,,stool,,,,,,,,,,,1,0,0,6,6,6,1,,,,,,,,,,,,,,,,,,
,,MILE,2.025,1,,,,,,stimuli/images/PICTURE_677.png,MILE,5ec513570e821a440f878858,29/04/1999,2020-08-13_12h52.19.132,proactive2,2020.1.2,MacIntel,60,5f341be081b9052c55068110,5f3529559e502b4786c79dd7,4,,,,,,map,,,,,,,,,,,4,0,0,7,7,30,1,,,,,,,,,,,,,,,,,,
,,?,0.001,0,,,,,,stimuli/images/PICTURE_688.png,CASINO,5ec513570e821a440f878858,29/04/1999,2020-08-13_12h52.19.132,proactive2,2020.1.2,MacIntel,60,5f341be081b9052c55068110,5f3529559e502b4786c79dd7,4,,,,,,runner,,,,,,,,,,,1,0,0,8,8,2,1,,,,,,,,,,,,,,,,,,
,,?,0.002,0,,,,,,stimuli/images/PICTURE_68.png,MILE,5ec513570e821a440f878858,29/04/1999,2020-08-13_12h52.19.132,proactive2,2020.1.2,MacIntel,60,5f341be081b9052c55068110,5f3529559e502b4786c79dd7,4,,,,,,candle,,,,,,,,,,,5,0,0,9,9,44,1,,,,,,,,,,,,,,,,,,
,,PENNY,2.445,1,,,,,,stimuli/images/PICTURE_708.png,PENNY,5ec513570e821a440f878858,29/04/1999,2020-08-13_12h52.19.132,proactive2,2020.1.2,MacIntel,60,5f341be081b9052c55068110,5f3529559e502b4786c79dd7,4,,,,,,monkey,,,,,,,,,,,4,0,0,10,10,31,1,,,,,,,,,,,,,,,,,,
,,?,0.001,0,,,,,,stimuli/images/PICTURE_453.png,DUDE,5ec513570e821a440f878858,29/04/1999,2020-08-13_12h52.19.132,proactive2,2020.1.2,MacIntel,60,5f341be081b9052c55068110,5f3529559e502b4786c79dd7,4,,,,,,scissors,,,,,,,,,,,3,0,0,11,11,27,1,,,,,,,,,,,,,,,,,,
,,?,0.001,0,,,,,,stimuli/images/PICTURE_314.png,GODS,5ec513570e821a440f878858,29/04/1999,2020-08-13_12h52.19.132,proactive2,2020.1.2,MacIntel,60,5f341be081b9052c55068110,5f3529559e502b4786c79dd7,4,,,,,,perfume,,,,,,,,,,,2,0,0,12,12,11,1,,,,,,,,,,,,,,,,,,
,,?,0.001,0,,,,,,stimuli/images/PICTURE_491.png,ROOF,5ec513570e821a440f878858,29/04/1999,2020-08-13_12h52.19.132,proactive2,2020.1.2,MacIntel,60,5f341be081b9052c55068110,5f3529559e502b4786c79dd7,4,,,,,,rug,,,,,,,,,,,3,0,0,13,13,24,1,,,,,,,,,,,,,,,,,,
,,WOMEN,2.245,1,,,,,,stimuli/images/PICTURE_233.png,WOMEN,5ec513570e821a440f878858,29/04/1999,2020-08-13_12h52.19.132,proactive2,2020.1.2,MacIntel,60,5f341be081b9052c55068110,5f3529559e502b4786c79dd7,4,,,,,,salt,,,,,,,,,,,4,0,0,14,14,38,1,,,,,,,,,,,,,,,,,,
,,?,0.001,0,,,,,,stimuli/images/PICTURE_708.png,CLIENT,5ec513570e821a440f878858,29/04/1999,2020-08-13_12h52.19.132,proactive2,2020.1.2,MacIntel,60,5f341be081b9052c55068110,5f3529559e502b4786c79dd7,4,,,,,,monkey,,,,,,,,,,,1,0,0,15,15,5,1,,,,,,,,,,,,,,,,,,
,,?,0.001,0,,,,,,stimuli/images/PICTURE_692.png,MONTH,5ec513570e821a440f878858,29/04/1999,2020-08-13_12h52.19.132,proactive2,2020.1.2,MacIntel,60,5f341be081b9052c55068110,5f3529559e502b4786c79dd7,4,,,,,,cherry,,,,,,,,,,,2,0,0,16,16,16,1,,,,,,,,,,,,,,,,,,
,,?,0,0,,,,,,stimuli/images/PICTURE_32.png,JUNGLE,5ec513570e821a440f878858,29/04/1999,2020-08-13_12h52.19.132,proactive2,2020.1.2,MacIntel,60,5f341be081b9052c55068110,5f3529559e502b4786c79dd7,4,,,,,,crown,,,,,,,,,,,5,0,0,17,17,45,1,,,,,,,,,,,,,,,,,,
,,?,0.001,0,,,,,,stimuli/images/PICTURE_302.png,FAMILY,5ec513570e821a440f878858,29/04/1999,2020-08-13_12h52.19.132,proactive2,2020.1.2,MacIntel,60,5f341be081b9052c55068110,5f3529559e502b4786c79dd7,4,,,,,,taxi,,,,,,,,,,,2,0,0,18,18,18,1,,,,,,,,,,,,,,,,,,
,,?,0,0,,,,,,stimuli/images/PICTURE_308.png,KIND,5ec513570e821a440f878858,29/04/1999,2020-08-13_12h52.19.132,proactive2,2020.1.2,MacIntel,60,5f341be081b9052c55068110,5f3529559e502b4786c79dd7,4,,,,,,dice,,,,,,,,,,,6,0,0,19,19,54,1,,,,,,,,,,,,,,,,,,
,,?,0,0,,,,,,stimuli/images/PICTURE_744.png,SYSTEM,5ec513570e821a440f878858,29/04/1999,2020-08-13_12h52.19.132,proactive2,2020.1.2,MacIntel,60,5f341be081b9052c55068110,5f3529559e502b4786c79dd7,4,,,,,,ring,,,,,,,,,,,5,0,0,20,20,43,1,,,,,,,,,,,,,,,,,,
,,?,0,0,,,,,,stimuli/images/PICTURE_160.png,FEET,5ec513570e821a440f878858,29/04/1999,2020-08-13_12h52.19.132,proactive2,2020.1.2,MacIntel,60,5f341be081b9052c55068110,5f3529559e502b4786c79dd7,4,,,,,,wheelbarrow,,,,,,,,,,,6,0,0,21,21,58,1,,,,,,,,,,,,,,,,,,
,,?,0.001,0,,,,,,stimuli/images/PICTURE_123.png,ADVICE,5ec513570e821a440f878858,29/04/1999,2020-08-13_12h52.19.132,proactive2,2020.1.2,MacIntel,60,5f341be081b9052c55068110,5f3529559e502b4786c79dd7,4,,,,,,dart,,,,,,,,,,,6,0,0,22,22,50,1,,,,,,,,,,,,,,,,,,
,,STYLE,2.353,1,,,,,,stimuli/images/PICTURE_488.png,STYLE,5ec513570e821a440f878858,29/04/1999,2020-08-13_12h52.19.132,proactive2,2020.1.2,MacIntel,60,5f341be081b9052c55068110,5f3529559e502b4786c79dd7,4,,,,,,sun,,,,,,,,,,,4,0,0,23,23,33,1,,,,,,,,,,,,,,,,,,
,,?,0.001,0,,,,,,stimuli/images/PICTURE_744.png,SAKE,5ec513570e821a440f878858,29/04/1999,2020-08-13_12h52.19.132,proactive2,2020.1.2,MacIntel,60,5f341be081b9052c55068110,5f3529559e502b4786c79dd7,4,,,,,,ring,,,,,,,,,,,2,0,0,24,24,17,1,,,,,,,,,,,,,,,,,,
,,?,0.001,0,,,,,,stimuli/images/PICTURE_203.png,ARTIST,5ec513570e821a440f878858,29/04/1999,2020-08-13_12h52.19.132,proactive2,2020.1.2,MacIntel,60,5f341be081b9052c55068110,5f3529559e502b4786c79dd7,4,,,,,,cap,,,,,,,,,,,3,0,0,25,25,26,1,,,,,,,,,,,,,,,,,,
,,?,0,0,,,,,,stimuli/images/PICTURE_308.png,ESTATE,5ec513570e821a440f878858,29/04/1999,2020-08-13_12h52.19.132,proactive2,2020.1.2,MacIntel,60,5f341be081b9052c55068110,5f3529559e502b4786c79dd7,4,,,,,,dice,,,,,,,,,,,5,0,0,26,26,46,1,,,,,,,,,,,,,,,,,,
,,?,0.001,0,,,,,,stimuli/images/PICTURE_233.png,IDEAS,5ec513570e821a440f878858,29/04/1999,2020-08-13_12h52.19.132,proactive2,2020.1.2,MacIntel,60,5f341be081b9052c55068110,5f3529559e502b4786c79dd7,4,,,,,,salt,,,,,,,,,,,3,0,0,27,27,28,1,,,,,,,,,,,,,,,,,,
,,?,0,0,,,,,,stimuli/images/PICTURE_380.png,PHOTO,5ec513570e821a440f878858,29/04/1999,2020-08-13_12h52.19.132,proactive2,2020.1.2,MacIntel,60,5f341be081b9052c55068110,5f3529559e502b4786c79dd7,4,,,,,,gorilla,,,,,,,,,,,6,0,0,28,28,52,1,,,,,,,,,,,,,,,,,,
,,?,0,0,,,,,,stimuli/images/PICTURE_667.png,BATH,5ec513570e821a440f878858,29/04/1999,2020-08-13_12h52.19.132,proactive2,2020.1.2,MacIntel,60,5f341be081b9052c55068110,5f3529559e502b4786c79dd7,4,,,,,,daisy,,,,,,,,,,,1,0,0,29,29,4,1,,,,,,,,,,,,,,,,,,
,,?,0,0,,,,,,stimuli/images/PICTURE_327.png,BEAUTY,5ec513570e821a440f878858,29/04/1999,2020-08-13_12h52.19.132,proactive2,2020.1.2,MacIntel,60,5f341be081b9052c55068110,5f3529559e502b4786c79dd7,4,,,,,,helmet,,,,,,,,,,,5,0,0,30,30,48,1,,,,,,,,,,,,,,,,,,
,,?,0.001,0,,,,,,stimuli/images/PICTURE_311.png,BEAUTY,5ec513570e821a440f878858,29/04/1999,2020-08-13_12h52.19.132,proactive2,2020.1.2,MacIntel,60,5f341be081b9052c55068110,5f3529559e502b4786c79dd7,4,,,,,,razor,,,,,,,,,,,2,0,0,31,31,13,1,,,,,,,,,,,,,,,,,,
,,?,0.001,0,,,,,,stimuli/images/PICTURE_467.png,DEMON,5ec513570e821a440f878858,29/04/1999,2020-08-13_12h52.19.132,proactive2,2020.1.2,MacIntel,60,5f341be081b9052c55068110,5f3529559e502b4786c79dd7,4,,,,,,peg,,,,,,,,,,,3,0,0,32,32,23,1,,,,,,,,,,,,,,,,,,
,,?,0,0,,,,,,stimuli/images/PICTURE_147.png,MOMENT,5ec513570e821a440f878858,29/04/1999,2020-08-13_12h52.19.132,proactive2,2020.1.2,MacIntel,60,5f341be081b9052c55068110,5f3529559e502b4786c79dd7,4,,,,,,hanger,,,,,,,,,,,6,0,0,33,33,51,1,,,,,,,,,,,,,,,,,,
,,?,0.001,0,,,,,,stimuli/images/PICTURE_356.png,DANGER,5ec513570e821a440f878858,29/04/1999,2020-08-13_12h52.19.132,proactive2,2020.1.2,MacIntel,60,5f341be081b9052c55068110,5f3529559e502b4786c79dd7,4,,,,,,pawn,,,,,,,,,,,6,0,0,34,34,55,1,,,,,,,,,,,,,,,,,,
,,?,0.001,0,,,,,,stimuli/images/PICTURE_339.png,PLENTY,5ec513570e821a440f878858,29/04/1999,2020-08-13_12h52.19.132,proactive2,2020.1.2,MacIntel,60,5f341be081b9052c55068110,5f3529559e502b4786c79dd7,4,,,,,,backpack,,,,,,,,,,,1,0,0,35,35,0,1,,,,,,,,,,,,,,,,,,
,,?,0,0,,,,,,stimuli/images/PICTURE_208.png,LOTS,5ec513570e821a440f878858,29/04/1999,2020-08-13_12h52.19.132,proactive2,2020.1.2,MacIntel,60,5f341be081b9052c55068110,5f3529559e502b4786c79dd7,4,,,,,,microphone,,,,,,,,,,,2,0,0,36,36,10,1,,,,,,,,,,,,,,,,,,
,,?,0,0,,,,,,stimuli/images/PICTURE_151.png,GIRL,5ec513570e821a440f878858,29/04/1999,2020-08-13_12h52.19.132,proactive2,2020.1.2,MacIntel,60,5f341be081b9052c55068110,5f3529559e502b4786c79dd7,4,,,,,,tray,,,,,,,,,,,2,0,0,37,37,19,1,,,,,,,,,,,,,,,,,,
,,?,0,0,,,,,,stimuli/images/PICTURE_708.png,YARD,5ec513570e821a440f878858,29/04/1999,2020-08-13_12h52.19.132,proactive2,2020.1.2,MacIntel,60,5f341be081b9052c55068110,5f3529559e502b4786c79dd7,4,,,,,,monkey,,,,,,,,,,,3,0,0,38,38,29,1,,,,,,,,,,,,,,,,,,
,,?,0,0,,,,,,stimuli/images/PICTURE_314.png,SAKE,5ec513570e821a440f878858,29/04/1999,2020-08-13_12h52.19.132,proactive2,2020.1.2,MacIntel,60,5f341be081b9052c55068110,5f3529559e502b4786c79dd7,4,,,,,,perfume,,,,,,,,,,,1,0,0,39,39,7,1,,,,,,,,,,,,,,,,,,
,,?,0.001,0,,,,,,stimuli/images/PICTURE_469.png,LETTER,5ec513570e821a440f878858,29/04/1999,2020-08-13_12h52.19.132,proactive2,2020.1.2,MacIntel,60,5f341be081b9052c55068110,5f3529559e502b4786c79dd7,4,,,,,,stool,,,,,,,,,,,5,0,0,40,40,42,1,,,,,,,,,,,,,,,,,,
,,?,0.001,0,,,,,,stimuli/images/PICTURE_285.png,ADVICE,5ec513570e821a440f878858,29/04/1999,2020-08-13_12h52.19.132,proactive2,2020.1.2,MacIntel,60,5f341be081b9052c55068110,5f3529559e502b4786c79dd7,4,,,,,,carrot,,,,,,,,,,,2,0,0,41,41,12,1,,,,,,,,,,,,,,,,,,
,,?,0.001,0,,,,,,stimuli/images/PICTURE_453.png,PLENTY,5ec513570e821a440f878858,29/04/1999,2020-08-13_12h52.19.132,proactive2,2020.1.2,MacIntel,60,5f341be081b9052c55068110,5f3529559e502b4786c79dd7,4,,,,,,scissors,,,,,,,,,,,6,0,0,42,42,56,1,,,,,,,,,,,,,,,,,,
,,?,0,0,,,,,,stimuli/images/PICTURE_688.png,WOMEN,5ec513570e821a440f878858,29/04/1999,2020-08-13_12h52.19.132,proactive2,2020.1.2,MacIntel,60,5f341be081b9052c55068110,5f3529559e502b4786c79dd7,4,,,,,,runner,,,,,,,,,,,2,0,0,43,43,14,1,,,,,,,,,,,,,,,,,,
,,FRIEND,2.456,1,,,,,,stimuli/images/PICTURE_311.png,FRIEND,5ec513570e821a440f878858,29/04/1999,2020-08-13_12h52.19.132,proactive2,2020.1.2,MacIntel,60,5f341be081b9052c55068110,5f3529559e502b4786c79dd7,4,,,,,,razor,,,,,,,,,,,4,0,0,44,44,34,1,,,,,,,,,,,,,,,,,,
,,?,0.001,0,,,,,,stimuli/images/PICTURE_449.png,THING,5ec513570e821a440f878858,29/04/1999,2020-08-13_12h52.19.132,proactive2,2020.1.2,MacIntel,60,5f341be081b9052c55068110,5f3529559e502b4786c79dd7,4,,,,,,bench,,,,,,,,,,,6,0,0,45,45,59,1,,,,,,,,,,,,,,,,,,
,,?,0.001,0,,,,,,stimuli/images/PICTURE_491.png,WRITER,5ec513570e821a440f878858,29/04/1999,2020-08-13_12h52.19.132,proactive2,2020.1.2,MacIntel,60,5f341be081b9052c55068110,5f3529559e502b4786c79dd7,4,,,,,,rug,,,,,,,,,,,6,0,0,46,46,57,1,,,,,,,,,,,,,,,,,,
,,WEAPON,3.711,1,,,,,,stimuli/images/PICTURE_675.png,WEAPON,5ec513570e821a440f878858,29/04/1999,2020-08-13_12h52.19.132,proactive2,2020.1.2,MacIntel,60,5f341be081b9052c55068110,5f3529559e502b4786c79dd7,4,,,,,,windmill,,,,,,,,,,,4,0,0,47,47,32,1,,,,,,,,,,,,,,,,,,
,,?,0.002,0,,,,,,stimuli/images/PICTURE_208.png,MONTH,5ec513570e821a440f878858,29/04/1999,2020-08-13_12h52.19.132,proactive2,2020.1.2,MacIntel,60,5f341be081b9052c55068110,5f3529559e502b4786c79dd7,4,,,,,,microphone,,,,,,,,,,,6,0,0,48,48,53,1,,,,,,,,,,,,,,,,,,
,,?,0.001,0,,,,,,stimuli/images/PICTURE_123.png,ADVICE,5ec513570e821a440f878858,29/04/1999,2020-08-13_12h52.19.132,proactive2,2020.1.2,MacIntel,60,5f341be081b9052c55068110,5f3529559e502b4786c79dd7,4,,,,,,dart,,,,,,,,,,,5,0,0,49,49,40,1,,,,,,,,,,,,,,,,,,
,,?,0,0,,,,,,stimuli/images/PICTURE_509.png,PHOTO,5ec513570e821a440f878858,29/04/1999,2020-08-13_12h52.19.132,proactive2,2020.1.2,MacIntel,60,5f341be081b9052c55068110,5f3529559e502b4786c79dd7,4,,,,,,telephone,,,,,,,,,,,3,0,0,50,50,21,1,,,,,,,,,,,,,,,,,,
,,CARS,2.077,1,,,,,,stimuli/images/PICTURE_177.png,CARS,5ec513570e821a440f878858,29/04/1999,2020-08-13_12h52.19.132,proactive2,2020.1.2,MacIntel,60,5f341be081b9052c55068110,5f3529559e502b4786c79dd7,4,,,,,,mushroom,,,,,,,,,,,4,0,0,51,51,35,1,,,,,,,,,,,,,,,,,,
,,?,0.001,0,,,,,,stimuli/images/PICTURE_380.png,DEATH,5ec513570e821a440f878858,29/04/1999,2020-08-13_12h52.19.132,proactive2,2020.1.2,MacIntel,60,5f341be081b9052c55068110,5f3529559e502b4786c79dd7,4,,,,,,gorilla,,,,,,,,,,,5,0,0,52,52,49,1,,,,,,,,,,,,,,,,,,
,,CASINO,2.581,1,,,,,,stimuli/images/PICTURE_470.png,CASINO,5ec513570e821a440f878858,29/04/1999,2020-08-13_12h52.19.132,proactive2,2020.1.2,MacIntel,60,5f341be081b9052c55068110,5f3529559e502b4786c79dd7,4,,,,,,motorbike,,,,,,,,,,,4,0,0,53,53,36,1,,,,,,,,,,,,,,,,,,
,,?,0.001,0,,,,,,stimuli/images/PICTURE_654.png,VALLEY,5ec513570e821a440f878858,29/04/1999,2020-08-13_12h52.19.132,proactive2,2020.1.2,MacIntel,60,5f341be081b9052c55068110,5f3529559e502b4786c79dd7,4,,,,,,pencil,,,,,,,,,,,1,0,0,54,54,1,1,,,,,,,,,,,,,,,,,,
,,?,0.001,0,,,,,,stimuli/images/PICTURE_487.png,FLIGHT,5ec513570e821a440f878858,29/04/1999,2020-08-13_12h52.19.132,proactive2,2020.1.2,MacIntel,60,5f341be081b9052c55068110,5f3529559e502b4786c79dd7,4,,,,,,basket,,,,,,,,,,,1,0,0,55,55,9,1,,,,,,,,,,,,,,,,,,
,,?,0,0,,,,,,stimuli/images/PICTURE_85.png,THING,5ec513570e821a440f878858,29/04/1999,2020-08-13_12h52.19.132,proactive2,2020.1.2,MacIntel,60,5f341be081b9052c55068110,5f3529559e502b4786c79dd7,4,,,,,,diamond,,,,,,,,,,,2,0,0,56,56,15,1,,,,,,,,,,,,,,,,,,
,,?,0.001,0,,,,,,stimuli/images/PICTURE_667.png,PLENTY,5ec513570e821a440f878858,29/04/1999,2020-08-13_12h52.19.132,proactive2,2020.1.2,MacIntel,60,5f341be081b9052c55068110,5f3529559e502b4786c79dd7,4,,,,,,daisy,,,,,,,,,,,5,0,0,57,57,41,1,,,,,,,,,,,,,,,,,,
,,?,0.001,0,,,,,,stimuli/images/PICTURE_255.png,AREA,5ec513570e821a440f878858,29/04/1999,2020-08-13_12h52.19.132,proactive2,2020.1.2,MacIntel,60,5f341be081b9052c55068110,5f3529559e502b4786c79dd7,4,,,,,,shovel,,,,,,,,,,,3,0,0,58,58,22,1,,,,,,,,,,,,,,,,,,
,,PLNETY,8.041,0,,,,,,stimuli/images/PICTURE_248.png,DOZEN,5ec513570e821a440f878858,29/04/1999,2020-08-13_12h52.19.132,proactive2,2020.1.2,MacIntel,60,5f341be081b9052c55068110,5f3529559e502b4786c79dd7,4,,,,,,cart,,,,,,,,,,,4,0,0,59,59,39,1,,,,,,,,,,,,,,,,,,
,,,,,,,,,,,,5ec513570e821a440f878858,29/04/1999,2020-08-13_12h52.19.132,proactive2,2020.1.2,MacIntel,60,5f341be081b9052c55068110,5f3529559e502b4786c79dd7,4,,,,,,,,,,,,,,,,,,,,,,,,,,,,,,space,2.485,0,0,0,0,1,,,,,
,,?,0.001,0,,,,,,stimuli/images/PICTURE_42.png,BOYS,5ec513570e821a440f878858,29/04/1999,2020-08-13_12h52.19.132,proactive2,2020.1.2,MacIntel,60,5f341be081b9052c55068110,5f3529559e502b4786c79dd7,4,,,,,,pear,,,,,,,,,,,6,1,,,,,,,,,,,,,,,,,,,0,0,0,162,1
,,?,0,0,,,,,,stimuli/images/PICTURE_147.png,WOMEN,5ec513570e821a440f878858,29/04/1999,2020-08-13_12h52.19.132,proactive2,2020.1.2,MacIntel,60,5f341be081b9052c55068110,5f3529559e502b4786c79dd7,4,,,,,,hanger,,,,,,,,,,,1,1,,,,,,,,,,,,,,,,,,,0,1,1,15,1
,,?,0.001,0,,,,,,stimuli/images/PICTURE_453.png,DUDE,5ec513570e821a440f878858,29/04/1999,2020-08-13_12h52.19.132,proactive2,2020.1.2,MacIntel,60,5f341be081b9052c55068110,5f3529559e502b4786c79dd7,4,,,,,,scissors,,,,,,,,,,,3,0,,,,,,,,,,,,,,,,,,,0,2,2,75,1
,,NIGHT,2.005,1,,,,,,stimuli/images/PICTURE_95.png,NIGHT,5ec513570e821a440f878858,29/04/1999,2020-08-13_12h52.19.132,proactive2,2020.1.2,MacIntel,60,5f341be081b9052c55068110,5f3529559e502b4786c79dd7,4,,,,,,suitcase,,,,,,,,,,,4,2,,,,,,,,,,,,,,,,,,,0,3,3,111,1
,,?,0.001,0,,,,,,stimuli/images/PICTURE_255.png,AREA,5ec513570e821a440f878858,29/04/1999,2020-08-13_12h52.19.132,proactive2,2020.1.2,MacIntel,60,5f341be081b9052c55068110,5f3529559e502b4786c79dd7,4,,,,,,shovel,,,,,,,,,,,3,0,,,,,,,,,,,,,,,,,,,0,4,4,64,1
,,AREA,2.431,1,,,,,,stimuli/images/PICTURE_2.png,AREA,5ec513570e821a440f878858,29/04/1999,2020-08-13_12h52.19.132,proactive2,2020.1.2,MacIntel,60,5f341be081b9052c55068110,5f3529559e502b4786c79dd7,4,,,,,,tyre,,,,,,,,,,,4,2,,,,,,,,,,,,,,,,,,,0,5,5,97,1
,,?,0.001,0,,,,,,stimuli/images/PICTURE_509.png,SHOTS,5ec513570e821a440f878858,29/04/1999,2020-08-13_12h52.19.132,proactive2,2020.1.2,MacIntel,60,5f341be081b9052c55068110,5f3529559e502b4786c79dd7,4,,,,,,telephone,,,,,,,,,,,1,2,,,,,,,,,,,,,,,,,,,0,6,6,24,1
,,?,0,0,,,,,,stimuli/images/PICTURE_2.png,FLIGHT,5ec513570e821a440f878858,29/04/1999,2020-08-13_12h52.19.132,proactive2,2020.1.2,MacIntel,60,5f341be081b9052c55068110,5f3529559e502b4786c79dd7,4,,,,,,tyre,,,,,,,,,,,2,1,,,,,,,,,,,,,,,,,,,0,7,7,49,1
,,?,0,0,,,,,,stimuli/images/PICTURE_296.png,CLOCK,5ec513570e821a440f878858,29/04/1999,2020-08-13_12h52.19.132,proactive2,2020.1.2,MacIntel,60,5f341be081b9052c55068110,5f3529559e502b4786c79dd7,4,,,,,,bolt,,,,,,,,,,,2,2,,,,,,,,,,,,,,,,,,,0,8,8,56,1
,,?,0,0,,,,,,stimuli/images/PICTURE_453.png,PLENTY,5ec513570e821a440f878858,29/04/1999,2020-08-13_12h52.19.132,proactive2,2020.1.2,MacIntel,60,5f341be081b9052c55068110,5f3529559e502b4786c79dd7,4,,,,,,scissors,,,,,,,,,,,6,0,,,,,,,,,,,,,,,,,,,0,9,9,175,1
,,?,0,0,,,,,,stimuli/images/PICTURE_57.png,CANDY,5ec513570e821a440f878858,29/04/1999,2020-08-13_12h52.19.132,proactive2,2020.1.2,MacIntel,60,5f341be081b9052c55068110,5f3529559e502b4786c79dd7,4,,,,,,stamp,,,,,,,,,,,6,2,,,,,,,,,,,,,,,,,,,0,10,10,157,1
,,?,0,0,,,,,,stimuli/images/PICTURE_160.png,HOTEL,5ec513570e821a440f878858,29/04/1999,2020-08-13_12h52.19.132,proactive2,2020.1.2,MacIntel,60,5f341be081b9052c55068110,5f3529559e502b4786c79dd7,4,,,,,,wheelbarrow,,,,,,,,,,,2,2,,,,,,,,,,,,,,,,,,,0,11,11,53,1
,,?,0.001,0,,,,,,stimuli/images/PICTURE_708.png,CLIENT,5ec513570e821a440f878858,29/04/1999,2020-08-13_12h52.19.132,proactive2,2020.1.2,MacIntel,60,5f341be081b9052c55068110,5f3529559e502b4786c79dd7,4,,,,,,monkey,,,,,,,,,,,1,0,,,,,,,,,,,,,,,,,,,0,12,12,21,1
,,HOUSE,2.16,1,,,,,,stimuli/images/PICTURE_504.png,HOUSE,5ec513570e821a440f878858,29/04/1999,2020-08-13_12h52.19.132,proactive2,2020.1.2,MacIntel,60,5f341be081b9052c55068110,5f3529559e502b4786c79dd7,4,,,,,,wheel,,,,,,,,,,,4,2,,,,,,,,,,,,,,,,,,,0,13,13,106,1
,,?,0.001,0,,,,,,stimuli/images/PICTURE_449.png,THING,5ec513570e821a440f878858,29/04/1999,2020-08-13_12h52.19.132,proactive2,2020.1.2,MacIntel,60,5f341be081b9052c55068110,5f3529559e502b4786c79dd7,4,,,,,,bench,,,,,,,,,,,6,0,,,,,,,,,,,,,,,,,,,0,14,14,179,1
,,?,0,0,,,,,,stimuli/images/PICTURE_327.png,SERIES,5ec513570e821a440f878858,29/04/1999,2020-08-13_12h52.19.132,proactive2,2020.1.2,MacIntel,60,5f341be081b9052c55068110,5f3529559e502b4786c79dd7,4,,,,,,helmet,,,,,,,,,,,1,1,,,,,,,,,,,,,,,,,,,0,15,15,7,1
,,?,0.001,0,,,,,,stimuli/images/PICTURE_32.png,JUNGLE,5ec513570e821a440f878858,29/04/1999,2020-08-13_12h52.19.132,proactive2,2020.1.2,MacIntel,60,5f341be081b9052c55068110,5f3529559e502b4786c79dd7,4,,,,,,crown,,,,,,,,,,,5,0,,,,,,,,,,,,,,,,,,,0,16,16,133,1
,,?,0,0,,,,,,stimuli/images/PICTURE_95.png,MILLER,5ec513570e821a440f878858,29/04/1999,2020-08-13_12h52.19.132,proactive2,2020.1.2,MacIntel,60,5f341be081b9052c55068110,5f3529559e502b4786c79dd7,4,,,,,,suitcase,,,,,,,,,,,6,1,,,,,,,,,,,,,,,,,,,0,17,17,164,1
,,?,0.001,0,,,,,,stimuli/images/PICTURE_708.png,RECORD,5ec513570e821a440f878858,29/04/1999,2020-08-13_12h52.19.132,proactive2,2020.1.2,MacIntel,60,5f341be081b9052c55068110,5f3529559e502b4786c79dd7,4,,,,,,monkey,,,,,,,,,,,6,1,,,,,,,,,,,,,,,,,,,0,18,18,168,1
,,?,0,0,,,,,,stimuli/images/PICTURE_380.png,PHOTO,5ec513570e821a440f878858,29/04/1999,2020-08-13_12h52.19.132,proactive2,2020.1.2,MacIntel,60,5f341be081b9052c55068110,5f3529559e502b4786c79dd7,4,,,,,,gorilla,,,,,,,,,,,6,0,,,,,,,,,,,,,,,,,,,0,19,19,167,1
,,?,0,0,,,,,,stimuli/images/PICTURE_327.png,CASINO,5ec513570e821a440f878858,29/04/1999,2020-08-13_12h52.19.132,proactive2,2020.1.2,MacIntel,60,5f341be081b9052c55068110,5f3529559e502b4786c79dd7,4,,,,,,helmet,,,,,,,,,,,3,1,,,,,,,,,,,,,,,,,,,0,20,20,61,1
,,?,0.001,0,,,,,,stimuli/images/PICTURE_296.png,LIFE,5ec513570e821a440f878858,29/04/1999,2020-08-13_12h52.19.132,proactive2,2020.1.2,MacIntel,60,5f341be081b9052c55068110,5f3529559e502b4786c79dd7,4,,,,,,bolt,,,,,,,,,,,6,1,,,,,,,,,,,,,,,,,,,0,21,21,165,1
,,?,0.001,0,,,,,,stimuli/images/PICTURE_339.png,PLENTY,5ec513570e821a440f878858,29/04/1999,2020-08-13_12h52.19.132,proactive2,2020.1.2,MacIntel,60,5f341be081b9052c55068110,5f3529559e502b4786c79dd7,4,,,,,,backpack,,,,,,,,,,,1,0,,,,,,,,,,,,,,,,,,,0,22,22,5,1
