consent_key.keys,consent_key.rt,recalled,recalled_rt,recall_acc,example_recall.thisRepN,example_recall.thisTrialN,example_recall.thisN,example_recall.thisIndex,example_recall.ran,file,word,participant,please enter your date of birth (dd/mm/yyyy),date,expName,psychopyVersion,OS,frameRate,STUDY_ID,SESSION_ID,list,prac_learn_study_loop.thisRepN,prac_learn_study_loop.thisTrialN,prac_learn_study_loop.thisN,prac_learn_study_loop.thisIndex,prac_learn_study_loop.ran,image,prac_learn_test_loop.thisRepN,prac_learn_test_loop.thisTrialN,prac_learn_test_loop.thisN,prac_learn_test_loop.thisIndex,prac_learn_test_loop.ran,learn_study_loop.thisRepN,learn_study_loop.thisTrialN,learn_study_loop.thisN,learn_study_loop.thisIndex,learn_study_loop.ran,list_no,block_no,learn_test_loop.thisRepN,learn_test_loop.thisTrialN,learn_test_loop.thisN,learn_test_loop.thisIndex,learn_test_loop.ran,learn_blocks.thisRepN,learn_blocks.thisTrialN,learn_blocks.thisN,learn_blocks.thisIndex,learn_blocks.ran,block_csv,key_resp_13.keys,key_resp_13.rt,learn_blocks_loop.thisRepN,learn_blocks_loop.thisTrialN,learn_blocks_loop.thisN,learn_blocks_loop.thisIndex,learn_blocks_loop.ran,final_learn_test.thisRepN,final_learn_test.thisTrialN,final_learn_test.thisN,final_learn_test.thisIndex,final_learn_test.ran,s_im1,s_im2,s_im3,s_im4,s_im5,s_im6,s_im7,s_im8,s_im1pos,s_im2pos,s_im3pos,s_im4pos,s_im5pos,s_im6pos,s_im7pos,s_im8pos,s_tarright,search_resp.keys,search_loop.thisRepN,search_loop.thisTrialN,search_loop.thisN,search_loop.thisIndex,search_loop.ran,search_resp.rt,prac_wm_test_loop.thisRepN,prac_wm_test_loop.thisTrialN,prac_wm_test_loop.thisN,prac_wm_test_loop.thisIndex,prac_wm_test_loop.ran,wm_recalled1,wm_recall_rt1,wm_probed1,wm_recall_acc1,wm_recalled2,wm_recall_rt2,wm_probed2,wm_recall_acc2,wm_recalled3,wm_recall_rt3,wm_probed3,wm_recall_acc3,wm_recalled4,wm_recall_rt4,wm_probed4,wm_recall_acc4,prac_wm_trial_loop.thisRepN,prac_wm_trial_loop.thisTrialN,prac_wm_trial_loop.thisN,prac_wm_trial_loop.thisIndex,prac_wm_trial_loop.ran,word1,image1,file1,item_type1,word2,image2,file2,item_type2,word4,image4,file4,item_type4,word3,image3,file3,item_type3,wm_test_loop.thisRepN,wm_test_loop.thisTrialN,wm_test_loop.thisN,wm_test_loop.thisIndex,wm_test_loop.ran,wm_trial_loop.thisRepN,wm_trial_loop.thisTrialN,wm_trial_loop.thisN,wm_trial_loop.thisIndex,wm_trial_loop.ran
y,631.815335,TUBE,15.007255,0,0,0,0,0,1,stimuli/images/PICTURE_747.png,TOUGH,5ed670d71bd6110836108b87,14/07/1991,2020-08-13_05h03.11.303,proactive2,2020.1.2,Win32,60,5f341be081b9052c55068110,5f352ae15f1bf12f1449be3e,4,,,,,,,,,,,,,,,,,,,,,,,,,,,,,,,,,,,,,,,,,,,,,,,,,,,,,,,,,,,,,,,,,,,,,,,,,,,,,,,,,,,,,,,,,,,,,,,,,,,,,,,,,,,,,,,,,,,,,
,,,,,,,,,,stimuli/images/PICTURE_378.png,LOSS,5ed670d71bd6110836108b87,14/07/1991,2020-08-13_05h03.11.303,proactive2,2020.1.2,Win32,60,5f341be081b9052c55068110,5f352ae15f1bf12f1449be3e,4,0,0,0,2,1,lobster,,,,,,,,,,,,,,,,,,,,,,,,,,,,,,,,,,,,,,,,,,,,,,,,,,,,,,,,,,,,,,,,,,,,,,,,,,,,,,,,,,,,,,,,,,,,,,,,,,,,,,,,,,,,,,,
,,,,,,,,,,stimuli/images/PICTURE_269.png,GENIUS,5ed670d71bd6110836108b87,14/07/1991,2020-08-13_05h03.11.303,proactive2,2020.1.2,Win32,60,5f341be081b9052c55068110,5f352ae15f1bf12f1449be3e,4,0,1,1,0,1,chameleon,,,,,,,,,,,,,,,,,,,,,,,,,,,,,,,,,,,,,,,,,,,,,,,,,,,,,,,,,,,,,,,,,,,,,,,,,,,,,,,,,,,,,,,,,,,,,,,,,,,,,,,,,,,,,,,
,,,,,,,,,,stimuli/images/PICTURE_658.png,DEVIL,5ed670d71bd6110836108b87,14/07/1991,2020-08-13_05h03.11.303,proactive2,2020.1.2,Win32,60,5f341be081b9052c55068110,5f352ae15f1bf12f1449be3e,4,0,2,2,3,1,crow,,,,,,,,,,,,,,,,,,,,,,,,,,,,,,,,,,,,,,,,,,,,,,,,,,,,,,,,,,,,,,,,,,,,,,,,,,,,,,,,,,,,,,,,,,,,,,,,,,,,,,,,,,,,,,,
,,,,,,,,,,stimuli/images/PICTURE_697.png,KILLER,5ed670d71bd6110836108b87,14/07/1991,2020-08-13_05h03.11.303,proactive2,2020.1.2,Win32,60,5f341be081b9052c55068110,5f352ae15f1bf12f1449be3e,4,0,3,3,4,1,peach,,,,,,,,,,,,,,,,,,,,,,,,,,,,,,,,,,,,,,,,,,,,,,,,,,,,,,,,,,,,,,,,,,,,,,,,,,,,,,,,,,,,,,,,,,,,,,,,,,,,,,,,,,,,,,,
,,CELL,11.45187,1,,,,,,stimuli/images/PICTURE_727.png,CELL,5ed670d71bd6110836108b87,14/07/1991,2020-08-13_05h03.11.303,proactive2,2020.1.2,Win32,60,5f341be081b9052c55068110,5f352ae15f1bf12f1449be3e,4,,,,,,hose,0,0,0,1,1,,,,,,,,,,,,,,,,,,,,,,,,,,,,,,,,,,,,,,,,,,,,,,,,,,,,,,,,,,,,,,,,,,,,,,,,,,,,,,,,,,,,,,,,,,,,,,,,,,,,,,,,,,
,,GENIUS,7.76589,1,,,,,,stimuli/images/PICTURE_269.png,GENIUS,5ed670d71bd6110836108b87,14/07/1991,2020-08-13_05h03.11.303,proactive2,2020.1.2,Win32,60,5f341be081b9052c55068110,5f352ae15f1bf12f1449be3e,4,,,,,,chameleon,0,1,1,0,1,,,,,,,,,,,,,,,,,,,,,,,,,,,,,,,,,,,,,,,,,,,,,,,,,,,,,,,,,,,,,,,,,,,,,,,,,,,,,,,,,,,,,,,,,,,,,,,,,,,,,,,,,,
,,KILLER,5.226665,1,,,,,,stimuli/images/PICTURE_697.png,KILLER,5ed670d71bd6110836108b87,14/07/1991,2020-08-13_05h03.11.303,proactive2,2020.1.2,Win32,60,5f341be081b9052c55068110,5f352ae15f1bf12f1449be3e,4,,,,,,peach,0,2,2,4,1,,,,,,,,,,,,,,,,,,,,,,,,,,,,,,,,,,,,,,,,,,,,,,,,,,,,,,,,,,,,,,,,,,,,,,,,,,,,,,,,,,,,,,,,,,,,,,,,,,,,,,,,,,
,,DEVIL,3.490635,1,,,,,,stimuli/images/PICTURE_658.png,DEVIL,5ed670d71bd6110836108b87,14/07/1991,2020-08-13_05h03.11.303,proactive2,2020.1.2,Win32,60,5f341be081b9052c55068110,5f352ae15f1bf12f1449be3e,4,,,,,,crow,0,3,3,3,1,,,,,,,,,,,,,,,,,,,,,,,,,,,,,,,,,,,,,,,,,,,,,,,,,,,,,,,,,,,,,,,,,,,,,,,,,,,,,,,,,,,,,,,,,,,,,,,,,,,,,,,,,,
,,LOSS,3.805935,1,,,,,,stimuli/images/PICTURE_378.png,LOSS,5ed670d71bd6110836108b87,14/07/1991,2020-08-13_05h03.11.303,proactive2,2020.1.2,Win32,60,5f341be081b9052c55068110,5f352ae15f1bf12f1449be3e,4,,,,,,lobster,0,4,4,2,1,,,,,,,,,,,,,,,,,,,,,,,,,,,,,,,,,,,,,,,,,,,,,,,,,,,,,,,,,,,,,,,,,,,,,,,,,,,,,,,,,,,,,,,,,,,,,,,,,,,,,,,,,,
,,,,,,,,,,stimuli/images/PICTURE_453.png,PLENTY,5ed670d71bd6110836108b87,14/07/1991,2020-08-13_05h03.11.303,proactive2,2020.1.2,Win32,60,5f341be081b9052c55068110,5f352ae15f1bf12f1449be3e,4,,,,,,scissors,,,,,,0,0,0,56,1,6,0,,,,,,,,,,,,,,,,,,,,,,,,,,,,,,,,,,,,,,,,,,,,,,,,,,,,,,,,,,,,,,,,,,,,,,,,,,,,,,,,,,,,,,,,,,,,,,,,,,,
,,,,,,,,,,stimuli/images/PICTURE_692.png,MONTH,5ed670d71bd6110836108b87,14/07/1991,2020-08-13_05h03.11.303,proactive2,2020.1.2,Win32,60,5f341be081b9052c55068110,5f352ae15f1bf12f1449be3e,4,,,,,,cherry,,,,,,0,1,1,16,1,2,0,,,,,,,,,,,,,,,,,,,,,,,,,,,,,,,,,,,,,,,,,,,,,,,,,,,,,,,,,,,,,,,,,,,,,,,,,,,,,,,,,,,,,,,,,,,,,,,,,,,
,,,,,,,,,,stimuli/images/PICTURE_177.png,CARS,5ed670d71bd6110836108b87,14/07/1991,2020-08-13_05h03.11.303,proactive2,2020.1.2,Win32,60,5f341be081b9052c55068110,5f352ae15f1bf12f1449be3e,4,,,,,,mushroom,,,,,,0,2,2,35,1,4,0,,,,,,,,,,,,,,,,,,,,,,,,,,,,,,,,,,,,,,,,,,,,,,,,,,,,,,,,,,,,,,,,,,,,,,,,,,,,,,,,,,,,,,,,,,,,,,,,,,,
,,,,,,,,,,stimuli/images/PICTURE_708.png,CLIENT,5ed670d71bd6110836108b87,14/07/1991,2020-08-13_05h03.11.303,proactive2,2020.1.2,Win32,60,5f341be081b9052c55068110,5f352ae15f1bf12f1449be3e,4,,,,,,monkey,,,,,,0,3,3,5,1,1,0,,,,,,,,,,,,,,,,,,,,,,,,,,,,,,,,,,,,,,,,,,,,,,,,,,,,,,,,,,,,,,,,,,,,,,,,,,,,,,,,,,,,,,,,,,,,,,,,,,,
,,,,,,,,,,stimuli/images/PICTURE_208.png,LOTS,5ed670d71bd6110836108b87,14/07/1991,2020-08-13_05h03.11.303,proactive2,2020.1.2,Win32,60,5f341be081b9052c55068110,5f352ae15f1bf12f1449be3e,4,,,,,,microphone,,,,,,0,4,4,10,1,2,0,,,,,,,,,,,,,,,,,,,,,,,,,,,,,,,,,,,,,,,,,,,,,,,,,,,,,,,,,,,,,,,,,,,,,,,,,,,,,,,,,,,,,,,,,,,,,,,,,,,
,,,,,,,,,,stimuli/images/PICTURE_255.png,AREA,5ed670d71bd6110836108b87,14/07/1991,2020-08-13_05h03.11.303,proactive2,2020.1.2,Win32,60,5f341be081b9052c55068110,5f352ae15f1bf12f1449be3e,4,,,,,,shovel,,,,,,0,5,5,22,1,3,0,,,,,,,,,,,,,,,,,,,,,,,,,,,,,,,,,,,,,,,,,,,,,,,,,,,,,,,,,,,,,,,,,,,,,,,,,,,,,,,,,,,,,,,,,,,,,,,,,,,
,,,,,,,,,,stimuli/images/PICTURE_509.png,PHOTO,5ed670d71bd6110836108b87,14/07/1991,2020-08-13_05h03.11.303,proactive2,2020.1.2,Win32,60,5f341be081b9052c55068110,5f352ae15f1bf12f1449be3e,4,,,,,,telephone,,,,,,0,6,6,21,1,3,0,,,,,,,,,,,,,,,,,,,,,,,,,,,,,,,,,,,,,,,,,,,,,,,,,,,,,,,,,,,,,,,,,,,,,,,,,,,,,,,,,,,,,,,,,,,,,,,,,,,
,,,,,,,,,,stimuli/images/PICTURE_469.png,LETTER,5ed670d71bd6110836108b87,14/07/1991,2020-08-13_05h03.11.303,proactive2,2020.1.2,Win32,60,5f341be081b9052c55068110,5f352ae15f1bf12f1449be3e,4,,,,,,stool,,,,,,0,7,7,42,1,5,0,,,,,,,,,,,,,,,,,,,,,,,,,,,,,,,,,,,,,,,,,,,,,,,,,,,,,,,,,,,,,,,,,,,,,,,,,,,,,,,,,,,,,,,,,,,,,,,,,,,
,,,,,,,,,,stimuli/images/PICTURE_654.png,VALLEY,5ed670d71bd6110836108b87,14/07/1991,2020-08-13_05h03.11.303,proactive2,2020.1.2,Win32,60,5f341be081b9052c55068110,5f352ae15f1bf12f1449be3e,4,,,,,,pencil,,,,,,0,8,8,1,1,1,0,,,,,,,,,,,,,,,,,,,,,,,,,,,,,,,,,,,,,,,,,,,,,,,,,,,,,,,,,,,,,,,,,,,,,,,,,,,,,,,,,,,,,,,,,,,,,,,,,,,
,,,,,,,,,,stimuli/images/PICTURE_667.png,PLENTY,5ed670d71bd6110836108b87,14/07/1991,2020-08-13_05h03.11.303,proactive2,2020.1.2,Win32,60,5f341be081b9052c55068110,5f352ae15f1bf12f1449be3e,4,,,,,,daisy,,,,,,0,9,9,41,1,5,0,,,,,,,,,,,,,,,,,,,,,,,,,,,,,,,,,,,,,,,,,,,,,,,,,,,,,,,,,,,,,,,,,,,,,,,,,,,,,,,,,,,,,,,,,,,,,,,,,,,
,,,,,,,,,,stimuli/images/PICTURE_491.png,ROOF,5ed670d71bd6110836108b87,14/07/1991,2020-08-13_05h03.11.303,proactive2,2020.1.2,Win32,60,5f341be081b9052c55068110,5f352ae15f1bf12f1449be3e,4,,,,,,rug,,,,,,0,10,10,24,1,3,0,,,,,,,,,,,,,,,,,,,,,,,,,,,,,,,,,,,,,,,,,,,,,,,,,,,,,,,,,,,,,,,,,,,,,,,,,,,,,,,,,,,,,,,,,,,,,,,,,,,
,,,,,,,,,,stimuli/images/PICTURE_380.png,PHOTO,5ed670d71bd6110836108b87,14/07/1991,2020-08-13_05h03.11.303,proactive2,2020.1.2,Win32,60,5f341be081b9052c55068110,5f352ae15f1bf12f1449be3e,4,,,,,,gorilla,,,,,,0,11,11,52,1,6,0,,,,,,,,,,,,,,,,,,,,,,,,,,,,,,,,,,,,,,,,,,,,,,,,,,,,,,,,,,,,,,,,,,,,,,,,,,,,,,,,,,,,,,,,,,,,,,,,,,,
,,,,,,,,,,stimuli/images/PICTURE_356.png,DANGER,5ed670d71bd6110836108b87,14/07/1991,2020-08-13_05h03.11.303,proactive2,2020.1.2,Win32,60,5f341be081b9052c55068110,5f352ae15f1bf12f1449be3e,4,,,,,,pawn,,,,,,0,12,12,55,1,6,0,,,,,,,,,,,,,,,,,,,,,,,,,,,,,,,,,,,,,,,,,,,,,,,,,,,,,,,,,,,,,,,,,,,,,,,,,,,,,,,,,,,,,,,,,,,,,,,,,,,
,,,,,,,,,,stimuli/images/PICTURE_233.png,IDEAS,5ed670d71bd6110836108b87,14/07/1991,2020-08-13_05h03.11.303,proactive2,2020.1.2,Win32,60,5f341be081b9052c55068110,5f352ae15f1bf12f1449be3e,4,,,,,,salt,,,,,,0,13,13,28,1,3,0,,,,,,,,,,,,,,,,,,,,,,,,,,,,,,,,,,,,,,,,,,,,,,,,,,,,,,,,,,,,,,,,,,,,,,,,,,,,,,,,,,,,,,,,,,,,,,,,,,,
,,,,,,,,,,stimuli/images/PICTURE_708.png,YARD,5ed670d71bd6110836108b87,14/07/1991,2020-08-13_05h03.11.303,proactive2,2020.1.2,Win32,60,5f341be081b9052c55068110,5f352ae15f1bf12f1449be3e,4,,,,,,monkey,,,,,,0,14,14,29,1,3,0,,,,,,,,,,,,,,,,,,,,,,,,,,,,,,,,,,,,,,,,,,,,,,,,,,,,,,,,,,,,,,,,,,,,,,,,,,,,,,,,,,,,,,,,,,,,,,,,,,,
,,,,,,,,,,stimuli/images/PICTURE_32.png,JUNGLE,5ed670d71bd6110836108b87,14/07/1991,2020-08-13_05h03.11.303,proactive2,2020.1.2,Win32,60,5f341be081b9052c55068110,5f352ae15f1bf12f1449be3e,4,,,,,,crown,,,,,,0,15,15,45,1,5,0,,,,,,,,,,,,,,,,,,,,,,,,,,,,,,,,,,,,,,,,,,,,,,,,,,,,,,,,,,,,,,,,,,,,,,,,,,,,,,,,,,,,,,,,,,,,,,,,,,,
,,,,,,,,,,stimuli/images/PICTURE_488.png,STYLE,5ed670d71bd6110836108b87,14/07/1991,2020-08-13_05h03.11.303,proactive2,2020.1.2,Win32,60,5f341be081b9052c55068110,5f352ae15f1bf12f1449be3e,4,,,,,,sun,,,,,,0,16,16,33,1,4,0,,,,,,,,,,,,,,,,,,,,,,,,,,,,,,,,,,,,,,,,,,,,,,,,,,,,,,,,,,,,,,,,,,,,,,,,,,,,,,,,,,,,,,,,,,,,,,,,,,,
,,,,,,,,,,stimuli/images/PICTURE_688.png,CASINO,5ed670d71bd6110836108b87,14/07/1991,2020-08-13_05h03.11.303,proactive2,2020.1.2,Win32,60,5f341be081b9052c55068110,5f352ae15f1bf12f1449be3e,4,,,,,,runner,,,,,,0,17,17,2,1,1,0,,,,,,,,,,,,,,,,,,,,,,,,,,,,,,,,,,,,,,,,,,,,,,,,,,,,,,,,,,,,,,,,,,,,,,,,,,,,,,,,,,,,,,,,,,,,,,,,,,,
,,,,,,,,,,stimuli/images/PICTURE_123.png,ADVICE,5ed670d71bd6110836108b87,14/07/1991,2020-08-13_05h03.11.303,proactive2,2020.1.2,Win32,60,5f341be081b9052c55068110,5f352ae15f1bf12f1449be3e,4,,,,,,dart,,,,,,0,18,18,40,1,5,0,,,,,,,,,,,,,,,,,,,,,,,,,,,,,,,,,,,,,,,,,,,,,,,,,,,,,,,,,,,,,,,,,,,,,,,,,,,,,,,,,,,,,,,,,,,,,,,,,,,
,,,,,,,,,,stimuli/images/PICTURE_215.png,PLENTY,5ed670d71bd6110836108b87,14/07/1991,2020-08-13_05h03.11.303,proactive2,2020.1.2,Win32,60,5f341be081b9052c55068110,5f352ae15f1bf12f1449be3e,4,,,,,,boot,,,,,,0,19,19,37,1,4,0,,,,,,,,,,,,,,,,,,,,,,,,,,,,,,,,,,,,,,,,,,,,,,,,,,,,,,,,,,,,,,,,,,,,,,,,,,,,,,,,,,,,,,,,,,,,,,,,,,,
,,,,,,,,,,stimuli/images/PICTURE_314.png,GODS,5ed670d71bd6110836108b87,14/07/1991,2020-08-13_05h03.11.303,proactive2,2020.1.2,Win32,60,5f341be081b9052c55068110,5f352ae15f1bf12f1449be3e,4,,,,,,perfume,,,,,,0,20,20,11,1,2,0,,,,,,,,,,,,,,,,,,,,,,,,,,,,,,,,,,,,,,,,,,,,,,,,,,,,,,,,,,,,,,,,,,,,,,,,,,,,,,,,,,,,,,,,,,,,,,,,,,,
,,,,,,,,,,stimuli/images/PICTURE_504.png,BODY,5ed670d71bd6110836108b87,14/07/1991,2020-08-13_05h03.11.303,proactive2,2020.1.2,Win32,60,5f341be081b9052c55068110,5f352ae15f1bf12f1449be3e,4,,,,,,wheel,,,,,,0,21,21,8,1,1,0,,,,,,,,,,,,,,,,,,,,,,,,,,,,,,,,,,,,,,,,,,,,,,,,,,,,,,,,,,,,,,,,,,,,,,,,,,,,,,,,,,,,,,,,,,,,,,,,,,,
,,,,,,,,,,stimuli/images/PICTURE_68.png,MILE,5ed670d71bd6110836108b87,14/07/1991,2020-08-13_05h03.11.303,proactive2,2020.1.2,Win32,60,5f341be081b9052c55068110,5f352ae15f1bf12f1449be3e,4,,,,,,candle,,,,,,0,22,22,44,1,5,0,,,,,,,,,,,,,,,,,,,,,,,,,,,,,,,,,,,,,,,,,,,,,,,,,,,,,,,,,,,,,,,,,,,,,,,,,,,,,,,,,,,,,,,,,,,,,,,,,,,
,,,,,,,,,,stimuli/images/PICTURE_708.png,PENNY,5ed670d71bd6110836108b87,14/07/1991,2020-08-13_05h03.11.303,proactive2,2020.1.2,Win32,60,5f341be081b9052c55068110,5f352ae15f1bf12f1449be3e,4,,,,,,monkey,,,,,,0,23,23,31,1,4,0,,,,,,,,,,,,,,,,,,,,,,,,,,,,,,,,,,,,,,,,,,,,,,,,,,,,,,,,,,,,,,,,,,,,,,,,,,,,,,,,,,,,,,,,,,,,,,,,,,,
,,,,,,,,,,stimuli/images/PICTURE_467.png,DEMON,5ed670d71bd6110836108b87,14/07/1991,2020-08-13_05h03.11.303,proactive2,2020.1.2,Win32,60,5f341be081b9052c55068110,5f352ae15f1bf12f1449be3e,4,,,,,,peg,,,,,,0,24,24,23,1,3,0,,,,,,,,,,,,,,,,,,,,,,,,,,,,,,,,,,,,,,,,,,,,,,,,,,,,,,,,,,,,,,,,,,,,,,,,,,,,,,,,,,,,,,,,,,,,,,,,,,,
,,,,,,,,,,stimuli/images/PICTURE_160.png,FEET,5ed670d71bd6110836108b87,14/07/1991,2020-08-13_05h03.11.303,proactive2,2020.1.2,Win32,60,5f341be081b9052c55068110,5f352ae15f1bf12f1449be3e,4,,,,,,wheelbarrow,,,,,,0,25,25,58,1,6,0,,,,,,,,,,,,,,,,,,,,,,,,,,,,,,,,,,,,,,,,,,,,,,,,,,,,,,,,,,,,,,,,,,,,,,,,,,,,,,,,,,,,,,,,,,,,,,,,,,,
,,,,,,,,,,stimuli/images/PICTURE_151.png,GIRL,5ed670d71bd6110836108b87,14/07/1991,2020-08-13_05h03.11.303,proactive2,2020.1.2,Win32,60,5f341be081b9052c55068110,5f352ae15f1bf12f1449be3e,4,,,,,,tray,,,,,,0,26,26,19,1,2,0,,,,,,,,,,,,,,,,,,,,,,,,,,,,,,,,,,,,,,,,,,,,,,,,,,,,,,,,,,,,,,,,,,,,,,,,,,,,,,,,,,,,,,,,,,,,,,,,,,,
,,,,,,,,,,stimuli/images/PICTURE_449.png,THING,5ed670d71bd6110836108b87,14/07/1991,2020-08-13_05h03.11.303,proactive2,2020.1.2,Win32,60,5f341be081b9052c55068110,5f352ae15f1bf12f1449be3e,4,,,,,,bench,,,,,,0,27,27,59,1,6,0,,,,,,,,,,,,,,,,,,,,,,,,,,,,,,,,,,,,,,,,,,,,,,,,,,,,,,,,,,,,,,,,,,,,,,,,,,,,,,,,,,,,,,,,,,,,,,,,,,,
,,,,,,,,,,stimuli/images/PICTURE_314.png,SAKE,5ed670d71bd6110836108b87,14/07/1991,2020-08-13_05h03.11.303,proactive2,2020.1.2,Win32,60,5f341be081b9052c55068110,5f352ae15f1bf12f1449be3e,4,,,,,,perfume,,,,,,0,28,28,7,1,1,0,,,,,,,,,,,,,,,,,,,,,,,,,,,,,,,,,,,,,,,,,,,,,,,,,,,,,,,,,,,,,,,,,,,,,,,,,,,,,,,,,,,,,,,,,,,,,,,,,,,
,,,,,,,,,,stimuli/images/PICTURE_85.png,THING,5ed670d71bd6110836108b87,14/07/1991,2020-08-13_05h03.11.303,proactive2,2020.1.2,Win32,60,5f341be081b9052c55068110,5f352ae15f1bf12f1449be3e,4,,,,,,diamond,,,,,,0,29,29,15,1,2,0,,,,,,,,,,,,,,,,,,,,,,,,,,,,,,,,,,,,,,,,,,,,,,,,,,,,,,,,,,,,,,,,,,,,,,,,,,,,,,,,,,,,,,,,,,,,,,,,,,,
,,,,,,,,,,stimuli/images/PICTURE_677.png,MILE,5ed670d71bd6110836108b87,14/07/1991,2020-08-13_05h03.11.303,proactive2,2020.1.2,Win32,60,5f341be081b9052c55068110,5f352ae15f1bf12f1449be3e,4,,,,,,map,,,,,,0,30,30,30,1,4,0,,,,,,,,,,,,,,,,,,,,,,,,,,,,,,,,,,,,,,,,,,,,,,,,,,,,,,,,,,,,,,,,,,,,,,,,,,,,,,,,,,,,,,,,,,,,,,,,,,,
,,,,,,,,,,stimuli/images/PICTURE_469.png,ARTIST,5ed670d71bd6110836108b87,14/07/1991,2020-08-13_05h03.11.303,proactive2,2020.1.2,Win32,60,5f341be081b9052c55068110,5f352ae15f1bf12f1449be3e,4,,,,,,stool,,,,,,0,31,31,6,1,1,0,,,,,,,,,,,,,,,,,,,,,,,,,,,,,,,,,,,,,,,,,,,,,,,,,,,,,,,,,,,,,,,,,,,,,,,,,,,,,,,,,,,,,,,,,,,,,,,,,,,
,,,,,,,,,,stimuli/images/PICTURE_688.png,WOMEN,5ed670d71bd6110836108b87,14/07/1991,2020-08-13_05h03.11.303,proactive2,2020.1.2,Win32,60,5f341be081b9052c55068110,5f352ae15f1bf12f1449be3e,4,,,,,,runner,,,,,,0,32,32,14,1,2,0,,,,,,,,,,,,,,,,,,,,,,,,,,,,,,,,,,,,,,,,,,,,,,,,,,,,,,,,,,,,,,,,,,,,,,,,,,,,,,,,,,,,,,,,,,,,,,,,,,,
,,,,,,,,,,stimuli/images/PICTURE_491.png,WRITER,5ed670d71bd6110836108b87,14/07/1991,2020-08-13_05h03.11.303,proactive2,2020.1.2,Win32,60,5f341be081b9052c55068110,5f352ae15f1bf12f1449be3e,4,,,,,,rug,,,,,,0,33,33,57,1,6,0,,,,,,,,,,,,,,,,,,,,,,,,,,,,,,,,,,,,,,,,,,,,,,,,,,,,,,,,,,,,,,,,,,,,,,,,,,,,,,,,,,,,,,,,,,,,,,,,,,,
,,,,,,,,,,stimuli/images/PICTURE_308.png,KIND,5ed670d71bd6110836108b87,14/07/1991,2020-08-13_05h03.11.303,proactive2,2020.1.2,Win32,60,5f341be081b9052c55068110,5f352ae15f1bf12f1449be3e,4,,,,,,dice,,,,,,0,34,34,54,1,6,0,,,,,,,,,,,,,,,,,,,,,,,,,,,,,,,,,,,,,,,,,,,,,,,,,,,,,,,,,,,,,,,,,,,,,,,,,,,,,,,,,,,,,,,,,,,,,,,,,,,
,,,,,,,,,,stimuli/images/PICTURE_380.png,DEATH,5ed670d71bd6110836108b87,14/07/1991,2020-08-13_05h03.11.303,proactive2,2020.1.2,Win32,60,5f341be081b9052c55068110,5f352ae15f1bf12f1449be3e,4,,,,,,gorilla,,,,,,0,35,35,49,1,5,0,,,,,,,,,,,,,,,,,,,,,,,,,,,,,,,,,,,,,,,,,,,,,,,,,,,,,,,,,,,,,,,,,,,,,,,,,,,,,,,,,,,,,,,,,,,,,,,,,,,
,,,,,,,,,,stimuli/images/PICTURE_160.png,LEADER,5ed670d71bd6110836108b87,14/07/1991,2020-08-13_05h03.11.303,proactive2,2020.1.2,Win32,60,5f341be081b9052c55068110,5f352ae15f1bf12f1449be3e,4,,,,,,wheelbarrow,,,,,,0,36,36,3,1,1,0,,,,,,,,,,,,,,,,,,,,,,,,,,,,,,,,,,,,,,,,,,,,,,,,,,,,,,,,,,,,,,,,,,,,,,,,,,,,,,,,,,,,,,,,,,,,,,,,,,,
,,,,,,,,,,stimuli/images/PICTURE_285.png,ADVICE,5ed670d71bd6110836108b87,14/07/1991,2020-08-13_05h03.11.303,proactive2,2020.1.2,Win32,60,5f341be081b9052c55068110,5f352ae15f1bf12f1449be3e,4,,,,,,carrot,,,,,,0,37,37,12,1,2,0,,,,,,,,,,,,,,,,,,,,,,,,,,,,,,,,,,,,,,,,,,,,,,,,,,,,,,,,,,,,,,,,,,,,,,,,,,,,,,,,,,,,,,,,,,,,,,,,,,,
,,,,,,,,,,stimuli/images/PICTURE_208.png,THING,5ed670d71bd6110836108b87,14/07/1991,2020-08-13_05h03.11.303,proactive2,2020.1.2,Win32,60,5f341be081b9052c55068110,5f352ae15f1bf12f1449be3e,4,,,,,,microphone,,,,,,0,38,38,47,1,5,0,,,,,,,,,,,,,,,,,,,,,,,,,,,,,,,,,,,,,,,,,,,,,,,,,,,,,,,,,,,,,,,,,,,,,,,,,,,,,,,,,,,,,,,,,,,,,,,,,,,
,,,,,,,,,,stimuli/images/PICTURE_667.png,BATH,5ed670d71bd6110836108b87,14/07/1991,2020-08-13_05h03.11.303,proactive2,2020.1.2,Win32,60,5f341be081b9052c55068110,5f352ae15f1bf12f1449be3e,4,,,,,,daisy,,,,,,0,39,39,4,1,1,0,,,,,,,,,,,,,,,,,,,,,,,,,,,,,,,,,,,,,,,,,,,,,,,,,,,,,,,,,,,,,,,,,,,,,,,,,,,,,,,,,,,,,,,,,,,,,,,,,,,
,,,,,,,,,,stimuli/images/PICTURE_308.png,ESTATE,5ed670d71bd6110836108b87,14/07/1991,2020-08-13_05h03.11.303,proactive2,2020.1.2,Win32,60,5f341be081b9052c55068110,5f352ae15f1bf12f1449be3e,4,,,,,,dice,,,,,,0,40,40,46,1,5,0,,,,,,,,,,,,,,,,,,,,,,,,,,,,,,,,,,,,,,,,,,,,,,,,,,,,,,,,,,,,,,,,,,,,,,,,,,,,,,,,,,,,,,,,,,,,,,,,,,,
,,,,,,,,,,stimuli/images/PICTURE_348.png,SPEECH,5ed670d71bd6110836108b87,14/07/1991,2020-08-13_05h03.11.303,proactive2,2020.1.2,Win32,60,5f341be081b9052c55068110,5f352ae15f1bf12f1449be3e,4,,,,,,pepper,,,,,,0,41,41,20,1,3,0,,,,,,,,,,,,,,,,,,,,,,,,,,,,,,,,,,,,,,,,,,,,,,,,,,,,,,,,,,,,,,,,,,,,,,,,,,,,,,,,,,,,,,,,,,,,,,,,,,,
,,,,,,,,,,stimuli/images/PICTURE_95.png,STYLE,5ed670d71bd6110836108b87,14/07/1991,2020-08-13_05h03.11.303,proactive2,2020.1.2,Win32,60,5f341be081b9052c55068110,5f352ae15f1bf12f1449be3e,4,,,,,,suitcase,,,,,,0,42,42,25,1,3,0,,,,,,,,,,,,,,,,,,,,,,,,,,,,,,,,,,,,,,,,,,,,,,,,,,,,,,,,,,,,,,,,,,,,,,,,,,,,,,,,,,,,,,,,,,,,,,,,,,,
,,,,,,,,,,stimuli/images/PICTURE_327.png,BEAUTY,5ed670d71bd6110836108b87,14/07/1991,2020-08-13_05h03.11.303,proactive2,2020.1.2,Win32,60,5f341be081b9052c55068110,5f352ae15f1bf12f1449be3e,4,,,,,,helmet,,,,,,0,43,43,48,1,5,0,,,,,,,,,,,,,,,,,,,,,,,,,,,,,,,,,,,,,,,,,,,,,,,,,,,,,,,,,,,,,,,,,,,,,,,,,,,,,,,,,,,,,,,,,,,,,,,,,,,
,,,,,,,,,,stimuli/images/PICTURE_487.png,FLIGHT,5ed670d71bd6110836108b87,14/07/1991,2020-08-13_05h03.11.303,proactive2,2020.1.2,Win32,60,5f341be081b9052c55068110,5f352ae15f1bf12f1449be3e,4,,,,,,basket,,,,,,0,44,44,9,1,1,0,,,,,,,,,,,,,,,,,,,,,,,,,,,,,,,,,,,,,,,,,,,,,,,,,,,,,,,,,,,,,,,,,,,,,,,,,,,,,,,,,,,,,,,,,,,,,,,,,,,
,,,,,,,,,,stimuli/images/PICTURE_123.png,ADVICE,5ed670d71bd6110836108b87,14/07/1991,2020-08-13_05h03.11.303,proactive2,2020.1.2,Win32,60,5f341be081b9052c55068110,5f352ae15f1bf12f1449be3e,4,,,,,,dart,,,,,,0,45,45,50,1,6,0,,,,,,,,,,,,,,,,,,,,,,,,,,,,,,,,,,,,,,,,,,,,,,,,,,,,,,,,,,,,,,,,,,,,,,,,,,,,,,,,,,,,,,,,,,,,,,,,,,,
,,,,,,,,,,stimuli/images/PICTURE_311.png,BEAUTY,5ed670d71bd6110836108b87,14/07/1991,2020-08-13_05h03.11.303,proactive2,2020.1.2,Win32,60,5f341be081b9052c55068110,5f352ae15f1bf12f1449be3e,4,,,,,,razor,,,,,,0,46,46,13,1,2,0,,,,,,,,,,,,,,,,,,,,,,,,,,,,,,,,,,,,,,,,,,,,,,,,,,,,,,,,,,,,,,,,,,,,,,,,,,,,,,,,,,,,,,,,,,,,,,,,,,,
,,,,,,,,,,stimuli/images/PICTURE_302.png,FAMILY,5ed670d71bd6110836108b87,14/07/1991,2020-08-13_05h03.11.303,proactive2,2020.1.2,Win32,60,5f341be081b9052c55068110,5f352ae15f1bf12f1449be3e,4,,,,,,taxi,,,,,,0,47,47,18,1,2,0,,,,,,,,,,,,,,,,,,,,,,,,,,,,,,,,,,,,,,,,,,,,,,,,,,,,,,,,,,,,,,,,,,,,,,,,,,,,,,,,,,,,,,,,,,,,,,,,,,,
,,,,,,,,,,stimuli/images/PICTURE_675.png,WEAPON,5ed670d71bd6110836108b87,14/07/1991,2020-08-13_05h03.11.303,proactive2,2020.1.2,Win32,60,5f341be081b9052c55068110,5f352ae15f1bf12f1449be3e,4,,,,,,windmill,,,,,,0,48,48,32,1,4,0,,,,,,,,,,,,,,,,,,,,,,,,,,,,,,,,,,,,,,,,,,,,,,,,,,,,,,,,,,,,,,,,,,,,,,,,,,,,,,,,,,,,,,,,,,,,,,,,,,,
,,,,,,,,,,stimuli/images/PICTURE_339.png,PLENTY,5ed670d71bd6110836108b87,14/07/1991,2020-08-13_05h03.11.303,proactive2,2020.1.2,Win32,60,5f341be081b9052c55068110,5f352ae15f1bf12f1449be3e,4,,,,,,backpack,,,,,,0,49,49,0,1,1,0,,,,,,,,,,,,,,,,,,,,,,,,,,,,,,,,,,,,,,,,,,,,,,,,,,,,,,,,,,,,,,,,,,,,,,,,,,,,,,,,,,,,,,,,,,,,,,,,,,,
,,,,,,,,,,stimuli/images/PICTURE_203.png,ARTIST,5ed670d71bd6110836108b87,14/07/1991,2020-08-13_05h03.11.303,proactive2,2020.1.2,Win32,60,5f341be081b9052c55068110,5f352ae15f1bf12f1449be3e,4,,,,,,cap,,,,,,0,50,50,26,1,3,0,,,,,,,,,,,,,,,,,,,,,,,,,,,,,,,,,,,,,,,,,,,,,,,,,,,,,,,,,,,,,,,,,,,,,,,,,,,,,,,,,,,,,,,,,,,,,,,,,,,
,,,,,,,,,,stimuli/images/PICTURE_147.png,MOMENT,5ed670d71bd6110836108b87,14/07/1991,2020-08-13_05h03.11.303,proactive2,2020.1.2,Win32,60,5f341be081b9052c55068110,5f352ae15f1bf12f1449be3e,4,,,,,,hanger,,,,,,0,51,51,51,1,6,0,,,,,,,,,,,,,,,,,,,,,,,,,,,,,,,,,,,,,,,,,,,,,,,,,,,,,,,,,,,,,,,,,,,,,,,,,,,,,,,,,,,,,,,,,,,,,,,,,,,
,,,,,,,,,,stimuli/images/PICTURE_248.png,DOZEN,5ed670d71bd6110836108b87,14/07/1991,2020-08-13_05h03.11.303,proactive2,2020.1.2,Win32,60,5f341be081b9052c55068110,5f352ae15f1bf12f1449be3e,4,,,,,,cart,,,,,,0,52,52,39,1,4,0,,,,,,,,,,,,,,,,,,,,,,,,,,,,,,,,,,,,,,,,,,,,,,,,,,,,,,,,,,,,,,,,,,,,,,,,,,,,,,,,,,,,,,,,,,,,,,,,,,,
,,,,,,,,,,stimuli/images/PICTURE_744.png,SAKE,5ed670d71bd6110836108b87,14/07/1991,2020-08-13_05h03.11.303,proactive2,2020.1.2,Win32,60,5f341be081b9052c55068110,5f352ae15f1bf12f1449be3e,4,,,,,,ring,,,,,,0,53,53,17,1,2,0,,,,,,,,,,,,,,,,,,,,,,,,,,,,,,,,,,,,,,,,,,,,,,,,,,,,,,,,,,,,,,,,,,,,,,,,,,,,,,,,,,,,,,,,,,,,,,,,,,,
,,,,,,,,,,stimuli/images/PICTURE_208.png,MONTH,5ed670d71bd6110836108b87,14/07/1991,2020-08-13_05h03.11.303,proactive2,2020.1.2,Win32,60,5f341be081b9052c55068110,5f352ae15f1bf12f1449be3e,4,,,,,,microphone,,,,,,0,54,54,53,1,6,0,,,,,,,,,,,,,,,,,,,,,,,,,,,,,,,,,,,,,,,,,,,,,,,,,,,,,,,,,,,,,,,,,,,,,,,,,,,,,,,,,,,,,,,,,,,,,,,,,,,
,,,,,,,,,,stimuli/images/PICTURE_470.png,CASINO,5ed670d71bd6110836108b87,14/07/1991,2020-08-13_05h03.11.303,proactive2,2020.1.2,Win32,60,5f341be081b9052c55068110,5f352ae15f1bf12f1449be3e,4,,,,,,motorbike,,,,,,0,55,55,36,1,4,0,,,,,,,,,,,,,,,,,,,,,,,,,,,,,,,,,,,,,,,,,,,,,,,,,,,,,,,,,,,,,,,,,,,,,,,,,,,,,,,,,,,,,,,,,,,,,,,,,,,
,,,,,,,,,,stimuli/images/PICTURE_744.png,SYSTEM,5ed670d71bd6110836108b87,14/07/1991,2020-08-13_05h03.11.303,proactive2,2020.1.2,Win32,60,5f341be081b9052c55068110,5f352ae15f1bf12f1449be3e,4,,,,,,ring,,,,,,0,56,56,43,1,5,0,,,,,,,,,,,,,,,,,,,,,,,,,,,,,,,,,,,,,,,,,,,,,,,,,,,,,,,,,,,,,,,,,,,,,,,,,,,,,,,,,,,,,,,,,,,,,,,,,,,
,,,,,,,,,,stimuli/images/PICTURE_311.png,FRIEND,5ed670d71bd6110836108b87,14/07/1991,2020-08-13_05h03.11.303,proactive2,2020.1.2,Win32,60,5f341be081b9052c55068110,5f352ae15f1bf12f1449be3e,4,,,,,,razor,,,,,,0,57,57,34,1,4,0,,,,,,,,,,,,,,,,,,,,,,,,,,,,,,,,,,,,,,,,,,,,,,,,,,,,,,,,,,,,,,,,,,,,,,,,,,,,,,,,,,,,,,,,,,,,,,,,,,,
,,,,,,,,,,stimuli/images/PICTURE_453.png,DUDE,5ed670d71bd6110836108b87,14/07/1991,2020-08-13_05h03.11.303,proactive2,2020.1.2,Win32,60,5f341be081b9052c55068110,5f352ae15f1bf12f1449be3e,4,,,,,,scissors,,,,,,0,58,58,27,1,3,0,,,,,,,,,,,,,,,,,,,,,,,,,,,,,,,,,,,,,,,,,,,,,,,,,,,,,,,,,,,,,,,,,,,,,,,,,,,,,,,,,,,,,,,,,,,,,,,,,,,
,,?,0.00227,0,,,,,,stimuli/images/PICTURE_85.png,THING,5ed670d71bd6110836108b87,14/07/1991,2020-08-13_05h03.11.303,proactive2,2020.1.2,Win32,60,5f341be081b9052c55068110,5f352ae15f1bf12f1449be3e,4,,,,,,diamond,,,,,,,,,,,2,0,0,0,0,15,1,,,,,,,,,,,,,,,,,,,,,,,,,,,,,,,,,,,,,,,,,,,,,,,,,,,,,,,,,,,,,,,,,,,,,,,,,,,,,,,,,,,,,,,,,,,,,,
,,?,0.001035,0,,,,,,stimuli/images/PICTURE_233.png,IDEAS,5ed670d71bd6110836108b87,14/07/1991,2020-08-13_05h03.11.303,proactive2,2020.1.2,Win32,60,5f341be081b9052c55068110,5f352ae15f1bf12f1449be3e,4,,,,,,salt,,,,,,,,,,,3,0,0,1,1,28,1,,,,,,,,,,,,,,,,,,,,,,,,,,,,,,,,,,,,,,,,,,,,,,,,,,,,,,,,,,,,,,,,,,,,,,,,,,,,,,,,,,,,,,,,,,,,,,
,,?,0.001175,0,,,,,,stimuli/images/PICTURE_348.png,SPEECH,5ed670d71bd6110836108b87,14/07/1991,2020-08-13_05h03.11.303,proactive2,2020.1.2,Win32,60,5f341be081b9052c55068110,5f352ae15f1bf12f1449be3e,4,,,,,,pepper,,,,,,,,,,,3,0,0,2,2,20,1,,,,,,,,,,,,,,,,,,,,,,,,,,,,,,,,,,,,,,,,,,,,,,,,,,,,,,,,,,,,,,,,,,,,,,,,,,,,,,,,,,,,,,,,,,,,,,
,,WEAPON,6.6044,1,,,,,,stimuli/images/PICTURE_675.png,WEAPON,5ed670d71bd6110836108b87,14/07/1991,2020-08-13_05h03.11.303,proactive2,2020.1.2,Win32,60,5f341be081b9052c55068110,5f352ae15f1bf12f1449be3e,4,,,,,,windmill,,,,,,,,,,,4,0,0,3,3,32,1,,,,,,,,,,,,,,,,,,,,,,,,,,,,,,,,,,,,,,,,,,,,,,,,,,,,,,,,,,,,,,,,,,,,,,,,,,,,,,,,,,,,,,,,,,,,,,
,,?,0.000995,0,,,,,,stimuli/images/PICTURE_203.png,ARTIST,5ed670d71bd6110836108b87,14/07/1991,2020-08-13_05h03.11.303,proactive2,2020.1.2,Win32,60,5f341be081b9052c55068110,5f352ae15f1bf12f1449be3e,4,,,,,,cap,,,,,,,,,,,3,0,0,4,4,26,1,,,,,,,,,,,,,,,,,,,,,,,,,,,,,,,,,,,,,,,,,,,,,,,,,,,,,,,,,,,,,,,,,,,,,,,,,,,,,,,,,,,,,,,,,,,,,,
,,?,0.000755,0,,,,,,stimuli/images/PICTURE_208.png,MONTH,5ed670d71bd6110836108b87,14/07/1991,2020-08-13_05h03.11.303,proactive2,2020.1.2,Win32,60,5f341be081b9052c55068110,5f352ae15f1bf12f1449be3e,4,,,,,,microphone,,,,,,,,,,,6,0,0,5,5,53,1,,,,,,,,,,,,,,,,,,,,,,,,,,,,,,,,,,,,,,,,,,,,,,,,,,,,,,,,,,,,,,,,,,,,,,,,,,,,,,,,,,,,,,,,,,,,,,
,,STYLE,4.48559,1,,,,,,stimuli/images/PICTURE_488.png,STYLE,5ed670d71bd6110836108b87,14/07/1991,2020-08-13_05h03.11.303,proactive2,2020.1.2,Win32,60,5f341be081b9052c55068110,5f352ae15f1bf12f1449be3e,4,,,,,,sun,,,,,,,,,,,4,0,0,6,6,33,1,,,,,,,,,,,,,,,,,,,,,,,,,,,,,,,,,,,,,,,,,,,,,,,,,,,,,,,,,,,,,,,,,,,,,,,,,,,,,,,,,,,,,,,,,,,,,,
,,?,0.000915,0,,,,,,stimuli/images/PICTURE_449.png,THING,5ed670d71bd6110836108b87,14/07/1991,2020-08-13_05h03.11.303,proactive2,2020.1.2,Win32,60,5f341be081b9052c55068110,5f352ae15f1bf12f1449be3e,4,,,,,,bench,,,,,,,,,,,6,0,0,7,7,59,1,,,,,,,,,,,,,,,,,,,,,,,,,,,,,,,,,,,,,,,,,,,,,,,,,,,,,,,,,,,,,,,,,,,,,,,,,,,,,,,,,,,,,,,,,,,,,,
,,?,0.000675,0,,,,,,stimuli/images/PICTURE_469.png,LETTER,5ed670d71bd6110836108b87,14/07/1991,2020-08-13_05h03.11.303,proactive2,2020.1.2,Win32,60,5f341be081b9052c55068110,5f352ae15f1bf12f1449be3e,4,,,,,,stool,,,,,,,,,,,5,0,0,8,8,42,1,,,,,,,,,,,,,,,,,,,,,,,,,,,,,,,,,,,,,,,,,,,,,,,,,,,,,,,,,,,,,,,,,,,,,,,,,,,,,,,,,,,,,,,,,,,,,,
,,FRIEND,4.788925,1,,,,,,stimuli/images/PICTURE_311.png,FRIEND,5ed670d71bd6110836108b87,14/07/1991,2020-08-13_05h03.11.303,proactive2,2020.1.2,Win32,60,5f341be081b9052c55068110,5f352ae15f1bf12f1449be3e,4,,,,,,razor,,,,,,,,,,,4,0,0,9,9,34,1,,,,,,,,,,,,,,,,,,,,,,,,,,,,,,,,,,,,,,,,,,,,,,,,,,,,,,,,,,,,,,,,,,,,,,,,,,,,,,,,,,,,,,,,,,,,,,
,,?,0.002745,0,,,,,,stimuli/images/PICTURE_208.png,THING,5ed670d71bd6110836108b87,14/07/1991,2020-08-13_05h03.11.303,proactive2,2020.1.2,Win32,60,5f341be081b9052c55068110,5f352ae15f1bf12f1449be3e,4,,,,,,microphone,,,,,,,,,,,5,0,0,10,10,47,1,,,,,,,,,,,,,,,,,,,,,,,,,,,,,,,,,,,,,,,,,,,,,,,,,,,,,,,,,,,,,,,,,,,,,,,,,,,,,,,,,,,,,,,,,,,,,,
,,?,0.00076,0,,,,,,stimuli/images/PICTURE_654.png,VALLEY,5ed670d71bd6110836108b87,14/07/1991,2020-08-13_05h03.11.303,proactive2,2020.1.2,Win32,60,5f341be081b9052c55068110,5f352ae15f1bf12f1449be3e,4,,,,,,pencil,,,,,,,,,,,1,0,0,11,11,1,1,,,,,,,,,,,,,,,,,,,,,,,,,,,,,,,,,,,,,,,,,,,,,,,,,,,,,,,,,,,,,,,,,,,,,,,,,,,,,,,,,,,,,,,,,,,,,,
,,?,0.00065,0,,,,,,stimuli/images/PICTURE_302.png,FAMILY,5ed670d71bd6110836108b87,14/07/1991,2020-08-13_05h03.11.303,proactive2,2020.1.2,Win32,60,5f341be081b9052c55068110,5f352ae15f1bf12f1449be3e,4,,,,,,taxi,,,,,,,,,,,2,0,0,12,12,18,1,,,,,,,,,,,,,,,,,,,,,,,,,,,,,,,,,,,,,,,,,,,,,,,,,,,,,,,,,,,,,,,,,,,,,,,,,,,,,,,,,,,,,,,,,,,,,,
,,?,0.00066,0,,,,,,stimuli/images/PICTURE_469.png,ARTIST,5ed670d71bd6110836108b87,14/07/1991,2020-08-13_05h03.11.303,proactive2,2020.1.2,Win32,60,5f341be081b9052c55068110,5f352ae15f1bf12f1449be3e,4,,,,,,stool,,,,,,,,,,,1,0,0,13,13,6,1,,,,,,,,,,,,,,,,,,,,,,,,,,,,,,,,,,,,,,,,,,,,,,,,,,,,,,,,,,,,,,,,,,,,,,,,,,,,,,,,,,,,,,,,,,,,,,
,,?,0.00066,0,,,,,,stimuli/images/PICTURE_339.png,PLENTY,5ed670d71bd6110836108b87,14/07/1991,2020-08-13_05h03.11.303,proactive2,2020.1.2,Win32,60,5f341be081b9052c55068110,5f352ae15f1bf12f1449be3e,4,,,,,,backpack,,,,,,,,,,,1,0,0,14,14,0,1,,,,,,,,,,,,,,,,,,,,,,,,,,,,,,,,,,,,,,,,,,,,,,,,,,,,,,,,,,,,,,,,,,,,,,,,,,,,,,,,,,,,,,,,,,,,,,
,,?,0.000695,0,,,,,,stimuli/images/PICTURE_314.png,SAKE,5ed670d71bd6110836108b87,14/07/1991,2020-08-13_05h03.11.303,proactive2,2020.1.2,Win32,60,5f341be081b9052c55068110,5f352ae15f1bf12f1449be3e,4,,,,,,perfume,,,,,,,,,,,1,0,0,15,15,7,1,,,,,,,,,,,,,,,,,,,,,,,,,,,,,,,,,,,,,,,,,,,,,,,,,,,,,,,,,,,,,,,,,,,,,,,,,,,,,,,,,,,,,,,,,,,,,,
,,WOMEN,3.51059,1,,,,,,stimuli/images/PICTURE_233.png,WOMEN,5ed670d71bd6110836108b87,14/07/1991,2020-08-13_05h03.11.303,proactive2,2020.1.2,Win32,60,5f341be081b9052c55068110,5f352ae15f1bf12f1449be3e,4,,,,,,salt,,,,,,,,,,,4,0,0,16,16,38,1,,,,,,,,,,,,,,,,,,,,,,,,,,,,,,,,,,,,,,,,,,,,,,,,,,,,,,,,,,,,,,,,,,,,,,,,,,,,,,,,,,,,,,,,,,,,,,
,,WEAPON,4.908535,0,,,,,,stimuli/images/PICTURE_470.png,CASINO,5ed670d71bd6110836108b87,14/07/1991,2020-08-13_05h03.11.303,proactive2,2020.1.2,Win32,60,5f341be081b9052c55068110,5f352ae15f1bf12f1449be3e,4,,,,,,motorbike,,,,,,,,,,,4,0,0,17,17,36,1,,,,,,,,,,,,,,,,,,,,,,,,,,,,,,,,,,,,,,,,,,,,,,,,,,,,,,,,,,,,,,,,,,,,,,,,,,,,,,,,,,,,,,,,,,,,,,
,,?,0.00102,0,,,,,,stimuli/images/PICTURE_504.png,BODY,5ed670d71bd6110836108b87,14/07/1991,2020-08-13_05h03.11.303,proactive2,2020.1.2,Win32,60,5f341be081b9052c55068110,5f352ae15f1bf12f1449be3e,4,,,,,,wheel,,,,,,,,,,,1,0,0,18,18,8,1,,,,,,,,,,,,,,,,,,,,,,,,,,,,,,,,,,,,,,,,,,,,,,,,,,,,,,,,,,,,,,,,,,,,,,,,,,,,,,,,,,,,,,,,,,,,,,
,,?,0.00073,0,,,,,,stimuli/images/PICTURE_380.png,DEATH,5ed670d71bd6110836108b87,14/07/1991,2020-08-13_05h03.11.303,proactive2,2020.1.2,Win32,60,5f341be081b9052c55068110,5f352ae15f1bf12f1449be3e,4,,,,,,gorilla,,,,,,,,,,,5,0,0,19,19,49,1,,,,,,,,,,,,,,,,,,,,,,,,,,,,,,,,,,,,,,,,,,,,,,,,,,,,,,,,,,,,,,,,,,,,,,,,,,,,,,,,,,,,,,,,,,,,,,
,,?,0.00069,0,,,,,,stimuli/images/PICTURE_160.png,FEET,5ed670d71bd6110836108b87,14/07/1991,2020-08-13_05h03.11.303,proactive2,2020.1.2,Win32,60,5f341be081b9052c55068110,5f352ae15f1bf12f1449be3e,4,,,,,,wheelbarrow,,,,,,,,,,,6,0,0,20,20,58,1,,,,,,,,,,,,,,,,,,,,,,,,,,,,,,,,,,,,,,,,,,,,,,,,,,,,,,,,,,,,,,,,,,,,,,,,,,,,,,,,,,,,,,,,,,,,,,
,,?,0.000695,0,,,,,,stimuli/images/PICTURE_308.png,KIND,5ed670d71bd6110836108b87,14/07/1991,2020-08-13_05h03.11.303,proactive2,2020.1.2,Win32,60,5f341be081b9052c55068110,5f352ae15f1bf12f1449be3e,4,,,,,,dice,,,,,,,,,,,6,0,0,21,21,54,1,,,,,,,,,,,,,,,,,,,,,,,,,,,,,,,,,,,,,,,,,,,,,,,,,,,,,,,,,,,,,,,,,,,,,,,,,,,,,,,,,,,,,,,,,,,,,,
,,?,0.00067,0,,,,,,stimuli/images/PICTURE_327.png,BEAUTY,5ed670d71bd6110836108b87,14/07/1991,2020-08-13_05h03.11.303,proactive2,2020.1.2,Win32,60,5f341be081b9052c55068110,5f352ae15f1bf12f1449be3e,4,,,,,,helmet,,,,,,,,,,,5,0,0,22,22,48,1,,,,,,,,,,,,,,,,,,,,,,,,,,,,,,,,,,,,,,,,,,,,,,,,,,,,,,,,,,,,,,,,,,,,,,,,,,,,,,,,,,,,,,,,,,,,,,
,,?,0.00073,0,,,,,,stimuli/images/PICTURE_285.png,ADVICE,5ed670d71bd6110836108b87,14/07/1991,2020-08-13_05h03.11.303,proactive2,2020.1.2,Win32,60,5f341be081b9052c55068110,5f352ae15f1bf12f1449be3e,4,,,,,,carrot,,,,,,,,,,,2,0,0,23,23,12,1,,,,,,,,,,,,,,,,,,,,,,,,,,,,,,,,,,,,,,,,,,,,,,,,,,,,,,,,,,,,,,,,,,,,,,,,,,,,,,,,,,,,,,,,,,,,,,
,,?,0.000685,0,,,,,,stimuli/images/PICTURE_491.png,WRITER,5ed670d71bd6110836108b87,14/07/1991,2020-08-13_05h03.11.303,proactive2,2020.1.2,Win32,60,5f341be081b9052c55068110,5f352ae15f1bf12f1449be3e,4,,,,,,rug,,,,,,,,,,,6,0,0,24,24,57,1,,,,,,,,,,,,,,,,,,,,,,,,,,,,,,,,,,,,,,,,,,,,,,,,,,,,,,,,,,,,,,,,,,,,,,,,,,,,,,,,,,,,,,,,,,,,,,
,,PLENTY,4.794165,1,,,,,,stimuli/images/PICTURE_215.png,PLENTY,5ed670d71bd6110836108b87,14/07/1991,2020-08-13_05h03.11.303,proactive2,2020.1.2,Win32,60,5f341be081b9052c55068110,5f352ae15f1bf12f1449be3e,4,,,,,,boot,,,,,,,,,,,4,0,0,25,25,37,1,,,,,,,,,,,,,,,,,,,,,,,,,,,,,,,,,,,,,,,,,,,,,,,,,,,,,,,,,,,,,,,,,,,,,,,,,,,,,,,,,,,,,,,,,,,,,,
,,?,0.00094,0,,,,,,stimuli/images/PICTURE_453.png,DUDE,5ed670d71bd6110836108b87,14/07/1991,2020-08-13_05h03.11.303,proactive2,2020.1.2,Win32,60,5f341be081b9052c55068110,5f352ae15f1bf12f1449be3e,4,,,,,,scissors,,,,,,,,,,,3,0,0,26,26,27,1,,,,,,,,,,,,,,,,,,,,,,,,,,,,,,,,,,,,,,,,,,,,,,,,,,,,,,,,,,,,,,,,,,,,,,,,,,,,,,,,,,,,,,,,,,,,,,
,,PENNY,5.875685,0,,,,,,stimuli/images/PICTURE_677.png,MILE,5ed670d71bd6110836108b87,14/07/1991,2020-08-13_05h03.11.303,proactive2,2020.1.2,Win32,60,5f341be081b9052c55068110,5f352ae15f1bf12f1449be3e,4,,,,,,map,,,,,,,,,,,4,0,0,27,27,30,1,,,,,,,,,,,,,,,,,,,,,,,,,,,,,,,,,,,,,,,,,,,,,,,,,,,,,,,,,,,,,,,,,,,,,,,,,,,,,,,,,,,,,,,,,,,,,,
,,?,0.000885,0,,,,,,stimuli/images/PICTURE_208.png,LOTS,5ed670d71bd6110836108b87,14/07/1991,2020-08-13_05h03.11.303,proactive2,2020.1.2,Win32,60,5f341be081b9052c55068110,5f352ae15f1bf12f1449be3e,4,,,,,,microphone,,,,,,,,,,,2,0,0,28,28,10,1,,,,,,,,,,,,,,,,,,,,,,,,,,,,,,,,,,,,,,,,,,,,,,,,,,,,,,,,,,,,,,,,,,,,,,,,,,,,,,,,,,,,,,,,,,,,,,
,,?,0.000705,0,,,,,,stimuli/images/PICTURE_311.png,BEAUTY,5ed670d71bd6110836108b87,14/07/1991,2020-08-13_05h03.11.303,proactive2,2020.1.2,Win32,60,5f341be081b9052c55068110,5f352ae15f1bf12f1449be3e,4,,,,,,razor,,,,,,,,,,,2,0,0,29,29,13,1,,,,,,,,,,,,,,,,,,,,,,,,,,,,,,,,,,,,,,,,,,,,,,,,,,,,,,,,,,,,,,,,,,,,,,,,,,,,,,,,,,,,,,,,,,,,,,
,,PENNY,4.536625,1,,,,,,stimuli/images/PICTURE_708.png,PENNY,5ed670d71bd6110836108b87,14/07/1991,2020-08-13_05h03.11.303,proactive2,2020.1.2,Win32,60,5f341be081b9052c55068110,5f352ae15f1bf12f1449be3e,4,,,,,,monkey,,,,,,,,,,,4,0,0,30,30,31,1,,,,,,,,,,,,,,,,,,,,,,,,,,,,,,,,,,,,,,,,,,,,,,,,,,,,,,,,,,,,,,,,,,,,,,,,,,,,,,,,,,,,,,,,,,,,,,
,,?,0.00097,0,,,,,,stimuli/images/PICTURE_491.png,ROOF,5ed670d71bd6110836108b87,14/07/1991,2020-08-13_05h03.11.303,proactive2,2020.1.2,Win32,60,5f341be081b9052c55068110,5f352ae15f1bf12f1449be3e,4,,,,,,rug,,,,,,,,,,,3,0,0,31,31,24,1,,,,,,,,,,,,,,,,,,,,,,,,,,,,,,,,,,,,,,,,,,,,,,,,,,,,,,,,,,,,,,,,,,,,,,,,,,,,,,,,,,,,,,,,,,,,,,
,,?,0.00067,0,,,,,,stimuli/images/PICTURE_744.png,SAKE,5ed670d71bd6110836108b87,14/07/1991,2020-08-13_05h03.11.303,proactive2,2020.1.2,Win32,60,5f341be081b9052c55068110,5f352ae15f1bf12f1449be3e,4,,,,,,ring,,,,,,,,,,,2,0,0,32,32,17,1,,,,,,,,,,,,,,,,,,,,,,,,,,,,,,,,,,,,,,,,,,,,,,,,,,,,,,,,,,,,,,,,,,,,,,,,,,,,,,,,,,,,,,,,,,,,,,
,,?,0.000655,0,,,,,,stimuli/images/PICTURE_467.png,DEMON,5ed670d71bd6110836108b87,14/07/1991,2020-08-13_05h03.11.303,proactive2,2020.1.2,Win32,60,5f341be081b9052c55068110,5f352ae15f1bf12f1449be3e,4,,,,,,peg,,,,,,,,,,,3,0,0,33,33,23,1,,,,,,,,,,,,,,,,,,,,,,,,,,,,,,,,,,,,,,,,,,,,,,,,,,,,,,,,,,,,,,,,,,,,,,,,,,,,,,,,,,,,,,,,,,,,,,
,,?,0.00082,0,,,,,,stimuli/images/PICTURE_667.png,BATH,5ed670d71bd6110836108b87,14/07/1991,2020-08-13_05h03.11.303,proactive2,2020.1.2,Win32,60,5f341be081b9052c55068110,5f352ae15f1bf12f1449be3e,4,,,,,,daisy,,,,,,,,,,,1,0,0,34,34,4,1,,,,,,,,,,,,,,,,,,,,,,,,,,,,,,,,,,,,,,,,,,,,,,,,,,,,,,,,,,,,,,,,,,,,,,,,,,,,,,,,,,,,,,,,,,,,,,
,,?,0.000665,0,,,,,,stimuli/images/PICTURE_509.png,PHOTO,5ed670d71bd6110836108b87,14/07/1991,2020-08-13_05h03.11.303,proactive2,2020.1.2,Win32,60,5f341be081b9052c55068110,5f352ae15f1bf12f1449be3e,4,,,,,,telephone,,,,,,,,,,,3,0,0,35,35,21,1,,,,,,,,,,,,,,,,,,,,,,,,,,,,,,,,,,,,,,,,,,,,,,,,,,,,,,,,,,,,,,,,,,,,,,,,,,,,,,,,,,,,,,,,,,,,,,
,,?,0.000635,0,,,,,,stimuli/images/PICTURE_356.png,DANGER,5ed670d71bd6110836108b87,14/07/1991,2020-08-13_05h03.11.303,proactive2,2020.1.2,Win32,60,5f341be081b9052c55068110,5f352ae15f1bf12f1449be3e,4,,,,,,pawn,,,,,,,,,,,6,0,0,36,36,55,1,,,,,,,,,,,,,,,,,,,,,,,,,,,,,,,,,,,,,,,,,,,,,,,,,,,,,,,,,,,,,,,,,,,,,,,,,,,,,,,,,,,,,,,,,,,,,,
,,?,0.00075,0,,,,,,stimuli/images/PICTURE_147.png,MOMENT,5ed670d71bd6110836108b87,14/07/1991,2020-08-13_05h03.11.303,proactive2,2020.1.2,Win32,60,5f341be081b9052c55068110,5f352ae15f1bf12f1449be3e,4,,,,,,hanger,,,,,,,,,,,6,0,0,37,37,51,1,,,,,,,,,,,,,,,,,,,,,,,,,,,,,,,,,,,,,,,,,,,,,,,,,,,,,,,,,,,,,,,,,,,,,,,,,,,,,,,,,,,,,,,,,,,,,,
,,?,0.000685,0,,,,,,stimuli/images/PICTURE_95.png,STYLE,5ed670d71bd6110836108b87,14/07/1991,2020-08-13_05h03.11.303,proactive2,2020.1.2,Win32,60,5f341be081b9052c55068110,5f352ae15f1bf12f1449be3e,4,,,,,,suitcase,,,,,,,,,,,3,0,0,38,38,25,1,,,,,,,,,,,,,,,,,,,,,,,,,,,,,,,,,,,,,,,,,,,,,,,,,,,,,,,,,,,,,,,,,,,,,,,,,,,,,,,,,,,,,,,,,,,,,,
,,?,0.000695,0,,,,,,stimuli/images/PICTURE_453.png,PLENTY,5ed670d71bd6110836108b87,14/07/1991,2020-08-13_05h03.11.303,proactive2,2020.1.2,Win32,60,5f341be081b9052c55068110,5f352ae15f1bf12f1449be3e,4,,,,,,scissors,,,,,,,,,,,6,0,0,39,39,56,1,,,,,,,,,,,,,,,,,,,,,,,,,,,,,,,,,,,,,,,,,,,,,,,,,,,,,,,,,,,,,,,,,,,,,,,,,,,,,,,,,,,,,,,,,,,,,,
,,CARS,3.340955,1,,,,,,stimuli/images/PICTURE_177.png,CARS,5ed670d71bd6110836108b87,14/07/1991,2020-08-13_05h03.11.303,proactive2,2020.1.2,Win32,60,5f341be081b9052c55068110,5f352ae15f1bf12f1449be3e,4,,,,,,mushroom,,,,,,,,,,,4,0,0,40,40,35,1,,,,,,,,,,,,,,,,,,,,,,,,,,,,,,,,,,,,,,,,,,,,,,,,,,,,,,,,,,,,,,,,,,,,,,,,,,,,,,,,,,,,,,,,,,,,,,
,,?,0.000895,0,,,,,,stimuli/images/PICTURE_688.png,WOMEN,5ed670d71bd6110836108b87,14/07/1991,2020-08-13_05h03.11.303,proactive2,2020.1.2,Win32,60,5f341be081b9052c55068110,5f352ae15f1bf12f1449be3e,4,,,,,,runner,,,,,,,,,,,2,0,0,41,41,14,1,,,,,,,,,,,,,,,,,,,,,,,,,,,,,,,,,,,,,,,,,,,,,,,,,,,,,,,,,,,,,,,,,,,,,,,,,,,,,,,,,,,,,,,,,,,,,,
,,?,0.000665,0,,,,,,stimuli/images/PICTURE_123.png,ADVICE,5ed670d71bd6110836108b87,14/07/1991,2020-08-13_05h03.11.303,proactive2,2020.1.2,Win32,60,5f341be081b9052c55068110,5f352ae15f1bf12f1449be3e,4,,,,,,dart,,,,,,,,,,,5,0,0,42,42,40,1,,,,,,,,,,,,,,,,,,,,,,,,,,,,,,,,,,,,,,,,,,,,,,,,,,,,,,,,,,,,,,,,,,,,,,,,,,,,,,,,,,,,,,,,,,,,,,
,,?,0.000665,0,,,,,,stimuli/images/PICTURE_314.png,GODS,5ed670d71bd6110836108b87,14/07/1991,2020-08-13_05h03.11.303,proactive2,2020.1.2,Win32,60,5f341be081b9052c55068110,5f352ae15f1bf12f1449be3e,4,,,,,,perfume,,,,,,,,,,,2,0,0,43,43,11,1,,,,,,,,,,,,,,,,,,,,,,,,,,,,,,,,,,,,,,,,,,,,,,,,,,,,,,,,,,,,,,,,,,,,,,,,,,,,,,,,,,,,,,,,,,,,,,
,,?,0.00069,0,,,,,,stimuli/images/PICTURE_160.png,LEADER,5ed670d71bd6110836108b87,14/07/1991,2020-08-13_05h03.11.303,proactive2,2020.1.2,Win32,60,5f341be081b9052c55068110,5f352ae15f1bf12f1449be3e,4,,,,,,wheelbarrow,,,,,,,,,,,1,0,0,44,44,3,1,,,,,,,,,,,,,,,,,,,,,,,,,,,,,,,,,,,,,,,,,,,,,,,,,,,,,,,,,,,,,,,,,,,,,,,,,,,,,,,,,,,,,,,,,,,,,,
,,?,0.000705,0,,,,,,stimuli/images/PICTURE_123.png,ADVICE,5ed670d71bd6110836108b87,14/07/1991,2020-08-13_05h03.11.303,proactive2,2020.1.2,Win32,60,5f341be081b9052c55068110,5f352ae15f1bf12f1449be3e,4,,,,,,dart,,,,,,,,,,,6,0,0,45,45,50,1,,,,,,,,,,,,,,,,,,,,,,,,,,,,,,,,,,,,,,,,,,,,,,,,,,,,,,,,,,,,,,,,,,,,,,,,,,,,,,,,,,,,,,,,,,,,,,
,,?,0.000665,0,,,,,,stimuli/images/PICTURE_255.png,AREA,5ed670d71bd6110836108b87,14/07/1991,2020-08-13_05h03.11.303,proactive2,2020.1.2,Win32,60,5f341be081b9052c55068110,5f352ae15f1bf12f1449be3e,4,,,,,,shovel,,,,,,,,,,,3,0,0,46,46,22,1,,,,,,,,,,,,,,,,,,,,,,,,,,,,,,,,,,,,,,,,,,,,,,,,,,,,,,,,,,,,,,,,,,,,,,,,,,,,,,,,,,,,,,,,,,,,,,
,,?,0.000725,0,,,,,,stimuli/images/PICTURE_708.png,CLIENT,5ed670d71bd6110836108b87,14/07/1991,2020-08-13_05h03.11.303,proactive2,2020.1.2,Win32,60,5f341be081b9052c55068110,5f352ae15f1bf12f1449be3e,4,,,,,,monkey,,,,,,,,,,,1,0,0,47,47,5,1,,,,,,,,,,,,,,,,,,,,,,,,,,,,,,,,,,,,,,,,,,,,,,,,,,,,,,,,,,,,,,,,,,,,,,,,,,,,,,,,,,,,,,,,,,,,,,
,,WEAPON,7.451405,0,,,,,,stimuli/images/PICTURE_248.png,DOZEN,5ed670d71bd6110836108b87,14/07/1991,2020-08-13_05h03.11.303,proactive2,2020.1.2,Win32,60,5f341be081b9052c55068110,5f352ae15f1bf12f1449be3e,4,,,,,,cart,,,,,,,,,,,4,0,0,48,48,39,1,,,,,,,,,,,,,,,,,,,,,,,,,,,,,,,,,,,,,,,,,,,,,,,,,,,,,,,,,,,,,,,,,,,,,,,,,,,,,,,,,,,,,,,,,,,,,,
,,?,0.000855,0,,,,,,stimuli/images/PICTURE_667.png,PLENTY,5ed670d71bd6110836108b87,14/07/1991,2020-08-13_05h03.11.303,proactive2,2020.1.2,Win32,60,5f341be081b9052c55068110,5f352ae15f1bf12f1449be3e,4,,,,,,daisy,,,,,,,,,,,5,0,0,49,49,41,1,,,,,,,,,,,,,,,,,,,,,,,,,,,,,,,,,,,,,,,,,,,,,,,,,,,,,,,,,,,,,,,,,,,,,,,,,,,,,,,,,,,,,,,,,,,,,,
,,?,0.000705,0,,,,,,stimuli/images/PICTURE_380.png,PHOTO,5ed670d71bd6110836108b87,14/07/1991,2020-08-13_05h03.11.303,proactive2,2020.1.2,Win32,60,5f341be081b9052c55068110,5f352ae15f1bf12f1449be3e,4,,,,,,gorilla,,,,,,,,,,,6,0,0,50,50,52,1,,,,,,,,,,,,,,,,,,,,,,,,,,,,,,,,,,,,,,,,,,,,,,,,,,,,,,,,,,,,,,,,,,,,,,,,,,,,,,,,,,,,,,,,,,,,,,
,,?,0.0008,0,,,,,,stimuli/images/PICTURE_688.png,CASINO,5ed670d71bd6110836108b87,14/07/1991,2020-08-13_05h03.11.303,proactive2,2020.1.2,Win32,60,5f341be081b9052c55068110,5f352ae15f1bf12f1449be3e,4,,,,,,runner,,,,,,,,,,,1,0,0,51,51,2,1,,,,,,,,,,,,,,,,,,,,,,,,,,,,,,,,,,,,,,,,,,,,,,,,,,,,,,,,,,,,,,,,,,,,,,,,,,,,,,,,,,,,,,,,,,,,,,
,,?,0.00065,0,,,,,,stimuli/images/PICTURE_692.png,MONTH,5ed670d71bd6110836108b87,14/07/1991,2020-08-13_05h03.11.303,proactive2,2020.1.2,Win32,60,5f341be081b9052c55068110,5f352ae15f1bf12f1449be3e,4,,,,,,cherry,,,,,,,,,,,2,0,0,52,52,16,1,,,,,,,,,,,,,,,,,,,,,,,,,,,,,,,,,,,,,,,,,,,,,,,,,,,,,,,,,,,,,,,,,,,,,,,,,,,,,,,,,,,,,,,,,,,,,,
,,?,0.000625,0,,,,,,stimuli/images/PICTURE_32.png,JUNGLE,5ed670d71bd6110836108b87,14/07/1991,2020-08-13_05h03.11.303,proactive2,2020.1.2,Win32,60,5f341be081b9052c55068110,5f352ae15f1bf12f1449be3e,4,,,,,,crown,,,,,,,,,,,5,0,0,53,53,45,1,,,,,,,,,,,,,,,,,,,,,,,,,,,,,,,,,,,,,,,,,,,,,,,,,,,,,,,,,,,,,,,,,,,,,,,,,,,,,,,,,,,,,,,,,,,,,,
,,?,0.000655,0,,,,,,stimuli/images/PICTURE_151.png,GIRL,5ed670d71bd6110836108b87,14/07/1991,2020-08-13_05h03.11.303,proactive2,2020.1.2,Win32,60,5f341be081b9052c55068110,5f352ae15f1bf12f1449be3e,4,,,,,,tray,,,,,,,,,,,2,0,0,54,54,19,1,,,,,,,,,,,,,,,,,,,,,,,,,,,,,,,,,,,,,,,,,,,,,,,,,,,,,,,,,,,,,,,,,,,,,,,,,,,,,,,,,,,,,,,,,,,,,,
,,?,0.00062,0,,,,,,stimuli/images/PICTURE_68.png,MILE,5ed670d71bd6110836108b87,14/07/1991,2020-08-13_05h03.11.303,proactive2,2020.1.2,Win32,60,5f341be081b9052c55068110,5f352ae15f1bf12f1449be3e,4,,,,,,candle,,,,,,,,,,,5,0,0,55,55,44,1,,,,,,,,,,,,,,,,,,,,,,,,,,,,,,,,,,,,,,,,,,,,,,,,,,,,,,,,,,,,,,,,,,,,,,,,,,,,,,,,,,,,,,,,,,,,,,
,,?,0.00068,0,,,,,,stimuli/images/PICTURE_308.png,ESTATE,5ed670d71bd6110836108b87,14/07/1991,2020-08-13_05h03.11.303,proactive2,2020.1.2,Win32,60,5f341be081b9052c55068110,5f352ae15f1bf12f1449be3e,4,,,,,,dice,,,,,,,,,,,5,0,0,56,56,46,1,,,,,,,,,,,,,,,,,,,,,,,,,,,,,,,,,,,,,,,,,,,,,,,,,,,,,,,,,,,,,,,,,,,,,,,,,,,,,,,,,,,,,,,,,,,,,,
,,?,0.001015,0,,,,,,stimuli/images/PICTURE_708.png,YARD,5ed670d71bd6110836108b87,14/07/1991,2020-08-13_05h03.11.303,proactive2,2020.1.2,Win32,60,5f341be081b9052c55068110,5f352ae15f1bf12f1449be3e,4,,,,,,monkey,,,,,,,,,,,3,0,0,57,57,29,1,,,,,,,,,,,,,,,,,,,,,,,,,,,,,,,,,,,,,,,,,,,,,,,,,,,,,,,,,,,,,,,,,,,,,,,,,,,,,,,,,,,,,,,,,,,,,,
,,?,0.00062,0,,,,,,stimuli/images/PICTURE_744.png,SYSTEM,5ed670d71bd6110836108b87,14/07/1991,2020-08-13_05h03.11.303,proactive2,2020.1.2,Win32,60,5f341be081b9052c55068110,5f352ae15f1bf12f1449be3e,4,,,,,,ring,,,,,,,,,,,5,0,0,58,58,43,1,,,,,,,,,,,,,,,,,,,,,,,,,,,,,,,,,,,,,,,,,,,,,,,,,,,,,,,,,,,,,,,,,,,,,,,,,,,,,,,,,,,,,,,,,,,,,,
,,?,0.002385,0,,,,,,stimuli/images/PICTURE_487.png,FLIGHT,5ed670d71bd6110836108b87,14/07/1991,2020-08-13_05h03.11.303,proactive2,2020.1.2,Win32,60,5f341be081b9052c55068110,5f352ae15f1bf12f1449be3e,4,,,,,,basket,,,,,,,,,,,1,0,0,59,59,9,1,,,,,,,,,,,,,,,,,,,,,,,,,,,,,,,,,,,,,,,,,,,,,,,,,,,,,,,,,,,,,,,,,,,,,,,,,,,,,,,,,,,,,,,,,,,,,,
,,,,,,,,,,,,5ed670d71bd6110836108b87,14/07/1991,2020-08-13_05h03.11.303,proactive2,2020.1.2,Win32,60,5f341be081b9052c55068110,5f352ae15f1bf12f1449be3e,4,,,,,,,,,,,,,,,,,,,,,,,,0,0,0,0,1,stimuli/learn-block1.csv,,,,,,,,,,,,,,,,,,,,,,,,,,,,,,,,,,,,,,,,,,,,,,,,,,,,,,,,,,,,,,,,,,,,,,,,,,,,,,,,,,,,,,,,
,,,,,,,,,,stimuli/images/PICTURE_708.png,VALLEY,5ed670d71bd6110836108b87,14/07/1991,2020-08-13_05h03.11.303,proactive2,2020.1.2,Win32,60,5f341be081b9052c55068110,5f352ae15f1bf12f1449be3e,4,,,,,,monkey,,,,,,0,0,0,45,1,5,2,,,,,,,,,,,,,,,,,,,,,,,,,,,,,,,,,,,,,,,,,,,,,,,,,,,,,,,,,,,,,,,,,,,,,,,,,,,,,,,,,,,,,,,,,,,,,,,,,,,
,,,,,,,,,,stimuli/images/PICTURE_215.png,LEADER,5ed670d71bd6110836108b87,14/07/1991,2020-08-13_05h03.11.303,proactive2,2020.1.2,Win32,60,5f341be081b9052c55068110,5f352ae15f1bf12f1449be3e,4,,,,,,boot,,,,,,0,1,1,43,1,5,2,,,,,,,,,,,,,,,,,,,,,,,,,,,,,,,,,,,,,,,,,,,,,,,,,,,,,,,,,,,,,,,,,,,,,,,,,,,,,,,,,,,,,,,,,,,,,,,,,,,
,,,,,,,,,,stimuli/images/PICTURE_314.png,SPEECH,5ed670d71bd6110836108b87,14/07/1991,2020-08-13_05h03.11.303,proactive2,2020.1.2,Win32,60,5f341be081b9052c55068110,5f352ae15f1bf12f1449be3e,4,,,,,,perfume,,,,,,0,2,2,35,1,4,2,,,,,,,,,,,,,,,,,,,,,,,,,,,,,,,,,,,,,,,,,,,,,,,,,,,,,,,,,,,,,,,,,,,,,,,,,,,,,,,,,,,,,,,,,,,,,,,,,,,
,,,,,,,,,,stimuli/images/PICTURE_667.png,GLASS,5ed670d71bd6110836108b87,14/07/1991,2020-08-13_05h03.11.303,proactive2,2020.1.2,Win32,60,5f341be081b9052c55068110,5f352ae15f1bf12f1449be3e,4,,,,,,daisy,,,,,,0,3,3,27,1,3,2,,,,,,,,,,,,,,,,,,,,,,,,,,,,,,,,,,,,,,,,,,,,,,,,,,,,,,,,,,,,,,,,,,,,,,,,,,,,,,,,,,,,,,,,,,,,,,,,,,,
,,,,,,,,,,stimuli/images/PICTURE_255.png,PENNY,5ed670d71bd6110836108b87,14/07/1991,2020-08-13_05h03.11.303,proactive2,2020.1.2,Win32,60,5f341be081b9052c55068110,5f352ae15f1bf12f1449be3e,4,,,,,,shovel,,,,,,0,4,4,19,1,2,2,,,,,,,,,,,,,,,,,,,,,,,,,,,,,,,,,,,,,,,,,,,,,,,,,,,,,,,,,,,,,,,,,,,,,,,,,,,,,,,,,,,,,,,,,,,,,,,,,,,
,,,,,,,,,,stimuli/images/PICTURE_123.png,SALE,5ed670d71bd6110836108b87,14/07/1991,2020-08-13_05h03.11.303,proactive2,2020.1.2,Win32,60,5f341be081b9052c55068110,5f352ae15f1bf12f1449be3e,4,,,,,,dart,,,,,,0,5,5,8,1,1,2,,,,,,,,,,,,,,,,,,,,,,,,,,,,,,,,,,,,,,,,,,,,,,,,,,,,,,,,,,,,,,,,,,,,,,,,,,,,,,,,,,,,,,,,,,,,,,,,,,,
,,,,,,,,,,stimuli/images/PICTURE_57.png,NATION,5ed670d71bd6110836108b87,14/07/1991,2020-08-13_05h03.11.303,proactive2,2020.1.2,Win32,60,5f341be081b9052c55068110,5f352ae15f1bf12f1449be3e,4,,,,,,stamp,,,,,,0,6,6,21,1,3,2,,,,,,,,,,,,,,,,,,,,,,,,,,,,,,,,,,,,,,,,,,,,,,,,,,,,,,,,,,,,,,,,,,,,,,,,,,,,,,,,,,,,,,,,,,,,,,,,,,,
,,,,,,,,,,stimuli/images/PICTURE_654.png,COPS,5ed670d71bd6110836108b87,14/07/1991,2020-08-13_05h03.11.303,proactive2,2020.1.2,Win32,60,5f341be081b9052c55068110,5f352ae15f1bf12f1449be3e,4,,,,,,pencil,,,,,,0,7,7,10,1,2,2,,,,,,,,,,,,,,,,,,,,,,,,,,,,,,,,,,,,,,,,,,,,,,,,,,,,,,,,,,,,,,,,,,,,,,,,,,,,,,,,,,,,,,,,,,,,,,,,,,,
,,,,,,,,,,stimuli/images/PICTURE_57.png,CANDY,5ed670d71bd6110836108b87,14/07/1991,2020-08-13_05h03.11.303,proactive2,2020.1.2,Win32,60,5f341be081b9052c55068110,5f352ae15f1bf12f1449be3e,4,,,,,,stamp,,,,,,0,8,8,52,1,6,2,,,,,,,,,,,,,,,,,,,,,,,,,,,,,,,,,,,,,,,,,,,,,,,,,,,,,,,,,,,,,,,,,,,,,,,,,,,,,,,,,,,,,,,,,,,,,,,,,,,
,,,,,,,,,,stimuli/images/PICTURE_160.png,HOTEL,5ed670d71bd6110836108b87,14/07/1991,2020-08-13_05h03.11.303,proactive2,2020.1.2,Win32,60,5f341be081b9052c55068110,5f352ae15f1bf12f1449be3e,4,,,,,,wheelbarrow,,,,,,0,9,9,16,1,2,2,,,,,,,,,,,,,,,,,,,,,,,,,,,,,,,,,,,,,,,,,,,,,,,,,,,,,,,,,,,,,,,,,,,,,,,,,,,,,,,,,,,,,,,,,,,,,,,,,,,
,,,,,,,,,,stimuli/images/PICTURE_215.png,BOYS,5ed670d71bd6110836108b87,14/07/1991,2020-08-13_05h03.11.303,proactive2,2020.1.2,Win32,60,5f341be081b9052c55068110,5f352ae15f1bf12f1449be3e,4,,,,,,boot,,,,,,0,10,10,24,1,3,2,,,,,,,,,,,,,,,,,,,,,,,,,,,,,,,,,,,,,,,,,,,,,,,,,,,,,,,,,,,,,,,,,,,,,,,,,,,,,,,,,,,,,,,,,,,,,,,,,,,
,,,,,,,,,,stimuli/images/PICTURE_403.png,FAMILY,5ed670d71bd6110836108b87,14/07/1991,2020-08-13_05h03.11.303,proactive2,2020.1.2,Win32,60,5f341be081b9052c55068110,5f352ae15f1bf12f1449be3e,4,,,,,,cathedral,,,,,,0,11,11,9,1,1,2,,,,,,,,,,,,,,,,,,,,,,,,,,,,,,,,,,,,,,,,,,,,,,,,,,,,,,,,,,,,,,,,,,,,,,,,,,,,,,,,,,,,,,,,,,,,,,,,,,,
,,,,,,,,,,stimuli/images/PICTURE_677.png,FAMILY,5ed670d71bd6110836108b87,14/07/1991,2020-08-13_05h03.11.303,proactive2,2020.1.2,Win32,60,5f341be081b9052c55068110,5f352ae15f1bf12f1449be3e,4,,,,,,map,,,,,,0,12,12,53,1,6,2,,,,,,,,,,,,,,,,,,,,,,,,,,,,,,,,,,,,,,,,,,,,,,,,,,,,,,,,,,,,,,,,,,,,,,,,,,,,,,,,,,,,,,,,,,,,,,,,,,,
,,,,,,,,,,stimuli/images/PICTURE_141.png,CLIENT,5ed670d71bd6110836108b87,14/07/1991,2020-08-13_05h03.11.303,proactive2,2020.1.2,Win32,60,5f341be081b9052c55068110,5f352ae15f1bf12f1449be3e,4,,,,,,sunflower,,,,,,0,13,13,30,1,4,2,,,,,,,,,,,,,,,,,,,,,,,,,,,,,,,,,,,,,,,,,,,,,,,,,,,,,,,,,,,,,,,,,,,,,,,,,,,,,,,,,,,,,,,,,,,,,,,,,,,
,,,,,,,,,,stimuli/images/PICTURE_509.png,SHOTS,5ed670d71bd6110836108b87,14/07/1991,2020-08-13_05h03.11.303,proactive2,2020.1.2,Win32,60,5f341be081b9052c55068110,5f352ae15f1bf12f1449be3e,4,,,,,,telephone,,,,,,0,14,14,7,1,1,2,,,,,,,,,,,,,,,,,,,,,,,,,,,,,,,,,,,,,,,,,,,,,,,,,,,,,,,,,,,,,,,,,,,,,,,,,,,,,,,,,,,,,,,,,,,,,,,,,,,
,,,,,,,,,,stimuli/images/PICTURE_504.png,HOUSE,5ed670d71bd6110836108b87,14/07/1991,2020-08-13_05h03.11.303,proactive2,2020.1.2,Win32,60,5f341be081b9052c55068110,5f352ae15f1bf12f1449be3e,4,,,,,,wheel,,,,,,0,15,15,36,1,4,2,,,,,,,,,,,,,,,,,,,,,,,,,,,,,,,,,,,,,,,,,,,,,,,,,,,,,,,,,,,,,,,,,,,,,,,,,,,,,,,,,,,,,,,,,,,,,,,,,,,
,,,,,,,,,,stimuli/images/PICTURE_692.png,DUDE,5ed670d71bd6110836108b87,14/07/1991,2020-08-13_05h03.11.303,proactive2,2020.1.2,Win32,60,5f341be081b9052c55068110,5f352ae15f1bf12f1449be3e,4,,,,,,cherry,,,,,,0,16,16,47,1,5,2,,,,,,,,,,,,,,,,,,,,,,,,,,,,,,,,,,,,,,,,,,,,,,,,,,,,,,,,,,,,,,,,,,,,,,,,,,,,,,,,,,,,,,,,,,,,,,,,,,,
,,,,,,,,,,stimuli/images/PICTURE_564.png,PLENTY,5ed670d71bd6110836108b87,14/07/1991,2020-08-13_05h03.11.303,proactive2,2020.1.2,Win32,60,5f341be081b9052c55068110,5f352ae15f1bf12f1449be3e,4,,,,,,spoon,,,,,,0,17,17,11,1,2,2,,,,,,,,,,,,,,,,,,,,,,,,,,,,,,,,,,,,,,,,,,,,,,,,,,,,,,,,,,,,,,,,,,,,,,,,,,,,,,,,,,,,,,,,,,,,,,,,,,,
,,,,,,,,,,stimuli/images/PICTURE_688.png,CLOCK,5ed670d71bd6110836108b87,14/07/1991,2020-08-13_05h03.11.303,proactive2,2020.1.2,Win32,60,5f341be081b9052c55068110,5f352ae15f1bf12f1449be3e,4,,,,,,runner,,,,,,0,18,18,42,1,5,2,,,,,,,,,,,,,,,,,,,,,,,,,,,,,,,,,,,,,,,,,,,,,,,,,,,,,,,,,,,,,,,,,,,,,,,,,,,,,,,,,,,,,,,,,,,,,,,,,,,
,,,,,,,,,,stimuli/images/PICTURE_405.png,JUNGLE,5ed670d71bd6110836108b87,14/07/1991,2020-08-13_05h03.11.303,proactive2,2020.1.2,Win32,60,5f341be081b9052c55068110,5f352ae15f1bf12f1449be3e,4,,,,,,anchor,,,,,,0,19,19,13,1,2,2,,,,,,,,,,,,,,,,,,,,,,,,,,,,,,,,,,,,,,,,,,,,,,,,,,,,,,,,,,,,,,,,,,,,,,,,,,,,,,,,,,,,,,,,,,,,,,,,,,,
,,,,,,,,,,stimuli/images/PICTURE_285.png,PRINCE,5ed670d71bd6110836108b87,14/07/1991,2020-08-13_05h03.11.303,proactive2,2020.1.2,Win32,60,5f341be081b9052c55068110,5f352ae15f1bf12f1449be3e,4,,,,,,carrot,,,,,,0,20,20,20,1,3,2,,,,,,,,,,,,,,,,,,,,,,,,,,,,,,,,,,,,,,,,,,,,,,,,,,,,,,,,,,,,,,,,,,,,,,,,,,,,,,,,,,,,,,,,,,,,,,,,,,,
,,,,,,,,,,stimuli/images/PICTURE_405.png,JUNGLE,5ed670d71bd6110836108b87,14/07/1991,2020-08-13_05h03.11.303,proactive2,2020.1.2,Win32,60,5f341be081b9052c55068110,5f352ae15f1bf12f1449be3e,4,,,,,,anchor,,,,,,0,21,21,58,1,6,2,,,,,,,,,,,,,,,,,,,,,,,,,,,,,,,,,,,,,,,,,,,,,,,,,,,,,,,,,,,,,,,,,,,,,,,,,,,,,,,,,,,,,,,,,,,,,,,,,,,
,,,,,,,,,,stimuli/images/PICTURE_68.png,KIND,5ed670d71bd6110836108b87,14/07/1991,2020-08-13_05h03.11.303,proactive2,2020.1.2,Win32,60,5f341be081b9052c55068110,5f352ae15f1bf12f1449be3e,4,,,,,,candle,,,,,,0,22,22,23,1,3,2,,,,,,,,,,,,,,,,,,,,,,,,,,,,,,,,,,,,,,,,,,,,,,,,,,,,,,,,,,,,,,,,,,,,,,,,,,,,,,,,,,,,,,,,,,,,,,,,,,,
,,,,,,,,,,stimuli/images/PICTURE_2.png,YARD,5ed670d71bd6110836108b87,14/07/1991,2020-08-13_05h03.11.303,proactive2,2020.1.2,Win32,60,5f341be081b9052c55068110,5f352ae15f1bf12f1449be3e,4,,,,,,tyre,,,,,,0,23,23,55,1,6,2,,,,,,,,,,,,,,,,,,,,,,,,,,,,,,,,,,,,,,,,,,,,,,,,,,,,,,,,,,,,,,,,,,,,,,,,,,,,,,,,,,,,,,,,,,,,,,,,,,,
,,,,,,,,,,stimuli/images/PICTURE_2.png,AREA,5ed670d71bd6110836108b87,14/07/1991,2020-08-13_05h03.11.303,proactive2,2020.1.2,Win32,60,5f341be081b9052c55068110,5f352ae15f1bf12f1449be3e,4,,,,,,tyre,,,,,,0,24,24,32,1,4,2,,,,,,,,,,,,,,,,,,,,,,,,,,,,,,,,,,,,,,,,,,,,,,,,,,,,,,,,,,,,,,,,,,,,,,,,,,,,,,,,,,,,,,,,,,,,,,,,,,,
,,,,,,,,,,stimuli/images/PICTURE_2.png,JUNGLE,5ed670d71bd6110836108b87,14/07/1991,2020-08-13_05h03.11.303,proactive2,2020.1.2,Win32,60,5f341be081b9052c55068110,5f352ae15f1bf12f1449be3e,4,,,,,,tyre,,,,,,0,25,25,1,1,1,2,,,,,,,,,,,,,,,,,,,,,,,,,,,,,,,,,,,,,,,,,,,,,,,,,,,,,,,,,,,,,,,,,,,,,,,,,,,,,,,,,,,,,,,,,,,,,,,,,,,
,,,,,,,,,,stimuli/images/PICTURE_57.png,CASINO,5ed670d71bd6110836108b87,14/07/1991,2020-08-13_05h03.11.303,proactive2,2020.1.2,Win32,60,5f341be081b9052c55068110,5f352ae15f1bf12f1449be3e,4,,,,,,stamp,,,,,,0,26,26,12,1,2,2,,,,,,,,,,,,,,,,,,,,,,,,,,,,,,,,,,,,,,,,,,,,,,,,,,,,,,,,,,,,,,,,,,,,,,,,,,,,,,,,,,,,,,,,,,,,,,,,,,,
,,,,,,,,,,stimuli/images/PICTURE_348.png,DUDE,5ed670d71bd6110836108b87,14/07/1991,2020-08-13_05h03.11.303,proactive2,2020.1.2,Win32,60,5f341be081b9052c55068110,5f352ae15f1bf12f1449be3e,4,,,,,,pepper,,,,,,0,27,27,59,1,6,2,,,,,,,,,,,,,,,,,,,,,,,,,,,,,,,,,,,,,,,,,,,,,,,,,,,,,,,,,,,,,,,,,,,,,,,,,,,,,,,,,,,,,,,,,,,,,,,,,,,
,,,,,,,,,,stimuli/images/PICTURE_509.png,APPLE,5ed670d71bd6110836108b87,14/07/1991,2020-08-13_05h03.11.303,proactive2,2020.1.2,Win32,60,5f341be081b9052c55068110,5f352ae15f1bf12f1449be3e,4,,,,,,telephone,,,,,,0,28,28,38,1,4,2,,,,,,,,,,,,,,,,,,,,,,,,,,,,,,,,,,,,,,,,,,,,,,,,,,,,,,,,,,,,,,,,,,,,,,,,,,,,,,,,,,,,,,,,,,,,,,,,,,,
,,,,,,,,,,stimuli/images/PICTURE_487.png,POLICY,5ed670d71bd6110836108b87,14/07/1991,2020-08-13_05h03.11.303,proactive2,2020.1.2,Win32,60,5f341be081b9052c55068110,5f352ae15f1bf12f1449be3e,4,,,,,,basket,,,,,,0,29,29,34,1,4,2,,,,,,,,,,,,,,,,,,,,,,,,,,,,,,,,,,,,,,,,,,,,,,,,,,,,,,,,,,,,,,,,,,,,,,,,,,,,,,,,,,,,,,,,,,,,,,,,,,,
,,,,,,,,,,stimuli/images/PICTURE_33.png,COPS,5ed670d71bd6110836108b87,14/07/1991,2020-08-13_05h03.11.303,proactive2,2020.1.2,Win32,60,5f341be081b9052c55068110,5f352ae15f1bf12f1449be3e,4,,,,,,frame,,,,,,0,30,30,29,1,3,2,,,,,,,,,,,,,,,,,,,,,,,,,,,,,,,,,,,,,,,,,,,,,,,,,,,,,,,,,,,,,,,,,,,,,,,,,,,,,,,,,,,,,,,,,,,,,,,,,,,
,,,,,,,,,,stimuli/images/PICTURE_311.png,TOILET,5ed670d71bd6110836108b87,14/07/1991,2020-08-13_05h03.11.303,proactive2,2020.1.2,Win32,60,5f341be081b9052c55068110,5f352ae15f1bf12f1449be3e,4,,,,,,razor,,,,,,0,31,31,54,1,6,2,,,,,,,,,,,,,,,,,,,,,,,,,,,,,,,,,,,,,,,,,,,,,,,,,,,,,,,,,,,,,,,,,,,,,,,,,,,,,,,,,,,,,,,,,,,,,,,,,,,
,,,,,,,,,,stimuli/images/PICTURE_18.png,RIVER,5ed670d71bd6110836108b87,14/07/1991,2020-08-13_05h03.11.303,proactive2,2020.1.2,Win32,60,5f341be081b9052c55068110,5f352ae15f1bf12f1449be3e,4,,,,,,planet,,,,,,0,32,32,22,1,3,2,,,,,,,,,,,,,,,,,,,,,,,,,,,,,,,,,,,,,,,,,,,,,,,,,,,,,,,,,,,,,,,,,,,,,,,,,,,,,,,,,,,,,,,,,,,,,,,,,,,
,,,,,,,,,,stimuli/images/PICTURE_32.png,LETTER,5ed670d71bd6110836108b87,14/07/1991,2020-08-13_05h03.11.303,proactive2,2020.1.2,Win32,60,5f341be081b9052c55068110,5f352ae15f1bf12f1449be3e,4,,,,,,crown,,,,,,0,33,33,56,1,6,2,,,,,,,,,,,,,,,,,,,,,,,,,,,,,,,,,,,,,,,,,,,,,,,,,,,,,,,,,,,,,,,,,,,,,,,,,,,,,,,,,,,,,,,,,,,,,,,,,,,
,,,,,,,,,,stimuli/images/PICTURE_487.png,ROOF,5ed670d71bd6110836108b87,14/07/1991,2020-08-13_05h03.11.303,proactive2,2020.1.2,Win32,60,5f341be081b9052c55068110,5f352ae15f1bf12f1449be3e,4,,,,,,basket,,,,,,0,34,34,50,1,6,2,,,,,,,,,,,,,,,,,,,,,,,,,,,,,,,,,,,,,,,,,,,,,,,,,,,,,,,,,,,,,,,,,,,,,,,,,,,,,,,,,,,,,,,,,,,,,,,,,,,
,,,,,,,,,,stimuli/images/PICTURE_356.png,CANDY,5ed670d71bd6110836108b87,14/07/1991,2020-08-13_05h03.11.303,proactive2,2020.1.2,Win32,60,5f341be081b9052c55068110,5f352ae15f1bf12f1449be3e,4,,,,,,pawn,,,,,,0,35,35,46,1,5,2,,,,,,,,,,,,,,,,,,,,,,,,,,,,,,,,,,,,,,,,,,,,,,,,,,,,,,,,,,,,,,,,,,,,,,,,,,,,,,,,,,,,,,,,,,,,,,,,,,,
,,,,,,,,,,stimuli/images/PICTURE_311.png,FLESH,5ed670d71bd6110836108b87,14/07/1991,2020-08-13_05h03.11.303,proactive2,2020.1.2,Win32,60,5f341be081b9052c55068110,5f352ae15f1bf12f1449be3e,4,,,,,,razor,,,,,,0,36,36,3,1,1,2,,,,,,,,,,,,,,,,,,,,,,,,,,,,,,,,,,,,,,,,,,,,,,,,,,,,,,,,,,,,,,,,,,,,,,,,,,,,,,,,,,,,,,,,,,,,,,,,,,,
,,,,,,,,,,stimuli/images/PICTURE_655.png,SALE,5ed670d71bd6110836108b87,14/07/1991,2020-08-13_05h03.11.303,proactive2,2020.1.2,Win32,60,5f341be081b9052c55068110,5f352ae15f1bf12f1449be3e,4,,,,,,megaphone,,,,,,0,37,37,57,1,6,2,,,,,,,,,,,,,,,,,,,,,,,,,,,,,,,,,,,,,,,,,,,,,,,,,,,,,,,,,,,,,,,,,,,,,,,,,,,,,,,,,,,,,,,,,,,,,,,,,,,
,,,,,,,,,,stimuli/images/PICTURE_327.png,LEADER,5ed670d71bd6110836108b87,14/07/1991,2020-08-13_05h03.11.303,proactive2,2020.1.2,Win32,60,5f341be081b9052c55068110,5f352ae15f1bf12f1449be3e,4,,,,,,helmet,,,,,,0,38,38,17,1,2,2,,,,,,,,,,,,,,,,,,,,,,,,,,,,,,,,,,,,,,,,,,,,,,,,,,,,,,,,,,,,,,,,,,,,,,,,,,,,,,,,,,,,,,,,,,,,,,,,,,,
,,,,,,,,,,stimuli/images/PICTURE_93.png,GIRL,5ed670d71bd6110836108b87,14/07/1991,2020-08-13_05h03.11.303,proactive2,2020.1.2,Win32,60,5f341be081b9052c55068110,5f352ae15f1bf12f1449be3e,4,,,,,,skateboard,,,,,,0,39,39,31,1,4,2,,,,,,,,,,,,,,,,,,,,,,,,,,,,,,,,,,,,,,,,,,,,,,,,,,,,,,,,,,,,,,,,,,,,,,,,,,,,,,,,,,,,,,,,,,,,,,,,,,,
,,,,,,,,,,stimuli/images/PICTURE_285.png,WRITER,5ed670d71bd6110836108b87,14/07/1991,2020-08-13_05h03.11.303,proactive2,2020.1.2,Win32,60,5f341be081b9052c55068110,5f352ae15f1bf12f1449be3e,4,,,,,,carrot,,,,,,0,40,40,6,1,1,2,,,,,,,,,,,,,,,,,,,,,,,,,,,,,,,,,,,,,,,,,,,,,,,,,,,,,,,,,,,,,,,,,,,,,,,,,,,,,,,,,,,,,,,,,,,,,,,,,,,
,,,,,,,,,,stimuli/images/PICTURE_470.png,MOMENT,5ed670d71bd6110836108b87,14/07/1991,2020-08-13_05h03.11.303,proactive2,2020.1.2,Win32,60,5f341be081b9052c55068110,5f352ae15f1bf12f1449be3e,4,,,,,,motorbike,,,,,,0,41,41,40,1,5,2,,,,,,,,,,,,,,,,,,,,,,,,,,,,,,,,,,,,,,,,,,,,,,,,,,,,,,,,,,,,,,,,,,,,,,,,,,,,,,,,,,,,,,,,,,,,,,,,,,,
,,,,,,,,,,stimuli/images/PICTURE_452.png,COPS,5ed670d71bd6110836108b87,14/07/1991,2020-08-13_05h03.11.303,proactive2,2020.1.2,Win32,60,5f341be081b9052c55068110,5f352ae15f1bf12f1449be3e,4,,,,,,watch,,,,,,0,42,42,0,1,1,2,,,,,,,,,,,,,,,,,,,,,,,,,,,,,,,,,,,,,,,,,,,,,,,,,,,,,,,,,,,,,,,,,,,,,,,,,,,,,,,,,,,,,,,,,,,,,,,,,,,
,,,,,,,,,,stimuli/images/PICTURE_509.png,BATH,5ed670d71bd6110836108b87,14/07/1991,2020-08-13_05h03.11.303,proactive2,2020.1.2,Win32,60,5f341be081b9052c55068110,5f352ae15f1bf12f1449be3e,4,,,,,,telephone,,,,,,0,43,43,15,1,2,2,,,,,,,,,,,,,,,,,,,,,,,,,,,,,,,,,,,,,,,,,,,,,,,,,,,,,,,,,,,,,,,,,,,,,,,,,,,,,,,,,,,,,,,,,,,,,,,,,,,
,,,,,,,,,,stimuli/images/PICTURE_348.png,TOILET,5ed670d71bd6110836108b87,14/07/1991,2020-08-13_05h03.11.303,proactive2,2020.1.2,Win32,60,5f341be081b9052c55068110,5f352ae15f1bf12f1449be3e,4,,,,,,pepper,,,,,,0,44,44,4,1,1,2,,,,,,,,,,,,,,,,,,,,,,,,,,,,,,,,,,,,,,,,,,,,,,,,,,,,,,,,,,,,,,,,,,,,,,,,,,,,,,,,,,,,,,,,,,,,,,,,,,,
,,,,,,,,,,stimuli/images/PICTURE_750.png,POLICY,5ed670d71bd6110836108b87,14/07/1991,2020-08-13_05h03.11.303,proactive2,2020.1.2,Win32,60,5f341be081b9052c55068110,5f352ae15f1bf12f1449be3e,4,,,,,,kettle,,,,,,0,45,45,44,1,5,2,,,,,,,,,,,,,,,,,,,,,,,,,,,,,,,,,,,,,,,,,,,,,,,,,,,,,,,,,,,,,,,,,,,,,,,,,,,,,,,,,,,,,,,,,,,,,,,,,,,
,,,,,,,,,,stimuli/images/PICTURE_405.png,HOUSE,5ed670d71bd6110836108b87,14/07/1991,2020-08-13_05h03.11.303,proactive2,2020.1.2,Win32,60,5f341be081b9052c55068110,5f352ae15f1bf12f1449be3e,4,,,,,,anchor,,,,,,0,46,46,2,1,1,2,,,,,,,,,,,,,,,,,,,,,,,,,,,,,,,,,,,,,,,,,,,,,,,,,,,,,,,,,,,,,,,,,,,,,,,,,,,,,,,,,,,,,,,,,,,,,,,,,,,
,,,,,,,,,,stimuli/images/PICTURE_177.png,HOUSE,5ed670d71bd6110836108b87,14/07/1991,2020-08-13_05h03.11.303,proactive2,2020.1.2,Win32,60,5f341be081b9052c55068110,5f352ae15f1bf12f1449be3e,4,,,,,,mushroom,,,,,,0,47,47,25,1,3,2,,,,,,,,,,,,,,,,,,,,,,,,,,,,,,,,,,,,,,,,,,,,,,,,,,,,,,,,,,,,,,,,,,,,,,,,,,,,,,,,,,,,,,,,,,,,,,,,,,,
,,,,,,,,,,stimuli/images/PICTURE_215.png,FOOD,5ed670d71bd6110836108b87,14/07/1991,2020-08-13_05h03.11.303,proactive2,2020.1.2,Win32,60,5f341be081b9052c55068110,5f352ae15f1bf12f1449be3e,4,,,,,,boot,,,,,,0,48,48,5,1,1,2,,,,,,,,,,,,,,,,,,,,,,,,,,,,,,,,,,,,,,,,,,,,,,,,,,,,,,,,,,,,,,,,,,,,,,,,,,,,,,,,,,,,,,,,,,,,,,,,,,,
,,,,,,,,,,stimuli/images/PICTURE_654.png,YEAR,5ed670d71bd6110836108b87,14/07/1991,2020-08-13_05h03.11.303,proactive2,2020.1.2,Win32,60,5f341be081b9052c55068110,5f352ae15f1bf12f1449be3e,4,,,,,,pencil,,,,,,0,49,49,41,1,5,2,,,,,,,,,,,,,,,,,,,,,,,,,,,,,,,,,,,,,,,,,,,,,,,,,,,,,,,,,,,,,,,,,,,,,,,,,,,,,,,,,,,,,,,,,,,,,,,,,,,
,,,,,,,,,,stimuli/images/PICTURE_95.png,NIGHT,5ed670d71bd6110836108b87,14/07/1991,2020-08-13_05h03.11.303,proactive2,2020.1.2,Win32,60,5f341be081b9052c55068110,5f352ae15f1bf12f1449be3e,4,,,,,,suitcase,,,,,,0,50,50,37,1,4,2,,,,,,,,,,,,,,,,,,,,,,,,,,,,,,,,,,,,,,,,,,,,,,,,,,,,,,,,,,,,,,,,,,,,,,,,,,,,,,,,,,,,,,,,,,,,,,,,,,,
,,,,,,,,,,stimuli/images/PICTURE_453.png,FAMILY,5ed670d71bd6110836108b87,14/07/1991,2020-08-13_05h03.11.303,proactive2,2020.1.2,Win32,60,5f341be081b9052c55068110,5f352ae15f1bf12f1449be3e,4,,,,,,scissors,,,,,,0,51,51,48,1,5,2,,,,,,,,,,,,,,,,,,,,,,,,,,,,,,,,,,,,,,,,,,,,,,,,,,,,,,,,,,,,,,,,,,,,,,,,,,,,,,,,,,,,,,,,,,,,,,,,,,,
,,,,,,,,,,stimuli/images/PICTURE_296.png,CLOCK,5ed670d71bd6110836108b87,14/07/1991,2020-08-13_05h03.11.303,proactive2,2020.1.2,Win32,60,5f341be081b9052c55068110,5f352ae15f1bf12f1449be3e,4,,,,,,bolt,,,,,,0,52,52,18,1,2,2,,,,,,,,,,,,,,,,,,,,,,,,,,,,,,,,,,,,,,,,,,,,,,,,,,,,,,,,,,,,,,,,,,,,,,,,,,,,,,,,,,,,,,,,,,,,,,,,,,,
,,,,,,,,,,stimuli/images/PICTURE_470.png,BEAUTY,5ed670d71bd6110836108b87,14/07/1991,2020-08-13_05h03.11.303,proactive2,2020.1.2,Win32,60,5f341be081b9052c55068110,5f352ae15f1bf12f1449be3e,4,,,,,,motorbike,,,,,,0,53,53,26,1,3,2,,,,,,,,,,,,,,,,,,,,,,,,,,,,,,,,,,,,,,,,,,,,,,,,,,,,,,,,,,,,,,,,,,,,,,,,,,,,,,,,,,,,,,,,,,,,,,,,,,,
,,,,,,,,,,stimuli/images/PICTURE_509.png,MILLER,5ed670d71bd6110836108b87,14/07/1991,2020-08-13_05h03.11.303,proactive2,2020.1.2,Win32,60,5f341be081b9052c55068110,5f352ae15f1bf12f1449be3e,4,,,,,,telephone,,,,,,0,54,54,49,1,5,2,,,,,,,,,,,,,,,,,,,,,,,,,,,,,,,,,,,,,,,,,,,,,,,,,,,,,,,,,,,,,,,,,,,,,,,,,,,,,,,,,,,,,,,,,,,,,,,,,,,
,,,,,,,,,,stimuli/images/PICTURE_147.png,LEADER,5ed670d71bd6110836108b87,14/07/1991,2020-08-13_05h03.11.303,proactive2,2020.1.2,Win32,60,5f341be081b9052c55068110,5f352ae15f1bf12f1449be3e,4,,,,,,hanger,,,,,,0,55,55,33,1,4,2,,,,,,,,,,,,,,,,,,,,,,,,,,,,,,,,,,,,,,,,,,,,,,,,,,,,,,,,,,,,,,,,,,,,,,,,,,,,,,,,,,,,,,,,,,,,,,,,,,,
,,,,,,,,,,stimuli/images/PICTURE_677.png,PHOTO,5ed670d71bd6110836108b87,14/07/1991,2020-08-13_05h03.11.303,proactive2,2020.1.2,Win32,60,5f341be081b9052c55068110,5f352ae15f1bf12f1449be3e,4,,,,,,map,,,,,,0,56,56,14,1,2,2,,,,,,,,,,,,,,,,,,,,,,,,,,,,,,,,,,,,,,,,,,,,,,,,,,,,,,,,,,,,,,,,,,,,,,,,,,,,,,,,,,,,,,,,,,,,,,,,,,,
,,,,,,,,,,stimuli/images/PICTURE_297.png,BODY,5ed670d71bd6110836108b87,14/07/1991,2020-08-13_05h03.11.303,proactive2,2020.1.2,Win32,60,5f341be081b9052c55068110,5f352ae15f1bf12f1449be3e,4,,,,,,aeroplane,,,,,,0,57,57,51,1,6,2,,,,,,,,,,,,,,,,,,,,,,,,,,,,,,,,,,,,,,,,,,,,,,,,,,,,,,,,,,,,,,,,,,,,,,,,,,,,,,,,,,,,,,,,,,,,,,,,,,,
,,,,,,,,,,stimuli/images/PICTURE_491.png,SERIES,5ed670d71bd6110836108b87,14/07/1991,2020-08-13_05h03.11.303,proactive2,2020.1.2,Win32,60,5f341be081b9052c55068110,5f352ae15f1bf12f1449be3e,4,,,,,,rug,,,,,,0,58,58,39,1,4,2,,,,,,,,,,,,,,,,,,,,,,,,,,,,,,,,,,,,,,,,,,,,,,,,,,,,,,,,,,,,,,,,,,,,,,,,,,,,,,,,,,,,,,,,,,,,,,,,,,,
,,GIRL,7.75243,1,,,,,,stimuli/images/PICTURE_93.png,GIRL,5ed670d71bd6110836108b87,14/07/1991,2020-08-13_05h03.11.303,proactive2,2020.1.2,Win32,60,5f341be081b9052c55068110,5f352ae15f1bf12f1449be3e,4,,,,,,skateboard,,,,,,,,,,,4,2,0,0,0,31,1,,,,,,,,,,,,,,,,,,,,,,,,,,,,,,,,,,,,,,,,,,,,,,,,,,,,,,,,,,,,,,,,,,,,,,,,,,,,,,,,,,,,,,,,,,,,,,
,,?,0.00121,0,,,,,,stimuli/images/PICTURE_564.png,PLENTY,5ed670d71bd6110836108b87,14/07/1991,2020-08-13_05h03.11.303,proactive2,2020.1.2,Win32,60,5f341be081b9052c55068110,5f352ae15f1bf12f1449be3e,4,,,,,,spoon,,,,,,,,,,,2,2,0,1,1,11,1,,,,,,,,,,,,,,,,,,,,,,,,,,,,,,,,,,,,,,,,,,,,,,,,,,,,,,,,,,,,,,,,,,,,,,,,,,,,,,,,,,,,,,,,,,,,,,
,,?,0.00121,0,,,,,,stimuli/images/PICTURE_405.png,JUNGLE,5ed670d71bd6110836108b87,14/07/1991,2020-08-13_05h03.11.303,proactive2,2020.1.2,Win32,60,5f341be081b9052c55068110,5f352ae15f1bf12f1449be3e,4,,,,,,anchor,,,,,,,,,,,6,2,0,2,2,58,1,,,,,,,,,,,,,,,,,,,,,,,,,,,,,,,,,,,,,,,,,,,,,,,,,,,,,,,,,,,,,,,,,,,,,,,,,,,,,,,,,,,,,,,,,,,,,,
,,?,0.00077,0,,,,,,stimuli/images/PICTURE_57.png,CASINO,5ed670d71bd6110836108b87,14/07/1991,2020-08-13_05h03.11.303,proactive2,2020.1.2,Win32,60,5f341be081b9052c55068110,5f352ae15f1bf12f1449be3e,4,,,,,,stamp,,,,,,,,,,,2,2,0,3,3,12,1,,,,,,,,,,,,,,,,,,,,,,,,,,,,,,,,,,,,,,,,,,,,,,,,,,,,,,,,,,,,,,,,,,,,,,,,,,,,,,,,,,,,,,,,,,,,,,
,,?,0.00064,0,,,,,,stimuli/images/PICTURE_57.png,NATION,5ed670d71bd6110836108b87,14/07/1991,2020-08-13_05h03.11.303,proactive2,2020.1.2,Win32,60,5f341be081b9052c55068110,5f352ae15f1bf12f1449be3e,4,,,,,,stamp,,,,,,,,,,,3,2,0,4,4,21,1,,,,,,,,,,,,,,,,,,,,,,,,,,,,,,,,,,,,,,,,,,,,,,,,,,,,,,,,,,,,,,,,,,,,,,,,,,,,,,,,,,,,,,,,,,,,,,
,,?,0.00062,0,,,,,,stimuli/images/PICTURE_509.png,SHOTS,5ed670d71bd6110836108b87,14/07/1991,2020-08-13_05h03.11.303,proactive2,2020.1.2,Win32,60,5f341be081b9052c55068110,5f352ae15f1bf12f1449be3e,4,,,,,,telephone,,,,,,,,,,,1,2,0,5,5,7,1,,,,,,,,,,,,,,,,,,,,,,,,,,,,,,,,,,,,,,,,,,,,,,,,,,,,,,,,,,,,,,,,,,,,,,,,,,,,,,,,,,,,,,,,,,,,,,
,,HOUSE,4.14831,1,,,,,,stimuli/images/PICTURE_504.png,HOUSE,5ed670d71bd6110836108b87,14/07/1991,2020-08-13_05h03.11.303,proactive2,2020.1.2,Win32,60,5f341be081b9052c55068110,5f352ae15f1bf12f1449be3e,4,,,,,,wheel,,,,,,,,,,,4,2,0,6,6,36,1,,,,,,,,,,,,,,,,,,,,,,,,,,,,,,,,,,,,,,,,,,,,,,,,,,,,,,,,,,,,,,,,,,,,,,,,,,,,,,,,,,,,,,,,,,,,,,
,,?,0.00258,0,,,,,,stimuli/images/PICTURE_405.png,JUNGLE,5ed670d71bd6110836108b87,14/07/1991,2020-08-13_05h03.11.303,proactive2,2020.1.2,Win32,60,5f341be081b9052c55068110,5f352ae15f1bf12f1449be3e,4,,,,,,anchor,,,,,,,,,,,2,2,0,7,7,13,1,,,,,,,,,,,,,,,,,,,,,,,,,,,,,,,,,,,,,,,,,,,,,,,,,,,,,,,,,,,,,,,,,,,,,,,,,,,,,,,,,,,,,,,,,,,,,,
,,?,0.000715,0,,,,,,stimuli/images/PICTURE_677.png,FAMILY,5ed670d71bd6110836108b87,14/07/1991,2020-08-13_05h03.11.303,proactive2,2020.1.2,Win32,60,5f341be081b9052c55068110,5f352ae15f1bf12f1449be3e,4,,,,,,map,,,,,,,,,,,6,2,0,8,8,53,1,,,,,,,,,,,,,,,,,,,,,,,,,,,,,,,,,,,,,,,,,,,,,,,,,,,,,,,,,,,,,,,,,,,,,,,,,,,,,,,,,,,,,,,,,,,,,,
,,?,0.00064,0,,,,,,stimuli/images/PICTURE_33.png,COPS,5ed670d71bd6110836108b87,14/07/1991,2020-08-13_05h03.11.303,proactive2,2020.1.2,Win32,60,5f341be081b9052c55068110,5f352ae15f1bf12f1449be3e,4,,,,,,frame,,,,,,,,,,,3,2,0,9,9,29,1,,,,,,,,,,,,,,,,,,,,,,,,,,,,,,,,,,,,,,,,,,,,,,,,,,,,,,,,,,,,,,,,,,,,,,,,,,,,,,,,,,,,,,,,,,,,,,
,,?,0.00064,0,,,,,,stimuli/images/PICTURE_2.png,YARD,5ed670d71bd6110836108b87,14/07/1991,2020-08-13_05h03.11.303,proactive2,2020.1.2,Win32,60,5f341be081b9052c55068110,5f352ae15f1bf12f1449be3e,4,,,,,,tyre,,,,,,,,,,,6,2,0,10,10,55,1,,,,,,,,,,,,,,,,,,,,,,,,,,,,,,,,,,,,,,,,,,,,,,,,,,,,,,,,,,,,,,,,,,,,,,,,,,,,,,,,,,,,,,,,,,,,,,
,,AREA,7.49048,1,,,,,,stimuli/images/PICTURE_2.png,AREA,5ed670d71bd6110836108b87,14/07/1991,2020-08-13_05h03.11.303,proactive2,2020.1.2,Win32,60,5f341be081b9052c55068110,5f352ae15f1bf12f1449be3e,4,,,,,,tyre,,,,,,,,,,,4,2,0,11,11,32,1,,,,,,,,,,,,,,,,,,,,,,,,,,,,,,,,,,,,,,,,,,,,,,,,,,,,,,,,,,,,,,,,,,,,,,,,,,,,,,,,,,,,,,,,,,,,,,
,,?,0.000895,0,,,,,,stimuli/images/PICTURE_296.png,CLOCK,5ed670d71bd6110836108b87,14/07/1991,2020-08-13_05h03.11.303,proactive2,2020.1.2,Win32,60,5f341be081b9052c55068110,5f352ae15f1bf12f1449be3e,4,,,,,,bolt,,,,,,,,,,,2,2,0,12,12,18,1,,,,,,,,,,,,,,,,,,,,,,,,,,,,,,,,,,,,,,,,,,,,,,,,,,,,,,,,,,,,,,,,,,,,,,,,,,,,,,,,,,,,,,,,,,,,,,
,,NIGHT,3.45339,1,,,,,,stimuli/images/PICTURE_95.png,NIGHT,5ed670d71bd6110836108b87,14/07/1991,2020-08-13_05h03.11.303,proactive2,2020.1.2,Win32,60,5f341be081b9052c55068110,5f352ae15f1bf12f1449be3e,4,,,,,,suitcase,,,,,,,,,,,4,2,0,13,13,37,1,,,,,,,,,,,,,,,,,,,,,,,,,,,,,,,,,,,,,,,,,,,,,,,,,,,,,,,,,,,,,,,,,,,,,,,,,,,,,,,,,,,,,,,,,,,,,,
,,?,0.000955,0,,,,,,stimuli/images/PICTURE_688.png,CLOCK,5ed670d71bd6110836108b87,14/07/1991,2020-08-13_05h03.11.303,proactive2,2020.1.2,Win32,60,5f341be081b9052c55068110,5f352ae15f1bf12f1449be3e,4,,,,,,runner,,,,,,,,,,,5,2,0,14,14,42,1,,,,,,,,,,,,,,,,,,,,,,,,,,,,,,,,,,,,,,,,,,,,,,,,,,,,,,,,,,,,,,,,,,,,,,,,,,,,,,,,,,,,,,,,,,,,,,
,,?,0.000695,0,,,,,,stimuli/images/PICTURE_160.png,HOTEL,5ed670d71bd6110836108b87,14/07/1991,2020-08-13_05h03.11.303,proactive2,2020.1.2,Win32,60,5f341be081b9052c55068110,5f352ae15f1bf12f1449be3e,4,,,,,,wheelbarrow,,,,,,,,,,,2,2,0,15,15,16,1,,,,,,,,,,,,,,,,,,,,,,,,,,,,,,,,,,,,,,,,,,,,,,,,,,,,,,,,,,,,,,,,,,,,,,,,,,,,,,,,,,,,,,,,,,,,,,
,,POLICY,3.77056,1,,,,,,stimuli/images/PICTURE_487.png,POLICY,5ed670d71bd6110836108b87,14/07/1991,2020-08-13_05h03.11.303,proactive2,2020.1.2,Win32,60,5f341be081b9052c55068110,5f352ae15f1bf12f1449be3e,4,,,,,,basket,,,,,,,,,,,4,2,0,16,16,34,1,,,,,,,,,,,,,,,,,,,,,,,,,,,,,,,,,,,,,,,,,,,,,,,,,,,,,,,,,,,,,,,,,,,,,,,,,,,,,,,,,,,,,,,,,,,,,,
,,?,0.001245,0,,,,,,stimuli/images/PICTURE_348.png,TOILET,5ed670d71bd6110836108b87,14/07/1991,2020-08-13_05h03.11.303,proactive2,2020.1.2,Win32,60,5f341be081b9052c55068110,5f352ae15f1bf12f1449be3e,4,,,,,,pepper,,,,,,,,,,,1,2,0,17,17,4,1,,,,,,,,,,,,,,,,,,,,,,,,,,,,,,,,,,,,,,,,,,,,,,,,,,,,,,,,,,,,,,,,,,,,,,,,,,,,,,,,,,,,,,,,,,,,,,
,,?,0.00065,0,,,,,,stimuli/images/PICTURE_487.png,ROOF,5ed670d71bd6110836108b87,14/07/1991,2020-08-13_05h03.11.303,proactive2,2020.1.2,Win32,60,5f341be081b9052c55068110,5f352ae15f1bf12f1449be3e,4,,,,,,basket,,,,,,,,,,,6,2,0,18,18,50,1,,,,,,,,,,,,,,,,,,,,,,,,,,,,,,,,,,,,,,,,,,,,,,,,,,,,,,,,,,,,,,,,,,,,,,,,,,,,,,,,,,,,,,,,,,,,,,
,,?,0.000645,0,,,,,,stimuli/images/PICTURE_348.png,DUDE,5ed670d71bd6110836108b87,14/07/1991,2020-08-13_05h03.11.303,proactive2,2020.1.2,Win32,60,5f341be081b9052c55068110,5f352ae15f1bf12f1449be3e,4,,,,,,pepper,,,,,,,,,,,6,2,0,19,19,59,1,,,,,,,,,,,,,,,,,,,,,,,,,,,,,,,,,,,,,,,,,,,,,,,,,,,,,,,,,,,,,,,,,,,,,,,,,,,,,,,,,,,,,,,,,,,,,,
,,?,0.000745,0,,,,,,stimuli/images/PICTURE_18.png,RIVER,5ed670d71bd6110836108b87,14/07/1991,2020-08-13_05h03.11.303,proactive2,2020.1.2,Win32,60,5f341be081b9052c55068110,5f352ae15f1bf12f1449be3e,4,,,,,,planet,,,,,,,,,,,3,2,0,20,20,22,1,,,,,,,,,,,,,,,,,,,,,,,,,,,,,,,,,,,,,,,,,,,,,,,,,,,,,,,,,,,,,,,,,,,,,,,,,,,,,,,,,,,,,,,,,,,,,,
,,NIGHT,4.00322,0,,,,,,stimuli/images/PICTURE_314.png,SPEECH,5ed670d71bd6110836108b87,14/07/1991,2020-08-13_05h03.11.303,proactive2,2020.1.2,Win32,60,5f341be081b9052c55068110,5f352ae15f1bf12f1449be3e,4,,,,,,perfume,,,,,,,,,,,4,2,0,21,21,35,1,,,,,,,,,,,,,,,,,,,,,,,,,,,,,,,,,,,,,,,,,,,,,,,,,,,,,,,,,,,,,,,,,,,,,,,,,,,,,,,,,,,,,,,,,,,,,,
,,?,0.000895,0,,,,,,stimuli/images/PICTURE_667.png,GLASS,5ed670d71bd6110836108b87,14/07/1991,2020-08-13_05h03.11.303,proactive2,2020.1.2,Win32,60,5f341be081b9052c55068110,5f352ae15f1bf12f1449be3e,4,,,,,,daisy,,,,,,,,,,,3,2,0,22,22,27,1,,,,,,,,,,,,,,,,,,,,,,,,,,,,,,,,,,,,,,,,,,,,,,,,,,,,,,,,,,,,,,,,,,,,,,,,,,,,,,,,,,,,,,,,,,,,,,
,,?,0.000665,0,,,,,,stimuli/images/PICTURE_123.png,SALE,5ed670d71bd6110836108b87,14/07/1991,2020-08-13_05h03.11.303,proactive2,2020.1.2,Win32,60,5f341be081b9052c55068110,5f352ae15f1bf12f1449be3e,4,,,,,,dart,,,,,,,,,,,1,2,0,23,23,8,1,,,,,,,,,,,,,,,,,,,,,,,,,,,,,,,,,,,,,,,,,,,,,,,,,,,,,,,,,,,,,,,,,,,,,,,,,,,,,,,,,,,,,,,,,,,,,,
,,?,0.00068,0,,,,,,stimuli/images/PICTURE_470.png,BEAUTY,5ed670d71bd6110836108b87,14/07/1991,2020-08-13_05h03.11.303,proactive2,2020.1.2,Win32,60,5f341be081b9052c55068110,5f352ae15f1bf12f1449be3e,4,,,,,,motorbike,,,,,,,,,,,3,2,0,24,24,26,1,,,,,,,,,,,,,,,,,,,,,,,,,,,,,,,,,,,,,,,,,,,,,,,,,,,,,,,,,,,,,,,,,,,,,,,,,,,,,,,,,,,,,,,,,,,,,,
,,?,0.000775,0,,,,,,stimuli/images/PICTURE_68.png,KIND,5ed670d71bd6110836108b87,14/07/1991,2020-08-13_05h03.11.303,proactive2,2020.1.2,Win32,60,5f341be081b9052c55068110,5f352ae15f1bf12f1449be3e,4,,,,,,candle,,,,,,,,,,,3,2,0,25,25,23,1,,,,,,,,,,,,,,,,,,,,,,,,,,,,,,,,,,,,,,,,,,,,,,,,,,,,,,,,,,,,,,,,,,,,,,,,,,,,,,,,,,,,,,,,,,,,,,
,,?,0.000645,0,,,,,,stimuli/images/PICTURE_285.png,WRITER,5ed670d71bd6110836108b87,14/07/1991,2020-08-13_05h03.11.303,proactive2,2020.1.2,Win32,60,5f341be081b9052c55068110,5f352ae15f1bf12f1449be3e,4,,,,,,carrot,,,,,,,,,,,1,2,0,26,26,6,1,,,,,,,,,,,,,,,,,,,,,,,,,,,,,,,,,,,,,,,,,,,,,,,,,,,,,,,,,,,,,,,,,,,,,,,,,,,,,,,,,,,,,,,,,,,,,,
,,?,0.00065,0,,,,,,stimuli/images/PICTURE_655.png,SALE,5ed670d71bd6110836108b87,14/07/1991,2020-08-13_05h03.11.303,proactive2,2020.1.2,Win32,60,5f341be081b9052c55068110,5f352ae15f1bf12f1449be3e,4,,,,,,megaphone,,,,,,,,,,,6,2,0,27,27,57,1,,,,,,,,,,,,,,,,,,,,,,,,,,,,,,,,,,,,,,,,,,,,,,,,,,,,,,,,,,,,,,,,,,,,,,,,,,,,,,,,,,,,,,,,,,,,,,
,,?,0.00066,0,,,,,,stimuli/images/PICTURE_215.png,FOOD,5ed670d71bd6110836108b87,14/07/1991,2020-08-13_05h03.11.303,proactive2,2020.1.2,Win32,60,5f341be081b9052c55068110,5f352ae15f1bf12f1449be3e,4,,,,,,boot,,,,,,,,,,,1,2,0,28,28,5,1,,,,,,,,,,,,,,,,,,,,,,,,,,,,,,,,,,,,,,,,,,,,,,,,,,,,,,,,,,,,,,,,,,,,,,,,,,,,,,,,,,,,,,,,,,,,,,
,,?,0.00106,0,,,,,,stimuli/images/PICTURE_654.png,COPS,5ed670d71bd6110836108b87,14/07/1991,2020-08-13_05h03.11.303,proactive2,2020.1.2,Win32,60,5f341be081b9052c55068110,5f352ae15f1bf12f1449be3e,4,,,,,,pencil,,,,,,,,,,,2,2,0,29,29,10,1,,,,,,,,,,,,,,,,,,,,,,,,,,,,,,,,,,,,,,,,,,,,,,,,,,,,,,,,,,,,,,,,,,,,,,,,,,,,,,,,,,,,,,,,,,,,,,
,,?,0.00087,0,,,,,,stimuli/images/PICTURE_654.png,YEAR,5ed670d71bd6110836108b87,14/07/1991,2020-08-13_05h03.11.303,proactive2,2020.1.2,Win32,60,5f341be081b9052c55068110,5f352ae15f1bf12f1449be3e,4,,,,,,pencil,,,,,,,,,,,5,2,0,30,30,41,1,,,,,,,,,,,,,,,,,,,,,,,,,,,,,,,,,,,,,,,,,,,,,,,,,,,,,,,,,,,,,,,,,,,,,,,,,,,,,,,,,,,,,,,,,,,,,,
,,?,0.000715,0,,,,,,stimuli/images/PICTURE_677.png,PHOTO,5ed670d71bd6110836108b87,14/07/1991,2020-08-13_05h03.11.303,proactive2,2020.1.2,Win32,60,5f341be081b9052c55068110,5f352ae15f1bf12f1449be3e,4,,,,,,map,,,,,,,,,,,2,2,0,31,31,14,1,,,,,,,,,,,,,,,,,,,,,,,,,,,,,,,,,,,,,,,,,,,,,,,,,,,,,,,,,,,,,,,,,,,,,,,,,,,,,,,,,,,,,,,,,,,,,,
,,?,0.000735,0,,,,,,stimuli/images/PICTURE_32.png,LETTER,5ed670d71bd6110836108b87,14/07/1991,2020-08-13_05h03.11.303,proactive2,2020.1.2,Win32,60,5f341be081b9052c55068110,5f352ae15f1bf12f1449be3e,4,,,,,,crown,,,,,,,,,,,6,2,0,32,32,56,1,,,,,,,,,,,,,,,,,,,,,,,,,,,,,,,,,,,,,,,,,,,,,,,,,,,,,,,,,,,,,,,,,,,,,,,,,,,,,,,,,,,,,,,,,,,,,,
,,?,0.000675,0,,,,,,stimuli/images/PICTURE_509.png,MILLER,5ed670d71bd6110836108b87,14/07/1991,2020-08-13_05h03.11.303,proactive2,2020.1.2,Win32,60,5f341be081b9052c55068110,5f352ae15f1bf12f1449be3e,4,,,,,,telephone,,,,,,,,,,,5,2,0,33,33,49,1,,,,,,,,,,,,,,,,,,,,,,,,,,,,,,,,,,,,,,,,,,,,,,,,,,,,,,,,,,,,,,,,,,,,,,,,,,,,,,,,,,,,,,,,,,,,,,
,,?,0.000625,0,,,,,,stimuli/images/PICTURE_57.png,CANDY,5ed670d71bd6110836108b87,14/07/1991,2020-08-13_05h03.11.303,proactive2,2020.1.2,Win32,60,5f341be081b9052c55068110,5f352ae15f1bf12f1449be3e,4,,,,,,stamp,,,,,,,,,,,6,2,0,34,34,52,1,,,,,,,,,,,,,,,,,,,,,,,,,,,,,,,,,,,,,,,,,,,,,,,,,,,,,,,,,,,,,,,,,,,,,,,,,,,,,,,,,,,,,,,,,,,,,,
,,SERVICE,8.1722,0,,,,,,stimuli/images/PICTURE_491.png,SERIES,5ed670d71bd6110836108b87,14/07/1991,2020-08-13_05h03.11.303,proactive2,2020.1.2,Win32,60,5f341be081b9052c55068110,5f352ae15f1bf12f1449be3e,4,,,,,,rug,,,,,,,,,,,4,2,0,35,35,39,1,,,,,,,,,,,,,,,,,,,,,,,,,,,,,,,,,,,,,,,,,,,,,,,,,,,,,,,,,,,,,,,,,,,,,,,,,,,,,,,,,,,,,,,,,,,,,,
,,?,0.001085,0,,,,,,stimuli/images/PICTURE_708.png,VALLEY,5ed670d71bd6110836108b87,14/07/1991,2020-08-13_05h03.11.303,proactive2,2020.1.2,Win32,60,5f341be081b9052c55068110,5f352ae15f1bf12f1449be3e,4,,,,,,monkey,,,,,,,,,,,5,2,0,36,36,45,1,,,,,,,,,,,,,,,,,,,,,,,,,,,,,,,,,,,,,,,,,,,,,,,,,,,,,,,,,,,,,,,,,,,,,,,,,,,,,,,,,,,,,,,,,,,,,,
,,?,0.000945,0,,,,,,stimuli/images/PICTURE_509.png,BATH,5ed670d71bd6110836108b87,14/07/1991,2020-08-13_05h03.11.303,proactive2,2020.1.2,Win32,60,5f341be081b9052c55068110,5f352ae15f1bf12f1449be3e,4,,,,,,telephone,,,,,,,,,,,2,2,0,37,37,15,1,,,,,,,,,,,,,,,,,,,,,,,,,,,,,,,,,,,,,,,,,,,,,,,,,,,,,,,,,,,,,,,,,,,,,,,,,,,,,,,,,,,,,,,,,,,,,,
,,?,0.00064,0,,,,,,stimuli/images/PICTURE_177.png,HOUSE,5ed670d71bd6110836108b87,14/07/1991,2020-08-13_05h03.11.303,proactive2,2020.1.2,Win32,60,5f341be081b9052c55068110,5f352ae15f1bf12f1449be3e,4,,,,,,mushroom,,,,,,,,,,,3,2,0,38,38,25,1,,,,,,,,,,,,,,,,,,,,,,,,,,,,,,,,,,,,,,,,,,,,,,,,,,,,,,,,,,,,,,,,,,,,,,,,,,,,,,,,,,,,,,,,,,,,,,
,,?,0.000635,0,,,,,,stimuli/images/PICTURE_356.png,CANDY,5ed670d71bd6110836108b87,14/07/1991,2020-08-13_05h03.11.303,proactive2,2020.1.2,Win32,60,5f341be081b9052c55068110,5f352ae15f1bf12f1449be3e,4,,,,,,pawn,,,,,,,,,,,5,2,0,39,39,46,1,,,,,,,,,,,,,,,,,,,,,,,,,,,,,,,,,,,,,,,,,,,,,,,,,,,,,,,,,,,,,,,,,,,,,,,,,,,,,,,,,,,,,,,,,,,,,,
,,?,0.00088,0,,,,,,stimuli/images/PICTURE_453.png,FAMILY,5ed670d71bd6110836108b87,14/07/1991,2020-08-13_05h03.11.303,proactive2,2020.1.2,Win32,60,5f341be081b9052c55068110,5f352ae15f1bf12f1449be3e,4,,,,,,scissors,,,,,,,,,,,5,2,0,40,40,48,1,,,,,,,,,,,,,,,,,,,,,,,,,,,,,,,,,,,,,,,,,,,,,,,,,,,,,,,,,,,,,,,,,,,,,,,,,,,,,,,,,,,,,,,,,,,,,,
,,?,0.00081,0,,,,,,stimuli/images/PICTURE_215.png,LEADER,5ed670d71bd6110836108b87,14/07/1991,2020-08-13_05h03.11.303,proactive2,2020.1.2,Win32,60,5f341be081b9052c55068110,5f352ae15f1bf12f1449be3e,4,,,,,,boot,,,,,,,,,,,5,2,0,41,41,43,1,,,,,,,,,,,,,,,,,,,,,,,,,,,,,,,,,,,,,,,,,,,,,,,,,,,,,,,,,,,,,,,,,,,,,,,,,,,,,,,,,,,,,,,,,,,,,,
,,?,0.001395,0,,,,,,stimuli/images/PICTURE_452.png,COPS,5ed670d71bd6110836108b87,14/07/1991,2020-08-13_05h03.11.303,proactive2,2020.1.2,Win32,60,5f341be081b9052c55068110,5f352ae15f1bf12f1449be3e,4,,,,,,watch,,,,,,,,,,,1,2,0,42,42,0,1,,,,,,,,,,,,,,,,,,,,,,,,,,,,,,,,,,,,,,,,,,,,,,,,,,,,,,,,,,,,,,,,,,,,,,,,,,,,,,,,,,,,,,,,,,,,,,
,,?,0.00068,0,,,,,,stimuli/images/PICTURE_311.png,TOILET,5ed670d71bd6110836108b87,14/07/1991,2020-08-13_05h03.11.303,proactive2,2020.1.2,Win32,60,5f341be081b9052c55068110,5f352ae15f1bf12f1449be3e,4,,,,,,razor,,,,,,,,,,,6,2,0,43,43,54,1,,,,,,,,,,,,,,,,,,,,,,,,,,,,,,,,,,,,,,,,,,,,,,,,,,,,,,,,,,,,,,,,,,,,,,,,,,,,,,,,,,,,,,,,,,,,,,
,,?,0.000705,0,,,,,,stimuli/images/PICTURE_215.png,BOYS,5ed670d71bd6110836108b87,14/07/1991,2020-08-13_05h03.11.303,proactive2,2020.1.2,Win32,60,5f341be081b9052c55068110,5f352ae15f1bf12f1449be3e,4,,,,,,boot,,,,,,,,,,,3,2,0,44,44,24,1,,,,,,,,,,,,,,,,,,,,,,,,,,,,,,,,,,,,,,,,,,,,,,,,,,,,,,,,,,,,,,,,,,,,,,,,,,,,,,,,,,,,,,,,,,,,,,
,,?,0.000675,0,,,,,,stimuli/images/PICTURE_692.png,DUDE,5ed670d71bd6110836108b87,14/07/1991,2020-08-13_05h03.11.303,proactive2,2020.1.2,Win32,60,5f341be081b9052c55068110,5f352ae15f1bf12f1449be3e,4,,,,,,cherry,,,,,,,,,,,5,2,0,45,45,47,1,,,,,,,,,,,,,,,,,,,,,,,,,,,,,,,,,,,,,,,,,,,,,,,,,,,,,,,,,,,,,,,,,,,,,,,,,,,,,,,,,,,,,,,,,,,,,,
,,?,0.00064,0,,,,,,stimuli/images/PICTURE_403.png,FAMILY,5ed670d71bd6110836108b87,14/07/1991,2020-08-13_05h03.11.303,proactive2,2020.1.2,Win32,60,5f341be081b9052c55068110,5f352ae15f1bf12f1449be3e,4,,,,,,cathedral,,,,,,,,,,,1,2,0,46,46,9,1,,,,,,,,,,,,,,,,,,,,,,,,,,,,,,,,,,,,,,,,,,,,,,,,,,,,,,,,,,,,,,,,,,,,,,,,,,,,,,,,,,,,,,,,,,,,,,
,,?,0.00063,0,,,,,,stimuli/images/PICTURE_285.png,PRINCE,5ed670d71bd6110836108b87,14/07/1991,2020-08-13_05h03.11.303,proactive2,2020.1.2,Win32,60,5f341be081b9052c55068110,5f352ae15f1bf12f1449be3e,4,,,,,,carrot,,,,,,,,,,,3,2,0,47,47,20,1,,,,,,,,,,,,,,,,,,,,,,,,,,,,,,,,,,,,,,,,,,,,,,,,,,,,,,,,,,,,,,,,,,,,,,,,,,,,,,,,,,,,,,,,,,,,,,
,,?,0.000635,0,,,,,,stimuli/images/PICTURE_750.png,POLICY,5ed670d71bd6110836108b87,14/07/1991,2020-08-13_05h03.11.303,proactive2,2020.1.2,Win32,60,5f341be081b9052c55068110,5f352ae15f1bf12f1449be3e,4,,,,,,kettle,,,,,,,,,,,5,2,0,48,48,44,1,,,,,,,,,,,,,,,,,,,,,,,,,,,,,,,,,,,,,,,,,,,,,,,,,,,,,,,,,,,,,,,,,,,,,,,,,,,,,,,,,,,,,,,,,,,,,,
,,?,0.000615,0,,,,,,stimuli/images/PICTURE_208.png,SPIRIT,5ed670d71bd6110836108b87,14/07/1991,2020-08-13_05h03.11.303,proactive2,2020.1.2,Win32,60,5f341be081b9052c55068110,5f352ae15f1bf12f1449be3e,4,,,,,,microphone,,,,,,,,,,,3,2,0,49,49,28,1,,,,,,,,,,,,,,,,,,,,,,,,,,,,,,,,,,,,,,,,,,,,,,,,,,,,,,,,,,,,,,,,,,,,,,,,,,,,,,,,,,,,,,,,,,,,,,
,,?,0.00076,0,,,,,,stimuli/images/PICTURE_2.png,JUNGLE,5ed670d71bd6110836108b87,14/07/1991,2020-08-13_05h03.11.303,proactive2,2020.1.2,Win32,60,5f341be081b9052c55068110,5f352ae15f1bf12f1449be3e,4,,,,,,tyre,,,,,,,,,,,1,2,0,50,50,1,1,,,,,,,,,,,,,,,,,,,,,,,,,,,,,,,,,,,,,,,,,,,,,,,,,,,,,,,,,,,,,,,,,,,,,,,,,,,,,,,,,,,,,,,,,,,,,,
,,?,0.00085,0,,,,,,stimuli/images/PICTURE_297.png,BODY,5ed670d71bd6110836108b87,14/07/1991,2020-08-13_05h03.11.303,proactive2,2020.1.2,Win32,60,5f341be081b9052c55068110,5f352ae15f1bf12f1449be3e,4,,,,,,aeroplane,,,,,,,,,,,6,2,0,51,51,51,1,,,,,,,,,,,,,,,,,,,,,,,,,,,,,,,,,,,,,,,,,,,,,,,,,,,,,,,,,,,,,,,,,,,,,,,,,,,,,,,,,,,,,,,,,,,,,,
,,LEADER,3.855045,1,,,,,,stimuli/images/PICTURE_147.png,LEADER,5ed670d71bd6110836108b87,14/07/1991,2020-08-13_05h03.11.303,proactive2,2020.1.2,Win32,60,5f341be081b9052c55068110,5f352ae15f1bf12f1449be3e,4,,,,,,hanger,,,,,,,,,,,4,2,0,52,52,33,1,,,,,,,,,,,,,,,,,,,,,,,,,,,,,,,,,,,,,,,,,,,,,,,,,,,,,,,,,,,,,,,,,,,,,,,,,,,,,,,,,,,,,,,,,,,,,,
,,?,0.001185,0,,,,,,stimuli/images/PICTURE_311.png,FLESH,5ed670d71bd6110836108b87,14/07/1991,2020-08-13_05h03.11.303,proactive2,2020.1.2,Win32,60,5f341be081b9052c55068110,5f352ae15f1bf12f1449be3e,4,,,,,,razor,,,,,,,,,,,1,2,0,53,53,3,1,,,,,,,,,,,,,,,,,,,,,,,,,,,,,,,,,,,,,,,,,,,,,,,,,,,,,,,,,,,,,,,,,,,,,,,,,,,,,,,,,,,,,,,,,,,,,,
,,CHART,4.288655,0,,,,,,stimuli/images/PICTURE_141.png,CLIENT,5ed670d71bd6110836108b87,14/07/1991,2020-08-13_05h03.11.303,proactive2,2020.1.2,Win32,60,5f341be081b9052c55068110,5f352ae15f1bf12f1449be3e,4,,,,,,sunflower,,,,,,,,,,,4,2,0,54,54,30,1,,,,,,,,,,,,,,,,,,,,,,,,,,,,,,,,,,,,,,,,,,,,,,,,,,,,,,,,,,,,,,,,,,,,,,,,,,,,,,,,,,,,,,,,,,,,,,
,,?,0.00099,0,,,,,,stimuli/images/PICTURE_470.png,MOMENT,5ed670d71bd6110836108b87,14/07/1991,2020-08-13_05h03.11.303,proactive2,2020.1.2,Win32,60,5f341be081b9052c55068110,5f352ae15f1bf12f1449be3e,4,,,,,,motorbike,,,,,,,,,,,5,2,0,55,55,40,1,,,,,,,,,,,,,,,,,,,,,,,,,,,,,,,,,,,,,,,,,,,,,,,,,,,,,,,,,,,,,,,,,,,,,,,,,,,,,,,,,,,,,,,,,,,,,,
,,?,0.000725,0,,,,,,stimuli/images/PICTURE_255.png,PENNY,5ed670d71bd6110836108b87,14/07/1991,2020-08-13_05h03.11.303,proactive2,2020.1.2,Win32,60,5f341be081b9052c55068110,5f352ae15f1bf12f1449be3e,4,,,,,,shovel,,,,,,,,,,,2,2,0,56,56,19,1,,,,,,,,,,,,,,,,,,,,,,,,,,,,,,,,,,,,,,,,,,,,,,,,,,,,,,,,,,,,,,,,,,,,,,,,,,,,,,,,,,,,,,,,,,,,,,
,,?,0.00063,0,,,,,,stimuli/images/PICTURE_327.png,LEADER,5ed670d71bd6110836108b87,14/07/1991,2020-08-13_05h03.11.303,proactive2,2020.1.2,Win32,60,5f341be081b9052c55068110,5f352ae15f1bf12f1449be3e,4,,,,,,helmet,,,,,,,,,,,2,2,0,57,57,17,1,,,,,,,,,,,,,,,,,,,,,,,,,,,,,,,,,,,,,,,,,,,,,,,,,,,,,,,,,,,,,,,,,,,,,,,,,,,,,,,,,,,,,,,,,,,,,,
,,APPLE,4.168195,1,,,,,,stimuli/images/PICTURE_509.png,APPLE,5ed670d71bd6110836108b87,14/07/1991,2020-08-13_05h03.11.303,proactive2,2020.1.2,Win32,60,5f341be081b9052c55068110,5f352ae15f1bf12f1449be3e,4,,,,,,telephone,,,,,,,,,,,4,2,0,58,58,38,1,,,,,,,,,,,,,,,,,,,,,,,,,,,,,,,,,,,,,,,,,,,,,,,,,,,,,,,,,,,,,,,,,,,,,,,,,,,,,,,,,,,,,,,,,,,,,,
,,?,0.0018,0,,,,,,stimuli/images/PICTURE_405.png,HOUSE,5ed670d71bd6110836108b87,14/07/1991,2020-08-13_05h03.11.303,proactive2,2020.1.2,Win32,60,5f341be081b9052c55068110,5f352ae15f1bf12f1449be3e,4,,,,,,anchor,,,,,,,,,,,1,2,0,59,59,2,1,,,,,,,,,,,,,,,,,,,,,,,,,,,,,,,,,,,,,,,,,,,,,,,,,,,,,,,,,,,,,,,,,,,,,,,,,,,,,,,,,,,,,,,,,,,,,,
,,,,,,,,,,,,5ed670d71bd6110836108b87,14/07/1991,2020-08-13_05h03.11.303,proactive2,2020.1.2,Win32,60,5f341be081b9052c55068110,5f352ae15f1bf12f1449be3e,4,,,,,,,,,,,,,,,,,,,,,,,,0,1,1,2,1,stimuli/learn-block3.csv,,,,,,,,,,,,,,,,,,,,,,,,,,,,,,,,,,,,,,,,,,,,,,,,,,,,,,,,,,,,,,,,,,,,,,,,,,,,,,,,,,,,,,,,
,,,,,,,,,,stimuli/images/PICTURE_108.png,POLICY,5ed670d71bd6110836108b87,14/07/1991,2020-08-13_05h03.11.303,proactive2,2020.1.2,Win32,60,5f341be081b9052c55068110,5f352ae15f1bf12f1449be3e,4,,,,,,calendar,,,,,,0,0,0,22,1,3,1,,,,,,,,,,,,,,,,,,,,,,,,,,,,,,,,,,,,,,,,,,,,,,,,,,,,,,,,,,,,,,,,,,,,,,,,,,,,,,,,,,,,,,,,,,,,,,,,,,,
,,,,,,,,,,stimuli/images/PICTURE_708.png,RECORD,5ed670d71bd6110836108b87,14/07/1991,2020-08-13_05h03.11.303,proactive2,2020.1.2,Win32,60,5f341be081b9052c55068110,5f352ae15f1bf12f1449be3e,4,,,,,,monkey,,,,,,0,1,1,58,1,6,1,,,,,,,,,,,,,,,,,,,,,,,,,,,,,,,,,,,,,,,,,,,,,,,,,,,,,,,,,,,,,,,,,,,,,,,,,,,,,,,,,,,,,,,,,,,,,,,,,,,
,,,,,,,,,,stimuli/images/PICTURE_340.png,LETTER,5ed670d71bd6110836108b87,14/07/1991,2020-08-13_05h03.11.303,proactive2,2020.1.2,Win32,60,5f341be081b9052c55068110,5f352ae15f1bf12f1449be3e,4,,,,,,mirror,,,,,,0,2,2,24,1,3,1,,,,,,,,,,,,,,,,,,,,,,,,,,,,,,,,,,,,,,,,,,,,,,,,,,,,,,,,,,,,,,,,,,,,,,,,,,,,,,,,,,,,,,,,,,,,,,,,,,,
,,,,,,,,,,stimuli/images/PICTURE_487.png,GIRL,5ed670d71bd6110836108b87,14/07/1991,2020-08-13_05h03.11.303,proactive2,2020.1.2,Win32,60,5f341be081b9052c55068110,5f352ae15f1bf12f1449be3e,4,,,,,,basket,,,,,,0,3,3,45,1,5,1,,,,,,,,,,,,,,,,,,,,,,,,,,,,,,,,,,,,,,,,,,,,,,,,,,,,,,,,,,,,,,,,,,,,,,,,,,,,,,,,,,,,,,,,,,,,,,,,,,,
,,,,,,,,,,stimuli/images/PICTURE_491.png,RIVER,5ed670d71bd6110836108b87,14/07/1991,2020-08-13_05h03.11.303,proactive2,2020.1.2,Win32,60,5f341be081b9052c55068110,5f352ae15f1bf12f1449be3e,4,,,,,,rug,,,,,,0,4,4,6,1,1,1,,,,,,,,,,,,,,,,,,,,,,,,,,,,,,,,,,,,,,,,,,,,,,,,,,,,,,,,,,,,,,,,,,,,,,,,,,,,,,,,,,,,,,,,,,,,,,,,,,,
,,,,,,,,,,stimuli/images/PICTURE_57.png,MOMENT,5ed670d71bd6110836108b87,14/07/1991,2020-08-13_05h03.11.303,proactive2,2020.1.2,Win32,60,5f341be081b9052c55068110,5f352ae15f1bf12f1449be3e,4,,,,,,stamp,,,,,,0,5,5,37,1,4,1,,,,,,,,,,,,,,,,,,,,,,,,,,,,,,,,,,,,,,,,,,,,,,,,,,,,,,,,,,,,,,,,,,,,,,,,,,,,,,,,,,,,,,,,,,,,,,,,,,,
,,,,,,,,,,stimuli/images/PICTURE_147.png,YEAR,5ed670d71bd6110836108b87,14/07/1991,2020-08-13_05h03.11.303,proactive2,2020.1.2,Win32,60,5f341be081b9052c55068110,5f352ae15f1bf12f1449be3e,4,,,,,,hanger,,,,,,0,6,6,21,1,3,1,,,,,,,,,,,,,,,,,,,,,,,,,,,,,,,,,,,,,,,,,,,,,,,,,,,,,,,,,,,,,,,,,,,,,,,,,,,,,,,,,,,,,,,,,,,,,,,,,,,
,,,,,,,,,,stimuli/images/PICTURE_203.png,GODS,5ed670d71bd6110836108b87,14/07/1991,2020-08-13_05h03.11.303,proactive2,2020.1.2,Win32,60,5f341be081b9052c55068110,5f352ae15f1bf12f1449be3e,4,,,,,,cap,,,,,,0,7,7,30,1,4,1,,,,,,,,,,,,,,,,,,,,,,,,,,,,,,,,,,,,,,,,,,,,,,,,,,,,,,,,,,,,,,,,,,,,,,,,,,,,,,,,,,,,,,,,,,,,,,,,,,,
,,,,,,,,,,stimuli/images/PICTURE_297.png,RIVER,5ed670d71bd6110836108b87,14/07/1991,2020-08-13_05h03.11.303,proactive2,2020.1.2,Win32,60,5f341be081b9052c55068110,5f352ae15f1bf12f1449be3e,4,,,,,,aeroplane,,,,,,0,8,8,39,1,4,1,,,,,,,,,,,,,,,,,,,,,,,,,,,,,,,,,,,,,,,,,,,,,,,,,,,,,,,,,,,,,,,,,,,,,,,,,,,,,,,,,,,,,,,,,,,,,,,,,,,
,,,,,,,,,,stimuli/images/PICTURE_68.png,ROOF,5ed670d71bd6110836108b87,14/07/1991,2020-08-13_05h03.11.303,proactive2,2020.1.2,Win32,60,5f341be081b9052c55068110,5f352ae15f1bf12f1449be3e,4,,,,,,candle,,,,,,0,9,9,38,1,4,1,,,,,,,,,,,,,,,,,,,,,,,,,,,,,,,,,,,,,,,,,,,,,,,,,,,,,,,,,,,,,,,,,,,,,,,,,,,,,,,,,,,,,,,,,,,,,,,,,,,
,,,,,,,,,,stimuli/images/PICTURE_403.png,WRITER,5ed670d71bd6110836108b87,14/07/1991,2020-08-13_05h03.11.303,proactive2,2020.1.2,Win32,60,5f341be081b9052c55068110,5f352ae15f1bf12f1449be3e,4,,,,,,cathedral,,,,,,0,10,10,31,1,4,1,,,,,,,,,,,,,,,,,,,,,,,,,,,,,,,,,,,,,,,,,,,,,,,,,,,,,,,,,,,,,,,,,,,,,,,,,,,,,,,,,,,,,,,,,,,,,,,,,,,
,,,,,,,,,,stimuli/images/PICTURE_403.png,RIVER,5ed670d71bd6110836108b87,14/07/1991,2020-08-13_05h03.11.303,proactive2,2020.1.2,Win32,60,5f341be081b9052c55068110,5f352ae15f1bf12f1449be3e,4,,,,,,cathedral,,,,,,0,11,11,40,1,5,1,,,,,,,,,,,,,,,,,,,,,,,,,,,,,,,,,,,,,,,,,,,,,,,,,,,,,,,,,,,,,,,,,,,,,,,,,,,,,,,,,,,,,,,,,,,,,,,,,,,
,,,,,,,,,,stimuli/images/PICTURE_177.png,WRITER,5ed670d71bd6110836108b87,14/07/1991,2020-08-13_05h03.11.303,proactive2,2020.1.2,Win32,60,5f341be081b9052c55068110,5f352ae15f1bf12f1449be3e,4,,,,,,mushroom,,,,,,0,12,12,41,1,5,1,,,,,,,,,,,,,,,,,,,,,,,,,,,,,,,,,,,,,,,,,,,,,,,,,,,,,,,,,,,,,,,,,,,,,,,,,,,,,,,,,,,,,,,,,,,,,,,,,,,
,,,,,,,,,,stimuli/images/PICTURE_203.png,NIGHT,5ed670d71bd6110836108b87,14/07/1991,2020-08-13_05h03.11.303,proactive2,2020.1.2,Win32,60,5f341be081b9052c55068110,5f352ae15f1bf12f1449be3e,4,,,,,,cap,,,,,,0,13,13,2,1,1,1,,,,,,,,,,,,,,,,,,,,,,,,,,,,,,,,,,,,,,,,,,,,,,,,,,,,,,,,,,,,,,,,,,,,,,,,,,,,,,,,,,,,,,,,,,,,,,,,,,,
,,,,,,,,,,stimuli/images/PICTURE_654.png,MONTH,5ed670d71bd6110836108b87,14/07/1991,2020-08-13_05h03.11.303,proactive2,2020.1.2,Win32,60,5f341be081b9052c55068110,5f352ae15f1bf12f1449be3e,4,,,,,,pencil,,,,,,0,14,14,29,1,3,1,,,,,,,,,,,,,,,,,,,,,,,,,,,,,,,,,,,,,,,,,,,,,,,,,,,,,,,,,,,,,,,,,,,,,,,,,,,,,,,,,,,,,,,,,,,,,,,,,,,
,,,,,,,,,,stimuli/images/PICTURE_108.png,FLIGHT,5ed670d71bd6110836108b87,14/07/1991,2020-08-13_05h03.11.303,proactive2,2020.1.2,Win32,60,5f341be081b9052c55068110,5f352ae15f1bf12f1449be3e,4,,,,,,calendar,,,,,,0,15,15,59,1,6,1,,,,,,,,,,,,,,,,,,,,,,,,,,,,,,,,,,,,,,,,,,,,,,,,,,,,,,,,,,,,,,,,,,,,,,,,,,,,,,,,,,,,,,,,,,,,,,,,,,,
,,,,,,,,,,stimuli/images/PICTURE_504.png,ARTIST,5ed670d71bd6110836108b87,14/07/1991,2020-08-13_05h03.11.303,proactive2,2020.1.2,Win32,60,5f341be081b9052c55068110,5f352ae15f1bf12f1449be3e,4,,,,,,wheel,,,,,,0,16,16,49,1,5,1,,,,,,,,,,,,,,,,,,,,,,,,,,,,,,,,,,,,,,,,,,,,,,,,,,,,,,,,,,,,,,,,,,,,,,,,,,,,,,,,,,,,,,,,,,,,,,,,,,,
,,,,,,,,,,stimuli/images/PICTURE_383.png,SERIES,5ed670d71bd6110836108b87,14/07/1991,2020-08-13_05h03.11.303,proactive2,2020.1.2,Win32,60,5f341be081b9052c55068110,5f352ae15f1bf12f1449be3e,4,,,,,,coin,,,,,,0,17,17,46,1,5,1,,,,,,,,,,,,,,,,,,,,,,,,,,,,,,,,,,,,,,,,,,,,,,,,,,,,,,,,,,,,,,,,,,,,,,,,,,,,,,,,,,,,,,,,,,,,,,,,,,,
,,,,,,,,,,stimuli/images/PICTURE_95.png,HONEY,5ed670d71bd6110836108b87,14/07/1991,2020-08-13_05h03.11.303,proactive2,2020.1.2,Win32,60,5f341be081b9052c55068110,5f352ae15f1bf12f1449be3e,4,,,,,,suitcase,,,,,,0,18,18,44,1,5,1,,,,,,,,,,,,,,,,,,,,,,,,,,,,,,,,,,,,,,,,,,,,,,,,,,,,,,,,,,,,,,,,,,,,,,,,,,,,,,,,,,,,,,,,,,,,,,,,,,,
,,,,,,,,,,stimuli/images/PICTURE_296.png,LIFE,5ed670d71bd6110836108b87,14/07/1991,2020-08-13_05h03.11.303,proactive2,2020.1.2,Win32,60,5f341be081b9052c55068110,5f352ae15f1bf12f1449be3e,4,,,,,,bolt,,,,,,0,19,19,57,1,6,1,,,,,,,,,,,,,,,,,,,,,,,,,,,,,,,,,,,,,,,,,,,,,,,,,,,,,,,,,,,,,,,,,,,,,,,,,,,,,,,,,,,,,,,,,,,,,,,,,,,
,,,,,,,,,,stimuli/images/PICTURE_233.png,LOTS,5ed670d71bd6110836108b87,14/07/1991,2020-08-13_05h03.11.303,proactive2,2020.1.2,Win32,60,5f341be081b9052c55068110,5f352ae15f1bf12f1449be3e,4,,,,,,salt,,,,,,0,20,20,42,1,5,1,,,,,,,,,,,,,,,,,,,,,,,,,,,,,,,,,,,,,,,,,,,,,,,,,,,,,,,,,,,,,,,,,,,,,,,,,,,,,,,,,,,,,,,,,,,,,,,,,,,
,,,,,,,,,,stimuli/images/PICTURE_655.png,TOILET,5ed670d71bd6110836108b87,14/07/1991,2020-08-13_05h03.11.303,proactive2,2020.1.2,Win32,60,5f341be081b9052c55068110,5f352ae15f1bf12f1449be3e,4,,,,,,megaphone,,,,,,0,21,21,12,1,2,1,,,,,,,,,,,,,,,,,,,,,,,,,,,,,,,,,,,,,,,,,,,,,,,,,,,,,,,,,,,,,,,,,,,,,,,,,,,,,,,,,,,,,,,,,,,,,,,,,,,
,,,,,,,,,,stimuli/images/PICTURE_208.png,SYSTEM,5ed670d71bd6110836108b87,14/07/1991,2020-08-13_05h03.11.303,proactive2,2020.1.2,Win32,60,5f341be081b9052c55068110,5f352ae15f1bf12f1449be3e,4,,,,,,microphone,,,,,,0,22,22,32,1,4,1,,,,,,,,,,,,,,,,,,,,,,,,,,,,,,,,,,,,,,,,,,,,,,,,,,,,,,,,,,,,,,,,,,,,,,,,,,,,,,,,,,,,,,,,,,,,,,,,,,,
,,,,,,,,,,stimuli/images/PICTURE_405.png,YEAR,5ed670d71bd6110836108b87,14/07/1991,2020-08-13_05h03.11.303,proactive2,2020.1.2,Win32,60,5f341be081b9052c55068110,5f352ae15f1bf12f1449be3e,4,,,,,,anchor,,,,,,0,23,23,34,1,4,1,,,,,,,,,,,,,,,,,,,,,,,,,,,,,,,,,,,,,,,,,,,,,,,,,,,,,,,,,,,,,,,,,,,,,,,,,,,,,,,,,,,,,,,,,,,,,,,,,,,
,,,,,,,,,,stimuli/images/PICTURE_340.png,VALLEY,5ed670d71bd6110836108b87,14/07/1991,2020-08-13_05h03.11.303,proactive2,2020.1.2,Win32,60,5f341be081b9052c55068110,5f352ae15f1bf12f1449be3e,4,,,,,,mirror,,,,,,0,24,24,54,1,6,1,,,,,,,,,,,,,,,,,,,,,,,,,,,,,,,,,,,,,,,,,,,,,,,,,,,,,,,,,,,,,,,,,,,,,,,,,,,,,,,,,,,,,,,,,,,,,,,,,,,
,,,,,,,,,,stimuli/images/PICTURE_339.png,CLIENT,5ed670d71bd6110836108b87,14/07/1991,2020-08-13_05h03.11.303,proactive2,2020.1.2,Win32,60,5f341be081b9052c55068110,5f352ae15f1bf12f1449be3e,4,,,,,,backpack,,,,,,0,25,25,11,1,2,1,,,,,,,,,,,,,,,,,,,,,,,,,,,,,,,,,,,,,,,,,,,,,,,,,,,,,,,,,,,,,,,,,,,,,,,,,,,,,,,,,,,,,,,,,,,,,,,,,,,
,,,,,,,,,,stimuli/images/PICTURE_285.png,LIFE,5ed670d71bd6110836108b87,14/07/1991,2020-08-13_05h03.11.303,proactive2,2020.1.2,Win32,60,5f341be081b9052c55068110,5f352ae15f1bf12f1449be3e,4,,,,,,carrot,,,,,,0,26,26,33,1,4,1,,,,,,,,,,,,,,,,,,,,,,,,,,,,,,,,,,,,,,,,,,,,,,,,,,,,,,,,,,,,,,,,,,,,,,,,,,,,,,,,,,,,,,,,,,,,,,,,,,,
,,,,,,,,,,stimuli/images/PICTURE_403.png,TOILET,5ed670d71bd6110836108b87,14/07/1991,2020-08-13_05h03.11.303,proactive2,2020.1.2,Win32,60,5f341be081b9052c55068110,5f352ae15f1bf12f1449be3e,4,,,,,,cathedral,,,,,,0,27,27,25,1,3,1,,,,,,,,,,,,,,,,,,,,,,,,,,,,,,,,,,,,,,,,,,,,,,,,,,,,,,,,,,,,,,,,,,,,,,,,,,,,,,,,,,,,,,,,,,,,,,,,,,,
,,,,,,,,,,stimuli/images/PICTURE_2.png,FLIGHT,5ed670d71bd6110836108b87,14/07/1991,2020-08-13_05h03.11.303,proactive2,2020.1.2,Win32,60,5f341be081b9052c55068110,5f352ae15f1bf12f1449be3e,4,,,,,,tyre,,,,,,0,28,28,15,1,2,1,,,,,,,,,,,,,,,,,,,,,,,,,,,,,,,,,,,,,,,,,,,,,,,,,,,,,,,,,,,,,,,,,,,,,,,,,,,,,,,,,,,,,,,,,,,,,,,,,,,
,,,,,,,,,,stimuli/images/PICTURE_42.png,BOYS,5ed670d71bd6110836108b87,14/07/1991,2020-08-13_05h03.11.303,proactive2,2020.1.2,Win32,60,5f341be081b9052c55068110,5f352ae15f1bf12f1449be3e,4,,,,,,pear,,,,,,0,29,29,55,1,6,1,,,,,,,,,,,,,,,,,,,,,,,,,,,,,,,,,,,,,,,,,,,,,,,,,,,,,,,,,,,,,,,,,,,,,,,,,,,,,,,,,,,,,,,,,,,,,,,,,,,
,,,,,,,,,,stimuli/images/PICTURE_380.png,CANDY,5ed670d71bd6110836108b87,14/07/1991,2020-08-13_05h03.11.303,proactive2,2020.1.2,Win32,60,5f341be081b9052c55068110,5f352ae15f1bf12f1449be3e,4,,,,,,gorilla,,,,,,0,30,30,0,1,1,1,,,,,,,,,,,,,,,,,,,,,,,,,,,,,,,,,,,,,,,,,,,,,,,,,,,,,,,,,,,,,,,,,,,,,,,,,,,,,,,,,,,,,,,,,,,,,,,,,,,
,,,,,,,,,,stimuli/images/PICTURE_405.png,PLENTY,5ed670d71bd6110836108b87,14/07/1991,2020-08-13_05h03.11.303,proactive2,2020.1.2,Win32,60,5f341be081b9052c55068110,5f352ae15f1bf12f1449be3e,4,,,,,,anchor,,,,,,0,31,31,23,1,3,1,,,,,,,,,,,,,,,,,,,,,,,,,,,,,,,,,,,,,,,,,,,,,,,,,,,,,,,,,,,,,,,,,,,,,,,,,,,,,,,,,,,,,,,,,,,,,,,,,,,
,,,,,,,,,,stimuli/images/PICTURE_32.png,PILLS,5ed670d71bd6110836108b87,14/07/1991,2020-08-13_05h03.11.303,proactive2,2020.1.2,Win32,60,5f341be081b9052c55068110,5f352ae15f1bf12f1449be3e,4,,,,,,crown,,,,,,0,32,32,18,1,2,1,,,,,,,,,,,,,,,,,,,,,,,,,,,,,,,,,,,,,,,,,,,,,,,,,,,,,,,,,,,,,,,,,,,,,,,,,,,,,,,,,,,,,,,,,,,,,,,,,,,
,,,,,,,,,,stimuli/images/PICTURE_467.png,POLICY,5ed670d71bd6110836108b87,14/07/1991,2020-08-13_05h03.11.303,proactive2,2020.1.2,Win32,60,5f341be081b9052c55068110,5f352ae15f1bf12f1449be3e,4,,,,,,peg,,,,,,0,33,33,53,1,6,1,,,,,,,,,,,,,,,,,,,,,,,,,,,,,,,,,,,,,,,,,,,,,,,,,,,,,,,,,,,,,,,,,,,,,,,,,,,,,,,,,,,,,,,,,,,,,,,,,,,
,,,,,,,,,,stimuli/images/PICTURE_296.png,LOTS,5ed670d71bd6110836108b87,14/07/1991,2020-08-13_05h03.11.303,proactive2,2020.1.2,Win32,60,5f341be081b9052c55068110,5f352ae15f1bf12f1449be3e,4,,,,,,bolt,,,,,,0,34,34,9,1,1,1,,,,,,,,,,,,,,,,,,,,,,,,,,,,,,,,,,,,,,,,,,,,,,,,,,,,,,,,,,,,,,,,,,,,,,,,,,,,,,,,,,,,,,,,,,,,,,,,,,,
,,,,,,,,,,stimuli/images/PICTURE_85.png,TOILET,5ed670d71bd6110836108b87,14/07/1991,2020-08-13_05h03.11.303,proactive2,2020.1.2,Win32,60,5f341be081b9052c55068110,5f352ae15f1bf12f1449be3e,4,,,,,,diamond,,,,,,0,35,35,48,1,5,1,,,,,,,,,,,,,,,,,,,,,,,,,,,,,,,,,,,,,,,,,,,,,,,,,,,,,,,,,,,,,,,,,,,,,,,,,,,,,,,,,,,,,,,,,,,,,,,,,,,
,,,,,,,,,,stimuli/images/PICTURE_147.png,WOMEN,5ed670d71bd6110836108b87,14/07/1991,2020-08-13_05h03.11.303,proactive2,2020.1.2,Win32,60,5f341be081b9052c55068110,5f352ae15f1bf12f1449be3e,4,,,,,,hanger,,,,,,0,36,36,7,1,1,1,,,,,,,,,,,,,,,,,,,,,,,,,,,,,,,,,,,,,,,,,,,,,,,,,,,,,,,,,,,,,,,,,,,,,,,,,,,,,,,,,,,,,,,,,,,,,,,,,,,
,,,,,,,,,,stimuli/images/PICTURE_95.png,BOYS,5ed670d71bd6110836108b87,14/07/1991,2020-08-13_05h03.11.303,proactive2,2020.1.2,Win32,60,5f341be081b9052c55068110,5f352ae15f1bf12f1449be3e,4,,,,,,suitcase,,,,,,0,37,37,1,1,1,1,,,,,,,,,,,,,,,,,,,,,,,,,,,,,,,,,,,,,,,,,,,,,,,,,,,,,,,,,,,,,,,,,,,,,,,,,,,,,,,,,,,,,,,,,,,,,,,,,,,
,,,,,,,,,,stimuli/images/PICTURE_95.png,MILLER,5ed670d71bd6110836108b87,14/07/1991,2020-08-13_05h03.11.303,proactive2,2020.1.2,Win32,60,5f341be081b9052c55068110,5f352ae15f1bf12f1449be3e,4,,,,,,suitcase,,,,,,0,38,38,56,1,6,1,,,,,,,,,,,,,,,,,,,,,,,,,,,,,,,,,,,,,,,,,,,,,,,,,,,,,,,,,,,,,,,,,,,,,,,,,,,,,,,,,,,,,,,,,,,,,,,,,,,
,,,,,,,,,,stimuli/images/PICTURE_68.png,MILE,5ed670d71bd6110836108b87,14/07/1991,2020-08-13_05h03.11.303,proactive2,2020.1.2,Win32,60,5f341be081b9052c55068110,5f352ae15f1bf12f1449be3e,4,,,,,,candle,,,,,,0,39,39,51,1,6,1,,,,,,,,,,,,,,,,,,,,,,,,,,,,,,,,,,,,,,,,,,,,,,,,,,,,,,,,,,,,,,,,,,,,,,,,,,,,,,,,,,,,,,,,,,,,,,,,,,,
,,,,,,,,,,stimuli/images/PICTURE_469.png,AGENT,5ed670d71bd6110836108b87,14/07/1991,2020-08-13_05h03.11.303,proactive2,2020.1.2,Win32,60,5f341be081b9052c55068110,5f352ae15f1bf12f1449be3e,4,,,,,,stool,,,,,,0,40,40,16,1,2,1,,,,,,,,,,,,,,,,,,,,,,,,,,,,,,,,,,,,,,,,,,,,,,,,,,,,,,,,,,,,,,,,,,,,,,,,,,,,,,,,,,,,,,,,,,,,,,,,,,,
,,,,,,,,,,stimuli/images/PICTURE_327.png,CASINO,5ed670d71bd6110836108b87,14/07/1991,2020-08-13_05h03.11.303,proactive2,2020.1.2,Win32,60,5f341be081b9052c55068110,5f352ae15f1bf12f1449be3e,4,,,,,,helmet,,,,,,0,41,41,20,1,3,1,,,,,,,,,,,,,,,,,,,,,,,,,,,,,,,,,,,,,,,,,,,,,,,,,,,,,,,,,,,,,,,,,,,,,,,,,,,,,,,,,,,,,,,,,,,,,,,,,,,
,,,,,,,,,,stimuli/images/PICTURE_327.png,SERIES,5ed670d71bd6110836108b87,14/07/1991,2020-08-13_05h03.11.303,proactive2,2020.1.2,Win32,60,5f341be081b9052c55068110,5f352ae15f1bf12f1449be3e,4,,,,,,helmet,,,,,,0,42,42,3,1,1,1,,,,,,,,,,,,,,,,,,,,,,,,,,,,,,,,,,,,,,,,,,,,,,,,,,,,,,,,,,,,,,,,,,,,,,,,,,,,,,,,,,,,,,,,,,,,,,,,,,,
,,,,,,,,,,stimuli/images/PICTURE_504.png,COPS,5ed670d71bd6110836108b87,14/07/1991,2020-08-13_05h03.11.303,proactive2,2020.1.2,Win32,60,5f341be081b9052c55068110,5f352ae15f1bf12f1449be3e,4,,,,,,wheel,,,,,,0,43,43,52,1,6,1,,,,,,,,,,,,,,,,,,,,,,,,,,,,,,,,,,,,,,,,,,,,,,,,,,,,,,,,,,,,,,,,,,,,,,,,,,,,,,,,,,,,,,,,,,,,,,,,,,,
,,,,,,,,,,stimuli/images/PICTURE_85.png,NATION,5ed670d71bd6110836108b87,14/07/1991,2020-08-13_05h03.11.303,proactive2,2020.1.2,Win32,60,5f341be081b9052c55068110,5f352ae15f1bf12f1449be3e,4,,,,,,diamond,,,,,,0,44,44,5,1,1,1,,,,,,,,,,,,,,,,,,,,,,,,,,,,,,,,,,,,,,,,,,,,,,,,,,,,,,,,,,,,,,,,,,,,,,,,,,,,,,,,,,,,,,,,,,,,,,,,,,,
,,,,,,,,,,stimuli/images/PICTURE_750.png,HOTEL,5ed670d71bd6110836108b87,14/07/1991,2020-08-13_05h03.11.303,proactive2,2020.1.2,Win32,60,5f341be081b9052c55068110,5f352ae15f1bf12f1449be3e,4,,,,,,kettle,,,,,,0,45,45,27,1,3,1,,,,,,,,,,,,,,,,,,,,,,,,,,,,,,,,,,,,,,,,,,,,,,,,,,,,,,,,,,,,,,,,,,,,,,,,,,,,,,,,,,,,,,,,,,,,,,,,,,,
,,,,,,,,,,stimuli/images/PICTURE_308.png,FAMILY,5ed670d71bd6110836108b87,14/07/1991,2020-08-13_05h03.11.303,proactive2,2020.1.2,Win32,60,5f341be081b9052c55068110,5f352ae15f1bf12f1449be3e,4,,,,,,dice,,,,,,0,46,46,36,1,4,1,,,,,,,,,,,,,,,,,,,,,,,,,,,,,,,,,,,,,,,,,,,,,,,,,,,,,,,,,,,,,,,,,,,,,,,,,,,,,,,,,,,,,,,,,,,,,,,,,,,
,,,,,,,,,,stimuli/images/PICTURE_675.png,SALE,5ed670d71bd6110836108b87,14/07/1991,2020-08-13_05h03.11.303,proactive2,2020.1.2,Win32,60,5f341be081b9052c55068110,5f352ae15f1bf12f1449be3e,4,,,,,,windmill,,,,,,0,47,47,47,1,5,1,,,,,,,,,,,,,,,,,,,,,,,,,,,,,,,,,,,,,,,,,,,,,,,,,,,,,,,,,,,,,,,,,,,,,,,,,,,,,,,,,,,,,,,,,,,,,,,,,,,
,,,,,,,,,,stimuli/images/PICTURE_677.png,APPLE,5ed670d71bd6110836108b87,14/07/1991,2020-08-13_05h03.11.303,proactive2,2020.1.2,Win32,60,5f341be081b9052c55068110,5f352ae15f1bf12f1449be3e,4,,,,,,map,,,,,,0,48,48,43,1,5,1,,,,,,,,,,,,,,,,,,,,,,,,,,,,,,,,,,,,,,,,,,,,,,,,,,,,,,,,,,,,,,,,,,,,,,,,,,,,,,,,,,,,,,,,,,,,,,,,,,,
,,,,,,,,,,stimuli/images/PICTURE_504.png,YEAR,5ed670d71bd6110836108b87,14/07/1991,2020-08-13_05h03.11.303,proactive2,2020.1.2,Win32,60,5f341be081b9052c55068110,5f352ae15f1bf12f1449be3e,4,,,,,,wheel,,,,,,0,49,49,13,1,2,1,,,,,,,,,,,,,,,,,,,,,,,,,,,,,,,,,,,,,,,,,,,,,,,,,,,,,,,,,,,,,,,,,,,,,,,,,,,,,,,,,,,,,,,,,,,,,,,,,,,
