consent_key.keys,consent_key.rt,recalled,recalled_rt,recall_acc,example_recall.thisRepN,example_recall.thisTrialN,example_recall.thisN,example_recall.thisIndex,example_recall.ran,file,word,participant,please enter your date of birth (dd/mm/yyyy),date,expName,psychopyVersion,OS,frameRate,STUDY_ID,SESSION_ID,list,prac_learn_study_loop.thisRepN,prac_learn_study_loop.thisTrialN,prac_learn_study_loop.thisN,prac_learn_study_loop.thisIndex,prac_learn_study_loop.ran,image,prac_learn_test_loop.thisRepN,prac_learn_test_loop.thisTrialN,prac_learn_test_loop.thisN,prac_learn_test_loop.thisIndex,prac_learn_test_loop.ran,learn_study_loop.thisRepN,learn_study_loop.thisTrialN,learn_study_loop.thisN,learn_study_loop.thisIndex,learn_study_loop.ran,list_no,block_no,learn_test_loop.thisRepN,learn_test_loop.thisTrialN,learn_test_loop.thisN,learn_test_loop.thisIndex,learn_test_loop.ran,learn_blocks.thisRepN,learn_blocks.thisTrialN,learn_blocks.thisN,learn_blocks.thisIndex,learn_blocks.ran,block_csv,key_resp_13.keys,key_resp_13.rt,learn_blocks_loop.thisRepN,learn_blocks_loop.thisTrialN,learn_blocks_loop.thisN,learn_blocks_loop.thisIndex,learn_blocks_loop.ran,final_learn_test.thisRepN,final_learn_test.thisTrialN,final_learn_test.thisN,final_learn_test.thisIndex,final_learn_test.ran,s_im1,s_im2,s_im3,s_im4,s_im5,s_im6,s_im7,s_im8,s_im1pos,s_im2pos,s_im3pos,s_im4pos,s_im5pos,s_im6pos,s_im7pos,s_im8pos,s_tarright,search_resp.keys,search_loop.thisRepN,search_loop.thisTrialN,search_loop.thisN,search_loop.thisIndex,search_loop.ran,search_resp.rt,prac_wm_test_loop.thisRepN,prac_wm_test_loop.thisTrialN,prac_wm_test_loop.thisN,prac_wm_test_loop.thisIndex,prac_wm_test_loop.ran,wm_recalled1,wm_recall_rt1,wm_probed1,wm_recall_acc1,wm_recalled2,wm_recall_rt2,wm_probed2,wm_recall_acc2,wm_recalled3,wm_recall_rt3,wm_probed3,wm_recall_acc3,wm_recalled4,wm_recall_rt4,wm_probed4,wm_recall_acc4,prac_wm_trial_loop.thisRepN,prac_wm_trial_loop.thisTrialN,prac_wm_trial_loop.thisN,prac_wm_trial_loop.thisIndex,prac_wm_trial_loop.ran,word1,image1,file1,item_type1,word2,image2,file2,item_type2,word4,image4,file4,item_type4,word3,image3,file3,item_type3,wm_test_loop.thisRepN,wm_test_loop.thisTrialN,wm_test_loop.thisN,wm_test_loop.thisIndex,wm_test_loop.ran,wm_trial_loop.thisRepN,wm_trial_loop.thisTrialN,wm_trial_loop.thisN,wm_trial_loop.thisIndex,wm_trial_loop.ran
y,35.908325,BATHTUB,9.895325,0,0,0,0,0,1,stimuli/images/PICTURE_747.png,TOUGH,5edc02ccd85edd0fce814dfd,05/28/1955,2020-09-03_14h51.41.100,proactive2,2020.1.2,MacIntel,60,5f5126bb654d4b30ee6923d8,5f513b0c8bb796345dec0ab7,1,,,,,,,,,,,,,,,,,,,,,,,,,,,,,,,,,,,,,,,,,,,,,,,,,,,,,,,,,,,,,,,,,,,,,,,,,,,,,,,,,,,,,,,,,,,,,,,,,,,,,,,,,,,,,,,,,,,,,
,,,,,,,,,,stimuli/images/PICTURE_697.png,KILLER,5edc02ccd85edd0fce814dfd,05/28/1955,2020-09-03_14h51.41.100,proactive2,2020.1.2,MacIntel,60,5f5126bb654d4b30ee6923d8,5f513b0c8bb796345dec0ab7,1,0,0,0,4,1,peach,,,,,,,,,,,,,,,,,,,,,,,,,,,,,,,,,,,,,,,,,,,,,,,,,,,,,,,,,,,,,,,,,,,,,,,,,,,,,,,,,,,,,,,,,,,,,,,,,,,,,,,,,,,,,,,
,,,,,,,,,,stimuli/images/PICTURE_658.png,DEVIL,5edc02ccd85edd0fce814dfd,05/28/1955,2020-09-03_14h51.41.100,proactive2,2020.1.2,MacIntel,60,5f5126bb654d4b30ee6923d8,5f513b0c8bb796345dec0ab7,1,0,1,1,3,1,crow,,,,,,,,,,,,,,,,,,,,,,,,,,,,,,,,,,,,,,,,,,,,,,,,,,,,,,,,,,,,,,,,,,,,,,,,,,,,,,,,,,,,,,,,,,,,,,,,,,,,,,,,,,,,,,,
,,,,,,,,,,stimuli/images/PICTURE_727.png,CELL,5edc02ccd85edd0fce814dfd,05/28/1955,2020-09-03_14h51.41.100,proactive2,2020.1.2,MacIntel,60,5f5126bb654d4b30ee6923d8,5f513b0c8bb796345dec0ab7,1,0,2,2,1,1,hose,,,,,,,,,,,,,,,,,,,,,,,,,,,,,,,,,,,,,,,,,,,,,,,,,,,,,,,,,,,,,,,,,,,,,,,,,,,,,,,,,,,,,,,,,,,,,,,,,,,,,,,,,,,,,,,
,,,,,,,,,,stimuli/images/PICTURE_269.png,GENIUS,5edc02ccd85edd0fce814dfd,05/28/1955,2020-09-03_14h51.41.100,proactive2,2020.1.2,MacIntel,60,5f5126bb654d4b30ee6923d8,5f513b0c8bb796345dec0ab7,1,0,3,3,0,1,chameleon,,,,,,,,,,,,,,,,,,,,,,,,,,,,,,,,,,,,,,,,,,,,,,,,,,,,,,,,,,,,,,,,,,,,,,,,,,,,,,,,,,,,,,,,,,,,,,,,,,,,,,,,,,,,,,,
,,KILLER,6.59101,1,,,,,,stimuli/images/PICTURE_697.png,KILLER,5edc02ccd85edd0fce814dfd,05/28/1955,2020-09-03_14h51.41.100,proactive2,2020.1.2,MacIntel,60,5f5126bb654d4b30ee6923d8,5f513b0c8bb796345dec0ab7,1,,,,,,peach,0,0,0,4,1,,,,,,,,,,,,,,,,,,,,,,,,,,,,,,,,,,,,,,,,,,,,,,,,,,,,,,,,,,,,,,,,,,,,,,,,,,,,,,,,,,,,,,,,,,,,,,,,,,,,,,,,,,
,,LOSS,6.145495,0,,,,,,stimuli/images/PICTURE_727.png,CELL,5edc02ccd85edd0fce814dfd,05/28/1955,2020-09-03_14h51.41.100,proactive2,2020.1.2,MacIntel,60,5f5126bb654d4b30ee6923d8,5f513b0c8bb796345dec0ab7,1,,,,,,hose,0,1,1,1,1,,,,,,,,,,,,,,,,,,,,,,,,,,,,,,,,,,,,,,,,,,,,,,,,,,,,,,,,,,,,,,,,,,,,,,,,,,,,,,,,,,,,,,,,,,,,,,,,,,,,,,,,,,
,,GENIUS,4.055435,1,,,,,,stimuli/images/PICTURE_269.png,GENIUS,5edc02ccd85edd0fce814dfd,05/28/1955,2020-09-03_14h51.41.100,proactive2,2020.1.2,MacIntel,60,5f5126bb654d4b30ee6923d8,5f513b0c8bb796345dec0ab7,1,,,,,,chameleon,0,2,2,0,1,,,,,,,,,,,,,,,,,,,,,,,,,,,,,,,,,,,,,,,,,,,,,,,,,,,,,,,,,,,,,,,,,,,,,,,,,,,,,,,,,,,,,,,,,,,,,,,,,,,,,,,,,,
,,DEVIL,3.072015,1,,,,,,stimuli/images/PICTURE_658.png,DEVIL,5edc02ccd85edd0fce814dfd,05/28/1955,2020-09-03_14h51.41.100,proactive2,2020.1.2,MacIntel,60,5f5126bb654d4b30ee6923d8,5f513b0c8bb796345dec0ab7,1,,,,,,crow,0,3,3,3,1,,,,,,,,,,,,,,,,,,,,,,,,,,,,,,,,,,,,,,,,,,,,,,,,,,,,,,,,,,,,,,,,,,,,,,,,,,,,,,,,,,,,,,,,,,,,,,,,,,,,,,,,,,
,,LOSS,3.20447,1,,,,,,stimuli/images/PICTURE_378.png,LOSS,5edc02ccd85edd0fce814dfd,05/28/1955,2020-09-03_14h51.41.100,proactive2,2020.1.2,MacIntel,60,5f5126bb654d4b30ee6923d8,5f513b0c8bb796345dec0ab7,1,,,,,,lobster,0,4,4,2,1,,,,,,,,,,,,,,,,,,,,,,,,,,,,,,,,,,,,,,,,,,,,,,,,,,,,,,,,,,,,,,,,,,,,,,,,,,,,,,,,,,,,,,,,,,,,,,,,,,,,,,,,,,
,,,,,,,,,,stimuli/images/PICTURE_108.png,FLIGHT,5edc02ccd85edd0fce814dfd,05/28/1955,2020-09-03_14h51.41.100,proactive2,2020.1.2,MacIntel,60,5f5126bb654d4b30ee6923d8,5f513b0c8bb796345dec0ab7,1,,,,,,calendar,,,,,,0,0,0,59,1,6,1,,,,,,,,,,,,,,,,,,,,,,,,,,,,,,,,,,,,,,,,,,,,,,,,,,,,,,,,,,,,,,,,,,,,,,,,,,,,,,,,,,,,,,,,,,,,,,,,,,,
,,,,,,,,,,stimuli/images/PICTURE_491.png,RIVER,5edc02ccd85edd0fce814dfd,05/28/1955,2020-09-03_14h51.41.100,proactive2,2020.1.2,MacIntel,60,5f5126bb654d4b30ee6923d8,5f513b0c8bb796345dec0ab7,1,,,,,,rug,,,,,,0,1,1,6,1,1,1,,,,,,,,,,,,,,,,,,,,,,,,,,,,,,,,,,,,,,,,,,,,,,,,,,,,,,,,,,,,,,,,,,,,,,,,,,,,,,,,,,,,,,,,,,,,,,,,,,,
,,,,,,,,,,stimuli/images/PICTURE_675.png,SALE,5edc02ccd85edd0fce814dfd,05/28/1955,2020-09-03_14h51.41.100,proactive2,2020.1.2,MacIntel,60,5f5126bb654d4b30ee6923d8,5f513b0c8bb796345dec0ab7,1,,,,,,windmill,,,,,,0,2,2,47,1,5,1,,,,,,,,,,,,,,,,,,,,,,,,,,,,,,,,,,,,,,,,,,,,,,,,,,,,,,,,,,,,,,,,,,,,,,,,,,,,,,,,,,,,,,,,,,,,,,,,,,,
,,,,,,,,,,stimuli/images/PICTURE_750.png,HOTEL,5edc02ccd85edd0fce814dfd,05/28/1955,2020-09-03_14h51.41.100,proactive2,2020.1.2,MacIntel,60,5f5126bb654d4b30ee6923d8,5f513b0c8bb796345dec0ab7,1,,,,,,kettle,,,,,,0,3,3,27,1,3,1,,,,,,,,,,,,,,,,,,,,,,,,,,,,,,,,,,,,,,,,,,,,,,,,,,,,,,,,,,,,,,,,,,,,,,,,,,,,,,,,,,,,,,,,,,,,,,,,,,,
,,,,,,,,,,stimuli/images/PICTURE_380.png,HONEY,5edc02ccd85edd0fce814dfd,05/28/1955,2020-09-03_14h51.41.100,proactive2,2020.1.2,MacIntel,60,5f5126bb654d4b30ee6923d8,5f513b0c8bb796345dec0ab7,1,,,,,,gorilla,,,,,,0,4,4,19,1,2,1,,,,,,,,,,,,,,,,,,,,,,,,,,,,,,,,,,,,,,,,,,,,,,,,,,,,,,,,,,,,,,,,,,,,,,,,,,,,,,,,,,,,,,,,,,,,,,,,,,,
,,,,,,,,,,stimuli/images/PICTURE_655.png,TOILET,5edc02ccd85edd0fce814dfd,05/28/1955,2020-09-03_14h51.41.100,proactive2,2020.1.2,MacIntel,60,5f5126bb654d4b30ee6923d8,5f513b0c8bb796345dec0ab7,1,,,,,,megaphone,,,,,,0,5,5,12,1,2,1,,,,,,,,,,,,,,,,,,,,,,,,,,,,,,,,,,,,,,,,,,,,,,,,,,,,,,,,,,,,,,,,,,,,,,,,,,,,,,,,,,,,,,,,,,,,,,,,,,,
,,,,,,,,,,stimuli/images/PICTURE_467.png,POLICY,5edc02ccd85edd0fce814dfd,05/28/1955,2020-09-03_14h51.41.100,proactive2,2020.1.2,MacIntel,60,5f5126bb654d4b30ee6923d8,5f513b0c8bb796345dec0ab7,1,,,,,,peg,,,,,,0,6,6,53,1,6,1,,,,,,,,,,,,,,,,,,,,,,,,,,,,,,,,,,,,,,,,,,,,,,,,,,,,,,,,,,,,,,,,,,,,,,,,,,,,,,,,,,,,,,,,,,,,,,,,,,,
,,,,,,,,,,stimuli/images/PICTURE_491.png,GLASS,5edc02ccd85edd0fce814dfd,05/28/1955,2020-09-03_14h51.41.100,proactive2,2020.1.2,MacIntel,60,5f5126bb654d4b30ee6923d8,5f513b0c8bb796345dec0ab7,1,,,,,,rug,,,,,,0,7,7,14,1,2,1,,,,,,,,,,,,,,,,,,,,,,,,,,,,,,,,,,,,,,,,,,,,,,,,,,,,,,,,,,,,,,,,,,,,,,,,,,,,,,,,,,,,,,,,,,,,,,,,,,,
,,,,,,,,,,stimuli/images/PICTURE_296.png,LIFE,5edc02ccd85edd0fce814dfd,05/28/1955,2020-09-03_14h51.41.100,proactive2,2020.1.2,MacIntel,60,5f5126bb654d4b30ee6923d8,5f513b0c8bb796345dec0ab7,1,,,,,,bolt,,,,,,0,8,8,57,1,6,1,,,,,,,,,,,,,,,,,,,,,,,,,,,,,,,,,,,,,,,,,,,,,,,,,,,,,,,,,,,,,,,,,,,,,,,,,,,,,,,,,,,,,,,,,,,,,,,,,,,
,,,,,,,,,,stimuli/images/PICTURE_57.png,MOMENT,5edc02ccd85edd0fce814dfd,05/28/1955,2020-09-03_14h51.41.100,proactive2,2020.1.2,MacIntel,60,5f5126bb654d4b30ee6923d8,5f513b0c8bb796345dec0ab7,1,,,,,,stamp,,,,,,0,9,9,37,1,4,1,,,,,,,,,,,,,,,,,,,,,,,,,,,,,,,,,,,,,,,,,,,,,,,,,,,,,,,,,,,,,,,,,,,,,,,,,,,,,,,,,,,,,,,,,,,,,,,,,,,
,,,,,,,,,,stimuli/images/PICTURE_564.png,BATH,5edc02ccd85edd0fce814dfd,05/28/1955,2020-09-03_14h51.41.100,proactive2,2020.1.2,MacIntel,60,5f5126bb654d4b30ee6923d8,5f513b0c8bb796345dec0ab7,1,,,,,,spoon,,,,,,0,10,10,26,1,3,1,,,,,,,,,,,,,,,,,,,,,,,,,,,,,,,,,,,,,,,,,,,,,,,,,,,,,,,,,,,,,,,,,,,,,,,,,,,,,,,,,,,,,,,,,,,,,,,,,,,
,,,,,,,,,,stimuli/images/PICTURE_85.png,NATION,5edc02ccd85edd0fce814dfd,05/28/1955,2020-09-03_14h51.41.100,proactive2,2020.1.2,MacIntel,60,5f5126bb654d4b30ee6923d8,5f513b0c8bb796345dec0ab7,1,,,,,,diamond,,,,,,0,11,11,5,1,1,1,,,,,,,,,,,,,,,,,,,,,,,,,,,,,,,,,,,,,,,,,,,,,,,,,,,,,,,,,,,,,,,,,,,,,,,,,,,,,,,,,,,,,,,,,,,,,,,,,,,
,,,,,,,,,,stimuli/images/PICTURE_203.png,NIGHT,5edc02ccd85edd0fce814dfd,05/28/1955,2020-09-03_14h51.41.100,proactive2,2020.1.2,MacIntel,60,5f5126bb654d4b30ee6923d8,5f513b0c8bb796345dec0ab7,1,,,,,,cap,,,,,,0,12,12,2,1,1,1,,,,,,,,,,,,,,,,,,,,,,,,,,,,,,,,,,,,,,,,,,,,,,,,,,,,,,,,,,,,,,,,,,,,,,,,,,,,,,,,,,,,,,,,,,,,,,,,,,,
,,,,,,,,,,stimuli/images/PICTURE_95.png,MILLER,5edc02ccd85edd0fce814dfd,05/28/1955,2020-09-03_14h51.41.100,proactive2,2020.1.2,MacIntel,60,5f5126bb654d4b30ee6923d8,5f513b0c8bb796345dec0ab7,1,,,,,,suitcase,,,,,,0,13,13,56,1,6,1,,,,,,,,,,,,,,,,,,,,,,,,,,,,,,,,,,,,,,,,,,,,,,,,,,,,,,,,,,,,,,,,,,,,,,,,,,,,,,,,,,,,,,,,,,,,,,,,,,,
,,,,,,,,,,stimuli/images/PICTURE_654.png,MONTH,5edc02ccd85edd0fce814dfd,05/28/1955,2020-09-03_14h51.41.100,proactive2,2020.1.2,MacIntel,60,5f5126bb654d4b30ee6923d8,5f513b0c8bb796345dec0ab7,1,,,,,,pencil,,,,,,0,14,14,29,1,3,1,,,,,,,,,,,,,,,,,,,,,,,,,,,,,,,,,,,,,,,,,,,,,,,,,,,,,,,,,,,,,,,,,,,,,,,,,,,,,,,,,,,,,,,,,,,,,,,,,,,
,,,,,,,,,,stimuli/images/PICTURE_42.png,BOYS,5edc02ccd85edd0fce814dfd,05/28/1955,2020-09-03_14h51.41.100,proactive2,2020.1.2,MacIntel,60,5f5126bb654d4b30ee6923d8,5f513b0c8bb796345dec0ab7,1,,,,,,pear,,,,,,0,15,15,55,1,6,1,,,,,,,,,,,,,,,,,,,,,,,,,,,,,,,,,,,,,,,,,,,,,,,,,,,,,,,,,,,,,,,,,,,,,,,,,,,,,,,,,,,,,,,,,,,,,,,,,,,
,,,,,,,,,,stimuli/images/PICTURE_208.png,SYSTEM,5edc02ccd85edd0fce814dfd,05/28/1955,2020-09-03_14h51.41.100,proactive2,2020.1.2,MacIntel,60,5f5126bb654d4b30ee6923d8,5f513b0c8bb796345dec0ab7,1,,,,,,microphone,,,,,,0,16,16,32,1,4,1,,,,,,,,,,,,,,,,,,,,,,,,,,,,,,,,,,,,,,,,,,,,,,,,,,,,,,,,,,,,,,,,,,,,,,,,,,,,,,,,,,,,,,,,,,,,,,,,,,,
,,,,,,,,,,stimuli/images/PICTURE_95.png,BOYS,5edc02ccd85edd0fce814dfd,05/28/1955,2020-09-03_14h51.41.100,proactive2,2020.1.2,MacIntel,60,5f5126bb654d4b30ee6923d8,5f513b0c8bb796345dec0ab7,1,,,,,,suitcase,,,,,,0,17,17,1,1,1,1,,,,,,,,,,,,,,,,,,,,,,,,,,,,,,,,,,,,,,,,,,,,,,,,,,,,,,,,,,,,,,,,,,,,,,,,,,,,,,,,,,,,,,,,,,,,,,,,,,,
,,,,,,,,,,stimuli/images/PICTURE_233.png,LOTS,5edc02ccd85edd0fce814dfd,05/28/1955,2020-09-03_14h51.41.100,proactive2,2020.1.2,MacIntel,60,5f5126bb654d4b30ee6923d8,5f513b0c8bb796345dec0ab7,1,,,,,,salt,,,,,,0,18,18,42,1,5,1,,,,,,,,,,,,,,,,,,,,,,,,,,,,,,,,,,,,,,,,,,,,,,,,,,,,,,,,,,,,,,,,,,,,,,,,,,,,,,,,,,,,,,,,,,,,,,,,,,,
,,,,,,,,,,stimuli/images/PICTURE_327.png,SERIES,5edc02ccd85edd0fce814dfd,05/28/1955,2020-09-03_14h51.41.100,proactive2,2020.1.2,MacIntel,60,5f5126bb654d4b30ee6923d8,5f513b0c8bb796345dec0ab7,1,,,,,,helmet,,,,,,0,19,19,3,1,1,1,,,,,,,,,,,,,,,,,,,,,,,,,,,,,,,,,,,,,,,,,,,,,,,,,,,,,,,,,,,,,,,,,,,,,,,,,,,,,,,,,,,,,,,,,,,,,,,,,,,
,,,,,,,,,,stimuli/images/PICTURE_296.png,LOTS,5edc02ccd85edd0fce814dfd,05/28/1955,2020-09-03_14h51.41.100,proactive2,2020.1.2,MacIntel,60,5f5126bb654d4b30ee6923d8,5f513b0c8bb796345dec0ab7,1,,,,,,bolt,,,,,,0,20,20,9,1,1,1,,,,,,,,,,,,,,,,,,,,,,,,,,,,,,,,,,,,,,,,,,,,,,,,,,,,,,,,,,,,,,,,,,,,,,,,,,,,,,,,,,,,,,,,,,,,,,,,,,,
,,,,,,,,,,stimuli/images/PICTURE_469.png,AGENT,5edc02ccd85edd0fce814dfd,05/28/1955,2020-09-03_14h51.41.100,proactive2,2020.1.2,MacIntel,60,5f5126bb654d4b30ee6923d8,5f513b0c8bb796345dec0ab7,1,,,,,,stool,,,,,,0,21,21,16,1,2,1,,,,,,,,,,,,,,,,,,,,,,,,,,,,,,,,,,,,,,,,,,,,,,,,,,,,,,,,,,,,,,,,,,,,,,,,,,,,,,,,,,,,,,,,,,,,,,,,,,,
,,,,,,,,,,stimuli/images/PICTURE_449.png,DUDE,5edc02ccd85edd0fce814dfd,05/28/1955,2020-09-03_14h51.41.100,proactive2,2020.1.2,MacIntel,60,5f5126bb654d4b30ee6923d8,5f513b0c8bb796345dec0ab7,1,,,,,,bench,,,,,,0,22,22,17,1,2,1,,,,,,,,,,,,,,,,,,,,,,,,,,,,,,,,,,,,,,,,,,,,,,,,,,,,,,,,,,,,,,,,,,,,,,,,,,,,,,,,,,,,,,,,,,,,,,,,,,,
,,,,,,,,,,stimuli/images/PICTURE_685.png,PENNY,5edc02ccd85edd0fce814dfd,05/28/1955,2020-09-03_14h51.41.100,proactive2,2020.1.2,MacIntel,60,5f5126bb654d4b30ee6923d8,5f513b0c8bb796345dec0ab7,1,,,,,,goose,,,,,,0,23,23,4,1,1,1,,,,,,,,,,,,,,,,,,,,,,,,,,,,,,,,,,,,,,,,,,,,,,,,,,,,,,,,,,,,,,,,,,,,,,,,,,,,,,,,,,,,,,,,,,,,,,,,,,,
,,,,,,,,,,stimuli/images/PICTURE_708.png,RECORD,5edc02ccd85edd0fce814dfd,05/28/1955,2020-09-03_14h51.41.100,proactive2,2020.1.2,MacIntel,60,5f5126bb654d4b30ee6923d8,5f513b0c8bb796345dec0ab7,1,,,,,,monkey,,,,,,0,24,24,58,1,6,1,,,,,,,,,,,,,,,,,,,,,,,,,,,,,,,,,,,,,,,,,,,,,,,,,,,,,,,,,,,,,,,,,,,,,,,,,,,,,,,,,,,,,,,,,,,,,,,,,,,
,,,,,,,,,,stimuli/images/PICTURE_203.png,GODS,5edc02ccd85edd0fce814dfd,05/28/1955,2020-09-03_14h51.41.100,proactive2,2020.1.2,MacIntel,60,5f5126bb654d4b30ee6923d8,5f513b0c8bb796345dec0ab7,1,,,,,,cap,,,,,,0,25,25,30,1,4,1,,,,,,,,,,,,,,,,,,,,,,,,,,,,,,,,,,,,,,,,,,,,,,,,,,,,,,,,,,,,,,,,,,,,,,,,,,,,,,,,,,,,,,,,,,,,,,,,,,,
,,,,,,,,,,stimuli/images/PICTURE_147.png,WOMEN,5edc02ccd85edd0fce814dfd,05/28/1955,2020-09-03_14h51.41.100,proactive2,2020.1.2,MacIntel,60,5f5126bb654d4b30ee6923d8,5f513b0c8bb796345dec0ab7,1,,,,,,hanger,,,,,,0,26,26,7,1,1,1,,,,,,,,,,,,,,,,,,,,,,,,,,,,,,,,,,,,,,,,,,,,,,,,,,,,,,,,,,,,,,,,,,,,,,,,,,,,,,,,,,,,,,,,,,,,,,,,,,,
,,,,,,,,,,stimuli/images/PICTURE_32.png,KIND,5edc02ccd85edd0fce814dfd,05/28/1955,2020-09-03_14h51.41.100,proactive2,2020.1.2,MacIntel,60,5f5126bb654d4b30ee6923d8,5f513b0c8bb796345dec0ab7,1,,,,,,crown,,,,,,0,27,27,35,1,4,1,,,,,,,,,,,,,,,,,,,,,,,,,,,,,,,,,,,,,,,,,,,,,,,,,,,,,,,,,,,,,,,,,,,,,,,,,,,,,,,,,,,,,,,,,,,,,,,,,,,
,,,,,,,,,,stimuli/images/PICTURE_85.png,TOILET,5edc02ccd85edd0fce814dfd,05/28/1955,2020-09-03_14h51.41.100,proactive2,2020.1.2,MacIntel,60,5f5126bb654d4b30ee6923d8,5f513b0c8bb796345dec0ab7,1,,,,,,diamond,,,,,,0,28,28,48,1,5,1,,,,,,,,,,,,,,,,,,,,,,,,,,,,,,,,,,,,,,,,,,,,,,,,,,,,,,,,,,,,,,,,,,,,,,,,,,,,,,,,,,,,,,,,,,,,,,,,,,,
,,,,,,,,,,stimuli/images/PICTURE_95.png,HONEY,5edc02ccd85edd0fce814dfd,05/28/1955,2020-09-03_14h51.41.100,proactive2,2020.1.2,MacIntel,60,5f5126bb654d4b30ee6923d8,5f513b0c8bb796345dec0ab7,1,,,,,,suitcase,,,,,,0,29,29,44,1,5,1,,,,,,,,,,,,,,,,,,,,,,,,,,,,,,,,,,,,,,,,,,,,,,,,,,,,,,,,,,,,,,,,,,,,,,,,,,,,,,,,,,,,,,,,,,,,,,,,,,,
,,,,,,,,,,stimuli/images/PICTURE_108.png,POLICY,5edc02ccd85edd0fce814dfd,05/28/1955,2020-09-03_14h51.41.100,proactive2,2020.1.2,MacIntel,60,5f5126bb654d4b30ee6923d8,5f513b0c8bb796345dec0ab7,1,,,,,,calendar,,,,,,0,30,30,22,1,3,1,,,,,,,,,,,,,,,,,,,,,,,,,,,,,,,,,,,,,,,,,,,,,,,,,,,,,,,,,,,,,,,,,,,,,,,,,,,,,,,,,,,,,,,,,,,,,,,,,,,
,,,,,,,,,,stimuli/images/PICTURE_405.png,YEAR,5edc02ccd85edd0fce814dfd,05/28/1955,2020-09-03_14h51.41.100,proactive2,2020.1.2,MacIntel,60,5f5126bb654d4b30ee6923d8,5f513b0c8bb796345dec0ab7,1,,,,,,anchor,,,,,,0,31,31,34,1,4,1,,,,,,,,,,,,,,,,,,,,,,,,,,,,,,,,,,,,,,,,,,,,,,,,,,,,,,,,,,,,,,,,,,,,,,,,,,,,,,,,,,,,,,,,,,,,,,,,,,,
,,,,,,,,,,stimuli/images/PICTURE_380.png,CANDY,5edc02ccd85edd0fce814dfd,05/28/1955,2020-09-03_14h51.41.100,proactive2,2020.1.2,MacIntel,60,5f5126bb654d4b30ee6923d8,5f513b0c8bb796345dec0ab7,1,,,,,,gorilla,,,,,,0,32,32,0,1,1,1,,,,,,,,,,,,,,,,,,,,,,,,,,,,,,,,,,,,,,,,,,,,,,,,,,,,,,,,,,,,,,,,,,,,,,,,,,,,,,,,,,,,,,,,,,,,,,,,,,,
,,,,,,,,,,stimuli/images/PICTURE_383.png,SERIES,5edc02ccd85edd0fce814dfd,05/28/1955,2020-09-03_14h51.41.100,proactive2,2020.1.2,MacIntel,60,5f5126bb654d4b30ee6923d8,5f513b0c8bb796345dec0ab7,1,,,,,,coin,,,,,,0,33,33,46,1,5,1,,,,,,,,,,,,,,,,,,,,,,,,,,,,,,,,,,,,,,,,,,,,,,,,,,,,,,,,,,,,,,,,,,,,,,,,,,,,,,,,,,,,,,,,,,,,,,,,,,,
,,,,,,,,,,stimuli/images/PICTURE_33.png,FRIEND,5edc02ccd85edd0fce814dfd,05/28/1955,2020-09-03_14h51.41.100,proactive2,2020.1.2,MacIntel,60,5f5126bb654d4b30ee6923d8,5f513b0c8bb796345dec0ab7,1,,,,,,frame,,,,,,0,34,34,8,1,1,1,,,,,,,,,,,,,,,,,,,,,,,,,,,,,,,,,,,,,,,,,,,,,,,,,,,,,,,,,,,,,,,,,,,,,,,,,,,,,,,,,,,,,,,,,,,,,,,,,,,
,,,,,,,,,,stimuli/images/PICTURE_403.png,RIVER,5edc02ccd85edd0fce814dfd,05/28/1955,2020-09-03_14h51.41.100,proactive2,2020.1.2,MacIntel,60,5f5126bb654d4b30ee6923d8,5f513b0c8bb796345dec0ab7,1,,,,,,cathedral,,,,,,0,35,35,40,1,5,1,,,,,,,,,,,,,,,,,,,,,,,,,,,,,,,,,,,,,,,,,,,,,,,,,,,,,,,,,,,,,,,,,,,,,,,,,,,,,,,,,,,,,,,,,,,,,,,,,,,
,,,,,,,,,,stimuli/images/PICTURE_32.png,PILLS,5edc02ccd85edd0fce814dfd,05/28/1955,2020-09-03_14h51.41.100,proactive2,2020.1.2,MacIntel,60,5f5126bb654d4b30ee6923d8,5f513b0c8bb796345dec0ab7,1,,,,,,crown,,,,,,0,36,36,18,1,2,1,,,,,,,,,,,,,,,,,,,,,,,,,,,,,,,,,,,,,,,,,,,,,,,,,,,,,,,,,,,,,,,,,,,,,,,,,,,,,,,,,,,,,,,,,,,,,,,,,,,
,,,,,,,,,,stimuli/images/PICTURE_487.png,GIRL,5edc02ccd85edd0fce814dfd,05/28/1955,2020-09-03_14h51.41.100,proactive2,2020.1.2,MacIntel,60,5f5126bb654d4b30ee6923d8,5f513b0c8bb796345dec0ab7,1,,,,,,basket,,,,,,0,37,37,45,1,5,1,,,,,,,,,,,,,,,,,,,,,,,,,,,,,,,,,,,,,,,,,,,,,,,,,,,,,,,,,,,,,,,,,,,,,,,,,,,,,,,,,,,,,,,,,,,,,,,,,,,
,,,,,,,,,,stimuli/images/PICTURE_405.png,PLENTY,5edc02ccd85edd0fce814dfd,05/28/1955,2020-09-03_14h51.41.100,proactive2,2020.1.2,MacIntel,60,5f5126bb654d4b30ee6923d8,5f513b0c8bb796345dec0ab7,1,,,,,,anchor,,,,,,0,38,38,23,1,3,1,,,,,,,,,,,,,,,,,,,,,,,,,,,,,,,,,,,,,,,,,,,,,,,,,,,,,,,,,,,,,,,,,,,,,,,,,,,,,,,,,,,,,,,,,,,,,,,,,,,
,,,,,,,,,,stimuli/images/PICTURE_177.png,WRITER,5edc02ccd85edd0fce814dfd,05/28/1955,2020-09-03_14h51.41.100,proactive2,2020.1.2,MacIntel,60,5f5126bb654d4b30ee6923d8,5f513b0c8bb796345dec0ab7,1,,,,,,mushroom,,,,,,0,39,39,41,1,5,1,,,,,,,,,,,,,,,,,,,,,,,,,,,,,,,,,,,,,,,,,,,,,,,,,,,,,,,,,,,,,,,,,,,,,,,,,,,,,,,,,,,,,,,,,,,,,,,,,,,
,,,,,,,,,,stimuli/images/PICTURE_285.png,LIFE,5edc02ccd85edd0fce814dfd,05/28/1955,2020-09-03_14h51.41.100,proactive2,2020.1.2,MacIntel,60,5f5126bb654d4b30ee6923d8,5f513b0c8bb796345dec0ab7,1,,,,,,carrot,,,,,,0,40,40,33,1,4,1,,,,,,,,,,,,,,,,,,,,,,,,,,,,,,,,,,,,,,,,,,,,,,,,,,,,,,,,,,,,,,,,,,,,,,,,,,,,,,,,,,,,,,,,,,,,,,,,,,,
,,,,,,,,,,stimuli/images/PICTURE_667.png,RIVER,5edc02ccd85edd0fce814dfd,05/28/1955,2020-09-03_14h51.41.100,proactive2,2020.1.2,MacIntel,60,5f5126bb654d4b30ee6923d8,5f513b0c8bb796345dec0ab7,1,,,,,,daisy,,,,,,0,41,41,10,1,2,1,,,,,,,,,,,,,,,,,,,,,,,,,,,,,,,,,,,,,,,,,,,,,,,,,,,,,,,,,,,,,,,,,,,,,,,,,,,,,,,,,,,,,,,,,,,,,,,,,,,
,,,,,,,,,,stimuli/images/PICTURE_504.png,COPS,5edc02ccd85edd0fce814dfd,05/28/1955,2020-09-03_14h51.41.100,proactive2,2020.1.2,MacIntel,60,5f5126bb654d4b30ee6923d8,5f513b0c8bb796345dec0ab7,1,,,,,,wheel,,,,,,0,42,42,52,1,6,1,,,,,,,,,,,,,,,,,,,,,,,,,,,,,,,,,,,,,,,,,,,,,,,,,,,,,,,,,,,,,,,,,,,,,,,,,,,,,,,,,,,,,,,,,,,,,,,,,,,
,,,,,,,,,,stimuli/images/PICTURE_339.png,CLIENT,5edc02ccd85edd0fce814dfd,05/28/1955,2020-09-03_14h51.41.100,proactive2,2020.1.2,MacIntel,60,5f5126bb654d4b30ee6923d8,5f513b0c8bb796345dec0ab7,1,,,,,,backpack,,,,,,0,43,43,11,1,2,1,,,,,,,,,,,,,,,,,,,,,,,,,,,,,,,,,,,,,,,,,,,,,,,,,,,,,,,,,,,,,,,,,,,,,,,,,,,,,,,,,,,,,,,,,,,,,,,,,,,
,,,,,,,,,,stimuli/images/PICTURE_2.png,FLIGHT,5edc02ccd85edd0fce814dfd,05/28/1955,2020-09-03_14h51.41.100,proactive2,2020.1.2,MacIntel,60,5f5126bb654d4b30ee6923d8,5f513b0c8bb796345dec0ab7,1,,,,,,tyre,,,,,,0,44,44,15,1,2,1,,,,,,,,,,,,,,,,,,,,,,,,,,,,,,,,,,,,,,,,,,,,,,,,,,,,,,,,,,,,,,,,,,,,,,,,,,,,,,,,,,,,,,,,,,,,,,,,,,,
,,,,,,,,,,stimuli/images/PICTURE_504.png,YEAR,5edc02ccd85edd0fce814dfd,05/28/1955,2020-09-03_14h51.41.100,proactive2,2020.1.2,MacIntel,60,5f5126bb654d4b30ee6923d8,5f513b0c8bb796345dec0ab7,1,,,,,,wheel,,,,,,0,45,45,13,1,2,1,,,,,,,,,,,,,,,,,,,,,,,,,,,,,,,,,,,,,,,,,,,,,,,,,,,,,,,,,,,,,,,,,,,,,,,,,,,,,,,,,,,,,,,,,,,,,,,,,,,
,,,,,,,,,,stimuli/images/PICTURE_744.png,WEAPON,5edc02ccd85edd0fce814dfd,05/28/1955,2020-09-03_14h51.41.100,proactive2,2020.1.2,MacIntel,60,5f5126bb654d4b30ee6923d8,5f513b0c8bb796345dec0ab7,1,,,,,,ring,,,,,,0,46,46,50,1,6,1,,,,,,,,,,,,,,,,,,,,,,,,,,,,,,,,,,,,,,,,,,,,,,,,,,,,,,,,,,,,,,,,,,,,,,,,,,,,,,,,,,,,,,,,,,,,,,,,,,,
,,,,,,,,,,stimuli/images/PICTURE_297.png,RIVER,5edc02ccd85edd0fce814dfd,05/28/1955,2020-09-03_14h51.41.100,proactive2,2020.1.2,MacIntel,60,5f5126bb654d4b30ee6923d8,5f513b0c8bb796345dec0ab7,1,,,,,,aeroplane,,,,,,0,47,47,39,1,4,1,,,,,,,,,,,,,,,,,,,,,,,,,,,,,,,,,,,,,,,,,,,,,,,,,,,,,,,,,,,,,,,,,,,,,,,,,,,,,,,,,,,,,,,,,,,,,,,,,,,
,,,,,,,,,,stimuli/images/PICTURE_383.png,WRITER,5edc02ccd85edd0fce814dfd,05/28/1955,2020-09-03_14h51.41.100,proactive2,2020.1.2,MacIntel,60,5f5126bb654d4b30ee6923d8,5f513b0c8bb796345dec0ab7,1,,,,,,coin,,,,,,0,48,48,28,1,3,1,,,,,,,,,,,,,,,,,,,,,,,,,,,,,,,,,,,,,,,,,,,,,,,,,,,,,,,,,,,,,,,,,,,,,,,,,,,,,,,,,,,,,,,,,,,,,,,,,,,
,,,,,,,,,,stimuli/images/PICTURE_147.png,YEAR,5edc02ccd85edd0fce814dfd,05/28/1955,2020-09-03_14h51.41.100,proactive2,2020.1.2,MacIntel,60,5f5126bb654d4b30ee6923d8,5f513b0c8bb796345dec0ab7,1,,,,,,hanger,,,,,,0,49,49,21,1,3,1,,,,,,,,,,,,,,,,,,,,,,,,,,,,,,,,,,,,,,,,,,,,,,,,,,,,,,,,,,,,,,,,,,,,,,,,,,,,,,,,,,,,,,,,,,,,,,,,,,,
,,,,,,,,,,stimuli/images/PICTURE_403.png,WRITER,5edc02ccd85edd0fce814dfd,05/28/1955,2020-09-03_14h51.41.100,proactive2,2020.1.2,MacIntel,60,5f5126bb654d4b30ee6923d8,5f513b0c8bb796345dec0ab7,1,,,,,,cathedral,,,,,,0,50,50,31,1,4,1,,,,,,,,,,,,,,,,,,,,,,,,,,,,,,,,,,,,,,,,,,,,,,,,,,,,,,,,,,,,,,,,,,,,,,,,,,,,,,,,,,,,,,,,,,,,,,,,,,,
,,,,,,,,,,stimuli/images/PICTURE_403.png,TOILET,5edc02ccd85edd0fce814dfd,05/28/1955,2020-09-03_14h51.41.100,proactive2,2020.1.2,MacIntel,60,5f5126bb654d4b30ee6923d8,5f513b0c8bb796345dec0ab7,1,,,,,,cathedral,,,,,,0,51,51,25,1,3,1,,,,,,,,,,,,,,,,,,,,,,,,,,,,,,,,,,,,,,,,,,,,,,,,,,,,,,,,,,,,,,,,,,,,,,,,,,,,,,,,,,,,,,,,,,,,,,,,,,,
,,,,,,,,,,stimuli/images/PICTURE_504.png,ARTIST,5edc02ccd85edd0fce814dfd,05/28/1955,2020-09-03_14h51.41.100,proactive2,2020.1.2,MacIntel,60,5f5126bb654d4b30ee6923d8,5f513b0c8bb796345dec0ab7,1,,,,,,wheel,,,,,,0,52,52,49,1,5,1,,,,,,,,,,,,,,,,,,,,,,,,,,,,,,,,,,,,,,,,,,,,,,,,,,,,,,,,,,,,,,,,,,,,,,,,,,,,,,,,,,,,,,,,,,,,,,,,,,,
,,,,,,,,,,stimuli/images/PICTURE_68.png,MILE,5edc02ccd85edd0fce814dfd,05/28/1955,2020-09-03_14h51.41.100,proactive2,2020.1.2,MacIntel,60,5f5126bb654d4b30ee6923d8,5f513b0c8bb796345dec0ab7,1,,,,,,candle,,,,,,0,53,53,51,1,6,1,,,,,,,,,,,,,,,,,,,,,,,,,,,,,,,,,,,,,,,,,,,,,,,,,,,,,,,,,,,,,,,,,,,,,,,,,,,,,,,,,,,,,,,,,,,,,,,,,,,
,,,,,,,,,,stimuli/images/PICTURE_677.png,APPLE,5edc02ccd85edd0fce814dfd,05/28/1955,2020-09-03_14h51.41.100,proactive2,2020.1.2,MacIntel,60,5f5126bb654d4b30ee6923d8,5f513b0c8bb796345dec0ab7,1,,,,,,map,,,,,,0,54,54,43,1,5,1,,,,,,,,,,,,,,,,,,,,,,,,,,,,,,,,,,,,,,,,,,,,,,,,,,,,,,,,,,,,,,,,,,,,,,,,,,,,,,,,,,,,,,,,,,,,,,,,,,,
,,,,,,,,,,stimuli/images/PICTURE_308.png,FAMILY,5edc02ccd85edd0fce814dfd,05/28/1955,2020-09-03_14h51.41.100,proactive2,2020.1.2,MacIntel,60,5f5126bb654d4b30ee6923d8,5f513b0c8bb796345dec0ab7,1,,,,,,dice,,,,,,0,55,55,36,1,4,1,,,,,,,,,,,,,,,,,,,,,,,,,,,,,,,,,,,,,,,,,,,,,,,,,,,,,,,,,,,,,,,,,,,,,,,,,,,,,,,,,,,,,,,,,,,,,,,,,,,
,,,,,,,,,,stimuli/images/PICTURE_327.png,CASINO,5edc02ccd85edd0fce814dfd,05/28/1955,2020-09-03_14h51.41.100,proactive2,2020.1.2,MacIntel,60,5f5126bb654d4b30ee6923d8,5f513b0c8bb796345dec0ab7,1,,,,,,helmet,,,,,,0,56,56,20,1,3,1,,,,,,,,,,,,,,,,,,,,,,,,,,,,,,,,,,,,,,,,,,,,,,,,,,,,,,,,,,,,,,,,,,,,,,,,,,,,,,,,,,,,,,,,,,,,,,,,,,,
,,,,,,,,,,stimuli/images/PICTURE_340.png,LETTER,5edc02ccd85edd0fce814dfd,05/28/1955,2020-09-03_14h51.41.100,proactive2,2020.1.2,MacIntel,60,5f5126bb654d4b30ee6923d8,5f513b0c8bb796345dec0ab7,1,,,,,,mirror,,,,,,0,57,57,24,1,3,1,,,,,,,,,,,,,,,,,,,,,,,,,,,,,,,,,,,,,,,,,,,,,,,,,,,,,,,,,,,,,,,,,,,,,,,,,,,,,,,,,,,,,,,,,,,,,,,,,,,
,,,,,,,,,,stimuli/images/PICTURE_68.png,ROOF,5edc02ccd85edd0fce814dfd,05/28/1955,2020-09-03_14h51.41.100,proactive2,2020.1.2,MacIntel,60,5f5126bb654d4b30ee6923d8,5f513b0c8bb796345dec0ab7,1,,,,,,candle,,,,,,0,58,58,38,1,4,1,,,,,,,,,,,,,,,,,,,,,,,,,,,,,,,,,,,,,,,,,,,,,,,,,,,,,,,,,,,,,,,,,,,,,,,,,,,,,,,,,,,,,,,,,,,,,,,,,,,
,,?,0.00104,0,,,,,,stimuli/images/PICTURE_655.png,TOILET,5edc02ccd85edd0fce814dfd,05/28/1955,2020-09-03_14h51.41.100,proactive2,2020.1.2,MacIntel,60,5f5126bb654d4b30ee6923d8,5f513b0c8bb796345dec0ab7,1,,,,,,megaphone,,,,,,,,,,,2,1,0,0,0,12,1,,,,,,,,,,,,,,,,,,,,,,,,,,,,,,,,,,,,,,,,,,,,,,,,,,,,,,,,,,,,,,,,,,,,,,,,,,,,,,,,,,,,,,,,,,,,,,
,,?,0.000835,0,,,,,,stimuli/images/PICTURE_654.png,MONTH,5edc02ccd85edd0fce814dfd,05/28/1955,2020-09-03_14h51.41.100,proactive2,2020.1.2,MacIntel,60,5f5126bb654d4b30ee6923d8,5f513b0c8bb796345dec0ab7,1,,,,,,pencil,,,,,,,,,,,3,1,0,1,1,29,1,,,,,,,,,,,,,,,,,,,,,,,,,,,,,,,,,,,,,,,,,,,,,,,,,,,,,,,,,,,,,,,,,,,,,,,,,,,,,,,,,,,,,,,,,,,,,,
,,?,0.000935,0,,,,,,stimuli/images/PICTURE_380.png,HONEY,5edc02ccd85edd0fce814dfd,05/28/1955,2020-09-03_14h51.41.100,proactive2,2020.1.2,MacIntel,60,5f5126bb654d4b30ee6923d8,5f513b0c8bb796345dec0ab7,1,,,,,,gorilla,,,,,,,,,,,2,1,0,2,2,19,1,,,,,,,,,,,,,,,,,,,,,,,,,,,,,,,,,,,,,,,,,,,,,,,,,,,,,,,,,,,,,,,,,,,,,,,,,,,,,,,,,,,,,,,,,,,,,,
,,?,0.00122,0,,,,,,stimuli/images/PICTURE_95.png,MILLER,5edc02ccd85edd0fce814dfd,05/28/1955,2020-09-03_14h51.41.100,proactive2,2020.1.2,MacIntel,60,5f5126bb654d4b30ee6923d8,5f513b0c8bb796345dec0ab7,1,,,,,,suitcase,,,,,,,,,,,6,1,0,3,3,56,1,,,,,,,,,,,,,,,,,,,,,,,,,,,,,,,,,,,,,,,,,,,,,,,,,,,,,,,,,,,,,,,,,,,,,,,,,,,,,,,,,,,,,,,,,,,,,,
,,?,0.00079,0,,,,,,stimuli/images/PICTURE_675.png,SALE,5edc02ccd85edd0fce814dfd,05/28/1955,2020-09-03_14h51.41.100,proactive2,2020.1.2,MacIntel,60,5f5126bb654d4b30ee6923d8,5f513b0c8bb796345dec0ab7,1,,,,,,windmill,,,,,,,,,,,5,1,0,4,4,47,1,,,,,,,,,,,,,,,,,,,,,,,,,,,,,,,,,,,,,,,,,,,,,,,,,,,,,,,,,,,,,,,,,,,,,,,,,,,,,,,,,,,,,,,,,,,,,,
,,?,0.000785,0,,,,,,stimuli/images/PICTURE_208.png,SYSTEM,5edc02ccd85edd0fce814dfd,05/28/1955,2020-09-03_14h51.41.100,proactive2,2020.1.2,MacIntel,60,5f5126bb654d4b30ee6923d8,5f513b0c8bb796345dec0ab7,1,,,,,,microphone,,,,,,,,,,,4,1,0,5,5,32,1,,,,,,,,,,,,,,,,,,,,,,,,,,,,,,,,,,,,,,,,,,,,,,,,,,,,,,,,,,,,,,,,,,,,,,,,,,,,,,,,,,,,,,,,,,,,,,
,,PATTERN,7.29151,0,,,,,,stimuli/images/PICTURE_327.png,SERIES,5edc02ccd85edd0fce814dfd,05/28/1955,2020-09-03_14h51.41.100,proactive2,2020.1.2,MacIntel,60,5f5126bb654d4b30ee6923d8,5f513b0c8bb796345dec0ab7,1,,,,,,helmet,,,,,,,,,,,1,1,0,6,6,3,1,,,,,,,,,,,,,,,,,,,,,,,,,,,,,,,,,,,,,,,,,,,,,,,,,,,,,,,,,,,,,,,,,,,,,,,,,,,,,,,,,,,,,,,,,,,,,,
,,?,0.001515,0,,,,,,stimuli/images/PICTURE_750.png,HOTEL,5edc02ccd85edd0fce814dfd,05/28/1955,2020-09-03_14h51.41.100,proactive2,2020.1.2,MacIntel,60,5f5126bb654d4b30ee6923d8,5f513b0c8bb796345dec0ab7,1,,,,,,kettle,,,,,,,,,,,3,1,0,7,7,27,1,,,,,,,,,,,,,,,,,,,,,,,,,,,,,,,,,,,,,,,,,,,,,,,,,,,,,,,,,,,,,,,,,,,,,,,,,,,,,,,,,,,,,,,,,,,,,,
,,?,0.001435,0,,,,,,stimuli/images/PICTURE_667.png,RIVER,5edc02ccd85edd0fce814dfd,05/28/1955,2020-09-03_14h51.41.100,proactive2,2020.1.2,MacIntel,60,5f5126bb654d4b30ee6923d8,5f513b0c8bb796345dec0ab7,1,,,,,,daisy,,,,,,,,,,,2,1,0,8,8,10,1,,,,,,,,,,,,,,,,,,,,,,,,,,,,,,,,,,,,,,,,,,,,,,,,,,,,,,,,,,,,,,,,,,,,,,,,,,,,,,,,,,,,,,,,,,,,,,
,,?,0.000705,0,,,,,,stimuli/images/PICTURE_405.png,YEAR,5edc02ccd85edd0fce814dfd,05/28/1955,2020-09-03_14h51.41.100,proactive2,2020.1.2,MacIntel,60,5f5126bb654d4b30ee6923d8,5f513b0c8bb796345dec0ab7,1,,,,,,anchor,,,,,,,,,,,4,1,0,9,9,34,1,,,,,,,,,,,,,,,,,,,,,,,,,,,,,,,,,,,,,,,,,,,,,,,,,,,,,,,,,,,,,,,,,,,,,,,,,,,,,,,,,,,,,,,,,,,,,,
,,?,0.000595,0,,,,,,stimuli/images/PICTURE_85.png,TOILET,5edc02ccd85edd0fce814dfd,05/28/1955,2020-09-03_14h51.41.100,proactive2,2020.1.2,MacIntel,60,5f5126bb654d4b30ee6923d8,5f513b0c8bb796345dec0ab7,1,,,,,,diamond,,,,,,,,,,,5,1,0,10,10,48,1,,,,,,,,,,,,,,,,,,,,,,,,,,,,,,,,,,,,,,,,,,,,,,,,,,,,,,,,,,,,,,,,,,,,,,,,,,,,,,,,,,,,,,,,,,,,,,
,,?,0.000605,0,,,,,,stimuli/images/PICTURE_42.png,BOYS,5edc02ccd85edd0fce814dfd,05/28/1955,2020-09-03_14h51.41.100,proactive2,2020.1.2,MacIntel,60,5f5126bb654d4b30ee6923d8,5f513b0c8bb796345dec0ab7,1,,,,,,pear,,,,,,,,,,,6,1,0,11,11,55,1,,,,,,,,,,,,,,,,,,,,,,,,,,,,,,,,,,,,,,,,,,,,,,,,,,,,,,,,,,,,,,,,,,,,,,,,,,,,,,,,,,,,,,,,,,,,,,
,,?,0.000735,0,,,,,,stimuli/images/PICTURE_327.png,CASINO,5edc02ccd85edd0fce814dfd,05/28/1955,2020-09-03_14h51.41.100,proactive2,2020.1.2,MacIntel,60,5f5126bb654d4b30ee6923d8,5f513b0c8bb796345dec0ab7,1,,,,,,helmet,,,,,,,,,,,3,1,0,12,12,20,1,,,,,,,,,,,,,,,,,,,,,,,,,,,,,,,,,,,,,,,,,,,,,,,,,,,,,,,,,,,,,,,,,,,,,,,,,,,,,,,,,,,,,,,,,,,,,,
,,?,0.00073,0,,,,,,stimuli/images/PICTURE_504.png,YEAR,5edc02ccd85edd0fce814dfd,05/28/1955,2020-09-03_14h51.41.100,proactive2,2020.1.2,MacIntel,60,5f5126bb654d4b30ee6923d8,5f513b0c8bb796345dec0ab7,1,,,,,,wheel,,,,,,,,,,,2,1,0,13,13,13,1,,,,,,,,,,,,,,,,,,,,,,,,,,,,,,,,,,,,,,,,,,,,,,,,,,,,,,,,,,,,,,,,,,,,,,,,,,,,,,,,,,,,,,,,,,,,,,
,,?,0.00093,0,,,,,,stimuli/images/PICTURE_108.png,POLICY,5edc02ccd85edd0fce814dfd,05/28/1955,2020-09-03_14h51.41.100,proactive2,2020.1.2,MacIntel,60,5f5126bb654d4b30ee6923d8,5f513b0c8bb796345dec0ab7,1,,,,,,calendar,,,,,,,,,,,3,1,0,14,14,22,1,,,,,,,,,,,,,,,,,,,,,,,,,,,,,,,,,,,,,,,,,,,,,,,,,,,,,,,,,,,,,,,,,,,,,,,,,,,,,,,,,,,,,,,,,,,,,,
,,CANDY,4.491455,1,,,,,,stimuli/images/PICTURE_380.png,CANDY,5edc02ccd85edd0fce814dfd,05/28/1955,2020-09-03_14h51.41.100,proactive2,2020.1.2,MacIntel,60,5f5126bb654d4b30ee6923d8,5f513b0c8bb796345dec0ab7,1,,,,,,gorilla,,,,,,,,,,,1,1,0,15,15,0,1,,,,,,,,,,,,,,,,,,,,,,,,,,,,,,,,,,,,,,,,,,,,,,,,,,,,,,,,,,,,,,,,,,,,,,,,,,,,,,,,,,,,,,,,,,,,,,
,,?,0.00191,0,,,,,,stimuli/images/PICTURE_708.png,RECORD,5edc02ccd85edd0fce814dfd,05/28/1955,2020-09-03_14h51.41.100,proactive2,2020.1.2,MacIntel,60,5f5126bb654d4b30ee6923d8,5f513b0c8bb796345dec0ab7,1,,,,,,monkey,,,,,,,,,,,6,1,0,16,16,58,1,,,,,,,,,,,,,,,,,,,,,,,,,,,,,,,,,,,,,,,,,,,,,,,,,,,,,,,,,,,,,,,,,,,,,,,,,,,,,,,,,,,,,,,,,,,,,,
,,?,0.001155,0,,,,,,stimuli/images/PICTURE_233.png,LOTS,5edc02ccd85edd0fce814dfd,05/28/1955,2020-09-03_14h51.41.100,proactive2,2020.1.2,MacIntel,60,5f5126bb654d4b30ee6923d8,5f513b0c8bb796345dec0ab7,1,,,,,,salt,,,,,,,,,,,5,1,0,17,17,42,1,,,,,,,,,,,,,,,,,,,,,,,,,,,,,,,,,,,,,,,,,,,,,,,,,,,,,,,,,,,,,,,,,,,,,,,,,,,,,,,,,,,,,,,,,,,,,,
,,RIVER,2.78144,1,,,,,,stimuli/images/PICTURE_491.png,RIVER,5edc02ccd85edd0fce814dfd,05/28/1955,2020-09-03_14h51.41.100,proactive2,2020.1.2,MacIntel,60,5f5126bb654d4b30ee6923d8,5f513b0c8bb796345dec0ab7,1,,,,,,rug,,,,,,,,,,,1,1,0,18,18,6,1,,,,,,,,,,,,,,,,,,,,,,,,,,,,,,,,,,,,,,,,,,,,,,,,,,,,,,,,,,,,,,,,,,,,,,,,,,,,,,,,,,,,,,,,,,,,,,
,,KNOT,5.994855,0,,,,,,stimuli/images/PICTURE_296.png,LOTS,5edc02ccd85edd0fce814dfd,05/28/1955,2020-09-03_14h51.41.100,proactive2,2020.1.2,MacIntel,60,5f5126bb654d4b30ee6923d8,5f513b0c8bb796345dec0ab7,1,,,,,,bolt,,,,,,,,,,,1,1,0,19,19,9,1,,,,,,,,,,,,,,,,,,,,,,,,,,,,,,,,,,,,,,,,,,,,,,,,,,,,,,,,,,,,,,,,,,,,,,,,,,,,,,,,,,,,,,,,,,,,,,
,,?,0.0048,0,,,,,,stimuli/images/PICTURE_504.png,ARTIST,5edc02ccd85edd0fce814dfd,05/28/1955,2020-09-03_14h51.41.100,proactive2,2020.1.2,MacIntel,60,5f5126bb654d4b30ee6923d8,5f513b0c8bb796345dec0ab7,1,,,,,,wheel,,,,,,,,,,,5,1,0,20,20,49,1,,,,,,,,,,,,,,,,,,,,,,,,,,,,,,,,,,,,,,,,,,,,,,,,,,,,,,,,,,,,,,,,,,,,,,,,,,,,,,,,,,,,,,,,,,,,,,
,,?,0.000985,0,,,,,,stimuli/images/PICTURE_677.png,APPLE,5edc02ccd85edd0fce814dfd,05/28/1955,2020-09-03_14h51.41.100,proactive2,2020.1.2,MacIntel,60,5f5126bb654d4b30ee6923d8,5f513b0c8bb796345dec0ab7,1,,,,,,map,,,,,,,,,,,5,1,0,21,21,43,1,,,,,,,,,,,,,,,,,,,,,,,,,,,,,,,,,,,,,,,,,,,,,,,,,,,,,,,,,,,,,,,,,,,,,,,,,,,,,,,,,,,,,,,,,,,,,,
,,PENNY,3.112555,1,,,,,,stimuli/images/PICTURE_685.png,PENNY,5edc02ccd85edd0fce814dfd,05/28/1955,2020-09-03_14h51.41.100,proactive2,2020.1.2,MacIntel,60,5f5126bb654d4b30ee6923d8,5f513b0c8bb796345dec0ab7,1,,,,,,goose,,,,,,,,,,,1,1,0,22,22,4,1,,,,,,,,,,,,,,,,,,,,,,,,,,,,,,,,,,,,,,,,,,,,,,,,,,,,,,,,,,,,,,,,,,,,,,,,,,,,,,,,,,,,,,,,,,,,,,
,,?,0.00201,0,,,,,,stimuli/images/PICTURE_744.png,WEAPON,5edc02ccd85edd0fce814dfd,05/28/1955,2020-09-03_14h51.41.100,proactive2,2020.1.2,MacIntel,60,5f5126bb654d4b30ee6923d8,5f513b0c8bb796345dec0ab7,1,,,,,,ring,,,,,,,,,,,6,1,0,23,23,50,1,,,,,,,,,,,,,,,,,,,,,,,,,,,,,,,,,,,,,,,,,,,,,,,,,,,,,,,,,,,,,,,,,,,,,,,,,,,,,,,,,,,,,,,,,,,,,,
,,?,0.0011,0,,,,,,stimuli/images/PICTURE_339.png,CLIENT,5edc02ccd85edd0fce814dfd,05/28/1955,2020-09-03_14h51.41.100,proactive2,2020.1.2,MacIntel,60,5f5126bb654d4b30ee6923d8,5f513b0c8bb796345dec0ab7,1,,,,,,backpack,,,,,,,,,,,2,1,0,24,24,11,1,,,,,,,,,,,,,,,,,,,,,,,,,,,,,,,,,,,,,,,,,,,,,,,,,,,,,,,,,,,,,,,,,,,,,,,,,,,,,,,,,,,,,,,,,,,,,,
,,?,0.00088,0,,,,,,stimuli/images/PICTURE_68.png,ROOF,5edc02ccd85edd0fce814dfd,05/28/1955,2020-09-03_14h51.41.100,proactive2,2020.1.2,MacIntel,60,5f5126bb654d4b30ee6923d8,5f513b0c8bb796345dec0ab7,1,,,,,,candle,,,,,,,,,,,4,1,0,25,25,38,1,,,,,,,,,,,,,,,,,,,,,,,,,,,,,,,,,,,,,,,,,,,,,,,,,,,,,,,,,,,,,,,,,,,,,,,,,,,,,,,,,,,,,,,,,,,,,,
,,?,0.00094,0,,,,,,stimuli/images/PICTURE_68.png,MILE,5edc02ccd85edd0fce814dfd,05/28/1955,2020-09-03_14h51.41.100,proactive2,2020.1.2,MacIntel,60,5f5126bb654d4b30ee6923d8,5f513b0c8bb796345dec0ab7,1,,,,,,candle,,,,,,,,,,,6,1,0,26,26,51,1,,,,,,,,,,,,,,,,,,,,,,,,,,,,,,,,,,,,,,,,,,,,,,,,,,,,,,,,,,,,,,,,,,,,,,,,,,,,,,,,,,,,,,,,,,,,,,
,,?,0.000805,0,,,,,,stimuli/images/PICTURE_297.png,RIVER,5edc02ccd85edd0fce814dfd,05/28/1955,2020-09-03_14h51.41.100,proactive2,2020.1.2,MacIntel,60,5f5126bb654d4b30ee6923d8,5f513b0c8bb796345dec0ab7,1,,,,,,aeroplane,,,,,,,,,,,4,1,0,27,27,39,1,,,,,,,,,,,,,,,,,,,,,,,,,,,,,,,,,,,,,,,,,,,,,,,,,,,,,,,,,,,,,,,,,,,,,,,,,,,,,,,,,,,,,,,,,,,,,,
,,?,0.000775,0,,,,,,stimuli/images/PICTURE_469.png,AGENT,5edc02ccd85edd0fce814dfd,05/28/1955,2020-09-03_14h51.41.100,proactive2,2020.1.2,MacIntel,60,5f5126bb654d4b30ee6923d8,5f513b0c8bb796345dec0ab7,1,,,,,,stool,,,,,,,,,,,2,1,0,28,28,16,1,,,,,,,,,,,,,,,,,,,,,,,,,,,,,,,,,,,,,,,,,,,,,,,,,,,,,,,,,,,,,,,,,,,,,,,,,,,,,,,,,,,,,,,,,,,,,,
,,?,0.001115,0,,,,,,stimuli/images/PICTURE_32.png,PILLS,5edc02ccd85edd0fce814dfd,05/28/1955,2020-09-03_14h51.41.100,proactive2,2020.1.2,MacIntel,60,5f5126bb654d4b30ee6923d8,5f513b0c8bb796345dec0ab7,1,,,,,,crown,,,,,,,,,,,2,1,0,29,29,18,1,,,,,,,,,,,,,,,,,,,,,,,,,,,,,,,,,,,,,,,,,,,,,,,,,,,,,,,,,,,,,,,,,,,,,,,,,,,,,,,,,,,,,,,,,,,,,,
,,BOY,9.11802,0,,,,,,stimuli/images/PICTURE_203.png,NIGHT,5edc02ccd85edd0fce814dfd,05/28/1955,2020-09-03_14h51.41.100,proactive2,2020.1.2,MacIntel,60,5f5126bb654d4b30ee6923d8,5f513b0c8bb796345dec0ab7,1,,,,,,cap,,,,,,,,,,,1,1,0,30,30,2,1,,,,,,,,,,,,,,,,,,,,,,,,,,,,,,,,,,,,,,,,,,,,,,,,,,,,,,,,,,,,,,,,,,,,,,,,,,,,,,,,,,,,,,,,,,,,,,
,,FRIEND,3.588375,1,,,,,,stimuli/images/PICTURE_33.png,FRIEND,5edc02ccd85edd0fce814dfd,05/28/1955,2020-09-03_14h51.41.100,proactive2,2020.1.2,MacIntel,60,5f5126bb654d4b30ee6923d8,5f513b0c8bb796345dec0ab7,1,,,,,,frame,,,,,,,,,,,1,1,0,31,31,8,1,,,,,,,,,,,,,,,,,,,,,,,,,,,,,,,,,,,,,,,,,,,,,,,,,,,,,,,,,,,,,,,,,,,,,,,,,,,,,,,,,,,,,,,,,,,,,,
,,?,0.002335,0,,,,,,stimuli/images/PICTURE_308.png,FAMILY,5edc02ccd85edd0fce814dfd,05/28/1955,2020-09-03_14h51.41.100,proactive2,2020.1.2,MacIntel,60,5f5126bb654d4b30ee6923d8,5f513b0c8bb796345dec0ab7,1,,,,,,dice,,,,,,,,,,,4,1,0,32,32,36,1,,,,,,,,,,,,,,,,,,,,,,,,,,,,,,,,,,,,,,,,,,,,,,,,,,,,,,,,,,,,,,,,,,,,,,,,,,,,,,,,,,,,,,,,,,,,,,
,,?,0.00107,0,,,,,,stimuli/images/PICTURE_491.png,GLASS,5edc02ccd85edd0fce814dfd,05/28/1955,2020-09-03_14h51.41.100,proactive2,2020.1.2,MacIntel,60,5f5126bb654d4b30ee6923d8,5f513b0c8bb796345dec0ab7,1,,,,,,rug,,,,,,,,,,,2,1,0,33,33,14,1,,,,,,,,,,,,,,,,,,,,,,,,,,,,,,,,,,,,,,,,,,,,,,,,,,,,,,,,,,,,,,,,,,,,,,,,,,,,,,,,,,,,,,,,,,,,,,
,,?,0.000745,0,,,,,,stimuli/images/PICTURE_383.png,SERIES,5edc02ccd85edd0fce814dfd,05/28/1955,2020-09-03_14h51.41.100,proactive2,2020.1.2,MacIntel,60,5f5126bb654d4b30ee6923d8,5f513b0c8bb796345dec0ab7,1,,,,,,coin,,,,,,,,,,,5,1,0,34,34,46,1,,,,,,,,,,,,,,,,,,,,,,,,,,,,,,,,,,,,,,,,,,,,,,,,,,,,,,,,,,,,,,,,,,,,,,,,,,,,,,,,,,,,,,,,,,,,,,
,,?,0.000835,0,,,,,,stimuli/images/PICTURE_449.png,DUDE,5edc02ccd85edd0fce814dfd,05/28/1955,2020-09-03_14h51.41.100,proactive2,2020.1.2,MacIntel,60,5f5126bb654d4b30ee6923d8,5f513b0c8bb796345dec0ab7,1,,,,,,bench,,,,,,,,,,,2,1,0,35,35,17,1,,,,,,,,,,,,,,,,,,,,,,,,,,,,,,,,,,,,,,,,,,,,,,,,,,,,,,,,,,,,,,,,,,,,,,,,,,,,,,,,,,,,,,,,,,,,,,
,,?,0.000675,0,,,,,,stimuli/images/PICTURE_504.png,COPS,5edc02ccd85edd0fce814dfd,05/28/1955,2020-09-03_14h51.41.100,proactive2,2020.1.2,MacIntel,60,5f5126bb654d4b30ee6923d8,5f513b0c8bb796345dec0ab7,1,,,,,,wheel,,,,,,,,,,,6,1,0,36,36,52,1,,,,,,,,,,,,,,,,,,,,,,,,,,,,,,,,,,,,,,,,,,,,,,,,,,,,,,,,,,,,,,,,,,,,,,,,,,,,,,,,,,,,,,,,,,,,,,
,,?,0.000965,0,,,,,,stimuli/images/PICTURE_57.png,MOMENT,5edc02ccd85edd0fce814dfd,05/28/1955,2020-09-03_14h51.41.100,proactive2,2020.1.2,MacIntel,60,5f5126bb654d4b30ee6923d8,5f513b0c8bb796345dec0ab7,1,,,,,,stamp,,,,,,,,,,,4,1,0,37,37,37,1,,,,,,,,,,,,,,,,,,,,,,,,,,,,,,,,,,,,,,,,,,,,,,,,,,,,,,,,,,,,,,,,,,,,,,,,,,,,,,,,,,,,,,,,,,,,,,
,,?,0.000865,0,,,,,,stimuli/images/PICTURE_340.png,VALLEY,5edc02ccd85edd0fce814dfd,05/28/1955,2020-09-03_14h51.41.100,proactive2,2020.1.2,MacIntel,60,5f5126bb654d4b30ee6923d8,5f513b0c8bb796345dec0ab7,1,,,,,,mirror,,,,,,,,,,,6,1,0,38,38,54,1,,,,,,,,,,,,,,,,,,,,,,,,,,,,,,,,,,,,,,,,,,,,,,,,,,,,,,,,,,,,,,,,,,,,,,,,,,,,,,,,,,,,,,,,,,,,,,
,,WOMAN,2.56769,0,,,,,,stimuli/images/PICTURE_147.png,WOMEN,5edc02ccd85edd0fce814dfd,05/28/1955,2020-09-03_14h51.41.100,proactive2,2020.1.2,MacIntel,60,5f5126bb654d4b30ee6923d8,5f513b0c8bb796345dec0ab7,1,,,,,,hanger,,,,,,,,,,,1,1,0,39,39,7,1,,,,,,,,,,,,,,,,,,,,,,,,,,,,,,,,,,,,,,,,,,,,,,,,,,,,,,,,,,,,,,,,,,,,,,,,,,,,,,,,,,,,,,,,,,,,,,
,,?,0.0015,0,,,,,,stimuli/images/PICTURE_403.png,WRITER,5edc02ccd85edd0fce814dfd,05/28/1955,2020-09-03_14h51.41.100,proactive2,2020.1.2,MacIntel,60,5f5126bb654d4b30ee6923d8,5f513b0c8bb796345dec0ab7,1,,,,,,cathedral,,,,,,,,,,,4,1,0,40,40,31,1,,,,,,,,,,,,,,,,,,,,,,,,,,,,,,,,,,,,,,,,,,,,,,,,,,,,,,,,,,,,,,,,,,,,,,,,,,,,,,,,,,,,,,,,,,,,,,
,,?,0.001125,0,,,,,,stimuli/images/PICTURE_203.png,GODS,5edc02ccd85edd0fce814dfd,05/28/1955,2020-09-03_14h51.41.100,proactive2,2020.1.2,MacIntel,60,5f5126bb654d4b30ee6923d8,5f513b0c8bb796345dec0ab7,1,,,,,,cap,,,,,,,,,,,4,1,0,41,41,30,1,,,,,,,,,,,,,,,,,,,,,,,,,,,,,,,,,,,,,,,,,,,,,,,,,,,,,,,,,,,,,,,,,,,,,,,,,,,,,,,,,,,,,,,,,,,,,,
,,?,0.000725,0,,,,,,stimuli/images/PICTURE_296.png,LIFE,5edc02ccd85edd0fce814dfd,05/28/1955,2020-09-03_14h51.41.100,proactive2,2020.1.2,MacIntel,60,5f5126bb654d4b30ee6923d8,5f513b0c8bb796345dec0ab7,1,,,,,,bolt,,,,,,,,,,,6,1,0,42,42,57,1,,,,,,,,,,,,,,,,,,,,,,,,,,,,,,,,,,,,,,,,,,,,,,,,,,,,,,,,,,,,,,,,,,,,,,,,,,,,,,,,,,,,,,,,,,,,,,
,,?,0.000685,0,,,,,,stimuli/images/PICTURE_487.png,GIRL,5edc02ccd85edd0fce814dfd,05/28/1955,2020-09-03_14h51.41.100,proactive2,2020.1.2,MacIntel,60,5f5126bb654d4b30ee6923d8,5f513b0c8bb796345dec0ab7,1,,,,,,basket,,,,,,,,,,,5,1,0,43,43,45,1,,,,,,,,,,,,,,,,,,,,,,,,,,,,,,,,,,,,,,,,,,,,,,,,,,,,,,,,,,,,,,,,,,,,,,,,,,,,,,,,,,,,,,,,,,,,,,
,,BOYS,4.03204,1,,,,,,stimuli/images/PICTURE_95.png,BOYS,5edc02ccd85edd0fce814dfd,05/28/1955,2020-09-03_14h51.41.100,proactive2,2020.1.2,MacIntel,60,5f5126bb654d4b30ee6923d8,5f513b0c8bb796345dec0ab7,1,,,,,,suitcase,,,,,,,,,,,1,1,0,44,44,1,1,,,,,,,,,,,,,,,,,,,,,,,,,,,,,,,,,,,,,,,,,,,,,,,,,,,,,,,,,,,,,,,,,,,,,,,,,,,,,,,,,,,,,,,,,,,,,,
,,?,0.001715,0,,,,,,stimuli/images/PICTURE_403.png,TOILET,5edc02ccd85edd0fce814dfd,05/28/1955,2020-09-03_14h51.41.100,proactive2,2020.1.2,MacIntel,60,5f5126bb654d4b30ee6923d8,5f513b0c8bb796345dec0ab7,1,,,,,,cathedral,,,,,,,,,,,3,1,0,45,45,25,1,,,,,,,,,,,,,,,,,,,,,,,,,,,,,,,,,,,,,,,,,,,,,,,,,,,,,,,,,,,,,,,,,,,,,,,,,,,,,,,,,,,,,,,,,,,,,,
,,?,0.00114,0,,,,,,stimuli/images/PICTURE_177.png,WRITER,5edc02ccd85edd0fce814dfd,05/28/1955,2020-09-03_14h51.41.100,proactive2,2020.1.2,MacIntel,60,5f5126bb654d4b30ee6923d8,5f513b0c8bb796345dec0ab7,1,,,,,,mushroom,,,,,,,,,,,5,1,0,46,46,41,1,,,,,,,,,,,,,,,,,,,,,,,,,,,,,,,,,,,,,,,,,,,,,,,,,,,,,,,,,,,,,,,,,,,,,,,,,,,,,,,,,,,,,,,,,,,,,,
,,?,0.00189,0,,,,,,stimuli/images/PICTURE_147.png,YEAR,5edc02ccd85edd0fce814dfd,05/28/1955,2020-09-03_14h51.41.100,proactive2,2020.1.2,MacIntel,60,5f5126bb654d4b30ee6923d8,5f513b0c8bb796345dec0ab7,1,,,,,,hanger,,,,,,,,,,,3,1,0,47,47,21,1,,,,,,,,,,,,,,,,,,,,,,,,,,,,,,,,,,,,,,,,,,,,,,,,,,,,,,,,,,,,,,,,,,,,,,,,,,,,,,,,,,,,,,,,,,,,,,
,,?,0.000685,0,,,,,,stimuli/images/PICTURE_108.png,FLIGHT,5edc02ccd85edd0fce814dfd,05/28/1955,2020-09-03_14h51.41.100,proactive2,2020.1.2,MacIntel,60,5f5126bb654d4b30ee6923d8,5f513b0c8bb796345dec0ab7,1,,,,,,calendar,,,,,,,,,,,6,1,0,48,48,59,1,,,,,,,,,,,,,,,,,,,,,,,,,,,,,,,,,,,,,,,,,,,,,,,,,,,,,,,,,,,,,,,,,,,,,,,,,,,,,,,,,,,,,,,,,,,,,,
,,?,0.00063,0,,,,,,stimuli/images/PICTURE_95.png,HONEY,5edc02ccd85edd0fce814dfd,05/28/1955,2020-09-03_14h51.41.100,proactive2,2020.1.2,MacIntel,60,5f5126bb654d4b30ee6923d8,5f513b0c8bb796345dec0ab7,1,,,,,,suitcase,,,,,,,,,,,5,1,0,49,49,44,1,,,,,,,,,,,,,,,,,,,,,,,,,,,,,,,,,,,,,,,,,,,,,,,,,,,,,,,,,,,,,,,,,,,,,,,,,,,,,,,,,,,,,,,,,,,,,,
,,?,0.00065,0,,,,,,stimuli/images/PICTURE_405.png,PLENTY,5edc02ccd85edd0fce814dfd,05/28/1955,2020-09-03_14h51.41.100,proactive2,2020.1.2,MacIntel,60,5f5126bb654d4b30ee6923d8,5f513b0c8bb796345dec0ab7,1,,,,,,anchor,,,,,,,,,,,3,1,0,50,50,23,1,,,,,,,,,,,,,,,,,,,,,,,,,,,,,,,,,,,,,,,,,,,,,,,,,,,,,,,,,,,,,,,,,,,,,,,,,,,,,,,,,,,,,,,,,,,,,,
,,?,0.000995,0,,,,,,stimuli/images/PICTURE_383.png,WRITER,5edc02ccd85edd0fce814dfd,05/28/1955,2020-09-03_14h51.41.100,proactive2,2020.1.2,MacIntel,60,5f5126bb654d4b30ee6923d8,5f513b0c8bb796345dec0ab7,1,,,,,,coin,,,,,,,,,,,3,1,0,51,51,28,1,,,,,,,,,,,,,,,,,,,,,,,,,,,,,,,,,,,,,,,,,,,,,,,,,,,,,,,,,,,,,,,,,,,,,,,,,,,,,,,,,,,,,,,,,,,,,,
,,?,0.000585,0,,,,,,stimuli/images/PICTURE_340.png,LETTER,5edc02ccd85edd0fce814dfd,05/28/1955,2020-09-03_14h51.41.100,proactive2,2020.1.2,MacIntel,60,5f5126bb654d4b30ee6923d8,5f513b0c8bb796345dec0ab7,1,,,,,,mirror,,,,,,,,,,,3,1,0,52,52,24,1,,,,,,,,,,,,,,,,,,,,,,,,,,,,,,,,,,,,,,,,,,,,,,,,,,,,,,,,,,,,,,,,,,,,,,,,,,,,,,,,,,,,,,,,,,,,,,
,,?,0.000625,0,,,,,,stimuli/images/PICTURE_285.png,LIFE,5edc02ccd85edd0fce814dfd,05/28/1955,2020-09-03_14h51.41.100,proactive2,2020.1.2,MacIntel,60,5f5126bb654d4b30ee6923d8,5f513b0c8bb796345dec0ab7,1,,,,,,carrot,,,,,,,,,,,4,1,0,53,53,33,1,,,,,,,,,,,,,,,,,,,,,,,,,,,,,,,,,,,,,,,,,,,,,,,,,,,,,,,,,,,,,,,,,,,,,,,,,,,,,,,,,,,,,,,,,,,,,,
,,?,0.000685,0,,,,,,stimuli/images/PICTURE_2.png,FLIGHT,5edc02ccd85edd0fce814dfd,05/28/1955,2020-09-03_14h51.41.100,proactive2,2020.1.2,MacIntel,60,5f5126bb654d4b30ee6923d8,5f513b0c8bb796345dec0ab7,1,,,,,,tyre,,,,,,,,,,,2,1,0,54,54,15,1,,,,,,,,,,,,,,,,,,,,,,,,,,,,,,,,,,,,,,,,,,,,,,,,,,,,,,,,,,,,,,,,,,,,,,,,,,,,,,,,,,,,,,,,,,,,,,
,,?,0.000655,0,,,,,,stimuli/images/PICTURE_403.png,RIVER,5edc02ccd85edd0fce814dfd,05/28/1955,2020-09-03_14h51.41.100,proactive2,2020.1.2,MacIntel,60,5f5126bb654d4b30ee6923d8,5f513b0c8bb796345dec0ab7,1,,,,,,cathedral,,,,,,,,,,,5,1,0,55,55,40,1,,,,,,,,,,,,,,,,,,,,,,,,,,,,,,,,,,,,,,,,,,,,,,,,,,,,,,,,,,,,,,,,,,,,,,,,,,,,,,,,,,,,,,,,,,,,,,
,,?,0.00058,0,,,,,,stimuli/images/PICTURE_32.png,KIND,5edc02ccd85edd0fce814dfd,05/28/1955,2020-09-03_14h51.41.100,proactive2,2020.1.2,MacIntel,60,5f5126bb654d4b30ee6923d8,5f513b0c8bb796345dec0ab7,1,,,,,,crown,,,,,,,,,,,4,1,0,56,56,35,1,,,,,,,,,,,,,,,,,,,,,,,,,,,,,,,,,,,,,,,,,,,,,,,,,,,,,,,,,,,,,,,,,,,,,,,,,,,,,,,,,,,,,,,,,,,,,,
,,?,0.000525,0,,,,,,stimuli/images/PICTURE_467.png,POLICY,5edc02ccd85edd0fce814dfd,05/28/1955,2020-09-03_14h51.41.100,proactive2,2020.1.2,MacIntel,60,5f5126bb654d4b30ee6923d8,5f513b0c8bb796345dec0ab7,1,,,,,,peg,,,,,,,,,,,6,1,0,57,57,53,1,,,,,,,,,,,,,,,,,,,,,,,,,,,,,,,,,,,,,,,,,,,,,,,,,,,,,,,,,,,,,,,,,,,,,,,,,,,,,,,,,,,,,,,,,,,,,,
,,?,0.000525,0,,,,,,stimuli/images/PICTURE_564.png,BATH,5edc02ccd85edd0fce814dfd,05/28/1955,2020-09-03_14h51.41.100,proactive2,2020.1.2,MacIntel,60,5f5126bb654d4b30ee6923d8,5f513b0c8bb796345dec0ab7,1,,,,,,spoon,,,,,,,,,,,3,1,0,58,58,26,1,,,,,,,,,,,,,,,,,,,,,,,,,,,,,,,,,,,,,,,,,,,,,,,,,,,,,,,,,,,,,,,,,,,,,,,,,,,,,,,,,,,,,,,,,,,,,,
,,AUTHORITY,14.95353,0,,,,,,stimuli/images/PICTURE_85.png,NATION,5edc02ccd85edd0fce814dfd,05/28/1955,2020-09-03_14h51.41.100,proactive2,2020.1.2,MacIntel,60,5f5126bb654d4b30ee6923d8,5f513b0c8bb796345dec0ab7,1,,,,,,diamond,,,,,,,,,,,1,1,0,59,59,5,1,,,,,,,,,,,,,,,,,,,,,,,,,,,,,,,,,,,,,,,,,,,,,,,,,,,,,,,,,,,,,,,,,,,,,,,,,,,,,,,,,,,,,,,,,,,,,,
,,,,,,,,,,,,5edc02ccd85edd0fce814dfd,05/28/1955,2020-09-03_14h51.41.100,proactive2,2020.1.2,MacIntel,60,5f5126bb654d4b30ee6923d8,5f513b0c8bb796345dec0ab7,1,,,,,,,,,,,,,,,,,,,,,,,,0,0,0,1,1,stimuli/learn-block2.csv,,,,,,,,,,,,,,,,,,,,,,,,,,,,,,,,,,,,,,,,,,,,,,,,,,,,,,,,,,,,,,,,,,,,,,,,,,,,,,,,,,,,,,,,
,,,,,,,,,,stimuli/images/PICTURE_509.png,BATH,5edc02ccd85edd0fce814dfd,05/28/1955,2020-09-03_14h51.41.100,proactive2,2020.1.2,MacIntel,60,5f5126bb654d4b30ee6923d8,5f513b0c8bb796345dec0ab7,1,,,,,,telephone,,,,,,0,0,0,15,1,2,2,,,,,,,,,,,,,,,,,,,,,,,,,,,,,,,,,,,,,,,,,,,,,,,,,,,,,,,,,,,,,,,,,,,,,,,,,,,,,,,,,,,,,,,,,,,,,,,,,,,
,,,,,,,,,,stimuli/images/PICTURE_688.png,CLOCK,5edc02ccd85edd0fce814dfd,05/28/1955,2020-09-03_14h51.41.100,proactive2,2020.1.2,MacIntel,60,5f5126bb654d4b30ee6923d8,5f513b0c8bb796345dec0ab7,1,,,,,,runner,,,,,,0,1,1,42,1,5,2,,,,,,,,,,,,,,,,,,,,,,,,,,,,,,,,,,,,,,,,,,,,,,,,,,,,,,,,,,,,,,,,,,,,,,,,,,,,,,,,,,,,,,,,,,,,,,,,,,,
,,,,,,,,,,stimuli/images/PICTURE_470.png,BEAUTY,5edc02ccd85edd0fce814dfd,05/28/1955,2020-09-03_14h51.41.100,proactive2,2020.1.2,MacIntel,60,5f5126bb654d4b30ee6923d8,5f513b0c8bb796345dec0ab7,1,,,,,,motorbike,,,,,,0,2,2,26,1,3,2,,,,,,,,,,,,,,,,,,,,,,,,,,,,,,,,,,,,,,,,,,,,,,,,,,,,,,,,,,,,,,,,,,,,,,,,,,,,,,,,,,,,,,,,,,,,,,,,,,,
,,,,,,,,,,stimuli/images/PICTURE_255.png,PENNY,5edc02ccd85edd0fce814dfd,05/28/1955,2020-09-03_14h51.41.100,proactive2,2020.1.2,MacIntel,60,5f5126bb654d4b30ee6923d8,5f513b0c8bb796345dec0ab7,1,,,,,,shovel,,,,,,0,3,3,19,1,2,2,,,,,,,,,,,,,,,,,,,,,,,,,,,,,,,,,,,,,,,,,,,,,,,,,,,,,,,,,,,,,,,,,,,,,,,,,,,,,,,,,,,,,,,,,,,,,,,,,,,
,,,,,,,,,,stimuli/images/PICTURE_348.png,TOILET,5edc02ccd85edd0fce814dfd,05/28/1955,2020-09-03_14h51.41.100,proactive2,2020.1.2,MacIntel,60,5f5126bb654d4b30ee6923d8,5f513b0c8bb796345dec0ab7,1,,,,,,pepper,,,,,,0,4,4,4,1,1,2,,,,,,,,,,,,,,,,,,,,,,,,,,,,,,,,,,,,,,,,,,,,,,,,,,,,,,,,,,,,,,,,,,,,,,,,,,,,,,,,,,,,,,,,,,,,,,,,,,,
,,,,,,,,,,stimuli/images/PICTURE_509.png,SHOTS,5edc02ccd85edd0fce814dfd,05/28/1955,2020-09-03_14h51.41.100,proactive2,2020.1.2,MacIntel,60,5f5126bb654d4b30ee6923d8,5f513b0c8bb796345dec0ab7,1,,,,,,telephone,,,,,,0,5,5,7,1,1,2,,,,,,,,,,,,,,,,,,,,,,,,,,,,,,,,,,,,,,,,,,,,,,,,,,,,,,,,,,,,,,,,,,,,,,,,,,,,,,,,,,,,,,,,,,,,,,,,,,,
,,,,,,,,,,stimuli/images/PICTURE_2.png,YARD,5edc02ccd85edd0fce814dfd,05/28/1955,2020-09-03_14h51.41.100,proactive2,2020.1.2,MacIntel,60,5f5126bb654d4b30ee6923d8,5f513b0c8bb796345dec0ab7,1,,,,,,tyre,,,,,,0,6,6,55,1,6,2,,,,,,,,,,,,,,,,,,,,,,,,,,,,,,,,,,,,,,,,,,,,,,,,,,,,,,,,,,,,,,,,,,,,,,,,,,,,,,,,,,,,,,,,,,,,,,,,,,,
,,,,,,,,,,stimuli/images/PICTURE_33.png,COPS,5edc02ccd85edd0fce814dfd,05/28/1955,2020-09-03_14h51.41.100,proactive2,2020.1.2,MacIntel,60,5f5126bb654d4b30ee6923d8,5f513b0c8bb796345dec0ab7,1,,,,,,frame,,,,,,0,7,7,29,1,3,2,,,,,,,,,,,,,,,,,,,,,,,,,,,,,,,,,,,,,,,,,,,,,,,,,,,,,,,,,,,,,,,,,,,,,,,,,,,,,,,,,,,,,,,,,,,,,,,,,,,
,,,,,,,,,,stimuli/images/PICTURE_215.png,LEADER,5edc02ccd85edd0fce814dfd,05/28/1955,2020-09-03_14h51.41.100,proactive2,2020.1.2,MacIntel,60,5f5126bb654d4b30ee6923d8,5f513b0c8bb796345dec0ab7,1,,,,,,boot,,,,,,0,8,8,43,1,5,2,,,,,,,,,,,,,,,,,,,,,,,,,,,,,,,,,,,,,,,,,,,,,,,,,,,,,,,,,,,,,,,,,,,,,,,,,,,,,,,,,,,,,,,,,,,,,,,,,,,
,,,,,,,,,,stimuli/images/PICTURE_2.png,AREA,5edc02ccd85edd0fce814dfd,05/28/1955,2020-09-03_14h51.41.100,proactive2,2020.1.2,MacIntel,60,5f5126bb654d4b30ee6923d8,5f513b0c8bb796345dec0ab7,1,,,,,,tyre,,,,,,0,9,9,32,1,4,2,,,,,,,,,,,,,,,,,,,,,,,,,,,,,,,,,,,,,,,,,,,,,,,,,,,,,,,,,,,,,,,,,,,,,,,,,,,,,,,,,,,,,,,,,,,,,,,,,,,
,,,,,,,,,,stimuli/images/PICTURE_297.png,BODY,5edc02ccd85edd0fce814dfd,05/28/1955,2020-09-03_14h51.41.100,proactive2,2020.1.2,MacIntel,60,5f5126bb654d4b30ee6923d8,5f513b0c8bb796345dec0ab7,1,,,,,,aeroplane,,,,,,0,10,10,51,1,6,2,,,,,,,,,,,,,,,,,,,,,,,,,,,,,,,,,,,,,,,,,,,,,,,,,,,,,,,,,,,,,,,,,,,,,,,,,,,,,,,,,,,,,,,,,,,,,,,,,,,
,,,,,,,,,,stimuli/images/PICTURE_177.png,HOUSE,5edc02ccd85edd0fce814dfd,05/28/1955,2020-09-03_14h51.41.100,proactive2,2020.1.2,MacIntel,60,5f5126bb654d4b30ee6923d8,5f513b0c8bb796345dec0ab7,1,,,,,,mushroom,,,,,,0,11,11,25,1,3,2,,,,,,,,,,,,,,,,,,,,,,,,,,,,,,,,,,,,,,,,,,,,,,,,,,,,,,,,,,,,,,,,,,,,,,,,,,,,,,,,,,,,,,,,,,,,,,,,,,,
,,,,,,,,,,stimuli/images/PICTURE_692.png,DUDE,5edc02ccd85edd0fce814dfd,05/28/1955,2020-09-03_14h51.41.100,proactive2,2020.1.2,MacIntel,60,5f5126bb654d4b30ee6923d8,5f513b0c8bb796345dec0ab7,1,,,,,,cherry,,,,,,0,12,12,47,1,5,2,,,,,,,,,,,,,,,,,,,,,,,,,,,,,,,,,,,,,,,,,,,,,,,,,,,,,,,,,,,,,,,,,,,,,,,,,,,,,,,,,,,,,,,,,,,,,,,,,,,
,,,,,,,,,,stimuli/images/PICTURE_2.png,JUNGLE,5edc02ccd85edd0fce814dfd,05/28/1955,2020-09-03_14h51.41.100,proactive2,2020.1.2,MacIntel,60,5f5126bb654d4b30ee6923d8,5f513b0c8bb796345dec0ab7,1,,,,,,tyre,,,,,,0,13,13,1,1,1,2,,,,,,,,,,,,,,,,,,,,,,,,,,,,,,,,,,,,,,,,,,,,,,,,,,,,,,,,,,,,,,,,,,,,,,,,,,,,,,,,,,,,,,,,,,,,,,,,,,,
,,,,,,,,,,stimuli/images/PICTURE_667.png,GLASS,5edc02ccd85edd0fce814dfd,05/28/1955,2020-09-03_14h51.41.100,proactive2,2020.1.2,MacIntel,60,5f5126bb654d4b30ee6923d8,5f513b0c8bb796345dec0ab7,1,,,,,,daisy,,,,,,0,14,14,27,1,3,2,,,,,,,,,,,,,,,,,,,,,,,,,,,,,,,,,,,,,,,,,,,,,,,,,,,,,,,,,,,,,,,,,,,,,,,,,,,,,,,,,,,,,,,,,,,,,,,,,,,
,,,,,,,,,,stimuli/images/PICTURE_487.png,POLICY,5edc02ccd85edd0fce814dfd,05/28/1955,2020-09-03_14h51.41.100,proactive2,2020.1.2,MacIntel,60,5f5126bb654d4b30ee6923d8,5f513b0c8bb796345dec0ab7,1,,,,,,basket,,,,,,0,15,15,34,1,4,2,,,,,,,,,,,,,,,,,,,,,,,,,,,,,,,,,,,,,,,,,,,,,,,,,,,,,,,,,,,,,,,,,,,,,,,,,,,,,,,,,,,,,,,,,,,,,,,,,,,
,,,,,,,,,,stimuli/images/PICTURE_311.png,TOILET,5edc02ccd85edd0fce814dfd,05/28/1955,2020-09-03_14h51.41.100,proactive2,2020.1.2,MacIntel,60,5f5126bb654d4b30ee6923d8,5f513b0c8bb796345dec0ab7,1,,,,,,razor,,,,,,0,16,16,54,1,6,2,,,,,,,,,,,,,,,,,,,,,,,,,,,,,,,,,,,,,,,,,,,,,,,,,,,,,,,,,,,,,,,,,,,,,,,,,,,,,,,,,,,,,,,,,,,,,,,,,,,
,,,,,,,,,,stimuli/images/PICTURE_487.png,ROOF,5edc02ccd85edd0fce814dfd,05/28/1955,2020-09-03_14h51.41.100,proactive2,2020.1.2,MacIntel,60,5f5126bb654d4b30ee6923d8,5f513b0c8bb796345dec0ab7,1,,,,,,basket,,,,,,0,17,17,50,1,6,2,,,,,,,,,,,,,,,,,,,,,,,,,,,,,,,,,,,,,,,,,,,,,,,,,,,,,,,,,,,,,,,,,,,,,,,,,,,,,,,,,,,,,,,,,,,,,,,,,,,
,,,,,,,,,,stimuli/images/PICTURE_356.png,CANDY,5edc02ccd85edd0fce814dfd,05/28/1955,2020-09-03_14h51.41.100,proactive2,2020.1.2,MacIntel,60,5f5126bb654d4b30ee6923d8,5f513b0c8bb796345dec0ab7,1,,,,,,pawn,,,,,,0,18,18,46,1,5,2,,,,,,,,,,,,,,,,,,,,,,,,,,,,,,,,,,,,,,,,,,,,,,,,,,,,,,,,,,,,,,,,,,,,,,,,,,,,,,,,,,,,,,,,,,,,,,,,,,,
,,,,,,,,,,stimuli/images/PICTURE_405.png,HOUSE,5edc02ccd85edd0fce814dfd,05/28/1955,2020-09-03_14h51.41.100,proactive2,2020.1.2,MacIntel,60,5f5126bb654d4b30ee6923d8,5f513b0c8bb796345dec0ab7,1,,,,,,anchor,,,,,,0,19,19,2,1,1,2,,,,,,,,,,,,,,,,,,,,,,,,,,,,,,,,,,,,,,,,,,,,,,,,,,,,,,,,,,,,,,,,,,,,,,,,,,,,,,,,,,,,,,,,,,,,,,,,,,,
,,,,,,,,,,stimuli/images/PICTURE_403.png,FAMILY,5edc02ccd85edd0fce814dfd,05/28/1955,2020-09-03_14h51.41.100,proactive2,2020.1.2,MacIntel,60,5f5126bb654d4b30ee6923d8,5f513b0c8bb796345dec0ab7,1,,,,,,cathedral,,,,,,0,20,20,9,1,1,2,,,,,,,,,,,,,,,,,,,,,,,,,,,,,,,,,,,,,,,,,,,,,,,,,,,,,,,,,,,,,,,,,,,,,,,,,,,,,,,,,,,,,,,,,,,,,,,,,,,
,,,,,,,,,,stimuli/images/PICTURE_314.png,SPEECH,5edc02ccd85edd0fce814dfd,05/28/1955,2020-09-03_14h51.41.100,proactive2,2020.1.2,MacIntel,60,5f5126bb654d4b30ee6923d8,5f513b0c8bb796345dec0ab7,1,,,,,,perfume,,,,,,0,21,21,35,1,4,2,,,,,,,,,,,,,,,,,,,,,,,,,,,,,,,,,,,,,,,,,,,,,,,,,,,,,,,,,,,,,,,,,,,,,,,,,,,,,,,,,,,,,,,,,,,,,,,,,,,
,,,,,,,,,,stimuli/images/PICTURE_208.png,SPIRIT,5edc02ccd85edd0fce814dfd,05/28/1955,2020-09-03_14h51.41.100,proactive2,2020.1.2,MacIntel,60,5f5126bb654d4b30ee6923d8,5f513b0c8bb796345dec0ab7,1,,,,,,microphone,,,,,,0,22,22,28,1,3,2,,,,,,,,,,,,,,,,,,,,,,,,,,,,,,,,,,,,,,,,,,,,,,,,,,,,,,,,,,,,,,,,,,,,,,,,,,,,,,,,,,,,,,,,,,,,,,,,,,,
,,,,,,,,,,stimuli/images/PICTURE_491.png,SERIES,5edc02ccd85edd0fce814dfd,05/28/1955,2020-09-03_14h51.41.100,proactive2,2020.1.2,MacIntel,60,5f5126bb654d4b30ee6923d8,5f513b0c8bb796345dec0ab7,1,,,,,,rug,,,,,,0,23,23,39,1,4,2,,,,,,,,,,,,,,,,,,,,,,,,,,,,,,,,,,,,,,,,,,,,,,,,,,,,,,,,,,,,,,,,,,,,,,,,,,,,,,,,,,,,,,,,,,,,,,,,,,,
,,,,,,,,,,stimuli/images/PICTURE_348.png,DUDE,5edc02ccd85edd0fce814dfd,05/28/1955,2020-09-03_14h51.41.100,proactive2,2020.1.2,MacIntel,60,5f5126bb654d4b30ee6923d8,5f513b0c8bb796345dec0ab7,1,,,,,,pepper,,,,,,0,24,24,59,1,6,2,,,,,,,,,,,,,,,,,,,,,,,,,,,,,,,,,,,,,,,,,,,,,,,,,,,,,,,,,,,,,,,,,,,,,,,,,,,,,,,,,,,,,,,,,,,,,,,,,,,
,,,,,,,,,,stimuli/images/PICTURE_504.png,HOUSE,5edc02ccd85edd0fce814dfd,05/28/1955,2020-09-03_14h51.41.100,proactive2,2020.1.2,MacIntel,60,5f5126bb654d4b30ee6923d8,5f513b0c8bb796345dec0ab7,1,,,,,,wheel,,,,,,0,25,25,36,1,4,2,,,,,,,,,,,,,,,,,,,,,,,,,,,,,,,,,,,,,,,,,,,,,,,,,,,,,,,,,,,,,,,,,,,,,,,,,,,,,,,,,,,,,,,,,,,,,,,,,,,
,,,,,,,,,,stimuli/images/PICTURE_296.png,CLOCK,5edc02ccd85edd0fce814dfd,05/28/1955,2020-09-03_14h51.41.100,proactive2,2020.1.2,MacIntel,60,5f5126bb654d4b30ee6923d8,5f513b0c8bb796345dec0ab7,1,,,,,,bolt,,,,,,0,26,26,18,1,2,2,,,,,,,,,,,,,,,,,,,,,,,,,,,,,,,,,,,,,,,,,,,,,,,,,,,,,,,,,,,,,,,,,,,,,,,,,,,,,,,,,,,,,,,,,,,,,,,,,,,
,,,,,,,,,,stimuli/images/PICTURE_285.png,PRINCE,5edc02ccd85edd0fce814dfd,05/28/1955,2020-09-03_14h51.41.100,proactive2,2020.1.2,MacIntel,60,5f5126bb654d4b30ee6923d8,5f513b0c8bb796345dec0ab7,1,,,,,,carrot,,,,,,0,27,27,20,1,3,2,,,,,,,,,,,,,,,,,,,,,,,,,,,,,,,,,,,,,,,,,,,,,,,,,,,,,,,,,,,,,,,,,,,,,,,,,,,,,,,,,,,,,,,,,,,,,,,,,,,
,,,,,,,,,,stimuli/images/PICTURE_141.png,CLIENT,5edc02ccd85edd0fce814dfd,05/28/1955,2020-09-03_14h51.41.100,proactive2,2020.1.2,MacIntel,60,5f5126bb654d4b30ee6923d8,5f513b0c8bb796345dec0ab7,1,,,,,,sunflower,,,,,,0,28,28,30,1,4,2,,,,,,,,,,,,,,,,,,,,,,,,,,,,,,,,,,,,,,,,,,,,,,,,,,,,,,,,,,,,,,,,,,,,,,,,,,,,,,,,,,,,,,,,,,,,,,,,,,,
,,,,,,,,,,stimuli/images/PICTURE_655.png,SALE,5edc02ccd85edd0fce814dfd,05/28/1955,2020-09-03_14h51.41.100,proactive2,2020.1.2,MacIntel,60,5f5126bb654d4b30ee6923d8,5f513b0c8bb796345dec0ab7,1,,,,,,megaphone,,,,,,0,29,29,57,1,6,2,,,,,,,,,,,,,,,,,,,,,,,,,,,,,,,,,,,,,,,,,,,,,,,,,,,,,,,,,,,,,,,,,,,,,,,,,,,,,,,,,,,,,,,,,,,,,,,,,,,
,,,,,,,,,,stimuli/images/PICTURE_509.png,MILLER,5edc02ccd85edd0fce814dfd,05/28/1955,2020-09-03_14h51.41.100,proactive2,2020.1.2,MacIntel,60,5f5126bb654d4b30ee6923d8,5f513b0c8bb796345dec0ab7,1,,,,,,telephone,,,,,,0,30,30,49,1,5,2,,,,,,,,,,,,,,,,,,,,,,,,,,,,,,,,,,,,,,,,,,,,,,,,,,,,,,,,,,,,,,,,,,,,,,,,,,,,,,,,,,,,,,,,,,,,,,,,,,,
,,,,,,,,,,stimuli/images/PICTURE_285.png,WRITER,5edc02ccd85edd0fce814dfd,05/28/1955,2020-09-03_14h51.41.100,proactive2,2020.1.2,MacIntel,60,5f5126bb654d4b30ee6923d8,5f513b0c8bb796345dec0ab7,1,,,,,,carrot,,,,,,0,31,31,6,1,1,2,,,,,,,,,,,,,,,,,,,,,,,,,,,,,,,,,,,,,,,,,,,,,,,,,,,,,,,,,,,,,,,,,,,,,,,,,,,,,,,,,,,,,,,,,,,,,,,,,,,
,,,,,,,,,,stimuli/images/PICTURE_452.png,COPS,5edc02ccd85edd0fce814dfd,05/28/1955,2020-09-03_14h51.41.100,proactive2,2020.1.2,MacIntel,60,5f5126bb654d4b30ee6923d8,5f513b0c8bb796345dec0ab7,1,,,,,,watch,,,,,,0,32,32,0,1,1,2,,,,,,,,,,,,,,,,,,,,,,,,,,,,,,,,,,,,,,,,,,,,,,,,,,,,,,,,,,,,,,,,,,,,,,,,,,,,,,,,,,,,,,,,,,,,,,,,,,,
,,,,,,,,,,stimuli/images/PICTURE_509.png,APPLE,5edc02ccd85edd0fce814dfd,05/28/1955,2020-09-03_14h51.41.100,proactive2,2020.1.2,MacIntel,60,5f5126bb654d4b30ee6923d8,5f513b0c8bb796345dec0ab7,1,,,,,,telephone,,,,,,0,33,33,38,1,4,2,,,,,,,,,,,,,,,,,,,,,,,,,,,,,,,,,,,,,,,,,,,,,,,,,,,,,,,,,,,,,,,,,,,,,,,,,,,,,,,,,,,,,,,,,,,,,,,,,,,
,,,,,,,,,,stimuli/images/PICTURE_654.png,COPS,5edc02ccd85edd0fce814dfd,05/28/1955,2020-09-03_14h51.41.100,proactive2,2020.1.2,MacIntel,60,5f5126bb654d4b30ee6923d8,5f513b0c8bb796345dec0ab7,1,,,,,,pencil,,,,,,0,34,34,10,1,2,2,,,,,,,,,,,,,,,,,,,,,,,,,,,,,,,,,,,,,,,,,,,,,,,,,,,,,,,,,,,,,,,,,,,,,,,,,,,,,,,,,,,,,,,,,,,,,,,,,,,
,,,,,,,,,,stimuli/images/PICTURE_708.png,VALLEY,5edc02ccd85edd0fce814dfd,05/28/1955,2020-09-03_14h51.41.100,proactive2,2020.1.2,MacIntel,60,5f5126bb654d4b30ee6923d8,5f513b0c8bb796345dec0ab7,1,,,,,,monkey,,,,,,0,35,35,45,1,5,2,,,,,,,,,,,,,,,,,,,,,,,,,,,,,,,,,,,,,,,,,,,,,,,,,,,,,,,,,,,,,,,,,,,,,,,,,,,,,,,,,,,,,,,,,,,,,,,,,,,
,,,,,,,,,,stimuli/images/PICTURE_453.png,FAMILY,5edc02ccd85edd0fce814dfd,05/28/1955,2020-09-03_14h51.41.100,proactive2,2020.1.2,MacIntel,60,5f5126bb654d4b30ee6923d8,5f513b0c8bb796345dec0ab7,1,,,,,,scissors,,,,,,0,36,36,48,1,5,2,,,,,,,,,,,,,,,,,,,,,,,,,,,,,,,,,,,,,,,,,,,,,,,,,,,,,,,,,,,,,,,,,,,,,,,,,,,,,,,,,,,,,,,,,,,,,,,,,,,
,,,,,,,,,,stimuli/images/PICTURE_57.png,NATION,5edc02ccd85edd0fce814dfd,05/28/1955,2020-09-03_14h51.41.100,proactive2,2020.1.2,MacIntel,60,5f5126bb654d4b30ee6923d8,5f513b0c8bb796345dec0ab7,1,,,,,,stamp,,,,,,0,37,37,21,1,3,2,,,,,,,,,,,,,,,,,,,,,,,,,,,,,,,,,,,,,,,,,,,,,,,,,,,,,,,,,,,,,,,,,,,,,,,,,,,,,,,,,,,,,,,,,,,,,,,,,,,
,,,,,,,,,,stimuli/images/PICTURE_215.png,BOYS,5edc02ccd85edd0fce814dfd,05/28/1955,2020-09-03_14h51.41.100,proactive2,2020.1.2,MacIntel,60,5f5126bb654d4b30ee6923d8,5f513b0c8bb796345dec0ab7,1,,,,,,boot,,,,,,0,38,38,24,1,3,2,,,,,,,,,,,,,,,,,,,,,,,,,,,,,,,,,,,,,,,,,,,,,,,,,,,,,,,,,,,,,,,,,,,,,,,,,,,,,,,,,,,,,,,,,,,,,,,,,,,
,,,,,,,,,,stimuli/images/PICTURE_95.png,NIGHT,5edc02ccd85edd0fce814dfd,05/28/1955,2020-09-03_14h51.41.100,proactive2,2020.1.2,MacIntel,60,5f5126bb654d4b30ee6923d8,5f513b0c8bb796345dec0ab7,1,,,,,,suitcase,,,,,,0,39,39,37,1,4,2,,,,,,,,,,,,,,,,,,,,,,,,,,,,,,,,,,,,,,,,,,,,,,,,,,,,,,,,,,,,,,,,,,,,,,,,,,,,,,,,,,,,,,,,,,,,,,,,,,,
,,,,,,,,,,stimuli/images/PICTURE_677.png,PHOTO,5edc02ccd85edd0fce814dfd,05/28/1955,2020-09-03_14h51.41.100,proactive2,2020.1.2,MacIntel,60,5f5126bb654d4b30ee6923d8,5f513b0c8bb796345dec0ab7,1,,,,,,map,,,,,,0,40,40,14,1,2,2,,,,,,,,,,,,,,,,,,,,,,,,,,,,,,,,,,,,,,,,,,,,,,,,,,,,,,,,,,,,,,,,,,,,,,,,,,,,,,,,,,,,,,,,,,,,,,,,,,,
,,,,,,,,,,stimuli/images/PICTURE_93.png,GIRL,5edc02ccd85edd0fce814dfd,05/28/1955,2020-09-03_14h51.41.100,proactive2,2020.1.2,MacIntel,60,5f5126bb654d4b30ee6923d8,5f513b0c8bb796345dec0ab7,1,,,,,,skateboard,,,,,,0,41,41,31,1,4,2,,,,,,,,,,,,,,,,,,,,,,,,,,,,,,,,,,,,,,,,,,,,,,,,,,,,,,,,,,,,,,,,,,,,,,,,,,,,,,,,,,,,,,,,,,,,,,,,,,,
,,,,,,,,,,stimuli/images/PICTURE_750.png,POLICY,5edc02ccd85edd0fce814dfd,05/28/1955,2020-09-03_14h51.41.100,proactive2,2020.1.2,MacIntel,60,5f5126bb654d4b30ee6923d8,5f513b0c8bb796345dec0ab7,1,,,,,,kettle,,,,,,0,42,42,44,1,5,2,,,,,,,,,,,,,,,,,,,,,,,,,,,,,,,,,,,,,,,,,,,,,,,,,,,,,,,,,,,,,,,,,,,,,,,,,,,,,,,,,,,,,,,,,,,,,,,,,,,
,,,,,,,,,,stimuli/images/PICTURE_147.png,LEADER,5edc02ccd85edd0fce814dfd,05/28/1955,2020-09-03_14h51.41.100,proactive2,2020.1.2,MacIntel,60,5f5126bb654d4b30ee6923d8,5f513b0c8bb796345dec0ab7,1,,,,,,hanger,,,,,,0,43,43,33,1,4,2,,,,,,,,,,,,,,,,,,,,,,,,,,,,,,,,,,,,,,,,,,,,,,,,,,,,,,,,,,,,,,,,,,,,,,,,,,,,,,,,,,,,,,,,,,,,,,,,,,,
,,,,,,,,,,stimuli/images/PICTURE_654.png,YEAR,5edc02ccd85edd0fce814dfd,05/28/1955,2020-09-03_14h51.41.100,proactive2,2020.1.2,MacIntel,60,5f5126bb654d4b30ee6923d8,5f513b0c8bb796345dec0ab7,1,,,,,,pencil,,,,,,0,44,44,41,1,5,2,,,,,,,,,,,,,,,,,,,,,,,,,,,,,,,,,,,,,,,,,,,,,,,,,,,,,,,,,,,,,,,,,,,,,,,,,,,,,,,,,,,,,,,,,,,,,,,,,,,
,,,,,,,,,,stimuli/images/PICTURE_32.png,LETTER,5edc02ccd85edd0fce814dfd,05/28/1955,2020-09-03_14h51.41.100,proactive2,2020.1.2,MacIntel,60,5f5126bb654d4b30ee6923d8,5f513b0c8bb796345dec0ab7,1,,,,,,crown,,,,,,0,45,45,56,1,6,2,,,,,,,,,,,,,,,,,,,,,,,,,,,,,,,,,,,,,,,,,,,,,,,,,,,,,,,,,,,,,,,,,,,,,,,,,,,,,,,,,,,,,,,,,,,,,,,,,,,
,,,,,,,,,,stimuli/images/PICTURE_160.png,HOTEL,5edc02ccd85edd0fce814dfd,05/28/1955,2020-09-03_14h51.41.100,proactive2,2020.1.2,MacIntel,60,5f5126bb654d4b30ee6923d8,5f513b0c8bb796345dec0ab7,1,,,,,,wheelbarrow,,,,,,0,46,46,16,1,2,2,,,,,,,,,,,,,,,,,,,,,,,,,,,,,,,,,,,,,,,,,,,,,,,,,,,,,,,,,,,,,,,,,,,,,,,,,,,,,,,,,,,,,,,,,,,,,,,,,,,
,,,,,,,,,,stimuli/images/PICTURE_327.png,LEADER,5edc02ccd85edd0fce814dfd,05/28/1955,2020-09-03_14h51.41.100,proactive2,2020.1.2,MacIntel,60,5f5126bb654d4b30ee6923d8,5f513b0c8bb796345dec0ab7,1,,,,,,helmet,,,,,,0,47,47,17,1,2,2,,,,,,,,,,,,,,,,,,,,,,,,,,,,,,,,,,,,,,,,,,,,,,,,,,,,,,,,,,,,,,,,,,,,,,,,,,,,,,,,,,,,,,,,,,,,,,,,,,,
,,,,,,,,,,stimuli/images/PICTURE_57.png,CANDY,5edc02ccd85edd0fce814dfd,05/28/1955,2020-09-03_14h51.41.100,proactive2,2020.1.2,MacIntel,60,5f5126bb654d4b30ee6923d8,5f513b0c8bb796345dec0ab7,1,,,,,,stamp,,,,,,0,48,48,52,1,6,2,,,,,,,,,,,,,,,,,,,,,,,,,,,,,,,,,,,,,,,,,,,,,,,,,,,,,,,,,,,,,,,,,,,,,,,,,,,,,,,,,,,,,,,,,,,,,,,,,,,
,,,,,,,,,,stimuli/images/PICTURE_68.png,KIND,5edc02ccd85edd0fce814dfd,05/28/1955,2020-09-03_14h51.41.100,proactive2,2020.1.2,MacIntel,60,5f5126bb654d4b30ee6923d8,5f513b0c8bb796345dec0ab7,1,,,,,,candle,,,,,,0,49,49,23,1,3,2,,,,,,,,,,,,,,,,,,,,,,,,,,,,,,,,,,,,,,,,,,,,,,,,,,,,,,,,,,,,,,,,,,,,,,,,,,,,,,,,,,,,,,,,,,,,,,,,,,,
,,,,,,,,,,stimuli/images/PICTURE_215.png,FOOD,5edc02ccd85edd0fce814dfd,05/28/1955,2020-09-03_14h51.41.100,proactive2,2020.1.2,MacIntel,60,5f5126bb654d4b30ee6923d8,5f513b0c8bb796345dec0ab7,1,,,,,,boot,,,,,,0,50,50,5,1,1,2,,,,,,,,,,,,,,,,,,,,,,,,,,,,,,,,,,,,,,,,,,,,,,,,,,,,,,,,,,,,,,,,,,,,,,,,,,,,,,,,,,,,,,,,,,,,,,,,,,,
,,,,,,,,,,stimuli/images/PICTURE_405.png,JUNGLE,5edc02ccd85edd0fce814dfd,05/28/1955,2020-09-03_14h51.41.100,proactive2,2020.1.2,MacIntel,60,5f5126bb654d4b30ee6923d8,5f513b0c8bb796345dec0ab7,1,,,,,,anchor,,,,,,0,51,51,13,1,2,2,,,,,,,,,,,,,,,,,,,,,,,,,,,,,,,,,,,,,,,,,,,,,,,,,,,,,,,,,,,,,,,,,,,,,,,,,,,,,,,,,,,,,,,,,,,,,,,,,,,
,,,,,,,,,,stimuli/images/PICTURE_18.png,RIVER,5edc02ccd85edd0fce814dfd,05/28/1955,2020-09-03_14h51.41.100,proactive2,2020.1.2,MacIntel,60,5f5126bb654d4b30ee6923d8,5f513b0c8bb796345dec0ab7,1,,,,,,planet,,,,,,0,52,52,22,1,3,2,,,,,,,,,,,,,,,,,,,,,,,,,,,,,,,,,,,,,,,,,,,,,,,,,,,,,,,,,,,,,,,,,,,,,,,,,,,,,,,,,,,,,,,,,,,,,,,,,,,
,,,,,,,,,,stimuli/images/PICTURE_405.png,JUNGLE,5edc02ccd85edd0fce814dfd,05/28/1955,2020-09-03_14h51.41.100,proactive2,2020.1.2,MacIntel,60,5f5126bb654d4b30ee6923d8,5f513b0c8bb796345dec0ab7,1,,,,,,anchor,,,,,,0,53,53,58,1,6,2,,,,,,,,,,,,,,,,,,,,,,,,,,,,,,,,,,,,,,,,,,,,,,,,,,,,,,,,,,,,,,,,,,,,,,,,,,,,,,,,,,,,,,,,,,,,,,,,,,,
,,,,,,,,,,stimuli/images/PICTURE_123.png,SALE,5edc02ccd85edd0fce814dfd,05/28/1955,2020-09-03_14h51.41.100,proactive2,2020.1.2,MacIntel,60,5f5126bb654d4b30ee6923d8,5f513b0c8bb796345dec0ab7,1,,,,,,dart,,,,,,0,54,54,8,1,1,2,,,,,,,,,,,,,,,,,,,,,,,,,,,,,,,,,,,,,,,,,,,,,,,,,,,,,,,,,,,,,,,,,,,,,,,,,,,,,,,,,,,,,,,,,,,,,,,,,,,
,,,,,,,,,,stimuli/images/PICTURE_57.png,CASINO,5edc02ccd85edd0fce814dfd,05/28/1955,2020-09-03_14h51.41.100,proactive2,2020.1.2,MacIntel,60,5f5126bb654d4b30ee6923d8,5f513b0c8bb796345dec0ab7,1,,,,,,stamp,,,,,,0,55,55,12,1,2,2,,,,,,,,,,,,,,,,,,,,,,,,,,,,,,,,,,,,,,,,,,,,,,,,,,,,,,,,,,,,,,,,,,,,,,,,,,,,,,,,,,,,,,,,,,,,,,,,,,,
,,,,,,,,,,stimuli/images/PICTURE_677.png,FAMILY,5edc02ccd85edd0fce814dfd,05/28/1955,2020-09-03_14h51.41.100,proactive2,2020.1.2,MacIntel,60,5f5126bb654d4b30ee6923d8,5f513b0c8bb796345dec0ab7,1,,,,,,map,,,,,,0,56,56,53,1,6,2,,,,,,,,,,,,,,,,,,,,,,,,,,,,,,,,,,,,,,,,,,,,,,,,,,,,,,,,,,,,,,,,,,,,,,,,,,,,,,,,,,,,,,,,,,,,,,,,,,,
,,,,,,,,,,stimuli/images/PICTURE_311.png,FLESH,5edc02ccd85edd0fce814dfd,05/28/1955,2020-09-03_14h51.41.100,proactive2,2020.1.2,MacIntel,60,5f5126bb654d4b30ee6923d8,5f513b0c8bb796345dec0ab7,1,,,,,,razor,,,,,,0,57,57,3,1,1,2,,,,,,,,,,,,,,,,,,,,,,,,,,,,,,,,,,,,,,,,,,,,,,,,,,,,,,,,,,,,,,,,,,,,,,,,,,,,,,,,,,,,,,,,,,,,,,,,,,,
,,,,,,,,,,stimuli/images/PICTURE_470.png,MOMENT,5edc02ccd85edd0fce814dfd,05/28/1955,2020-09-03_14h51.41.100,proactive2,2020.1.2,MacIntel,60,5f5126bb654d4b30ee6923d8,5f513b0c8bb796345dec0ab7,1,,,,,,motorbike,,,,,,0,58,58,40,1,5,2,,,,,,,,,,,,,,,,,,,,,,,,,,,,,,,,,,,,,,,,,,,,,,,,,,,,,,,,,,,,,,,,,,,,,,,,,,,,,,,,,,,,,,,,,,,,,,,,,,,
,,?,0.001085,0,,,,,,stimuli/images/PICTURE_491.png,SERIES,5edc02ccd85edd0fce814dfd,05/28/1955,2020-09-03_14h51.41.100,proactive2,2020.1.2,MacIntel,60,5f5126bb654d4b30ee6923d8,5f513b0c8bb796345dec0ab7,1,,,,,,rug,,,,,,,,,,,4,2,0,0,0,39,1,,,,,,,,,,,,,,,,,,,,,,,,,,,,,,,,,,,,,,,,,,,,,,,,,,,,,,,,,,,,,,,,,,,,,,,,,,,,,,,,,,,,,,,,,,,,,,
,,?,0.001245,0,,,,,,stimuli/images/PICTURE_327.png,LEADER,5edc02ccd85edd0fce814dfd,05/28/1955,2020-09-03_14h51.41.100,proactive2,2020.1.2,MacIntel,60,5f5126bb654d4b30ee6923d8,5f513b0c8bb796345dec0ab7,1,,,,,,helmet,,,,,,,,,,,2,2,0,1,1,17,1,,,,,,,,,,,,,,,,,,,,,,,,,,,,,,,,,,,,,,,,,,,,,,,,,,,,,,,,,,,,,,,,,,,,,,,,,,,,,,,,,,,,,,,,,,,,,,
,,?,0.00085,0,,,,,,stimuli/images/PICTURE_296.png,CLOCK,5edc02ccd85edd0fce814dfd,05/28/1955,2020-09-03_14h51.41.100,proactive2,2020.1.2,MacIntel,60,5f5126bb654d4b30ee6923d8,5f513b0c8bb796345dec0ab7,1,,,,,,bolt,,,,,,,,,,,2,2,0,2,2,18,1,,,,,,,,,,,,,,,,,,,,,,,,,,,,,,,,,,,,,,,,,,,,,,,,,,,,,,,,,,,,,,,,,,,,,,,,,,,,,,,,,,,,,,,,,,,,,,
,,?,0.0008,0,,,,,,stimuli/images/PICTURE_708.png,VALLEY,5edc02ccd85edd0fce814dfd,05/28/1955,2020-09-03_14h51.41.100,proactive2,2020.1.2,MacIntel,60,5f5126bb654d4b30ee6923d8,5f513b0c8bb796345dec0ab7,1,,,,,,monkey,,,,,,,,,,,5,2,0,3,3,45,1,,,,,,,,,,,,,,,,,,,,,,,,,,,,,,,,,,,,,,,,,,,,,,,,,,,,,,,,,,,,,,,,,,,,,,,,,,,,,,,,,,,,,,,,,,,,,,
,,?,0.000725,0,,,,,,stimuli/images/PICTURE_177.png,HOUSE,5edc02ccd85edd0fce814dfd,05/28/1955,2020-09-03_14h51.41.100,proactive2,2020.1.2,MacIntel,60,5f5126bb654d4b30ee6923d8,5f513b0c8bb796345dec0ab7,1,,,,,,mushroom,,,,,,,,,,,3,2,0,4,4,25,1,,,,,,,,,,,,,,,,,,,,,,,,,,,,,,,,,,,,,,,,,,,,,,,,,,,,,,,,,,,,,,,,,,,,,,,,,,,,,,,,,,,,,,,,,,,,,,
,,?,0.0008,0,,,,,,stimuli/images/PICTURE_2.png,AREA,5edc02ccd85edd0fce814dfd,05/28/1955,2020-09-03_14h51.41.100,proactive2,2020.1.2,MacIntel,60,5f5126bb654d4b30ee6923d8,5f513b0c8bb796345dec0ab7,1,,,,,,tyre,,,,,,,,,,,4,2,0,5,5,32,1,,,,,,,,,,,,,,,,,,,,,,,,,,,,,,,,,,,,,,,,,,,,,,,,,,,,,,,,,,,,,,,,,,,,,,,,,,,,,,,,,,,,,,,,,,,,,,
,,?,0.000685,0,,,,,,stimuli/images/PICTURE_208.png,SPIRIT,5edc02ccd85edd0fce814dfd,05/28/1955,2020-09-03_14h51.41.100,proactive2,2020.1.2,MacIntel,60,5f5126bb654d4b30ee6923d8,5f513b0c8bb796345dec0ab7,1,,,,,,microphone,,,,,,,,,,,3,2,0,6,6,28,1,,,,,,,,,,,,,,,,,,,,,,,,,,,,,,,,,,,,,,,,,,,,,,,,,,,,,,,,,,,,,,,,,,,,,,,,,,,,,,,,,,,,,,,,,,,,,,
,,?,0.00057,0,,,,,,stimuli/images/PICTURE_93.png,GIRL,5edc02ccd85edd0fce814dfd,05/28/1955,2020-09-03_14h51.41.100,proactive2,2020.1.2,MacIntel,60,5f5126bb654d4b30ee6923d8,5f513b0c8bb796345dec0ab7,1,,,,,,skateboard,,,,,,,,,,,4,2,0,7,7,31,1,,,,,,,,,,,,,,,,,,,,,,,,,,,,,,,,,,,,,,,,,,,,,,,,,,,,,,,,,,,,,,,,,,,,,,,,,,,,,,,,,,,,,,,,,,,,,,
,,?,0.00056,0,,,,,,stimuli/images/PICTURE_147.png,LEADER,5edc02ccd85edd0fce814dfd,05/28/1955,2020-09-03_14h51.41.100,proactive2,2020.1.2,MacIntel,60,5f5126bb654d4b30ee6923d8,5f513b0c8bb796345dec0ab7,1,,,,,,hanger,,,,,,,,,,,4,2,0,8,8,33,1,,,,,,,,,,,,,,,,,,,,,,,,,,,,,,,,,,,,,,,,,,,,,,,,,,,,,,,,,,,,,,,,,,,,,,,,,,,,,,,,,,,,,,,,,,,,,,
,,?,0.000575,0,,,,,,stimuli/images/PICTURE_32.png,LETTER,5edc02ccd85edd0fce814dfd,05/28/1955,2020-09-03_14h51.41.100,proactive2,2020.1.2,MacIntel,60,5f5126bb654d4b30ee6923d8,5f513b0c8bb796345dec0ab7,1,,,,,,crown,,,,,,,,,,,6,2,0,9,9,56,1,,,,,,,,,,,,,,,,,,,,,,,,,,,,,,,,,,,,,,,,,,,,,,,,,,,,,,,,,,,,,,,,,,,,,,,,,,,,,,,,,,,,,,,,,,,,,,
,,?,0.00065,0,,,,,,stimuli/images/PICTURE_18.png,RIVER,5edc02ccd85edd0fce814dfd,05/28/1955,2020-09-03_14h51.41.100,proactive2,2020.1.2,MacIntel,60,5f5126bb654d4b30ee6923d8,5f513b0c8bb796345dec0ab7,1,,,,,,planet,,,,,,,,,,,3,2,0,10,10,22,1,,,,,,,,,,,,,,,,,,,,,,,,,,,,,,,,,,,,,,,,,,,,,,,,,,,,,,,,,,,,,,,,,,,,,,,,,,,,,,,,,,,,,,,,,,,,,,
,,?,0.000565,0,,,,,,stimuli/images/PICTURE_348.png,DUDE,5edc02ccd85edd0fce814dfd,05/28/1955,2020-09-03_14h51.41.100,proactive2,2020.1.2,MacIntel,60,5f5126bb654d4b30ee6923d8,5f513b0c8bb796345dec0ab7,1,,,,,,pepper,,,,,,,,,,,6,2,0,11,11,59,1,,,,,,,,,,,,,,,,,,,,,,,,,,,,,,,,,,,,,,,,,,,,,,,,,,,,,,,,,,,,,,,,,,,,,,,,,,,,,,,,,,,,,,,,,,,,,,
,,?,0.00159,0,,,,,,stimuli/images/PICTURE_141.png,CLIENT,5edc02ccd85edd0fce814dfd,05/28/1955,2020-09-03_14h51.41.100,proactive2,2020.1.2,MacIntel,60,5f5126bb654d4b30ee6923d8,5f513b0c8bb796345dec0ab7,1,,,,,,sunflower,,,,,,,,,,,4,2,0,12,12,30,1,,,,,,,,,,,,,,,,,,,,,,,,,,,,,,,,,,,,,,,,,,,,,,,,,,,,,,,,,,,,,,,,,,,,,,,,,,,,,,,,,,,,,,,,,,,,,,
,,?,0.000615,0,,,,,,stimuli/images/PICTURE_215.png,LEADER,5edc02ccd85edd0fce814dfd,05/28/1955,2020-09-03_14h51.41.100,proactive2,2020.1.2,MacIntel,60,5f5126bb654d4b30ee6923d8,5f513b0c8bb796345dec0ab7,1,,,,,,boot,,,,,,,,,,,5,2,0,13,13,43,1,,,,,,,,,,,,,,,,,,,,,,,,,,,,,,,,,,,,,,,,,,,,,,,,,,,,,,,,,,,,,,,,,,,,,,,,,,,,,,,,,,,,,,,,,,,,,,
,,?,0.00057,0,,,,,,stimuli/images/PICTURE_453.png,FAMILY,5edc02ccd85edd0fce814dfd,05/28/1955,2020-09-03_14h51.41.100,proactive2,2020.1.2,MacIntel,60,5f5126bb654d4b30ee6923d8,5f513b0c8bb796345dec0ab7,1,,,,,,scissors,,,,,,,,,,,5,2,0,14,14,48,1,,,,,,,,,,,,,,,,,,,,,,,,,,,,,,,,,,,,,,,,,,,,,,,,,,,,,,,,,,,,,,,,,,,,,,,,,,,,,,,,,,,,,,,,,,,,,,
,,?,0.00057,0,,,,,,stimuli/images/PICTURE_314.png,SPEECH,5edc02ccd85edd0fce814dfd,05/28/1955,2020-09-03_14h51.41.100,proactive2,2020.1.2,MacIntel,60,5f5126bb654d4b30ee6923d8,5f513b0c8bb796345dec0ab7,1,,,,,,perfume,,,,,,,,,,,4,2,0,15,15,35,1,,,,,,,,,,,,,,,,,,,,,,,,,,,,,,,,,,,,,,,,,,,,,,,,,,,,,,,,,,,,,,,,,,,,,,,,,,,,,,,,,,,,,,,,,,,,,,
,,?,0.000555,0,,,,,,stimuli/images/PICTURE_509.png,BATH,5edc02ccd85edd0fce814dfd,05/28/1955,2020-09-03_14h51.41.100,proactive2,2020.1.2,MacIntel,60,5f5126bb654d4b30ee6923d8,5f513b0c8bb796345dec0ab7,1,,,,,,telephone,,,,,,,,,,,2,2,0,16,16,15,1,,,,,,,,,,,,,,,,,,,,,,,,,,,,,,,,,,,,,,,,,,,,,,,,,,,,,,,,,,,,,,,,,,,,,,,,,,,,,,,,,,,,,,,,,,,,,,
,,?,0.00059,0,,,,,,stimuli/images/PICTURE_160.png,HOTEL,5edc02ccd85edd0fce814dfd,05/28/1955,2020-09-03_14h51.41.100,proactive2,2020.1.2,MacIntel,60,5f5126bb654d4b30ee6923d8,5f513b0c8bb796345dec0ab7,1,,,,,,wheelbarrow,,,,,,,,,,,2,2,0,17,17,16,1,,,,,,,,,,,,,,,,,,,,,,,,,,,,,,,,,,,,,,,,,,,,,,,,,,,,,,,,,,,,,,,,,,,,,,,,,,,,,,,,,,,,,,,,,,,,,,
,,TOILET,4.53219,1,,,,,,stimuli/images/PICTURE_348.png,TOILET,5edc02ccd85edd0fce814dfd,05/28/1955,2020-09-03_14h51.41.100,proactive2,2020.1.2,MacIntel,60,5f5126bb654d4b30ee6923d8,5f513b0c8bb796345dec0ab7,1,,,,,,pepper,,,,,,,,,,,1,2,0,18,18,4,1,,,,,,,,,,,,,,,,,,,,,,,,,,,,,,,,,,,,,,,,,,,,,,,,,,,,,,,,,,,,,,,,,,,,,,,,,,,,,,,,,,,,,,,,,,,,,,
,,?,0.00185,0,,,,,,stimuli/images/PICTURE_509.png,APPLE,5edc02ccd85edd0fce814dfd,05/28/1955,2020-09-03_14h51.41.100,proactive2,2020.1.2,MacIntel,60,5f5126bb654d4b30ee6923d8,5f513b0c8bb796345dec0ab7,1,,,,,,telephone,,,,,,,,,,,4,2,0,19,19,38,1,,,,,,,,,,,,,,,,,,,,,,,,,,,,,,,,,,,,,,,,,,,,,,,,,,,,,,,,,,,,,,,,,,,,,,,,,,,,,,,,,,,,,,,,,,,,,,
,,?,0.001385,0,,,,,,stimuli/images/PICTURE_356.png,CANDY,5edc02ccd85edd0fce814dfd,05/28/1955,2020-09-03_14h51.41.100,proactive2,2020.1.2,MacIntel,60,5f5126bb654d4b30ee6923d8,5f513b0c8bb796345dec0ab7,1,,,,,,pawn,,,,,,,,,,,5,2,0,20,20,46,1,,,,,,,,,,,,,,,,,,,,,,,,,,,,,,,,,,,,,,,,,,,,,,,,,,,,,,,,,,,,,,,,,,,,,,,,,,,,,,,,,,,,,,,,,,,,,,
,,?,5.80413,0,,,,,,stimuli/images/PICTURE_452.png,COPS,5edc02ccd85edd0fce814dfd,05/28/1955,2020-09-03_14h51.41.100,proactive2,2020.1.2,MacIntel,60,5f5126bb654d4b30ee6923d8,5f513b0c8bb796345dec0ab7,1,,,,,,watch,,,,,,,,,,,1,2,0,21,21,0,1,,,,,,,,,,,,,,,,,,,,,,,,,,,,,,,,,,,,,,,,,,,,,,,,,,,,,,,,,,,,,,,,,,,,,,,,,,,,,,,,,,,,,,,,,,,,,,
,,?,0.00215,0,,,,,,stimuli/images/PICTURE_470.png,BEAUTY,5edc02ccd85edd0fce814dfd,05/28/1955,2020-09-03_14h51.41.100,proactive2,2020.1.2,MacIntel,60,5f5126bb654d4b30ee6923d8,5f513b0c8bb796345dec0ab7,1,,,,,,motorbike,,,,,,,,,,,3,2,0,22,22,26,1,,,,,,,,,,,,,,,,,,,,,,,,,,,,,,,,,,,,,,,,,,,,,,,,,,,,,,,,,,,,,,,,,,,,,,,,,,,,,,,,,,,,,,,,,,,,,,
,,?,0.001125,0,,,,,,stimuli/images/PICTURE_677.png,PHOTO,5edc02ccd85edd0fce814dfd,05/28/1955,2020-09-03_14h51.41.100,proactive2,2020.1.2,MacIntel,60,5f5126bb654d4b30ee6923d8,5f513b0c8bb796345dec0ab7,1,,,,,,map,,,,,,,,,,,2,2,0,23,23,14,1,,,,,,,,,,,,,,,,,,,,,,,,,,,,,,,,,,,,,,,,,,,,,,,,,,,,,,,,,,,,,,,,,,,,,,,,,,,,,,,,,,,,,,,,,,,,,,
,,?,0.000865,0,,,,,,stimuli/images/PICTURE_654.png,YEAR,5edc02ccd85edd0fce814dfd,05/28/1955,2020-09-03_14h51.41.100,proactive2,2020.1.2,MacIntel,60,5f5126bb654d4b30ee6923d8,5f513b0c8bb796345dec0ab7,1,,,,,,pencil,,,,,,,,,,,5,2,0,24,24,41,1,,,,,,,,,,,,,,,,,,,,,,,,,,,,,,,,,,,,,,,,,,,,,,,,,,,,,,,,,,,,,,,,,,,,,,,,,,,,,,,,,,,,,,,,,,,,,,
,,?,0.000715,0,,,,,,stimuli/images/PICTURE_57.png,CASINO,5edc02ccd85edd0fce814dfd,05/28/1955,2020-09-03_14h51.41.100,proactive2,2020.1.2,MacIntel,60,5f5126bb654d4b30ee6923d8,5f513b0c8bb796345dec0ab7,1,,,,,,stamp,,,,,,,,,,,2,2,0,25,25,12,1,,,,,,,,,,,,,,,,,,,,,,,,,,,,,,,,,,,,,,,,,,,,,,,,,,,,,,,,,,,,,,,,,,,,,,,,,,,,,,,,,,,,,,,,,,,,,,
,,?,0.000645,0,,,,,,stimuli/images/PICTURE_33.png,COPS,5edc02ccd85edd0fce814dfd,05/28/1955,2020-09-03_14h51.41.100,proactive2,2020.1.2,MacIntel,60,5f5126bb654d4b30ee6923d8,5f513b0c8bb796345dec0ab7,1,,,,,,frame,,,,,,,,,,,3,2,0,26,26,29,1,,,,,,,,,,,,,,,,,,,,,,,,,,,,,,,,,,,,,,,,,,,,,,,,,,,,,,,,,,,,,,,,,,,,,,,,,,,,,,,,,,,,,,,,,,,,,,
,,?,0.000635,0,,,,,,stimuli/images/PICTURE_504.png,HOUSE,5edc02ccd85edd0fce814dfd,05/28/1955,2020-09-03_14h51.41.100,proactive2,2020.1.2,MacIntel,60,5f5126bb654d4b30ee6923d8,5f513b0c8bb796345dec0ab7,1,,,,,,wheel,,,,,,,,,,,4,2,0,27,27,36,1,,,,,,,,,,,,,,,,,,,,,,,,,,,,,,,,,,,,,,,,,,,,,,,,,,,,,,,,,,,,,,,,,,,,,,,,,,,,,,,,,,,,,,,,,,,,,,
,,?,0.00078,0,,,,,,stimuli/images/PICTURE_667.png,GLASS,5edc02ccd85edd0fce814dfd,05/28/1955,2020-09-03_14h51.41.100,proactive2,2020.1.2,MacIntel,60,5f5126bb654d4b30ee6923d8,5f513b0c8bb796345dec0ab7,1,,,,,,daisy,,,,,,,,,,,3,2,0,28,28,27,1,,,,,,,,,,,,,,,,,,,,,,,,,,,,,,,,,,,,,,,,,,,,,,,,,,,,,,,,,,,,,,,,,,,,,,,,,,,,,,,,,,,,,,,,,,,,,,
,,?,3.33873,0,,,,,,stimuli/images/PICTURE_509.png,SHOTS,5edc02ccd85edd0fce814dfd,05/28/1955,2020-09-03_14h51.41.100,proactive2,2020.1.2,MacIntel,60,5f5126bb654d4b30ee6923d8,5f513b0c8bb796345dec0ab7,1,,,,,,telephone,,,,,,,,,,,1,2,0,29,29,7,1,,,,,,,,,,,,,,,,,,,,,,,,,,,,,,,,,,,,,,,,,,,,,,,,,,,,,,,,,,,,,,,,,,,,,,,,,,,,,,,,,,,,,,,,,,,,,,
,,?,0.001695,0,,,,,,stimuli/images/PICTURE_564.png,PLENTY,5edc02ccd85edd0fce814dfd,05/28/1955,2020-09-03_14h51.41.100,proactive2,2020.1.2,MacIntel,60,5f5126bb654d4b30ee6923d8,5f513b0c8bb796345dec0ab7,1,,,,,,spoon,,,,,,,,,,,2,2,0,30,30,11,1,,,,,,,,,,,,,,,,,,,,,,,,,,,,,,,,,,,,,,,,,,,,,,,,,,,,,,,,,,,,,,,,,,,,,,,,,,,,,,,,,,,,,,,,,,,,,,
,,?,0.001065,0,,,,,,stimuli/images/PICTURE_95.png,NIGHT,5edc02ccd85edd0fce814dfd,05/28/1955,2020-09-03_14h51.41.100,proactive2,2020.1.2,MacIntel,60,5f5126bb654d4b30ee6923d8,5f513b0c8bb796345dec0ab7,1,,,,,,suitcase,,,,,,,,,,,4,2,0,31,31,37,1,,,,,,,,,,,,,,,,,,,,,,,,,,,,,,,,,,,,,,,,,,,,,,,,,,,,,,,,,,,,,,,,,,,,,,,,,,,,,,,,,,,,,,,,,,,,,,
,,?,0.00073,0,,,,,,stimuli/images/PICTURE_688.png,CLOCK,5edc02ccd85edd0fce814dfd,05/28/1955,2020-09-03_14h51.41.100,proactive2,2020.1.2,MacIntel,60,5f5126bb654d4b30ee6923d8,5f513b0c8bb796345dec0ab7,1,,,,,,runner,,,,,,,,,,,5,2,0,32,32,42,1,,,,,,,,,,,,,,,,,,,,,,,,,,,,,,,,,,,,,,,,,,,,,,,,,,,,,,,,,,,,,,,,,,,,,,,,,,,,,,,,,,,,,,,,,,,,,,
,,?,0.000925,0,,,,,,stimuli/images/PICTURE_2.png,YARD,5edc02ccd85edd0fce814dfd,05/28/1955,2020-09-03_14h51.41.100,proactive2,2020.1.2,MacIntel,60,5f5126bb654d4b30ee6923d8,5f513b0c8bb796345dec0ab7,1,,,,,,tyre,,,,,,,,,,,6,2,0,33,33,55,1,,,,,,,,,,,,,,,,,,,,,,,,,,,,,,,,,,,,,,,,,,,,,,,,,,,,,,,,,,,,,,,,,,,,,,,,,,,,,,,,,,,,,,,,,,,,,,
,,FLESH,3.41176,1,,,,,,stimuli/images/PICTURE_311.png,FLESH,5edc02ccd85edd0fce814dfd,05/28/1955,2020-09-03_14h51.41.100,proactive2,2020.1.2,MacIntel,60,5f5126bb654d4b30ee6923d8,5f513b0c8bb796345dec0ab7,1,,,,,,razor,,,,,,,,,,,1,2,0,34,34,3,1,,,,,,,,,,,,,,,,,,,,,,,,,,,,,,,,,,,,,,,,,,,,,,,,,,,,,,,,,,,,,,,,,,,,,,,,,,,,,,,,,,,,,,,,,,,,,,
,,?,0.00175,0,,,,,,stimuli/images/PICTURE_750.png,POLICY,5edc02ccd85edd0fce814dfd,05/28/1955,2020-09-03_14h51.41.100,proactive2,2020.1.2,MacIntel,60,5f5126bb654d4b30ee6923d8,5f513b0c8bb796345dec0ab7,1,,,,,,kettle,,,,,,,,,,,5,2,0,35,35,44,1,,,,,,,,,,,,,,,,,,,,,,,,,,,,,,,,,,,,,,,,,,,,,,,,,,,,,,,,,,,,,,,,,,,,,,,,,,,,,,,,,,,,,,,,,,,,,,
,,?,0.001515,0,,,,,,stimuli/images/PICTURE_655.png,SALE,5edc02ccd85edd0fce814dfd,05/28/1955,2020-09-03_14h51.41.100,proactive2,2020.1.2,MacIntel,60,5f5126bb654d4b30ee6923d8,5f513b0c8bb796345dec0ab7,1,,,,,,megaphone,,,,,,,,,,,6,2,0,36,36,57,1,,,,,,,,,,,,,,,,,,,,,,,,,,,,,,,,,,,,,,,,,,,,,,,,,,,,,,,,,,,,,,,,,,,,,,,,,,,,,,,,,,,,,,,,,,,,,,
,,?,0.000825,0,,,,,,stimuli/images/PICTURE_297.png,BODY,5edc02ccd85edd0fce814dfd,05/28/1955,2020-09-03_14h51.41.100,proactive2,2020.1.2,MacIntel,60,5f5126bb654d4b30ee6923d8,5f513b0c8bb796345dec0ab7,1,,,,,,aeroplane,,,,,,,,,,,6,2,0,37,37,51,1,,,,,,,,,,,,,,,,,,,,,,,,,,,,,,,,,,,,,,,,,,,,,,,,,,,,,,,,,,,,,,,,,,,,,,,,,,,,,,,,,,,,,,,,,,,,,,
,,?,0.000875,0,,,,,,stimuli/images/PICTURE_470.png,MOMENT,5edc02ccd85edd0fce814dfd,05/28/1955,2020-09-03_14h51.41.100,proactive2,2020.1.2,MacIntel,60,5f5126bb654d4b30ee6923d8,5f513b0c8bb796345dec0ab7,1,,,,,,motorbike,,,,,,,,,,,5,2,0,38,38,40,1,,,,,,,,,,,,,,,,,,,,,,,,,,,,,,,,,,,,,,,,,,,,,,,,,,,,,,,,,,,,,,,,,,,,,,,,,,,,,,,,,,,,,,,,,,,,,,
,,?,0.00087,0,,,,,,stimuli/images/PICTURE_405.png,JUNGLE,5edc02ccd85edd0fce814dfd,05/28/1955,2020-09-03_14h51.41.100,proactive2,2020.1.2,MacIntel,60,5f5126bb654d4b30ee6923d8,5f513b0c8bb796345dec0ab7,1,,,,,,anchor,,,,,,,,,,,6,2,0,39,39,58,1,,,,,,,,,,,,,,,,,,,,,,,,,,,,,,,,,,,,,,,,,,,,,,,,,,,,,,,,,,,,,,,,,,,,,,,,,,,,,,,,,,,,,,,,,,,,,,
,,PEN,2.6423,0,,,,,,stimuli/images/PICTURE_285.png,WRITER,5edc02ccd85edd0fce814dfd,05/28/1955,2020-09-03_14h51.41.100,proactive2,2020.1.2,MacIntel,60,5f5126bb654d4b30ee6923d8,5f513b0c8bb796345dec0ab7,1,,,,,,carrot,,,,,,,,,,,1,2,0,40,40,6,1,,,,,,,,,,,,,,,,,,,,,,,,,,,,,,,,,,,,,,,,,,,,,,,,,,,,,,,,,,,,,,,,,,,,,,,,,,,,,,,,,,,,,,,,,,,,,,
,,?,0.00167,0,,,,,,stimuli/images/PICTURE_487.png,POLICY,5edc02ccd85edd0fce814dfd,05/28/1955,2020-09-03_14h51.41.100,proactive2,2020.1.2,MacIntel,60,5f5126bb654d4b30ee6923d8,5f513b0c8bb796345dec0ab7,1,,,,,,basket,,,,,,,,,,,4,2,0,41,41,34,1,,,,,,,,,,,,,,,,,,,,,,,,,,,,,,,,,,,,,,,,,,,,,,,,,,,,,,,,,,,,,,,,,,,,,,,,,,,,,,,,,,,,,,,,,,,,,,
,,?,0.00126,0,,,,,,stimuli/images/PICTURE_57.png,NATION,5edc02ccd85edd0fce814dfd,05/28/1955,2020-09-03_14h51.41.100,proactive2,2020.1.2,MacIntel,60,5f5126bb654d4b30ee6923d8,5f513b0c8bb796345dec0ab7,1,,,,,,stamp,,,,,,,,,,,3,2,0,42,42,21,1,,,,,,,,,,,,,,,,,,,,,,,,,,,,,,,,,,,,,,,,,,,,,,,,,,,,,,,,,,,,,,,,,,,,,,,,,,,,,,,,,,,,,,,,,,,,,,
,,?,0.0009,0,,,,,,stimuli/images/PICTURE_487.png,ROOF,5edc02ccd85edd0fce814dfd,05/28/1955,2020-09-03_14h51.41.100,proactive2,2020.1.2,MacIntel,60,5f5126bb654d4b30ee6923d8,5f513b0c8bb796345dec0ab7,1,,,,,,basket,,,,,,,,,,,6,2,0,43,43,50,1,,,,,,,,,,,,,,,,,,,,,,,,,,,,,,,,,,,,,,,,,,,,,,,,,,,,,,,,,,,,,,,,,,,,,,,,,,,,,,,,,,,,,,,,,,,,,,
,,?,0.000885,0,,,,,,stimuli/images/PICTURE_57.png,CANDY,5edc02ccd85edd0fce814dfd,05/28/1955,2020-09-03_14h51.41.100,proactive2,2020.1.2,MacIntel,60,5f5126bb654d4b30ee6923d8,5f513b0c8bb796345dec0ab7,1,,,,,,stamp,,,,,,,,,,,6,2,0,44,44,52,1,,,,,,,,,,,,,,,,,,,,,,,,,,,,,,,,,,,,,,,,,,,,,,,,,,,,,,,,,,,,,,,,,,,,,,,,,,,,,,,,,,,,,,,,,,,,,,
,,?,0.00083,0,,,,,,stimuli/images/PICTURE_677.png,FAMILY,5edc02ccd85edd0fce814dfd,05/28/1955,2020-09-03_14h51.41.100,proactive2,2020.1.2,MacIntel,60,5f5126bb654d4b30ee6923d8,5f513b0c8bb796345dec0ab7,1,,,,,,map,,,,,,,,,,,6,2,0,45,45,53,1,,,,,,,,,,,,,,,,,,,,,,,,,,,,,,,,,,,,,,,,,,,,,,,,,,,,,,,,,,,,,,,,,,,,,,,,,,,,,,,,,,,,,,,,,,,,,,
,,?,0.000805,0,,,,,,stimuli/images/PICTURE_311.png,TOILET,5edc02ccd85edd0fce814dfd,05/28/1955,2020-09-03_14h51.41.100,proactive2,2020.1.2,MacIntel,60,5f5126bb654d4b30ee6923d8,5f513b0c8bb796345dec0ab7,1,,,,,,razor,,,,,,,,,,,6,2,0,46,46,54,1,,,,,,,,,,,,,,,,,,,,,,,,,,,,,,,,,,,,,,,,,,,,,,,,,,,,,,,,,,,,,,,,,,,,,,,,,,,,,,,,,,,,,,,,,,,,,,
,,?,0.00102,0,,,,,,stimuli/images/PICTURE_285.png,PRINCE,5edc02ccd85edd0fce814dfd,05/28/1955,2020-09-03_14h51.41.100,proactive2,2020.1.2,MacIntel,60,5f5126bb654d4b30ee6923d8,5f513b0c8bb796345dec0ab7,1,,,,,,carrot,,,,,,,,,,,3,2,0,47,47,20,1,,,,,,,,,,,,,,,,,,,,,,,,,,,,,,,,,,,,,,,,,,,,,,,,,,,,,,,,,,,,,,,,,,,,,,,,,,,,,,,,,,,,,,,,,,,,,,
,,?,0.000725,0,,,,,,stimuli/images/PICTURE_509.png,MILLER,5edc02ccd85edd0fce814dfd,05/28/1955,2020-09-03_14h51.41.100,proactive2,2020.1.2,MacIntel,60,5f5126bb654d4b30ee6923d8,5f513b0c8bb796345dec0ab7,1,,,,,,telephone,,,,,,,,,,,5,2,0,48,48,49,1,,,,,,,,,,,,,,,,,,,,,,,,,,,,,,,,,,,,,,,,,,,,,,,,,,,,,,,,,,,,,,,,,,,,,,,,,,,,,,,,,,,,,,,,,,,,,,
,,?,0.000705,0,,,,,,stimuli/images/PICTURE_215.png,BOYS,5edc02ccd85edd0fce814dfd,05/28/1955,2020-09-03_14h51.41.100,proactive2,2020.1.2,MacIntel,60,5f5126bb654d4b30ee6923d8,5f513b0c8bb796345dec0ab7,1,,,,,,boot,,,,,,,,,,,3,2,0,49,49,24,1,,,,,,,,,,,,,,,,,,,,,,,,,,,,,,,,,,,,,,,,,,,,,,,,,,,,,,,,,,,,,,,,,,,,,,,,,,,,,,,,,,,,,,,,,,,,,,
,,?,2.817175,0,,,,,,stimuli/images/PICTURE_2.png,JUNGLE,5edc02ccd85edd0fce814dfd,05/28/1955,2020-09-03_14h51.41.100,proactive2,2020.1.2,MacIntel,60,5f5126bb654d4b30ee6923d8,5f513b0c8bb796345dec0ab7,1,,,,,,tyre,,,,,,,,,,,1,2,0,50,50,1,1,,,,,,,,,,,,,,,,,,,,,,,,,,,,,,,,,,,,,,,,,,,,,,,,,,,,,,,,,,,,,,,,,,,,,,,,,,,,,,,,,,,,,,,,,,,,,,
,,POINT,4.824575,0,,,,,,stimuli/images/PICTURE_123.png,SALE,5edc02ccd85edd0fce814dfd,05/28/1955,2020-09-03_14h51.41.100,proactive2,2020.1.2,MacIntel,60,5f5126bb654d4b30ee6923d8,5f513b0c8bb796345dec0ab7,1,,,,,,dart,,,,,,,,,,,1,2,0,51,51,8,1,,,,,,,,,,,,,,,,,,,,,,,,,,,,,,,,,,,,,,,,,,,,,,,,,,,,,,,,,,,,,,,,,,,,,,,,,,,,,,,,,,,,,,,,,,,,,,
,,FAMILY,3.322955,1,,,,,,stimuli/images/PICTURE_403.png,FAMILY,5edc02ccd85edd0fce814dfd,05/28/1955,2020-09-03_14h51.41.100,proactive2,2020.1.2,MacIntel,60,5f5126bb654d4b30ee6923d8,5f513b0c8bb796345dec0ab7,1,,,,,,cathedral,,,,,,,,,,,1,2,0,52,52,9,1,,,,,,,,,,,,,,,,,,,,,,,,,,,,,,,,,,,,,,,,,,,,,,,,,,,,,,,,,,,,,,,,,,,,,,,,,,,,,,,,,,,,,,,,,,,,,,
,,?,0.00165,0,,,,,,stimuli/images/PICTURE_692.png,DUDE,5edc02ccd85edd0fce814dfd,05/28/1955,2020-09-03_14h51.41.100,proactive2,2020.1.2,MacIntel,60,5f5126bb654d4b30ee6923d8,5f513b0c8bb796345dec0ab7,1,,,,,,cherry,,,,,,,,,,,5,2,0,53,53,47,1,,,,,,,,,,,,,,,,,,,,,,,,,,,,,,,,,,,,,,,,,,,,,,,,,,,,,,,,,,,,,,,,,,,,,,,,,,,,,,,,,,,,,,,,,,,,,,
,,FOOD,2.734355,1,,,,,,stimuli/images/PICTURE_215.png,FOOD,5edc02ccd85edd0fce814dfd,05/28/1955,2020-09-03_14h51.41.100,proactive2,2020.1.2,MacIntel,60,5f5126bb654d4b30ee6923d8,5f513b0c8bb796345dec0ab7,1,,,,,,boot,,,,,,,,,,,1,2,0,54,54,5,1,,,,,,,,,,,,,,,,,,,,,,,,,,,,,,,,,,,,,,,,,,,,,,,,,,,,,,,,,,,,,,,,,,,,,,,,,,,,,,,,,,,,,,,,,,,,,,
,,?,0.002345,0,,,,,,stimuli/images/PICTURE_405.png,JUNGLE,5edc02ccd85edd0fce814dfd,05/28/1955,2020-09-03_14h51.41.100,proactive2,2020.1.2,MacIntel,60,5f5126bb654d4b30ee6923d8,5f513b0c8bb796345dec0ab7,1,,,,,,anchor,,,,,,,,,,,2,2,0,55,55,13,1,,,,,,,,,,,,,,,,,,,,,,,,,,,,,,,,,,,,,,,,,,,,,,,,,,,,,,,,,,,,,,,,,,,,,,,,,,,,,,,,,,,,,,,,,,,,,,
,,HOME,2.733425,0,,,,,,stimuli/images/PICTURE_405.png,HOUSE,5edc02ccd85edd0fce814dfd,05/28/1955,2020-09-03_14h51.41.100,proactive2,2020.1.2,MacIntel,60,5f5126bb654d4b30ee6923d8,5f513b0c8bb796345dec0ab7,1,,,,,,anchor,,,,,,,,,,,1,2,0,56,56,2,1,,,,,,,,,,,,,,,,,,,,,,,,,,,,,,,,,,,,,,,,,,,,,,,,,,,,,,,,,,,,,,,,,,,,,,,,,,,,,,,,,,,,,,,,,,,,,,
,,?,0.00157,0,,,,,,stimuli/images/PICTURE_255.png,PENNY,5edc02ccd85edd0fce814dfd,05/28/1955,2020-09-03_14h51.41.100,proactive2,2020.1.2,MacIntel,60,5f5126bb654d4b30ee6923d8,5f513b0c8bb796345dec0ab7,1,,,,,,shovel,,,,,,,,,,,2,2,0,57,57,19,1,,,,,,,,,,,,,,,,,,,,,,,,,,,,,,,,,,,,,,,,,,,,,,,,,,,,,,,,,,,,,,,,,,,,,,,,,,,,,,,,,,,,,,,,,,,,,,
,,?,0.00118,0,,,,,,stimuli/images/PICTURE_68.png,KIND,5edc02ccd85edd0fce814dfd,05/28/1955,2020-09-03_14h51.41.100,proactive2,2020.1.2,MacIntel,60,5f5126bb654d4b30ee6923d8,5f513b0c8bb796345dec0ab7,1,,,,,,candle,,,,,,,,,,,3,2,0,58,58,23,1,,,,,,,,,,,,,,,,,,,,,,,,,,,,,,,,,,,,,,,,,,,,,,,,,,,,,,,,,,,,,,,,,,,,,,,,,,,,,,,,,,,,,,,,,,,,,,
,,?,0.000905,0,,,,,,stimuli/images/PICTURE_654.png,COPS,5edc02ccd85edd0fce814dfd,05/28/1955,2020-09-03_14h51.41.100,proactive2,2020.1.2,MacIntel,60,5f5126bb654d4b30ee6923d8,5f513b0c8bb796345dec0ab7,1,,,,,,pencil,,,,,,,,,,,2,2,0,59,59,10,1,,,,,,,,,,,,,,,,,,,,,,,,,,,,,,,,,,,,,,,,,,,,,,,,,,,,,,,,,,,,,,,,,,,,,,,,,,,,,,,,,,,,,,,,,,,,,,
,,,,,,,,,,,,5edc02ccd85edd0fce814dfd,05/28/1955,2020-09-03_14h51.41.100,proactive2,2020.1.2,MacIntel,60,5f5126bb654d4b30ee6923d8,5f513b0c8bb796345dec0ab7,1,,,,,,,,,,,,,,,,,,,,,,,,0,1,1,2,1,stimuli/learn-block3.csv,,,,,,,,,,,,,,,,,,,,,,,,,,,,,,,,,,,,,,,,,,,,,,,,,,,,,,,,,,,,,,,,,,,,,,,,,,,,,,,,,,,,,,,,
,,,,,,,,,,stimuli/images/PICTURE_160.png,FEET,5edc02ccd85edd0fce814dfd,05/28/1955,2020-09-03_14h51.41.100,proactive2,2020.1.2,MacIntel,60,5f5126bb654d4b30ee6923d8,5f513b0c8bb796345dec0ab7,1,,,,,,wheelbarrow,,,,,,0,0,0,58,1,6,0,,,,,,,,,,,,,,,,,,,,,,,,,,,,,,,,,,,,,,,,,,,,,,,,,,,,,,,,,,,,,,,,,,,,,,,,,,,,,,,,,,,,,,,,,,,,,,,,,,,
,,,,,,,,,,stimuli/images/PICTURE_233.png,WOMEN,5edc02ccd85edd0fce814dfd,05/28/1955,2020-09-03_14h51.41.100,proactive2,2020.1.2,MacIntel,60,5f5126bb654d4b30ee6923d8,5f513b0c8bb796345dec0ab7,1,,,,,,salt,,,,,,0,1,1,38,1,4,0,,,,,,,,,,,,,,,,,,,,,,,,,,,,,,,,,,,,,,,,,,,,,,,,,,,,,,,,,,,,,,,,,,,,,,,,,,,,,,,,,,,,,,,,,,,,,,,,,,,
,,,,,,,,,,stimuli/images/PICTURE_308.png,KIND,5edc02ccd85edd0fce814dfd,05/28/1955,2020-09-03_14h51.41.100,proactive2,2020.1.2,MacIntel,60,5f5126bb654d4b30ee6923d8,5f513b0c8bb796345dec0ab7,1,,,,,,dice,,,,,,0,2,2,54,1,6,0,,,,,,,,,,,,,,,,,,,,,,,,,,,,,,,,,,,,,,,,,,,,,,,,,,,,,,,,,,,,,,,,,,,,,,,,,,,,,,,,,,,,,,,,,,,,,,,,,,,
,,,,,,,,,,stimuli/images/PICTURE_667.png,BATH,5edc02ccd85edd0fce814dfd,05/28/1955,2020-09-03_14h51.41.100,proactive2,2020.1.2,MacIntel,60,5f5126bb654d4b30ee6923d8,5f513b0c8bb796345dec0ab7,1,,,,,,daisy,,,,,,0,3,3,4,1,1,0,,,,,,,,,,,,,,,,,,,,,,,,,,,,,,,,,,,,,,,,,,,,,,,,,,,,,,,,,,,,,,,,,,,,,,,,,,,,,,,,,,,,,,,,,,,,,,,,,,,
,,,,,,,,,,stimuli/images/PICTURE_380.png,DEATH,5edc02ccd85edd0fce814dfd,05/28/1955,2020-09-03_14h51.41.100,proactive2,2020.1.2,MacIntel,60,5f5126bb654d4b30ee6923d8,5f513b0c8bb796345dec0ab7,1,,,,,,gorilla,,,,,,0,4,4,49,1,5,0,,,,,,,,,,,,,,,,,,,,,,,,,,,,,,,,,,,,,,,,,,,,,,,,,,,,,,,,,,,,,,,,,,,,,,,,,,,,,,,,,,,,,,,,,,,,,,,,,,,
,,,,,,,,,,stimuli/images/PICTURE_233.png,IDEAS,5edc02ccd85edd0fce814dfd,05/28/1955,2020-09-03_14h51.41.100,proactive2,2020.1.2,MacIntel,60,5f5126bb654d4b30ee6923d8,5f513b0c8bb796345dec0ab7,1,,,,,,salt,,,,,,0,5,5,28,1,3,0,,,,,,,,,,,,,,,,,,,,,,,,,,,,,,,,,,,,,,,,,,,,,,,,,,,,,,,,,,,,,,,,,,,,,,,,,,,,,,,,,,,,,,,,,,,,,,,,,,,
,,,,,,,,,,stimuli/images/PICTURE_688.png,WOMEN,5edc02ccd85edd0fce814dfd,05/28/1955,2020-09-03_14h51.41.100,proactive2,2020.1.2,MacIntel,60,5f5126bb654d4b30ee6923d8,5f513b0c8bb796345dec0ab7,1,,,,,,runner,,,,,,0,6,6,14,1,2,0,,,,,,,,,,,,,,,,,,,,,,,,,,,,,,,,,,,,,,,,,,,,,,,,,,,,,,,,,,,,,,,,,,,,,,,,,,,,,,,,,,,,,,,,,,,,,,,,,,,
,,,,,,,,,,stimuli/images/PICTURE_327.png,BEAUTY,5edc02ccd85edd0fce814dfd,05/28/1955,2020-09-03_14h51.41.100,proactive2,2020.1.2,MacIntel,60,5f5126bb654d4b30ee6923d8,5f513b0c8bb796345dec0ab7,1,,,,,,helmet,,,,,,0,7,7,48,1,5,0,,,,,,,,,,,,,,,,,,,,,,,,,,,,,,,,,,,,,,,,,,,,,,,,,,,,,,,,,,,,,,,,,,,,,,,,,,,,,,,,,,,,,,,,,,,,,,,,,,,
,,,,,,,,,,stimuli/images/PICTURE_708.png,YARD,5edc02ccd85edd0fce814dfd,05/28/1955,2020-09-03_14h51.41.100,proactive2,2020.1.2,MacIntel,60,5f5126bb654d4b30ee6923d8,5f513b0c8bb796345dec0ab7,1,,,,,,monkey,,,,,,0,8,8,29,1,3,0,,,,,,,,,,,,,,,,,,,,,,,,,,,,,,,,,,,,,,,,,,,,,,,,,,,,,,,,,,,,,,,,,,,,,,,,,,,,,,,,,,,,,,,,,,,,,,,,,,,
,,,,,,,,,,stimuli/images/PICTURE_160.png,LEADER,5edc02ccd85edd0fce814dfd,05/28/1955,2020-09-03_14h51.41.100,proactive2,2020.1.2,MacIntel,60,5f5126bb654d4b30ee6923d8,5f513b0c8bb796345dec0ab7,1,,,,,,wheelbarrow,,,,,,0,9,9,3,1,1,0,,,,,,,,,,,,,,,,,,,,,,,,,,,,,,,,,,,,,,,,,,,,,,,,,,,,,,,,,,,,,,,,,,,,,,,,,,,,,,,,,,,,,,,,,,,,,,,,,,,
,,,,,,,,,,stimuli/images/PICTURE_203.png,ARTIST,5edc02ccd85edd0fce814dfd,05/28/1955,2020-09-03_14h51.41.100,proactive2,2020.1.2,MacIntel,60,5f5126bb654d4b30ee6923d8,5f513b0c8bb796345dec0ab7,1,,,,,,cap,,,,,,0,10,10,26,1,3,0,,,,,,,,,,,,,,,,,,,,,,,,,,,,,,,,,,,,,,,,,,,,,,,,,,,,,,,,,,,,,,,,,,,,,,,,,,,,,,,,,,,,,,,,,,,,,,,,,,,
,,,,,,,,,,stimuli/images/PICTURE_744.png,SYSTEM,5edc02ccd85edd0fce814dfd,05/28/1955,2020-09-03_14h51.41.100,proactive2,2020.1.2,MacIntel,60,5f5126bb654d4b30ee6923d8,5f513b0c8bb796345dec0ab7,1,,,,,,ring,,,,,,0,11,11,43,1,5,0,,,,,,,,,,,,,,,,,,,,,,,,,,,,,,,,,,,,,,,,,,,,,,,,,,,,,,,,,,,,,,,,,,,,,,,,,,,,,,,,,,,,,,,,,,,,,,,,,,,
,,,,,,,,,,stimuli/images/PICTURE_677.png,MILE,5edc02ccd85edd0fce814dfd,05/28/1955,2020-09-03_14h51.41.100,proactive2,2020.1.2,MacIntel,60,5f5126bb654d4b30ee6923d8,5f513b0c8bb796345dec0ab7,1,,,,,,map,,,,,,0,12,12,30,1,4,0,,,,,,,,,,,,,,,,,,,,,,,,,,,,,,,,,,,,,,,,,,,,,,,,,,,,,,,,,,,,,,,,,,,,,,,,,,,,,,,,,,,,,,,,,,,,,,,,,,,
,,,,,,,,,,stimuli/images/PICTURE_744.png,SAKE,5edc02ccd85edd0fce814dfd,05/28/1955,2020-09-03_14h51.41.100,proactive2,2020.1.2,MacIntel,60,5f5126bb654d4b30ee6923d8,5f513b0c8bb796345dec0ab7,1,,,,,,ring,,,,,,0,13,13,17,1,2,0,,,,,,,,,,,,,,,,,,,,,,,,,,,,,,,,,,,,,,,,,,,,,,,,,,,,,,,,,,,,,,,,,,,,,,,,,,,,,,,,,,,,,,,,,,,,,,,,,,,
,,,,,,,,,,stimuli/images/PICTURE_491.png,ROOF,5edc02ccd85edd0fce814dfd,05/28/1955,2020-09-03_14h51.41.100,proactive2,2020.1.2,MacIntel,60,5f5126bb654d4b30ee6923d8,5f513b0c8bb796345dec0ab7,1,,,,,,rug,,,,,,0,14,14,24,1,3,0,,,,,,,,,,,,,,,,,,,,,,,,,,,,,,,,,,,,,,,,,,,,,,,,,,,,,,,,,,,,,,,,,,,,,,,,,,,,,,,,,,,,,,,,,,,,,,,,,,,
,,,,,,,,,,stimuli/images/PICTURE_449.png,THING,5edc02ccd85edd0fce814dfd,05/28/1955,2020-09-03_14h51.41.100,proactive2,2020.1.2,MacIntel,60,5f5126bb654d4b30ee6923d8,5f513b0c8bb796345dec0ab7,1,,,,,,bench,,,,,,0,15,15,59,1,6,0,,,,,,,,,,,,,,,,,,,,,,,,,,,,,,,,,,,,,,,,,,,,,,,,,,,,,,,,,,,,,,,,,,,,,,,,,,,,,,,,,,,,,,,,,,,,,,,,,,,
,,,,,,,,,,stimuli/images/PICTURE_339.png,PLENTY,5edc02ccd85edd0fce814dfd,05/28/1955,2020-09-03_14h51.41.100,proactive2,2020.1.2,MacIntel,60,5f5126bb654d4b30ee6923d8,5f513b0c8bb796345dec0ab7,1,,,,,,backpack,,,,,,0,16,16,0,1,1,0,,,,,,,,,,,,,,,,,,,,,,,,,,,,,,,,,,,,,,,,,,,,,,,,,,,,,,,,,,,,,,,,,,,,,,,,,,,,,,,,,,,,,,,,,,,,,,,,,,,
,,,,,,,,,,stimuli/images/PICTURE_311.png,BEAUTY,5edc02ccd85edd0fce814dfd,05/28/1955,2020-09-03_14h51.41.100,proactive2,2020.1.2,MacIntel,60,5f5126bb654d4b30ee6923d8,5f513b0c8bb796345dec0ab7,1,,,,,,razor,,,,,,0,17,17,13,1,2,0,,,,,,,,,,,,,,,,,,,,,,,,,,,,,,,,,,,,,,,,,,,,,,,,,,,,,,,,,,,,,,,,,,,,,,,,,,,,,,,,,,,,,,,,,,,,,,,,,,,
,,,,,,,,,,stimuli/images/PICTURE_491.png,WRITER,5edc02ccd85edd0fce814dfd,05/28/1955,2020-09-03_14h51.41.100,proactive2,2020.1.2,MacIntel,60,5f5126bb654d4b30ee6923d8,5f513b0c8bb796345dec0ab7,1,,,,,,rug,,,,,,0,18,18,57,1,6,0,,,,,,,,,,,,,,,,,,,,,,,,,,,,,,,,,,,,,,,,,,,,,,,,,,,,,,,,,,,,,,,,,,,,,,,,,,,,,,,,,,,,,,,,,,,,,,,,,,,
,,,,,,,,,,stimuli/images/PICTURE_667.png,PLENTY,5edc02ccd85edd0fce814dfd,05/28/1955,2020-09-03_14h51.41.100,proactive2,2020.1.2,MacIntel,60,5f5126bb654d4b30ee6923d8,5f513b0c8bb796345dec0ab7,1,,,,,,daisy,,,,,,0,19,19,41,1,5,0,,,,,,,,,,,,,,,,,,,,,,,,,,,,,,,,,,,,,,,,,,,,,,,,,,,,,,,,,,,,,,,,,,,,,,,,,,,,,,,,,,,,,,,,,,,,,,,,,,,
,,,,,,,,,,stimuli/images/PICTURE_208.png,LOTS,5edc02ccd85edd0fce814dfd,05/28/1955,2020-09-03_14h51.41.100,proactive2,2020.1.2,MacIntel,60,5f5126bb654d4b30ee6923d8,5f513b0c8bb796345dec0ab7,1,,,,,,microphone,,,,,,0,20,20,10,1,2,0,,,,,,,,,,,,,,,,,,,,,,,,,,,,,,,,,,,,,,,,,,,,,,,,,,,,,,,,,,,,,,,,,,,,,,,,,,,,,,,,,,,,,,,,,,,,,,,,,,,
,,,,,,,,,,stimuli/images/PICTURE_453.png,DUDE,5edc02ccd85edd0fce814dfd,05/28/1955,2020-09-03_14h51.41.100,proactive2,2020.1.2,MacIntel,60,5f5126bb654d4b30ee6923d8,5f513b0c8bb796345dec0ab7,1,,,,,,scissors,,,,,,0,21,21,27,1,3,0,,,,,,,,,,,,,,,,,,,,,,,,,,,,,,,,,,,,,,,,,,,,,,,,,,,,,,,,,,,,,,,,,,,,,,,,,,,,,,,,,,,,,,,,,,,,,,,,,,,
,,,,,,,,,,stimuli/images/PICTURE_255.png,AREA,5edc02ccd85edd0fce814dfd,05/28/1955,2020-09-03_14h51.41.100,proactive2,2020.1.2,MacIntel,60,5f5126bb654d4b30ee6923d8,5f513b0c8bb796345dec0ab7,1,,,,,,shovel,,,,,,0,22,22,22,1,3,0,,,,,,,,,,,,,,,,,,,,,,,,,,,,,,,,,,,,,,,,,,,,,,,,,,,,,,,,,,,,,,,,,,,,,,,,,,,,,,,,,,,,,,,,,,,,,,,,,,,
,,,,,,,,,,stimuli/images/PICTURE_654.png,VALLEY,5edc02ccd85edd0fce814dfd,05/28/1955,2020-09-03_14h51.41.100,proactive2,2020.1.2,MacIntel,60,5f5126bb654d4b30ee6923d8,5f513b0c8bb796345dec0ab7,1,,,,,,pencil,,,,,,0,23,23,1,1,1,0,,,,,,,,,,,,,,,,,,,,,,,,,,,,,,,,,,,,,,,,,,,,,,,,,,,,,,,,,,,,,,,,,,,,,,,,,,,,,,,,,,,,,,,,,,,,,,,,,,,
,,,,,,,,,,stimuli/images/PICTURE_314.png,SAKE,5edc02ccd85edd0fce814dfd,05/28/1955,2020-09-03_14h51.41.100,proactive2,2020.1.2,MacIntel,60,5f5126bb654d4b30ee6923d8,5f513b0c8bb796345dec0ab7,1,,,,,,perfume,,,,,,0,24,24,7,1,1,0,,,,,,,,,,,,,,,,,,,,,,,,,,,,,,,,,,,,,,,,,,,,,,,,,,,,,,,,,,,,,,,,,,,,,,,,,,,,,,,,,,,,,,,,,,,,,,,,,,,
,,,,,,,,,,stimuli/images/PICTURE_95.png,STYLE,5edc02ccd85edd0fce814dfd,05/28/1955,2020-09-03_14h51.41.100,proactive2,2020.1.2,MacIntel,60,5f5126bb654d4b30ee6923d8,5f513b0c8bb796345dec0ab7,1,,,,,,suitcase,,,,,,0,25,25,25,1,3,0,,,,,,,,,,,,,,,,,,,,,,,,,,,,,,,,,,,,,,,,,,,,,,,,,,,,,,,,,,,,,,,,,,,,,,,,,,,,,,,,,,,,,,,,,,,,,,,,,,,
,,,,,,,,,,stimuli/images/PICTURE_692.png,MONTH,5edc02ccd85edd0fce814dfd,05/28/1955,2020-09-03_14h51.41.100,proactive2,2020.1.2,MacIntel,60,5f5126bb654d4b30ee6923d8,5f513b0c8bb796345dec0ab7,1,,,,,,cherry,,,,,,0,26,26,16,1,2,0,,,,,,,,,,,,,,,,,,,,,,,,,,,,,,,,,,,,,,,,,,,,,,,,,,,,,,,,,,,,,,,,,,,,,,,,,,,,,,,,,,,,,,,,,,,,,,,,,,,
,,,,,,,,,,stimuli/images/PICTURE_32.png,JUNGLE,5edc02ccd85edd0fce814dfd,05/28/1955,2020-09-03_14h51.41.100,proactive2,2020.1.2,MacIntel,60,5f5126bb654d4b30ee6923d8,5f513b0c8bb796345dec0ab7,1,,,,,,crown,,,,,,0,27,27,45,1,5,0,,,,,,,,,,,,,,,,,,,,,,,,,,,,,,,,,,,,,,,,,,,,,,,,,,,,,,,,,,,,,,,,,,,,,,,,,,,,,,,,,,,,,,,,,,,,,,,,,,,
,,,,,,,,,,stimuli/images/PICTURE_348.png,SPEECH,5edc02ccd85edd0fce814dfd,05/28/1955,2020-09-03_14h51.41.100,proactive2,2020.1.2,MacIntel,60,5f5126bb654d4b30ee6923d8,5f513b0c8bb796345dec0ab7,1,,,,,,pepper,,,,,,0,28,28,20,1,3,0,,,,,,,,,,,,,,,,,,,,,,,,,,,,,,,,,,,,,,,,,,,,,,,,,,,,,,,,,,,,,,,,,,,,,,,,,,,,,,,,,,,,,,,,,,,,,,,,,,,
,,,,,,,,,,stimuli/images/PICTURE_147.png,MOMENT,5edc02ccd85edd0fce814dfd,05/28/1955,2020-09-03_14h51.41.100,proactive2,2020.1.2,MacIntel,60,5f5126bb654d4b30ee6923d8,5f513b0c8bb796345dec0ab7,1,,,,,,hanger,,,,,,0,29,29,51,1,6,0,,,,,,,,,,,,,,,,,,,,,,,,,,,,,,,,,,,,,,,,,,,,,,,,,,,,,,,,,,,,,,,,,,,,,,,,,,,,,,,,,,,,,,,,,,,,,,,,,,,
,,,,,,,,,,stimuli/images/PICTURE_488.png,STYLE,5edc02ccd85edd0fce814dfd,05/28/1955,2020-09-03_14h51.41.100,proactive2,2020.1.2,MacIntel,60,5f5126bb654d4b30ee6923d8,5f513b0c8bb796345dec0ab7,1,,,,,,sun,,,,,,0,30,30,33,1,4,0,,,,,,,,,,,,,,,,,,,,,,,,,,,,,,,,,,,,,,,,,,,,,,,,,,,,,,,,,,,,,,,,,,,,,,,,,,,,,,,,,,,,,,,,,,,,,,,,,,,
,,,,,,,,,,stimuli/images/PICTURE_708.png,PENNY,5edc02ccd85edd0fce814dfd,05/28/1955,2020-09-03_14h51.41.100,proactive2,2020.1.2,MacIntel,60,5f5126bb654d4b30ee6923d8,5f513b0c8bb796345dec0ab7,1,,,,,,monkey,,,,,,0,31,31,31,1,4,0,,,,,,,,,,,,,,,,,,,,,,,,,,,,,,,,,,,,,,,,,,,,,,,,,,,,,,,,,,,,,,,,,,,,,,,,,,,,,,,,,,,,,,,,,,,,,,,,,,,
,,,,,,,,,,stimuli/images/PICTURE_308.png,ESTATE,5edc02ccd85edd0fce814dfd,05/28/1955,2020-09-03_14h51.41.100,proactive2,2020.1.2,MacIntel,60,5f5126bb654d4b30ee6923d8,5f513b0c8bb796345dec0ab7,1,,,,,,dice,,,,,,0,32,32,46,1,5,0,,,,,,,,,,,,,,,,,,,,,,,,,,,,,,,,,,,,,,,,,,,,,,,,,,,,,,,,,,,,,,,,,,,,,,,,,,,,,,,,,,,,,,,,,,,,,,,,,,,
,,,,,,,,,,stimuli/images/PICTURE_285.png,ADVICE,5edc02ccd85edd0fce814dfd,05/28/1955,2020-09-03_14h51.41.100,proactive2,2020.1.2,MacIntel,60,5f5126bb654d4b30ee6923d8,5f513b0c8bb796345dec0ab7,1,,,,,,carrot,,,,,,0,33,33,12,1,2,0,,,,,,,,,,,,,,,,,,,,,,,,,,,,,,,,,,,,,,,,,,,,,,,,,,,,,,,,,,,,,,,,,,,,,,,,,,,,,,,,,,,,,,,,,,,,,,,,,,,
,,,,,,,,,,stimuli/images/PICTURE_248.png,DOZEN,5edc02ccd85edd0fce814dfd,05/28/1955,2020-09-03_14h51.41.100,proactive2,2020.1.2,MacIntel,60,5f5126bb654d4b30ee6923d8,5f513b0c8bb796345dec0ab7,1,,,,,,cart,,,,,,0,34,34,39,1,4,0,,,,,,,,,,,,,,,,,,,,,,,,,,,,,,,,,,,,,,,,,,,,,,,,,,,,,,,,,,,,,,,,,,,,,,,,,,,,,,,,,,,,,,,,,,,,,,,,,,,
,,,,,,,,,,stimuli/images/PICTURE_487.png,FLIGHT,5edc02ccd85edd0fce814dfd,05/28/1955,2020-09-03_14h51.41.100,proactive2,2020.1.2,MacIntel,60,5f5126bb654d4b30ee6923d8,5f513b0c8bb796345dec0ab7,1,,,,,,basket,,,,,,0,35,35,9,1,1,0,,,,,,,,,,,,,,,,,,,,,,,,,,,,,,,,,,,,,,,,,,,,,,,,,,,,,,,,,,,,,,,,,,,,,,,,,,,,,,,,,,,,,,,,,,,,,,,,,,,
,,,,,,,,,,stimuli/images/PICTURE_208.png,THING,5edc02ccd85edd0fce814dfd,05/28/1955,2020-09-03_14h51.41.100,proactive2,2020.1.2,MacIntel,60,5f5126bb654d4b30ee6923d8,5f513b0c8bb796345dec0ab7,1,,,,,,microphone,,,,,,0,36,36,47,1,5,0,,,,,,,,,,,,,,,,,,,,,,,,,,,,,,,,,,,,,,,,,,,,,,,,,,,,,,,,,,,,,,,,,,,,,,,,,,,,,,,,,,,,,,,,,,,,,,,,,,,
,,,,,,,,,,stimuli/images/PICTURE_311.png,FRIEND,5edc02ccd85edd0fce814dfd,05/28/1955,2020-09-03_14h51.41.100,proactive2,2020.1.2,MacIntel,60,5f5126bb654d4b30ee6923d8,5f513b0c8bb796345dec0ab7,1,,,,,,razor,,,,,,0,37,37,34,1,4,0,,,,,,,,,,,,,,,,,,,,,,,,,,,,,,,,,,,,,,,,,,,,,,,,,,,,,,,,,,,,,,,,,,,,,,,,,,,,,,,,,,,,,,,,,,,,,,,,,,,
,,,,,,,,,,stimuli/images/PICTURE_123.png,ADVICE,5edc02ccd85edd0fce814dfd,05/28/1955,2020-09-03_14h51.41.100,proactive2,2020.1.2,MacIntel,60,5f5126bb654d4b30ee6923d8,5f513b0c8bb796345dec0ab7,1,,,,,,dart,,,,,,0,38,38,50,1,6,0,,,,,,,,,,,,,,,,,,,,,,,,,,,,,,,,,,,,,,,,,,,,,,,,,,,,,,,,,,,,,,,,,,,,,,,,,,,,,,,,,,,,,,,,,,,,,,,,,,,
,,,,,,,,,,stimuli/images/PICTURE_314.png,GODS,5edc02ccd85edd0fce814dfd,05/28/1955,2020-09-03_14h51.41.100,proactive2,2020.1.2,MacIntel,60,5f5126bb654d4b30ee6923d8,5f513b0c8bb796345dec0ab7,1,,,,,,perfume,,,,,,0,39,39,11,1,2,0,,,,,,,,,,,,,,,,,,,,,,,,,,,,,,,,,,,,,,,,,,,,,,,,,,,,,,,,,,,,,,,,,,,,,,,,,,,,,,,,,,,,,,,,,,,,,,,,,,,
,,,,,,,,,,stimuli/images/PICTURE_123.png,ADVICE,5edc02ccd85edd0fce814dfd,05/28/1955,2020-09-03_14h51.41.100,proactive2,2020.1.2,MacIntel,60,5f5126bb654d4b30ee6923d8,5f513b0c8bb796345dec0ab7,1,,,,,,dart,,,,,,0,40,40,40,1,5,0,,,,,,,,,,,,,,,,,,,,,,,,,,,,,,,,,,,,,,,,,,,,,,,,,,,,,,,,,,,,,,,,,,,,,,,,,,,,,,,,,,,,,,,,,,,,,,,,,,,
,,,,,,,,,,stimuli/images/PICTURE_467.png,DEMON,5edc02ccd85edd0fce814dfd,05/28/1955,2020-09-03_14h51.41.100,proactive2,2020.1.2,MacIntel,60,5f5126bb654d4b30ee6923d8,5f513b0c8bb796345dec0ab7,1,,,,,,peg,,,,,,0,41,41,23,1,3,0,,,,,,,,,,,,,,,,,,,,,,,,,,,,,,,,,,,,,,,,,,,,,,,,,,,,,,,,,,,,,,,,,,,,,,,,,,,,,,,,,,,,,,,,,,,,,,,,,,,
,,,,,,,,,,stimuli/images/PICTURE_708.png,CLIENT,5edc02ccd85edd0fce814dfd,05/28/1955,2020-09-03_14h51.41.100,proactive2,2020.1.2,MacIntel,60,5f5126bb654d4b30ee6923d8,5f513b0c8bb796345dec0ab7,1,,,,,,monkey,,,,,,0,42,42,5,1,1,0,,,,,,,,,,,,,,,,,,,,,,,,,,,,,,,,,,,,,,,,,,,,,,,,,,,,,,,,,,,,,,,,,,,,,,,,,,,,,,,,,,,,,,,,,,,,,,,,,,,
,,,,,,,,,,stimuli/images/PICTURE_151.png,GIRL,5edc02ccd85edd0fce814dfd,05/28/1955,2020-09-03_14h51.41.100,proactive2,2020.1.2,MacIntel,60,5f5126bb654d4b30ee6923d8,5f513b0c8bb796345dec0ab7,1,,,,,,tray,,,,,,0,43,43,19,1,2,0,,,,,,,,,,,,,,,,,,,,,,,,,,,,,,,,,,,,,,,,,,,,,,,,,,,,,,,,,,,,,,,,,,,,,,,,,,,,,,,,,,,,,,,,,,,,,,,,,,,
,,,,,,,,,,stimuli/images/PICTURE_504.png,BODY,5edc02ccd85edd0fce814dfd,05/28/1955,2020-09-03_14h51.41.100,proactive2,2020.1.2,MacIntel,60,5f5126bb654d4b30ee6923d8,5f513b0c8bb796345dec0ab7,1,,,,,,wheel,,,,,,0,44,44,8,1,1,0,,,,,,,,,,,,,,,,,,,,,,,,,,,,,,,,,,,,,,,,,,,,,,,,,,,,,,,,,,,,,,,,,,,,,,,,,,,,,,,,,,,,,,,,,,,,,,,,,,,
,,,,,,,,,,stimuli/images/PICTURE_208.png,MONTH,5edc02ccd85edd0fce814dfd,05/28/1955,2020-09-03_14h51.41.100,proactive2,2020.1.2,MacIntel,60,5f5126bb654d4b30ee6923d8,5f513b0c8bb796345dec0ab7,1,,,,,,microphone,,,,,,0,45,45,53,1,6,0,,,,,,,,,,,,,,,,,,,,,,,,,,,,,,,,,,,,,,,,,,,,,,,,,,,,,,,,,,,,,,,,,,,,,,,,,,,,,,,,,,,,,,,,,,,,,,,,,,,
,,,,,,,,,,stimuli/images/PICTURE_470.png,CASINO,5edc02ccd85edd0fce814dfd,05/28/1955,2020-09-03_14h51.41.100,proactive2,2020.1.2,MacIntel,60,5f5126bb654d4b30ee6923d8,5f513b0c8bb796345dec0ab7,1,,,,,,motorbike,,,,,,0,46,46,36,1,4,0,,,,,,,,,,,,,,,,,,,,,,,,,,,,,,,,,,,,,,,,,,,,,,,,,,,,,,,,,,,,,,,,,,,,,,,,,,,,,,,,,,,,,,,,,,,,,,,,,,,
,,,,,,,,,,stimuli/images/PICTURE_469.png,ARTIST,5edc02ccd85edd0fce814dfd,05/28/1955,2020-09-03_14h51.41.100,proactive2,2020.1.2,MacIntel,60,5f5126bb654d4b30ee6923d8,5f513b0c8bb796345dec0ab7,1,,,,,,stool,,,,,,0,47,47,6,1,1,0,,,,,,,,,,,,,,,,,,,,,,,,,,,,,,,,,,,,,,,,,,,,,,,,,,,,,,,,,,,,,,,,,,,,,,,,,,,,,,,,,,,,,,,,,,,,,,,,,,,
