consent_key.keys,consent_key.rt,recalled,recalled_rt,recall_acc,example_recall.thisRepN,example_recall.thisTrialN,example_recall.thisN,example_recall.thisIndex,example_recall.ran,file,word,participant,please enter your date of birth (dd/mm/yyyy),date,expName,psychopyVersion,OS,frameRate,STUDY_ID,SESSION_ID,list,prac_learn_study_loop.thisRepN,prac_learn_study_loop.thisTrialN,prac_learn_study_loop.thisN,prac_learn_study_loop.thisIndex,prac_learn_study_loop.ran,image,prac_learn_test_loop.thisRepN,prac_learn_test_loop.thisTrialN,prac_learn_test_loop.thisN,prac_learn_test_loop.thisIndex,prac_learn_test_loop.ran,learn_study_loop.thisRepN,learn_study_loop.thisTrialN,learn_study_loop.thisN,learn_study_loop.thisIndex,learn_study_loop.ran,list_no,block_no,learn_test_loop.thisRepN,learn_test_loop.thisTrialN,learn_test_loop.thisN,learn_test_loop.thisIndex,learn_test_loop.ran,learn_blocks.thisRepN,learn_blocks.thisTrialN,learn_blocks.thisN,learn_blocks.thisIndex,learn_blocks.ran,block_csv,key_resp_13.keys,key_resp_13.rt,learn_blocks_loop.thisRepN,learn_blocks_loop.thisTrialN,learn_blocks_loop.thisN,learn_blocks_loop.thisIndex,learn_blocks_loop.ran,final_learn_test.thisRepN,final_learn_test.thisTrialN,final_learn_test.thisN,final_learn_test.thisIndex,final_learn_test.ran,s_im1,s_im2,s_im3,s_im4,s_im5,s_im6,s_im7,s_im8,s_im1pos,s_im2pos,s_im3pos,s_im4pos,s_im5pos,s_im6pos,s_im7pos,s_im8pos,s_tarright,search_resp.keys,search_loop.thisRepN,search_loop.thisTrialN,search_loop.thisN,search_loop.thisIndex,search_loop.ran,search_resp.rt,prac_wm_test_loop.thisRepN,prac_wm_test_loop.thisTrialN,prac_wm_test_loop.thisN,prac_wm_test_loop.thisIndex,prac_wm_test_loop.ran,wm_recalled1,wm_recall_rt1,wm_probed1,wm_recall_acc1,wm_recalled2,wm_recall_rt2,wm_probed2,wm_recall_acc2,wm_recalled3,wm_recall_rt3,wm_probed3,wm_recall_acc3,wm_recalled4,wm_recall_rt4,wm_probed4,wm_recall_acc4,prac_wm_trial_loop.thisRepN,prac_wm_trial_loop.thisTrialN,prac_wm_trial_loop.thisN,prac_wm_trial_loop.thisIndex,prac_wm_trial_loop.ran,word1,image1,file1,item_type1,word2,image2,file2,item_type2,word4,image4,file4,item_type4,word3,image3,file3,item_type3,wm_test_loop.thisRepN,wm_test_loop.thisTrialN,wm_test_loop.thisN,wm_test_loop.thisIndex,wm_test_loop.ran,wm_trial_loop.thisRepN,wm_trial_loop.thisTrialN,wm_trial_loop.thisN,wm_trial_loop.thisIndex,wm_trial_loop.ran
y,3.687185,,10.485025,0,0,0,0,0,1,stimuli/images/PICTURE_747.png,TOUGH,5eece05ef05e8b0b4e5a1909,14/05/2000,2020-08-13_13h15.18.454,proactive2,2020.1.2,Win32,60,5f341be081b9052c55068110,5f35296f02886047e2a7c488,4,,,,,,,,,,,,,,,,,,,,,,,,,,,,,,,,,,,,,,,,,,,,,,,,,,,,,,,,,,,,,,,,,,,,,,,,,,,,,,,,,,,,,,,,,,,,,,,,,,,,,,,,,,,,,,,,,,,,,
,,,,,,,,,,stimuli/images/PICTURE_727.png,CELL,5eece05ef05e8b0b4e5a1909,14/05/2000,2020-08-13_13h15.18.454,proactive2,2020.1.2,Win32,60,5f341be081b9052c55068110,5f35296f02886047e2a7c488,4,0,0,0,1,1,hose,,,,,,,,,,,,,,,,,,,,,,,,,,,,,,,,,,,,,,,,,,,,,,,,,,,,,,,,,,,,,,,,,,,,,,,,,,,,,,,,,,,,,,,,,,,,,,,,,,,,,,,,,,,,,,,
,,,,,,,,,,stimuli/images/PICTURE_658.png,DEVIL,5eece05ef05e8b0b4e5a1909,14/05/2000,2020-08-13_13h15.18.454,proactive2,2020.1.2,Win32,60,5f341be081b9052c55068110,5f35296f02886047e2a7c488,4,0,1,1,3,1,crow,,,,,,,,,,,,,,,,,,,,,,,,,,,,,,,,,,,,,,,,,,,,,,,,,,,,,,,,,,,,,,,,,,,,,,,,,,,,,,,,,,,,,,,,,,,,,,,,,,,,,,,,,,,,,,,
,,,,,,,,,,stimuli/images/PICTURE_269.png,GENIUS,5eece05ef05e8b0b4e5a1909,14/05/2000,2020-08-13_13h15.18.454,proactive2,2020.1.2,Win32,60,5f341be081b9052c55068110,5f35296f02886047e2a7c488,4,0,2,2,0,1,chameleon,,,,,,,,,,,,,,,,,,,,,,,,,,,,,,,,,,,,,,,,,,,,,,,,,,,,,,,,,,,,,,,,,,,,,,,,,,,,,,,,,,,,,,,,,,,,,,,,,,,,,,,,,,,,,,,
,,,,,,,,,,stimuli/images/PICTURE_378.png,LOSS,5eece05ef05e8b0b4e5a1909,14/05/2000,2020-08-13_13h15.18.454,proactive2,2020.1.2,Win32,60,5f341be081b9052c55068110,5f35296f02886047e2a7c488,4,0,3,3,2,1,lobster,,,,,,,,,,,,,,,,,,,,,,,,,,,,,,,,,,,,,,,,,,,,,,,,,,,,,,,,,,,,,,,,,,,,,,,,,,,,,,,,,,,,,,,,,,,,,,,,,,,,,,,,,,,,,,,
,,CELL,3.581105,1,,,,,,stimuli/images/PICTURE_727.png,CELL,5eece05ef05e8b0b4e5a1909,14/05/2000,2020-08-13_13h15.18.454,proactive2,2020.1.2,Win32,60,5f341be081b9052c55068110,5f35296f02886047e2a7c488,4,,,,,,hose,0,0,0,1,1,,,,,,,,,,,,,,,,,,,,,,,,,,,,,,,,,,,,,,,,,,,,,,,,,,,,,,,,,,,,,,,,,,,,,,,,,,,,,,,,,,,,,,,,,,,,,,,,,,,,,,,,,,
,,GENIUS,15.016465,1,,,,,,stimuli/images/PICTURE_269.png,GENIUS,5eece05ef05e8b0b4e5a1909,14/05/2000,2020-08-13_13h15.18.454,proactive2,2020.1.2,Win32,60,5f341be081b9052c55068110,5f35296f02886047e2a7c488,4,,,,,,chameleon,0,1,1,0,1,,,,,,,,,,,,,,,,,,,,,,,,,,,,,,,,,,,,,,,,,,,,,,,,,,,,,,,,,,,,,,,,,,,,,,,,,,,,,,,,,,,,,,,,,,,,,,,,,,,,,,,,,,
,,KILLER,4.398115,1,,,,,,stimuli/images/PICTURE_697.png,KILLER,5eece05ef05e8b0b4e5a1909,14/05/2000,2020-08-13_13h15.18.454,proactive2,2020.1.2,Win32,60,5f341be081b9052c55068110,5f35296f02886047e2a7c488,4,,,,,,peach,0,2,2,4,1,,,,,,,,,,,,,,,,,,,,,,,,,,,,,,,,,,,,,,,,,,,,,,,,,,,,,,,,,,,,,,,,,,,,,,,,,,,,,,,,,,,,,,,,,,,,,,,,,,,,,,,,,,
,,DEVIL,3.049155,1,,,,,,stimuli/images/PICTURE_658.png,DEVIL,5eece05ef05e8b0b4e5a1909,14/05/2000,2020-08-13_13h15.18.454,proactive2,2020.1.2,Win32,60,5f341be081b9052c55068110,5f35296f02886047e2a7c488,4,,,,,,crow,0,3,3,3,1,,,,,,,,,,,,,,,,,,,,,,,,,,,,,,,,,,,,,,,,,,,,,,,,,,,,,,,,,,,,,,,,,,,,,,,,,,,,,,,,,,,,,,,,,,,,,,,,,,,,,,,,,,
,,LOSS,2.382935,1,,,,,,stimuli/images/PICTURE_378.png,LOSS,5eece05ef05e8b0b4e5a1909,14/05/2000,2020-08-13_13h15.18.454,proactive2,2020.1.2,Win32,60,5f341be081b9052c55068110,5f35296f02886047e2a7c488,4,,,,,,lobster,0,4,4,2,1,,,,,,,,,,,,,,,,,,,,,,,,,,,,,,,,,,,,,,,,,,,,,,,,,,,,,,,,,,,,,,,,,,,,,,,,,,,,,,,,,,,,,,,,,,,,,,,,,,,,,,,,,,
,,,,,,,,,,stimuli/images/PICTURE_380.png,CANDY,5eece05ef05e8b0b4e5a1909,14/05/2000,2020-08-13_13h15.18.454,proactive2,2020.1.2,Win32,60,5f341be081b9052c55068110,5f35296f02886047e2a7c488,4,,,,,,gorilla,,,,,,0,0,0,0,1,1,1,,,,,,,,,,,,,,,,,,,,,,,,,,,,,,,,,,,,,,,,,,,,,,,,,,,,,,,,,,,,,,,,,,,,,,,,,,,,,,,,,,,,,,,,,,,,,,,,,,,
,,,,,,,,,,stimuli/images/PICTURE_675.png,SALE,5eece05ef05e8b0b4e5a1909,14/05/2000,2020-08-13_13h15.18.454,proactive2,2020.1.2,Win32,60,5f341be081b9052c55068110,5f35296f02886047e2a7c488,4,,,,,,windmill,,,,,,0,1,1,47,1,5,1,,,,,,,,,,,,,,,,,,,,,,,,,,,,,,,,,,,,,,,,,,,,,,,,,,,,,,,,,,,,,,,,,,,,,,,,,,,,,,,,,,,,,,,,,,,,,,,,,,,
,,,,,,,,,,stimuli/images/PICTURE_68.png,MILE,5eece05ef05e8b0b4e5a1909,14/05/2000,2020-08-13_13h15.18.454,proactive2,2020.1.2,Win32,60,5f341be081b9052c55068110,5f35296f02886047e2a7c488,4,,,,,,candle,,,,,,0,2,2,51,1,6,1,,,,,,,,,,,,,,,,,,,,,,,,,,,,,,,,,,,,,,,,,,,,,,,,,,,,,,,,,,,,,,,,,,,,,,,,,,,,,,,,,,,,,,,,,,,,,,,,,,,
,,,,,,,,,,stimuli/images/PICTURE_33.png,FRIEND,5eece05ef05e8b0b4e5a1909,14/05/2000,2020-08-13_13h15.18.454,proactive2,2020.1.2,Win32,60,5f341be081b9052c55068110,5f35296f02886047e2a7c488,4,,,,,,frame,,,,,,0,3,3,8,1,1,1,,,,,,,,,,,,,,,,,,,,,,,,,,,,,,,,,,,,,,,,,,,,,,,,,,,,,,,,,,,,,,,,,,,,,,,,,,,,,,,,,,,,,,,,,,,,,,,,,,,
,,,,,,,,,,stimuli/images/PICTURE_469.png,AGENT,5eece05ef05e8b0b4e5a1909,14/05/2000,2020-08-13_13h15.18.454,proactive2,2020.1.2,Win32,60,5f341be081b9052c55068110,5f35296f02886047e2a7c488,4,,,,,,stool,,,,,,0,4,4,16,1,2,1,,,,,,,,,,,,,,,,,,,,,,,,,,,,,,,,,,,,,,,,,,,,,,,,,,,,,,,,,,,,,,,,,,,,,,,,,,,,,,,,,,,,,,,,,,,,,,,,,,,
,,,,,,,,,,stimuli/images/PICTURE_95.png,MILLER,5eece05ef05e8b0b4e5a1909,14/05/2000,2020-08-13_13h15.18.454,proactive2,2020.1.2,Win32,60,5f341be081b9052c55068110,5f35296f02886047e2a7c488,4,,,,,,suitcase,,,,,,0,5,5,56,1,6,1,,,,,,,,,,,,,,,,,,,,,,,,,,,,,,,,,,,,,,,,,,,,,,,,,,,,,,,,,,,,,,,,,,,,,,,,,,,,,,,,,,,,,,,,,,,,,,,,,,,
,,,,,,,,,,stimuli/images/PICTURE_203.png,NIGHT,5eece05ef05e8b0b4e5a1909,14/05/2000,2020-08-13_13h15.18.454,proactive2,2020.1.2,Win32,60,5f341be081b9052c55068110,5f35296f02886047e2a7c488,4,,,,,,cap,,,,,,0,6,6,2,1,1,1,,,,,,,,,,,,,,,,,,,,,,,,,,,,,,,,,,,,,,,,,,,,,,,,,,,,,,,,,,,,,,,,,,,,,,,,,,,,,,,,,,,,,,,,,,,,,,,,,,,
,,,,,,,,,,stimuli/images/PICTURE_685.png,PENNY,5eece05ef05e8b0b4e5a1909,14/05/2000,2020-08-13_13h15.18.454,proactive2,2020.1.2,Win32,60,5f341be081b9052c55068110,5f35296f02886047e2a7c488,4,,,,,,goose,,,,,,0,7,7,4,1,1,1,,,,,,,,,,,,,,,,,,,,,,,,,,,,,,,,,,,,,,,,,,,,,,,,,,,,,,,,,,,,,,,,,,,,,,,,,,,,,,,,,,,,,,,,,,,,,,,,,,,
,,,,,,,,,,stimuli/images/PICTURE_85.png,NATION,5eece05ef05e8b0b4e5a1909,14/05/2000,2020-08-13_13h15.18.454,proactive2,2020.1.2,Win32,60,5f341be081b9052c55068110,5f35296f02886047e2a7c488,4,,,,,,diamond,,,,,,0,8,8,5,1,1,1,,,,,,,,,,,,,,,,,,,,,,,,,,,,,,,,,,,,,,,,,,,,,,,,,,,,,,,,,,,,,,,,,,,,,,,,,,,,,,,,,,,,,,,,,,,,,,,,,,,
,,,,,,,,,,stimuli/images/PICTURE_405.png,PLENTY,5eece05ef05e8b0b4e5a1909,14/05/2000,2020-08-13_13h15.18.454,proactive2,2020.1.2,Win32,60,5f341be081b9052c55068110,5f35296f02886047e2a7c488,4,,,,,,anchor,,,,,,0,9,9,23,1,3,1,,,,,,,,,,,,,,,,,,,,,,,,,,,,,,,,,,,,,,,,,,,,,,,,,,,,,,,,,,,,,,,,,,,,,,,,,,,,,,,,,,,,,,,,,,,,,,,,,,,
,,,,,,,,,,stimuli/images/PICTURE_667.png,RIVER,5eece05ef05e8b0b4e5a1909,14/05/2000,2020-08-13_13h15.18.454,proactive2,2020.1.2,Win32,60,5f341be081b9052c55068110,5f35296f02886047e2a7c488,4,,,,,,daisy,,,,,,0,10,10,10,1,2,1,,,,,,,,,,,,,,,,,,,,,,,,,,,,,,,,,,,,,,,,,,,,,,,,,,,,,,,,,,,,,,,,,,,,,,,,,,,,,,,,,,,,,,,,,,,,,,,,,,,
,,,,,,,,,,stimuli/images/PICTURE_403.png,TOILET,5eece05ef05e8b0b4e5a1909,14/05/2000,2020-08-13_13h15.18.454,proactive2,2020.1.2,Win32,60,5f341be081b9052c55068110,5f35296f02886047e2a7c488,4,,,,,,cathedral,,,,,,0,11,11,25,1,3,1,,,,,,,,,,,,,,,,,,,,,,,,,,,,,,,,,,,,,,,,,,,,,,,,,,,,,,,,,,,,,,,,,,,,,,,,,,,,,,,,,,,,,,,,,,,,,,,,,,,
,,,,,,,,,,stimuli/images/PICTURE_42.png,BOYS,5eece05ef05e8b0b4e5a1909,14/05/2000,2020-08-13_13h15.18.454,proactive2,2020.1.2,Win32,60,5f341be081b9052c55068110,5f35296f02886047e2a7c488,4,,,,,,pear,,,,,,0,12,12,55,1,6,1,,,,,,,,,,,,,,,,,,,,,,,,,,,,,,,,,,,,,,,,,,,,,,,,,,,,,,,,,,,,,,,,,,,,,,,,,,,,,,,,,,,,,,,,,,,,,,,,,,,
,,,,,,,,,,stimuli/images/PICTURE_655.png,TOILET,5eece05ef05e8b0b4e5a1909,14/05/2000,2020-08-13_13h15.18.454,proactive2,2020.1.2,Win32,60,5f341be081b9052c55068110,5f35296f02886047e2a7c488,4,,,,,,megaphone,,,,,,0,13,13,12,1,2,1,,,,,,,,,,,,,,,,,,,,,,,,,,,,,,,,,,,,,,,,,,,,,,,,,,,,,,,,,,,,,,,,,,,,,,,,,,,,,,,,,,,,,,,,,,,,,,,,,,,
,,,,,,,,,,stimuli/images/PICTURE_2.png,FLIGHT,5eece05ef05e8b0b4e5a1909,14/05/2000,2020-08-13_13h15.18.454,proactive2,2020.1.2,Win32,60,5f341be081b9052c55068110,5f35296f02886047e2a7c488,4,,,,,,tyre,,,,,,0,14,14,15,1,2,1,,,,,,,,,,,,,,,,,,,,,,,,,,,,,,,,,,,,,,,,,,,,,,,,,,,,,,,,,,,,,,,,,,,,,,,,,,,,,,,,,,,,,,,,,,,,,,,,,,,
,,,,,,,,,,stimuli/images/PICTURE_68.png,ROOF,5eece05ef05e8b0b4e5a1909,14/05/2000,2020-08-13_13h15.18.454,proactive2,2020.1.2,Win32,60,5f341be081b9052c55068110,5f35296f02886047e2a7c488,4,,,,,,candle,,,,,,0,15,15,38,1,4,1,,,,,,,,,,,,,,,,,,,,,,,,,,,,,,,,,,,,,,,,,,,,,,,,,,,,,,,,,,,,,,,,,,,,,,,,,,,,,,,,,,,,,,,,,,,,,,,,,,,
,,,,,,,,,,stimuli/images/PICTURE_403.png,RIVER,5eece05ef05e8b0b4e5a1909,14/05/2000,2020-08-13_13h15.18.454,proactive2,2020.1.2,Win32,60,5f341be081b9052c55068110,5f35296f02886047e2a7c488,4,,,,,,cathedral,,,,,,0,16,16,40,1,5,1,,,,,,,,,,,,,,,,,,,,,,,,,,,,,,,,,,,,,,,,,,,,,,,,,,,,,,,,,,,,,,,,,,,,,,,,,,,,,,,,,,,,,,,,,,,,,,,,,,,
,,,,,,,,,,stimuli/images/PICTURE_327.png,CASINO,5eece05ef05e8b0b4e5a1909,14/05/2000,2020-08-13_13h15.18.454,proactive2,2020.1.2,Win32,60,5f341be081b9052c55068110,5f35296f02886047e2a7c488,4,,,,,,helmet,,,,,,0,17,17,20,1,3,1,,,,,,,,,,,,,,,,,,,,,,,,,,,,,,,,,,,,,,,,,,,,,,,,,,,,,,,,,,,,,,,,,,,,,,,,,,,,,,,,,,,,,,,,,,,,,,,,,,,
,,,,,,,,,,stimuli/images/PICTURE_308.png,FAMILY,5eece05ef05e8b0b4e5a1909,14/05/2000,2020-08-13_13h15.18.454,proactive2,2020.1.2,Win32,60,5f341be081b9052c55068110,5f35296f02886047e2a7c488,4,,,,,,dice,,,,,,0,18,18,36,1,4,1,,,,,,,,,,,,,,,,,,,,,,,,,,,,,,,,,,,,,,,,,,,,,,,,,,,,,,,,,,,,,,,,,,,,,,,,,,,,,,,,,,,,,,,,,,,,,,,,,,,
,,,,,,,,,,stimuli/images/PICTURE_487.png,GIRL,5eece05ef05e8b0b4e5a1909,14/05/2000,2020-08-13_13h15.18.454,proactive2,2020.1.2,Win32,60,5f341be081b9052c55068110,5f35296f02886047e2a7c488,4,,,,,,basket,,,,,,0,19,19,45,1,5,1,,,,,,,,,,,,,,,,,,,,,,,,,,,,,,,,,,,,,,,,,,,,,,,,,,,,,,,,,,,,,,,,,,,,,,,,,,,,,,,,,,,,,,,,,,,,,,,,,,,
,,,,,,,,,,stimuli/images/PICTURE_405.png,YEAR,5eece05ef05e8b0b4e5a1909,14/05/2000,2020-08-13_13h15.18.454,proactive2,2020.1.2,Win32,60,5f341be081b9052c55068110,5f35296f02886047e2a7c488,4,,,,,,anchor,,,,,,0,20,20,34,1,4,1,,,,,,,,,,,,,,,,,,,,,,,,,,,,,,,,,,,,,,,,,,,,,,,,,,,,,,,,,,,,,,,,,,,,,,,,,,,,,,,,,,,,,,,,,,,,,,,,,,,
,,,,,,,,,,stimuli/images/PICTURE_744.png,WEAPON,5eece05ef05e8b0b4e5a1909,14/05/2000,2020-08-13_13h15.18.454,proactive2,2020.1.2,Win32,60,5f341be081b9052c55068110,5f35296f02886047e2a7c488,4,,,,,,ring,,,,,,0,21,21,50,1,6,1,,,,,,,,,,,,,,,,,,,,,,,,,,,,,,,,,,,,,,,,,,,,,,,,,,,,,,,,,,,,,,,,,,,,,,,,,,,,,,,,,,,,,,,,,,,,,,,,,,,
,,,,,,,,,,stimuli/images/PICTURE_296.png,LOTS,5eece05ef05e8b0b4e5a1909,14/05/2000,2020-08-13_13h15.18.454,proactive2,2020.1.2,Win32,60,5f341be081b9052c55068110,5f35296f02886047e2a7c488,4,,,,,,bolt,,,,,,0,22,22,9,1,1,1,,,,,,,,,,,,,,,,,,,,,,,,,,,,,,,,,,,,,,,,,,,,,,,,,,,,,,,,,,,,,,,,,,,,,,,,,,,,,,,,,,,,,,,,,,,,,,,,,,,
,,,,,,,,,,stimuli/images/PICTURE_95.png,BOYS,5eece05ef05e8b0b4e5a1909,14/05/2000,2020-08-13_13h15.18.454,proactive2,2020.1.2,Win32,60,5f341be081b9052c55068110,5f35296f02886047e2a7c488,4,,,,,,suitcase,,,,,,0,23,23,1,1,1,1,,,,,,,,,,,,,,,,,,,,,,,,,,,,,,,,,,,,,,,,,,,,,,,,,,,,,,,,,,,,,,,,,,,,,,,,,,,,,,,,,,,,,,,,,,,,,,,,,,,
,,,,,,,,,,stimuli/images/PICTURE_108.png,FLIGHT,5eece05ef05e8b0b4e5a1909,14/05/2000,2020-08-13_13h15.18.454,proactive2,2020.1.2,Win32,60,5f341be081b9052c55068110,5f35296f02886047e2a7c488,4,,,,,,calendar,,,,,,0,24,24,59,1,6,1,,,,,,,,,,,,,,,,,,,,,,,,,,,,,,,,,,,,,,,,,,,,,,,,,,,,,,,,,,,,,,,,,,,,,,,,,,,,,,,,,,,,,,,,,,,,,,,,,,,
,,,,,,,,,,stimuli/images/PICTURE_504.png,YEAR,5eece05ef05e8b0b4e5a1909,14/05/2000,2020-08-13_13h15.18.454,proactive2,2020.1.2,Win32,60,5f341be081b9052c55068110,5f35296f02886047e2a7c488,4,,,,,,wheel,,,,,,0,25,25,13,1,2,1,,,,,,,,,,,,,,,,,,,,,,,,,,,,,,,,,,,,,,,,,,,,,,,,,,,,,,,,,,,,,,,,,,,,,,,,,,,,,,,,,,,,,,,,,,,,,,,,,,,
,,,,,,,,,,stimuli/images/PICTURE_32.png,PILLS,5eece05ef05e8b0b4e5a1909,14/05/2000,2020-08-13_13h15.18.454,proactive2,2020.1.2,Win32,60,5f341be081b9052c55068110,5f35296f02886047e2a7c488,4,,,,,,crown,,,,,,0,26,26,18,1,2,1,,,,,,,,,,,,,,,,,,,,,,,,,,,,,,,,,,,,,,,,,,,,,,,,,,,,,,,,,,,,,,,,,,,,,,,,,,,,,,,,,,,,,,,,,,,,,,,,,,,
,,,,,,,,,,stimuli/images/PICTURE_380.png,HONEY,5eece05ef05e8b0b4e5a1909,14/05/2000,2020-08-13_13h15.18.454,proactive2,2020.1.2,Win32,60,5f341be081b9052c55068110,5f35296f02886047e2a7c488,4,,,,,,gorilla,,,,,,0,27,27,19,1,2,1,,,,,,,,,,,,,,,,,,,,,,,,,,,,,,,,,,,,,,,,,,,,,,,,,,,,,,,,,,,,,,,,,,,,,,,,,,,,,,,,,,,,,,,,,,,,,,,,,,,
,,,,,,,,,,stimuli/images/PICTURE_383.png,SERIES,5eece05ef05e8b0b4e5a1909,14/05/2000,2020-08-13_13h15.18.454,proactive2,2020.1.2,Win32,60,5f341be081b9052c55068110,5f35296f02886047e2a7c488,4,,,,,,coin,,,,,,0,28,28,46,1,5,1,,,,,,,,,,,,,,,,,,,,,,,,,,,,,,,,,,,,,,,,,,,,,,,,,,,,,,,,,,,,,,,,,,,,,,,,,,,,,,,,,,,,,,,,,,,,,,,,,,,
,,,,,,,,,,stimuli/images/PICTURE_467.png,POLICY,5eece05ef05e8b0b4e5a1909,14/05/2000,2020-08-13_13h15.18.454,proactive2,2020.1.2,Win32,60,5f341be081b9052c55068110,5f35296f02886047e2a7c488,4,,,,,,peg,,,,,,0,29,29,53,1,6,1,,,,,,,,,,,,,,,,,,,,,,,,,,,,,,,,,,,,,,,,,,,,,,,,,,,,,,,,,,,,,,,,,,,,,,,,,,,,,,,,,,,,,,,,,,,,,,,,,,,
,,,,,,,,,,stimuli/images/PICTURE_449.png,DUDE,5eece05ef05e8b0b4e5a1909,14/05/2000,2020-08-13_13h15.18.454,proactive2,2020.1.2,Win32,60,5f341be081b9052c55068110,5f35296f02886047e2a7c488,4,,,,,,bench,,,,,,0,30,30,17,1,2,1,,,,,,,,,,,,,,,,,,,,,,,,,,,,,,,,,,,,,,,,,,,,,,,,,,,,,,,,,,,,,,,,,,,,,,,,,,,,,,,,,,,,,,,,,,,,,,,,,,,
,,,,,,,,,,stimuli/images/PICTURE_340.png,VALLEY,5eece05ef05e8b0b4e5a1909,14/05/2000,2020-08-13_13h15.18.454,proactive2,2020.1.2,Win32,60,5f341be081b9052c55068110,5f35296f02886047e2a7c488,4,,,,,,mirror,,,,,,0,31,31,54,1,6,1,,,,,,,,,,,,,,,,,,,,,,,,,,,,,,,,,,,,,,,,,,,,,,,,,,,,,,,,,,,,,,,,,,,,,,,,,,,,,,,,,,,,,,,,,,,,,,,,,,,
,,,,,,,,,,stimuli/images/PICTURE_504.png,COPS,5eece05ef05e8b0b4e5a1909,14/05/2000,2020-08-13_13h15.18.454,proactive2,2020.1.2,Win32,60,5f341be081b9052c55068110,5f35296f02886047e2a7c488,4,,,,,,wheel,,,,,,0,32,32,52,1,6,1,,,,,,,,,,,,,,,,,,,,,,,,,,,,,,,,,,,,,,,,,,,,,,,,,,,,,,,,,,,,,,,,,,,,,,,,,,,,,,,,,,,,,,,,,,,,,,,,,,,
,,,,,,,,,,stimuli/images/PICTURE_403.png,WRITER,5eece05ef05e8b0b4e5a1909,14/05/2000,2020-08-13_13h15.18.454,proactive2,2020.1.2,Win32,60,5f341be081b9052c55068110,5f35296f02886047e2a7c488,4,,,,,,cathedral,,,,,,0,33,33,31,1,4,1,,,,,,,,,,,,,,,,,,,,,,,,,,,,,,,,,,,,,,,,,,,,,,,,,,,,,,,,,,,,,,,,,,,,,,,,,,,,,,,,,,,,,,,,,,,,,,,,,,,
,,,,,,,,,,stimuli/images/PICTURE_564.png,BATH,5eece05ef05e8b0b4e5a1909,14/05/2000,2020-08-13_13h15.18.454,proactive2,2020.1.2,Win32,60,5f341be081b9052c55068110,5f35296f02886047e2a7c488,4,,,,,,spoon,,,,,,0,34,34,26,1,3,1,,,,,,,,,,,,,,,,,,,,,,,,,,,,,,,,,,,,,,,,,,,,,,,,,,,,,,,,,,,,,,,,,,,,,,,,,,,,,,,,,,,,,,,,,,,,,,,,,,,
,,,,,,,,,,stimuli/images/PICTURE_297.png,RIVER,5eece05ef05e8b0b4e5a1909,14/05/2000,2020-08-13_13h15.18.454,proactive2,2020.1.2,Win32,60,5f341be081b9052c55068110,5f35296f02886047e2a7c488,4,,,,,,aeroplane,,,,,,0,35,35,39,1,4,1,,,,,,,,,,,,,,,,,,,,,,,,,,,,,,,,,,,,,,,,,,,,,,,,,,,,,,,,,,,,,,,,,,,,,,,,,,,,,,,,,,,,,,,,,,,,,,,,,,,
,,,,,,,,,,stimuli/images/PICTURE_296.png,LIFE,5eece05ef05e8b0b4e5a1909,14/05/2000,2020-08-13_13h15.18.454,proactive2,2020.1.2,Win32,60,5f341be081b9052c55068110,5f35296f02886047e2a7c488,4,,,,,,bolt,,,,,,0,36,36,57,1,6,1,,,,,,,,,,,,,,,,,,,,,,,,,,,,,,,,,,,,,,,,,,,,,,,,,,,,,,,,,,,,,,,,,,,,,,,,,,,,,,,,,,,,,,,,,,,,,,,,,,,
,,,,,,,,,,stimuli/images/PICTURE_108.png,POLICY,5eece05ef05e8b0b4e5a1909,14/05/2000,2020-08-13_13h15.18.454,proactive2,2020.1.2,Win32,60,5f341be081b9052c55068110,5f35296f02886047e2a7c488,4,,,,,,calendar,,,,,,0,37,37,22,1,3,1,,,,,,,,,,,,,,,,,,,,,,,,,,,,,,,,,,,,,,,,,,,,,,,,,,,,,,,,,,,,,,,,,,,,,,,,,,,,,,,,,,,,,,,,,,,,,,,,,,,
,,,,,,,,,,stimuli/images/PICTURE_677.png,APPLE,5eece05ef05e8b0b4e5a1909,14/05/2000,2020-08-13_13h15.18.454,proactive2,2020.1.2,Win32,60,5f341be081b9052c55068110,5f35296f02886047e2a7c488,4,,,,,,map,,,,,,0,38,38,43,1,5,1,,,,,,,,,,,,,,,,,,,,,,,,,,,,,,,,,,,,,,,,,,,,,,,,,,,,,,,,,,,,,,,,,,,,,,,,,,,,,,,,,,,,,,,,,,,,,,,,,,,
,,,,,,,,,,stimuli/images/PICTURE_95.png,HONEY,5eece05ef05e8b0b4e5a1909,14/05/2000,2020-08-13_13h15.18.454,proactive2,2020.1.2,Win32,60,5f341be081b9052c55068110,5f35296f02886047e2a7c488,4,,,,,,suitcase,,,,,,0,39,39,44,1,5,1,,,,,,,,,,,,,,,,,,,,,,,,,,,,,,,,,,,,,,,,,,,,,,,,,,,,,,,,,,,,,,,,,,,,,,,,,,,,,,,,,,,,,,,,,,,,,,,,,,,
,,,,,,,,,,stimuli/images/PICTURE_85.png,TOILET,5eece05ef05e8b0b4e5a1909,14/05/2000,2020-08-13_13h15.18.454,proactive2,2020.1.2,Win32,60,5f341be081b9052c55068110,5f35296f02886047e2a7c488,4,,,,,,diamond,,,,,,0,40,40,48,1,5,1,,,,,,,,,,,,,,,,,,,,,,,,,,,,,,,,,,,,,,,,,,,,,,,,,,,,,,,,,,,,,,,,,,,,,,,,,,,,,,,,,,,,,,,,,,,,,,,,,,,
,,,,,,,,,,stimuli/images/PICTURE_203.png,GODS,5eece05ef05e8b0b4e5a1909,14/05/2000,2020-08-13_13h15.18.454,proactive2,2020.1.2,Win32,60,5f341be081b9052c55068110,5f35296f02886047e2a7c488,4,,,,,,cap,,,,,,0,41,41,30,1,4,1,,,,,,,,,,,,,,,,,,,,,,,,,,,,,,,,,,,,,,,,,,,,,,,,,,,,,,,,,,,,,,,,,,,,,,,,,,,,,,,,,,,,,,,,,,,,,,,,,,,
,,,,,,,,,,stimuli/images/PICTURE_233.png,LOTS,5eece05ef05e8b0b4e5a1909,14/05/2000,2020-08-13_13h15.18.454,proactive2,2020.1.2,Win32,60,5f341be081b9052c55068110,5f35296f02886047e2a7c488,4,,,,,,salt,,,,,,0,42,42,42,1,5,1,,,,,,,,,,,,,,,,,,,,,,,,,,,,,,,,,,,,,,,,,,,,,,,,,,,,,,,,,,,,,,,,,,,,,,,,,,,,,,,,,,,,,,,,,,,,,,,,,,,
,,,,,,,,,,stimuli/images/PICTURE_708.png,RECORD,5eece05ef05e8b0b4e5a1909,14/05/2000,2020-08-13_13h15.18.454,proactive2,2020.1.2,Win32,60,5f341be081b9052c55068110,5f35296f02886047e2a7c488,4,,,,,,monkey,,,,,,0,43,43,58,1,6,1,,,,,,,,,,,,,,,,,,,,,,,,,,,,,,,,,,,,,,,,,,,,,,,,,,,,,,,,,,,,,,,,,,,,,,,,,,,,,,,,,,,,,,,,,,,,,,,,,,,
,,,,,,,,,,stimuli/images/PICTURE_32.png,KIND,5eece05ef05e8b0b4e5a1909,14/05/2000,2020-08-13_13h15.18.454,proactive2,2020.1.2,Win32,60,5f341be081b9052c55068110,5f35296f02886047e2a7c488,4,,,,,,crown,,,,,,0,44,44,35,1,4,1,,,,,,,,,,,,,,,,,,,,,,,,,,,,,,,,,,,,,,,,,,,,,,,,,,,,,,,,,,,,,,,,,,,,,,,,,,,,,,,,,,,,,,,,,,,,,,,,,,,
,,,,,,,,,,stimuli/images/PICTURE_327.png,SERIES,5eece05ef05e8b0b4e5a1909,14/05/2000,2020-08-13_13h15.18.454,proactive2,2020.1.2,Win32,60,5f341be081b9052c55068110,5f35296f02886047e2a7c488,4,,,,,,helmet,,,,,,0,45,45,3,1,1,1,,,,,,,,,,,,,,,,,,,,,,,,,,,,,,,,,,,,,,,,,,,,,,,,,,,,,,,,,,,,,,,,,,,,,,,,,,,,,,,,,,,,,,,,,,,,,,,,,,,
,,,,,,,,,,stimuli/images/PICTURE_383.png,WRITER,5eece05ef05e8b0b4e5a1909,14/05/2000,2020-08-13_13h15.18.454,proactive2,2020.1.2,Win32,60,5f341be081b9052c55068110,5f35296f02886047e2a7c488,4,,,,,,coin,,,,,,0,46,46,28,1,3,1,,,,,,,,,,,,,,,,,,,,,,,,,,,,,,,,,,,,,,,,,,,,,,,,,,,,,,,,,,,,,,,,,,,,,,,,,,,,,,,,,,,,,,,,,,,,,,,,,,,
,,,,,,,,,,stimuli/images/PICTURE_177.png,WRITER,5eece05ef05e8b0b4e5a1909,14/05/2000,2020-08-13_13h15.18.454,proactive2,2020.1.2,Win32,60,5f341be081b9052c55068110,5f35296f02886047e2a7c488,4,,,,,,mushroom,,,,,,0,47,47,41,1,5,1,,,,,,,,,,,,,,,,,,,,,,,,,,,,,,,,,,,,,,,,,,,,,,,,,,,,,,,,,,,,,,,,,,,,,,,,,,,,,,,,,,,,,,,,,,,,,,,,,,,
,,,,,,,,,,stimuli/images/PICTURE_147.png,YEAR,5eece05ef05e8b0b4e5a1909,14/05/2000,2020-08-13_13h15.18.454,proactive2,2020.1.2,Win32,60,5f341be081b9052c55068110,5f35296f02886047e2a7c488,4,,,,,,hanger,,,,,,0,48,48,21,1,3,1,,,,,,,,,,,,,,,,,,,,,,,,,,,,,,,,,,,,,,,,,,,,,,,,,,,,,,,,,,,,,,,,,,,,,,,,,,,,,,,,,,,,,,,,,,,,,,,,,,,
,,,,,,,,,,stimuli/images/PICTURE_339.png,CLIENT,5eece05ef05e8b0b4e5a1909,14/05/2000,2020-08-13_13h15.18.454,proactive2,2020.1.2,Win32,60,5f341be081b9052c55068110,5f35296f02886047e2a7c488,4,,,,,,backpack,,,,,,0,49,49,11,1,2,1,,,,,,,,,,,,,,,,,,,,,,,,,,,,,,,,,,,,,,,,,,,,,,,,,,,,,,,,,,,,,,,,,,,,,,,,,,,,,,,,,,,,,,,,,,,,,,,,,,,
,,,,,,,,,,stimuli/images/PICTURE_147.png,WOMEN,5eece05ef05e8b0b4e5a1909,14/05/2000,2020-08-13_13h15.18.454,proactive2,2020.1.2,Win32,60,5f341be081b9052c55068110,5f35296f02886047e2a7c488,4,,,,,,hanger,,,,,,0,50,50,7,1,1,1,,,,,,,,,,,,,,,,,,,,,,,,,,,,,,,,,,,,,,,,,,,,,,,,,,,,,,,,,,,,,,,,,,,,,,,,,,,,,,,,,,,,,,,,,,,,,,,,,,,
,,,,,,,,,,stimuli/images/PICTURE_491.png,RIVER,5eece05ef05e8b0b4e5a1909,14/05/2000,2020-08-13_13h15.18.454,proactive2,2020.1.2,Win32,60,5f341be081b9052c55068110,5f35296f02886047e2a7c488,4,,,,,,rug,,,,,,0,51,51,6,1,1,1,,,,,,,,,,,,,,,,,,,,,,,,,,,,,,,,,,,,,,,,,,,,,,,,,,,,,,,,,,,,,,,,,,,,,,,,,,,,,,,,,,,,,,,,,,,,,,,,,,,
,,,,,,,,,,stimuli/images/PICTURE_654.png,MONTH,5eece05ef05e8b0b4e5a1909,14/05/2000,2020-08-13_13h15.18.454,proactive2,2020.1.2,Win32,60,5f341be081b9052c55068110,5f35296f02886047e2a7c488,4,,,,,,pencil,,,,,,0,52,52,29,1,3,1,,,,,,,,,,,,,,,,,,,,,,,,,,,,,,,,,,,,,,,,,,,,,,,,,,,,,,,,,,,,,,,,,,,,,,,,,,,,,,,,,,,,,,,,,,,,,,,,,,,
,,,,,,,,,,stimuli/images/PICTURE_504.png,ARTIST,5eece05ef05e8b0b4e5a1909,14/05/2000,2020-08-13_13h15.18.454,proactive2,2020.1.2,Win32,60,5f341be081b9052c55068110,5f35296f02886047e2a7c488,4,,,,,,wheel,,,,,,0,53,53,49,1,5,1,,,,,,,,,,,,,,,,,,,,,,,,,,,,,,,,,,,,,,,,,,,,,,,,,,,,,,,,,,,,,,,,,,,,,,,,,,,,,,,,,,,,,,,,,,,,,,,,,,,
,,,,,,,,,,stimuli/images/PICTURE_750.png,HOTEL,5eece05ef05e8b0b4e5a1909,14/05/2000,2020-08-13_13h15.18.454,proactive2,2020.1.2,Win32,60,5f341be081b9052c55068110,5f35296f02886047e2a7c488,4,,,,,,kettle,,,,,,0,54,54,27,1,3,1,,,,,,,,,,,,,,,,,,,,,,,,,,,,,,,,,,,,,,,,,,,,,,,,,,,,,,,,,,,,,,,,,,,,,,,,,,,,,,,,,,,,,,,,,,,,,,,,,,,
,,,,,,,,,,stimuli/images/PICTURE_491.png,GLASS,5eece05ef05e8b0b4e5a1909,14/05/2000,2020-08-13_13h15.18.454,proactive2,2020.1.2,Win32,60,5f341be081b9052c55068110,5f35296f02886047e2a7c488,4,,,,,,rug,,,,,,0,55,55,14,1,2,1,,,,,,,,,,,,,,,,,,,,,,,,,,,,,,,,,,,,,,,,,,,,,,,,,,,,,,,,,,,,,,,,,,,,,,,,,,,,,,,,,,,,,,,,,,,,,,,,,,,
,,,,,,,,,,stimuli/images/PICTURE_285.png,LIFE,5eece05ef05e8b0b4e5a1909,14/05/2000,2020-08-13_13h15.18.454,proactive2,2020.1.2,Win32,60,5f341be081b9052c55068110,5f35296f02886047e2a7c488,4,,,,,,carrot,,,,,,0,56,56,33,1,4,1,,,,,,,,,,,,,,,,,,,,,,,,,,,,,,,,,,,,,,,,,,,,,,,,,,,,,,,,,,,,,,,,,,,,,,,,,,,,,,,,,,,,,,,,,,,,,,,,,,,
,,,,,,,,,,stimuli/images/PICTURE_57.png,MOMENT,5eece05ef05e8b0b4e5a1909,14/05/2000,2020-08-13_13h15.18.454,proactive2,2020.1.2,Win32,60,5f341be081b9052c55068110,5f35296f02886047e2a7c488,4,,,,,,stamp,,,,,,0,57,57,37,1,4,1,,,,,,,,,,,,,,,,,,,,,,,,,,,,,,,,,,,,,,,,,,,,,,,,,,,,,,,,,,,,,,,,,,,,,,,,,,,,,,,,,,,,,,,,,,,,,,,,,,,
,,,,,,,,,,stimuli/images/PICTURE_340.png,LETTER,5eece05ef05e8b0b4e5a1909,14/05/2000,2020-08-13_13h15.18.454,proactive2,2020.1.2,Win32,60,5f341be081b9052c55068110,5f35296f02886047e2a7c488,4,,,,,,mirror,,,,,,0,58,58,24,1,3,1,,,,,,,,,,,,,,,,,,,,,,,,,,,,,,,,,,,,,,,,,,,,,,,,,,,,,,,,,,,,,,,,,,,,,,,,,,,,,,,,,,,,,,,,,,,,,,,,,,,
,,?,0.001375,0,,,,,,stimuli/images/PICTURE_667.png,RIVER,5eece05ef05e8b0b4e5a1909,14/05/2000,2020-08-13_13h15.18.454,proactive2,2020.1.2,Win32,60,5f341be081b9052c55068110,5f35296f02886047e2a7c488,4,,,,,,daisy,,,,,,,,,,,2,1,0,0,0,10,1,,,,,,,,,,,,,,,,,,,,,,,,,,,,,,,,,,,,,,,,,,,,,,,,,,,,,,,,,,,,,,,,,,,,,,,,,,,,,,,,,,,,,,,,,,,,,,
,,?,0.00087,0,,,,,,stimuli/images/PICTURE_108.png,POLICY,5eece05ef05e8b0b4e5a1909,14/05/2000,2020-08-13_13h15.18.454,proactive2,2020.1.2,Win32,60,5f341be081b9052c55068110,5f35296f02886047e2a7c488,4,,,,,,calendar,,,,,,,,,,,3,1,0,1,1,22,1,,,,,,,,,,,,,,,,,,,,,,,,,,,,,,,,,,,,,,,,,,,,,,,,,,,,,,,,,,,,,,,,,,,,,,,,,,,,,,,,,,,,,,,,,,,,,,
,,?,0.00118,0,,,,,,stimuli/images/PICTURE_708.png,RECORD,5eece05ef05e8b0b4e5a1909,14/05/2000,2020-08-13_13h15.18.454,proactive2,2020.1.2,Win32,60,5f341be081b9052c55068110,5f35296f02886047e2a7c488,4,,,,,,monkey,,,,,,,,,,,6,1,0,2,2,58,1,,,,,,,,,,,,,,,,,,,,,,,,,,,,,,,,,,,,,,,,,,,,,,,,,,,,,,,,,,,,,,,,,,,,,,,,,,,,,,,,,,,,,,,,,,,,,,
,,?,0.001115,0,,,,,,stimuli/images/PICTURE_95.png,HONEY,5eece05ef05e8b0b4e5a1909,14/05/2000,2020-08-13_13h15.18.454,proactive2,2020.1.2,Win32,60,5f341be081b9052c55068110,5f35296f02886047e2a7c488,4,,,,,,suitcase,,,,,,,,,,,5,1,0,3,3,44,1,,,,,,,,,,,,,,,,,,,,,,,,,,,,,,,,,,,,,,,,,,,,,,,,,,,,,,,,,,,,,,,,,,,,,,,,,,,,,,,,,,,,,,,,,,,,,,
,,?,0.001085,0,,,,,,stimuli/images/PICTURE_469.png,AGENT,5eece05ef05e8b0b4e5a1909,14/05/2000,2020-08-13_13h15.18.454,proactive2,2020.1.2,Win32,60,5f341be081b9052c55068110,5f35296f02886047e2a7c488,4,,,,,,stool,,,,,,,,,,,2,1,0,4,4,16,1,,,,,,,,,,,,,,,,,,,,,,,,,,,,,,,,,,,,,,,,,,,,,,,,,,,,,,,,,,,,,,,,,,,,,,,,,,,,,,,,,,,,,,,,,,,,,,
,,?,0.00121,0,,,,,,stimuli/images/PICTURE_68.png,MILE,5eece05ef05e8b0b4e5a1909,14/05/2000,2020-08-13_13h15.18.454,proactive2,2020.1.2,Win32,60,5f341be081b9052c55068110,5f35296f02886047e2a7c488,4,,,,,,candle,,,,,,,,,,,6,1,0,5,5,51,1,,,,,,,,,,,,,,,,,,,,,,,,,,,,,,,,,,,,,,,,,,,,,,,,,,,,,,,,,,,,,,,,,,,,,,,,,,,,,,,,,,,,,,,,,,,,,,
,,?,0.00103,0,,,,,,stimuli/images/PICTURE_95.png,BOYS,5eece05ef05e8b0b4e5a1909,14/05/2000,2020-08-13_13h15.18.454,proactive2,2020.1.2,Win32,60,5f341be081b9052c55068110,5f35296f02886047e2a7c488,4,,,,,,suitcase,,,,,,,,,,,1,1,0,6,6,1,1,,,,,,,,,,,,,,,,,,,,,,,,,,,,,,,,,,,,,,,,,,,,,,,,,,,,,,,,,,,,,,,,,,,,,,,,,,,,,,,,,,,,,,,,,,,,,,
,,?,0.001,0,,,,,,stimuli/images/PICTURE_504.png,COPS,5eece05ef05e8b0b4e5a1909,14/05/2000,2020-08-13_13h15.18.454,proactive2,2020.1.2,Win32,60,5f341be081b9052c55068110,5f35296f02886047e2a7c488,4,,,,,,wheel,,,,,,,,,,,6,1,0,7,7,52,1,,,,,,,,,,,,,,,,,,,,,,,,,,,,,,,,,,,,,,,,,,,,,,,,,,,,,,,,,,,,,,,,,,,,,,,,,,,,,,,,,,,,,,,,,,,,,,
,,WRITER,5.500085,0,,,,,,stimuli/images/PICTURE_405.png,YEAR,5eece05ef05e8b0b4e5a1909,14/05/2000,2020-08-13_13h15.18.454,proactive2,2020.1.2,Win32,60,5f341be081b9052c55068110,5f35296f02886047e2a7c488,4,,,,,,anchor,,,,,,,,,,,4,1,0,8,8,34,1,,,,,,,,,,,,,,,,,,,,,,,,,,,,,,,,,,,,,,,,,,,,,,,,,,,,,,,,,,,,,,,,,,,,,,,,,,,,,,,,,,,,,,,,,,,,,,
,,?,0.001245,0,,,,,,stimuli/images/PICTURE_675.png,SALE,5eece05ef05e8b0b4e5a1909,14/05/2000,2020-08-13_13h15.18.454,proactive2,2020.1.2,Win32,60,5f341be081b9052c55068110,5f35296f02886047e2a7c488,4,,,,,,windmill,,,,,,,,,,,5,1,0,9,9,47,1,,,,,,,,,,,,,,,,,,,,,,,,,,,,,,,,,,,,,,,,,,,,,,,,,,,,,,,,,,,,,,,,,,,,,,,,,,,,,,,,,,,,,,,,,,,,,,
,,?,0.00087,0,,,,,,stimuli/images/PICTURE_327.png,SERIES,5eece05ef05e8b0b4e5a1909,14/05/2000,2020-08-13_13h15.18.454,proactive2,2020.1.2,Win32,60,5f341be081b9052c55068110,5f35296f02886047e2a7c488,4,,,,,,helmet,,,,,,,,,,,1,1,0,10,10,3,1,,,,,,,,,,,,,,,,,,,,,,,,,,,,,,,,,,,,,,,,,,,,,,,,,,,,,,,,,,,,,,,,,,,,,,,,,,,,,,,,,,,,,,,,,,,,,,
,,?,0.00093,0,,,,,,stimuli/images/PICTURE_383.png,WRITER,5eece05ef05e8b0b4e5a1909,14/05/2000,2020-08-13_13h15.18.454,proactive2,2020.1.2,Win32,60,5f341be081b9052c55068110,5f35296f02886047e2a7c488,4,,,,,,coin,,,,,,,,,,,3,1,0,11,11,28,1,,,,,,,,,,,,,,,,,,,,,,,,,,,,,,,,,,,,,,,,,,,,,,,,,,,,,,,,,,,,,,,,,,,,,,,,,,,,,,,,,,,,,,,,,,,,,,
,,?,1.42688,0,,,,,,stimuli/images/PICTURE_208.png,SYSTEM,5eece05ef05e8b0b4e5a1909,14/05/2000,2020-08-13_13h15.18.454,proactive2,2020.1.2,Win32,60,5f341be081b9052c55068110,5f35296f02886047e2a7c488,4,,,,,,microphone,,,,,,,,,,,4,1,0,12,12,32,1,,,,,,,,,,,,,,,,,,,,,,,,,,,,,,,,,,,,,,,,,,,,,,,,,,,,,,,,,,,,,,,,,,,,,,,,,,,,,,,,,,,,,,,,,,,,,,
,,?,0.001805,0,,,,,,stimuli/images/PICTURE_564.png,BATH,5eece05ef05e8b0b4e5a1909,14/05/2000,2020-08-13_13h15.18.454,proactive2,2020.1.2,Win32,60,5f341be081b9052c55068110,5f35296f02886047e2a7c488,4,,,,,,spoon,,,,,,,,,,,3,1,0,13,13,26,1,,,,,,,,,,,,,,,,,,,,,,,,,,,,,,,,,,,,,,,,,,,,,,,,,,,,,,,,,,,,,,,,,,,,,,,,,,,,,,,,,,,,,,,,,,,,,,
,,?,0.00139,0,,,,,,stimuli/images/PICTURE_750.png,HOTEL,5eece05ef05e8b0b4e5a1909,14/05/2000,2020-08-13_13h15.18.454,proactive2,2020.1.2,Win32,60,5f341be081b9052c55068110,5f35296f02886047e2a7c488,4,,,,,,kettle,,,,,,,,,,,3,1,0,14,14,27,1,,,,,,,,,,,,,,,,,,,,,,,,,,,,,,,,,,,,,,,,,,,,,,,,,,,,,,,,,,,,,,,,,,,,,,,,,,,,,,,,,,,,,,,,,,,,,,
,,?,0.001225,0,,,,,,stimuli/images/PICTURE_405.png,PLENTY,5eece05ef05e8b0b4e5a1909,14/05/2000,2020-08-13_13h15.18.454,proactive2,2020.1.2,Win32,60,5f341be081b9052c55068110,5f35296f02886047e2a7c488,4,,,,,,anchor,,,,,,,,,,,3,1,0,15,15,23,1,,,,,,,,,,,,,,,,,,,,,,,,,,,,,,,,,,,,,,,,,,,,,,,,,,,,,,,,,,,,,,,,,,,,,,,,,,,,,,,,,,,,,,,,,,,,,,
,,?,0.001105,0,,,,,,stimuli/images/PICTURE_42.png,BOYS,5eece05ef05e8b0b4e5a1909,14/05/2000,2020-08-13_13h15.18.454,proactive2,2020.1.2,Win32,60,5f341be081b9052c55068110,5f35296f02886047e2a7c488,4,,,,,,pear,,,,,,,,,,,6,1,0,16,16,55,1,,,,,,,,,,,,,,,,,,,,,,,,,,,,,,,,,,,,,,,,,,,,,,,,,,,,,,,,,,,,,,,,,,,,,,,,,,,,,,,,,,,,,,,,,,,,,,
,,?,0.00162,0,,,,,,stimuli/images/PICTURE_296.png,LIFE,5eece05ef05e8b0b4e5a1909,14/05/2000,2020-08-13_13h15.18.454,proactive2,2020.1.2,Win32,60,5f341be081b9052c55068110,5f35296f02886047e2a7c488,4,,,,,,bolt,,,,,,,,,,,6,1,0,17,17,57,1,,,,,,,,,,,,,,,,,,,,,,,,,,,,,,,,,,,,,,,,,,,,,,,,,,,,,,,,,,,,,,,,,,,,,,,,,,,,,,,,,,,,,,,,,,,,,,
,,?,0.00172,0,,,,,,stimuli/images/PICTURE_677.png,APPLE,5eece05ef05e8b0b4e5a1909,14/05/2000,2020-08-13_13h15.18.454,proactive2,2020.1.2,Win32,60,5f341be081b9052c55068110,5f35296f02886047e2a7c488,4,,,,,,map,,,,,,,,,,,5,1,0,18,18,43,1,,,,,,,,,,,,,,,,,,,,,,,,,,,,,,,,,,,,,,,,,,,,,,,,,,,,,,,,,,,,,,,,,,,,,,,,,,,,,,,,,,,,,,,,,,,,,,
,,?,0.004285,0,,,,,,stimuli/images/PICTURE_339.png,CLIENT,5eece05ef05e8b0b4e5a1909,14/05/2000,2020-08-13_13h15.18.454,proactive2,2020.1.2,Win32,60,5f341be081b9052c55068110,5f35296f02886047e2a7c488,4,,,,,,backpack,,,,,,,,,,,2,1,0,19,19,11,1,,,,,,,,,,,,,,,,,,,,,,,,,,,,,,,,,,,,,,,,,,,,,,,,,,,,,,,,,,,,,,,,,,,,,,,,,,,,,,,,,,,,,,,,,,,,,,
,,?,0.00137,0,,,,,,stimuli/images/PICTURE_108.png,FLIGHT,5eece05ef05e8b0b4e5a1909,14/05/2000,2020-08-13_13h15.18.454,proactive2,2020.1.2,Win32,60,5f341be081b9052c55068110,5f35296f02886047e2a7c488,4,,,,,,calendar,,,,,,,,,,,6,1,0,20,20,59,1,,,,,,,,,,,,,,,,,,,,,,,,,,,,,,,,,,,,,,,,,,,,,,,,,,,,,,,,,,,,,,,,,,,,,,,,,,,,,,,,,,,,,,,,,,,,,,
,,?,0.001085,0,,,,,,stimuli/images/PICTURE_491.png,RIVER,5eece05ef05e8b0b4e5a1909,14/05/2000,2020-08-13_13h15.18.454,proactive2,2020.1.2,Win32,60,5f341be081b9052c55068110,5f35296f02886047e2a7c488,4,,,,,,rug,,,,,,,,,,,1,1,0,21,21,6,1,,,,,,,,,,,,,,,,,,,,,,,,,,,,,,,,,,,,,,,,,,,,,,,,,,,,,,,,,,,,,,,,,,,,,,,,,,,,,,,,,,,,,,,,,,,,,,
,,FAMILY,4.344575,0,,,,,,stimuli/images/PICTURE_403.png,WRITER,5eece05ef05e8b0b4e5a1909,14/05/2000,2020-08-13_13h15.18.454,proactive2,2020.1.2,Win32,60,5f341be081b9052c55068110,5f35296f02886047e2a7c488,4,,,,,,cathedral,,,,,,,,,,,4,1,0,22,22,31,1,,,,,,,,,,,,,,,,,,,,,,,,,,,,,,,,,,,,,,,,,,,,,,,,,,,,,,,,,,,,,,,,,,,,,,,,,,,,,,,,,,,,,,,,,,,,,,
,,?,0.00267,0,,,,,,stimuli/images/PICTURE_32.png,PILLS,5eece05ef05e8b0b4e5a1909,14/05/2000,2020-08-13_13h15.18.454,proactive2,2020.1.2,Win32,60,5f341be081b9052c55068110,5f35296f02886047e2a7c488,4,,,,,,crown,,,,,,,,,,,2,1,0,23,23,18,1,,,,,,,,,,,,,,,,,,,,,,,,,,,,,,,,,,,,,,,,,,,,,,,,,,,,,,,,,,,,,,,,,,,,,,,,,,,,,,,,,,,,,,,,,,,,,,
,,?,0.00178,0,,,,,,stimuli/images/PICTURE_233.png,LOTS,5eece05ef05e8b0b4e5a1909,14/05/2000,2020-08-13_13h15.18.454,proactive2,2020.1.2,Win32,60,5f341be081b9052c55068110,5f35296f02886047e2a7c488,4,,,,,,salt,,,,,,,,,,,5,1,0,24,24,42,1,,,,,,,,,,,,,,,,,,,,,,,,,,,,,,,,,,,,,,,,,,,,,,,,,,,,,,,,,,,,,,,,,,,,,,,,,,,,,,,,,,,,,,,,,,,,,,
,,?,0.001405,0,,,,,,stimuli/images/PICTURE_147.png,WOMEN,5eece05ef05e8b0b4e5a1909,14/05/2000,2020-08-13_13h15.18.454,proactive2,2020.1.2,Win32,60,5f341be081b9052c55068110,5f35296f02886047e2a7c488,4,,,,,,hanger,,,,,,,,,,,1,1,0,25,25,7,1,,,,,,,,,,,,,,,,,,,,,,,,,,,,,,,,,,,,,,,,,,,,,,,,,,,,,,,,,,,,,,,,,,,,,,,,,,,,,,,,,,,,,,,,,,,,,,
,,?,0.00114,0,,,,,,stimuli/images/PICTURE_504.png,YEAR,5eece05ef05e8b0b4e5a1909,14/05/2000,2020-08-13_13h15.18.454,proactive2,2020.1.2,Win32,60,5f341be081b9052c55068110,5f35296f02886047e2a7c488,4,,,,,,wheel,,,,,,,,,,,2,1,0,26,26,13,1,,,,,,,,,,,,,,,,,,,,,,,,,,,,,,,,,,,,,,,,,,,,,,,,,,,,,,,,,,,,,,,,,,,,,,,,,,,,,,,,,,,,,,,,,,,,,,
,,?,0.00085,0,,,,,,stimuli/images/PICTURE_340.png,VALLEY,5eece05ef05e8b0b4e5a1909,14/05/2000,2020-08-13_13h15.18.454,proactive2,2020.1.2,Win32,60,5f341be081b9052c55068110,5f35296f02886047e2a7c488,4,,,,,,mirror,,,,,,,,,,,6,1,0,27,27,54,1,,,,,,,,,,,,,,,,,,,,,,,,,,,,,,,,,,,,,,,,,,,,,,,,,,,,,,,,,,,,,,,,,,,,,,,,,,,,,,,,,,,,,,,,,,,,,,
,,?,0.000655,0,,,,,,stimuli/images/PICTURE_685.png,PENNY,5eece05ef05e8b0b4e5a1909,14/05/2000,2020-08-13_13h15.18.454,proactive2,2020.1.2,Win32,60,5f341be081b9052c55068110,5f35296f02886047e2a7c488,4,,,,,,goose,,,,,,,,,,,1,1,0,28,28,4,1,,,,,,,,,,,,,,,,,,,,,,,,,,,,,,,,,,,,,,,,,,,,,,,,,,,,,,,,,,,,,,,,,,,,,,,,,,,,,,,,,,,,,,,,,,,,,,
,,YEAR,4.458485,0,,,,,,stimuli/images/PICTURE_285.png,LIFE,5eece05ef05e8b0b4e5a1909,14/05/2000,2020-08-13_13h15.18.454,proactive2,2020.1.2,Win32,60,5f341be081b9052c55068110,5f35296f02886047e2a7c488,4,,,,,,carrot,,,,,,,,,,,4,1,0,29,29,33,1,,,,,,,,,,,,,,,,,,,,,,,,,,,,,,,,,,,,,,,,,,,,,,,,,,,,,,,,,,,,,,,,,,,,,,,,,,,,,,,,,,,,,,,,,,,,,,
,,?,0.001775,0,,,,,,stimuli/images/PICTURE_33.png,FRIEND,5eece05ef05e8b0b4e5a1909,14/05/2000,2020-08-13_13h15.18.454,proactive2,2020.1.2,Win32,60,5f341be081b9052c55068110,5f35296f02886047e2a7c488,4,,,,,,frame,,,,,,,,,,,1,1,0,30,30,8,1,,,,,,,,,,,,,,,,,,,,,,,,,,,,,,,,,,,,,,,,,,,,,,,,,,,,,,,,,,,,,,,,,,,,,,,,,,,,,,,,,,,,,,,,,,,,,,
,,?,0.0015,0,,,,,,stimuli/images/PICTURE_491.png,GLASS,5eece05ef05e8b0b4e5a1909,14/05/2000,2020-08-13_13h15.18.454,proactive2,2020.1.2,Win32,60,5f341be081b9052c55068110,5f35296f02886047e2a7c488,4,,,,,,rug,,,,,,,,,,,2,1,0,31,31,14,1,,,,,,,,,,,,,,,,,,,,,,,,,,,,,,,,,,,,,,,,,,,,,,,,,,,,,,,,,,,,,,,,,,,,,,,,,,,,,,,,,,,,,,,,,,,,,,
,,FAMILY,3.35635,1,,,,,,stimuli/images/PICTURE_308.png,FAMILY,5eece05ef05e8b0b4e5a1909,14/05/2000,2020-08-13_13h15.18.454,proactive2,2020.1.2,Win32,60,5f341be081b9052c55068110,5f35296f02886047e2a7c488,4,,,,,,dice,,,,,,,,,,,4,1,0,32,32,36,1,,,,,,,,,,,,,,,,,,,,,,,,,,,,,,,,,,,,,,,,,,,,,,,,,,,,,,,,,,,,,,,,,,,,,,,,,,,,,,,,,,,,,,,,,,,,,,
,,?,0.001785,0,,,,,,stimuli/images/PICTURE_487.png,GIRL,5eece05ef05e8b0b4e5a1909,14/05/2000,2020-08-13_13h15.18.454,proactive2,2020.1.2,Win32,60,5f341be081b9052c55068110,5f35296f02886047e2a7c488,4,,,,,,basket,,,,,,,,,,,5,1,0,33,33,45,1,,,,,,,,,,,,,,,,,,,,,,,,,,,,,,,,,,,,,,,,,,,,,,,,,,,,,,,,,,,,,,,,,,,,,,,,,,,,,,,,,,,,,,,,,,,,,,
,,?,0.001165,0,,,,,,stimuli/images/PICTURE_380.png,HONEY,5eece05ef05e8b0b4e5a1909,14/05/2000,2020-08-13_13h15.18.454,proactive2,2020.1.2,Win32,60,5f341be081b9052c55068110,5f35296f02886047e2a7c488,4,,,,,,gorilla,,,,,,,,,,,2,1,0,34,34,19,1,,,,,,,,,,,,,,,,,,,,,,,,,,,,,,,,,,,,,,,,,,,,,,,,,,,,,,,,,,,,,,,,,,,,,,,,,,,,,,,,,,,,,,,,,,,,,,
,,?,0.00107,0,,,,,,stimuli/images/PICTURE_85.png,TOILET,5eece05ef05e8b0b4e5a1909,14/05/2000,2020-08-13_13h15.18.454,proactive2,2020.1.2,Win32,60,5f341be081b9052c55068110,5f35296f02886047e2a7c488,4,,,,,,diamond,,,,,,,,,,,5,1,0,35,35,48,1,,,,,,,,,,,,,,,,,,,,,,,,,,,,,,,,,,,,,,,,,,,,,,,,,,,,,,,,,,,,,,,,,,,,,,,,,,,,,,,,,,,,,,,,,,,,,,
,,?,0.00134,0,,,,,,stimuli/images/PICTURE_2.png,FLIGHT,5eece05ef05e8b0b4e5a1909,14/05/2000,2020-08-13_13h15.18.454,proactive2,2020.1.2,Win32,60,5f341be081b9052c55068110,5f35296f02886047e2a7c488,4,,,,,,tyre,,,,,,,,,,,2,1,0,36,36,15,1,,,,,,,,,,,,,,,,,,,,,,,,,,,,,,,,,,,,,,,,,,,,,,,,,,,,,,,,,,,,,,,,,,,,,,,,,,,,,,,,,,,,,,,,,,,,,,
,,GODS,2.570755,1,,,,,,stimuli/images/PICTURE_203.png,GODS,5eece05ef05e8b0b4e5a1909,14/05/2000,2020-08-13_13h15.18.454,proactive2,2020.1.2,Win32,60,5f341be081b9052c55068110,5f35296f02886047e2a7c488,4,,,,,,cap,,,,,,,,,,,4,1,0,37,37,30,1,,,,,,,,,,,,,,,,,,,,,,,,,,,,,,,,,,,,,,,,,,,,,,,,,,,,,,,,,,,,,,,,,,,,,,,,,,,,,,,,,,,,,,,,,,,,,,
,,?,0.003135,0,,,,,,stimuli/images/PICTURE_504.png,ARTIST,5eece05ef05e8b0b4e5a1909,14/05/2000,2020-08-13_13h15.18.454,proactive2,2020.1.2,Win32,60,5f341be081b9052c55068110,5f35296f02886047e2a7c488,4,,,,,,wheel,,,,,,,,,,,5,1,0,38,38,49,1,,,,,,,,,,,,,,,,,,,,,,,,,,,,,,,,,,,,,,,,,,,,,,,,,,,,,,,,,,,,,,,,,,,,,,,,,,,,,,,,,,,,,,,,,,,,,,
,,?,0.001175,0,,,,,,stimuli/images/PICTURE_85.png,NATION,5eece05ef05e8b0b4e5a1909,14/05/2000,2020-08-13_13h15.18.454,proactive2,2020.1.2,Win32,60,5f341be081b9052c55068110,5f35296f02886047e2a7c488,4,,,,,,diamond,,,,,,,,,,,1,1,0,39,39,5,1,,,,,,,,,,,,,,,,,,,,,,,,,,,,,,,,,,,,,,,,,,,,,,,,,,,,,,,,,,,,,,,,,,,,,,,,,,,,,,,,,,,,,,,,,,,,,,
,,?,0.001135,0,,,,,,stimuli/images/PICTURE_147.png,YEAR,5eece05ef05e8b0b4e5a1909,14/05/2000,2020-08-13_13h15.18.454,proactive2,2020.1.2,Win32,60,5f341be081b9052c55068110,5f35296f02886047e2a7c488,4,,,,,,hanger,,,,,,,,,,,3,1,0,40,40,21,1,,,,,,,,,,,,,,,,,,,,,,,,,,,,,,,,,,,,,,,,,,,,,,,,,,,,,,,,,,,,,,,,,,,,,,,,,,,,,,,,,,,,,,,,,,,,,,
,,?,0.001205,0,,,,,,stimuli/images/PICTURE_327.png,CASINO,5eece05ef05e8b0b4e5a1909,14/05/2000,2020-08-13_13h15.18.454,proactive2,2020.1.2,Win32,60,5f341be081b9052c55068110,5f35296f02886047e2a7c488,4,,,,,,helmet,,,,,,,,,,,3,1,0,41,41,20,1,,,,,,,,,,,,,,,,,,,,,,,,,,,,,,,,,,,,,,,,,,,,,,,,,,,,,,,,,,,,,,,,,,,,,,,,,,,,,,,,,,,,,,,,,,,,,,
,,ROOF,2.2006,1,,,,,,stimuli/images/PICTURE_68.png,ROOF,5eece05ef05e8b0b4e5a1909,14/05/2000,2020-08-13_13h15.18.454,proactive2,2020.1.2,Win32,60,5f341be081b9052c55068110,5f35296f02886047e2a7c488,4,,,,,,candle,,,,,,,,,,,4,1,0,42,42,38,1,,,,,,,,,,,,,,,,,,,,,,,,,,,,,,,,,,,,,,,,,,,,,,,,,,,,,,,,,,,,,,,,,,,,,,,,,,,,,,,,,,,,,,,,,,,,,,
,,?,0.001405,0,,,,,,stimuli/images/PICTURE_403.png,RIVER,5eece05ef05e8b0b4e5a1909,14/05/2000,2020-08-13_13h15.18.454,proactive2,2020.1.2,Win32,60,5f341be081b9052c55068110,5f35296f02886047e2a7c488,4,,,,,,cathedral,,,,,,,,,,,5,1,0,43,43,40,1,,,,,,,,,,,,,,,,,,,,,,,,,,,,,,,,,,,,,,,,,,,,,,,,,,,,,,,,,,,,,,,,,,,,,,,,,,,,,,,,,,,,,,,,,,,,,,
,,?,0.0013,0,,,,,,stimuli/images/PICTURE_383.png,SERIES,5eece05ef05e8b0b4e5a1909,14/05/2000,2020-08-13_13h15.18.454,proactive2,2020.1.2,Win32,60,5f341be081b9052c55068110,5f35296f02886047e2a7c488,4,,,,,,coin,,,,,,,,,,,5,1,0,44,44,46,1,,,,,,,,,,,,,,,,,,,,,,,,,,,,,,,,,,,,,,,,,,,,,,,,,,,,,,,,,,,,,,,,,,,,,,,,,,,,,,,,,,,,,,,,,,,,,,
,,?,0.001685,0,,,,,,stimuli/images/PICTURE_449.png,DUDE,5eece05ef05e8b0b4e5a1909,14/05/2000,2020-08-13_13h15.18.454,proactive2,2020.1.2,Win32,60,5f341be081b9052c55068110,5f35296f02886047e2a7c488,4,,,,,,bench,,,,,,,,,,,2,1,0,45,45,17,1,,,,,,,,,,,,,,,,,,,,,,,,,,,,,,,,,,,,,,,,,,,,,,,,,,,,,,,,,,,,,,,,,,,,,,,,,,,,,,,,,,,,,,,,,,,,,,
,,?,0.001405,0,,,,,,stimuli/images/PICTURE_380.png,CANDY,5eece05ef05e8b0b4e5a1909,14/05/2000,2020-08-13_13h15.18.454,proactive2,2020.1.2,Win32,60,5f341be081b9052c55068110,5f35296f02886047e2a7c488,4,,,,,,gorilla,,,,,,,,,,,1,1,0,46,46,0,1,,,,,,,,,,,,,,,,,,,,,,,,,,,,,,,,,,,,,,,,,,,,,,,,,,,,,,,,,,,,,,,,,,,,,,,,,,,,,,,,,,,,,,,,,,,,,,
,,?,0.00224,0,,,,,,stimuli/images/PICTURE_95.png,MILLER,5eece05ef05e8b0b4e5a1909,14/05/2000,2020-08-13_13h15.18.454,proactive2,2020.1.2,Win32,60,5f341be081b9052c55068110,5f35296f02886047e2a7c488,4,,,,,,suitcase,,,,,,,,,,,6,1,0,47,47,56,1,,,,,,,,,,,,,,,,,,,,,,,,,,,,,,,,,,,,,,,,,,,,,,,,,,,,,,,,,,,,,,,,,,,,,,,,,,,,,,,,,,,,,,,,,,,,,,
,,?,5.747065,0,,,,,,stimuli/images/PICTURE_297.png,RIVER,5eece05ef05e8b0b4e5a1909,14/05/2000,2020-08-13_13h15.18.454,proactive2,2020.1.2,Win32,60,5f341be081b9052c55068110,5f35296f02886047e2a7c488,4,,,,,,aeroplane,,,,,,,,,,,4,1,0,48,48,39,1,,,,,,,,,,,,,,,,,,,,,,,,,,,,,,,,,,,,,,,,,,,,,,,,,,,,,,,,,,,,,,,,,,,,,,,,,,,,,,,,,,,,,,,,,,,,,,
,,?,0.00161,0,,,,,,stimuli/images/PICTURE_203.png,NIGHT,5eece05ef05e8b0b4e5a1909,14/05/2000,2020-08-13_13h15.18.454,proactive2,2020.1.2,Win32,60,5f341be081b9052c55068110,5f35296f02886047e2a7c488,4,,,,,,cap,,,,,,,,,,,1,1,0,49,49,2,1,,,,,,,,,,,,,,,,,,,,,,,,,,,,,,,,,,,,,,,,,,,,,,,,,,,,,,,,,,,,,,,,,,,,,,,,,,,,,,,,,,,,,,,,,,,,,,
,,?,0.00287,0,,,,,,stimuli/images/PICTURE_177.png,WRITER,5eece05ef05e8b0b4e5a1909,14/05/2000,2020-08-13_13h15.18.454,proactive2,2020.1.2,Win32,60,5f341be081b9052c55068110,5f35296f02886047e2a7c488,4,,,,,,mushroom,,,,,,,,,,,5,1,0,50,50,41,1,,,,,,,,,,,,,,,,,,,,,,,,,,,,,,,,,,,,,,,,,,,,,,,,,,,,,,,,,,,,,,,,,,,,,,,,,,,,,,,,,,,,,,,,,,,,,,
,,?,0.00157,0,,,,,,stimuli/images/PICTURE_654.png,MONTH,5eece05ef05e8b0b4e5a1909,14/05/2000,2020-08-13_13h15.18.454,proactive2,2020.1.2,Win32,60,5f341be081b9052c55068110,5f35296f02886047e2a7c488,4,,,,,,pencil,,,,,,,,,,,3,1,0,51,51,29,1,,,,,,,,,,,,,,,,,,,,,,,,,,,,,,,,,,,,,,,,,,,,,,,,,,,,,,,,,,,,,,,,,,,,,,,,,,,,,,,,,,,,,,,,,,,,,,
,,?,0.00157,0,,,,,,stimuli/images/PICTURE_467.png,POLICY,5eece05ef05e8b0b4e5a1909,14/05/2000,2020-08-13_13h15.18.454,proactive2,2020.1.2,Win32,60,5f341be081b9052c55068110,5f35296f02886047e2a7c488,4,,,,,,peg,,,,,,,,,,,6,1,0,52,52,53,1,,,,,,,,,,,,,,,,,,,,,,,,,,,,,,,,,,,,,,,,,,,,,,,,,,,,,,,,,,,,,,,,,,,,,,,,,,,,,,,,,,,,,,,,,,,,,,
,,?,0.001375,0,,,,,,stimuli/images/PICTURE_403.png,TOILET,5eece05ef05e8b0b4e5a1909,14/05/2000,2020-08-13_13h15.18.454,proactive2,2020.1.2,Win32,60,5f341be081b9052c55068110,5f35296f02886047e2a7c488,4,,,,,,cathedral,,,,,,,,,,,3,1,0,53,53,25,1,,,,,,,,,,,,,,,,,,,,,,,,,,,,,,,,,,,,,,,,,,,,,,,,,,,,,,,,,,,,,,,,,,,,,,,,,,,,,,,,,,,,,,,,,,,,,,
,,?,0.00108,0,,,,,,stimuli/images/PICTURE_655.png,TOILET,5eece05ef05e8b0b4e5a1909,14/05/2000,2020-08-13_13h15.18.454,proactive2,2020.1.2,Win32,60,5f341be081b9052c55068110,5f35296f02886047e2a7c488,4,,,,,,megaphone,,,,,,,,,,,2,1,0,54,54,12,1,,,,,,,,,,,,,,,,,,,,,,,,,,,,,,,,,,,,,,,,,,,,,,,,,,,,,,,,,,,,,,,,,,,,,,,,,,,,,,,,,,,,,,,,,,,,,,
,,KIND,2.92523,1,,,,,,stimuli/images/PICTURE_32.png,KIND,5eece05ef05e8b0b4e5a1909,14/05/2000,2020-08-13_13h15.18.454,proactive2,2020.1.2,Win32,60,5f341be081b9052c55068110,5f35296f02886047e2a7c488,4,,,,,,crown,,,,,,,,,,,4,1,0,55,55,35,1,,,,,,,,,,,,,,,,,,,,,,,,,,,,,,,,,,,,,,,,,,,,,,,,,,,,,,,,,,,,,,,,,,,,,,,,,,,,,,,,,,,,,,,,,,,,,,
,,?,0.001685,0,,,,,,stimuli/images/PICTURE_340.png,LETTER,5eece05ef05e8b0b4e5a1909,14/05/2000,2020-08-13_13h15.18.454,proactive2,2020.1.2,Win32,60,5f341be081b9052c55068110,5f35296f02886047e2a7c488,4,,,,,,mirror,,,,,,,,,,,3,1,0,56,56,24,1,,,,,,,,,,,,,,,,,,,,,,,,,,,,,,,,,,,,,,,,,,,,,,,,,,,,,,,,,,,,,,,,,,,,,,,,,,,,,,,,,,,,,,,,,,,,,,
,,?,0.001145,0,,,,,,stimuli/images/PICTURE_296.png,LOTS,5eece05ef05e8b0b4e5a1909,14/05/2000,2020-08-13_13h15.18.454,proactive2,2020.1.2,Win32,60,5f341be081b9052c55068110,5f35296f02886047e2a7c488,4,,,,,,bolt,,,,,,,,,,,1,1,0,57,57,9,1,,,,,,,,,,,,,,,,,,,,,,,,,,,,,,,,,,,,,,,,,,,,,,,,,,,,,,,,,,,,,,,,,,,,,,,,,,,,,,,,,,,,,,,,,,,,,,
,,?,0.001135,0,,,,,,stimuli/images/PICTURE_744.png,WEAPON,5eece05ef05e8b0b4e5a1909,14/05/2000,2020-08-13_13h15.18.454,proactive2,2020.1.2,Win32,60,5f341be081b9052c55068110,5f35296f02886047e2a7c488,4,,,,,,ring,,,,,,,,,,,6,1,0,58,58,50,1,,,,,,,,,,,,,,,,,,,,,,,,,,,,,,,,,,,,,,,,,,,,,,,,,,,,,,,,,,,,,,,,,,,,,,,,,,,,,,,,,,,,,,,,,,,,,,
,,?,2.689665,0,,,,,,stimuli/images/PICTURE_57.png,MOMENT,5eece05ef05e8b0b4e5a1909,14/05/2000,2020-08-13_13h15.18.454,proactive2,2020.1.2,Win32,60,5f341be081b9052c55068110,5f35296f02886047e2a7c488,4,,,,,,stamp,,,,,,,,,,,4,1,0,59,59,37,1,,,,,,,,,,,,,,,,,,,,,,,,,,,,,,,,,,,,,,,,,,,,,,,,,,,,,,,,,,,,,,,,,,,,,,,,,,,,,,,,,,,,,,,,,,,,,,
,,,,,,,,,,,,5eece05ef05e8b0b4e5a1909,14/05/2000,2020-08-13_13h15.18.454,proactive2,2020.1.2,Win32,60,5f341be081b9052c55068110,5f35296f02886047e2a7c488,4,,,,,,,,,,,,,,,,,,,,,,,,0,0,0,1,1,stimuli/learn-block2.csv,,,,,,,,,,,,,,,,,,,,,,,,,,,,,,,,,,,,,,,,,,,,,,,,,,,,,,,,,,,,,,,,,,,,,,,,,,,,,,,,,,,,,,,,
,,,,,,,,,,stimuli/images/PICTURE_509.png,PHOTO,5eece05ef05e8b0b4e5a1909,14/05/2000,2020-08-13_13h15.18.454,proactive2,2020.1.2,Win32,60,5f341be081b9052c55068110,5f35296f02886047e2a7c488,4,,,,,,telephone,,,,,,0,0,0,21,1,3,0,,,,,,,,,,,,,,,,,,,,,,,,,,,,,,,,,,,,,,,,,,,,,,,,,,,,,,,,,,,,,,,,,,,,,,,,,,,,,,,,,,,,,,,,,,,,,,,,,,,
,,,,,,,,,,stimuli/images/PICTURE_68.png,MILE,5eece05ef05e8b0b4e5a1909,14/05/2000,2020-08-13_13h15.18.454,proactive2,2020.1.2,Win32,60,5f341be081b9052c55068110,5f35296f02886047e2a7c488,4,,,,,,candle,,,,,,0,1,1,44,1,5,0,,,,,,,,,,,,,,,,,,,,,,,,,,,,,,,,,,,,,,,,,,,,,,,,,,,,,,,,,,,,,,,,,,,,,,,,,,,,,,,,,,,,,,,,,,,,,,,,,,,
,,,,,,,,,,stimuli/images/PICTURE_32.png,JUNGLE,5eece05ef05e8b0b4e5a1909,14/05/2000,2020-08-13_13h15.18.454,proactive2,2020.1.2,Win32,60,5f341be081b9052c55068110,5f35296f02886047e2a7c488,4,,,,,,crown,,,,,,0,2,2,45,1,5,0,,,,,,,,,,,,,,,,,,,,,,,,,,,,,,,,,,,,,,,,,,,,,,,,,,,,,,,,,,,,,,,,,,,,,,,,,,,,,,,,,,,,,,,,,,,,,,,,,,,
,,,,,,,,,,stimuli/images/PICTURE_487.png,FLIGHT,5eece05ef05e8b0b4e5a1909,14/05/2000,2020-08-13_13h15.18.454,proactive2,2020.1.2,Win32,60,5f341be081b9052c55068110,5f35296f02886047e2a7c488,4,,,,,,basket,,,,,,0,3,3,9,1,1,0,,,,,,,,,,,,,,,,,,,,,,,,,,,,,,,,,,,,,,,,,,,,,,,,,,,,,,,,,,,,,,,,,,,,,,,,,,,,,,,,,,,,,,,,,,,,,,,,,,,
,,,,,,,,,,stimuli/images/PICTURE_327.png,BEAUTY,5eece05ef05e8b0b4e5a1909,14/05/2000,2020-08-13_13h15.18.454,proactive2,2020.1.2,Win32,60,5f341be081b9052c55068110,5f35296f02886047e2a7c488,4,,,,,,helmet,,,,,,0,4,4,48,1,5,0,,,,,,,,,,,,,,,,,,,,,,,,,,,,,,,,,,,,,,,,,,,,,,,,,,,,,,,,,,,,,,,,,,,,,,,,,,,,,,,,,,,,,,,,,,,,,,,,,,,
,,,,,,,,,,stimuli/images/PICTURE_248.png,DOZEN,5eece05ef05e8b0b4e5a1909,14/05/2000,2020-08-13_13h15.18.454,proactive2,2020.1.2,Win32,60,5f341be081b9052c55068110,5f35296f02886047e2a7c488,4,,,,,,cart,,,,,,0,5,5,39,1,4,0,,,,,,,,,,,,,,,,,,,,,,,,,,,,,,,,,,,,,,,,,,,,,,,,,,,,,,,,,,,,,,,,,,,,,,,,,,,,,,,,,,,,,,,,,,,,,,,,,,,
,,,,,,,,,,stimuli/images/PICTURE_339.png,PLENTY,5eece05ef05e8b0b4e5a1909,14/05/2000,2020-08-13_13h15.18.454,proactive2,2020.1.2,Win32,60,5f341be081b9052c55068110,5f35296f02886047e2a7c488,4,,,,,,backpack,,,,,,0,6,6,0,1,1,0,,,,,,,,,,,,,,,,,,,,,,,,,,,,,,,,,,,,,,,,,,,,,,,,,,,,,,,,,,,,,,,,,,,,,,,,,,,,,,,,,,,,,,,,,,,,,,,,,,,
,,,,,,,,,,stimuli/images/PICTURE_123.png,ADVICE,5eece05ef05e8b0b4e5a1909,14/05/2000,2020-08-13_13h15.18.454,proactive2,2020.1.2,Win32,60,5f341be081b9052c55068110,5f35296f02886047e2a7c488,4,,,,,,dart,,,,,,0,7,7,40,1,5,0,,,,,,,,,,,,,,,,,,,,,,,,,,,,,,,,,,,,,,,,,,,,,,,,,,,,,,,,,,,,,,,,,,,,,,,,,,,,,,,,,,,,,,,,,,,,,,,,,,,
,,,,,,,,,,stimuli/images/PICTURE_380.png,DEATH,5eece05ef05e8b0b4e5a1909,14/05/2000,2020-08-13_13h15.18.454,proactive2,2020.1.2,Win32,60,5f341be081b9052c55068110,5f35296f02886047e2a7c488,4,,,,,,gorilla,,,,,,0,8,8,49,1,5,0,,,,,,,,,,,,,,,,,,,,,,,,,,,,,,,,,,,,,,,,,,,,,,,,,,,,,,,,,,,,,,,,,,,,,,,,,,,,,,,,,,,,,,,,,,,,,,,,,,,
,,,,,,,,,,stimuli/images/PICTURE_654.png,VALLEY,5eece05ef05e8b0b4e5a1909,14/05/2000,2020-08-13_13h15.18.454,proactive2,2020.1.2,Win32,60,5f341be081b9052c55068110,5f35296f02886047e2a7c488,4,,,,,,pencil,,,,,,0,9,9,1,1,1,0,,,,,,,,,,,,,,,,,,,,,,,,,,,,,,,,,,,,,,,,,,,,,,,,,,,,,,,,,,,,,,,,,,,,,,,,,,,,,,,,,,,,,,,,,,,,,,,,,,,
,,,,,,,,,,stimuli/images/PICTURE_667.png,PLENTY,5eece05ef05e8b0b4e5a1909,14/05/2000,2020-08-13_13h15.18.454,proactive2,2020.1.2,Win32,60,5f341be081b9052c55068110,5f35296f02886047e2a7c488,4,,,,,,daisy,,,,,,0,10,10,41,1,5,0,,,,,,,,,,,,,,,,,,,,,,,,,,,,,,,,,,,,,,,,,,,,,,,,,,,,,,,,,,,,,,,,,,,,,,,,,,,,,,,,,,,,,,,,,,,,,,,,,,,
,,,,,,,,,,stimuli/images/PICTURE_491.png,ROOF,5eece05ef05e8b0b4e5a1909,14/05/2000,2020-08-13_13h15.18.454,proactive2,2020.1.2,Win32,60,5f341be081b9052c55068110,5f35296f02886047e2a7c488,4,,,,,,rug,,,,,,0,11,11,24,1,3,0,,,,,,,,,,,,,,,,,,,,,,,,,,,,,,,,,,,,,,,,,,,,,,,,,,,,,,,,,,,,,,,,,,,,,,,,,,,,,,,,,,,,,,,,,,,,,,,,,,,
,,,,,,,,,,stimuli/images/PICTURE_302.png,FAMILY,5eece05ef05e8b0b4e5a1909,14/05/2000,2020-08-13_13h15.18.454,proactive2,2020.1.2,Win32,60,5f341be081b9052c55068110,5f35296f02886047e2a7c488,4,,,,,,taxi,,,,,,0,12,12,18,1,2,0,,,,,,,,,,,,,,,,,,,,,,,,,,,,,,,,,,,,,,,,,,,,,,,,,,,,,,,,,,,,,,,,,,,,,,,,,,,,,,,,,,,,,,,,,,,,,,,,,,,
,,,,,,,,,,stimuli/images/PICTURE_160.png,LEADER,5eece05ef05e8b0b4e5a1909,14/05/2000,2020-08-13_13h15.18.454,proactive2,2020.1.2,Win32,60,5f341be081b9052c55068110,5f35296f02886047e2a7c488,4,,,,,,wheelbarrow,,,,,,0,13,13,3,1,1,0,,,,,,,,,,,,,,,,,,,,,,,,,,,,,,,,,,,,,,,,,,,,,,,,,,,,,,,,,,,,,,,,,,,,,,,,,,,,,,,,,,,,,,,,,,,,,,,,,,,
,,,,,,,,,,stimuli/images/PICTURE_675.png,WEAPON,5eece05ef05e8b0b4e5a1909,14/05/2000,2020-08-13_13h15.18.454,proactive2,2020.1.2,Win32,60,5f341be081b9052c55068110,5f35296f02886047e2a7c488,4,,,,,,windmill,,,,,,0,14,14,32,1,4,0,,,,,,,,,,,,,,,,,,,,,,,,,,,,,,,,,,,,,,,,,,,,,,,,,,,,,,,,,,,,,,,,,,,,,,,,,,,,,,,,,,,,,,,,,,,,,,,,,,,
,,,,,,,,,,stimuli/images/PICTURE_255.png,AREA,5eece05ef05e8b0b4e5a1909,14/05/2000,2020-08-13_13h15.18.454,proactive2,2020.1.2,Win32,60,5f341be081b9052c55068110,5f35296f02886047e2a7c488,4,,,,,,shovel,,,,,,0,15,15,22,1,3,0,,,,,,,,,,,,,,,,,,,,,,,,,,,,,,,,,,,,,,,,,,,,,,,,,,,,,,,,,,,,,,,,,,,,,,,,,,,,,,,,,,,,,,,,,,,,,,,,,,,
,,,,,,,,,,stimuli/images/PICTURE_491.png,WRITER,5eece05ef05e8b0b4e5a1909,14/05/2000,2020-08-13_13h15.18.454,proactive2,2020.1.2,Win32,60,5f341be081b9052c55068110,5f35296f02886047e2a7c488,4,,,,,,rug,,,,,,0,16,16,57,1,6,0,,,,,,,,,,,,,,,,,,,,,,,,,,,,,,,,,,,,,,,,,,,,,,,,,,,,,,,,,,,,,,,,,,,,,,,,,,,,,,,,,,,,,,,,,,,,,,,,,,,
,,,,,,,,,,stimuli/images/PICTURE_215.png,PLENTY,5eece05ef05e8b0b4e5a1909,14/05/2000,2020-08-13_13h15.18.454,proactive2,2020.1.2,Win32,60,5f341be081b9052c55068110,5f35296f02886047e2a7c488,4,,,,,,boot,,,,,,0,17,17,37,1,4,0,,,,,,,,,,,,,,,,,,,,,,,,,,,,,,,,,,,,,,,,,,,,,,,,,,,,,,,,,,,,,,,,,,,,,,,,,,,,,,,,,,,,,,,,,,,,,,,,,,,
,,,,,,,,,,stimuli/images/PICTURE_469.png,ARTIST,5eece05ef05e8b0b4e5a1909,14/05/2000,2020-08-13_13h15.18.454,proactive2,2020.1.2,Win32,60,5f341be081b9052c55068110,5f35296f02886047e2a7c488,4,,,,,,stool,,,,,,0,18,18,6,1,1,0,,,,,,,,,,,,,,,,,,,,,,,,,,,,,,,,,,,,,,,,,,,,,,,,,,,,,,,,,,,,,,,,,,,,,,,,,,,,,,,,,,,,,,,,,,,,,,,,,,,
,,,,,,,,,,stimuli/images/PICTURE_453.png,PLENTY,5eece05ef05e8b0b4e5a1909,14/05/2000,2020-08-13_13h15.18.454,proactive2,2020.1.2,Win32,60,5f341be081b9052c55068110,5f35296f02886047e2a7c488,4,,,,,,scissors,,,,,,0,19,19,56,1,6,0,,,,,,,,,,,,,,,,,,,,,,,,,,,,,,,,,,,,,,,,,,,,,,,,,,,,,,,,,,,,,,,,,,,,,,,,,,,,,,,,,,,,,,,,,,,,,,,,,,,
,,,,,,,,,,stimuli/images/PICTURE_744.png,SYSTEM,5eece05ef05e8b0b4e5a1909,14/05/2000,2020-08-13_13h15.18.454,proactive2,2020.1.2,Win32,60,5f341be081b9052c55068110,5f35296f02886047e2a7c488,4,,,,,,ring,,,,,,0,20,20,43,1,5,0,,,,,,,,,,,,,,,,,,,,,,,,,,,,,,,,,,,,,,,,,,,,,,,,,,,,,,,,,,,,,,,,,,,,,,,,,,,,,,,,,,,,,,,,,,,,,,,,,,,
,,,,,,,,,,stimuli/images/PICTURE_314.png,GODS,5eece05ef05e8b0b4e5a1909,14/05/2000,2020-08-13_13h15.18.454,proactive2,2020.1.2,Win32,60,5f341be081b9052c55068110,5f35296f02886047e2a7c488,4,,,,,,perfume,,,,,,0,21,21,11,1,2,0,,,,,,,,,,,,,,,,,,,,,,,,,,,,,,,,,,,,,,,,,,,,,,,,,,,,,,,,,,,,,,,,,,,,,,,,,,,,,,,,,,,,,,,,,,,,,,,,,,,
,,,,,,,,,,stimuli/images/PICTURE_467.png,DEMON,5eece05ef05e8b0b4e5a1909,14/05/2000,2020-08-13_13h15.18.454,proactive2,2020.1.2,Win32,60,5f341be081b9052c55068110,5f35296f02886047e2a7c488,4,,,,,,peg,,,,,,0,22,22,23,1,3,0,,,,,,,,,,,,,,,,,,,,,,,,,,,,,,,,,,,,,,,,,,,,,,,,,,,,,,,,,,,,,,,,,,,,,,,,,,,,,,,,,,,,,,,,,,,,,,,,,,,
,,,,,,,,,,stimuli/images/PICTURE_208.png,LOTS,5eece05ef05e8b0b4e5a1909,14/05/2000,2020-08-13_13h15.18.454,proactive2,2020.1.2,Win32,60,5f341be081b9052c55068110,5f35296f02886047e2a7c488,4,,,,,,microphone,,,,,,0,23,23,10,1,2,0,,,,,,,,,,,,,,,,,,,,,,,,,,,,,,,,,,,,,,,,,,,,,,,,,,,,,,,,,,,,,,,,,,,,,,,,,,,,,,,,,,,,,,,,,,,,,,,,,,,
,,,,,,,,,,stimuli/images/PICTURE_95.png,STYLE,5eece05ef05e8b0b4e5a1909,14/05/2000,2020-08-13_13h15.18.454,proactive2,2020.1.2,Win32,60,5f341be081b9052c55068110,5f35296f02886047e2a7c488,4,,,,,,suitcase,,,,,,0,24,24,25,1,3,0,,,,,,,,,,,,,,,,,,,,,,,,,,,,,,,,,,,,,,,,,,,,,,,,,,,,,,,,,,,,,,,,,,,,,,,,,,,,,,,,,,,,,,,,,,,,,,,,,,,
,,,,,,,,,,stimuli/images/PICTURE_380.png,PHOTO,5eece05ef05e8b0b4e5a1909,14/05/2000,2020-08-13_13h15.18.454,proactive2,2020.1.2,Win32,60,5f341be081b9052c55068110,5f35296f02886047e2a7c488,4,,,,,,gorilla,,,,,,0,25,25,52,1,6,0,,,,,,,,,,,,,,,,,,,,,,,,,,,,,,,,,,,,,,,,,,,,,,,,,,,,,,,,,,,,,,,,,,,,,,,,,,,,,,,,,,,,,,,,,,,,,,,,,,,
,,,,,,,,,,stimuli/images/PICTURE_449.png,THING,5eece05ef05e8b0b4e5a1909,14/05/2000,2020-08-13_13h15.18.454,proactive2,2020.1.2,Win32,60,5f341be081b9052c55068110,5f35296f02886047e2a7c488,4,,,,,,bench,,,,,,0,26,26,59,1,6,0,,,,,,,,,,,,,,,,,,,,,,,,,,,,,,,,,,,,,,,,,,,,,,,,,,,,,,,,,,,,,,,,,,,,,,,,,,,,,,,,,,,,,,,,,,,,,,,,,,,
,,,,,,,,,,stimuli/images/PICTURE_708.png,YARD,5eece05ef05e8b0b4e5a1909,14/05/2000,2020-08-13_13h15.18.454,proactive2,2020.1.2,Win32,60,5f341be081b9052c55068110,5f35296f02886047e2a7c488,4,,,,,,monkey,,,,,,0,27,27,29,1,3,0,,,,,,,,,,,,,,,,,,,,,,,,,,,,,,,,,,,,,,,,,,,,,,,,,,,,,,,,,,,,,,,,,,,,,,,,,,,,,,,,,,,,,,,,,,,,,,,,,,,
,,,,,,,,,,stimuli/images/PICTURE_677.png,MILE,5eece05ef05e8b0b4e5a1909,14/05/2000,2020-08-13_13h15.18.454,proactive2,2020.1.2,Win32,60,5f341be081b9052c55068110,5f35296f02886047e2a7c488,4,,,,,,map,,,,,,0,28,28,30,1,4,0,,,,,,,,,,,,,,,,,,,,,,,,,,,,,,,,,,,,,,,,,,,,,,,,,,,,,,,,,,,,,,,,,,,,,,,,,,,,,,,,,,,,,,,,,,,,,,,,,,,
,,,,,,,,,,stimuli/images/PICTURE_285.png,ADVICE,5eece05ef05e8b0b4e5a1909,14/05/2000,2020-08-13_13h15.18.454,proactive2,2020.1.2,Win32,60,5f341be081b9052c55068110,5f35296f02886047e2a7c488,4,,,,,,carrot,,,,,,0,29,29,12,1,2,0,,,,,,,,,,,,,,,,,,,,,,,,,,,,,,,,,,,,,,,,,,,,,,,,,,,,,,,,,,,,,,,,,,,,,,,,,,,,,,,,,,,,,,,,,,,,,,,,,,,
,,,,,,,,,,stimuli/images/PICTURE_177.png,CARS,5eece05ef05e8b0b4e5a1909,14/05/2000,2020-08-13_13h15.18.454,proactive2,2020.1.2,Win32,60,5f341be081b9052c55068110,5f35296f02886047e2a7c488,4,,,,,,mushroom,,,,,,0,30,30,35,1,4,0,,,,,,,,,,,,,,,,,,,,,,,,,,,,,,,,,,,,,,,,,,,,,,,,,,,,,,,,,,,,,,,,,,,,,,,,,,,,,,,,,,,,,,,,,,,,,,,,,,,
,,,,,,,,,,stimuli/images/PICTURE_667.png,BATH,5eece05ef05e8b0b4e5a1909,14/05/2000,2020-08-13_13h15.18.454,proactive2,2020.1.2,Win32,60,5f341be081b9052c55068110,5f35296f02886047e2a7c488,4,,,,,,daisy,,,,,,0,31,31,4,1,1,0,,,,,,,,,,,,,,,,,,,,,,,,,,,,,,,,,,,,,,,,,,,,,,,,,,,,,,,,,,,,,,,,,,,,,,,,,,,,,,,,,,,,,,,,,,,,,,,,,,,
,,,,,,,,,,stimuli/images/PICTURE_470.png,CASINO,5eece05ef05e8b0b4e5a1909,14/05/2000,2020-08-13_13h15.18.454,proactive2,2020.1.2,Win32,60,5f341be081b9052c55068110,5f35296f02886047e2a7c488,4,,,,,,motorbike,,,,,,0,32,32,36,1,4,0,,,,,,,,,,,,,,,,,,,,,,,,,,,,,,,,,,,,,,,,,,,,,,,,,,,,,,,,,,,,,,,,,,,,,,,,,,,,,,,,,,,,,,,,,,,,,,,,,,,
,,,,,,,,,,stimuli/images/PICTURE_688.png,WOMEN,5eece05ef05e8b0b4e5a1909,14/05/2000,2020-08-13_13h15.18.454,proactive2,2020.1.2,Win32,60,5f341be081b9052c55068110,5f35296f02886047e2a7c488,4,,,,,,runner,,,,,,0,33,33,14,1,2,0,,,,,,,,,,,,,,,,,,,,,,,,,,,,,,,,,,,,,,,,,,,,,,,,,,,,,,,,,,,,,,,,,,,,,,,,,,,,,,,,,,,,,,,,,,,,,,,,,,,
,,,,,,,,,,stimuli/images/PICTURE_504.png,BODY,5eece05ef05e8b0b4e5a1909,14/05/2000,2020-08-13_13h15.18.454,proactive2,2020.1.2,Win32,60,5f341be081b9052c55068110,5f35296f02886047e2a7c488,4,,,,,,wheel,,,,,,0,34,34,8,1,1,0,,,,,,,,,,,,,,,,,,,,,,,,,,,,,,,,,,,,,,,,,,,,,,,,,,,,,,,,,,,,,,,,,,,,,,,,,,,,,,,,,,,,,,,,,,,,,,,,,,,
,,,,,,,,,,stimuli/images/PICTURE_356.png,DANGER,5eece05ef05e8b0b4e5a1909,14/05/2000,2020-08-13_13h15.18.454,proactive2,2020.1.2,Win32,60,5f341be081b9052c55068110,5f35296f02886047e2a7c488,4,,,,,,pawn,,,,,,0,35,35,55,1,6,0,,,,,,,,,,,,,,,,,,,,,,,,,,,,,,,,,,,,,,,,,,,,,,,,,,,,,,,,,,,,,,,,,,,,,,,,,,,,,,,,,,,,,,,,,,,,,,,,,,,
,,,,,,,,,,stimuli/images/PICTURE_314.png,SAKE,5eece05ef05e8b0b4e5a1909,14/05/2000,2020-08-13_13h15.18.454,proactive2,2020.1.2,Win32,60,5f341be081b9052c55068110,5f35296f02886047e2a7c488,4,,,,,,perfume,,,,,,0,36,36,7,1,1,0,,,,,,,,,,,,,,,,,,,,,,,,,,,,,,,,,,,,,,,,,,,,,,,,,,,,,,,,,,,,,,,,,,,,,,,,,,,,,,,,,,,,,,,,,,,,,,,,,,,
,,,,,,,,,,stimuli/images/PICTURE_151.png,GIRL,5eece05ef05e8b0b4e5a1909,14/05/2000,2020-08-13_13h15.18.454,proactive2,2020.1.2,Win32,60,5f341be081b9052c55068110,5f35296f02886047e2a7c488,4,,,,,,tray,,,,,,0,37,37,19,1,2,0,,,,,,,,,,,,,,,,,,,,,,,,,,,,,,,,,,,,,,,,,,,,,,,,,,,,,,,,,,,,,,,,,,,,,,,,,,,,,,,,,,,,,,,,,,,,,,,,,,,
,,,,,,,,,,stimuli/images/PICTURE_708.png,CLIENT,5eece05ef05e8b0b4e5a1909,14/05/2000,2020-08-13_13h15.18.454,proactive2,2020.1.2,Win32,60,5f341be081b9052c55068110,5f35296f02886047e2a7c488,4,,,,,,monkey,,,,,,0,38,38,5,1,1,0,,,,,,,,,,,,,,,,,,,,,,,,,,,,,,,,,,,,,,,,,,,,,,,,,,,,,,,,,,,,,,,,,,,,,,,,,,,,,,,,,,,,,,,,,,,,,,,,,,,
,,,,,,,,,,stimuli/images/PICTURE_208.png,THING,5eece05ef05e8b0b4e5a1909,14/05/2000,2020-08-13_13h15.18.454,proactive2,2020.1.2,Win32,60,5f341be081b9052c55068110,5f35296f02886047e2a7c488,4,,,,,,microphone,,,,,,0,39,39,47,1,5,0,,,,,,,,,,,,,,,,,,,,,,,,,,,,,,,,,,,,,,,,,,,,,,,,,,,,,,,,,,,,,,,,,,,,,,,,,,,,,,,,,,,,,,,,,,,,,,,,,,,
,,,,,,,,,,stimuli/images/PICTURE_203.png,ARTIST,5eece05ef05e8b0b4e5a1909,14/05/2000,2020-08-13_13h15.18.454,proactive2,2020.1.2,Win32,60,5f341be081b9052c55068110,5f35296f02886047e2a7c488,4,,,,,,cap,,,,,,0,40,40,26,1,3,0,,,,,,,,,,,,,,,,,,,,,,,,,,,,,,,,,,,,,,,,,,,,,,,,,,,,,,,,,,,,,,,,,,,,,,,,,,,,,,,,,,,,,,,,,,,,,,,,,,,
,,,,,,,,,,stimuli/images/PICTURE_233.png,IDEAS,5eece05ef05e8b0b4e5a1909,14/05/2000,2020-08-13_13h15.18.454,proactive2,2020.1.2,Win32,60,5f341be081b9052c55068110,5f35296f02886047e2a7c488,4,,,,,,salt,,,,,,0,41,41,28,1,3,0,,,,,,,,,,,,,,,,,,,,,,,,,,,,,,,,,,,,,,,,,,,,,,,,,,,,,,,,,,,,,,,,,,,,,,,,,,,,,,,,,,,,,,,,,,,,,,,,,,,
,,,,,,,,,,stimuli/images/PICTURE_692.png,MONTH,5eece05ef05e8b0b4e5a1909,14/05/2000,2020-08-13_13h15.18.454,proactive2,2020.1.2,Win32,60,5f341be081b9052c55068110,5f35296f02886047e2a7c488,4,,,,,,cherry,,,,,,0,42,42,16,1,2,0,,,,,,,,,,,,,,,,,,,,,,,,,,,,,,,,,,,,,,,,,,,,,,,,,,,,,,,,,,,,,,,,,,,,,,,,,,,,,,,,,,,,,,,,,,,,,,,,,,,
,,,,,,,,,,stimuli/images/PICTURE_348.png,SPEECH,5eece05ef05e8b0b4e5a1909,14/05/2000,2020-08-13_13h15.18.454,proactive2,2020.1.2,Win32,60,5f341be081b9052c55068110,5f35296f02886047e2a7c488,4,,,,,,pepper,,,,,,0,43,43,20,1,3,0,,,,,,,,,,,,,,,,,,,,,,,,,,,,,,,,,,,,,,,,,,,,,,,,,,,,,,,,,,,,,,,,,,,,,,,,,,,,,,,,,,,,,,,,,,,,,,,,,,,
,,,,,,,,,,stimuli/images/PICTURE_85.png,THING,5eece05ef05e8b0b4e5a1909,14/05/2000,2020-08-13_13h15.18.454,proactive2,2020.1.2,Win32,60,5f341be081b9052c55068110,5f35296f02886047e2a7c488,4,,,,,,diamond,,,,,,0,44,44,15,1,2,0,,,,,,,,,,,,,,,,,,,,,,,,,,,,,,,,,,,,,,,,,,,,,,,,,,,,,,,,,,,,,,,,,,,,,,,,,,,,,,,,,,,,,,,,,,,,,,,,,,,
,,,,,,,,,,stimuli/images/PICTURE_311.png,BEAUTY,5eece05ef05e8b0b4e5a1909,14/05/2000,2020-08-13_13h15.18.454,proactive2,2020.1.2,Win32,60,5f341be081b9052c55068110,5f35296f02886047e2a7c488,4,,,,,,razor,,,,,,0,45,45,13,1,2,0,,,,,,,,,,,,,,,,,,,,,,,,,,,,,,,,,,,,,,,,,,,,,,,,,,,,,,,,,,,,,,,,,,,,,,,,,,,,,,,,,,,,,,,,,,,,,,,,,,,
,,,,,,,,,,stimuli/images/PICTURE_708.png,PENNY,5eece05ef05e8b0b4e5a1909,14/05/2000,2020-08-13_13h15.18.454,proactive2,2020.1.2,Win32,60,5f341be081b9052c55068110,5f35296f02886047e2a7c488,4,,,,,,monkey,,,,,,0,46,46,31,1,4,0,,,,,,,,,,,,,,,,,,,,,,,,,,,,,,,,,,,,,,,,,,,,,,,,,,,,,,,,,,,,,,,,,,,,,,,,,,,,,,,,,,,,,,,,,,,,,,,,,,,
,,,,,,,,,,stimuli/images/PICTURE_311.png,FRIEND,5eece05ef05e8b0b4e5a1909,14/05/2000,2020-08-13_13h15.18.454,proactive2,2020.1.2,Win32,60,5f341be081b9052c55068110,5f35296f02886047e2a7c488,4,,,,,,razor,,,,,,0,47,47,34,1,4,0,,,,,,,,,,,,,,,,,,,,,,,,,,,,,,,,,,,,,,,,,,,,,,,,,,,,,,,,,,,,,,,,,,,,,,,,,,,,,,,,,,,,,,,,,,,,,,,,,,,
,,,,,,,,,,stimuli/images/PICTURE_123.png,ADVICE,5eece05ef05e8b0b4e5a1909,14/05/2000,2020-08-13_13h15.18.454,proactive2,2020.1.2,Win32,60,5f341be081b9052c55068110,5f35296f02886047e2a7c488,4,,,,,,dart,,,,,,0,48,48,50,1,6,0,,,,,,,,,,,,,,,,,,,,,,,,,,,,,,,,,,,,,,,,,,,,,,,,,,,,,,,,,,,,,,,,,,,,,,,,,,,,,,,,,,,,,,,,,,,,,,,,,,,
,,,,,,,,,,stimuli/images/PICTURE_160.png,FEET,5eece05ef05e8b0b4e5a1909,14/05/2000,2020-08-13_13h15.18.454,proactive2,2020.1.2,Win32,60,5f341be081b9052c55068110,5f35296f02886047e2a7c488,4,,,,,,wheelbarrow,,,,,,0,49,49,58,1,6,0,,,,,,,,,,,,,,,,,,,,,,,,,,,,,,,,,,,,,,,,,,,,,,,,,,,,,,,,,,,,,,,,,,,,,,,,,,,,,,,,,,,,,,,,,,,,,,,,,,,
,,,,,,,,,,stimuli/images/PICTURE_233.png,WOMEN,5eece05ef05e8b0b4e5a1909,14/05/2000,2020-08-13_13h15.18.454,proactive2,2020.1.2,Win32,60,5f341be081b9052c55068110,5f35296f02886047e2a7c488,4,,,,,,salt,,,,,,0,50,50,38,1,4,0,,,,,,,,,,,,,,,,,,,,,,,,,,,,,,,,,,,,,,,,,,,,,,,,,,,,,,,,,,,,,,,,,,,,,,,,,,,,,,,,,,,,,,,,,,,,,,,,,,,
,,,,,,,,,,stimuli/images/PICTURE_308.png,KIND,5eece05ef05e8b0b4e5a1909,14/05/2000,2020-08-13_13h15.18.454,proactive2,2020.1.2,Win32,60,5f341be081b9052c55068110,5f35296f02886047e2a7c488,4,,,,,,dice,,,,,,0,51,51,54,1,6,0,,,,,,,,,,,,,,,,,,,,,,,,,,,,,,,,,,,,,,,,,,,,,,,,,,,,,,,,,,,,,,,,,,,,,,,,,,,,,,,,,,,,,,,,,,,,,,,,,,,
,,,,,,,,,,stimuli/images/PICTURE_147.png,MOMENT,5eece05ef05e8b0b4e5a1909,14/05/2000,2020-08-13_13h15.18.454,proactive2,2020.1.2,Win32,60,5f341be081b9052c55068110,5f35296f02886047e2a7c488,4,,,,,,hanger,,,,,,0,52,52,51,1,6,0,,,,,,,,,,,,,,,,,,,,,,,,,,,,,,,,,,,,,,,,,,,,,,,,,,,,,,,,,,,,,,,,,,,,,,,,,,,,,,,,,,,,,,,,,,,,,,,,,,,
,,,,,,,,,,stimuli/images/PICTURE_208.png,MONTH,5eece05ef05e8b0b4e5a1909,14/05/2000,2020-08-13_13h15.18.454,proactive2,2020.1.2,Win32,60,5f341be081b9052c55068110,5f35296f02886047e2a7c488,4,,,,,,microphone,,,,,,0,53,53,53,1,6,0,,,,,,,,,,,,,,,,,,,,,,,,,,,,,,,,,,,,,,,,,,,,,,,,,,,,,,,,,,,,,,,,,,,,,,,,,,,,,,,,,,,,,,,,,,,,,,,,,,,
,,,,,,,,,,stimuli/images/PICTURE_488.png,STYLE,5eece05ef05e8b0b4e5a1909,14/05/2000,2020-08-13_13h15.18.454,proactive2,2020.1.2,Win32,60,5f341be081b9052c55068110,5f35296f02886047e2a7c488,4,,,,,,sun,,,,,,0,54,54,33,1,4,0,,,,,,,,,,,,,,,,,,,,,,,,,,,,,,,,,,,,,,,,,,,,,,,,,,,,,,,,,,,,,,,,,,,,,,,,,,,,,,,,,,,,,,,,,,,,,,,,,,,
,,,,,,,,,,stimuli/images/PICTURE_453.png,DUDE,5eece05ef05e8b0b4e5a1909,14/05/2000,2020-08-13_13h15.18.454,proactive2,2020.1.2,Win32,60,5f341be081b9052c55068110,5f35296f02886047e2a7c488,4,,,,,,scissors,,,,,,0,55,55,27,1,3,0,,,,,,,,,,,,,,,,,,,,,,,,,,,,,,,,,,,,,,,,,,,,,,,,,,,,,,,,,,,,,,,,,,,,,,,,,,,,,,,,,,,,,,,,,,,,,,,,,,,
,,,,,,,,,,stimuli/images/PICTURE_469.png,LETTER,5eece05ef05e8b0b4e5a1909,14/05/2000,2020-08-13_13h15.18.454,proactive2,2020.1.2,Win32,60,5f341be081b9052c55068110,5f35296f02886047e2a7c488,4,,,,,,stool,,,,,,0,56,56,42,1,5,0,,,,,,,,,,,,,,,,,,,,,,,,,,,,,,,,,,,,,,,,,,,,,,,,,,,,,,,,,,,,,,,,,,,,,,,,,,,,,,,,,,,,,,,,,,,,,,,,,,,
,,,,,,,,,,stimuli/images/PICTURE_688.png,CASINO,5eece05ef05e8b0b4e5a1909,14/05/2000,2020-08-13_13h15.18.454,proactive2,2020.1.2,Win32,60,5f341be081b9052c55068110,5f35296f02886047e2a7c488,4,,,,,,runner,,,,,,0,57,57,2,1,1,0,,,,,,,,,,,,,,,,,,,,,,,,,,,,,,,,,,,,,,,,,,,,,,,,,,,,,,,,,,,,,,,,,,,,,,,,,,,,,,,,,,,,,,,,,,,,,,,,,,,
,,,,,,,,,,stimuli/images/PICTURE_744.png,SAKE,5eece05ef05e8b0b4e5a1909,14/05/2000,2020-08-13_13h15.18.454,proactive2,2020.1.2,Win32,60,5f341be081b9052c55068110,5f35296f02886047e2a7c488,4,,,,,,ring,,,,,,0,58,58,17,1,2,0,,,,,,,,,,,,,,,,,,,,,,,,,,,,,,,,,,,,,,,,,,,,,,,,,,,,,,,,,,,,,,,,,,,,,,,,,,,,,,,,,,,,,,,,,,,,,,,,,,,
,,?,0.00178,0,,,,,,stimuli/images/PICTURE_380.png,PHOTO,5eece05ef05e8b0b4e5a1909,14/05/2000,2020-08-13_13h15.18.454,proactive2,2020.1.2,Win32,60,5f341be081b9052c55068110,5f35296f02886047e2a7c488,4,,,,,,gorilla,,,,,,,,,,,6,0,0,0,0,52,1,,,,,,,,,,,,,,,,,,,,,,,,,,,,,,,,,,,,,,,,,,,,,,,,,,,,,,,,,,,,,,,,,,,,,,,,,,,,,,,,,,,,,,,,,,,,,,
,,?,0.002095,0,,,,,,stimuli/images/PICTURE_708.png,YARD,5eece05ef05e8b0b4e5a1909,14/05/2000,2020-08-13_13h15.18.454,proactive2,2020.1.2,Win32,60,5f341be081b9052c55068110,5f35296f02886047e2a7c488,4,,,,,,monkey,,,,,,,,,,,3,0,0,1,1,29,1,,,,,,,,,,,,,,,,,,,,,,,,,,,,,,,,,,,,,,,,,,,,,,,,,,,,,,,,,,,,,,,,,,,,,,,,,,,,,,,,,,,,,,,,,,,,,,
,,?,0.00107,0,,,,,,stimuli/images/PICTURE_85.png,THING,5eece05ef05e8b0b4e5a1909,14/05/2000,2020-08-13_13h15.18.454,proactive2,2020.1.2,Win32,60,5f341be081b9052c55068110,5f35296f02886047e2a7c488,4,,,,,,diamond,,,,,,,,,,,2,0,0,2,2,15,1,,,,,,,,,,,,,,,,,,,,,,,,,,,,,,,,,,,,,,,,,,,,,,,,,,,,,,,,,,,,,,,,,,,,,,,,,,,,,,,,,,,,,,,,,,,,,,
,,?,0.00104,0,,,,,,stimuli/images/PICTURE_453.png,PLENTY,5eece05ef05e8b0b4e5a1909,14/05/2000,2020-08-13_13h15.18.454,proactive2,2020.1.2,Win32,60,5f341be081b9052c55068110,5f35296f02886047e2a7c488,4,,,,,,scissors,,,,,,,,,,,6,0,0,3,3,56,1,,,,,,,,,,,,,,,,,,,,,,,,,,,,,,,,,,,,,,,,,,,,,,,,,,,,,,,,,,,,,,,,,,,,,,,,,,,,,,,,,,,,,,,,,,,,,,
,,?,0.00138,0,,,,,,stimuli/images/PICTURE_308.png,ESTATE,5eece05ef05e8b0b4e5a1909,14/05/2000,2020-08-13_13h15.18.454,proactive2,2020.1.2,Win32,60,5f341be081b9052c55068110,5f35296f02886047e2a7c488,4,,,,,,dice,,,,,,,,,,,5,0,0,4,4,46,1,,,,,,,,,,,,,,,,,,,,,,,,,,,,,,,,,,,,,,,,,,,,,,,,,,,,,,,,,,,,,,,,,,,,,,,,,,,,,,,,,,,,,,,,,,,,,,
,,?,0.00108,0,,,,,,stimuli/images/PICTURE_314.png,GODS,5eece05ef05e8b0b4e5a1909,14/05/2000,2020-08-13_13h15.18.454,proactive2,2020.1.2,Win32,60,5f341be081b9052c55068110,5f35296f02886047e2a7c488,4,,,,,,perfume,,,,,,,,,,,2,0,0,5,5,11,1,,,,,,,,,,,,,,,,,,,,,,,,,,,,,,,,,,,,,,,,,,,,,,,,,,,,,,,,,,,,,,,,,,,,,,,,,,,,,,,,,,,,,,,,,,,,,,
,,?,0.003595,0,,,,,,stimuli/images/PICTURE_151.png,GIRL,5eece05ef05e8b0b4e5a1909,14/05/2000,2020-08-13_13h15.18.454,proactive2,2020.1.2,Win32,60,5f341be081b9052c55068110,5f35296f02886047e2a7c488,4,,,,,,tray,,,,,,,,,,,2,0,0,6,6,19,1,,,,,,,,,,,,,,,,,,,,,,,,,,,,,,,,,,,,,,,,,,,,,,,,,,,,,,,,,,,,,,,,,,,,,,,,,,,,,,,,,,,,,,,,,,,,,,
,,?,11.632155,0,,,,,,stimuli/images/PICTURE_470.png,CASINO,5eece05ef05e8b0b4e5a1909,14/05/2000,2020-08-13_13h15.18.454,proactive2,2020.1.2,Win32,60,5f341be081b9052c55068110,5f35296f02886047e2a7c488,4,,,,,,motorbike,,,,,,,,,,,4,0,0,7,7,36,1,,,,,,,,,,,,,,,,,,,,,,,,,,,,,,,,,,,,,,,,,,,,,,,,,,,,,,,,,,,,,,,,,,,,,,,,,,,,,,,,,,,,,,,,,,,,,,
,,?,0.00157,0,,,,,,stimuli/images/PICTURE_491.png,WRITER,5eece05ef05e8b0b4e5a1909,14/05/2000,2020-08-13_13h15.18.454,proactive2,2020.1.2,Win32,60,5f341be081b9052c55068110,5f35296f02886047e2a7c488,4,,,,,,rug,,,,,,,,,,,6,0,0,8,8,57,1,,,,,,,,,,,,,,,,,,,,,,,,,,,,,,,,,,,,,,,,,,,,,,,,,,,,,,,,,,,,,,,,,,,,,,,,,,,,,,,,,,,,,,,,,,,,,,
,,?,0.00107,0,,,,,,stimuli/images/PICTURE_491.png,ROOF,5eece05ef05e8b0b4e5a1909,14/05/2000,2020-08-13_13h15.18.454,proactive2,2020.1.2,Win32,60,5f341be081b9052c55068110,5f35296f02886047e2a7c488,4,,,,,,rug,,,,,,,,,,,3,0,0,9,9,24,1,,,,,,,,,,,,,,,,,,,,,,,,,,,,,,,,,,,,,,,,,,,,,,,,,,,,,,,,,,,,,,,,,,,,,,,,,,,,,,,,,,,,,,,,,,,,,,
,,?,0.00096,0,,,,,,stimuli/images/PICTURE_504.png,BODY,5eece05ef05e8b0b4e5a1909,14/05/2000,2020-08-13_13h15.18.454,proactive2,2020.1.2,Win32,60,5f341be081b9052c55068110,5f35296f02886047e2a7c488,4,,,,,,wheel,,,,,,,,,,,1,0,0,10,10,8,1,,,,,,,,,,,,,,,,,,,,,,,,,,,,,,,,,,,,,,,,,,,,,,,,,,,,,,,,,,,,,,,,,,,,,,,,,,,,,,,,,,,,,,,,,,,,,,
,,?,0.001775,0,,,,,,stimuli/images/PICTURE_467.png,DEMON,5eece05ef05e8b0b4e5a1909,14/05/2000,2020-08-13_13h15.18.454,proactive2,2020.1.2,Win32,60,5f341be081b9052c55068110,5f35296f02886047e2a7c488,4,,,,,,peg,,,,,,,,,,,3,0,0,11,11,23,1,,,,,,,,,,,,,,,,,,,,,,,,,,,,,,,,,,,,,,,,,,,,,,,,,,,,,,,,,,,,,,,,,,,,,,,,,,,,,,,,,,,,,,,,,,,,,,
,,?,0.00137,0,,,,,,stimuli/images/PICTURE_487.png,FLIGHT,5eece05ef05e8b0b4e5a1909,14/05/2000,2020-08-13_13h15.18.454,proactive2,2020.1.2,Win32,60,5f341be081b9052c55068110,5f35296f02886047e2a7c488,4,,,,,,basket,,,,,,,,,,,1,0,0,12,12,9,1,,,,,,,,,,,,,,,,,,,,,,,,,,,,,,,,,,,,,,,,,,,,,,,,,,,,,,,,,,,,,,,,,,,,,,,,,,,,,,,,,,,,,,,,,,,,,,
,,?,0.001125,0,,,,,,stimuli/images/PICTURE_688.png,CASINO,5eece05ef05e8b0b4e5a1909,14/05/2000,2020-08-13_13h15.18.454,proactive2,2020.1.2,Win32,60,5f341be081b9052c55068110,5f35296f02886047e2a7c488,4,,,,,,runner,,,,,,,,,,,1,0,0,13,13,2,1,,,,,,,,,,,,,,,,,,,,,,,,,,,,,,,,,,,,,,,,,,,,,,,,,,,,,,,,,,,,,,,,,,,,,,,,,,,,,,,,,,,,,,,,,,,,,,
,,?,0.00112,0,,,,,,stimuli/images/PICTURE_654.png,VALLEY,5eece05ef05e8b0b4e5a1909,14/05/2000,2020-08-13_13h15.18.454,proactive2,2020.1.2,Win32,60,5f341be081b9052c55068110,5f35296f02886047e2a7c488,4,,,,,,pencil,,,,,,,,,,,1,0,0,14,14,1,1,,,,,,,,,,,,,,,,,,,,,,,,,,,,,,,,,,,,,,,,,,,,,,,,,,,,,,,,,,,,,,,,,,,,,,,,,,,,,,,,,,,,,,,,,,,,,,
,,?,0.001035,0,,,,,,stimuli/images/PICTURE_255.png,AREA,5eece05ef05e8b0b4e5a1909,14/05/2000,2020-08-13_13h15.18.454,proactive2,2020.1.2,Win32,60,5f341be081b9052c55068110,5f35296f02886047e2a7c488,4,,,,,,shovel,,,,,,,,,,,3,0,0,15,15,22,1,,,,,,,,,,,,,,,,,,,,,,,,,,,,,,,,,,,,,,,,,,,,,,,,,,,,,,,,,,,,,,,,,,,,,,,,,,,,,,,,,,,,,,,,,,,,,,
,,?,0.000585,0,,,,,,stimuli/images/PICTURE_453.png,DUDE,5eece05ef05e8b0b4e5a1909,14/05/2000,2020-08-13_13h15.18.454,proactive2,2020.1.2,Win32,60,5f341be081b9052c55068110,5f35296f02886047e2a7c488,4,,,,,,scissors,,,,,,,,,,,3,0,0,16,16,27,1,,,,,,,,,,,,,,,,,,,,,,,,,,,,,,,,,,,,,,,,,,,,,,,,,,,,,,,,,,,,,,,,,,,,,,,,,,,,,,,,,,,,,,,,,,,,,,
,,PENNY,10.767715,1,,,,,,stimuli/images/PICTURE_708.png,PENNY,5eece05ef05e8b0b4e5a1909,14/05/2000,2020-08-13_13h15.18.454,proactive2,2020.1.2,Win32,60,5f341be081b9052c55068110,5f35296f02886047e2a7c488,4,,,,,,monkey,,,,,,,,,,,4,0,0,17,17,31,1,,,,,,,,,,,,,,,,,,,,,,,,,,,,,,,,,,,,,,,,,,,,,,,,,,,,,,,,,,,,,,,,,,,,,,,,,,,,,,,,,,,,,,,,,,,,,,
,,?,0.001865,0,,,,,,stimuli/images/PICTURE_356.png,DANGER,5eece05ef05e8b0b4e5a1909,14/05/2000,2020-08-13_13h15.18.454,proactive2,2020.1.2,Win32,60,5f341be081b9052c55068110,5f35296f02886047e2a7c488,4,,,,,,pawn,,,,,,,,,,,6,0,0,18,18,55,1,,,,,,,,,,,,,,,,,,,,,,,,,,,,,,,,,,,,,,,,,,,,,,,,,,,,,,,,,,,,,,,,,,,,,,,,,,,,,,,,,,,,,,,,,,,,,,
,,?,0.001285,0,,,,,,stimuli/images/PICTURE_667.png,BATH,5eece05ef05e8b0b4e5a1909,14/05/2000,2020-08-13_13h15.18.454,proactive2,2020.1.2,Win32,60,5f341be081b9052c55068110,5f35296f02886047e2a7c488,4,,,,,,daisy,,,,,,,,,,,1,0,0,19,19,4,1,,,,,,,,,,,,,,,,,,,,,,,,,,,,,,,,,,,,,,,,,,,,,,,,,,,,,,,,,,,,,,,,,,,,,,,,,,,,,,,,,,,,,,,,,,,,,,
,,STYLE,12.84179,1,,,,,,stimuli/images/PICTURE_488.png,STYLE,5eece05ef05e8b0b4e5a1909,14/05/2000,2020-08-13_13h15.18.454,proactive2,2020.1.2,Win32,60,5f341be081b9052c55068110,5f35296f02886047e2a7c488,4,,,,,,sun,,,,,,,,,,,4,0,0,20,20,33,1,,,,,,,,,,,,,,,,,,,,,,,,,,,,,,,,,,,,,,,,,,,,,,,,,,,,,,,,,,,,,,,,,,,,,,,,,,,,,,,,,,,,,,,,,,,,,,
,,?,0.001545,0,,,,,,stimuli/images/PICTURE_123.png,ADVICE,5eece05ef05e8b0b4e5a1909,14/05/2000,2020-08-13_13h15.18.454,proactive2,2020.1.2,Win32,60,5f341be081b9052c55068110,5f35296f02886047e2a7c488,4,,,,,,dart,,,,,,,,,,,6,0,0,21,21,50,1,,,,,,,,,,,,,,,,,,,,,,,,,,,,,,,,,,,,,,,,,,,,,,,,,,,,,,,,,,,,,,,,,,,,,,,,,,,,,,,,,,,,,,,,,,,,,,
,,?,0.00109,0,,,,,,stimuli/images/PICTURE_348.png,SPEECH,5eece05ef05e8b0b4e5a1909,14/05/2000,2020-08-13_13h15.18.454,proactive2,2020.1.2,Win32,60,5f341be081b9052c55068110,5f35296f02886047e2a7c488,4,,,,,,pepper,,,,,,,,,,,3,0,0,22,22,20,1,,,,,,,,,,,,,,,,,,,,,,,,,,,,,,,,,,,,,,,,,,,,,,,,,,,,,,,,,,,,,,,,,,,,,,,,,,,,,,,,,,,,,,,,,,,,,,
,,?,0.00121,0,,,,,,stimuli/images/PICTURE_688.png,WOMEN,5eece05ef05e8b0b4e5a1909,14/05/2000,2020-08-13_13h15.18.454,proactive2,2020.1.2,Win32,60,5f341be081b9052c55068110,5f35296f02886047e2a7c488,4,,,,,,runner,,,,,,,,,,,2,0,0,23,23,14,1,,,,,,,,,,,,,,,,,,,,,,,,,,,,,,,,,,,,,,,,,,,,,,,,,,,,,,,,,,,,,,,,,,,,,,,,,,,,,,,,,,,,,,,,,,,,,,
,,?,0.001155,0,,,,,,stimuli/images/PICTURE_744.png,SAKE,5eece05ef05e8b0b4e5a1909,14/05/2000,2020-08-13_13h15.18.454,proactive2,2020.1.2,Win32,60,5f341be081b9052c55068110,5f35296f02886047e2a7c488,4,,,,,,ring,,,,,,,,,,,2,0,0,24,24,17,1,,,,,,,,,,,,,,,,,,,,,,,,,,,,,,,,,,,,,,,,,,,,,,,,,,,,,,,,,,,,,,,,,,,,,,,,,,,,,,,,,,,,,,,,,,,,,,
,,?,0.006045,0,,,,,,stimuli/images/PICTURE_147.png,MOMENT,5eece05ef05e8b0b4e5a1909,14/05/2000,2020-08-13_13h15.18.454,proactive2,2020.1.2,Win32,60,5f341be081b9052c55068110,5f35296f02886047e2a7c488,4,,,,,,hanger,,,,,,,,,,,6,0,0,25,25,51,1,,,,,,,,,,,,,,,,,,,,,,,,,,,,,,,,,,,,,,,,,,,,,,,,,,,,,,,,,,,,,,,,,,,,,,,,,,,,,,,,,,,,,,,,,,,,,,
,,?,0.00105,0,,,,,,stimuli/images/PICTURE_469.png,ARTIST,5eece05ef05e8b0b4e5a1909,14/05/2000,2020-08-13_13h15.18.454,proactive2,2020.1.2,Win32,60,5f341be081b9052c55068110,5f35296f02886047e2a7c488,4,,,,,,stool,,,,,,,,,,,1,0,0,26,26,6,1,,,,,,,,,,,,,,,,,,,,,,,,,,,,,,,,,,,,,,,,,,,,,,,,,,,,,,,,,,,,,,,,,,,,,,,,,,,,,,,,,,,,,,,,,,,,,,
,,?,0.001625,0,,,,,,stimuli/images/PICTURE_327.png,BEAUTY,5eece05ef05e8b0b4e5a1909,14/05/2000,2020-08-13_13h15.18.454,proactive2,2020.1.2,Win32,60,5f341be081b9052c55068110,5f35296f02886047e2a7c488,4,,,,,,helmet,,,,,,,,,,,5,0,0,27,27,48,1,,,,,,,,,,,,,,,,,,,,,,,,,,,,,,,,,,,,,,,,,,,,,,,,,,,,,,,,,,,,,,,,,,,,,,,,,,,,,,,,,,,,,,,,,,,,,,
,,WOMEN,7.354345,1,,,,,,stimuli/images/PICTURE_233.png,WOMEN,5eece05ef05e8b0b4e5a1909,14/05/2000,2020-08-13_13h15.18.454,proactive2,2020.1.2,Win32,60,5f341be081b9052c55068110,5f35296f02886047e2a7c488,4,,,,,,salt,,,,,,,,,,,4,0,0,28,28,38,1,,,,,,,,,,,,,,,,,,,,,,,,,,,,,,,,,,,,,,,,,,,,,,,,,,,,,,,,,,,,,,,,,,,,,,,,,,,,,,,,,,,,,,,,,,,,,,
,,?,0.00173,0,,,,,,stimuli/images/PICTURE_339.png,PLENTY,5eece05ef05e8b0b4e5a1909,14/05/2000,2020-08-13_13h15.18.454,proactive2,2020.1.2,Win32,60,5f341be081b9052c55068110,5f35296f02886047e2a7c488,4,,,,,,backpack,,,,,,,,,,,1,0,0,29,29,0,1,,,,,,,,,,,,,,,,,,,,,,,,,,,,,,,,,,,,,,,,,,,,,,,,,,,,,,,,,,,,,,,,,,,,,,,,,,,,,,,,,,,,,,,,,,,,,,
,,?,0.001185,0,,,,,,stimuli/images/PICTURE_469.png,LETTER,5eece05ef05e8b0b4e5a1909,14/05/2000,2020-08-13_13h15.18.454,proactive2,2020.1.2,Win32,60,5f341be081b9052c55068110,5f35296f02886047e2a7c488,4,,,,,,stool,,,,,,,,,,,5,0,0,30,30,42,1,,,,,,,,,,,,,,,,,,,,,,,,,,,,,,,,,,,,,,,,,,,,,,,,,,,,,,,,,,,,,,,,,,,,,,,,,,,,,,,,,,,,,,,,,,,,,,
,,?,0.003445,0,,,,,,stimuli/images/PICTURE_314.png,SAKE,5eece05ef05e8b0b4e5a1909,14/05/2000,2020-08-13_13h15.18.454,proactive2,2020.1.2,Win32,60,5f341be081b9052c55068110,5f35296f02886047e2a7c488,4,,,,,,perfume,,,,,,,,,,,1,0,0,31,31,7,1,,,,,,,,,,,,,,,,,,,,,,,,,,,,,,,,,,,,,,,,,,,,,,,,,,,,,,,,,,,,,,,,,,,,,,,,,,,,,,,,,,,,,,,,,,,,,,
,,?,0.001005,0,,,,,,stimuli/images/PICTURE_285.png,ADVICE,5eece05ef05e8b0b4e5a1909,14/05/2000,2020-08-13_13h15.18.454,proactive2,2020.1.2,Win32,60,5f341be081b9052c55068110,5f35296f02886047e2a7c488,4,,,,,,carrot,,,,,,,,,,,2,0,0,32,32,12,1,,,,,,,,,,,,,,,,,,,,,,,,,,,,,,,,,,,,,,,,,,,,,,,,,,,,,,,,,,,,,,,,,,,,,,,,,,,,,,,,,,,,,,,,,,,,,,
,,RALLY,10.332575,0,,,,,,stimuli/images/PICTURE_248.png,DOZEN,5eece05ef05e8b0b4e5a1909,14/05/2000,2020-08-13_13h15.18.454,proactive2,2020.1.2,Win32,60,5f341be081b9052c55068110,5f35296f02886047e2a7c488,4,,,,,,cart,,,,,,,,,,,4,0,0,33,33,39,1,,,,,,,,,,,,,,,,,,,,,,,,,,,,,,,,,,,,,,,,,,,,,,,,,,,,,,,,,,,,,,,,,,,,,,,,,,,,,,,,,,,,,,,,,,,,,,
,,?,0.001415,0,,,,,,stimuli/images/PICTURE_509.png,PHOTO,5eece05ef05e8b0b4e5a1909,14/05/2000,2020-08-13_13h15.18.454,proactive2,2020.1.2,Win32,60,5f341be081b9052c55068110,5f35296f02886047e2a7c488,4,,,,,,telephone,,,,,,,,,,,3,0,0,34,34,21,1,,,,,,,,,,,,,,,,,,,,,,,,,,,,,,,,,,,,,,,,,,,,,,,,,,,,,,,,,,,,,,,,,,,,,,,,,,,,,,,,,,,,,,,,,,,,,,
,,?,0.00169,0,,,,,,stimuli/images/PICTURE_68.png,MILE,5eece05ef05e8b0b4e5a1909,14/05/2000,2020-08-13_13h15.18.454,proactive2,2020.1.2,Win32,60,5f341be081b9052c55068110,5f35296f02886047e2a7c488,4,,,,,,candle,,,,,,,,,,,5,0,0,35,35,44,1,,,,,,,,,,,,,,,,,,,,,,,,,,,,,,,,,,,,,,,,,,,,,,,,,,,,,,,,,,,,,,,,,,,,,,,,,,,,,,,,,,,,,,,,,,,,,,
,,?,0.00173,0,,,,,,stimuli/images/PICTURE_203.png,ARTIST,5eece05ef05e8b0b4e5a1909,14/05/2000,2020-08-13_13h15.18.454,proactive2,2020.1.2,Win32,60,5f341be081b9052c55068110,5f35296f02886047e2a7c488,4,,,,,,cap,,,,,,,,,,,3,0,0,36,36,26,1,,,,,,,,,,,,,,,,,,,,,,,,,,,,,,,,,,,,,,,,,,,,,,,,,,,,,,,,,,,,,,,,,,,,,,,,,,,,,,,,,,,,,,,,,,,,,,
,,MAP,1.967105,0,,,,,,stimuli/images/PICTURE_677.png,MILE,5eece05ef05e8b0b4e5a1909,14/05/2000,2020-08-13_13h15.18.454,proactive2,2020.1.2,Win32,60,5f341be081b9052c55068110,5f35296f02886047e2a7c488,4,,,,,,map,,,,,,,,,,,4,0,0,37,37,30,1,,,,,,,,,,,,,,,,,,,,,,,,,,,,,,,,,,,,,,,,,,,,,,,,,,,,,,,,,,,,,,,,,,,,,,,,,,,,,,,,,,,,,,,,,,,,,,
,,?,0.00175,0,,,,,,stimuli/images/PICTURE_449.png,THING,5eece05ef05e8b0b4e5a1909,14/05/2000,2020-08-13_13h15.18.454,proactive2,2020.1.2,Win32,60,5f341be081b9052c55068110,5f35296f02886047e2a7c488,4,,,,,,bench,,,,,,,,,,,6,0,0,38,38,59,1,,,,,,,,,,,,,,,,,,,,,,,,,,,,,,,,,,,,,,,,,,,,,,,,,,,,,,,,,,,,,,,,,,,,,,,,,,,,,,,,,,,,,,,,,,,,,,
,,?,9.04136,0,,,,,,stimuli/images/PICTURE_675.png,WEAPON,5eece05ef05e8b0b4e5a1909,14/05/2000,2020-08-13_13h15.18.454,proactive2,2020.1.2,Win32,60,5f341be081b9052c55068110,5f35296f02886047e2a7c488,4,,,,,,windmill,,,,,,,,,,,4,0,0,39,39,32,1,,,,,,,,,,,,,,,,,,,,,,,,,,,,,,,,,,,,,,,,,,,,,,,,,,,,,,,,,,,,,,,,,,,,,,,,,,,,,,,,,,,,,,,,,,,,,,
,,?,0.001565,0,,,,,,stimuli/images/PICTURE_667.png,PLENTY,5eece05ef05e8b0b4e5a1909,14/05/2000,2020-08-13_13h15.18.454,proactive2,2020.1.2,Win32,60,5f341be081b9052c55068110,5f35296f02886047e2a7c488,4,,,,,,daisy,,,,,,,,,,,5,0,0,40,40,41,1,,,,,,,,,,,,,,,,,,,,,,,,,,,,,,,,,,,,,,,,,,,,,,,,,,,,,,,,,,,,,,,,,,,,,,,,,,,,,,,,,,,,,,,,,,,,,,
,,?,0.001105,0,,,,,,stimuli/images/PICTURE_208.png,LOTS,5eece05ef05e8b0b4e5a1909,14/05/2000,2020-08-13_13h15.18.454,proactive2,2020.1.2,Win32,60,5f341be081b9052c55068110,5f35296f02886047e2a7c488,4,,,,,,microphone,,,,,,,,,,,2,0,0,41,41,10,1,,,,,,,,,,,,,,,,,,,,,,,,,,,,,,,,,,,,,,,,,,,,,,,,,,,,,,,,,,,,,,,,,,,,,,,,,,,,,,,,,,,,,,,,,,,,,,
,,?,0.00125,0,,,,,,stimuli/images/PICTURE_123.png,ADVICE,5eece05ef05e8b0b4e5a1909,14/05/2000,2020-08-13_13h15.18.454,proactive2,2020.1.2,Win32,60,5f341be081b9052c55068110,5f35296f02886047e2a7c488,4,,,,,,dart,,,,,,,,,,,5,0,0,42,42,40,1,,,,,,,,,,,,,,,,,,,,,,,,,,,,,,,,,,,,,,,,,,,,,,,,,,,,,,,,,,,,,,,,,,,,,,,,,,,,,,,,,,,,,,,,,,,,,,
,,?,0.00159,0,,,,,,stimuli/images/PICTURE_208.png,MONTH,5eece05ef05e8b0b4e5a1909,14/05/2000,2020-08-13_13h15.18.454,proactive2,2020.1.2,Win32,60,5f341be081b9052c55068110,5f35296f02886047e2a7c488,4,,,,,,microphone,,,,,,,,,,,6,0,0,43,43,53,1,,,,,,,,,,,,,,,,,,,,,,,,,,,,,,,,,,,,,,,,,,,,,,,,,,,,,,,,,,,,,,,,,,,,,,,,,,,,,,,,,,,,,,,,,,,,,,
,,?,0.001775,0,,,,,,stimuli/images/PICTURE_380.png,DEATH,5eece05ef05e8b0b4e5a1909,14/05/2000,2020-08-13_13h15.18.454,proactive2,2020.1.2,Win32,60,5f341be081b9052c55068110,5f35296f02886047e2a7c488,4,,,,,,gorilla,,,,,,,,,,,5,0,0,44,44,49,1,,,,,,,,,,,,,,,,,,,,,,,,,,,,,,,,,,,,,,,,,,,,,,,,,,,,,,,,,,,,,,,,,,,,,,,,,,,,,,,,,,,,,,,,,,,,,,
,,?,0.00142,0,,,,,,stimuli/images/PICTURE_308.png,KIND,5eece05ef05e8b0b4e5a1909,14/05/2000,2020-08-13_13h15.18.454,proactive2,2020.1.2,Win32,60,5f341be081b9052c55068110,5f35296f02886047e2a7c488,4,,,,,,dice,,,,,,,,,,,6,0,0,45,45,54,1,,,,,,,,,,,,,,,,,,,,,,,,,,,,,,,,,,,,,,,,,,,,,,,,,,,,,,,,,,,,,,,,,,,,,,,,,,,,,,,,,,,,,,,,,,,,,,
,,?,0.00073,0,,,,,,stimuli/images/PICTURE_708.png,CLIENT,5eece05ef05e8b0b4e5a1909,14/05/2000,2020-08-13_13h15.18.454,proactive2,2020.1.2,Win32,60,5f341be081b9052c55068110,5f35296f02886047e2a7c488,4,,,,,,monkey,,,,,,,,,,,1,0,0,46,46,5,1,,,,,,,,,,,,,,,,,,,,,,,,,,,,,,,,,,,,,,,,,,,,,,,,,,,,,,,,,,,,,,,,,,,,,,,,,,,,,,,,,,,,,,,,,,,,,,
,,?,0.000735,0,,,,,,stimuli/images/PICTURE_233.png,IDEAS,5eece05ef05e8b0b4e5a1909,14/05/2000,2020-08-13_13h15.18.454,proactive2,2020.1.2,Win32,60,5f341be081b9052c55068110,5f35296f02886047e2a7c488,4,,,,,,salt,,,,,,,,,,,3,0,0,47,47,28,1,,,,,,,,,,,,,,,,,,,,,,,,,,,,,,,,,,,,,,,,,,,,,,,,,,,,,,,,,,,,,,,,,,,,,,,,,,,,,,,,,,,,,,,,,,,,,,
,,?,3.17225,0,,,,,,stimuli/images/PICTURE_215.png,PLENTY,5eece05ef05e8b0b4e5a1909,14/05/2000,2020-08-13_13h15.18.454,proactive2,2020.1.2,Win32,60,5f341be081b9052c55068110,5f35296f02886047e2a7c488,4,,,,,,boot,,,,,,,,,,,4,0,0,48,48,37,1,,,,,,,,,,,,,,,,,,,,,,,,,,,,,,,,,,,,,,,,,,,,,,,,,,,,,,,,,,,,,,,,,,,,,,,,,,,,,,,,,,,,,,,,,,,,,,
,,?,0.88021,0,,,,,,stimuli/images/PICTURE_177.png,CARS,5eece05ef05e8b0b4e5a1909,14/05/2000,2020-08-13_13h15.18.454,proactive2,2020.1.2,Win32,60,5f341be081b9052c55068110,5f35296f02886047e2a7c488,4,,,,,,mushroom,,,,,,,,,,,4,0,0,49,49,35,1,,,,,,,,,,,,,,,,,,,,,,,,,,,,,,,,,,,,,,,,,,,,,,,,,,,,,,,,,,,,,,,,,,,,,,,,,,,,,,,,,,,,,,,,,,,,,,
,,?,0.00124,0,,,,,,stimuli/images/PICTURE_95.png,STYLE,5eece05ef05e8b0b4e5a1909,14/05/2000,2020-08-13_13h15.18.454,proactive2,2020.1.2,Win32,60,5f341be081b9052c55068110,5f35296f02886047e2a7c488,4,,,,,,suitcase,,,,,,,,,,,3,0,0,50,50,25,1,,,,,,,,,,,,,,,,,,,,,,,,,,,,,,,,,,,,,,,,,,,,,,,,,,,,,,,,,,,,,,,,,,,,,,,,,,,,,,,,,,,,,,,,,,,,,,
,,?,0.00095,0,,,,,,stimuli/images/PICTURE_744.png,SYSTEM,5eece05ef05e8b0b4e5a1909,14/05/2000,2020-08-13_13h15.18.454,proactive2,2020.1.2,Win32,60,5f341be081b9052c55068110,5f35296f02886047e2a7c488,4,,,,,,ring,,,,,,,,,,,5,0,0,51,51,43,1,,,,,,,,,,,,,,,,,,,,,,,,,,,,,,,,,,,,,,,,,,,,,,,,,,,,,,,,,,,,,,,,,,,,,,,,,,,,,,,,,,,,,,,,,,,,,,
,,?,0.001115,0,,,,,,stimuli/images/PICTURE_302.png,FAMILY,5eece05ef05e8b0b4e5a1909,14/05/2000,2020-08-13_13h15.18.454,proactive2,2020.1.2,Win32,60,5f341be081b9052c55068110,5f35296f02886047e2a7c488,4,,,,,,taxi,,,,,,,,,,,2,0,0,52,52,18,1,,,,,,,,,,,,,,,,,,,,,,,,,,,,,,,,,,,,,,,,,,,,,,,,,,,,,,,,,,,,,,,,,,,,,,,,,,,,,,,,,,,,,,,,,,,,,,
,,?,0.000945,0,,,,,,stimuli/images/PICTURE_692.png,MONTH,5eece05ef05e8b0b4e5a1909,14/05/2000,2020-08-13_13h15.18.454,proactive2,2020.1.2,Win32,60,5f341be081b9052c55068110,5f35296f02886047e2a7c488,4,,,,,,cherry,,,,,,,,,,,2,0,0,53,53,16,1,,,,,,,,,,,,,,,,,,,,,,,,,,,,,,,,,,,,,,,,,,,,,,,,,,,,,,,,,,,,,,,,,,,,,,,,,,,,,,,,,,,,,,,,,,,,,,
,,?,0.00127,0,,,,,,stimuli/images/PICTURE_32.png,JUNGLE,5eece05ef05e8b0b4e5a1909,14/05/2000,2020-08-13_13h15.18.454,proactive2,2020.1.2,Win32,60,5f341be081b9052c55068110,5f35296f02886047e2a7c488,4,,,,,,crown,,,,,,,,,,,5,0,0,54,54,45,1,,,,,,,,,,,,,,,,,,,,,,,,,,,,,,,,,,,,,,,,,,,,,,,,,,,,,,,,,,,,,,,,,,,,,,,,,,,,,,,,,,,,,,,,,,,,,,
,,FRIEND,5.46866,1,,,,,,stimuli/images/PICTURE_311.png,FRIEND,5eece05ef05e8b0b4e5a1909,14/05/2000,2020-08-13_13h15.18.454,proactive2,2020.1.2,Win32,60,5f341be081b9052c55068110,5f35296f02886047e2a7c488,4,,,,,,razor,,,,,,,,,,,4,0,0,55,55,34,1,,,,,,,,,,,,,,,,,,,,,,,,,,,,,,,,,,,,,,,,,,,,,,,,,,,,,,,,,,,,,,,,,,,,,,,,,,,,,,,,,,,,,,,,,,,,,,
,,?,0.0014,0,,,,,,stimuli/images/PICTURE_311.png,BEAUTY,5eece05ef05e8b0b4e5a1909,14/05/2000,2020-08-13_13h15.18.454,proactive2,2020.1.2,Win32,60,5f341be081b9052c55068110,5f35296f02886047e2a7c488,4,,,,,,razor,,,,,,,,,,,2,0,0,56,56,13,1,,,,,,,,,,,,,,,,,,,,,,,,,,,,,,,,,,,,,,,,,,,,,,,,,,,,,,,,,,,,,,,,,,,,,,,,,,,,,,,,,,,,,,,,,,,,,,
,,?,0.001145,0,,,,,,stimuli/images/PICTURE_160.png,LEADER,5eece05ef05e8b0b4e5a1909,14/05/2000,2020-08-13_13h15.18.454,proactive2,2020.1.2,Win32,60,5f341be081b9052c55068110,5f35296f02886047e2a7c488,4,,,,,,wheelbarrow,,,,,,,,,,,1,0,0,57,57,3,1,,,,,,,,,,,,,,,,,,,,,,,,,,,,,,,,,,,,,,,,,,,,,,,,,,,,,,,,,,,,,,,,,,,,,,,,,,,,,,,,,,,,,,,,,,,,,,
,,?,0.00101,0,,,,,,stimuli/images/PICTURE_208.png,THING,5eece05ef05e8b0b4e5a1909,14/05/2000,2020-08-13_13h15.18.454,proactive2,2020.1.2,Win32,60,5f341be081b9052c55068110,5f35296f02886047e2a7c488,4,,,,,,microphone,,,,,,,,,,,5,0,0,58,58,47,1,,,,,,,,,,,,,,,,,,,,,,,,,,,,,,,,,,,,,,,,,,,,,,,,,,,,,,,,,,,,,,,,,,,,,,,,,,,,,,,,,,,,,,,,,,,,,,
,,?,0.003175,0,,,,,,stimuli/images/PICTURE_160.png,FEET,5eece05ef05e8b0b4e5a1909,14/05/2000,2020-08-13_13h15.18.454,proactive2,2020.1.2,Win32,60,5f341be081b9052c55068110,5f35296f02886047e2a7c488,4,,,,,,wheelbarrow,,,,,,,,,,,6,0,0,59,59,58,1,,,,,,,,,,,,,,,,,,,,,,,,,,,,,,,,,,,,,,,,,,,,,,,,,,,,,,,,,,,,,,,,,,,,,,,,,,,,,,,,,,,,,,,,,,,,,,
,,,,,,,,,,,,5eece05ef05e8b0b4e5a1909,14/05/2000,2020-08-13_13h15.18.454,proactive2,2020.1.2,Win32,60,5f341be081b9052c55068110,5f35296f02886047e2a7c488,4,,,,,,,,,,,,,,,,,,,,,,,,0,1,1,0,1,stimuli/learn-block1.csv,,,,,,,,,,,,,,,,,,,,,,,,,,,,,,,,,,,,,,,,,,,,,,,,,,,,,,,,,,,,,,,,,,,,,,,,,,,,,,,,,,,,,,,,
,,,,,,,,,,stimuli/images/PICTURE_2.png,AREA,5eece05ef05e8b0b4e5a1909,14/05/2000,2020-08-13_13h15.18.454,proactive2,2020.1.2,Win32,60,5f341be081b9052c55068110,5f35296f02886047e2a7c488,4,,,,,,tyre,,,,,,0,0,0,32,1,4,2,,,,,,,,,,,,,,,,,,,,,,,,,,,,,,,,,,,,,,,,,,,,,,,,,,,,,,,,,,,,,,,,,,,,,,,,,,,,,,,,,,,,,,,,,,,,,,,,,,,
,,,,,,,,,,stimuli/images/PICTURE_750.png,POLICY,5eece05ef05e8b0b4e5a1909,14/05/2000,2020-08-13_13h15.18.454,proactive2,2020.1.2,Win32,60,5f341be081b9052c55068110,5f35296f02886047e2a7c488,4,,,,,,kettle,,,,,,0,1,1,44,1,5,2,,,,,,,,,,,,,,,,,,,,,,,,,,,,,,,,,,,,,,,,,,,,,,,,,,,,,,,,,,,,,,,,,,,,,,,,,,,,,,,,,,,,,,,,,,,,,,,,,,,
,,,,,,,,,,stimuli/images/PICTURE_123.png,SALE,5eece05ef05e8b0b4e5a1909,14/05/2000,2020-08-13_13h15.18.454,proactive2,2020.1.2,Win32,60,5f341be081b9052c55068110,5f35296f02886047e2a7c488,4,,,,,,dart,,,,,,0,2,2,8,1,1,2,,,,,,,,,,,,,,,,,,,,,,,,,,,,,,,,,,,,,,,,,,,,,,,,,,,,,,,,,,,,,,,,,,,,,,,,,,,,,,,,,,,,,,,,,,,,,,,,,,,
,,,,,,,,,,stimuli/images/PICTURE_18.png,RIVER,5eece05ef05e8b0b4e5a1909,14/05/2000,2020-08-13_13h15.18.454,proactive2,2020.1.2,Win32,60,5f341be081b9052c55068110,5f35296f02886047e2a7c488,4,,,,,,planet,,,,,,0,3,3,22,1,3,2,,,,,,,,,,,,,,,,,,,,,,,,,,,,,,,,,,,,,,,,,,,,,,,,,,,,,,,,,,,,,,,,,,,,,,,,,,,,,,,,,,,,,,,,,,,,,,,,,,,
,,,,,,,,,,stimuli/images/PICTURE_654.png,COPS,5eece05ef05e8b0b4e5a1909,14/05/2000,2020-08-13_13h15.18.454,proactive2,2020.1.2,Win32,60,5f341be081b9052c55068110,5f35296f02886047e2a7c488,4,,,,,,pencil,,,,,,0,4,4,10,1,2,2,,,,,,,,,,,,,,,,,,,,,,,,,,,,,,,,,,,,,,,,,,,,,,,,,,,,,,,,,,,,,,,,,,,,,,,,,,,,,,,,,,,,,,,,,,,,,,,,,,,
,,,,,,,,,,stimuli/images/PICTURE_470.png,BEAUTY,5eece05ef05e8b0b4e5a1909,14/05/2000,2020-08-13_13h15.18.454,proactive2,2020.1.2,Win32,60,5f341be081b9052c55068110,5f35296f02886047e2a7c488,4,,,,,,motorbike,,,,,,0,5,5,26,1,3,2,,,,,,,,,,,,,,,,,,,,,,,,,,,,,,,,,,,,,,,,,,,,,,,,,,,,,,,,,,,,,,,,,,,,,,,,,,,,,,,,,,,,,,,,,,,,,,,,,,,
,,,,,,,,,,stimuli/images/PICTURE_57.png,NATION,5eece05ef05e8b0b4e5a1909,14/05/2000,2020-08-13_13h15.18.454,proactive2,2020.1.2,Win32,60,5f341be081b9052c55068110,5f35296f02886047e2a7c488,4,,,,,,stamp,,,,,,0,6,6,21,1,3,2,,,,,,,,,,,,,,,,,,,,,,,,,,,,,,,,,,,,,,,,,,,,,,,,,,,,,,,,,,,,,,,,,,,,,,,,,,,,,,,,,,,,,,,,,,,,,,,,,,,
,,,,,,,,,,stimuli/images/PICTURE_208.png,SPIRIT,5eece05ef05e8b0b4e5a1909,14/05/2000,2020-08-13_13h15.18.454,proactive2,2020.1.2,Win32,60,5f341be081b9052c55068110,5f35296f02886047e2a7c488,4,,,,,,microphone,,,,,,0,7,7,28,1,3,2,,,,,,,,,,,,,,,,,,,,,,,,,,,,,,,,,,,,,,,,,,,,,,,,,,,,,,,,,,,,,,,,,,,,,,,,,,,,,,,,,,,,,,,,,,,,,,,,,,,
,,,,,,,,,,stimuli/images/PICTURE_655.png,SALE,5eece05ef05e8b0b4e5a1909,14/05/2000,2020-08-13_13h15.18.454,proactive2,2020.1.2,Win32,60,5f341be081b9052c55068110,5f35296f02886047e2a7c488,4,,,,,,megaphone,,,,,,0,8,8,57,1,6,2,,,,,,,,,,,,,,,,,,,,,,,,,,,,,,,,,,,,,,,,,,,,,,,,,,,,,,,,,,,,,,,,,,,,,,,,,,,,,,,,,,,,,,,,,,,,,,,,,,,
,,,,,,,,,,stimuli/images/PICTURE_311.png,TOILET,5eece05ef05e8b0b4e5a1909,14/05/2000,2020-08-13_13h15.18.454,proactive2,2020.1.2,Win32,60,5f341be081b9052c55068110,5f35296f02886047e2a7c488,4,,,,,,razor,,,,,,0,9,9,54,1,6,2,,,,,,,,,,,,,,,,,,,,,,,,,,,,,,,,,,,,,,,,,,,,,,,,,,,,,,,,,,,,,,,,,,,,,,,,,,,,,,,,,,,,,,,,,,,,,,,,,,,
,,,,,,,,,,stimuli/images/PICTURE_509.png,MILLER,5eece05ef05e8b0b4e5a1909,14/05/2000,2020-08-13_13h15.18.454,proactive2,2020.1.2,Win32,60,5f341be081b9052c55068110,5f35296f02886047e2a7c488,4,,,,,,telephone,,,,,,0,10,10,49,1,5,2,,,,,,,,,,,,,,,,,,,,,,,,,,,,,,,,,,,,,,,,,,,,,,,,,,,,,,,,,,,,,,,,,,,,,,,,,,,,,,,,,,,,,,,,,,,,,,,,,,,
,,,,,,,,,,stimuli/images/PICTURE_677.png,FAMILY,5eece05ef05e8b0b4e5a1909,14/05/2000,2020-08-13_13h15.18.454,proactive2,2020.1.2,Win32,60,5f341be081b9052c55068110,5f35296f02886047e2a7c488,4,,,,,,map,,,,,,0,11,11,53,1,6,2,,,,,,,,,,,,,,,,,,,,,,,,,,,,,,,,,,,,,,,,,,,,,,,,,,,,,,,,,,,,,,,,,,,,,,,,,,,,,,,,,,,,,,,,,,,,,,,,,,,
,,,,,,,,,,stimuli/images/PICTURE_95.png,NIGHT,5eece05ef05e8b0b4e5a1909,14/05/2000,2020-08-13_13h15.18.454,proactive2,2020.1.2,Win32,60,5f341be081b9052c55068110,5f35296f02886047e2a7c488,4,,,,,,suitcase,,,,,,0,12,12,37,1,4,2,,,,,,,,,,,,,,,,,,,,,,,,,,,,,,,,,,,,,,,,,,,,,,,,,,,,,,,,,,,,,,,,,,,,,,,,,,,,,,,,,,,,,,,,,,,,,,,,,,,
,,,,,,,,,,stimuli/images/PICTURE_348.png,DUDE,5eece05ef05e8b0b4e5a1909,14/05/2000,2020-08-13_13h15.18.454,proactive2,2020.1.2,Win32,60,5f341be081b9052c55068110,5f35296f02886047e2a7c488,4,,,,,,pepper,,,,,,0,13,13,59,1,6,2,,,,,,,,,,,,,,,,,,,,,,,,,,,,,,,,,,,,,,,,,,,,,,,,,,,,,,,,,,,,,,,,,,,,,,,,,,,,,,,,,,,,,,,,,,,,,,,,,,,
,,,,,,,,,,stimuli/images/PICTURE_708.png,VALLEY,5eece05ef05e8b0b4e5a1909,14/05/2000,2020-08-13_13h15.18.454,proactive2,2020.1.2,Win32,60,5f341be081b9052c55068110,5f35296f02886047e2a7c488,4,,,,,,monkey,,,,,,0,14,14,45,1,5,2,,,,,,,,,,,,,,,,,,,,,,,,,,,,,,,,,,,,,,,,,,,,,,,,,,,,,,,,,,,,,,,,,,,,,,,,,,,,,,,,,,,,,,,,,,,,,,,,,,,
,,,,,,,,,,stimuli/images/PICTURE_470.png,MOMENT,5eece05ef05e8b0b4e5a1909,14/05/2000,2020-08-13_13h15.18.454,proactive2,2020.1.2,Win32,60,5f341be081b9052c55068110,5f35296f02886047e2a7c488,4,,,,,,motorbike,,,,,,0,15,15,40,1,5,2,,,,,,,,,,,,,,,,,,,,,,,,,,,,,,,,,,,,,,,,,,,,,,,,,,,,,,,,,,,,,,,,,,,,,,,,,,,,,,,,,,,,,,,,,,,,,,,,,,,
,,,,,,,,,,stimuli/images/PICTURE_32.png,LETTER,5eece05ef05e8b0b4e5a1909,14/05/2000,2020-08-13_13h15.18.454,proactive2,2020.1.2,Win32,60,5f341be081b9052c55068110,5f35296f02886047e2a7c488,4,,,,,,crown,,,,,,0,16,16,56,1,6,2,,,,,,,,,,,,,,,,,,,,,,,,,,,,,,,,,,,,,,,,,,,,,,,,,,,,,,,,,,,,,,,,,,,,,,,,,,,,,,,,,,,,,,,,,,,,,,,,,,,
,,,,,,,,,,stimuli/images/PICTURE_33.png,COPS,5eece05ef05e8b0b4e5a1909,14/05/2000,2020-08-13_13h15.18.454,proactive2,2020.1.2,Win32,60,5f341be081b9052c55068110,5f35296f02886047e2a7c488,4,,,,,,frame,,,,,,0,17,17,29,1,3,2,,,,,,,,,,,,,,,,,,,,,,,,,,,,,,,,,,,,,,,,,,,,,,,,,,,,,,,,,,,,,,,,,,,,,,,,,,,,,,,,,,,,,,,,,,,,,,,,,,,
,,,,,,,,,,stimuli/images/PICTURE_311.png,FLESH,5eece05ef05e8b0b4e5a1909,14/05/2000,2020-08-13_13h15.18.454,proactive2,2020.1.2,Win32,60,5f341be081b9052c55068110,5f35296f02886047e2a7c488,4,,,,,,razor,,,,,,0,18,18,3,1,1,2,,,,,,,,,,,,,,,,,,,,,,,,,,,,,,,,,,,,,,,,,,,,,,,,,,,,,,,,,,,,,,,,,,,,,,,,,,,,,,,,,,,,,,,,,,,,,,,,,,,
,,,,,,,,,,stimuli/images/PICTURE_564.png,PLENTY,5eece05ef05e8b0b4e5a1909,14/05/2000,2020-08-13_13h15.18.454,proactive2,2020.1.2,Win32,60,5f341be081b9052c55068110,5f35296f02886047e2a7c488,4,,,,,,spoon,,,,,,0,19,19,11,1,2,2,,,,,,,,,,,,,,,,,,,,,,,,,,,,,,,,,,,,,,,,,,,,,,,,,,,,,,,,,,,,,,,,,,,,,,,,,,,,,,,,,,,,,,,,,,,,,,,,,,,
,,,,,,,,,,stimuli/images/PICTURE_403.png,FAMILY,5eece05ef05e8b0b4e5a1909,14/05/2000,2020-08-13_13h15.18.454,proactive2,2020.1.2,Win32,60,5f341be081b9052c55068110,5f35296f02886047e2a7c488,4,,,,,,cathedral,,,,,,0,20,20,9,1,1,2,,,,,,,,,,,,,,,,,,,,,,,,,,,,,,,,,,,,,,,,,,,,,,,,,,,,,,,,,,,,,,,,,,,,,,,,,,,,,,,,,,,,,,,,,,,,,,,,,,,
,,,,,,,,,,stimuli/images/PICTURE_692.png,DUDE,5eece05ef05e8b0b4e5a1909,14/05/2000,2020-08-13_13h15.18.454,proactive2,2020.1.2,Win32,60,5f341be081b9052c55068110,5f35296f02886047e2a7c488,4,,,,,,cherry,,,,,,0,21,21,47,1,5,2,,,,,,,,,,,,,,,,,,,,,,,,,,,,,,,,,,,,,,,,,,,,,,,,,,,,,,,,,,,,,,,,,,,,,,,,,,,,,,,,,,,,,,,,,,,,,,,,,,,
,,,,,,,,,,stimuli/images/PICTURE_405.png,JUNGLE,5eece05ef05e8b0b4e5a1909,14/05/2000,2020-08-13_13h15.18.454,proactive2,2020.1.2,Win32,60,5f341be081b9052c55068110,5f35296f02886047e2a7c488,4,,,,,,anchor,,,,,,0,22,22,13,1,2,2,,,,,,,,,,,,,,,,,,,,,,,,,,,,,,,,,,,,,,,,,,,,,,,,,,,,,,,,,,,,,,,,,,,,,,,,,,,,,,,,,,,,,,,,,,,,,,,,,,,
,,,,,,,,,,stimuli/images/PICTURE_255.png,PENNY,5eece05ef05e8b0b4e5a1909,14/05/2000,2020-08-13_13h15.18.454,proactive2,2020.1.2,Win32,60,5f341be081b9052c55068110,5f35296f02886047e2a7c488,4,,,,,,shovel,,,,,,0,23,23,19,1,2,2,,,,,,,,,,,,,,,,,,,,,,,,,,,,,,,,,,,,,,,,,,,,,,,,,,,,,,,,,,,,,,,,,,,,,,,,,,,,,,,,,,,,,,,,,,,,,,,,,,,
,,,,,,,,,,stimuli/images/PICTURE_297.png,BODY,5eece05ef05e8b0b4e5a1909,14/05/2000,2020-08-13_13h15.18.454,proactive2,2020.1.2,Win32,60,5f341be081b9052c55068110,5f35296f02886047e2a7c488,4,,,,,,aeroplane,,,,,,0,24,24,51,1,6,2,,,,,,,,,,,,,,,,,,,,,,,,,,,,,,,,,,,,,,,,,,,,,,,,,,,,,,,,,,,,,,,,,,,,,,,,,,,,,,,,,,,,,,,,,,,,,,,,,,,
,,,,,,,,,,stimuli/images/PICTURE_688.png,CLOCK,5eece05ef05e8b0b4e5a1909,14/05/2000,2020-08-13_13h15.18.454,proactive2,2020.1.2,Win32,60,5f341be081b9052c55068110,5f35296f02886047e2a7c488,4,,,,,,runner,,,,,,0,25,25,42,1,5,2,,,,,,,,,,,,,,,,,,,,,,,,,,,,,,,,,,,,,,,,,,,,,,,,,,,,,,,,,,,,,,,,,,,,,,,,,,,,,,,,,,,,,,,,,,,,,,,,,,,
,,,,,,,,,,stimuli/images/PICTURE_141.png,CLIENT,5eece05ef05e8b0b4e5a1909,14/05/2000,2020-08-13_13h15.18.454,proactive2,2020.1.2,Win32,60,5f341be081b9052c55068110,5f35296f02886047e2a7c488,4,,,,,,sunflower,,,,,,0,26,26,30,1,4,2,,,,,,,,,,,,,,,,,,,,,,,,,,,,,,,,,,,,,,,,,,,,,,,,,,,,,,,,,,,,,,,,,,,,,,,,,,,,,,,,,,,,,,,,,,,,,,,,,,,
,,,,,,,,,,stimuli/images/PICTURE_57.png,CANDY,5eece05ef05e8b0b4e5a1909,14/05/2000,2020-08-13_13h15.18.454,proactive2,2020.1.2,Win32,60,5f341be081b9052c55068110,5f35296f02886047e2a7c488,4,,,,,,stamp,,,,,,0,27,27,52,1,6,2,,,,,,,,,,,,,,,,,,,,,,,,,,,,,,,,,,,,,,,,,,,,,,,,,,,,,,,,,,,,,,,,,,,,,,,,,,,,,,,,,,,,,,,,,,,,,,,,,,,
,,,,,,,,,,stimuli/images/PICTURE_2.png,YARD,5eece05ef05e8b0b4e5a1909,14/05/2000,2020-08-13_13h15.18.454,proactive2,2020.1.2,Win32,60,5f341be081b9052c55068110,5f35296f02886047e2a7c488,4,,,,,,tyre,,,,,,0,28,28,55,1,6,2,,,,,,,,,,,,,,,,,,,,,,,,,,,,,,,,,,,,,,,,,,,,,,,,,,,,,,,,,,,,,,,,,,,,,,,,,,,,,,,,,,,,,,,,,,,,,,,,,,,
,,,,,,,,,,stimuli/images/PICTURE_215.png,LEADER,5eece05ef05e8b0b4e5a1909,14/05/2000,2020-08-13_13h15.18.454,proactive2,2020.1.2,Win32,60,5f341be081b9052c55068110,5f35296f02886047e2a7c488,4,,,,,,boot,,,,,,0,29,29,43,1,5,2,,,,,,,,,,,,,,,,,,,,,,,,,,,,,,,,,,,,,,,,,,,,,,,,,,,,,,,,,,,,,,,,,,,,,,,,,,,,,,,,,,,,,,,,,,,,,,,,,,,
,,,,,,,,,,stimuli/images/PICTURE_453.png,FAMILY,5eece05ef05e8b0b4e5a1909,14/05/2000,2020-08-13_13h15.18.454,proactive2,2020.1.2,Win32,60,5f341be081b9052c55068110,5f35296f02886047e2a7c488,4,,,,,,scissors,,,,,,0,30,30,48,1,5,2,,,,,,,,,,,,,,,,,,,,,,,,,,,,,,,,,,,,,,,,,,,,,,,,,,,,,,,,,,,,,,,,,,,,,,,,,,,,,,,,,,,,,,,,,,,,,,,,,,,
,,,,,,,,,,stimuli/images/PICTURE_509.png,BATH,5eece05ef05e8b0b4e5a1909,14/05/2000,2020-08-13_13h15.18.454,proactive2,2020.1.2,Win32,60,5f341be081b9052c55068110,5f35296f02886047e2a7c488,4,,,,,,telephone,,,,,,0,31,31,15,1,2,2,,,,,,,,,,,,,,,,,,,,,,,,,,,,,,,,,,,,,,,,,,,,,,,,,,,,,,,,,,,,,,,,,,,,,,,,,,,,,,,,,,,,,,,,,,,,,,,,,,,
,,,,,,,,,,stimuli/images/PICTURE_509.png,APPLE,5eece05ef05e8b0b4e5a1909,14/05/2000,2020-08-13_13h15.18.454,proactive2,2020.1.2,Win32,60,5f341be081b9052c55068110,5f35296f02886047e2a7c488,4,,,,,,telephone,,,,,,0,32,32,38,1,4,2,,,,,,,,,,,,,,,,,,,,,,,,,,,,,,,,,,,,,,,,,,,,,,,,,,,,,,,,,,,,,,,,,,,,,,,,,,,,,,,,,,,,,,,,,,,,,,,,,,,
,,,,,,,,,,stimuli/images/PICTURE_491.png,SERIES,5eece05ef05e8b0b4e5a1909,14/05/2000,2020-08-13_13h15.18.454,proactive2,2020.1.2,Win32,60,5f341be081b9052c55068110,5f35296f02886047e2a7c488,4,,,,,,rug,,,,,,0,33,33,39,1,4,2,,,,,,,,,,,,,,,,,,,,,,,,,,,,,,,,,,,,,,,,,,,,,,,,,,,,,,,,,,,,,,,,,,,,,,,,,,,,,,,,,,,,,,,,,,,,,,,,,,,
,,,,,,,,,,stimuli/images/PICTURE_160.png,HOTEL,5eece05ef05e8b0b4e5a1909,14/05/2000,2020-08-13_13h15.18.454,proactive2,2020.1.2,Win32,60,5f341be081b9052c55068110,5f35296f02886047e2a7c488,4,,,,,,wheelbarrow,,,,,,0,34,34,16,1,2,2,,,,,,,,,,,,,,,,,,,,,,,,,,,,,,,,,,,,,,,,,,,,,,,,,,,,,,,,,,,,,,,,,,,,,,,,,,,,,,,,,,,,,,,,,,,,,,,,,,,
,,,,,,,,,,stimuli/images/PICTURE_677.png,PHOTO,5eece05ef05e8b0b4e5a1909,14/05/2000,2020-08-13_13h15.18.454,proactive2,2020.1.2,Win32,60,5f341be081b9052c55068110,5f35296f02886047e2a7c488,4,,,,,,map,,,,,,0,35,35,14,1,2,2,,,,,,,,,,,,,,,,,,,,,,,,,,,,,,,,,,,,,,,,,,,,,,,,,,,,,,,,,,,,,,,,,,,,,,,,,,,,,,,,,,,,,,,,,,,,,,,,,,,
,,,,,,,,,,stimuli/images/PICTURE_452.png,COPS,5eece05ef05e8b0b4e5a1909,14/05/2000,2020-08-13_13h15.18.454,proactive2,2020.1.2,Win32,60,5f341be081b9052c55068110,5f35296f02886047e2a7c488,4,,,,,,watch,,,,,,0,36,36,0,1,1,2,,,,,,,,,,,,,,,,,,,,,,,,,,,,,,,,,,,,,,,,,,,,,,,,,,,,,,,,,,,,,,,,,,,,,,,,,,,,,,,,,,,,,,,,,,,,,,,,,,,
,,,,,,,,,,stimuli/images/PICTURE_314.png,SPEECH,5eece05ef05e8b0b4e5a1909,14/05/2000,2020-08-13_13h15.18.454,proactive2,2020.1.2,Win32,60,5f341be081b9052c55068110,5f35296f02886047e2a7c488,4,,,,,,perfume,,,,,,0,37,37,35,1,4,2,,,,,,,,,,,,,,,,,,,,,,,,,,,,,,,,,,,,,,,,,,,,,,,,,,,,,,,,,,,,,,,,,,,,,,,,,,,,,,,,,,,,,,,,,,,,,,,,,,,
,,,,,,,,,,stimuli/images/PICTURE_504.png,HOUSE,5eece05ef05e8b0b4e5a1909,14/05/2000,2020-08-13_13h15.18.454,proactive2,2020.1.2,Win32,60,5f341be081b9052c55068110,5f35296f02886047e2a7c488,4,,,,,,wheel,,,,,,0,38,38,36,1,4,2,,,,,,,,,,,,,,,,,,,,,,,,,,,,,,,,,,,,,,,,,,,,,,,,,,,,,,,,,,,,,,,,,,,,,,,,,,,,,,,,,,,,,,,,,,,,,,,,,,,
,,,,,,,,,,stimuli/images/PICTURE_487.png,POLICY,5eece05ef05e8b0b4e5a1909,14/05/2000,2020-08-13_13h15.18.454,proactive2,2020.1.2,Win32,60,5f341be081b9052c55068110,5f35296f02886047e2a7c488,4,,,,,,basket,,,,,,0,39,39,34,1,4,2,,,,,,,,,,,,,,,,,,,,,,,,,,,,,,,,,,,,,,,,,,,,,,,,,,,,,,,,,,,,,,,,,,,,,,,,,,,,,,,,,,,,,,,,,,,,,,,,,,,
,,,,,,,,,,stimuli/images/PICTURE_215.png,BOYS,5eece05ef05e8b0b4e5a1909,14/05/2000,2020-08-13_13h15.18.454,proactive2,2020.1.2,Win32,60,5f341be081b9052c55068110,5f35296f02886047e2a7c488,4,,,,,,boot,,,,,,0,40,40,24,1,3,2,,,,,,,,,,,,,,,,,,,,,,,,,,,,,,,,,,,,,,,,,,,,,,,,,,,,,,,,,,,,,,,,,,,,,,,,,,,,,,,,,,,,,,,,,,,,,,,,,,,
,,,,,,,,,,stimuli/images/PICTURE_405.png,JUNGLE,5eece05ef05e8b0b4e5a1909,14/05/2000,2020-08-13_13h15.18.454,proactive2,2020.1.2,Win32,60,5f341be081b9052c55068110,5f35296f02886047e2a7c488,4,,,,,,anchor,,,,,,0,41,41,58,1,6,2,,,,,,,,,,,,,,,,,,,,,,,,,,,,,,,,,,,,,,,,,,,,,,,,,,,,,,,,,,,,,,,,,,,,,,,,,,,,,,,,,,,,,,,,,,,,,,,,,,,
,,,,,,,,,,stimuli/images/PICTURE_177.png,HOUSE,5eece05ef05e8b0b4e5a1909,14/05/2000,2020-08-13_13h15.18.454,proactive2,2020.1.2,Win32,60,5f341be081b9052c55068110,5f35296f02886047e2a7c488,4,,,,,,mushroom,,,,,,0,42,42,25,1,3,2,,,,,,,,,,,,,,,,,,,,,,,,,,,,,,,,,,,,,,,,,,,,,,,,,,,,,,,,,,,,,,,,,,,,,,,,,,,,,,,,,,,,,,,,,,,,,,,,,,,
,,,,,,,,,,stimuli/images/PICTURE_667.png,GLASS,5eece05ef05e8b0b4e5a1909,14/05/2000,2020-08-13_13h15.18.454,proactive2,2020.1.2,Win32,60,5f341be081b9052c55068110,5f35296f02886047e2a7c488,4,,,,,,daisy,,,,,,0,43,43,27,1,3,2,,,,,,,,,,,,,,,,,,,,,,,,,,,,,,,,,,,,,,,,,,,,,,,,,,,,,,,,,,,,,,,,,,,,,,,,,,,,,,,,,,,,,,,,,,,,,,,,,,,
,,,,,,,,,,stimuli/images/PICTURE_215.png,FOOD,5eece05ef05e8b0b4e5a1909,14/05/2000,2020-08-13_13h15.18.454,proactive2,2020.1.2,Win32,60,5f341be081b9052c55068110,5f35296f02886047e2a7c488,4,,,,,,boot,,,,,,0,44,44,5,1,1,2,,,,,,,,,,,,,,,,,,,,,,,,,,,,,,,,,,,,,,,,,,,,,,,,,,,,,,,,,,,,,,,,,,,,,,,,,,,,,,,,,,,,,,,,,,,,,,,,,,,
,,,,,,,,,,stimuli/images/PICTURE_285.png,PRINCE,5eece05ef05e8b0b4e5a1909,14/05/2000,2020-08-13_13h15.18.454,proactive2,2020.1.2,Win32,60,5f341be081b9052c55068110,5f35296f02886047e2a7c488,4,,,,,,carrot,,,,,,0,45,45,20,1,3,2,,,,,,,,,,,,,,,,,,,,,,,,,,,,,,,,,,,,,,,,,,,,,,,,,,,,,,,,,,,,,,,,,,,,,,,,,,,,,,,,,,,,,,,,,,,,,,,,,,,
,,,,,,,,,,stimuli/images/PICTURE_296.png,CLOCK,5eece05ef05e8b0b4e5a1909,14/05/2000,2020-08-13_13h15.18.454,proactive2,2020.1.2,Win32,60,5f341be081b9052c55068110,5f35296f02886047e2a7c488,4,,,,,,bolt,,,,,,0,46,46,18,1,2,2,,,,,,,,,,,,,,,,,,,,,,,,,,,,,,,,,,,,,,,,,,,,,,,,,,,,,,,,,,,,,,,,,,,,,,,,,,,,,,,,,,,,,,,,,,,,,,,,,,,
,,,,,,,,,,stimuli/images/PICTURE_147.png,LEADER,5eece05ef05e8b0b4e5a1909,14/05/2000,2020-08-13_13h15.18.454,proactive2,2020.1.2,Win32,60,5f341be081b9052c55068110,5f35296f02886047e2a7c488,4,,,,,,hanger,,,,,,0,47,47,33,1,4,2,,,,,,,,,,,,,,,,,,,,,,,,,,,,,,,,,,,,,,,,,,,,,,,,,,,,,,,,,,,,,,,,,,,,,,,,,,,,,,,,,,,,,,,,,,,,,,,,,,,
,,,,,,,,,,stimuli/images/PICTURE_57.png,CASINO,5eece05ef05e8b0b4e5a1909,14/05/2000,2020-08-13_13h15.18.454,proactive2,2020.1.2,Win32,60,5f341be081b9052c55068110,5f35296f02886047e2a7c488,4,,,,,,stamp,,,,,,0,48,48,12,1,2,2,,,,,,,,,,,,,,,,,,,,,,,,,,,,,,,,,,,,,,,,,,,,,,,,,,,,,,,,,,,,,,,,,,,,,,,,,,,,,,,,,,,,,,,,,,,,,,,,,,,
,,,,,,,,,,stimuli/images/PICTURE_654.png,YEAR,5eece05ef05e8b0b4e5a1909,14/05/2000,2020-08-13_13h15.18.454,proactive2,2020.1.2,Win32,60,5f341be081b9052c55068110,5f35296f02886047e2a7c488,4,,,,,,pencil,,,,,,0,49,49,41,1,5,2,,,,,,,,,,,,,,,,,,,,,,,,,,,,,,,,,,,,,,,,,,,,,,,,,,,,,,,,,,,,,,,,,,,,,,,,,,,,,,,,,,,,,,,,,,,,,,,,,,,
,,,,,,,,,,stimuli/images/PICTURE_327.png,LEADER,5eece05ef05e8b0b4e5a1909,14/05/2000,2020-08-13_13h15.18.454,proactive2,2020.1.2,Win32,60,5f341be081b9052c55068110,5f35296f02886047e2a7c488,4,,,,,,helmet,,,,,,0,50,50,17,1,2,2,,,,,,,,,,,,,,,,,,,,,,,,,,,,,,,,,,,,,,,,,,,,,,,,,,,,,,,,,,,,,,,,,,,,,,,,,,,,,,,,,,,,,,,,,,,,,,,,,,,
