consent_key.keys,consent_key.rt,recalled,recalled_rt,recall_acc,example_recall.thisRepN,example_recall.thisTrialN,example_recall.thisN,example_recall.thisIndex,example_recall.ran,file,word,participant,please enter your date of birth (dd/mm/yyyy),date,expName,psychopyVersion,OS,frameRate,STUDY_ID,SESSION_ID,list,prac_learn_study_loop.thisRepN,prac_learn_study_loop.thisTrialN,prac_learn_study_loop.thisN,prac_learn_study_loop.thisIndex,prac_learn_study_loop.ran,image,prac_learn_test_loop.thisRepN,prac_learn_test_loop.thisTrialN,prac_learn_test_loop.thisN,prac_learn_test_loop.thisIndex,prac_learn_test_loop.ran,learn_study_loop.thisRepN,learn_study_loop.thisTrialN,learn_study_loop.thisN,learn_study_loop.thisIndex,learn_study_loop.ran,list_no,block_no,learn_test_loop.thisRepN,learn_test_loop.thisTrialN,learn_test_loop.thisN,learn_test_loop.thisIndex,learn_test_loop.ran,learn_blocks.thisRepN,learn_blocks.thisTrialN,learn_blocks.thisN,learn_blocks.thisIndex,learn_blocks.ran,block_csv,key_resp_13.keys,key_resp_13.rt,learn_blocks_loop.thisRepN,learn_blocks_loop.thisTrialN,learn_blocks_loop.thisN,learn_blocks_loop.thisIndex,learn_blocks_loop.ran,final_learn_test.thisRepN,final_learn_test.thisTrialN,final_learn_test.thisN,final_learn_test.thisIndex,final_learn_test.ran,s_im1,s_im2,s_im3,s_im4,s_im5,s_im6,s_im7,s_im8,s_im1pos,s_im2pos,s_im3pos,s_im4pos,s_im5pos,s_im6pos,s_im7pos,s_im8pos,s_tarright,search_resp.keys,search_resp.rt,search_loop.thisRepN,search_loop.thisTrialN,search_loop.thisN,search_loop.thisIndex,search_loop.ran,prac_wm_test_loop.thisRepN,prac_wm_test_loop.thisTrialN,prac_wm_test_loop.thisN,prac_wm_test_loop.thisIndex,prac_wm_test_loop.ran,wm_recalled1,wm_recall_rt1,wm_probed1,wm_recall_acc1,wm_recalled2,wm_recall_rt2,wm_probed2,wm_recall_acc2,wm_recalled3,wm_recall_rt3,wm_probed3,wm_recall_acc3,wm_recalled4,wm_recall_rt4,wm_probed4,wm_recall_acc4,prac_wm_trial_loop.thisRepN,prac_wm_trial_loop.thisTrialN,prac_wm_trial_loop.thisN,prac_wm_trial_loop.thisIndex,prac_wm_trial_loop.ran,word1,image1,file1,item_type1,word2,image2,file2,item_type2,word4,image4,file4,item_type4,word3,image3,file3,item_type3,wm_test_loop.thisRepN,wm_test_loop.thisTrialN,wm_test_loop.thisN,wm_test_loop.thisIndex,wm_test_loop.ran,wm_trial_loop.thisRepN,wm_trial_loop.thisTrialN,wm_trial_loop.thisN,wm_trial_loop.thisIndex,wm_trial_loop.ran
y,32.154955,TOUGH,2.406885,1,0,0,0,0,1,stimuli/images/PICTURE_747.png,TOUGH,5ef089044e663d0ac00def4b,17/07/1994,2020-08-13_12h51.35.245,proactive2,2020.1.2,MacIntel,60,5f341be081b9052c55068110,5f352936681add074646fccb,4,,,,,,,,,,,,,,,,,,,,,,,,,,,,,,,,,,,,,,,,,,,,,,,,,,,,,,,,,,,,,,,,,,,,,,,,,,,,,,,,,,,,,,,,,,,,,,,,,,,,,,,,,,,,,,,,,,,,,
,,,,,,,,,,stimuli/images/PICTURE_727.png,CELL,5ef089044e663d0ac00def4b,17/07/1994,2020-08-13_12h51.35.245,proactive2,2020.1.2,MacIntel,60,5f341be081b9052c55068110,5f352936681add074646fccb,4,0,0,0,1,1,hose,,,,,,,,,,,,,,,,,,,,,,,,,,,,,,,,,,,,,,,,,,,,,,,,,,,,,,,,,,,,,,,,,,,,,,,,,,,,,,,,,,,,,,,,,,,,,,,,,,,,,,,,,,,,,,,
,,,,,,,,,,stimuli/images/PICTURE_697.png,KILLER,5ef089044e663d0ac00def4b,17/07/1994,2020-08-13_12h51.35.245,proactive2,2020.1.2,MacIntel,60,5f341be081b9052c55068110,5f352936681add074646fccb,4,0,1,1,4,1,peach,,,,,,,,,,,,,,,,,,,,,,,,,,,,,,,,,,,,,,,,,,,,,,,,,,,,,,,,,,,,,,,,,,,,,,,,,,,,,,,,,,,,,,,,,,,,,,,,,,,,,,,,,,,,,,,
,,,,,,,,,,stimuli/images/PICTURE_658.png,DEVIL,5ef089044e663d0ac00def4b,17/07/1994,2020-08-13_12h51.35.245,proactive2,2020.1.2,MacIntel,60,5f341be081b9052c55068110,5f352936681add074646fccb,4,0,2,2,3,1,crow,,,,,,,,,,,,,,,,,,,,,,,,,,,,,,,,,,,,,,,,,,,,,,,,,,,,,,,,,,,,,,,,,,,,,,,,,,,,,,,,,,,,,,,,,,,,,,,,,,,,,,,,,,,,,,,
,,,,,,,,,,stimuli/images/PICTURE_269.png,GENIUS,5ef089044e663d0ac00def4b,17/07/1994,2020-08-13_12h51.35.245,proactive2,2020.1.2,MacIntel,60,5f341be081b9052c55068110,5f352936681add074646fccb,4,0,3,3,0,1,chameleon,,,,,,,,,,,,,,,,,,,,,,,,,,,,,,,,,,,,,,,,,,,,,,,,,,,,,,,,,,,,,,,,,,,,,,,,,,,,,,,,,,,,,,,,,,,,,,,,,,,,,,,,,,,,,,,
,,LOSS,2.013665,1,,,,,,stimuli/images/PICTURE_378.png,LOSS,5ef089044e663d0ac00def4b,17/07/1994,2020-08-13_12h51.35.245,proactive2,2020.1.2,MacIntel,60,5f341be081b9052c55068110,5f352936681add074646fccb,4,,,,,,lobster,0,0,0,2,1,,,,,,,,,,,,,,,,,,,,,,,,,,,,,,,,,,,,,,,,,,,,,,,,,,,,,,,,,,,,,,,,,,,,,,,,,,,,,,,,,,,,,,,,,,,,,,,,,,,,,,,,,,
,,GENIUS,2.33429,1,,,,,,stimuli/images/PICTURE_269.png,GENIUS,5ef089044e663d0ac00def4b,17/07/1994,2020-08-13_12h51.35.245,proactive2,2020.1.2,MacIntel,60,5f341be081b9052c55068110,5f352936681add074646fccb,4,,,,,,chameleon,0,1,1,0,1,,,,,,,,,,,,,,,,,,,,,,,,,,,,,,,,,,,,,,,,,,,,,,,,,,,,,,,,,,,,,,,,,,,,,,,,,,,,,,,,,,,,,,,,,,,,,,,,,,,,,,,,,,
,,KILLER,1.615835,0,,,,,,stimuli/images/PICTURE_658.png,DEVIL,5ef089044e663d0ac00def4b,17/07/1994,2020-08-13_12h51.35.245,proactive2,2020.1.2,MacIntel,60,5f341be081b9052c55068110,5f352936681add074646fccb,4,,,,,,crow,0,2,2,3,1,,,,,,,,,,,,,,,,,,,,,,,,,,,,,,,,,,,,,,,,,,,,,,,,,,,,,,,,,,,,,,,,,,,,,,,,,,,,,,,,,,,,,,,,,,,,,,,,,,,,,,,,,,
,,CELL,1.91499,1,,,,,,stimuli/images/PICTURE_727.png,CELL,5ef089044e663d0ac00def4b,17/07/1994,2020-08-13_12h51.35.245,proactive2,2020.1.2,MacIntel,60,5f341be081b9052c55068110,5f352936681add074646fccb,4,,,,,,hose,0,3,3,1,1,,,,,,,,,,,,,,,,,,,,,,,,,,,,,,,,,,,,,,,,,,,,,,,,,,,,,,,,,,,,,,,,,,,,,,,,,,,,,,,,,,,,,,,,,,,,,,,,,,,,,,,,,,
,,KILLER,1.3168,1,,,,,,stimuli/images/PICTURE_697.png,KILLER,5ef089044e663d0ac00def4b,17/07/1994,2020-08-13_12h51.35.245,proactive2,2020.1.2,MacIntel,60,5f341be081b9052c55068110,5f352936681add074646fccb,4,,,,,,peach,0,4,4,4,1,,,,,,,,,,,,,,,,,,,,,,,,,,,,,,,,,,,,,,,,,,,,,,,,,,,,,,,,,,,,,,,,,,,,,,,,,,,,,,,,,,,,,,,,,,,,,,,,,,,,,,,,,,
,,,,,,,,,,stimuli/images/PICTURE_491.png,RIVER,5ef089044e663d0ac00def4b,17/07/1994,2020-08-13_12h51.35.245,proactive2,2020.1.2,MacIntel,60,5f341be081b9052c55068110,5f352936681add074646fccb,4,,,,,,rug,,,,,,0,0,0,6,1,1,1,,,,,,,,,,,,,,,,,,,,,,,,,,,,,,,,,,,,,,,,,,,,,,,,,,,,,,,,,,,,,,,,,,,,,,,,,,,,,,,,,,,,,,,,,,,,,,,,,,,
,,,,,,,,,,stimuli/images/PICTURE_708.png,RECORD,5ef089044e663d0ac00def4b,17/07/1994,2020-08-13_12h51.35.245,proactive2,2020.1.2,MacIntel,60,5f341be081b9052c55068110,5f352936681add074646fccb,4,,,,,,monkey,,,,,,0,1,1,58,1,6,1,,,,,,,,,,,,,,,,,,,,,,,,,,,,,,,,,,,,,,,,,,,,,,,,,,,,,,,,,,,,,,,,,,,,,,,,,,,,,,,,,,,,,,,,,,,,,,,,,,,
,,,,,,,,,,stimuli/images/PICTURE_491.png,GLASS,5ef089044e663d0ac00def4b,17/07/1994,2020-08-13_12h51.35.245,proactive2,2020.1.2,MacIntel,60,5f341be081b9052c55068110,5f352936681add074646fccb,4,,,,,,rug,,,,,,0,2,2,14,1,2,1,,,,,,,,,,,,,,,,,,,,,,,,,,,,,,,,,,,,,,,,,,,,,,,,,,,,,,,,,,,,,,,,,,,,,,,,,,,,,,,,,,,,,,,,,,,,,,,,,,,
,,,,,,,,,,stimuli/images/PICTURE_449.png,DUDE,5ef089044e663d0ac00def4b,17/07/1994,2020-08-13_12h51.35.245,proactive2,2020.1.2,MacIntel,60,5f341be081b9052c55068110,5f352936681add074646fccb,4,,,,,,bench,,,,,,0,3,3,17,1,2,1,,,,,,,,,,,,,,,,,,,,,,,,,,,,,,,,,,,,,,,,,,,,,,,,,,,,,,,,,,,,,,,,,,,,,,,,,,,,,,,,,,,,,,,,,,,,,,,,,,,
,,,,,,,,,,stimuli/images/PICTURE_383.png,SERIES,5ef089044e663d0ac00def4b,17/07/1994,2020-08-13_12h51.35.245,proactive2,2020.1.2,MacIntel,60,5f341be081b9052c55068110,5f352936681add074646fccb,4,,,,,,coin,,,,,,0,4,4,46,1,5,1,,,,,,,,,,,,,,,,,,,,,,,,,,,,,,,,,,,,,,,,,,,,,,,,,,,,,,,,,,,,,,,,,,,,,,,,,,,,,,,,,,,,,,,,,,,,,,,,,,,
,,,,,,,,,,stimuli/images/PICTURE_177.png,WRITER,5ef089044e663d0ac00def4b,17/07/1994,2020-08-13_12h51.35.245,proactive2,2020.1.2,MacIntel,60,5f341be081b9052c55068110,5f352936681add074646fccb,4,,,,,,mushroom,,,,,,0,5,5,41,1,5,1,,,,,,,,,,,,,,,,,,,,,,,,,,,,,,,,,,,,,,,,,,,,,,,,,,,,,,,,,,,,,,,,,,,,,,,,,,,,,,,,,,,,,,,,,,,,,,,,,,,
,,,,,,,,,,stimuli/images/PICTURE_675.png,SALE,5ef089044e663d0ac00def4b,17/07/1994,2020-08-13_12h51.35.245,proactive2,2020.1.2,MacIntel,60,5f341be081b9052c55068110,5f352936681add074646fccb,4,,,,,,windmill,,,,,,0,6,6,47,1,5,1,,,,,,,,,,,,,,,,,,,,,,,,,,,,,,,,,,,,,,,,,,,,,,,,,,,,,,,,,,,,,,,,,,,,,,,,,,,,,,,,,,,,,,,,,,,,,,,,,,,
,,,,,,,,,,stimuli/images/PICTURE_744.png,WEAPON,5ef089044e663d0ac00def4b,17/07/1994,2020-08-13_12h51.35.245,proactive2,2020.1.2,MacIntel,60,5f341be081b9052c55068110,5f352936681add074646fccb,4,,,,,,ring,,,,,,0,7,7,50,1,6,1,,,,,,,,,,,,,,,,,,,,,,,,,,,,,,,,,,,,,,,,,,,,,,,,,,,,,,,,,,,,,,,,,,,,,,,,,,,,,,,,,,,,,,,,,,,,,,,,,,,
,,,,,,,,,,stimuli/images/PICTURE_32.png,PILLS,5ef089044e663d0ac00def4b,17/07/1994,2020-08-13_12h51.35.245,proactive2,2020.1.2,MacIntel,60,5f341be081b9052c55068110,5f352936681add074646fccb,4,,,,,,crown,,,,,,0,8,8,18,1,2,1,,,,,,,,,,,,,,,,,,,,,,,,,,,,,,,,,,,,,,,,,,,,,,,,,,,,,,,,,,,,,,,,,,,,,,,,,,,,,,,,,,,,,,,,,,,,,,,,,,,
,,,,,,,,,,stimuli/images/PICTURE_57.png,MOMENT,5ef089044e663d0ac00def4b,17/07/1994,2020-08-13_12h51.35.245,proactive2,2020.1.2,MacIntel,60,5f341be081b9052c55068110,5f352936681add074646fccb,4,,,,,,stamp,,,,,,0,9,9,37,1,4,1,,,,,,,,,,,,,,,,,,,,,,,,,,,,,,,,,,,,,,,,,,,,,,,,,,,,,,,,,,,,,,,,,,,,,,,,,,,,,,,,,,,,,,,,,,,,,,,,,,,
,,,,,,,,,,stimuli/images/PICTURE_296.png,LOTS,5ef089044e663d0ac00def4b,17/07/1994,2020-08-13_12h51.35.245,proactive2,2020.1.2,MacIntel,60,5f341be081b9052c55068110,5f352936681add074646fccb,4,,,,,,bolt,,,,,,0,10,10,9,1,1,1,,,,,,,,,,,,,,,,,,,,,,,,,,,,,,,,,,,,,,,,,,,,,,,,,,,,,,,,,,,,,,,,,,,,,,,,,,,,,,,,,,,,,,,,,,,,,,,,,,,
,,,,,,,,,,stimuli/images/PICTURE_42.png,BOYS,5ef089044e663d0ac00def4b,17/07/1994,2020-08-13_12h51.35.245,proactive2,2020.1.2,MacIntel,60,5f341be081b9052c55068110,5f352936681add074646fccb,4,,,,,,pear,,,,,,0,11,11,55,1,6,1,,,,,,,,,,,,,,,,,,,,,,,,,,,,,,,,,,,,,,,,,,,,,,,,,,,,,,,,,,,,,,,,,,,,,,,,,,,,,,,,,,,,,,,,,,,,,,,,,,,
,,,,,,,,,,stimuli/images/PICTURE_296.png,LIFE,5ef089044e663d0ac00def4b,17/07/1994,2020-08-13_12h51.35.245,proactive2,2020.1.2,MacIntel,60,5f341be081b9052c55068110,5f352936681add074646fccb,4,,,,,,bolt,,,,,,0,12,12,57,1,6,1,,,,,,,,,,,,,,,,,,,,,,,,,,,,,,,,,,,,,,,,,,,,,,,,,,,,,,,,,,,,,,,,,,,,,,,,,,,,,,,,,,,,,,,,,,,,,,,,,,,
,,,,,,,,,,stimuli/images/PICTURE_340.png,LETTER,5ef089044e663d0ac00def4b,17/07/1994,2020-08-13_12h51.35.245,proactive2,2020.1.2,MacIntel,60,5f341be081b9052c55068110,5f352936681add074646fccb,4,,,,,,mirror,,,,,,0,13,13,24,1,3,1,,,,,,,,,,,,,,,,,,,,,,,,,,,,,,,,,,,,,,,,,,,,,,,,,,,,,,,,,,,,,,,,,,,,,,,,,,,,,,,,,,,,,,,,,,,,,,,,,,,
,,,,,,,,,,stimuli/images/PICTURE_655.png,TOILET,5ef089044e663d0ac00def4b,17/07/1994,2020-08-13_12h51.35.245,proactive2,2020.1.2,MacIntel,60,5f341be081b9052c55068110,5f352936681add074646fccb,4,,,,,,megaphone,,,,,,0,14,14,12,1,2,1,,,,,,,,,,,,,,,,,,,,,,,,,,,,,,,,,,,,,,,,,,,,,,,,,,,,,,,,,,,,,,,,,,,,,,,,,,,,,,,,,,,,,,,,,,,,,,,,,,,
,,,,,,,,,,stimuli/images/PICTURE_403.png,WRITER,5ef089044e663d0ac00def4b,17/07/1994,2020-08-13_12h51.35.245,proactive2,2020.1.2,MacIntel,60,5f341be081b9052c55068110,5f352936681add074646fccb,4,,,,,,cathedral,,,,,,0,15,15,31,1,4,1,,,,,,,,,,,,,,,,,,,,,,,,,,,,,,,,,,,,,,,,,,,,,,,,,,,,,,,,,,,,,,,,,,,,,,,,,,,,,,,,,,,,,,,,,,,,,,,,,,,
,,,,,,,,,,stimuli/images/PICTURE_68.png,MILE,5ef089044e663d0ac00def4b,17/07/1994,2020-08-13_12h51.35.245,proactive2,2020.1.2,MacIntel,60,5f341be081b9052c55068110,5f352936681add074646fccb,4,,,,,,candle,,,,,,0,16,16,51,1,6,1,,,,,,,,,,,,,,,,,,,,,,,,,,,,,,,,,,,,,,,,,,,,,,,,,,,,,,,,,,,,,,,,,,,,,,,,,,,,,,,,,,,,,,,,,,,,,,,,,,,
,,,,,,,,,,stimuli/images/PICTURE_654.png,MONTH,5ef089044e663d0ac00def4b,17/07/1994,2020-08-13_12h51.35.245,proactive2,2020.1.2,MacIntel,60,5f341be081b9052c55068110,5f352936681add074646fccb,4,,,,,,pencil,,,,,,0,17,17,29,1,3,1,,,,,,,,,,,,,,,,,,,,,,,,,,,,,,,,,,,,,,,,,,,,,,,,,,,,,,,,,,,,,,,,,,,,,,,,,,,,,,,,,,,,,,,,,,,,,,,,,,,
,,,,,,,,,,stimuli/images/PICTURE_147.png,WOMEN,5ef089044e663d0ac00def4b,17/07/1994,2020-08-13_12h51.35.245,proactive2,2020.1.2,MacIntel,60,5f341be081b9052c55068110,5f352936681add074646fccb,4,,,,,,hanger,,,,,,0,18,18,7,1,1,1,,,,,,,,,,,,,,,,,,,,,,,,,,,,,,,,,,,,,,,,,,,,,,,,,,,,,,,,,,,,,,,,,,,,,,,,,,,,,,,,,,,,,,,,,,,,,,,,,,,
,,,,,,,,,,stimuli/images/PICTURE_405.png,YEAR,5ef089044e663d0ac00def4b,17/07/1994,2020-08-13_12h51.35.245,proactive2,2020.1.2,MacIntel,60,5f341be081b9052c55068110,5f352936681add074646fccb,4,,,,,,anchor,,,,,,0,19,19,34,1,4,1,,,,,,,,,,,,,,,,,,,,,,,,,,,,,,,,,,,,,,,,,,,,,,,,,,,,,,,,,,,,,,,,,,,,,,,,,,,,,,,,,,,,,,,,,,,,,,,,,,,
,,,,,,,,,,stimuli/images/PICTURE_327.png,CASINO,5ef089044e663d0ac00def4b,17/07/1994,2020-08-13_12h51.35.245,proactive2,2020.1.2,MacIntel,60,5f341be081b9052c55068110,5f352936681add074646fccb,4,,,,,,helmet,,,,,,0,20,20,20,1,3,1,,,,,,,,,,,,,,,,,,,,,,,,,,,,,,,,,,,,,,,,,,,,,,,,,,,,,,,,,,,,,,,,,,,,,,,,,,,,,,,,,,,,,,,,,,,,,,,,,,,
,,,,,,,,,,stimuli/images/PICTURE_203.png,GODS,5ef089044e663d0ac00def4b,17/07/1994,2020-08-13_12h51.35.245,proactive2,2020.1.2,MacIntel,60,5f341be081b9052c55068110,5f352936681add074646fccb,4,,,,,,cap,,,,,,0,21,21,30,1,4,1,,,,,,,,,,,,,,,,,,,,,,,,,,,,,,,,,,,,,,,,,,,,,,,,,,,,,,,,,,,,,,,,,,,,,,,,,,,,,,,,,,,,,,,,,,,,,,,,,,,
,,,,,,,,,,stimuli/images/PICTURE_2.png,FLIGHT,5ef089044e663d0ac00def4b,17/07/1994,2020-08-13_12h51.35.245,proactive2,2020.1.2,MacIntel,60,5f341be081b9052c55068110,5f352936681add074646fccb,4,,,,,,tyre,,,,,,0,22,22,15,1,2,1,,,,,,,,,,,,,,,,,,,,,,,,,,,,,,,,,,,,,,,,,,,,,,,,,,,,,,,,,,,,,,,,,,,,,,,,,,,,,,,,,,,,,,,,,,,,,,,,,,,
,,,,,,,,,,stimuli/images/PICTURE_380.png,CANDY,5ef089044e663d0ac00def4b,17/07/1994,2020-08-13_12h51.35.245,proactive2,2020.1.2,MacIntel,60,5f341be081b9052c55068110,5f352936681add074646fccb,4,,,,,,gorilla,,,,,,0,23,23,0,1,1,1,,,,,,,,,,,,,,,,,,,,,,,,,,,,,,,,,,,,,,,,,,,,,,,,,,,,,,,,,,,,,,,,,,,,,,,,,,,,,,,,,,,,,,,,,,,,,,,,,,,
,,,,,,,,,,stimuli/images/PICTURE_147.png,YEAR,5ef089044e663d0ac00def4b,17/07/1994,2020-08-13_12h51.35.245,proactive2,2020.1.2,MacIntel,60,5f341be081b9052c55068110,5f352936681add074646fccb,4,,,,,,hanger,,,,,,0,24,24,21,1,3,1,,,,,,,,,,,,,,,,,,,,,,,,,,,,,,,,,,,,,,,,,,,,,,,,,,,,,,,,,,,,,,,,,,,,,,,,,,,,,,,,,,,,,,,,,,,,,,,,,,,
,,,,,,,,,,stimuli/images/PICTURE_85.png,NATION,5ef089044e663d0ac00def4b,17/07/1994,2020-08-13_12h51.35.245,proactive2,2020.1.2,MacIntel,60,5f341be081b9052c55068110,5f352936681add074646fccb,4,,,,,,diamond,,,,,,0,25,25,5,1,1,1,,,,,,,,,,,,,,,,,,,,,,,,,,,,,,,,,,,,,,,,,,,,,,,,,,,,,,,,,,,,,,,,,,,,,,,,,,,,,,,,,,,,,,,,,,,,,,,,,,,
,,,,,,,,,,stimuli/images/PICTURE_564.png,BATH,5ef089044e663d0ac00def4b,17/07/1994,2020-08-13_12h51.35.245,proactive2,2020.1.2,MacIntel,60,5f341be081b9052c55068110,5f352936681add074646fccb,4,,,,,,spoon,,,,,,0,26,26,26,1,3,1,,,,,,,,,,,,,,,,,,,,,,,,,,,,,,,,,,,,,,,,,,,,,,,,,,,,,,,,,,,,,,,,,,,,,,,,,,,,,,,,,,,,,,,,,,,,,,,,,,,
,,,,,,,,,,stimuli/images/PICTURE_504.png,COPS,5ef089044e663d0ac00def4b,17/07/1994,2020-08-13_12h51.35.245,proactive2,2020.1.2,MacIntel,60,5f341be081b9052c55068110,5f352936681add074646fccb,4,,,,,,wheel,,,,,,0,27,27,52,1,6,1,,,,,,,,,,,,,,,,,,,,,,,,,,,,,,,,,,,,,,,,,,,,,,,,,,,,,,,,,,,,,,,,,,,,,,,,,,,,,,,,,,,,,,,,,,,,,,,,,,,
,,,,,,,,,,stimuli/images/PICTURE_667.png,RIVER,5ef089044e663d0ac00def4b,17/07/1994,2020-08-13_12h51.35.245,proactive2,2020.1.2,MacIntel,60,5f341be081b9052c55068110,5f352936681add074646fccb,4,,,,,,daisy,,,,,,0,28,28,10,1,2,1,,,,,,,,,,,,,,,,,,,,,,,,,,,,,,,,,,,,,,,,,,,,,,,,,,,,,,,,,,,,,,,,,,,,,,,,,,,,,,,,,,,,,,,,,,,,,,,,,,,
,,,,,,,,,,stimuli/images/PICTURE_340.png,VALLEY,5ef089044e663d0ac00def4b,17/07/1994,2020-08-13_12h51.35.245,proactive2,2020.1.2,MacIntel,60,5f341be081b9052c55068110,5f352936681add074646fccb,4,,,,,,mirror,,,,,,0,29,29,54,1,6,1,,,,,,,,,,,,,,,,,,,,,,,,,,,,,,,,,,,,,,,,,,,,,,,,,,,,,,,,,,,,,,,,,,,,,,,,,,,,,,,,,,,,,,,,,,,,,,,,,,,
,,,,,,,,,,stimuli/images/PICTURE_95.png,BOYS,5ef089044e663d0ac00def4b,17/07/1994,2020-08-13_12h51.35.245,proactive2,2020.1.2,MacIntel,60,5f341be081b9052c55068110,5f352936681add074646fccb,4,,,,,,suitcase,,,,,,0,30,30,1,1,1,1,,,,,,,,,,,,,,,,,,,,,,,,,,,,,,,,,,,,,,,,,,,,,,,,,,,,,,,,,,,,,,,,,,,,,,,,,,,,,,,,,,,,,,,,,,,,,,,,,,,
,,,,,,,,,,stimuli/images/PICTURE_32.png,KIND,5ef089044e663d0ac00def4b,17/07/1994,2020-08-13_12h51.35.245,proactive2,2020.1.2,MacIntel,60,5f341be081b9052c55068110,5f352936681add074646fccb,4,,,,,,crown,,,,,,0,31,31,35,1,4,1,,,,,,,,,,,,,,,,,,,,,,,,,,,,,,,,,,,,,,,,,,,,,,,,,,,,,,,,,,,,,,,,,,,,,,,,,,,,,,,,,,,,,,,,,,,,,,,,,,,
,,,,,,,,,,stimuli/images/PICTURE_504.png,YEAR,5ef089044e663d0ac00def4b,17/07/1994,2020-08-13_12h51.35.245,proactive2,2020.1.2,MacIntel,60,5f341be081b9052c55068110,5f352936681add074646fccb,4,,,,,,wheel,,,,,,0,32,32,13,1,2,1,,,,,,,,,,,,,,,,,,,,,,,,,,,,,,,,,,,,,,,,,,,,,,,,,,,,,,,,,,,,,,,,,,,,,,,,,,,,,,,,,,,,,,,,,,,,,,,,,,,
,,,,,,,,,,stimuli/images/PICTURE_108.png,FLIGHT,5ef089044e663d0ac00def4b,17/07/1994,2020-08-13_12h51.35.245,proactive2,2020.1.2,MacIntel,60,5f341be081b9052c55068110,5f352936681add074646fccb,4,,,,,,calendar,,,,,,0,33,33,59,1,6,1,,,,,,,,,,,,,,,,,,,,,,,,,,,,,,,,,,,,,,,,,,,,,,,,,,,,,,,,,,,,,,,,,,,,,,,,,,,,,,,,,,,,,,,,,,,,,,,,,,,
,,,,,,,,,,stimuli/images/PICTURE_403.png,TOILET,5ef089044e663d0ac00def4b,17/07/1994,2020-08-13_12h51.35.245,proactive2,2020.1.2,MacIntel,60,5f341be081b9052c55068110,5f352936681add074646fccb,4,,,,,,cathedral,,,,,,0,34,34,25,1,3,1,,,,,,,,,,,,,,,,,,,,,,,,,,,,,,,,,,,,,,,,,,,,,,,,,,,,,,,,,,,,,,,,,,,,,,,,,,,,,,,,,,,,,,,,,,,,,,,,,,,
,,,,,,,,,,stimuli/images/PICTURE_327.png,SERIES,5ef089044e663d0ac00def4b,17/07/1994,2020-08-13_12h51.35.245,proactive2,2020.1.2,MacIntel,60,5f341be081b9052c55068110,5f352936681add074646fccb,4,,,,,,helmet,,,,,,0,35,35,3,1,1,1,,,,,,,,,,,,,,,,,,,,,,,,,,,,,,,,,,,,,,,,,,,,,,,,,,,,,,,,,,,,,,,,,,,,,,,,,,,,,,,,,,,,,,,,,,,,,,,,,,,
,,,,,,,,,,stimuli/images/PICTURE_380.png,HONEY,5ef089044e663d0ac00def4b,17/07/1994,2020-08-13_12h51.35.245,proactive2,2020.1.2,MacIntel,60,5f341be081b9052c55068110,5f352936681add074646fccb,4,,,,,,gorilla,,,,,,0,36,36,19,1,2,1,,,,,,,,,,,,,,,,,,,,,,,,,,,,,,,,,,,,,,,,,,,,,,,,,,,,,,,,,,,,,,,,,,,,,,,,,,,,,,,,,,,,,,,,,,,,,,,,,,,
,,,,,,,,,,stimuli/images/PICTURE_685.png,PENNY,5ef089044e663d0ac00def4b,17/07/1994,2020-08-13_12h51.35.245,proactive2,2020.1.2,MacIntel,60,5f341be081b9052c55068110,5f352936681add074646fccb,4,,,,,,goose,,,,,,0,37,37,4,1,1,1,,,,,,,,,,,,,,,,,,,,,,,,,,,,,,,,,,,,,,,,,,,,,,,,,,,,,,,,,,,,,,,,,,,,,,,,,,,,,,,,,,,,,,,,,,,,,,,,,,,
,,,,,,,,,,stimuli/images/PICTURE_108.png,POLICY,5ef089044e663d0ac00def4b,17/07/1994,2020-08-13_12h51.35.245,proactive2,2020.1.2,MacIntel,60,5f341be081b9052c55068110,5f352936681add074646fccb,4,,,,,,calendar,,,,,,0,38,38,22,1,3,1,,,,,,,,,,,,,,,,,,,,,,,,,,,,,,,,,,,,,,,,,,,,,,,,,,,,,,,,,,,,,,,,,,,,,,,,,,,,,,,,,,,,,,,,,,,,,,,,,,,
,,,,,,,,,,stimuli/images/PICTURE_85.png,TOILET,5ef089044e663d0ac00def4b,17/07/1994,2020-08-13_12h51.35.245,proactive2,2020.1.2,MacIntel,60,5f341be081b9052c55068110,5f352936681add074646fccb,4,,,,,,diamond,,,,,,0,39,39,48,1,5,1,,,,,,,,,,,,,,,,,,,,,,,,,,,,,,,,,,,,,,,,,,,,,,,,,,,,,,,,,,,,,,,,,,,,,,,,,,,,,,,,,,,,,,,,,,,,,,,,,,,
,,,,,,,,,,stimuli/images/PICTURE_308.png,FAMILY,5ef089044e663d0ac00def4b,17/07/1994,2020-08-13_12h51.35.245,proactive2,2020.1.2,MacIntel,60,5f341be081b9052c55068110,5f352936681add074646fccb,4,,,,,,dice,,,,,,0,40,40,36,1,4,1,,,,,,,,,,,,,,,,,,,,,,,,,,,,,,,,,,,,,,,,,,,,,,,,,,,,,,,,,,,,,,,,,,,,,,,,,,,,,,,,,,,,,,,,,,,,,,,,,,,
,,,,,,,,,,stimuli/images/PICTURE_504.png,ARTIST,5ef089044e663d0ac00def4b,17/07/1994,2020-08-13_12h51.35.245,proactive2,2020.1.2,MacIntel,60,5f341be081b9052c55068110,5f352936681add074646fccb,4,,,,,,wheel,,,,,,0,41,41,49,1,5,1,,,,,,,,,,,,,,,,,,,,,,,,,,,,,,,,,,,,,,,,,,,,,,,,,,,,,,,,,,,,,,,,,,,,,,,,,,,,,,,,,,,,,,,,,,,,,,,,,,,
,,,,,,,,,,stimuli/images/PICTURE_467.png,POLICY,5ef089044e663d0ac00def4b,17/07/1994,2020-08-13_12h51.35.245,proactive2,2020.1.2,MacIntel,60,5f341be081b9052c55068110,5f352936681add074646fccb,4,,,,,,peg,,,,,,0,42,42,53,1,6,1,,,,,,,,,,,,,,,,,,,,,,,,,,,,,,,,,,,,,,,,,,,,,,,,,,,,,,,,,,,,,,,,,,,,,,,,,,,,,,,,,,,,,,,,,,,,,,,,,,,
,,,,,,,,,,stimuli/images/PICTURE_339.png,CLIENT,5ef089044e663d0ac00def4b,17/07/1994,2020-08-13_12h51.35.245,proactive2,2020.1.2,MacIntel,60,5f341be081b9052c55068110,5f352936681add074646fccb,4,,,,,,backpack,,,,,,0,43,43,11,1,2,1,,,,,,,,,,,,,,,,,,,,,,,,,,,,,,,,,,,,,,,,,,,,,,,,,,,,,,,,,,,,,,,,,,,,,,,,,,,,,,,,,,,,,,,,,,,,,,,,,,,
,,,,,,,,,,stimuli/images/PICTURE_487.png,GIRL,5ef089044e663d0ac00def4b,17/07/1994,2020-08-13_12h51.35.245,proactive2,2020.1.2,MacIntel,60,5f341be081b9052c55068110,5f352936681add074646fccb,4,,,,,,basket,,,,,,0,44,44,45,1,5,1,,,,,,,,,,,,,,,,,,,,,,,,,,,,,,,,,,,,,,,,,,,,,,,,,,,,,,,,,,,,,,,,,,,,,,,,,,,,,,,,,,,,,,,,,,,,,,,,,,,
,,,,,,,,,,stimuli/images/PICTURE_233.png,LOTS,5ef089044e663d0ac00def4b,17/07/1994,2020-08-13_12h51.35.245,proactive2,2020.1.2,MacIntel,60,5f341be081b9052c55068110,5f352936681add074646fccb,4,,,,,,salt,,,,,,0,45,45,42,1,5,1,,,,,,,,,,,,,,,,,,,,,,,,,,,,,,,,,,,,,,,,,,,,,,,,,,,,,,,,,,,,,,,,,,,,,,,,,,,,,,,,,,,,,,,,,,,,,,,,,,,
,,,,,,,,,,stimuli/images/PICTURE_383.png,WRITER,5ef089044e663d0ac00def4b,17/07/1994,2020-08-13_12h51.35.245,proactive2,2020.1.2,MacIntel,60,5f341be081b9052c55068110,5f352936681add074646fccb,4,,,,,,coin,,,,,,0,46,46,28,1,3,1,,,,,,,,,,,,,,,,,,,,,,,,,,,,,,,,,,,,,,,,,,,,,,,,,,,,,,,,,,,,,,,,,,,,,,,,,,,,,,,,,,,,,,,,,,,,,,,,,,,
,,,,,,,,,,stimuli/images/PICTURE_68.png,ROOF,5ef089044e663d0ac00def4b,17/07/1994,2020-08-13_12h51.35.245,proactive2,2020.1.2,MacIntel,60,5f341be081b9052c55068110,5f352936681add074646fccb,4,,,,,,candle,,,,,,0,47,47,38,1,4,1,,,,,,,,,,,,,,,,,,,,,,,,,,,,,,,,,,,,,,,,,,,,,,,,,,,,,,,,,,,,,,,,,,,,,,,,,,,,,,,,,,,,,,,,,,,,,,,,,,,
,,,,,,,,,,stimuli/images/PICTURE_285.png,LIFE,5ef089044e663d0ac00def4b,17/07/1994,2020-08-13_12h51.35.245,proactive2,2020.1.2,MacIntel,60,5f341be081b9052c55068110,5f352936681add074646fccb,4,,,,,,carrot,,,,,,0,48,48,33,1,4,1,,,,,,,,,,,,,,,,,,,,,,,,,,,,,,,,,,,,,,,,,,,,,,,,,,,,,,,,,,,,,,,,,,,,,,,,,,,,,,,,,,,,,,,,,,,,,,,,,,,
,,,,,,,,,,stimuli/images/PICTURE_405.png,PLENTY,5ef089044e663d0ac00def4b,17/07/1994,2020-08-13_12h51.35.245,proactive2,2020.1.2,MacIntel,60,5f341be081b9052c55068110,5f352936681add074646fccb,4,,,,,,anchor,,,,,,0,49,49,23,1,3,1,,,,,,,,,,,,,,,,,,,,,,,,,,,,,,,,,,,,,,,,,,,,,,,,,,,,,,,,,,,,,,,,,,,,,,,,,,,,,,,,,,,,,,,,,,,,,,,,,,,
,,,,,,,,,,stimuli/images/PICTURE_95.png,MILLER,5ef089044e663d0ac00def4b,17/07/1994,2020-08-13_12h51.35.245,proactive2,2020.1.2,MacIntel,60,5f341be081b9052c55068110,5f352936681add074646fccb,4,,,,,,suitcase,,,,,,0,50,50,56,1,6,1,,,,,,,,,,,,,,,,,,,,,,,,,,,,,,,,,,,,,,,,,,,,,,,,,,,,,,,,,,,,,,,,,,,,,,,,,,,,,,,,,,,,,,,,,,,,,,,,,,,
,,,,,,,,,,stimuli/images/PICTURE_297.png,RIVER,5ef089044e663d0ac00def4b,17/07/1994,2020-08-13_12h51.35.245,proactive2,2020.1.2,MacIntel,60,5f341be081b9052c55068110,5f352936681add074646fccb,4,,,,,,aeroplane,,,,,,0,51,51,39,1,4,1,,,,,,,,,,,,,,,,,,,,,,,,,,,,,,,,,,,,,,,,,,,,,,,,,,,,,,,,,,,,,,,,,,,,,,,,,,,,,,,,,,,,,,,,,,,,,,,,,,,
,,,,,,,,,,stimuli/images/PICTURE_95.png,HONEY,5ef089044e663d0ac00def4b,17/07/1994,2020-08-13_12h51.35.245,proactive2,2020.1.2,MacIntel,60,5f341be081b9052c55068110,5f352936681add074646fccb,4,,,,,,suitcase,,,,,,0,52,52,44,1,5,1,,,,,,,,,,,,,,,,,,,,,,,,,,,,,,,,,,,,,,,,,,,,,,,,,,,,,,,,,,,,,,,,,,,,,,,,,,,,,,,,,,,,,,,,,,,,,,,,,,,
,,,,,,,,,,stimuli/images/PICTURE_469.png,AGENT,5ef089044e663d0ac00def4b,17/07/1994,2020-08-13_12h51.35.245,proactive2,2020.1.2,MacIntel,60,5f341be081b9052c55068110,5f352936681add074646fccb,4,,,,,,stool,,,,,,0,53,53,16,1,2,1,,,,,,,,,,,,,,,,,,,,,,,,,,,,,,,,,,,,,,,,,,,,,,,,,,,,,,,,,,,,,,,,,,,,,,,,,,,,,,,,,,,,,,,,,,,,,,,,,,,
,,,,,,,,,,stimuli/images/PICTURE_677.png,APPLE,5ef089044e663d0ac00def4b,17/07/1994,2020-08-13_12h51.35.245,proactive2,2020.1.2,MacIntel,60,5f341be081b9052c55068110,5f352936681add074646fccb,4,,,,,,map,,,,,,0,54,54,43,1,5,1,,,,,,,,,,,,,,,,,,,,,,,,,,,,,,,,,,,,,,,,,,,,,,,,,,,,,,,,,,,,,,,,,,,,,,,,,,,,,,,,,,,,,,,,,,,,,,,,,,,
,,,,,,,,,,stimuli/images/PICTURE_33.png,FRIEND,5ef089044e663d0ac00def4b,17/07/1994,2020-08-13_12h51.35.245,proactive2,2020.1.2,MacIntel,60,5f341be081b9052c55068110,5f352936681add074646fccb,4,,,,,,frame,,,,,,0,55,55,8,1,1,1,,,,,,,,,,,,,,,,,,,,,,,,,,,,,,,,,,,,,,,,,,,,,,,,,,,,,,,,,,,,,,,,,,,,,,,,,,,,,,,,,,,,,,,,,,,,,,,,,,,
,,,,,,,,,,stimuli/images/PICTURE_403.png,RIVER,5ef089044e663d0ac00def4b,17/07/1994,2020-08-13_12h51.35.245,proactive2,2020.1.2,MacIntel,60,5f341be081b9052c55068110,5f352936681add074646fccb,4,,,,,,cathedral,,,,,,0,56,56,40,1,5,1,,,,,,,,,,,,,,,,,,,,,,,,,,,,,,,,,,,,,,,,,,,,,,,,,,,,,,,,,,,,,,,,,,,,,,,,,,,,,,,,,,,,,,,,,,,,,,,,,,,
,,,,,,,,,,stimuli/images/PICTURE_208.png,SYSTEM,5ef089044e663d0ac00def4b,17/07/1994,2020-08-13_12h51.35.245,proactive2,2020.1.2,MacIntel,60,5f341be081b9052c55068110,5f352936681add074646fccb,4,,,,,,microphone,,,,,,0,57,57,32,1,4,1,,,,,,,,,,,,,,,,,,,,,,,,,,,,,,,,,,,,,,,,,,,,,,,,,,,,,,,,,,,,,,,,,,,,,,,,,,,,,,,,,,,,,,,,,,,,,,,,,,,
,,,,,,,,,,stimuli/images/PICTURE_203.png,NIGHT,5ef089044e663d0ac00def4b,17/07/1994,2020-08-13_12h51.35.245,proactive2,2020.1.2,MacIntel,60,5f341be081b9052c55068110,5f352936681add074646fccb,4,,,,,,cap,,,,,,0,58,58,2,1,1,1,,,,,,,,,,,,,,,,,,,,,,,,,,,,,,,,,,,,,,,,,,,,,,,,,,,,,,,,,,,,,,,,,,,,,,,,,,,,,,,,,,,,,,,,,,,,,,,,,,,
,,?,0.00063,0,,,,,,stimuli/images/PICTURE_2.png,FLIGHT,5ef089044e663d0ac00def4b,17/07/1994,2020-08-13_12h51.35.245,proactive2,2020.1.2,MacIntel,60,5f341be081b9052c55068110,5f352936681add074646fccb,4,,,,,,tyre,,,,,,,,,,,2,1,0,0,0,15,1,,,,,,,,,,,,,,,,,,,,,,,,,,,,,,,,,,,,,,,,,,,,,,,,,,,,,,,,,,,,,,,,,,,,,,,,,,,,,,,,,,,,,,,,,,,,,,
,,?,0.000515,0,,,,,,stimuli/images/PICTURE_296.png,LIFE,5ef089044e663d0ac00def4b,17/07/1994,2020-08-13_12h51.35.245,proactive2,2020.1.2,MacIntel,60,5f341be081b9052c55068110,5f352936681add074646fccb,4,,,,,,bolt,,,,,,,,,,,6,1,0,1,1,57,1,,,,,,,,,,,,,,,,,,,,,,,,,,,,,,,,,,,,,,,,,,,,,,,,,,,,,,,,,,,,,,,,,,,,,,,,,,,,,,,,,,,,,,,,,,,,,,
,,?,0.00051,0,,,,,,stimuli/images/PICTURE_750.png,HOTEL,5ef089044e663d0ac00def4b,17/07/1994,2020-08-13_12h51.35.245,proactive2,2020.1.2,MacIntel,60,5f341be081b9052c55068110,5f352936681add074646fccb,4,,,,,,kettle,,,,,,,,,,,3,1,0,2,2,27,1,,,,,,,,,,,,,,,,,,,,,,,,,,,,,,,,,,,,,,,,,,,,,,,,,,,,,,,,,,,,,,,,,,,,,,,,,,,,,,,,,,,,,,,,,,,,,,
,,?,0.000465,0,,,,,,stimuli/images/PICTURE_449.png,DUDE,5ef089044e663d0ac00def4b,17/07/1994,2020-08-13_12h51.35.245,proactive2,2020.1.2,MacIntel,60,5f341be081b9052c55068110,5f352936681add074646fccb,4,,,,,,bench,,,,,,,,,,,2,1,0,3,3,17,1,,,,,,,,,,,,,,,,,,,,,,,,,,,,,,,,,,,,,,,,,,,,,,,,,,,,,,,,,,,,,,,,,,,,,,,,,,,,,,,,,,,,,,,,,,,,,,
,,?,0.001375,0,,,,,,stimuli/images/PICTURE_203.png,NIGHT,5ef089044e663d0ac00def4b,17/07/1994,2020-08-13_12h51.35.245,proactive2,2020.1.2,MacIntel,60,5f341be081b9052c55068110,5f352936681add074646fccb,4,,,,,,cap,,,,,,,,,,,1,1,0,4,4,2,1,,,,,,,,,,,,,,,,,,,,,,,,,,,,,,,,,,,,,,,,,,,,,,,,,,,,,,,,,,,,,,,,,,,,,,,,,,,,,,,,,,,,,,,,,,,,,,
,,?,0.000455,0,,,,,,stimuli/images/PICTURE_380.png,HONEY,5ef089044e663d0ac00def4b,17/07/1994,2020-08-13_12h51.35.245,proactive2,2020.1.2,MacIntel,60,5f341be081b9052c55068110,5f352936681add074646fccb,4,,,,,,gorilla,,,,,,,,,,,2,1,0,5,5,19,1,,,,,,,,,,,,,,,,,,,,,,,,,,,,,,,,,,,,,,,,,,,,,,,,,,,,,,,,,,,,,,,,,,,,,,,,,,,,,,,,,,,,,,,,,,,,,,
,,?,0.000445,0,,,,,,stimuli/images/PICTURE_677.png,APPLE,5ef089044e663d0ac00def4b,17/07/1994,2020-08-13_12h51.35.245,proactive2,2020.1.2,MacIntel,60,5f341be081b9052c55068110,5f352936681add074646fccb,4,,,,,,map,,,,,,,,,,,5,1,0,6,6,43,1,,,,,,,,,,,,,,,,,,,,,,,,,,,,,,,,,,,,,,,,,,,,,,,,,,,,,,,,,,,,,,,,,,,,,,,,,,,,,,,,,,,,,,,,,,,,,,
,,?,0.00044,0,,,,,,stimuli/images/PICTURE_403.png,TOILET,5ef089044e663d0ac00def4b,17/07/1994,2020-08-13_12h51.35.245,proactive2,2020.1.2,MacIntel,60,5f341be081b9052c55068110,5f352936681add074646fccb,4,,,,,,cathedral,,,,,,,,,,,3,1,0,7,7,25,1,,,,,,,,,,,,,,,,,,,,,,,,,,,,,,,,,,,,,,,,,,,,,,,,,,,,,,,,,,,,,,,,,,,,,,,,,,,,,,,,,,,,,,,,,,,,,,
,,?,0.000445,0,,,,,,stimuli/images/PICTURE_504.png,ARTIST,5ef089044e663d0ac00def4b,17/07/1994,2020-08-13_12h51.35.245,proactive2,2020.1.2,MacIntel,60,5f341be081b9052c55068110,5f352936681add074646fccb,4,,,,,,wheel,,,,,,,,,,,5,1,0,8,8,49,1,,,,,,,,,,,,,,,,,,,,,,,,,,,,,,,,,,,,,,,,,,,,,,,,,,,,,,,,,,,,,,,,,,,,,,,,,,,,,,,,,,,,,,,,,,,,,,
,,?,0.00048,0,,,,,,stimuli/images/PICTURE_42.png,BOYS,5ef089044e663d0ac00def4b,17/07/1994,2020-08-13_12h51.35.245,proactive2,2020.1.2,MacIntel,60,5f341be081b9052c55068110,5f352936681add074646fccb,4,,,,,,pear,,,,,,,,,,,6,1,0,9,9,55,1,,,,,,,,,,,,,,,,,,,,,,,,,,,,,,,,,,,,,,,,,,,,,,,,,,,,,,,,,,,,,,,,,,,,,,,,,,,,,,,,,,,,,,,,,,,,,,
,,?,0.000475,0,,,,,,stimuli/images/PICTURE_340.png,LETTER,5ef089044e663d0ac00def4b,17/07/1994,2020-08-13_12h51.35.245,proactive2,2020.1.2,MacIntel,60,5f341be081b9052c55068110,5f352936681add074646fccb,4,,,,,,mirror,,,,,,,,,,,3,1,0,10,10,24,1,,,,,,,,,,,,,,,,,,,,,,,,,,,,,,,,,,,,,,,,,,,,,,,,,,,,,,,,,,,,,,,,,,,,,,,,,,,,,,,,,,,,,,,,,,,,,,
,,?,0.00044,0,,,,,,stimuli/images/PICTURE_403.png,RIVER,5ef089044e663d0ac00def4b,17/07/1994,2020-08-13_12h51.35.245,proactive2,2020.1.2,MacIntel,60,5f341be081b9052c55068110,5f352936681add074646fccb,4,,,,,,cathedral,,,,,,,,,,,5,1,0,11,11,40,1,,,,,,,,,,,,,,,,,,,,,,,,,,,,,,,,,,,,,,,,,,,,,,,,,,,,,,,,,,,,,,,,,,,,,,,,,,,,,,,,,,,,,,,,,,,,,,
,,?,0.000445,0,,,,,,stimuli/images/PICTURE_68.png,MILE,5ef089044e663d0ac00def4b,17/07/1994,2020-08-13_12h51.35.245,proactive2,2020.1.2,MacIntel,60,5f341be081b9052c55068110,5f352936681add074646fccb,4,,,,,,candle,,,,,,,,,,,6,1,0,12,12,51,1,,,,,,,,,,,,,,,,,,,,,,,,,,,,,,,,,,,,,,,,,,,,,,,,,,,,,,,,,,,,,,,,,,,,,,,,,,,,,,,,,,,,,,,,,,,,,,
,,?,0.00046,0,,,,,,stimuli/images/PICTURE_405.png,PLENTY,5ef089044e663d0ac00def4b,17/07/1994,2020-08-13_12h51.35.245,proactive2,2020.1.2,MacIntel,60,5f341be081b9052c55068110,5f352936681add074646fccb,4,,,,,,anchor,,,,,,,,,,,3,1,0,13,13,23,1,,,,,,,,,,,,,,,,,,,,,,,,,,,,,,,,,,,,,,,,,,,,,,,,,,,,,,,,,,,,,,,,,,,,,,,,,,,,,,,,,,,,,,,,,,,,,,
,,?,0.00046,0,,,,,,stimuli/images/PICTURE_327.png,SERIES,5ef089044e663d0ac00def4b,17/07/1994,2020-08-13_12h51.35.245,proactive2,2020.1.2,MacIntel,60,5f341be081b9052c55068110,5f352936681add074646fccb,4,,,,,,helmet,,,,,,,,,,,1,1,0,14,14,3,1,,,,,,,,,,,,,,,,,,,,,,,,,,,,,,,,,,,,,,,,,,,,,,,,,,,,,,,,,,,,,,,,,,,,,,,,,,,,,,,,,,,,,,,,,,,,,,
,,?,0.000415,0,,,,,,stimuli/images/PICTURE_177.png,WRITER,5ef089044e663d0ac00def4b,17/07/1994,2020-08-13_12h51.35.245,proactive2,2020.1.2,MacIntel,60,5f341be081b9052c55068110,5f352936681add074646fccb,4,,,,,,mushroom,,,,,,,,,,,5,1,0,15,15,41,1,,,,,,,,,,,,,,,,,,,,,,,,,,,,,,,,,,,,,,,,,,,,,,,,,,,,,,,,,,,,,,,,,,,,,,,,,,,,,,,,,,,,,,,,,,,,,,
,,?,0.00042,0,,,,,,stimuli/images/PICTURE_32.png,PILLS,5ef089044e663d0ac00def4b,17/07/1994,2020-08-13_12h51.35.245,proactive2,2020.1.2,MacIntel,60,5f341be081b9052c55068110,5f352936681add074646fccb,4,,,,,,crown,,,,,,,,,,,2,1,0,16,16,18,1,,,,,,,,,,,,,,,,,,,,,,,,,,,,,,,,,,,,,,,,,,,,,,,,,,,,,,,,,,,,,,,,,,,,,,,,,,,,,,,,,,,,,,,,,,,,,,
,,?,0.0004,0,,,,,,stimuli/images/PICTURE_744.png,WEAPON,5ef089044e663d0ac00def4b,17/07/1994,2020-08-13_12h51.35.245,proactive2,2020.1.2,MacIntel,60,5f341be081b9052c55068110,5f352936681add074646fccb,4,,,,,,ring,,,,,,,,,,,6,1,0,17,17,50,1,,,,,,,,,,,,,,,,,,,,,,,,,,,,,,,,,,,,,,,,,,,,,,,,,,,,,,,,,,,,,,,,,,,,,,,,,,,,,,,,,,,,,,,,,,,,,,
,,?,0.0004,0,,,,,,stimuli/images/PICTURE_33.png,FRIEND,5ef089044e663d0ac00def4b,17/07/1994,2020-08-13_12h51.35.245,proactive2,2020.1.2,MacIntel,60,5f341be081b9052c55068110,5f352936681add074646fccb,4,,,,,,frame,,,,,,,,,,,1,1,0,18,18,8,1,,,,,,,,,,,,,,,,,,,,,,,,,,,,,,,,,,,,,,,,,,,,,,,,,,,,,,,,,,,,,,,,,,,,,,,,,,,,,,,,,,,,,,,,,,,,,,
,,?,0.000425,0,,,,,,stimuli/images/PICTURE_85.png,TOILET,5ef089044e663d0ac00def4b,17/07/1994,2020-08-13_12h51.35.245,proactive2,2020.1.2,MacIntel,60,5f341be081b9052c55068110,5f352936681add074646fccb,4,,,,,,diamond,,,,,,,,,,,5,1,0,19,19,48,1,,,,,,,,,,,,,,,,,,,,,,,,,,,,,,,,,,,,,,,,,,,,,,,,,,,,,,,,,,,,,,,,,,,,,,,,,,,,,,,,,,,,,,,,,,,,,,
,,?,0.000465,0,,,,,,stimuli/images/PICTURE_327.png,CASINO,5ef089044e663d0ac00def4b,17/07/1994,2020-08-13_12h51.35.245,proactive2,2020.1.2,MacIntel,60,5f341be081b9052c55068110,5f352936681add074646fccb,4,,,,,,helmet,,,,,,,,,,,3,1,0,20,20,20,1,,,,,,,,,,,,,,,,,,,,,,,,,,,,,,,,,,,,,,,,,,,,,,,,,,,,,,,,,,,,,,,,,,,,,,,,,,,,,,,,,,,,,,,,,,,,,,
,,KIND,2.520205,1,,,,,,stimuli/images/PICTURE_32.png,KIND,5ef089044e663d0ac00def4b,17/07/1994,2020-08-13_12h51.35.245,proactive2,2020.1.2,MacIntel,60,5f341be081b9052c55068110,5f352936681add074646fccb,4,,,,,,crown,,,,,,,,,,,4,1,0,21,21,35,1,,,,,,,,,,,,,,,,,,,,,,,,,,,,,,,,,,,,,,,,,,,,,,,,,,,,,,,,,,,,,,,,,,,,,,,,,,,,,,,,,,,,,,,,,,,,,,
,,LIFE,1.79866,1,,,,,,stimuli/images/PICTURE_285.png,LIFE,5ef089044e663d0ac00def4b,17/07/1994,2020-08-13_12h51.35.245,proactive2,2020.1.2,MacIntel,60,5f341be081b9052c55068110,5f352936681add074646fccb,4,,,,,,carrot,,,,,,,,,,,4,1,0,22,22,33,1,,,,,,,,,,,,,,,,,,,,,,,,,,,,,,,,,,,,,,,,,,,,,,,,,,,,,,,,,,,,,,,,,,,,,,,,,,,,,,,,,,,,,,,,,,,,,,
,,?,0.000735,0,,,,,,stimuli/images/PICTURE_708.png,RECORD,5ef089044e663d0ac00def4b,17/07/1994,2020-08-13_12h51.35.245,proactive2,2020.1.2,MacIntel,60,5f341be081b9052c55068110,5f352936681add074646fccb,4,,,,,,monkey,,,,,,,,,,,6,1,0,23,23,58,1,,,,,,,,,,,,,,,,,,,,,,,,,,,,,,,,,,,,,,,,,,,,,,,,,,,,,,,,,,,,,,,,,,,,,,,,,,,,,,,,,,,,,,,,,,,,,,
,,?,0.00071,0,,,,,,stimuli/images/PICTURE_467.png,POLICY,5ef089044e663d0ac00def4b,17/07/1994,2020-08-13_12h51.35.245,proactive2,2020.1.2,MacIntel,60,5f341be081b9052c55068110,5f352936681add074646fccb,4,,,,,,peg,,,,,,,,,,,6,1,0,24,24,53,1,,,,,,,,,,,,,,,,,,,,,,,,,,,,,,,,,,,,,,,,,,,,,,,,,,,,,,,,,,,,,,,,,,,,,,,,,,,,,,,,,,,,,,,,,,,,,,
,,?,0.000565,0,,,,,,stimuli/images/PICTURE_504.png,YEAR,5ef089044e663d0ac00def4b,17/07/1994,2020-08-13_12h51.35.245,proactive2,2020.1.2,MacIntel,60,5f341be081b9052c55068110,5f352936681add074646fccb,4,,,,,,wheel,,,,,,,,,,,2,1,0,25,25,13,1,,,,,,,,,,,,,,,,,,,,,,,,,,,,,,,,,,,,,,,,,,,,,,,,,,,,,,,,,,,,,,,,,,,,,,,,,,,,,,,,,,,,,,,,,,,,,,
,,WRITER,2.06072,1,,,,,,stimuli/images/PICTURE_403.png,WRITER,5ef089044e663d0ac00def4b,17/07/1994,2020-08-13_12h51.35.245,proactive2,2020.1.2,MacIntel,60,5f341be081b9052c55068110,5f352936681add074646fccb,4,,,,,,cathedral,,,,,,,,,,,4,1,0,26,26,31,1,,,,,,,,,,,,,,,,,,,,,,,,,,,,,,,,,,,,,,,,,,,,,,,,,,,,,,,,,,,,,,,,,,,,,,,,,,,,,,,,,,,,,,,,,,,,,,
,,?,0.00182,0,,,,,,stimuli/images/PICTURE_383.png,WRITER,5ef089044e663d0ac00def4b,17/07/1994,2020-08-13_12h51.35.245,proactive2,2020.1.2,MacIntel,60,5f341be081b9052c55068110,5f352936681add074646fccb,4,,,,,,coin,,,,,,,,,,,3,1,0,27,27,28,1,,,,,,,,,,,,,,,,,,,,,,,,,,,,,,,,,,,,,,,,,,,,,,,,,,,,,,,,,,,,,,,,,,,,,,,,,,,,,,,,,,,,,,,,,,,,,,
,,?,0.00087,0,,,,,,stimuli/images/PICTURE_491.png,GLASS,5ef089044e663d0ac00def4b,17/07/1994,2020-08-13_12h51.35.245,proactive2,2020.1.2,MacIntel,60,5f341be081b9052c55068110,5f352936681add074646fccb,4,,,,,,rug,,,,,,,,,,,2,1,0,28,28,14,1,,,,,,,,,,,,,,,,,,,,,,,,,,,,,,,,,,,,,,,,,,,,,,,,,,,,,,,,,,,,,,,,,,,,,,,,,,,,,,,,,,,,,,,,,,,,,,
,,?,0.000675,0,,,,,,stimuli/images/PICTURE_491.png,RIVER,5ef089044e663d0ac00def4b,17/07/1994,2020-08-13_12h51.35.245,proactive2,2020.1.2,MacIntel,60,5f341be081b9052c55068110,5f352936681add074646fccb,4,,,,,,rug,,,,,,,,,,,1,1,0,29,29,6,1,,,,,,,,,,,,,,,,,,,,,,,,,,,,,,,,,,,,,,,,,,,,,,,,,,,,,,,,,,,,,,,,,,,,,,,,,,,,,,,,,,,,,,,,,,,,,,
,,?,0.00078,0,,,,,,stimuli/images/PICTURE_380.png,CANDY,5ef089044e663d0ac00def4b,17/07/1994,2020-08-13_12h51.35.245,proactive2,2020.1.2,MacIntel,60,5f341be081b9052c55068110,5f352936681add074646fccb,4,,,,,,gorilla,,,,,,,,,,,1,1,0,30,30,0,1,,,,,,,,,,,,,,,,,,,,,,,,,,,,,,,,,,,,,,,,,,,,,,,,,,,,,,,,,,,,,,,,,,,,,,,,,,,,,,,,,,,,,,,,,,,,,,
,,?,0.00049,0,,,,,,stimuli/images/PICTURE_296.png,LOTS,5ef089044e663d0ac00def4b,17/07/1994,2020-08-13_12h51.35.245,proactive2,2020.1.2,MacIntel,60,5f341be081b9052c55068110,5f352936681add074646fccb,4,,,,,,bolt,,,,,,,,,,,1,1,0,31,31,9,1,,,,,,,,,,,,,,,,,,,,,,,,,,,,,,,,,,,,,,,,,,,,,,,,,,,,,,,,,,,,,,,,,,,,,,,,,,,,,,,,,,,,,,,,,,,,,,
,,?,0.000445,0,,,,,,stimuli/images/PICTURE_654.png,MONTH,5ef089044e663d0ac00def4b,17/07/1994,2020-08-13_12h51.35.245,proactive2,2020.1.2,MacIntel,60,5f341be081b9052c55068110,5f352936681add074646fccb,4,,,,,,pencil,,,,,,,,,,,3,1,0,32,32,29,1,,,,,,,,,,,,,,,,,,,,,,,,,,,,,,,,,,,,,,,,,,,,,,,,,,,,,,,,,,,,,,,,,,,,,,,,,,,,,,,,,,,,,,,,,,,,,,
,,ROOF,1.58905,1,,,,,,stimuli/images/PICTURE_68.png,ROOF,5ef089044e663d0ac00def4b,17/07/1994,2020-08-13_12h51.35.245,proactive2,2020.1.2,MacIntel,60,5f341be081b9052c55068110,5f352936681add074646fccb,4,,,,,,candle,,,,,,,,,,,4,1,0,33,33,38,1,,,,,,,,,,,,,,,,,,,,,,,,,,,,,,,,,,,,,,,,,,,,,,,,,,,,,,,,,,,,,,,,,,,,,,,,,,,,,,,,,,,,,,,,,,,,,,
,,?,0.001025,0,,,,,,stimuli/images/PICTURE_383.png,SERIES,5ef089044e663d0ac00def4b,17/07/1994,2020-08-13_12h51.35.245,proactive2,2020.1.2,MacIntel,60,5f341be081b9052c55068110,5f352936681add074646fccb,4,,,,,,coin,,,,,,,,,,,5,1,0,34,34,46,1,,,,,,,,,,,,,,,,,,,,,,,,,,,,,,,,,,,,,,,,,,,,,,,,,,,,,,,,,,,,,,,,,,,,,,,,,,,,,,,,,,,,,,,,,,,,,,
,,?,0.00069,0,,,,,,stimuli/images/PICTURE_95.png,MILLER,5ef089044e663d0ac00def4b,17/07/1994,2020-08-13_12h51.35.245,proactive2,2020.1.2,MacIntel,60,5f341be081b9052c55068110,5f352936681add074646fccb,4,,,,,,suitcase,,,,,,,,,,,6,1,0,35,35,56,1,,,,,,,,,,,,,,,,,,,,,,,,,,,,,,,,,,,,,,,,,,,,,,,,,,,,,,,,,,,,,,,,,,,,,,,,,,,,,,,,,,,,,,,,,,,,,,
,,GODS,1.51227,1,,,,,,stimuli/images/PICTURE_203.png,GODS,5ef089044e663d0ac00def4b,17/07/1994,2020-08-13_12h51.35.245,proactive2,2020.1.2,MacIntel,60,5f341be081b9052c55068110,5f352936681add074646fccb,4,,,,,,cap,,,,,,,,,,,4,1,0,36,36,30,1,,,,,,,,,,,,,,,,,,,,,,,,,,,,,,,,,,,,,,,,,,,,,,,,,,,,,,,,,,,,,,,,,,,,,,,,,,,,,,,,,,,,,,,,,,,,,,
,,?,0.00069,0,,,,,,stimuli/images/PICTURE_504.png,COPS,5ef089044e663d0ac00def4b,17/07/1994,2020-08-13_12h51.35.245,proactive2,2020.1.2,MacIntel,60,5f341be081b9052c55068110,5f352936681add074646fccb,4,,,,,,wheel,,,,,,,,,,,6,1,0,37,37,52,1,,,,,,,,,,,,,,,,,,,,,,,,,,,,,,,,,,,,,,,,,,,,,,,,,,,,,,,,,,,,,,,,,,,,,,,,,,,,,,,,,,,,,,,,,,,,,,
,,?,0.00054,0,,,,,,stimuli/images/PICTURE_667.png,RIVER,5ef089044e663d0ac00def4b,17/07/1994,2020-08-13_12h51.35.245,proactive2,2020.1.2,MacIntel,60,5f341be081b9052c55068110,5f352936681add074646fccb,4,,,,,,daisy,,,,,,,,,,,2,1,0,38,38,10,1,,,,,,,,,,,,,,,,,,,,,,,,,,,,,,,,,,,,,,,,,,,,,,,,,,,,,,,,,,,,,,,,,,,,,,,,,,,,,,,,,,,,,,,,,,,,,,
,,?,0.00053,0,,,,,,stimuli/images/PICTURE_95.png,HONEY,5ef089044e663d0ac00def4b,17/07/1994,2020-08-13_12h51.35.245,proactive2,2020.1.2,MacIntel,60,5f341be081b9052c55068110,5f352936681add074646fccb,4,,,,,,suitcase,,,,,,,,,,,5,1,0,39,39,44,1,,,,,,,,,,,,,,,,,,,,,,,,,,,,,,,,,,,,,,,,,,,,,,,,,,,,,,,,,,,,,,,,,,,,,,,,,,,,,,,,,,,,,,,,,,,,,,
,,FAMILY,1.778345,1,,,,,,stimuli/images/PICTURE_308.png,FAMILY,5ef089044e663d0ac00def4b,17/07/1994,2020-08-13_12h51.35.245,proactive2,2020.1.2,MacIntel,60,5f341be081b9052c55068110,5f352936681add074646fccb,4,,,,,,dice,,,,,,,,,,,4,1,0,40,40,36,1,,,,,,,,,,,,,,,,,,,,,,,,,,,,,,,,,,,,,,,,,,,,,,,,,,,,,,,,,,,,,,,,,,,,,,,,,,,,,,,,,,,,,,,,,,,,,,
,,?,0.00136,0,,,,,,stimuli/images/PICTURE_108.png,FLIGHT,5ef089044e663d0ac00def4b,17/07/1994,2020-08-13_12h51.35.245,proactive2,2020.1.2,MacIntel,60,5f341be081b9052c55068110,5f352936681add074646fccb,4,,,,,,calendar,,,,,,,,,,,6,1,0,41,41,59,1,,,,,,,,,,,,,,,,,,,,,,,,,,,,,,,,,,,,,,,,,,,,,,,,,,,,,,,,,,,,,,,,,,,,,,,,,,,,,,,,,,,,,,,,,,,,,,
,,?,0.001,0,,,,,,stimuli/images/PICTURE_469.png,AGENT,5ef089044e663d0ac00def4b,17/07/1994,2020-08-13_12h51.35.245,proactive2,2020.1.2,MacIntel,60,5f341be081b9052c55068110,5f352936681add074646fccb,4,,,,,,stool,,,,,,,,,,,2,1,0,42,42,16,1,,,,,,,,,,,,,,,,,,,,,,,,,,,,,,,,,,,,,,,,,,,,,,,,,,,,,,,,,,,,,,,,,,,,,,,,,,,,,,,,,,,,,,,,,,,,,,
,,?,0.00101,0,,,,,,stimuli/images/PICTURE_108.png,POLICY,5ef089044e663d0ac00def4b,17/07/1994,2020-08-13_12h51.35.245,proactive2,2020.1.2,MacIntel,60,5f341be081b9052c55068110,5f352936681add074646fccb,4,,,,,,calendar,,,,,,,,,,,3,1,0,43,43,22,1,,,,,,,,,,,,,,,,,,,,,,,,,,,,,,,,,,,,,,,,,,,,,,,,,,,,,,,,,,,,,,,,,,,,,,,,,,,,,,,,,,,,,,,,,,,,,,
,,?,0.000585,0,,,,,,stimuli/images/PICTURE_655.png,TOILET,5ef089044e663d0ac00def4b,17/07/1994,2020-08-13_12h51.35.245,proactive2,2020.1.2,MacIntel,60,5f341be081b9052c55068110,5f352936681add074646fccb,4,,,,,,megaphone,,,,,,,,,,,2,1,0,44,44,12,1,,,,,,,,,,,,,,,,,,,,,,,,,,,,,,,,,,,,,,,,,,,,,,,,,,,,,,,,,,,,,,,,,,,,,,,,,,,,,,,,,,,,,,,,,,,,,,
,,?,0.000535,0,,,,,,stimuli/images/PICTURE_340.png,VALLEY,5ef089044e663d0ac00def4b,17/07/1994,2020-08-13_12h51.35.245,proactive2,2020.1.2,MacIntel,60,5f341be081b9052c55068110,5f352936681add074646fccb,4,,,,,,mirror,,,,,,,,,,,6,1,0,45,45,54,1,,,,,,,,,,,,,,,,,,,,,,,,,,,,,,,,,,,,,,,,,,,,,,,,,,,,,,,,,,,,,,,,,,,,,,,,,,,,,,,,,,,,,,,,,,,,,,
,,?,0.000575,0,,,,,,stimuli/images/PICTURE_675.png,SALE,5ef089044e663d0ac00def4b,17/07/1994,2020-08-13_12h51.35.245,proactive2,2020.1.2,MacIntel,60,5f341be081b9052c55068110,5f352936681add074646fccb,4,,,,,,windmill,,,,,,,,,,,5,1,0,46,46,47,1,,,,,,,,,,,,,,,,,,,,,,,,,,,,,,,,,,,,,,,,,,,,,,,,,,,,,,,,,,,,,,,,,,,,,,,,,,,,,,,,,,,,,,,,,,,,,,
,,RIVER,2.404475,1,,,,,,stimuli/images/PICTURE_297.png,RIVER,5ef089044e663d0ac00def4b,17/07/1994,2020-08-13_12h51.35.245,proactive2,2020.1.2,MacIntel,60,5f341be081b9052c55068110,5f352936681add074646fccb,4,,,,,,aeroplane,,,,,,,,,,,4,1,0,47,47,39,1,,,,,,,,,,,,,,,,,,,,,,,,,,,,,,,,,,,,,,,,,,,,,,,,,,,,,,,,,,,,,,,,,,,,,,,,,,,,,,,,,,,,,,,,,,,,,,
,,?,0.001365,0,,,,,,stimuli/images/PICTURE_85.png,NATION,5ef089044e663d0ac00def4b,17/07/1994,2020-08-13_12h51.35.245,proactive2,2020.1.2,MacIntel,60,5f341be081b9052c55068110,5f352936681add074646fccb,4,,,,,,diamond,,,,,,,,,,,1,1,0,48,48,5,1,,,,,,,,,,,,,,,,,,,,,,,,,,,,,,,,,,,,,,,,,,,,,,,,,,,,,,,,,,,,,,,,,,,,,,,,,,,,,,,,,,,,,,,,,,,,,,
,,?,0.00081,0,,,,,,stimuli/images/PICTURE_685.png,PENNY,5ef089044e663d0ac00def4b,17/07/1994,2020-08-13_12h51.35.245,proactive2,2020.1.2,MacIntel,60,5f341be081b9052c55068110,5f352936681add074646fccb,4,,,,,,goose,,,,,,,,,,,1,1,0,49,49,4,1,,,,,,,,,,,,,,,,,,,,,,,,,,,,,,,,,,,,,,,,,,,,,,,,,,,,,,,,,,,,,,,,,,,,,,,,,,,,,,,,,,,,,,,,,,,,,,
,,?,0.000805,0,,,,,,stimuli/images/PICTURE_147.png,YEAR,5ef089044e663d0ac00def4b,17/07/1994,2020-08-13_12h51.35.245,proactive2,2020.1.2,MacIntel,60,5f341be081b9052c55068110,5f352936681add074646fccb,4,,,,,,hanger,,,,,,,,,,,3,1,0,50,50,21,1,,,,,,,,,,,,,,,,,,,,,,,,,,,,,,,,,,,,,,,,,,,,,,,,,,,,,,,,,,,,,,,,,,,,,,,,,,,,,,,,,,,,,,,,,,,,,,
,,?,0.00077,0,,,,,,stimuli/images/PICTURE_339.png,CLIENT,5ef089044e663d0ac00def4b,17/07/1994,2020-08-13_12h51.35.245,proactive2,2020.1.2,MacIntel,60,5f341be081b9052c55068110,5f352936681add074646fccb,4,,,,,,backpack,,,,,,,,,,,2,1,0,51,51,11,1,,,,,,,,,,,,,,,,,,,,,,,,,,,,,,,,,,,,,,,,,,,,,,,,,,,,,,,,,,,,,,,,,,,,,,,,,,,,,,,,,,,,,,,,,,,,,,
,,SYSTEM,3.60809,1,,,,,,stimuli/images/PICTURE_208.png,SYSTEM,5ef089044e663d0ac00def4b,17/07/1994,2020-08-13_12h51.35.245,proactive2,2020.1.2,MacIntel,60,5f341be081b9052c55068110,5f352936681add074646fccb,4,,,,,,microphone,,,,,,,,,,,4,1,0,52,52,32,1,,,,,,,,,,,,,,,,,,,,,,,,,,,,,,,,,,,,,,,,,,,,,,,,,,,,,,,,,,,,,,,,,,,,,,,,,,,,,,,,,,,,,,,,,,,,,,
,,?,0.001485,0,,,,,,stimuli/images/PICTURE_233.png,LOTS,5ef089044e663d0ac00def4b,17/07/1994,2020-08-13_12h51.35.245,proactive2,2020.1.2,MacIntel,60,5f341be081b9052c55068110,5f352936681add074646fccb,4,,,,,,salt,,,,,,,,,,,5,1,0,53,53,42,1,,,,,,,,,,,,,,,,,,,,,,,,,,,,,,,,,,,,,,,,,,,,,,,,,,,,,,,,,,,,,,,,,,,,,,,,,,,,,,,,,,,,,,,,,,,,,,
,,MEMORY,2.863215,0,,,,,,stimuli/images/PICTURE_57.png,MOMENT,5ef089044e663d0ac00def4b,17/07/1994,2020-08-13_12h51.35.245,proactive2,2020.1.2,MacIntel,60,5f341be081b9052c55068110,5f352936681add074646fccb,4,,,,,,stamp,,,,,,,,,,,4,1,0,54,54,37,1,,,,,,,,,,,,,,,,,,,,,,,,,,,,,,,,,,,,,,,,,,,,,,,,,,,,,,,,,,,,,,,,,,,,,,,,,,,,,,,,,,,,,,,,,,,,,,
,,YEAR,1.665345,1,,,,,,stimuli/images/PICTURE_405.png,YEAR,5ef089044e663d0ac00def4b,17/07/1994,2020-08-13_12h51.35.245,proactive2,2020.1.2,MacIntel,60,5f341be081b9052c55068110,5f352936681add074646fccb,4,,,,,,anchor,,,,,,,,,,,4,1,0,55,55,34,1,,,,,,,,,,,,,,,,,,,,,,,,,,,,,,,,,,,,,,,,,,,,,,,,,,,,,,,,,,,,,,,,,,,,,,,,,,,,,,,,,,,,,,,,,,,,,,
,,?,0.001285,0,,,,,,stimuli/images/PICTURE_147.png,WOMEN,5ef089044e663d0ac00def4b,17/07/1994,2020-08-13_12h51.35.245,proactive2,2020.1.2,MacIntel,60,5f341be081b9052c55068110,5f352936681add074646fccb,4,,,,,,hanger,,,,,,,,,,,1,1,0,56,56,7,1,,,,,,,,,,,,,,,,,,,,,,,,,,,,,,,,,,,,,,,,,,,,,,,,,,,,,,,,,,,,,,,,,,,,,,,,,,,,,,,,,,,,,,,,,,,,,,
,,?,0.000945,0,,,,,,stimuli/images/PICTURE_95.png,BOYS,5ef089044e663d0ac00def4b,17/07/1994,2020-08-13_12h51.35.245,proactive2,2020.1.2,MacIntel,60,5f341be081b9052c55068110,5f352936681add074646fccb,4,,,,,,suitcase,,,,,,,,,,,1,1,0,57,57,1,1,,,,,,,,,,,,,,,,,,,,,,,,,,,,,,,,,,,,,,,,,,,,,,,,,,,,,,,,,,,,,,,,,,,,,,,,,,,,,,,,,,,,,,,,,,,,,,
,,?,0.000525,0,,,,,,stimuli/images/PICTURE_564.png,BATH,5ef089044e663d0ac00def4b,17/07/1994,2020-08-13_12h51.35.245,proactive2,2020.1.2,MacIntel,60,5f341be081b9052c55068110,5f352936681add074646fccb,4,,,,,,spoon,,,,,,,,,,,3,1,0,58,58,26,1,,,,,,,,,,,,,,,,,,,,,,,,,,,,,,,,,,,,,,,,,,,,,,,,,,,,,,,,,,,,,,,,,,,,,,,,,,,,,,,,,,,,,,,,,,,,,,
,,?,0.000555,0,,,,,,stimuli/images/PICTURE_487.png,GIRL,5ef089044e663d0ac00def4b,17/07/1994,2020-08-13_12h51.35.245,proactive2,2020.1.2,MacIntel,60,5f341be081b9052c55068110,5f352936681add074646fccb,4,,,,,,basket,,,,,,,,,,,5,1,0,59,59,45,1,,,,,,,,,,,,,,,,,,,,,,,,,,,,,,,,,,,,,,,,,,,,,,,,,,,,,,,,,,,,,,,,,,,,,,,,,,,,,,,,,,,,,,,,,,,,,,
,,,,,,,,,,,,5ef089044e663d0ac00def4b,17/07/1994,2020-08-13_12h51.35.245,proactive2,2020.1.2,MacIntel,60,5f341be081b9052c55068110,5f352936681add074646fccb,4,,,,,,,,,,,,,,,,,,,,,,,,0,0,0,1,1,stimuli/learn-block2.csv,,,,,,,,,,,,,,,,,,,,,,,,,,,,,,,,,,,,,,,,,,,,,,,,,,,,,,,,,,,,,,,,,,,,,,,,,,,,,,,,,,,,,,,,
,,,,,,,,,,stimuli/images/PICTURE_654.png,COPS,5ef089044e663d0ac00def4b,17/07/1994,2020-08-13_12h51.35.245,proactive2,2020.1.2,MacIntel,60,5f341be081b9052c55068110,5f352936681add074646fccb,4,,,,,,pencil,,,,,,0,0,0,10,1,2,2,,,,,,,,,,,,,,,,,,,,,,,,,,,,,,,,,,,,,,,,,,,,,,,,,,,,,,,,,,,,,,,,,,,,,,,,,,,,,,,,,,,,,,,,,,,,,,,,,,,
,,,,,,,,,,stimuli/images/PICTURE_677.png,PHOTO,5ef089044e663d0ac00def4b,17/07/1994,2020-08-13_12h51.35.245,proactive2,2020.1.2,MacIntel,60,5f341be081b9052c55068110,5f352936681add074646fccb,4,,,,,,map,,,,,,0,1,1,14,1,2,2,,,,,,,,,,,,,,,,,,,,,,,,,,,,,,,,,,,,,,,,,,,,,,,,,,,,,,,,,,,,,,,,,,,,,,,,,,,,,,,,,,,,,,,,,,,,,,,,,,,
,,,,,,,,,,stimuli/images/PICTURE_470.png,BEAUTY,5ef089044e663d0ac00def4b,17/07/1994,2020-08-13_12h51.35.245,proactive2,2020.1.2,MacIntel,60,5f341be081b9052c55068110,5f352936681add074646fccb,4,,,,,,motorbike,,,,,,0,2,2,26,1,3,2,,,,,,,,,,,,,,,,,,,,,,,,,,,,,,,,,,,,,,,,,,,,,,,,,,,,,,,,,,,,,,,,,,,,,,,,,,,,,,,,,,,,,,,,,,,,,,,,,,,
,,,,,,,,,,stimuli/images/PICTURE_215.png,LEADER,5ef089044e663d0ac00def4b,17/07/1994,2020-08-13_12h51.35.245,proactive2,2020.1.2,MacIntel,60,5f341be081b9052c55068110,5f352936681add074646fccb,4,,,,,,boot,,,,,,0,3,3,43,1,5,2,,,,,,,,,,,,,,,,,,,,,,,,,,,,,,,,,,,,,,,,,,,,,,,,,,,,,,,,,,,,,,,,,,,,,,,,,,,,,,,,,,,,,,,,,,,,,,,,,,,
,,,,,,,,,,stimuli/images/PICTURE_57.png,CASINO,5ef089044e663d0ac00def4b,17/07/1994,2020-08-13_12h51.35.245,proactive2,2020.1.2,MacIntel,60,5f341be081b9052c55068110,5f352936681add074646fccb,4,,,,,,stamp,,,,,,0,4,4,12,1,2,2,,,,,,,,,,,,,,,,,,,,,,,,,,,,,,,,,,,,,,,,,,,,,,,,,,,,,,,,,,,,,,,,,,,,,,,,,,,,,,,,,,,,,,,,,,,,,,,,,,,
,,,,,,,,,,stimuli/images/PICTURE_93.png,GIRL,5ef089044e663d0ac00def4b,17/07/1994,2020-08-13_12h51.35.245,proactive2,2020.1.2,MacIntel,60,5f341be081b9052c55068110,5f352936681add074646fccb,4,,,,,,skateboard,,,,,,0,5,5,31,1,4,2,,,,,,,,,,,,,,,,,,,,,,,,,,,,,,,,,,,,,,,,,,,,,,,,,,,,,,,,,,,,,,,,,,,,,,,,,,,,,,,,,,,,,,,,,,,,,,,,,,,
,,,,,,,,,,stimuli/images/PICTURE_509.png,BATH,5ef089044e663d0ac00def4b,17/07/1994,2020-08-13_12h51.35.245,proactive2,2020.1.2,MacIntel,60,5f341be081b9052c55068110,5f352936681add074646fccb,4,,,,,,telephone,,,,,,0,6,6,15,1,2,2,,,,,,,,,,,,,,,,,,,,,,,,,,,,,,,,,,,,,,,,,,,,,,,,,,,,,,,,,,,,,,,,,,,,,,,,,,,,,,,,,,,,,,,,,,,,,,,,,,,
,,,,,,,,,,stimuli/images/PICTURE_32.png,LETTER,5ef089044e663d0ac00def4b,17/07/1994,2020-08-13_12h51.35.245,proactive2,2020.1.2,MacIntel,60,5f341be081b9052c55068110,5f352936681add074646fccb,4,,,,,,crown,,,,,,0,7,7,56,1,6,2,,,,,,,,,,,,,,,,,,,,,,,,,,,,,,,,,,,,,,,,,,,,,,,,,,,,,,,,,,,,,,,,,,,,,,,,,,,,,,,,,,,,,,,,,,,,,,,,,,,
,,,,,,,,,,stimuli/images/PICTURE_487.png,ROOF,5ef089044e663d0ac00def4b,17/07/1994,2020-08-13_12h51.35.245,proactive2,2020.1.2,MacIntel,60,5f341be081b9052c55068110,5f352936681add074646fccb,4,,,,,,basket,,,,,,0,8,8,50,1,6,2,,,,,,,,,,,,,,,,,,,,,,,,,,,,,,,,,,,,,,,,,,,,,,,,,,,,,,,,,,,,,,,,,,,,,,,,,,,,,,,,,,,,,,,,,,,,,,,,,,,
,,,,,,,,,,stimuli/images/PICTURE_311.png,FLESH,5ef089044e663d0ac00def4b,17/07/1994,2020-08-13_12h51.35.245,proactive2,2020.1.2,MacIntel,60,5f341be081b9052c55068110,5f352936681add074646fccb,4,,,,,,razor,,,,,,0,9,9,3,1,1,2,,,,,,,,,,,,,,,,,,,,,,,,,,,,,,,,,,,,,,,,,,,,,,,,,,,,,,,,,,,,,,,,,,,,,,,,,,,,,,,,,,,,,,,,,,,,,,,,,,,
,,,,,,,,,,stimuli/images/PICTURE_285.png,PRINCE,5ef089044e663d0ac00def4b,17/07/1994,2020-08-13_12h51.35.245,proactive2,2020.1.2,MacIntel,60,5f341be081b9052c55068110,5f352936681add074646fccb,4,,,,,,carrot,,,,,,0,10,10,20,1,3,2,,,,,,,,,,,,,,,,,,,,,,,,,,,,,,,,,,,,,,,,,,,,,,,,,,,,,,,,,,,,,,,,,,,,,,,,,,,,,,,,,,,,,,,,,,,,,,,,,,,
,,,,,,,,,,stimuli/images/PICTURE_750.png,POLICY,5ef089044e663d0ac00def4b,17/07/1994,2020-08-13_12h51.35.245,proactive2,2020.1.2,MacIntel,60,5f341be081b9052c55068110,5f352936681add074646fccb,4,,,,,,kettle,,,,,,0,11,11,44,1,5,2,,,,,,,,,,,,,,,,,,,,,,,,,,,,,,,,,,,,,,,,,,,,,,,,,,,,,,,,,,,,,,,,,,,,,,,,,,,,,,,,,,,,,,,,,,,,,,,,,,,
,,,,,,,,,,stimuli/images/PICTURE_215.png,BOYS,5ef089044e663d0ac00def4b,17/07/1994,2020-08-13_12h51.35.245,proactive2,2020.1.2,MacIntel,60,5f341be081b9052c55068110,5f352936681add074646fccb,4,,,,,,boot,,,,,,0,12,12,24,1,3,2,,,,,,,,,,,,,,,,,,,,,,,,,,,,,,,,,,,,,,,,,,,,,,,,,,,,,,,,,,,,,,,,,,,,,,,,,,,,,,,,,,,,,,,,,,,,,,,,,,,
,,,,,,,,,,stimuli/images/PICTURE_654.png,YEAR,5ef089044e663d0ac00def4b,17/07/1994,2020-08-13_12h51.35.245,proactive2,2020.1.2,MacIntel,60,5f341be081b9052c55068110,5f352936681add074646fccb,4,,,,,,pencil,,,,,,0,13,13,41,1,5,2,,,,,,,,,,,,,,,,,,,,,,,,,,,,,,,,,,,,,,,,,,,,,,,,,,,,,,,,,,,,,,,,,,,,,,,,,,,,,,,,,,,,,,,,,,,,,,,,,,,
,,,,,,,,,,stimuli/images/PICTURE_2.png,JUNGLE,5ef089044e663d0ac00def4b,17/07/1994,2020-08-13_12h51.35.245,proactive2,2020.1.2,MacIntel,60,5f341be081b9052c55068110,5f352936681add074646fccb,4,,,,,,tyre,,,,,,0,14,14,1,1,1,2,,,,,,,,,,,,,,,,,,,,,,,,,,,,,,,,,,,,,,,,,,,,,,,,,,,,,,,,,,,,,,,,,,,,,,,,,,,,,,,,,,,,,,,,,,,,,,,,,,,
,,,,,,,,,,stimuli/images/PICTURE_403.png,FAMILY,5ef089044e663d0ac00def4b,17/07/1994,2020-08-13_12h51.35.245,proactive2,2020.1.2,MacIntel,60,5f341be081b9052c55068110,5f352936681add074646fccb,4,,,,,,cathedral,,,,,,0,15,15,9,1,1,2,,,,,,,,,,,,,,,,,,,,,,,,,,,,,,,,,,,,,,,,,,,,,,,,,,,,,,,,,,,,,,,,,,,,,,,,,,,,,,,,,,,,,,,,,,,,,,,,,,,
,,,,,,,,,,stimuli/images/PICTURE_255.png,PENNY,5ef089044e663d0ac00def4b,17/07/1994,2020-08-13_12h51.35.245,proactive2,2020.1.2,MacIntel,60,5f341be081b9052c55068110,5f352936681add074646fccb,4,,,,,,shovel,,,,,,0,16,16,19,1,2,2,,,,,,,,,,,,,,,,,,,,,,,,,,,,,,,,,,,,,,,,,,,,,,,,,,,,,,,,,,,,,,,,,,,,,,,,,,,,,,,,,,,,,,,,,,,,,,,,,,,
,,,,,,,,,,stimuli/images/PICTURE_667.png,GLASS,5ef089044e663d0ac00def4b,17/07/1994,2020-08-13_12h51.35.245,proactive2,2020.1.2,MacIntel,60,5f341be081b9052c55068110,5f352936681add074646fccb,4,,,,,,daisy,,,,,,0,17,17,27,1,3,2,,,,,,,,,,,,,,,,,,,,,,,,,,,,,,,,,,,,,,,,,,,,,,,,,,,,,,,,,,,,,,,,,,,,,,,,,,,,,,,,,,,,,,,,,,,,,,,,,,,
,,,,,,,,,,stimuli/images/PICTURE_177.png,HOUSE,5ef089044e663d0ac00def4b,17/07/1994,2020-08-13_12h51.35.245,proactive2,2020.1.2,MacIntel,60,5f341be081b9052c55068110,5f352936681add074646fccb,4,,,,,,mushroom,,,,,,0,18,18,25,1,3,2,,,,,,,,,,,,,,,,,,,,,,,,,,,,,,,,,,,,,,,,,,,,,,,,,,,,,,,,,,,,,,,,,,,,,,,,,,,,,,,,,,,,,,,,,,,,,,,,,,,
,,,,,,,,,,stimuli/images/PICTURE_208.png,SPIRIT,5ef089044e663d0ac00def4b,17/07/1994,2020-08-13_12h51.35.245,proactive2,2020.1.2,MacIntel,60,5f341be081b9052c55068110,5f352936681add074646fccb,4,,,,,,microphone,,,,,,0,19,19,28,1,3,2,,,,,,,,,,,,,,,,,,,,,,,,,,,,,,,,,,,,,,,,,,,,,,,,,,,,,,,,,,,,,,,,,,,,,,,,,,,,,,,,,,,,,,,,,,,,,,,,,,,
,,,,,,,,,,stimuli/images/PICTURE_692.png,DUDE,5ef089044e663d0ac00def4b,17/07/1994,2020-08-13_12h51.35.245,proactive2,2020.1.2,MacIntel,60,5f341be081b9052c55068110,5f352936681add074646fccb,4,,,,,,cherry,,,,,,0,20,20,47,1,5,2,,,,,,,,,,,,,,,,,,,,,,,,,,,,,,,,,,,,,,,,,,,,,,,,,,,,,,,,,,,,,,,,,,,,,,,,,,,,,,,,,,,,,,,,,,,,,,,,,,,
,,,,,,,,,,stimuli/images/PICTURE_509.png,MILLER,5ef089044e663d0ac00def4b,17/07/1994,2020-08-13_12h51.35.245,proactive2,2020.1.2,MacIntel,60,5f341be081b9052c55068110,5f352936681add074646fccb,4,,,,,,telephone,,,,,,0,21,21,49,1,5,2,,,,,,,,,,,,,,,,,,,,,,,,,,,,,,,,,,,,,,,,,,,,,,,,,,,,,,,,,,,,,,,,,,,,,,,,,,,,,,,,,,,,,,,,,,,,,,,,,,,
,,,,,,,,,,stimuli/images/PICTURE_688.png,CLOCK,5ef089044e663d0ac00def4b,17/07/1994,2020-08-13_12h51.35.245,proactive2,2020.1.2,MacIntel,60,5f341be081b9052c55068110,5f352936681add074646fccb,4,,,,,,runner,,,,,,0,22,22,42,1,5,2,,,,,,,,,,,,,,,,,,,,,,,,,,,,,,,,,,,,,,,,,,,,,,,,,,,,,,,,,,,,,,,,,,,,,,,,,,,,,,,,,,,,,,,,,,,,,,,,,,,
,,,,,,,,,,stimuli/images/PICTURE_356.png,CANDY,5ef089044e663d0ac00def4b,17/07/1994,2020-08-13_12h51.35.245,proactive2,2020.1.2,MacIntel,60,5f341be081b9052c55068110,5f352936681add074646fccb,4,,,,,,pawn,,,,,,0,23,23,46,1,5,2,,,,,,,,,,,,,,,,,,,,,,,,,,,,,,,,,,,,,,,,,,,,,,,,,,,,,,,,,,,,,,,,,,,,,,,,,,,,,,,,,,,,,,,,,,,,,,,,,,,
,,,,,,,,,,stimuli/images/PICTURE_2.png,YARD,5ef089044e663d0ac00def4b,17/07/1994,2020-08-13_12h51.35.245,proactive2,2020.1.2,MacIntel,60,5f341be081b9052c55068110,5f352936681add074646fccb,4,,,,,,tyre,,,,,,0,24,24,55,1,6,2,,,,,,,,,,,,,,,,,,,,,,,,,,,,,,,,,,,,,,,,,,,,,,,,,,,,,,,,,,,,,,,,,,,,,,,,,,,,,,,,,,,,,,,,,,,,,,,,,,,
,,,,,,,,,,stimuli/images/PICTURE_452.png,COPS,5ef089044e663d0ac00def4b,17/07/1994,2020-08-13_12h51.35.245,proactive2,2020.1.2,MacIntel,60,5f341be081b9052c55068110,5f352936681add074646fccb,4,,,,,,watch,,,,,,0,25,25,0,1,1,2,,,,,,,,,,,,,,,,,,,,,,,,,,,,,,,,,,,,,,,,,,,,,,,,,,,,,,,,,,,,,,,,,,,,,,,,,,,,,,,,,,,,,,,,,,,,,,,,,,,
,,,,,,,,,,stimuli/images/PICTURE_18.png,RIVER,5ef089044e663d0ac00def4b,17/07/1994,2020-08-13_12h51.35.245,proactive2,2020.1.2,MacIntel,60,5f341be081b9052c55068110,5f352936681add074646fccb,4,,,,,,planet,,,,,,0,26,26,22,1,3,2,,,,,,,,,,,,,,,,,,,,,,,,,,,,,,,,,,,,,,,,,,,,,,,,,,,,,,,,,,,,,,,,,,,,,,,,,,,,,,,,,,,,,,,,,,,,,,,,,,,
,,,,,,,,,,stimuli/images/PICTURE_677.png,FAMILY,5ef089044e663d0ac00def4b,17/07/1994,2020-08-13_12h51.35.245,proactive2,2020.1.2,MacIntel,60,5f341be081b9052c55068110,5f352936681add074646fccb,4,,,,,,map,,,,,,0,27,27,53,1,6,2,,,,,,,,,,,,,,,,,,,,,,,,,,,,,,,,,,,,,,,,,,,,,,,,,,,,,,,,,,,,,,,,,,,,,,,,,,,,,,,,,,,,,,,,,,,,,,,,,,,
,,,,,,,,,,stimuli/images/PICTURE_327.png,LEADER,5ef089044e663d0ac00def4b,17/07/1994,2020-08-13_12h51.35.245,proactive2,2020.1.2,MacIntel,60,5f341be081b9052c55068110,5f352936681add074646fccb,4,,,,,,helmet,,,,,,0,28,28,17,1,2,2,,,,,,,,,,,,,,,,,,,,,,,,,,,,,,,,,,,,,,,,,,,,,,,,,,,,,,,,,,,,,,,,,,,,,,,,,,,,,,,,,,,,,,,,,,,,,,,,,,,
,,,,,,,,,,stimuli/images/PICTURE_509.png,APPLE,5ef089044e663d0ac00def4b,17/07/1994,2020-08-13_12h51.35.245,proactive2,2020.1.2,MacIntel,60,5f341be081b9052c55068110,5f352936681add074646fccb,4,,,,,,telephone,,,,,,0,29,29,38,1,4,2,,,,,,,,,,,,,,,,,,,,,,,,,,,,,,,,,,,,,,,,,,,,,,,,,,,,,,,,,,,,,,,,,,,,,,,,,,,,,,,,,,,,,,,,,,,,,,,,,,,
,,,,,,,,,,stimuli/images/PICTURE_314.png,SPEECH,5ef089044e663d0ac00def4b,17/07/1994,2020-08-13_12h51.35.245,proactive2,2020.1.2,MacIntel,60,5f341be081b9052c55068110,5f352936681add074646fccb,4,,,,,,perfume,,,,,,0,30,30,35,1,4,2,,,,,,,,,,,,,,,,,,,,,,,,,,,,,,,,,,,,,,,,,,,,,,,,,,,,,,,,,,,,,,,,,,,,,,,,,,,,,,,,,,,,,,,,,,,,,,,,,,,
,,,,,,,,,,stimuli/images/PICTURE_504.png,HOUSE,5ef089044e663d0ac00def4b,17/07/1994,2020-08-13_12h51.35.245,proactive2,2020.1.2,MacIntel,60,5f341be081b9052c55068110,5f352936681add074646fccb,4,,,,,,wheel,,,,,,0,31,31,36,1,4,2,,,,,,,,,,,,,,,,,,,,,,,,,,,,,,,,,,,,,,,,,,,,,,,,,,,,,,,,,,,,,,,,,,,,,,,,,,,,,,,,,,,,,,,,,,,,,,,,,,,
,,,,,,,,,,stimuli/images/PICTURE_348.png,TOILET,5ef089044e663d0ac00def4b,17/07/1994,2020-08-13_12h51.35.245,proactive2,2020.1.2,MacIntel,60,5f341be081b9052c55068110,5f352936681add074646fccb,4,,,,,,pepper,,,,,,0,32,32,4,1,1,2,,,,,,,,,,,,,,,,,,,,,,,,,,,,,,,,,,,,,,,,,,,,,,,,,,,,,,,,,,,,,,,,,,,,,,,,,,,,,,,,,,,,,,,,,,,,,,,,,,,
,,,,,,,,,,stimuli/images/PICTURE_655.png,SALE,5ef089044e663d0ac00def4b,17/07/1994,2020-08-13_12h51.35.245,proactive2,2020.1.2,MacIntel,60,5f341be081b9052c55068110,5f352936681add074646fccb,4,,,,,,megaphone,,,,,,0,33,33,57,1,6,2,,,,,,,,,,,,,,,,,,,,,,,,,,,,,,,,,,,,,,,,,,,,,,,,,,,,,,,,,,,,,,,,,,,,,,,,,,,,,,,,,,,,,,,,,,,,,,,,,,,
,,,,,,,,,,stimuli/images/PICTURE_509.png,SHOTS,5ef089044e663d0ac00def4b,17/07/1994,2020-08-13_12h51.35.245,proactive2,2020.1.2,MacIntel,60,5f341be081b9052c55068110,5f352936681add074646fccb,4,,,,,,telephone,,,,,,0,34,34,7,1,1,2,,,,,,,,,,,,,,,,,,,,,,,,,,,,,,,,,,,,,,,,,,,,,,,,,,,,,,,,,,,,,,,,,,,,,,,,,,,,,,,,,,,,,,,,,,,,,,,,,,,
,,,,,,,,,,stimuli/images/PICTURE_311.png,TOILET,5ef089044e663d0ac00def4b,17/07/1994,2020-08-13_12h51.35.245,proactive2,2020.1.2,MacIntel,60,5f341be081b9052c55068110,5f352936681add074646fccb,4,,,,,,razor,,,,,,0,35,35,54,1,6,2,,,,,,,,,,,,,,,,,,,,,,,,,,,,,,,,,,,,,,,,,,,,,,,,,,,,,,,,,,,,,,,,,,,,,,,,,,,,,,,,,,,,,,,,,,,,,,,,,,,
,,,,,,,,,,stimuli/images/PICTURE_123.png,SALE,5ef089044e663d0ac00def4b,17/07/1994,2020-08-13_12h51.35.245,proactive2,2020.1.2,MacIntel,60,5f341be081b9052c55068110,5f352936681add074646fccb,4,,,,,,dart,,,,,,0,36,36,8,1,1,2,,,,,,,,,,,,,,,,,,,,,,,,,,,,,,,,,,,,,,,,,,,,,,,,,,,,,,,,,,,,,,,,,,,,,,,,,,,,,,,,,,,,,,,,,,,,,,,,,,,
,,,,,,,,,,stimuli/images/PICTURE_487.png,POLICY,5ef089044e663d0ac00def4b,17/07/1994,2020-08-13_12h51.35.245,proactive2,2020.1.2,MacIntel,60,5f341be081b9052c55068110,5f352936681add074646fccb,4,,,,,,basket,,,,,,0,37,37,34,1,4,2,,,,,,,,,,,,,,,,,,,,,,,,,,,,,,,,,,,,,,,,,,,,,,,,,,,,,,,,,,,,,,,,,,,,,,,,,,,,,,,,,,,,,,,,,,,,,,,,,,,
,,,,,,,,,,stimuli/images/PICTURE_68.png,KIND,5ef089044e663d0ac00def4b,17/07/1994,2020-08-13_12h51.35.245,proactive2,2020.1.2,MacIntel,60,5f341be081b9052c55068110,5f352936681add074646fccb,4,,,,,,candle,,,,,,0,38,38,23,1,3,2,,,,,,,,,,,,,,,,,,,,,,,,,,,,,,,,,,,,,,,,,,,,,,,,,,,,,,,,,,,,,,,,,,,,,,,,,,,,,,,,,,,,,,,,,,,,,,,,,,,
,,,,,,,,,,stimuli/images/PICTURE_2.png,AREA,5ef089044e663d0ac00def4b,17/07/1994,2020-08-13_12h51.35.245,proactive2,2020.1.2,MacIntel,60,5f341be081b9052c55068110,5f352936681add074646fccb,4,,,,,,tyre,,,,,,0,39,39,32,1,4,2,,,,,,,,,,,,,,,,,,,,,,,,,,,,,,,,,,,,,,,,,,,,,,,,,,,,,,,,,,,,,,,,,,,,,,,,,,,,,,,,,,,,,,,,,,,,,,,,,,,
,,,,,,,,,,stimuli/images/PICTURE_297.png,BODY,5ef089044e663d0ac00def4b,17/07/1994,2020-08-13_12h51.35.245,proactive2,2020.1.2,MacIntel,60,5f341be081b9052c55068110,5f352936681add074646fccb,4,,,,,,aeroplane,,,,,,0,40,40,51,1,6,2,,,,,,,,,,,,,,,,,,,,,,,,,,,,,,,,,,,,,,,,,,,,,,,,,,,,,,,,,,,,,,,,,,,,,,,,,,,,,,,,,,,,,,,,,,,,,,,,,,,
,,,,,,,,,,stimuli/images/PICTURE_141.png,CLIENT,5ef089044e663d0ac00def4b,17/07/1994,2020-08-13_12h51.35.245,proactive2,2020.1.2,MacIntel,60,5f341be081b9052c55068110,5f352936681add074646fccb,4,,,,,,sunflower,,,,,,0,41,41,30,1,4,2,,,,,,,,,,,,,,,,,,,,,,,,,,,,,,,,,,,,,,,,,,,,,,,,,,,,,,,,,,,,,,,,,,,,,,,,,,,,,,,,,,,,,,,,,,,,,,,,,,,
,,,,,,,,,,stimuli/images/PICTURE_296.png,CLOCK,5ef089044e663d0ac00def4b,17/07/1994,2020-08-13_12h51.35.245,proactive2,2020.1.2,MacIntel,60,5f341be081b9052c55068110,5f352936681add074646fccb,4,,,,,,bolt,,,,,,0,42,42,18,1,2,2,,,,,,,,,,,,,,,,,,,,,,,,,,,,,,,,,,,,,,,,,,,,,,,,,,,,,,,,,,,,,,,,,,,,,,,,,,,,,,,,,,,,,,,,,,,,,,,,,,,
,,,,,,,,,,stimuli/images/PICTURE_215.png,FOOD,5ef089044e663d0ac00def4b,17/07/1994,2020-08-13_12h51.35.245,proactive2,2020.1.2,MacIntel,60,5f341be081b9052c55068110,5f352936681add074646fccb,4,,,,,,boot,,,,,,0,43,43,5,1,1,2,,,,,,,,,,,,,,,,,,,,,,,,,,,,,,,,,,,,,,,,,,,,,,,,,,,,,,,,,,,,,,,,,,,,,,,,,,,,,,,,,,,,,,,,,,,,,,,,,,,
,,,,,,,,,,stimuli/images/PICTURE_33.png,COPS,5ef089044e663d0ac00def4b,17/07/1994,2020-08-13_12h51.35.245,proactive2,2020.1.2,MacIntel,60,5f341be081b9052c55068110,5f352936681add074646fccb,4,,,,,,frame,,,,,,0,44,44,29,1,3,2,,,,,,,,,,,,,,,,,,,,,,,,,,,,,,,,,,,,,,,,,,,,,,,,,,,,,,,,,,,,,,,,,,,,,,,,,,,,,,,,,,,,,,,,,,,,,,,,,,,
,,,,,,,,,,stimuli/images/PICTURE_405.png,HOUSE,5ef089044e663d0ac00def4b,17/07/1994,2020-08-13_12h51.35.245,proactive2,2020.1.2,MacIntel,60,5f341be081b9052c55068110,5f352936681add074646fccb,4,,,,,,anchor,,,,,,0,45,45,2,1,1,2,,,,,,,,,,,,,,,,,,,,,,,,,,,,,,,,,,,,,,,,,,,,,,,,,,,,,,,,,,,,,,,,,,,,,,,,,,,,,,,,,,,,,,,,,,,,,,,,,,,
,,,,,,,,,,stimuli/images/PICTURE_405.png,JUNGLE,5ef089044e663d0ac00def4b,17/07/1994,2020-08-13_12h51.35.245,proactive2,2020.1.2,MacIntel,60,5f341be081b9052c55068110,5f352936681add074646fccb,4,,,,,,anchor,,,,,,0,46,46,13,1,2,2,,,,,,,,,,,,,,,,,,,,,,,,,,,,,,,,,,,,,,,,,,,,,,,,,,,,,,,,,,,,,,,,,,,,,,,,,,,,,,,,,,,,,,,,,,,,,,,,,,,
,,,,,,,,,,stimuli/images/PICTURE_285.png,WRITER,5ef089044e663d0ac00def4b,17/07/1994,2020-08-13_12h51.35.245,proactive2,2020.1.2,MacIntel,60,5f341be081b9052c55068110,5f352936681add074646fccb,4,,,,,,carrot,,,,,,0,47,47,6,1,1,2,,,,,,,,,,,,,,,,,,,,,,,,,,,,,,,,,,,,,,,,,,,,,,,,,,,,,,,,,,,,,,,,,,,,,,,,,,,,,,,,,,,,,,,,,,,,,,,,,,,
,,,,,,,,,,stimuli/images/PICTURE_453.png,FAMILY,5ef089044e663d0ac00def4b,17/07/1994,2020-08-13_12h51.35.245,proactive2,2020.1.2,MacIntel,60,5f341be081b9052c55068110,5f352936681add074646fccb,4,,,,,,scissors,,,,,,0,48,48,48,1,5,2,,,,,,,,,,,,,,,,,,,,,,,,,,,,,,,,,,,,,,,,,,,,,,,,,,,,,,,,,,,,,,,,,,,,,,,,,,,,,,,,,,,,,,,,,,,,,,,,,,,
,,,,,,,,,,stimuli/images/PICTURE_491.png,SERIES,5ef089044e663d0ac00def4b,17/07/1994,2020-08-13_12h51.35.245,proactive2,2020.1.2,MacIntel,60,5f341be081b9052c55068110,5f352936681add074646fccb,4,,,,,,rug,,,,,,0,49,49,39,1,4,2,,,,,,,,,,,,,,,,,,,,,,,,,,,,,,,,,,,,,,,,,,,,,,,,,,,,,,,,,,,,,,,,,,,,,,,,,,,,,,,,,,,,,,,,,,,,,,,,,,,
,,,,,,,,,,stimuli/images/PICTURE_470.png,MOMENT,5ef089044e663d0ac00def4b,17/07/1994,2020-08-13_12h51.35.245,proactive2,2020.1.2,MacIntel,60,5f341be081b9052c55068110,5f352936681add074646fccb,4,,,,,,motorbike,,,,,,0,50,50,40,1,5,2,,,,,,,,,,,,,,,,,,,,,,,,,,,,,,,,,,,,,,,,,,,,,,,,,,,,,,,,,,,,,,,,,,,,,,,,,,,,,,,,,,,,,,,,,,,,,,,,,,,
,,,,,,,,,,stimuli/images/PICTURE_95.png,NIGHT,5ef089044e663d0ac00def4b,17/07/1994,2020-08-13_12h51.35.245,proactive2,2020.1.2,MacIntel,60,5f341be081b9052c55068110,5f352936681add074646fccb,4,,,,,,suitcase,,,,,,0,51,51,37,1,4,2,,,,,,,,,,,,,,,,,,,,,,,,,,,,,,,,,,,,,,,,,,,,,,,,,,,,,,,,,,,,,,,,,,,,,,,,,,,,,,,,,,,,,,,,,,,,,,,,,,,
,,,,,,,,,,stimuli/images/PICTURE_405.png,JUNGLE,5ef089044e663d0ac00def4b,17/07/1994,2020-08-13_12h51.35.245,proactive2,2020.1.2,MacIntel,60,5f341be081b9052c55068110,5f352936681add074646fccb,4,,,,,,anchor,,,,,,0,52,52,58,1,6,2,,,,,,,,,,,,,,,,,,,,,,,,,,,,,,,,,,,,,,,,,,,,,,,,,,,,,,,,,,,,,,,,,,,,,,,,,,,,,,,,,,,,,,,,,,,,,,,,,,,
,,,,,,,,,,stimuli/images/PICTURE_160.png,HOTEL,5ef089044e663d0ac00def4b,17/07/1994,2020-08-13_12h51.35.245,proactive2,2020.1.2,MacIntel,60,5f341be081b9052c55068110,5f352936681add074646fccb,4,,,,,,wheelbarrow,,,,,,0,53,53,16,1,2,2,,,,,,,,,,,,,,,,,,,,,,,,,,,,,,,,,,,,,,,,,,,,,,,,,,,,,,,,,,,,,,,,,,,,,,,,,,,,,,,,,,,,,,,,,,,,,,,,,,,
,,,,,,,,,,stimuli/images/PICTURE_348.png,DUDE,5ef089044e663d0ac00def4b,17/07/1994,2020-08-13_12h51.35.245,proactive2,2020.1.2,MacIntel,60,5f341be081b9052c55068110,5f352936681add074646fccb,4,,,,,,pepper,,,,,,0,54,54,59,1,6,2,,,,,,,,,,,,,,,,,,,,,,,,,,,,,,,,,,,,,,,,,,,,,,,,,,,,,,,,,,,,,,,,,,,,,,,,,,,,,,,,,,,,,,,,,,,,,,,,,,,
,,,,,,,,,,stimuli/images/PICTURE_57.png,NATION,5ef089044e663d0ac00def4b,17/07/1994,2020-08-13_12h51.35.245,proactive2,2020.1.2,MacIntel,60,5f341be081b9052c55068110,5f352936681add074646fccb,4,,,,,,stamp,,,,,,0,55,55,21,1,3,2,,,,,,,,,,,,,,,,,,,,,,,,,,,,,,,,,,,,,,,,,,,,,,,,,,,,,,,,,,,,,,,,,,,,,,,,,,,,,,,,,,,,,,,,,,,,,,,,,,,
,,,,,,,,,,stimuli/images/PICTURE_147.png,LEADER,5ef089044e663d0ac00def4b,17/07/1994,2020-08-13_12h51.35.245,proactive2,2020.1.2,MacIntel,60,5f341be081b9052c55068110,5f352936681add074646fccb,4,,,,,,hanger,,,,,,0,56,56,33,1,4,2,,,,,,,,,,,,,,,,,,,,,,,,,,,,,,,,,,,,,,,,,,,,,,,,,,,,,,,,,,,,,,,,,,,,,,,,,,,,,,,,,,,,,,,,,,,,,,,,,,,
,,,,,,,,,,stimuli/images/PICTURE_564.png,PLENTY,5ef089044e663d0ac00def4b,17/07/1994,2020-08-13_12h51.35.245,proactive2,2020.1.2,MacIntel,60,5f341be081b9052c55068110,5f352936681add074646fccb,4,,,,,,spoon,,,,,,0,57,57,11,1,2,2,,,,,,,,,,,,,,,,,,,,,,,,,,,,,,,,,,,,,,,,,,,,,,,,,,,,,,,,,,,,,,,,,,,,,,,,,,,,,,,,,,,,,,,,,,,,,,,,,,,
,,,,,,,,,,stimuli/images/PICTURE_708.png,VALLEY,5ef089044e663d0ac00def4b,17/07/1994,2020-08-13_12h51.35.245,proactive2,2020.1.2,MacIntel,60,5f341be081b9052c55068110,5f352936681add074646fccb,4,,,,,,monkey,,,,,,0,58,58,45,1,5,2,,,,,,,,,,,,,,,,,,,,,,,,,,,,,,,,,,,,,,,,,,,,,,,,,,,,,,,,,,,,,,,,,,,,,,,,,,,,,,,,,,,,,,,,,,,,,,,,,,,
,,?,0.000895,0,,,,,,stimuli/images/PICTURE_405.png,HOUSE,5ef089044e663d0ac00def4b,17/07/1994,2020-08-13_12h51.35.245,proactive2,2020.1.2,MacIntel,60,5f341be081b9052c55068110,5f352936681add074646fccb,4,,,,,,anchor,,,,,,,,,,,1,2,0,0,0,2,1,,,,,,,,,,,,,,,,,,,,,,,,,,,,,,,,,,,,,,,,,,,,,,,,,,,,,,,,,,,,,,,,,,,,,,,,,,,,,,,,,,,,,,,,,,,,,,
,,?,0.000605,0,,,,,,stimuli/images/PICTURE_18.png,RIVER,5ef089044e663d0ac00def4b,17/07/1994,2020-08-13_12h51.35.245,proactive2,2020.1.2,MacIntel,60,5f341be081b9052c55068110,5f352936681add074646fccb,4,,,,,,planet,,,,,,,,,,,3,2,0,1,1,22,1,,,,,,,,,,,,,,,,,,,,,,,,,,,,,,,,,,,,,,,,,,,,,,,,,,,,,,,,,,,,,,,,,,,,,,,,,,,,,,,,,,,,,,,,,,,,,,
,,?,0.00057,0,,,,,,stimuli/images/PICTURE_32.png,LETTER,5ef089044e663d0ac00def4b,17/07/1994,2020-08-13_12h51.35.245,proactive2,2020.1.2,MacIntel,60,5f341be081b9052c55068110,5f352936681add074646fccb,4,,,,,,crown,,,,,,,,,,,6,2,0,2,2,56,1,,,,,,,,,,,,,,,,,,,,,,,,,,,,,,,,,,,,,,,,,,,,,,,,,,,,,,,,,,,,,,,,,,,,,,,,,,,,,,,,,,,,,,,,,,,,,,
,,?,0.00048,0,,,,,,stimuli/images/PICTURE_470.png,BEAUTY,5ef089044e663d0ac00def4b,17/07/1994,2020-08-13_12h51.35.245,proactive2,2020.1.2,MacIntel,60,5f341be081b9052c55068110,5f352936681add074646fccb,4,,,,,,motorbike,,,,,,,,,,,3,2,0,3,3,26,1,,,,,,,,,,,,,,,,,,,,,,,,,,,,,,,,,,,,,,,,,,,,,,,,,,,,,,,,,,,,,,,,,,,,,,,,,,,,,,,,,,,,,,,,,,,,,,
,,?,0.00061,0,,,,,,stimuli/images/PICTURE_405.png,JUNGLE,5ef089044e663d0ac00def4b,17/07/1994,2020-08-13_12h51.35.245,proactive2,2020.1.2,MacIntel,60,5f341be081b9052c55068110,5f352936681add074646fccb,4,,,,,,anchor,,,,,,,,,,,6,2,0,4,4,58,1,,,,,,,,,,,,,,,,,,,,,,,,,,,,,,,,,,,,,,,,,,,,,,,,,,,,,,,,,,,,,,,,,,,,,,,,,,,,,,,,,,,,,,,,,,,,,,
,,POLICY,2.532585,1,,,,,,stimuli/images/PICTURE_487.png,POLICY,5ef089044e663d0ac00def4b,17/07/1994,2020-08-13_12h51.35.245,proactive2,2020.1.2,MacIntel,60,5f341be081b9052c55068110,5f352936681add074646fccb,4,,,,,,basket,,,,,,,,,,,4,2,0,5,5,34,1,,,,,,,,,,,,,,,,,,,,,,,,,,,,,,,,,,,,,,,,,,,,,,,,,,,,,,,,,,,,,,,,,,,,,,,,,,,,,,,,,,,,,,,,,,,,,,
,,?,0.000855,0,,,,,,stimuli/images/PICTURE_215.png,BOYS,5ef089044e663d0ac00def4b,17/07/1994,2020-08-13_12h51.35.245,proactive2,2020.1.2,MacIntel,60,5f341be081b9052c55068110,5f352936681add074646fccb,4,,,,,,boot,,,,,,,,,,,3,2,0,6,6,24,1,,,,,,,,,,,,,,,,,,,,,,,,,,,,,,,,,,,,,,,,,,,,,,,,,,,,,,,,,,,,,,,,,,,,,,,,,,,,,,,,,,,,,,,,,,,,,,
,,?,0.000465,0,,,,,,stimuli/images/PICTURE_255.png,PENNY,5ef089044e663d0ac00def4b,17/07/1994,2020-08-13_12h51.35.245,proactive2,2020.1.2,MacIntel,60,5f341be081b9052c55068110,5f352936681add074646fccb,4,,,,,,shovel,,,,,,,,,,,2,2,0,7,7,19,1,,,,,,,,,,,,,,,,,,,,,,,,,,,,,,,,,,,,,,,,,,,,,,,,,,,,,,,,,,,,,,,,,,,,,,,,,,,,,,,,,,,,,,,,,,,,,,
,,?,0.000705,0,,,,,,stimuli/images/PICTURE_327.png,LEADER,5ef089044e663d0ac00def4b,17/07/1994,2020-08-13_12h51.35.245,proactive2,2020.1.2,MacIntel,60,5f341be081b9052c55068110,5f352936681add074646fccb,4,,,,,,helmet,,,,,,,,,,,2,2,0,8,8,17,1,,,,,,,,,,,,,,,,,,,,,,,,,,,,,,,,,,,,,,,,,,,,,,,,,,,,,,,,,,,,,,,,,,,,,,,,,,,,,,,,,,,,,,,,,,,,,,
,,?,0.00084,0,,,,,,stimuli/images/PICTURE_655.png,SALE,5ef089044e663d0ac00def4b,17/07/1994,2020-08-13_12h51.35.245,proactive2,2020.1.2,MacIntel,60,5f341be081b9052c55068110,5f352936681add074646fccb,4,,,,,,megaphone,,,,,,,,,,,6,2,0,9,9,57,1,,,,,,,,,,,,,,,,,,,,,,,,,,,,,,,,,,,,,,,,,,,,,,,,,,,,,,,,,,,,,,,,,,,,,,,,,,,,,,,,,,,,,,,,,,,,,,
,,?,0.0007,0,,,,,,stimuli/images/PICTURE_708.png,VALLEY,5ef089044e663d0ac00def4b,17/07/1994,2020-08-13_12h51.35.245,proactive2,2020.1.2,MacIntel,60,5f341be081b9052c55068110,5f352936681add074646fccb,4,,,,,,monkey,,,,,,,,,,,5,2,0,10,10,45,1,,,,,,,,,,,,,,,,,,,,,,,,,,,,,,,,,,,,,,,,,,,,,,,,,,,,,,,,,,,,,,,,,,,,,,,,,,,,,,,,,,,,,,,,,,,,,,
,,?,0.00062,0,,,,,,stimuli/images/PICTURE_177.png,HOUSE,5ef089044e663d0ac00def4b,17/07/1994,2020-08-13_12h51.35.245,proactive2,2020.1.2,MacIntel,60,5f341be081b9052c55068110,5f352936681add074646fccb,4,,,,,,mushroom,,,,,,,,,,,3,2,0,11,11,25,1,,,,,,,,,,,,,,,,,,,,,,,,,,,,,,,,,,,,,,,,,,,,,,,,,,,,,,,,,,,,,,,,,,,,,,,,,,,,,,,,,,,,,,,,,,,,,,
,,?,0.00059,0,,,,,,stimuli/images/PICTURE_509.png,SHOTS,5ef089044e663d0ac00def4b,17/07/1994,2020-08-13_12h51.35.245,proactive2,2020.1.2,MacIntel,60,5f341be081b9052c55068110,5f352936681add074646fccb,4,,,,,,telephone,,,,,,,,,,,1,2,0,12,12,7,1,,,,,,,,,,,,,,,,,,,,,,,,,,,,,,,,,,,,,,,,,,,,,,,,,,,,,,,,,,,,,,,,,,,,,,,,,,,,,,,,,,,,,,,,,,,,,,
,,?,0.00067,0,,,,,,stimuli/images/PICTURE_356.png,CANDY,5ef089044e663d0ac00def4b,17/07/1994,2020-08-13_12h51.35.245,proactive2,2020.1.2,MacIntel,60,5f341be081b9052c55068110,5f352936681add074646fccb,4,,,,,,pawn,,,,,,,,,,,5,2,0,13,13,46,1,,,,,,,,,,,,,,,,,,,,,,,,,,,,,,,,,,,,,,,,,,,,,,,,,,,,,,,,,,,,,,,,,,,,,,,,,,,,,,,,,,,,,,,,,,,,,,
,,?,0.000625,0,,,,,,stimuli/images/PICTURE_57.png,CASINO,5ef089044e663d0ac00def4b,17/07/1994,2020-08-13_12h51.35.245,proactive2,2020.1.2,MacIntel,60,5f341be081b9052c55068110,5f352936681add074646fccb,4,,,,,,stamp,,,,,,,,,,,2,2,0,14,14,12,1,,,,,,,,,,,,,,,,,,,,,,,,,,,,,,,,,,,,,,,,,,,,,,,,,,,,,,,,,,,,,,,,,,,,,,,,,,,,,,,,,,,,,,,,,,,,,,
,,?,0.003625,0,,,,,,stimuli/images/PICTURE_33.png,COPS,5ef089044e663d0ac00def4b,17/07/1994,2020-08-13_12h51.35.245,proactive2,2020.1.2,MacIntel,60,5f341be081b9052c55068110,5f352936681add074646fccb,4,,,,,,frame,,,,,,,,,,,3,2,0,15,15,29,1,,,,,,,,,,,,,,,,,,,,,,,,,,,,,,,,,,,,,,,,,,,,,,,,,,,,,,,,,,,,,,,,,,,,,,,,,,,,,,,,,,,,,,,,,,,,,,
,,?,0.000485,0,,,,,,stimuli/images/PICTURE_2.png,YARD,5ef089044e663d0ac00def4b,17/07/1994,2020-08-13_12h51.35.245,proactive2,2020.1.2,MacIntel,60,5f341be081b9052c55068110,5f352936681add074646fccb,4,,,,,,tyre,,,,,,,,,,,6,2,0,16,16,55,1,,,,,,,,,,,,,,,,,,,,,,,,,,,,,,,,,,,,,,,,,,,,,,,,,,,,,,,,,,,,,,,,,,,,,,,,,,,,,,,,,,,,,,,,,,,,,,
,,?,0.000465,0,,,,,,stimuli/images/PICTURE_654.png,COPS,5ef089044e663d0ac00def4b,17/07/1994,2020-08-13_12h51.35.245,proactive2,2020.1.2,MacIntel,60,5f341be081b9052c55068110,5f352936681add074646fccb,4,,,,,,pencil,,,,,,,,,,,2,2,0,17,17,10,1,,,,,,,,,,,,,,,,,,,,,,,,,,,,,,,,,,,,,,,,,,,,,,,,,,,,,,,,,,,,,,,,,,,,,,,,,,,,,,,,,,,,,,,,,,,,,,
,,SPEECH,2.42672,1,,,,,,stimuli/images/PICTURE_314.png,SPEECH,5ef089044e663d0ac00def4b,17/07/1994,2020-08-13_12h51.35.245,proactive2,2020.1.2,MacIntel,60,5f341be081b9052c55068110,5f352936681add074646fccb,4,,,,,,perfume,,,,,,,,,,,4,2,0,18,18,35,1,,,,,,,,,,,,,,,,,,,,,,,,,,,,,,,,,,,,,,,,,,,,,,,,,,,,,,,,,,,,,,,,,,,,,,,,,,,,,,,,,,,,,,,,,,,,,,
,,?,0.000805,0,,,,,,stimuli/images/PICTURE_57.png,NATION,5ef089044e663d0ac00def4b,17/07/1994,2020-08-13_12h51.35.245,proactive2,2020.1.2,MacIntel,60,5f341be081b9052c55068110,5f352936681add074646fccb,4,,,,,,stamp,,,,,,,,,,,3,2,0,19,19,21,1,,,,,,,,,,,,,,,,,,,,,,,,,,,,,,,,,,,,,,,,,,,,,,,,,,,,,,,,,,,,,,,,,,,,,,,,,,,,,,,,,,,,,,,,,,,,,,
,,?,5.94744,0,,,,,,stimuli/images/PICTURE_491.png,SERIES,5ef089044e663d0ac00def4b,17/07/1994,2020-08-13_12h51.35.245,proactive2,2020.1.2,MacIntel,60,5f341be081b9052c55068110,5f352936681add074646fccb,4,,,,,,rug,,,,,,,,,,,4,2,0,20,20,39,1,,,,,,,,,,,,,,,,,,,,,,,,,,,,,,,,,,,,,,,,,,,,,,,,,,,,,,,,,,,,,,,,,,,,,,,,,,,,,,,,,,,,,,,,,,,,,,
,,?,0.00064,0,,,,,,stimuli/images/PICTURE_688.png,CLOCK,5ef089044e663d0ac00def4b,17/07/1994,2020-08-13_12h51.35.245,proactive2,2020.1.2,MacIntel,60,5f341be081b9052c55068110,5f352936681add074646fccb,4,,,,,,runner,,,,,,,,,,,5,2,0,21,21,42,1,,,,,,,,,,,,,,,,,,,,,,,,,,,,,,,,,,,,,,,,,,,,,,,,,,,,,,,,,,,,,,,,,,,,,,,,,,,,,,,,,,,,,,,,,,,,,,
,,?,0.000435,0,,,,,,stimuli/images/PICTURE_215.png,FOOD,5ef089044e663d0ac00def4b,17/07/1994,2020-08-13_12h51.35.245,proactive2,2020.1.2,MacIntel,60,5f341be081b9052c55068110,5f352936681add074646fccb,4,,,,,,boot,,,,,,,,,,,1,2,0,22,22,5,1,,,,,,,,,,,,,,,,,,,,,,,,,,,,,,,,,,,,,,,,,,,,,,,,,,,,,,,,,,,,,,,,,,,,,,,,,,,,,,,,,,,,,,,,,,,,,,
,,?,0.00048,0,,,,,,stimuli/images/PICTURE_348.png,TOILET,5ef089044e663d0ac00def4b,17/07/1994,2020-08-13_12h51.35.245,proactive2,2020.1.2,MacIntel,60,5f341be081b9052c55068110,5f352936681add074646fccb,4,,,,,,pepper,,,,,,,,,,,1,2,0,23,23,4,1,,,,,,,,,,,,,,,,,,,,,,,,,,,,,,,,,,,,,,,,,,,,,,,,,,,,,,,,,,,,,,,,,,,,,,,,,,,,,,,,,,,,,,,,,,,,,,
,,?,0.001195,0,,,,,,stimuli/images/PICTURE_296.png,CLOCK,5ef089044e663d0ac00def4b,17/07/1994,2020-08-13_12h51.35.245,proactive2,2020.1.2,MacIntel,60,5f341be081b9052c55068110,5f352936681add074646fccb,4,,,,,,bolt,,,,,,,,,,,2,2,0,24,24,18,1,,,,,,,,,,,,,,,,,,,,,,,,,,,,,,,,,,,,,,,,,,,,,,,,,,,,,,,,,,,,,,,,,,,,,,,,,,,,,,,,,,,,,,,,,,,,,,
,,?,0.000385,0,,,,,,stimuli/images/PICTURE_311.png,FLESH,5ef089044e663d0ac00def4b,17/07/1994,2020-08-13_12h51.35.245,proactive2,2020.1.2,MacIntel,60,5f341be081b9052c55068110,5f352936681add074646fccb,4,,,,,,razor,,,,,,,,,,,1,2,0,25,25,3,1,,,,,,,,,,,,,,,,,,,,,,,,,,,,,,,,,,,,,,,,,,,,,,,,,,,,,,,,,,,,,,,,,,,,,,,,,,,,,,,,,,,,,,,,,,,,,,
,,HOUSE,2.12568,1,,,,,,stimuli/images/PICTURE_504.png,HOUSE,5ef089044e663d0ac00def4b,17/07/1994,2020-08-13_12h51.35.245,proactive2,2020.1.2,MacIntel,60,5f341be081b9052c55068110,5f352936681add074646fccb,4,,,,,,wheel,,,,,,,,,,,4,2,0,26,26,36,1,,,,,,,,,,,,,,,,,,,,,,,,,,,,,,,,,,,,,,,,,,,,,,,,,,,,,,,,,,,,,,,,,,,,,,,,,,,,,,,,,,,,,,,,,,,,,,
,,?,0.001225,0,,,,,,stimuli/images/PICTURE_677.png,FAMILY,5ef089044e663d0ac00def4b,17/07/1994,2020-08-13_12h51.35.245,proactive2,2020.1.2,MacIntel,60,5f341be081b9052c55068110,5f352936681add074646fccb,4,,,,,,map,,,,,,,,,,,6,2,0,27,27,53,1,,,,,,,,,,,,,,,,,,,,,,,,,,,,,,,,,,,,,,,,,,,,,,,,,,,,,,,,,,,,,,,,,,,,,,,,,,,,,,,,,,,,,,,,,,,,,,
,,?,0.000415,0,,,,,,stimuli/images/PICTURE_403.png,FAMILY,5ef089044e663d0ac00def4b,17/07/1994,2020-08-13_12h51.35.245,proactive2,2020.1.2,MacIntel,60,5f341be081b9052c55068110,5f352936681add074646fccb,4,,,,,,cathedral,,,,,,,,,,,1,2,0,28,28,9,1,,,,,,,,,,,,,,,,,,,,,,,,,,,,,,,,,,,,,,,,,,,,,,,,,,,,,,,,,,,,,,,,,,,,,,,,,,,,,,,,,,,,,,,,,,,,,,
,,?,0.00038,0,,,,,,stimuli/images/PICTURE_453.png,FAMILY,5ef089044e663d0ac00def4b,17/07/1994,2020-08-13_12h51.35.245,proactive2,2020.1.2,MacIntel,60,5f341be081b9052c55068110,5f352936681add074646fccb,4,,,,,,scissors,,,,,,,,,,,5,2,0,29,29,48,1,,,,,,,,,,,,,,,,,,,,,,,,,,,,,,,,,,,,,,,,,,,,,,,,,,,,,,,,,,,,,,,,,,,,,,,,,,,,,,,,,,,,,,,,,,,,,,
,,?,0.00036,0,,,,,,stimuli/images/PICTURE_208.png,SPIRIT,5ef089044e663d0ac00def4b,17/07/1994,2020-08-13_12h51.35.245,proactive2,2020.1.2,MacIntel,60,5f341be081b9052c55068110,5f352936681add074646fccb,4,,,,,,microphone,,,,,,,,,,,3,2,0,30,30,28,1,,,,,,,,,,,,,,,,,,,,,,,,,,,,,,,,,,,,,,,,,,,,,,,,,,,,,,,,,,,,,,,,,,,,,,,,,,,,,,,,,,,,,,,,,,,,,,
,,AREA,1.72705,1,,,,,,stimuli/images/PICTURE_2.png,AREA,5ef089044e663d0ac00def4b,17/07/1994,2020-08-13_12h51.35.245,proactive2,2020.1.2,MacIntel,60,5f341be081b9052c55068110,5f352936681add074646fccb,4,,,,,,tyre,,,,,,,,,,,4,2,0,31,31,32,1,,,,,,,,,,,,,,,,,,,,,,,,,,,,,,,,,,,,,,,,,,,,,,,,,,,,,,,,,,,,,,,,,,,,,,,,,,,,,,,,,,,,,,,,,,,,,,
,,LEADER,1.783515,1,,,,,,stimuli/images/PICTURE_147.png,LEADER,5ef089044e663d0ac00def4b,17/07/1994,2020-08-13_12h51.35.245,proactive2,2020.1.2,MacIntel,60,5f341be081b9052c55068110,5f352936681add074646fccb,4,,,,,,hanger,,,,,,,,,,,4,2,0,32,32,33,1,,,,,,,,,,,,,,,,,,,,,,,,,,,,,,,,,,,,,,,,,,,,,,,,,,,,,,,,,,,,,,,,,,,,,,,,,,,,,,,,,,,,,,,,,,,,,,
,,?,0.001205,0,,,,,,stimuli/images/PICTURE_677.png,PHOTO,5ef089044e663d0ac00def4b,17/07/1994,2020-08-13_12h51.35.245,proactive2,2020.1.2,MacIntel,60,5f341be081b9052c55068110,5f352936681add074646fccb,4,,,,,,map,,,,,,,,,,,2,2,0,33,33,14,1,,,,,,,,,,,,,,,,,,,,,,,,,,,,,,,,,,,,,,,,,,,,,,,,,,,,,,,,,,,,,,,,,,,,,,,,,,,,,,,,,,,,,,,,,,,,,,
,,?,0.000715,0,,,,,,stimuli/images/PICTURE_68.png,KIND,5ef089044e663d0ac00def4b,17/07/1994,2020-08-13_12h51.35.245,proactive2,2020.1.2,MacIntel,60,5f341be081b9052c55068110,5f352936681add074646fccb,4,,,,,,candle,,,,,,,,,,,3,2,0,34,34,23,1,,,,,,,,,,,,,,,,,,,,,,,,,,,,,,,,,,,,,,,,,,,,,,,,,,,,,,,,,,,,,,,,,,,,,,,,,,,,,,,,,,,,,,,,,,,,,,
,,?,0.00068,0,,,,,,stimuli/images/PICTURE_2.png,JUNGLE,5ef089044e663d0ac00def4b,17/07/1994,2020-08-13_12h51.35.245,proactive2,2020.1.2,MacIntel,60,5f341be081b9052c55068110,5f352936681add074646fccb,4,,,,,,tyre,,,,,,,,,,,1,2,0,35,35,1,1,,,,,,,,,,,,,,,,,,,,,,,,,,,,,,,,,,,,,,,,,,,,,,,,,,,,,,,,,,,,,,,,,,,,,,,,,,,,,,,,,,,,,,,,,,,,,,
,,?,0.000795,0,,,,,,stimuli/images/PICTURE_348.png,DUDE,5ef089044e663d0ac00def4b,17/07/1994,2020-08-13_12h51.35.245,proactive2,2020.1.2,MacIntel,60,5f341be081b9052c55068110,5f352936681add074646fccb,4,,,,,,pepper,,,,,,,,,,,6,2,0,36,36,59,1,,,,,,,,,,,,,,,,,,,,,,,,,,,,,,,,,,,,,,,,,,,,,,,,,,,,,,,,,,,,,,,,,,,,,,,,,,,,,,,,,,,,,,,,,,,,,,
,,?,0.000525,0,,,,,,stimuli/images/PICTURE_487.png,ROOF,5ef089044e663d0ac00def4b,17/07/1994,2020-08-13_12h51.35.245,proactive2,2020.1.2,MacIntel,60,5f341be081b9052c55068110,5f352936681add074646fccb,4,,,,,,basket,,,,,,,,,,,6,2,0,37,37,50,1,,,,,,,,,,,,,,,,,,,,,,,,,,,,,,,,,,,,,,,,,,,,,,,,,,,,,,,,,,,,,,,,,,,,,,,,,,,,,,,,,,,,,,,,,,,,,,
,,?,0.000485,0,,,,,,stimuli/images/PICTURE_285.png,PRINCE,5ef089044e663d0ac00def4b,17/07/1994,2020-08-13_12h51.35.245,proactive2,2020.1.2,MacIntel,60,5f341be081b9052c55068110,5f352936681add074646fccb,4,,,,,,carrot,,,,,,,,,,,3,2,0,38,38,20,1,,,,,,,,,,,,,,,,,,,,,,,,,,,,,,,,,,,,,,,,,,,,,,,,,,,,,,,,,,,,,,,,,,,,,,,,,,,,,,,,,,,,,,,,,,,,,,
,,GIRL,1.55523,1,,,,,,stimuli/images/PICTURE_93.png,GIRL,5ef089044e663d0ac00def4b,17/07/1994,2020-08-13_12h51.35.245,proactive2,2020.1.2,MacIntel,60,5f341be081b9052c55068110,5f352936681add074646fccb,4,,,,,,skateboard,,,,,,,,,,,4,2,0,39,39,31,1,,,,,,,,,,,,,,,,,,,,,,,,,,,,,,,,,,,,,,,,,,,,,,,,,,,,,,,,,,,,,,,,,,,,,,,,,,,,,,,,,,,,,,,,,,,,,,
,,CLIENT,3.082305,1,,,,,,stimuli/images/PICTURE_141.png,CLIENT,5ef089044e663d0ac00def4b,17/07/1994,2020-08-13_12h51.35.245,proactive2,2020.1.2,MacIntel,60,5f341be081b9052c55068110,5f352936681add074646fccb,4,,,,,,sunflower,,,,,,,,,,,4,2,0,40,40,30,1,,,,,,,,,,,,,,,,,,,,,,,,,,,,,,,,,,,,,,,,,,,,,,,,,,,,,,,,,,,,,,,,,,,,,,,,,,,,,,,,,,,,,,,,,,,,,,
,,?,0.00068,0,,,,,,stimuli/images/PICTURE_297.png,BODY,5ef089044e663d0ac00def4b,17/07/1994,2020-08-13_12h51.35.245,proactive2,2020.1.2,MacIntel,60,5f341be081b9052c55068110,5f352936681add074646fccb,4,,,,,,aeroplane,,,,,,,,,,,6,2,0,41,41,51,1,,,,,,,,,,,,,,,,,,,,,,,,,,,,,,,,,,,,,,,,,,,,,,,,,,,,,,,,,,,,,,,,,,,,,,,,,,,,,,,,,,,,,,,,,,,,,,
,,?,0.00045,0,,,,,,stimuli/images/PICTURE_470.png,MOMENT,5ef089044e663d0ac00def4b,17/07/1994,2020-08-13_12h51.35.245,proactive2,2020.1.2,MacIntel,60,5f341be081b9052c55068110,5f352936681add074646fccb,4,,,,,,motorbike,,,,,,,,,,,5,2,0,42,42,40,1,,,,,,,,,,,,,,,,,,,,,,,,,,,,,,,,,,,,,,,,,,,,,,,,,,,,,,,,,,,,,,,,,,,,,,,,,,,,,,,,,,,,,,,,,,,,,,
,,?,0.000455,0,,,,,,stimuli/images/PICTURE_405.png,JUNGLE,5ef089044e663d0ac00def4b,17/07/1994,2020-08-13_12h51.35.245,proactive2,2020.1.2,MacIntel,60,5f341be081b9052c55068110,5f352936681add074646fccb,4,,,,,,anchor,,,,,,,,,,,2,2,0,43,43,13,1,,,,,,,,,,,,,,,,,,,,,,,,,,,,,,,,,,,,,,,,,,,,,,,,,,,,,,,,,,,,,,,,,,,,,,,,,,,,,,,,,,,,,,,,,,,,,,
,,NIGHT,1.561925,1,,,,,,stimuli/images/PICTURE_95.png,NIGHT,5ef089044e663d0ac00def4b,17/07/1994,2020-08-13_12h51.35.245,proactive2,2020.1.2,MacIntel,60,5f341be081b9052c55068110,5f352936681add074646fccb,4,,,,,,suitcase,,,,,,,,,,,4,2,0,44,44,37,1,,,,,,,,,,,,,,,,,,,,,,,,,,,,,,,,,,,,,,,,,,,,,,,,,,,,,,,,,,,,,,,,,,,,,,,,,,,,,,,,,,,,,,,,,,,,,,
,,?,0.001185,0,,,,,,stimuli/images/PICTURE_654.png,YEAR,5ef089044e663d0ac00def4b,17/07/1994,2020-08-13_12h51.35.245,proactive2,2020.1.2,MacIntel,60,5f341be081b9052c55068110,5f352936681add074646fccb,4,,,,,,pencil,,,,,,,,,,,5,2,0,45,45,41,1,,,,,,,,,,,,,,,,,,,,,,,,,,,,,,,,,,,,,,,,,,,,,,,,,,,,,,,,,,,,,,,,,,,,,,,,,,,,,,,,,,,,,,,,,,,,,,
,,?,0.00091,0,,,,,,stimuli/images/PICTURE_692.png,DUDE,5ef089044e663d0ac00def4b,17/07/1994,2020-08-13_12h51.35.245,proactive2,2020.1.2,MacIntel,60,5f341be081b9052c55068110,5f352936681add074646fccb,4,,,,,,cherry,,,,,,,,,,,5,2,0,46,46,47,1,,,,,,,,,,,,,,,,,,,,,,,,,,,,,,,,,,,,,,,,,,,,,,,,,,,,,,,,,,,,,,,,,,,,,,,,,,,,,,,,,,,,,,,,,,,,,,
,,?,0.00069,0,,,,,,stimuli/images/PICTURE_123.png,SALE,5ef089044e663d0ac00def4b,17/07/1994,2020-08-13_12h51.35.245,proactive2,2020.1.2,MacIntel,60,5f341be081b9052c55068110,5f352936681add074646fccb,4,,,,,,dart,,,,,,,,,,,1,2,0,47,47,8,1,,,,,,,,,,,,,,,,,,,,,,,,,,,,,,,,,,,,,,,,,,,,,,,,,,,,,,,,,,,,,,,,,,,,,,,,,,,,,,,,,,,,,,,,,,,,,,
,,?,0.000735,0,,,,,,stimuli/images/PICTURE_564.png,PLENTY,5ef089044e663d0ac00def4b,17/07/1994,2020-08-13_12h51.35.245,proactive2,2020.1.2,MacIntel,60,5f341be081b9052c55068110,5f352936681add074646fccb,4,,,,,,spoon,,,,,,,,,,,2,2,0,48,48,11,1,,,,,,,,,,,,,,,,,,,,,,,,,,,,,,,,,,,,,,,,,,,,,,,,,,,,,,,,,,,,,,,,,,,,,,,,,,,,,,,,,,,,,,,,,,,,,,
,,?,0.000665,0,,,,,,stimuli/images/PICTURE_509.png,MILLER,5ef089044e663d0ac00def4b,17/07/1994,2020-08-13_12h51.35.245,proactive2,2020.1.2,MacIntel,60,5f341be081b9052c55068110,5f352936681add074646fccb,4,,,,,,telephone,,,,,,,,,,,5,2,0,49,49,49,1,,,,,,,,,,,,,,,,,,,,,,,,,,,,,,,,,,,,,,,,,,,,,,,,,,,,,,,,,,,,,,,,,,,,,,,,,,,,,,,,,,,,,,,,,,,,,,
,,?,0.00057,0,,,,,,stimuli/images/PICTURE_750.png,POLICY,5ef089044e663d0ac00def4b,17/07/1994,2020-08-13_12h51.35.245,proactive2,2020.1.2,MacIntel,60,5f341be081b9052c55068110,5f352936681add074646fccb,4,,,,,,kettle,,,,,,,,,,,5,2,0,50,50,44,1,,,,,,,,,,,,,,,,,,,,,,,,,,,,,,,,,,,,,,,,,,,,,,,,,,,,,,,,,,,,,,,,,,,,,,,,,,,,,,,,,,,,,,,,,,,,,,
,,?,0.00045,0,,,,,,stimuli/images/PICTURE_215.png,LEADER,5ef089044e663d0ac00def4b,17/07/1994,2020-08-13_12h51.35.245,proactive2,2020.1.2,MacIntel,60,5f341be081b9052c55068110,5f352936681add074646fccb,4,,,,,,boot,,,,,,,,,,,5,2,0,51,51,43,1,,,,,,,,,,,,,,,,,,,,,,,,,,,,,,,,,,,,,,,,,,,,,,,,,,,,,,,,,,,,,,,,,,,,,,,,,,,,,,,,,,,,,,,,,,,,,,
,,?,0.000415,0,,,,,,stimuli/images/PICTURE_57.png,CANDY,5ef089044e663d0ac00def4b,17/07/1994,2020-08-13_12h51.35.245,proactive2,2020.1.2,MacIntel,60,5f341be081b9052c55068110,5f352936681add074646fccb,4,,,,,,stamp,,,,,,,,,,,6,2,0,52,52,52,1,,,,,,,,,,,,,,,,,,,,,,,,,,,,,,,,,,,,,,,,,,,,,,,,,,,,,,,,,,,,,,,,,,,,,,,,,,,,,,,,,,,,,,,,,,,,,,
,,?,0.000455,0,,,,,,stimuli/images/PICTURE_452.png,COPS,5ef089044e663d0ac00def4b,17/07/1994,2020-08-13_12h51.35.245,proactive2,2020.1.2,MacIntel,60,5f341be081b9052c55068110,5f352936681add074646fccb,4,,,,,,watch,,,,,,,,,,,1,2,0,53,53,0,1,,,,,,,,,,,,,,,,,,,,,,,,,,,,,,,,,,,,,,,,,,,,,,,,,,,,,,,,,,,,,,,,,,,,,,,,,,,,,,,,,,,,,,,,,,,,,,
,,?,0.000455,0,,,,,,stimuli/images/PICTURE_667.png,GLASS,5ef089044e663d0ac00def4b,17/07/1994,2020-08-13_12h51.35.245,proactive2,2020.1.2,MacIntel,60,5f341be081b9052c55068110,5f352936681add074646fccb,4,,,,,,daisy,,,,,,,,,,,3,2,0,54,54,27,1,,,,,,,,,,,,,,,,,,,,,,,,,,,,,,,,,,,,,,,,,,,,,,,,,,,,,,,,,,,,,,,,,,,,,,,,,,,,,,,,,,,,,,,,,,,,,,
,,?,0.00046,0,,,,,,stimuli/images/PICTURE_160.png,HOTEL,5ef089044e663d0ac00def4b,17/07/1994,2020-08-13_12h51.35.245,proactive2,2020.1.2,MacIntel,60,5f341be081b9052c55068110,5f352936681add074646fccb,4,,,,,,wheelbarrow,,,,,,,,,,,2,2,0,55,55,16,1,,,,,,,,,,,,,,,,,,,,,,,,,,,,,,,,,,,,,,,,,,,,,,,,,,,,,,,,,,,,,,,,,,,,,,,,,,,,,,,,,,,,,,,,,,,,,,
,,?,0.00045,0,,,,,,stimuli/images/PICTURE_311.png,TOILET,5ef089044e663d0ac00def4b,17/07/1994,2020-08-13_12h51.35.245,proactive2,2020.1.2,MacIntel,60,5f341be081b9052c55068110,5f352936681add074646fccb,4,,,,,,razor,,,,,,,,,,,6,2,0,56,56,54,1,,,,,,,,,,,,,,,,,,,,,,,,,,,,,,,,,,,,,,,,,,,,,,,,,,,,,,,,,,,,,,,,,,,,,,,,,,,,,,,,,,,,,,,,,,,,,,
,,?,0.00046,0,,,,,,stimuli/images/PICTURE_285.png,WRITER,5ef089044e663d0ac00def4b,17/07/1994,2020-08-13_12h51.35.245,proactive2,2020.1.2,MacIntel,60,5f341be081b9052c55068110,5f352936681add074646fccb,4,,,,,,carrot,,,,,,,,,,,1,2,0,57,57,6,1,,,,,,,,,,,,,,,,,,,,,,,,,,,,,,,,,,,,,,,,,,,,,,,,,,,,,,,,,,,,,,,,,,,,,,,,,,,,,,,,,,,,,,,,,,,,,,
,,APPLE,2.44642,1,,,,,,stimuli/images/PICTURE_509.png,APPLE,5ef089044e663d0ac00def4b,17/07/1994,2020-08-13_12h51.35.245,proactive2,2020.1.2,MacIntel,60,5f341be081b9052c55068110,5f352936681add074646fccb,4,,,,,,telephone,,,,,,,,,,,4,2,0,58,58,38,1,,,,,,,,,,,,,,,,,,,,,,,,,,,,,,,,,,,,,,,,,,,,,,,,,,,,,,,,,,,,,,,,,,,,,,,,,,,,,,,,,,,,,,,,,,,,,,
,,?,0.0006,0,,,,,,stimuli/images/PICTURE_509.png,BATH,5ef089044e663d0ac00def4b,17/07/1994,2020-08-13_12h51.35.245,proactive2,2020.1.2,MacIntel,60,5f341be081b9052c55068110,5f352936681add074646fccb,4,,,,,,telephone,,,,,,,,,,,2,2,0,59,59,15,1,,,,,,,,,,,,,,,,,,,,,,,,,,,,,,,,,,,,,,,,,,,,,,,,,,,,,,,,,,,,,,,,,,,,,,,,,,,,,,,,,,,,,,,,,,,,,,
,,,,,,,,,,,,5ef089044e663d0ac00def4b,17/07/1994,2020-08-13_12h51.35.245,proactive2,2020.1.2,MacIntel,60,5f341be081b9052c55068110,5f352936681add074646fccb,4,,,,,,,,,,,,,,,,,,,,,,,,0,1,1,2,1,stimuli/learn-block3.csv,,,,,,,,,,,,,,,,,,,,,,,,,,,,,,,,,,,,,,,,,,,,,,,,,,,,,,,,,,,,,,,,,,,,,,,,,,,,,,,,,,,,,,,,
,,,,,,,,,,stimuli/images/PICTURE_95.png,STYLE,5ef089044e663d0ac00def4b,17/07/1994,2020-08-13_12h51.35.245,proactive2,2020.1.2,MacIntel,60,5f341be081b9052c55068110,5f352936681add074646fccb,4,,,,,,suitcase,,,,,,0,0,0,25,1,3,0,,,,,,,,,,,,,,,,,,,,,,,,,,,,,,,,,,,,,,,,,,,,,,,,,,,,,,,,,,,,,,,,,,,,,,,,,,,,,,,,,,,,,,,,,,,,,,,,,,,
,,,,,,,,,,stimuli/images/PICTURE_744.png,SAKE,5ef089044e663d0ac00def4b,17/07/1994,2020-08-13_12h51.35.245,proactive2,2020.1.2,MacIntel,60,5f341be081b9052c55068110,5f352936681add074646fccb,4,,,,,,ring,,,,,,0,1,1,17,1,2,0,,,,,,,,,,,,,,,,,,,,,,,,,,,,,,,,,,,,,,,,,,,,,,,,,,,,,,,,,,,,,,,,,,,,,,,,,,,,,,,,,,,,,,,,,,,,,,,,,,,
,,,,,,,,,,stimuli/images/PICTURE_487.png,FLIGHT,5ef089044e663d0ac00def4b,17/07/1994,2020-08-13_12h51.35.245,proactive2,2020.1.2,MacIntel,60,5f341be081b9052c55068110,5f352936681add074646fccb,4,,,,,,basket,,,,,,0,2,2,9,1,1,0,,,,,,,,,,,,,,,,,,,,,,,,,,,,,,,,,,,,,,,,,,,,,,,,,,,,,,,,,,,,,,,,,,,,,,,,,,,,,,,,,,,,,,,,,,,,,,,,,,,
,,,,,,,,,,stimuli/images/PICTURE_203.png,ARTIST,5ef089044e663d0ac00def4b,17/07/1994,2020-08-13_12h51.35.245,proactive2,2020.1.2,MacIntel,60,5f341be081b9052c55068110,5f352936681add074646fccb,4,,,,,,cap,,,,,,0,3,3,26,1,3,0,,,,,,,,,,,,,,,,,,,,,,,,,,,,,,,,,,,,,,,,,,,,,,,,,,,,,,,,,,,,,,,,,,,,,,,,,,,,,,,,,,,,,,,,,,,,,,,,,,,
,,,,,,,,,,stimuli/images/PICTURE_311.png,FRIEND,5ef089044e663d0ac00def4b,17/07/1994,2020-08-13_12h51.35.245,proactive2,2020.1.2,MacIntel,60,5f341be081b9052c55068110,5f352936681add074646fccb,4,,,,,,razor,,,,,,0,4,4,34,1,4,0,,,,,,,,,,,,,,,,,,,,,,,,,,,,,,,,,,,,,,,,,,,,,,,,,,,,,,,,,,,,,,,,,,,,,,,,,,,,,,,,,,,,,,,,,,,,,,,,,,,
,,,,,,,,,,stimuli/images/PICTURE_160.png,FEET,5ef089044e663d0ac00def4b,17/07/1994,2020-08-13_12h51.35.245,proactive2,2020.1.2,MacIntel,60,5f341be081b9052c55068110,5f352936681add074646fccb,4,,,,,,wheelbarrow,,,,,,0,5,5,58,1,6,0,,,,,,,,,,,,,,,,,,,,,,,,,,,,,,,,,,,,,,,,,,,,,,,,,,,,,,,,,,,,,,,,,,,,,,,,,,,,,,,,,,,,,,,,,,,,,,,,,,,
,,,,,,,,,,stimuli/images/PICTURE_509.png,PHOTO,5ef089044e663d0ac00def4b,17/07/1994,2020-08-13_12h51.35.245,proactive2,2020.1.2,MacIntel,60,5f341be081b9052c55068110,5f352936681add074646fccb,4,,,,,,telephone,,,,,,0,6,6,21,1,3,0,,,,,,,,,,,,,,,,,,,,,,,,,,,,,,,,,,,,,,,,,,,,,,,,,,,,,,,,,,,,,,,,,,,,,,,,,,,,,,,,,,,,,,,,,,,,,,,,,,,
,,,,,,,,,,stimuli/images/PICTURE_491.png,ROOF,5ef089044e663d0ac00def4b,17/07/1994,2020-08-13_12h51.35.245,proactive2,2020.1.2,MacIntel,60,5f341be081b9052c55068110,5f352936681add074646fccb,4,,,,,,rug,,,,,,0,7,7,24,1,3,0,,,,,,,,,,,,,,,,,,,,,,,,,,,,,,,,,,,,,,,,,,,,,,,,,,,,,,,,,,,,,,,,,,,,,,,,,,,,,,,,,,,,,,,,,,,,,,,,,,,
,,,,,,,,,,stimuli/images/PICTURE_380.png,PHOTO,5ef089044e663d0ac00def4b,17/07/1994,2020-08-13_12h51.35.245,proactive2,2020.1.2,MacIntel,60,5f341be081b9052c55068110,5f352936681add074646fccb,4,,,,,,gorilla,,,,,,0,8,8,52,1,6,0,,,,,,,,,,,,,,,,,,,,,,,,,,,,,,,,,,,,,,,,,,,,,,,,,,,,,,,,,,,,,,,,,,,,,,,,,,,,,,,,,,,,,,,,,,,,,,,,,,,
,,,,,,,,,,stimuli/images/PICTURE_314.png,GODS,5ef089044e663d0ac00def4b,17/07/1994,2020-08-13_12h51.35.245,proactive2,2020.1.2,MacIntel,60,5f341be081b9052c55068110,5f352936681add074646fccb,4,,,,,,perfume,,,,,,0,9,9,11,1,2,0,,,,,,,,,,,,,,,,,,,,,,,,,,,,,,,,,,,,,,,,,,,,,,,,,,,,,,,,,,,,,,,,,,,,,,,,,,,,,,,,,,,,,,,,,,,,,,,,,,,
,,,,,,,,,,stimuli/images/PICTURE_248.png,DOZEN,5ef089044e663d0ac00def4b,17/07/1994,2020-08-13_12h51.35.245,proactive2,2020.1.2,MacIntel,60,5f341be081b9052c55068110,5f352936681add074646fccb,4,,,,,,cart,,,,,,0,10,10,39,1,4,0,,,,,,,,,,,,,,,,,,,,,,,,,,,,,,,,,,,,,,,,,,,,,,,,,,,,,,,,,,,,,,,,,,,,,,,,,,,,,,,,,,,,,,,,,,,,,,,,,,,
,,,,,,,,,,stimuli/images/PICTURE_453.png,DUDE,5ef089044e663d0ac00def4b,17/07/1994,2020-08-13_12h51.35.245,proactive2,2020.1.2,MacIntel,60,5f341be081b9052c55068110,5f352936681add074646fccb,4,,,,,,scissors,,,,,,0,11,11,27,1,3,0,,,,,,,,,,,,,,,,,,,,,,,,,,,,,,,,,,,,,,,,,,,,,,,,,,,,,,,,,,,,,,,,,,,,,,,,,,,,,,,,,,,,,,,,,,,,,,,,,,,
,,,,,,,,,,stimuli/images/PICTURE_692.png,MONTH,5ef089044e663d0ac00def4b,17/07/1994,2020-08-13_12h51.35.245,proactive2,2020.1.2,MacIntel,60,5f341be081b9052c55068110,5f352936681add074646fccb,4,,,,,,cherry,,,,,,0,12,12,16,1,2,0,,,,,,,,,,,,,,,,,,,,,,,,,,,,,,,,,,,,,,,,,,,,,,,,,,,,,,,,,,,,,,,,,,,,,,,,,,,,,,,,,,,,,,,,,,,,,,,,,,,
,,,,,,,,,,stimuli/images/PICTURE_208.png,MONTH,5ef089044e663d0ac00def4b,17/07/1994,2020-08-13_12h51.35.245,proactive2,2020.1.2,MacIntel,60,5f341be081b9052c55068110,5f352936681add074646fccb,4,,,,,,microphone,,,,,,0,13,13,53,1,6,0,,,,,,,,,,,,,,,,,,,,,,,,,,,,,,,,,,,,,,,,,,,,,,,,,,,,,,,,,,,,,,,,,,,,,,,,,,,,,,,,,,,,,,,,,,,,,,,,,,,
,,,,,,,,,,stimuli/images/PICTURE_744.png,SYSTEM,5ef089044e663d0ac00def4b,17/07/1994,2020-08-13_12h51.35.245,proactive2,2020.1.2,MacIntel,60,5f341be081b9052c55068110,5f352936681add074646fccb,4,,,,,,ring,,,,,,0,14,14,43,1,5,0,,,,,,,,,,,,,,,,,,,,,,,,,,,,,,,,,,,,,,,,,,,,,,,,,,,,,,,,,,,,,,,,,,,,,,,,,,,,,,,,,,,,,,,,,,,,,,,,,,,
,,,,,,,,,,stimuli/images/PICTURE_285.png,ADVICE,5ef089044e663d0ac00def4b,17/07/1994,2020-08-13_12h51.35.245,proactive2,2020.1.2,MacIntel,60,5f341be081b9052c55068110,5f352936681add074646fccb,4,,,,,,carrot,,,,,,0,15,15,12,1,2,0,,,,,,,,,,,,,,,,,,,,,,,,,,,,,,,,,,,,,,,,,,,,,,,,,,,,,,,,,,,,,,,,,,,,,,,,,,,,,,,,,,,,,,,,,,,,,,,,,,,
,,,,,,,,,,stimuli/images/PICTURE_675.png,WEAPON,5ef089044e663d0ac00def4b,17/07/1994,2020-08-13_12h51.35.245,proactive2,2020.1.2,MacIntel,60,5f341be081b9052c55068110,5f352936681add074646fccb,4,,,,,,windmill,,,,,,0,16,16,32,1,4,0,,,,,,,,,,,,,,,,,,,,,,,,,,,,,,,,,,,,,,,,,,,,,,,,,,,,,,,,,,,,,,,,,,,,,,,,,,,,,,,,,,,,,,,,,,,,,,,,,,,
,,,,,,,,,,stimuli/images/PICTURE_233.png,WOMEN,5ef089044e663d0ac00def4b,17/07/1994,2020-08-13_12h51.35.245,proactive2,2020.1.2,MacIntel,60,5f341be081b9052c55068110,5f352936681add074646fccb,4,,,,,,salt,,,,,,0,17,17,38,1,4,0,,,,,,,,,,,,,,,,,,,,,,,,,,,,,,,,,,,,,,,,,,,,,,,,,,,,,,,,,,,,,,,,,,,,,,,,,,,,,,,,,,,,,,,,,,,,,,,,,,,
,,,,,,,,,,stimuli/images/PICTURE_348.png,SPEECH,5ef089044e663d0ac00def4b,17/07/1994,2020-08-13_12h51.35.245,proactive2,2020.1.2,MacIntel,60,5f341be081b9052c55068110,5f352936681add074646fccb,4,,,,,,pepper,,,,,,0,18,18,20,1,3,0,,,,,,,,,,,,,,,,,,,,,,,,,,,,,,,,,,,,,,,,,,,,,,,,,,,,,,,,,,,,,,,,,,,,,,,,,,,,,,,,,,,,,,,,,,,,,,,,,,,
,,,,,,,,,,stimuli/images/PICTURE_708.png,CLIENT,5ef089044e663d0ac00def4b,17/07/1994,2020-08-13_12h51.35.245,proactive2,2020.1.2,MacIntel,60,5f341be081b9052c55068110,5f352936681add074646fccb,4,,,,,,monkey,,,,,,0,19,19,5,1,1,0,,,,,,,,,,,,,,,,,,,,,,,,,,,,,,,,,,,,,,,,,,,,,,,,,,,,,,,,,,,,,,,,,,,,,,,,,,,,,,,,,,,,,,,,,,,,,,,,,,,
,,,,,,,,,,stimuli/images/PICTURE_688.png,WOMEN,5ef089044e663d0ac00def4b,17/07/1994,2020-08-13_12h51.35.245,proactive2,2020.1.2,MacIntel,60,5f341be081b9052c55068110,5f352936681add074646fccb,4,,,,,,runner,,,,,,0,20,20,14,1,2,0,,,,,,,,,,,,,,,,,,,,,,,,,,,,,,,,,,,,,,,,,,,,,,,,,,,,,,,,,,,,,,,,,,,,,,,,,,,,,,,,,,,,,,,,,,,,,,,,,,,
,,,,,,,,,,stimuli/images/PICTURE_302.png,FAMILY,5ef089044e663d0ac00def4b,17/07/1994,2020-08-13_12h51.35.245,proactive2,2020.1.2,MacIntel,60,5f341be081b9052c55068110,5f352936681add074646fccb,4,,,,,,taxi,,,,,,0,21,21,18,1,2,0,,,,,,,,,,,,,,,,,,,,,,,,,,,,,,,,,,,,,,,,,,,,,,,,,,,,,,,,,,,,,,,,,,,,,,,,,,,,,,,,,,,,,,,,,,,,,,,,,,,
,,,,,,,,,,stimuli/images/PICTURE_311.png,BEAUTY,5ef089044e663d0ac00def4b,17/07/1994,2020-08-13_12h51.35.245,proactive2,2020.1.2,MacIntel,60,5f341be081b9052c55068110,5f352936681add074646fccb,4,,,,,,razor,,,,,,0,22,22,13,1,2,0,,,,,,,,,,,,,,,,,,,,,,,,,,,,,,,,,,,,,,,,,,,,,,,,,,,,,,,,,,,,,,,,,,,,,,,,,,,,,,,,,,,,,,,,,,,,,,,,,,,
,,,,,,,,,,stimuli/images/PICTURE_467.png,DEMON,5ef089044e663d0ac00def4b,17/07/1994,2020-08-13_12h51.35.245,proactive2,2020.1.2,MacIntel,60,5f341be081b9052c55068110,5f352936681add074646fccb,4,,,,,,peg,,,,,,0,23,23,23,1,3,0,,,,,,,,,,,,,,,,,,,,,,,,,,,,,,,,,,,,,,,,,,,,,,,,,,,,,,,,,,,,,,,,,,,,,,,,,,,,,,,,,,,,,,,,,,,,,,,,,,,
,,,,,,,,,,stimuli/images/PICTURE_488.png,STYLE,5ef089044e663d0ac00def4b,17/07/1994,2020-08-13_12h51.35.245,proactive2,2020.1.2,MacIntel,60,5f341be081b9052c55068110,5f352936681add074646fccb,4,,,,,,sun,,,,,,0,24,24,33,1,4,0,,,,,,,,,,,,,,,,,,,,,,,,,,,,,,,,,,,,,,,,,,,,,,,,,,,,,,,,,,,,,,,,,,,,,,,,,,,,,,,,,,,,,,,,,,,,,,,,,,,
,,,,,,,,,,stimuli/images/PICTURE_667.png,PLENTY,5ef089044e663d0ac00def4b,17/07/1994,2020-08-13_12h51.35.245,proactive2,2020.1.2,MacIntel,60,5f341be081b9052c55068110,5f352936681add074646fccb,4,,,,,,daisy,,,,,,0,25,25,41,1,5,0,,,,,,,,,,,,,,,,,,,,,,,,,,,,,,,,,,,,,,,,,,,,,,,,,,,,,,,,,,,,,,,,,,,,,,,,,,,,,,,,,,,,,,,,,,,,,,,,,,,
,,,,,,,,,,stimuli/images/PICTURE_32.png,JUNGLE,5ef089044e663d0ac00def4b,17/07/1994,2020-08-13_12h51.35.245,proactive2,2020.1.2,MacIntel,60,5f341be081b9052c55068110,5f352936681add074646fccb,4,,,,,,crown,,,,,,0,26,26,45,1,5,0,,,,,,,,,,,,,,,,,,,,,,,,,,,,,,,,,,,,,,,,,,,,,,,,,,,,,,,,,,,,,,,,,,,,,,,,,,,,,,,,,,,,,,,,,,,,,,,,,,,
,,,,,,,,,,stimuli/images/PICTURE_255.png,AREA,5ef089044e663d0ac00def4b,17/07/1994,2020-08-13_12h51.35.245,proactive2,2020.1.2,MacIntel,60,5f341be081b9052c55068110,5f352936681add074646fccb,4,,,,,,shovel,,,,,,0,27,27,22,1,3,0,,,,,,,,,,,,,,,,,,,,,,,,,,,,,,,,,,,,,,,,,,,,,,,,,,,,,,,,,,,,,,,,,,,,,,,,,,,,,,,,,,,,,,,,,,,,,,,,,,,
,,,,,,,,,,stimuli/images/PICTURE_123.png,ADVICE,5ef089044e663d0ac00def4b,17/07/1994,2020-08-13_12h51.35.245,proactive2,2020.1.2,MacIntel,60,5f341be081b9052c55068110,5f352936681add074646fccb,4,,,,,,dart,,,,,,0,28,28,40,1,5,0,,,,,,,,,,,,,,,,,,,,,,,,,,,,,,,,,,,,,,,,,,,,,,,,,,,,,,,,,,,,,,,,,,,,,,,,,,,,,,,,,,,,,,,,,,,,,,,,,,,
,,,,,,,,,,stimuli/images/PICTURE_177.png,CARS,5ef089044e663d0ac00def4b,17/07/1994,2020-08-13_12h51.35.245,proactive2,2020.1.2,MacIntel,60,5f341be081b9052c55068110,5f352936681add074646fccb,4,,,,,,mushroom,,,,,,0,29,29,35,1,4,0,,,,,,,,,,,,,,,,,,,,,,,,,,,,,,,,,,,,,,,,,,,,,,,,,,,,,,,,,,,,,,,,,,,,,,,,,,,,,,,,,,,,,,,,,,,,,,,,,,,
,,,,,,,,,,stimuli/images/PICTURE_308.png,ESTATE,5ef089044e663d0ac00def4b,17/07/1994,2020-08-13_12h51.35.245,proactive2,2020.1.2,MacIntel,60,5f341be081b9052c55068110,5f352936681add074646fccb,4,,,,,,dice,,,,,,0,30,30,46,1,5,0,,,,,,,,,,,,,,,,,,,,,,,,,,,,,,,,,,,,,,,,,,,,,,,,,,,,,,,,,,,,,,,,,,,,,,,,,,,,,,,,,,,,,,,,,,,,,,,,,,,
,,,,,,,,,,stimuli/images/PICTURE_208.png,LOTS,5ef089044e663d0ac00def4b,17/07/1994,2020-08-13_12h51.35.245,proactive2,2020.1.2,MacIntel,60,5f341be081b9052c55068110,5f352936681add074646fccb,4,,,,,,microphone,,,,,,0,31,31,10,1,2,0,,,,,,,,,,,,,,,,,,,,,,,,,,,,,,,,,,,,,,,,,,,,,,,,,,,,,,,,,,,,,,,,,,,,,,,,,,,,,,,,,,,,,,,,,,,,,,,,,,,
,,,,,,,,,,stimuli/images/PICTURE_327.png,BEAUTY,5ef089044e663d0ac00def4b,17/07/1994,2020-08-13_12h51.35.245,proactive2,2020.1.2,MacIntel,60,5f341be081b9052c55068110,5f352936681add074646fccb,4,,,,,,helmet,,,,,,0,32,32,48,1,5,0,,,,,,,,,,,,,,,,,,,,,,,,,,,,,,,,,,,,,,,,,,,,,,,,,,,,,,,,,,,,,,,,,,,,,,,,,,,,,,,,,,,,,,,,,,,,,,,,,,,
,,,,,,,,,,stimuli/images/PICTURE_380.png,DEATH,5ef089044e663d0ac00def4b,17/07/1994,2020-08-13_12h51.35.245,proactive2,2020.1.2,MacIntel,60,5f341be081b9052c55068110,5f352936681add074646fccb,4,,,,,,gorilla,,,,,,0,33,33,49,1,5,0,,,,,,,,,,,,,,,,,,,,,,,,,,,,,,,,,,,,,,,,,,,,,,,,,,,,,,,,,,,,,,,,,,,,,,,,,,,,,,,,,,,,,,,,,,,,,,,,,,,
,,,,,,,,,,stimuli/images/PICTURE_708.png,YARD,5ef089044e663d0ac00def4b,17/07/1994,2020-08-13_12h51.35.245,proactive2,2020.1.2,MacIntel,60,5f341be081b9052c55068110,5f352936681add074646fccb,4,,,,,,monkey,,,,,,0,34,34,29,1,3,0,,,,,,,,,,,,,,,,,,,,,,,,,,,,,,,,,,,,,,,,,,,,,,,,,,,,,,,,,,,,,,,,,,,,,,,,,,,,,,,,,,,,,,,,,,,,,,,,,,,
,,,,,,,,,,stimuli/images/PICTURE_469.png,LETTER,5ef089044e663d0ac00def4b,17/07/1994,2020-08-13_12h51.35.245,proactive2,2020.1.2,MacIntel,60,5f341be081b9052c55068110,5f352936681add074646fccb,4,,,,,,stool,,,,,,0,35,35,42,1,5,0,,,,,,,,,,,,,,,,,,,,,,,,,,,,,,,,,,,,,,,,,,,,,,,,,,,,,,,,,,,,,,,,,,,,,,,,,,,,,,,,,,,,,,,,,,,,,,,,,,,
,,,,,,,,,,stimuli/images/PICTURE_339.png,PLENTY,5ef089044e663d0ac00def4b,17/07/1994,2020-08-13_12h51.35.245,proactive2,2020.1.2,MacIntel,60,5f341be081b9052c55068110,5f352936681add074646fccb,4,,,,,,backpack,,,,,,0,36,36,0,1,1,0,,,,,,,,,,,,,,,,,,,,,,,,,,,,,,,,,,,,,,,,,,,,,,,,,,,,,,,,,,,,,,,,,,,,,,,,,,,,,,,,,,,,,,,,,,,,,,,,,,,
,,,,,,,,,,stimuli/images/PICTURE_667.png,BATH,5ef089044e663d0ac00def4b,17/07/1994,2020-08-13_12h51.35.245,proactive2,2020.1.2,MacIntel,60,5f341be081b9052c55068110,5f352936681add074646fccb,4,,,,,,daisy,,,,,,0,37,37,4,1,1,0,,,,,,,,,,,,,,,,,,,,,,,,,,,,,,,,,,,,,,,,,,,,,,,,,,,,,,,,,,,,,,,,,,,,,,,,,,,,,,,,,,,,,,,,,,,,,,,,,,,
,,,,,,,,,,stimuli/images/PICTURE_233.png,IDEAS,5ef089044e663d0ac00def4b,17/07/1994,2020-08-13_12h51.35.245,proactive2,2020.1.2,MacIntel,60,5f341be081b9052c55068110,5f352936681add074646fccb,4,,,,,,salt,,,,,,0,38,38,28,1,3,0,,,,,,,,,,,,,,,,,,,,,,,,,,,,,,,,,,,,,,,,,,,,,,,,,,,,,,,,,,,,,,,,,,,,,,,,,,,,,,,,,,,,,,,,,,,,,,,,,,,
,,,,,,,,,,stimuli/images/PICTURE_68.png,MILE,5ef089044e663d0ac00def4b,17/07/1994,2020-08-13_12h51.35.245,proactive2,2020.1.2,MacIntel,60,5f341be081b9052c55068110,5f352936681add074646fccb,4,,,,,,candle,,,,,,0,39,39,44,1,5,0,,,,,,,,,,,,,,,,,,,,,,,,,,,,,,,,,,,,,,,,,,,,,,,,,,,,,,,,,,,,,,,,,,,,,,,,,,,,,,,,,,,,,,,,,,,,,,,,,,,
,,,,,,,,,,stimuli/images/PICTURE_677.png,MILE,5ef089044e663d0ac00def4b,17/07/1994,2020-08-13_12h51.35.245,proactive2,2020.1.2,MacIntel,60,5f341be081b9052c55068110,5f352936681add074646fccb,4,,,,,,map,,,,,,0,40,40,30,1,4,0,,,,,,,,,,,,,,,,,,,,,,,,,,,,,,,,,,,,,,,,,,,,,,,,,,,,,,,,,,,,,,,,,,,,,,,,,,,,,,,,,,,,,,,,,,,,,,,,,,,
,,,,,,,,,,stimuli/images/PICTURE_504.png,BODY,5ef089044e663d0ac00def4b,17/07/1994,2020-08-13_12h51.35.245,proactive2,2020.1.2,MacIntel,60,5f341be081b9052c55068110,5f352936681add074646fccb,4,,,,,,wheel,,,,,,0,41,41,8,1,1,0,,,,,,,,,,,,,,,,,,,,,,,,,,,,,,,,,,,,,,,,,,,,,,,,,,,,,,,,,,,,,,,,,,,,,,,,,,,,,,,,,,,,,,,,,,,,,,,,,,,
,,,,,,,,,,stimuli/images/PICTURE_654.png,VALLEY,5ef089044e663d0ac00def4b,17/07/1994,2020-08-13_12h51.35.245,proactive2,2020.1.2,MacIntel,60,5f341be081b9052c55068110,5f352936681add074646fccb,4,,,,,,pencil,,,,,,0,42,42,1,1,1,0,,,,,,,,,,,,,,,,,,,,,,,,,,,,,,,,,,,,,,,,,,,,,,,,,,,,,,,,,,,,,,,,,,,,,,,,,,,,,,,,,,,,,,,,,,,,,,,,,,,
,,,,,,,,,,stimuli/images/PICTURE_314.png,SAKE,5ef089044e663d0ac00def4b,17/07/1994,2020-08-13_12h51.35.245,proactive2,2020.1.2,MacIntel,60,5f341be081b9052c55068110,5f352936681add074646fccb,4,,,,,,perfume,,,,,,0,43,43,7,1,1,0,,,,,,,,,,,,,,,,,,,,,,,,,,,,,,,,,,,,,,,,,,,,,,,,,,,,,,,,,,,,,,,,,,,,,,,,,,,,,,,,,,,,,,,,,,,,,,,,,,,
,,,,,,,,,,stimuli/images/PICTURE_308.png,KIND,5ef089044e663d0ac00def4b,17/07/1994,2020-08-13_12h51.35.245,proactive2,2020.1.2,MacIntel,60,5f341be081b9052c55068110,5f352936681add074646fccb,4,,,,,,dice,,,,,,0,44,44,54,1,6,0,,,,,,,,,,,,,,,,,,,,,,,,,,,,,,,,,,,,,,,,,,,,,,,,,,,,,,,,,,,,,,,,,,,,,,,,,,,,,,,,,,,,,,,,,,,,,,,,,,,
,,,,,,,,,,stimuli/images/PICTURE_147.png,MOMENT,5ef089044e663d0ac00def4b,17/07/1994,2020-08-13_12h51.35.245,proactive2,2020.1.2,MacIntel,60,5f341be081b9052c55068110,5f352936681add074646fccb,4,,,,,,hanger,,,,,,0,45,45,51,1,6,0,,,,,,,,,,,,,,,,,,,,,,,,,,,,,,,,,,,,,,,,,,,,,,,,,,,,,,,,,,,,,,,,,,,,,,,,,,,,,,,,,,,,,,,,,,,,,,,,,,,
,,,,,,,,,,stimuli/images/PICTURE_123.png,ADVICE,5ef089044e663d0ac00def4b,17/07/1994,2020-08-13_12h51.35.245,proactive2,2020.1.2,MacIntel,60,5f341be081b9052c55068110,5f352936681add074646fccb,4,,,,,,dart,,,,,,0,46,46,50,1,6,0,,,,,,,,,,,,,,,,,,,,,,,,,,,,,,,,,,,,,,,,,,,,,,,,,,,,,,,,,,,,,,,,,,,,,,,,,,,,,,,,,,,,,,,,,,,,,,,,,,,
,,,,,,,,,,stimuli/images/PICTURE_160.png,LEADER,5ef089044e663d0ac00def4b,17/07/1994,2020-08-13_12h51.35.245,proactive2,2020.1.2,MacIntel,60,5f341be081b9052c55068110,5f352936681add074646fccb,4,,,,,,wheelbarrow,,,,,,0,47,47,3,1,1,0,,,,,,,,,,,,,,,,,,,,,,,,,,,,,,,,,,,,,,,,,,,,,,,,,,,,,,,,,,,,,,,,,,,,,,,,,,,,,,,,,,,,,,,,,,,,,,,,,,,
