consent_key.keys,consent_key.rt,recalled,recalled_rt,recall_acc,example_recall.thisRepN,example_recall.thisTrialN,example_recall.thisN,example_recall.thisIndex,example_recall.ran,file,word,participant,please enter your date of birth (dd/mm/yyyy),date,expName,psychopyVersion,OS,frameRate,STUDY_ID,SESSION_ID,list,prac_learn_study_loop.thisRepN,prac_learn_study_loop.thisTrialN,prac_learn_study_loop.thisN,prac_learn_study_loop.thisIndex,prac_learn_study_loop.ran,image,prac_learn_test_loop.thisRepN,prac_learn_test_loop.thisTrialN,prac_learn_test_loop.thisN,prac_learn_test_loop.thisIndex,prac_learn_test_loop.ran,learn_study_loop.thisRepN,learn_study_loop.thisTrialN,learn_study_loop.thisN,learn_study_loop.thisIndex,learn_study_loop.ran,list_no,block_no,learn_test_loop.thisRepN,learn_test_loop.thisTrialN,learn_test_loop.thisN,learn_test_loop.thisIndex,learn_test_loop.ran,learn_blocks.thisRepN,learn_blocks.thisTrialN,learn_blocks.thisN,learn_blocks.thisIndex,learn_blocks.ran,block_csv,key_resp_13.keys,key_resp_13.rt,learn_blocks_loop.thisRepN,learn_blocks_loop.thisTrialN,learn_blocks_loop.thisN,learn_blocks_loop.thisIndex,learn_blocks_loop.ran,final_learn_test.thisRepN,final_learn_test.thisTrialN,final_learn_test.thisN,final_learn_test.thisIndex,final_learn_test.ran,s_im1,s_im2,s_im3,s_im4,s_im5,s_im6,s_im7,s_im8,s_im1pos,s_im2pos,s_im3pos,s_im4pos,s_im5pos,s_im6pos,s_im7pos,s_im8pos,s_tarright,search_resp.keys,search_loop.thisRepN,search_loop.thisTrialN,search_loop.thisN,search_loop.thisIndex,search_loop.ran,search_resp.rt,prac_wm_test_loop.thisRepN,prac_wm_test_loop.thisTrialN,prac_wm_test_loop.thisN,prac_wm_test_loop.thisIndex,prac_wm_test_loop.ran,wm_recalled1,wm_recall_rt1,wm_probed1,wm_recall_acc1,wm_recalled2,wm_recall_rt2,wm_probed2,wm_recall_acc2,wm_recalled3,wm_recall_rt3,wm_probed3,wm_recall_acc3,wm_recalled4,wm_recall_rt4,wm_probed4,wm_recall_acc4,prac_wm_trial_loop.thisRepN,prac_wm_trial_loop.thisTrialN,prac_wm_trial_loop.thisN,prac_wm_trial_loop.thisIndex,prac_wm_trial_loop.ran,word1,image1,file1,item_type1,word2,image2,file2,item_type2,word4,image4,file4,item_type4,word3,image3,file3,item_type3,wm_test_loop.thisRepN,wm_test_loop.thisTrialN,wm_test_loop.thisN,wm_test_loop.thisIndex,wm_test_loop.ran,wm_trial_loop.thisRepN,wm_trial_loop.thisTrialN,wm_trial_loop.thisN,wm_trial_loop.thisIndex,wm_trial_loop.ran
y,47.519,TOUGH,10.442,1,0,0,0,0,1,stimuli/images/PICTURE_747.png,TOUGH,5ef367aa3b28ea0a3aad67ba,03/05/1953,2020-09-03_19h45.00.811,proactive2,2020.1.2,Win32,60,5f5126bb654d4b30ee6923d8,5f513922984fc83356efe48f,1,,,,,,,,,,,,,,,,,,,,,,,,,,,,,,,,,,,,,,,,,,,,,,,,,,,,,,,,,,,,,,,,,,,,,,,,,,,,,,,,,,,,,,,,,,,,,,,,,,,,,,,,,,,,,,,,,,,,,
,,,,,,,,,,stimuli/images/PICTURE_269.png,GENIUS,5ef367aa3b28ea0a3aad67ba,03/05/1953,2020-09-03_19h45.00.811,proactive2,2020.1.2,Win32,60,5f5126bb654d4b30ee6923d8,5f513922984fc83356efe48f,1,0,0,0,0,1,chameleon,,,,,,,,,,,,,,,,,,,,,,,,,,,,,,,,,,,,,,,,,,,,,,,,,,,,,,,,,,,,,,,,,,,,,,,,,,,,,,,,,,,,,,,,,,,,,,,,,,,,,,,,,,,,,,,
,,,,,,,,,,stimuli/images/PICTURE_378.png,LOSS,5ef367aa3b28ea0a3aad67ba,03/05/1953,2020-09-03_19h45.00.811,proactive2,2020.1.2,Win32,60,5f5126bb654d4b30ee6923d8,5f513922984fc83356efe48f,1,0,1,1,2,1,lobster,,,,,,,,,,,,,,,,,,,,,,,,,,,,,,,,,,,,,,,,,,,,,,,,,,,,,,,,,,,,,,,,,,,,,,,,,,,,,,,,,,,,,,,,,,,,,,,,,,,,,,,,,,,,,,,
,,,,,,,,,,stimuli/images/PICTURE_727.png,CELL,5ef367aa3b28ea0a3aad67ba,03/05/1953,2020-09-03_19h45.00.811,proactive2,2020.1.2,Win32,60,5f5126bb654d4b30ee6923d8,5f513922984fc83356efe48f,1,0,2,2,1,1,hose,,,,,,,,,,,,,,,,,,,,,,,,,,,,,,,,,,,,,,,,,,,,,,,,,,,,,,,,,,,,,,,,,,,,,,,,,,,,,,,,,,,,,,,,,,,,,,,,,,,,,,,,,,,,,,,
,,,,,,,,,,stimuli/images/PICTURE_697.png,KILLER,5ef367aa3b28ea0a3aad67ba,03/05/1953,2020-09-03_19h45.00.811,proactive2,2020.1.2,Win32,60,5f5126bb654d4b30ee6923d8,5f513922984fc83356efe48f,1,0,3,3,4,1,peach,,,,,,,,,,,,,,,,,,,,,,,,,,,,,,,,,,,,,,,,,,,,,,,,,,,,,,,,,,,,,,,,,,,,,,,,,,,,,,,,,,,,,,,,,,,,,,,,,,,,,,,,,,,,,,,
,,CELL,2.926,1,,,,,,stimuli/images/PICTURE_727.png,CELL,5ef367aa3b28ea0a3aad67ba,03/05/1953,2020-09-03_19h45.00.811,proactive2,2020.1.2,Win32,60,5f5126bb654d4b30ee6923d8,5f513922984fc83356efe48f,1,,,,,,hose,0,0,0,1,1,,,,,,,,,,,,,,,,,,,,,,,,,,,,,,,,,,,,,,,,,,,,,,,,,,,,,,,,,,,,,,,,,,,,,,,,,,,,,,,,,,,,,,,,,,,,,,,,,,,,,,,,,,
,,EVIL,7.251,0,,,,,,stimuli/images/PICTURE_658.png,DEVIL,5ef367aa3b28ea0a3aad67ba,03/05/1953,2020-09-03_19h45.00.811,proactive2,2020.1.2,Win32,60,5f5126bb654d4b30ee6923d8,5f513922984fc83356efe48f,1,,,,,,crow,0,1,1,3,1,,,,,,,,,,,,,,,,,,,,,,,,,,,,,,,,,,,,,,,,,,,,,,,,,,,,,,,,,,,,,,,,,,,,,,,,,,,,,,,,,,,,,,,,,,,,,,,,,,,,,,,,,,
,,GENIUS,5.197,1,,,,,,stimuli/images/PICTURE_269.png,GENIUS,5ef367aa3b28ea0a3aad67ba,03/05/1953,2020-09-03_19h45.00.811,proactive2,2020.1.2,Win32,60,5f5126bb654d4b30ee6923d8,5f513922984fc83356efe48f,1,,,,,,chameleon,0,2,2,0,1,,,,,,,,,,,,,,,,,,,,,,,,,,,,,,,,,,,,,,,,,,,,,,,,,,,,,,,,,,,,,,,,,,,,,,,,,,,,,,,,,,,,,,,,,,,,,,,,,,,,,,,,,,
,,KILLER,2.214,1,,,,,,stimuli/images/PICTURE_697.png,KILLER,5ef367aa3b28ea0a3aad67ba,03/05/1953,2020-09-03_19h45.00.811,proactive2,2020.1.2,Win32,60,5f5126bb654d4b30ee6923d8,5f513922984fc83356efe48f,1,,,,,,peach,0,3,3,4,1,,,,,,,,,,,,,,,,,,,,,,,,,,,,,,,,,,,,,,,,,,,,,,,,,,,,,,,,,,,,,,,,,,,,,,,,,,,,,,,,,,,,,,,,,,,,,,,,,,,,,,,,,,
,,LOSE,5.809,0,,,,,,stimuli/images/PICTURE_378.png,LOSS,5ef367aa3b28ea0a3aad67ba,03/05/1953,2020-09-03_19h45.00.811,proactive2,2020.1.2,Win32,60,5f5126bb654d4b30ee6923d8,5f513922984fc83356efe48f,1,,,,,,lobster,0,4,4,2,1,,,,,,,,,,,,,,,,,,,,,,,,,,,,,,,,,,,,,,,,,,,,,,,,,,,,,,,,,,,,,,,,,,,,,,,,,,,,,,,,,,,,,,,,,,,,,,,,,,,,,,,,,,
,,,,,,,,,,stimuli/images/PICTURE_68.png,ROOF,5ef367aa3b28ea0a3aad67ba,03/05/1953,2020-09-03_19h45.00.811,proactive2,2020.1.2,Win32,60,5f5126bb654d4b30ee6923d8,5f513922984fc83356efe48f,1,,,,,,candle,,,,,,0,0,0,38,1,4,1,,,,,,,,,,,,,,,,,,,,,,,,,,,,,,,,,,,,,,,,,,,,,,,,,,,,,,,,,,,,,,,,,,,,,,,,,,,,,,,,,,,,,,,,,,,,,,,,,,,
,,,,,,,,,,stimuli/images/PICTURE_177.png,WRITER,5ef367aa3b28ea0a3aad67ba,03/05/1953,2020-09-03_19h45.00.811,proactive2,2020.1.2,Win32,60,5f5126bb654d4b30ee6923d8,5f513922984fc83356efe48f,1,,,,,,mushroom,,,,,,0,1,1,41,1,5,1,,,,,,,,,,,,,,,,,,,,,,,,,,,,,,,,,,,,,,,,,,,,,,,,,,,,,,,,,,,,,,,,,,,,,,,,,,,,,,,,,,,,,,,,,,,,,,,,,,,
,,,,,,,,,,stimuli/images/PICTURE_108.png,POLICY,5ef367aa3b28ea0a3aad67ba,03/05/1953,2020-09-03_19h45.00.811,proactive2,2020.1.2,Win32,60,5f5126bb654d4b30ee6923d8,5f513922984fc83356efe48f,1,,,,,,calendar,,,,,,0,2,2,22,1,3,1,,,,,,,,,,,,,,,,,,,,,,,,,,,,,,,,,,,,,,,,,,,,,,,,,,,,,,,,,,,,,,,,,,,,,,,,,,,,,,,,,,,,,,,,,,,,,,,,,,,
,,,,,,,,,,stimuli/images/PICTURE_403.png,RIVER,5ef367aa3b28ea0a3aad67ba,03/05/1953,2020-09-03_19h45.00.811,proactive2,2020.1.2,Win32,60,5f5126bb654d4b30ee6923d8,5f513922984fc83356efe48f,1,,,,,,cathedral,,,,,,0,3,3,40,1,5,1,,,,,,,,,,,,,,,,,,,,,,,,,,,,,,,,,,,,,,,,,,,,,,,,,,,,,,,,,,,,,,,,,,,,,,,,,,,,,,,,,,,,,,,,,,,,,,,,,,,
,,,,,,,,,,stimuli/images/PICTURE_667.png,RIVER,5ef367aa3b28ea0a3aad67ba,03/05/1953,2020-09-03_19h45.00.811,proactive2,2020.1.2,Win32,60,5f5126bb654d4b30ee6923d8,5f513922984fc83356efe48f,1,,,,,,daisy,,,,,,0,4,4,10,1,2,1,,,,,,,,,,,,,,,,,,,,,,,,,,,,,,,,,,,,,,,,,,,,,,,,,,,,,,,,,,,,,,,,,,,,,,,,,,,,,,,,,,,,,,,,,,,,,,,,,,,
,,,,,,,,,,stimuli/images/PICTURE_327.png,CASINO,5ef367aa3b28ea0a3aad67ba,03/05/1953,2020-09-03_19h45.00.811,proactive2,2020.1.2,Win32,60,5f5126bb654d4b30ee6923d8,5f513922984fc83356efe48f,1,,,,,,helmet,,,,,,0,5,5,20,1,3,1,,,,,,,,,,,,,,,,,,,,,,,,,,,,,,,,,,,,,,,,,,,,,,,,,,,,,,,,,,,,,,,,,,,,,,,,,,,,,,,,,,,,,,,,,,,,,,,,,,,
,,,,,,,,,,stimuli/images/PICTURE_95.png,MILLER,5ef367aa3b28ea0a3aad67ba,03/05/1953,2020-09-03_19h45.00.811,proactive2,2020.1.2,Win32,60,5f5126bb654d4b30ee6923d8,5f513922984fc83356efe48f,1,,,,,,suitcase,,,,,,0,6,6,56,1,6,1,,,,,,,,,,,,,,,,,,,,,,,,,,,,,,,,,,,,,,,,,,,,,,,,,,,,,,,,,,,,,,,,,,,,,,,,,,,,,,,,,,,,,,,,,,,,,,,,,,,
,,,,,,,,,,stimuli/images/PICTURE_750.png,HOTEL,5ef367aa3b28ea0a3aad67ba,03/05/1953,2020-09-03_19h45.00.811,proactive2,2020.1.2,Win32,60,5f5126bb654d4b30ee6923d8,5f513922984fc83356efe48f,1,,,,,,kettle,,,,,,0,7,7,27,1,3,1,,,,,,,,,,,,,,,,,,,,,,,,,,,,,,,,,,,,,,,,,,,,,,,,,,,,,,,,,,,,,,,,,,,,,,,,,,,,,,,,,,,,,,,,,,,,,,,,,,,
,,,,,,,,,,stimuli/images/PICTURE_68.png,MILE,5ef367aa3b28ea0a3aad67ba,03/05/1953,2020-09-03_19h45.00.811,proactive2,2020.1.2,Win32,60,5f5126bb654d4b30ee6923d8,5f513922984fc83356efe48f,1,,,,,,candle,,,,,,0,8,8,51,1,6,1,,,,,,,,,,,,,,,,,,,,,,,,,,,,,,,,,,,,,,,,,,,,,,,,,,,,,,,,,,,,,,,,,,,,,,,,,,,,,,,,,,,,,,,,,,,,,,,,,,,
,,,,,,,,,,stimuli/images/PICTURE_504.png,YEAR,5ef367aa3b28ea0a3aad67ba,03/05/1953,2020-09-03_19h45.00.811,proactive2,2020.1.2,Win32,60,5f5126bb654d4b30ee6923d8,5f513922984fc83356efe48f,1,,,,,,wheel,,,,,,0,9,9,13,1,2,1,,,,,,,,,,,,,,,,,,,,,,,,,,,,,,,,,,,,,,,,,,,,,,,,,,,,,,,,,,,,,,,,,,,,,,,,,,,,,,,,,,,,,,,,,,,,,,,,,,,
,,,,,,,,,,stimuli/images/PICTURE_95.png,HONEY,5ef367aa3b28ea0a3aad67ba,03/05/1953,2020-09-03_19h45.00.811,proactive2,2020.1.2,Win32,60,5f5126bb654d4b30ee6923d8,5f513922984fc83356efe48f,1,,,,,,suitcase,,,,,,0,10,10,44,1,5,1,,,,,,,,,,,,,,,,,,,,,,,,,,,,,,,,,,,,,,,,,,,,,,,,,,,,,,,,,,,,,,,,,,,,,,,,,,,,,,,,,,,,,,,,,,,,,,,,,,,
,,,,,,,,,,stimuli/images/PICTURE_469.png,AGENT,5ef367aa3b28ea0a3aad67ba,03/05/1953,2020-09-03_19h45.00.811,proactive2,2020.1.2,Win32,60,5f5126bb654d4b30ee6923d8,5f513922984fc83356efe48f,1,,,,,,stool,,,,,,0,11,11,16,1,2,1,,,,,,,,,,,,,,,,,,,,,,,,,,,,,,,,,,,,,,,,,,,,,,,,,,,,,,,,,,,,,,,,,,,,,,,,,,,,,,,,,,,,,,,,,,,,,,,,,,,
,,,,,,,,,,stimuli/images/PICTURE_491.png,GLASS,5ef367aa3b28ea0a3aad67ba,03/05/1953,2020-09-03_19h45.00.811,proactive2,2020.1.2,Win32,60,5f5126bb654d4b30ee6923d8,5f513922984fc83356efe48f,1,,,,,,rug,,,,,,0,12,12,14,1,2,1,,,,,,,,,,,,,,,,,,,,,,,,,,,,,,,,,,,,,,,,,,,,,,,,,,,,,,,,,,,,,,,,,,,,,,,,,,,,,,,,,,,,,,,,,,,,,,,,,,,
,,,,,,,,,,stimuli/images/PICTURE_308.png,FAMILY,5ef367aa3b28ea0a3aad67ba,03/05/1953,2020-09-03_19h45.00.811,proactive2,2020.1.2,Win32,60,5f5126bb654d4b30ee6923d8,5f513922984fc83356efe48f,1,,,,,,dice,,,,,,0,13,13,36,1,4,1,,,,,,,,,,,,,,,,,,,,,,,,,,,,,,,,,,,,,,,,,,,,,,,,,,,,,,,,,,,,,,,,,,,,,,,,,,,,,,,,,,,,,,,,,,,,,,,,,,,
,,,,,,,,,,stimuli/images/PICTURE_491.png,RIVER,5ef367aa3b28ea0a3aad67ba,03/05/1953,2020-09-03_19h45.00.811,proactive2,2020.1.2,Win32,60,5f5126bb654d4b30ee6923d8,5f513922984fc83356efe48f,1,,,,,,rug,,,,,,0,14,14,6,1,1,1,,,,,,,,,,,,,,,,,,,,,,,,,,,,,,,,,,,,,,,,,,,,,,,,,,,,,,,,,,,,,,,,,,,,,,,,,,,,,,,,,,,,,,,,,,,,,,,,,,,
,,,,,,,,,,stimuli/images/PICTURE_449.png,DUDE,5ef367aa3b28ea0a3aad67ba,03/05/1953,2020-09-03_19h45.00.811,proactive2,2020.1.2,Win32,60,5f5126bb654d4b30ee6923d8,5f513922984fc83356efe48f,1,,,,,,bench,,,,,,0,15,15,17,1,2,1,,,,,,,,,,,,,,,,,,,,,,,,,,,,,,,,,,,,,,,,,,,,,,,,,,,,,,,,,,,,,,,,,,,,,,,,,,,,,,,,,,,,,,,,,,,,,,,,,,,
,,,,,,,,,,stimuli/images/PICTURE_383.png,WRITER,5ef367aa3b28ea0a3aad67ba,03/05/1953,2020-09-03_19h45.00.811,proactive2,2020.1.2,Win32,60,5f5126bb654d4b30ee6923d8,5f513922984fc83356efe48f,1,,,,,,coin,,,,,,0,16,16,28,1,3,1,,,,,,,,,,,,,,,,,,,,,,,,,,,,,,,,,,,,,,,,,,,,,,,,,,,,,,,,,,,,,,,,,,,,,,,,,,,,,,,,,,,,,,,,,,,,,,,,,,,
,,,,,,,,,,stimuli/images/PICTURE_487.png,GIRL,5ef367aa3b28ea0a3aad67ba,03/05/1953,2020-09-03_19h45.00.811,proactive2,2020.1.2,Win32,60,5f5126bb654d4b30ee6923d8,5f513922984fc83356efe48f,1,,,,,,basket,,,,,,0,17,17,45,1,5,1,,,,,,,,,,,,,,,,,,,,,,,,,,,,,,,,,,,,,,,,,,,,,,,,,,,,,,,,,,,,,,,,,,,,,,,,,,,,,,,,,,,,,,,,,,,,,,,,,,,
,,,,,,,,,,stimuli/images/PICTURE_33.png,FRIEND,5ef367aa3b28ea0a3aad67ba,03/05/1953,2020-09-03_19h45.00.811,proactive2,2020.1.2,Win32,60,5f5126bb654d4b30ee6923d8,5f513922984fc83356efe48f,1,,,,,,frame,,,,,,0,18,18,8,1,1,1,,,,,,,,,,,,,,,,,,,,,,,,,,,,,,,,,,,,,,,,,,,,,,,,,,,,,,,,,,,,,,,,,,,,,,,,,,,,,,,,,,,,,,,,,,,,,,,,,,,
,,,,,,,,,,stimuli/images/PICTURE_405.png,YEAR,5ef367aa3b28ea0a3aad67ba,03/05/1953,2020-09-03_19h45.00.811,proactive2,2020.1.2,Win32,60,5f5126bb654d4b30ee6923d8,5f513922984fc83356efe48f,1,,,,,,anchor,,,,,,0,19,19,34,1,4,1,,,,,,,,,,,,,,,,,,,,,,,,,,,,,,,,,,,,,,,,,,,,,,,,,,,,,,,,,,,,,,,,,,,,,,,,,,,,,,,,,,,,,,,,,,,,,,,,,,,
,,,,,,,,,,stimuli/images/PICTURE_327.png,SERIES,5ef367aa3b28ea0a3aad67ba,03/05/1953,2020-09-03_19h45.00.811,proactive2,2020.1.2,Win32,60,5f5126bb654d4b30ee6923d8,5f513922984fc83356efe48f,1,,,,,,helmet,,,,,,0,20,20,3,1,1,1,,,,,,,,,,,,,,,,,,,,,,,,,,,,,,,,,,,,,,,,,,,,,,,,,,,,,,,,,,,,,,,,,,,,,,,,,,,,,,,,,,,,,,,,,,,,,,,,,,,
,,,,,,,,,,stimuli/images/PICTURE_655.png,TOILET,5ef367aa3b28ea0a3aad67ba,03/05/1953,2020-09-03_19h45.00.811,proactive2,2020.1.2,Win32,60,5f5126bb654d4b30ee6923d8,5f513922984fc83356efe48f,1,,,,,,megaphone,,,,,,0,21,21,12,1,2,1,,,,,,,,,,,,,,,,,,,,,,,,,,,,,,,,,,,,,,,,,,,,,,,,,,,,,,,,,,,,,,,,,,,,,,,,,,,,,,,,,,,,,,,,,,,,,,,,,,,
,,,,,,,,,,stimuli/images/PICTURE_380.png,HONEY,5ef367aa3b28ea0a3aad67ba,03/05/1953,2020-09-03_19h45.00.811,proactive2,2020.1.2,Win32,60,5f5126bb654d4b30ee6923d8,5f513922984fc83356efe48f,1,,,,,,gorilla,,,,,,0,22,22,19,1,2,1,,,,,,,,,,,,,,,,,,,,,,,,,,,,,,,,,,,,,,,,,,,,,,,,,,,,,,,,,,,,,,,,,,,,,,,,,,,,,,,,,,,,,,,,,,,,,,,,,,,
,,,,,,,,,,stimuli/images/PICTURE_2.png,FLIGHT,5ef367aa3b28ea0a3aad67ba,03/05/1953,2020-09-03_19h45.00.811,proactive2,2020.1.2,Win32,60,5f5126bb654d4b30ee6923d8,5f513922984fc83356efe48f,1,,,,,,tyre,,,,,,0,23,23,15,1,2,1,,,,,,,,,,,,,,,,,,,,,,,,,,,,,,,,,,,,,,,,,,,,,,,,,,,,,,,,,,,,,,,,,,,,,,,,,,,,,,,,,,,,,,,,,,,,,,,,,,,
,,,,,,,,,,stimuli/images/PICTURE_203.png,GODS,5ef367aa3b28ea0a3aad67ba,03/05/1953,2020-09-03_19h45.00.811,proactive2,2020.1.2,Win32,60,5f5126bb654d4b30ee6923d8,5f513922984fc83356efe48f,1,,,,,,cap,,,,,,0,24,24,30,1,4,1,,,,,,,,,,,,,,,,,,,,,,,,,,,,,,,,,,,,,,,,,,,,,,,,,,,,,,,,,,,,,,,,,,,,,,,,,,,,,,,,,,,,,,,,,,,,,,,,,,,
,,,,,,,,,,stimuli/images/PICTURE_147.png,YEAR,5ef367aa3b28ea0a3aad67ba,03/05/1953,2020-09-03_19h45.00.811,proactive2,2020.1.2,Win32,60,5f5126bb654d4b30ee6923d8,5f513922984fc83356efe48f,1,,,,,,hanger,,,,,,0,25,25,21,1,3,1,,,,,,,,,,,,,,,,,,,,,,,,,,,,,,,,,,,,,,,,,,,,,,,,,,,,,,,,,,,,,,,,,,,,,,,,,,,,,,,,,,,,,,,,,,,,,,,,,,,
,,,,,,,,,,stimuli/images/PICTURE_208.png,SYSTEM,5ef367aa3b28ea0a3aad67ba,03/05/1953,2020-09-03_19h45.00.811,proactive2,2020.1.2,Win32,60,5f5126bb654d4b30ee6923d8,5f513922984fc83356efe48f,1,,,,,,microphone,,,,,,0,26,26,32,1,4,1,,,,,,,,,,,,,,,,,,,,,,,,,,,,,,,,,,,,,,,,,,,,,,,,,,,,,,,,,,,,,,,,,,,,,,,,,,,,,,,,,,,,,,,,,,,,,,,,,,,
,,,,,,,,,,stimuli/images/PICTURE_403.png,WRITER,5ef367aa3b28ea0a3aad67ba,03/05/1953,2020-09-03_19h45.00.811,proactive2,2020.1.2,Win32,60,5f5126bb654d4b30ee6923d8,5f513922984fc83356efe48f,1,,,,,,cathedral,,,,,,0,27,27,31,1,4,1,,,,,,,,,,,,,,,,,,,,,,,,,,,,,,,,,,,,,,,,,,,,,,,,,,,,,,,,,,,,,,,,,,,,,,,,,,,,,,,,,,,,,,,,,,,,,,,,,,,
,,,,,,,,,,stimuli/images/PICTURE_675.png,SALE,5ef367aa3b28ea0a3aad67ba,03/05/1953,2020-09-03_19h45.00.811,proactive2,2020.1.2,Win32,60,5f5126bb654d4b30ee6923d8,5f513922984fc83356efe48f,1,,,,,,windmill,,,,,,0,28,28,47,1,5,1,,,,,,,,,,,,,,,,,,,,,,,,,,,,,,,,,,,,,,,,,,,,,,,,,,,,,,,,,,,,,,,,,,,,,,,,,,,,,,,,,,,,,,,,,,,,,,,,,,,
,,,,,,,,,,stimuli/images/PICTURE_383.png,SERIES,5ef367aa3b28ea0a3aad67ba,03/05/1953,2020-09-03_19h45.00.811,proactive2,2020.1.2,Win32,60,5f5126bb654d4b30ee6923d8,5f513922984fc83356efe48f,1,,,,,,coin,,,,,,0,29,29,46,1,5,1,,,,,,,,,,,,,,,,,,,,,,,,,,,,,,,,,,,,,,,,,,,,,,,,,,,,,,,,,,,,,,,,,,,,,,,,,,,,,,,,,,,,,,,,,,,,,,,,,,,
,,,,,,,,,,stimuli/images/PICTURE_677.png,APPLE,5ef367aa3b28ea0a3aad67ba,03/05/1953,2020-09-03_19h45.00.811,proactive2,2020.1.2,Win32,60,5f5126bb654d4b30ee6923d8,5f513922984fc83356efe48f,1,,,,,,map,,,,,,0,30,30,43,1,5,1,,,,,,,,,,,,,,,,,,,,,,,,,,,,,,,,,,,,,,,,,,,,,,,,,,,,,,,,,,,,,,,,,,,,,,,,,,,,,,,,,,,,,,,,,,,,,,,,,,,
,,,,,,,,,,stimuli/images/PICTURE_95.png,BOYS,5ef367aa3b28ea0a3aad67ba,03/05/1953,2020-09-03_19h45.00.811,proactive2,2020.1.2,Win32,60,5f5126bb654d4b30ee6923d8,5f513922984fc83356efe48f,1,,,,,,suitcase,,,,,,0,31,31,1,1,1,1,,,,,,,,,,,,,,,,,,,,,,,,,,,,,,,,,,,,,,,,,,,,,,,,,,,,,,,,,,,,,,,,,,,,,,,,,,,,,,,,,,,,,,,,,,,,,,,,,,,
,,,,,,,,,,stimuli/images/PICTURE_339.png,CLIENT,5ef367aa3b28ea0a3aad67ba,03/05/1953,2020-09-03_19h45.00.811,proactive2,2020.1.2,Win32,60,5f5126bb654d4b30ee6923d8,5f513922984fc83356efe48f,1,,,,,,backpack,,,,,,0,32,32,11,1,2,1,,,,,,,,,,,,,,,,,,,,,,,,,,,,,,,,,,,,,,,,,,,,,,,,,,,,,,,,,,,,,,,,,,,,,,,,,,,,,,,,,,,,,,,,,,,,,,,,,,,
,,,,,,,,,,stimuli/images/PICTURE_564.png,BATH,5ef367aa3b28ea0a3aad67ba,03/05/1953,2020-09-03_19h45.00.811,proactive2,2020.1.2,Win32,60,5f5126bb654d4b30ee6923d8,5f513922984fc83356efe48f,1,,,,,,spoon,,,,,,0,33,33,26,1,3,1,,,,,,,,,,,,,,,,,,,,,,,,,,,,,,,,,,,,,,,,,,,,,,,,,,,,,,,,,,,,,,,,,,,,,,,,,,,,,,,,,,,,,,,,,,,,,,,,,,,
,,,,,,,,,,stimuli/images/PICTURE_380.png,CANDY,5ef367aa3b28ea0a3aad67ba,03/05/1953,2020-09-03_19h45.00.811,proactive2,2020.1.2,Win32,60,5f5126bb654d4b30ee6923d8,5f513922984fc83356efe48f,1,,,,,,gorilla,,,,,,0,34,34,0,1,1,1,,,,,,,,,,,,,,,,,,,,,,,,,,,,,,,,,,,,,,,,,,,,,,,,,,,,,,,,,,,,,,,,,,,,,,,,,,,,,,,,,,,,,,,,,,,,,,,,,,,
,,,,,,,,,,stimuli/images/PICTURE_340.png,LETTER,5ef367aa3b28ea0a3aad67ba,03/05/1953,2020-09-03_19h45.00.811,proactive2,2020.1.2,Win32,60,5f5126bb654d4b30ee6923d8,5f513922984fc83356efe48f,1,,,,,,mirror,,,,,,0,35,35,24,1,3,1,,,,,,,,,,,,,,,,,,,,,,,,,,,,,,,,,,,,,,,,,,,,,,,,,,,,,,,,,,,,,,,,,,,,,,,,,,,,,,,,,,,,,,,,,,,,,,,,,,,
,,,,,,,,,,stimuli/images/PICTURE_42.png,BOYS,5ef367aa3b28ea0a3aad67ba,03/05/1953,2020-09-03_19h45.00.811,proactive2,2020.1.2,Win32,60,5f5126bb654d4b30ee6923d8,5f513922984fc83356efe48f,1,,,,,,pear,,,,,,0,36,36,55,1,6,1,,,,,,,,,,,,,,,,,,,,,,,,,,,,,,,,,,,,,,,,,,,,,,,,,,,,,,,,,,,,,,,,,,,,,,,,,,,,,,,,,,,,,,,,,,,,,,,,,,,
,,,,,,,,,,stimuli/images/PICTURE_32.png,PILLS,5ef367aa3b28ea0a3aad67ba,03/05/1953,2020-09-03_19h45.00.811,proactive2,2020.1.2,Win32,60,5f5126bb654d4b30ee6923d8,5f513922984fc83356efe48f,1,,,,,,crown,,,,,,0,37,37,18,1,2,1,,,,,,,,,,,,,,,,,,,,,,,,,,,,,,,,,,,,,,,,,,,,,,,,,,,,,,,,,,,,,,,,,,,,,,,,,,,,,,,,,,,,,,,,,,,,,,,,,,,
,,,,,,,,,,stimuli/images/PICTURE_504.png,COPS,5ef367aa3b28ea0a3aad67ba,03/05/1953,2020-09-03_19h45.00.811,proactive2,2020.1.2,Win32,60,5f5126bb654d4b30ee6923d8,5f513922984fc83356efe48f,1,,,,,,wheel,,,,,,0,38,38,52,1,6,1,,,,,,,,,,,,,,,,,,,,,,,,,,,,,,,,,,,,,,,,,,,,,,,,,,,,,,,,,,,,,,,,,,,,,,,,,,,,,,,,,,,,,,,,,,,,,,,,,,,
,,,,,,,,,,stimuli/images/PICTURE_32.png,KIND,5ef367aa3b28ea0a3aad67ba,03/05/1953,2020-09-03_19h45.00.811,proactive2,2020.1.2,Win32,60,5f5126bb654d4b30ee6923d8,5f513922984fc83356efe48f,1,,,,,,crown,,,,,,0,39,39,35,1,4,1,,,,,,,,,,,,,,,,,,,,,,,,,,,,,,,,,,,,,,,,,,,,,,,,,,,,,,,,,,,,,,,,,,,,,,,,,,,,,,,,,,,,,,,,,,,,,,,,,,,
,,,,,,,,,,stimuli/images/PICTURE_467.png,POLICY,5ef367aa3b28ea0a3aad67ba,03/05/1953,2020-09-03_19h45.00.811,proactive2,2020.1.2,Win32,60,5f5126bb654d4b30ee6923d8,5f513922984fc83356efe48f,1,,,,,,peg,,,,,,0,40,40,53,1,6,1,,,,,,,,,,,,,,,,,,,,,,,,,,,,,,,,,,,,,,,,,,,,,,,,,,,,,,,,,,,,,,,,,,,,,,,,,,,,,,,,,,,,,,,,,,,,,,,,,,,
,,,,,,,,,,stimuli/images/PICTURE_296.png,LOTS,5ef367aa3b28ea0a3aad67ba,03/05/1953,2020-09-03_19h45.00.811,proactive2,2020.1.2,Win32,60,5f5126bb654d4b30ee6923d8,5f513922984fc83356efe48f,1,,,,,,bolt,,,,,,0,41,41,9,1,1,1,,,,,,,,,,,,,,,,,,,,,,,,,,,,,,,,,,,,,,,,,,,,,,,,,,,,,,,,,,,,,,,,,,,,,,,,,,,,,,,,,,,,,,,,,,,,,,,,,,,
,,,,,,,,,,stimuli/images/PICTURE_233.png,LOTS,5ef367aa3b28ea0a3aad67ba,03/05/1953,2020-09-03_19h45.00.811,proactive2,2020.1.2,Win32,60,5f5126bb654d4b30ee6923d8,5f513922984fc83356efe48f,1,,,,,,salt,,,,,,0,42,42,42,1,5,1,,,,,,,,,,,,,,,,,,,,,,,,,,,,,,,,,,,,,,,,,,,,,,,,,,,,,,,,,,,,,,,,,,,,,,,,,,,,,,,,,,,,,,,,,,,,,,,,,,,
,,,,,,,,,,stimuli/images/PICTURE_403.png,TOILET,5ef367aa3b28ea0a3aad67ba,03/05/1953,2020-09-03_19h45.00.811,proactive2,2020.1.2,Win32,60,5f5126bb654d4b30ee6923d8,5f513922984fc83356efe48f,1,,,,,,cathedral,,,,,,0,43,43,25,1,3,1,,,,,,,,,,,,,,,,,,,,,,,,,,,,,,,,,,,,,,,,,,,,,,,,,,,,,,,,,,,,,,,,,,,,,,,,,,,,,,,,,,,,,,,,,,,,,,,,,,,
,,,,,,,,,,stimuli/images/PICTURE_405.png,PLENTY,5ef367aa3b28ea0a3aad67ba,03/05/1953,2020-09-03_19h45.00.811,proactive2,2020.1.2,Win32,60,5f5126bb654d4b30ee6923d8,5f513922984fc83356efe48f,1,,,,,,anchor,,,,,,0,44,44,23,1,3,1,,,,,,,,,,,,,,,,,,,,,,,,,,,,,,,,,,,,,,,,,,,,,,,,,,,,,,,,,,,,,,,,,,,,,,,,,,,,,,,,,,,,,,,,,,,,,,,,,,,
,,,,,,,,,,stimuli/images/PICTURE_708.png,RECORD,5ef367aa3b28ea0a3aad67ba,03/05/1953,2020-09-03_19h45.00.811,proactive2,2020.1.2,Win32,60,5f5126bb654d4b30ee6923d8,5f513922984fc83356efe48f,1,,,,,,monkey,,,,,,0,45,45,58,1,6,1,,,,,,,,,,,,,,,,,,,,,,,,,,,,,,,,,,,,,,,,,,,,,,,,,,,,,,,,,,,,,,,,,,,,,,,,,,,,,,,,,,,,,,,,,,,,,,,,,,,
,,,,,,,,,,stimuli/images/PICTURE_85.png,NATION,5ef367aa3b28ea0a3aad67ba,03/05/1953,2020-09-03_19h45.00.811,proactive2,2020.1.2,Win32,60,5f5126bb654d4b30ee6923d8,5f513922984fc83356efe48f,1,,,,,,diamond,,,,,,0,46,46,5,1,1,1,,,,,,,,,,,,,,,,,,,,,,,,,,,,,,,,,,,,,,,,,,,,,,,,,,,,,,,,,,,,,,,,,,,,,,,,,,,,,,,,,,,,,,,,,,,,,,,,,,,
,,,,,,,,,,stimuli/images/PICTURE_108.png,FLIGHT,5ef367aa3b28ea0a3aad67ba,03/05/1953,2020-09-03_19h45.00.811,proactive2,2020.1.2,Win32,60,5f5126bb654d4b30ee6923d8,5f513922984fc83356efe48f,1,,,,,,calendar,,,,,,0,47,47,59,1,6,1,,,,,,,,,,,,,,,,,,,,,,,,,,,,,,,,,,,,,,,,,,,,,,,,,,,,,,,,,,,,,,,,,,,,,,,,,,,,,,,,,,,,,,,,,,,,,,,,,,,
,,,,,,,,,,stimuli/images/PICTURE_297.png,RIVER,5ef367aa3b28ea0a3aad67ba,03/05/1953,2020-09-03_19h45.00.811,proactive2,2020.1.2,Win32,60,5f5126bb654d4b30ee6923d8,5f513922984fc83356efe48f,1,,,,,,aeroplane,,,,,,0,48,48,39,1,4,1,,,,,,,,,,,,,,,,,,,,,,,,,,,,,,,,,,,,,,,,,,,,,,,,,,,,,,,,,,,,,,,,,,,,,,,,,,,,,,,,,,,,,,,,,,,,,,,,,,,
,,,,,,,,,,stimuli/images/PICTURE_654.png,MONTH,5ef367aa3b28ea0a3aad67ba,03/05/1953,2020-09-03_19h45.00.811,proactive2,2020.1.2,Win32,60,5f5126bb654d4b30ee6923d8,5f513922984fc83356efe48f,1,,,,,,pencil,,,,,,0,49,49,29,1,3,1,,,,,,,,,,,,,,,,,,,,,,,,,,,,,,,,,,,,,,,,,,,,,,,,,,,,,,,,,,,,,,,,,,,,,,,,,,,,,,,,,,,,,,,,,,,,,,,,,,,
,,,,,,,,,,stimuli/images/PICTURE_285.png,LIFE,5ef367aa3b28ea0a3aad67ba,03/05/1953,2020-09-03_19h45.00.811,proactive2,2020.1.2,Win32,60,5f5126bb654d4b30ee6923d8,5f513922984fc83356efe48f,1,,,,,,carrot,,,,,,0,50,50,33,1,4,1,,,,,,,,,,,,,,,,,,,,,,,,,,,,,,,,,,,,,,,,,,,,,,,,,,,,,,,,,,,,,,,,,,,,,,,,,,,,,,,,,,,,,,,,,,,,,,,,,,,
,,,,,,,,,,stimuli/images/PICTURE_85.png,TOILET,5ef367aa3b28ea0a3aad67ba,03/05/1953,2020-09-03_19h45.00.811,proactive2,2020.1.2,Win32,60,5f5126bb654d4b30ee6923d8,5f513922984fc83356efe48f,1,,,,,,diamond,,,,,,0,51,51,48,1,5,1,,,,,,,,,,,,,,,,,,,,,,,,,,,,,,,,,,,,,,,,,,,,,,,,,,,,,,,,,,,,,,,,,,,,,,,,,,,,,,,,,,,,,,,,,,,,,,,,,,,
,,,,,,,,,,stimuli/images/PICTURE_296.png,LIFE,5ef367aa3b28ea0a3aad67ba,03/05/1953,2020-09-03_19h45.00.811,proactive2,2020.1.2,Win32,60,5f5126bb654d4b30ee6923d8,5f513922984fc83356efe48f,1,,,,,,bolt,,,,,,0,52,52,57,1,6,1,,,,,,,,,,,,,,,,,,,,,,,,,,,,,,,,,,,,,,,,,,,,,,,,,,,,,,,,,,,,,,,,,,,,,,,,,,,,,,,,,,,,,,,,,,,,,,,,,,,
,,,,,,,,,,stimuli/images/PICTURE_340.png,VALLEY,5ef367aa3b28ea0a3aad67ba,03/05/1953,2020-09-03_19h45.00.811,proactive2,2020.1.2,Win32,60,5f5126bb654d4b30ee6923d8,5f513922984fc83356efe48f,1,,,,,,mirror,,,,,,0,53,53,54,1,6,1,,,,,,,,,,,,,,,,,,,,,,,,,,,,,,,,,,,,,,,,,,,,,,,,,,,,,,,,,,,,,,,,,,,,,,,,,,,,,,,,,,,,,,,,,,,,,,,,,,,
,,,,,,,,,,stimuli/images/PICTURE_57.png,MOMENT,5ef367aa3b28ea0a3aad67ba,03/05/1953,2020-09-03_19h45.00.811,proactive2,2020.1.2,Win32,60,5f5126bb654d4b30ee6923d8,5f513922984fc83356efe48f,1,,,,,,stamp,,,,,,0,54,54,37,1,4,1,,,,,,,,,,,,,,,,,,,,,,,,,,,,,,,,,,,,,,,,,,,,,,,,,,,,,,,,,,,,,,,,,,,,,,,,,,,,,,,,,,,,,,,,,,,,,,,,,,,
,,,,,,,,,,stimuli/images/PICTURE_685.png,PENNY,5ef367aa3b28ea0a3aad67ba,03/05/1953,2020-09-03_19h45.00.811,proactive2,2020.1.2,Win32,60,5f5126bb654d4b30ee6923d8,5f513922984fc83356efe48f,1,,,,,,goose,,,,,,0,55,55,4,1,1,1,,,,,,,,,,,,,,,,,,,,,,,,,,,,,,,,,,,,,,,,,,,,,,,,,,,,,,,,,,,,,,,,,,,,,,,,,,,,,,,,,,,,,,,,,,,,,,,,,,,
,,,,,,,,,,stimuli/images/PICTURE_203.png,NIGHT,5ef367aa3b28ea0a3aad67ba,03/05/1953,2020-09-03_19h45.00.811,proactive2,2020.1.2,Win32,60,5f5126bb654d4b30ee6923d8,5f513922984fc83356efe48f,1,,,,,,cap,,,,,,0,56,56,2,1,1,1,,,,,,,,,,,,,,,,,,,,,,,,,,,,,,,,,,,,,,,,,,,,,,,,,,,,,,,,,,,,,,,,,,,,,,,,,,,,,,,,,,,,,,,,,,,,,,,,,,,
,,,,,,,,,,stimuli/images/PICTURE_147.png,WOMEN,5ef367aa3b28ea0a3aad67ba,03/05/1953,2020-09-03_19h45.00.811,proactive2,2020.1.2,Win32,60,5f5126bb654d4b30ee6923d8,5f513922984fc83356efe48f,1,,,,,,hanger,,,,,,0,57,57,7,1,1,1,,,,,,,,,,,,,,,,,,,,,,,,,,,,,,,,,,,,,,,,,,,,,,,,,,,,,,,,,,,,,,,,,,,,,,,,,,,,,,,,,,,,,,,,,,,,,,,,,,,
,,,,,,,,,,stimuli/images/PICTURE_504.png,ARTIST,5ef367aa3b28ea0a3aad67ba,03/05/1953,2020-09-03_19h45.00.811,proactive2,2020.1.2,Win32,60,5f5126bb654d4b30ee6923d8,5f513922984fc83356efe48f,1,,,,,,wheel,,,,,,0,58,58,49,1,5,1,,,,,,,,,,,,,,,,,,,,,,,,,,,,,,,,,,,,,,,,,,,,,,,,,,,,,,,,,,,,,,,,,,,,,,,,,,,,,,,,,,,,,,,,,,,,,,,,,,,
,,?,0.001,0,,,,,,stimuli/images/PICTURE_233.png,LOTS,5ef367aa3b28ea0a3aad67ba,03/05/1953,2020-09-03_19h45.00.811,proactive2,2020.1.2,Win32,60,5f5126bb654d4b30ee6923d8,5f513922984fc83356efe48f,1,,,,,,salt,,,,,,,,,,,5,1,0,0,0,42,1,,,,,,,,,,,,,,,,,,,,,,,,,,,,,,,,,,,,,,,,,,,,,,,,,,,,,,,,,,,,,,,,,,,,,,,,,,,,,,,,,,,,,,,,,,,,,,
,,?,0.002,0,,,,,,stimuli/images/PICTURE_95.png,HONEY,5ef367aa3b28ea0a3aad67ba,03/05/1953,2020-09-03_19h45.00.811,proactive2,2020.1.2,Win32,60,5f5126bb654d4b30ee6923d8,5f513922984fc83356efe48f,1,,,,,,suitcase,,,,,,,,,,,5,1,0,1,1,44,1,,,,,,,,,,,,,,,,,,,,,,,,,,,,,,,,,,,,,,,,,,,,,,,,,,,,,,,,,,,,,,,,,,,,,,,,,,,,,,,,,,,,,,,,,,,,,,
,,?,0.001,0,,,,,,stimuli/images/PICTURE_677.png,APPLE,5ef367aa3b28ea0a3aad67ba,03/05/1953,2020-09-03_19h45.00.811,proactive2,2020.1.2,Win32,60,5f5126bb654d4b30ee6923d8,5f513922984fc83356efe48f,1,,,,,,map,,,,,,,,,,,5,1,0,2,2,43,1,,,,,,,,,,,,,,,,,,,,,,,,,,,,,,,,,,,,,,,,,,,,,,,,,,,,,,,,,,,,,,,,,,,,,,,,,,,,,,,,,,,,,,,,,,,,,,
,,PENNY,2.741,1,,,,,,stimuli/images/PICTURE_685.png,PENNY,5ef367aa3b28ea0a3aad67ba,03/05/1953,2020-09-03_19h45.00.811,proactive2,2020.1.2,Win32,60,5f5126bb654d4b30ee6923d8,5f513922984fc83356efe48f,1,,,,,,goose,,,,,,,,,,,1,1,0,3,3,4,1,,,,,,,,,,,,,,,,,,,,,,,,,,,,,,,,,,,,,,,,,,,,,,,,,,,,,,,,,,,,,,,,,,,,,,,,,,,,,,,,,,,,,,,,,,,,,,
,,?,0.004,0,,,,,,stimuli/images/PICTURE_380.png,HONEY,5ef367aa3b28ea0a3aad67ba,03/05/1953,2020-09-03_19h45.00.811,proactive2,2020.1.2,Win32,60,5f5126bb654d4b30ee6923d8,5f513922984fc83356efe48f,1,,,,,,gorilla,,,,,,,,,,,2,1,0,4,4,19,1,,,,,,,,,,,,,,,,,,,,,,,,,,,,,,,,,,,,,,,,,,,,,,,,,,,,,,,,,,,,,,,,,,,,,,,,,,,,,,,,,,,,,,,,,,,,,,
,,?,0.002,0,,,,,,stimuli/images/PICTURE_340.png,VALLEY,5ef367aa3b28ea0a3aad67ba,03/05/1953,2020-09-03_19h45.00.811,proactive2,2020.1.2,Win32,60,5f5126bb654d4b30ee6923d8,5f513922984fc83356efe48f,1,,,,,,mirror,,,,,,,,,,,6,1,0,5,5,54,1,,,,,,,,,,,,,,,,,,,,,,,,,,,,,,,,,,,,,,,,,,,,,,,,,,,,,,,,,,,,,,,,,,,,,,,,,,,,,,,,,,,,,,,,,,,,,,
,,?,0.002,0,,,,,,stimuli/images/PICTURE_177.png,WRITER,5ef367aa3b28ea0a3aad67ba,03/05/1953,2020-09-03_19h45.00.811,proactive2,2020.1.2,Win32,60,5f5126bb654d4b30ee6923d8,5f513922984fc83356efe48f,1,,,,,,mushroom,,,,,,,,,,,5,1,0,6,6,41,1,,,,,,,,,,,,,,,,,,,,,,,,,,,,,,,,,,,,,,,,,,,,,,,,,,,,,,,,,,,,,,,,,,,,,,,,,,,,,,,,,,,,,,,,,,,,,,
,,?,0.002,0,,,,,,stimuli/images/PICTURE_147.png,YEAR,5ef367aa3b28ea0a3aad67ba,03/05/1953,2020-09-03_19h45.00.811,proactive2,2020.1.2,Win32,60,5f5126bb654d4b30ee6923d8,5f513922984fc83356efe48f,1,,,,,,hanger,,,,,,,,,,,3,1,0,7,7,21,1,,,,,,,,,,,,,,,,,,,,,,,,,,,,,,,,,,,,,,,,,,,,,,,,,,,,,,,,,,,,,,,,,,,,,,,,,,,,,,,,,,,,,,,,,,,,,,
,,?,0.002,0,,,,,,stimuli/images/PICTURE_383.png,WRITER,5ef367aa3b28ea0a3aad67ba,03/05/1953,2020-09-03_19h45.00.811,proactive2,2020.1.2,Win32,60,5f5126bb654d4b30ee6923d8,5f513922984fc83356efe48f,1,,,,,,coin,,,,,,,,,,,3,1,0,8,8,28,1,,,,,,,,,,,,,,,,,,,,,,,,,,,,,,,,,,,,,,,,,,,,,,,,,,,,,,,,,,,,,,,,,,,,,,,,,,,,,,,,,,,,,,,,,,,,,,
,,?,0.002,0,,,,,,stimuli/images/PICTURE_296.png,LIFE,5ef367aa3b28ea0a3aad67ba,03/05/1953,2020-09-03_19h45.00.811,proactive2,2020.1.2,Win32,60,5f5126bb654d4b30ee6923d8,5f513922984fc83356efe48f,1,,,,,,bolt,,,,,,,,,,,6,1,0,9,9,57,1,,,,,,,,,,,,,,,,,,,,,,,,,,,,,,,,,,,,,,,,,,,,,,,,,,,,,,,,,,,,,,,,,,,,,,,,,,,,,,,,,,,,,,,,,,,,,,
,,WOMAN,1.768,0,,,,,,stimuli/images/PICTURE_147.png,WOMEN,5ef367aa3b28ea0a3aad67ba,03/05/1953,2020-09-03_19h45.00.811,proactive2,2020.1.2,Win32,60,5f5126bb654d4b30ee6923d8,5f513922984fc83356efe48f,1,,,,,,hanger,,,,,,,,,,,1,1,0,10,10,7,1,,,,,,,,,,,,,,,,,,,,,,,,,,,,,,,,,,,,,,,,,,,,,,,,,,,,,,,,,,,,,,,,,,,,,,,,,,,,,,,,,,,,,,,,,,,,,,
,,?,0.003,0,,,,,,stimuli/images/PICTURE_655.png,TOILET,5ef367aa3b28ea0a3aad67ba,03/05/1953,2020-09-03_19h45.00.811,proactive2,2020.1.2,Win32,60,5f5126bb654d4b30ee6923d8,5f513922984fc83356efe48f,1,,,,,,megaphone,,,,,,,,,,,2,1,0,11,11,12,1,,,,,,,,,,,,,,,,,,,,,,,,,,,,,,,,,,,,,,,,,,,,,,,,,,,,,,,,,,,,,,,,,,,,,,,,,,,,,,,,,,,,,,,,,,,,,,
,,?,0.004,0,,,,,,stimuli/images/PICTURE_57.png,MOMENT,5ef367aa3b28ea0a3aad67ba,03/05/1953,2020-09-03_19h45.00.811,proactive2,2020.1.2,Win32,60,5f5126bb654d4b30ee6923d8,5f513922984fc83356efe48f,1,,,,,,stamp,,,,,,,,,,,4,1,0,12,12,37,1,,,,,,,,,,,,,,,,,,,,,,,,,,,,,,,,,,,,,,,,,,,,,,,,,,,,,,,,,,,,,,,,,,,,,,,,,,,,,,,,,,,,,,,,,,,,,,
,,?,0.002,0,,,,,,stimuli/images/PICTURE_308.png,FAMILY,5ef367aa3b28ea0a3aad67ba,03/05/1953,2020-09-03_19h45.00.811,proactive2,2020.1.2,Win32,60,5f5126bb654d4b30ee6923d8,5f513922984fc83356efe48f,1,,,,,,dice,,,,,,,,,,,4,1,0,13,13,36,1,,,,,,,,,,,,,,,,,,,,,,,,,,,,,,,,,,,,,,,,,,,,,,,,,,,,,,,,,,,,,,,,,,,,,,,,,,,,,,,,,,,,,,,,,,,,,,
,,?,0.002,0,,,,,,stimuli/images/PICTURE_108.png,FLIGHT,5ef367aa3b28ea0a3aad67ba,03/05/1953,2020-09-03_19h45.00.811,proactive2,2020.1.2,Win32,60,5f5126bb654d4b30ee6923d8,5f513922984fc83356efe48f,1,,,,,,calendar,,,,,,,,,,,6,1,0,14,14,59,1,,,,,,,,,,,,,,,,,,,,,,,,,,,,,,,,,,,,,,,,,,,,,,,,,,,,,,,,,,,,,,,,,,,,,,,,,,,,,,,,,,,,,,,,,,,,,,
,,?,0.001,0,,,,,,stimuli/images/PICTURE_285.png,LIFE,5ef367aa3b28ea0a3aad67ba,03/05/1953,2020-09-03_19h45.00.811,proactive2,2020.1.2,Win32,60,5f5126bb654d4b30ee6923d8,5f513922984fc83356efe48f,1,,,,,,carrot,,,,,,,,,,,4,1,0,15,15,33,1,,,,,,,,,,,,,,,,,,,,,,,,,,,,,,,,,,,,,,,,,,,,,,,,,,,,,,,,,,,,,,,,,,,,,,,,,,,,,,,,,,,,,,,,,,,,,,
,,?,0.001,0,,,,,,stimuli/images/PICTURE_504.png,COPS,5ef367aa3b28ea0a3aad67ba,03/05/1953,2020-09-03_19h45.00.811,proactive2,2020.1.2,Win32,60,5f5126bb654d4b30ee6923d8,5f513922984fc83356efe48f,1,,,,,,wheel,,,,,,,,,,,6,1,0,16,16,52,1,,,,,,,,,,,,,,,,,,,,,,,,,,,,,,,,,,,,,,,,,,,,,,,,,,,,,,,,,,,,,,,,,,,,,,,,,,,,,,,,,,,,,,,,,,,,,,
,,?,0.001,0,,,,,,stimuli/images/PICTURE_667.png,RIVER,5ef367aa3b28ea0a3aad67ba,03/05/1953,2020-09-03_19h45.00.811,proactive2,2020.1.2,Win32,60,5f5126bb654d4b30ee6923d8,5f513922984fc83356efe48f,1,,,,,,daisy,,,,,,,,,,,2,1,0,17,17,10,1,,,,,,,,,,,,,,,,,,,,,,,,,,,,,,,,,,,,,,,,,,,,,,,,,,,,,,,,,,,,,,,,,,,,,,,,,,,,,,,,,,,,,,,,,,,,,,
,,?,0.002,0,,,,,,stimuli/images/PICTURE_491.png,GLASS,5ef367aa3b28ea0a3aad67ba,03/05/1953,2020-09-03_19h45.00.811,proactive2,2020.1.2,Win32,60,5f5126bb654d4b30ee6923d8,5f513922984fc83356efe48f,1,,,,,,rug,,,,,,,,,,,2,1,0,18,18,14,1,,,,,,,,,,,,,,,,,,,,,,,,,,,,,,,,,,,,,,,,,,,,,,,,,,,,,,,,,,,,,,,,,,,,,,,,,,,,,,,,,,,,,,,,,,,,,,
,,CANDY,3.416,1,,,,,,stimuli/images/PICTURE_380.png,CANDY,5ef367aa3b28ea0a3aad67ba,03/05/1953,2020-09-03_19h45.00.811,proactive2,2020.1.2,Win32,60,5f5126bb654d4b30ee6923d8,5f513922984fc83356efe48f,1,,,,,,gorilla,,,,,,,,,,,1,1,0,19,19,0,1,,,,,,,,,,,,,,,,,,,,,,,,,,,,,,,,,,,,,,,,,,,,,,,,,,,,,,,,,,,,,,,,,,,,,,,,,,,,,,,,,,,,,,,,,,,,,,
,,?,0.006,0,,,,,,stimuli/images/PICTURE_403.png,WRITER,5ef367aa3b28ea0a3aad67ba,03/05/1953,2020-09-03_19h45.00.811,proactive2,2020.1.2,Win32,60,5f5126bb654d4b30ee6923d8,5f513922984fc83356efe48f,1,,,,,,cathedral,,,,,,,,,,,4,1,0,20,20,31,1,,,,,,,,,,,,,,,,,,,,,,,,,,,,,,,,,,,,,,,,,,,,,,,,,,,,,,,,,,,,,,,,,,,,,,,,,,,,,,,,,,,,,,,,,,,,,,
,,LOTS,2.388,1,,,,,,stimuli/images/PICTURE_296.png,LOTS,5ef367aa3b28ea0a3aad67ba,03/05/1953,2020-09-03_19h45.00.811,proactive2,2020.1.2,Win32,60,5f5126bb654d4b30ee6923d8,5f513922984fc83356efe48f,1,,,,,,bolt,,,,,,,,,,,1,1,0,21,21,9,1,,,,,,,,,,,,,,,,,,,,,,,,,,,,,,,,,,,,,,,,,,,,,,,,,,,,,,,,,,,,,,,,,,,,,,,,,,,,,,,,,,,,,,,,,,,,,,
,,?,0.007,0,,,,,,stimuli/images/PICTURE_32.png,PILLS,5ef367aa3b28ea0a3aad67ba,03/05/1953,2020-09-03_19h45.00.811,proactive2,2020.1.2,Win32,60,5f5126bb654d4b30ee6923d8,5f513922984fc83356efe48f,1,,,,,,crown,,,,,,,,,,,2,1,0,22,22,18,1,,,,,,,,,,,,,,,,,,,,,,,,,,,,,,,,,,,,,,,,,,,,,,,,,,,,,,,,,,,,,,,,,,,,,,,,,,,,,,,,,,,,,,,,,,,,,,
,,?,0.001,0,,,,,,stimuli/images/PICTURE_68.png,MILE,5ef367aa3b28ea0a3aad67ba,03/05/1953,2020-09-03_19h45.00.811,proactive2,2020.1.2,Win32,60,5f5126bb654d4b30ee6923d8,5f513922984fc83356efe48f,1,,,,,,candle,,,,,,,,,,,6,1,0,23,23,51,1,,,,,,,,,,,,,,,,,,,,,,,,,,,,,,,,,,,,,,,,,,,,,,,,,,,,,,,,,,,,,,,,,,,,,,,,,,,,,,,,,,,,,,,,,,,,,,
,,?,0,0,,,,,,stimuli/images/PICTURE_68.png,ROOF,5ef367aa3b28ea0a3aad67ba,03/05/1953,2020-09-03_19h45.00.811,proactive2,2020.1.2,Win32,60,5f5126bb654d4b30ee6923d8,5f513922984fc83356efe48f,1,,,,,,candle,,,,,,,,,,,4,1,0,24,24,38,1,,,,,,,,,,,,,,,,,,,,,,,,,,,,,,,,,,,,,,,,,,,,,,,,,,,,,,,,,,,,,,,,,,,,,,,,,,,,,,,,,,,,,,,,,,,,,,
,,?,0.004,0,,,,,,stimuli/images/PICTURE_708.png,RECORD,5ef367aa3b28ea0a3aad67ba,03/05/1953,2020-09-03_19h45.00.811,proactive2,2020.1.2,Win32,60,5f5126bb654d4b30ee6923d8,5f513922984fc83356efe48f,1,,,,,,monkey,,,,,,,,,,,6,1,0,25,25,58,1,,,,,,,,,,,,,,,,,,,,,,,,,,,,,,,,,,,,,,,,,,,,,,,,,,,,,,,,,,,,,,,,,,,,,,,,,,,,,,,,,,,,,,,,,,,,,,
,,?,0.001,0,,,,,,stimuli/images/PICTURE_504.png,YEAR,5ef367aa3b28ea0a3aad67ba,03/05/1953,2020-09-03_19h45.00.811,proactive2,2020.1.2,Win32,60,5f5126bb654d4b30ee6923d8,5f513922984fc83356efe48f,1,,,,,,wheel,,,,,,,,,,,2,1,0,26,26,13,1,,,,,,,,,,,,,,,,,,,,,,,,,,,,,,,,,,,,,,,,,,,,,,,,,,,,,,,,,,,,,,,,,,,,,,,,,,,,,,,,,,,,,,,,,,,,,,
,,BOYS,1.71,1,,,,,,stimuli/images/PICTURE_95.png,BOYS,5ef367aa3b28ea0a3aad67ba,03/05/1953,2020-09-03_19h45.00.811,proactive2,2020.1.2,Win32,60,5f5126bb654d4b30ee6923d8,5f513922984fc83356efe48f,1,,,,,,suitcase,,,,,,,,,,,1,1,0,27,27,1,1,,,,,,,,,,,,,,,,,,,,,,,,,,,,,,,,,,,,,,,,,,,,,,,,,,,,,,,,,,,,,,,,,,,,,,,,,,,,,,,,,,,,,,,,,,,,,,
,,?,0.006,0,,,,,,stimuli/images/PICTURE_469.png,AGENT,5ef367aa3b28ea0a3aad67ba,03/05/1953,2020-09-03_19h45.00.811,proactive2,2020.1.2,Win32,60,5f5126bb654d4b30ee6923d8,5f513922984fc83356efe48f,1,,,,,,stool,,,,,,,,,,,2,1,0,28,28,16,1,,,,,,,,,,,,,,,,,,,,,,,,,,,,,,,,,,,,,,,,,,,,,,,,,,,,,,,,,,,,,,,,,,,,,,,,,,,,,,,,,,,,,,,,,,,,,,
,,?,0.001,0,,,,,,stimuli/images/PICTURE_487.png,GIRL,5ef367aa3b28ea0a3aad67ba,03/05/1953,2020-09-03_19h45.00.811,proactive2,2020.1.2,Win32,60,5f5126bb654d4b30ee6923d8,5f513922984fc83356efe48f,1,,,,,,basket,,,,,,,,,,,5,1,0,29,29,45,1,,,,,,,,,,,,,,,,,,,,,,,,,,,,,,,,,,,,,,,,,,,,,,,,,,,,,,,,,,,,,,,,,,,,,,,,,,,,,,,,,,,,,,,,,,,,,,
,,?,0.001,0,,,,,,stimuli/images/PICTURE_327.png,CASINO,5ef367aa3b28ea0a3aad67ba,03/05/1953,2020-09-03_19h45.00.811,proactive2,2020.1.2,Win32,60,5f5126bb654d4b30ee6923d8,5f513922984fc83356efe48f,1,,,,,,helmet,,,,,,,,,,,3,1,0,30,30,20,1,,,,,,,,,,,,,,,,,,,,,,,,,,,,,,,,,,,,,,,,,,,,,,,,,,,,,,,,,,,,,,,,,,,,,,,,,,,,,,,,,,,,,,,,,,,,,,
,,?,0.005,0,,,,,,stimuli/images/PICTURE_339.png,CLIENT,5ef367aa3b28ea0a3aad67ba,03/05/1953,2020-09-03_19h45.00.811,proactive2,2020.1.2,Win32,60,5f5126bb654d4b30ee6923d8,5f513922984fc83356efe48f,1,,,,,,backpack,,,,,,,,,,,2,1,0,31,31,11,1,,,,,,,,,,,,,,,,,,,,,,,,,,,,,,,,,,,,,,,,,,,,,,,,,,,,,,,,,,,,,,,,,,,,,,,,,,,,,,,,,,,,,,,,,,,,,,
,,?,0.002,0,,,,,,stimuli/images/PICTURE_383.png,SERIES,5ef367aa3b28ea0a3aad67ba,03/05/1953,2020-09-03_19h45.00.811,proactive2,2020.1.2,Win32,60,5f5126bb654d4b30ee6923d8,5f513922984fc83356efe48f,1,,,,,,coin,,,,,,,,,,,5,1,0,32,32,46,1,,,,,,,,,,,,,,,,,,,,,,,,,,,,,,,,,,,,,,,,,,,,,,,,,,,,,,,,,,,,,,,,,,,,,,,,,,,,,,,,,,,,,,,,,,,,,,
,,?,0.001,0,,,,,,stimuli/images/PICTURE_85.png,TOILET,5ef367aa3b28ea0a3aad67ba,03/05/1953,2020-09-03_19h45.00.811,proactive2,2020.1.2,Win32,60,5f5126bb654d4b30ee6923d8,5f513922984fc83356efe48f,1,,,,,,diamond,,,,,,,,,,,5,1,0,33,33,48,1,,,,,,,,,,,,,,,,,,,,,,,,,,,,,,,,,,,,,,,,,,,,,,,,,,,,,,,,,,,,,,,,,,,,,,,,,,,,,,,,,,,,,,,,,,,,,,
,,?,0.001,0,,,,,,stimuli/images/PICTURE_203.png,GODS,5ef367aa3b28ea0a3aad67ba,03/05/1953,2020-09-03_19h45.00.811,proactive2,2020.1.2,Win32,60,5f5126bb654d4b30ee6923d8,5f513922984fc83356efe48f,1,,,,,,cap,,,,,,,,,,,4,1,0,34,34,30,1,,,,,,,,,,,,,,,,,,,,,,,,,,,,,,,,,,,,,,,,,,,,,,,,,,,,,,,,,,,,,,,,,,,,,,,,,,,,,,,,,,,,,,,,,,,,,,
,,?,0,0,,,,,,stimuli/images/PICTURE_2.png,FLIGHT,5ef367aa3b28ea0a3aad67ba,03/05/1953,2020-09-03_19h45.00.811,proactive2,2020.1.2,Win32,60,5f5126bb654d4b30ee6923d8,5f513922984fc83356efe48f,1,,,,,,tyre,,,,,,,,,,,2,1,0,35,35,15,1,,,,,,,,,,,,,,,,,,,,,,,,,,,,,,,,,,,,,,,,,,,,,,,,,,,,,,,,,,,,,,,,,,,,,,,,,,,,,,,,,,,,,,,,,,,,,,
,,?,0.001,0,,,,,,stimuli/images/PICTURE_405.png,PLENTY,5ef367aa3b28ea0a3aad67ba,03/05/1953,2020-09-03_19h45.00.811,proactive2,2020.1.2,Win32,60,5f5126bb654d4b30ee6923d8,5f513922984fc83356efe48f,1,,,,,,anchor,,,,,,,,,,,3,1,0,36,36,23,1,,,,,,,,,,,,,,,,,,,,,,,,,,,,,,,,,,,,,,,,,,,,,,,,,,,,,,,,,,,,,,,,,,,,,,,,,,,,,,,,,,,,,,,,,,,,,,
,,SERIES,2.755,1,,,,,,stimuli/images/PICTURE_327.png,SERIES,5ef367aa3b28ea0a3aad67ba,03/05/1953,2020-09-03_19h45.00.811,proactive2,2020.1.2,Win32,60,5f5126bb654d4b30ee6923d8,5f513922984fc83356efe48f,1,,,,,,helmet,,,,,,,,,,,1,1,0,37,37,3,1,,,,,,,,,,,,,,,,,,,,,,,,,,,,,,,,,,,,,,,,,,,,,,,,,,,,,,,,,,,,,,,,,,,,,,,,,,,,,,,,,,,,,,,,,,,,,,
,,NIGHT,2.448,1,,,,,,stimuli/images/PICTURE_203.png,NIGHT,5ef367aa3b28ea0a3aad67ba,03/05/1953,2020-09-03_19h45.00.811,proactive2,2020.1.2,Win32,60,5f5126bb654d4b30ee6923d8,5f513922984fc83356efe48f,1,,,,,,cap,,,,,,,,,,,1,1,0,38,38,2,1,,,,,,,,,,,,,,,,,,,,,,,,,,,,,,,,,,,,,,,,,,,,,,,,,,,,,,,,,,,,,,,,,,,,,,,,,,,,,,,,,,,,,,,,,,,,,,
,,?,0.005,0,,,,,,stimuli/images/PICTURE_467.png,POLICY,5ef367aa3b28ea0a3aad67ba,03/05/1953,2020-09-03_19h45.00.811,proactive2,2020.1.2,Win32,60,5f5126bb654d4b30ee6923d8,5f513922984fc83356efe48f,1,,,,,,peg,,,,,,,,,,,6,1,0,39,39,53,1,,,,,,,,,,,,,,,,,,,,,,,,,,,,,,,,,,,,,,,,,,,,,,,,,,,,,,,,,,,,,,,,,,,,,,,,,,,,,,,,,,,,,,,,,,,,,,
,,?,0.001,0,,,,,,stimuli/images/PICTURE_744.png,WEAPON,5ef367aa3b28ea0a3aad67ba,03/05/1953,2020-09-03_19h45.00.811,proactive2,2020.1.2,Win32,60,5f5126bb654d4b30ee6923d8,5f513922984fc83356efe48f,1,,,,,,ring,,,,,,,,,,,6,1,0,40,40,50,1,,,,,,,,,,,,,,,,,,,,,,,,,,,,,,,,,,,,,,,,,,,,,,,,,,,,,,,,,,,,,,,,,,,,,,,,,,,,,,,,,,,,,,,,,,,,,,
,,NATION,2.169,1,,,,,,stimuli/images/PICTURE_85.png,NATION,5ef367aa3b28ea0a3aad67ba,03/05/1953,2020-09-03_19h45.00.811,proactive2,2020.1.2,Win32,60,5f5126bb654d4b30ee6923d8,5f513922984fc83356efe48f,1,,,,,,diamond,,,,,,,,,,,1,1,0,41,41,5,1,,,,,,,,,,,,,,,,,,,,,,,,,,,,,,,,,,,,,,,,,,,,,,,,,,,,,,,,,,,,,,,,,,,,,,,,,,,,,,,,,,,,,,,,,,,,,,
,,?,0.007,0,,,,,,stimuli/images/PICTURE_340.png,LETTER,5ef367aa3b28ea0a3aad67ba,03/05/1953,2020-09-03_19h45.00.811,proactive2,2020.1.2,Win32,60,5f5126bb654d4b30ee6923d8,5f513922984fc83356efe48f,1,,,,,,mirror,,,,,,,,,,,3,1,0,42,42,24,1,,,,,,,,,,,,,,,,,,,,,,,,,,,,,,,,,,,,,,,,,,,,,,,,,,,,,,,,,,,,,,,,,,,,,,,,,,,,,,,,,,,,,,,,,,,,,,
,,?,0.001,0,,,,,,stimuli/images/PICTURE_654.png,MONTH,5ef367aa3b28ea0a3aad67ba,03/05/1953,2020-09-03_19h45.00.811,proactive2,2020.1.2,Win32,60,5f5126bb654d4b30ee6923d8,5f513922984fc83356efe48f,1,,,,,,pencil,,,,,,,,,,,3,1,0,43,43,29,1,,,,,,,,,,,,,,,,,,,,,,,,,,,,,,,,,,,,,,,,,,,,,,,,,,,,,,,,,,,,,,,,,,,,,,,,,,,,,,,,,,,,,,,,,,,,,,
,,?,0.002,0,,,,,,stimuli/images/PICTURE_403.png,TOILET,5ef367aa3b28ea0a3aad67ba,03/05/1953,2020-09-03_19h45.00.811,proactive2,2020.1.2,Win32,60,5f5126bb654d4b30ee6923d8,5f513922984fc83356efe48f,1,,,,,,cathedral,,,,,,,,,,,3,1,0,44,44,25,1,,,,,,,,,,,,,,,,,,,,,,,,,,,,,,,,,,,,,,,,,,,,,,,,,,,,,,,,,,,,,,,,,,,,,,,,,,,,,,,,,,,,,,,,,,,,,,
,,?,0.001,0,,,,,,stimuli/images/PICTURE_208.png,SYSTEM,5ef367aa3b28ea0a3aad67ba,03/05/1953,2020-09-03_19h45.00.811,proactive2,2020.1.2,Win32,60,5f5126bb654d4b30ee6923d8,5f513922984fc83356efe48f,1,,,,,,microphone,,,,,,,,,,,4,1,0,45,45,32,1,,,,,,,,,,,,,,,,,,,,,,,,,,,,,,,,,,,,,,,,,,,,,,,,,,,,,,,,,,,,,,,,,,,,,,,,,,,,,,,,,,,,,,,,,,,,,,
,,?,0.001,0,,,,,,stimuli/images/PICTURE_564.png,BATH,5ef367aa3b28ea0a3aad67ba,03/05/1953,2020-09-03_19h45.00.811,proactive2,2020.1.2,Win32,60,5f5126bb654d4b30ee6923d8,5f513922984fc83356efe48f,1,,,,,,spoon,,,,,,,,,,,3,1,0,46,46,26,1,,,,,,,,,,,,,,,,,,,,,,,,,,,,,,,,,,,,,,,,,,,,,,,,,,,,,,,,,,,,,,,,,,,,,,,,,,,,,,,,,,,,,,,,,,,,,,
,,?,0.001,0,,,,,,stimuli/images/PICTURE_108.png,POLICY,5ef367aa3b28ea0a3aad67ba,03/05/1953,2020-09-03_19h45.00.811,proactive2,2020.1.2,Win32,60,5f5126bb654d4b30ee6923d8,5f513922984fc83356efe48f,1,,,,,,calendar,,,,,,,,,,,3,1,0,47,47,22,1,,,,,,,,,,,,,,,,,,,,,,,,,,,,,,,,,,,,,,,,,,,,,,,,,,,,,,,,,,,,,,,,,,,,,,,,,,,,,,,,,,,,,,,,,,,,,,
,,?,0.001,0,,,,,,stimuli/images/PICTURE_32.png,KIND,5ef367aa3b28ea0a3aad67ba,03/05/1953,2020-09-03_19h45.00.811,proactive2,2020.1.2,Win32,60,5f5126bb654d4b30ee6923d8,5f513922984fc83356efe48f,1,,,,,,crown,,,,,,,,,,,4,1,0,48,48,35,1,,,,,,,,,,,,,,,,,,,,,,,,,,,,,,,,,,,,,,,,,,,,,,,,,,,,,,,,,,,,,,,,,,,,,,,,,,,,,,,,,,,,,,,,,,,,,,
,,?,0.001,0,,,,,,stimuli/images/PICTURE_405.png,YEAR,5ef367aa3b28ea0a3aad67ba,03/05/1953,2020-09-03_19h45.00.811,proactive2,2020.1.2,Win32,60,5f5126bb654d4b30ee6923d8,5f513922984fc83356efe48f,1,,,,,,anchor,,,,,,,,,,,4,1,0,49,49,34,1,,,,,,,,,,,,,,,,,,,,,,,,,,,,,,,,,,,,,,,,,,,,,,,,,,,,,,,,,,,,,,,,,,,,,,,,,,,,,,,,,,,,,,,,,,,,,,
,,?,0.002,0,,,,,,stimuli/images/PICTURE_42.png,BOYS,5ef367aa3b28ea0a3aad67ba,03/05/1953,2020-09-03_19h45.00.811,proactive2,2020.1.2,Win32,60,5f5126bb654d4b30ee6923d8,5f513922984fc83356efe48f,1,,,,,,pear,,,,,,,,,,,6,1,0,50,50,55,1,,,,,,,,,,,,,,,,,,,,,,,,,,,,,,,,,,,,,,,,,,,,,,,,,,,,,,,,,,,,,,,,,,,,,,,,,,,,,,,,,,,,,,,,,,,,,,
,,?,0.002,0,,,,,,stimuli/images/PICTURE_403.png,RIVER,5ef367aa3b28ea0a3aad67ba,03/05/1953,2020-09-03_19h45.00.811,proactive2,2020.1.2,Win32,60,5f5126bb654d4b30ee6923d8,5f513922984fc83356efe48f,1,,,,,,cathedral,,,,,,,,,,,5,1,0,51,51,40,1,,,,,,,,,,,,,,,,,,,,,,,,,,,,,,,,,,,,,,,,,,,,,,,,,,,,,,,,,,,,,,,,,,,,,,,,,,,,,,,,,,,,,,,,,,,,,,
,,?,0.001,0,,,,,,stimuli/images/PICTURE_95.png,MILLER,5ef367aa3b28ea0a3aad67ba,03/05/1953,2020-09-03_19h45.00.811,proactive2,2020.1.2,Win32,60,5f5126bb654d4b30ee6923d8,5f513922984fc83356efe48f,1,,,,,,suitcase,,,,,,,,,,,6,1,0,52,52,56,1,,,,,,,,,,,,,,,,,,,,,,,,,,,,,,,,,,,,,,,,,,,,,,,,,,,,,,,,,,,,,,,,,,,,,,,,,,,,,,,,,,,,,,,,,,,,,,
,,?,0.001,0,,,,,,stimuli/images/PICTURE_297.png,RIVER,5ef367aa3b28ea0a3aad67ba,03/05/1953,2020-09-03_19h45.00.811,proactive2,2020.1.2,Win32,60,5f5126bb654d4b30ee6923d8,5f513922984fc83356efe48f,1,,,,,,aeroplane,,,,,,,,,,,4,1,0,53,53,39,1,,,,,,,,,,,,,,,,,,,,,,,,,,,,,,,,,,,,,,,,,,,,,,,,,,,,,,,,,,,,,,,,,,,,,,,,,,,,,,,,,,,,,,,,,,,,,,
,,?,0.001,0,,,,,,stimuli/images/PICTURE_504.png,ARTIST,5ef367aa3b28ea0a3aad67ba,03/05/1953,2020-09-03_19h45.00.811,proactive2,2020.1.2,Win32,60,5f5126bb654d4b30ee6923d8,5f513922984fc83356efe48f,1,,,,,,wheel,,,,,,,,,,,5,1,0,54,54,49,1,,,,,,,,,,,,,,,,,,,,,,,,,,,,,,,,,,,,,,,,,,,,,,,,,,,,,,,,,,,,,,,,,,,,,,,,,,,,,,,,,,,,,,,,,,,,,,
,,FRIEND,2.033,1,,,,,,stimuli/images/PICTURE_33.png,FRIEND,5ef367aa3b28ea0a3aad67ba,03/05/1953,2020-09-03_19h45.00.811,proactive2,2020.1.2,Win32,60,5f5126bb654d4b30ee6923d8,5f513922984fc83356efe48f,1,,,,,,frame,,,,,,,,,,,1,1,0,55,55,8,1,,,,,,,,,,,,,,,,,,,,,,,,,,,,,,,,,,,,,,,,,,,,,,,,,,,,,,,,,,,,,,,,,,,,,,,,,,,,,,,,,,,,,,,,,,,,,,
,,RIVER,2.248,1,,,,,,stimuli/images/PICTURE_491.png,RIVER,5ef367aa3b28ea0a3aad67ba,03/05/1953,2020-09-03_19h45.00.811,proactive2,2020.1.2,Win32,60,5f5126bb654d4b30ee6923d8,5f513922984fc83356efe48f,1,,,,,,rug,,,,,,,,,,,1,1,0,56,56,6,1,,,,,,,,,,,,,,,,,,,,,,,,,,,,,,,,,,,,,,,,,,,,,,,,,,,,,,,,,,,,,,,,,,,,,,,,,,,,,,,,,,,,,,,,,,,,,,
,,?,0.006,0,,,,,,stimuli/images/PICTURE_449.png,DUDE,5ef367aa3b28ea0a3aad67ba,03/05/1953,2020-09-03_19h45.00.811,proactive2,2020.1.2,Win32,60,5f5126bb654d4b30ee6923d8,5f513922984fc83356efe48f,1,,,,,,bench,,,,,,,,,,,2,1,0,57,57,17,1,,,,,,,,,,,,,,,,,,,,,,,,,,,,,,,,,,,,,,,,,,,,,,,,,,,,,,,,,,,,,,,,,,,,,,,,,,,,,,,,,,,,,,,,,,,,,,
,,?,0.003,0,,,,,,stimuli/images/PICTURE_750.png,HOTEL,5ef367aa3b28ea0a3aad67ba,03/05/1953,2020-09-03_19h45.00.811,proactive2,2020.1.2,Win32,60,5f5126bb654d4b30ee6923d8,5f513922984fc83356efe48f,1,,,,,,kettle,,,,,,,,,,,3,1,0,58,58,27,1,,,,,,,,,,,,,,,,,,,,,,,,,,,,,,,,,,,,,,,,,,,,,,,,,,,,,,,,,,,,,,,,,,,,,,,,,,,,,,,,,,,,,,,,,,,,,,
,,?,0.002,0,,,,,,stimuli/images/PICTURE_675.png,SALE,5ef367aa3b28ea0a3aad67ba,03/05/1953,2020-09-03_19h45.00.811,proactive2,2020.1.2,Win32,60,5f5126bb654d4b30ee6923d8,5f513922984fc83356efe48f,1,,,,,,windmill,,,,,,,,,,,5,1,0,59,59,47,1,,,,,,,,,,,,,,,,,,,,,,,,,,,,,,,,,,,,,,,,,,,,,,,,,,,,,,,,,,,,,,,,,,,,,,,,,,,,,,,,,,,,,,,,,,,,,,
,,,,,,,,,,,,5ef367aa3b28ea0a3aad67ba,03/05/1953,2020-09-03_19h45.00.811,proactive2,2020.1.2,Win32,60,5f5126bb654d4b30ee6923d8,5f513922984fc83356efe48f,1,,,,,,,,,,,,,,,,,,,,,,,,0,0,0,1,1,stimuli/learn-block2.csv,,,,,,,,,,,,,,,,,,,,,,,,,,,,,,,,,,,,,,,,,,,,,,,,,,,,,,,,,,,,,,,,,,,,,,,,,,,,,,,,,,,,,,,,
,,,,,,,,,,stimuli/images/PICTURE_491.png,ROOF,5ef367aa3b28ea0a3aad67ba,03/05/1953,2020-09-03_19h45.00.811,proactive2,2020.1.2,Win32,60,5f5126bb654d4b30ee6923d8,5f513922984fc83356efe48f,1,,,,,,rug,,,,,,0,0,0,24,1,3,0,,,,,,,,,,,,,,,,,,,,,,,,,,,,,,,,,,,,,,,,,,,,,,,,,,,,,,,,,,,,,,,,,,,,,,,,,,,,,,,,,,,,,,,,,,,,,,,,,,,
,,,,,,,,,,stimuli/images/PICTURE_667.png,BATH,5ef367aa3b28ea0a3aad67ba,03/05/1953,2020-09-03_19h45.00.811,proactive2,2020.1.2,Win32,60,5f5126bb654d4b30ee6923d8,5f513922984fc83356efe48f,1,,,,,,daisy,,,,,,0,1,1,4,1,1,0,,,,,,,,,,,,,,,,,,,,,,,,,,,,,,,,,,,,,,,,,,,,,,,,,,,,,,,,,,,,,,,,,,,,,,,,,,,,,,,,,,,,,,,,,,,,,,,,,,,
,,,,,,,,,,stimuli/images/PICTURE_160.png,FEET,5ef367aa3b28ea0a3aad67ba,03/05/1953,2020-09-03_19h45.00.811,proactive2,2020.1.2,Win32,60,5f5126bb654d4b30ee6923d8,5f513922984fc83356efe48f,1,,,,,,wheelbarrow,,,,,,0,2,2,58,1,6,0,,,,,,,,,,,,,,,,,,,,,,,,,,,,,,,,,,,,,,,,,,,,,,,,,,,,,,,,,,,,,,,,,,,,,,,,,,,,,,,,,,,,,,,,,,,,,,,,,,,
,,,,,,,,,,stimuli/images/PICTURE_177.png,CARS,5ef367aa3b28ea0a3aad67ba,03/05/1953,2020-09-03_19h45.00.811,proactive2,2020.1.2,Win32,60,5f5126bb654d4b30ee6923d8,5f513922984fc83356efe48f,1,,,,,,mushroom,,,,,,0,3,3,35,1,4,0,,,,,,,,,,,,,,,,,,,,,,,,,,,,,,,,,,,,,,,,,,,,,,,,,,,,,,,,,,,,,,,,,,,,,,,,,,,,,,,,,,,,,,,,,,,,,,,,,,,
,,,,,,,,,,stimuli/images/PICTURE_95.png,STYLE,5ef367aa3b28ea0a3aad67ba,03/05/1953,2020-09-03_19h45.00.811,proactive2,2020.1.2,Win32,60,5f5126bb654d4b30ee6923d8,5f513922984fc83356efe48f,1,,,,,,suitcase,,,,,,0,4,4,25,1,3,0,,,,,,,,,,,,,,,,,,,,,,,,,,,,,,,,,,,,,,,,,,,,,,,,,,,,,,,,,,,,,,,,,,,,,,,,,,,,,,,,,,,,,,,,,,,,,,,,,,,
,,,,,,,,,,stimuli/images/PICTURE_233.png,WOMEN,5ef367aa3b28ea0a3aad67ba,03/05/1953,2020-09-03_19h45.00.811,proactive2,2020.1.2,Win32,60,5f5126bb654d4b30ee6923d8,5f513922984fc83356efe48f,1,,,,,,salt,,,,,,0,5,5,38,1,4,0,,,,,,,,,,,,,,,,,,,,,,,,,,,,,,,,,,,,,,,,,,,,,,,,,,,,,,,,,,,,,,,,,,,,,,,,,,,,,,,,,,,,,,,,,,,,,,,,,,,
,,,,,,,,,,stimuli/images/PICTURE_667.png,PLENTY,5ef367aa3b28ea0a3aad67ba,03/05/1953,2020-09-03_19h45.00.811,proactive2,2020.1.2,Win32,60,5f5126bb654d4b30ee6923d8,5f513922984fc83356efe48f,1,,,,,,daisy,,,,,,0,6,6,41,1,5,0,,,,,,,,,,,,,,,,,,,,,,,,,,,,,,,,,,,,,,,,,,,,,,,,,,,,,,,,,,,,,,,,,,,,,,,,,,,,,,,,,,,,,,,,,,,,,,,,,,,
,,,,,,,,,,stimuli/images/PICTURE_708.png,PENNY,5ef367aa3b28ea0a3aad67ba,03/05/1953,2020-09-03_19h45.00.811,proactive2,2020.1.2,Win32,60,5f5126bb654d4b30ee6923d8,5f513922984fc83356efe48f,1,,,,,,monkey,,,,,,0,7,7,31,1,4,0,,,,,,,,,,,,,,,,,,,,,,,,,,,,,,,,,,,,,,,,,,,,,,,,,,,,,,,,,,,,,,,,,,,,,,,,,,,,,,,,,,,,,,,,,,,,,,,,,,,
,,,,,,,,,,stimuli/images/PICTURE_147.png,MOMENT,5ef367aa3b28ea0a3aad67ba,03/05/1953,2020-09-03_19h45.00.811,proactive2,2020.1.2,Win32,60,5f5126bb654d4b30ee6923d8,5f513922984fc83356efe48f,1,,,,,,hanger,,,,,,0,8,8,51,1,6,0,,,,,,,,,,,,,,,,,,,,,,,,,,,,,,,,,,,,,,,,,,,,,,,,,,,,,,,,,,,,,,,,,,,,,,,,,,,,,,,,,,,,,,,,,,,,,,,,,,,
,,,,,,,,,,stimuli/images/PICTURE_215.png,PLENTY,5ef367aa3b28ea0a3aad67ba,03/05/1953,2020-09-03_19h45.00.811,proactive2,2020.1.2,Win32,60,5f5126bb654d4b30ee6923d8,5f513922984fc83356efe48f,1,,,,,,boot,,,,,,0,9,9,37,1,4,0,,,,,,,,,,,,,,,,,,,,,,,,,,,,,,,,,,,,,,,,,,,,,,,,,,,,,,,,,,,,,,,,,,,,,,,,,,,,,,,,,,,,,,,,,,,,,,,,,,,
,,,,,,,,,,stimuli/images/PICTURE_68.png,MILE,5ef367aa3b28ea0a3aad67ba,03/05/1953,2020-09-03_19h45.00.811,proactive2,2020.1.2,Win32,60,5f5126bb654d4b30ee6923d8,5f513922984fc83356efe48f,1,,,,,,candle,,,,,,0,10,10,44,1,5,0,,,,,,,,,,,,,,,,,,,,,,,,,,,,,,,,,,,,,,,,,,,,,,,,,,,,,,,,,,,,,,,,,,,,,,,,,,,,,,,,,,,,,,,,,,,,,,,,,,,
,,,,,,,,,,stimuli/images/PICTURE_380.png,DEATH,5ef367aa3b28ea0a3aad67ba,03/05/1953,2020-09-03_19h45.00.811,proactive2,2020.1.2,Win32,60,5f5126bb654d4b30ee6923d8,5f513922984fc83356efe48f,1,,,,,,gorilla,,,,,,0,11,11,49,1,5,0,,,,,,,,,,,,,,,,,,,,,,,,,,,,,,,,,,,,,,,,,,,,,,,,,,,,,,,,,,,,,,,,,,,,,,,,,,,,,,,,,,,,,,,,,,,,,,,,,,,
,,,,,,,,,,stimuli/images/PICTURE_487.png,FLIGHT,5ef367aa3b28ea0a3aad67ba,03/05/1953,2020-09-03_19h45.00.811,proactive2,2020.1.2,Win32,60,5f5126bb654d4b30ee6923d8,5f513922984fc83356efe48f,1,,,,,,basket,,,,,,0,12,12,9,1,1,0,,,,,,,,,,,,,,,,,,,,,,,,,,,,,,,,,,,,,,,,,,,,,,,,,,,,,,,,,,,,,,,,,,,,,,,,,,,,,,,,,,,,,,,,,,,,,,,,,,,
,,,,,,,,,,stimuli/images/PICTURE_677.png,MILE,5ef367aa3b28ea0a3aad67ba,03/05/1953,2020-09-03_19h45.00.811,proactive2,2020.1.2,Win32,60,5f5126bb654d4b30ee6923d8,5f513922984fc83356efe48f,1,,,,,,map,,,,,,0,13,13,30,1,4,0,,,,,,,,,,,,,,,,,,,,,,,,,,,,,,,,,,,,,,,,,,,,,,,,,,,,,,,,,,,,,,,,,,,,,,,,,,,,,,,,,,,,,,,,,,,,,,,,,,,
,,,,,,,,,,stimuli/images/PICTURE_509.png,PHOTO,5ef367aa3b28ea0a3aad67ba,03/05/1953,2020-09-03_19h45.00.811,proactive2,2020.1.2,Win32,60,5f5126bb654d4b30ee6923d8,5f513922984fc83356efe48f,1,,,,,,telephone,,,,,,0,14,14,21,1,3,0,,,,,,,,,,,,,,,,,,,,,,,,,,,,,,,,,,,,,,,,,,,,,,,,,,,,,,,,,,,,,,,,,,,,,,,,,,,,,,,,,,,,,,,,,,,,,,,,,,,
,,,,,,,,,,stimuli/images/PICTURE_708.png,CLIENT,5ef367aa3b28ea0a3aad67ba,03/05/1953,2020-09-03_19h45.00.811,proactive2,2020.1.2,Win32,60,5f5126bb654d4b30ee6923d8,5f513922984fc83356efe48f,1,,,,,,monkey,,,,,,0,15,15,5,1,1,0,,,,,,,,,,,,,,,,,,,,,,,,,,,,,,,,,,,,,,,,,,,,,,,,,,,,,,,,,,,,,,,,,,,,,,,,,,,,,,,,,,,,,,,,,,,,,,,,,,,
,,,,,,,,,,stimuli/images/PICTURE_688.png,CASINO,5ef367aa3b28ea0a3aad67ba,03/05/1953,2020-09-03_19h45.00.811,proactive2,2020.1.2,Win32,60,5f5126bb654d4b30ee6923d8,5f513922984fc83356efe48f,1,,,,,,runner,,,,,,0,16,16,2,1,1,0,,,,,,,,,,,,,,,,,,,,,,,,,,,,,,,,,,,,,,,,,,,,,,,,,,,,,,,,,,,,,,,,,,,,,,,,,,,,,,,,,,,,,,,,,,,,,,,,,,,
,,,,,,,,,,stimuli/images/PICTURE_311.png,FRIEND,5ef367aa3b28ea0a3aad67ba,03/05/1953,2020-09-03_19h45.00.811,proactive2,2020.1.2,Win32,60,5f5126bb654d4b30ee6923d8,5f513922984fc83356efe48f,1,,,,,,razor,,,,,,0,17,17,34,1,4,0,,,,,,,,,,,,,,,,,,,,,,,,,,,,,,,,,,,,,,,,,,,,,,,,,,,,,,,,,,,,,,,,,,,,,,,,,,,,,,,,,,,,,,,,,,,,,,,,,,,
,,,,,,,,,,stimuli/images/PICTURE_491.png,WRITER,5ef367aa3b28ea0a3aad67ba,03/05/1953,2020-09-03_19h45.00.811,proactive2,2020.1.2,Win32,60,5f5126bb654d4b30ee6923d8,5f513922984fc83356efe48f,1,,,,,,rug,,,,,,0,18,18,57,1,6,0,,,,,,,,,,,,,,,,,,,,,,,,,,,,,,,,,,,,,,,,,,,,,,,,,,,,,,,,,,,,,,,,,,,,,,,,,,,,,,,,,,,,,,,,,,,,,,,,,,,
,,,,,,,,,,stimuli/images/PICTURE_308.png,KIND,5ef367aa3b28ea0a3aad67ba,03/05/1953,2020-09-03_19h45.00.811,proactive2,2020.1.2,Win32,60,5f5126bb654d4b30ee6923d8,5f513922984fc83356efe48f,1,,,,,,dice,,,,,,0,19,19,54,1,6,0,,,,,,,,,,,,,,,,,,,,,,,,,,,,,,,,,,,,,,,,,,,,,,,,,,,,,,,,,,,,,,,,,,,,,,,,,,,,,,,,,,,,,,,,,,,,,,,,,,,
,,,,,,,,,,stimuli/images/PICTURE_469.png,LETTER,5ef367aa3b28ea0a3aad67ba,03/05/1953,2020-09-03_19h45.00.811,proactive2,2020.1.2,Win32,60,5f5126bb654d4b30ee6923d8,5f513922984fc83356efe48f,1,,,,,,stool,,,,,,0,20,20,42,1,5,0,,,,,,,,,,,,,,,,,,,,,,,,,,,,,,,,,,,,,,,,,,,,,,,,,,,,,,,,,,,,,,,,,,,,,,,,,,,,,,,,,,,,,,,,,,,,,,,,,,,
,,,,,,,,,,stimuli/images/PICTURE_248.png,DOZEN,5ef367aa3b28ea0a3aad67ba,03/05/1953,2020-09-03_19h45.00.811,proactive2,2020.1.2,Win32,60,5f5126bb654d4b30ee6923d8,5f513922984fc83356efe48f,1,,,,,,cart,,,,,,0,21,21,39,1,4,0,,,,,,,,,,,,,,,,,,,,,,,,,,,,,,,,,,,,,,,,,,,,,,,,,,,,,,,,,,,,,,,,,,,,,,,,,,,,,,,,,,,,,,,,,,,,,,,,,,,
,,,,,,,,,,stimuli/images/PICTURE_744.png,SAKE,5ef367aa3b28ea0a3aad67ba,03/05/1953,2020-09-03_19h45.00.811,proactive2,2020.1.2,Win32,60,5f5126bb654d4b30ee6923d8,5f513922984fc83356efe48f,1,,,,,,ring,,,,,,0,22,22,17,1,2,0,,,,,,,,,,,,,,,,,,,,,,,,,,,,,,,,,,,,,,,,,,,,,,,,,,,,,,,,,,,,,,,,,,,,,,,,,,,,,,,,,,,,,,,,,,,,,,,,,,,
,,,,,,,,,,stimuli/images/PICTURE_453.png,PLENTY,5ef367aa3b28ea0a3aad67ba,03/05/1953,2020-09-03_19h45.00.811,proactive2,2020.1.2,Win32,60,5f5126bb654d4b30ee6923d8,5f513922984fc83356efe48f,1,,,,,,scissors,,,,,,0,23,23,56,1,6,0,,,,,,,,,,,,,,,,,,,,,,,,,,,,,,,,,,,,,,,,,,,,,,,,,,,,,,,,,,,,,,,,,,,,,,,,,,,,,,,,,,,,,,,,,,,,,,,,,,,
,,,,,,,,,,stimuli/images/PICTURE_151.png,GIRL,5ef367aa3b28ea0a3aad67ba,03/05/1953,2020-09-03_19h45.00.811,proactive2,2020.1.2,Win32,60,5f5126bb654d4b30ee6923d8,5f513922984fc83356efe48f,1,,,,,,tray,,,,,,0,24,24,19,1,2,0,,,,,,,,,,,,,,,,,,,,,,,,,,,,,,,,,,,,,,,,,,,,,,,,,,,,,,,,,,,,,,,,,,,,,,,,,,,,,,,,,,,,,,,,,,,,,,,,,,,
,,,,,,,,,,stimuli/images/PICTURE_285.png,ADVICE,5ef367aa3b28ea0a3aad67ba,03/05/1953,2020-09-03_19h45.00.811,proactive2,2020.1.2,Win32,60,5f5126bb654d4b30ee6923d8,5f513922984fc83356efe48f,1,,,,,,carrot,,,,,,0,25,25,12,1,2,0,,,,,,,,,,,,,,,,,,,,,,,,,,,,,,,,,,,,,,,,,,,,,,,,,,,,,,,,,,,,,,,,,,,,,,,,,,,,,,,,,,,,,,,,,,,,,,,,,,,
,,,,,,,,,,stimuli/images/PICTURE_302.png,FAMILY,5ef367aa3b28ea0a3aad67ba,03/05/1953,2020-09-03_19h45.00.811,proactive2,2020.1.2,Win32,60,5f5126bb654d4b30ee6923d8,5f513922984fc83356efe48f,1,,,,,,taxi,,,,,,0,26,26,18,1,2,0,,,,,,,,,,,,,,,,,,,,,,,,,,,,,,,,,,,,,,,,,,,,,,,,,,,,,,,,,,,,,,,,,,,,,,,,,,,,,,,,,,,,,,,,,,,,,,,,,,,
,,,,,,,,,,stimuli/images/PICTURE_692.png,MONTH,5ef367aa3b28ea0a3aad67ba,03/05/1953,2020-09-03_19h45.00.811,proactive2,2020.1.2,Win32,60,5f5126bb654d4b30ee6923d8,5f513922984fc83356efe48f,1,,,,,,cherry,,,,,,0,27,27,16,1,2,0,,,,,,,,,,,,,,,,,,,,,,,,,,,,,,,,,,,,,,,,,,,,,,,,,,,,,,,,,,,,,,,,,,,,,,,,,,,,,,,,,,,,,,,,,,,,,,,,,,,
,,,,,,,,,,stimuli/images/PICTURE_470.png,CASINO,5ef367aa3b28ea0a3aad67ba,03/05/1953,2020-09-03_19h45.00.811,proactive2,2020.1.2,Win32,60,5f5126bb654d4b30ee6923d8,5f513922984fc83356efe48f,1,,,,,,motorbike,,,,,,0,28,28,36,1,4,0,,,,,,,,,,,,,,,,,,,,,,,,,,,,,,,,,,,,,,,,,,,,,,,,,,,,,,,,,,,,,,,,,,,,,,,,,,,,,,,,,,,,,,,,,,,,,,,,,,,
,,,,,,,,,,stimuli/images/PICTURE_449.png,THING,5ef367aa3b28ea0a3aad67ba,03/05/1953,2020-09-03_19h45.00.811,proactive2,2020.1.2,Win32,60,5f5126bb654d4b30ee6923d8,5f513922984fc83356efe48f,1,,,,,,bench,,,,,,0,29,29,59,1,6,0,,,,,,,,,,,,,,,,,,,,,,,,,,,,,,,,,,,,,,,,,,,,,,,,,,,,,,,,,,,,,,,,,,,,,,,,,,,,,,,,,,,,,,,,,,,,,,,,,,,
,,,,,,,,,,stimuli/images/PICTURE_208.png,MONTH,5ef367aa3b28ea0a3aad67ba,03/05/1953,2020-09-03_19h45.00.811,proactive2,2020.1.2,Win32,60,5f5126bb654d4b30ee6923d8,5f513922984fc83356efe48f,1,,,,,,microphone,,,,,,0,30,30,53,1,6,0,,,,,,,,,,,,,,,,,,,,,,,,,,,,,,,,,,,,,,,,,,,,,,,,,,,,,,,,,,,,,,,,,,,,,,,,,,,,,,,,,,,,,,,,,,,,,,,,,,,
,,,,,,,,,,stimuli/images/PICTURE_32.png,JUNGLE,5ef367aa3b28ea0a3aad67ba,03/05/1953,2020-09-03_19h45.00.811,proactive2,2020.1.2,Win32,60,5f5126bb654d4b30ee6923d8,5f513922984fc83356efe48f,1,,,,,,crown,,,,,,0,31,31,45,1,5,0,,,,,,,,,,,,,,,,,,,,,,,,,,,,,,,,,,,,,,,,,,,,,,,,,,,,,,,,,,,,,,,,,,,,,,,,,,,,,,,,,,,,,,,,,,,,,,,,,,,
,,,,,,,,,,stimuli/images/PICTURE_308.png,ESTATE,5ef367aa3b28ea0a3aad67ba,03/05/1953,2020-09-03_19h45.00.811,proactive2,2020.1.2,Win32,60,5f5126bb654d4b30ee6923d8,5f513922984fc83356efe48f,1,,,,,,dice,,,,,,0,32,32,46,1,5,0,,,,,,,,,,,,,,,,,,,,,,,,,,,,,,,,,,,,,,,,,,,,,,,,,,,,,,,,,,,,,,,,,,,,,,,,,,,,,,,,,,,,,,,,,,,,,,,,,,,
,,,,,,,,,,stimuli/images/PICTURE_654.png,VALLEY,5ef367aa3b28ea0a3aad67ba,03/05/1953,2020-09-03_19h45.00.811,proactive2,2020.1.2,Win32,60,5f5126bb654d4b30ee6923d8,5f513922984fc83356efe48f,1,,,,,,pencil,,,,,,0,33,33,1,1,1,0,,,,,,,,,,,,,,,,,,,,,,,,,,,,,,,,,,,,,,,,,,,,,,,,,,,,,,,,,,,,,,,,,,,,,,,,,,,,,,,,,,,,,,,,,,,,,,,,,,,
,,,,,,,,,,stimuli/images/PICTURE_469.png,ARTIST,5ef367aa3b28ea0a3aad67ba,03/05/1953,2020-09-03_19h45.00.811,proactive2,2020.1.2,Win32,60,5f5126bb654d4b30ee6923d8,5f513922984fc83356efe48f,1,,,,,,stool,,,,,,0,34,34,6,1,1,0,,,,,,,,,,,,,,,,,,,,,,,,,,,,,,,,,,,,,,,,,,,,,,,,,,,,,,,,,,,,,,,,,,,,,,,,,,,,,,,,,,,,,,,,,,,,,,,,,,,
,,,,,,,,,,stimuli/images/PICTURE_348.png,SPEECH,5ef367aa3b28ea0a3aad67ba,03/05/1953,2020-09-03_19h45.00.811,proactive2,2020.1.2,Win32,60,5f5126bb654d4b30ee6923d8,5f513922984fc83356efe48f,1,,,,,,pepper,,,,,,0,35,35,20,1,3,0,,,,,,,,,,,,,,,,,,,,,,,,,,,,,,,,,,,,,,,,,,,,,,,,,,,,,,,,,,,,,,,,,,,,,,,,,,,,,,,,,,,,,,,,,,,,,,,,,,,
,,,,,,,,,,stimuli/images/PICTURE_744.png,SYSTEM,5ef367aa3b28ea0a3aad67ba,03/05/1953,2020-09-03_19h45.00.811,proactive2,2020.1.2,Win32,60,5f5126bb654d4b30ee6923d8,5f513922984fc83356efe48f,1,,,,,,ring,,,,,,0,36,36,43,1,5,0,,,,,,,,,,,,,,,,,,,,,,,,,,,,,,,,,,,,,,,,,,,,,,,,,,,,,,,,,,,,,,,,,,,,,,,,,,,,,,,,,,,,,,,,,,,,,,,,,,,
,,,,,,,,,,stimuli/images/PICTURE_453.png,DUDE,5ef367aa3b28ea0a3aad67ba,03/05/1953,2020-09-03_19h45.00.811,proactive2,2020.1.2,Win32,60,5f5126bb654d4b30ee6923d8,5f513922984fc83356efe48f,1,,,,,,scissors,,,,,,0,37,37,27,1,3,0,,,,,,,,,,,,,,,,,,,,,,,,,,,,,,,,,,,,,,,,,,,,,,,,,,,,,,,,,,,,,,,,,,,,,,,,,,,,,,,,,,,,,,,,,,,,,,,,,,,
,,,,,,,,,,stimuli/images/PICTURE_314.png,SAKE,5ef367aa3b28ea0a3aad67ba,03/05/1953,2020-09-03_19h45.00.811,proactive2,2020.1.2,Win32,60,5f5126bb654d4b30ee6923d8,5f513922984fc83356efe48f,1,,,,,,perfume,,,,,,0,38,38,7,1,1,0,,,,,,,,,,,,,,,,,,,,,,,,,,,,,,,,,,,,,,,,,,,,,,,,,,,,,,,,,,,,,,,,,,,,,,,,,,,,,,,,,,,,,,,,,,,,,,,,,,,
,,,,,,,,,,stimuli/images/PICTURE_380.png,PHOTO,5ef367aa3b28ea0a3aad67ba,03/05/1953,2020-09-03_19h45.00.811,proactive2,2020.1.2,Win32,60,5f5126bb654d4b30ee6923d8,5f513922984fc83356efe48f,1,,,,,,gorilla,,,,,,0,39,39,52,1,6,0,,,,,,,,,,,,,,,,,,,,,,,,,,,,,,,,,,,,,,,,,,,,,,,,,,,,,,,,,,,,,,,,,,,,,,,,,,,,,,,,,,,,,,,,,,,,,,,,,,,
,,,,,,,,,,stimuli/images/PICTURE_688.png,WOMEN,5ef367aa3b28ea0a3aad67ba,03/05/1953,2020-09-03_19h45.00.811,proactive2,2020.1.2,Win32,60,5f5126bb654d4b30ee6923d8,5f513922984fc83356efe48f,1,,,,,,runner,,,,,,0,40,40,14,1,2,0,,,,,,,,,,,,,,,,,,,,,,,,,,,,,,,,,,,,,,,,,,,,,,,,,,,,,,,,,,,,,,,,,,,,,,,,,,,,,,,,,,,,,,,,,,,,,,,,,,,
,,,,,,,,,,stimuli/images/PICTURE_675.png,WEAPON,5ef367aa3b28ea0a3aad67ba,03/05/1953,2020-09-03_19h45.00.811,proactive2,2020.1.2,Win32,60,5f5126bb654d4b30ee6923d8,5f513922984fc83356efe48f,1,,,,,,windmill,,,,,,0,41,41,32,1,4,0,,,,,,,,,,,,,,,,,,,,,,,,,,,,,,,,,,,,,,,,,,,,,,,,,,,,,,,,,,,,,,,,,,,,,,,,,,,,,,,,,,,,,,,,,,,,,,,,,,,
,,,,,,,,,,stimuli/images/PICTURE_356.png,DANGER,5ef367aa3b28ea0a3aad67ba,03/05/1953,2020-09-03_19h45.00.811,proactive2,2020.1.2,Win32,60,5f5126bb654d4b30ee6923d8,5f513922984fc83356efe48f,1,,,,,,pawn,,,,,,0,42,42,55,1,6,0,,,,,,,,,,,,,,,,,,,,,,,,,,,,,,,,,,,,,,,,,,,,,,,,,,,,,,,,,,,,,,,,,,,,,,,,,,,,,,,,,,,,,,,,,,,,,,,,,,,
,,,,,,,,,,stimuli/images/PICTURE_203.png,ARTIST,5ef367aa3b28ea0a3aad67ba,03/05/1953,2020-09-03_19h45.00.811,proactive2,2020.1.2,Win32,60,5f5126bb654d4b30ee6923d8,5f513922984fc83356efe48f,1,,,,,,cap,,,,,,0,43,43,26,1,3,0,,,,,,,,,,,,,,,,,,,,,,,,,,,,,,,,,,,,,,,,,,,,,,,,,,,,,,,,,,,,,,,,,,,,,,,,,,,,,,,,,,,,,,,,,,,,,,,,,,,
,,,,,,,,,,stimuli/images/PICTURE_208.png,THING,5ef367aa3b28ea0a3aad67ba,03/05/1953,2020-09-03_19h45.00.811,proactive2,2020.1.2,Win32,60,5f5126bb654d4b30ee6923d8,5f513922984fc83356efe48f,1,,,,,,microphone,,,,,,0,44,44,47,1,5,0,,,,,,,,,,,,,,,,,,,,,,,,,,,,,,,,,,,,,,,,,,,,,,,,,,,,,,,,,,,,,,,,,,,,,,,,,,,,,,,,,,,,,,,,,,,,,,,,,,,
,,,,,,,,,,stimuli/images/PICTURE_327.png,BEAUTY,5ef367aa3b28ea0a3aad67ba,03/05/1953,2020-09-03_19h45.00.811,proactive2,2020.1.2,Win32,60,5f5126bb654d4b30ee6923d8,5f513922984fc83356efe48f,1,,,,,,helmet,,,,,,0,45,45,48,1,5,0,,,,,,,,,,,,,,,,,,,,,,,,,,,,,,,,,,,,,,,,,,,,,,,,,,,,,,,,,,,,,,,,,,,,,,,,,,,,,,,,,,,,,,,,,,,,,,,,,,,
,,,,,,,,,,stimuli/images/PICTURE_708.png,YARD,5ef367aa3b28ea0a3aad67ba,03/05/1953,2020-09-03_19h45.00.811,proactive2,2020.1.2,Win32,60,5f5126bb654d4b30ee6923d8,5f513922984fc83356efe48f,1,,,,,,monkey,,,,,,0,46,46,29,1,3,0,,,,,,,,,,,,,,,,,,,,,,,,,,,,,,,,,,,,,,,,,,,,,,,,,,,,,,,,,,,,,,,,,,,,,,,,,,,,,,,,,,,,,,,,,,,,,,,,,,,
,,,,,,,,,,stimuli/images/PICTURE_314.png,GODS,5ef367aa3b28ea0a3aad67ba,03/05/1953,2020-09-03_19h45.00.811,proactive2,2020.1.2,Win32,60,5f5126bb654d4b30ee6923d8,5f513922984fc83356efe48f,1,,,,,,perfume,,,,,,0,47,47,11,1,2,0,,,,,,,,,,,,,,,,,,,,,,,,,,,,,,,,,,,,,,,,,,,,,,,,,,,,,,,,,,,,,,,,,,,,,,,,,,,,,,,,,,,,,,,,,,,,,,,,,,,
,,,,,,,,,,stimuli/images/PICTURE_311.png,BEAUTY,5ef367aa3b28ea0a3aad67ba,03/05/1953,2020-09-03_19h45.00.811,proactive2,2020.1.2,Win32,60,5f5126bb654d4b30ee6923d8,5f513922984fc83356efe48f,1,,,,,,razor,,,,,,0,48,48,13,1,2,0,,,,,,,,,,,,,,,,,,,,,,,,,,,,,,,,,,,,,,,,,,,,,,,,,,,,,,,,,,,,,,,,,,,,,,,,,,,,,,,,,,,,,,,,,,,,,,,,,,,
,,,,,,,,,,stimuli/images/PICTURE_467.png,DEMON,5ef367aa3b28ea0a3aad67ba,03/05/1953,2020-09-03_19h45.00.811,proactive2,2020.1.2,Win32,60,5f5126bb654d4b30ee6923d8,5f513922984fc83356efe48f,1,,,,,,peg,,,,,,0,49,49,23,1,3,0,,,,,,,,,,,,,,,,,,,,,,,,,,,,,,,,,,,,,,,,,,,,,,,,,,,,,,,,,,,,,,,,,,,,,,,,,,,,,,,,,,,,,,,,,,,,,,,,,,,
,,,,,,,,,,stimuli/images/PICTURE_85.png,THING,5ef367aa3b28ea0a3aad67ba,03/05/1953,2020-09-03_19h45.00.811,proactive2,2020.1.2,Win32,60,5f5126bb654d4b30ee6923d8,5f513922984fc83356efe48f,1,,,,,,diamond,,,,,,0,50,50,15,1,2,0,,,,,,,,,,,,,,,,,,,,,,,,,,,,,,,,,,,,,,,,,,,,,,,,,,,,,,,,,,,,,,,,,,,,,,,,,,,,,,,,,,,,,,,,,,,,,,,,,,,
,,,,,,,,,,stimuli/images/PICTURE_255.png,AREA,5ef367aa3b28ea0a3aad67ba,03/05/1953,2020-09-03_19h45.00.811,proactive2,2020.1.2,Win32,60,5f5126bb654d4b30ee6923d8,5f513922984fc83356efe48f,1,,,,,,shovel,,,,,,0,51,51,22,1,3,0,,,,,,,,,,,,,,,,,,,,,,,,,,,,,,,,,,,,,,,,,,,,,,,,,,,,,,,,,,,,,,,,,,,,,,,,,,,,,,,,,,,,,,,,,,,,,,,,,,,
,,,,,,,,,,stimuli/images/PICTURE_339.png,PLENTY,5ef367aa3b28ea0a3aad67ba,03/05/1953,2020-09-03_19h45.00.811,proactive2,2020.1.2,Win32,60,5f5126bb654d4b30ee6923d8,5f513922984fc83356efe48f,1,,,,,,backpack,,,,,,0,52,52,0,1,1,0,,,,,,,,,,,,,,,,,,,,,,,,,,,,,,,,,,,,,,,,,,,,,,,,,,,,,,,,,,,,,,,,,,,,,,,,,,,,,,,,,,,,,,,,,,,,,,,,,,,
,,,,,,,,,,stimuli/images/PICTURE_160.png,LEADER,5ef367aa3b28ea0a3aad67ba,03/05/1953,2020-09-03_19h45.00.811,proactive2,2020.1.2,Win32,60,5f5126bb654d4b30ee6923d8,5f513922984fc83356efe48f,1,,,,,,wheelbarrow,,,,,,0,53,53,3,1,1,0,,,,,,,,,,,,,,,,,,,,,,,,,,,,,,,,,,,,,,,,,,,,,,,,,,,,,,,,,,,,,,,,,,,,,,,,,,,,,,,,,,,,,,,,,,,,,,,,,,,
,,,,,,,,,,stimuli/images/PICTURE_504.png,BODY,5ef367aa3b28ea0a3aad67ba,03/05/1953,2020-09-03_19h45.00.811,proactive2,2020.1.2,Win32,60,5f5126bb654d4b30ee6923d8,5f513922984fc83356efe48f,1,,,,,,wheel,,,,,,0,54,54,8,1,1,0,,,,,,,,,,,,,,,,,,,,,,,,,,,,,,,,,,,,,,,,,,,,,,,,,,,,,,,,,,,,,,,,,,,,,,,,,,,,,,,,,,,,,,,,,,,,,,,,,,,
,,,,,,,,,,stimuli/images/PICTURE_233.png,IDEAS,5ef367aa3b28ea0a3aad67ba,03/05/1953,2020-09-03_19h45.00.811,proactive2,2020.1.2,Win32,60,5f5126bb654d4b30ee6923d8,5f513922984fc83356efe48f,1,,,,,,salt,,,,,,0,55,55,28,1,3,0,,,,,,,,,,,,,,,,,,,,,,,,,,,,,,,,,,,,,,,,,,,,,,,,,,,,,,,,,,,,,,,,,,,,,,,,,,,,,,,,,,,,,,,,,,,,,,,,,,,
,,,,,,,,,,stimuli/images/PICTURE_123.png,ADVICE,5ef367aa3b28ea0a3aad67ba,03/05/1953,2020-09-03_19h45.00.811,proactive2,2020.1.2,Win32,60,5f5126bb654d4b30ee6923d8,5f513922984fc83356efe48f,1,,,,,,dart,,,,,,0,56,56,50,1,6,0,,,,,,,,,,,,,,,,,,,,,,,,,,,,,,,,,,,,,,,,,,,,,,,,,,,,,,,,,,,,,,,,,,,,,,,,,,,,,,,,,,,,,,,,,,,,,,,,,,,
,,,,,,,,,,stimuli/images/PICTURE_488.png,STYLE,5ef367aa3b28ea0a3aad67ba,03/05/1953,2020-09-03_19h45.00.811,proactive2,2020.1.2,Win32,60,5f5126bb654d4b30ee6923d8,5f513922984fc83356efe48f,1,,,,,,sun,,,,,,0,57,57,33,1,4,0,,,,,,,,,,,,,,,,,,,,,,,,,,,,,,,,,,,,,,,,,,,,,,,,,,,,,,,,,,,,,,,,,,,,,,,,,,,,,,,,,,,,,,,,,,,,,,,,,,,
,,,,,,,,,,stimuli/images/PICTURE_208.png,LOTS,5ef367aa3b28ea0a3aad67ba,03/05/1953,2020-09-03_19h45.00.811,proactive2,2020.1.2,Win32,60,5f5126bb654d4b30ee6923d8,5f513922984fc83356efe48f,1,,,,,,microphone,,,,,,0,58,58,10,1,2,0,,,,,,,,,,,,,,,,,,,,,,,,,,,,,,,,,,,,,,,,,,,,,,,,,,,,,,,,,,,,,,,,,,,,,,,,,,,,,,,,,,,,,,,,,,,,,,,,,,,
,,?,0.004,0,,,,,,stimuli/images/PICTURE_32.png,JUNGLE,5ef367aa3b28ea0a3aad67ba,03/05/1953,2020-09-03_19h45.00.811,proactive2,2020.1.2,Win32,60,5f5126bb654d4b30ee6923d8,5f513922984fc83356efe48f,1,,,,,,crown,,,,,,,,,,,5,0,0,0,0,45,1,,,,,,,,,,,,,,,,,,,,,,,,,,,,,,,,,,,,,,,,,,,,,,,,,,,,,,,,,,,,,,,,,,,,,,,,,,,,,,,,,,,,,,,,,,,,,,
,,?,0.001,0,,,,,,stimuli/images/PICTURE_233.png,WOMEN,5ef367aa3b28ea0a3aad67ba,03/05/1953,2020-09-03_19h45.00.811,proactive2,2020.1.2,Win32,60,5f5126bb654d4b30ee6923d8,5f513922984fc83356efe48f,1,,,,,,salt,,,,,,,,,,,4,0,0,1,1,38,1,,,,,,,,,,,,,,,,,,,,,,,,,,,,,,,,,,,,,,,,,,,,,,,,,,,,,,,,,,,,,,,,,,,,,,,,,,,,,,,,,,,,,,,,,,,,,,
,,?,0.002,0,,,,,,stimuli/images/PICTURE_675.png,WEAPON,5ef367aa3b28ea0a3aad67ba,03/05/1953,2020-09-03_19h45.00.811,proactive2,2020.1.2,Win32,60,5f5126bb654d4b30ee6923d8,5f513922984fc83356efe48f,1,,,,,,windmill,,,,,,,,,,,4,0,0,2,2,32,1,,,,,,,,,,,,,,,,,,,,,,,,,,,,,,,,,,,,,,,,,,,,,,,,,,,,,,,,,,,,,,,,,,,,,,,,,,,,,,,,,,,,,,,,,,,,,,
,,?,0,0,,,,,,stimuli/images/PICTURE_356.png,DANGER,5ef367aa3b28ea0a3aad67ba,03/05/1953,2020-09-03_19h45.00.811,proactive2,2020.1.2,Win32,60,5f5126bb654d4b30ee6923d8,5f513922984fc83356efe48f,1,,,,,,pawn,,,,,,,,,,,6,0,0,3,3,55,1,,,,,,,,,,,,,,,,,,,,,,,,,,,,,,,,,,,,,,,,,,,,,,,,,,,,,,,,,,,,,,,,,,,,,,,,,,,,,,,,,,,,,,,,,,,,,,
,,?,0.001,0,,,,,,stimuli/images/PICTURE_692.png,MONTH,5ef367aa3b28ea0a3aad67ba,03/05/1953,2020-09-03_19h45.00.811,proactive2,2020.1.2,Win32,60,5f5126bb654d4b30ee6923d8,5f513922984fc83356efe48f,1,,,,,,cherry,,,,,,,,,,,2,0,0,4,4,16,1,,,,,,,,,,,,,,,,,,,,,,,,,,,,,,,,,,,,,,,,,,,,,,,,,,,,,,,,,,,,,,,,,,,,,,,,,,,,,,,,,,,,,,,,,,,,,,
,,?,0,0,,,,,,stimuli/images/PICTURE_68.png,MILE,5ef367aa3b28ea0a3aad67ba,03/05/1953,2020-09-03_19h45.00.811,proactive2,2020.1.2,Win32,60,5f5126bb654d4b30ee6923d8,5f513922984fc83356efe48f,1,,,,,,candle,,,,,,,,,,,5,0,0,5,5,44,1,,,,,,,,,,,,,,,,,,,,,,,,,,,,,,,,,,,,,,,,,,,,,,,,,,,,,,,,,,,,,,,,,,,,,,,,,,,,,,,,,,,,,,,,,,,,,,
,,?,0.001,0,,,,,,stimuli/images/PICTURE_708.png,YARD,5ef367aa3b28ea0a3aad67ba,03/05/1953,2020-09-03_19h45.00.811,proactive2,2020.1.2,Win32,60,5f5126bb654d4b30ee6923d8,5f513922984fc83356efe48f,1,,,,,,monkey,,,,,,,,,,,3,0,0,6,6,29,1,,,,,,,,,,,,,,,,,,,,,,,,,,,,,,,,,,,,,,,,,,,,,,,,,,,,,,,,,,,,,,,,,,,,,,,,,,,,,,,,,,,,,,,,,,,,,,
,,?,0.001,0,,,,,,stimuli/images/PICTURE_380.png,PHOTO,5ef367aa3b28ea0a3aad67ba,03/05/1953,2020-09-03_19h45.00.811,proactive2,2020.1.2,Win32,60,5f5126bb654d4b30ee6923d8,5f513922984fc83356efe48f,1,,,,,,gorilla,,,,,,,,,,,6,0,0,7,7,52,1,,,,,,,,,,,,,,,,,,,,,,,,,,,,,,,,,,,,,,,,,,,,,,,,,,,,,,,,,,,,,,,,,,,,,,,,,,,,,,,,,,,,,,,,,,,,,,
,,?,0,0,,,,,,stimuli/images/PICTURE_469.png,LETTER,5ef367aa3b28ea0a3aad67ba,03/05/1953,2020-09-03_19h45.00.811,proactive2,2020.1.2,Win32,60,5f5126bb654d4b30ee6923d8,5f513922984fc83356efe48f,1,,,,,,stool,,,,,,,,,,,5,0,0,8,8,42,1,,,,,,,,,,,,,,,,,,,,,,,,,,,,,,,,,,,,,,,,,,,,,,,,,,,,,,,,,,,,,,,,,,,,,,,,,,,,,,,,,,,,,,,,,,,,,,
,,?,0.001,0,,,,,,stimuli/images/PICTURE_449.png,THING,5ef367aa3b28ea0a3aad67ba,03/05/1953,2020-09-03_19h45.00.811,proactive2,2020.1.2,Win32,60,5f5126bb654d4b30ee6923d8,5f513922984fc83356efe48f,1,,,,,,bench,,,,,,,,,,,6,0,0,9,9,59,1,,,,,,,,,,,,,,,,,,,,,,,,,,,,,,,,,,,,,,,,,,,,,,,,,,,,,,,,,,,,,,,,,,,,,,,,,,,,,,,,,,,,,,,,,,,,,,
,,?,0.001,0,,,,,,stimuli/images/PICTURE_95.png,STYLE,5ef367aa3b28ea0a3aad67ba,03/05/1953,2020-09-03_19h45.00.811,proactive2,2020.1.2,Win32,60,5f5126bb654d4b30ee6923d8,5f513922984fc83356efe48f,1,,,,,,suitcase,,,,,,,,,,,3,0,0,10,10,25,1,,,,,,,,,,,,,,,,,,,,,,,,,,,,,,,,,,,,,,,,,,,,,,,,,,,,,,,,,,,,,,,,,,,,,,,,,,,,,,,,,,,,,,,,,,,,,,
,,CLIENT,7.607,1,,,,,,stimuli/images/PICTURE_708.png,CLIENT,5ef367aa3b28ea0a3aad67ba,03/05/1953,2020-09-03_19h45.00.811,proactive2,2020.1.2,Win32,60,5f5126bb654d4b30ee6923d8,5f513922984fc83356efe48f,1,,,,,,monkey,,,,,,,,,,,1,0,0,11,11,5,1,,,,,,,,,,,,,,,,,,,,,,,,,,,,,,,,,,,,,,,,,,,,,,,,,,,,,,,,,,,,,,,,,,,,,,,,,,,,,,,,,,,,,,,,,,,,,,
,,?,0.007,0,,,,,,stimuli/images/PICTURE_177.png,CARS,5ef367aa3b28ea0a3aad67ba,03/05/1953,2020-09-03_19h45.00.811,proactive2,2020.1.2,Win32,60,5f5126bb654d4b30ee6923d8,5f513922984fc83356efe48f,1,,,,,,mushroom,,,,,,,,,,,4,0,0,12,12,35,1,,,,,,,,,,,,,,,,,,,,,,,,,,,,,,,,,,,,,,,,,,,,,,,,,,,,,,,,,,,,,,,,,,,,,,,,,,,,,,,,,,,,,,,,,,,,,,
,,?,0.002,0,,,,,,stimuli/images/PICTURE_509.png,PHOTO,5ef367aa3b28ea0a3aad67ba,03/05/1953,2020-09-03_19h45.00.811,proactive2,2020.1.2,Win32,60,5f5126bb654d4b30ee6923d8,5f513922984fc83356efe48f,1,,,,,,telephone,,,,,,,,,,,3,0,0,13,13,21,1,,,,,,,,,,,,,,,,,,,,,,,,,,,,,,,,,,,,,,,,,,,,,,,,,,,,,,,,,,,,,,,,,,,,,,,,,,,,,,,,,,,,,,,,,,,,,,
,,?,0.002,0,,,,,,stimuli/images/PICTURE_453.png,DUDE,5ef367aa3b28ea0a3aad67ba,03/05/1953,2020-09-03_19h45.00.811,proactive2,2020.1.2,Win32,60,5f5126bb654d4b30ee6923d8,5f513922984fc83356efe48f,1,,,,,,scissors,,,,,,,,,,,3,0,0,14,14,27,1,,,,,,,,,,,,,,,,,,,,,,,,,,,,,,,,,,,,,,,,,,,,,,,,,,,,,,,,,,,,,,,,,,,,,,,,,,,,,,,,,,,,,,,,,,,,,,
,,?,0.002,0,,,,,,stimuli/images/PICTURE_470.png,CASINO,5ef367aa3b28ea0a3aad67ba,03/05/1953,2020-09-03_19h45.00.811,proactive2,2020.1.2,Win32,60,5f5126bb654d4b30ee6923d8,5f513922984fc83356efe48f,1,,,,,,motorbike,,,,,,,,,,,4,0,0,15,15,36,1,,,,,,,,,,,,,,,,,,,,,,,,,,,,,,,,,,,,,,,,,,,,,,,,,,,,,,,,,,,,,,,,,,,,,,,,,,,,,,,,,,,,,,,,,,,,,,
,,?,0.002,0,,,,,,stimuli/images/PICTURE_123.png,ADVICE,5ef367aa3b28ea0a3aad67ba,03/05/1953,2020-09-03_19h45.00.811,proactive2,2020.1.2,Win32,60,5f5126bb654d4b30ee6923d8,5f513922984fc83356efe48f,1,,,,,,dart,,,,,,,,,,,5,0,0,16,16,40,1,,,,,,,,,,,,,,,,,,,,,,,,,,,,,,,,,,,,,,,,,,,,,,,,,,,,,,,,,,,,,,,,,,,,,,,,,,,,,,,,,,,,,,,,,,,,,,
,,?,0.001,0,,,,,,stimuli/images/PICTURE_348.png,SPEECH,5ef367aa3b28ea0a3aad67ba,03/05/1953,2020-09-03_19h45.00.811,proactive2,2020.1.2,Win32,60,5f5126bb654d4b30ee6923d8,5f513922984fc83356efe48f,1,,,,,,pepper,,,,,,,,,,,3,0,0,17,17,20,1,,,,,,,,,,,,,,,,,,,,,,,,,,,,,,,,,,,,,,,,,,,,,,,,,,,,,,,,,,,,,,,,,,,,,,,,,,,,,,,,,,,,,,,,,,,,,,
,,?,0.002,0,,,,,,stimuli/images/PICTURE_208.png,LOTS,5ef367aa3b28ea0a3aad67ba,03/05/1953,2020-09-03_19h45.00.811,proactive2,2020.1.2,Win32,60,5f5126bb654d4b30ee6923d8,5f513922984fc83356efe48f,1,,,,,,microphone,,,,,,,,,,,2,0,0,18,18,10,1,,,,,,,,,,,,,,,,,,,,,,,,,,,,,,,,,,,,,,,,,,,,,,,,,,,,,,,,,,,,,,,,,,,,,,,,,,,,,,,,,,,,,,,,,,,,,,
,,?,0.001,0,,,,,,stimuli/images/PICTURE_667.png,PLENTY,5ef367aa3b28ea0a3aad67ba,03/05/1953,2020-09-03_19h45.00.811,proactive2,2020.1.2,Win32,60,5f5126bb654d4b30ee6923d8,5f513922984fc83356efe48f,1,,,,,,daisy,,,,,,,,,,,5,0,0,19,19,41,1,,,,,,,,,,,,,,,,,,,,,,,,,,,,,,,,,,,,,,,,,,,,,,,,,,,,,,,,,,,,,,,,,,,,,,,,,,,,,,,,,,,,,,,,,,,,,,
,,?,0.001,0,,,,,,stimuli/images/PICTURE_688.png,WOMEN,5ef367aa3b28ea0a3aad67ba,03/05/1953,2020-09-03_19h45.00.811,proactive2,2020.1.2,Win32,60,5f5126bb654d4b30ee6923d8,5f513922984fc83356efe48f,1,,,,,,runner,,,,,,,,,,,2,0,0,20,20,14,1,,,,,,,,,,,,,,,,,,,,,,,,,,,,,,,,,,,,,,,,,,,,,,,,,,,,,,,,,,,,,,,,,,,,,,,,,,,,,,,,,,,,,,,,,,,,,,
,,?,0.002,0,,,,,,stimuli/images/PICTURE_744.png,SYSTEM,5ef367aa3b28ea0a3aad67ba,03/05/1953,2020-09-03_19h45.00.811,proactive2,2020.1.2,Win32,60,5f5126bb654d4b30ee6923d8,5f513922984fc83356efe48f,1,,,,,,ring,,,,,,,,,,,5,0,0,21,21,43,1,,,,,,,,,,,,,,,,,,,,,,,,,,,,,,,,,,,,,,,,,,,,,,,,,,,,,,,,,,,,,,,,,,,,,,,,,,,,,,,,,,,,,,,,,,,,,,
,,?,0.001,0,,,,,,stimuli/images/PICTURE_233.png,IDEAS,5ef367aa3b28ea0a3aad67ba,03/05/1953,2020-09-03_19h45.00.811,proactive2,2020.1.2,Win32,60,5f5126bb654d4b30ee6923d8,5f513922984fc83356efe48f,1,,,,,,salt,,,,,,,,,,,3,0,0,22,22,28,1,,,,,,,,,,,,,,,,,,,,,,,,,,,,,,,,,,,,,,,,,,,,,,,,,,,,,,,,,,,,,,,,,,,,,,,,,,,,,,,,,,,,,,,,,,,,,,
,,?,0.002,0,,,,,,stimuli/images/PICTURE_380.png,DEATH,5ef367aa3b28ea0a3aad67ba,03/05/1953,2020-09-03_19h45.00.811,proactive2,2020.1.2,Win32,60,5f5126bb654d4b30ee6923d8,5f513922984fc83356efe48f,1,,,,,,gorilla,,,,,,,,,,,5,0,0,23,23,49,1,,,,,,,,,,,,,,,,,,,,,,,,,,,,,,,,,,,,,,,,,,,,,,,,,,,,,,,,,,,,,,,,,,,,,,,,,,,,,,,,,,,,,,,,,,,,,,
,,?,0.002,0,,,,,,stimuli/images/PICTURE_453.png,PLENTY,5ef367aa3b28ea0a3aad67ba,03/05/1953,2020-09-03_19h45.00.811,proactive2,2020.1.2,Win32,60,5f5126bb654d4b30ee6923d8,5f513922984fc83356efe48f,1,,,,,,scissors,,,,,,,,,,,6,0,0,24,24,56,1,,,,,,,,,,,,,,,,,,,,,,,,,,,,,,,,,,,,,,,,,,,,,,,,,,,,,,,,,,,,,,,,,,,,,,,,,,,,,,,,,,,,,,,,,,,,,,
,,?,0.001,0,,,,,,stimuli/images/PICTURE_208.png,THING,5ef367aa3b28ea0a3aad67ba,03/05/1953,2020-09-03_19h45.00.811,proactive2,2020.1.2,Win32,60,5f5126bb654d4b30ee6923d8,5f513922984fc83356efe48f,1,,,,,,microphone,,,,,,,,,,,5,0,0,25,25,47,1,,,,,,,,,,,,,,,,,,,,,,,,,,,,,,,,,,,,,,,,,,,,,,,,,,,,,,,,,,,,,,,,,,,,,,,,,,,,,,,,,,,,,,,,,,,,,,
,,CASINO,6.054,1,,,,,,stimuli/images/PICTURE_688.png,CASINO,5ef367aa3b28ea0a3aad67ba,03/05/1953,2020-09-03_19h45.00.811,proactive2,2020.1.2,Win32,60,5f5126bb654d4b30ee6923d8,5f513922984fc83356efe48f,1,,,,,,runner,,,,,,,,,,,1,0,0,26,26,2,1,,,,,,,,,,,,,,,,,,,,,,,,,,,,,,,,,,,,,,,,,,,,,,,,,,,,,,,,,,,,,,,,,,,,,,,,,,,,,,,,,,,,,,,,,,,,,,
,,?,0.004,0,,,,,,stimuli/images/PICTURE_302.png,FAMILY,5ef367aa3b28ea0a3aad67ba,03/05/1953,2020-09-03_19h45.00.811,proactive2,2020.1.2,Win32,60,5f5126bb654d4b30ee6923d8,5f513922984fc83356efe48f,1,,,,,,taxi,,,,,,,,,,,2,0,0,27,27,18,1,,,,,,,,,,,,,,,,,,,,,,,,,,,,,,,,,,,,,,,,,,,,,,,,,,,,,,,,,,,,,,,,,,,,,,,,,,,,,,,,,,,,,,,,,,,,,,
,,BATH,1.903,1,,,,,,stimuli/images/PICTURE_667.png,BATH,5ef367aa3b28ea0a3aad67ba,03/05/1953,2020-09-03_19h45.00.811,proactive2,2020.1.2,Win32,60,5f5126bb654d4b30ee6923d8,5f513922984fc83356efe48f,1,,,,,,daisy,,,,,,,,,,,1,0,0,28,28,4,1,,,,,,,,,,,,,,,,,,,,,,,,,,,,,,,,,,,,,,,,,,,,,,,,,,,,,,,,,,,,,,,,,,,,,,,,,,,,,,,,,,,,,,,,,,,,,,
,,?,0.007,0,,,,,,stimuli/images/PICTURE_147.png,MOMENT,5ef367aa3b28ea0a3aad67ba,03/05/1953,2020-09-03_19h45.00.811,proactive2,2020.1.2,Win32,60,5f5126bb654d4b30ee6923d8,5f513922984fc83356efe48f,1,,,,,,hanger,,,,,,,,,,,6,0,0,29,29,51,1,,,,,,,,,,,,,,,,,,,,,,,,,,,,,,,,,,,,,,,,,,,,,,,,,,,,,,,,,,,,,,,,,,,,,,,,,,,,,,,,,,,,,,,,,,,,,,
,,?,0.001,0,,,,,,stimuli/images/PICTURE_491.png,WRITER,5ef367aa3b28ea0a3aad67ba,03/05/1953,2020-09-03_19h45.00.811,proactive2,2020.1.2,Win32,60,5f5126bb654d4b30ee6923d8,5f513922984fc83356efe48f,1,,,,,,rug,,,,,,,,,,,6,0,0,30,30,57,1,,,,,,,,,,,,,,,,,,,,,,,,,,,,,,,,,,,,,,,,,,,,,,,,,,,,,,,,,,,,,,,,,,,,,,,,,,,,,,,,,,,,,,,,,,,,,,
,,ARTIST,2.119,1,,,,,,stimuli/images/PICTURE_469.png,ARTIST,5ef367aa3b28ea0a3aad67ba,03/05/1953,2020-09-03_19h45.00.811,proactive2,2020.1.2,Win32,60,5f5126bb654d4b30ee6923d8,5f513922984fc83356efe48f,1,,,,,,stool,,,,,,,,,,,1,0,0,31,31,6,1,,,,,,,,,,,,,,,,,,,,,,,,,,,,,,,,,,,,,,,,,,,,,,,,,,,,,,,,,,,,,,,,,,,,,,,,,,,,,,,,,,,,,,,,,,,,,,
,,?,0.004,0,,,,,,stimuli/images/PICTURE_491.png,ROOF,5ef367aa3b28ea0a3aad67ba,03/05/1953,2020-09-03_19h45.00.811,proactive2,2020.1.2,Win32,60,5f5126bb654d4b30ee6923d8,5f513922984fc83356efe48f,1,,,,,,rug,,,,,,,,,,,3,0,0,32,32,24,1,,,,,,,,,,,,,,,,,,,,,,,,,,,,,,,,,,,,,,,,,,,,,,,,,,,,,,,,,,,,,,,,,,,,,,,,,,,,,,,,,,,,,,,,,,,,,,
,,?,0.003,0,,,,,,stimuli/images/PICTURE_327.png,BEAUTY,5ef367aa3b28ea0a3aad67ba,03/05/1953,2020-09-03_19h45.00.811,proactive2,2020.1.2,Win32,60,5f5126bb654d4b30ee6923d8,5f513922984fc83356efe48f,1,,,,,,helmet,,,,,,,,,,,5,0,0,33,33,48,1,,,,,,,,,,,,,,,,,,,,,,,,,,,,,,,,,,,,,,,,,,,,,,,,,,,,,,,,,,,,,,,,,,,,,,,,,,,,,,,,,,,,,,,,,,,,,,
,,?,0.004,0,,,,,,stimuli/images/PICTURE_208.png,MONTH,5ef367aa3b28ea0a3aad67ba,03/05/1953,2020-09-03_19h45.00.811,proactive2,2020.1.2,Win32,60,5f5126bb654d4b30ee6923d8,5f513922984fc83356efe48f,1,,,,,,microphone,,,,,,,,,,,6,0,0,34,34,53,1,,,,,,,,,,,,,,,,,,,,,,,,,,,,,,,,,,,,,,,,,,,,,,,,,,,,,,,,,,,,,,,,,,,,,,,,,,,,,,,,,,,,,,,,,,,,,,
,,?,0.001,0,,,,,,stimuli/images/PICTURE_123.png,ADVICE,5ef367aa3b28ea0a3aad67ba,03/05/1953,2020-09-03_19h45.00.811,proactive2,2020.1.2,Win32,60,5f5126bb654d4b30ee6923d8,5f513922984fc83356efe48f,1,,,,,,dart,,,,,,,,,,,6,0,0,35,35,50,1,,,,,,,,,,,,,,,,,,,,,,,,,,,,,,,,,,,,,,,,,,,,,,,,,,,,,,,,,,,,,,,,,,,,,,,,,,,,,,,,,,,,,,,,,,,,,,
,,?,0.001,0,,,,,,stimuli/images/PICTURE_85.png,THING,5ef367aa3b28ea0a3aad67ba,03/05/1953,2020-09-03_19h45.00.811,proactive2,2020.1.2,Win32,60,5f5126bb654d4b30ee6923d8,5f513922984fc83356efe48f,1,,,,,,diamond,,,,,,,,,,,2,0,0,36,36,15,1,,,,,,,,,,,,,,,,,,,,,,,,,,,,,,,,,,,,,,,,,,,,,,,,,,,,,,,,,,,,,,,,,,,,,,,,,,,,,,,,,,,,,,,,,,,,,,
,,?,0.003,0,,,,,,stimuli/images/PICTURE_467.png,DEMON,5ef367aa3b28ea0a3aad67ba,03/05/1953,2020-09-03_19h45.00.811,proactive2,2020.1.2,Win32,60,5f5126bb654d4b30ee6923d8,5f513922984fc83356efe48f,1,,,,,,peg,,,,,,,,,,,3,0,0,37,37,23,1,,,,,,,,,,,,,,,,,,,,,,,,,,,,,,,,,,,,,,,,,,,,,,,,,,,,,,,,,,,,,,,,,,,,,,,,,,,,,,,,,,,,,,,,,,,,,,
,,VALLEY,2.059,1,,,,,,stimuli/images/PICTURE_654.png,VALLEY,5ef367aa3b28ea0a3aad67ba,03/05/1953,2020-09-03_19h45.00.811,proactive2,2020.1.2,Win32,60,5f5126bb654d4b30ee6923d8,5f513922984fc83356efe48f,1,,,,,,pencil,,,,,,,,,,,1,0,0,38,38,1,1,,,,,,,,,,,,,,,,,,,,,,,,,,,,,,,,,,,,,,,,,,,,,,,,,,,,,,,,,,,,,,,,,,,,,,,,,,,,,,,,,,,,,,,,,,,,,,
,,?,0.003,0,,,,,,stimuli/images/PICTURE_311.png,FRIEND,5ef367aa3b28ea0a3aad67ba,03/05/1953,2020-09-03_19h45.00.811,proactive2,2020.1.2,Win32,60,5f5126bb654d4b30ee6923d8,5f513922984fc83356efe48f,1,,,,,,razor,,,,,,,,,,,4,0,0,39,39,34,1,,,,,,,,,,,,,,,,,,,,,,,,,,,,,,,,,,,,,,,,,,,,,,,,,,,,,,,,,,,,,,,,,,,,,,,,,,,,,,,,,,,,,,,,,,,,,,
,,?,0,0,,,,,,stimuli/images/PICTURE_248.png,DOZEN,5ef367aa3b28ea0a3aad67ba,03/05/1953,2020-09-03_19h45.00.811,proactive2,2020.1.2,Win32,60,5f5126bb654d4b30ee6923d8,5f513922984fc83356efe48f,1,,,,,,cart,,,,,,,,,,,4,0,0,40,40,39,1,,,,,,,,,,,,,,,,,,,,,,,,,,,,,,,,,,,,,,,,,,,,,,,,,,,,,,,,,,,,,,,,,,,,,,,,,,,,,,,,,,,,,,,,,,,,,,
,,?,0.001,0,,,,,,stimuli/images/PICTURE_160.png,FEET,5ef367aa3b28ea0a3aad67ba,03/05/1953,2020-09-03_19h45.00.811,proactive2,2020.1.2,Win32,60,5f5126bb654d4b30ee6923d8,5f513922984fc83356efe48f,1,,,,,,wheelbarrow,,,,,,,,,,,6,0,0,41,41,58,1,,,,,,,,,,,,,,,,,,,,,,,,,,,,,,,,,,,,,,,,,,,,,,,,,,,,,,,,,,,,,,,,,,,,,,,,,,,,,,,,,,,,,,,,,,,,,,
,,BODY,1.713,1,,,,,,stimuli/images/PICTURE_504.png,BODY,5ef367aa3b28ea0a3aad67ba,03/05/1953,2020-09-03_19h45.00.811,proactive2,2020.1.2,Win32,60,5f5126bb654d4b30ee6923d8,5f513922984fc83356efe48f,1,,,,,,wheel,,,,,,,,,,,1,0,0,42,42,8,1,,,,,,,,,,,,,,,,,,,,,,,,,,,,,,,,,,,,,,,,,,,,,,,,,,,,,,,,,,,,,,,,,,,,,,,,,,,,,,,,,,,,,,,,,,,,,,
,,?,0.007,0,,,,,,stimuli/images/PICTURE_151.png,GIRL,5ef367aa3b28ea0a3aad67ba,03/05/1953,2020-09-03_19h45.00.811,proactive2,2020.1.2,Win32,60,5f5126bb654d4b30ee6923d8,5f513922984fc83356efe48f,1,,,,,,tray,,,,,,,,,,,2,0,0,43,43,19,1,,,,,,,,,,,,,,,,,,,,,,,,,,,,,,,,,,,,,,,,,,,,,,,,,,,,,,,,,,,,,,,,,,,,,,,,,,,,,,,,,,,,,,,,,,,,,,
,,?,0,0,,,,,,stimuli/images/PICTURE_677.png,MILE,5ef367aa3b28ea0a3aad67ba,03/05/1953,2020-09-03_19h45.00.811,proactive2,2020.1.2,Win32,60,5f5126bb654d4b30ee6923d8,5f513922984fc83356efe48f,1,,,,,,map,,,,,,,,,,,4,0,0,44,44,30,1,,,,,,,,,,,,,,,,,,,,,,,,,,,,,,,,,,,,,,,,,,,,,,,,,,,,,,,,,,,,,,,,,,,,,,,,,,,,,,,,,,,,,,,,,,,,,,
,,LEADER,2.036,1,,,,,,stimuli/images/PICTURE_160.png,LEADER,5ef367aa3b28ea0a3aad67ba,03/05/1953,2020-09-03_19h45.00.811,proactive2,2020.1.2,Win32,60,5f5126bb654d4b30ee6923d8,5f513922984fc83356efe48f,1,,,,,,wheelbarrow,,,,,,,,,,,1,0,0,45,45,3,1,,,,,,,,,,,,,,,,,,,,,,,,,,,,,,,,,,,,,,,,,,,,,,,,,,,,,,,,,,,,,,,,,,,,,,,,,,,,,,,,,,,,,,,,,,,,,,
,,?,0.008,0,,,,,,stimuli/images/PICTURE_203.png,ARTIST,5ef367aa3b28ea0a3aad67ba,03/05/1953,2020-09-03_19h45.00.811,proactive2,2020.1.2,Win32,60,5f5126bb654d4b30ee6923d8,5f513922984fc83356efe48f,1,,,,,,cap,,,,,,,,,,,3,0,0,46,46,26,1,,,,,,,,,,,,,,,,,,,,,,,,,,,,,,,,,,,,,,,,,,,,,,,,,,,,,,,,,,,,,,,,,,,,,,,,,,,,,,,,,,,,,,,,,,,,,,
,,?,0.002,0,,,,,,stimuli/images/PICTURE_311.png,BEAUTY,5ef367aa3b28ea0a3aad67ba,03/05/1953,2020-09-03_19h45.00.811,proactive2,2020.1.2,Win32,60,5f5126bb654d4b30ee6923d8,5f513922984fc83356efe48f,1,,,,,,razor,,,,,,,,,,,2,0,0,47,47,13,1,,,,,,,,,,,,,,,,,,,,,,,,,,,,,,,,,,,,,,,,,,,,,,,,,,,,,,,,,,,,,,,,,,,,,,,,,,,,,,,,,,,,,,,,,,,,,,
,,?,0.005,0,,,,,,stimuli/images/PICTURE_744.png,SAKE,5ef367aa3b28ea0a3aad67ba,03/05/1953,2020-09-03_19h45.00.811,proactive2,2020.1.2,Win32,60,5f5126bb654d4b30ee6923d8,5f513922984fc83356efe48f,1,,,,,,ring,,,,,,,,,,,2,0,0,48,48,17,1,,,,,,,,,,,,,,,,,,,,,,,,,,,,,,,,,,,,,,,,,,,,,,,,,,,,,,,,,,,,,,,,,,,,,,,,,,,,,,,,,,,,,,,,,,,,,,
,,PLENTY,2.211,1,,,,,,stimuli/images/PICTURE_339.png,PLENTY,5ef367aa3b28ea0a3aad67ba,03/05/1953,2020-09-03_19h45.00.811,proactive2,2020.1.2,Win32,60,5f5126bb654d4b30ee6923d8,5f513922984fc83356efe48f,1,,,,,,backpack,,,,,,,,,,,1,0,0,49,49,0,1,,,,,,,,,,,,,,,,,,,,,,,,,,,,,,,,,,,,,,,,,,,,,,,,,,,,,,,,,,,,,,,,,,,,,,,,,,,,,,,,,,,,,,,,,,,,,,
,,?,0.007,0,,,,,,stimuli/images/PICTURE_708.png,PENNY,5ef367aa3b28ea0a3aad67ba,03/05/1953,2020-09-03_19h45.00.811,proactive2,2020.1.2,Win32,60,5f5126bb654d4b30ee6923d8,5f513922984fc83356efe48f,1,,,,,,monkey,,,,,,,,,,,4,0,0,50,50,31,1,,,,,,,,,,,,,,,,,,,,,,,,,,,,,,,,,,,,,,,,,,,,,,,,,,,,,,,,,,,,,,,,,,,,,,,,,,,,,,,,,,,,,,,,,,,,,,
,,?,0.007,0,,,,,,stimuli/images/PICTURE_255.png,AREA,5ef367aa3b28ea0a3aad67ba,03/05/1953,2020-09-03_19h45.00.811,proactive2,2020.1.2,Win32,60,5f5126bb654d4b30ee6923d8,5f513922984fc83356efe48f,1,,,,,,shovel,,,,,,,,,,,3,0,0,51,51,22,1,,,,,,,,,,,,,,,,,,,,,,,,,,,,,,,,,,,,,,,,,,,,,,,,,,,,,,,,,,,,,,,,,,,,,,,,,,,,,,,,,,,,,,,,,,,,,,
,,?,0.002,0,,,,,,stimuli/images/PICTURE_488.png,STYLE,5ef367aa3b28ea0a3aad67ba,03/05/1953,2020-09-03_19h45.00.811,proactive2,2020.1.2,Win32,60,5f5126bb654d4b30ee6923d8,5f513922984fc83356efe48f,1,,,,,,sun,,,,,,,,,,,4,0,0,52,52,33,1,,,,,,,,,,,,,,,,,,,,,,,,,,,,,,,,,,,,,,,,,,,,,,,,,,,,,,,,,,,,,,,,,,,,,,,,,,,,,,,,,,,,,,,,,,,,,,
,,SAKE,2.688,1,,,,,,stimuli/images/PICTURE_314.png,SAKE,5ef367aa3b28ea0a3aad67ba,03/05/1953,2020-09-03_19h45.00.811,proactive2,2020.1.2,Win32,60,5f5126bb654d4b30ee6923d8,5f513922984fc83356efe48f,1,,,,,,perfume,,,,,,,,,,,1,0,0,53,53,7,1,,,,,,,,,,,,,,,,,,,,,,,,,,,,,,,,,,,,,,,,,,,,,,,,,,,,,,,,,,,,,,,,,,,,,,,,,,,,,,,,,,,,,,,,,,,,,,
,,?,0.005,0,,,,,,stimuli/images/PICTURE_314.png,GODS,5ef367aa3b28ea0a3aad67ba,03/05/1953,2020-09-03_19h45.00.811,proactive2,2020.1.2,Win32,60,5f5126bb654d4b30ee6923d8,5f513922984fc83356efe48f,1,,,,,,perfume,,,,,,,,,,,2,0,0,54,54,11,1,,,,,,,,,,,,,,,,,,,,,,,,,,,,,,,,,,,,,,,,,,,,,,,,,,,,,,,,,,,,,,,,,,,,,,,,,,,,,,,,,,,,,,,,,,,,,,
,,?,0.001,0,,,,,,stimuli/images/PICTURE_285.png,ADVICE,5ef367aa3b28ea0a3aad67ba,03/05/1953,2020-09-03_19h45.00.811,proactive2,2020.1.2,Win32,60,5f5126bb654d4b30ee6923d8,5f513922984fc83356efe48f,1,,,,,,carrot,,,,,,,,,,,2,0,0,55,55,12,1,,,,,,,,,,,,,,,,,,,,,,,,,,,,,,,,,,,,,,,,,,,,,,,,,,,,,,,,,,,,,,,,,,,,,,,,,,,,,,,,,,,,,,,,,,,,,,
,,?,0.002,0,,,,,,stimuli/images/PICTURE_308.png,ESTATE,5ef367aa3b28ea0a3aad67ba,03/05/1953,2020-09-03_19h45.00.811,proactive2,2020.1.2,Win32,60,5f5126bb654d4b30ee6923d8,5f513922984fc83356efe48f,1,,,,,,dice,,,,,,,,,,,5,0,0,56,56,46,1,,,,,,,,,,,,,,,,,,,,,,,,,,,,,,,,,,,,,,,,,,,,,,,,,,,,,,,,,,,,,,,,,,,,,,,,,,,,,,,,,,,,,,,,,,,,,,
,,?,0.004,0,,,,,,stimuli/images/PICTURE_308.png,KIND,5ef367aa3b28ea0a3aad67ba,03/05/1953,2020-09-03_19h45.00.811,proactive2,2020.1.2,Win32,60,5f5126bb654d4b30ee6923d8,5f513922984fc83356efe48f,1,,,,,,dice,,,,,,,,,,,6,0,0,57,57,54,1,,,,,,,,,,,,,,,,,,,,,,,,,,,,,,,,,,,,,,,,,,,,,,,,,,,,,,,,,,,,,,,,,,,,,,,,,,,,,,,,,,,,,,,,,,,,,,
,,PLANE,3.278,0,,,,,,stimuli/images/PICTURE_487.png,FLIGHT,5ef367aa3b28ea0a3aad67ba,03/05/1953,2020-09-03_19h45.00.811,proactive2,2020.1.2,Win32,60,5f5126bb654d4b30ee6923d8,5f513922984fc83356efe48f,1,,,,,,basket,,,,,,,,,,,1,0,0,58,58,9,1,,,,,,,,,,,,,,,,,,,,,,,,,,,,,,,,,,,,,,,,,,,,,,,,,,,,,,,,,,,,,,,,,,,,,,,,,,,,,,,,,,,,,,,,,,,,,,
,,?,0.006,0,,,,,,stimuli/images/PICTURE_215.png,PLENTY,5ef367aa3b28ea0a3aad67ba,03/05/1953,2020-09-03_19h45.00.811,proactive2,2020.1.2,Win32,60,5f5126bb654d4b30ee6923d8,5f513922984fc83356efe48f,1,,,,,,boot,,,,,,,,,,,4,0,0,59,59,37,1,,,,,,,,,,,,,,,,,,,,,,,,,,,,,,,,,,,,,,,,,,,,,,,,,,,,,,,,,,,,,,,,,,,,,,,,,,,,,,,,,,,,,,,,,,,,,,
,,,,,,,,,,,,5ef367aa3b28ea0a3aad67ba,03/05/1953,2020-09-03_19h45.00.811,proactive2,2020.1.2,Win32,60,5f5126bb654d4b30ee6923d8,5f513922984fc83356efe48f,1,,,,,,,,,,,,,,,,,,,,,,,,0,1,1,0,1,stimuli/learn-block1.csv,,,,,,,,,,,,,,,,,,,,,,,,,,,,,,,,,,,,,,,,,,,,,,,,,,,,,,,,,,,,,,,,,,,,,,,,,,,,,,,,,,,,,,,,
,,,,,,,,,,stimuli/images/PICTURE_654.png,YEAR,5ef367aa3b28ea0a3aad67ba,03/05/1953,2020-09-03_19h45.00.811,proactive2,2020.1.2,Win32,60,5f5126bb654d4b30ee6923d8,5f513922984fc83356efe48f,1,,,,,,pencil,,,,,,0,0,0,41,1,5,2,,,,,,,,,,,,,,,,,,,,,,,,,,,,,,,,,,,,,,,,,,,,,,,,,,,,,,,,,,,,,,,,,,,,,,,,,,,,,,,,,,,,,,,,,,,,,,,,,,,
,,,,,,,,,,stimuli/images/PICTURE_453.png,FAMILY,5ef367aa3b28ea0a3aad67ba,03/05/1953,2020-09-03_19h45.00.811,proactive2,2020.1.2,Win32,60,5f5126bb654d4b30ee6923d8,5f513922984fc83356efe48f,1,,,,,,scissors,,,,,,0,1,1,48,1,5,2,,,,,,,,,,,,,,,,,,,,,,,,,,,,,,,,,,,,,,,,,,,,,,,,,,,,,,,,,,,,,,,,,,,,,,,,,,,,,,,,,,,,,,,,,,,,,,,,,,,
,,,,,,,,,,stimuli/images/PICTURE_405.png,JUNGLE,5ef367aa3b28ea0a3aad67ba,03/05/1953,2020-09-03_19h45.00.811,proactive2,2020.1.2,Win32,60,5f5126bb654d4b30ee6923d8,5f513922984fc83356efe48f,1,,,,,,anchor,,,,,,0,2,2,58,1,6,2,,,,,,,,,,,,,,,,,,,,,,,,,,,,,,,,,,,,,,,,,,,,,,,,,,,,,,,,,,,,,,,,,,,,,,,,,,,,,,,,,,,,,,,,,,,,,,,,,,,
,,,,,,,,,,stimuli/images/PICTURE_141.png,CLIENT,5ef367aa3b28ea0a3aad67ba,03/05/1953,2020-09-03_19h45.00.811,proactive2,2020.1.2,Win32,60,5f5126bb654d4b30ee6923d8,5f513922984fc83356efe48f,1,,,,,,sunflower,,,,,,0,3,3,30,1,4,2,,,,,,,,,,,,,,,,,,,,,,,,,,,,,,,,,,,,,,,,,,,,,,,,,,,,,,,,,,,,,,,,,,,,,,,,,,,,,,,,,,,,,,,,,,,,,,,,,,,
,,,,,,,,,,stimuli/images/PICTURE_348.png,TOILET,5ef367aa3b28ea0a3aad67ba,03/05/1953,2020-09-03_19h45.00.811,proactive2,2020.1.2,Win32,60,5f5126bb654d4b30ee6923d8,5f513922984fc83356efe48f,1,,,,,,pepper,,,,,,0,4,4,4,1,1,2,,,,,,,,,,,,,,,,,,,,,,,,,,,,,,,,,,,,,,,,,,,,,,,,,,,,,,,,,,,,,,,,,,,,,,,,,,,,,,,,,,,,,,,,,,,,,,,,,,,
,,,,,,,,,,stimuli/images/PICTURE_296.png,CLOCK,5ef367aa3b28ea0a3aad67ba,03/05/1953,2020-09-03_19h45.00.811,proactive2,2020.1.2,Win32,60,5f5126bb654d4b30ee6923d8,5f513922984fc83356efe48f,1,,,,,,bolt,,,,,,0,5,5,18,1,2,2,,,,,,,,,,,,,,,,,,,,,,,,,,,,,,,,,,,,,,,,,,,,,,,,,,,,,,,,,,,,,,,,,,,,,,,,,,,,,,,,,,,,,,,,,,,,,,,,,,,
,,,,,,,,,,stimuli/images/PICTURE_677.png,PHOTO,5ef367aa3b28ea0a3aad67ba,03/05/1953,2020-09-03_19h45.00.811,proactive2,2020.1.2,Win32,60,5f5126bb654d4b30ee6923d8,5f513922984fc83356efe48f,1,,,,,,map,,,,,,0,6,6,14,1,2,2,,,,,,,,,,,,,,,,,,,,,,,,,,,,,,,,,,,,,,,,,,,,,,,,,,,,,,,,,,,,,,,,,,,,,,,,,,,,,,,,,,,,,,,,,,,,,,,,,,,
,,,,,,,,,,stimuli/images/PICTURE_348.png,DUDE,5ef367aa3b28ea0a3aad67ba,03/05/1953,2020-09-03_19h45.00.811,proactive2,2020.1.2,Win32,60,5f5126bb654d4b30ee6923d8,5f513922984fc83356efe48f,1,,,,,,pepper,,,,,,0,7,7,59,1,6,2,,,,,,,,,,,,,,,,,,,,,,,,,,,,,,,,,,,,,,,,,,,,,,,,,,,,,,,,,,,,,,,,,,,,,,,,,,,,,,,,,,,,,,,,,,,,,,,,,,,
,,,,,,,,,,stimuli/images/PICTURE_654.png,COPS,5ef367aa3b28ea0a3aad67ba,03/05/1953,2020-09-03_19h45.00.811,proactive2,2020.1.2,Win32,60,5f5126bb654d4b30ee6923d8,5f513922984fc83356efe48f,1,,,,,,pencil,,,,,,0,8,8,10,1,2,2,,,,,,,,,,,,,,,,,,,,,,,,,,,,,,,,,,,,,,,,,,,,,,,,,,,,,,,,,,,,,,,,,,,,,,,,,,,,,,,,,,,,,,,,,,,,,,,,,,,
,,,,,,,,,,stimuli/images/PICTURE_93.png,GIRL,5ef367aa3b28ea0a3aad67ba,03/05/1953,2020-09-03_19h45.00.811,proactive2,2020.1.2,Win32,60,5f5126bb654d4b30ee6923d8,5f513922984fc83356efe48f,1,,,,,,skateboard,,,,,,0,9,9,31,1,4,2,,,,,,,,,,,,,,,,,,,,,,,,,,,,,,,,,,,,,,,,,,,,,,,,,,,,,,,,,,,,,,,,,,,,,,,,,,,,,,,,,,,,,,,,,,,,,,,,,,,
,,,,,,,,,,stimuli/images/PICTURE_285.png,WRITER,5ef367aa3b28ea0a3aad67ba,03/05/1953,2020-09-03_19h45.00.811,proactive2,2020.1.2,Win32,60,5f5126bb654d4b30ee6923d8,5f513922984fc83356efe48f,1,,,,,,carrot,,,,,,0,10,10,6,1,1,2,,,,,,,,,,,,,,,,,,,,,,,,,,,,,,,,,,,,,,,,,,,,,,,,,,,,,,,,,,,,,,,,,,,,,,,,,,,,,,,,,,,,,,,,,,,,,,,,,,,
,,,,,,,,,,stimuli/images/PICTURE_57.png,CANDY,5ef367aa3b28ea0a3aad67ba,03/05/1953,2020-09-03_19h45.00.811,proactive2,2020.1.2,Win32,60,5f5126bb654d4b30ee6923d8,5f513922984fc83356efe48f,1,,,,,,stamp,,,,,,0,11,11,52,1,6,2,,,,,,,,,,,,,,,,,,,,,,,,,,,,,,,,,,,,,,,,,,,,,,,,,,,,,,,,,,,,,,,,,,,,,,,,,,,,,,,,,,,,,,,,,,,,,,,,,,,
,,,,,,,,,,stimuli/images/PICTURE_2.png,AREA,5ef367aa3b28ea0a3aad67ba,03/05/1953,2020-09-03_19h45.00.811,proactive2,2020.1.2,Win32,60,5f5126bb654d4b30ee6923d8,5f513922984fc83356efe48f,1,,,,,,tyre,,,,,,0,12,12,32,1,4,2,,,,,,,,,,,,,,,,,,,,,,,,,,,,,,,,,,,,,,,,,,,,,,,,,,,,,,,,,,,,,,,,,,,,,,,,,,,,,,,,,,,,,,,,,,,,,,,,,,,
,,,,,,,,,,stimuli/images/PICTURE_356.png,CANDY,5ef367aa3b28ea0a3aad67ba,03/05/1953,2020-09-03_19h45.00.811,proactive2,2020.1.2,Win32,60,5f5126bb654d4b30ee6923d8,5f513922984fc83356efe48f,1,,,,,,pawn,,,,,,0,13,13,46,1,5,2,,,,,,,,,,,,,,,,,,,,,,,,,,,,,,,,,,,,,,,,,,,,,,,,,,,,,,,,,,,,,,,,,,,,,,,,,,,,,,,,,,,,,,,,,,,,,,,,,,,
,,,,,,,,,,stimuli/images/PICTURE_509.png,BATH,5ef367aa3b28ea0a3aad67ba,03/05/1953,2020-09-03_19h45.00.811,proactive2,2020.1.2,Win32,60,5f5126bb654d4b30ee6923d8,5f513922984fc83356efe48f,1,,,,,,telephone,,,,,,0,14,14,15,1,2,2,,,,,,,,,,,,,,,,,,,,,,,,,,,,,,,,,,,,,,,,,,,,,,,,,,,,,,,,,,,,,,,,,,,,,,,,,,,,,,,,,,,,,,,,,,,,,,,,,,,
,,,,,,,,,,stimuli/images/PICTURE_452.png,COPS,5ef367aa3b28ea0a3aad67ba,03/05/1953,2020-09-03_19h45.00.811,proactive2,2020.1.2,Win32,60,5f5126bb654d4b30ee6923d8,5f513922984fc83356efe48f,1,,,,,,watch,,,,,,0,15,15,0,1,1,2,,,,,,,,,,,,,,,,,,,,,,,,,,,,,,,,,,,,,,,,,,,,,,,,,,,,,,,,,,,,,,,,,,,,,,,,,,,,,,,,,,,,,,,,,,,,,,,,,,,
,,,,,,,,,,stimuli/images/PICTURE_18.png,RIVER,5ef367aa3b28ea0a3aad67ba,03/05/1953,2020-09-03_19h45.00.811,proactive2,2020.1.2,Win32,60,5f5126bb654d4b30ee6923d8,5f513922984fc83356efe48f,1,,,,,,planet,,,,,,0,16,16,22,1,3,2,,,,,,,,,,,,,,,,,,,,,,,,,,,,,,,,,,,,,,,,,,,,,,,,,,,,,,,,,,,,,,,,,,,,,,,,,,,,,,,,,,,,,,,,,,,,,,,,,,,
,,,,,,,,,,stimuli/images/PICTURE_470.png,BEAUTY,5ef367aa3b28ea0a3aad67ba,03/05/1953,2020-09-03_19h45.00.811,proactive2,2020.1.2,Win32,60,5f5126bb654d4b30ee6923d8,5f513922984fc83356efe48f,1,,,,,,motorbike,,,,,,0,17,17,26,1,3,2,,,,,,,,,,,,,,,,,,,,,,,,,,,,,,,,,,,,,,,,,,,,,,,,,,,,,,,,,,,,,,,,,,,,,,,,,,,,,,,,,,,,,,,,,,,,,,,,,,,
,,,,,,,,,,stimuli/images/PICTURE_147.png,LEADER,5ef367aa3b28ea0a3aad67ba,03/05/1953,2020-09-03_19h45.00.811,proactive2,2020.1.2,Win32,60,5f5126bb654d4b30ee6923d8,5f513922984fc83356efe48f,1,,,,,,hanger,,,,,,0,18,18,33,1,4,2,,,,,,,,,,,,,,,,,,,,,,,,,,,,,,,,,,,,,,,,,,,,,,,,,,,,,,,,,,,,,,,,,,,,,,,,,,,,,,,,,,,,,,,,,,,,,,,,,,,
,,,,,,,,,,stimuli/images/PICTURE_297.png,BODY,5ef367aa3b28ea0a3aad67ba,03/05/1953,2020-09-03_19h45.00.811,proactive2,2020.1.2,Win32,60,5f5126bb654d4b30ee6923d8,5f513922984fc83356efe48f,1,,,,,,aeroplane,,,,,,0,19,19,51,1,6,2,,,,,,,,,,,,,,,,,,,,,,,,,,,,,,,,,,,,,,,,,,,,,,,,,,,,,,,,,,,,,,,,,,,,,,,,,,,,,,,,,,,,,,,,,,,,,,,,,,,
,,,,,,,,,,stimuli/images/PICTURE_405.png,JUNGLE,5ef367aa3b28ea0a3aad67ba,03/05/1953,2020-09-03_19h45.00.811,proactive2,2020.1.2,Win32,60,5f5126bb654d4b30ee6923d8,5f513922984fc83356efe48f,1,,,,,,anchor,,,,,,0,20,20,13,1,2,2,,,,,,,,,,,,,,,,,,,,,,,,,,,,,,,,,,,,,,,,,,,,,,,,,,,,,,,,,,,,,,,,,,,,,,,,,,,,,,,,,,,,,,,,,,,,,,,,,,,
,,,,,,,,,,stimuli/images/PICTURE_692.png,DUDE,5ef367aa3b28ea0a3aad67ba,03/05/1953,2020-09-03_19h45.00.811,proactive2,2020.1.2,Win32,60,5f5126bb654d4b30ee6923d8,5f513922984fc83356efe48f,1,,,,,,cherry,,,,,,0,21,21,47,1,5,2,,,,,,,,,,,,,,,,,,,,,,,,,,,,,,,,,,,,,,,,,,,,,,,,,,,,,,,,,,,,,,,,,,,,,,,,,,,,,,,,,,,,,,,,,,,,,,,,,,,
,,,,,,,,,,stimuli/images/PICTURE_405.png,HOUSE,5ef367aa3b28ea0a3aad67ba,03/05/1953,2020-09-03_19h45.00.811,proactive2,2020.1.2,Win32,60,5f5126bb654d4b30ee6923d8,5f513922984fc83356efe48f,1,,,,,,anchor,,,,,,0,22,22,2,1,1,2,,,,,,,,,,,,,,,,,,,,,,,,,,,,,,,,,,,,,,,,,,,,,,,,,,,,,,,,,,,,,,,,,,,,,,,,,,,,,,,,,,,,,,,,,,,,,,,,,,,
,,,,,,,,,,stimuli/images/PICTURE_655.png,SALE,5ef367aa3b28ea0a3aad67ba,03/05/1953,2020-09-03_19h45.00.811,proactive2,2020.1.2,Win32,60,5f5126bb654d4b30ee6923d8,5f513922984fc83356efe48f,1,,,,,,megaphone,,,,,,0,23,23,57,1,6,2,,,,,,,,,,,,,,,,,,,,,,,,,,,,,,,,,,,,,,,,,,,,,,,,,,,,,,,,,,,,,,,,,,,,,,,,,,,,,,,,,,,,,,,,,,,,,,,,,,,
,,,,,,,,,,stimuli/images/PICTURE_285.png,PRINCE,5ef367aa3b28ea0a3aad67ba,03/05/1953,2020-09-03_19h45.00.811,proactive2,2020.1.2,Win32,60,5f5126bb654d4b30ee6923d8,5f513922984fc83356efe48f,1,,,,,,carrot,,,,,,0,24,24,20,1,3,2,,,,,,,,,,,,,,,,,,,,,,,,,,,,,,,,,,,,,,,,,,,,,,,,,,,,,,,,,,,,,,,,,,,,,,,,,,,,,,,,,,,,,,,,,,,,,,,,,,,
,,,,,,,,,,stimuli/images/PICTURE_509.png,APPLE,5ef367aa3b28ea0a3aad67ba,03/05/1953,2020-09-03_19h45.00.811,proactive2,2020.1.2,Win32,60,5f5126bb654d4b30ee6923d8,5f513922984fc83356efe48f,1,,,,,,telephone,,,,,,0,25,25,38,1,4,2,,,,,,,,,,,,,,,,,,,,,,,,,,,,,,,,,,,,,,,,,,,,,,,,,,,,,,,,,,,,,,,,,,,,,,,,,,,,,,,,,,,,,,,,,,,,,,,,,,,
,,,,,,,,,,stimuli/images/PICTURE_688.png,CLOCK,5ef367aa3b28ea0a3aad67ba,03/05/1953,2020-09-03_19h45.00.811,proactive2,2020.1.2,Win32,60,5f5126bb654d4b30ee6923d8,5f513922984fc83356efe48f,1,,,,,,runner,,,,,,0,26,26,42,1,5,2,,,,,,,,,,,,,,,,,,,,,,,,,,,,,,,,,,,,,,,,,,,,,,,,,,,,,,,,,,,,,,,,,,,,,,,,,,,,,,,,,,,,,,,,,,,,,,,,,,,
,,,,,,,,,,stimuli/images/PICTURE_68.png,KIND,5ef367aa3b28ea0a3aad67ba,03/05/1953,2020-09-03_19h45.00.811,proactive2,2020.1.2,Win32,60,5f5126bb654d4b30ee6923d8,5f513922984fc83356efe48f,1,,,,,,candle,,,,,,0,27,27,23,1,3,2,,,,,,,,,,,,,,,,,,,,,,,,,,,,,,,,,,,,,,,,,,,,,,,,,,,,,,,,,,,,,,,,,,,,,,,,,,,,,,,,,,,,,,,,,,,,,,,,,,,
,,,,,,,,,,stimuli/images/PICTURE_311.png,FLESH,5ef367aa3b28ea0a3aad67ba,03/05/1953,2020-09-03_19h45.00.811,proactive2,2020.1.2,Win32,60,5f5126bb654d4b30ee6923d8,5f513922984fc83356efe48f,1,,,,,,razor,,,,,,0,28,28,3,1,1,2,,,,,,,,,,,,,,,,,,,,,,,,,,,,,,,,,,,,,,,,,,,,,,,,,,,,,,,,,,,,,,,,,,,,,,,,,,,,,,,,,,,,,,,,,,,,,,,,,,,
,,,,,,,,,,stimuli/images/PICTURE_215.png,LEADER,5ef367aa3b28ea0a3aad67ba,03/05/1953,2020-09-03_19h45.00.811,proactive2,2020.1.2,Win32,60,5f5126bb654d4b30ee6923d8,5f513922984fc83356efe48f,1,,,,,,boot,,,,,,0,29,29,43,1,5,2,,,,,,,,,,,,,,,,,,,,,,,,,,,,,,,,,,,,,,,,,,,,,,,,,,,,,,,,,,,,,,,,,,,,,,,,,,,,,,,,,,,,,,,,,,,,,,,,,,,
,,,,,,,,,,stimuli/images/PICTURE_677.png,FAMILY,5ef367aa3b28ea0a3aad67ba,03/05/1953,2020-09-03_19h45.00.811,proactive2,2020.1.2,Win32,60,5f5126bb654d4b30ee6923d8,5f513922984fc83356efe48f,1,,,,,,map,,,,,,0,30,30,53,1,6,2,,,,,,,,,,,,,,,,,,,,,,,,,,,,,,,,,,,,,,,,,,,,,,,,,,,,,,,,,,,,,,,,,,,,,,,,,,,,,,,,,,,,,,,,,,,,,,,,,,,
,,,,,,,,,,stimuli/images/PICTURE_487.png,ROOF,5ef367aa3b28ea0a3aad67ba,03/05/1953,2020-09-03_19h45.00.811,proactive2,2020.1.2,Win32,60,5f5126bb654d4b30ee6923d8,5f513922984fc83356efe48f,1,,,,,,basket,,,,,,0,31,31,50,1,6,2,,,,,,,,,,,,,,,,,,,,,,,,,,,,,,,,,,,,,,,,,,,,,,,,,,,,,,,,,,,,,,,,,,,,,,,,,,,,,,,,,,,,,,,,,,,,,,,,,,,
,,,,,,,,,,stimuli/images/PICTURE_314.png,SPEECH,5ef367aa3b28ea0a3aad67ba,03/05/1953,2020-09-03_19h45.00.811,proactive2,2020.1.2,Win32,60,5f5126bb654d4b30ee6923d8,5f513922984fc83356efe48f,1,,,,,,perfume,,,,,,0,32,32,35,1,4,2,,,,,,,,,,,,,,,,,,,,,,,,,,,,,,,,,,,,,,,,,,,,,,,,,,,,,,,,,,,,,,,,,,,,,,,,,,,,,,,,,,,,,,,,,,,,,,,,,,,
,,,,,,,,,,stimuli/images/PICTURE_491.png,SERIES,5ef367aa3b28ea0a3aad67ba,03/05/1953,2020-09-03_19h45.00.811,proactive2,2020.1.2,Win32,60,5f5126bb654d4b30ee6923d8,5f513922984fc83356efe48f,1,,,,,,rug,,,,,,0,33,33,39,1,4,2,,,,,,,,,,,,,,,,,,,,,,,,,,,,,,,,,,,,,,,,,,,,,,,,,,,,,,,,,,,,,,,,,,,,,,,,,,,,,,,,,,,,,,,,,,,,,,,,,,,
,,,,,,,,,,stimuli/images/PICTURE_564.png,PLENTY,5ef367aa3b28ea0a3aad67ba,03/05/1953,2020-09-03_19h45.00.811,proactive2,2020.1.2,Win32,60,5f5126bb654d4b30ee6923d8,5f513922984fc83356efe48f,1,,,,,,spoon,,,,,,0,34,34,11,1,2,2,,,,,,,,,,,,,,,,,,,,,,,,,,,,,,,,,,,,,,,,,,,,,,,,,,,,,,,,,,,,,,,,,,,,,,,,,,,,,,,,,,,,,,,,,,,,,,,,,,,
,,,,,,,,,,stimuli/images/PICTURE_750.png,POLICY,5ef367aa3b28ea0a3aad67ba,03/05/1953,2020-09-03_19h45.00.811,proactive2,2020.1.2,Win32,60,5f5126bb654d4b30ee6923d8,5f513922984fc83356efe48f,1,,,,,,kettle,,,,,,0,35,35,44,1,5,2,,,,,,,,,,,,,,,,,,,,,,,,,,,,,,,,,,,,,,,,,,,,,,,,,,,,,,,,,,,,,,,,,,,,,,,,,,,,,,,,,,,,,,,,,,,,,,,,,,,
,,,,,,,,,,stimuli/images/PICTURE_32.png,LETTER,5ef367aa3b28ea0a3aad67ba,03/05/1953,2020-09-03_19h45.00.811,proactive2,2020.1.2,Win32,60,5f5126bb654d4b30ee6923d8,5f513922984fc83356efe48f,1,,,,,,crown,,,,,,0,36,36,56,1,6,2,,,,,,,,,,,,,,,,,,,,,,,,,,,,,,,,,,,,,,,,,,,,,,,,,,,,,,,,,,,,,,,,,,,,,,,,,,,,,,,,,,,,,,,,,,,,,,,,,,,
,,,,,,,,,,stimuli/images/PICTURE_470.png,MOMENT,5ef367aa3b28ea0a3aad67ba,03/05/1953,2020-09-03_19h45.00.811,proactive2,2020.1.2,Win32,60,5f5126bb654d4b30ee6923d8,5f513922984fc83356efe48f,1,,,,,,motorbike,,,,,,0,37,37,40,1,5,2,,,,,,,,,,,,,,,,,,,,,,,,,,,,,,,,,,,,,,,,,,,,,,,,,,,,,,,,,,,,,,,,,,,,,,,,,,,,,,,,,,,,,,,,,,,,,,,,,,,
,,,,,,,,,,stimuli/images/PICTURE_215.png,BOYS,5ef367aa3b28ea0a3aad67ba,03/05/1953,2020-09-03_19h45.00.811,proactive2,2020.1.2,Win32,60,5f5126bb654d4b30ee6923d8,5f513922984fc83356efe48f,1,,,,,,boot,,,,,,0,38,38,24,1,3,2,,,,,,,,,,,,,,,,,,,,,,,,,,,,,,,,,,,,,,,,,,,,,,,,,,,,,,,,,,,,,,,,,,,,,,,,,,,,,,,,,,,,,,,,,,,,,,,,,,,
,,,,,,,,,,stimuli/images/PICTURE_667.png,GLASS,5ef367aa3b28ea0a3aad67ba,03/05/1953,2020-09-03_19h45.00.811,proactive2,2020.1.2,Win32,60,5f5126bb654d4b30ee6923d8,5f513922984fc83356efe48f,1,,,,,,daisy,,,,,,0,39,39,27,1,3,2,,,,,,,,,,,,,,,,,,,,,,,,,,,,,,,,,,,,,,,,,,,,,,,,,,,,,,,,,,,,,,,,,,,,,,,,,,,,,,,,,,,,,,,,,,,,,,,,,,,
,,,,,,,,,,stimuli/images/PICTURE_509.png,MILLER,5ef367aa3b28ea0a3aad67ba,03/05/1953,2020-09-03_19h45.00.811,proactive2,2020.1.2,Win32,60,5f5126bb654d4b30ee6923d8,5f513922984fc83356efe48f,1,,,,,,telephone,,,,,,0,40,40,49,1,5,2,,,,,,,,,,,,,,,,,,,,,,,,,,,,,,,,,,,,,,,,,,,,,,,,,,,,,,,,,,,,,,,,,,,,,,,,,,,,,,,,,,,,,,,,,,,,,,,,,,,
,,,,,,,,,,stimuli/images/PICTURE_215.png,FOOD,5ef367aa3b28ea0a3aad67ba,03/05/1953,2020-09-03_19h45.00.811,proactive2,2020.1.2,Win32,60,5f5126bb654d4b30ee6923d8,5f513922984fc83356efe48f,1,,,,,,boot,,,,,,0,41,41,5,1,1,2,,,,,,,,,,,,,,,,,,,,,,,,,,,,,,,,,,,,,,,,,,,,,,,,,,,,,,,,,,,,,,,,,,,,,,,,,,,,,,,,,,,,,,,,,,,,,,,,,,,
,,,,,,,,,,stimuli/images/PICTURE_208.png,SPIRIT,5ef367aa3b28ea0a3aad67ba,03/05/1953,2020-09-03_19h45.00.811,proactive2,2020.1.2,Win32,60,5f5126bb654d4b30ee6923d8,5f513922984fc83356efe48f,1,,,,,,microphone,,,,,,0,42,42,28,1,3,2,,,,,,,,,,,,,,,,,,,,,,,,,,,,,,,,,,,,,,,,,,,,,,,,,,,,,,,,,,,,,,,,,,,,,,,,,,,,,,,,,,,,,,,,,,,,,,,,,,,
,,,,,,,,,,stimuli/images/PICTURE_123.png,SALE,5ef367aa3b28ea0a3aad67ba,03/05/1953,2020-09-03_19h45.00.811,proactive2,2020.1.2,Win32,60,5f5126bb654d4b30ee6923d8,5f513922984fc83356efe48f,1,,,,,,dart,,,,,,0,43,43,8,1,1,2,,,,,,,,,,,,,,,,,,,,,,,,,,,,,,,,,,,,,,,,,,,,,,,,,,,,,,,,,,,,,,,,,,,,,,,,,,,,,,,,,,,,,,,,,,,,,,,,,,,
,,,,,,,,,,stimuli/images/PICTURE_708.png,VALLEY,5ef367aa3b28ea0a3aad67ba,03/05/1953,2020-09-03_19h45.00.811,proactive2,2020.1.2,Win32,60,5f5126bb654d4b30ee6923d8,5f513922984fc83356efe48f,1,,,,,,monkey,,,,,,0,44,44,45,1,5,2,,,,,,,,,,,,,,,,,,,,,,,,,,,,,,,,,,,,,,,,,,,,,,,,,,,,,,,,,,,,,,,,,,,,,,,,,,,,,,,,,,,,,,,,,,,,,,,,,,,
,,,,,,,,,,stimuli/images/PICTURE_255.png,PENNY,5ef367aa3b28ea0a3aad67ba,03/05/1953,2020-09-03_19h45.00.811,proactive2,2020.1.2,Win32,60,5f5126bb654d4b30ee6923d8,5f513922984fc83356efe48f,1,,,,,,shovel,,,,,,0,45,45,19,1,2,2,,,,,,,,,,,,,,,,,,,,,,,,,,,,,,,,,,,,,,,,,,,,,,,,,,,,,,,,,,,,,,,,,,,,,,,,,,,,,,,,,,,,,,,,,,,,,,,,,,,
,,,,,,,,,,stimuli/images/PICTURE_487.png,POLICY,5ef367aa3b28ea0a3aad67ba,03/05/1953,2020-09-03_19h45.00.811,proactive2,2020.1.2,Win32,60,5f5126bb654d4b30ee6923d8,5f513922984fc83356efe48f,1,,,,,,basket,,,,,,0,46,46,34,1,4,2,,,,,,,,,,,,,,,,,,,,,,,,,,,,,,,,,,,,,,,,,,,,,,,,,,,,,,,,,,,,,,,,,,,,,,,,,,,,,,,,,,,,,,,,,,,,,,,,,,,
,,,,,,,,,,stimuli/images/PICTURE_2.png,JUNGLE,5ef367aa3b28ea0a3aad67ba,03/05/1953,2020-09-03_19h45.00.811,proactive2,2020.1.2,Win32,60,5f5126bb654d4b30ee6923d8,5f513922984fc83356efe48f,1,,,,,,tyre,,,,,,0,47,47,1,1,1,2,,,,,,,,,,,,,,,,,,,,,,,,,,,,,,,,,,,,,,,,,,,,,,,,,,,,,,,,,,,,,,,,,,,,,,,,,,,,,,,,,,,,,,,,,,,,,,,,,,,
,,,,,,,,,,stimuli/images/PICTURE_509.png,SHOTS,5ef367aa3b28ea0a3aad67ba,03/05/1953,2020-09-03_19h45.00.811,proactive2,2020.1.2,Win32,60,5f5126bb654d4b30ee6923d8,5f513922984fc83356efe48f,1,,,,,,telephone,,,,,,0,48,48,7,1,1,2,,,,,,,,,,,,,,,,,,,,,,,,,,,,,,,,,,,,,,,,,,,,,,,,,,,,,,,,,,,,,,,,,,,,,,,,,,,,,,,,,,,,,,,,,,,,,,,,,,,
,,,,,,,,,,stimuli/images/PICTURE_57.png,NATION,5ef367aa3b28ea0a3aad67ba,03/05/1953,2020-09-03_19h45.00.811,proactive2,2020.1.2,Win32,60,5f5126bb654d4b30ee6923d8,5f513922984fc83356efe48f,1,,,,,,stamp,,,,,,0,49,49,21,1,3,2,,,,,,,,,,,,,,,,,,,,,,,,,,,,,,,,,,,,,,,,,,,,,,,,,,,,,,,,,,,,,,,,,,,,,,,,,,,,,,,,,,,,,,,,,,,,,,,,,,,
,,,,,,,,,,stimuli/images/PICTURE_504.png,HOUSE,5ef367aa3b28ea0a3aad67ba,03/05/1953,2020-09-03_19h45.00.811,proactive2,2020.1.2,Win32,60,5f5126bb654d4b30ee6923d8,5f513922984fc83356efe48f,1,,,,,,wheel,,,,,,0,50,50,36,1,4,2,,,,,,,,,,,,,,,,,,,,,,,,,,,,,,,,,,,,,,,,,,,,,,,,,,,,,,,,,,,,,,,,,,,,,,,,,,,,,,,,,,,,,,,,,,,,,,,,,,,
,,,,,,,,,,stimuli/images/PICTURE_2.png,YARD,5ef367aa3b28ea0a3aad67ba,03/05/1953,2020-09-03_19h45.00.811,proactive2,2020.1.2,Win32,60,5f5126bb654d4b30ee6923d8,5f513922984fc83356efe48f,1,,,,,,tyre,,,,,,0,51,51,55,1,6,2,,,,,,,,,,,,,,,,,,,,,,,,,,,,,,,,,,,,,,,,,,,,,,,,,,,,,,,,,,,,,,,,,,,,,,,,,,,,,,,,,,,,,,,,,,,,,,,,,,,
