consent_key.keys,consent_key.rt,recalled,recalled_rt,recall_acc,example_recall.thisRepN,example_recall.thisTrialN,example_recall.thisN,example_recall.thisIndex,example_recall.ran,file,word,participant,please enter your date of birth (dd/mm/yyyy),date,expName,psychopyVersion,OS,frameRate,STUDY_ID,SESSION_ID,list,prac_learn_study_loop.thisRepN,prac_learn_study_loop.thisTrialN,prac_learn_study_loop.thisN,prac_learn_study_loop.thisIndex,prac_learn_study_loop.ran,image,prac_learn_test_loop.thisRepN,prac_learn_test_loop.thisTrialN,prac_learn_test_loop.thisN,prac_learn_test_loop.thisIndex,prac_learn_test_loop.ran,learn_study_loop.thisRepN,learn_study_loop.thisTrialN,learn_study_loop.thisN,learn_study_loop.thisIndex,learn_study_loop.ran,list_no,block_no,learn_test_loop.thisRepN,learn_test_loop.thisTrialN,learn_test_loop.thisN,learn_test_loop.thisIndex,learn_test_loop.ran,learn_blocks.thisRepN,learn_blocks.thisTrialN,learn_blocks.thisN,learn_blocks.thisIndex,learn_blocks.ran,block_csv,key_resp_13.keys,key_resp_13.rt,learn_blocks_loop.thisRepN,learn_blocks_loop.thisTrialN,learn_blocks_loop.thisN,learn_blocks_loop.thisIndex,learn_blocks_loop.ran,final_learn_test.thisRepN,final_learn_test.thisTrialN,final_learn_test.thisN,final_learn_test.thisIndex,final_learn_test.ran,s_im1,s_im2,s_im3,s_im4,s_im5,s_im6,s_im7,s_im8,s_im1pos,s_im2pos,s_im3pos,s_im4pos,s_im5pos,s_im6pos,s_im7pos,s_im8pos,s_tarright,search_resp.keys,search_resp.rt,search_loop.thisRepN,search_loop.thisTrialN,search_loop.thisN,search_loop.thisIndex,search_loop.ran,prac_wm_test_loop.thisRepN,prac_wm_test_loop.thisTrialN,prac_wm_test_loop.thisN,prac_wm_test_loop.thisIndex,prac_wm_test_loop.ran,wm_recalled1,wm_recall_rt1,wm_probed1,wm_recall_acc1,wm_recalled2,wm_recall_rt2,wm_probed2,wm_recall_acc2,wm_recalled3,wm_recall_rt3,wm_probed3,wm_recall_acc3,wm_recalled4,wm_recall_rt4,wm_probed4,wm_recall_acc4,prac_wm_trial_loop.thisRepN,prac_wm_trial_loop.thisTrialN,prac_wm_trial_loop.thisN,prac_wm_trial_loop.thisIndex,prac_wm_trial_loop.ran,word1,image1,file1,item_type1,word2,image2,file2,item_type2,word4,image4,file4,item_type4,word3,image3,file3,item_type3,wm_test_loop.thisRepN,wm_test_loop.thisTrialN,wm_test_loop.thisN,wm_test_loop.thisIndex,wm_test_loop.ran,wm_trial_loop.thisRepN,wm_trial_loop.thisTrialN,wm_trial_loop.thisN,wm_trial_loop.thisIndex,wm_trial_loop.ran
y,21.753785,TOUGH,8.60465,1,0,0,0,0,1,stimuli/images/PICTURE_747.png,TOUGH,5ef37e2ca184db0e6896d19b,07/07/1955,2020-09-03_22h28.34.430,proactive2,2020.1.2,Win32,60,5f5126bb654d4b30ee6923d8,5f5137e2a80f5b33f40550ae,4,,,,,,,,,,,,,,,,,,,,,,,,,,,,,,,,,,,,,,,,,,,,,,,,,,,,,,,,,,,,,,,,,,,,,,,,,,,,,,,,,,,,,,,,,,,,,,,,,,,,,,,,,,,,,,,,,,,,,
,,,,,,,,,,stimuli/images/PICTURE_378.png,LOSS,5ef37e2ca184db0e6896d19b,07/07/1955,2020-09-03_22h28.34.430,proactive2,2020.1.2,Win32,60,5f5126bb654d4b30ee6923d8,5f5137e2a80f5b33f40550ae,4,0,0,0,2,1,lobster,,,,,,,,,,,,,,,,,,,,,,,,,,,,,,,,,,,,,,,,,,,,,,,,,,,,,,,,,,,,,,,,,,,,,,,,,,,,,,,,,,,,,,,,,,,,,,,,,,,,,,,,,,,,,,,
,,,,,,,,,,stimuli/images/PICTURE_727.png,CELL,5ef37e2ca184db0e6896d19b,07/07/1955,2020-09-03_22h28.34.430,proactive2,2020.1.2,Win32,60,5f5126bb654d4b30ee6923d8,5f5137e2a80f5b33f40550ae,4,0,1,1,1,1,hose,,,,,,,,,,,,,,,,,,,,,,,,,,,,,,,,,,,,,,,,,,,,,,,,,,,,,,,,,,,,,,,,,,,,,,,,,,,,,,,,,,,,,,,,,,,,,,,,,,,,,,,,,,,,,,,
,,,,,,,,,,stimuli/images/PICTURE_697.png,KILLER,5ef37e2ca184db0e6896d19b,07/07/1955,2020-09-03_22h28.34.430,proactive2,2020.1.2,Win32,60,5f5126bb654d4b30ee6923d8,5f5137e2a80f5b33f40550ae,4,0,2,2,4,1,peach,,,,,,,,,,,,,,,,,,,,,,,,,,,,,,,,,,,,,,,,,,,,,,,,,,,,,,,,,,,,,,,,,,,,,,,,,,,,,,,,,,,,,,,,,,,,,,,,,,,,,,,,,,,,,,,
,,,,,,,,,,stimuli/images/PICTURE_658.png,DEVIL,5ef37e2ca184db0e6896d19b,07/07/1955,2020-09-03_22h28.34.430,proactive2,2020.1.2,Win32,60,5f5126bb654d4b30ee6923d8,5f5137e2a80f5b33f40550ae,4,0,3,3,3,1,crow,,,,,,,,,,,,,,,,,,,,,,,,,,,,,,,,,,,,,,,,,,,,,,,,,,,,,,,,,,,,,,,,,,,,,,,,,,,,,,,,,,,,,,,,,,,,,,,,,,,,,,,,,,,,,,,
,,GENIUS,4.32593,1,,,,,,stimuli/images/PICTURE_269.png,GENIUS,5ef37e2ca184db0e6896d19b,07/07/1955,2020-09-03_22h28.34.430,proactive2,2020.1.2,Win32,60,5f5126bb654d4b30ee6923d8,5f5137e2a80f5b33f40550ae,4,,,,,,chameleon,0,0,0,0,1,,,,,,,,,,,,,,,,,,,,,,,,,,,,,,,,,,,,,,,,,,,,,,,,,,,,,,,,,,,,,,,,,,,,,,,,,,,,,,,,,,,,,,,,,,,,,,,,,,,,,,,,,,
,,LOSS,15.01041,1,,,,,,stimuli/images/PICTURE_378.png,LOSS,5ef37e2ca184db0e6896d19b,07/07/1955,2020-09-03_22h28.34.430,proactive2,2020.1.2,Win32,60,5f5126bb654d4b30ee6923d8,5f5137e2a80f5b33f40550ae,4,,,,,,lobster,0,1,1,2,1,,,,,,,,,,,,,,,,,,,,,,,,,,,,,,,,,,,,,,,,,,,,,,,,,,,,,,,,,,,,,,,,,,,,,,,,,,,,,,,,,,,,,,,,,,,,,,,,,,,,,,,,,,
,,CLEAN,15.010725,0,,,,,,stimuli/images/PICTURE_727.png,CELL,5ef37e2ca184db0e6896d19b,07/07/1955,2020-09-03_22h28.34.430,proactive2,2020.1.2,Win32,60,5f5126bb654d4b30ee6923d8,5f5137e2a80f5b33f40550ae,4,,,,,,hose,0,2,2,1,1,,,,,,,,,,,,,,,,,,,,,,,,,,,,,,,,,,,,,,,,,,,,,,,,,,,,,,,,,,,,,,,,,,,,,,,,,,,,,,,,,,,,,,,,,,,,,,,,,,,,,,,,,,
,,KILLER,15.0108,1,,,,,,stimuli/images/PICTURE_697.png,KILLER,5ef37e2ca184db0e6896d19b,07/07/1955,2020-09-03_22h28.34.430,proactive2,2020.1.2,Win32,60,5f5126bb654d4b30ee6923d8,5f5137e2a80f5b33f40550ae,4,,,,,,peach,0,3,3,4,1,,,,,,,,,,,,,,,,,,,,,,,,,,,,,,,,,,,,,,,,,,,,,,,,,,,,,,,,,,,,,,,,,,,,,,,,,,,,,,,,,,,,,,,,,,,,,,,,,,,,,,,,,,
,,DEVIL,15.011,1,,,,,,stimuli/images/PICTURE_658.png,DEVIL,5ef37e2ca184db0e6896d19b,07/07/1955,2020-09-03_22h28.34.430,proactive2,2020.1.2,Win32,60,5f5126bb654d4b30ee6923d8,5f5137e2a80f5b33f40550ae,4,,,,,,crow,0,4,4,3,1,,,,,,,,,,,,,,,,,,,,,,,,,,,,,,,,,,,,,,,,,,,,,,,,,,,,,,,,,,,,,,,,,,,,,,,,,,,,,,,,,,,,,,,,,,,,,,,,,,,,,,,,,,
,,,,,,,,,,stimuli/images/PICTURE_123.png,ADVICE,5ef37e2ca184db0e6896d19b,07/07/1955,2020-09-03_22h28.34.430,proactive2,2020.1.2,Win32,60,5f5126bb654d4b30ee6923d8,5f5137e2a80f5b33f40550ae,4,,,,,,dart,,,,,,0,0,0,50,1,6,0,,,,,,,,,,,,,,,,,,,,,,,,,,,,,,,,,,,,,,,,,,,,,,,,,,,,,,,,,,,,,,,,,,,,,,,,,,,,,,,,,,,,,,,,,,,,,,,,,,,
,,,,,,,,,,stimuli/images/PICTURE_380.png,DEATH,5ef37e2ca184db0e6896d19b,07/07/1955,2020-09-03_22h28.34.430,proactive2,2020.1.2,Win32,60,5f5126bb654d4b30ee6923d8,5f5137e2a80f5b33f40550ae,4,,,,,,gorilla,,,,,,0,1,1,49,1,5,0,,,,,,,,,,,,,,,,,,,,,,,,,,,,,,,,,,,,,,,,,,,,,,,,,,,,,,,,,,,,,,,,,,,,,,,,,,,,,,,,,,,,,,,,,,,,,,,,,,,
,,,,,,,,,,stimuli/images/PICTURE_488.png,STYLE,5ef37e2ca184db0e6896d19b,07/07/1955,2020-09-03_22h28.34.430,proactive2,2020.1.2,Win32,60,5f5126bb654d4b30ee6923d8,5f5137e2a80f5b33f40550ae,4,,,,,,sun,,,,,,0,2,2,33,1,4,0,,,,,,,,,,,,,,,,,,,,,,,,,,,,,,,,,,,,,,,,,,,,,,,,,,,,,,,,,,,,,,,,,,,,,,,,,,,,,,,,,,,,,,,,,,,,,,,,,,,
,,,,,,,,,,stimuli/images/PICTURE_467.png,DEMON,5ef37e2ca184db0e6896d19b,07/07/1955,2020-09-03_22h28.34.430,proactive2,2020.1.2,Win32,60,5f5126bb654d4b30ee6923d8,5f5137e2a80f5b33f40550ae,4,,,,,,peg,,,,,,0,3,3,23,1,3,0,,,,,,,,,,,,,,,,,,,,,,,,,,,,,,,,,,,,,,,,,,,,,,,,,,,,,,,,,,,,,,,,,,,,,,,,,,,,,,,,,,,,,,,,,,,,,,,,,,,
,,,,,,,,,,stimuli/images/PICTURE_708.png,YARD,5ef37e2ca184db0e6896d19b,07/07/1955,2020-09-03_22h28.34.430,proactive2,2020.1.2,Win32,60,5f5126bb654d4b30ee6923d8,5f5137e2a80f5b33f40550ae,4,,,,,,monkey,,,,,,0,4,4,29,1,3,0,,,,,,,,,,,,,,,,,,,,,,,,,,,,,,,,,,,,,,,,,,,,,,,,,,,,,,,,,,,,,,,,,,,,,,,,,,,,,,,,,,,,,,,,,,,,,,,,,,,
,,,,,,,,,,stimuli/images/PICTURE_667.png,PLENTY,5ef37e2ca184db0e6896d19b,07/07/1955,2020-09-03_22h28.34.430,proactive2,2020.1.2,Win32,60,5f5126bb654d4b30ee6923d8,5f5137e2a80f5b33f40550ae,4,,,,,,daisy,,,,,,0,5,5,41,1,5,0,,,,,,,,,,,,,,,,,,,,,,,,,,,,,,,,,,,,,,,,,,,,,,,,,,,,,,,,,,,,,,,,,,,,,,,,,,,,,,,,,,,,,,,,,,,,,,,,,,,
,,,,,,,,,,stimuli/images/PICTURE_667.png,BATH,5ef37e2ca184db0e6896d19b,07/07/1955,2020-09-03_22h28.34.430,proactive2,2020.1.2,Win32,60,5f5126bb654d4b30ee6923d8,5f5137e2a80f5b33f40550ae,4,,,,,,daisy,,,,,,0,6,6,4,1,1,0,,,,,,,,,,,,,,,,,,,,,,,,,,,,,,,,,,,,,,,,,,,,,,,,,,,,,,,,,,,,,,,,,,,,,,,,,,,,,,,,,,,,,,,,,,,,,,,,,,,
,,,,,,,,,,stimuli/images/PICTURE_208.png,LOTS,5ef37e2ca184db0e6896d19b,07/07/1955,2020-09-03_22h28.34.430,proactive2,2020.1.2,Win32,60,5f5126bb654d4b30ee6923d8,5f5137e2a80f5b33f40550ae,4,,,,,,microphone,,,,,,0,7,7,10,1,2,0,,,,,,,,,,,,,,,,,,,,,,,,,,,,,,,,,,,,,,,,,,,,,,,,,,,,,,,,,,,,,,,,,,,,,,,,,,,,,,,,,,,,,,,,,,,,,,,,,,,
,,,,,,,,,,stimuli/images/PICTURE_314.png,SAKE,5ef37e2ca184db0e6896d19b,07/07/1955,2020-09-03_22h28.34.430,proactive2,2020.1.2,Win32,60,5f5126bb654d4b30ee6923d8,5f5137e2a80f5b33f40550ae,4,,,,,,perfume,,,,,,0,8,8,7,1,1,0,,,,,,,,,,,,,,,,,,,,,,,,,,,,,,,,,,,,,,,,,,,,,,,,,,,,,,,,,,,,,,,,,,,,,,,,,,,,,,,,,,,,,,,,,,,,,,,,,,,
,,,,,,,,,,stimuli/images/PICTURE_255.png,AREA,5ef37e2ca184db0e6896d19b,07/07/1955,2020-09-03_22h28.34.430,proactive2,2020.1.2,Win32,60,5f5126bb654d4b30ee6923d8,5f5137e2a80f5b33f40550ae,4,,,,,,shovel,,,,,,0,9,9,22,1,3,0,,,,,,,,,,,,,,,,,,,,,,,,,,,,,,,,,,,,,,,,,,,,,,,,,,,,,,,,,,,,,,,,,,,,,,,,,,,,,,,,,,,,,,,,,,,,,,,,,,,
,,,,,,,,,,stimuli/images/PICTURE_708.png,CLIENT,5ef37e2ca184db0e6896d19b,07/07/1955,2020-09-03_22h28.34.430,proactive2,2020.1.2,Win32,60,5f5126bb654d4b30ee6923d8,5f5137e2a80f5b33f40550ae,4,,,,,,monkey,,,,,,0,10,10,5,1,1,0,,,,,,,,,,,,,,,,,,,,,,,,,,,,,,,,,,,,,,,,,,,,,,,,,,,,,,,,,,,,,,,,,,,,,,,,,,,,,,,,,,,,,,,,,,,,,,,,,,,
,,,,,,,,,,stimuli/images/PICTURE_708.png,PENNY,5ef37e2ca184db0e6896d19b,07/07/1955,2020-09-03_22h28.34.430,proactive2,2020.1.2,Win32,60,5f5126bb654d4b30ee6923d8,5f5137e2a80f5b33f40550ae,4,,,,,,monkey,,,,,,0,11,11,31,1,4,0,,,,,,,,,,,,,,,,,,,,,,,,,,,,,,,,,,,,,,,,,,,,,,,,,,,,,,,,,,,,,,,,,,,,,,,,,,,,,,,,,,,,,,,,,,,,,,,,,,,
,,,,,,,,,,stimuli/images/PICTURE_160.png,FEET,5ef37e2ca184db0e6896d19b,07/07/1955,2020-09-03_22h28.34.430,proactive2,2020.1.2,Win32,60,5f5126bb654d4b30ee6923d8,5f5137e2a80f5b33f40550ae,4,,,,,,wheelbarrow,,,,,,0,12,12,58,1,6,0,,,,,,,,,,,,,,,,,,,,,,,,,,,,,,,,,,,,,,,,,,,,,,,,,,,,,,,,,,,,,,,,,,,,,,,,,,,,,,,,,,,,,,,,,,,,,,,,,,,
,,,,,,,,,,stimuli/images/PICTURE_356.png,DANGER,5ef37e2ca184db0e6896d19b,07/07/1955,2020-09-03_22h28.34.430,proactive2,2020.1.2,Win32,60,5f5126bb654d4b30ee6923d8,5f5137e2a80f5b33f40550ae,4,,,,,,pawn,,,,,,0,13,13,55,1,6,0,,,,,,,,,,,,,,,,,,,,,,,,,,,,,,,,,,,,,,,,,,,,,,,,,,,,,,,,,,,,,,,,,,,,,,,,,,,,,,,,,,,,,,,,,,,,,,,,,,,
,,,,,,,,,,stimuli/images/PICTURE_285.png,ADVICE,5ef37e2ca184db0e6896d19b,07/07/1955,2020-09-03_22h28.34.430,proactive2,2020.1.2,Win32,60,5f5126bb654d4b30ee6923d8,5f5137e2a80f5b33f40550ae,4,,,,,,carrot,,,,,,0,14,14,12,1,2,0,,,,,,,,,,,,,,,,,,,,,,,,,,,,,,,,,,,,,,,,,,,,,,,,,,,,,,,,,,,,,,,,,,,,,,,,,,,,,,,,,,,,,,,,,,,,,,,,,,,
,,,,,,,,,,stimuli/images/PICTURE_470.png,CASINO,5ef37e2ca184db0e6896d19b,07/07/1955,2020-09-03_22h28.34.430,proactive2,2020.1.2,Win32,60,5f5126bb654d4b30ee6923d8,5f5137e2a80f5b33f40550ae,4,,,,,,motorbike,,,,,,0,15,15,36,1,4,0,,,,,,,,,,,,,,,,,,,,,,,,,,,,,,,,,,,,,,,,,,,,,,,,,,,,,,,,,,,,,,,,,,,,,,,,,,,,,,,,,,,,,,,,,,,,,,,,,,,
,,,,,,,,,,stimuli/images/PICTURE_215.png,PLENTY,5ef37e2ca184db0e6896d19b,07/07/1955,2020-09-03_22h28.34.430,proactive2,2020.1.2,Win32,60,5f5126bb654d4b30ee6923d8,5f5137e2a80f5b33f40550ae,4,,,,,,boot,,,,,,0,16,16,37,1,4,0,,,,,,,,,,,,,,,,,,,,,,,,,,,,,,,,,,,,,,,,,,,,,,,,,,,,,,,,,,,,,,,,,,,,,,,,,,,,,,,,,,,,,,,,,,,,,,,,,,,
,,,,,,,,,,stimuli/images/PICTURE_233.png,WOMEN,5ef37e2ca184db0e6896d19b,07/07/1955,2020-09-03_22h28.34.430,proactive2,2020.1.2,Win32,60,5f5126bb654d4b30ee6923d8,5f5137e2a80f5b33f40550ae,4,,,,,,salt,,,,,,0,17,17,38,1,4,0,,,,,,,,,,,,,,,,,,,,,,,,,,,,,,,,,,,,,,,,,,,,,,,,,,,,,,,,,,,,,,,,,,,,,,,,,,,,,,,,,,,,,,,,,,,,,,,,,,,
,,,,,,,,,,stimuli/images/PICTURE_453.png,PLENTY,5ef37e2ca184db0e6896d19b,07/07/1955,2020-09-03_22h28.34.430,proactive2,2020.1.2,Win32,60,5f5126bb654d4b30ee6923d8,5f5137e2a80f5b33f40550ae,4,,,,,,scissors,,,,,,0,18,18,56,1,6,0,,,,,,,,,,,,,,,,,,,,,,,,,,,,,,,,,,,,,,,,,,,,,,,,,,,,,,,,,,,,,,,,,,,,,,,,,,,,,,,,,,,,,,,,,,,,,,,,,,,
,,,,,,,,,,stimuli/images/PICTURE_688.png,WOMEN,5ef37e2ca184db0e6896d19b,07/07/1955,2020-09-03_22h28.34.430,proactive2,2020.1.2,Win32,60,5f5126bb654d4b30ee6923d8,5f5137e2a80f5b33f40550ae,4,,,,,,runner,,,,,,0,19,19,14,1,2,0,,,,,,,,,,,,,,,,,,,,,,,,,,,,,,,,,,,,,,,,,,,,,,,,,,,,,,,,,,,,,,,,,,,,,,,,,,,,,,,,,,,,,,,,,,,,,,,,,,,
,,,,,,,,,,stimuli/images/PICTURE_311.png,FRIEND,5ef37e2ca184db0e6896d19b,07/07/1955,2020-09-03_22h28.34.430,proactive2,2020.1.2,Win32,60,5f5126bb654d4b30ee6923d8,5f5137e2a80f5b33f40550ae,4,,,,,,razor,,,,,,0,20,20,34,1,4,0,,,,,,,,,,,,,,,,,,,,,,,,,,,,,,,,,,,,,,,,,,,,,,,,,,,,,,,,,,,,,,,,,,,,,,,,,,,,,,,,,,,,,,,,,,,,,,,,,,,
,,,,,,,,,,stimuli/images/PICTURE_449.png,THING,5ef37e2ca184db0e6896d19b,07/07/1955,2020-09-03_22h28.34.430,proactive2,2020.1.2,Win32,60,5f5126bb654d4b30ee6923d8,5f5137e2a80f5b33f40550ae,4,,,,,,bench,,,,,,0,21,21,59,1,6,0,,,,,,,,,,,,,,,,,,,,,,,,,,,,,,,,,,,,,,,,,,,,,,,,,,,,,,,,,,,,,,,,,,,,,,,,,,,,,,,,,,,,,,,,,,,,,,,,,,,
,,,,,,,,,,stimuli/images/PICTURE_327.png,BEAUTY,5ef37e2ca184db0e6896d19b,07/07/1955,2020-09-03_22h28.34.430,proactive2,2020.1.2,Win32,60,5f5126bb654d4b30ee6923d8,5f5137e2a80f5b33f40550ae,4,,,,,,helmet,,,,,,0,22,22,48,1,5,0,,,,,,,,,,,,,,,,,,,,,,,,,,,,,,,,,,,,,,,,,,,,,,,,,,,,,,,,,,,,,,,,,,,,,,,,,,,,,,,,,,,,,,,,,,,,,,,,,,,
,,,,,,,,,,stimuli/images/PICTURE_348.png,SPEECH,5ef37e2ca184db0e6896d19b,07/07/1955,2020-09-03_22h28.34.430,proactive2,2020.1.2,Win32,60,5f5126bb654d4b30ee6923d8,5f5137e2a80f5b33f40550ae,4,,,,,,pepper,,,,,,0,23,23,20,1,3,0,,,,,,,,,,,,,,,,,,,,,,,,,,,,,,,,,,,,,,,,,,,,,,,,,,,,,,,,,,,,,,,,,,,,,,,,,,,,,,,,,,,,,,,,,,,,,,,,,,,
,,,,,,,,,,stimuli/images/PICTURE_692.png,MONTH,5ef37e2ca184db0e6896d19b,07/07/1955,2020-09-03_22h28.34.430,proactive2,2020.1.2,Win32,60,5f5126bb654d4b30ee6923d8,5f5137e2a80f5b33f40550ae,4,,,,,,cherry,,,,,,0,24,24,16,1,2,0,,,,,,,,,,,,,,,,,,,,,,,,,,,,,,,,,,,,,,,,,,,,,,,,,,,,,,,,,,,,,,,,,,,,,,,,,,,,,,,,,,,,,,,,,,,,,,,,,,,
,,,,,,,,,,stimuli/images/PICTURE_208.png,THING,5ef37e2ca184db0e6896d19b,07/07/1955,2020-09-03_22h28.34.430,proactive2,2020.1.2,Win32,60,5f5126bb654d4b30ee6923d8,5f5137e2a80f5b33f40550ae,4,,,,,,microphone,,,,,,0,25,25,47,1,5,0,,,,,,,,,,,,,,,,,,,,,,,,,,,,,,,,,,,,,,,,,,,,,,,,,,,,,,,,,,,,,,,,,,,,,,,,,,,,,,,,,,,,,,,,,,,,,,,,,,,
,,,,,,,,,,stimuli/images/PICTURE_677.png,MILE,5ef37e2ca184db0e6896d19b,07/07/1955,2020-09-03_22h28.34.430,proactive2,2020.1.2,Win32,60,5f5126bb654d4b30ee6923d8,5f5137e2a80f5b33f40550ae,4,,,,,,map,,,,,,0,26,26,30,1,4,0,,,,,,,,,,,,,,,,,,,,,,,,,,,,,,,,,,,,,,,,,,,,,,,,,,,,,,,,,,,,,,,,,,,,,,,,,,,,,,,,,,,,,,,,,,,,,,,,,,,
,,,,,,,,,,stimuli/images/PICTURE_308.png,ESTATE,5ef37e2ca184db0e6896d19b,07/07/1955,2020-09-03_22h28.34.430,proactive2,2020.1.2,Win32,60,5f5126bb654d4b30ee6923d8,5f5137e2a80f5b33f40550ae,4,,,,,,dice,,,,,,0,27,27,46,1,5,0,,,,,,,,,,,,,,,,,,,,,,,,,,,,,,,,,,,,,,,,,,,,,,,,,,,,,,,,,,,,,,,,,,,,,,,,,,,,,,,,,,,,,,,,,,,,,,,,,,,
,,,,,,,,,,stimuli/images/PICTURE_203.png,ARTIST,5ef37e2ca184db0e6896d19b,07/07/1955,2020-09-03_22h28.34.430,proactive2,2020.1.2,Win32,60,5f5126bb654d4b30ee6923d8,5f5137e2a80f5b33f40550ae,4,,,,,,cap,,,,,,0,28,28,26,1,3,0,,,,,,,,,,,,,,,,,,,,,,,,,,,,,,,,,,,,,,,,,,,,,,,,,,,,,,,,,,,,,,,,,,,,,,,,,,,,,,,,,,,,,,,,,,,,,,,,,,,
,,,,,,,,,,stimuli/images/PICTURE_469.png,LETTER,5ef37e2ca184db0e6896d19b,07/07/1955,2020-09-03_22h28.34.430,proactive2,2020.1.2,Win32,60,5f5126bb654d4b30ee6923d8,5f5137e2a80f5b33f40550ae,4,,,,,,stool,,,,,,0,29,29,42,1,5,0,,,,,,,,,,,,,,,,,,,,,,,,,,,,,,,,,,,,,,,,,,,,,,,,,,,,,,,,,,,,,,,,,,,,,,,,,,,,,,,,,,,,,,,,,,,,,,,,,,,
,,,,,,,,,,stimuli/images/PICTURE_308.png,KIND,5ef37e2ca184db0e6896d19b,07/07/1955,2020-09-03_22h28.34.430,proactive2,2020.1.2,Win32,60,5f5126bb654d4b30ee6923d8,5f5137e2a80f5b33f40550ae,4,,,,,,dice,,,,,,0,30,30,54,1,6,0,,,,,,,,,,,,,,,,,,,,,,,,,,,,,,,,,,,,,,,,,,,,,,,,,,,,,,,,,,,,,,,,,,,,,,,,,,,,,,,,,,,,,,,,,,,,,,,,,,,
,,,,,,,,,,stimuli/images/PICTURE_339.png,PLENTY,5ef37e2ca184db0e6896d19b,07/07/1955,2020-09-03_22h28.34.430,proactive2,2020.1.2,Win32,60,5f5126bb654d4b30ee6923d8,5f5137e2a80f5b33f40550ae,4,,,,,,backpack,,,,,,0,31,31,0,1,1,0,,,,,,,,,,,,,,,,,,,,,,,,,,,,,,,,,,,,,,,,,,,,,,,,,,,,,,,,,,,,,,,,,,,,,,,,,,,,,,,,,,,,,,,,,,,,,,,,,,,
,,,,,,,,,,stimuli/images/PICTURE_123.png,ADVICE,5ef37e2ca184db0e6896d19b,07/07/1955,2020-09-03_22h28.34.430,proactive2,2020.1.2,Win32,60,5f5126bb654d4b30ee6923d8,5f5137e2a80f5b33f40550ae,4,,,,,,dart,,,,,,0,32,32,40,1,5,0,,,,,,,,,,,,,,,,,,,,,,,,,,,,,,,,,,,,,,,,,,,,,,,,,,,,,,,,,,,,,,,,,,,,,,,,,,,,,,,,,,,,,,,,,,,,,,,,,,,
,,,,,,,,,,stimuli/images/PICTURE_487.png,FLIGHT,5ef37e2ca184db0e6896d19b,07/07/1955,2020-09-03_22h28.34.430,proactive2,2020.1.2,Win32,60,5f5126bb654d4b30ee6923d8,5f5137e2a80f5b33f40550ae,4,,,,,,basket,,,,,,0,33,33,9,1,1,0,,,,,,,,,,,,,,,,,,,,,,,,,,,,,,,,,,,,,,,,,,,,,,,,,,,,,,,,,,,,,,,,,,,,,,,,,,,,,,,,,,,,,,,,,,,,,,,,,,,
,,,,,,,,,,stimuli/images/PICTURE_314.png,GODS,5ef37e2ca184db0e6896d19b,07/07/1955,2020-09-03_22h28.34.430,proactive2,2020.1.2,Win32,60,5f5126bb654d4b30ee6923d8,5f5137e2a80f5b33f40550ae,4,,,,,,perfume,,,,,,0,34,34,11,1,2,0,,,,,,,,,,,,,,,,,,,,,,,,,,,,,,,,,,,,,,,,,,,,,,,,,,,,,,,,,,,,,,,,,,,,,,,,,,,,,,,,,,,,,,,,,,,,,,,,,,,
,,,,,,,,,,stimuli/images/PICTURE_311.png,BEAUTY,5ef37e2ca184db0e6896d19b,07/07/1955,2020-09-03_22h28.34.430,proactive2,2020.1.2,Win32,60,5f5126bb654d4b30ee6923d8,5f5137e2a80f5b33f40550ae,4,,,,,,razor,,,,,,0,35,35,13,1,2,0,,,,,,,,,,,,,,,,,,,,,,,,,,,,,,,,,,,,,,,,,,,,,,,,,,,,,,,,,,,,,,,,,,,,,,,,,,,,,,,,,,,,,,,,,,,,,,,,,,,
,,,,,,,,,,stimuli/images/PICTURE_248.png,DOZEN,5ef37e2ca184db0e6896d19b,07/07/1955,2020-09-03_22h28.34.430,proactive2,2020.1.2,Win32,60,5f5126bb654d4b30ee6923d8,5f5137e2a80f5b33f40550ae,4,,,,,,cart,,,,,,0,36,36,39,1,4,0,,,,,,,,,,,,,,,,,,,,,,,,,,,,,,,,,,,,,,,,,,,,,,,,,,,,,,,,,,,,,,,,,,,,,,,,,,,,,,,,,,,,,,,,,,,,,,,,,,,
,,,,,,,,,,stimuli/images/PICTURE_654.png,VALLEY,5ef37e2ca184db0e6896d19b,07/07/1955,2020-09-03_22h28.34.430,proactive2,2020.1.2,Win32,60,5f5126bb654d4b30ee6923d8,5f5137e2a80f5b33f40550ae,4,,,,,,pencil,,,,,,0,37,37,1,1,1,0,,,,,,,,,,,,,,,,,,,,,,,,,,,,,,,,,,,,,,,,,,,,,,,,,,,,,,,,,,,,,,,,,,,,,,,,,,,,,,,,,,,,,,,,,,,,,,,,,,,
,,,,,,,,,,stimuli/images/PICTURE_147.png,MOMENT,5ef37e2ca184db0e6896d19b,07/07/1955,2020-09-03_22h28.34.430,proactive2,2020.1.2,Win32,60,5f5126bb654d4b30ee6923d8,5f5137e2a80f5b33f40550ae,4,,,,,,hanger,,,,,,0,38,38,51,1,6,0,,,,,,,,,,,,,,,,,,,,,,,,,,,,,,,,,,,,,,,,,,,,,,,,,,,,,,,,,,,,,,,,,,,,,,,,,,,,,,,,,,,,,,,,,,,,,,,,,,,
,,,,,,,,,,stimuli/images/PICTURE_453.png,DUDE,5ef37e2ca184db0e6896d19b,07/07/1955,2020-09-03_22h28.34.430,proactive2,2020.1.2,Win32,60,5f5126bb654d4b30ee6923d8,5f5137e2a80f5b33f40550ae,4,,,,,,scissors,,,,,,0,39,39,27,1,3,0,,,,,,,,,,,,,,,,,,,,,,,,,,,,,,,,,,,,,,,,,,,,,,,,,,,,,,,,,,,,,,,,,,,,,,,,,,,,,,,,,,,,,,,,,,,,,,,,,,,
,,,,,,,,,,stimuli/images/PICTURE_177.png,CARS,5ef37e2ca184db0e6896d19b,07/07/1955,2020-09-03_22h28.34.430,proactive2,2020.1.2,Win32,60,5f5126bb654d4b30ee6923d8,5f5137e2a80f5b33f40550ae,4,,,,,,mushroom,,,,,,0,40,40,35,1,4,0,,,,,,,,,,,,,,,,,,,,,,,,,,,,,,,,,,,,,,,,,,,,,,,,,,,,,,,,,,,,,,,,,,,,,,,,,,,,,,,,,,,,,,,,,,,,,,,,,,,
,,,,,,,,,,stimuli/images/PICTURE_504.png,BODY,5ef37e2ca184db0e6896d19b,07/07/1955,2020-09-03_22h28.34.430,proactive2,2020.1.2,Win32,60,5f5126bb654d4b30ee6923d8,5f5137e2a80f5b33f40550ae,4,,,,,,wheel,,,,,,0,41,41,8,1,1,0,,,,,,,,,,,,,,,,,,,,,,,,,,,,,,,,,,,,,,,,,,,,,,,,,,,,,,,,,,,,,,,,,,,,,,,,,,,,,,,,,,,,,,,,,,,,,,,,,,,
,,,,,,,,,,stimuli/images/PICTURE_469.png,ARTIST,5ef37e2ca184db0e6896d19b,07/07/1955,2020-09-03_22h28.34.430,proactive2,2020.1.2,Win32,60,5f5126bb654d4b30ee6923d8,5f5137e2a80f5b33f40550ae,4,,,,,,stool,,,,,,0,42,42,6,1,1,0,,,,,,,,,,,,,,,,,,,,,,,,,,,,,,,,,,,,,,,,,,,,,,,,,,,,,,,,,,,,,,,,,,,,,,,,,,,,,,,,,,,,,,,,,,,,,,,,,,,
,,,,,,,,,,stimuli/images/PICTURE_491.png,ROOF,5ef37e2ca184db0e6896d19b,07/07/1955,2020-09-03_22h28.34.430,proactive2,2020.1.2,Win32,60,5f5126bb654d4b30ee6923d8,5f5137e2a80f5b33f40550ae,4,,,,,,rug,,,,,,0,43,43,24,1,3,0,,,,,,,,,,,,,,,,,,,,,,,,,,,,,,,,,,,,,,,,,,,,,,,,,,,,,,,,,,,,,,,,,,,,,,,,,,,,,,,,,,,,,,,,,,,,,,,,,,,
,,,,,,,,,,stimuli/images/PICTURE_208.png,MONTH,5ef37e2ca184db0e6896d19b,07/07/1955,2020-09-03_22h28.34.430,proactive2,2020.1.2,Win32,60,5f5126bb654d4b30ee6923d8,5f5137e2a80f5b33f40550ae,4,,,,,,microphone,,,,,,0,44,44,53,1,6,0,,,,,,,,,,,,,,,,,,,,,,,,,,,,,,,,,,,,,,,,,,,,,,,,,,,,,,,,,,,,,,,,,,,,,,,,,,,,,,,,,,,,,,,,,,,,,,,,,,,
,,,,,,,,,,stimuli/images/PICTURE_68.png,MILE,5ef37e2ca184db0e6896d19b,07/07/1955,2020-09-03_22h28.34.430,proactive2,2020.1.2,Win32,60,5f5126bb654d4b30ee6923d8,5f5137e2a80f5b33f40550ae,4,,,,,,candle,,,,,,0,45,45,44,1,5,0,,,,,,,,,,,,,,,,,,,,,,,,,,,,,,,,,,,,,,,,,,,,,,,,,,,,,,,,,,,,,,,,,,,,,,,,,,,,,,,,,,,,,,,,,,,,,,,,,,,
,,,,,,,,,,stimuli/images/PICTURE_233.png,IDEAS,5ef37e2ca184db0e6896d19b,07/07/1955,2020-09-03_22h28.34.430,proactive2,2020.1.2,Win32,60,5f5126bb654d4b30ee6923d8,5f5137e2a80f5b33f40550ae,4,,,,,,salt,,,,,,0,46,46,28,1,3,0,,,,,,,,,,,,,,,,,,,,,,,,,,,,,,,,,,,,,,,,,,,,,,,,,,,,,,,,,,,,,,,,,,,,,,,,,,,,,,,,,,,,,,,,,,,,,,,,,,,
,,,,,,,,,,stimuli/images/PICTURE_32.png,JUNGLE,5ef37e2ca184db0e6896d19b,07/07/1955,2020-09-03_22h28.34.430,proactive2,2020.1.2,Win32,60,5f5126bb654d4b30ee6923d8,5f5137e2a80f5b33f40550ae,4,,,,,,crown,,,,,,0,47,47,45,1,5,0,,,,,,,,,,,,,,,,,,,,,,,,,,,,,,,,,,,,,,,,,,,,,,,,,,,,,,,,,,,,,,,,,,,,,,,,,,,,,,,,,,,,,,,,,,,,,,,,,,,
,,,,,,,,,,stimuli/images/PICTURE_95.png,STYLE,5ef37e2ca184db0e6896d19b,07/07/1955,2020-09-03_22h28.34.430,proactive2,2020.1.2,Win32,60,5f5126bb654d4b30ee6923d8,5f5137e2a80f5b33f40550ae,4,,,,,,suitcase,,,,,,0,48,48,25,1,3,0,,,,,,,,,,,,,,,,,,,,,,,,,,,,,,,,,,,,,,,,,,,,,,,,,,,,,,,,,,,,,,,,,,,,,,,,,,,,,,,,,,,,,,,,,,,,,,,,,,,
,,,,,,,,,,stimuli/images/PICTURE_302.png,FAMILY,5ef37e2ca184db0e6896d19b,07/07/1955,2020-09-03_22h28.34.430,proactive2,2020.1.2,Win32,60,5f5126bb654d4b30ee6923d8,5f5137e2a80f5b33f40550ae,4,,,,,,taxi,,,,,,0,49,49,18,1,2,0,,,,,,,,,,,,,,,,,,,,,,,,,,,,,,,,,,,,,,,,,,,,,,,,,,,,,,,,,,,,,,,,,,,,,,,,,,,,,,,,,,,,,,,,,,,,,,,,,,,
,,,,,,,,,,stimuli/images/PICTURE_151.png,GIRL,5ef37e2ca184db0e6896d19b,07/07/1955,2020-09-03_22h28.34.430,proactive2,2020.1.2,Win32,60,5f5126bb654d4b30ee6923d8,5f5137e2a80f5b33f40550ae,4,,,,,,tray,,,,,,0,50,50,19,1,2,0,,,,,,,,,,,,,,,,,,,,,,,,,,,,,,,,,,,,,,,,,,,,,,,,,,,,,,,,,,,,,,,,,,,,,,,,,,,,,,,,,,,,,,,,,,,,,,,,,,,
,,,,,,,,,,stimuli/images/PICTURE_688.png,CASINO,5ef37e2ca184db0e6896d19b,07/07/1955,2020-09-03_22h28.34.430,proactive2,2020.1.2,Win32,60,5f5126bb654d4b30ee6923d8,5f5137e2a80f5b33f40550ae,4,,,,,,runner,,,,,,0,51,51,2,1,1,0,,,,,,,,,,,,,,,,,,,,,,,,,,,,,,,,,,,,,,,,,,,,,,,,,,,,,,,,,,,,,,,,,,,,,,,,,,,,,,,,,,,,,,,,,,,,,,,,,,,
,,,,,,,,,,stimuli/images/PICTURE_675.png,WEAPON,5ef37e2ca184db0e6896d19b,07/07/1955,2020-09-03_22h28.34.430,proactive2,2020.1.2,Win32,60,5f5126bb654d4b30ee6923d8,5f5137e2a80f5b33f40550ae,4,,,,,,windmill,,,,,,0,52,52,32,1,4,0,,,,,,,,,,,,,,,,,,,,,,,,,,,,,,,,,,,,,,,,,,,,,,,,,,,,,,,,,,,,,,,,,,,,,,,,,,,,,,,,,,,,,,,,,,,,,,,,,,,
,,,,,,,,,,stimuli/images/PICTURE_85.png,THING,5ef37e2ca184db0e6896d19b,07/07/1955,2020-09-03_22h28.34.430,proactive2,2020.1.2,Win32,60,5f5126bb654d4b30ee6923d8,5f5137e2a80f5b33f40550ae,4,,,,,,diamond,,,,,,0,53,53,15,1,2,0,,,,,,,,,,,,,,,,,,,,,,,,,,,,,,,,,,,,,,,,,,,,,,,,,,,,,,,,,,,,,,,,,,,,,,,,,,,,,,,,,,,,,,,,,,,,,,,,,,,
,,,,,,,,,,stimuli/images/PICTURE_744.png,SAKE,5ef37e2ca184db0e6896d19b,07/07/1955,2020-09-03_22h28.34.430,proactive2,2020.1.2,Win32,60,5f5126bb654d4b30ee6923d8,5f5137e2a80f5b33f40550ae,4,,,,,,ring,,,,,,0,54,54,17,1,2,0,,,,,,,,,,,,,,,,,,,,,,,,,,,,,,,,,,,,,,,,,,,,,,,,,,,,,,,,,,,,,,,,,,,,,,,,,,,,,,,,,,,,,,,,,,,,,,,,,,,
,,,,,,,,,,stimuli/images/PICTURE_509.png,PHOTO,5ef37e2ca184db0e6896d19b,07/07/1955,2020-09-03_22h28.34.430,proactive2,2020.1.2,Win32,60,5f5126bb654d4b30ee6923d8,5f5137e2a80f5b33f40550ae,4,,,,,,telephone,,,,,,0,55,55,21,1,3,0,,,,,,,,,,,,,,,,,,,,,,,,,,,,,,,,,,,,,,,,,,,,,,,,,,,,,,,,,,,,,,,,,,,,,,,,,,,,,,,,,,,,,,,,,,,,,,,,,,,
,,,,,,,,,,stimuli/images/PICTURE_160.png,LEADER,5ef37e2ca184db0e6896d19b,07/07/1955,2020-09-03_22h28.34.430,proactive2,2020.1.2,Win32,60,5f5126bb654d4b30ee6923d8,5f5137e2a80f5b33f40550ae,4,,,,,,wheelbarrow,,,,,,0,56,56,3,1,1,0,,,,,,,,,,,,,,,,,,,,,,,,,,,,,,,,,,,,,,,,,,,,,,,,,,,,,,,,,,,,,,,,,,,,,,,,,,,,,,,,,,,,,,,,,,,,,,,,,,,
,,,,,,,,,,stimuli/images/PICTURE_744.png,SYSTEM,5ef37e2ca184db0e6896d19b,07/07/1955,2020-09-03_22h28.34.430,proactive2,2020.1.2,Win32,60,5f5126bb654d4b30ee6923d8,5f5137e2a80f5b33f40550ae,4,,,,,,ring,,,,,,0,57,57,43,1,5,0,,,,,,,,,,,,,,,,,,,,,,,,,,,,,,,,,,,,,,,,,,,,,,,,,,,,,,,,,,,,,,,,,,,,,,,,,,,,,,,,,,,,,,,,,,,,,,,,,,,
,,,,,,,,,,stimuli/images/PICTURE_380.png,PHOTO,5ef37e2ca184db0e6896d19b,07/07/1955,2020-09-03_22h28.34.430,proactive2,2020.1.2,Win32,60,5f5126bb654d4b30ee6923d8,5f5137e2a80f5b33f40550ae,4,,,,,,gorilla,,,,,,0,58,58,52,1,6,0,,,,,,,,,,,,,,,,,,,,,,,,,,,,,,,,,,,,,,,,,,,,,,,,,,,,,,,,,,,,,,,,,,,,,,,,,,,,,,,,,,,,,,,,,,,,,,,,,,,
,,?,0.00126,0,,,,,,stimuli/images/PICTURE_314.png,GODS,5ef37e2ca184db0e6896d19b,07/07/1955,2020-09-03_22h28.34.430,proactive2,2020.1.2,Win32,60,5f5126bb654d4b30ee6923d8,5f5137e2a80f5b33f40550ae,4,,,,,,perfume,,,,,,,,,,,2,0,0,0,0,11,1,,,,,,,,,,,,,,,,,,,,,,,,,,,,,,,,,,,,,,,,,,,,,,,,,,,,,,,,,,,,,,,,,,,,,,,,,,,,,,,,,,,,,,,,,,,,,,
,,?,0.00092,0,,,,,,stimuli/images/PICTURE_308.png,ESTATE,5ef37e2ca184db0e6896d19b,07/07/1955,2020-09-03_22h28.34.430,proactive2,2020.1.2,Win32,60,5f5126bb654d4b30ee6923d8,5f5137e2a80f5b33f40550ae,4,,,,,,dice,,,,,,,,,,,5,0,0,1,1,46,1,,,,,,,,,,,,,,,,,,,,,,,,,,,,,,,,,,,,,,,,,,,,,,,,,,,,,,,,,,,,,,,,,,,,,,,,,,,,,,,,,,,,,,,,,,,,,,
,,?,0.00118,0,,,,,,stimuli/images/PICTURE_208.png,MONTH,5ef37e2ca184db0e6896d19b,07/07/1955,2020-09-03_22h28.34.430,proactive2,2020.1.2,Win32,60,5f5126bb654d4b30ee6923d8,5f5137e2a80f5b33f40550ae,4,,,,,,microphone,,,,,,,,,,,6,0,0,2,2,53,1,,,,,,,,,,,,,,,,,,,,,,,,,,,,,,,,,,,,,,,,,,,,,,,,,,,,,,,,,,,,,,,,,,,,,,,,,,,,,,,,,,,,,,,,,,,,,,
,,?,0.00091,0,,,,,,stimuli/images/PICTURE_692.png,MONTH,5ef37e2ca184db0e6896d19b,07/07/1955,2020-09-03_22h28.34.430,proactive2,2020.1.2,Win32,60,5f5126bb654d4b30ee6923d8,5f5137e2a80f5b33f40550ae,4,,,,,,cherry,,,,,,,,,,,2,0,0,3,3,16,1,,,,,,,,,,,,,,,,,,,,,,,,,,,,,,,,,,,,,,,,,,,,,,,,,,,,,,,,,,,,,,,,,,,,,,,,,,,,,,,,,,,,,,,,,,,,,,
,,?,0.0009,0,,,,,,stimuli/images/PICTURE_449.png,THING,5ef37e2ca184db0e6896d19b,07/07/1955,2020-09-03_22h28.34.430,proactive2,2020.1.2,Win32,60,5f5126bb654d4b30ee6923d8,5f5137e2a80f5b33f40550ae,4,,,,,,bench,,,,,,,,,,,6,0,0,4,4,59,1,,,,,,,,,,,,,,,,,,,,,,,,,,,,,,,,,,,,,,,,,,,,,,,,,,,,,,,,,,,,,,,,,,,,,,,,,,,,,,,,,,,,,,,,,,,,,,
,,?,0.000905,0,,,,,,stimuli/images/PICTURE_327.png,BEAUTY,5ef37e2ca184db0e6896d19b,07/07/1955,2020-09-03_22h28.34.430,proactive2,2020.1.2,Win32,60,5f5126bb654d4b30ee6923d8,5f5137e2a80f5b33f40550ae,4,,,,,,helmet,,,,,,,,,,,5,0,0,5,5,48,1,,,,,,,,,,,,,,,,,,,,,,,,,,,,,,,,,,,,,,,,,,,,,,,,,,,,,,,,,,,,,,,,,,,,,,,,,,,,,,,,,,,,,,,,,,,,,,
,,?,0.00091,0,,,,,,stimuli/images/PICTURE_688.png,CASINO,5ef37e2ca184db0e6896d19b,07/07/1955,2020-09-03_22h28.34.430,proactive2,2020.1.2,Win32,60,5f5126bb654d4b30ee6923d8,5f5137e2a80f5b33f40550ae,4,,,,,,runner,,,,,,,,,,,1,0,0,6,6,2,1,,,,,,,,,,,,,,,,,,,,,,,,,,,,,,,,,,,,,,,,,,,,,,,,,,,,,,,,,,,,,,,,,,,,,,,,,,,,,,,,,,,,,,,,,,,,,,
,,?,0.00092,0,,,,,,stimuli/images/PICTURE_487.png,FLIGHT,5ef37e2ca184db0e6896d19b,07/07/1955,2020-09-03_22h28.34.430,proactive2,2020.1.2,Win32,60,5f5126bb654d4b30ee6923d8,5f5137e2a80f5b33f40550ae,4,,,,,,basket,,,,,,,,,,,1,0,0,7,7,9,1,,,,,,,,,,,,,,,,,,,,,,,,,,,,,,,,,,,,,,,,,,,,,,,,,,,,,,,,,,,,,,,,,,,,,,,,,,,,,,,,,,,,,,,,,,,,,,
,,?,0.000895,0,,,,,,stimuli/images/PICTURE_467.png,DEMON,5ef37e2ca184db0e6896d19b,07/07/1955,2020-09-03_22h28.34.430,proactive2,2020.1.2,Win32,60,5f5126bb654d4b30ee6923d8,5f5137e2a80f5b33f40550ae,4,,,,,,peg,,,,,,,,,,,3,0,0,8,8,23,1,,,,,,,,,,,,,,,,,,,,,,,,,,,,,,,,,,,,,,,,,,,,,,,,,,,,,,,,,,,,,,,,,,,,,,,,,,,,,,,,,,,,,,,,,,,,,,
,,?,0.000925,0,,,,,,stimuli/images/PICTURE_708.png,CLIENT,5ef37e2ca184db0e6896d19b,07/07/1955,2020-09-03_22h28.34.430,proactive2,2020.1.2,Win32,60,5f5126bb654d4b30ee6923d8,5f5137e2a80f5b33f40550ae,4,,,,,,monkey,,,,,,,,,,,1,0,0,9,9,5,1,,,,,,,,,,,,,,,,,,,,,,,,,,,,,,,,,,,,,,,,,,,,,,,,,,,,,,,,,,,,,,,,,,,,,,,,,,,,,,,,,,,,,,,,,,,,,,
,,?,0.00097,0,,,,,,stimuli/images/PICTURE_85.png,THING,5ef37e2ca184db0e6896d19b,07/07/1955,2020-09-03_22h28.34.430,proactive2,2020.1.2,Win32,60,5f5126bb654d4b30ee6923d8,5f5137e2a80f5b33f40550ae,4,,,,,,diamond,,,,,,,,,,,2,0,0,10,10,15,1,,,,,,,,,,,,,,,,,,,,,,,,,,,,,,,,,,,,,,,,,,,,,,,,,,,,,,,,,,,,,,,,,,,,,,,,,,,,,,,,,,,,,,,,,,,,,,
,,?,0.000935,0,,,,,,stimuli/images/PICTURE_339.png,PLENTY,5ef37e2ca184db0e6896d19b,07/07/1955,2020-09-03_22h28.34.430,proactive2,2020.1.2,Win32,60,5f5126bb654d4b30ee6923d8,5f5137e2a80f5b33f40550ae,4,,,,,,backpack,,,,,,,,,,,1,0,0,11,11,0,1,,,,,,,,,,,,,,,,,,,,,,,,,,,,,,,,,,,,,,,,,,,,,,,,,,,,,,,,,,,,,,,,,,,,,,,,,,,,,,,,,,,,,,,,,,,,,,
,,?,0.000925,0,,,,,,stimuli/images/PICTURE_147.png,MOMENT,5ef37e2ca184db0e6896d19b,07/07/1955,2020-09-03_22h28.34.430,proactive2,2020.1.2,Win32,60,5f5126bb654d4b30ee6923d8,5f5137e2a80f5b33f40550ae,4,,,,,,hanger,,,,,,,,,,,6,0,0,12,12,51,1,,,,,,,,,,,,,,,,,,,,,,,,,,,,,,,,,,,,,,,,,,,,,,,,,,,,,,,,,,,,,,,,,,,,,,,,,,,,,,,,,,,,,,,,,,,,,,
,,?,0.00095,0,,,,,,stimuli/images/PICTURE_688.png,WOMEN,5ef37e2ca184db0e6896d19b,07/07/1955,2020-09-03_22h28.34.430,proactive2,2020.1.2,Win32,60,5f5126bb654d4b30ee6923d8,5f5137e2a80f5b33f40550ae,4,,,,,,runner,,,,,,,,,,,2,0,0,13,13,14,1,,,,,,,,,,,,,,,,,,,,,,,,,,,,,,,,,,,,,,,,,,,,,,,,,,,,,,,,,,,,,,,,,,,,,,,,,,,,,,,,,,,,,,,,,,,,,,
,,?,0.00093,0,,,,,,stimuli/images/PICTURE_68.png,MILE,5ef37e2ca184db0e6896d19b,07/07/1955,2020-09-03_22h28.34.430,proactive2,2020.1.2,Win32,60,5f5126bb654d4b30ee6923d8,5f5137e2a80f5b33f40550ae,4,,,,,,candle,,,,,,,,,,,5,0,0,14,14,44,1,,,,,,,,,,,,,,,,,,,,,,,,,,,,,,,,,,,,,,,,,,,,,,,,,,,,,,,,,,,,,,,,,,,,,,,,,,,,,,,,,,,,,,,,,,,,,,
,,?,0.000885,0,,,,,,stimuli/images/PICTURE_160.png,FEET,5ef37e2ca184db0e6896d19b,07/07/1955,2020-09-03_22h28.34.430,proactive2,2020.1.2,Win32,60,5f5126bb654d4b30ee6923d8,5f5137e2a80f5b33f40550ae,4,,,,,,wheelbarrow,,,,,,,,,,,6,0,0,15,15,58,1,,,,,,,,,,,,,,,,,,,,,,,,,,,,,,,,,,,,,,,,,,,,,,,,,,,,,,,,,,,,,,,,,,,,,,,,,,,,,,,,,,,,,,,,,,,,,,
,,?,0.00067,0,,,,,,stimuli/images/PICTURE_123.png,ADVICE,5ef37e2ca184db0e6896d19b,07/07/1955,2020-09-03_22h28.34.430,proactive2,2020.1.2,Win32,60,5f5126bb654d4b30ee6923d8,5f5137e2a80f5b33f40550ae,4,,,,,,dart,,,,,,,,,,,6,0,0,16,16,50,1,,,,,,,,,,,,,,,,,,,,,,,,,,,,,,,,,,,,,,,,,,,,,,,,,,,,,,,,,,,,,,,,,,,,,,,,,,,,,,,,,,,,,,,,,,,,,,
,,?,0.000665,0,,,,,,stimuli/images/PICTURE_151.png,GIRL,5ef37e2ca184db0e6896d19b,07/07/1955,2020-09-03_22h28.34.430,proactive2,2020.1.2,Win32,60,5f5126bb654d4b30ee6923d8,5f5137e2a80f5b33f40550ae,4,,,,,,tray,,,,,,,,,,,2,0,0,17,17,19,1,,,,,,,,,,,,,,,,,,,,,,,,,,,,,,,,,,,,,,,,,,,,,,,,,,,,,,,,,,,,,,,,,,,,,,,,,,,,,,,,,,,,,,,,,,,,,,
,,?,0.000595,0,,,,,,stimuli/images/PICTURE_308.png,KIND,5ef37e2ca184db0e6896d19b,07/07/1955,2020-09-03_22h28.34.430,proactive2,2020.1.2,Win32,60,5f5126bb654d4b30ee6923d8,5f5137e2a80f5b33f40550ae,4,,,,,,dice,,,,,,,,,,,6,0,0,18,18,54,1,,,,,,,,,,,,,,,,,,,,,,,,,,,,,,,,,,,,,,,,,,,,,,,,,,,,,,,,,,,,,,,,,,,,,,,,,,,,,,,,,,,,,,,,,,,,,,
,,?,0.00056,0,,,,,,stimuli/images/PICTURE_314.png,SAKE,5ef37e2ca184db0e6896d19b,07/07/1955,2020-09-03_22h28.34.430,proactive2,2020.1.2,Win32,60,5f5126bb654d4b30ee6923d8,5f5137e2a80f5b33f40550ae,4,,,,,,perfume,,,,,,,,,,,1,0,0,19,19,7,1,,,,,,,,,,,,,,,,,,,,,,,,,,,,,,,,,,,,,,,,,,,,,,,,,,,,,,,,,,,,,,,,,,,,,,,,,,,,,,,,,,,,,,,,,,,,,,
,,FRIEND,15.007655,1,,,,,,stimuli/images/PICTURE_311.png,FRIEND,5ef37e2ca184db0e6896d19b,07/07/1955,2020-09-03_22h28.34.430,proactive2,2020.1.2,Win32,60,5f5126bb654d4b30ee6923d8,5f5137e2a80f5b33f40550ae,4,,,,,,razor,,,,,,,,,,,4,0,0,20,20,34,1,,,,,,,,,,,,,,,,,,,,,,,,,,,,,,,,,,,,,,,,,,,,,,,,,,,,,,,,,,,,,,,,,,,,,,,,,,,,,,,,,,,,,,,,,,,,,,
,,?,0.001185,0,,,,,,stimuli/images/PICTURE_708.png,YARD,5ef37e2ca184db0e6896d19b,07/07/1955,2020-09-03_22h28.34.430,proactive2,2020.1.2,Win32,60,5f5126bb654d4b30ee6923d8,5f5137e2a80f5b33f40550ae,4,,,,,,monkey,,,,,,,,,,,3,0,0,21,21,29,1,,,,,,,,,,,,,,,,,,,,,,,,,,,,,,,,,,,,,,,,,,,,,,,,,,,,,,,,,,,,,,,,,,,,,,,,,,,,,,,,,,,,,,,,,,,,,,
,,?,0.000895,0,,,,,,stimuli/images/PICTURE_285.png,ADVICE,5ef37e2ca184db0e6896d19b,07/07/1955,2020-09-03_22h28.34.430,proactive2,2020.1.2,Win32,60,5f5126bb654d4b30ee6923d8,5f5137e2a80f5b33f40550ae,4,,,,,,carrot,,,,,,,,,,,2,0,0,22,22,12,1,,,,,,,,,,,,,,,,,,,,,,,,,,,,,,,,,,,,,,,,,,,,,,,,,,,,,,,,,,,,,,,,,,,,,,,,,,,,,,,,,,,,,,,,,,,,,,
,,?,0.00087,0,,,,,,stimuli/images/PICTURE_348.png,SPEECH,5ef37e2ca184db0e6896d19b,07/07/1955,2020-09-03_22h28.34.430,proactive2,2020.1.2,Win32,60,5f5126bb654d4b30ee6923d8,5f5137e2a80f5b33f40550ae,4,,,,,,pepper,,,,,,,,,,,3,0,0,23,23,20,1,,,,,,,,,,,,,,,,,,,,,,,,,,,,,,,,,,,,,,,,,,,,,,,,,,,,,,,,,,,,,,,,,,,,,,,,,,,,,,,,,,,,,,,,,,,,,,
,,?,15.00388,0,,,,,,stimuli/images/PICTURE_675.png,WEAPON,5ef37e2ca184db0e6896d19b,07/07/1955,2020-09-03_22h28.34.430,proactive2,2020.1.2,Win32,60,5f5126bb654d4b30ee6923d8,5f5137e2a80f5b33f40550ae,4,,,,,,windmill,,,,,,,,,,,4,0,0,24,24,32,1,,,,,,,,,,,,,,,,,,,,,,,,,,,,,,,,,,,,,,,,,,,,,,,,,,,,,,,,,,,,,,,,,,,,,,,,,,,,,,,,,,,,,,,,,,,,,,
,,?,0.001115,0,,,,,,stimuli/images/PICTURE_95.png,STYLE,5ef37e2ca184db0e6896d19b,07/07/1955,2020-09-03_22h28.34.430,proactive2,2020.1.2,Win32,60,5f5126bb654d4b30ee6923d8,5f5137e2a80f5b33f40550ae,4,,,,,,suitcase,,,,,,,,,,,3,0,0,25,25,25,1,,,,,,,,,,,,,,,,,,,,,,,,,,,,,,,,,,,,,,,,,,,,,,,,,,,,,,,,,,,,,,,,,,,,,,,,,,,,,,,,,,,,,,,,,,,,,,
,,?,15.009025,0,,,,,,stimuli/images/PICTURE_233.png,WOMEN,5ef37e2ca184db0e6896d19b,07/07/1955,2020-09-03_22h28.34.430,proactive2,2020.1.2,Win32,60,5f5126bb654d4b30ee6923d8,5f5137e2a80f5b33f40550ae,4,,,,,,salt,,,,,,,,,,,4,0,0,26,26,38,1,,,,,,,,,,,,,,,,,,,,,,,,,,,,,,,,,,,,,,,,,,,,,,,,,,,,,,,,,,,,,,,,,,,,,,,,,,,,,,,,,,,,,,,,,,,,,,
,,?,0.00109,0,,,,,,stimuli/images/PICTURE_654.png,VALLEY,5ef37e2ca184db0e6896d19b,07/07/1955,2020-09-03_22h28.34.430,proactive2,2020.1.2,Win32,60,5f5126bb654d4b30ee6923d8,5f5137e2a80f5b33f40550ae,4,,,,,,pencil,,,,,,,,,,,1,0,0,27,27,1,1,,,,,,,,,,,,,,,,,,,,,,,,,,,,,,,,,,,,,,,,,,,,,,,,,,,,,,,,,,,,,,,,,,,,,,,,,,,,,,,,,,,,,,,,,,,,,,
,,CASINO,15.007665,1,,,,,,stimuli/images/PICTURE_470.png,CASINO,5ef37e2ca184db0e6896d19b,07/07/1955,2020-09-03_22h28.34.430,proactive2,2020.1.2,Win32,60,5f5126bb654d4b30ee6923d8,5f5137e2a80f5b33f40550ae,4,,,,,,motorbike,,,,,,,,,,,4,0,0,28,28,36,1,,,,,,,,,,,,,,,,,,,,,,,,,,,,,,,,,,,,,,,,,,,,,,,,,,,,,,,,,,,,,,,,,,,,,,,,,,,,,,,,,,,,,,,,,,,,,,
,,?,0.001045,0,,,,,,stimuli/images/PICTURE_469.png,ARTIST,5ef37e2ca184db0e6896d19b,07/07/1955,2020-09-03_22h28.34.430,proactive2,2020.1.2,Win32,60,5f5126bb654d4b30ee6923d8,5f5137e2a80f5b33f40550ae,4,,,,,,stool,,,,,,,,,,,1,0,0,29,29,6,1,,,,,,,,,,,,,,,,,,,,,,,,,,,,,,,,,,,,,,,,,,,,,,,,,,,,,,,,,,,,,,,,,,,,,,,,,,,,,,,,,,,,,,,,,,,,,,
,,?,0.000835,0,,,,,,stimuli/images/PICTURE_123.png,ADVICE,5ef37e2ca184db0e6896d19b,07/07/1955,2020-09-03_22h28.34.430,proactive2,2020.1.2,Win32,60,5f5126bb654d4b30ee6923d8,5f5137e2a80f5b33f40550ae,4,,,,,,dart,,,,,,,,,,,5,0,0,30,30,40,1,,,,,,,,,,,,,,,,,,,,,,,,,,,,,,,,,,,,,,,,,,,,,,,,,,,,,,,,,,,,,,,,,,,,,,,,,,,,,,,,,,,,,,,,,,,,,,
,,?,0.000785,0,,,,,,stimuli/images/PICTURE_160.png,LEADER,5ef37e2ca184db0e6896d19b,07/07/1955,2020-09-03_22h28.34.430,proactive2,2020.1.2,Win32,60,5f5126bb654d4b30ee6923d8,5f5137e2a80f5b33f40550ae,4,,,,,,wheelbarrow,,,,,,,,,,,1,0,0,31,31,3,1,,,,,,,,,,,,,,,,,,,,,,,,,,,,,,,,,,,,,,,,,,,,,,,,,,,,,,,,,,,,,,,,,,,,,,,,,,,,,,,,,,,,,,,,,,,,,,
,,?,0.000825,0,,,,,,stimuli/images/PICTURE_356.png,DANGER,5ef37e2ca184db0e6896d19b,07/07/1955,2020-09-03_22h28.34.430,proactive2,2020.1.2,Win32,60,5f5126bb654d4b30ee6923d8,5f5137e2a80f5b33f40550ae,4,,,,,,pawn,,,,,,,,,,,6,0,0,32,32,55,1,,,,,,,,,,,,,,,,,,,,,,,,,,,,,,,,,,,,,,,,,,,,,,,,,,,,,,,,,,,,,,,,,,,,,,,,,,,,,,,,,,,,,,,,,,,,,,
,,NO,3.97308,0,,,,,,stimuli/images/PICTURE_248.png,DOZEN,5ef37e2ca184db0e6896d19b,07/07/1955,2020-09-03_22h28.34.430,proactive2,2020.1.2,Win32,60,5f5126bb654d4b30ee6923d8,5f5137e2a80f5b33f40550ae,4,,,,,,cart,,,,,,,,,,,4,0,0,33,33,39,1,,,,,,,,,,,,,,,,,,,,,,,,,,,,,,,,,,,,,,,,,,,,,,,,,,,,,,,,,,,,,,,,,,,,,,,,,,,,,,,,,,,,,,,,,,,,,,
,,?,0.001095,0,,,,,,stimuli/images/PICTURE_453.png,DUDE,5ef37e2ca184db0e6896d19b,07/07/1955,2020-09-03_22h28.34.430,proactive2,2020.1.2,Win32,60,5f5126bb654d4b30ee6923d8,5f5137e2a80f5b33f40550ae,4,,,,,,scissors,,,,,,,,,,,3,0,0,34,34,27,1,,,,,,,,,,,,,,,,,,,,,,,,,,,,,,,,,,,,,,,,,,,,,,,,,,,,,,,,,,,,,,,,,,,,,,,,,,,,,,,,,,,,,,,,,,,,,,
,,?,0.00082,0,,,,,,stimuli/images/PICTURE_380.png,DEATH,5ef37e2ca184db0e6896d19b,07/07/1955,2020-09-03_22h28.34.430,proactive2,2020.1.2,Win32,60,5f5126bb654d4b30ee6923d8,5f5137e2a80f5b33f40550ae,4,,,,,,gorilla,,,,,,,,,,,5,0,0,35,35,49,1,,,,,,,,,,,,,,,,,,,,,,,,,,,,,,,,,,,,,,,,,,,,,,,,,,,,,,,,,,,,,,,,,,,,,,,,,,,,,,,,,,,,,,,,,,,,,,
,,?,0.000795,0,,,,,,stimuli/images/PICTURE_208.png,LOTS,5ef37e2ca184db0e6896d19b,07/07/1955,2020-09-03_22h28.34.430,proactive2,2020.1.2,Win32,60,5f5126bb654d4b30ee6923d8,5f5137e2a80f5b33f40550ae,4,,,,,,microphone,,,,,,,,,,,2,0,0,36,36,10,1,,,,,,,,,,,,,,,,,,,,,,,,,,,,,,,,,,,,,,,,,,,,,,,,,,,,,,,,,,,,,,,,,,,,,,,,,,,,,,,,,,,,,,,,,,,,,,
,,?,0.00078,0,,,,,,stimuli/images/PICTURE_504.png,BODY,5ef37e2ca184db0e6896d19b,07/07/1955,2020-09-03_22h28.34.430,proactive2,2020.1.2,Win32,60,5f5126bb654d4b30ee6923d8,5f5137e2a80f5b33f40550ae,4,,,,,,wheel,,,,,,,,,,,1,0,0,37,37,8,1,,,,,,,,,,,,,,,,,,,,,,,,,,,,,,,,,,,,,,,,,,,,,,,,,,,,,,,,,,,,,,,,,,,,,,,,,,,,,,,,,,,,,,,,,,,,,,
,,STYLE,15.001835,1,,,,,,stimuli/images/PICTURE_488.png,STYLE,5ef37e2ca184db0e6896d19b,07/07/1955,2020-09-03_22h28.34.430,proactive2,2020.1.2,Win32,60,5f5126bb654d4b30ee6923d8,5f5137e2a80f5b33f40550ae,4,,,,,,sun,,,,,,,,,,,4,0,0,38,38,33,1,,,,,,,,,,,,,,,,,,,,,,,,,,,,,,,,,,,,,,,,,,,,,,,,,,,,,,,,,,,,,,,,,,,,,,,,,,,,,,,,,,,,,,,,,,,,,,
,,?,0.001065,0,,,,,,stimuli/images/PICTURE_491.png,ROOF,5ef37e2ca184db0e6896d19b,07/07/1955,2020-09-03_22h28.34.430,proactive2,2020.1.2,Win32,60,5f5126bb654d4b30ee6923d8,5f5137e2a80f5b33f40550ae,4,,,,,,rug,,,,,,,,,,,3,0,0,39,39,24,1,,,,,,,,,,,,,,,,,,,,,,,,,,,,,,,,,,,,,,,,,,,,,,,,,,,,,,,,,,,,,,,,,,,,,,,,,,,,,,,,,,,,,,,,,,,,,,
,,NO,15.009125,0,,,,,,stimuli/images/PICTURE_177.png,CARS,5ef37e2ca184db0e6896d19b,07/07/1955,2020-09-03_22h28.34.430,proactive2,2020.1.2,Win32,60,5f5126bb654d4b30ee6923d8,5f5137e2a80f5b33f40550ae,4,,,,,,mushroom,,,,,,,,,,,4,0,0,40,40,35,1,,,,,,,,,,,,,,,,,,,,,,,,,,,,,,,,,,,,,,,,,,,,,,,,,,,,,,,,,,,,,,,,,,,,,,,,,,,,,,,,,,,,,,,,,,,,,,
,,?,0.00109,0,,,,,,stimuli/images/PICTURE_255.png,AREA,5ef37e2ca184db0e6896d19b,07/07/1955,2020-09-03_22h28.34.430,proactive2,2020.1.2,Win32,60,5f5126bb654d4b30ee6923d8,5f5137e2a80f5b33f40550ae,4,,,,,,shovel,,,,,,,,,,,3,0,0,41,41,22,1,,,,,,,,,,,,,,,,,,,,,,,,,,,,,,,,,,,,,,,,,,,,,,,,,,,,,,,,,,,,,,,,,,,,,,,,,,,,,,,,,,,,,,,,,,,,,,
,,MILE,15.009015,1,,,,,,stimuli/images/PICTURE_677.png,MILE,5ef37e2ca184db0e6896d19b,07/07/1955,2020-09-03_22h28.34.430,proactive2,2020.1.2,Win32,60,5f5126bb654d4b30ee6923d8,5f5137e2a80f5b33f40550ae,4,,,,,,map,,,,,,,,,,,4,0,0,42,42,30,1,,,,,,,,,,,,,,,,,,,,,,,,,,,,,,,,,,,,,,,,,,,,,,,,,,,,,,,,,,,,,,,,,,,,,,,,,,,,,,,,,,,,,,,,,,,,,,
,,?,0.001085,0,,,,,,stimuli/images/PICTURE_32.png,JUNGLE,5ef37e2ca184db0e6896d19b,07/07/1955,2020-09-03_22h28.34.430,proactive2,2020.1.2,Win32,60,5f5126bb654d4b30ee6923d8,5f5137e2a80f5b33f40550ae,4,,,,,,crown,,,,,,,,,,,5,0,0,43,43,45,1,,,,,,,,,,,,,,,,,,,,,,,,,,,,,,,,,,,,,,,,,,,,,,,,,,,,,,,,,,,,,,,,,,,,,,,,,,,,,,,,,,,,,,,,,,,,,,
,,?,0.000815,0,,,,,,stimuli/images/PICTURE_491.png,WRITER,5ef37e2ca184db0e6896d19b,07/07/1955,2020-09-03_22h28.34.430,proactive2,2020.1.2,Win32,60,5f5126bb654d4b30ee6923d8,5f5137e2a80f5b33f40550ae,4,,,,,,rug,,,,,,,,,,,6,0,0,44,44,57,1,,,,,,,,,,,,,,,,,,,,,,,,,,,,,,,,,,,,,,,,,,,,,,,,,,,,,,,,,,,,,,,,,,,,,,,,,,,,,,,,,,,,,,,,,,,,,,
,,?,0.000775,0,,,,,,stimuli/images/PICTURE_233.png,IDEAS,5ef37e2ca184db0e6896d19b,07/07/1955,2020-09-03_22h28.34.430,proactive2,2020.1.2,Win32,60,5f5126bb654d4b30ee6923d8,5f5137e2a80f5b33f40550ae,4,,,,,,salt,,,,,,,,,,,3,0,0,45,45,28,1,,,,,,,,,,,,,,,,,,,,,,,,,,,,,,,,,,,,,,,,,,,,,,,,,,,,,,,,,,,,,,,,,,,,,,,,,,,,,,,,,,,,,,,,,,,,,,
,,?,0.000785,0,,,,,,stimuli/images/PICTURE_453.png,PLENTY,5ef37e2ca184db0e6896d19b,07/07/1955,2020-09-03_22h28.34.430,proactive2,2020.1.2,Win32,60,5f5126bb654d4b30ee6923d8,5f5137e2a80f5b33f40550ae,4,,,,,,scissors,,,,,,,,,,,6,0,0,46,46,56,1,,,,,,,,,,,,,,,,,,,,,,,,,,,,,,,,,,,,,,,,,,,,,,,,,,,,,,,,,,,,,,,,,,,,,,,,,,,,,,,,,,,,,,,,,,,,,,
,,?,0.000765,0,,,,,,stimuli/images/PICTURE_311.png,BEAUTY,5ef37e2ca184db0e6896d19b,07/07/1955,2020-09-03_22h28.34.430,proactive2,2020.1.2,Win32,60,5f5126bb654d4b30ee6923d8,5f5137e2a80f5b33f40550ae,4,,,,,,razor,,,,,,,,,,,2,0,0,47,47,13,1,,,,,,,,,,,,,,,,,,,,,,,,,,,,,,,,,,,,,,,,,,,,,,,,,,,,,,,,,,,,,,,,,,,,,,,,,,,,,,,,,,,,,,,,,,,,,,
,,?,0.00076,0,,,,,,stimuli/images/PICTURE_667.png,PLENTY,5ef37e2ca184db0e6896d19b,07/07/1955,2020-09-03_22h28.34.430,proactive2,2020.1.2,Win32,60,5f5126bb654d4b30ee6923d8,5f5137e2a80f5b33f40550ae,4,,,,,,daisy,,,,,,,,,,,5,0,0,48,48,41,1,,,,,,,,,,,,,,,,,,,,,,,,,,,,,,,,,,,,,,,,,,,,,,,,,,,,,,,,,,,,,,,,,,,,,,,,,,,,,,,,,,,,,,,,,,,,,,
,,?,0.000775,0,,,,,,stimuli/images/PICTURE_208.png,THING,5ef37e2ca184db0e6896d19b,07/07/1955,2020-09-03_22h28.34.430,proactive2,2020.1.2,Win32,60,5f5126bb654d4b30ee6923d8,5f5137e2a80f5b33f40550ae,4,,,,,,microphone,,,,,,,,,,,5,0,0,49,49,47,1,,,,,,,,,,,,,,,,,,,,,,,,,,,,,,,,,,,,,,,,,,,,,,,,,,,,,,,,,,,,,,,,,,,,,,,,,,,,,,,,,,,,,,,,,,,,,,
,,?,0.003005,0,,,,,,stimuli/images/PICTURE_744.png,SAKE,5ef37e2ca184db0e6896d19b,07/07/1955,2020-09-03_22h28.34.430,proactive2,2020.1.2,Win32,60,5f5126bb654d4b30ee6923d8,5f5137e2a80f5b33f40550ae,4,,,,,,ring,,,,,,,,,,,2,0,0,50,50,17,1,,,,,,,,,,,,,,,,,,,,,,,,,,,,,,,,,,,,,,,,,,,,,,,,,,,,,,,,,,,,,,,,,,,,,,,,,,,,,,,,,,,,,,,,,,,,,,
,,?,0.000825,0,,,,,,stimuli/images/PICTURE_744.png,SYSTEM,5ef37e2ca184db0e6896d19b,07/07/1955,2020-09-03_22h28.34.430,proactive2,2020.1.2,Win32,60,5f5126bb654d4b30ee6923d8,5f5137e2a80f5b33f40550ae,4,,,,,,ring,,,,,,,,,,,5,0,0,51,51,43,1,,,,,,,,,,,,,,,,,,,,,,,,,,,,,,,,,,,,,,,,,,,,,,,,,,,,,,,,,,,,,,,,,,,,,,,,,,,,,,,,,,,,,,,,,,,,,,
,,?,0.00082,0,,,,,,stimuli/images/PICTURE_380.png,PHOTO,5ef37e2ca184db0e6896d19b,07/07/1955,2020-09-03_22h28.34.430,proactive2,2020.1.2,Win32,60,5f5126bb654d4b30ee6923d8,5f5137e2a80f5b33f40550ae,4,,,,,,gorilla,,,,,,,,,,,6,0,0,52,52,52,1,,,,,,,,,,,,,,,,,,,,,,,,,,,,,,,,,,,,,,,,,,,,,,,,,,,,,,,,,,,,,,,,,,,,,,,,,,,,,,,,,,,,,,,,,,,,,,
,,?,0.00079,0,,,,,,stimuli/images/PICTURE_667.png,BATH,5ef37e2ca184db0e6896d19b,07/07/1955,2020-09-03_22h28.34.430,proactive2,2020.1.2,Win32,60,5f5126bb654d4b30ee6923d8,5f5137e2a80f5b33f40550ae,4,,,,,,daisy,,,,,,,,,,,1,0,0,53,53,4,1,,,,,,,,,,,,,,,,,,,,,,,,,,,,,,,,,,,,,,,,,,,,,,,,,,,,,,,,,,,,,,,,,,,,,,,,,,,,,,,,,,,,,,,,,,,,,,
,,FULL,15.003085,0,,,,,,stimuli/images/PICTURE_215.png,PLENTY,5ef37e2ca184db0e6896d19b,07/07/1955,2020-09-03_22h28.34.430,proactive2,2020.1.2,Win32,60,5f5126bb654d4b30ee6923d8,5f5137e2a80f5b33f40550ae,4,,,,,,boot,,,,,,,,,,,4,0,0,54,54,37,1,,,,,,,,,,,,,,,,,,,,,,,,,,,,,,,,,,,,,,,,,,,,,,,,,,,,,,,,,,,,,,,,,,,,,,,,,,,,,,,,,,,,,,,,,,,,,,
,,?,0.001105,0,,,,,,stimuli/images/PICTURE_203.png,ARTIST,5ef37e2ca184db0e6896d19b,07/07/1955,2020-09-03_22h28.34.430,proactive2,2020.1.2,Win32,60,5f5126bb654d4b30ee6923d8,5f5137e2a80f5b33f40550ae,4,,,,,,cap,,,,,,,,,,,3,0,0,55,55,26,1,,,,,,,,,,,,,,,,,,,,,,,,,,,,,,,,,,,,,,,,,,,,,,,,,,,,,,,,,,,,,,,,,,,,,,,,,,,,,,,,,,,,,,,,,,,,,,
,,?,0.00079,0,,,,,,stimuli/images/PICTURE_509.png,PHOTO,5ef37e2ca184db0e6896d19b,07/07/1955,2020-09-03_22h28.34.430,proactive2,2020.1.2,Win32,60,5f5126bb654d4b30ee6923d8,5f5137e2a80f5b33f40550ae,4,,,,,,telephone,,,,,,,,,,,3,0,0,56,56,21,1,,,,,,,,,,,,,,,,,,,,,,,,,,,,,,,,,,,,,,,,,,,,,,,,,,,,,,,,,,,,,,,,,,,,,,,,,,,,,,,,,,,,,,,,,,,,,,
,,?,0.000855,0,,,,,,stimuli/images/PICTURE_302.png,FAMILY,5ef37e2ca184db0e6896d19b,07/07/1955,2020-09-03_22h28.34.430,proactive2,2020.1.2,Win32,60,5f5126bb654d4b30ee6923d8,5f5137e2a80f5b33f40550ae,4,,,,,,taxi,,,,,,,,,,,2,0,0,57,57,18,1,,,,,,,,,,,,,,,,,,,,,,,,,,,,,,,,,,,,,,,,,,,,,,,,,,,,,,,,,,,,,,,,,,,,,,,,,,,,,,,,,,,,,,,,,,,,,,
,,CASINO,10.50409,0,,,,,,stimuli/images/PICTURE_708.png,PENNY,5ef37e2ca184db0e6896d19b,07/07/1955,2020-09-03_22h28.34.430,proactive2,2020.1.2,Win32,60,5f5126bb654d4b30ee6923d8,5f5137e2a80f5b33f40550ae,4,,,,,,monkey,,,,,,,,,,,4,0,0,58,58,31,1,,,,,,,,,,,,,,,,,,,,,,,,,,,,,,,,,,,,,,,,,,,,,,,,,,,,,,,,,,,,,,,,,,,,,,,,,,,,,,,,,,,,,,,,,,,,,,
,,?,0.00105,0,,,,,,stimuli/images/PICTURE_469.png,LETTER,5ef37e2ca184db0e6896d19b,07/07/1955,2020-09-03_22h28.34.430,proactive2,2020.1.2,Win32,60,5f5126bb654d4b30ee6923d8,5f5137e2a80f5b33f40550ae,4,,,,,,stool,,,,,,,,,,,5,0,0,59,59,42,1,,,,,,,,,,,,,,,,,,,,,,,,,,,,,,,,,,,,,,,,,,,,,,,,,,,,,,,,,,,,,,,,,,,,,,,,,,,,,,,,,,,,,,,,,,,,,,
,,,,,,,,,,,,5ef37e2ca184db0e6896d19b,07/07/1955,2020-09-03_22h28.34.430,proactive2,2020.1.2,Win32,60,5f5126bb654d4b30ee6923d8,5f5137e2a80f5b33f40550ae,4,,,,,,,,,,,,,,,,,,,,,,,,0,0,0,0,1,stimuli/learn-block1.csv,,,,,,,,,,,,,,,,,,,,,,,,,,,,,,,,,,,,,,,,,,,,,,,,,,,,,,,,,,,,,,,,,,,,,,,,,,,,,,,,,,,,,,,,
,,,,,,,,,,stimuli/images/PICTURE_383.png,WRITER,5ef37e2ca184db0e6896d19b,07/07/1955,2020-09-03_22h28.34.430,proactive2,2020.1.2,Win32,60,5f5126bb654d4b30ee6923d8,5f5137e2a80f5b33f40550ae,4,,,,,,coin,,,,,,0,0,0,28,1,3,1,,,,,,,,,,,,,,,,,,,,,,,,,,,,,,,,,,,,,,,,,,,,,,,,,,,,,,,,,,,,,,,,,,,,,,,,,,,,,,,,,,,,,,,,,,,,,,,,,,,
,,,,,,,,,,stimuli/images/PICTURE_42.png,BOYS,5ef37e2ca184db0e6896d19b,07/07/1955,2020-09-03_22h28.34.430,proactive2,2020.1.2,Win32,60,5f5126bb654d4b30ee6923d8,5f5137e2a80f5b33f40550ae,4,,,,,,pear,,,,,,0,1,1,55,1,6,1,,,,,,,,,,,,,,,,,,,,,,,,,,,,,,,,,,,,,,,,,,,,,,,,,,,,,,,,,,,,,,,,,,,,,,,,,,,,,,,,,,,,,,,,,,,,,,,,,,,
,,,,,,,,,,stimuli/images/PICTURE_203.png,GODS,5ef37e2ca184db0e6896d19b,07/07/1955,2020-09-03_22h28.34.430,proactive2,2020.1.2,Win32,60,5f5126bb654d4b30ee6923d8,5f5137e2a80f5b33f40550ae,4,,,,,,cap,,,,,,0,2,2,30,1,4,1,,,,,,,,,,,,,,,,,,,,,,,,,,,,,,,,,,,,,,,,,,,,,,,,,,,,,,,,,,,,,,,,,,,,,,,,,,,,,,,,,,,,,,,,,,,,,,,,,,,
,,,,,,,,,,stimuli/images/PICTURE_380.png,CANDY,5ef37e2ca184db0e6896d19b,07/07/1955,2020-09-03_22h28.34.430,proactive2,2020.1.2,Win32,60,5f5126bb654d4b30ee6923d8,5f5137e2a80f5b33f40550ae,4,,,,,,gorilla,,,,,,0,3,3,0,1,1,1,,,,,,,,,,,,,,,,,,,,,,,,,,,,,,,,,,,,,,,,,,,,,,,,,,,,,,,,,,,,,,,,,,,,,,,,,,,,,,,,,,,,,,,,,,,,,,,,,,,
,,,,,,,,,,stimuli/images/PICTURE_85.png,NATION,5ef37e2ca184db0e6896d19b,07/07/1955,2020-09-03_22h28.34.430,proactive2,2020.1.2,Win32,60,5f5126bb654d4b30ee6923d8,5f5137e2a80f5b33f40550ae,4,,,,,,diamond,,,,,,0,4,4,5,1,1,1,,,,,,,,,,,,,,,,,,,,,,,,,,,,,,,,,,,,,,,,,,,,,,,,,,,,,,,,,,,,,,,,,,,,,,,,,,,,,,,,,,,,,,,,,,,,,,,,,,,
,,,,,,,,,,stimuli/images/PICTURE_177.png,WRITER,5ef37e2ca184db0e6896d19b,07/07/1955,2020-09-03_22h28.34.430,proactive2,2020.1.2,Win32,60,5f5126bb654d4b30ee6923d8,5f5137e2a80f5b33f40550ae,4,,,,,,mushroom,,,,,,0,5,5,41,1,5,1,,,,,,,,,,,,,,,,,,,,,,,,,,,,,,,,,,,,,,,,,,,,,,,,,,,,,,,,,,,,,,,,,,,,,,,,,,,,,,,,,,,,,,,,,,,,,,,,,,,
,,,,,,,,,,stimuli/images/PICTURE_2.png,FLIGHT,5ef37e2ca184db0e6896d19b,07/07/1955,2020-09-03_22h28.34.430,proactive2,2020.1.2,Win32,60,5f5126bb654d4b30ee6923d8,5f5137e2a80f5b33f40550ae,4,,,,,,tyre,,,,,,0,6,6,15,1,2,1,,,,,,,,,,,,,,,,,,,,,,,,,,,,,,,,,,,,,,,,,,,,,,,,,,,,,,,,,,,,,,,,,,,,,,,,,,,,,,,,,,,,,,,,,,,,,,,,,,,
,,,,,,,,,,stimuli/images/PICTURE_208.png,SYSTEM,5ef37e2ca184db0e6896d19b,07/07/1955,2020-09-03_22h28.34.430,proactive2,2020.1.2,Win32,60,5f5126bb654d4b30ee6923d8,5f5137e2a80f5b33f40550ae,4,,,,,,microphone,,,,,,0,7,7,32,1,4,1,,,,,,,,,,,,,,,,,,,,,,,,,,,,,,,,,,,,,,,,,,,,,,,,,,,,,,,,,,,,,,,,,,,,,,,,,,,,,,,,,,,,,,,,,,,,,,,,,,,
,,,,,,,,,,stimuli/images/PICTURE_750.png,HOTEL,5ef37e2ca184db0e6896d19b,07/07/1955,2020-09-03_22h28.34.430,proactive2,2020.1.2,Win32,60,5f5126bb654d4b30ee6923d8,5f5137e2a80f5b33f40550ae,4,,,,,,kettle,,,,,,0,8,8,27,1,3,1,,,,,,,,,,,,,,,,,,,,,,,,,,,,,,,,,,,,,,,,,,,,,,,,,,,,,,,,,,,,,,,,,,,,,,,,,,,,,,,,,,,,,,,,,,,,,,,,,,,
,,,,,,,,,,stimuli/images/PICTURE_108.png,POLICY,5ef37e2ca184db0e6896d19b,07/07/1955,2020-09-03_22h28.34.430,proactive2,2020.1.2,Win32,60,5f5126bb654d4b30ee6923d8,5f5137e2a80f5b33f40550ae,4,,,,,,calendar,,,,,,0,9,9,22,1,3,1,,,,,,,,,,,,,,,,,,,,,,,,,,,,,,,,,,,,,,,,,,,,,,,,,,,,,,,,,,,,,,,,,,,,,,,,,,,,,,,,,,,,,,,,,,,,,,,,,,,
,,,,,,,,,,stimuli/images/PICTURE_33.png,FRIEND,5ef37e2ca184db0e6896d19b,07/07/1955,2020-09-03_22h28.34.430,proactive2,2020.1.2,Win32,60,5f5126bb654d4b30ee6923d8,5f5137e2a80f5b33f40550ae,4,,,,,,frame,,,,,,0,10,10,8,1,1,1,,,,,,,,,,,,,,,,,,,,,,,,,,,,,,,,,,,,,,,,,,,,,,,,,,,,,,,,,,,,,,,,,,,,,,,,,,,,,,,,,,,,,,,,,,,,,,,,,,,
,,,,,,,,,,stimuli/images/PICTURE_308.png,FAMILY,5ef37e2ca184db0e6896d19b,07/07/1955,2020-09-03_22h28.34.430,proactive2,2020.1.2,Win32,60,5f5126bb654d4b30ee6923d8,5f5137e2a80f5b33f40550ae,4,,,,,,dice,,,,,,0,11,11,36,1,4,1,,,,,,,,,,,,,,,,,,,,,,,,,,,,,,,,,,,,,,,,,,,,,,,,,,,,,,,,,,,,,,,,,,,,,,,,,,,,,,,,,,,,,,,,,,,,,,,,,,,
,,,,,,,,,,stimuli/images/PICTURE_147.png,YEAR,5ef37e2ca184db0e6896d19b,07/07/1955,2020-09-03_22h28.34.430,proactive2,2020.1.2,Win32,60,5f5126bb654d4b30ee6923d8,5f5137e2a80f5b33f40550ae,4,,,,,,hanger,,,,,,0,12,12,21,1,3,1,,,,,,,,,,,,,,,,,,,,,,,,,,,,,,,,,,,,,,,,,,,,,,,,,,,,,,,,,,,,,,,,,,,,,,,,,,,,,,,,,,,,,,,,,,,,,,,,,,,
,,,,,,,,,,stimuli/images/PICTURE_32.png,PILLS,5ef37e2ca184db0e6896d19b,07/07/1955,2020-09-03_22h28.34.430,proactive2,2020.1.2,Win32,60,5f5126bb654d4b30ee6923d8,5f5137e2a80f5b33f40550ae,4,,,,,,crown,,,,,,0,13,13,18,1,2,1,,,,,,,,,,,,,,,,,,,,,,,,,,,,,,,,,,,,,,,,,,,,,,,,,,,,,,,,,,,,,,,,,,,,,,,,,,,,,,,,,,,,,,,,,,,,,,,,,,,
,,,,,,,,,,stimuli/images/PICTURE_68.png,MILE,5ef37e2ca184db0e6896d19b,07/07/1955,2020-09-03_22h28.34.430,proactive2,2020.1.2,Win32,60,5f5126bb654d4b30ee6923d8,5f5137e2a80f5b33f40550ae,4,,,,,,candle,,,,,,0,14,14,51,1,6,1,,,,,,,,,,,,,,,,,,,,,,,,,,,,,,,,,,,,,,,,,,,,,,,,,,,,,,,,,,,,,,,,,,,,,,,,,,,,,,,,,,,,,,,,,,,,,,,,,,,
,,,,,,,,,,stimuli/images/PICTURE_296.png,LIFE,5ef37e2ca184db0e6896d19b,07/07/1955,2020-09-03_22h28.34.430,proactive2,2020.1.2,Win32,60,5f5126bb654d4b30ee6923d8,5f5137e2a80f5b33f40550ae,4,,,,,,bolt,,,,,,0,15,15,57,1,6,1,,,,,,,,,,,,,,,,,,,,,,,,,,,,,,,,,,,,,,,,,,,,,,,,,,,,,,,,,,,,,,,,,,,,,,,,,,,,,,,,,,,,,,,,,,,,,,,,,,,
,,,,,,,,,,stimuli/images/PICTURE_504.png,ARTIST,5ef37e2ca184db0e6896d19b,07/07/1955,2020-09-03_22h28.34.430,proactive2,2020.1.2,Win32,60,5f5126bb654d4b30ee6923d8,5f5137e2a80f5b33f40550ae,4,,,,,,wheel,,,,,,0,16,16,49,1,5,1,,,,,,,,,,,,,,,,,,,,,,,,,,,,,,,,,,,,,,,,,,,,,,,,,,,,,,,,,,,,,,,,,,,,,,,,,,,,,,,,,,,,,,,,,,,,,,,,,,,
,,,,,,,,,,stimuli/images/PICTURE_297.png,RIVER,5ef37e2ca184db0e6896d19b,07/07/1955,2020-09-03_22h28.34.430,proactive2,2020.1.2,Win32,60,5f5126bb654d4b30ee6923d8,5f5137e2a80f5b33f40550ae,4,,,,,,aeroplane,,,,,,0,17,17,39,1,4,1,,,,,,,,,,,,,,,,,,,,,,,,,,,,,,,,,,,,,,,,,,,,,,,,,,,,,,,,,,,,,,,,,,,,,,,,,,,,,,,,,,,,,,,,,,,,,,,,,,,
,,,,,,,,,,stimuli/images/PICTURE_203.png,NIGHT,5ef37e2ca184db0e6896d19b,07/07/1955,2020-09-03_22h28.34.430,proactive2,2020.1.2,Win32,60,5f5126bb654d4b30ee6923d8,5f5137e2a80f5b33f40550ae,4,,,,,,cap,,,,,,0,18,18,2,1,1,1,,,,,,,,,,,,,,,,,,,,,,,,,,,,,,,,,,,,,,,,,,,,,,,,,,,,,,,,,,,,,,,,,,,,,,,,,,,,,,,,,,,,,,,,,,,,,,,,,,,
,,,,,,,,,,stimuli/images/PICTURE_708.png,RECORD,5ef37e2ca184db0e6896d19b,07/07/1955,2020-09-03_22h28.34.430,proactive2,2020.1.2,Win32,60,5f5126bb654d4b30ee6923d8,5f5137e2a80f5b33f40550ae,4,,,,,,monkey,,,,,,0,19,19,58,1,6,1,,,,,,,,,,,,,,,,,,,,,,,,,,,,,,,,,,,,,,,,,,,,,,,,,,,,,,,,,,,,,,,,,,,,,,,,,,,,,,,,,,,,,,,,,,,,,,,,,,,
,,,,,,,,,,stimuli/images/PICTURE_68.png,ROOF,5ef37e2ca184db0e6896d19b,07/07/1955,2020-09-03_22h28.34.430,proactive2,2020.1.2,Win32,60,5f5126bb654d4b30ee6923d8,5f5137e2a80f5b33f40550ae,4,,,,,,candle,,,,,,0,20,20,38,1,4,1,,,,,,,,,,,,,,,,,,,,,,,,,,,,,,,,,,,,,,,,,,,,,,,,,,,,,,,,,,,,,,,,,,,,,,,,,,,,,,,,,,,,,,,,,,,,,,,,,,,
,,,,,,,,,,stimuli/images/PICTURE_327.png,CASINO,5ef37e2ca184db0e6896d19b,07/07/1955,2020-09-03_22h28.34.430,proactive2,2020.1.2,Win32,60,5f5126bb654d4b30ee6923d8,5f5137e2a80f5b33f40550ae,4,,,,,,helmet,,,,,,0,21,21,20,1,3,1,,,,,,,,,,,,,,,,,,,,,,,,,,,,,,,,,,,,,,,,,,,,,,,,,,,,,,,,,,,,,,,,,,,,,,,,,,,,,,,,,,,,,,,,,,,,,,,,,,,
,,,,,,,,,,stimuli/images/PICTURE_491.png,RIVER,5ef37e2ca184db0e6896d19b,07/07/1955,2020-09-03_22h28.34.430,proactive2,2020.1.2,Win32,60,5f5126bb654d4b30ee6923d8,5f5137e2a80f5b33f40550ae,4,,,,,,rug,,,,,,0,22,22,6,1,1,1,,,,,,,,,,,,,,,,,,,,,,,,,,,,,,,,,,,,,,,,,,,,,,,,,,,,,,,,,,,,,,,,,,,,,,,,,,,,,,,,,,,,,,,,,,,,,,,,,,,
,,,,,,,,,,stimuli/images/PICTURE_57.png,MOMENT,5ef37e2ca184db0e6896d19b,07/07/1955,2020-09-03_22h28.34.430,proactive2,2020.1.2,Win32,60,5f5126bb654d4b30ee6923d8,5f5137e2a80f5b33f40550ae,4,,,,,,stamp,,,,,,0,23,23,37,1,4,1,,,,,,,,,,,,,,,,,,,,,,,,,,,,,,,,,,,,,,,,,,,,,,,,,,,,,,,,,,,,,,,,,,,,,,,,,,,,,,,,,,,,,,,,,,,,,,,,,,,
,,,,,,,,,,stimuli/images/PICTURE_469.png,AGENT,5ef37e2ca184db0e6896d19b,07/07/1955,2020-09-03_22h28.34.430,proactive2,2020.1.2,Win32,60,5f5126bb654d4b30ee6923d8,5f5137e2a80f5b33f40550ae,4,,,,,,stool,,,,,,0,24,24,16,1,2,1,,,,,,,,,,,,,,,,,,,,,,,,,,,,,,,,,,,,,,,,,,,,,,,,,,,,,,,,,,,,,,,,,,,,,,,,,,,,,,,,,,,,,,,,,,,,,,,,,,,
,,,,,,,,,,stimuli/images/PICTURE_403.png,TOILET,5ef37e2ca184db0e6896d19b,07/07/1955,2020-09-03_22h28.34.430,proactive2,2020.1.2,Win32,60,5f5126bb654d4b30ee6923d8,5f5137e2a80f5b33f40550ae,4,,,,,,cathedral,,,,,,0,25,25,25,1,3,1,,,,,,,,,,,,,,,,,,,,,,,,,,,,,,,,,,,,,,,,,,,,,,,,,,,,,,,,,,,,,,,,,,,,,,,,,,,,,,,,,,,,,,,,,,,,,,,,,,,
,,,,,,,,,,stimuli/images/PICTURE_405.png,PLENTY,5ef37e2ca184db0e6896d19b,07/07/1955,2020-09-03_22h28.34.430,proactive2,2020.1.2,Win32,60,5f5126bb654d4b30ee6923d8,5f5137e2a80f5b33f40550ae,4,,,,,,anchor,,,,,,0,26,26,23,1,3,1,,,,,,,,,,,,,,,,,,,,,,,,,,,,,,,,,,,,,,,,,,,,,,,,,,,,,,,,,,,,,,,,,,,,,,,,,,,,,,,,,,,,,,,,,,,,,,,,,,,
,,,,,,,,,,stimuli/images/PICTURE_380.png,HONEY,5ef37e2ca184db0e6896d19b,07/07/1955,2020-09-03_22h28.34.430,proactive2,2020.1.2,Win32,60,5f5126bb654d4b30ee6923d8,5f5137e2a80f5b33f40550ae,4,,,,,,gorilla,,,,,,0,27,27,19,1,2,1,,,,,,,,,,,,,,,,,,,,,,,,,,,,,,,,,,,,,,,,,,,,,,,,,,,,,,,,,,,,,,,,,,,,,,,,,,,,,,,,,,,,,,,,,,,,,,,,,,,
,,,,,,,,,,stimuli/images/PICTURE_95.png,MILLER,5ef37e2ca184db0e6896d19b,07/07/1955,2020-09-03_22h28.34.430,proactive2,2020.1.2,Win32,60,5f5126bb654d4b30ee6923d8,5f5137e2a80f5b33f40550ae,4,,,,,,suitcase,,,,,,0,28,28,56,1,6,1,,,,,,,,,,,,,,,,,,,,,,,,,,,,,,,,,,,,,,,,,,,,,,,,,,,,,,,,,,,,,,,,,,,,,,,,,,,,,,,,,,,,,,,,,,,,,,,,,,,
,,,,,,,,,,stimuli/images/PICTURE_108.png,FLIGHT,5ef37e2ca184db0e6896d19b,07/07/1955,2020-09-03_22h28.34.430,proactive2,2020.1.2,Win32,60,5f5126bb654d4b30ee6923d8,5f5137e2a80f5b33f40550ae,4,,,,,,calendar,,,,,,0,29,29,59,1,6,1,,,,,,,,,,,,,,,,,,,,,,,,,,,,,,,,,,,,,,,,,,,,,,,,,,,,,,,,,,,,,,,,,,,,,,,,,,,,,,,,,,,,,,,,,,,,,,,,,,,
,,,,,,,,,,stimuli/images/PICTURE_405.png,YEAR,5ef37e2ca184db0e6896d19b,07/07/1955,2020-09-03_22h28.34.430,proactive2,2020.1.2,Win32,60,5f5126bb654d4b30ee6923d8,5f5137e2a80f5b33f40550ae,4,,,,,,anchor,,,,,,0,30,30,34,1,4,1,,,,,,,,,,,,,,,,,,,,,,,,,,,,,,,,,,,,,,,,,,,,,,,,,,,,,,,,,,,,,,,,,,,,,,,,,,,,,,,,,,,,,,,,,,,,,,,,,,,
,,,,,,,,,,stimuli/images/PICTURE_487.png,GIRL,5ef37e2ca184db0e6896d19b,07/07/1955,2020-09-03_22h28.34.430,proactive2,2020.1.2,Win32,60,5f5126bb654d4b30ee6923d8,5f5137e2a80f5b33f40550ae,4,,,,,,basket,,,,,,0,31,31,45,1,5,1,,,,,,,,,,,,,,,,,,,,,,,,,,,,,,,,,,,,,,,,,,,,,,,,,,,,,,,,,,,,,,,,,,,,,,,,,,,,,,,,,,,,,,,,,,,,,,,,,,,
,,,,,,,,,,stimuli/images/PICTURE_685.png,PENNY,5ef37e2ca184db0e6896d19b,07/07/1955,2020-09-03_22h28.34.430,proactive2,2020.1.2,Win32,60,5f5126bb654d4b30ee6923d8,5f5137e2a80f5b33f40550ae,4,,,,,,goose,,,,,,0,32,32,4,1,1,1,,,,,,,,,,,,,,,,,,,,,,,,,,,,,,,,,,,,,,,,,,,,,,,,,,,,,,,,,,,,,,,,,,,,,,,,,,,,,,,,,,,,,,,,,,,,,,,,,,,
,,,,,,,,,,stimuli/images/PICTURE_339.png,CLIENT,5ef37e2ca184db0e6896d19b,07/07/1955,2020-09-03_22h28.34.430,proactive2,2020.1.2,Win32,60,5f5126bb654d4b30ee6923d8,5f5137e2a80f5b33f40550ae,4,,,,,,backpack,,,,,,0,33,33,11,1,2,1,,,,,,,,,,,,,,,,,,,,,,,,,,,,,,,,,,,,,,,,,,,,,,,,,,,,,,,,,,,,,,,,,,,,,,,,,,,,,,,,,,,,,,,,,,,,,,,,,,,
,,,,,,,,,,stimuli/images/PICTURE_285.png,LIFE,5ef37e2ca184db0e6896d19b,07/07/1955,2020-09-03_22h28.34.430,proactive2,2020.1.2,Win32,60,5f5126bb654d4b30ee6923d8,5f5137e2a80f5b33f40550ae,4,,,,,,carrot,,,,,,0,34,34,33,1,4,1,,,,,,,,,,,,,,,,,,,,,,,,,,,,,,,,,,,,,,,,,,,,,,,,,,,,,,,,,,,,,,,,,,,,,,,,,,,,,,,,,,,,,,,,,,,,,,,,,,,
,,,,,,,,,,stimuli/images/PICTURE_744.png,WEAPON,5ef37e2ca184db0e6896d19b,07/07/1955,2020-09-03_22h28.34.430,proactive2,2020.1.2,Win32,60,5f5126bb654d4b30ee6923d8,5f5137e2a80f5b33f40550ae,4,,,,,,ring,,,,,,0,35,35,50,1,6,1,,,,,,,,,,,,,,,,,,,,,,,,,,,,,,,,,,,,,,,,,,,,,,,,,,,,,,,,,,,,,,,,,,,,,,,,,,,,,,,,,,,,,,,,,,,,,,,,,,,
,,,,,,,,,,stimuli/images/PICTURE_95.png,HONEY,5ef37e2ca184db0e6896d19b,07/07/1955,2020-09-03_22h28.34.430,proactive2,2020.1.2,Win32,60,5f5126bb654d4b30ee6923d8,5f5137e2a80f5b33f40550ae,4,,,,,,suitcase,,,,,,0,36,36,44,1,5,1,,,,,,,,,,,,,,,,,,,,,,,,,,,,,,,,,,,,,,,,,,,,,,,,,,,,,,,,,,,,,,,,,,,,,,,,,,,,,,,,,,,,,,,,,,,,,,,,,,,
,,,,,,,,,,stimuli/images/PICTURE_85.png,TOILET,5ef37e2ca184db0e6896d19b,07/07/1955,2020-09-03_22h28.34.430,proactive2,2020.1.2,Win32,60,5f5126bb654d4b30ee6923d8,5f5137e2a80f5b33f40550ae,4,,,,,,diamond,,,,,,0,37,37,48,1,5,1,,,,,,,,,,,,,,,,,,,,,,,,,,,,,,,,,,,,,,,,,,,,,,,,,,,,,,,,,,,,,,,,,,,,,,,,,,,,,,,,,,,,,,,,,,,,,,,,,,,
,,,,,,,,,,stimuli/images/PICTURE_449.png,DUDE,5ef37e2ca184db0e6896d19b,07/07/1955,2020-09-03_22h28.34.430,proactive2,2020.1.2,Win32,60,5f5126bb654d4b30ee6923d8,5f5137e2a80f5b33f40550ae,4,,,,,,bench,,,,,,0,38,38,17,1,2,1,,,,,,,,,,,,,,,,,,,,,,,,,,,,,,,,,,,,,,,,,,,,,,,,,,,,,,,,,,,,,,,,,,,,,,,,,,,,,,,,,,,,,,,,,,,,,,,,,,,
,,,,,,,,,,stimuli/images/PICTURE_564.png,BATH,5ef37e2ca184db0e6896d19b,07/07/1955,2020-09-03_22h28.34.430,proactive2,2020.1.2,Win32,60,5f5126bb654d4b30ee6923d8,5f5137e2a80f5b33f40550ae,4,,,,,,spoon,,,,,,0,39,39,26,1,3,1,,,,,,,,,,,,,,,,,,,,,,,,,,,,,,,,,,,,,,,,,,,,,,,,,,,,,,,,,,,,,,,,,,,,,,,,,,,,,,,,,,,,,,,,,,,,,,,,,,,
,,,,,,,,,,stimuli/images/PICTURE_467.png,POLICY,5ef37e2ca184db0e6896d19b,07/07/1955,2020-09-03_22h28.34.430,proactive2,2020.1.2,Win32,60,5f5126bb654d4b30ee6923d8,5f5137e2a80f5b33f40550ae,4,,,,,,peg,,,,,,0,40,40,53,1,6,1,,,,,,,,,,,,,,,,,,,,,,,,,,,,,,,,,,,,,,,,,,,,,,,,,,,,,,,,,,,,,,,,,,,,,,,,,,,,,,,,,,,,,,,,,,,,,,,,,,,
,,,,,,,,,,stimuli/images/PICTURE_403.png,WRITER,5ef37e2ca184db0e6896d19b,07/07/1955,2020-09-03_22h28.34.430,proactive2,2020.1.2,Win32,60,5f5126bb654d4b30ee6923d8,5f5137e2a80f5b33f40550ae,4,,,,,,cathedral,,,,,,0,41,41,31,1,4,1,,,,,,,,,,,,,,,,,,,,,,,,,,,,,,,,,,,,,,,,,,,,,,,,,,,,,,,,,,,,,,,,,,,,,,,,,,,,,,,,,,,,,,,,,,,,,,,,,,,
,,,,,,,,,,stimuli/images/PICTURE_147.png,WOMEN,5ef37e2ca184db0e6896d19b,07/07/1955,2020-09-03_22h28.34.430,proactive2,2020.1.2,Win32,60,5f5126bb654d4b30ee6923d8,5f5137e2a80f5b33f40550ae,4,,,,,,hanger,,,,,,0,42,42,7,1,1,1,,,,,,,,,,,,,,,,,,,,,,,,,,,,,,,,,,,,,,,,,,,,,,,,,,,,,,,,,,,,,,,,,,,,,,,,,,,,,,,,,,,,,,,,,,,,,,,,,,,
,,,,,,,,,,stimuli/images/PICTURE_655.png,TOILET,5ef37e2ca184db0e6896d19b,07/07/1955,2020-09-03_22h28.34.430,proactive2,2020.1.2,Win32,60,5f5126bb654d4b30ee6923d8,5f5137e2a80f5b33f40550ae,4,,,,,,megaphone,,,,,,0,43,43,12,1,2,1,,,,,,,,,,,,,,,,,,,,,,,,,,,,,,,,,,,,,,,,,,,,,,,,,,,,,,,,,,,,,,,,,,,,,,,,,,,,,,,,,,,,,,,,,,,,,,,,,,,
,,,,,,,,,,stimuli/images/PICTURE_233.png,LOTS,5ef37e2ca184db0e6896d19b,07/07/1955,2020-09-03_22h28.34.430,proactive2,2020.1.2,Win32,60,5f5126bb654d4b30ee6923d8,5f5137e2a80f5b33f40550ae,4,,,,,,salt,,,,,,0,44,44,42,1,5,1,,,,,,,,,,,,,,,,,,,,,,,,,,,,,,,,,,,,,,,,,,,,,,,,,,,,,,,,,,,,,,,,,,,,,,,,,,,,,,,,,,,,,,,,,,,,,,,,,,,
,,,,,,,,,,stimuli/images/PICTURE_327.png,SERIES,5ef37e2ca184db0e6896d19b,07/07/1955,2020-09-03_22h28.34.430,proactive2,2020.1.2,Win32,60,5f5126bb654d4b30ee6923d8,5f5137e2a80f5b33f40550ae,4,,,,,,helmet,,,,,,0,45,45,3,1,1,1,,,,,,,,,,,,,,,,,,,,,,,,,,,,,,,,,,,,,,,,,,,,,,,,,,,,,,,,,,,,,,,,,,,,,,,,,,,,,,,,,,,,,,,,,,,,,,,,,,,
,,,,,,,,,,stimuli/images/PICTURE_504.png,COPS,5ef37e2ca184db0e6896d19b,07/07/1955,2020-09-03_22h28.34.430,proactive2,2020.1.2,Win32,60,5f5126bb654d4b30ee6923d8,5f5137e2a80f5b33f40550ae,4,,,,,,wheel,,,,,,0,46,46,52,1,6,1,,,,,,,,,,,,,,,,,,,,,,,,,,,,,,,,,,,,,,,,,,,,,,,,,,,,,,,,,,,,,,,,,,,,,,,,,,,,,,,,,,,,,,,,,,,,,,,,,,,
,,,,,,,,,,stimuli/images/PICTURE_504.png,YEAR,5ef37e2ca184db0e6896d19b,07/07/1955,2020-09-03_22h28.34.430,proactive2,2020.1.2,Win32,60,5f5126bb654d4b30ee6923d8,5f5137e2a80f5b33f40550ae,4,,,,,,wheel,,,,,,0,47,47,13,1,2,1,,,,,,,,,,,,,,,,,,,,,,,,,,,,,,,,,,,,,,,,,,,,,,,,,,,,,,,,,,,,,,,,,,,,,,,,,,,,,,,,,,,,,,,,,,,,,,,,,,,
,,,,,,,,,,stimuli/images/PICTURE_675.png,SALE,5ef37e2ca184db0e6896d19b,07/07/1955,2020-09-03_22h28.34.430,proactive2,2020.1.2,Win32,60,5f5126bb654d4b30ee6923d8,5f5137e2a80f5b33f40550ae,4,,,,,,windmill,,,,,,0,48,48,47,1,5,1,,,,,,,,,,,,,,,,,,,,,,,,,,,,,,,,,,,,,,,,,,,,,,,,,,,,,,,,,,,,,,,,,,,,,,,,,,,,,,,,,,,,,,,,,,,,,,,,,,,
,,,,,,,,,,stimuli/images/PICTURE_491.png,GLASS,5ef37e2ca184db0e6896d19b,07/07/1955,2020-09-03_22h28.34.430,proactive2,2020.1.2,Win32,60,5f5126bb654d4b30ee6923d8,5f5137e2a80f5b33f40550ae,4,,,,,,rug,,,,,,0,49,49,14,1,2,1,,,,,,,,,,,,,,,,,,,,,,,,,,,,,,,,,,,,,,,,,,,,,,,,,,,,,,,,,,,,,,,,,,,,,,,,,,,,,,,,,,,,,,,,,,,,,,,,,,,
,,,,,,,,,,stimuli/images/PICTURE_654.png,MONTH,5ef37e2ca184db0e6896d19b,07/07/1955,2020-09-03_22h28.34.430,proactive2,2020.1.2,Win32,60,5f5126bb654d4b30ee6923d8,5f5137e2a80f5b33f40550ae,4,,,,,,pencil,,,,,,0,50,50,29,1,3,1,,,,,,,,,,,,,,,,,,,,,,,,,,,,,,,,,,,,,,,,,,,,,,,,,,,,,,,,,,,,,,,,,,,,,,,,,,,,,,,,,,,,,,,,,,,,,,,,,,,
,,,,,,,,,,stimuli/images/PICTURE_95.png,BOYS,5ef37e2ca184db0e6896d19b,07/07/1955,2020-09-03_22h28.34.430,proactive2,2020.1.2,Win32,60,5f5126bb654d4b30ee6923d8,5f5137e2a80f5b33f40550ae,4,,,,,,suitcase,,,,,,0,51,51,1,1,1,1,,,,,,,,,,,,,,,,,,,,,,,,,,,,,,,,,,,,,,,,,,,,,,,,,,,,,,,,,,,,,,,,,,,,,,,,,,,,,,,,,,,,,,,,,,,,,,,,,,,
,,,,,,,,,,stimuli/images/PICTURE_403.png,RIVER,5ef37e2ca184db0e6896d19b,07/07/1955,2020-09-03_22h28.34.430,proactive2,2020.1.2,Win32,60,5f5126bb654d4b30ee6923d8,5f5137e2a80f5b33f40550ae,4,,,,,,cathedral,,,,,,0,52,52,40,1,5,1,,,,,,,,,,,,,,,,,,,,,,,,,,,,,,,,,,,,,,,,,,,,,,,,,,,,,,,,,,,,,,,,,,,,,,,,,,,,,,,,,,,,,,,,,,,,,,,,,,,
,,,,,,,,,,stimuli/images/PICTURE_340.png,LETTER,5ef37e2ca184db0e6896d19b,07/07/1955,2020-09-03_22h28.34.430,proactive2,2020.1.2,Win32,60,5f5126bb654d4b30ee6923d8,5f5137e2a80f5b33f40550ae,4,,,,,,mirror,,,,,,0,53,53,24,1,3,1,,,,,,,,,,,,,,,,,,,,,,,,,,,,,,,,,,,,,,,,,,,,,,,,,,,,,,,,,,,,,,,,,,,,,,,,,,,,,,,,,,,,,,,,,,,,,,,,,,,
,,,,,,,,,,stimuli/images/PICTURE_340.png,VALLEY,5ef37e2ca184db0e6896d19b,07/07/1955,2020-09-03_22h28.34.430,proactive2,2020.1.2,Win32,60,5f5126bb654d4b30ee6923d8,5f5137e2a80f5b33f40550ae,4,,,,,,mirror,,,,,,0,54,54,54,1,6,1,,,,,,,,,,,,,,,,,,,,,,,,,,,,,,,,,,,,,,,,,,,,,,,,,,,,,,,,,,,,,,,,,,,,,,,,,,,,,,,,,,,,,,,,,,,,,,,,,,,
,,,,,,,,,,stimuli/images/PICTURE_296.png,LOTS,5ef37e2ca184db0e6896d19b,07/07/1955,2020-09-03_22h28.34.430,proactive2,2020.1.2,Win32,60,5f5126bb654d4b30ee6923d8,5f5137e2a80f5b33f40550ae,4,,,,,,bolt,,,,,,0,55,55,9,1,1,1,,,,,,,,,,,,,,,,,,,,,,,,,,,,,,,,,,,,,,,,,,,,,,,,,,,,,,,,,,,,,,,,,,,,,,,,,,,,,,,,,,,,,,,,,,,,,,,,,,,
,,,,,,,,,,stimuli/images/PICTURE_383.png,SERIES,5ef37e2ca184db0e6896d19b,07/07/1955,2020-09-03_22h28.34.430,proactive2,2020.1.2,Win32,60,5f5126bb654d4b30ee6923d8,5f5137e2a80f5b33f40550ae,4,,,,,,coin,,,,,,0,56,56,46,1,5,1,,,,,,,,,,,,,,,,,,,,,,,,,,,,,,,,,,,,,,,,,,,,,,,,,,,,,,,,,,,,,,,,,,,,,,,,,,,,,,,,,,,,,,,,,,,,,,,,,,,
,,,,,,,,,,stimuli/images/PICTURE_32.png,KIND,5ef37e2ca184db0e6896d19b,07/07/1955,2020-09-03_22h28.34.430,proactive2,2020.1.2,Win32,60,5f5126bb654d4b30ee6923d8,5f5137e2a80f5b33f40550ae,4,,,,,,crown,,,,,,0,57,57,35,1,4,1,,,,,,,,,,,,,,,,,,,,,,,,,,,,,,,,,,,,,,,,,,,,,,,,,,,,,,,,,,,,,,,,,,,,,,,,,,,,,,,,,,,,,,,,,,,,,,,,,,,
,,,,,,,,,,stimuli/images/PICTURE_667.png,RIVER,5ef37e2ca184db0e6896d19b,07/07/1955,2020-09-03_22h28.34.430,proactive2,2020.1.2,Win32,60,5f5126bb654d4b30ee6923d8,5f5137e2a80f5b33f40550ae,4,,,,,,daisy,,,,,,0,58,58,10,1,2,1,,,,,,,,,,,,,,,,,,,,,,,,,,,,,,,,,,,,,,,,,,,,,,,,,,,,,,,,,,,,,,,,,,,,,,,,,,,,,,,,,,,,,,,,,,,,,,,,,,,
,,,15.001695,0,,,,,,stimuli/images/PICTURE_285.png,LIFE,5ef37e2ca184db0e6896d19b,07/07/1955,2020-09-03_22h28.34.430,proactive2,2020.1.2,Win32,60,5f5126bb654d4b30ee6923d8,5f5137e2a80f5b33f40550ae,4,,,,,,carrot,,,,,,,,,,,4,1,0,0,0,33,1,,,,,,,,,,,,,,,,,,,,,,,,,,,,,,,,,,,,,,,,,,,,,,,,,,,,,,,,,,,,,,,,,,,,,,,,,,,,,,,,,,,,,,,,,,,,,,
,,?,0.001045,0,,,,,,stimuli/images/PICTURE_469.png,AGENT,5ef37e2ca184db0e6896d19b,07/07/1955,2020-09-03_22h28.34.430,proactive2,2020.1.2,Win32,60,5f5126bb654d4b30ee6923d8,5f5137e2a80f5b33f40550ae,4,,,,,,stool,,,,,,,,,,,2,1,0,1,1,16,1,,,,,,,,,,,,,,,,,,,,,,,,,,,,,,,,,,,,,,,,,,,,,,,,,,,,,,,,,,,,,,,,,,,,,,,,,,,,,,,,,,,,,,,,,,,,,,
,,?,0.000785,0,,,,,,stimuli/images/PICTURE_95.png,MILLER,5ef37e2ca184db0e6896d19b,07/07/1955,2020-09-03_22h28.34.430,proactive2,2020.1.2,Win32,60,5f5126bb654d4b30ee6923d8,5f5137e2a80f5b33f40550ae,4,,,,,,suitcase,,,,,,,,,,,6,1,0,2,2,56,1,,,,,,,,,,,,,,,,,,,,,,,,,,,,,,,,,,,,,,,,,,,,,,,,,,,,,,,,,,,,,,,,,,,,,,,,,,,,,,,,,,,,,,,,,,,,,,
,,RIVER,15.005035,1,,,,,,stimuli/images/PICTURE_297.png,RIVER,5ef37e2ca184db0e6896d19b,07/07/1955,2020-09-03_22h28.34.430,proactive2,2020.1.2,Win32,60,5f5126bb654d4b30ee6923d8,5f5137e2a80f5b33f40550ae,4,,,,,,aeroplane,,,,,,,,,,,4,1,0,3,3,39,1,,,,,,,,,,,,,,,,,,,,,,,,,,,,,,,,,,,,,,,,,,,,,,,,,,,,,,,,,,,,,,,,,,,,,,,,,,,,,,,,,,,,,,,,,,,,,,
,,?,0.001195,0,,,,,,stimuli/images/PICTURE_677.png,APPLE,5ef37e2ca184db0e6896d19b,07/07/1955,2020-09-03_22h28.34.430,proactive2,2020.1.2,Win32,60,5f5126bb654d4b30ee6923d8,5f5137e2a80f5b33f40550ae,4,,,,,,map,,,,,,,,,,,5,1,0,4,4,43,1,,,,,,,,,,,,,,,,,,,,,,,,,,,,,,,,,,,,,,,,,,,,,,,,,,,,,,,,,,,,,,,,,,,,,,,,,,,,,,,,,,,,,,,,,,,,,,
,,?,0.00084,0,,,,,,stimuli/images/PICTURE_85.png,NATION,5ef37e2ca184db0e6896d19b,07/07/1955,2020-09-03_22h28.34.430,proactive2,2020.1.2,Win32,60,5f5126bb654d4b30ee6923d8,5f5137e2a80f5b33f40550ae,4,,,,,,diamond,,,,,,,,,,,1,1,0,5,5,5,1,,,,,,,,,,,,,,,,,,,,,,,,,,,,,,,,,,,,,,,,,,,,,,,,,,,,,,,,,,,,,,,,,,,,,,,,,,,,,,,,,,,,,,,,,,,,,,
,,?,0.000775,0,,,,,,stimuli/images/PICTURE_68.png,MILE,5ef37e2ca184db0e6896d19b,07/07/1955,2020-09-03_22h28.34.430,proactive2,2020.1.2,Win32,60,5f5126bb654d4b30ee6923d8,5f5137e2a80f5b33f40550ae,4,,,,,,candle,,,,,,,,,,,6,1,0,6,6,51,1,,,,,,,,,,,,,,,,,,,,,,,,,,,,,,,,,,,,,,,,,,,,,,,,,,,,,,,,,,,,,,,,,,,,,,,,,,,,,,,,,,,,,,,,,,,,,,
,,?,0.00082,0,,,,,,stimuli/images/PICTURE_708.png,RECORD,5ef37e2ca184db0e6896d19b,07/07/1955,2020-09-03_22h28.34.430,proactive2,2020.1.2,Win32,60,5f5126bb654d4b30ee6923d8,5f5137e2a80f5b33f40550ae,4,,,,,,monkey,,,,,,,,,,,6,1,0,7,7,58,1,,,,,,,,,,,,,,,,,,,,,,,,,,,,,,,,,,,,,,,,,,,,,,,,,,,,,,,,,,,,,,,,,,,,,,,,,,,,,,,,,,,,,,,,,,,,,,
,,WRITER,15.0025,1,,,,,,stimuli/images/PICTURE_403.png,WRITER,5ef37e2ca184db0e6896d19b,07/07/1955,2020-09-03_22h28.34.430,proactive2,2020.1.2,Win32,60,5f5126bb654d4b30ee6923d8,5f5137e2a80f5b33f40550ae,4,,,,,,cathedral,,,,,,,,,,,4,1,0,8,8,31,1,,,,,,,,,,,,,,,,,,,,,,,,,,,,,,,,,,,,,,,,,,,,,,,,,,,,,,,,,,,,,,,,,,,,,,,,,,,,,,,,,,,,,,,,,,,,,,
,,GODS,15.0112,1,,,,,,stimuli/images/PICTURE_203.png,GODS,5ef37e2ca184db0e6896d19b,07/07/1955,2020-09-03_22h28.34.430,proactive2,2020.1.2,Win32,60,5f5126bb654d4b30ee6923d8,5f5137e2a80f5b33f40550ae,4,,,,,,cap,,,,,,,,,,,4,1,0,9,9,30,1,,,,,,,,,,,,,,,,,,,,,,,,,,,,,,,,,,,,,,,,,,,,,,,,,,,,,,,,,,,,,,,,,,,,,,,,,,,,,,,,,,,,,,,,,,,,,,
,,?,0.00108,0,,,,,,stimuli/images/PICTURE_233.png,LOTS,5ef37e2ca184db0e6896d19b,07/07/1955,2020-09-03_22h28.34.430,proactive2,2020.1.2,Win32,60,5f5126bb654d4b30ee6923d8,5f5137e2a80f5b33f40550ae,4,,,,,,salt,,,,,,,,,,,5,1,0,10,10,42,1,,,,,,,,,,,,,,,,,,,,,,,,,,,,,,,,,,,,,,,,,,,,,,,,,,,,,,,,,,,,,,,,,,,,,,,,,,,,,,,,,,,,,,,,,,,,,,
,,?,0.000825,0,,,,,,stimuli/images/PICTURE_32.png,PILLS,5ef37e2ca184db0e6896d19b,07/07/1955,2020-09-03_22h28.34.430,proactive2,2020.1.2,Win32,60,5f5126bb654d4b30ee6923d8,5f5137e2a80f5b33f40550ae,4,,,,,,crown,,,,,,,,,,,2,1,0,11,11,18,1,,,,,,,,,,,,,,,,,,,,,,,,,,,,,,,,,,,,,,,,,,,,,,,,,,,,,,,,,,,,,,,,,,,,,,,,,,,,,,,,,,,,,,,,,,,,,,
,,?,0.000785,0,,,,,,stimuli/images/PICTURE_339.png,CLIENT,5ef37e2ca184db0e6896d19b,07/07/1955,2020-09-03_22h28.34.430,proactive2,2020.1.2,Win32,60,5f5126bb654d4b30ee6923d8,5f5137e2a80f5b33f40550ae,4,,,,,,backpack,,,,,,,,,,,2,1,0,12,12,11,1,,,,,,,,,,,,,,,,,,,,,,,,,,,,,,,,,,,,,,,,,,,,,,,,,,,,,,,,,,,,,,,,,,,,,,,,,,,,,,,,,,,,,,,,,,,,,,
,,?,0.000785,0,,,,,,stimuli/images/PICTURE_449.png,DUDE,5ef37e2ca184db0e6896d19b,07/07/1955,2020-09-03_22h28.34.430,proactive2,2020.1.2,Win32,60,5f5126bb654d4b30ee6923d8,5f5137e2a80f5b33f40550ae,4,,,,,,bench,,,,,,,,,,,2,1,0,13,13,17,1,,,,,,,,,,,,,,,,,,,,,,,,,,,,,,,,,,,,,,,,,,,,,,,,,,,,,,,,,,,,,,,,,,,,,,,,,,,,,,,,,,,,,,,,,,,,,,
,,?,0.000765,0,,,,,,stimuli/images/PICTURE_744.png,WEAPON,5ef37e2ca184db0e6896d19b,07/07/1955,2020-09-03_22h28.34.430,proactive2,2020.1.2,Win32,60,5f5126bb654d4b30ee6923d8,5f5137e2a80f5b33f40550ae,4,,,,,,ring,,,,,,,,,,,6,1,0,14,14,50,1,,,,,,,,,,,,,,,,,,,,,,,,,,,,,,,,,,,,,,,,,,,,,,,,,,,,,,,,,,,,,,,,,,,,,,,,,,,,,,,,,,,,,,,,,,,,,,
,,?,0.00078,0,,,,,,stimuli/images/PICTURE_296.png,LIFE,5ef37e2ca184db0e6896d19b,07/07/1955,2020-09-03_22h28.34.430,proactive2,2020.1.2,Win32,60,5f5126bb654d4b30ee6923d8,5f5137e2a80f5b33f40550ae,4,,,,,,bolt,,,,,,,,,,,6,1,0,15,15,57,1,,,,,,,,,,,,,,,,,,,,,,,,,,,,,,,,,,,,,,,,,,,,,,,,,,,,,,,,,,,,,,,,,,,,,,,,,,,,,,,,,,,,,,,,,,,,,,
,,ROOF,15.015495,1,,,,,,stimuli/images/PICTURE_68.png,ROOF,5ef37e2ca184db0e6896d19b,07/07/1955,2020-09-03_22h28.34.430,proactive2,2020.1.2,Win32,60,5f5126bb654d4b30ee6923d8,5f5137e2a80f5b33f40550ae,4,,,,,,candle,,,,,,,,,,,4,1,0,16,16,38,1,,,,,,,,,,,,,,,,,,,,,,,,,,,,,,,,,,,,,,,,,,,,,,,,,,,,,,,,,,,,,,,,,,,,,,,,,,,,,,,,,,,,,,,,,,,,,,
,,?,0.001205,0,,,,,,stimuli/images/PICTURE_108.png,FLIGHT,5ef37e2ca184db0e6896d19b,07/07/1955,2020-09-03_22h28.34.430,proactive2,2020.1.2,Win32,60,5f5126bb654d4b30ee6923d8,5f5137e2a80f5b33f40550ae,4,,,,,,calendar,,,,,,,,,,,6,1,0,17,17,59,1,,,,,,,,,,,,,,,,,,,,,,,,,,,,,,,,,,,,,,,,,,,,,,,,,,,,,,,,,,,,,,,,,,,,,,,,,,,,,,,,,,,,,,,,,,,,,,
,,FAMILY,15.007975,1,,,,,,stimuli/images/PICTURE_308.png,FAMILY,5ef37e2ca184db0e6896d19b,07/07/1955,2020-09-03_22h28.34.430,proactive2,2020.1.2,Win32,60,5f5126bb654d4b30ee6923d8,5f5137e2a80f5b33f40550ae,4,,,,,,dice,,,,,,,,,,,4,1,0,18,18,36,1,,,,,,,,,,,,,,,,,,,,,,,,,,,,,,,,,,,,,,,,,,,,,,,,,,,,,,,,,,,,,,,,,,,,,,,,,,,,,,,,,,,,,,,,,,,,,,
,,?,0.00112,0,,,,,,stimuli/images/PICTURE_85.png,TOILET,5ef37e2ca184db0e6896d19b,07/07/1955,2020-09-03_22h28.34.430,proactive2,2020.1.2,Win32,60,5f5126bb654d4b30ee6923d8,5f5137e2a80f5b33f40550ae,4,,,,,,diamond,,,,,,,,,,,5,1,0,19,19,48,1,,,,,,,,,,,,,,,,,,,,,,,,,,,,,,,,,,,,,,,,,,,,,,,,,,,,,,,,,,,,,,,,,,,,,,,,,,,,,,,,,,,,,,,,,,,,,,
,,?,0.0008,0,,,,,,stimuli/images/PICTURE_655.png,TOILET,5ef37e2ca184db0e6896d19b,07/07/1955,2020-09-03_22h28.34.430,proactive2,2020.1.2,Win32,60,5f5126bb654d4b30ee6923d8,5f5137e2a80f5b33f40550ae,4,,,,,,megaphone,,,,,,,,,,,2,1,0,20,20,12,1,,,,,,,,,,,,,,,,,,,,,,,,,,,,,,,,,,,,,,,,,,,,,,,,,,,,,,,,,,,,,,,,,,,,,,,,,,,,,,,,,,,,,,,,,,,,,,
,,SYSTEM,15.00484,1,,,,,,stimuli/images/PICTURE_208.png,SYSTEM,5ef37e2ca184db0e6896d19b,07/07/1955,2020-09-03_22h28.34.430,proactive2,2020.1.2,Win32,60,5f5126bb654d4b30ee6923d8,5f5137e2a80f5b33f40550ae,4,,,,,,microphone,,,,,,,,,,,4,1,0,21,21,32,1,,,,,,,,,,,,,,,,,,,,,,,,,,,,,,,,,,,,,,,,,,,,,,,,,,,,,,,,,,,,,,,,,,,,,,,,,,,,,,,,,,,,,,,,,,,,,,
,,?,0.00117,0,,,,,,stimuli/images/PICTURE_340.png,VALLEY,5ef37e2ca184db0e6896d19b,07/07/1955,2020-09-03_22h28.34.430,proactive2,2020.1.2,Win32,60,5f5126bb654d4b30ee6923d8,5f5137e2a80f5b33f40550ae,4,,,,,,mirror,,,,,,,,,,,6,1,0,22,22,54,1,,,,,,,,,,,,,,,,,,,,,,,,,,,,,,,,,,,,,,,,,,,,,,,,,,,,,,,,,,,,,,,,,,,,,,,,,,,,,,,,,,,,,,,,,,,,,,
,,?,0.000835,0,,,,,,stimuli/images/PICTURE_147.png,WOMEN,5ef37e2ca184db0e6896d19b,07/07/1955,2020-09-03_22h28.34.430,proactive2,2020.1.2,Win32,60,5f5126bb654d4b30ee6923d8,5f5137e2a80f5b33f40550ae,4,,,,,,hanger,,,,,,,,,,,1,1,0,23,23,7,1,,,,,,,,,,,,,,,,,,,,,,,,,,,,,,,,,,,,,,,,,,,,,,,,,,,,,,,,,,,,,,,,,,,,,,,,,,,,,,,,,,,,,,,,,,,,,,
,,?,0.00081,0,,,,,,stimuli/images/PICTURE_403.png,TOILET,5ef37e2ca184db0e6896d19b,07/07/1955,2020-09-03_22h28.34.430,proactive2,2020.1.2,Win32,60,5f5126bb654d4b30ee6923d8,5f5137e2a80f5b33f40550ae,4,,,,,,cathedral,,,,,,,,,,,3,1,0,24,24,25,1,,,,,,,,,,,,,,,,,,,,,,,,,,,,,,,,,,,,,,,,,,,,,,,,,,,,,,,,,,,,,,,,,,,,,,,,,,,,,,,,,,,,,,,,,,,,,,
,,NO,15.00419,0,,,,,,stimuli/images/PICTURE_405.png,YEAR,5ef37e2ca184db0e6896d19b,07/07/1955,2020-09-03_22h28.34.430,proactive2,2020.1.2,Win32,60,5f5126bb654d4b30ee6923d8,5f5137e2a80f5b33f40550ae,4,,,,,,anchor,,,,,,,,,,,4,1,0,25,25,34,1,,,,,,,,,,,,,,,,,,,,,,,,,,,,,,,,,,,,,,,,,,,,,,,,,,,,,,,,,,,,,,,,,,,,,,,,,,,,,,,,,,,,,,,,,,,,,,
,,MOMENT,15.010575,1,,,,,,stimuli/images/PICTURE_57.png,MOMENT,5ef37e2ca184db0e6896d19b,07/07/1955,2020-09-03_22h28.34.430,proactive2,2020.1.2,Win32,60,5f5126bb654d4b30ee6923d8,5f5137e2a80f5b33f40550ae,4,,,,,,stamp,,,,,,,,,,,4,1,0,26,26,37,1,,,,,,,,,,,,,,,,,,,,,,,,,,,,,,,,,,,,,,,,,,,,,,,,,,,,,,,,,,,,,,,,,,,,,,,,,,,,,,,,,,,,,,,,,,,,,,
,,?,0.001125,0,,,,,,stimuli/images/PICTURE_383.png,SERIES,5ef37e2ca184db0e6896d19b,07/07/1955,2020-09-03_22h28.34.430,proactive2,2020.1.2,Win32,60,5f5126bb654d4b30ee6923d8,5f5137e2a80f5b33f40550ae,4,,,,,,coin,,,,,,,,,,,5,1,0,27,27,46,1,,,,,,,,,,,,,,,,,,,,,,,,,,,,,,,,,,,,,,,,,,,,,,,,,,,,,,,,,,,,,,,,,,,,,,,,,,,,,,,,,,,,,,,,,,,,,,
,,?,0.000825,0,,,,,,stimuli/images/PICTURE_327.png,SERIES,5ef37e2ca184db0e6896d19b,07/07/1955,2020-09-03_22h28.34.430,proactive2,2020.1.2,Win32,60,5f5126bb654d4b30ee6923d8,5f5137e2a80f5b33f40550ae,4,,,,,,helmet,,,,,,,,,,,1,1,0,28,28,3,1,,,,,,,,,,,,,,,,,,,,,,,,,,,,,,,,,,,,,,,,,,,,,,,,,,,,,,,,,,,,,,,,,,,,,,,,,,,,,,,,,,,,,,,,,,,,,,
,,?,0.00079,0,,,,,,stimuli/images/PICTURE_203.png,NIGHT,5ef37e2ca184db0e6896d19b,07/07/1955,2020-09-03_22h28.34.430,proactive2,2020.1.2,Win32,60,5f5126bb654d4b30ee6923d8,5f5137e2a80f5b33f40550ae,4,,,,,,cap,,,,,,,,,,,1,1,0,29,29,2,1,,,,,,,,,,,,,,,,,,,,,,,,,,,,,,,,,,,,,,,,,,,,,,,,,,,,,,,,,,,,,,,,,,,,,,,,,,,,,,,,,,,,,,,,,,,,,,
,,?,0.00082,0,,,,,,stimuli/images/PICTURE_380.png,HONEY,5ef37e2ca184db0e6896d19b,07/07/1955,2020-09-03_22h28.34.430,proactive2,2020.1.2,Win32,60,5f5126bb654d4b30ee6923d8,5f5137e2a80f5b33f40550ae,4,,,,,,gorilla,,,,,,,,,,,2,1,0,30,30,19,1,,,,,,,,,,,,,,,,,,,,,,,,,,,,,,,,,,,,,,,,,,,,,,,,,,,,,,,,,,,,,,,,,,,,,,,,,,,,,,,,,,,,,,,,,,,,,,
,,?,0.000795,0,,,,,,stimuli/images/PICTURE_403.png,RIVER,5ef37e2ca184db0e6896d19b,07/07/1955,2020-09-03_22h28.34.430,proactive2,2020.1.2,Win32,60,5f5126bb654d4b30ee6923d8,5f5137e2a80f5b33f40550ae,4,,,,,,cathedral,,,,,,,,,,,5,1,0,31,31,40,1,,,,,,,,,,,,,,,,,,,,,,,,,,,,,,,,,,,,,,,,,,,,,,,,,,,,,,,,,,,,,,,,,,,,,,,,,,,,,,,,,,,,,,,,,,,,,,
,,?,0.000805,0,,,,,,stimuli/images/PICTURE_380.png,CANDY,5ef37e2ca184db0e6896d19b,07/07/1955,2020-09-03_22h28.34.430,proactive2,2020.1.2,Win32,60,5f5126bb654d4b30ee6923d8,5f5137e2a80f5b33f40550ae,4,,,,,,gorilla,,,,,,,,,,,1,1,0,32,32,0,1,,,,,,,,,,,,,,,,,,,,,,,,,,,,,,,,,,,,,,,,,,,,,,,,,,,,,,,,,,,,,,,,,,,,,,,,,,,,,,,,,,,,,,,,,,,,,,
,,?,0.00082,0,,,,,,stimuli/images/PICTURE_383.png,WRITER,5ef37e2ca184db0e6896d19b,07/07/1955,2020-09-03_22h28.34.430,proactive2,2020.1.2,Win32,60,5f5126bb654d4b30ee6923d8,5f5137e2a80f5b33f40550ae,4,,,,,,coin,,,,,,,,,,,3,1,0,33,33,28,1,,,,,,,,,,,,,,,,,,,,,,,,,,,,,,,,,,,,,,,,,,,,,,,,,,,,,,,,,,,,,,,,,,,,,,,,,,,,,,,,,,,,,,,,,,,,,,
,,?,0.000795,0,,,,,,stimuli/images/PICTURE_405.png,PLENTY,5ef37e2ca184db0e6896d19b,07/07/1955,2020-09-03_22h28.34.430,proactive2,2020.1.2,Win32,60,5f5126bb654d4b30ee6923d8,5f5137e2a80f5b33f40550ae,4,,,,,,anchor,,,,,,,,,,,3,1,0,34,34,23,1,,,,,,,,,,,,,,,,,,,,,,,,,,,,,,,,,,,,,,,,,,,,,,,,,,,,,,,,,,,,,,,,,,,,,,,,,,,,,,,,,,,,,,,,,,,,,,
,,?,0.000945,0,,,,,,stimuli/images/PICTURE_147.png,YEAR,5ef37e2ca184db0e6896d19b,07/07/1955,2020-09-03_22h28.34.430,proactive2,2020.1.2,Win32,60,5f5126bb654d4b30ee6923d8,5f5137e2a80f5b33f40550ae,4,,,,,,hanger,,,,,,,,,,,3,1,0,35,35,21,1,,,,,,,,,,,,,,,,,,,,,,,,,,,,,,,,,,,,,,,,,,,,,,,,,,,,,,,,,,,,,,,,,,,,,,,,,,,,,,,,,,,,,,,,,,,,,,
,,?,0.00078,0,,,,,,stimuli/images/PICTURE_467.png,POLICY,5ef37e2ca184db0e6896d19b,07/07/1955,2020-09-03_22h28.34.430,proactive2,2020.1.2,Win32,60,5f5126bb654d4b30ee6923d8,5f5137e2a80f5b33f40550ae,4,,,,,,peg,,,,,,,,,,,6,1,0,36,36,53,1,,,,,,,,,,,,,,,,,,,,,,,,,,,,,,,,,,,,,,,,,,,,,,,,,,,,,,,,,,,,,,,,,,,,,,,,,,,,,,,,,,,,,,,,,,,,,,
,,?,0.00081,0,,,,,,stimuli/images/PICTURE_487.png,GIRL,5ef37e2ca184db0e6896d19b,07/07/1955,2020-09-03_22h28.34.430,proactive2,2020.1.2,Win32,60,5f5126bb654d4b30ee6923d8,5f5137e2a80f5b33f40550ae,4,,,,,,basket,,,,,,,,,,,5,1,0,37,37,45,1,,,,,,,,,,,,,,,,,,,,,,,,,,,,,,,,,,,,,,,,,,,,,,,,,,,,,,,,,,,,,,,,,,,,,,,,,,,,,,,,,,,,,,,,,,,,,,
,,?,0.00081,0,,,,,,stimuli/images/PICTURE_177.png,WRITER,5ef37e2ca184db0e6896d19b,07/07/1955,2020-09-03_22h28.34.430,proactive2,2020.1.2,Win32,60,5f5126bb654d4b30ee6923d8,5f5137e2a80f5b33f40550ae,4,,,,,,mushroom,,,,,,,,,,,5,1,0,38,38,41,1,,,,,,,,,,,,,,,,,,,,,,,,,,,,,,,,,,,,,,,,,,,,,,,,,,,,,,,,,,,,,,,,,,,,,,,,,,,,,,,,,,,,,,,,,,,,,,
,,?,0.00078,0,,,,,,stimuli/images/PICTURE_564.png,BATH,5ef37e2ca184db0e6896d19b,07/07/1955,2020-09-03_22h28.34.430,proactive2,2020.1.2,Win32,60,5f5126bb654d4b30ee6923d8,5f5137e2a80f5b33f40550ae,4,,,,,,spoon,,,,,,,,,,,3,1,0,39,39,26,1,,,,,,,,,,,,,,,,,,,,,,,,,,,,,,,,,,,,,,,,,,,,,,,,,,,,,,,,,,,,,,,,,,,,,,,,,,,,,,,,,,,,,,,,,,,,,,
,,?,0.00077,0,,,,,,stimuli/images/PICTURE_33.png,FRIEND,5ef37e2ca184db0e6896d19b,07/07/1955,2020-09-03_22h28.34.430,proactive2,2020.1.2,Win32,60,5f5126bb654d4b30ee6923d8,5f5137e2a80f5b33f40550ae,4,,,,,,frame,,,,,,,,,,,1,1,0,40,40,8,1,,,,,,,,,,,,,,,,,,,,,,,,,,,,,,,,,,,,,,,,,,,,,,,,,,,,,,,,,,,,,,,,,,,,,,,,,,,,,,,,,,,,,,,,,,,,,,
,,KIND,15.01415,1,,,,,,stimuli/images/PICTURE_32.png,KIND,5ef37e2ca184db0e6896d19b,07/07/1955,2020-09-03_22h28.34.430,proactive2,2020.1.2,Win32,60,5f5126bb654d4b30ee6923d8,5f5137e2a80f5b33f40550ae,4,,,,,,crown,,,,,,,,,,,4,1,0,41,41,35,1,,,,,,,,,,,,,,,,,,,,,,,,,,,,,,,,,,,,,,,,,,,,,,,,,,,,,,,,,,,,,,,,,,,,,,,,,,,,,,,,,,,,,,,,,,,,,,
,,?,0.0012,0,,,,,,stimuli/images/PICTURE_491.png,GLASS,5ef37e2ca184db0e6896d19b,07/07/1955,2020-09-03_22h28.34.430,proactive2,2020.1.2,Win32,60,5f5126bb654d4b30ee6923d8,5f5137e2a80f5b33f40550ae,4,,,,,,rug,,,,,,,,,,,2,1,0,42,42,14,1,,,,,,,,,,,,,,,,,,,,,,,,,,,,,,,,,,,,,,,,,,,,,,,,,,,,,,,,,,,,,,,,,,,,,,,,,,,,,,,,,,,,,,,,,,,,,,
,,?,0.00083,0,,,,,,stimuli/images/PICTURE_108.png,POLICY,5ef37e2ca184db0e6896d19b,07/07/1955,2020-09-03_22h28.34.430,proactive2,2020.1.2,Win32,60,5f5126bb654d4b30ee6923d8,5f5137e2a80f5b33f40550ae,4,,,,,,calendar,,,,,,,,,,,3,1,0,43,43,22,1,,,,,,,,,,,,,,,,,,,,,,,,,,,,,,,,,,,,,,,,,,,,,,,,,,,,,,,,,,,,,,,,,,,,,,,,,,,,,,,,,,,,,,,,,,,,,,
,,?,0.000815,0,,,,,,stimuli/images/PICTURE_42.png,BOYS,5ef37e2ca184db0e6896d19b,07/07/1955,2020-09-03_22h28.34.430,proactive2,2020.1.2,Win32,60,5f5126bb654d4b30ee6923d8,5f5137e2a80f5b33f40550ae,4,,,,,,pear,,,,,,,,,,,6,1,0,44,44,55,1,,,,,,,,,,,,,,,,,,,,,,,,,,,,,,,,,,,,,,,,,,,,,,,,,,,,,,,,,,,,,,,,,,,,,,,,,,,,,,,,,,,,,,,,,,,,,,
,,?,0.000835,0,,,,,,stimuli/images/PICTURE_685.png,PENNY,5ef37e2ca184db0e6896d19b,07/07/1955,2020-09-03_22h28.34.430,proactive2,2020.1.2,Win32,60,5f5126bb654d4b30ee6923d8,5f5137e2a80f5b33f40550ae,4,,,,,,goose,,,,,,,,,,,1,1,0,45,45,4,1,,,,,,,,,,,,,,,,,,,,,,,,,,,,,,,,,,,,,,,,,,,,,,,,,,,,,,,,,,,,,,,,,,,,,,,,,,,,,,,,,,,,,,,,,,,,,,
,,?,0.0008,0,,,,,,stimuli/images/PICTURE_504.png,COPS,5ef37e2ca184db0e6896d19b,07/07/1955,2020-09-03_22h28.34.430,proactive2,2020.1.2,Win32,60,5f5126bb654d4b30ee6923d8,5f5137e2a80f5b33f40550ae,4,,,,,,wheel,,,,,,,,,,,6,1,0,46,46,52,1,,,,,,,,,,,,,,,,,,,,,,,,,,,,,,,,,,,,,,,,,,,,,,,,,,,,,,,,,,,,,,,,,,,,,,,,,,,,,,,,,,,,,,,,,,,,,,
,,?,0.000755,0,,,,,,stimuli/images/PICTURE_491.png,RIVER,5ef37e2ca184db0e6896d19b,07/07/1955,2020-09-03_22h28.34.430,proactive2,2020.1.2,Win32,60,5f5126bb654d4b30ee6923d8,5f5137e2a80f5b33f40550ae,4,,,,,,rug,,,,,,,,,,,1,1,0,47,47,6,1,,,,,,,,,,,,,,,,,,,,,,,,,,,,,,,,,,,,,,,,,,,,,,,,,,,,,,,,,,,,,,,,,,,,,,,,,,,,,,,,,,,,,,,,,,,,,,
,,?,0.000795,0,,,,,,stimuli/images/PICTURE_675.png,SALE,5ef37e2ca184db0e6896d19b,07/07/1955,2020-09-03_22h28.34.430,proactive2,2020.1.2,Win32,60,5f5126bb654d4b30ee6923d8,5f5137e2a80f5b33f40550ae,4,,,,,,windmill,,,,,,,,,,,5,1,0,48,48,47,1,,,,,,,,,,,,,,,,,,,,,,,,,,,,,,,,,,,,,,,,,,,,,,,,,,,,,,,,,,,,,,,,,,,,,,,,,,,,,,,,,,,,,,,,,,,,,,
,,?,0.000775,0,,,,,,stimuli/images/PICTURE_667.png,RIVER,5ef37e2ca184db0e6896d19b,07/07/1955,2020-09-03_22h28.34.430,proactive2,2020.1.2,Win32,60,5f5126bb654d4b30ee6923d8,5f5137e2a80f5b33f40550ae,4,,,,,,daisy,,,,,,,,,,,2,1,0,49,49,10,1,,,,,,,,,,,,,,,,,,,,,,,,,,,,,,,,,,,,,,,,,,,,,,,,,,,,,,,,,,,,,,,,,,,,,,,,,,,,,,,,,,,,,,,,,,,,,,
,,?,0.000515,0,,,,,,stimuli/images/PICTURE_296.png,LOTS,5ef37e2ca184db0e6896d19b,07/07/1955,2020-09-03_22h28.34.430,proactive2,2020.1.2,Win32,60,5f5126bb654d4b30ee6923d8,5f5137e2a80f5b33f40550ae,4,,,,,,bolt,,,,,,,,,,,1,1,0,50,50,9,1,,,,,,,,,,,,,,,,,,,,,,,,,,,,,,,,,,,,,,,,,,,,,,,,,,,,,,,,,,,,,,,,,,,,,,,,,,,,,,,,,,,,,,,,,,,,,,
,,?,0.00052,0,,,,,,stimuli/images/PICTURE_95.png,HONEY,5ef37e2ca184db0e6896d19b,07/07/1955,2020-09-03_22h28.34.430,proactive2,2020.1.2,Win32,60,5f5126bb654d4b30ee6923d8,5f5137e2a80f5b33f40550ae,4,,,,,,suitcase,,,,,,,,,,,5,1,0,51,51,44,1,,,,,,,,,,,,,,,,,,,,,,,,,,,,,,,,,,,,,,,,,,,,,,,,,,,,,,,,,,,,,,,,,,,,,,,,,,,,,,,,,,,,,,,,,,,,,,
,,?,0.00048,0,,,,,,stimuli/images/PICTURE_327.png,CASINO,5ef37e2ca184db0e6896d19b,07/07/1955,2020-09-03_22h28.34.430,proactive2,2020.1.2,Win32,60,5f5126bb654d4b30ee6923d8,5f5137e2a80f5b33f40550ae,4,,,,,,helmet,,,,,,,,,,,3,1,0,52,52,20,1,,,,,,,,,,,,,,,,,,,,,,,,,,,,,,,,,,,,,,,,,,,,,,,,,,,,,,,,,,,,,,,,,,,,,,,,,,,,,,,,,,,,,,,,,,,,,,
,,?,0.000495,0,,,,,,stimuli/images/PICTURE_2.png,FLIGHT,5ef37e2ca184db0e6896d19b,07/07/1955,2020-09-03_22h28.34.430,proactive2,2020.1.2,Win32,60,5f5126bb654d4b30ee6923d8,5f5137e2a80f5b33f40550ae,4,,,,,,tyre,,,,,,,,,,,2,1,0,53,53,15,1,,,,,,,,,,,,,,,,,,,,,,,,,,,,,,,,,,,,,,,,,,,,,,,,,,,,,,,,,,,,,,,,,,,,,,,,,,,,,,,,,,,,,,,,,,,,,,
,,?,0.000485,0,,,,,,stimuli/images/PICTURE_654.png,MONTH,5ef37e2ca184db0e6896d19b,07/07/1955,2020-09-03_22h28.34.430,proactive2,2020.1.2,Win32,60,5f5126bb654d4b30ee6923d8,5f5137e2a80f5b33f40550ae,4,,,,,,pencil,,,,,,,,,,,3,1,0,54,54,29,1,,,,,,,,,,,,,,,,,,,,,,,,,,,,,,,,,,,,,,,,,,,,,,,,,,,,,,,,,,,,,,,,,,,,,,,,,,,,,,,,,,,,,,,,,,,,,,
,,?,0.0005,0,,,,,,stimuli/images/PICTURE_504.png,ARTIST,5ef37e2ca184db0e6896d19b,07/07/1955,2020-09-03_22h28.34.430,proactive2,2020.1.2,Win32,60,5f5126bb654d4b30ee6923d8,5f5137e2a80f5b33f40550ae,4,,,,,,wheel,,,,,,,,,,,5,1,0,55,55,49,1,,,,,,,,,,,,,,,,,,,,,,,,,,,,,,,,,,,,,,,,,,,,,,,,,,,,,,,,,,,,,,,,,,,,,,,,,,,,,,,,,,,,,,,,,,,,,,
,,?,0.00049,0,,,,,,stimuli/images/PICTURE_504.png,YEAR,5ef37e2ca184db0e6896d19b,07/07/1955,2020-09-03_22h28.34.430,proactive2,2020.1.2,Win32,60,5f5126bb654d4b30ee6923d8,5f5137e2a80f5b33f40550ae,4,,,,,,wheel,,,,,,,,,,,2,1,0,56,56,13,1,,,,,,,,,,,,,,,,,,,,,,,,,,,,,,,,,,,,,,,,,,,,,,,,,,,,,,,,,,,,,,,,,,,,,,,,,,,,,,,,,,,,,,,,,,,,,,
,,?,0.000475,0,,,,,,stimuli/images/PICTURE_340.png,LETTER,5ef37e2ca184db0e6896d19b,07/07/1955,2020-09-03_22h28.34.430,proactive2,2020.1.2,Win32,60,5f5126bb654d4b30ee6923d8,5f5137e2a80f5b33f40550ae,4,,,,,,mirror,,,,,,,,,,,3,1,0,57,57,24,1,,,,,,,,,,,,,,,,,,,,,,,,,,,,,,,,,,,,,,,,,,,,,,,,,,,,,,,,,,,,,,,,,,,,,,,,,,,,,,,,,,,,,,,,,,,,,,
,,?,0.00048,0,,,,,,stimuli/images/PICTURE_750.png,HOTEL,5ef37e2ca184db0e6896d19b,07/07/1955,2020-09-03_22h28.34.430,proactive2,2020.1.2,Win32,60,5f5126bb654d4b30ee6923d8,5f5137e2a80f5b33f40550ae,4,,,,,,kettle,,,,,,,,,,,3,1,0,58,58,27,1,,,,,,,,,,,,,,,,,,,,,,,,,,,,,,,,,,,,,,,,,,,,,,,,,,,,,,,,,,,,,,,,,,,,,,,,,,,,,,,,,,,,,,,,,,,,,,
,,?,0.00048,0,,,,,,stimuli/images/PICTURE_95.png,BOYS,5ef37e2ca184db0e6896d19b,07/07/1955,2020-09-03_22h28.34.430,proactive2,2020.1.2,Win32,60,5f5126bb654d4b30ee6923d8,5f5137e2a80f5b33f40550ae,4,,,,,,suitcase,,,,,,,,,,,1,1,0,59,59,1,1,,,,,,,,,,,,,,,,,,,,,,,,,,,,,,,,,,,,,,,,,,,,,,,,,,,,,,,,,,,,,,,,,,,,,,,,,,,,,,,,,,,,,,,,,,,,,,
,,,,,,,,,,,,5ef37e2ca184db0e6896d19b,07/07/1955,2020-09-03_22h28.34.430,proactive2,2020.1.2,Win32,60,5f5126bb654d4b30ee6923d8,5f5137e2a80f5b33f40550ae,4,,,,,,,,,,,,,,,,,,,,,,,,0,1,1,1,1,stimuli/learn-block2.csv,,,,,,,,,,,,,,,,,,,,,,,,,,,,,,,,,,,,,,,,,,,,,,,,,,,,,,,,,,,,,,,,,,,,,,,,,,,,,,,,,,,,,,,,
,,,,,,,,,,stimuli/images/PICTURE_509.png,MILLER,5ef37e2ca184db0e6896d19b,07/07/1955,2020-09-03_22h28.34.430,proactive2,2020.1.2,Win32,60,5f5126bb654d4b30ee6923d8,5f5137e2a80f5b33f40550ae,4,,,,,,telephone,,,,,,0,0,0,49,1,5,2,,,,,,,,,,,,,,,,,,,,,,,,,,,,,,,,,,,,,,,,,,,,,,,,,,,,,,,,,,,,,,,,,,,,,,,,,,,,,,,,,,,,,,,,,,,,,,,,,,,
,,,,,,,,,,stimuli/images/PICTURE_95.png,NIGHT,5ef37e2ca184db0e6896d19b,07/07/1955,2020-09-03_22h28.34.430,proactive2,2020.1.2,Win32,60,5f5126bb654d4b30ee6923d8,5f5137e2a80f5b33f40550ae,4,,,,,,suitcase,,,,,,0,1,1,37,1,4,2,,,,,,,,,,,,,,,,,,,,,,,,,,,,,,,,,,,,,,,,,,,,,,,,,,,,,,,,,,,,,,,,,,,,,,,,,,,,,,,,,,,,,,,,,,,,,,,,,,,
,,,,,,,,,,stimuli/images/PICTURE_57.png,NATION,5ef37e2ca184db0e6896d19b,07/07/1955,2020-09-03_22h28.34.430,proactive2,2020.1.2,Win32,60,5f5126bb654d4b30ee6923d8,5f5137e2a80f5b33f40550ae,4,,,,,,stamp,,,,,,0,2,2,21,1,3,2,,,,,,,,,,,,,,,,,,,,,,,,,,,,,,,,,,,,,,,,,,,,,,,,,,,,,,,,,,,,,,,,,,,,,,,,,,,,,,,,,,,,,,,,,,,,,,,,,,,
,,,,,,,,,,stimuli/images/PICTURE_405.png,JUNGLE,5ef37e2ca184db0e6896d19b,07/07/1955,2020-09-03_22h28.34.430,proactive2,2020.1.2,Win32,60,5f5126bb654d4b30ee6923d8,5f5137e2a80f5b33f40550ae,4,,,,,,anchor,,,,,,0,3,3,13,1,2,2,,,,,,,,,,,,,,,,,,,,,,,,,,,,,,,,,,,,,,,,,,,,,,,,,,,,,,,,,,,,,,,,,,,,,,,,,,,,,,,,,,,,,,,,,,,,,,,,,,,
,,,,,,,,,,stimuli/images/PICTURE_504.png,HOUSE,5ef37e2ca184db0e6896d19b,07/07/1955,2020-09-03_22h28.34.430,proactive2,2020.1.2,Win32,60,5f5126bb654d4b30ee6923d8,5f5137e2a80f5b33f40550ae,4,,,,,,wheel,,,,,,0,4,4,36,1,4,2,,,,,,,,,,,,,,,,,,,,,,,,,,,,,,,,,,,,,,,,,,,,,,,,,,,,,,,,,,,,,,,,,,,,,,,,,,,,,,,,,,,,,,,,,,,,,,,,,,,
,,,,,,,,,,stimuli/images/PICTURE_311.png,TOILET,5ef37e2ca184db0e6896d19b,07/07/1955,2020-09-03_22h28.34.430,proactive2,2020.1.2,Win32,60,5f5126bb654d4b30ee6923d8,5f5137e2a80f5b33f40550ae,4,,,,,,razor,,,,,,0,5,5,54,1,6,2,,,,,,,,,,,,,,,,,,,,,,,,,,,,,,,,,,,,,,,,,,,,,,,,,,,,,,,,,,,,,,,,,,,,,,,,,,,,,,,,,,,,,,,,,,,,,,,,,,,
,,,,,,,,,,stimuli/images/PICTURE_215.png,FOOD,5ef37e2ca184db0e6896d19b,07/07/1955,2020-09-03_22h28.34.430,proactive2,2020.1.2,Win32,60,5f5126bb654d4b30ee6923d8,5f5137e2a80f5b33f40550ae,4,,,,,,boot,,,,,,0,6,6,5,1,1,2,,,,,,,,,,,,,,,,,,,,,,,,,,,,,,,,,,,,,,,,,,,,,,,,,,,,,,,,,,,,,,,,,,,,,,,,,,,,,,,,,,,,,,,,,,,,,,,,,,,
,,,,,,,,,,stimuli/images/PICTURE_509.png,SHOTS,5ef37e2ca184db0e6896d19b,07/07/1955,2020-09-03_22h28.34.430,proactive2,2020.1.2,Win32,60,5f5126bb654d4b30ee6923d8,5f5137e2a80f5b33f40550ae,4,,,,,,telephone,,,,,,0,7,7,7,1,1,2,,,,,,,,,,,,,,,,,,,,,,,,,,,,,,,,,,,,,,,,,,,,,,,,,,,,,,,,,,,,,,,,,,,,,,,,,,,,,,,,,,,,,,,,,,,,,,,,,,,
,,,,,,,,,,stimuli/images/PICTURE_491.png,SERIES,5ef37e2ca184db0e6896d19b,07/07/1955,2020-09-03_22h28.34.430,proactive2,2020.1.2,Win32,60,5f5126bb654d4b30ee6923d8,5f5137e2a80f5b33f40550ae,4,,,,,,rug,,,,,,0,8,8,39,1,4,2,,,,,,,,,,,,,,,,,,,,,,,,,,,,,,,,,,,,,,,,,,,,,,,,,,,,,,,,,,,,,,,,,,,,,,,,,,,,,,,,,,,,,,,,,,,,,,,,,,,
,,,,,,,,,,stimuli/images/PICTURE_18.png,RIVER,5ef37e2ca184db0e6896d19b,07/07/1955,2020-09-03_22h28.34.430,proactive2,2020.1.2,Win32,60,5f5126bb654d4b30ee6923d8,5f5137e2a80f5b33f40550ae,4,,,,,,planet,,,,,,0,9,9,22,1,3,2,,,,,,,,,,,,,,,,,,,,,,,,,,,,,,,,,,,,,,,,,,,,,,,,,,,,,,,,,,,,,,,,,,,,,,,,,,,,,,,,,,,,,,,,,,,,,,,,,,,
,,,,,,,,,,stimuli/images/PICTURE_32.png,LETTER,5ef37e2ca184db0e6896d19b,07/07/1955,2020-09-03_22h28.34.430,proactive2,2020.1.2,Win32,60,5f5126bb654d4b30ee6923d8,5f5137e2a80f5b33f40550ae,4,,,,,,crown,,,,,,0,10,10,56,1,6,2,,,,,,,,,,,,,,,,,,,,,,,,,,,,,,,,,,,,,,,,,,,,,,,,,,,,,,,,,,,,,,,,,,,,,,,,,,,,,,,,,,,,,,,,,,,,,,,,,,,
,,,,,,,,,,stimuli/images/PICTURE_141.png,CLIENT,5ef37e2ca184db0e6896d19b,07/07/1955,2020-09-03_22h28.34.430,proactive2,2020.1.2,Win32,60,5f5126bb654d4b30ee6923d8,5f5137e2a80f5b33f40550ae,4,,,,,,sunflower,,,,,,0,11,11,30,1,4,2,,,,,,,,,,,,,,,,,,,,,,,,,,,,,,,,,,,,,,,,,,,,,,,,,,,,,,,,,,,,,,,,,,,,,,,,,,,,,,,,,,,,,,,,,,,,,,,,,,,
,,,,,,,,,,stimuli/images/PICTURE_453.png,FAMILY,5ef37e2ca184db0e6896d19b,07/07/1955,2020-09-03_22h28.34.430,proactive2,2020.1.2,Win32,60,5f5126bb654d4b30ee6923d8,5f5137e2a80f5b33f40550ae,4,,,,,,scissors,,,,,,0,12,12,48,1,5,2,,,,,,,,,,,,,,,,,,,,,,,,,,,,,,,,,,,,,,,,,,,,,,,,,,,,,,,,,,,,,,,,,,,,,,,,,,,,,,,,,,,,,,,,,,,,,,,,,,,
,,,,,,,,,,stimuli/images/PICTURE_655.png,SALE,5ef37e2ca184db0e6896d19b,07/07/1955,2020-09-03_22h28.34.430,proactive2,2020.1.2,Win32,60,5f5126bb654d4b30ee6923d8,5f5137e2a80f5b33f40550ae,4,,,,,,megaphone,,,,,,0,13,13,57,1,6,2,,,,,,,,,,,,,,,,,,,,,,,,,,,,,,,,,,,,,,,,,,,,,,,,,,,,,,,,,,,,,,,,,,,,,,,,,,,,,,,,,,,,,,,,,,,,,,,,,,,
,,,,,,,,,,stimuli/images/PICTURE_509.png,APPLE,5ef37e2ca184db0e6896d19b,07/07/1955,2020-09-03_22h28.34.430,proactive2,2020.1.2,Win32,60,5f5126bb654d4b30ee6923d8,5f5137e2a80f5b33f40550ae,4,,,,,,telephone,,,,,,0,14,14,38,1,4,2,,,,,,,,,,,,,,,,,,,,,,,,,,,,,,,,,,,,,,,,,,,,,,,,,,,,,,,,,,,,,,,,,,,,,,,,,,,,,,,,,,,,,,,,,,,,,,,,,,,
,,,,,,,,,,stimuli/images/PICTURE_356.png,CANDY,5ef37e2ca184db0e6896d19b,07/07/1955,2020-09-03_22h28.34.430,proactive2,2020.1.2,Win32,60,5f5126bb654d4b30ee6923d8,5f5137e2a80f5b33f40550ae,4,,,,,,pawn,,,,,,0,15,15,46,1,5,2,,,,,,,,,,,,,,,,,,,,,,,,,,,,,,,,,,,,,,,,,,,,,,,,,,,,,,,,,,,,,,,,,,,,,,,,,,,,,,,,,,,,,,,,,,,,,,,,,,,
,,,,,,,,,,stimuli/images/PICTURE_327.png,LEADER,5ef37e2ca184db0e6896d19b,07/07/1955,2020-09-03_22h28.34.430,proactive2,2020.1.2,Win32,60,5f5126bb654d4b30ee6923d8,5f5137e2a80f5b33f40550ae,4,,,,,,helmet,,,,,,0,16,16,17,1,2,2,,,,,,,,,,,,,,,,,,,,,,,,,,,,,,,,,,,,,,,,,,,,,,,,,,,,,,,,,,,,,,,,,,,,,,,,,,,,,,,,,,,,,,,,,,,,,,,,,,,
,,,,,,,,,,stimuli/images/PICTURE_405.png,JUNGLE,5ef37e2ca184db0e6896d19b,07/07/1955,2020-09-03_22h28.34.430,proactive2,2020.1.2,Win32,60,5f5126bb654d4b30ee6923d8,5f5137e2a80f5b33f40550ae,4,,,,,,anchor,,,,,,0,17,17,58,1,6,2,,,,,,,,,,,,,,,,,,,,,,,,,,,,,,,,,,,,,,,,,,,,,,,,,,,,,,,,,,,,,,,,,,,,,,,,,,,,,,,,,,,,,,,,,,,,,,,,,,,
,,,,,,,,,,stimuli/images/PICTURE_147.png,LEADER,5ef37e2ca184db0e6896d19b,07/07/1955,2020-09-03_22h28.34.430,proactive2,2020.1.2,Win32,60,5f5126bb654d4b30ee6923d8,5f5137e2a80f5b33f40550ae,4,,,,,,hanger,,,,,,0,18,18,33,1,4,2,,,,,,,,,,,,,,,,,,,,,,,,,,,,,,,,,,,,,,,,,,,,,,,,,,,,,,,,,,,,,,,,,,,,,,,,,,,,,,,,,,,,,,,,,,,,,,,,,,,
,,,,,,,,,,stimuli/images/PICTURE_564.png,PLENTY,5ef37e2ca184db0e6896d19b,07/07/1955,2020-09-03_22h28.34.430,proactive2,2020.1.2,Win32,60,5f5126bb654d4b30ee6923d8,5f5137e2a80f5b33f40550ae,4,,,,,,spoon,,,,,,0,19,19,11,1,2,2,,,,,,,,,,,,,,,,,,,,,,,,,,,,,,,,,,,,,,,,,,,,,,,,,,,,,,,,,,,,,,,,,,,,,,,,,,,,,,,,,,,,,,,,,,,,,,,,,,,
,,,,,,,,,,stimuli/images/PICTURE_177.png,HOUSE,5ef37e2ca184db0e6896d19b,07/07/1955,2020-09-03_22h28.34.430,proactive2,2020.1.2,Win32,60,5f5126bb654d4b30ee6923d8,5f5137e2a80f5b33f40550ae,4,,,,,,mushroom,,,,,,0,20,20,25,1,3,2,,,,,,,,,,,,,,,,,,,,,,,,,,,,,,,,,,,,,,,,,,,,,,,,,,,,,,,,,,,,,,,,,,,,,,,,,,,,,,,,,,,,,,,,,,,,,,,,,,,
,,,,,,,,,,stimuli/images/PICTURE_403.png,FAMILY,5ef37e2ca184db0e6896d19b,07/07/1955,2020-09-03_22h28.34.430,proactive2,2020.1.2,Win32,60,5f5126bb654d4b30ee6923d8,5f5137e2a80f5b33f40550ae,4,,,,,,cathedral,,,,,,0,21,21,9,1,1,2,,,,,,,,,,,,,,,,,,,,,,,,,,,,,,,,,,,,,,,,,,,,,,,,,,,,,,,,,,,,,,,,,,,,,,,,,,,,,,,,,,,,,,,,,,,,,,,,,,,
,,,,,,,,,,stimuli/images/PICTURE_470.png,BEAUTY,5ef37e2ca184db0e6896d19b,07/07/1955,2020-09-03_22h28.34.430,proactive2,2020.1.2,Win32,60,5f5126bb654d4b30ee6923d8,5f5137e2a80f5b33f40550ae,4,,,,,,motorbike,,,,,,0,22,22,26,1,3,2,,,,,,,,,,,,,,,,,,,,,,,,,,,,,,,,,,,,,,,,,,,,,,,,,,,,,,,,,,,,,,,,,,,,,,,,,,,,,,,,,,,,,,,,,,,,,,,,,,,
,,,,,,,,,,stimuli/images/PICTURE_285.png,WRITER,5ef37e2ca184db0e6896d19b,07/07/1955,2020-09-03_22h28.34.430,proactive2,2020.1.2,Win32,60,5f5126bb654d4b30ee6923d8,5f5137e2a80f5b33f40550ae,4,,,,,,carrot,,,,,,0,23,23,6,1,1,2,,,,,,,,,,,,,,,,,,,,,,,,,,,,,,,,,,,,,,,,,,,,,,,,,,,,,,,,,,,,,,,,,,,,,,,,,,,,,,,,,,,,,,,,,,,,,,,,,,,
,,,,,,,,,,stimuli/images/PICTURE_33.png,COPS,5ef37e2ca184db0e6896d19b,07/07/1955,2020-09-03_22h28.34.430,proactive2,2020.1.2,Win32,60,5f5126bb654d4b30ee6923d8,5f5137e2a80f5b33f40550ae,4,,,,,,frame,,,,,,0,24,24,29,1,3,2,,,,,,,,,,,,,,,,,,,,,,,,,,,,,,,,,,,,,,,,,,,,,,,,,,,,,,,,,,,,,,,,,,,,,,,,,,,,,,,,,,,,,,,,,,,,,,,,,,,
,,,,,,,,,,stimuli/images/PICTURE_123.png,SALE,5ef37e2ca184db0e6896d19b,07/07/1955,2020-09-03_22h28.34.430,proactive2,2020.1.2,Win32,60,5f5126bb654d4b30ee6923d8,5f5137e2a80f5b33f40550ae,4,,,,,,dart,,,,,,0,25,25,8,1,1,2,,,,,,,,,,,,,,,,,,,,,,,,,,,,,,,,,,,,,,,,,,,,,,,,,,,,,,,,,,,,,,,,,,,,,,,,,,,,,,,,,,,,,,,,,,,,,,,,,,,
,,,,,,,,,,stimuli/images/PICTURE_654.png,COPS,5ef37e2ca184db0e6896d19b,07/07/1955,2020-09-03_22h28.34.430,proactive2,2020.1.2,Win32,60,5f5126bb654d4b30ee6923d8,5f5137e2a80f5b33f40550ae,4,,,,,,pencil,,,,,,0,26,26,10,1,2,2,,,,,,,,,,,,,,,,,,,,,,,,,,,,,,,,,,,,,,,,,,,,,,,,,,,,,,,,,,,,,,,,,,,,,,,,,,,,,,,,,,,,,,,,,,,,,,,,,,,
,,,,,,,,,,stimuli/images/PICTURE_311.png,FLESH,5ef37e2ca184db0e6896d19b,07/07/1955,2020-09-03_22h28.34.430,proactive2,2020.1.2,Win32,60,5f5126bb654d4b30ee6923d8,5f5137e2a80f5b33f40550ae,4,,,,,,razor,,,,,,0,27,27,3,1,1,2,,,,,,,,,,,,,,,,,,,,,,,,,,,,,,,,,,,,,,,,,,,,,,,,,,,,,,,,,,,,,,,,,,,,,,,,,,,,,,,,,,,,,,,,,,,,,,,,,,,
,,,,,,,,,,stimuli/images/PICTURE_297.png,BODY,5ef37e2ca184db0e6896d19b,07/07/1955,2020-09-03_22h28.34.430,proactive2,2020.1.2,Win32,60,5f5126bb654d4b30ee6923d8,5f5137e2a80f5b33f40550ae,4,,,,,,aeroplane,,,,,,0,28,28,51,1,6,2,,,,,,,,,,,,,,,,,,,,,,,,,,,,,,,,,,,,,,,,,,,,,,,,,,,,,,,,,,,,,,,,,,,,,,,,,,,,,,,,,,,,,,,,,,,,,,,,,,,
,,,,,,,,,,stimuli/images/PICTURE_750.png,POLICY,5ef37e2ca184db0e6896d19b,07/07/1955,2020-09-03_22h28.34.430,proactive2,2020.1.2,Win32,60,5f5126bb654d4b30ee6923d8,5f5137e2a80f5b33f40550ae,4,,,,,,kettle,,,,,,0,29,29,44,1,5,2,,,,,,,,,,,,,,,,,,,,,,,,,,,,,,,,,,,,,,,,,,,,,,,,,,,,,,,,,,,,,,,,,,,,,,,,,,,,,,,,,,,,,,,,,,,,,,,,,,,
,,,,,,,,,,stimuli/images/PICTURE_2.png,YARD,5ef37e2ca184db0e6896d19b,07/07/1955,2020-09-03_22h28.34.430,proactive2,2020.1.2,Win32,60,5f5126bb654d4b30ee6923d8,5f5137e2a80f5b33f40550ae,4,,,,,,tyre,,,,,,0,30,30,55,1,6,2,,,,,,,,,,,,,,,,,,,,,,,,,,,,,,,,,,,,,,,,,,,,,,,,,,,,,,,,,,,,,,,,,,,,,,,,,,,,,,,,,,,,,,,,,,,,,,,,,,,
,,,,,,,,,,stimuli/images/PICTURE_296.png,CLOCK,5ef37e2ca184db0e6896d19b,07/07/1955,2020-09-03_22h28.34.430,proactive2,2020.1.2,Win32,60,5f5126bb654d4b30ee6923d8,5f5137e2a80f5b33f40550ae,4,,,,,,bolt,,,,,,0,31,31,18,1,2,2,,,,,,,,,,,,,,,,,,,,,,,,,,,,,,,,,,,,,,,,,,,,,,,,,,,,,,,,,,,,,,,,,,,,,,,,,,,,,,,,,,,,,,,,,,,,,,,,,,,
,,,,,,,,,,stimuli/images/PICTURE_57.png,CANDY,5ef37e2ca184db0e6896d19b,07/07/1955,2020-09-03_22h28.34.430,proactive2,2020.1.2,Win32,60,5f5126bb654d4b30ee6923d8,5f5137e2a80f5b33f40550ae,4,,,,,,stamp,,,,,,0,32,32,52,1,6,2,,,,,,,,,,,,,,,,,,,,,,,,,,,,,,,,,,,,,,,,,,,,,,,,,,,,,,,,,,,,,,,,,,,,,,,,,,,,,,,,,,,,,,,,,,,,,,,,,,,
,,,,,,,,,,stimuli/images/PICTURE_255.png,PENNY,5ef37e2ca184db0e6896d19b,07/07/1955,2020-09-03_22h28.34.430,proactive2,2020.1.2,Win32,60,5f5126bb654d4b30ee6923d8,5f5137e2a80f5b33f40550ae,4,,,,,,shovel,,,,,,0,33,33,19,1,2,2,,,,,,,,,,,,,,,,,,,,,,,,,,,,,,,,,,,,,,,,,,,,,,,,,,,,,,,,,,,,,,,,,,,,,,,,,,,,,,,,,,,,,,,,,,,,,,,,,,,
,,,,,,,,,,stimuli/images/PICTURE_677.png,PHOTO,5ef37e2ca184db0e6896d19b,07/07/1955,2020-09-03_22h28.34.430,proactive2,2020.1.2,Win32,60,5f5126bb654d4b30ee6923d8,5f5137e2a80f5b33f40550ae,4,,,,,,map,,,,,,0,34,34,14,1,2,2,,,,,,,,,,,,,,,,,,,,,,,,,,,,,,,,,,,,,,,,,,,,,,,,,,,,,,,,,,,,,,,,,,,,,,,,,,,,,,,,,,,,,,,,,,,,,,,,,,,
,,,,,,,,,,stimuli/images/PICTURE_470.png,MOMENT,5ef37e2ca184db0e6896d19b,07/07/1955,2020-09-03_22h28.34.430,proactive2,2020.1.2,Win32,60,5f5126bb654d4b30ee6923d8,5f5137e2a80f5b33f40550ae,4,,,,,,motorbike,,,,,,0,35,35,40,1,5,2,,,,,,,,,,,,,,,,,,,,,,,,,,,,,,,,,,,,,,,,,,,,,,,,,,,,,,,,,,,,,,,,,,,,,,,,,,,,,,,,,,,,,,,,,,,,,,,,,,,
,,,,,,,,,,stimuli/images/PICTURE_692.png,DUDE,5ef37e2ca184db0e6896d19b,07/07/1955,2020-09-03_22h28.34.430,proactive2,2020.1.2,Win32,60,5f5126bb654d4b30ee6923d8,5f5137e2a80f5b33f40550ae,4,,,,,,cherry,,,,,,0,36,36,47,1,5,2,,,,,,,,,,,,,,,,,,,,,,,,,,,,,,,,,,,,,,,,,,,,,,,,,,,,,,,,,,,,,,,,,,,,,,,,,,,,,,,,,,,,,,,,,,,,,,,,,,,
,,,,,,,,,,stimuli/images/PICTURE_160.png,HOTEL,5ef37e2ca184db0e6896d19b,07/07/1955,2020-09-03_22h28.34.430,proactive2,2020.1.2,Win32,60,5f5126bb654d4b30ee6923d8,5f5137e2a80f5b33f40550ae,4,,,,,,wheelbarrow,,,,,,0,37,37,16,1,2,2,,,,,,,,,,,,,,,,,,,,,,,,,,,,,,,,,,,,,,,,,,,,,,,,,,,,,,,,,,,,,,,,,,,,,,,,,,,,,,,,,,,,,,,,,,,,,,,,,,,
,,,,,,,,,,stimuli/images/PICTURE_487.png,ROOF,5ef37e2ca184db0e6896d19b,07/07/1955,2020-09-03_22h28.34.430,proactive2,2020.1.2,Win32,60,5f5126bb654d4b30ee6923d8,5f5137e2a80f5b33f40550ae,4,,,,,,basket,,,,,,0,38,38,50,1,6,2,,,,,,,,,,,,,,,,,,,,,,,,,,,,,,,,,,,,,,,,,,,,,,,,,,,,,,,,,,,,,,,,,,,,,,,,,,,,,,,,,,,,,,,,,,,,,,,,,,,
,,,,,,,,,,stimuli/images/PICTURE_509.png,BATH,5ef37e2ca184db0e6896d19b,07/07/1955,2020-09-03_22h28.34.430,proactive2,2020.1.2,Win32,60,5f5126bb654d4b30ee6923d8,5f5137e2a80f5b33f40550ae,4,,,,,,telephone,,,,,,0,39,39,15,1,2,2,,,,,,,,,,,,,,,,,,,,,,,,,,,,,,,,,,,,,,,,,,,,,,,,,,,,,,,,,,,,,,,,,,,,,,,,,,,,,,,,,,,,,,,,,,,,,,,,,,,
,,,,,,,,,,stimuli/images/PICTURE_688.png,CLOCK,5ef37e2ca184db0e6896d19b,07/07/1955,2020-09-03_22h28.34.430,proactive2,2020.1.2,Win32,60,5f5126bb654d4b30ee6923d8,5f5137e2a80f5b33f40550ae,4,,,,,,runner,,,,,,0,40,40,42,1,5,2,,,,,,,,,,,,,,,,,,,,,,,,,,,,,,,,,,,,,,,,,,,,,,,,,,,,,,,,,,,,,,,,,,,,,,,,,,,,,,,,,,,,,,,,,,,,,,,,,,,
,,,,,,,,,,stimuli/images/PICTURE_677.png,FAMILY,5ef37e2ca184db0e6896d19b,07/07/1955,2020-09-03_22h28.34.430,proactive2,2020.1.2,Win32,60,5f5126bb654d4b30ee6923d8,5f5137e2a80f5b33f40550ae,4,,,,,,map,,,,,,0,41,41,53,1,6,2,,,,,,,,,,,,,,,,,,,,,,,,,,,,,,,,,,,,,,,,,,,,,,,,,,,,,,,,,,,,,,,,,,,,,,,,,,,,,,,,,,,,,,,,,,,,,,,,,,,
,,,,,,,,,,stimuli/images/PICTURE_215.png,BOYS,5ef37e2ca184db0e6896d19b,07/07/1955,2020-09-03_22h28.34.430,proactive2,2020.1.2,Win32,60,5f5126bb654d4b30ee6923d8,5f5137e2a80f5b33f40550ae,4,,,,,,boot,,,,,,0,42,42,24,1,3,2,,,,,,,,,,,,,,,,,,,,,,,,,,,,,,,,,,,,,,,,,,,,,,,,,,,,,,,,,,,,,,,,,,,,,,,,,,,,,,,,,,,,,,,,,,,,,,,,,,,
,,,,,,,,,,stimuli/images/PICTURE_57.png,CASINO,5ef37e2ca184db0e6896d19b,07/07/1955,2020-09-03_22h28.34.430,proactive2,2020.1.2,Win32,60,5f5126bb654d4b30ee6923d8,5f5137e2a80f5b33f40550ae,4,,,,,,stamp,,,,,,0,43,43,12,1,2,2,,,,,,,,,,,,,,,,,,,,,,,,,,,,,,,,,,,,,,,,,,,,,,,,,,,,,,,,,,,,,,,,,,,,,,,,,,,,,,,,,,,,,,,,,,,,,,,,,,,
,,,,,,,,,,stimuli/images/PICTURE_654.png,YEAR,5ef37e2ca184db0e6896d19b,07/07/1955,2020-09-03_22h28.34.430,proactive2,2020.1.2,Win32,60,5f5126bb654d4b30ee6923d8,5f5137e2a80f5b33f40550ae,4,,,,,,pencil,,,,,,0,44,44,41,1,5,2,,,,,,,,,,,,,,,,,,,,,,,,,,,,,,,,,,,,,,,,,,,,,,,,,,,,,,,,,,,,,,,,,,,,,,,,,,,,,,,,,,,,,,,,,,,,,,,,,,,
,,,,,,,,,,stimuli/images/PICTURE_348.png,DUDE,5ef37e2ca184db0e6896d19b,07/07/1955,2020-09-03_22h28.34.430,proactive2,2020.1.2,Win32,60,5f5126bb654d4b30ee6923d8,5f5137e2a80f5b33f40550ae,4,,,,,,pepper,,,,,,0,45,45,59,1,6,2,,,,,,,,,,,,,,,,,,,,,,,,,,,,,,,,,,,,,,,,,,,,,,,,,,,,,,,,,,,,,,,,,,,,,,,,,,,,,,,,,,,,,,,,,,,,,,,,,,,
,,,,,,,,,,stimuli/images/PICTURE_215.png,LEADER,5ef37e2ca184db0e6896d19b,07/07/1955,2020-09-03_22h28.34.430,proactive2,2020.1.2,Win32,60,5f5126bb654d4b30ee6923d8,5f5137e2a80f5b33f40550ae,4,,,,,,boot,,,,,,0,46,46,43,1,5,2,,,,,,,,,,,,,,,,,,,,,,,,,,,,,,,,,,,,,,,,,,,,,,,,,,,,,,,,,,,,,,,,,,,,,,,,,,,,,,,,,,,,,,,,,,,,,,,,,,,
,,,,,,,,,,stimuli/images/PICTURE_314.png,SPEECH,5ef37e2ca184db0e6896d19b,07/07/1955,2020-09-03_22h28.34.430,proactive2,2020.1.2,Win32,60,5f5126bb654d4b30ee6923d8,5f5137e2a80f5b33f40550ae,4,,,,,,perfume,,,,,,0,47,47,35,1,4,2,,,,,,,,,,,,,,,,,,,,,,,,,,,,,,,,,,,,,,,,,,,,,,,,,,,,,,,,,,,,,,,,,,,,,,,,,,,,,,,,,,,,,,,,,,,,,,,,,,,
,,,,,,,,,,stimuli/images/PICTURE_487.png,POLICY,5ef37e2ca184db0e6896d19b,07/07/1955,2020-09-03_22h28.34.430,proactive2,2020.1.2,Win32,60,5f5126bb654d4b30ee6923d8,5f5137e2a80f5b33f40550ae,4,,,,,,basket,,,,,,0,48,48,34,1,4,2,,,,,,,,,,,,,,,,,,,,,,,,,,,,,,,,,,,,,,,,,,,,,,,,,,,,,,,,,,,,,,,,,,,,,,,,,,,,,,,,,,,,,,,,,,,,,,,,,,,
,,,,,,,,,,stimuli/images/PICTURE_348.png,TOILET,5ef37e2ca184db0e6896d19b,07/07/1955,2020-09-03_22h28.34.430,proactive2,2020.1.2,Win32,60,5f5126bb654d4b30ee6923d8,5f5137e2a80f5b33f40550ae,4,,,,,,pepper,,,,,,0,49,49,4,1,1,2,,,,,,,,,,,,,,,,,,,,,,,,,,,,,,,,,,,,,,,,,,,,,,,,,,,,,,,,,,,,,,,,,,,,,,,,,,,,,,,,,,,,,,,,,,,,,,,,,,,
