consent_key.keys,consent_key.rt,recalled,recalled_rt,recall_acc,example_recall.thisRepN,example_recall.thisTrialN,example_recall.thisN,example_recall.thisIndex,example_recall.ran,file,word,participant,please enter your date of birth (dd/mm/yyyy),date,expName,psychopyVersion,OS,frameRate,STUDY_ID,SESSION_ID,list,prac_learn_study_loop.thisRepN,prac_learn_study_loop.thisTrialN,prac_learn_study_loop.thisN,prac_learn_study_loop.thisIndex,prac_learn_study_loop.ran,image,prac_learn_test_loop.thisRepN,prac_learn_test_loop.thisTrialN,prac_learn_test_loop.thisN,prac_learn_test_loop.thisIndex,prac_learn_test_loop.ran,learn_study_loop.thisRepN,learn_study_loop.thisTrialN,learn_study_loop.thisN,learn_study_loop.thisIndex,learn_study_loop.ran,list_no,block_no,learn_test_loop.thisRepN,learn_test_loop.thisTrialN,learn_test_loop.thisN,learn_test_loop.thisIndex,learn_test_loop.ran,learn_blocks.thisRepN,learn_blocks.thisTrialN,learn_blocks.thisN,learn_blocks.thisIndex,learn_blocks.ran,block_csv,key_resp_13.keys,key_resp_13.rt,learn_blocks_loop.thisRepN,learn_blocks_loop.thisTrialN,learn_blocks_loop.thisN,learn_blocks_loop.thisIndex,learn_blocks_loop.ran,final_learn_test.thisRepN,final_learn_test.thisTrialN,final_learn_test.thisN,final_learn_test.thisIndex,final_learn_test.ran,s_im1,s_im2,s_im3,s_im4,s_im5,s_im6,s_im7,s_im8,s_im1pos,s_im2pos,s_im3pos,s_im4pos,s_im5pos,s_im6pos,s_im7pos,s_im8pos,s_tarright,search_resp.keys,search_resp.rt,search_loop.thisRepN,search_loop.thisTrialN,search_loop.thisN,search_loop.thisIndex,search_loop.ran,prac_wm_test_loop.thisRepN,prac_wm_test_loop.thisTrialN,prac_wm_test_loop.thisN,prac_wm_test_loop.thisIndex,prac_wm_test_loop.ran,wm_recalled1,wm_recall_rt1,wm_probed1,wm_recall_acc1,wm_recalled2,wm_recall_rt2,wm_probed2,wm_recall_acc2,wm_recalled3,wm_recall_rt3,wm_probed3,wm_recall_acc3,wm_recalled4,wm_recall_rt4,wm_probed4,wm_recall_acc4,prac_wm_trial_loop.thisRepN,prac_wm_trial_loop.thisTrialN,prac_wm_trial_loop.thisN,prac_wm_trial_loop.thisIndex,prac_wm_trial_loop.ran,word1,image1,file1,item_type1,word2,image2,file2,item_type2,word4,image4,file4,item_type4,word3,image3,file3,item_type3,wm_test_loop.thisRepN,wm_test_loop.thisTrialN,wm_test_loop.thisN,wm_test_loop.thisIndex,wm_test_loop.ran,wm_trial_loop.thisRepN,wm_trial_loop.thisTrialN,wm_trial_loop.thisN,wm_trial_loop.thisIndex,wm_trial_loop.ran
y,40.57714,TOUGH,3.412955,1,0,0,0,0,1,stimuli/images/PICTURE_747.png,TOUGH,5ef4948e17993d0424e13842,09/05/2002,2020-08-13_13h49.32.178,proactive2,2020.1.2,Win32,60,5f341be081b9052c55068110,5f353698c7567a4a28eef523,5,,,,,,,,,,,,,,,,,,,,,,,,,,,,,,,,,,,,,,,,,,,,,,,,,,,,,,,,,,,,,,,,,,,,,,,,,,,,,,,,,,,,,,,,,,,,,,,,,,,,,,,,,,,,,,,,,,,,,
,,,,,,,,,,stimuli/images/PICTURE_269.png,GENIUS,5ef4948e17993d0424e13842,09/05/2002,2020-08-13_13h49.32.178,proactive2,2020.1.2,Win32,60,5f341be081b9052c55068110,5f353698c7567a4a28eef523,5,0,0,0,0,1,chameleon,,,,,,,,,,,,,,,,,,,,,,,,,,,,,,,,,,,,,,,,,,,,,,,,,,,,,,,,,,,,,,,,,,,,,,,,,,,,,,,,,,,,,,,,,,,,,,,,,,,,,,,,,,,,,,,
,,,,,,,,,,stimuli/images/PICTURE_378.png,LOSS,5ef4948e17993d0424e13842,09/05/2002,2020-08-13_13h49.32.178,proactive2,2020.1.2,Win32,60,5f341be081b9052c55068110,5f353698c7567a4a28eef523,5,0,1,1,2,1,lobster,,,,,,,,,,,,,,,,,,,,,,,,,,,,,,,,,,,,,,,,,,,,,,,,,,,,,,,,,,,,,,,,,,,,,,,,,,,,,,,,,,,,,,,,,,,,,,,,,,,,,,,,,,,,,,,
,,,,,,,,,,stimuli/images/PICTURE_697.png,KILLER,5ef4948e17993d0424e13842,09/05/2002,2020-08-13_13h49.32.178,proactive2,2020.1.2,Win32,60,5f341be081b9052c55068110,5f353698c7567a4a28eef523,5,0,2,2,4,1,peach,,,,,,,,,,,,,,,,,,,,,,,,,,,,,,,,,,,,,,,,,,,,,,,,,,,,,,,,,,,,,,,,,,,,,,,,,,,,,,,,,,,,,,,,,,,,,,,,,,,,,,,,,,,,,,,
,,,,,,,,,,stimuli/images/PICTURE_658.png,DEVIL,5ef4948e17993d0424e13842,09/05/2002,2020-08-13_13h49.32.178,proactive2,2020.1.2,Win32,60,5f341be081b9052c55068110,5f353698c7567a4a28eef523,5,0,3,3,3,1,crow,,,,,,,,,,,,,,,,,,,,,,,,,,,,,,,,,,,,,,,,,,,,,,,,,,,,,,,,,,,,,,,,,,,,,,,,,,,,,,,,,,,,,,,,,,,,,,,,,,,,,,,,,,,,,,,
,,KILLER,7.262405,1,,,,,,stimuli/images/PICTURE_697.png,KILLER,5ef4948e17993d0424e13842,09/05/2002,2020-08-13_13h49.32.178,proactive2,2020.1.2,Win32,60,5f341be081b9052c55068110,5f353698c7567a4a28eef523,5,,,,,,peach,0,0,0,4,1,,,,,,,,,,,,,,,,,,,,,,,,,,,,,,,,,,,,,,,,,,,,,,,,,,,,,,,,,,,,,,,,,,,,,,,,,,,,,,,,,,,,,,,,,,,,,,,,,,,,,,,,,,
,,LOSS,5.682095,1,,,,,,stimuli/images/PICTURE_378.png,LOSS,5ef4948e17993d0424e13842,09/05/2002,2020-08-13_13h49.32.178,proactive2,2020.1.2,Win32,60,5f341be081b9052c55068110,5f353698c7567a4a28eef523,5,,,,,,lobster,0,1,1,2,1,,,,,,,,,,,,,,,,,,,,,,,,,,,,,,,,,,,,,,,,,,,,,,,,,,,,,,,,,,,,,,,,,,,,,,,,,,,,,,,,,,,,,,,,,,,,,,,,,,,,,,,,,,
,,GENIUS,7.166255,1,,,,,,stimuli/images/PICTURE_269.png,GENIUS,5ef4948e17993d0424e13842,09/05/2002,2020-08-13_13h49.32.178,proactive2,2020.1.2,Win32,60,5f341be081b9052c55068110,5f353698c7567a4a28eef523,5,,,,,,chameleon,0,2,2,0,1,,,,,,,,,,,,,,,,,,,,,,,,,,,,,,,,,,,,,,,,,,,,,,,,,,,,,,,,,,,,,,,,,,,,,,,,,,,,,,,,,,,,,,,,,,,,,,,,,,,,,,,,,,
,,?,3.431595,0,,,,,,stimuli/images/PICTURE_727.png,CELL,5ef4948e17993d0424e13842,09/05/2002,2020-08-13_13h49.32.178,proactive2,2020.1.2,Win32,60,5f341be081b9052c55068110,5f353698c7567a4a28eef523,5,,,,,,hose,0,3,3,1,1,,,,,,,,,,,,,,,,,,,,,,,,,,,,,,,,,,,,,,,,,,,,,,,,,,,,,,,,,,,,,,,,,,,,,,,,,,,,,,,,,,,,,,,,,,,,,,,,,,,,,,,,,,
,,DEVIL,3.747635,1,,,,,,stimuli/images/PICTURE_658.png,DEVIL,5ef4948e17993d0424e13842,09/05/2002,2020-08-13_13h49.32.178,proactive2,2020.1.2,Win32,60,5f341be081b9052c55068110,5f353698c7567a4a28eef523,5,,,,,,crow,0,4,4,3,1,,,,,,,,,,,,,,,,,,,,,,,,,,,,,,,,,,,,,,,,,,,,,,,,,,,,,,,,,,,,,,,,,,,,,,,,,,,,,,,,,,,,,,,,,,,,,,,,,,,,,,,,,,
,,,,,,,,,,stimuli/images/PICTURE_68.png,KIND,5ef4948e17993d0424e13842,09/05/2002,2020-08-13_13h49.32.178,proactive2,2020.1.2,Win32,60,5f341be081b9052c55068110,5f353698c7567a4a28eef523,5,,,,,,candle,,,,,,0,0,0,23,1,3,2,,,,,,,,,,,,,,,,,,,,,,,,,,,,,,,,,,,,,,,,,,,,,,,,,,,,,,,,,,,,,,,,,,,,,,,,,,,,,,,,,,,,,,,,,,,,,,,,,,,
,,,,,,,,,,stimuli/images/PICTURE_509.png,APPLE,5ef4948e17993d0424e13842,09/05/2002,2020-08-13_13h49.32.178,proactive2,2020.1.2,Win32,60,5f341be081b9052c55068110,5f353698c7567a4a28eef523,5,,,,,,telephone,,,,,,0,1,1,38,1,4,2,,,,,,,,,,,,,,,,,,,,,,,,,,,,,,,,,,,,,,,,,,,,,,,,,,,,,,,,,,,,,,,,,,,,,,,,,,,,,,,,,,,,,,,,,,,,,,,,,,,
,,,,,,,,,,stimuli/images/PICTURE_509.png,MILLER,5ef4948e17993d0424e13842,09/05/2002,2020-08-13_13h49.32.178,proactive2,2020.1.2,Win32,60,5f341be081b9052c55068110,5f353698c7567a4a28eef523,5,,,,,,telephone,,,,,,0,2,2,49,1,5,2,,,,,,,,,,,,,,,,,,,,,,,,,,,,,,,,,,,,,,,,,,,,,,,,,,,,,,,,,,,,,,,,,,,,,,,,,,,,,,,,,,,,,,,,,,,,,,,,,,,
,,,,,,,,,,stimuli/images/PICTURE_2.png,YARD,5ef4948e17993d0424e13842,09/05/2002,2020-08-13_13h49.32.178,proactive2,2020.1.2,Win32,60,5f341be081b9052c55068110,5f353698c7567a4a28eef523,5,,,,,,tyre,,,,,,0,3,3,55,1,6,2,,,,,,,,,,,,,,,,,,,,,,,,,,,,,,,,,,,,,,,,,,,,,,,,,,,,,,,,,,,,,,,,,,,,,,,,,,,,,,,,,,,,,,,,,,,,,,,,,,,
,,,,,,,,,,stimuli/images/PICTURE_57.png,NATION,5ef4948e17993d0424e13842,09/05/2002,2020-08-13_13h49.32.178,proactive2,2020.1.2,Win32,60,5f341be081b9052c55068110,5f353698c7567a4a28eef523,5,,,,,,stamp,,,,,,0,4,4,21,1,3,2,,,,,,,,,,,,,,,,,,,,,,,,,,,,,,,,,,,,,,,,,,,,,,,,,,,,,,,,,,,,,,,,,,,,,,,,,,,,,,,,,,,,,,,,,,,,,,,,,,,
,,,,,,,,,,stimuli/images/PICTURE_123.png,SALE,5ef4948e17993d0424e13842,09/05/2002,2020-08-13_13h49.32.178,proactive2,2020.1.2,Win32,60,5f341be081b9052c55068110,5f353698c7567a4a28eef523,5,,,,,,dart,,,,,,0,5,5,8,1,1,2,,,,,,,,,,,,,,,,,,,,,,,,,,,,,,,,,,,,,,,,,,,,,,,,,,,,,,,,,,,,,,,,,,,,,,,,,,,,,,,,,,,,,,,,,,,,,,,,,,,
,,,,,,,,,,stimuli/images/PICTURE_177.png,HOUSE,5ef4948e17993d0424e13842,09/05/2002,2020-08-13_13h49.32.178,proactive2,2020.1.2,Win32,60,5f341be081b9052c55068110,5f353698c7567a4a28eef523,5,,,,,,mushroom,,,,,,0,6,6,25,1,3,2,,,,,,,,,,,,,,,,,,,,,,,,,,,,,,,,,,,,,,,,,,,,,,,,,,,,,,,,,,,,,,,,,,,,,,,,,,,,,,,,,,,,,,,,,,,,,,,,,,,
,,,,,,,,,,stimuli/images/PICTURE_285.png,PRINCE,5ef4948e17993d0424e13842,09/05/2002,2020-08-13_13h49.32.178,proactive2,2020.1.2,Win32,60,5f341be081b9052c55068110,5f353698c7567a4a28eef523,5,,,,,,carrot,,,,,,0,7,7,20,1,3,2,,,,,,,,,,,,,,,,,,,,,,,,,,,,,,,,,,,,,,,,,,,,,,,,,,,,,,,,,,,,,,,,,,,,,,,,,,,,,,,,,,,,,,,,,,,,,,,,,,,
,,,,,,,,,,stimuli/images/PICTURE_356.png,CANDY,5ef4948e17993d0424e13842,09/05/2002,2020-08-13_13h49.32.178,proactive2,2020.1.2,Win32,60,5f341be081b9052c55068110,5f353698c7567a4a28eef523,5,,,,,,pawn,,,,,,0,8,8,46,1,5,2,,,,,,,,,,,,,,,,,,,,,,,,,,,,,,,,,,,,,,,,,,,,,,,,,,,,,,,,,,,,,,,,,,,,,,,,,,,,,,,,,,,,,,,,,,,,,,,,,,,
,,,,,,,,,,stimuli/images/PICTURE_311.png,TOILET,5ef4948e17993d0424e13842,09/05/2002,2020-08-13_13h49.32.178,proactive2,2020.1.2,Win32,60,5f341be081b9052c55068110,5f353698c7567a4a28eef523,5,,,,,,razor,,,,,,0,9,9,54,1,6,2,,,,,,,,,,,,,,,,,,,,,,,,,,,,,,,,,,,,,,,,,,,,,,,,,,,,,,,,,,,,,,,,,,,,,,,,,,,,,,,,,,,,,,,,,,,,,,,,,,,
,,,,,,,,,,stimuli/images/PICTURE_296.png,CLOCK,5ef4948e17993d0424e13842,09/05/2002,2020-08-13_13h49.32.178,proactive2,2020.1.2,Win32,60,5f341be081b9052c55068110,5f353698c7567a4a28eef523,5,,,,,,bolt,,,,,,0,10,10,18,1,2,2,,,,,,,,,,,,,,,,,,,,,,,,,,,,,,,,,,,,,,,,,,,,,,,,,,,,,,,,,,,,,,,,,,,,,,,,,,,,,,,,,,,,,,,,,,,,,,,,,,,
,,,,,,,,,,stimuli/images/PICTURE_654.png,COPS,5ef4948e17993d0424e13842,09/05/2002,2020-08-13_13h49.32.178,proactive2,2020.1.2,Win32,60,5f341be081b9052c55068110,5f353698c7567a4a28eef523,5,,,,,,pencil,,,,,,0,11,11,10,1,2,2,,,,,,,,,,,,,,,,,,,,,,,,,,,,,,,,,,,,,,,,,,,,,,,,,,,,,,,,,,,,,,,,,,,,,,,,,,,,,,,,,,,,,,,,,,,,,,,,,,,
,,,,,,,,,,stimuli/images/PICTURE_348.png,TOILET,5ef4948e17993d0424e13842,09/05/2002,2020-08-13_13h49.32.178,proactive2,2020.1.2,Win32,60,5f341be081b9052c55068110,5f353698c7567a4a28eef523,5,,,,,,pepper,,,,,,0,12,12,4,1,1,2,,,,,,,,,,,,,,,,,,,,,,,,,,,,,,,,,,,,,,,,,,,,,,,,,,,,,,,,,,,,,,,,,,,,,,,,,,,,,,,,,,,,,,,,,,,,,,,,,,,
,,,,,,,,,,stimuli/images/PICTURE_405.png,JUNGLE,5ef4948e17993d0424e13842,09/05/2002,2020-08-13_13h49.32.178,proactive2,2020.1.2,Win32,60,5f341be081b9052c55068110,5f353698c7567a4a28eef523,5,,,,,,anchor,,,,,,0,13,13,13,1,2,2,,,,,,,,,,,,,,,,,,,,,,,,,,,,,,,,,,,,,,,,,,,,,,,,,,,,,,,,,,,,,,,,,,,,,,,,,,,,,,,,,,,,,,,,,,,,,,,,,,,
,,,,,,,,,,stimuli/images/PICTURE_57.png,CANDY,5ef4948e17993d0424e13842,09/05/2002,2020-08-13_13h49.32.178,proactive2,2020.1.2,Win32,60,5f341be081b9052c55068110,5f353698c7567a4a28eef523,5,,,,,,stamp,,,,,,0,14,14,52,1,6,2,,,,,,,,,,,,,,,,,,,,,,,,,,,,,,,,,,,,,,,,,,,,,,,,,,,,,,,,,,,,,,,,,,,,,,,,,,,,,,,,,,,,,,,,,,,,,,,,,,,
,,,,,,,,,,stimuli/images/PICTURE_255.png,PENNY,5ef4948e17993d0424e13842,09/05/2002,2020-08-13_13h49.32.178,proactive2,2020.1.2,Win32,60,5f341be081b9052c55068110,5f353698c7567a4a28eef523,5,,,,,,shovel,,,,,,0,15,15,19,1,2,2,,,,,,,,,,,,,,,,,,,,,,,,,,,,,,,,,,,,,,,,,,,,,,,,,,,,,,,,,,,,,,,,,,,,,,,,,,,,,,,,,,,,,,,,,,,,,,,,,,,
,,,,,,,,,,stimuli/images/PICTURE_348.png,DUDE,5ef4948e17993d0424e13842,09/05/2002,2020-08-13_13h49.32.178,proactive2,2020.1.2,Win32,60,5f341be081b9052c55068110,5f353698c7567a4a28eef523,5,,,,,,pepper,,,,,,0,16,16,59,1,6,2,,,,,,,,,,,,,,,,,,,,,,,,,,,,,,,,,,,,,,,,,,,,,,,,,,,,,,,,,,,,,,,,,,,,,,,,,,,,,,,,,,,,,,,,,,,,,,,,,,,
,,,,,,,,,,stimuli/images/PICTURE_487.png,ROOF,5ef4948e17993d0424e13842,09/05/2002,2020-08-13_13h49.32.178,proactive2,2020.1.2,Win32,60,5f341be081b9052c55068110,5f353698c7567a4a28eef523,5,,,,,,basket,,,,,,0,17,17,50,1,6,2,,,,,,,,,,,,,,,,,,,,,,,,,,,,,,,,,,,,,,,,,,,,,,,,,,,,,,,,,,,,,,,,,,,,,,,,,,,,,,,,,,,,,,,,,,,,,,,,,,,
,,,,,,,,,,stimuli/images/PICTURE_215.png,LEADER,5ef4948e17993d0424e13842,09/05/2002,2020-08-13_13h49.32.178,proactive2,2020.1.2,Win32,60,5f341be081b9052c55068110,5f353698c7567a4a28eef523,5,,,,,,boot,,,,,,0,18,18,43,1,5,2,,,,,,,,,,,,,,,,,,,,,,,,,,,,,,,,,,,,,,,,,,,,,,,,,,,,,,,,,,,,,,,,,,,,,,,,,,,,,,,,,,,,,,,,,,,,,,,,,,,
,,,,,,,,,,stimuli/images/PICTURE_509.png,SHOTS,5ef4948e17993d0424e13842,09/05/2002,2020-08-13_13h49.32.178,proactive2,2020.1.2,Win32,60,5f341be081b9052c55068110,5f353698c7567a4a28eef523,5,,,,,,telephone,,,,,,0,19,19,7,1,1,2,,,,,,,,,,,,,,,,,,,,,,,,,,,,,,,,,,,,,,,,,,,,,,,,,,,,,,,,,,,,,,,,,,,,,,,,,,,,,,,,,,,,,,,,,,,,,,,,,,,
,,,,,,,,,,stimuli/images/PICTURE_654.png,YEAR,5ef4948e17993d0424e13842,09/05/2002,2020-08-13_13h49.32.178,proactive2,2020.1.2,Win32,60,5f341be081b9052c55068110,5f353698c7567a4a28eef523,5,,,,,,pencil,,,,,,0,20,20,41,1,5,2,,,,,,,,,,,,,,,,,,,,,,,,,,,,,,,,,,,,,,,,,,,,,,,,,,,,,,,,,,,,,,,,,,,,,,,,,,,,,,,,,,,,,,,,,,,,,,,,,,,
,,,,,,,,,,stimuli/images/PICTURE_32.png,LETTER,5ef4948e17993d0424e13842,09/05/2002,2020-08-13_13h49.32.178,proactive2,2020.1.2,Win32,60,5f341be081b9052c55068110,5f353698c7567a4a28eef523,5,,,,,,crown,,,,,,0,21,21,56,1,6,2,,,,,,,,,,,,,,,,,,,,,,,,,,,,,,,,,,,,,,,,,,,,,,,,,,,,,,,,,,,,,,,,,,,,,,,,,,,,,,,,,,,,,,,,,,,,,,,,,,,
,,,,,,,,,,stimuli/images/PICTURE_655.png,SALE,5ef4948e17993d0424e13842,09/05/2002,2020-08-13_13h49.32.178,proactive2,2020.1.2,Win32,60,5f341be081b9052c55068110,5f353698c7567a4a28eef523,5,,,,,,megaphone,,,,,,0,22,22,57,1,6,2,,,,,,,,,,,,,,,,,,,,,,,,,,,,,,,,,,,,,,,,,,,,,,,,,,,,,,,,,,,,,,,,,,,,,,,,,,,,,,,,,,,,,,,,,,,,,,,,,,,
,,,,,,,,,,stimuli/images/PICTURE_509.png,BATH,5ef4948e17993d0424e13842,09/05/2002,2020-08-13_13h49.32.178,proactive2,2020.1.2,Win32,60,5f341be081b9052c55068110,5f353698c7567a4a28eef523,5,,,,,,telephone,,,,,,0,23,23,15,1,2,2,,,,,,,,,,,,,,,,,,,,,,,,,,,,,,,,,,,,,,,,,,,,,,,,,,,,,,,,,,,,,,,,,,,,,,,,,,,,,,,,,,,,,,,,,,,,,,,,,,,
,,,,,,,,,,stimuli/images/PICTURE_504.png,HOUSE,5ef4948e17993d0424e13842,09/05/2002,2020-08-13_13h49.32.178,proactive2,2020.1.2,Win32,60,5f341be081b9052c55068110,5f353698c7567a4a28eef523,5,,,,,,wheel,,,,,,0,24,24,36,1,4,2,,,,,,,,,,,,,,,,,,,,,,,,,,,,,,,,,,,,,,,,,,,,,,,,,,,,,,,,,,,,,,,,,,,,,,,,,,,,,,,,,,,,,,,,,,,,,,,,,,,
,,,,,,,,,,stimuli/images/PICTURE_564.png,PLENTY,5ef4948e17993d0424e13842,09/05/2002,2020-08-13_13h49.32.178,proactive2,2020.1.2,Win32,60,5f341be081b9052c55068110,5f353698c7567a4a28eef523,5,,,,,,spoon,,,,,,0,25,25,11,1,2,2,,,,,,,,,,,,,,,,,,,,,,,,,,,,,,,,,,,,,,,,,,,,,,,,,,,,,,,,,,,,,,,,,,,,,,,,,,,,,,,,,,,,,,,,,,,,,,,,,,,
,,,,,,,,,,stimuli/images/PICTURE_487.png,POLICY,5ef4948e17993d0424e13842,09/05/2002,2020-08-13_13h49.32.178,proactive2,2020.1.2,Win32,60,5f341be081b9052c55068110,5f353698c7567a4a28eef523,5,,,,,,basket,,,,,,0,26,26,34,1,4,2,,,,,,,,,,,,,,,,,,,,,,,,,,,,,,,,,,,,,,,,,,,,,,,,,,,,,,,,,,,,,,,,,,,,,,,,,,,,,,,,,,,,,,,,,,,,,,,,,,,
,,,,,,,,,,stimuli/images/PICTURE_141.png,CLIENT,5ef4948e17993d0424e13842,09/05/2002,2020-08-13_13h49.32.178,proactive2,2020.1.2,Win32,60,5f341be081b9052c55068110,5f353698c7567a4a28eef523,5,,,,,,sunflower,,,,,,0,27,27,30,1,4,2,,,,,,,,,,,,,,,,,,,,,,,,,,,,,,,,,,,,,,,,,,,,,,,,,,,,,,,,,,,,,,,,,,,,,,,,,,,,,,,,,,,,,,,,,,,,,,,,,,,
,,,,,,,,,,stimuli/images/PICTURE_2.png,JUNGLE,5ef4948e17993d0424e13842,09/05/2002,2020-08-13_13h49.32.178,proactive2,2020.1.2,Win32,60,5f341be081b9052c55068110,5f353698c7567a4a28eef523,5,,,,,,tyre,,,,,,0,28,28,1,1,1,2,,,,,,,,,,,,,,,,,,,,,,,,,,,,,,,,,,,,,,,,,,,,,,,,,,,,,,,,,,,,,,,,,,,,,,,,,,,,,,,,,,,,,,,,,,,,,,,,,,,
,,,,,,,,,,stimuli/images/PICTURE_453.png,FAMILY,5ef4948e17993d0424e13842,09/05/2002,2020-08-13_13h49.32.178,proactive2,2020.1.2,Win32,60,5f341be081b9052c55068110,5f353698c7567a4a28eef523,5,,,,,,scissors,,,,,,0,29,29,48,1,5,2,,,,,,,,,,,,,,,,,,,,,,,,,,,,,,,,,,,,,,,,,,,,,,,,,,,,,,,,,,,,,,,,,,,,,,,,,,,,,,,,,,,,,,,,,,,,,,,,,,,
,,,,,,,,,,stimuli/images/PICTURE_2.png,AREA,5ef4948e17993d0424e13842,09/05/2002,2020-08-13_13h49.32.178,proactive2,2020.1.2,Win32,60,5f341be081b9052c55068110,5f353698c7567a4a28eef523,5,,,,,,tyre,,,,,,0,30,30,32,1,4,2,,,,,,,,,,,,,,,,,,,,,,,,,,,,,,,,,,,,,,,,,,,,,,,,,,,,,,,,,,,,,,,,,,,,,,,,,,,,,,,,,,,,,,,,,,,,,,,,,,,
,,,,,,,,,,stimuli/images/PICTURE_491.png,SERIES,5ef4948e17993d0424e13842,09/05/2002,2020-08-13_13h49.32.178,proactive2,2020.1.2,Win32,60,5f341be081b9052c55068110,5f353698c7567a4a28eef523,5,,,,,,rug,,,,,,0,31,31,39,1,4,2,,,,,,,,,,,,,,,,,,,,,,,,,,,,,,,,,,,,,,,,,,,,,,,,,,,,,,,,,,,,,,,,,,,,,,,,,,,,,,,,,,,,,,,,,,,,,,,,,,,
,,,,,,,,,,stimuli/images/PICTURE_688.png,CLOCK,5ef4948e17993d0424e13842,09/05/2002,2020-08-13_13h49.32.178,proactive2,2020.1.2,Win32,60,5f341be081b9052c55068110,5f353698c7567a4a28eef523,5,,,,,,runner,,,,,,0,32,32,42,1,5,2,,,,,,,,,,,,,,,,,,,,,,,,,,,,,,,,,,,,,,,,,,,,,,,,,,,,,,,,,,,,,,,,,,,,,,,,,,,,,,,,,,,,,,,,,,,,,,,,,,,
,,,,,,,,,,stimuli/images/PICTURE_18.png,RIVER,5ef4948e17993d0424e13842,09/05/2002,2020-08-13_13h49.32.178,proactive2,2020.1.2,Win32,60,5f341be081b9052c55068110,5f353698c7567a4a28eef523,5,,,,,,planet,,,,,,0,33,33,22,1,3,2,,,,,,,,,,,,,,,,,,,,,,,,,,,,,,,,,,,,,,,,,,,,,,,,,,,,,,,,,,,,,,,,,,,,,,,,,,,,,,,,,,,,,,,,,,,,,,,,,,,
,,,,,,,,,,stimuli/images/PICTURE_452.png,COPS,5ef4948e17993d0424e13842,09/05/2002,2020-08-13_13h49.32.178,proactive2,2020.1.2,Win32,60,5f341be081b9052c55068110,5f353698c7567a4a28eef523,5,,,,,,watch,,,,,,0,34,34,0,1,1,2,,,,,,,,,,,,,,,,,,,,,,,,,,,,,,,,,,,,,,,,,,,,,,,,,,,,,,,,,,,,,,,,,,,,,,,,,,,,,,,,,,,,,,,,,,,,,,,,,,,
,,,,,,,,,,stimuli/images/PICTURE_750.png,POLICY,5ef4948e17993d0424e13842,09/05/2002,2020-08-13_13h49.32.178,proactive2,2020.1.2,Win32,60,5f341be081b9052c55068110,5f353698c7567a4a28eef523,5,,,,,,kettle,,,,,,0,35,35,44,1,5,2,,,,,,,,,,,,,,,,,,,,,,,,,,,,,,,,,,,,,,,,,,,,,,,,,,,,,,,,,,,,,,,,,,,,,,,,,,,,,,,,,,,,,,,,,,,,,,,,,,,
,,,,,,,,,,stimuli/images/PICTURE_677.png,FAMILY,5ef4948e17993d0424e13842,09/05/2002,2020-08-13_13h49.32.178,proactive2,2020.1.2,Win32,60,5f341be081b9052c55068110,5f353698c7567a4a28eef523,5,,,,,,map,,,,,,0,36,36,53,1,6,2,,,,,,,,,,,,,,,,,,,,,,,,,,,,,,,,,,,,,,,,,,,,,,,,,,,,,,,,,,,,,,,,,,,,,,,,,,,,,,,,,,,,,,,,,,,,,,,,,,,
,,,,,,,,,,stimuli/images/PICTURE_470.png,BEAUTY,5ef4948e17993d0424e13842,09/05/2002,2020-08-13_13h49.32.178,proactive2,2020.1.2,Win32,60,5f341be081b9052c55068110,5f353698c7567a4a28eef523,5,,,,,,motorbike,,,,,,0,37,37,26,1,3,2,,,,,,,,,,,,,,,,,,,,,,,,,,,,,,,,,,,,,,,,,,,,,,,,,,,,,,,,,,,,,,,,,,,,,,,,,,,,,,,,,,,,,,,,,,,,,,,,,,,
,,,,,,,,,,stimuli/images/PICTURE_405.png,JUNGLE,5ef4948e17993d0424e13842,09/05/2002,2020-08-13_13h49.32.178,proactive2,2020.1.2,Win32,60,5f341be081b9052c55068110,5f353698c7567a4a28eef523,5,,,,,,anchor,,,,,,0,38,38,58,1,6,2,,,,,,,,,,,,,,,,,,,,,,,,,,,,,,,,,,,,,,,,,,,,,,,,,,,,,,,,,,,,,,,,,,,,,,,,,,,,,,,,,,,,,,,,,,,,,,,,,,,
,,,,,,,,,,stimuli/images/PICTURE_314.png,SPEECH,5ef4948e17993d0424e13842,09/05/2002,2020-08-13_13h49.32.178,proactive2,2020.1.2,Win32,60,5f341be081b9052c55068110,5f353698c7567a4a28eef523,5,,,,,,perfume,,,,,,0,39,39,35,1,4,2,,,,,,,,,,,,,,,,,,,,,,,,,,,,,,,,,,,,,,,,,,,,,,,,,,,,,,,,,,,,,,,,,,,,,,,,,,,,,,,,,,,,,,,,,,,,,,,,,,,
,,,,,,,,,,stimuli/images/PICTURE_403.png,FAMILY,5ef4948e17993d0424e13842,09/05/2002,2020-08-13_13h49.32.178,proactive2,2020.1.2,Win32,60,5f341be081b9052c55068110,5f353698c7567a4a28eef523,5,,,,,,cathedral,,,,,,0,40,40,9,1,1,2,,,,,,,,,,,,,,,,,,,,,,,,,,,,,,,,,,,,,,,,,,,,,,,,,,,,,,,,,,,,,,,,,,,,,,,,,,,,,,,,,,,,,,,,,,,,,,,,,,,
,,,,,,,,,,stimuli/images/PICTURE_57.png,CASINO,5ef4948e17993d0424e13842,09/05/2002,2020-08-13_13h49.32.178,proactive2,2020.1.2,Win32,60,5f341be081b9052c55068110,5f353698c7567a4a28eef523,5,,,,,,stamp,,,,,,0,41,41,12,1,2,2,,,,,,,,,,,,,,,,,,,,,,,,,,,,,,,,,,,,,,,,,,,,,,,,,,,,,,,,,,,,,,,,,,,,,,,,,,,,,,,,,,,,,,,,,,,,,,,,,,,
,,,,,,,,,,stimuli/images/PICTURE_311.png,FLESH,5ef4948e17993d0424e13842,09/05/2002,2020-08-13_13h49.32.178,proactive2,2020.1.2,Win32,60,5f341be081b9052c55068110,5f353698c7567a4a28eef523,5,,,,,,razor,,,,,,0,42,42,3,1,1,2,,,,,,,,,,,,,,,,,,,,,,,,,,,,,,,,,,,,,,,,,,,,,,,,,,,,,,,,,,,,,,,,,,,,,,,,,,,,,,,,,,,,,,,,,,,,,,,,,,,
,,,,,,,,,,stimuli/images/PICTURE_708.png,VALLEY,5ef4948e17993d0424e13842,09/05/2002,2020-08-13_13h49.32.178,proactive2,2020.1.2,Win32,60,5f341be081b9052c55068110,5f353698c7567a4a28eef523,5,,,,,,monkey,,,,,,0,43,43,45,1,5,2,,,,,,,,,,,,,,,,,,,,,,,,,,,,,,,,,,,,,,,,,,,,,,,,,,,,,,,,,,,,,,,,,,,,,,,,,,,,,,,,,,,,,,,,,,,,,,,,,,,
,,,,,,,,,,stimuli/images/PICTURE_667.png,GLASS,5ef4948e17993d0424e13842,09/05/2002,2020-08-13_13h49.32.178,proactive2,2020.1.2,Win32,60,5f341be081b9052c55068110,5f353698c7567a4a28eef523,5,,,,,,daisy,,,,,,0,44,44,27,1,3,2,,,,,,,,,,,,,,,,,,,,,,,,,,,,,,,,,,,,,,,,,,,,,,,,,,,,,,,,,,,,,,,,,,,,,,,,,,,,,,,,,,,,,,,,,,,,,,,,,,,
,,,,,,,,,,stimuli/images/PICTURE_33.png,COPS,5ef4948e17993d0424e13842,09/05/2002,2020-08-13_13h49.32.178,proactive2,2020.1.2,Win32,60,5f341be081b9052c55068110,5f353698c7567a4a28eef523,5,,,,,,frame,,,,,,0,45,45,29,1,3,2,,,,,,,,,,,,,,,,,,,,,,,,,,,,,,,,,,,,,,,,,,,,,,,,,,,,,,,,,,,,,,,,,,,,,,,,,,,,,,,,,,,,,,,,,,,,,,,,,,,
,,,,,,,,,,stimuli/images/PICTURE_327.png,LEADER,5ef4948e17993d0424e13842,09/05/2002,2020-08-13_13h49.32.178,proactive2,2020.1.2,Win32,60,5f341be081b9052c55068110,5f353698c7567a4a28eef523,5,,,,,,helmet,,,,,,0,46,46,17,1,2,2,,,,,,,,,,,,,,,,,,,,,,,,,,,,,,,,,,,,,,,,,,,,,,,,,,,,,,,,,,,,,,,,,,,,,,,,,,,,,,,,,,,,,,,,,,,,,,,,,,,
,,,,,,,,,,stimuli/images/PICTURE_160.png,HOTEL,5ef4948e17993d0424e13842,09/05/2002,2020-08-13_13h49.32.178,proactive2,2020.1.2,Win32,60,5f341be081b9052c55068110,5f353698c7567a4a28eef523,5,,,,,,wheelbarrow,,,,,,0,47,47,16,1,2,2,,,,,,,,,,,,,,,,,,,,,,,,,,,,,,,,,,,,,,,,,,,,,,,,,,,,,,,,,,,,,,,,,,,,,,,,,,,,,,,,,,,,,,,,,,,,,,,,,,,
,,,,,,,,,,stimuli/images/PICTURE_405.png,HOUSE,5ef4948e17993d0424e13842,09/05/2002,2020-08-13_13h49.32.178,proactive2,2020.1.2,Win32,60,5f341be081b9052c55068110,5f353698c7567a4a28eef523,5,,,,,,anchor,,,,,,0,48,48,2,1,1,2,,,,,,,,,,,,,,,,,,,,,,,,,,,,,,,,,,,,,,,,,,,,,,,,,,,,,,,,,,,,,,,,,,,,,,,,,,,,,,,,,,,,,,,,,,,,,,,,,,,
,,,,,,,,,,stimuli/images/PICTURE_95.png,NIGHT,5ef4948e17993d0424e13842,09/05/2002,2020-08-13_13h49.32.178,proactive2,2020.1.2,Win32,60,5f341be081b9052c55068110,5f353698c7567a4a28eef523,5,,,,,,suitcase,,,,,,0,49,49,37,1,4,2,,,,,,,,,,,,,,,,,,,,,,,,,,,,,,,,,,,,,,,,,,,,,,,,,,,,,,,,,,,,,,,,,,,,,,,,,,,,,,,,,,,,,,,,,,,,,,,,,,,
,,,,,,,,,,stimuli/images/PICTURE_215.png,BOYS,5ef4948e17993d0424e13842,09/05/2002,2020-08-13_13h49.32.178,proactive2,2020.1.2,Win32,60,5f341be081b9052c55068110,5f353698c7567a4a28eef523,5,,,,,,boot,,,,,,0,50,50,24,1,3,2,,,,,,,,,,,,,,,,,,,,,,,,,,,,,,,,,,,,,,,,,,,,,,,,,,,,,,,,,,,,,,,,,,,,,,,,,,,,,,,,,,,,,,,,,,,,,,,,,,,
,,,,,,,,,,stimuli/images/PICTURE_208.png,SPIRIT,5ef4948e17993d0424e13842,09/05/2002,2020-08-13_13h49.32.178,proactive2,2020.1.2,Win32,60,5f341be081b9052c55068110,5f353698c7567a4a28eef523,5,,,,,,microphone,,,,,,0,51,51,28,1,3,2,,,,,,,,,,,,,,,,,,,,,,,,,,,,,,,,,,,,,,,,,,,,,,,,,,,,,,,,,,,,,,,,,,,,,,,,,,,,,,,,,,,,,,,,,,,,,,,,,,,
,,,,,,,,,,stimuli/images/PICTURE_285.png,WRITER,5ef4948e17993d0424e13842,09/05/2002,2020-08-13_13h49.32.178,proactive2,2020.1.2,Win32,60,5f341be081b9052c55068110,5f353698c7567a4a28eef523,5,,,,,,carrot,,,,,,0,52,52,6,1,1,2,,,,,,,,,,,,,,,,,,,,,,,,,,,,,,,,,,,,,,,,,,,,,,,,,,,,,,,,,,,,,,,,,,,,,,,,,,,,,,,,,,,,,,,,,,,,,,,,,,,
,,,,,,,,,,stimuli/images/PICTURE_93.png,GIRL,5ef4948e17993d0424e13842,09/05/2002,2020-08-13_13h49.32.178,proactive2,2020.1.2,Win32,60,5f341be081b9052c55068110,5f353698c7567a4a28eef523,5,,,,,,skateboard,,,,,,0,53,53,31,1,4,2,,,,,,,,,,,,,,,,,,,,,,,,,,,,,,,,,,,,,,,,,,,,,,,,,,,,,,,,,,,,,,,,,,,,,,,,,,,,,,,,,,,,,,,,,,,,,,,,,,,
,,,,,,,,,,stimuli/images/PICTURE_692.png,DUDE,5ef4948e17993d0424e13842,09/05/2002,2020-08-13_13h49.32.178,proactive2,2020.1.2,Win32,60,5f341be081b9052c55068110,5f353698c7567a4a28eef523,5,,,,,,cherry,,,,,,0,54,54,47,1,5,2,,,,,,,,,,,,,,,,,,,,,,,,,,,,,,,,,,,,,,,,,,,,,,,,,,,,,,,,,,,,,,,,,,,,,,,,,,,,,,,,,,,,,,,,,,,,,,,,,,,
,,,,,,,,,,stimuli/images/PICTURE_215.png,FOOD,5ef4948e17993d0424e13842,09/05/2002,2020-08-13_13h49.32.178,proactive2,2020.1.2,Win32,60,5f341be081b9052c55068110,5f353698c7567a4a28eef523,5,,,,,,boot,,,,,,0,55,55,5,1,1,2,,,,,,,,,,,,,,,,,,,,,,,,,,,,,,,,,,,,,,,,,,,,,,,,,,,,,,,,,,,,,,,,,,,,,,,,,,,,,,,,,,,,,,,,,,,,,,,,,,,
,,,,,,,,,,stimuli/images/PICTURE_297.png,BODY,5ef4948e17993d0424e13842,09/05/2002,2020-08-13_13h49.32.178,proactive2,2020.1.2,Win32,60,5f341be081b9052c55068110,5f353698c7567a4a28eef523,5,,,,,,aeroplane,,,,,,0,56,56,51,1,6,2,,,,,,,,,,,,,,,,,,,,,,,,,,,,,,,,,,,,,,,,,,,,,,,,,,,,,,,,,,,,,,,,,,,,,,,,,,,,,,,,,,,,,,,,,,,,,,,,,,,
,,,,,,,,,,stimuli/images/PICTURE_147.png,LEADER,5ef4948e17993d0424e13842,09/05/2002,2020-08-13_13h49.32.178,proactive2,2020.1.2,Win32,60,5f341be081b9052c55068110,5f353698c7567a4a28eef523,5,,,,,,hanger,,,,,,0,57,57,33,1,4,2,,,,,,,,,,,,,,,,,,,,,,,,,,,,,,,,,,,,,,,,,,,,,,,,,,,,,,,,,,,,,,,,,,,,,,,,,,,,,,,,,,,,,,,,,,,,,,,,,,,
,,,,,,,,,,stimuli/images/PICTURE_677.png,PHOTO,5ef4948e17993d0424e13842,09/05/2002,2020-08-13_13h49.32.178,proactive2,2020.1.2,Win32,60,5f341be081b9052c55068110,5f353698c7567a4a28eef523,5,,,,,,map,,,,,,0,58,58,14,1,2,2,,,,,,,,,,,,,,,,,,,,,,,,,,,,,,,,,,,,,,,,,,,,,,,,,,,,,,,,,,,,,,,,,,,,,,,,,,,,,,,,,,,,,,,,,,,,,,,,,,,
,,?,0.00178,0,,,,,,stimuli/images/PICTURE_177.png,HOUSE,5ef4948e17993d0424e13842,09/05/2002,2020-08-13_13h49.32.178,proactive2,2020.1.2,Win32,60,5f341be081b9052c55068110,5f353698c7567a4a28eef523,5,,,,,,mushroom,,,,,,,,,,,3,2,0,0,0,25,1,,,,,,,,,,,,,,,,,,,,,,,,,,,,,,,,,,,,,,,,,,,,,,,,,,,,,,,,,,,,,,,,,,,,,,,,,,,,,,,,,,,,,,,,,,,,,,
,,FAMILY,7.72093,1,,,,,,stimuli/images/PICTURE_453.png,FAMILY,5ef4948e17993d0424e13842,09/05/2002,2020-08-13_13h49.32.178,proactive2,2020.1.2,Win32,60,5f341be081b9052c55068110,5f353698c7567a4a28eef523,5,,,,,,scissors,,,,,,,,,,,5,2,0,1,1,48,1,,,,,,,,,,,,,,,,,,,,,,,,,,,,,,,,,,,,,,,,,,,,,,,,,,,,,,,,,,,,,,,,,,,,,,,,,,,,,,,,,,,,,,,,,,,,,,
,,?,0.00239,0,,,,,,stimuli/images/PICTURE_452.png,COPS,5ef4948e17993d0424e13842,09/05/2002,2020-08-13_13h49.32.178,proactive2,2020.1.2,Win32,60,5f341be081b9052c55068110,5f353698c7567a4a28eef523,5,,,,,,watch,,,,,,,,,,,1,2,0,2,2,0,1,,,,,,,,,,,,,,,,,,,,,,,,,,,,,,,,,,,,,,,,,,,,,,,,,,,,,,,,,,,,,,,,,,,,,,,,,,,,,,,,,,,,,,,,,,,,,,
,,?,0.001315,0,,,,,,stimuli/images/PICTURE_487.png,POLICY,5ef4948e17993d0424e13842,09/05/2002,2020-08-13_13h49.32.178,proactive2,2020.1.2,Win32,60,5f341be081b9052c55068110,5f353698c7567a4a28eef523,5,,,,,,basket,,,,,,,,,,,4,2,0,3,3,34,1,,,,,,,,,,,,,,,,,,,,,,,,,,,,,,,,,,,,,,,,,,,,,,,,,,,,,,,,,,,,,,,,,,,,,,,,,,,,,,,,,,,,,,,,,,,,,,
,,?,0.00134,0,,,,,,stimuli/images/PICTURE_18.png,RIVER,5ef4948e17993d0424e13842,09/05/2002,2020-08-13_13h49.32.178,proactive2,2020.1.2,Win32,60,5f341be081b9052c55068110,5f353698c7567a4a28eef523,5,,,,,,planet,,,,,,,,,,,3,2,0,4,4,22,1,,,,,,,,,,,,,,,,,,,,,,,,,,,,,,,,,,,,,,,,,,,,,,,,,,,,,,,,,,,,,,,,,,,,,,,,,,,,,,,,,,,,,,,,,,,,,,
,,?,0.001345,0,,,,,,stimuli/images/PICTURE_509.png,APPLE,5ef4948e17993d0424e13842,09/05/2002,2020-08-13_13h49.32.178,proactive2,2020.1.2,Win32,60,5f341be081b9052c55068110,5f353698c7567a4a28eef523,5,,,,,,telephone,,,,,,,,,,,4,2,0,5,5,38,1,,,,,,,,,,,,,,,,,,,,,,,,,,,,,,,,,,,,,,,,,,,,,,,,,,,,,,,,,,,,,,,,,,,,,,,,,,,,,,,,,,,,,,,,,,,,,,
,,?,0.002875,0,,,,,,stimuli/images/PICTURE_470.png,BEAUTY,5ef4948e17993d0424e13842,09/05/2002,2020-08-13_13h49.32.178,proactive2,2020.1.2,Win32,60,5f341be081b9052c55068110,5f353698c7567a4a28eef523,5,,,,,,motorbike,,,,,,,,,,,3,2,0,6,6,26,1,,,,,,,,,,,,,,,,,,,,,,,,,,,,,,,,,,,,,,,,,,,,,,,,,,,,,,,,,,,,,,,,,,,,,,,,,,,,,,,,,,,,,,,,,,,,,,
,,?,0.001035,0,,,,,,stimuli/images/PICTURE_667.png,GLASS,5ef4948e17993d0424e13842,09/05/2002,2020-08-13_13h49.32.178,proactive2,2020.1.2,Win32,60,5f341be081b9052c55068110,5f353698c7567a4a28eef523,5,,,,,,daisy,,,,,,,,,,,3,2,0,7,7,27,1,,,,,,,,,,,,,,,,,,,,,,,,,,,,,,,,,,,,,,,,,,,,,,,,,,,,,,,,,,,,,,,,,,,,,,,,,,,,,,,,,,,,,,,,,,,,,,
,,?,0.000915,0,,,,,,stimuli/images/PICTURE_95.png,NIGHT,5ef4948e17993d0424e13842,09/05/2002,2020-08-13_13h49.32.178,proactive2,2020.1.2,Win32,60,5f341be081b9052c55068110,5f353698c7567a4a28eef523,5,,,,,,suitcase,,,,,,,,,,,4,2,0,8,8,37,1,,,,,,,,,,,,,,,,,,,,,,,,,,,,,,,,,,,,,,,,,,,,,,,,,,,,,,,,,,,,,,,,,,,,,,,,,,,,,,,,,,,,,,,,,,,,,,
,,?,0.001135,0,,,,,,stimuli/images/PICTURE_215.png,BOYS,5ef4948e17993d0424e13842,09/05/2002,2020-08-13_13h49.32.178,proactive2,2020.1.2,Win32,60,5f341be081b9052c55068110,5f353698c7567a4a28eef523,5,,,,,,boot,,,,,,,,,,,3,2,0,9,9,24,1,,,,,,,,,,,,,,,,,,,,,,,,,,,,,,,,,,,,,,,,,,,,,,,,,,,,,,,,,,,,,,,,,,,,,,,,,,,,,,,,,,,,,,,,,,,,,,
,,?,0.00081,0,,,,,,stimuli/images/PICTURE_160.png,HOTEL,5ef4948e17993d0424e13842,09/05/2002,2020-08-13_13h49.32.178,proactive2,2020.1.2,Win32,60,5f341be081b9052c55068110,5f353698c7567a4a28eef523,5,,,,,,wheelbarrow,,,,,,,,,,,2,2,0,10,10,16,1,,,,,,,,,,,,,,,,,,,,,,,,,,,,,,,,,,,,,,,,,,,,,,,,,,,,,,,,,,,,,,,,,,,,,,,,,,,,,,,,,,,,,,,,,,,,,,
,,?,0.00075,0,,,,,,stimuli/images/PICTURE_57.png,NATION,5ef4948e17993d0424e13842,09/05/2002,2020-08-13_13h49.32.178,proactive2,2020.1.2,Win32,60,5f341be081b9052c55068110,5f353698c7567a4a28eef523,5,,,,,,stamp,,,,,,,,,,,3,2,0,11,11,21,1,,,,,,,,,,,,,,,,,,,,,,,,,,,,,,,,,,,,,,,,,,,,,,,,,,,,,,,,,,,,,,,,,,,,,,,,,,,,,,,,,,,,,,,,,,,,,,
,,?,0.001045,0,,,,,,stimuli/images/PICTURE_677.png,FAMILY,5ef4948e17993d0424e13842,09/05/2002,2020-08-13_13h49.32.178,proactive2,2020.1.2,Win32,60,5f341be081b9052c55068110,5f353698c7567a4a28eef523,5,,,,,,map,,,,,,,,,,,6,2,0,12,12,53,1,,,,,,,,,,,,,,,,,,,,,,,,,,,,,,,,,,,,,,,,,,,,,,,,,,,,,,,,,,,,,,,,,,,,,,,,,,,,,,,,,,,,,,,,,,,,,,
,,?,0.00081,0,,,,,,stimuli/images/PICTURE_285.png,PRINCE,5ef4948e17993d0424e13842,09/05/2002,2020-08-13_13h49.32.178,proactive2,2020.1.2,Win32,60,5f341be081b9052c55068110,5f353698c7567a4a28eef523,5,,,,,,carrot,,,,,,,,,,,3,2,0,13,13,20,1,,,,,,,,,,,,,,,,,,,,,,,,,,,,,,,,,,,,,,,,,,,,,,,,,,,,,,,,,,,,,,,,,,,,,,,,,,,,,,,,,,,,,,,,,,,,,,
,,?,0.00075,0,,,,,,stimuli/images/PICTURE_348.png,DUDE,5ef4948e17993d0424e13842,09/05/2002,2020-08-13_13h49.32.178,proactive2,2020.1.2,Win32,60,5f341be081b9052c55068110,5f353698c7567a4a28eef523,5,,,,,,pepper,,,,,,,,,,,6,2,0,14,14,59,1,,,,,,,,,,,,,,,,,,,,,,,,,,,,,,,,,,,,,,,,,,,,,,,,,,,,,,,,,,,,,,,,,,,,,,,,,,,,,,,,,,,,,,,,,,,,,,
,,?,0.000755,0,,,,,,stimuli/images/PICTURE_33.png,COPS,5ef4948e17993d0424e13842,09/05/2002,2020-08-13_13h49.32.178,proactive2,2020.1.2,Win32,60,5f341be081b9052c55068110,5f353698c7567a4a28eef523,5,,,,,,frame,,,,,,,,,,,3,2,0,15,15,29,1,,,,,,,,,,,,,,,,,,,,,,,,,,,,,,,,,,,,,,,,,,,,,,,,,,,,,,,,,,,,,,,,,,,,,,,,,,,,,,,,,,,,,,,,,,,,,,
,,?,0.000785,0,,,,,,stimuli/images/PICTURE_255.png,PENNY,5ef4948e17993d0424e13842,09/05/2002,2020-08-13_13h49.32.178,proactive2,2020.1.2,Win32,60,5f341be081b9052c55068110,5f353698c7567a4a28eef523,5,,,,,,shovel,,,,,,,,,,,2,2,0,16,16,19,1,,,,,,,,,,,,,,,,,,,,,,,,,,,,,,,,,,,,,,,,,,,,,,,,,,,,,,,,,,,,,,,,,,,,,,,,,,,,,,,,,,,,,,,,,,,,,,
,,?,0.000725,0,,,,,,stimuli/images/PICTURE_297.png,BODY,5ef4948e17993d0424e13842,09/05/2002,2020-08-13_13h49.32.178,proactive2,2020.1.2,Win32,60,5f341be081b9052c55068110,5f353698c7567a4a28eef523,5,,,,,,aeroplane,,,,,,,,,,,6,2,0,17,17,51,1,,,,,,,,,,,,,,,,,,,,,,,,,,,,,,,,,,,,,,,,,,,,,,,,,,,,,,,,,,,,,,,,,,,,,,,,,,,,,,,,,,,,,,,,,,,,,,
,,CLOCK,5.50533,1,,,,,,stimuli/images/PICTURE_688.png,CLOCK,5ef4948e17993d0424e13842,09/05/2002,2020-08-13_13h49.32.178,proactive2,2020.1.2,Win32,60,5f341be081b9052c55068110,5f353698c7567a4a28eef523,5,,,,,,runner,,,,,,,,,,,5,2,0,18,18,42,1,,,,,,,,,,,,,,,,,,,,,,,,,,,,,,,,,,,,,,,,,,,,,,,,,,,,,,,,,,,,,,,,,,,,,,,,,,,,,,,,,,,,,,,,,,,,,,
,,?,0.00176,0,,,,,,stimuli/images/PICTURE_57.png,CANDY,5ef4948e17993d0424e13842,09/05/2002,2020-08-13_13h49.32.178,proactive2,2020.1.2,Win32,60,5f341be081b9052c55068110,5f353698c7567a4a28eef523,5,,,,,,stamp,,,,,,,,,,,6,2,0,19,19,52,1,,,,,,,,,,,,,,,,,,,,,,,,,,,,,,,,,,,,,,,,,,,,,,,,,,,,,,,,,,,,,,,,,,,,,,,,,,,,,,,,,,,,,,,,,,,,,,
,,?,0.00084,0,,,,,,stimuli/images/PICTURE_147.png,LEADER,5ef4948e17993d0424e13842,09/05/2002,2020-08-13_13h49.32.178,proactive2,2020.1.2,Win32,60,5f341be081b9052c55068110,5f353698c7567a4a28eef523,5,,,,,,hanger,,,,,,,,,,,4,2,0,20,20,33,1,,,,,,,,,,,,,,,,,,,,,,,,,,,,,,,,,,,,,,,,,,,,,,,,,,,,,,,,,,,,,,,,,,,,,,,,,,,,,,,,,,,,,,,,,,,,,,
,,?,0.000925,0,,,,,,stimuli/images/PICTURE_487.png,ROOF,5ef4948e17993d0424e13842,09/05/2002,2020-08-13_13h49.32.178,proactive2,2020.1.2,Win32,60,5f341be081b9052c55068110,5f353698c7567a4a28eef523,5,,,,,,basket,,,,,,,,,,,6,2,0,21,21,50,1,,,,,,,,,,,,,,,,,,,,,,,,,,,,,,,,,,,,,,,,,,,,,,,,,,,,,,,,,,,,,,,,,,,,,,,,,,,,,,,,,,,,,,,,,,,,,,
,,?,0.000785,0,,,,,,stimuli/images/PICTURE_405.png,JUNGLE,5ef4948e17993d0424e13842,09/05/2002,2020-08-13_13h49.32.178,proactive2,2020.1.2,Win32,60,5f341be081b9052c55068110,5f353698c7567a4a28eef523,5,,,,,,anchor,,,,,,,,,,,2,2,0,22,22,13,1,,,,,,,,,,,,,,,,,,,,,,,,,,,,,,,,,,,,,,,,,,,,,,,,,,,,,,,,,,,,,,,,,,,,,,,,,,,,,,,,,,,,,,,,,,,,,,
,,MILLER,5.02156,1,,,,,,stimuli/images/PICTURE_509.png,MILLER,5ef4948e17993d0424e13842,09/05/2002,2020-08-13_13h49.32.178,proactive2,2020.1.2,Win32,60,5f341be081b9052c55068110,5f353698c7567a4a28eef523,5,,,,,,telephone,,,,,,,,,,,5,2,0,23,23,49,1,,,,,,,,,,,,,,,,,,,,,,,,,,,,,,,,,,,,,,,,,,,,,,,,,,,,,,,,,,,,,,,,,,,,,,,,,,,,,,,,,,,,,,,,,,,,,,
,,?,0.001985,0,,,,,,stimuli/images/PICTURE_141.png,CLIENT,5ef4948e17993d0424e13842,09/05/2002,2020-08-13_13h49.32.178,proactive2,2020.1.2,Win32,60,5f341be081b9052c55068110,5f353698c7567a4a28eef523,5,,,,,,sunflower,,,,,,,,,,,4,2,0,24,24,30,1,,,,,,,,,,,,,,,,,,,,,,,,,,,,,,,,,,,,,,,,,,,,,,,,,,,,,,,,,,,,,,,,,,,,,,,,,,,,,,,,,,,,,,,,,,,,,,
,,VALLEY,5.99455,1,,,,,,stimuli/images/PICTURE_708.png,VALLEY,5ef4948e17993d0424e13842,09/05/2002,2020-08-13_13h49.32.178,proactive2,2020.1.2,Win32,60,5f341be081b9052c55068110,5f353698c7567a4a28eef523,5,,,,,,monkey,,,,,,,,,,,5,2,0,25,25,45,1,,,,,,,,,,,,,,,,,,,,,,,,,,,,,,,,,,,,,,,,,,,,,,,,,,,,,,,,,,,,,,,,,,,,,,,,,,,,,,,,,,,,,,,,,,,,,,
,,?,0.002585,0,,,,,,stimuli/images/PICTURE_285.png,WRITER,5ef4948e17993d0424e13842,09/05/2002,2020-08-13_13h49.32.178,proactive2,2020.1.2,Win32,60,5f341be081b9052c55068110,5f353698c7567a4a28eef523,5,,,,,,carrot,,,,,,,,,,,1,2,0,26,26,6,1,,,,,,,,,,,,,,,,,,,,,,,,,,,,,,,,,,,,,,,,,,,,,,,,,,,,,,,,,,,,,,,,,,,,,,,,,,,,,,,,,,,,,,,,,,,,,,
,,?,0.00076,0,,,,,,stimuli/images/PICTURE_2.png,YARD,5ef4948e17993d0424e13842,09/05/2002,2020-08-13_13h49.32.178,proactive2,2020.1.2,Win32,60,5f341be081b9052c55068110,5f353698c7567a4a28eef523,5,,,,,,tyre,,,,,,,,,,,6,2,0,27,27,55,1,,,,,,,,,,,,,,,,,,,,,,,,,,,,,,,,,,,,,,,,,,,,,,,,,,,,,,,,,,,,,,,,,,,,,,,,,,,,,,,,,,,,,,,,,,,,,,
,,?,0.000775,0,,,,,,stimuli/images/PICTURE_93.png,GIRL,5ef4948e17993d0424e13842,09/05/2002,2020-08-13_13h49.32.178,proactive2,2020.1.2,Win32,60,5f341be081b9052c55068110,5f353698c7567a4a28eef523,5,,,,,,skateboard,,,,,,,,,,,4,2,0,28,28,31,1,,,,,,,,,,,,,,,,,,,,,,,,,,,,,,,,,,,,,,,,,,,,,,,,,,,,,,,,,,,,,,,,,,,,,,,,,,,,,,,,,,,,,,,,,,,,,,
,,?,0.000695,0,,,,,,stimuli/images/PICTURE_509.png,BATH,5ef4948e17993d0424e13842,09/05/2002,2020-08-13_13h49.32.178,proactive2,2020.1.2,Win32,60,5f341be081b9052c55068110,5f353698c7567a4a28eef523,5,,,,,,telephone,,,,,,,,,,,2,2,0,29,29,15,1,,,,,,,,,,,,,,,,,,,,,,,,,,,,,,,,,,,,,,,,,,,,,,,,,,,,,,,,,,,,,,,,,,,,,,,,,,,,,,,,,,,,,,,,,,,,,,
,,?,0.00069,0,,,,,,stimuli/images/PICTURE_403.png,FAMILY,5ef4948e17993d0424e13842,09/05/2002,2020-08-13_13h49.32.178,proactive2,2020.1.2,Win32,60,5f341be081b9052c55068110,5f353698c7567a4a28eef523,5,,,,,,cathedral,,,,,,,,,,,1,2,0,30,30,9,1,,,,,,,,,,,,,,,,,,,,,,,,,,,,,,,,,,,,,,,,,,,,,,,,,,,,,,,,,,,,,,,,,,,,,,,,,,,,,,,,,,,,,,,,,,,,,,
,,?,0.00078,0,,,,,,stimuli/images/PICTURE_405.png,JUNGLE,5ef4948e17993d0424e13842,09/05/2002,2020-08-13_13h49.32.178,proactive2,2020.1.2,Win32,60,5f341be081b9052c55068110,5f353698c7567a4a28eef523,5,,,,,,anchor,,,,,,,,,,,6,2,0,31,31,58,1,,,,,,,,,,,,,,,,,,,,,,,,,,,,,,,,,,,,,,,,,,,,,,,,,,,,,,,,,,,,,,,,,,,,,,,,,,,,,,,,,,,,,,,,,,,,,,
,,?,0.00078,0,,,,,,stimuli/images/PICTURE_327.png,LEADER,5ef4948e17993d0424e13842,09/05/2002,2020-08-13_13h49.32.178,proactive2,2020.1.2,Win32,60,5f341be081b9052c55068110,5f353698c7567a4a28eef523,5,,,,,,helmet,,,,,,,,,,,2,2,0,32,32,17,1,,,,,,,,,,,,,,,,,,,,,,,,,,,,,,,,,,,,,,,,,,,,,,,,,,,,,,,,,,,,,,,,,,,,,,,,,,,,,,,,,,,,,,,,,,,,,,
,,?,0.00082,0,,,,,,stimuli/images/PICTURE_296.png,CLOCK,5ef4948e17993d0424e13842,09/05/2002,2020-08-13_13h49.32.178,proactive2,2020.1.2,Win32,60,5f341be081b9052c55068110,5f353698c7567a4a28eef523,5,,,,,,bolt,,,,,,,,,,,2,2,0,33,33,18,1,,,,,,,,,,,,,,,,,,,,,,,,,,,,,,,,,,,,,,,,,,,,,,,,,,,,,,,,,,,,,,,,,,,,,,,,,,,,,,,,,,,,,,,,,,,,,,
,,?,3.59831,0,,,,,,stimuli/images/PICTURE_356.png,CANDY,5ef4948e17993d0424e13842,09/05/2002,2020-08-13_13h49.32.178,proactive2,2020.1.2,Win32,60,5f341be081b9052c55068110,5f353698c7567a4a28eef523,5,,,,,,pawn,,,,,,,,,,,5,2,0,34,34,46,1,,,,,,,,,,,,,,,,,,,,,,,,,,,,,,,,,,,,,,,,,,,,,,,,,,,,,,,,,,,,,,,,,,,,,,,,,,,,,,,,,,,,,,,,,,,,,,
,,?,0.00098,0,,,,,,stimuli/images/PICTURE_57.png,CASINO,5ef4948e17993d0424e13842,09/05/2002,2020-08-13_13h49.32.178,proactive2,2020.1.2,Win32,60,5f341be081b9052c55068110,5f353698c7567a4a28eef523,5,,,,,,stamp,,,,,,,,,,,2,2,0,35,35,12,1,,,,,,,,,,,,,,,,,,,,,,,,,,,,,,,,,,,,,,,,,,,,,,,,,,,,,,,,,,,,,,,,,,,,,,,,,,,,,,,,,,,,,,,,,,,,,,
,,?,0.00091,0,,,,,,stimuli/images/PICTURE_68.png,KIND,5ef4948e17993d0424e13842,09/05/2002,2020-08-13_13h49.32.178,proactive2,2020.1.2,Win32,60,5f341be081b9052c55068110,5f353698c7567a4a28eef523,5,,,,,,candle,,,,,,,,,,,3,2,0,36,36,23,1,,,,,,,,,,,,,,,,,,,,,,,,,,,,,,,,,,,,,,,,,,,,,,,,,,,,,,,,,,,,,,,,,,,,,,,,,,,,,,,,,,,,,,,,,,,,,,
,,LEADER,4.893325,1,,,,,,stimuli/images/PICTURE_215.png,LEADER,5ef4948e17993d0424e13842,09/05/2002,2020-08-13_13h49.32.178,proactive2,2020.1.2,Win32,60,5f341be081b9052c55068110,5f353698c7567a4a28eef523,5,,,,,,boot,,,,,,,,,,,5,2,0,37,37,43,1,,,,,,,,,,,,,,,,,,,,,,,,,,,,,,,,,,,,,,,,,,,,,,,,,,,,,,,,,,,,,,,,,,,,,,,,,,,,,,,,,,,,,,,,,,,,,,
,,?,0.002225,0,,,,,,stimuli/images/PICTURE_123.png,SALE,5ef4948e17993d0424e13842,09/05/2002,2020-08-13_13h49.32.178,proactive2,2020.1.2,Win32,60,5f341be081b9052c55068110,5f353698c7567a4a28eef523,5,,,,,,dart,,,,,,,,,,,1,2,0,38,38,8,1,,,,,,,,,,,,,,,,,,,,,,,,,,,,,,,,,,,,,,,,,,,,,,,,,,,,,,,,,,,,,,,,,,,,,,,,,,,,,,,,,,,,,,,,,,,,,,
,,MOMENT,3.69445,1,,,,,,stimuli/images/PICTURE_470.png,MOMENT,5ef4948e17993d0424e13842,09/05/2002,2020-08-13_13h49.32.178,proactive2,2020.1.2,Win32,60,5f341be081b9052c55068110,5f353698c7567a4a28eef523,5,,,,,,motorbike,,,,,,,,,,,5,2,0,39,39,40,1,,,,,,,,,,,,,,,,,,,,,,,,,,,,,,,,,,,,,,,,,,,,,,,,,,,,,,,,,,,,,,,,,,,,,,,,,,,,,,,,,,,,,,,,,,,,,,
,,?,0.00125,0,,,,,,stimuli/images/PICTURE_491.png,SERIES,5ef4948e17993d0424e13842,09/05/2002,2020-08-13_13h49.32.178,proactive2,2020.1.2,Win32,60,5f341be081b9052c55068110,5f353698c7567a4a28eef523,5,,,,,,rug,,,,,,,,,,,4,2,0,40,40,39,1,,,,,,,,,,,,,,,,,,,,,,,,,,,,,,,,,,,,,,,,,,,,,,,,,,,,,,,,,,,,,,,,,,,,,,,,,,,,,,,,,,,,,,,,,,,,,,
,,?,0.0008,0,,,,,,stimuli/images/PICTURE_504.png,HOUSE,5ef4948e17993d0424e13842,09/05/2002,2020-08-13_13h49.32.178,proactive2,2020.1.2,Win32,60,5f341be081b9052c55068110,5f353698c7567a4a28eef523,5,,,,,,wheel,,,,,,,,,,,4,2,0,41,41,36,1,,,,,,,,,,,,,,,,,,,,,,,,,,,,,,,,,,,,,,,,,,,,,,,,,,,,,,,,,,,,,,,,,,,,,,,,,,,,,,,,,,,,,,,,,,,,,,
,,?,0.00077,0,,,,,,stimuli/images/PICTURE_564.png,PLENTY,5ef4948e17993d0424e13842,09/05/2002,2020-08-13_13h49.32.178,proactive2,2020.1.2,Win32,60,5f341be081b9052c55068110,5f353698c7567a4a28eef523,5,,,,,,spoon,,,,,,,,,,,2,2,0,42,42,11,1,,,,,,,,,,,,,,,,,,,,,,,,,,,,,,,,,,,,,,,,,,,,,,,,,,,,,,,,,,,,,,,,,,,,,,,,,,,,,,,,,,,,,,,,,,,,,,
,,?,0.000785,0,,,,,,stimuli/images/PICTURE_2.png,AREA,5ef4948e17993d0424e13842,09/05/2002,2020-08-13_13h49.32.178,proactive2,2020.1.2,Win32,60,5f341be081b9052c55068110,5f353698c7567a4a28eef523,5,,,,,,tyre,,,,,,,,,,,4,2,0,43,43,32,1,,,,,,,,,,,,,,,,,,,,,,,,,,,,,,,,,,,,,,,,,,,,,,,,,,,,,,,,,,,,,,,,,,,,,,,,,,,,,,,,,,,,,,,,,,,,,,
,,?,0.00078,0,,,,,,stimuli/images/PICTURE_348.png,TOILET,5ef4948e17993d0424e13842,09/05/2002,2020-08-13_13h49.32.178,proactive2,2020.1.2,Win32,60,5f341be081b9052c55068110,5f353698c7567a4a28eef523,5,,,,,,pepper,,,,,,,,,,,1,2,0,44,44,4,1,,,,,,,,,,,,,,,,,,,,,,,,,,,,,,,,,,,,,,,,,,,,,,,,,,,,,,,,,,,,,,,,,,,,,,,,,,,,,,,,,,,,,,,,,,,,,,
,,?,0.00079,0,,,,,,stimuli/images/PICTURE_311.png,FLESH,5ef4948e17993d0424e13842,09/05/2002,2020-08-13_13h49.32.178,proactive2,2020.1.2,Win32,60,5f341be081b9052c55068110,5f353698c7567a4a28eef523,5,,,,,,razor,,,,,,,,,,,1,2,0,45,45,3,1,,,,,,,,,,,,,,,,,,,,,,,,,,,,,,,,,,,,,,,,,,,,,,,,,,,,,,,,,,,,,,,,,,,,,,,,,,,,,,,,,,,,,,,,,,,,,,
,,?,0.00074,0,,,,,,stimuli/images/PICTURE_215.png,FOOD,5ef4948e17993d0424e13842,09/05/2002,2020-08-13_13h49.32.178,proactive2,2020.1.2,Win32,60,5f341be081b9052c55068110,5f353698c7567a4a28eef523,5,,,,,,boot,,,,,,,,,,,1,2,0,46,46,5,1,,,,,,,,,,,,,,,,,,,,,,,,,,,,,,,,,,,,,,,,,,,,,,,,,,,,,,,,,,,,,,,,,,,,,,,,,,,,,,,,,,,,,,,,,,,,,,
,,POLICY,6.34994,1,,,,,,stimuli/images/PICTURE_750.png,POLICY,5ef4948e17993d0424e13842,09/05/2002,2020-08-13_13h49.32.178,proactive2,2020.1.2,Win32,60,5f341be081b9052c55068110,5f353698c7567a4a28eef523,5,,,,,,kettle,,,,,,,,,,,5,2,0,47,47,44,1,,,,,,,,,,,,,,,,,,,,,,,,,,,,,,,,,,,,,,,,,,,,,,,,,,,,,,,,,,,,,,,,,,,,,,,,,,,,,,,,,,,,,,,,,,,,,,
,,?,0.00438,0,,,,,,stimuli/images/PICTURE_405.png,HOUSE,5ef4948e17993d0424e13842,09/05/2002,2020-08-13_13h49.32.178,proactive2,2020.1.2,Win32,60,5f341be081b9052c55068110,5f353698c7567a4a28eef523,5,,,,,,anchor,,,,,,,,,,,1,2,0,48,48,2,1,,,,,,,,,,,,,,,,,,,,,,,,,,,,,,,,,,,,,,,,,,,,,,,,,,,,,,,,,,,,,,,,,,,,,,,,,,,,,,,,,,,,,,,,,,,,,,
,,?,0.00107,0,,,,,,stimuli/images/PICTURE_509.png,SHOTS,5ef4948e17993d0424e13842,09/05/2002,2020-08-13_13h49.32.178,proactive2,2020.1.2,Win32,60,5f341be081b9052c55068110,5f353698c7567a4a28eef523,5,,,,,,telephone,,,,,,,,,,,1,2,0,49,49,7,1,,,,,,,,,,,,,,,,,,,,,,,,,,,,,,,,,,,,,,,,,,,,,,,,,,,,,,,,,,,,,,,,,,,,,,,,,,,,,,,,,,,,,,,,,,,,,,
,,?,0.000855,0,,,,,,stimuli/images/PICTURE_314.png,SPEECH,5ef4948e17993d0424e13842,09/05/2002,2020-08-13_13h49.32.178,proactive2,2020.1.2,Win32,60,5f341be081b9052c55068110,5f353698c7567a4a28eef523,5,,,,,,perfume,,,,,,,,,,,4,2,0,50,50,35,1,,,,,,,,,,,,,,,,,,,,,,,,,,,,,,,,,,,,,,,,,,,,,,,,,,,,,,,,,,,,,,,,,,,,,,,,,,,,,,,,,,,,,,,,,,,,,,
,,?,0.000785,0,,,,,,stimuli/images/PICTURE_32.png,LETTER,5ef4948e17993d0424e13842,09/05/2002,2020-08-13_13h49.32.178,proactive2,2020.1.2,Win32,60,5f341be081b9052c55068110,5f353698c7567a4a28eef523,5,,,,,,crown,,,,,,,,,,,6,2,0,51,51,56,1,,,,,,,,,,,,,,,,,,,,,,,,,,,,,,,,,,,,,,,,,,,,,,,,,,,,,,,,,,,,,,,,,,,,,,,,,,,,,,,,,,,,,,,,,,,,,,
,,?,0.0008,0,,,,,,stimuli/images/PICTURE_655.png,SALE,5ef4948e17993d0424e13842,09/05/2002,2020-08-13_13h49.32.178,proactive2,2020.1.2,Win32,60,5f341be081b9052c55068110,5f353698c7567a4a28eef523,5,,,,,,megaphone,,,,,,,,,,,6,2,0,52,52,57,1,,,,,,,,,,,,,,,,,,,,,,,,,,,,,,,,,,,,,,,,,,,,,,,,,,,,,,,,,,,,,,,,,,,,,,,,,,,,,,,,,,,,,,,,,,,,,,
,,?,0.000655,0,,,,,,stimuli/images/PICTURE_208.png,SPIRIT,5ef4948e17993d0424e13842,09/05/2002,2020-08-13_13h49.32.178,proactive2,2020.1.2,Win32,60,5f341be081b9052c55068110,5f353698c7567a4a28eef523,5,,,,,,microphone,,,,,,,,,,,3,2,0,53,53,28,1,,,,,,,,,,,,,,,,,,,,,,,,,,,,,,,,,,,,,,,,,,,,,,,,,,,,,,,,,,,,,,,,,,,,,,,,,,,,,,,,,,,,,,,,,,,,,,
,,?,0.000715,0,,,,,,stimuli/images/PICTURE_311.png,TOILET,5ef4948e17993d0424e13842,09/05/2002,2020-08-13_13h49.32.178,proactive2,2020.1.2,Win32,60,5f341be081b9052c55068110,5f353698c7567a4a28eef523,5,,,,,,razor,,,,,,,,,,,6,2,0,54,54,54,1,,,,,,,,,,,,,,,,,,,,,,,,,,,,,,,,,,,,,,,,,,,,,,,,,,,,,,,,,,,,,,,,,,,,,,,,,,,,,,,,,,,,,,,,,,,,,,
,,?,0.00066,0,,,,,,stimuli/images/PICTURE_677.png,PHOTO,5ef4948e17993d0424e13842,09/05/2002,2020-08-13_13h49.32.178,proactive2,2020.1.2,Win32,60,5f341be081b9052c55068110,5f353698c7567a4a28eef523,5,,,,,,map,,,,,,,,,,,2,2,0,55,55,14,1,,,,,,,,,,,,,,,,,,,,,,,,,,,,,,,,,,,,,,,,,,,,,,,,,,,,,,,,,,,,,,,,,,,,,,,,,,,,,,,,,,,,,,,,,,,,,,
,,DUDE,3.795865,1,,,,,,stimuli/images/PICTURE_692.png,DUDE,5ef4948e17993d0424e13842,09/05/2002,2020-08-13_13h49.32.178,proactive2,2020.1.2,Win32,60,5f341be081b9052c55068110,5f353698c7567a4a28eef523,5,,,,,,cherry,,,,,,,,,,,5,2,0,56,56,47,1,,,,,,,,,,,,,,,,,,,,,,,,,,,,,,,,,,,,,,,,,,,,,,,,,,,,,,,,,,,,,,,,,,,,,,,,,,,,,,,,,,,,,,,,,,,,,,
,,?,0.00457,0,,,,,,stimuli/images/PICTURE_2.png,JUNGLE,5ef4948e17993d0424e13842,09/05/2002,2020-08-13_13h49.32.178,proactive2,2020.1.2,Win32,60,5f341be081b9052c55068110,5f353698c7567a4a28eef523,5,,,,,,tyre,,,,,,,,,,,1,2,0,57,57,1,1,,,,,,,,,,,,,,,,,,,,,,,,,,,,,,,,,,,,,,,,,,,,,,,,,,,,,,,,,,,,,,,,,,,,,,,,,,,,,,,,,,,,,,,,,,,,,,
,,?,0.00079,0,,,,,,stimuli/images/PICTURE_654.png,COPS,5ef4948e17993d0424e13842,09/05/2002,2020-08-13_13h49.32.178,proactive2,2020.1.2,Win32,60,5f341be081b9052c55068110,5f353698c7567a4a28eef523,5,,,,,,pencil,,,,,,,,,,,2,2,0,58,58,10,1,,,,,,,,,,,,,,,,,,,,,,,,,,,,,,,,,,,,,,,,,,,,,,,,,,,,,,,,,,,,,,,,,,,,,,,,,,,,,,,,,,,,,,,,,,,,,,
,,YEAR,2.524915,1,,,,,,stimuli/images/PICTURE_654.png,YEAR,5ef4948e17993d0424e13842,09/05/2002,2020-08-13_13h49.32.178,proactive2,2020.1.2,Win32,60,5f341be081b9052c55068110,5f353698c7567a4a28eef523,5,,,,,,pencil,,,,,,,,,,,5,2,0,59,59,41,1,,,,,,,,,,,,,,,,,,,,,,,,,,,,,,,,,,,,,,,,,,,,,,,,,,,,,,,,,,,,,,,,,,,,,,,,,,,,,,,,,,,,,,,,,,,,,,
,,,,,,,,,,,,5ef4948e17993d0424e13842,09/05/2002,2020-08-13_13h49.32.178,proactive2,2020.1.2,Win32,60,5f341be081b9052c55068110,5f353698c7567a4a28eef523,5,,,,,,,,,,,,,,,,,,,,,,,,0,0,0,2,1,stimuli/learn-block3.csv,,,,,,,,,,,,,,,,,,,,,,,,,,,,,,,,,,,,,,,,,,,,,,,,,,,,,,,,,,,,,,,,,,,,,,,,,,,,,,,,,,,,,,,,
,,,,,,,,,,stimuli/images/PICTURE_509.png,PHOTO,5ef4948e17993d0424e13842,09/05/2002,2020-08-13_13h49.32.178,proactive2,2020.1.2,Win32,60,5f341be081b9052c55068110,5f353698c7567a4a28eef523,5,,,,,,telephone,,,,,,0,0,0,21,1,3,0,,,,,,,,,,,,,,,,,,,,,,,,,,,,,,,,,,,,,,,,,,,,,,,,,,,,,,,,,,,,,,,,,,,,,,,,,,,,,,,,,,,,,,,,,,,,,,,,,,,
,,,,,,,,,,stimuli/images/PICTURE_147.png,MOMENT,5ef4948e17993d0424e13842,09/05/2002,2020-08-13_13h49.32.178,proactive2,2020.1.2,Win32,60,5f341be081b9052c55068110,5f353698c7567a4a28eef523,5,,,,,,hanger,,,,,,0,1,1,51,1,6,0,,,,,,,,,,,,,,,,,,,,,,,,,,,,,,,,,,,,,,,,,,,,,,,,,,,,,,,,,,,,,,,,,,,,,,,,,,,,,,,,,,,,,,,,,,,,,,,,,,,
,,,,,,,,,,stimuli/images/PICTURE_491.png,WRITER,5ef4948e17993d0424e13842,09/05/2002,2020-08-13_13h49.32.178,proactive2,2020.1.2,Win32,60,5f341be081b9052c55068110,5f353698c7567a4a28eef523,5,,,,,,rug,,,,,,0,2,2,57,1,6,0,,,,,,,,,,,,,,,,,,,,,,,,,,,,,,,,,,,,,,,,,,,,,,,,,,,,,,,,,,,,,,,,,,,,,,,,,,,,,,,,,,,,,,,,,,,,,,,,,,,
,,,,,,,,,,stimuli/images/PICTURE_32.png,JUNGLE,5ef4948e17993d0424e13842,09/05/2002,2020-08-13_13h49.32.178,proactive2,2020.1.2,Win32,60,5f341be081b9052c55068110,5f353698c7567a4a28eef523,5,,,,,,crown,,,,,,0,3,3,45,1,5,0,,,,,,,,,,,,,,,,,,,,,,,,,,,,,,,,,,,,,,,,,,,,,,,,,,,,,,,,,,,,,,,,,,,,,,,,,,,,,,,,,,,,,,,,,,,,,,,,,,,
,,,,,,,,,,stimuli/images/PICTURE_453.png,DUDE,5ef4948e17993d0424e13842,09/05/2002,2020-08-13_13h49.32.178,proactive2,2020.1.2,Win32,60,5f341be081b9052c55068110,5f353698c7567a4a28eef523,5,,,,,,scissors,,,,,,0,4,4,27,1,3,0,,,,,,,,,,,,,,,,,,,,,,,,,,,,,,,,,,,,,,,,,,,,,,,,,,,,,,,,,,,,,,,,,,,,,,,,,,,,,,,,,,,,,,,,,,,,,,,,,,,
,,,,,,,,,,stimuli/images/PICTURE_302.png,FAMILY,5ef4948e17993d0424e13842,09/05/2002,2020-08-13_13h49.32.178,proactive2,2020.1.2,Win32,60,5f341be081b9052c55068110,5f353698c7567a4a28eef523,5,,,,,,taxi,,,,,,0,5,5,18,1,2,0,,,,,,,,,,,,,,,,,,,,,,,,,,,,,,,,,,,,,,,,,,,,,,,,,,,,,,,,,,,,,,,,,,,,,,,,,,,,,,,,,,,,,,,,,,,,,,,,,,,
,,,,,,,,,,stimuli/images/PICTURE_208.png,MONTH,5ef4948e17993d0424e13842,09/05/2002,2020-08-13_13h49.32.178,proactive2,2020.1.2,Win32,60,5f341be081b9052c55068110,5f353698c7567a4a28eef523,5,,,,,,microphone,,,,,,0,6,6,53,1,6,0,,,,,,,,,,,,,,,,,,,,,,,,,,,,,,,,,,,,,,,,,,,,,,,,,,,,,,,,,,,,,,,,,,,,,,,,,,,,,,,,,,,,,,,,,,,,,,,,,,,
,,,,,,,,,,stimuli/images/PICTURE_449.png,THING,5ef4948e17993d0424e13842,09/05/2002,2020-08-13_13h49.32.178,proactive2,2020.1.2,Win32,60,5f341be081b9052c55068110,5f353698c7567a4a28eef523,5,,,,,,bench,,,,,,0,7,7,59,1,6,0,,,,,,,,,,,,,,,,,,,,,,,,,,,,,,,,,,,,,,,,,,,,,,,,,,,,,,,,,,,,,,,,,,,,,,,,,,,,,,,,,,,,,,,,,,,,,,,,,,,
,,,,,,,,,,stimuli/images/PICTURE_255.png,AREA,5ef4948e17993d0424e13842,09/05/2002,2020-08-13_13h49.32.178,proactive2,2020.1.2,Win32,60,5f341be081b9052c55068110,5f353698c7567a4a28eef523,5,,,,,,shovel,,,,,,0,8,8,22,1,3,0,,,,,,,,,,,,,,,,,,,,,,,,,,,,,,,,,,,,,,,,,,,,,,,,,,,,,,,,,,,,,,,,,,,,,,,,,,,,,,,,,,,,,,,,,,,,,,,,,,,
,,,,,,,,,,stimuli/images/PICTURE_667.png,PLENTY,5ef4948e17993d0424e13842,09/05/2002,2020-08-13_13h49.32.178,proactive2,2020.1.2,Win32,60,5f341be081b9052c55068110,5f353698c7567a4a28eef523,5,,,,,,daisy,,,,,,0,9,9,41,1,5,0,,,,,,,,,,,,,,,,,,,,,,,,,,,,,,,,,,,,,,,,,,,,,,,,,,,,,,,,,,,,,,,,,,,,,,,,,,,,,,,,,,,,,,,,,,,,,,,,,,,
,,,,,,,,,,stimuli/images/PICTURE_469.png,LETTER,5ef4948e17993d0424e13842,09/05/2002,2020-08-13_13h49.32.178,proactive2,2020.1.2,Win32,60,5f341be081b9052c55068110,5f353698c7567a4a28eef523,5,,,,,,stool,,,,,,0,10,10,42,1,5,0,,,,,,,,,,,,,,,,,,,,,,,,,,,,,,,,,,,,,,,,,,,,,,,,,,,,,,,,,,,,,,,,,,,,,,,,,,,,,,,,,,,,,,,,,,,,,,,,,,,
,,,,,,,,,,stimuli/images/PICTURE_467.png,DEMON,5ef4948e17993d0424e13842,09/05/2002,2020-08-13_13h49.32.178,proactive2,2020.1.2,Win32,60,5f341be081b9052c55068110,5f353698c7567a4a28eef523,5,,,,,,peg,,,,,,0,11,11,23,1,3,0,,,,,,,,,,,,,,,,,,,,,,,,,,,,,,,,,,,,,,,,,,,,,,,,,,,,,,,,,,,,,,,,,,,,,,,,,,,,,,,,,,,,,,,,,,,,,,,,,,,
,,,,,,,,,,stimuli/images/PICTURE_744.png,SYSTEM,5ef4948e17993d0424e13842,09/05/2002,2020-08-13_13h49.32.178,proactive2,2020.1.2,Win32,60,5f341be081b9052c55068110,5f353698c7567a4a28eef523,5,,,,,,ring,,,,,,0,12,12,43,1,5,0,,,,,,,,,,,,,,,,,,,,,,,,,,,,,,,,,,,,,,,,,,,,,,,,,,,,,,,,,,,,,,,,,,,,,,,,,,,,,,,,,,,,,,,,,,,,,,,,,,,
,,,,,,,,,,stimuli/images/PICTURE_233.png,IDEAS,5ef4948e17993d0424e13842,09/05/2002,2020-08-13_13h49.32.178,proactive2,2020.1.2,Win32,60,5f341be081b9052c55068110,5f353698c7567a4a28eef523,5,,,,,,salt,,,,,,0,13,13,28,1,3,0,,,,,,,,,,,,,,,,,,,,,,,,,,,,,,,,,,,,,,,,,,,,,,,,,,,,,,,,,,,,,,,,,,,,,,,,,,,,,,,,,,,,,,,,,,,,,,,,,,,
,,,,,,,,,,stimuli/images/PICTURE_314.png,SAKE,5ef4948e17993d0424e13842,09/05/2002,2020-08-13_13h49.32.178,proactive2,2020.1.2,Win32,60,5f341be081b9052c55068110,5f353698c7567a4a28eef523,5,,,,,,perfume,,,,,,0,14,14,7,1,1,0,,,,,,,,,,,,,,,,,,,,,,,,,,,,,,,,,,,,,,,,,,,,,,,,,,,,,,,,,,,,,,,,,,,,,,,,,,,,,,,,,,,,,,,,,,,,,,,,,,,
,,,,,,,,,,stimuli/images/PICTURE_339.png,PLENTY,5ef4948e17993d0424e13842,09/05/2002,2020-08-13_13h49.32.178,proactive2,2020.1.2,Win32,60,5f341be081b9052c55068110,5f353698c7567a4a28eef523,5,,,,,,backpack,,,,,,0,15,15,0,1,1,0,,,,,,,,,,,,,,,,,,,,,,,,,,,,,,,,,,,,,,,,,,,,,,,,,,,,,,,,,,,,,,,,,,,,,,,,,,,,,,,,,,,,,,,,,,,,,,,,,,,
,,,,,,,,,,stimuli/images/PICTURE_654.png,VALLEY,5ef4948e17993d0424e13842,09/05/2002,2020-08-13_13h49.32.178,proactive2,2020.1.2,Win32,60,5f341be081b9052c55068110,5f353698c7567a4a28eef523,5,,,,,,pencil,,,,,,0,16,16,1,1,1,0,,,,,,,,,,,,,,,,,,,,,,,,,,,,,,,,,,,,,,,,,,,,,,,,,,,,,,,,,,,,,,,,,,,,,,,,,,,,,,,,,,,,,,,,,,,,,,,,,,,
,,,,,,,,,,stimuli/images/PICTURE_95.png,STYLE,5ef4948e17993d0424e13842,09/05/2002,2020-08-13_13h49.32.178,proactive2,2020.1.2,Win32,60,5f341be081b9052c55068110,5f353698c7567a4a28eef523,5,,,,,,suitcase,,,,,,0,17,17,25,1,3,0,,,,,,,,,,,,,,,,,,,,,,,,,,,,,,,,,,,,,,,,,,,,,,,,,,,,,,,,,,,,,,,,,,,,,,,,,,,,,,,,,,,,,,,,,,,,,,,,,,,
,,,,,,,,,,stimuli/images/PICTURE_487.png,FLIGHT,5ef4948e17993d0424e13842,09/05/2002,2020-08-13_13h49.32.178,proactive2,2020.1.2,Win32,60,5f341be081b9052c55068110,5f353698c7567a4a28eef523,5,,,,,,basket,,,,,,0,18,18,9,1,1,0,,,,,,,,,,,,,,,,,,,,,,,,,,,,,,,,,,,,,,,,,,,,,,,,,,,,,,,,,,,,,,,,,,,,,,,,,,,,,,,,,,,,,,,,,,,,,,,,,,,
,,,,,,,,,,stimuli/images/PICTURE_215.png,PLENTY,5ef4948e17993d0424e13842,09/05/2002,2020-08-13_13h49.32.178,proactive2,2020.1.2,Win32,60,5f341be081b9052c55068110,5f353698c7567a4a28eef523,5,,,,,,boot,,,,,,0,19,19,37,1,4,0,,,,,,,,,,,,,,,,,,,,,,,,,,,,,,,,,,,,,,,,,,,,,,,,,,,,,,,,,,,,,,,,,,,,,,,,,,,,,,,,,,,,,,,,,,,,,,,,,,,
,,,,,,,,,,stimuli/images/PICTURE_470.png,CASINO,5ef4948e17993d0424e13842,09/05/2002,2020-08-13_13h49.32.178,proactive2,2020.1.2,Win32,60,5f341be081b9052c55068110,5f353698c7567a4a28eef523,5,,,,,,motorbike,,,,,,0,20,20,36,1,4,0,,,,,,,,,,,,,,,,,,,,,,,,,,,,,,,,,,,,,,,,,,,,,,,,,,,,,,,,,,,,,,,,,,,,,,,,,,,,,,,,,,,,,,,,,,,,,,,,,,,
,,,,,,,,,,stimuli/images/PICTURE_123.png,ADVICE,5ef4948e17993d0424e13842,09/05/2002,2020-08-13_13h49.32.178,proactive2,2020.1.2,Win32,60,5f341be081b9052c55068110,5f353698c7567a4a28eef523,5,,,,,,dart,,,,,,0,21,21,40,1,5,0,,,,,,,,,,,,,,,,,,,,,,,,,,,,,,,,,,,,,,,,,,,,,,,,,,,,,,,,,,,,,,,,,,,,,,,,,,,,,,,,,,,,,,,,,,,,,,,,,,,
,,,,,,,,,,stimuli/images/PICTURE_311.png,BEAUTY,5ef4948e17993d0424e13842,09/05/2002,2020-08-13_13h49.32.178,proactive2,2020.1.2,Win32,60,5f341be081b9052c55068110,5f353698c7567a4a28eef523,5,,,,,,razor,,,,,,0,22,22,13,1,2,0,,,,,,,,,,,,,,,,,,,,,,,,,,,,,,,,,,,,,,,,,,,,,,,,,,,,,,,,,,,,,,,,,,,,,,,,,,,,,,,,,,,,,,,,,,,,,,,,,,,
,,,,,,,,,,stimuli/images/PICTURE_233.png,WOMEN,5ef4948e17993d0424e13842,09/05/2002,2020-08-13_13h49.32.178,proactive2,2020.1.2,Win32,60,5f341be081b9052c55068110,5f353698c7567a4a28eef523,5,,,,,,salt,,,,,,0,23,23,38,1,4,0,,,,,,,,,,,,,,,,,,,,,,,,,,,,,,,,,,,,,,,,,,,,,,,,,,,,,,,,,,,,,,,,,,,,,,,,,,,,,,,,,,,,,,,,,,,,,,,,,,,
,,,,,,,,,,stimuli/images/PICTURE_68.png,MILE,5ef4948e17993d0424e13842,09/05/2002,2020-08-13_13h49.32.178,proactive2,2020.1.2,Win32,60,5f341be081b9052c55068110,5f353698c7567a4a28eef523,5,,,,,,candle,,,,,,0,24,24,44,1,5,0,,,,,,,,,,,,,,,,,,,,,,,,,,,,,,,,,,,,,,,,,,,,,,,,,,,,,,,,,,,,,,,,,,,,,,,,,,,,,,,,,,,,,,,,,,,,,,,,,,,
,,,,,,,,,,stimuli/images/PICTURE_675.png,WEAPON,5ef4948e17993d0424e13842,09/05/2002,2020-08-13_13h49.32.178,proactive2,2020.1.2,Win32,60,5f341be081b9052c55068110,5f353698c7567a4a28eef523,5,,,,,,windmill,,,,,,0,25,25,32,1,4,0,,,,,,,,,,,,,,,,,,,,,,,,,,,,,,,,,,,,,,,,,,,,,,,,,,,,,,,,,,,,,,,,,,,,,,,,,,,,,,,,,,,,,,,,,,,,,,,,,,,
,,,,,,,,,,stimuli/images/PICTURE_160.png,FEET,5ef4948e17993d0424e13842,09/05/2002,2020-08-13_13h49.32.178,proactive2,2020.1.2,Win32,60,5f341be081b9052c55068110,5f353698c7567a4a28eef523,5,,,,,,wheelbarrow,,,,,,0,26,26,58,1,6,0,,,,,,,,,,,,,,,,,,,,,,,,,,,,,,,,,,,,,,,,,,,,,,,,,,,,,,,,,,,,,,,,,,,,,,,,,,,,,,,,,,,,,,,,,,,,,,,,,,,
,,,,,,,,,,stimuli/images/PICTURE_744.png,SAKE,5ef4948e17993d0424e13842,09/05/2002,2020-08-13_13h49.32.178,proactive2,2020.1.2,Win32,60,5f341be081b9052c55068110,5f353698c7567a4a28eef523,5,,,,,,ring,,,,,,0,27,27,17,1,2,0,,,,,,,,,,,,,,,,,,,,,,,,,,,,,,,,,,,,,,,,,,,,,,,,,,,,,,,,,,,,,,,,,,,,,,,,,,,,,,,,,,,,,,,,,,,,,,,,,,,
,,,,,,,,,,stimuli/images/PICTURE_308.png,KIND,5ef4948e17993d0424e13842,09/05/2002,2020-08-13_13h49.32.178,proactive2,2020.1.2,Win32,60,5f341be081b9052c55068110,5f353698c7567a4a28eef523,5,,,,,,dice,,,,,,0,28,28,54,1,6,0,,,,,,,,,,,,,,,,,,,,,,,,,,,,,,,,,,,,,,,,,,,,,,,,,,,,,,,,,,,,,,,,,,,,,,,,,,,,,,,,,,,,,,,,,,,,,,,,,,,
,,,,,,,,,,stimuli/images/PICTURE_308.png,ESTATE,5ef4948e17993d0424e13842,09/05/2002,2020-08-13_13h49.32.178,proactive2,2020.1.2,Win32,60,5f341be081b9052c55068110,5f353698c7567a4a28eef523,5,,,,,,dice,,,,,,0,29,29,46,1,5,0,,,,,,,,,,,,,,,,,,,,,,,,,,,,,,,,,,,,,,,,,,,,,,,,,,,,,,,,,,,,,,,,,,,,,,,,,,,,,,,,,,,,,,,,,,,,,,,,,,,
,,,,,,,,,,stimuli/images/PICTURE_85.png,THING,5ef4948e17993d0424e13842,09/05/2002,2020-08-13_13h49.32.178,proactive2,2020.1.2,Win32,60,5f341be081b9052c55068110,5f353698c7567a4a28eef523,5,,,,,,diamond,,,,,,0,30,30,15,1,2,0,,,,,,,,,,,,,,,,,,,,,,,,,,,,,,,,,,,,,,,,,,,,,,,,,,,,,,,,,,,,,,,,,,,,,,,,,,,,,,,,,,,,,,,,,,,,,,,,,,,
,,,,,,,,,,stimuli/images/PICTURE_708.png,PENNY,5ef4948e17993d0424e13842,09/05/2002,2020-08-13_13h49.32.178,proactive2,2020.1.2,Win32,60,5f341be081b9052c55068110,5f353698c7567a4a28eef523,5,,,,,,monkey,,,,,,0,31,31,31,1,4,0,,,,,,,,,,,,,,,,,,,,,,,,,,,,,,,,,,,,,,,,,,,,,,,,,,,,,,,,,,,,,,,,,,,,,,,,,,,,,,,,,,,,,,,,,,,,,,,,,,,
,,,,,,,,,,stimuli/images/PICTURE_488.png,STYLE,5ef4948e17993d0424e13842,09/05/2002,2020-08-13_13h49.32.178,proactive2,2020.1.2,Win32,60,5f341be081b9052c55068110,5f353698c7567a4a28eef523,5,,,,,,sun,,,,,,0,32,32,33,1,4,0,,,,,,,,,,,,,,,,,,,,,,,,,,,,,,,,,,,,,,,,,,,,,,,,,,,,,,,,,,,,,,,,,,,,,,,,,,,,,,,,,,,,,,,,,,,,,,,,,,,
,,,,,,,,,,stimuli/images/PICTURE_667.png,BATH,5ef4948e17993d0424e13842,09/05/2002,2020-08-13_13h49.32.178,proactive2,2020.1.2,Win32,60,5f341be081b9052c55068110,5f353698c7567a4a28eef523,5,,,,,,daisy,,,,,,0,33,33,4,1,1,0,,,,,,,,,,,,,,,,,,,,,,,,,,,,,,,,,,,,,,,,,,,,,,,,,,,,,,,,,,,,,,,,,,,,,,,,,,,,,,,,,,,,,,,,,,,,,,,,,,,
,,,,,,,,,,stimuli/images/PICTURE_708.png,CLIENT,5ef4948e17993d0424e13842,09/05/2002,2020-08-13_13h49.32.178,proactive2,2020.1.2,Win32,60,5f341be081b9052c55068110,5f353698c7567a4a28eef523,5,,,,,,monkey,,,,,,0,34,34,5,1,1,0,,,,,,,,,,,,,,,,,,,,,,,,,,,,,,,,,,,,,,,,,,,,,,,,,,,,,,,,,,,,,,,,,,,,,,,,,,,,,,,,,,,,,,,,,,,,,,,,,,,
,,,,,,,,,,stimuli/images/PICTURE_469.png,ARTIST,5ef4948e17993d0424e13842,09/05/2002,2020-08-13_13h49.32.178,proactive2,2020.1.2,Win32,60,5f341be081b9052c55068110,5f353698c7567a4a28eef523,5,,,,,,stool,,,,,,0,35,35,6,1,1,0,,,,,,,,,,,,,,,,,,,,,,,,,,,,,,,,,,,,,,,,,,,,,,,,,,,,,,,,,,,,,,,,,,,,,,,,,,,,,,,,,,,,,,,,,,,,,,,,,,,
,,,,,,,,,,stimuli/images/PICTURE_692.png,MONTH,5ef4948e17993d0424e13842,09/05/2002,2020-08-13_13h49.32.178,proactive2,2020.1.2,Win32,60,5f341be081b9052c55068110,5f353698c7567a4a28eef523,5,,,,,,cherry,,,,,,0,36,36,16,1,2,0,,,,,,,,,,,,,,,,,,,,,,,,,,,,,,,,,,,,,,,,,,,,,,,,,,,,,,,,,,,,,,,,,,,,,,,,,,,,,,,,,,,,,,,,,,,,,,,,,,,
,,,,,,,,,,stimuli/images/PICTURE_123.png,ADVICE,5ef4948e17993d0424e13842,09/05/2002,2020-08-13_13h49.32.178,proactive2,2020.1.2,Win32,60,5f341be081b9052c55068110,5f353698c7567a4a28eef523,5,,,,,,dart,,,,,,0,37,37,50,1,6,0,,,,,,,,,,,,,,,,,,,,,,,,,,,,,,,,,,,,,,,,,,,,,,,,,,,,,,,,,,,,,,,,,,,,,,,,,,,,,,,,,,,,,,,,,,,,,,,,,,,
,,,,,,,,,,stimuli/images/PICTURE_327.png,BEAUTY,5ef4948e17993d0424e13842,09/05/2002,2020-08-13_13h49.32.178,proactive2,2020.1.2,Win32,60,5f341be081b9052c55068110,5f353698c7567a4a28eef523,5,,,,,,helmet,,,,,,0,38,38,48,1,5,0,,,,,,,,,,,,,,,,,,,,,,,,,,,,,,,,,,,,,,,,,,,,,,,,,,,,,,,,,,,,,,,,,,,,,,,,,,,,,,,,,,,,,,,,,,,,,,,,,,,
,,,,,,,,,,stimuli/images/PICTURE_151.png,GIRL,5ef4948e17993d0424e13842,09/05/2002,2020-08-13_13h49.32.178,proactive2,2020.1.2,Win32,60,5f341be081b9052c55068110,5f353698c7567a4a28eef523,5,,,,,,tray,,,,,,0,39,39,19,1,2,0,,,,,,,,,,,,,,,,,,,,,,,,,,,,,,,,,,,,,,,,,,,,,,,,,,,,,,,,,,,,,,,,,,,,,,,,,,,,,,,,,,,,,,,,,,,,,,,,,,,
,,,,,,,,,,stimuli/images/PICTURE_285.png,ADVICE,5ef4948e17993d0424e13842,09/05/2002,2020-08-13_13h49.32.178,proactive2,2020.1.2,Win32,60,5f341be081b9052c55068110,5f353698c7567a4a28eef523,5,,,,,,carrot,,,,,,0,40,40,12,1,2,0,,,,,,,,,,,,,,,,,,,,,,,,,,,,,,,,,,,,,,,,,,,,,,,,,,,,,,,,,,,,,,,,,,,,,,,,,,,,,,,,,,,,,,,,,,,,,,,,,,,
,,,,,,,,,,stimuli/images/PICTURE_311.png,FRIEND,5ef4948e17993d0424e13842,09/05/2002,2020-08-13_13h49.32.178,proactive2,2020.1.2,Win32,60,5f341be081b9052c55068110,5f353698c7567a4a28eef523,5,,,,,,razor,,,,,,0,41,41,34,1,4,0,,,,,,,,,,,,,,,,,,,,,,,,,,,,,,,,,,,,,,,,,,,,,,,,,,,,,,,,,,,,,,,,,,,,,,,,,,,,,,,,,,,,,,,,,,,,,,,,,,,
,,,,,,,,,,stimuli/images/PICTURE_688.png,WOMEN,5ef4948e17993d0424e13842,09/05/2002,2020-08-13_13h49.32.178,proactive2,2020.1.2,Win32,60,5f341be081b9052c55068110,5f353698c7567a4a28eef523,5,,,,,,runner,,,,,,0,42,42,14,1,2,0,,,,,,,,,,,,,,,,,,,,,,,,,,,,,,,,,,,,,,,,,,,,,,,,,,,,,,,,,,,,,,,,,,,,,,,,,,,,,,,,,,,,,,,,,,,,,,,,,,,
,,,,,,,,,,stimuli/images/PICTURE_208.png,THING,5ef4948e17993d0424e13842,09/05/2002,2020-08-13_13h49.32.178,proactive2,2020.1.2,Win32,60,5f341be081b9052c55068110,5f353698c7567a4a28eef523,5,,,,,,microphone,,,,,,0,43,43,47,1,5,0,,,,,,,,,,,,,,,,,,,,,,,,,,,,,,,,,,,,,,,,,,,,,,,,,,,,,,,,,,,,,,,,,,,,,,,,,,,,,,,,,,,,,,,,,,,,,,,,,,,
,,,,,,,,,,stimuli/images/PICTURE_248.png,DOZEN,5ef4948e17993d0424e13842,09/05/2002,2020-08-13_13h49.32.178,proactive2,2020.1.2,Win32,60,5f341be081b9052c55068110,5f353698c7567a4a28eef523,5,,,,,,cart,,,,,,0,44,44,39,1,4,0,,,,,,,,,,,,,,,,,,,,,,,,,,,,,,,,,,,,,,,,,,,,,,,,,,,,,,,,,,,,,,,,,,,,,,,,,,,,,,,,,,,,,,,,,,,,,,,,,,,
,,,,,,,,,,stimuli/images/PICTURE_453.png,PLENTY,5ef4948e17993d0424e13842,09/05/2002,2020-08-13_13h49.32.178,proactive2,2020.1.2,Win32,60,5f341be081b9052c55068110,5f353698c7567a4a28eef523,5,,,,,,scissors,,,,,,0,45,45,56,1,6,0,,,,,,,,,,,,,,,,,,,,,,,,,,,,,,,,,,,,,,,,,,,,,,,,,,,,,,,,,,,,,,,,,,,,,,,,,,,,,,,,,,,,,,,,,,,,,,,,,,,
,,,,,,,,,,stimuli/images/PICTURE_708.png,YARD,5ef4948e17993d0424e13842,09/05/2002,2020-08-13_13h49.32.178,proactive2,2020.1.2,Win32,60,5f341be081b9052c55068110,5f353698c7567a4a28eef523,5,,,,,,monkey,,,,,,0,46,46,29,1,3,0,,,,,,,,,,,,,,,,,,,,,,,,,,,,,,,,,,,,,,,,,,,,,,,,,,,,,,,,,,,,,,,,,,,,,,,,,,,,,,,,,,,,,,,,,,,,,,,,,,,
,,,,,,,,,,stimuli/images/PICTURE_348.png,SPEECH,5ef4948e17993d0424e13842,09/05/2002,2020-08-13_13h49.32.178,proactive2,2020.1.2,Win32,60,5f341be081b9052c55068110,5f353698c7567a4a28eef523,5,,,,,,pepper,,,,,,0,47,47,20,1,3,0,,,,,,,,,,,,,,,,,,,,,,,,,,,,,,,,,,,,,,,,,,,,,,,,,,,,,,,,,,,,,,,,,,,,,,,,,,,,,,,,,,,,,,,,,,,,,,,,,,,
,,,,,,,,,,stimuli/images/PICTURE_677.png,MILE,5ef4948e17993d0424e13842,09/05/2002,2020-08-13_13h49.32.178,proactive2,2020.1.2,Win32,60,5f341be081b9052c55068110,5f353698c7567a4a28eef523,5,,,,,,map,,,,,,0,48,48,30,1,4,0,,,,,,,,,,,,,,,,,,,,,,,,,,,,,,,,,,,,,,,,,,,,,,,,,,,,,,,,,,,,,,,,,,,,,,,,,,,,,,,,,,,,,,,,,,,,,,,,,,,
,,,,,,,,,,stimuli/images/PICTURE_314.png,GODS,5ef4948e17993d0424e13842,09/05/2002,2020-08-13_13h49.32.178,proactive2,2020.1.2,Win32,60,5f341be081b9052c55068110,5f353698c7567a4a28eef523,5,,,,,,perfume,,,,,,0,49,49,11,1,2,0,,,,,,,,,,,,,,,,,,,,,,,,,,,,,,,,,,,,,,,,,,,,,,,,,,,,,,,,,,,,,,,,,,,,,,,,,,,,,,,,,,,,,,,,,,,,,,,,,,,
,,,,,,,,,,stimuli/images/PICTURE_380.png,PHOTO,5ef4948e17993d0424e13842,09/05/2002,2020-08-13_13h49.32.178,proactive2,2020.1.2,Win32,60,5f341be081b9052c55068110,5f353698c7567a4a28eef523,5,,,,,,gorilla,,,,,,0,50,50,52,1,6,0,,,,,,,,,,,,,,,,,,,,,,,,,,,,,,,,,,,,,,,,,,,,,,,,,,,,,,,,,,,,,,,,,,,,,,,,,,,,,,,,,,,,,,,,,,,,,,,,,,,
,,,,,,,,,,stimuli/images/PICTURE_356.png,DANGER,5ef4948e17993d0424e13842,09/05/2002,2020-08-13_13h49.32.178,proactive2,2020.1.2,Win32,60,5f341be081b9052c55068110,5f353698c7567a4a28eef523,5,,,,,,pawn,,,,,,0,51,51,55,1,6,0,,,,,,,,,,,,,,,,,,,,,,,,,,,,,,,,,,,,,,,,,,,,,,,,,,,,,,,,,,,,,,,,,,,,,,,,,,,,,,,,,,,,,,,,,,,,,,,,,,,
,,,,,,,,,,stimuli/images/PICTURE_380.png,DEATH,5ef4948e17993d0424e13842,09/05/2002,2020-08-13_13h49.32.178,proactive2,2020.1.2,Win32,60,5f341be081b9052c55068110,5f353698c7567a4a28eef523,5,,,,,,gorilla,,,,,,0,52,52,49,1,5,0,,,,,,,,,,,,,,,,,,,,,,,,,,,,,,,,,,,,,,,,,,,,,,,,,,,,,,,,,,,,,,,,,,,,,,,,,,,,,,,,,,,,,,,,,,,,,,,,,,,
,,,,,,,,,,stimuli/images/PICTURE_491.png,ROOF,5ef4948e17993d0424e13842,09/05/2002,2020-08-13_13h49.32.178,proactive2,2020.1.2,Win32,60,5f341be081b9052c55068110,5f353698c7567a4a28eef523,5,,,,,,rug,,,,,,0,53,53,24,1,3,0,,,,,,,,,,,,,,,,,,,,,,,,,,,,,,,,,,,,,,,,,,,,,,,,,,,,,,,,,,,,,,,,,,,,,,,,,,,,,,,,,,,,,,,,,,,,,,,,,,,
,,,,,,,,,,stimuli/images/PICTURE_160.png,LEADER,5ef4948e17993d0424e13842,09/05/2002,2020-08-13_13h49.32.178,proactive2,2020.1.2,Win32,60,5f341be081b9052c55068110,5f353698c7567a4a28eef523,5,,,,,,wheelbarrow,,,,,,0,54,54,3,1,1,0,,,,,,,,,,,,,,,,,,,,,,,,,,,,,,,,,,,,,,,,,,,,,,,,,,,,,,,,,,,,,,,,,,,,,,,,,,,,,,,,,,,,,,,,,,,,,,,,,,,
,,,,,,,,,,stimuli/images/PICTURE_177.png,CARS,5ef4948e17993d0424e13842,09/05/2002,2020-08-13_13h49.32.178,proactive2,2020.1.2,Win32,60,5f341be081b9052c55068110,5f353698c7567a4a28eef523,5,,,,,,mushroom,,,,,,0,55,55,35,1,4,0,,,,,,,,,,,,,,,,,,,,,,,,,,,,,,,,,,,,,,,,,,,,,,,,,,,,,,,,,,,,,,,,,,,,,,,,,,,,,,,,,,,,,,,,,,,,,,,,,,,
,,,,,,,,,,stimuli/images/PICTURE_203.png,ARTIST,5ef4948e17993d0424e13842,09/05/2002,2020-08-13_13h49.32.178,proactive2,2020.1.2,Win32,60,5f341be081b9052c55068110,5f353698c7567a4a28eef523,5,,,,,,cap,,,,,,0,56,56,26,1,3,0,,,,,,,,,,,,,,,,,,,,,,,,,,,,,,,,,,,,,,,,,,,,,,,,,,,,,,,,,,,,,,,,,,,,,,,,,,,,,,,,,,,,,,,,,,,,,,,,,,,
,,,,,,,,,,stimuli/images/PICTURE_208.png,LOTS,5ef4948e17993d0424e13842,09/05/2002,2020-08-13_13h49.32.178,proactive2,2020.1.2,Win32,60,5f341be081b9052c55068110,5f353698c7567a4a28eef523,5,,,,,,microphone,,,,,,0,57,57,10,1,2,0,,,,,,,,,,,,,,,,,,,,,,,,,,,,,,,,,,,,,,,,,,,,,,,,,,,,,,,,,,,,,,,,,,,,,,,,,,,,,,,,,,,,,,,,,,,,,,,,,,,
,,,,,,,,,,stimuli/images/PICTURE_688.png,CASINO,5ef4948e17993d0424e13842,09/05/2002,2020-08-13_13h49.32.178,proactive2,2020.1.2,Win32,60,5f341be081b9052c55068110,5f353698c7567a4a28eef523,5,,,,,,runner,,,,,,0,58,58,2,1,1,0,,,,,,,,,,,,,,,,,,,,,,,,,,,,,,,,,,,,,,,,,,,,,,,,,,,,,,,,,,,,,,,,,,,,,,,,,,,,,,,,,,,,,,,,,,,,,,,,,,,
,,?,0.001585,0,,,,,,stimuli/images/PICTURE_314.png,SAKE,5ef4948e17993d0424e13842,09/05/2002,2020-08-13_13h49.32.178,proactive2,2020.1.2,Win32,60,5f341be081b9052c55068110,5f353698c7567a4a28eef523,5,,,,,,perfume,,,,,,,,,,,1,0,0,0,0,7,1,,,,,,,,,,,,,,,,,,,,,,,,,,,,,,,,,,,,,,,,,,,,,,,,,,,,,,,,,,,,,,,,,,,,,,,,,,,,,,,,,,,,,,,,,,,,,,
,,?,0.001055,0,,,,,,stimuli/images/PICTURE_160.png,LEADER,5ef4948e17993d0424e13842,09/05/2002,2020-08-13_13h49.32.178,proactive2,2020.1.2,Win32,60,5f341be081b9052c55068110,5f353698c7567a4a28eef523,5,,,,,,wheelbarrow,,,,,,,,,,,1,0,0,1,1,3,1,,,,,,,,,,,,,,,,,,,,,,,,,,,,,,,,,,,,,,,,,,,,,,,,,,,,,,,,,,,,,,,,,,,,,,,,,,,,,,,,,,,,,,,,,,,,,,
,,?,0.000805,0,,,,,,stimuli/images/PICTURE_348.png,SPEECH,5ef4948e17993d0424e13842,09/05/2002,2020-08-13_13h49.32.178,proactive2,2020.1.2,Win32,60,5f341be081b9052c55068110,5f353698c7567a4a28eef523,5,,,,,,pepper,,,,,,,,,,,3,0,0,2,2,20,1,,,,,,,,,,,,,,,,,,,,,,,,,,,,,,,,,,,,,,,,,,,,,,,,,,,,,,,,,,,,,,,,,,,,,,,,,,,,,,,,,,,,,,,,,,,,,,
,,?,0.000725,0,,,,,,stimuli/images/PICTURE_208.png,LOTS,5ef4948e17993d0424e13842,09/05/2002,2020-08-13_13h49.32.178,proactive2,2020.1.2,Win32,60,5f341be081b9052c55068110,5f353698c7567a4a28eef523,5,,,,,,microphone,,,,,,,,,,,2,0,0,3,3,10,1,,,,,,,,,,,,,,,,,,,,,,,,,,,,,,,,,,,,,,,,,,,,,,,,,,,,,,,,,,,,,,,,,,,,,,,,,,,,,,,,,,,,,,,,,,,,,,
,,ESTATE,3.824705,1,,,,,,stimuli/images/PICTURE_308.png,ESTATE,5ef4948e17993d0424e13842,09/05/2002,2020-08-13_13h49.32.178,proactive2,2020.1.2,Win32,60,5f341be081b9052c55068110,5f353698c7567a4a28eef523,5,,,,,,dice,,,,,,,,,,,5,0,0,4,4,46,1,,,,,,,,,,,,,,,,,,,,,,,,,,,,,,,,,,,,,,,,,,,,,,,,,,,,,,,,,,,,,,,,,,,,,,,,,,,,,,,,,,,,,,,,,,,,,,
,,ADVICE,6.814895,1,,,,,,stimuli/images/PICTURE_123.png,ADVICE,5ef4948e17993d0424e13842,09/05/2002,2020-08-13_13h49.32.178,proactive2,2020.1.2,Win32,60,5f341be081b9052c55068110,5f353698c7567a4a28eef523,5,,,,,,dart,,,,,,,,,,,5,0,0,5,5,40,1,,,,,,,,,,,,,,,,,,,,,,,,,,,,,,,,,,,,,,,,,,,,,,,,,,,,,,,,,,,,,,,,,,,,,,,,,,,,,,,,,,,,,,,,,,,,,,
,,JUNGLE,3.58255,1,,,,,,stimuli/images/PICTURE_32.png,JUNGLE,5ef4948e17993d0424e13842,09/05/2002,2020-08-13_13h49.32.178,proactive2,2020.1.2,Win32,60,5f341be081b9052c55068110,5f353698c7567a4a28eef523,5,,,,,,crown,,,,,,,,,,,5,0,0,6,6,45,1,,,,,,,,,,,,,,,,,,,,,,,,,,,,,,,,,,,,,,,,,,,,,,,,,,,,,,,,,,,,,,,,,,,,,,,,,,,,,,,,,,,,,,,,,,,,,,
,,MILE,3.631845,1,,,,,,stimuli/images/PICTURE_68.png,MILE,5ef4948e17993d0424e13842,09/05/2002,2020-08-13_13h49.32.178,proactive2,2020.1.2,Win32,60,5f341be081b9052c55068110,5f353698c7567a4a28eef523,5,,,,,,candle,,,,,,,,,,,5,0,0,7,7,44,1,,,,,,,,,,,,,,,,,,,,,,,,,,,,,,,,,,,,,,,,,,,,,,,,,,,,,,,,,,,,,,,,,,,,,,,,,,,,,,,,,,,,,,,,,,,,,,
,,?,0.001255,0,,,,,,stimuli/images/PICTURE_453.png,DUDE,5ef4948e17993d0424e13842,09/05/2002,2020-08-13_13h49.32.178,proactive2,2020.1.2,Win32,60,5f341be081b9052c55068110,5f353698c7567a4a28eef523,5,,,,,,scissors,,,,,,,,,,,3,0,0,8,8,27,1,,,,,,,,,,,,,,,,,,,,,,,,,,,,,,,,,,,,,,,,,,,,,,,,,,,,,,,,,,,,,,,,,,,,,,,,,,,,,,,,,,,,,,,,,,,,,,
,,?,0.001365,0,,,,,,stimuli/images/PICTURE_675.png,WEAPON,5ef4948e17993d0424e13842,09/05/2002,2020-08-13_13h49.32.178,proactive2,2020.1.2,Win32,60,5f341be081b9052c55068110,5f353698c7567a4a28eef523,5,,,,,,windmill,,,,,,,,,,,4,0,0,9,9,32,1,,,,,,,,,,,,,,,,,,,,,,,,,,,,,,,,,,,,,,,,,,,,,,,,,,,,,,,,,,,,,,,,,,,,,,,,,,,,,,,,,,,,,,,,,,,,,,
,,THING,2.34311,1,,,,,,stimuli/images/PICTURE_208.png,THING,5ef4948e17993d0424e13842,09/05/2002,2020-08-13_13h49.32.178,proactive2,2020.1.2,Win32,60,5f341be081b9052c55068110,5f353698c7567a4a28eef523,5,,,,,,microphone,,,,,,,,,,,5,0,0,10,10,47,1,,,,,,,,,,,,,,,,,,,,,,,,,,,,,,,,,,,,,,,,,,,,,,,,,,,,,,,,,,,,,,,,,,,,,,,,,,,,,,,,,,,,,,,,,,,,,,
,,?,0.001365,0,,,,,,stimuli/images/PICTURE_467.png,DEMON,5ef4948e17993d0424e13842,09/05/2002,2020-08-13_13h49.32.178,proactive2,2020.1.2,Win32,60,5f341be081b9052c55068110,5f353698c7567a4a28eef523,5,,,,,,peg,,,,,,,,,,,3,0,0,11,11,23,1,,,,,,,,,,,,,,,,,,,,,,,,,,,,,,,,,,,,,,,,,,,,,,,,,,,,,,,,,,,,,,,,,,,,,,,,,,,,,,,,,,,,,,,,,,,,,,
,,?,0.001125,0,,,,,,stimuli/images/PICTURE_708.png,PENNY,5ef4948e17993d0424e13842,09/05/2002,2020-08-13_13h49.32.178,proactive2,2020.1.2,Win32,60,5f341be081b9052c55068110,5f353698c7567a4a28eef523,5,,,,,,monkey,,,,,,,,,,,4,0,0,12,12,31,1,,,,,,,,,,,,,,,,,,,,,,,,,,,,,,,,,,,,,,,,,,,,,,,,,,,,,,,,,,,,,,,,,,,,,,,,,,,,,,,,,,,,,,,,,,,,,,
,,?,0.001135,0,,,,,,stimuli/images/PICTURE_203.png,ARTIST,5ef4948e17993d0424e13842,09/05/2002,2020-08-13_13h49.32.178,proactive2,2020.1.2,Win32,60,5f341be081b9052c55068110,5f353698c7567a4a28eef523,5,,,,,,cap,,,,,,,,,,,3,0,0,13,13,26,1,,,,,,,,,,,,,,,,,,,,,,,,,,,,,,,,,,,,,,,,,,,,,,,,,,,,,,,,,,,,,,,,,,,,,,,,,,,,,,,,,,,,,,,,,,,,,,
,,?,0.001105,0,,,,,,stimuli/images/PICTURE_339.png,PLENTY,5ef4948e17993d0424e13842,09/05/2002,2020-08-13_13h49.32.178,proactive2,2020.1.2,Win32,60,5f341be081b9052c55068110,5f353698c7567a4a28eef523,5,,,,,,backpack,,,,,,,,,,,1,0,0,14,14,0,1,,,,,,,,,,,,,,,,,,,,,,,,,,,,,,,,,,,,,,,,,,,,,,,,,,,,,,,,,,,,,,,,,,,,,,,,,,,,,,,,,,,,,,,,,,,,,,
,,BEAUTY,6.403975,1,,,,,,stimuli/images/PICTURE_327.png,BEAUTY,5ef4948e17993d0424e13842,09/05/2002,2020-08-13_13h49.32.178,proactive2,2020.1.2,Win32,60,5f341be081b9052c55068110,5f353698c7567a4a28eef523,5,,,,,,helmet,,,,,,,,,,,5,0,0,15,15,48,1,,,,,,,,,,,,,,,,,,,,,,,,,,,,,,,,,,,,,,,,,,,,,,,,,,,,,,,,,,,,,,,,,,,,,,,,,,,,,,,,,,,,,,,,,,,,,,
,,SYSTEM,7.548975,1,,,,,,stimuli/images/PICTURE_744.png,SYSTEM,5ef4948e17993d0424e13842,09/05/2002,2020-08-13_13h49.32.178,proactive2,2020.1.2,Win32,60,5f341be081b9052c55068110,5f353698c7567a4a28eef523,5,,,,,,ring,,,,,,,,,,,5,0,0,16,16,43,1,,,,,,,,,,,,,,,,,,,,,,,,,,,,,,,,,,,,,,,,,,,,,,,,,,,,,,,,,,,,,,,,,,,,,,,,,,,,,,,,,,,,,,,,,,,,,,
,,?,0.00132,0,,,,,,stimuli/images/PICTURE_744.png,SAKE,5ef4948e17993d0424e13842,09/05/2002,2020-08-13_13h49.32.178,proactive2,2020.1.2,Win32,60,5f341be081b9052c55068110,5f353698c7567a4a28eef523,5,,,,,,ring,,,,,,,,,,,2,0,0,17,17,17,1,,,,,,,,,,,,,,,,,,,,,,,,,,,,,,,,,,,,,,,,,,,,,,,,,,,,,,,,,,,,,,,,,,,,,,,,,,,,,,,,,,,,,,,,,,,,,,
,,?,0.00111,0,,,,,,stimuli/images/PICTURE_688.png,CASINO,5ef4948e17993d0424e13842,09/05/2002,2020-08-13_13h49.32.178,proactive2,2020.1.2,Win32,60,5f341be081b9052c55068110,5f353698c7567a4a28eef523,5,,,,,,runner,,,,,,,,,,,1,0,0,18,18,2,1,,,,,,,,,,,,,,,,,,,,,,,,,,,,,,,,,,,,,,,,,,,,,,,,,,,,,,,,,,,,,,,,,,,,,,,,,,,,,,,,,,,,,,,,,,,,,,
,,?,0.00111,0,,,,,,stimuli/images/PICTURE_356.png,DANGER,5ef4948e17993d0424e13842,09/05/2002,2020-08-13_13h49.32.178,proactive2,2020.1.2,Win32,60,5f341be081b9052c55068110,5f353698c7567a4a28eef523,5,,,,,,pawn,,,,,,,,,,,6,0,0,19,19,55,1,,,,,,,,,,,,,,,,,,,,,,,,,,,,,,,,,,,,,,,,,,,,,,,,,,,,,,,,,,,,,,,,,,,,,,,,,,,,,,,,,,,,,,,,,,,,,,
,,?,0.001145,0,,,,,,stimuli/images/PICTURE_314.png,GODS,5ef4948e17993d0424e13842,09/05/2002,2020-08-13_13h49.32.178,proactive2,2020.1.2,Win32,60,5f341be081b9052c55068110,5f353698c7567a4a28eef523,5,,,,,,perfume,,,,,,,,,,,2,0,0,20,20,11,1,,,,,,,,,,,,,,,,,,,,,,,,,,,,,,,,,,,,,,,,,,,,,,,,,,,,,,,,,,,,,,,,,,,,,,,,,,,,,,,,,,,,,,,,,,,,,,
,,?,0.001085,0,,,,,,stimuli/images/PICTURE_469.png,ARTIST,5ef4948e17993d0424e13842,09/05/2002,2020-08-13_13h49.32.178,proactive2,2020.1.2,Win32,60,5f341be081b9052c55068110,5f353698c7567a4a28eef523,5,,,,,,stool,,,,,,,,,,,1,0,0,21,21,6,1,,,,,,,,,,,,,,,,,,,,,,,,,,,,,,,,,,,,,,,,,,,,,,,,,,,,,,,,,,,,,,,,,,,,,,,,,,,,,,,,,,,,,,,,,,,,,,
,,?,0.0013,0,,,,,,stimuli/images/PICTURE_692.png,MONTH,5ef4948e17993d0424e13842,09/05/2002,2020-08-13_13h49.32.178,proactive2,2020.1.2,Win32,60,5f341be081b9052c55068110,5f353698c7567a4a28eef523,5,,,,,,cherry,,,,,,,,,,,2,0,0,22,22,16,1,,,,,,,,,,,,,,,,,,,,,,,,,,,,,,,,,,,,,,,,,,,,,,,,,,,,,,,,,,,,,,,,,,,,,,,,,,,,,,,,,,,,,,,,,,,,,,
,,?,0.000975,0,,,,,,stimuli/images/PICTURE_160.png,FEET,5ef4948e17993d0424e13842,09/05/2002,2020-08-13_13h49.32.178,proactive2,2020.1.2,Win32,60,5f341be081b9052c55068110,5f353698c7567a4a28eef523,5,,,,,,wheelbarrow,,,,,,,,,,,6,0,0,23,23,58,1,,,,,,,,,,,,,,,,,,,,,,,,,,,,,,,,,,,,,,,,,,,,,,,,,,,,,,,,,,,,,,,,,,,,,,,,,,,,,,,,,,,,,,,,,,,,,,
,,?,0.00089,0,,,,,,stimuli/images/PICTURE_667.png,BATH,5ef4948e17993d0424e13842,09/05/2002,2020-08-13_13h49.32.178,proactive2,2020.1.2,Win32,60,5f341be081b9052c55068110,5f353698c7567a4a28eef523,5,,,,,,daisy,,,,,,,,,,,1,0,0,24,24,4,1,,,,,,,,,,,,,,,,,,,,,,,,,,,,,,,,,,,,,,,,,,,,,,,,,,,,,,,,,,,,,,,,,,,,,,,,,,,,,,,,,,,,,,,,,,,,,,
,,?,0.00118,0,,,,,,stimuli/images/PICTURE_302.png,FAMILY,5ef4948e17993d0424e13842,09/05/2002,2020-08-13_13h49.32.178,proactive2,2020.1.2,Win32,60,5f341be081b9052c55068110,5f353698c7567a4a28eef523,5,,,,,,taxi,,,,,,,,,,,2,0,0,25,25,18,1,,,,,,,,,,,,,,,,,,,,,,,,,,,,,,,,,,,,,,,,,,,,,,,,,,,,,,,,,,,,,,,,,,,,,,,,,,,,,,,,,,,,,,,,,,,,,,
,,?,0.0009,0,,,,,,stimuli/images/PICTURE_208.png,MONTH,5ef4948e17993d0424e13842,09/05/2002,2020-08-13_13h49.32.178,proactive2,2020.1.2,Win32,60,5f341be081b9052c55068110,5f353698c7567a4a28eef523,5,,,,,,microphone,,,,,,,,,,,6,0,0,26,26,53,1,,,,,,,,,,,,,,,,,,,,,,,,,,,,,,,,,,,,,,,,,,,,,,,,,,,,,,,,,,,,,,,,,,,,,,,,,,,,,,,,,,,,,,,,,,,,,,
,,?,0.00205,0,,,,,,stimuli/images/PICTURE_708.png,CLIENT,5ef4948e17993d0424e13842,09/05/2002,2020-08-13_13h49.32.178,proactive2,2020.1.2,Win32,60,5f341be081b9052c55068110,5f353698c7567a4a28eef523,5,,,,,,monkey,,,,,,,,,,,1,0,0,27,27,5,1,,,,,,,,,,,,,,,,,,,,,,,,,,,,,,,,,,,,,,,,,,,,,,,,,,,,,,,,,,,,,,,,,,,,,,,,,,,,,,,,,,,,,,,,,,,,,,
,,?,0.000705,0,,,,,,stimuli/images/PICTURE_677.png,MILE,5ef4948e17993d0424e13842,09/05/2002,2020-08-13_13h49.32.178,proactive2,2020.1.2,Win32,60,5f341be081b9052c55068110,5f353698c7567a4a28eef523,5,,,,,,map,,,,,,,,,,,4,0,0,28,28,30,1,,,,,,,,,,,,,,,,,,,,,,,,,,,,,,,,,,,,,,,,,,,,,,,,,,,,,,,,,,,,,,,,,,,,,,,,,,,,,,,,,,,,,,,,,,,,,,
,,?,0.000865,0,,,,,,stimuli/images/PICTURE_449.png,THING,5ef4948e17993d0424e13842,09/05/2002,2020-08-13_13h49.32.178,proactive2,2020.1.2,Win32,60,5f341be081b9052c55068110,5f353698c7567a4a28eef523,5,,,,,,bench,,,,,,,,,,,6,0,0,29,29,59,1,,,,,,,,,,,,,,,,,,,,,,,,,,,,,,,,,,,,,,,,,,,,,,,,,,,,,,,,,,,,,,,,,,,,,,,,,,,,,,,,,,,,,,,,,,,,,,
,,?,0.000645,0,,,,,,stimuli/images/PICTURE_654.png,VALLEY,5ef4948e17993d0424e13842,09/05/2002,2020-08-13_13h49.32.178,proactive2,2020.1.2,Win32,60,5f341be081b9052c55068110,5f353698c7567a4a28eef523,5,,,,,,pencil,,,,,,,,,,,1,0,0,30,30,1,1,,,,,,,,,,,,,,,,,,,,,,,,,,,,,,,,,,,,,,,,,,,,,,,,,,,,,,,,,,,,,,,,,,,,,,,,,,,,,,,,,,,,,,,,,,,,,,
,,?,0.000665,0,,,,,,stimuli/images/PICTURE_85.png,THING,5ef4948e17993d0424e13842,09/05/2002,2020-08-13_13h49.32.178,proactive2,2020.1.2,Win32,60,5f341be081b9052c55068110,5f353698c7567a4a28eef523,5,,,,,,diamond,,,,,,,,,,,2,0,0,31,31,15,1,,,,,,,,,,,,,,,,,,,,,,,,,,,,,,,,,,,,,,,,,,,,,,,,,,,,,,,,,,,,,,,,,,,,,,,,,,,,,,,,,,,,,,,,,,,,,,
,,DEATH,2.778275,1,,,,,,stimuli/images/PICTURE_380.png,DEATH,5ef4948e17993d0424e13842,09/05/2002,2020-08-13_13h49.32.178,proactive2,2020.1.2,Win32,60,5f341be081b9052c55068110,5f353698c7567a4a28eef523,5,,,,,,gorilla,,,,,,,,,,,5,0,0,32,32,49,1,,,,,,,,,,,,,,,,,,,,,,,,,,,,,,,,,,,,,,,,,,,,,,,,,,,,,,,,,,,,,,,,,,,,,,,,,,,,,,,,,,,,,,,,,,,,,,
,,?,0.001045,0,,,,,,stimuli/images/PICTURE_151.png,GIRL,5ef4948e17993d0424e13842,09/05/2002,2020-08-13_13h49.32.178,proactive2,2020.1.2,Win32,60,5f341be081b9052c55068110,5f353698c7567a4a28eef523,5,,,,,,tray,,,,,,,,,,,2,0,0,33,33,19,1,,,,,,,,,,,,,,,,,,,,,,,,,,,,,,,,,,,,,,,,,,,,,,,,,,,,,,,,,,,,,,,,,,,,,,,,,,,,,,,,,,,,,,,,,,,,,,
,,?,0.000955,0,,,,,,stimuli/images/PICTURE_491.png,ROOF,5ef4948e17993d0424e13842,09/05/2002,2020-08-13_13h49.32.178,proactive2,2020.1.2,Win32,60,5f341be081b9052c55068110,5f353698c7567a4a28eef523,5,,,,,,rug,,,,,,,,,,,3,0,0,34,34,24,1,,,,,,,,,,,,,,,,,,,,,,,,,,,,,,,,,,,,,,,,,,,,,,,,,,,,,,,,,,,,,,,,,,,,,,,,,,,,,,,,,,,,,,,,,,,,,,
,,?,0.00088,0,,,,,,stimuli/images/PICTURE_491.png,WRITER,5ef4948e17993d0424e13842,09/05/2002,2020-08-13_13h49.32.178,proactive2,2020.1.2,Win32,60,5f341be081b9052c55068110,5f353698c7567a4a28eef523,5,,,,,,rug,,,,,,,,,,,6,0,0,35,35,57,1,,,,,,,,,,,,,,,,,,,,,,,,,,,,,,,,,,,,,,,,,,,,,,,,,,,,,,,,,,,,,,,,,,,,,,,,,,,,,,,,,,,,,,,,,,,,,,
,,?,0.000945,0,,,,,,stimuli/images/PICTURE_311.png,FRIEND,5ef4948e17993d0424e13842,09/05/2002,2020-08-13_13h49.32.178,proactive2,2020.1.2,Win32,60,5f341be081b9052c55068110,5f353698c7567a4a28eef523,5,,,,,,razor,,,,,,,,,,,4,0,0,36,36,34,1,,,,,,,,,,,,,,,,,,,,,,,,,,,,,,,,,,,,,,,,,,,,,,,,,,,,,,,,,,,,,,,,,,,,,,,,,,,,,,,,,,,,,,,,,,,,,,
,,?,0.000885,0,,,,,,stimuli/images/PICTURE_311.png,BEAUTY,5ef4948e17993d0424e13842,09/05/2002,2020-08-13_13h49.32.178,proactive2,2020.1.2,Win32,60,5f341be081b9052c55068110,5f353698c7567a4a28eef523,5,,,,,,razor,,,,,,,,,,,2,0,0,37,37,13,1,,,,,,,,,,,,,,,,,,,,,,,,,,,,,,,,,,,,,,,,,,,,,,,,,,,,,,,,,,,,,,,,,,,,,,,,,,,,,,,,,,,,,,,,,,,,,,
,,?,0.00086,0,,,,,,stimuli/images/PICTURE_248.png,DOZEN,5ef4948e17993d0424e13842,09/05/2002,2020-08-13_13h49.32.178,proactive2,2020.1.2,Win32,60,5f341be081b9052c55068110,5f353698c7567a4a28eef523,5,,,,,,cart,,,,,,,,,,,4,0,0,38,38,39,1,,,,,,,,,,,,,,,,,,,,,,,,,,,,,,,,,,,,,,,,,,,,,,,,,,,,,,,,,,,,,,,,,,,,,,,,,,,,,,,,,,,,,,,,,,,,,,
,,?,0.000815,0,,,,,,stimuli/images/PICTURE_509.png,PHOTO,5ef4948e17993d0424e13842,09/05/2002,2020-08-13_13h49.32.178,proactive2,2020.1.2,Win32,60,5f341be081b9052c55068110,5f353698c7567a4a28eef523,5,,,,,,telephone,,,,,,,,,,,3,0,0,39,39,21,1,,,,,,,,,,,,,,,,,,,,,,,,,,,,,,,,,,,,,,,,,,,,,,,,,,,,,,,,,,,,,,,,,,,,,,,,,,,,,,,,,,,,,,,,,,,,,,
,,PLENTY,5.833925,1,,,,,,stimuli/images/PICTURE_667.png,PLENTY,5ef4948e17993d0424e13842,09/05/2002,2020-08-13_13h49.32.178,proactive2,2020.1.2,Win32,60,5f341be081b9052c55068110,5f353698c7567a4a28eef523,5,,,,,,daisy,,,,,,,,,,,5,0,0,40,40,41,1,,,,,,,,,,,,,,,,,,,,,,,,,,,,,,,,,,,,,,,,,,,,,,,,,,,,,,,,,,,,,,,,,,,,,,,,,,,,,,,,,,,,,,,,,,,,,,
,,?,0.00166,0,,,,,,stimuli/images/PICTURE_470.png,CASINO,5ef4948e17993d0424e13842,09/05/2002,2020-08-13_13h49.32.178,proactive2,2020.1.2,Win32,60,5f341be081b9052c55068110,5f353698c7567a4a28eef523,5,,,,,,motorbike,,,,,,,,,,,4,0,0,41,41,36,1,,,,,,,,,,,,,,,,,,,,,,,,,,,,,,,,,,,,,,,,,,,,,,,,,,,,,,,,,,,,,,,,,,,,,,,,,,,,,,,,,,,,,,,,,,,,,,
,,WRITE,5.94283,0,,,,,,stimuli/images/PICTURE_469.png,LETTER,5ef4948e17993d0424e13842,09/05/2002,2020-08-13_13h49.32.178,proactive2,2020.1.2,Win32,60,5f341be081b9052c55068110,5f353698c7567a4a28eef523,5,,,,,,stool,,,,,,,,,,,5,0,0,42,42,42,1,,,,,,,,,,,,,,,,,,,,,,,,,,,,,,,,,,,,,,,,,,,,,,,,,,,,,,,,,,,,,,,,,,,,,,,,,,,,,,,,,,,,,,,,,,,,,,
,,?,0.00137,0,,,,,,stimuli/images/PICTURE_255.png,AREA,5ef4948e17993d0424e13842,09/05/2002,2020-08-13_13h49.32.178,proactive2,2020.1.2,Win32,60,5f341be081b9052c55068110,5f353698c7567a4a28eef523,5,,,,,,shovel,,,,,,,,,,,3,0,0,43,43,22,1,,,,,,,,,,,,,,,,,,,,,,,,,,,,,,,,,,,,,,,,,,,,,,,,,,,,,,,,,,,,,,,,,,,,,,,,,,,,,,,,,,,,,,,,,,,,,,
,,?,0.001235,0,,,,,,stimuli/images/PICTURE_487.png,FLIGHT,5ef4948e17993d0424e13842,09/05/2002,2020-08-13_13h49.32.178,proactive2,2020.1.2,Win32,60,5f341be081b9052c55068110,5f353698c7567a4a28eef523,5,,,,,,basket,,,,,,,,,,,1,0,0,44,44,9,1,,,,,,,,,,,,,,,,,,,,,,,,,,,,,,,,,,,,,,,,,,,,,,,,,,,,,,,,,,,,,,,,,,,,,,,,,,,,,,,,,,,,,,,,,,,,,,
,,?,0.0012,0,,,,,,stimuli/images/PICTURE_285.png,ADVICE,5ef4948e17993d0424e13842,09/05/2002,2020-08-13_13h49.32.178,proactive2,2020.1.2,Win32,60,5f341be081b9052c55068110,5f353698c7567a4a28eef523,5,,,,,,carrot,,,,,,,,,,,2,0,0,45,45,12,1,,,,,,,,,,,,,,,,,,,,,,,,,,,,,,,,,,,,,,,,,,,,,,,,,,,,,,,,,,,,,,,,,,,,,,,,,,,,,,,,,,,,,,,,,,,,,,
,,?,0.001205,0,,,,,,stimuli/images/PICTURE_504.png,BODY,5ef4948e17993d0424e13842,09/05/2002,2020-08-13_13h49.32.178,proactive2,2020.1.2,Win32,60,5f341be081b9052c55068110,5f353698c7567a4a28eef523,5,,,,,,wheel,,,,,,,,,,,1,0,0,46,46,8,1,,,,,,,,,,,,,,,,,,,,,,,,,,,,,,,,,,,,,,,,,,,,,,,,,,,,,,,,,,,,,,,,,,,,,,,,,,,,,,,,,,,,,,,,,,,,,,
,,?,0.001225,0,,,,,,stimuli/images/PICTURE_147.png,MOMENT,5ef4948e17993d0424e13842,09/05/2002,2020-08-13_13h49.32.178,proactive2,2020.1.2,Win32,60,5f341be081b9052c55068110,5f353698c7567a4a28eef523,5,,,,,,hanger,,,,,,,,,,,6,0,0,47,47,51,1,,,,,,,,,,,,,,,,,,,,,,,,,,,,,,,,,,,,,,,,,,,,,,,,,,,,,,,,,,,,,,,,,,,,,,,,,,,,,,,,,,,,,,,,,,,,,,
,,?,0.001085,0,,,,,,stimuli/images/PICTURE_177.png,CARS,5ef4948e17993d0424e13842,09/05/2002,2020-08-13_13h49.32.178,proactive2,2020.1.2,Win32,60,5f341be081b9052c55068110,5f353698c7567a4a28eef523,5,,,,,,mushroom,,,,,,,,,,,4,0,0,48,48,35,1,,,,,,,,,,,,,,,,,,,,,,,,,,,,,,,,,,,,,,,,,,,,,,,,,,,,,,,,,,,,,,,,,,,,,,,,,,,,,,,,,,,,,,,,,,,,,,
,,?,0.001005,0,,,,,,stimuli/images/PICTURE_380.png,PHOTO,5ef4948e17993d0424e13842,09/05/2002,2020-08-13_13h49.32.178,proactive2,2020.1.2,Win32,60,5f341be081b9052c55068110,5f353698c7567a4a28eef523,5,,,,,,gorilla,,,,,,,,,,,6,0,0,49,49,52,1,,,,,,,,,,,,,,,,,,,,,,,,,,,,,,,,,,,,,,,,,,,,,,,,,,,,,,,,,,,,,,,,,,,,,,,,,,,,,,,,,,,,,,,,,,,,,,
,,?,0.00076,0,,,,,,stimuli/images/PICTURE_488.png,STYLE,5ef4948e17993d0424e13842,09/05/2002,2020-08-13_13h49.32.178,proactive2,2020.1.2,Win32,60,5f341be081b9052c55068110,5f353698c7567a4a28eef523,5,,,,,,sun,,,,,,,,,,,4,0,0,50,50,33,1,,,,,,,,,,,,,,,,,,,,,,,,,,,,,,,,,,,,,,,,,,,,,,,,,,,,,,,,,,,,,,,,,,,,,,,,,,,,,,,,,,,,,,,,,,,,,,
,,?,0.00076,0,,,,,,stimuli/images/PICTURE_95.png,STYLE,5ef4948e17993d0424e13842,09/05/2002,2020-08-13_13h49.32.178,proactive2,2020.1.2,Win32,60,5f341be081b9052c55068110,5f353698c7567a4a28eef523,5,,,,,,suitcase,,,,,,,,,,,3,0,0,51,51,25,1,,,,,,,,,,,,,,,,,,,,,,,,,,,,,,,,,,,,,,,,,,,,,,,,,,,,,,,,,,,,,,,,,,,,,,,,,,,,,,,,,,,,,,,,,,,,,,
,,?,0.000685,0,,,,,,stimuli/images/PICTURE_453.png,PLENTY,5ef4948e17993d0424e13842,09/05/2002,2020-08-13_13h49.32.178,proactive2,2020.1.2,Win32,60,5f341be081b9052c55068110,5f353698c7567a4a28eef523,5,,,,,,scissors,,,,,,,,,,,6,0,0,52,52,56,1,,,,,,,,,,,,,,,,,,,,,,,,,,,,,,,,,,,,,,,,,,,,,,,,,,,,,,,,,,,,,,,,,,,,,,,,,,,,,,,,,,,,,,,,,,,,,,
,,?,0.00066,0,,,,,,stimuli/images/PICTURE_308.png,KIND,5ef4948e17993d0424e13842,09/05/2002,2020-08-13_13h49.32.178,proactive2,2020.1.2,Win32,60,5f341be081b9052c55068110,5f353698c7567a4a28eef523,5,,,,,,dice,,,,,,,,,,,6,0,0,53,53,54,1,,,,,,,,,,,,,,,,,,,,,,,,,,,,,,,,,,,,,,,,,,,,,,,,,,,,,,,,,,,,,,,,,,,,,,,,,,,,,,,,,,,,,,,,,,,,,,
,,?,0.000625,0,,,,,,stimuli/images/PICTURE_688.png,WOMEN,5ef4948e17993d0424e13842,09/05/2002,2020-08-13_13h49.32.178,proactive2,2020.1.2,Win32,60,5f341be081b9052c55068110,5f353698c7567a4a28eef523,5,,,,,,runner,,,,,,,,,,,2,0,0,54,54,14,1,,,,,,,,,,,,,,,,,,,,,,,,,,,,,,,,,,,,,,,,,,,,,,,,,,,,,,,,,,,,,,,,,,,,,,,,,,,,,,,,,,,,,,,,,,,,,,
,,?,0.002585,0,,,,,,stimuli/images/PICTURE_708.png,YARD,5ef4948e17993d0424e13842,09/05/2002,2020-08-13_13h49.32.178,proactive2,2020.1.2,Win32,60,5f341be081b9052c55068110,5f353698c7567a4a28eef523,5,,,,,,monkey,,,,,,,,,,,3,0,0,55,55,29,1,,,,,,,,,,,,,,,,,,,,,,,,,,,,,,,,,,,,,,,,,,,,,,,,,,,,,,,,,,,,,,,,,,,,,,,,,,,,,,,,,,,,,,,,,,,,,,
,,?,0.000635,0,,,,,,stimuli/images/PICTURE_123.png,ADVICE,5ef4948e17993d0424e13842,09/05/2002,2020-08-13_13h49.32.178,proactive2,2020.1.2,Win32,60,5f341be081b9052c55068110,5f353698c7567a4a28eef523,5,,,,,,dart,,,,,,,,,,,6,0,0,56,56,50,1,,,,,,,,,,,,,,,,,,,,,,,,,,,,,,,,,,,,,,,,,,,,,,,,,,,,,,,,,,,,,,,,,,,,,,,,,,,,,,,,,,,,,,,,,,,,,,
,,?,0.00064,0,,,,,,stimuli/images/PICTURE_233.png,WOMEN,5ef4948e17993d0424e13842,09/05/2002,2020-08-13_13h49.32.178,proactive2,2020.1.2,Win32,60,5f341be081b9052c55068110,5f353698c7567a4a28eef523,5,,,,,,salt,,,,,,,,,,,4,0,0,57,57,38,1,,,,,,,,,,,,,,,,,,,,,,,,,,,,,,,,,,,,,,,,,,,,,,,,,,,,,,,,,,,,,,,,,,,,,,,,,,,,,,,,,,,,,,,,,,,,,,
,,?,0.00065,0,,,,,,stimuli/images/PICTURE_215.png,PLENTY,5ef4948e17993d0424e13842,09/05/2002,2020-08-13_13h49.32.178,proactive2,2020.1.2,Win32,60,5f341be081b9052c55068110,5f353698c7567a4a28eef523,5,,,,,,boot,,,,,,,,,,,4,0,0,58,58,37,1,,,,,,,,,,,,,,,,,,,,,,,,,,,,,,,,,,,,,,,,,,,,,,,,,,,,,,,,,,,,,,,,,,,,,,,,,,,,,,,,,,,,,,,,,,,,,,
,,?,0.000835,0,,,,,,stimuli/images/PICTURE_233.png,IDEAS,5ef4948e17993d0424e13842,09/05/2002,2020-08-13_13h49.32.178,proactive2,2020.1.2,Win32,60,5f341be081b9052c55068110,5f353698c7567a4a28eef523,5,,,,,,salt,,,,,,,,,,,3,0,0,59,59,28,1,,,,,,,,,,,,,,,,,,,,,,,,,,,,,,,,,,,,,,,,,,,,,,,,,,,,,,,,,,,,,,,,,,,,,,,,,,,,,,,,,,,,,,,,,,,,,,
,,,,,,,,,,,,5ef4948e17993d0424e13842,09/05/2002,2020-08-13_13h49.32.178,proactive2,2020.1.2,Win32,60,5f341be081b9052c55068110,5f353698c7567a4a28eef523,5,,,,,,,,,,,,,,,,,,,,,,,,0,1,1,0,1,stimuli/learn-block1.csv,,,,,,,,,,,,,,,,,,,,,,,,,,,,,,,,,,,,,,,,,,,,,,,,,,,,,,,,,,,,,,,,,,,,,,,,,,,,,,,,,,,,,,,,
,,,,,,,,,,stimuli/images/PICTURE_380.png,HONEY,5ef4948e17993d0424e13842,09/05/2002,2020-08-13_13h49.32.178,proactive2,2020.1.2,Win32,60,5f341be081b9052c55068110,5f353698c7567a4a28eef523,5,,,,,,gorilla,,,,,,0,0,0,19,1,2,1,,,,,,,,,,,,,,,,,,,,,,,,,,,,,,,,,,,,,,,,,,,,,,,,,,,,,,,,,,,,,,,,,,,,,,,,,,,,,,,,,,,,,,,,,,,,,,,,,,,
,,,,,,,,,,stimuli/images/PICTURE_655.png,TOILET,5ef4948e17993d0424e13842,09/05/2002,2020-08-13_13h49.32.178,proactive2,2020.1.2,Win32,60,5f341be081b9052c55068110,5f353698c7567a4a28eef523,5,,,,,,megaphone,,,,,,0,1,1,12,1,2,1,,,,,,,,,,,,,,,,,,,,,,,,,,,,,,,,,,,,,,,,,,,,,,,,,,,,,,,,,,,,,,,,,,,,,,,,,,,,,,,,,,,,,,,,,,,,,,,,,,,
,,,,,,,,,,stimuli/images/PICTURE_491.png,GLASS,5ef4948e17993d0424e13842,09/05/2002,2020-08-13_13h49.32.178,proactive2,2020.1.2,Win32,60,5f341be081b9052c55068110,5f353698c7567a4a28eef523,5,,,,,,rug,,,,,,0,2,2,14,1,2,1,,,,,,,,,,,,,,,,,,,,,,,,,,,,,,,,,,,,,,,,,,,,,,,,,,,,,,,,,,,,,,,,,,,,,,,,,,,,,,,,,,,,,,,,,,,,,,,,,,,
,,,,,,,,,,stimuli/images/PICTURE_504.png,ARTIST,5ef4948e17993d0424e13842,09/05/2002,2020-08-13_13h49.32.178,proactive2,2020.1.2,Win32,60,5f341be081b9052c55068110,5f353698c7567a4a28eef523,5,,,,,,wheel,,,,,,0,3,3,49,1,5,1,,,,,,,,,,,,,,,,,,,,,,,,,,,,,,,,,,,,,,,,,,,,,,,,,,,,,,,,,,,,,,,,,,,,,,,,,,,,,,,,,,,,,,,,,,,,,,,,,,,
,,,,,,,,,,stimuli/images/PICTURE_42.png,BOYS,5ef4948e17993d0424e13842,09/05/2002,2020-08-13_13h49.32.178,proactive2,2020.1.2,Win32,60,5f341be081b9052c55068110,5f353698c7567a4a28eef523,5,,,,,,pear,,,,,,0,4,4,55,1,6,1,,,,,,,,,,,,,,,,,,,,,,,,,,,,,,,,,,,,,,,,,,,,,,,,,,,,,,,,,,,,,,,,,,,,,,,,,,,,,,,,,,,,,,,,,,,,,,,,,,,
,,,,,,,,,,stimuli/images/PICTURE_487.png,GIRL,5ef4948e17993d0424e13842,09/05/2002,2020-08-13_13h49.32.178,proactive2,2020.1.2,Win32,60,5f341be081b9052c55068110,5f353698c7567a4a28eef523,5,,,,,,basket,,,,,,0,5,5,45,1,5,1,,,,,,,,,,,,,,,,,,,,,,,,,,,,,,,,,,,,,,,,,,,,,,,,,,,,,,,,,,,,,,,,,,,,,,,,,,,,,,,,,,,,,,,,,,,,,,,,,,,
,,,,,,,,,,stimuli/images/PICTURE_380.png,CANDY,5ef4948e17993d0424e13842,09/05/2002,2020-08-13_13h49.32.178,proactive2,2020.1.2,Win32,60,5f341be081b9052c55068110,5f353698c7567a4a28eef523,5,,,,,,gorilla,,,,,,0,6,6,0,1,1,1,,,,,,,,,,,,,,,,,,,,,,,,,,,,,,,,,,,,,,,,,,,,,,,,,,,,,,,,,,,,,,,,,,,,,,,,,,,,,,,,,,,,,,,,,,,,,,,,,,,
,,,,,,,,,,stimuli/images/PICTURE_68.png,ROOF,5ef4948e17993d0424e13842,09/05/2002,2020-08-13_13h49.32.178,proactive2,2020.1.2,Win32,60,5f341be081b9052c55068110,5f353698c7567a4a28eef523,5,,,,,,candle,,,,,,0,7,7,38,1,4,1,,,,,,,,,,,,,,,,,,,,,,,,,,,,,,,,,,,,,,,,,,,,,,,,,,,,,,,,,,,,,,,,,,,,,,,,,,,,,,,,,,,,,,,,,,,,,,,,,,,
,,,,,,,,,,stimuli/images/PICTURE_147.png,WOMEN,5ef4948e17993d0424e13842,09/05/2002,2020-08-13_13h49.32.178,proactive2,2020.1.2,Win32,60,5f341be081b9052c55068110,5f353698c7567a4a28eef523,5,,,,,,hanger,,,,,,0,8,8,7,1,1,1,,,,,,,,,,,,,,,,,,,,,,,,,,,,,,,,,,,,,,,,,,,,,,,,,,,,,,,,,,,,,,,,,,,,,,,,,,,,,,,,,,,,,,,,,,,,,,,,,,,
,,,,,,,,,,stimuli/images/PICTURE_667.png,RIVER,5ef4948e17993d0424e13842,09/05/2002,2020-08-13_13h49.32.178,proactive2,2020.1.2,Win32,60,5f341be081b9052c55068110,5f353698c7567a4a28eef523,5,,,,,,daisy,,,,,,0,9,9,10,1,2,1,,,,,,,,,,,,,,,,,,,,,,,,,,,,,,,,,,,,,,,,,,,,,,,,,,,,,,,,,,,,,,,,,,,,,,,,,,,,,,,,,,,,,,,,,,,,,,,,,,,
,,,,,,,,,,stimuli/images/PICTURE_469.png,AGENT,5ef4948e17993d0424e13842,09/05/2002,2020-08-13_13h49.32.178,proactive2,2020.1.2,Win32,60,5f341be081b9052c55068110,5f353698c7567a4a28eef523,5,,,,,,stool,,,,,,0,10,10,16,1,2,1,,,,,,,,,,,,,,,,,,,,,,,,,,,,,,,,,,,,,,,,,,,,,,,,,,,,,,,,,,,,,,,,,,,,,,,,,,,,,,,,,,,,,,,,,,,,,,,,,,,
,,,,,,,,,,stimuli/images/PICTURE_297.png,RIVER,5ef4948e17993d0424e13842,09/05/2002,2020-08-13_13h49.32.178,proactive2,2020.1.2,Win32,60,5f341be081b9052c55068110,5f353698c7567a4a28eef523,5,,,,,,aeroplane,,,,,,0,11,11,39,1,4,1,,,,,,,,,,,,,,,,,,,,,,,,,,,,,,,,,,,,,,,,,,,,,,,,,,,,,,,,,,,,,,,,,,,,,,,,,,,,,,,,,,,,,,,,,,,,,,,,,,,
,,,,,,,,,,stimuli/images/PICTURE_32.png,KIND,5ef4948e17993d0424e13842,09/05/2002,2020-08-13_13h49.32.178,proactive2,2020.1.2,Win32,60,5f341be081b9052c55068110,5f353698c7567a4a28eef523,5,,,,,,crown,,,,,,0,12,12,35,1,4,1,,,,,,,,,,,,,,,,,,,,,,,,,,,,,,,,,,,,,,,,,,,,,,,,,,,,,,,,,,,,,,,,,,,,,,,,,,,,,,,,,,,,,,,,,,,,,,,,,,,
,,,,,,,,,,stimuli/images/PICTURE_233.png,LOTS,5ef4948e17993d0424e13842,09/05/2002,2020-08-13_13h49.32.178,proactive2,2020.1.2,Win32,60,5f341be081b9052c55068110,5f353698c7567a4a28eef523,5,,,,,,salt,,,,,,0,13,13,42,1,5,1,,,,,,,,,,,,,,,,,,,,,,,,,,,,,,,,,,,,,,,,,,,,,,,,,,,,,,,,,,,,,,,,,,,,,,,,,,,,,,,,,,,,,,,,,,,,,,,,,,,
,,,,,,,,,,stimuli/images/PICTURE_308.png,FAMILY,5ef4948e17993d0424e13842,09/05/2002,2020-08-13_13h49.32.178,proactive2,2020.1.2,Win32,60,5f341be081b9052c55068110,5f353698c7567a4a28eef523,5,,,,,,dice,,,,,,0,14,14,36,1,4,1,,,,,,,,,,,,,,,,,,,,,,,,,,,,,,,,,,,,,,,,,,,,,,,,,,,,,,,,,,,,,,,,,,,,,,,,,,,,,,,,,,,,,,,,,,,,,,,,,,,
,,,,,,,,,,stimuli/images/PICTURE_504.png,YEAR,5ef4948e17993d0424e13842,09/05/2002,2020-08-13_13h49.32.178,proactive2,2020.1.2,Win32,60,5f341be081b9052c55068110,5f353698c7567a4a28eef523,5,,,,,,wheel,,,,,,0,15,15,13,1,2,1,,,,,,,,,,,,,,,,,,,,,,,,,,,,,,,,,,,,,,,,,,,,,,,,,,,,,,,,,,,,,,,,,,,,,,,,,,,,,,,,,,,,,,,,,,,,,,,,,,,
,,,,,,,,,,stimuli/images/PICTURE_405.png,PLENTY,5ef4948e17993d0424e13842,09/05/2002,2020-08-13_13h49.32.178,proactive2,2020.1.2,Win32,60,5f341be081b9052c55068110,5f353698c7567a4a28eef523,5,,,,,,anchor,,,,,,0,16,16,23,1,3,1,,,,,,,,,,,,,,,,,,,,,,,,,,,,,,,,,,,,,,,,,,,,,,,,,,,,,,,,,,,,,,,,,,,,,,,,,,,,,,,,,,,,,,,,,,,,,,,,,,,
,,,,,,,,,,stimuli/images/PICTURE_405.png,YEAR,5ef4948e17993d0424e13842,09/05/2002,2020-08-13_13h49.32.178,proactive2,2020.1.2,Win32,60,5f341be081b9052c55068110,5f353698c7567a4a28eef523,5,,,,,,anchor,,,,,,0,17,17,34,1,4,1,,,,,,,,,,,,,,,,,,,,,,,,,,,,,,,,,,,,,,,,,,,,,,,,,,,,,,,,,,,,,,,,,,,,,,,,,,,,,,,,,,,,,,,,,,,,,,,,,,,
,,,,,,,,,,stimuli/images/PICTURE_491.png,RIVER,5ef4948e17993d0424e13842,09/05/2002,2020-08-13_13h49.32.178,proactive2,2020.1.2,Win32,60,5f341be081b9052c55068110,5f353698c7567a4a28eef523,5,,,,,,rug,,,,,,0,18,18,6,1,1,1,,,,,,,,,,,,,,,,,,,,,,,,,,,,,,,,,,,,,,,,,,,,,,,,,,,,,,,,,,,,,,,,,,,,,,,,,,,,,,,,,,,,,,,,,,,,,,,,,,,
,,,,,,,,,,stimuli/images/PICTURE_57.png,MOMENT,5ef4948e17993d0424e13842,09/05/2002,2020-08-13_13h49.32.178,proactive2,2020.1.2,Win32,60,5f341be081b9052c55068110,5f353698c7567a4a28eef523,5,,,,,,stamp,,,,,,0,19,19,37,1,4,1,,,,,,,,,,,,,,,,,,,,,,,,,,,,,,,,,,,,,,,,,,,,,,,,,,,,,,,,,,,,,,,,,,,,,,,,,,,,,,,,,,,,,,,,,,,,,,,,,,,
,,,,,,,,,,stimuli/images/PICTURE_675.png,SALE,5ef4948e17993d0424e13842,09/05/2002,2020-08-13_13h49.32.178,proactive2,2020.1.2,Win32,60,5f341be081b9052c55068110,5f353698c7567a4a28eef523,5,,,,,,windmill,,,,,,0,20,20,47,1,5,1,,,,,,,,,,,,,,,,,,,,,,,,,,,,,,,,,,,,,,,,,,,,,,,,,,,,,,,,,,,,,,,,,,,,,,,,,,,,,,,,,,,,,,,,,,,,,,,,,,,
,,,,,,,,,,stimuli/images/PICTURE_654.png,MONTH,5ef4948e17993d0424e13842,09/05/2002,2020-08-13_13h49.32.178,proactive2,2020.1.2,Win32,60,5f341be081b9052c55068110,5f353698c7567a4a28eef523,5,,,,,,pencil,,,,,,0,21,21,29,1,3,1,,,,,,,,,,,,,,,,,,,,,,,,,,,,,,,,,,,,,,,,,,,,,,,,,,,,,,,,,,,,,,,,,,,,,,,,,,,,,,,,,,,,,,,,,,,,,,,,,,,
,,,,,,,,,,stimuli/images/PICTURE_340.png,LETTER,5ef4948e17993d0424e13842,09/05/2002,2020-08-13_13h49.32.178,proactive2,2020.1.2,Win32,60,5f341be081b9052c55068110,5f353698c7567a4a28eef523,5,,,,,,mirror,,,,,,0,22,22,24,1,3,1,,,,,,,,,,,,,,,,,,,,,,,,,,,,,,,,,,,,,,,,,,,,,,,,,,,,,,,,,,,,,,,,,,,,,,,,,,,,,,,,,,,,,,,,,,,,,,,,,,,
,,,,,,,,,,stimuli/images/PICTURE_750.png,HOTEL,5ef4948e17993d0424e13842,09/05/2002,2020-08-13_13h49.32.178,proactive2,2020.1.2,Win32,60,5f341be081b9052c55068110,5f353698c7567a4a28eef523,5,,,,,,kettle,,,,,,0,23,23,27,1,3,1,,,,,,,,,,,,,,,,,,,,,,,,,,,,,,,,,,,,,,,,,,,,,,,,,,,,,,,,,,,,,,,,,,,,,,,,,,,,,,,,,,,,,,,,,,,,,,,,,,,
,,,,,,,,,,stimuli/images/PICTURE_33.png,FRIEND,5ef4948e17993d0424e13842,09/05/2002,2020-08-13_13h49.32.178,proactive2,2020.1.2,Win32,60,5f341be081b9052c55068110,5f353698c7567a4a28eef523,5,,,,,,frame,,,,,,0,24,24,8,1,1,1,,,,,,,,,,,,,,,,,,,,,,,,,,,,,,,,,,,,,,,,,,,,,,,,,,,,,,,,,,,,,,,,,,,,,,,,,,,,,,,,,,,,,,,,,,,,,,,,,,,
,,,,,,,,,,stimuli/images/PICTURE_403.png,RIVER,5ef4948e17993d0424e13842,09/05/2002,2020-08-13_13h49.32.178,proactive2,2020.1.2,Win32,60,5f341be081b9052c55068110,5f353698c7567a4a28eef523,5,,,,,,cathedral,,,,,,0,25,25,40,1,5,1,,,,,,,,,,,,,,,,,,,,,,,,,,,,,,,,,,,,,,,,,,,,,,,,,,,,,,,,,,,,,,,,,,,,,,,,,,,,,,,,,,,,,,,,,,,,,,,,,,,
,,,,,,,,,,stimuli/images/PICTURE_383.png,SERIES,5ef4948e17993d0424e13842,09/05/2002,2020-08-13_13h49.32.178,proactive2,2020.1.2,Win32,60,5f341be081b9052c55068110,5f353698c7567a4a28eef523,5,,,,,,coin,,,,,,0,26,26,46,1,5,1,,,,,,,,,,,,,,,,,,,,,,,,,,,,,,,,,,,,,,,,,,,,,,,,,,,,,,,,,,,,,,,,,,,,,,,,,,,,,,,,,,,,,,,,,,,,,,,,,,,
,,,,,,,,,,stimuli/images/PICTURE_108.png,FLIGHT,5ef4948e17993d0424e13842,09/05/2002,2020-08-13_13h49.32.178,proactive2,2020.1.2,Win32,60,5f341be081b9052c55068110,5f353698c7567a4a28eef523,5,,,,,,calendar,,,,,,0,27,27,59,1,6,1,,,,,,,,,,,,,,,,,,,,,,,,,,,,,,,,,,,,,,,,,,,,,,,,,,,,,,,,,,,,,,,,,,,,,,,,,,,,,,,,,,,,,,,,,,,,,,,,,,,
,,,,,,,,,,stimuli/images/PICTURE_147.png,YEAR,5ef4948e17993d0424e13842,09/05/2002,2020-08-13_13h49.32.178,proactive2,2020.1.2,Win32,60,5f341be081b9052c55068110,5f353698c7567a4a28eef523,5,,,,,,hanger,,,,,,0,28,28,21,1,3,1,,,,,,,,,,,,,,,,,,,,,,,,,,,,,,,,,,,,,,,,,,,,,,,,,,,,,,,,,,,,,,,,,,,,,,,,,,,,,,,,,,,,,,,,,,,,,,,,,,,
,,,,,,,,,,stimuli/images/PICTURE_449.png,DUDE,5ef4948e17993d0424e13842,09/05/2002,2020-08-13_13h49.32.178,proactive2,2020.1.2,Win32,60,5f341be081b9052c55068110,5f353698c7567a4a28eef523,5,,,,,,bench,,,,,,0,29,29,17,1,2,1,,,,,,,,,,,,,,,,,,,,,,,,,,,,,,,,,,,,,,,,,,,,,,,,,,,,,,,,,,,,,,,,,,,,,,,,,,,,,,,,,,,,,,,,,,,,,,,,,,,
,,,,,,,,,,stimuli/images/PICTURE_677.png,APPLE,5ef4948e17993d0424e13842,09/05/2002,2020-08-13_13h49.32.178,proactive2,2020.1.2,Win32,60,5f341be081b9052c55068110,5f353698c7567a4a28eef523,5,,,,,,map,,,,,,0,30,30,43,1,5,1,,,,,,,,,,,,,,,,,,,,,,,,,,,,,,,,,,,,,,,,,,,,,,,,,,,,,,,,,,,,,,,,,,,,,,,,,,,,,,,,,,,,,,,,,,,,,,,,,,,
,,,,,,,,,,stimuli/images/PICTURE_203.png,GODS,5ef4948e17993d0424e13842,09/05/2002,2020-08-13_13h49.32.178,proactive2,2020.1.2,Win32,60,5f341be081b9052c55068110,5f353698c7567a4a28eef523,5,,,,,,cap,,,,,,0,31,31,30,1,4,1,,,,,,,,,,,,,,,,,,,,,,,,,,,,,,,,,,,,,,,,,,,,,,,,,,,,,,,,,,,,,,,,,,,,,,,,,,,,,,,,,,,,,,,,,,,,,,,,,,,
,,,,,,,,,,stimuli/images/PICTURE_285.png,LIFE,5ef4948e17993d0424e13842,09/05/2002,2020-08-13_13h49.32.178,proactive2,2020.1.2,Win32,60,5f341be081b9052c55068110,5f353698c7567a4a28eef523,5,,,,,,carrot,,,,,,0,32,32,33,1,4,1,,,,,,,,,,,,,,,,,,,,,,,,,,,,,,,,,,,,,,,,,,,,,,,,,,,,,,,,,,,,,,,,,,,,,,,,,,,,,,,,,,,,,,,,,,,,,,,,,,,
,,,,,,,,,,stimuli/images/PICTURE_85.png,TOILET,5ef4948e17993d0424e13842,09/05/2002,2020-08-13_13h49.32.178,proactive2,2020.1.2,Win32,60,5f341be081b9052c55068110,5f353698c7567a4a28eef523,5,,,,,,diamond,,,,,,0,33,33,48,1,5,1,,,,,,,,,,,,,,,,,,,,,,,,,,,,,,,,,,,,,,,,,,,,,,,,,,,,,,,,,,,,,,,,,,,,,,,,,,,,,,,,,,,,,,,,,,,,,,,,,,,
,,,,,,,,,,stimuli/images/PICTURE_296.png,LOTS,5ef4948e17993d0424e13842,09/05/2002,2020-08-13_13h49.32.178,proactive2,2020.1.2,Win32,60,5f341be081b9052c55068110,5f353698c7567a4a28eef523,5,,,,,,bolt,,,,,,0,34,34,9,1,1,1,,,,,,,,,,,,,,,,,,,,,,,,,,,,,,,,,,,,,,,,,,,,,,,,,,,,,,,,,,,,,,,,,,,,,,,,,,,,,,,,,,,,,,,,,,,,,,,,,,,
,,,,,,,,,,stimuli/images/PICTURE_327.png,CASINO,5ef4948e17993d0424e13842,09/05/2002,2020-08-13_13h49.32.178,proactive2,2020.1.2,Win32,60,5f341be081b9052c55068110,5f353698c7567a4a28eef523,5,,,,,,helmet,,,,,,0,35,35,20,1,3,1,,,,,,,,,,,,,,,,,,,,,,,,,,,,,,,,,,,,,,,,,,,,,,,,,,,,,,,,,,,,,,,,,,,,,,,,,,,,,,,,,,,,,,,,,,,,,,,,,,,
,,,,,,,,,,stimuli/images/PICTURE_403.png,WRITER,5ef4948e17993d0424e13842,09/05/2002,2020-08-13_13h49.32.178,proactive2,2020.1.2,Win32,60,5f341be081b9052c55068110,5f353698c7567a4a28eef523,5,,,,,,cathedral,,,,,,0,36,36,31,1,4,1,,,,,,,,,,,,,,,,,,,,,,,,,,,,,,,,,,,,,,,,,,,,,,,,,,,,,,,,,,,,,,,,,,,,,,,,,,,,,,,,,,,,,,,,,,,,,,,,,,,
,,,,,,,,,,stimuli/images/PICTURE_685.png,PENNY,5ef4948e17993d0424e13842,09/05/2002,2020-08-13_13h49.32.178,proactive2,2020.1.2,Win32,60,5f341be081b9052c55068110,5f353698c7567a4a28eef523,5,,,,,,goose,,,,,,0,37,37,4,1,1,1,,,,,,,,,,,,,,,,,,,,,,,,,,,,,,,,,,,,,,,,,,,,,,,,,,,,,,,,,,,,,,,,,,,,,,,,,,,,,,,,,,,,,,,,,,,,,,,,,,,
,,,,,,,,,,stimuli/images/PICTURE_203.png,NIGHT,5ef4948e17993d0424e13842,09/05/2002,2020-08-13_13h49.32.178,proactive2,2020.1.2,Win32,60,5f341be081b9052c55068110,5f353698c7567a4a28eef523,5,,,,,,cap,,,,,,0,38,38,2,1,1,1,,,,,,,,,,,,,,,,,,,,,,,,,,,,,,,,,,,,,,,,,,,,,,,,,,,,,,,,,,,,,,,,,,,,,,,,,,,,,,,,,,,,,,,,,,,,,,,,,,,
,,,,,,,,,,stimuli/images/PICTURE_95.png,BOYS,5ef4948e17993d0424e13842,09/05/2002,2020-08-13_13h49.32.178,proactive2,2020.1.2,Win32,60,5f341be081b9052c55068110,5f353698c7567a4a28eef523,5,,,,,,suitcase,,,,,,0,39,39,1,1,1,1,,,,,,,,,,,,,,,,,,,,,,,,,,,,,,,,,,,,,,,,,,,,,,,,,,,,,,,,,,,,,,,,,,,,,,,,,,,,,,,,,,,,,,,,,,,,,,,,,,,
,,,,,,,,,,stimuli/images/PICTURE_403.png,TOILET,5ef4948e17993d0424e13842,09/05/2002,2020-08-13_13h49.32.178,proactive2,2020.1.2,Win32,60,5f341be081b9052c55068110,5f353698c7567a4a28eef523,5,,,,,,cathedral,,,,,,0,40,40,25,1,3,1,,,,,,,,,,,,,,,,,,,,,,,,,,,,,,,,,,,,,,,,,,,,,,,,,,,,,,,,,,,,,,,,,,,,,,,,,,,,,,,,,,,,,,,,,,,,,,,,,,,
,,,,,,,,,,stimuli/images/PICTURE_208.png,SYSTEM,5ef4948e17993d0424e13842,09/05/2002,2020-08-13_13h49.32.178,proactive2,2020.1.2,Win32,60,5f341be081b9052c55068110,5f353698c7567a4a28eef523,5,,,,,,microphone,,,,,,0,41,41,32,1,4,1,,,,,,,,,,,,,,,,,,,,,,,,,,,,,,,,,,,,,,,,,,,,,,,,,,,,,,,,,,,,,,,,,,,,,,,,,,,,,,,,,,,,,,,,,,,,,,,,,,,
,,,,,,,,,,stimuli/images/PICTURE_296.png,LIFE,5ef4948e17993d0424e13842,09/05/2002,2020-08-13_13h49.32.178,proactive2,2020.1.2,Win32,60,5f341be081b9052c55068110,5f353698c7567a4a28eef523,5,,,,,,bolt,,,,,,0,42,42,57,1,6,1,,,,,,,,,,,,,,,,,,,,,,,,,,,,,,,,,,,,,,,,,,,,,,,,,,,,,,,,,,,,,,,,,,,,,,,,,,,,,,,,,,,,,,,,,,,,,,,,,,,
,,,,,,,,,,stimuli/images/PICTURE_177.png,WRITER,5ef4948e17993d0424e13842,09/05/2002,2020-08-13_13h49.32.178,proactive2,2020.1.2,Win32,60,5f341be081b9052c55068110,5f353698c7567a4a28eef523,5,,,,,,mushroom,,,,,,0,43,43,41,1,5,1,,,,,,,,,,,,,,,,,,,,,,,,,,,,,,,,,,,,,,,,,,,,,,,,,,,,,,,,,,,,,,,,,,,,,,,,,,,,,,,,,,,,,,,,,,,,,,,,,,,
,,,,,,,,,,stimuli/images/PICTURE_85.png,NATION,5ef4948e17993d0424e13842,09/05/2002,2020-08-13_13h49.32.178,proactive2,2020.1.2,Win32,60,5f341be081b9052c55068110,5f353698c7567a4a28eef523,5,,,,,,diamond,,,,,,0,44,44,5,1,1,1,,,,,,,,,,,,,,,,,,,,,,,,,,,,,,,,,,,,,,,,,,,,,,,,,,,,,,,,,,,,,,,,,,,,,,,,,,,,,,,,,,,,,,,,,,,,,,,,,,,
,,,,,,,,,,stimuli/images/PICTURE_68.png,MILE,5ef4948e17993d0424e13842,09/05/2002,2020-08-13_13h49.32.178,proactive2,2020.1.2,Win32,60,5f341be081b9052c55068110,5f353698c7567a4a28eef523,5,,,,,,candle,,,,,,0,45,45,51,1,6,1,,,,,,,,,,,,,,,,,,,,,,,,,,,,,,,,,,,,,,,,,,,,,,,,,,,,,,,,,,,,,,,,,,,,,,,,,,,,,,,,,,,,,,,,,,,,,,,,,,,
,,,,,,,,,,stimuli/images/PICTURE_467.png,POLICY,5ef4948e17993d0424e13842,09/05/2002,2020-08-13_13h49.32.178,proactive2,2020.1.2,Win32,60,5f341be081b9052c55068110,5f353698c7567a4a28eef523,5,,,,,,peg,,,,,,0,46,46,53,1,6,1,,,,,,,,,,,,,,,,,,,,,,,,,,,,,,,,,,,,,,,,,,,,,,,,,,,,,,,,,,,,,,,,,,,,,,,,,,,,,,,,,,,,,,,,,,,,,,,,,,,
,,,,,,,,,,stimuli/images/PICTURE_327.png,SERIES,5ef4948e17993d0424e13842,09/05/2002,2020-08-13_13h49.32.178,proactive2,2020.1.2,Win32,60,5f341be081b9052c55068110,5f353698c7567a4a28eef523,5,,,,,,helmet,,,,,,0,47,47,3,1,1,1,,,,,,,,,,,,,,,,,,,,,,,,,,,,,,,,,,,,,,,,,,,,,,,,,,,,,,,,,,,,,,,,,,,,,,,,,,,,,,,,,,,,,,,,,,,,,,,,,,,
,,,,,,,,,,stimuli/images/PICTURE_504.png,COPS,5ef4948e17993d0424e13842,09/05/2002,2020-08-13_13h49.32.178,proactive2,2020.1.2,Win32,60,5f341be081b9052c55068110,5f353698c7567a4a28eef523,5,,,,,,wheel,,,,,,0,48,48,52,1,6,1,,,,,,,,,,,,,,,,,,,,,,,,,,,,,,,,,,,,,,,,,,,,,,,,,,,,,,,,,,,,,,,,,,,,,,,,,,,,,,,,,,,,,,,,,,,,,,,,,,,
,,,,,,,,,,stimuli/images/PICTURE_383.png,WRITER,5ef4948e17993d0424e13842,09/05/2002,2020-08-13_13h49.32.178,proactive2,2020.1.2,Win32,60,5f341be081b9052c55068110,5f353698c7567a4a28eef523,5,,,,,,coin,,,,,,0,49,49,28,1,3,1,,,,,,,,,,,,,,,,,,,,,,,,,,,,,,,,,,,,,,,,,,,,,,,,,,,,,,,,,,,,,,,,,,,,,,,,,,,,,,,,,,,,,,,,,,,,,,,,,,,
