consent_key.keys,consent_key.rt,recalled,recalled_rt,recall_acc,example_recall.thisRepN,example_recall.thisTrialN,example_recall.thisN,example_recall.thisIndex,example_recall.ran,file,word,participant,please enter your date of birth (dd/mm/yyyy),date,expName,psychopyVersion,OS,frameRate,STUDY_ID,SESSION_ID,list,prac_learn_study_loop.thisRepN,prac_learn_study_loop.thisTrialN,prac_learn_study_loop.thisN,prac_learn_study_loop.thisIndex,prac_learn_study_loop.ran,image,prac_learn_test_loop.thisRepN,prac_learn_test_loop.thisTrialN,prac_learn_test_loop.thisN,prac_learn_test_loop.thisIndex,prac_learn_test_loop.ran,learn_study_loop.thisRepN,learn_study_loop.thisTrialN,learn_study_loop.thisN,learn_study_loop.thisIndex,learn_study_loop.ran,list_no,block_no,learn_test_loop.thisRepN,learn_test_loop.thisTrialN,learn_test_loop.thisN,learn_test_loop.thisIndex,learn_test_loop.ran,learn_blocks.thisRepN,learn_blocks.thisTrialN,learn_blocks.thisN,learn_blocks.thisIndex,learn_blocks.ran,block_csv,key_resp_13.keys,key_resp_13.rt,learn_blocks_loop.thisRepN,learn_blocks_loop.thisTrialN,learn_blocks_loop.thisN,learn_blocks_loop.thisIndex,learn_blocks_loop.ran,final_learn_test.thisRepN,final_learn_test.thisTrialN,final_learn_test.thisN,final_learn_test.thisIndex,final_learn_test.ran,s_im1,s_im2,s_im3,s_im4,s_im5,s_im6,s_im7,s_im8,s_im1pos,s_im2pos,s_im3pos,s_im4pos,s_im5pos,s_im6pos,s_im7pos,s_im8pos,s_tarright,search_resp.keys,search_loop.thisRepN,search_loop.thisTrialN,search_loop.thisN,search_loop.thisIndex,search_loop.ran,search_resp.rt,prac_wm_test_loop.thisRepN,prac_wm_test_loop.thisTrialN,prac_wm_test_loop.thisN,prac_wm_test_loop.thisIndex,prac_wm_test_loop.ran,wm_recalled1,wm_recall_rt1,wm_probed1,wm_recall_acc1,wm_recalled2,wm_recall_rt2,wm_probed2,wm_recall_acc2,wm_recalled3,wm_recall_rt3,wm_probed3,wm_recall_acc3,wm_recalled4,wm_recall_rt4,wm_probed4,wm_recall_acc4,prac_wm_trial_loop.thisRepN,prac_wm_trial_loop.thisTrialN,prac_wm_trial_loop.thisN,prac_wm_trial_loop.thisIndex,prac_wm_trial_loop.ran,word1,image1,file1,item_type1,word2,image2,file2,item_type2,word4,image4,file4,item_type4,word3,image3,file3,item_type3,wm_test_loop.thisRepN,wm_test_loop.thisTrialN,wm_test_loop.thisN,wm_test_loop.thisIndex,wm_test_loop.ran,wm_trial_loop.thisRepN,wm_trial_loop.thisTrialN,wm_trial_loop.thisN,wm_trial_loop.thisIndex,wm_trial_loop.ran
y,26.095325,TOUGH,5.39685,1,0,0,0,0,1,stimuli/images/PICTURE_747.png,TOUGH,5f0550bf5819b18476ee8343,07/28/1955,2020-09-10_00h25.29.714,proactive2,2020.1.2,Win32,60,5f5126bb654d4b30ee6923d8,5f59aa5c573f0e20a8f49cfa,6,,,,,,,,,,,,,,,,,,,,,,,,,,,,,,,,,,,,,,,,,,,,,,,,,,,,,,,,,,,,,,,,,,,,,,,,,,,,,,,,,,,,,,,,,,,,,,,,,,,,,,,,,,,,,,,,,,,,,
,,,,,,,,,,stimuli/images/PICTURE_658.png,DEVIL,5f0550bf5819b18476ee8343,07/28/1955,2020-09-10_00h25.29.714,proactive2,2020.1.2,Win32,60,5f5126bb654d4b30ee6923d8,5f59aa5c573f0e20a8f49cfa,6,0,0,0,3,1,crow,,,,,,,,,,,,,,,,,,,,,,,,,,,,,,,,,,,,,,,,,,,,,,,,,,,,,,,,,,,,,,,,,,,,,,,,,,,,,,,,,,,,,,,,,,,,,,,,,,,,,,,,,,,,,,,
,,,,,,,,,,stimuli/images/PICTURE_727.png,CELL,5f0550bf5819b18476ee8343,07/28/1955,2020-09-10_00h25.29.714,proactive2,2020.1.2,Win32,60,5f5126bb654d4b30ee6923d8,5f59aa5c573f0e20a8f49cfa,6,0,1,1,1,1,hose,,,,,,,,,,,,,,,,,,,,,,,,,,,,,,,,,,,,,,,,,,,,,,,,,,,,,,,,,,,,,,,,,,,,,,,,,,,,,,,,,,,,,,,,,,,,,,,,,,,,,,,,,,,,,,,
,,,,,,,,,,stimuli/images/PICTURE_269.png,GENIUS,5f0550bf5819b18476ee8343,07/28/1955,2020-09-10_00h25.29.714,proactive2,2020.1.2,Win32,60,5f5126bb654d4b30ee6923d8,5f59aa5c573f0e20a8f49cfa,6,0,2,2,0,1,chameleon,,,,,,,,,,,,,,,,,,,,,,,,,,,,,,,,,,,,,,,,,,,,,,,,,,,,,,,,,,,,,,,,,,,,,,,,,,,,,,,,,,,,,,,,,,,,,,,,,,,,,,,,,,,,,,,
,,,,,,,,,,stimuli/images/PICTURE_378.png,LOSS,5f0550bf5819b18476ee8343,07/28/1955,2020-09-10_00h25.29.714,proactive2,2020.1.2,Win32,60,5f5126bb654d4b30ee6923d8,5f59aa5c573f0e20a8f49cfa,6,0,3,3,2,1,lobster,,,,,,,,,,,,,,,,,,,,,,,,,,,,,,,,,,,,,,,,,,,,,,,,,,,,,,,,,,,,,,,,,,,,,,,,,,,,,,,,,,,,,,,,,,,,,,,,,,,,,,,,,,,,,,,
,,CELL,4.3412,1,,,,,,stimuli/images/PICTURE_727.png,CELL,5f0550bf5819b18476ee8343,07/28/1955,2020-09-10_00h25.29.714,proactive2,2020.1.2,Win32,60,5f5126bb654d4b30ee6923d8,5f59aa5c573f0e20a8f49cfa,6,,,,,,hose,0,0,0,1,1,,,,,,,,,,,,,,,,,,,,,,,,,,,,,,,,,,,,,,,,,,,,,,,,,,,,,,,,,,,,,,,,,,,,,,,,,,,,,,,,,,,,,,,,,,,,,,,,,,,,,,,,,,
,,KILLER,3.547185,1,,,,,,stimuli/images/PICTURE_697.png,KILLER,5f0550bf5819b18476ee8343,07/28/1955,2020-09-10_00h25.29.714,proactive2,2020.1.2,Win32,60,5f5126bb654d4b30ee6923d8,5f59aa5c573f0e20a8f49cfa,6,,,,,,peach,0,1,1,4,1,,,,,,,,,,,,,,,,,,,,,,,,,,,,,,,,,,,,,,,,,,,,,,,,,,,,,,,,,,,,,,,,,,,,,,,,,,,,,,,,,,,,,,,,,,,,,,,,,,,,,,,,,,
,,LOSS,2.615535,1,,,,,,stimuli/images/PICTURE_378.png,LOSS,5f0550bf5819b18476ee8343,07/28/1955,2020-09-10_00h25.29.714,proactive2,2020.1.2,Win32,60,5f5126bb654d4b30ee6923d8,5f59aa5c573f0e20a8f49cfa,6,,,,,,lobster,0,2,2,2,1,,,,,,,,,,,,,,,,,,,,,,,,,,,,,,,,,,,,,,,,,,,,,,,,,,,,,,,,,,,,,,,,,,,,,,,,,,,,,,,,,,,,,,,,,,,,,,,,,,,,,,,,,,
,,DEATH,8.86399,0,,,,,,stimuli/images/PICTURE_658.png,DEVIL,5f0550bf5819b18476ee8343,07/28/1955,2020-09-10_00h25.29.714,proactive2,2020.1.2,Win32,60,5f5126bb654d4b30ee6923d8,5f59aa5c573f0e20a8f49cfa,6,,,,,,crow,0,3,3,3,1,,,,,,,,,,,,,,,,,,,,,,,,,,,,,,,,,,,,,,,,,,,,,,,,,,,,,,,,,,,,,,,,,,,,,,,,,,,,,,,,,,,,,,,,,,,,,,,,,,,,,,,,,,
,,BRAIN,4.61374,0,,,,,,stimuli/images/PICTURE_269.png,GENIUS,5f0550bf5819b18476ee8343,07/28/1955,2020-09-10_00h25.29.714,proactive2,2020.1.2,Win32,60,5f5126bb654d4b30ee6923d8,5f59aa5c573f0e20a8f49cfa,6,,,,,,chameleon,0,4,4,0,1,,,,,,,,,,,,,,,,,,,,,,,,,,,,,,,,,,,,,,,,,,,,,,,,,,,,,,,,,,,,,,,,,,,,,,,,,,,,,,,,,,,,,,,,,,,,,,,,,,,,,,,,,,
,,,,,,,,,,stimuli/images/PICTURE_405.png,YEAR,5f0550bf5819b18476ee8343,07/28/1955,2020-09-10_00h25.29.714,proactive2,2020.1.2,Win32,60,5f5126bb654d4b30ee6923d8,5f59aa5c573f0e20a8f49cfa,6,,,,,,anchor,,,,,,0,0,0,34,1,4,1,,,,,,,,,,,,,,,,,,,,,,,,,,,,,,,,,,,,,,,,,,,,,,,,,,,,,,,,,,,,,,,,,,,,,,,,,,,,,,,,,,,,,,,,,,,,,,,,,,,
,,,,,,,,,,stimuli/images/PICTURE_504.png,COPS,5f0550bf5819b18476ee8343,07/28/1955,2020-09-10_00h25.29.714,proactive2,2020.1.2,Win32,60,5f5126bb654d4b30ee6923d8,5f59aa5c573f0e20a8f49cfa,6,,,,,,wheel,,,,,,0,1,1,52,1,6,1,,,,,,,,,,,,,,,,,,,,,,,,,,,,,,,,,,,,,,,,,,,,,,,,,,,,,,,,,,,,,,,,,,,,,,,,,,,,,,,,,,,,,,,,,,,,,,,,,,,
,,,,,,,,,,stimuli/images/PICTURE_339.png,CLIENT,5f0550bf5819b18476ee8343,07/28/1955,2020-09-10_00h25.29.714,proactive2,2020.1.2,Win32,60,5f5126bb654d4b30ee6923d8,5f59aa5c573f0e20a8f49cfa,6,,,,,,backpack,,,,,,0,2,2,11,1,2,1,,,,,,,,,,,,,,,,,,,,,,,,,,,,,,,,,,,,,,,,,,,,,,,,,,,,,,,,,,,,,,,,,,,,,,,,,,,,,,,,,,,,,,,,,,,,,,,,,,,
,,,,,,,,,,stimuli/images/PICTURE_95.png,BOYS,5f0550bf5819b18476ee8343,07/28/1955,2020-09-10_00h25.29.714,proactive2,2020.1.2,Win32,60,5f5126bb654d4b30ee6923d8,5f59aa5c573f0e20a8f49cfa,6,,,,,,suitcase,,,,,,0,3,3,1,1,1,1,,,,,,,,,,,,,,,,,,,,,,,,,,,,,,,,,,,,,,,,,,,,,,,,,,,,,,,,,,,,,,,,,,,,,,,,,,,,,,,,,,,,,,,,,,,,,,,,,,,
,,,,,,,,,,stimuli/images/PICTURE_85.png,NATION,5f0550bf5819b18476ee8343,07/28/1955,2020-09-10_00h25.29.714,proactive2,2020.1.2,Win32,60,5f5126bb654d4b30ee6923d8,5f59aa5c573f0e20a8f49cfa,6,,,,,,diamond,,,,,,0,4,4,5,1,1,1,,,,,,,,,,,,,,,,,,,,,,,,,,,,,,,,,,,,,,,,,,,,,,,,,,,,,,,,,,,,,,,,,,,,,,,,,,,,,,,,,,,,,,,,,,,,,,,,,,,
,,,,,,,,,,stimuli/images/PICTURE_383.png,SERIES,5f0550bf5819b18476ee8343,07/28/1955,2020-09-10_00h25.29.714,proactive2,2020.1.2,Win32,60,5f5126bb654d4b30ee6923d8,5f59aa5c573f0e20a8f49cfa,6,,,,,,coin,,,,,,0,5,5,46,1,5,1,,,,,,,,,,,,,,,,,,,,,,,,,,,,,,,,,,,,,,,,,,,,,,,,,,,,,,,,,,,,,,,,,,,,,,,,,,,,,,,,,,,,,,,,,,,,,,,,,,,
,,,,,,,,,,stimuli/images/PICTURE_564.png,BATH,5f0550bf5819b18476ee8343,07/28/1955,2020-09-10_00h25.29.714,proactive2,2020.1.2,Win32,60,5f5126bb654d4b30ee6923d8,5f59aa5c573f0e20a8f49cfa,6,,,,,,spoon,,,,,,0,6,6,26,1,3,1,,,,,,,,,,,,,,,,,,,,,,,,,,,,,,,,,,,,,,,,,,,,,,,,,,,,,,,,,,,,,,,,,,,,,,,,,,,,,,,,,,,,,,,,,,,,,,,,,,,
,,,,,,,,,,stimuli/images/PICTURE_108.png,POLICY,5f0550bf5819b18476ee8343,07/28/1955,2020-09-10_00h25.29.714,proactive2,2020.1.2,Win32,60,5f5126bb654d4b30ee6923d8,5f59aa5c573f0e20a8f49cfa,6,,,,,,calendar,,,,,,0,7,7,22,1,3,1,,,,,,,,,,,,,,,,,,,,,,,,,,,,,,,,,,,,,,,,,,,,,,,,,,,,,,,,,,,,,,,,,,,,,,,,,,,,,,,,,,,,,,,,,,,,,,,,,,,
,,,,,,,,,,stimuli/images/PICTURE_42.png,BOYS,5f0550bf5819b18476ee8343,07/28/1955,2020-09-10_00h25.29.714,proactive2,2020.1.2,Win32,60,5f5126bb654d4b30ee6923d8,5f59aa5c573f0e20a8f49cfa,6,,,,,,pear,,,,,,0,8,8,55,1,6,1,,,,,,,,,,,,,,,,,,,,,,,,,,,,,,,,,,,,,,,,,,,,,,,,,,,,,,,,,,,,,,,,,,,,,,,,,,,,,,,,,,,,,,,,,,,,,,,,,,,
,,,,,,,,,,stimuli/images/PICTURE_177.png,WRITER,5f0550bf5819b18476ee8343,07/28/1955,2020-09-10_00h25.29.714,proactive2,2020.1.2,Win32,60,5f5126bb654d4b30ee6923d8,5f59aa5c573f0e20a8f49cfa,6,,,,,,mushroom,,,,,,0,9,9,41,1,5,1,,,,,,,,,,,,,,,,,,,,,,,,,,,,,,,,,,,,,,,,,,,,,,,,,,,,,,,,,,,,,,,,,,,,,,,,,,,,,,,,,,,,,,,,,,,,,,,,,,,
,,,,,,,,,,stimuli/images/PICTURE_203.png,NIGHT,5f0550bf5819b18476ee8343,07/28/1955,2020-09-10_00h25.29.714,proactive2,2020.1.2,Win32,60,5f5126bb654d4b30ee6923d8,5f59aa5c573f0e20a8f49cfa,6,,,,,,cap,,,,,,0,10,10,2,1,1,1,,,,,,,,,,,,,,,,,,,,,,,,,,,,,,,,,,,,,,,,,,,,,,,,,,,,,,,,,,,,,,,,,,,,,,,,,,,,,,,,,,,,,,,,,,,,,,,,,,,
,,,,,,,,,,stimuli/images/PICTURE_675.png,SALE,5f0550bf5819b18476ee8343,07/28/1955,2020-09-10_00h25.29.714,proactive2,2020.1.2,Win32,60,5f5126bb654d4b30ee6923d8,5f59aa5c573f0e20a8f49cfa,6,,,,,,windmill,,,,,,0,11,11,47,1,5,1,,,,,,,,,,,,,,,,,,,,,,,,,,,,,,,,,,,,,,,,,,,,,,,,,,,,,,,,,,,,,,,,,,,,,,,,,,,,,,,,,,,,,,,,,,,,,,,,,,,
,,,,,,,,,,stimuli/images/PICTURE_340.png,VALLEY,5f0550bf5819b18476ee8343,07/28/1955,2020-09-10_00h25.29.714,proactive2,2020.1.2,Win32,60,5f5126bb654d4b30ee6923d8,5f59aa5c573f0e20a8f49cfa,6,,,,,,mirror,,,,,,0,12,12,54,1,6,1,,,,,,,,,,,,,,,,,,,,,,,,,,,,,,,,,,,,,,,,,,,,,,,,,,,,,,,,,,,,,,,,,,,,,,,,,,,,,,,,,,,,,,,,,,,,,,,,,,,
,,,,,,,,,,stimuli/images/PICTURE_380.png,HONEY,5f0550bf5819b18476ee8343,07/28/1955,2020-09-10_00h25.29.714,proactive2,2020.1.2,Win32,60,5f5126bb654d4b30ee6923d8,5f59aa5c573f0e20a8f49cfa,6,,,,,,gorilla,,,,,,0,13,13,19,1,2,1,,,,,,,,,,,,,,,,,,,,,,,,,,,,,,,,,,,,,,,,,,,,,,,,,,,,,,,,,,,,,,,,,,,,,,,,,,,,,,,,,,,,,,,,,,,,,,,,,,,
,,,,,,,,,,stimuli/images/PICTURE_655.png,TOILET,5f0550bf5819b18476ee8343,07/28/1955,2020-09-10_00h25.29.714,proactive2,2020.1.2,Win32,60,5f5126bb654d4b30ee6923d8,5f59aa5c573f0e20a8f49cfa,6,,,,,,megaphone,,,,,,0,14,14,12,1,2,1,,,,,,,,,,,,,,,,,,,,,,,,,,,,,,,,,,,,,,,,,,,,,,,,,,,,,,,,,,,,,,,,,,,,,,,,,,,,,,,,,,,,,,,,,,,,,,,,,,,
,,,,,,,,,,stimuli/images/PICTURE_708.png,RECORD,5f0550bf5819b18476ee8343,07/28/1955,2020-09-10_00h25.29.714,proactive2,2020.1.2,Win32,60,5f5126bb654d4b30ee6923d8,5f59aa5c573f0e20a8f49cfa,6,,,,,,monkey,,,,,,0,15,15,58,1,6,1,,,,,,,,,,,,,,,,,,,,,,,,,,,,,,,,,,,,,,,,,,,,,,,,,,,,,,,,,,,,,,,,,,,,,,,,,,,,,,,,,,,,,,,,,,,,,,,,,,,
,,,,,,,,,,stimuli/images/PICTURE_108.png,FLIGHT,5f0550bf5819b18476ee8343,07/28/1955,2020-09-10_00h25.29.714,proactive2,2020.1.2,Win32,60,5f5126bb654d4b30ee6923d8,5f59aa5c573f0e20a8f49cfa,6,,,,,,calendar,,,,,,0,16,16,59,1,6,1,,,,,,,,,,,,,,,,,,,,,,,,,,,,,,,,,,,,,,,,,,,,,,,,,,,,,,,,,,,,,,,,,,,,,,,,,,,,,,,,,,,,,,,,,,,,,,,,,,,
,,,,,,,,,,stimuli/images/PICTURE_677.png,APPLE,5f0550bf5819b18476ee8343,07/28/1955,2020-09-10_00h25.29.714,proactive2,2020.1.2,Win32,60,5f5126bb654d4b30ee6923d8,5f59aa5c573f0e20a8f49cfa,6,,,,,,map,,,,,,0,17,17,43,1,5,1,,,,,,,,,,,,,,,,,,,,,,,,,,,,,,,,,,,,,,,,,,,,,,,,,,,,,,,,,,,,,,,,,,,,,,,,,,,,,,,,,,,,,,,,,,,,,,,,,,,
,,,,,,,,,,stimuli/images/PICTURE_403.png,RIVER,5f0550bf5819b18476ee8343,07/28/1955,2020-09-10_00h25.29.714,proactive2,2020.1.2,Win32,60,5f5126bb654d4b30ee6923d8,5f59aa5c573f0e20a8f49cfa,6,,,,,,cathedral,,,,,,0,18,18,40,1,5,1,,,,,,,,,,,,,,,,,,,,,,,,,,,,,,,,,,,,,,,,,,,,,,,,,,,,,,,,,,,,,,,,,,,,,,,,,,,,,,,,,,,,,,,,,,,,,,,,,,,
,,,,,,,,,,stimuli/images/PICTURE_147.png,YEAR,5f0550bf5819b18476ee8343,07/28/1955,2020-09-10_00h25.29.714,proactive2,2020.1.2,Win32,60,5f5126bb654d4b30ee6923d8,5f59aa5c573f0e20a8f49cfa,6,,,,,,hanger,,,,,,0,19,19,21,1,3,1,,,,,,,,,,,,,,,,,,,,,,,,,,,,,,,,,,,,,,,,,,,,,,,,,,,,,,,,,,,,,,,,,,,,,,,,,,,,,,,,,,,,,,,,,,,,,,,,,,,
,,,,,,,,,,stimuli/images/PICTURE_654.png,MONTH,5f0550bf5819b18476ee8343,07/28/1955,2020-09-10_00h25.29.714,proactive2,2020.1.2,Win32,60,5f5126bb654d4b30ee6923d8,5f59aa5c573f0e20a8f49cfa,6,,,,,,pencil,,,,,,0,20,20,29,1,3,1,,,,,,,,,,,,,,,,,,,,,,,,,,,,,,,,,,,,,,,,,,,,,,,,,,,,,,,,,,,,,,,,,,,,,,,,,,,,,,,,,,,,,,,,,,,,,,,,,,,
,,,,,,,,,,stimuli/images/PICTURE_95.png,HONEY,5f0550bf5819b18476ee8343,07/28/1955,2020-09-10_00h25.29.714,proactive2,2020.1.2,Win32,60,5f5126bb654d4b30ee6923d8,5f59aa5c573f0e20a8f49cfa,6,,,,,,suitcase,,,,,,0,21,21,44,1,5,1,,,,,,,,,,,,,,,,,,,,,,,,,,,,,,,,,,,,,,,,,,,,,,,,,,,,,,,,,,,,,,,,,,,,,,,,,,,,,,,,,,,,,,,,,,,,,,,,,,,
,,,,,,,,,,stimuli/images/PICTURE_504.png,ARTIST,5f0550bf5819b18476ee8343,07/28/1955,2020-09-10_00h25.29.714,proactive2,2020.1.2,Win32,60,5f5126bb654d4b30ee6923d8,5f59aa5c573f0e20a8f49cfa,6,,,,,,wheel,,,,,,0,22,22,49,1,5,1,,,,,,,,,,,,,,,,,,,,,,,,,,,,,,,,,,,,,,,,,,,,,,,,,,,,,,,,,,,,,,,,,,,,,,,,,,,,,,,,,,,,,,,,,,,,,,,,,,,
,,,,,,,,,,stimuli/images/PICTURE_85.png,TOILET,5f0550bf5819b18476ee8343,07/28/1955,2020-09-10_00h25.29.714,proactive2,2020.1.2,Win32,60,5f5126bb654d4b30ee6923d8,5f59aa5c573f0e20a8f49cfa,6,,,,,,diamond,,,,,,0,23,23,48,1,5,1,,,,,,,,,,,,,,,,,,,,,,,,,,,,,,,,,,,,,,,,,,,,,,,,,,,,,,,,,,,,,,,,,,,,,,,,,,,,,,,,,,,,,,,,,,,,,,,,,,,
,,,,,,,,,,stimuli/images/PICTURE_750.png,HOTEL,5f0550bf5819b18476ee8343,07/28/1955,2020-09-10_00h25.29.714,proactive2,2020.1.2,Win32,60,5f5126bb654d4b30ee6923d8,5f59aa5c573f0e20a8f49cfa,6,,,,,,kettle,,,,,,0,24,24,27,1,3,1,,,,,,,,,,,,,,,,,,,,,,,,,,,,,,,,,,,,,,,,,,,,,,,,,,,,,,,,,,,,,,,,,,,,,,,,,,,,,,,,,,,,,,,,,,,,,,,,,,,
,,,,,,,,,,stimuli/images/PICTURE_68.png,ROOF,5f0550bf5819b18476ee8343,07/28/1955,2020-09-10_00h25.29.714,proactive2,2020.1.2,Win32,60,5f5126bb654d4b30ee6923d8,5f59aa5c573f0e20a8f49cfa,6,,,,,,candle,,,,,,0,25,25,38,1,4,1,,,,,,,,,,,,,,,,,,,,,,,,,,,,,,,,,,,,,,,,,,,,,,,,,,,,,,,,,,,,,,,,,,,,,,,,,,,,,,,,,,,,,,,,,,,,,,,,,,,
,,,,,,,,,,stimuli/images/PICTURE_147.png,WOMEN,5f0550bf5819b18476ee8343,07/28/1955,2020-09-10_00h25.29.714,proactive2,2020.1.2,Win32,60,5f5126bb654d4b30ee6923d8,5f59aa5c573f0e20a8f49cfa,6,,,,,,hanger,,,,,,0,26,26,7,1,1,1,,,,,,,,,,,,,,,,,,,,,,,,,,,,,,,,,,,,,,,,,,,,,,,,,,,,,,,,,,,,,,,,,,,,,,,,,,,,,,,,,,,,,,,,,,,,,,,,,,,
,,,,,,,,,,stimuli/images/PICTURE_380.png,CANDY,5f0550bf5819b18476ee8343,07/28/1955,2020-09-10_00h25.29.714,proactive2,2020.1.2,Win32,60,5f5126bb654d4b30ee6923d8,5f59aa5c573f0e20a8f49cfa,6,,,,,,gorilla,,,,,,0,27,27,0,1,1,1,,,,,,,,,,,,,,,,,,,,,,,,,,,,,,,,,,,,,,,,,,,,,,,,,,,,,,,,,,,,,,,,,,,,,,,,,,,,,,,,,,,,,,,,,,,,,,,,,,,
,,,,,,,,,,stimuli/images/PICTURE_308.png,FAMILY,5f0550bf5819b18476ee8343,07/28/1955,2020-09-10_00h25.29.714,proactive2,2020.1.2,Win32,60,5f5126bb654d4b30ee6923d8,5f59aa5c573f0e20a8f49cfa,6,,,,,,dice,,,,,,0,28,28,36,1,4,1,,,,,,,,,,,,,,,,,,,,,,,,,,,,,,,,,,,,,,,,,,,,,,,,,,,,,,,,,,,,,,,,,,,,,,,,,,,,,,,,,,,,,,,,,,,,,,,,,,,
,,,,,,,,,,stimuli/images/PICTURE_296.png,LOTS,5f0550bf5819b18476ee8343,07/28/1955,2020-09-10_00h25.29.714,proactive2,2020.1.2,Win32,60,5f5126bb654d4b30ee6923d8,5f59aa5c573f0e20a8f49cfa,6,,,,,,bolt,,,,,,0,29,29,9,1,1,1,,,,,,,,,,,,,,,,,,,,,,,,,,,,,,,,,,,,,,,,,,,,,,,,,,,,,,,,,,,,,,,,,,,,,,,,,,,,,,,,,,,,,,,,,,,,,,,,,,,
,,,,,,,,,,stimuli/images/PICTURE_469.png,AGENT,5f0550bf5819b18476ee8343,07/28/1955,2020-09-10_00h25.29.714,proactive2,2020.1.2,Win32,60,5f5126bb654d4b30ee6923d8,5f59aa5c573f0e20a8f49cfa,6,,,,,,stool,,,,,,0,30,30,16,1,2,1,,,,,,,,,,,,,,,,,,,,,,,,,,,,,,,,,,,,,,,,,,,,,,,,,,,,,,,,,,,,,,,,,,,,,,,,,,,,,,,,,,,,,,,,,,,,,,,,,,,
,,,,,,,,,,stimuli/images/PICTURE_296.png,LIFE,5f0550bf5819b18476ee8343,07/28/1955,2020-09-10_00h25.29.714,proactive2,2020.1.2,Win32,60,5f5126bb654d4b30ee6923d8,5f59aa5c573f0e20a8f49cfa,6,,,,,,bolt,,,,,,0,31,31,57,1,6,1,,,,,,,,,,,,,,,,,,,,,,,,,,,,,,,,,,,,,,,,,,,,,,,,,,,,,,,,,,,,,,,,,,,,,,,,,,,,,,,,,,,,,,,,,,,,,,,,,,,
,,,,,,,,,,stimuli/images/PICTURE_685.png,PENNY,5f0550bf5819b18476ee8343,07/28/1955,2020-09-10_00h25.29.714,proactive2,2020.1.2,Win32,60,5f5126bb654d4b30ee6923d8,5f59aa5c573f0e20a8f49cfa,6,,,,,,goose,,,,,,0,32,32,4,1,1,1,,,,,,,,,,,,,,,,,,,,,,,,,,,,,,,,,,,,,,,,,,,,,,,,,,,,,,,,,,,,,,,,,,,,,,,,,,,,,,,,,,,,,,,,,,,,,,,,,,,
,,,,,,,,,,stimuli/images/PICTURE_32.png,PILLS,5f0550bf5819b18476ee8343,07/28/1955,2020-09-10_00h25.29.714,proactive2,2020.1.2,Win32,60,5f5126bb654d4b30ee6923d8,5f59aa5c573f0e20a8f49cfa,6,,,,,,crown,,,,,,0,33,33,18,1,2,1,,,,,,,,,,,,,,,,,,,,,,,,,,,,,,,,,,,,,,,,,,,,,,,,,,,,,,,,,,,,,,,,,,,,,,,,,,,,,,,,,,,,,,,,,,,,,,,,,,,
,,,,,,,,,,stimuli/images/PICTURE_68.png,MILE,5f0550bf5819b18476ee8343,07/28/1955,2020-09-10_00h25.29.714,proactive2,2020.1.2,Win32,60,5f5126bb654d4b30ee6923d8,5f59aa5c573f0e20a8f49cfa,6,,,,,,candle,,,,,,0,34,34,51,1,6,1,,,,,,,,,,,,,,,,,,,,,,,,,,,,,,,,,,,,,,,,,,,,,,,,,,,,,,,,,,,,,,,,,,,,,,,,,,,,,,,,,,,,,,,,,,,,,,,,,,,
,,,,,,,,,,stimuli/images/PICTURE_491.png,GLASS,5f0550bf5819b18476ee8343,07/28/1955,2020-09-10_00h25.29.714,proactive2,2020.1.2,Win32,60,5f5126bb654d4b30ee6923d8,5f59aa5c573f0e20a8f49cfa,6,,,,,,rug,,,,,,0,35,35,14,1,2,1,,,,,,,,,,,,,,,,,,,,,,,,,,,,,,,,,,,,,,,,,,,,,,,,,,,,,,,,,,,,,,,,,,,,,,,,,,,,,,,,,,,,,,,,,,,,,,,,,,,
,,,,,,,,,,stimuli/images/PICTURE_403.png,WRITER,5f0550bf5819b18476ee8343,07/28/1955,2020-09-10_00h25.29.714,proactive2,2020.1.2,Win32,60,5f5126bb654d4b30ee6923d8,5f59aa5c573f0e20a8f49cfa,6,,,,,,cathedral,,,,,,0,36,36,31,1,4,1,,,,,,,,,,,,,,,,,,,,,,,,,,,,,,,,,,,,,,,,,,,,,,,,,,,,,,,,,,,,,,,,,,,,,,,,,,,,,,,,,,,,,,,,,,,,,,,,,,,
,,,,,,,,,,stimuli/images/PICTURE_383.png,WRITER,5f0550bf5819b18476ee8343,07/28/1955,2020-09-10_00h25.29.714,proactive2,2020.1.2,Win32,60,5f5126bb654d4b30ee6923d8,5f59aa5c573f0e20a8f49cfa,6,,,,,,coin,,,,,,0,37,37,28,1,3,1,,,,,,,,,,,,,,,,,,,,,,,,,,,,,,,,,,,,,,,,,,,,,,,,,,,,,,,,,,,,,,,,,,,,,,,,,,,,,,,,,,,,,,,,,,,,,,,,,,,
,,,,,,,,,,stimuli/images/PICTURE_340.png,LETTER,5f0550bf5819b18476ee8343,07/28/1955,2020-09-10_00h25.29.714,proactive2,2020.1.2,Win32,60,5f5126bb654d4b30ee6923d8,5f59aa5c573f0e20a8f49cfa,6,,,,,,mirror,,,,,,0,38,38,24,1,3,1,,,,,,,,,,,,,,,,,,,,,,,,,,,,,,,,,,,,,,,,,,,,,,,,,,,,,,,,,,,,,,,,,,,,,,,,,,,,,,,,,,,,,,,,,,,,,,,,,,,
,,,,,,,,,,stimuli/images/PICTURE_57.png,MOMENT,5f0550bf5819b18476ee8343,07/28/1955,2020-09-10_00h25.29.714,proactive2,2020.1.2,Win32,60,5f5126bb654d4b30ee6923d8,5f59aa5c573f0e20a8f49cfa,6,,,,,,stamp,,,,,,0,39,39,37,1,4,1,,,,,,,,,,,,,,,,,,,,,,,,,,,,,,,,,,,,,,,,,,,,,,,,,,,,,,,,,,,,,,,,,,,,,,,,,,,,,,,,,,,,,,,,,,,,,,,,,,,
,,,,,,,,,,stimuli/images/PICTURE_33.png,FRIEND,5f0550bf5819b18476ee8343,07/28/1955,2020-09-10_00h25.29.714,proactive2,2020.1.2,Win32,60,5f5126bb654d4b30ee6923d8,5f59aa5c573f0e20a8f49cfa,6,,,,,,frame,,,,,,0,40,40,8,1,1,1,,,,,,,,,,,,,,,,,,,,,,,,,,,,,,,,,,,,,,,,,,,,,,,,,,,,,,,,,,,,,,,,,,,,,,,,,,,,,,,,,,,,,,,,,,,,,,,,,,,
,,,,,,,,,,stimuli/images/PICTURE_2.png,FLIGHT,5f0550bf5819b18476ee8343,07/28/1955,2020-09-10_00h25.29.714,proactive2,2020.1.2,Win32,60,5f5126bb654d4b30ee6923d8,5f59aa5c573f0e20a8f49cfa,6,,,,,,tyre,,,,,,0,41,41,15,1,2,1,,,,,,,,,,,,,,,,,,,,,,,,,,,,,,,,,,,,,,,,,,,,,,,,,,,,,,,,,,,,,,,,,,,,,,,,,,,,,,,,,,,,,,,,,,,,,,,,,,,
,,,,,,,,,,stimuli/images/PICTURE_667.png,RIVER,5f0550bf5819b18476ee8343,07/28/1955,2020-09-10_00h25.29.714,proactive2,2020.1.2,Win32,60,5f5126bb654d4b30ee6923d8,5f59aa5c573f0e20a8f49cfa,6,,,,,,daisy,,,,,,0,42,42,10,1,2,1,,,,,,,,,,,,,,,,,,,,,,,,,,,,,,,,,,,,,,,,,,,,,,,,,,,,,,,,,,,,,,,,,,,,,,,,,,,,,,,,,,,,,,,,,,,,,,,,,,,
,,,,,,,,,,stimuli/images/PICTURE_32.png,KIND,5f0550bf5819b18476ee8343,07/28/1955,2020-09-10_00h25.29.714,proactive2,2020.1.2,Win32,60,5f5126bb654d4b30ee6923d8,5f59aa5c573f0e20a8f49cfa,6,,,,,,crown,,,,,,0,43,43,35,1,4,1,,,,,,,,,,,,,,,,,,,,,,,,,,,,,,,,,,,,,,,,,,,,,,,,,,,,,,,,,,,,,,,,,,,,,,,,,,,,,,,,,,,,,,,,,,,,,,,,,,,
,,,,,,,,,,stimuli/images/PICTURE_744.png,WEAPON,5f0550bf5819b18476ee8343,07/28/1955,2020-09-10_00h25.29.714,proactive2,2020.1.2,Win32,60,5f5126bb654d4b30ee6923d8,5f59aa5c573f0e20a8f49cfa,6,,,,,,ring,,,,,,0,44,44,50,1,6,1,,,,,,,,,,,,,,,,,,,,,,,,,,,,,,,,,,,,,,,,,,,,,,,,,,,,,,,,,,,,,,,,,,,,,,,,,,,,,,,,,,,,,,,,,,,,,,,,,,,
,,,,,,,,,,stimuli/images/PICTURE_504.png,YEAR,5f0550bf5819b18476ee8343,07/28/1955,2020-09-10_00h25.29.714,proactive2,2020.1.2,Win32,60,5f5126bb654d4b30ee6923d8,5f59aa5c573f0e20a8f49cfa,6,,,,,,wheel,,,,,,0,45,45,13,1,2,1,,,,,,,,,,,,,,,,,,,,,,,,,,,,,,,,,,,,,,,,,,,,,,,,,,,,,,,,,,,,,,,,,,,,,,,,,,,,,,,,,,,,,,,,,,,,,,,,,,,
,,,,,,,,,,stimuli/images/PICTURE_203.png,GODS,5f0550bf5819b18476ee8343,07/28/1955,2020-09-10_00h25.29.714,proactive2,2020.1.2,Win32,60,5f5126bb654d4b30ee6923d8,5f59aa5c573f0e20a8f49cfa,6,,,,,,cap,,,,,,0,46,46,30,1,4,1,,,,,,,,,,,,,,,,,,,,,,,,,,,,,,,,,,,,,,,,,,,,,,,,,,,,,,,,,,,,,,,,,,,,,,,,,,,,,,,,,,,,,,,,,,,,,,,,,,,
,,,,,,,,,,stimuli/images/PICTURE_327.png,SERIES,5f0550bf5819b18476ee8343,07/28/1955,2020-09-10_00h25.29.714,proactive2,2020.1.2,Win32,60,5f5126bb654d4b30ee6923d8,5f59aa5c573f0e20a8f49cfa,6,,,,,,helmet,,,,,,0,47,47,3,1,1,1,,,,,,,,,,,,,,,,,,,,,,,,,,,,,,,,,,,,,,,,,,,,,,,,,,,,,,,,,,,,,,,,,,,,,,,,,,,,,,,,,,,,,,,,,,,,,,,,,,,
,,,,,,,,,,stimuli/images/PICTURE_297.png,RIVER,5f0550bf5819b18476ee8343,07/28/1955,2020-09-10_00h25.29.714,proactive2,2020.1.2,Win32,60,5f5126bb654d4b30ee6923d8,5f59aa5c573f0e20a8f49cfa,6,,,,,,aeroplane,,,,,,0,48,48,39,1,4,1,,,,,,,,,,,,,,,,,,,,,,,,,,,,,,,,,,,,,,,,,,,,,,,,,,,,,,,,,,,,,,,,,,,,,,,,,,,,,,,,,,,,,,,,,,,,,,,,,,,
,,,,,,,,,,stimuli/images/PICTURE_95.png,MILLER,5f0550bf5819b18476ee8343,07/28/1955,2020-09-10_00h25.29.714,proactive2,2020.1.2,Win32,60,5f5126bb654d4b30ee6923d8,5f59aa5c573f0e20a8f49cfa,6,,,,,,suitcase,,,,,,0,49,49,56,1,6,1,,,,,,,,,,,,,,,,,,,,,,,,,,,,,,,,,,,,,,,,,,,,,,,,,,,,,,,,,,,,,,,,,,,,,,,,,,,,,,,,,,,,,,,,,,,,,,,,,,,
,,,,,,,,,,stimuli/images/PICTURE_467.png,POLICY,5f0550bf5819b18476ee8343,07/28/1955,2020-09-10_00h25.29.714,proactive2,2020.1.2,Win32,60,5f5126bb654d4b30ee6923d8,5f59aa5c573f0e20a8f49cfa,6,,,,,,peg,,,,,,0,50,50,53,1,6,1,,,,,,,,,,,,,,,,,,,,,,,,,,,,,,,,,,,,,,,,,,,,,,,,,,,,,,,,,,,,,,,,,,,,,,,,,,,,,,,,,,,,,,,,,,,,,,,,,,,
,,,,,,,,,,stimuli/images/PICTURE_327.png,CASINO,5f0550bf5819b18476ee8343,07/28/1955,2020-09-10_00h25.29.714,proactive2,2020.1.2,Win32,60,5f5126bb654d4b30ee6923d8,5f59aa5c573f0e20a8f49cfa,6,,,,,,helmet,,,,,,0,51,51,20,1,3,1,,,,,,,,,,,,,,,,,,,,,,,,,,,,,,,,,,,,,,,,,,,,,,,,,,,,,,,,,,,,,,,,,,,,,,,,,,,,,,,,,,,,,,,,,,,,,,,,,,,
,,,,,,,,,,stimuli/images/PICTURE_285.png,LIFE,5f0550bf5819b18476ee8343,07/28/1955,2020-09-10_00h25.29.714,proactive2,2020.1.2,Win32,60,5f5126bb654d4b30ee6923d8,5f59aa5c573f0e20a8f49cfa,6,,,,,,carrot,,,,,,0,52,52,33,1,4,1,,,,,,,,,,,,,,,,,,,,,,,,,,,,,,,,,,,,,,,,,,,,,,,,,,,,,,,,,,,,,,,,,,,,,,,,,,,,,,,,,,,,,,,,,,,,,,,,,,,
,,,,,,,,,,stimuli/images/PICTURE_491.png,RIVER,5f0550bf5819b18476ee8343,07/28/1955,2020-09-10_00h25.29.714,proactive2,2020.1.2,Win32,60,5f5126bb654d4b30ee6923d8,5f59aa5c573f0e20a8f49cfa,6,,,,,,rug,,,,,,0,53,53,6,1,1,1,,,,,,,,,,,,,,,,,,,,,,,,,,,,,,,,,,,,,,,,,,,,,,,,,,,,,,,,,,,,,,,,,,,,,,,,,,,,,,,,,,,,,,,,,,,,,,,,,,,
,,,,,,,,,,stimuli/images/PICTURE_403.png,TOILET,5f0550bf5819b18476ee8343,07/28/1955,2020-09-10_00h25.29.714,proactive2,2020.1.2,Win32,60,5f5126bb654d4b30ee6923d8,5f59aa5c573f0e20a8f49cfa,6,,,,,,cathedral,,,,,,0,54,54,25,1,3,1,,,,,,,,,,,,,,,,,,,,,,,,,,,,,,,,,,,,,,,,,,,,,,,,,,,,,,,,,,,,,,,,,,,,,,,,,,,,,,,,,,,,,,,,,,,,,,,,,,,
,,,,,,,,,,stimuli/images/PICTURE_487.png,GIRL,5f0550bf5819b18476ee8343,07/28/1955,2020-09-10_00h25.29.714,proactive2,2020.1.2,Win32,60,5f5126bb654d4b30ee6923d8,5f59aa5c573f0e20a8f49cfa,6,,,,,,basket,,,,,,0,55,55,45,1,5,1,,,,,,,,,,,,,,,,,,,,,,,,,,,,,,,,,,,,,,,,,,,,,,,,,,,,,,,,,,,,,,,,,,,,,,,,,,,,,,,,,,,,,,,,,,,,,,,,,,,
,,,,,,,,,,stimuli/images/PICTURE_233.png,LOTS,5f0550bf5819b18476ee8343,07/28/1955,2020-09-10_00h25.29.714,proactive2,2020.1.2,Win32,60,5f5126bb654d4b30ee6923d8,5f59aa5c573f0e20a8f49cfa,6,,,,,,salt,,,,,,0,56,56,42,1,5,1,,,,,,,,,,,,,,,,,,,,,,,,,,,,,,,,,,,,,,,,,,,,,,,,,,,,,,,,,,,,,,,,,,,,,,,,,,,,,,,,,,,,,,,,,,,,,,,,,,,
,,,,,,,,,,stimuli/images/PICTURE_449.png,DUDE,5f0550bf5819b18476ee8343,07/28/1955,2020-09-10_00h25.29.714,proactive2,2020.1.2,Win32,60,5f5126bb654d4b30ee6923d8,5f59aa5c573f0e20a8f49cfa,6,,,,,,bench,,,,,,0,57,57,17,1,2,1,,,,,,,,,,,,,,,,,,,,,,,,,,,,,,,,,,,,,,,,,,,,,,,,,,,,,,,,,,,,,,,,,,,,,,,,,,,,,,,,,,,,,,,,,,,,,,,,,,,
,,,,,,,,,,stimuli/images/PICTURE_405.png,PLENTY,5f0550bf5819b18476ee8343,07/28/1955,2020-09-10_00h25.29.714,proactive2,2020.1.2,Win32,60,5f5126bb654d4b30ee6923d8,5f59aa5c573f0e20a8f49cfa,6,,,,,,anchor,,,,,,0,58,58,23,1,3,1,,,,,,,,,,,,,,,,,,,,,,,,,,,,,,,,,,,,,,,,,,,,,,,,,,,,,,,,,,,,,,,,,,,,,,,,,,,,,,,,,,,,,,,,,,,,,,,,,,,
,,?,0.001935,0,,,,,,stimuli/images/PICTURE_403.png,TOILET,5f0550bf5819b18476ee8343,07/28/1955,2020-09-10_00h25.29.714,proactive2,2020.1.2,Win32,60,5f5126bb654d4b30ee6923d8,5f59aa5c573f0e20a8f49cfa,6,,,,,,cathedral,,,,,,,,,,,3,1,0,0,0,25,1,,,,,,,,,,,,,,,,,,,,,,,,,,,,,,,,,,,,,,,,,,,,,,,,,,,,,,,,,,,,,,,,,,,,,,,,,,,,,,,,,,,,,,,,,,,,,,
,,?,0.001855,0,,,,,,stimuli/images/PICTURE_487.png,GIRL,5f0550bf5819b18476ee8343,07/28/1955,2020-09-10_00h25.29.714,proactive2,2020.1.2,Win32,60,5f5126bb654d4b30ee6923d8,5f59aa5c573f0e20a8f49cfa,6,,,,,,basket,,,,,,,,,,,5,1,0,1,1,45,1,,,,,,,,,,,,,,,,,,,,,,,,,,,,,,,,,,,,,,,,,,,,,,,,,,,,,,,,,,,,,,,,,,,,,,,,,,,,,,,,,,,,,,,,,,,,,,
,,?,0.0025,0,,,,,,stimuli/images/PICTURE_340.png,LETTER,5f0550bf5819b18476ee8343,07/28/1955,2020-09-10_00h25.29.714,proactive2,2020.1.2,Win32,60,5f5126bb654d4b30ee6923d8,5f59aa5c573f0e20a8f49cfa,6,,,,,,mirror,,,,,,,,,,,3,1,0,2,2,24,1,,,,,,,,,,,,,,,,,,,,,,,,,,,,,,,,,,,,,,,,,,,,,,,,,,,,,,,,,,,,,,,,,,,,,,,,,,,,,,,,,,,,,,,,,,,,,,
,,?,0.00105,0,,,,,,stimuli/images/PICTURE_677.png,APPLE,5f0550bf5819b18476ee8343,07/28/1955,2020-09-10_00h25.29.714,proactive2,2020.1.2,Win32,60,5f5126bb654d4b30ee6923d8,5f59aa5c573f0e20a8f49cfa,6,,,,,,map,,,,,,,,,,,5,1,0,3,3,43,1,,,,,,,,,,,,,,,,,,,,,,,,,,,,,,,,,,,,,,,,,,,,,,,,,,,,,,,,,,,,,,,,,,,,,,,,,,,,,,,,,,,,,,,,,,,,,,
,,?,0.00103,0,,,,,,stimuli/images/PICTURE_654.png,MONTH,5f0550bf5819b18476ee8343,07/28/1955,2020-09-10_00h25.29.714,proactive2,2020.1.2,Win32,60,5f5126bb654d4b30ee6923d8,5f59aa5c573f0e20a8f49cfa,6,,,,,,pencil,,,,,,,,,,,3,1,0,4,4,29,1,,,,,,,,,,,,,,,,,,,,,,,,,,,,,,,,,,,,,,,,,,,,,,,,,,,,,,,,,,,,,,,,,,,,,,,,,,,,,,,,,,,,,,,,,,,,,,
,,?,0.000965,0,,,,,,stimuli/images/PICTURE_296.png,LOTS,5f0550bf5819b18476ee8343,07/28/1955,2020-09-10_00h25.29.714,proactive2,2020.1.2,Win32,60,5f5126bb654d4b30ee6923d8,5f59aa5c573f0e20a8f49cfa,6,,,,,,bolt,,,,,,,,,,,1,1,0,5,5,9,1,,,,,,,,,,,,,,,,,,,,,,,,,,,,,,,,,,,,,,,,,,,,,,,,,,,,,,,,,,,,,,,,,,,,,,,,,,,,,,,,,,,,,,,,,,,,,,
,,?,0.00102,0,,,,,,stimuli/images/PICTURE_405.png,PLENTY,5f0550bf5819b18476ee8343,07/28/1955,2020-09-10_00h25.29.714,proactive2,2020.1.2,Win32,60,5f5126bb654d4b30ee6923d8,5f59aa5c573f0e20a8f49cfa,6,,,,,,anchor,,,,,,,,,,,3,1,0,6,6,23,1,,,,,,,,,,,,,,,,,,,,,,,,,,,,,,,,,,,,,,,,,,,,,,,,,,,,,,,,,,,,,,,,,,,,,,,,,,,,,,,,,,,,,,,,,,,,,,
,,?,0.00098,0,,,,,,stimuli/images/PICTURE_504.png,YEAR,5f0550bf5819b18476ee8343,07/28/1955,2020-09-10_00h25.29.714,proactive2,2020.1.2,Win32,60,5f5126bb654d4b30ee6923d8,5f59aa5c573f0e20a8f49cfa,6,,,,,,wheel,,,,,,,,,,,2,1,0,7,7,13,1,,,,,,,,,,,,,,,,,,,,,,,,,,,,,,,,,,,,,,,,,,,,,,,,,,,,,,,,,,,,,,,,,,,,,,,,,,,,,,,,,,,,,,,,,,,,,,
,,?,0.00106,0,,,,,,stimuli/images/PICTURE_285.png,LIFE,5f0550bf5819b18476ee8343,07/28/1955,2020-09-10_00h25.29.714,proactive2,2020.1.2,Win32,60,5f5126bb654d4b30ee6923d8,5f59aa5c573f0e20a8f49cfa,6,,,,,,carrot,,,,,,,,,,,4,1,0,8,8,33,1,,,,,,,,,,,,,,,,,,,,,,,,,,,,,,,,,,,,,,,,,,,,,,,,,,,,,,,,,,,,,,,,,,,,,,,,,,,,,,,,,,,,,,,,,,,,,,
,,?,0.002065,0,,,,,,stimuli/images/PICTURE_108.png,POLICY,5f0550bf5819b18476ee8343,07/28/1955,2020-09-10_00h25.29.714,proactive2,2020.1.2,Win32,60,5f5126bb654d4b30ee6923d8,5f59aa5c573f0e20a8f49cfa,6,,,,,,calendar,,,,,,,,,,,3,1,0,9,9,22,1,,,,,,,,,,,,,,,,,,,,,,,,,,,,,,,,,,,,,,,,,,,,,,,,,,,,,,,,,,,,,,,,,,,,,,,,,,,,,,,,,,,,,,,,,,,,,,
,,BOYS,4.01823,1,,,,,,stimuli/images/PICTURE_42.png,BOYS,5f0550bf5819b18476ee8343,07/28/1955,2020-09-10_00h25.29.714,proactive2,2020.1.2,Win32,60,5f5126bb654d4b30ee6923d8,5f59aa5c573f0e20a8f49cfa,6,,,,,,pear,,,,,,,,,,,6,1,0,10,10,55,1,,,,,,,,,,,,,,,,,,,,,,,,,,,,,,,,,,,,,,,,,,,,,,,,,,,,,,,,,,,,,,,,,,,,,,,,,,,,,,,,,,,,,,,,,,,,,,
,,?,0.00135,0,,,,,,stimuli/images/PICTURE_383.png,WRITER,5f0550bf5819b18476ee8343,07/28/1955,2020-09-10_00h25.29.714,proactive2,2020.1.2,Win32,60,5f5126bb654d4b30ee6923d8,5f59aa5c573f0e20a8f49cfa,6,,,,,,coin,,,,,,,,,,,3,1,0,11,11,28,1,,,,,,,,,,,,,,,,,,,,,,,,,,,,,,,,,,,,,,,,,,,,,,,,,,,,,,,,,,,,,,,,,,,,,,,,,,,,,,,,,,,,,,,,,,,,,,
,,?,0.001595,0,,,,,,stimuli/images/PICTURE_327.png,SERIES,5f0550bf5819b18476ee8343,07/28/1955,2020-09-10_00h25.29.714,proactive2,2020.1.2,Win32,60,5f5126bb654d4b30ee6923d8,5f59aa5c573f0e20a8f49cfa,6,,,,,,helmet,,,,,,,,,,,1,1,0,12,12,3,1,,,,,,,,,,,,,,,,,,,,,,,,,,,,,,,,,,,,,,,,,,,,,,,,,,,,,,,,,,,,,,,,,,,,,,,,,,,,,,,,,,,,,,,,,,,,,,
,,?,0.00134,0,,,,,,stimuli/images/PICTURE_68.png,ROOF,5f0550bf5819b18476ee8343,07/28/1955,2020-09-10_00h25.29.714,proactive2,2020.1.2,Win32,60,5f5126bb654d4b30ee6923d8,5f59aa5c573f0e20a8f49cfa,6,,,,,,candle,,,,,,,,,,,4,1,0,13,13,38,1,,,,,,,,,,,,,,,,,,,,,,,,,,,,,,,,,,,,,,,,,,,,,,,,,,,,,,,,,,,,,,,,,,,,,,,,,,,,,,,,,,,,,,,,,,,,,,
,,?,0.00115,0,,,,,,stimuli/images/PICTURE_2.png,FLIGHT,5f0550bf5819b18476ee8343,07/28/1955,2020-09-10_00h25.29.714,proactive2,2020.1.2,Win32,60,5f5126bb654d4b30ee6923d8,5f59aa5c573f0e20a8f49cfa,6,,,,,,tyre,,,,,,,,,,,2,1,0,14,14,15,1,,,,,,,,,,,,,,,,,,,,,,,,,,,,,,,,,,,,,,,,,,,,,,,,,,,,,,,,,,,,,,,,,,,,,,,,,,,,,,,,,,,,,,,,,,,,,,
,,?,0.00109,0,,,,,,stimuli/images/PICTURE_85.png,NATION,5f0550bf5819b18476ee8343,07/28/1955,2020-09-10_00h25.29.714,proactive2,2020.1.2,Win32,60,5f5126bb654d4b30ee6923d8,5f59aa5c573f0e20a8f49cfa,6,,,,,,diamond,,,,,,,,,,,1,1,0,15,15,5,1,,,,,,,,,,,,,,,,,,,,,,,,,,,,,,,,,,,,,,,,,,,,,,,,,,,,,,,,,,,,,,,,,,,,,,,,,,,,,,,,,,,,,,,,,,,,,,
,,?,0.0011,0,,,,,,stimuli/images/PICTURE_177.png,WRITER,5f0550bf5819b18476ee8343,07/28/1955,2020-09-10_00h25.29.714,proactive2,2020.1.2,Win32,60,5f5126bb654d4b30ee6923d8,5f59aa5c573f0e20a8f49cfa,6,,,,,,mushroom,,,,,,,,,,,5,1,0,16,16,41,1,,,,,,,,,,,,,,,,,,,,,,,,,,,,,,,,,,,,,,,,,,,,,,,,,,,,,,,,,,,,,,,,,,,,,,,,,,,,,,,,,,,,,,,,,,,,,,
,,DARK,9.11284,0,,,,,,stimuli/images/PICTURE_340.png,VALLEY,5f0550bf5819b18476ee8343,07/28/1955,2020-09-10_00h25.29.714,proactive2,2020.1.2,Win32,60,5f5126bb654d4b30ee6923d8,5f59aa5c573f0e20a8f49cfa,6,,,,,,mirror,,,,,,,,,,,6,1,0,17,17,54,1,,,,,,,,,,,,,,,,,,,,,,,,,,,,,,,,,,,,,,,,,,,,,,,,,,,,,,,,,,,,,,,,,,,,,,,,,,,,,,,,,,,,,,,,,,,,,,
,,PROCESS,11.46365,0,,,,,,stimuli/images/PICTURE_744.png,WEAPON,5f0550bf5819b18476ee8343,07/28/1955,2020-09-10_00h25.29.714,proactive2,2020.1.2,Win32,60,5f5126bb654d4b30ee6923d8,5f59aa5c573f0e20a8f49cfa,6,,,,,,ring,,,,,,,,,,,6,1,0,18,18,50,1,,,,,,,,,,,,,,,,,,,,,,,,,,,,,,,,,,,,,,,,,,,,,,,,,,,,,,,,,,,,,,,,,,,,,,,,,,,,,,,,,,,,,,,,,,,,,,
,,?,0.000935,0,,,,,,stimuli/images/PICTURE_95.png,HONEY,5f0550bf5819b18476ee8343,07/28/1955,2020-09-10_00h25.29.714,proactive2,2020.1.2,Win32,60,5f5126bb654d4b30ee6923d8,5f59aa5c573f0e20a8f49cfa,6,,,,,,suitcase,,,,,,,,,,,5,1,0,19,19,44,1,,,,,,,,,,,,,,,,,,,,,,,,,,,,,,,,,,,,,,,,,,,,,,,,,,,,,,,,,,,,,,,,,,,,,,,,,,,,,,,,,,,,,,,,,,,,,,
,,?,0.00057,0,,,,,,stimuli/images/PICTURE_449.png,DUDE,5f0550bf5819b18476ee8343,07/28/1955,2020-09-10_00h25.29.714,proactive2,2020.1.2,Win32,60,5f5126bb654d4b30ee6923d8,5f59aa5c573f0e20a8f49cfa,6,,,,,,bench,,,,,,,,,,,2,1,0,20,20,17,1,,,,,,,,,,,,,,,,,,,,,,,,,,,,,,,,,,,,,,,,,,,,,,,,,,,,,,,,,,,,,,,,,,,,,,,,,,,,,,,,,,,,,,,,,,,,,,
,,BONY,15.01278,0,,,,,,stimuli/images/PICTURE_708.png,RECORD,5f0550bf5819b18476ee8343,07/28/1955,2020-09-10_00h25.29.714,proactive2,2020.1.2,Win32,60,5f5126bb654d4b30ee6923d8,5f59aa5c573f0e20a8f49cfa,6,,,,,,monkey,,,,,,,,,,,6,1,0,21,21,58,1,,,,,,,,,,,,,,,,,,,,,,,,,,,,,,,,,,,,,,,,,,,,,,,,,,,,,,,,,,,,,,,,,,,,,,,,,,,,,,,,,,,,,,,,,,,,,,
,,?,0.001835,0,,,,,,stimuli/images/PICTURE_33.png,FRIEND,5f0550bf5819b18476ee8343,07/28/1955,2020-09-10_00h25.29.714,proactive2,2020.1.2,Win32,60,5f5126bb654d4b30ee6923d8,5f59aa5c573f0e20a8f49cfa,6,,,,,,frame,,,,,,,,,,,1,1,0,22,22,8,1,,,,,,,,,,,,,,,,,,,,,,,,,,,,,,,,,,,,,,,,,,,,,,,,,,,,,,,,,,,,,,,,,,,,,,,,,,,,,,,,,,,,,,,,,,,,,,
,,LIFE,3.393015,1,,,,,,stimuli/images/PICTURE_296.png,LIFE,5f0550bf5819b18476ee8343,07/28/1955,2020-09-10_00h25.29.714,proactive2,2020.1.2,Win32,60,5f5126bb654d4b30ee6923d8,5f59aa5c573f0e20a8f49cfa,6,,,,,,bolt,,,,,,,,,,,6,1,0,23,23,57,1,,,,,,,,,,,,,,,,,,,,,,,,,,,,,,,,,,,,,,,,,,,,,,,,,,,,,,,,,,,,,,,,,,,,,,,,,,,,,,,,,,,,,,,,,,,,,,
,,?,0.001935,0,,,,,,stimuli/images/PICTURE_655.png,TOILET,5f0550bf5819b18476ee8343,07/28/1955,2020-09-10_00h25.29.714,proactive2,2020.1.2,Win32,60,5f5126bb654d4b30ee6923d8,5f59aa5c573f0e20a8f49cfa,6,,,,,,megaphone,,,,,,,,,,,2,1,0,24,24,12,1,,,,,,,,,,,,,,,,,,,,,,,,,,,,,,,,,,,,,,,,,,,,,,,,,,,,,,,,,,,,,,,,,,,,,,,,,,,,,,,,,,,,,,,,,,,,,,
,,?,0.001545,0,,,,,,stimuli/images/PICTURE_147.png,WOMEN,5f0550bf5819b18476ee8343,07/28/1955,2020-09-10_00h25.29.714,proactive2,2020.1.2,Win32,60,5f5126bb654d4b30ee6923d8,5f59aa5c573f0e20a8f49cfa,6,,,,,,hanger,,,,,,,,,,,1,1,0,25,25,7,1,,,,,,,,,,,,,,,,,,,,,,,,,,,,,,,,,,,,,,,,,,,,,,,,,,,,,,,,,,,,,,,,,,,,,,,,,,,,,,,,,,,,,,,,,,,,,,
,,?,0.0016,0,,,,,,stimuli/images/PICTURE_95.png,BOYS,5f0550bf5819b18476ee8343,07/28/1955,2020-09-10_00h25.29.714,proactive2,2020.1.2,Win32,60,5f5126bb654d4b30ee6923d8,5f59aa5c573f0e20a8f49cfa,6,,,,,,suitcase,,,,,,,,,,,1,1,0,26,26,1,1,,,,,,,,,,,,,,,,,,,,,,,,,,,,,,,,,,,,,,,,,,,,,,,,,,,,,,,,,,,,,,,,,,,,,,,,,,,,,,,,,,,,,,,,,,,,,,
,,?,0.001485,0,,,,,,stimuli/images/PICTURE_405.png,YEAR,5f0550bf5819b18476ee8343,07/28/1955,2020-09-10_00h25.29.714,proactive2,2020.1.2,Win32,60,5f5126bb654d4b30ee6923d8,5f59aa5c573f0e20a8f49cfa,6,,,,,,anchor,,,,,,,,,,,4,1,0,27,27,34,1,,,,,,,,,,,,,,,,,,,,,,,,,,,,,,,,,,,,,,,,,,,,,,,,,,,,,,,,,,,,,,,,,,,,,,,,,,,,,,,,,,,,,,,,,,,,,,
,,?,0.00176,0,,,,,,stimuli/images/PICTURE_32.png,KIND,5f0550bf5819b18476ee8343,07/28/1955,2020-09-10_00h25.29.714,proactive2,2020.1.2,Win32,60,5f5126bb654d4b30ee6923d8,5f59aa5c573f0e20a8f49cfa,6,,,,,,crown,,,,,,,,,,,4,1,0,28,28,35,1,,,,,,,,,,,,,,,,,,,,,,,,,,,,,,,,,,,,,,,,,,,,,,,,,,,,,,,,,,,,,,,,,,,,,,,,,,,,,,,,,,,,,,,,,,,,,,
,,?,0.00139,0,,,,,,stimuli/images/PICTURE_675.png,SALE,5f0550bf5819b18476ee8343,07/28/1955,2020-09-10_00h25.29.714,proactive2,2020.1.2,Win32,60,5f5126bb654d4b30ee6923d8,5f59aa5c573f0e20a8f49cfa,6,,,,,,windmill,,,,,,,,,,,5,1,0,29,29,47,1,,,,,,,,,,,,,,,,,,,,,,,,,,,,,,,,,,,,,,,,,,,,,,,,,,,,,,,,,,,,,,,,,,,,,,,,,,,,,,,,,,,,,,,,,,,,,,
,,?,0.001165,0,,,,,,stimuli/images/PICTURE_208.png,SYSTEM,5f0550bf5819b18476ee8343,07/28/1955,2020-09-10_00h25.29.714,proactive2,2020.1.2,Win32,60,5f5126bb654d4b30ee6923d8,5f59aa5c573f0e20a8f49cfa,6,,,,,,microphone,,,,,,,,,,,4,1,0,30,30,32,1,,,,,,,,,,,,,,,,,,,,,,,,,,,,,,,,,,,,,,,,,,,,,,,,,,,,,,,,,,,,,,,,,,,,,,,,,,,,,,,,,,,,,,,,,,,,,,
,,?,0.00097,0,,,,,,stimuli/images/PICTURE_403.png,WRITER,5f0550bf5819b18476ee8343,07/28/1955,2020-09-10_00h25.29.714,proactive2,2020.1.2,Win32,60,5f5126bb654d4b30ee6923d8,5f59aa5c573f0e20a8f49cfa,6,,,,,,cathedral,,,,,,,,,,,4,1,0,31,31,31,1,,,,,,,,,,,,,,,,,,,,,,,,,,,,,,,,,,,,,,,,,,,,,,,,,,,,,,,,,,,,,,,,,,,,,,,,,,,,,,,,,,,,,,,,,,,,,,
,,?,0.000805,0,,,,,,stimuli/images/PICTURE_491.png,GLASS,5f0550bf5819b18476ee8343,07/28/1955,2020-09-10_00h25.29.714,proactive2,2020.1.2,Win32,60,5f5126bb654d4b30ee6923d8,5f59aa5c573f0e20a8f49cfa,6,,,,,,rug,,,,,,,,,,,2,1,0,32,32,14,1,,,,,,,,,,,,,,,,,,,,,,,,,,,,,,,,,,,,,,,,,,,,,,,,,,,,,,,,,,,,,,,,,,,,,,,,,,,,,,,,,,,,,,,,,,,,,,
,,FLIGHT,3.199175,1,,,,,,stimuli/images/PICTURE_108.png,FLIGHT,5f0550bf5819b18476ee8343,07/28/1955,2020-09-10_00h25.29.714,proactive2,2020.1.2,Win32,60,5f5126bb654d4b30ee6923d8,5f59aa5c573f0e20a8f49cfa,6,,,,,,calendar,,,,,,,,,,,6,1,0,33,33,59,1,,,,,,,,,,,,,,,,,,,,,,,,,,,,,,,,,,,,,,,,,,,,,,,,,,,,,,,,,,,,,,,,,,,,,,,,,,,,,,,,,,,,,,,,,,,,,,
,,?,0.002035,0,,,,,,stimuli/images/PICTURE_339.png,CLIENT,5f0550bf5819b18476ee8343,07/28/1955,2020-09-10_00h25.29.714,proactive2,2020.1.2,Win32,60,5f5126bb654d4b30ee6923d8,5f59aa5c573f0e20a8f49cfa,6,,,,,,backpack,,,,,,,,,,,2,1,0,34,34,11,1,,,,,,,,,,,,,,,,,,,,,,,,,,,,,,,,,,,,,,,,,,,,,,,,,,,,,,,,,,,,,,,,,,,,,,,,,,,,,,,,,,,,,,,,,,,,,,
,,?,0.001555,0,,,,,,stimuli/images/PICTURE_203.png,GODS,5f0550bf5819b18476ee8343,07/28/1955,2020-09-10_00h25.29.714,proactive2,2020.1.2,Win32,60,5f5126bb654d4b30ee6923d8,5f59aa5c573f0e20a8f49cfa,6,,,,,,cap,,,,,,,,,,,4,1,0,35,35,30,1,,,,,,,,,,,,,,,,,,,,,,,,,,,,,,,,,,,,,,,,,,,,,,,,,,,,,,,,,,,,,,,,,,,,,,,,,,,,,,,,,,,,,,,,,,,,,,
,,ENDS,14.305535,0,,,,,,stimuli/images/PICTURE_68.png,MILE,5f0550bf5819b18476ee8343,07/28/1955,2020-09-10_00h25.29.714,proactive2,2020.1.2,Win32,60,5f5126bb654d4b30ee6923d8,5f59aa5c573f0e20a8f49cfa,6,,,,,,candle,,,,,,,,,,,6,1,0,36,36,51,1,,,,,,,,,,,,,,,,,,,,,,,,,,,,,,,,,,,,,,,,,,,,,,,,,,,,,,,,,,,,,,,,,,,,,,,,,,,,,,,,,,,,,,,,,,,,,,
,,?,0.00282,0,,,,,,stimuli/images/PICTURE_203.png,NIGHT,5f0550bf5819b18476ee8343,07/28/1955,2020-09-10_00h25.29.714,proactive2,2020.1.2,Win32,60,5f5126bb654d4b30ee6923d8,5f59aa5c573f0e20a8f49cfa,6,,,,,,cap,,,,,,,,,,,1,1,0,37,37,2,1,,,,,,,,,,,,,,,,,,,,,,,,,,,,,,,,,,,,,,,,,,,,,,,,,,,,,,,,,,,,,,,,,,,,,,,,,,,,,,,,,,,,,,,,,,,,,,
,,?,0.00156,0,,,,,,stimuli/images/PICTURE_504.png,ARTIST,5f0550bf5819b18476ee8343,07/28/1955,2020-09-10_00h25.29.714,proactive2,2020.1.2,Win32,60,5f5126bb654d4b30ee6923d8,5f59aa5c573f0e20a8f49cfa,6,,,,,,wheel,,,,,,,,,,,5,1,0,38,38,49,1,,,,,,,,,,,,,,,,,,,,,,,,,,,,,,,,,,,,,,,,,,,,,,,,,,,,,,,,,,,,,,,,,,,,,,,,,,,,,,,,,,,,,,,,,,,,,,
,,?,0.00149,0,,,,,,stimuli/images/PICTURE_685.png,PENNY,5f0550bf5819b18476ee8343,07/28/1955,2020-09-10_00h25.29.714,proactive2,2020.1.2,Win32,60,5f5126bb654d4b30ee6923d8,5f59aa5c573f0e20a8f49cfa,6,,,,,,goose,,,,,,,,,,,1,1,0,39,39,4,1,,,,,,,,,,,,,,,,,,,,,,,,,,,,,,,,,,,,,,,,,,,,,,,,,,,,,,,,,,,,,,,,,,,,,,,,,,,,,,,,,,,,,,,,,,,,,,
,,COPS,6.73494,1,,,,,,stimuli/images/PICTURE_504.png,COPS,5f0550bf5819b18476ee8343,07/28/1955,2020-09-10_00h25.29.714,proactive2,2020.1.2,Win32,60,5f5126bb654d4b30ee6923d8,5f59aa5c573f0e20a8f49cfa,6,,,,,,wheel,,,,,,,,,,,6,1,0,40,40,52,1,,,,,,,,,,,,,,,,,,,,,,,,,,,,,,,,,,,,,,,,,,,,,,,,,,,,,,,,,,,,,,,,,,,,,,,,,,,,,,,,,,,,,,,,,,,,,,
,,?,0.001915,0,,,,,,stimuli/images/PICTURE_564.png,BATH,5f0550bf5819b18476ee8343,07/28/1955,2020-09-10_00h25.29.714,proactive2,2020.1.2,Win32,60,5f5126bb654d4b30ee6923d8,5f59aa5c573f0e20a8f49cfa,6,,,,,,spoon,,,,,,,,,,,3,1,0,41,41,26,1,,,,,,,,,,,,,,,,,,,,,,,,,,,,,,,,,,,,,,,,,,,,,,,,,,,,,,,,,,,,,,,,,,,,,,,,,,,,,,,,,,,,,,,,,,,,,,
,,MILLER,3.89297,1,,,,,,stimuli/images/PICTURE_95.png,MILLER,5f0550bf5819b18476ee8343,07/28/1955,2020-09-10_00h25.29.714,proactive2,2020.1.2,Win32,60,5f5126bb654d4b30ee6923d8,5f59aa5c573f0e20a8f49cfa,6,,,,,,suitcase,,,,,,,,,,,6,1,0,42,42,56,1,,,,,,,,,,,,,,,,,,,,,,,,,,,,,,,,,,,,,,,,,,,,,,,,,,,,,,,,,,,,,,,,,,,,,,,,,,,,,,,,,,,,,,,,,,,,,,
,,?,0.00071,0,,,,,,stimuli/images/PICTURE_85.png,TOILET,5f0550bf5819b18476ee8343,07/28/1955,2020-09-10_00h25.29.714,proactive2,2020.1.2,Win32,60,5f5126bb654d4b30ee6923d8,5f59aa5c573f0e20a8f49cfa,6,,,,,,diamond,,,,,,,,,,,5,1,0,43,43,48,1,,,,,,,,,,,,,,,,,,,,,,,,,,,,,,,,,,,,,,,,,,,,,,,,,,,,,,,,,,,,,,,,,,,,,,,,,,,,,,,,,,,,,,,,,,,,,,
,,?,0.000515,0,,,,,,stimuli/images/PICTURE_297.png,RIVER,5f0550bf5819b18476ee8343,07/28/1955,2020-09-10_00h25.29.714,proactive2,2020.1.2,Win32,60,5f5126bb654d4b30ee6923d8,5f59aa5c573f0e20a8f49cfa,6,,,,,,aeroplane,,,,,,,,,,,4,1,0,44,44,39,1,,,,,,,,,,,,,,,,,,,,,,,,,,,,,,,,,,,,,,,,,,,,,,,,,,,,,,,,,,,,,,,,,,,,,,,,,,,,,,,,,,,,,,,,,,,,,,
,,?,0.000545,0,,,,,,stimuli/images/PICTURE_308.png,FAMILY,5f0550bf5819b18476ee8343,07/28/1955,2020-09-10_00h25.29.714,proactive2,2020.1.2,Win32,60,5f5126bb654d4b30ee6923d8,5f59aa5c573f0e20a8f49cfa,6,,,,,,dice,,,,,,,,,,,4,1,0,45,45,36,1,,,,,,,,,,,,,,,,,,,,,,,,,,,,,,,,,,,,,,,,,,,,,,,,,,,,,,,,,,,,,,,,,,,,,,,,,,,,,,,,,,,,,,,,,,,,,,
,,?,0.00053,0,,,,,,stimuli/images/PICTURE_233.png,LOTS,5f0550bf5819b18476ee8343,07/28/1955,2020-09-10_00h25.29.714,proactive2,2020.1.2,Win32,60,5f5126bb654d4b30ee6923d8,5f59aa5c573f0e20a8f49cfa,6,,,,,,salt,,,,,,,,,,,5,1,0,46,46,42,1,,,,,,,,,,,,,,,,,,,,,,,,,,,,,,,,,,,,,,,,,,,,,,,,,,,,,,,,,,,,,,,,,,,,,,,,,,,,,,,,,,,,,,,,,,,,,,
,,?,0.000525,0,,,,,,stimuli/images/PICTURE_491.png,RIVER,5f0550bf5819b18476ee8343,07/28/1955,2020-09-10_00h25.29.714,proactive2,2020.1.2,Win32,60,5f5126bb654d4b30ee6923d8,5f59aa5c573f0e20a8f49cfa,6,,,,,,rug,,,,,,,,,,,1,1,0,47,47,6,1,,,,,,,,,,,,,,,,,,,,,,,,,,,,,,,,,,,,,,,,,,,,,,,,,,,,,,,,,,,,,,,,,,,,,,,,,,,,,,,,,,,,,,,,,,,,,,
,,?,0.000525,0,,,,,,stimuli/images/PICTURE_147.png,YEAR,5f0550bf5819b18476ee8343,07/28/1955,2020-09-10_00h25.29.714,proactive2,2020.1.2,Win32,60,5f5126bb654d4b30ee6923d8,5f59aa5c573f0e20a8f49cfa,6,,,,,,hanger,,,,,,,,,,,3,1,0,48,48,21,1,,,,,,,,,,,,,,,,,,,,,,,,,,,,,,,,,,,,,,,,,,,,,,,,,,,,,,,,,,,,,,,,,,,,,,,,,,,,,,,,,,,,,,,,,,,,,,
,,?,0.000515,0,,,,,,stimuli/images/PICTURE_32.png,PILLS,5f0550bf5819b18476ee8343,07/28/1955,2020-09-10_00h25.29.714,proactive2,2020.1.2,Win32,60,5f5126bb654d4b30ee6923d8,5f59aa5c573f0e20a8f49cfa,6,,,,,,crown,,,,,,,,,,,2,1,0,49,49,18,1,,,,,,,,,,,,,,,,,,,,,,,,,,,,,,,,,,,,,,,,,,,,,,,,,,,,,,,,,,,,,,,,,,,,,,,,,,,,,,,,,,,,,,,,,,,,,,
,,?,0.000575,0,,,,,,stimuli/images/PICTURE_383.png,SERIES,5f0550bf5819b18476ee8343,07/28/1955,2020-09-10_00h25.29.714,proactive2,2020.1.2,Win32,60,5f5126bb654d4b30ee6923d8,5f59aa5c573f0e20a8f49cfa,6,,,,,,coin,,,,,,,,,,,5,1,0,50,50,46,1,,,,,,,,,,,,,,,,,,,,,,,,,,,,,,,,,,,,,,,,,,,,,,,,,,,,,,,,,,,,,,,,,,,,,,,,,,,,,,,,,,,,,,,,,,,,,,
,,?,0.000635,0,,,,,,stimuli/images/PICTURE_667.png,RIVER,5f0550bf5819b18476ee8343,07/28/1955,2020-09-10_00h25.29.714,proactive2,2020.1.2,Win32,60,5f5126bb654d4b30ee6923d8,5f59aa5c573f0e20a8f49cfa,6,,,,,,daisy,,,,,,,,,,,2,1,0,51,51,10,1,,,,,,,,,,,,,,,,,,,,,,,,,,,,,,,,,,,,,,,,,,,,,,,,,,,,,,,,,,,,,,,,,,,,,,,,,,,,,,,,,,,,,,,,,,,,,,
,,?,0.00105,0,,,,,,stimuli/images/PICTURE_57.png,MOMENT,5f0550bf5819b18476ee8343,07/28/1955,2020-09-10_00h25.29.714,proactive2,2020.1.2,Win32,60,5f5126bb654d4b30ee6923d8,5f59aa5c573f0e20a8f49cfa,6,,,,,,stamp,,,,,,,,,,,4,1,0,52,52,37,1,,,,,,,,,,,,,,,,,,,,,,,,,,,,,,,,,,,,,,,,,,,,,,,,,,,,,,,,,,,,,,,,,,,,,,,,,,,,,,,,,,,,,,,,,,,,,,
,,?,0.00085,0,,,,,,stimuli/images/PICTURE_380.png,CANDY,5f0550bf5819b18476ee8343,07/28/1955,2020-09-10_00h25.29.714,proactive2,2020.1.2,Win32,60,5f5126bb654d4b30ee6923d8,5f59aa5c573f0e20a8f49cfa,6,,,,,,gorilla,,,,,,,,,,,1,1,0,53,53,0,1,,,,,,,,,,,,,,,,,,,,,,,,,,,,,,,,,,,,,,,,,,,,,,,,,,,,,,,,,,,,,,,,,,,,,,,,,,,,,,,,,,,,,,,,,,,,,,
,,?,0.00124,0,,,,,,stimuli/images/PICTURE_403.png,RIVER,5f0550bf5819b18476ee8343,07/28/1955,2020-09-10_00h25.29.714,proactive2,2020.1.2,Win32,60,5f5126bb654d4b30ee6923d8,5f59aa5c573f0e20a8f49cfa,6,,,,,,cathedral,,,,,,,,,,,5,1,0,54,54,40,1,,,,,,,,,,,,,,,,,,,,,,,,,,,,,,,,,,,,,,,,,,,,,,,,,,,,,,,,,,,,,,,,,,,,,,,,,,,,,,,,,,,,,,,,,,,,,,
,,?,0.00065,0,,,,,,stimuli/images/PICTURE_750.png,HOTEL,5f0550bf5819b18476ee8343,07/28/1955,2020-09-10_00h25.29.714,proactive2,2020.1.2,Win32,60,5f5126bb654d4b30ee6923d8,5f59aa5c573f0e20a8f49cfa,6,,,,,,kettle,,,,,,,,,,,3,1,0,55,55,27,1,,,,,,,,,,,,,,,,,,,,,,,,,,,,,,,,,,,,,,,,,,,,,,,,,,,,,,,,,,,,,,,,,,,,,,,,,,,,,,,,,,,,,,,,,,,,,,
,,?,0.00075,0,,,,,,stimuli/images/PICTURE_469.png,AGENT,5f0550bf5819b18476ee8343,07/28/1955,2020-09-10_00h25.29.714,proactive2,2020.1.2,Win32,60,5f5126bb654d4b30ee6923d8,5f59aa5c573f0e20a8f49cfa,6,,,,,,stool,,,,,,,,,,,2,1,0,56,56,16,1,,,,,,,,,,,,,,,,,,,,,,,,,,,,,,,,,,,,,,,,,,,,,,,,,,,,,,,,,,,,,,,,,,,,,,,,,,,,,,,,,,,,,,,,,,,,,,
,,?,0.00054,0,,,,,,stimuli/images/PICTURE_380.png,HONEY,5f0550bf5819b18476ee8343,07/28/1955,2020-09-10_00h25.29.714,proactive2,2020.1.2,Win32,60,5f5126bb654d4b30ee6923d8,5f59aa5c573f0e20a8f49cfa,6,,,,,,gorilla,,,,,,,,,,,2,1,0,57,57,19,1,,,,,,,,,,,,,,,,,,,,,,,,,,,,,,,,,,,,,,,,,,,,,,,,,,,,,,,,,,,,,,,,,,,,,,,,,,,,,,,,,,,,,,,,,,,,,,
,,?,0.0005,0,,,,,,stimuli/images/PICTURE_327.png,CASINO,5f0550bf5819b18476ee8343,07/28/1955,2020-09-10_00h25.29.714,proactive2,2020.1.2,Win32,60,5f5126bb654d4b30ee6923d8,5f59aa5c573f0e20a8f49cfa,6,,,,,,helmet,,,,,,,,,,,3,1,0,58,58,20,1,,,,,,,,,,,,,,,,,,,,,,,,,,,,,,,,,,,,,,,,,,,,,,,,,,,,,,,,,,,,,,,,,,,,,,,,,,,,,,,,,,,,,,,,,,,,,,
,,POLICY,6.256545,1,,,,,,stimuli/images/PICTURE_467.png,POLICY,5f0550bf5819b18476ee8343,07/28/1955,2020-09-10_00h25.29.714,proactive2,2020.1.2,Win32,60,5f5126bb654d4b30ee6923d8,5f59aa5c573f0e20a8f49cfa,6,,,,,,peg,,,,,,,,,,,6,1,0,59,59,53,1,,,,,,,,,,,,,,,,,,,,,,,,,,,,,,,,,,,,,,,,,,,,,,,,,,,,,,,,,,,,,,,,,,,,,,,,,,,,,,,,,,,,,,,,,,,,,,
,,,,,,,,,,,,5f0550bf5819b18476ee8343,07/28/1955,2020-09-10_00h25.29.714,proactive2,2020.1.2,Win32,60,5f5126bb654d4b30ee6923d8,5f59aa5c573f0e20a8f49cfa,6,,,,,,,,,,,,,,,,,,,,,,,,0,0,0,1,1,stimuli/learn-block2.csv,,,,,,,,,,,,,,,,,,,,,,,,,,,,,,,,,,,,,,,,,,,,,,,,,,,,,,,,,,,,,,,,,,,,,,,,,,,,,,,,,,,,,,,,
,,,,,,,,,,stimuli/images/PICTURE_509.png,BATH,5f0550bf5819b18476ee8343,07/28/1955,2020-09-10_00h25.29.714,proactive2,2020.1.2,Win32,60,5f5126bb654d4b30ee6923d8,5f59aa5c573f0e20a8f49cfa,6,,,,,,telephone,,,,,,0,0,0,15,1,2,2,,,,,,,,,,,,,,,,,,,,,,,,,,,,,,,,,,,,,,,,,,,,,,,,,,,,,,,,,,,,,,,,,,,,,,,,,,,,,,,,,,,,,,,,,,,,,,,,,,,
,,,,,,,,,,stimuli/images/PICTURE_285.png,WRITER,5f0550bf5819b18476ee8343,07/28/1955,2020-09-10_00h25.29.714,proactive2,2020.1.2,Win32,60,5f5126bb654d4b30ee6923d8,5f59aa5c573f0e20a8f49cfa,6,,,,,,carrot,,,,,,0,1,1,6,1,1,2,,,,,,,,,,,,,,,,,,,,,,,,,,,,,,,,,,,,,,,,,,,,,,,,,,,,,,,,,,,,,,,,,,,,,,,,,,,,,,,,,,,,,,,,,,,,,,,,,,,
,,,,,,,,,,stimuli/images/PICTURE_348.png,TOILET,5f0550bf5819b18476ee8343,07/28/1955,2020-09-10_00h25.29.714,proactive2,2020.1.2,Win32,60,5f5126bb654d4b30ee6923d8,5f59aa5c573f0e20a8f49cfa,6,,,,,,pepper,,,,,,0,2,2,4,1,1,2,,,,,,,,,,,,,,,,,,,,,,,,,,,,,,,,,,,,,,,,,,,,,,,,,,,,,,,,,,,,,,,,,,,,,,,,,,,,,,,,,,,,,,,,,,,,,,,,,,,
,,,,,,,,,,stimuli/images/PICTURE_2.png,YARD,5f0550bf5819b18476ee8343,07/28/1955,2020-09-10_00h25.29.714,proactive2,2020.1.2,Win32,60,5f5126bb654d4b30ee6923d8,5f59aa5c573f0e20a8f49cfa,6,,,,,,tyre,,,,,,0,3,3,55,1,6,2,,,,,,,,,,,,,,,,,,,,,,,,,,,,,,,,,,,,,,,,,,,,,,,,,,,,,,,,,,,,,,,,,,,,,,,,,,,,,,,,,,,,,,,,,,,,,,,,,,,
,,,,,,,,,,stimuli/images/PICTURE_141.png,CLIENT,5f0550bf5819b18476ee8343,07/28/1955,2020-09-10_00h25.29.714,proactive2,2020.1.2,Win32,60,5f5126bb654d4b30ee6923d8,5f59aa5c573f0e20a8f49cfa,6,,,,,,sunflower,,,,,,0,4,4,30,1,4,2,,,,,,,,,,,,,,,,,,,,,,,,,,,,,,,,,,,,,,,,,,,,,,,,,,,,,,,,,,,,,,,,,,,,,,,,,,,,,,,,,,,,,,,,,,,,,,,,,,,
,,,,,,,,,,stimuli/images/PICTURE_564.png,PLENTY,5f0550bf5819b18476ee8343,07/28/1955,2020-09-10_00h25.29.714,proactive2,2020.1.2,Win32,60,5f5126bb654d4b30ee6923d8,5f59aa5c573f0e20a8f49cfa,6,,,,,,spoon,,,,,,0,5,5,11,1,2,2,,,,,,,,,,,,,,,,,,,,,,,,,,,,,,,,,,,,,,,,,,,,,,,,,,,,,,,,,,,,,,,,,,,,,,,,,,,,,,,,,,,,,,,,,,,,,,,,,,,
,,,,,,,,,,stimuli/images/PICTURE_2.png,AREA,5f0550bf5819b18476ee8343,07/28/1955,2020-09-10_00h25.29.714,proactive2,2020.1.2,Win32,60,5f5126bb654d4b30ee6923d8,5f59aa5c573f0e20a8f49cfa,6,,,,,,tyre,,,,,,0,6,6,32,1,4,2,,,,,,,,,,,,,,,,,,,,,,,,,,,,,,,,,,,,,,,,,,,,,,,,,,,,,,,,,,,,,,,,,,,,,,,,,,,,,,,,,,,,,,,,,,,,,,,,,,,
,,,,,,,,,,stimuli/images/PICTURE_470.png,MOMENT,5f0550bf5819b18476ee8343,07/28/1955,2020-09-10_00h25.29.714,proactive2,2020.1.2,Win32,60,5f5126bb654d4b30ee6923d8,5f59aa5c573f0e20a8f49cfa,6,,,,,,motorbike,,,,,,0,7,7,40,1,5,2,,,,,,,,,,,,,,,,,,,,,,,,,,,,,,,,,,,,,,,,,,,,,,,,,,,,,,,,,,,,,,,,,,,,,,,,,,,,,,,,,,,,,,,,,,,,,,,,,,,
,,,,,,,,,,stimuli/images/PICTURE_93.png,GIRL,5f0550bf5819b18476ee8343,07/28/1955,2020-09-10_00h25.29.714,proactive2,2020.1.2,Win32,60,5f5126bb654d4b30ee6923d8,5f59aa5c573f0e20a8f49cfa,6,,,,,,skateboard,,,,,,0,8,8,31,1,4,2,,,,,,,,,,,,,,,,,,,,,,,,,,,,,,,,,,,,,,,,,,,,,,,,,,,,,,,,,,,,,,,,,,,,,,,,,,,,,,,,,,,,,,,,,,,,,,,,,,,
,,,,,,,,,,stimuli/images/PICTURE_255.png,PENNY,5f0550bf5819b18476ee8343,07/28/1955,2020-09-10_00h25.29.714,proactive2,2020.1.2,Win32,60,5f5126bb654d4b30ee6923d8,5f59aa5c573f0e20a8f49cfa,6,,,,,,shovel,,,,,,0,9,9,19,1,2,2,,,,,,,,,,,,,,,,,,,,,,,,,,,,,,,,,,,,,,,,,,,,,,,,,,,,,,,,,,,,,,,,,,,,,,,,,,,,,,,,,,,,,,,,,,,,,,,,,,,
,,,,,,,,,,stimuli/images/PICTURE_147.png,LEADER,5f0550bf5819b18476ee8343,07/28/1955,2020-09-10_00h25.29.714,proactive2,2020.1.2,Win32,60,5f5126bb654d4b30ee6923d8,5f59aa5c573f0e20a8f49cfa,6,,,,,,hanger,,,,,,0,10,10,33,1,4,2,,,,,,,,,,,,,,,,,,,,,,,,,,,,,,,,,,,,,,,,,,,,,,,,,,,,,,,,,,,,,,,,,,,,,,,,,,,,,,,,,,,,,,,,,,,,,,,,,,,
,,,,,,,,,,stimuli/images/PICTURE_57.png,CASINO,5f0550bf5819b18476ee8343,07/28/1955,2020-09-10_00h25.29.714,proactive2,2020.1.2,Win32,60,5f5126bb654d4b30ee6923d8,5f59aa5c573f0e20a8f49cfa,6,,,,,,stamp,,,,,,0,11,11,12,1,2,2,,,,,,,,,,,,,,,,,,,,,,,,,,,,,,,,,,,,,,,,,,,,,,,,,,,,,,,,,,,,,,,,,,,,,,,,,,,,,,,,,,,,,,,,,,,,,,,,,,,
,,,,,,,,,,stimuli/images/PICTURE_215.png,BOYS,5f0550bf5819b18476ee8343,07/28/1955,2020-09-10_00h25.29.714,proactive2,2020.1.2,Win32,60,5f5126bb654d4b30ee6923d8,5f59aa5c573f0e20a8f49cfa,6,,,,,,boot,,,,,,0,12,12,24,1,3,2,,,,,,,,,,,,,,,,,,,,,,,,,,,,,,,,,,,,,,,,,,,,,,,,,,,,,,,,,,,,,,,,,,,,,,,,,,,,,,,,,,,,,,,,,,,,,,,,,,,
,,,,,,,,,,stimuli/images/PICTURE_296.png,CLOCK,5f0550bf5819b18476ee8343,07/28/1955,2020-09-10_00h25.29.714,proactive2,2020.1.2,Win32,60,5f5126bb654d4b30ee6923d8,5f59aa5c573f0e20a8f49cfa,6,,,,,,bolt,,,,,,0,13,13,18,1,2,2,,,,,,,,,,,,,,,,,,,,,,,,,,,,,,,,,,,,,,,,,,,,,,,,,,,,,,,,,,,,,,,,,,,,,,,,,,,,,,,,,,,,,,,,,,,,,,,,,,,
,,,,,,,,,,stimuli/images/PICTURE_405.png,HOUSE,5f0550bf5819b18476ee8343,07/28/1955,2020-09-10_00h25.29.714,proactive2,2020.1.2,Win32,60,5f5126bb654d4b30ee6923d8,5f59aa5c573f0e20a8f49cfa,6,,,,,,anchor,,,,,,0,14,14,2,1,1,2,,,,,,,,,,,,,,,,,,,,,,,,,,,,,,,,,,,,,,,,,,,,,,,,,,,,,,,,,,,,,,,,,,,,,,,,,,,,,,,,,,,,,,,,,,,,,,,,,,,
,,,,,,,,,,stimuli/images/PICTURE_405.png,JUNGLE,5f0550bf5819b18476ee8343,07/28/1955,2020-09-10_00h25.29.714,proactive2,2020.1.2,Win32,60,5f5126bb654d4b30ee6923d8,5f59aa5c573f0e20a8f49cfa,6,,,,,,anchor,,,,,,0,15,15,13,1,2,2,,,,,,,,,,,,,,,,,,,,,,,,,,,,,,,,,,,,,,,,,,,,,,,,,,,,,,,,,,,,,,,,,,,,,,,,,,,,,,,,,,,,,,,,,,,,,,,,,,,
,,,,,,,,,,stimuli/images/PICTURE_403.png,FAMILY,5f0550bf5819b18476ee8343,07/28/1955,2020-09-10_00h25.29.714,proactive2,2020.1.2,Win32,60,5f5126bb654d4b30ee6923d8,5f59aa5c573f0e20a8f49cfa,6,,,,,,cathedral,,,,,,0,16,16,9,1,1,2,,,,,,,,,,,,,,,,,,,,,,,,,,,,,,,,,,,,,,,,,,,,,,,,,,,,,,,,,,,,,,,,,,,,,,,,,,,,,,,,,,,,,,,,,,,,,,,,,,,
,,,,,,,,,,stimuli/images/PICTURE_405.png,JUNGLE,5f0550bf5819b18476ee8343,07/28/1955,2020-09-10_00h25.29.714,proactive2,2020.1.2,Win32,60,5f5126bb654d4b30ee6923d8,5f59aa5c573f0e20a8f49cfa,6,,,,,,anchor,,,,,,0,17,17,58,1,6,2,,,,,,,,,,,,,,,,,,,,,,,,,,,,,,,,,,,,,,,,,,,,,,,,,,,,,,,,,,,,,,,,,,,,,,,,,,,,,,,,,,,,,,,,,,,,,,,,,,,
,,,,,,,,,,stimuli/images/PICTURE_654.png,YEAR,5f0550bf5819b18476ee8343,07/28/1955,2020-09-10_00h25.29.714,proactive2,2020.1.2,Win32,60,5f5126bb654d4b30ee6923d8,5f59aa5c573f0e20a8f49cfa,6,,,,,,pencil,,,,,,0,18,18,41,1,5,2,,,,,,,,,,,,,,,,,,,,,,,,,,,,,,,,,,,,,,,,,,,,,,,,,,,,,,,,,,,,,,,,,,,,,,,,,,,,,,,,,,,,,,,,,,,,,,,,,,,
,,,,,,,,,,stimuli/images/PICTURE_311.png,FLESH,5f0550bf5819b18476ee8343,07/28/1955,2020-09-10_00h25.29.714,proactive2,2020.1.2,Win32,60,5f5126bb654d4b30ee6923d8,5f59aa5c573f0e20a8f49cfa,6,,,,,,razor,,,,,,0,19,19,3,1,1,2,,,,,,,,,,,,,,,,,,,,,,,,,,,,,,,,,,,,,,,,,,,,,,,,,,,,,,,,,,,,,,,,,,,,,,,,,,,,,,,,,,,,,,,,,,,,,,,,,,,
,,,,,,,,,,stimuli/images/PICTURE_215.png,LEADER,5f0550bf5819b18476ee8343,07/28/1955,2020-09-10_00h25.29.714,proactive2,2020.1.2,Win32,60,5f5126bb654d4b30ee6923d8,5f59aa5c573f0e20a8f49cfa,6,,,,,,boot,,,,,,0,20,20,43,1,5,2,,,,,,,,,,,,,,,,,,,,,,,,,,,,,,,,,,,,,,,,,,,,,,,,,,,,,,,,,,,,,,,,,,,,,,,,,,,,,,,,,,,,,,,,,,,,,,,,,,,
,,,,,,,,,,stimuli/images/PICTURE_311.png,TOILET,5f0550bf5819b18476ee8343,07/28/1955,2020-09-10_00h25.29.714,proactive2,2020.1.2,Win32,60,5f5126bb654d4b30ee6923d8,5f59aa5c573f0e20a8f49cfa,6,,,,,,razor,,,,,,0,21,21,54,1,6,2,,,,,,,,,,,,,,,,,,,,,,,,,,,,,,,,,,,,,,,,,,,,,,,,,,,,,,,,,,,,,,,,,,,,,,,,,,,,,,,,,,,,,,,,,,,,,,,,,,,
,,,,,,,,,,stimuli/images/PICTURE_356.png,CANDY,5f0550bf5819b18476ee8343,07/28/1955,2020-09-10_00h25.29.714,proactive2,2020.1.2,Win32,60,5f5126bb654d4b30ee6923d8,5f59aa5c573f0e20a8f49cfa,6,,,,,,pawn,,,,,,0,22,22,46,1,5,2,,,,,,,,,,,,,,,,,,,,,,,,,,,,,,,,,,,,,,,,,,,,,,,,,,,,,,,,,,,,,,,,,,,,,,,,,,,,,,,,,,,,,,,,,,,,,,,,,,,
,,,,,,,,,,stimuli/images/PICTURE_33.png,COPS,5f0550bf5819b18476ee8343,07/28/1955,2020-09-10_00h25.29.714,proactive2,2020.1.2,Win32,60,5f5126bb654d4b30ee6923d8,5f59aa5c573f0e20a8f49cfa,6,,,,,,frame,,,,,,0,23,23,29,1,3,2,,,,,,,,,,,,,,,,,,,,,,,,,,,,,,,,,,,,,,,,,,,,,,,,,,,,,,,,,,,,,,,,,,,,,,,,,,,,,,,,,,,,,,,,,,,,,,,,,,,
,,,,,,,,,,stimuli/images/PICTURE_57.png,CANDY,5f0550bf5819b18476ee8343,07/28/1955,2020-09-10_00h25.29.714,proactive2,2020.1.2,Win32,60,5f5126bb654d4b30ee6923d8,5f59aa5c573f0e20a8f49cfa,6,,,,,,stamp,,,,,,0,24,24,52,1,6,2,,,,,,,,,,,,,,,,,,,,,,,,,,,,,,,,,,,,,,,,,,,,,,,,,,,,,,,,,,,,,,,,,,,,,,,,,,,,,,,,,,,,,,,,,,,,,,,,,,,
,,,,,,,,,,stimuli/images/PICTURE_487.png,ROOF,5f0550bf5819b18476ee8343,07/28/1955,2020-09-10_00h25.29.714,proactive2,2020.1.2,Win32,60,5f5126bb654d4b30ee6923d8,5f59aa5c573f0e20a8f49cfa,6,,,,,,basket,,,,,,0,25,25,50,1,6,2,,,,,,,,,,,,,,,,,,,,,,,,,,,,,,,,,,,,,,,,,,,,,,,,,,,,,,,,,,,,,,,,,,,,,,,,,,,,,,,,,,,,,,,,,,,,,,,,,,,
,,,,,,,,,,stimuli/images/PICTURE_750.png,POLICY,5f0550bf5819b18476ee8343,07/28/1955,2020-09-10_00h25.29.714,proactive2,2020.1.2,Win32,60,5f5126bb654d4b30ee6923d8,5f59aa5c573f0e20a8f49cfa,6,,,,,,kettle,,,,,,0,26,26,44,1,5,2,,,,,,,,,,,,,,,,,,,,,,,,,,,,,,,,,,,,,,,,,,,,,,,,,,,,,,,,,,,,,,,,,,,,,,,,,,,,,,,,,,,,,,,,,,,,,,,,,,,
,,,,,,,,,,stimuli/images/PICTURE_297.png,BODY,5f0550bf5819b18476ee8343,07/28/1955,2020-09-10_00h25.29.714,proactive2,2020.1.2,Win32,60,5f5126bb654d4b30ee6923d8,5f59aa5c573f0e20a8f49cfa,6,,,,,,aeroplane,,,,,,0,27,27,51,1,6,2,,,,,,,,,,,,,,,,,,,,,,,,,,,,,,,,,,,,,,,,,,,,,,,,,,,,,,,,,,,,,,,,,,,,,,,,,,,,,,,,,,,,,,,,,,,,,,,,,,,
,,,,,,,,,,stimuli/images/PICTURE_487.png,POLICY,5f0550bf5819b18476ee8343,07/28/1955,2020-09-10_00h25.29.714,proactive2,2020.1.2,Win32,60,5f5126bb654d4b30ee6923d8,5f59aa5c573f0e20a8f49cfa,6,,,,,,basket,,,,,,0,28,28,34,1,4,2,,,,,,,,,,,,,,,,,,,,,,,,,,,,,,,,,,,,,,,,,,,,,,,,,,,,,,,,,,,,,,,,,,,,,,,,,,,,,,,,,,,,,,,,,,,,,,,,,,,
,,,,,,,,,,stimuli/images/PICTURE_18.png,RIVER,5f0550bf5819b18476ee8343,07/28/1955,2020-09-10_00h25.29.714,proactive2,2020.1.2,Win32,60,5f5126bb654d4b30ee6923d8,5f59aa5c573f0e20a8f49cfa,6,,,,,,planet,,,,,,0,29,29,22,1,3,2,,,,,,,,,,,,,,,,,,,,,,,,,,,,,,,,,,,,,,,,,,,,,,,,,,,,,,,,,,,,,,,,,,,,,,,,,,,,,,,,,,,,,,,,,,,,,,,,,,,
,,,,,,,,,,stimuli/images/PICTURE_708.png,VALLEY,5f0550bf5819b18476ee8343,07/28/1955,2020-09-10_00h25.29.714,proactive2,2020.1.2,Win32,60,5f5126bb654d4b30ee6923d8,5f59aa5c573f0e20a8f49cfa,6,,,,,,monkey,,,,,,0,30,30,45,1,5,2,,,,,,,,,,,,,,,,,,,,,,,,,,,,,,,,,,,,,,,,,,,,,,,,,,,,,,,,,,,,,,,,,,,,,,,,,,,,,,,,,,,,,,,,,,,,,,,,,,,
,,,,,,,,,,stimuli/images/PICTURE_32.png,LETTER,5f0550bf5819b18476ee8343,07/28/1955,2020-09-10_00h25.29.714,proactive2,2020.1.2,Win32,60,5f5126bb654d4b30ee6923d8,5f59aa5c573f0e20a8f49cfa,6,,,,,,crown,,,,,,0,31,31,56,1,6,2,,,,,,,,,,,,,,,,,,,,,,,,,,,,,,,,,,,,,,,,,,,,,,,,,,,,,,,,,,,,,,,,,,,,,,,,,,,,,,,,,,,,,,,,,,,,,,,,,,,
,,,,,,,,,,stimuli/images/PICTURE_453.png,FAMILY,5f0550bf5819b18476ee8343,07/28/1955,2020-09-10_00h25.29.714,proactive2,2020.1.2,Win32,60,5f5126bb654d4b30ee6923d8,5f59aa5c573f0e20a8f49cfa,6,,,,,,scissors,,,,,,0,32,32,48,1,5,2,,,,,,,,,,,,,,,,,,,,,,,,,,,,,,,,,,,,,,,,,,,,,,,,,,,,,,,,,,,,,,,,,,,,,,,,,,,,,,,,,,,,,,,,,,,,,,,,,,,
,,,,,,,,,,stimuli/images/PICTURE_348.png,DUDE,5f0550bf5819b18476ee8343,07/28/1955,2020-09-10_00h25.29.714,proactive2,2020.1.2,Win32,60,5f5126bb654d4b30ee6923d8,5f59aa5c573f0e20a8f49cfa,6,,,,,,pepper,,,,,,0,33,33,59,1,6,2,,,,,,,,,,,,,,,,,,,,,,,,,,,,,,,,,,,,,,,,,,,,,,,,,,,,,,,,,,,,,,,,,,,,,,,,,,,,,,,,,,,,,,,,,,,,,,,,,,,
,,,,,,,,,,stimuli/images/PICTURE_667.png,GLASS,5f0550bf5819b18476ee8343,07/28/1955,2020-09-10_00h25.29.714,proactive2,2020.1.2,Win32,60,5f5126bb654d4b30ee6923d8,5f59aa5c573f0e20a8f49cfa,6,,,,,,daisy,,,,,,0,34,34,27,1,3,2,,,,,,,,,,,,,,,,,,,,,,,,,,,,,,,,,,,,,,,,,,,,,,,,,,,,,,,,,,,,,,,,,,,,,,,,,,,,,,,,,,,,,,,,,,,,,,,,,,,
,,,,,,,,,,stimuli/images/PICTURE_509.png,MILLER,5f0550bf5819b18476ee8343,07/28/1955,2020-09-10_00h25.29.714,proactive2,2020.1.2,Win32,60,5f5126bb654d4b30ee6923d8,5f59aa5c573f0e20a8f49cfa,6,,,,,,telephone,,,,,,0,35,35,49,1,5,2,,,,,,,,,,,,,,,,,,,,,,,,,,,,,,,,,,,,,,,,,,,,,,,,,,,,,,,,,,,,,,,,,,,,,,,,,,,,,,,,,,,,,,,,,,,,,,,,,,,
,,,,,,,,,,stimuli/images/PICTURE_314.png,SPEECH,5f0550bf5819b18476ee8343,07/28/1955,2020-09-10_00h25.29.714,proactive2,2020.1.2,Win32,60,5f5126bb654d4b30ee6923d8,5f59aa5c573f0e20a8f49cfa,6,,,,,,perfume,,,,,,0,36,36,35,1,4,2,,,,,,,,,,,,,,,,,,,,,,,,,,,,,,,,,,,,,,,,,,,,,,,,,,,,,,,,,,,,,,,,,,,,,,,,,,,,,,,,,,,,,,,,,,,,,,,,,,,
,,,,,,,,,,stimuli/images/PICTURE_215.png,FOOD,5f0550bf5819b18476ee8343,07/28/1955,2020-09-10_00h25.29.714,proactive2,2020.1.2,Win32,60,5f5126bb654d4b30ee6923d8,5f59aa5c573f0e20a8f49cfa,6,,,,,,boot,,,,,,0,37,37,5,1,1,2,,,,,,,,,,,,,,,,,,,,,,,,,,,,,,,,,,,,,,,,,,,,,,,,,,,,,,,,,,,,,,,,,,,,,,,,,,,,,,,,,,,,,,,,,,,,,,,,,,,
,,,,,,,,,,stimuli/images/PICTURE_677.png,PHOTO,5f0550bf5819b18476ee8343,07/28/1955,2020-09-10_00h25.29.714,proactive2,2020.1.2,Win32,60,5f5126bb654d4b30ee6923d8,5f59aa5c573f0e20a8f49cfa,6,,,,,,map,,,,,,0,38,38,14,1,2,2,,,,,,,,,,,,,,,,,,,,,,,,,,,,,,,,,,,,,,,,,,,,,,,,,,,,,,,,,,,,,,,,,,,,,,,,,,,,,,,,,,,,,,,,,,,,,,,,,,,
,,,,,,,,,,stimuli/images/PICTURE_327.png,LEADER,5f0550bf5819b18476ee8343,07/28/1955,2020-09-10_00h25.29.714,proactive2,2020.1.2,Win32,60,5f5126bb654d4b30ee6923d8,5f59aa5c573f0e20a8f49cfa,6,,,,,,helmet,,,,,,0,39,39,17,1,2,2,,,,,,,,,,,,,,,,,,,,,,,,,,,,,,,,,,,,,,,,,,,,,,,,,,,,,,,,,,,,,,,,,,,,,,,,,,,,,,,,,,,,,,,,,,,,,,,,,,,
,,,,,,,,,,stimuli/images/PICTURE_452.png,COPS,5f0550bf5819b18476ee8343,07/28/1955,2020-09-10_00h25.29.714,proactive2,2020.1.2,Win32,60,5f5126bb654d4b30ee6923d8,5f59aa5c573f0e20a8f49cfa,6,,,,,,watch,,,,,,0,40,40,0,1,1,2,,,,,,,,,,,,,,,,,,,,,,,,,,,,,,,,,,,,,,,,,,,,,,,,,,,,,,,,,,,,,,,,,,,,,,,,,,,,,,,,,,,,,,,,,,,,,,,,,,,
,,,,,,,,,,stimuli/images/PICTURE_688.png,CLOCK,5f0550bf5819b18476ee8343,07/28/1955,2020-09-10_00h25.29.714,proactive2,2020.1.2,Win32,60,5f5126bb654d4b30ee6923d8,5f59aa5c573f0e20a8f49cfa,6,,,,,,runner,,,,,,0,41,41,42,1,5,2,,,,,,,,,,,,,,,,,,,,,,,,,,,,,,,,,,,,,,,,,,,,,,,,,,,,,,,,,,,,,,,,,,,,,,,,,,,,,,,,,,,,,,,,,,,,,,,,,,,
,,,,,,,,,,stimuli/images/PICTURE_491.png,SERIES,5f0550bf5819b18476ee8343,07/28/1955,2020-09-10_00h25.29.714,proactive2,2020.1.2,Win32,60,5f5126bb654d4b30ee6923d8,5f59aa5c573f0e20a8f49cfa,6,,,,,,rug,,,,,,0,42,42,39,1,4,2,,,,,,,,,,,,,,,,,,,,,,,,,,,,,,,,,,,,,,,,,,,,,,,,,,,,,,,,,,,,,,,,,,,,,,,,,,,,,,,,,,,,,,,,,,,,,,,,,,,
,,,,,,,,,,stimuli/images/PICTURE_509.png,APPLE,5f0550bf5819b18476ee8343,07/28/1955,2020-09-10_00h25.29.714,proactive2,2020.1.2,Win32,60,5f5126bb654d4b30ee6923d8,5f59aa5c573f0e20a8f49cfa,6,,,,,,telephone,,,,,,0,43,43,38,1,4,2,,,,,,,,,,,,,,,,,,,,,,,,,,,,,,,,,,,,,,,,,,,,,,,,,,,,,,,,,,,,,,,,,,,,,,,,,,,,,,,,,,,,,,,,,,,,,,,,,,,
,,,,,,,,,,stimuli/images/PICTURE_654.png,COPS,5f0550bf5819b18476ee8343,07/28/1955,2020-09-10_00h25.29.714,proactive2,2020.1.2,Win32,60,5f5126bb654d4b30ee6923d8,5f59aa5c573f0e20a8f49cfa,6,,,,,,pencil,,,,,,0,44,44,10,1,2,2,,,,,,,,,,,,,,,,,,,,,,,,,,,,,,,,,,,,,,,,,,,,,,,,,,,,,,,,,,,,,,,,,,,,,,,,,,,,,,,,,,,,,,,,,,,,,,,,,,,
,,,,,,,,,,stimuli/images/PICTURE_57.png,NATION,5f0550bf5819b18476ee8343,07/28/1955,2020-09-10_00h25.29.714,proactive2,2020.1.2,Win32,60,5f5126bb654d4b30ee6923d8,5f59aa5c573f0e20a8f49cfa,6,,,,,,stamp,,,,,,0,45,45,21,1,3,2,,,,,,,,,,,,,,,,,,,,,,,,,,,,,,,,,,,,,,,,,,,,,,,,,,,,,,,,,,,,,,,,,,,,,,,,,,,,,,,,,,,,,,,,,,,,,,,,,,,
,,,,,,,,,,stimuli/images/PICTURE_285.png,PRINCE,5f0550bf5819b18476ee8343,07/28/1955,2020-09-10_00h25.29.714,proactive2,2020.1.2,Win32,60,5f5126bb654d4b30ee6923d8,5f59aa5c573f0e20a8f49cfa,6,,,,,,carrot,,,,,,0,46,46,20,1,3,2,,,,,,,,,,,,,,,,,,,,,,,,,,,,,,,,,,,,,,,,,,,,,,,,,,,,,,,,,,,,,,,,,,,,,,,,,,,,,,,,,,,,,,,,,,,,,,,,,,,
,,,,,,,,,,stimuli/images/PICTURE_504.png,HOUSE,5f0550bf5819b18476ee8343,07/28/1955,2020-09-10_00h25.29.714,proactive2,2020.1.2,Win32,60,5f5126bb654d4b30ee6923d8,5f59aa5c573f0e20a8f49cfa,6,,,,,,wheel,,,,,,0,47,47,36,1,4,2,,,,,,,,,,,,,,,,,,,,,,,,,,,,,,,,,,,,,,,,,,,,,,,,,,,,,,,,,,,,,,,,,,,,,,,,,,,,,,,,,,,,,,,,,,,,,,,,,,,
,,,,,,,,,,stimuli/images/PICTURE_692.png,DUDE,5f0550bf5819b18476ee8343,07/28/1955,2020-09-10_00h25.29.714,proactive2,2020.1.2,Win32,60,5f5126bb654d4b30ee6923d8,5f59aa5c573f0e20a8f49cfa,6,,,,,,cherry,,,,,,0,48,48,47,1,5,2,,,,,,,,,,,,,,,,,,,,,,,,,,,,,,,,,,,,,,,,,,,,,,,,,,,,,,,,,,,,,,,,,,,,,,,,,,,,,,,,,,,,,,,,,,,,,,,,,,,
,,,,,,,,,,stimuli/images/PICTURE_655.png,SALE,5f0550bf5819b18476ee8343,07/28/1955,2020-09-10_00h25.29.714,proactive2,2020.1.2,Win32,60,5f5126bb654d4b30ee6923d8,5f59aa5c573f0e20a8f49cfa,6,,,,,,megaphone,,,,,,0,49,49,57,1,6,2,,,,,,,,,,,,,,,,,,,,,,,,,,,,,,,,,,,,,,,,,,,,,,,,,,,,,,,,,,,,,,,,,,,,,,,,,,,,,,,,,,,,,,,,,,,,,,,,,,,
,,,,,,,,,,stimuli/images/PICTURE_509.png,SHOTS,5f0550bf5819b18476ee8343,07/28/1955,2020-09-10_00h25.29.714,proactive2,2020.1.2,Win32,60,5f5126bb654d4b30ee6923d8,5f59aa5c573f0e20a8f49cfa,6,,,,,,telephone,,,,,,0,50,50,7,1,1,2,,,,,,,,,,,,,,,,,,,,,,,,,,,,,,,,,,,,,,,,,,,,,,,,,,,,,,,,,,,,,,,,,,,,,,,,,,,,,,,,,,,,,,,,,,,,,,,,,,,
,,,,,,,,,,stimuli/images/PICTURE_177.png,HOUSE,5f0550bf5819b18476ee8343,07/28/1955,2020-09-10_00h25.29.714,proactive2,2020.1.2,Win32,60,5f5126bb654d4b30ee6923d8,5f59aa5c573f0e20a8f49cfa,6,,,,,,mushroom,,,,,,0,51,51,25,1,3,2,,,,,,,,,,,,,,,,,,,,,,,,,,,,,,,,,,,,,,,,,,,,,,,,,,,,,,,,,,,,,,,,,,,,,,,,,,,,,,,,,,,,,,,,,,,,,,,,,,,
,,,,,,,,,,stimuli/images/PICTURE_677.png,FAMILY,5f0550bf5819b18476ee8343,07/28/1955,2020-09-10_00h25.29.714,proactive2,2020.1.2,Win32,60,5f5126bb654d4b30ee6923d8,5f59aa5c573f0e20a8f49cfa,6,,,,,,map,,,,,,0,52,52,53,1,6,2,,,,,,,,,,,,,,,,,,,,,,,,,,,,,,,,,,,,,,,,,,,,,,,,,,,,,,,,,,,,,,,,,,,,,,,,,,,,,,,,,,,,,,,,,,,,,,,,,,,
,,,,,,,,,,stimuli/images/PICTURE_160.png,HOTEL,5f0550bf5819b18476ee8343,07/28/1955,2020-09-10_00h25.29.714,proactive2,2020.1.2,Win32,60,5f5126bb654d4b30ee6923d8,5f59aa5c573f0e20a8f49cfa,6,,,,,,wheelbarrow,,,,,,0,53,53,16,1,2,2,,,,,,,,,,,,,,,,,,,,,,,,,,,,,,,,,,,,,,,,,,,,,,,,,,,,,,,,,,,,,,,,,,,,,,,,,,,,,,,,,,,,,,,,,,,,,,,,,,,
,,,,,,,,,,stimuli/images/PICTURE_208.png,SPIRIT,5f0550bf5819b18476ee8343,07/28/1955,2020-09-10_00h25.29.714,proactive2,2020.1.2,Win32,60,5f5126bb654d4b30ee6923d8,5f59aa5c573f0e20a8f49cfa,6,,,,,,microphone,,,,,,0,54,54,28,1,3,2,,,,,,,,,,,,,,,,,,,,,,,,,,,,,,,,,,,,,,,,,,,,,,,,,,,,,,,,,,,,,,,,,,,,,,,,,,,,,,,,,,,,,,,,,,,,,,,,,,,
,,,,,,,,,,stimuli/images/PICTURE_68.png,KIND,5f0550bf5819b18476ee8343,07/28/1955,2020-09-10_00h25.29.714,proactive2,2020.1.2,Win32,60,5f5126bb654d4b30ee6923d8,5f59aa5c573f0e20a8f49cfa,6,,,,,,candle,,,,,,0,55,55,23,1,3,2,,,,,,,,,,,,,,,,,,,,,,,,,,,,,,,,,,,,,,,,,,,,,,,,,,,,,,,,,,,,,,,,,,,,,,,,,,,,,,,,,,,,,,,,,,,,,,,,,,,
,,,,,,,,,,stimuli/images/PICTURE_95.png,NIGHT,5f0550bf5819b18476ee8343,07/28/1955,2020-09-10_00h25.29.714,proactive2,2020.1.2,Win32,60,5f5126bb654d4b30ee6923d8,5f59aa5c573f0e20a8f49cfa,6,,,,,,suitcase,,,,,,0,56,56,37,1,4,2,,,,,,,,,,,,,,,,,,,,,,,,,,,,,,,,,,,,,,,,,,,,,,,,,,,,,,,,,,,,,,,,,,,,,,,,,,,,,,,,,,,,,,,,,,,,,,,,,,,
,,,,,,,,,,stimuli/images/PICTURE_123.png,SALE,5f0550bf5819b18476ee8343,07/28/1955,2020-09-10_00h25.29.714,proactive2,2020.1.2,Win32,60,5f5126bb654d4b30ee6923d8,5f59aa5c573f0e20a8f49cfa,6,,,,,,dart,,,,,,0,57,57,8,1,1,2,,,,,,,,,,,,,,,,,,,,,,,,,,,,,,,,,,,,,,,,,,,,,,,,,,,,,,,,,,,,,,,,,,,,,,,,,,,,,,,,,,,,,,,,,,,,,,,,,,,
,,,,,,,,,,stimuli/images/PICTURE_470.png,BEAUTY,5f0550bf5819b18476ee8343,07/28/1955,2020-09-10_00h25.29.714,proactive2,2020.1.2,Win32,60,5f5126bb654d4b30ee6923d8,5f59aa5c573f0e20a8f49cfa,6,,,,,,motorbike,,,,,,0,58,58,26,1,3,2,,,,,,,,,,,,,,,,,,,,,,,,,,,,,,,,,,,,,,,,,,,,,,,,,,,,,,,,,,,,,,,,,,,,,,,,,,,,,,,,,,,,,,,,,,,,,,,,,,,
,,?,0.00107,0,,,,,,stimuli/images/PICTURE_677.png,PHOTO,5f0550bf5819b18476ee8343,07/28/1955,2020-09-10_00h25.29.714,proactive2,2020.1.2,Win32,60,5f5126bb654d4b30ee6923d8,5f59aa5c573f0e20a8f49cfa,6,,,,,,map,,,,,,,,,,,2,2,0,0,0,14,1,,,,,,,,,,,,,,,,,,,,,,,,,,,,,,,,,,,,,,,,,,,,,,,,,,,,,,,,,,,,,,,,,,,,,,,,,,,,,,,,,,,,,,,,,,,,,,
,,?,0.00088,0,,,,,,stimuli/images/PICTURE_327.png,LEADER,5f0550bf5819b18476ee8343,07/28/1955,2020-09-10_00h25.29.714,proactive2,2020.1.2,Win32,60,5f5126bb654d4b30ee6923d8,5f59aa5c573f0e20a8f49cfa,6,,,,,,helmet,,,,,,,,,,,2,2,0,1,1,17,1,,,,,,,,,,,,,,,,,,,,,,,,,,,,,,,,,,,,,,,,,,,,,,,,,,,,,,,,,,,,,,,,,,,,,,,,,,,,,,,,,,,,,,,,,,,,,,
,,BODY,3.461285,1,,,,,,stimuli/images/PICTURE_297.png,BODY,5f0550bf5819b18476ee8343,07/28/1955,2020-09-10_00h25.29.714,proactive2,2020.1.2,Win32,60,5f5126bb654d4b30ee6923d8,5f59aa5c573f0e20a8f49cfa,6,,,,,,aeroplane,,,,,,,,,,,6,2,0,2,2,51,1,,,,,,,,,,,,,,,,,,,,,,,,,,,,,,,,,,,,,,,,,,,,,,,,,,,,,,,,,,,,,,,,,,,,,,,,,,,,,,,,,,,,,,,,,,,,,,
,,?,0.001905,0,,,,,,stimuli/images/PICTURE_255.png,PENNY,5f0550bf5819b18476ee8343,07/28/1955,2020-09-10_00h25.29.714,proactive2,2020.1.2,Win32,60,5f5126bb654d4b30ee6923d8,5f59aa5c573f0e20a8f49cfa,6,,,,,,shovel,,,,,,,,,,,2,2,0,3,3,19,1,,,,,,,,,,,,,,,,,,,,,,,,,,,,,,,,,,,,,,,,,,,,,,,,,,,,,,,,,,,,,,,,,,,,,,,,,,,,,,,,,,,,,,,,,,,,,,
,,?,0.00179,0,,,,,,stimuli/images/PICTURE_348.png,TOILET,5f0550bf5819b18476ee8343,07/28/1955,2020-09-10_00h25.29.714,proactive2,2020.1.2,Win32,60,5f5126bb654d4b30ee6923d8,5f59aa5c573f0e20a8f49cfa,6,,,,,,pepper,,,,,,,,,,,1,2,0,4,4,4,1,,,,,,,,,,,,,,,,,,,,,,,,,,,,,,,,,,,,,,,,,,,,,,,,,,,,,,,,,,,,,,,,,,,,,,,,,,,,,,,,,,,,,,,,,,,,,,
,,?,0.001625,0,,,,,,stimuli/images/PICTURE_654.png,COPS,5f0550bf5819b18476ee8343,07/28/1955,2020-09-10_00h25.29.714,proactive2,2020.1.2,Win32,60,5f5126bb654d4b30ee6923d8,5f59aa5c573f0e20a8f49cfa,6,,,,,,pencil,,,,,,,,,,,2,2,0,5,5,10,1,,,,,,,,,,,,,,,,,,,,,,,,,,,,,,,,,,,,,,,,,,,,,,,,,,,,,,,,,,,,,,,,,,,,,,,,,,,,,,,,,,,,,,,,,,,,,,
,,TOILET,4.55286,1,,,,,,stimuli/images/PICTURE_311.png,TOILET,5f0550bf5819b18476ee8343,07/28/1955,2020-09-10_00h25.29.714,proactive2,2020.1.2,Win32,60,5f5126bb654d4b30ee6923d8,5f59aa5c573f0e20a8f49cfa,6,,,,,,razor,,,,,,,,,,,6,2,0,6,6,54,1,,,,,,,,,,,,,,,,,,,,,,,,,,,,,,,,,,,,,,,,,,,,,,,,,,,,,,,,,,,,,,,,,,,,,,,,,,,,,,,,,,,,,,,,,,,,,,
,,?,0.002035,0,,,,,,stimuli/images/PICTURE_95.png,NIGHT,5f0550bf5819b18476ee8343,07/28/1955,2020-09-10_00h25.29.714,proactive2,2020.1.2,Win32,60,5f5126bb654d4b30ee6923d8,5f59aa5c573f0e20a8f49cfa,6,,,,,,suitcase,,,,,,,,,,,4,2,0,7,7,37,1,,,,,,,,,,,,,,,,,,,,,,,,,,,,,,,,,,,,,,,,,,,,,,,,,,,,,,,,,,,,,,,,,,,,,,,,,,,,,,,,,,,,,,,,,,,,,,
,,?,0.001555,0,,,,,,stimuli/images/PICTURE_509.png,SHOTS,5f0550bf5819b18476ee8343,07/28/1955,2020-09-10_00h25.29.714,proactive2,2020.1.2,Win32,60,5f5126bb654d4b30ee6923d8,5f59aa5c573f0e20a8f49cfa,6,,,,,,telephone,,,,,,,,,,,1,2,0,8,8,7,1,,,,,,,,,,,,,,,,,,,,,,,,,,,,,,,,,,,,,,,,,,,,,,,,,,,,,,,,,,,,,,,,,,,,,,,,,,,,,,,,,,,,,,,,,,,,,,
,,ROOF,2.82235,1,,,,,,stimuli/images/PICTURE_487.png,ROOF,5f0550bf5819b18476ee8343,07/28/1955,2020-09-10_00h25.29.714,proactive2,2020.1.2,Win32,60,5f5126bb654d4b30ee6923d8,5f59aa5c573f0e20a8f49cfa,6,,,,,,basket,,,,,,,,,,,6,2,0,9,9,50,1,,,,,,,,,,,,,,,,,,,,,,,,,,,,,,,,,,,,,,,,,,,,,,,,,,,,,,,,,,,,,,,,,,,,,,,,,,,,,,,,,,,,,,,,,,,,,,
,,?,0.001885,0,,,,,,stimuli/images/PICTURE_208.png,SPIRIT,5f0550bf5819b18476ee8343,07/28/1955,2020-09-10_00h25.29.714,proactive2,2020.1.2,Win32,60,5f5126bb654d4b30ee6923d8,5f59aa5c573f0e20a8f49cfa,6,,,,,,microphone,,,,,,,,,,,3,2,0,10,10,28,1,,,,,,,,,,,,,,,,,,,,,,,,,,,,,,,,,,,,,,,,,,,,,,,,,,,,,,,,,,,,,,,,,,,,,,,,,,,,,,,,,,,,,,,,,,,,,,
,,?,0.0015,0,,,,,,stimuli/images/PICTURE_285.png,WRITER,5f0550bf5819b18476ee8343,07/28/1955,2020-09-10_00h25.29.714,proactive2,2020.1.2,Win32,60,5f5126bb654d4b30ee6923d8,5f59aa5c573f0e20a8f49cfa,6,,,,,,carrot,,,,,,,,,,,1,2,0,11,11,6,1,,,,,,,,,,,,,,,,,,,,,,,,,,,,,,,,,,,,,,,,,,,,,,,,,,,,,,,,,,,,,,,,,,,,,,,,,,,,,,,,,,,,,,,,,,,,,,
,,?,0.001685,0,,,,,,stimuli/images/PICTURE_123.png,SALE,5f0550bf5819b18476ee8343,07/28/1955,2020-09-10_00h25.29.714,proactive2,2020.1.2,Win32,60,5f5126bb654d4b30ee6923d8,5f59aa5c573f0e20a8f49cfa,6,,,,,,dart,,,,,,,,,,,1,2,0,12,12,8,1,,,,,,,,,,,,,,,,,,,,,,,,,,,,,,,,,,,,,,,,,,,,,,,,,,,,,,,,,,,,,,,,,,,,,,,,,,,,,,,,,,,,,,,,,,,,,,
,,DESPAIR,12.30194,0,,,,,,stimuli/images/PICTURE_405.png,JUNGLE,5f0550bf5819b18476ee8343,07/28/1955,2020-09-10_00h25.29.714,proactive2,2020.1.2,Win32,60,5f5126bb654d4b30ee6923d8,5f59aa5c573f0e20a8f49cfa,6,,,,,,anchor,,,,,,,,,,,6,2,0,13,13,58,1,,,,,,,,,,,,,,,,,,,,,,,,,,,,,,,,,,,,,,,,,,,,,,,,,,,,,,,,,,,,,,,,,,,,,,,,,,,,,,,,,,,,,,,,,,,,,,
,,?,0.001915,0,,,,,,stimuli/images/PICTURE_215.png,BOYS,5f0550bf5819b18476ee8343,07/28/1955,2020-09-10_00h25.29.714,proactive2,2020.1.2,Win32,60,5f5126bb654d4b30ee6923d8,5f59aa5c573f0e20a8f49cfa,6,,,,,,boot,,,,,,,,,,,3,2,0,14,14,24,1,,,,,,,,,,,,,,,,,,,,,,,,,,,,,,,,,,,,,,,,,,,,,,,,,,,,,,,,,,,,,,,,,,,,,,,,,,,,,,,,,,,,,,,,,,,,,,
,,?,0.001605,0,,,,,,stimuli/images/PICTURE_93.png,GIRL,5f0550bf5819b18476ee8343,07/28/1955,2020-09-10_00h25.29.714,proactive2,2020.1.2,Win32,60,5f5126bb654d4b30ee6923d8,5f59aa5c573f0e20a8f49cfa,6,,,,,,skateboard,,,,,,,,,,,4,2,0,15,15,31,1,,,,,,,,,,,,,,,,,,,,,,,,,,,,,,,,,,,,,,,,,,,,,,,,,,,,,,,,,,,,,,,,,,,,,,,,,,,,,,,,,,,,,,,,,,,,,,
,,?,0.00176,0,,,,,,stimuli/images/PICTURE_18.png,RIVER,5f0550bf5819b18476ee8343,07/28/1955,2020-09-10_00h25.29.714,proactive2,2020.1.2,Win32,60,5f5126bb654d4b30ee6923d8,5f59aa5c573f0e20a8f49cfa,6,,,,,,planet,,,,,,,,,,,3,2,0,16,16,22,1,,,,,,,,,,,,,,,,,,,,,,,,,,,,,,,,,,,,,,,,,,,,,,,,,,,,,,,,,,,,,,,,,,,,,,,,,,,,,,,,,,,,,,,,,,,,,,
,,?,0.00255,0,,,,,,stimuli/images/PICTURE_68.png,KIND,5f0550bf5819b18476ee8343,07/28/1955,2020-09-10_00h25.29.714,proactive2,2020.1.2,Win32,60,5f5126bb654d4b30ee6923d8,5f59aa5c573f0e20a8f49cfa,6,,,,,,candle,,,,,,,,,,,3,2,0,17,17,23,1,,,,,,,,,,,,,,,,,,,,,,,,,,,,,,,,,,,,,,,,,,,,,,,,,,,,,,,,,,,,,,,,,,,,,,,,,,,,,,,,,,,,,,,,,,,,,,
,,?,0.001715,0,,,,,,stimuli/images/PICTURE_692.png,DUDE,5f0550bf5819b18476ee8343,07/28/1955,2020-09-10_00h25.29.714,proactive2,2020.1.2,Win32,60,5f5126bb654d4b30ee6923d8,5f59aa5c573f0e20a8f49cfa,6,,,,,,cherry,,,,,,,,,,,5,2,0,18,18,47,1,,,,,,,,,,,,,,,,,,,,,,,,,,,,,,,,,,,,,,,,,,,,,,,,,,,,,,,,,,,,,,,,,,,,,,,,,,,,,,,,,,,,,,,,,,,,,,
,,?,0.00122,0,,,,,,stimuli/images/PICTURE_57.png,NATION,5f0550bf5819b18476ee8343,07/28/1955,2020-09-10_00h25.29.714,proactive2,2020.1.2,Win32,60,5f5126bb654d4b30ee6923d8,5f59aa5c573f0e20a8f49cfa,6,,,,,,stamp,,,,,,,,,,,3,2,0,19,19,21,1,,,,,,,,,,,,,,,,,,,,,,,,,,,,,,,,,,,,,,,,,,,,,,,,,,,,,,,,,,,,,,,,,,,,,,,,,,,,,,,,,,,,,,,,,,,,,,
,,?,0.00093,0,,,,,,stimuli/images/PICTURE_487.png,POLICY,5f0550bf5819b18476ee8343,07/28/1955,2020-09-10_00h25.29.714,proactive2,2020.1.2,Win32,60,5f5126bb654d4b30ee6923d8,5f59aa5c573f0e20a8f49cfa,6,,,,,,basket,,,,,,,,,,,4,2,0,20,20,34,1,,,,,,,,,,,,,,,,,,,,,,,,,,,,,,,,,,,,,,,,,,,,,,,,,,,,,,,,,,,,,,,,,,,,,,,,,,,,,,,,,,,,,,,,,,,,,,
,,?,0.00095,0,,,,,,stimuli/images/PICTURE_667.png,GLASS,5f0550bf5819b18476ee8343,07/28/1955,2020-09-10_00h25.29.714,proactive2,2020.1.2,Win32,60,5f5126bb654d4b30ee6923d8,5f59aa5c573f0e20a8f49cfa,6,,,,,,daisy,,,,,,,,,,,3,2,0,21,21,27,1,,,,,,,,,,,,,,,,,,,,,,,,,,,,,,,,,,,,,,,,,,,,,,,,,,,,,,,,,,,,,,,,,,,,,,,,,,,,,,,,,,,,,,,,,,,,,,
,,DUDE,3.39999,1,,,,,,stimuli/images/PICTURE_348.png,DUDE,5f0550bf5819b18476ee8343,07/28/1955,2020-09-10_00h25.29.714,proactive2,2020.1.2,Win32,60,5f5126bb654d4b30ee6923d8,5f59aa5c573f0e20a8f49cfa,6,,,,,,pepper,,,,,,,,,,,6,2,0,22,22,59,1,,,,,,,,,,,,,,,,,,,,,,,,,,,,,,,,,,,,,,,,,,,,,,,,,,,,,,,,,,,,,,,,,,,,,,,,,,,,,,,,,,,,,,,,,,,,,,
,,?,0.00116,0,,,,,,stimuli/images/PICTURE_688.png,CLOCK,5f0550bf5819b18476ee8343,07/28/1955,2020-09-10_00h25.29.714,proactive2,2020.1.2,Win32,60,5f5126bb654d4b30ee6923d8,5f59aa5c573f0e20a8f49cfa,6,,,,,,runner,,,,,,,,,,,5,2,0,23,23,42,1,,,,,,,,,,,,,,,,,,,,,,,,,,,,,,,,,,,,,,,,,,,,,,,,,,,,,,,,,,,,,,,,,,,,,,,,,,,,,,,,,,,,,,,,,,,,,,
,,FAMILY,3.312145,1,,,,,,stimuli/images/PICTURE_677.png,FAMILY,5f0550bf5819b18476ee8343,07/28/1955,2020-09-10_00h25.29.714,proactive2,2020.1.2,Win32,60,5f5126bb654d4b30ee6923d8,5f59aa5c573f0e20a8f49cfa,6,,,,,,map,,,,,,,,,,,6,2,0,24,24,53,1,,,,,,,,,,,,,,,,,,,,,,,,,,,,,,,,,,,,,,,,,,,,,,,,,,,,,,,,,,,,,,,,,,,,,,,,,,,,,,,,,,,,,,,,,,,,,,
,,?,0.001855,0,,,,,,stimuli/images/PICTURE_452.png,COPS,5f0550bf5819b18476ee8343,07/28/1955,2020-09-10_00h25.29.714,proactive2,2020.1.2,Win32,60,5f5126bb654d4b30ee6923d8,5f59aa5c573f0e20a8f49cfa,6,,,,,,watch,,,,,,,,,,,1,2,0,25,25,0,1,,,,,,,,,,,,,,,,,,,,,,,,,,,,,,,,,,,,,,,,,,,,,,,,,,,,,,,,,,,,,,,,,,,,,,,,,,,,,,,,,,,,,,,,,,,,,,
,,?,0.00169,0,,,,,,stimuli/images/PICTURE_356.png,CANDY,5f0550bf5819b18476ee8343,07/28/1955,2020-09-10_00h25.29.714,proactive2,2020.1.2,Win32,60,5f5126bb654d4b30ee6923d8,5f59aa5c573f0e20a8f49cfa,6,,,,,,pawn,,,,,,,,,,,5,2,0,26,26,46,1,,,,,,,,,,,,,,,,,,,,,,,,,,,,,,,,,,,,,,,,,,,,,,,,,,,,,,,,,,,,,,,,,,,,,,,,,,,,,,,,,,,,,,,,,,,,,,
,,?,0.001535,0,,,,,,stimuli/images/PICTURE_453.png,FAMILY,5f0550bf5819b18476ee8343,07/28/1955,2020-09-10_00h25.29.714,proactive2,2020.1.2,Win32,60,5f5126bb654d4b30ee6923d8,5f59aa5c573f0e20a8f49cfa,6,,,,,,scissors,,,,,,,,,,,5,2,0,27,27,48,1,,,,,,,,,,,,,,,,,,,,,,,,,,,,,,,,,,,,,,,,,,,,,,,,,,,,,,,,,,,,,,,,,,,,,,,,,,,,,,,,,,,,,,,,,,,,,,
,,?,0.00589,0,,,,,,stimuli/images/PICTURE_654.png,YEAR,5f0550bf5819b18476ee8343,07/28/1955,2020-09-10_00h25.29.714,proactive2,2020.1.2,Win32,60,5f5126bb654d4b30ee6923d8,5f59aa5c573f0e20a8f49cfa,6,,,,,,pencil,,,,,,,,,,,5,2,0,28,28,41,1,,,,,,,,,,,,,,,,,,,,,,,,,,,,,,,,,,,,,,,,,,,,,,,,,,,,,,,,,,,,,,,,,,,,,,,,,,,,,,,,,,,,,,,,,,,,,,
,,YARD,4.278265,1,,,,,,stimuli/images/PICTURE_2.png,YARD,5f0550bf5819b18476ee8343,07/28/1955,2020-09-10_00h25.29.714,proactive2,2020.1.2,Win32,60,5f5126bb654d4b30ee6923d8,5f59aa5c573f0e20a8f49cfa,6,,,,,,tyre,,,,,,,,,,,6,2,0,29,29,55,1,,,,,,,,,,,,,,,,,,,,,,,,,,,,,,,,,,,,,,,,,,,,,,,,,,,,,,,,,,,,,,,,,,,,,,,,,,,,,,,,,,,,,,,,,,,,,,
,,?,0.00243,0,,,,,,stimuli/images/PICTURE_215.png,FOOD,5f0550bf5819b18476ee8343,07/28/1955,2020-09-10_00h25.29.714,proactive2,2020.1.2,Win32,60,5f5126bb654d4b30ee6923d8,5f59aa5c573f0e20a8f49cfa,6,,,,,,boot,,,,,,,,,,,1,2,0,30,30,5,1,,,,,,,,,,,,,,,,,,,,,,,,,,,,,,,,,,,,,,,,,,,,,,,,,,,,,,,,,,,,,,,,,,,,,,,,,,,,,,,,,,,,,,,,,,,,,,
,,?,0.001485,0,,,,,,stimuli/images/PICTURE_509.png,APPLE,5f0550bf5819b18476ee8343,07/28/1955,2020-09-10_00h25.29.714,proactive2,2020.1.2,Win32,60,5f5126bb654d4b30ee6923d8,5f59aa5c573f0e20a8f49cfa,6,,,,,,telephone,,,,,,,,,,,4,2,0,31,31,38,1,,,,,,,,,,,,,,,,,,,,,,,,,,,,,,,,,,,,,,,,,,,,,,,,,,,,,,,,,,,,,,,,,,,,,,,,,,,,,,,,,,,,,,,,,,,,,,
,,?,0.001345,0,,,,,,stimuli/images/PICTURE_509.png,BATH,5f0550bf5819b18476ee8343,07/28/1955,2020-09-10_00h25.29.714,proactive2,2020.1.2,Win32,60,5f5126bb654d4b30ee6923d8,5f59aa5c573f0e20a8f49cfa,6,,,,,,telephone,,,,,,,,,,,2,2,0,32,32,15,1,,,,,,,,,,,,,,,,,,,,,,,,,,,,,,,,,,,,,,,,,,,,,,,,,,,,,,,,,,,,,,,,,,,,,,,,,,,,,,,,,,,,,,,,,,,,,,
,,LETTER,3.535345,1,,,,,,stimuli/images/PICTURE_32.png,LETTER,5f0550bf5819b18476ee8343,07/28/1955,2020-09-10_00h25.29.714,proactive2,2020.1.2,Win32,60,5f5126bb654d4b30ee6923d8,5f59aa5c573f0e20a8f49cfa,6,,,,,,crown,,,,,,,,,,,6,2,0,33,33,56,1,,,,,,,,,,,,,,,,,,,,,,,,,,,,,,,,,,,,,,,,,,,,,,,,,,,,,,,,,,,,,,,,,,,,,,,,,,,,,,,,,,,,,,,,,,,,,,
,,?,0.001825,0,,,,,,stimuli/images/PICTURE_405.png,HOUSE,5f0550bf5819b18476ee8343,07/28/1955,2020-09-10_00h25.29.714,proactive2,2020.1.2,Win32,60,5f5126bb654d4b30ee6923d8,5f59aa5c573f0e20a8f49cfa,6,,,,,,anchor,,,,,,,,,,,1,2,0,34,34,2,1,,,,,,,,,,,,,,,,,,,,,,,,,,,,,,,,,,,,,,,,,,,,,,,,,,,,,,,,,,,,,,,,,,,,,,,,,,,,,,,,,,,,,,,,,,,,,,
,,?,0.00165,0,,,,,,stimuli/images/PICTURE_470.png,MOMENT,5f0550bf5819b18476ee8343,07/28/1955,2020-09-10_00h25.29.714,proactive2,2020.1.2,Win32,60,5f5126bb654d4b30ee6923d8,5f59aa5c573f0e20a8f49cfa,6,,,,,,motorbike,,,,,,,,,,,5,2,0,35,35,40,1,,,,,,,,,,,,,,,,,,,,,,,,,,,,,,,,,,,,,,,,,,,,,,,,,,,,,,,,,,,,,,,,,,,,,,,,,,,,,,,,,,,,,,,,,,,,,,
,,?,0.00164,0,,,,,,stimuli/images/PICTURE_2.png,JUNGLE,5f0550bf5819b18476ee8343,07/28/1955,2020-09-10_00h25.29.714,proactive2,2020.1.2,Win32,60,5f5126bb654d4b30ee6923d8,5f59aa5c573f0e20a8f49cfa,6,,,,,,tyre,,,,,,,,,,,1,2,0,36,36,1,1,,,,,,,,,,,,,,,,,,,,,,,,,,,,,,,,,,,,,,,,,,,,,,,,,,,,,,,,,,,,,,,,,,,,,,,,,,,,,,,,,,,,,,,,,,,,,,
,,?,0.00145,0,,,,,,stimuli/images/PICTURE_509.png,MILLER,5f0550bf5819b18476ee8343,07/28/1955,2020-09-10_00h25.29.714,proactive2,2020.1.2,Win32,60,5f5126bb654d4b30ee6923d8,5f59aa5c573f0e20a8f49cfa,6,,,,,,telephone,,,,,,,,,,,5,2,0,37,37,49,1,,,,,,,,,,,,,,,,,,,,,,,,,,,,,,,,,,,,,,,,,,,,,,,,,,,,,,,,,,,,,,,,,,,,,,,,,,,,,,,,,,,,,,,,,,,,,,
,,?,0.001465,0,,,,,,stimuli/images/PICTURE_405.png,JUNGLE,5f0550bf5819b18476ee8343,07/28/1955,2020-09-10_00h25.29.714,proactive2,2020.1.2,Win32,60,5f5126bb654d4b30ee6923d8,5f59aa5c573f0e20a8f49cfa,6,,,,,,anchor,,,,,,,,,,,2,2,0,38,38,13,1,,,,,,,,,,,,,,,,,,,,,,,,,,,,,,,,,,,,,,,,,,,,,,,,,,,,,,,,,,,,,,,,,,,,,,,,,,,,,,,,,,,,,,,,,,,,,,
,,?,0.00139,0,,,,,,stimuli/images/PICTURE_147.png,LEADER,5f0550bf5819b18476ee8343,07/28/1955,2020-09-10_00h25.29.714,proactive2,2020.1.2,Win32,60,5f5126bb654d4b30ee6923d8,5f59aa5c573f0e20a8f49cfa,6,,,,,,hanger,,,,,,,,,,,4,2,0,39,39,33,1,,,,,,,,,,,,,,,,,,,,,,,,,,,,,,,,,,,,,,,,,,,,,,,,,,,,,,,,,,,,,,,,,,,,,,,,,,,,,,,,,,,,,,,,,,,,,,
,,?,0.00125,0,,,,,,stimuli/images/PICTURE_403.png,FAMILY,5f0550bf5819b18476ee8343,07/28/1955,2020-09-10_00h25.29.714,proactive2,2020.1.2,Win32,60,5f5126bb654d4b30ee6923d8,5f59aa5c573f0e20a8f49cfa,6,,,,,,cathedral,,,,,,,,,,,1,2,0,40,40,9,1,,,,,,,,,,,,,,,,,,,,,,,,,,,,,,,,,,,,,,,,,,,,,,,,,,,,,,,,,,,,,,,,,,,,,,,,,,,,,,,,,,,,,,,,,,,,,,
,,?,0.00135,0,,,,,,stimuli/images/PICTURE_311.png,FLESH,5f0550bf5819b18476ee8343,07/28/1955,2020-09-10_00h25.29.714,proactive2,2020.1.2,Win32,60,5f5126bb654d4b30ee6923d8,5f59aa5c573f0e20a8f49cfa,6,,,,,,razor,,,,,,,,,,,1,2,0,41,41,3,1,,,,,,,,,,,,,,,,,,,,,,,,,,,,,,,,,,,,,,,,,,,,,,,,,,,,,,,,,,,,,,,,,,,,,,,,,,,,,,,,,,,,,,,,,,,,,,
,,?,0.00181,0,,,,,,stimuli/images/PICTURE_314.png,SPEECH,5f0550bf5819b18476ee8343,07/28/1955,2020-09-10_00h25.29.714,proactive2,2020.1.2,Win32,60,5f5126bb654d4b30ee6923d8,5f59aa5c573f0e20a8f49cfa,6,,,,,,perfume,,,,,,,,,,,4,2,0,42,42,35,1,,,,,,,,,,,,,,,,,,,,,,,,,,,,,,,,,,,,,,,,,,,,,,,,,,,,,,,,,,,,,,,,,,,,,,,,,,,,,,,,,,,,,,,,,,,,,,
,,?,0.00225,0,,,,,,stimuli/images/PICTURE_504.png,HOUSE,5f0550bf5819b18476ee8343,07/28/1955,2020-09-10_00h25.29.714,proactive2,2020.1.2,Win32,60,5f5126bb654d4b30ee6923d8,5f59aa5c573f0e20a8f49cfa,6,,,,,,wheel,,,,,,,,,,,4,2,0,43,43,36,1,,,,,,,,,,,,,,,,,,,,,,,,,,,,,,,,,,,,,,,,,,,,,,,,,,,,,,,,,,,,,,,,,,,,,,,,,,,,,,,,,,,,,,,,,,,,,,
,,?,0.000595,0,,,,,,stimuli/images/PICTURE_33.png,COPS,5f0550bf5819b18476ee8343,07/28/1955,2020-09-10_00h25.29.714,proactive2,2020.1.2,Win32,60,5f5126bb654d4b30ee6923d8,5f59aa5c573f0e20a8f49cfa,6,,,,,,frame,,,,,,,,,,,3,2,0,44,44,29,1,,,,,,,,,,,,,,,,,,,,,,,,,,,,,,,,,,,,,,,,,,,,,,,,,,,,,,,,,,,,,,,,,,,,,,,,,,,,,,,,,,,,,,,,,,,,,,
,,?,0.000555,0,,,,,,stimuli/images/PICTURE_470.png,BEAUTY,5f0550bf5819b18476ee8343,07/28/1955,2020-09-10_00h25.29.714,proactive2,2020.1.2,Win32,60,5f5126bb654d4b30ee6923d8,5f59aa5c573f0e20a8f49cfa,6,,,,,,motorbike,,,,,,,,,,,3,2,0,45,45,26,1,,,,,,,,,,,,,,,,,,,,,,,,,,,,,,,,,,,,,,,,,,,,,,,,,,,,,,,,,,,,,,,,,,,,,,,,,,,,,,,,,,,,,,,,,,,,,,
,,?,0.00058,0,,,,,,stimuli/images/PICTURE_285.png,PRINCE,5f0550bf5819b18476ee8343,07/28/1955,2020-09-10_00h25.29.714,proactive2,2020.1.2,Win32,60,5f5126bb654d4b30ee6923d8,5f59aa5c573f0e20a8f49cfa,6,,,,,,carrot,,,,,,,,,,,3,2,0,46,46,20,1,,,,,,,,,,,,,,,,,,,,,,,,,,,,,,,,,,,,,,,,,,,,,,,,,,,,,,,,,,,,,,,,,,,,,,,,,,,,,,,,,,,,,,,,,,,,,,
,,?,0.00065,0,,,,,,stimuli/images/PICTURE_564.png,PLENTY,5f0550bf5819b18476ee8343,07/28/1955,2020-09-10_00h25.29.714,proactive2,2020.1.2,Win32,60,5f5126bb654d4b30ee6923d8,5f59aa5c573f0e20a8f49cfa,6,,,,,,spoon,,,,,,,,,,,2,2,0,47,47,11,1,,,,,,,,,,,,,,,,,,,,,,,,,,,,,,,,,,,,,,,,,,,,,,,,,,,,,,,,,,,,,,,,,,,,,,,,,,,,,,,,,,,,,,,,,,,,,,
,,?,0.000745,0,,,,,,stimuli/images/PICTURE_57.png,CASINO,5f0550bf5819b18476ee8343,07/28/1955,2020-09-10_00h25.29.714,proactive2,2020.1.2,Win32,60,5f5126bb654d4b30ee6923d8,5f59aa5c573f0e20a8f49cfa,6,,,,,,stamp,,,,,,,,,,,2,2,0,48,48,12,1,,,,,,,,,,,,,,,,,,,,,,,,,,,,,,,,,,,,,,,,,,,,,,,,,,,,,,,,,,,,,,,,,,,,,,,,,,,,,,,,,,,,,,,,,,,,,,
,,SALE,3.687225,1,,,,,,stimuli/images/PICTURE_655.png,SALE,5f0550bf5819b18476ee8343,07/28/1955,2020-09-10_00h25.29.714,proactive2,2020.1.2,Win32,60,5f5126bb654d4b30ee6923d8,5f59aa5c573f0e20a8f49cfa,6,,,,,,megaphone,,,,,,,,,,,6,2,0,49,49,57,1,,,,,,,,,,,,,,,,,,,,,,,,,,,,,,,,,,,,,,,,,,,,,,,,,,,,,,,,,,,,,,,,,,,,,,,,,,,,,,,,,,,,,,,,,,,,,,
,,CANDY,4.11526,1,,,,,,stimuli/images/PICTURE_57.png,CANDY,5f0550bf5819b18476ee8343,07/28/1955,2020-09-10_00h25.29.714,proactive2,2020.1.2,Win32,60,5f5126bb654d4b30ee6923d8,5f59aa5c573f0e20a8f49cfa,6,,,,,,stamp,,,,,,,,,,,6,2,0,50,50,52,1,,,,,,,,,,,,,,,,,,,,,,,,,,,,,,,,,,,,,,,,,,,,,,,,,,,,,,,,,,,,,,,,,,,,,,,,,,,,,,,,,,,,,,,,,,,,,,
,,?,0.000625,0,,,,,,stimuli/images/PICTURE_708.png,VALLEY,5f0550bf5819b18476ee8343,07/28/1955,2020-09-10_00h25.29.714,proactive2,2020.1.2,Win32,60,5f5126bb654d4b30ee6923d8,5f59aa5c573f0e20a8f49cfa,6,,,,,,monkey,,,,,,,,,,,5,2,0,51,51,45,1,,,,,,,,,,,,,,,,,,,,,,,,,,,,,,,,,,,,,,,,,,,,,,,,,,,,,,,,,,,,,,,,,,,,,,,,,,,,,,,,,,,,,,,,,,,,,,
,,?,0.000405,0,,,,,,stimuli/images/PICTURE_177.png,HOUSE,5f0550bf5819b18476ee8343,07/28/1955,2020-09-10_00h25.29.714,proactive2,2020.1.2,Win32,60,5f5126bb654d4b30ee6923d8,5f59aa5c573f0e20a8f49cfa,6,,,,,,mushroom,,,,,,,,,,,3,2,0,52,52,25,1,,,,,,,,,,,,,,,,,,,,,,,,,,,,,,,,,,,,,,,,,,,,,,,,,,,,,,,,,,,,,,,,,,,,,,,,,,,,,,,,,,,,,,,,,,,,,,
,,?,0.0004,0,,,,,,stimuli/images/PICTURE_160.png,HOTEL,5f0550bf5819b18476ee8343,07/28/1955,2020-09-10_00h25.29.714,proactive2,2020.1.2,Win32,60,5f5126bb654d4b30ee6923d8,5f59aa5c573f0e20a8f49cfa,6,,,,,,wheelbarrow,,,,,,,,,,,2,2,0,53,53,16,1,,,,,,,,,,,,,,,,,,,,,,,,,,,,,,,,,,,,,,,,,,,,,,,,,,,,,,,,,,,,,,,,,,,,,,,,,,,,,,,,,,,,,,,,,,,,,,
,,?,0.00038,0,,,,,,stimuli/images/PICTURE_296.png,CLOCK,5f0550bf5819b18476ee8343,07/28/1955,2020-09-10_00h25.29.714,proactive2,2020.1.2,Win32,60,5f5126bb654d4b30ee6923d8,5f59aa5c573f0e20a8f49cfa,6,,,,,,bolt,,,,,,,,,,,2,2,0,54,54,18,1,,,,,,,,,,,,,,,,,,,,,,,,,,,,,,,,,,,,,,,,,,,,,,,,,,,,,,,,,,,,,,,,,,,,,,,,,,,,,,,,,,,,,,,,,,,,,,
,,?,0.000425,0,,,,,,stimuli/images/PICTURE_491.png,SERIES,5f0550bf5819b18476ee8343,07/28/1955,2020-09-10_00h25.29.714,proactive2,2020.1.2,Win32,60,5f5126bb654d4b30ee6923d8,5f59aa5c573f0e20a8f49cfa,6,,,,,,rug,,,,,,,,,,,4,2,0,55,55,39,1,,,,,,,,,,,,,,,,,,,,,,,,,,,,,,,,,,,,,,,,,,,,,,,,,,,,,,,,,,,,,,,,,,,,,,,,,,,,,,,,,,,,,,,,,,,,,,
,,?,0.000395,0,,,,,,stimuli/images/PICTURE_750.png,POLICY,5f0550bf5819b18476ee8343,07/28/1955,2020-09-10_00h25.29.714,proactive2,2020.1.2,Win32,60,5f5126bb654d4b30ee6923d8,5f59aa5c573f0e20a8f49cfa,6,,,,,,kettle,,,,,,,,,,,5,2,0,56,56,44,1,,,,,,,,,,,,,,,,,,,,,,,,,,,,,,,,,,,,,,,,,,,,,,,,,,,,,,,,,,,,,,,,,,,,,,,,,,,,,,,,,,,,,,,,,,,,,,
,,?,0.000395,0,,,,,,stimuli/images/PICTURE_2.png,AREA,5f0550bf5819b18476ee8343,07/28/1955,2020-09-10_00h25.29.714,proactive2,2020.1.2,Win32,60,5f5126bb654d4b30ee6923d8,5f59aa5c573f0e20a8f49cfa,6,,,,,,tyre,,,,,,,,,,,4,2,0,57,57,32,1,,,,,,,,,,,,,,,,,,,,,,,,,,,,,,,,,,,,,,,,,,,,,,,,,,,,,,,,,,,,,,,,,,,,,,,,,,,,,,,,,,,,,,,,,,,,,,
,,?,0.000475,0,,,,,,stimuli/images/PICTURE_141.png,CLIENT,5f0550bf5819b18476ee8343,07/28/1955,2020-09-10_00h25.29.714,proactive2,2020.1.2,Win32,60,5f5126bb654d4b30ee6923d8,5f59aa5c573f0e20a8f49cfa,6,,,,,,sunflower,,,,,,,,,,,4,2,0,58,58,30,1,,,,,,,,,,,,,,,,,,,,,,,,,,,,,,,,,,,,,,,,,,,,,,,,,,,,,,,,,,,,,,,,,,,,,,,,,,,,,,,,,,,,,,,,,,,,,,
,,?,0.00039,0,,,,,,stimuli/images/PICTURE_215.png,LEADER,5f0550bf5819b18476ee8343,07/28/1955,2020-09-10_00h25.29.714,proactive2,2020.1.2,Win32,60,5f5126bb654d4b30ee6923d8,5f59aa5c573f0e20a8f49cfa,6,,,,,,boot,,,,,,,,,,,5,2,0,59,59,43,1,,,,,,,,,,,,,,,,,,,,,,,,,,,,,,,,,,,,,,,,,,,,,,,,,,,,,,,,,,,,,,,,,,,,,,,,,,,,,,,,,,,,,,,,,,,,,,
,,,,,,,,,,,,5f0550bf5819b18476ee8343,07/28/1955,2020-09-10_00h25.29.714,proactive2,2020.1.2,Win32,60,5f5126bb654d4b30ee6923d8,5f59aa5c573f0e20a8f49cfa,6,,,,,,,,,,,,,,,,,,,,,,,,0,1,1,2,1,stimuli/learn-block3.csv,,,,,,,,,,,,,,,,,,,,,,,,,,,,,,,,,,,,,,,,,,,,,,,,,,,,,,,,,,,,,,,,,,,,,,,,,,,,,,,,,,,,,,,,
,,,,,,,,,,stimuli/images/PICTURE_469.png,LETTER,5f0550bf5819b18476ee8343,07/28/1955,2020-09-10_00h25.29.714,proactive2,2020.1.2,Win32,60,5f5126bb654d4b30ee6923d8,5f59aa5c573f0e20a8f49cfa,6,,,,,,stool,,,,,,0,0,0,42,1,5,0,,,,,,,,,,,,,,,,,,,,,,,,,,,,,,,,,,,,,,,,,,,,,,,,,,,,,,,,,,,,,,,,,,,,,,,,,,,,,,,,,,,,,,,,,,,,,,,,,,,
,,,,,,,,,,stimuli/images/PICTURE_123.png,ADVICE,5f0550bf5819b18476ee8343,07/28/1955,2020-09-10_00h25.29.714,proactive2,2020.1.2,Win32,60,5f5126bb654d4b30ee6923d8,5f59aa5c573f0e20a8f49cfa,6,,,,,,dart,,,,,,0,1,1,50,1,6,0,,,,,,,,,,,,,,,,,,,,,,,,,,,,,,,,,,,,,,,,,,,,,,,,,,,,,,,,,,,,,,,,,,,,,,,,,,,,,,,,,,,,,,,,,,,,,,,,,,,
,,,,,,,,,,stimuli/images/PICTURE_233.png,WOMEN,5f0550bf5819b18476ee8343,07/28/1955,2020-09-10_00h25.29.714,proactive2,2020.1.2,Win32,60,5f5126bb654d4b30ee6923d8,5f59aa5c573f0e20a8f49cfa,6,,,,,,salt,,,,,,0,2,2,38,1,4,0,,,,,,,,,,,,,,,,,,,,,,,,,,,,,,,,,,,,,,,,,,,,,,,,,,,,,,,,,,,,,,,,,,,,,,,,,,,,,,,,,,,,,,,,,,,,,,,,,,,
,,,,,,,,,,stimuli/images/PICTURE_675.png,WEAPON,5f0550bf5819b18476ee8343,07/28/1955,2020-09-10_00h25.29.714,proactive2,2020.1.2,Win32,60,5f5126bb654d4b30ee6923d8,5f59aa5c573f0e20a8f49cfa,6,,,,,,windmill,,,,,,0,3,3,32,1,4,0,,,,,,,,,,,,,,,,,,,,,,,,,,,,,,,,,,,,,,,,,,,,,,,,,,,,,,,,,,,,,,,,,,,,,,,,,,,,,,,,,,,,,,,,,,,,,,,,,,,
,,,,,,,,,,stimuli/images/PICTURE_744.png,SYSTEM,5f0550bf5819b18476ee8343,07/28/1955,2020-09-10_00h25.29.714,proactive2,2020.1.2,Win32,60,5f5126bb654d4b30ee6923d8,5f59aa5c573f0e20a8f49cfa,6,,,,,,ring,,,,,,0,4,4,43,1,5,0,,,,,,,,,,,,,,,,,,,,,,,,,,,,,,,,,,,,,,,,,,,,,,,,,,,,,,,,,,,,,,,,,,,,,,,,,,,,,,,,,,,,,,,,,,,,,,,,,,,
,,,,,,,,,,stimuli/images/PICTURE_208.png,MONTH,5f0550bf5819b18476ee8343,07/28/1955,2020-09-10_00h25.29.714,proactive2,2020.1.2,Win32,60,5f5126bb654d4b30ee6923d8,5f59aa5c573f0e20a8f49cfa,6,,,,,,microphone,,,,,,0,5,5,53,1,6,0,,,,,,,,,,,,,,,,,,,,,,,,,,,,,,,,,,,,,,,,,,,,,,,,,,,,,,,,,,,,,,,,,,,,,,,,,,,,,,,,,,,,,,,,,,,,,,,,,,,
,,,,,,,,,,stimuli/images/PICTURE_203.png,ARTIST,5f0550bf5819b18476ee8343,07/28/1955,2020-09-10_00h25.29.714,proactive2,2020.1.2,Win32,60,5f5126bb654d4b30ee6923d8,5f59aa5c573f0e20a8f49cfa,6,,,,,,cap,,,,,,0,6,6,26,1,3,0,,,,,,,,,,,,,,,,,,,,,,,,,,,,,,,,,,,,,,,,,,,,,,,,,,,,,,,,,,,,,,,,,,,,,,,,,,,,,,,,,,,,,,,,,,,,,,,,,,,
,,,,,,,,,,stimuli/images/PICTURE_233.png,IDEAS,5f0550bf5819b18476ee8343,07/28/1955,2020-09-10_00h25.29.714,proactive2,2020.1.2,Win32,60,5f5126bb654d4b30ee6923d8,5f59aa5c573f0e20a8f49cfa,6,,,,,,salt,,,,,,0,7,7,28,1,3,0,,,,,,,,,,,,,,,,,,,,,,,,,,,,,,,,,,,,,,,,,,,,,,,,,,,,,,,,,,,,,,,,,,,,,,,,,,,,,,,,,,,,,,,,,,,,,,,,,,,
,,,,,,,,,,stimuli/images/PICTURE_68.png,MILE,5f0550bf5819b18476ee8343,07/28/1955,2020-09-10_00h25.29.714,proactive2,2020.1.2,Win32,60,5f5126bb654d4b30ee6923d8,5f59aa5c573f0e20a8f49cfa,6,,,,,,candle,,,,,,0,8,8,44,1,5,0,,,,,,,,,,,,,,,,,,,,,,,,,,,,,,,,,,,,,,,,,,,,,,,,,,,,,,,,,,,,,,,,,,,,,,,,,,,,,,,,,,,,,,,,,,,,,,,,,,,
,,,,,,,,,,stimuli/images/PICTURE_487.png,FLIGHT,5f0550bf5819b18476ee8343,07/28/1955,2020-09-10_00h25.29.714,proactive2,2020.1.2,Win32,60,5f5126bb654d4b30ee6923d8,5f59aa5c573f0e20a8f49cfa,6,,,,,,basket,,,,,,0,9,9,9,1,1,0,,,,,,,,,,,,,,,,,,,,,,,,,,,,,,,,,,,,,,,,,,,,,,,,,,,,,,,,,,,,,,,,,,,,,,,,,,,,,,,,,,,,,,,,,,,,,,,,,,,
,,,,,,,,,,stimuli/images/PICTURE_314.png,SAKE,5f0550bf5819b18476ee8343,07/28/1955,2020-09-10_00h25.29.714,proactive2,2020.1.2,Win32,60,5f5126bb654d4b30ee6923d8,5f59aa5c573f0e20a8f49cfa,6,,,,,,perfume,,,,,,0,10,10,7,1,1,0,,,,,,,,,,,,,,,,,,,,,,,,,,,,,,,,,,,,,,,,,,,,,,,,,,,,,,,,,,,,,,,,,,,,,,,,,,,,,,,,,,,,,,,,,,,,,,,,,,,
,,,,,,,,,,stimuli/images/PICTURE_302.png,FAMILY,5f0550bf5819b18476ee8343,07/28/1955,2020-09-10_00h25.29.714,proactive2,2020.1.2,Win32,60,5f5126bb654d4b30ee6923d8,5f59aa5c573f0e20a8f49cfa,6,,,,,,taxi,,,,,,0,11,11,18,1,2,0,,,,,,,,,,,,,,,,,,,,,,,,,,,,,,,,,,,,,,,,,,,,,,,,,,,,,,,,,,,,,,,,,,,,,,,,,,,,,,,,,,,,,,,,,,,,,,,,,,,
,,,,,,,,,,stimuli/images/PICTURE_654.png,VALLEY,5f0550bf5819b18476ee8343,07/28/1955,2020-09-10_00h25.29.714,proactive2,2020.1.2,Win32,60,5f5126bb654d4b30ee6923d8,5f59aa5c573f0e20a8f49cfa,6,,,,,,pencil,,,,,,0,12,12,1,1,1,0,,,,,,,,,,,,,,,,,,,,,,,,,,,,,,,,,,,,,,,,,,,,,,,,,,,,,,,,,,,,,,,,,,,,,,,,,,,,,,,,,,,,,,,,,,,,,,,,,,,
,,,,,,,,,,stimuli/images/PICTURE_380.png,PHOTO,5f0550bf5819b18476ee8343,07/28/1955,2020-09-10_00h25.29.714,proactive2,2020.1.2,Win32,60,5f5126bb654d4b30ee6923d8,5f59aa5c573f0e20a8f49cfa,6,,,,,,gorilla,,,,,,0,13,13,52,1,6,0,,,,,,,,,,,,,,,,,,,,,,,,,,,,,,,,,,,,,,,,,,,,,,,,,,,,,,,,,,,,,,,,,,,,,,,,,,,,,,,,,,,,,,,,,,,,,,,,,,,
,,,,,,,,,,stimuli/images/PICTURE_147.png,MOMENT,5f0550bf5819b18476ee8343,07/28/1955,2020-09-10_00h25.29.714,proactive2,2020.1.2,Win32,60,5f5126bb654d4b30ee6923d8,5f59aa5c573f0e20a8f49cfa,6,,,,,,hanger,,,,,,0,14,14,51,1,6,0,,,,,,,,,,,,,,,,,,,,,,,,,,,,,,,,,,,,,,,,,,,,,,,,,,,,,,,,,,,,,,,,,,,,,,,,,,,,,,,,,,,,,,,,,,,,,,,,,,,
,,,,,,,,,,stimuli/images/PICTURE_123.png,ADVICE,5f0550bf5819b18476ee8343,07/28/1955,2020-09-10_00h25.29.714,proactive2,2020.1.2,Win32,60,5f5126bb654d4b30ee6923d8,5f59aa5c573f0e20a8f49cfa,6,,,,,,dart,,,,,,0,15,15,40,1,5,0,,,,,,,,,,,,,,,,,,,,,,,,,,,,,,,,,,,,,,,,,,,,,,,,,,,,,,,,,,,,,,,,,,,,,,,,,,,,,,,,,,,,,,,,,,,,,,,,,,,
,,,,,,,,,,stimuli/images/PICTURE_32.png,JUNGLE,5f0550bf5819b18476ee8343,07/28/1955,2020-09-10_00h25.29.714,proactive2,2020.1.2,Win32,60,5f5126bb654d4b30ee6923d8,5f59aa5c573f0e20a8f49cfa,6,,,,,,crown,,,,,,0,16,16,45,1,5,0,,,,,,,,,,,,,,,,,,,,,,,,,,,,,,,,,,,,,,,,,,,,,,,,,,,,,,,,,,,,,,,,,,,,,,,,,,,,,,,,,,,,,,,,,,,,,,,,,,,
,,,,,,,,,,stimuli/images/PICTURE_692.png,MONTH,5f0550bf5819b18476ee8343,07/28/1955,2020-09-10_00h25.29.714,proactive2,2020.1.2,Win32,60,5f5126bb654d4b30ee6923d8,5f59aa5c573f0e20a8f49cfa,6,,,,,,cherry,,,,,,0,17,17,16,1,2,0,,,,,,,,,,,,,,,,,,,,,,,,,,,,,,,,,,,,,,,,,,,,,,,,,,,,,,,,,,,,,,,,,,,,,,,,,,,,,,,,,,,,,,,,,,,,,,,,,,,
,,,,,,,,,,stimuli/images/PICTURE_314.png,GODS,5f0550bf5819b18476ee8343,07/28/1955,2020-09-10_00h25.29.714,proactive2,2020.1.2,Win32,60,5f5126bb654d4b30ee6923d8,5f59aa5c573f0e20a8f49cfa,6,,,,,,perfume,,,,,,0,18,18,11,1,2,0,,,,,,,,,,,,,,,,,,,,,,,,,,,,,,,,,,,,,,,,,,,,,,,,,,,,,,,,,,,,,,,,,,,,,,,,,,,,,,,,,,,,,,,,,,,,,,,,,,,
,,,,,,,,,,stimuli/images/PICTURE_339.png,PLENTY,5f0550bf5819b18476ee8343,07/28/1955,2020-09-10_00h25.29.714,proactive2,2020.1.2,Win32,60,5f5126bb654d4b30ee6923d8,5f59aa5c573f0e20a8f49cfa,6,,,,,,backpack,,,,,,0,19,19,0,1,1,0,,,,,,,,,,,,,,,,,,,,,,,,,,,,,,,,,,,,,,,,,,,,,,,,,,,,,,,,,,,,,,,,,,,,,,,,,,,,,,,,,,,,,,,,,,,,,,,,,,,
,,,,,,,,,,stimuli/images/PICTURE_380.png,DEATH,5f0550bf5819b18476ee8343,07/28/1955,2020-09-10_00h25.29.714,proactive2,2020.1.2,Win32,60,5f5126bb654d4b30ee6923d8,5f59aa5c573f0e20a8f49cfa,6,,,,,,gorilla,,,,,,0,20,20,49,1,5,0,,,,,,,,,,,,,,,,,,,,,,,,,,,,,,,,,,,,,,,,,,,,,,,,,,,,,,,,,,,,,,,,,,,,,,,,,,,,,,,,,,,,,,,,,,,,,,,,,,,
,,,,,,,,,,stimuli/images/PICTURE_327.png,BEAUTY,5f0550bf5819b18476ee8343,07/28/1955,2020-09-10_00h25.29.714,proactive2,2020.1.2,Win32,60,5f5126bb654d4b30ee6923d8,5f59aa5c573f0e20a8f49cfa,6,,,,,,helmet,,,,,,0,21,21,48,1,5,0,,,,,,,,,,,,,,,,,,,,,,,,,,,,,,,,,,,,,,,,,,,,,,,,,,,,,,,,,,,,,,,,,,,,,,,,,,,,,,,,,,,,,,,,,,,,,,,,,,,
,,,,,,,,,,stimuli/images/PICTURE_311.png,BEAUTY,5f0550bf5819b18476ee8343,07/28/1955,2020-09-10_00h25.29.714,proactive2,2020.1.2,Win32,60,5f5126bb654d4b30ee6923d8,5f59aa5c573f0e20a8f49cfa,6,,,,,,razor,,,,,,0,22,22,13,1,2,0,,,,,,,,,,,,,,,,,,,,,,,,,,,,,,,,,,,,,,,,,,,,,,,,,,,,,,,,,,,,,,,,,,,,,,,,,,,,,,,,,,,,,,,,,,,,,,,,,,,
,,,,,,,,,,stimuli/images/PICTURE_356.png,DANGER,5f0550bf5819b18476ee8343,07/28/1955,2020-09-10_00h25.29.714,proactive2,2020.1.2,Win32,60,5f5126bb654d4b30ee6923d8,5f59aa5c573f0e20a8f49cfa,6,,,,,,pawn,,,,,,0,23,23,55,1,6,0,,,,,,,,,,,,,,,,,,,,,,,,,,,,,,,,,,,,,,,,,,,,,,,,,,,,,,,,,,,,,,,,,,,,,,,,,,,,,,,,,,,,,,,,,,,,,,,,,,,
,,,,,,,,,,stimuli/images/PICTURE_504.png,BODY,5f0550bf5819b18476ee8343,07/28/1955,2020-09-10_00h25.29.714,proactive2,2020.1.2,Win32,60,5f5126bb654d4b30ee6923d8,5f59aa5c573f0e20a8f49cfa,6,,,,,,wheel,,,,,,0,24,24,8,1,1,0,,,,,,,,,,,,,,,,,,,,,,,,,,,,,,,,,,,,,,,,,,,,,,,,,,,,,,,,,,,,,,,,,,,,,,,,,,,,,,,,,,,,,,,,,,,,,,,,,,,
,,,,,,,,,,stimuli/images/PICTURE_469.png,ARTIST,5f0550bf5819b18476ee8343,07/28/1955,2020-09-10_00h25.29.714,proactive2,2020.1.2,Win32,60,5f5126bb654d4b30ee6923d8,5f59aa5c573f0e20a8f49cfa,6,,,,,,stool,,,,,,0,25,25,6,1,1,0,,,,,,,,,,,,,,,,,,,,,,,,,,,,,,,,,,,,,,,,,,,,,,,,,,,,,,,,,,,,,,,,,,,,,,,,,,,,,,,,,,,,,,,,,,,,,,,,,,,
,,,,,,,,,,stimuli/images/PICTURE_467.png,DEMON,5f0550bf5819b18476ee8343,07/28/1955,2020-09-10_00h25.29.714,proactive2,2020.1.2,Win32,60,5f5126bb654d4b30ee6923d8,5f59aa5c573f0e20a8f49cfa,6,,,,,,peg,,,,,,0,26,26,23,1,3,0,,,,,,,,,,,,,,,,,,,,,,,,,,,,,,,,,,,,,,,,,,,,,,,,,,,,,,,,,,,,,,,,,,,,,,,,,,,,,,,,,,,,,,,,,,,,,,,,,,,
,,,,,,,,,,stimuli/images/PICTURE_285.png,ADVICE,5f0550bf5819b18476ee8343,07/28/1955,2020-09-10_00h25.29.714,proactive2,2020.1.2,Win32,60,5f5126bb654d4b30ee6923d8,5f59aa5c573f0e20a8f49cfa,6,,,,,,carrot,,,,,,0,27,27,12,1,2,0,,,,,,,,,,,,,,,,,,,,,,,,,,,,,,,,,,,,,,,,,,,,,,,,,,,,,,,,,,,,,,,,,,,,,,,,,,,,,,,,,,,,,,,,,,,,,,,,,,,
,,,,,,,,,,stimuli/images/PICTURE_208.png,THING,5f0550bf5819b18476ee8343,07/28/1955,2020-09-10_00h25.29.714,proactive2,2020.1.2,Win32,60,5f5126bb654d4b30ee6923d8,5f59aa5c573f0e20a8f49cfa,6,,,,,,microphone,,,,,,0,28,28,47,1,5,0,,,,,,,,,,,,,,,,,,,,,,,,,,,,,,,,,,,,,,,,,,,,,,,,,,,,,,,,,,,,,,,,,,,,,,,,,,,,,,,,,,,,,,,,,,,,,,,,,,,
,,,,,,,,,,stimuli/images/PICTURE_667.png,BATH,5f0550bf5819b18476ee8343,07/28/1955,2020-09-10_00h25.29.714,proactive2,2020.1.2,Win32,60,5f5126bb654d4b30ee6923d8,5f59aa5c573f0e20a8f49cfa,6,,,,,,daisy,,,,,,0,29,29,4,1,1,0,,,,,,,,,,,,,,,,,,,,,,,,,,,,,,,,,,,,,,,,,,,,,,,,,,,,,,,,,,,,,,,,,,,,,,,,,,,,,,,,,,,,,,,,,,,,,,,,,,,
,,,,,,,,,,stimuli/images/PICTURE_667.png,PLENTY,5f0550bf5819b18476ee8343,07/28/1955,2020-09-10_00h25.29.714,proactive2,2020.1.2,Win32,60,5f5126bb654d4b30ee6923d8,5f59aa5c573f0e20a8f49cfa,6,,,,,,daisy,,,,,,0,30,30,41,1,5,0,,,,,,,,,,,,,,,,,,,,,,,,,,,,,,,,,,,,,,,,,,,,,,,,,,,,,,,,,,,,,,,,,,,,,,,,,,,,,,,,,,,,,,,,,,,,,,,,,,,
,,,,,,,,,,stimuli/images/PICTURE_95.png,STYLE,5f0550bf5819b18476ee8343,07/28/1955,2020-09-10_00h25.29.714,proactive2,2020.1.2,Win32,60,5f5126bb654d4b30ee6923d8,5f59aa5c573f0e20a8f49cfa,6,,,,,,suitcase,,,,,,0,31,31,25,1,3,0,,,,,,,,,,,,,,,,,,,,,,,,,,,,,,,,,,,,,,,,,,,,,,,,,,,,,,,,,,,,,,,,,,,,,,,,,,,,,,,,,,,,,,,,,,,,,,,,,,,
,,,,,,,,,,stimuli/images/PICTURE_677.png,MILE,5f0550bf5819b18476ee8343,07/28/1955,2020-09-10_00h25.29.714,proactive2,2020.1.2,Win32,60,5f5126bb654d4b30ee6923d8,5f59aa5c573f0e20a8f49cfa,6,,,,,,map,,,,,,0,32,32,30,1,4,0,,,,,,,,,,,,,,,,,,,,,,,,,,,,,,,,,,,,,,,,,,,,,,,,,,,,,,,,,,,,,,,,,,,,,,,,,,,,,,,,,,,,,,,,,,,,,,,,,,,
,,,,,,,,,,stimuli/images/PICTURE_85.png,THING,5f0550bf5819b18476ee8343,07/28/1955,2020-09-10_00h25.29.714,proactive2,2020.1.2,Win32,60,5f5126bb654d4b30ee6923d8,5f59aa5c573f0e20a8f49cfa,6,,,,,,diamond,,,,,,0,33,33,15,1,2,0,,,,,,,,,,,,,,,,,,,,,,,,,,,,,,,,,,,,,,,,,,,,,,,,,,,,,,,,,,,,,,,,,,,,,,,,,,,,,,,,,,,,,,,,,,,,,,,,,,,
,,,,,,,,,,stimuli/images/PICTURE_491.png,ROOF,5f0550bf5819b18476ee8343,07/28/1955,2020-09-10_00h25.29.714,proactive2,2020.1.2,Win32,60,5f5126bb654d4b30ee6923d8,5f59aa5c573f0e20a8f49cfa,6,,,,,,rug,,,,,,0,34,34,24,1,3,0,,,,,,,,,,,,,,,,,,,,,,,,,,,,,,,,,,,,,,,,,,,,,,,,,,,,,,,,,,,,,,,,,,,,,,,,,,,,,,,,,,,,,,,,,,,,,,,,,,,
,,,,,,,,,,stimuli/images/PICTURE_688.png,CASINO,5f0550bf5819b18476ee8343,07/28/1955,2020-09-10_00h25.29.714,proactive2,2020.1.2,Win32,60,5f5126bb654d4b30ee6923d8,5f59aa5c573f0e20a8f49cfa,6,,,,,,runner,,,,,,0,35,35,2,1,1,0,,,,,,,,,,,,,,,,,,,,,,,,,,,,,,,,,,,,,,,,,,,,,,,,,,,,,,,,,,,,,,,,,,,,,,,,,,,,,,,,,,,,,,,,,,,,,,,,,,,
,,,,,,,,,,stimuli/images/PICTURE_151.png,GIRL,5f0550bf5819b18476ee8343,07/28/1955,2020-09-10_00h25.29.714,proactive2,2020.1.2,Win32,60,5f5126bb654d4b30ee6923d8,5f59aa5c573f0e20a8f49cfa,6,,,,,,tray,,,,,,0,36,36,19,1,2,0,,,,,,,,,,,,,,,,,,,,,,,,,,,,,,,,,,,,,,,,,,,,,,,,,,,,,,,,,,,,,,,,,,,,,,,,,,,,,,,,,,,,,,,,,,,,,,,,,,,
,,,,,,,,,,stimuli/images/PICTURE_208.png,LOTS,5f0550bf5819b18476ee8343,07/28/1955,2020-09-10_00h25.29.714,proactive2,2020.1.2,Win32,60,5f5126bb654d4b30ee6923d8,5f59aa5c573f0e20a8f49cfa,6,,,,,,microphone,,,,,,0,37,37,10,1,2,0,,,,,,,,,,,,,,,,,,,,,,,,,,,,,,,,,,,,,,,,,,,,,,,,,,,,,,,,,,,,,,,,,,,,,,,,,,,,,,,,,,,,,,,,,,,,,,,,,,,
,,,,,,,,,,stimuli/images/PICTURE_449.png,THING,5f0550bf5819b18476ee8343,07/28/1955,2020-09-10_00h25.29.714,proactive2,2020.1.2,Win32,60,5f5126bb654d4b30ee6923d8,5f59aa5c573f0e20a8f49cfa,6,,,,,,bench,,,,,,0,38,38,59,1,6,0,,,,,,,,,,,,,,,,,,,,,,,,,,,,,,,,,,,,,,,,,,,,,,,,,,,,,,,,,,,,,,,,,,,,,,,,,,,,,,,,,,,,,,,,,,,,,,,,,,,
,,,,,,,,,,stimuli/images/PICTURE_708.png,YARD,5f0550bf5819b18476ee8343,07/28/1955,2020-09-10_00h25.29.714,proactive2,2020.1.2,Win32,60,5f5126bb654d4b30ee6923d8,5f59aa5c573f0e20a8f49cfa,6,,,,,,monkey,,,,,,0,39,39,29,1,3,0,,,,,,,,,,,,,,,,,,,,,,,,,,,,,,,,,,,,,,,,,,,,,,,,,,,,,,,,,,,,,,,,,,,,,,,,,,,,,,,,,,,,,,,,,,,,,,,,,,,
,,,,,,,,,,stimuli/images/PICTURE_215.png,PLENTY,5f0550bf5819b18476ee8343,07/28/1955,2020-09-10_00h25.29.714,proactive2,2020.1.2,Win32,60,5f5126bb654d4b30ee6923d8,5f59aa5c573f0e20a8f49cfa,6,,,,,,boot,,,,,,0,40,40,37,1,4,0,,,,,,,,,,,,,,,,,,,,,,,,,,,,,,,,,,,,,,,,,,,,,,,,,,,,,,,,,,,,,,,,,,,,,,,,,,,,,,,,,,,,,,,,,,,,,,,,,,,
,,,,,,,,,,stimuli/images/PICTURE_255.png,AREA,5f0550bf5819b18476ee8343,07/28/1955,2020-09-10_00h25.29.714,proactive2,2020.1.2,Win32,60,5f5126bb654d4b30ee6923d8,5f59aa5c573f0e20a8f49cfa,6,,,,,,shovel,,,,,,0,41,41,22,1,3,0,,,,,,,,,,,,,,,,,,,,,,,,,,,,,,,,,,,,,,,,,,,,,,,,,,,,,,,,,,,,,,,,,,,,,,,,,,,,,,,,,,,,,,,,,,,,,,,,,,,
,,,,,,,,,,stimuli/images/PICTURE_470.png,CASINO,5f0550bf5819b18476ee8343,07/28/1955,2020-09-10_00h25.29.714,proactive2,2020.1.2,Win32,60,5f5126bb654d4b30ee6923d8,5f59aa5c573f0e20a8f49cfa,6,,,,,,motorbike,,,,,,0,42,42,36,1,4,0,,,,,,,,,,,,,,,,,,,,,,,,,,,,,,,,,,,,,,,,,,,,,,,,,,,,,,,,,,,,,,,,,,,,,,,,,,,,,,,,,,,,,,,,,,,,,,,,,,,
,,,,,,,,,,stimuli/images/PICTURE_708.png,CLIENT,5f0550bf5819b18476ee8343,07/28/1955,2020-09-10_00h25.29.714,proactive2,2020.1.2,Win32,60,5f5126bb654d4b30ee6923d8,5f59aa5c573f0e20a8f49cfa,6,,,,,,monkey,,,,,,0,43,43,5,1,1,0,,,,,,,,,,,,,,,,,,,,,,,,,,,,,,,,,,,,,,,,,,,,,,,,,,,,,,,,,,,,,,,,,,,,,,,,,,,,,,,,,,,,,,,,,,,,,,,,,,,
,,,,,,,,,,stimuli/images/PICTURE_708.png,PENNY,5f0550bf5819b18476ee8343,07/28/1955,2020-09-10_00h25.29.714,proactive2,2020.1.2,Win32,60,5f5126bb654d4b30ee6923d8,5f59aa5c573f0e20a8f49cfa,6,,,,,,monkey,,,,,,0,44,44,31,1,4,0,,,,,,,,,,,,,,,,,,,,,,,,,,,,,,,,,,,,,,,,,,,,,,,,,,,,,,,,,,,,,,,,,,,,,,,,,,,,,,,,,,,,,,,,,,,,,,,,,,,
,,,,,,,,,,stimuli/images/PICTURE_160.png,LEADER,5f0550bf5819b18476ee8343,07/28/1955,2020-09-10_00h25.29.714,proactive2,2020.1.2,Win32,60,5f5126bb654d4b30ee6923d8,5f59aa5c573f0e20a8f49cfa,6,,,,,,wheelbarrow,,,,,,0,45,45,3,1,1,0,,,,,,,,,,,,,,,,,,,,,,,,,,,,,,,,,,,,,,,,,,,,,,,,,,,,,,,,,,,,,,,,,,,,,,,,,,,,,,,,,,,,,,,,,,,,,,,,,,,
,,,,,,,,,,stimuli/images/PICTURE_308.png,ESTATE,5f0550bf5819b18476ee8343,07/28/1955,2020-09-10_00h25.29.714,proactive2,2020.1.2,Win32,60,5f5126bb654d4b30ee6923d8,5f59aa5c573f0e20a8f49cfa,6,,,,,,dice,,,,,,0,46,46,46,1,5,0,,,,,,,,,,,,,,,,,,,,,,,,,,,,,,,,,,,,,,,,,,,,,,,,,,,,,,,,,,,,,,,,,,,,,,,,,,,,,,,,,,,,,,,,,,,,,,,,,,,
,,,,,,,,,,stimuli/images/PICTURE_311.png,FRIEND,5f0550bf5819b18476ee8343,07/28/1955,2020-09-10_00h25.29.714,proactive2,2020.1.2,Win32,60,5f5126bb654d4b30ee6923d8,5f59aa5c573f0e20a8f49cfa,6,,,,,,razor,,,,,,0,47,47,34,1,4,0,,,,,,,,,,,,,,,,,,,,,,,,,,,,,,,,,,,,,,,,,,,,,,,,,,,,,,,,,,,,,,,,,,,,,,,,,,,,,,,,,,,,,,,,,,,,,,,,,,,
,,,,,,,,,,stimuli/images/PICTURE_453.png,PLENTY,5f0550bf5819b18476ee8343,07/28/1955,2020-09-10_00h25.29.714,proactive2,2020.1.2,Win32,60,5f5126bb654d4b30ee6923d8,5f59aa5c573f0e20a8f49cfa,6,,,,,,scissors,,,,,,0,48,48,56,1,6,0,,,,,,,,,,,,,,,,,,,,,,,,,,,,,,,,,,,,,,,,,,,,,,,,,,,,,,,,,,,,,,,,,,,,,,,,,,,,,,,,,,,,,,,,,,,,,,,,,,,
,,,,,,,,,,stimuli/images/PICTURE_177.png,CARS,5f0550bf5819b18476ee8343,07/28/1955,2020-09-10_00h25.29.714,proactive2,2020.1.2,Win32,60,5f5126bb654d4b30ee6923d8,5f59aa5c573f0e20a8f49cfa,6,,,,,,mushroom,,,,,,0,49,49,35,1,4,0,,,,,,,,,,,,,,,,,,,,,,,,,,,,,,,,,,,,,,,,,,,,,,,,,,,,,,,,,,,,,,,,,,,,,,,,,,,,,,,,,,,,,,,,,,,,,,,,,,,
