consent_key.keys,consent_key.rt,recalled,recalled_rt,recall_acc,example_recall.thisRepN,example_recall.thisTrialN,example_recall.thisN,example_recall.thisIndex,example_recall.ran,file,word,participant,please enter your date of birth (dd/mm/yyyy),date,expName,psychopyVersion,OS,frameRate,STUDY_ID,SESSION_ID,list,prac_learn_study_loop.thisRepN,prac_learn_study_loop.thisTrialN,prac_learn_study_loop.thisN,prac_learn_study_loop.thisIndex,prac_learn_study_loop.ran,image,prac_learn_test_loop.thisRepN,prac_learn_test_loop.thisTrialN,prac_learn_test_loop.thisN,prac_learn_test_loop.thisIndex,prac_learn_test_loop.ran,learn_study_loop.thisRepN,learn_study_loop.thisTrialN,learn_study_loop.thisN,learn_study_loop.thisIndex,learn_study_loop.ran,list_no,block_no,learn_test_loop.thisRepN,learn_test_loop.thisTrialN,learn_test_loop.thisN,learn_test_loop.thisIndex,learn_test_loop.ran,learn_blocks.thisRepN,learn_blocks.thisTrialN,learn_blocks.thisN,learn_blocks.thisIndex,learn_blocks.ran,block_csv,key_resp_13.keys,key_resp_13.rt,learn_blocks_loop.thisRepN,learn_blocks_loop.thisTrialN,learn_blocks_loop.thisN,learn_blocks_loop.thisIndex,learn_blocks_loop.ran,final_learn_test.thisRepN,final_learn_test.thisTrialN,final_learn_test.thisN,final_learn_test.thisIndex,final_learn_test.ran,s_im1,s_im2,s_im3,s_im4,s_im5,s_im6,s_im7,s_im8,s_im1pos,s_im2pos,s_im3pos,s_im4pos,s_im5pos,s_im6pos,s_im7pos,s_im8pos,s_tarright,search_resp.keys,search_loop.thisRepN,search_loop.thisTrialN,search_loop.thisN,search_loop.thisIndex,search_loop.ran,search_resp.rt,prac_wm_test_loop.thisRepN,prac_wm_test_loop.thisTrialN,prac_wm_test_loop.thisN,prac_wm_test_loop.thisIndex,prac_wm_test_loop.ran,wm_recalled1,wm_recall_rt1,wm_probed1,wm_recall_acc1,wm_recalled2,wm_recall_rt2,wm_probed2,wm_recall_acc2,wm_recalled3,wm_recall_rt3,wm_probed3,wm_recall_acc3,wm_recalled4,wm_recall_rt4,wm_probed4,wm_recall_acc4,prac_wm_trial_loop.thisRepN,prac_wm_trial_loop.thisTrialN,prac_wm_trial_loop.thisN,prac_wm_trial_loop.thisIndex,prac_wm_trial_loop.ran,word1,image1,file1,item_type1,word2,image2,file2,item_type2,word4,image4,file4,item_type4,word3,image3,file3,item_type3,wm_test_loop.thisRepN,wm_test_loop.thisTrialN,wm_test_loop.thisN,wm_test_loop.thisIndex,wm_test_loop.ran,wm_trial_loop.thisRepN,wm_trial_loop.thisTrialN,wm_trial_loop.thisN,wm_trial_loop.thisIndex,wm_trial_loop.ran
y,100.97749,BATHTUB,9.893875,0,0,0,0,0,1,stimuli/images/PICTURE_747.png,TOUGH,5f086c5550e36f072d79b37f,23/10/1995,2020-08-13_09h06.03.052,proactive2,2020.1.2,Win32,60,5f341be081b9052c55068110,5f3528e380fd884939cbf354,6,,,,,,,,,,,,,,,,,,,,,,,,,,,,,,,,,,,,,,,,,,,,,,,,,,,,,,,,,,,,,,,,,,,,,,,,,,,,,,,,,,,,,,,,,,,,,,,,,,,,,,,,,,,,,,,,,,,,,
,,,,,,,,,,stimuli/images/PICTURE_378.png,LOSS,5f086c5550e36f072d79b37f,23/10/1995,2020-08-13_09h06.03.052,proactive2,2020.1.2,Win32,60,5f341be081b9052c55068110,5f3528e380fd884939cbf354,6,0,0,0,2,1,lobster,,,,,,,,,,,,,,,,,,,,,,,,,,,,,,,,,,,,,,,,,,,,,,,,,,,,,,,,,,,,,,,,,,,,,,,,,,,,,,,,,,,,,,,,,,,,,,,,,,,,,,,,,,,,,,,
,,,,,,,,,,stimuli/images/PICTURE_697.png,KILLER,5f086c5550e36f072d79b37f,23/10/1995,2020-08-13_09h06.03.052,proactive2,2020.1.2,Win32,60,5f341be081b9052c55068110,5f3528e380fd884939cbf354,6,0,1,1,4,1,peach,,,,,,,,,,,,,,,,,,,,,,,,,,,,,,,,,,,,,,,,,,,,,,,,,,,,,,,,,,,,,,,,,,,,,,,,,,,,,,,,,,,,,,,,,,,,,,,,,,,,,,,,,,,,,,,
,,,,,,,,,,stimuli/images/PICTURE_727.png,CELL,5f086c5550e36f072d79b37f,23/10/1995,2020-08-13_09h06.03.052,proactive2,2020.1.2,Win32,60,5f341be081b9052c55068110,5f3528e380fd884939cbf354,6,0,2,2,1,1,hose,,,,,,,,,,,,,,,,,,,,,,,,,,,,,,,,,,,,,,,,,,,,,,,,,,,,,,,,,,,,,,,,,,,,,,,,,,,,,,,,,,,,,,,,,,,,,,,,,,,,,,,,,,,,,,,
,,,,,,,,,,stimuli/images/PICTURE_269.png,GENIUS,5f086c5550e36f072d79b37f,23/10/1995,2020-08-13_09h06.03.052,proactive2,2020.1.2,Win32,60,5f341be081b9052c55068110,5f3528e380fd884939cbf354,6,0,3,3,0,1,chameleon,,,,,,,,,,,,,,,,,,,,,,,,,,,,,,,,,,,,,,,,,,,,,,,,,,,,,,,,,,,,,,,,,,,,,,,,,,,,,,,,,,,,,,,,,,,,,,,,,,,,,,,,,,,,,,,
,,PIPEHOST,8.67456,0,,,,,,stimuli/images/PICTURE_727.png,CELL,5f086c5550e36f072d79b37f,23/10/1995,2020-08-13_09h06.03.052,proactive2,2020.1.2,Win32,60,5f341be081b9052c55068110,5f3528e380fd884939cbf354,6,,,,,,hose,0,0,0,1,1,,,,,,,,,,,,,,,,,,,,,,,,,,,,,,,,,,,,,,,,,,,,,,,,,,,,,,,,,,,,,,,,,,,,,,,,,,,,,,,,,,,,,,,,,,,,,,,,,,,,,,,,,,
,,CAMELOON,8.254185,0,,,,,,stimuli/images/PICTURE_269.png,GENIUS,5f086c5550e36f072d79b37f,23/10/1995,2020-08-13_09h06.03.052,proactive2,2020.1.2,Win32,60,5f341be081b9052c55068110,5f3528e380fd884939cbf354,6,,,,,,chameleon,0,1,1,0,1,,,,,,,,,,,,,,,,,,,,,,,,,,,,,,,,,,,,,,,,,,,,,,,,,,,,,,,,,,,,,,,,,,,,,,,,,,,,,,,,,,,,,,,,,,,,,,,,,,,,,,,,,,
,,?,15.02692,0,,,,,,stimuli/images/PICTURE_378.png,LOSS,5f086c5550e36f072d79b37f,23/10/1995,2020-08-13_09h06.03.052,proactive2,2020.1.2,Win32,60,5f341be081b9052c55068110,5f3528e380fd884939cbf354,6,,,,,,lobster,0,2,2,2,1,,,,,,,,,,,,,,,,,,,,,,,,,,,,,,,,,,,,,,,,,,,,,,,,,,,,,,,,,,,,,,,,,,,,,,,,,,,,,,,,,,,,,,,,,,,,,,,,,,,,,,,,,,
,,DEVIL,5.20737,1,,,,,,stimuli/images/PICTURE_658.png,DEVIL,5f086c5550e36f072d79b37f,23/10/1995,2020-08-13_09h06.03.052,proactive2,2020.1.2,Win32,60,5f341be081b9052c55068110,5f3528e380fd884939cbf354,6,,,,,,crow,0,3,3,3,1,,,,,,,,,,,,,,,,,,,,,,,,,,,,,,,,,,,,,,,,,,,,,,,,,,,,,,,,,,,,,,,,,,,,,,,,,,,,,,,,,,,,,,,,,,,,,,,,,,,,,,,,,,
,,?,15.002125,0,,,,,,stimuli/images/PICTURE_697.png,KILLER,5f086c5550e36f072d79b37f,23/10/1995,2020-08-13_09h06.03.052,proactive2,2020.1.2,Win32,60,5f341be081b9052c55068110,5f3528e380fd884939cbf354,6,,,,,,peach,0,4,4,4,1,,,,,,,,,,,,,,,,,,,,,,,,,,,,,,,,,,,,,,,,,,,,,,,,,,,,,,,,,,,,,,,,,,,,,,,,,,,,,,,,,,,,,,,,,,,,,,,,,,,,,,,,,,
,,,,,,,,,,stimuli/images/PICTURE_18.png,RIVER,5f086c5550e36f072d79b37f,23/10/1995,2020-08-13_09h06.03.052,proactive2,2020.1.2,Win32,60,5f341be081b9052c55068110,5f3528e380fd884939cbf354,6,,,,,,planet,,,,,,0,0,0,22,1,3,2,,,,,,,,,,,,,,,,,,,,,,,,,,,,,,,,,,,,,,,,,,,,,,,,,,,,,,,,,,,,,,,,,,,,,,,,,,,,,,,,,,,,,,,,,,,,,,,,,,,
,,,,,,,,,,stimuli/images/PICTURE_677.png,PHOTO,5f086c5550e36f072d79b37f,23/10/1995,2020-08-13_09h06.03.052,proactive2,2020.1.2,Win32,60,5f341be081b9052c55068110,5f3528e380fd884939cbf354,6,,,,,,map,,,,,,0,1,1,14,1,2,2,,,,,,,,,,,,,,,,,,,,,,,,,,,,,,,,,,,,,,,,,,,,,,,,,,,,,,,,,,,,,,,,,,,,,,,,,,,,,,,,,,,,,,,,,,,,,,,,,,,
,,,,,,,,,,stimuli/images/PICTURE_33.png,COPS,5f086c5550e36f072d79b37f,23/10/1995,2020-08-13_09h06.03.052,proactive2,2020.1.2,Win32,60,5f341be081b9052c55068110,5f3528e380fd884939cbf354,6,,,,,,frame,,,,,,0,2,2,29,1,3,2,,,,,,,,,,,,,,,,,,,,,,,,,,,,,,,,,,,,,,,,,,,,,,,,,,,,,,,,,,,,,,,,,,,,,,,,,,,,,,,,,,,,,,,,,,,,,,,,,,,
,,,,,,,,,,stimuli/images/PICTURE_2.png,YARD,5f086c5550e36f072d79b37f,23/10/1995,2020-08-13_09h06.03.052,proactive2,2020.1.2,Win32,60,5f341be081b9052c55068110,5f3528e380fd884939cbf354,6,,,,,,tyre,,,,,,0,3,3,55,1,6,2,,,,,,,,,,,,,,,,,,,,,,,,,,,,,,,,,,,,,,,,,,,,,,,,,,,,,,,,,,,,,,,,,,,,,,,,,,,,,,,,,,,,,,,,,,,,,,,,,,,
,,,,,,,,,,stimuli/images/PICTURE_160.png,HOTEL,5f086c5550e36f072d79b37f,23/10/1995,2020-08-13_09h06.03.052,proactive2,2020.1.2,Win32,60,5f341be081b9052c55068110,5f3528e380fd884939cbf354,6,,,,,,wheelbarrow,,,,,,0,4,4,16,1,2,2,,,,,,,,,,,,,,,,,,,,,,,,,,,,,,,,,,,,,,,,,,,,,,,,,,,,,,,,,,,,,,,,,,,,,,,,,,,,,,,,,,,,,,,,,,,,,,,,,,,
,,,,,,,,,,stimuli/images/PICTURE_509.png,APPLE,5f086c5550e36f072d79b37f,23/10/1995,2020-08-13_09h06.03.052,proactive2,2020.1.2,Win32,60,5f341be081b9052c55068110,5f3528e380fd884939cbf354,6,,,,,,telephone,,,,,,0,5,5,38,1,4,2,,,,,,,,,,,,,,,,,,,,,,,,,,,,,,,,,,,,,,,,,,,,,,,,,,,,,,,,,,,,,,,,,,,,,,,,,,,,,,,,,,,,,,,,,,,,,,,,,,,
,,,,,,,,,,stimuli/images/PICTURE_504.png,HOUSE,5f086c5550e36f072d79b37f,23/10/1995,2020-08-13_09h06.03.052,proactive2,2020.1.2,Win32,60,5f341be081b9052c55068110,5f3528e380fd884939cbf354,6,,,,,,wheel,,,,,,0,6,6,36,1,4,2,,,,,,,,,,,,,,,,,,,,,,,,,,,,,,,,,,,,,,,,,,,,,,,,,,,,,,,,,,,,,,,,,,,,,,,,,,,,,,,,,,,,,,,,,,,,,,,,,,,
,,,,,,,,,,stimuli/images/PICTURE_692.png,DUDE,5f086c5550e36f072d79b37f,23/10/1995,2020-08-13_09h06.03.052,proactive2,2020.1.2,Win32,60,5f341be081b9052c55068110,5f3528e380fd884939cbf354,6,,,,,,cherry,,,,,,0,7,7,47,1,5,2,,,,,,,,,,,,,,,,,,,,,,,,,,,,,,,,,,,,,,,,,,,,,,,,,,,,,,,,,,,,,,,,,,,,,,,,,,,,,,,,,,,,,,,,,,,,,,,,,,,
,,,,,,,,,,stimuli/images/PICTURE_327.png,LEADER,5f086c5550e36f072d79b37f,23/10/1995,2020-08-13_09h06.03.052,proactive2,2020.1.2,Win32,60,5f341be081b9052c55068110,5f3528e380fd884939cbf354,6,,,,,,helmet,,,,,,0,8,8,17,1,2,2,,,,,,,,,,,,,,,,,,,,,,,,,,,,,,,,,,,,,,,,,,,,,,,,,,,,,,,,,,,,,,,,,,,,,,,,,,,,,,,,,,,,,,,,,,,,,,,,,,,
,,,,,,,,,,stimuli/images/PICTURE_311.png,FLESH,5f086c5550e36f072d79b37f,23/10/1995,2020-08-13_09h06.03.052,proactive2,2020.1.2,Win32,60,5f341be081b9052c55068110,5f3528e380fd884939cbf354,6,,,,,,razor,,,,,,0,9,9,3,1,1,2,,,,,,,,,,,,,,,,,,,,,,,,,,,,,,,,,,,,,,,,,,,,,,,,,,,,,,,,,,,,,,,,,,,,,,,,,,,,,,,,,,,,,,,,,,,,,,,,,,,
,,,,,,,,,,stimuli/images/PICTURE_215.png,FOOD,5f086c5550e36f072d79b37f,23/10/1995,2020-08-13_09h06.03.052,proactive2,2020.1.2,Win32,60,5f341be081b9052c55068110,5f3528e380fd884939cbf354,6,,,,,,boot,,,,,,0,10,10,5,1,1,2,,,,,,,,,,,,,,,,,,,,,,,,,,,,,,,,,,,,,,,,,,,,,,,,,,,,,,,,,,,,,,,,,,,,,,,,,,,,,,,,,,,,,,,,,,,,,,,,,,,
,,,,,,,,,,stimuli/images/PICTURE_470.png,BEAUTY,5f086c5550e36f072d79b37f,23/10/1995,2020-08-13_09h06.03.052,proactive2,2020.1.2,Win32,60,5f341be081b9052c55068110,5f3528e380fd884939cbf354,6,,,,,,motorbike,,,,,,0,11,11,26,1,3,2,,,,,,,,,,,,,,,,,,,,,,,,,,,,,,,,,,,,,,,,,,,,,,,,,,,,,,,,,,,,,,,,,,,,,,,,,,,,,,,,,,,,,,,,,,,,,,,,,,,
,,,,,,,,,,stimuli/images/PICTURE_296.png,CLOCK,5f086c5550e36f072d79b37f,23/10/1995,2020-08-13_09h06.03.052,proactive2,2020.1.2,Win32,60,5f341be081b9052c55068110,5f3528e380fd884939cbf354,6,,,,,,bolt,,,,,,0,12,12,18,1,2,2,,,,,,,,,,,,,,,,,,,,,,,,,,,,,,,,,,,,,,,,,,,,,,,,,,,,,,,,,,,,,,,,,,,,,,,,,,,,,,,,,,,,,,,,,,,,,,,,,,,
,,,,,,,,,,stimuli/images/PICTURE_95.png,NIGHT,5f086c5550e36f072d79b37f,23/10/1995,2020-08-13_09h06.03.052,proactive2,2020.1.2,Win32,60,5f341be081b9052c55068110,5f3528e380fd884939cbf354,6,,,,,,suitcase,,,,,,0,13,13,37,1,4,2,,,,,,,,,,,,,,,,,,,,,,,,,,,,,,,,,,,,,,,,,,,,,,,,,,,,,,,,,,,,,,,,,,,,,,,,,,,,,,,,,,,,,,,,,,,,,,,,,,,
,,,,,,,,,,stimuli/images/PICTURE_708.png,VALLEY,5f086c5550e36f072d79b37f,23/10/1995,2020-08-13_09h06.03.052,proactive2,2020.1.2,Win32,60,5f341be081b9052c55068110,5f3528e380fd884939cbf354,6,,,,,,monkey,,,,,,0,14,14,45,1,5,2,,,,,,,,,,,,,,,,,,,,,,,,,,,,,,,,,,,,,,,,,,,,,,,,,,,,,,,,,,,,,,,,,,,,,,,,,,,,,,,,,,,,,,,,,,,,,,,,,,,
,,,,,,,,,,stimuli/images/PICTURE_215.png,BOYS,5f086c5550e36f072d79b37f,23/10/1995,2020-08-13_09h06.03.052,proactive2,2020.1.2,Win32,60,5f341be081b9052c55068110,5f3528e380fd884939cbf354,6,,,,,,boot,,,,,,0,15,15,24,1,3,2,,,,,,,,,,,,,,,,,,,,,,,,,,,,,,,,,,,,,,,,,,,,,,,,,,,,,,,,,,,,,,,,,,,,,,,,,,,,,,,,,,,,,,,,,,,,,,,,,,,
,,,,,,,,,,stimuli/images/PICTURE_147.png,LEADER,5f086c5550e36f072d79b37f,23/10/1995,2020-08-13_09h06.03.052,proactive2,2020.1.2,Win32,60,5f341be081b9052c55068110,5f3528e380fd884939cbf354,6,,,,,,hanger,,,,,,0,16,16,33,1,4,2,,,,,,,,,,,,,,,,,,,,,,,,,,,,,,,,,,,,,,,,,,,,,,,,,,,,,,,,,,,,,,,,,,,,,,,,,,,,,,,,,,,,,,,,,,,,,,,,,,,
,,,,,,,,,,stimuli/images/PICTURE_487.png,ROOF,5f086c5550e36f072d79b37f,23/10/1995,2020-08-13_09h06.03.052,proactive2,2020.1.2,Win32,60,5f341be081b9052c55068110,5f3528e380fd884939cbf354,6,,,,,,basket,,,,,,0,17,17,50,1,6,2,,,,,,,,,,,,,,,,,,,,,,,,,,,,,,,,,,,,,,,,,,,,,,,,,,,,,,,,,,,,,,,,,,,,,,,,,,,,,,,,,,,,,,,,,,,,,,,,,,,
,,,,,,,,,,stimuli/images/PICTURE_564.png,PLENTY,5f086c5550e36f072d79b37f,23/10/1995,2020-08-13_09h06.03.052,proactive2,2020.1.2,Win32,60,5f341be081b9052c55068110,5f3528e380fd884939cbf354,6,,,,,,spoon,,,,,,0,18,18,11,1,2,2,,,,,,,,,,,,,,,,,,,,,,,,,,,,,,,,,,,,,,,,,,,,,,,,,,,,,,,,,,,,,,,,,,,,,,,,,,,,,,,,,,,,,,,,,,,,,,,,,,,
,,,,,,,,,,stimuli/images/PICTURE_405.png,JUNGLE,5f086c5550e36f072d79b37f,23/10/1995,2020-08-13_09h06.03.052,proactive2,2020.1.2,Win32,60,5f341be081b9052c55068110,5f3528e380fd884939cbf354,6,,,,,,anchor,,,,,,0,19,19,58,1,6,2,,,,,,,,,,,,,,,,,,,,,,,,,,,,,,,,,,,,,,,,,,,,,,,,,,,,,,,,,,,,,,,,,,,,,,,,,,,,,,,,,,,,,,,,,,,,,,,,,,,
,,,,,,,,,,stimuli/images/PICTURE_93.png,GIRL,5f086c5550e36f072d79b37f,23/10/1995,2020-08-13_09h06.03.052,proactive2,2020.1.2,Win32,60,5f341be081b9052c55068110,5f3528e380fd884939cbf354,6,,,,,,skateboard,,,,,,0,20,20,31,1,4,2,,,,,,,,,,,,,,,,,,,,,,,,,,,,,,,,,,,,,,,,,,,,,,,,,,,,,,,,,,,,,,,,,,,,,,,,,,,,,,,,,,,,,,,,,,,,,,,,,,,
,,,,,,,,,,stimuli/images/PICTURE_452.png,COPS,5f086c5550e36f072d79b37f,23/10/1995,2020-08-13_09h06.03.052,proactive2,2020.1.2,Win32,60,5f341be081b9052c55068110,5f3528e380fd884939cbf354,6,,,,,,watch,,,,,,0,21,21,0,1,1,2,,,,,,,,,,,,,,,,,,,,,,,,,,,,,,,,,,,,,,,,,,,,,,,,,,,,,,,,,,,,,,,,,,,,,,,,,,,,,,,,,,,,,,,,,,,,,,,,,,,
,,,,,,,,,,stimuli/images/PICTURE_348.png,TOILET,5f086c5550e36f072d79b37f,23/10/1995,2020-08-13_09h06.03.052,proactive2,2020.1.2,Win32,60,5f341be081b9052c55068110,5f3528e380fd884939cbf354,6,,,,,,pepper,,,,,,0,22,22,4,1,1,2,,,,,,,,,,,,,,,,,,,,,,,,,,,,,,,,,,,,,,,,,,,,,,,,,,,,,,,,,,,,,,,,,,,,,,,,,,,,,,,,,,,,,,,,,,,,,,,,,,,
,,,,,,,,,,stimuli/images/PICTURE_509.png,MILLER,5f086c5550e36f072d79b37f,23/10/1995,2020-08-13_09h06.03.052,proactive2,2020.1.2,Win32,60,5f341be081b9052c55068110,5f3528e380fd884939cbf354,6,,,,,,telephone,,,,,,0,23,23,49,1,5,2,,,,,,,,,,,,,,,,,,,,,,,,,,,,,,,,,,,,,,,,,,,,,,,,,,,,,,,,,,,,,,,,,,,,,,,,,,,,,,,,,,,,,,,,,,,,,,,,,,,
,,,,,,,,,,stimuli/images/PICTURE_297.png,BODY,5f086c5550e36f072d79b37f,23/10/1995,2020-08-13_09h06.03.052,proactive2,2020.1.2,Win32,60,5f341be081b9052c55068110,5f3528e380fd884939cbf354,6,,,,,,aeroplane,,,,,,0,24,24,51,1,6,2,,,,,,,,,,,,,,,,,,,,,,,,,,,,,,,,,,,,,,,,,,,,,,,,,,,,,,,,,,,,,,,,,,,,,,,,,,,,,,,,,,,,,,,,,,,,,,,,,,,
,,,,,,,,,,stimuli/images/PICTURE_509.png,BATH,5f086c5550e36f072d79b37f,23/10/1995,2020-08-13_09h06.03.052,proactive2,2020.1.2,Win32,60,5f341be081b9052c55068110,5f3528e380fd884939cbf354,6,,,,,,telephone,,,,,,0,25,25,15,1,2,2,,,,,,,,,,,,,,,,,,,,,,,,,,,,,,,,,,,,,,,,,,,,,,,,,,,,,,,,,,,,,,,,,,,,,,,,,,,,,,,,,,,,,,,,,,,,,,,,,,,
,,,,,,,,,,stimuli/images/PICTURE_677.png,FAMILY,5f086c5550e36f072d79b37f,23/10/1995,2020-08-13_09h06.03.052,proactive2,2020.1.2,Win32,60,5f341be081b9052c55068110,5f3528e380fd884939cbf354,6,,,,,,map,,,,,,0,26,26,53,1,6,2,,,,,,,,,,,,,,,,,,,,,,,,,,,,,,,,,,,,,,,,,,,,,,,,,,,,,,,,,,,,,,,,,,,,,,,,,,,,,,,,,,,,,,,,,,,,,,,,,,,
,,,,,,,,,,stimuli/images/PICTURE_470.png,MOMENT,5f086c5550e36f072d79b37f,23/10/1995,2020-08-13_09h06.03.052,proactive2,2020.1.2,Win32,60,5f341be081b9052c55068110,5f3528e380fd884939cbf354,6,,,,,,motorbike,,,,,,0,27,27,40,1,5,2,,,,,,,,,,,,,,,,,,,,,,,,,,,,,,,,,,,,,,,,,,,,,,,,,,,,,,,,,,,,,,,,,,,,,,,,,,,,,,,,,,,,,,,,,,,,,,,,,,,
,,,,,,,,,,stimuli/images/PICTURE_405.png,HOUSE,5f086c5550e36f072d79b37f,23/10/1995,2020-08-13_09h06.03.052,proactive2,2020.1.2,Win32,60,5f341be081b9052c55068110,5f3528e380fd884939cbf354,6,,,,,,anchor,,,,,,0,28,28,2,1,1,2,,,,,,,,,,,,,,,,,,,,,,,,,,,,,,,,,,,,,,,,,,,,,,,,,,,,,,,,,,,,,,,,,,,,,,,,,,,,,,,,,,,,,,,,,,,,,,,,,,,
,,,,,,,,,,stimuli/images/PICTURE_654.png,YEAR,5f086c5550e36f072d79b37f,23/10/1995,2020-08-13_09h06.03.052,proactive2,2020.1.2,Win32,60,5f341be081b9052c55068110,5f3528e380fd884939cbf354,6,,,,,,pencil,,,,,,0,29,29,41,1,5,2,,,,,,,,,,,,,,,,,,,,,,,,,,,,,,,,,,,,,,,,,,,,,,,,,,,,,,,,,,,,,,,,,,,,,,,,,,,,,,,,,,,,,,,,,,,,,,,,,,,
,,,,,,,,,,stimuli/images/PICTURE_348.png,DUDE,5f086c5550e36f072d79b37f,23/10/1995,2020-08-13_09h06.03.052,proactive2,2020.1.2,Win32,60,5f341be081b9052c55068110,5f3528e380fd884939cbf354,6,,,,,,pepper,,,,,,0,30,30,59,1,6,2,,,,,,,,,,,,,,,,,,,,,,,,,,,,,,,,,,,,,,,,,,,,,,,,,,,,,,,,,,,,,,,,,,,,,,,,,,,,,,,,,,,,,,,,,,,,,,,,,,,
,,,,,,,,,,stimuli/images/PICTURE_32.png,LETTER,5f086c5550e36f072d79b37f,23/10/1995,2020-08-13_09h06.03.052,proactive2,2020.1.2,Win32,60,5f341be081b9052c55068110,5f3528e380fd884939cbf354,6,,,,,,crown,,,,,,0,31,31,56,1,6,2,,,,,,,,,,,,,,,,,,,,,,,,,,,,,,,,,,,,,,,,,,,,,,,,,,,,,,,,,,,,,,,,,,,,,,,,,,,,,,,,,,,,,,,,,,,,,,,,,,,
,,,,,,,,,,stimuli/images/PICTURE_2.png,JUNGLE,5f086c5550e36f072d79b37f,23/10/1995,2020-08-13_09h06.03.052,proactive2,2020.1.2,Win32,60,5f341be081b9052c55068110,5f3528e380fd884939cbf354,6,,,,,,tyre,,,,,,0,32,32,1,1,1,2,,,,,,,,,,,,,,,,,,,,,,,,,,,,,,,,,,,,,,,,,,,,,,,,,,,,,,,,,,,,,,,,,,,,,,,,,,,,,,,,,,,,,,,,,,,,,,,,,,,
,,,,,,,,,,stimuli/images/PICTURE_177.png,HOUSE,5f086c5550e36f072d79b37f,23/10/1995,2020-08-13_09h06.03.052,proactive2,2020.1.2,Win32,60,5f341be081b9052c55068110,5f3528e380fd884939cbf354,6,,,,,,mushroom,,,,,,0,33,33,25,1,3,2,,,,,,,,,,,,,,,,,,,,,,,,,,,,,,,,,,,,,,,,,,,,,,,,,,,,,,,,,,,,,,,,,,,,,,,,,,,,,,,,,,,,,,,,,,,,,,,,,,,
,,,,,,,,,,stimuli/images/PICTURE_311.png,TOILET,5f086c5550e36f072d79b37f,23/10/1995,2020-08-13_09h06.03.052,proactive2,2020.1.2,Win32,60,5f341be081b9052c55068110,5f3528e380fd884939cbf354,6,,,,,,razor,,,,,,0,34,34,54,1,6,2,,,,,,,,,,,,,,,,,,,,,,,,,,,,,,,,,,,,,,,,,,,,,,,,,,,,,,,,,,,,,,,,,,,,,,,,,,,,,,,,,,,,,,,,,,,,,,,,,,,
,,,,,,,,,,stimuli/images/PICTURE_255.png,PENNY,5f086c5550e36f072d79b37f,23/10/1995,2020-08-13_09h06.03.052,proactive2,2020.1.2,Win32,60,5f341be081b9052c55068110,5f3528e380fd884939cbf354,6,,,,,,shovel,,,,,,0,35,35,19,1,2,2,,,,,,,,,,,,,,,,,,,,,,,,,,,,,,,,,,,,,,,,,,,,,,,,,,,,,,,,,,,,,,,,,,,,,,,,,,,,,,,,,,,,,,,,,,,,,,,,,,,
,,,,,,,,,,stimuli/images/PICTURE_403.png,FAMILY,5f086c5550e36f072d79b37f,23/10/1995,2020-08-13_09h06.03.052,proactive2,2020.1.2,Win32,60,5f341be081b9052c55068110,5f3528e380fd884939cbf354,6,,,,,,cathedral,,,,,,0,36,36,9,1,1,2,,,,,,,,,,,,,,,,,,,,,,,,,,,,,,,,,,,,,,,,,,,,,,,,,,,,,,,,,,,,,,,,,,,,,,,,,,,,,,,,,,,,,,,,,,,,,,,,,,,
,,,,,,,,,,stimuli/images/PICTURE_688.png,CLOCK,5f086c5550e36f072d79b37f,23/10/1995,2020-08-13_09h06.03.052,proactive2,2020.1.2,Win32,60,5f341be081b9052c55068110,5f3528e380fd884939cbf354,6,,,,,,runner,,,,,,0,37,37,42,1,5,2,,,,,,,,,,,,,,,,,,,,,,,,,,,,,,,,,,,,,,,,,,,,,,,,,,,,,,,,,,,,,,,,,,,,,,,,,,,,,,,,,,,,,,,,,,,,,,,,,,,
,,,,,,,,,,stimuli/images/PICTURE_654.png,COPS,5f086c5550e36f072d79b37f,23/10/1995,2020-08-13_09h06.03.052,proactive2,2020.1.2,Win32,60,5f341be081b9052c55068110,5f3528e380fd884939cbf354,6,,,,,,pencil,,,,,,0,38,38,10,1,2,2,,,,,,,,,,,,,,,,,,,,,,,,,,,,,,,,,,,,,,,,,,,,,,,,,,,,,,,,,,,,,,,,,,,,,,,,,,,,,,,,,,,,,,,,,,,,,,,,,,,
,,,,,,,,,,stimuli/images/PICTURE_2.png,AREA,5f086c5550e36f072d79b37f,23/10/1995,2020-08-13_09h06.03.052,proactive2,2020.1.2,Win32,60,5f341be081b9052c55068110,5f3528e380fd884939cbf354,6,,,,,,tyre,,,,,,0,39,39,32,1,4,2,,,,,,,,,,,,,,,,,,,,,,,,,,,,,,,,,,,,,,,,,,,,,,,,,,,,,,,,,,,,,,,,,,,,,,,,,,,,,,,,,,,,,,,,,,,,,,,,,,,
,,,,,,,,,,stimuli/images/PICTURE_68.png,KIND,5f086c5550e36f072d79b37f,23/10/1995,2020-08-13_09h06.03.052,proactive2,2020.1.2,Win32,60,5f341be081b9052c55068110,5f3528e380fd884939cbf354,6,,,,,,candle,,,,,,0,40,40,23,1,3,2,,,,,,,,,,,,,,,,,,,,,,,,,,,,,,,,,,,,,,,,,,,,,,,,,,,,,,,,,,,,,,,,,,,,,,,,,,,,,,,,,,,,,,,,,,,,,,,,,,,
,,,,,,,,,,stimuli/images/PICTURE_208.png,SPIRIT,5f086c5550e36f072d79b37f,23/10/1995,2020-08-13_09h06.03.052,proactive2,2020.1.2,Win32,60,5f341be081b9052c55068110,5f3528e380fd884939cbf354,6,,,,,,microphone,,,,,,0,41,41,28,1,3,2,,,,,,,,,,,,,,,,,,,,,,,,,,,,,,,,,,,,,,,,,,,,,,,,,,,,,,,,,,,,,,,,,,,,,,,,,,,,,,,,,,,,,,,,,,,,,,,,,,,
,,,,,,,,,,stimuli/images/PICTURE_487.png,POLICY,5f086c5550e36f072d79b37f,23/10/1995,2020-08-13_09h06.03.052,proactive2,2020.1.2,Win32,60,5f341be081b9052c55068110,5f3528e380fd884939cbf354,6,,,,,,basket,,,,,,0,42,42,34,1,4,2,,,,,,,,,,,,,,,,,,,,,,,,,,,,,,,,,,,,,,,,,,,,,,,,,,,,,,,,,,,,,,,,,,,,,,,,,,,,,,,,,,,,,,,,,,,,,,,,,,,
,,,,,,,,,,stimuli/images/PICTURE_509.png,SHOTS,5f086c5550e36f072d79b37f,23/10/1995,2020-08-13_09h06.03.052,proactive2,2020.1.2,Win32,60,5f341be081b9052c55068110,5f3528e380fd884939cbf354,6,,,,,,telephone,,,,,,0,43,43,7,1,1,2,,,,,,,,,,,,,,,,,,,,,,,,,,,,,,,,,,,,,,,,,,,,,,,,,,,,,,,,,,,,,,,,,,,,,,,,,,,,,,,,,,,,,,,,,,,,,,,,,,,
,,,,,,,,,,stimuli/images/PICTURE_356.png,CANDY,5f086c5550e36f072d79b37f,23/10/1995,2020-08-13_09h06.03.052,proactive2,2020.1.2,Win32,60,5f341be081b9052c55068110,5f3528e380fd884939cbf354,6,,,,,,pawn,,,,,,0,44,44,46,1,5,2,,,,,,,,,,,,,,,,,,,,,,,,,,,,,,,,,,,,,,,,,,,,,,,,,,,,,,,,,,,,,,,,,,,,,,,,,,,,,,,,,,,,,,,,,,,,,,,,,,,
,,,,,,,,,,stimuli/images/PICTURE_405.png,JUNGLE,5f086c5550e36f072d79b37f,23/10/1995,2020-08-13_09h06.03.052,proactive2,2020.1.2,Win32,60,5f341be081b9052c55068110,5f3528e380fd884939cbf354,6,,,,,,anchor,,,,,,0,45,45,13,1,2,2,,,,,,,,,,,,,,,,,,,,,,,,,,,,,,,,,,,,,,,,,,,,,,,,,,,,,,,,,,,,,,,,,,,,,,,,,,,,,,,,,,,,,,,,,,,,,,,,,,,
,,,,,,,,,,stimuli/images/PICTURE_57.png,CANDY,5f086c5550e36f072d79b37f,23/10/1995,2020-08-13_09h06.03.052,proactive2,2020.1.2,Win32,60,5f341be081b9052c55068110,5f3528e380fd884939cbf354,6,,,,,,stamp,,,,,,0,46,46,52,1,6,2,,,,,,,,,,,,,,,,,,,,,,,,,,,,,,,,,,,,,,,,,,,,,,,,,,,,,,,,,,,,,,,,,,,,,,,,,,,,,,,,,,,,,,,,,,,,,,,,,,,
,,,,,,,,,,stimuli/images/PICTURE_750.png,POLICY,5f086c5550e36f072d79b37f,23/10/1995,2020-08-13_09h06.03.052,proactive2,2020.1.2,Win32,60,5f341be081b9052c55068110,5f3528e380fd884939cbf354,6,,,,,,kettle,,,,,,0,47,47,44,1,5,2,,,,,,,,,,,,,,,,,,,,,,,,,,,,,,,,,,,,,,,,,,,,,,,,,,,,,,,,,,,,,,,,,,,,,,,,,,,,,,,,,,,,,,,,,,,,,,,,,,,
,,,,,,,,,,stimuli/images/PICTURE_285.png,PRINCE,5f086c5550e36f072d79b37f,23/10/1995,2020-08-13_09h06.03.052,proactive2,2020.1.2,Win32,60,5f341be081b9052c55068110,5f3528e380fd884939cbf354,6,,,,,,carrot,,,,,,0,48,48,20,1,3,2,,,,,,,,,,,,,,,,,,,,,,,,,,,,,,,,,,,,,,,,,,,,,,,,,,,,,,,,,,,,,,,,,,,,,,,,,,,,,,,,,,,,,,,,,,,,,,,,,,,
,,,,,,,,,,stimuli/images/PICTURE_215.png,LEADER,5f086c5550e36f072d79b37f,23/10/1995,2020-08-13_09h06.03.052,proactive2,2020.1.2,Win32,60,5f341be081b9052c55068110,5f3528e380fd884939cbf354,6,,,,,,boot,,,,,,0,49,49,43,1,5,2,,,,,,,,,,,,,,,,,,,,,,,,,,,,,,,,,,,,,,,,,,,,,,,,,,,,,,,,,,,,,,,,,,,,,,,,,,,,,,,,,,,,,,,,,,,,,,,,,,,
,,,,,,,,,,stimuli/images/PICTURE_453.png,FAMILY,5f086c5550e36f072d79b37f,23/10/1995,2020-08-13_09h06.03.052,proactive2,2020.1.2,Win32,60,5f341be081b9052c55068110,5f3528e380fd884939cbf354,6,,,,,,scissors,,,,,,0,50,50,48,1,5,2,,,,,,,,,,,,,,,,,,,,,,,,,,,,,,,,,,,,,,,,,,,,,,,,,,,,,,,,,,,,,,,,,,,,,,,,,,,,,,,,,,,,,,,,,,,,,,,,,,,
,,,,,,,,,,stimuli/images/PICTURE_57.png,NATION,5f086c5550e36f072d79b37f,23/10/1995,2020-08-13_09h06.03.052,proactive2,2020.1.2,Win32,60,5f341be081b9052c55068110,5f3528e380fd884939cbf354,6,,,,,,stamp,,,,,,0,51,51,21,1,3,2,,,,,,,,,,,,,,,,,,,,,,,,,,,,,,,,,,,,,,,,,,,,,,,,,,,,,,,,,,,,,,,,,,,,,,,,,,,,,,,,,,,,,,,,,,,,,,,,,,,
,,,,,,,,,,stimuli/images/PICTURE_491.png,SERIES,5f086c5550e36f072d79b37f,23/10/1995,2020-08-13_09h06.03.052,proactive2,2020.1.2,Win32,60,5f341be081b9052c55068110,5f3528e380fd884939cbf354,6,,,,,,rug,,,,,,0,52,52,39,1,4,2,,,,,,,,,,,,,,,,,,,,,,,,,,,,,,,,,,,,,,,,,,,,,,,,,,,,,,,,,,,,,,,,,,,,,,,,,,,,,,,,,,,,,,,,,,,,,,,,,,,
,,,,,,,,,,stimuli/images/PICTURE_57.png,CASINO,5f086c5550e36f072d79b37f,23/10/1995,2020-08-13_09h06.03.052,proactive2,2020.1.2,Win32,60,5f341be081b9052c55068110,5f3528e380fd884939cbf354,6,,,,,,stamp,,,,,,0,53,53,12,1,2,2,,,,,,,,,,,,,,,,,,,,,,,,,,,,,,,,,,,,,,,,,,,,,,,,,,,,,,,,,,,,,,,,,,,,,,,,,,,,,,,,,,,,,,,,,,,,,,,,,,,
,,,,,,,,,,stimuli/images/PICTURE_314.png,SPEECH,5f086c5550e36f072d79b37f,23/10/1995,2020-08-13_09h06.03.052,proactive2,2020.1.2,Win32,60,5f341be081b9052c55068110,5f3528e380fd884939cbf354,6,,,,,,perfume,,,,,,0,54,54,35,1,4,2,,,,,,,,,,,,,,,,,,,,,,,,,,,,,,,,,,,,,,,,,,,,,,,,,,,,,,,,,,,,,,,,,,,,,,,,,,,,,,,,,,,,,,,,,,,,,,,,,,,
,,,,,,,,,,stimuli/images/PICTURE_141.png,CLIENT,5f086c5550e36f072d79b37f,23/10/1995,2020-08-13_09h06.03.052,proactive2,2020.1.2,Win32,60,5f341be081b9052c55068110,5f3528e380fd884939cbf354,6,,,,,,sunflower,,,,,,0,55,55,30,1,4,2,,,,,,,,,,,,,,,,,,,,,,,,,,,,,,,,,,,,,,,,,,,,,,,,,,,,,,,,,,,,,,,,,,,,,,,,,,,,,,,,,,,,,,,,,,,,,,,,,,,
,,,,,,,,,,stimuli/images/PICTURE_285.png,WRITER,5f086c5550e36f072d79b37f,23/10/1995,2020-08-13_09h06.03.052,proactive2,2020.1.2,Win32,60,5f341be081b9052c55068110,5f3528e380fd884939cbf354,6,,,,,,carrot,,,,,,0,56,56,6,1,1,2,,,,,,,,,,,,,,,,,,,,,,,,,,,,,,,,,,,,,,,,,,,,,,,,,,,,,,,,,,,,,,,,,,,,,,,,,,,,,,,,,,,,,,,,,,,,,,,,,,,
,,,,,,,,,,stimuli/images/PICTURE_655.png,SALE,5f086c5550e36f072d79b37f,23/10/1995,2020-08-13_09h06.03.052,proactive2,2020.1.2,Win32,60,5f341be081b9052c55068110,5f3528e380fd884939cbf354,6,,,,,,megaphone,,,,,,0,57,57,57,1,6,2,,,,,,,,,,,,,,,,,,,,,,,,,,,,,,,,,,,,,,,,,,,,,,,,,,,,,,,,,,,,,,,,,,,,,,,,,,,,,,,,,,,,,,,,,,,,,,,,,,,
,,,,,,,,,,stimuli/images/PICTURE_667.png,GLASS,5f086c5550e36f072d79b37f,23/10/1995,2020-08-13_09h06.03.052,proactive2,2020.1.2,Win32,60,5f341be081b9052c55068110,5f3528e380fd884939cbf354,6,,,,,,daisy,,,,,,0,58,58,27,1,3,2,,,,,,,,,,,,,,,,,,,,,,,,,,,,,,,,,,,,,,,,,,,,,,,,,,,,,,,,,,,,,,,,,,,,,,,,,,,,,,,,,,,,,,,,,,,,,,,,,,,
,,DUDE,5.46954,1,,,,,,stimuli/images/PICTURE_348.png,DUDE,5f086c5550e36f072d79b37f,23/10/1995,2020-08-13_09h06.03.052,proactive2,2020.1.2,Win32,60,5f341be081b9052c55068110,5f3528e380fd884939cbf354,6,,,,,,pepper,,,,,,,,,,,6,2,0,0,0,59,1,,,,,,,,,,,,,,,,,,,,,,,,,,,,,,,,,,,,,,,,,,,,,,,,,,,,,,,,,,,,,,,,,,,,,,,,,,,,,,,,,,,,,,,,,,,,,,
,,?,0.00259,0,,,,,,stimuli/images/PICTURE_667.png,GLASS,5f086c5550e36f072d79b37f,23/10/1995,2020-08-13_09h06.03.052,proactive2,2020.1.2,Win32,60,5f341be081b9052c55068110,5f3528e380fd884939cbf354,6,,,,,,daisy,,,,,,,,,,,3,2,0,1,1,27,1,,,,,,,,,,,,,,,,,,,,,,,,,,,,,,,,,,,,,,,,,,,,,,,,,,,,,,,,,,,,,,,,,,,,,,,,,,,,,,,,,,,,,,,,,,,,,,
,,FAMILY,3.717845,1,,,,,,stimuli/images/PICTURE_677.png,FAMILY,5f086c5550e36f072d79b37f,23/10/1995,2020-08-13_09h06.03.052,proactive2,2020.1.2,Win32,60,5f341be081b9052c55068110,5f3528e380fd884939cbf354,6,,,,,,map,,,,,,,,,,,6,2,0,2,2,53,1,,,,,,,,,,,,,,,,,,,,,,,,,,,,,,,,,,,,,,,,,,,,,,,,,,,,,,,,,,,,,,,,,,,,,,,,,,,,,,,,,,,,,,,,,,,,,,
,,?,0.003465,0,,,,,,stimuli/images/PICTURE_296.png,CLOCK,5f086c5550e36f072d79b37f,23/10/1995,2020-08-13_09h06.03.052,proactive2,2020.1.2,Win32,60,5f341be081b9052c55068110,5f3528e380fd884939cbf354,6,,,,,,bolt,,,,,,,,,,,2,2,0,3,3,18,1,,,,,,,,,,,,,,,,,,,,,,,,,,,,,,,,,,,,,,,,,,,,,,,,,,,,,,,,,,,,,,,,,,,,,,,,,,,,,,,,,,,,,,,,,,,,,,
,,?,0.00225,0,,,,,,stimuli/images/PICTURE_509.png,SHOTS,5f086c5550e36f072d79b37f,23/10/1995,2020-08-13_09h06.03.052,proactive2,2020.1.2,Win32,60,5f341be081b9052c55068110,5f3528e380fd884939cbf354,6,,,,,,telephone,,,,,,,,,,,1,2,0,4,4,7,1,,,,,,,,,,,,,,,,,,,,,,,,,,,,,,,,,,,,,,,,,,,,,,,,,,,,,,,,,,,,,,,,,,,,,,,,,,,,,,,,,,,,,,,,,,,,,,
,,JUNGLE,3.93606,1,,,,,,stimuli/images/PICTURE_405.png,JUNGLE,5f086c5550e36f072d79b37f,23/10/1995,2020-08-13_09h06.03.052,proactive2,2020.1.2,Win32,60,5f341be081b9052c55068110,5f3528e380fd884939cbf354,6,,,,,,anchor,,,,,,,,,,,6,2,0,5,5,58,1,,,,,,,,,,,,,,,,,,,,,,,,,,,,,,,,,,,,,,,,,,,,,,,,,,,,,,,,,,,,,,,,,,,,,,,,,,,,,,,,,,,,,,,,,,,,,,
,,?,0.00348,0,,,,,,stimuli/images/PICTURE_654.png,YEAR,5f086c5550e36f072d79b37f,23/10/1995,2020-08-13_09h06.03.052,proactive2,2020.1.2,Win32,60,5f341be081b9052c55068110,5f3528e380fd884939cbf354,6,,,,,,pencil,,,,,,,,,,,5,2,0,6,6,41,1,,,,,,,,,,,,,,,,,,,,,,,,,,,,,,,,,,,,,,,,,,,,,,,,,,,,,,,,,,,,,,,,,,,,,,,,,,,,,,,,,,,,,,,,,,,,,,
,,?,0.00266,0,,,,,,stimuli/images/PICTURE_692.png,DUDE,5f086c5550e36f072d79b37f,23/10/1995,2020-08-13_09h06.03.052,proactive2,2020.1.2,Win32,60,5f341be081b9052c55068110,5f3528e380fd884939cbf354,6,,,,,,cherry,,,,,,,,,,,5,2,0,7,7,47,1,,,,,,,,,,,,,,,,,,,,,,,,,,,,,,,,,,,,,,,,,,,,,,,,,,,,,,,,,,,,,,,,,,,,,,,,,,,,,,,,,,,,,,,,,,,,,,
,,?,0.00214,0,,,,,,stimuli/images/PICTURE_18.png,RIVER,5f086c5550e36f072d79b37f,23/10/1995,2020-08-13_09h06.03.052,proactive2,2020.1.2,Win32,60,5f341be081b9052c55068110,5f3528e380fd884939cbf354,6,,,,,,planet,,,,,,,,,,,3,2,0,8,8,22,1,,,,,,,,,,,,,,,,,,,,,,,,,,,,,,,,,,,,,,,,,,,,,,,,,,,,,,,,,,,,,,,,,,,,,,,,,,,,,,,,,,,,,,,,,,,,,,
,,?,0.002205,0,,,,,,stimuli/images/PICTURE_356.png,CANDY,5f086c5550e36f072d79b37f,23/10/1995,2020-08-13_09h06.03.052,proactive2,2020.1.2,Win32,60,5f341be081b9052c55068110,5f3528e380fd884939cbf354,6,,,,,,pawn,,,,,,,,,,,5,2,0,9,9,46,1,,,,,,,,,,,,,,,,,,,,,,,,,,,,,,,,,,,,,,,,,,,,,,,,,,,,,,,,,,,,,,,,,,,,,,,,,,,,,,,,,,,,,,,,,,,,,,
,,?,0.00252,0,,,,,,stimuli/images/PICTURE_470.png,BEAUTY,5f086c5550e36f072d79b37f,23/10/1995,2020-08-13_09h06.03.052,proactive2,2020.1.2,Win32,60,5f341be081b9052c55068110,5f3528e380fd884939cbf354,6,,,,,,motorbike,,,,,,,,,,,3,2,0,10,10,26,1,,,,,,,,,,,,,,,,,,,,,,,,,,,,,,,,,,,,,,,,,,,,,,,,,,,,,,,,,,,,,,,,,,,,,,,,,,,,,,,,,,,,,,,,,,,,,,
,,SALE,3.191305,1,,,,,,stimuli/images/PICTURE_655.png,SALE,5f086c5550e36f072d79b37f,23/10/1995,2020-08-13_09h06.03.052,proactive2,2020.1.2,Win32,60,5f341be081b9052c55068110,5f3528e380fd884939cbf354,6,,,,,,megaphone,,,,,,,,,,,6,2,0,11,11,57,1,,,,,,,,,,,,,,,,,,,,,,,,,,,,,,,,,,,,,,,,,,,,,,,,,,,,,,,,,,,,,,,,,,,,,,,,,,,,,,,,,,,,,,,,,,,,,,
,,BODY,4.984365,1,,,,,,stimuli/images/PICTURE_297.png,BODY,5f086c5550e36f072d79b37f,23/10/1995,2020-08-13_09h06.03.052,proactive2,2020.1.2,Win32,60,5f341be081b9052c55068110,5f3528e380fd884939cbf354,6,,,,,,aeroplane,,,,,,,,,,,6,2,0,12,12,51,1,,,,,,,,,,,,,,,,,,,,,,,,,,,,,,,,,,,,,,,,,,,,,,,,,,,,,,,,,,,,,,,,,,,,,,,,,,,,,,,,,,,,,,,,,,,,,,
,,?,0.002255,0,,,,,,stimuli/images/PICTURE_504.png,HOUSE,5f086c5550e36f072d79b37f,23/10/1995,2020-08-13_09h06.03.052,proactive2,2020.1.2,Win32,60,5f341be081b9052c55068110,5f3528e380fd884939cbf354,6,,,,,,wheel,,,,,,,,,,,4,2,0,13,13,36,1,,,,,,,,,,,,,,,,,,,,,,,,,,,,,,,,,,,,,,,,,,,,,,,,,,,,,,,,,,,,,,,,,,,,,,,,,,,,,,,,,,,,,,,,,,,,,,
,,?,0.00183,0,,,,,,stimuli/images/PICTURE_141.png,CLIENT,5f086c5550e36f072d79b37f,23/10/1995,2020-08-13_09h06.03.052,proactive2,2020.1.2,Win32,60,5f341be081b9052c55068110,5f3528e380fd884939cbf354,6,,,,,,sunflower,,,,,,,,,,,4,2,0,14,14,30,1,,,,,,,,,,,,,,,,,,,,,,,,,,,,,,,,,,,,,,,,,,,,,,,,,,,,,,,,,,,,,,,,,,,,,,,,,,,,,,,,,,,,,,,,,,,,,,
,,?,0.001785,0,,,,,,stimuli/images/PICTURE_750.png,POLICY,5f086c5550e36f072d79b37f,23/10/1995,2020-08-13_09h06.03.052,proactive2,2020.1.2,Win32,60,5f341be081b9052c55068110,5f3528e380fd884939cbf354,6,,,,,,kettle,,,,,,,,,,,5,2,0,15,15,44,1,,,,,,,,,,,,,,,,,,,,,,,,,,,,,,,,,,,,,,,,,,,,,,,,,,,,,,,,,,,,,,,,,,,,,,,,,,,,,,,,,,,,,,,,,,,,,,
,,?,0.0018,0,,,,,,stimuli/images/PICTURE_405.png,JUNGLE,5f086c5550e36f072d79b37f,23/10/1995,2020-08-13_09h06.03.052,proactive2,2020.1.2,Win32,60,5f341be081b9052c55068110,5f3528e380fd884939cbf354,6,,,,,,anchor,,,,,,,,,,,2,2,0,16,16,13,1,,,,,,,,,,,,,,,,,,,,,,,,,,,,,,,,,,,,,,,,,,,,,,,,,,,,,,,,,,,,,,,,,,,,,,,,,,,,,,,,,,,,,,,,,,,,,,
,,?,0.002345,0,,,,,,stimuli/images/PICTURE_509.png,BATH,5f086c5550e36f072d79b37f,23/10/1995,2020-08-13_09h06.03.052,proactive2,2020.1.2,Win32,60,5f341be081b9052c55068110,5f3528e380fd884939cbf354,6,,,,,,telephone,,,,,,,,,,,2,2,0,17,17,15,1,,,,,,,,,,,,,,,,,,,,,,,,,,,,,,,,,,,,,,,,,,,,,,,,,,,,,,,,,,,,,,,,,,,,,,,,,,,,,,,,,,,,,,,,,,,,,,
,,?,0.002395,0,,,,,,stimuli/images/PICTURE_311.png,FLESH,5f086c5550e36f072d79b37f,23/10/1995,2020-08-13_09h06.03.052,proactive2,2020.1.2,Win32,60,5f341be081b9052c55068110,5f3528e380fd884939cbf354,6,,,,,,razor,,,,,,,,,,,1,2,0,18,18,3,1,,,,,,,,,,,,,,,,,,,,,,,,,,,,,,,,,,,,,,,,,,,,,,,,,,,,,,,,,,,,,,,,,,,,,,,,,,,,,,,,,,,,,,,,,,,,,,
,,?,0.002385,0,,,,,,stimuli/images/PICTURE_487.png,POLICY,5f086c5550e36f072d79b37f,23/10/1995,2020-08-13_09h06.03.052,proactive2,2020.1.2,Win32,60,5f341be081b9052c55068110,5f3528e380fd884939cbf354,6,,,,,,basket,,,,,,,,,,,4,2,0,19,19,34,1,,,,,,,,,,,,,,,,,,,,,,,,,,,,,,,,,,,,,,,,,,,,,,,,,,,,,,,,,,,,,,,,,,,,,,,,,,,,,,,,,,,,,,,,,,,,,,
,,?,0.00259,0,,,,,,stimuli/images/PICTURE_177.png,HOUSE,5f086c5550e36f072d79b37f,23/10/1995,2020-08-13_09h06.03.052,proactive2,2020.1.2,Win32,60,5f341be081b9052c55068110,5f3528e380fd884939cbf354,6,,,,,,mushroom,,,,,,,,,,,3,2,0,20,20,25,1,,,,,,,,,,,,,,,,,,,,,,,,,,,,,,,,,,,,,,,,,,,,,,,,,,,,,,,,,,,,,,,,,,,,,,,,,,,,,,,,,,,,,,,,,,,,,,
,,?,0.001975,0,,,,,,stimuli/images/PICTURE_327.png,LEADER,5f086c5550e36f072d79b37f,23/10/1995,2020-08-13_09h06.03.052,proactive2,2020.1.2,Win32,60,5f341be081b9052c55068110,5f3528e380fd884939cbf354,6,,,,,,helmet,,,,,,,,,,,2,2,0,21,21,17,1,,,,,,,,,,,,,,,,,,,,,,,,,,,,,,,,,,,,,,,,,,,,,,,,,,,,,,,,,,,,,,,,,,,,,,,,,,,,,,,,,,,,,,,,,,,,,,
,,?,0.006185,0,,,,,,stimuli/images/PICTURE_509.png,MILLER,5f086c5550e36f072d79b37f,23/10/1995,2020-08-13_09h06.03.052,proactive2,2020.1.2,Win32,60,5f341be081b9052c55068110,5f3528e380fd884939cbf354,6,,,,,,telephone,,,,,,,,,,,5,2,0,22,22,49,1,,,,,,,,,,,,,,,,,,,,,,,,,,,,,,,,,,,,,,,,,,,,,,,,,,,,,,,,,,,,,,,,,,,,,,,,,,,,,,,,,,,,,,,,,,,,,,
,,?,0.006435,0,,,,,,stimuli/images/PICTURE_405.png,HOUSE,5f086c5550e36f072d79b37f,23/10/1995,2020-08-13_09h06.03.052,proactive2,2020.1.2,Win32,60,5f341be081b9052c55068110,5f3528e380fd884939cbf354,6,,,,,,anchor,,,,,,,,,,,1,2,0,23,23,2,1,,,,,,,,,,,,,,,,,,,,,,,,,,,,,,,,,,,,,,,,,,,,,,,,,,,,,,,,,,,,,,,,,,,,,,,,,,,,,,,,,,,,,,,,,,,,,,
,,?,0.00193,0,,,,,,stimuli/images/PICTURE_68.png,KIND,5f086c5550e36f072d79b37f,23/10/1995,2020-08-13_09h06.03.052,proactive2,2020.1.2,Win32,60,5f341be081b9052c55068110,5f3528e380fd884939cbf354,6,,,,,,candle,,,,,,,,,,,3,2,0,24,24,23,1,,,,,,,,,,,,,,,,,,,,,,,,,,,,,,,,,,,,,,,,,,,,,,,,,,,,,,,,,,,,,,,,,,,,,,,,,,,,,,,,,,,,,,,,,,,,,,
,,?,0.001955,0,,,,,,stimuli/images/PICTURE_348.png,TOILET,5f086c5550e36f072d79b37f,23/10/1995,2020-08-13_09h06.03.052,proactive2,2020.1.2,Win32,60,5f341be081b9052c55068110,5f3528e380fd884939cbf354,6,,,,,,pepper,,,,,,,,,,,1,2,0,25,25,4,1,,,,,,,,,,,,,,,,,,,,,,,,,,,,,,,,,,,,,,,,,,,,,,,,,,,,,,,,,,,,,,,,,,,,,,,,,,,,,,,,,,,,,,,,,,,,,,
,,?,0.00184,0,,,,,,stimuli/images/PICTURE_470.png,MOMENT,5f086c5550e36f072d79b37f,23/10/1995,2020-08-13_09h06.03.052,proactive2,2020.1.2,Win32,60,5f341be081b9052c55068110,5f3528e380fd884939cbf354,6,,,,,,motorbike,,,,,,,,,,,5,2,0,26,26,40,1,,,,,,,,,,,,,,,,,,,,,,,,,,,,,,,,,,,,,,,,,,,,,,,,,,,,,,,,,,,,,,,,,,,,,,,,,,,,,,,,,,,,,,,,,,,,,,
,,?,0.001835,0,,,,,,stimuli/images/PICTURE_95.png,NIGHT,5f086c5550e36f072d79b37f,23/10/1995,2020-08-13_09h06.03.052,proactive2,2020.1.2,Win32,60,5f341be081b9052c55068110,5f3528e380fd884939cbf354,6,,,,,,suitcase,,,,,,,,,,,4,2,0,27,27,37,1,,,,,,,,,,,,,,,,,,,,,,,,,,,,,,,,,,,,,,,,,,,,,,,,,,,,,,,,,,,,,,,,,,,,,,,,,,,,,,,,,,,,,,,,,,,,,,
,,?,0.001815,0,,,,,,stimuli/images/PICTURE_208.png,SPIRIT,5f086c5550e36f072d79b37f,23/10/1995,2020-08-13_09h06.03.052,proactive2,2020.1.2,Win32,60,5f341be081b9052c55068110,5f3528e380fd884939cbf354,6,,,,,,microphone,,,,,,,,,,,3,2,0,28,28,28,1,,,,,,,,,,,,,,,,,,,,,,,,,,,,,,,,,,,,,,,,,,,,,,,,,,,,,,,,,,,,,,,,,,,,,,,,,,,,,,,,,,,,,,,,,,,,,,
,,?,0.00189,0,,,,,,stimuli/images/PICTURE_677.png,PHOTO,5f086c5550e36f072d79b37f,23/10/1995,2020-08-13_09h06.03.052,proactive2,2020.1.2,Win32,60,5f341be081b9052c55068110,5f3528e380fd884939cbf354,6,,,,,,map,,,,,,,,,,,2,2,0,29,29,14,1,,,,,,,,,,,,,,,,,,,,,,,,,,,,,,,,,,,,,,,,,,,,,,,,,,,,,,,,,,,,,,,,,,,,,,,,,,,,,,,,,,,,,,,,,,,,,,
,,?,0.00209,0,,,,,,stimuli/images/PICTURE_403.png,FAMILY,5f086c5550e36f072d79b37f,23/10/1995,2020-08-13_09h06.03.052,proactive2,2020.1.2,Win32,60,5f341be081b9052c55068110,5f3528e380fd884939cbf354,6,,,,,,cathedral,,,,,,,,,,,1,2,0,30,30,9,1,,,,,,,,,,,,,,,,,,,,,,,,,,,,,,,,,,,,,,,,,,,,,,,,,,,,,,,,,,,,,,,,,,,,,,,,,,,,,,,,,,,,,,,,,,,,,,
,,?,0.00224,0,,,,,,stimuli/images/PICTURE_57.png,CASINO,5f086c5550e36f072d79b37f,23/10/1995,2020-08-13_09h06.03.052,proactive2,2020.1.2,Win32,60,5f341be081b9052c55068110,5f3528e380fd884939cbf354,6,,,,,,stamp,,,,,,,,,,,2,2,0,31,31,12,1,,,,,,,,,,,,,,,,,,,,,,,,,,,,,,,,,,,,,,,,,,,,,,,,,,,,,,,,,,,,,,,,,,,,,,,,,,,,,,,,,,,,,,,,,,,,,,
,,?,0.001905,0,,,,,,stimuli/images/PICTURE_708.png,VALLEY,5f086c5550e36f072d79b37f,23/10/1995,2020-08-13_09h06.03.052,proactive2,2020.1.2,Win32,60,5f341be081b9052c55068110,5f3528e380fd884939cbf354,6,,,,,,monkey,,,,,,,,,,,5,2,0,32,32,45,1,,,,,,,,,,,,,,,,,,,,,,,,,,,,,,,,,,,,,,,,,,,,,,,,,,,,,,,,,,,,,,,,,,,,,,,,,,,,,,,,,,,,,,,,,,,,,,
,,?,0.00186,0,,,,,,stimuli/images/PICTURE_215.png,BOYS,5f086c5550e36f072d79b37f,23/10/1995,2020-08-13_09h06.03.052,proactive2,2020.1.2,Win32,60,5f341be081b9052c55068110,5f3528e380fd884939cbf354,6,,,,,,boot,,,,,,,,,,,3,2,0,33,33,24,1,,,,,,,,,,,,,,,,,,,,,,,,,,,,,,,,,,,,,,,,,,,,,,,,,,,,,,,,,,,,,,,,,,,,,,,,,,,,,,,,,,,,,,,,,,,,,,
,,?,0.002045,0,,,,,,stimuli/images/PICTURE_2.png,JUNGLE,5f086c5550e36f072d79b37f,23/10/1995,2020-08-13_09h06.03.052,proactive2,2020.1.2,Win32,60,5f341be081b9052c55068110,5f3528e380fd884939cbf354,6,,,,,,tyre,,,,,,,,,,,1,2,0,34,34,1,1,,,,,,,,,,,,,,,,,,,,,,,,,,,,,,,,,,,,,,,,,,,,,,,,,,,,,,,,,,,,,,,,,,,,,,,,,,,,,,,,,,,,,,,,,,,,,,
,,?,0.00236,0,,,,,,stimuli/images/PICTURE_255.png,PENNY,5f086c5550e36f072d79b37f,23/10/1995,2020-08-13_09h06.03.052,proactive2,2020.1.2,Win32,60,5f341be081b9052c55068110,5f3528e380fd884939cbf354,6,,,,,,shovel,,,,,,,,,,,2,2,0,35,35,19,1,,,,,,,,,,,,,,,,,,,,,,,,,,,,,,,,,,,,,,,,,,,,,,,,,,,,,,,,,,,,,,,,,,,,,,,,,,,,,,,,,,,,,,,,,,,,,,
,,?,0.001825,0,,,,,,stimuli/images/PICTURE_215.png,LEADER,5f086c5550e36f072d79b37f,23/10/1995,2020-08-13_09h06.03.052,proactive2,2020.1.2,Win32,60,5f341be081b9052c55068110,5f3528e380fd884939cbf354,6,,,,,,boot,,,,,,,,,,,5,2,0,36,36,43,1,,,,,,,,,,,,,,,,,,,,,,,,,,,,,,,,,,,,,,,,,,,,,,,,,,,,,,,,,,,,,,,,,,,,,,,,,,,,,,,,,,,,,,,,,,,,,,
,,?,0.00179,0,,,,,,stimuli/images/PICTURE_160.png,HOTEL,5f086c5550e36f072d79b37f,23/10/1995,2020-08-13_09h06.03.052,proactive2,2020.1.2,Win32,60,5f341be081b9052c55068110,5f3528e380fd884939cbf354,6,,,,,,wheelbarrow,,,,,,,,,,,2,2,0,37,37,16,1,,,,,,,,,,,,,,,,,,,,,,,,,,,,,,,,,,,,,,,,,,,,,,,,,,,,,,,,,,,,,,,,,,,,,,,,,,,,,,,,,,,,,,,,,,,,,,
,,?,0.001815,0,,,,,,stimuli/images/PICTURE_33.png,COPS,5f086c5550e36f072d79b37f,23/10/1995,2020-08-13_09h06.03.052,proactive2,2020.1.2,Win32,60,5f341be081b9052c55068110,5f3528e380fd884939cbf354,6,,,,,,frame,,,,,,,,,,,3,2,0,38,38,29,1,,,,,,,,,,,,,,,,,,,,,,,,,,,,,,,,,,,,,,,,,,,,,,,,,,,,,,,,,,,,,,,,,,,,,,,,,,,,,,,,,,,,,,,,,,,,,,
,,?,0.001865,0,,,,,,stimuli/images/PICTURE_314.png,SPEECH,5f086c5550e36f072d79b37f,23/10/1995,2020-08-13_09h06.03.052,proactive2,2020.1.2,Win32,60,5f341be081b9052c55068110,5f3528e380fd884939cbf354,6,,,,,,perfume,,,,,,,,,,,4,2,0,39,39,35,1,,,,,,,,,,,,,,,,,,,,,,,,,,,,,,,,,,,,,,,,,,,,,,,,,,,,,,,,,,,,,,,,,,,,,,,,,,,,,,,,,,,,,,,,,,,,,,
,,?,12.99323,0,,,,,,stimuli/images/PICTURE_2.png,YARD,5f086c5550e36f072d79b37f,23/10/1995,2020-08-13_09h06.03.052,proactive2,2020.1.2,Win32,60,5f341be081b9052c55068110,5f3528e380fd884939cbf354,6,,,,,,tyre,,,,,,,,,,,6,2,0,40,40,55,1,,,,,,,,,,,,,,,,,,,,,,,,,,,,,,,,,,,,,,,,,,,,,,,,,,,,,,,,,,,,,,,,,,,,,,,,,,,,,,,,,,,,,,,,,,,,,,
,,?,0.010195,0,,,,,,stimuli/images/PICTURE_491.png,SERIES,5f086c5550e36f072d79b37f,23/10/1995,2020-08-13_09h06.03.052,proactive2,2020.1.2,Win32,60,5f341be081b9052c55068110,5f3528e380fd884939cbf354,6,,,,,,rug,,,,,,,,,,,4,2,0,41,41,39,1,,,,,,,,,,,,,,,,,,,,,,,,,,,,,,,,,,,,,,,,,,,,,,,,,,,,,,,,,,,,,,,,,,,,,,,,,,,,,,,,,,,,,,,,,,,,,,
,,?,0.00255,0,,,,,,stimuli/images/PICTURE_509.png,APPLE,5f086c5550e36f072d79b37f,23/10/1995,2020-08-13_09h06.03.052,proactive2,2020.1.2,Win32,60,5f341be081b9052c55068110,5f3528e380fd884939cbf354,6,,,,,,telephone,,,,,,,,,,,4,2,0,42,42,38,1,,,,,,,,,,,,,,,,,,,,,,,,,,,,,,,,,,,,,,,,,,,,,,,,,,,,,,,,,,,,,,,,,,,,,,,,,,,,,,,,,,,,,,,,,,,,,,
,,?,0.00253,0,,,,,,stimuli/images/PICTURE_688.png,CLOCK,5f086c5550e36f072d79b37f,23/10/1995,2020-08-13_09h06.03.052,proactive2,2020.1.2,Win32,60,5f341be081b9052c55068110,5f3528e380fd884939cbf354,6,,,,,,runner,,,,,,,,,,,5,2,0,43,43,42,1,,,,,,,,,,,,,,,,,,,,,,,,,,,,,,,,,,,,,,,,,,,,,,,,,,,,,,,,,,,,,,,,,,,,,,,,,,,,,,,,,,,,,,,,,,,,,,
,,?,0.00236,0,,,,,,stimuli/images/PICTURE_147.png,LEADER,5f086c5550e36f072d79b37f,23/10/1995,2020-08-13_09h06.03.052,proactive2,2020.1.2,Win32,60,5f341be081b9052c55068110,5f3528e380fd884939cbf354,6,,,,,,hanger,,,,,,,,,,,4,2,0,44,44,33,1,,,,,,,,,,,,,,,,,,,,,,,,,,,,,,,,,,,,,,,,,,,,,,,,,,,,,,,,,,,,,,,,,,,,,,,,,,,,,,,,,,,,,,,,,,,,,,
,,LETTER,4.363685,1,,,,,,stimuli/images/PICTURE_32.png,LETTER,5f086c5550e36f072d79b37f,23/10/1995,2020-08-13_09h06.03.052,proactive2,2020.1.2,Win32,60,5f341be081b9052c55068110,5f3528e380fd884939cbf354,6,,,,,,crown,,,,,,,,,,,6,2,0,45,45,56,1,,,,,,,,,,,,,,,,,,,,,,,,,,,,,,,,,,,,,,,,,,,,,,,,,,,,,,,,,,,,,,,,,,,,,,,,,,,,,,,,,,,,,,,,,,,,,,
,,?,0.00218,0,,,,,,stimuli/images/PICTURE_2.png,AREA,5f086c5550e36f072d79b37f,23/10/1995,2020-08-13_09h06.03.052,proactive2,2020.1.2,Win32,60,5f341be081b9052c55068110,5f3528e380fd884939cbf354,6,,,,,,tyre,,,,,,,,,,,4,2,0,46,46,32,1,,,,,,,,,,,,,,,,,,,,,,,,,,,,,,,,,,,,,,,,,,,,,,,,,,,,,,,,,,,,,,,,,,,,,,,,,,,,,,,,,,,,,,,,,,,,,,
,,?,0.002055,0,,,,,,stimuli/images/PICTURE_123.png,SALE,5f086c5550e36f072d79b37f,23/10/1995,2020-08-13_09h06.03.052,proactive2,2020.1.2,Win32,60,5f341be081b9052c55068110,5f3528e380fd884939cbf354,6,,,,,,dart,,,,,,,,,,,1,2,0,47,47,8,1,,,,,,,,,,,,,,,,,,,,,,,,,,,,,,,,,,,,,,,,,,,,,,,,,,,,,,,,,,,,,,,,,,,,,,,,,,,,,,,,,,,,,,,,,,,,,,
,,?,0.00234,0,,,,,,stimuli/images/PICTURE_215.png,FOOD,5f086c5550e36f072d79b37f,23/10/1995,2020-08-13_09h06.03.052,proactive2,2020.1.2,Win32,60,5f341be081b9052c55068110,5f3528e380fd884939cbf354,6,,,,,,boot,,,,,,,,,,,1,2,0,48,48,5,1,,,,,,,,,,,,,,,,,,,,,,,,,,,,,,,,,,,,,,,,,,,,,,,,,,,,,,,,,,,,,,,,,,,,,,,,,,,,,,,,,,,,,,,,,,,,,,
,,?,0.00178,0,,,,,,stimuli/images/PICTURE_285.png,WRITER,5f086c5550e36f072d79b37f,23/10/1995,2020-08-13_09h06.03.052,proactive2,2020.1.2,Win32,60,5f341be081b9052c55068110,5f3528e380fd884939cbf354,6,,,,,,carrot,,,,,,,,,,,1,2,0,49,49,6,1,,,,,,,,,,,,,,,,,,,,,,,,,,,,,,,,,,,,,,,,,,,,,,,,,,,,,,,,,,,,,,,,,,,,,,,,,,,,,,,,,,,,,,,,,,,,,,
,,?,0.002715,0,,,,,,stimuli/images/PICTURE_93.png,GIRL,5f086c5550e36f072d79b37f,23/10/1995,2020-08-13_09h06.03.052,proactive2,2020.1.2,Win32,60,5f341be081b9052c55068110,5f3528e380fd884939cbf354,6,,,,,,skateboard,,,,,,,,,,,4,2,0,50,50,31,1,,,,,,,,,,,,,,,,,,,,,,,,,,,,,,,,,,,,,,,,,,,,,,,,,,,,,,,,,,,,,,,,,,,,,,,,,,,,,,,,,,,,,,,,,,,,,,
,,?,0.001835,0,,,,,,stimuli/images/PICTURE_564.png,PLENTY,5f086c5550e36f072d79b37f,23/10/1995,2020-08-13_09h06.03.052,proactive2,2020.1.2,Win32,60,5f341be081b9052c55068110,5f3528e380fd884939cbf354,6,,,,,,spoon,,,,,,,,,,,2,2,0,51,51,11,1,,,,,,,,,,,,,,,,,,,,,,,,,,,,,,,,,,,,,,,,,,,,,,,,,,,,,,,,,,,,,,,,,,,,,,,,,,,,,,,,,,,,,,,,,,,,,,
,,LETTER,4.221015,0,,,,,,stimuli/images/PICTURE_57.png,CANDY,5f086c5550e36f072d79b37f,23/10/1995,2020-08-13_09h06.03.052,proactive2,2020.1.2,Win32,60,5f341be081b9052c55068110,5f3528e380fd884939cbf354,6,,,,,,stamp,,,,,,,,,,,6,2,0,52,52,52,1,,,,,,,,,,,,,,,,,,,,,,,,,,,,,,,,,,,,,,,,,,,,,,,,,,,,,,,,,,,,,,,,,,,,,,,,,,,,,,,,,,,,,,,,,,,,,,
,,?,0.00225,0,,,,,,stimuli/images/PICTURE_453.png,FAMILY,5f086c5550e36f072d79b37f,23/10/1995,2020-08-13_09h06.03.052,proactive2,2020.1.2,Win32,60,5f341be081b9052c55068110,5f3528e380fd884939cbf354,6,,,,,,scissors,,,,,,,,,,,5,2,0,53,53,48,1,,,,,,,,,,,,,,,,,,,,,,,,,,,,,,,,,,,,,,,,,,,,,,,,,,,,,,,,,,,,,,,,,,,,,,,,,,,,,,,,,,,,,,,,,,,,,,
,,?,0.001745,0,,,,,,stimuli/images/PICTURE_285.png,PRINCE,5f086c5550e36f072d79b37f,23/10/1995,2020-08-13_09h06.03.052,proactive2,2020.1.2,Win32,60,5f341be081b9052c55068110,5f3528e380fd884939cbf354,6,,,,,,carrot,,,,,,,,,,,3,2,0,54,54,20,1,,,,,,,,,,,,,,,,,,,,,,,,,,,,,,,,,,,,,,,,,,,,,,,,,,,,,,,,,,,,,,,,,,,,,,,,,,,,,,,,,,,,,,,,,,,,,,
,,?,0.001765,0,,,,,,stimuli/images/PICTURE_452.png,COPS,5f086c5550e36f072d79b37f,23/10/1995,2020-08-13_09h06.03.052,proactive2,2020.1.2,Win32,60,5f341be081b9052c55068110,5f3528e380fd884939cbf354,6,,,,,,watch,,,,,,,,,,,1,2,0,55,55,0,1,,,,,,,,,,,,,,,,,,,,,,,,,,,,,,,,,,,,,,,,,,,,,,,,,,,,,,,,,,,,,,,,,,,,,,,,,,,,,,,,,,,,,,,,,,,,,,
,,?,0.00172,0,,,,,,stimuli/images/PICTURE_654.png,COPS,5f086c5550e36f072d79b37f,23/10/1995,2020-08-13_09h06.03.052,proactive2,2020.1.2,Win32,60,5f341be081b9052c55068110,5f3528e380fd884939cbf354,6,,,,,,pencil,,,,,,,,,,,2,2,0,56,56,10,1,,,,,,,,,,,,,,,,,,,,,,,,,,,,,,,,,,,,,,,,,,,,,,,,,,,,,,,,,,,,,,,,,,,,,,,,,,,,,,,,,,,,,,,,,,,,,,
,,?,0.00177,0,,,,,,stimuli/images/PICTURE_57.png,NATION,5f086c5550e36f072d79b37f,23/10/1995,2020-08-13_09h06.03.052,proactive2,2020.1.2,Win32,60,5f341be081b9052c55068110,5f3528e380fd884939cbf354,6,,,,,,stamp,,,,,,,,,,,3,2,0,57,57,21,1,,,,,,,,,,,,,,,,,,,,,,,,,,,,,,,,,,,,,,,,,,,,,,,,,,,,,,,,,,,,,,,,,,,,,,,,,,,,,,,,,,,,,,,,,,,,,,
,,?,10.445045,0,,,,,,stimuli/images/PICTURE_487.png,ROOF,5f086c5550e36f072d79b37f,23/10/1995,2020-08-13_09h06.03.052,proactive2,2020.1.2,Win32,60,5f341be081b9052c55068110,5f3528e380fd884939cbf354,6,,,,,,basket,,,,,,,,,,,6,2,0,58,58,50,1,,,,,,,,,,,,,,,,,,,,,,,,,,,,,,,,,,,,,,,,,,,,,,,,,,,,,,,,,,,,,,,,,,,,,,,,,,,,,,,,,,,,,,,,,,,,,,
,,TOILET,4.476925,1,,,,,,stimuli/images/PICTURE_311.png,TOILET,5f086c5550e36f072d79b37f,23/10/1995,2020-08-13_09h06.03.052,proactive2,2020.1.2,Win32,60,5f341be081b9052c55068110,5f3528e380fd884939cbf354,6,,,,,,razor,,,,,,,,,,,6,2,0,59,59,54,1,,,,,,,,,,,,,,,,,,,,,,,,,,,,,,,,,,,,,,,,,,,,,,,,,,,,,,,,,,,,,,,,,,,,,,,,,,,,,,,,,,,,,,,,,,,,,,
,,,,,,,,,,,,5f086c5550e36f072d79b37f,23/10/1995,2020-08-13_09h06.03.052,proactive2,2020.1.2,Win32,60,5f341be081b9052c55068110,5f3528e380fd884939cbf354,6,,,,,,,,,,,,,,,,,,,,,,,,0,0,0,2,1,stimuli/learn-block3.csv,,,,,,,,,,,,,,,,,,,,,,,,,,,,,,,,,,,,,,,,,,,,,,,,,,,,,,,,,,,,,,,,,,,,,,,,,,,,,,,,,,,,,,,,
,,,,,,,,,,stimuli/images/PICTURE_470.png,CASINO,5f086c5550e36f072d79b37f,23/10/1995,2020-08-13_09h06.03.052,proactive2,2020.1.2,Win32,60,5f341be081b9052c55068110,5f3528e380fd884939cbf354,6,,,,,,motorbike,,,,,,0,0,0,36,1,4,0,,,,,,,,,,,,,,,,,,,,,,,,,,,,,,,,,,,,,,,,,,,,,,,,,,,,,,,,,,,,,,,,,,,,,,,,,,,,,,,,,,,,,,,,,,,,,,,,,,,
,,,,,,,,,,stimuli/images/PICTURE_469.png,LETTER,5f086c5550e36f072d79b37f,23/10/1995,2020-08-13_09h06.03.052,proactive2,2020.1.2,Win32,60,5f341be081b9052c55068110,5f3528e380fd884939cbf354,6,,,,,,stool,,,,,,0,1,1,42,1,5,0,,,,,,,,,,,,,,,,,,,,,,,,,,,,,,,,,,,,,,,,,,,,,,,,,,,,,,,,,,,,,,,,,,,,,,,,,,,,,,,,,,,,,,,,,,,,,,,,,,,
,,,,,,,,,,stimuli/images/PICTURE_667.png,PLENTY,5f086c5550e36f072d79b37f,23/10/1995,2020-08-13_09h06.03.052,proactive2,2020.1.2,Win32,60,5f341be081b9052c55068110,5f3528e380fd884939cbf354,6,,,,,,daisy,,,,,,0,2,2,41,1,5,0,,,,,,,,,,,,,,,,,,,,,,,,,,,,,,,,,,,,,,,,,,,,,,,,,,,,,,,,,,,,,,,,,,,,,,,,,,,,,,,,,,,,,,,,,,,,,,,,,,,
,,,,,,,,,,stimuli/images/PICTURE_123.png,ADVICE,5f086c5550e36f072d79b37f,23/10/1995,2020-08-13_09h06.03.052,proactive2,2020.1.2,Win32,60,5f341be081b9052c55068110,5f3528e380fd884939cbf354,6,,,,,,dart,,,,,,0,3,3,40,1,5,0,,,,,,,,,,,,,,,,,,,,,,,,,,,,,,,,,,,,,,,,,,,,,,,,,,,,,,,,,,,,,,,,,,,,,,,,,,,,,,,,,,,,,,,,,,,,,,,,,,,
,,,,,,,,,,stimuli/images/PICTURE_688.png,WOMEN,5f086c5550e36f072d79b37f,23/10/1995,2020-08-13_09h06.03.052,proactive2,2020.1.2,Win32,60,5f341be081b9052c55068110,5f3528e380fd884939cbf354,6,,,,,,runner,,,,,,0,4,4,14,1,2,0,,,,,,,,,,,,,,,,,,,,,,,,,,,,,,,,,,,,,,,,,,,,,,,,,,,,,,,,,,,,,,,,,,,,,,,,,,,,,,,,,,,,,,,,,,,,,,,,,,,
,,,,,,,,,,stimuli/images/PICTURE_491.png,ROOF,5f086c5550e36f072d79b37f,23/10/1995,2020-08-13_09h06.03.052,proactive2,2020.1.2,Win32,60,5f341be081b9052c55068110,5f3528e380fd884939cbf354,6,,,,,,rug,,,,,,0,5,5,24,1,3,0,,,,,,,,,,,,,,,,,,,,,,,,,,,,,,,,,,,,,,,,,,,,,,,,,,,,,,,,,,,,,,,,,,,,,,,,,,,,,,,,,,,,,,,,,,,,,,,,,,,
,,,,,,,,,,stimuli/images/PICTURE_504.png,BODY,5f086c5550e36f072d79b37f,23/10/1995,2020-08-13_09h06.03.052,proactive2,2020.1.2,Win32,60,5f341be081b9052c55068110,5f3528e380fd884939cbf354,6,,,,,,wheel,,,,,,0,6,6,8,1,1,0,,,,,,,,,,,,,,,,,,,,,,,,,,,,,,,,,,,,,,,,,,,,,,,,,,,,,,,,,,,,,,,,,,,,,,,,,,,,,,,,,,,,,,,,,,,,,,,,,,,
,,,,,,,,,,stimuli/images/PICTURE_356.png,DANGER,5f086c5550e36f072d79b37f,23/10/1995,2020-08-13_09h06.03.052,proactive2,2020.1.2,Win32,60,5f341be081b9052c55068110,5f3528e380fd884939cbf354,6,,,,,,pawn,,,,,,0,7,7,55,1,6,0,,,,,,,,,,,,,,,,,,,,,,,,,,,,,,,,,,,,,,,,,,,,,,,,,,,,,,,,,,,,,,,,,,,,,,,,,,,,,,,,,,,,,,,,,,,,,,,,,,,
,,,,,,,,,,stimuli/images/PICTURE_688.png,CASINO,5f086c5550e36f072d79b37f,23/10/1995,2020-08-13_09h06.03.052,proactive2,2020.1.2,Win32,60,5f341be081b9052c55068110,5f3528e380fd884939cbf354,6,,,,,,runner,,,,,,0,8,8,2,1,1,0,,,,,,,,,,,,,,,,,,,,,,,,,,,,,,,,,,,,,,,,,,,,,,,,,,,,,,,,,,,,,,,,,,,,,,,,,,,,,,,,,,,,,,,,,,,,,,,,,,,
,,,,,,,,,,stimuli/images/PICTURE_453.png,PLENTY,5f086c5550e36f072d79b37f,23/10/1995,2020-08-13_09h06.03.052,proactive2,2020.1.2,Win32,60,5f341be081b9052c55068110,5f3528e380fd884939cbf354,6,,,,,,scissors,,,,,,0,9,9,56,1,6,0,,,,,,,,,,,,,,,,,,,,,,,,,,,,,,,,,,,,,,,,,,,,,,,,,,,,,,,,,,,,,,,,,,,,,,,,,,,,,,,,,,,,,,,,,,,,,,,,,,,
,,,,,,,,,,stimuli/images/PICTURE_302.png,FAMILY,5f086c5550e36f072d79b37f,23/10/1995,2020-08-13_09h06.03.052,proactive2,2020.1.2,Win32,60,5f341be081b9052c55068110,5f3528e380fd884939cbf354,6,,,,,,taxi,,,,,,0,10,10,18,1,2,0,,,,,,,,,,,,,,,,,,,,,,,,,,,,,,,,,,,,,,,,,,,,,,,,,,,,,,,,,,,,,,,,,,,,,,,,,,,,,,,,,,,,,,,,,,,,,,,,,,,
,,,,,,,,,,stimuli/images/PICTURE_160.png,FEET,5f086c5550e36f072d79b37f,23/10/1995,2020-08-13_09h06.03.052,proactive2,2020.1.2,Win32,60,5f341be081b9052c55068110,5f3528e380fd884939cbf354,6,,,,,,wheelbarrow,,,,,,0,11,11,58,1,6,0,,,,,,,,,,,,,,,,,,,,,,,,,,,,,,,,,,,,,,,,,,,,,,,,,,,,,,,,,,,,,,,,,,,,,,,,,,,,,,,,,,,,,,,,,,,,,,,,,,,
,,,,,,,,,,stimuli/images/PICTURE_203.png,ARTIST,5f086c5550e36f072d79b37f,23/10/1995,2020-08-13_09h06.03.052,proactive2,2020.1.2,Win32,60,5f341be081b9052c55068110,5f3528e380fd884939cbf354,6,,,,,,cap,,,,,,0,12,12,26,1,3,0,,,,,,,,,,,,,,,,,,,,,,,,,,,,,,,,,,,,,,,,,,,,,,,,,,,,,,,,,,,,,,,,,,,,,,,,,,,,,,,,,,,,,,,,,,,,,,,,,,,
,,,,,,,,,,stimuli/images/PICTURE_675.png,WEAPON,5f086c5550e36f072d79b37f,23/10/1995,2020-08-13_09h06.03.052,proactive2,2020.1.2,Win32,60,5f341be081b9052c55068110,5f3528e380fd884939cbf354,6,,,,,,windmill,,,,,,0,13,13,32,1,4,0,,,,,,,,,,,,,,,,,,,,,,,,,,,,,,,,,,,,,,,,,,,,,,,,,,,,,,,,,,,,,,,,,,,,,,,,,,,,,,,,,,,,,,,,,,,,,,,,,,,
,,,,,,,,,,stimuli/images/PICTURE_380.png,PHOTO,5f086c5550e36f072d79b37f,23/10/1995,2020-08-13_09h06.03.052,proactive2,2020.1.2,Win32,60,5f341be081b9052c55068110,5f3528e380fd884939cbf354,6,,,,,,gorilla,,,,,,0,14,14,52,1,6,0,,,,,,,,,,,,,,,,,,,,,,,,,,,,,,,,,,,,,,,,,,,,,,,,,,,,,,,,,,,,,,,,,,,,,,,,,,,,,,,,,,,,,,,,,,,,,,,,,,,
,,,,,,,,,,stimuli/images/PICTURE_314.png,SAKE,5f086c5550e36f072d79b37f,23/10/1995,2020-08-13_09h06.03.052,proactive2,2020.1.2,Win32,60,5f341be081b9052c55068110,5f3528e380fd884939cbf354,6,,,,,,perfume,,,,,,0,15,15,7,1,1,0,,,,,,,,,,,,,,,,,,,,,,,,,,,,,,,,,,,,,,,,,,,,,,,,,,,,,,,,,,,,,,,,,,,,,,,,,,,,,,,,,,,,,,,,,,,,,,,,,,,
,,,,,,,,,,stimuli/images/PICTURE_348.png,SPEECH,5f086c5550e36f072d79b37f,23/10/1995,2020-08-13_09h06.03.052,proactive2,2020.1.2,Win32,60,5f341be081b9052c55068110,5f3528e380fd884939cbf354,6,,,,,,pepper,,,,,,0,16,16,20,1,3,0,,,,,,,,,,,,,,,,,,,,,,,,,,,,,,,,,,,,,,,,,,,,,,,,,,,,,,,,,,,,,,,,,,,,,,,,,,,,,,,,,,,,,,,,,,,,,,,,,,,
,,,,,,,,,,stimuli/images/PICTURE_123.png,ADVICE,5f086c5550e36f072d79b37f,23/10/1995,2020-08-13_09h06.03.052,proactive2,2020.1.2,Win32,60,5f341be081b9052c55068110,5f3528e380fd884939cbf354,6,,,,,,dart,,,,,,0,17,17,50,1,6,0,,,,,,,,,,,,,,,,,,,,,,,,,,,,,,,,,,,,,,,,,,,,,,,,,,,,,,,,,,,,,,,,,,,,,,,,,,,,,,,,,,,,,,,,,,,,,,,,,,,
,,,,,,,,,,stimuli/images/PICTURE_177.png,CARS,5f086c5550e36f072d79b37f,23/10/1995,2020-08-13_09h06.03.052,proactive2,2020.1.2,Win32,60,5f341be081b9052c55068110,5f3528e380fd884939cbf354,6,,,,,,mushroom,,,,,,0,18,18,35,1,4,0,,,,,,,,,,,,,,,,,,,,,,,,,,,,,,,,,,,,,,,,,,,,,,,,,,,,,,,,,,,,,,,,,,,,,,,,,,,,,,,,,,,,,,,,,,,,,,,,,,,
,,,,,,,,,,stimuli/images/PICTURE_248.png,DOZEN,5f086c5550e36f072d79b37f,23/10/1995,2020-08-13_09h06.03.052,proactive2,2020.1.2,Win32,60,5f341be081b9052c55068110,5f3528e380fd884939cbf354,6,,,,,,cart,,,,,,0,19,19,39,1,4,0,,,,,,,,,,,,,,,,,,,,,,,,,,,,,,,,,,,,,,,,,,,,,,,,,,,,,,,,,,,,,,,,,,,,,,,,,,,,,,,,,,,,,,,,,,,,,,,,,,,
,,,,,,,,,,stimuli/images/PICTURE_654.png,VALLEY,5f086c5550e36f072d79b37f,23/10/1995,2020-08-13_09h06.03.052,proactive2,2020.1.2,Win32,60,5f341be081b9052c55068110,5f3528e380fd884939cbf354,6,,,,,,pencil,,,,,,0,20,20,1,1,1,0,,,,,,,,,,,,,,,,,,,,,,,,,,,,,,,,,,,,,,,,,,,,,,,,,,,,,,,,,,,,,,,,,,,,,,,,,,,,,,,,,,,,,,,,,,,,,,,,,,,
,,,,,,,,,,stimuli/images/PICTURE_233.png,IDEAS,5f086c5550e36f072d79b37f,23/10/1995,2020-08-13_09h06.03.052,proactive2,2020.1.2,Win32,60,5f341be081b9052c55068110,5f3528e380fd884939cbf354,6,,,,,,salt,,,,,,0,21,21,28,1,3,0,,,,,,,,,,,,,,,,,,,,,,,,,,,,,,,,,,,,,,,,,,,,,,,,,,,,,,,,,,,,,,,,,,,,,,,,,,,,,,,,,,,,,,,,,,,,,,,,,,,
,,,,,,,,,,stimuli/images/PICTURE_233.png,WOMEN,5f086c5550e36f072d79b37f,23/10/1995,2020-08-13_09h06.03.052,proactive2,2020.1.2,Win32,60,5f341be081b9052c55068110,5f3528e380fd884939cbf354,6,,,,,,salt,,,,,,0,22,22,38,1,4,0,,,,,,,,,,,,,,,,,,,,,,,,,,,,,,,,,,,,,,,,,,,,,,,,,,,,,,,,,,,,,,,,,,,,,,,,,,,,,,,,,,,,,,,,,,,,,,,,,,,
,,,,,,,,,,stimuli/images/PICTURE_208.png,THING,5f086c5550e36f072d79b37f,23/10/1995,2020-08-13_09h06.03.052,proactive2,2020.1.2,Win32,60,5f341be081b9052c55068110,5f3528e380fd884939cbf354,6,,,,,,microphone,,,,,,0,23,23,47,1,5,0,,,,,,,,,,,,,,,,,,,,,,,,,,,,,,,,,,,,,,,,,,,,,,,,,,,,,,,,,,,,,,,,,,,,,,,,,,,,,,,,,,,,,,,,,,,,,,,,,,,
,,,,,,,,,,stimuli/images/PICTURE_308.png,ESTATE,5f086c5550e36f072d79b37f,23/10/1995,2020-08-13_09h06.03.052,proactive2,2020.1.2,Win32,60,5f341be081b9052c55068110,5f3528e380fd884939cbf354,6,,,,,,dice,,,,,,0,24,24,46,1,5,0,,,,,,,,,,,,,,,,,,,,,,,,,,,,,,,,,,,,,,,,,,,,,,,,,,,,,,,,,,,,,,,,,,,,,,,,,,,,,,,,,,,,,,,,,,,,,,,,,,,
,,,,,,,,,,stimuli/images/PICTURE_667.png,BATH,5f086c5550e36f072d79b37f,23/10/1995,2020-08-13_09h06.03.052,proactive2,2020.1.2,Win32,60,5f341be081b9052c55068110,5f3528e380fd884939cbf354,6,,,,,,daisy,,,,,,0,25,25,4,1,1,0,,,,,,,,,,,,,,,,,,,,,,,,,,,,,,,,,,,,,,,,,,,,,,,,,,,,,,,,,,,,,,,,,,,,,,,,,,,,,,,,,,,,,,,,,,,,,,,,,,,
,,,,,,,,,,stimuli/images/PICTURE_311.png,FRIEND,5f086c5550e36f072d79b37f,23/10/1995,2020-08-13_09h06.03.052,proactive2,2020.1.2,Win32,60,5f341be081b9052c55068110,5f3528e380fd884939cbf354,6,,,,,,razor,,,,,,0,26,26,34,1,4,0,,,,,,,,,,,,,,,,,,,,,,,,,,,,,,,,,,,,,,,,,,,,,,,,,,,,,,,,,,,,,,,,,,,,,,,,,,,,,,,,,,,,,,,,,,,,,,,,,,,
,,,,,,,,,,stimuli/images/PICTURE_487.png,FLIGHT,5f086c5550e36f072d79b37f,23/10/1995,2020-08-13_09h06.03.052,proactive2,2020.1.2,Win32,60,5f341be081b9052c55068110,5f3528e380fd884939cbf354,6,,,,,,basket,,,,,,0,27,27,9,1,1,0,,,,,,,,,,,,,,,,,,,,,,,,,,,,,,,,,,,,,,,,,,,,,,,,,,,,,,,,,,,,,,,,,,,,,,,,,,,,,,,,,,,,,,,,,,,,,,,,,,,
,,,,,,,,,,stimuli/images/PICTURE_708.png,YARD,5f086c5550e36f072d79b37f,23/10/1995,2020-08-13_09h06.03.052,proactive2,2020.1.2,Win32,60,5f341be081b9052c55068110,5f3528e380fd884939cbf354,6,,,,,,monkey,,,,,,0,28,28,29,1,3,0,,,,,,,,,,,,,,,,,,,,,,,,,,,,,,,,,,,,,,,,,,,,,,,,,,,,,,,,,,,,,,,,,,,,,,,,,,,,,,,,,,,,,,,,,,,,,,,,,,,
,,,,,,,,,,stimuli/images/PICTURE_488.png,STYLE,5f086c5550e36f072d79b37f,23/10/1995,2020-08-13_09h06.03.052,proactive2,2020.1.2,Win32,60,5f341be081b9052c55068110,5f3528e380fd884939cbf354,6,,,,,,sun,,,,,,0,29,29,33,1,4,0,,,,,,,,,,,,,,,,,,,,,,,,,,,,,,,,,,,,,,,,,,,,,,,,,,,,,,,,,,,,,,,,,,,,,,,,,,,,,,,,,,,,,,,,,,,,,,,,,,,
,,,,,,,,,,stimuli/images/PICTURE_285.png,ADVICE,5f086c5550e36f072d79b37f,23/10/1995,2020-08-13_09h06.03.052,proactive2,2020.1.2,Win32,60,5f341be081b9052c55068110,5f3528e380fd884939cbf354,6,,,,,,carrot,,,,,,0,30,30,12,1,2,0,,,,,,,,,,,,,,,,,,,,,,,,,,,,,,,,,,,,,,,,,,,,,,,,,,,,,,,,,,,,,,,,,,,,,,,,,,,,,,,,,,,,,,,,,,,,,,,,,,,
,,,,,,,,,,stimuli/images/PICTURE_311.png,BEAUTY,5f086c5550e36f072d79b37f,23/10/1995,2020-08-13_09h06.03.052,proactive2,2020.1.2,Win32,60,5f341be081b9052c55068110,5f3528e380fd884939cbf354,6,,,,,,razor,,,,,,0,31,31,13,1,2,0,,,,,,,,,,,,,,,,,,,,,,,,,,,,,,,,,,,,,,,,,,,,,,,,,,,,,,,,,,,,,,,,,,,,,,,,,,,,,,,,,,,,,,,,,,,,,,,,,,,
,,,,,,,,,,stimuli/images/PICTURE_467.png,DEMON,5f086c5550e36f072d79b37f,23/10/1995,2020-08-13_09h06.03.052,proactive2,2020.1.2,Win32,60,5f341be081b9052c55068110,5f3528e380fd884939cbf354,6,,,,,,peg,,,,,,0,32,32,23,1,3,0,,,,,,,,,,,,,,,,,,,,,,,,,,,,,,,,,,,,,,,,,,,,,,,,,,,,,,,,,,,,,,,,,,,,,,,,,,,,,,,,,,,,,,,,,,,,,,,,,,,
,,,,,,,,,,stimuli/images/PICTURE_314.png,GODS,5f086c5550e36f072d79b37f,23/10/1995,2020-08-13_09h06.03.052,proactive2,2020.1.2,Win32,60,5f341be081b9052c55068110,5f3528e380fd884939cbf354,6,,,,,,perfume,,,,,,0,33,33,11,1,2,0,,,,,,,,,,,,,,,,,,,,,,,,,,,,,,,,,,,,,,,,,,,,,,,,,,,,,,,,,,,,,,,,,,,,,,,,,,,,,,,,,,,,,,,,,,,,,,,,,,,
,,,,,,,,,,stimuli/images/PICTURE_509.png,PHOTO,5f086c5550e36f072d79b37f,23/10/1995,2020-08-13_09h06.03.052,proactive2,2020.1.2,Win32,60,5f341be081b9052c55068110,5f3528e380fd884939cbf354,6,,,,,,telephone,,,,,,0,34,34,21,1,3,0,,,,,,,,,,,,,,,,,,,,,,,,,,,,,,,,,,,,,,,,,,,,,,,,,,,,,,,,,,,,,,,,,,,,,,,,,,,,,,,,,,,,,,,,,,,,,,,,,,,
,,,,,,,,,,stimuli/images/PICTURE_449.png,THING,5f086c5550e36f072d79b37f,23/10/1995,2020-08-13_09h06.03.052,proactive2,2020.1.2,Win32,60,5f341be081b9052c55068110,5f3528e380fd884939cbf354,6,,,,,,bench,,,,,,0,35,35,59,1,6,0,,,,,,,,,,,,,,,,,,,,,,,,,,,,,,,,,,,,,,,,,,,,,,,,,,,,,,,,,,,,,,,,,,,,,,,,,,,,,,,,,,,,,,,,,,,,,,,,,,,
,,,,,,,,,,stimuli/images/PICTURE_208.png,MONTH,5f086c5550e36f072d79b37f,23/10/1995,2020-08-13_09h06.03.052,proactive2,2020.1.2,Win32,60,5f341be081b9052c55068110,5f3528e380fd884939cbf354,6,,,,,,microphone,,,,,,0,36,36,53,1,6,0,,,,,,,,,,,,,,,,,,,,,,,,,,,,,,,,,,,,,,,,,,,,,,,,,,,,,,,,,,,,,,,,,,,,,,,,,,,,,,,,,,,,,,,,,,,,,,,,,,,
,,,,,,,,,,stimuli/images/PICTURE_32.png,JUNGLE,5f086c5550e36f072d79b37f,23/10/1995,2020-08-13_09h06.03.052,proactive2,2020.1.2,Win32,60,5f341be081b9052c55068110,5f3528e380fd884939cbf354,6,,,,,,crown,,,,,,0,37,37,45,1,5,0,,,,,,,,,,,,,,,,,,,,,,,,,,,,,,,,,,,,,,,,,,,,,,,,,,,,,,,,,,,,,,,,,,,,,,,,,,,,,,,,,,,,,,,,,,,,,,,,,,,
,,,,,,,,,,stimuli/images/PICTURE_491.png,WRITER,5f086c5550e36f072d79b37f,23/10/1995,2020-08-13_09h06.03.052,proactive2,2020.1.2,Win32,60,5f341be081b9052c55068110,5f3528e380fd884939cbf354,6,,,,,,rug,,,,,,0,38,38,57,1,6,0,,,,,,,,,,,,,,,,,,,,,,,,,,,,,,,,,,,,,,,,,,,,,,,,,,,,,,,,,,,,,,,,,,,,,,,,,,,,,,,,,,,,,,,,,,,,,,,,,,,
,,,,,,,,,,stimuli/images/PICTURE_339.png,PLENTY,5f086c5550e36f072d79b37f,23/10/1995,2020-08-13_09h06.03.052,proactive2,2020.1.2,Win32,60,5f341be081b9052c55068110,5f3528e380fd884939cbf354,6,,,,,,backpack,,,,,,0,39,39,0,1,1,0,,,,,,,,,,,,,,,,,,,,,,,,,,,,,,,,,,,,,,,,,,,,,,,,,,,,,,,,,,,,,,,,,,,,,,,,,,,,,,,,,,,,,,,,,,,,,,,,,,,
,,,,,,,,,,stimuli/images/PICTURE_208.png,LOTS,5f086c5550e36f072d79b37f,23/10/1995,2020-08-13_09h06.03.052,proactive2,2020.1.2,Win32,60,5f341be081b9052c55068110,5f3528e380fd884939cbf354,6,,,,,,microphone,,,,,,0,40,40,10,1,2,0,,,,,,,,,,,,,,,,,,,,,,,,,,,,,,,,,,,,,,,,,,,,,,,,,,,,,,,,,,,,,,,,,,,,,,,,,,,,,,,,,,,,,,,,,,,,,,,,,,,
,,,,,,,,,,stimuli/images/PICTURE_744.png,SAKE,5f086c5550e36f072d79b37f,23/10/1995,2020-08-13_09h06.03.052,proactive2,2020.1.2,Win32,60,5f341be081b9052c55068110,5f3528e380fd884939cbf354,6,,,,,,ring,,,,,,0,41,41,17,1,2,0,,,,,,,,,,,,,,,,,,,,,,,,,,,,,,,,,,,,,,,,,,,,,,,,,,,,,,,,,,,,,,,,,,,,,,,,,,,,,,,,,,,,,,,,,,,,,,,,,,,
,,,,,,,,,,stimuli/images/PICTURE_708.png,PENNY,5f086c5550e36f072d79b37f,23/10/1995,2020-08-13_09h06.03.052,proactive2,2020.1.2,Win32,60,5f341be081b9052c55068110,5f3528e380fd884939cbf354,6,,,,,,monkey,,,,,,0,42,42,31,1,4,0,,,,,,,,,,,,,,,,,,,,,,,,,,,,,,,,,,,,,,,,,,,,,,,,,,,,,,,,,,,,,,,,,,,,,,,,,,,,,,,,,,,,,,,,,,,,,,,,,,,
,,,,,,,,,,stimuli/images/PICTURE_380.png,DEATH,5f086c5550e36f072d79b37f,23/10/1995,2020-08-13_09h06.03.052,proactive2,2020.1.2,Win32,60,5f341be081b9052c55068110,5f3528e380fd884939cbf354,6,,,,,,gorilla,,,,,,0,43,43,49,1,5,0,,,,,,,,,,,,,,,,,,,,,,,,,,,,,,,,,,,,,,,,,,,,,,,,,,,,,,,,,,,,,,,,,,,,,,,,,,,,,,,,,,,,,,,,,,,,,,,,,,,
,,,,,,,,,,stimuli/images/PICTURE_68.png,MILE,5f086c5550e36f072d79b37f,23/10/1995,2020-08-13_09h06.03.052,proactive2,2020.1.2,Win32,60,5f341be081b9052c55068110,5f3528e380fd884939cbf354,6,,,,,,candle,,,,,,0,44,44,44,1,5,0,,,,,,,,,,,,,,,,,,,,,,,,,,,,,,,,,,,,,,,,,,,,,,,,,,,,,,,,,,,,,,,,,,,,,,,,,,,,,,,,,,,,,,,,,,,,,,,,,,,
,,,,,,,,,,stimuli/images/PICTURE_95.png,STYLE,5f086c5550e36f072d79b37f,23/10/1995,2020-08-13_09h06.03.052,proactive2,2020.1.2,Win32,60,5f341be081b9052c55068110,5f3528e380fd884939cbf354,6,,,,,,suitcase,,,,,,0,45,45,25,1,3,0,,,,,,,,,,,,,,,,,,,,,,,,,,,,,,,,,,,,,,,,,,,,,,,,,,,,,,,,,,,,,,,,,,,,,,,,,,,,,,,,,,,,,,,,,,,,,,,,,,,
,,,,,,,,,,stimuli/images/PICTURE_469.png,ARTIST,5f086c5550e36f072d79b37f,23/10/1995,2020-08-13_09h06.03.052,proactive2,2020.1.2,Win32,60,5f341be081b9052c55068110,5f3528e380fd884939cbf354,6,,,,,,stool,,,,,,0,46,46,6,1,1,0,,,,,,,,,,,,,,,,,,,,,,,,,,,,,,,,,,,,,,,,,,,,,,,,,,,,,,,,,,,,,,,,,,,,,,,,,,,,,,,,,,,,,,,,,,,,,,,,,,,
,,,,,,,,,,stimuli/images/PICTURE_453.png,DUDE,5f086c5550e36f072d79b37f,23/10/1995,2020-08-13_09h06.03.052,proactive2,2020.1.2,Win32,60,5f341be081b9052c55068110,5f3528e380fd884939cbf354,6,,,,,,scissors,,,,,,0,47,47,27,1,3,0,,,,,,,,,,,,,,,,,,,,,,,,,,,,,,,,,,,,,,,,,,,,,,,,,,,,,,,,,,,,,,,,,,,,,,,,,,,,,,,,,,,,,,,,,,,,,,,,,,,
,,,,,,,,,,stimuli/images/PICTURE_160.png,LEADER,5f086c5550e36f072d79b37f,23/10/1995,2020-08-13_09h06.03.052,proactive2,2020.1.2,Win32,60,5f341be081b9052c55068110,5f3528e380fd884939cbf354,6,,,,,,wheelbarrow,,,,,,0,48,48,3,1,1,0,,,,,,,,,,,,,,,,,,,,,,,,,,,,,,,,,,,,,,,,,,,,,,,,,,,,,,,,,,,,,,,,,,,,,,,,,,,,,,,,,,,,,,,,,,,,,,,,,,,
,,,,,,,,,,stimuli/images/PICTURE_744.png,SYSTEM,5f086c5550e36f072d79b37f,23/10/1995,2020-08-13_09h06.03.052,proactive2,2020.1.2,Win32,60,5f341be081b9052c55068110,5f3528e380fd884939cbf354,6,,,,,,ring,,,,,,0,49,49,43,1,5,0,,,,,,,,,,,,,,,,,,,,,,,,,,,,,,,,,,,,,,,,,,,,,,,,,,,,,,,,,,,,,,,,,,,,,,,,,,,,,,,,,,,,,,,,,,,,,,,,,,,
,,,,,,,,,,stimuli/images/PICTURE_85.png,THING,5f086c5550e36f072d79b37f,23/10/1995,2020-08-13_09h06.03.052,proactive2,2020.1.2,Win32,60,5f341be081b9052c55068110,5f3528e380fd884939cbf354,6,,,,,,diamond,,,,,,0,50,50,15,1,2,0,,,,,,,,,,,,,,,,,,,,,,,,,,,,,,,,,,,,,,,,,,,,,,,,,,,,,,,,,,,,,,,,,,,,,,,,,,,,,,,,,,,,,,,,,,,,,,,,,,,
,,,,,,,,,,stimuli/images/PICTURE_677.png,MILE,5f086c5550e36f072d79b37f,23/10/1995,2020-08-13_09h06.03.052,proactive2,2020.1.2,Win32,60,5f341be081b9052c55068110,5f3528e380fd884939cbf354,6,,,,,,map,,,,,,0,51,51,30,1,4,0,,,,,,,,,,,,,,,,,,,,,,,,,,,,,,,,,,,,,,,,,,,,,,,,,,,,,,,,,,,,,,,,,,,,,,,,,,,,,,,,,,,,,,,,,,,,,,,,,,,
,,,,,,,,,,stimuli/images/PICTURE_327.png,BEAUTY,5f086c5550e36f072d79b37f,23/10/1995,2020-08-13_09h06.03.052,proactive2,2020.1.2,Win32,60,5f341be081b9052c55068110,5f3528e380fd884939cbf354,6,,,,,,helmet,,,,,,0,52,52,48,1,5,0,,,,,,,,,,,,,,,,,,,,,,,,,,,,,,,,,,,,,,,,,,,,,,,,,,,,,,,,,,,,,,,,,,,,,,,,,,,,,,,,,,,,,,,,,,,,,,,,,,,
,,,,,,,,,,stimuli/images/PICTURE_692.png,MONTH,5f086c5550e36f072d79b37f,23/10/1995,2020-08-13_09h06.03.052,proactive2,2020.1.2,Win32,60,5f341be081b9052c55068110,5f3528e380fd884939cbf354,6,,,,,,cherry,,,,,,0,53,53,16,1,2,0,,,,,,,,,,,,,,,,,,,,,,,,,,,,,,,,,,,,,,,,,,,,,,,,,,,,,,,,,,,,,,,,,,,,,,,,,,,,,,,,,,,,,,,,,,,,,,,,,,,
,,,,,,,,,,stimuli/images/PICTURE_215.png,PLENTY,5f086c5550e36f072d79b37f,23/10/1995,2020-08-13_09h06.03.052,proactive2,2020.1.2,Win32,60,5f341be081b9052c55068110,5f3528e380fd884939cbf354,6,,,,,,boot,,,,,,0,54,54,37,1,4,0,,,,,,,,,,,,,,,,,,,,,,,,,,,,,,,,,,,,,,,,,,,,,,,,,,,,,,,,,,,,,,,,,,,,,,,,,,,,,,,,,,,,,,,,,,,,,,,,,,,
,,,,,,,,,,stimuli/images/PICTURE_308.png,KIND,5f086c5550e36f072d79b37f,23/10/1995,2020-08-13_09h06.03.052,proactive2,2020.1.2,Win32,60,5f341be081b9052c55068110,5f3528e380fd884939cbf354,6,,,,,,dice,,,,,,0,55,55,54,1,6,0,,,,,,,,,,,,,,,,,,,,,,,,,,,,,,,,,,,,,,,,,,,,,,,,,,,,,,,,,,,,,,,,,,,,,,,,,,,,,,,,,,,,,,,,,,,,,,,,,,,
,,,,,,,,,,stimuli/images/PICTURE_147.png,MOMENT,5f086c5550e36f072d79b37f,23/10/1995,2020-08-13_09h06.03.052,proactive2,2020.1.2,Win32,60,5f341be081b9052c55068110,5f3528e380fd884939cbf354,6,,,,,,hanger,,,,,,0,56,56,51,1,6,0,,,,,,,,,,,,,,,,,,,,,,,,,,,,,,,,,,,,,,,,,,,,,,,,,,,,,,,,,,,,,,,,,,,,,,,,,,,,,,,,,,,,,,,,,,,,,,,,,,,
,,,,,,,,,,stimuli/images/PICTURE_255.png,AREA,5f086c5550e36f072d79b37f,23/10/1995,2020-08-13_09h06.03.052,proactive2,2020.1.2,Win32,60,5f341be081b9052c55068110,5f3528e380fd884939cbf354,6,,,,,,shovel,,,,,,0,57,57,22,1,3,0,,,,,,,,,,,,,,,,,,,,,,,,,,,,,,,,,,,,,,,,,,,,,,,,,,,,,,,,,,,,,,,,,,,,,,,,,,,,,,,,,,,,,,,,,,,,,,,,,,,
,,,,,,,,,,stimuli/images/PICTURE_151.png,GIRL,5f086c5550e36f072d79b37f,23/10/1995,2020-08-13_09h06.03.052,proactive2,2020.1.2,Win32,60,5f341be081b9052c55068110,5f3528e380fd884939cbf354,6,,,,,,tray,,,,,,0,58,58,19,1,2,0,,,,,,,,,,,,,,,,,,,,,,,,,,,,,,,,,,,,,,,,,,,,,,,,,,,,,,,,,,,,,,,,,,,,,,,,,,,,,,,,,,,,,,,,,,,,,,,,,,,
,,?,0.00362,0,,,,,,stimuli/images/PICTURE_677.png,MILE,5f086c5550e36f072d79b37f,23/10/1995,2020-08-13_09h06.03.052,proactive2,2020.1.2,Win32,60,5f341be081b9052c55068110,5f3528e380fd884939cbf354,6,,,,,,map,,,,,,,,,,,4,0,0,0,0,30,1,,,,,,,,,,,,,,,,,,,,,,,,,,,,,,,,,,,,,,,,,,,,,,,,,,,,,,,,,,,,,,,,,,,,,,,,,,,,,,,,,,,,,,,,,,,,,,
,,?,0.003035,0,,,,,,stimuli/images/PICTURE_203.png,ARTIST,5f086c5550e36f072d79b37f,23/10/1995,2020-08-13_09h06.03.052,proactive2,2020.1.2,Win32,60,5f341be081b9052c55068110,5f3528e380fd884939cbf354,6,,,,,,cap,,,,,,,,,,,3,0,0,1,1,26,1,,,,,,,,,,,,,,,,,,,,,,,,,,,,,,,,,,,,,,,,,,,,,,,,,,,,,,,,,,,,,,,,,,,,,,,,,,,,,,,,,,,,,,,,,,,,,,
,,?,15.012935,0,,,,,,stimuli/images/PICTURE_453.png,PLENTY,5f086c5550e36f072d79b37f,23/10/1995,2020-08-13_09h06.03.052,proactive2,2020.1.2,Win32,60,5f341be081b9052c55068110,5f3528e380fd884939cbf354,6,,,,,,scissors,,,,,,,,,,,6,0,0,2,2,56,1,,,,,,,,,,,,,,,,,,,,,,,,,,,,,,,,,,,,,,,,,,,,,,,,,,,,,,,,,,,,,,,,,,,,,,,,,,,,,,,,,,,,,,,,,,,,,,
,,?,15.024375,0,,,,,,stimuli/images/PICTURE_308.png,KIND,5f086c5550e36f072d79b37f,23/10/1995,2020-08-13_09h06.03.052,proactive2,2020.1.2,Win32,60,5f341be081b9052c55068110,5f3528e380fd884939cbf354,6,,,,,,dice,,,,,,,,,,,6,0,0,3,3,54,1,,,,,,,,,,,,,,,,,,,,,,,,,,,,,,,,,,,,,,,,,,,,,,,,,,,,,,,,,,,,,,,,,,,,,,,,,,,,,,,,,,,,,,,,,,,,,,
,,?,0.002175,0,,,,,,stimuli/images/PICTURE_469.png,LETTER,5f086c5550e36f072d79b37f,23/10/1995,2020-08-13_09h06.03.052,proactive2,2020.1.2,Win32,60,5f341be081b9052c55068110,5f3528e380fd884939cbf354,6,,,,,,stool,,,,,,,,,,,5,0,0,4,4,42,1,,,,,,,,,,,,,,,,,,,,,,,,,,,,,,,,,,,,,,,,,,,,,,,,,,,,,,,,,,,,,,,,,,,,,,,,,,,,,,,,,,,,,,,,,,,,,,
,,?,0.0017,0,,,,,,stimuli/images/PICTURE_233.png,IDEAS,5f086c5550e36f072d79b37f,23/10/1995,2020-08-13_09h06.03.052,proactive2,2020.1.2,Win32,60,5f341be081b9052c55068110,5f3528e380fd884939cbf354,6,,,,,,salt,,,,,,,,,,,3,0,0,5,5,28,1,,,,,,,,,,,,,,,,,,,,,,,,,,,,,,,,,,,,,,,,,,,,,,,,,,,,,,,,,,,,,,,,,,,,,,,,,,,,,,,,,,,,,,,,,,,,,,
,,?,0.00193,0,,,,,,stimuli/images/PICTURE_314.png,GODS,5f086c5550e36f072d79b37f,23/10/1995,2020-08-13_09h06.03.052,proactive2,2020.1.2,Win32,60,5f341be081b9052c55068110,5f3528e380fd884939cbf354,6,,,,,,perfume,,,,,,,,,,,2,0,0,6,6,11,1,,,,,,,,,,,,,,,,,,,,,,,,,,,,,,,,,,,,,,,,,,,,,,,,,,,,,,,,,,,,,,,,,,,,,,,,,,,,,,,,,,,,,,,,,,,,,,
,,?,0.001705,0,,,,,,stimuli/images/PICTURE_654.png,VALLEY,5f086c5550e36f072d79b37f,23/10/1995,2020-08-13_09h06.03.052,proactive2,2020.1.2,Win32,60,5f341be081b9052c55068110,5f3528e380fd884939cbf354,6,,,,,,pencil,,,,,,,,,,,1,0,0,7,7,1,1,,,,,,,,,,,,,,,,,,,,,,,,,,,,,,,,,,,,,,,,,,,,,,,,,,,,,,,,,,,,,,,,,,,,,,,,,,,,,,,,,,,,,,,,,,,,,,
,,?,0.002705,0,,,,,,stimuli/images/PICTURE_160.png,LEADER,5f086c5550e36f072d79b37f,23/10/1995,2020-08-13_09h06.03.052,proactive2,2020.1.2,Win32,60,5f341be081b9052c55068110,5f3528e380fd884939cbf354,6,,,,,,wheelbarrow,,,,,,,,,,,1,0,0,8,8,3,1,,,,,,,,,,,,,,,,,,,,,,,,,,,,,,,,,,,,,,,,,,,,,,,,,,,,,,,,,,,,,,,,,,,,,,,,,,,,,,,,,,,,,,,,,,,,,,
,,DANGER,5.560245,1,,,,,,stimuli/images/PICTURE_356.png,DANGER,5f086c5550e36f072d79b37f,23/10/1995,2020-08-13_09h06.03.052,proactive2,2020.1.2,Win32,60,5f341be081b9052c55068110,5f3528e380fd884939cbf354,6,,,,,,pawn,,,,,,,,,,,6,0,0,9,9,55,1,,,,,,,,,,,,,,,,,,,,,,,,,,,,,,,,,,,,,,,,,,,,,,,,,,,,,,,,,,,,,,,,,,,,,,,,,,,,,,,,,,,,,,,,,,,,,,
,,?,0.002265,0,,,,,,stimuli/images/PICTURE_255.png,AREA,5f086c5550e36f072d79b37f,23/10/1995,2020-08-13_09h06.03.052,proactive2,2020.1.2,Win32,60,5f341be081b9052c55068110,5f3528e380fd884939cbf354,6,,,,,,shovel,,,,,,,,,,,3,0,0,10,10,22,1,,,,,,,,,,,,,,,,,,,,,,,,,,,,,,,,,,,,,,,,,,,,,,,,,,,,,,,,,,,,,,,,,,,,,,,,,,,,,,,,,,,,,,,,,,,,,,
,,?,0.0025,0,,,,,,stimuli/images/PICTURE_311.png,BEAUTY,5f086c5550e36f072d79b37f,23/10/1995,2020-08-13_09h06.03.052,proactive2,2020.1.2,Win32,60,5f341be081b9052c55068110,5f3528e380fd884939cbf354,6,,,,,,razor,,,,,,,,,,,2,0,0,11,11,13,1,,,,,,,,,,,,,,,,,,,,,,,,,,,,,,,,,,,,,,,,,,,,,,,,,,,,,,,,,,,,,,,,,,,,,,,,,,,,,,,,,,,,,,,,,,,,,,
,,?,0.00168,0,,,,,,stimuli/images/PICTURE_688.png,CASINO,5f086c5550e36f072d79b37f,23/10/1995,2020-08-13_09h06.03.052,proactive2,2020.1.2,Win32,60,5f341be081b9052c55068110,5f3528e380fd884939cbf354,6,,,,,,runner,,,,,,,,,,,1,0,0,12,12,2,1,,,,,,,,,,,,,,,,,,,,,,,,,,,,,,,,,,,,,,,,,,,,,,,,,,,,,,,,,,,,,,,,,,,,,,,,,,,,,,,,,,,,,,,,,,,,,,
,,?,0.001755,0,,,,,,stimuli/images/PICTURE_708.png,CLIENT,5f086c5550e36f072d79b37f,23/10/1995,2020-08-13_09h06.03.052,proactive2,2020.1.2,Win32,60,5f341be081b9052c55068110,5f3528e380fd884939cbf354,6,,,,,,monkey,,,,,,,,,,,1,0,0,13,13,5,1,,,,,,,,,,,,,,,,,,,,,,,,,,,,,,,,,,,,,,,,,,,,,,,,,,,,,,,,,,,,,,,,,,,,,,,,,,,,,,,,,,,,,,,,,,,,,,
,,?,0.0019,0,,,,,,stimuli/images/PICTURE_380.png,DEATH,5f086c5550e36f072d79b37f,23/10/1995,2020-08-13_09h06.03.052,proactive2,2020.1.2,Win32,60,5f341be081b9052c55068110,5f3528e380fd884939cbf354,6,,,,,,gorilla,,,,,,,,,,,5,0,0,14,14,49,1,,,,,,,,,,,,,,,,,,,,,,,,,,,,,,,,,,,,,,,,,,,,,,,,,,,,,,,,,,,,,,,,,,,,,,,,,,,,,,,,,,,,,,,,,,,,,,
,,THING,5.57835,1,,,,,,stimuli/images/PICTURE_449.png,THING,5f086c5550e36f072d79b37f,23/10/1995,2020-08-13_09h06.03.052,proactive2,2020.1.2,Win32,60,5f341be081b9052c55068110,5f3528e380fd884939cbf354,6,,,,,,bench,,,,,,,,,,,6,0,0,15,15,59,1,,,,,,,,,,,,,,,,,,,,,,,,,,,,,,,,,,,,,,,,,,,,,,,,,,,,,,,,,,,,,,,,,,,,,,,,,,,,,,,,,,,,,,,,,,,,,,
,,?,0.003125,0,,,,,,stimuli/images/PICTURE_688.png,WOMEN,5f086c5550e36f072d79b37f,23/10/1995,2020-08-13_09h06.03.052,proactive2,2020.1.2,Win32,60,5f341be081b9052c55068110,5f3528e380fd884939cbf354,6,,,,,,runner,,,,,,,,,,,2,0,0,16,16,14,1,,,,,,,,,,,,,,,,,,,,,,,,,,,,,,,,,,,,,,,,,,,,,,,,,,,,,,,,,,,,,,,,,,,,,,,,,,,,,,,,,,,,,,,,,,,,,,
,,?,0.002825,0,,,,,,stimuli/images/PICTURE_504.png,BODY,5f086c5550e36f072d79b37f,23/10/1995,2020-08-13_09h06.03.052,proactive2,2020.1.2,Win32,60,5f341be081b9052c55068110,5f3528e380fd884939cbf354,6,,,,,,wheel,,,,,,,,,,,1,0,0,17,17,8,1,,,,,,,,,,,,,,,,,,,,,,,,,,,,,,,,,,,,,,,,,,,,,,,,,,,,,,,,,,,,,,,,,,,,,,,,,,,,,,,,,,,,,,,,,,,,,,
,,?,0.003025,0,,,,,,stimuli/images/PICTURE_708.png,PENNY,5f086c5550e36f072d79b37f,23/10/1995,2020-08-13_09h06.03.052,proactive2,2020.1.2,Win32,60,5f341be081b9052c55068110,5f3528e380fd884939cbf354,6,,,,,,monkey,,,,,,,,,,,4,0,0,18,18,31,1,,,,,,,,,,,,,,,,,,,,,,,,,,,,,,,,,,,,,,,,,,,,,,,,,,,,,,,,,,,,,,,,,,,,,,,,,,,,,,,,,,,,,,,,,,,,,,
,,?,0.004555,0,,,,,,stimuli/images/PICTURE_32.png,JUNGLE,5f086c5550e36f072d79b37f,23/10/1995,2020-08-13_09h06.03.052,proactive2,2020.1.2,Win32,60,5f341be081b9052c55068110,5f3528e380fd884939cbf354,6,,,,,,crown,,,,,,,,,,,5,0,0,19,19,45,1,,,,,,,,,,,,,,,,,,,,,,,,,,,,,,,,,,,,,,,,,,,,,,,,,,,,,,,,,,,,,,,,,,,,,,,,,,,,,,,,,,,,,,,,,,,,,,
,,?,0.0026,0,,,,,,stimuli/images/PICTURE_302.png,FAMILY,5f086c5550e36f072d79b37f,23/10/1995,2020-08-13_09h06.03.052,proactive2,2020.1.2,Win32,60,5f341be081b9052c55068110,5f3528e380fd884939cbf354,6,,,,,,taxi,,,,,,,,,,,2,0,0,20,20,18,1,,,,,,,,,,,,,,,,,,,,,,,,,,,,,,,,,,,,,,,,,,,,,,,,,,,,,,,,,,,,,,,,,,,,,,,,,,,,,,,,,,,,,,,,,,,,,,
,,MONTH,5.46908,1,,,,,,stimuli/images/PICTURE_208.png,MONTH,5f086c5550e36f072d79b37f,23/10/1995,2020-08-13_09h06.03.052,proactive2,2020.1.2,Win32,60,5f341be081b9052c55068110,5f3528e380fd884939cbf354,6,,,,,,microphone,,,,,,,,,,,6,0,0,21,21,53,1,,,,,,,,,,,,,,,,,,,,,,,,,,,,,,,,,,,,,,,,,,,,,,,,,,,,,,,,,,,,,,,,,,,,,,,,,,,,,,,,,,,,,,,,,,,,,,
,,?,0.0022,0,,,,,,stimuli/images/PICTURE_469.png,ARTIST,5f086c5550e36f072d79b37f,23/10/1995,2020-08-13_09h06.03.052,proactive2,2020.1.2,Win32,60,5f341be081b9052c55068110,5f3528e380fd884939cbf354,6,,,,,,stool,,,,,,,,,,,1,0,0,22,22,6,1,,,,,,,,,,,,,,,,,,,,,,,,,,,,,,,,,,,,,,,,,,,,,,,,,,,,,,,,,,,,,,,,,,,,,,,,,,,,,,,,,,,,,,,,,,,,,,
,,?,0.00174,0,,,,,,stimuli/images/PICTURE_675.png,WEAPON,5f086c5550e36f072d79b37f,23/10/1995,2020-08-13_09h06.03.052,proactive2,2020.1.2,Win32,60,5f341be081b9052c55068110,5f3528e380fd884939cbf354,6,,,,,,windmill,,,,,,,,,,,4,0,0,23,23,32,1,,,,,,,,,,,,,,,,,,,,,,,,,,,,,,,,,,,,,,,,,,,,,,,,,,,,,,,,,,,,,,,,,,,,,,,,,,,,,,,,,,,,,,,,,,,,,,
,,?,0.001675,0,,,,,,stimuli/images/PICTURE_453.png,DUDE,5f086c5550e36f072d79b37f,23/10/1995,2020-08-13_09h06.03.052,proactive2,2020.1.2,Win32,60,5f341be081b9052c55068110,5f3528e380fd884939cbf354,6,,,,,,scissors,,,,,,,,,,,3,0,0,24,24,27,1,,,,,,,,,,,,,,,,,,,,,,,,,,,,,,,,,,,,,,,,,,,,,,,,,,,,,,,,,,,,,,,,,,,,,,,,,,,,,,,,,,,,,,,,,,,,,,
,,?,0.001935,0,,,,,,stimuli/images/PICTURE_487.png,FLIGHT,5f086c5550e36f072d79b37f,23/10/1995,2020-08-13_09h06.03.052,proactive2,2020.1.2,Win32,60,5f341be081b9052c55068110,5f3528e380fd884939cbf354,6,,,,,,basket,,,,,,,,,,,1,0,0,25,25,9,1,,,,,,,,,,,,,,,,,,,,,,,,,,,,,,,,,,,,,,,,,,,,,,,,,,,,,,,,,,,,,,,,,,,,,,,,,,,,,,,,,,,,,,,,,,,,,,
,,?,0.00194,0,,,,,,stimuli/images/PICTURE_215.png,PLENTY,5f086c5550e36f072d79b37f,23/10/1995,2020-08-13_09h06.03.052,proactive2,2020.1.2,Win32,60,5f341be081b9052c55068110,5f3528e380fd884939cbf354,6,,,,,,boot,,,,,,,,,,,4,0,0,26,26,37,1,,,,,,,,,,,,,,,,,,,,,,,,,,,,,,,,,,,,,,,,,,,,,,,,,,,,,,,,,,,,,,,,,,,,,,,,,,,,,,,,,,,,,,,,,,,,,,
,,?,0.00169,0,,,,,,stimuli/images/PICTURE_285.png,ADVICE,5f086c5550e36f072d79b37f,23/10/1995,2020-08-13_09h06.03.052,proactive2,2020.1.2,Win32,60,5f341be081b9052c55068110,5f3528e380fd884939cbf354,6,,,,,,carrot,,,,,,,,,,,2,0,0,27,27,12,1,,,,,,,,,,,,,,,,,,,,,,,,,,,,,,,,,,,,,,,,,,,,,,,,,,,,,,,,,,,,,,,,,,,,,,,,,,,,,,,,,,,,,,,,,,,,,,
,,?,0.00169,0,,,,,,stimuli/images/PICTURE_488.png,STYLE,5f086c5550e36f072d79b37f,23/10/1995,2020-08-13_09h06.03.052,proactive2,2020.1.2,Win32,60,5f341be081b9052c55068110,5f3528e380fd884939cbf354,6,,,,,,sun,,,,,,,,,,,4,0,0,28,28,33,1,,,,,,,,,,,,,,,,,,,,,,,,,,,,,,,,,,,,,,,,,,,,,,,,,,,,,,,,,,,,,,,,,,,,,,,,,,,,,,,,,,,,,,,,,,,,,,
,,?,0.001635,0,,,,,,stimuli/images/PICTURE_667.png,PLENTY,5f086c5550e36f072d79b37f,23/10/1995,2020-08-13_09h06.03.052,proactive2,2020.1.2,Win32,60,5f341be081b9052c55068110,5f3528e380fd884939cbf354,6,,,,,,daisy,,,,,,,,,,,5,0,0,29,29,41,1,,,,,,,,,,,,,,,,,,,,,,,,,,,,,,,,,,,,,,,,,,,,,,,,,,,,,,,,,,,,,,,,,,,,,,,,,,,,,,,,,,,,,,,,,,,,,,
,,?,0.001695,0,,,,,,stimuli/images/PICTURE_208.png,LOTS,5f086c5550e36f072d79b37f,23/10/1995,2020-08-13_09h06.03.052,proactive2,2020.1.2,Win32,60,5f341be081b9052c55068110,5f3528e380fd884939cbf354,6,,,,,,microphone,,,,,,,,,,,2,0,0,30,30,10,1,,,,,,,,,,,,,,,,,,,,,,,,,,,,,,,,,,,,,,,,,,,,,,,,,,,,,,,,,,,,,,,,,,,,,,,,,,,,,,,,,,,,,,,,,,,,,,
,,?,0.00178,0,,,,,,stimuli/images/PICTURE_85.png,THING,5f086c5550e36f072d79b37f,23/10/1995,2020-08-13_09h06.03.052,proactive2,2020.1.2,Win32,60,5f341be081b9052c55068110,5f3528e380fd884939cbf354,6,,,,,,diamond,,,,,,,,,,,2,0,0,31,31,15,1,,,,,,,,,,,,,,,,,,,,,,,,,,,,,,,,,,,,,,,,,,,,,,,,,,,,,,,,,,,,,,,,,,,,,,,,,,,,,,,,,,,,,,,,,,,,,,
,,?,0.00281,0,,,,,,stimuli/images/PICTURE_177.png,CARS,5f086c5550e36f072d79b37f,23/10/1995,2020-08-13_09h06.03.052,proactive2,2020.1.2,Win32,60,5f341be081b9052c55068110,5f3528e380fd884939cbf354,6,,,,,,mushroom,,,,,,,,,,,4,0,0,32,32,35,1,,,,,,,,,,,,,,,,,,,,,,,,,,,,,,,,,,,,,,,,,,,,,,,,,,,,,,,,,,,,,,,,,,,,,,,,,,,,,,,,,,,,,,,,,,,,,,
,,?,0.002015,0,,,,,,stimuli/images/PICTURE_311.png,FRIEND,5f086c5550e36f072d79b37f,23/10/1995,2020-08-13_09h06.03.052,proactive2,2020.1.2,Win32,60,5f341be081b9052c55068110,5f3528e380fd884939cbf354,6,,,,,,razor,,,,,,,,,,,4,0,0,33,33,34,1,,,,,,,,,,,,,,,,,,,,,,,,,,,,,,,,,,,,,,,,,,,,,,,,,,,,,,,,,,,,,,,,,,,,,,,,,,,,,,,,,,,,,,,,,,,,,,
,,?,0.00204,0,,,,,,stimuli/images/PICTURE_708.png,YARD,5f086c5550e36f072d79b37f,23/10/1995,2020-08-13_09h06.03.052,proactive2,2020.1.2,Win32,60,5f341be081b9052c55068110,5f3528e380fd884939cbf354,6,,,,,,monkey,,,,,,,,,,,3,0,0,34,34,29,1,,,,,,,,,,,,,,,,,,,,,,,,,,,,,,,,,,,,,,,,,,,,,,,,,,,,,,,,,,,,,,,,,,,,,,,,,,,,,,,,,,,,,,,,,,,,,,
,,?,0.00185,0,,,,,,stimuli/images/PICTURE_123.png,ADVICE,5f086c5550e36f072d79b37f,23/10/1995,2020-08-13_09h06.03.052,proactive2,2020.1.2,Win32,60,5f341be081b9052c55068110,5f3528e380fd884939cbf354,6,,,,,,dart,,,,,,,,,,,5,0,0,35,35,40,1,,,,,,,,,,,,,,,,,,,,,,,,,,,,,,,,,,,,,,,,,,,,,,,,,,,,,,,,,,,,,,,,,,,,,,,,,,,,,,,,,,,,,,,,,,,,,,
,,?,0.002115,0,,,,,,stimuli/images/PICTURE_314.png,SAKE,5f086c5550e36f072d79b37f,23/10/1995,2020-08-13_09h06.03.052,proactive2,2020.1.2,Win32,60,5f341be081b9052c55068110,5f3528e380fd884939cbf354,6,,,,,,perfume,,,,,,,,,,,1,0,0,36,36,7,1,,,,,,,,,,,,,,,,,,,,,,,,,,,,,,,,,,,,,,,,,,,,,,,,,,,,,,,,,,,,,,,,,,,,,,,,,,,,,,,,,,,,,,,,,,,,,,
,,?,0.001745,0,,,,,,stimuli/images/PICTURE_692.png,MONTH,5f086c5550e36f072d79b37f,23/10/1995,2020-08-13_09h06.03.052,proactive2,2020.1.2,Win32,60,5f341be081b9052c55068110,5f3528e380fd884939cbf354,6,,,,,,cherry,,,,,,,,,,,2,0,0,37,37,16,1,,,,,,,,,,,,,,,,,,,,,,,,,,,,,,,,,,,,,,,,,,,,,,,,,,,,,,,,,,,,,,,,,,,,,,,,,,,,,,,,,,,,,,,,,,,,,,
,,MOMENT,5.98554,1,,,,,,stimuli/images/PICTURE_147.png,MOMENT,5f086c5550e36f072d79b37f,23/10/1995,2020-08-13_09h06.03.052,proactive2,2020.1.2,Win32,60,5f341be081b9052c55068110,5f3528e380fd884939cbf354,6,,,,,,hanger,,,,,,,,,,,6,0,0,38,38,51,1,,,,,,,,,,,,,,,,,,,,,,,,,,,,,,,,,,,,,,,,,,,,,,,,,,,,,,,,,,,,,,,,,,,,,,,,,,,,,,,,,,,,,,,,,,,,,,
,,?,0.003085,0,,,,,,stimuli/images/PICTURE_339.png,PLENTY,5f086c5550e36f072d79b37f,23/10/1995,2020-08-13_09h06.03.052,proactive2,2020.1.2,Win32,60,5f341be081b9052c55068110,5f3528e380fd884939cbf354,6,,,,,,backpack,,,,,,,,,,,1,0,0,39,39,0,1,,,,,,,,,,,,,,,,,,,,,,,,,,,,,,,,,,,,,,,,,,,,,,,,,,,,,,,,,,,,,,,,,,,,,,,,,,,,,,,,,,,,,,,,,,,,,,
,,?,0.00287,0,,,,,,stimuli/images/PICTURE_233.png,WOMEN,5f086c5550e36f072d79b37f,23/10/1995,2020-08-13_09h06.03.052,proactive2,2020.1.2,Win32,60,5f341be081b9052c55068110,5f3528e380fd884939cbf354,6,,,,,,salt,,,,,,,,,,,4,0,0,40,40,38,1,,,,,,,,,,,,,,,,,,,,,,,,,,,,,,,,,,,,,,,,,,,,,,,,,,,,,,,,,,,,,,,,,,,,,,,,,,,,,,,,,,,,,,,,,,,,,,
,,?,0.002235,0,,,,,,stimuli/images/PICTURE_327.png,BEAUTY,5f086c5550e36f072d79b37f,23/10/1995,2020-08-13_09h06.03.052,proactive2,2020.1.2,Win32,60,5f341be081b9052c55068110,5f3528e380fd884939cbf354,6,,,,,,helmet,,,,,,,,,,,5,0,0,41,41,48,1,,,,,,,,,,,,,,,,,,,,,,,,,,,,,,,,,,,,,,,,,,,,,,,,,,,,,,,,,,,,,,,,,,,,,,,,,,,,,,,,,,,,,,,,,,,,,,
,,?,0.00416,0,,,,,,stimuli/images/PICTURE_744.png,SYSTEM,5f086c5550e36f072d79b37f,23/10/1995,2020-08-13_09h06.03.052,proactive2,2020.1.2,Win32,60,5f341be081b9052c55068110,5f3528e380fd884939cbf354,6,,,,,,ring,,,,,,,,,,,5,0,0,42,42,43,1,,,,,,,,,,,,,,,,,,,,,,,,,,,,,,,,,,,,,,,,,,,,,,,,,,,,,,,,,,,,,,,,,,,,,,,,,,,,,,,,,,,,,,,,,,,,,,
,,?,0.002545,0,,,,,,stimuli/images/PICTURE_151.png,GIRL,5f086c5550e36f072d79b37f,23/10/1995,2020-08-13_09h06.03.052,proactive2,2020.1.2,Win32,60,5f341be081b9052c55068110,5f3528e380fd884939cbf354,6,,,,,,tray,,,,,,,,,,,2,0,0,43,43,19,1,,,,,,,,,,,,,,,,,,,,,,,,,,,,,,,,,,,,,,,,,,,,,,,,,,,,,,,,,,,,,,,,,,,,,,,,,,,,,,,,,,,,,,,,,,,,,,
,,PHOTO,6.55675,1,,,,,,stimuli/images/PICTURE_380.png,PHOTO,5f086c5550e36f072d79b37f,23/10/1995,2020-08-13_09h06.03.052,proactive2,2020.1.2,Win32,60,5f341be081b9052c55068110,5f3528e380fd884939cbf354,6,,,,,,gorilla,,,,,,,,,,,6,0,0,44,44,52,1,,,,,,,,,,,,,,,,,,,,,,,,,,,,,,,,,,,,,,,,,,,,,,,,,,,,,,,,,,,,,,,,,,,,,,,,,,,,,,,,,,,,,,,,,,,,,,
,,?,0.002315,0,,,,,,stimuli/images/PICTURE_470.png,CASINO,5f086c5550e36f072d79b37f,23/10/1995,2020-08-13_09h06.03.052,proactive2,2020.1.2,Win32,60,5f341be081b9052c55068110,5f3528e380fd884939cbf354,6,,,,,,motorbike,,,,,,,,,,,4,0,0,45,45,36,1,,,,,,,,,,,,,,,,,,,,,,,,,,,,,,,,,,,,,,,,,,,,,,,,,,,,,,,,,,,,,,,,,,,,,,,,,,,,,,,,,,,,,,,,,,,,,,
,,?,0.001865,0,,,,,,stimuli/images/PICTURE_308.png,ESTATE,5f086c5550e36f072d79b37f,23/10/1995,2020-08-13_09h06.03.052,proactive2,2020.1.2,Win32,60,5f341be081b9052c55068110,5f3528e380fd884939cbf354,6,,,,,,dice,,,,,,,,,,,5,0,0,46,46,46,1,,,,,,,,,,,,,,,,,,,,,,,,,,,,,,,,,,,,,,,,,,,,,,,,,,,,,,,,,,,,,,,,,,,,,,,,,,,,,,,,,,,,,,,,,,,,,,
,,?,0.002035,0,,,,,,stimuli/images/PICTURE_348.png,SPEECH,5f086c5550e36f072d79b37f,23/10/1995,2020-08-13_09h06.03.052,proactive2,2020.1.2,Win32,60,5f341be081b9052c55068110,5f3528e380fd884939cbf354,6,,,,,,pepper,,,,,,,,,,,3,0,0,47,47,20,1,,,,,,,,,,,,,,,,,,,,,,,,,,,,,,,,,,,,,,,,,,,,,,,,,,,,,,,,,,,,,,,,,,,,,,,,,,,,,,,,,,,,,,,,,,,,,,
,,?,0.002585,0,,,,,,stimuli/images/PICTURE_491.png,ROOF,5f086c5550e36f072d79b37f,23/10/1995,2020-08-13_09h06.03.052,proactive2,2020.1.2,Win32,60,5f341be081b9052c55068110,5f3528e380fd884939cbf354,6,,,,,,rug,,,,,,,,,,,3,0,0,48,48,24,1,,,,,,,,,,,,,,,,,,,,,,,,,,,,,,,,,,,,,,,,,,,,,,,,,,,,,,,,,,,,,,,,,,,,,,,,,,,,,,,,,,,,,,,,,,,,,,
,,ADVICE,5.96735,1,,,,,,stimuli/images/PICTURE_123.png,ADVICE,5f086c5550e36f072d79b37f,23/10/1995,2020-08-13_09h06.03.052,proactive2,2020.1.2,Win32,60,5f341be081b9052c55068110,5f3528e380fd884939cbf354,6,,,,,,dart,,,,,,,,,,,6,0,0,49,49,50,1,,,,,,,,,,,,,,,,,,,,,,,,,,,,,,,,,,,,,,,,,,,,,,,,,,,,,,,,,,,,,,,,,,,,,,,,,,,,,,,,,,,,,,,,,,,,,,
,,?,0.002865,0,,,,,,stimuli/images/PICTURE_509.png,PHOTO,5f086c5550e36f072d79b37f,23/10/1995,2020-08-13_09h06.03.052,proactive2,2020.1.2,Win32,60,5f341be081b9052c55068110,5f3528e380fd884939cbf354,6,,,,,,telephone,,,,,,,,,,,3,0,0,50,50,21,1,,,,,,,,,,,,,,,,,,,,,,,,,,,,,,,,,,,,,,,,,,,,,,,,,,,,,,,,,,,,,,,,,,,,,,,,,,,,,,,,,,,,,,,,,,,,,,
,,?,0.00319,0,,,,,,stimuli/images/PICTURE_248.png,DOZEN,5f086c5550e36f072d79b37f,23/10/1995,2020-08-13_09h06.03.052,proactive2,2020.1.2,Win32,60,5f341be081b9052c55068110,5f3528e380fd884939cbf354,6,,,,,,cart,,,,,,,,,,,4,0,0,51,51,39,1,,,,,,,,,,,,,,,,,,,,,,,,,,,,,,,,,,,,,,,,,,,,,,,,,,,,,,,,,,,,,,,,,,,,,,,,,,,,,,,,,,,,,,,,,,,,,,
,,?,0.002295,0,,,,,,stimuli/images/PICTURE_667.png,BATH,5f086c5550e36f072d79b37f,23/10/1995,2020-08-13_09h06.03.052,proactive2,2020.1.2,Win32,60,5f341be081b9052c55068110,5f3528e380fd884939cbf354,6,,,,,,daisy,,,,,,,,,,,1,0,0,52,52,4,1,,,,,,,,,,,,,,,,,,,,,,,,,,,,,,,,,,,,,,,,,,,,,,,,,,,,,,,,,,,,,,,,,,,,,,,,,,,,,,,,,,,,,,,,,,,,,,
,,?,0.004905,0,,,,,,stimuli/images/PICTURE_68.png,MILE,5f086c5550e36f072d79b37f,23/10/1995,2020-08-13_09h06.03.052,proactive2,2020.1.2,Win32,60,5f341be081b9052c55068110,5f3528e380fd884939cbf354,6,,,,,,candle,,,,,,,,,,,5,0,0,53,53,44,1,,,,,,,,,,,,,,,,,,,,,,,,,,,,,,,,,,,,,,,,,,,,,,,,,,,,,,,,,,,,,,,,,,,,,,,,,,,,,,,,,,,,,,,,,,,,,,
,,?,0.002475,0,,,,,,stimuli/images/PICTURE_208.png,THING,5f086c5550e36f072d79b37f,23/10/1995,2020-08-13_09h06.03.052,proactive2,2020.1.2,Win32,60,5f341be081b9052c55068110,5f3528e380fd884939cbf354,6,,,,,,microphone,,,,,,,,,,,5,0,0,54,54,47,1,,,,,,,,,,,,,,,,,,,,,,,,,,,,,,,,,,,,,,,,,,,,,,,,,,,,,,,,,,,,,,,,,,,,,,,,,,,,,,,,,,,,,,,,,,,,,,
,,WRITER,7.78977,1,,,,,,stimuli/images/PICTURE_491.png,WRITER,5f086c5550e36f072d79b37f,23/10/1995,2020-08-13_09h06.03.052,proactive2,2020.1.2,Win32,60,5f341be081b9052c55068110,5f3528e380fd884939cbf354,6,,,,,,rug,,,,,,,,,,,6,0,0,55,55,57,1,,,,,,,,,,,,,,,,,,,,,,,,,,,,,,,,,,,,,,,,,,,,,,,,,,,,,,,,,,,,,,,,,,,,,,,,,,,,,,,,,,,,,,,,,,,,,,
,,FEET,4.177185,1,,,,,,stimuli/images/PICTURE_160.png,FEET,5f086c5550e36f072d79b37f,23/10/1995,2020-08-13_09h06.03.052,proactive2,2020.1.2,Win32,60,5f341be081b9052c55068110,5f3528e380fd884939cbf354,6,,,,,,wheelbarrow,,,,,,,,,,,6,0,0,56,56,58,1,,,,,,,,,,,,,,,,,,,,,,,,,,,,,,,,,,,,,,,,,,,,,,,,,,,,,,,,,,,,,,,,,,,,,,,,,,,,,,,,,,,,,,,,,,,,,,
,,?,0.00326,0,,,,,,stimuli/images/PICTURE_744.png,SAKE,5f086c5550e36f072d79b37f,23/10/1995,2020-08-13_09h06.03.052,proactive2,2020.1.2,Win32,60,5f341be081b9052c55068110,5f3528e380fd884939cbf354,6,,,,,,ring,,,,,,,,,,,2,0,0,57,57,17,1,,,,,,,,,,,,,,,,,,,,,,,,,,,,,,,,,,,,,,,,,,,,,,,,,,,,,,,,,,,,,,,,,,,,,,,,,,,,,,,,,,,,,,,,,,,,,,
,,?,0.002785,0,,,,,,stimuli/images/PICTURE_467.png,DEMON,5f086c5550e36f072d79b37f,23/10/1995,2020-08-13_09h06.03.052,proactive2,2020.1.2,Win32,60,5f341be081b9052c55068110,5f3528e380fd884939cbf354,6,,,,,,peg,,,,,,,,,,,3,0,0,58,58,23,1,,,,,,,,,,,,,,,,,,,,,,,,,,,,,,,,,,,,,,,,,,,,,,,,,,,,,,,,,,,,,,,,,,,,,,,,,,,,,,,,,,,,,,,,,,,,,,
,,?,0.004615,0,,,,,,stimuli/images/PICTURE_95.png,STYLE,5f086c5550e36f072d79b37f,23/10/1995,2020-08-13_09h06.03.052,proactive2,2020.1.2,Win32,60,5f341be081b9052c55068110,5f3528e380fd884939cbf354,6,,,,,,suitcase,,,,,,,,,,,3,0,0,59,59,25,1,,,,,,,,,,,,,,,,,,,,,,,,,,,,,,,,,,,,,,,,,,,,,,,,,,,,,,,,,,,,,,,,,,,,,,,,,,,,,,,,,,,,,,,,,,,,,,
,,,,,,,,,,,,5f086c5550e36f072d79b37f,23/10/1995,2020-08-13_09h06.03.052,proactive2,2020.1.2,Win32,60,5f341be081b9052c55068110,5f3528e380fd884939cbf354,6,,,,,,,,,,,,,,,,,,,,,,,,0,1,1,0,1,stimuli/learn-block1.csv,,,,,,,,,,,,,,,,,,,,,,,,,,,,,,,,,,,,,,,,,,,,,,,,,,,,,,,,,,,,,,,,,,,,,,,,,,,,,,,,,,,,,,,,
,,,,,,,,,,stimuli/images/PICTURE_504.png,YEAR,5f086c5550e36f072d79b37f,23/10/1995,2020-08-13_09h06.03.052,proactive2,2020.1.2,Win32,60,5f341be081b9052c55068110,5f3528e380fd884939cbf354,6,,,,,,wheel,,,,,,0,0,0,13,1,2,1,,,,,,,,,,,,,,,,,,,,,,,,,,,,,,,,,,,,,,,,,,,,,,,,,,,,,,,,,,,,,,,,,,,,,,,,,,,,,,,,,,,,,,,,,,,,,,,,,,,
,,,,,,,,,,stimuli/images/PICTURE_491.png,RIVER,5f086c5550e36f072d79b37f,23/10/1995,2020-08-13_09h06.03.052,proactive2,2020.1.2,Win32,60,5f341be081b9052c55068110,5f3528e380fd884939cbf354,6,,,,,,rug,,,,,,0,1,1,6,1,1,1,,,,,,,,,,,,,,,,,,,,,,,,,,,,,,,,,,,,,,,,,,,,,,,,,,,,,,,,,,,,,,,,,,,,,,,,,,,,,,,,,,,,,,,,,,,,,,,,,,,
,,,,,,,,,,stimuli/images/PICTURE_208.png,SYSTEM,5f086c5550e36f072d79b37f,23/10/1995,2020-08-13_09h06.03.052,proactive2,2020.1.2,Win32,60,5f341be081b9052c55068110,5f3528e380fd884939cbf354,6,,,,,,microphone,,,,,,0,2,2,32,1,4,1,,,,,,,,,,,,,,,,,,,,,,,,,,,,,,,,,,,,,,,,,,,,,,,,,,,,,,,,,,,,,,,,,,,,,,,,,,,,,,,,,,,,,,,,,,,,,,,,,,,
,,,,,,,,,,stimuli/images/PICTURE_339.png,CLIENT,5f086c5550e36f072d79b37f,23/10/1995,2020-08-13_09h06.03.052,proactive2,2020.1.2,Win32,60,5f341be081b9052c55068110,5f3528e380fd884939cbf354,6,,,,,,backpack,,,,,,0,3,3,11,1,2,1,,,,,,,,,,,,,,,,,,,,,,,,,,,,,,,,,,,,,,,,,,,,,,,,,,,,,,,,,,,,,,,,,,,,,,,,,,,,,,,,,,,,,,,,,,,,,,,,,,,
,,,,,,,,,,stimuli/images/PICTURE_177.png,WRITER,5f086c5550e36f072d79b37f,23/10/1995,2020-08-13_09h06.03.052,proactive2,2020.1.2,Win32,60,5f341be081b9052c55068110,5f3528e380fd884939cbf354,6,,,,,,mushroom,,,,,,0,4,4,41,1,5,1,,,,,,,,,,,,,,,,,,,,,,,,,,,,,,,,,,,,,,,,,,,,,,,,,,,,,,,,,,,,,,,,,,,,,,,,,,,,,,,,,,,,,,,,,,,,,,,,,,,
,,,,,,,,,,stimuli/images/PICTURE_95.png,HONEY,5f086c5550e36f072d79b37f,23/10/1995,2020-08-13_09h06.03.052,proactive2,2020.1.2,Win32,60,5f341be081b9052c55068110,5f3528e380fd884939cbf354,6,,,,,,suitcase,,,,,,0,5,5,44,1,5,1,,,,,,,,,,,,,,,,,,,,,,,,,,,,,,,,,,,,,,,,,,,,,,,,,,,,,,,,,,,,,,,,,,,,,,,,,,,,,,,,,,,,,,,,,,,,,,,,,,,
,,,,,,,,,,stimuli/images/PICTURE_327.png,CASINO,5f086c5550e36f072d79b37f,23/10/1995,2020-08-13_09h06.03.052,proactive2,2020.1.2,Win32,60,5f341be081b9052c55068110,5f3528e380fd884939cbf354,6,,,,,,helmet,,,,,,0,6,6,20,1,3,1,,,,,,,,,,,,,,,,,,,,,,,,,,,,,,,,,,,,,,,,,,,,,,,,,,,,,,,,,,,,,,,,,,,,,,,,,,,,,,,,,,,,,,,,,,,,,,,,,,,
,,,,,,,,,,stimuli/images/PICTURE_233.png,LOTS,5f086c5550e36f072d79b37f,23/10/1995,2020-08-13_09h06.03.052,proactive2,2020.1.2,Win32,60,5f341be081b9052c55068110,5f3528e380fd884939cbf354,6,,,,,,salt,,,,,,0,7,7,42,1,5,1,,,,,,,,,,,,,,,,,,,,,,,,,,,,,,,,,,,,,,,,,,,,,,,,,,,,,,,,,,,,,,,,,,,,,,,,,,,,,,,,,,,,,,,,,,,,,,,,,,,
,,,,,,,,,,stimuli/images/PICTURE_744.png,WEAPON,5f086c5550e36f072d79b37f,23/10/1995,2020-08-13_09h06.03.052,proactive2,2020.1.2,Win32,60,5f341be081b9052c55068110,5f3528e380fd884939cbf354,6,,,,,,ring,,,,,,0,8,8,50,1,6,1,,,,,,,,,,,,,,,,,,,,,,,,,,,,,,,,,,,,,,,,,,,,,,,,,,,,,,,,,,,,,,,,,,,,,,,,,,,,,,,,,,,,,,,,,,,,,,,,,,,
,,,,,,,,,,stimuli/images/PICTURE_383.png,WRITER,5f086c5550e36f072d79b37f,23/10/1995,2020-08-13_09h06.03.052,proactive2,2020.1.2,Win32,60,5f341be081b9052c55068110,5f3528e380fd884939cbf354,6,,,,,,coin,,,,,,0,9,9,28,1,3,1,,,,,,,,,,,,,,,,,,,,,,,,,,,,,,,,,,,,,,,,,,,,,,,,,,,,,,,,,,,,,,,,,,,,,,,,,,,,,,,,,,,,,,,,,,,,,,,,,,,
,,,,,,,,,,stimuli/images/PICTURE_449.png,DUDE,5f086c5550e36f072d79b37f,23/10/1995,2020-08-13_09h06.03.052,proactive2,2020.1.2,Win32,60,5f341be081b9052c55068110,5f3528e380fd884939cbf354,6,,,,,,bench,,,,,,0,10,10,17,1,2,1,,,,,,,,,,,,,,,,,,,,,,,,,,,,,,,,,,,,,,,,,,,,,,,,,,,,,,,,,,,,,,,,,,,,,,,,,,,,,,,,,,,,,,,,,,,,,,,,,,,
,,,,,,,,,,stimuli/images/PICTURE_68.png,ROOF,5f086c5550e36f072d79b37f,23/10/1995,2020-08-13_09h06.03.052,proactive2,2020.1.2,Win32,60,5f341be081b9052c55068110,5f3528e380fd884939cbf354,6,,,,,,candle,,,,,,0,11,11,38,1,4,1,,,,,,,,,,,,,,,,,,,,,,,,,,,,,,,,,,,,,,,,,,,,,,,,,,,,,,,,,,,,,,,,,,,,,,,,,,,,,,,,,,,,,,,,,,,,,,,,,,,
,,,,,,,,,,stimuli/images/PICTURE_68.png,MILE,5f086c5550e36f072d79b37f,23/10/1995,2020-08-13_09h06.03.052,proactive2,2020.1.2,Win32,60,5f341be081b9052c55068110,5f3528e380fd884939cbf354,6,,,,,,candle,,,,,,0,12,12,51,1,6,1,,,,,,,,,,,,,,,,,,,,,,,,,,,,,,,,,,,,,,,,,,,,,,,,,,,,,,,,,,,,,,,,,,,,,,,,,,,,,,,,,,,,,,,,,,,,,,,,,,,
,,,,,,,,,,stimuli/images/PICTURE_487.png,GIRL,5f086c5550e36f072d79b37f,23/10/1995,2020-08-13_09h06.03.052,proactive2,2020.1.2,Win32,60,5f341be081b9052c55068110,5f3528e380fd884939cbf354,6,,,,,,basket,,,,,,0,13,13,45,1,5,1,,,,,,,,,,,,,,,,,,,,,,,,,,,,,,,,,,,,,,,,,,,,,,,,,,,,,,,,,,,,,,,,,,,,,,,,,,,,,,,,,,,,,,,,,,,,,,,,,,,
,,,,,,,,,,stimuli/images/PICTURE_85.png,NATION,5f086c5550e36f072d79b37f,23/10/1995,2020-08-13_09h06.03.052,proactive2,2020.1.2,Win32,60,5f341be081b9052c55068110,5f3528e380fd884939cbf354,6,,,,,,diamond,,,,,,0,14,14,5,1,1,1,,,,,,,,,,,,,,,,,,,,,,,,,,,,,,,,,,,,,,,,,,,,,,,,,,,,,,,,,,,,,,,,,,,,,,,,,,,,,,,,,,,,,,,,,,,,,,,,,,,
,,,,,,,,,,stimuli/images/PICTURE_667.png,RIVER,5f086c5550e36f072d79b37f,23/10/1995,2020-08-13_09h06.03.052,proactive2,2020.1.2,Win32,60,5f341be081b9052c55068110,5f3528e380fd884939cbf354,6,,,,,,daisy,,,,,,0,15,15,10,1,2,1,,,,,,,,,,,,,,,,,,,,,,,,,,,,,,,,,,,,,,,,,,,,,,,,,,,,,,,,,,,,,,,,,,,,,,,,,,,,,,,,,,,,,,,,,,,,,,,,,,,
,,,,,,,,,,stimuli/images/PICTURE_467.png,POLICY,5f086c5550e36f072d79b37f,23/10/1995,2020-08-13_09h06.03.052,proactive2,2020.1.2,Win32,60,5f341be081b9052c55068110,5f3528e380fd884939cbf354,6,,,,,,peg,,,,,,0,16,16,53,1,6,1,,,,,,,,,,,,,,,,,,,,,,,,,,,,,,,,,,,,,,,,,,,,,,,,,,,,,,,,,,,,,,,,,,,,,,,,,,,,,,,,,,,,,,,,,,,,,,,,,,,
,,,,,,,,,,stimuli/images/PICTURE_675.png,SALE,5f086c5550e36f072d79b37f,23/10/1995,2020-08-13_09h06.03.052,proactive2,2020.1.2,Win32,60,5f341be081b9052c55068110,5f3528e380fd884939cbf354,6,,,,,,windmill,,,,,,0,17,17,47,1,5,1,,,,,,,,,,,,,,,,,,,,,,,,,,,,,,,,,,,,,,,,,,,,,,,,,,,,,,,,,,,,,,,,,,,,,,,,,,,,,,,,,,,,,,,,,,,,,,,,,,,
,,,,,,,,,,stimuli/images/PICTURE_504.png,ARTIST,5f086c5550e36f072d79b37f,23/10/1995,2020-08-13_09h06.03.052,proactive2,2020.1.2,Win32,60,5f341be081b9052c55068110,5f3528e380fd884939cbf354,6,,,,,,wheel,,,,,,0,18,18,49,1,5,1,,,,,,,,,,,,,,,,,,,,,,,,,,,,,,,,,,,,,,,,,,,,,,,,,,,,,,,,,,,,,,,,,,,,,,,,,,,,,,,,,,,,,,,,,,,,,,,,,,,
,,,,,,,,,,stimuli/images/PICTURE_383.png,SERIES,5f086c5550e36f072d79b37f,23/10/1995,2020-08-13_09h06.03.052,proactive2,2020.1.2,Win32,60,5f341be081b9052c55068110,5f3528e380fd884939cbf354,6,,,,,,coin,,,,,,0,19,19,46,1,5,1,,,,,,,,,,,,,,,,,,,,,,,,,,,,,,,,,,,,,,,,,,,,,,,,,,,,,,,,,,,,,,,,,,,,,,,,,,,,,,,,,,,,,,,,,,,,,,,,,,,
,,,,,,,,,,stimuli/images/PICTURE_654.png,MONTH,5f086c5550e36f072d79b37f,23/10/1995,2020-08-13_09h06.03.052,proactive2,2020.1.2,Win32,60,5f341be081b9052c55068110,5f3528e380fd884939cbf354,6,,,,,,pencil,,,,,,0,20,20,29,1,3,1,,,,,,,,,,,,,,,,,,,,,,,,,,,,,,,,,,,,,,,,,,,,,,,,,,,,,,,,,,,,,,,,,,,,,,,,,,,,,,,,,,,,,,,,,,,,,,,,,,,
,,,,,,,,,,stimuli/images/PICTURE_95.png,MILLER,5f086c5550e36f072d79b37f,23/10/1995,2020-08-13_09h06.03.052,proactive2,2020.1.2,Win32,60,5f341be081b9052c55068110,5f3528e380fd884939cbf354,6,,,,,,suitcase,,,,,,0,21,21,56,1,6,1,,,,,,,,,,,,,,,,,,,,,,,,,,,,,,,,,,,,,,,,,,,,,,,,,,,,,,,,,,,,,,,,,,,,,,,,,,,,,,,,,,,,,,,,,,,,,,,,,,,
,,,,,,,,,,stimuli/images/PICTURE_32.png,KIND,5f086c5550e36f072d79b37f,23/10/1995,2020-08-13_09h06.03.052,proactive2,2020.1.2,Win32,60,5f341be081b9052c55068110,5f3528e380fd884939cbf354,6,,,,,,crown,,,,,,0,22,22,35,1,4,1,,,,,,,,,,,,,,,,,,,,,,,,,,,,,,,,,,,,,,,,,,,,,,,,,,,,,,,,,,,,,,,,,,,,,,,,,,,,,,,,,,,,,,,,,,,,,,,,,,,
,,,,,,,,,,stimuli/images/PICTURE_405.png,PLENTY,5f086c5550e36f072d79b37f,23/10/1995,2020-08-13_09h06.03.052,proactive2,2020.1.2,Win32,60,5f341be081b9052c55068110,5f3528e380fd884939cbf354,6,,,,,,anchor,,,,,,0,23,23,23,1,3,1,,,,,,,,,,,,,,,,,,,,,,,,,,,,,,,,,,,,,,,,,,,,,,,,,,,,,,,,,,,,,,,,,,,,,,,,,,,,,,,,,,,,,,,,,,,,,,,,,,,
,,,,,,,,,,stimuli/images/PICTURE_296.png,LOTS,5f086c5550e36f072d79b37f,23/10/1995,2020-08-13_09h06.03.052,proactive2,2020.1.2,Win32,60,5f341be081b9052c55068110,5f3528e380fd884939cbf354,6,,,,,,bolt,,,,,,0,24,24,9,1,1,1,,,,,,,,,,,,,,,,,,,,,,,,,,,,,,,,,,,,,,,,,,,,,,,,,,,,,,,,,,,,,,,,,,,,,,,,,,,,,,,,,,,,,,,,,,,,,,,,,,,
,,,,,,,,,,stimuli/images/PICTURE_108.png,POLICY,5f086c5550e36f072d79b37f,23/10/1995,2020-08-13_09h06.03.052,proactive2,2020.1.2,Win32,60,5f341be081b9052c55068110,5f3528e380fd884939cbf354,6,,,,,,calendar,,,,,,0,25,25,22,1,3,1,,,,,,,,,,,,,,,,,,,,,,,,,,,,,,,,,,,,,,,,,,,,,,,,,,,,,,,,,,,,,,,,,,,,,,,,,,,,,,,,,,,,,,,,,,,,,,,,,,,
,,,,,,,,,,stimuli/images/PICTURE_340.png,LETTER,5f086c5550e36f072d79b37f,23/10/1995,2020-08-13_09h06.03.052,proactive2,2020.1.2,Win32,60,5f341be081b9052c55068110,5f3528e380fd884939cbf354,6,,,,,,mirror,,,,,,0,26,26,24,1,3,1,,,,,,,,,,,,,,,,,,,,,,,,,,,,,,,,,,,,,,,,,,,,,,,,,,,,,,,,,,,,,,,,,,,,,,,,,,,,,,,,,,,,,,,,,,,,,,,,,,,
,,,,,,,,,,stimuli/images/PICTURE_308.png,FAMILY,5f086c5550e36f072d79b37f,23/10/1995,2020-08-13_09h06.03.052,proactive2,2020.1.2,Win32,60,5f341be081b9052c55068110,5f3528e380fd884939cbf354,6,,,,,,dice,,,,,,0,27,27,36,1,4,1,,,,,,,,,,,,,,,,,,,,,,,,,,,,,,,,,,,,,,,,,,,,,,,,,,,,,,,,,,,,,,,,,,,,,,,,,,,,,,,,,,,,,,,,,,,,,,,,,,,
,,,,,,,,,,stimuli/images/PICTURE_57.png,MOMENT,5f086c5550e36f072d79b37f,23/10/1995,2020-08-13_09h06.03.052,proactive2,2020.1.2,Win32,60,5f341be081b9052c55068110,5f3528e380fd884939cbf354,6,,,,,,stamp,,,,,,0,28,28,37,1,4,1,,,,,,,,,,,,,,,,,,,,,,,,,,,,,,,,,,,,,,,,,,,,,,,,,,,,,,,,,,,,,,,,,,,,,,,,,,,,,,,,,,,,,,,,,,,,,,,,,,,
,,,,,,,,,,stimuli/images/PICTURE_108.png,FLIGHT,5f086c5550e36f072d79b37f,23/10/1995,2020-08-13_09h06.03.052,proactive2,2020.1.2,Win32,60,5f341be081b9052c55068110,5f3528e380fd884939cbf354,6,,,,,,calendar,,,,,,0,29,29,59,1,6,1,,,,,,,,,,,,,,,,,,,,,,,,,,,,,,,,,,,,,,,,,,,,,,,,,,,,,,,,,,,,,,,,,,,,,,,,,,,,,,,,,,,,,,,,,,,,,,,,,,,
,,,,,,,,,,stimuli/images/PICTURE_655.png,TOILET,5f086c5550e36f072d79b37f,23/10/1995,2020-08-13_09h06.03.052,proactive2,2020.1.2,Win32,60,5f341be081b9052c55068110,5f3528e380fd884939cbf354,6,,,,,,megaphone,,,,,,0,30,30,12,1,2,1,,,,,,,,,,,,,,,,,,,,,,,,,,,,,,,,,,,,,,,,,,,,,,,,,,,,,,,,,,,,,,,,,,,,,,,,,,,,,,,,,,,,,,,,,,,,,,,,,,,
,,,,,,,,,,stimuli/images/PICTURE_380.png,HONEY,5f086c5550e36f072d79b37f,23/10/1995,2020-08-13_09h06.03.052,proactive2,2020.1.2,Win32,60,5f341be081b9052c55068110,5f3528e380fd884939cbf354,6,,,,,,gorilla,,,,,,0,31,31,19,1,2,1,,,,,,,,,,,,,,,,,,,,,,,,,,,,,,,,,,,,,,,,,,,,,,,,,,,,,,,,,,,,,,,,,,,,,,,,,,,,,,,,,,,,,,,,,,,,,,,,,,,
,,,,,,,,,,stimuli/images/PICTURE_504.png,COPS,5f086c5550e36f072d79b37f,23/10/1995,2020-08-13_09h06.03.052,proactive2,2020.1.2,Win32,60,5f341be081b9052c55068110,5f3528e380fd884939cbf354,6,,,,,,wheel,,,,,,0,32,32,52,1,6,1,,,,,,,,,,,,,,,,,,,,,,,,,,,,,,,,,,,,,,,,,,,,,,,,,,,,,,,,,,,,,,,,,,,,,,,,,,,,,,,,,,,,,,,,,,,,,,,,,,,
,,,,,,,,,,stimuli/images/PICTURE_147.png,WOMEN,5f086c5550e36f072d79b37f,23/10/1995,2020-08-13_09h06.03.052,proactive2,2020.1.2,Win32,60,5f341be081b9052c55068110,5f3528e380fd884939cbf354,6,,,,,,hanger,,,,,,0,33,33,7,1,1,1,,,,,,,,,,,,,,,,,,,,,,,,,,,,,,,,,,,,,,,,,,,,,,,,,,,,,,,,,,,,,,,,,,,,,,,,,,,,,,,,,,,,,,,,,,,,,,,,,,,
,,,,,,,,,,stimuli/images/PICTURE_327.png,SERIES,5f086c5550e36f072d79b37f,23/10/1995,2020-08-13_09h06.03.052,proactive2,2020.1.2,Win32,60,5f341be081b9052c55068110,5f3528e380fd884939cbf354,6,,,,,,helmet,,,,,,0,34,34,3,1,1,1,,,,,,,,,,,,,,,,,,,,,,,,,,,,,,,,,,,,,,,,,,,,,,,,,,,,,,,,,,,,,,,,,,,,,,,,,,,,,,,,,,,,,,,,,,,,,,,,,,,
,,,,,,,,,,stimuli/images/PICTURE_33.png,FRIEND,5f086c5550e36f072d79b37f,23/10/1995,2020-08-13_09h06.03.052,proactive2,2020.1.2,Win32,60,5f341be081b9052c55068110,5f3528e380fd884939cbf354,6,,,,,,frame,,,,,,0,35,35,8,1,1,1,,,,,,,,,,,,,,,,,,,,,,,,,,,,,,,,,,,,,,,,,,,,,,,,,,,,,,,,,,,,,,,,,,,,,,,,,,,,,,,,,,,,,,,,,,,,,,,,,,,
,,,,,,,,,,stimuli/images/PICTURE_677.png,APPLE,5f086c5550e36f072d79b37f,23/10/1995,2020-08-13_09h06.03.052,proactive2,2020.1.2,Win32,60,5f341be081b9052c55068110,5f3528e380fd884939cbf354,6,,,,,,map,,,,,,0,36,36,43,1,5,1,,,,,,,,,,,,,,,,,,,,,,,,,,,,,,,,,,,,,,,,,,,,,,,,,,,,,,,,,,,,,,,,,,,,,,,,,,,,,,,,,,,,,,,,,,,,,,,,,,,
,,,,,,,,,,stimuli/images/PICTURE_2.png,FLIGHT,5f086c5550e36f072d79b37f,23/10/1995,2020-08-13_09h06.03.052,proactive2,2020.1.2,Win32,60,5f341be081b9052c55068110,5f3528e380fd884939cbf354,6,,,,,,tyre,,,,,,0,37,37,15,1,2,1,,,,,,,,,,,,,,,,,,,,,,,,,,,,,,,,,,,,,,,,,,,,,,,,,,,,,,,,,,,,,,,,,,,,,,,,,,,,,,,,,,,,,,,,,,,,,,,,,,,
,,,,,,,,,,stimuli/images/PICTURE_203.png,NIGHT,5f086c5550e36f072d79b37f,23/10/1995,2020-08-13_09h06.03.052,proactive2,2020.1.2,Win32,60,5f341be081b9052c55068110,5f3528e380fd884939cbf354,6,,,,,,cap,,,,,,0,38,38,2,1,1,1,,,,,,,,,,,,,,,,,,,,,,,,,,,,,,,,,,,,,,,,,,,,,,,,,,,,,,,,,,,,,,,,,,,,,,,,,,,,,,,,,,,,,,,,,,,,,,,,,,,
,,,,,,,,,,stimuli/images/PICTURE_685.png,PENNY,5f086c5550e36f072d79b37f,23/10/1995,2020-08-13_09h06.03.052,proactive2,2020.1.2,Win32,60,5f341be081b9052c55068110,5f3528e380fd884939cbf354,6,,,,,,goose,,,,,,0,39,39,4,1,1,1,,,,,,,,,,,,,,,,,,,,,,,,,,,,,,,,,,,,,,,,,,,,,,,,,,,,,,,,,,,,,,,,,,,,,,,,,,,,,,,,,,,,,,,,,,,,,,,,,,,
,,,,,,,,,,stimuli/images/PICTURE_750.png,HOTEL,5f086c5550e36f072d79b37f,23/10/1995,2020-08-13_09h06.03.052,proactive2,2020.1.2,Win32,60,5f341be081b9052c55068110,5f3528e380fd884939cbf354,6,,,,,,kettle,,,,,,0,40,40,27,1,3,1,,,,,,,,,,,,,,,,,,,,,,,,,,,,,,,,,,,,,,,,,,,,,,,,,,,,,,,,,,,,,,,,,,,,,,,,,,,,,,,,,,,,,,,,,,,,,,,,,,,
,,,,,,,,,,stimuli/images/PICTURE_403.png,WRITER,5f086c5550e36f072d79b37f,23/10/1995,2020-08-13_09h06.03.052,proactive2,2020.1.2,Win32,60,5f341be081b9052c55068110,5f3528e380fd884939cbf354,6,,,,,,cathedral,,,,,,0,41,41,31,1,4,1,,,,,,,,,,,,,,,,,,,,,,,,,,,,,,,,,,,,,,,,,,,,,,,,,,,,,,,,,,,,,,,,,,,,,,,,,,,,,,,,,,,,,,,,,,,,,,,,,,,
,,,,,,,,,,stimuli/images/PICTURE_469.png,AGENT,5f086c5550e36f072d79b37f,23/10/1995,2020-08-13_09h06.03.052,proactive2,2020.1.2,Win32,60,5f341be081b9052c55068110,5f3528e380fd884939cbf354,6,,,,,,stool,,,,,,0,42,42,16,1,2,1,,,,,,,,,,,,,,,,,,,,,,,,,,,,,,,,,,,,,,,,,,,,,,,,,,,,,,,,,,,,,,,,,,,,,,,,,,,,,,,,,,,,,,,,,,,,,,,,,,,
,,,,,,,,,,stimuli/images/PICTURE_95.png,BOYS,5f086c5550e36f072d79b37f,23/10/1995,2020-08-13_09h06.03.052,proactive2,2020.1.2,Win32,60,5f341be081b9052c55068110,5f3528e380fd884939cbf354,6,,,,,,suitcase,,,,,,0,43,43,1,1,1,1,,,,,,,,,,,,,,,,,,,,,,,,,,,,,,,,,,,,,,,,,,,,,,,,,,,,,,,,,,,,,,,,,,,,,,,,,,,,,,,,,,,,,,,,,,,,,,,,,,,
,,,,,,,,,,stimuli/images/PICTURE_85.png,TOILET,5f086c5550e36f072d79b37f,23/10/1995,2020-08-13_09h06.03.052,proactive2,2020.1.2,Win32,60,5f341be081b9052c55068110,5f3528e380fd884939cbf354,6,,,,,,diamond,,,,,,0,44,44,48,1,5,1,,,,,,,,,,,,,,,,,,,,,,,,,,,,,,,,,,,,,,,,,,,,,,,,,,,,,,,,,,,,,,,,,,,,,,,,,,,,,,,,,,,,,,,,,,,,,,,,,,,
,,,,,,,,,,stimuli/images/PICTURE_340.png,VALLEY,5f086c5550e36f072d79b37f,23/10/1995,2020-08-13_09h06.03.052,proactive2,2020.1.2,Win32,60,5f341be081b9052c55068110,5f3528e380fd884939cbf354,6,,,,,,mirror,,,,,,0,45,45,54,1,6,1,,,,,,,,,,,,,,,,,,,,,,,,,,,,,,,,,,,,,,,,,,,,,,,,,,,,,,,,,,,,,,,,,,,,,,,,,,,,,,,,,,,,,,,,,,,,,,,,,,,
,,,,,,,,,,stimuli/images/PICTURE_147.png,YEAR,5f086c5550e36f072d79b37f,23/10/1995,2020-08-13_09h06.03.052,proactive2,2020.1.2,Win32,60,5f341be081b9052c55068110,5f3528e380fd884939cbf354,6,,,,,,hanger,,,,,,0,46,46,21,1,3,1,,,,,,,,,,,,,,,,,,,,,,,,,,,,,,,,,,,,,,,,,,,,,,,,,,,,,,,,,,,,,,,,,,,,,,,,,,,,,,,,,,,,,,,,,,,,,,,,,,,
,,,,,,,,,,stimuli/images/PICTURE_491.png,GLASS,5f086c5550e36f072d79b37f,23/10/1995,2020-08-13_09h06.03.052,proactive2,2020.1.2,Win32,60,5f341be081b9052c55068110,5f3528e380fd884939cbf354,6,,,,,,rug,,,,,,0,47,47,14,1,2,1,,,,,,,,,,,,,,,,,,,,,,,,,,,,,,,,,,,,,,,,,,,,,,,,,,,,,,,,,,,,,,,,,,,,,,,,,,,,,,,,,,,,,,,,,,,,,,,,,,,
,,,,,,,,,,stimuli/images/PICTURE_296.png,LIFE,5f086c5550e36f072d79b37f,23/10/1995,2020-08-13_09h06.03.052,proactive2,2020.1.2,Win32,60,5f341be081b9052c55068110,5f3528e380fd884939cbf354,6,,,,,,bolt,,,,,,0,48,48,57,1,6,1,,,,,,,,,,,,,,,,,,,,,,,,,,,,,,,,,,,,,,,,,,,,,,,,,,,,,,,,,,,,,,,,,,,,,,,,,,,,,,,,,,,,,,,,,,,,,,,,,,,
,,,,,,,,,,stimuli/images/PICTURE_285.png,LIFE,5f086c5550e36f072d79b37f,23/10/1995,2020-08-13_09h06.03.052,proactive2,2020.1.2,Win32,60,5f341be081b9052c55068110,5f3528e380fd884939cbf354,6,,,,,,carrot,,,,,,0,49,49,33,1,4,1,,,,,,,,,,,,,,,,,,,,,,,,,,,,,,,,,,,,,,,,,,,,,,,,,,,,,,,,,,,,,,,,,,,,,,,,,,,,,,,,,,,,,,,,,,,,,,,,,,,
