consent_key.keys,consent_key.rt,recalled,recalled_rt,recall_acc,example_recall.thisRepN,example_recall.thisTrialN,example_recall.thisN,example_recall.thisIndex,example_recall.ran,file,word,participant,please enter your date of birth (dd/mm/yyyy),date,expName,psychopyVersion,OS,frameRate,STUDY_ID,SESSION_ID,list,prac_learn_study_loop.thisRepN,prac_learn_study_loop.thisTrialN,prac_learn_study_loop.thisN,prac_learn_study_loop.thisIndex,prac_learn_study_loop.ran,image,prac_learn_test_loop.thisRepN,prac_learn_test_loop.thisTrialN,prac_learn_test_loop.thisN,prac_learn_test_loop.thisIndex,prac_learn_test_loop.ran,learn_study_loop.thisRepN,learn_study_loop.thisTrialN,learn_study_loop.thisN,learn_study_loop.thisIndex,learn_study_loop.ran,list_no,block_no,learn_test_loop.thisRepN,learn_test_loop.thisTrialN,learn_test_loop.thisN,learn_test_loop.thisIndex,learn_test_loop.ran,learn_blocks.thisRepN,learn_blocks.thisTrialN,learn_blocks.thisN,learn_blocks.thisIndex,learn_blocks.ran,block_csv,key_resp_13.keys,key_resp_13.rt,learn_blocks_loop.thisRepN,learn_blocks_loop.thisTrialN,learn_blocks_loop.thisN,learn_blocks_loop.thisIndex,learn_blocks_loop.ran,final_learn_test.thisRepN,final_learn_test.thisTrialN,final_learn_test.thisN,final_learn_test.thisIndex,final_learn_test.ran,s_im1,s_im2,s_im3,s_im4,s_im5,s_im6,s_im7,s_im8,s_im1pos,s_im2pos,s_im3pos,s_im4pos,s_im5pos,s_im6pos,s_im7pos,s_im8pos,s_tarright,search_resp.keys,search_loop.thisRepN,search_loop.thisTrialN,search_loop.thisN,search_loop.thisIndex,search_loop.ran,search_resp.rt,prac_wm_test_loop.thisRepN,prac_wm_test_loop.thisTrialN,prac_wm_test_loop.thisN,prac_wm_test_loop.thisIndex,prac_wm_test_loop.ran,wm_recalled1,wm_recall_rt1,wm_probed1,wm_recall_acc1,wm_recalled2,wm_recall_rt2,wm_probed2,wm_recall_acc2,wm_recalled3,wm_recall_rt3,wm_probed3,wm_recall_acc3,wm_recalled4,wm_recall_rt4,wm_probed4,wm_recall_acc4,prac_wm_trial_loop.thisRepN,prac_wm_trial_loop.thisTrialN,prac_wm_trial_loop.thisN,prac_wm_trial_loop.thisIndex,prac_wm_trial_loop.ran,word1,image1,file1,item_type1,word2,image2,file2,item_type2,word4,image4,file4,item_type4,word3,image3,file3,item_type3,wm_test_loop.thisRepN,wm_test_loop.thisTrialN,wm_test_loop.thisN,wm_test_loop.thisIndex,wm_test_loop.ran,wm_trial_loop.thisRepN,wm_trial_loop.thisTrialN,wm_trial_loop.thisN,wm_trial_loop.thisIndex,wm_trial_loop.ran
y,28.804095,TOUGH,5.05021,1,0,0,0,0,1,stimuli/images/PICTURE_747.png,TOUGH,5f0824a20370404639e81f77,05/06/1998,2020-08-13_12h48.43.662,proactive2,2020.1.2,Linux x86_64,60,5f341be081b9052c55068110,5f35288a269f0a47df67b6ee,1,,,,,,,,,,,,,,,,,,,,,,,,,,,,,,,,,,,,,,,,,,,,,,,,,,,,,,,,,,,,,,,,,,,,,,,,,,,,,,,,,,,,,,,,,,,,,,,,,,,,,,,,,,,,,,,,,,,,,
,,,,,,,,,,stimuli/images/PICTURE_658.png,DEVIL,5f0824a20370404639e81f77,05/06/1998,2020-08-13_12h48.43.662,proactive2,2020.1.2,Linux x86_64,60,5f341be081b9052c55068110,5f35288a269f0a47df67b6ee,1,0,0,0,3,1,crow,,,,,,,,,,,,,,,,,,,,,,,,,,,,,,,,,,,,,,,,,,,,,,,,,,,,,,,,,,,,,,,,,,,,,,,,,,,,,,,,,,,,,,,,,,,,,,,,,,,,,,,,,,,,,,,
,,,,,,,,,,stimuli/images/PICTURE_378.png,LOSS,5f0824a20370404639e81f77,05/06/1998,2020-08-13_12h48.43.662,proactive2,2020.1.2,Linux x86_64,60,5f341be081b9052c55068110,5f35288a269f0a47df67b6ee,1,0,1,1,2,1,lobster,,,,,,,,,,,,,,,,,,,,,,,,,,,,,,,,,,,,,,,,,,,,,,,,,,,,,,,,,,,,,,,,,,,,,,,,,,,,,,,,,,,,,,,,,,,,,,,,,,,,,,,,,,,,,,,
,,,,,,,,,,stimuli/images/PICTURE_727.png,CELL,5f0824a20370404639e81f77,05/06/1998,2020-08-13_12h48.43.662,proactive2,2020.1.2,Linux x86_64,60,5f341be081b9052c55068110,5f35288a269f0a47df67b6ee,1,0,2,2,1,1,hose,,,,,,,,,,,,,,,,,,,,,,,,,,,,,,,,,,,,,,,,,,,,,,,,,,,,,,,,,,,,,,,,,,,,,,,,,,,,,,,,,,,,,,,,,,,,,,,,,,,,,,,,,,,,,,,
,,,,,,,,,,stimuli/images/PICTURE_269.png,GENIUS,5f0824a20370404639e81f77,05/06/1998,2020-08-13_12h48.43.662,proactive2,2020.1.2,Linux x86_64,60,5f341be081b9052c55068110,5f35288a269f0a47df67b6ee,1,0,3,3,0,1,chameleon,,,,,,,,,,,,,,,,,,,,,,,,,,,,,,,,,,,,,,,,,,,,,,,,,,,,,,,,,,,,,,,,,,,,,,,,,,,,,,,,,,,,,,,,,,,,,,,,,,,,,,,,,,,,,,,
,,GENIUS,3.359645,1,,,,,,stimuli/images/PICTURE_269.png,GENIUS,5f0824a20370404639e81f77,05/06/1998,2020-08-13_12h48.43.662,proactive2,2020.1.2,Linux x86_64,60,5f341be081b9052c55068110,5f35288a269f0a47df67b6ee,1,,,,,,chameleon,0,0,0,0,1,,,,,,,,,,,,,,,,,,,,,,,,,,,,,,,,,,,,,,,,,,,,,,,,,,,,,,,,,,,,,,,,,,,,,,,,,,,,,,,,,,,,,,,,,,,,,,,,,,,,,,,,,,
,,LOSS,2.23187,1,,,,,,stimuli/images/PICTURE_378.png,LOSS,5f0824a20370404639e81f77,05/06/1998,2020-08-13_12h48.43.662,proactive2,2020.1.2,Linux x86_64,60,5f341be081b9052c55068110,5f35288a269f0a47df67b6ee,1,,,,,,lobster,0,1,1,2,1,,,,,,,,,,,,,,,,,,,,,,,,,,,,,,,,,,,,,,,,,,,,,,,,,,,,,,,,,,,,,,,,,,,,,,,,,,,,,,,,,,,,,,,,,,,,,,,,,,,,,,,,,,
,,DEVIL,1.998895,1,,,,,,stimuli/images/PICTURE_658.png,DEVIL,5f0824a20370404639e81f77,05/06/1998,2020-08-13_12h48.43.662,proactive2,2020.1.2,Linux x86_64,60,5f341be081b9052c55068110,5f35288a269f0a47df67b6ee,1,,,,,,crow,0,2,2,3,1,,,,,,,,,,,,,,,,,,,,,,,,,,,,,,,,,,,,,,,,,,,,,,,,,,,,,,,,,,,,,,,,,,,,,,,,,,,,,,,,,,,,,,,,,,,,,,,,,,,,,,,,,,
,,KILL,1.83258,0,,,,,,stimuli/images/PICTURE_697.png,KILLER,5f0824a20370404639e81f77,05/06/1998,2020-08-13_12h48.43.662,proactive2,2020.1.2,Linux x86_64,60,5f341be081b9052c55068110,5f35288a269f0a47df67b6ee,1,,,,,,peach,0,3,3,4,1,,,,,,,,,,,,,,,,,,,,,,,,,,,,,,,,,,,,,,,,,,,,,,,,,,,,,,,,,,,,,,,,,,,,,,,,,,,,,,,,,,,,,,,,,,,,,,,,,,,,,,,,,,
,,CELL,4.28168,1,,,,,,stimuli/images/PICTURE_727.png,CELL,5f0824a20370404639e81f77,05/06/1998,2020-08-13_12h48.43.662,proactive2,2020.1.2,Linux x86_64,60,5f341be081b9052c55068110,5f35288a269f0a47df67b6ee,1,,,,,,hose,0,4,4,1,1,,,,,,,,,,,,,,,,,,,,,,,,,,,,,,,,,,,,,,,,,,,,,,,,,,,,,,,,,,,,,,,,,,,,,,,,,,,,,,,,,,,,,,,,,,,,,,,,,,,,,,,,,,
,,,,,,,,,,stimuli/images/PICTURE_340.png,LETTER,5f0824a20370404639e81f77,05/06/1998,2020-08-13_12h48.43.662,proactive2,2020.1.2,Linux x86_64,60,5f341be081b9052c55068110,5f35288a269f0a47df67b6ee,1,,,,,,mirror,,,,,,0,0,0,24,1,3,1,,,,,,,,,,,,,,,,,,,,,,,,,,,,,,,,,,,,,,,,,,,,,,,,,,,,,,,,,,,,,,,,,,,,,,,,,,,,,,,,,,,,,,,,,,,,,,,,,,,
,,,,,,,,,,stimuli/images/PICTURE_383.png,SERIES,5f0824a20370404639e81f77,05/06/1998,2020-08-13_12h48.43.662,proactive2,2020.1.2,Linux x86_64,60,5f341be081b9052c55068110,5f35288a269f0a47df67b6ee,1,,,,,,coin,,,,,,0,1,1,46,1,5,1,,,,,,,,,,,,,,,,,,,,,,,,,,,,,,,,,,,,,,,,,,,,,,,,,,,,,,,,,,,,,,,,,,,,,,,,,,,,,,,,,,,,,,,,,,,,,,,,,,,
,,,,,,,,,,stimuli/images/PICTURE_380.png,CANDY,5f0824a20370404639e81f77,05/06/1998,2020-08-13_12h48.43.662,proactive2,2020.1.2,Linux x86_64,60,5f341be081b9052c55068110,5f35288a269f0a47df67b6ee,1,,,,,,gorilla,,,,,,0,2,2,0,1,1,1,,,,,,,,,,,,,,,,,,,,,,,,,,,,,,,,,,,,,,,,,,,,,,,,,,,,,,,,,,,,,,,,,,,,,,,,,,,,,,,,,,,,,,,,,,,,,,,,,,,
,,,,,,,,,,stimuli/images/PICTURE_95.png,BOYS,5f0824a20370404639e81f77,05/06/1998,2020-08-13_12h48.43.662,proactive2,2020.1.2,Linux x86_64,60,5f341be081b9052c55068110,5f35288a269f0a47df67b6ee,1,,,,,,suitcase,,,,,,0,3,3,1,1,1,1,,,,,,,,,,,,,,,,,,,,,,,,,,,,,,,,,,,,,,,,,,,,,,,,,,,,,,,,,,,,,,,,,,,,,,,,,,,,,,,,,,,,,,,,,,,,,,,,,,,
,,,,,,,,,,stimuli/images/PICTURE_85.png,NATION,5f0824a20370404639e81f77,05/06/1998,2020-08-13_12h48.43.662,proactive2,2020.1.2,Linux x86_64,60,5f341be081b9052c55068110,5f35288a269f0a47df67b6ee,1,,,,,,diamond,,,,,,0,4,4,5,1,1,1,,,,,,,,,,,,,,,,,,,,,,,,,,,,,,,,,,,,,,,,,,,,,,,,,,,,,,,,,,,,,,,,,,,,,,,,,,,,,,,,,,,,,,,,,,,,,,,,,,,
,,,,,,,,,,stimuli/images/PICTURE_340.png,VALLEY,5f0824a20370404639e81f77,05/06/1998,2020-08-13_12h48.43.662,proactive2,2020.1.2,Linux x86_64,60,5f341be081b9052c55068110,5f35288a269f0a47df67b6ee,1,,,,,,mirror,,,,,,0,5,5,54,1,6,1,,,,,,,,,,,,,,,,,,,,,,,,,,,,,,,,,,,,,,,,,,,,,,,,,,,,,,,,,,,,,,,,,,,,,,,,,,,,,,,,,,,,,,,,,,,,,,,,,,,
,,,,,,,,,,stimuli/images/PICTURE_403.png,WRITER,5f0824a20370404639e81f77,05/06/1998,2020-08-13_12h48.43.662,proactive2,2020.1.2,Linux x86_64,60,5f341be081b9052c55068110,5f35288a269f0a47df67b6ee,1,,,,,,cathedral,,,,,,0,6,6,31,1,4,1,,,,,,,,,,,,,,,,,,,,,,,,,,,,,,,,,,,,,,,,,,,,,,,,,,,,,,,,,,,,,,,,,,,,,,,,,,,,,,,,,,,,,,,,,,,,,,,,,,,
,,,,,,,,,,stimuli/images/PICTURE_68.png,MILE,5f0824a20370404639e81f77,05/06/1998,2020-08-13_12h48.43.662,proactive2,2020.1.2,Linux x86_64,60,5f341be081b9052c55068110,5f35288a269f0a47df67b6ee,1,,,,,,candle,,,,,,0,7,7,51,1,6,1,,,,,,,,,,,,,,,,,,,,,,,,,,,,,,,,,,,,,,,,,,,,,,,,,,,,,,,,,,,,,,,,,,,,,,,,,,,,,,,,,,,,,,,,,,,,,,,,,,,
,,,,,,,,,,stimuli/images/PICTURE_339.png,CLIENT,5f0824a20370404639e81f77,05/06/1998,2020-08-13_12h48.43.662,proactive2,2020.1.2,Linux x86_64,60,5f341be081b9052c55068110,5f35288a269f0a47df67b6ee,1,,,,,,backpack,,,,,,0,8,8,11,1,2,1,,,,,,,,,,,,,,,,,,,,,,,,,,,,,,,,,,,,,,,,,,,,,,,,,,,,,,,,,,,,,,,,,,,,,,,,,,,,,,,,,,,,,,,,,,,,,,,,,,,
,,,,,,,,,,stimuli/images/PICTURE_685.png,PENNY,5f0824a20370404639e81f77,05/06/1998,2020-08-13_12h48.43.662,proactive2,2020.1.2,Linux x86_64,60,5f341be081b9052c55068110,5f35288a269f0a47df67b6ee,1,,,,,,goose,,,,,,0,9,9,4,1,1,1,,,,,,,,,,,,,,,,,,,,,,,,,,,,,,,,,,,,,,,,,,,,,,,,,,,,,,,,,,,,,,,,,,,,,,,,,,,,,,,,,,,,,,,,,,,,,,,,,,,
,,,,,,,,,,stimuli/images/PICTURE_203.png,GODS,5f0824a20370404639e81f77,05/06/1998,2020-08-13_12h48.43.662,proactive2,2020.1.2,Linux x86_64,60,5f341be081b9052c55068110,5f35288a269f0a47df67b6ee,1,,,,,,cap,,,,,,0,10,10,30,1,4,1,,,,,,,,,,,,,,,,,,,,,,,,,,,,,,,,,,,,,,,,,,,,,,,,,,,,,,,,,,,,,,,,,,,,,,,,,,,,,,,,,,,,,,,,,,,,,,,,,,,
,,,,,,,,,,stimuli/images/PICTURE_504.png,COPS,5f0824a20370404639e81f77,05/06/1998,2020-08-13_12h48.43.662,proactive2,2020.1.2,Linux x86_64,60,5f341be081b9052c55068110,5f35288a269f0a47df67b6ee,1,,,,,,wheel,,,,,,0,11,11,52,1,6,1,,,,,,,,,,,,,,,,,,,,,,,,,,,,,,,,,,,,,,,,,,,,,,,,,,,,,,,,,,,,,,,,,,,,,,,,,,,,,,,,,,,,,,,,,,,,,,,,,,,
,,,,,,,,,,stimuli/images/PICTURE_405.png,YEAR,5f0824a20370404639e81f77,05/06/1998,2020-08-13_12h48.43.662,proactive2,2020.1.2,Linux x86_64,60,5f341be081b9052c55068110,5f35288a269f0a47df67b6ee,1,,,,,,anchor,,,,,,0,12,12,34,1,4,1,,,,,,,,,,,,,,,,,,,,,,,,,,,,,,,,,,,,,,,,,,,,,,,,,,,,,,,,,,,,,,,,,,,,,,,,,,,,,,,,,,,,,,,,,,,,,,,,,,,
,,,,,,,,,,stimuli/images/PICTURE_405.png,PLENTY,5f0824a20370404639e81f77,05/06/1998,2020-08-13_12h48.43.662,proactive2,2020.1.2,Linux x86_64,60,5f341be081b9052c55068110,5f35288a269f0a47df67b6ee,1,,,,,,anchor,,,,,,0,13,13,23,1,3,1,,,,,,,,,,,,,,,,,,,,,,,,,,,,,,,,,,,,,,,,,,,,,,,,,,,,,,,,,,,,,,,,,,,,,,,,,,,,,,,,,,,,,,,,,,,,,,,,,,,
,,,,,,,,,,stimuli/images/PICTURE_285.png,LIFE,5f0824a20370404639e81f77,05/06/1998,2020-08-13_12h48.43.662,proactive2,2020.1.2,Linux x86_64,60,5f341be081b9052c55068110,5f35288a269f0a47df67b6ee,1,,,,,,carrot,,,,,,0,14,14,33,1,4,1,,,,,,,,,,,,,,,,,,,,,,,,,,,,,,,,,,,,,,,,,,,,,,,,,,,,,,,,,,,,,,,,,,,,,,,,,,,,,,,,,,,,,,,,,,,,,,,,,,,
,,,,,,,,,,stimuli/images/PICTURE_108.png,POLICY,5f0824a20370404639e81f77,05/06/1998,2020-08-13_12h48.43.662,proactive2,2020.1.2,Linux x86_64,60,5f341be081b9052c55068110,5f35288a269f0a47df67b6ee,1,,,,,,calendar,,,,,,0,15,15,22,1,3,1,,,,,,,,,,,,,,,,,,,,,,,,,,,,,,,,,,,,,,,,,,,,,,,,,,,,,,,,,,,,,,,,,,,,,,,,,,,,,,,,,,,,,,,,,,,,,,,,,,,
,,,,,,,,,,stimuli/images/PICTURE_2.png,FLIGHT,5f0824a20370404639e81f77,05/06/1998,2020-08-13_12h48.43.662,proactive2,2020.1.2,Linux x86_64,60,5f341be081b9052c55068110,5f35288a269f0a47df67b6ee,1,,,,,,tyre,,,,,,0,16,16,15,1,2,1,,,,,,,,,,,,,,,,,,,,,,,,,,,,,,,,,,,,,,,,,,,,,,,,,,,,,,,,,,,,,,,,,,,,,,,,,,,,,,,,,,,,,,,,,,,,,,,,,,,
,,,,,,,,,,stimuli/images/PICTURE_383.png,WRITER,5f0824a20370404639e81f77,05/06/1998,2020-08-13_12h48.43.662,proactive2,2020.1.2,Linux x86_64,60,5f341be081b9052c55068110,5f35288a269f0a47df67b6ee,1,,,,,,coin,,,,,,0,17,17,28,1,3,1,,,,,,,,,,,,,,,,,,,,,,,,,,,,,,,,,,,,,,,,,,,,,,,,,,,,,,,,,,,,,,,,,,,,,,,,,,,,,,,,,,,,,,,,,,,,,,,,,,,
,,,,,,,,,,stimuli/images/PICTURE_403.png,RIVER,5f0824a20370404639e81f77,05/06/1998,2020-08-13_12h48.43.662,proactive2,2020.1.2,Linux x86_64,60,5f341be081b9052c55068110,5f35288a269f0a47df67b6ee,1,,,,,,cathedral,,,,,,0,18,18,40,1,5,1,,,,,,,,,,,,,,,,,,,,,,,,,,,,,,,,,,,,,,,,,,,,,,,,,,,,,,,,,,,,,,,,,,,,,,,,,,,,,,,,,,,,,,,,,,,,,,,,,,,
,,,,,,,,,,stimuli/images/PICTURE_95.png,HONEY,5f0824a20370404639e81f77,05/06/1998,2020-08-13_12h48.43.662,proactive2,2020.1.2,Linux x86_64,60,5f341be081b9052c55068110,5f35288a269f0a47df67b6ee,1,,,,,,suitcase,,,,,,0,19,19,44,1,5,1,,,,,,,,,,,,,,,,,,,,,,,,,,,,,,,,,,,,,,,,,,,,,,,,,,,,,,,,,,,,,,,,,,,,,,,,,,,,,,,,,,,,,,,,,,,,,,,,,,,
,,,,,,,,,,stimuli/images/PICTURE_449.png,DUDE,5f0824a20370404639e81f77,05/06/1998,2020-08-13_12h48.43.662,proactive2,2020.1.2,Linux x86_64,60,5f341be081b9052c55068110,5f35288a269f0a47df67b6ee,1,,,,,,bench,,,,,,0,20,20,17,1,2,1,,,,,,,,,,,,,,,,,,,,,,,,,,,,,,,,,,,,,,,,,,,,,,,,,,,,,,,,,,,,,,,,,,,,,,,,,,,,,,,,,,,,,,,,,,,,,,,,,,,
,,,,,,,,,,stimuli/images/PICTURE_564.png,BATH,5f0824a20370404639e81f77,05/06/1998,2020-08-13_12h48.43.662,proactive2,2020.1.2,Linux x86_64,60,5f341be081b9052c55068110,5f35288a269f0a47df67b6ee,1,,,,,,spoon,,,,,,0,21,21,26,1,3,1,,,,,,,,,,,,,,,,,,,,,,,,,,,,,,,,,,,,,,,,,,,,,,,,,,,,,,,,,,,,,,,,,,,,,,,,,,,,,,,,,,,,,,,,,,,,,,,,,,,
,,,,,,,,,,stimuli/images/PICTURE_491.png,RIVER,5f0824a20370404639e81f77,05/06/1998,2020-08-13_12h48.43.662,proactive2,2020.1.2,Linux x86_64,60,5f341be081b9052c55068110,5f35288a269f0a47df67b6ee,1,,,,,,rug,,,,,,0,22,22,6,1,1,1,,,,,,,,,,,,,,,,,,,,,,,,,,,,,,,,,,,,,,,,,,,,,,,,,,,,,,,,,,,,,,,,,,,,,,,,,,,,,,,,,,,,,,,,,,,,,,,,,,,
,,,,,,,,,,stimuli/images/PICTURE_57.png,MOMENT,5f0824a20370404639e81f77,05/06/1998,2020-08-13_12h48.43.662,proactive2,2020.1.2,Linux x86_64,60,5f341be081b9052c55068110,5f35288a269f0a47df67b6ee,1,,,,,,stamp,,,,,,0,23,23,37,1,4,1,,,,,,,,,,,,,,,,,,,,,,,,,,,,,,,,,,,,,,,,,,,,,,,,,,,,,,,,,,,,,,,,,,,,,,,,,,,,,,,,,,,,,,,,,,,,,,,,,,,
,,,,,,,,,,stimuli/images/PICTURE_233.png,LOTS,5f0824a20370404639e81f77,05/06/1998,2020-08-13_12h48.43.662,proactive2,2020.1.2,Linux x86_64,60,5f341be081b9052c55068110,5f35288a269f0a47df67b6ee,1,,,,,,salt,,,,,,0,24,24,42,1,5,1,,,,,,,,,,,,,,,,,,,,,,,,,,,,,,,,,,,,,,,,,,,,,,,,,,,,,,,,,,,,,,,,,,,,,,,,,,,,,,,,,,,,,,,,,,,,,,,,,,,
,,,,,,,,,,stimuli/images/PICTURE_327.png,SERIES,5f0824a20370404639e81f77,05/06/1998,2020-08-13_12h48.43.662,proactive2,2020.1.2,Linux x86_64,60,5f341be081b9052c55068110,5f35288a269f0a47df67b6ee,1,,,,,,helmet,,,,,,0,25,25,3,1,1,1,,,,,,,,,,,,,,,,,,,,,,,,,,,,,,,,,,,,,,,,,,,,,,,,,,,,,,,,,,,,,,,,,,,,,,,,,,,,,,,,,,,,,,,,,,,,,,,,,,,
,,,,,,,,,,stimuli/images/PICTURE_108.png,FLIGHT,5f0824a20370404639e81f77,05/06/1998,2020-08-13_12h48.43.662,proactive2,2020.1.2,Linux x86_64,60,5f341be081b9052c55068110,5f35288a269f0a47df67b6ee,1,,,,,,calendar,,,,,,0,26,26,59,1,6,1,,,,,,,,,,,,,,,,,,,,,,,,,,,,,,,,,,,,,,,,,,,,,,,,,,,,,,,,,,,,,,,,,,,,,,,,,,,,,,,,,,,,,,,,,,,,,,,,,,,
,,,,,,,,,,stimuli/images/PICTURE_95.png,MILLER,5f0824a20370404639e81f77,05/06/1998,2020-08-13_12h48.43.662,proactive2,2020.1.2,Linux x86_64,60,5f341be081b9052c55068110,5f35288a269f0a47df67b6ee,1,,,,,,suitcase,,,,,,0,27,27,56,1,6,1,,,,,,,,,,,,,,,,,,,,,,,,,,,,,,,,,,,,,,,,,,,,,,,,,,,,,,,,,,,,,,,,,,,,,,,,,,,,,,,,,,,,,,,,,,,,,,,,,,,
,,,,,,,,,,stimuli/images/PICTURE_203.png,NIGHT,5f0824a20370404639e81f77,05/06/1998,2020-08-13_12h48.43.662,proactive2,2020.1.2,Linux x86_64,60,5f341be081b9052c55068110,5f35288a269f0a47df67b6ee,1,,,,,,cap,,,,,,0,28,28,2,1,1,1,,,,,,,,,,,,,,,,,,,,,,,,,,,,,,,,,,,,,,,,,,,,,,,,,,,,,,,,,,,,,,,,,,,,,,,,,,,,,,,,,,,,,,,,,,,,,,,,,,,
,,,,,,,,,,stimuli/images/PICTURE_403.png,TOILET,5f0824a20370404639e81f77,05/06/1998,2020-08-13_12h48.43.662,proactive2,2020.1.2,Linux x86_64,60,5f341be081b9052c55068110,5f35288a269f0a47df67b6ee,1,,,,,,cathedral,,,,,,0,29,29,25,1,3,1,,,,,,,,,,,,,,,,,,,,,,,,,,,,,,,,,,,,,,,,,,,,,,,,,,,,,,,,,,,,,,,,,,,,,,,,,,,,,,,,,,,,,,,,,,,,,,,,,,,
,,,,,,,,,,stimuli/images/PICTURE_667.png,RIVER,5f0824a20370404639e81f77,05/06/1998,2020-08-13_12h48.43.662,proactive2,2020.1.2,Linux x86_64,60,5f341be081b9052c55068110,5f35288a269f0a47df67b6ee,1,,,,,,daisy,,,,,,0,30,30,10,1,2,1,,,,,,,,,,,,,,,,,,,,,,,,,,,,,,,,,,,,,,,,,,,,,,,,,,,,,,,,,,,,,,,,,,,,,,,,,,,,,,,,,,,,,,,,,,,,,,,,,,,
,,,,,,,,,,stimuli/images/PICTURE_327.png,CASINO,5f0824a20370404639e81f77,05/06/1998,2020-08-13_12h48.43.662,proactive2,2020.1.2,Linux x86_64,60,5f341be081b9052c55068110,5f35288a269f0a47df67b6ee,1,,,,,,helmet,,,,,,0,31,31,20,1,3,1,,,,,,,,,,,,,,,,,,,,,,,,,,,,,,,,,,,,,,,,,,,,,,,,,,,,,,,,,,,,,,,,,,,,,,,,,,,,,,,,,,,,,,,,,,,,,,,,,,,
,,,,,,,,,,stimuli/images/PICTURE_708.png,RECORD,5f0824a20370404639e81f77,05/06/1998,2020-08-13_12h48.43.662,proactive2,2020.1.2,Linux x86_64,60,5f341be081b9052c55068110,5f35288a269f0a47df67b6ee,1,,,,,,monkey,,,,,,0,32,32,58,1,6,1,,,,,,,,,,,,,,,,,,,,,,,,,,,,,,,,,,,,,,,,,,,,,,,,,,,,,,,,,,,,,,,,,,,,,,,,,,,,,,,,,,,,,,,,,,,,,,,,,,,
,,,,,,,,,,stimuli/images/PICTURE_655.png,TOILET,5f0824a20370404639e81f77,05/06/1998,2020-08-13_12h48.43.662,proactive2,2020.1.2,Linux x86_64,60,5f341be081b9052c55068110,5f35288a269f0a47df67b6ee,1,,,,,,megaphone,,,,,,0,33,33,12,1,2,1,,,,,,,,,,,,,,,,,,,,,,,,,,,,,,,,,,,,,,,,,,,,,,,,,,,,,,,,,,,,,,,,,,,,,,,,,,,,,,,,,,,,,,,,,,,,,,,,,,,
,,,,,,,,,,stimuli/images/PICTURE_297.png,RIVER,5f0824a20370404639e81f77,05/06/1998,2020-08-13_12h48.43.662,proactive2,2020.1.2,Linux x86_64,60,5f341be081b9052c55068110,5f35288a269f0a47df67b6ee,1,,,,,,aeroplane,,,,,,0,34,34,39,1,4,1,,,,,,,,,,,,,,,,,,,,,,,,,,,,,,,,,,,,,,,,,,,,,,,,,,,,,,,,,,,,,,,,,,,,,,,,,,,,,,,,,,,,,,,,,,,,,,,,,,,
,,,,,,,,,,stimuli/images/PICTURE_677.png,APPLE,5f0824a20370404639e81f77,05/06/1998,2020-08-13_12h48.43.662,proactive2,2020.1.2,Linux x86_64,60,5f341be081b9052c55068110,5f35288a269f0a47df67b6ee,1,,,,,,map,,,,,,0,35,35,43,1,5,1,,,,,,,,,,,,,,,,,,,,,,,,,,,,,,,,,,,,,,,,,,,,,,,,,,,,,,,,,,,,,,,,,,,,,,,,,,,,,,,,,,,,,,,,,,,,,,,,,,,
,,,,,,,,,,stimuli/images/PICTURE_504.png,ARTIST,5f0824a20370404639e81f77,05/06/1998,2020-08-13_12h48.43.662,proactive2,2020.1.2,Linux x86_64,60,5f341be081b9052c55068110,5f35288a269f0a47df67b6ee,1,,,,,,wheel,,,,,,0,36,36,49,1,5,1,,,,,,,,,,,,,,,,,,,,,,,,,,,,,,,,,,,,,,,,,,,,,,,,,,,,,,,,,,,,,,,,,,,,,,,,,,,,,,,,,,,,,,,,,,,,,,,,,,,
,,,,,,,,,,stimuli/images/PICTURE_467.png,POLICY,5f0824a20370404639e81f77,05/06/1998,2020-08-13_12h48.43.662,proactive2,2020.1.2,Linux x86_64,60,5f341be081b9052c55068110,5f35288a269f0a47df67b6ee,1,,,,,,peg,,,,,,0,37,37,53,1,6,1,,,,,,,,,,,,,,,,,,,,,,,,,,,,,,,,,,,,,,,,,,,,,,,,,,,,,,,,,,,,,,,,,,,,,,,,,,,,,,,,,,,,,,,,,,,,,,,,,,,
,,,,,,,,,,stimuli/images/PICTURE_308.png,FAMILY,5f0824a20370404639e81f77,05/06/1998,2020-08-13_12h48.43.662,proactive2,2020.1.2,Linux x86_64,60,5f341be081b9052c55068110,5f35288a269f0a47df67b6ee,1,,,,,,dice,,,,,,0,38,38,36,1,4,1,,,,,,,,,,,,,,,,,,,,,,,,,,,,,,,,,,,,,,,,,,,,,,,,,,,,,,,,,,,,,,,,,,,,,,,,,,,,,,,,,,,,,,,,,,,,,,,,,,,
,,,,,,,,,,stimuli/images/PICTURE_208.png,SYSTEM,5f0824a20370404639e81f77,05/06/1998,2020-08-13_12h48.43.662,proactive2,2020.1.2,Linux x86_64,60,5f341be081b9052c55068110,5f35288a269f0a47df67b6ee,1,,,,,,microphone,,,,,,0,39,39,32,1,4,1,,,,,,,,,,,,,,,,,,,,,,,,,,,,,,,,,,,,,,,,,,,,,,,,,,,,,,,,,,,,,,,,,,,,,,,,,,,,,,,,,,,,,,,,,,,,,,,,,,,
,,,,,,,,,,stimuli/images/PICTURE_32.png,KIND,5f0824a20370404639e81f77,05/06/1998,2020-08-13_12h48.43.662,proactive2,2020.1.2,Linux x86_64,60,5f341be081b9052c55068110,5f35288a269f0a47df67b6ee,1,,,,,,crown,,,,,,0,40,40,35,1,4,1,,,,,,,,,,,,,,,,,,,,,,,,,,,,,,,,,,,,,,,,,,,,,,,,,,,,,,,,,,,,,,,,,,,,,,,,,,,,,,,,,,,,,,,,,,,,,,,,,,,
,,,,,,,,,,stimuli/images/PICTURE_380.png,HONEY,5f0824a20370404639e81f77,05/06/1998,2020-08-13_12h48.43.662,proactive2,2020.1.2,Linux x86_64,60,5f341be081b9052c55068110,5f35288a269f0a47df67b6ee,1,,,,,,gorilla,,,,,,0,41,41,19,1,2,1,,,,,,,,,,,,,,,,,,,,,,,,,,,,,,,,,,,,,,,,,,,,,,,,,,,,,,,,,,,,,,,,,,,,,,,,,,,,,,,,,,,,,,,,,,,,,,,,,,,
,,,,,,,,,,stimuli/images/PICTURE_32.png,PILLS,5f0824a20370404639e81f77,05/06/1998,2020-08-13_12h48.43.662,proactive2,2020.1.2,Linux x86_64,60,5f341be081b9052c55068110,5f35288a269f0a47df67b6ee,1,,,,,,crown,,,,,,0,42,42,18,1,2,1,,,,,,,,,,,,,,,,,,,,,,,,,,,,,,,,,,,,,,,,,,,,,,,,,,,,,,,,,,,,,,,,,,,,,,,,,,,,,,,,,,,,,,,,,,,,,,,,,,,
,,,,,,,,,,stimuli/images/PICTURE_469.png,AGENT,5f0824a20370404639e81f77,05/06/1998,2020-08-13_12h48.43.662,proactive2,2020.1.2,Linux x86_64,60,5f341be081b9052c55068110,5f35288a269f0a47df67b6ee,1,,,,,,stool,,,,,,0,43,43,16,1,2,1,,,,,,,,,,,,,,,,,,,,,,,,,,,,,,,,,,,,,,,,,,,,,,,,,,,,,,,,,,,,,,,,,,,,,,,,,,,,,,,,,,,,,,,,,,,,,,,,,,,
,,,,,,,,,,stimuli/images/PICTURE_147.png,YEAR,5f0824a20370404639e81f77,05/06/1998,2020-08-13_12h48.43.662,proactive2,2020.1.2,Linux x86_64,60,5f341be081b9052c55068110,5f35288a269f0a47df67b6ee,1,,,,,,hanger,,,,,,0,44,44,21,1,3,1,,,,,,,,,,,,,,,,,,,,,,,,,,,,,,,,,,,,,,,,,,,,,,,,,,,,,,,,,,,,,,,,,,,,,,,,,,,,,,,,,,,,,,,,,,,,,,,,,,,
,,,,,,,,,,stimuli/images/PICTURE_296.png,LIFE,5f0824a20370404639e81f77,05/06/1998,2020-08-13_12h48.43.662,proactive2,2020.1.2,Linux x86_64,60,5f341be081b9052c55068110,5f35288a269f0a47df67b6ee,1,,,,,,bolt,,,,,,0,45,45,57,1,6,1,,,,,,,,,,,,,,,,,,,,,,,,,,,,,,,,,,,,,,,,,,,,,,,,,,,,,,,,,,,,,,,,,,,,,,,,,,,,,,,,,,,,,,,,,,,,,,,,,,,
,,,,,,,,,,stimuli/images/PICTURE_744.png,WEAPON,5f0824a20370404639e81f77,05/06/1998,2020-08-13_12h48.43.662,proactive2,2020.1.2,Linux x86_64,60,5f341be081b9052c55068110,5f35288a269f0a47df67b6ee,1,,,,,,ring,,,,,,0,46,46,50,1,6,1,,,,,,,,,,,,,,,,,,,,,,,,,,,,,,,,,,,,,,,,,,,,,,,,,,,,,,,,,,,,,,,,,,,,,,,,,,,,,,,,,,,,,,,,,,,,,,,,,,,
,,,,,,,,,,stimuli/images/PICTURE_487.png,GIRL,5f0824a20370404639e81f77,05/06/1998,2020-08-13_12h48.43.662,proactive2,2020.1.2,Linux x86_64,60,5f341be081b9052c55068110,5f35288a269f0a47df67b6ee,1,,,,,,basket,,,,,,0,47,47,45,1,5,1,,,,,,,,,,,,,,,,,,,,,,,,,,,,,,,,,,,,,,,,,,,,,,,,,,,,,,,,,,,,,,,,,,,,,,,,,,,,,,,,,,,,,,,,,,,,,,,,,,,
,,,,,,,,,,stimuli/images/PICTURE_177.png,WRITER,5f0824a20370404639e81f77,05/06/1998,2020-08-13_12h48.43.662,proactive2,2020.1.2,Linux x86_64,60,5f341be081b9052c55068110,5f35288a269f0a47df67b6ee,1,,,,,,mushroom,,,,,,0,48,48,41,1,5,1,,,,,,,,,,,,,,,,,,,,,,,,,,,,,,,,,,,,,,,,,,,,,,,,,,,,,,,,,,,,,,,,,,,,,,,,,,,,,,,,,,,,,,,,,,,,,,,,,,,
,,,,,,,,,,stimuli/images/PICTURE_296.png,LOTS,5f0824a20370404639e81f77,05/06/1998,2020-08-13_12h48.43.662,proactive2,2020.1.2,Linux x86_64,60,5f341be081b9052c55068110,5f35288a269f0a47df67b6ee,1,,,,,,bolt,,,,,,0,49,49,9,1,1,1,,,,,,,,,,,,,,,,,,,,,,,,,,,,,,,,,,,,,,,,,,,,,,,,,,,,,,,,,,,,,,,,,,,,,,,,,,,,,,,,,,,,,,,,,,,,,,,,,,,
,,,,,,,,,,stimuli/images/PICTURE_147.png,WOMEN,5f0824a20370404639e81f77,05/06/1998,2020-08-13_12h48.43.662,proactive2,2020.1.2,Linux x86_64,60,5f341be081b9052c55068110,5f35288a269f0a47df67b6ee,1,,,,,,hanger,,,,,,0,50,50,7,1,1,1,,,,,,,,,,,,,,,,,,,,,,,,,,,,,,,,,,,,,,,,,,,,,,,,,,,,,,,,,,,,,,,,,,,,,,,,,,,,,,,,,,,,,,,,,,,,,,,,,,,
,,,,,,,,,,stimuli/images/PICTURE_750.png,HOTEL,5f0824a20370404639e81f77,05/06/1998,2020-08-13_12h48.43.662,proactive2,2020.1.2,Linux x86_64,60,5f341be081b9052c55068110,5f35288a269f0a47df67b6ee,1,,,,,,kettle,,,,,,0,51,51,27,1,3,1,,,,,,,,,,,,,,,,,,,,,,,,,,,,,,,,,,,,,,,,,,,,,,,,,,,,,,,,,,,,,,,,,,,,,,,,,,,,,,,,,,,,,,,,,,,,,,,,,,,
,,,,,,,,,,stimuli/images/PICTURE_675.png,SALE,5f0824a20370404639e81f77,05/06/1998,2020-08-13_12h48.43.662,proactive2,2020.1.2,Linux x86_64,60,5f341be081b9052c55068110,5f35288a269f0a47df67b6ee,1,,,,,,windmill,,,,,,0,52,52,47,1,5,1,,,,,,,,,,,,,,,,,,,,,,,,,,,,,,,,,,,,,,,,,,,,,,,,,,,,,,,,,,,,,,,,,,,,,,,,,,,,,,,,,,,,,,,,,,,,,,,,,,,
,,,,,,,,,,stimuli/images/PICTURE_654.png,MONTH,5f0824a20370404639e81f77,05/06/1998,2020-08-13_12h48.43.662,proactive2,2020.1.2,Linux x86_64,60,5f341be081b9052c55068110,5f35288a269f0a47df67b6ee,1,,,,,,pencil,,,,,,0,53,53,29,1,3,1,,,,,,,,,,,,,,,,,,,,,,,,,,,,,,,,,,,,,,,,,,,,,,,,,,,,,,,,,,,,,,,,,,,,,,,,,,,,,,,,,,,,,,,,,,,,,,,,,,,
,,,,,,,,,,stimuli/images/PICTURE_68.png,ROOF,5f0824a20370404639e81f77,05/06/1998,2020-08-13_12h48.43.662,proactive2,2020.1.2,Linux x86_64,60,5f341be081b9052c55068110,5f35288a269f0a47df67b6ee,1,,,,,,candle,,,,,,0,54,54,38,1,4,1,,,,,,,,,,,,,,,,,,,,,,,,,,,,,,,,,,,,,,,,,,,,,,,,,,,,,,,,,,,,,,,,,,,,,,,,,,,,,,,,,,,,,,,,,,,,,,,,,,,
,,,,,,,,,,stimuli/images/PICTURE_491.png,GLASS,5f0824a20370404639e81f77,05/06/1998,2020-08-13_12h48.43.662,proactive2,2020.1.2,Linux x86_64,60,5f341be081b9052c55068110,5f35288a269f0a47df67b6ee,1,,,,,,rug,,,,,,0,55,55,14,1,2,1,,,,,,,,,,,,,,,,,,,,,,,,,,,,,,,,,,,,,,,,,,,,,,,,,,,,,,,,,,,,,,,,,,,,,,,,,,,,,,,,,,,,,,,,,,,,,,,,,,,
,,,,,,,,,,stimuli/images/PICTURE_42.png,BOYS,5f0824a20370404639e81f77,05/06/1998,2020-08-13_12h48.43.662,proactive2,2020.1.2,Linux x86_64,60,5f341be081b9052c55068110,5f35288a269f0a47df67b6ee,1,,,,,,pear,,,,,,0,56,56,55,1,6,1,,,,,,,,,,,,,,,,,,,,,,,,,,,,,,,,,,,,,,,,,,,,,,,,,,,,,,,,,,,,,,,,,,,,,,,,,,,,,,,,,,,,,,,,,,,,,,,,,,,
,,,,,,,,,,stimuli/images/PICTURE_85.png,TOILET,5f0824a20370404639e81f77,05/06/1998,2020-08-13_12h48.43.662,proactive2,2020.1.2,Linux x86_64,60,5f341be081b9052c55068110,5f35288a269f0a47df67b6ee,1,,,,,,diamond,,,,,,0,57,57,48,1,5,1,,,,,,,,,,,,,,,,,,,,,,,,,,,,,,,,,,,,,,,,,,,,,,,,,,,,,,,,,,,,,,,,,,,,,,,,,,,,,,,,,,,,,,,,,,,,,,,,,,,
,,,,,,,,,,stimuli/images/PICTURE_504.png,YEAR,5f0824a20370404639e81f77,05/06/1998,2020-08-13_12h48.43.662,proactive2,2020.1.2,Linux x86_64,60,5f341be081b9052c55068110,5f35288a269f0a47df67b6ee,1,,,,,,wheel,,,,,,0,58,58,13,1,2,1,,,,,,,,,,,,,,,,,,,,,,,,,,,,,,,,,,,,,,,,,,,,,,,,,,,,,,,,,,,,,,,,,,,,,,,,,,,,,,,,,,,,,,,,,,,,,,,,,,,
,,PENNY,12.59947,1,,,,,,stimuli/images/PICTURE_685.png,PENNY,5f0824a20370404639e81f77,05/06/1998,2020-08-13_12h48.43.662,proactive2,2020.1.2,Linux x86_64,60,5f341be081b9052c55068110,5f35288a269f0a47df67b6ee,1,,,,,,goose,,,,,,,,,,,1,1,0,0,0,4,1,,,,,,,,,,,,,,,,,,,,,,,,,,,,,,,,,,,,,,,,,,,,,,,,,,,,,,,,,,,,,,,,,,,,,,,,,,,,,,,,,,,,,,,,,,,,,,
,,?,0.00198,0,,,,,,stimuli/images/PICTURE_95.png,MILLER,5f0824a20370404639e81f77,05/06/1998,2020-08-13_12h48.43.662,proactive2,2020.1.2,Linux x86_64,60,5f341be081b9052c55068110,5f35288a269f0a47df67b6ee,1,,,,,,suitcase,,,,,,,,,,,6,1,0,1,1,56,1,,,,,,,,,,,,,,,,,,,,,,,,,,,,,,,,,,,,,,,,,,,,,,,,,,,,,,,,,,,,,,,,,,,,,,,,,,,,,,,,,,,,,,,,,,,,,,
,,?,0.00208,0,,,,,,stimuli/images/PICTURE_708.png,RECORD,5f0824a20370404639e81f77,05/06/1998,2020-08-13_12h48.43.662,proactive2,2020.1.2,Linux x86_64,60,5f341be081b9052c55068110,5f35288a269f0a47df67b6ee,1,,,,,,monkey,,,,,,,,,,,6,1,0,2,2,58,1,,,,,,,,,,,,,,,,,,,,,,,,,,,,,,,,,,,,,,,,,,,,,,,,,,,,,,,,,,,,,,,,,,,,,,,,,,,,,,,,,,,,,,,,,,,,,,
,,?,0.001635,0,,,,,,stimuli/images/PICTURE_504.png,ARTIST,5f0824a20370404639e81f77,05/06/1998,2020-08-13_12h48.43.662,proactive2,2020.1.2,Linux x86_64,60,5f341be081b9052c55068110,5f35288a269f0a47df67b6ee,1,,,,,,wheel,,,,,,,,,,,5,1,0,3,3,49,1,,,,,,,,,,,,,,,,,,,,,,,,,,,,,,,,,,,,,,,,,,,,,,,,,,,,,,,,,,,,,,,,,,,,,,,,,,,,,,,,,,,,,,,,,,,,,,
,,?,0.00256,0,,,,,,stimuli/images/PICTURE_42.png,BOYS,5f0824a20370404639e81f77,05/06/1998,2020-08-13_12h48.43.662,proactive2,2020.1.2,Linux x86_64,60,5f341be081b9052c55068110,5f35288a269f0a47df67b6ee,1,,,,,,pear,,,,,,,,,,,6,1,0,4,4,55,1,,,,,,,,,,,,,,,,,,,,,,,,,,,,,,,,,,,,,,,,,,,,,,,,,,,,,,,,,,,,,,,,,,,,,,,,,,,,,,,,,,,,,,,,,,,,,,
,,?,0.00157,0,,,,,,stimuli/images/PICTURE_655.png,TOILET,5f0824a20370404639e81f77,05/06/1998,2020-08-13_12h48.43.662,proactive2,2020.1.2,Linux x86_64,60,5f341be081b9052c55068110,5f35288a269f0a47df67b6ee,1,,,,,,megaphone,,,,,,,,,,,2,1,0,5,5,12,1,,,,,,,,,,,,,,,,,,,,,,,,,,,,,,,,,,,,,,,,,,,,,,,,,,,,,,,,,,,,,,,,,,,,,,,,,,,,,,,,,,,,,,,,,,,,,,
,,CANDY,1.95997,1,,,,,,stimuli/images/PICTURE_380.png,CANDY,5f0824a20370404639e81f77,05/06/1998,2020-08-13_12h48.43.662,proactive2,2020.1.2,Linux x86_64,60,5f341be081b9052c55068110,5f35288a269f0a47df67b6ee,1,,,,,,gorilla,,,,,,,,,,,1,1,0,6,6,0,1,,,,,,,,,,,,,,,,,,,,,,,,,,,,,,,,,,,,,,,,,,,,,,,,,,,,,,,,,,,,,,,,,,,,,,,,,,,,,,,,,,,,,,,,,,,,,,
,,?,0.00251,0,,,,,,stimuli/images/PICTURE_32.png,PILLS,5f0824a20370404639e81f77,05/06/1998,2020-08-13_12h48.43.662,proactive2,2020.1.2,Linux x86_64,60,5f341be081b9052c55068110,5f35288a269f0a47df67b6ee,1,,,,,,crown,,,,,,,,,,,2,1,0,7,7,18,1,,,,,,,,,,,,,,,,,,,,,,,,,,,,,,,,,,,,,,,,,,,,,,,,,,,,,,,,,,,,,,,,,,,,,,,,,,,,,,,,,,,,,,,,,,,,,,
,,?,0.00222,0,,,,,,stimuli/images/PICTURE_177.png,WRITER,5f0824a20370404639e81f77,05/06/1998,2020-08-13_12h48.43.662,proactive2,2020.1.2,Linux x86_64,60,5f341be081b9052c55068110,5f35288a269f0a47df67b6ee,1,,,,,,mushroom,,,,,,,,,,,5,1,0,8,8,41,1,,,,,,,,,,,,,,,,,,,,,,,,,,,,,,,,,,,,,,,,,,,,,,,,,,,,,,,,,,,,,,,,,,,,,,,,,,,,,,,,,,,,,,,,,,,,,,
,,?,0.0021,0,,,,,,stimuli/images/PICTURE_32.png,KIND,5f0824a20370404639e81f77,05/06/1998,2020-08-13_12h48.43.662,proactive2,2020.1.2,Linux x86_64,60,5f341be081b9052c55068110,5f35288a269f0a47df67b6ee,1,,,,,,crown,,,,,,,,,,,4,1,0,9,9,35,1,,,,,,,,,,,,,,,,,,,,,,,,,,,,,,,,,,,,,,,,,,,,,,,,,,,,,,,,,,,,,,,,,,,,,,,,,,,,,,,,,,,,,,,,,,,,,,
,,?,0.001625,0,,,,,,stimuli/images/PICTURE_68.png,ROOF,5f0824a20370404639e81f77,05/06/1998,2020-08-13_12h48.43.662,proactive2,2020.1.2,Linux x86_64,60,5f341be081b9052c55068110,5f35288a269f0a47df67b6ee,1,,,,,,candle,,,,,,,,,,,4,1,0,10,10,38,1,,,,,,,,,,,,,,,,,,,,,,,,,,,,,,,,,,,,,,,,,,,,,,,,,,,,,,,,,,,,,,,,,,,,,,,,,,,,,,,,,,,,,,,,,,,,,,
,,?,0.001495,0,,,,,,stimuli/images/PICTURE_405.png,YEAR,5f0824a20370404639e81f77,05/06/1998,2020-08-13_12h48.43.662,proactive2,2020.1.2,Linux x86_64,60,5f341be081b9052c55068110,5f35288a269f0a47df67b6ee,1,,,,,,anchor,,,,,,,,,,,4,1,0,11,11,34,1,,,,,,,,,,,,,,,,,,,,,,,,,,,,,,,,,,,,,,,,,,,,,,,,,,,,,,,,,,,,,,,,,,,,,,,,,,,,,,,,,,,,,,,,,,,,,,
,,?,0.00151,0,,,,,,stimuli/images/PICTURE_208.png,SYSTEM,5f0824a20370404639e81f77,05/06/1998,2020-08-13_12h48.43.662,proactive2,2020.1.2,Linux x86_64,60,5f341be081b9052c55068110,5f35288a269f0a47df67b6ee,1,,,,,,microphone,,,,,,,,,,,4,1,0,12,12,32,1,,,,,,,,,,,,,,,,,,,,,,,,,,,,,,,,,,,,,,,,,,,,,,,,,,,,,,,,,,,,,,,,,,,,,,,,,,,,,,,,,,,,,,,,,,,,,,
,,?,0.001485,0,,,,,,stimuli/images/PICTURE_449.png,DUDE,5f0824a20370404639e81f77,05/06/1998,2020-08-13_12h48.43.662,proactive2,2020.1.2,Linux x86_64,60,5f341be081b9052c55068110,5f35288a269f0a47df67b6ee,1,,,,,,bench,,,,,,,,,,,2,1,0,13,13,17,1,,,,,,,,,,,,,,,,,,,,,,,,,,,,,,,,,,,,,,,,,,,,,,,,,,,,,,,,,,,,,,,,,,,,,,,,,,,,,,,,,,,,,,,,,,,,,,
,,?,0.001605,0,,,,,,stimuli/images/PICTURE_469.png,AGENT,5f0824a20370404639e81f77,05/06/1998,2020-08-13_12h48.43.662,proactive2,2020.1.2,Linux x86_64,60,5f341be081b9052c55068110,5f35288a269f0a47df67b6ee,1,,,,,,stool,,,,,,,,,,,2,1,0,14,14,16,1,,,,,,,,,,,,,,,,,,,,,,,,,,,,,,,,,,,,,,,,,,,,,,,,,,,,,,,,,,,,,,,,,,,,,,,,,,,,,,,,,,,,,,,,,,,,,,
,,?,0.00192,0,,,,,,stimuli/images/PICTURE_297.png,RIVER,5f0824a20370404639e81f77,05/06/1998,2020-08-13_12h48.43.662,proactive2,2020.1.2,Linux x86_64,60,5f341be081b9052c55068110,5f35288a269f0a47df67b6ee,1,,,,,,aeroplane,,,,,,,,,,,4,1,0,15,15,39,1,,,,,,,,,,,,,,,,,,,,,,,,,,,,,,,,,,,,,,,,,,,,,,,,,,,,,,,,,,,,,,,,,,,,,,,,,,,,,,,,,,,,,,,,,,,,,,
,,LOTS,3.98949,1,,,,,,stimuli/images/PICTURE_296.png,LOTS,5f0824a20370404639e81f77,05/06/1998,2020-08-13_12h48.43.662,proactive2,2020.1.2,Linux x86_64,60,5f341be081b9052c55068110,5f35288a269f0a47df67b6ee,1,,,,,,bolt,,,,,,,,,,,1,1,0,16,16,9,1,,,,,,,,,,,,,,,,,,,,,,,,,,,,,,,,,,,,,,,,,,,,,,,,,,,,,,,,,,,,,,,,,,,,,,,,,,,,,,,,,,,,,,,,,,,,,,
,,?,0.002445,0,,,,,,stimuli/images/PICTURE_405.png,PLENTY,5f0824a20370404639e81f77,05/06/1998,2020-08-13_12h48.43.662,proactive2,2020.1.2,Linux x86_64,60,5f341be081b9052c55068110,5f35288a269f0a47df67b6ee,1,,,,,,anchor,,,,,,,,,,,3,1,0,17,17,23,1,,,,,,,,,,,,,,,,,,,,,,,,,,,,,,,,,,,,,,,,,,,,,,,,,,,,,,,,,,,,,,,,,,,,,,,,,,,,,,,,,,,,,,,,,,,,,,
,,?,0.00157,0,,,,,,stimuli/images/PICTURE_339.png,CLIENT,5f0824a20370404639e81f77,05/06/1998,2020-08-13_12h48.43.662,proactive2,2020.1.2,Linux x86_64,60,5f341be081b9052c55068110,5f35288a269f0a47df67b6ee,1,,,,,,backpack,,,,,,,,,,,2,1,0,18,18,11,1,,,,,,,,,,,,,,,,,,,,,,,,,,,,,,,,,,,,,,,,,,,,,,,,,,,,,,,,,,,,,,,,,,,,,,,,,,,,,,,,,,,,,,,,,,,,,,
,,?,0.00153,0,,,,,,stimuli/images/PICTURE_147.png,YEAR,5f0824a20370404639e81f77,05/06/1998,2020-08-13_12h48.43.662,proactive2,2020.1.2,Linux x86_64,60,5f341be081b9052c55068110,5f35288a269f0a47df67b6ee,1,,,,,,hanger,,,,,,,,,,,3,1,0,19,19,21,1,,,,,,,,,,,,,,,,,,,,,,,,,,,,,,,,,,,,,,,,,,,,,,,,,,,,,,,,,,,,,,,,,,,,,,,,,,,,,,,,,,,,,,,,,,,,,,
,,?,0.003675,0,,,,,,stimuli/images/PICTURE_564.png,BATH,5f0824a20370404639e81f77,05/06/1998,2020-08-13_12h48.43.662,proactive2,2020.1.2,Linux x86_64,60,5f341be081b9052c55068110,5f35288a269f0a47df67b6ee,1,,,,,,spoon,,,,,,,,,,,3,1,0,20,20,26,1,,,,,,,,,,,,,,,,,,,,,,,,,,,,,,,,,,,,,,,,,,,,,,,,,,,,,,,,,,,,,,,,,,,,,,,,,,,,,,,,,,,,,,,,,,,,,,
,,?,0.00145,0,,,,,,stimuli/images/PICTURE_203.png,GODS,5f0824a20370404639e81f77,05/06/1998,2020-08-13_12h48.43.662,proactive2,2020.1.2,Linux x86_64,60,5f341be081b9052c55068110,5f35288a269f0a47df67b6ee,1,,,,,,cap,,,,,,,,,,,4,1,0,21,21,30,1,,,,,,,,,,,,,,,,,,,,,,,,,,,,,,,,,,,,,,,,,,,,,,,,,,,,,,,,,,,,,,,,,,,,,,,,,,,,,,,,,,,,,,,,,,,,,,
,,?,0.00096,0,,,,,,stimuli/images/PICTURE_340.png,VALLEY,5f0824a20370404639e81f77,05/06/1998,2020-08-13_12h48.43.662,proactive2,2020.1.2,Linux x86_64,60,5f341be081b9052c55068110,5f35288a269f0a47df67b6ee,1,,,,,,mirror,,,,,,,,,,,6,1,0,22,22,54,1,,,,,,,,,,,,,,,,,,,,,,,,,,,,,,,,,,,,,,,,,,,,,,,,,,,,,,,,,,,,,,,,,,,,,,,,,,,,,,,,,,,,,,,,,,,,,,
,,?,0.000895,0,,,,,,stimuli/images/PICTURE_467.png,POLICY,5f0824a20370404639e81f77,05/06/1998,2020-08-13_12h48.43.662,proactive2,2020.1.2,Linux x86_64,60,5f341be081b9052c55068110,5f35288a269f0a47df67b6ee,1,,,,,,peg,,,,,,,,,,,6,1,0,23,23,53,1,,,,,,,,,,,,,,,,,,,,,,,,,,,,,,,,,,,,,,,,,,,,,,,,,,,,,,,,,,,,,,,,,,,,,,,,,,,,,,,,,,,,,,,,,,,,,,
,,BOYS,7.00244,1,,,,,,stimuli/images/PICTURE_95.png,BOYS,5f0824a20370404639e81f77,05/06/1998,2020-08-13_12h48.43.662,proactive2,2020.1.2,Linux x86_64,60,5f341be081b9052c55068110,5f35288a269f0a47df67b6ee,1,,,,,,suitcase,,,,,,,,,,,1,1,0,24,24,1,1,,,,,,,,,,,,,,,,,,,,,,,,,,,,,,,,,,,,,,,,,,,,,,,,,,,,,,,,,,,,,,,,,,,,,,,,,,,,,,,,,,,,,,,,,,,,,,
,,?,0.002565,0,,,,,,stimuli/images/PICTURE_383.png,SERIES,5f0824a20370404639e81f77,05/06/1998,2020-08-13_12h48.43.662,proactive2,2020.1.2,Linux x86_64,60,5f341be081b9052c55068110,5f35288a269f0a47df67b6ee,1,,,,,,coin,,,,,,,,,,,5,1,0,25,25,46,1,,,,,,,,,,,,,,,,,,,,,,,,,,,,,,,,,,,,,,,,,,,,,,,,,,,,,,,,,,,,,,,,,,,,,,,,,,,,,,,,,,,,,,,,,,,,,,
,,?,0.00215,0,,,,,,stimuli/images/PICTURE_308.png,FAMILY,5f0824a20370404639e81f77,05/06/1998,2020-08-13_12h48.43.662,proactive2,2020.1.2,Linux x86_64,60,5f341be081b9052c55068110,5f35288a269f0a47df67b6ee,1,,,,,,dice,,,,,,,,,,,4,1,0,26,26,36,1,,,,,,,,,,,,,,,,,,,,,,,,,,,,,,,,,,,,,,,,,,,,,,,,,,,,,,,,,,,,,,,,,,,,,,,,,,,,,,,,,,,,,,,,,,,,,,
,,?,0.002055,0,,,,,,stimuli/images/PICTURE_95.png,HONEY,5f0824a20370404639e81f77,05/06/1998,2020-08-13_12h48.43.662,proactive2,2020.1.2,Linux x86_64,60,5f341be081b9052c55068110,5f35288a269f0a47df67b6ee,1,,,,,,suitcase,,,,,,,,,,,5,1,0,27,27,44,1,,,,,,,,,,,,,,,,,,,,,,,,,,,,,,,,,,,,,,,,,,,,,,,,,,,,,,,,,,,,,,,,,,,,,,,,,,,,,,,,,,,,,,,,,,,,,,
,,?,0.001585,0,,,,,,stimuli/images/PICTURE_85.png,TOILET,5f0824a20370404639e81f77,05/06/1998,2020-08-13_12h48.43.662,proactive2,2020.1.2,Linux x86_64,60,5f341be081b9052c55068110,5f35288a269f0a47df67b6ee,1,,,,,,diamond,,,,,,,,,,,5,1,0,28,28,48,1,,,,,,,,,,,,,,,,,,,,,,,,,,,,,,,,,,,,,,,,,,,,,,,,,,,,,,,,,,,,,,,,,,,,,,,,,,,,,,,,,,,,,,,,,,,,,,
,,?,0.001445,0,,,,,,stimuli/images/PICTURE_285.png,LIFE,5f0824a20370404639e81f77,05/06/1998,2020-08-13_12h48.43.662,proactive2,2020.1.2,Linux x86_64,60,5f341be081b9052c55068110,5f35288a269f0a47df67b6ee,1,,,,,,carrot,,,,,,,,,,,4,1,0,29,29,33,1,,,,,,,,,,,,,,,,,,,,,,,,,,,,,,,,,,,,,,,,,,,,,,,,,,,,,,,,,,,,,,,,,,,,,,,,,,,,,,,,,,,,,,,,,,,,,,
,,?,0.001675,0,,,,,,stimuli/images/PICTURE_675.png,SALE,5f0824a20370404639e81f77,05/06/1998,2020-08-13_12h48.43.662,proactive2,2020.1.2,Linux x86_64,60,5f341be081b9052c55068110,5f35288a269f0a47df67b6ee,1,,,,,,windmill,,,,,,,,,,,5,1,0,30,30,47,1,,,,,,,,,,,,,,,,,,,,,,,,,,,,,,,,,,,,,,,,,,,,,,,,,,,,,,,,,,,,,,,,,,,,,,,,,,,,,,,,,,,,,,,,,,,,,,
,,?,0.00143,0,,,,,,stimuli/images/PICTURE_108.png,POLICY,5f0824a20370404639e81f77,05/06/1998,2020-08-13_12h48.43.662,proactive2,2020.1.2,Linux x86_64,60,5f341be081b9052c55068110,5f35288a269f0a47df67b6ee,1,,,,,,calendar,,,,,,,,,,,3,1,0,31,31,22,1,,,,,,,,,,,,,,,,,,,,,,,,,,,,,,,,,,,,,,,,,,,,,,,,,,,,,,,,,,,,,,,,,,,,,,,,,,,,,,,,,,,,,,,,,,,,,,
,,?,0.001905,0,,,,,,stimuli/images/PICTURE_504.png,YEAR,5f0824a20370404639e81f77,05/06/1998,2020-08-13_12h48.43.662,proactive2,2020.1.2,Linux x86_64,60,5f341be081b9052c55068110,5f35288a269f0a47df67b6ee,1,,,,,,wheel,,,,,,,,,,,2,1,0,32,32,13,1,,,,,,,,,,,,,,,,,,,,,,,,,,,,,,,,,,,,,,,,,,,,,,,,,,,,,,,,,,,,,,,,,,,,,,,,,,,,,,,,,,,,,,,,,,,,,,
,,?,0.002015,0,,,,,,stimuli/images/PICTURE_491.png,GLASS,5f0824a20370404639e81f77,05/06/1998,2020-08-13_12h48.43.662,proactive2,2020.1.2,Linux x86_64,60,5f341be081b9052c55068110,5f35288a269f0a47df67b6ee,1,,,,,,rug,,,,,,,,,,,2,1,0,33,33,14,1,,,,,,,,,,,,,,,,,,,,,,,,,,,,,,,,,,,,,,,,,,,,,,,,,,,,,,,,,,,,,,,,,,,,,,,,,,,,,,,,,,,,,,,,,,,,,,
,,WOMEN,1.74348,1,,,,,,stimuli/images/PICTURE_147.png,WOMEN,5f0824a20370404639e81f77,05/06/1998,2020-08-13_12h48.43.662,proactive2,2020.1.2,Linux x86_64,60,5f341be081b9052c55068110,5f35288a269f0a47df67b6ee,1,,,,,,hanger,,,,,,,,,,,1,1,0,34,34,7,1,,,,,,,,,,,,,,,,,,,,,,,,,,,,,,,,,,,,,,,,,,,,,,,,,,,,,,,,,,,,,,,,,,,,,,,,,,,,,,,,,,,,,,,,,,,,,,
,,?,0.00183,0,,,,,,stimuli/images/PICTURE_327.png,CASINO,5f0824a20370404639e81f77,05/06/1998,2020-08-13_12h48.43.662,proactive2,2020.1.2,Linux x86_64,60,5f341be081b9052c55068110,5f35288a269f0a47df67b6ee,1,,,,,,helmet,,,,,,,,,,,3,1,0,35,35,20,1,,,,,,,,,,,,,,,,,,,,,,,,,,,,,,,,,,,,,,,,,,,,,,,,,,,,,,,,,,,,,,,,,,,,,,,,,,,,,,,,,,,,,,,,,,,,,,
,,?,0.001495,0,,,,,,stimuli/images/PICTURE_340.png,LETTER,5f0824a20370404639e81f77,05/06/1998,2020-08-13_12h48.43.662,proactive2,2020.1.2,Linux x86_64,60,5f341be081b9052c55068110,5f35288a269f0a47df67b6ee,1,,,,,,mirror,,,,,,,,,,,3,1,0,36,36,24,1,,,,,,,,,,,,,,,,,,,,,,,,,,,,,,,,,,,,,,,,,,,,,,,,,,,,,,,,,,,,,,,,,,,,,,,,,,,,,,,,,,,,,,,,,,,,,,
,,?,0.001415,0,,,,,,stimuli/images/PICTURE_750.png,HOTEL,5f0824a20370404639e81f77,05/06/1998,2020-08-13_12h48.43.662,proactive2,2020.1.2,Linux x86_64,60,5f341be081b9052c55068110,5f35288a269f0a47df67b6ee,1,,,,,,kettle,,,,,,,,,,,3,1,0,37,37,27,1,,,,,,,,,,,,,,,,,,,,,,,,,,,,,,,,,,,,,,,,,,,,,,,,,,,,,,,,,,,,,,,,,,,,,,,,,,,,,,,,,,,,,,,,,,,,,,
,,?,0.001445,0,,,,,,stimuli/images/PICTURE_68.png,MILE,5f0824a20370404639e81f77,05/06/1998,2020-08-13_12h48.43.662,proactive2,2020.1.2,Linux x86_64,60,5f341be081b9052c55068110,5f35288a269f0a47df67b6ee,1,,,,,,candle,,,,,,,,,,,6,1,0,38,38,51,1,,,,,,,,,,,,,,,,,,,,,,,,,,,,,,,,,,,,,,,,,,,,,,,,,,,,,,,,,,,,,,,,,,,,,,,,,,,,,,,,,,,,,,,,,,,,,,
,,?,0.00332,0,,,,,,stimuli/images/PICTURE_233.png,LOTS,5f0824a20370404639e81f77,05/06/1998,2020-08-13_12h48.43.662,proactive2,2020.1.2,Linux x86_64,60,5f341be081b9052c55068110,5f35288a269f0a47df67b6ee,1,,,,,,salt,,,,,,,,,,,5,1,0,39,39,42,1,,,,,,,,,,,,,,,,,,,,,,,,,,,,,,,,,,,,,,,,,,,,,,,,,,,,,,,,,,,,,,,,,,,,,,,,,,,,,,,,,,,,,,,,,,,,,,
,,?,0.00142,0,,,,,,stimuli/images/PICTURE_654.png,MONTH,5f0824a20370404639e81f77,05/06/1998,2020-08-13_12h48.43.662,proactive2,2020.1.2,Linux x86_64,60,5f341be081b9052c55068110,5f35288a269f0a47df67b6ee,1,,,,,,pencil,,,,,,,,,,,3,1,0,40,40,29,1,,,,,,,,,,,,,,,,,,,,,,,,,,,,,,,,,,,,,,,,,,,,,,,,,,,,,,,,,,,,,,,,,,,,,,,,,,,,,,,,,,,,,,,,,,,,,,
,,?,0.000935,0,,,,,,stimuli/images/PICTURE_504.png,COPS,5f0824a20370404639e81f77,05/06/1998,2020-08-13_12h48.43.662,proactive2,2020.1.2,Linux x86_64,60,5f341be081b9052c55068110,5f35288a269f0a47df67b6ee,1,,,,,,wheel,,,,,,,,,,,6,1,0,41,41,52,1,,,,,,,,,,,,,,,,,,,,,,,,,,,,,,,,,,,,,,,,,,,,,,,,,,,,,,,,,,,,,,,,,,,,,,,,,,,,,,,,,,,,,,,,,,,,,,
,,?,0.001035,0,,,,,,stimuli/images/PICTURE_57.png,MOMENT,5f0824a20370404639e81f77,05/06/1998,2020-08-13_12h48.43.662,proactive2,2020.1.2,Linux x86_64,60,5f341be081b9052c55068110,5f35288a269f0a47df67b6ee,1,,,,,,stamp,,,,,,,,,,,4,1,0,42,42,37,1,,,,,,,,,,,,,,,,,,,,,,,,,,,,,,,,,,,,,,,,,,,,,,,,,,,,,,,,,,,,,,,,,,,,,,,,,,,,,,,,,,,,,,,,,,,,,,
,,?,0.000795,0,,,,,,stimuli/images/PICTURE_667.png,RIVER,5f0824a20370404639e81f77,05/06/1998,2020-08-13_12h48.43.662,proactive2,2020.1.2,Linux x86_64,60,5f341be081b9052c55068110,5f35288a269f0a47df67b6ee,1,,,,,,daisy,,,,,,,,,,,2,1,0,43,43,10,1,,,,,,,,,,,,,,,,,,,,,,,,,,,,,,,,,,,,,,,,,,,,,,,,,,,,,,,,,,,,,,,,,,,,,,,,,,,,,,,,,,,,,,,,,,,,,,
,,?,0.00111,0,,,,,,stimuli/images/PICTURE_403.png,TOILET,5f0824a20370404639e81f77,05/06/1998,2020-08-13_12h48.43.662,proactive2,2020.1.2,Linux x86_64,60,5f341be081b9052c55068110,5f35288a269f0a47df67b6ee,1,,,,,,cathedral,,,,,,,,,,,3,1,0,44,44,25,1,,,,,,,,,,,,,,,,,,,,,,,,,,,,,,,,,,,,,,,,,,,,,,,,,,,,,,,,,,,,,,,,,,,,,,,,,,,,,,,,,,,,,,,,,,,,,,
,,?,0.00064,0,,,,,,stimuli/images/PICTURE_296.png,LIFE,5f0824a20370404639e81f77,05/06/1998,2020-08-13_12h48.43.662,proactive2,2020.1.2,Linux x86_64,60,5f341be081b9052c55068110,5f35288a269f0a47df67b6ee,1,,,,,,bolt,,,,,,,,,,,6,1,0,45,45,57,1,,,,,,,,,,,,,,,,,,,,,,,,,,,,,,,,,,,,,,,,,,,,,,,,,,,,,,,,,,,,,,,,,,,,,,,,,,,,,,,,,,,,,,,,,,,,,,
,,?,0.000605,0,,,,,,stimuli/images/PICTURE_403.png,RIVER,5f0824a20370404639e81f77,05/06/1998,2020-08-13_12h48.43.662,proactive2,2020.1.2,Linux x86_64,60,5f341be081b9052c55068110,5f35288a269f0a47df67b6ee,1,,,,,,cathedral,,,,,,,,,,,5,1,0,46,46,40,1,,,,,,,,,,,,,,,,,,,,,,,,,,,,,,,,,,,,,,,,,,,,,,,,,,,,,,,,,,,,,,,,,,,,,,,,,,,,,,,,,,,,,,,,,,,,,,
,,?,0.001535,0,,,,,,stimuli/images/PICTURE_487.png,GIRL,5f0824a20370404639e81f77,05/06/1998,2020-08-13_12h48.43.662,proactive2,2020.1.2,Linux x86_64,60,5f341be081b9052c55068110,5f35288a269f0a47df67b6ee,1,,,,,,basket,,,,,,,,,,,5,1,0,47,47,45,1,,,,,,,,,,,,,,,,,,,,,,,,,,,,,,,,,,,,,,,,,,,,,,,,,,,,,,,,,,,,,,,,,,,,,,,,,,,,,,,,,,,,,,,,,,,,,,
,,?,0.000465,0,,,,,,stimuli/images/PICTURE_108.png,FLIGHT,5f0824a20370404639e81f77,05/06/1998,2020-08-13_12h48.43.662,proactive2,2020.1.2,Linux x86_64,60,5f341be081b9052c55068110,5f35288a269f0a47df67b6ee,1,,,,,,calendar,,,,,,,,,,,6,1,0,48,48,59,1,,,,,,,,,,,,,,,,,,,,,,,,,,,,,,,,,,,,,,,,,,,,,,,,,,,,,,,,,,,,,,,,,,,,,,,,,,,,,,,,,,,,,,,,,,,,,,
,,NATION,3.240865,1,,,,,,stimuli/images/PICTURE_85.png,NATION,5f0824a20370404639e81f77,05/06/1998,2020-08-13_12h48.43.662,proactive2,2020.1.2,Linux x86_64,60,5f341be081b9052c55068110,5f35288a269f0a47df67b6ee,1,,,,,,diamond,,,,,,,,,,,1,1,0,49,49,5,1,,,,,,,,,,,,,,,,,,,,,,,,,,,,,,,,,,,,,,,,,,,,,,,,,,,,,,,,,,,,,,,,,,,,,,,,,,,,,,,,,,,,,,,,,,,,,,
,,NIGHT,4.79749,1,,,,,,stimuli/images/PICTURE_203.png,NIGHT,5f0824a20370404639e81f77,05/06/1998,2020-08-13_12h48.43.662,proactive2,2020.1.2,Linux x86_64,60,5f341be081b9052c55068110,5f35288a269f0a47df67b6ee,1,,,,,,cap,,,,,,,,,,,1,1,0,50,50,2,1,,,,,,,,,,,,,,,,,,,,,,,,,,,,,,,,,,,,,,,,,,,,,,,,,,,,,,,,,,,,,,,,,,,,,,,,,,,,,,,,,,,,,,,,,,,,,,
,,SERIES,2.248325,1,,,,,,stimuli/images/PICTURE_327.png,SERIES,5f0824a20370404639e81f77,05/06/1998,2020-08-13_12h48.43.662,proactive2,2020.1.2,Linux x86_64,60,5f341be081b9052c55068110,5f35288a269f0a47df67b6ee,1,,,,,,helmet,,,,,,,,,,,1,1,0,51,51,3,1,,,,,,,,,,,,,,,,,,,,,,,,,,,,,,,,,,,,,,,,,,,,,,,,,,,,,,,,,,,,,,,,,,,,,,,,,,,,,,,,,,,,,,,,,,,,,,
,,?,0.00214,0,,,,,,stimuli/images/PICTURE_380.png,HONEY,5f0824a20370404639e81f77,05/06/1998,2020-08-13_12h48.43.662,proactive2,2020.1.2,Linux x86_64,60,5f341be081b9052c55068110,5f35288a269f0a47df67b6ee,1,,,,,,gorilla,,,,,,,,,,,2,1,0,52,52,19,1,,,,,,,,,,,,,,,,,,,,,,,,,,,,,,,,,,,,,,,,,,,,,,,,,,,,,,,,,,,,,,,,,,,,,,,,,,,,,,,,,,,,,,,,,,,,,,
,,?,0.001425,0,,,,,,stimuli/images/PICTURE_744.png,WEAPON,5f0824a20370404639e81f77,05/06/1998,2020-08-13_12h48.43.662,proactive2,2020.1.2,Linux x86_64,60,5f341be081b9052c55068110,5f35288a269f0a47df67b6ee,1,,,,,,ring,,,,,,,,,,,6,1,0,53,53,50,1,,,,,,,,,,,,,,,,,,,,,,,,,,,,,,,,,,,,,,,,,,,,,,,,,,,,,,,,,,,,,,,,,,,,,,,,,,,,,,,,,,,,,,,,,,,,,,
,,?,0.00138,0,,,,,,stimuli/images/PICTURE_2.png,FLIGHT,5f0824a20370404639e81f77,05/06/1998,2020-08-13_12h48.43.662,proactive2,2020.1.2,Linux x86_64,60,5f341be081b9052c55068110,5f35288a269f0a47df67b6ee,1,,,,,,tyre,,,,,,,,,,,2,1,0,54,54,15,1,,,,,,,,,,,,,,,,,,,,,,,,,,,,,,,,,,,,,,,,,,,,,,,,,,,,,,,,,,,,,,,,,,,,,,,,,,,,,,,,,,,,,,,,,,,,,,
,,?,0.00143,0,,,,,,stimuli/images/PICTURE_403.png,WRITER,5f0824a20370404639e81f77,05/06/1998,2020-08-13_12h48.43.662,proactive2,2020.1.2,Linux x86_64,60,5f341be081b9052c55068110,5f35288a269f0a47df67b6ee,1,,,,,,cathedral,,,,,,,,,,,4,1,0,55,55,31,1,,,,,,,,,,,,,,,,,,,,,,,,,,,,,,,,,,,,,,,,,,,,,,,,,,,,,,,,,,,,,,,,,,,,,,,,,,,,,,,,,,,,,,,,,,,,,,
,,?,0.00197,0,,,,,,stimuli/images/PICTURE_677.png,APPLE,5f0824a20370404639e81f77,05/06/1998,2020-08-13_12h48.43.662,proactive2,2020.1.2,Linux x86_64,60,5f341be081b9052c55068110,5f35288a269f0a47df67b6ee,1,,,,,,map,,,,,,,,,,,5,1,0,56,56,43,1,,,,,,,,,,,,,,,,,,,,,,,,,,,,,,,,,,,,,,,,,,,,,,,,,,,,,,,,,,,,,,,,,,,,,,,,,,,,,,,,,,,,,,,,,,,,,,
,,RIVER,2.14595,1,,,,,,stimuli/images/PICTURE_491.png,RIVER,5f0824a20370404639e81f77,05/06/1998,2020-08-13_12h48.43.662,proactive2,2020.1.2,Linux x86_64,60,5f341be081b9052c55068110,5f35288a269f0a47df67b6ee,1,,,,,,rug,,,,,,,,,,,1,1,0,57,57,6,1,,,,,,,,,,,,,,,,,,,,,,,,,,,,,,,,,,,,,,,,,,,,,,,,,,,,,,,,,,,,,,,,,,,,,,,,,,,,,,,,,,,,,,,,,,,,,,
,,?,0.00194,0,,,,,,stimuli/images/PICTURE_383.png,WRITER,5f0824a20370404639e81f77,05/06/1998,2020-08-13_12h48.43.662,proactive2,2020.1.2,Linux x86_64,60,5f341be081b9052c55068110,5f35288a269f0a47df67b6ee,1,,,,,,coin,,,,,,,,,,,3,1,0,58,58,28,1,,,,,,,,,,,,,,,,,,,,,,,,,,,,,,,,,,,,,,,,,,,,,,,,,,,,,,,,,,,,,,,,,,,,,,,,,,,,,,,,,,,,,,,,,,,,,,
,,FRIENDS,1.694485,0,,,,,,stimuli/images/PICTURE_33.png,FRIEND,5f0824a20370404639e81f77,05/06/1998,2020-08-13_12h48.43.662,proactive2,2020.1.2,Linux x86_64,60,5f341be081b9052c55068110,5f35288a269f0a47df67b6ee,1,,,,,,frame,,,,,,,,,,,1,1,0,59,59,8,1,,,,,,,,,,,,,,,,,,,,,,,,,,,,,,,,,,,,,,,,,,,,,,,,,,,,,,,,,,,,,,,,,,,,,,,,,,,,,,,,,,,,,,,,,,,,,,
,,,,,,,,,,,,5f0824a20370404639e81f77,05/06/1998,2020-08-13_12h48.43.662,proactive2,2020.1.2,Linux x86_64,60,5f341be081b9052c55068110,5f35288a269f0a47df67b6ee,1,,,,,,,,,,,,,,,,,,,,,,,,0,0,0,1,1,stimuli/learn-block2.csv,,,,,,,,,,,,,,,,,,,,,,,,,,,,,,,,,,,,,,,,,,,,,,,,,,,,,,,,,,,,,,,,,,,,,,,,,,,,,,,,,,,,,,,,
,,,,,,,,,,stimuli/images/PICTURE_487.png,ROOF,5f0824a20370404639e81f77,05/06/1998,2020-08-13_12h48.43.662,proactive2,2020.1.2,Linux x86_64,60,5f341be081b9052c55068110,5f35288a269f0a47df67b6ee,1,,,,,,basket,,,,,,0,0,0,50,1,6,2,,,,,,,,,,,,,,,,,,,,,,,,,,,,,,,,,,,,,,,,,,,,,,,,,,,,,,,,,,,,,,,,,,,,,,,,,,,,,,,,,,,,,,,,,,,,,,,,,,,
,,,,,,,,,,stimuli/images/PICTURE_356.png,CANDY,5f0824a20370404639e81f77,05/06/1998,2020-08-13_12h48.43.662,proactive2,2020.1.2,Linux x86_64,60,5f341be081b9052c55068110,5f35288a269f0a47df67b6ee,1,,,,,,pawn,,,,,,0,1,1,46,1,5,2,,,,,,,,,,,,,,,,,,,,,,,,,,,,,,,,,,,,,,,,,,,,,,,,,,,,,,,,,,,,,,,,,,,,,,,,,,,,,,,,,,,,,,,,,,,,,,,,,,,
,,,,,,,,,,stimuli/images/PICTURE_285.png,PRINCE,5f0824a20370404639e81f77,05/06/1998,2020-08-13_12h48.43.662,proactive2,2020.1.2,Linux x86_64,60,5f341be081b9052c55068110,5f35288a269f0a47df67b6ee,1,,,,,,carrot,,,,,,0,2,2,20,1,3,2,,,,,,,,,,,,,,,,,,,,,,,,,,,,,,,,,,,,,,,,,,,,,,,,,,,,,,,,,,,,,,,,,,,,,,,,,,,,,,,,,,,,,,,,,,,,,,,,,,,
,,,,,,,,,,stimuli/images/PICTURE_33.png,COPS,5f0824a20370404639e81f77,05/06/1998,2020-08-13_12h48.43.662,proactive2,2020.1.2,Linux x86_64,60,5f341be081b9052c55068110,5f35288a269f0a47df67b6ee,1,,,,,,frame,,,,,,0,3,3,29,1,3,2,,,,,,,,,,,,,,,,,,,,,,,,,,,,,,,,,,,,,,,,,,,,,,,,,,,,,,,,,,,,,,,,,,,,,,,,,,,,,,,,,,,,,,,,,,,,,,,,,,,
,,,,,,,,,,stimuli/images/PICTURE_95.png,NIGHT,5f0824a20370404639e81f77,05/06/1998,2020-08-13_12h48.43.662,proactive2,2020.1.2,Linux x86_64,60,5f341be081b9052c55068110,5f35288a269f0a47df67b6ee,1,,,,,,suitcase,,,,,,0,4,4,37,1,4,2,,,,,,,,,,,,,,,,,,,,,,,,,,,,,,,,,,,,,,,,,,,,,,,,,,,,,,,,,,,,,,,,,,,,,,,,,,,,,,,,,,,,,,,,,,,,,,,,,,,
,,,,,,,,,,stimuli/images/PICTURE_32.png,LETTER,5f0824a20370404639e81f77,05/06/1998,2020-08-13_12h48.43.662,proactive2,2020.1.2,Linux x86_64,60,5f341be081b9052c55068110,5f35288a269f0a47df67b6ee,1,,,,,,crown,,,,,,0,5,5,56,1,6,2,,,,,,,,,,,,,,,,,,,,,,,,,,,,,,,,,,,,,,,,,,,,,,,,,,,,,,,,,,,,,,,,,,,,,,,,,,,,,,,,,,,,,,,,,,,,,,,,,,,
,,,,,,,,,,stimuli/images/PICTURE_68.png,KIND,5f0824a20370404639e81f77,05/06/1998,2020-08-13_12h48.43.662,proactive2,2020.1.2,Linux x86_64,60,5f341be081b9052c55068110,5f35288a269f0a47df67b6ee,1,,,,,,candle,,,,,,0,6,6,23,1,3,2,,,,,,,,,,,,,,,,,,,,,,,,,,,,,,,,,,,,,,,,,,,,,,,,,,,,,,,,,,,,,,,,,,,,,,,,,,,,,,,,,,,,,,,,,,,,,,,,,,,
,,,,,,,,,,stimuli/images/PICTURE_403.png,FAMILY,5f0824a20370404639e81f77,05/06/1998,2020-08-13_12h48.43.662,proactive2,2020.1.2,Linux x86_64,60,5f341be081b9052c55068110,5f35288a269f0a47df67b6ee,1,,,,,,cathedral,,,,,,0,7,7,9,1,1,2,,,,,,,,,,,,,,,,,,,,,,,,,,,,,,,,,,,,,,,,,,,,,,,,,,,,,,,,,,,,,,,,,,,,,,,,,,,,,,,,,,,,,,,,,,,,,,,,,,,
,,,,,,,,,,stimuli/images/PICTURE_208.png,SPIRIT,5f0824a20370404639e81f77,05/06/1998,2020-08-13_12h48.43.662,proactive2,2020.1.2,Linux x86_64,60,5f341be081b9052c55068110,5f35288a269f0a47df67b6ee,1,,,,,,microphone,,,,,,0,8,8,28,1,3,2,,,,,,,,,,,,,,,,,,,,,,,,,,,,,,,,,,,,,,,,,,,,,,,,,,,,,,,,,,,,,,,,,,,,,,,,,,,,,,,,,,,,,,,,,,,,,,,,,,,
,,,,,,,,,,stimuli/images/PICTURE_160.png,HOTEL,5f0824a20370404639e81f77,05/06/1998,2020-08-13_12h48.43.662,proactive2,2020.1.2,Linux x86_64,60,5f341be081b9052c55068110,5f35288a269f0a47df67b6ee,1,,,,,,wheelbarrow,,,,,,0,9,9,16,1,2,2,,,,,,,,,,,,,,,,,,,,,,,,,,,,,,,,,,,,,,,,,,,,,,,,,,,,,,,,,,,,,,,,,,,,,,,,,,,,,,,,,,,,,,,,,,,,,,,,,,,
,,,,,,,,,,stimuli/images/PICTURE_2.png,AREA,5f0824a20370404639e81f77,05/06/1998,2020-08-13_12h48.43.662,proactive2,2020.1.2,Linux x86_64,60,5f341be081b9052c55068110,5f35288a269f0a47df67b6ee,1,,,,,,tyre,,,,,,0,10,10,32,1,4,2,,,,,,,,,,,,,,,,,,,,,,,,,,,,,,,,,,,,,,,,,,,,,,,,,,,,,,,,,,,,,,,,,,,,,,,,,,,,,,,,,,,,,,,,,,,,,,,,,,,
,,,,,,,,,,stimuli/images/PICTURE_470.png,BEAUTY,5f0824a20370404639e81f77,05/06/1998,2020-08-13_12h48.43.662,proactive2,2020.1.2,Linux x86_64,60,5f341be081b9052c55068110,5f35288a269f0a47df67b6ee,1,,,,,,motorbike,,,,,,0,11,11,26,1,3,2,,,,,,,,,,,,,,,,,,,,,,,,,,,,,,,,,,,,,,,,,,,,,,,,,,,,,,,,,,,,,,,,,,,,,,,,,,,,,,,,,,,,,,,,,,,,,,,,,,,
,,,,,,,,,,stimuli/images/PICTURE_57.png,NATION,5f0824a20370404639e81f77,05/06/1998,2020-08-13_12h48.43.662,proactive2,2020.1.2,Linux x86_64,60,5f341be081b9052c55068110,5f35288a269f0a47df67b6ee,1,,,,,,stamp,,,,,,0,12,12,21,1,3,2,,,,,,,,,,,,,,,,,,,,,,,,,,,,,,,,,,,,,,,,,,,,,,,,,,,,,,,,,,,,,,,,,,,,,,,,,,,,,,,,,,,,,,,,,,,,,,,,,,,
,,,,,,,,,,stimuli/images/PICTURE_405.png,HOUSE,5f0824a20370404639e81f77,05/06/1998,2020-08-13_12h48.43.662,proactive2,2020.1.2,Linux x86_64,60,5f341be081b9052c55068110,5f35288a269f0a47df67b6ee,1,,,,,,anchor,,,,,,0,13,13,2,1,1,2,,,,,,,,,,,,,,,,,,,,,,,,,,,,,,,,,,,,,,,,,,,,,,,,,,,,,,,,,,,,,,,,,,,,,,,,,,,,,,,,,,,,,,,,,,,,,,,,,,,
,,,,,,,,,,stimuli/images/PICTURE_688.png,CLOCK,5f0824a20370404639e81f77,05/06/1998,2020-08-13_12h48.43.662,proactive2,2020.1.2,Linux x86_64,60,5f341be081b9052c55068110,5f35288a269f0a47df67b6ee,1,,,,,,runner,,,,,,0,14,14,42,1,5,2,,,,,,,,,,,,,,,,,,,,,,,,,,,,,,,,,,,,,,,,,,,,,,,,,,,,,,,,,,,,,,,,,,,,,,,,,,,,,,,,,,,,,,,,,,,,,,,,,,,
,,,,,,,,,,stimuli/images/PICTURE_215.png,FOOD,5f0824a20370404639e81f77,05/06/1998,2020-08-13_12h48.43.662,proactive2,2020.1.2,Linux x86_64,60,5f341be081b9052c55068110,5f35288a269f0a47df67b6ee,1,,,,,,boot,,,,,,0,15,15,5,1,1,2,,,,,,,,,,,,,,,,,,,,,,,,,,,,,,,,,,,,,,,,,,,,,,,,,,,,,,,,,,,,,,,,,,,,,,,,,,,,,,,,,,,,,,,,,,,,,,,,,,,
,,,,,,,,,,stimuli/images/PICTURE_296.png,CLOCK,5f0824a20370404639e81f77,05/06/1998,2020-08-13_12h48.43.662,proactive2,2020.1.2,Linux x86_64,60,5f341be081b9052c55068110,5f35288a269f0a47df67b6ee,1,,,,,,bolt,,,,,,0,16,16,18,1,2,2,,,,,,,,,,,,,,,,,,,,,,,,,,,,,,,,,,,,,,,,,,,,,,,,,,,,,,,,,,,,,,,,,,,,,,,,,,,,,,,,,,,,,,,,,,,,,,,,,,,
,,,,,,,,,,stimuli/images/PICTURE_405.png,JUNGLE,5f0824a20370404639e81f77,05/06/1998,2020-08-13_12h48.43.662,proactive2,2020.1.2,Linux x86_64,60,5f341be081b9052c55068110,5f35288a269f0a47df67b6ee,1,,,,,,anchor,,,,,,0,17,17,13,1,2,2,,,,,,,,,,,,,,,,,,,,,,,,,,,,,,,,,,,,,,,,,,,,,,,,,,,,,,,,,,,,,,,,,,,,,,,,,,,,,,,,,,,,,,,,,,,,,,,,,,,
,,,,,,,,,,stimuli/images/PICTURE_215.png,BOYS,5f0824a20370404639e81f77,05/06/1998,2020-08-13_12h48.43.662,proactive2,2020.1.2,Linux x86_64,60,5f341be081b9052c55068110,5f35288a269f0a47df67b6ee,1,,,,,,boot,,,,,,0,18,18,24,1,3,2,,,,,,,,,,,,,,,,,,,,,,,,,,,,,,,,,,,,,,,,,,,,,,,,,,,,,,,,,,,,,,,,,,,,,,,,,,,,,,,,,,,,,,,,,,,,,,,,,,,
,,,,,,,,,,stimuli/images/PICTURE_18.png,RIVER,5f0824a20370404639e81f77,05/06/1998,2020-08-13_12h48.43.662,proactive2,2020.1.2,Linux x86_64,60,5f341be081b9052c55068110,5f35288a269f0a47df67b6ee,1,,,,,,planet,,,,,,0,19,19,22,1,3,2,,,,,,,,,,,,,,,,,,,,,,,,,,,,,,,,,,,,,,,,,,,,,,,,,,,,,,,,,,,,,,,,,,,,,,,,,,,,,,,,,,,,,,,,,,,,,,,,,,,
,,,,,,,,,,stimuli/images/PICTURE_297.png,BODY,5f0824a20370404639e81f77,05/06/1998,2020-08-13_12h48.43.662,proactive2,2020.1.2,Linux x86_64,60,5f341be081b9052c55068110,5f35288a269f0a47df67b6ee,1,,,,,,aeroplane,,,,,,0,20,20,51,1,6,2,,,,,,,,,,,,,,,,,,,,,,,,,,,,,,,,,,,,,,,,,,,,,,,,,,,,,,,,,,,,,,,,,,,,,,,,,,,,,,,,,,,,,,,,,,,,,,,,,,,
,,,,,,,,,,stimuli/images/PICTURE_2.png,JUNGLE,5f0824a20370404639e81f77,05/06/1998,2020-08-13_12h48.43.662,proactive2,2020.1.2,Linux x86_64,60,5f341be081b9052c55068110,5f35288a269f0a47df67b6ee,1,,,,,,tyre,,,,,,0,21,21,1,1,1,2,,,,,,,,,,,,,,,,,,,,,,,,,,,,,,,,,,,,,,,,,,,,,,,,,,,,,,,,,,,,,,,,,,,,,,,,,,,,,,,,,,,,,,,,,,,,,,,,,,,
,,,,,,,,,,stimuli/images/PICTURE_504.png,HOUSE,5f0824a20370404639e81f77,05/06/1998,2020-08-13_12h48.43.662,proactive2,2020.1.2,Linux x86_64,60,5f341be081b9052c55068110,5f35288a269f0a47df67b6ee,1,,,,,,wheel,,,,,,0,22,22,36,1,4,2,,,,,,,,,,,,,,,,,,,,,,,,,,,,,,,,,,,,,,,,,,,,,,,,,,,,,,,,,,,,,,,,,,,,,,,,,,,,,,,,,,,,,,,,,,,,,,,,,,,
,,,,,,,,,,stimuli/images/PICTURE_255.png,PENNY,5f0824a20370404639e81f77,05/06/1998,2020-08-13_12h48.43.662,proactive2,2020.1.2,Linux x86_64,60,5f341be081b9052c55068110,5f35288a269f0a47df67b6ee,1,,,,,,shovel,,,,,,0,23,23,19,1,2,2,,,,,,,,,,,,,,,,,,,,,,,,,,,,,,,,,,,,,,,,,,,,,,,,,,,,,,,,,,,,,,,,,,,,,,,,,,,,,,,,,,,,,,,,,,,,,,,,,,,
,,,,,,,,,,stimuli/images/PICTURE_2.png,YARD,5f0824a20370404639e81f77,05/06/1998,2020-08-13_12h48.43.662,proactive2,2020.1.2,Linux x86_64,60,5f341be081b9052c55068110,5f35288a269f0a47df67b6ee,1,,,,,,tyre,,,,,,0,24,24,55,1,6,2,,,,,,,,,,,,,,,,,,,,,,,,,,,,,,,,,,,,,,,,,,,,,,,,,,,,,,,,,,,,,,,,,,,,,,,,,,,,,,,,,,,,,,,,,,,,,,,,,,,
,,,,,,,,,,stimuli/images/PICTURE_311.png,TOILET,5f0824a20370404639e81f77,05/06/1998,2020-08-13_12h48.43.662,proactive2,2020.1.2,Linux x86_64,60,5f341be081b9052c55068110,5f35288a269f0a47df67b6ee,1,,,,,,razor,,,,,,0,25,25,54,1,6,2,,,,,,,,,,,,,,,,,,,,,,,,,,,,,,,,,,,,,,,,,,,,,,,,,,,,,,,,,,,,,,,,,,,,,,,,,,,,,,,,,,,,,,,,,,,,,,,,,,,
,,,,,,,,,,stimuli/images/PICTURE_564.png,PLENTY,5f0824a20370404639e81f77,05/06/1998,2020-08-13_12h48.43.662,proactive2,2020.1.2,Linux x86_64,60,5f341be081b9052c55068110,5f35288a269f0a47df67b6ee,1,,,,,,spoon,,,,,,0,26,26,11,1,2,2,,,,,,,,,,,,,,,,,,,,,,,,,,,,,,,,,,,,,,,,,,,,,,,,,,,,,,,,,,,,,,,,,,,,,,,,,,,,,,,,,,,,,,,,,,,,,,,,,,,
,,,,,,,,,,stimuli/images/PICTURE_123.png,SALE,5f0824a20370404639e81f77,05/06/1998,2020-08-13_12h48.43.662,proactive2,2020.1.2,Linux x86_64,60,5f341be081b9052c55068110,5f35288a269f0a47df67b6ee,1,,,,,,dart,,,,,,0,27,27,8,1,1,2,,,,,,,,,,,,,,,,,,,,,,,,,,,,,,,,,,,,,,,,,,,,,,,,,,,,,,,,,,,,,,,,,,,,,,,,,,,,,,,,,,,,,,,,,,,,,,,,,,,
,,,,,,,,,,stimuli/images/PICTURE_655.png,SALE,5f0824a20370404639e81f77,05/06/1998,2020-08-13_12h48.43.662,proactive2,2020.1.2,Linux x86_64,60,5f341be081b9052c55068110,5f35288a269f0a47df67b6ee,1,,,,,,megaphone,,,,,,0,28,28,57,1,6,2,,,,,,,,,,,,,,,,,,,,,,,,,,,,,,,,,,,,,,,,,,,,,,,,,,,,,,,,,,,,,,,,,,,,,,,,,,,,,,,,,,,,,,,,,,,,,,,,,,,
,,,,,,,,,,stimuli/images/PICTURE_348.png,DUDE,5f0824a20370404639e81f77,05/06/1998,2020-08-13_12h48.43.662,proactive2,2020.1.2,Linux x86_64,60,5f341be081b9052c55068110,5f35288a269f0a47df67b6ee,1,,,,,,pepper,,,,,,0,29,29,59,1,6,2,,,,,,,,,,,,,,,,,,,,,,,,,,,,,,,,,,,,,,,,,,,,,,,,,,,,,,,,,,,,,,,,,,,,,,,,,,,,,,,,,,,,,,,,,,,,,,,,,,,
,,,,,,,,,,stimuli/images/PICTURE_509.png,BATH,5f0824a20370404639e81f77,05/06/1998,2020-08-13_12h48.43.662,proactive2,2020.1.2,Linux x86_64,60,5f341be081b9052c55068110,5f35288a269f0a47df67b6ee,1,,,,,,telephone,,,,,,0,30,30,15,1,2,2,,,,,,,,,,,,,,,,,,,,,,,,,,,,,,,,,,,,,,,,,,,,,,,,,,,,,,,,,,,,,,,,,,,,,,,,,,,,,,,,,,,,,,,,,,,,,,,,,,,
,,,,,,,,,,stimuli/images/PICTURE_667.png,GLASS,5f0824a20370404639e81f77,05/06/1998,2020-08-13_12h48.43.662,proactive2,2020.1.2,Linux x86_64,60,5f341be081b9052c55068110,5f35288a269f0a47df67b6ee,1,,,,,,daisy,,,,,,0,31,31,27,1,3,2,,,,,,,,,,,,,,,,,,,,,,,,,,,,,,,,,,,,,,,,,,,,,,,,,,,,,,,,,,,,,,,,,,,,,,,,,,,,,,,,,,,,,,,,,,,,,,,,,,,
,,,,,,,,,,stimuli/images/PICTURE_654.png,COPS,5f0824a20370404639e81f77,05/06/1998,2020-08-13_12h48.43.662,proactive2,2020.1.2,Linux x86_64,60,5f341be081b9052c55068110,5f35288a269f0a47df67b6ee,1,,,,,,pencil,,,,,,0,32,32,10,1,2,2,,,,,,,,,,,,,,,,,,,,,,,,,,,,,,,,,,,,,,,,,,,,,,,,,,,,,,,,,,,,,,,,,,,,,,,,,,,,,,,,,,,,,,,,,,,,,,,,,,,
,,,,,,,,,,stimuli/images/PICTURE_327.png,LEADER,5f0824a20370404639e81f77,05/06/1998,2020-08-13_12h48.43.662,proactive2,2020.1.2,Linux x86_64,60,5f341be081b9052c55068110,5f35288a269f0a47df67b6ee,1,,,,,,helmet,,,,,,0,33,33,17,1,2,2,,,,,,,,,,,,,,,,,,,,,,,,,,,,,,,,,,,,,,,,,,,,,,,,,,,,,,,,,,,,,,,,,,,,,,,,,,,,,,,,,,,,,,,,,,,,,,,,,,,
,,,,,,,,,,stimuli/images/PICTURE_311.png,FLESH,5f0824a20370404639e81f77,05/06/1998,2020-08-13_12h48.43.662,proactive2,2020.1.2,Linux x86_64,60,5f341be081b9052c55068110,5f35288a269f0a47df67b6ee,1,,,,,,razor,,,,,,0,34,34,3,1,1,2,,,,,,,,,,,,,,,,,,,,,,,,,,,,,,,,,,,,,,,,,,,,,,,,,,,,,,,,,,,,,,,,,,,,,,,,,,,,,,,,,,,,,,,,,,,,,,,,,,,
,,,,,,,,,,stimuli/images/PICTURE_708.png,VALLEY,5f0824a20370404639e81f77,05/06/1998,2020-08-13_12h48.43.662,proactive2,2020.1.2,Linux x86_64,60,5f341be081b9052c55068110,5f35288a269f0a47df67b6ee,1,,,,,,monkey,,,,,,0,35,35,45,1,5,2,,,,,,,,,,,,,,,,,,,,,,,,,,,,,,,,,,,,,,,,,,,,,,,,,,,,,,,,,,,,,,,,,,,,,,,,,,,,,,,,,,,,,,,,,,,,,,,,,,,
,,,,,,,,,,stimuli/images/PICTURE_509.png,SHOTS,5f0824a20370404639e81f77,05/06/1998,2020-08-13_12h48.43.662,proactive2,2020.1.2,Linux x86_64,60,5f341be081b9052c55068110,5f35288a269f0a47df67b6ee,1,,,,,,telephone,,,,,,0,36,36,7,1,1,2,,,,,,,,,,,,,,,,,,,,,,,,,,,,,,,,,,,,,,,,,,,,,,,,,,,,,,,,,,,,,,,,,,,,,,,,,,,,,,,,,,,,,,,,,,,,,,,,,,,
,,,,,,,,,,stimuli/images/PICTURE_141.png,CLIENT,5f0824a20370404639e81f77,05/06/1998,2020-08-13_12h48.43.662,proactive2,2020.1.2,Linux x86_64,60,5f341be081b9052c55068110,5f35288a269f0a47df67b6ee,1,,,,,,sunflower,,,,,,0,37,37,30,1,4,2,,,,,,,,,,,,,,,,,,,,,,,,,,,,,,,,,,,,,,,,,,,,,,,,,,,,,,,,,,,,,,,,,,,,,,,,,,,,,,,,,,,,,,,,,,,,,,,,,,,
,,,,,,,,,,stimuli/images/PICTURE_491.png,SERIES,5f0824a20370404639e81f77,05/06/1998,2020-08-13_12h48.43.662,proactive2,2020.1.2,Linux x86_64,60,5f341be081b9052c55068110,5f35288a269f0a47df67b6ee,1,,,,,,rug,,,,,,0,38,38,39,1,4,2,,,,,,,,,,,,,,,,,,,,,,,,,,,,,,,,,,,,,,,,,,,,,,,,,,,,,,,,,,,,,,,,,,,,,,,,,,,,,,,,,,,,,,,,,,,,,,,,,,,
,,,,,,,,,,stimuli/images/PICTURE_405.png,JUNGLE,5f0824a20370404639e81f77,05/06/1998,2020-08-13_12h48.43.662,proactive2,2020.1.2,Linux x86_64,60,5f341be081b9052c55068110,5f35288a269f0a47df67b6ee,1,,,,,,anchor,,,,,,0,39,39,58,1,6,2,,,,,,,,,,,,,,,,,,,,,,,,,,,,,,,,,,,,,,,,,,,,,,,,,,,,,,,,,,,,,,,,,,,,,,,,,,,,,,,,,,,,,,,,,,,,,,,,,,,
,,,,,,,,,,stimuli/images/PICTURE_654.png,YEAR,5f0824a20370404639e81f77,05/06/1998,2020-08-13_12h48.43.662,proactive2,2020.1.2,Linux x86_64,60,5f341be081b9052c55068110,5f35288a269f0a47df67b6ee,1,,,,,,pencil,,,,,,0,40,40,41,1,5,2,,,,,,,,,,,,,,,,,,,,,,,,,,,,,,,,,,,,,,,,,,,,,,,,,,,,,,,,,,,,,,,,,,,,,,,,,,,,,,,,,,,,,,,,,,,,,,,,,,,
,,,,,,,,,,stimuli/images/PICTURE_692.png,DUDE,5f0824a20370404639e81f77,05/06/1998,2020-08-13_12h48.43.662,proactive2,2020.1.2,Linux x86_64,60,5f341be081b9052c55068110,5f35288a269f0a47df67b6ee,1,,,,,,cherry,,,,,,0,41,41,47,1,5,2,,,,,,,,,,,,,,,,,,,,,,,,,,,,,,,,,,,,,,,,,,,,,,,,,,,,,,,,,,,,,,,,,,,,,,,,,,,,,,,,,,,,,,,,,,,,,,,,,,,
,,,,,,,,,,stimuli/images/PICTURE_147.png,LEADER,5f0824a20370404639e81f77,05/06/1998,2020-08-13_12h48.43.662,proactive2,2020.1.2,Linux x86_64,60,5f341be081b9052c55068110,5f35288a269f0a47df67b6ee,1,,,,,,hanger,,,,,,0,42,42,33,1,4,2,,,,,,,,,,,,,,,,,,,,,,,,,,,,,,,,,,,,,,,,,,,,,,,,,,,,,,,,,,,,,,,,,,,,,,,,,,,,,,,,,,,,,,,,,,,,,,,,,,,
,,,,,,,,,,stimuli/images/PICTURE_677.png,PHOTO,5f0824a20370404639e81f77,05/06/1998,2020-08-13_12h48.43.662,proactive2,2020.1.2,Linux x86_64,60,5f341be081b9052c55068110,5f35288a269f0a47df67b6ee,1,,,,,,map,,,,,,0,43,43,14,1,2,2,,,,,,,,,,,,,,,,,,,,,,,,,,,,,,,,,,,,,,,,,,,,,,,,,,,,,,,,,,,,,,,,,,,,,,,,,,,,,,,,,,,,,,,,,,,,,,,,,,,
,,,,,,,,,,stimuli/images/PICTURE_453.png,FAMILY,5f0824a20370404639e81f77,05/06/1998,2020-08-13_12h48.43.662,proactive2,2020.1.2,Linux x86_64,60,5f341be081b9052c55068110,5f35288a269f0a47df67b6ee,1,,,,,,scissors,,,,,,0,44,44,48,1,5,2,,,,,,,,,,,,,,,,,,,,,,,,,,,,,,,,,,,,,,,,,,,,,,,,,,,,,,,,,,,,,,,,,,,,,,,,,,,,,,,,,,,,,,,,,,,,,,,,,,,
,,,,,,,,,,stimuli/images/PICTURE_348.png,TOILET,5f0824a20370404639e81f77,05/06/1998,2020-08-13_12h48.43.662,proactive2,2020.1.2,Linux x86_64,60,5f341be081b9052c55068110,5f35288a269f0a47df67b6ee,1,,,,,,pepper,,,,,,0,45,45,4,1,1,2,,,,,,,,,,,,,,,,,,,,,,,,,,,,,,,,,,,,,,,,,,,,,,,,,,,,,,,,,,,,,,,,,,,,,,,,,,,,,,,,,,,,,,,,,,,,,,,,,,,
,,,,,,,,,,stimuli/images/PICTURE_509.png,MILLER,5f0824a20370404639e81f77,05/06/1998,2020-08-13_12h48.43.662,proactive2,2020.1.2,Linux x86_64,60,5f341be081b9052c55068110,5f35288a269f0a47df67b6ee,1,,,,,,telephone,,,,,,0,46,46,49,1,5,2,,,,,,,,,,,,,,,,,,,,,,,,,,,,,,,,,,,,,,,,,,,,,,,,,,,,,,,,,,,,,,,,,,,,,,,,,,,,,,,,,,,,,,,,,,,,,,,,,,,
,,,,,,,,,,stimuli/images/PICTURE_177.png,HOUSE,5f0824a20370404639e81f77,05/06/1998,2020-08-13_12h48.43.662,proactive2,2020.1.2,Linux x86_64,60,5f341be081b9052c55068110,5f35288a269f0a47df67b6ee,1,,,,,,mushroom,,,,,,0,47,47,25,1,3,2,,,,,,,,,,,,,,,,,,,,,,,,,,,,,,,,,,,,,,,,,,,,,,,,,,,,,,,,,,,,,,,,,,,,,,,,,,,,,,,,,,,,,,,,,,,,,,,,,,,
,,,,,,,,,,stimuli/images/PICTURE_470.png,MOMENT,5f0824a20370404639e81f77,05/06/1998,2020-08-13_12h48.43.662,proactive2,2020.1.2,Linux x86_64,60,5f341be081b9052c55068110,5f35288a269f0a47df67b6ee,1,,,,,,motorbike,,,,,,0,48,48,40,1,5,2,,,,,,,,,,,,,,,,,,,,,,,,,,,,,,,,,,,,,,,,,,,,,,,,,,,,,,,,,,,,,,,,,,,,,,,,,,,,,,,,,,,,,,,,,,,,,,,,,,,
,,,,,,,,,,stimuli/images/PICTURE_57.png,CANDY,5f0824a20370404639e81f77,05/06/1998,2020-08-13_12h48.43.662,proactive2,2020.1.2,Linux x86_64,60,5f341be081b9052c55068110,5f35288a269f0a47df67b6ee,1,,,,,,stamp,,,,,,0,49,49,52,1,6,2,,,,,,,,,,,,,,,,,,,,,,,,,,,,,,,,,,,,,,,,,,,,,,,,,,,,,,,,,,,,,,,,,,,,,,,,,,,,,,,,,,,,,,,,,,,,,,,,,,,
,,,,,,,,,,stimuli/images/PICTURE_215.png,LEADER,5f0824a20370404639e81f77,05/06/1998,2020-08-13_12h48.43.662,proactive2,2020.1.2,Linux x86_64,60,5f341be081b9052c55068110,5f35288a269f0a47df67b6ee,1,,,,,,boot,,,,,,0,50,50,43,1,5,2,,,,,,,,,,,,,,,,,,,,,,,,,,,,,,,,,,,,,,,,,,,,,,,,,,,,,,,,,,,,,,,,,,,,,,,,,,,,,,,,,,,,,,,,,,,,,,,,,,,
,,,,,,,,,,stimuli/images/PICTURE_452.png,COPS,5f0824a20370404639e81f77,05/06/1998,2020-08-13_12h48.43.662,proactive2,2020.1.2,Linux x86_64,60,5f341be081b9052c55068110,5f35288a269f0a47df67b6ee,1,,,,,,watch,,,,,,0,51,51,0,1,1,2,,,,,,,,,,,,,,,,,,,,,,,,,,,,,,,,,,,,,,,,,,,,,,,,,,,,,,,,,,,,,,,,,,,,,,,,,,,,,,,,,,,,,,,,,,,,,,,,,,,
,,,,,,,,,,stimuli/images/PICTURE_93.png,GIRL,5f0824a20370404639e81f77,05/06/1998,2020-08-13_12h48.43.662,proactive2,2020.1.2,Linux x86_64,60,5f341be081b9052c55068110,5f35288a269f0a47df67b6ee,1,,,,,,skateboard,,,,,,0,52,52,31,1,4,2,,,,,,,,,,,,,,,,,,,,,,,,,,,,,,,,,,,,,,,,,,,,,,,,,,,,,,,,,,,,,,,,,,,,,,,,,,,,,,,,,,,,,,,,,,,,,,,,,,,
,,,,,,,,,,stimuli/images/PICTURE_750.png,POLICY,5f0824a20370404639e81f77,05/06/1998,2020-08-13_12h48.43.662,proactive2,2020.1.2,Linux x86_64,60,5f341be081b9052c55068110,5f35288a269f0a47df67b6ee,1,,,,,,kettle,,,,,,0,53,53,44,1,5,2,,,,,,,,,,,,,,,,,,,,,,,,,,,,,,,,,,,,,,,,,,,,,,,,,,,,,,,,,,,,,,,,,,,,,,,,,,,,,,,,,,,,,,,,,,,,,,,,,,,
,,,,,,,,,,stimuli/images/PICTURE_285.png,WRITER,5f0824a20370404639e81f77,05/06/1998,2020-08-13_12h48.43.662,proactive2,2020.1.2,Linux x86_64,60,5f341be081b9052c55068110,5f35288a269f0a47df67b6ee,1,,,,,,carrot,,,,,,0,54,54,6,1,1,2,,,,,,,,,,,,,,,,,,,,,,,,,,,,,,,,,,,,,,,,,,,,,,,,,,,,,,,,,,,,,,,,,,,,,,,,,,,,,,,,,,,,,,,,,,,,,,,,,,,
,,,,,,,,,,stimuli/images/PICTURE_57.png,CASINO,5f0824a20370404639e81f77,05/06/1998,2020-08-13_12h48.43.662,proactive2,2020.1.2,Linux x86_64,60,5f341be081b9052c55068110,5f35288a269f0a47df67b6ee,1,,,,,,stamp,,,,,,0,55,55,12,1,2,2,,,,,,,,,,,,,,,,,,,,,,,,,,,,,,,,,,,,,,,,,,,,,,,,,,,,,,,,,,,,,,,,,,,,,,,,,,,,,,,,,,,,,,,,,,,,,,,,,,,
,,,,,,,,,,stimuli/images/PICTURE_487.png,POLICY,5f0824a20370404639e81f77,05/06/1998,2020-08-13_12h48.43.662,proactive2,2020.1.2,Linux x86_64,60,5f341be081b9052c55068110,5f35288a269f0a47df67b6ee,1,,,,,,basket,,,,,,0,56,56,34,1,4,2,,,,,,,,,,,,,,,,,,,,,,,,,,,,,,,,,,,,,,,,,,,,,,,,,,,,,,,,,,,,,,,,,,,,,,,,,,,,,,,,,,,,,,,,,,,,,,,,,,,
,,,,,,,,,,stimuli/images/PICTURE_677.png,FAMILY,5f0824a20370404639e81f77,05/06/1998,2020-08-13_12h48.43.662,proactive2,2020.1.2,Linux x86_64,60,5f341be081b9052c55068110,5f35288a269f0a47df67b6ee,1,,,,,,map,,,,,,0,57,57,53,1,6,2,,,,,,,,,,,,,,,,,,,,,,,,,,,,,,,,,,,,,,,,,,,,,,,,,,,,,,,,,,,,,,,,,,,,,,,,,,,,,,,,,,,,,,,,,,,,,,,,,,,
,,,,,,,,,,stimuli/images/PICTURE_509.png,APPLE,5f0824a20370404639e81f77,05/06/1998,2020-08-13_12h48.43.662,proactive2,2020.1.2,Linux x86_64,60,5f341be081b9052c55068110,5f35288a269f0a47df67b6ee,1,,,,,,telephone,,,,,,0,58,58,38,1,4,2,,,,,,,,,,,,,,,,,,,,,,,,,,,,,,,,,,,,,,,,,,,,,,,,,,,,,,,,,,,,,,,,,,,,,,,,,,,,,,,,,,,,,,,,,,,,,,,,,,,
,,?,0.00169,0,,,,,,stimuli/images/PICTURE_688.png,CLOCK,5f0824a20370404639e81f77,05/06/1998,2020-08-13_12h48.43.662,proactive2,2020.1.2,Linux x86_64,60,5f341be081b9052c55068110,5f35288a269f0a47df67b6ee,1,,,,,,runner,,,,,,,,,,,5,2,0,0,0,42,1,,,,,,,,,,,,,,,,,,,,,,,,,,,,,,,,,,,,,,,,,,,,,,,,,,,,,,,,,,,,,,,,,,,,,,,,,,,,,,,,,,,,,,,,,,,,,,
,,TOILET,3.711755,1,,,,,,stimuli/images/PICTURE_348.png,TOILET,5f0824a20370404639e81f77,05/06/1998,2020-08-13_12h48.43.662,proactive2,2020.1.2,Linux x86_64,60,5f341be081b9052c55068110,5f35288a269f0a47df67b6ee,1,,,,,,pepper,,,,,,,,,,,1,2,0,1,1,4,1,,,,,,,,,,,,,,,,,,,,,,,,,,,,,,,,,,,,,,,,,,,,,,,,,,,,,,,,,,,,,,,,,,,,,,,,,,,,,,,,,,,,,,,,,,,,,,
,,?,0.00246,0,,,,,,stimuli/images/PICTURE_296.png,CLOCK,5f0824a20370404639e81f77,05/06/1998,2020-08-13_12h48.43.662,proactive2,2020.1.2,Linux x86_64,60,5f341be081b9052c55068110,5f35288a269f0a47df67b6ee,1,,,,,,bolt,,,,,,,,,,,2,2,0,2,2,18,1,,,,,,,,,,,,,,,,,,,,,,,,,,,,,,,,,,,,,,,,,,,,,,,,,,,,,,,,,,,,,,,,,,,,,,,,,,,,,,,,,,,,,,,,,,,,,,
,,?,0.00284,0,,,,,,stimuli/images/PICTURE_692.png,DUDE,5f0824a20370404639e81f77,05/06/1998,2020-08-13_12h48.43.662,proactive2,2020.1.2,Linux x86_64,60,5f341be081b9052c55068110,5f35288a269f0a47df67b6ee,1,,,,,,cherry,,,,,,,,,,,5,2,0,3,3,47,1,,,,,,,,,,,,,,,,,,,,,,,,,,,,,,,,,,,,,,,,,,,,,,,,,,,,,,,,,,,,,,,,,,,,,,,,,,,,,,,,,,,,,,,,,,,,,,
,,?,0.00183,0,,,,,,stimuli/images/PICTURE_654.png,COPS,5f0824a20370404639e81f77,05/06/1998,2020-08-13_12h48.43.662,proactive2,2020.1.2,Linux x86_64,60,5f341be081b9052c55068110,5f35288a269f0a47df67b6ee,1,,,,,,pencil,,,,,,,,,,,2,2,0,4,4,10,1,,,,,,,,,,,,,,,,,,,,,,,,,,,,,,,,,,,,,,,,,,,,,,,,,,,,,,,,,,,,,,,,,,,,,,,,,,,,,,,,,,,,,,,,,,,,,,
,,?,0.001515,0,,,,,,stimuli/images/PICTURE_509.png,APPLE,5f0824a20370404639e81f77,05/06/1998,2020-08-13_12h48.43.662,proactive2,2020.1.2,Linux x86_64,60,5f341be081b9052c55068110,5f35288a269f0a47df67b6ee,1,,,,,,telephone,,,,,,,,,,,4,2,0,5,5,38,1,,,,,,,,,,,,,,,,,,,,,,,,,,,,,,,,,,,,,,,,,,,,,,,,,,,,,,,,,,,,,,,,,,,,,,,,,,,,,,,,,,,,,,,,,,,,,,
,,?,0.001455,0,,,,,,stimuli/images/PICTURE_509.png,BATH,5f0824a20370404639e81f77,05/06/1998,2020-08-13_12h48.43.662,proactive2,2020.1.2,Linux x86_64,60,5f341be081b9052c55068110,5f35288a269f0a47df67b6ee,1,,,,,,telephone,,,,,,,,,,,2,2,0,6,6,15,1,,,,,,,,,,,,,,,,,,,,,,,,,,,,,,,,,,,,,,,,,,,,,,,,,,,,,,,,,,,,,,,,,,,,,,,,,,,,,,,,,,,,,,,,,,,,,,
,,?,0.00387,0,,,,,,stimuli/images/PICTURE_311.png,TOILET,5f0824a20370404639e81f77,05/06/1998,2020-08-13_12h48.43.662,proactive2,2020.1.2,Linux x86_64,60,5f341be081b9052c55068110,5f35288a269f0a47df67b6ee,1,,,,,,razor,,,,,,,,,,,6,2,0,7,7,54,1,,,,,,,,,,,,,,,,,,,,,,,,,,,,,,,,,,,,,,,,,,,,,,,,,,,,,,,,,,,,,,,,,,,,,,,,,,,,,,,,,,,,,,,,,,,,,,
,,?,0.00085,0,,,,,,stimuli/images/PICTURE_18.png,RIVER,5f0824a20370404639e81f77,05/06/1998,2020-08-13_12h48.43.662,proactive2,2020.1.2,Linux x86_64,60,5f341be081b9052c55068110,5f35288a269f0a47df67b6ee,1,,,,,,planet,,,,,,,,,,,3,2,0,8,8,22,1,,,,,,,,,,,,,,,,,,,,,,,,,,,,,,,,,,,,,,,,,,,,,,,,,,,,,,,,,,,,,,,,,,,,,,,,,,,,,,,,,,,,,,,,,,,,,,
,,WRITER,9.380935,1,,,,,,stimuli/images/PICTURE_285.png,WRITER,5f0824a20370404639e81f77,05/06/1998,2020-08-13_12h48.43.662,proactive2,2020.1.2,Linux x86_64,60,5f341be081b9052c55068110,5f35288a269f0a47df67b6ee,1,,,,,,carrot,,,,,,,,,,,1,2,0,9,9,6,1,,,,,,,,,,,,,,,,,,,,,,,,,,,,,,,,,,,,,,,,,,,,,,,,,,,,,,,,,,,,,,,,,,,,,,,,,,,,,,,,,,,,,,,,,,,,,,
,,FOOD,1.49847,1,,,,,,stimuli/images/PICTURE_215.png,FOOD,5f0824a20370404639e81f77,05/06/1998,2020-08-13_12h48.43.662,proactive2,2020.1.2,Linux x86_64,60,5f341be081b9052c55068110,5f35288a269f0a47df67b6ee,1,,,,,,boot,,,,,,,,,,,1,2,0,10,10,5,1,,,,,,,,,,,,,,,,,,,,,,,,,,,,,,,,,,,,,,,,,,,,,,,,,,,,,,,,,,,,,,,,,,,,,,,,,,,,,,,,,,,,,,,,,,,,,,
,,?,0.001825,0,,,,,,stimuli/images/PICTURE_285.png,PRINCE,5f0824a20370404639e81f77,05/06/1998,2020-08-13_12h48.43.662,proactive2,2020.1.2,Linux x86_64,60,5f341be081b9052c55068110,5f35288a269f0a47df67b6ee,1,,,,,,carrot,,,,,,,,,,,3,2,0,11,11,20,1,,,,,,,,,,,,,,,,,,,,,,,,,,,,,,,,,,,,,,,,,,,,,,,,,,,,,,,,,,,,,,,,,,,,,,,,,,,,,,,,,,,,,,,,,,,,,,
,,HOUSE,4.559385,1,,,,,,stimuli/images/PICTURE_405.png,HOUSE,5f0824a20370404639e81f77,05/06/1998,2020-08-13_12h48.43.662,proactive2,2020.1.2,Linux x86_64,60,5f341be081b9052c55068110,5f35288a269f0a47df67b6ee,1,,,,,,anchor,,,,,,,,,,,1,2,0,12,12,2,1,,,,,,,,,,,,,,,,,,,,,,,,,,,,,,,,,,,,,,,,,,,,,,,,,,,,,,,,,,,,,,,,,,,,,,,,,,,,,,,,,,,,,,,,,,,,,,
,,?,0.001655,0,,,,,,stimuli/images/PICTURE_33.png,COPS,5f0824a20370404639e81f77,05/06/1998,2020-08-13_12h48.43.662,proactive2,2020.1.2,Linux x86_64,60,5f341be081b9052c55068110,5f35288a269f0a47df67b6ee,1,,,,,,frame,,,,,,,,,,,3,2,0,13,13,29,1,,,,,,,,,,,,,,,,,,,,,,,,,,,,,,,,,,,,,,,,,,,,,,,,,,,,,,,,,,,,,,,,,,,,,,,,,,,,,,,,,,,,,,,,,,,,,,
,,?,0.0013,0,,,,,,stimuli/images/PICTURE_57.png,CANDY,5f0824a20370404639e81f77,05/06/1998,2020-08-13_12h48.43.662,proactive2,2020.1.2,Linux x86_64,60,5f341be081b9052c55068110,5f35288a269f0a47df67b6ee,1,,,,,,stamp,,,,,,,,,,,6,2,0,14,14,52,1,,,,,,,,,,,,,,,,,,,,,,,,,,,,,,,,,,,,,,,,,,,,,,,,,,,,,,,,,,,,,,,,,,,,,,,,,,,,,,,,,,,,,,,,,,,,,,
,,?,0.001295,0,,,,,,stimuli/images/PICTURE_453.png,FAMILY,5f0824a20370404639e81f77,05/06/1998,2020-08-13_12h48.43.662,proactive2,2020.1.2,Linux x86_64,60,5f341be081b9052c55068110,5f35288a269f0a47df67b6ee,1,,,,,,scissors,,,,,,,,,,,5,2,0,15,15,48,1,,,,,,,,,,,,,,,,,,,,,,,,,,,,,,,,,,,,,,,,,,,,,,,,,,,,,,,,,,,,,,,,,,,,,,,,,,,,,,,,,,,,,,,,,,,,,,
,,?,0.00132,0,,,,,,stimuli/images/PICTURE_255.png,PENNY,5f0824a20370404639e81f77,05/06/1998,2020-08-13_12h48.43.662,proactive2,2020.1.2,Linux x86_64,60,5f341be081b9052c55068110,5f35288a269f0a47df67b6ee,1,,,,,,shovel,,,,,,,,,,,2,2,0,16,16,19,1,,,,,,,,,,,,,,,,,,,,,,,,,,,,,,,,,,,,,,,,,,,,,,,,,,,,,,,,,,,,,,,,,,,,,,,,,,,,,,,,,,,,,,,,,,,,,,
,,?,0.00206,0,,,,,,stimuli/images/PICTURE_348.png,DUDE,5f0824a20370404639e81f77,05/06/1998,2020-08-13_12h48.43.662,proactive2,2020.1.2,Linux x86_64,60,5f341be081b9052c55068110,5f35288a269f0a47df67b6ee,1,,,,,,pepper,,,,,,,,,,,6,2,0,17,17,59,1,,,,,,,,,,,,,,,,,,,,,,,,,,,,,,,,,,,,,,,,,,,,,,,,,,,,,,,,,,,,,,,,,,,,,,,,,,,,,,,,,,,,,,,,,,,,,,
,,?,0.001405,0,,,,,,stimuli/images/PICTURE_509.png,MILLER,5f0824a20370404639e81f77,05/06/1998,2020-08-13_12h48.43.662,proactive2,2020.1.2,Linux x86_64,60,5f341be081b9052c55068110,5f35288a269f0a47df67b6ee,1,,,,,,telephone,,,,,,,,,,,5,2,0,18,18,49,1,,,,,,,,,,,,,,,,,,,,,,,,,,,,,,,,,,,,,,,,,,,,,,,,,,,,,,,,,,,,,,,,,,,,,,,,,,,,,,,,,,,,,,,,,,,,,,
,,?,0.000895,0,,,,,,stimuli/images/PICTURE_327.png,LEADER,5f0824a20370404639e81f77,05/06/1998,2020-08-13_12h48.43.662,proactive2,2020.1.2,Linux x86_64,60,5f341be081b9052c55068110,5f35288a269f0a47df67b6ee,1,,,,,,helmet,,,,,,,,,,,2,2,0,19,19,17,1,,,,,,,,,,,,,,,,,,,,,,,,,,,,,,,,,,,,,,,,,,,,,,,,,,,,,,,,,,,,,,,,,,,,,,,,,,,,,,,,,,,,,,,,,,,,,,
,,?,0.00063,0,,,,,,stimuli/images/PICTURE_487.png,POLICY,5f0824a20370404639e81f77,05/06/1998,2020-08-13_12h48.43.662,proactive2,2020.1.2,Linux x86_64,60,5f341be081b9052c55068110,5f35288a269f0a47df67b6ee,1,,,,,,basket,,,,,,,,,,,4,2,0,20,20,34,1,,,,,,,,,,,,,,,,,,,,,,,,,,,,,,,,,,,,,,,,,,,,,,,,,,,,,,,,,,,,,,,,,,,,,,,,,,,,,,,,,,,,,,,,,,,,,,
,,?,0.00062,0,,,,,,stimuli/images/PICTURE_564.png,PLENTY,5f0824a20370404639e81f77,05/06/1998,2020-08-13_12h48.43.662,proactive2,2020.1.2,Linux x86_64,60,5f341be081b9052c55068110,5f35288a269f0a47df67b6ee,1,,,,,,spoon,,,,,,,,,,,2,2,0,21,21,11,1,,,,,,,,,,,,,,,,,,,,,,,,,,,,,,,,,,,,,,,,,,,,,,,,,,,,,,,,,,,,,,,,,,,,,,,,,,,,,,,,,,,,,,,,,,,,,,
,,?,0.0006,0,,,,,,stimuli/images/PICTURE_93.png,GIRL,5f0824a20370404639e81f77,05/06/1998,2020-08-13_12h48.43.662,proactive2,2020.1.2,Linux x86_64,60,5f341be081b9052c55068110,5f35288a269f0a47df67b6ee,1,,,,,,skateboard,,,,,,,,,,,4,2,0,22,22,31,1,,,,,,,,,,,,,,,,,,,,,,,,,,,,,,,,,,,,,,,,,,,,,,,,,,,,,,,,,,,,,,,,,,,,,,,,,,,,,,,,,,,,,,,,,,,,,,
,,?,0.000505,0,,,,,,stimuli/images/PICTURE_491.png,SERIES,5f0824a20370404639e81f77,05/06/1998,2020-08-13_12h48.43.662,proactive2,2020.1.2,Linux x86_64,60,5f341be081b9052c55068110,5f35288a269f0a47df67b6ee,1,,,,,,rug,,,,,,,,,,,4,2,0,23,23,39,1,,,,,,,,,,,,,,,,,,,,,,,,,,,,,,,,,,,,,,,,,,,,,,,,,,,,,,,,,,,,,,,,,,,,,,,,,,,,,,,,,,,,,,,,,,,,,,
,,?,0.00055,0,,,,,,stimuli/images/PICTURE_487.png,ROOF,5f0824a20370404639e81f77,05/06/1998,2020-08-13_12h48.43.662,proactive2,2020.1.2,Linux x86_64,60,5f341be081b9052c55068110,5f35288a269f0a47df67b6ee,1,,,,,,basket,,,,,,,,,,,6,2,0,24,24,50,1,,,,,,,,,,,,,,,,,,,,,,,,,,,,,,,,,,,,,,,,,,,,,,,,,,,,,,,,,,,,,,,,,,,,,,,,,,,,,,,,,,,,,,,,,,,,,,
,,?,0.00049,0,,,,,,stimuli/images/PICTURE_504.png,HOUSE,5f0824a20370404639e81f77,05/06/1998,2020-08-13_12h48.43.662,proactive2,2020.1.2,Linux x86_64,60,5f341be081b9052c55068110,5f35288a269f0a47df67b6ee,1,,,,,,wheel,,,,,,,,,,,4,2,0,25,25,36,1,,,,,,,,,,,,,,,,,,,,,,,,,,,,,,,,,,,,,,,,,,,,,,,,,,,,,,,,,,,,,,,,,,,,,,,,,,,,,,,,,,,,,,,,,,,,,,
,,?,0.000455,0,,,,,,stimuli/images/PICTURE_708.png,VALLEY,5f0824a20370404639e81f77,05/06/1998,2020-08-13_12h48.43.662,proactive2,2020.1.2,Linux x86_64,60,5f341be081b9052c55068110,5f35288a269f0a47df67b6ee,1,,,,,,monkey,,,,,,,,,,,5,2,0,26,26,45,1,,,,,,,,,,,,,,,,,,,,,,,,,,,,,,,,,,,,,,,,,,,,,,,,,,,,,,,,,,,,,,,,,,,,,,,,,,,,,,,,,,,,,,,,,,,,,,
,,?,0.000425,0,,,,,,stimuli/images/PICTURE_677.png,PHOTO,5f0824a20370404639e81f77,05/06/1998,2020-08-13_12h48.43.662,proactive2,2020.1.2,Linux x86_64,60,5f341be081b9052c55068110,5f35288a269f0a47df67b6ee,1,,,,,,map,,,,,,,,,,,2,2,0,27,27,14,1,,,,,,,,,,,,,,,,,,,,,,,,,,,,,,,,,,,,,,,,,,,,,,,,,,,,,,,,,,,,,,,,,,,,,,,,,,,,,,,,,,,,,,,,,,,,,,
,,?,0.000425,0,,,,,,stimuli/images/PICTURE_750.png,POLICY,5f0824a20370404639e81f77,05/06/1998,2020-08-13_12h48.43.662,proactive2,2020.1.2,Linux x86_64,60,5f341be081b9052c55068110,5f35288a269f0a47df67b6ee,1,,,,,,kettle,,,,,,,,,,,5,2,0,28,28,44,1,,,,,,,,,,,,,,,,,,,,,,,,,,,,,,,,,,,,,,,,,,,,,,,,,,,,,,,,,,,,,,,,,,,,,,,,,,,,,,,,,,,,,,,,,,,,,,
,,?,0.000455,0,,,,,,stimuli/images/PICTURE_654.png,YEAR,5f0824a20370404639e81f77,05/06/1998,2020-08-13_12h48.43.662,proactive2,2020.1.2,Linux x86_64,60,5f341be081b9052c55068110,5f35288a269f0a47df67b6ee,1,,,,,,pencil,,,,,,,,,,,5,2,0,29,29,41,1,,,,,,,,,,,,,,,,,,,,,,,,,,,,,,,,,,,,,,,,,,,,,,,,,,,,,,,,,,,,,,,,,,,,,,,,,,,,,,,,,,,,,,,,,,,,,,
,,?,0.000445,0,,,,,,stimuli/images/PICTURE_32.png,LETTER,5f0824a20370404639e81f77,05/06/1998,2020-08-13_12h48.43.662,proactive2,2020.1.2,Linux x86_64,60,5f341be081b9052c55068110,5f35288a269f0a47df67b6ee,1,,,,,,crown,,,,,,,,,,,6,2,0,30,30,56,1,,,,,,,,,,,,,,,,,,,,,,,,,,,,,,,,,,,,,,,,,,,,,,,,,,,,,,,,,,,,,,,,,,,,,,,,,,,,,,,,,,,,,,,,,,,,,,
,,?,0.000375,0,,,,,,stimuli/images/PICTURE_2.png,AREA,5f0824a20370404639e81f77,05/06/1998,2020-08-13_12h48.43.662,proactive2,2020.1.2,Linux x86_64,60,5f341be081b9052c55068110,5f35288a269f0a47df67b6ee,1,,,,,,tyre,,,,,,,,,,,4,2,0,31,31,32,1,,,,,,,,,,,,,,,,,,,,,,,,,,,,,,,,,,,,,,,,,,,,,,,,,,,,,,,,,,,,,,,,,,,,,,,,,,,,,,,,,,,,,,,,,,,,,,
,,?,0.00035,0,,,,,,stimuli/images/PICTURE_667.png,GLASS,5f0824a20370404639e81f77,05/06/1998,2020-08-13_12h48.43.662,proactive2,2020.1.2,Linux x86_64,60,5f341be081b9052c55068110,5f35288a269f0a47df67b6ee,1,,,,,,daisy,,,,,,,,,,,3,2,0,32,32,27,1,,,,,,,,,,,,,,,,,,,,,,,,,,,,,,,,,,,,,,,,,,,,,,,,,,,,,,,,,,,,,,,,,,,,,,,,,,,,,,,,,,,,,,,,,,,,,,
,,?,0.00039,0,,,,,,stimuli/images/PICTURE_356.png,CANDY,5f0824a20370404639e81f77,05/06/1998,2020-08-13_12h48.43.662,proactive2,2020.1.2,Linux x86_64,60,5f341be081b9052c55068110,5f35288a269f0a47df67b6ee,1,,,,,,pawn,,,,,,,,,,,5,2,0,33,33,46,1,,,,,,,,,,,,,,,,,,,,,,,,,,,,,,,,,,,,,,,,,,,,,,,,,,,,,,,,,,,,,,,,,,,,,,,,,,,,,,,,,,,,,,,,,,,,,,
,,?,0.00036,0,,,,,,stimuli/images/PICTURE_677.png,FAMILY,5f0824a20370404639e81f77,05/06/1998,2020-08-13_12h48.43.662,proactive2,2020.1.2,Linux x86_64,60,5f341be081b9052c55068110,5f35288a269f0a47df67b6ee,1,,,,,,map,,,,,,,,,,,6,2,0,34,34,53,1,,,,,,,,,,,,,,,,,,,,,,,,,,,,,,,,,,,,,,,,,,,,,,,,,,,,,,,,,,,,,,,,,,,,,,,,,,,,,,,,,,,,,,,,,,,,,,
,,?,0.00034,0,,,,,,stimuli/images/PICTURE_2.png,YARD,5f0824a20370404639e81f77,05/06/1998,2020-08-13_12h48.43.662,proactive2,2020.1.2,Linux x86_64,60,5f341be081b9052c55068110,5f35288a269f0a47df67b6ee,1,,,,,,tyre,,,,,,,,,,,6,2,0,35,35,55,1,,,,,,,,,,,,,,,,,,,,,,,,,,,,,,,,,,,,,,,,,,,,,,,,,,,,,,,,,,,,,,,,,,,,,,,,,,,,,,,,,,,,,,,,,,,,,,
,,?,0.00035,0,,,,,,stimuli/images/PICTURE_297.png,BODY,5f0824a20370404639e81f77,05/06/1998,2020-08-13_12h48.43.662,proactive2,2020.1.2,Linux x86_64,60,5f341be081b9052c55068110,5f35288a269f0a47df67b6ee,1,,,,,,aeroplane,,,,,,,,,,,6,2,0,36,36,51,1,,,,,,,,,,,,,,,,,,,,,,,,,,,,,,,,,,,,,,,,,,,,,,,,,,,,,,,,,,,,,,,,,,,,,,,,,,,,,,,,,,,,,,,,,,,,,,
,,?,0.000435,0,,,,,,stimuli/images/PICTURE_655.png,SALE,5f0824a20370404639e81f77,05/06/1998,2020-08-13_12h48.43.662,proactive2,2020.1.2,Linux x86_64,60,5f341be081b9052c55068110,5f35288a269f0a47df67b6ee,1,,,,,,megaphone,,,,,,,,,,,6,2,0,37,37,57,1,,,,,,,,,,,,,,,,,,,,,,,,,,,,,,,,,,,,,,,,,,,,,,,,,,,,,,,,,,,,,,,,,,,,,,,,,,,,,,,,,,,,,,,,,,,,,,
,,SALE,3.08371,1,,,,,,stimuli/images/PICTURE_123.png,SALE,5f0824a20370404639e81f77,05/06/1998,2020-08-13_12h48.43.662,proactive2,2020.1.2,Linux x86_64,60,5f341be081b9052c55068110,5f35288a269f0a47df67b6ee,1,,,,,,dart,,,,,,,,,,,1,2,0,38,38,8,1,,,,,,,,,,,,,,,,,,,,,,,,,,,,,,,,,,,,,,,,,,,,,,,,,,,,,,,,,,,,,,,,,,,,,,,,,,,,,,,,,,,,,,,,,,,,,,
,,?,0.001625,0,,,,,,stimuli/images/PICTURE_141.png,CLIENT,5f0824a20370404639e81f77,05/06/1998,2020-08-13_12h48.43.662,proactive2,2020.1.2,Linux x86_64,60,5f341be081b9052c55068110,5f35288a269f0a47df67b6ee,1,,,,,,sunflower,,,,,,,,,,,4,2,0,39,39,30,1,,,,,,,,,,,,,,,,,,,,,,,,,,,,,,,,,,,,,,,,,,,,,,,,,,,,,,,,,,,,,,,,,,,,,,,,,,,,,,,,,,,,,,,,,,,,,,
,,COPS,1.595005,1,,,,,,stimuli/images/PICTURE_452.png,COPS,5f0824a20370404639e81f77,05/06/1998,2020-08-13_12h48.43.662,proactive2,2020.1.2,Linux x86_64,60,5f341be081b9052c55068110,5f35288a269f0a47df67b6ee,1,,,,,,watch,,,,,,,,,,,1,2,0,40,40,0,1,,,,,,,,,,,,,,,,,,,,,,,,,,,,,,,,,,,,,,,,,,,,,,,,,,,,,,,,,,,,,,,,,,,,,,,,,,,,,,,,,,,,,,,,,,,,,,
,,SHOT,3.298775,0,,,,,,stimuli/images/PICTURE_509.png,SHOTS,5f0824a20370404639e81f77,05/06/1998,2020-08-13_12h48.43.662,proactive2,2020.1.2,Linux x86_64,60,5f341be081b9052c55068110,5f35288a269f0a47df67b6ee,1,,,,,,telephone,,,,,,,,,,,1,2,0,41,41,7,1,,,,,,,,,,,,,,,,,,,,,,,,,,,,,,,,,,,,,,,,,,,,,,,,,,,,,,,,,,,,,,,,,,,,,,,,,,,,,,,,,,,,,,,,,,,,,,
,,?,0.001675,0,,,,,,stimuli/images/PICTURE_215.png,LEADER,5f0824a20370404639e81f77,05/06/1998,2020-08-13_12h48.43.662,proactive2,2020.1.2,Linux x86_64,60,5f341be081b9052c55068110,5f35288a269f0a47df67b6ee,1,,,,,,boot,,,,,,,,,,,5,2,0,42,42,43,1,,,,,,,,,,,,,,,,,,,,,,,,,,,,,,,,,,,,,,,,,,,,,,,,,,,,,,,,,,,,,,,,,,,,,,,,,,,,,,,,,,,,,,,,,,,,,,
,,?,0.002335,0,,,,,,stimuli/images/PICTURE_470.png,MOMENT,5f0824a20370404639e81f77,05/06/1998,2020-08-13_12h48.43.662,proactive2,2020.1.2,Linux x86_64,60,5f341be081b9052c55068110,5f35288a269f0a47df67b6ee,1,,,,,,motorbike,,,,,,,,,,,5,2,0,43,43,40,1,,,,,,,,,,,,,,,,,,,,,,,,,,,,,,,,,,,,,,,,,,,,,,,,,,,,,,,,,,,,,,,,,,,,,,,,,,,,,,,,,,,,,,,,,,,,,,
,,FLESH,3.256525,1,,,,,,stimuli/images/PICTURE_311.png,FLESH,5f0824a20370404639e81f77,05/06/1998,2020-08-13_12h48.43.662,proactive2,2020.1.2,Linux x86_64,60,5f341be081b9052c55068110,5f35288a269f0a47df67b6ee,1,,,,,,razor,,,,,,,,,,,1,2,0,44,44,3,1,,,,,,,,,,,,,,,,,,,,,,,,,,,,,,,,,,,,,,,,,,,,,,,,,,,,,,,,,,,,,,,,,,,,,,,,,,,,,,,,,,,,,,,,,,,,,,
,,?,0.00191,0,,,,,,stimuli/images/PICTURE_405.png,JUNGLE,5f0824a20370404639e81f77,05/06/1998,2020-08-13_12h48.43.662,proactive2,2020.1.2,Linux x86_64,60,5f341be081b9052c55068110,5f35288a269f0a47df67b6ee,1,,,,,,anchor,,,,,,,,,,,2,2,0,45,45,13,1,,,,,,,,,,,,,,,,,,,,,,,,,,,,,,,,,,,,,,,,,,,,,,,,,,,,,,,,,,,,,,,,,,,,,,,,,,,,,,,,,,,,,,,,,,,,,,
,,?,0.001625,0,,,,,,stimuli/images/PICTURE_314.png,SPEECH,5f0824a20370404639e81f77,05/06/1998,2020-08-13_12h48.43.662,proactive2,2020.1.2,Linux x86_64,60,5f341be081b9052c55068110,5f35288a269f0a47df67b6ee,1,,,,,,perfume,,,,,,,,,,,4,2,0,46,46,35,1,,,,,,,,,,,,,,,,,,,,,,,,,,,,,,,,,,,,,,,,,,,,,,,,,,,,,,,,,,,,,,,,,,,,,,,,,,,,,,,,,,,,,,,,,,,,,,
,,?,0.00162,0,,,,,,stimuli/images/PICTURE_147.png,LEADER,5f0824a20370404639e81f77,05/06/1998,2020-08-13_12h48.43.662,proactive2,2020.1.2,Linux x86_64,60,5f341be081b9052c55068110,5f35288a269f0a47df67b6ee,1,,,,,,hanger,,,,,,,,,,,4,2,0,47,47,33,1,,,,,,,,,,,,,,,,,,,,,,,,,,,,,,,,,,,,,,,,,,,,,,,,,,,,,,,,,,,,,,,,,,,,,,,,,,,,,,,,,,,,,,,,,,,,,,
,,?,0.00161,0,,,,,,stimuli/images/PICTURE_215.png,BOYS,5f0824a20370404639e81f77,05/06/1998,2020-08-13_12h48.43.662,proactive2,2020.1.2,Linux x86_64,60,5f341be081b9052c55068110,5f35288a269f0a47df67b6ee,1,,,,,,boot,,,,,,,,,,,3,2,0,48,48,24,1,,,,,,,,,,,,,,,,,,,,,,,,,,,,,,,,,,,,,,,,,,,,,,,,,,,,,,,,,,,,,,,,,,,,,,,,,,,,,,,,,,,,,,,,,,,,,,
,,?,0.003625,0,,,,,,stimuli/images/PICTURE_470.png,BEAUTY,5f0824a20370404639e81f77,05/06/1998,2020-08-13_12h48.43.662,proactive2,2020.1.2,Linux x86_64,60,5f341be081b9052c55068110,5f35288a269f0a47df67b6ee,1,,,,,,motorbike,,,,,,,,,,,3,2,0,49,49,26,1,,,,,,,,,,,,,,,,,,,,,,,,,,,,,,,,,,,,,,,,,,,,,,,,,,,,,,,,,,,,,,,,,,,,,,,,,,,,,,,,,,,,,,,,,,,,,,
,,?,0.000875,0,,,,,,stimuli/images/PICTURE_57.png,NATION,5f0824a20370404639e81f77,05/06/1998,2020-08-13_12h48.43.662,proactive2,2020.1.2,Linux x86_64,60,5f341be081b9052c55068110,5f35288a269f0a47df67b6ee,1,,,,,,stamp,,,,,,,,,,,3,2,0,50,50,21,1,,,,,,,,,,,,,,,,,,,,,,,,,,,,,,,,,,,,,,,,,,,,,,,,,,,,,,,,,,,,,,,,,,,,,,,,,,,,,,,,,,,,,,,,,,,,,,
,,?,0.000755,0,,,,,,stimuli/images/PICTURE_95.png,NIGHT,5f0824a20370404639e81f77,05/06/1998,2020-08-13_12h48.43.662,proactive2,2020.1.2,Linux x86_64,60,5f341be081b9052c55068110,5f35288a269f0a47df67b6ee,1,,,,,,suitcase,,,,,,,,,,,4,2,0,51,51,37,1,,,,,,,,,,,,,,,,,,,,,,,,,,,,,,,,,,,,,,,,,,,,,,,,,,,,,,,,,,,,,,,,,,,,,,,,,,,,,,,,,,,,,,,,,,,,,,
,,?,0.00079,0,,,,,,stimuli/images/PICTURE_68.png,KIND,5f0824a20370404639e81f77,05/06/1998,2020-08-13_12h48.43.662,proactive2,2020.1.2,Linux x86_64,60,5f341be081b9052c55068110,5f35288a269f0a47df67b6ee,1,,,,,,candle,,,,,,,,,,,3,2,0,52,52,23,1,,,,,,,,,,,,,,,,,,,,,,,,,,,,,,,,,,,,,,,,,,,,,,,,,,,,,,,,,,,,,,,,,,,,,,,,,,,,,,,,,,,,,,,,,,,,,,
,,?,0.000635,0,,,,,,stimuli/images/PICTURE_177.png,HOUSE,5f0824a20370404639e81f77,05/06/1998,2020-08-13_12h48.43.662,proactive2,2020.1.2,Linux x86_64,60,5f341be081b9052c55068110,5f35288a269f0a47df67b6ee,1,,,,,,mushroom,,,,,,,,,,,3,2,0,53,53,25,1,,,,,,,,,,,,,,,,,,,,,,,,,,,,,,,,,,,,,,,,,,,,,,,,,,,,,,,,,,,,,,,,,,,,,,,,,,,,,,,,,,,,,,,,,,,,,,
,,?,0.000625,0,,,,,,stimuli/images/PICTURE_57.png,CASINO,5f0824a20370404639e81f77,05/06/1998,2020-08-13_12h48.43.662,proactive2,2020.1.2,Linux x86_64,60,5f341be081b9052c55068110,5f35288a269f0a47df67b6ee,1,,,,,,stamp,,,,,,,,,,,2,2,0,54,54,12,1,,,,,,,,,,,,,,,,,,,,,,,,,,,,,,,,,,,,,,,,,,,,,,,,,,,,,,,,,,,,,,,,,,,,,,,,,,,,,,,,,,,,,,,,,,,,,,
,,?,0.00068,0,,,,,,stimuli/images/PICTURE_405.png,JUNGLE,5f0824a20370404639e81f77,05/06/1998,2020-08-13_12h48.43.662,proactive2,2020.1.2,Linux x86_64,60,5f341be081b9052c55068110,5f35288a269f0a47df67b6ee,1,,,,,,anchor,,,,,,,,,,,6,2,0,55,55,58,1,,,,,,,,,,,,,,,,,,,,,,,,,,,,,,,,,,,,,,,,,,,,,,,,,,,,,,,,,,,,,,,,,,,,,,,,,,,,,,,,,,,,,,,,,,,,,,
,,?,0.00055,0,,,,,,stimuli/images/PICTURE_208.png,SPIRIT,5f0824a20370404639e81f77,05/06/1998,2020-08-13_12h48.43.662,proactive2,2020.1.2,Linux x86_64,60,5f341be081b9052c55068110,5f35288a269f0a47df67b6ee,1,,,,,,microphone,,,,,,,,,,,3,2,0,56,56,28,1,,,,,,,,,,,,,,,,,,,,,,,,,,,,,,,,,,,,,,,,,,,,,,,,,,,,,,,,,,,,,,,,,,,,,,,,,,,,,,,,,,,,,,,,,,,,,,
,,HOUSE,1.51364,0,,,,,,stimuli/images/PICTURE_403.png,FAMILY,5f0824a20370404639e81f77,05/06/1998,2020-08-13_12h48.43.662,proactive2,2020.1.2,Linux x86_64,60,5f341be081b9052c55068110,5f35288a269f0a47df67b6ee,1,,,,,,cathedral,,,,,,,,,,,1,2,0,57,57,9,1,,,,,,,,,,,,,,,,,,,,,,,,,,,,,,,,,,,,,,,,,,,,,,,,,,,,,,,,,,,,,,,,,,,,,,,,,,,,,,,,,,,,,,,,,,,,,,
,,?,0.00178,0,,,,,,stimuli/images/PICTURE_160.png,HOTEL,5f0824a20370404639e81f77,05/06/1998,2020-08-13_12h48.43.662,proactive2,2020.1.2,Linux x86_64,60,5f341be081b9052c55068110,5f35288a269f0a47df67b6ee,1,,,,,,wheelbarrow,,,,,,,,,,,2,2,0,58,58,16,1,,,,,,,,,,,,,,,,,,,,,,,,,,,,,,,,,,,,,,,,,,,,,,,,,,,,,,,,,,,,,,,,,,,,,,,,,,,,,,,,,,,,,,,,,,,,,,
,,JUNGLE,9.70751,1,,,,,,stimuli/images/PICTURE_2.png,JUNGLE,5f0824a20370404639e81f77,05/06/1998,2020-08-13_12h48.43.662,proactive2,2020.1.2,Linux x86_64,60,5f341be081b9052c55068110,5f35288a269f0a47df67b6ee,1,,,,,,tyre,,,,,,,,,,,1,2,0,59,59,1,1,,,,,,,,,,,,,,,,,,,,,,,,,,,,,,,,,,,,,,,,,,,,,,,,,,,,,,,,,,,,,,,,,,,,,,,,,,,,,,,,,,,,,,,,,,,,,,
,,,,,,,,,,,,5f0824a20370404639e81f77,05/06/1998,2020-08-13_12h48.43.662,proactive2,2020.1.2,Linux x86_64,60,5f341be081b9052c55068110,5f35288a269f0a47df67b6ee,1,,,,,,,,,,,,,,,,,,,,,,,,0,1,1,2,1,stimuli/learn-block3.csv,,,,,,,,,,,,,,,,,,,,,,,,,,,,,,,,,,,,,,,,,,,,,,,,,,,,,,,,,,,,,,,,,,,,,,,,,,,,,,,,,,,,,,,,
,,,,,,,,,,stimuli/images/PICTURE_255.png,AREA,5f0824a20370404639e81f77,05/06/1998,2020-08-13_12h48.43.662,proactive2,2020.1.2,Linux x86_64,60,5f341be081b9052c55068110,5f35288a269f0a47df67b6ee,1,,,,,,shovel,,,,,,0,0,0,22,1,3,0,,,,,,,,,,,,,,,,,,,,,,,,,,,,,,,,,,,,,,,,,,,,,,,,,,,,,,,,,,,,,,,,,,,,,,,,,,,,,,,,,,,,,,,,,,,,,,,,,,,
,,,,,,,,,,stimuli/images/PICTURE_311.png,FRIEND,5f0824a20370404639e81f77,05/06/1998,2020-08-13_12h48.43.662,proactive2,2020.1.2,Linux x86_64,60,5f341be081b9052c55068110,5f35288a269f0a47df67b6ee,1,,,,,,razor,,,,,,0,1,1,34,1,4,0,,,,,,,,,,,,,,,,,,,,,,,,,,,,,,,,,,,,,,,,,,,,,,,,,,,,,,,,,,,,,,,,,,,,,,,,,,,,,,,,,,,,,,,,,,,,,,,,,,,
,,,,,,,,,,stimuli/images/PICTURE_160.png,LEADER,5f0824a20370404639e81f77,05/06/1998,2020-08-13_12h48.43.662,proactive2,2020.1.2,Linux x86_64,60,5f341be081b9052c55068110,5f35288a269f0a47df67b6ee,1,,,,,,wheelbarrow,,,,,,0,2,2,3,1,1,0,,,,,,,,,,,,,,,,,,,,,,,,,,,,,,,,,,,,,,,,,,,,,,,,,,,,,,,,,,,,,,,,,,,,,,,,,,,,,,,,,,,,,,,,,,,,,,,,,,,
,,,,,,,,,,stimuli/images/PICTURE_285.png,ADVICE,5f0824a20370404639e81f77,05/06/1998,2020-08-13_12h48.43.662,proactive2,2020.1.2,Linux x86_64,60,5f341be081b9052c55068110,5f35288a269f0a47df67b6ee,1,,,,,,carrot,,,,,,0,3,3,12,1,2,0,,,,,,,,,,,,,,,,,,,,,,,,,,,,,,,,,,,,,,,,,,,,,,,,,,,,,,,,,,,,,,,,,,,,,,,,,,,,,,,,,,,,,,,,,,,,,,,,,,,
,,,,,,,,,,stimuli/images/PICTURE_123.png,ADVICE,5f0824a20370404639e81f77,05/06/1998,2020-08-13_12h48.43.662,proactive2,2020.1.2,Linux x86_64,60,5f341be081b9052c55068110,5f35288a269f0a47df67b6ee,1,,,,,,dart,,,,,,0,4,4,40,1,5,0,,,,,,,,,,,,,,,,,,,,,,,,,,,,,,,,,,,,,,,,,,,,,,,,,,,,,,,,,,,,,,,,,,,,,,,,,,,,,,,,,,,,,,,,,,,,,,,,,,,
,,,,,,,,,,stimuli/images/PICTURE_147.png,MOMENT,5f0824a20370404639e81f77,05/06/1998,2020-08-13_12h48.43.662,proactive2,2020.1.2,Linux x86_64,60,5f341be081b9052c55068110,5f35288a269f0a47df67b6ee,1,,,,,,hanger,,,,,,0,5,5,51,1,6,0,,,,,,,,,,,,,,,,,,,,,,,,,,,,,,,,,,,,,,,,,,,,,,,,,,,,,,,,,,,,,,,,,,,,,,,,,,,,,,,,,,,,,,,,,,,,,,,,,,,
,,,,,,,,,,stimuli/images/PICTURE_123.png,ADVICE,5f0824a20370404639e81f77,05/06/1998,2020-08-13_12h48.43.662,proactive2,2020.1.2,Linux x86_64,60,5f341be081b9052c55068110,5f35288a269f0a47df67b6ee,1,,,,,,dart,,,,,,0,6,6,50,1,6,0,,,,,,,,,,,,,,,,,,,,,,,,,,,,,,,,,,,,,,,,,,,,,,,,,,,,,,,,,,,,,,,,,,,,,,,,,,,,,,,,,,,,,,,,,,,,,,,,,,,
,,,,,,,,,,stimuli/images/PICTURE_380.png,DEATH,5f0824a20370404639e81f77,05/06/1998,2020-08-13_12h48.43.662,proactive2,2020.1.2,Linux x86_64,60,5f341be081b9052c55068110,5f35288a269f0a47df67b6ee,1,,,,,,gorilla,,,,,,0,7,7,49,1,5,0,,,,,,,,,,,,,,,,,,,,,,,,,,,,,,,,,,,,,,,,,,,,,,,,,,,,,,,,,,,,,,,,,,,,,,,,,,,,,,,,,,,,,,,,,,,,,,,,,,,
,,,,,,,,,,stimuli/images/PICTURE_160.png,FEET,5f0824a20370404639e81f77,05/06/1998,2020-08-13_12h48.43.662,proactive2,2020.1.2,Linux x86_64,60,5f341be081b9052c55068110,5f35288a269f0a47df67b6ee,1,,,,,,wheelbarrow,,,,,,0,8,8,58,1,6,0,,,,,,,,,,,,,,,,,,,,,,,,,,,,,,,,,,,,,,,,,,,,,,,,,,,,,,,,,,,,,,,,,,,,,,,,,,,,,,,,,,,,,,,,,,,,,,,,,,,
,,,,,,,,,,stimuli/images/PICTURE_208.png,MONTH,5f0824a20370404639e81f77,05/06/1998,2020-08-13_12h48.43.662,proactive2,2020.1.2,Linux x86_64,60,5f341be081b9052c55068110,5f35288a269f0a47df67b6ee,1,,,,,,microphone,,,,,,0,9,9,53,1,6,0,,,,,,,,,,,,,,,,,,,,,,,,,,,,,,,,,,,,,,,,,,,,,,,,,,,,,,,,,,,,,,,,,,,,,,,,,,,,,,,,,,,,,,,,,,,,,,,,,,,
,,,,,,,,,,stimuli/images/PICTURE_311.png,BEAUTY,5f0824a20370404639e81f77,05/06/1998,2020-08-13_12h48.43.662,proactive2,2020.1.2,Linux x86_64,60,5f341be081b9052c55068110,5f35288a269f0a47df67b6ee,1,,,,,,razor,,,,,,0,10,10,13,1,2,0,,,,,,,,,,,,,,,,,,,,,,,,,,,,,,,,,,,,,,,,,,,,,,,,,,,,,,,,,,,,,,,,,,,,,,,,,,,,,,,,,,,,,,,,,,,,,,,,,,,
,,,,,,,,,,stimuli/images/PICTURE_708.png,YARD,5f0824a20370404639e81f77,05/06/1998,2020-08-13_12h48.43.662,proactive2,2020.1.2,Linux x86_64,60,5f341be081b9052c55068110,5f35288a269f0a47df67b6ee,1,,,,,,monkey,,,,,,0,11,11,29,1,3,0,,,,,,,,,,,,,,,,,,,,,,,,,,,,,,,,,,,,,,,,,,,,,,,,,,,,,,,,,,,,,,,,,,,,,,,,,,,,,,,,,,,,,,,,,,,,,,,,,,,
,,,,,,,,,,stimuli/images/PICTURE_467.png,DEMON,5f0824a20370404639e81f77,05/06/1998,2020-08-13_12h48.43.662,proactive2,2020.1.2,Linux x86_64,60,5f341be081b9052c55068110,5f35288a269f0a47df67b6ee,1,,,,,,peg,,,,,,0,12,12,23,1,3,0,,,,,,,,,,,,,,,,,,,,,,,,,,,,,,,,,,,,,,,,,,,,,,,,,,,,,,,,,,,,,,,,,,,,,,,,,,,,,,,,,,,,,,,,,,,,,,,,,,,
,,,,,,,,,,stimuli/images/PICTURE_491.png,WRITER,5f0824a20370404639e81f77,05/06/1998,2020-08-13_12h48.43.662,proactive2,2020.1.2,Linux x86_64,60,5f341be081b9052c55068110,5f35288a269f0a47df67b6ee,1,,,,,,rug,,,,,,0,13,13,57,1,6,0,,,,,,,,,,,,,,,,,,,,,,,,,,,,,,,,,,,,,,,,,,,,,,,,,,,,,,,,,,,,,,,,,,,,,,,,,,,,,,,,,,,,,,,,,,,,,,,,,,,
,,,,,,,,,,stimuli/images/PICTURE_688.png,CASINO,5f0824a20370404639e81f77,05/06/1998,2020-08-13_12h48.43.662,proactive2,2020.1.2,Linux x86_64,60,5f341be081b9052c55068110,5f35288a269f0a47df67b6ee,1,,,,,,runner,,,,,,0,14,14,2,1,1,0,,,,,,,,,,,,,,,,,,,,,,,,,,,,,,,,,,,,,,,,,,,,,,,,,,,,,,,,,,,,,,,,,,,,,,,,,,,,,,,,,,,,,,,,,,,,,,,,,,,
,,,,,,,,,,stimuli/images/PICTURE_453.png,DUDE,5f0824a20370404639e81f77,05/06/1998,2020-08-13_12h48.43.662,proactive2,2020.1.2,Linux x86_64,60,5f341be081b9052c55068110,5f35288a269f0a47df67b6ee,1,,,,,,scissors,,,,,,0,15,15,27,1,3,0,,,,,,,,,,,,,,,,,,,,,,,,,,,,,,,,,,,,,,,,,,,,,,,,,,,,,,,,,,,,,,,,,,,,,,,,,,,,,,,,,,,,,,,,,,,,,,,,,,,
,,,,,,,,,,stimuli/images/PICTURE_469.png,ARTIST,5f0824a20370404639e81f77,05/06/1998,2020-08-13_12h48.43.662,proactive2,2020.1.2,Linux x86_64,60,5f341be081b9052c55068110,5f35288a269f0a47df67b6ee,1,,,,,,stool,,,,,,0,16,16,6,1,1,0,,,,,,,,,,,,,,,,,,,,,,,,,,,,,,,,,,,,,,,,,,,,,,,,,,,,,,,,,,,,,,,,,,,,,,,,,,,,,,,,,,,,,,,,,,,,,,,,,,,
,,,,,,,,,,stimuli/images/PICTURE_85.png,THING,5f0824a20370404639e81f77,05/06/1998,2020-08-13_12h48.43.662,proactive2,2020.1.2,Linux x86_64,60,5f341be081b9052c55068110,5f35288a269f0a47df67b6ee,1,,,,,,diamond,,,,,,0,17,17,15,1,2,0,,,,,,,,,,,,,,,,,,,,,,,,,,,,,,,,,,,,,,,,,,,,,,,,,,,,,,,,,,,,,,,,,,,,,,,,,,,,,,,,,,,,,,,,,,,,,,,,,,,
,,,,,,,,,,stimuli/images/PICTURE_488.png,STYLE,5f0824a20370404639e81f77,05/06/1998,2020-08-13_12h48.43.662,proactive2,2020.1.2,Linux x86_64,60,5f341be081b9052c55068110,5f35288a269f0a47df67b6ee,1,,,,,,sun,,,,,,0,18,18,33,1,4,0,,,,,,,,,,,,,,,,,,,,,,,,,,,,,,,,,,,,,,,,,,,,,,,,,,,,,,,,,,,,,,,,,,,,,,,,,,,,,,,,,,,,,,,,,,,,,,,,,,,
,,,,,,,,,,stimuli/images/PICTURE_453.png,PLENTY,5f0824a20370404639e81f77,05/06/1998,2020-08-13_12h48.43.662,proactive2,2020.1.2,Linux x86_64,60,5f341be081b9052c55068110,5f35288a269f0a47df67b6ee,1,,,,,,scissors,,,,,,0,19,19,56,1,6,0,,,,,,,,,,,,,,,,,,,,,,,,,,,,,,,,,,,,,,,,,,,,,,,,,,,,,,,,,,,,,,,,,,,,,,,,,,,,,,,,,,,,,,,,,,,,,,,,,,,
,,,,,,,,,,stimuli/images/PICTURE_203.png,ARTIST,5f0824a20370404639e81f77,05/06/1998,2020-08-13_12h48.43.662,proactive2,2020.1.2,Linux x86_64,60,5f341be081b9052c55068110,5f35288a269f0a47df67b6ee,1,,,,,,cap,,,,,,0,20,20,26,1,3,0,,,,,,,,,,,,,,,,,,,,,,,,,,,,,,,,,,,,,,,,,,,,,,,,,,,,,,,,,,,,,,,,,,,,,,,,,,,,,,,,,,,,,,,,,,,,,,,,,,,
,,,,,,,,,,stimuli/images/PICTURE_248.png,DOZEN,5f0824a20370404639e81f77,05/06/1998,2020-08-13_12h48.43.662,proactive2,2020.1.2,Linux x86_64,60,5f341be081b9052c55068110,5f35288a269f0a47df67b6ee,1,,,,,,cart,,,,,,0,21,21,39,1,4,0,,,,,,,,,,,,,,,,,,,,,,,,,,,,,,,,,,,,,,,,,,,,,,,,,,,,,,,,,,,,,,,,,,,,,,,,,,,,,,,,,,,,,,,,,,,,,,,,,,,
,,,,,,,,,,stimuli/images/PICTURE_68.png,MILE,5f0824a20370404639e81f77,05/06/1998,2020-08-13_12h48.43.662,proactive2,2020.1.2,Linux x86_64,60,5f341be081b9052c55068110,5f35288a269f0a47df67b6ee,1,,,,,,candle,,,,,,0,22,22,44,1,5,0,,,,,,,,,,,,,,,,,,,,,,,,,,,,,,,,,,,,,,,,,,,,,,,,,,,,,,,,,,,,,,,,,,,,,,,,,,,,,,,,,,,,,,,,,,,,,,,,,,,
,,,,,,,,,,stimuli/images/PICTURE_509.png,PHOTO,5f0824a20370404639e81f77,05/06/1998,2020-08-13_12h48.43.662,proactive2,2020.1.2,Linux x86_64,60,5f341be081b9052c55068110,5f35288a269f0a47df67b6ee,1,,,,,,telephone,,,,,,0,23,23,21,1,3,0,,,,,,,,,,,,,,,,,,,,,,,,,,,,,,,,,,,,,,,,,,,,,,,,,,,,,,,,,,,,,,,,,,,,,,,,,,,,,,,,,,,,,,,,,,,,,,,,,,,
,,,,,,,,,,stimuli/images/PICTURE_177.png,CARS,5f0824a20370404639e81f77,05/06/1998,2020-08-13_12h48.43.662,proactive2,2020.1.2,Linux x86_64,60,5f341be081b9052c55068110,5f35288a269f0a47df67b6ee,1,,,,,,mushroom,,,,,,0,24,24,35,1,4,0,,,,,,,,,,,,,,,,,,,,,,,,,,,,,,,,,,,,,,,,,,,,,,,,,,,,,,,,,,,,,,,,,,,,,,,,,,,,,,,,,,,,,,,,,,,,,,,,,,,
,,,,,,,,,,stimuli/images/PICTURE_449.png,THING,5f0824a20370404639e81f77,05/06/1998,2020-08-13_12h48.43.662,proactive2,2020.1.2,Linux x86_64,60,5f341be081b9052c55068110,5f35288a269f0a47df67b6ee,1,,,,,,bench,,,,,,0,25,25,59,1,6,0,,,,,,,,,,,,,,,,,,,,,,,,,,,,,,,,,,,,,,,,,,,,,,,,,,,,,,,,,,,,,,,,,,,,,,,,,,,,,,,,,,,,,,,,,,,,,,,,,,,
,,,,,,,,,,stimuli/images/PICTURE_314.png,SAKE,5f0824a20370404639e81f77,05/06/1998,2020-08-13_12h48.43.662,proactive2,2020.1.2,Linux x86_64,60,5f341be081b9052c55068110,5f35288a269f0a47df67b6ee,1,,,,,,perfume,,,,,,0,26,26,7,1,1,0,,,,,,,,,,,,,,,,,,,,,,,,,,,,,,,,,,,,,,,,,,,,,,,,,,,,,,,,,,,,,,,,,,,,,,,,,,,,,,,,,,,,,,,,,,,,,,,,,,,
,,,,,,,,,,stimuli/images/PICTURE_487.png,FLIGHT,5f0824a20370404639e81f77,05/06/1998,2020-08-13_12h48.43.662,proactive2,2020.1.2,Linux x86_64,60,5f341be081b9052c55068110,5f35288a269f0a47df67b6ee,1,,,,,,basket,,,,,,0,27,27,9,1,1,0,,,,,,,,,,,,,,,,,,,,,,,,,,,,,,,,,,,,,,,,,,,,,,,,,,,,,,,,,,,,,,,,,,,,,,,,,,,,,,,,,,,,,,,,,,,,,,,,,,,
,,,,,,,,,,stimuli/images/PICTURE_470.png,CASINO,5f0824a20370404639e81f77,05/06/1998,2020-08-13_12h48.43.662,proactive2,2020.1.2,Linux x86_64,60,5f341be081b9052c55068110,5f35288a269f0a47df67b6ee,1,,,,,,motorbike,,,,,,0,28,28,36,1,4,0,,,,,,,,,,,,,,,,,,,,,,,,,,,,,,,,,,,,,,,,,,,,,,,,,,,,,,,,,,,,,,,,,,,,,,,,,,,,,,,,,,,,,,,,,,,,,,,,,,,
,,,,,,,,,,stimuli/images/PICTURE_380.png,PHOTO,5f0824a20370404639e81f77,05/06/1998,2020-08-13_12h48.43.662,proactive2,2020.1.2,Linux x86_64,60,5f341be081b9052c55068110,5f35288a269f0a47df67b6ee,1,,,,,,gorilla,,,,,,0,29,29,52,1,6,0,,,,,,,,,,,,,,,,,,,,,,,,,,,,,,,,,,,,,,,,,,,,,,,,,,,,,,,,,,,,,,,,,,,,,,,,,,,,,,,,,,,,,,,,,,,,,,,,,,,
,,,,,,,,,,stimuli/images/PICTURE_708.png,PENNY,5f0824a20370404639e81f77,05/06/1998,2020-08-13_12h48.43.662,proactive2,2020.1.2,Linux x86_64,60,5f341be081b9052c55068110,5f35288a269f0a47df67b6ee,1,,,,,,monkey,,,,,,0,30,30,31,1,4,0,,,,,,,,,,,,,,,,,,,,,,,,,,,,,,,,,,,,,,,,,,,,,,,,,,,,,,,,,,,,,,,,,,,,,,,,,,,,,,,,,,,,,,,,,,,,,,,,,,,
,,,,,,,,,,stimuli/images/PICTURE_233.png,WOMEN,5f0824a20370404639e81f77,05/06/1998,2020-08-13_12h48.43.662,proactive2,2020.1.2,Linux x86_64,60,5f341be081b9052c55068110,5f35288a269f0a47df67b6ee,1,,,,,,salt,,,,,,0,31,31,38,1,4,0,,,,,,,,,,,,,,,,,,,,,,,,,,,,,,,,,,,,,,,,,,,,,,,,,,,,,,,,,,,,,,,,,,,,,,,,,,,,,,,,,,,,,,,,,,,,,,,,,,,
,,,,,,,,,,stimuli/images/PICTURE_504.png,BODY,5f0824a20370404639e81f77,05/06/1998,2020-08-13_12h48.43.662,proactive2,2020.1.2,Linux x86_64,60,5f341be081b9052c55068110,5f35288a269f0a47df67b6ee,1,,,,,,wheel,,,,,,0,32,32,8,1,1,0,,,,,,,,,,,,,,,,,,,,,,,,,,,,,,,,,,,,,,,,,,,,,,,,,,,,,,,,,,,,,,,,,,,,,,,,,,,,,,,,,,,,,,,,,,,,,,,,,,,
,,,,,,,,,,stimuli/images/PICTURE_233.png,IDEAS,5f0824a20370404639e81f77,05/06/1998,2020-08-13_12h48.43.662,proactive2,2020.1.2,Linux x86_64,60,5f341be081b9052c55068110,5f35288a269f0a47df67b6ee,1,,,,,,salt,,,,,,0,33,33,28,1,3,0,,,,,,,,,,,,,,,,,,,,,,,,,,,,,,,,,,,,,,,,,,,,,,,,,,,,,,,,,,,,,,,,,,,,,,,,,,,,,,,,,,,,,,,,,,,,,,,,,,,
,,,,,,,,,,stimuli/images/PICTURE_491.png,ROOF,5f0824a20370404639e81f77,05/06/1998,2020-08-13_12h48.43.662,proactive2,2020.1.2,Linux x86_64,60,5f341be081b9052c55068110,5f35288a269f0a47df67b6ee,1,,,,,,rug,,,,,,0,34,34,24,1,3,0,,,,,,,,,,,,,,,,,,,,,,,,,,,,,,,,,,,,,,,,,,,,,,,,,,,,,,,,,,,,,,,,,,,,,,,,,,,,,,,,,,,,,,,,,,,,,,,,,,,
,,,,,,,,,,stimuli/images/PICTURE_314.png,GODS,5f0824a20370404639e81f77,05/06/1998,2020-08-13_12h48.43.662,proactive2,2020.1.2,Linux x86_64,60,5f341be081b9052c55068110,5f35288a269f0a47df67b6ee,1,,,,,,perfume,,,,,,0,35,35,11,1,2,0,,,,,,,,,,,,,,,,,,,,,,,,,,,,,,,,,,,,,,,,,,,,,,,,,,,,,,,,,,,,,,,,,,,,,,,,,,,,,,,,,,,,,,,,,,,,,,,,,,,
,,,,,,,,,,stimuli/images/PICTURE_667.png,BATH,5f0824a20370404639e81f77,05/06/1998,2020-08-13_12h48.43.662,proactive2,2020.1.2,Linux x86_64,60,5f341be081b9052c55068110,5f35288a269f0a47df67b6ee,1,,,,,,daisy,,,,,,0,36,36,4,1,1,0,,,,,,,,,,,,,,,,,,,,,,,,,,,,,,,,,,,,,,,,,,,,,,,,,,,,,,,,,,,,,,,,,,,,,,,,,,,,,,,,,,,,,,,,,,,,,,,,,,,
,,,,,,,,,,stimuli/images/PICTURE_208.png,THING,5f0824a20370404639e81f77,05/06/1998,2020-08-13_12h48.43.662,proactive2,2020.1.2,Linux x86_64,60,5f341be081b9052c55068110,5f35288a269f0a47df67b6ee,1,,,,,,microphone,,,,,,0,37,37,47,1,5,0,,,,,,,,,,,,,,,,,,,,,,,,,,,,,,,,,,,,,,,,,,,,,,,,,,,,,,,,,,,,,,,,,,,,,,,,,,,,,,,,,,,,,,,,,,,,,,,,,,,
,,,,,,,,,,stimuli/images/PICTURE_348.png,SPEECH,5f0824a20370404639e81f77,05/06/1998,2020-08-13_12h48.43.662,proactive2,2020.1.2,Linux x86_64,60,5f341be081b9052c55068110,5f35288a269f0a47df67b6ee,1,,,,,,pepper,,,,,,0,38,38,20,1,3,0,,,,,,,,,,,,,,,,,,,,,,,,,,,,,,,,,,,,,,,,,,,,,,,,,,,,,,,,,,,,,,,,,,,,,,,,,,,,,,,,,,,,,,,,,,,,,,,,,,,
,,,,,,,,,,stimuli/images/PICTURE_308.png,ESTATE,5f0824a20370404639e81f77,05/06/1998,2020-08-13_12h48.43.662,proactive2,2020.1.2,Linux x86_64,60,5f341be081b9052c55068110,5f35288a269f0a47df67b6ee,1,,,,,,dice,,,,,,0,39,39,46,1,5,0,,,,,,,,,,,,,,,,,,,,,,,,,,,,,,,,,,,,,,,,,,,,,,,,,,,,,,,,,,,,,,,,,,,,,,,,,,,,,,,,,,,,,,,,,,,,,,,,,,,
,,,,,,,,,,stimuli/images/PICTURE_151.png,GIRL,5f0824a20370404639e81f77,05/06/1998,2020-08-13_12h48.43.662,proactive2,2020.1.2,Linux x86_64,60,5f341be081b9052c55068110,5f35288a269f0a47df67b6ee,1,,,,,,tray,,,,,,0,40,40,19,1,2,0,,,,,,,,,,,,,,,,,,,,,,,,,,,,,,,,,,,,,,,,,,,,,,,,,,,,,,,,,,,,,,,,,,,,,,,,,,,,,,,,,,,,,,,,,,,,,,,,,,,
,,,,,,,,,,stimuli/images/PICTURE_327.png,BEAUTY,5f0824a20370404639e81f77,05/06/1998,2020-08-13_12h48.43.662,proactive2,2020.1.2,Linux x86_64,60,5f341be081b9052c55068110,5f35288a269f0a47df67b6ee,1,,,,,,helmet,,,,,,0,41,41,48,1,5,0,,,,,,,,,,,,,,,,,,,,,,,,,,,,,,,,,,,,,,,,,,,,,,,,,,,,,,,,,,,,,,,,,,,,,,,,,,,,,,,,,,,,,,,,,,,,,,,,,,,
,,,,,,,,,,stimuli/images/PICTURE_308.png,KIND,5f0824a20370404639e81f77,05/06/1998,2020-08-13_12h48.43.662,proactive2,2020.1.2,Linux x86_64,60,5f341be081b9052c55068110,5f35288a269f0a47df67b6ee,1,,,,,,dice,,,,,,0,42,42,54,1,6,0,,,,,,,,,,,,,,,,,,,,,,,,,,,,,,,,,,,,,,,,,,,,,,,,,,,,,,,,,,,,,,,,,,,,,,,,,,,,,,,,,,,,,,,,,,,,,,,,,,,
,,,,,,,,,,stimuli/images/PICTURE_356.png,DANGER,5f0824a20370404639e81f77,05/06/1998,2020-08-13_12h48.43.662,proactive2,2020.1.2,Linux x86_64,60,5f341be081b9052c55068110,5f35288a269f0a47df67b6ee,1,,,,,,pawn,,,,,,0,43,43,55,1,6,0,,,,,,,,,,,,,,,,,,,,,,,,,,,,,,,,,,,,,,,,,,,,,,,,,,,,,,,,,,,,,,,,,,,,,,,,,,,,,,,,,,,,,,,,,,,,,,,,,,,
