consent_key.keys,consent_key.rt,recalled,recalled_rt,recall_acc,example_recall.thisRepN,example_recall.thisTrialN,example_recall.thisN,example_recall.thisIndex,example_recall.ran,file,word,participant,please enter your date of birth (dd/mm/yyyy),date,expName,psychopyVersion,OS,frameRate,STUDY_ID,SESSION_ID,list,prac_learn_study_loop.thisRepN,prac_learn_study_loop.thisTrialN,prac_learn_study_loop.thisN,prac_learn_study_loop.thisIndex,prac_learn_study_loop.ran,image,prac_learn_test_loop.thisRepN,prac_learn_test_loop.thisTrialN,prac_learn_test_loop.thisN,prac_learn_test_loop.thisIndex,prac_learn_test_loop.ran,learn_study_loop.thisRepN,learn_study_loop.thisTrialN,learn_study_loop.thisN,learn_study_loop.thisIndex,learn_study_loop.ran,list_no,block_no,learn_test_loop.thisRepN,learn_test_loop.thisTrialN,learn_test_loop.thisN,learn_test_loop.thisIndex,learn_test_loop.ran,learn_blocks.thisRepN,learn_blocks.thisTrialN,learn_blocks.thisN,learn_blocks.thisIndex,learn_blocks.ran,block_csv,key_resp_13.keys,key_resp_13.rt,learn_blocks_loop.thisRepN,learn_blocks_loop.thisTrialN,learn_blocks_loop.thisN,learn_blocks_loop.thisIndex,learn_blocks_loop.ran,final_learn_test.thisRepN,final_learn_test.thisTrialN,final_learn_test.thisN,final_learn_test.thisIndex,final_learn_test.ran,s_im1,s_im2,s_im3,s_im4,s_im5,s_im6,s_im7,s_im8,s_im1pos,s_im2pos,s_im3pos,s_im4pos,s_im5pos,s_im6pos,s_im7pos,s_im8pos,s_tarright,search_resp.keys,search_resp.rt,search_loop.thisRepN,search_loop.thisTrialN,search_loop.thisN,search_loop.thisIndex,search_loop.ran,prac_wm_test_loop.thisRepN,prac_wm_test_loop.thisTrialN,prac_wm_test_loop.thisN,prac_wm_test_loop.thisIndex,prac_wm_test_loop.ran,wm_recalled1,wm_recall_rt1,wm_probed1,wm_recall_acc1,wm_recalled2,wm_recall_rt2,wm_probed2,wm_recall_acc2,wm_recalled3,wm_recall_rt3,wm_probed3,wm_recall_acc3,wm_recalled4,wm_recall_rt4,wm_probed4,wm_recall_acc4,prac_wm_trial_loop.thisRepN,prac_wm_trial_loop.thisTrialN,prac_wm_trial_loop.thisN,prac_wm_trial_loop.thisIndex,prac_wm_trial_loop.ran,word1,image1,file1,item_type1,word2,image2,file2,item_type2,word4,image4,file4,item_type4,word3,image3,file3,item_type3,wm_test_loop.thisRepN,wm_test_loop.thisTrialN,wm_test_loop.thisN,wm_test_loop.thisIndex,wm_test_loop.ran,wm_trial_loop.thisRepN,wm_trial_loop.thisTrialN,wm_trial_loop.thisN,wm_trial_loop.thisIndex,wm_trial_loop.ran
y,7.91432,BATH,6.410665,0,0,0,0,0,1,stimuli/images/PICTURE_747.png,TOUGH,5f1636568f0a801a56474836,17/08/2001,2020-08-13_13h01.56.468,proactive2,2020.1.2,Win32,60,5f341be081b9052c55068110,5f352ba150ffd64921b6f91e,2,,,,,,,,,,,,,,,,,,,,,,,,,,,,,,,,,,,,,,,,,,,,,,,,,,,,,,,,,,,,,,,,,,,,,,,,,,,,,,,,,,,,,,,,,,,,,,,,,,,,,,,,,,,,,,,,,,,,,
,,,,,,,,,,stimuli/images/PICTURE_378.png,LOSS,5f1636568f0a801a56474836,17/08/2001,2020-08-13_13h01.56.468,proactive2,2020.1.2,Win32,60,5f341be081b9052c55068110,5f352ba150ffd64921b6f91e,2,0,0,0,2,1,lobster,,,,,,,,,,,,,,,,,,,,,,,,,,,,,,,,,,,,,,,,,,,,,,,,,,,,,,,,,,,,,,,,,,,,,,,,,,,,,,,,,,,,,,,,,,,,,,,,,,,,,,,,,,,,,,,
,,,,,,,,,,stimuli/images/PICTURE_697.png,KILLER,5f1636568f0a801a56474836,17/08/2001,2020-08-13_13h01.56.468,proactive2,2020.1.2,Win32,60,5f341be081b9052c55068110,5f352ba150ffd64921b6f91e,2,0,1,1,4,1,peach,,,,,,,,,,,,,,,,,,,,,,,,,,,,,,,,,,,,,,,,,,,,,,,,,,,,,,,,,,,,,,,,,,,,,,,,,,,,,,,,,,,,,,,,,,,,,,,,,,,,,,,,,,,,,,,
,,,,,,,,,,stimuli/images/PICTURE_658.png,DEVIL,5f1636568f0a801a56474836,17/08/2001,2020-08-13_13h01.56.468,proactive2,2020.1.2,Win32,60,5f341be081b9052c55068110,5f352ba150ffd64921b6f91e,2,0,2,2,3,1,crow,,,,,,,,,,,,,,,,,,,,,,,,,,,,,,,,,,,,,,,,,,,,,,,,,,,,,,,,,,,,,,,,,,,,,,,,,,,,,,,,,,,,,,,,,,,,,,,,,,,,,,,,,,,,,,,
,,,,,,,,,,stimuli/images/PICTURE_269.png,GENIUS,5f1636568f0a801a56474836,17/08/2001,2020-08-13_13h01.56.468,proactive2,2020.1.2,Win32,60,5f341be081b9052c55068110,5f352ba150ffd64921b6f91e,2,0,3,3,0,1,chameleon,,,,,,,,,,,,,,,,,,,,,,,,,,,,,,,,,,,,,,,,,,,,,,,,,,,,,,,,,,,,,,,,,,,,,,,,,,,,,,,,,,,,,,,,,,,,,,,,,,,,,,,,,,,,,,,
,,DEVIL,3.027885,1,,,,,,stimuli/images/PICTURE_658.png,DEVIL,5f1636568f0a801a56474836,17/08/2001,2020-08-13_13h01.56.468,proactive2,2020.1.2,Win32,60,5f341be081b9052c55068110,5f352ba150ffd64921b6f91e,2,,,,,,crow,0,0,0,3,1,,,,,,,,,,,,,,,,,,,,,,,,,,,,,,,,,,,,,,,,,,,,,,,,,,,,,,,,,,,,,,,,,,,,,,,,,,,,,,,,,,,,,,,,,,,,,,,,,,,,,,,,,,
,,KILL,7.22976,0,,,,,,stimuli/images/PICTURE_727.png,CELL,5f1636568f0a801a56474836,17/08/2001,2020-08-13_13h01.56.468,proactive2,2020.1.2,Win32,60,5f341be081b9052c55068110,5f352ba150ffd64921b6f91e,2,,,,,,hose,0,1,1,1,1,,,,,,,,,,,,,,,,,,,,,,,,,,,,,,,,,,,,,,,,,,,,,,,,,,,,,,,,,,,,,,,,,,,,,,,,,,,,,,,,,,,,,,,,,,,,,,,,,,,,,,,,,,
,,LOSS,3.89627,1,,,,,,stimuli/images/PICTURE_378.png,LOSS,5f1636568f0a801a56474836,17/08/2001,2020-08-13_13h01.56.468,proactive2,2020.1.2,Win32,60,5f341be081b9052c55068110,5f352ba150ffd64921b6f91e,2,,,,,,lobster,0,2,2,2,1,,,,,,,,,,,,,,,,,,,,,,,,,,,,,,,,,,,,,,,,,,,,,,,,,,,,,,,,,,,,,,,,,,,,,,,,,,,,,,,,,,,,,,,,,,,,,,,,,,,,,,,,,,
,,KILLER,2.209405,1,,,,,,stimuli/images/PICTURE_697.png,KILLER,5f1636568f0a801a56474836,17/08/2001,2020-08-13_13h01.56.468,proactive2,2020.1.2,Win32,60,5f341be081b9052c55068110,5f352ba150ffd64921b6f91e,2,,,,,,peach,0,3,3,4,1,,,,,,,,,,,,,,,,,,,,,,,,,,,,,,,,,,,,,,,,,,,,,,,,,,,,,,,,,,,,,,,,,,,,,,,,,,,,,,,,,,,,,,,,,,,,,,,,,,,,,,,,,,
,,GENIUS,2.51476,1,,,,,,stimuli/images/PICTURE_269.png,GENIUS,5f1636568f0a801a56474836,17/08/2001,2020-08-13_13h01.56.468,proactive2,2020.1.2,Win32,60,5f341be081b9052c55068110,5f352ba150ffd64921b6f91e,2,,,,,,chameleon,0,4,4,0,1,,,,,,,,,,,,,,,,,,,,,,,,,,,,,,,,,,,,,,,,,,,,,,,,,,,,,,,,,,,,,,,,,,,,,,,,,,,,,,,,,,,,,,,,,,,,,,,,,,,,,,,,,,
,,,,,,,,,,stimuli/images/PICTURE_32.png,PILLS,5f1636568f0a801a56474836,17/08/2001,2020-08-13_13h01.56.468,proactive2,2020.1.2,Win32,60,5f341be081b9052c55068110,5f352ba150ffd64921b6f91e,2,,,,,,crown,,,,,,0,0,0,18,1,2,1,,,,,,,,,,,,,,,,,,,,,,,,,,,,,,,,,,,,,,,,,,,,,,,,,,,,,,,,,,,,,,,,,,,,,,,,,,,,,,,,,,,,,,,,,,,,,,,,,,,
,,,,,,,,,,stimuli/images/PICTURE_405.png,PLENTY,5f1636568f0a801a56474836,17/08/2001,2020-08-13_13h01.56.468,proactive2,2020.1.2,Win32,60,5f341be081b9052c55068110,5f352ba150ffd64921b6f91e,2,,,,,,anchor,,,,,,0,1,1,23,1,3,1,,,,,,,,,,,,,,,,,,,,,,,,,,,,,,,,,,,,,,,,,,,,,,,,,,,,,,,,,,,,,,,,,,,,,,,,,,,,,,,,,,,,,,,,,,,,,,,,,,,
,,,,,,,,,,stimuli/images/PICTURE_297.png,RIVER,5f1636568f0a801a56474836,17/08/2001,2020-08-13_13h01.56.468,proactive2,2020.1.2,Win32,60,5f341be081b9052c55068110,5f352ba150ffd64921b6f91e,2,,,,,,aeroplane,,,,,,0,2,2,39,1,4,1,,,,,,,,,,,,,,,,,,,,,,,,,,,,,,,,,,,,,,,,,,,,,,,,,,,,,,,,,,,,,,,,,,,,,,,,,,,,,,,,,,,,,,,,,,,,,,,,,,,
,,,,,,,,,,stimuli/images/PICTURE_491.png,GLASS,5f1636568f0a801a56474836,17/08/2001,2020-08-13_13h01.56.468,proactive2,2020.1.2,Win32,60,5f341be081b9052c55068110,5f352ba150ffd64921b6f91e,2,,,,,,rug,,,,,,0,3,3,14,1,2,1,,,,,,,,,,,,,,,,,,,,,,,,,,,,,,,,,,,,,,,,,,,,,,,,,,,,,,,,,,,,,,,,,,,,,,,,,,,,,,,,,,,,,,,,,,,,,,,,,,,
,,,,,,,,,,stimuli/images/PICTURE_2.png,FLIGHT,5f1636568f0a801a56474836,17/08/2001,2020-08-13_13h01.56.468,proactive2,2020.1.2,Win32,60,5f341be081b9052c55068110,5f352ba150ffd64921b6f91e,2,,,,,,tyre,,,,,,0,4,4,15,1,2,1,,,,,,,,,,,,,,,,,,,,,,,,,,,,,,,,,,,,,,,,,,,,,,,,,,,,,,,,,,,,,,,,,,,,,,,,,,,,,,,,,,,,,,,,,,,,,,,,,,,
,,,,,,,,,,stimuli/images/PICTURE_405.png,YEAR,5f1636568f0a801a56474836,17/08/2001,2020-08-13_13h01.56.468,proactive2,2020.1.2,Win32,60,5f341be081b9052c55068110,5f352ba150ffd64921b6f91e,2,,,,,,anchor,,,,,,0,5,5,34,1,4,1,,,,,,,,,,,,,,,,,,,,,,,,,,,,,,,,,,,,,,,,,,,,,,,,,,,,,,,,,,,,,,,,,,,,,,,,,,,,,,,,,,,,,,,,,,,,,,,,,,,
,,,,,,,,,,stimuli/images/PICTURE_504.png,YEAR,5f1636568f0a801a56474836,17/08/2001,2020-08-13_13h01.56.468,proactive2,2020.1.2,Win32,60,5f341be081b9052c55068110,5f352ba150ffd64921b6f91e,2,,,,,,wheel,,,,,,0,6,6,13,1,2,1,,,,,,,,,,,,,,,,,,,,,,,,,,,,,,,,,,,,,,,,,,,,,,,,,,,,,,,,,,,,,,,,,,,,,,,,,,,,,,,,,,,,,,,,,,,,,,,,,,,
,,,,,,,,,,stimuli/images/PICTURE_147.png,YEAR,5f1636568f0a801a56474836,17/08/2001,2020-08-13_13h01.56.468,proactive2,2020.1.2,Win32,60,5f341be081b9052c55068110,5f352ba150ffd64921b6f91e,2,,,,,,hanger,,,,,,0,7,7,21,1,3,1,,,,,,,,,,,,,,,,,,,,,,,,,,,,,,,,,,,,,,,,,,,,,,,,,,,,,,,,,,,,,,,,,,,,,,,,,,,,,,,,,,,,,,,,,,,,,,,,,,,
,,,,,,,,,,stimuli/images/PICTURE_750.png,HOTEL,5f1636568f0a801a56474836,17/08/2001,2020-08-13_13h01.56.468,proactive2,2020.1.2,Win32,60,5f341be081b9052c55068110,5f352ba150ffd64921b6f91e,2,,,,,,kettle,,,,,,0,8,8,27,1,3,1,,,,,,,,,,,,,,,,,,,,,,,,,,,,,,,,,,,,,,,,,,,,,,,,,,,,,,,,,,,,,,,,,,,,,,,,,,,,,,,,,,,,,,,,,,,,,,,,,,,
,,,,,,,,,,stimuli/images/PICTURE_685.png,PENNY,5f1636568f0a801a56474836,17/08/2001,2020-08-13_13h01.56.468,proactive2,2020.1.2,Win32,60,5f341be081b9052c55068110,5f352ba150ffd64921b6f91e,2,,,,,,goose,,,,,,0,9,9,4,1,1,1,,,,,,,,,,,,,,,,,,,,,,,,,,,,,,,,,,,,,,,,,,,,,,,,,,,,,,,,,,,,,,,,,,,,,,,,,,,,,,,,,,,,,,,,,,,,,,,,,,,
,,,,,,,,,,stimuli/images/PICTURE_177.png,WRITER,5f1636568f0a801a56474836,17/08/2001,2020-08-13_13h01.56.468,proactive2,2020.1.2,Win32,60,5f341be081b9052c55068110,5f352ba150ffd64921b6f91e,2,,,,,,mushroom,,,,,,0,10,10,41,1,5,1,,,,,,,,,,,,,,,,,,,,,,,,,,,,,,,,,,,,,,,,,,,,,,,,,,,,,,,,,,,,,,,,,,,,,,,,,,,,,,,,,,,,,,,,,,,,,,,,,,,
,,,,,,,,,,stimuli/images/PICTURE_487.png,GIRL,5f1636568f0a801a56474836,17/08/2001,2020-08-13_13h01.56.468,proactive2,2020.1.2,Win32,60,5f341be081b9052c55068110,5f352ba150ffd64921b6f91e,2,,,,,,basket,,,,,,0,11,11,45,1,5,1,,,,,,,,,,,,,,,,,,,,,,,,,,,,,,,,,,,,,,,,,,,,,,,,,,,,,,,,,,,,,,,,,,,,,,,,,,,,,,,,,,,,,,,,,,,,,,,,,,,
,,,,,,,,,,stimuli/images/PICTURE_654.png,MONTH,5f1636568f0a801a56474836,17/08/2001,2020-08-13_13h01.56.468,proactive2,2020.1.2,Win32,60,5f341be081b9052c55068110,5f352ba150ffd64921b6f91e,2,,,,,,pencil,,,,,,0,12,12,29,1,3,1,,,,,,,,,,,,,,,,,,,,,,,,,,,,,,,,,,,,,,,,,,,,,,,,,,,,,,,,,,,,,,,,,,,,,,,,,,,,,,,,,,,,,,,,,,,,,,,,,,,
,,,,,,,,,,stimuli/images/PICTURE_285.png,LIFE,5f1636568f0a801a56474836,17/08/2001,2020-08-13_13h01.56.468,proactive2,2020.1.2,Win32,60,5f341be081b9052c55068110,5f352ba150ffd64921b6f91e,2,,,,,,carrot,,,,,,0,13,13,33,1,4,1,,,,,,,,,,,,,,,,,,,,,,,,,,,,,,,,,,,,,,,,,,,,,,,,,,,,,,,,,,,,,,,,,,,,,,,,,,,,,,,,,,,,,,,,,,,,,,,,,,,
,,,,,,,,,,stimuli/images/PICTURE_675.png,SALE,5f1636568f0a801a56474836,17/08/2001,2020-08-13_13h01.56.468,proactive2,2020.1.2,Win32,60,5f341be081b9052c55068110,5f352ba150ffd64921b6f91e,2,,,,,,windmill,,,,,,0,14,14,47,1,5,1,,,,,,,,,,,,,,,,,,,,,,,,,,,,,,,,,,,,,,,,,,,,,,,,,,,,,,,,,,,,,,,,,,,,,,,,,,,,,,,,,,,,,,,,,,,,,,,,,,,
,,,,,,,,,,stimuli/images/PICTURE_340.png,LETTER,5f1636568f0a801a56474836,17/08/2001,2020-08-13_13h01.56.468,proactive2,2020.1.2,Win32,60,5f341be081b9052c55068110,5f352ba150ffd64921b6f91e,2,,,,,,mirror,,,,,,0,15,15,24,1,3,1,,,,,,,,,,,,,,,,,,,,,,,,,,,,,,,,,,,,,,,,,,,,,,,,,,,,,,,,,,,,,,,,,,,,,,,,,,,,,,,,,,,,,,,,,,,,,,,,,,,
,,,,,,,,,,stimuli/images/PICTURE_677.png,APPLE,5f1636568f0a801a56474836,17/08/2001,2020-08-13_13h01.56.468,proactive2,2020.1.2,Win32,60,5f341be081b9052c55068110,5f352ba150ffd64921b6f91e,2,,,,,,map,,,,,,0,16,16,43,1,5,1,,,,,,,,,,,,,,,,,,,,,,,,,,,,,,,,,,,,,,,,,,,,,,,,,,,,,,,,,,,,,,,,,,,,,,,,,,,,,,,,,,,,,,,,,,,,,,,,,,,
,,,,,,,,,,stimuli/images/PICTURE_504.png,COPS,5f1636568f0a801a56474836,17/08/2001,2020-08-13_13h01.56.468,proactive2,2020.1.2,Win32,60,5f341be081b9052c55068110,5f352ba150ffd64921b6f91e,2,,,,,,wheel,,,,,,0,17,17,52,1,6,1,,,,,,,,,,,,,,,,,,,,,,,,,,,,,,,,,,,,,,,,,,,,,,,,,,,,,,,,,,,,,,,,,,,,,,,,,,,,,,,,,,,,,,,,,,,,,,,,,,,
,,,,,,,,,,stimuli/images/PICTURE_340.png,VALLEY,5f1636568f0a801a56474836,17/08/2001,2020-08-13_13h01.56.468,proactive2,2020.1.2,Win32,60,5f341be081b9052c55068110,5f352ba150ffd64921b6f91e,2,,,,,,mirror,,,,,,0,18,18,54,1,6,1,,,,,,,,,,,,,,,,,,,,,,,,,,,,,,,,,,,,,,,,,,,,,,,,,,,,,,,,,,,,,,,,,,,,,,,,,,,,,,,,,,,,,,,,,,,,,,,,,,,
,,,,,,,,,,stimuli/images/PICTURE_68.png,ROOF,5f1636568f0a801a56474836,17/08/2001,2020-08-13_13h01.56.468,proactive2,2020.1.2,Win32,60,5f341be081b9052c55068110,5f352ba150ffd64921b6f91e,2,,,,,,candle,,,,,,0,19,19,38,1,4,1,,,,,,,,,,,,,,,,,,,,,,,,,,,,,,,,,,,,,,,,,,,,,,,,,,,,,,,,,,,,,,,,,,,,,,,,,,,,,,,,,,,,,,,,,,,,,,,,,,,
,,,,,,,,,,stimuli/images/PICTURE_108.png,FLIGHT,5f1636568f0a801a56474836,17/08/2001,2020-08-13_13h01.56.468,proactive2,2020.1.2,Win32,60,5f341be081b9052c55068110,5f352ba150ffd64921b6f91e,2,,,,,,calendar,,,,,,0,20,20,59,1,6,1,,,,,,,,,,,,,,,,,,,,,,,,,,,,,,,,,,,,,,,,,,,,,,,,,,,,,,,,,,,,,,,,,,,,,,,,,,,,,,,,,,,,,,,,,,,,,,,,,,,
,,,,,,,,,,stimuli/images/PICTURE_491.png,RIVER,5f1636568f0a801a56474836,17/08/2001,2020-08-13_13h01.56.468,proactive2,2020.1.2,Win32,60,5f341be081b9052c55068110,5f352ba150ffd64921b6f91e,2,,,,,,rug,,,,,,0,21,21,6,1,1,1,,,,,,,,,,,,,,,,,,,,,,,,,,,,,,,,,,,,,,,,,,,,,,,,,,,,,,,,,,,,,,,,,,,,,,,,,,,,,,,,,,,,,,,,,,,,,,,,,,,
,,,,,,,,,,stimuli/images/PICTURE_308.png,FAMILY,5f1636568f0a801a56474836,17/08/2001,2020-08-13_13h01.56.468,proactive2,2020.1.2,Win32,60,5f341be081b9052c55068110,5f352ba150ffd64921b6f91e,2,,,,,,dice,,,,,,0,22,22,36,1,4,1,,,,,,,,,,,,,,,,,,,,,,,,,,,,,,,,,,,,,,,,,,,,,,,,,,,,,,,,,,,,,,,,,,,,,,,,,,,,,,,,,,,,,,,,,,,,,,,,,,,
,,,,,,,,,,stimuli/images/PICTURE_655.png,TOILET,5f1636568f0a801a56474836,17/08/2001,2020-08-13_13h01.56.468,proactive2,2020.1.2,Win32,60,5f341be081b9052c55068110,5f352ba150ffd64921b6f91e,2,,,,,,megaphone,,,,,,0,23,23,12,1,2,1,,,,,,,,,,,,,,,,,,,,,,,,,,,,,,,,,,,,,,,,,,,,,,,,,,,,,,,,,,,,,,,,,,,,,,,,,,,,,,,,,,,,,,,,,,,,,,,,,,,
,,,,,,,,,,stimuli/images/PICTURE_42.png,BOYS,5f1636568f0a801a56474836,17/08/2001,2020-08-13_13h01.56.468,proactive2,2020.1.2,Win32,60,5f341be081b9052c55068110,5f352ba150ffd64921b6f91e,2,,,,,,pear,,,,,,0,24,24,55,1,6,1,,,,,,,,,,,,,,,,,,,,,,,,,,,,,,,,,,,,,,,,,,,,,,,,,,,,,,,,,,,,,,,,,,,,,,,,,,,,,,,,,,,,,,,,,,,,,,,,,,,
,,,,,,,,,,stimuli/images/PICTURE_233.png,LOTS,5f1636568f0a801a56474836,17/08/2001,2020-08-13_13h01.56.468,proactive2,2020.1.2,Win32,60,5f341be081b9052c55068110,5f352ba150ffd64921b6f91e,2,,,,,,salt,,,,,,0,25,25,42,1,5,1,,,,,,,,,,,,,,,,,,,,,,,,,,,,,,,,,,,,,,,,,,,,,,,,,,,,,,,,,,,,,,,,,,,,,,,,,,,,,,,,,,,,,,,,,,,,,,,,,,,
,,,,,,,,,,stimuli/images/PICTURE_708.png,RECORD,5f1636568f0a801a56474836,17/08/2001,2020-08-13_13h01.56.468,proactive2,2020.1.2,Win32,60,5f341be081b9052c55068110,5f352ba150ffd64921b6f91e,2,,,,,,monkey,,,,,,0,26,26,58,1,6,1,,,,,,,,,,,,,,,,,,,,,,,,,,,,,,,,,,,,,,,,,,,,,,,,,,,,,,,,,,,,,,,,,,,,,,,,,,,,,,,,,,,,,,,,,,,,,,,,,,,
,,,,,,,,,,stimuli/images/PICTURE_95.png,BOYS,5f1636568f0a801a56474836,17/08/2001,2020-08-13_13h01.56.468,proactive2,2020.1.2,Win32,60,5f341be081b9052c55068110,5f352ba150ffd64921b6f91e,2,,,,,,suitcase,,,,,,0,27,27,1,1,1,1,,,,,,,,,,,,,,,,,,,,,,,,,,,,,,,,,,,,,,,,,,,,,,,,,,,,,,,,,,,,,,,,,,,,,,,,,,,,,,,,,,,,,,,,,,,,,,,,,,,
,,,,,,,,,,stimuli/images/PICTURE_339.png,CLIENT,5f1636568f0a801a56474836,17/08/2001,2020-08-13_13h01.56.468,proactive2,2020.1.2,Win32,60,5f341be081b9052c55068110,5f352ba150ffd64921b6f91e,2,,,,,,backpack,,,,,,0,28,28,11,1,2,1,,,,,,,,,,,,,,,,,,,,,,,,,,,,,,,,,,,,,,,,,,,,,,,,,,,,,,,,,,,,,,,,,,,,,,,,,,,,,,,,,,,,,,,,,,,,,,,,,,,
,,,,,,,,,,stimuli/images/PICTURE_32.png,KIND,5f1636568f0a801a56474836,17/08/2001,2020-08-13_13h01.56.468,proactive2,2020.1.2,Win32,60,5f341be081b9052c55068110,5f352ba150ffd64921b6f91e,2,,,,,,crown,,,,,,0,29,29,35,1,4,1,,,,,,,,,,,,,,,,,,,,,,,,,,,,,,,,,,,,,,,,,,,,,,,,,,,,,,,,,,,,,,,,,,,,,,,,,,,,,,,,,,,,,,,,,,,,,,,,,,,
,,,,,,,,,,stimuli/images/PICTURE_95.png,MILLER,5f1636568f0a801a56474836,17/08/2001,2020-08-13_13h01.56.468,proactive2,2020.1.2,Win32,60,5f341be081b9052c55068110,5f352ba150ffd64921b6f91e,2,,,,,,suitcase,,,,,,0,30,30,56,1,6,1,,,,,,,,,,,,,,,,,,,,,,,,,,,,,,,,,,,,,,,,,,,,,,,,,,,,,,,,,,,,,,,,,,,,,,,,,,,,,,,,,,,,,,,,,,,,,,,,,,,
,,,,,,,,,,stimuli/images/PICTURE_95.png,HONEY,5f1636568f0a801a56474836,17/08/2001,2020-08-13_13h01.56.468,proactive2,2020.1.2,Win32,60,5f341be081b9052c55068110,5f352ba150ffd64921b6f91e,2,,,,,,suitcase,,,,,,0,31,31,44,1,5,1,,,,,,,,,,,,,,,,,,,,,,,,,,,,,,,,,,,,,,,,,,,,,,,,,,,,,,,,,,,,,,,,,,,,,,,,,,,,,,,,,,,,,,,,,,,,,,,,,,,
,,,,,,,,,,stimuli/images/PICTURE_296.png,LOTS,5f1636568f0a801a56474836,17/08/2001,2020-08-13_13h01.56.468,proactive2,2020.1.2,Win32,60,5f341be081b9052c55068110,5f352ba150ffd64921b6f91e,2,,,,,,bolt,,,,,,0,32,32,9,1,1,1,,,,,,,,,,,,,,,,,,,,,,,,,,,,,,,,,,,,,,,,,,,,,,,,,,,,,,,,,,,,,,,,,,,,,,,,,,,,,,,,,,,,,,,,,,,,,,,,,,,
,,,,,,,,,,stimuli/images/PICTURE_327.png,CASINO,5f1636568f0a801a56474836,17/08/2001,2020-08-13_13h01.56.468,proactive2,2020.1.2,Win32,60,5f341be081b9052c55068110,5f352ba150ffd64921b6f91e,2,,,,,,helmet,,,,,,0,33,33,20,1,3,1,,,,,,,,,,,,,,,,,,,,,,,,,,,,,,,,,,,,,,,,,,,,,,,,,,,,,,,,,,,,,,,,,,,,,,,,,,,,,,,,,,,,,,,,,,,,,,,,,,,
,,,,,,,,,,stimuli/images/PICTURE_469.png,AGENT,5f1636568f0a801a56474836,17/08/2001,2020-08-13_13h01.56.468,proactive2,2020.1.2,Win32,60,5f341be081b9052c55068110,5f352ba150ffd64921b6f91e,2,,,,,,stool,,,,,,0,34,34,16,1,2,1,,,,,,,,,,,,,,,,,,,,,,,,,,,,,,,,,,,,,,,,,,,,,,,,,,,,,,,,,,,,,,,,,,,,,,,,,,,,,,,,,,,,,,,,,,,,,,,,,,,
,,,,,,,,,,stimuli/images/PICTURE_208.png,SYSTEM,5f1636568f0a801a56474836,17/08/2001,2020-08-13_13h01.56.468,proactive2,2020.1.2,Win32,60,5f341be081b9052c55068110,5f352ba150ffd64921b6f91e,2,,,,,,microphone,,,,,,0,35,35,32,1,4,1,,,,,,,,,,,,,,,,,,,,,,,,,,,,,,,,,,,,,,,,,,,,,,,,,,,,,,,,,,,,,,,,,,,,,,,,,,,,,,,,,,,,,,,,,,,,,,,,,,,
,,,,,,,,,,stimuli/images/PICTURE_380.png,HONEY,5f1636568f0a801a56474836,17/08/2001,2020-08-13_13h01.56.468,proactive2,2020.1.2,Win32,60,5f341be081b9052c55068110,5f352ba150ffd64921b6f91e,2,,,,,,gorilla,,,,,,0,36,36,19,1,2,1,,,,,,,,,,,,,,,,,,,,,,,,,,,,,,,,,,,,,,,,,,,,,,,,,,,,,,,,,,,,,,,,,,,,,,,,,,,,,,,,,,,,,,,,,,,,,,,,,,,
,,,,,,,,,,stimuli/images/PICTURE_564.png,BATH,5f1636568f0a801a56474836,17/08/2001,2020-08-13_13h01.56.468,proactive2,2020.1.2,Win32,60,5f341be081b9052c55068110,5f352ba150ffd64921b6f91e,2,,,,,,spoon,,,,,,0,37,37,26,1,3,1,,,,,,,,,,,,,,,,,,,,,,,,,,,,,,,,,,,,,,,,,,,,,,,,,,,,,,,,,,,,,,,,,,,,,,,,,,,,,,,,,,,,,,,,,,,,,,,,,,,
,,,,,,,,,,stimuli/images/PICTURE_383.png,WRITER,5f1636568f0a801a56474836,17/08/2001,2020-08-13_13h01.56.468,proactive2,2020.1.2,Win32,60,5f341be081b9052c55068110,5f352ba150ffd64921b6f91e,2,,,,,,coin,,,,,,0,38,38,28,1,3,1,,,,,,,,,,,,,,,,,,,,,,,,,,,,,,,,,,,,,,,,,,,,,,,,,,,,,,,,,,,,,,,,,,,,,,,,,,,,,,,,,,,,,,,,,,,,,,,,,,,
,,,,,,,,,,stimuli/images/PICTURE_403.png,WRITER,5f1636568f0a801a56474836,17/08/2001,2020-08-13_13h01.56.468,proactive2,2020.1.2,Win32,60,5f341be081b9052c55068110,5f352ba150ffd64921b6f91e,2,,,,,,cathedral,,,,,,0,39,39,31,1,4,1,,,,,,,,,,,,,,,,,,,,,,,,,,,,,,,,,,,,,,,,,,,,,,,,,,,,,,,,,,,,,,,,,,,,,,,,,,,,,,,,,,,,,,,,,,,,,,,,,,,
,,,,,,,,,,stimuli/images/PICTURE_147.png,WOMEN,5f1636568f0a801a56474836,17/08/2001,2020-08-13_13h01.56.468,proactive2,2020.1.2,Win32,60,5f341be081b9052c55068110,5f352ba150ffd64921b6f91e,2,,,,,,hanger,,,,,,0,40,40,7,1,1,1,,,,,,,,,,,,,,,,,,,,,,,,,,,,,,,,,,,,,,,,,,,,,,,,,,,,,,,,,,,,,,,,,,,,,,,,,,,,,,,,,,,,,,,,,,,,,,,,,,,
,,,,,,,,,,stimuli/images/PICTURE_449.png,DUDE,5f1636568f0a801a56474836,17/08/2001,2020-08-13_13h01.56.468,proactive2,2020.1.2,Win32,60,5f341be081b9052c55068110,5f352ba150ffd64921b6f91e,2,,,,,,bench,,,,,,0,41,41,17,1,2,1,,,,,,,,,,,,,,,,,,,,,,,,,,,,,,,,,,,,,,,,,,,,,,,,,,,,,,,,,,,,,,,,,,,,,,,,,,,,,,,,,,,,,,,,,,,,,,,,,,,
,,,,,,,,,,stimuli/images/PICTURE_296.png,LIFE,5f1636568f0a801a56474836,17/08/2001,2020-08-13_13h01.56.468,proactive2,2020.1.2,Win32,60,5f341be081b9052c55068110,5f352ba150ffd64921b6f91e,2,,,,,,bolt,,,,,,0,42,42,57,1,6,1,,,,,,,,,,,,,,,,,,,,,,,,,,,,,,,,,,,,,,,,,,,,,,,,,,,,,,,,,,,,,,,,,,,,,,,,,,,,,,,,,,,,,,,,,,,,,,,,,,,
,,,,,,,,,,stimuli/images/PICTURE_504.png,ARTIST,5f1636568f0a801a56474836,17/08/2001,2020-08-13_13h01.56.468,proactive2,2020.1.2,Win32,60,5f341be081b9052c55068110,5f352ba150ffd64921b6f91e,2,,,,,,wheel,,,,,,0,43,43,49,1,5,1,,,,,,,,,,,,,,,,,,,,,,,,,,,,,,,,,,,,,,,,,,,,,,,,,,,,,,,,,,,,,,,,,,,,,,,,,,,,,,,,,,,,,,,,,,,,,,,,,,,
,,,,,,,,,,stimuli/images/PICTURE_327.png,SERIES,5f1636568f0a801a56474836,17/08/2001,2020-08-13_13h01.56.468,proactive2,2020.1.2,Win32,60,5f341be081b9052c55068110,5f352ba150ffd64921b6f91e,2,,,,,,helmet,,,,,,0,44,44,3,1,1,1,,,,,,,,,,,,,,,,,,,,,,,,,,,,,,,,,,,,,,,,,,,,,,,,,,,,,,,,,,,,,,,,,,,,,,,,,,,,,,,,,,,,,,,,,,,,,,,,,,,
,,,,,,,,,,stimuli/images/PICTURE_380.png,CANDY,5f1636568f0a801a56474836,17/08/2001,2020-08-13_13h01.56.468,proactive2,2020.1.2,Win32,60,5f341be081b9052c55068110,5f352ba150ffd64921b6f91e,2,,,,,,gorilla,,,,,,0,45,45,0,1,1,1,,,,,,,,,,,,,,,,,,,,,,,,,,,,,,,,,,,,,,,,,,,,,,,,,,,,,,,,,,,,,,,,,,,,,,,,,,,,,,,,,,,,,,,,,,,,,,,,,,,
,,,,,,,,,,stimuli/images/PICTURE_403.png,TOILET,5f1636568f0a801a56474836,17/08/2001,2020-08-13_13h01.56.468,proactive2,2020.1.2,Win32,60,5f341be081b9052c55068110,5f352ba150ffd64921b6f91e,2,,,,,,cathedral,,,,,,0,46,46,25,1,3,1,,,,,,,,,,,,,,,,,,,,,,,,,,,,,,,,,,,,,,,,,,,,,,,,,,,,,,,,,,,,,,,,,,,,,,,,,,,,,,,,,,,,,,,,,,,,,,,,,,,
,,,,,,,,,,stimuli/images/PICTURE_85.png,TOILET,5f1636568f0a801a56474836,17/08/2001,2020-08-13_13h01.56.468,proactive2,2020.1.2,Win32,60,5f341be081b9052c55068110,5f352ba150ffd64921b6f91e,2,,,,,,diamond,,,,,,0,47,47,48,1,5,1,,,,,,,,,,,,,,,,,,,,,,,,,,,,,,,,,,,,,,,,,,,,,,,,,,,,,,,,,,,,,,,,,,,,,,,,,,,,,,,,,,,,,,,,,,,,,,,,,,,
,,,,,,,,,,stimuli/images/PICTURE_203.png,NIGHT,5f1636568f0a801a56474836,17/08/2001,2020-08-13_13h01.56.468,proactive2,2020.1.2,Win32,60,5f341be081b9052c55068110,5f352ba150ffd64921b6f91e,2,,,,,,cap,,,,,,0,48,48,2,1,1,1,,,,,,,,,,,,,,,,,,,,,,,,,,,,,,,,,,,,,,,,,,,,,,,,,,,,,,,,,,,,,,,,,,,,,,,,,,,,,,,,,,,,,,,,,,,,,,,,,,,
,,,,,,,,,,stimuli/images/PICTURE_403.png,RIVER,5f1636568f0a801a56474836,17/08/2001,2020-08-13_13h01.56.468,proactive2,2020.1.2,Win32,60,5f341be081b9052c55068110,5f352ba150ffd64921b6f91e,2,,,,,,cathedral,,,,,,0,49,49,40,1,5,1,,,,,,,,,,,,,,,,,,,,,,,,,,,,,,,,,,,,,,,,,,,,,,,,,,,,,,,,,,,,,,,,,,,,,,,,,,,,,,,,,,,,,,,,,,,,,,,,,,,
,,,,,,,,,,stimuli/images/PICTURE_68.png,MILE,5f1636568f0a801a56474836,17/08/2001,2020-08-13_13h01.56.468,proactive2,2020.1.2,Win32,60,5f341be081b9052c55068110,5f352ba150ffd64921b6f91e,2,,,,,,candle,,,,,,0,50,50,51,1,6,1,,,,,,,,,,,,,,,,,,,,,,,,,,,,,,,,,,,,,,,,,,,,,,,,,,,,,,,,,,,,,,,,,,,,,,,,,,,,,,,,,,,,,,,,,,,,,,,,,,,
,,,,,,,,,,stimuli/images/PICTURE_467.png,POLICY,5f1636568f0a801a56474836,17/08/2001,2020-08-13_13h01.56.468,proactive2,2020.1.2,Win32,60,5f341be081b9052c55068110,5f352ba150ffd64921b6f91e,2,,,,,,peg,,,,,,0,51,51,53,1,6,1,,,,,,,,,,,,,,,,,,,,,,,,,,,,,,,,,,,,,,,,,,,,,,,,,,,,,,,,,,,,,,,,,,,,,,,,,,,,,,,,,,,,,,,,,,,,,,,,,,,
,,,,,,,,,,stimuli/images/PICTURE_744.png,WEAPON,5f1636568f0a801a56474836,17/08/2001,2020-08-13_13h01.56.468,proactive2,2020.1.2,Win32,60,5f341be081b9052c55068110,5f352ba150ffd64921b6f91e,2,,,,,,ring,,,,,,0,52,52,50,1,6,1,,,,,,,,,,,,,,,,,,,,,,,,,,,,,,,,,,,,,,,,,,,,,,,,,,,,,,,,,,,,,,,,,,,,,,,,,,,,,,,,,,,,,,,,,,,,,,,,,,,
,,,,,,,,,,stimuli/images/PICTURE_33.png,FRIEND,5f1636568f0a801a56474836,17/08/2001,2020-08-13_13h01.56.468,proactive2,2020.1.2,Win32,60,5f341be081b9052c55068110,5f352ba150ffd64921b6f91e,2,,,,,,frame,,,,,,0,53,53,8,1,1,1,,,,,,,,,,,,,,,,,,,,,,,,,,,,,,,,,,,,,,,,,,,,,,,,,,,,,,,,,,,,,,,,,,,,,,,,,,,,,,,,,,,,,,,,,,,,,,,,,,,
,,,,,,,,,,stimuli/images/PICTURE_57.png,MOMENT,5f1636568f0a801a56474836,17/08/2001,2020-08-13_13h01.56.468,proactive2,2020.1.2,Win32,60,5f341be081b9052c55068110,5f352ba150ffd64921b6f91e,2,,,,,,stamp,,,,,,0,54,54,37,1,4,1,,,,,,,,,,,,,,,,,,,,,,,,,,,,,,,,,,,,,,,,,,,,,,,,,,,,,,,,,,,,,,,,,,,,,,,,,,,,,,,,,,,,,,,,,,,,,,,,,,,
,,,,,,,,,,stimuli/images/PICTURE_383.png,SERIES,5f1636568f0a801a56474836,17/08/2001,2020-08-13_13h01.56.468,proactive2,2020.1.2,Win32,60,5f341be081b9052c55068110,5f352ba150ffd64921b6f91e,2,,,,,,coin,,,,,,0,55,55,46,1,5,1,,,,,,,,,,,,,,,,,,,,,,,,,,,,,,,,,,,,,,,,,,,,,,,,,,,,,,,,,,,,,,,,,,,,,,,,,,,,,,,,,,,,,,,,,,,,,,,,,,,
,,,,,,,,,,stimuli/images/PICTURE_667.png,RIVER,5f1636568f0a801a56474836,17/08/2001,2020-08-13_13h01.56.468,proactive2,2020.1.2,Win32,60,5f341be081b9052c55068110,5f352ba150ffd64921b6f91e,2,,,,,,daisy,,,,,,0,56,56,10,1,2,1,,,,,,,,,,,,,,,,,,,,,,,,,,,,,,,,,,,,,,,,,,,,,,,,,,,,,,,,,,,,,,,,,,,,,,,,,,,,,,,,,,,,,,,,,,,,,,,,,,,
,,,,,,,,,,stimuli/images/PICTURE_108.png,POLICY,5f1636568f0a801a56474836,17/08/2001,2020-08-13_13h01.56.468,proactive2,2020.1.2,Win32,60,5f341be081b9052c55068110,5f352ba150ffd64921b6f91e,2,,,,,,calendar,,,,,,0,57,57,22,1,3,1,,,,,,,,,,,,,,,,,,,,,,,,,,,,,,,,,,,,,,,,,,,,,,,,,,,,,,,,,,,,,,,,,,,,,,,,,,,,,,,,,,,,,,,,,,,,,,,,,,,
,,,,,,,,,,stimuli/images/PICTURE_85.png,NATION,5f1636568f0a801a56474836,17/08/2001,2020-08-13_13h01.56.468,proactive2,2020.1.2,Win32,60,5f341be081b9052c55068110,5f352ba150ffd64921b6f91e,2,,,,,,diamond,,,,,,0,58,58,5,1,1,1,,,,,,,,,,,,,,,,,,,,,,,,,,,,,,,,,,,,,,,,,,,,,,,,,,,,,,,,,,,,,,,,,,,,,,,,,,,,,,,,,,,,,,,,,,,,,,,,,,,
,,?,0.00212,0,,,,,,stimuli/images/PICTURE_708.png,RECORD,5f1636568f0a801a56474836,17/08/2001,2020-08-13_13h01.56.468,proactive2,2020.1.2,Win32,60,5f341be081b9052c55068110,5f352ba150ffd64921b6f91e,2,,,,,,monkey,,,,,,,,,,,6,1,0,0,0,58,1,,,,,,,,,,,,,,,,,,,,,,,,,,,,,,,,,,,,,,,,,,,,,,,,,,,,,,,,,,,,,,,,,,,,,,,,,,,,,,,,,,,,,,,,,,,,,,
,,?,0.001285,0,,,,,,stimuli/images/PICTURE_340.png,LETTER,5f1636568f0a801a56474836,17/08/2001,2020-08-13_13h01.56.468,proactive2,2020.1.2,Win32,60,5f341be081b9052c55068110,5f352ba150ffd64921b6f91e,2,,,,,,mirror,,,,,,,,,,,3,1,0,1,1,24,1,,,,,,,,,,,,,,,,,,,,,,,,,,,,,,,,,,,,,,,,,,,,,,,,,,,,,,,,,,,,,,,,,,,,,,,,,,,,,,,,,,,,,,,,,,,,,,
,,?,0.000855,0,,,,,,stimuli/images/PICTURE_33.png,FRIEND,5f1636568f0a801a56474836,17/08/2001,2020-08-13_13h01.56.468,proactive2,2020.1.2,Win32,60,5f341be081b9052c55068110,5f352ba150ffd64921b6f91e,2,,,,,,frame,,,,,,,,,,,1,1,0,2,2,8,1,,,,,,,,,,,,,,,,,,,,,,,,,,,,,,,,,,,,,,,,,,,,,,,,,,,,,,,,,,,,,,,,,,,,,,,,,,,,,,,,,,,,,,,,,,,,,,
,,?,0.000795,0,,,,,,stimuli/images/PICTURE_296.png,LIFE,5f1636568f0a801a56474836,17/08/2001,2020-08-13_13h01.56.468,proactive2,2020.1.2,Win32,60,5f341be081b9052c55068110,5f352ba150ffd64921b6f91e,2,,,,,,bolt,,,,,,,,,,,6,1,0,3,3,57,1,,,,,,,,,,,,,,,,,,,,,,,,,,,,,,,,,,,,,,,,,,,,,,,,,,,,,,,,,,,,,,,,,,,,,,,,,,,,,,,,,,,,,,,,,,,,,,
,,?,0.0008,0,,,,,,stimuli/images/PICTURE_147.png,YEAR,5f1636568f0a801a56474836,17/08/2001,2020-08-13_13h01.56.468,proactive2,2020.1.2,Win32,60,5f341be081b9052c55068110,5f352ba150ffd64921b6f91e,2,,,,,,hanger,,,,,,,,,,,3,1,0,4,4,21,1,,,,,,,,,,,,,,,,,,,,,,,,,,,,,,,,,,,,,,,,,,,,,,,,,,,,,,,,,,,,,,,,,,,,,,,,,,,,,,,,,,,,,,,,,,,,,,
,,?,0.000625,0,,,,,,stimuli/images/PICTURE_95.png,HONEY,5f1636568f0a801a56474836,17/08/2001,2020-08-13_13h01.56.468,proactive2,2020.1.2,Win32,60,5f341be081b9052c55068110,5f352ba150ffd64921b6f91e,2,,,,,,suitcase,,,,,,,,,,,5,1,0,5,5,44,1,,,,,,,,,,,,,,,,,,,,,,,,,,,,,,,,,,,,,,,,,,,,,,,,,,,,,,,,,,,,,,,,,,,,,,,,,,,,,,,,,,,,,,,,,,,,,,
,,?,0.00063,0,,,,,,stimuli/images/PICTURE_327.png,CASINO,5f1636568f0a801a56474836,17/08/2001,2020-08-13_13h01.56.468,proactive2,2020.1.2,Win32,60,5f341be081b9052c55068110,5f352ba150ffd64921b6f91e,2,,,,,,helmet,,,,,,,,,,,3,1,0,6,6,20,1,,,,,,,,,,,,,,,,,,,,,,,,,,,,,,,,,,,,,,,,,,,,,,,,,,,,,,,,,,,,,,,,,,,,,,,,,,,,,,,,,,,,,,,,,,,,,,
,,LEVEL,4.419735,0,,,,,,stimuli/images/PICTURE_504.png,YEAR,5f1636568f0a801a56474836,17/08/2001,2020-08-13_13h01.56.468,proactive2,2020.1.2,Win32,60,5f341be081b9052c55068110,5f352ba150ffd64921b6f91e,2,,,,,,wheel,,,,,,,,,,,2,1,0,7,7,13,1,,,,,,,,,,,,,,,,,,,,,,,,,,,,,,,,,,,,,,,,,,,,,,,,,,,,,,,,,,,,,,,,,,,,,,,,,,,,,,,,,,,,,,,,,,,,,,
,,?,0.001715,0,,,,,,stimuli/images/PICTURE_297.png,RIVER,5f1636568f0a801a56474836,17/08/2001,2020-08-13_13h01.56.468,proactive2,2020.1.2,Win32,60,5f341be081b9052c55068110,5f352ba150ffd64921b6f91e,2,,,,,,aeroplane,,,,,,,,,,,4,1,0,8,8,39,1,,,,,,,,,,,,,,,,,,,,,,,,,,,,,,,,,,,,,,,,,,,,,,,,,,,,,,,,,,,,,,,,,,,,,,,,,,,,,,,,,,,,,,,,,,,,,,
,,?,0.001465,0,,,,,,stimuli/images/PICTURE_285.png,LIFE,5f1636568f0a801a56474836,17/08/2001,2020-08-13_13h01.56.468,proactive2,2020.1.2,Win32,60,5f341be081b9052c55068110,5f352ba150ffd64921b6f91e,2,,,,,,carrot,,,,,,,,,,,4,1,0,9,9,33,1,,,,,,,,,,,,,,,,,,,,,,,,,,,,,,,,,,,,,,,,,,,,,,,,,,,,,,,,,,,,,,,,,,,,,,,,,,,,,,,,,,,,,,,,,,,,,,
,,DUD,4.553845,0,,,,,,stimuli/images/PICTURE_339.png,CLIENT,5f1636568f0a801a56474836,17/08/2001,2020-08-13_13h01.56.468,proactive2,2020.1.2,Win32,60,5f341be081b9052c55068110,5f352ba150ffd64921b6f91e,2,,,,,,backpack,,,,,,,,,,,2,1,0,10,10,11,1,,,,,,,,,,,,,,,,,,,,,,,,,,,,,,,,,,,,,,,,,,,,,,,,,,,,,,,,,,,,,,,,,,,,,,,,,,,,,,,,,,,,,,,,,,,,,,
,,?,0.00189,0,,,,,,stimuli/images/PICTURE_487.png,GIRL,5f1636568f0a801a56474836,17/08/2001,2020-08-13_13h01.56.468,proactive2,2020.1.2,Win32,60,5f341be081b9052c55068110,5f352ba150ffd64921b6f91e,2,,,,,,basket,,,,,,,,,,,5,1,0,11,11,45,1,,,,,,,,,,,,,,,,,,,,,,,,,,,,,,,,,,,,,,,,,,,,,,,,,,,,,,,,,,,,,,,,,,,,,,,,,,,,,,,,,,,,,,,,,,,,,,
,,?,0.00146,0,,,,,,stimuli/images/PICTURE_147.png,WOMEN,5f1636568f0a801a56474836,17/08/2001,2020-08-13_13h01.56.468,proactive2,2020.1.2,Win32,60,5f341be081b9052c55068110,5f352ba150ffd64921b6f91e,2,,,,,,hanger,,,,,,,,,,,1,1,0,12,12,7,1,,,,,,,,,,,,,,,,,,,,,,,,,,,,,,,,,,,,,,,,,,,,,,,,,,,,,,,,,,,,,,,,,,,,,,,,,,,,,,,,,,,,,,,,,,,,,,
,,?,0.003725,0,,,,,,stimuli/images/PICTURE_233.png,LOTS,5f1636568f0a801a56474836,17/08/2001,2020-08-13_13h01.56.468,proactive2,2020.1.2,Win32,60,5f341be081b9052c55068110,5f352ba150ffd64921b6f91e,2,,,,,,salt,,,,,,,,,,,5,1,0,13,13,42,1,,,,,,,,,,,,,,,,,,,,,,,,,,,,,,,,,,,,,,,,,,,,,,,,,,,,,,,,,,,,,,,,,,,,,,,,,,,,,,,,,,,,,,,,,,,,,,
,,?,0.00115,0,,,,,,stimuli/images/PICTURE_327.png,SERIES,5f1636568f0a801a56474836,17/08/2001,2020-08-13_13h01.56.468,proactive2,2020.1.2,Win32,60,5f341be081b9052c55068110,5f352ba150ffd64921b6f91e,2,,,,,,helmet,,,,,,,,,,,1,1,0,14,14,3,1,,,,,,,,,,,,,,,,,,,,,,,,,,,,,,,,,,,,,,,,,,,,,,,,,,,,,,,,,,,,,,,,,,,,,,,,,,,,,,,,,,,,,,,,,,,,,,
,,?,0.000755,0,,,,,,stimuli/images/PICTURE_677.png,APPLE,5f1636568f0a801a56474836,17/08/2001,2020-08-13_13h01.56.468,proactive2,2020.1.2,Win32,60,5f341be081b9052c55068110,5f352ba150ffd64921b6f91e,2,,,,,,map,,,,,,,,,,,5,1,0,15,15,43,1,,,,,,,,,,,,,,,,,,,,,,,,,,,,,,,,,,,,,,,,,,,,,,,,,,,,,,,,,,,,,,,,,,,,,,,,,,,,,,,,,,,,,,,,,,,,,,
,,MARRIAGE,5.891825,0,,,,,,stimuli/images/PICTURE_469.png,AGENT,5f1636568f0a801a56474836,17/08/2001,2020-08-13_13h01.56.468,proactive2,2020.1.2,Win32,60,5f341be081b9052c55068110,5f352ba150ffd64921b6f91e,2,,,,,,stool,,,,,,,,,,,2,1,0,16,16,16,1,,,,,,,,,,,,,,,,,,,,,,,,,,,,,,,,,,,,,,,,,,,,,,,,,,,,,,,,,,,,,,,,,,,,,,,,,,,,,,,,,,,,,,,,,,,,,,
,,?,0.001715,0,,,,,,stimuli/images/PICTURE_177.png,WRITER,5f1636568f0a801a56474836,17/08/2001,2020-08-13_13h01.56.468,proactive2,2020.1.2,Win32,60,5f341be081b9052c55068110,5f352ba150ffd64921b6f91e,2,,,,,,mushroom,,,,,,,,,,,5,1,0,17,17,41,1,,,,,,,,,,,,,,,,,,,,,,,,,,,,,,,,,,,,,,,,,,,,,,,,,,,,,,,,,,,,,,,,,,,,,,,,,,,,,,,,,,,,,,,,,,,,,,
,,FLIGHT,1.926125,1,,,,,,stimuli/images/PICTURE_2.png,FLIGHT,5f1636568f0a801a56474836,17/08/2001,2020-08-13_13h01.56.468,proactive2,2020.1.2,Win32,60,5f341be081b9052c55068110,5f352ba150ffd64921b6f91e,2,,,,,,tyre,,,,,,,,,,,2,1,0,18,18,15,1,,,,,,,,,,,,,,,,,,,,,,,,,,,,,,,,,,,,,,,,,,,,,,,,,,,,,,,,,,,,,,,,,,,,,,,,,,,,,,,,,,,,,,,,,,,,,,
,,?,0.00152,0,,,,,,stimuli/images/PICTURE_403.png,WRITER,5f1636568f0a801a56474836,17/08/2001,2020-08-13_13h01.56.468,proactive2,2020.1.2,Win32,60,5f341be081b9052c55068110,5f352ba150ffd64921b6f91e,2,,,,,,cathedral,,,,,,,,,,,4,1,0,19,19,31,1,,,,,,,,,,,,,,,,,,,,,,,,,,,,,,,,,,,,,,,,,,,,,,,,,,,,,,,,,,,,,,,,,,,,,,,,,,,,,,,,,,,,,,,,,,,,,,
,,?,0.001185,0,,,,,,stimuli/images/PICTURE_405.png,YEAR,5f1636568f0a801a56474836,17/08/2001,2020-08-13_13h01.56.468,proactive2,2020.1.2,Win32,60,5f341be081b9052c55068110,5f352ba150ffd64921b6f91e,2,,,,,,anchor,,,,,,,,,,,4,1,0,20,20,34,1,,,,,,,,,,,,,,,,,,,,,,,,,,,,,,,,,,,,,,,,,,,,,,,,,,,,,,,,,,,,,,,,,,,,,,,,,,,,,,,,,,,,,,,,,,,,,,
,,?,0.00118,0,,,,,,stimuli/images/PICTURE_203.png,NIGHT,5f1636568f0a801a56474836,17/08/2001,2020-08-13_13h01.56.468,proactive2,2020.1.2,Win32,60,5f341be081b9052c55068110,5f352ba150ffd64921b6f91e,2,,,,,,cap,,,,,,,,,,,1,1,0,21,21,2,1,,,,,,,,,,,,,,,,,,,,,,,,,,,,,,,,,,,,,,,,,,,,,,,,,,,,,,,,,,,,,,,,,,,,,,,,,,,,,,,,,,,,,,,,,,,,,,
,,?,0.00121,0,,,,,,stimuli/images/PICTURE_68.png,ROOF,5f1636568f0a801a56474836,17/08/2001,2020-08-13_13h01.56.468,proactive2,2020.1.2,Win32,60,5f341be081b9052c55068110,5f352ba150ffd64921b6f91e,2,,,,,,candle,,,,,,,,,,,4,1,0,22,22,38,1,,,,,,,,,,,,,,,,,,,,,,,,,,,,,,,,,,,,,,,,,,,,,,,,,,,,,,,,,,,,,,,,,,,,,,,,,,,,,,,,,,,,,,,,,,,,,,
,,?,0.00113,0,,,,,,stimuli/images/PICTURE_32.png,KIND,5f1636568f0a801a56474836,17/08/2001,2020-08-13_13h01.56.468,proactive2,2020.1.2,Win32,60,5f341be081b9052c55068110,5f352ba150ffd64921b6f91e,2,,,,,,crown,,,,,,,,,,,4,1,0,23,23,35,1,,,,,,,,,,,,,,,,,,,,,,,,,,,,,,,,,,,,,,,,,,,,,,,,,,,,,,,,,,,,,,,,,,,,,,,,,,,,,,,,,,,,,,,,,,,,,,
,,MANAGE,4.581965,0,,,,,,stimuli/images/PICTURE_655.png,TOILET,5f1636568f0a801a56474836,17/08/2001,2020-08-13_13h01.56.468,proactive2,2020.1.2,Win32,60,5f341be081b9052c55068110,5f352ba150ffd64921b6f91e,2,,,,,,megaphone,,,,,,,,,,,2,1,0,24,24,12,1,,,,,,,,,,,,,,,,,,,,,,,,,,,,,,,,,,,,,,,,,,,,,,,,,,,,,,,,,,,,,,,,,,,,,,,,,,,,,,,,,,,,,,,,,,,,,,
,,?,0.001325,0,,,,,,stimuli/images/PICTURE_467.png,POLICY,5f1636568f0a801a56474836,17/08/2001,2020-08-13_13h01.56.468,proactive2,2020.1.2,Win32,60,5f341be081b9052c55068110,5f352ba150ffd64921b6f91e,2,,,,,,peg,,,,,,,,,,,6,1,0,25,25,53,1,,,,,,,,,,,,,,,,,,,,,,,,,,,,,,,,,,,,,,,,,,,,,,,,,,,,,,,,,,,,,,,,,,,,,,,,,,,,,,,,,,,,,,,,,,,,,,
,,LEVEL,3.92665,0,,,,,,stimuli/images/PICTURE_491.png,GLASS,5f1636568f0a801a56474836,17/08/2001,2020-08-13_13h01.56.468,proactive2,2020.1.2,Win32,60,5f341be081b9052c55068110,5f352ba150ffd64921b6f91e,2,,,,,,rug,,,,,,,,,,,2,1,0,26,26,14,1,,,,,,,,,,,,,,,,,,,,,,,,,,,,,,,,,,,,,,,,,,,,,,,,,,,,,,,,,,,,,,,,,,,,,,,,,,,,,,,,,,,,,,,,,,,,,,
,,?,0.00134,0,,,,,,stimuli/images/PICTURE_95.png,BOYS,5f1636568f0a801a56474836,17/08/2001,2020-08-13_13h01.56.468,proactive2,2020.1.2,Win32,60,5f341be081b9052c55068110,5f352ba150ffd64921b6f91e,2,,,,,,suitcase,,,,,,,,,,,1,1,0,27,27,1,1,,,,,,,,,,,,,,,,,,,,,,,,,,,,,,,,,,,,,,,,,,,,,,,,,,,,,,,,,,,,,,,,,,,,,,,,,,,,,,,,,,,,,,,,,,,,,,
,,?,0.001085,0,,,,,,stimuli/images/PICTURE_340.png,VALLEY,5f1636568f0a801a56474836,17/08/2001,2020-08-13_13h01.56.468,proactive2,2020.1.2,Win32,60,5f341be081b9052c55068110,5f352ba150ffd64921b6f91e,2,,,,,,mirror,,,,,,,,,,,6,1,0,28,28,54,1,,,,,,,,,,,,,,,,,,,,,,,,,,,,,,,,,,,,,,,,,,,,,,,,,,,,,,,,,,,,,,,,,,,,,,,,,,,,,,,,,,,,,,,,,,,,,,
,,DUDE,1.7216,1,,,,,,stimuli/images/PICTURE_449.png,DUDE,5f1636568f0a801a56474836,17/08/2001,2020-08-13_13h01.56.468,proactive2,2020.1.2,Win32,60,5f341be081b9052c55068110,5f352ba150ffd64921b6f91e,2,,,,,,bench,,,,,,,,,,,2,1,0,29,29,17,1,,,,,,,,,,,,,,,,,,,,,,,,,,,,,,,,,,,,,,,,,,,,,,,,,,,,,,,,,,,,,,,,,,,,,,,,,,,,,,,,,,,,,,,,,,,,,,
,,?,0.001265,0,,,,,,stimuli/images/PICTURE_208.png,SYSTEM,5f1636568f0a801a56474836,17/08/2001,2020-08-13_13h01.56.468,proactive2,2020.1.2,Win32,60,5f341be081b9052c55068110,5f352ba150ffd64921b6f91e,2,,,,,,microphone,,,,,,,,,,,4,1,0,30,30,32,1,,,,,,,,,,,,,,,,,,,,,,,,,,,,,,,,,,,,,,,,,,,,,,,,,,,,,,,,,,,,,,,,,,,,,,,,,,,,,,,,,,,,,,,,,,,,,,
,,?,0.001055,0,,,,,,stimuli/images/PICTURE_308.png,FAMILY,5f1636568f0a801a56474836,17/08/2001,2020-08-13_13h01.56.468,proactive2,2020.1.2,Win32,60,5f341be081b9052c55068110,5f352ba150ffd64921b6f91e,2,,,,,,dice,,,,,,,,,,,4,1,0,31,31,36,1,,,,,,,,,,,,,,,,,,,,,,,,,,,,,,,,,,,,,,,,,,,,,,,,,,,,,,,,,,,,,,,,,,,,,,,,,,,,,,,,,,,,,,,,,,,,,,
,,?,0.00107,0,,,,,,stimuli/images/PICTURE_108.png,FLIGHT,5f1636568f0a801a56474836,17/08/2001,2020-08-13_13h01.56.468,proactive2,2020.1.2,Win32,60,5f341be081b9052c55068110,5f352ba150ffd64921b6f91e,2,,,,,,calendar,,,,,,,,,,,6,1,0,32,32,59,1,,,,,,,,,,,,,,,,,,,,,,,,,,,,,,,,,,,,,,,,,,,,,,,,,,,,,,,,,,,,,,,,,,,,,,,,,,,,,,,,,,,,,,,,,,,,,,
,,?,0.001045,0,,,,,,stimuli/images/PICTURE_85.png,TOILET,5f1636568f0a801a56474836,17/08/2001,2020-08-13_13h01.56.468,proactive2,2020.1.2,Win32,60,5f341be081b9052c55068110,5f352ba150ffd64921b6f91e,2,,,,,,diamond,,,,,,,,,,,5,1,0,33,33,48,1,,,,,,,,,,,,,,,,,,,,,,,,,,,,,,,,,,,,,,,,,,,,,,,,,,,,,,,,,,,,,,,,,,,,,,,,,,,,,,,,,,,,,,,,,,,,,,
,,?,0.00104,0,,,,,,stimuli/images/PICTURE_744.png,WEAPON,5f1636568f0a801a56474836,17/08/2001,2020-08-13_13h01.56.468,proactive2,2020.1.2,Win32,60,5f341be081b9052c55068110,5f352ba150ffd64921b6f91e,2,,,,,,ring,,,,,,,,,,,6,1,0,34,34,50,1,,,,,,,,,,,,,,,,,,,,,,,,,,,,,,,,,,,,,,,,,,,,,,,,,,,,,,,,,,,,,,,,,,,,,,,,,,,,,,,,,,,,,,,,,,,,,,
,,?,0.00137,0,,,,,,stimuli/images/PICTURE_383.png,WRITER,5f1636568f0a801a56474836,17/08/2001,2020-08-13_13h01.56.468,proactive2,2020.1.2,Win32,60,5f341be081b9052c55068110,5f352ba150ffd64921b6f91e,2,,,,,,coin,,,,,,,,,,,3,1,0,35,35,28,1,,,,,,,,,,,,,,,,,,,,,,,,,,,,,,,,,,,,,,,,,,,,,,,,,,,,,,,,,,,,,,,,,,,,,,,,,,,,,,,,,,,,,,,,,,,,,,
,,?,0.00077,0,,,,,,stimuli/images/PICTURE_68.png,MILE,5f1636568f0a801a56474836,17/08/2001,2020-08-13_13h01.56.468,proactive2,2020.1.2,Win32,60,5f341be081b9052c55068110,5f352ba150ffd64921b6f91e,2,,,,,,candle,,,,,,,,,,,6,1,0,36,36,51,1,,,,,,,,,,,,,,,,,,,,,,,,,,,,,,,,,,,,,,,,,,,,,,,,,,,,,,,,,,,,,,,,,,,,,,,,,,,,,,,,,,,,,,,,,,,,,,
,,GLASS,4.028695,0,,,,,,stimuli/images/PICTURE_32.png,PILLS,5f1636568f0a801a56474836,17/08/2001,2020-08-13_13h01.56.468,proactive2,2020.1.2,Win32,60,5f341be081b9052c55068110,5f352ba150ffd64921b6f91e,2,,,,,,crown,,,,,,,,,,,2,1,0,37,37,18,1,,,,,,,,,,,,,,,,,,,,,,,,,,,,,,,,,,,,,,,,,,,,,,,,,,,,,,,,,,,,,,,,,,,,,,,,,,,,,,,,,,,,,,,,,,,,,,
,,?,0.001135,0,,,,,,stimuli/images/PICTURE_85.png,NATION,5f1636568f0a801a56474836,17/08/2001,2020-08-13_13h01.56.468,proactive2,2020.1.2,Win32,60,5f341be081b9052c55068110,5f352ba150ffd64921b6f91e,2,,,,,,diamond,,,,,,,,,,,1,1,0,38,38,5,1,,,,,,,,,,,,,,,,,,,,,,,,,,,,,,,,,,,,,,,,,,,,,,,,,,,,,,,,,,,,,,,,,,,,,,,,,,,,,,,,,,,,,,,,,,,,,,
,,LEVEL,3.444465,0,,,,,,stimuli/images/PICTURE_667.png,RIVER,5f1636568f0a801a56474836,17/08/2001,2020-08-13_13h01.56.468,proactive2,2020.1.2,Win32,60,5f341be081b9052c55068110,5f352ba150ffd64921b6f91e,2,,,,,,daisy,,,,,,,,,,,2,1,0,39,39,10,1,,,,,,,,,,,,,,,,,,,,,,,,,,,,,,,,,,,,,,,,,,,,,,,,,,,,,,,,,,,,,,,,,,,,,,,,,,,,,,,,,,,,,,,,,,,,,,
,,?,0.00189,0,,,,,,stimuli/images/PICTURE_203.png,GODS,5f1636568f0a801a56474836,17/08/2001,2020-08-13_13h01.56.468,proactive2,2020.1.2,Win32,60,5f341be081b9052c55068110,5f352ba150ffd64921b6f91e,2,,,,,,cap,,,,,,,,,,,4,1,0,40,40,30,1,,,,,,,,,,,,,,,,,,,,,,,,,,,,,,,,,,,,,,,,,,,,,,,,,,,,,,,,,,,,,,,,,,,,,,,,,,,,,,,,,,,,,,,,,,,,,,
,,?,0.00154,0,,,,,,stimuli/images/PICTURE_685.png,PENNY,5f1636568f0a801a56474836,17/08/2001,2020-08-13_13h01.56.468,proactive2,2020.1.2,Win32,60,5f341be081b9052c55068110,5f352ba150ffd64921b6f91e,2,,,,,,goose,,,,,,,,,,,1,1,0,41,41,4,1,,,,,,,,,,,,,,,,,,,,,,,,,,,,,,,,,,,,,,,,,,,,,,,,,,,,,,,,,,,,,,,,,,,,,,,,,,,,,,,,,,,,,,,,,,,,,,
,,?,0.00149,0,,,,,,stimuli/images/PICTURE_380.png,CANDY,5f1636568f0a801a56474836,17/08/2001,2020-08-13_13h01.56.468,proactive2,2020.1.2,Win32,60,5f341be081b9052c55068110,5f352ba150ffd64921b6f91e,2,,,,,,gorilla,,,,,,,,,,,1,1,0,42,42,0,1,,,,,,,,,,,,,,,,,,,,,,,,,,,,,,,,,,,,,,,,,,,,,,,,,,,,,,,,,,,,,,,,,,,,,,,,,,,,,,,,,,,,,,,,,,,,,,
,,?,0.001045,0,,,,,,stimuli/images/PICTURE_108.png,POLICY,5f1636568f0a801a56474836,17/08/2001,2020-08-13_13h01.56.468,proactive2,2020.1.2,Win32,60,5f341be081b9052c55068110,5f352ba150ffd64921b6f91e,2,,,,,,calendar,,,,,,,,,,,3,1,0,43,43,22,1,,,,,,,,,,,,,,,,,,,,,,,,,,,,,,,,,,,,,,,,,,,,,,,,,,,,,,,,,,,,,,,,,,,,,,,,,,,,,,,,,,,,,,,,,,,,,,
,,?,0.001125,0,,,,,,stimuli/images/PICTURE_654.png,MONTH,5f1636568f0a801a56474836,17/08/2001,2020-08-13_13h01.56.468,proactive2,2020.1.2,Win32,60,5f341be081b9052c55068110,5f352ba150ffd64921b6f91e,2,,,,,,pencil,,,,,,,,,,,3,1,0,44,44,29,1,,,,,,,,,,,,,,,,,,,,,,,,,,,,,,,,,,,,,,,,,,,,,,,,,,,,,,,,,,,,,,,,,,,,,,,,,,,,,,,,,,,,,,,,,,,,,,
,,?,0.000785,0,,,,,,stimuli/images/PICTURE_57.png,MOMENT,5f1636568f0a801a56474836,17/08/2001,2020-08-13_13h01.56.468,proactive2,2020.1.2,Win32,60,5f341be081b9052c55068110,5f352ba150ffd64921b6f91e,2,,,,,,stamp,,,,,,,,,,,4,1,0,45,45,37,1,,,,,,,,,,,,,,,,,,,,,,,,,,,,,,,,,,,,,,,,,,,,,,,,,,,,,,,,,,,,,,,,,,,,,,,,,,,,,,,,,,,,,,,,,,,,,,
,,?,0.00091,0,,,,,,stimuli/images/PICTURE_504.png,COPS,5f1636568f0a801a56474836,17/08/2001,2020-08-13_13h01.56.468,proactive2,2020.1.2,Win32,60,5f341be081b9052c55068110,5f352ba150ffd64921b6f91e,2,,,,,,wheel,,,,,,,,,,,6,1,0,46,46,52,1,,,,,,,,,,,,,,,,,,,,,,,,,,,,,,,,,,,,,,,,,,,,,,,,,,,,,,,,,,,,,,,,,,,,,,,,,,,,,,,,,,,,,,,,,,,,,,
,,?,0.00062,0,,,,,,stimuli/images/PICTURE_405.png,PLENTY,5f1636568f0a801a56474836,17/08/2001,2020-08-13_13h01.56.468,proactive2,2020.1.2,Win32,60,5f341be081b9052c55068110,5f352ba150ffd64921b6f91e,2,,,,,,anchor,,,,,,,,,,,3,1,0,47,47,23,1,,,,,,,,,,,,,,,,,,,,,,,,,,,,,,,,,,,,,,,,,,,,,,,,,,,,,,,,,,,,,,,,,,,,,,,,,,,,,,,,,,,,,,,,,,,,,,
,,?,0.00059,0,,,,,,stimuli/images/PICTURE_383.png,SERIES,5f1636568f0a801a56474836,17/08/2001,2020-08-13_13h01.56.468,proactive2,2020.1.2,Win32,60,5f341be081b9052c55068110,5f352ba150ffd64921b6f91e,2,,,,,,coin,,,,,,,,,,,5,1,0,48,48,46,1,,,,,,,,,,,,,,,,,,,,,,,,,,,,,,,,,,,,,,,,,,,,,,,,,,,,,,,,,,,,,,,,,,,,,,,,,,,,,,,,,,,,,,,,,,,,,,
,,?,0.000525,0,,,,,,stimuli/images/PICTURE_491.png,RIVER,5f1636568f0a801a56474836,17/08/2001,2020-08-13_13h01.56.468,proactive2,2020.1.2,Win32,60,5f341be081b9052c55068110,5f352ba150ffd64921b6f91e,2,,,,,,rug,,,,,,,,,,,1,1,0,49,49,6,1,,,,,,,,,,,,,,,,,,,,,,,,,,,,,,,,,,,,,,,,,,,,,,,,,,,,,,,,,,,,,,,,,,,,,,,,,,,,,,,,,,,,,,,,,,,,,,
,,?,0.000505,0,,,,,,stimuli/images/PICTURE_504.png,ARTIST,5f1636568f0a801a56474836,17/08/2001,2020-08-13_13h01.56.468,proactive2,2020.1.2,Win32,60,5f341be081b9052c55068110,5f352ba150ffd64921b6f91e,2,,,,,,wheel,,,,,,,,,,,5,1,0,50,50,49,1,,,,,,,,,,,,,,,,,,,,,,,,,,,,,,,,,,,,,,,,,,,,,,,,,,,,,,,,,,,,,,,,,,,,,,,,,,,,,,,,,,,,,,,,,,,,,,
,,?,0.000455,0,,,,,,stimuli/images/PICTURE_42.png,BOYS,5f1636568f0a801a56474836,17/08/2001,2020-08-13_13h01.56.468,proactive2,2020.1.2,Win32,60,5f341be081b9052c55068110,5f352ba150ffd64921b6f91e,2,,,,,,pear,,,,,,,,,,,6,1,0,51,51,55,1,,,,,,,,,,,,,,,,,,,,,,,,,,,,,,,,,,,,,,,,,,,,,,,,,,,,,,,,,,,,,,,,,,,,,,,,,,,,,,,,,,,,,,,,,,,,,,
,,?,0.00048,0,,,,,,stimuli/images/PICTURE_403.png,TOILET,5f1636568f0a801a56474836,17/08/2001,2020-08-13_13h01.56.468,proactive2,2020.1.2,Win32,60,5f341be081b9052c55068110,5f352ba150ffd64921b6f91e,2,,,,,,cathedral,,,,,,,,,,,3,1,0,52,52,25,1,,,,,,,,,,,,,,,,,,,,,,,,,,,,,,,,,,,,,,,,,,,,,,,,,,,,,,,,,,,,,,,,,,,,,,,,,,,,,,,,,,,,,,,,,,,,,,
,,?,0.00041,0,,,,,,stimuli/images/PICTURE_95.png,MILLER,5f1636568f0a801a56474836,17/08/2001,2020-08-13_13h01.56.468,proactive2,2020.1.2,Win32,60,5f341be081b9052c55068110,5f352ba150ffd64921b6f91e,2,,,,,,suitcase,,,,,,,,,,,6,1,0,53,53,56,1,,,,,,,,,,,,,,,,,,,,,,,,,,,,,,,,,,,,,,,,,,,,,,,,,,,,,,,,,,,,,,,,,,,,,,,,,,,,,,,,,,,,,,,,,,,,,,
,,?,0.00041,0,,,,,,stimuli/images/PICTURE_750.png,HOTEL,5f1636568f0a801a56474836,17/08/2001,2020-08-13_13h01.56.468,proactive2,2020.1.2,Win32,60,5f341be081b9052c55068110,5f352ba150ffd64921b6f91e,2,,,,,,kettle,,,,,,,,,,,3,1,0,54,54,27,1,,,,,,,,,,,,,,,,,,,,,,,,,,,,,,,,,,,,,,,,,,,,,,,,,,,,,,,,,,,,,,,,,,,,,,,,,,,,,,,,,,,,,,,,,,,,,,
,,?,0.000395,0,,,,,,stimuli/images/PICTURE_296.png,LOTS,5f1636568f0a801a56474836,17/08/2001,2020-08-13_13h01.56.468,proactive2,2020.1.2,Win32,60,5f341be081b9052c55068110,5f352ba150ffd64921b6f91e,2,,,,,,bolt,,,,,,,,,,,1,1,0,55,55,9,1,,,,,,,,,,,,,,,,,,,,,,,,,,,,,,,,,,,,,,,,,,,,,,,,,,,,,,,,,,,,,,,,,,,,,,,,,,,,,,,,,,,,,,,,,,,,,,
,,?,0.00039,0,,,,,,stimuli/images/PICTURE_564.png,BATH,5f1636568f0a801a56474836,17/08/2001,2020-08-13_13h01.56.468,proactive2,2020.1.2,Win32,60,5f341be081b9052c55068110,5f352ba150ffd64921b6f91e,2,,,,,,spoon,,,,,,,,,,,3,1,0,56,56,26,1,,,,,,,,,,,,,,,,,,,,,,,,,,,,,,,,,,,,,,,,,,,,,,,,,,,,,,,,,,,,,,,,,,,,,,,,,,,,,,,,,,,,,,,,,,,,,,
,,LEVEL,3.12748,0,,,,,,stimuli/images/PICTURE_380.png,HONEY,5f1636568f0a801a56474836,17/08/2001,2020-08-13_13h01.56.468,proactive2,2020.1.2,Win32,60,5f341be081b9052c55068110,5f352ba150ffd64921b6f91e,2,,,,,,gorilla,,,,,,,,,,,2,1,0,57,57,19,1,,,,,,,,,,,,,,,,,,,,,,,,,,,,,,,,,,,,,,,,,,,,,,,,,,,,,,,,,,,,,,,,,,,,,,,,,,,,,,,,,,,,,,,,,,,,,,
,,?,0.00157,0,,,,,,stimuli/images/PICTURE_675.png,SALE,5f1636568f0a801a56474836,17/08/2001,2020-08-13_13h01.56.468,proactive2,2020.1.2,Win32,60,5f341be081b9052c55068110,5f352ba150ffd64921b6f91e,2,,,,,,windmill,,,,,,,,,,,5,1,0,58,58,47,1,,,,,,,,,,,,,,,,,,,,,,,,,,,,,,,,,,,,,,,,,,,,,,,,,,,,,,,,,,,,,,,,,,,,,,,,,,,,,,,,,,,,,,,,,,,,,,
,,?,0.001135,0,,,,,,stimuli/images/PICTURE_403.png,RIVER,5f1636568f0a801a56474836,17/08/2001,2020-08-13_13h01.56.468,proactive2,2020.1.2,Win32,60,5f341be081b9052c55068110,5f352ba150ffd64921b6f91e,2,,,,,,cathedral,,,,,,,,,,,5,1,0,59,59,40,1,,,,,,,,,,,,,,,,,,,,,,,,,,,,,,,,,,,,,,,,,,,,,,,,,,,,,,,,,,,,,,,,,,,,,,,,,,,,,,,,,,,,,,,,,,,,,,
,,,,,,,,,,,,5f1636568f0a801a56474836,17/08/2001,2020-08-13_13h01.56.468,proactive2,2020.1.2,Win32,60,5f341be081b9052c55068110,5f352ba150ffd64921b6f91e,2,,,,,,,,,,,,,,,,,,,,,,,,0,0,0,1,1,stimuli/learn-block2.csv,,,,,,,,,,,,,,,,,,,,,,,,,,,,,,,,,,,,,,,,,,,,,,,,,,,,,,,,,,,,,,,,,,,,,,,,,,,,,,,,,,,,,,,,
,,,,,,,,,,stimuli/images/PICTURE_208.png,LOTS,5f1636568f0a801a56474836,17/08/2001,2020-08-13_13h01.56.468,proactive2,2020.1.2,Win32,60,5f341be081b9052c55068110,5f352ba150ffd64921b6f91e,2,,,,,,microphone,,,,,,0,0,0,10,1,2,0,,,,,,,,,,,,,,,,,,,,,,,,,,,,,,,,,,,,,,,,,,,,,,,,,,,,,,,,,,,,,,,,,,,,,,,,,,,,,,,,,,,,,,,,,,,,,,,,,,,
,,,,,,,,,,stimuli/images/PICTURE_285.png,ADVICE,5f1636568f0a801a56474836,17/08/2001,2020-08-13_13h01.56.468,proactive2,2020.1.2,Win32,60,5f341be081b9052c55068110,5f352ba150ffd64921b6f91e,2,,,,,,carrot,,,,,,0,1,1,12,1,2,0,,,,,,,,,,,,,,,,,,,,,,,,,,,,,,,,,,,,,,,,,,,,,,,,,,,,,,,,,,,,,,,,,,,,,,,,,,,,,,,,,,,,,,,,,,,,,,,,,,,
,,,,,,,,,,stimuli/images/PICTURE_467.png,DEMON,5f1636568f0a801a56474836,17/08/2001,2020-08-13_13h01.56.468,proactive2,2020.1.2,Win32,60,5f341be081b9052c55068110,5f352ba150ffd64921b6f91e,2,,,,,,peg,,,,,,0,2,2,23,1,3,0,,,,,,,,,,,,,,,,,,,,,,,,,,,,,,,,,,,,,,,,,,,,,,,,,,,,,,,,,,,,,,,,,,,,,,,,,,,,,,,,,,,,,,,,,,,,,,,,,,,
,,,,,,,,,,stimuli/images/PICTURE_509.png,PHOTO,5f1636568f0a801a56474836,17/08/2001,2020-08-13_13h01.56.468,proactive2,2020.1.2,Win32,60,5f341be081b9052c55068110,5f352ba150ffd64921b6f91e,2,,,,,,telephone,,,,,,0,3,3,21,1,3,0,,,,,,,,,,,,,,,,,,,,,,,,,,,,,,,,,,,,,,,,,,,,,,,,,,,,,,,,,,,,,,,,,,,,,,,,,,,,,,,,,,,,,,,,,,,,,,,,,,,
,,,,,,,,,,stimuli/images/PICTURE_491.png,WRITER,5f1636568f0a801a56474836,17/08/2001,2020-08-13_13h01.56.468,proactive2,2020.1.2,Win32,60,5f341be081b9052c55068110,5f352ba150ffd64921b6f91e,2,,,,,,rug,,,,,,0,4,4,57,1,6,0,,,,,,,,,,,,,,,,,,,,,,,,,,,,,,,,,,,,,,,,,,,,,,,,,,,,,,,,,,,,,,,,,,,,,,,,,,,,,,,,,,,,,,,,,,,,,,,,,,,
,,,,,,,,,,stimuli/images/PICTURE_469.png,LETTER,5f1636568f0a801a56474836,17/08/2001,2020-08-13_13h01.56.468,proactive2,2020.1.2,Win32,60,5f341be081b9052c55068110,5f352ba150ffd64921b6f91e,2,,,,,,stool,,,,,,0,5,5,42,1,5,0,,,,,,,,,,,,,,,,,,,,,,,,,,,,,,,,,,,,,,,,,,,,,,,,,,,,,,,,,,,,,,,,,,,,,,,,,,,,,,,,,,,,,,,,,,,,,,,,,,,
,,,,,,,,,,stimuli/images/PICTURE_147.png,MOMENT,5f1636568f0a801a56474836,17/08/2001,2020-08-13_13h01.56.468,proactive2,2020.1.2,Win32,60,5f341be081b9052c55068110,5f352ba150ffd64921b6f91e,2,,,,,,hanger,,,,,,0,6,6,51,1,6,0,,,,,,,,,,,,,,,,,,,,,,,,,,,,,,,,,,,,,,,,,,,,,,,,,,,,,,,,,,,,,,,,,,,,,,,,,,,,,,,,,,,,,,,,,,,,,,,,,,,
,,,,,,,,,,stimuli/images/PICTURE_453.png,PLENTY,5f1636568f0a801a56474836,17/08/2001,2020-08-13_13h01.56.468,proactive2,2020.1.2,Win32,60,5f341be081b9052c55068110,5f352ba150ffd64921b6f91e,2,,,,,,scissors,,,,,,0,7,7,56,1,6,0,,,,,,,,,,,,,,,,,,,,,,,,,,,,,,,,,,,,,,,,,,,,,,,,,,,,,,,,,,,,,,,,,,,,,,,,,,,,,,,,,,,,,,,,,,,,,,,,,,,
,,,,,,,,,,stimuli/images/PICTURE_302.png,FAMILY,5f1636568f0a801a56474836,17/08/2001,2020-08-13_13h01.56.468,proactive2,2020.1.2,Win32,60,5f341be081b9052c55068110,5f352ba150ffd64921b6f91e,2,,,,,,taxi,,,,,,0,8,8,18,1,2,0,,,,,,,,,,,,,,,,,,,,,,,,,,,,,,,,,,,,,,,,,,,,,,,,,,,,,,,,,,,,,,,,,,,,,,,,,,,,,,,,,,,,,,,,,,,,,,,,,,,
,,,,,,,,,,stimuli/images/PICTURE_654.png,VALLEY,5f1636568f0a801a56474836,17/08/2001,2020-08-13_13h01.56.468,proactive2,2020.1.2,Win32,60,5f341be081b9052c55068110,5f352ba150ffd64921b6f91e,2,,,,,,pencil,,,,,,0,9,9,1,1,1,0,,,,,,,,,,,,,,,,,,,,,,,,,,,,,,,,,,,,,,,,,,,,,,,,,,,,,,,,,,,,,,,,,,,,,,,,,,,,,,,,,,,,,,,,,,,,,,,,,,,
,,,,,,,,,,stimuli/images/PICTURE_160.png,LEADER,5f1636568f0a801a56474836,17/08/2001,2020-08-13_13h01.56.468,proactive2,2020.1.2,Win32,60,5f341be081b9052c55068110,5f352ba150ffd64921b6f91e,2,,,,,,wheelbarrow,,,,,,0,10,10,3,1,1,0,,,,,,,,,,,,,,,,,,,,,,,,,,,,,,,,,,,,,,,,,,,,,,,,,,,,,,,,,,,,,,,,,,,,,,,,,,,,,,,,,,,,,,,,,,,,,,,,,,,
,,,,,,,,,,stimuli/images/PICTURE_314.png,GODS,5f1636568f0a801a56474836,17/08/2001,2020-08-13_13h01.56.468,proactive2,2020.1.2,Win32,60,5f341be081b9052c55068110,5f352ba150ffd64921b6f91e,2,,,,,,perfume,,,,,,0,11,11,11,1,2,0,,,,,,,,,,,,,,,,,,,,,,,,,,,,,,,,,,,,,,,,,,,,,,,,,,,,,,,,,,,,,,,,,,,,,,,,,,,,,,,,,,,,,,,,,,,,,,,,,,,
,,,,,,,,,,stimuli/images/PICTURE_744.png,SYSTEM,5f1636568f0a801a56474836,17/08/2001,2020-08-13_13h01.56.468,proactive2,2020.1.2,Win32,60,5f341be081b9052c55068110,5f352ba150ffd64921b6f91e,2,,,,,,ring,,,,,,0,12,12,43,1,5,0,,,,,,,,,,,,,,,,,,,,,,,,,,,,,,,,,,,,,,,,,,,,,,,,,,,,,,,,,,,,,,,,,,,,,,,,,,,,,,,,,,,,,,,,,,,,,,,,,,,
,,,,,,,,,,stimuli/images/PICTURE_487.png,FLIGHT,5f1636568f0a801a56474836,17/08/2001,2020-08-13_13h01.56.468,proactive2,2020.1.2,Win32,60,5f341be081b9052c55068110,5f352ba150ffd64921b6f91e,2,,,,,,basket,,,,,,0,13,13,9,1,1,0,,,,,,,,,,,,,,,,,,,,,,,,,,,,,,,,,,,,,,,,,,,,,,,,,,,,,,,,,,,,,,,,,,,,,,,,,,,,,,,,,,,,,,,,,,,,,,,,,,,
,,,,,,,,,,stimuli/images/PICTURE_677.png,MILE,5f1636568f0a801a56474836,17/08/2001,2020-08-13_13h01.56.468,proactive2,2020.1.2,Win32,60,5f341be081b9052c55068110,5f352ba150ffd64921b6f91e,2,,,,,,map,,,,,,0,14,14,30,1,4,0,,,,,,,,,,,,,,,,,,,,,,,,,,,,,,,,,,,,,,,,,,,,,,,,,,,,,,,,,,,,,,,,,,,,,,,,,,,,,,,,,,,,,,,,,,,,,,,,,,,
,,,,,,,,,,stimuli/images/PICTURE_311.png,FRIEND,5f1636568f0a801a56474836,17/08/2001,2020-08-13_13h01.56.468,proactive2,2020.1.2,Win32,60,5f341be081b9052c55068110,5f352ba150ffd64921b6f91e,2,,,,,,razor,,,,,,0,15,15,34,1,4,0,,,,,,,,,,,,,,,,,,,,,,,,,,,,,,,,,,,,,,,,,,,,,,,,,,,,,,,,,,,,,,,,,,,,,,,,,,,,,,,,,,,,,,,,,,,,,,,,,,,
,,,,,,,,,,stimuli/images/PICTURE_177.png,CARS,5f1636568f0a801a56474836,17/08/2001,2020-08-13_13h01.56.468,proactive2,2020.1.2,Win32,60,5f341be081b9052c55068110,5f352ba150ffd64921b6f91e,2,,,,,,mushroom,,,,,,0,16,16,35,1,4,0,,,,,,,,,,,,,,,,,,,,,,,,,,,,,,,,,,,,,,,,,,,,,,,,,,,,,,,,,,,,,,,,,,,,,,,,,,,,,,,,,,,,,,,,,,,,,,,,,,,
,,,,,,,,,,stimuli/images/PICTURE_504.png,BODY,5f1636568f0a801a56474836,17/08/2001,2020-08-13_13h01.56.468,proactive2,2020.1.2,Win32,60,5f341be081b9052c55068110,5f352ba150ffd64921b6f91e,2,,,,,,wheel,,,,,,0,17,17,8,1,1,0,,,,,,,,,,,,,,,,,,,,,,,,,,,,,,,,,,,,,,,,,,,,,,,,,,,,,,,,,,,,,,,,,,,,,,,,,,,,,,,,,,,,,,,,,,,,,,,,,,,
,,,,,,,,,,stimuli/images/PICTURE_215.png,PLENTY,5f1636568f0a801a56474836,17/08/2001,2020-08-13_13h01.56.468,proactive2,2020.1.2,Win32,60,5f341be081b9052c55068110,5f352ba150ffd64921b6f91e,2,,,,,,boot,,,,,,0,18,18,37,1,4,0,,,,,,,,,,,,,,,,,,,,,,,,,,,,,,,,,,,,,,,,,,,,,,,,,,,,,,,,,,,,,,,,,,,,,,,,,,,,,,,,,,,,,,,,,,,,,,,,,,,
,,,,,,,,,,stimuli/images/PICTURE_311.png,BEAUTY,5f1636568f0a801a56474836,17/08/2001,2020-08-13_13h01.56.468,proactive2,2020.1.2,Win32,60,5f341be081b9052c55068110,5f352ba150ffd64921b6f91e,2,,,,,,razor,,,,,,0,19,19,13,1,2,0,,,,,,,,,,,,,,,,,,,,,,,,,,,,,,,,,,,,,,,,,,,,,,,,,,,,,,,,,,,,,,,,,,,,,,,,,,,,,,,,,,,,,,,,,,,,,,,,,,,
,,,,,,,,,,stimuli/images/PICTURE_667.png,BATH,5f1636568f0a801a56474836,17/08/2001,2020-08-13_13h01.56.468,proactive2,2020.1.2,Win32,60,5f341be081b9052c55068110,5f352ba150ffd64921b6f91e,2,,,,,,daisy,,,,,,0,20,20,4,1,1,0,,,,,,,,,,,,,,,,,,,,,,,,,,,,,,,,,,,,,,,,,,,,,,,,,,,,,,,,,,,,,,,,,,,,,,,,,,,,,,,,,,,,,,,,,,,,,,,,,,,
,,,,,,,,,,stimuli/images/PICTURE_32.png,JUNGLE,5f1636568f0a801a56474836,17/08/2001,2020-08-13_13h01.56.468,proactive2,2020.1.2,Win32,60,5f341be081b9052c55068110,5f352ba150ffd64921b6f91e,2,,,,,,crown,,,,,,0,21,21,45,1,5,0,,,,,,,,,,,,,,,,,,,,,,,,,,,,,,,,,,,,,,,,,,,,,,,,,,,,,,,,,,,,,,,,,,,,,,,,,,,,,,,,,,,,,,,,,,,,,,,,,,,
,,,,,,,,,,stimuli/images/PICTURE_708.png,YARD,5f1636568f0a801a56474836,17/08/2001,2020-08-13_13h01.56.468,proactive2,2020.1.2,Win32,60,5f341be081b9052c55068110,5f352ba150ffd64921b6f91e,2,,,,,,monkey,,,,,,0,22,22,29,1,3,0,,,,,,,,,,,,,,,,,,,,,,,,,,,,,,,,,,,,,,,,,,,,,,,,,,,,,,,,,,,,,,,,,,,,,,,,,,,,,,,,,,,,,,,,,,,,,,,,,,,
,,,,,,,,,,stimuli/images/PICTURE_470.png,CASINO,5f1636568f0a801a56474836,17/08/2001,2020-08-13_13h01.56.468,proactive2,2020.1.2,Win32,60,5f341be081b9052c55068110,5f352ba150ffd64921b6f91e,2,,,,,,motorbike,,,,,,0,23,23,36,1,4,0,,,,,,,,,,,,,,,,,,,,,,,,,,,,,,,,,,,,,,,,,,,,,,,,,,,,,,,,,,,,,,,,,,,,,,,,,,,,,,,,,,,,,,,,,,,,,,,,,,,
,,,,,,,,,,stimuli/images/PICTURE_208.png,MONTH,5f1636568f0a801a56474836,17/08/2001,2020-08-13_13h01.56.468,proactive2,2020.1.2,Win32,60,5f341be081b9052c55068110,5f352ba150ffd64921b6f91e,2,,,,,,microphone,,,,,,0,24,24,53,1,6,0,,,,,,,,,,,,,,,,,,,,,,,,,,,,,,,,,,,,,,,,,,,,,,,,,,,,,,,,,,,,,,,,,,,,,,,,,,,,,,,,,,,,,,,,,,,,,,,,,,,
,,,,,,,,,,stimuli/images/PICTURE_675.png,WEAPON,5f1636568f0a801a56474836,17/08/2001,2020-08-13_13h01.56.468,proactive2,2020.1.2,Win32,60,5f341be081b9052c55068110,5f352ba150ffd64921b6f91e,2,,,,,,windmill,,,,,,0,25,25,32,1,4,0,,,,,,,,,,,,,,,,,,,,,,,,,,,,,,,,,,,,,,,,,,,,,,,,,,,,,,,,,,,,,,,,,,,,,,,,,,,,,,,,,,,,,,,,,,,,,,,,,,,
,,,,,,,,,,stimuli/images/PICTURE_160.png,FEET,5f1636568f0a801a56474836,17/08/2001,2020-08-13_13h01.56.468,proactive2,2020.1.2,Win32,60,5f341be081b9052c55068110,5f352ba150ffd64921b6f91e,2,,,,,,wheelbarrow,,,,,,0,26,26,58,1,6,0,,,,,,,,,,,,,,,,,,,,,,,,,,,,,,,,,,,,,,,,,,,,,,,,,,,,,,,,,,,,,,,,,,,,,,,,,,,,,,,,,,,,,,,,,,,,,,,,,,,
,,,,,,,,,,stimuli/images/PICTURE_208.png,THING,5f1636568f0a801a56474836,17/08/2001,2020-08-13_13h01.56.468,proactive2,2020.1.2,Win32,60,5f341be081b9052c55068110,5f352ba150ffd64921b6f91e,2,,,,,,microphone,,,,,,0,27,27,47,1,5,0,,,,,,,,,,,,,,,,,,,,,,,,,,,,,,,,,,,,,,,,,,,,,,,,,,,,,,,,,,,,,,,,,,,,,,,,,,,,,,,,,,,,,,,,,,,,,,,,,,,
,,,,,,,,,,stimuli/images/PICTURE_314.png,SAKE,5f1636568f0a801a56474836,17/08/2001,2020-08-13_13h01.56.468,proactive2,2020.1.2,Win32,60,5f341be081b9052c55068110,5f352ba150ffd64921b6f91e,2,,,,,,perfume,,,,,,0,28,28,7,1,1,0,,,,,,,,,,,,,,,,,,,,,,,,,,,,,,,,,,,,,,,,,,,,,,,,,,,,,,,,,,,,,,,,,,,,,,,,,,,,,,,,,,,,,,,,,,,,,,,,,,,
,,,,,,,,,,stimuli/images/PICTURE_348.png,SPEECH,5f1636568f0a801a56474836,17/08/2001,2020-08-13_13h01.56.468,proactive2,2020.1.2,Win32,60,5f341be081b9052c55068110,5f352ba150ffd64921b6f91e,2,,,,,,pepper,,,,,,0,29,29,20,1,3,0,,,,,,,,,,,,,,,,,,,,,,,,,,,,,,,,,,,,,,,,,,,,,,,,,,,,,,,,,,,,,,,,,,,,,,,,,,,,,,,,,,,,,,,,,,,,,,,,,,,
,,,,,,,,,,stimuli/images/PICTURE_248.png,DOZEN,5f1636568f0a801a56474836,17/08/2001,2020-08-13_13h01.56.468,proactive2,2020.1.2,Win32,60,5f341be081b9052c55068110,5f352ba150ffd64921b6f91e,2,,,,,,cart,,,,,,0,30,30,39,1,4,0,,,,,,,,,,,,,,,,,,,,,,,,,,,,,,,,,,,,,,,,,,,,,,,,,,,,,,,,,,,,,,,,,,,,,,,,,,,,,,,,,,,,,,,,,,,,,,,,,,,
,,,,,,,,,,stimuli/images/PICTURE_380.png,DEATH,5f1636568f0a801a56474836,17/08/2001,2020-08-13_13h01.56.468,proactive2,2020.1.2,Win32,60,5f341be081b9052c55068110,5f352ba150ffd64921b6f91e,2,,,,,,gorilla,,,,,,0,31,31,49,1,5,0,,,,,,,,,,,,,,,,,,,,,,,,,,,,,,,,,,,,,,,,,,,,,,,,,,,,,,,,,,,,,,,,,,,,,,,,,,,,,,,,,,,,,,,,,,,,,,,,,,,
,,,,,,,,,,stimuli/images/PICTURE_356.png,DANGER,5f1636568f0a801a56474836,17/08/2001,2020-08-13_13h01.56.468,proactive2,2020.1.2,Win32,60,5f341be081b9052c55068110,5f352ba150ffd64921b6f91e,2,,,,,,pawn,,,,,,0,32,32,55,1,6,0,,,,,,,,,,,,,,,,,,,,,,,,,,,,,,,,,,,,,,,,,,,,,,,,,,,,,,,,,,,,,,,,,,,,,,,,,,,,,,,,,,,,,,,,,,,,,,,,,,,
,,,,,,,,,,stimuli/images/PICTURE_339.png,PLENTY,5f1636568f0a801a56474836,17/08/2001,2020-08-13_13h01.56.468,proactive2,2020.1.2,Win32,60,5f341be081b9052c55068110,5f352ba150ffd64921b6f91e,2,,,,,,backpack,,,,,,0,33,33,0,1,1,0,,,,,,,,,,,,,,,,,,,,,,,,,,,,,,,,,,,,,,,,,,,,,,,,,,,,,,,,,,,,,,,,,,,,,,,,,,,,,,,,,,,,,,,,,,,,,,,,,,,
,,,,,,,,,,stimuli/images/PICTURE_708.png,CLIENT,5f1636568f0a801a56474836,17/08/2001,2020-08-13_13h01.56.468,proactive2,2020.1.2,Win32,60,5f341be081b9052c55068110,5f352ba150ffd64921b6f91e,2,,,,,,monkey,,,,,,0,34,34,5,1,1,0,,,,,,,,,,,,,,,,,,,,,,,,,,,,,,,,,,,,,,,,,,,,,,,,,,,,,,,,,,,,,,,,,,,,,,,,,,,,,,,,,,,,,,,,,,,,,,,,,,,
,,,,,,,,,,stimuli/images/PICTURE_667.png,PLENTY,5f1636568f0a801a56474836,17/08/2001,2020-08-13_13h01.56.468,proactive2,2020.1.2,Win32,60,5f341be081b9052c55068110,5f352ba150ffd64921b6f91e,2,,,,,,daisy,,,,,,0,35,35,41,1,5,0,,,,,,,,,,,,,,,,,,,,,,,,,,,,,,,,,,,,,,,,,,,,,,,,,,,,,,,,,,,,,,,,,,,,,,,,,,,,,,,,,,,,,,,,,,,,,,,,,,,
,,,,,,,,,,stimuli/images/PICTURE_123.png,ADVICE,5f1636568f0a801a56474836,17/08/2001,2020-08-13_13h01.56.468,proactive2,2020.1.2,Win32,60,5f341be081b9052c55068110,5f352ba150ffd64921b6f91e,2,,,,,,dart,,,,,,0,36,36,40,1,5,0,,,,,,,,,,,,,,,,,,,,,,,,,,,,,,,,,,,,,,,,,,,,,,,,,,,,,,,,,,,,,,,,,,,,,,,,,,,,,,,,,,,,,,,,,,,,,,,,,,,
,,,,,,,,,,stimuli/images/PICTURE_692.png,MONTH,5f1636568f0a801a56474836,17/08/2001,2020-08-13_13h01.56.468,proactive2,2020.1.2,Win32,60,5f341be081b9052c55068110,5f352ba150ffd64921b6f91e,2,,,,,,cherry,,,,,,0,37,37,16,1,2,0,,,,,,,,,,,,,,,,,,,,,,,,,,,,,,,,,,,,,,,,,,,,,,,,,,,,,,,,,,,,,,,,,,,,,,,,,,,,,,,,,,,,,,,,,,,,,,,,,,,
,,,,,,,,,,stimuli/images/PICTURE_85.png,THING,5f1636568f0a801a56474836,17/08/2001,2020-08-13_13h01.56.468,proactive2,2020.1.2,Win32,60,5f341be081b9052c55068110,5f352ba150ffd64921b6f91e,2,,,,,,diamond,,,,,,0,38,38,15,1,2,0,,,,,,,,,,,,,,,,,,,,,,,,,,,,,,,,,,,,,,,,,,,,,,,,,,,,,,,,,,,,,,,,,,,,,,,,,,,,,,,,,,,,,,,,,,,,,,,,,,,
,,,,,,,,,,stimuli/images/PICTURE_491.png,ROOF,5f1636568f0a801a56474836,17/08/2001,2020-08-13_13h01.56.468,proactive2,2020.1.2,Win32,60,5f341be081b9052c55068110,5f352ba150ffd64921b6f91e,2,,,,,,rug,,,,,,0,39,39,24,1,3,0,,,,,,,,,,,,,,,,,,,,,,,,,,,,,,,,,,,,,,,,,,,,,,,,,,,,,,,,,,,,,,,,,,,,,,,,,,,,,,,,,,,,,,,,,,,,,,,,,,,
,,,,,,,,,,stimuli/images/PICTURE_203.png,ARTIST,5f1636568f0a801a56474836,17/08/2001,2020-08-13_13h01.56.468,proactive2,2020.1.2,Win32,60,5f341be081b9052c55068110,5f352ba150ffd64921b6f91e,2,,,,,,cap,,,,,,0,40,40,26,1,3,0,,,,,,,,,,,,,,,,,,,,,,,,,,,,,,,,,,,,,,,,,,,,,,,,,,,,,,,,,,,,,,,,,,,,,,,,,,,,,,,,,,,,,,,,,,,,,,,,,,,
,,,,,,,,,,stimuli/images/PICTURE_688.png,CASINO,5f1636568f0a801a56474836,17/08/2001,2020-08-13_13h01.56.468,proactive2,2020.1.2,Win32,60,5f341be081b9052c55068110,5f352ba150ffd64921b6f91e,2,,,,,,runner,,,,,,0,41,41,2,1,1,0,,,,,,,,,,,,,,,,,,,,,,,,,,,,,,,,,,,,,,,,,,,,,,,,,,,,,,,,,,,,,,,,,,,,,,,,,,,,,,,,,,,,,,,,,,,,,,,,,,,
,,,,,,,,,,stimuli/images/PICTURE_151.png,GIRL,5f1636568f0a801a56474836,17/08/2001,2020-08-13_13h01.56.468,proactive2,2020.1.2,Win32,60,5f341be081b9052c55068110,5f352ba150ffd64921b6f91e,2,,,,,,tray,,,,,,0,42,42,19,1,2,0,,,,,,,,,,,,,,,,,,,,,,,,,,,,,,,,,,,,,,,,,,,,,,,,,,,,,,,,,,,,,,,,,,,,,,,,,,,,,,,,,,,,,,,,,,,,,,,,,,,
,,,,,,,,,,stimuli/images/PICTURE_255.png,AREA,5f1636568f0a801a56474836,17/08/2001,2020-08-13_13h01.56.468,proactive2,2020.1.2,Win32,60,5f341be081b9052c55068110,5f352ba150ffd64921b6f91e,2,,,,,,shovel,,,,,,0,43,43,22,1,3,0,,,,,,,,,,,,,,,,,,,,,,,,,,,,,,,,,,,,,,,,,,,,,,,,,,,,,,,,,,,,,,,,,,,,,,,,,,,,,,,,,,,,,,,,,,,,,,,,,,,
,,,,,,,,,,stimuli/images/PICTURE_708.png,PENNY,5f1636568f0a801a56474836,17/08/2001,2020-08-13_13h01.56.468,proactive2,2020.1.2,Win32,60,5f341be081b9052c55068110,5f352ba150ffd64921b6f91e,2,,,,,,monkey,,,,,,0,44,44,31,1,4,0,,,,,,,,,,,,,,,,,,,,,,,,,,,,,,,,,,,,,,,,,,,,,,,,,,,,,,,,,,,,,,,,,,,,,,,,,,,,,,,,,,,,,,,,,,,,,,,,,,,
,,,,,,,,,,stimuli/images/PICTURE_95.png,STYLE,5f1636568f0a801a56474836,17/08/2001,2020-08-13_13h01.56.468,proactive2,2020.1.2,Win32,60,5f341be081b9052c55068110,5f352ba150ffd64921b6f91e,2,,,,,,suitcase,,,,,,0,45,45,25,1,3,0,,,,,,,,,,,,,,,,,,,,,,,,,,,,,,,,,,,,,,,,,,,,,,,,,,,,,,,,,,,,,,,,,,,,,,,,,,,,,,,,,,,,,,,,,,,,,,,,,,,
,,,,,,,,,,stimuli/images/PICTURE_123.png,ADVICE,5f1636568f0a801a56474836,17/08/2001,2020-08-13_13h01.56.468,proactive2,2020.1.2,Win32,60,5f341be081b9052c55068110,5f352ba150ffd64921b6f91e,2,,,,,,dart,,,,,,0,46,46,50,1,6,0,,,,,,,,,,,,,,,,,,,,,,,,,,,,,,,,,,,,,,,,,,,,,,,,,,,,,,,,,,,,,,,,,,,,,,,,,,,,,,,,,,,,,,,,,,,,,,,,,,,
,,,,,,,,,,stimuli/images/PICTURE_233.png,WOMEN,5f1636568f0a801a56474836,17/08/2001,2020-08-13_13h01.56.468,proactive2,2020.1.2,Win32,60,5f341be081b9052c55068110,5f352ba150ffd64921b6f91e,2,,,,,,salt,,,,,,0,47,47,38,1,4,0,,,,,,,,,,,,,,,,,,,,,,,,,,,,,,,,,,,,,,,,,,,,,,,,,,,,,,,,,,,,,,,,,,,,,,,,,,,,,,,,,,,,,,,,,,,,,,,,,,,
,,,,,,,,,,stimuli/images/PICTURE_488.png,STYLE,5f1636568f0a801a56474836,17/08/2001,2020-08-13_13h01.56.468,proactive2,2020.1.2,Win32,60,5f341be081b9052c55068110,5f352ba150ffd64921b6f91e,2,,,,,,sun,,,,,,0,48,48,33,1,4,0,,,,,,,,,,,,,,,,,,,,,,,,,,,,,,,,,,,,,,,,,,,,,,,,,,,,,,,,,,,,,,,,,,,,,,,,,,,,,,,,,,,,,,,,,,,,,,,,,,,
,,,,,,,,,,stimuli/images/PICTURE_744.png,SAKE,5f1636568f0a801a56474836,17/08/2001,2020-08-13_13h01.56.468,proactive2,2020.1.2,Win32,60,5f341be081b9052c55068110,5f352ba150ffd64921b6f91e,2,,,,,,ring,,,,,,0,49,49,17,1,2,0,,,,,,,,,,,,,,,,,,,,,,,,,,,,,,,,,,,,,,,,,,,,,,,,,,,,,,,,,,,,,,,,,,,,,,,,,,,,,,,,,,,,,,,,,,,,,,,,,,,
,,,,,,,,,,stimuli/images/PICTURE_453.png,DUDE,5f1636568f0a801a56474836,17/08/2001,2020-08-13_13h01.56.468,proactive2,2020.1.2,Win32,60,5f341be081b9052c55068110,5f352ba150ffd64921b6f91e,2,,,,,,scissors,,,,,,0,50,50,27,1,3,0,,,,,,,,,,,,,,,,,,,,,,,,,,,,,,,,,,,,,,,,,,,,,,,,,,,,,,,,,,,,,,,,,,,,,,,,,,,,,,,,,,,,,,,,,,,,,,,,,,,
,,,,,,,,,,stimuli/images/PICTURE_308.png,KIND,5f1636568f0a801a56474836,17/08/2001,2020-08-13_13h01.56.468,proactive2,2020.1.2,Win32,60,5f341be081b9052c55068110,5f352ba150ffd64921b6f91e,2,,,,,,dice,,,,,,0,51,51,54,1,6,0,,,,,,,,,,,,,,,,,,,,,,,,,,,,,,,,,,,,,,,,,,,,,,,,,,,,,,,,,,,,,,,,,,,,,,,,,,,,,,,,,,,,,,,,,,,,,,,,,,,
,,,,,,,,,,stimuli/images/PICTURE_380.png,PHOTO,5f1636568f0a801a56474836,17/08/2001,2020-08-13_13h01.56.468,proactive2,2020.1.2,Win32,60,5f341be081b9052c55068110,5f352ba150ffd64921b6f91e,2,,,,,,gorilla,,,,,,0,52,52,52,1,6,0,,,,,,,,,,,,,,,,,,,,,,,,,,,,,,,,,,,,,,,,,,,,,,,,,,,,,,,,,,,,,,,,,,,,,,,,,,,,,,,,,,,,,,,,,,,,,,,,,,,
,,,,,,,,,,stimuli/images/PICTURE_327.png,BEAUTY,5f1636568f0a801a56474836,17/08/2001,2020-08-13_13h01.56.468,proactive2,2020.1.2,Win32,60,5f341be081b9052c55068110,5f352ba150ffd64921b6f91e,2,,,,,,helmet,,,,,,0,53,53,48,1,5,0,,,,,,,,,,,,,,,,,,,,,,,,,,,,,,,,,,,,,,,,,,,,,,,,,,,,,,,,,,,,,,,,,,,,,,,,,,,,,,,,,,,,,,,,,,,,,,,,,,,
,,,,,,,,,,stimuli/images/PICTURE_688.png,WOMEN,5f1636568f0a801a56474836,17/08/2001,2020-08-13_13h01.56.468,proactive2,2020.1.2,Win32,60,5f341be081b9052c55068110,5f352ba150ffd64921b6f91e,2,,,,,,runner,,,,,,0,54,54,14,1,2,0,,,,,,,,,,,,,,,,,,,,,,,,,,,,,,,,,,,,,,,,,,,,,,,,,,,,,,,,,,,,,,,,,,,,,,,,,,,,,,,,,,,,,,,,,,,,,,,,,,,
,,,,,,,,,,stimuli/images/PICTURE_449.png,THING,5f1636568f0a801a56474836,17/08/2001,2020-08-13_13h01.56.468,proactive2,2020.1.2,Win32,60,5f341be081b9052c55068110,5f352ba150ffd64921b6f91e,2,,,,,,bench,,,,,,0,55,55,59,1,6,0,,,,,,,,,,,,,,,,,,,,,,,,,,,,,,,,,,,,,,,,,,,,,,,,,,,,,,,,,,,,,,,,,,,,,,,,,,,,,,,,,,,,,,,,,,,,,,,,,,,
,,,,,,,,,,stimuli/images/PICTURE_308.png,ESTATE,5f1636568f0a801a56474836,17/08/2001,2020-08-13_13h01.56.468,proactive2,2020.1.2,Win32,60,5f341be081b9052c55068110,5f352ba150ffd64921b6f91e,2,,,,,,dice,,,,,,0,56,56,46,1,5,0,,,,,,,,,,,,,,,,,,,,,,,,,,,,,,,,,,,,,,,,,,,,,,,,,,,,,,,,,,,,,,,,,,,,,,,,,,,,,,,,,,,,,,,,,,,,,,,,,,,
,,,,,,,,,,stimuli/images/PICTURE_469.png,ARTIST,5f1636568f0a801a56474836,17/08/2001,2020-08-13_13h01.56.468,proactive2,2020.1.2,Win32,60,5f341be081b9052c55068110,5f352ba150ffd64921b6f91e,2,,,,,,stool,,,,,,0,57,57,6,1,1,0,,,,,,,,,,,,,,,,,,,,,,,,,,,,,,,,,,,,,,,,,,,,,,,,,,,,,,,,,,,,,,,,,,,,,,,,,,,,,,,,,,,,,,,,,,,,,,,,,,,
,,,,,,,,,,stimuli/images/PICTURE_68.png,MILE,5f1636568f0a801a56474836,17/08/2001,2020-08-13_13h01.56.468,proactive2,2020.1.2,Win32,60,5f341be081b9052c55068110,5f352ba150ffd64921b6f91e,2,,,,,,candle,,,,,,0,58,58,44,1,5,0,,,,,,,,,,,,,,,,,,,,,,,,,,,,,,,,,,,,,,,,,,,,,,,,,,,,,,,,,,,,,,,,,,,,,,,,,,,,,,,,,,,,,,,,,,,,,,,,,,,
,,PARROT,5.404445,0,,,,,,stimuli/images/PICTURE_151.png,GIRL,5f1636568f0a801a56474836,17/08/2001,2020-08-13_13h01.56.468,proactive2,2020.1.2,Win32,60,5f341be081b9052c55068110,5f352ba150ffd64921b6f91e,2,,,,,,tray,,,,,,,,,,,2,0,0,0,0,19,1,,,,,,,,,,,,,,,,,,,,,,,,,,,,,,,,,,,,,,,,,,,,,,,,,,,,,,,,,,,,,,,,,,,,,,,,,,,,,,,,,,,,,,,,,,,,,,
,,?,0.001525,0,,,,,,stimuli/images/PICTURE_491.png,ROOF,5f1636568f0a801a56474836,17/08/2001,2020-08-13_13h01.56.468,proactive2,2020.1.2,Win32,60,5f341be081b9052c55068110,5f352ba150ffd64921b6f91e,2,,,,,,rug,,,,,,,,,,,3,0,0,1,1,24,1,,,,,,,,,,,,,,,,,,,,,,,,,,,,,,,,,,,,,,,,,,,,,,,,,,,,,,,,,,,,,,,,,,,,,,,,,,,,,,,,,,,,,,,,,,,,,,
,,THING,2.00942,1,,,,,,stimuli/images/PICTURE_85.png,THING,5f1636568f0a801a56474836,17/08/2001,2020-08-13_13h01.56.468,proactive2,2020.1.2,Win32,60,5f341be081b9052c55068110,5f352ba150ffd64921b6f91e,2,,,,,,diamond,,,,,,,,,,,2,0,0,2,2,15,1,,,,,,,,,,,,,,,,,,,,,,,,,,,,,,,,,,,,,,,,,,,,,,,,,,,,,,,,,,,,,,,,,,,,,,,,,,,,,,,,,,,,,,,,,,,,,,
,,?,0.00143,0,,,,,,stimuli/images/PICTURE_467.png,DEMON,5f1636568f0a801a56474836,17/08/2001,2020-08-13_13h01.56.468,proactive2,2020.1.2,Win32,60,5f341be081b9052c55068110,5f352ba150ffd64921b6f91e,2,,,,,,peg,,,,,,,,,,,3,0,0,3,3,23,1,,,,,,,,,,,,,,,,,,,,,,,,,,,,,,,,,,,,,,,,,,,,,,,,,,,,,,,,,,,,,,,,,,,,,,,,,,,,,,,,,,,,,,,,,,,,,,
,,GOD,1.711655,0,,,,,,stimuli/images/PICTURE_314.png,GODS,5f1636568f0a801a56474836,17/08/2001,2020-08-13_13h01.56.468,proactive2,2020.1.2,Win32,60,5f341be081b9052c55068110,5f352ba150ffd64921b6f91e,2,,,,,,perfume,,,,,,,,,,,2,0,0,4,4,11,1,,,,,,,,,,,,,,,,,,,,,,,,,,,,,,,,,,,,,,,,,,,,,,,,,,,,,,,,,,,,,,,,,,,,,,,,,,,,,,,,,,,,,,,,,,,,,,
,,?,7.378475,0,,,,,,stimuli/images/PICTURE_692.png,MONTH,5f1636568f0a801a56474836,17/08/2001,2020-08-13_13h01.56.468,proactive2,2020.1.2,Win32,60,5f341be081b9052c55068110,5f352ba150ffd64921b6f91e,2,,,,,,cherry,,,,,,,,,,,2,0,0,5,5,16,1,,,,,,,,,,,,,,,,,,,,,,,,,,,,,,,,,,,,,,,,,,,,,,,,,,,,,,,,,,,,,,,,,,,,,,,,,,,,,,,,,,,,,,,,,,,,,,
,,?,0.001365,0,,,,,,stimuli/images/PICTURE_708.png,CLIENT,5f1636568f0a801a56474836,17/08/2001,2020-08-13_13h01.56.468,proactive2,2020.1.2,Win32,60,5f341be081b9052c55068110,5f352ba150ffd64921b6f91e,2,,,,,,monkey,,,,,,,,,,,1,0,0,6,6,5,1,,,,,,,,,,,,,,,,,,,,,,,,,,,,,,,,,,,,,,,,,,,,,,,,,,,,,,,,,,,,,,,,,,,,,,,,,,,,,,,,,,,,,,,,,,,,,,
,,?,0.00114,0,,,,,,stimuli/images/PICTURE_677.png,MILE,5f1636568f0a801a56474836,17/08/2001,2020-08-13_13h01.56.468,proactive2,2020.1.2,Win32,60,5f341be081b9052c55068110,5f352ba150ffd64921b6f91e,2,,,,,,map,,,,,,,,,,,4,0,0,7,7,30,1,,,,,,,,,,,,,,,,,,,,,,,,,,,,,,,,,,,,,,,,,,,,,,,,,,,,,,,,,,,,,,,,,,,,,,,,,,,,,,,,,,,,,,,,,,,,,,
,,?,0.00112,0,,,,,,stimuli/images/PICTURE_449.png,THING,5f1636568f0a801a56474836,17/08/2001,2020-08-13_13h01.56.468,proactive2,2020.1.2,Win32,60,5f341be081b9052c55068110,5f352ba150ffd64921b6f91e,2,,,,,,bench,,,,,,,,,,,6,0,0,8,8,59,1,,,,,,,,,,,,,,,,,,,,,,,,,,,,,,,,,,,,,,,,,,,,,,,,,,,,,,,,,,,,,,,,,,,,,,,,,,,,,,,,,,,,,,,,,,,,,,
,,?,0.001095,0,,,,,,stimuli/images/PICTURE_308.png,KIND,5f1636568f0a801a56474836,17/08/2001,2020-08-13_13h01.56.468,proactive2,2020.1.2,Win32,60,5f341be081b9052c55068110,5f352ba150ffd64921b6f91e,2,,,,,,dice,,,,,,,,,,,6,0,0,9,9,54,1,,,,,,,,,,,,,,,,,,,,,,,,,,,,,,,,,,,,,,,,,,,,,,,,,,,,,,,,,,,,,,,,,,,,,,,,,,,,,,,,,,,,,,,,,,,,,,
,,?,0.000765,0,,,,,,stimuli/images/PICTURE_380.png,PHOTO,5f1636568f0a801a56474836,17/08/2001,2020-08-13_13h01.56.468,proactive2,2020.1.2,Win32,60,5f341be081b9052c55068110,5f352ba150ffd64921b6f91e,2,,,,,,gorilla,,,,,,,,,,,6,0,0,10,10,52,1,,,,,,,,,,,,,,,,,,,,,,,,,,,,,,,,,,,,,,,,,,,,,,,,,,,,,,,,,,,,,,,,,,,,,,,,,,,,,,,,,,,,,,,,,,,,,,
,,?,0.00089,0,,,,,,stimuli/images/PICTURE_708.png,PENNY,5f1636568f0a801a56474836,17/08/2001,2020-08-13_13h01.56.468,proactive2,2020.1.2,Win32,60,5f341be081b9052c55068110,5f352ba150ffd64921b6f91e,2,,,,,,monkey,,,,,,,,,,,4,0,0,11,11,31,1,,,,,,,,,,,,,,,,,,,,,,,,,,,,,,,,,,,,,,,,,,,,,,,,,,,,,,,,,,,,,,,,,,,,,,,,,,,,,,,,,,,,,,,,,,,,,,
,,?,0.0006,0,,,,,,stimuli/images/PICTURE_453.png,PLENTY,5f1636568f0a801a56474836,17/08/2001,2020-08-13_13h01.56.468,proactive2,2020.1.2,Win32,60,5f341be081b9052c55068110,5f352ba150ffd64921b6f91e,2,,,,,,scissors,,,,,,,,,,,6,0,0,12,12,56,1,,,,,,,,,,,,,,,,,,,,,,,,,,,,,,,,,,,,,,,,,,,,,,,,,,,,,,,,,,,,,,,,,,,,,,,,,,,,,,,,,,,,,,,,,,,,,,
,,?,0.0006,0,,,,,,stimuli/images/PICTURE_356.png,DANGER,5f1636568f0a801a56474836,17/08/2001,2020-08-13_13h01.56.468,proactive2,2020.1.2,Win32,60,5f341be081b9052c55068110,5f352ba150ffd64921b6f91e,2,,,,,,pawn,,,,,,,,,,,6,0,0,13,13,55,1,,,,,,,,,,,,,,,,,,,,,,,,,,,,,,,,,,,,,,,,,,,,,,,,,,,,,,,,,,,,,,,,,,,,,,,,,,,,,,,,,,,,,,,,,,,,,,
,,?,0.00063,0,,,,,,stimuli/images/PICTURE_667.png,PLENTY,5f1636568f0a801a56474836,17/08/2001,2020-08-13_13h01.56.468,proactive2,2020.1.2,Win32,60,5f341be081b9052c55068110,5f352ba150ffd64921b6f91e,2,,,,,,daisy,,,,,,,,,,,5,0,0,14,14,41,1,,,,,,,,,,,,,,,,,,,,,,,,,,,,,,,,,,,,,,,,,,,,,,,,,,,,,,,,,,,,,,,,,,,,,,,,,,,,,,,,,,,,,,,,,,,,,,
,,?,0.000545,0,,,,,,stimuli/images/PICTURE_68.png,MILE,5f1636568f0a801a56474836,17/08/2001,2020-08-13_13h01.56.468,proactive2,2020.1.2,Win32,60,5f341be081b9052c55068110,5f352ba150ffd64921b6f91e,2,,,,,,candle,,,,,,,,,,,5,0,0,15,15,44,1,,,,,,,,,,,,,,,,,,,,,,,,,,,,,,,,,,,,,,,,,,,,,,,,,,,,,,,,,,,,,,,,,,,,,,,,,,,,,,,,,,,,,,,,,,,,,,
,,?,0.002005,0,,,,,,stimuli/images/PICTURE_123.png,ADVICE,5f1636568f0a801a56474836,17/08/2001,2020-08-13_13h01.56.468,proactive2,2020.1.2,Win32,60,5f341be081b9052c55068110,5f352ba150ffd64921b6f91e,2,,,,,,dart,,,,,,,,,,,6,0,0,16,16,50,1,,,,,,,,,,,,,,,,,,,,,,,,,,,,,,,,,,,,,,,,,,,,,,,,,,,,,,,,,,,,,,,,,,,,,,,,,,,,,,,,,,,,,,,,,,,,,,
,,LOTS,2.12299,1,,,,,,stimuli/images/PICTURE_208.png,LOTS,5f1636568f0a801a56474836,17/08/2001,2020-08-13_13h01.56.468,proactive2,2020.1.2,Win32,60,5f341be081b9052c55068110,5f352ba150ffd64921b6f91e,2,,,,,,microphone,,,,,,,,,,,2,0,0,17,17,10,1,,,,,,,,,,,,,,,,,,,,,,,,,,,,,,,,,,,,,,,,,,,,,,,,,,,,,,,,,,,,,,,,,,,,,,,,,,,,,,,,,,,,,,,,,,,,,,
,,?,0.00152,0,,,,,,stimuli/images/PICTURE_311.png,FRIEND,5f1636568f0a801a56474836,17/08/2001,2020-08-13_13h01.56.468,proactive2,2020.1.2,Win32,60,5f341be081b9052c55068110,5f352ba150ffd64921b6f91e,2,,,,,,razor,,,,,,,,,,,4,0,0,18,18,34,1,,,,,,,,,,,,,,,,,,,,,,,,,,,,,,,,,,,,,,,,,,,,,,,,,,,,,,,,,,,,,,,,,,,,,,,,,,,,,,,,,,,,,,,,,,,,,,
,,?,0.001125,0,,,,,,stimuli/images/PICTURE_308.png,ESTATE,5f1636568f0a801a56474836,17/08/2001,2020-08-13_13h01.56.468,proactive2,2020.1.2,Win32,60,5f341be081b9052c55068110,5f352ba150ffd64921b6f91e,2,,,,,,dice,,,,,,,,,,,5,0,0,19,19,46,1,,,,,,,,,,,,,,,,,,,,,,,,,,,,,,,,,,,,,,,,,,,,,,,,,,,,,,,,,,,,,,,,,,,,,,,,,,,,,,,,,,,,,,,,,,,,,,
,,?,0.00113,0,,,,,,stimuli/images/PICTURE_255.png,AREA,5f1636568f0a801a56474836,17/08/2001,2020-08-13_13h01.56.468,proactive2,2020.1.2,Win32,60,5f341be081b9052c55068110,5f352ba150ffd64921b6f91e,2,,,,,,shovel,,,,,,,,,,,3,0,0,20,20,22,1,,,,,,,,,,,,,,,,,,,,,,,,,,,,,,,,,,,,,,,,,,,,,,,,,,,,,,,,,,,,,,,,,,,,,,,,,,,,,,,,,,,,,,,,,,,,,,
,,?,0.0011,0,,,,,,stimuli/images/PICTURE_233.png,IDEAS,5f1636568f0a801a56474836,17/08/2001,2020-08-13_13h01.56.468,proactive2,2020.1.2,Win32,60,5f341be081b9052c55068110,5f352ba150ffd64921b6f91e,2,,,,,,salt,,,,,,,,,,,3,0,0,21,21,28,1,,,,,,,,,,,,,,,,,,,,,,,,,,,,,,,,,,,,,,,,,,,,,,,,,,,,,,,,,,,,,,,,,,,,,,,,,,,,,,,,,,,,,,,,,,,,,,
,,WOMAN,1.969045,0,,,,,,stimuli/images/PICTURE_688.png,WOMEN,5f1636568f0a801a56474836,17/08/2001,2020-08-13_13h01.56.468,proactive2,2020.1.2,Win32,60,5f341be081b9052c55068110,5f352ba150ffd64921b6f91e,2,,,,,,runner,,,,,,,,,,,2,0,0,22,22,14,1,,,,,,,,,,,,,,,,,,,,,,,,,,,,,,,,,,,,,,,,,,,,,,,,,,,,,,,,,,,,,,,,,,,,,,,,,,,,,,,,,,,,,,,,,,,,,,
,,?,0.000655,0,,,,,,stimuli/images/PICTURE_654.png,VALLEY,5f1636568f0a801a56474836,17/08/2001,2020-08-13_13h01.56.468,proactive2,2020.1.2,Win32,60,5f341be081b9052c55068110,5f352ba150ffd64921b6f91e,2,,,,,,pencil,,,,,,,,,,,1,0,0,23,23,1,1,,,,,,,,,,,,,,,,,,,,,,,,,,,,,,,,,,,,,,,,,,,,,,,,,,,,,,,,,,,,,,,,,,,,,,,,,,,,,,,,,,,,,,,,,,,,,,
,,?,0.00032,0,,,,,,stimuli/images/PICTURE_203.png,ARTIST,5f1636568f0a801a56474836,17/08/2001,2020-08-13_13h01.56.468,proactive2,2020.1.2,Win32,60,5f341be081b9052c55068110,5f352ba150ffd64921b6f91e,2,,,,,,cap,,,,,,,,,,,3,0,0,24,24,26,1,,,,,,,,,,,,,,,,,,,,,,,,,,,,,,,,,,,,,,,,,,,,,,,,,,,,,,,,,,,,,,,,,,,,,,,,,,,,,,,,,,,,,,,,,,,,,,
,,?,0.00031,0,,,,,,stimuli/images/PICTURE_314.png,SAKE,5f1636568f0a801a56474836,17/08/2001,2020-08-13_13h01.56.468,proactive2,2020.1.2,Win32,60,5f341be081b9052c55068110,5f352ba150ffd64921b6f91e,2,,,,,,perfume,,,,,,,,,,,1,0,0,25,25,7,1,,,,,,,,,,,,,,,,,,,,,,,,,,,,,,,,,,,,,,,,,,,,,,,,,,,,,,,,,,,,,,,,,,,,,,,,,,,,,,,,,,,,,,,,,,,,,,
,,?,0.000335,0,,,,,,stimuli/images/PICTURE_95.png,STYLE,5f1636568f0a801a56474836,17/08/2001,2020-08-13_13h01.56.468,proactive2,2020.1.2,Win32,60,5f341be081b9052c55068110,5f352ba150ffd64921b6f91e,2,,,,,,suitcase,,,,,,,,,,,3,0,0,26,26,25,1,,,,,,,,,,,,,,,,,,,,,,,,,,,,,,,,,,,,,,,,,,,,,,,,,,,,,,,,,,,,,,,,,,,,,,,,,,,,,,,,,,,,,,,,,,,,,,
,,BEAUTY,4.728045,1,,,,,,stimuli/images/PICTURE_311.png,BEAUTY,5f1636568f0a801a56474836,17/08/2001,2020-08-13_13h01.56.468,proactive2,2020.1.2,Win32,60,5f341be081b9052c55068110,5f352ba150ffd64921b6f91e,2,,,,,,razor,,,,,,,,,,,2,0,0,27,27,13,1,,,,,,,,,,,,,,,,,,,,,,,,,,,,,,,,,,,,,,,,,,,,,,,,,,,,,,,,,,,,,,,,,,,,,,,,,,,,,,,,,,,,,,,,,,,,,,
,,?,0.0014,0,,,,,,stimuli/images/PICTURE_215.png,PLENTY,5f1636568f0a801a56474836,17/08/2001,2020-08-13_13h01.56.468,proactive2,2020.1.2,Win32,60,5f341be081b9052c55068110,5f352ba150ffd64921b6f91e,2,,,,,,boot,,,,,,,,,,,4,0,0,28,28,37,1,,,,,,,,,,,,,,,,,,,,,,,,,,,,,,,,,,,,,,,,,,,,,,,,,,,,,,,,,,,,,,,,,,,,,,,,,,,,,,,,,,,,,,,,,,,,,,
,,?,0.001135,0,,,,,,stimuli/images/PICTURE_504.png,BODY,5f1636568f0a801a56474836,17/08/2001,2020-08-13_13h01.56.468,proactive2,2020.1.2,Win32,60,5f341be081b9052c55068110,5f352ba150ffd64921b6f91e,2,,,,,,wheel,,,,,,,,,,,1,0,0,29,29,8,1,,,,,,,,,,,,,,,,,,,,,,,,,,,,,,,,,,,,,,,,,,,,,,,,,,,,,,,,,,,,,,,,,,,,,,,,,,,,,,,,,,,,,,,,,,,,,,
,,?,0.001175,0,,,,,,stimuli/images/PICTURE_380.png,DEATH,5f1636568f0a801a56474836,17/08/2001,2020-08-13_13h01.56.468,proactive2,2020.1.2,Win32,60,5f341be081b9052c55068110,5f352ba150ffd64921b6f91e,2,,,,,,gorilla,,,,,,,,,,,5,0,0,30,30,49,1,,,,,,,,,,,,,,,,,,,,,,,,,,,,,,,,,,,,,,,,,,,,,,,,,,,,,,,,,,,,,,,,,,,,,,,,,,,,,,,,,,,,,,,,,,,,,,
,,?,0.000875,0,,,,,,stimuli/images/PICTURE_177.png,CARS,5f1636568f0a801a56474836,17/08/2001,2020-08-13_13h01.56.468,proactive2,2020.1.2,Win32,60,5f341be081b9052c55068110,5f352ba150ffd64921b6f91e,2,,,,,,mushroom,,,,,,,,,,,4,0,0,31,31,35,1,,,,,,,,,,,,,,,,,,,,,,,,,,,,,,,,,,,,,,,,,,,,,,,,,,,,,,,,,,,,,,,,,,,,,,,,,,,,,,,,,,,,,,,,,,,,,,
,,?,0.000765,0,,,,,,stimuli/images/PICTURE_470.png,CASINO,5f1636568f0a801a56474836,17/08/2001,2020-08-13_13h01.56.468,proactive2,2020.1.2,Win32,60,5f341be081b9052c55068110,5f352ba150ffd64921b6f91e,2,,,,,,motorbike,,,,,,,,,,,4,0,0,32,32,36,1,,,,,,,,,,,,,,,,,,,,,,,,,,,,,,,,,,,,,,,,,,,,,,,,,,,,,,,,,,,,,,,,,,,,,,,,,,,,,,,,,,,,,,,,,,,,,,
,,?,0.000745,0,,,,,,stimuli/images/PICTURE_248.png,DOZEN,5f1636568f0a801a56474836,17/08/2001,2020-08-13_13h01.56.468,proactive2,2020.1.2,Win32,60,5f341be081b9052c55068110,5f352ba150ffd64921b6f91e,2,,,,,,cart,,,,,,,,,,,4,0,0,33,33,39,1,,,,,,,,,,,,,,,,,,,,,,,,,,,,,,,,,,,,,,,,,,,,,,,,,,,,,,,,,,,,,,,,,,,,,,,,,,,,,,,,,,,,,,,,,,,,,,
,,?,0.000595,0,,,,,,stimuli/images/PICTURE_708.png,YARD,5f1636568f0a801a56474836,17/08/2001,2020-08-13_13h01.56.468,proactive2,2020.1.2,Win32,60,5f341be081b9052c55068110,5f352ba150ffd64921b6f91e,2,,,,,,monkey,,,,,,,,,,,3,0,0,34,34,29,1,,,,,,,,,,,,,,,,,,,,,,,,,,,,,,,,,,,,,,,,,,,,,,,,,,,,,,,,,,,,,,,,,,,,,,,,,,,,,,,,,,,,,,,,,,,,,,
,,?,0.00063,0,,,,,,stimuli/images/PICTURE_160.png,FEET,5f1636568f0a801a56474836,17/08/2001,2020-08-13_13h01.56.468,proactive2,2020.1.2,Win32,60,5f341be081b9052c55068110,5f352ba150ffd64921b6f91e,2,,,,,,wheelbarrow,,,,,,,,,,,6,0,0,35,35,58,1,,,,,,,,,,,,,,,,,,,,,,,,,,,,,,,,,,,,,,,,,,,,,,,,,,,,,,,,,,,,,,,,,,,,,,,,,,,,,,,,,,,,,,,,,,,,,,
,,?,0.000605,0,,,,,,stimuli/images/PICTURE_160.png,LEADER,5f1636568f0a801a56474836,17/08/2001,2020-08-13_13h01.56.468,proactive2,2020.1.2,Win32,60,5f341be081b9052c55068110,5f352ba150ffd64921b6f91e,2,,,,,,wheelbarrow,,,,,,,,,,,1,0,0,36,36,3,1,,,,,,,,,,,,,,,,,,,,,,,,,,,,,,,,,,,,,,,,,,,,,,,,,,,,,,,,,,,,,,,,,,,,,,,,,,,,,,,,,,,,,,,,,,,,,,
,,FAMILY,2.44462,1,,,,,,stimuli/images/PICTURE_302.png,FAMILY,5f1636568f0a801a56474836,17/08/2001,2020-08-13_13h01.56.468,proactive2,2020.1.2,Win32,60,5f341be081b9052c55068110,5f352ba150ffd64921b6f91e,2,,,,,,taxi,,,,,,,,,,,2,0,0,37,37,18,1,,,,,,,,,,,,,,,,,,,,,,,,,,,,,,,,,,,,,,,,,,,,,,,,,,,,,,,,,,,,,,,,,,,,,,,,,,,,,,,,,,,,,,,,,,,,,,
,,?,0.001475,0,,,,,,stimuli/images/PICTURE_32.png,JUNGLE,5f1636568f0a801a56474836,17/08/2001,2020-08-13_13h01.56.468,proactive2,2020.1.2,Win32,60,5f341be081b9052c55068110,5f352ba150ffd64921b6f91e,2,,,,,,crown,,,,,,,,,,,5,0,0,38,38,45,1,,,,,,,,,,,,,,,,,,,,,,,,,,,,,,,,,,,,,,,,,,,,,,,,,,,,,,,,,,,,,,,,,,,,,,,,,,,,,,,,,,,,,,,,,,,,,,
,,?,0.001095,0,,,,,,stimuli/images/PICTURE_208.png,THING,5f1636568f0a801a56474836,17/08/2001,2020-08-13_13h01.56.468,proactive2,2020.1.2,Win32,60,5f341be081b9052c55068110,5f352ba150ffd64921b6f91e,2,,,,,,microphone,,,,,,,,,,,5,0,0,39,39,47,1,,,,,,,,,,,,,,,,,,,,,,,,,,,,,,,,,,,,,,,,,,,,,,,,,,,,,,,,,,,,,,,,,,,,,,,,,,,,,,,,,,,,,,,,,,,,,,
,,?,0.00107,0,,,,,,stimuli/images/PICTURE_488.png,STYLE,5f1636568f0a801a56474836,17/08/2001,2020-08-13_13h01.56.468,proactive2,2020.1.2,Win32,60,5f341be081b9052c55068110,5f352ba150ffd64921b6f91e,2,,,,,,sun,,,,,,,,,,,4,0,0,40,40,33,1,,,,,,,,,,,,,,,,,,,,,,,,,,,,,,,,,,,,,,,,,,,,,,,,,,,,,,,,,,,,,,,,,,,,,,,,,,,,,,,,,,,,,,,,,,,,,,
,,?,0.00111,0,,,,,,stimuli/images/PICTURE_688.png,CASINO,5f1636568f0a801a56474836,17/08/2001,2020-08-13_13h01.56.468,proactive2,2020.1.2,Win32,60,5f341be081b9052c55068110,5f352ba150ffd64921b6f91e,2,,,,,,runner,,,,,,,,,,,1,0,0,41,41,2,1,,,,,,,,,,,,,,,,,,,,,,,,,,,,,,,,,,,,,,,,,,,,,,,,,,,,,,,,,,,,,,,,,,,,,,,,,,,,,,,,,,,,,,,,,,,,,,
,,?,0.000855,0,,,,,,stimuli/images/PICTURE_147.png,MOMENT,5f1636568f0a801a56474836,17/08/2001,2020-08-13_13h01.56.468,proactive2,2020.1.2,Win32,60,5f341be081b9052c55068110,5f352ba150ffd64921b6f91e,2,,,,,,hanger,,,,,,,,,,,6,0,0,42,42,51,1,,,,,,,,,,,,,,,,,,,,,,,,,,,,,,,,,,,,,,,,,,,,,,,,,,,,,,,,,,,,,,,,,,,,,,,,,,,,,,,,,,,,,,,,,,,,,,
,,?,0.00306,0,,,,,,stimuli/images/PICTURE_744.png,SYSTEM,5f1636568f0a801a56474836,17/08/2001,2020-08-13_13h01.56.468,proactive2,2020.1.2,Win32,60,5f341be081b9052c55068110,5f352ba150ffd64921b6f91e,2,,,,,,ring,,,,,,,,,,,5,0,0,43,43,43,1,,,,,,,,,,,,,,,,,,,,,,,,,,,,,,,,,,,,,,,,,,,,,,,,,,,,,,,,,,,,,,,,,,,,,,,,,,,,,,,,,,,,,,,,,,,,,,
,,?,0.000595,0,,,,,,stimuli/images/PICTURE_469.png,ARTIST,5f1636568f0a801a56474836,17/08/2001,2020-08-13_13h01.56.468,proactive2,2020.1.2,Win32,60,5f341be081b9052c55068110,5f352ba150ffd64921b6f91e,2,,,,,,stool,,,,,,,,,,,1,0,0,44,44,6,1,,,,,,,,,,,,,,,,,,,,,,,,,,,,,,,,,,,,,,,,,,,,,,,,,,,,,,,,,,,,,,,,,,,,,,,,,,,,,,,,,,,,,,,,,,,,,,
,,?,0.000595,0,,,,,,stimuli/images/PICTURE_123.png,ADVICE,5f1636568f0a801a56474836,17/08/2001,2020-08-13_13h01.56.468,proactive2,2020.1.2,Win32,60,5f341be081b9052c55068110,5f352ba150ffd64921b6f91e,2,,,,,,dart,,,,,,,,,,,5,0,0,45,45,40,1,,,,,,,,,,,,,,,,,,,,,,,,,,,,,,,,,,,,,,,,,,,,,,,,,,,,,,,,,,,,,,,,,,,,,,,,,,,,,,,,,,,,,,,,,,,,,,
,,?,0.00051,0,,,,,,stimuli/images/PICTURE_453.png,DUDE,5f1636568f0a801a56474836,17/08/2001,2020-08-13_13h01.56.468,proactive2,2020.1.2,Win32,60,5f341be081b9052c55068110,5f352ba150ffd64921b6f91e,2,,,,,,scissors,,,,,,,,,,,3,0,0,46,46,27,1,,,,,,,,,,,,,,,,,,,,,,,,,,,,,,,,,,,,,,,,,,,,,,,,,,,,,,,,,,,,,,,,,,,,,,,,,,,,,,,,,,,,,,,,,,,,,,
,,?,0.000475,0,,,,,,stimuli/images/PICTURE_233.png,WOMEN,5f1636568f0a801a56474836,17/08/2001,2020-08-13_13h01.56.468,proactive2,2020.1.2,Win32,60,5f341be081b9052c55068110,5f352ba150ffd64921b6f91e,2,,,,,,salt,,,,,,,,,,,4,0,0,47,47,38,1,,,,,,,,,,,,,,,,,,,,,,,,,,,,,,,,,,,,,,,,,,,,,,,,,,,,,,,,,,,,,,,,,,,,,,,,,,,,,,,,,,,,,,,,,,,,,,
,,?,0.00047,0,,,,,,stimuli/images/PICTURE_469.png,LETTER,5f1636568f0a801a56474836,17/08/2001,2020-08-13_13h01.56.468,proactive2,2020.1.2,Win32,60,5f341be081b9052c55068110,5f352ba150ffd64921b6f91e,2,,,,,,stool,,,,,,,,,,,5,0,0,48,48,42,1,,,,,,,,,,,,,,,,,,,,,,,,,,,,,,,,,,,,,,,,,,,,,,,,,,,,,,,,,,,,,,,,,,,,,,,,,,,,,,,,,,,,,,,,,,,,,,
,,?,0.000475,0,,,,,,stimuli/images/PICTURE_667.png,BATH,5f1636568f0a801a56474836,17/08/2001,2020-08-13_13h01.56.468,proactive2,2020.1.2,Win32,60,5f341be081b9052c55068110,5f352ba150ffd64921b6f91e,2,,,,,,daisy,,,,,,,,,,,1,0,0,49,49,4,1,,,,,,,,,,,,,,,,,,,,,,,,,,,,,,,,,,,,,,,,,,,,,,,,,,,,,,,,,,,,,,,,,,,,,,,,,,,,,,,,,,,,,,,,,,,,,,
,,ADVICE,2.438375,1,,,,,,stimuli/images/PICTURE_285.png,ADVICE,5f1636568f0a801a56474836,17/08/2001,2020-08-13_13h01.56.468,proactive2,2020.1.2,Win32,60,5f341be081b9052c55068110,5f352ba150ffd64921b6f91e,2,,,,,,carrot,,,,,,,,,,,2,0,0,50,50,12,1,,,,,,,,,,,,,,,,,,,,,,,,,,,,,,,,,,,,,,,,,,,,,,,,,,,,,,,,,,,,,,,,,,,,,,,,,,,,,,,,,,,,,,,,,,,,,,
,,?,0.001985,0,,,,,,stimuli/images/PICTURE_339.png,PLENTY,5f1636568f0a801a56474836,17/08/2001,2020-08-13_13h01.56.468,proactive2,2020.1.2,Win32,60,5f341be081b9052c55068110,5f352ba150ffd64921b6f91e,2,,,,,,backpack,,,,,,,,,,,1,0,0,51,51,0,1,,,,,,,,,,,,,,,,,,,,,,,,,,,,,,,,,,,,,,,,,,,,,,,,,,,,,,,,,,,,,,,,,,,,,,,,,,,,,,,,,,,,,,,,,,,,,,
,,?,3.79346,0,,,,,,stimuli/images/PICTURE_744.png,SAKE,5f1636568f0a801a56474836,17/08/2001,2020-08-13_13h01.56.468,proactive2,2020.1.2,Win32,60,5f341be081b9052c55068110,5f352ba150ffd64921b6f91e,2,,,,,,ring,,,,,,,,,,,2,0,0,52,52,17,1,,,,,,,,,,,,,,,,,,,,,,,,,,,,,,,,,,,,,,,,,,,,,,,,,,,,,,,,,,,,,,,,,,,,,,,,,,,,,,,,,,,,,,,,,,,,,,
,,?,0.002155,0,,,,,,stimuli/images/PICTURE_487.png,FLIGHT,5f1636568f0a801a56474836,17/08/2001,2020-08-13_13h01.56.468,proactive2,2020.1.2,Win32,60,5f341be081b9052c55068110,5f352ba150ffd64921b6f91e,2,,,,,,basket,,,,,,,,,,,1,0,0,53,53,9,1,,,,,,,,,,,,,,,,,,,,,,,,,,,,,,,,,,,,,,,,,,,,,,,,,,,,,,,,,,,,,,,,,,,,,,,,,,,,,,,,,,,,,,,,,,,,,,
,,?,0.00101,0,,,,,,stimuli/images/PICTURE_208.png,MONTH,5f1636568f0a801a56474836,17/08/2001,2020-08-13_13h01.56.468,proactive2,2020.1.2,Win32,60,5f341be081b9052c55068110,5f352ba150ffd64921b6f91e,2,,,,,,microphone,,,,,,,,,,,6,0,0,54,54,53,1,,,,,,,,,,,,,,,,,,,,,,,,,,,,,,,,,,,,,,,,,,,,,,,,,,,,,,,,,,,,,,,,,,,,,,,,,,,,,,,,,,,,,,,,,,,,,,
,,?,0.00109,0,,,,,,stimuli/images/PICTURE_675.png,WEAPON,5f1636568f0a801a56474836,17/08/2001,2020-08-13_13h01.56.468,proactive2,2020.1.2,Win32,60,5f341be081b9052c55068110,5f352ba150ffd64921b6f91e,2,,,,,,windmill,,,,,,,,,,,4,0,0,55,55,32,1,,,,,,,,,,,,,,,,,,,,,,,,,,,,,,,,,,,,,,,,,,,,,,,,,,,,,,,,,,,,,,,,,,,,,,,,,,,,,,,,,,,,,,,,,,,,,,
,,?,0.000975,0,,,,,,stimuli/images/PICTURE_509.png,PHOTO,5f1636568f0a801a56474836,17/08/2001,2020-08-13_13h01.56.468,proactive2,2020.1.2,Win32,60,5f341be081b9052c55068110,5f352ba150ffd64921b6f91e,2,,,,,,telephone,,,,,,,,,,,3,0,0,56,56,21,1,,,,,,,,,,,,,,,,,,,,,,,,,,,,,,,,,,,,,,,,,,,,,,,,,,,,,,,,,,,,,,,,,,,,,,,,,,,,,,,,,,,,,,,,,,,,,,
,,?,0.001025,0,,,,,,stimuli/images/PICTURE_348.png,SPEECH,5f1636568f0a801a56474836,17/08/2001,2020-08-13_13h01.56.468,proactive2,2020.1.2,Win32,60,5f341be081b9052c55068110,5f352ba150ffd64921b6f91e,2,,,,,,pepper,,,,,,,,,,,3,0,0,57,57,20,1,,,,,,,,,,,,,,,,,,,,,,,,,,,,,,,,,,,,,,,,,,,,,,,,,,,,,,,,,,,,,,,,,,,,,,,,,,,,,,,,,,,,,,,,,,,,,,
,,?,0.000755,0,,,,,,stimuli/images/PICTURE_327.png,BEAUTY,5f1636568f0a801a56474836,17/08/2001,2020-08-13_13h01.56.468,proactive2,2020.1.2,Win32,60,5f341be081b9052c55068110,5f352ba150ffd64921b6f91e,2,,,,,,helmet,,,,,,,,,,,5,0,0,58,58,48,1,,,,,,,,,,,,,,,,,,,,,,,,,,,,,,,,,,,,,,,,,,,,,,,,,,,,,,,,,,,,,,,,,,,,,,,,,,,,,,,,,,,,,,,,,,,,,,
,,?,0.0006,0,,,,,,stimuli/images/PICTURE_491.png,WRITER,5f1636568f0a801a56474836,17/08/2001,2020-08-13_13h01.56.468,proactive2,2020.1.2,Win32,60,5f341be081b9052c55068110,5f352ba150ffd64921b6f91e,2,,,,,,rug,,,,,,,,,,,6,0,0,59,59,57,1,,,,,,,,,,,,,,,,,,,,,,,,,,,,,,,,,,,,,,,,,,,,,,,,,,,,,,,,,,,,,,,,,,,,,,,,,,,,,,,,,,,,,,,,,,,,,,
,,,,,,,,,,,,5f1636568f0a801a56474836,17/08/2001,2020-08-13_13h01.56.468,proactive2,2020.1.2,Win32,60,5f341be081b9052c55068110,5f352ba150ffd64921b6f91e,2,,,,,,,,,,,,,,,,,,,,,,,,0,1,1,0,1,stimuli/learn-block1.csv,,,,,,,,,,,,,,,,,,,,,,,,,,,,,,,,,,,,,,,,,,,,,,,,,,,,,,,,,,,,,,,,,,,,,,,,,,,,,,,,,,,,,,,,
,,,,,,,,,,stimuli/images/PICTURE_348.png,DUDE,5f1636568f0a801a56474836,17/08/2001,2020-08-13_13h01.56.468,proactive2,2020.1.2,Win32,60,5f341be081b9052c55068110,5f352ba150ffd64921b6f91e,2,,,,,,pepper,,,,,,0,0,0,59,1,6,2,,,,,,,,,,,,,,,,,,,,,,,,,,,,,,,,,,,,,,,,,,,,,,,,,,,,,,,,,,,,,,,,,,,,,,,,,,,,,,,,,,,,,,,,,,,,,,,,,,,
,,,,,,,,,,stimuli/images/PICTURE_160.png,HOTEL,5f1636568f0a801a56474836,17/08/2001,2020-08-13_13h01.56.468,proactive2,2020.1.2,Win32,60,5f341be081b9052c55068110,5f352ba150ffd64921b6f91e,2,,,,,,wheelbarrow,,,,,,0,1,1,16,1,2,2,,,,,,,,,,,,,,,,,,,,,,,,,,,,,,,,,,,,,,,,,,,,,,,,,,,,,,,,,,,,,,,,,,,,,,,,,,,,,,,,,,,,,,,,,,,,,,,,,,,
,,,,,,,,,,stimuli/images/PICTURE_509.png,BATH,5f1636568f0a801a56474836,17/08/2001,2020-08-13_13h01.56.468,proactive2,2020.1.2,Win32,60,5f341be081b9052c55068110,5f352ba150ffd64921b6f91e,2,,,,,,telephone,,,,,,0,2,2,15,1,2,2,,,,,,,,,,,,,,,,,,,,,,,,,,,,,,,,,,,,,,,,,,,,,,,,,,,,,,,,,,,,,,,,,,,,,,,,,,,,,,,,,,,,,,,,,,,,,,,,,,,
,,,,,,,,,,stimuli/images/PICTURE_453.png,FAMILY,5f1636568f0a801a56474836,17/08/2001,2020-08-13_13h01.56.468,proactive2,2020.1.2,Win32,60,5f341be081b9052c55068110,5f352ba150ffd64921b6f91e,2,,,,,,scissors,,,,,,0,3,3,48,1,5,2,,,,,,,,,,,,,,,,,,,,,,,,,,,,,,,,,,,,,,,,,,,,,,,,,,,,,,,,,,,,,,,,,,,,,,,,,,,,,,,,,,,,,,,,,,,,,,,,,,,
,,,,,,,,,,stimuli/images/PICTURE_348.png,TOILET,5f1636568f0a801a56474836,17/08/2001,2020-08-13_13h01.56.468,proactive2,2020.1.2,Win32,60,5f341be081b9052c55068110,5f352ba150ffd64921b6f91e,2,,,,,,pepper,,,,,,0,4,4,4,1,1,2,,,,,,,,,,,,,,,,,,,,,,,,,,,,,,,,,,,,,,,,,,,,,,,,,,,,,,,,,,,,,,,,,,,,,,,,,,,,,,,,,,,,,,,,,,,,,,,,,,,
,,,,,,,,,,stimuli/images/PICTURE_708.png,VALLEY,5f1636568f0a801a56474836,17/08/2001,2020-08-13_13h01.56.468,proactive2,2020.1.2,Win32,60,5f341be081b9052c55068110,5f352ba150ffd64921b6f91e,2,,,,,,monkey,,,,,,0,5,5,45,1,5,2,,,,,,,,,,,,,,,,,,,,,,,,,,,,,,,,,,,,,,,,,,,,,,,,,,,,,,,,,,,,,,,,,,,,,,,,,,,,,,,,,,,,,,,,,,,,,,,,,,,
,,,,,,,,,,stimuli/images/PICTURE_2.png,AREA,5f1636568f0a801a56474836,17/08/2001,2020-08-13_13h01.56.468,proactive2,2020.1.2,Win32,60,5f341be081b9052c55068110,5f352ba150ffd64921b6f91e,2,,,,,,tyre,,,,,,0,6,6,32,1,4,2,,,,,,,,,,,,,,,,,,,,,,,,,,,,,,,,,,,,,,,,,,,,,,,,,,,,,,,,,,,,,,,,,,,,,,,,,,,,,,,,,,,,,,,,,,,,,,,,,,,
,,,,,,,,,,stimuli/images/PICTURE_147.png,LEADER,5f1636568f0a801a56474836,17/08/2001,2020-08-13_13h01.56.468,proactive2,2020.1.2,Win32,60,5f341be081b9052c55068110,5f352ba150ffd64921b6f91e,2,,,,,,hanger,,,,,,0,7,7,33,1,4,2,,,,,,,,,,,,,,,,,,,,,,,,,,,,,,,,,,,,,,,,,,,,,,,,,,,,,,,,,,,,,,,,,,,,,,,,,,,,,,,,,,,,,,,,,,,,,,,,,,,
,,,,,,,,,,stimuli/images/PICTURE_18.png,RIVER,5f1636568f0a801a56474836,17/08/2001,2020-08-13_13h01.56.468,proactive2,2020.1.2,Win32,60,5f341be081b9052c55068110,5f352ba150ffd64921b6f91e,2,,,,,,planet,,,,,,0,8,8,22,1,3,2,,,,,,,,,,,,,,,,,,,,,,,,,,,,,,,,,,,,,,,,,,,,,,,,,,,,,,,,,,,,,,,,,,,,,,,,,,,,,,,,,,,,,,,,,,,,,,,,,,,
,,,,,,,,,,stimuli/images/PICTURE_68.png,KIND,5f1636568f0a801a56474836,17/08/2001,2020-08-13_13h01.56.468,proactive2,2020.1.2,Win32,60,5f341be081b9052c55068110,5f352ba150ffd64921b6f91e,2,,,,,,candle,,,,,,0,9,9,23,1,3,2,,,,,,,,,,,,,,,,,,,,,,,,,,,,,,,,,,,,,,,,,,,,,,,,,,,,,,,,,,,,,,,,,,,,,,,,,,,,,,,,,,,,,,,,,,,,,,,,,,,
,,,,,,,,,,stimuli/images/PICTURE_750.png,POLICY,5f1636568f0a801a56474836,17/08/2001,2020-08-13_13h01.56.468,proactive2,2020.1.2,Win32,60,5f341be081b9052c55068110,5f352ba150ffd64921b6f91e,2,,,,,,kettle,,,,,,0,10,10,44,1,5,2,,,,,,,,,,,,,,,,,,,,,,,,,,,,,,,,,,,,,,,,,,,,,,,,,,,,,,,,,,,,,,,,,,,,,,,,,,,,,,,,,,,,,,,,,,,,,,,,,,,
,,,,,,,,,,stimuli/images/PICTURE_215.png,BOYS,5f1636568f0a801a56474836,17/08/2001,2020-08-13_13h01.56.468,proactive2,2020.1.2,Win32,60,5f341be081b9052c55068110,5f352ba150ffd64921b6f91e,2,,,,,,boot,,,,,,0,11,11,24,1,3,2,,,,,,,,,,,,,,,,,,,,,,,,,,,,,,,,,,,,,,,,,,,,,,,,,,,,,,,,,,,,,,,,,,,,,,,,,,,,,,,,,,,,,,,,,,,,,,,,,,,
,,,,,,,,,,stimuli/images/PICTURE_123.png,SALE,5f1636568f0a801a56474836,17/08/2001,2020-08-13_13h01.56.468,proactive2,2020.1.2,Win32,60,5f341be081b9052c55068110,5f352ba150ffd64921b6f91e,2,,,,,,dart,,,,,,0,12,12,8,1,1,2,,,,,,,,,,,,,,,,,,,,,,,,,,,,,,,,,,,,,,,,,,,,,,,,,,,,,,,,,,,,,,,,,,,,,,,,,,,,,,,,,,,,,,,,,,,,,,,,,,,
,,,,,,,,,,stimuli/images/PICTURE_33.png,COPS,5f1636568f0a801a56474836,17/08/2001,2020-08-13_13h01.56.468,proactive2,2020.1.2,Win32,60,5f341be081b9052c55068110,5f352ba150ffd64921b6f91e,2,,,,,,frame,,,,,,0,13,13,29,1,3,2,,,,,,,,,,,,,,,,,,,,,,,,,,,,,,,,,,,,,,,,,,,,,,,,,,,,,,,,,,,,,,,,,,,,,,,,,,,,,,,,,,,,,,,,,,,,,,,,,,,
,,,,,,,,,,stimuli/images/PICTURE_57.png,CANDY,5f1636568f0a801a56474836,17/08/2001,2020-08-13_13h01.56.468,proactive2,2020.1.2,Win32,60,5f341be081b9052c55068110,5f352ba150ffd64921b6f91e,2,,,,,,stamp,,,,,,0,14,14,52,1,6,2,,,,,,,,,,,,,,,,,,,,,,,,,,,,,,,,,,,,,,,,,,,,,,,,,,,,,,,,,,,,,,,,,,,,,,,,,,,,,,,,,,,,,,,,,,,,,,,,,,,
,,,,,,,,,,stimuli/images/PICTURE_32.png,LETTER,5f1636568f0a801a56474836,17/08/2001,2020-08-13_13h01.56.468,proactive2,2020.1.2,Win32,60,5f341be081b9052c55068110,5f352ba150ffd64921b6f91e,2,,,,,,crown,,,,,,0,15,15,56,1,6,2,,,,,,,,,,,,,,,,,,,,,,,,,,,,,,,,,,,,,,,,,,,,,,,,,,,,,,,,,,,,,,,,,,,,,,,,,,,,,,,,,,,,,,,,,,,,,,,,,,,
,,,,,,,,,,stimuli/images/PICTURE_356.png,CANDY,5f1636568f0a801a56474836,17/08/2001,2020-08-13_13h01.56.468,proactive2,2020.1.2,Win32,60,5f341be081b9052c55068110,5f352ba150ffd64921b6f91e,2,,,,,,pawn,,,,,,0,16,16,46,1,5,2,,,,,,,,,,,,,,,,,,,,,,,,,,,,,,,,,,,,,,,,,,,,,,,,,,,,,,,,,,,,,,,,,,,,,,,,,,,,,,,,,,,,,,,,,,,,,,,,,,,
,,,,,,,,,,stimuli/images/PICTURE_692.png,DUDE,5f1636568f0a801a56474836,17/08/2001,2020-08-13_13h01.56.468,proactive2,2020.1.2,Win32,60,5f341be081b9052c55068110,5f352ba150ffd64921b6f91e,2,,,,,,cherry,,,,,,0,17,17,47,1,5,2,,,,,,,,,,,,,,,,,,,,,,,,,,,,,,,,,,,,,,,,,,,,,,,,,,,,,,,,,,,,,,,,,,,,,,,,,,,,,,,,,,,,,,,,,,,,,,,,,,,
,,,,,,,,,,stimuli/images/PICTURE_285.png,PRINCE,5f1636568f0a801a56474836,17/08/2001,2020-08-13_13h01.56.468,proactive2,2020.1.2,Win32,60,5f341be081b9052c55068110,5f352ba150ffd64921b6f91e,2,,,,,,carrot,,,,,,0,18,18,20,1,3,2,,,,,,,,,,,,,,,,,,,,,,,,,,,,,,,,,,,,,,,,,,,,,,,,,,,,,,,,,,,,,,,,,,,,,,,,,,,,,,,,,,,,,,,,,,,,,,,,,,,
,,,,,,,,,,stimuli/images/PICTURE_215.png,FOOD,5f1636568f0a801a56474836,17/08/2001,2020-08-13_13h01.56.468,proactive2,2020.1.2,Win32,60,5f341be081b9052c55068110,5f352ba150ffd64921b6f91e,2,,,,,,boot,,,,,,0,19,19,5,1,1,2,,,,,,,,,,,,,,,,,,,,,,,,,,,,,,,,,,,,,,,,,,,,,,,,,,,,,,,,,,,,,,,,,,,,,,,,,,,,,,,,,,,,,,,,,,,,,,,,,,,
,,,,,,,,,,stimuli/images/PICTURE_487.png,ROOF,5f1636568f0a801a56474836,17/08/2001,2020-08-13_13h01.56.468,proactive2,2020.1.2,Win32,60,5f341be081b9052c55068110,5f352ba150ffd64921b6f91e,2,,,,,,basket,,,,,,0,20,20,50,1,6,2,,,,,,,,,,,,,,,,,,,,,,,,,,,,,,,,,,,,,,,,,,,,,,,,,,,,,,,,,,,,,,,,,,,,,,,,,,,,,,,,,,,,,,,,,,,,,,,,,,,
,,,,,,,,,,stimuli/images/PICTURE_667.png,GLASS,5f1636568f0a801a56474836,17/08/2001,2020-08-13_13h01.56.468,proactive2,2020.1.2,Win32,60,5f341be081b9052c55068110,5f352ba150ffd64921b6f91e,2,,,,,,daisy,,,,,,0,21,21,27,1,3,2,,,,,,,,,,,,,,,,,,,,,,,,,,,,,,,,,,,,,,,,,,,,,,,,,,,,,,,,,,,,,,,,,,,,,,,,,,,,,,,,,,,,,,,,,,,,,,,,,,,
,,,,,,,,,,stimuli/images/PICTURE_208.png,SPIRIT,5f1636568f0a801a56474836,17/08/2001,2020-08-13_13h01.56.468,proactive2,2020.1.2,Win32,60,5f341be081b9052c55068110,5f352ba150ffd64921b6f91e,2,,,,,,microphone,,,,,,0,22,22,28,1,3,2,,,,,,,,,,,,,,,,,,,,,,,,,,,,,,,,,,,,,,,,,,,,,,,,,,,,,,,,,,,,,,,,,,,,,,,,,,,,,,,,,,,,,,,,,,,,,,,,,,,
,,,,,,,,,,stimuli/images/PICTURE_655.png,SALE,5f1636568f0a801a56474836,17/08/2001,2020-08-13_13h01.56.468,proactive2,2020.1.2,Win32,60,5f341be081b9052c55068110,5f352ba150ffd64921b6f91e,2,,,,,,megaphone,,,,,,0,23,23,57,1,6,2,,,,,,,,,,,,,,,,,,,,,,,,,,,,,,,,,,,,,,,,,,,,,,,,,,,,,,,,,,,,,,,,,,,,,,,,,,,,,,,,,,,,,,,,,,,,,,,,,,,
,,,,,,,,,,stimuli/images/PICTURE_297.png,BODY,5f1636568f0a801a56474836,17/08/2001,2020-08-13_13h01.56.468,proactive2,2020.1.2,Win32,60,5f341be081b9052c55068110,5f352ba150ffd64921b6f91e,2,,,,,,aeroplane,,,,,,0,24,24,51,1,6,2,,,,,,,,,,,,,,,,,,,,,,,,,,,,,,,,,,,,,,,,,,,,,,,,,,,,,,,,,,,,,,,,,,,,,,,,,,,,,,,,,,,,,,,,,,,,,,,,,,,
,,,,,,,,,,stimuli/images/PICTURE_2.png,YARD,5f1636568f0a801a56474836,17/08/2001,2020-08-13_13h01.56.468,proactive2,2020.1.2,Win32,60,5f341be081b9052c55068110,5f352ba150ffd64921b6f91e,2,,,,,,tyre,,,,,,0,25,25,55,1,6,2,,,,,,,,,,,,,,,,,,,,,,,,,,,,,,,,,,,,,,,,,,,,,,,,,,,,,,,,,,,,,,,,,,,,,,,,,,,,,,,,,,,,,,,,,,,,,,,,,,,
,,,,,,,,,,stimuli/images/PICTURE_311.png,FLESH,5f1636568f0a801a56474836,17/08/2001,2020-08-13_13h01.56.468,proactive2,2020.1.2,Win32,60,5f341be081b9052c55068110,5f352ba150ffd64921b6f91e,2,,,,,,razor,,,,,,0,26,26,3,1,1,2,,,,,,,,,,,,,,,,,,,,,,,,,,,,,,,,,,,,,,,,,,,,,,,,,,,,,,,,,,,,,,,,,,,,,,,,,,,,,,,,,,,,,,,,,,,,,,,,,,,
,,,,,,,,,,stimuli/images/PICTURE_564.png,PLENTY,5f1636568f0a801a56474836,17/08/2001,2020-08-13_13h01.56.468,proactive2,2020.1.2,Win32,60,5f341be081b9052c55068110,5f352ba150ffd64921b6f91e,2,,,,,,spoon,,,,,,0,27,27,11,1,2,2,,,,,,,,,,,,,,,,,,,,,,,,,,,,,,,,,,,,,,,,,,,,,,,,,,,,,,,,,,,,,,,,,,,,,,,,,,,,,,,,,,,,,,,,,,,,,,,,,,,
,,,,,,,,,,stimuli/images/PICTURE_452.png,COPS,5f1636568f0a801a56474836,17/08/2001,2020-08-13_13h01.56.468,proactive2,2020.1.2,Win32,60,5f341be081b9052c55068110,5f352ba150ffd64921b6f91e,2,,,,,,watch,,,,,,0,28,28,0,1,1,2,,,,,,,,,,,,,,,,,,,,,,,,,,,,,,,,,,,,,,,,,,,,,,,,,,,,,,,,,,,,,,,,,,,,,,,,,,,,,,,,,,,,,,,,,,,,,,,,,,,
,,,,,,,,,,stimuli/images/PICTURE_327.png,LEADER,5f1636568f0a801a56474836,17/08/2001,2020-08-13_13h01.56.468,proactive2,2020.1.2,Win32,60,5f341be081b9052c55068110,5f352ba150ffd64921b6f91e,2,,,,,,helmet,,,,,,0,29,29,17,1,2,2,,,,,,,,,,,,,,,,,,,,,,,,,,,,,,,,,,,,,,,,,,,,,,,,,,,,,,,,,,,,,,,,,,,,,,,,,,,,,,,,,,,,,,,,,,,,,,,,,,,
,,,,,,,,,,stimuli/images/PICTURE_491.png,SERIES,5f1636568f0a801a56474836,17/08/2001,2020-08-13_13h01.56.468,proactive2,2020.1.2,Win32,60,5f341be081b9052c55068110,5f352ba150ffd64921b6f91e,2,,,,,,rug,,,,,,0,30,30,39,1,4,2,,,,,,,,,,,,,,,,,,,,,,,,,,,,,,,,,,,,,,,,,,,,,,,,,,,,,,,,,,,,,,,,,,,,,,,,,,,,,,,,,,,,,,,,,,,,,,,,,,,
,,,,,,,,,,stimuli/images/PICTURE_403.png,FAMILY,5f1636568f0a801a56474836,17/08/2001,2020-08-13_13h01.56.468,proactive2,2020.1.2,Win32,60,5f341be081b9052c55068110,5f352ba150ffd64921b6f91e,2,,,,,,cathedral,,,,,,0,31,31,9,1,1,2,,,,,,,,,,,,,,,,,,,,,,,,,,,,,,,,,,,,,,,,,,,,,,,,,,,,,,,,,,,,,,,,,,,,,,,,,,,,,,,,,,,,,,,,,,,,,,,,,,,
,,,,,,,,,,stimuli/images/PICTURE_504.png,HOUSE,5f1636568f0a801a56474836,17/08/2001,2020-08-13_13h01.56.468,proactive2,2020.1.2,Win32,60,5f341be081b9052c55068110,5f352ba150ffd64921b6f91e,2,,,,,,wheel,,,,,,0,32,32,36,1,4,2,,,,,,,,,,,,,,,,,,,,,,,,,,,,,,,,,,,,,,,,,,,,,,,,,,,,,,,,,,,,,,,,,,,,,,,,,,,,,,,,,,,,,,,,,,,,,,,,,,,
,,,,,,,,,,stimuli/images/PICTURE_677.png,FAMILY,5f1636568f0a801a56474836,17/08/2001,2020-08-13_13h01.56.468,proactive2,2020.1.2,Win32,60,5f341be081b9052c55068110,5f352ba150ffd64921b6f91e,2,,,,,,map,,,,,,0,33,33,53,1,6,2,,,,,,,,,,,,,,,,,,,,,,,,,,,,,,,,,,,,,,,,,,,,,,,,,,,,,,,,,,,,,,,,,,,,,,,,,,,,,,,,,,,,,,,,,,,,,,,,,,,
,,,,,,,,,,stimuli/images/PICTURE_285.png,WRITER,5f1636568f0a801a56474836,17/08/2001,2020-08-13_13h01.56.468,proactive2,2020.1.2,Win32,60,5f341be081b9052c55068110,5f352ba150ffd64921b6f91e,2,,,,,,carrot,,,,,,0,34,34,6,1,1,2,,,,,,,,,,,,,,,,,,,,,,,,,,,,,,,,,,,,,,,,,,,,,,,,,,,,,,,,,,,,,,,,,,,,,,,,,,,,,,,,,,,,,,,,,,,,,,,,,,,
,,,,,,,,,,stimuli/images/PICTURE_405.png,JUNGLE,5f1636568f0a801a56474836,17/08/2001,2020-08-13_13h01.56.468,proactive2,2020.1.2,Win32,60,5f341be081b9052c55068110,5f352ba150ffd64921b6f91e,2,,,,,,anchor,,,,,,0,35,35,13,1,2,2,,,,,,,,,,,,,,,,,,,,,,,,,,,,,,,,,,,,,,,,,,,,,,,,,,,,,,,,,,,,,,,,,,,,,,,,,,,,,,,,,,,,,,,,,,,,,,,,,,,
,,,,,,,,,,stimuli/images/PICTURE_509.png,MILLER,5f1636568f0a801a56474836,17/08/2001,2020-08-13_13h01.56.468,proactive2,2020.1.2,Win32,60,5f341be081b9052c55068110,5f352ba150ffd64921b6f91e,2,,,,,,telephone,,,,,,0,36,36,49,1,5,2,,,,,,,,,,,,,,,,,,,,,,,,,,,,,,,,,,,,,,,,,,,,,,,,,,,,,,,,,,,,,,,,,,,,,,,,,,,,,,,,,,,,,,,,,,,,,,,,,,,
,,,,,,,,,,stimuli/images/PICTURE_487.png,POLICY,5f1636568f0a801a56474836,17/08/2001,2020-08-13_13h01.56.468,proactive2,2020.1.2,Win32,60,5f341be081b9052c55068110,5f352ba150ffd64921b6f91e,2,,,,,,basket,,,,,,0,37,37,34,1,4,2,,,,,,,,,,,,,,,,,,,,,,,,,,,,,,,,,,,,,,,,,,,,,,,,,,,,,,,,,,,,,,,,,,,,,,,,,,,,,,,,,,,,,,,,,,,,,,,,,,,
,,,,,,,,,,stimuli/images/PICTURE_93.png,GIRL,5f1636568f0a801a56474836,17/08/2001,2020-08-13_13h01.56.468,proactive2,2020.1.2,Win32,60,5f341be081b9052c55068110,5f352ba150ffd64921b6f91e,2,,,,,,skateboard,,,,,,0,38,38,31,1,4,2,,,,,,,,,,,,,,,,,,,,,,,,,,,,,,,,,,,,,,,,,,,,,,,,,,,,,,,,,,,,,,,,,,,,,,,,,,,,,,,,,,,,,,,,,,,,,,,,,,,
,,,,,,,,,,stimuli/images/PICTURE_314.png,SPEECH,5f1636568f0a801a56474836,17/08/2001,2020-08-13_13h01.56.468,proactive2,2020.1.2,Win32,60,5f341be081b9052c55068110,5f352ba150ffd64921b6f91e,2,,,,,,perfume,,,,,,0,39,39,35,1,4,2,,,,,,,,,,,,,,,,,,,,,,,,,,,,,,,,,,,,,,,,,,,,,,,,,,,,,,,,,,,,,,,,,,,,,,,,,,,,,,,,,,,,,,,,,,,,,,,,,,,
,,,,,,,,,,stimuli/images/PICTURE_677.png,PHOTO,5f1636568f0a801a56474836,17/08/2001,2020-08-13_13h01.56.468,proactive2,2020.1.2,Win32,60,5f341be081b9052c55068110,5f352ba150ffd64921b6f91e,2,,,,,,map,,,,,,0,40,40,14,1,2,2,,,,,,,,,,,,,,,,,,,,,,,,,,,,,,,,,,,,,,,,,,,,,,,,,,,,,,,,,,,,,,,,,,,,,,,,,,,,,,,,,,,,,,,,,,,,,,,,,,,
,,,,,,,,,,stimuli/images/PICTURE_470.png,BEAUTY,5f1636568f0a801a56474836,17/08/2001,2020-08-13_13h01.56.468,proactive2,2020.1.2,Win32,60,5f341be081b9052c55068110,5f352ba150ffd64921b6f91e,2,,,,,,motorbike,,,,,,0,41,41,26,1,3,2,,,,,,,,,,,,,,,,,,,,,,,,,,,,,,,,,,,,,,,,,,,,,,,,,,,,,,,,,,,,,,,,,,,,,,,,,,,,,,,,,,,,,,,,,,,,,,,,,,,
,,,,,,,,,,stimuli/images/PICTURE_141.png,CLIENT,5f1636568f0a801a56474836,17/08/2001,2020-08-13_13h01.56.468,proactive2,2020.1.2,Win32,60,5f341be081b9052c55068110,5f352ba150ffd64921b6f91e,2,,,,,,sunflower,,,,,,0,42,42,30,1,4,2,,,,,,,,,,,,,,,,,,,,,,,,,,,,,,,,,,,,,,,,,,,,,,,,,,,,,,,,,,,,,,,,,,,,,,,,,,,,,,,,,,,,,,,,,,,,,,,,,,,
,,,,,,,,,,stimuli/images/PICTURE_654.png,YEAR,5f1636568f0a801a56474836,17/08/2001,2020-08-13_13h01.56.468,proactive2,2020.1.2,Win32,60,5f341be081b9052c55068110,5f352ba150ffd64921b6f91e,2,,,,,,pencil,,,,,,0,43,43,41,1,5,2,,,,,,,,,,,,,,,,,,,,,,,,,,,,,,,,,,,,,,,,,,,,,,,,,,,,,,,,,,,,,,,,,,,,,,,,,,,,,,,,,,,,,,,,,,,,,,,,,,,
,,,,,,,,,,stimuli/images/PICTURE_2.png,JUNGLE,5f1636568f0a801a56474836,17/08/2001,2020-08-13_13h01.56.468,proactive2,2020.1.2,Win32,60,5f341be081b9052c55068110,5f352ba150ffd64921b6f91e,2,,,,,,tyre,,,,,,0,44,44,1,1,1,2,,,,,,,,,,,,,,,,,,,,,,,,,,,,,,,,,,,,,,,,,,,,,,,,,,,,,,,,,,,,,,,,,,,,,,,,,,,,,,,,,,,,,,,,,,,,,,,,,,,
,,,,,,,,,,stimuli/images/PICTURE_509.png,SHOTS,5f1636568f0a801a56474836,17/08/2001,2020-08-13_13h01.56.468,proactive2,2020.1.2,Win32,60,5f341be081b9052c55068110,5f352ba150ffd64921b6f91e,2,,,,,,telephone,,,,,,0,45,45,7,1,1,2,,,,,,,,,,,,,,,,,,,,,,,,,,,,,,,,,,,,,,,,,,,,,,,,,,,,,,,,,,,,,,,,,,,,,,,,,,,,,,,,,,,,,,,,,,,,,,,,,,,
,,,,,,,,,,stimuli/images/PICTURE_405.png,HOUSE,5f1636568f0a801a56474836,17/08/2001,2020-08-13_13h01.56.468,proactive2,2020.1.2,Win32,60,5f341be081b9052c55068110,5f352ba150ffd64921b6f91e,2,,,,,,anchor,,,,,,0,46,46,2,1,1,2,,,,,,,,,,,,,,,,,,,,,,,,,,,,,,,,,,,,,,,,,,,,,,,,,,,,,,,,,,,,,,,,,,,,,,,,,,,,,,,,,,,,,,,,,,,,,,,,,,,
,,,,,,,,,,stimuli/images/PICTURE_654.png,COPS,5f1636568f0a801a56474836,17/08/2001,2020-08-13_13h01.56.468,proactive2,2020.1.2,Win32,60,5f341be081b9052c55068110,5f352ba150ffd64921b6f91e,2,,,,,,pencil,,,,,,0,47,47,10,1,2,2,,,,,,,,,,,,,,,,,,,,,,,,,,,,,,,,,,,,,,,,,,,,,,,,,,,,,,,,,,,,,,,,,,,,,,,,,,,,,,,,,,,,,,,,,,,,,,,,,,,
,,,,,,,,,,stimuli/images/PICTURE_311.png,TOILET,5f1636568f0a801a56474836,17/08/2001,2020-08-13_13h01.56.468,proactive2,2020.1.2,Win32,60,5f341be081b9052c55068110,5f352ba150ffd64921b6f91e,2,,,,,,razor,,,,,,0,48,48,54,1,6,2,,,,,,,,,,,,,,,,,,,,,,,,,,,,,,,,,,,,,,,,,,,,,,,,,,,,,,,,,,,,,,,,,,,,,,,,,,,,,,,,,,,,,,,,,,,,,,,,,,,
,,,,,,,,,,stimuli/images/PICTURE_509.png,APPLE,5f1636568f0a801a56474836,17/08/2001,2020-08-13_13h01.56.468,proactive2,2020.1.2,Win32,60,5f341be081b9052c55068110,5f352ba150ffd64921b6f91e,2,,,,,,telephone,,,,,,0,49,49,38,1,4,2,,,,,,,,,,,,,,,,,,,,,,,,,,,,,,,,,,,,,,,,,,,,,,,,,,,,,,,,,,,,,,,,,,,,,,,,,,,,,,,,,,,,,,,,,,,,,,,,,,,
