consent_key.keys,consent_key.rt,recalled,recalled_rt,recall_acc,example_recall.thisRepN,example_recall.thisTrialN,example_recall.thisN,example_recall.thisIndex,example_recall.ran,file,word,participant,please enter your date of birth (dd/mm/yyyy),date,expName,psychopyVersion,OS,frameRate,STUDY_ID,SESSION_ID,list,prac_learn_study_loop.thisRepN,prac_learn_study_loop.thisTrialN,prac_learn_study_loop.thisN,prac_learn_study_loop.thisIndex,prac_learn_study_loop.ran,image,prac_learn_test_loop.thisRepN,prac_learn_test_loop.thisTrialN,prac_learn_test_loop.thisN,prac_learn_test_loop.thisIndex,prac_learn_test_loop.ran,learn_study_loop.thisRepN,learn_study_loop.thisTrialN,learn_study_loop.thisN,learn_study_loop.thisIndex,learn_study_loop.ran,list_no,block_no,learn_test_loop.thisRepN,learn_test_loop.thisTrialN,learn_test_loop.thisN,learn_test_loop.thisIndex,learn_test_loop.ran,learn_blocks.thisRepN,learn_blocks.thisTrialN,learn_blocks.thisN,learn_blocks.thisIndex,learn_blocks.ran,block_csv,key_resp_13.keys,key_resp_13.rt,learn_blocks_loop.thisRepN,learn_blocks_loop.thisTrialN,learn_blocks_loop.thisN,learn_blocks_loop.thisIndex,learn_blocks_loop.ran,final_learn_test.thisRepN,final_learn_test.thisTrialN,final_learn_test.thisN,final_learn_test.thisIndex,final_learn_test.ran,s_im1,s_im2,s_im3,s_im4,s_im5,s_im6,s_im7,s_im8,s_im1pos,s_im2pos,s_im3pos,s_im4pos,s_im5pos,s_im6pos,s_im7pos,s_im8pos,s_tarright,search_resp.keys,search_loop.thisRepN,search_loop.thisTrialN,search_loop.thisN,search_loop.thisIndex,search_loop.ran,search_resp.rt,prac_wm_test_loop.thisRepN,prac_wm_test_loop.thisTrialN,prac_wm_test_loop.thisN,prac_wm_test_loop.thisIndex,prac_wm_test_loop.ran,wm_recalled1,wm_recall_rt1,wm_probed1,wm_recall_acc1,wm_recalled2,wm_recall_rt2,wm_probed2,wm_recall_acc2,wm_recalled3,wm_recall_rt3,wm_probed3,wm_recall_acc3,wm_recalled4,wm_recall_rt4,wm_probed4,wm_recall_acc4,prac_wm_trial_loop.thisRepN,prac_wm_trial_loop.thisTrialN,prac_wm_trial_loop.thisN,prac_wm_trial_loop.thisIndex,prac_wm_trial_loop.ran,word1,image1,file1,item_type1,word2,image2,file2,item_type2,word4,image4,file4,item_type4,word3,image3,file3,item_type3,wm_test_loop.thisRepN,wm_test_loop.thisTrialN,wm_test_loop.thisN,wm_test_loop.thisIndex,wm_test_loop.ran,wm_trial_loop.thisRepN,wm_trial_loop.thisTrialN,wm_trial_loop.thisN,wm_trial_loop.thisIndex,wm_trial_loop.ran
y,21.563935,BATHTUB,12.742385,0,0,0,0,0,1,stimuli/images/PICTURE_747.png,TOUGH,5f208d6e81732117f0e798da,12/08/1985,2020-08-13_07h03.09.665,proactive2,2020.1.2,Win32,60,5f341be081b9052c55068110,5f35290dda1ab047f931ee8f,4,,,,,,,,,,,,,,,,,,,,,,,,,,,,,,,,,,,,,,,,,,,,,,,,,,,,,,,,,,,,,,,,,,,,,,,,,,,,,,,,,,,,,,,,,,,,,,,,,,,,,,,,,,,,,,,,,,,,,
,,,,,,,,,,stimuli/images/PICTURE_378.png,LOSS,5f208d6e81732117f0e798da,12/08/1985,2020-08-13_07h03.09.665,proactive2,2020.1.2,Win32,60,5f341be081b9052c55068110,5f35290dda1ab047f931ee8f,4,0,0,0,2,1,lobster,,,,,,,,,,,,,,,,,,,,,,,,,,,,,,,,,,,,,,,,,,,,,,,,,,,,,,,,,,,,,,,,,,,,,,,,,,,,,,,,,,,,,,,,,,,,,,,,,,,,,,,,,,,,,,,
,,,,,,,,,,stimuli/images/PICTURE_658.png,DEVIL,5f208d6e81732117f0e798da,12/08/1985,2020-08-13_07h03.09.665,proactive2,2020.1.2,Win32,60,5f341be081b9052c55068110,5f35290dda1ab047f931ee8f,4,0,1,1,3,1,crow,,,,,,,,,,,,,,,,,,,,,,,,,,,,,,,,,,,,,,,,,,,,,,,,,,,,,,,,,,,,,,,,,,,,,,,,,,,,,,,,,,,,,,,,,,,,,,,,,,,,,,,,,,,,,,,
,,,,,,,,,,stimuli/images/PICTURE_727.png,CELL,5f208d6e81732117f0e798da,12/08/1985,2020-08-13_07h03.09.665,proactive2,2020.1.2,Win32,60,5f341be081b9052c55068110,5f35290dda1ab047f931ee8f,4,0,2,2,1,1,hose,,,,,,,,,,,,,,,,,,,,,,,,,,,,,,,,,,,,,,,,,,,,,,,,,,,,,,,,,,,,,,,,,,,,,,,,,,,,,,,,,,,,,,,,,,,,,,,,,,,,,,,,,,,,,,,
,,,,,,,,,,stimuli/images/PICTURE_269.png,GENIUS,5f208d6e81732117f0e798da,12/08/1985,2020-08-13_07h03.09.665,proactive2,2020.1.2,Win32,60,5f341be081b9052c55068110,5f35290dda1ab047f931ee8f,4,0,3,3,0,1,chameleon,,,,,,,,,,,,,,,,,,,,,,,,,,,,,,,,,,,,,,,,,,,,,,,,,,,,,,,,,,,,,,,,,,,,,,,,,,,,,,,,,,,,,,,,,,,,,,,,,,,,,,,,,,,,,,,
,,LOSS,2.90746,1,,,,,,stimuli/images/PICTURE_378.png,LOSS,5f208d6e81732117f0e798da,12/08/1985,2020-08-13_07h03.09.665,proactive2,2020.1.2,Win32,60,5f341be081b9052c55068110,5f35290dda1ab047f931ee8f,4,,,,,,lobster,0,0,0,2,1,,,,,,,,,,,,,,,,,,,,,,,,,,,,,,,,,,,,,,,,,,,,,,,,,,,,,,,,,,,,,,,,,,,,,,,,,,,,,,,,,,,,,,,,,,,,,,,,,,,,,,,,,,
,,CELL,4.62815,1,,,,,,stimuli/images/PICTURE_727.png,CELL,5f208d6e81732117f0e798da,12/08/1985,2020-08-13_07h03.09.665,proactive2,2020.1.2,Win32,60,5f341be081b9052c55068110,5f35290dda1ab047f931ee8f,4,,,,,,hose,0,1,1,1,1,,,,,,,,,,,,,,,,,,,,,,,,,,,,,,,,,,,,,,,,,,,,,,,,,,,,,,,,,,,,,,,,,,,,,,,,,,,,,,,,,,,,,,,,,,,,,,,,,,,,,,,,,,
,,GENIUS,3.79683,1,,,,,,stimuli/images/PICTURE_269.png,GENIUS,5f208d6e81732117f0e798da,12/08/1985,2020-08-13_07h03.09.665,proactive2,2020.1.2,Win32,60,5f341be081b9052c55068110,5f35290dda1ab047f931ee8f,4,,,,,,chameleon,0,2,2,0,1,,,,,,,,,,,,,,,,,,,,,,,,,,,,,,,,,,,,,,,,,,,,,,,,,,,,,,,,,,,,,,,,,,,,,,,,,,,,,,,,,,,,,,,,,,,,,,,,,,,,,,,,,,
,,DEVIL,4.70994,0,,,,,,stimuli/images/PICTURE_697.png,KILLER,5f208d6e81732117f0e798da,12/08/1985,2020-08-13_07h03.09.665,proactive2,2020.1.2,Win32,60,5f341be081b9052c55068110,5f35290dda1ab047f931ee8f,4,,,,,,peach,0,3,3,4,1,,,,,,,,,,,,,,,,,,,,,,,,,,,,,,,,,,,,,,,,,,,,,,,,,,,,,,,,,,,,,,,,,,,,,,,,,,,,,,,,,,,,,,,,,,,,,,,,,,,,,,,,,,
,,DEVIL,2.69465,1,,,,,,stimuli/images/PICTURE_658.png,DEVIL,5f208d6e81732117f0e798da,12/08/1985,2020-08-13_07h03.09.665,proactive2,2020.1.2,Win32,60,5f341be081b9052c55068110,5f35290dda1ab047f931ee8f,4,,,,,,crow,0,4,4,3,1,,,,,,,,,,,,,,,,,,,,,,,,,,,,,,,,,,,,,,,,,,,,,,,,,,,,,,,,,,,,,,,,,,,,,,,,,,,,,,,,,,,,,,,,,,,,,,,,,,,,,,,,,,
,,,,,,,,,,stimuli/images/PICTURE_141.png,CLIENT,5f208d6e81732117f0e798da,12/08/1985,2020-08-13_07h03.09.665,proactive2,2020.1.2,Win32,60,5f341be081b9052c55068110,5f35290dda1ab047f931ee8f,4,,,,,,sunflower,,,,,,0,0,0,30,1,4,2,,,,,,,,,,,,,,,,,,,,,,,,,,,,,,,,,,,,,,,,,,,,,,,,,,,,,,,,,,,,,,,,,,,,,,,,,,,,,,,,,,,,,,,,,,,,,,,,,,,
,,,,,,,,,,stimuli/images/PICTURE_654.png,YEAR,5f208d6e81732117f0e798da,12/08/1985,2020-08-13_07h03.09.665,proactive2,2020.1.2,Win32,60,5f341be081b9052c55068110,5f35290dda1ab047f931ee8f,4,,,,,,pencil,,,,,,0,1,1,41,1,5,2,,,,,,,,,,,,,,,,,,,,,,,,,,,,,,,,,,,,,,,,,,,,,,,,,,,,,,,,,,,,,,,,,,,,,,,,,,,,,,,,,,,,,,,,,,,,,,,,,,,
,,,,,,,,,,stimuli/images/PICTURE_348.png,TOILET,5f208d6e81732117f0e798da,12/08/1985,2020-08-13_07h03.09.665,proactive2,2020.1.2,Win32,60,5f341be081b9052c55068110,5f35290dda1ab047f931ee8f,4,,,,,,pepper,,,,,,0,2,2,4,1,1,2,,,,,,,,,,,,,,,,,,,,,,,,,,,,,,,,,,,,,,,,,,,,,,,,,,,,,,,,,,,,,,,,,,,,,,,,,,,,,,,,,,,,,,,,,,,,,,,,,,,
,,,,,,,,,,stimuli/images/PICTURE_255.png,PENNY,5f208d6e81732117f0e798da,12/08/1985,2020-08-13_07h03.09.665,proactive2,2020.1.2,Win32,60,5f341be081b9052c55068110,5f35290dda1ab047f931ee8f,4,,,,,,shovel,,,,,,0,3,3,19,1,2,2,,,,,,,,,,,,,,,,,,,,,,,,,,,,,,,,,,,,,,,,,,,,,,,,,,,,,,,,,,,,,,,,,,,,,,,,,,,,,,,,,,,,,,,,,,,,,,,,,,,
,,,,,,,,,,stimuli/images/PICTURE_177.png,HOUSE,5f208d6e81732117f0e798da,12/08/1985,2020-08-13_07h03.09.665,proactive2,2020.1.2,Win32,60,5f341be081b9052c55068110,5f35290dda1ab047f931ee8f,4,,,,,,mushroom,,,,,,0,4,4,25,1,3,2,,,,,,,,,,,,,,,,,,,,,,,,,,,,,,,,,,,,,,,,,,,,,,,,,,,,,,,,,,,,,,,,,,,,,,,,,,,,,,,,,,,,,,,,,,,,,,,,,,,
,,,,,,,,,,stimuli/images/PICTURE_311.png,FLESH,5f208d6e81732117f0e798da,12/08/1985,2020-08-13_07h03.09.665,proactive2,2020.1.2,Win32,60,5f341be081b9052c55068110,5f35290dda1ab047f931ee8f,4,,,,,,razor,,,,,,0,5,5,3,1,1,2,,,,,,,,,,,,,,,,,,,,,,,,,,,,,,,,,,,,,,,,,,,,,,,,,,,,,,,,,,,,,,,,,,,,,,,,,,,,,,,,,,,,,,,,,,,,,,,,,,,
,,,,,,,,,,stimuli/images/PICTURE_95.png,NIGHT,5f208d6e81732117f0e798da,12/08/1985,2020-08-13_07h03.09.665,proactive2,2020.1.2,Win32,60,5f341be081b9052c55068110,5f35290dda1ab047f931ee8f,4,,,,,,suitcase,,,,,,0,6,6,37,1,4,2,,,,,,,,,,,,,,,,,,,,,,,,,,,,,,,,,,,,,,,,,,,,,,,,,,,,,,,,,,,,,,,,,,,,,,,,,,,,,,,,,,,,,,,,,,,,,,,,,,,
,,,,,,,,,,stimuli/images/PICTURE_692.png,DUDE,5f208d6e81732117f0e798da,12/08/1985,2020-08-13_07h03.09.665,proactive2,2020.1.2,Win32,60,5f341be081b9052c55068110,5f35290dda1ab047f931ee8f,4,,,,,,cherry,,,,,,0,7,7,47,1,5,2,,,,,,,,,,,,,,,,,,,,,,,,,,,,,,,,,,,,,,,,,,,,,,,,,,,,,,,,,,,,,,,,,,,,,,,,,,,,,,,,,,,,,,,,,,,,,,,,,,,
,,,,,,,,,,stimuli/images/PICTURE_57.png,CANDY,5f208d6e81732117f0e798da,12/08/1985,2020-08-13_07h03.09.665,proactive2,2020.1.2,Win32,60,5f341be081b9052c55068110,5f35290dda1ab047f931ee8f,4,,,,,,stamp,,,,,,0,8,8,52,1,6,2,,,,,,,,,,,,,,,,,,,,,,,,,,,,,,,,,,,,,,,,,,,,,,,,,,,,,,,,,,,,,,,,,,,,,,,,,,,,,,,,,,,,,,,,,,,,,,,,,,,
,,,,,,,,,,stimuli/images/PICTURE_215.png,FOOD,5f208d6e81732117f0e798da,12/08/1985,2020-08-13_07h03.09.665,proactive2,2020.1.2,Win32,60,5f341be081b9052c55068110,5f35290dda1ab047f931ee8f,4,,,,,,boot,,,,,,0,9,9,5,1,1,2,,,,,,,,,,,,,,,,,,,,,,,,,,,,,,,,,,,,,,,,,,,,,,,,,,,,,,,,,,,,,,,,,,,,,,,,,,,,,,,,,,,,,,,,,,,,,,,,,,,
,,,,,,,,,,stimuli/images/PICTURE_677.png,PHOTO,5f208d6e81732117f0e798da,12/08/1985,2020-08-13_07h03.09.665,proactive2,2020.1.2,Win32,60,5f341be081b9052c55068110,5f35290dda1ab047f931ee8f,4,,,,,,map,,,,,,0,10,10,14,1,2,2,,,,,,,,,,,,,,,,,,,,,,,,,,,,,,,,,,,,,,,,,,,,,,,,,,,,,,,,,,,,,,,,,,,,,,,,,,,,,,,,,,,,,,,,,,,,,,,,,,,
,,,,,,,,,,stimuli/images/PICTURE_215.png,BOYS,5f208d6e81732117f0e798da,12/08/1985,2020-08-13_07h03.09.665,proactive2,2020.1.2,Win32,60,5f341be081b9052c55068110,5f35290dda1ab047f931ee8f,4,,,,,,boot,,,,,,0,11,11,24,1,3,2,,,,,,,,,,,,,,,,,,,,,,,,,,,,,,,,,,,,,,,,,,,,,,,,,,,,,,,,,,,,,,,,,,,,,,,,,,,,,,,,,,,,,,,,,,,,,,,,,,,
,,,,,,,,,,stimuli/images/PICTURE_160.png,HOTEL,5f208d6e81732117f0e798da,12/08/1985,2020-08-13_07h03.09.665,proactive2,2020.1.2,Win32,60,5f341be081b9052c55068110,5f35290dda1ab047f931ee8f,4,,,,,,wheelbarrow,,,,,,0,12,12,16,1,2,2,,,,,,,,,,,,,,,,,,,,,,,,,,,,,,,,,,,,,,,,,,,,,,,,,,,,,,,,,,,,,,,,,,,,,,,,,,,,,,,,,,,,,,,,,,,,,,,,,,,
,,,,,,,,,,stimuli/images/PICTURE_509.png,SHOTS,5f208d6e81732117f0e798da,12/08/1985,2020-08-13_07h03.09.665,proactive2,2020.1.2,Win32,60,5f341be081b9052c55068110,5f35290dda1ab047f931ee8f,4,,,,,,telephone,,,,,,0,13,13,7,1,1,2,,,,,,,,,,,,,,,,,,,,,,,,,,,,,,,,,,,,,,,,,,,,,,,,,,,,,,,,,,,,,,,,,,,,,,,,,,,,,,,,,,,,,,,,,,,,,,,,,,,
,,,,,,,,,,stimuli/images/PICTURE_509.png,APPLE,5f208d6e81732117f0e798da,12/08/1985,2020-08-13_07h03.09.665,proactive2,2020.1.2,Win32,60,5f341be081b9052c55068110,5f35290dda1ab047f931ee8f,4,,,,,,telephone,,,,,,0,14,14,38,1,4,2,,,,,,,,,,,,,,,,,,,,,,,,,,,,,,,,,,,,,,,,,,,,,,,,,,,,,,,,,,,,,,,,,,,,,,,,,,,,,,,,,,,,,,,,,,,,,,,,,,,
,,,,,,,,,,stimuli/images/PICTURE_123.png,SALE,5f208d6e81732117f0e798da,12/08/1985,2020-08-13_07h03.09.665,proactive2,2020.1.2,Win32,60,5f341be081b9052c55068110,5f35290dda1ab047f931ee8f,4,,,,,,dart,,,,,,0,15,15,8,1,1,2,,,,,,,,,,,,,,,,,,,,,,,,,,,,,,,,,,,,,,,,,,,,,,,,,,,,,,,,,,,,,,,,,,,,,,,,,,,,,,,,,,,,,,,,,,,,,,,,,,,
,,,,,,,,,,stimuli/images/PICTURE_750.png,POLICY,5f208d6e81732117f0e798da,12/08/1985,2020-08-13_07h03.09.665,proactive2,2020.1.2,Win32,60,5f341be081b9052c55068110,5f35290dda1ab047f931ee8f,4,,,,,,kettle,,,,,,0,16,16,44,1,5,2,,,,,,,,,,,,,,,,,,,,,,,,,,,,,,,,,,,,,,,,,,,,,,,,,,,,,,,,,,,,,,,,,,,,,,,,,,,,,,,,,,,,,,,,,,,,,,,,,,,
,,,,,,,,,,stimuli/images/PICTURE_654.png,COPS,5f208d6e81732117f0e798da,12/08/1985,2020-08-13_07h03.09.665,proactive2,2020.1.2,Win32,60,5f341be081b9052c55068110,5f35290dda1ab047f931ee8f,4,,,,,,pencil,,,,,,0,17,17,10,1,2,2,,,,,,,,,,,,,,,,,,,,,,,,,,,,,,,,,,,,,,,,,,,,,,,,,,,,,,,,,,,,,,,,,,,,,,,,,,,,,,,,,,,,,,,,,,,,,,,,,,,
,,,,,,,,,,stimuli/images/PICTURE_405.png,HOUSE,5f208d6e81732117f0e798da,12/08/1985,2020-08-13_07h03.09.665,proactive2,2020.1.2,Win32,60,5f341be081b9052c55068110,5f35290dda1ab047f931ee8f,4,,,,,,anchor,,,,,,0,18,18,2,1,1,2,,,,,,,,,,,,,,,,,,,,,,,,,,,,,,,,,,,,,,,,,,,,,,,,,,,,,,,,,,,,,,,,,,,,,,,,,,,,,,,,,,,,,,,,,,,,,,,,,,,
,,,,,,,,,,stimuli/images/PICTURE_564.png,PLENTY,5f208d6e81732117f0e798da,12/08/1985,2020-08-13_07h03.09.665,proactive2,2020.1.2,Win32,60,5f341be081b9052c55068110,5f35290dda1ab047f931ee8f,4,,,,,,spoon,,,,,,0,19,19,11,1,2,2,,,,,,,,,,,,,,,,,,,,,,,,,,,,,,,,,,,,,,,,,,,,,,,,,,,,,,,,,,,,,,,,,,,,,,,,,,,,,,,,,,,,,,,,,,,,,,,,,,,
,,,,,,,,,,stimuli/images/PICTURE_208.png,SPIRIT,5f208d6e81732117f0e798da,12/08/1985,2020-08-13_07h03.09.665,proactive2,2020.1.2,Win32,60,5f341be081b9052c55068110,5f35290dda1ab047f931ee8f,4,,,,,,microphone,,,,,,0,20,20,28,1,3,2,,,,,,,,,,,,,,,,,,,,,,,,,,,,,,,,,,,,,,,,,,,,,,,,,,,,,,,,,,,,,,,,,,,,,,,,,,,,,,,,,,,,,,,,,,,,,,,,,,,
,,,,,,,,,,stimuli/images/PICTURE_470.png,MOMENT,5f208d6e81732117f0e798da,12/08/1985,2020-08-13_07h03.09.665,proactive2,2020.1.2,Win32,60,5f341be081b9052c55068110,5f35290dda1ab047f931ee8f,4,,,,,,motorbike,,,,,,0,21,21,40,1,5,2,,,,,,,,,,,,,,,,,,,,,,,,,,,,,,,,,,,,,,,,,,,,,,,,,,,,,,,,,,,,,,,,,,,,,,,,,,,,,,,,,,,,,,,,,,,,,,,,,,,
,,,,,,,,,,stimuli/images/PICTURE_403.png,FAMILY,5f208d6e81732117f0e798da,12/08/1985,2020-08-13_07h03.09.665,proactive2,2020.1.2,Win32,60,5f341be081b9052c55068110,5f35290dda1ab047f931ee8f,4,,,,,,cathedral,,,,,,0,22,22,9,1,1,2,,,,,,,,,,,,,,,,,,,,,,,,,,,,,,,,,,,,,,,,,,,,,,,,,,,,,,,,,,,,,,,,,,,,,,,,,,,,,,,,,,,,,,,,,,,,,,,,,,,
,,,,,,,,,,stimuli/images/PICTURE_470.png,BEAUTY,5f208d6e81732117f0e798da,12/08/1985,2020-08-13_07h03.09.665,proactive2,2020.1.2,Win32,60,5f341be081b9052c55068110,5f35290dda1ab047f931ee8f,4,,,,,,motorbike,,,,,,0,23,23,26,1,3,2,,,,,,,,,,,,,,,,,,,,,,,,,,,,,,,,,,,,,,,,,,,,,,,,,,,,,,,,,,,,,,,,,,,,,,,,,,,,,,,,,,,,,,,,,,,,,,,,,,,
,,,,,,,,,,stimuli/images/PICTURE_487.png,POLICY,5f208d6e81732117f0e798da,12/08/1985,2020-08-13_07h03.09.665,proactive2,2020.1.2,Win32,60,5f341be081b9052c55068110,5f35290dda1ab047f931ee8f,4,,,,,,basket,,,,,,0,24,24,34,1,4,2,,,,,,,,,,,,,,,,,,,,,,,,,,,,,,,,,,,,,,,,,,,,,,,,,,,,,,,,,,,,,,,,,,,,,,,,,,,,,,,,,,,,,,,,,,,,,,,,,,,
,,,,,,,,,,stimuli/images/PICTURE_57.png,NATION,5f208d6e81732117f0e798da,12/08/1985,2020-08-13_07h03.09.665,proactive2,2020.1.2,Win32,60,5f341be081b9052c55068110,5f35290dda1ab047f931ee8f,4,,,,,,stamp,,,,,,0,25,25,21,1,3,2,,,,,,,,,,,,,,,,,,,,,,,,,,,,,,,,,,,,,,,,,,,,,,,,,,,,,,,,,,,,,,,,,,,,,,,,,,,,,,,,,,,,,,,,,,,,,,,,,,,
,,,,,,,,,,stimuli/images/PICTURE_2.png,JUNGLE,5f208d6e81732117f0e798da,12/08/1985,2020-08-13_07h03.09.665,proactive2,2020.1.2,Win32,60,5f341be081b9052c55068110,5f35290dda1ab047f931ee8f,4,,,,,,tyre,,,,,,0,26,26,1,1,1,2,,,,,,,,,,,,,,,,,,,,,,,,,,,,,,,,,,,,,,,,,,,,,,,,,,,,,,,,,,,,,,,,,,,,,,,,,,,,,,,,,,,,,,,,,,,,,,,,,,,
,,,,,,,,,,stimuli/images/PICTURE_32.png,LETTER,5f208d6e81732117f0e798da,12/08/1985,2020-08-13_07h03.09.665,proactive2,2020.1.2,Win32,60,5f341be081b9052c55068110,5f35290dda1ab047f931ee8f,4,,,,,,crown,,,,,,0,27,27,56,1,6,2,,,,,,,,,,,,,,,,,,,,,,,,,,,,,,,,,,,,,,,,,,,,,,,,,,,,,,,,,,,,,,,,,,,,,,,,,,,,,,,,,,,,,,,,,,,,,,,,,,,
,,,,,,,,,,stimuli/images/PICTURE_68.png,KIND,5f208d6e81732117f0e798da,12/08/1985,2020-08-13_07h03.09.665,proactive2,2020.1.2,Win32,60,5f341be081b9052c55068110,5f35290dda1ab047f931ee8f,4,,,,,,candle,,,,,,0,28,28,23,1,3,2,,,,,,,,,,,,,,,,,,,,,,,,,,,,,,,,,,,,,,,,,,,,,,,,,,,,,,,,,,,,,,,,,,,,,,,,,,,,,,,,,,,,,,,,,,,,,,,,,,,
,,,,,,,,,,stimuli/images/PICTURE_667.png,GLASS,5f208d6e81732117f0e798da,12/08/1985,2020-08-13_07h03.09.665,proactive2,2020.1.2,Win32,60,5f341be081b9052c55068110,5f35290dda1ab047f931ee8f,4,,,,,,daisy,,,,,,0,29,29,27,1,3,2,,,,,,,,,,,,,,,,,,,,,,,,,,,,,,,,,,,,,,,,,,,,,,,,,,,,,,,,,,,,,,,,,,,,,,,,,,,,,,,,,,,,,,,,,,,,,,,,,,,
,,,,,,,,,,stimuli/images/PICTURE_509.png,MILLER,5f208d6e81732117f0e798da,12/08/1985,2020-08-13_07h03.09.665,proactive2,2020.1.2,Win32,60,5f341be081b9052c55068110,5f35290dda1ab047f931ee8f,4,,,,,,telephone,,,,,,0,30,30,49,1,5,2,,,,,,,,,,,,,,,,,,,,,,,,,,,,,,,,,,,,,,,,,,,,,,,,,,,,,,,,,,,,,,,,,,,,,,,,,,,,,,,,,,,,,,,,,,,,,,,,,,,
,,,,,,,,,,stimuli/images/PICTURE_147.png,LEADER,5f208d6e81732117f0e798da,12/08/1985,2020-08-13_07h03.09.665,proactive2,2020.1.2,Win32,60,5f341be081b9052c55068110,5f35290dda1ab047f931ee8f,4,,,,,,hanger,,,,,,0,31,31,33,1,4,2,,,,,,,,,,,,,,,,,,,,,,,,,,,,,,,,,,,,,,,,,,,,,,,,,,,,,,,,,,,,,,,,,,,,,,,,,,,,,,,,,,,,,,,,,,,,,,,,,,,
,,,,,,,,,,stimuli/images/PICTURE_297.png,BODY,5f208d6e81732117f0e798da,12/08/1985,2020-08-13_07h03.09.665,proactive2,2020.1.2,Win32,60,5f341be081b9052c55068110,5f35290dda1ab047f931ee8f,4,,,,,,aeroplane,,,,,,0,32,32,51,1,6,2,,,,,,,,,,,,,,,,,,,,,,,,,,,,,,,,,,,,,,,,,,,,,,,,,,,,,,,,,,,,,,,,,,,,,,,,,,,,,,,,,,,,,,,,,,,,,,,,,,,
,,,,,,,,,,stimuli/images/PICTURE_327.png,LEADER,5f208d6e81732117f0e798da,12/08/1985,2020-08-13_07h03.09.665,proactive2,2020.1.2,Win32,60,5f341be081b9052c55068110,5f35290dda1ab047f931ee8f,4,,,,,,helmet,,,,,,0,33,33,17,1,2,2,,,,,,,,,,,,,,,,,,,,,,,,,,,,,,,,,,,,,,,,,,,,,,,,,,,,,,,,,,,,,,,,,,,,,,,,,,,,,,,,,,,,,,,,,,,,,,,,,,,
,,,,,,,,,,stimuli/images/PICTURE_688.png,CLOCK,5f208d6e81732117f0e798da,12/08/1985,2020-08-13_07h03.09.665,proactive2,2020.1.2,Win32,60,5f341be081b9052c55068110,5f35290dda1ab047f931ee8f,4,,,,,,runner,,,,,,0,34,34,42,1,5,2,,,,,,,,,,,,,,,,,,,,,,,,,,,,,,,,,,,,,,,,,,,,,,,,,,,,,,,,,,,,,,,,,,,,,,,,,,,,,,,,,,,,,,,,,,,,,,,,,,,
,,,,,,,,,,stimuli/images/PICTURE_311.png,TOILET,5f208d6e81732117f0e798da,12/08/1985,2020-08-13_07h03.09.665,proactive2,2020.1.2,Win32,60,5f341be081b9052c55068110,5f35290dda1ab047f931ee8f,4,,,,,,razor,,,,,,0,35,35,54,1,6,2,,,,,,,,,,,,,,,,,,,,,,,,,,,,,,,,,,,,,,,,,,,,,,,,,,,,,,,,,,,,,,,,,,,,,,,,,,,,,,,,,,,,,,,,,,,,,,,,,,,
,,,,,,,,,,stimuli/images/PICTURE_655.png,SALE,5f208d6e81732117f0e798da,12/08/1985,2020-08-13_07h03.09.665,proactive2,2020.1.2,Win32,60,5f341be081b9052c55068110,5f35290dda1ab047f931ee8f,4,,,,,,megaphone,,,,,,0,36,36,57,1,6,2,,,,,,,,,,,,,,,,,,,,,,,,,,,,,,,,,,,,,,,,,,,,,,,,,,,,,,,,,,,,,,,,,,,,,,,,,,,,,,,,,,,,,,,,,,,,,,,,,,,
,,,,,,,,,,stimuli/images/PICTURE_452.png,COPS,5f208d6e81732117f0e798da,12/08/1985,2020-08-13_07h03.09.665,proactive2,2020.1.2,Win32,60,5f341be081b9052c55068110,5f35290dda1ab047f931ee8f,4,,,,,,watch,,,,,,0,37,37,0,1,1,2,,,,,,,,,,,,,,,,,,,,,,,,,,,,,,,,,,,,,,,,,,,,,,,,,,,,,,,,,,,,,,,,,,,,,,,,,,,,,,,,,,,,,,,,,,,,,,,,,,,
,,,,,,,,,,stimuli/images/PICTURE_708.png,VALLEY,5f208d6e81732117f0e798da,12/08/1985,2020-08-13_07h03.09.665,proactive2,2020.1.2,Win32,60,5f341be081b9052c55068110,5f35290dda1ab047f931ee8f,4,,,,,,monkey,,,,,,0,38,38,45,1,5,2,,,,,,,,,,,,,,,,,,,,,,,,,,,,,,,,,,,,,,,,,,,,,,,,,,,,,,,,,,,,,,,,,,,,,,,,,,,,,,,,,,,,,,,,,,,,,,,,,,,
,,,,,,,,,,stimuli/images/PICTURE_285.png,WRITER,5f208d6e81732117f0e798da,12/08/1985,2020-08-13_07h03.09.665,proactive2,2020.1.2,Win32,60,5f341be081b9052c55068110,5f35290dda1ab047f931ee8f,4,,,,,,carrot,,,,,,0,39,39,6,1,1,2,,,,,,,,,,,,,,,,,,,,,,,,,,,,,,,,,,,,,,,,,,,,,,,,,,,,,,,,,,,,,,,,,,,,,,,,,,,,,,,,,,,,,,,,,,,,,,,,,,,
,,,,,,,,,,stimuli/images/PICTURE_504.png,HOUSE,5f208d6e81732117f0e798da,12/08/1985,2020-08-13_07h03.09.665,proactive2,2020.1.2,Win32,60,5f341be081b9052c55068110,5f35290dda1ab047f931ee8f,4,,,,,,wheel,,,,,,0,40,40,36,1,4,2,,,,,,,,,,,,,,,,,,,,,,,,,,,,,,,,,,,,,,,,,,,,,,,,,,,,,,,,,,,,,,,,,,,,,,,,,,,,,,,,,,,,,,,,,,,,,,,,,,,
,,,,,,,,,,stimuli/images/PICTURE_296.png,CLOCK,5f208d6e81732117f0e798da,12/08/1985,2020-08-13_07h03.09.665,proactive2,2020.1.2,Win32,60,5f341be081b9052c55068110,5f35290dda1ab047f931ee8f,4,,,,,,bolt,,,,,,0,41,41,18,1,2,2,,,,,,,,,,,,,,,,,,,,,,,,,,,,,,,,,,,,,,,,,,,,,,,,,,,,,,,,,,,,,,,,,,,,,,,,,,,,,,,,,,,,,,,,,,,,,,,,,,,
,,,,,,,,,,stimuli/images/PICTURE_487.png,ROOF,5f208d6e81732117f0e798da,12/08/1985,2020-08-13_07h03.09.665,proactive2,2020.1.2,Win32,60,5f341be081b9052c55068110,5f35290dda1ab047f931ee8f,4,,,,,,basket,,,,,,0,42,42,50,1,6,2,,,,,,,,,,,,,,,,,,,,,,,,,,,,,,,,,,,,,,,,,,,,,,,,,,,,,,,,,,,,,,,,,,,,,,,,,,,,,,,,,,,,,,,,,,,,,,,,,,,
,,,,,,,,,,stimuli/images/PICTURE_18.png,RIVER,5f208d6e81732117f0e798da,12/08/1985,2020-08-13_07h03.09.665,proactive2,2020.1.2,Win32,60,5f341be081b9052c55068110,5f35290dda1ab047f931ee8f,4,,,,,,planet,,,,,,0,43,43,22,1,3,2,,,,,,,,,,,,,,,,,,,,,,,,,,,,,,,,,,,,,,,,,,,,,,,,,,,,,,,,,,,,,,,,,,,,,,,,,,,,,,,,,,,,,,,,,,,,,,,,,,,
,,,,,,,,,,stimuli/images/PICTURE_356.png,CANDY,5f208d6e81732117f0e798da,12/08/1985,2020-08-13_07h03.09.665,proactive2,2020.1.2,Win32,60,5f341be081b9052c55068110,5f35290dda1ab047f931ee8f,4,,,,,,pawn,,,,,,0,44,44,46,1,5,2,,,,,,,,,,,,,,,,,,,,,,,,,,,,,,,,,,,,,,,,,,,,,,,,,,,,,,,,,,,,,,,,,,,,,,,,,,,,,,,,,,,,,,,,,,,,,,,,,,,
,,,,,,,,,,stimuli/images/PICTURE_509.png,BATH,5f208d6e81732117f0e798da,12/08/1985,2020-08-13_07h03.09.665,proactive2,2020.1.2,Win32,60,5f341be081b9052c55068110,5f35290dda1ab047f931ee8f,4,,,,,,telephone,,,,,,0,45,45,15,1,2,2,,,,,,,,,,,,,,,,,,,,,,,,,,,,,,,,,,,,,,,,,,,,,,,,,,,,,,,,,,,,,,,,,,,,,,,,,,,,,,,,,,,,,,,,,,,,,,,,,,,
,,,,,,,,,,stimuli/images/PICTURE_285.png,PRINCE,5f208d6e81732117f0e798da,12/08/1985,2020-08-13_07h03.09.665,proactive2,2020.1.2,Win32,60,5f341be081b9052c55068110,5f35290dda1ab047f931ee8f,4,,,,,,carrot,,,,,,0,46,46,20,1,3,2,,,,,,,,,,,,,,,,,,,,,,,,,,,,,,,,,,,,,,,,,,,,,,,,,,,,,,,,,,,,,,,,,,,,,,,,,,,,,,,,,,,,,,,,,,,,,,,,,,,
,,,,,,,,,,stimuli/images/PICTURE_215.png,LEADER,5f208d6e81732117f0e798da,12/08/1985,2020-08-13_07h03.09.665,proactive2,2020.1.2,Win32,60,5f341be081b9052c55068110,5f35290dda1ab047f931ee8f,4,,,,,,boot,,,,,,0,47,47,43,1,5,2,,,,,,,,,,,,,,,,,,,,,,,,,,,,,,,,,,,,,,,,,,,,,,,,,,,,,,,,,,,,,,,,,,,,,,,,,,,,,,,,,,,,,,,,,,,,,,,,,,,
,,,,,,,,,,stimuli/images/PICTURE_491.png,SERIES,5f208d6e81732117f0e798da,12/08/1985,2020-08-13_07h03.09.665,proactive2,2020.1.2,Win32,60,5f341be081b9052c55068110,5f35290dda1ab047f931ee8f,4,,,,,,rug,,,,,,0,48,48,39,1,4,2,,,,,,,,,,,,,,,,,,,,,,,,,,,,,,,,,,,,,,,,,,,,,,,,,,,,,,,,,,,,,,,,,,,,,,,,,,,,,,,,,,,,,,,,,,,,,,,,,,,
,,,,,,,,,,stimuli/images/PICTURE_405.png,JUNGLE,5f208d6e81732117f0e798da,12/08/1985,2020-08-13_07h03.09.665,proactive2,2020.1.2,Win32,60,5f341be081b9052c55068110,5f35290dda1ab047f931ee8f,4,,,,,,anchor,,,,,,0,49,49,13,1,2,2,,,,,,,,,,,,,,,,,,,,,,,,,,,,,,,,,,,,,,,,,,,,,,,,,,,,,,,,,,,,,,,,,,,,,,,,,,,,,,,,,,,,,,,,,,,,,,,,,,,
,,,,,,,,,,stimuli/images/PICTURE_2.png,YARD,5f208d6e81732117f0e798da,12/08/1985,2020-08-13_07h03.09.665,proactive2,2020.1.2,Win32,60,5f341be081b9052c55068110,5f35290dda1ab047f931ee8f,4,,,,,,tyre,,,,,,0,50,50,55,1,6,2,,,,,,,,,,,,,,,,,,,,,,,,,,,,,,,,,,,,,,,,,,,,,,,,,,,,,,,,,,,,,,,,,,,,,,,,,,,,,,,,,,,,,,,,,,,,,,,,,,,
,,,,,,,,,,stimuli/images/PICTURE_453.png,FAMILY,5f208d6e81732117f0e798da,12/08/1985,2020-08-13_07h03.09.665,proactive2,2020.1.2,Win32,60,5f341be081b9052c55068110,5f35290dda1ab047f931ee8f,4,,,,,,scissors,,,,,,0,51,51,48,1,5,2,,,,,,,,,,,,,,,,,,,,,,,,,,,,,,,,,,,,,,,,,,,,,,,,,,,,,,,,,,,,,,,,,,,,,,,,,,,,,,,,,,,,,,,,,,,,,,,,,,,
,,,,,,,,,,stimuli/images/PICTURE_2.png,AREA,5f208d6e81732117f0e798da,12/08/1985,2020-08-13_07h03.09.665,proactive2,2020.1.2,Win32,60,5f341be081b9052c55068110,5f35290dda1ab047f931ee8f,4,,,,,,tyre,,,,,,0,52,52,32,1,4,2,,,,,,,,,,,,,,,,,,,,,,,,,,,,,,,,,,,,,,,,,,,,,,,,,,,,,,,,,,,,,,,,,,,,,,,,,,,,,,,,,,,,,,,,,,,,,,,,,,,
,,,,,,,,,,stimuli/images/PICTURE_57.png,CASINO,5f208d6e81732117f0e798da,12/08/1985,2020-08-13_07h03.09.665,proactive2,2020.1.2,Win32,60,5f341be081b9052c55068110,5f35290dda1ab047f931ee8f,4,,,,,,stamp,,,,,,0,53,53,12,1,2,2,,,,,,,,,,,,,,,,,,,,,,,,,,,,,,,,,,,,,,,,,,,,,,,,,,,,,,,,,,,,,,,,,,,,,,,,,,,,,,,,,,,,,,,,,,,,,,,,,,,
,,,,,,,,,,stimuli/images/PICTURE_348.png,DUDE,5f208d6e81732117f0e798da,12/08/1985,2020-08-13_07h03.09.665,proactive2,2020.1.2,Win32,60,5f341be081b9052c55068110,5f35290dda1ab047f931ee8f,4,,,,,,pepper,,,,,,0,54,54,59,1,6,2,,,,,,,,,,,,,,,,,,,,,,,,,,,,,,,,,,,,,,,,,,,,,,,,,,,,,,,,,,,,,,,,,,,,,,,,,,,,,,,,,,,,,,,,,,,,,,,,,,,
,,,,,,,,,,stimuli/images/PICTURE_93.png,GIRL,5f208d6e81732117f0e798da,12/08/1985,2020-08-13_07h03.09.665,proactive2,2020.1.2,Win32,60,5f341be081b9052c55068110,5f35290dda1ab047f931ee8f,4,,,,,,skateboard,,,,,,0,55,55,31,1,4,2,,,,,,,,,,,,,,,,,,,,,,,,,,,,,,,,,,,,,,,,,,,,,,,,,,,,,,,,,,,,,,,,,,,,,,,,,,,,,,,,,,,,,,,,,,,,,,,,,,,
,,,,,,,,,,stimuli/images/PICTURE_33.png,COPS,5f208d6e81732117f0e798da,12/08/1985,2020-08-13_07h03.09.665,proactive2,2020.1.2,Win32,60,5f341be081b9052c55068110,5f35290dda1ab047f931ee8f,4,,,,,,frame,,,,,,0,56,56,29,1,3,2,,,,,,,,,,,,,,,,,,,,,,,,,,,,,,,,,,,,,,,,,,,,,,,,,,,,,,,,,,,,,,,,,,,,,,,,,,,,,,,,,,,,,,,,,,,,,,,,,,,
,,,,,,,,,,stimuli/images/PICTURE_405.png,JUNGLE,5f208d6e81732117f0e798da,12/08/1985,2020-08-13_07h03.09.665,proactive2,2020.1.2,Win32,60,5f341be081b9052c55068110,5f35290dda1ab047f931ee8f,4,,,,,,anchor,,,,,,0,57,57,58,1,6,2,,,,,,,,,,,,,,,,,,,,,,,,,,,,,,,,,,,,,,,,,,,,,,,,,,,,,,,,,,,,,,,,,,,,,,,,,,,,,,,,,,,,,,,,,,,,,,,,,,,
,,,,,,,,,,stimuli/images/PICTURE_677.png,FAMILY,5f208d6e81732117f0e798da,12/08/1985,2020-08-13_07h03.09.665,proactive2,2020.1.2,Win32,60,5f341be081b9052c55068110,5f35290dda1ab047f931ee8f,4,,,,,,map,,,,,,0,58,58,53,1,6,2,,,,,,,,,,,,,,,,,,,,,,,,,,,,,,,,,,,,,,,,,,,,,,,,,,,,,,,,,,,,,,,,,,,,,,,,,,,,,,,,,,,,,,,,,,,,,,,,,,,
,,CLIENT,3.86153,0,,,,,,stimuli/images/PICTURE_491.png,SERIES,5f208d6e81732117f0e798da,12/08/1985,2020-08-13_07h03.09.665,proactive2,2020.1.2,Win32,60,5f341be081b9052c55068110,5f35290dda1ab047f931ee8f,4,,,,,,rug,,,,,,,,,,,4,2,0,0,0,39,1,,,,,,,,,,,,,,,,,,,,,,,,,,,,,,,,,,,,,,,,,,,,,,,,,,,,,,,,,,,,,,,,,,,,,,,,,,,,,,,,,,,,,,,,,,,,,,
,,?,0.002045,0,,,,,,stimuli/images/PICTURE_296.png,CLOCK,5f208d6e81732117f0e798da,12/08/1985,2020-08-13_07h03.09.665,proactive2,2020.1.2,Win32,60,5f341be081b9052c55068110,5f35290dda1ab047f931ee8f,4,,,,,,bolt,,,,,,,,,,,2,2,0,1,1,18,1,,,,,,,,,,,,,,,,,,,,,,,,,,,,,,,,,,,,,,,,,,,,,,,,,,,,,,,,,,,,,,,,,,,,,,,,,,,,,,,,,,,,,,,,,,,,,,
,,?,0.004005,0,,,,,,stimuli/images/PICTURE_356.png,CANDY,5f208d6e81732117f0e798da,12/08/1985,2020-08-13_07h03.09.665,proactive2,2020.1.2,Win32,60,5f341be081b9052c55068110,5f35290dda1ab047f931ee8f,4,,,,,,pawn,,,,,,,,,,,5,2,0,2,2,46,1,,,,,,,,,,,,,,,,,,,,,,,,,,,,,,,,,,,,,,,,,,,,,,,,,,,,,,,,,,,,,,,,,,,,,,,,,,,,,,,,,,,,,,,,,,,,,,
,,?,0.002065,0,,,,,,stimuli/images/PICTURE_311.png,FLESH,5f208d6e81732117f0e798da,12/08/1985,2020-08-13_07h03.09.665,proactive2,2020.1.2,Win32,60,5f341be081b9052c55068110,5f35290dda1ab047f931ee8f,4,,,,,,razor,,,,,,,,,,,1,2,0,3,3,3,1,,,,,,,,,,,,,,,,,,,,,,,,,,,,,,,,,,,,,,,,,,,,,,,,,,,,,,,,,,,,,,,,,,,,,,,,,,,,,,,,,,,,,,,,,,,,,,
,,?,0.002535,0,,,,,,stimuli/images/PICTURE_688.png,CLOCK,5f208d6e81732117f0e798da,12/08/1985,2020-08-13_07h03.09.665,proactive2,2020.1.2,Win32,60,5f341be081b9052c55068110,5f35290dda1ab047f931ee8f,4,,,,,,runner,,,,,,,,,,,5,2,0,4,4,42,1,,,,,,,,,,,,,,,,,,,,,,,,,,,,,,,,,,,,,,,,,,,,,,,,,,,,,,,,,,,,,,,,,,,,,,,,,,,,,,,,,,,,,,,,,,,,,,
,,?,0.003005,0,,,,,,stimuli/images/PICTURE_348.png,DUDE,5f208d6e81732117f0e798da,12/08/1985,2020-08-13_07h03.09.665,proactive2,2020.1.2,Win32,60,5f341be081b9052c55068110,5f35290dda1ab047f931ee8f,4,,,,,,pepper,,,,,,,,,,,6,2,0,5,5,59,1,,,,,,,,,,,,,,,,,,,,,,,,,,,,,,,,,,,,,,,,,,,,,,,,,,,,,,,,,,,,,,,,,,,,,,,,,,,,,,,,,,,,,,,,,,,,,,
,,?,0.002175,0,,,,,,stimuli/images/PICTURE_509.png,MILLER,5f208d6e81732117f0e798da,12/08/1985,2020-08-13_07h03.09.665,proactive2,2020.1.2,Win32,60,5f341be081b9052c55068110,5f35290dda1ab047f931ee8f,4,,,,,,telephone,,,,,,,,,,,5,2,0,6,6,49,1,,,,,,,,,,,,,,,,,,,,,,,,,,,,,,,,,,,,,,,,,,,,,,,,,,,,,,,,,,,,,,,,,,,,,,,,,,,,,,,,,,,,,,,,,,,,,,
,,?,0.00313,0,,,,,,stimuli/images/PICTURE_57.png,CANDY,5f208d6e81732117f0e798da,12/08/1985,2020-08-13_07h03.09.665,proactive2,2020.1.2,Win32,60,5f341be081b9052c55068110,5f35290dda1ab047f931ee8f,4,,,,,,stamp,,,,,,,,,,,6,2,0,7,7,52,1,,,,,,,,,,,,,,,,,,,,,,,,,,,,,,,,,,,,,,,,,,,,,,,,,,,,,,,,,,,,,,,,,,,,,,,,,,,,,,,,,,,,,,,,,,,,,,
,,?,0.00181,0,,,,,,stimuli/images/PICTURE_33.png,COPS,5f208d6e81732117f0e798da,12/08/1985,2020-08-13_07h03.09.665,proactive2,2020.1.2,Win32,60,5f341be081b9052c55068110,5f35290dda1ab047f931ee8f,4,,,,,,frame,,,,,,,,,,,3,2,0,8,8,29,1,,,,,,,,,,,,,,,,,,,,,,,,,,,,,,,,,,,,,,,,,,,,,,,,,,,,,,,,,,,,,,,,,,,,,,,,,,,,,,,,,,,,,,,,,,,,,,
,,?,0.001805,0,,,,,,stimuli/images/PICTURE_708.png,VALLEY,5f208d6e81732117f0e798da,12/08/1985,2020-08-13_07h03.09.665,proactive2,2020.1.2,Win32,60,5f341be081b9052c55068110,5f35290dda1ab047f931ee8f,4,,,,,,monkey,,,,,,,,,,,5,2,0,9,9,45,1,,,,,,,,,,,,,,,,,,,,,,,,,,,,,,,,,,,,,,,,,,,,,,,,,,,,,,,,,,,,,,,,,,,,,,,,,,,,,,,,,,,,,,,,,,,,,,
,,?,0.00223,0,,,,,,stimuli/images/PICTURE_487.png,ROOF,5f208d6e81732117f0e798da,12/08/1985,2020-08-13_07h03.09.665,proactive2,2020.1.2,Win32,60,5f341be081b9052c55068110,5f35290dda1ab047f931ee8f,4,,,,,,basket,,,,,,,,,,,6,2,0,10,10,50,1,,,,,,,,,,,,,,,,,,,,,,,,,,,,,,,,,,,,,,,,,,,,,,,,,,,,,,,,,,,,,,,,,,,,,,,,,,,,,,,,,,,,,,,,,,,,,,
,,APPLE,4.693785,0,,,,,,stimuli/images/PICTURE_487.png,POLICY,5f208d6e81732117f0e798da,12/08/1985,2020-08-13_07h03.09.665,proactive2,2020.1.2,Win32,60,5f341be081b9052c55068110,5f35290dda1ab047f931ee8f,4,,,,,,basket,,,,,,,,,,,4,2,0,11,11,34,1,,,,,,,,,,,,,,,,,,,,,,,,,,,,,,,,,,,,,,,,,,,,,,,,,,,,,,,,,,,,,,,,,,,,,,,,,,,,,,,,,,,,,,,,,,,,,,
,,GIRL,4.47469,0,,,,,,stimuli/images/PICTURE_504.png,HOUSE,5f208d6e81732117f0e798da,12/08/1985,2020-08-13_07h03.09.665,proactive2,2020.1.2,Win32,60,5f341be081b9052c55068110,5f35290dda1ab047f931ee8f,4,,,,,,wheel,,,,,,,,,,,4,2,0,12,12,36,1,,,,,,,,,,,,,,,,,,,,,,,,,,,,,,,,,,,,,,,,,,,,,,,,,,,,,,,,,,,,,,,,,,,,,,,,,,,,,,,,,,,,,,,,,,,,,,
,,?,0.002615,0,,,,,,stimuli/images/PICTURE_677.png,PHOTO,5f208d6e81732117f0e798da,12/08/1985,2020-08-13_07h03.09.665,proactive2,2020.1.2,Win32,60,5f341be081b9052c55068110,5f35290dda1ab047f931ee8f,4,,,,,,map,,,,,,,,,,,2,2,0,13,13,14,1,,,,,,,,,,,,,,,,,,,,,,,,,,,,,,,,,,,,,,,,,,,,,,,,,,,,,,,,,,,,,,,,,,,,,,,,,,,,,,,,,,,,,,,,,,,,,,
,,?,0.00159,0,,,,,,stimuli/images/PICTURE_405.png,HOUSE,5f208d6e81732117f0e798da,12/08/1985,2020-08-13_07h03.09.665,proactive2,2020.1.2,Win32,60,5f341be081b9052c55068110,5f35290dda1ab047f931ee8f,4,,,,,,anchor,,,,,,,,,,,1,2,0,14,14,2,1,,,,,,,,,,,,,,,,,,,,,,,,,,,,,,,,,,,,,,,,,,,,,,,,,,,,,,,,,,,,,,,,,,,,,,,,,,,,,,,,,,,,,,,,,,,,,,
,,?,0.001975,0,,,,,,stimuli/images/PICTURE_177.png,HOUSE,5f208d6e81732117f0e798da,12/08/1985,2020-08-13_07h03.09.665,proactive2,2020.1.2,Win32,60,5f341be081b9052c55068110,5f35290dda1ab047f931ee8f,4,,,,,,mushroom,,,,,,,,,,,3,2,0,15,15,25,1,,,,,,,,,,,,,,,,,,,,,,,,,,,,,,,,,,,,,,,,,,,,,,,,,,,,,,,,,,,,,,,,,,,,,,,,,,,,,,,,,,,,,,,,,,,,,,
,,?,0.001755,0,,,,,,stimuli/images/PICTURE_18.png,RIVER,5f208d6e81732117f0e798da,12/08/1985,2020-08-13_07h03.09.665,proactive2,2020.1.2,Win32,60,5f341be081b9052c55068110,5f35290dda1ab047f931ee8f,4,,,,,,planet,,,,,,,,,,,3,2,0,16,16,22,1,,,,,,,,,,,,,,,,,,,,,,,,,,,,,,,,,,,,,,,,,,,,,,,,,,,,,,,,,,,,,,,,,,,,,,,,,,,,,,,,,,,,,,,,,,,,,,
,,?,0.002275,0,,,,,,stimuli/images/PICTURE_285.png,WRITER,5f208d6e81732117f0e798da,12/08/1985,2020-08-13_07h03.09.665,proactive2,2020.1.2,Win32,60,5f341be081b9052c55068110,5f35290dda1ab047f931ee8f,4,,,,,,carrot,,,,,,,,,,,1,2,0,17,17,6,1,,,,,,,,,,,,,,,,,,,,,,,,,,,,,,,,,,,,,,,,,,,,,,,,,,,,,,,,,,,,,,,,,,,,,,,,,,,,,,,,,,,,,,,,,,,,,,
,,?,0.002535,0,,,,,,stimuli/images/PICTURE_452.png,COPS,5f208d6e81732117f0e798da,12/08/1985,2020-08-13_07h03.09.665,proactive2,2020.1.2,Win32,60,5f341be081b9052c55068110,5f35290dda1ab047f931ee8f,4,,,,,,watch,,,,,,,,,,,1,2,0,18,18,0,1,,,,,,,,,,,,,,,,,,,,,,,,,,,,,,,,,,,,,,,,,,,,,,,,,,,,,,,,,,,,,,,,,,,,,,,,,,,,,,,,,,,,,,,,,,,,,,
,,?,0.00201,0,,,,,,stimuli/images/PICTURE_509.png,SHOTS,5f208d6e81732117f0e798da,12/08/1985,2020-08-13_07h03.09.665,proactive2,2020.1.2,Win32,60,5f341be081b9052c55068110,5f35290dda1ab047f931ee8f,4,,,,,,telephone,,,,,,,,,,,1,2,0,19,19,7,1,,,,,,,,,,,,,,,,,,,,,,,,,,,,,,,,,,,,,,,,,,,,,,,,,,,,,,,,,,,,,,,,,,,,,,,,,,,,,,,,,,,,,,,,,,,,,,
,,?,0.00187,0,,,,,,stimuli/images/PICTURE_470.png,BEAUTY,5f208d6e81732117f0e798da,12/08/1985,2020-08-13_07h03.09.665,proactive2,2020.1.2,Win32,60,5f341be081b9052c55068110,5f35290dda1ab047f931ee8f,4,,,,,,motorbike,,,,,,,,,,,3,2,0,20,20,26,1,,,,,,,,,,,,,,,,,,,,,,,,,,,,,,,,,,,,,,,,,,,,,,,,,,,,,,,,,,,,,,,,,,,,,,,,,,,,,,,,,,,,,,,,,,,,,,
,,?,0.00217,0,,,,,,stimuli/images/PICTURE_403.png,FAMILY,5f208d6e81732117f0e798da,12/08/1985,2020-08-13_07h03.09.665,proactive2,2020.1.2,Win32,60,5f341be081b9052c55068110,5f35290dda1ab047f931ee8f,4,,,,,,cathedral,,,,,,,,,,,1,2,0,21,21,9,1,,,,,,,,,,,,,,,,,,,,,,,,,,,,,,,,,,,,,,,,,,,,,,,,,,,,,,,,,,,,,,,,,,,,,,,,,,,,,,,,,,,,,,,,,,,,,,
,,?,0.001555,0,,,,,,stimuli/images/PICTURE_405.png,JUNGLE,5f208d6e81732117f0e798da,12/08/1985,2020-08-13_07h03.09.665,proactive2,2020.1.2,Win32,60,5f341be081b9052c55068110,5f35290dda1ab047f931ee8f,4,,,,,,anchor,,,,,,,,,,,2,2,0,22,22,13,1,,,,,,,,,,,,,,,,,,,,,,,,,,,,,,,,,,,,,,,,,,,,,,,,,,,,,,,,,,,,,,,,,,,,,,,,,,,,,,,,,,,,,,,,,,,,,,
,,?,0.001545,0,,,,,,stimuli/images/PICTURE_215.png,LEADER,5f208d6e81732117f0e798da,12/08/1985,2020-08-13_07h03.09.665,proactive2,2020.1.2,Win32,60,5f341be081b9052c55068110,5f35290dda1ab047f931ee8f,4,,,,,,boot,,,,,,,,,,,5,2,0,23,23,43,1,,,,,,,,,,,,,,,,,,,,,,,,,,,,,,,,,,,,,,,,,,,,,,,,,,,,,,,,,,,,,,,,,,,,,,,,,,,,,,,,,,,,,,,,,,,,,,
,,?,0.00253,0,,,,,,stimuli/images/PICTURE_311.png,TOILET,5f208d6e81732117f0e798da,12/08/1985,2020-08-13_07h03.09.665,proactive2,2020.1.2,Win32,60,5f341be081b9052c55068110,5f35290dda1ab047f931ee8f,4,,,,,,razor,,,,,,,,,,,6,2,0,24,24,54,1,,,,,,,,,,,,,,,,,,,,,,,,,,,,,,,,,,,,,,,,,,,,,,,,,,,,,,,,,,,,,,,,,,,,,,,,,,,,,,,,,,,,,,,,,,,,,,
,,?,0.001625,0,,,,,,stimuli/images/PICTURE_654.png,YEAR,5f208d6e81732117f0e798da,12/08/1985,2020-08-13_07h03.09.665,proactive2,2020.1.2,Win32,60,5f341be081b9052c55068110,5f35290dda1ab047f931ee8f,4,,,,,,pencil,,,,,,,,,,,5,2,0,25,25,41,1,,,,,,,,,,,,,,,,,,,,,,,,,,,,,,,,,,,,,,,,,,,,,,,,,,,,,,,,,,,,,,,,,,,,,,,,,,,,,,,,,,,,,,,,,,,,,,
,,?,0.001845,0,,,,,,stimuli/images/PICTURE_677.png,FAMILY,5f208d6e81732117f0e798da,12/08/1985,2020-08-13_07h03.09.665,proactive2,2020.1.2,Win32,60,5f341be081b9052c55068110,5f35290dda1ab047f931ee8f,4,,,,,,map,,,,,,,,,,,6,2,0,26,26,53,1,,,,,,,,,,,,,,,,,,,,,,,,,,,,,,,,,,,,,,,,,,,,,,,,,,,,,,,,,,,,,,,,,,,,,,,,,,,,,,,,,,,,,,,,,,,,,,
,,?,0.002195,0,,,,,,stimuli/images/PICTURE_453.png,FAMILY,5f208d6e81732117f0e798da,12/08/1985,2020-08-13_07h03.09.665,proactive2,2020.1.2,Win32,60,5f341be081b9052c55068110,5f35290dda1ab047f931ee8f,4,,,,,,scissors,,,,,,,,,,,5,2,0,27,27,48,1,,,,,,,,,,,,,,,,,,,,,,,,,,,,,,,,,,,,,,,,,,,,,,,,,,,,,,,,,,,,,,,,,,,,,,,,,,,,,,,,,,,,,,,,,,,,,,
,,PHONE,6.229,0,,,,,,stimuli/images/PICTURE_509.png,APPLE,5f208d6e81732117f0e798da,12/08/1985,2020-08-13_07h03.09.665,proactive2,2020.1.2,Win32,60,5f341be081b9052c55068110,5f35290dda1ab047f931ee8f,4,,,,,,telephone,,,,,,,,,,,4,2,0,28,28,38,1,,,,,,,,,,,,,,,,,,,,,,,,,,,,,,,,,,,,,,,,,,,,,,,,,,,,,,,,,,,,,,,,,,,,,,,,,,,,,,,,,,,,,,,,,,,,,,
,,?,0.002545,0,,,,,,stimuli/images/PICTURE_160.png,HOTEL,5f208d6e81732117f0e798da,12/08/1985,2020-08-13_07h03.09.665,proactive2,2020.1.2,Win32,60,5f341be081b9052c55068110,5f35290dda1ab047f931ee8f,4,,,,,,wheelbarrow,,,,,,,,,,,2,2,0,29,29,16,1,,,,,,,,,,,,,,,,,,,,,,,,,,,,,,,,,,,,,,,,,,,,,,,,,,,,,,,,,,,,,,,,,,,,,,,,,,,,,,,,,,,,,,,,,,,,,,
,,?,0.001955,0,,,,,,stimuli/images/PICTURE_470.png,MOMENT,5f208d6e81732117f0e798da,12/08/1985,2020-08-13_07h03.09.665,proactive2,2020.1.2,Win32,60,5f341be081b9052c55068110,5f35290dda1ab047f931ee8f,4,,,,,,motorbike,,,,,,,,,,,5,2,0,30,30,40,1,,,,,,,,,,,,,,,,,,,,,,,,,,,,,,,,,,,,,,,,,,,,,,,,,,,,,,,,,,,,,,,,,,,,,,,,,,,,,,,,,,,,,,,,,,,,,,
,,?,0.002065,0,,,,,,stimuli/images/PICTURE_348.png,TOILET,5f208d6e81732117f0e798da,12/08/1985,2020-08-13_07h03.09.665,proactive2,2020.1.2,Win32,60,5f341be081b9052c55068110,5f35290dda1ab047f931ee8f,4,,,,,,pepper,,,,,,,,,,,1,2,0,31,31,4,1,,,,,,,,,,,,,,,,,,,,,,,,,,,,,,,,,,,,,,,,,,,,,,,,,,,,,,,,,,,,,,,,,,,,,,,,,,,,,,,,,,,,,,,,,,,,,,
,,?,0.0025,0,,,,,,stimuli/images/PICTURE_57.png,NATION,5f208d6e81732117f0e798da,12/08/1985,2020-08-13_07h03.09.665,proactive2,2020.1.2,Win32,60,5f341be081b9052c55068110,5f35290dda1ab047f931ee8f,4,,,,,,stamp,,,,,,,,,,,3,2,0,32,32,21,1,,,,,,,,,,,,,,,,,,,,,,,,,,,,,,,,,,,,,,,,,,,,,,,,,,,,,,,,,,,,,,,,,,,,,,,,,,,,,,,,,,,,,,,,,,,,,,
,,?,0.00221,0,,,,,,stimuli/images/PICTURE_2.png,YARD,5f208d6e81732117f0e798da,12/08/1985,2020-08-13_07h03.09.665,proactive2,2020.1.2,Win32,60,5f341be081b9052c55068110,5f35290dda1ab047f931ee8f,4,,,,,,tyre,,,,,,,,,,,6,2,0,33,33,55,1,,,,,,,,,,,,,,,,,,,,,,,,,,,,,,,,,,,,,,,,,,,,,,,,,,,,,,,,,,,,,,,,,,,,,,,,,,,,,,,,,,,,,,,,,,,,,,
,,?,0.002285,0,,,,,,stimuli/images/PICTURE_654.png,COPS,5f208d6e81732117f0e798da,12/08/1985,2020-08-13_07h03.09.665,proactive2,2020.1.2,Win32,60,5f341be081b9052c55068110,5f35290dda1ab047f931ee8f,4,,,,,,pencil,,,,,,,,,,,2,2,0,34,34,10,1,,,,,,,,,,,,,,,,,,,,,,,,,,,,,,,,,,,,,,,,,,,,,,,,,,,,,,,,,,,,,,,,,,,,,,,,,,,,,,,,,,,,,,,,,,,,,,
,,GIRL,4.32503,0,,,,,,stimuli/images/PICTURE_2.png,AREA,5f208d6e81732117f0e798da,12/08/1985,2020-08-13_07h03.09.665,proactive2,2020.1.2,Win32,60,5f341be081b9052c55068110,5f35290dda1ab047f931ee8f,4,,,,,,tyre,,,,,,,,,,,4,2,0,35,35,32,1,,,,,,,,,,,,,,,,,,,,,,,,,,,,,,,,,,,,,,,,,,,,,,,,,,,,,,,,,,,,,,,,,,,,,,,,,,,,,,,,,,,,,,,,,,,,,,
,,?,0.002635,0,,,,,,stimuli/images/PICTURE_215.png,FOOD,5f208d6e81732117f0e798da,12/08/1985,2020-08-13_07h03.09.665,proactive2,2020.1.2,Win32,60,5f341be081b9052c55068110,5f35290dda1ab047f931ee8f,4,,,,,,boot,,,,,,,,,,,1,2,0,36,36,5,1,,,,,,,,,,,,,,,,,,,,,,,,,,,,,,,,,,,,,,,,,,,,,,,,,,,,,,,,,,,,,,,,,,,,,,,,,,,,,,,,,,,,,,,,,,,,,,
,,?,0.002375,0,,,,,,stimuli/images/PICTURE_405.png,JUNGLE,5f208d6e81732117f0e798da,12/08/1985,2020-08-13_07h03.09.665,proactive2,2020.1.2,Win32,60,5f341be081b9052c55068110,5f35290dda1ab047f931ee8f,4,,,,,,anchor,,,,,,,,,,,6,2,0,37,37,58,1,,,,,,,,,,,,,,,,,,,,,,,,,,,,,,,,,,,,,,,,,,,,,,,,,,,,,,,,,,,,,,,,,,,,,,,,,,,,,,,,,,,,,,,,,,,,,,
,,?,0.003525,0,,,,,,stimuli/images/PICTURE_327.png,LEADER,5f208d6e81732117f0e798da,12/08/1985,2020-08-13_07h03.09.665,proactive2,2020.1.2,Win32,60,5f341be081b9052c55068110,5f35290dda1ab047f931ee8f,4,,,,,,helmet,,,,,,,,,,,2,2,0,38,38,17,1,,,,,,,,,,,,,,,,,,,,,,,,,,,,,,,,,,,,,,,,,,,,,,,,,,,,,,,,,,,,,,,,,,,,,,,,,,,,,,,,,,,,,,,,,,,,,,
,,?,0.00224,0,,,,,,stimuli/images/PICTURE_123.png,SALE,5f208d6e81732117f0e798da,12/08/1985,2020-08-13_07h03.09.665,proactive2,2020.1.2,Win32,60,5f341be081b9052c55068110,5f35290dda1ab047f931ee8f,4,,,,,,dart,,,,,,,,,,,1,2,0,39,39,8,1,,,,,,,,,,,,,,,,,,,,,,,,,,,,,,,,,,,,,,,,,,,,,,,,,,,,,,,,,,,,,,,,,,,,,,,,,,,,,,,,,,,,,,,,,,,,,,
,,?,0.00234,0,,,,,,stimuli/images/PICTURE_655.png,SALE,5f208d6e81732117f0e798da,12/08/1985,2020-08-13_07h03.09.665,proactive2,2020.1.2,Win32,60,5f341be081b9052c55068110,5f35290dda1ab047f931ee8f,4,,,,,,megaphone,,,,,,,,,,,6,2,0,40,40,57,1,,,,,,,,,,,,,,,,,,,,,,,,,,,,,,,,,,,,,,,,,,,,,,,,,,,,,,,,,,,,,,,,,,,,,,,,,,,,,,,,,,,,,,,,,,,,,,
,,BAG,3.39085,0,,,,,,stimuli/images/PICTURE_95.png,NIGHT,5f208d6e81732117f0e798da,12/08/1985,2020-08-13_07h03.09.665,proactive2,2020.1.2,Win32,60,5f341be081b9052c55068110,5f35290dda1ab047f931ee8f,4,,,,,,suitcase,,,,,,,,,,,4,2,0,41,41,37,1,,,,,,,,,,,,,,,,,,,,,,,,,,,,,,,,,,,,,,,,,,,,,,,,,,,,,,,,,,,,,,,,,,,,,,,,,,,,,,,,,,,,,,,,,,,,,,
,,?,0.00257,0,,,,,,stimuli/images/PICTURE_68.png,KIND,5f208d6e81732117f0e798da,12/08/1985,2020-08-13_07h03.09.665,proactive2,2020.1.2,Win32,60,5f341be081b9052c55068110,5f35290dda1ab047f931ee8f,4,,,,,,candle,,,,,,,,,,,3,2,0,42,42,23,1,,,,,,,,,,,,,,,,,,,,,,,,,,,,,,,,,,,,,,,,,,,,,,,,,,,,,,,,,,,,,,,,,,,,,,,,,,,,,,,,,,,,,,,,,,,,,,
,,?,0.002285,0,,,,,,stimuli/images/PICTURE_255.png,PENNY,5f208d6e81732117f0e798da,12/08/1985,2020-08-13_07h03.09.665,proactive2,2020.1.2,Win32,60,5f341be081b9052c55068110,5f35290dda1ab047f931ee8f,4,,,,,,shovel,,,,,,,,,,,2,2,0,43,43,19,1,,,,,,,,,,,,,,,,,,,,,,,,,,,,,,,,,,,,,,,,,,,,,,,,,,,,,,,,,,,,,,,,,,,,,,,,,,,,,,,,,,,,,,,,,,,,,,
,,?,0.003755,0,,,,,,stimuli/images/PICTURE_215.png,BOYS,5f208d6e81732117f0e798da,12/08/1985,2020-08-13_07h03.09.665,proactive2,2020.1.2,Win32,60,5f341be081b9052c55068110,5f35290dda1ab047f931ee8f,4,,,,,,boot,,,,,,,,,,,3,2,0,44,44,24,1,,,,,,,,,,,,,,,,,,,,,,,,,,,,,,,,,,,,,,,,,,,,,,,,,,,,,,,,,,,,,,,,,,,,,,,,,,,,,,,,,,,,,,,,,,,,,,
,,?,0.001925,0,,,,,,stimuli/images/PICTURE_2.png,JUNGLE,5f208d6e81732117f0e798da,12/08/1985,2020-08-13_07h03.09.665,proactive2,2020.1.2,Win32,60,5f341be081b9052c55068110,5f35290dda1ab047f931ee8f,4,,,,,,tyre,,,,,,,,,,,1,2,0,45,45,1,1,,,,,,,,,,,,,,,,,,,,,,,,,,,,,,,,,,,,,,,,,,,,,,,,,,,,,,,,,,,,,,,,,,,,,,,,,,,,,,,,,,,,,,,,,,,,,,
,,AREA,3.336565,0,,,,,,stimuli/images/PICTURE_147.png,LEADER,5f208d6e81732117f0e798da,12/08/1985,2020-08-13_07h03.09.665,proactive2,2020.1.2,Win32,60,5f341be081b9052c55068110,5f35290dda1ab047f931ee8f,4,,,,,,hanger,,,,,,,,,,,4,2,0,46,46,33,1,,,,,,,,,,,,,,,,,,,,,,,,,,,,,,,,,,,,,,,,,,,,,,,,,,,,,,,,,,,,,,,,,,,,,,,,,,,,,,,,,,,,,,,,,,,,,,
,,?,0.002145,0,,,,,,stimuli/images/PICTURE_57.png,CASINO,5f208d6e81732117f0e798da,12/08/1985,2020-08-13_07h03.09.665,proactive2,2020.1.2,Win32,60,5f341be081b9052c55068110,5f35290dda1ab047f931ee8f,4,,,,,,stamp,,,,,,,,,,,2,2,0,47,47,12,1,,,,,,,,,,,,,,,,,,,,,,,,,,,,,,,,,,,,,,,,,,,,,,,,,,,,,,,,,,,,,,,,,,,,,,,,,,,,,,,,,,,,,,,,,,,,,,
,,?,0.00189,0,,,,,,stimuli/images/PICTURE_32.png,LETTER,5f208d6e81732117f0e798da,12/08/1985,2020-08-13_07h03.09.665,proactive2,2020.1.2,Win32,60,5f341be081b9052c55068110,5f35290dda1ab047f931ee8f,4,,,,,,crown,,,,,,,,,,,6,2,0,48,48,56,1,,,,,,,,,,,,,,,,,,,,,,,,,,,,,,,,,,,,,,,,,,,,,,,,,,,,,,,,,,,,,,,,,,,,,,,,,,,,,,,,,,,,,,,,,,,,,,
,,?,0.002595,0,,,,,,stimuli/images/PICTURE_285.png,PRINCE,5f208d6e81732117f0e798da,12/08/1985,2020-08-13_07h03.09.665,proactive2,2020.1.2,Win32,60,5f341be081b9052c55068110,5f35290dda1ab047f931ee8f,4,,,,,,carrot,,,,,,,,,,,3,2,0,49,49,20,1,,,,,,,,,,,,,,,,,,,,,,,,,,,,,,,,,,,,,,,,,,,,,,,,,,,,,,,,,,,,,,,,,,,,,,,,,,,,,,,,,,,,,,,,,,,,,,
,,?,0.00223,0,,,,,,stimuli/images/PICTURE_692.png,DUDE,5f208d6e81732117f0e798da,12/08/1985,2020-08-13_07h03.09.665,proactive2,2020.1.2,Win32,60,5f341be081b9052c55068110,5f35290dda1ab047f931ee8f,4,,,,,,cherry,,,,,,,,,,,5,2,0,50,50,47,1,,,,,,,,,,,,,,,,,,,,,,,,,,,,,,,,,,,,,,,,,,,,,,,,,,,,,,,,,,,,,,,,,,,,,,,,,,,,,,,,,,,,,,,,,,,,,,
,,?,0.002055,0,,,,,,stimuli/images/PICTURE_297.png,BODY,5f208d6e81732117f0e798da,12/08/1985,2020-08-13_07h03.09.665,proactive2,2020.1.2,Win32,60,5f341be081b9052c55068110,5f35290dda1ab047f931ee8f,4,,,,,,aeroplane,,,,,,,,,,,6,2,0,51,51,51,1,,,,,,,,,,,,,,,,,,,,,,,,,,,,,,,,,,,,,,,,,,,,,,,,,,,,,,,,,,,,,,,,,,,,,,,,,,,,,,,,,,,,,,,,,,,,,,
,,?,0.00252,0,,,,,,stimuli/images/PICTURE_667.png,GLASS,5f208d6e81732117f0e798da,12/08/1985,2020-08-13_07h03.09.665,proactive2,2020.1.2,Win32,60,5f341be081b9052c55068110,5f35290dda1ab047f931ee8f,4,,,,,,daisy,,,,,,,,,,,3,2,0,52,52,27,1,,,,,,,,,,,,,,,,,,,,,,,,,,,,,,,,,,,,,,,,,,,,,,,,,,,,,,,,,,,,,,,,,,,,,,,,,,,,,,,,,,,,,,,,,,,,,,
,,?,0.002605,0,,,,,,stimuli/images/PICTURE_509.png,BATH,5f208d6e81732117f0e798da,12/08/1985,2020-08-13_07h03.09.665,proactive2,2020.1.2,Win32,60,5f341be081b9052c55068110,5f35290dda1ab047f931ee8f,4,,,,,,telephone,,,,,,,,,,,2,2,0,53,53,15,1,,,,,,,,,,,,,,,,,,,,,,,,,,,,,,,,,,,,,,,,,,,,,,,,,,,,,,,,,,,,,,,,,,,,,,,,,,,,,,,,,,,,,,,,,,,,,,
,,GIRL,3.902125,1,,,,,,stimuli/images/PICTURE_93.png,GIRL,5f208d6e81732117f0e798da,12/08/1985,2020-08-13_07h03.09.665,proactive2,2020.1.2,Win32,60,5f341be081b9052c55068110,5f35290dda1ab047f931ee8f,4,,,,,,skateboard,,,,,,,,,,,4,2,0,54,54,31,1,,,,,,,,,,,,,,,,,,,,,,,,,,,,,,,,,,,,,,,,,,,,,,,,,,,,,,,,,,,,,,,,,,,,,,,,,,,,,,,,,,,,,,,,,,,,,,
,,?,0.002245,0,,,,,,stimuli/images/PICTURE_208.png,SPIRIT,5f208d6e81732117f0e798da,12/08/1985,2020-08-13_07h03.09.665,proactive2,2020.1.2,Win32,60,5f341be081b9052c55068110,5f35290dda1ab047f931ee8f,4,,,,,,microphone,,,,,,,,,,,3,2,0,55,55,28,1,,,,,,,,,,,,,,,,,,,,,,,,,,,,,,,,,,,,,,,,,,,,,,,,,,,,,,,,,,,,,,,,,,,,,,,,,,,,,,,,,,,,,,,,,,,,,,
,,?,0.002455,0,,,,,,stimuli/images/PICTURE_564.png,PLENTY,5f208d6e81732117f0e798da,12/08/1985,2020-08-13_07h03.09.665,proactive2,2020.1.2,Win32,60,5f341be081b9052c55068110,5f35290dda1ab047f931ee8f,4,,,,,,spoon,,,,,,,,,,,2,2,0,56,56,11,1,,,,,,,,,,,,,,,,,,,,,,,,,,,,,,,,,,,,,,,,,,,,,,,,,,,,,,,,,,,,,,,,,,,,,,,,,,,,,,,,,,,,,,,,,,,,,,
,,FLOWER,3.981065,0,,,,,,stimuli/images/PICTURE_141.png,CLIENT,5f208d6e81732117f0e798da,12/08/1985,2020-08-13_07h03.09.665,proactive2,2020.1.2,Win32,60,5f341be081b9052c55068110,5f35290dda1ab047f931ee8f,4,,,,,,sunflower,,,,,,,,,,,4,2,0,57,57,30,1,,,,,,,,,,,,,,,,,,,,,,,,,,,,,,,,,,,,,,,,,,,,,,,,,,,,,,,,,,,,,,,,,,,,,,,,,,,,,,,,,,,,,,,,,,,,,,
,,?,0.002185,0,,,,,,stimuli/images/PICTURE_750.png,POLICY,5f208d6e81732117f0e798da,12/08/1985,2020-08-13_07h03.09.665,proactive2,2020.1.2,Win32,60,5f341be081b9052c55068110,5f35290dda1ab047f931ee8f,4,,,,,,kettle,,,,,,,,,,,5,2,0,58,58,44,1,,,,,,,,,,,,,,,,,,,,,,,,,,,,,,,,,,,,,,,,,,,,,,,,,,,,,,,,,,,,,,,,,,,,,,,,,,,,,,,,,,,,,,,,,,,,,,
,,BOTTLE,3.373525,0,,,,,,stimuli/images/PICTURE_314.png,SPEECH,5f208d6e81732117f0e798da,12/08/1985,2020-08-13_07h03.09.665,proactive2,2020.1.2,Win32,60,5f341be081b9052c55068110,5f35290dda1ab047f931ee8f,4,,,,,,perfume,,,,,,,,,,,4,2,0,59,59,35,1,,,,,,,,,,,,,,,,,,,,,,,,,,,,,,,,,,,,,,,,,,,,,,,,,,,,,,,,,,,,,,,,,,,,,,,,,,,,,,,,,,,,,,,,,,,,,,
,,,,,,,,,,,,5f208d6e81732117f0e798da,12/08/1985,2020-08-13_07h03.09.665,proactive2,2020.1.2,Win32,60,5f341be081b9052c55068110,5f35290dda1ab047f931ee8f,4,,,,,,,,,,,,,,,,,,,,,,,,0,0,0,2,1,stimuli/learn-block3.csv,,,,,,,,,,,,,,,,,,,,,,,,,,,,,,,,,,,,,,,,,,,,,,,,,,,,,,,,,,,,,,,,,,,,,,,,,,,,,,,,,,,,,,,,
,,,,,,,,,,stimuli/images/PICTURE_248.png,DOZEN,5f208d6e81732117f0e798da,12/08/1985,2020-08-13_07h03.09.665,proactive2,2020.1.2,Win32,60,5f341be081b9052c55068110,5f35290dda1ab047f931ee8f,4,,,,,,cart,,,,,,0,0,0,39,1,4,0,,,,,,,,,,,,,,,,,,,,,,,,,,,,,,,,,,,,,,,,,,,,,,,,,,,,,,,,,,,,,,,,,,,,,,,,,,,,,,,,,,,,,,,,,,,,,,,,,,,
,,,,,,,,,,stimuli/images/PICTURE_147.png,MOMENT,5f208d6e81732117f0e798da,12/08/1985,2020-08-13_07h03.09.665,proactive2,2020.1.2,Win32,60,5f341be081b9052c55068110,5f35290dda1ab047f931ee8f,4,,,,,,hanger,,,,,,0,1,1,51,1,6,0,,,,,,,,,,,,,,,,,,,,,,,,,,,,,,,,,,,,,,,,,,,,,,,,,,,,,,,,,,,,,,,,,,,,,,,,,,,,,,,,,,,,,,,,,,,,,,,,,,,
,,,,,,,,,,stimuli/images/PICTURE_32.png,JUNGLE,5f208d6e81732117f0e798da,12/08/1985,2020-08-13_07h03.09.665,proactive2,2020.1.2,Win32,60,5f341be081b9052c55068110,5f35290dda1ab047f931ee8f,4,,,,,,crown,,,,,,0,2,2,45,1,5,0,,,,,,,,,,,,,,,,,,,,,,,,,,,,,,,,,,,,,,,,,,,,,,,,,,,,,,,,,,,,,,,,,,,,,,,,,,,,,,,,,,,,,,,,,,,,,,,,,,,
,,,,,,,,,,stimuli/images/PICTURE_488.png,STYLE,5f208d6e81732117f0e798da,12/08/1985,2020-08-13_07h03.09.665,proactive2,2020.1.2,Win32,60,5f341be081b9052c55068110,5f35290dda1ab047f931ee8f,4,,,,,,sun,,,,,,0,3,3,33,1,4,0,,,,,,,,,,,,,,,,,,,,,,,,,,,,,,,,,,,,,,,,,,,,,,,,,,,,,,,,,,,,,,,,,,,,,,,,,,,,,,,,,,,,,,,,,,,,,,,,,,,
,,,,,,,,,,stimuli/images/PICTURE_453.png,PLENTY,5f208d6e81732117f0e798da,12/08/1985,2020-08-13_07h03.09.665,proactive2,2020.1.2,Win32,60,5f341be081b9052c55068110,5f35290dda1ab047f931ee8f,4,,,,,,scissors,,,,,,0,4,4,56,1,6,0,,,,,,,,,,,,,,,,,,,,,,,,,,,,,,,,,,,,,,,,,,,,,,,,,,,,,,,,,,,,,,,,,,,,,,,,,,,,,,,,,,,,,,,,,,,,,,,,,,,
,,,,,,,,,,stimuli/images/PICTURE_208.png,MONTH,5f208d6e81732117f0e798da,12/08/1985,2020-08-13_07h03.09.665,proactive2,2020.1.2,Win32,60,5f341be081b9052c55068110,5f35290dda1ab047f931ee8f,4,,,,,,microphone,,,,,,0,5,5,53,1,6,0,,,,,,,,,,,,,,,,,,,,,,,,,,,,,,,,,,,,,,,,,,,,,,,,,,,,,,,,,,,,,,,,,,,,,,,,,,,,,,,,,,,,,,,,,,,,,,,,,,,
,,,,,,,,,,stimuli/images/PICTURE_469.png,LETTER,5f208d6e81732117f0e798da,12/08/1985,2020-08-13_07h03.09.665,proactive2,2020.1.2,Win32,60,5f341be081b9052c55068110,5f35290dda1ab047f931ee8f,4,,,,,,stool,,,,,,0,6,6,42,1,5,0,,,,,,,,,,,,,,,,,,,,,,,,,,,,,,,,,,,,,,,,,,,,,,,,,,,,,,,,,,,,,,,,,,,,,,,,,,,,,,,,,,,,,,,,,,,,,,,,,,,
,,,,,,,,,,stimuli/images/PICTURE_708.png,PENNY,5f208d6e81732117f0e798da,12/08/1985,2020-08-13_07h03.09.665,proactive2,2020.1.2,Win32,60,5f341be081b9052c55068110,5f35290dda1ab047f931ee8f,4,,,,,,monkey,,,,,,0,7,7,31,1,4,0,,,,,,,,,,,,,,,,,,,,,,,,,,,,,,,,,,,,,,,,,,,,,,,,,,,,,,,,,,,,,,,,,,,,,,,,,,,,,,,,,,,,,,,,,,,,,,,,,,,
,,,,,,,,,,stimuli/images/PICTURE_233.png,IDEAS,5f208d6e81732117f0e798da,12/08/1985,2020-08-13_07h03.09.665,proactive2,2020.1.2,Win32,60,5f341be081b9052c55068110,5f35290dda1ab047f931ee8f,4,,,,,,salt,,,,,,0,8,8,28,1,3,0,,,,,,,,,,,,,,,,,,,,,,,,,,,,,,,,,,,,,,,,,,,,,,,,,,,,,,,,,,,,,,,,,,,,,,,,,,,,,,,,,,,,,,,,,,,,,,,,,,,
,,,,,,,,,,stimuli/images/PICTURE_339.png,PLENTY,5f208d6e81732117f0e798da,12/08/1985,2020-08-13_07h03.09.665,proactive2,2020.1.2,Win32,60,5f341be081b9052c55068110,5f35290dda1ab047f931ee8f,4,,,,,,backpack,,,,,,0,9,9,0,1,1,0,,,,,,,,,,,,,,,,,,,,,,,,,,,,,,,,,,,,,,,,,,,,,,,,,,,,,,,,,,,,,,,,,,,,,,,,,,,,,,,,,,,,,,,,,,,,,,,,,,,
,,,,,,,,,,stimuli/images/PICTURE_744.png,SAKE,5f208d6e81732117f0e798da,12/08/1985,2020-08-13_07h03.09.665,proactive2,2020.1.2,Win32,60,5f341be081b9052c55068110,5f35290dda1ab047f931ee8f,4,,,,,,ring,,,,,,0,10,10,17,1,2,0,,,,,,,,,,,,,,,,,,,,,,,,,,,,,,,,,,,,,,,,,,,,,,,,,,,,,,,,,,,,,,,,,,,,,,,,,,,,,,,,,,,,,,,,,,,,,,,,,,,
,,,,,,,,,,stimuli/images/PICTURE_95.png,STYLE,5f208d6e81732117f0e798da,12/08/1985,2020-08-13_07h03.09.665,proactive2,2020.1.2,Win32,60,5f341be081b9052c55068110,5f35290dda1ab047f931ee8f,4,,,,,,suitcase,,,,,,0,11,11,25,1,3,0,,,,,,,,,,,,,,,,,,,,,,,,,,,,,,,,,,,,,,,,,,,,,,,,,,,,,,,,,,,,,,,,,,,,,,,,,,,,,,,,,,,,,,,,,,,,,,,,,,,
,,,,,,,,,,stimuli/images/PICTURE_311.png,FRIEND,5f208d6e81732117f0e798da,12/08/1985,2020-08-13_07h03.09.665,proactive2,2020.1.2,Win32,60,5f341be081b9052c55068110,5f35290dda1ab047f931ee8f,4,,,,,,razor,,,,,,0,12,12,34,1,4,0,,,,,,,,,,,,,,,,,,,,,,,,,,,,,,,,,,,,,,,,,,,,,,,,,,,,,,,,,,,,,,,,,,,,,,,,,,,,,,,,,,,,,,,,,,,,,,,,,,,
,,,,,,,,,,stimuli/images/PICTURE_449.png,THING,5f208d6e81732117f0e798da,12/08/1985,2020-08-13_07h03.09.665,proactive2,2020.1.2,Win32,60,5f341be081b9052c55068110,5f35290dda1ab047f931ee8f,4,,,,,,bench,,,,,,0,13,13,59,1,6,0,,,,,,,,,,,,,,,,,,,,,,,,,,,,,,,,,,,,,,,,,,,,,,,,,,,,,,,,,,,,,,,,,,,,,,,,,,,,,,,,,,,,,,,,,,,,,,,,,,,
,,,,,,,,,,stimuli/images/PICTURE_453.png,DUDE,5f208d6e81732117f0e798da,12/08/1985,2020-08-13_07h03.09.665,proactive2,2020.1.2,Win32,60,5f341be081b9052c55068110,5f35290dda1ab047f931ee8f,4,,,,,,scissors,,,,,,0,14,14,27,1,3,0,,,,,,,,,,,,,,,,,,,,,,,,,,,,,,,,,,,,,,,,,,,,,,,,,,,,,,,,,,,,,,,,,,,,,,,,,,,,,,,,,,,,,,,,,,,,,,,,,,,
,,,,,,,,,,stimuli/images/PICTURE_708.png,CLIENT,5f208d6e81732117f0e798da,12/08/1985,2020-08-13_07h03.09.665,proactive2,2020.1.2,Win32,60,5f341be081b9052c55068110,5f35290dda1ab047f931ee8f,4,,,,,,monkey,,,,,,0,15,15,5,1,1,0,,,,,,,,,,,,,,,,,,,,,,,,,,,,,,,,,,,,,,,,,,,,,,,,,,,,,,,,,,,,,,,,,,,,,,,,,,,,,,,,,,,,,,,,,,,,,,,,,,,
,,,,,,,,,,stimuli/images/PICTURE_491.png,WRITER,5f208d6e81732117f0e798da,12/08/1985,2020-08-13_07h03.09.665,proactive2,2020.1.2,Win32,60,5f341be081b9052c55068110,5f35290dda1ab047f931ee8f,4,,,,,,rug,,,,,,0,16,16,57,1,6,0,,,,,,,,,,,,,,,,,,,,,,,,,,,,,,,,,,,,,,,,,,,,,,,,,,,,,,,,,,,,,,,,,,,,,,,,,,,,,,,,,,,,,,,,,,,,,,,,,,,
,,,,,,,,,,stimuli/images/PICTURE_470.png,CASINO,5f208d6e81732117f0e798da,12/08/1985,2020-08-13_07h03.09.665,proactive2,2020.1.2,Win32,60,5f341be081b9052c55068110,5f35290dda1ab047f931ee8f,4,,,,,,motorbike,,,,,,0,17,17,36,1,4,0,,,,,,,,,,,,,,,,,,,,,,,,,,,,,,,,,,,,,,,,,,,,,,,,,,,,,,,,,,,,,,,,,,,,,,,,,,,,,,,,,,,,,,,,,,,,,,,,,,,
,,,,,,,,,,stimuli/images/PICTURE_215.png,PLENTY,5f208d6e81732117f0e798da,12/08/1985,2020-08-13_07h03.09.665,proactive2,2020.1.2,Win32,60,5f341be081b9052c55068110,5f35290dda1ab047f931ee8f,4,,,,,,boot,,,,,,0,18,18,37,1,4,0,,,,,,,,,,,,,,,,,,,,,,,,,,,,,,,,,,,,,,,,,,,,,,,,,,,,,,,,,,,,,,,,,,,,,,,,,,,,,,,,,,,,,,,,,,,,,,,,,,,
,,,,,,,,,,stimuli/images/PICTURE_654.png,VALLEY,5f208d6e81732117f0e798da,12/08/1985,2020-08-13_07h03.09.665,proactive2,2020.1.2,Win32,60,5f341be081b9052c55068110,5f35290dda1ab047f931ee8f,4,,,,,,pencil,,,,,,0,19,19,1,1,1,0,,,,,,,,,,,,,,,,,,,,,,,,,,,,,,,,,,,,,,,,,,,,,,,,,,,,,,,,,,,,,,,,,,,,,,,,,,,,,,,,,,,,,,,,,,,,,,,,,,,
,,,,,,,,,,stimuli/images/PICTURE_314.png,SAKE,5f208d6e81732117f0e798da,12/08/1985,2020-08-13_07h03.09.665,proactive2,2020.1.2,Win32,60,5f341be081b9052c55068110,5f35290dda1ab047f931ee8f,4,,,,,,perfume,,,,,,0,20,20,7,1,1,0,,,,,,,,,,,,,,,,,,,,,,,,,,,,,,,,,,,,,,,,,,,,,,,,,,,,,,,,,,,,,,,,,,,,,,,,,,,,,,,,,,,,,,,,,,,,,,,,,,,
,,,,,,,,,,stimuli/images/PICTURE_160.png,LEADER,5f208d6e81732117f0e798da,12/08/1985,2020-08-13_07h03.09.665,proactive2,2020.1.2,Win32,60,5f341be081b9052c55068110,5f35290dda1ab047f931ee8f,4,,,,,,wheelbarrow,,,,,,0,21,21,3,1,1,0,,,,,,,,,,,,,,,,,,,,,,,,,,,,,,,,,,,,,,,,,,,,,,,,,,,,,,,,,,,,,,,,,,,,,,,,,,,,,,,,,,,,,,,,,,,,,,,,,,,
,,,,,,,,,,stimuli/images/PICTURE_151.png,GIRL,5f208d6e81732117f0e798da,12/08/1985,2020-08-13_07h03.09.665,proactive2,2020.1.2,Win32,60,5f341be081b9052c55068110,5f35290dda1ab047f931ee8f,4,,,,,,tray,,,,,,0,22,22,19,1,2,0,,,,,,,,,,,,,,,,,,,,,,,,,,,,,,,,,,,,,,,,,,,,,,,,,,,,,,,,,,,,,,,,,,,,,,,,,,,,,,,,,,,,,,,,,,,,,,,,,,,
,,,,,,,,,,stimuli/images/PICTURE_487.png,FLIGHT,5f208d6e81732117f0e798da,12/08/1985,2020-08-13_07h03.09.665,proactive2,2020.1.2,Win32,60,5f341be081b9052c55068110,5f35290dda1ab047f931ee8f,4,,,,,,basket,,,,,,0,23,23,9,1,1,0,,,,,,,,,,,,,,,,,,,,,,,,,,,,,,,,,,,,,,,,,,,,,,,,,,,,,,,,,,,,,,,,,,,,,,,,,,,,,,,,,,,,,,,,,,,,,,,,,,,
,,,,,,,,,,stimuli/images/PICTURE_285.png,ADVICE,5f208d6e81732117f0e798da,12/08/1985,2020-08-13_07h03.09.665,proactive2,2020.1.2,Win32,60,5f341be081b9052c55068110,5f35290dda1ab047f931ee8f,4,,,,,,carrot,,,,,,0,24,24,12,1,2,0,,,,,,,,,,,,,,,,,,,,,,,,,,,,,,,,,,,,,,,,,,,,,,,,,,,,,,,,,,,,,,,,,,,,,,,,,,,,,,,,,,,,,,,,,,,,,,,,,,,
,,,,,,,,,,stimuli/images/PICTURE_667.png,BATH,5f208d6e81732117f0e798da,12/08/1985,2020-08-13_07h03.09.665,proactive2,2020.1.2,Win32,60,5f341be081b9052c55068110,5f35290dda1ab047f931ee8f,4,,,,,,daisy,,,,,,0,25,25,4,1,1,0,,,,,,,,,,,,,,,,,,,,,,,,,,,,,,,,,,,,,,,,,,,,,,,,,,,,,,,,,,,,,,,,,,,,,,,,,,,,,,,,,,,,,,,,,,,,,,,,,,,
,,,,,,,,,,stimuli/images/PICTURE_233.png,WOMEN,5f208d6e81732117f0e798da,12/08/1985,2020-08-13_07h03.09.665,proactive2,2020.1.2,Win32,60,5f341be081b9052c55068110,5f35290dda1ab047f931ee8f,4,,,,,,salt,,,,,,0,26,26,38,1,4,0,,,,,,,,,,,,,,,,,,,,,,,,,,,,,,,,,,,,,,,,,,,,,,,,,,,,,,,,,,,,,,,,,,,,,,,,,,,,,,,,,,,,,,,,,,,,,,,,,,,
,,,,,,,,,,stimuli/images/PICTURE_667.png,PLENTY,5f208d6e81732117f0e798da,12/08/1985,2020-08-13_07h03.09.665,proactive2,2020.1.2,Win32,60,5f341be081b9052c55068110,5f35290dda1ab047f931ee8f,4,,,,,,daisy,,,,,,0,27,27,41,1,5,0,,,,,,,,,,,,,,,,,,,,,,,,,,,,,,,,,,,,,,,,,,,,,,,,,,,,,,,,,,,,,,,,,,,,,,,,,,,,,,,,,,,,,,,,,,,,,,,,,,,
,,,,,,,,,,stimuli/images/PICTURE_692.png,MONTH,5f208d6e81732117f0e798da,12/08/1985,2020-08-13_07h03.09.665,proactive2,2020.1.2,Win32,60,5f341be081b9052c55068110,5f35290dda1ab047f931ee8f,4,,,,,,cherry,,,,,,0,28,28,16,1,2,0,,,,,,,,,,,,,,,,,,,,,,,,,,,,,,,,,,,,,,,,,,,,,,,,,,,,,,,,,,,,,,,,,,,,,,,,,,,,,,,,,,,,,,,,,,,,,,,,,,,
,,,,,,,,,,stimuli/images/PICTURE_302.png,FAMILY,5f208d6e81732117f0e798da,12/08/1985,2020-08-13_07h03.09.665,proactive2,2020.1.2,Win32,60,5f341be081b9052c55068110,5f35290dda1ab047f931ee8f,4,,,,,,taxi,,,,,,0,29,29,18,1,2,0,,,,,,,,,,,,,,,,,,,,,,,,,,,,,,,,,,,,,,,,,,,,,,,,,,,,,,,,,,,,,,,,,,,,,,,,,,,,,,,,,,,,,,,,,,,,,,,,,,,
,,,,,,,,,,stimuli/images/PICTURE_744.png,SYSTEM,5f208d6e81732117f0e798da,12/08/1985,2020-08-13_07h03.09.665,proactive2,2020.1.2,Win32,60,5f341be081b9052c55068110,5f35290dda1ab047f931ee8f,4,,,,,,ring,,,,,,0,30,30,43,1,5,0,,,,,,,,,,,,,,,,,,,,,,,,,,,,,,,,,,,,,,,,,,,,,,,,,,,,,,,,,,,,,,,,,,,,,,,,,,,,,,,,,,,,,,,,,,,,,,,,,,,
,,,,,,,,,,stimuli/images/PICTURE_380.png,PHOTO,5f208d6e81732117f0e798da,12/08/1985,2020-08-13_07h03.09.665,proactive2,2020.1.2,Win32,60,5f341be081b9052c55068110,5f35290dda1ab047f931ee8f,4,,,,,,gorilla,,,,,,0,31,31,52,1,6,0,,,,,,,,,,,,,,,,,,,,,,,,,,,,,,,,,,,,,,,,,,,,,,,,,,,,,,,,,,,,,,,,,,,,,,,,,,,,,,,,,,,,,,,,,,,,,,,,,,,
,,,,,,,,,,stimuli/images/PICTURE_208.png,LOTS,5f208d6e81732117f0e798da,12/08/1985,2020-08-13_07h03.09.665,proactive2,2020.1.2,Win32,60,5f341be081b9052c55068110,5f35290dda1ab047f931ee8f,4,,,,,,microphone,,,,,,0,32,32,10,1,2,0,,,,,,,,,,,,,,,,,,,,,,,,,,,,,,,,,,,,,,,,,,,,,,,,,,,,,,,,,,,,,,,,,,,,,,,,,,,,,,,,,,,,,,,,,,,,,,,,,,,
,,,,,,,,,,stimuli/images/PICTURE_708.png,YARD,5f208d6e81732117f0e798da,12/08/1985,2020-08-13_07h03.09.665,proactive2,2020.1.2,Win32,60,5f341be081b9052c55068110,5f35290dda1ab047f931ee8f,4,,,,,,monkey,,,,,,0,33,33,29,1,3,0,,,,,,,,,,,,,,,,,,,,,,,,,,,,,,,,,,,,,,,,,,,,,,,,,,,,,,,,,,,,,,,,,,,,,,,,,,,,,,,,,,,,,,,,,,,,,,,,,,,
,,,,,,,,,,stimuli/images/PICTURE_504.png,BODY,5f208d6e81732117f0e798da,12/08/1985,2020-08-13_07h03.09.665,proactive2,2020.1.2,Win32,60,5f341be081b9052c55068110,5f35290dda1ab047f931ee8f,4,,,,,,wheel,,,,,,0,34,34,8,1,1,0,,,,,,,,,,,,,,,,,,,,,,,,,,,,,,,,,,,,,,,,,,,,,,,,,,,,,,,,,,,,,,,,,,,,,,,,,,,,,,,,,,,,,,,,,,,,,,,,,,,
,,,,,,,,,,stimuli/images/PICTURE_314.png,GODS,5f208d6e81732117f0e798da,12/08/1985,2020-08-13_07h03.09.665,proactive2,2020.1.2,Win32,60,5f341be081b9052c55068110,5f35290dda1ab047f931ee8f,4,,,,,,perfume,,,,,,0,35,35,11,1,2,0,,,,,,,,,,,,,,,,,,,,,,,,,,,,,,,,,,,,,,,,,,,,,,,,,,,,,,,,,,,,,,,,,,,,,,,,,,,,,,,,,,,,,,,,,,,,,,,,,,,
,,,,,,,,,,stimuli/images/PICTURE_308.png,KIND,5f208d6e81732117f0e798da,12/08/1985,2020-08-13_07h03.09.665,proactive2,2020.1.2,Win32,60,5f341be081b9052c55068110,5f35290dda1ab047f931ee8f,4,,,,,,dice,,,,,,0,36,36,54,1,6,0,,,,,,,,,,,,,,,,,,,,,,,,,,,,,,,,,,,,,,,,,,,,,,,,,,,,,,,,,,,,,,,,,,,,,,,,,,,,,,,,,,,,,,,,,,,,,,,,,,,
,,,,,,,,,,stimuli/images/PICTURE_68.png,MILE,5f208d6e81732117f0e798da,12/08/1985,2020-08-13_07h03.09.665,proactive2,2020.1.2,Win32,60,5f341be081b9052c55068110,5f35290dda1ab047f931ee8f,4,,,,,,candle,,,,,,0,37,37,44,1,5,0,,,,,,,,,,,,,,,,,,,,,,,,,,,,,,,,,,,,,,,,,,,,,,,,,,,,,,,,,,,,,,,,,,,,,,,,,,,,,,,,,,,,,,,,,,,,,,,,,,,
,,,,,,,,,,stimuli/images/PICTURE_675.png,WEAPON,5f208d6e81732117f0e798da,12/08/1985,2020-08-13_07h03.09.665,proactive2,2020.1.2,Win32,60,5f341be081b9052c55068110,5f35290dda1ab047f931ee8f,4,,,,,,windmill,,,,,,0,38,38,32,1,4,0,,,,,,,,,,,,,,,,,,,,,,,,,,,,,,,,,,,,,,,,,,,,,,,,,,,,,,,,,,,,,,,,,,,,,,,,,,,,,,,,,,,,,,,,,,,,,,,,,,,
,,,,,,,,,,stimuli/images/PICTURE_348.png,SPEECH,5f208d6e81732117f0e798da,12/08/1985,2020-08-13_07h03.09.665,proactive2,2020.1.2,Win32,60,5f341be081b9052c55068110,5f35290dda1ab047f931ee8f,4,,,,,,pepper,,,,,,0,39,39,20,1,3,0,,,,,,,,,,,,,,,,,,,,,,,,,,,,,,,,,,,,,,,,,,,,,,,,,,,,,,,,,,,,,,,,,,,,,,,,,,,,,,,,,,,,,,,,,,,,,,,,,,,
,,,,,,,,,,stimuli/images/PICTURE_208.png,THING,5f208d6e81732117f0e798da,12/08/1985,2020-08-13_07h03.09.665,proactive2,2020.1.2,Win32,60,5f341be081b9052c55068110,5f35290dda1ab047f931ee8f,4,,,,,,microphone,,,,,,0,40,40,47,1,5,0,,,,,,,,,,,,,,,,,,,,,,,,,,,,,,,,,,,,,,,,,,,,,,,,,,,,,,,,,,,,,,,,,,,,,,,,,,,,,,,,,,,,,,,,,,,,,,,,,,,
,,,,,,,,,,stimuli/images/PICTURE_509.png,PHOTO,5f208d6e81732117f0e798da,12/08/1985,2020-08-13_07h03.09.665,proactive2,2020.1.2,Win32,60,5f341be081b9052c55068110,5f35290dda1ab047f931ee8f,4,,,,,,telephone,,,,,,0,41,41,21,1,3,0,,,,,,,,,,,,,,,,,,,,,,,,,,,,,,,,,,,,,,,,,,,,,,,,,,,,,,,,,,,,,,,,,,,,,,,,,,,,,,,,,,,,,,,,,,,,,,,,,,,
,,,,,,,,,,stimuli/images/PICTURE_327.png,BEAUTY,5f208d6e81732117f0e798da,12/08/1985,2020-08-13_07h03.09.665,proactive2,2020.1.2,Win32,60,5f341be081b9052c55068110,5f35290dda1ab047f931ee8f,4,,,,,,helmet,,,,,,0,42,42,48,1,5,0,,,,,,,,,,,,,,,,,,,,,,,,,,,,,,,,,,,,,,,,,,,,,,,,,,,,,,,,,,,,,,,,,,,,,,,,,,,,,,,,,,,,,,,,,,,,,,,,,,,
,,,,,,,,,,stimuli/images/PICTURE_123.png,ADVICE,5f208d6e81732117f0e798da,12/08/1985,2020-08-13_07h03.09.665,proactive2,2020.1.2,Win32,60,5f341be081b9052c55068110,5f35290dda1ab047f931ee8f,4,,,,,,dart,,,,,,0,43,43,40,1,5,0,,,,,,,,,,,,,,,,,,,,,,,,,,,,,,,,,,,,,,,,,,,,,,,,,,,,,,,,,,,,,,,,,,,,,,,,,,,,,,,,,,,,,,,,,,,,,,,,,,,
,,,,,,,,,,stimuli/images/PICTURE_380.png,DEATH,5f208d6e81732117f0e798da,12/08/1985,2020-08-13_07h03.09.665,proactive2,2020.1.2,Win32,60,5f341be081b9052c55068110,5f35290dda1ab047f931ee8f,4,,,,,,gorilla,,,,,,0,44,44,49,1,5,0,,,,,,,,,,,,,,,,,,,,,,,,,,,,,,,,,,,,,,,,,,,,,,,,,,,,,,,,,,,,,,,,,,,,,,,,,,,,,,,,,,,,,,,,,,,,,,,,,,,
,,,,,,,,,,stimuli/images/PICTURE_160.png,FEET,5f208d6e81732117f0e798da,12/08/1985,2020-08-13_07h03.09.665,proactive2,2020.1.2,Win32,60,5f341be081b9052c55068110,5f35290dda1ab047f931ee8f,4,,,,,,wheelbarrow,,,,,,0,45,45,58,1,6,0,,,,,,,,,,,,,,,,,,,,,,,,,,,,,,,,,,,,,,,,,,,,,,,,,,,,,,,,,,,,,,,,,,,,,,,,,,,,,,,,,,,,,,,,,,,,,,,,,,,
,,,,,,,,,,stimuli/images/PICTURE_688.png,CASINO,5f208d6e81732117f0e798da,12/08/1985,2020-08-13_07h03.09.665,proactive2,2020.1.2,Win32,60,5f341be081b9052c55068110,5f35290dda1ab047f931ee8f,4,,,,,,runner,,,,,,0,46,46,2,1,1,0,,,,,,,,,,,,,,,,,,,,,,,,,,,,,,,,,,,,,,,,,,,,,,,,,,,,,,,,,,,,,,,,,,,,,,,,,,,,,,,,,,,,,,,,,,,,,,,,,,,
,,,,,,,,,,stimuli/images/PICTURE_203.png,ARTIST,5f208d6e81732117f0e798da,12/08/1985,2020-08-13_07h03.09.665,proactive2,2020.1.2,Win32,60,5f341be081b9052c55068110,5f35290dda1ab047f931ee8f,4,,,,,,cap,,,,,,0,47,47,26,1,3,0,,,,,,,,,,,,,,,,,,,,,,,,,,,,,,,,,,,,,,,,,,,,,,,,,,,,,,,,,,,,,,,,,,,,,,,,,,,,,,,,,,,,,,,,,,,,,,,,,,,
,,,,,,,,,,stimuli/images/PICTURE_469.png,ARTIST,5f208d6e81732117f0e798da,12/08/1985,2020-08-13_07h03.09.665,proactive2,2020.1.2,Win32,60,5f341be081b9052c55068110,5f35290dda1ab047f931ee8f,4,,,,,,stool,,,,,,0,48,48,6,1,1,0,,,,,,,,,,,,,,,,,,,,,,,,,,,,,,,,,,,,,,,,,,,,,,,,,,,,,,,,,,,,,,,,,,,,,,,,,,,,,,,,,,,,,,,,,,,,,,,,,,,
,,,,,,,,,,stimuli/images/PICTURE_356.png,DANGER,5f208d6e81732117f0e798da,12/08/1985,2020-08-13_07h03.09.665,proactive2,2020.1.2,Win32,60,5f341be081b9052c55068110,5f35290dda1ab047f931ee8f,4,,,,,,pawn,,,,,,0,49,49,55,1,6,0,,,,,,,,,,,,,,,,,,,,,,,,,,,,,,,,,,,,,,,,,,,,,,,,,,,,,,,,,,,,,,,,,,,,,,,,,,,,,,,,,,,,,,,,,,,,,,,,,,,
,,,,,,,,,,stimuli/images/PICTURE_311.png,BEAUTY,5f208d6e81732117f0e798da,12/08/1985,2020-08-13_07h03.09.665,proactive2,2020.1.2,Win32,60,5f341be081b9052c55068110,5f35290dda1ab047f931ee8f,4,,,,,,razor,,,,,,0,50,50,13,1,2,0,,,,,,,,,,,,,,,,,,,,,,,,,,,,,,,,,,,,,,,,,,,,,,,,,,,,,,,,,,,,,,,,,,,,,,,,,,,,,,,,,,,,,,,,,,,,,,,,,,,
,,,,,,,,,,stimuli/images/PICTURE_177.png,CARS,5f208d6e81732117f0e798da,12/08/1985,2020-08-13_07h03.09.665,proactive2,2020.1.2,Win32,60,5f341be081b9052c55068110,5f35290dda1ab047f931ee8f,4,,,,,,mushroom,,,,,,0,51,51,35,1,4,0,,,,,,,,,,,,,,,,,,,,,,,,,,,,,,,,,,,,,,,,,,,,,,,,,,,,,,,,,,,,,,,,,,,,,,,,,,,,,,,,,,,,,,,,,,,,,,,,,,,
,,,,,,,,,,stimuli/images/PICTURE_123.png,ADVICE,5f208d6e81732117f0e798da,12/08/1985,2020-08-13_07h03.09.665,proactive2,2020.1.2,Win32,60,5f341be081b9052c55068110,5f35290dda1ab047f931ee8f,4,,,,,,dart,,,,,,0,52,52,50,1,6,0,,,,,,,,,,,,,,,,,,,,,,,,,,,,,,,,,,,,,,,,,,,,,,,,,,,,,,,,,,,,,,,,,,,,,,,,,,,,,,,,,,,,,,,,,,,,,,,,,,,
,,,,,,,,,,stimuli/images/PICTURE_688.png,WOMEN,5f208d6e81732117f0e798da,12/08/1985,2020-08-13_07h03.09.665,proactive2,2020.1.2,Win32,60,5f341be081b9052c55068110,5f35290dda1ab047f931ee8f,4,,,,,,runner,,,,,,0,53,53,14,1,2,0,,,,,,,,,,,,,,,,,,,,,,,,,,,,,,,,,,,,,,,,,,,,,,,,,,,,,,,,,,,,,,,,,,,,,,,,,,,,,,,,,,,,,,,,,,,,,,,,,,,
,,,,,,,,,,stimuli/images/PICTURE_255.png,AREA,5f208d6e81732117f0e798da,12/08/1985,2020-08-13_07h03.09.665,proactive2,2020.1.2,Win32,60,5f341be081b9052c55068110,5f35290dda1ab047f931ee8f,4,,,,,,shovel,,,,,,0,54,54,22,1,3,0,,,,,,,,,,,,,,,,,,,,,,,,,,,,,,,,,,,,,,,,,,,,,,,,,,,,,,,,,,,,,,,,,,,,,,,,,,,,,,,,,,,,,,,,,,,,,,,,,,,
,,,,,,,,,,stimuli/images/PICTURE_491.png,ROOF,5f208d6e81732117f0e798da,12/08/1985,2020-08-13_07h03.09.665,proactive2,2020.1.2,Win32,60,5f341be081b9052c55068110,5f35290dda1ab047f931ee8f,4,,,,,,rug,,,,,,0,55,55,24,1,3,0,,,,,,,,,,,,,,,,,,,,,,,,,,,,,,,,,,,,,,,,,,,,,,,,,,,,,,,,,,,,,,,,,,,,,,,,,,,,,,,,,,,,,,,,,,,,,,,,,,,
,,,,,,,,,,stimuli/images/PICTURE_677.png,MILE,5f208d6e81732117f0e798da,12/08/1985,2020-08-13_07h03.09.665,proactive2,2020.1.2,Win32,60,5f341be081b9052c55068110,5f35290dda1ab047f931ee8f,4,,,,,,map,,,,,,0,56,56,30,1,4,0,,,,,,,,,,,,,,,,,,,,,,,,,,,,,,,,,,,,,,,,,,,,,,,,,,,,,,,,,,,,,,,,,,,,,,,,,,,,,,,,,,,,,,,,,,,,,,,,,,,
,,,,,,,,,,stimuli/images/PICTURE_308.png,ESTATE,5f208d6e81732117f0e798da,12/08/1985,2020-08-13_07h03.09.665,proactive2,2020.1.2,Win32,60,5f341be081b9052c55068110,5f35290dda1ab047f931ee8f,4,,,,,,dice,,,,,,0,57,57,46,1,5,0,,,,,,,,,,,,,,,,,,,,,,,,,,,,,,,,,,,,,,,,,,,,,,,,,,,,,,,,,,,,,,,,,,,,,,,,,,,,,,,,,,,,,,,,,,,,,,,,,,,
,,,,,,,,,,stimuli/images/PICTURE_467.png,DEMON,5f208d6e81732117f0e798da,12/08/1985,2020-08-13_07h03.09.665,proactive2,2020.1.2,Win32,60,5f341be081b9052c55068110,5f35290dda1ab047f931ee8f,4,,,,,,peg,,,,,,0,58,58,23,1,3,0,,,,,,,,,,,,,,,,,,,,,,,,,,,,,,,,,,,,,,,,,,,,,,,,,,,,,,,,,,,,,,,,,,,,,,,,,,,,,,,,,,,,,,,,,,,,,,,,,,,
,,?,0.002735,0,,,,,,stimuli/images/PICTURE_308.png,KIND,5f208d6e81732117f0e798da,12/08/1985,2020-08-13_07h03.09.665,proactive2,2020.1.2,Win32,60,5f341be081b9052c55068110,5f35290dda1ab047f931ee8f,4,,,,,,dice,,,,,,,,,,,6,0,0,0,0,54,1,,,,,,,,,,,,,,,,,,,,,,,,,,,,,,,,,,,,,,,,,,,,,,,,,,,,,,,,,,,,,,,,,,,,,,,,,,,,,,,,,,,,,,,,,,,,,,
,,?,0.002415,0,,,,,,stimuli/images/PICTURE_32.png,JUNGLE,5f208d6e81732117f0e798da,12/08/1985,2020-08-13_07h03.09.665,proactive2,2020.1.2,Win32,60,5f341be081b9052c55068110,5f35290dda1ab047f931ee8f,4,,,,,,crown,,,,,,,,,,,5,0,0,1,1,45,1,,,,,,,,,,,,,,,,,,,,,,,,,,,,,,,,,,,,,,,,,,,,,,,,,,,,,,,,,,,,,,,,,,,,,,,,,,,,,,,,,,,,,,,,,,,,,,
,,MILE,5.406365,1,,,,,,stimuli/images/PICTURE_677.png,MILE,5f208d6e81732117f0e798da,12/08/1985,2020-08-13_07h03.09.665,proactive2,2020.1.2,Win32,60,5f341be081b9052c55068110,5f35290dda1ab047f931ee8f,4,,,,,,map,,,,,,,,,,,4,0,0,2,2,30,1,,,,,,,,,,,,,,,,,,,,,,,,,,,,,,,,,,,,,,,,,,,,,,,,,,,,,,,,,,,,,,,,,,,,,,,,,,,,,,,,,,,,,,,,,,,,,,
,,DOZEN,7.32823,1,,,,,,stimuli/images/PICTURE_248.png,DOZEN,5f208d6e81732117f0e798da,12/08/1985,2020-08-13_07h03.09.665,proactive2,2020.1.2,Win32,60,5f341be081b9052c55068110,5f35290dda1ab047f931ee8f,4,,,,,,cart,,,,,,,,,,,4,0,0,3,3,39,1,,,,,,,,,,,,,,,,,,,,,,,,,,,,,,,,,,,,,,,,,,,,,,,,,,,,,,,,,,,,,,,,,,,,,,,,,,,,,,,,,,,,,,,,,,,,,,
,,?,0.00209,0,,,,,,stimuli/images/PICTURE_233.png,IDEAS,5f208d6e81732117f0e798da,12/08/1985,2020-08-13_07h03.09.665,proactive2,2020.1.2,Win32,60,5f341be081b9052c55068110,5f35290dda1ab047f931ee8f,4,,,,,,salt,,,,,,,,,,,3,0,0,4,4,28,1,,,,,,,,,,,,,,,,,,,,,,,,,,,,,,,,,,,,,,,,,,,,,,,,,,,,,,,,,,,,,,,,,,,,,,,,,,,,,,,,,,,,,,,,,,,,,,
,,?,0.002285,0,,,,,,stimuli/images/PICTURE_314.png,SAKE,5f208d6e81732117f0e798da,12/08/1985,2020-08-13_07h03.09.665,proactive2,2020.1.2,Win32,60,5f341be081b9052c55068110,5f35290dda1ab047f931ee8f,4,,,,,,perfume,,,,,,,,,,,1,0,0,5,5,7,1,,,,,,,,,,,,,,,,,,,,,,,,,,,,,,,,,,,,,,,,,,,,,,,,,,,,,,,,,,,,,,,,,,,,,,,,,,,,,,,,,,,,,,,,,,,,,,
,,?,0.002225,0,,,,,,stimuli/images/PICTURE_327.png,BEAUTY,5f208d6e81732117f0e798da,12/08/1985,2020-08-13_07h03.09.665,proactive2,2020.1.2,Win32,60,5f341be081b9052c55068110,5f35290dda1ab047f931ee8f,4,,,,,,helmet,,,,,,,,,,,5,0,0,6,6,48,1,,,,,,,,,,,,,,,,,,,,,,,,,,,,,,,,,,,,,,,,,,,,,,,,,,,,,,,,,,,,,,,,,,,,,,,,,,,,,,,,,,,,,,,,,,,,,,
,,?,0.002145,0,,,,,,stimuli/images/PICTURE_491.png,WRITER,5f208d6e81732117f0e798da,12/08/1985,2020-08-13_07h03.09.665,proactive2,2020.1.2,Win32,60,5f341be081b9052c55068110,5f35290dda1ab047f931ee8f,4,,,,,,rug,,,,,,,,,,,6,0,0,7,7,57,1,,,,,,,,,,,,,,,,,,,,,,,,,,,,,,,,,,,,,,,,,,,,,,,,,,,,,,,,,,,,,,,,,,,,,,,,,,,,,,,,,,,,,,,,,,,,,,
,,?,0.001615,0,,,,,,stimuli/images/PICTURE_255.png,AREA,5f208d6e81732117f0e798da,12/08/1985,2020-08-13_07h03.09.665,proactive2,2020.1.2,Win32,60,5f341be081b9052c55068110,5f35290dda1ab047f931ee8f,4,,,,,,shovel,,,,,,,,,,,3,0,0,8,8,22,1,,,,,,,,,,,,,,,,,,,,,,,,,,,,,,,,,,,,,,,,,,,,,,,,,,,,,,,,,,,,,,,,,,,,,,,,,,,,,,,,,,,,,,,,,,,,,,
,,?,0.00153,0,,,,,,stimuli/images/PICTURE_285.png,ADVICE,5f208d6e81732117f0e798da,12/08/1985,2020-08-13_07h03.09.665,proactive2,2020.1.2,Win32,60,5f341be081b9052c55068110,5f35290dda1ab047f931ee8f,4,,,,,,carrot,,,,,,,,,,,2,0,0,9,9,12,1,,,,,,,,,,,,,,,,,,,,,,,,,,,,,,,,,,,,,,,,,,,,,,,,,,,,,,,,,,,,,,,,,,,,,,,,,,,,,,,,,,,,,,,,,,,,,,
,,?,0.001795,0,,,,,,stimuli/images/PICTURE_491.png,ROOF,5f208d6e81732117f0e798da,12/08/1985,2020-08-13_07h03.09.665,proactive2,2020.1.2,Win32,60,5f341be081b9052c55068110,5f35290dda1ab047f931ee8f,4,,,,,,rug,,,,,,,,,,,3,0,0,10,10,24,1,,,,,,,,,,,,,,,,,,,,,,,,,,,,,,,,,,,,,,,,,,,,,,,,,,,,,,,,,,,,,,,,,,,,,,,,,,,,,,,,,,,,,,,,,,,,,,
,,?,0.002535,0,,,,,,stimuli/images/PICTURE_688.png,CASINO,5f208d6e81732117f0e798da,12/08/1985,2020-08-13_07h03.09.665,proactive2,2020.1.2,Win32,60,5f341be081b9052c55068110,5f35290dda1ab047f931ee8f,4,,,,,,runner,,,,,,,,,,,1,0,0,11,11,2,1,,,,,,,,,,,,,,,,,,,,,,,,,,,,,,,,,,,,,,,,,,,,,,,,,,,,,,,,,,,,,,,,,,,,,,,,,,,,,,,,,,,,,,,,,,,,,,
,,?,0.00212,0,,,,,,stimuli/images/PICTURE_449.png,THING,5f208d6e81732117f0e798da,12/08/1985,2020-08-13_07h03.09.665,proactive2,2020.1.2,Win32,60,5f341be081b9052c55068110,5f35290dda1ab047f931ee8f,4,,,,,,bench,,,,,,,,,,,6,0,0,12,12,59,1,,,,,,,,,,,,,,,,,,,,,,,,,,,,,,,,,,,,,,,,,,,,,,,,,,,,,,,,,,,,,,,,,,,,,,,,,,,,,,,,,,,,,,,,,,,,,,
,,CARS,4.12478,1,,,,,,stimuli/images/PICTURE_177.png,CARS,5f208d6e81732117f0e798da,12/08/1985,2020-08-13_07h03.09.665,proactive2,2020.1.2,Win32,60,5f341be081b9052c55068110,5f35290dda1ab047f931ee8f,4,,,,,,mushroom,,,,,,,,,,,4,0,0,13,13,35,1,,,,,,,,,,,,,,,,,,,,,,,,,,,,,,,,,,,,,,,,,,,,,,,,,,,,,,,,,,,,,,,,,,,,,,,,,,,,,,,,,,,,,,,,,,,,,,
,,?,0.001845,0,,,,,,stimuli/images/PICTURE_467.png,DEMON,5f208d6e81732117f0e798da,12/08/1985,2020-08-13_07h03.09.665,proactive2,2020.1.2,Win32,60,5f341be081b9052c55068110,5f35290dda1ab047f931ee8f,4,,,,,,peg,,,,,,,,,,,3,0,0,14,14,23,1,,,,,,,,,,,,,,,,,,,,,,,,,,,,,,,,,,,,,,,,,,,,,,,,,,,,,,,,,,,,,,,,,,,,,,,,,,,,,,,,,,,,,,,,,,,,,,
,,?,0.00158,0,,,,,,stimuli/images/PICTURE_348.png,SPEECH,5f208d6e81732117f0e798da,12/08/1985,2020-08-13_07h03.09.665,proactive2,2020.1.2,Win32,60,5f341be081b9052c55068110,5f35290dda1ab047f931ee8f,4,,,,,,pepper,,,,,,,,,,,3,0,0,15,15,20,1,,,,,,,,,,,,,,,,,,,,,,,,,,,,,,,,,,,,,,,,,,,,,,,,,,,,,,,,,,,,,,,,,,,,,,,,,,,,,,,,,,,,,,,,,,,,,,
,,?,0.001765,0,,,,,,stimuli/images/PICTURE_147.png,MOMENT,5f208d6e81732117f0e798da,12/08/1985,2020-08-13_07h03.09.665,proactive2,2020.1.2,Win32,60,5f341be081b9052c55068110,5f35290dda1ab047f931ee8f,4,,,,,,hanger,,,,,,,,,,,6,0,0,16,16,51,1,,,,,,,,,,,,,,,,,,,,,,,,,,,,,,,,,,,,,,,,,,,,,,,,,,,,,,,,,,,,,,,,,,,,,,,,,,,,,,,,,,,,,,,,,,,,,,
,,?,0.00286,0,,,,,,stimuli/images/PICTURE_339.png,PLENTY,5f208d6e81732117f0e798da,12/08/1985,2020-08-13_07h03.09.665,proactive2,2020.1.2,Win32,60,5f341be081b9052c55068110,5f35290dda1ab047f931ee8f,4,,,,,,backpack,,,,,,,,,,,1,0,0,17,17,0,1,,,,,,,,,,,,,,,,,,,,,,,,,,,,,,,,,,,,,,,,,,,,,,,,,,,,,,,,,,,,,,,,,,,,,,,,,,,,,,,,,,,,,,,,,,,,,,
,,?,0.00241,0,,,,,,stimuli/images/PICTURE_208.png,THING,5f208d6e81732117f0e798da,12/08/1985,2020-08-13_07h03.09.665,proactive2,2020.1.2,Win32,60,5f341be081b9052c55068110,5f35290dda1ab047f931ee8f,4,,,,,,microphone,,,,,,,,,,,5,0,0,18,18,47,1,,,,,,,,,,,,,,,,,,,,,,,,,,,,,,,,,,,,,,,,,,,,,,,,,,,,,,,,,,,,,,,,,,,,,,,,,,,,,,,,,,,,,,,,,,,,,,
,,?,0.002525,0,,,,,,stimuli/images/PICTURE_123.png,ADVICE,5f208d6e81732117f0e798da,12/08/1985,2020-08-13_07h03.09.665,proactive2,2020.1.2,Win32,60,5f341be081b9052c55068110,5f35290dda1ab047f931ee8f,4,,,,,,dart,,,,,,,,,,,6,0,0,19,19,50,1,,,,,,,,,,,,,,,,,,,,,,,,,,,,,,,,,,,,,,,,,,,,,,,,,,,,,,,,,,,,,,,,,,,,,,,,,,,,,,,,,,,,,,,,,,,,,,
,,?,0.00211,0,,,,,,stimuli/images/PICTURE_123.png,ADVICE,5f208d6e81732117f0e798da,12/08/1985,2020-08-13_07h03.09.665,proactive2,2020.1.2,Win32,60,5f341be081b9052c55068110,5f35290dda1ab047f931ee8f,4,,,,,,dart,,,,,,,,,,,5,0,0,20,20,40,1,,,,,,,,,,,,,,,,,,,,,,,,,,,,,,,,,,,,,,,,,,,,,,,,,,,,,,,,,,,,,,,,,,,,,,,,,,,,,,,,,,,,,,,,,,,,,,
,,?,0.00146,0,,,,,,stimuli/images/PICTURE_208.png,MONTH,5f208d6e81732117f0e798da,12/08/1985,2020-08-13_07h03.09.665,proactive2,2020.1.2,Win32,60,5f341be081b9052c55068110,5f35290dda1ab047f931ee8f,4,,,,,,microphone,,,,,,,,,,,6,0,0,21,21,53,1,,,,,,,,,,,,,,,,,,,,,,,,,,,,,,,,,,,,,,,,,,,,,,,,,,,,,,,,,,,,,,,,,,,,,,,,,,,,,,,,,,,,,,,,,,,,,,
,,?,0.001565,0,,,,,,stimuli/images/PICTURE_302.png,FAMILY,5f208d6e81732117f0e798da,12/08/1985,2020-08-13_07h03.09.665,proactive2,2020.1.2,Win32,60,5f341be081b9052c55068110,5f35290dda1ab047f931ee8f,4,,,,,,taxi,,,,,,,,,,,2,0,0,22,22,18,1,,,,,,,,,,,,,,,,,,,,,,,,,,,,,,,,,,,,,,,,,,,,,,,,,,,,,,,,,,,,,,,,,,,,,,,,,,,,,,,,,,,,,,,,,,,,,,
,,?,0.001695,0,,,,,,stimuli/images/PICTURE_68.png,MILE,5f208d6e81732117f0e798da,12/08/1985,2020-08-13_07h03.09.665,proactive2,2020.1.2,Win32,60,5f341be081b9052c55068110,5f35290dda1ab047f931ee8f,4,,,,,,candle,,,,,,,,,,,5,0,0,23,23,44,1,,,,,,,,,,,,,,,,,,,,,,,,,,,,,,,,,,,,,,,,,,,,,,,,,,,,,,,,,,,,,,,,,,,,,,,,,,,,,,,,,,,,,,,,,,,,,,
,,?,0.0025,0,,,,,,stimuli/images/PICTURE_708.png,YARD,5f208d6e81732117f0e798da,12/08/1985,2020-08-13_07h03.09.665,proactive2,2020.1.2,Win32,60,5f341be081b9052c55068110,5f35290dda1ab047f931ee8f,4,,,,,,monkey,,,,,,,,,,,3,0,0,24,24,29,1,,,,,,,,,,,,,,,,,,,,,,,,,,,,,,,,,,,,,,,,,,,,,,,,,,,,,,,,,,,,,,,,,,,,,,,,,,,,,,,,,,,,,,,,,,,,,,
,,WEAPON,5.339405,1,,,,,,stimuli/images/PICTURE_675.png,WEAPON,5f208d6e81732117f0e798da,12/08/1985,2020-08-13_07h03.09.665,proactive2,2020.1.2,Win32,60,5f341be081b9052c55068110,5f35290dda1ab047f931ee8f,4,,,,,,windmill,,,,,,,,,,,4,0,0,25,25,32,1,,,,,,,,,,,,,,,,,,,,,,,,,,,,,,,,,,,,,,,,,,,,,,,,,,,,,,,,,,,,,,,,,,,,,,,,,,,,,,,,,,,,,,,,,,,,,,
,,?,0.00218,0,,,,,,stimuli/images/PICTURE_504.png,BODY,5f208d6e81732117f0e798da,12/08/1985,2020-08-13_07h03.09.665,proactive2,2020.1.2,Win32,60,5f341be081b9052c55068110,5f35290dda1ab047f931ee8f,4,,,,,,wheel,,,,,,,,,,,1,0,0,26,26,8,1,,,,,,,,,,,,,,,,,,,,,,,,,,,,,,,,,,,,,,,,,,,,,,,,,,,,,,,,,,,,,,,,,,,,,,,,,,,,,,,,,,,,,,,,,,,,,,
,,?,0.001825,0,,,,,,stimuli/images/PICTURE_744.png,SAKE,5f208d6e81732117f0e798da,12/08/1985,2020-08-13_07h03.09.665,proactive2,2020.1.2,Win32,60,5f341be081b9052c55068110,5f35290dda1ab047f931ee8f,4,,,,,,ring,,,,,,,,,,,2,0,0,27,27,17,1,,,,,,,,,,,,,,,,,,,,,,,,,,,,,,,,,,,,,,,,,,,,,,,,,,,,,,,,,,,,,,,,,,,,,,,,,,,,,,,,,,,,,,,,,,,,,,
,,?,0.002215,0,,,,,,stimuli/images/PICTURE_509.png,PHOTO,5f208d6e81732117f0e798da,12/08/1985,2020-08-13_07h03.09.665,proactive2,2020.1.2,Win32,60,5f341be081b9052c55068110,5f35290dda1ab047f931ee8f,4,,,,,,telephone,,,,,,,,,,,3,0,0,28,28,21,1,,,,,,,,,,,,,,,,,,,,,,,,,,,,,,,,,,,,,,,,,,,,,,,,,,,,,,,,,,,,,,,,,,,,,,,,,,,,,,,,,,,,,,,,,,,,,,
,,?,0.001535,0,,,,,,stimuli/images/PICTURE_688.png,WOMEN,5f208d6e81732117f0e798da,12/08/1985,2020-08-13_07h03.09.665,proactive2,2020.1.2,Win32,60,5f341be081b9052c55068110,5f35290dda1ab047f931ee8f,4,,,,,,runner,,,,,,,,,,,2,0,0,29,29,14,1,,,,,,,,,,,,,,,,,,,,,,,,,,,,,,,,,,,,,,,,,,,,,,,,,,,,,,,,,,,,,,,,,,,,,,,,,,,,,,,,,,,,,,,,,,,,,,
,,?,0.00162,0,,,,,,stimuli/images/PICTURE_453.png,DUDE,5f208d6e81732117f0e798da,12/08/1985,2020-08-13_07h03.09.665,proactive2,2020.1.2,Win32,60,5f341be081b9052c55068110,5f35290dda1ab047f931ee8f,4,,,,,,scissors,,,,,,,,,,,3,0,0,30,30,27,1,,,,,,,,,,,,,,,,,,,,,,,,,,,,,,,,,,,,,,,,,,,,,,,,,,,,,,,,,,,,,,,,,,,,,,,,,,,,,,,,,,,,,,,,,,,,,,
,,?,0.0019,0,,,,,,stimuli/images/PICTURE_744.png,SYSTEM,5f208d6e81732117f0e798da,12/08/1985,2020-08-13_07h03.09.665,proactive2,2020.1.2,Win32,60,5f341be081b9052c55068110,5f35290dda1ab047f931ee8f,4,,,,,,ring,,,,,,,,,,,5,0,0,31,31,43,1,,,,,,,,,,,,,,,,,,,,,,,,,,,,,,,,,,,,,,,,,,,,,,,,,,,,,,,,,,,,,,,,,,,,,,,,,,,,,,,,,,,,,,,,,,,,,,
,,?,0.00207,0,,,,,,stimuli/images/PICTURE_380.png,DEATH,5f208d6e81732117f0e798da,12/08/1985,2020-08-13_07h03.09.665,proactive2,2020.1.2,Win32,60,5f341be081b9052c55068110,5f35290dda1ab047f931ee8f,4,,,,,,gorilla,,,,,,,,,,,5,0,0,32,32,49,1,,,,,,,,,,,,,,,,,,,,,,,,,,,,,,,,,,,,,,,,,,,,,,,,,,,,,,,,,,,,,,,,,,,,,,,,,,,,,,,,,,,,,,,,,,,,,,
,,WOMEN,5.266895,1,,,,,,stimuli/images/PICTURE_233.png,WOMEN,5f208d6e81732117f0e798da,12/08/1985,2020-08-13_07h03.09.665,proactive2,2020.1.2,Win32,60,5f341be081b9052c55068110,5f35290dda1ab047f931ee8f,4,,,,,,salt,,,,,,,,,,,4,0,0,33,33,38,1,,,,,,,,,,,,,,,,,,,,,,,,,,,,,,,,,,,,,,,,,,,,,,,,,,,,,,,,,,,,,,,,,,,,,,,,,,,,,,,,,,,,,,,,,,,,,,
,,?,0.002135,0,,,,,,stimuli/images/PICTURE_469.png,ARTIST,5f208d6e81732117f0e798da,12/08/1985,2020-08-13_07h03.09.665,proactive2,2020.1.2,Win32,60,5f341be081b9052c55068110,5f35290dda1ab047f931ee8f,4,,,,,,stool,,,,,,,,,,,1,0,0,34,34,6,1,,,,,,,,,,,,,,,,,,,,,,,,,,,,,,,,,,,,,,,,,,,,,,,,,,,,,,,,,,,,,,,,,,,,,,,,,,,,,,,,,,,,,,,,,,,,,,
,,?,0.002025,0,,,,,,stimuli/images/PICTURE_151.png,GIRL,5f208d6e81732117f0e798da,12/08/1985,2020-08-13_07h03.09.665,proactive2,2020.1.2,Win32,60,5f341be081b9052c55068110,5f35290dda1ab047f931ee8f,4,,,,,,tray,,,,,,,,,,,2,0,0,35,35,19,1,,,,,,,,,,,,,,,,,,,,,,,,,,,,,,,,,,,,,,,,,,,,,,,,,,,,,,,,,,,,,,,,,,,,,,,,,,,,,,,,,,,,,,,,,,,,,,
,,?,0.00203,0,,,,,,stimuli/images/PICTURE_692.png,MONTH,5f208d6e81732117f0e798da,12/08/1985,2020-08-13_07h03.09.665,proactive2,2020.1.2,Win32,60,5f341be081b9052c55068110,5f35290dda1ab047f931ee8f,4,,,,,,cherry,,,,,,,,,,,2,0,0,36,36,16,1,,,,,,,,,,,,,,,,,,,,,,,,,,,,,,,,,,,,,,,,,,,,,,,,,,,,,,,,,,,,,,,,,,,,,,,,,,,,,,,,,,,,,,,,,,,,,,
,,?,0.00204,0,,,,,,stimuli/images/PICTURE_208.png,LOTS,5f208d6e81732117f0e798da,12/08/1985,2020-08-13_07h03.09.665,proactive2,2020.1.2,Win32,60,5f341be081b9052c55068110,5f35290dda1ab047f931ee8f,4,,,,,,microphone,,,,,,,,,,,2,0,0,37,37,10,1,,,,,,,,,,,,,,,,,,,,,,,,,,,,,,,,,,,,,,,,,,,,,,,,,,,,,,,,,,,,,,,,,,,,,,,,,,,,,,,,,,,,,,,,,,,,,,
,,?,0.001965,0,,,,,,stimuli/images/PICTURE_667.png,BATH,5f208d6e81732117f0e798da,12/08/1985,2020-08-13_07h03.09.665,proactive2,2020.1.2,Win32,60,5f341be081b9052c55068110,5f35290dda1ab047f931ee8f,4,,,,,,daisy,,,,,,,,,,,1,0,0,38,38,4,1,,,,,,,,,,,,,,,,,,,,,,,,,,,,,,,,,,,,,,,,,,,,,,,,,,,,,,,,,,,,,,,,,,,,,,,,,,,,,,,,,,,,,,,,,,,,,,
,,PLENTY,4.817155,1,,,,,,stimuli/images/PICTURE_215.png,PLENTY,5f208d6e81732117f0e798da,12/08/1985,2020-08-13_07h03.09.665,proactive2,2020.1.2,Win32,60,5f341be081b9052c55068110,5f35290dda1ab047f931ee8f,4,,,,,,boot,,,,,,,,,,,4,0,0,39,39,37,1,,,,,,,,,,,,,,,,,,,,,,,,,,,,,,,,,,,,,,,,,,,,,,,,,,,,,,,,,,,,,,,,,,,,,,,,,,,,,,,,,,,,,,,,,,,,,,
,,?,0.00202,0,,,,,,stimuli/images/PICTURE_314.png,GODS,5f208d6e81732117f0e798da,12/08/1985,2020-08-13_07h03.09.665,proactive2,2020.1.2,Win32,60,5f341be081b9052c55068110,5f35290dda1ab047f931ee8f,4,,,,,,perfume,,,,,,,,,,,2,0,0,40,40,11,1,,,,,,,,,,,,,,,,,,,,,,,,,,,,,,,,,,,,,,,,,,,,,,,,,,,,,,,,,,,,,,,,,,,,,,,,,,,,,,,,,,,,,,,,,,,,,,
,,?,0.00261,0,,,,,,stimuli/images/PICTURE_380.png,PHOTO,5f208d6e81732117f0e798da,12/08/1985,2020-08-13_07h03.09.665,proactive2,2020.1.2,Win32,60,5f341be081b9052c55068110,5f35290dda1ab047f931ee8f,4,,,,,,gorilla,,,,,,,,,,,6,0,0,41,41,52,1,,,,,,,,,,,,,,,,,,,,,,,,,,,,,,,,,,,,,,,,,,,,,,,,,,,,,,,,,,,,,,,,,,,,,,,,,,,,,,,,,,,,,,,,,,,,,,
,,CASINO,4.44951,1,,,,,,stimuli/images/PICTURE_470.png,CASINO,5f208d6e81732117f0e798da,12/08/1985,2020-08-13_07h03.09.665,proactive2,2020.1.2,Win32,60,5f341be081b9052c55068110,5f35290dda1ab047f931ee8f,4,,,,,,motorbike,,,,,,,,,,,4,0,0,42,42,36,1,,,,,,,,,,,,,,,,,,,,,,,,,,,,,,,,,,,,,,,,,,,,,,,,,,,,,,,,,,,,,,,,,,,,,,,,,,,,,,,,,,,,,,,,,,,,,,
,,?,0.001955,0,,,,,,stimuli/images/PICTURE_708.png,CLIENT,5f208d6e81732117f0e798da,12/08/1985,2020-08-13_07h03.09.665,proactive2,2020.1.2,Win32,60,5f341be081b9052c55068110,5f35290dda1ab047f931ee8f,4,,,,,,monkey,,,,,,,,,,,1,0,0,43,43,5,1,,,,,,,,,,,,,,,,,,,,,,,,,,,,,,,,,,,,,,,,,,,,,,,,,,,,,,,,,,,,,,,,,,,,,,,,,,,,,,,,,,,,,,,,,,,,,,
,,STYLE,6.25435,1,,,,,,stimuli/images/PICTURE_488.png,STYLE,5f208d6e81732117f0e798da,12/08/1985,2020-08-13_07h03.09.665,proactive2,2020.1.2,Win32,60,5f341be081b9052c55068110,5f35290dda1ab047f931ee8f,4,,,,,,sun,,,,,,,,,,,4,0,0,44,44,33,1,,,,,,,,,,,,,,,,,,,,,,,,,,,,,,,,,,,,,,,,,,,,,,,,,,,,,,,,,,,,,,,,,,,,,,,,,,,,,,,,,,,,,,,,,,,,,,
,,FRIEND,10.921525,1,,,,,,stimuli/images/PICTURE_311.png,FRIEND,5f208d6e81732117f0e798da,12/08/1985,2020-08-13_07h03.09.665,proactive2,2020.1.2,Win32,60,5f341be081b9052c55068110,5f35290dda1ab047f931ee8f,4,,,,,,razor,,,,,,,,,,,4,0,0,45,45,34,1,,,,,,,,,,,,,,,,,,,,,,,,,,,,,,,,,,,,,,,,,,,,,,,,,,,,,,,,,,,,,,,,,,,,,,,,,,,,,,,,,,,,,,,,,,,,,,
,,?,0.001845,0,,,,,,stimuli/images/PICTURE_487.png,FLIGHT,5f208d6e81732117f0e798da,12/08/1985,2020-08-13_07h03.09.665,proactive2,2020.1.2,Win32,60,5f341be081b9052c55068110,5f35290dda1ab047f931ee8f,4,,,,,,basket,,,,,,,,,,,1,0,0,46,46,9,1,,,,,,,,,,,,,,,,,,,,,,,,,,,,,,,,,,,,,,,,,,,,,,,,,,,,,,,,,,,,,,,,,,,,,,,,,,,,,,,,,,,,,,,,,,,,,,
,,?,0.00154,0,,,,,,stimuli/images/PICTURE_453.png,PLENTY,5f208d6e81732117f0e798da,12/08/1985,2020-08-13_07h03.09.665,proactive2,2020.1.2,Win32,60,5f341be081b9052c55068110,5f35290dda1ab047f931ee8f,4,,,,,,scissors,,,,,,,,,,,6,0,0,47,47,56,1,,,,,,,,,,,,,,,,,,,,,,,,,,,,,,,,,,,,,,,,,,,,,,,,,,,,,,,,,,,,,,,,,,,,,,,,,,,,,,,,,,,,,,,,,,,,,,
,,?,0.00161,0,,,,,,stimuli/images/PICTURE_311.png,BEAUTY,5f208d6e81732117f0e798da,12/08/1985,2020-08-13_07h03.09.665,proactive2,2020.1.2,Win32,60,5f341be081b9052c55068110,5f35290dda1ab047f931ee8f,4,,,,,,razor,,,,,,,,,,,2,0,0,48,48,13,1,,,,,,,,,,,,,,,,,,,,,,,,,,,,,,,,,,,,,,,,,,,,,,,,,,,,,,,,,,,,,,,,,,,,,,,,,,,,,,,,,,,,,,,,,,,,,,
,,?,0.00194,0,,,,,,stimuli/images/PICTURE_95.png,STYLE,5f208d6e81732117f0e798da,12/08/1985,2020-08-13_07h03.09.665,proactive2,2020.1.2,Win32,60,5f341be081b9052c55068110,5f35290dda1ab047f931ee8f,4,,,,,,suitcase,,,,,,,,,,,3,0,0,49,49,25,1,,,,,,,,,,,,,,,,,,,,,,,,,,,,,,,,,,,,,,,,,,,,,,,,,,,,,,,,,,,,,,,,,,,,,,,,,,,,,,,,,,,,,,,,,,,,,,
,,?,0.00162,0,,,,,,stimuli/images/PICTURE_654.png,VALLEY,5f208d6e81732117f0e798da,12/08/1985,2020-08-13_07h03.09.665,proactive2,2020.1.2,Win32,60,5f341be081b9052c55068110,5f35290dda1ab047f931ee8f,4,,,,,,pencil,,,,,,,,,,,1,0,0,50,50,1,1,,,,,,,,,,,,,,,,,,,,,,,,,,,,,,,,,,,,,,,,,,,,,,,,,,,,,,,,,,,,,,,,,,,,,,,,,,,,,,,,,,,,,,,,,,,,,,
,,?,0.001525,0,,,,,,stimuli/images/PICTURE_469.png,LETTER,5f208d6e81732117f0e798da,12/08/1985,2020-08-13_07h03.09.665,proactive2,2020.1.2,Win32,60,5f341be081b9052c55068110,5f35290dda1ab047f931ee8f,4,,,,,,stool,,,,,,,,,,,5,0,0,51,51,42,1,,,,,,,,,,,,,,,,,,,,,,,,,,,,,,,,,,,,,,,,,,,,,,,,,,,,,,,,,,,,,,,,,,,,,,,,,,,,,,,,,,,,,,,,,,,,,,
,,?,0.00153,0,,,,,,stimuli/images/PICTURE_85.png,THING,5f208d6e81732117f0e798da,12/08/1985,2020-08-13_07h03.09.665,proactive2,2020.1.2,Win32,60,5f341be081b9052c55068110,5f35290dda1ab047f931ee8f,4,,,,,,diamond,,,,,,,,,,,2,0,0,52,52,15,1,,,,,,,,,,,,,,,,,,,,,,,,,,,,,,,,,,,,,,,,,,,,,,,,,,,,,,,,,,,,,,,,,,,,,,,,,,,,,,,,,,,,,,,,,,,,,,
,,?,0.00154,0,,,,,,stimuli/images/PICTURE_203.png,ARTIST,5f208d6e81732117f0e798da,12/08/1985,2020-08-13_07h03.09.665,proactive2,2020.1.2,Win32,60,5f341be081b9052c55068110,5f35290dda1ab047f931ee8f,4,,,,,,cap,,,,,,,,,,,3,0,0,53,53,26,1,,,,,,,,,,,,,,,,,,,,,,,,,,,,,,,,,,,,,,,,,,,,,,,,,,,,,,,,,,,,,,,,,,,,,,,,,,,,,,,,,,,,,,,,,,,,,,
,,?,0.001735,0,,,,,,stimuli/images/PICTURE_308.png,ESTATE,5f208d6e81732117f0e798da,12/08/1985,2020-08-13_07h03.09.665,proactive2,2020.1.2,Win32,60,5f341be081b9052c55068110,5f35290dda1ab047f931ee8f,4,,,,,,dice,,,,,,,,,,,5,0,0,54,54,46,1,,,,,,,,,,,,,,,,,,,,,,,,,,,,,,,,,,,,,,,,,,,,,,,,,,,,,,,,,,,,,,,,,,,,,,,,,,,,,,,,,,,,,,,,,,,,,,
,,PENNY,3.70753,1,,,,,,stimuli/images/PICTURE_708.png,PENNY,5f208d6e81732117f0e798da,12/08/1985,2020-08-13_07h03.09.665,proactive2,2020.1.2,Win32,60,5f341be081b9052c55068110,5f35290dda1ab047f931ee8f,4,,,,,,monkey,,,,,,,,,,,4,0,0,55,55,31,1,,,,,,,,,,,,,,,,,,,,,,,,,,,,,,,,,,,,,,,,,,,,,,,,,,,,,,,,,,,,,,,,,,,,,,,,,,,,,,,,,,,,,,,,,,,,,,
,,?,0.001765,0,,,,,,stimuli/images/PICTURE_356.png,DANGER,5f208d6e81732117f0e798da,12/08/1985,2020-08-13_07h03.09.665,proactive2,2020.1.2,Win32,60,5f341be081b9052c55068110,5f35290dda1ab047f931ee8f,4,,,,,,pawn,,,,,,,,,,,6,0,0,56,56,55,1,,,,,,,,,,,,,,,,,,,,,,,,,,,,,,,,,,,,,,,,,,,,,,,,,,,,,,,,,,,,,,,,,,,,,,,,,,,,,,,,,,,,,,,,,,,,,,
,,?,0.001635,0,,,,,,stimuli/images/PICTURE_667.png,PLENTY,5f208d6e81732117f0e798da,12/08/1985,2020-08-13_07h03.09.665,proactive2,2020.1.2,Win32,60,5f341be081b9052c55068110,5f35290dda1ab047f931ee8f,4,,,,,,daisy,,,,,,,,,,,5,0,0,57,57,41,1,,,,,,,,,,,,,,,,,,,,,,,,,,,,,,,,,,,,,,,,,,,,,,,,,,,,,,,,,,,,,,,,,,,,,,,,,,,,,,,,,,,,,,,,,,,,,,
,,?,0.00161,0,,,,,,stimuli/images/PICTURE_160.png,FEET,5f208d6e81732117f0e798da,12/08/1985,2020-08-13_07h03.09.665,proactive2,2020.1.2,Win32,60,5f341be081b9052c55068110,5f35290dda1ab047f931ee8f,4,,,,,,wheelbarrow,,,,,,,,,,,6,0,0,58,58,58,1,,,,,,,,,,,,,,,,,,,,,,,,,,,,,,,,,,,,,,,,,,,,,,,,,,,,,,,,,,,,,,,,,,,,,,,,,,,,,,,,,,,,,,,,,,,,,,
,,?,0.00186,0,,,,,,stimuli/images/PICTURE_160.png,LEADER,5f208d6e81732117f0e798da,12/08/1985,2020-08-13_07h03.09.665,proactive2,2020.1.2,Win32,60,5f341be081b9052c55068110,5f35290dda1ab047f931ee8f,4,,,,,,wheelbarrow,,,,,,,,,,,1,0,0,59,59,3,1,,,,,,,,,,,,,,,,,,,,,,,,,,,,,,,,,,,,,,,,,,,,,,,,,,,,,,,,,,,,,,,,,,,,,,,,,,,,,,,,,,,,,,,,,,,,,,
,,,,,,,,,,,,5f208d6e81732117f0e798da,12/08/1985,2020-08-13_07h03.09.665,proactive2,2020.1.2,Win32,60,5f341be081b9052c55068110,5f35290dda1ab047f931ee8f,4,,,,,,,,,,,,,,,,,,,,,,,,0,1,1,0,1,stimuli/learn-block1.csv,,,,,,,,,,,,,,,,,,,,,,,,,,,,,,,,,,,,,,,,,,,,,,,,,,,,,,,,,,,,,,,,,,,,,,,,,,,,,,,,,,,,,,,,
,,,,,,,,,,stimuli/images/PICTURE_327.png,CASINO,5f208d6e81732117f0e798da,12/08/1985,2020-08-13_07h03.09.665,proactive2,2020.1.2,Win32,60,5f341be081b9052c55068110,5f35290dda1ab047f931ee8f,4,,,,,,helmet,,,,,,0,0,0,20,1,3,1,,,,,,,,,,,,,,,,,,,,,,,,,,,,,,,,,,,,,,,,,,,,,,,,,,,,,,,,,,,,,,,,,,,,,,,,,,,,,,,,,,,,,,,,,,,,,,,,,,,
,,,,,,,,,,stimuli/images/PICTURE_504.png,YEAR,5f208d6e81732117f0e798da,12/08/1985,2020-08-13_07h03.09.665,proactive2,2020.1.2,Win32,60,5f341be081b9052c55068110,5f35290dda1ab047f931ee8f,4,,,,,,wheel,,,,,,0,1,1,13,1,2,1,,,,,,,,,,,,,,,,,,,,,,,,,,,,,,,,,,,,,,,,,,,,,,,,,,,,,,,,,,,,,,,,,,,,,,,,,,,,,,,,,,,,,,,,,,,,,,,,,,,
,,,,,,,,,,stimuli/images/PICTURE_504.png,ARTIST,5f208d6e81732117f0e798da,12/08/1985,2020-08-13_07h03.09.665,proactive2,2020.1.2,Win32,60,5f341be081b9052c55068110,5f35290dda1ab047f931ee8f,4,,,,,,wheel,,,,,,0,2,2,49,1,5,1,,,,,,,,,,,,,,,,,,,,,,,,,,,,,,,,,,,,,,,,,,,,,,,,,,,,,,,,,,,,,,,,,,,,,,,,,,,,,,,,,,,,,,,,,,,,,,,,,,,
,,,,,,,,,,stimuli/images/PICTURE_750.png,HOTEL,5f208d6e81732117f0e798da,12/08/1985,2020-08-13_07h03.09.665,proactive2,2020.1.2,Win32,60,5f341be081b9052c55068110,5f35290dda1ab047f931ee8f,4,,,,,,kettle,,,,,,0,3,3,27,1,3,1,,,,,,,,,,,,,,,,,,,,,,,,,,,,,,,,,,,,,,,,,,,,,,,,,,,,,,,,,,,,,,,,,,,,,,,,,,,,,,,,,,,,,,,,,,,,,,,,,,,
,,,,,,,,,,stimuli/images/PICTURE_33.png,FRIEND,5f208d6e81732117f0e798da,12/08/1985,2020-08-13_07h03.09.665,proactive2,2020.1.2,Win32,60,5f341be081b9052c55068110,5f35290dda1ab047f931ee8f,4,,,,,,frame,,,,,,0,4,4,8,1,1,1,,,,,,,,,,,,,,,,,,,,,,,,,,,,,,,,,,,,,,,,,,,,,,,,,,,,,,,,,,,,,,,,,,,,,,,,,,,,,,,,,,,,,,,,,,,,,,,,,,,
,,,,,,,,,,stimuli/images/PICTURE_177.png,WRITER,5f208d6e81732117f0e798da,12/08/1985,2020-08-13_07h03.09.665,proactive2,2020.1.2,Win32,60,5f341be081b9052c55068110,5f35290dda1ab047f931ee8f,4,,,,,,mushroom,,,,,,0,5,5,41,1,5,1,,,,,,,,,,,,,,,,,,,,,,,,,,,,,,,,,,,,,,,,,,,,,,,,,,,,,,,,,,,,,,,,,,,,,,,,,,,,,,,,,,,,,,,,,,,,,,,,,,,
,,,,,,,,,,stimuli/images/PICTURE_403.png,RIVER,5f208d6e81732117f0e798da,12/08/1985,2020-08-13_07h03.09.665,proactive2,2020.1.2,Win32,60,5f341be081b9052c55068110,5f35290dda1ab047f931ee8f,4,,,,,,cathedral,,,,,,0,6,6,40,1,5,1,,,,,,,,,,,,,,,,,,,,,,,,,,,,,,,,,,,,,,,,,,,,,,,,,,,,,,,,,,,,,,,,,,,,,,,,,,,,,,,,,,,,,,,,,,,,,,,,,,,
,,,,,,,,,,stimuli/images/PICTURE_383.png,WRITER,5f208d6e81732117f0e798da,12/08/1985,2020-08-13_07h03.09.665,proactive2,2020.1.2,Win32,60,5f341be081b9052c55068110,5f35290dda1ab047f931ee8f,4,,,,,,coin,,,,,,0,7,7,28,1,3,1,,,,,,,,,,,,,,,,,,,,,,,,,,,,,,,,,,,,,,,,,,,,,,,,,,,,,,,,,,,,,,,,,,,,,,,,,,,,,,,,,,,,,,,,,,,,,,,,,,,
,,,,,,,,,,stimuli/images/PICTURE_403.png,TOILET,5f208d6e81732117f0e798da,12/08/1985,2020-08-13_07h03.09.665,proactive2,2020.1.2,Win32,60,5f341be081b9052c55068110,5f35290dda1ab047f931ee8f,4,,,,,,cathedral,,,,,,0,8,8,25,1,3,1,,,,,,,,,,,,,,,,,,,,,,,,,,,,,,,,,,,,,,,,,,,,,,,,,,,,,,,,,,,,,,,,,,,,,,,,,,,,,,,,,,,,,,,,,,,,,,,,,,,
,,,,,,,,,,stimuli/images/PICTURE_147.png,YEAR,5f208d6e81732117f0e798da,12/08/1985,2020-08-13_07h03.09.665,proactive2,2020.1.2,Win32,60,5f341be081b9052c55068110,5f35290dda1ab047f931ee8f,4,,,,,,hanger,,,,,,0,9,9,21,1,3,1,,,,,,,,,,,,,,,,,,,,,,,,,,,,,,,,,,,,,,,,,,,,,,,,,,,,,,,,,,,,,,,,,,,,,,,,,,,,,,,,,,,,,,,,,,,,,,,,,,,
,,,,,,,,,,stimuli/images/PICTURE_708.png,RECORD,5f208d6e81732117f0e798da,12/08/1985,2020-08-13_07h03.09.665,proactive2,2020.1.2,Win32,60,5f341be081b9052c55068110,5f35290dda1ab047f931ee8f,4,,,,,,monkey,,,,,,0,10,10,58,1,6,1,,,,,,,,,,,,,,,,,,,,,,,,,,,,,,,,,,,,,,,,,,,,,,,,,,,,,,,,,,,,,,,,,,,,,,,,,,,,,,,,,,,,,,,,,,,,,,,,,,,
,,,,,,,,,,stimuli/images/PICTURE_95.png,HONEY,5f208d6e81732117f0e798da,12/08/1985,2020-08-13_07h03.09.665,proactive2,2020.1.2,Win32,60,5f341be081b9052c55068110,5f35290dda1ab047f931ee8f,4,,,,,,suitcase,,,,,,0,11,11,44,1,5,1,,,,,,,,,,,,,,,,,,,,,,,,,,,,,,,,,,,,,,,,,,,,,,,,,,,,,,,,,,,,,,,,,,,,,,,,,,,,,,,,,,,,,,,,,,,,,,,,,,,
,,,,,,,,,,stimuli/images/PICTURE_57.png,MOMENT,5f208d6e81732117f0e798da,12/08/1985,2020-08-13_07h03.09.665,proactive2,2020.1.2,Win32,60,5f341be081b9052c55068110,5f35290dda1ab047f931ee8f,4,,,,,,stamp,,,,,,0,12,12,37,1,4,1,,,,,,,,,,,,,,,,,,,,,,,,,,,,,,,,,,,,,,,,,,,,,,,,,,,,,,,,,,,,,,,,,,,,,,,,,,,,,,,,,,,,,,,,,,,,,,,,,,,
,,,,,,,,,,stimuli/images/PICTURE_32.png,KIND,5f208d6e81732117f0e798da,12/08/1985,2020-08-13_07h03.09.665,proactive2,2020.1.2,Win32,60,5f341be081b9052c55068110,5f35290dda1ab047f931ee8f,4,,,,,,crown,,,,,,0,13,13,35,1,4,1,,,,,,,,,,,,,,,,,,,,,,,,,,,,,,,,,,,,,,,,,,,,,,,,,,,,,,,,,,,,,,,,,,,,,,,,,,,,,,,,,,,,,,,,,,,,,,,,,,,
,,,,,,,,,,stimuli/images/PICTURE_675.png,SALE,5f208d6e81732117f0e798da,12/08/1985,2020-08-13_07h03.09.665,proactive2,2020.1.2,Win32,60,5f341be081b9052c55068110,5f35290dda1ab047f931ee8f,4,,,,,,windmill,,,,,,0,14,14,47,1,5,1,,,,,,,,,,,,,,,,,,,,,,,,,,,,,,,,,,,,,,,,,,,,,,,,,,,,,,,,,,,,,,,,,,,,,,,,,,,,,,,,,,,,,,,,,,,,,,,,,,,
,,,,,,,,,,stimuli/images/PICTURE_42.png,BOYS,5f208d6e81732117f0e798da,12/08/1985,2020-08-13_07h03.09.665,proactive2,2020.1.2,Win32,60,5f341be081b9052c55068110,5f35290dda1ab047f931ee8f,4,,,,,,pear,,,,,,0,15,15,55,1,6,1,,,,,,,,,,,,,,,,,,,,,,,,,,,,,,,,,,,,,,,,,,,,,,,,,,,,,,,,,,,,,,,,,,,,,,,,,,,,,,,,,,,,,,,,,,,,,,,,,,,
,,,,,,,,,,stimuli/images/PICTURE_308.png,FAMILY,5f208d6e81732117f0e798da,12/08/1985,2020-08-13_07h03.09.665,proactive2,2020.1.2,Win32,60,5f341be081b9052c55068110,5f35290dda1ab047f931ee8f,4,,,,,,dice,,,,,,0,16,16,36,1,4,1,,,,,,,,,,,,,,,,,,,,,,,,,,,,,,,,,,,,,,,,,,,,,,,,,,,,,,,,,,,,,,,,,,,,,,,,,,,,,,,,,,,,,,,,,,,,,,,,,,,
,,,,,,,,,,stimuli/images/PICTURE_469.png,AGENT,5f208d6e81732117f0e798da,12/08/1985,2020-08-13_07h03.09.665,proactive2,2020.1.2,Win32,60,5f341be081b9052c55068110,5f35290dda1ab047f931ee8f,4,,,,,,stool,,,,,,0,17,17,16,1,2,1,,,,,,,,,,,,,,,,,,,,,,,,,,,,,,,,,,,,,,,,,,,,,,,,,,,,,,,,,,,,,,,,,,,,,,,,,,,,,,,,,,,,,,,,,,,,,,,,,,,
,,,,,,,,,,stimuli/images/PICTURE_405.png,PLENTY,5f208d6e81732117f0e798da,12/08/1985,2020-08-13_07h03.09.665,proactive2,2020.1.2,Win32,60,5f341be081b9052c55068110,5f35290dda1ab047f931ee8f,4,,,,,,anchor,,,,,,0,18,18,23,1,3,1,,,,,,,,,,,,,,,,,,,,,,,,,,,,,,,,,,,,,,,,,,,,,,,,,,,,,,,,,,,,,,,,,,,,,,,,,,,,,,,,,,,,,,,,,,,,,,,,,,,
,,,,,,,,,,stimuli/images/PICTURE_203.png,GODS,5f208d6e81732117f0e798da,12/08/1985,2020-08-13_07h03.09.665,proactive2,2020.1.2,Win32,60,5f341be081b9052c55068110,5f35290dda1ab047f931ee8f,4,,,,,,cap,,,,,,0,19,19,30,1,4,1,,,,,,,,,,,,,,,,,,,,,,,,,,,,,,,,,,,,,,,,,,,,,,,,,,,,,,,,,,,,,,,,,,,,,,,,,,,,,,,,,,,,,,,,,,,,,,,,,,,
,,,,,,,,,,stimuli/images/PICTURE_108.png,FLIGHT,5f208d6e81732117f0e798da,12/08/1985,2020-08-13_07h03.09.665,proactive2,2020.1.2,Win32,60,5f341be081b9052c55068110,5f35290dda1ab047f931ee8f,4,,,,,,calendar,,,,,,0,20,20,59,1,6,1,,,,,,,,,,,,,,,,,,,,,,,,,,,,,,,,,,,,,,,,,,,,,,,,,,,,,,,,,,,,,,,,,,,,,,,,,,,,,,,,,,,,,,,,,,,,,,,,,,,
,,,,,,,,,,stimuli/images/PICTURE_340.png,LETTER,5f208d6e81732117f0e798da,12/08/1985,2020-08-13_07h03.09.665,proactive2,2020.1.2,Win32,60,5f341be081b9052c55068110,5f35290dda1ab047f931ee8f,4,,,,,,mirror,,,,,,0,21,21,24,1,3,1,,,,,,,,,,,,,,,,,,,,,,,,,,,,,,,,,,,,,,,,,,,,,,,,,,,,,,,,,,,,,,,,,,,,,,,,,,,,,,,,,,,,,,,,,,,,,,,,,,,
,,,,,,,,,,stimuli/images/PICTURE_685.png,PENNY,5f208d6e81732117f0e798da,12/08/1985,2020-08-13_07h03.09.665,proactive2,2020.1.2,Win32,60,5f341be081b9052c55068110,5f35290dda1ab047f931ee8f,4,,,,,,goose,,,,,,0,22,22,4,1,1,1,,,,,,,,,,,,,,,,,,,,,,,,,,,,,,,,,,,,,,,,,,,,,,,,,,,,,,,,,,,,,,,,,,,,,,,,,,,,,,,,,,,,,,,,,,,,,,,,,,,
,,,,,,,,,,stimuli/images/PICTURE_667.png,RIVER,5f208d6e81732117f0e798da,12/08/1985,2020-08-13_07h03.09.665,proactive2,2020.1.2,Win32,60,5f341be081b9052c55068110,5f35290dda1ab047f931ee8f,4,,,,,,daisy,,,,,,0,23,23,10,1,2,1,,,,,,,,,,,,,,,,,,,,,,,,,,,,,,,,,,,,,,,,,,,,,,,,,,,,,,,,,,,,,,,,,,,,,,,,,,,,,,,,,,,,,,,,,,,,,,,,,,,
,,,,,,,,,,stimuli/images/PICTURE_491.png,RIVER,5f208d6e81732117f0e798da,12/08/1985,2020-08-13_07h03.09.665,proactive2,2020.1.2,Win32,60,5f341be081b9052c55068110,5f35290dda1ab047f931ee8f,4,,,,,,rug,,,,,,0,24,24,6,1,1,1,,,,,,,,,,,,,,,,,,,,,,,,,,,,,,,,,,,,,,,,,,,,,,,,,,,,,,,,,,,,,,,,,,,,,,,,,,,,,,,,,,,,,,,,,,,,,,,,,,,
,,,,,,,,,,stimuli/images/PICTURE_203.png,NIGHT,5f208d6e81732117f0e798da,12/08/1985,2020-08-13_07h03.09.665,proactive2,2020.1.2,Win32,60,5f341be081b9052c55068110,5f35290dda1ab047f931ee8f,4,,,,,,cap,,,,,,0,25,25,2,1,1,1,,,,,,,,,,,,,,,,,,,,,,,,,,,,,,,,,,,,,,,,,,,,,,,,,,,,,,,,,,,,,,,,,,,,,,,,,,,,,,,,,,,,,,,,,,,,,,,,,,,
,,,,,,,,,,stimuli/images/PICTURE_405.png,YEAR,5f208d6e81732117f0e798da,12/08/1985,2020-08-13_07h03.09.665,proactive2,2020.1.2,Win32,60,5f341be081b9052c55068110,5f35290dda1ab047f931ee8f,4,,,,,,anchor,,,,,,0,26,26,34,1,4,1,,,,,,,,,,,,,,,,,,,,,,,,,,,,,,,,,,,,,,,,,,,,,,,,,,,,,,,,,,,,,,,,,,,,,,,,,,,,,,,,,,,,,,,,,,,,,,,,,,,
,,,,,,,,,,stimuli/images/PICTURE_677.png,APPLE,5f208d6e81732117f0e798da,12/08/1985,2020-08-13_07h03.09.665,proactive2,2020.1.2,Win32,60,5f341be081b9052c55068110,5f35290dda1ab047f931ee8f,4,,,,,,map,,,,,,0,27,27,43,1,5,1,,,,,,,,,,,,,,,,,,,,,,,,,,,,,,,,,,,,,,,,,,,,,,,,,,,,,,,,,,,,,,,,,,,,,,,,,,,,,,,,,,,,,,,,,,,,,,,,,,,
,,,,,,,,,,stimuli/images/PICTURE_296.png,LIFE,5f208d6e81732117f0e798da,12/08/1985,2020-08-13_07h03.09.665,proactive2,2020.1.2,Win32,60,5f341be081b9052c55068110,5f35290dda1ab047f931ee8f,4,,,,,,bolt,,,,,,0,28,28,57,1,6,1,,,,,,,,,,,,,,,,,,,,,,,,,,,,,,,,,,,,,,,,,,,,,,,,,,,,,,,,,,,,,,,,,,,,,,,,,,,,,,,,,,,,,,,,,,,,,,,,,,,
,,,,,,,,,,stimuli/images/PICTURE_504.png,COPS,5f208d6e81732117f0e798da,12/08/1985,2020-08-13_07h03.09.665,proactive2,2020.1.2,Win32,60,5f341be081b9052c55068110,5f35290dda1ab047f931ee8f,4,,,,,,wheel,,,,,,0,29,29,52,1,6,1,,,,,,,,,,,,,,,,,,,,,,,,,,,,,,,,,,,,,,,,,,,,,,,,,,,,,,,,,,,,,,,,,,,,,,,,,,,,,,,,,,,,,,,,,,,,,,,,,,,
,,,,,,,,,,stimuli/images/PICTURE_285.png,LIFE,5f208d6e81732117f0e798da,12/08/1985,2020-08-13_07h03.09.665,proactive2,2020.1.2,Win32,60,5f341be081b9052c55068110,5f35290dda1ab047f931ee8f,4,,,,,,carrot,,,,,,0,30,30,33,1,4,1,,,,,,,,,,,,,,,,,,,,,,,,,,,,,,,,,,,,,,,,,,,,,,,,,,,,,,,,,,,,,,,,,,,,,,,,,,,,,,,,,,,,,,,,,,,,,,,,,,,
,,,,,,,,,,stimuli/images/PICTURE_68.png,MILE,5f208d6e81732117f0e798da,12/08/1985,2020-08-13_07h03.09.665,proactive2,2020.1.2,Win32,60,5f341be081b9052c55068110,5f35290dda1ab047f931ee8f,4,,,,,,candle,,,,,,0,31,31,51,1,6,1,,,,,,,,,,,,,,,,,,,,,,,,,,,,,,,,,,,,,,,,,,,,,,,,,,,,,,,,,,,,,,,,,,,,,,,,,,,,,,,,,,,,,,,,,,,,,,,,,,,
,,,,,,,,,,stimuli/images/PICTURE_208.png,SYSTEM,5f208d6e81732117f0e798da,12/08/1985,2020-08-13_07h03.09.665,proactive2,2020.1.2,Win32,60,5f341be081b9052c55068110,5f35290dda1ab047f931ee8f,4,,,,,,microphone,,,,,,0,32,32,32,1,4,1,,,,,,,,,,,,,,,,,,,,,,,,,,,,,,,,,,,,,,,,,,,,,,,,,,,,,,,,,,,,,,,,,,,,,,,,,,,,,,,,,,,,,,,,,,,,,,,,,,,
,,,,,,,,,,stimuli/images/PICTURE_403.png,WRITER,5f208d6e81732117f0e798da,12/08/1985,2020-08-13_07h03.09.665,proactive2,2020.1.2,Win32,60,5f341be081b9052c55068110,5f35290dda1ab047f931ee8f,4,,,,,,cathedral,,,,,,0,33,33,31,1,4,1,,,,,,,,,,,,,,,,,,,,,,,,,,,,,,,,,,,,,,,,,,,,,,,,,,,,,,,,,,,,,,,,,,,,,,,,,,,,,,,,,,,,,,,,,,,,,,,,,,,
,,,,,,,,,,stimuli/images/PICTURE_296.png,LOTS,5f208d6e81732117f0e798da,12/08/1985,2020-08-13_07h03.09.665,proactive2,2020.1.2,Win32,60,5f341be081b9052c55068110,5f35290dda1ab047f931ee8f,4,,,,,,bolt,,,,,,0,34,34,9,1,1,1,,,,,,,,,,,,,,,,,,,,,,,,,,,,,,,,,,,,,,,,,,,,,,,,,,,,,,,,,,,,,,,,,,,,,,,,,,,,,,,,,,,,,,,,,,,,,,,,,,,
,,,,,,,,,,stimuli/images/PICTURE_147.png,WOMEN,5f208d6e81732117f0e798da,12/08/1985,2020-08-13_07h03.09.665,proactive2,2020.1.2,Win32,60,5f341be081b9052c55068110,5f35290dda1ab047f931ee8f,4,,,,,,hanger,,,,,,0,35,35,7,1,1,1,,,,,,,,,,,,,,,,,,,,,,,,,,,,,,,,,,,,,,,,,,,,,,,,,,,,,,,,,,,,,,,,,,,,,,,,,,,,,,,,,,,,,,,,,,,,,,,,,,,
,,,,,,,,,,stimuli/images/PICTURE_564.png,BATH,5f208d6e81732117f0e798da,12/08/1985,2020-08-13_07h03.09.665,proactive2,2020.1.2,Win32,60,5f341be081b9052c55068110,5f35290dda1ab047f931ee8f,4,,,,,,spoon,,,,,,0,36,36,26,1,3,1,,,,,,,,,,,,,,,,,,,,,,,,,,,,,,,,,,,,,,,,,,,,,,,,,,,,,,,,,,,,,,,,,,,,,,,,,,,,,,,,,,,,,,,,,,,,,,,,,,,
,,,,,,,,,,stimuli/images/PICTURE_2.png,FLIGHT,5f208d6e81732117f0e798da,12/08/1985,2020-08-13_07h03.09.665,proactive2,2020.1.2,Win32,60,5f341be081b9052c55068110,5f35290dda1ab047f931ee8f,4,,,,,,tyre,,,,,,0,37,37,15,1,2,1,,,,,,,,,,,,,,,,,,,,,,,,,,,,,,,,,,,,,,,,,,,,,,,,,,,,,,,,,,,,,,,,,,,,,,,,,,,,,,,,,,,,,,,,,,,,,,,,,,,
,,,,,,,,,,stimuli/images/PICTURE_380.png,HONEY,5f208d6e81732117f0e798da,12/08/1985,2020-08-13_07h03.09.665,proactive2,2020.1.2,Win32,60,5f341be081b9052c55068110,5f35290dda1ab047f931ee8f,4,,,,,,gorilla,,,,,,0,38,38,19,1,2,1,,,,,,,,,,,,,,,,,,,,,,,,,,,,,,,,,,,,,,,,,,,,,,,,,,,,,,,,,,,,,,,,,,,,,,,,,,,,,,,,,,,,,,,,,,,,,,,,,,,
,,,,,,,,,,stimuli/images/PICTURE_297.png,RIVER,5f208d6e81732117f0e798da,12/08/1985,2020-08-13_07h03.09.665,proactive2,2020.1.2,Win32,60,5f341be081b9052c55068110,5f35290dda1ab047f931ee8f,4,,,,,,aeroplane,,,,,,0,39,39,39,1,4,1,,,,,,,,,,,,,,,,,,,,,,,,,,,,,,,,,,,,,,,,,,,,,,,,,,,,,,,,,,,,,,,,,,,,,,,,,,,,,,,,,,,,,,,,,,,,,,,,,,,
,,,,,,,,,,stimuli/images/PICTURE_327.png,SERIES,5f208d6e81732117f0e798da,12/08/1985,2020-08-13_07h03.09.665,proactive2,2020.1.2,Win32,60,5f341be081b9052c55068110,5f35290dda1ab047f931ee8f,4,,,,,,helmet,,,,,,0,40,40,3,1,1,1,,,,,,,,,,,,,,,,,,,,,,,,,,,,,,,,,,,,,,,,,,,,,,,,,,,,,,,,,,,,,,,,,,,,,,,,,,,,,,,,,,,,,,,,,,,,,,,,,,,
,,,,,,,,,,stimuli/images/PICTURE_744.png,WEAPON,5f208d6e81732117f0e798da,12/08/1985,2020-08-13_07h03.09.665,proactive2,2020.1.2,Win32,60,5f341be081b9052c55068110,5f35290dda1ab047f931ee8f,4,,,,,,ring,,,,,,0,41,41,50,1,6,1,,,,,,,,,,,,,,,,,,,,,,,,,,,,,,,,,,,,,,,,,,,,,,,,,,,,,,,,,,,,,,,,,,,,,,,,,,,,,,,,,,,,,,,,,,,,,,,,,,,
,,,,,,,,,,stimuli/images/PICTURE_95.png,BOYS,5f208d6e81732117f0e798da,12/08/1985,2020-08-13_07h03.09.665,proactive2,2020.1.2,Win32,60,5f341be081b9052c55068110,5f35290dda1ab047f931ee8f,4,,,,,,suitcase,,,,,,0,42,42,1,1,1,1,,,,,,,,,,,,,,,,,,,,,,,,,,,,,,,,,,,,,,,,,,,,,,,,,,,,,,,,,,,,,,,,,,,,,,,,,,,,,,,,,,,,,,,,,,,,,,,,,,,
,,,,,,,,,,stimuli/images/PICTURE_85.png,NATION,5f208d6e81732117f0e798da,12/08/1985,2020-08-13_07h03.09.665,proactive2,2020.1.2,Win32,60,5f341be081b9052c55068110,5f35290dda1ab047f931ee8f,4,,,,,,diamond,,,,,,0,43,43,5,1,1,1,,,,,,,,,,,,,,,,,,,,,,,,,,,,,,,,,,,,,,,,,,,,,,,,,,,,,,,,,,,,,,,,,,,,,,,,,,,,,,,,,,,,,,,,,,,,,,,,,,,
,,,,,,,,,,stimuli/images/PICTURE_32.png,PILLS,5f208d6e81732117f0e798da,12/08/1985,2020-08-13_07h03.09.665,proactive2,2020.1.2,Win32,60,5f341be081b9052c55068110,5f35290dda1ab047f931ee8f,4,,,,,,crown,,,,,,0,44,44,18,1,2,1,,,,,,,,,,,,,,,,,,,,,,,,,,,,,,,,,,,,,,,,,,,,,,,,,,,,,,,,,,,,,,,,,,,,,,,,,,,,,,,,,,,,,,,,,,,,,,,,,,,
,,,,,,,,,,stimuli/images/PICTURE_467.png,POLICY,5f208d6e81732117f0e798da,12/08/1985,2020-08-13_07h03.09.665,proactive2,2020.1.2,Win32,60,5f341be081b9052c55068110,5f35290dda1ab047f931ee8f,4,,,,,,peg,,,,,,0,45,45,53,1,6,1,,,,,,,,,,,,,,,,,,,,,,,,,,,,,,,,,,,,,,,,,,,,,,,,,,,,,,,,,,,,,,,,,,,,,,,,,,,,,,,,,,,,,,,,,,,,,,,,,,,
,,,,,,,,,,stimuli/images/PICTURE_491.png,GLASS,5f208d6e81732117f0e798da,12/08/1985,2020-08-13_07h03.09.665,proactive2,2020.1.2,Win32,60,5f341be081b9052c55068110,5f35290dda1ab047f931ee8f,4,,,,,,rug,,,,,,0,46,46,14,1,2,1,,,,,,,,,,,,,,,,,,,,,,,,,,,,,,,,,,,,,,,,,,,,,,,,,,,,,,,,,,,,,,,,,,,,,,,,,,,,,,,,,,,,,,,,,,,,,,,,,,,
,,,,,,,,,,stimuli/images/PICTURE_383.png,SERIES,5f208d6e81732117f0e798da,12/08/1985,2020-08-13_07h03.09.665,proactive2,2020.1.2,Win32,60,5f341be081b9052c55068110,5f35290dda1ab047f931ee8f,4,,,,,,coin,,,,,,0,47,47,46,1,5,1,,,,,,,,,,,,,,,,,,,,,,,,,,,,,,,,,,,,,,,,,,,,,,,,,,,,,,,,,,,,,,,,,,,,,,,,,,,,,,,,,,,,,,,,,,,,,,,,,,,
,,,,,,,,,,stimuli/images/PICTURE_449.png,DUDE,5f208d6e81732117f0e798da,12/08/1985,2020-08-13_07h03.09.665,proactive2,2020.1.2,Win32,60,5f341be081b9052c55068110,5f35290dda1ab047f931ee8f,4,,,,,,bench,,,,,,0,48,48,17,1,2,1,,,,,,,,,,,,,,,,,,,,,,,,,,,,,,,,,,,,,,,,,,,,,,,,,,,,,,,,,,,,,,,,,,,,,,,,,,,,,,,,,,,,,,,,,,,,,,,,,,,
,,,,,,,,,,stimuli/images/PICTURE_380.png,CANDY,5f208d6e81732117f0e798da,12/08/1985,2020-08-13_07h03.09.665,proactive2,2020.1.2,Win32,60,5f341be081b9052c55068110,5f35290dda1ab047f931ee8f,4,,,,,,gorilla,,,,,,0,49,49,0,1,1,1,,,,,,,,,,,,,,,,,,,,,,,,,,,,,,,,,,,,,,,,,,,,,,,,,,,,,,,,,,,,,,,,,,,,,,,,,,,,,,,,,,,,,,,,,,,,,,,,,,,
