consent_key.keys,consent_key.rt,recalled,recalled_rt,recall_acc,example_recall.thisRepN,example_recall.thisTrialN,example_recall.thisN,example_recall.thisIndex,example_recall.ran,file,word,participant,please enter your date of birth (dd/mm/yyyy),date,expName,psychopyVersion,OS,frameRate,STUDY_ID,SESSION_ID,list,prac_learn_study_loop.thisRepN,prac_learn_study_loop.thisTrialN,prac_learn_study_loop.thisN,prac_learn_study_loop.thisIndex,prac_learn_study_loop.ran,image,prac_learn_test_loop.thisRepN,prac_learn_test_loop.thisTrialN,prac_learn_test_loop.thisN,prac_learn_test_loop.thisIndex,prac_learn_test_loop.ran,learn_study_loop.thisRepN,learn_study_loop.thisTrialN,learn_study_loop.thisN,learn_study_loop.thisIndex,learn_study_loop.ran,list_no,block_no,learn_test_loop.thisRepN,learn_test_loop.thisTrialN,learn_test_loop.thisN,learn_test_loop.thisIndex,learn_test_loop.ran,learn_blocks.thisRepN,learn_blocks.thisTrialN,learn_blocks.thisN,learn_blocks.thisIndex,learn_blocks.ran,block_csv,key_resp_13.keys,key_resp_13.rt,learn_blocks_loop.thisRepN,learn_blocks_loop.thisTrialN,learn_blocks_loop.thisN,learn_blocks_loop.thisIndex,learn_blocks_loop.ran,final_learn_test.thisRepN,final_learn_test.thisTrialN,final_learn_test.thisN,final_learn_test.thisIndex,final_learn_test.ran,prac_wm_test_loop.thisRepN,prac_wm_test_loop.thisTrialN,prac_wm_test_loop.thisN,prac_wm_test_loop.thisIndex,prac_wm_test_loop.ran,wm_recalled1,wm_recall_rt1,wm_probed1,wm_recall_acc1,wm_recalled2,wm_recall_rt2,wm_probed2,wm_recall_acc2,wm_recalled3,wm_recall_rt3,wm_probed3,wm_recall_acc3,wm_recalled4,wm_recall_rt4,wm_probed4,wm_recall_acc4,prac_wm_trial_loop.thisRepN,prac_wm_trial_loop.thisTrialN,prac_wm_trial_loop.thisN,prac_wm_trial_loop.thisIndex,prac_wm_trial_loop.ran,word1,image1,file1,item_type1,word2,image2,file2,item_type2,word4,image4,file4,item_type4,word3,image3,file3,item_type3,wm_test_loop.thisRepN,wm_test_loop.thisTrialN,wm_test_loop.thisN,wm_test_loop.thisIndex,wm_test_loop.ran,wm_trial_loop.thisRepN,wm_trial_loop.thisTrialN,wm_trial_loop.thisN,wm_trial_loop.thisIndex,wm_trial_loop.ran
y,1.767,TOUGH,2.095,1,0,0,0,0,1,stimuli/images/PICTURE_747.png,TOUGH,571de12713b1b70012be47f6,14/07/1955,2020-09-12_08h50.25.739,proactive3.2,2020.1.2,MacIntel,60,5f5adea66120081ea0f57a61,5f5c7aa3de3d54462326d9b2,4,,,,,,,,,,,,,,,,,,,,,,,,,,,,,,,,,,,,,,,,,,,,,,,,,,,,,,,,,,,,,,,,,,,,,,,,,,,,,,,,,,,,,,,,,,,,,
,,,,,,,,,,stimuli/images/PICTURE_378.png,LOSS,571de12713b1b70012be47f6,14/07/1955,2020-09-12_08h50.25.739,proactive3.2,2020.1.2,MacIntel,60,5f5adea66120081ea0f57a61,5f5c7aa3de3d54462326d9b2,4,0,0,0,2,1,lobster,,,,,,,,,,,,,,,,,,,,,,,,,,,,,,,,,,,,,,,,,,,,,,,,,,,,,,,,,,,,,,,,,,,,,,,,,,,,,,,,,,,,,,,
,,,,,,,,,,stimuli/images/PICTURE_697.png,KILLER,571de12713b1b70012be47f6,14/07/1955,2020-09-12_08h50.25.739,proactive3.2,2020.1.2,MacIntel,60,5f5adea66120081ea0f57a61,5f5c7aa3de3d54462326d9b2,4,0,1,1,4,1,peach,,,,,,,,,,,,,,,,,,,,,,,,,,,,,,,,,,,,,,,,,,,,,,,,,,,,,,,,,,,,,,,,,,,,,,,,,,,,,,,,,,,,,,,
,,,,,,,,,,stimuli/images/PICTURE_727.png,CELL,571de12713b1b70012be47f6,14/07/1955,2020-09-12_08h50.25.739,proactive3.2,2020.1.2,MacIntel,60,5f5adea66120081ea0f57a61,5f5c7aa3de3d54462326d9b2,4,0,2,2,1,1,hose,,,,,,,,,,,,,,,,,,,,,,,,,,,,,,,,,,,,,,,,,,,,,,,,,,,,,,,,,,,,,,,,,,,,,,,,,,,,,,,,,,,,,,,
,,,,,,,,,,stimuli/images/PICTURE_658.png,DEVIL,571de12713b1b70012be47f6,14/07/1955,2020-09-12_08h50.25.739,proactive3.2,2020.1.2,MacIntel,60,5f5adea66120081ea0f57a61,5f5c7aa3de3d54462326d9b2,4,0,3,3,3,1,crow,,,,,,,,,,,,,,,,,,,,,,,,,,,,,,,,,,,,,,,,,,,,,,,,,,,,,,,,,,,,,,,,,,,,,,,,,,,,,,,,,,,,,,,
,,GENIUS,2.3,1,,,,,,stimuli/images/PICTURE_269.png,GENIUS,571de12713b1b70012be47f6,14/07/1955,2020-09-12_08h50.25.739,proactive3.2,2020.1.2,MacIntel,60,5f5adea66120081ea0f57a61,5f5c7aa3de3d54462326d9b2,4,,,,,,chameleon,0,0,0,0,1,,,,,,,,,,,,,,,,,,,,,,,,,,,,,,,,,,,,,,,,,,,,,,,,,,,,,,,,,,,,,,,,,,,,,,,,,,,,,,,,,,
,,ROCK,1.932,0,,,,,,stimuli/images/PICTURE_697.png,KILLER,571de12713b1b70012be47f6,14/07/1955,2020-09-12_08h50.25.739,proactive3.2,2020.1.2,MacIntel,60,5f5adea66120081ea0f57a61,5f5c7aa3de3d54462326d9b2,4,,,,,,peach,0,1,1,4,1,,,,,,,,,,,,,,,,,,,,,,,,,,,,,,,,,,,,,,,,,,,,,,,,,,,,,,,,,,,,,,,,,,,,,,,,,,,,,,,,,,
,,LOSS,1.636,1,,,,,,stimuli/images/PICTURE_378.png,LOSS,571de12713b1b70012be47f6,14/07/1955,2020-09-12_08h50.25.739,proactive3.2,2020.1.2,MacIntel,60,5f5adea66120081ea0f57a61,5f5c7aa3de3d54462326d9b2,4,,,,,,lobster,0,2,2,2,1,,,,,,,,,,,,,,,,,,,,,,,,,,,,,,,,,,,,,,,,,,,,,,,,,,,,,,,,,,,,,,,,,,,,,,,,,,,,,,,,,,
,,CELL,1.518,1,,,,,,stimuli/images/PICTURE_727.png,CELL,571de12713b1b70012be47f6,14/07/1955,2020-09-12_08h50.25.739,proactive3.2,2020.1.2,MacIntel,60,5f5adea66120081ea0f57a61,5f5c7aa3de3d54462326d9b2,4,,,,,,hose,0,3,3,1,1,,,,,,,,,,,,,,,,,,,,,,,,,,,,,,,,,,,,,,,,,,,,,,,,,,,,,,,,,,,,,,,,,,,,,,,,,,,,,,,,,,
,,DEVIL,1.7,1,,,,,,stimuli/images/PICTURE_658.png,DEVIL,571de12713b1b70012be47f6,14/07/1955,2020-09-12_08h50.25.739,proactive3.2,2020.1.2,MacIntel,60,5f5adea66120081ea0f57a61,5f5c7aa3de3d54462326d9b2,4,,,,,,crow,0,4,4,3,1,,,,,,,,,,,,,,,,,,,,,,,,,,,,,,,,,,,,,,,,,,,,,,,,,,,,,,,,,,,,,,,,,,,,,,,,,,,,,,,,,,
,,,,,,,,,,stimuli/images/PICTURE_677.png,MILE,571de12713b1b70012be47f6,14/07/1955,2020-09-12_08h50.25.739,proactive3.2,2020.1.2,MacIntel,60,5f5adea66120081ea0f57a61,5f5c7aa3de3d54462326d9b2,4,,,,,,map,,,,,,0,0,0,30,1,4,0,,,,,,,,,,,,,,,,,,,,,,,,,,,,,,,,,,,,,,,,,,,,,,,,,,,,,,,,,,,,,,,,,,,,,,,,,,,
,,,,,,,,,,stimuli/images/PICTURE_302.png,FAMILY,571de12713b1b70012be47f6,14/07/1955,2020-09-12_08h50.25.739,proactive3.2,2020.1.2,MacIntel,60,5f5adea66120081ea0f57a61,5f5c7aa3de3d54462326d9b2,4,,,,,,taxi,,,,,,0,1,1,18,1,2,0,,,,,,,,,,,,,,,,,,,,,,,,,,,,,,,,,,,,,,,,,,,,,,,,,,,,,,,,,,,,,,,,,,,,,,,,,,,
,,,,,,,,,,stimuli/images/PICTURE_233.png,IDEAS,571de12713b1b70012be47f6,14/07/1955,2020-09-12_08h50.25.739,proactive3.2,2020.1.2,MacIntel,60,5f5adea66120081ea0f57a61,5f5c7aa3de3d54462326d9b2,4,,,,,,salt,,,,,,0,2,2,28,1,3,0,,,,,,,,,,,,,,,,,,,,,,,,,,,,,,,,,,,,,,,,,,,,,,,,,,,,,,,,,,,,,,,,,,,,,,,,,,,
,,,,,,,,,,stimuli/images/PICTURE_147.png,MOMENT,571de12713b1b70012be47f6,14/07/1955,2020-09-12_08h50.25.739,proactive3.2,2020.1.2,MacIntel,60,5f5adea66120081ea0f57a61,5f5c7aa3de3d54462326d9b2,4,,,,,,hanger,,,,,,0,3,3,51,1,6,0,,,,,,,,,,,,,,,,,,,,,,,,,,,,,,,,,,,,,,,,,,,,,,,,,,,,,,,,,,,,,,,,,,,,,,,,,,,
,,,,,,,,,,stimuli/images/PICTURE_688.png,WOMEN,571de12713b1b70012be47f6,14/07/1955,2020-09-12_08h50.25.739,proactive3.2,2020.1.2,MacIntel,60,5f5adea66120081ea0f57a61,5f5c7aa3de3d54462326d9b2,4,,,,,,runner,,,,,,0,4,4,14,1,2,0,,,,,,,,,,,,,,,,,,,,,,,,,,,,,,,,,,,,,,,,,,,,,,,,,,,,,,,,,,,,,,,,,,,,,,,,,,,
,,,,,,,,,,stimuli/images/PICTURE_151.png,GIRL,571de12713b1b70012be47f6,14/07/1955,2020-09-12_08h50.25.739,proactive3.2,2020.1.2,MacIntel,60,5f5adea66120081ea0f57a61,5f5c7aa3de3d54462326d9b2,4,,,,,,tray,,,,,,0,5,5,19,1,2,0,,,,,,,,,,,,,,,,,,,,,,,,,,,,,,,,,,,,,,,,,,,,,,,,,,,,,,,,,,,,,,,,,,,,,,,,,,,
,,,,,,,,,,stimuli/images/PICTURE_308.png,ESTATE,571de12713b1b70012be47f6,14/07/1955,2020-09-12_08h50.25.739,proactive3.2,2020.1.2,MacIntel,60,5f5adea66120081ea0f57a61,5f5c7aa3de3d54462326d9b2,4,,,,,,dice,,,,,,0,6,6,46,1,5,0,,,,,,,,,,,,,,,,,,,,,,,,,,,,,,,,,,,,,,,,,,,,,,,,,,,,,,,,,,,,,,,,,,,,,,,,,,,
,,,,,,,,,,stimuli/images/PICTURE_469.png,ARTIST,571de12713b1b70012be47f6,14/07/1955,2020-09-12_08h50.25.739,proactive3.2,2020.1.2,MacIntel,60,5f5adea66120081ea0f57a61,5f5c7aa3de3d54462326d9b2,4,,,,,,stool,,,,,,0,7,7,6,1,1,0,,,,,,,,,,,,,,,,,,,,,,,,,,,,,,,,,,,,,,,,,,,,,,,,,,,,,,,,,,,,,,,,,,,,,,,,,,,
,,,,,,,,,,stimuli/images/PICTURE_667.png,PLENTY,571de12713b1b70012be47f6,14/07/1955,2020-09-12_08h50.25.739,proactive3.2,2020.1.2,MacIntel,60,5f5adea66120081ea0f57a61,5f5c7aa3de3d54462326d9b2,4,,,,,,daisy,,,,,,0,8,8,41,1,5,0,,,,,,,,,,,,,,,,,,,,,,,,,,,,,,,,,,,,,,,,,,,,,,,,,,,,,,,,,,,,,,,,,,,,,,,,,,,
,,,,,,,,,,stimuli/images/PICTURE_248.png,DOZEN,571de12713b1b70012be47f6,14/07/1955,2020-09-12_08h50.25.739,proactive3.2,2020.1.2,MacIntel,60,5f5adea66120081ea0f57a61,5f5c7aa3de3d54462326d9b2,4,,,,,,cart,,,,,,0,9,9,39,1,4,0,,,,,,,,,,,,,,,,,,,,,,,,,,,,,,,,,,,,,,,,,,,,,,,,,,,,,,,,,,,,,,,,,,,,,,,,,,,
,,,,,,,,,,stimuli/images/PICTURE_327.png,BEAUTY,571de12713b1b70012be47f6,14/07/1955,2020-09-12_08h50.25.739,proactive3.2,2020.1.2,MacIntel,60,5f5adea66120081ea0f57a61,5f5c7aa3de3d54462326d9b2,4,,,,,,helmet,,,,,,0,10,10,48,1,5,0,,,,,,,,,,,,,,,,,,,,,,,,,,,,,,,,,,,,,,,,,,,,,,,,,,,,,,,,,,,,,,,,,,,,,,,,,,,
,,,,,,,,,,stimuli/images/PICTURE_487.png,FLIGHT,571de12713b1b70012be47f6,14/07/1955,2020-09-12_08h50.25.739,proactive3.2,2020.1.2,MacIntel,60,5f5adea66120081ea0f57a61,5f5c7aa3de3d54462326d9b2,4,,,,,,basket,,,,,,0,11,11,9,1,1,0,,,,,,,,,,,,,,,,,,,,,,,,,,,,,,,,,,,,,,,,,,,,,,,,,,,,,,,,,,,,,,,,,,,,,,,,,,,
,,,,,,,,,,stimuli/images/PICTURE_208.png,THING,571de12713b1b70012be47f6,14/07/1955,2020-09-12_08h50.25.739,proactive3.2,2020.1.2,MacIntel,60,5f5adea66120081ea0f57a61,5f5c7aa3de3d54462326d9b2,4,,,,,,microphone,,,,,,0,12,12,47,1,5,0,,,,,,,,,,,,,,,,,,,,,,,,,,,,,,,,,,,,,,,,,,,,,,,,,,,,,,,,,,,,,,,,,,,,,,,,,,,
,,,,,,,,,,stimuli/images/PICTURE_68.png,MILE,571de12713b1b70012be47f6,14/07/1955,2020-09-12_08h50.25.739,proactive3.2,2020.1.2,MacIntel,60,5f5adea66120081ea0f57a61,5f5c7aa3de3d54462326d9b2,4,,,,,,candle,,,,,,0,13,13,44,1,5,0,,,,,,,,,,,,,,,,,,,,,,,,,,,,,,,,,,,,,,,,,,,,,,,,,,,,,,,,,,,,,,,,,,,,,,,,,,,
,,,,,,,,,,stimuli/images/PICTURE_708.png,YARD,571de12713b1b70012be47f6,14/07/1955,2020-09-12_08h50.25.739,proactive3.2,2020.1.2,MacIntel,60,5f5adea66120081ea0f57a61,5f5c7aa3de3d54462326d9b2,4,,,,,,monkey,,,,,,0,14,14,29,1,3,0,,,,,,,,,,,,,,,,,,,,,,,,,,,,,,,,,,,,,,,,,,,,,,,,,,,,,,,,,,,,,,,,,,,,,,,,,,,
,,,,,,,,,,stimuli/images/PICTURE_356.png,DANGER,571de12713b1b70012be47f6,14/07/1955,2020-09-12_08h50.25.739,proactive3.2,2020.1.2,MacIntel,60,5f5adea66120081ea0f57a61,5f5c7aa3de3d54462326d9b2,4,,,,,,pawn,,,,,,0,15,15,55,1,6,0,,,,,,,,,,,,,,,,,,,,,,,,,,,,,,,,,,,,,,,,,,,,,,,,,,,,,,,,,,,,,,,,,,,,,,,,,,,
,,,,,,,,,,stimuli/images/PICTURE_467.png,DEMON,571de12713b1b70012be47f6,14/07/1955,2020-09-12_08h50.25.739,proactive3.2,2020.1.2,MacIntel,60,5f5adea66120081ea0f57a61,5f5c7aa3de3d54462326d9b2,4,,,,,,peg,,,,,,0,16,16,23,1,3,0,,,,,,,,,,,,,,,,,,,,,,,,,,,,,,,,,,,,,,,,,,,,,,,,,,,,,,,,,,,,,,,,,,,,,,,,,,,
,,,,,,,,,,stimuli/images/PICTURE_208.png,MONTH,571de12713b1b70012be47f6,14/07/1955,2020-09-12_08h50.25.739,proactive3.2,2020.1.2,MacIntel,60,5f5adea66120081ea0f57a61,5f5c7aa3de3d54462326d9b2,4,,,,,,microphone,,,,,,0,17,17,53,1,6,0,,,,,,,,,,,,,,,,,,,,,,,,,,,,,,,,,,,,,,,,,,,,,,,,,,,,,,,,,,,,,,,,,,,,,,,,,,,
,,,,,,,,,,stimuli/images/PICTURE_32.png,JUNGLE,571de12713b1b70012be47f6,14/07/1955,2020-09-12_08h50.25.739,proactive3.2,2020.1.2,MacIntel,60,5f5adea66120081ea0f57a61,5f5c7aa3de3d54462326d9b2,4,,,,,,crown,,,,,,0,18,18,45,1,5,0,,,,,,,,,,,,,,,,,,,,,,,,,,,,,,,,,,,,,,,,,,,,,,,,,,,,,,,,,,,,,,,,,,,,,,,,,,,
,,,,,,,,,,stimuli/images/PICTURE_470.png,CASINO,571de12713b1b70012be47f6,14/07/1955,2020-09-12_08h50.25.739,proactive3.2,2020.1.2,MacIntel,60,5f5adea66120081ea0f57a61,5f5c7aa3de3d54462326d9b2,4,,,,,,motorbike,,,,,,0,19,19,36,1,4,0,,,,,,,,,,,,,,,,,,,,,,,,,,,,,,,,,,,,,,,,,,,,,,,,,,,,,,,,,,,,,,,,,,,,,,,,,,,
,,,,,,,,,,stimuli/images/PICTURE_453.png,DUDE,571de12713b1b70012be47f6,14/07/1955,2020-09-12_08h50.25.739,proactive3.2,2020.1.2,MacIntel,60,5f5adea66120081ea0f57a61,5f5c7aa3de3d54462326d9b2,4,,,,,,scissors,,,,,,0,20,20,27,1,3,0,,,,,,,,,,,,,,,,,,,,,,,,,,,,,,,,,,,,,,,,,,,,,,,,,,,,,,,,,,,,,,,,,,,,,,,,,,,
,,,,,,,,,,stimuli/images/PICTURE_339.png,PLENTY,571de12713b1b70012be47f6,14/07/1955,2020-09-12_08h50.25.739,proactive3.2,2020.1.2,MacIntel,60,5f5adea66120081ea0f57a61,5f5c7aa3de3d54462326d9b2,4,,,,,,backpack,,,,,,0,21,21,0,1,1,0,,,,,,,,,,,,,,,,,,,,,,,,,,,,,,,,,,,,,,,,,,,,,,,,,,,,,,,,,,,,,,,,,,,,,,,,,,,
,,,,,,,,,,stimuli/images/PICTURE_314.png,SAKE,571de12713b1b70012be47f6,14/07/1955,2020-09-12_08h50.25.739,proactive3.2,2020.1.2,MacIntel,60,5f5adea66120081ea0f57a61,5f5c7aa3de3d54462326d9b2,4,,,,,,perfume,,,,,,0,22,22,7,1,1,0,,,,,,,,,,,,,,,,,,,,,,,,,,,,,,,,,,,,,,,,,,,,,,,,,,,,,,,,,,,,,,,,,,,,,,,,,,,
,,,,,,,,,,stimuli/images/PICTURE_308.png,KIND,571de12713b1b70012be47f6,14/07/1955,2020-09-12_08h50.25.739,proactive3.2,2020.1.2,MacIntel,60,5f5adea66120081ea0f57a61,5f5c7aa3de3d54462326d9b2,4,,,,,,dice,,,,,,0,23,23,54,1,6,0,,,,,,,,,,,,,,,,,,,,,,,,,,,,,,,,,,,,,,,,,,,,,,,,,,,,,,,,,,,,,,,,,,,,,,,,,,,
,,,,,,,,,,stimuli/images/PICTURE_285.png,ADVICE,571de12713b1b70012be47f6,14/07/1955,2020-09-12_08h50.25.739,proactive3.2,2020.1.2,MacIntel,60,5f5adea66120081ea0f57a61,5f5c7aa3de3d54462326d9b2,4,,,,,,carrot,,,,,,0,24,24,12,1,2,0,,,,,,,,,,,,,,,,,,,,,,,,,,,,,,,,,,,,,,,,,,,,,,,,,,,,,,,,,,,,,,,,,,,,,,,,,,,
,,,,,,,,,,stimuli/images/PICTURE_509.png,PHOTO,571de12713b1b70012be47f6,14/07/1955,2020-09-12_08h50.25.739,proactive3.2,2020.1.2,MacIntel,60,5f5adea66120081ea0f57a61,5f5c7aa3de3d54462326d9b2,4,,,,,,telephone,,,,,,0,25,25,21,1,3,0,,,,,,,,,,,,,,,,,,,,,,,,,,,,,,,,,,,,,,,,,,,,,,,,,,,,,,,,,,,,,,,,,,,,,,,,,,,
,,,,,,,,,,stimuli/images/PICTURE_311.png,BEAUTY,571de12713b1b70012be47f6,14/07/1955,2020-09-12_08h50.25.739,proactive3.2,2020.1.2,MacIntel,60,5f5adea66120081ea0f57a61,5f5c7aa3de3d54462326d9b2,4,,,,,,razor,,,,,,0,26,26,13,1,2,0,,,,,,,,,,,,,,,,,,,,,,,,,,,,,,,,,,,,,,,,,,,,,,,,,,,,,,,,,,,,,,,,,,,,,,,,,,,
,,,,,,,,,,stimuli/images/PICTURE_688.png,CASINO,571de12713b1b70012be47f6,14/07/1955,2020-09-12_08h50.25.739,proactive3.2,2020.1.2,MacIntel,60,5f5adea66120081ea0f57a61,5f5c7aa3de3d54462326d9b2,4,,,,,,runner,,,,,,0,27,27,2,1,1,0,,,,,,,,,,,,,,,,,,,,,,,,,,,,,,,,,,,,,,,,,,,,,,,,,,,,,,,,,,,,,,,,,,,,,,,,,,,
,,,,,,,,,,stimuli/images/PICTURE_255.png,AREA,571de12713b1b70012be47f6,14/07/1955,2020-09-12_08h50.25.739,proactive3.2,2020.1.2,MacIntel,60,5f5adea66120081ea0f57a61,5f5c7aa3de3d54462326d9b2,4,,,,,,shovel,,,,,,0,28,28,22,1,3,0,,,,,,,,,,,,,,,,,,,,,,,,,,,,,,,,,,,,,,,,,,,,,,,,,,,,,,,,,,,,,,,,,,,,,,,,,,,
,,,,,,,,,,stimuli/images/PICTURE_380.png,DEATH,571de12713b1b70012be47f6,14/07/1955,2020-09-12_08h50.25.739,proactive3.2,2020.1.2,MacIntel,60,5f5adea66120081ea0f57a61,5f5c7aa3de3d54462326d9b2,4,,,,,,gorilla,,,,,,0,29,29,49,1,5,0,,,,,,,,,,,,,,,,,,,,,,,,,,,,,,,,,,,,,,,,,,,,,,,,,,,,,,,,,,,,,,,,,,,,,,,,,,,
,,,,,,,,,,stimuli/images/PICTURE_654.png,VALLEY,571de12713b1b70012be47f6,14/07/1955,2020-09-12_08h50.25.739,proactive3.2,2020.1.2,MacIntel,60,5f5adea66120081ea0f57a61,5f5c7aa3de3d54462326d9b2,4,,,,,,pencil,,,,,,0,30,30,1,1,1,0,,,,,,,,,,,,,,,,,,,,,,,,,,,,,,,,,,,,,,,,,,,,,,,,,,,,,,,,,,,,,,,,,,,,,,,,,,,
,,,,,,,,,,stimuli/images/PICTURE_233.png,WOMEN,571de12713b1b70012be47f6,14/07/1955,2020-09-12_08h50.25.739,proactive3.2,2020.1.2,MacIntel,60,5f5adea66120081ea0f57a61,5f5c7aa3de3d54462326d9b2,4,,,,,,salt,,,,,,0,31,31,38,1,4,0,,,,,,,,,,,,,,,,,,,,,,,,,,,,,,,,,,,,,,,,,,,,,,,,,,,,,,,,,,,,,,,,,,,,,,,,,,,
,,,,,,,,,,stimuli/images/PICTURE_123.png,ADVICE,571de12713b1b70012be47f6,14/07/1955,2020-09-12_08h50.25.739,proactive3.2,2020.1.2,MacIntel,60,5f5adea66120081ea0f57a61,5f5c7aa3de3d54462326d9b2,4,,,,,,dart,,,,,,0,32,32,50,1,6,0,,,,,,,,,,,,,,,,,,,,,,,,,,,,,,,,,,,,,,,,,,,,,,,,,,,,,,,,,,,,,,,,,,,,,,,,,,,
,,,,,,,,,,stimuli/images/PICTURE_348.png,SPEECH,571de12713b1b70012be47f6,14/07/1955,2020-09-12_08h50.25.739,proactive3.2,2020.1.2,MacIntel,60,5f5adea66120081ea0f57a61,5f5c7aa3de3d54462326d9b2,4,,,,,,pepper,,,,,,0,33,33,20,1,3,0,,,,,,,,,,,,,,,,,,,,,,,,,,,,,,,,,,,,,,,,,,,,,,,,,,,,,,,,,,,,,,,,,,,,,,,,,,,
,,,,,,,,,,stimuli/images/PICTURE_85.png,THING,571de12713b1b70012be47f6,14/07/1955,2020-09-12_08h50.25.739,proactive3.2,2020.1.2,MacIntel,60,5f5adea66120081ea0f57a61,5f5c7aa3de3d54462326d9b2,4,,,,,,diamond,,,,,,0,34,34,15,1,2,0,,,,,,,,,,,,,,,,,,,,,,,,,,,,,,,,,,,,,,,,,,,,,,,,,,,,,,,,,,,,,,,,,,,,,,,,,,,
,,,,,,,,,,stimuli/images/PICTURE_491.png,WRITER,571de12713b1b70012be47f6,14/07/1955,2020-09-12_08h50.25.739,proactive3.2,2020.1.2,MacIntel,60,5f5adea66120081ea0f57a61,5f5c7aa3de3d54462326d9b2,4,,,,,,rug,,,,,,0,35,35,57,1,6,0,,,,,,,,,,,,,,,,,,,,,,,,,,,,,,,,,,,,,,,,,,,,,,,,,,,,,,,,,,,,,,,,,,,,,,,,,,,
,,,,,,,,,,stimuli/images/PICTURE_708.png,PENNY,571de12713b1b70012be47f6,14/07/1955,2020-09-12_08h50.25.739,proactive3.2,2020.1.2,MacIntel,60,5f5adea66120081ea0f57a61,5f5c7aa3de3d54462326d9b2,4,,,,,,monkey,,,,,,0,36,36,31,1,4,0,,,,,,,,,,,,,,,,,,,,,,,,,,,,,,,,,,,,,,,,,,,,,,,,,,,,,,,,,,,,,,,,,,,,,,,,,,,
,,,,,,,,,,stimuli/images/PICTURE_311.png,FRIEND,571de12713b1b70012be47f6,14/07/1955,2020-09-12_08h50.25.739,proactive3.2,2020.1.2,MacIntel,60,5f5adea66120081ea0f57a61,5f5c7aa3de3d54462326d9b2,4,,,,,,razor,,,,,,0,37,37,34,1,4,0,,,,,,,,,,,,,,,,,,,,,,,,,,,,,,,,,,,,,,,,,,,,,,,,,,,,,,,,,,,,,,,,,,,,,,,,,,,
,,,,,,,,,,stimuli/images/PICTURE_160.png,LEADER,571de12713b1b70012be47f6,14/07/1955,2020-09-12_08h50.25.739,proactive3.2,2020.1.2,MacIntel,60,5f5adea66120081ea0f57a61,5f5c7aa3de3d54462326d9b2,4,,,,,,wheelbarrow,,,,,,0,38,38,3,1,1,0,,,,,,,,,,,,,,,,,,,,,,,,,,,,,,,,,,,,,,,,,,,,,,,,,,,,,,,,,,,,,,,,,,,,,,,,,,,
,,,,,,,,,,stimuli/images/PICTURE_449.png,THING,571de12713b1b70012be47f6,14/07/1955,2020-09-12_08h50.25.739,proactive3.2,2020.1.2,MacIntel,60,5f5adea66120081ea0f57a61,5f5c7aa3de3d54462326d9b2,4,,,,,,bench,,,,,,0,39,39,59,1,6,0,,,,,,,,,,,,,,,,,,,,,,,,,,,,,,,,,,,,,,,,,,,,,,,,,,,,,,,,,,,,,,,,,,,,,,,,,,,
,,,,,,,,,,stimuli/images/PICTURE_314.png,GODS,571de12713b1b70012be47f6,14/07/1955,2020-09-12_08h50.25.739,proactive3.2,2020.1.2,MacIntel,60,5f5adea66120081ea0f57a61,5f5c7aa3de3d54462326d9b2,4,,,,,,perfume,,,,,,0,40,40,11,1,2,0,,,,,,,,,,,,,,,,,,,,,,,,,,,,,,,,,,,,,,,,,,,,,,,,,,,,,,,,,,,,,,,,,,,,,,,,,,,
,,,,,,,,,,stimuli/images/PICTURE_488.png,STYLE,571de12713b1b70012be47f6,14/07/1955,2020-09-12_08h50.25.739,proactive3.2,2020.1.2,MacIntel,60,5f5adea66120081ea0f57a61,5f5c7aa3de3d54462326d9b2,4,,,,,,sun,,,,,,0,41,41,33,1,4,0,,,,,,,,,,,,,,,,,,,,,,,,,,,,,,,,,,,,,,,,,,,,,,,,,,,,,,,,,,,,,,,,,,,,,,,,,,,
,,,,,,,,,,stimuli/images/PICTURE_208.png,LOTS,571de12713b1b70012be47f6,14/07/1955,2020-09-12_08h50.25.739,proactive3.2,2020.1.2,MacIntel,60,5f5adea66120081ea0f57a61,5f5c7aa3de3d54462326d9b2,4,,,,,,microphone,,,,,,0,42,42,10,1,2,0,,,,,,,,,,,,,,,,,,,,,,,,,,,,,,,,,,,,,,,,,,,,,,,,,,,,,,,,,,,,,,,,,,,,,,,,,,,
,,,,,,,,,,stimuli/images/PICTURE_675.png,WEAPON,571de12713b1b70012be47f6,14/07/1955,2020-09-12_08h50.25.739,proactive3.2,2020.1.2,MacIntel,60,5f5adea66120081ea0f57a61,5f5c7aa3de3d54462326d9b2,4,,,,,,windmill,,,,,,0,43,43,32,1,4,0,,,,,,,,,,,,,,,,,,,,,,,,,,,,,,,,,,,,,,,,,,,,,,,,,,,,,,,,,,,,,,,,,,,,,,,,,,,
,,,,,,,,,,stimuli/images/PICTURE_708.png,CLIENT,571de12713b1b70012be47f6,14/07/1955,2020-09-12_08h50.25.739,proactive3.2,2020.1.2,MacIntel,60,5f5adea66120081ea0f57a61,5f5c7aa3de3d54462326d9b2,4,,,,,,monkey,,,,,,0,44,44,5,1,1,0,,,,,,,,,,,,,,,,,,,,,,,,,,,,,,,,,,,,,,,,,,,,,,,,,,,,,,,,,,,,,,,,,,,,,,,,,,,
,,,,,,,,,,stimuli/images/PICTURE_667.png,BATH,571de12713b1b70012be47f6,14/07/1955,2020-09-12_08h50.25.739,proactive3.2,2020.1.2,MacIntel,60,5f5adea66120081ea0f57a61,5f5c7aa3de3d54462326d9b2,4,,,,,,daisy,,,,,,0,45,45,4,1,1,0,,,,,,,,,,,,,,,,,,,,,,,,,,,,,,,,,,,,,,,,,,,,,,,,,,,,,,,,,,,,,,,,,,,,,,,,,,,
,,,,,,,,,,stimuli/images/PICTURE_744.png,SYSTEM,571de12713b1b70012be47f6,14/07/1955,2020-09-12_08h50.25.739,proactive3.2,2020.1.2,MacIntel,60,5f5adea66120081ea0f57a61,5f5c7aa3de3d54462326d9b2,4,,,,,,ring,,,,,,0,46,46,43,1,5,0,,,,,,,,,,,,,,,,,,,,,,,,,,,,,,,,,,,,,,,,,,,,,,,,,,,,,,,,,,,,,,,,,,,,,,,,,,,
,,,,,,,,,,stimuli/images/PICTURE_692.png,MONTH,571de12713b1b70012be47f6,14/07/1955,2020-09-12_08h50.25.739,proactive3.2,2020.1.2,MacIntel,60,5f5adea66120081ea0f57a61,5f5c7aa3de3d54462326d9b2,4,,,,,,cherry,,,,,,0,47,47,16,1,2,0,,,,,,,,,,,,,,,,,,,,,,,,,,,,,,,,,,,,,,,,,,,,,,,,,,,,,,,,,,,,,,,,,,,,,,,,,,,
,,,,,,,,,,stimuli/images/PICTURE_95.png,STYLE,571de12713b1b70012be47f6,14/07/1955,2020-09-12_08h50.25.739,proactive3.2,2020.1.2,MacIntel,60,5f5adea66120081ea0f57a61,5f5c7aa3de3d54462326d9b2,4,,,,,,suitcase,,,,,,0,48,48,25,1,3,0,,,,,,,,,,,,,,,,,,,,,,,,,,,,,,,,,,,,,,,,,,,,,,,,,,,,,,,,,,,,,,,,,,,,,,,,,,,
,,,,,,,,,,stimuli/images/PICTURE_215.png,PLENTY,571de12713b1b70012be47f6,14/07/1955,2020-09-12_08h50.25.739,proactive3.2,2020.1.2,MacIntel,60,5f5adea66120081ea0f57a61,5f5c7aa3de3d54462326d9b2,4,,,,,,boot,,,,,,0,49,49,37,1,4,0,,,,,,,,,,,,,,,,,,,,,,,,,,,,,,,,,,,,,,,,,,,,,,,,,,,,,,,,,,,,,,,,,,,,,,,,,,,
,,,,,,,,,,stimuli/images/PICTURE_160.png,FEET,571de12713b1b70012be47f6,14/07/1955,2020-09-12_08h50.25.739,proactive3.2,2020.1.2,MacIntel,60,5f5adea66120081ea0f57a61,5f5c7aa3de3d54462326d9b2,4,,,,,,wheelbarrow,,,,,,0,50,50,58,1,6,0,,,,,,,,,,,,,,,,,,,,,,,,,,,,,,,,,,,,,,,,,,,,,,,,,,,,,,,,,,,,,,,,,,,,,,,,,,,
,,,,,,,,,,stimuli/images/PICTURE_469.png,LETTER,571de12713b1b70012be47f6,14/07/1955,2020-09-12_08h50.25.739,proactive3.2,2020.1.2,MacIntel,60,5f5adea66120081ea0f57a61,5f5c7aa3de3d54462326d9b2,4,,,,,,stool,,,,,,0,51,51,42,1,5,0,,,,,,,,,,,,,,,,,,,,,,,,,,,,,,,,,,,,,,,,,,,,,,,,,,,,,,,,,,,,,,,,,,,,,,,,,,,
,,,,,,,,,,stimuli/images/PICTURE_123.png,ADVICE,571de12713b1b70012be47f6,14/07/1955,2020-09-12_08h50.25.739,proactive3.2,2020.1.2,MacIntel,60,5f5adea66120081ea0f57a61,5f5c7aa3de3d54462326d9b2,4,,,,,,dart,,,,,,0,52,52,40,1,5,0,,,,,,,,,,,,,,,,,,,,,,,,,,,,,,,,,,,,,,,,,,,,,,,,,,,,,,,,,,,,,,,,,,,,,,,,,,,
,,,,,,,,,,stimuli/images/PICTURE_380.png,PHOTO,571de12713b1b70012be47f6,14/07/1955,2020-09-12_08h50.25.739,proactive3.2,2020.1.2,MacIntel,60,5f5adea66120081ea0f57a61,5f5c7aa3de3d54462326d9b2,4,,,,,,gorilla,,,,,,0,53,53,52,1,6,0,,,,,,,,,,,,,,,,,,,,,,,,,,,,,,,,,,,,,,,,,,,,,,,,,,,,,,,,,,,,,,,,,,,,,,,,,,,
,,,,,,,,,,stimuli/images/PICTURE_744.png,SAKE,571de12713b1b70012be47f6,14/07/1955,2020-09-12_08h50.25.739,proactive3.2,2020.1.2,MacIntel,60,5f5adea66120081ea0f57a61,5f5c7aa3de3d54462326d9b2,4,,,,,,ring,,,,,,0,54,54,17,1,2,0,,,,,,,,,,,,,,,,,,,,,,,,,,,,,,,,,,,,,,,,,,,,,,,,,,,,,,,,,,,,,,,,,,,,,,,,,,,
,,,,,,,,,,stimuli/images/PICTURE_504.png,BODY,571de12713b1b70012be47f6,14/07/1955,2020-09-12_08h50.25.739,proactive3.2,2020.1.2,MacIntel,60,5f5adea66120081ea0f57a61,5f5c7aa3de3d54462326d9b2,4,,,,,,wheel,,,,,,0,55,55,8,1,1,0,,,,,,,,,,,,,,,,,,,,,,,,,,,,,,,,,,,,,,,,,,,,,,,,,,,,,,,,,,,,,,,,,,,,,,,,,,,
,,,,,,,,,,stimuli/images/PICTURE_453.png,PLENTY,571de12713b1b70012be47f6,14/07/1955,2020-09-12_08h50.25.739,proactive3.2,2020.1.2,MacIntel,60,5f5adea66120081ea0f57a61,5f5c7aa3de3d54462326d9b2,4,,,,,,scissors,,,,,,0,56,56,56,1,6,0,,,,,,,,,,,,,,,,,,,,,,,,,,,,,,,,,,,,,,,,,,,,,,,,,,,,,,,,,,,,,,,,,,,,,,,,,,,
,,,,,,,,,,stimuli/images/PICTURE_491.png,ROOF,571de12713b1b70012be47f6,14/07/1955,2020-09-12_08h50.25.739,proactive3.2,2020.1.2,MacIntel,60,5f5adea66120081ea0f57a61,5f5c7aa3de3d54462326d9b2,4,,,,,,rug,,,,,,0,57,57,24,1,3,0,,,,,,,,,,,,,,,,,,,,,,,,,,,,,,,,,,,,,,,,,,,,,,,,,,,,,,,,,,,,,,,,,,,,,,,,,,,
,,,,,,,,,,stimuli/images/PICTURE_177.png,CARS,571de12713b1b70012be47f6,14/07/1955,2020-09-12_08h50.25.739,proactive3.2,2020.1.2,MacIntel,60,5f5adea66120081ea0f57a61,5f5c7aa3de3d54462326d9b2,4,,,,,,mushroom,,,,,,0,58,58,35,1,4,0,,,,,,,,,,,,,,,,,,,,,,,,,,,,,,,,,,,,,,,,,,,,,,,,,,,,,,,,,,,,,,,,,,,,,,,,,,,
,,CARS,1.83,1,,,,,,stimuli/images/PICTURE_177.png,CARS,571de12713b1b70012be47f6,14/07/1955,2020-09-12_08h50.25.739,proactive3.2,2020.1.2,MacIntel,60,5f5adea66120081ea0f57a61,5f5c7aa3de3d54462326d9b2,4,,,,,,mushroom,,,,,,,,,,,4,0,0,0,0,35,1,,,,,,,,,,,,,,,,,,,,,,,,,,,,,,,,,,,,,,,,,,,,,,,,,,,,,,,,,,,,,,,,,,,,,,
,,?,0.001,0,,,,,,stimuli/images/PICTURE_208.png,THING,571de12713b1b70012be47f6,14/07/1955,2020-09-12_08h50.25.739,proactive3.2,2020.1.2,MacIntel,60,5f5adea66120081ea0f57a61,5f5c7aa3de3d54462326d9b2,4,,,,,,microphone,,,,,,,,,,,5,0,0,1,1,47,1,,,,,,,,,,,,,,,,,,,,,,,,,,,,,,,,,,,,,,,,,,,,,,,,,,,,,,,,,,,,,,,,,,,,,,
,,?,0.001,0,,,,,,stimuli/images/PICTURE_708.png,CLIENT,571de12713b1b70012be47f6,14/07/1955,2020-09-12_08h50.25.739,proactive3.2,2020.1.2,MacIntel,60,5f5adea66120081ea0f57a61,5f5c7aa3de3d54462326d9b2,4,,,,,,monkey,,,,,,,,,,,1,0,0,2,2,5,1,,,,,,,,,,,,,,,,,,,,,,,,,,,,,,,,,,,,,,,,,,,,,,,,,,,,,,,,,,,,,,,,,,,,,,
,,?,0.001,0,,,,,,stimuli/images/PICTURE_667.png,BATH,571de12713b1b70012be47f6,14/07/1955,2020-09-12_08h50.25.739,proactive3.2,2020.1.2,MacIntel,60,5f5adea66120081ea0f57a61,5f5c7aa3de3d54462326d9b2,4,,,,,,daisy,,,,,,,,,,,1,0,0,3,3,4,1,,,,,,,,,,,,,,,,,,,,,,,,,,,,,,,,,,,,,,,,,,,,,,,,,,,,,,,,,,,,,,,,,,,,,,
,,?,0,0,,,,,,stimuli/images/PICTURE_208.png,LOTS,571de12713b1b70012be47f6,14/07/1955,2020-09-12_08h50.25.739,proactive3.2,2020.1.2,MacIntel,60,5f5adea66120081ea0f57a61,5f5c7aa3de3d54462326d9b2,4,,,,,,microphone,,,,,,,,,,,2,0,0,4,4,10,1,,,,,,,,,,,,,,,,,,,,,,,,,,,,,,,,,,,,,,,,,,,,,,,,,,,,,,,,,,,,,,,,,,,,,,
,,PLENTY,2.111,1,,,,,,stimuli/images/PICTURE_215.png,PLENTY,571de12713b1b70012be47f6,14/07/1955,2020-09-12_08h50.25.739,proactive3.2,2020.1.2,MacIntel,60,5f5adea66120081ea0f57a61,5f5c7aa3de3d54462326d9b2,4,,,,,,boot,,,,,,,,,,,4,0,0,5,5,37,1,,,,,,,,,,,,,,,,,,,,,,,,,,,,,,,,,,,,,,,,,,,,,,,,,,,,,,,,,,,,,,,,,,,,,,
,,?,0.002,0,,,,,,stimuli/images/PICTURE_356.png,DANGER,571de12713b1b70012be47f6,14/07/1955,2020-09-12_08h50.25.739,proactive3.2,2020.1.2,MacIntel,60,5f5adea66120081ea0f57a61,5f5c7aa3de3d54462326d9b2,4,,,,,,pawn,,,,,,,,,,,6,0,0,6,6,55,1,,,,,,,,,,,,,,,,,,,,,,,,,,,,,,,,,,,,,,,,,,,,,,,,,,,,,,,,,,,,,,,,,,,,,,
,,?,0.001,0,,,,,,stimuli/images/PICTURE_348.png,SPEECH,571de12713b1b70012be47f6,14/07/1955,2020-09-12_08h50.25.739,proactive3.2,2020.1.2,MacIntel,60,5f5adea66120081ea0f57a61,5f5c7aa3de3d54462326d9b2,4,,,,,,pepper,,,,,,,,,,,3,0,0,7,7,20,1,,,,,,,,,,,,,,,,,,,,,,,,,,,,,,,,,,,,,,,,,,,,,,,,,,,,,,,,,,,,,,,,,,,,,,
,,?,0.001,0,,,,,,stimuli/images/PICTURE_708.png,YARD,571de12713b1b70012be47f6,14/07/1955,2020-09-12_08h50.25.739,proactive3.2,2020.1.2,MacIntel,60,5f5adea66120081ea0f57a61,5f5c7aa3de3d54462326d9b2,4,,,,,,monkey,,,,,,,,,,,3,0,0,8,8,29,1,,,,,,,,,,,,,,,,,,,,,,,,,,,,,,,,,,,,,,,,,,,,,,,,,,,,,,,,,,,,,,,,,,,,,,
,,?,0.001,0,,,,,,stimuli/images/PICTURE_469.png,ARTIST,571de12713b1b70012be47f6,14/07/1955,2020-09-12_08h50.25.739,proactive3.2,2020.1.2,MacIntel,60,5f5adea66120081ea0f57a61,5f5c7aa3de3d54462326d9b2,4,,,,,,stool,,,,,,,,,,,1,0,0,9,9,6,1,,,,,,,,,,,,,,,,,,,,,,,,,,,,,,,,,,,,,,,,,,,,,,,,,,,,,,,,,,,,,,,,,,,,,,
,,?,0.001,0,,,,,,stimuli/images/PICTURE_667.png,PLENTY,571de12713b1b70012be47f6,14/07/1955,2020-09-12_08h50.25.739,proactive3.2,2020.1.2,MacIntel,60,5f5adea66120081ea0f57a61,5f5c7aa3de3d54462326d9b2,4,,,,,,daisy,,,,,,,,,,,5,0,0,10,10,41,1,,,,,,,,,,,,,,,,,,,,,,,,,,,,,,,,,,,,,,,,,,,,,,,,,,,,,,,,,,,,,,,,,,,,,,
,,?,0.001,0,,,,,,stimuli/images/PICTURE_453.png,PLENTY,571de12713b1b70012be47f6,14/07/1955,2020-09-12_08h50.25.739,proactive3.2,2020.1.2,MacIntel,60,5f5adea66120081ea0f57a61,5f5c7aa3de3d54462326d9b2,4,,,,,,scissors,,,,,,,,,,,6,0,0,11,11,56,1,,,,,,,,,,,,,,,,,,,,,,,,,,,,,,,,,,,,,,,,,,,,,,,,,,,,,,,,,,,,,,,,,,,,,,
,,?,0,0,,,,,,stimuli/images/PICTURE_491.png,ROOF,571de12713b1b70012be47f6,14/07/1955,2020-09-12_08h50.25.739,proactive3.2,2020.1.2,MacIntel,60,5f5adea66120081ea0f57a61,5f5c7aa3de3d54462326d9b2,4,,,,,,rug,,,,,,,,,,,3,0,0,12,12,24,1,,,,,,,,,,,,,,,,,,,,,,,,,,,,,,,,,,,,,,,,,,,,,,,,,,,,,,,,,,,,,,,,,,,,,,
,,?,0.001,0,,,,,,stimuli/images/PICTURE_123.png,ADVICE,571de12713b1b70012be47f6,14/07/1955,2020-09-12_08h50.25.739,proactive3.2,2020.1.2,MacIntel,60,5f5adea66120081ea0f57a61,5f5c7aa3de3d54462326d9b2,4,,,,,,dart,,,,,,,,,,,6,0,0,13,13,50,1,,,,,,,,,,,,,,,,,,,,,,,,,,,,,,,,,,,,,,,,,,,,,,,,,,,,,,,,,,,,,,,,,,,,,,
,,?,0.001,0,,,,,,stimuli/images/PICTURE_688.png,CASINO,571de12713b1b70012be47f6,14/07/1955,2020-09-12_08h50.25.739,proactive3.2,2020.1.2,MacIntel,60,5f5adea66120081ea0f57a61,5f5c7aa3de3d54462326d9b2,4,,,,,,runner,,,,,,,,,,,1,0,0,14,14,2,1,,,,,,,,,,,,,,,,,,,,,,,,,,,,,,,,,,,,,,,,,,,,,,,,,,,,,,,,,,,,,,,,,,,,,,
,,?,0.001,0,,,,,,stimuli/images/PICTURE_692.png,MONTH,571de12713b1b70012be47f6,14/07/1955,2020-09-12_08h50.25.739,proactive3.2,2020.1.2,MacIntel,60,5f5adea66120081ea0f57a61,5f5c7aa3de3d54462326d9b2,4,,,,,,cherry,,,,,,,,,,,2,0,0,15,15,16,1,,,,,,,,,,,,,,,,,,,,,,,,,,,,,,,,,,,,,,,,,,,,,,,,,,,,,,,,,,,,,,,,,,,,,,
,,?,0,0,,,,,,stimuli/images/PICTURE_327.png,BEAUTY,571de12713b1b70012be47f6,14/07/1955,2020-09-12_08h50.25.739,proactive3.2,2020.1.2,MacIntel,60,5f5adea66120081ea0f57a61,5f5c7aa3de3d54462326d9b2,4,,,,,,helmet,,,,,,,,,,,5,0,0,16,16,48,1,,,,,,,,,,,,,,,,,,,,,,,,,,,,,,,,,,,,,,,,,,,,,,,,,,,,,,,,,,,,,,,,,,,,,,
,,?,0.001,0,,,,,,stimuli/images/PICTURE_85.png,THING,571de12713b1b70012be47f6,14/07/1955,2020-09-12_08h50.25.739,proactive3.2,2020.1.2,MacIntel,60,5f5adea66120081ea0f57a61,5f5c7aa3de3d54462326d9b2,4,,,,,,diamond,,,,,,,,,,,2,0,0,17,17,15,1,,,,,,,,,,,,,,,,,,,,,,,,,,,,,,,,,,,,,,,,,,,,,,,,,,,,,,,,,,,,,,,,,,,,,,
,,?,0.001,0,,,,,,stimuli/images/PICTURE_203.png,ARTIST,571de12713b1b70012be47f6,14/07/1955,2020-09-12_08h50.25.739,proactive3.2,2020.1.2,MacIntel,60,5f5adea66120081ea0f57a61,5f5c7aa3de3d54462326d9b2,4,,,,,,cap,,,,,,,,,,,3,0,0,18,18,26,1,,,,,,,,,,,,,,,,,,,,,,,,,,,,,,,,,,,,,,,,,,,,,,,,,,,,,,,,,,,,,,,,,,,,,,
,,?,0.001,0,,,,,,stimuli/images/PICTURE_123.png,ADVICE,571de12713b1b70012be47f6,14/07/1955,2020-09-12_08h50.25.739,proactive3.2,2020.1.2,MacIntel,60,5f5adea66120081ea0f57a61,5f5c7aa3de3d54462326d9b2,4,,,,,,dart,,,,,,,,,,,5,0,0,19,19,40,1,,,,,,,,,,,,,,,,,,,,,,,,,,,,,,,,,,,,,,,,,,,,,,,,,,,,,,,,,,,,,,,,,,,,,,
,,FRIEND,2.37,1,,,,,,stimuli/images/PICTURE_311.png,FRIEND,571de12713b1b70012be47f6,14/07/1955,2020-09-12_08h50.25.739,proactive3.2,2020.1.2,MacIntel,60,5f5adea66120081ea0f57a61,5f5c7aa3de3d54462326d9b2,4,,,,,,razor,,,,,,,,,,,4,0,0,20,20,34,1,,,,,,,,,,,,,,,,,,,,,,,,,,,,,,,,,,,,,,,,,,,,,,,,,,,,,,,,,,,,,,,,,,,,,,
,,?,0.001,0,,,,,,stimuli/images/PICTURE_68.png,MILE,571de12713b1b70012be47f6,14/07/1955,2020-09-12_08h50.25.739,proactive3.2,2020.1.2,MacIntel,60,5f5adea66120081ea0f57a61,5f5c7aa3de3d54462326d9b2,4,,,,,,candle,,,,,,,,,,,5,0,0,21,21,44,1,,,,,,,,,,,,,,,,,,,,,,,,,,,,,,,,,,,,,,,,,,,,,,,,,,,,,,,,,,,,,,,,,,,,,,
,,?,0.001,0,,,,,,stimuli/images/PICTURE_147.png,MOMENT,571de12713b1b70012be47f6,14/07/1955,2020-09-12_08h50.25.739,proactive3.2,2020.1.2,MacIntel,60,5f5adea66120081ea0f57a61,5f5c7aa3de3d54462326d9b2,4,,,,,,hanger,,,,,,,,,,,6,0,0,22,22,51,1,,,,,,,,,,,,,,,,,,,,,,,,,,,,,,,,,,,,,,,,,,,,,,,,,,,,,,,,,,,,,,,,,,,,,,
,,?,0.001,0,,,,,,stimuli/images/PICTURE_285.png,ADVICE,571de12713b1b70012be47f6,14/07/1955,2020-09-12_08h50.25.739,proactive3.2,2020.1.2,MacIntel,60,5f5adea66120081ea0f57a61,5f5c7aa3de3d54462326d9b2,4,,,,,,carrot,,,,,,,,,,,2,0,0,23,23,12,1,,,,,,,,,,,,,,,,,,,,,,,,,,,,,,,,,,,,,,,,,,,,,,,,,,,,,,,,,,,,,,,,,,,,,,
,,?,0,0,,,,,,stimuli/images/PICTURE_314.png,SAKE,571de12713b1b70012be47f6,14/07/1955,2020-09-12_08h50.25.739,proactive3.2,2020.1.2,MacIntel,60,5f5adea66120081ea0f57a61,5f5c7aa3de3d54462326d9b2,4,,,,,,perfume,,,,,,,,,,,1,0,0,24,24,7,1,,,,,,,,,,,,,,,,,,,,,,,,,,,,,,,,,,,,,,,,,,,,,,,,,,,,,,,,,,,,,,,,,,,,,,
,,STYLE,1.845,1,,,,,,stimuli/images/PICTURE_488.png,STYLE,571de12713b1b70012be47f6,14/07/1955,2020-09-12_08h50.25.739,proactive3.2,2020.1.2,MacIntel,60,5f5adea66120081ea0f57a61,5f5c7aa3de3d54462326d9b2,4,,,,,,sun,,,,,,,,,,,4,0,0,25,25,33,1,,,,,,,,,,,,,,,,,,,,,,,,,,,,,,,,,,,,,,,,,,,,,,,,,,,,,,,,,,,,,,,,,,,,,,
,,?,0,0,,,,,,stimuli/images/PICTURE_487.png,FLIGHT,571de12713b1b70012be47f6,14/07/1955,2020-09-12_08h50.25.739,proactive3.2,2020.1.2,MacIntel,60,5f5adea66120081ea0f57a61,5f5c7aa3de3d54462326d9b2,4,,,,,,basket,,,,,,,,,,,1,0,0,26,26,9,1,,,,,,,,,,,,,,,,,,,,,,,,,,,,,,,,,,,,,,,,,,,,,,,,,,,,,,,,,,,,,,,,,,,,,,
,,WEAPON,2.334,1,,,,,,stimuli/images/PICTURE_675.png,WEAPON,571de12713b1b70012be47f6,14/07/1955,2020-09-12_08h50.25.739,proactive3.2,2020.1.2,MacIntel,60,5f5adea66120081ea0f57a61,5f5c7aa3de3d54462326d9b2,4,,,,,,windmill,,,,,,,,,,,4,0,0,27,27,32,1,,,,,,,,,,,,,,,,,,,,,,,,,,,,,,,,,,,,,,,,,,,,,,,,,,,,,,,,,,,,,,,,,,,,,,
,,CASINO,2.504,1,,,,,,stimuli/images/PICTURE_470.png,CASINO,571de12713b1b70012be47f6,14/07/1955,2020-09-12_08h50.25.739,proactive3.2,2020.1.2,MacIntel,60,5f5adea66120081ea0f57a61,5f5c7aa3de3d54462326d9b2,4,,,,,,motorbike,,,,,,,,,,,4,0,0,28,28,36,1,,,,,,,,,,,,,,,,,,,,,,,,,,,,,,,,,,,,,,,,,,,,,,,,,,,,,,,,,,,,,,,,,,,,,,
,,?,0.002,0,,,,,,stimuli/images/PICTURE_233.png,IDEAS,571de12713b1b70012be47f6,14/07/1955,2020-09-12_08h50.25.739,proactive3.2,2020.1.2,MacIntel,60,5f5adea66120081ea0f57a61,5f5c7aa3de3d54462326d9b2,4,,,,,,salt,,,,,,,,,,,3,0,0,29,29,28,1,,,,,,,,,,,,,,,,,,,,,,,,,,,,,,,,,,,,,,,,,,,,,,,,,,,,,,,,,,,,,,,,,,,,,,
,,?,0.001,0,,,,,,stimuli/images/PICTURE_467.png,DEMON,571de12713b1b70012be47f6,14/07/1955,2020-09-12_08h50.25.739,proactive3.2,2020.1.2,MacIntel,60,5f5adea66120081ea0f57a61,5f5c7aa3de3d54462326d9b2,4,,,,,,peg,,,,,,,,,,,3,0,0,30,30,23,1,,,,,,,,,,,,,,,,,,,,,,,,,,,,,,,,,,,,,,,,,,,,,,,,,,,,,,,,,,,,,,,,,,,,,,
,,?,0,0,,,,,,stimuli/images/PICTURE_453.png,DUDE,571de12713b1b70012be47f6,14/07/1955,2020-09-12_08h50.25.739,proactive3.2,2020.1.2,MacIntel,60,5f5adea66120081ea0f57a61,5f5c7aa3de3d54462326d9b2,4,,,,,,scissors,,,,,,,,,,,3,0,0,31,31,27,1,,,,,,,,,,,,,,,,,,,,,,,,,,,,,,,,,,,,,,,,,,,,,,,,,,,,,,,,,,,,,,,,,,,,,,
,,?,0.001,0,,,,,,stimuli/images/PICTURE_255.png,AREA,571de12713b1b70012be47f6,14/07/1955,2020-09-12_08h50.25.739,proactive3.2,2020.1.2,MacIntel,60,5f5adea66120081ea0f57a61,5f5c7aa3de3d54462326d9b2,4,,,,,,shovel,,,,,,,,,,,3,0,0,32,32,22,1,,,,,,,,,,,,,,,,,,,,,,,,,,,,,,,,,,,,,,,,,,,,,,,,,,,,,,,,,,,,,,,,,,,,,,
,,?,0.001,0,,,,,,stimuli/images/PICTURE_654.png,VALLEY,571de12713b1b70012be47f6,14/07/1955,2020-09-12_08h50.25.739,proactive3.2,2020.1.2,MacIntel,60,5f5adea66120081ea0f57a61,5f5c7aa3de3d54462326d9b2,4,,,,,,pencil,,,,,,,,,,,1,0,0,33,33,1,1,,,,,,,,,,,,,,,,,,,,,,,,,,,,,,,,,,,,,,,,,,,,,,,,,,,,,,,,,,,,,,,,,,,,,,
,,?,0,0,,,,,,stimuli/images/PICTURE_208.png,MONTH,571de12713b1b70012be47f6,14/07/1955,2020-09-12_08h50.25.739,proactive3.2,2020.1.2,MacIntel,60,5f5adea66120081ea0f57a61,5f5c7aa3de3d54462326d9b2,4,,,,,,microphone,,,,,,,,,,,6,0,0,34,34,53,1,,,,,,,,,,,,,,,,,,,,,,,,,,,,,,,,,,,,,,,,,,,,,,,,,,,,,,,,,,,,,,,,,,,,,,
,,?,0.001,0,,,,,,stimuli/images/PICTURE_32.png,JUNGLE,571de12713b1b70012be47f6,14/07/1955,2020-09-12_08h50.25.739,proactive3.2,2020.1.2,MacIntel,60,5f5adea66120081ea0f57a61,5f5c7aa3de3d54462326d9b2,4,,,,,,crown,,,,,,,,,,,5,0,0,35,35,45,1,,,,,,,,,,,,,,,,,,,,,,,,,,,,,,,,,,,,,,,,,,,,,,,,,,,,,,,,,,,,,,,,,,,,,,
,,?,0.001,0,,,,,,stimuli/images/PICTURE_491.png,WRITER,571de12713b1b70012be47f6,14/07/1955,2020-09-12_08h50.25.739,proactive3.2,2020.1.2,MacIntel,60,5f5adea66120081ea0f57a61,5f5c7aa3de3d54462326d9b2,4,,,,,,rug,,,,,,,,,,,6,0,0,36,36,57,1,,,,,,,,,,,,,,,,,,,,,,,,,,,,,,,,,,,,,,,,,,,,,,,,,,,,,,,,,,,,,,,,,,,,,,
,,?,0,0,,,,,,stimuli/images/PICTURE_160.png,LEADER,571de12713b1b70012be47f6,14/07/1955,2020-09-12_08h50.25.739,proactive3.2,2020.1.2,MacIntel,60,5f5adea66120081ea0f57a61,5f5c7aa3de3d54462326d9b2,4,,,,,,wheelbarrow,,,,,,,,,,,1,0,0,37,37,3,1,,,,,,,,,,,,,,,,,,,,,,,,,,,,,,,,,,,,,,,,,,,,,,,,,,,,,,,,,,,,,,,,,,,,,,
,,?,0.002,0,,,,,,stimuli/images/PICTURE_308.png,KIND,571de12713b1b70012be47f6,14/07/1955,2020-09-12_08h50.25.739,proactive3.2,2020.1.2,MacIntel,60,5f5adea66120081ea0f57a61,5f5c7aa3de3d54462326d9b2,4,,,,,,dice,,,,,,,,,,,6,0,0,38,38,54,1,,,,,,,,,,,,,,,,,,,,,,,,,,,,,,,,,,,,,,,,,,,,,,,,,,,,,,,,,,,,,,,,,,,,,,
,,DOZEN,2.437,1,,,,,,stimuli/images/PICTURE_248.png,DOZEN,571de12713b1b70012be47f6,14/07/1955,2020-09-12_08h50.25.739,proactive3.2,2020.1.2,MacIntel,60,5f5adea66120081ea0f57a61,5f5c7aa3de3d54462326d9b2,4,,,,,,cart,,,,,,,,,,,4,0,0,39,39,39,1,,,,,,,,,,,,,,,,,,,,,,,,,,,,,,,,,,,,,,,,,,,,,,,,,,,,,,,,,,,,,,,,,,,,,,
,,?,0,0,,,,,,stimuli/images/PICTURE_308.png,ESTATE,571de12713b1b70012be47f6,14/07/1955,2020-09-12_08h50.25.739,proactive3.2,2020.1.2,MacIntel,60,5f5adea66120081ea0f57a61,5f5c7aa3de3d54462326d9b2,4,,,,,,dice,,,,,,,,,,,5,0,0,40,40,46,1,,,,,,,,,,,,,,,,,,,,,,,,,,,,,,,,,,,,,,,,,,,,,,,,,,,,,,,,,,,,,,,,,,,,,,
,,?,0.001,0,,,,,,stimuli/images/PICTURE_151.png,GIRL,571de12713b1b70012be47f6,14/07/1955,2020-09-12_08h50.25.739,proactive3.2,2020.1.2,MacIntel,60,5f5adea66120081ea0f57a61,5f5c7aa3de3d54462326d9b2,4,,,,,,tray,,,,,,,,,,,2,0,0,41,41,19,1,,,,,,,,,,,,,,,,,,,,,,,,,,,,,,,,,,,,,,,,,,,,,,,,,,,,,,,,,,,,,,,,,,,,,,
,,WOMEN,1.992,1,,,,,,stimuli/images/PICTURE_233.png,WOMEN,571de12713b1b70012be47f6,14/07/1955,2020-09-12_08h50.25.739,proactive3.2,2020.1.2,MacIntel,60,5f5adea66120081ea0f57a61,5f5c7aa3de3d54462326d9b2,4,,,,,,salt,,,,,,,,,,,4,0,0,42,42,38,1,,,,,,,,,,,,,,,,,,,,,,,,,,,,,,,,,,,,,,,,,,,,,,,,,,,,,,,,,,,,,,,,,,,,,,
,,MILE,1.686,1,,,,,,stimuli/images/PICTURE_677.png,MILE,571de12713b1b70012be47f6,14/07/1955,2020-09-12_08h50.25.739,proactive3.2,2020.1.2,MacIntel,60,5f5adea66120081ea0f57a61,5f5c7aa3de3d54462326d9b2,4,,,,,,map,,,,,,,,,,,4,0,0,43,43,30,1,,,,,,,,,,,,,,,,,,,,,,,,,,,,,,,,,,,,,,,,,,,,,,,,,,,,,,,,,,,,,,,,,,,,,,
,,?,0.001,0,,,,,,stimuli/images/PICTURE_449.png,THING,571de12713b1b70012be47f6,14/07/1955,2020-09-12_08h50.25.739,proactive3.2,2020.1.2,MacIntel,60,5f5adea66120081ea0f57a61,5f5c7aa3de3d54462326d9b2,4,,,,,,bench,,,,,,,,,,,6,0,0,44,44,59,1,,,,,,,,,,,,,,,,,,,,,,,,,,,,,,,,,,,,,,,,,,,,,,,,,,,,,,,,,,,,,,,,,,,,,,
,,PENNY,1.985,1,,,,,,stimuli/images/PICTURE_708.png,PENNY,571de12713b1b70012be47f6,14/07/1955,2020-09-12_08h50.25.739,proactive3.2,2020.1.2,MacIntel,60,5f5adea66120081ea0f57a61,5f5c7aa3de3d54462326d9b2,4,,,,,,monkey,,,,,,,,,,,4,0,0,45,45,31,1,,,,,,,,,,,,,,,,,,,,,,,,,,,,,,,,,,,,,,,,,,,,,,,,,,,,,,,,,,,,,,,,,,,,,,
,,?,0,0,,,,,,stimuli/images/PICTURE_380.png,DEATH,571de12713b1b70012be47f6,14/07/1955,2020-09-12_08h50.25.739,proactive3.2,2020.1.2,MacIntel,60,5f5adea66120081ea0f57a61,5f5c7aa3de3d54462326d9b2,4,,,,,,gorilla,,,,,,,,,,,5,0,0,46,46,49,1,,,,,,,,,,,,,,,,,,,,,,,,,,,,,,,,,,,,,,,,,,,,,,,,,,,,,,,,,,,,,,,,,,,,,,
,,?,0.001,0,,,,,,stimuli/images/PICTURE_380.png,PHOTO,571de12713b1b70012be47f6,14/07/1955,2020-09-12_08h50.25.739,proactive3.2,2020.1.2,MacIntel,60,5f5adea66120081ea0f57a61,5f5c7aa3de3d54462326d9b2,4,,,,,,gorilla,,,,,,,,,,,6,0,0,47,47,52,1,,,,,,,,,,,,,,,,,,,,,,,,,,,,,,,,,,,,,,,,,,,,,,,,,,,,,,,,,,,,,,,,,,,,,,
,,?,0.001,0,,,,,,stimuli/images/PICTURE_688.png,WOMEN,571de12713b1b70012be47f6,14/07/1955,2020-09-12_08h50.25.739,proactive3.2,2020.1.2,MacIntel,60,5f5adea66120081ea0f57a61,5f5c7aa3de3d54462326d9b2,4,,,,,,runner,,,,,,,,,,,2,0,0,48,48,14,1,,,,,,,,,,,,,,,,,,,,,,,,,,,,,,,,,,,,,,,,,,,,,,,,,,,,,,,,,,,,,,,,,,,,,,
,,?,0,0,,,,,,stimuli/images/PICTURE_509.png,PHOTO,571de12713b1b70012be47f6,14/07/1955,2020-09-12_08h50.25.739,proactive3.2,2020.1.2,MacIntel,60,5f5adea66120081ea0f57a61,5f5c7aa3de3d54462326d9b2,4,,,,,,telephone,,,,,,,,,,,3,0,0,49,49,21,1,,,,,,,,,,,,,,,,,,,,,,,,,,,,,,,,,,,,,,,,,,,,,,,,,,,,,,,,,,,,,,,,,,,,,,
,,?,0.001,0,,,,,,stimuli/images/PICTURE_744.png,SYSTEM,571de12713b1b70012be47f6,14/07/1955,2020-09-12_08h50.25.739,proactive3.2,2020.1.2,MacIntel,60,5f5adea66120081ea0f57a61,5f5c7aa3de3d54462326d9b2,4,,,,,,ring,,,,,,,,,,,5,0,0,50,50,43,1,,,,,,,,,,,,,,,,,,,,,,,,,,,,,,,,,,,,,,,,,,,,,,,,,,,,,,,,,,,,,,,,,,,,,,
,,?,0.001,0,,,,,,stimuli/images/PICTURE_314.png,GODS,571de12713b1b70012be47f6,14/07/1955,2020-09-12_08h50.25.739,proactive3.2,2020.1.2,MacIntel,60,5f5adea66120081ea0f57a61,5f5c7aa3de3d54462326d9b2,4,,,,,,perfume,,,,,,,,,,,2,0,0,51,51,11,1,,,,,,,,,,,,,,,,,,,,,,,,,,,,,,,,,,,,,,,,,,,,,,,,,,,,,,,,,,,,,,,,,,,,,,
,,?,0,0,,,,,,stimuli/images/PICTURE_311.png,BEAUTY,571de12713b1b70012be47f6,14/07/1955,2020-09-12_08h50.25.739,proactive3.2,2020.1.2,MacIntel,60,5f5adea66120081ea0f57a61,5f5c7aa3de3d54462326d9b2,4,,,,,,razor,,,,,,,,,,,2,0,0,52,52,13,1,,,,,,,,,,,,,,,,,,,,,,,,,,,,,,,,,,,,,,,,,,,,,,,,,,,,,,,,,,,,,,,,,,,,,,
,,?,0,0,,,,,,stimuli/images/PICTURE_504.png,BODY,571de12713b1b70012be47f6,14/07/1955,2020-09-12_08h50.25.739,proactive3.2,2020.1.2,MacIntel,60,5f5adea66120081ea0f57a61,5f5c7aa3de3d54462326d9b2,4,,,,,,wheel,,,,,,,,,,,1,0,0,53,53,8,1,,,,,,,,,,,,,,,,,,,,,,,,,,,,,,,,,,,,,,,,,,,,,,,,,,,,,,,,,,,,,,,,,,,,,,
,,?,0,0,,,,,,stimuli/images/PICTURE_469.png,LETTER,571de12713b1b70012be47f6,14/07/1955,2020-09-12_08h50.25.739,proactive3.2,2020.1.2,MacIntel,60,5f5adea66120081ea0f57a61,5f5c7aa3de3d54462326d9b2,4,,,,,,stool,,,,,,,,,,,5,0,0,54,54,42,1,,,,,,,,,,,,,,,,,,,,,,,,,,,,,,,,,,,,,,,,,,,,,,,,,,,,,,,,,,,,,,,,,,,,,,
,,?,0.001,0,,,,,,stimuli/images/PICTURE_339.png,PLENTY,571de12713b1b70012be47f6,14/07/1955,2020-09-12_08h50.25.739,proactive3.2,2020.1.2,MacIntel,60,5f5adea66120081ea0f57a61,5f5c7aa3de3d54462326d9b2,4,,,,,,backpack,,,,,,,,,,,1,0,0,55,55,0,1,,,,,,,,,,,,,,,,,,,,,,,,,,,,,,,,,,,,,,,,,,,,,,,,,,,,,,,,,,,,,,,,,,,,,,
,,?,0.001,0,,,,,,stimuli/images/PICTURE_302.png,FAMILY,571de12713b1b70012be47f6,14/07/1955,2020-09-12_08h50.25.739,proactive3.2,2020.1.2,MacIntel,60,5f5adea66120081ea0f57a61,5f5c7aa3de3d54462326d9b2,4,,,,,,taxi,,,,,,,,,,,2,0,0,56,56,18,1,,,,,,,,,,,,,,,,,,,,,,,,,,,,,,,,,,,,,,,,,,,,,,,,,,,,,,,,,,,,,,,,,,,,,,
,,?,0,0,,,,,,stimuli/images/PICTURE_95.png,STYLE,571de12713b1b70012be47f6,14/07/1955,2020-09-12_08h50.25.739,proactive3.2,2020.1.2,MacIntel,60,5f5adea66120081ea0f57a61,5f5c7aa3de3d54462326d9b2,4,,,,,,suitcase,,,,,,,,,,,3,0,0,57,57,25,1,,,,,,,,,,,,,,,,,,,,,,,,,,,,,,,,,,,,,,,,,,,,,,,,,,,,,,,,,,,,,,,,,,,,,,
,,?,0,0,,,,,,stimuli/images/PICTURE_744.png,SAKE,571de12713b1b70012be47f6,14/07/1955,2020-09-12_08h50.25.739,proactive3.2,2020.1.2,MacIntel,60,5f5adea66120081ea0f57a61,5f5c7aa3de3d54462326d9b2,4,,,,,,ring,,,,,,,,,,,2,0,0,58,58,17,1,,,,,,,,,,,,,,,,,,,,,,,,,,,,,,,,,,,,,,,,,,,,,,,,,,,,,,,,,,,,,,,,,,,,,,
,,?,0,0,,,,,,stimuli/images/PICTURE_160.png,FEET,571de12713b1b70012be47f6,14/07/1955,2020-09-12_08h50.25.739,proactive3.2,2020.1.2,MacIntel,60,5f5adea66120081ea0f57a61,5f5c7aa3de3d54462326d9b2,4,,,,,,wheelbarrow,,,,,,,,,,,6,0,0,59,59,58,1,,,,,,,,,,,,,,,,,,,,,,,,,,,,,,,,,,,,,,,,,,,,,,,,,,,,,,,,,,,,,,,,,,,,,,
,,,,,,,,,,,,571de12713b1b70012be47f6,14/07/1955,2020-09-12_08h50.25.739,proactive3.2,2020.1.2,MacIntel,60,5f5adea66120081ea0f57a61,5f5c7aa3de3d54462326d9b2,4,,,,,,,,,,,,,,,,,,,,,,,,0,0,0,0,1,stimuli/learn-block1.csv,,,,,,,,,,,,,,,,,,,,,,,,,,,,,,,,,,,,,,,,,,,,,,,,,,,,,,,,,,,,,,,,
,,,,,,,,,,stimuli/images/PICTURE_383.png,SERIES,571de12713b1b70012be47f6,14/07/1955,2020-09-12_08h50.25.739,proactive3.2,2020.1.2,MacIntel,60,5f5adea66120081ea0f57a61,5f5c7aa3de3d54462326d9b2,4,,,,,,coin,,,,,,0,0,0,46,1,5,1,,,,,,,,,,,,,,,,,,,,,,,,,,,,,,,,,,,,,,,,,,,,,,,,,,,,,,,,,,,,,,,,,,,,,,,,,,,
,,,,,,,,,,stimuli/images/PICTURE_491.png,GLASS,571de12713b1b70012be47f6,14/07/1955,2020-09-12_08h50.25.739,proactive3.2,2020.1.2,MacIntel,60,5f5adea66120081ea0f57a61,5f5c7aa3de3d54462326d9b2,4,,,,,,rug,,,,,,0,1,1,14,1,2,1,,,,,,,,,,,,,,,,,,,,,,,,,,,,,,,,,,,,,,,,,,,,,,,,,,,,,,,,,,,,,,,,,,,,,,,,,,,
,,,,,,,,,,stimuli/images/PICTURE_68.png,ROOF,571de12713b1b70012be47f6,14/07/1955,2020-09-12_08h50.25.739,proactive3.2,2020.1.2,MacIntel,60,5f5adea66120081ea0f57a61,5f5c7aa3de3d54462326d9b2,4,,,,,,candle,,,,,,0,2,2,38,1,4,1,,,,,,,,,,,,,,,,,,,,,,,,,,,,,,,,,,,,,,,,,,,,,,,,,,,,,,,,,,,,,,,,,,,,,,,,,,,
,,,,,,,,,,stimuli/images/PICTURE_504.png,COPS,571de12713b1b70012be47f6,14/07/1955,2020-09-12_08h50.25.739,proactive3.2,2020.1.2,MacIntel,60,5f5adea66120081ea0f57a61,5f5c7aa3de3d54462326d9b2,4,,,,,,wheel,,,,,,0,3,3,52,1,6,1,,,,,,,,,,,,,,,,,,,,,,,,,,,,,,,,,,,,,,,,,,,,,,,,,,,,,,,,,,,,,,,,,,,,,,,,,,,
,,,,,,,,,,stimuli/images/PICTURE_380.png,CANDY,571de12713b1b70012be47f6,14/07/1955,2020-09-12_08h50.25.739,proactive3.2,2020.1.2,MacIntel,60,5f5adea66120081ea0f57a61,5f5c7aa3de3d54462326d9b2,4,,,,,,gorilla,,,,,,0,4,4,0,1,1,1,,,,,,,,,,,,,,,,,,,,,,,,,,,,,,,,,,,,,,,,,,,,,,,,,,,,,,,,,,,,,,,,,,,,,,,,,,,
,,,,,,,,,,stimuli/images/PICTURE_95.png,HONEY,571de12713b1b70012be47f6,14/07/1955,2020-09-12_08h50.25.739,proactive3.2,2020.1.2,MacIntel,60,5f5adea66120081ea0f57a61,5f5c7aa3de3d54462326d9b2,4,,,,,,suitcase,,,,,,0,5,5,44,1,5,1,,,,,,,,,,,,,,,,,,,,,,,,,,,,,,,,,,,,,,,,,,,,,,,,,,,,,,,,,,,,,,,,,,,,,,,,,,,
,,,,,,,,,,stimuli/images/PICTURE_708.png,RECORD,571de12713b1b70012be47f6,14/07/1955,2020-09-12_08h50.25.739,proactive3.2,2020.1.2,MacIntel,60,5f5adea66120081ea0f57a61,5f5c7aa3de3d54462326d9b2,4,,,,,,monkey,,,,,,0,6,6,58,1,6,1,,,,,,,,,,,,,,,,,,,,,,,,,,,,,,,,,,,,,,,,,,,,,,,,,,,,,,,,,,,,,,,,,,,,,,,,,,,
,,,,,,,,,,stimuli/images/PICTURE_208.png,SYSTEM,571de12713b1b70012be47f6,14/07/1955,2020-09-12_08h50.25.739,proactive3.2,2020.1.2,MacIntel,60,5f5adea66120081ea0f57a61,5f5c7aa3de3d54462326d9b2,4,,,,,,microphone,,,,,,0,7,7,32,1,4,1,,,,,,,,,,,,,,,,,,,,,,,,,,,,,,,,,,,,,,,,,,,,,,,,,,,,,,,,,,,,,,,,,,,,,,,,,,,
,,,,,,,,,,stimuli/images/PICTURE_449.png,DUDE,571de12713b1b70012be47f6,14/07/1955,2020-09-12_08h50.25.739,proactive3.2,2020.1.2,MacIntel,60,5f5adea66120081ea0f57a61,5f5c7aa3de3d54462326d9b2,4,,,,,,bench,,,,,,0,8,8,17,1,2,1,,,,,,,,,,,,,,,,,,,,,,,,,,,,,,,,,,,,,,,,,,,,,,,,,,,,,,,,,,,,,,,,,,,,,,,,,,,
,,,,,,,,,,stimuli/images/PICTURE_504.png,YEAR,571de12713b1b70012be47f6,14/07/1955,2020-09-12_08h50.25.739,proactive3.2,2020.1.2,MacIntel,60,5f5adea66120081ea0f57a61,5f5c7aa3de3d54462326d9b2,4,,,,,,wheel,,,,,,0,9,9,13,1,2,1,,,,,,,,,,,,,,,,,,,,,,,,,,,,,,,,,,,,,,,,,,,,,,,,,,,,,,,,,,,,,,,,,,,,,,,,,,,
,,,,,,,,,,stimuli/images/PICTURE_297.png,RIVER,571de12713b1b70012be47f6,14/07/1955,2020-09-12_08h50.25.739,proactive3.2,2020.1.2,MacIntel,60,5f5adea66120081ea0f57a61,5f5c7aa3de3d54462326d9b2,4,,,,,,aeroplane,,,,,,0,10,10,39,1,4,1,,,,,,,,,,,,,,,,,,,,,,,,,,,,,,,,,,,,,,,,,,,,,,,,,,,,,,,,,,,,,,,,,,,,,,,,,,,
,,,,,,,,,,stimuli/images/PICTURE_108.png,FLIGHT,571de12713b1b70012be47f6,14/07/1955,2020-09-12_08h50.25.739,proactive3.2,2020.1.2,MacIntel,60,5f5adea66120081ea0f57a61,5f5c7aa3de3d54462326d9b2,4,,,,,,calendar,,,,,,0,11,11,59,1,6,1,,,,,,,,,,,,,,,,,,,,,,,,,,,,,,,,,,,,,,,,,,,,,,,,,,,,,,,,,,,,,,,,,,,,,,,,,,,
,,,,,,,,,,stimuli/images/PICTURE_685.png,PENNY,571de12713b1b70012be47f6,14/07/1955,2020-09-12_08h50.25.739,proactive3.2,2020.1.2,MacIntel,60,5f5adea66120081ea0f57a61,5f5c7aa3de3d54462326d9b2,4,,,,,,goose,,,,,,0,12,12,4,1,1,1,,,,,,,,,,,,,,,,,,,,,,,,,,,,,,,,,,,,,,,,,,,,,,,,,,,,,,,,,,,,,,,,,,,,,,,,,,,
,,,,,,,,,,stimuli/images/PICTURE_296.png,LOTS,571de12713b1b70012be47f6,14/07/1955,2020-09-12_08h50.25.739,proactive3.2,2020.1.2,MacIntel,60,5f5adea66120081ea0f57a61,5f5c7aa3de3d54462326d9b2,4,,,,,,bolt,,,,,,0,13,13,9,1,1,1,,,,,,,,,,,,,,,,,,,,,,,,,,,,,,,,,,,,,,,,,,,,,,,,,,,,,,,,,,,,,,,,,,,,,,,,,,,
,,,,,,,,,,stimuli/images/PICTURE_108.png,POLICY,571de12713b1b70012be47f6,14/07/1955,2020-09-12_08h50.25.739,proactive3.2,2020.1.2,MacIntel,60,5f5adea66120081ea0f57a61,5f5c7aa3de3d54462326d9b2,4,,,,,,calendar,,,,,,0,14,14,22,1,3,1,,,,,,,,,,,,,,,,,,,,,,,,,,,,,,,,,,,,,,,,,,,,,,,,,,,,,,,,,,,,,,,,,,,,,,,,,,,
,,,,,,,,,,stimuli/images/PICTURE_340.png,LETTER,571de12713b1b70012be47f6,14/07/1955,2020-09-12_08h50.25.739,proactive3.2,2020.1.2,MacIntel,60,5f5adea66120081ea0f57a61,5f5c7aa3de3d54462326d9b2,4,,,,,,mirror,,,,,,0,15,15,24,1,3,1,,,,,,,,,,,,,,,,,,,,,,,,,,,,,,,,,,,,,,,,,,,,,,,,,,,,,,,,,,,,,,,,,,,,,,,,,,,
,,,,,,,,,,stimuli/images/PICTURE_57.png,MOMENT,571de12713b1b70012be47f6,14/07/1955,2020-09-12_08h50.25.739,proactive3.2,2020.1.2,MacIntel,60,5f5adea66120081ea0f57a61,5f5c7aa3de3d54462326d9b2,4,,,,,,stamp,,,,,,0,16,16,37,1,4,1,,,,,,,,,,,,,,,,,,,,,,,,,,,,,,,,,,,,,,,,,,,,,,,,,,,,,,,,,,,,,,,,,,,,,,,,,,,
,,,,,,,,,,stimuli/images/PICTURE_654.png,MONTH,571de12713b1b70012be47f6,14/07/1955,2020-09-12_08h50.25.739,proactive3.2,2020.1.2,MacIntel,60,5f5adea66120081ea0f57a61,5f5c7aa3de3d54462326d9b2,4,,,,,,pencil,,,,,,0,17,17,29,1,3,1,,,,,,,,,,,,,,,,,,,,,,,,,,,,,,,,,,,,,,,,,,,,,,,,,,,,,,,,,,,,,,,,,,,,,,,,,,,
,,,,,,,,,,stimuli/images/PICTURE_203.png,GODS,571de12713b1b70012be47f6,14/07/1955,2020-09-12_08h50.25.739,proactive3.2,2020.1.2,MacIntel,60,5f5adea66120081ea0f57a61,5f5c7aa3de3d54462326d9b2,4,,,,,,cap,,,,,,0,18,18,30,1,4,1,,,,,,,,,,,,,,,,,,,,,,,,,,,,,,,,,,,,,,,,,,,,,,,,,,,,,,,,,,,,,,,,,,,,,,,,,,,
,,,,,,,,,,stimuli/images/PICTURE_487.png,GIRL,571de12713b1b70012be47f6,14/07/1955,2020-09-12_08h50.25.739,proactive3.2,2020.1.2,MacIntel,60,5f5adea66120081ea0f57a61,5f5c7aa3de3d54462326d9b2,4,,,,,,basket,,,,,,0,19,19,45,1,5,1,,,,,,,,,,,,,,,,,,,,,,,,,,,,,,,,,,,,,,,,,,,,,,,,,,,,,,,,,,,,,,,,,,,,,,,,,,,
,,,,,,,,,,stimuli/images/PICTURE_564.png,BATH,571de12713b1b70012be47f6,14/07/1955,2020-09-12_08h50.25.739,proactive3.2,2020.1.2,MacIntel,60,5f5adea66120081ea0f57a61,5f5c7aa3de3d54462326d9b2,4,,,,,,spoon,,,,,,0,20,20,26,1,3,1,,,,,,,,,,,,,,,,,,,,,,,,,,,,,,,,,,,,,,,,,,,,,,,,,,,,,,,,,,,,,,,,,,,,,,,,,,,
,,,,,,,,,,stimuli/images/PICTURE_147.png,YEAR,571de12713b1b70012be47f6,14/07/1955,2020-09-12_08h50.25.739,proactive3.2,2020.1.2,MacIntel,60,5f5adea66120081ea0f57a61,5f5c7aa3de3d54462326d9b2,4,,,,,,hanger,,,,,,0,21,21,21,1,3,1,,,,,,,,,,,,,,,,,,,,,,,,,,,,,,,,,,,,,,,,,,,,,,,,,,,,,,,,,,,,,,,,,,,,,,,,,,,
,,,,,,,,,,stimuli/images/PICTURE_42.png,BOYS,571de12713b1b70012be47f6,14/07/1955,2020-09-12_08h50.25.739,proactive3.2,2020.1.2,MacIntel,60,5f5adea66120081ea0f57a61,5f5c7aa3de3d54462326d9b2,4,,,,,,pear,,,,,,0,22,22,55,1,6,1,,,,,,,,,,,,,,,,,,,,,,,,,,,,,,,,,,,,,,,,,,,,,,,,,,,,,,,,,,,,,,,,,,,,,,,,,,,
,,,,,,,,,,stimuli/images/PICTURE_339.png,CLIENT,571de12713b1b70012be47f6,14/07/1955,2020-09-12_08h50.25.739,proactive3.2,2020.1.2,MacIntel,60,5f5adea66120081ea0f57a61,5f5c7aa3de3d54462326d9b2,4,,,,,,backpack,,,,,,0,23,23,11,1,2,1,,,,,,,,,,,,,,,,,,,,,,,,,,,,,,,,,,,,,,,,,,,,,,,,,,,,,,,,,,,,,,,,,,,,,,,,,,,
,,,,,,,,,,stimuli/images/PICTURE_233.png,LOTS,571de12713b1b70012be47f6,14/07/1955,2020-09-12_08h50.25.739,proactive3.2,2020.1.2,MacIntel,60,5f5adea66120081ea0f57a61,5f5c7aa3de3d54462326d9b2,4,,,,,,salt,,,,,,0,24,24,42,1,5,1,,,,,,,,,,,,,,,,,,,,,,,,,,,,,,,,,,,,,,,,,,,,,,,,,,,,,,,,,,,,,,,,,,,,,,,,,,,
,,,,,,,,,,stimuli/images/PICTURE_308.png,FAMILY,571de12713b1b70012be47f6,14/07/1955,2020-09-12_08h50.25.739,proactive3.2,2020.1.2,MacIntel,60,5f5adea66120081ea0f57a61,5f5c7aa3de3d54462326d9b2,4,,,,,,dice,,,,,,0,25,25,36,1,4,1,,,,,,,,,,,,,,,,,,,,,,,,,,,,,,,,,,,,,,,,,,,,,,,,,,,,,,,,,,,,,,,,,,,,,,,,,,,
,,,,,,,,,,stimuli/images/PICTURE_675.png,SALE,571de12713b1b70012be47f6,14/07/1955,2020-09-12_08h50.25.739,proactive3.2,2020.1.2,MacIntel,60,5f5adea66120081ea0f57a61,5f5c7aa3de3d54462326d9b2,4,,,,,,windmill,,,,,,0,26,26,47,1,5,1,,,,,,,,,,,,,,,,,,,,,,,,,,,,,,,,,,,,,,,,,,,,,,,,,,,,,,,,,,,,,,,,,,,,,,,,,,,
,,,,,,,,,,stimuli/images/PICTURE_677.png,APPLE,571de12713b1b70012be47f6,14/07/1955,2020-09-12_08h50.25.739,proactive3.2,2020.1.2,MacIntel,60,5f5adea66120081ea0f57a61,5f5c7aa3de3d54462326d9b2,4,,,,,,map,,,,,,0,27,27,43,1,5,1,,,,,,,,,,,,,,,,,,,,,,,,,,,,,,,,,,,,,,,,,,,,,,,,,,,,,,,,,,,,,,,,,,,,,,,,,,,
,,,,,,,,,,stimuli/images/PICTURE_750.png,HOTEL,571de12713b1b70012be47f6,14/07/1955,2020-09-12_08h50.25.739,proactive3.2,2020.1.2,MacIntel,60,5f5adea66120081ea0f57a61,5f5c7aa3de3d54462326d9b2,4,,,,,,kettle,,,,,,0,28,28,27,1,3,1,,,,,,,,,,,,,,,,,,,,,,,,,,,,,,,,,,,,,,,,,,,,,,,,,,,,,,,,,,,,,,,,,,,,,,,,,,,
,,,,,,,,,,stimuli/images/PICTURE_33.png,FRIEND,571de12713b1b70012be47f6,14/07/1955,2020-09-12_08h50.25.739,proactive3.2,2020.1.2,MacIntel,60,5f5adea66120081ea0f57a61,5f5c7aa3de3d54462326d9b2,4,,,,,,frame,,,,,,0,29,29,8,1,1,1,,,,,,,,,,,,,,,,,,,,,,,,,,,,,,,,,,,,,,,,,,,,,,,,,,,,,,,,,,,,,,,,,,,,,,,,,,,
,,,,,,,,,,stimuli/images/PICTURE_85.png,NATION,571de12713b1b70012be47f6,14/07/1955,2020-09-12_08h50.25.739,proactive3.2,2020.1.2,MacIntel,60,5f5adea66120081ea0f57a61,5f5c7aa3de3d54462326d9b2,4,,,,,,diamond,,,,,,0,30,30,5,1,1,1,,,,,,,,,,,,,,,,,,,,,,,,,,,,,,,,,,,,,,,,,,,,,,,,,,,,,,,,,,,,,,,,,,,,,,,,,,,
,,,,,,,,,,stimuli/images/PICTURE_285.png,LIFE,571de12713b1b70012be47f6,14/07/1955,2020-09-12_08h50.25.739,proactive3.2,2020.1.2,MacIntel,60,5f5adea66120081ea0f57a61,5f5c7aa3de3d54462326d9b2,4,,,,,,carrot,,,,,,0,31,31,33,1,4,1,,,,,,,,,,,,,,,,,,,,,,,,,,,,,,,,,,,,,,,,,,,,,,,,,,,,,,,,,,,,,,,,,,,,,,,,,,,
,,,,,,,,,,stimuli/images/PICTURE_203.png,NIGHT,571de12713b1b70012be47f6,14/07/1955,2020-09-12_08h50.25.739,proactive3.2,2020.1.2,MacIntel,60,5f5adea66120081ea0f57a61,5f5c7aa3de3d54462326d9b2,4,,,,,,cap,,,,,,0,32,32,2,1,1,1,,,,,,,,,,,,,,,,,,,,,,,,,,,,,,,,,,,,,,,,,,,,,,,,,,,,,,,,,,,,,,,,,,,,,,,,,,,
,,,,,,,,,,stimuli/images/PICTURE_177.png,WRITER,571de12713b1b70012be47f6,14/07/1955,2020-09-12_08h50.25.739,proactive3.2,2020.1.2,MacIntel,60,5f5adea66120081ea0f57a61,5f5c7aa3de3d54462326d9b2,4,,,,,,mushroom,,,,,,0,33,33,41,1,5,1,,,,,,,,,,,,,,,,,,,,,,,,,,,,,,,,,,,,,,,,,,,,,,,,,,,,,,,,,,,,,,,,,,,,,,,,,,,
,,,,,,,,,,stimuli/images/PICTURE_403.png,TOILET,571de12713b1b70012be47f6,14/07/1955,2020-09-12_08h50.25.739,proactive3.2,2020.1.2,MacIntel,60,5f5adea66120081ea0f57a61,5f5c7aa3de3d54462326d9b2,4,,,,,,cathedral,,,,,,0,34,34,25,1,3,1,,,,,,,,,,,,,,,,,,,,,,,,,,,,,,,,,,,,,,,,,,,,,,,,,,,,,,,,,,,,,,,,,,,,,,,,,,,
,,,,,,,,,,stimuli/images/PICTURE_147.png,WOMEN,571de12713b1b70012be47f6,14/07/1955,2020-09-12_08h50.25.739,proactive3.2,2020.1.2,MacIntel,60,5f5adea66120081ea0f57a61,5f5c7aa3de3d54462326d9b2,4,,,,,,hanger,,,,,,0,35,35,7,1,1,1,,,,,,,,,,,,,,,,,,,,,,,,,,,,,,,,,,,,,,,,,,,,,,,,,,,,,,,,,,,,,,,,,,,,,,,,,,,
,,,,,,,,,,stimuli/images/PICTURE_85.png,TOILET,571de12713b1b70012be47f6,14/07/1955,2020-09-12_08h50.25.739,proactive3.2,2020.1.2,MacIntel,60,5f5adea66120081ea0f57a61,5f5c7aa3de3d54462326d9b2,4,,,,,,diamond,,,,,,0,36,36,48,1,5,1,,,,,,,,,,,,,,,,,,,,,,,,,,,,,,,,,,,,,,,,,,,,,,,,,,,,,,,,,,,,,,,,,,,,,,,,,,,
,,,,,,,,,,stimuli/images/PICTURE_655.png,TOILET,571de12713b1b70012be47f6,14/07/1955,2020-09-12_08h50.25.739,proactive3.2,2020.1.2,MacIntel,60,5f5adea66120081ea0f57a61,5f5c7aa3de3d54462326d9b2,4,,,,,,megaphone,,,,,,0,37,37,12,1,2,1,,,,,,,,,,,,,,,,,,,,,,,,,,,,,,,,,,,,,,,,,,,,,,,,,,,,,,,,,,,,,,,,,,,,,,,,,,,
,,,,,,,,,,stimuli/images/PICTURE_2.png,FLIGHT,571de12713b1b70012be47f6,14/07/1955,2020-09-12_08h50.25.739,proactive3.2,2020.1.2,MacIntel,60,5f5adea66120081ea0f57a61,5f5c7aa3de3d54462326d9b2,4,,,,,,tyre,,,,,,0,38,38,15,1,2,1,,,,,,,,,,,,,,,,,,,,,,,,,,,,,,,,,,,,,,,,,,,,,,,,,,,,,,,,,,,,,,,,,,,,,,,,,,,
,,,,,,,,,,stimuli/images/PICTURE_491.png,RIVER,571de12713b1b70012be47f6,14/07/1955,2020-09-12_08h50.25.739,proactive3.2,2020.1.2,MacIntel,60,5f5adea66120081ea0f57a61,5f5c7aa3de3d54462326d9b2,4,,,,,,rug,,,,,,0,39,39,6,1,1,1,,,,,,,,,,,,,,,,,,,,,,,,,,,,,,,,,,,,,,,,,,,,,,,,,,,,,,,,,,,,,,,,,,,,,,,,,,,
,,,,,,,,,,stimuli/images/PICTURE_327.png,SERIES,571de12713b1b70012be47f6,14/07/1955,2020-09-12_08h50.25.739,proactive3.2,2020.1.2,MacIntel,60,5f5adea66120081ea0f57a61,5f5c7aa3de3d54462326d9b2,4,,,,,,helmet,,,,,,0,40,40,3,1,1,1,,,,,,,,,,,,,,,,,,,,,,,,,,,,,,,,,,,,,,,,,,,,,,,,,,,,,,,,,,,,,,,,,,,,,,,,,,,
,,,,,,,,,,stimuli/images/PICTURE_383.png,WRITER,571de12713b1b70012be47f6,14/07/1955,2020-09-12_08h50.25.739,proactive3.2,2020.1.2,MacIntel,60,5f5adea66120081ea0f57a61,5f5c7aa3de3d54462326d9b2,4,,,,,,coin,,,,,,0,41,41,28,1,3,1,,,,,,,,,,,,,,,,,,,,,,,,,,,,,,,,,,,,,,,,,,,,,,,,,,,,,,,,,,,,,,,,,,,,,,,,,,,
,,,,,,,,,,stimuli/images/PICTURE_327.png,CASINO,571de12713b1b70012be47f6,14/07/1955,2020-09-12_08h50.25.739,proactive3.2,2020.1.2,MacIntel,60,5f5adea66120081ea0f57a61,5f5c7aa3de3d54462326d9b2,4,,,,,,helmet,,,,,,0,42,42,20,1,3,1,,,,,,,,,,,,,,,,,,,,,,,,,,,,,,,,,,,,,,,,,,,,,,,,,,,,,,,,,,,,,,,,,,,,,,,,,,,
,,,,,,,,,,stimuli/images/PICTURE_403.png,RIVER,571de12713b1b70012be47f6,14/07/1955,2020-09-12_08h50.25.739,proactive3.2,2020.1.2,MacIntel,60,5f5adea66120081ea0f57a61,5f5c7aa3de3d54462326d9b2,4,,,,,,cathedral,,,,,,0,43,43,40,1,5,1,,,,,,,,,,,,,,,,,,,,,,,,,,,,,,,,,,,,,,,,,,,,,,,,,,,,,,,,,,,,,,,,,,,,,,,,,,,
,,,,,,,,,,stimuli/images/PICTURE_95.png,BOYS,571de12713b1b70012be47f6,14/07/1955,2020-09-12_08h50.25.739,proactive3.2,2020.1.2,MacIntel,60,5f5adea66120081ea0f57a61,5f5c7aa3de3d54462326d9b2,4,,,,,,suitcase,,,,,,0,44,44,1,1,1,1,,,,,,,,,,,,,,,,,,,,,,,,,,,,,,,,,,,,,,,,,,,,,,,,,,,,,,,,,,,,,,,,,,,,,,,,,,,
,,,,,,,,,,stimuli/images/PICTURE_296.png,LIFE,571de12713b1b70012be47f6,14/07/1955,2020-09-12_08h50.25.739,proactive3.2,2020.1.2,MacIntel,60,5f5adea66120081ea0f57a61,5f5c7aa3de3d54462326d9b2,4,,,,,,bolt,,,,,,0,45,45,57,1,6,1,,,,,,,,,,,,,,,,,,,,,,,,,,,,,,,,,,,,,,,,,,,,,,,,,,,,,,,,,,,,,,,,,,,,,,,,,,,
,,,,,,,,,,stimuli/images/PICTURE_504.png,ARTIST,571de12713b1b70012be47f6,14/07/1955,2020-09-12_08h50.25.739,proactive3.2,2020.1.2,MacIntel,60,5f5adea66120081ea0f57a61,5f5c7aa3de3d54462326d9b2,4,,,,,,wheel,,,,,,0,46,46,49,1,5,1,,,,,,,,,,,,,,,,,,,,,,,,,,,,,,,,,,,,,,,,,,,,,,,,,,,,,,,,,,,,,,,,,,,,,,,,,,,
,,,,,,,,,,stimuli/images/PICTURE_32.png,PILLS,571de12713b1b70012be47f6,14/07/1955,2020-09-12_08h50.25.739,proactive3.2,2020.1.2,MacIntel,60,5f5adea66120081ea0f57a61,5f5c7aa3de3d54462326d9b2,4,,,,,,crown,,,,,,0,47,47,18,1,2,1,,,,,,,,,,,,,,,,,,,,,,,,,,,,,,,,,,,,,,,,,,,,,,,,,,,,,,,,,,,,,,,,,,,,,,,,,,,
,,,,,,,,,,stimuli/images/PICTURE_403.png,WRITER,571de12713b1b70012be47f6,14/07/1955,2020-09-12_08h50.25.739,proactive3.2,2020.1.2,MacIntel,60,5f5adea66120081ea0f57a61,5f5c7aa3de3d54462326d9b2,4,,,,,,cathedral,,,,,,0,48,48,31,1,4,1,,,,,,,,,,,,,,,,,,,,,,,,,,,,,,,,,,,,,,,,,,,,,,,,,,,,,,,,,,,,,,,,,,,,,,,,,,,
,,,,,,,,,,stimuli/images/PICTURE_469.png,AGENT,571de12713b1b70012be47f6,14/07/1955,2020-09-12_08h50.25.739,proactive3.2,2020.1.2,MacIntel,60,5f5adea66120081ea0f57a61,5f5c7aa3de3d54462326d9b2,4,,,,,,stool,,,,,,0,49,49,16,1,2,1,,,,,,,,,,,,,,,,,,,,,,,,,,,,,,,,,,,,,,,,,,,,,,,,,,,,,,,,,,,,,,,,,,,,,,,,,,,
,,,,,,,,,,stimuli/images/PICTURE_667.png,RIVER,571de12713b1b70012be47f6,14/07/1955,2020-09-12_08h50.25.739,proactive3.2,2020.1.2,MacIntel,60,5f5adea66120081ea0f57a61,5f5c7aa3de3d54462326d9b2,4,,,,,,daisy,,,,,,0,50,50,10,1,2,1,,,,,,,,,,,,,,,,,,,,,,,,,,,,,,,,,,,,,,,,,,,,,,,,,,,,,,,,,,,,,,,,,,,,,,,,,,,
,,,,,,,,,,stimuli/images/PICTURE_68.png,MILE,571de12713b1b70012be47f6,14/07/1955,2020-09-12_08h50.25.739,proactive3.2,2020.1.2,MacIntel,60,5f5adea66120081ea0f57a61,5f5c7aa3de3d54462326d9b2,4,,,,,,candle,,,,,,0,51,51,51,1,6,1,,,,,,,,,,,,,,,,,,,,,,,,,,,,,,,,,,,,,,,,,,,,,,,,,,,,,,,,,,,,,,,,,,,,,,,,,,,
,,,,,,,,,,stimuli/images/PICTURE_32.png,KIND,571de12713b1b70012be47f6,14/07/1955,2020-09-12_08h50.25.739,proactive3.2,2020.1.2,MacIntel,60,5f5adea66120081ea0f57a61,5f5c7aa3de3d54462326d9b2,4,,,,,,crown,,,,,,0,52,52,35,1,4,1,,,,,,,,,,,,,,,,,,,,,,,,,,,,,,,,,,,,,,,,,,,,,,,,,,,,,,,,,,,,,,,,,,,,,,,,,,,
,,,,,,,,,,stimuli/images/PICTURE_380.png,HONEY,571de12713b1b70012be47f6,14/07/1955,2020-09-12_08h50.25.739,proactive3.2,2020.1.2,MacIntel,60,5f5adea66120081ea0f57a61,5f5c7aa3de3d54462326d9b2,4,,,,,,gorilla,,,,,,0,53,53,19,1,2,1,,,,,,,,,,,,,,,,,,,,,,,,,,,,,,,,,,,,,,,,,,,,,,,,,,,,,,,,,,,,,,,,,,,,,,,,,,,
,,,,,,,,,,stimuli/images/PICTURE_405.png,PLENTY,571de12713b1b70012be47f6,14/07/1955,2020-09-12_08h50.25.739,proactive3.2,2020.1.2,MacIntel,60,5f5adea66120081ea0f57a61,5f5c7aa3de3d54462326d9b2,4,,,,,,anchor,,,,,,0,54,54,23,1,3,1,,,,,,,,,,,,,,,,,,,,,,,,,,,,,,,,,,,,,,,,,,,,,,,,,,,,,,,,,,,,,,,,,,,,,,,,,,,
,,,,,,,,,,stimuli/images/PICTURE_467.png,POLICY,571de12713b1b70012be47f6,14/07/1955,2020-09-12_08h50.25.739,proactive3.2,2020.1.2,MacIntel,60,5f5adea66120081ea0f57a61,5f5c7aa3de3d54462326d9b2,4,,,,,,peg,,,,,,0,55,55,53,1,6,1,,,,,,,,,,,,,,,,,,,,,,,,,,,,,,,,,,,,,,,,,,,,,,,,,,,,,,,,,,,,,,,,,,,,,,,,,,,
,,,,,,,,,,stimuli/images/PICTURE_405.png,YEAR,571de12713b1b70012be47f6,14/07/1955,2020-09-12_08h50.25.739,proactive3.2,2020.1.2,MacIntel,60,5f5adea66120081ea0f57a61,5f5c7aa3de3d54462326d9b2,4,,,,,,anchor,,,,,,0,56,56,34,1,4,1,,,,,,,,,,,,,,,,,,,,,,,,,,,,,,,,,,,,,,,,,,,,,,,,,,,,,,,,,,,,,,,,,,,,,,,,,,,
,,,,,,,,,,stimuli/images/PICTURE_744.png,WEAPON,571de12713b1b70012be47f6,14/07/1955,2020-09-12_08h50.25.739,proactive3.2,2020.1.2,MacIntel,60,5f5adea66120081ea0f57a61,5f5c7aa3de3d54462326d9b2,4,,,,,,ring,,,,,,0,57,57,50,1,6,1,,,,,,,,,,,,,,,,,,,,,,,,,,,,,,,,,,,,,,,,,,,,,,,,,,,,,,,,,,,,,,,,,,,,,,,,,,,
,,,,,,,,,,stimuli/images/PICTURE_95.png,MILLER,571de12713b1b70012be47f6,14/07/1955,2020-09-12_08h50.25.739,proactive3.2,2020.1.2,MacIntel,60,5f5adea66120081ea0f57a61,5f5c7aa3de3d54462326d9b2,4,,,,,,suitcase,,,,,,0,58,58,56,1,6,1,,,,,,,,,,,,,,,,,,,,,,,,,,,,,,,,,,,,,,,,,,,,,,,,,,,,,,,,,,,,,,,,,,,,,,,,,,,
,,?,0.002,0,,,,,,stimuli/images/PICTURE_42.png,BOYS,571de12713b1b70012be47f6,14/07/1955,2020-09-12_08h50.25.739,proactive3.2,2020.1.2,MacIntel,60,5f5adea66120081ea0f57a61,5f5c7aa3de3d54462326d9b2,4,,,,,,pear,,,,,,,,,,,6,1,0,0,0,55,1,,,,,,,,,,,,,,,,,,,,,,,,,,,,,,,,,,,,,,,,,,,,,,,,,,,,,,,,,,,,,,,,,,,,,,
,,?,0,0,,,,,,stimuli/images/PICTURE_383.png,WRITER,571de12713b1b70012be47f6,14/07/1955,2020-09-12_08h50.25.739,proactive3.2,2020.1.2,MacIntel,60,5f5adea66120081ea0f57a61,5f5c7aa3de3d54462326d9b2,4,,,,,,coin,,,,,,,,,,,3,1,0,1,1,28,1,,,,,,,,,,,,,,,,,,,,,,,,,,,,,,,,,,,,,,,,,,,,,,,,,,,,,,,,,,,,,,,,,,,,,,
,,?,0.001,0,,,,,,stimuli/images/PICTURE_95.png,BOYS,571de12713b1b70012be47f6,14/07/1955,2020-09-12_08h50.25.739,proactive3.2,2020.1.2,MacIntel,60,5f5adea66120081ea0f57a61,5f5c7aa3de3d54462326d9b2,4,,,,,,suitcase,,,,,,,,,,,1,1,0,2,2,1,1,,,,,,,,,,,,,,,,,,,,,,,,,,,,,,,,,,,,,,,,,,,,,,,,,,,,,,,,,,,,,,,,,,,,,,
,,?,0,0,,,,,,stimuli/images/PICTURE_403.png,RIVER,571de12713b1b70012be47f6,14/07/1955,2020-09-12_08h50.25.739,proactive3.2,2020.1.2,MacIntel,60,5f5adea66120081ea0f57a61,5f5c7aa3de3d54462326d9b2,4,,,,,,cathedral,,,,,,,,,,,5,1,0,3,3,40,1,,,,,,,,,,,,,,,,,,,,,,,,,,,,,,,,,,,,,,,,,,,,,,,,,,,,,,,,,,,,,,,,,,,,,,
,,?,0,0,,,,,,stimuli/images/PICTURE_469.png,AGENT,571de12713b1b70012be47f6,14/07/1955,2020-09-12_08h50.25.739,proactive3.2,2020.1.2,MacIntel,60,5f5adea66120081ea0f57a61,5f5c7aa3de3d54462326d9b2,4,,,,,,stool,,,,,,,,,,,2,1,0,4,4,16,1,,,,,,,,,,,,,,,,,,,,,,,,,,,,,,,,,,,,,,,,,,,,,,,,,,,,,,,,,,,,,,,,,,,,,,
,,?,0.001,0,,,,,,stimuli/images/PICTURE_147.png,WOMEN,571de12713b1b70012be47f6,14/07/1955,2020-09-12_08h50.25.739,proactive3.2,2020.1.2,MacIntel,60,5f5adea66120081ea0f57a61,5f5c7aa3de3d54462326d9b2,4,,,,,,hanger,,,,,,,,,,,1,1,0,5,5,7,1,,,,,,,,,,,,,,,,,,,,,,,,,,,,,,,,,,,,,,,,,,,,,,,,,,,,,,,,,,,,,,,,,,,,,,
,,?,0.001,0,,,,,,stimuli/images/PICTURE_654.png,MONTH,571de12713b1b70012be47f6,14/07/1955,2020-09-12_08h50.25.739,proactive3.2,2020.1.2,MacIntel,60,5f5adea66120081ea0f57a61,5f5c7aa3de3d54462326d9b2,4,,,,,,pencil,,,,,,,,,,,3,1,0,6,6,29,1,,,,,,,,,,,,,,,,,,,,,,,,,,,,,,,,,,,,,,,,,,,,,,,,,,,,,,,,,,,,,,,,,,,,,,
,,WRITER,2.2,1,,,,,,stimuli/images/PICTURE_403.png,WRITER,571de12713b1b70012be47f6,14/07/1955,2020-09-12_08h50.25.739,proactive3.2,2020.1.2,MacIntel,60,5f5adea66120081ea0f57a61,5f5c7aa3de3d54462326d9b2,4,,,,,,cathedral,,,,,,,,,,,4,1,0,7,7,31,1,,,,,,,,,,,,,,,,,,,,,,,,,,,,,,,,,,,,,,,,,,,,,,,,,,,,,,,,,,,,,,,,,,,,,,
,,?,0.001,0,,,,,,stimuli/images/PICTURE_677.png,APPLE,571de12713b1b70012be47f6,14/07/1955,2020-09-12_08h50.25.739,proactive3.2,2020.1.2,MacIntel,60,5f5adea66120081ea0f57a61,5f5c7aa3de3d54462326d9b2,4,,,,,,map,,,,,,,,,,,5,1,0,8,8,43,1,,,,,,,,,,,,,,,,,,,,,,,,,,,,,,,,,,,,,,,,,,,,,,,,,,,,,,,,,,,,,,,,,,,,,,
,,?,0.001,0,,,,,,stimuli/images/PICTURE_504.png,ARTIST,571de12713b1b70012be47f6,14/07/1955,2020-09-12_08h50.25.739,proactive3.2,2020.1.2,MacIntel,60,5f5adea66120081ea0f57a61,5f5c7aa3de3d54462326d9b2,4,,,,,,wheel,,,,,,,,,,,5,1,0,9,9,49,1,,,,,,,,,,,,,,,,,,,,,,,,,,,,,,,,,,,,,,,,,,,,,,,,,,,,,,,,,,,,,,,,,,,,,,
,,?,0.001,0,,,,,,stimuli/images/PICTURE_296.png,LIFE,571de12713b1b70012be47f6,14/07/1955,2020-09-12_08h50.25.739,proactive3.2,2020.1.2,MacIntel,60,5f5adea66120081ea0f57a61,5f5c7aa3de3d54462326d9b2,4,,,,,,bolt,,,,,,,,,,,6,1,0,10,10,57,1,,,,,,,,,,,,,,,,,,,,,,,,,,,,,,,,,,,,,,,,,,,,,,,,,,,,,,,,,,,,,,,,,,,,,,
,,?,0,0,,,,,,stimuli/images/PICTURE_68.png,MILE,571de12713b1b70012be47f6,14/07/1955,2020-09-12_08h50.25.739,proactive3.2,2020.1.2,MacIntel,60,5f5adea66120081ea0f57a61,5f5c7aa3de3d54462326d9b2,4,,,,,,candle,,,,,,,,,,,6,1,0,11,11,51,1,,,,,,,,,,,,,,,,,,,,,,,,,,,,,,,,,,,,,,,,,,,,,,,,,,,,,,,,,,,,,,,,,,,,,,
,,?,0.002,0,,,,,,stimuli/images/PICTURE_504.png,COPS,571de12713b1b70012be47f6,14/07/1955,2020-09-12_08h50.25.739,proactive3.2,2020.1.2,MacIntel,60,5f5adea66120081ea0f57a61,5f5c7aa3de3d54462326d9b2,4,,,,,,wheel,,,,,,,,,,,6,1,0,12,12,52,1,,,,,,,,,,,,,,,,,,,,,,,,,,,,,,,,,,,,,,,,,,,,,,,,,,,,,,,,,,,,,,,,,,,,,,
,,?,0,0,,,,,,stimuli/images/PICTURE_380.png,CANDY,571de12713b1b70012be47f6,14/07/1955,2020-09-12_08h50.25.739,proactive3.2,2020.1.2,MacIntel,60,5f5adea66120081ea0f57a61,5f5c7aa3de3d54462326d9b2,4,,,,,,gorilla,,,,,,,,,,,1,1,0,13,13,0,1,,,,,,,,,,,,,,,,,,,,,,,,,,,,,,,,,,,,,,,,,,,,,,,,,,,,,,,,,,,,,,,,,,,,,,
,,?,0,0,,,,,,stimuli/images/PICTURE_655.png,TOILET,571de12713b1b70012be47f6,14/07/1955,2020-09-12_08h50.25.739,proactive3.2,2020.1.2,MacIntel,60,5f5adea66120081ea0f57a61,5f5c7aa3de3d54462326d9b2,4,,,,,,megaphone,,,,,,,,,,,2,1,0,14,14,12,1,,,,,,,,,,,,,,,,,,,,,,,,,,,,,,,,,,,,,,,,,,,,,,,,,,,,,,,,,,,,,,,,,,,,,,
,,SYSTEM,4.196,1,,,,,,stimuli/images/PICTURE_208.png,SYSTEM,571de12713b1b70012be47f6,14/07/1955,2020-09-12_08h50.25.739,proactive3.2,2020.1.2,MacIntel,60,5f5adea66120081ea0f57a61,5f5c7aa3de3d54462326d9b2,4,,,,,,microphone,,,,,,,,,,,4,1,0,15,15,32,1,,,,,,,,,,,,,,,,,,,,,,,,,,,,,,,,,,,,,,,,,,,,,,,,,,,,,,,,,,,,,,,,,,,,,,
,,?,0.001,0,,,,,,stimuli/images/PICTURE_147.png,YEAR,571de12713b1b70012be47f6,14/07/1955,2020-09-12_08h50.25.739,proactive3.2,2020.1.2,MacIntel,60,5f5adea66120081ea0f57a61,5f5c7aa3de3d54462326d9b2,4,,,,,,hanger,,,,,,,,,,,3,1,0,16,16,21,1,,,,,,,,,,,,,,,,,,,,,,,,,,,,,,,,,,,,,,,,,,,,,,,,,,,,,,,,,,,,,,,,,,,,,,
,,?,0.001,0,,,,,,stimuli/images/PICTURE_487.png,GIRL,571de12713b1b70012be47f6,14/07/1955,2020-09-12_08h50.25.739,proactive3.2,2020.1.2,MacIntel,60,5f5adea66120081ea0f57a61,5f5c7aa3de3d54462326d9b2,4,,,,,,basket,,,,,,,,,,,5,1,0,17,17,45,1,,,,,,,,,,,,,,,,,,,,,,,,,,,,,,,,,,,,,,,,,,,,,,,,,,,,,,,,,,,,,,,,,,,,,,
,,RIVER,2.144,1,,,,,,stimuli/images/PICTURE_297.png,RIVER,571de12713b1b70012be47f6,14/07/1955,2020-09-12_08h50.25.739,proactive3.2,2020.1.2,MacIntel,60,5f5adea66120081ea0f57a61,5f5c7aa3de3d54462326d9b2,4,,,,,,aeroplane,,,,,,,,,,,4,1,0,18,18,39,1,,,,,,,,,,,,,,,,,,,,,,,,,,,,,,,,,,,,,,,,,,,,,,,,,,,,,,,,,,,,,,,,,,,,,,
,,YEAR,2.369,1,,,,,,stimuli/images/PICTURE_405.png,YEAR,571de12713b1b70012be47f6,14/07/1955,2020-09-12_08h50.25.739,proactive3.2,2020.1.2,MacIntel,60,5f5adea66120081ea0f57a61,5f5c7aa3de3d54462326d9b2,4,,,,,,anchor,,,,,,,,,,,4,1,0,19,19,34,1,,,,,,,,,,,,,,,,,,,,,,,,,,,,,,,,,,,,,,,,,,,,,,,,,,,,,,,,,,,,,,,,,,,,,,
,,?,0.002,0,,,,,,stimuli/images/PICTURE_504.png,YEAR,571de12713b1b70012be47f6,14/07/1955,2020-09-12_08h50.25.739,proactive3.2,2020.1.2,MacIntel,60,5f5adea66120081ea0f57a61,5f5c7aa3de3d54462326d9b2,4,,,,,,wheel,,,,,,,,,,,2,1,0,20,20,13,1,,,,,,,,,,,,,,,,,,,,,,,,,,,,,,,,,,,,,,,,,,,,,,,,,,,,,,,,,,,,,,,,,,,,,,
,,FAMILY,1.966,1,,,,,,stimuli/images/PICTURE_308.png,FAMILY,571de12713b1b70012be47f6,14/07/1955,2020-09-12_08h50.25.739,proactive3.2,2020.1.2,MacIntel,60,5f5adea66120081ea0f57a61,5f5c7aa3de3d54462326d9b2,4,,,,,,dice,,,,,,,,,,,4,1,0,21,21,36,1,,,,,,,,,,,,,,,,,,,,,,,,,,,,,,,,,,,,,,,,,,,,,,,,,,,,,,,,,,,,,,,,,,,,,,
,,?,0.001,0,,,,,,stimuli/images/PICTURE_85.png,TOILET,571de12713b1b70012be47f6,14/07/1955,2020-09-12_08h50.25.739,proactive3.2,2020.1.2,MacIntel,60,5f5adea66120081ea0f57a61,5f5c7aa3de3d54462326d9b2,4,,,,,,diamond,,,,,,,,,,,5,1,0,22,22,48,1,,,,,,,,,,,,,,,,,,,,,,,,,,,,,,,,,,,,,,,,,,,,,,,,,,,,,,,,,,,,,,,,,,,,,,
,,?,0,0,,,,,,stimuli/images/PICTURE_2.png,FLIGHT,571de12713b1b70012be47f6,14/07/1955,2020-09-12_08h50.25.739,proactive3.2,2020.1.2,MacIntel,60,5f5adea66120081ea0f57a61,5f5c7aa3de3d54462326d9b2,4,,,,,,tyre,,,,,,,,,,,2,1,0,23,23,15,1,,,,,,,,,,,,,,,,,,,,,,,,,,,,,,,,,,,,,,,,,,,,,,,,,,,,,,,,,,,,,,,,,,,,,,
,,?,0.001,0,,,,,,stimuli/images/PICTURE_108.png,POLICY,571de12713b1b70012be47f6,14/07/1955,2020-09-12_08h50.25.739,proactive3.2,2020.1.2,MacIntel,60,5f5adea66120081ea0f57a61,5f5c7aa3de3d54462326d9b2,4,,,,,,calendar,,,,,,,,,,,3,1,0,24,24,22,1,,,,,,,,,,,,,,,,,,,,,,,,,,,,,,,,,,,,,,,,,,,,,,,,,,,,,,,,,,,,,,,,,,,,,,
,,?,0,0,,,,,,stimuli/images/PICTURE_405.png,PLENTY,571de12713b1b70012be47f6,14/07/1955,2020-09-12_08h50.25.739,proactive3.2,2020.1.2,MacIntel,60,5f5adea66120081ea0f57a61,5f5c7aa3de3d54462326d9b2,4,,,,,,anchor,,,,,,,,,,,3,1,0,25,25,23,1,,,,,,,,,,,,,,,,,,,,,,,,,,,,,,,,,,,,,,,,,,,,,,,,,,,,,,,,,,,,,,,,,,,,,,
,,?,0,0,,,,,,stimuli/images/PICTURE_491.png,GLASS,571de12713b1b70012be47f6,14/07/1955,2020-09-12_08h50.25.739,proactive3.2,2020.1.2,MacIntel,60,5f5adea66120081ea0f57a61,5f5c7aa3de3d54462326d9b2,4,,,,,,rug,,,,,,,,,,,2,1,0,26,26,14,1,,,,,,,,,,,,,,,,,,,,,,,,,,,,,,,,,,,,,,,,,,,,,,,,,,,,,,,,,,,,,,,,,,,,,,
,,?,0.001,0,,,,,,stimuli/images/PICTURE_33.png,FRIEND,571de12713b1b70012be47f6,14/07/1955,2020-09-12_08h50.25.739,proactive3.2,2020.1.2,MacIntel,60,5f5adea66120081ea0f57a61,5f5c7aa3de3d54462326d9b2,4,,,,,,frame,,,,,,,,,,,1,1,0,27,27,8,1,,,,,,,,,,,,,,,,,,,,,,,,,,,,,,,,,,,,,,,,,,,,,,,,,,,,,,,,,,,,,,,,,,,,,,
,,?,0.001,0,,,,,,stimuli/images/PICTURE_95.png,MILLER,571de12713b1b70012be47f6,14/07/1955,2020-09-12_08h50.25.739,proactive3.2,2020.1.2,MacIntel,60,5f5adea66120081ea0f57a61,5f5c7aa3de3d54462326d9b2,4,,,,,,suitcase,,,,,,,,,,,6,1,0,28,28,56,1,,,,,,,,,,,,,,,,,,,,,,,,,,,,,,,,,,,,,,,,,,,,,,,,,,,,,,,,,,,,,,,,,,,,,,
,,?,0.001,0,,,,,,stimuli/images/PICTURE_108.png,FLIGHT,571de12713b1b70012be47f6,14/07/1955,2020-09-12_08h50.25.739,proactive3.2,2020.1.2,MacIntel,60,5f5adea66120081ea0f57a61,5f5c7aa3de3d54462326d9b2,4,,,,,,calendar,,,,,,,,,,,6,1,0,29,29,59,1,,,,,,,,,,,,,,,,,,,,,,,,,,,,,,,,,,,,,,,,,,,,,,,,,,,,,,,,,,,,,,,,,,,,,,
,,?,0.001,0,,,,,,stimuli/images/PICTURE_667.png,RIVER,571de12713b1b70012be47f6,14/07/1955,2020-09-12_08h50.25.739,proactive3.2,2020.1.2,MacIntel,60,5f5adea66120081ea0f57a61,5f5c7aa3de3d54462326d9b2,4,,,,,,daisy,,,,,,,,,,,2,1,0,30,30,10,1,,,,,,,,,,,,,,,,,,,,,,,,,,,,,,,,,,,,,,,,,,,,,,,,,,,,,,,,,,,,,,,,,,,,,,
,,?,0,0,,,,,,stimuli/images/PICTURE_449.png,DUDE,571de12713b1b70012be47f6,14/07/1955,2020-09-12_08h50.25.739,proactive3.2,2020.1.2,MacIntel,60,5f5adea66120081ea0f57a61,5f5c7aa3de3d54462326d9b2,4,,,,,,bench,,,,,,,,,,,2,1,0,31,31,17,1,,,,,,,,,,,,,,,,,,,,,,,,,,,,,,,,,,,,,,,,,,,,,,,,,,,,,,,,,,,,,,,,,,,,,,
,,?,0.001,0,,,,,,stimuli/images/PICTURE_203.png,NIGHT,571de12713b1b70012be47f6,14/07/1955,2020-09-12_08h50.25.739,proactive3.2,2020.1.2,MacIntel,60,5f5adea66120081ea0f57a61,5f5c7aa3de3d54462326d9b2,4,,,,,,cap,,,,,,,,,,,1,1,0,32,32,2,1,,,,,,,,,,,,,,,,,,,,,,,,,,,,,,,,,,,,,,,,,,,,,,,,,,,,,,,,,,,,,,,,,,,,,,
,,?,0,0,,,,,,stimuli/images/PICTURE_675.png,SALE,571de12713b1b70012be47f6,14/07/1955,2020-09-12_08h50.25.739,proactive3.2,2020.1.2,MacIntel,60,5f5adea66120081ea0f57a61,5f5c7aa3de3d54462326d9b2,4,,,,,,windmill,,,,,,,,,,,5,1,0,33,33,47,1,,,,,,,,,,,,,,,,,,,,,,,,,,,,,,,,,,,,,,,,,,,,,,,,,,,,,,,,,,,,,,,,,,,,,,
,,KIND,2.253,1,,,,,,stimuli/images/PICTURE_32.png,KIND,571de12713b1b70012be47f6,14/07/1955,2020-09-12_08h50.25.739,proactive3.2,2020.1.2,MacIntel,60,5f5adea66120081ea0f57a61,5f5c7aa3de3d54462326d9b2,4,,,,,,crown,,,,,,,,,,,4,1,0,34,34,35,1,,,,,,,,,,,,,,,,,,,,,,,,,,,,,,,,,,,,,,,,,,,,,,,,,,,,,,,,,,,,,,,,,,,,,,
,,?,0.001,0,,,,,,stimuli/images/PICTURE_403.png,TOILET,571de12713b1b70012be47f6,14/07/1955,2020-09-12_08h50.25.739,proactive3.2,2020.1.2,MacIntel,60,5f5adea66120081ea0f57a61,5f5c7aa3de3d54462326d9b2,4,,,,,,cathedral,,,,,,,,,,,3,1,0,35,35,25,1,,,,,,,,,,,,,,,,,,,,,,,,,,,,,,,,,,,,,,,,,,,,,,,,,,,,,,,,,,,,,,,,,,,,,,
,,?,0,0,,,,,,stimuli/images/PICTURE_177.png,WRITER,571de12713b1b70012be47f6,14/07/1955,2020-09-12_08h50.25.739,proactive3.2,2020.1.2,MacIntel,60,5f5adea66120081ea0f57a61,5f5c7aa3de3d54462326d9b2,4,,,,,,mushroom,,,,,,,,,,,5,1,0,36,36,41,1,,,,,,,,,,,,,,,,,,,,,,,,,,,,,,,,,,,,,,,,,,,,,,,,,,,,,,,,,,,,,,,,,,,,,,
,,?,0,0,,,,,,stimuli/images/PICTURE_383.png,SERIES,571de12713b1b70012be47f6,14/07/1955,2020-09-12_08h50.25.739,proactive3.2,2020.1.2,MacIntel,60,5f5adea66120081ea0f57a61,5f5c7aa3de3d54462326d9b2,4,,,,,,coin,,,,,,,,,,,5,1,0,37,37,46,1,,,,,,,,,,,,,,,,,,,,,,,,,,,,,,,,,,,,,,,,,,,,,,,,,,,,,,,,,,,,,,,,,,,,,,
,,?,0,0,,,,,,stimuli/images/PICTURE_380.png,HONEY,571de12713b1b70012be47f6,14/07/1955,2020-09-12_08h50.25.739,proactive3.2,2020.1.2,MacIntel,60,5f5adea66120081ea0f57a61,5f5c7aa3de3d54462326d9b2,4,,,,,,gorilla,,,,,,,,,,,2,1,0,38,38,19,1,,,,,,,,,,,,,,,,,,,,,,,,,,,,,,,,,,,,,,,,,,,,,,,,,,,,,,,,,,,,,,,,,,,,,,
,,?,0.001,0,,,,,,stimuli/images/PICTURE_750.png,HOTEL,571de12713b1b70012be47f6,14/07/1955,2020-09-12_08h50.25.739,proactive3.2,2020.1.2,MacIntel,60,5f5adea66120081ea0f57a61,5f5c7aa3de3d54462326d9b2,4,,,,,,kettle,,,,,,,,,,,3,1,0,39,39,27,1,,,,,,,,,,,,,,,,,,,,,,,,,,,,,,,,,,,,,,,,,,,,,,,,,,,,,,,,,,,,,,,,,,,,,,
,,?,0.001,0,,,,,,stimuli/images/PICTURE_491.png,RIVER,571de12713b1b70012be47f6,14/07/1955,2020-09-12_08h50.25.739,proactive3.2,2020.1.2,MacIntel,60,5f5adea66120081ea0f57a61,5f5c7aa3de3d54462326d9b2,4,,,,,,rug,,,,,,,,,,,1,1,0,40,40,6,1,,,,,,,,,,,,,,,,,,,,,,,,,,,,,,,,,,,,,,,,,,,,,,,,,,,,,,,,,,,,,,,,,,,,,,
,,?,0.001,0,,,,,,stimuli/images/PICTURE_339.png,CLIENT,571de12713b1b70012be47f6,14/07/1955,2020-09-12_08h50.25.739,proactive3.2,2020.1.2,MacIntel,60,5f5adea66120081ea0f57a61,5f5c7aa3de3d54462326d9b2,4,,,,,,backpack,,,,,,,,,,,2,1,0,41,41,11,1,,,,,,,,,,,,,,,,,,,,,,,,,,,,,,,,,,,,,,,,,,,,,,,,,,,,,,,,,,,,,,,,,,,,,,
,,?,0.001,0,,,,,,stimuli/images/PICTURE_564.png,BATH,571de12713b1b70012be47f6,14/07/1955,2020-09-12_08h50.25.739,proactive3.2,2020.1.2,MacIntel,60,5f5adea66120081ea0f57a61,5f5c7aa3de3d54462326d9b2,4,,,,,,spoon,,,,,,,,,,,3,1,0,42,42,26,1,,,,,,,,,,,,,,,,,,,,,,,,,,,,,,,,,,,,,,,,,,,,,,,,,,,,,,,,,,,,,,,,,,,,,,
,,?,0.001,0,,,,,,stimuli/images/PICTURE_744.png,WEAPON,571de12713b1b70012be47f6,14/07/1955,2020-09-12_08h50.25.739,proactive3.2,2020.1.2,MacIntel,60,5f5adea66120081ea0f57a61,5f5c7aa3de3d54462326d9b2,4,,,,,,ring,,,,,,,,,,,6,1,0,43,43,50,1,,,,,,,,,,,,,,,,,,,,,,,,,,,,,,,,,,,,,,,,,,,,,,,,,,,,,,,,,,,,,,,,,,,,,,
,,?,0,0,,,,,,stimuli/images/PICTURE_85.png,NATION,571de12713b1b70012be47f6,14/07/1955,2020-09-12_08h50.25.739,proactive3.2,2020.1.2,MacIntel,60,5f5adea66120081ea0f57a61,5f5c7aa3de3d54462326d9b2,4,,,,,,diamond,,,,,,,,,,,1,1,0,44,44,5,1,,,,,,,,,,,,,,,,,,,,,,,,,,,,,,,,,,,,,,,,,,,,,,,,,,,,,,,,,,,,,,,,,,,,,,
,,?,0,0,,,,,,stimuli/images/PICTURE_708.png,RECORD,571de12713b1b70012be47f6,14/07/1955,2020-09-12_08h50.25.739,proactive3.2,2020.1.2,MacIntel,60,5f5adea66120081ea0f57a61,5f5c7aa3de3d54462326d9b2,4,,,,,,monkey,,,,,,,,,,,6,1,0,45,45,58,1,,,,,,,,,,,,,,,,,,,,,,,,,,,,,,,,,,,,,,,,,,,,,,,,,,,,,,,,,,,,,,,,,,,,,,
,,?,0,0,,,,,,stimuli/images/PICTURE_32.png,PILLS,571de12713b1b70012be47f6,14/07/1955,2020-09-12_08h50.25.739,proactive3.2,2020.1.2,MacIntel,60,5f5adea66120081ea0f57a61,5f5c7aa3de3d54462326d9b2,4,,,,,,crown,,,,,,,,,,,2,1,0,46,46,18,1,,,,,,,,,,,,,,,,,,,,,,,,,,,,,,,,,,,,,,,,,,,,,,,,,,,,,,,,,,,,,,,,,,,,,,
,,GODS,1.797,1,,,,,,stimuli/images/PICTURE_203.png,GODS,571de12713b1b70012be47f6,14/07/1955,2020-09-12_08h50.25.739,proactive3.2,2020.1.2,MacIntel,60,5f5adea66120081ea0f57a61,5f5c7aa3de3d54462326d9b2,4,,,,,,cap,,,,,,,,,,,4,1,0,47,47,30,1,,,,,,,,,,,,,,,,,,,,,,,,,,,,,,,,,,,,,,,,,,,,,,,,,,,,,,,,,,,,,,,,,,,,,,
,,?,0.001,0,,,,,,stimuli/images/PICTURE_327.png,CASINO,571de12713b1b70012be47f6,14/07/1955,2020-09-12_08h50.25.739,proactive3.2,2020.1.2,MacIntel,60,5f5adea66120081ea0f57a61,5f5c7aa3de3d54462326d9b2,4,,,,,,helmet,,,,,,,,,,,3,1,0,48,48,20,1,,,,,,,,,,,,,,,,,,,,,,,,,,,,,,,,,,,,,,,,,,,,,,,,,,,,,,,,,,,,,,,,,,,,,,
,,ROOF,1.846,1,,,,,,stimuli/images/PICTURE_68.png,ROOF,571de12713b1b70012be47f6,14/07/1955,2020-09-12_08h50.25.739,proactive3.2,2020.1.2,MacIntel,60,5f5adea66120081ea0f57a61,5f5c7aa3de3d54462326d9b2,4,,,,,,candle,,,,,,,,,,,4,1,0,49,49,38,1,,,,,,,,,,,,,,,,,,,,,,,,,,,,,,,,,,,,,,,,,,,,,,,,,,,,,,,,,,,,,,,,,,,,,,
,,?,0.001,0,,,,,,stimuli/images/PICTURE_685.png,PENNY,571de12713b1b70012be47f6,14/07/1955,2020-09-12_08h50.25.739,proactive3.2,2020.1.2,MacIntel,60,5f5adea66120081ea0f57a61,5f5c7aa3de3d54462326d9b2,4,,,,,,goose,,,,,,,,,,,1,1,0,50,50,4,1,,,,,,,,,,,,,,,,,,,,,,,,,,,,,,,,,,,,,,,,,,,,,,,,,,,,,,,,,,,,,,,,,,,,,,
,,LIFE,2.035,1,,,,,,stimuli/images/PICTURE_285.png,LIFE,571de12713b1b70012be47f6,14/07/1955,2020-09-12_08h50.25.739,proactive3.2,2020.1.2,MacIntel,60,5f5adea66120081ea0f57a61,5f5c7aa3de3d54462326d9b2,4,,,,,,carrot,,,,,,,,,,,4,1,0,51,51,33,1,,,,,,,,,,,,,,,,,,,,,,,,,,,,,,,,,,,,,,,,,,,,,,,,,,,,,,,,,,,,,,,,,,,,,,
,,?,0,0,,,,,,stimuli/images/PICTURE_95.png,HONEY,571de12713b1b70012be47f6,14/07/1955,2020-09-12_08h50.25.739,proactive3.2,2020.1.2,MacIntel,60,5f5adea66120081ea0f57a61,5f5c7aa3de3d54462326d9b2,4,,,,,,suitcase,,,,,,,,,,,5,1,0,52,52,44,1,,,,,,,,,,,,,,,,,,,,,,,,,,,,,,,,,,,,,,,,,,,,,,,,,,,,,,,,,,,,,,,,,,,,,,
,,?,0.001,0,,,,,,stimuli/images/PICTURE_233.png,LOTS,571de12713b1b70012be47f6,14/07/1955,2020-09-12_08h50.25.739,proactive3.2,2020.1.2,MacIntel,60,5f5adea66120081ea0f57a61,5f5c7aa3de3d54462326d9b2,4,,,,,,salt,,,,,,,,,,,5,1,0,53,53,42,1,,,,,,,,,,,,,,,,,,,,,,,,,,,,,,,,,,,,,,,,,,,,,,,,,,,,,,,,,,,,,,,,,,,,,,
,,?,0,0,,,,,,stimuli/images/PICTURE_296.png,LOTS,571de12713b1b70012be47f6,14/07/1955,2020-09-12_08h50.25.739,proactive3.2,2020.1.2,MacIntel,60,5f5adea66120081ea0f57a61,5f5c7aa3de3d54462326d9b2,4,,,,,,bolt,,,,,,,,,,,1,1,0,54,54,9,1,,,,,,,,,,,,,,,,,,,,,,,,,,,,,,,,,,,,,,,,,,,,,,,,,,,,,,,,,,,,,,,,,,,,,,
,,MOMENT,2.016,1,,,,,,stimuli/images/PICTURE_57.png,MOMENT,571de12713b1b70012be47f6,14/07/1955,2020-09-12_08h50.25.739,proactive3.2,2020.1.2,MacIntel,60,5f5adea66120081ea0f57a61,5f5c7aa3de3d54462326d9b2,4,,,,,,stamp,,,,,,,,,,,4,1,0,55,55,37,1,,,,,,,,,,,,,,,,,,,,,,,,,,,,,,,,,,,,,,,,,,,,,,,,,,,,,,,,,,,,,,,,,,,,,,
,,?,0,0,,,,,,stimuli/images/PICTURE_340.png,LETTER,571de12713b1b70012be47f6,14/07/1955,2020-09-12_08h50.25.739,proactive3.2,2020.1.2,MacIntel,60,5f5adea66120081ea0f57a61,5f5c7aa3de3d54462326d9b2,4,,,,,,mirror,,,,,,,,,,,3,1,0,56,56,24,1,,,,,,,,,,,,,,,,,,,,,,,,,,,,,,,,,,,,,,,,,,,,,,,,,,,,,,,,,,,,,,,,,,,,,,
,,?,0.001,0,,,,,,stimuli/images/PICTURE_467.png,POLICY,571de12713b1b70012be47f6,14/07/1955,2020-09-12_08h50.25.739,proactive3.2,2020.1.2,MacIntel,60,5f5adea66120081ea0f57a61,5f5c7aa3de3d54462326d9b2,4,,,,,,peg,,,,,,,,,,,6,1,0,57,57,53,1,,,,,,,,,,,,,,,,,,,,,,,,,,,,,,,,,,,,,,,,,,,,,,,,,,,,,,,,,,,,,,,,,,,,,,
,,?,0.001,0,,,,,,stimuli/images/PICTURE_327.png,SERIES,571de12713b1b70012be47f6,14/07/1955,2020-09-12_08h50.25.739,proactive3.2,2020.1.2,MacIntel,60,5f5adea66120081ea0f57a61,5f5c7aa3de3d54462326d9b2,4,,,,,,helmet,,,,,,,,,,,1,1,0,58,58,3,1,,,,,,,,,,,,,,,,,,,,,,,,,,,,,,,,,,,,,,,,,,,,,,,,,,,,,,,,,,,,,,,,,,,,,,
,,?,0.001,0,,,,,,stimuli/images/PICTURE_340.png,VALLEY,571de12713b1b70012be47f6,14/07/1955,2020-09-12_08h50.25.739,proactive3.2,2020.1.2,MacIntel,60,5f5adea66120081ea0f57a61,5f5c7aa3de3d54462326d9b2,4,,,,,,mirror,,,,,,,,,,,6,1,0,59,59,54,1,,,,,,,,,,,,,,,,,,,,,,,,,,,,,,,,,,,,,,,,,,,,,,,,,,,,,,,,,,,,,,,,,,,,,,
,,,,,,,,,,,,571de12713b1b70012be47f6,14/07/1955,2020-09-12_08h50.25.739,proactive3.2,2020.1.2,MacIntel,60,5f5adea66120081ea0f57a61,5f5c7aa3de3d54462326d9b2,4,,,,,,,,,,,,,,,,,,,,,,,,0,1,1,1,1,stimuli/learn-block2.csv,,,,,,,,,,,,,,,,,,,,,,,,,,,,,,,,,,,,,,,,,,,,,,,,,,,,,,,,,,,,,,,,
,,,,,,,,,,stimuli/images/PICTURE_57.png,CASINO,571de12713b1b70012be47f6,14/07/1955,2020-09-12_08h50.25.739,proactive3.2,2020.1.2,MacIntel,60,5f5adea66120081ea0f57a61,5f5c7aa3de3d54462326d9b2,4,,,,,,stamp,,,,,,0,0,0,12,1,2,2,,,,,,,,,,,,,,,,,,,,,,,,,,,,,,,,,,,,,,,,,,,,,,,,,,,,,,,,,,,,,,,,,,,,,,,,,,,
,,,,,,,,,,stimuli/images/PICTURE_405.png,JUNGLE,571de12713b1b70012be47f6,14/07/1955,2020-09-12_08h50.25.739,proactive3.2,2020.1.2,MacIntel,60,5f5adea66120081ea0f57a61,5f5c7aa3de3d54462326d9b2,4,,,,,,anchor,,,,,,0,1,1,58,1,6,2,,,,,,,,,,,,,,,,,,,,,,,,,,,,,,,,,,,,,,,,,,,,,,,,,,,,,,,,,,,,,,,,,,,,,,,,,,,
,,,,,,,,,,stimuli/images/PICTURE_677.png,FAMILY,571de12713b1b70012be47f6,14/07/1955,2020-09-12_08h50.25.739,proactive3.2,2020.1.2,MacIntel,60,5f5adea66120081ea0f57a61,5f5c7aa3de3d54462326d9b2,4,,,,,,map,,,,,,0,2,2,53,1,6,2,,,,,,,,,,,,,,,,,,,,,,,,,,,,,,,,,,,,,,,,,,,,,,,,,,,,,,,,,,,,,,,,,,,,,,,,,,,
,,,,,,,,,,stimuli/images/PICTURE_215.png,FOOD,571de12713b1b70012be47f6,14/07/1955,2020-09-12_08h50.25.739,proactive3.2,2020.1.2,MacIntel,60,5f5adea66120081ea0f57a61,5f5c7aa3de3d54462326d9b2,4,,,,,,boot,,,,,,0,3,3,5,1,1,2,,,,,,,,,,,,,,,,,,,,,,,,,,,,,,,,,,,,,,,,,,,,,,,,,,,,,,,,,,,,,,,,,,,,,,,,,,,
,,,,,,,,,,stimuli/images/PICTURE_141.png,CLIENT,571de12713b1b70012be47f6,14/07/1955,2020-09-12_08h50.25.739,proactive3.2,2020.1.2,MacIntel,60,5f5adea66120081ea0f57a61,5f5c7aa3de3d54462326d9b2,4,,,,,,sunflower,,,,,,0,4,4,30,1,4,2,,,,,,,,,,,,,,,,,,,,,,,,,,,,,,,,,,,,,,,,,,,,,,,,,,,,,,,,,,,,,,,,,,,,,,,,,,,
,,,,,,,,,,stimuli/images/PICTURE_311.png,FLESH,571de12713b1b70012be47f6,14/07/1955,2020-09-12_08h50.25.739,proactive3.2,2020.1.2,MacIntel,60,5f5adea66120081ea0f57a61,5f5c7aa3de3d54462326d9b2,4,,,,,,razor,,,,,,0,5,5,3,1,1,2,,,,,,,,,,,,,,,,,,,,,,,,,,,,,,,,,,,,,,,,,,,,,,,,,,,,,,,,,,,,,,,,,,,,,,,,,,,
,,,,,,,,,,stimuli/images/PICTURE_470.png,BEAUTY,571de12713b1b70012be47f6,14/07/1955,2020-09-12_08h50.25.739,proactive3.2,2020.1.2,MacIntel,60,5f5adea66120081ea0f57a61,5f5c7aa3de3d54462326d9b2,4,,,,,,motorbike,,,,,,0,6,6,26,1,3,2,,,,,,,,,,,,,,,,,,,,,,,,,,,,,,,,,,,,,,,,,,,,,,,,,,,,,,,,,,,,,,,,,,,,,,,,,,,
,,,,,,,,,,stimuli/images/PICTURE_33.png,COPS,571de12713b1b70012be47f6,14/07/1955,2020-09-12_08h50.25.739,proactive3.2,2020.1.2,MacIntel,60,5f5adea66120081ea0f57a61,5f5c7aa3de3d54462326d9b2,4,,,,,,frame,,,,,,0,7,7,29,1,3,2,,,,,,,,,,,,,,,,,,,,,,,,,,,,,,,,,,,,,,,,,,,,,,,,,,,,,,,,,,,,,,,,,,,,,,,,,,,
,,,,,,,,,,stimuli/images/PICTURE_655.png,SALE,571de12713b1b70012be47f6,14/07/1955,2020-09-12_08h50.25.739,proactive3.2,2020.1.2,MacIntel,60,5f5adea66120081ea0f57a61,5f5c7aa3de3d54462326d9b2,4,,,,,,megaphone,,,,,,0,8,8,57,1,6,2,,,,,,,,,,,,,,,,,,,,,,,,,,,,,,,,,,,,,,,,,,,,,,,,,,,,,,,,,,,,,,,,,,,,,,,,,,,
,,,,,,,,,,stimuli/images/PICTURE_348.png,TOILET,571de12713b1b70012be47f6,14/07/1955,2020-09-12_08h50.25.739,proactive3.2,2020.1.2,MacIntel,60,5f5adea66120081ea0f57a61,5f5c7aa3de3d54462326d9b2,4,,,,,,pepper,,,,,,0,9,9,4,1,1,2,,,,,,,,,,,,,,,,,,,,,,,,,,,,,,,,,,,,,,,,,,,,,,,,,,,,,,,,,,,,,,,,,,,,,,,,,,,
,,,,,,,,,,stimuli/images/PICTURE_57.png,CANDY,571de12713b1b70012be47f6,14/07/1955,2020-09-12_08h50.25.739,proactive3.2,2020.1.2,MacIntel,60,5f5adea66120081ea0f57a61,5f5c7aa3de3d54462326d9b2,4,,,,,,stamp,,,,,,0,10,10,52,1,6,2,,,,,,,,,,,,,,,,,,,,,,,,,,,,,,,,,,,,,,,,,,,,,,,,,,,,,,,,,,,,,,,,,,,,,,,,,,,
,,,,,,,,,,stimuli/images/PICTURE_123.png,SALE,571de12713b1b70012be47f6,14/07/1955,2020-09-12_08h50.25.739,proactive3.2,2020.1.2,MacIntel,60,5f5adea66120081ea0f57a61,5f5c7aa3de3d54462326d9b2,4,,,,,,dart,,,,,,0,11,11,8,1,1,2,,,,,,,,,,,,,,,,,,,,,,,,,,,,,,,,,,,,,,,,,,,,,,,,,,,,,,,,,,,,,,,,,,,,,,,,,,,
,,,,,,,,,,stimuli/images/PICTURE_491.png,SERIES,571de12713b1b70012be47f6,14/07/1955,2020-09-12_08h50.25.739,proactive3.2,2020.1.2,MacIntel,60,5f5adea66120081ea0f57a61,5f5c7aa3de3d54462326d9b2,4,,,,,,rug,,,,,,0,12,12,39,1,4,2,,,,,,,,,,,,,,,,,,,,,,,,,,,,,,,,,,,,,,,,,,,,,,,,,,,,,,,,,,,,,,,,,,,,,,,,,,,
,,,,,,,,,,stimuli/images/PICTURE_57.png,NATION,571de12713b1b70012be47f6,14/07/1955,2020-09-12_08h50.25.739,proactive3.2,2020.1.2,MacIntel,60,5f5adea66120081ea0f57a61,5f5c7aa3de3d54462326d9b2,4,,,,,,stamp,,,,,,0,13,13,21,1,3,2,,,,,,,,,,,,,,,,,,,,,,,,,,,,,,,,,,,,,,,,,,,,,,,,,,,,,,,,,,,,,,,,,,,,,,,,,,,
,,,,,,,,,,stimuli/images/PICTURE_285.png,WRITER,571de12713b1b70012be47f6,14/07/1955,2020-09-12_08h50.25.739,proactive3.2,2020.1.2,MacIntel,60,5f5adea66120081ea0f57a61,5f5c7aa3de3d54462326d9b2,4,,,,,,carrot,,,,,,0,14,14,6,1,1,2,,,,,,,,,,,,,,,,,,,,,,,,,,,,,,,,,,,,,,,,,,,,,,,,,,,,,,,,,,,,,,,,,,,,,,,,,,,
,,,,,,,,,,stimuli/images/PICTURE_177.png,HOUSE,571de12713b1b70012be47f6,14/07/1955,2020-09-12_08h50.25.739,proactive3.2,2020.1.2,MacIntel,60,5f5adea66120081ea0f57a61,5f5c7aa3de3d54462326d9b2,4,,,,,,mushroom,,,,,,0,15,15,25,1,3,2,,,,,,,,,,,,,,,,,,,,,,,,,,,,,,,,,,,,,,,,,,,,,,,,,,,,,,,,,,,,,,,,,,,,,,,,,,,
,,,,,,,,,,stimuli/images/PICTURE_93.png,GIRL,571de12713b1b70012be47f6,14/07/1955,2020-09-12_08h50.25.739,proactive3.2,2020.1.2,MacIntel,60,5f5adea66120081ea0f57a61,5f5c7aa3de3d54462326d9b2,4,,,,,,skateboard,,,,,,0,16,16,31,1,4,2,,,,,,,,,,,,,,,,,,,,,,,,,,,,,,,,,,,,,,,,,,,,,,,,,,,,,,,,,,,,,,,,,,,,,,,,,,,
,,,,,,,,,,stimuli/images/PICTURE_2.png,AREA,571de12713b1b70012be47f6,14/07/1955,2020-09-12_08h50.25.739,proactive3.2,2020.1.2,MacIntel,60,5f5adea66120081ea0f57a61,5f5c7aa3de3d54462326d9b2,4,,,,,,tyre,,,,,,0,17,17,32,1,4,2,,,,,,,,,,,,,,,,,,,,,,,,,,,,,,,,,,,,,,,,,,,,,,,,,,,,,,,,,,,,,,,,,,,,,,,,,,,
,,,,,,,,,,stimuli/images/PICTURE_470.png,MOMENT,571de12713b1b70012be47f6,14/07/1955,2020-09-12_08h50.25.739,proactive3.2,2020.1.2,MacIntel,60,5f5adea66120081ea0f57a61,5f5c7aa3de3d54462326d9b2,4,,,,,,motorbike,,,,,,0,18,18,40,1,5,2,,,,,,,,,,,,,,,,,,,,,,,,,,,,,,,,,,,,,,,,,,,,,,,,,,,,,,,,,,,,,,,,,,,,,,,,,,,
,,,,,,,,,,stimuli/images/PICTURE_452.png,COPS,571de12713b1b70012be47f6,14/07/1955,2020-09-12_08h50.25.739,proactive3.2,2020.1.2,MacIntel,60,5f5adea66120081ea0f57a61,5f5c7aa3de3d54462326d9b2,4,,,,,,watch,,,,,,0,19,19,0,1,1,2,,,,,,,,,,,,,,,,,,,,,,,,,,,,,,,,,,,,,,,,,,,,,,,,,,,,,,,,,,,,,,,,,,,,,,,,,,,
,,,,,,,,,,stimuli/images/PICTURE_208.png,SPIRIT,571de12713b1b70012be47f6,14/07/1955,2020-09-12_08h50.25.739,proactive3.2,2020.1.2,MacIntel,60,5f5adea66120081ea0f57a61,5f5c7aa3de3d54462326d9b2,4,,,,,,microphone,,,,,,0,20,20,28,1,3,2,,,,,,,,,,,,,,,,,,,,,,,,,,,,,,,,,,,,,,,,,,,,,,,,,,,,,,,,,,,,,,,,,,,,,,,,,,,
,,,,,,,,,,stimuli/images/PICTURE_297.png,BODY,571de12713b1b70012be47f6,14/07/1955,2020-09-12_08h50.25.739,proactive3.2,2020.1.2,MacIntel,60,5f5adea66120081ea0f57a61,5f5c7aa3de3d54462326d9b2,4,,,,,,aeroplane,,,,,,0,21,21,51,1,6,2,,,,,,,,,,,,,,,,,,,,,,,,,,,,,,,,,,,,,,,,,,,,,,,,,,,,,,,,,,,,,,,,,,,,,,,,,,,
,,,,,,,,,,stimuli/images/PICTURE_487.png,ROOF,571de12713b1b70012be47f6,14/07/1955,2020-09-12_08h50.25.739,proactive3.2,2020.1.2,MacIntel,60,5f5adea66120081ea0f57a61,5f5c7aa3de3d54462326d9b2,4,,,,,,basket,,,,,,0,22,22,50,1,6,2,,,,,,,,,,,,,,,,,,,,,,,,,,,,,,,,,,,,,,,,,,,,,,,,,,,,,,,,,,,,,,,,,,,,,,,,,,,
,,,,,,,,,,stimuli/images/PICTURE_2.png,YARD,571de12713b1b70012be47f6,14/07/1955,2020-09-12_08h50.25.739,proactive3.2,2020.1.2,MacIntel,60,5f5adea66120081ea0f57a61,5f5c7aa3de3d54462326d9b2,4,,,,,,tyre,,,,,,0,23,23,55,1,6,2,,,,,,,,,,,,,,,,,,,,,,,,,,,,,,,,,,,,,,,,,,,,,,,,,,,,,,,,,,,,,,,,,,,,,,,,,,,
,,,,,,,,,,stimuli/images/PICTURE_348.png,DUDE,571de12713b1b70012be47f6,14/07/1955,2020-09-12_08h50.25.739,proactive3.2,2020.1.2,MacIntel,60,5f5adea66120081ea0f57a61,5f5c7aa3de3d54462326d9b2,4,,,,,,pepper,,,,,,0,24,24,59,1,6,2,,,,,,,,,,,,,,,,,,,,,,,,,,,,,,,,,,,,,,,,,,,,,,,,,,,,,,,,,,,,,,,,,,,,,,,,,,,
,,,,,,,,,,stimuli/images/PICTURE_654.png,YEAR,571de12713b1b70012be47f6,14/07/1955,2020-09-12_08h50.25.739,proactive3.2,2020.1.2,MacIntel,60,5f5adea66120081ea0f57a61,5f5c7aa3de3d54462326d9b2,4,,,,,,pencil,,,,,,0,25,25,41,1,5,2,,,,,,,,,,,,,,,,,,,,,,,,,,,,,,,,,,,,,,,,,,,,,,,,,,,,,,,,,,,,,,,,,,,,,,,,,,,
,,,,,,,,,,stimuli/images/PICTURE_147.png,LEADER,571de12713b1b70012be47f6,14/07/1955,2020-09-12_08h50.25.739,proactive3.2,2020.1.2,MacIntel,60,5f5adea66120081ea0f57a61,5f5c7aa3de3d54462326d9b2,4,,,,,,hanger,,,,,,0,26,26,33,1,4,2,,,,,,,,,,,,,,,,,,,,,,,,,,,,,,,,,,,,,,,,,,,,,,,,,,,,,,,,,,,,,,,,,,,,,,,,,,,
,,,,,,,,,,stimuli/images/PICTURE_509.png,BATH,571de12713b1b70012be47f6,14/07/1955,2020-09-12_08h50.25.739,proactive3.2,2020.1.2,MacIntel,60,5f5adea66120081ea0f57a61,5f5c7aa3de3d54462326d9b2,4,,,,,,telephone,,,,,,0,27,27,15,1,2,2,,,,,,,,,,,,,,,,,,,,,,,,,,,,,,,,,,,,,,,,,,,,,,,,,,,,,,,,,,,,,,,,,,,,,,,,,,,
,,,,,,,,,,stimuli/images/PICTURE_95.png,NIGHT,571de12713b1b70012be47f6,14/07/1955,2020-09-12_08h50.25.739,proactive3.2,2020.1.2,MacIntel,60,5f5adea66120081ea0f57a61,5f5c7aa3de3d54462326d9b2,4,,,,,,suitcase,,,,,,0,28,28,37,1,4,2,,,,,,,,,,,,,,,,,,,,,,,,,,,,,,,,,,,,,,,,,,,,,,,,,,,,,,,,,,,,,,,,,,,,,,,,,,,
,,,,,,,,,,stimuli/images/PICTURE_487.png,POLICY,571de12713b1b70012be47f6,14/07/1955,2020-09-12_08h50.25.739,proactive3.2,2020.1.2,MacIntel,60,5f5adea66120081ea0f57a61,5f5c7aa3de3d54462326d9b2,4,,,,,,basket,,,,,,0,29,29,34,1,4,2,,,,,,,,,,,,,,,,,,,,,,,,,,,,,,,,,,,,,,,,,,,,,,,,,,,,,,,,,,,,,,,,,,,,,,,,,,,
,,,,,,,,,,stimuli/images/PICTURE_509.png,MILLER,571de12713b1b70012be47f6,14/07/1955,2020-09-12_08h50.25.739,proactive3.2,2020.1.2,MacIntel,60,5f5adea66120081ea0f57a61,5f5c7aa3de3d54462326d9b2,4,,,,,,telephone,,,,,,0,30,30,49,1,5,2,,,,,,,,,,,,,,,,,,,,,,,,,,,,,,,,,,,,,,,,,,,,,,,,,,,,,,,,,,,,,,,,,,,,,,,,,,,
,,,,,,,,,,stimuli/images/PICTURE_750.png,POLICY,571de12713b1b70012be47f6,14/07/1955,2020-09-12_08h50.25.739,proactive3.2,2020.1.2,MacIntel,60,5f5adea66120081ea0f57a61,5f5c7aa3de3d54462326d9b2,4,,,,,,kettle,,,,,,0,31,31,44,1,5,2,,,,,,,,,,,,,,,,,,,,,,,,,,,,,,,,,,,,,,,,,,,,,,,,,,,,,,,,,,,,,,,,,,,,,,,,,,,
,,,,,,,,,,stimuli/images/PICTURE_296.png,CLOCK,571de12713b1b70012be47f6,14/07/1955,2020-09-12_08h50.25.739,proactive3.2,2020.1.2,MacIntel,60,5f5adea66120081ea0f57a61,5f5c7aa3de3d54462326d9b2,4,,,,,,bolt,,,,,,0,32,32,18,1,2,2,,,,,,,,,,,,,,,,,,,,,,,,,,,,,,,,,,,,,,,,,,,,,,,,,,,,,,,,,,,,,,,,,,,,,,,,,,,
,,,,,,,,,,stimuli/images/PICTURE_564.png,PLENTY,571de12713b1b70012be47f6,14/07/1955,2020-09-12_08h50.25.739,proactive3.2,2020.1.2,MacIntel,60,5f5adea66120081ea0f57a61,5f5c7aa3de3d54462326d9b2,4,,,,,,spoon,,,,,,0,33,33,11,1,2,2,,,,,,,,,,,,,,,,,,,,,,,,,,,,,,,,,,,,,,,,,,,,,,,,,,,,,,,,,,,,,,,,,,,,,,,,,,,
,,,,,,,,,,stimuli/images/PICTURE_2.png,JUNGLE,571de12713b1b70012be47f6,14/07/1955,2020-09-12_08h50.25.739,proactive3.2,2020.1.2,MacIntel,60,5f5adea66120081ea0f57a61,5f5c7aa3de3d54462326d9b2,4,,,,,,tyre,,,,,,0,34,34,1,1,1,2,,,,,,,,,,,,,,,,,,,,,,,,,,,,,,,,,,,,,,,,,,,,,,,,,,,,,,,,,,,,,,,,,,,,,,,,,,,
,,,,,,,,,,stimuli/images/PICTURE_285.png,PRINCE,571de12713b1b70012be47f6,14/07/1955,2020-09-12_08h50.25.739,proactive3.2,2020.1.2,MacIntel,60,5f5adea66120081ea0f57a61,5f5c7aa3de3d54462326d9b2,4,,,,,,carrot,,,,,,0,35,35,20,1,3,2,,,,,,,,,,,,,,,,,,,,,,,,,,,,,,,,,,,,,,,,,,,,,,,,,,,,,,,,,,,,,,,,,,,,,,,,,,,
,,,,,,,,,,stimuli/images/PICTURE_509.png,SHOTS,571de12713b1b70012be47f6,14/07/1955,2020-09-12_08h50.25.739,proactive3.2,2020.1.2,MacIntel,60,5f5adea66120081ea0f57a61,5f5c7aa3de3d54462326d9b2,4,,,,,,telephone,,,,,,0,36,36,7,1,1,2,,,,,,,,,,,,,,,,,,,,,,,,,,,,,,,,,,,,,,,,,,,,,,,,,,,,,,,,,,,,,,,,,,,,,,,,,,,
,,,,,,,,,,stimuli/images/PICTURE_677.png,PHOTO,571de12713b1b70012be47f6,14/07/1955,2020-09-12_08h50.25.739,proactive3.2,2020.1.2,MacIntel,60,5f5adea66120081ea0f57a61,5f5c7aa3de3d54462326d9b2,4,,,,,,map,,,,,,0,37,37,14,1,2,2,,,,,,,,,,,,,,,,,,,,,,,,,,,,,,,,,,,,,,,,,,,,,,,,,,,,,,,,,,,,,,,,,,,,,,,,,,,
,,,,,,,,,,stimuli/images/PICTURE_68.png,KIND,571de12713b1b70012be47f6,14/07/1955,2020-09-12_08h50.25.739,proactive3.2,2020.1.2,MacIntel,60,5f5adea66120081ea0f57a61,5f5c7aa3de3d54462326d9b2,4,,,,,,candle,,,,,,0,38,38,23,1,3,2,,,,,,,,,,,,,,,,,,,,,,,,,,,,,,,,,,,,,,,,,,,,,,,,,,,,,,,,,,,,,,,,,,,,,,,,,,,
,,,,,,,,,,stimuli/images/PICTURE_314.png,SPEECH,571de12713b1b70012be47f6,14/07/1955,2020-09-12_08h50.25.739,proactive3.2,2020.1.2,MacIntel,60,5f5adea66120081ea0f57a61,5f5c7aa3de3d54462326d9b2,4,,,,,,perfume,,,,,,0,39,39,35,1,4,2,,,,,,,,,,,,,,,,,,,,,,,,,,,,,,,,,,,,,,,,,,,,,,,,,,,,,,,,,,,,,,,,,,,,,,,,,,,
,,,,,,,,,,stimuli/images/PICTURE_692.png,DUDE,571de12713b1b70012be47f6,14/07/1955,2020-09-12_08h50.25.739,proactive3.2,2020.1.2,MacIntel,60,5f5adea66120081ea0f57a61,5f5c7aa3de3d54462326d9b2,4,,,,,,cherry,,,,,,0,40,40,47,1,5,2,,,,,,,,,,,,,,,,,,,,,,,,,,,,,,,,,,,,,,,,,,,,,,,,,,,,,,,,,,,,,,,,,,,,,,,,,,,
,,,,,,,,,,stimuli/images/PICTURE_453.png,FAMILY,571de12713b1b70012be47f6,14/07/1955,2020-09-12_08h50.25.739,proactive3.2,2020.1.2,MacIntel,60,5f5adea66120081ea0f57a61,5f5c7aa3de3d54462326d9b2,4,,,,,,scissors,,,,,,0,41,41,48,1,5,2,,,,,,,,,,,,,,,,,,,,,,,,,,,,,,,,,,,,,,,,,,,,,,,,,,,,,,,,,,,,,,,,,,,,,,,,,,,
,,,,,,,,,,stimuli/images/PICTURE_688.png,CLOCK,571de12713b1b70012be47f6,14/07/1955,2020-09-12_08h50.25.739,proactive3.2,2020.1.2,MacIntel,60,5f5adea66120081ea0f57a61,5f5c7aa3de3d54462326d9b2,4,,,,,,runner,,,,,,0,42,42,42,1,5,2,,,,,,,,,,,,,,,,,,,,,,,,,,,,,,,,,,,,,,,,,,,,,,,,,,,,,,,,,,,,,,,,,,,,,,,,,,,
,,,,,,,,,,stimuli/images/PICTURE_311.png,TOILET,571de12713b1b70012be47f6,14/07/1955,2020-09-12_08h50.25.739,proactive3.2,2020.1.2,MacIntel,60,5f5adea66120081ea0f57a61,5f5c7aa3de3d54462326d9b2,4,,,,,,razor,,,,,,0,43,43,54,1,6,2,,,,,,,,,,,,,,,,,,,,,,,,,,,,,,,,,,,,,,,,,,,,,,,,,,,,,,,,,,,,,,,,,,,,,,,,,,,
,,,,,,,,,,stimuli/images/PICTURE_708.png,VALLEY,571de12713b1b70012be47f6,14/07/1955,2020-09-12_08h50.25.739,proactive3.2,2020.1.2,MacIntel,60,5f5adea66120081ea0f57a61,5f5c7aa3de3d54462326d9b2,4,,,,,,monkey,,,,,,0,44,44,45,1,5,2,,,,,,,,,,,,,,,,,,,,,,,,,,,,,,,,,,,,,,,,,,,,,,,,,,,,,,,,,,,,,,,,,,,,,,,,,,,
,,,,,,,,,,stimuli/images/PICTURE_18.png,RIVER,571de12713b1b70012be47f6,14/07/1955,2020-09-12_08h50.25.739,proactive3.2,2020.1.2,MacIntel,60,5f5adea66120081ea0f57a61,5f5c7aa3de3d54462326d9b2,4,,,,,,planet,,,,,,0,45,45,22,1,3,2,,,,,,,,,,,,,,,,,,,,,,,,,,,,,,,,,,,,,,,,,,,,,,,,,,,,,,,,,,,,,,,,,,,,,,,,,,,
,,,,,,,,,,stimuli/images/PICTURE_667.png,GLASS,571de12713b1b70012be47f6,14/07/1955,2020-09-12_08h50.25.739,proactive3.2,2020.1.2,MacIntel,60,5f5adea66120081ea0f57a61,5f5c7aa3de3d54462326d9b2,4,,,,,,daisy,,,,,,0,46,46,27,1,3,2,,,,,,,,,,,,,,,,,,,,,,,,,,,,,,,,,,,,,,,,,,,,,,,,,,,,,,,,,,,,,,,,,,,,,,,,,,,
,,,,,,,,,,stimuli/images/PICTURE_403.png,FAMILY,571de12713b1b70012be47f6,14/07/1955,2020-09-12_08h50.25.739,proactive3.2,2020.1.2,MacIntel,60,5f5adea66120081ea0f57a61,5f5c7aa3de3d54462326d9b2,4,,,,,,cathedral,,,,,,0,47,47,9,1,1,2,,,,,,,,,,,,,,,,,,,,,,,,,,,,,,,,,,,,,,,,,,,,,,,,,,,,,,,,,,,,,,,,,,,,,,,,,,,
,,,,,,,,,,stimuli/images/PICTURE_160.png,HOTEL,571de12713b1b70012be47f6,14/07/1955,2020-09-12_08h50.25.739,proactive3.2,2020.1.2,MacIntel,60,5f5adea66120081ea0f57a61,5f5c7aa3de3d54462326d9b2,4,,,,,,wheelbarrow,,,,,,0,48,48,16,1,2,2,,,,,,,,,,,,,,,,,,,,,,,,,,,,,,,,,,,,,,,,,,,,,,,,,,,,,,,,,,,,,,,,,,,,,,,,,,,
,,,,,,,,,,stimuli/images/PICTURE_327.png,LEADER,571de12713b1b70012be47f6,14/07/1955,2020-09-12_08h50.25.739,proactive3.2,2020.1.2,MacIntel,60,5f5adea66120081ea0f57a61,5f5c7aa3de3d54462326d9b2,4,,,,,,helmet,,,,,,0,49,49,17,1,2,2,,,,,,,,,,,,,,,,,,,,,,,,,,,,,,,,,,,,,,,,,,,,,,,,,,,,,,,,,,,,,,,,,,,,,,,,,,,
,,,,,,,,,,stimuli/images/PICTURE_504.png,HOUSE,571de12713b1b70012be47f6,14/07/1955,2020-09-12_08h50.25.739,proactive3.2,2020.1.2,MacIntel,60,5f5adea66120081ea0f57a61,5f5c7aa3de3d54462326d9b2,4,,,,,,wheel,,,,,,0,50,50,36,1,4,2,,,,,,,,,,,,,,,,,,,,,,,,,,,,,,,,,,,,,,,,,,,,,,,,,,,,,,,,,,,,,,,,,,,,,,,,,,,
,,,,,,,,,,stimuli/images/PICTURE_405.png,HOUSE,571de12713b1b70012be47f6,14/07/1955,2020-09-12_08h50.25.739,proactive3.2,2020.1.2,MacIntel,60,5f5adea66120081ea0f57a61,5f5c7aa3de3d54462326d9b2,4,,,,,,anchor,,,,,,0,51,51,2,1,1,2,,,,,,,,,,,,,,,,,,,,,,,,,,,,,,,,,,,,,,,,,,,,,,,,,,,,,,,,,,,,,,,,,,,,,,,,,,,
,,,,,,,,,,stimuli/images/PICTURE_215.png,BOYS,571de12713b1b70012be47f6,14/07/1955,2020-09-12_08h50.25.739,proactive3.2,2020.1.2,MacIntel,60,5f5adea66120081ea0f57a61,5f5c7aa3de3d54462326d9b2,4,,,,,,boot,,,,,,0,52,52,24,1,3,2,,,,,,,,,,,,,,,,,,,,,,,,,,,,,,,,,,,,,,,,,,,,,,,,,,,,,,,,,,,,,,,,,,,,,,,,,,,
,,,,,,,,,,stimuli/images/PICTURE_32.png,LETTER,571de12713b1b70012be47f6,14/07/1955,2020-09-12_08h50.25.739,proactive3.2,2020.1.2,MacIntel,60,5f5adea66120081ea0f57a61,5f5c7aa3de3d54462326d9b2,4,,,,,,crown,,,,,,0,53,53,56,1,6,2,,,,,,,,,,,,,,,,,,,,,,,,,,,,,,,,,,,,,,,,,,,,,,,,,,,,,,,,,,,,,,,,,,,,,,,,,,,
,,,,,,,,,,stimuli/images/PICTURE_356.png,CANDY,571de12713b1b70012be47f6,14/07/1955,2020-09-12_08h50.25.739,proactive3.2,2020.1.2,MacIntel,60,5f5adea66120081ea0f57a61,5f5c7aa3de3d54462326d9b2,4,,,,,,pawn,,,,,,0,54,54,46,1,5,2,,,,,,,,,,,,,,,,,,,,,,,,,,,,,,,,,,,,,,,,,,,,,,,,,,,,,,,,,,,,,,,,,,,,,,,,,,,
,,,,,,,,,,stimuli/images/PICTURE_405.png,JUNGLE,571de12713b1b70012be47f6,14/07/1955,2020-09-12_08h50.25.739,proactive3.2,2020.1.2,MacIntel,60,5f5adea66120081ea0f57a61,5f5c7aa3de3d54462326d9b2,4,,,,,,anchor,,,,,,0,55,55,13,1,2,2,,,,,,,,,,,,,,,,,,,,,,,,,,,,,,,,,,,,,,,,,,,,,,,,,,,,,,,,,,,,,,,,,,,,,,,,,,,
,,,,,,,,,,stimuli/images/PICTURE_215.png,LEADER,571de12713b1b70012be47f6,14/07/1955,2020-09-12_08h50.25.739,proactive3.2,2020.1.2,MacIntel,60,5f5adea66120081ea0f57a61,5f5c7aa3de3d54462326d9b2,4,,,,,,boot,,,,,,0,56,56,43,1,5,2,,,,,,,,,,,,,,,,,,,,,,,,,,,,,,,,,,,,,,,,,,,,,,,,,,,,,,,,,,,,,,,,,,,,,,,,,,,
,,,,,,,,,,stimuli/images/PICTURE_654.png,COPS,571de12713b1b70012be47f6,14/07/1955,2020-09-12_08h50.25.739,proactive3.2,2020.1.2,MacIntel,60,5f5adea66120081ea0f57a61,5f5c7aa3de3d54462326d9b2,4,,,,,,pencil,,,,,,0,57,57,10,1,2,2,,,,,,,,,,,,,,,,,,,,,,,,,,,,,,,,,,,,,,,,,,,,,,,,,,,,,,,,,,,,,,,,,,,,,,,,,,,
,,,,,,,,,,stimuli/images/PICTURE_509.png,APPLE,571de12713b1b70012be47f6,14/07/1955,2020-09-12_08h50.25.739,proactive3.2,2020.1.2,MacIntel,60,5f5adea66120081ea0f57a61,5f5c7aa3de3d54462326d9b2,4,,,,,,telephone,,,,,,0,58,58,38,1,4,2,,,,,,,,,,,,,,,,,,,,,,,,,,,,,,,,,,,,,,,,,,,,,,,,,,,,,,,,,,,,,,,,,,,,,,,,,,,
,,?,0.001,0,,,,,,stimuli/images/PICTURE_297.png,BODY,571de12713b1b70012be47f6,14/07/1955,2020-09-12_08h50.25.739,proactive3.2,2020.1.2,MacIntel,60,5f5adea66120081ea0f57a61,5f5c7aa3de3d54462326d9b2,4,,,,,,aeroplane,,,,,,,,,,,6,2,0,0,0,51,1,,,,,,,,,,,,,,,,,,,,,,,,,,,,,,,,,,,,,,,,,,,,,,,,,,,,,,,,,,,,,,,,,,,,,,
,,SERIES,7.001,1,,,,,,stimuli/images/PICTURE_491.png,SERIES,571de12713b1b70012be47f6,14/07/1955,2020-09-12_08h50.25.739,proactive3.2,2020.1.2,MacIntel,60,5f5adea66120081ea0f57a61,5f5c7aa3de3d54462326d9b2,4,,,,,,rug,,,,,,,,,,,4,2,0,1,1,39,1,,,,,,,,,,,,,,,,,,,,,,,,,,,,,,,,,,,,,,,,,,,,,,,,,,,,,,,,,,,,,,,,,,,,,,
,,?,0.001,0,,,,,,stimuli/images/PICTURE_452.png,COPS,571de12713b1b70012be47f6,14/07/1955,2020-09-12_08h50.25.739,proactive3.2,2020.1.2,MacIntel,60,5f5adea66120081ea0f57a61,5f5c7aa3de3d54462326d9b2,4,,,,,,watch,,,,,,,,,,,1,2,0,2,2,0,1,,,,,,,,,,,,,,,,,,,,,,,,,,,,,,,,,,,,,,,,,,,,,,,,,,,,,,,,,,,,,,,,,,,,,,
,,?,0.001,0,,,,,,stimuli/images/PICTURE_348.png,TOILET,571de12713b1b70012be47f6,14/07/1955,2020-09-12_08h50.25.739,proactive3.2,2020.1.2,MacIntel,60,5f5adea66120081ea0f57a61,5f5c7aa3de3d54462326d9b2,4,,,,,,pepper,,,,,,,,,,,1,2,0,3,3,4,1,,,,,,,,,,,,,,,,,,,,,,,,,,,,,,,,,,,,,,,,,,,,,,,,,,,,,,,,,,,,,,,,,,,,,,
,,?,0.001,0,,,,,,stimuli/images/PICTURE_405.png,JUNGLE,571de12713b1b70012be47f6,14/07/1955,2020-09-12_08h50.25.739,proactive3.2,2020.1.2,MacIntel,60,5f5adea66120081ea0f57a61,5f5c7aa3de3d54462326d9b2,4,,,,,,anchor,,,,,,,,,,,2,2,0,4,4,13,1,,,,,,,,,,,,,,,,,,,,,,,,,,,,,,,,,,,,,,,,,,,,,,,,,,,,,,,,,,,,,,,,,,,,,,
,,?,0,0,,,,,,stimuli/images/PICTURE_356.png,CANDY,571de12713b1b70012be47f6,14/07/1955,2020-09-12_08h50.25.739,proactive3.2,2020.1.2,MacIntel,60,5f5adea66120081ea0f57a61,5f5c7aa3de3d54462326d9b2,4,,,,,,pawn,,,,,,,,,,,5,2,0,5,5,46,1,,,,,,,,,,,,,,,,,,,,,,,,,,,,,,,,,,,,,,,,,,,,,,,,,,,,,,,,,,,,,,,,,,,,,,
,,?,0,0,,,,,,stimuli/images/PICTURE_2.png,YARD,571de12713b1b70012be47f6,14/07/1955,2020-09-12_08h50.25.739,proactive3.2,2020.1.2,MacIntel,60,5f5adea66120081ea0f57a61,5f5c7aa3de3d54462326d9b2,4,,,,,,tyre,,,,,,,,,,,6,2,0,6,6,55,1,,,,,,,,,,,,,,,,,,,,,,,,,,,,,,,,,,,,,,,,,,,,,,,,,,,,,,,,,,,,,,,,,,,,,,
,,?,0,0,,,,,,stimuli/images/PICTURE_215.png,LEADER,571de12713b1b70012be47f6,14/07/1955,2020-09-12_08h50.25.739,proactive3.2,2020.1.2,MacIntel,60,5f5adea66120081ea0f57a61,5f5c7aa3de3d54462326d9b2,4,,,,,,boot,,,,,,,,,,,5,2,0,7,7,43,1,,,,,,,,,,,,,,,,,,,,,,,,,,,,,,,,,,,,,,,,,,,,,,,,,,,,,,,,,,,,,,,,,,,,,,
,,?,0.001,0,,,,,,stimuli/images/PICTURE_677.png,PHOTO,571de12713b1b70012be47f6,14/07/1955,2020-09-12_08h50.25.739,proactive3.2,2020.1.2,MacIntel,60,5f5adea66120081ea0f57a61,5f5c7aa3de3d54462326d9b2,4,,,,,,map,,,,,,,,,,,2,2,0,8,8,14,1,,,,,,,,,,,,,,,,,,,,,,,,,,,,,,,,,,,,,,,,,,,,,,,,,,,,,,,,,,,,,,,,,,,,,,
,,?,0,0,,,,,,stimuli/images/PICTURE_509.png,SHOTS,571de12713b1b70012be47f6,14/07/1955,2020-09-12_08h50.25.739,proactive3.2,2020.1.2,MacIntel,60,5f5adea66120081ea0f57a61,5f5c7aa3de3d54462326d9b2,4,,,,,,telephone,,,,,,,,,,,1,2,0,9,9,7,1,,,,,,,,,,,,,,,,,,,,,,,,,,,,,,,,,,,,,,,,,,,,,,,,,,,,,,,,,,,,,,,,,,,,,,
,,NIGHT,2.783,1,,,,,,stimuli/images/PICTURE_95.png,NIGHT,571de12713b1b70012be47f6,14/07/1955,2020-09-12_08h50.25.739,proactive3.2,2020.1.2,MacIntel,60,5f5adea66120081ea0f57a61,5f5c7aa3de3d54462326d9b2,4,,,,,,suitcase,,,,,,,,,,,4,2,0,10,10,37,1,,,,,,,,,,,,,,,,,,,,,,,,,,,,,,,,,,,,,,,,,,,,,,,,,,,,,,,,,,,,,,,,,,,,,,
,,GIRL,1.835,1,,,,,,stimuli/images/PICTURE_93.png,GIRL,571de12713b1b70012be47f6,14/07/1955,2020-09-12_08h50.25.739,proactive3.2,2020.1.2,MacIntel,60,5f5adea66120081ea0f57a61,5f5c7aa3de3d54462326d9b2,4,,,,,,skateboard,,,,,,,,,,,4,2,0,11,11,31,1,,,,,,,,,,,,,,,,,,,,,,,,,,,,,,,,,,,,,,,,,,,,,,,,,,,,,,,,,,,,,,,,,,,,,,
,,AREA,1.835,1,,,,,,stimuli/images/PICTURE_2.png,AREA,571de12713b1b70012be47f6,14/07/1955,2020-09-12_08h50.25.739,proactive3.2,2020.1.2,MacIntel,60,5f5adea66120081ea0f57a61,5f5c7aa3de3d54462326d9b2,4,,,,,,tyre,,,,,,,,,,,4,2,0,12,12,32,1,,,,,,,,,,,,,,,,,,,,,,,,,,,,,,,,,,,,,,,,,,,,,,,,,,,,,,,,,,,,,,,,,,,,,,
