consent_key.keys,consent_key.rt,recalled,recalled_rt,recall_acc,example_recall.thisRepN,example_recall.thisTrialN,example_recall.thisN,example_recall.thisIndex,example_recall.ran,file,word,participant,please enter your date of birth (dd/mm/yyyy),date,expName,psychopyVersion,OS,frameRate,STUDY_ID,SESSION_ID,list,prac_learn_study_loop.thisRepN,prac_learn_study_loop.thisTrialN,prac_learn_study_loop.thisN,prac_learn_study_loop.thisIndex,prac_learn_study_loop.ran,image,prac_learn_test_loop.thisRepN,prac_learn_test_loop.thisTrialN,prac_learn_test_loop.thisN,prac_learn_test_loop.thisIndex,prac_learn_test_loop.ran,learn_study_loop.thisRepN,learn_study_loop.thisTrialN,learn_study_loop.thisN,learn_study_loop.thisIndex,learn_study_loop.ran,list_no,block_no,learn_test_loop.thisRepN,learn_test_loop.thisTrialN,learn_test_loop.thisN,learn_test_loop.thisIndex,learn_test_loop.ran,learn_blocks.thisRepN,learn_blocks.thisTrialN,learn_blocks.thisN,learn_blocks.thisIndex,learn_blocks.ran,block_csv,key_resp_13.keys,key_resp_13.rt,learn_blocks_loop.thisRepN,learn_blocks_loop.thisTrialN,learn_blocks_loop.thisN,learn_blocks_loop.thisIndex,learn_blocks_loop.ran,final_learn_test.thisRepN,final_learn_test.thisTrialN,final_learn_test.thisN,final_learn_test.thisIndex,final_learn_test.ran,prac_wm_test_loop.thisRepN,prac_wm_test_loop.thisTrialN,prac_wm_test_loop.thisN,prac_wm_test_loop.thisIndex,prac_wm_test_loop.ran,wm_recalled1,wm_recall_rt1,wm_probed1,wm_recall_acc1,wm_recalled2,wm_recall_rt2,wm_probed2,wm_recall_acc2,wm_recalled3,wm_recall_rt3,wm_probed3,wm_recall_acc3,wm_recalled4,wm_recall_rt4,wm_probed4,wm_recall_acc4,prac_wm_trial_loop.thisRepN,prac_wm_trial_loop.thisTrialN,prac_wm_trial_loop.thisN,prac_wm_trial_loop.thisIndex,prac_wm_trial_loop.ran,word1,image1,file1,item_type1,word2,image2,file2,item_type2,word4,image4,file4,item_type4,word3,image3,file3,item_type3,wm_test_loop.thisRepN,wm_test_loop.thisTrialN,wm_test_loop.thisN,wm_test_loop.thisIndex,wm_test_loop.ran,wm_trial_loop.thisRepN,wm_trial_loop.thisTrialN,wm_trial_loop.thisN,wm_trial_loop.thisIndex,wm_trial_loop.ran
y,102.098,TOUGH,4.508,1,0,0,0,0,1,stimuli/images/PICTURE_747.png,TOUGH,57c0b4480a58f600011a2264,03/11/1990,2020-08-27_15h43.07.259,proactive3.2,2020.1.2,Win32,60,5f47c0b9b035471e11593a5c,5f47c6214ad3d61e6efbb235,6,,,,,,,,,,,,,,,,,,,,,,,,,,,,,,,,,,,,,,,,,,,,,,,,,,,,,,,,,,,,,,,,,,,,,,,,,,,,,,,,,,,,,,,,,,,,,
,,,,,,,,,,stimuli/images/PICTURE_727.png,CELL,57c0b4480a58f600011a2264,03/11/1990,2020-08-27_15h43.07.259,proactive3.2,2020.1.2,Win32,60,5f47c0b9b035471e11593a5c,5f47c6214ad3d61e6efbb235,6,0,0,0,1,1,hose,,,,,,,,,,,,,,,,,,,,,,,,,,,,,,,,,,,,,,,,,,,,,,,,,,,,,,,,,,,,,,,,,,,,,,,,,,,,,,,,,,,,,,,
,,,,,,,,,,stimuli/images/PICTURE_697.png,KILLER,57c0b4480a58f600011a2264,03/11/1990,2020-08-27_15h43.07.259,proactive3.2,2020.1.2,Win32,60,5f47c0b9b035471e11593a5c,5f47c6214ad3d61e6efbb235,6,0,1,1,4,1,peach,,,,,,,,,,,,,,,,,,,,,,,,,,,,,,,,,,,,,,,,,,,,,,,,,,,,,,,,,,,,,,,,,,,,,,,,,,,,,,,,,,,,,,,
,,,,,,,,,,stimuli/images/PICTURE_378.png,LOSS,57c0b4480a58f600011a2264,03/11/1990,2020-08-27_15h43.07.259,proactive3.2,2020.1.2,Win32,60,5f47c0b9b035471e11593a5c,5f47c6214ad3d61e6efbb235,6,0,2,2,2,1,lobster,,,,,,,,,,,,,,,,,,,,,,,,,,,,,,,,,,,,,,,,,,,,,,,,,,,,,,,,,,,,,,,,,,,,,,,,,,,,,,,,,,,,,,,
,,,,,,,,,,stimuli/images/PICTURE_658.png,DEVIL,57c0b4480a58f600011a2264,03/11/1990,2020-08-27_15h43.07.259,proactive3.2,2020.1.2,Win32,60,5f47c0b9b035471e11593a5c,5f47c6214ad3d61e6efbb235,6,0,3,3,3,1,crow,,,,,,,,,,,,,,,,,,,,,,,,,,,,,,,,,,,,,,,,,,,,,,,,,,,,,,,,,,,,,,,,,,,,,,,,,,,,,,,,,,,,,,,
,,KILLER,3.462,1,,,,,,stimuli/images/PICTURE_697.png,KILLER,57c0b4480a58f600011a2264,03/11/1990,2020-08-27_15h43.07.259,proactive3.2,2020.1.2,Win32,60,5f47c0b9b035471e11593a5c,5f47c6214ad3d61e6efbb235,6,,,,,,peach,0,0,0,4,1,,,,,,,,,,,,,,,,,,,,,,,,,,,,,,,,,,,,,,,,,,,,,,,,,,,,,,,,,,,,,,,,,,,,,,,,,,,,,,,,,,
,,CELL,2.499,1,,,,,,stimuli/images/PICTURE_727.png,CELL,57c0b4480a58f600011a2264,03/11/1990,2020-08-27_15h43.07.259,proactive3.2,2020.1.2,Win32,60,5f47c0b9b035471e11593a5c,5f47c6214ad3d61e6efbb235,6,,,,,,hose,0,1,1,1,1,,,,,,,,,,,,,,,,,,,,,,,,,,,,,,,,,,,,,,,,,,,,,,,,,,,,,,,,,,,,,,,,,,,,,,,,,,,,,,,,,,
,,GENIOUS,3.449,0,,,,,,stimuli/images/PICTURE_269.png,GENIUS,57c0b4480a58f600011a2264,03/11/1990,2020-08-27_15h43.07.259,proactive3.2,2020.1.2,Win32,60,5f47c0b9b035471e11593a5c,5f47c6214ad3d61e6efbb235,6,,,,,,chameleon,0,2,2,0,1,,,,,,,,,,,,,,,,,,,,,,,,,,,,,,,,,,,,,,,,,,,,,,,,,,,,,,,,,,,,,,,,,,,,,,,,,,,,,,,,,,
,,DEVIL,3.483,1,,,,,,stimuli/images/PICTURE_658.png,DEVIL,57c0b4480a58f600011a2264,03/11/1990,2020-08-27_15h43.07.259,proactive3.2,2020.1.2,Win32,60,5f47c0b9b035471e11593a5c,5f47c6214ad3d61e6efbb235,6,,,,,,crow,0,3,3,3,1,,,,,,,,,,,,,,,,,,,,,,,,,,,,,,,,,,,,,,,,,,,,,,,,,,,,,,,,,,,,,,,,,,,,,,,,,,,,,,,,,,
,,?,4.766,0,,,,,,stimuli/images/PICTURE_378.png,LOSS,57c0b4480a58f600011a2264,03/11/1990,2020-08-27_15h43.07.259,proactive3.2,2020.1.2,Win32,60,5f47c0b9b035471e11593a5c,5f47c6214ad3d61e6efbb235,6,,,,,,lobster,0,4,4,2,1,,,,,,,,,,,,,,,,,,,,,,,,,,,,,,,,,,,,,,,,,,,,,,,,,,,,,,,,,,,,,,,,,,,,,,,,,,,,,,,,,,
,,,,,,,,,,stimuli/images/PICTURE_356.png,DANGER,57c0b4480a58f600011a2264,03/11/1990,2020-08-27_15h43.07.259,proactive3.2,2020.1.2,Win32,60,5f47c0b9b035471e11593a5c,5f47c6214ad3d61e6efbb235,6,,,,,,pawn,,,,,,0,0,0,55,1,6,0,,,,,,,,,,,,,,,,,,,,,,,,,,,,,,,,,,,,,,,,,,,,,,,,,,,,,,,,,,,,,,,,,,,,,,,,,,,
,,,,,,,,,,stimuli/images/PICTURE_488.png,STYLE,57c0b4480a58f600011a2264,03/11/1990,2020-08-27_15h43.07.259,proactive3.2,2020.1.2,Win32,60,5f47c0b9b035471e11593a5c,5f47c6214ad3d61e6efbb235,6,,,,,,sun,,,,,,0,1,1,33,1,4,0,,,,,,,,,,,,,,,,,,,,,,,,,,,,,,,,,,,,,,,,,,,,,,,,,,,,,,,,,,,,,,,,,,,,,,,,,,,
,,,,,,,,,,stimuli/images/PICTURE_160.png,FEET,57c0b4480a58f600011a2264,03/11/1990,2020-08-27_15h43.07.259,proactive3.2,2020.1.2,Win32,60,5f47c0b9b035471e11593a5c,5f47c6214ad3d61e6efbb235,6,,,,,,wheelbarrow,,,,,,0,2,2,58,1,6,0,,,,,,,,,,,,,,,,,,,,,,,,,,,,,,,,,,,,,,,,,,,,,,,,,,,,,,,,,,,,,,,,,,,,,,,,,,,
,,,,,,,,,,stimuli/images/PICTURE_667.png,BATH,57c0b4480a58f600011a2264,03/11/1990,2020-08-27_15h43.07.259,proactive3.2,2020.1.2,Win32,60,5f47c0b9b035471e11593a5c,5f47c6214ad3d61e6efbb235,6,,,,,,daisy,,,,,,0,3,3,4,1,1,0,,,,,,,,,,,,,,,,,,,,,,,,,,,,,,,,,,,,,,,,,,,,,,,,,,,,,,,,,,,,,,,,,,,,,,,,,,,
,,,,,,,,,,stimuli/images/PICTURE_675.png,WEAPON,57c0b4480a58f600011a2264,03/11/1990,2020-08-27_15h43.07.259,proactive3.2,2020.1.2,Win32,60,5f47c0b9b035471e11593a5c,5f47c6214ad3d61e6efbb235,6,,,,,,windmill,,,,,,0,4,4,32,1,4,0,,,,,,,,,,,,,,,,,,,,,,,,,,,,,,,,,,,,,,,,,,,,,,,,,,,,,,,,,,,,,,,,,,,,,,,,,,,
,,,,,,,,,,stimuli/images/PICTURE_708.png,PENNY,57c0b4480a58f600011a2264,03/11/1990,2020-08-27_15h43.07.259,proactive3.2,2020.1.2,Win32,60,5f47c0b9b035471e11593a5c,5f47c6214ad3d61e6efbb235,6,,,,,,monkey,,,,,,0,5,5,31,1,4,0,,,,,,,,,,,,,,,,,,,,,,,,,,,,,,,,,,,,,,,,,,,,,,,,,,,,,,,,,,,,,,,,,,,,,,,,,,,
,,,,,,,,,,stimuli/images/PICTURE_688.png,WOMEN,57c0b4480a58f600011a2264,03/11/1990,2020-08-27_15h43.07.259,proactive3.2,2020.1.2,Win32,60,5f47c0b9b035471e11593a5c,5f47c6214ad3d61e6efbb235,6,,,,,,runner,,,,,,0,6,6,14,1,2,0,,,,,,,,,,,,,,,,,,,,,,,,,,,,,,,,,,,,,,,,,,,,,,,,,,,,,,,,,,,,,,,,,,,,,,,,,,,
,,,,,,,,,,stimuli/images/PICTURE_151.png,GIRL,57c0b4480a58f600011a2264,03/11/1990,2020-08-27_15h43.07.259,proactive3.2,2020.1.2,Win32,60,5f47c0b9b035471e11593a5c,5f47c6214ad3d61e6efbb235,6,,,,,,tray,,,,,,0,7,7,19,1,2,0,,,,,,,,,,,,,,,,,,,,,,,,,,,,,,,,,,,,,,,,,,,,,,,,,,,,,,,,,,,,,,,,,,,,,,,,,,,
,,,,,,,,,,stimuli/images/PICTURE_467.png,DEMON,57c0b4480a58f600011a2264,03/11/1990,2020-08-27_15h43.07.259,proactive3.2,2020.1.2,Win32,60,5f47c0b9b035471e11593a5c,5f47c6214ad3d61e6efbb235,6,,,,,,peg,,,,,,0,8,8,23,1,3,0,,,,,,,,,,,,,,,,,,,,,,,,,,,,,,,,,,,,,,,,,,,,,,,,,,,,,,,,,,,,,,,,,,,,,,,,,,,
,,,,,,,,,,stimuli/images/PICTURE_314.png,SAKE,57c0b4480a58f600011a2264,03/11/1990,2020-08-27_15h43.07.259,proactive3.2,2020.1.2,Win32,60,5f47c0b9b035471e11593a5c,5f47c6214ad3d61e6efbb235,6,,,,,,perfume,,,,,,0,9,9,7,1,1,0,,,,,,,,,,,,,,,,,,,,,,,,,,,,,,,,,,,,,,,,,,,,,,,,,,,,,,,,,,,,,,,,,,,,,,,,,,,
,,,,,,,,,,stimuli/images/PICTURE_123.png,ADVICE,57c0b4480a58f600011a2264,03/11/1990,2020-08-27_15h43.07.259,proactive3.2,2020.1.2,Win32,60,5f47c0b9b035471e11593a5c,5f47c6214ad3d61e6efbb235,6,,,,,,dart,,,,,,0,10,10,40,1,5,0,,,,,,,,,,,,,,,,,,,,,,,,,,,,,,,,,,,,,,,,,,,,,,,,,,,,,,,,,,,,,,,,,,,,,,,,,,,
,,,,,,,,,,stimuli/images/PICTURE_453.png,DUDE,57c0b4480a58f600011a2264,03/11/1990,2020-08-27_15h43.07.259,proactive3.2,2020.1.2,Win32,60,5f47c0b9b035471e11593a5c,5f47c6214ad3d61e6efbb235,6,,,,,,scissors,,,,,,0,11,11,27,1,3,0,,,,,,,,,,,,,,,,,,,,,,,,,,,,,,,,,,,,,,,,,,,,,,,,,,,,,,,,,,,,,,,,,,,,,,,,,,,
,,,,,,,,,,stimuli/images/PICTURE_708.png,CLIENT,57c0b4480a58f600011a2264,03/11/1990,2020-08-27_15h43.07.259,proactive3.2,2020.1.2,Win32,60,5f47c0b9b035471e11593a5c,5f47c6214ad3d61e6efbb235,6,,,,,,monkey,,,,,,0,12,12,5,1,1,0,,,,,,,,,,,,,,,,,,,,,,,,,,,,,,,,,,,,,,,,,,,,,,,,,,,,,,,,,,,,,,,,,,,,,,,,,,,
,,,,,,,,,,stimuli/images/PICTURE_491.png,WRITER,57c0b4480a58f600011a2264,03/11/1990,2020-08-27_15h43.07.259,proactive3.2,2020.1.2,Win32,60,5f47c0b9b035471e11593a5c,5f47c6214ad3d61e6efbb235,6,,,,,,rug,,,,,,0,13,13,57,1,6,0,,,,,,,,,,,,,,,,,,,,,,,,,,,,,,,,,,,,,,,,,,,,,,,,,,,,,,,,,,,,,,,,,,,,,,,,,,,
,,,,,,,,,,stimuli/images/PICTURE_744.png,SAKE,57c0b4480a58f600011a2264,03/11/1990,2020-08-27_15h43.07.259,proactive3.2,2020.1.2,Win32,60,5f47c0b9b035471e11593a5c,5f47c6214ad3d61e6efbb235,6,,,,,,ring,,,,,,0,14,14,17,1,2,0,,,,,,,,,,,,,,,,,,,,,,,,,,,,,,,,,,,,,,,,,,,,,,,,,,,,,,,,,,,,,,,,,,,,,,,,,,,
,,,,,,,,,,stimuli/images/PICTURE_504.png,BODY,57c0b4480a58f600011a2264,03/11/1990,2020-08-27_15h43.07.259,proactive3.2,2020.1.2,Win32,60,5f47c0b9b035471e11593a5c,5f47c6214ad3d61e6efbb235,6,,,,,,wheel,,,,,,0,15,15,8,1,1,0,,,,,,,,,,,,,,,,,,,,,,,,,,,,,,,,,,,,,,,,,,,,,,,,,,,,,,,,,,,,,,,,,,,,,,,,,,,
,,,,,,,,,,stimuli/images/PICTURE_491.png,ROOF,57c0b4480a58f600011a2264,03/11/1990,2020-08-27_15h43.07.259,proactive3.2,2020.1.2,Win32,60,5f47c0b9b035471e11593a5c,5f47c6214ad3d61e6efbb235,6,,,,,,rug,,,,,,0,16,16,24,1,3,0,,,,,,,,,,,,,,,,,,,,,,,,,,,,,,,,,,,,,,,,,,,,,,,,,,,,,,,,,,,,,,,,,,,,,,,,,,,
,,,,,,,,,,stimuli/images/PICTURE_708.png,YARD,57c0b4480a58f600011a2264,03/11/1990,2020-08-27_15h43.07.259,proactive3.2,2020.1.2,Win32,60,5f47c0b9b035471e11593a5c,5f47c6214ad3d61e6efbb235,6,,,,,,monkey,,,,,,0,17,17,29,1,3,0,,,,,,,,,,,,,,,,,,,,,,,,,,,,,,,,,,,,,,,,,,,,,,,,,,,,,,,,,,,,,,,,,,,,,,,,,,,
,,,,,,,,,,stimuli/images/PICTURE_215.png,PLENTY,57c0b4480a58f600011a2264,03/11/1990,2020-08-27_15h43.07.259,proactive3.2,2020.1.2,Win32,60,5f47c0b9b035471e11593a5c,5f47c6214ad3d61e6efbb235,6,,,,,,boot,,,,,,0,18,18,37,1,4,0,,,,,,,,,,,,,,,,,,,,,,,,,,,,,,,,,,,,,,,,,,,,,,,,,,,,,,,,,,,,,,,,,,,,,,,,,,,
,,,,,,,,,,stimuli/images/PICTURE_32.png,JUNGLE,57c0b4480a58f600011a2264,03/11/1990,2020-08-27_15h43.07.259,proactive3.2,2020.1.2,Win32,60,5f47c0b9b035471e11593a5c,5f47c6214ad3d61e6efbb235,6,,,,,,crown,,,,,,0,19,19,45,1,5,0,,,,,,,,,,,,,,,,,,,,,,,,,,,,,,,,,,,,,,,,,,,,,,,,,,,,,,,,,,,,,,,,,,,,,,,,,,,
,,,,,,,,,,stimuli/images/PICTURE_147.png,MOMENT,57c0b4480a58f600011a2264,03/11/1990,2020-08-27_15h43.07.259,proactive3.2,2020.1.2,Win32,60,5f47c0b9b035471e11593a5c,5f47c6214ad3d61e6efbb235,6,,,,,,hanger,,,,,,0,20,20,51,1,6,0,,,,,,,,,,,,,,,,,,,,,,,,,,,,,,,,,,,,,,,,,,,,,,,,,,,,,,,,,,,,,,,,,,,,,,,,,,,
,,,,,,,,,,stimuli/images/PICTURE_348.png,SPEECH,57c0b4480a58f600011a2264,03/11/1990,2020-08-27_15h43.07.259,proactive3.2,2020.1.2,Win32,60,5f47c0b9b035471e11593a5c,5f47c6214ad3d61e6efbb235,6,,,,,,pepper,,,,,,0,21,21,20,1,3,0,,,,,,,,,,,,,,,,,,,,,,,,,,,,,,,,,,,,,,,,,,,,,,,,,,,,,,,,,,,,,,,,,,,,,,,,,,,
,,,,,,,,,,stimuli/images/PICTURE_302.png,FAMILY,57c0b4480a58f600011a2264,03/11/1990,2020-08-27_15h43.07.259,proactive3.2,2020.1.2,Win32,60,5f47c0b9b035471e11593a5c,5f47c6214ad3d61e6efbb235,6,,,,,,taxi,,,,,,0,22,22,18,1,2,0,,,,,,,,,,,,,,,,,,,,,,,,,,,,,,,,,,,,,,,,,,,,,,,,,,,,,,,,,,,,,,,,,,,,,,,,,,,
,,,,,,,,,,stimuli/images/PICTURE_177.png,CARS,57c0b4480a58f600011a2264,03/11/1990,2020-08-27_15h43.07.259,proactive3.2,2020.1.2,Win32,60,5f47c0b9b035471e11593a5c,5f47c6214ad3d61e6efbb235,6,,,,,,mushroom,,,,,,0,23,23,35,1,4,0,,,,,,,,,,,,,,,,,,,,,,,,,,,,,,,,,,,,,,,,,,,,,,,,,,,,,,,,,,,,,,,,,,,,,,,,,,,
,,,,,,,,,,stimuli/images/PICTURE_68.png,MILE,57c0b4480a58f600011a2264,03/11/1990,2020-08-27_15h43.07.259,proactive3.2,2020.1.2,Win32,60,5f47c0b9b035471e11593a5c,5f47c6214ad3d61e6efbb235,6,,,,,,candle,,,,,,0,24,24,44,1,5,0,,,,,,,,,,,,,,,,,,,,,,,,,,,,,,,,,,,,,,,,,,,,,,,,,,,,,,,,,,,,,,,,,,,,,,,,,,,
,,,,,,,,,,stimuli/images/PICTURE_208.png,LOTS,57c0b4480a58f600011a2264,03/11/1990,2020-08-27_15h43.07.259,proactive3.2,2020.1.2,Win32,60,5f47c0b9b035471e11593a5c,5f47c6214ad3d61e6efbb235,6,,,,,,microphone,,,,,,0,25,25,10,1,2,0,,,,,,,,,,,,,,,,,,,,,,,,,,,,,,,,,,,,,,,,,,,,,,,,,,,,,,,,,,,,,,,,,,,,,,,,,,,
,,,,,,,,,,stimuli/images/PICTURE_677.png,MILE,57c0b4480a58f600011a2264,03/11/1990,2020-08-27_15h43.07.259,proactive3.2,2020.1.2,Win32,60,5f47c0b9b035471e11593a5c,5f47c6214ad3d61e6efbb235,6,,,,,,map,,,,,,0,26,26,30,1,4,0,,,,,,,,,,,,,,,,,,,,,,,,,,,,,,,,,,,,,,,,,,,,,,,,,,,,,,,,,,,,,,,,,,,,,,,,,,,
,,,,,,,,,,stimuli/images/PICTURE_123.png,ADVICE,57c0b4480a58f600011a2264,03/11/1990,2020-08-27_15h43.07.259,proactive3.2,2020.1.2,Win32,60,5f47c0b9b035471e11593a5c,5f47c6214ad3d61e6efbb235,6,,,,,,dart,,,,,,0,27,27,50,1,6,0,,,,,,,,,,,,,,,,,,,,,,,,,,,,,,,,,,,,,,,,,,,,,,,,,,,,,,,,,,,,,,,,,,,,,,,,,,,
,,,,,,,,,,stimuli/images/PICTURE_487.png,FLIGHT,57c0b4480a58f600011a2264,03/11/1990,2020-08-27_15h43.07.259,proactive3.2,2020.1.2,Win32,60,5f47c0b9b035471e11593a5c,5f47c6214ad3d61e6efbb235,6,,,,,,basket,,,,,,0,28,28,9,1,1,0,,,,,,,,,,,,,,,,,,,,,,,,,,,,,,,,,,,,,,,,,,,,,,,,,,,,,,,,,,,,,,,,,,,,,,,,,,,
,,,,,,,,,,stimuli/images/PICTURE_208.png,THING,57c0b4480a58f600011a2264,03/11/1990,2020-08-27_15h43.07.259,proactive3.2,2020.1.2,Win32,60,5f47c0b9b035471e11593a5c,5f47c6214ad3d61e6efbb235,6,,,,,,microphone,,,,,,0,29,29,47,1,5,0,,,,,,,,,,,,,,,,,,,,,,,,,,,,,,,,,,,,,,,,,,,,,,,,,,,,,,,,,,,,,,,,,,,,,,,,,,,
,,,,,,,,,,stimuli/images/PICTURE_469.png,LETTER,57c0b4480a58f600011a2264,03/11/1990,2020-08-27_15h43.07.259,proactive3.2,2020.1.2,Win32,60,5f47c0b9b035471e11593a5c,5f47c6214ad3d61e6efbb235,6,,,,,,stool,,,,,,0,30,30,42,1,5,0,,,,,,,,,,,,,,,,,,,,,,,,,,,,,,,,,,,,,,,,,,,,,,,,,,,,,,,,,,,,,,,,,,,,,,,,,,,
,,,,,,,,,,stimuli/images/PICTURE_339.png,PLENTY,57c0b4480a58f600011a2264,03/11/1990,2020-08-27_15h43.07.259,proactive3.2,2020.1.2,Win32,60,5f47c0b9b035471e11593a5c,5f47c6214ad3d61e6efbb235,6,,,,,,backpack,,,,,,0,31,31,0,1,1,0,,,,,,,,,,,,,,,,,,,,,,,,,,,,,,,,,,,,,,,,,,,,,,,,,,,,,,,,,,,,,,,,,,,,,,,,,,,
,,,,,,,,,,stimuli/images/PICTURE_744.png,SYSTEM,57c0b4480a58f600011a2264,03/11/1990,2020-08-27_15h43.07.259,proactive3.2,2020.1.2,Win32,60,5f47c0b9b035471e11593a5c,5f47c6214ad3d61e6efbb235,6,,,,,,ring,,,,,,0,32,32,43,1,5,0,,,,,,,,,,,,,,,,,,,,,,,,,,,,,,,,,,,,,,,,,,,,,,,,,,,,,,,,,,,,,,,,,,,,,,,,,,,
,,,,,,,,,,stimuli/images/PICTURE_308.png,ESTATE,57c0b4480a58f600011a2264,03/11/1990,2020-08-27_15h43.07.259,proactive3.2,2020.1.2,Win32,60,5f47c0b9b035471e11593a5c,5f47c6214ad3d61e6efbb235,6,,,,,,dice,,,,,,0,33,33,46,1,5,0,,,,,,,,,,,,,,,,,,,,,,,,,,,,,,,,,,,,,,,,,,,,,,,,,,,,,,,,,,,,,,,,,,,,,,,,,,,
,,,,,,,,,,stimuli/images/PICTURE_208.png,MONTH,57c0b4480a58f600011a2264,03/11/1990,2020-08-27_15h43.07.259,proactive3.2,2020.1.2,Win32,60,5f47c0b9b035471e11593a5c,5f47c6214ad3d61e6efbb235,6,,,,,,microphone,,,,,,0,34,34,53,1,6,0,,,,,,,,,,,,,,,,,,,,,,,,,,,,,,,,,,,,,,,,,,,,,,,,,,,,,,,,,,,,,,,,,,,,,,,,,,,
,,,,,,,,,,stimuli/images/PICTURE_314.png,GODS,57c0b4480a58f600011a2264,03/11/1990,2020-08-27_15h43.07.259,proactive3.2,2020.1.2,Win32,60,5f47c0b9b035471e11593a5c,5f47c6214ad3d61e6efbb235,6,,,,,,perfume,,,,,,0,35,35,11,1,2,0,,,,,,,,,,,,,,,,,,,,,,,,,,,,,,,,,,,,,,,,,,,,,,,,,,,,,,,,,,,,,,,,,,,,,,,,,,,
,,,,,,,,,,stimuli/images/PICTURE_470.png,CASINO,57c0b4480a58f600011a2264,03/11/1990,2020-08-27_15h43.07.259,proactive3.2,2020.1.2,Win32,60,5f47c0b9b035471e11593a5c,5f47c6214ad3d61e6efbb235,6,,,,,,motorbike,,,,,,0,36,36,36,1,4,0,,,,,,,,,,,,,,,,,,,,,,,,,,,,,,,,,,,,,,,,,,,,,,,,,,,,,,,,,,,,,,,,,,,,,,,,,,,
,,,,,,,,,,stimuli/images/PICTURE_308.png,KIND,57c0b4480a58f600011a2264,03/11/1990,2020-08-27_15h43.07.259,proactive3.2,2020.1.2,Win32,60,5f47c0b9b035471e11593a5c,5f47c6214ad3d61e6efbb235,6,,,,,,dice,,,,,,0,37,37,54,1,6,0,,,,,,,,,,,,,,,,,,,,,,,,,,,,,,,,,,,,,,,,,,,,,,,,,,,,,,,,,,,,,,,,,,,,,,,,,,,
,,,,,,,,,,stimuli/images/PICTURE_380.png,PHOTO,57c0b4480a58f600011a2264,03/11/1990,2020-08-27_15h43.07.259,proactive3.2,2020.1.2,Win32,60,5f47c0b9b035471e11593a5c,5f47c6214ad3d61e6efbb235,6,,,,,,gorilla,,,,,,0,38,38,52,1,6,0,,,,,,,,,,,,,,,,,,,,,,,,,,,,,,,,,,,,,,,,,,,,,,,,,,,,,,,,,,,,,,,,,,,,,,,,,,,
,,,,,,,,,,stimuli/images/PICTURE_95.png,STYLE,57c0b4480a58f600011a2264,03/11/1990,2020-08-27_15h43.07.259,proactive3.2,2020.1.2,Win32,60,5f47c0b9b035471e11593a5c,5f47c6214ad3d61e6efbb235,6,,,,,,suitcase,,,,,,0,39,39,25,1,3,0,,,,,,,,,,,,,,,,,,,,,,,,,,,,,,,,,,,,,,,,,,,,,,,,,,,,,,,,,,,,,,,,,,,,,,,,,,,
,,,,,,,,,,stimuli/images/PICTURE_327.png,BEAUTY,57c0b4480a58f600011a2264,03/11/1990,2020-08-27_15h43.07.259,proactive3.2,2020.1.2,Win32,60,5f47c0b9b035471e11593a5c,5f47c6214ad3d61e6efbb235,6,,,,,,helmet,,,,,,0,40,40,48,1,5,0,,,,,,,,,,,,,,,,,,,,,,,,,,,,,,,,,,,,,,,,,,,,,,,,,,,,,,,,,,,,,,,,,,,,,,,,,,,
,,,,,,,,,,stimuli/images/PICTURE_311.png,FRIEND,57c0b4480a58f600011a2264,03/11/1990,2020-08-27_15h43.07.259,proactive3.2,2020.1.2,Win32,60,5f47c0b9b035471e11593a5c,5f47c6214ad3d61e6efbb235,6,,,,,,razor,,,,,,0,41,41,34,1,4,0,,,,,,,,,,,,,,,,,,,,,,,,,,,,,,,,,,,,,,,,,,,,,,,,,,,,,,,,,,,,,,,,,,,,,,,,,,,
,,,,,,,,,,stimuli/images/PICTURE_248.png,DOZEN,57c0b4480a58f600011a2264,03/11/1990,2020-08-27_15h43.07.259,proactive3.2,2020.1.2,Win32,60,5f47c0b9b035471e11593a5c,5f47c6214ad3d61e6efbb235,6,,,,,,cart,,,,,,0,42,42,39,1,4,0,,,,,,,,,,,,,,,,,,,,,,,,,,,,,,,,,,,,,,,,,,,,,,,,,,,,,,,,,,,,,,,,,,,,,,,,,,,
,,,,,,,,,,stimuli/images/PICTURE_380.png,DEATH,57c0b4480a58f600011a2264,03/11/1990,2020-08-27_15h43.07.259,proactive3.2,2020.1.2,Win32,60,5f47c0b9b035471e11593a5c,5f47c6214ad3d61e6efbb235,6,,,,,,gorilla,,,,,,0,43,43,49,1,5,0,,,,,,,,,,,,,,,,,,,,,,,,,,,,,,,,,,,,,,,,,,,,,,,,,,,,,,,,,,,,,,,,,,,,,,,,,,,
,,,,,,,,,,stimuli/images/PICTURE_469.png,ARTIST,57c0b4480a58f600011a2264,03/11/1990,2020-08-27_15h43.07.259,proactive3.2,2020.1.2,Win32,60,5f47c0b9b035471e11593a5c,5f47c6214ad3d61e6efbb235,6,,,,,,stool,,,,,,0,44,44,6,1,1,0,,,,,,,,,,,,,,,,,,,,,,,,,,,,,,,,,,,,,,,,,,,,,,,,,,,,,,,,,,,,,,,,,,,,,,,,,,,
,,,,,,,,,,stimuli/images/PICTURE_285.png,ADVICE,57c0b4480a58f600011a2264,03/11/1990,2020-08-27_15h43.07.259,proactive3.2,2020.1.2,Win32,60,5f47c0b9b035471e11593a5c,5f47c6214ad3d61e6efbb235,6,,,,,,carrot,,,,,,0,45,45,12,1,2,0,,,,,,,,,,,,,,,,,,,,,,,,,,,,,,,,,,,,,,,,,,,,,,,,,,,,,,,,,,,,,,,,,,,,,,,,,,,
,,,,,,,,,,stimuli/images/PICTURE_233.png,WOMEN,57c0b4480a58f600011a2264,03/11/1990,2020-08-27_15h43.07.259,proactive3.2,2020.1.2,Win32,60,5f47c0b9b035471e11593a5c,5f47c6214ad3d61e6efbb235,6,,,,,,salt,,,,,,0,46,46,38,1,4,0,,,,,,,,,,,,,,,,,,,,,,,,,,,,,,,,,,,,,,,,,,,,,,,,,,,,,,,,,,,,,,,,,,,,,,,,,,,
,,,,,,,,,,stimuli/images/PICTURE_453.png,PLENTY,57c0b4480a58f600011a2264,03/11/1990,2020-08-27_15h43.07.259,proactive3.2,2020.1.2,Win32,60,5f47c0b9b035471e11593a5c,5f47c6214ad3d61e6efbb235,6,,,,,,scissors,,,,,,0,47,47,56,1,6,0,,,,,,,,,,,,,,,,,,,,,,,,,,,,,,,,,,,,,,,,,,,,,,,,,,,,,,,,,,,,,,,,,,,,,,,,,,,
,,,,,,,,,,stimuli/images/PICTURE_509.png,PHOTO,57c0b4480a58f600011a2264,03/11/1990,2020-08-27_15h43.07.259,proactive3.2,2020.1.2,Win32,60,5f47c0b9b035471e11593a5c,5f47c6214ad3d61e6efbb235,6,,,,,,telephone,,,,,,0,48,48,21,1,3,0,,,,,,,,,,,,,,,,,,,,,,,,,,,,,,,,,,,,,,,,,,,,,,,,,,,,,,,,,,,,,,,,,,,,,,,,,,,
,,,,,,,,,,stimuli/images/PICTURE_255.png,AREA,57c0b4480a58f600011a2264,03/11/1990,2020-08-27_15h43.07.259,proactive3.2,2020.1.2,Win32,60,5f47c0b9b035471e11593a5c,5f47c6214ad3d61e6efbb235,6,,,,,,shovel,,,,,,0,49,49,22,1,3,0,,,,,,,,,,,,,,,,,,,,,,,,,,,,,,,,,,,,,,,,,,,,,,,,,,,,,,,,,,,,,,,,,,,,,,,,,,,
,,,,,,,,,,stimuli/images/PICTURE_203.png,ARTIST,57c0b4480a58f600011a2264,03/11/1990,2020-08-27_15h43.07.259,proactive3.2,2020.1.2,Win32,60,5f47c0b9b035471e11593a5c,5f47c6214ad3d61e6efbb235,6,,,,,,cap,,,,,,0,50,50,26,1,3,0,,,,,,,,,,,,,,,,,,,,,,,,,,,,,,,,,,,,,,,,,,,,,,,,,,,,,,,,,,,,,,,,,,,,,,,,,,,
,,,,,,,,,,stimuli/images/PICTURE_692.png,MONTH,57c0b4480a58f600011a2264,03/11/1990,2020-08-27_15h43.07.259,proactive3.2,2020.1.2,Win32,60,5f47c0b9b035471e11593a5c,5f47c6214ad3d61e6efbb235,6,,,,,,cherry,,,,,,0,51,51,16,1,2,0,,,,,,,,,,,,,,,,,,,,,,,,,,,,,,,,,,,,,,,,,,,,,,,,,,,,,,,,,,,,,,,,,,,,,,,,,,,
,,,,,,,,,,stimuli/images/PICTURE_85.png,THING,57c0b4480a58f600011a2264,03/11/1990,2020-08-27_15h43.07.259,proactive3.2,2020.1.2,Win32,60,5f47c0b9b035471e11593a5c,5f47c6214ad3d61e6efbb235,6,,,,,,diamond,,,,,,0,52,52,15,1,2,0,,,,,,,,,,,,,,,,,,,,,,,,,,,,,,,,,,,,,,,,,,,,,,,,,,,,,,,,,,,,,,,,,,,,,,,,,,,
,,,,,,,,,,stimuli/images/PICTURE_449.png,THING,57c0b4480a58f600011a2264,03/11/1990,2020-08-27_15h43.07.259,proactive3.2,2020.1.2,Win32,60,5f47c0b9b035471e11593a5c,5f47c6214ad3d61e6efbb235,6,,,,,,bench,,,,,,0,53,53,59,1,6,0,,,,,,,,,,,,,,,,,,,,,,,,,,,,,,,,,,,,,,,,,,,,,,,,,,,,,,,,,,,,,,,,,,,,,,,,,,,
,,,,,,,,,,stimuli/images/PICTURE_688.png,CASINO,57c0b4480a58f600011a2264,03/11/1990,2020-08-27_15h43.07.259,proactive3.2,2020.1.2,Win32,60,5f47c0b9b035471e11593a5c,5f47c6214ad3d61e6efbb235,6,,,,,,runner,,,,,,0,54,54,2,1,1,0,,,,,,,,,,,,,,,,,,,,,,,,,,,,,,,,,,,,,,,,,,,,,,,,,,,,,,,,,,,,,,,,,,,,,,,,,,,
,,,,,,,,,,stimuli/images/PICTURE_667.png,PLENTY,57c0b4480a58f600011a2264,03/11/1990,2020-08-27_15h43.07.259,proactive3.2,2020.1.2,Win32,60,5f47c0b9b035471e11593a5c,5f47c6214ad3d61e6efbb235,6,,,,,,daisy,,,,,,0,55,55,41,1,5,0,,,,,,,,,,,,,,,,,,,,,,,,,,,,,,,,,,,,,,,,,,,,,,,,,,,,,,,,,,,,,,,,,,,,,,,,,,,
,,,,,,,,,,stimuli/images/PICTURE_233.png,IDEAS,57c0b4480a58f600011a2264,03/11/1990,2020-08-27_15h43.07.259,proactive3.2,2020.1.2,Win32,60,5f47c0b9b035471e11593a5c,5f47c6214ad3d61e6efbb235,6,,,,,,salt,,,,,,0,56,56,28,1,3,0,,,,,,,,,,,,,,,,,,,,,,,,,,,,,,,,,,,,,,,,,,,,,,,,,,,,,,,,,,,,,,,,,,,,,,,,,,,
,,,,,,,,,,stimuli/images/PICTURE_160.png,LEADER,57c0b4480a58f600011a2264,03/11/1990,2020-08-27_15h43.07.259,proactive3.2,2020.1.2,Win32,60,5f47c0b9b035471e11593a5c,5f47c6214ad3d61e6efbb235,6,,,,,,wheelbarrow,,,,,,0,57,57,3,1,1,0,,,,,,,,,,,,,,,,,,,,,,,,,,,,,,,,,,,,,,,,,,,,,,,,,,,,,,,,,,,,,,,,,,,,,,,,,,,
,,,,,,,,,,stimuli/images/PICTURE_654.png,VALLEY,57c0b4480a58f600011a2264,03/11/1990,2020-08-27_15h43.07.259,proactive3.2,2020.1.2,Win32,60,5f47c0b9b035471e11593a5c,5f47c6214ad3d61e6efbb235,6,,,,,,pencil,,,,,,0,58,58,1,1,1,0,,,,,,,,,,,,,,,,,,,,,,,,,,,,,,,,,,,,,,,,,,,,,,,,,,,,,,,,,,,,,,,,,,,,,,,,,,,
,,?,0.001,0,,,,,,stimuli/images/PICTURE_308.png,ESTATE,57c0b4480a58f600011a2264,03/11/1990,2020-08-27_15h43.07.259,proactive3.2,2020.1.2,Win32,60,5f47c0b9b035471e11593a5c,5f47c6214ad3d61e6efbb235,6,,,,,,dice,,,,,,,,,,,5,0,0,0,0,46,1,,,,,,,,,,,,,,,,,,,,,,,,,,,,,,,,,,,,,,,,,,,,,,,,,,,,,,,,,,,,,,,,,,,,,,
,,?,0.001,0,,,,,,stimuli/images/PICTURE_311.png,FRIEND,57c0b4480a58f600011a2264,03/11/1990,2020-08-27_15h43.07.259,proactive3.2,2020.1.2,Win32,60,5f47c0b9b035471e11593a5c,5f47c6214ad3d61e6efbb235,6,,,,,,razor,,,,,,,,,,,4,0,0,1,1,34,1,,,,,,,,,,,,,,,,,,,,,,,,,,,,,,,,,,,,,,,,,,,,,,,,,,,,,,,,,,,,,,,,,,,,,,
,,?,0.001,0,,,,,,stimuli/images/PICTURE_233.png,IDEAS,57c0b4480a58f600011a2264,03/11/1990,2020-08-27_15h43.07.259,proactive3.2,2020.1.2,Win32,60,5f47c0b9b035471e11593a5c,5f47c6214ad3d61e6efbb235,6,,,,,,salt,,,,,,,,,,,3,0,0,2,2,28,1,,,,,,,,,,,,,,,,,,,,,,,,,,,,,,,,,,,,,,,,,,,,,,,,,,,,,,,,,,,,,,,,,,,,,,
,,?,0.001,0,,,,,,stimuli/images/PICTURE_688.png,WOMEN,57c0b4480a58f600011a2264,03/11/1990,2020-08-27_15h43.07.259,proactive3.2,2020.1.2,Win32,60,5f47c0b9b035471e11593a5c,5f47c6214ad3d61e6efbb235,6,,,,,,runner,,,,,,,,,,,2,0,0,3,3,14,1,,,,,,,,,,,,,,,,,,,,,,,,,,,,,,,,,,,,,,,,,,,,,,,,,,,,,,,,,,,,,,,,,,,,,,
,,?,0.001,0,,,,,,stimuli/images/PICTURE_151.png,GIRL,57c0b4480a58f600011a2264,03/11/1990,2020-08-27_15h43.07.259,proactive3.2,2020.1.2,Win32,60,5f47c0b9b035471e11593a5c,5f47c6214ad3d61e6efbb235,6,,,,,,tray,,,,,,,,,,,2,0,0,4,4,19,1,,,,,,,,,,,,,,,,,,,,,,,,,,,,,,,,,,,,,,,,,,,,,,,,,,,,,,,,,,,,,,,,,,,,,,
,,?,0,0,,,,,,stimuli/images/PICTURE_302.png,FAMILY,57c0b4480a58f600011a2264,03/11/1990,2020-08-27_15h43.07.259,proactive3.2,2020.1.2,Win32,60,5f47c0b9b035471e11593a5c,5f47c6214ad3d61e6efbb235,6,,,,,,taxi,,,,,,,,,,,2,0,0,5,5,18,1,,,,,,,,,,,,,,,,,,,,,,,,,,,,,,,,,,,,,,,,,,,,,,,,,,,,,,,,,,,,,,,,,,,,,,
,,?,0.001,0,,,,,,stimuli/images/PICTURE_487.png,FLIGHT,57c0b4480a58f600011a2264,03/11/1990,2020-08-27_15h43.07.259,proactive3.2,2020.1.2,Win32,60,5f47c0b9b035471e11593a5c,5f47c6214ad3d61e6efbb235,6,,,,,,basket,,,,,,,,,,,1,0,0,6,6,9,1,,,,,,,,,,,,,,,,,,,,,,,,,,,,,,,,,,,,,,,,,,,,,,,,,,,,,,,,,,,,,,,,,,,,,,
,,?,0.001,0,,,,,,stimuli/images/PICTURE_208.png,LOTS,57c0b4480a58f600011a2264,03/11/1990,2020-08-27_15h43.07.259,proactive3.2,2020.1.2,Win32,60,5f47c0b9b035471e11593a5c,5f47c6214ad3d61e6efbb235,6,,,,,,microphone,,,,,,,,,,,2,0,0,7,7,10,1,,,,,,,,,,,,,,,,,,,,,,,,,,,,,,,,,,,,,,,,,,,,,,,,,,,,,,,,,,,,,,,,,,,,,,
,,?,0.001,0,,,,,,stimuli/images/PICTURE_248.png,DOZEN,57c0b4480a58f600011a2264,03/11/1990,2020-08-27_15h43.07.259,proactive3.2,2020.1.2,Win32,60,5f47c0b9b035471e11593a5c,5f47c6214ad3d61e6efbb235,6,,,,,,cart,,,,,,,,,,,4,0,0,8,8,39,1,,,,,,,,,,,,,,,,,,,,,,,,,,,,,,,,,,,,,,,,,,,,,,,,,,,,,,,,,,,,,,,,,,,,,,
,,?,0.001,0,,,,,,stimuli/images/PICTURE_504.png,BODY,57c0b4480a58f600011a2264,03/11/1990,2020-08-27_15h43.07.259,proactive3.2,2020.1.2,Win32,60,5f47c0b9b035471e11593a5c,5f47c6214ad3d61e6efbb235,6,,,,,,wheel,,,,,,,,,,,1,0,0,9,9,8,1,,,,,,,,,,,,,,,,,,,,,,,,,,,,,,,,,,,,,,,,,,,,,,,,,,,,,,,,,,,,,,,,,,,,,,
,,PLENTY,4.69,1,,,,,,stimuli/images/PICTURE_453.png,PLENTY,57c0b4480a58f600011a2264,03/11/1990,2020-08-27_15h43.07.259,proactive3.2,2020.1.2,Win32,60,5f47c0b9b035471e11593a5c,5f47c6214ad3d61e6efbb235,6,,,,,,scissors,,,,,,,,,,,6,0,0,10,10,56,1,,,,,,,,,,,,,,,,,,,,,,,,,,,,,,,,,,,,,,,,,,,,,,,,,,,,,,,,,,,,,,,,,,,,,,
,,?,0.004,0,,,,,,stimuli/images/PICTURE_509.png,PHOTO,57c0b4480a58f600011a2264,03/11/1990,2020-08-27_15h43.07.259,proactive3.2,2020.1.2,Win32,60,5f47c0b9b035471e11593a5c,5f47c6214ad3d61e6efbb235,6,,,,,,telephone,,,,,,,,,,,3,0,0,11,11,21,1,,,,,,,,,,,,,,,,,,,,,,,,,,,,,,,,,,,,,,,,,,,,,,,,,,,,,,,,,,,,,,,,,,,,,,
,,?,0,0,,,,,,stimuli/images/PICTURE_123.png,ADVICE,57c0b4480a58f600011a2264,03/11/1990,2020-08-27_15h43.07.259,proactive3.2,2020.1.2,Win32,60,5f47c0b9b035471e11593a5c,5f47c6214ad3d61e6efbb235,6,,,,,,dart,,,,,,,,,,,5,0,0,12,12,40,1,,,,,,,,,,,,,,,,,,,,,,,,,,,,,,,,,,,,,,,,,,,,,,,,,,,,,,,,,,,,,,,,,,,,,,
,,?,0.001,0,,,,,,stimuli/images/PICTURE_95.png,STYLE,57c0b4480a58f600011a2264,03/11/1990,2020-08-27_15h43.07.259,proactive3.2,2020.1.2,Win32,60,5f47c0b9b035471e11593a5c,5f47c6214ad3d61e6efbb235,6,,,,,,suitcase,,,,,,,,,,,3,0,0,13,13,25,1,,,,,,,,,,,,,,,,,,,,,,,,,,,,,,,,,,,,,,,,,,,,,,,,,,,,,,,,,,,,,,,,,,,,,,
,,?,0.001,0,,,,,,stimuli/images/PICTURE_744.png,SAKE,57c0b4480a58f600011a2264,03/11/1990,2020-08-27_15h43.07.259,proactive3.2,2020.1.2,Win32,60,5f47c0b9b035471e11593a5c,5f47c6214ad3d61e6efbb235,6,,,,,,ring,,,,,,,,,,,2,0,0,14,14,17,1,,,,,,,,,,,,,,,,,,,,,,,,,,,,,,,,,,,,,,,,,,,,,,,,,,,,,,,,,,,,,,,,,,,,,,
,,?,0.001,0,,,,,,stimuli/images/PICTURE_667.png,BATH,57c0b4480a58f600011a2264,03/11/1990,2020-08-27_15h43.07.259,proactive3.2,2020.1.2,Win32,60,5f47c0b9b035471e11593a5c,5f47c6214ad3d61e6efbb235,6,,,,,,daisy,,,,,,,,,,,1,0,0,15,15,4,1,,,,,,,,,,,,,,,,,,,,,,,,,,,,,,,,,,,,,,,,,,,,,,,,,,,,,,,,,,,,,,,,,,,,,,
,,?,0,0,,,,,,stimuli/images/PICTURE_208.png,THING,57c0b4480a58f600011a2264,03/11/1990,2020-08-27_15h43.07.259,proactive3.2,2020.1.2,Win32,60,5f47c0b9b035471e11593a5c,5f47c6214ad3d61e6efbb235,6,,,,,,microphone,,,,,,,,,,,5,0,0,16,16,47,1,,,,,,,,,,,,,,,,,,,,,,,,,,,,,,,,,,,,,,,,,,,,,,,,,,,,,,,,,,,,,,,,,,,,,,
,,?,0,0,,,,,,stimuli/images/PICTURE_285.png,ADVICE,57c0b4480a58f600011a2264,03/11/1990,2020-08-27_15h43.07.259,proactive3.2,2020.1.2,Win32,60,5f47c0b9b035471e11593a5c,5f47c6214ad3d61e6efbb235,6,,,,,,carrot,,,,,,,,,,,2,0,0,17,17,12,1,,,,,,,,,,,,,,,,,,,,,,,,,,,,,,,,,,,,,,,,,,,,,,,,,,,,,,,,,,,,,,,,,,,,,,
,,WRITER,3.188,1,,,,,,stimuli/images/PICTURE_491.png,WRITER,57c0b4480a58f600011a2264,03/11/1990,2020-08-27_15h43.07.259,proactive3.2,2020.1.2,Win32,60,5f47c0b9b035471e11593a5c,5f47c6214ad3d61e6efbb235,6,,,,,,rug,,,,,,,,,,,6,0,0,18,18,57,1,,,,,,,,,,,,,,,,,,,,,,,,,,,,,,,,,,,,,,,,,,,,,,,,,,,,,,,,,,,,,,,,,,,,,,
,,FEET,4.382,1,,,,,,stimuli/images/PICTURE_160.png,FEET,57c0b4480a58f600011a2264,03/11/1990,2020-08-27_15h43.07.259,proactive3.2,2020.1.2,Win32,60,5f47c0b9b035471e11593a5c,5f47c6214ad3d61e6efbb235,6,,,,,,wheelbarrow,,,,,,,,,,,6,0,0,19,19,58,1,,,,,,,,,,,,,,,,,,,,,,,,,,,,,,,,,,,,,,,,,,,,,,,,,,,,,,,,,,,,,,,,,,,,,,
,,?,0.003,0,,,,,,stimuli/images/PICTURE_708.png,CLIENT,57c0b4480a58f600011a2264,03/11/1990,2020-08-27_15h43.07.259,proactive3.2,2020.1.2,Win32,60,5f47c0b9b035471e11593a5c,5f47c6214ad3d61e6efbb235,6,,,,,,monkey,,,,,,,,,,,1,0,0,20,20,5,1,,,,,,,,,,,,,,,,,,,,,,,,,,,,,,,,,,,,,,,,,,,,,,,,,,,,,,,,,,,,,,,,,,,,,,
,,THING,3.277,1,,,,,,stimuli/images/PICTURE_449.png,THING,57c0b4480a58f600011a2264,03/11/1990,2020-08-27_15h43.07.259,proactive3.2,2020.1.2,Win32,60,5f47c0b9b035471e11593a5c,5f47c6214ad3d61e6efbb235,6,,,,,,bench,,,,,,,,,,,6,0,0,21,21,59,1,,,,,,,,,,,,,,,,,,,,,,,,,,,,,,,,,,,,,,,,,,,,,,,,,,,,,,,,,,,,,,,,,,,,,,
,,?,0.003,0,,,,,,stimuli/images/PICTURE_654.png,VALLEY,57c0b4480a58f600011a2264,03/11/1990,2020-08-27_15h43.07.259,proactive3.2,2020.1.2,Win32,60,5f47c0b9b035471e11593a5c,5f47c6214ad3d61e6efbb235,6,,,,,,pencil,,,,,,,,,,,1,0,0,22,22,1,1,,,,,,,,,,,,,,,,,,,,,,,,,,,,,,,,,,,,,,,,,,,,,,,,,,,,,,,,,,,,,,,,,,,,,,
,,ADVICE,3.211,1,,,,,,stimuli/images/PICTURE_123.png,ADVICE,57c0b4480a58f600011a2264,03/11/1990,2020-08-27_15h43.07.259,proactive3.2,2020.1.2,Win32,60,5f47c0b9b035471e11593a5c,5f47c6214ad3d61e6efbb235,6,,,,,,dart,,,,,,,,,,,6,0,0,23,23,50,1,,,,,,,,,,,,,,,,,,,,,,,,,,,,,,,,,,,,,,,,,,,,,,,,,,,,,,,,,,,,,,,,,,,,,,
,,?,0.004,0,,,,,,stimuli/images/PICTURE_667.png,PLENTY,57c0b4480a58f600011a2264,03/11/1990,2020-08-27_15h43.07.259,proactive3.2,2020.1.2,Win32,60,5f47c0b9b035471e11593a5c,5f47c6214ad3d61e6efbb235,6,,,,,,daisy,,,,,,,,,,,5,0,0,24,24,41,1,,,,,,,,,,,,,,,,,,,,,,,,,,,,,,,,,,,,,,,,,,,,,,,,,,,,,,,,,,,,,,,,,,,,,,
,,?,0.002,0,,,,,,stimuli/images/PICTURE_744.png,SYSTEM,57c0b4480a58f600011a2264,03/11/1990,2020-08-27_15h43.07.259,proactive3.2,2020.1.2,Win32,60,5f47c0b9b035471e11593a5c,5f47c6214ad3d61e6efbb235,6,,,,,,ring,,,,,,,,,,,5,0,0,25,25,43,1,,,,,,,,,,,,,,,,,,,,,,,,,,,,,,,,,,,,,,,,,,,,,,,,,,,,,,,,,,,,,,,,,,,,,,
,,?,0.001,0,,,,,,stimuli/images/PICTURE_677.png,MILE,57c0b4480a58f600011a2264,03/11/1990,2020-08-27_15h43.07.259,proactive3.2,2020.1.2,Win32,60,5f47c0b9b035471e11593a5c,5f47c6214ad3d61e6efbb235,6,,,,,,map,,,,,,,,,,,4,0,0,26,26,30,1,,,,,,,,,,,,,,,,,,,,,,,,,,,,,,,,,,,,,,,,,,,,,,,,,,,,,,,,,,,,,,,,,,,,,,
,,?,0,0,,,,,,stimuli/images/PICTURE_311.png,BEAUTY,57c0b4480a58f600011a2264,03/11/1990,2020-08-27_15h43.07.259,proactive3.2,2020.1.2,Win32,60,5f47c0b9b035471e11593a5c,5f47c6214ad3d61e6efbb235,6,,,,,,razor,,,,,,,,,,,2,0,0,27,27,13,1,,,,,,,,,,,,,,,,,,,,,,,,,,,,,,,,,,,,,,,,,,,,,,,,,,,,,,,,,,,,,,,,,,,,,,
,,MOMENT,3.139,1,,,,,,stimuli/images/PICTURE_147.png,MOMENT,57c0b4480a58f600011a2264,03/11/1990,2020-08-27_15h43.07.259,proactive3.2,2020.1.2,Win32,60,5f47c0b9b035471e11593a5c,5f47c6214ad3d61e6efbb235,6,,,,,,hanger,,,,,,,,,,,6,0,0,28,28,51,1,,,,,,,,,,,,,,,,,,,,,,,,,,,,,,,,,,,,,,,,,,,,,,,,,,,,,,,,,,,,,,,,,,,,,,
,,?,0.003,0,,,,,,stimuli/images/PICTURE_348.png,SPEECH,57c0b4480a58f600011a2264,03/11/1990,2020-08-27_15h43.07.259,proactive3.2,2020.1.2,Win32,60,5f47c0b9b035471e11593a5c,5f47c6214ad3d61e6efbb235,6,,,,,,pepper,,,,,,,,,,,3,0,0,29,29,20,1,,,,,,,,,,,,,,,,,,,,,,,,,,,,,,,,,,,,,,,,,,,,,,,,,,,,,,,,,,,,,,,,,,,,,,
,,?,0,0,,,,,,stimuli/images/PICTURE_708.png,PENNY,57c0b4480a58f600011a2264,03/11/1990,2020-08-27_15h43.07.259,proactive3.2,2020.1.2,Win32,60,5f47c0b9b035471e11593a5c,5f47c6214ad3d61e6efbb235,6,,,,,,monkey,,,,,,,,,,,4,0,0,30,30,31,1,,,,,,,,,,,,,,,,,,,,,,,,,,,,,,,,,,,,,,,,,,,,,,,,,,,,,,,,,,,,,,,,,,,,,,
,,?,0,0,,,,,,stimuli/images/PICTURE_470.png,CASINO,57c0b4480a58f600011a2264,03/11/1990,2020-08-27_15h43.07.259,proactive3.2,2020.1.2,Win32,60,5f47c0b9b035471e11593a5c,5f47c6214ad3d61e6efbb235,6,,,,,,motorbike,,,,,,,,,,,4,0,0,31,31,36,1,,,,,,,,,,,,,,,,,,,,,,,,,,,,,,,,,,,,,,,,,,,,,,,,,,,,,,,,,,,,,,,,,,,,,,
,,?,0.001,0,,,,,,stimuli/images/PICTURE_32.png,JUNGLE,57c0b4480a58f600011a2264,03/11/1990,2020-08-27_15h43.07.259,proactive3.2,2020.1.2,Win32,60,5f47c0b9b035471e11593a5c,5f47c6214ad3d61e6efbb235,6,,,,,,crown,,,,,,,,,,,5,0,0,32,32,45,1,,,,,,,,,,,,,,,,,,,,,,,,,,,,,,,,,,,,,,,,,,,,,,,,,,,,,,,,,,,,,,,,,,,,,,
,,?,0.001,0,,,,,,stimuli/images/PICTURE_453.png,DUDE,57c0b4480a58f600011a2264,03/11/1990,2020-08-27_15h43.07.259,proactive3.2,2020.1.2,Win32,60,5f47c0b9b035471e11593a5c,5f47c6214ad3d61e6efbb235,6,,,,,,scissors,,,,,,,,,,,3,0,0,33,33,27,1,,,,,,,,,,,,,,,,,,,,,,,,,,,,,,,,,,,,,,,,,,,,,,,,,,,,,,,,,,,,,,,,,,,,,,
,,?,0.001,0,,,,,,stimuli/images/PICTURE_488.png,STYLE,57c0b4480a58f600011a2264,03/11/1990,2020-08-27_15h43.07.259,proactive3.2,2020.1.2,Win32,60,5f47c0b9b035471e11593a5c,5f47c6214ad3d61e6efbb235,6,,,,,,sun,,,,,,,,,,,4,0,0,34,34,33,1,,,,,,,,,,,,,,,,,,,,,,,,,,,,,,,,,,,,,,,,,,,,,,,,,,,,,,,,,,,,,,,,,,,,,,
,,?,0,0,,,,,,stimuli/images/PICTURE_327.png,BEAUTY,57c0b4480a58f600011a2264,03/11/1990,2020-08-27_15h43.07.259,proactive3.2,2020.1.2,Win32,60,5f47c0b9b035471e11593a5c,5f47c6214ad3d61e6efbb235,6,,,,,,helmet,,,,,,,,,,,5,0,0,35,35,48,1,,,,,,,,,,,,,,,,,,,,,,,,,,,,,,,,,,,,,,,,,,,,,,,,,,,,,,,,,,,,,,,,,,,,,,
,,?,0.001,0,,,,,,stimuli/images/PICTURE_469.png,ARTIST,57c0b4480a58f600011a2264,03/11/1990,2020-08-27_15h43.07.259,proactive3.2,2020.1.2,Win32,60,5f47c0b9b035471e11593a5c,5f47c6214ad3d61e6efbb235,6,,,,,,stool,,,,,,,,,,,1,0,0,36,36,6,1,,,,,,,,,,,,,,,,,,,,,,,,,,,,,,,,,,,,,,,,,,,,,,,,,,,,,,,,,,,,,,,,,,,,,,
,,DANGER,2.803,1,,,,,,stimuli/images/PICTURE_356.png,DANGER,57c0b4480a58f600011a2264,03/11/1990,2020-08-27_15h43.07.259,proactive3.2,2020.1.2,Win32,60,5f47c0b9b035471e11593a5c,5f47c6214ad3d61e6efbb235,6,,,,,,pawn,,,,,,,,,,,6,0,0,37,37,55,1,,,,,,,,,,,,,,,,,,,,,,,,,,,,,,,,,,,,,,,,,,,,,,,,,,,,,,,,,,,,,,,,,,,,,,
,,?,0.004,0,,,,,,stimuli/images/PICTURE_314.png,SAKE,57c0b4480a58f600011a2264,03/11/1990,2020-08-27_15h43.07.259,proactive3.2,2020.1.2,Win32,60,5f47c0b9b035471e11593a5c,5f47c6214ad3d61e6efbb235,6,,,,,,perfume,,,,,,,,,,,1,0,0,38,38,7,1,,,,,,,,,,,,,,,,,,,,,,,,,,,,,,,,,,,,,,,,,,,,,,,,,,,,,,,,,,,,,,,,,,,,,,
,,MONTH,3.776,1,,,,,,stimuli/images/PICTURE_208.png,MONTH,57c0b4480a58f600011a2264,03/11/1990,2020-08-27_15h43.07.259,proactive3.2,2020.1.2,Win32,60,5f47c0b9b035471e11593a5c,5f47c6214ad3d61e6efbb235,6,,,,,,microphone,,,,,,,,,,,6,0,0,39,39,53,1,,,,,,,,,,,,,,,,,,,,,,,,,,,,,,,,,,,,,,,,,,,,,,,,,,,,,,,,,,,,,,,,,,,,,,
,,?,0.004,0,,,,,,stimuli/images/PICTURE_85.png,THING,57c0b4480a58f600011a2264,03/11/1990,2020-08-27_15h43.07.259,proactive3.2,2020.1.2,Win32,60,5f47c0b9b035471e11593a5c,5f47c6214ad3d61e6efbb235,6,,,,,,diamond,,,,,,,,,,,2,0,0,40,40,15,1,,,,,,,,,,,,,,,,,,,,,,,,,,,,,,,,,,,,,,,,,,,,,,,,,,,,,,,,,,,,,,,,,,,,,,
,,?,0,0,,,,,,stimuli/images/PICTURE_380.png,DEATH,57c0b4480a58f600011a2264,03/11/1990,2020-08-27_15h43.07.259,proactive3.2,2020.1.2,Win32,60,5f47c0b9b035471e11593a5c,5f47c6214ad3d61e6efbb235,6,,,,,,gorilla,,,,,,,,,,,5,0,0,41,41,49,1,,,,,,,,,,,,,,,,,,,,,,,,,,,,,,,,,,,,,,,,,,,,,,,,,,,,,,,,,,,,,,,,,,,,,,
,,?,0.001,0,,,,,,stimuli/images/PICTURE_203.png,ARTIST,57c0b4480a58f600011a2264,03/11/1990,2020-08-27_15h43.07.259,proactive3.2,2020.1.2,Win32,60,5f47c0b9b035471e11593a5c,5f47c6214ad3d61e6efbb235,6,,,,,,cap,,,,,,,,,,,3,0,0,42,42,26,1,,,,,,,,,,,,,,,,,,,,,,,,,,,,,,,,,,,,,,,,,,,,,,,,,,,,,,,,,,,,,,,,,,,,,,
,,KIND,2.592,1,,,,,,stimuli/images/PICTURE_308.png,KIND,57c0b4480a58f600011a2264,03/11/1990,2020-08-27_15h43.07.259,proactive3.2,2020.1.2,Win32,60,5f47c0b9b035471e11593a5c,5f47c6214ad3d61e6efbb235,6,,,,,,dice,,,,,,,,,,,6,0,0,43,43,54,1,,,,,,,,,,,,,,,,,,,,,,,,,,,,,,,,,,,,,,,,,,,,,,,,,,,,,,,,,,,,,,,,,,,,,,
,,?,0.004,0,,,,,,stimuli/images/PICTURE_215.png,PLENTY,57c0b4480a58f600011a2264,03/11/1990,2020-08-27_15h43.07.259,proactive3.2,2020.1.2,Win32,60,5f47c0b9b035471e11593a5c,5f47c6214ad3d61e6efbb235,6,,,,,,boot,,,,,,,,,,,4,0,0,44,44,37,1,,,,,,,,,,,,,,,,,,,,,,,,,,,,,,,,,,,,,,,,,,,,,,,,,,,,,,,,,,,,,,,,,,,,,,
,,?,0.001,0,,,,,,stimuli/images/PICTURE_688.png,CASINO,57c0b4480a58f600011a2264,03/11/1990,2020-08-27_15h43.07.259,proactive3.2,2020.1.2,Win32,60,5f47c0b9b035471e11593a5c,5f47c6214ad3d61e6efbb235,6,,,,,,runner,,,,,,,,,,,1,0,0,45,45,2,1,,,,,,,,,,,,,,,,,,,,,,,,,,,,,,,,,,,,,,,,,,,,,,,,,,,,,,,,,,,,,,,,,,,,,,
,,PHOTO,3.226,1,,,,,,stimuli/images/PICTURE_380.png,PHOTO,57c0b4480a58f600011a2264,03/11/1990,2020-08-27_15h43.07.259,proactive3.2,2020.1.2,Win32,60,5f47c0b9b035471e11593a5c,5f47c6214ad3d61e6efbb235,6,,,,,,gorilla,,,,,,,,,,,6,0,0,46,46,52,1,,,,,,,,,,,,,,,,,,,,,,,,,,,,,,,,,,,,,,,,,,,,,,,,,,,,,,,,,,,,,,,,,,,,,,
,,?,0.004,0,,,,,,stimuli/images/PICTURE_675.png,WEAPON,57c0b4480a58f600011a2264,03/11/1990,2020-08-27_15h43.07.259,proactive3.2,2020.1.2,Win32,60,5f47c0b9b035471e11593a5c,5f47c6214ad3d61e6efbb235,6,,,,,,windmill,,,,,,,,,,,4,0,0,47,47,32,1,,,,,,,,,,,,,,,,,,,,,,,,,,,,,,,,,,,,,,,,,,,,,,,,,,,,,,,,,,,,,,,,,,,,,,
,,?,0.001,0,,,,,,stimuli/images/PICTURE_177.png,CARS,57c0b4480a58f600011a2264,03/11/1990,2020-08-27_15h43.07.259,proactive3.2,2020.1.2,Win32,60,5f47c0b9b035471e11593a5c,5f47c6214ad3d61e6efbb235,6,,,,,,mushroom,,,,,,,,,,,4,0,0,48,48,35,1,,,,,,,,,,,,,,,,,,,,,,,,,,,,,,,,,,,,,,,,,,,,,,,,,,,,,,,,,,,,,,,,,,,,,,
,,?,0.001,0,,,,,,stimuli/images/PICTURE_160.png,LEADER,57c0b4480a58f600011a2264,03/11/1990,2020-08-27_15h43.07.259,proactive3.2,2020.1.2,Win32,60,5f47c0b9b035471e11593a5c,5f47c6214ad3d61e6efbb235,6,,,,,,wheelbarrow,,,,,,,,,,,1,0,0,49,49,3,1,,,,,,,,,,,,,,,,,,,,,,,,,,,,,,,,,,,,,,,,,,,,,,,,,,,,,,,,,,,,,,,,,,,,,,
,,?,0,0,,,,,,stimuli/images/PICTURE_469.png,LETTER,57c0b4480a58f600011a2264,03/11/1990,2020-08-27_15h43.07.259,proactive3.2,2020.1.2,Win32,60,5f47c0b9b035471e11593a5c,5f47c6214ad3d61e6efbb235,6,,,,,,stool,,,,,,,,,,,5,0,0,50,50,42,1,,,,,,,,,,,,,,,,,,,,,,,,,,,,,,,,,,,,,,,,,,,,,,,,,,,,,,,,,,,,,,,,,,,,,,
,,?,0.001,0,,,,,,stimuli/images/PICTURE_491.png,ROOF,57c0b4480a58f600011a2264,03/11/1990,2020-08-27_15h43.07.259,proactive3.2,2020.1.2,Win32,60,5f47c0b9b035471e11593a5c,5f47c6214ad3d61e6efbb235,6,,,,,,rug,,,,,,,,,,,3,0,0,51,51,24,1,,,,,,,,,,,,,,,,,,,,,,,,,,,,,,,,,,,,,,,,,,,,,,,,,,,,,,,,,,,,,,,,,,,,,,
,,?,0,0,,,,,,stimuli/images/PICTURE_692.png,MONTH,57c0b4480a58f600011a2264,03/11/1990,2020-08-27_15h43.07.259,proactive3.2,2020.1.2,Win32,60,5f47c0b9b035471e11593a5c,5f47c6214ad3d61e6efbb235,6,,,,,,cherry,,,,,,,,,,,2,0,0,52,52,16,1,,,,,,,,,,,,,,,,,,,,,,,,,,,,,,,,,,,,,,,,,,,,,,,,,,,,,,,,,,,,,,,,,,,,,,
,,?,0,0,,,,,,stimuli/images/PICTURE_708.png,YARD,57c0b4480a58f600011a2264,03/11/1990,2020-08-27_15h43.07.259,proactive3.2,2020.1.2,Win32,60,5f47c0b9b035471e11593a5c,5f47c6214ad3d61e6efbb235,6,,,,,,monkey,,,,,,,,,,,3,0,0,53,53,29,1,,,,,,,,,,,,,,,,,,,,,,,,,,,,,,,,,,,,,,,,,,,,,,,,,,,,,,,,,,,,,,,,,,,,,,
,,?,0.001,0,,,,,,stimuli/images/PICTURE_339.png,PLENTY,57c0b4480a58f600011a2264,03/11/1990,2020-08-27_15h43.07.259,proactive3.2,2020.1.2,Win32,60,5f47c0b9b035471e11593a5c,5f47c6214ad3d61e6efbb235,6,,,,,,backpack,,,,,,,,,,,1,0,0,54,54,0,1,,,,,,,,,,,,,,,,,,,,,,,,,,,,,,,,,,,,,,,,,,,,,,,,,,,,,,,,,,,,,,,,,,,,,,
,,?,0,0,,,,,,stimuli/images/PICTURE_233.png,WOMEN,57c0b4480a58f600011a2264,03/11/1990,2020-08-27_15h43.07.259,proactive3.2,2020.1.2,Win32,60,5f47c0b9b035471e11593a5c,5f47c6214ad3d61e6efbb235,6,,,,,,salt,,,,,,,,,,,4,0,0,55,55,38,1,,,,,,,,,,,,,,,,,,,,,,,,,,,,,,,,,,,,,,,,,,,,,,,,,,,,,,,,,,,,,,,,,,,,,,
,,?,0.001,0,,,,,,stimuli/images/PICTURE_68.png,MILE,57c0b4480a58f600011a2264,03/11/1990,2020-08-27_15h43.07.259,proactive3.2,2020.1.2,Win32,60,5f47c0b9b035471e11593a5c,5f47c6214ad3d61e6efbb235,6,,,,,,candle,,,,,,,,,,,5,0,0,56,56,44,1,,,,,,,,,,,,,,,,,,,,,,,,,,,,,,,,,,,,,,,,,,,,,,,,,,,,,,,,,,,,,,,,,,,,,,
,,?,0,0,,,,,,stimuli/images/PICTURE_314.png,GODS,57c0b4480a58f600011a2264,03/11/1990,2020-08-27_15h43.07.259,proactive3.2,2020.1.2,Win32,60,5f47c0b9b035471e11593a5c,5f47c6214ad3d61e6efbb235,6,,,,,,perfume,,,,,,,,,,,2,0,0,57,57,11,1,,,,,,,,,,,,,,,,,,,,,,,,,,,,,,,,,,,,,,,,,,,,,,,,,,,,,,,,,,,,,,,,,,,,,,
,,?,0,0,,,,,,stimuli/images/PICTURE_467.png,DEMON,57c0b4480a58f600011a2264,03/11/1990,2020-08-27_15h43.07.259,proactive3.2,2020.1.2,Win32,60,5f47c0b9b035471e11593a5c,5f47c6214ad3d61e6efbb235,6,,,,,,peg,,,,,,,,,,,3,0,0,58,58,23,1,,,,,,,,,,,,,,,,,,,,,,,,,,,,,,,,,,,,,,,,,,,,,,,,,,,,,,,,,,,,,,,,,,,,,,
,,?,0.001,0,,,,,,stimuli/images/PICTURE_255.png,AREA,57c0b4480a58f600011a2264,03/11/1990,2020-08-27_15h43.07.259,proactive3.2,2020.1.2,Win32,60,5f47c0b9b035471e11593a5c,5f47c6214ad3d61e6efbb235,6,,,,,,shovel,,,,,,,,,,,3,0,0,59,59,22,1,,,,,,,,,,,,,,,,,,,,,,,,,,,,,,,,,,,,,,,,,,,,,,,,,,,,,,,,,,,,,,,,,,,,,,
,,,,,,,,,,,,57c0b4480a58f600011a2264,03/11/1990,2020-08-27_15h43.07.259,proactive3.2,2020.1.2,Win32,60,5f47c0b9b035471e11593a5c,5f47c6214ad3d61e6efbb235,6,,,,,,,,,,,,,,,,,,,,,,,,0,0,0,0,1,stimuli/learn-block1.csv,,,,,,,,,,,,,,,,,,,,,,,,,,,,,,,,,,,,,,,,,,,,,,,,,,,,,,,,,,,,,,,,
,,,,,,,,,,stimuli/images/PICTURE_405.png,PLENTY,57c0b4480a58f600011a2264,03/11/1990,2020-08-27_15h43.07.259,proactive3.2,2020.1.2,Win32,60,5f47c0b9b035471e11593a5c,5f47c6214ad3d61e6efbb235,6,,,,,,anchor,,,,,,0,0,0,23,1,3,1,,,,,,,,,,,,,,,,,,,,,,,,,,,,,,,,,,,,,,,,,,,,,,,,,,,,,,,,,,,,,,,,,,,,,,,,,,,
,,,,,,,,,,stimuli/images/PICTURE_380.png,HONEY,57c0b4480a58f600011a2264,03/11/1990,2020-08-27_15h43.07.259,proactive3.2,2020.1.2,Win32,60,5f47c0b9b035471e11593a5c,5f47c6214ad3d61e6efbb235,6,,,,,,gorilla,,,,,,0,1,1,19,1,2,1,,,,,,,,,,,,,,,,,,,,,,,,,,,,,,,,,,,,,,,,,,,,,,,,,,,,,,,,,,,,,,,,,,,,,,,,,,,
,,,,,,,,,,stimuli/images/PICTURE_380.png,CANDY,57c0b4480a58f600011a2264,03/11/1990,2020-08-27_15h43.07.259,proactive3.2,2020.1.2,Win32,60,5f47c0b9b035471e11593a5c,5f47c6214ad3d61e6efbb235,6,,,,,,gorilla,,,,,,0,2,2,0,1,1,1,,,,,,,,,,,,,,,,,,,,,,,,,,,,,,,,,,,,,,,,,,,,,,,,,,,,,,,,,,,,,,,,,,,,,,,,,,,
,,,,,,,,,,stimuli/images/PICTURE_208.png,SYSTEM,57c0b4480a58f600011a2264,03/11/1990,2020-08-27_15h43.07.259,proactive3.2,2020.1.2,Win32,60,5f47c0b9b035471e11593a5c,5f47c6214ad3d61e6efbb235,6,,,,,,microphone,,,,,,0,3,3,32,1,4,1,,,,,,,,,,,,,,,,,,,,,,,,,,,,,,,,,,,,,,,,,,,,,,,,,,,,,,,,,,,,,,,,,,,,,,,,,,,
,,,,,,,,,,stimuli/images/PICTURE_296.png,LIFE,57c0b4480a58f600011a2264,03/11/1990,2020-08-27_15h43.07.259,proactive3.2,2020.1.2,Win32,60,5f47c0b9b035471e11593a5c,5f47c6214ad3d61e6efbb235,6,,,,,,bolt,,,,,,0,4,4,57,1,6,1,,,,,,,,,,,,,,,,,,,,,,,,,,,,,,,,,,,,,,,,,,,,,,,,,,,,,,,,,,,,,,,,,,,,,,,,,,,
,,,,,,,,,,stimuli/images/PICTURE_487.png,GIRL,57c0b4480a58f600011a2264,03/11/1990,2020-08-27_15h43.07.259,proactive3.2,2020.1.2,Win32,60,5f47c0b9b035471e11593a5c,5f47c6214ad3d61e6efbb235,6,,,,,,basket,,,,,,0,5,5,45,1,5,1,,,,,,,,,,,,,,,,,,,,,,,,,,,,,,,,,,,,,,,,,,,,,,,,,,,,,,,,,,,,,,,,,,,,,,,,,,,
,,,,,,,,,,stimuli/images/PICTURE_2.png,FLIGHT,57c0b4480a58f600011a2264,03/11/1990,2020-08-27_15h43.07.259,proactive3.2,2020.1.2,Win32,60,5f47c0b9b035471e11593a5c,5f47c6214ad3d61e6efbb235,6,,,,,,tyre,,,,,,0,6,6,15,1,2,1,,,,,,,,,,,,,,,,,,,,,,,,,,,,,,,,,,,,,,,,,,,,,,,,,,,,,,,,,,,,,,,,,,,,,,,,,,,
,,,,,,,,,,stimuli/images/PICTURE_233.png,LOTS,57c0b4480a58f600011a2264,03/11/1990,2020-08-27_15h43.07.259,proactive3.2,2020.1.2,Win32,60,5f47c0b9b035471e11593a5c,5f47c6214ad3d61e6efbb235,6,,,,,,salt,,,,,,0,7,7,42,1,5,1,,,,,,,,,,,,,,,,,,,,,,,,,,,,,,,,,,,,,,,,,,,,,,,,,,,,,,,,,,,,,,,,,,,,,,,,,,,
,,,,,,,,,,stimuli/images/PICTURE_32.png,KIND,57c0b4480a58f600011a2264,03/11/1990,2020-08-27_15h43.07.259,proactive3.2,2020.1.2,Win32,60,5f47c0b9b035471e11593a5c,5f47c6214ad3d61e6efbb235,6,,,,,,crown,,,,,,0,8,8,35,1,4,1,,,,,,,,,,,,,,,,,,,,,,,,,,,,,,,,,,,,,,,,,,,,,,,,,,,,,,,,,,,,,,,,,,,,,,,,,,,
,,,,,,,,,,stimuli/images/PICTURE_403.png,RIVER,57c0b4480a58f600011a2264,03/11/1990,2020-08-27_15h43.07.259,proactive3.2,2020.1.2,Win32,60,5f47c0b9b035471e11593a5c,5f47c6214ad3d61e6efbb235,6,,,,,,cathedral,,,,,,0,9,9,40,1,5,1,,,,,,,,,,,,,,,,,,,,,,,,,,,,,,,,,,,,,,,,,,,,,,,,,,,,,,,,,,,,,,,,,,,,,,,,,,,
,,,,,,,,,,stimuli/images/PICTURE_95.png,BOYS,57c0b4480a58f600011a2264,03/11/1990,2020-08-27_15h43.07.259,proactive3.2,2020.1.2,Win32,60,5f47c0b9b035471e11593a5c,5f47c6214ad3d61e6efbb235,6,,,,,,suitcase,,,,,,0,10,10,1,1,1,1,,,,,,,,,,,,,,,,,,,,,,,,,,,,,,,,,,,,,,,,,,,,,,,,,,,,,,,,,,,,,,,,,,,,,,,,,,,
,,,,,,,,,,stimuli/images/PICTURE_677.png,APPLE,57c0b4480a58f600011a2264,03/11/1990,2020-08-27_15h43.07.259,proactive3.2,2020.1.2,Win32,60,5f47c0b9b035471e11593a5c,5f47c6214ad3d61e6efbb235,6,,,,,,map,,,,,,0,11,11,43,1,5,1,,,,,,,,,,,,,,,,,,,,,,,,,,,,,,,,,,,,,,,,,,,,,,,,,,,,,,,,,,,,,,,,,,,,,,,,,,,
,,,,,,,,,,stimuli/images/PICTURE_57.png,MOMENT,57c0b4480a58f600011a2264,03/11/1990,2020-08-27_15h43.07.259,proactive3.2,2020.1.2,Win32,60,5f47c0b9b035471e11593a5c,5f47c6214ad3d61e6efbb235,6,,,,,,stamp,,,,,,0,12,12,37,1,4,1,,,,,,,,,,,,,,,,,,,,,,,,,,,,,,,,,,,,,,,,,,,,,,,,,,,,,,,,,,,,,,,,,,,,,,,,,,,
,,,,,,,,,,stimuli/images/PICTURE_708.png,RECORD,57c0b4480a58f600011a2264,03/11/1990,2020-08-27_15h43.07.259,proactive3.2,2020.1.2,Win32,60,5f47c0b9b035471e11593a5c,5f47c6214ad3d61e6efbb235,6,,,,,,monkey,,,,,,0,13,13,58,1,6,1,,,,,,,,,,,,,,,,,,,,,,,,,,,,,,,,,,,,,,,,,,,,,,,,,,,,,,,,,,,,,,,,,,,,,,,,,,,
,,,,,,,,,,stimuli/images/PICTURE_42.png,BOYS,57c0b4480a58f600011a2264,03/11/1990,2020-08-27_15h43.07.259,proactive3.2,2020.1.2,Win32,60,5f47c0b9b035471e11593a5c,5f47c6214ad3d61e6efbb235,6,,,,,,pear,,,,,,0,14,14,55,1,6,1,,,,,,,,,,,,,,,,,,,,,,,,,,,,,,,,,,,,,,,,,,,,,,,,,,,,,,,,,,,,,,,,,,,,,,,,,,,
,,,,,,,,,,stimuli/images/PICTURE_95.png,HONEY,57c0b4480a58f600011a2264,03/11/1990,2020-08-27_15h43.07.259,proactive3.2,2020.1.2,Win32,60,5f47c0b9b035471e11593a5c,5f47c6214ad3d61e6efbb235,6,,,,,,suitcase,,,,,,0,15,15,44,1,5,1,,,,,,,,,,,,,,,,,,,,,,,,,,,,,,,,,,,,,,,,,,,,,,,,,,,,,,,,,,,,,,,,,,,,,,,,,,,
,,,,,,,,,,stimuli/images/PICTURE_685.png,PENNY,57c0b4480a58f600011a2264,03/11/1990,2020-08-27_15h43.07.259,proactive3.2,2020.1.2,Win32,60,5f47c0b9b035471e11593a5c,5f47c6214ad3d61e6efbb235,6,,,,,,goose,,,,,,0,16,16,4,1,1,1,,,,,,,,,,,,,,,,,,,,,,,,,,,,,,,,,,,,,,,,,,,,,,,,,,,,,,,,,,,,,,,,,,,,,,,,,,,
,,,,,,,,,,stimuli/images/PICTURE_33.png,FRIEND,57c0b4480a58f600011a2264,03/11/1990,2020-08-27_15h43.07.259,proactive3.2,2020.1.2,Win32,60,5f47c0b9b035471e11593a5c,5f47c6214ad3d61e6efbb235,6,,,,,,frame,,,,,,0,17,17,8,1,1,1,,,,,,,,,,,,,,,,,,,,,,,,,,,,,,,,,,,,,,,,,,,,,,,,,,,,,,,,,,,,,,,,,,,,,,,,,,,
,,,,,,,,,,stimuli/images/PICTURE_504.png,COPS,57c0b4480a58f600011a2264,03/11/1990,2020-08-27_15h43.07.259,proactive3.2,2020.1.2,Win32,60,5f47c0b9b035471e11593a5c,5f47c6214ad3d61e6efbb235,6,,,,,,wheel,,,,,,0,18,18,52,1,6,1,,,,,,,,,,,,,,,,,,,,,,,,,,,,,,,,,,,,,,,,,,,,,,,,,,,,,,,,,,,,,,,,,,,,,,,,,,,
,,,,,,,,,,stimuli/images/PICTURE_147.png,YEAR,57c0b4480a58f600011a2264,03/11/1990,2020-08-27_15h43.07.259,proactive3.2,2020.1.2,Win32,60,5f47c0b9b035471e11593a5c,5f47c6214ad3d61e6efbb235,6,,,,,,hanger,,,,,,0,19,19,21,1,3,1,,,,,,,,,,,,,,,,,,,,,,,,,,,,,,,,,,,,,,,,,,,,,,,,,,,,,,,,,,,,,,,,,,,,,,,,,,,
,,,,,,,,,,stimuli/images/PICTURE_85.png,TOILET,57c0b4480a58f600011a2264,03/11/1990,2020-08-27_15h43.07.259,proactive3.2,2020.1.2,Win32,60,5f47c0b9b035471e11593a5c,5f47c6214ad3d61e6efbb235,6,,,,,,diamond,,,,,,0,20,20,48,1,5,1,,,,,,,,,,,,,,,,,,,,,,,,,,,,,,,,,,,,,,,,,,,,,,,,,,,,,,,,,,,,,,,,,,,,,,,,,,,
,,,,,,,,,,stimuli/images/PICTURE_297.png,RIVER,57c0b4480a58f600011a2264,03/11/1990,2020-08-27_15h43.07.259,proactive3.2,2020.1.2,Win32,60,5f47c0b9b035471e11593a5c,5f47c6214ad3d61e6efbb235,6,,,,,,aeroplane,,,,,,0,21,21,39,1,4,1,,,,,,,,,,,,,,,,,,,,,,,,,,,,,,,,,,,,,,,,,,,,,,,,,,,,,,,,,,,,,,,,,,,,,,,,,,,
,,,,,,,,,,stimuli/images/PICTURE_95.png,MILLER,57c0b4480a58f600011a2264,03/11/1990,2020-08-27_15h43.07.259,proactive3.2,2020.1.2,Win32,60,5f47c0b9b035471e11593a5c,5f47c6214ad3d61e6efbb235,6,,,,,,suitcase,,,,,,0,22,22,56,1,6,1,,,,,,,,,,,,,,,,,,,,,,,,,,,,,,,,,,,,,,,,,,,,,,,,,,,,,,,,,,,,,,,,,,,,,,,,,,,
,,,,,,,,,,stimuli/images/PICTURE_340.png,LETTER,57c0b4480a58f600011a2264,03/11/1990,2020-08-27_15h43.07.259,proactive3.2,2020.1.2,Win32,60,5f47c0b9b035471e11593a5c,5f47c6214ad3d61e6efbb235,6,,,,,,mirror,,,,,,0,23,23,24,1,3,1,,,,,,,,,,,,,,,,,,,,,,,,,,,,,,,,,,,,,,,,,,,,,,,,,,,,,,,,,,,,,,,,,,,,,,,,,,,
,,,,,,,,,,stimuli/images/PICTURE_467.png,POLICY,57c0b4480a58f600011a2264,03/11/1990,2020-08-27_15h43.07.259,proactive3.2,2020.1.2,Win32,60,5f47c0b9b035471e11593a5c,5f47c6214ad3d61e6efbb235,6,,,,,,peg,,,,,,0,24,24,53,1,6,1,,,,,,,,,,,,,,,,,,,,,,,,,,,,,,,,,,,,,,,,,,,,,,,,,,,,,,,,,,,,,,,,,,,,,,,,,,,
,,,,,,,,,,stimuli/images/PICTURE_327.png,CASINO,57c0b4480a58f600011a2264,03/11/1990,2020-08-27_15h43.07.259,proactive3.2,2020.1.2,Win32,60,5f47c0b9b035471e11593a5c,5f47c6214ad3d61e6efbb235,6,,,,,,helmet,,,,,,0,25,25,20,1,3,1,,,,,,,,,,,,,,,,,,,,,,,,,,,,,,,,,,,,,,,,,,,,,,,,,,,,,,,,,,,,,,,,,,,,,,,,,,,
,,,,,,,,,,stimuli/images/PICTURE_504.png,ARTIST,57c0b4480a58f600011a2264,03/11/1990,2020-08-27_15h43.07.259,proactive3.2,2020.1.2,Win32,60,5f47c0b9b035471e11593a5c,5f47c6214ad3d61e6efbb235,6,,,,,,wheel,,,,,,0,26,26,49,1,5,1,,,,,,,,,,,,,,,,,,,,,,,,,,,,,,,,,,,,,,,,,,,,,,,,,,,,,,,,,,,,,,,,,,,,,,,,,,,
,,,,,,,,,,stimuli/images/PICTURE_403.png,WRITER,57c0b4480a58f600011a2264,03/11/1990,2020-08-27_15h43.07.259,proactive3.2,2020.1.2,Win32,60,5f47c0b9b035471e11593a5c,5f47c6214ad3d61e6efbb235,6,,,,,,cathedral,,,,,,0,27,27,31,1,4,1,,,,,,,,,,,,,,,,,,,,,,,,,,,,,,,,,,,,,,,,,,,,,,,,,,,,,,,,,,,,,,,,,,,,,,,,,,,
,,,,,,,,,,stimuli/images/PICTURE_675.png,SALE,57c0b4480a58f600011a2264,03/11/1990,2020-08-27_15h43.07.259,proactive3.2,2020.1.2,Win32,60,5f47c0b9b035471e11593a5c,5f47c6214ad3d61e6efbb235,6,,,,,,windmill,,,,,,0,28,28,47,1,5,1,,,,,,,,,,,,,,,,,,,,,,,,,,,,,,,,,,,,,,,,,,,,,,,,,,,,,,,,,,,,,,,,,,,,,,,,,,,
,,,,,,,,,,stimuli/images/PICTURE_564.png,BATH,57c0b4480a58f600011a2264,03/11/1990,2020-08-27_15h43.07.259,proactive3.2,2020.1.2,Win32,60,5f47c0b9b035471e11593a5c,5f47c6214ad3d61e6efbb235,6,,,,,,spoon,,,,,,0,29,29,26,1,3,1,,,,,,,,,,,,,,,,,,,,,,,,,,,,,,,,,,,,,,,,,,,,,,,,,,,,,,,,,,,,,,,,,,,,,,,,,,,
,,,,,,,,,,stimuli/images/PICTURE_147.png,WOMEN,57c0b4480a58f600011a2264,03/11/1990,2020-08-27_15h43.07.259,proactive3.2,2020.1.2,Win32,60,5f47c0b9b035471e11593a5c,5f47c6214ad3d61e6efbb235,6,,,,,,hanger,,,,,,0,30,30,7,1,1,1,,,,,,,,,,,,,,,,,,,,,,,,,,,,,,,,,,,,,,,,,,,,,,,,,,,,,,,,,,,,,,,,,,,,,,,,,,,
,,,,,,,,,,stimuli/images/PICTURE_108.png,POLICY,57c0b4480a58f600011a2264,03/11/1990,2020-08-27_15h43.07.259,proactive3.2,2020.1.2,Win32,60,5f47c0b9b035471e11593a5c,5f47c6214ad3d61e6efbb235,6,,,,,,calendar,,,,,,0,31,31,22,1,3,1,,,,,,,,,,,,,,,,,,,,,,,,,,,,,,,,,,,,,,,,,,,,,,,,,,,,,,,,,,,,,,,,,,,,,,,,,,,
,,,,,,,,,,stimuli/images/PICTURE_491.png,RIVER,57c0b4480a58f600011a2264,03/11/1990,2020-08-27_15h43.07.259,proactive3.2,2020.1.2,Win32,60,5f47c0b9b035471e11593a5c,5f47c6214ad3d61e6efbb235,6,,,,,,rug,,,,,,0,32,32,6,1,1,1,,,,,,,,,,,,,,,,,,,,,,,,,,,,,,,,,,,,,,,,,,,,,,,,,,,,,,,,,,,,,,,,,,,,,,,,,,,
,,,,,,,,,,stimuli/images/PICTURE_32.png,PILLS,57c0b4480a58f600011a2264,03/11/1990,2020-08-27_15h43.07.259,proactive3.2,2020.1.2,Win32,60,5f47c0b9b035471e11593a5c,5f47c6214ad3d61e6efbb235,6,,,,,,crown,,,,,,0,33,33,18,1,2,1,,,,,,,,,,,,,,,,,,,,,,,,,,,,,,,,,,,,,,,,,,,,,,,,,,,,,,,,,,,,,,,,,,,,,,,,,,,
,,,,,,,,,,stimuli/images/PICTURE_469.png,AGENT,57c0b4480a58f600011a2264,03/11/1990,2020-08-27_15h43.07.259,proactive3.2,2020.1.2,Win32,60,5f47c0b9b035471e11593a5c,5f47c6214ad3d61e6efbb235,6,,,,,,stool,,,,,,0,34,34,16,1,2,1,,,,,,,,,,,,,,,,,,,,,,,,,,,,,,,,,,,,,,,,,,,,,,,,,,,,,,,,,,,,,,,,,,,,,,,,,,,
,,,,,,,,,,stimuli/images/PICTURE_203.png,GODS,57c0b4480a58f600011a2264,03/11/1990,2020-08-27_15h43.07.259,proactive3.2,2020.1.2,Win32,60,5f47c0b9b035471e11593a5c,5f47c6214ad3d61e6efbb235,6,,,,,,cap,,,,,,0,35,35,30,1,4,1,,,,,,,,,,,,,,,,,,,,,,,,,,,,,,,,,,,,,,,,,,,,,,,,,,,,,,,,,,,,,,,,,,,,,,,,,,,
,,,,,,,,,,stimuli/images/PICTURE_383.png,SERIES,57c0b4480a58f600011a2264,03/11/1990,2020-08-27_15h43.07.259,proactive3.2,2020.1.2,Win32,60,5f47c0b9b035471e11593a5c,5f47c6214ad3d61e6efbb235,6,,,,,,coin,,,,,,0,36,36,46,1,5,1,,,,,,,,,,,,,,,,,,,,,,,,,,,,,,,,,,,,,,,,,,,,,,,,,,,,,,,,,,,,,,,,,,,,,,,,,,,
,,,,,,,,,,stimuli/images/PICTURE_85.png,NATION,57c0b4480a58f600011a2264,03/11/1990,2020-08-27_15h43.07.259,proactive3.2,2020.1.2,Win32,60,5f47c0b9b035471e11593a5c,5f47c6214ad3d61e6efbb235,6,,,,,,diamond,,,,,,0,37,37,5,1,1,1,,,,,,,,,,,,,,,,,,,,,,,,,,,,,,,,,,,,,,,,,,,,,,,,,,,,,,,,,,,,,,,,,,,,,,,,,,,
,,,,,,,,,,stimuli/images/PICTURE_285.png,LIFE,57c0b4480a58f600011a2264,03/11/1990,2020-08-27_15h43.07.259,proactive3.2,2020.1.2,Win32,60,5f47c0b9b035471e11593a5c,5f47c6214ad3d61e6efbb235,6,,,,,,carrot,,,,,,0,38,38,33,1,4,1,,,,,,,,,,,,,,,,,,,,,,,,,,,,,,,,,,,,,,,,,,,,,,,,,,,,,,,,,,,,,,,,,,,,,,,,,,,
,,,,,,,,,,stimuli/images/PICTURE_504.png,YEAR,57c0b4480a58f600011a2264,03/11/1990,2020-08-27_15h43.07.259,proactive3.2,2020.1.2,Win32,60,5f47c0b9b035471e11593a5c,5f47c6214ad3d61e6efbb235,6,,,,,,wheel,,,,,,0,39,39,13,1,2,1,,,,,,,,,,,,,,,,,,,,,,,,,,,,,,,,,,,,,,,,,,,,,,,,,,,,,,,,,,,,,,,,,,,,,,,,,,,
,,,,,,,,,,stimuli/images/PICTURE_744.png,WEAPON,57c0b4480a58f600011a2264,03/11/1990,2020-08-27_15h43.07.259,proactive3.2,2020.1.2,Win32,60,5f47c0b9b035471e11593a5c,5f47c6214ad3d61e6efbb235,6,,,,,,ring,,,,,,0,40,40,50,1,6,1,,,,,,,,,,,,,,,,,,,,,,,,,,,,,,,,,,,,,,,,,,,,,,,,,,,,,,,,,,,,,,,,,,,,,,,,,,,
,,,,,,,,,,stimuli/images/PICTURE_655.png,TOILET,57c0b4480a58f600011a2264,03/11/1990,2020-08-27_15h43.07.259,proactive3.2,2020.1.2,Win32,60,5f47c0b9b035471e11593a5c,5f47c6214ad3d61e6efbb235,6,,,,,,megaphone,,,,,,0,41,41,12,1,2,1,,,,,,,,,,,,,,,,,,,,,,,,,,,,,,,,,,,,,,,,,,,,,,,,,,,,,,,,,,,,,,,,,,,,,,,,,,,
,,,,,,,,,,stimuli/images/PICTURE_68.png,ROOF,57c0b4480a58f600011a2264,03/11/1990,2020-08-27_15h43.07.259,proactive3.2,2020.1.2,Win32,60,5f47c0b9b035471e11593a5c,5f47c6214ad3d61e6efbb235,6,,,,,,candle,,,,,,0,42,42,38,1,4,1,,,,,,,,,,,,,,,,,,,,,,,,,,,,,,,,,,,,,,,,,,,,,,,,,,,,,,,,,,,,,,,,,,,,,,,,,,,
,,,,,,,,,,stimuli/images/PICTURE_449.png,DUDE,57c0b4480a58f600011a2264,03/11/1990,2020-08-27_15h43.07.259,proactive3.2,2020.1.2,Win32,60,5f47c0b9b035471e11593a5c,5f47c6214ad3d61e6efbb235,6,,,,,,bench,,,,,,0,43,43,17,1,2,1,,,,,,,,,,,,,,,,,,,,,,,,,,,,,,,,,,,,,,,,,,,,,,,,,,,,,,,,,,,,,,,,,,,,,,,,,,,
,,,,,,,,,,stimuli/images/PICTURE_203.png,NIGHT,57c0b4480a58f600011a2264,03/11/1990,2020-08-27_15h43.07.259,proactive3.2,2020.1.2,Win32,60,5f47c0b9b035471e11593a5c,5f47c6214ad3d61e6efbb235,6,,,,,,cap,,,,,,0,44,44,2,1,1,1,,,,,,,,,,,,,,,,,,,,,,,,,,,,,,,,,,,,,,,,,,,,,,,,,,,,,,,,,,,,,,,,,,,,,,,,,,,
,,,,,,,,,,stimuli/images/PICTURE_296.png,LOTS,57c0b4480a58f600011a2264,03/11/1990,2020-08-27_15h43.07.259,proactive3.2,2020.1.2,Win32,60,5f47c0b9b035471e11593a5c,5f47c6214ad3d61e6efbb235,6,,,,,,bolt,,,,,,0,45,45,9,1,1,1,,,,,,,,,,,,,,,,,,,,,,,,,,,,,,,,,,,,,,,,,,,,,,,,,,,,,,,,,,,,,,,,,,,,,,,,,,,
,,,,,,,,,,stimuli/images/PICTURE_654.png,MONTH,57c0b4480a58f600011a2264,03/11/1990,2020-08-27_15h43.07.259,proactive3.2,2020.1.2,Win32,60,5f47c0b9b035471e11593a5c,5f47c6214ad3d61e6efbb235,6,,,,,,pencil,,,,,,0,46,46,29,1,3,1,,,,,,,,,,,,,,,,,,,,,,,,,,,,,,,,,,,,,,,,,,,,,,,,,,,,,,,,,,,,,,,,,,,,,,,,,,,
,,,,,,,,,,stimuli/images/PICTURE_667.png,RIVER,57c0b4480a58f600011a2264,03/11/1990,2020-08-27_15h43.07.259,proactive3.2,2020.1.2,Win32,60,5f47c0b9b035471e11593a5c,5f47c6214ad3d61e6efbb235,6,,,,,,daisy,,,,,,0,47,47,10,1,2,1,,,,,,,,,,,,,,,,,,,,,,,,,,,,,,,,,,,,,,,,,,,,,,,,,,,,,,,,,,,,,,,,,,,,,,,,,,,
,,,,,,,,,,stimuli/images/PICTURE_339.png,CLIENT,57c0b4480a58f600011a2264,03/11/1990,2020-08-27_15h43.07.259,proactive3.2,2020.1.2,Win32,60,5f47c0b9b035471e11593a5c,5f47c6214ad3d61e6efbb235,6,,,,,,backpack,,,,,,0,48,48,11,1,2,1,,,,,,,,,,,,,,,,,,,,,,,,,,,,,,,,,,,,,,,,,,,,,,,,,,,,,,,,,,,,,,,,,,,,,,,,,,,
,,,,,,,,,,stimuli/images/PICTURE_491.png,GLASS,57c0b4480a58f600011a2264,03/11/1990,2020-08-27_15h43.07.259,proactive3.2,2020.1.2,Win32,60,5f47c0b9b035471e11593a5c,5f47c6214ad3d61e6efbb235,6,,,,,,rug,,,,,,0,49,49,14,1,2,1,,,,,,,,,,,,,,,,,,,,,,,,,,,,,,,,,,,,,,,,,,,,,,,,,,,,,,,,,,,,,,,,,,,,,,,,,,,
,,,,,,,,,,stimuli/images/PICTURE_308.png,FAMILY,57c0b4480a58f600011a2264,03/11/1990,2020-08-27_15h43.07.259,proactive3.2,2020.1.2,Win32,60,5f47c0b9b035471e11593a5c,5f47c6214ad3d61e6efbb235,6,,,,,,dice,,,,,,0,50,50,36,1,4,1,,,,,,,,,,,,,,,,,,,,,,,,,,,,,,,,,,,,,,,,,,,,,,,,,,,,,,,,,,,,,,,,,,,,,,,,,,,
,,,,,,,,,,stimuli/images/PICTURE_108.png,FLIGHT,57c0b4480a58f600011a2264,03/11/1990,2020-08-27_15h43.07.259,proactive3.2,2020.1.2,Win32,60,5f47c0b9b035471e11593a5c,5f47c6214ad3d61e6efbb235,6,,,,,,calendar,,,,,,0,51,51,59,1,6,1,,,,,,,,,,,,,,,,,,,,,,,,,,,,,,,,,,,,,,,,,,,,,,,,,,,,,,,,,,,,,,,,,,,,,,,,,,,
,,,,,,,,,,stimuli/images/PICTURE_68.png,MILE,57c0b4480a58f600011a2264,03/11/1990,2020-08-27_15h43.07.259,proactive3.2,2020.1.2,Win32,60,5f47c0b9b035471e11593a5c,5f47c6214ad3d61e6efbb235,6,,,,,,candle,,,,,,0,52,52,51,1,6,1,,,,,,,,,,,,,,,,,,,,,,,,,,,,,,,,,,,,,,,,,,,,,,,,,,,,,,,,,,,,,,,,,,,,,,,,,,,
,,,,,,,,,,stimuli/images/PICTURE_405.png,YEAR,57c0b4480a58f600011a2264,03/11/1990,2020-08-27_15h43.07.259,proactive3.2,2020.1.2,Win32,60,5f47c0b9b035471e11593a5c,5f47c6214ad3d61e6efbb235,6,,,,,,anchor,,,,,,0,53,53,34,1,4,1,,,,,,,,,,,,,,,,,,,,,,,,,,,,,,,,,,,,,,,,,,,,,,,,,,,,,,,,,,,,,,,,,,,,,,,,,,,
,,,,,,,,,,stimuli/images/PICTURE_750.png,HOTEL,57c0b4480a58f600011a2264,03/11/1990,2020-08-27_15h43.07.259,proactive3.2,2020.1.2,Win32,60,5f47c0b9b035471e11593a5c,5f47c6214ad3d61e6efbb235,6,,,,,,kettle,,,,,,0,54,54,27,1,3,1,,,,,,,,,,,,,,,,,,,,,,,,,,,,,,,,,,,,,,,,,,,,,,,,,,,,,,,,,,,,,,,,,,,,,,,,,,,
,,,,,,,,,,stimuli/images/PICTURE_383.png,WRITER,57c0b4480a58f600011a2264,03/11/1990,2020-08-27_15h43.07.259,proactive3.2,2020.1.2,Win32,60,5f47c0b9b035471e11593a5c,5f47c6214ad3d61e6efbb235,6,,,,,,coin,,,,,,0,55,55,28,1,3,1,,,,,,,,,,,,,,,,,,,,,,,,,,,,,,,,,,,,,,,,,,,,,,,,,,,,,,,,,,,,,,,,,,,,,,,,,,,
,,,,,,,,,,stimuli/images/PICTURE_340.png,VALLEY,57c0b4480a58f600011a2264,03/11/1990,2020-08-27_15h43.07.259,proactive3.2,2020.1.2,Win32,60,5f47c0b9b035471e11593a5c,5f47c6214ad3d61e6efbb235,6,,,,,,mirror,,,,,,0,56,56,54,1,6,1,,,,,,,,,,,,,,,,,,,,,,,,,,,,,,,,,,,,,,,,,,,,,,,,,,,,,,,,,,,,,,,,,,,,,,,,,,,
,,,,,,,,,,stimuli/images/PICTURE_403.png,TOILET,57c0b4480a58f600011a2264,03/11/1990,2020-08-27_15h43.07.259,proactive3.2,2020.1.2,Win32,60,5f47c0b9b035471e11593a5c,5f47c6214ad3d61e6efbb235,6,,,,,,cathedral,,,,,,0,57,57,25,1,3,1,,,,,,,,,,,,,,,,,,,,,,,,,,,,,,,,,,,,,,,,,,,,,,,,,,,,,,,,,,,,,,,,,,,,,,,,,,,
,,,,,,,,,,stimuli/images/PICTURE_327.png,SERIES,57c0b4480a58f600011a2264,03/11/1990,2020-08-27_15h43.07.259,proactive3.2,2020.1.2,Win32,60,5f47c0b9b035471e11593a5c,5f47c6214ad3d61e6efbb235,6,,,,,,helmet,,,,,,0,58,58,3,1,1,1,,,,,,,,,,,,,,,,,,,,,,,,,,,,,,,,,,,,,,,,,,,,,,,,,,,,,,,,,,,,,,,,,,,,,,,,,,,
,,?,0.002,0,,,,,,stimuli/images/PICTURE_491.png,RIVER,57c0b4480a58f600011a2264,03/11/1990,2020-08-27_15h43.07.259,proactive3.2,2020.1.2,Win32,60,5f47c0b9b035471e11593a5c,5f47c6214ad3d61e6efbb235,6,,,,,,rug,,,,,,,,,,,1,1,0,0,0,6,1,,,,,,,,,,,,,,,,,,,,,,,,,,,,,,,,,,,,,,,,,,,,,,,,,,,,,,,,,,,,,,,,,,,,,,
,,?,0.001,0,,,,,,stimuli/images/PICTURE_32.png,KIND,57c0b4480a58f600011a2264,03/11/1990,2020-08-27_15h43.07.259,proactive3.2,2020.1.2,Win32,60,5f47c0b9b035471e11593a5c,5f47c6214ad3d61e6efbb235,6,,,,,,crown,,,,,,,,,,,4,1,0,1,1,35,1,,,,,,,,,,,,,,,,,,,,,,,,,,,,,,,,,,,,,,,,,,,,,,,,,,,,,,,,,,,,,,,,,,,,,,
,,?,0,0,,,,,,stimuli/images/PICTURE_327.png,SERIES,57c0b4480a58f600011a2264,03/11/1990,2020-08-27_15h43.07.259,proactive3.2,2020.1.2,Win32,60,5f47c0b9b035471e11593a5c,5f47c6214ad3d61e6efbb235,6,,,,,,helmet,,,,,,,,,,,1,1,0,2,2,3,1,,,,,,,,,,,,,,,,,,,,,,,,,,,,,,,,,,,,,,,,,,,,,,,,,,,,,,,,,,,,,,,,,,,,,,
,,?,0.001,0,,,,,,stimuli/images/PICTURE_667.png,RIVER,57c0b4480a58f600011a2264,03/11/1990,2020-08-27_15h43.07.259,proactive3.2,2020.1.2,Win32,60,5f47c0b9b035471e11593a5c,5f47c6214ad3d61e6efbb235,6,,,,,,daisy,,,,,,,,,,,2,1,0,3,3,10,1,,,,,,,,,,,,,,,,,,,,,,,,,,,,,,,,,,,,,,,,,,,,,,,,,,,,,,,,,,,,,,,,,,,,,,
,,?,0,0,,,,,,stimuli/images/PICTURE_504.png,YEAR,57c0b4480a58f600011a2264,03/11/1990,2020-08-27_15h43.07.259,proactive3.2,2020.1.2,Win32,60,5f47c0b9b035471e11593a5c,5f47c6214ad3d61e6efbb235,6,,,,,,wheel,,,,,,,,,,,2,1,0,4,4,13,1,,,,,,,,,,,,,,,,,,,,,,,,,,,,,,,,,,,,,,,,,,,,,,,,,,,,,,,,,,,,,,,,,,,,,,
,,?,0.001,0,,,,,,stimuli/images/PICTURE_57.png,MOMENT,57c0b4480a58f600011a2264,03/11/1990,2020-08-27_15h43.07.259,proactive3.2,2020.1.2,Win32,60,5f47c0b9b035471e11593a5c,5f47c6214ad3d61e6efbb235,6,,,,,,stamp,,,,,,,,,,,4,1,0,5,5,37,1,,,,,,,,,,,,,,,,,,,,,,,,,,,,,,,,,,,,,,,,,,,,,,,,,,,,,,,,,,,,,,,,,,,,,,
,,?,0,0,,,,,,stimuli/images/PICTURE_296.png,LOTS,57c0b4480a58f600011a2264,03/11/1990,2020-08-27_15h43.07.259,proactive3.2,2020.1.2,Win32,60,5f47c0b9b035471e11593a5c,5f47c6214ad3d61e6efbb235,6,,,,,,bolt,,,,,,,,,,,1,1,0,6,6,9,1,,,,,,,,,,,,,,,,,,,,,,,,,,,,,,,,,,,,,,,,,,,,,,,,,,,,,,,,,,,,,,,,,,,,,,
,,?,0,0,,,,,,stimuli/images/PICTURE_108.png,POLICY,57c0b4480a58f600011a2264,03/11/1990,2020-08-27_15h43.07.259,proactive3.2,2020.1.2,Win32,60,5f47c0b9b035471e11593a5c,5f47c6214ad3d61e6efbb235,6,,,,,,calendar,,,,,,,,,,,3,1,0,7,7,22,1,,,,,,,,,,,,,,,,,,,,,,,,,,,,,,,,,,,,,,,,,,,,,,,,,,,,,,,,,,,,,,,,,,,,,,
,,?,0.001,0,,,,,,stimuli/images/PICTURE_675.png,SALE,57c0b4480a58f600011a2264,03/11/1990,2020-08-27_15h43.07.259,proactive3.2,2020.1.2,Win32,60,5f47c0b9b035471e11593a5c,5f47c6214ad3d61e6efbb235,6,,,,,,windmill,,,,,,,,,,,5,1,0,8,8,47,1,,,,,,,,,,,,,,,,,,,,,,,,,,,,,,,,,,,,,,,,,,,,,,,,,,,,,,,,,,,,,,,,,,,,,,
,,?,0,0,,,,,,stimuli/images/PICTURE_85.png,NATION,57c0b4480a58f600011a2264,03/11/1990,2020-08-27_15h43.07.259,proactive3.2,2020.1.2,Win32,60,5f47c0b9b035471e11593a5c,5f47c6214ad3d61e6efbb235,6,,,,,,diamond,,,,,,,,,,,1,1,0,9,9,5,1,,,,,,,,,,,,,,,,,,,,,,,,,,,,,,,,,,,,,,,,,,,,,,,,,,,,,,,,,,,,,,,,,,,,,,
,,?,0.001,0,,,,,,stimuli/images/PICTURE_95.png,BOYS,57c0b4480a58f600011a2264,03/11/1990,2020-08-27_15h43.07.259,proactive3.2,2020.1.2,Win32,60,5f47c0b9b035471e11593a5c,5f47c6214ad3d61e6efbb235,6,,,,,,suitcase,,,,,,,,,,,1,1,0,10,10,1,1,,,,,,,,,,,,,,,,,,,,,,,,,,,,,,,,,,,,,,,,,,,,,,,,,,,,,,,,,,,,,,,,,,,,,,
,,?,0,0,,,,,,stimuli/images/PICTURE_403.png,WRITER,57c0b4480a58f600011a2264,03/11/1990,2020-08-27_15h43.07.259,proactive3.2,2020.1.2,Win32,60,5f47c0b9b035471e11593a5c,5f47c6214ad3d61e6efbb235,6,,,,,,cathedral,,,,,,,,,,,4,1,0,11,11,31,1,,,,,,,,,,,,,,,,,,,,,,,,,,,,,,,,,,,,,,,,,,,,,,,,,,,,,,,,,,,,,,,,,,,,,,
,,?,0.001,0,,,,,,stimuli/images/PICTURE_504.png,ARTIST,57c0b4480a58f600011a2264,03/11/1990,2020-08-27_15h43.07.259,proactive3.2,2020.1.2,Win32,60,5f47c0b9b035471e11593a5c,5f47c6214ad3d61e6efbb235,6,,,,,,wheel,,,,,,,,,,,5,1,0,12,12,49,1,,,,,,,,,,,,,,,,,,,,,,,,,,,,,,,,,,,,,,,,,,,,,,,,,,,,,,,,,,,,,,,,,,,,,,
,,?,0.001,0,,,,,,stimuli/images/PICTURE_383.png,SERIES,57c0b4480a58f600011a2264,03/11/1990,2020-08-27_15h43.07.259,proactive3.2,2020.1.2,Win32,60,5f47c0b9b035471e11593a5c,5f47c6214ad3d61e6efbb235,6,,,,,,coin,,,,,,,,,,,5,1,0,13,13,46,1,,,,,,,,,,,,,,,,,,,,,,,,,,,,,,,,,,,,,,,,,,,,,,,,,,,,,,,,,,,,,,,,,,,,,,
,,?,0.001,0,,,,,,stimuli/images/PICTURE_403.png,TOILET,57c0b4480a58f600011a2264,03/11/1990,2020-08-27_15h43.07.259,proactive3.2,2020.1.2,Win32,60,5f47c0b9b035471e11593a5c,5f47c6214ad3d61e6efbb235,6,,,,,,cathedral,,,,,,,,,,,3,1,0,14,14,25,1,,,,,,,,,,,,,,,,,,,,,,,,,,,,,,,,,,,,,,,,,,,,,,,,,,,,,,,,,,,,,,,,,,,,,,
,,?,8.44,0,,,,,,stimuli/images/PICTURE_467.png,POLICY,57c0b4480a58f600011a2264,03/11/1990,2020-08-27_15h43.07.259,proactive3.2,2020.1.2,Win32,60,5f47c0b9b035471e11593a5c,5f47c6214ad3d61e6efbb235,6,,,,,,peg,,,,,,,,,,,6,1,0,15,15,53,1,,,,,,,,,,,,,,,,,,,,,,,,,,,,,,,,,,,,,,,,,,,,,,,,,,,,,,,,,,,,,,,,,,,,,,
,,?,11.432,0,,,,,,stimuli/images/PICTURE_708.png,RECORD,57c0b4480a58f600011a2264,03/11/1990,2020-08-27_15h43.07.259,proactive3.2,2020.1.2,Win32,60,5f47c0b9b035471e11593a5c,5f47c6214ad3d61e6efbb235,6,,,,,,monkey,,,,,,,,,,,6,1,0,16,16,58,1,,,,,,,,,,,,,,,,,,,,,,,,,,,,,,,,,,,,,,,,,,,,,,,,,,,,,,,,,,,,,,,,,,,,,,
,,?,0.005,0,,,,,,stimuli/images/PICTURE_403.png,RIVER,57c0b4480a58f600011a2264,03/11/1990,2020-08-27_15h43.07.259,proactive3.2,2020.1.2,Win32,60,5f47c0b9b035471e11593a5c,5f47c6214ad3d61e6efbb235,6,,,,,,cathedral,,,,,,,,,,,5,1,0,17,17,40,1,,,,,,,,,,,,,,,,,,,,,,,,,,,,,,,,,,,,,,,,,,,,,,,,,,,,,,,,,,,,,,,,,,,,,,
,,?,0,0,,,,,,stimuli/images/PICTURE_339.png,CLIENT,57c0b4480a58f600011a2264,03/11/1990,2020-08-27_15h43.07.259,proactive3.2,2020.1.2,Win32,60,5f47c0b9b035471e11593a5c,5f47c6214ad3d61e6efbb235,6,,,,,,backpack,,,,,,,,,,,2,1,0,18,18,11,1,,,,,,,,,,,,,,,,,,,,,,,,,,,,,,,,,,,,,,,,,,,,,,,,,,,,,,,,,,,,,,,,,,,,,,
,,?,0,0,,,,,,stimuli/images/PICTURE_340.png,LETTER,57c0b4480a58f600011a2264,03/11/1990,2020-08-27_15h43.07.259,proactive3.2,2020.1.2,Win32,60,5f47c0b9b035471e11593a5c,5f47c6214ad3d61e6efbb235,6,,,,,,mirror,,,,,,,,,,,3,1,0,19,19,24,1,,,,,,,,,,,,,,,,,,,,,,,,,,,,,,,,,,,,,,,,,,,,,,,,,,,,,,,,,,,,,,,,,,,,,,
,,?,0,0,,,,,,stimuli/images/PICTURE_487.png,GIRL,57c0b4480a58f600011a2264,03/11/1990,2020-08-27_15h43.07.259,proactive3.2,2020.1.2,Win32,60,5f47c0b9b035471e11593a5c,5f47c6214ad3d61e6efbb235,6,,,,,,basket,,,,,,,,,,,5,1,0,20,20,45,1,,,,,,,,,,,,,,,,,,,,,,,,,,,,,,,,,,,,,,,,,,,,,,,,,,,,,,,,,,,,,,,,,,,,,,
,,?,0,0,,,,,,stimuli/images/PICTURE_85.png,TOILET,57c0b4480a58f600011a2264,03/11/1990,2020-08-27_15h43.07.259,proactive3.2,2020.1.2,Win32,60,5f47c0b9b035471e11593a5c,5f47c6214ad3d61e6efbb235,6,,,,,,diamond,,,,,,,,,,,5,1,0,21,21,48,1,,,,,,,,,,,,,,,,,,,,,,,,,,,,,,,,,,,,,,,,,,,,,,,,,,,,,,,,,,,,,,,,,,,,,,
,,?,0,0,,,,,,stimuli/images/PICTURE_405.png,YEAR,57c0b4480a58f600011a2264,03/11/1990,2020-08-27_15h43.07.259,proactive3.2,2020.1.2,Win32,60,5f47c0b9b035471e11593a5c,5f47c6214ad3d61e6efbb235,6,,,,,,anchor,,,,,,,,,,,4,1,0,22,22,34,1,,,,,,,,,,,,,,,,,,,,,,,,,,,,,,,,,,,,,,,,,,,,,,,,,,,,,,,,,,,,,,,,,,,,,,
,,?,0,0,,,,,,stimuli/images/PICTURE_654.png,MONTH,57c0b4480a58f600011a2264,03/11/1990,2020-08-27_15h43.07.259,proactive3.2,2020.1.2,Win32,60,5f47c0b9b035471e11593a5c,5f47c6214ad3d61e6efbb235,6,,,,,,pencil,,,,,,,,,,,3,1,0,23,23,29,1,,,,,,,,,,,,,,,,,,,,,,,,,,,,,,,,,,,,,,,,,,,,,,,,,,,,,,,,,,,,,,,,,,,,,,
,,?,0,0,,,,,,stimuli/images/PICTURE_208.png,SYSTEM,57c0b4480a58f600011a2264,03/11/1990,2020-08-27_15h43.07.259,proactive3.2,2020.1.2,Win32,60,5f47c0b9b035471e11593a5c,5f47c6214ad3d61e6efbb235,6,,,,,,microphone,,,,,,,,,,,4,1,0,24,24,32,1,,,,,,,,,,,,,,,,,,,,,,,,,,,,,,,,,,,,,,,,,,,,,,,,,,,,,,,,,,,,,,,,,,,,,,
,,MILE,2.552,1,,,,,,stimuli/images/PICTURE_68.png,MILE,57c0b4480a58f600011a2264,03/11/1990,2020-08-27_15h43.07.259,proactive3.2,2020.1.2,Win32,60,5f47c0b9b035471e11593a5c,5f47c6214ad3d61e6efbb235,6,,,,,,candle,,,,,,,,,,,6,1,0,25,25,51,1,,,,,,,,,,,,,,,,,,,,,,,,,,,,,,,,,,,,,,,,,,,,,,,,,,,,,,,,,,,,,,,,,,,,,,
,,?,0.004,0,,,,,,stimuli/images/PICTURE_68.png,ROOF,57c0b4480a58f600011a2264,03/11/1990,2020-08-27_15h43.07.259,proactive3.2,2020.1.2,Win32,60,5f47c0b9b035471e11593a5c,5f47c6214ad3d61e6efbb235,6,,,,,,candle,,,,,,,,,,,4,1,0,26,26,38,1,,,,,,,,,,,,,,,,,,,,,,,,,,,,,,,,,,,,,,,,,,,,,,,,,,,,,,,,,,,,,,,,,,,,,,
,,MILLER,2.828,1,,,,,,stimuli/images/PICTURE_95.png,MILLER,57c0b4480a58f600011a2264,03/11/1990,2020-08-27_15h43.07.259,proactive3.2,2020.1.2,Win32,60,5f47c0b9b035471e11593a5c,5f47c6214ad3d61e6efbb235,6,,,,,,suitcase,,,,,,,,,,,6,1,0,27,27,56,1,,,,,,,,,,,,,,,,,,,,,,,,,,,,,,,,,,,,,,,,,,,,,,,,,,,,,,,,,,,,,,,,,,,,,,
,,?,0.004,0,,,,,,stimuli/images/PICTURE_449.png,DUDE,57c0b4480a58f600011a2264,03/11/1990,2020-08-27_15h43.07.259,proactive3.2,2020.1.2,Win32,60,5f47c0b9b035471e11593a5c,5f47c6214ad3d61e6efbb235,6,,,,,,bench,,,,,,,,,,,2,1,0,28,28,17,1,,,,,,,,,,,,,,,,,,,,,,,,,,,,,,,,,,,,,,,,,,,,,,,,,,,,,,,,,,,,,,,,,,,,,,
,,VEAPON,3.494,0,,,,,,stimuli/images/PICTURE_744.png,WEAPON,57c0b4480a58f600011a2264,03/11/1990,2020-08-27_15h43.07.259,proactive3.2,2020.1.2,Win32,60,5f47c0b9b035471e11593a5c,5f47c6214ad3d61e6efbb235,6,,,,,,ring,,,,,,,,,,,6,1,0,29,29,50,1,,,,,,,,,,,,,,,,,,,,,,,,,,,,,,,,,,,,,,,,,,,,,,,,,,,,,,,,,,,,,,,,,,,,,,
,,?,0.004,0,,,,,,stimuli/images/PICTURE_203.png,NIGHT,57c0b4480a58f600011a2264,03/11/1990,2020-08-27_15h43.07.259,proactive3.2,2020.1.2,Win32,60,5f47c0b9b035471e11593a5c,5f47c6214ad3d61e6efbb235,6,,,,,,cap,,,,,,,,,,,1,1,0,30,30,2,1,,,,,,,,,,,,,,,,,,,,,,,,,,,,,,,,,,,,,,,,,,,,,,,,,,,,,,,,,,,,,,,,,,,,,,
,,?,0,0,,,,,,stimuli/images/PICTURE_564.png,BATH,57c0b4480a58f600011a2264,03/11/1990,2020-08-27_15h43.07.259,proactive3.2,2020.1.2,Win32,60,5f47c0b9b035471e11593a5c,5f47c6214ad3d61e6efbb235,6,,,,,,spoon,,,,,,,,,,,3,1,0,31,31,26,1,,,,,,,,,,,,,,,,,,,,,,,,,,,,,,,,,,,,,,,,,,,,,,,,,,,,,,,,,,,,,,,,,,,,,,
,,?,0.001,0,,,,,,stimuli/images/PICTURE_147.png,WOMEN,57c0b4480a58f600011a2264,03/11/1990,2020-08-27_15h43.07.259,proactive3.2,2020.1.2,Win32,60,5f47c0b9b035471e11593a5c,5f47c6214ad3d61e6efbb235,6,,,,,,hanger,,,,,,,,,,,1,1,0,32,32,7,1,,,,,,,,,,,,,,,,,,,,,,,,,,,,,,,,,,,,,,,,,,,,,,,,,,,,,,,,,,,,,,,,,,,,,,
,,?,0.001,0,,,,,,stimuli/images/PICTURE_380.png,HONEY,57c0b4480a58f600011a2264,03/11/1990,2020-08-27_15h43.07.259,proactive3.2,2020.1.2,Win32,60,5f47c0b9b035471e11593a5c,5f47c6214ad3d61e6efbb235,6,,,,,,gorilla,,,,,,,,,,,2,1,0,33,33,19,1,,,,,,,,,,,,,,,,,,,,,,,,,,,,,,,,,,,,,,,,,,,,,,,,,,,,,,,,,,,,,,,,,,,,,,
,,?,0,0,,,,,,stimuli/images/PICTURE_655.png,TOILET,57c0b4480a58f600011a2264,03/11/1990,2020-08-27_15h43.07.259,proactive3.2,2020.1.2,Win32,60,5f47c0b9b035471e11593a5c,5f47c6214ad3d61e6efbb235,6,,,,,,megaphone,,,,,,,,,,,2,1,0,34,34,12,1,,,,,,,,,,,,,,,,,,,,,,,,,,,,,,,,,,,,,,,,,,,,,,,,,,,,,,,,,,,,,,,,,,,,,,
,,?,0,0,,,,,,stimuli/images/PICTURE_32.png,PILLS,57c0b4480a58f600011a2264,03/11/1990,2020-08-27_15h43.07.259,proactive3.2,2020.1.2,Win32,60,5f47c0b9b035471e11593a5c,5f47c6214ad3d61e6efbb235,6,,,,,,crown,,,,,,,,,,,2,1,0,35,35,18,1,,,,,,,,,,,,,,,,,,,,,,,,,,,,,,,,,,,,,,,,,,,,,,,,,,,,,,,,,,,,,,,,,,,,,,
,,LIFE,3.572,1,,,,,,stimuli/images/PICTURE_296.png,LIFE,57c0b4480a58f600011a2264,03/11/1990,2020-08-27_15h43.07.259,proactive3.2,2020.1.2,Win32,60,5f47c0b9b035471e11593a5c,5f47c6214ad3d61e6efbb235,6,,,,,,bolt,,,,,,,,,,,6,1,0,36,36,57,1,,,,,,,,,,,,,,,,,,,,,,,,,,,,,,,,,,,,,,,,,,,,,,,,,,,,,,,,,,,,,,,,,,,,,,
,,?,0.004,0,,,,,,stimuli/images/PICTURE_327.png,CASINO,57c0b4480a58f600011a2264,03/11/1990,2020-08-27_15h43.07.259,proactive3.2,2020.1.2,Win32,60,5f47c0b9b035471e11593a5c,5f47c6214ad3d61e6efbb235,6,,,,,,helmet,,,,,,,,,,,3,1,0,37,37,20,1,,,,,,,,,,,,,,,,,,,,,,,,,,,,,,,,,,,,,,,,,,,,,,,,,,,,,,,,,,,,,,,,,,,,,,
,,?,0.001,0,,,,,,stimuli/images/PICTURE_677.png,APPLE,57c0b4480a58f600011a2264,03/11/1990,2020-08-27_15h43.07.259,proactive3.2,2020.1.2,Win32,60,5f47c0b9b035471e11593a5c,5f47c6214ad3d61e6efbb235,6,,,,,,map,,,,,,,,,,,5,1,0,38,38,43,1,,,,,,,,,,,,,,,,,,,,,,,,,,,,,,,,,,,,,,,,,,,,,,,,,,,,,,,,,,,,,,,,,,,,,,
,,?,5.009,0,,,,,,stimuli/images/PICTURE_340.png,VALLEY,57c0b4480a58f600011a2264,03/11/1990,2020-08-27_15h43.07.259,proactive3.2,2020.1.2,Win32,60,5f47c0b9b035471e11593a5c,5f47c6214ad3d61e6efbb235,6,,,,,,mirror,,,,,,,,,,,6,1,0,39,39,54,1,,,,,,,,,,,,,,,,,,,,,,,,,,,,,,,,,,,,,,,,,,,,,,,,,,,,,,,,,,,,,,,,,,,,,,
,,?,0.002,0,,,,,,stimuli/images/PICTURE_297.png,RIVER,57c0b4480a58f600011a2264,03/11/1990,2020-08-27_15h43.07.259,proactive3.2,2020.1.2,Win32,60,5f47c0b9b035471e11593a5c,5f47c6214ad3d61e6efbb235,6,,,,,,aeroplane,,,,,,,,,,,4,1,0,40,40,39,1,,,,,,,,,,,,,,,,,,,,,,,,,,,,,,,,,,,,,,,,,,,,,,,,,,,,,,,,,,,,,,,,,,,,,,
,,?,0.001,0,,,,,,stimuli/images/PICTURE_469.png,AGENT,57c0b4480a58f600011a2264,03/11/1990,2020-08-27_15h43.07.259,proactive3.2,2020.1.2,Win32,60,5f47c0b9b035471e11593a5c,5f47c6214ad3d61e6efbb235,6,,,,,,stool,,,,,,,,,,,2,1,0,41,41,16,1,,,,,,,,,,,,,,,,,,,,,,,,,,,,,,,,,,,,,,,,,,,,,,,,,,,,,,,,,,,,,,,,,,,,,,
,,?,0.001,0,,,,,,stimuli/images/PICTURE_308.png,FAMILY,57c0b4480a58f600011a2264,03/11/1990,2020-08-27_15h43.07.259,proactive3.2,2020.1.2,Win32,60,5f47c0b9b035471e11593a5c,5f47c6214ad3d61e6efbb235,6,,,,,,dice,,,,,,,,,,,4,1,0,42,42,36,1,,,,,,,,,,,,,,,,,,,,,,,,,,,,,,,,,,,,,,,,,,,,,,,,,,,,,,,,,,,,,,,,,,,,,,
,,COPS,3.091,1,,,,,,stimuli/images/PICTURE_504.png,COPS,57c0b4480a58f600011a2264,03/11/1990,2020-08-27_15h43.07.259,proactive3.2,2020.1.2,Win32,60,5f47c0b9b035471e11593a5c,5f47c6214ad3d61e6efbb235,6,,,,,,wheel,,,,,,,,,,,6,1,0,43,43,52,1,,,,,,,,,,,,,,,,,,,,,,,,,,,,,,,,,,,,,,,,,,,,,,,,,,,,,,,,,,,,,,,,,,,,,,
,,?,0.003,0,,,,,,stimuli/images/PICTURE_491.png,GLASS,57c0b4480a58f600011a2264,03/11/1990,2020-08-27_15h43.07.259,proactive3.2,2020.1.2,Win32,60,5f47c0b9b035471e11593a5c,5f47c6214ad3d61e6efbb235,6,,,,,,rug,,,,,,,,,,,2,1,0,44,44,14,1,,,,,,,,,,,,,,,,,,,,,,,,,,,,,,,,,,,,,,,,,,,,,,,,,,,,,,,,,,,,,,,,,,,,,,
,,?,0.001,0,,,,,,stimuli/images/PICTURE_2.png,FLIGHT,57c0b4480a58f600011a2264,03/11/1990,2020-08-27_15h43.07.259,proactive3.2,2020.1.2,Win32,60,5f47c0b9b035471e11593a5c,5f47c6214ad3d61e6efbb235,6,,,,,,tyre,,,,,,,,,,,2,1,0,45,45,15,1,,,,,,,,,,,,,,,,,,,,,,,,,,,,,,,,,,,,,,,,,,,,,,,,,,,,,,,,,,,,,,,,,,,,,,
,,?,0,0,,,,,,stimuli/images/PICTURE_285.png,LIFE,57c0b4480a58f600011a2264,03/11/1990,2020-08-27_15h43.07.259,proactive3.2,2020.1.2,Win32,60,5f47c0b9b035471e11593a5c,5f47c6214ad3d61e6efbb235,6,,,,,,carrot,,,,,,,,,,,4,1,0,46,46,33,1,,,,,,,,,,,,,,,,,,,,,,,,,,,,,,,,,,,,,,,,,,,,,,,,,,,,,,,,,,,,,,,,,,,,,,
,,?,0.001,0,,,,,,stimuli/images/PICTURE_750.png,HOTEL,57c0b4480a58f600011a2264,03/11/1990,2020-08-27_15h43.07.259,proactive3.2,2020.1.2,Win32,60,5f47c0b9b035471e11593a5c,5f47c6214ad3d61e6efbb235,6,,,,,,kettle,,,,,,,,,,,3,1,0,47,47,27,1,,,,,,,,,,,,,,,,,,,,,,,,,,,,,,,,,,,,,,,,,,,,,,,,,,,,,,,,,,,,,,,,,,,,,,
,,?,0.001,0,,,,,,stimuli/images/PICTURE_685.png,PENNY,57c0b4480a58f600011a2264,03/11/1990,2020-08-27_15h43.07.259,proactive3.2,2020.1.2,Win32,60,5f47c0b9b035471e11593a5c,5f47c6214ad3d61e6efbb235,6,,,,,,goose,,,,,,,,,,,1,1,0,48,48,4,1,,,,,,,,,,,,,,,,,,,,,,,,,,,,,,,,,,,,,,,,,,,,,,,,,,,,,,,,,,,,,,,,,,,,,,
,,?,0.001,0,,,,,,stimuli/images/PICTURE_233.png,LOTS,57c0b4480a58f600011a2264,03/11/1990,2020-08-27_15h43.07.259,proactive3.2,2020.1.2,Win32,60,5f47c0b9b035471e11593a5c,5f47c6214ad3d61e6efbb235,6,,,,,,salt,,,,,,,,,,,5,1,0,49,49,42,1,,,,,,,,,,,,,,,,,,,,,,,,,,,,,,,,,,,,,,,,,,,,,,,,,,,,,,,,,,,,,,,,,,,,,,
,,?,0,0,,,,,,stimuli/images/PICTURE_95.png,HONEY,57c0b4480a58f600011a2264,03/11/1990,2020-08-27_15h43.07.259,proactive3.2,2020.1.2,Win32,60,5f47c0b9b035471e11593a5c,5f47c6214ad3d61e6efbb235,6,,,,,,suitcase,,,,,,,,,,,5,1,0,50,50,44,1,,,,,,,,,,,,,,,,,,,,,,,,,,,,,,,,,,,,,,,,,,,,,,,,,,,,,,,,,,,,,,,,,,,,,,
,,?,0.001,0,,,,,,stimuli/images/PICTURE_177.png,WRITER,57c0b4480a58f600011a2264,03/11/1990,2020-08-27_15h43.07.259,proactive3.2,2020.1.2,Win32,60,5f47c0b9b035471e11593a5c,5f47c6214ad3d61e6efbb235,6,,,,,,mushroom,,,,,,,,,,,5,1,0,51,51,41,1,,,,,,,,,,,,,,,,,,,,,,,,,,,,,,,,,,,,,,,,,,,,,,,,,,,,,,,,,,,,,,,,,,,,,,
,,?,0,0,,,,,,stimuli/images/PICTURE_405.png,PLENTY,57c0b4480a58f600011a2264,03/11/1990,2020-08-27_15h43.07.259,proactive3.2,2020.1.2,Win32,60,5f47c0b9b035471e11593a5c,5f47c6214ad3d61e6efbb235,6,,,,,,anchor,,,,,,,,,,,3,1,0,52,52,23,1,,,,,,,,,,,,,,,,,,,,,,,,,,,,,,,,,,,,,,,,,,,,,,,,,,,,,,,,,,,,,,,,,,,,,,
,,BOYS,2.919,1,,,,,,stimuli/images/PICTURE_42.png,BOYS,57c0b4480a58f600011a2264,03/11/1990,2020-08-27_15h43.07.259,proactive3.2,2020.1.2,Win32,60,5f47c0b9b035471e11593a5c,5f47c6214ad3d61e6efbb235,6,,,,,,pear,,,,,,,,,,,6,1,0,53,53,55,1,,,,,,,,,,,,,,,,,,,,,,,,,,,,,,,,,,,,,,,,,,,,,,,,,,,,,,,,,,,,,,,,,,,,,,
,,?,0.003,0,,,,,,stimuli/images/PICTURE_380.png,CANDY,57c0b4480a58f600011a2264,03/11/1990,2020-08-27_15h43.07.259,proactive3.2,2020.1.2,Win32,60,5f47c0b9b035471e11593a5c,5f47c6214ad3d61e6efbb235,6,,,,,,gorilla,,,,,,,,,,,1,1,0,54,54,0,1,,,,,,,,,,,,,,,,,,,,,,,,,,,,,,,,,,,,,,,,,,,,,,,,,,,,,,,,,,,,,,,,,,,,,,
,,?,0,0,,,,,,stimuli/images/PICTURE_203.png,GODS,57c0b4480a58f600011a2264,03/11/1990,2020-08-27_15h43.07.259,proactive3.2,2020.1.2,Win32,60,5f47c0b9b035471e11593a5c,5f47c6214ad3d61e6efbb235,6,,,,,,cap,,,,,,,,,,,4,1,0,55,55,30,1,,,,,,,,,,,,,,,,,,,,,,,,,,,,,,,,,,,,,,,,,,,,,,,,,,,,,,,,,,,,,,,,,,,,,,
,,?,0,0,,,,,,stimuli/images/PICTURE_383.png,WRITER,57c0b4480a58f600011a2264,03/11/1990,2020-08-27_15h43.07.259,proactive3.2,2020.1.2,Win32,60,5f47c0b9b035471e11593a5c,5f47c6214ad3d61e6efbb235,6,,,,,,coin,,,,,,,,,,,3,1,0,56,56,28,1,,,,,,,,,,,,,,,,,,,,,,,,,,,,,,,,,,,,,,,,,,,,,,,,,,,,,,,,,,,,,,,,,,,,,,
,,?,0.001,0,,,,,,stimuli/images/PICTURE_147.png,YEAR,57c0b4480a58f600011a2264,03/11/1990,2020-08-27_15h43.07.259,proactive3.2,2020.1.2,Win32,60,5f47c0b9b035471e11593a5c,5f47c6214ad3d61e6efbb235,6,,,,,,hanger,,,,,,,,,,,3,1,0,57,57,21,1,,,,,,,,,,,,,,,,,,,,,,,,,,,,,,,,,,,,,,,,,,,,,,,,,,,,,,,,,,,,,,,,,,,,,,
,,?,9.007,0,,,,,,stimuli/images/PICTURE_108.png,FLIGHT,57c0b4480a58f600011a2264,03/11/1990,2020-08-27_15h43.07.259,proactive3.2,2020.1.2,Win32,60,5f47c0b9b035471e11593a5c,5f47c6214ad3d61e6efbb235,6,,,,,,calendar,,,,,,,,,,,6,1,0,58,58,59,1,,,,,,,,,,,,,,,,,,,,,,,,,,,,,,,,,,,,,,,,,,,,,,,,,,,,,,,,,,,,,,,,,,,,,,
,,?,0.004,0,,,,,,stimuli/images/PICTURE_33.png,FRIEND,57c0b4480a58f600011a2264,03/11/1990,2020-08-27_15h43.07.259,proactive3.2,2020.1.2,Win32,60,5f47c0b9b035471e11593a5c,5f47c6214ad3d61e6efbb235,6,,,,,,frame,,,,,,,,,,,1,1,0,59,59,8,1,,,,,,,,,,,,,,,,,,,,,,,,,,,,,,,,,,,,,,,,,,,,,,,,,,,,,,,,,,,,,,,,,,,,,,
,,,,,,,,,,,,57c0b4480a58f600011a2264,03/11/1990,2020-08-27_15h43.07.259,proactive3.2,2020.1.2,Win32,60,5f47c0b9b035471e11593a5c,5f47c6214ad3d61e6efbb235,6,,,,,,,,,,,,,,,,,,,,,,,,0,1,1,1,1,stimuli/learn-block2.csv,,,,,,,,,,,,,,,,,,,,,,,,,,,,,,,,,,,,,,,,,,,,,,,,,,,,,,,,,,,,,,,,
,,,,,,,,,,stimuli/images/PICTURE_667.png,GLASS,57c0b4480a58f600011a2264,03/11/1990,2020-08-27_15h43.07.259,proactive3.2,2020.1.2,Win32,60,5f47c0b9b035471e11593a5c,5f47c6214ad3d61e6efbb235,6,,,,,,daisy,,,,,,0,0,0,27,1,3,2,,,,,,,,,,,,,,,,,,,,,,,,,,,,,,,,,,,,,,,,,,,,,,,,,,,,,,,,,,,,,,,,,,,,,,,,,,,
,,,,,,,,,,stimuli/images/PICTURE_208.png,SPIRIT,57c0b4480a58f600011a2264,03/11/1990,2020-08-27_15h43.07.259,proactive3.2,2020.1.2,Win32,60,5f47c0b9b035471e11593a5c,5f47c6214ad3d61e6efbb235,6,,,,,,microphone,,,,,,0,1,1,28,1,3,2,,,,,,,,,,,,,,,,,,,,,,,,,,,,,,,,,,,,,,,,,,,,,,,,,,,,,,,,,,,,,,,,,,,,,,,,,,,
,,,,,,,,,,stimuli/images/PICTURE_2.png,YARD,57c0b4480a58f600011a2264,03/11/1990,2020-08-27_15h43.07.259,proactive3.2,2020.1.2,Win32,60,5f47c0b9b035471e11593a5c,5f47c6214ad3d61e6efbb235,6,,,,,,tyre,,,,,,0,2,2,55,1,6,2,,,,,,,,,,,,,,,,,,,,,,,,,,,,,,,,,,,,,,,,,,,,,,,,,,,,,,,,,,,,,,,,,,,,,,,,,,,
,,,,,,,,,,stimuli/images/PICTURE_215.png,BOYS,57c0b4480a58f600011a2264,03/11/1990,2020-08-27_15h43.07.259,proactive3.2,2020.1.2,Win32,60,5f47c0b9b035471e11593a5c,5f47c6214ad3d61e6efbb235,6,,,,,,boot,,,,,,0,3,3,24,1,3,2,,,,,,,,,,,,,,,,,,,,,,,,,,,,,,,,,,,,,,,,,,,,,,,,,,,,,,,,,,,,,,,,,,,,,,,,,,,
,,,,,,,,,,stimuli/images/PICTURE_2.png,JUNGLE,57c0b4480a58f600011a2264,03/11/1990,2020-08-27_15h43.07.259,proactive3.2,2020.1.2,Win32,60,5f47c0b9b035471e11593a5c,5f47c6214ad3d61e6efbb235,6,,,,,,tyre,,,,,,0,4,4,1,1,1,2,,,,,,,,,,,,,,,,,,,,,,,,,,,,,,,,,,,,,,,,,,,,,,,,,,,,,,,,,,,,,,,,,,,,,,,,,,,
,,,,,,,,,,stimuli/images/PICTURE_688.png,CLOCK,57c0b4480a58f600011a2264,03/11/1990,2020-08-27_15h43.07.259,proactive3.2,2020.1.2,Win32,60,5f47c0b9b035471e11593a5c,5f47c6214ad3d61e6efbb235,6,,,,,,runner,,,,,,0,5,5,42,1,5,2,,,,,,,,,,,,,,,,,,,,,,,,,,,,,,,,,,,,,,,,,,,,,,,,,,,,,,,,,,,,,,,,,,,,,,,,,,,
,,,,,,,,,,stimuli/images/PICTURE_296.png,CLOCK,57c0b4480a58f600011a2264,03/11/1990,2020-08-27_15h43.07.259,proactive3.2,2020.1.2,Win32,60,5f47c0b9b035471e11593a5c,5f47c6214ad3d61e6efbb235,6,,,,,,bolt,,,,,,0,6,6,18,1,2,2,,,,,,,,,,,,,,,,,,,,,,,,,,,,,,,,,,,,,,,,,,,,,,,,,,,,,,,,,,,,,,,,,,,,,,,,,,,
,,,,,,,,,,stimuli/images/PICTURE_68.png,KIND,57c0b4480a58f600011a2264,03/11/1990,2020-08-27_15h43.07.259,proactive3.2,2020.1.2,Win32,60,5f47c0b9b035471e11593a5c,5f47c6214ad3d61e6efbb235,6,,,,,,candle,,,,,,0,7,7,23,1,3,2,,,,,,,,,,,,,,,,,,,,,,,,,,,,,,,,,,,,,,,,,,,,,,,,,,,,,,,,,,,,,,,,,,,,,,,,,,,
,,,,,,,,,,stimuli/images/PICTURE_123.png,SALE,57c0b4480a58f600011a2264,03/11/1990,2020-08-27_15h43.07.259,proactive3.2,2020.1.2,Win32,60,5f47c0b9b035471e11593a5c,5f47c6214ad3d61e6efbb235,6,,,,,,dart,,,,,,0,8,8,8,1,1,2,,,,,,,,,,,,,,,,,,,,,,,,,,,,,,,,,,,,,,,,,,,,,,,,,,,,,,,,,,,,,,,,,,,,,,,,,,,
,,,,,,,,,,stimuli/images/PICTURE_491.png,SERIES,57c0b4480a58f600011a2264,03/11/1990,2020-08-27_15h43.07.259,proactive3.2,2020.1.2,Win32,60,5f47c0b9b035471e11593a5c,5f47c6214ad3d61e6efbb235,6,,,,,,rug,,,,,,0,9,9,39,1,4,2,,,,,,,,,,,,,,,,,,,,,,,,,,,,,,,,,,,,,,,,,,,,,,,,,,,,,,,,,,,,,,,,,,,,,,,,,,,
,,,,,,,,,,stimuli/images/PICTURE_487.png,ROOF,57c0b4480a58f600011a2264,03/11/1990,2020-08-27_15h43.07.259,proactive3.2,2020.1.2,Win32,60,5f47c0b9b035471e11593a5c,5f47c6214ad3d61e6efbb235,6,,,,,,basket,,,,,,0,10,10,50,1,6,2,,,,,,,,,,,,,,,,,,,,,,,,,,,,,,,,,,,,,,,,,,,,,,,,,,,,,,,,,,,,,,,,,,,,,,,,,,,
,,,,,,,,,,stimuli/images/PICTURE_708.png,VALLEY,57c0b4480a58f600011a2264,03/11/1990,2020-08-27_15h43.07.259,proactive3.2,2020.1.2,Win32,60,5f47c0b9b035471e11593a5c,5f47c6214ad3d61e6efbb235,6,,,,,,monkey,,,,,,0,11,11,45,1,5,2,,,,,,,,,,,,,,,,,,,,,,,,,,,,,,,,,,,,,,,,,,,,,,,,,,,,,,,,,,,,,,,,,,,,,,,,,,,
,,,,,,,,,,stimuli/images/PICTURE_470.png,MOMENT,57c0b4480a58f600011a2264,03/11/1990,2020-08-27_15h43.07.259,proactive3.2,2020.1.2,Win32,60,5f47c0b9b035471e11593a5c,5f47c6214ad3d61e6efbb235,6,,,,,,motorbike,,,,,,0,12,12,40,1,5,2,,,,,,,,,,,,,,,,,,,,,,,,,,,,,,,,,,,,,,,,,,,,,,,,,,,,,,,,,,,,,,,,,,,,,,,,,,,
,,,,,,,,,,stimuli/images/PICTURE_692.png,DUDE,57c0b4480a58f600011a2264,03/11/1990,2020-08-27_15h43.07.259,proactive3.2,2020.1.2,Win32,60,5f47c0b9b035471e11593a5c,5f47c6214ad3d61e6efbb235,6,,,,,,cherry,,,,,,0,13,13,47,1,5,2,,,,,,,,,,,,,,,,,,,,,,,,,,,,,,,,,,,,,,,,,,,,,,,,,,,,,,,,,,,,,,,,,,,,,,,,,,,
,,,,,,,,,,stimuli/images/PICTURE_487.png,POLICY,57c0b4480a58f600011a2264,03/11/1990,2020-08-27_15h43.07.259,proactive3.2,2020.1.2,Win32,60,5f47c0b9b035471e11593a5c,5f47c6214ad3d61e6efbb235,6,,,,,,basket,,,,,,0,14,14,34,1,4,2,,,,,,,,,,,,,,,,,,,,,,,,,,,,,,,,,,,,,,,,,,,,,,,,,,,,,,,,,,,,,,,,,,,,,,,,,,,
,,,,,,,,,,stimuli/images/PICTURE_509.png,APPLE,57c0b4480a58f600011a2264,03/11/1990,2020-08-27_15h43.07.259,proactive3.2,2020.1.2,Win32,60,5f47c0b9b035471e11593a5c,5f47c6214ad3d61e6efbb235,6,,,,,,telephone,,,,,,0,15,15,38,1,4,2,,,,,,,,,,,,,,,,,,,,,,,,,,,,,,,,,,,,,,,,,,,,,,,,,,,,,,,,,,,,,,,,,,,,,,,,,,,
,,,,,,,,,,stimuli/images/PICTURE_215.png,LEADER,57c0b4480a58f600011a2264,03/11/1990,2020-08-27_15h43.07.259,proactive3.2,2020.1.2,Win32,60,5f47c0b9b035471e11593a5c,5f47c6214ad3d61e6efbb235,6,,,,,,boot,,,,,,0,16,16,43,1,5,2,,,,,,,,,,,,,,,,,,,,,,,,,,,,,,,,,,,,,,,,,,,,,,,,,,,,,,,,,,,,,,,,,,,,,,,,,,,
,,,,,,,,,,stimuli/images/PICTURE_160.png,HOTEL,57c0b4480a58f600011a2264,03/11/1990,2020-08-27_15h43.07.259,proactive3.2,2020.1.2,Win32,60,5f47c0b9b035471e11593a5c,5f47c6214ad3d61e6efbb235,6,,,,,,wheelbarrow,,,,,,0,17,17,16,1,2,2,,,,,,,,,,,,,,,,,,,,,,,,,,,,,,,,,,,,,,,,,,,,,,,,,,,,,,,,,,,,,,,,,,,,,,,,,,,
,,,,,,,,,,stimuli/images/PICTURE_147.png,LEADER,57c0b4480a58f600011a2264,03/11/1990,2020-08-27_15h43.07.259,proactive3.2,2020.1.2,Win32,60,5f47c0b9b035471e11593a5c,5f47c6214ad3d61e6efbb235,6,,,,,,hanger,,,,,,0,18,18,33,1,4,2,,,,,,,,,,,,,,,,,,,,,,,,,,,,,,,,,,,,,,,,,,,,,,,,,,,,,,,,,,,,,,,,,,,,,,,,,,,
,,,,,,,,,,stimuli/images/PICTURE_314.png,SPEECH,57c0b4480a58f600011a2264,03/11/1990,2020-08-27_15h43.07.259,proactive3.2,2020.1.2,Win32,60,5f47c0b9b035471e11593a5c,5f47c6214ad3d61e6efbb235,6,,,,,,perfume,,,,,,0,19,19,35,1,4,2,,,,,,,,,,,,,,,,,,,,,,,,,,,,,,,,,,,,,,,,,,,,,,,,,,,,,,,,,,,,,,,,,,,,,,,,,,,
,,,,,,,,,,stimuli/images/PICTURE_95.png,NIGHT,57c0b4480a58f600011a2264,03/11/1990,2020-08-27_15h43.07.259,proactive3.2,2020.1.2,Win32,60,5f47c0b9b035471e11593a5c,5f47c6214ad3d61e6efbb235,6,,,,,,suitcase,,,,,,0,20,20,37,1,4,2,,,,,,,,,,,,,,,,,,,,,,,,,,,,,,,,,,,,,,,,,,,,,,,,,,,,,,,,,,,,,,,,,,,,,,,,,,,
,,,,,,,,,,stimuli/images/PICTURE_509.png,BATH,57c0b4480a58f600011a2264,03/11/1990,2020-08-27_15h43.07.259,proactive3.2,2020.1.2,Win32,60,5f47c0b9b035471e11593a5c,5f47c6214ad3d61e6efbb235,6,,,,,,telephone,,,,,,0,21,21,15,1,2,2,,,,,,,,,,,,,,,,,,,,,,,,,,,,,,,,,,,,,,,,,,,,,,,,,,,,,,,,,,,,,,,,,,,,,,,,,,,
,,,,,,,,,,stimuli/images/PICTURE_564.png,PLENTY,57c0b4480a58f600011a2264,03/11/1990,2020-08-27_15h43.07.259,proactive3.2,2020.1.2,Win32,60,5f47c0b9b035471e11593a5c,5f47c6214ad3d61e6efbb235,6,,,,,,spoon,,,,,,0,22,22,11,1,2,2,,,,,,,,,,,,,,,,,,,,,,,,,,,,,,,,,,,,,,,,,,,,,,,,,,,,,,,,,,,,,,,,,,,,,,,,,,,
,,,,,,,,,,stimuli/images/PICTURE_57.png,CASINO,57c0b4480a58f600011a2264,03/11/1990,2020-08-27_15h43.07.259,proactive3.2,2020.1.2,Win32,60,5f47c0b9b035471e11593a5c,5f47c6214ad3d61e6efbb235,6,,,,,,stamp,,,,,,0,23,23,12,1,2,2,,,,,,,,,,,,,,,,,,,,,,,,,,,,,,,,,,,,,,,,,,,,,,,,,,,,,,,,,,,,,,,,,,,,,,,,,,,
,,,,,,,,,,stimuli/images/PICTURE_311.png,FLESH,57c0b4480a58f600011a2264,03/11/1990,2020-08-27_15h43.07.259,proactive3.2,2020.1.2,Win32,60,5f47c0b9b035471e11593a5c,5f47c6214ad3d61e6efbb235,6,,,,,,razor,,,,,,0,24,24,3,1,1,2,,,,,,,,,,,,,,,,,,,,,,,,,,,,,,,,,,,,,,,,,,,,,,,,,,,,,,,,,,,,,,,,,,,,,,,,,,,
,,,,,,,,,,stimuli/images/PICTURE_57.png,NATION,57c0b4480a58f600011a2264,03/11/1990,2020-08-27_15h43.07.259,proactive3.2,2020.1.2,Win32,60,5f47c0b9b035471e11593a5c,5f47c6214ad3d61e6efbb235,6,,,,,,stamp,,,,,,0,25,25,21,1,3,2,,,,,,,,,,,,,,,,,,,,,,,,,,,,,,,,,,,,,,,,,,,,,,,,,,,,,,,,,,,,,,,,,,,,,,,,,,,
,,,,,,,,,,stimuli/images/PICTURE_654.png,COPS,57c0b4480a58f600011a2264,03/11/1990,2020-08-27_15h43.07.259,proactive3.2,2020.1.2,Win32,60,5f47c0b9b035471e11593a5c,5f47c6214ad3d61e6efbb235,6,,,,,,pencil,,,,,,0,26,26,10,1,2,2,,,,,,,,,,,,,,,,,,,,,,,,,,,,,,,,,,,,,,,,,,,,,,,,,,,,,,,,,,,,,,,,,,,,,,,,,,,
,,,,,,,,,,stimuli/images/PICTURE_32.png,LETTER,57c0b4480a58f600011a2264,03/11/1990,2020-08-27_15h43.07.259,proactive3.2,2020.1.2,Win32,60,5f47c0b9b035471e11593a5c,5f47c6214ad3d61e6efbb235,6,,,,,,crown,,,,,,0,27,27,56,1,6,2,,,,,,,,,,,,,,,,,,,,,,,,,,,,,,,,,,,,,,,,,,,,,,,,,,,,,,,,,,,,,,,,,,,,,,,,,,,
,,,,,,,,,,stimuli/images/PICTURE_297.png,BODY,57c0b4480a58f600011a2264,03/11/1990,2020-08-27_15h43.07.259,proactive3.2,2020.1.2,Win32,60,5f47c0b9b035471e11593a5c,5f47c6214ad3d61e6efbb235,6,,,,,,aeroplane,,,,,,0,28,28,51,1,6,2,,,,,,,,,,,,,,,,,,,,,,,,,,,,,,,,,,,,,,,,,,,,,,,,,,,,,,,,,,,,,,,,,,,,,,,,,,,
,,,,,,,,,,stimuli/images/PICTURE_509.png,SHOTS,57c0b4480a58f600011a2264,03/11/1990,2020-08-27_15h43.07.259,proactive3.2,2020.1.2,Win32,60,5f47c0b9b035471e11593a5c,5f47c6214ad3d61e6efbb235,6,,,,,,telephone,,,,,,0,29,29,7,1,1,2,,,,,,,,,,,,,,,,,,,,,,,,,,,,,,,,,,,,,,,,,,,,,,,,,,,,,,,,,,,,,,,,,,,,,,,,,,,
,,,,,,,,,,stimuli/images/PICTURE_677.png,FAMILY,57c0b4480a58f600011a2264,03/11/1990,2020-08-27_15h43.07.259,proactive3.2,2020.1.2,Win32,60,5f47c0b9b035471e11593a5c,5f47c6214ad3d61e6efbb235,6,,,,,,map,,,,,,0,30,30,53,1,6,2,,,,,,,,,,,,,,,,,,,,,,,,,,,,,,,,,,,,,,,,,,,,,,,,,,,,,,,,,,,,,,,,,,,,,,,,,,,
,,,,,,,,,,stimuli/images/PICTURE_453.png,FAMILY,57c0b4480a58f600011a2264,03/11/1990,2020-08-27_15h43.07.259,proactive3.2,2020.1.2,Win32,60,5f47c0b9b035471e11593a5c,5f47c6214ad3d61e6efbb235,6,,,,,,scissors,,,,,,0,31,31,48,1,5,2,,,,,,,,,,,,,,,,,,,,,,,,,,,,,,,,,,,,,,,,,,,,,,,,,,,,,,,,,,,,,,,,,,,,,,,,,,,
,,,,,,,,,,stimuli/images/PICTURE_2.png,AREA,57c0b4480a58f600011a2264,03/11/1990,2020-08-27_15h43.07.259,proactive3.2,2020.1.2,Win32,60,5f47c0b9b035471e11593a5c,5f47c6214ad3d61e6efbb235,6,,,,,,tyre,,,,,,0,32,32,32,1,4,2,,,,,,,,,,,,,,,,,,,,,,,,,,,,,,,,,,,,,,,,,,,,,,,,,,,,,,,,,,,,,,,,,,,,,,,,,,,
,,,,,,,,,,stimuli/images/PICTURE_255.png,PENNY,57c0b4480a58f600011a2264,03/11/1990,2020-08-27_15h43.07.259,proactive3.2,2020.1.2,Win32,60,5f47c0b9b035471e11593a5c,5f47c6214ad3d61e6efbb235,6,,,,,,shovel,,,,,,0,33,33,19,1,2,2,,,,,,,,,,,,,,,,,,,,,,,,,,,,,,,,,,,,,,,,,,,,,,,,,,,,,,,,,,,,,,,,,,,,,,,,,,,
,,,,,,,,,,stimuli/images/PICTURE_655.png,SALE,57c0b4480a58f600011a2264,03/11/1990,2020-08-27_15h43.07.259,proactive3.2,2020.1.2,Win32,60,5f47c0b9b035471e11593a5c,5f47c6214ad3d61e6efbb235,6,,,,,,megaphone,,,,,,0,34,34,57,1,6,2,,,,,,,,,,,,,,,,,,,,,,,,,,,,,,,,,,,,,,,,,,,,,,,,,,,,,,,,,,,,,,,,,,,,,,,,,,,
,,,,,,,,,,stimuli/images/PICTURE_348.png,TOILET,57c0b4480a58f600011a2264,03/11/1990,2020-08-27_15h43.07.259,proactive3.2,2020.1.2,Win32,60,5f47c0b9b035471e11593a5c,5f47c6214ad3d61e6efbb235,6,,,,,,pepper,,,,,,0,35,35,4,1,1,2,,,,,,,,,,,,,,,,,,,,,,,,,,,,,,,,,,,,,,,,,,,,,,,,,,,,,,,,,,,,,,,,,,,,,,,,,,,
,,,,,,,,,,stimuli/images/PICTURE_509.png,MILLER,57c0b4480a58f600011a2264,03/11/1990,2020-08-27_15h43.07.259,proactive3.2,2020.1.2,Win32,60,5f47c0b9b035471e11593a5c,5f47c6214ad3d61e6efbb235,6,,,,,,telephone,,,,,,0,36,36,49,1,5,2,,,,,,,,,,,,,,,,,,,,,,,,,,,,,,,,,,,,,,,,,,,,,,,,,,,,,,,,,,,,,,,,,,,,,,,,,,,
,,,,,,,,,,stimuli/images/PICTURE_57.png,CANDY,57c0b4480a58f600011a2264,03/11/1990,2020-08-27_15h43.07.259,proactive3.2,2020.1.2,Win32,60,5f47c0b9b035471e11593a5c,5f47c6214ad3d61e6efbb235,6,,,,,,stamp,,,,,,0,37,37,52,1,6,2,,,,,,,,,,,,,,,,,,,,,,,,,,,,,,,,,,,,,,,,,,,,,,,,,,,,,,,,,,,,,,,,,,,,,,,,,,,
,,,,,,,,,,stimuli/images/PICTURE_452.png,COPS,57c0b4480a58f600011a2264,03/11/1990,2020-08-27_15h43.07.259,proactive3.2,2020.1.2,Win32,60,5f47c0b9b035471e11593a5c,5f47c6214ad3d61e6efbb235,6,,,,,,watch,,,,,,0,38,38,0,1,1,2,,,,,,,,,,,,,,,,,,,,,,,,,,,,,,,,,,,,,,,,,,,,,,,,,,,,,,,,,,,,,,,,,,,,,,,,,,,
,,,,,,,,,,stimuli/images/PICTURE_654.png,YEAR,57c0b4480a58f600011a2264,03/11/1990,2020-08-27_15h43.07.259,proactive3.2,2020.1.2,Win32,60,5f47c0b9b035471e11593a5c,5f47c6214ad3d61e6efbb235,6,,,,,,pencil,,,,,,0,39,39,41,1,5,2,,,,,,,,,,,,,,,,,,,,,,,,,,,,,,,,,,,,,,,,,,,,,,,,,,,,,,,,,,,,,,,,,,,,,,,,,,,
,,,,,,,,,,stimuli/images/PICTURE_215.png,FOOD,57c0b4480a58f600011a2264,03/11/1990,2020-08-27_15h43.07.259,proactive3.2,2020.1.2,Win32,60,5f47c0b9b035471e11593a5c,5f47c6214ad3d61e6efbb235,6,,,,,,boot,,,,,,0,40,40,5,1,1,2,,,,,,,,,,,,,,,,,,,,,,,,,,,,,,,,,,,,,,,,,,,,,,,,,,,,,,,,,,,,,,,,,,,,,,,,,,,
,,,,,,,,,,stimuli/images/PICTURE_18.png,RIVER,57c0b4480a58f600011a2264,03/11/1990,2020-08-27_15h43.07.259,proactive3.2,2020.1.2,Win32,60,5f47c0b9b035471e11593a5c,5f47c6214ad3d61e6efbb235,6,,,,,,planet,,,,,,0,41,41,22,1,3,2,,,,,,,,,,,,,,,,,,,,,,,,,,,,,,,,,,,,,,,,,,,,,,,,,,,,,,,,,,,,,,,,,,,,,,,,,,,
,,,,,,,,,,stimuli/images/PICTURE_405.png,HOUSE,57c0b4480a58f600011a2264,03/11/1990,2020-08-27_15h43.07.259,proactive3.2,2020.1.2,Win32,60,5f47c0b9b035471e11593a5c,5f47c6214ad3d61e6efbb235,6,,,,,,anchor,,,,,,0,42,42,2,1,1,2,,,,,,,,,,,,,,,,,,,,,,,,,,,,,,,,,,,,,,,,,,,,,,,,,,,,,,,,,,,,,,,,,,,,,,,,,,,
,,,,,,,,,,stimuli/images/PICTURE_348.png,DUDE,57c0b4480a58f600011a2264,03/11/1990,2020-08-27_15h43.07.259,proactive3.2,2020.1.2,Win32,60,5f47c0b9b035471e11593a5c,5f47c6214ad3d61e6efbb235,6,,,,,,pepper,,,,,,0,43,43,59,1,6,2,,,,,,,,,,,,,,,,,,,,,,,,,,,,,,,,,,,,,,,,,,,,,,,,,,,,,,,,,,,,,,,,,,,,,,,,,,,
,,,,,,,,,,stimuli/images/PICTURE_177.png,HOUSE,57c0b4480a58f600011a2264,03/11/1990,2020-08-27_15h43.07.259,proactive3.2,2020.1.2,Win32,60,5f47c0b9b035471e11593a5c,5f47c6214ad3d61e6efbb235,6,,,,,,mushroom,,,,,,0,44,44,25,1,3,2,,,,,,,,,,,,,,,,,,,,,,,,,,,,,,,,,,,,,,,,,,,,,,,,,,,,,,,,,,,,,,,,,,,,,,,,,,,
,,,,,,,,,,stimuli/images/PICTURE_311.png,TOILET,57c0b4480a58f600011a2264,03/11/1990,2020-08-27_15h43.07.259,proactive3.2,2020.1.2,Win32,60,5f47c0b9b035471e11593a5c,5f47c6214ad3d61e6efbb235,6,,,,,,razor,,,,,,0,45,45,54,1,6,2,,,,,,,,,,,,,,,,,,,,,,,,,,,,,,,,,,,,,,,,,,,,,,,,,,,,,,,,,,,,,,,,,,,,,,,,,,,
,,,,,,,,,,stimuli/images/PICTURE_285.png,WRITER,57c0b4480a58f600011a2264,03/11/1990,2020-08-27_15h43.07.259,proactive3.2,2020.1.2,Win32,60,5f47c0b9b035471e11593a5c,5f47c6214ad3d61e6efbb235,6,,,,,,carrot,,,,,,0,46,46,6,1,1,2,,,,,,,,,,,,,,,,,,,,,,,,,,,,,,,,,,,,,,,,,,,,,,,,,,,,,,,,,,,,,,,,,,,,,,,,,,,
,,,,,,,,,,stimuli/images/PICTURE_33.png,COPS,57c0b4480a58f600011a2264,03/11/1990,2020-08-27_15h43.07.259,proactive3.2,2020.1.2,Win32,60,5f47c0b9b035471e11593a5c,5f47c6214ad3d61e6efbb235,6,,,,,,frame,,,,,,0,47,47,29,1,3,2,,,,,,,,,,,,,,,,,,,,,,,,,,,,,,,,,,,,,,,,,,,,,,,,,,,,,,,,,,,,,,,,,,,,,,,,,,,
,,,,,,,,,,stimuli/images/PICTURE_356.png,CANDY,57c0b4480a58f600011a2264,03/11/1990,2020-08-27_15h43.07.259,proactive3.2,2020.1.2,Win32,60,5f47c0b9b035471e11593a5c,5f47c6214ad3d61e6efbb235,6,,,,,,pawn,,,,,,0,48,48,46,1,5,2,,,,,,,,,,,,,,,,,,,,,,,,,,,,,,,,,,,,,,,,,,,,,,,,,,,,,,,,,,,,,,,,,,,,,,,,,,,
,,,,,,,,,,stimuli/images/PICTURE_677.png,PHOTO,57c0b4480a58f600011a2264,03/11/1990,2020-08-27_15h43.07.259,proactive3.2,2020.1.2,Win32,60,5f47c0b9b035471e11593a5c,5f47c6214ad3d61e6efbb235,6,,,,,,map,,,,,,0,49,49,14,1,2,2,,,,,,,,,,,,,,,,,,,,,,,,,,,,,,,,,,,,,,,,,,,,,,,,,,,,,,,,,,,,,,,,,,,,,,,,,,,
,,,,,,,,,,stimuli/images/PICTURE_750.png,POLICY,57c0b4480a58f600011a2264,03/11/1990,2020-08-27_15h43.07.259,proactive3.2,2020.1.2,Win32,60,5f47c0b9b035471e11593a5c,5f47c6214ad3d61e6efbb235,6,,,,,,kettle,,,,,,0,50,50,44,1,5,2,,,,,,,,,,,,,,,,,,,,,,,,,,,,,,,,,,,,,,,,,,,,,,,,,,,,,,,,,,,,,,,,,,,,,,,,,,,
,,,,,,,,,,stimuli/images/PICTURE_504.png,HOUSE,57c0b4480a58f600011a2264,03/11/1990,2020-08-27_15h43.07.259,proactive3.2,2020.1.2,Win32,60,5f47c0b9b035471e11593a5c,5f47c6214ad3d61e6efbb235,6,,,,,,wheel,,,,,,0,51,51,36,1,4,2,,,,,,,,,,,,,,,,,,,,,,,,,,,,,,,,,,,,,,,,,,,,,,,,,,,,,,,,,,,,,,,,,,,,,,,,,,,
,,,,,,,,,,stimuli/images/PICTURE_403.png,FAMILY,57c0b4480a58f600011a2264,03/11/1990,2020-08-27_15h43.07.259,proactive3.2,2020.1.2,Win32,60,5f47c0b9b035471e11593a5c,5f47c6214ad3d61e6efbb235,6,,,,,,cathedral,,,,,,0,52,52,9,1,1,2,,,,,,,,,,,,,,,,,,,,,,,,,,,,,,,,,,,,,,,,,,,,,,,,,,,,,,,,,,,,,,,,,,,,,,,,,,,
,,,,,,,,,,stimuli/images/PICTURE_141.png,CLIENT,57c0b4480a58f600011a2264,03/11/1990,2020-08-27_15h43.07.259,proactive3.2,2020.1.2,Win32,60,5f47c0b9b035471e11593a5c,5f47c6214ad3d61e6efbb235,6,,,,,,sunflower,,,,,,0,53,53,30,1,4,2,,,,,,,,,,,,,,,,,,,,,,,,,,,,,,,,,,,,,,,,,,,,,,,,,,,,,,,,,,,,,,,,,,,,,,,,,,,
,,,,,,,,,,stimuli/images/PICTURE_470.png,BEAUTY,57c0b4480a58f600011a2264,03/11/1990,2020-08-27_15h43.07.259,proactive3.2,2020.1.2,Win32,60,5f47c0b9b035471e11593a5c,5f47c6214ad3d61e6efbb235,6,,,,,,motorbike,,,,,,0,54,54,26,1,3,2,,,,,,,,,,,,,,,,,,,,,,,,,,,,,,,,,,,,,,,,,,,,,,,,,,,,,,,,,,,,,,,,,,,,,,,,,,,
,,,,,,,,,,stimuli/images/PICTURE_93.png,GIRL,57c0b4480a58f600011a2264,03/11/1990,2020-08-27_15h43.07.259,proactive3.2,2020.1.2,Win32,60,5f47c0b9b035471e11593a5c,5f47c6214ad3d61e6efbb235,6,,,,,,skateboard,,,,,,0,55,55,31,1,4,2,,,,,,,,,,,,,,,,,,,,,,,,,,,,,,,,,,,,,,,,,,,,,,,,,,,,,,,,,,,,,,,,,,,,,,,,,,,
,,,,,,,,,,stimuli/images/PICTURE_405.png,JUNGLE,57c0b4480a58f600011a2264,03/11/1990,2020-08-27_15h43.07.259,proactive3.2,2020.1.2,Win32,60,5f47c0b9b035471e11593a5c,5f47c6214ad3d61e6efbb235,6,,,,,,anchor,,,,,,0,56,56,58,1,6,2,,,,,,,,,,,,,,,,,,,,,,,,,,,,,,,,,,,,,,,,,,,,,,,,,,,,,,,,,,,,,,,,,,,,,,,,,,,
,,,,,,,,,,stimuli/images/PICTURE_285.png,PRINCE,57c0b4480a58f600011a2264,03/11/1990,2020-08-27_15h43.07.259,proactive3.2,2020.1.2,Win32,60,5f47c0b9b035471e11593a5c,5f47c6214ad3d61e6efbb235,6,,,,,,carrot,,,,,,0,57,57,20,1,3,2,,,,,,,,,,,,,,,,,,,,,,,,,,,,,,,,,,,,,,,,,,,,,,,,,,,,,,,,,,,,,,,,,,,,,,,,,,,
,,,,,,,,,,stimuli/images/PICTURE_405.png,JUNGLE,57c0b4480a58f600011a2264,03/11/1990,2020-08-27_15h43.07.259,proactive3.2,2020.1.2,Win32,60,5f47c0b9b035471e11593a5c,5f47c6214ad3d61e6efbb235,6,,,,,,anchor,,,,,,0,58,58,13,1,2,2,,,,,,,,,,,,,,,,,,,,,,,,,,,,,,,,,,,,,,,,,,,,,,,,,,,,,,,,,,,,,,,,,,,,,,,,,,,
,,?,0.001,0,,,,,,stimuli/images/PICTURE_677.png,PHOTO,57c0b4480a58f600011a2264,03/11/1990,2020-08-27_15h43.07.259,proactive3.2,2020.1.2,Win32,60,5f47c0b9b035471e11593a5c,5f47c6214ad3d61e6efbb235,6,,,,,,map,,,,,,,,,,,2,2,0,0,0,14,1,,,,,,,,,,,,,,,,,,,,,,,,,,,,,,,,,,,,,,,,,,,,,,,,,,,,,,,,,,,,,,,,,,,,,,
,,FAMILY,3.807,1,,,,,,stimuli/images/PICTURE_677.png,FAMILY,57c0b4480a58f600011a2264,03/11/1990,2020-08-27_15h43.07.259,proactive3.2,2020.1.2,Win32,60,5f47c0b9b035471e11593a5c,5f47c6214ad3d61e6efbb235,6,,,,,,map,,,,,,,,,,,6,2,0,1,1,53,1,,,,,,,,,,,,,,,,,,,,,,,,,,,,,,,,,,,,,,,,,,,,,,,,,,,,,,,,,,,,,,,,,,,,,,
,,?,0.004,0,,,,,,stimuli/images/PICTURE_285.png,WRITER,57c0b4480a58f600011a2264,03/11/1990,2020-08-27_15h43.07.259,proactive3.2,2020.1.2,Win32,60,5f47c0b9b035471e11593a5c,5f47c6214ad3d61e6efbb235,6,,,,,,carrot,,,,,,,,,,,1,2,0,2,2,6,1,,,,,,,,,,,,,,,,,,,,,,,,,,,,,,,,,,,,,,,,,,,,,,,,,,,,,,,,,,,,,,,,,,,,,,
,,?,0.001,0,,,,,,stimuli/images/PICTURE_33.png,COPS,57c0b4480a58f600011a2264,03/11/1990,2020-08-27_15h43.07.259,proactive3.2,2020.1.2,Win32,60,5f47c0b9b035471e11593a5c,5f47c6214ad3d61e6efbb235,6,,,,,,frame,,,,,,,,,,,3,2,0,3,3,29,1,,,,,,,,,,,,,,,,,,,,,,,,,,,,,,,,,,,,,,,,,,,,,,,,,,,,,,,,,,,,,,,,,,,,,,
,,?,0.001,0,,,,,,stimuli/images/PICTURE_509.png,BATH,57c0b4480a58f600011a2264,03/11/1990,2020-08-27_15h43.07.259,proactive3.2,2020.1.2,Win32,60,5f47c0b9b035471e11593a5c,5f47c6214ad3d61e6efbb235,6,,,,,,telephone,,,,,,,,,,,2,2,0,4,4,15,1,,,,,,,,,,,,,,,,,,,,,,,,,,,,,,,,,,,,,,,,,,,,,,,,,,,,,,,,,,,,,,,,,,,,,,
,,SALE,3.023,1,,,,,,stimuli/images/PICTURE_655.png,SALE,57c0b4480a58f600011a2264,03/11/1990,2020-08-27_15h43.07.259,proactive3.2,2020.1.2,Win32,60,5f47c0b9b035471e11593a5c,5f47c6214ad3d61e6efbb235,6,,,,,,megaphone,,,,,,,,,,,6,2,0,5,5,57,1,,,,,,,,,,,,,,,,,,,,,,,,,,,,,,,,,,,,,,,,,,,,,,,,,,,,,,,,,,,,,,,,,,,,,,
,,?,0.004,0,,,,,,stimuli/images/PICTURE_2.png,AREA,57c0b4480a58f600011a2264,03/11/1990,2020-08-27_15h43.07.259,proactive3.2,2020.1.2,Win32,60,5f47c0b9b035471e11593a5c,5f47c6214ad3d61e6efbb235,6,,,,,,tyre,,,,,,,,,,,4,2,0,6,6,32,1,,,,,,,,,,,,,,,,,,,,,,,,,,,,,,,,,,,,,,,,,,,,,,,,,,,,,,,,,,,,,,,,,,,,,,
,,?,0.001,0,,,,,,stimuli/images/PICTURE_654.png,COPS,57c0b4480a58f600011a2264,03/11/1990,2020-08-27_15h43.07.259,proactive3.2,2020.1.2,Win32,60,5f47c0b9b035471e11593a5c,5f47c6214ad3d61e6efbb235,6,,,,,,pencil,,,,,,,,,,,2,2,0,7,7,10,1,,,,,,,,,,,,,,,,,,,,,,,,,,,,,,,,,,,,,,,,,,,,,,,,,,,,,,,,,,,,,,,,,,,,,,
,,LETTER,2.875,1,,,,,,stimuli/images/PICTURE_32.png,LETTER,57c0b4480a58f600011a2264,03/11/1990,2020-08-27_15h43.07.259,proactive3.2,2020.1.2,Win32,60,5f47c0b9b035471e11593a5c,5f47c6214ad3d61e6efbb235,6,,,,,,crown,,,,,,,,,,,6,2,0,8,8,56,1,,,,,,,,,,,,,,,,,,,,,,,,,,,,,,,,,,,,,,,,,,,,,,,,,,,,,,,,,,,,,,,,,,,,,,
,,?,0.004,0,,,,,,stimuli/images/PICTURE_93.png,GIRL,57c0b4480a58f600011a2264,03/11/1990,2020-08-27_15h43.07.259,proactive3.2,2020.1.2,Win32,60,5f47c0b9b035471e11593a5c,5f47c6214ad3d61e6efbb235,6,,,,,,skateboard,,,,,,,,,,,4,2,0,9,9,31,1,,,,,,,,,,,,,,,,,,,,,,,,,,,,,,,,,,,,,,,,,,,,,,,,,,,,,,,,,,,,,,,,,,,,,,
,,?,0.001,0,,,,,,stimuli/images/PICTURE_215.png,FOOD,57c0b4480a58f600011a2264,03/11/1990,2020-08-27_15h43.07.259,proactive3.2,2020.1.2,Win32,60,5f47c0b9b035471e11593a5c,5f47c6214ad3d61e6efbb235,6,,,,,,boot,,,,,,,,,,,1,2,0,10,10,5,1,,,,,,,,,,,,,,,,,,,,,,,,,,,,,,,,,,,,,,,,,,,,,,,,,,,,,,,,,,,,,,,,,,,,,,
,,?,0,0,,,,,,stimuli/images/PICTURE_453.png,FAMILY,57c0b4480a58f600011a2264,03/11/1990,2020-08-27_15h43.07.259,proactive3.2,2020.1.2,Win32,60,5f47c0b9b035471e11593a5c,5f47c6214ad3d61e6efbb235,6,,,,,,scissors,,,,,,,,,,,5,2,0,11,11,48,1,,,,,,,,,,,,,,,,,,,,,,,,,,,,,,,,,,,,,,,,,,,,,,,,,,,,,,,,,,,,,,,,,,,,,,
,,?,0.002,0,,,,,,stimuli/images/PICTURE_692.png,DUDE,57c0b4480a58f600011a2264,03/11/1990,2020-08-27_15h43.07.259,proactive3.2,2020.1.2,Win32,60,5f47c0b9b035471e11593a5c,5f47c6214ad3d61e6efbb235,6,,,,,,cherry,,,,,,,,,,,5,2,0,12,12,47,1,,,,,,,,,,,,,,,,,,,,,,,,,,,,,,,,,,,,,,,,,,,,,,,,,,,,,,,,,,,,,,,,,,,,,,
,,DUDE,2.089,1,,,,,,stimuli/images/PICTURE_348.png,DUDE,57c0b4480a58f600011a2264,03/11/1990,2020-08-27_15h43.07.259,proactive3.2,2020.1.2,Win32,60,5f47c0b9b035471e11593a5c,5f47c6214ad3d61e6efbb235,6,,,,,,pepper,,,,,,,,,,,6,2,0,13,13,59,1,,,,,,,,,,,,,,,,,,,,,,,,,,,,,,,,,,,,,,,,,,,,,,,,,,,,,,,,,,,,,,,,,,,,,,
,,?,0.004,0,,,,,,stimuli/images/PICTURE_255.png,PENNY,57c0b4480a58f600011a2264,03/11/1990,2020-08-27_15h43.07.259,proactive3.2,2020.1.2,Win32,60,5f47c0b9b035471e11593a5c,5f47c6214ad3d61e6efbb235,6,,,,,,shovel,,,,,,,,,,,2,2,0,14,14,19,1,,,,,,,,,,,,,,,,,,,,,,,,,,,,,,,,,,,,,,,,,,,,,,,,,,,,,,,,,,,,,,,,,,,,,,
,,?,0.001,0,,,,,,stimuli/images/PICTURE_57.png,CASINO,57c0b4480a58f600011a2264,03/11/1990,2020-08-27_15h43.07.259,proactive3.2,2020.1.2,Win32,60,5f47c0b9b035471e11593a5c,5f47c6214ad3d61e6efbb235,6,,,,,,stamp,,,,,,,,,,,2,2,0,15,15,12,1,,,,,,,,,,,,,,,,,,,,,,,,,,,,,,,,,,,,,,,,,,,,,,,,,,,,,,,,,,,,,,,,,,,,,,
