consent_key.keys,consent_key.rt,recalled,recalled_rt,recall_acc,example_recall.thisRepN,example_recall.thisTrialN,example_recall.thisN,example_recall.thisIndex,example_recall.ran,file,word,participant,please enter your date of birth (dd/mm/yyyy),date,expName,psychopyVersion,OS,frameRate,STUDY_ID,SESSION_ID,list,prac_learn_study_loop.thisRepN,prac_learn_study_loop.thisTrialN,prac_learn_study_loop.thisN,prac_learn_study_loop.thisIndex,prac_learn_study_loop.ran,image,prac_learn_test_loop.thisRepN,prac_learn_test_loop.thisTrialN,prac_learn_test_loop.thisN,prac_learn_test_loop.thisIndex,prac_learn_test_loop.ran,learn_study_loop.thisRepN,learn_study_loop.thisTrialN,learn_study_loop.thisN,learn_study_loop.thisIndex,learn_study_loop.ran,list_no,block_no,learn_test_loop.thisRepN,learn_test_loop.thisTrialN,learn_test_loop.thisN,learn_test_loop.thisIndex,learn_test_loop.ran,learn_blocks.thisRepN,learn_blocks.thisTrialN,learn_blocks.thisN,learn_blocks.thisIndex,learn_blocks.ran,block_csv,key_resp_13.keys,key_resp_13.rt,learn_blocks_loop.thisRepN,learn_blocks_loop.thisTrialN,learn_blocks_loop.thisN,learn_blocks_loop.thisIndex,learn_blocks_loop.ran,final_learn_test.thisRepN,final_learn_test.thisTrialN,final_learn_test.thisN,final_learn_test.thisIndex,final_learn_test.ran,prac_wm_test_loop.thisRepN,prac_wm_test_loop.thisTrialN,prac_wm_test_loop.thisN,prac_wm_test_loop.thisIndex,prac_wm_test_loop.ran,wm_recalled1,wm_recall_rt1,wm_probed1,wm_recall_acc1,wm_recalled2,wm_recall_rt2,wm_probed2,wm_recall_acc2,wm_recalled3,wm_recall_rt3,wm_probed3,wm_recall_acc3,wm_recalled4,wm_recall_rt4,wm_probed4,wm_recall_acc4,prac_wm_trial_loop.thisRepN,prac_wm_trial_loop.thisTrialN,prac_wm_trial_loop.thisN,prac_wm_trial_loop.thisIndex,prac_wm_trial_loop.ran,word1,image1,file1,item_type1,word2,image2,file2,item_type2,word4,image4,file4,item_type4,word3,image3,file3,item_type3,wm_test_loop.thisRepN,wm_test_loop.thisTrialN,wm_test_loop.thisN,wm_test_loop.thisIndex,wm_test_loop.ran,wm_trial_loop.thisRepN,wm_trial_loop.thisTrialN,wm_trial_loop.thisN,wm_trial_loop.thisIndex,wm_trial_loop.ran
y,6.951815,TOUGH,3.54183,1,0,0,0,0,1,stimuli/images/PICTURE_747.png,TOUGH,57cde6e36736cf0001b326e4,08/02/1990,2020-09-02_08h28.11.446,proactive3.2,2020.1.2,Win32,60,5f47c0b9b035471e11593a5c,5f4f81a4275a7403ec8ca83c,5,,,,,,,,,,,,,,,,,,,,,,,,,,,,,,,,,,,,,,,,,,,,,,,,,,,,,,,,,,,,,,,,,,,,,,,,,,,,,,,,,,,,,,,,,,,,,
,,,,,,,,,,stimuli/images/PICTURE_727.png,CELL,57cde6e36736cf0001b326e4,08/02/1990,2020-09-02_08h28.11.446,proactive3.2,2020.1.2,Win32,60,5f47c0b9b035471e11593a5c,5f4f81a4275a7403ec8ca83c,5,0,0,0,1,1,hose,,,,,,,,,,,,,,,,,,,,,,,,,,,,,,,,,,,,,,,,,,,,,,,,,,,,,,,,,,,,,,,,,,,,,,,,,,,,,,,,,,,,,,,
,,,,,,,,,,stimuli/images/PICTURE_378.png,LOSS,57cde6e36736cf0001b326e4,08/02/1990,2020-09-02_08h28.11.446,proactive3.2,2020.1.2,Win32,60,5f47c0b9b035471e11593a5c,5f4f81a4275a7403ec8ca83c,5,0,1,1,2,1,lobster,,,,,,,,,,,,,,,,,,,,,,,,,,,,,,,,,,,,,,,,,,,,,,,,,,,,,,,,,,,,,,,,,,,,,,,,,,,,,,,,,,,,,,,
,,,,,,,,,,stimuli/images/PICTURE_269.png,GENIUS,57cde6e36736cf0001b326e4,08/02/1990,2020-09-02_08h28.11.446,proactive3.2,2020.1.2,Win32,60,5f47c0b9b035471e11593a5c,5f4f81a4275a7403ec8ca83c,5,0,2,2,0,1,chameleon,,,,,,,,,,,,,,,,,,,,,,,,,,,,,,,,,,,,,,,,,,,,,,,,,,,,,,,,,,,,,,,,,,,,,,,,,,,,,,,,,,,,,,,
,,,,,,,,,,stimuli/images/PICTURE_697.png,KILLER,57cde6e36736cf0001b326e4,08/02/1990,2020-09-02_08h28.11.446,proactive3.2,2020.1.2,Win32,60,5f47c0b9b035471e11593a5c,5f4f81a4275a7403ec8ca83c,5,0,3,3,4,1,peach,,,,,,,,,,,,,,,,,,,,,,,,,,,,,,,,,,,,,,,,,,,,,,,,,,,,,,,,,,,,,,,,,,,,,,,,,,,,,,,,,,,,,,,
,,DEVIL,2.380615,1,,,,,,stimuli/images/PICTURE_658.png,DEVIL,57cde6e36736cf0001b326e4,08/02/1990,2020-09-02_08h28.11.446,proactive3.2,2020.1.2,Win32,60,5f47c0b9b035471e11593a5c,5f4f81a4275a7403ec8ca83c,5,,,,,,crow,0,0,0,3,1,,,,,,,,,,,,,,,,,,,,,,,,,,,,,,,,,,,,,,,,,,,,,,,,,,,,,,,,,,,,,,,,,,,,,,,,,,,,,,,,,,
,,?,9.05016,0,,,,,,stimuli/images/PICTURE_269.png,GENIUS,57cde6e36736cf0001b326e4,08/02/1990,2020-09-02_08h28.11.446,proactive3.2,2020.1.2,Win32,60,5f47c0b9b035471e11593a5c,5f4f81a4275a7403ec8ca83c,5,,,,,,chameleon,0,1,1,0,1,,,,,,,,,,,,,,,,,,,,,,,,,,,,,,,,,,,,,,,,,,,,,,,,,,,,,,,,,,,,,,,,,,,,,,,,,,,,,,,,,,
,,KILLER,1.913305,1,,,,,,stimuli/images/PICTURE_697.png,KILLER,57cde6e36736cf0001b326e4,08/02/1990,2020-09-02_08h28.11.446,proactive3.2,2020.1.2,Win32,60,5f47c0b9b035471e11593a5c,5f4f81a4275a7403ec8ca83c,5,,,,,,peach,0,2,2,4,1,,,,,,,,,,,,,,,,,,,,,,,,,,,,,,,,,,,,,,,,,,,,,,,,,,,,,,,,,,,,,,,,,,,,,,,,,,,,,,,,,,
,,CELL,2.500505,1,,,,,,stimuli/images/PICTURE_727.png,CELL,57cde6e36736cf0001b326e4,08/02/1990,2020-09-02_08h28.11.446,proactive3.2,2020.1.2,Win32,60,5f47c0b9b035471e11593a5c,5f4f81a4275a7403ec8ca83c,5,,,,,,hose,0,3,3,1,1,,,,,,,,,,,,,,,,,,,,,,,,,,,,,,,,,,,,,,,,,,,,,,,,,,,,,,,,,,,,,,,,,,,,,,,,,,,,,,,,,,
,,LOST,1.633755,0,,,,,,stimuli/images/PICTURE_378.png,LOSS,57cde6e36736cf0001b326e4,08/02/1990,2020-09-02_08h28.11.446,proactive3.2,2020.1.2,Win32,60,5f47c0b9b035471e11593a5c,5f4f81a4275a7403ec8ca83c,5,,,,,,lobster,0,4,4,2,1,,,,,,,,,,,,,,,,,,,,,,,,,,,,,,,,,,,,,,,,,,,,,,,,,,,,,,,,,,,,,,,,,,,,,,,,,,,,,,,,,,
,,,,,,,,,,stimuli/images/PICTURE_405.png,YEAR,57cde6e36736cf0001b326e4,08/02/1990,2020-09-02_08h28.11.446,proactive3.2,2020.1.2,Win32,60,5f47c0b9b035471e11593a5c,5f4f81a4275a7403ec8ca83c,5,,,,,,anchor,,,,,,0,0,0,34,1,4,1,,,,,,,,,,,,,,,,,,,,,,,,,,,,,,,,,,,,,,,,,,,,,,,,,,,,,,,,,,,,,,,,,,,,,,,,,,,
,,,,,,,,,,stimuli/images/PICTURE_403.png,TOILET,57cde6e36736cf0001b326e4,08/02/1990,2020-09-02_08h28.11.446,proactive3.2,2020.1.2,Win32,60,5f47c0b9b035471e11593a5c,5f4f81a4275a7403ec8ca83c,5,,,,,,cathedral,,,,,,0,1,1,25,1,3,1,,,,,,,,,,,,,,,,,,,,,,,,,,,,,,,,,,,,,,,,,,,,,,,,,,,,,,,,,,,,,,,,,,,,,,,,,,,
,,,,,,,,,,stimuli/images/PICTURE_744.png,WEAPON,57cde6e36736cf0001b326e4,08/02/1990,2020-09-02_08h28.11.446,proactive3.2,2020.1.2,Win32,60,5f47c0b9b035471e11593a5c,5f4f81a4275a7403ec8ca83c,5,,,,,,ring,,,,,,0,2,2,50,1,6,1,,,,,,,,,,,,,,,,,,,,,,,,,,,,,,,,,,,,,,,,,,,,,,,,,,,,,,,,,,,,,,,,,,,,,,,,,,,
,,,,,,,,,,stimuli/images/PICTURE_68.png,ROOF,57cde6e36736cf0001b326e4,08/02/1990,2020-09-02_08h28.11.446,proactive3.2,2020.1.2,Win32,60,5f47c0b9b035471e11593a5c,5f4f81a4275a7403ec8ca83c,5,,,,,,candle,,,,,,0,3,3,38,1,4,1,,,,,,,,,,,,,,,,,,,,,,,,,,,,,,,,,,,,,,,,,,,,,,,,,,,,,,,,,,,,,,,,,,,,,,,,,,,
,,,,,,,,,,stimuli/images/PICTURE_95.png,HONEY,57cde6e36736cf0001b326e4,08/02/1990,2020-09-02_08h28.11.446,proactive3.2,2020.1.2,Win32,60,5f47c0b9b035471e11593a5c,5f4f81a4275a7403ec8ca83c,5,,,,,,suitcase,,,,,,0,4,4,44,1,5,1,,,,,,,,,,,,,,,,,,,,,,,,,,,,,,,,,,,,,,,,,,,,,,,,,,,,,,,,,,,,,,,,,,,,,,,,,,,
,,,,,,,,,,stimuli/images/PICTURE_108.png,FLIGHT,57cde6e36736cf0001b326e4,08/02/1990,2020-09-02_08h28.11.446,proactive3.2,2020.1.2,Win32,60,5f47c0b9b035471e11593a5c,5f4f81a4275a7403ec8ca83c,5,,,,,,calendar,,,,,,0,5,5,59,1,6,1,,,,,,,,,,,,,,,,,,,,,,,,,,,,,,,,,,,,,,,,,,,,,,,,,,,,,,,,,,,,,,,,,,,,,,,,,,,
,,,,,,,,,,stimuli/images/PICTURE_32.png,PILLS,57cde6e36736cf0001b326e4,08/02/1990,2020-09-02_08h28.11.446,proactive3.2,2020.1.2,Win32,60,5f47c0b9b035471e11593a5c,5f4f81a4275a7403ec8ca83c,5,,,,,,crown,,,,,,0,6,6,18,1,2,1,,,,,,,,,,,,,,,,,,,,,,,,,,,,,,,,,,,,,,,,,,,,,,,,,,,,,,,,,,,,,,,,,,,,,,,,,,,
,,,,,,,,,,stimuli/images/PICTURE_654.png,MONTH,57cde6e36736cf0001b326e4,08/02/1990,2020-09-02_08h28.11.446,proactive3.2,2020.1.2,Win32,60,5f47c0b9b035471e11593a5c,5f4f81a4275a7403ec8ca83c,5,,,,,,pencil,,,,,,0,7,7,29,1,3,1,,,,,,,,,,,,,,,,,,,,,,,,,,,,,,,,,,,,,,,,,,,,,,,,,,,,,,,,,,,,,,,,,,,,,,,,,,,
,,,,,,,,,,stimuli/images/PICTURE_491.png,GLASS,57cde6e36736cf0001b326e4,08/02/1990,2020-09-02_08h28.11.446,proactive3.2,2020.1.2,Win32,60,5f47c0b9b035471e11593a5c,5f4f81a4275a7403ec8ca83c,5,,,,,,rug,,,,,,0,8,8,14,1,2,1,,,,,,,,,,,,,,,,,,,,,,,,,,,,,,,,,,,,,,,,,,,,,,,,,,,,,,,,,,,,,,,,,,,,,,,,,,,
,,,,,,,,,,stimuli/images/PICTURE_95.png,MILLER,57cde6e36736cf0001b326e4,08/02/1990,2020-09-02_08h28.11.446,proactive3.2,2020.1.2,Win32,60,5f47c0b9b035471e11593a5c,5f4f81a4275a7403ec8ca83c,5,,,,,,suitcase,,,,,,0,9,9,56,1,6,1,,,,,,,,,,,,,,,,,,,,,,,,,,,,,,,,,,,,,,,,,,,,,,,,,,,,,,,,,,,,,,,,,,,,,,,,,,,
,,,,,,,,,,stimuli/images/PICTURE_95.png,BOYS,57cde6e36736cf0001b326e4,08/02/1990,2020-09-02_08h28.11.446,proactive3.2,2020.1.2,Win32,60,5f47c0b9b035471e11593a5c,5f4f81a4275a7403ec8ca83c,5,,,,,,suitcase,,,,,,0,10,10,1,1,1,1,,,,,,,,,,,,,,,,,,,,,,,,,,,,,,,,,,,,,,,,,,,,,,,,,,,,,,,,,,,,,,,,,,,,,,,,,,,
,,,,,,,,,,stimuli/images/PICTURE_383.png,SERIES,57cde6e36736cf0001b326e4,08/02/1990,2020-09-02_08h28.11.446,proactive3.2,2020.1.2,Win32,60,5f47c0b9b035471e11593a5c,5f4f81a4275a7403ec8ca83c,5,,,,,,coin,,,,,,0,11,11,46,1,5,1,,,,,,,,,,,,,,,,,,,,,,,,,,,,,,,,,,,,,,,,,,,,,,,,,,,,,,,,,,,,,,,,,,,,,,,,,,,
,,,,,,,,,,stimuli/images/PICTURE_2.png,FLIGHT,57cde6e36736cf0001b326e4,08/02/1990,2020-09-02_08h28.11.446,proactive3.2,2020.1.2,Win32,60,5f47c0b9b035471e11593a5c,5f4f81a4275a7403ec8ca83c,5,,,,,,tyre,,,,,,0,12,12,15,1,2,1,,,,,,,,,,,,,,,,,,,,,,,,,,,,,,,,,,,,,,,,,,,,,,,,,,,,,,,,,,,,,,,,,,,,,,,,,,,
,,,,,,,,,,stimuli/images/PICTURE_685.png,PENNY,57cde6e36736cf0001b326e4,08/02/1990,2020-09-02_08h28.11.446,proactive3.2,2020.1.2,Win32,60,5f47c0b9b035471e11593a5c,5f4f81a4275a7403ec8ca83c,5,,,,,,goose,,,,,,0,13,13,4,1,1,1,,,,,,,,,,,,,,,,,,,,,,,,,,,,,,,,,,,,,,,,,,,,,,,,,,,,,,,,,,,,,,,,,,,,,,,,,,,
,,,,,,,,,,stimuli/images/PICTURE_233.png,LOTS,57cde6e36736cf0001b326e4,08/02/1990,2020-09-02_08h28.11.446,proactive3.2,2020.1.2,Win32,60,5f47c0b9b035471e11593a5c,5f4f81a4275a7403ec8ca83c,5,,,,,,salt,,,,,,0,14,14,42,1,5,1,,,,,,,,,,,,,,,,,,,,,,,,,,,,,,,,,,,,,,,,,,,,,,,,,,,,,,,,,,,,,,,,,,,,,,,,,,,
,,,,,,,,,,stimuli/images/PICTURE_296.png,LIFE,57cde6e36736cf0001b326e4,08/02/1990,2020-09-02_08h28.11.446,proactive3.2,2020.1.2,Win32,60,5f47c0b9b035471e11593a5c,5f4f81a4275a7403ec8ca83c,5,,,,,,bolt,,,,,,0,15,15,57,1,6,1,,,,,,,,,,,,,,,,,,,,,,,,,,,,,,,,,,,,,,,,,,,,,,,,,,,,,,,,,,,,,,,,,,,,,,,,,,,
,,,,,,,,,,stimuli/images/PICTURE_564.png,BATH,57cde6e36736cf0001b326e4,08/02/1990,2020-09-02_08h28.11.446,proactive3.2,2020.1.2,Win32,60,5f47c0b9b035471e11593a5c,5f4f81a4275a7403ec8ca83c,5,,,,,,spoon,,,,,,0,16,16,26,1,3,1,,,,,,,,,,,,,,,,,,,,,,,,,,,,,,,,,,,,,,,,,,,,,,,,,,,,,,,,,,,,,,,,,,,,,,,,,,,
,,,,,,,,,,stimuli/images/PICTURE_33.png,FRIEND,57cde6e36736cf0001b326e4,08/02/1990,2020-09-02_08h28.11.446,proactive3.2,2020.1.2,Win32,60,5f47c0b9b035471e11593a5c,5f4f81a4275a7403ec8ca83c,5,,,,,,frame,,,,,,0,17,17,8,1,1,1,,,,,,,,,,,,,,,,,,,,,,,,,,,,,,,,,,,,,,,,,,,,,,,,,,,,,,,,,,,,,,,,,,,,,,,,,,,
,,,,,,,,,,stimuli/images/PICTURE_57.png,MOMENT,57cde6e36736cf0001b326e4,08/02/1990,2020-09-02_08h28.11.446,proactive3.2,2020.1.2,Win32,60,5f47c0b9b035471e11593a5c,5f4f81a4275a7403ec8ca83c,5,,,,,,stamp,,,,,,0,18,18,37,1,4,1,,,,,,,,,,,,,,,,,,,,,,,,,,,,,,,,,,,,,,,,,,,,,,,,,,,,,,,,,,,,,,,,,,,,,,,,,,,
,,,,,,,,,,stimuli/images/PICTURE_340.png,VALLEY,57cde6e36736cf0001b326e4,08/02/1990,2020-09-02_08h28.11.446,proactive3.2,2020.1.2,Win32,60,5f47c0b9b035471e11593a5c,5f4f81a4275a7403ec8ca83c,5,,,,,,mirror,,,,,,0,19,19,54,1,6,1,,,,,,,,,,,,,,,,,,,,,,,,,,,,,,,,,,,,,,,,,,,,,,,,,,,,,,,,,,,,,,,,,,,,,,,,,,,
,,,,,,,,,,stimuli/images/PICTURE_208.png,SYSTEM,57cde6e36736cf0001b326e4,08/02/1990,2020-09-02_08h28.11.446,proactive3.2,2020.1.2,Win32,60,5f47c0b9b035471e11593a5c,5f4f81a4275a7403ec8ca83c,5,,,,,,microphone,,,,,,0,20,20,32,1,4,1,,,,,,,,,,,,,,,,,,,,,,,,,,,,,,,,,,,,,,,,,,,,,,,,,,,,,,,,,,,,,,,,,,,,,,,,,,,
,,,,,,,,,,stimuli/images/PICTURE_147.png,YEAR,57cde6e36736cf0001b326e4,08/02/1990,2020-09-02_08h28.11.446,proactive3.2,2020.1.2,Win32,60,5f47c0b9b035471e11593a5c,5f4f81a4275a7403ec8ca83c,5,,,,,,hanger,,,,,,0,21,21,21,1,3,1,,,,,,,,,,,,,,,,,,,,,,,,,,,,,,,,,,,,,,,,,,,,,,,,,,,,,,,,,,,,,,,,,,,,,,,,,,,
,,,,,,,,,,stimuli/images/PICTURE_504.png,YEAR,57cde6e36736cf0001b326e4,08/02/1990,2020-09-02_08h28.11.446,proactive3.2,2020.1.2,Win32,60,5f47c0b9b035471e11593a5c,5f4f81a4275a7403ec8ca83c,5,,,,,,wheel,,,,,,0,22,22,13,1,2,1,,,,,,,,,,,,,,,,,,,,,,,,,,,,,,,,,,,,,,,,,,,,,,,,,,,,,,,,,,,,,,,,,,,,,,,,,,,
,,,,,,,,,,stimuli/images/PICTURE_403.png,WRITER,57cde6e36736cf0001b326e4,08/02/1990,2020-09-02_08h28.11.446,proactive3.2,2020.1.2,Win32,60,5f47c0b9b035471e11593a5c,5f4f81a4275a7403ec8ca83c,5,,,,,,cathedral,,,,,,0,23,23,31,1,4,1,,,,,,,,,,,,,,,,,,,,,,,,,,,,,,,,,,,,,,,,,,,,,,,,,,,,,,,,,,,,,,,,,,,,,,,,,,,
,,,,,,,,,,stimuli/images/PICTURE_504.png,COPS,57cde6e36736cf0001b326e4,08/02/1990,2020-09-02_08h28.11.446,proactive3.2,2020.1.2,Win32,60,5f47c0b9b035471e11593a5c,5f4f81a4275a7403ec8ca83c,5,,,,,,wheel,,,,,,0,24,24,52,1,6,1,,,,,,,,,,,,,,,,,,,,,,,,,,,,,,,,,,,,,,,,,,,,,,,,,,,,,,,,,,,,,,,,,,,,,,,,,,,
,,,,,,,,,,stimuli/images/PICTURE_177.png,WRITER,57cde6e36736cf0001b326e4,08/02/1990,2020-09-02_08h28.11.446,proactive3.2,2020.1.2,Win32,60,5f47c0b9b035471e11593a5c,5f4f81a4275a7403ec8ca83c,5,,,,,,mushroom,,,,,,0,25,25,41,1,5,1,,,,,,,,,,,,,,,,,,,,,,,,,,,,,,,,,,,,,,,,,,,,,,,,,,,,,,,,,,,,,,,,,,,,,,,,,,,
,,,,,,,,,,stimuli/images/PICTURE_467.png,POLICY,57cde6e36736cf0001b326e4,08/02/1990,2020-09-02_08h28.11.446,proactive3.2,2020.1.2,Win32,60,5f47c0b9b035471e11593a5c,5f4f81a4275a7403ec8ca83c,5,,,,,,peg,,,,,,0,26,26,53,1,6,1,,,,,,,,,,,,,,,,,,,,,,,,,,,,,,,,,,,,,,,,,,,,,,,,,,,,,,,,,,,,,,,,,,,,,,,,,,,
,,,,,,,,,,stimuli/images/PICTURE_675.png,SALE,57cde6e36736cf0001b326e4,08/02/1990,2020-09-02_08h28.11.446,proactive3.2,2020.1.2,Win32,60,5f47c0b9b035471e11593a5c,5f4f81a4275a7403ec8ca83c,5,,,,,,windmill,,,,,,0,27,27,47,1,5,1,,,,,,,,,,,,,,,,,,,,,,,,,,,,,,,,,,,,,,,,,,,,,,,,,,,,,,,,,,,,,,,,,,,,,,,,,,,
,,,,,,,,,,stimuli/images/PICTURE_203.png,GODS,57cde6e36736cf0001b326e4,08/02/1990,2020-09-02_08h28.11.446,proactive3.2,2020.1.2,Win32,60,5f47c0b9b035471e11593a5c,5f4f81a4275a7403ec8ca83c,5,,,,,,cap,,,,,,0,28,28,30,1,4,1,,,,,,,,,,,,,,,,,,,,,,,,,,,,,,,,,,,,,,,,,,,,,,,,,,,,,,,,,,,,,,,,,,,,,,,,,,,
,,,,,,,,,,stimuli/images/PICTURE_380.png,HONEY,57cde6e36736cf0001b326e4,08/02/1990,2020-09-02_08h28.11.446,proactive3.2,2020.1.2,Win32,60,5f47c0b9b035471e11593a5c,5f4f81a4275a7403ec8ca83c,5,,,,,,gorilla,,,,,,0,29,29,19,1,2,1,,,,,,,,,,,,,,,,,,,,,,,,,,,,,,,,,,,,,,,,,,,,,,,,,,,,,,,,,,,,,,,,,,,,,,,,,,,
,,,,,,,,,,stimuli/images/PICTURE_32.png,KIND,57cde6e36736cf0001b326e4,08/02/1990,2020-09-02_08h28.11.446,proactive3.2,2020.1.2,Win32,60,5f47c0b9b035471e11593a5c,5f4f81a4275a7403ec8ca83c,5,,,,,,crown,,,,,,0,30,30,35,1,4,1,,,,,,,,,,,,,,,,,,,,,,,,,,,,,,,,,,,,,,,,,,,,,,,,,,,,,,,,,,,,,,,,,,,,,,,,,,,
,,,,,,,,,,stimuli/images/PICTURE_403.png,RIVER,57cde6e36736cf0001b326e4,08/02/1990,2020-09-02_08h28.11.446,proactive3.2,2020.1.2,Win32,60,5f47c0b9b035471e11593a5c,5f4f81a4275a7403ec8ca83c,5,,,,,,cathedral,,,,,,0,31,31,40,1,5,1,,,,,,,,,,,,,,,,,,,,,,,,,,,,,,,,,,,,,,,,,,,,,,,,,,,,,,,,,,,,,,,,,,,,,,,,,,,
,,,,,,,,,,stimuli/images/PICTURE_339.png,CLIENT,57cde6e36736cf0001b326e4,08/02/1990,2020-09-02_08h28.11.446,proactive3.2,2020.1.2,Win32,60,5f47c0b9b035471e11593a5c,5f4f81a4275a7403ec8ca83c,5,,,,,,backpack,,,,,,0,32,32,11,1,2,1,,,,,,,,,,,,,,,,,,,,,,,,,,,,,,,,,,,,,,,,,,,,,,,,,,,,,,,,,,,,,,,,,,,,,,,,,,,
,,,,,,,,,,stimuli/images/PICTURE_42.png,BOYS,57cde6e36736cf0001b326e4,08/02/1990,2020-09-02_08h28.11.446,proactive3.2,2020.1.2,Win32,60,5f47c0b9b035471e11593a5c,5f4f81a4275a7403ec8ca83c,5,,,,,,pear,,,,,,0,33,33,55,1,6,1,,,,,,,,,,,,,,,,,,,,,,,,,,,,,,,,,,,,,,,,,,,,,,,,,,,,,,,,,,,,,,,,,,,,,,,,,,,
,,,,,,,,,,stimuli/images/PICTURE_380.png,CANDY,57cde6e36736cf0001b326e4,08/02/1990,2020-09-02_08h28.11.446,proactive3.2,2020.1.2,Win32,60,5f47c0b9b035471e11593a5c,5f4f81a4275a7403ec8ca83c,5,,,,,,gorilla,,,,,,0,34,34,0,1,1,1,,,,,,,,,,,,,,,,,,,,,,,,,,,,,,,,,,,,,,,,,,,,,,,,,,,,,,,,,,,,,,,,,,,,,,,,,,,
,,,,,,,,,,stimuli/images/PICTURE_487.png,GIRL,57cde6e36736cf0001b326e4,08/02/1990,2020-09-02_08h28.11.446,proactive3.2,2020.1.2,Win32,60,5f47c0b9b035471e11593a5c,5f4f81a4275a7403ec8ca83c,5,,,,,,basket,,,,,,0,35,35,45,1,5,1,,,,,,,,,,,,,,,,,,,,,,,,,,,,,,,,,,,,,,,,,,,,,,,,,,,,,,,,,,,,,,,,,,,,,,,,,,,
,,,,,,,,,,stimuli/images/PICTURE_68.png,MILE,57cde6e36736cf0001b326e4,08/02/1990,2020-09-02_08h28.11.446,proactive3.2,2020.1.2,Win32,60,5f47c0b9b035471e11593a5c,5f4f81a4275a7403ec8ca83c,5,,,,,,candle,,,,,,0,36,36,51,1,6,1,,,,,,,,,,,,,,,,,,,,,,,,,,,,,,,,,,,,,,,,,,,,,,,,,,,,,,,,,,,,,,,,,,,,,,,,,,,
,,,,,,,,,,stimuli/images/PICTURE_405.png,PLENTY,57cde6e36736cf0001b326e4,08/02/1990,2020-09-02_08h28.11.446,proactive3.2,2020.1.2,Win32,60,5f47c0b9b035471e11593a5c,5f4f81a4275a7403ec8ca83c,5,,,,,,anchor,,,,,,0,37,37,23,1,3,1,,,,,,,,,,,,,,,,,,,,,,,,,,,,,,,,,,,,,,,,,,,,,,,,,,,,,,,,,,,,,,,,,,,,,,,,,,,
,,,,,,,,,,stimuli/images/PICTURE_85.png,TOILET,57cde6e36736cf0001b326e4,08/02/1990,2020-09-02_08h28.11.446,proactive3.2,2020.1.2,Win32,60,5f47c0b9b035471e11593a5c,5f4f81a4275a7403ec8ca83c,5,,,,,,diamond,,,,,,0,38,38,48,1,5,1,,,,,,,,,,,,,,,,,,,,,,,,,,,,,,,,,,,,,,,,,,,,,,,,,,,,,,,,,,,,,,,,,,,,,,,,,,,
,,,,,,,,,,stimuli/images/PICTURE_655.png,TOILET,57cde6e36736cf0001b326e4,08/02/1990,2020-09-02_08h28.11.446,proactive3.2,2020.1.2,Win32,60,5f47c0b9b035471e11593a5c,5f4f81a4275a7403ec8ca83c,5,,,,,,megaphone,,,,,,0,39,39,12,1,2,1,,,,,,,,,,,,,,,,,,,,,,,,,,,,,,,,,,,,,,,,,,,,,,,,,,,,,,,,,,,,,,,,,,,,,,,,,,,
,,,,,,,,,,stimuli/images/PICTURE_327.png,CASINO,57cde6e36736cf0001b326e4,08/02/1990,2020-09-02_08h28.11.446,proactive3.2,2020.1.2,Win32,60,5f47c0b9b035471e11593a5c,5f4f81a4275a7403ec8ca83c,5,,,,,,helmet,,,,,,0,40,40,20,1,3,1,,,,,,,,,,,,,,,,,,,,,,,,,,,,,,,,,,,,,,,,,,,,,,,,,,,,,,,,,,,,,,,,,,,,,,,,,,,
,,,,,,,,,,stimuli/images/PICTURE_85.png,NATION,57cde6e36736cf0001b326e4,08/02/1990,2020-09-02_08h28.11.446,proactive3.2,2020.1.2,Win32,60,5f47c0b9b035471e11593a5c,5f4f81a4275a7403ec8ca83c,5,,,,,,diamond,,,,,,0,41,41,5,1,1,1,,,,,,,,,,,,,,,,,,,,,,,,,,,,,,,,,,,,,,,,,,,,,,,,,,,,,,,,,,,,,,,,,,,,,,,,,,,
,,,,,,,,,,stimuli/images/PICTURE_327.png,SERIES,57cde6e36736cf0001b326e4,08/02/1990,2020-09-02_08h28.11.446,proactive3.2,2020.1.2,Win32,60,5f47c0b9b035471e11593a5c,5f4f81a4275a7403ec8ca83c,5,,,,,,helmet,,,,,,0,42,42,3,1,1,1,,,,,,,,,,,,,,,,,,,,,,,,,,,,,,,,,,,,,,,,,,,,,,,,,,,,,,,,,,,,,,,,,,,,,,,,,,,
,,,,,,,,,,stimuli/images/PICTURE_203.png,NIGHT,57cde6e36736cf0001b326e4,08/02/1990,2020-09-02_08h28.11.446,proactive3.2,2020.1.2,Win32,60,5f47c0b9b035471e11593a5c,5f4f81a4275a7403ec8ca83c,5,,,,,,cap,,,,,,0,43,43,2,1,1,1,,,,,,,,,,,,,,,,,,,,,,,,,,,,,,,,,,,,,,,,,,,,,,,,,,,,,,,,,,,,,,,,,,,,,,,,,,,
,,,,,,,,,,stimuli/images/PICTURE_296.png,LOTS,57cde6e36736cf0001b326e4,08/02/1990,2020-09-02_08h28.11.446,proactive3.2,2020.1.2,Win32,60,5f47c0b9b035471e11593a5c,5f4f81a4275a7403ec8ca83c,5,,,,,,bolt,,,,,,0,44,44,9,1,1,1,,,,,,,,,,,,,,,,,,,,,,,,,,,,,,,,,,,,,,,,,,,,,,,,,,,,,,,,,,,,,,,,,,,,,,,,,,,
,,,,,,,,,,stimuli/images/PICTURE_504.png,ARTIST,57cde6e36736cf0001b326e4,08/02/1990,2020-09-02_08h28.11.446,proactive3.2,2020.1.2,Win32,60,5f47c0b9b035471e11593a5c,5f4f81a4275a7403ec8ca83c,5,,,,,,wheel,,,,,,0,45,45,49,1,5,1,,,,,,,,,,,,,,,,,,,,,,,,,,,,,,,,,,,,,,,,,,,,,,,,,,,,,,,,,,,,,,,,,,,,,,,,,,,
,,,,,,,,,,stimuli/images/PICTURE_449.png,DUDE,57cde6e36736cf0001b326e4,08/02/1990,2020-09-02_08h28.11.446,proactive3.2,2020.1.2,Win32,60,5f47c0b9b035471e11593a5c,5f4f81a4275a7403ec8ca83c,5,,,,,,bench,,,,,,0,46,46,17,1,2,1,,,,,,,,,,,,,,,,,,,,,,,,,,,,,,,,,,,,,,,,,,,,,,,,,,,,,,,,,,,,,,,,,,,,,,,,,,,
,,,,,,,,,,stimuli/images/PICTURE_383.png,WRITER,57cde6e36736cf0001b326e4,08/02/1990,2020-09-02_08h28.11.446,proactive3.2,2020.1.2,Win32,60,5f47c0b9b035471e11593a5c,5f4f81a4275a7403ec8ca83c,5,,,,,,coin,,,,,,0,47,47,28,1,3,1,,,,,,,,,,,,,,,,,,,,,,,,,,,,,,,,,,,,,,,,,,,,,,,,,,,,,,,,,,,,,,,,,,,,,,,,,,,
,,,,,,,,,,stimuli/images/PICTURE_667.png,RIVER,57cde6e36736cf0001b326e4,08/02/1990,2020-09-02_08h28.11.446,proactive3.2,2020.1.2,Win32,60,5f47c0b9b035471e11593a5c,5f4f81a4275a7403ec8ca83c,5,,,,,,daisy,,,,,,0,48,48,10,1,2,1,,,,,,,,,,,,,,,,,,,,,,,,,,,,,,,,,,,,,,,,,,,,,,,,,,,,,,,,,,,,,,,,,,,,,,,,,,,
,,,,,,,,,,stimuli/images/PICTURE_285.png,LIFE,57cde6e36736cf0001b326e4,08/02/1990,2020-09-02_08h28.11.446,proactive3.2,2020.1.2,Win32,60,5f47c0b9b035471e11593a5c,5f4f81a4275a7403ec8ca83c,5,,,,,,carrot,,,,,,0,49,49,33,1,4,1,,,,,,,,,,,,,,,,,,,,,,,,,,,,,,,,,,,,,,,,,,,,,,,,,,,,,,,,,,,,,,,,,,,,,,,,,,,
,,,,,,,,,,stimuli/images/PICTURE_750.png,HOTEL,57cde6e36736cf0001b326e4,08/02/1990,2020-09-02_08h28.11.446,proactive3.2,2020.1.2,Win32,60,5f47c0b9b035471e11593a5c,5f4f81a4275a7403ec8ca83c,5,,,,,,kettle,,,,,,0,50,50,27,1,3,1,,,,,,,,,,,,,,,,,,,,,,,,,,,,,,,,,,,,,,,,,,,,,,,,,,,,,,,,,,,,,,,,,,,,,,,,,,,
,,,,,,,,,,stimuli/images/PICTURE_340.png,LETTER,57cde6e36736cf0001b326e4,08/02/1990,2020-09-02_08h28.11.446,proactive3.2,2020.1.2,Win32,60,5f47c0b9b035471e11593a5c,5f4f81a4275a7403ec8ca83c,5,,,,,,mirror,,,,,,0,51,51,24,1,3,1,,,,,,,,,,,,,,,,,,,,,,,,,,,,,,,,,,,,,,,,,,,,,,,,,,,,,,,,,,,,,,,,,,,,,,,,,,,
,,,,,,,,,,stimuli/images/PICTURE_491.png,RIVER,57cde6e36736cf0001b326e4,08/02/1990,2020-09-02_08h28.11.446,proactive3.2,2020.1.2,Win32,60,5f47c0b9b035471e11593a5c,5f4f81a4275a7403ec8ca83c,5,,,,,,rug,,,,,,0,52,52,6,1,1,1,,,,,,,,,,,,,,,,,,,,,,,,,,,,,,,,,,,,,,,,,,,,,,,,,,,,,,,,,,,,,,,,,,,,,,,,,,,
,,,,,,,,,,stimuli/images/PICTURE_147.png,WOMEN,57cde6e36736cf0001b326e4,08/02/1990,2020-09-02_08h28.11.446,proactive3.2,2020.1.2,Win32,60,5f47c0b9b035471e11593a5c,5f4f81a4275a7403ec8ca83c,5,,,,,,hanger,,,,,,0,53,53,7,1,1,1,,,,,,,,,,,,,,,,,,,,,,,,,,,,,,,,,,,,,,,,,,,,,,,,,,,,,,,,,,,,,,,,,,,,,,,,,,,
,,,,,,,,,,stimuli/images/PICTURE_108.png,POLICY,57cde6e36736cf0001b326e4,08/02/1990,2020-09-02_08h28.11.446,proactive3.2,2020.1.2,Win32,60,5f47c0b9b035471e11593a5c,5f4f81a4275a7403ec8ca83c,5,,,,,,calendar,,,,,,0,54,54,22,1,3,1,,,,,,,,,,,,,,,,,,,,,,,,,,,,,,,,,,,,,,,,,,,,,,,,,,,,,,,,,,,,,,,,,,,,,,,,,,,
,,,,,,,,,,stimuli/images/PICTURE_297.png,RIVER,57cde6e36736cf0001b326e4,08/02/1990,2020-09-02_08h28.11.446,proactive3.2,2020.1.2,Win32,60,5f47c0b9b035471e11593a5c,5f4f81a4275a7403ec8ca83c,5,,,,,,aeroplane,,,,,,0,55,55,39,1,4,1,,,,,,,,,,,,,,,,,,,,,,,,,,,,,,,,,,,,,,,,,,,,,,,,,,,,,,,,,,,,,,,,,,,,,,,,,,,
,,,,,,,,,,stimuli/images/PICTURE_677.png,APPLE,57cde6e36736cf0001b326e4,08/02/1990,2020-09-02_08h28.11.446,proactive3.2,2020.1.2,Win32,60,5f47c0b9b035471e11593a5c,5f4f81a4275a7403ec8ca83c,5,,,,,,map,,,,,,0,56,56,43,1,5,1,,,,,,,,,,,,,,,,,,,,,,,,,,,,,,,,,,,,,,,,,,,,,,,,,,,,,,,,,,,,,,,,,,,,,,,,,,,
,,,,,,,,,,stimuli/images/PICTURE_469.png,AGENT,57cde6e36736cf0001b326e4,08/02/1990,2020-09-02_08h28.11.446,proactive3.2,2020.1.2,Win32,60,5f47c0b9b035471e11593a5c,5f4f81a4275a7403ec8ca83c,5,,,,,,stool,,,,,,0,57,57,16,1,2,1,,,,,,,,,,,,,,,,,,,,,,,,,,,,,,,,,,,,,,,,,,,,,,,,,,,,,,,,,,,,,,,,,,,,,,,,,,,
,,,,,,,,,,stimuli/images/PICTURE_308.png,FAMILY,57cde6e36736cf0001b326e4,08/02/1990,2020-09-02_08h28.11.446,proactive3.2,2020.1.2,Win32,60,5f47c0b9b035471e11593a5c,5f4f81a4275a7403ec8ca83c,5,,,,,,dice,,,,,,0,58,58,36,1,4,1,,,,,,,,,,,,,,,,,,,,,,,,,,,,,,,,,,,,,,,,,,,,,,,,,,,,,,,,,,,,,,,,,,,,,,,,,,,
,,?,0.00323,0,,,,,,stimuli/images/PICTURE_744.png,WEAPON,57cde6e36736cf0001b326e4,08/02/1990,2020-09-02_08h28.11.446,proactive3.2,2020.1.2,Win32,60,5f47c0b9b035471e11593a5c,5f4f81a4275a7403ec8ca83c,5,,,,,,ring,,,,,,,,,,,6,1,0,0,0,50,1,,,,,,,,,,,,,,,,,,,,,,,,,,,,,,,,,,,,,,,,,,,,,,,,,,,,,,,,,,,,,,,,,,,,,,
,,?,0.004165,0,,,,,,stimuli/images/PICTURE_340.png,VALLEY,57cde6e36736cf0001b326e4,08/02/1990,2020-09-02_08h28.11.446,proactive3.2,2020.1.2,Win32,60,5f47c0b9b035471e11593a5c,5f4f81a4275a7403ec8ca83c,5,,,,,,mirror,,,,,,,,,,,6,1,0,1,1,54,1,,,,,,,,,,,,,,,,,,,,,,,,,,,,,,,,,,,,,,,,,,,,,,,,,,,,,,,,,,,,,,,,,,,,,,
,,?,0.001045,0,,,,,,stimuli/images/PICTURE_340.png,LETTER,57cde6e36736cf0001b326e4,08/02/1990,2020-09-02_08h28.11.446,proactive3.2,2020.1.2,Win32,60,5f47c0b9b035471e11593a5c,5f4f81a4275a7403ec8ca83c,5,,,,,,mirror,,,,,,,,,,,3,1,0,2,2,24,1,,,,,,,,,,,,,,,,,,,,,,,,,,,,,,,,,,,,,,,,,,,,,,,,,,,,,,,,,,,,,,,,,,,,,,
,,?,0.00209,0,,,,,,stimuli/images/PICTURE_449.png,DUDE,57cde6e36736cf0001b326e4,08/02/1990,2020-09-02_08h28.11.446,proactive3.2,2020.1.2,Win32,60,5f47c0b9b035471e11593a5c,5f4f81a4275a7403ec8ca83c,5,,,,,,bench,,,,,,,,,,,2,1,0,3,3,17,1,,,,,,,,,,,,,,,,,,,,,,,,,,,,,,,,,,,,,,,,,,,,,,,,,,,,,,,,,,,,,,,,,,,,,,
,,?,0.001215,0,,,,,,stimuli/images/PICTURE_327.png,SERIES,57cde6e36736cf0001b326e4,08/02/1990,2020-09-02_08h28.11.446,proactive3.2,2020.1.2,Win32,60,5f47c0b9b035471e11593a5c,5f4f81a4275a7403ec8ca83c,5,,,,,,helmet,,,,,,,,,,,1,1,0,4,4,3,1,,,,,,,,,,,,,,,,,,,,,,,,,,,,,,,,,,,,,,,,,,,,,,,,,,,,,,,,,,,,,,,,,,,,,,
,,?,0.00114,0,,,,,,stimuli/images/PICTURE_654.png,MONTH,57cde6e36736cf0001b326e4,08/02/1990,2020-09-02_08h28.11.446,proactive3.2,2020.1.2,Win32,60,5f47c0b9b035471e11593a5c,5f4f81a4275a7403ec8ca83c,5,,,,,,pencil,,,,,,,,,,,3,1,0,5,5,29,1,,,,,,,,,,,,,,,,,,,,,,,,,,,,,,,,,,,,,,,,,,,,,,,,,,,,,,,,,,,,,,,,,,,,,,
,,?,0.00077,0,,,,,,stimuli/images/PICTURE_57.png,MOMENT,57cde6e36736cf0001b326e4,08/02/1990,2020-09-02_08h28.11.446,proactive3.2,2020.1.2,Win32,60,5f47c0b9b035471e11593a5c,5f4f81a4275a7403ec8ca83c,5,,,,,,stamp,,,,,,,,,,,4,1,0,6,6,37,1,,,,,,,,,,,,,,,,,,,,,,,,,,,,,,,,,,,,,,,,,,,,,,,,,,,,,,,,,,,,,,,,,,,,,,
,,TOILET,7.54602,1,,,,,,stimuli/images/PICTURE_85.png,TOILET,57cde6e36736cf0001b326e4,08/02/1990,2020-09-02_08h28.11.446,proactive3.2,2020.1.2,Win32,60,5f47c0b9b035471e11593a5c,5f4f81a4275a7403ec8ca83c,5,,,,,,diamond,,,,,,,,,,,5,1,0,7,7,48,1,,,,,,,,,,,,,,,,,,,,,,,,,,,,,,,,,,,,,,,,,,,,,,,,,,,,,,,,,,,,,,,,,,,,,,
,,?,0.00106,0,,,,,,stimuli/images/PICTURE_203.png,GODS,57cde6e36736cf0001b326e4,08/02/1990,2020-09-02_08h28.11.446,proactive3.2,2020.1.2,Win32,60,5f47c0b9b035471e11593a5c,5f4f81a4275a7403ec8ca83c,5,,,,,,cap,,,,,,,,,,,4,1,0,8,8,30,1,,,,,,,,,,,,,,,,,,,,,,,,,,,,,,,,,,,,,,,,,,,,,,,,,,,,,,,,,,,,,,,,,,,,,,
,,?,0.000605,0,,,,,,stimuli/images/PICTURE_405.png,YEAR,57cde6e36736cf0001b326e4,08/02/1990,2020-09-02_08h28.11.446,proactive3.2,2020.1.2,Win32,60,5f47c0b9b035471e11593a5c,5f4f81a4275a7403ec8ca83c,5,,,,,,anchor,,,,,,,,,,,4,1,0,9,9,34,1,,,,,,,,,,,,,,,,,,,,,,,,,,,,,,,,,,,,,,,,,,,,,,,,,,,,,,,,,,,,,,,,,,,,,,
,,?,3.74242,0,,,,,,stimuli/images/PICTURE_177.png,WRITER,57cde6e36736cf0001b326e4,08/02/1990,2020-09-02_08h28.11.446,proactive3.2,2020.1.2,Win32,60,5f47c0b9b035471e11593a5c,5f4f81a4275a7403ec8ca83c,5,,,,,,mushroom,,,,,,,,,,,5,1,0,10,10,41,1,,,,,,,,,,,,,,,,,,,,,,,,,,,,,,,,,,,,,,,,,,,,,,,,,,,,,,,,,,,,,,,,,,,,,,
,,?,1.26609,0,,,,,,stimuli/images/PICTURE_504.png,ARTIST,57cde6e36736cf0001b326e4,08/02/1990,2020-09-02_08h28.11.446,proactive3.2,2020.1.2,Win32,60,5f47c0b9b035471e11593a5c,5f4f81a4275a7403ec8ca83c,5,,,,,,wheel,,,,,,,,,,,5,1,0,11,11,49,1,,,,,,,,,,,,,,,,,,,,,,,,,,,,,,,,,,,,,,,,,,,,,,,,,,,,,,,,,,,,,,,,,,,,,,
,,?,0.00084,0,,,,,,stimuli/images/PICTURE_85.png,NATION,57cde6e36736cf0001b326e4,08/02/1990,2020-09-02_08h28.11.446,proactive3.2,2020.1.2,Win32,60,5f47c0b9b035471e11593a5c,5f4f81a4275a7403ec8ca83c,5,,,,,,diamond,,,,,,,,,,,1,1,0,12,12,5,1,,,,,,,,,,,,,,,,,,,,,,,,,,,,,,,,,,,,,,,,,,,,,,,,,,,,,,,,,,,,,,,,,,,,,,
,,?,0.00066,0,,,,,,stimuli/images/PICTURE_504.png,COPS,57cde6e36736cf0001b326e4,08/02/1990,2020-09-02_08h28.11.446,proactive3.2,2020.1.2,Win32,60,5f47c0b9b035471e11593a5c,5f4f81a4275a7403ec8ca83c,5,,,,,,wheel,,,,,,,,,,,6,1,0,13,13,52,1,,,,,,,,,,,,,,,,,,,,,,,,,,,,,,,,,,,,,,,,,,,,,,,,,,,,,,,,,,,,,,,,,,,,,,
,,?,0.002285,0,,,,,,stimuli/images/PICTURE_285.png,LIFE,57cde6e36736cf0001b326e4,08/02/1990,2020-09-02_08h28.11.446,proactive3.2,2020.1.2,Win32,60,5f47c0b9b035471e11593a5c,5f4f81a4275a7403ec8ca83c,5,,,,,,carrot,,,,,,,,,,,4,1,0,14,14,33,1,,,,,,,,,,,,,,,,,,,,,,,,,,,,,,,,,,,,,,,,,,,,,,,,,,,,,,,,,,,,,,,,,,,,,,
,,?,0.00066,0,,,,,,stimuli/images/PICTURE_147.png,YEAR,57cde6e36736cf0001b326e4,08/02/1990,2020-09-02_08h28.11.446,proactive3.2,2020.1.2,Win32,60,5f47c0b9b035471e11593a5c,5f4f81a4275a7403ec8ca83c,5,,,,,,hanger,,,,,,,,,,,3,1,0,15,15,21,1,,,,,,,,,,,,,,,,,,,,,,,,,,,,,,,,,,,,,,,,,,,,,,,,,,,,,,,,,,,,,,,,,,,,,,
,,?,0.000635,0,,,,,,stimuli/images/PICTURE_32.png,PILLS,57cde6e36736cf0001b326e4,08/02/1990,2020-09-02_08h28.11.446,proactive3.2,2020.1.2,Win32,60,5f47c0b9b035471e11593a5c,5f4f81a4275a7403ec8ca83c,5,,,,,,crown,,,,,,,,,,,2,1,0,16,16,18,1,,,,,,,,,,,,,,,,,,,,,,,,,,,,,,,,,,,,,,,,,,,,,,,,,,,,,,,,,,,,,,,,,,,,,,
,,?,0.00092,0,,,,,,stimuli/images/PICTURE_667.png,RIVER,57cde6e36736cf0001b326e4,08/02/1990,2020-09-02_08h28.11.446,proactive3.2,2020.1.2,Win32,60,5f47c0b9b035471e11593a5c,5f4f81a4275a7403ec8ca83c,5,,,,,,daisy,,,,,,,,,,,2,1,0,17,17,10,1,,,,,,,,,,,,,,,,,,,,,,,,,,,,,,,,,,,,,,,,,,,,,,,,,,,,,,,,,,,,,,,,,,,,,,
,,?,0.001425,0,,,,,,stimuli/images/PICTURE_108.png,POLICY,57cde6e36736cf0001b326e4,08/02/1990,2020-09-02_08h28.11.446,proactive3.2,2020.1.2,Win32,60,5f47c0b9b035471e11593a5c,5f4f81a4275a7403ec8ca83c,5,,,,,,calendar,,,,,,,,,,,3,1,0,18,18,22,1,,,,,,,,,,,,,,,,,,,,,,,,,,,,,,,,,,,,,,,,,,,,,,,,,,,,,,,,,,,,,,,,,,,,,,
,,?,1.79933,0,,,,,,stimuli/images/PICTURE_675.png,SALE,57cde6e36736cf0001b326e4,08/02/1990,2020-09-02_08h28.11.446,proactive3.2,2020.1.2,Win32,60,5f47c0b9b035471e11593a5c,5f4f81a4275a7403ec8ca83c,5,,,,,,windmill,,,,,,,,,,,5,1,0,19,19,47,1,,,,,,,,,,,,,,,,,,,,,,,,,,,,,,,,,,,,,,,,,,,,,,,,,,,,,,,,,,,,,,,,,,,,,,
,,?,0.000695,0,,,,,,stimuli/images/PICTURE_491.png,GLASS,57cde6e36736cf0001b326e4,08/02/1990,2020-09-02_08h28.11.446,proactive3.2,2020.1.2,Win32,60,5f47c0b9b035471e11593a5c,5f4f81a4275a7403ec8ca83c,5,,,,,,rug,,,,,,,,,,,2,1,0,20,20,14,1,,,,,,,,,,,,,,,,,,,,,,,,,,,,,,,,,,,,,,,,,,,,,,,,,,,,,,,,,,,,,,,,,,,,,,
,,?,0.00078,0,,,,,,stimuli/images/PICTURE_68.png,MILE,57cde6e36736cf0001b326e4,08/02/1990,2020-09-02_08h28.11.446,proactive3.2,2020.1.2,Win32,60,5f47c0b9b035471e11593a5c,5f4f81a4275a7403ec8ca83c,5,,,,,,candle,,,,,,,,,,,6,1,0,21,21,51,1,,,,,,,,,,,,,,,,,,,,,,,,,,,,,,,,,,,,,,,,,,,,,,,,,,,,,,,,,,,,,,,,,,,,,,
,,?,1.264285,0,,,,,,stimuli/images/PICTURE_233.png,LOTS,57cde6e36736cf0001b326e4,08/02/1990,2020-09-02_08h28.11.446,proactive3.2,2020.1.2,Win32,60,5f47c0b9b035471e11593a5c,5f4f81a4275a7403ec8ca83c,5,,,,,,salt,,,,,,,,,,,5,1,0,22,22,42,1,,,,,,,,,,,,,,,,,,,,,,,,,,,,,,,,,,,,,,,,,,,,,,,,,,,,,,,,,,,,,,,,,,,,,,
,,?,0.00087,0,,,,,,stimuli/images/PICTURE_491.png,RIVER,57cde6e36736cf0001b326e4,08/02/1990,2020-09-02_08h28.11.446,proactive3.2,2020.1.2,Win32,60,5f47c0b9b035471e11593a5c,5f4f81a4275a7403ec8ca83c,5,,,,,,rug,,,,,,,,,,,1,1,0,23,23,6,1,,,,,,,,,,,,,,,,,,,,,,,,,,,,,,,,,,,,,,,,,,,,,,,,,,,,,,,,,,,,,,,,,,,,,,
,,?,1.1282,0,,,,,,stimuli/images/PICTURE_403.png,RIVER,57cde6e36736cf0001b326e4,08/02/1990,2020-09-02_08h28.11.446,proactive3.2,2020.1.2,Win32,60,5f47c0b9b035471e11593a5c,5f4f81a4275a7403ec8ca83c,5,,,,,,cathedral,,,,,,,,,,,5,1,0,24,24,40,1,,,,,,,,,,,,,,,,,,,,,,,,,,,,,,,,,,,,,,,,,,,,,,,,,,,,,,,,,,,,,,,,,,,,,,
,,?,0.00104,0,,,,,,stimuli/images/PICTURE_108.png,FLIGHT,57cde6e36736cf0001b326e4,08/02/1990,2020-09-02_08h28.11.446,proactive3.2,2020.1.2,Win32,60,5f47c0b9b035471e11593a5c,5f4f81a4275a7403ec8ca83c,5,,,,,,calendar,,,,,,,,,,,6,1,0,25,25,59,1,,,,,,,,,,,,,,,,,,,,,,,,,,,,,,,,,,,,,,,,,,,,,,,,,,,,,,,,,,,,,,,,,,,,,,
,,?,0.000615,0,,,,,,stimuli/images/PICTURE_203.png,NIGHT,57cde6e36736cf0001b326e4,08/02/1990,2020-09-02_08h28.11.446,proactive3.2,2020.1.2,Win32,60,5f47c0b9b035471e11593a5c,5f4f81a4275a7403ec8ca83c,5,,,,,,cap,,,,,,,,,,,1,1,0,26,26,2,1,,,,,,,,,,,,,,,,,,,,,,,,,,,,,,,,,,,,,,,,,,,,,,,,,,,,,,,,,,,,,,,,,,,,,,
,,?,0.00261,0,,,,,,stimuli/images/PICTURE_504.png,YEAR,57cde6e36736cf0001b326e4,08/02/1990,2020-09-02_08h28.11.446,proactive3.2,2020.1.2,Win32,60,5f47c0b9b035471e11593a5c,5f4f81a4275a7403ec8ca83c,5,,,,,,wheel,,,,,,,,,,,2,1,0,27,27,13,1,,,,,,,,,,,,,,,,,,,,,,,,,,,,,,,,,,,,,,,,,,,,,,,,,,,,,,,,,,,,,,,,,,,,,,
,,?,0.000635,0,,,,,,stimuli/images/PICTURE_32.png,KIND,57cde6e36736cf0001b326e4,08/02/1990,2020-09-02_08h28.11.446,proactive3.2,2020.1.2,Win32,60,5f47c0b9b035471e11593a5c,5f4f81a4275a7403ec8ca83c,5,,,,,,crown,,,,,,,,,,,4,1,0,28,28,35,1,,,,,,,,,,,,,,,,,,,,,,,,,,,,,,,,,,,,,,,,,,,,,,,,,,,,,,,,,,,,,,,,,,,,,,
,,?,0.000695,0,,,,,,stimuli/images/PICTURE_564.png,BATH,57cde6e36736cf0001b326e4,08/02/1990,2020-09-02_08h28.11.446,proactive3.2,2020.1.2,Win32,60,5f47c0b9b035471e11593a5c,5f4f81a4275a7403ec8ca83c,5,,,,,,spoon,,,,,,,,,,,3,1,0,29,29,26,1,,,,,,,,,,,,,,,,,,,,,,,,,,,,,,,,,,,,,,,,,,,,,,,,,,,,,,,,,,,,,,,,,,,,,,
,,?,0.00082,0,,,,,,stimuli/images/PICTURE_95.png,BOYS,57cde6e36736cf0001b326e4,08/02/1990,2020-09-02_08h28.11.446,proactive3.2,2020.1.2,Win32,60,5f47c0b9b035471e11593a5c,5f4f81a4275a7403ec8ca83c,5,,,,,,suitcase,,,,,,,,,,,1,1,0,30,30,1,1,,,,,,,,,,,,,,,,,,,,,,,,,,,,,,,,,,,,,,,,,,,,,,,,,,,,,,,,,,,,,,,,,,,,,,
,,?,0.002355,0,,,,,,stimuli/images/PICTURE_708.png,RECORD,57cde6e36736cf0001b326e4,08/02/1990,2020-09-02_08h28.11.446,proactive3.2,2020.1.2,Win32,60,5f47c0b9b035471e11593a5c,5f4f81a4275a7403ec8ca83c,5,,,,,,monkey,,,,,,,,,,,6,1,0,31,31,58,1,,,,,,,,,,,,,,,,,,,,,,,,,,,,,,,,,,,,,,,,,,,,,,,,,,,,,,,,,,,,,,,,,,,,,,
,,?,1.14633,0,,,,,,stimuli/images/PICTURE_487.png,GIRL,57cde6e36736cf0001b326e4,08/02/1990,2020-09-02_08h28.11.446,proactive3.2,2020.1.2,Win32,60,5f47c0b9b035471e11593a5c,5f4f81a4275a7403ec8ca83c,5,,,,,,basket,,,,,,,,,,,5,1,0,32,32,45,1,,,,,,,,,,,,,,,,,,,,,,,,,,,,,,,,,,,,,,,,,,,,,,,,,,,,,,,,,,,,,,,,,,,,,,
,,?,0.000735,0,,,,,,stimuli/images/PICTURE_380.png,HONEY,57cde6e36736cf0001b326e4,08/02/1990,2020-09-02_08h28.11.446,proactive3.2,2020.1.2,Win32,60,5f47c0b9b035471e11593a5c,5f4f81a4275a7403ec8ca83c,5,,,,,,gorilla,,,,,,,,,,,2,1,0,33,33,19,1,,,,,,,,,,,,,,,,,,,,,,,,,,,,,,,,,,,,,,,,,,,,,,,,,,,,,,,,,,,,,,,,,,,,,,
,,?,0.00154,0,,,,,,stimuli/images/PICTURE_327.png,CASINO,57cde6e36736cf0001b326e4,08/02/1990,2020-09-02_08h28.11.446,proactive3.2,2020.1.2,Win32,60,5f47c0b9b035471e11593a5c,5f4f81a4275a7403ec8ca83c,5,,,,,,helmet,,,,,,,,,,,3,1,0,34,34,20,1,,,,,,,,,,,,,,,,,,,,,,,,,,,,,,,,,,,,,,,,,,,,,,,,,,,,,,,,,,,,,,,,,,,,,,
,,?,0.000805,0,,,,,,stimuli/images/PICTURE_2.png,FLIGHT,57cde6e36736cf0001b326e4,08/02/1990,2020-09-02_08h28.11.446,proactive3.2,2020.1.2,Win32,60,5f47c0b9b035471e11593a5c,5f4f81a4275a7403ec8ca83c,5,,,,,,tyre,,,,,,,,,,,2,1,0,35,35,15,1,,,,,,,,,,,,,,,,,,,,,,,,,,,,,,,,,,,,,,,,,,,,,,,,,,,,,,,,,,,,,,,,,,,,,,
,,?,0.00068,0,,,,,,stimuli/images/PICTURE_339.png,CLIENT,57cde6e36736cf0001b326e4,08/02/1990,2020-09-02_08h28.11.446,proactive3.2,2020.1.2,Win32,60,5f47c0b9b035471e11593a5c,5f4f81a4275a7403ec8ca83c,5,,,,,,backpack,,,,,,,,,,,2,1,0,36,36,11,1,,,,,,,,,,,,,,,,,,,,,,,,,,,,,,,,,,,,,,,,,,,,,,,,,,,,,,,,,,,,,,,,,,,,,,
,,?,1.403315,0,,,,,,stimuli/images/PICTURE_383.png,SERIES,57cde6e36736cf0001b326e4,08/02/1990,2020-09-02_08h28.11.446,proactive3.2,2020.1.2,Win32,60,5f47c0b9b035471e11593a5c,5f4f81a4275a7403ec8ca83c,5,,,,,,coin,,,,,,,,,,,5,1,0,37,37,46,1,,,,,,,,,,,,,,,,,,,,,,,,,,,,,,,,,,,,,,,,,,,,,,,,,,,,,,,,,,,,,,,,,,,,,,
,,?,0.00081,0,,,,,,stimuli/images/PICTURE_383.png,WRITER,57cde6e36736cf0001b326e4,08/02/1990,2020-09-02_08h28.11.446,proactive3.2,2020.1.2,Win32,60,5f47c0b9b035471e11593a5c,5f4f81a4275a7403ec8ca83c,5,,,,,,coin,,,,,,,,,,,3,1,0,38,38,28,1,,,,,,,,,,,,,,,,,,,,,,,,,,,,,,,,,,,,,,,,,,,,,,,,,,,,,,,,,,,,,,,,,,,,,,
,,?,0.000615,0,,,,,,stimuli/images/PICTURE_33.png,FRIEND,57cde6e36736cf0001b326e4,08/02/1990,2020-09-02_08h28.11.446,proactive3.2,2020.1.2,Win32,60,5f47c0b9b035471e11593a5c,5f4f81a4275a7403ec8ca83c,5,,,,,,frame,,,,,,,,,,,1,1,0,39,39,8,1,,,,,,,,,,,,,,,,,,,,,,,,,,,,,,,,,,,,,,,,,,,,,,,,,,,,,,,,,,,,,,,,,,,,,,
,,?,0.000575,0,,,,,,stimuli/images/PICTURE_403.png,TOILET,57cde6e36736cf0001b326e4,08/02/1990,2020-09-02_08h28.11.446,proactive3.2,2020.1.2,Win32,60,5f47c0b9b035471e11593a5c,5f4f81a4275a7403ec8ca83c,5,,,,,,cathedral,,,,,,,,,,,3,1,0,40,40,25,1,,,,,,,,,,,,,,,,,,,,,,,,,,,,,,,,,,,,,,,,,,,,,,,,,,,,,,,,,,,,,,,,,,,,,,
,,?,0.000595,0,,,,,,stimuli/images/PICTURE_403.png,WRITER,57cde6e36736cf0001b326e4,08/02/1990,2020-09-02_08h28.11.446,proactive3.2,2020.1.2,Win32,60,5f47c0b9b035471e11593a5c,5f4f81a4275a7403ec8ca83c,5,,,,,,cathedral,,,,,,,,,,,4,1,0,41,41,31,1,,,,,,,,,,,,,,,,,,,,,,,,,,,,,,,,,,,,,,,,,,,,,,,,,,,,,,,,,,,,,,,,,,,,,,
,,?,1.16001,0,,,,,,stimuli/images/PICTURE_95.png,HONEY,57cde6e36736cf0001b326e4,08/02/1990,2020-09-02_08h28.11.446,proactive3.2,2020.1.2,Win32,60,5f47c0b9b035471e11593a5c,5f4f81a4275a7403ec8ca83c,5,,,,,,suitcase,,,,,,,,,,,5,1,0,42,42,44,1,,,,,,,,,,,,,,,,,,,,,,,,,,,,,,,,,,,,,,,,,,,,,,,,,,,,,,,,,,,,,,,,,,,,,,
,,?,0.001895,0,,,,,,stimuli/images/PICTURE_297.png,RIVER,57cde6e36736cf0001b326e4,08/02/1990,2020-09-02_08h28.11.446,proactive3.2,2020.1.2,Win32,60,5f47c0b9b035471e11593a5c,5f4f81a4275a7403ec8ca83c,5,,,,,,aeroplane,,,,,,,,,,,4,1,0,43,43,39,1,,,,,,,,,,,,,,,,,,,,,,,,,,,,,,,,,,,,,,,,,,,,,,,,,,,,,,,,,,,,,,,,,,,,,,
,,?,0.000915,0,,,,,,stimuli/images/PICTURE_655.png,TOILET,57cde6e36736cf0001b326e4,08/02/1990,2020-09-02_08h28.11.446,proactive3.2,2020.1.2,Win32,60,5f47c0b9b035471e11593a5c,5f4f81a4275a7403ec8ca83c,5,,,,,,megaphone,,,,,,,,,,,2,1,0,44,44,12,1,,,,,,,,,,,,,,,,,,,,,,,,,,,,,,,,,,,,,,,,,,,,,,,,,,,,,,,,,,,,,,,,,,,,,,
,,?,0.00103,0,,,,,,stimuli/images/PICTURE_95.png,MILLER,57cde6e36736cf0001b326e4,08/02/1990,2020-09-02_08h28.11.446,proactive3.2,2020.1.2,Win32,60,5f47c0b9b035471e11593a5c,5f4f81a4275a7403ec8ca83c,5,,,,,,suitcase,,,,,,,,,,,6,1,0,45,45,56,1,,,,,,,,,,,,,,,,,,,,,,,,,,,,,,,,,,,,,,,,,,,,,,,,,,,,,,,,,,,,,,,,,,,,,,
,,?,0.000575,0,,,,,,stimuli/images/PICTURE_380.png,CANDY,57cde6e36736cf0001b326e4,08/02/1990,2020-09-02_08h28.11.446,proactive3.2,2020.1.2,Win32,60,5f47c0b9b035471e11593a5c,5f4f81a4275a7403ec8ca83c,5,,,,,,gorilla,,,,,,,,,,,1,1,0,46,46,0,1,,,,,,,,,,,,,,,,,,,,,,,,,,,,,,,,,,,,,,,,,,,,,,,,,,,,,,,,,,,,,,,,,,,,,,
,,?,0.000625,0,,,,,,stimuli/images/PICTURE_296.png,LIFE,57cde6e36736cf0001b326e4,08/02/1990,2020-09-02_08h28.11.446,proactive3.2,2020.1.2,Win32,60,5f47c0b9b035471e11593a5c,5f4f81a4275a7403ec8ca83c,5,,,,,,bolt,,,,,,,,,,,6,1,0,47,47,57,1,,,,,,,,,,,,,,,,,,,,,,,,,,,,,,,,,,,,,,,,,,,,,,,,,,,,,,,,,,,,,,,,,,,,,,
,,?,1.387595,0,,,,,,stimuli/images/PICTURE_677.png,APPLE,57cde6e36736cf0001b326e4,08/02/1990,2020-09-02_08h28.11.446,proactive3.2,2020.1.2,Win32,60,5f47c0b9b035471e11593a5c,5f4f81a4275a7403ec8ca83c,5,,,,,,map,,,,,,,,,,,5,1,0,48,48,43,1,,,,,,,,,,,,,,,,,,,,,,,,,,,,,,,,,,,,,,,,,,,,,,,,,,,,,,,,,,,,,,,,,,,,,,
,,?,0.001065,0,,,,,,stimuli/images/PICTURE_308.png,FAMILY,57cde6e36736cf0001b326e4,08/02/1990,2020-09-02_08h28.11.446,proactive3.2,2020.1.2,Win32,60,5f47c0b9b035471e11593a5c,5f4f81a4275a7403ec8ca83c,5,,,,,,dice,,,,,,,,,,,4,1,0,49,49,36,1,,,,,,,,,,,,,,,,,,,,,,,,,,,,,,,,,,,,,,,,,,,,,,,,,,,,,,,,,,,,,,,,,,,,,,
,,?,0.000685,0,,,,,,stimuli/images/PICTURE_296.png,LOTS,57cde6e36736cf0001b326e4,08/02/1990,2020-09-02_08h28.11.446,proactive3.2,2020.1.2,Win32,60,5f47c0b9b035471e11593a5c,5f4f81a4275a7403ec8ca83c,5,,,,,,bolt,,,,,,,,,,,1,1,0,50,50,9,1,,,,,,,,,,,,,,,,,,,,,,,,,,,,,,,,,,,,,,,,,,,,,,,,,,,,,,,,,,,,,,,,,,,,,,
,,?,0.00082,0,,,,,,stimuli/images/PICTURE_208.png,SYSTEM,57cde6e36736cf0001b326e4,08/02/1990,2020-09-02_08h28.11.446,proactive3.2,2020.1.2,Win32,60,5f47c0b9b035471e11593a5c,5f4f81a4275a7403ec8ca83c,5,,,,,,microphone,,,,,,,,,,,4,1,0,51,51,32,1,,,,,,,,,,,,,,,,,,,,,,,,,,,,,,,,,,,,,,,,,,,,,,,,,,,,,,,,,,,,,,,,,,,,,,
,,?,0.000625,0,,,,,,stimuli/images/PICTURE_685.png,PENNY,57cde6e36736cf0001b326e4,08/02/1990,2020-09-02_08h28.11.446,proactive3.2,2020.1.2,Win32,60,5f47c0b9b035471e11593a5c,5f4f81a4275a7403ec8ca83c,5,,,,,,goose,,,,,,,,,,,1,1,0,52,52,4,1,,,,,,,,,,,,,,,,,,,,,,,,,,,,,,,,,,,,,,,,,,,,,,,,,,,,,,,,,,,,,,,,,,,,,,
,,?,0.000645,0,,,,,,stimuli/images/PICTURE_750.png,HOTEL,57cde6e36736cf0001b326e4,08/02/1990,2020-09-02_08h28.11.446,proactive3.2,2020.1.2,Win32,60,5f47c0b9b035471e11593a5c,5f4f81a4275a7403ec8ca83c,5,,,,,,kettle,,,,,,,,,,,3,1,0,53,53,27,1,,,,,,,,,,,,,,,,,,,,,,,,,,,,,,,,,,,,,,,,,,,,,,,,,,,,,,,,,,,,,,,,,,,,,,
,,?,0.000695,0,,,,,,stimuli/images/PICTURE_68.png,ROOF,57cde6e36736cf0001b326e4,08/02/1990,2020-09-02_08h28.11.446,proactive3.2,2020.1.2,Win32,60,5f47c0b9b035471e11593a5c,5f4f81a4275a7403ec8ca83c,5,,,,,,candle,,,,,,,,,,,4,1,0,54,54,38,1,,,,,,,,,,,,,,,,,,,,,,,,,,,,,,,,,,,,,,,,,,,,,,,,,,,,,,,,,,,,,,,,,,,,,,
,,?,0.000565,0,,,,,,stimuli/images/PICTURE_469.png,AGENT,57cde6e36736cf0001b326e4,08/02/1990,2020-09-02_08h28.11.446,proactive3.2,2020.1.2,Win32,60,5f47c0b9b035471e11593a5c,5f4f81a4275a7403ec8ca83c,5,,,,,,stool,,,,,,,,,,,2,1,0,55,55,16,1,,,,,,,,,,,,,,,,,,,,,,,,,,,,,,,,,,,,,,,,,,,,,,,,,,,,,,,,,,,,,,,,,,,,,,
,,?,0.00155,0,,,,,,stimuli/images/PICTURE_405.png,PLENTY,57cde6e36736cf0001b326e4,08/02/1990,2020-09-02_08h28.11.446,proactive3.2,2020.1.2,Win32,60,5f47c0b9b035471e11593a5c,5f4f81a4275a7403ec8ca83c,5,,,,,,anchor,,,,,,,,,,,3,1,0,56,56,23,1,,,,,,,,,,,,,,,,,,,,,,,,,,,,,,,,,,,,,,,,,,,,,,,,,,,,,,,,,,,,,,,,,,,,,,
,,?,0.00062,0,,,,,,stimuli/images/PICTURE_147.png,WOMEN,57cde6e36736cf0001b326e4,08/02/1990,2020-09-02_08h28.11.446,proactive3.2,2020.1.2,Win32,60,5f47c0b9b035471e11593a5c,5f4f81a4275a7403ec8ca83c,5,,,,,,hanger,,,,,,,,,,,1,1,0,57,57,7,1,,,,,,,,,,,,,,,,,,,,,,,,,,,,,,,,,,,,,,,,,,,,,,,,,,,,,,,,,,,,,,,,,,,,,,
,,?,0.000565,0,,,,,,stimuli/images/PICTURE_42.png,BOYS,57cde6e36736cf0001b326e4,08/02/1990,2020-09-02_08h28.11.446,proactive3.2,2020.1.2,Win32,60,5f47c0b9b035471e11593a5c,5f4f81a4275a7403ec8ca83c,5,,,,,,pear,,,,,,,,,,,6,1,0,58,58,55,1,,,,,,,,,,,,,,,,,,,,,,,,,,,,,,,,,,,,,,,,,,,,,,,,,,,,,,,,,,,,,,,,,,,,,,
,,?,0.00093,0,,,,,,stimuli/images/PICTURE_467.png,POLICY,57cde6e36736cf0001b326e4,08/02/1990,2020-09-02_08h28.11.446,proactive3.2,2020.1.2,Win32,60,5f47c0b9b035471e11593a5c,5f4f81a4275a7403ec8ca83c,5,,,,,,peg,,,,,,,,,,,6,1,0,59,59,53,1,,,,,,,,,,,,,,,,,,,,,,,,,,,,,,,,,,,,,,,,,,,,,,,,,,,,,,,,,,,,,,,,,,,,,,
,,,,,,,,,,,,57cde6e36736cf0001b326e4,08/02/1990,2020-09-02_08h28.11.446,proactive3.2,2020.1.2,Win32,60,5f47c0b9b035471e11593a5c,5f4f81a4275a7403ec8ca83c,5,,,,,,,,,,,,,,,,,,,,,,,,0,0,0,1,1,stimuli/learn-block2.csv,,,,,,,,,,,,,,,,,,,,,,,,,,,,,,,,,,,,,,,,,,,,,,,,,,,,,,,,,,,,,,,,
,,,,,,,,,,stimuli/images/PICTURE_487.png,ROOF,57cde6e36736cf0001b326e4,08/02/1990,2020-09-02_08h28.11.446,proactive3.2,2020.1.2,Win32,60,5f47c0b9b035471e11593a5c,5f4f81a4275a7403ec8ca83c,5,,,,,,basket,,,,,,0,0,0,50,1,6,2,,,,,,,,,,,,,,,,,,,,,,,,,,,,,,,,,,,,,,,,,,,,,,,,,,,,,,,,,,,,,,,,,,,,,,,,,,,
,,,,,,,,,,stimuli/images/PICTURE_215.png,BOYS,57cde6e36736cf0001b326e4,08/02/1990,2020-09-02_08h28.11.446,proactive3.2,2020.1.2,Win32,60,5f47c0b9b035471e11593a5c,5f4f81a4275a7403ec8ca83c,5,,,,,,boot,,,,,,0,1,1,24,1,3,2,,,,,,,,,,,,,,,,,,,,,,,,,,,,,,,,,,,,,,,,,,,,,,,,,,,,,,,,,,,,,,,,,,,,,,,,,,,
,,,,,,,,,,stimuli/images/PICTURE_33.png,COPS,57cde6e36736cf0001b326e4,08/02/1990,2020-09-02_08h28.11.446,proactive3.2,2020.1.2,Win32,60,5f47c0b9b035471e11593a5c,5f4f81a4275a7403ec8ca83c,5,,,,,,frame,,,,,,0,2,2,29,1,3,2,,,,,,,,,,,,,,,,,,,,,,,,,,,,,,,,,,,,,,,,,,,,,,,,,,,,,,,,,,,,,,,,,,,,,,,,,,,
,,,,,,,,,,stimuli/images/PICTURE_708.png,VALLEY,57cde6e36736cf0001b326e4,08/02/1990,2020-09-02_08h28.11.446,proactive3.2,2020.1.2,Win32,60,5f47c0b9b035471e11593a5c,5f4f81a4275a7403ec8ca83c,5,,,,,,monkey,,,,,,0,3,3,45,1,5,2,,,,,,,,,,,,,,,,,,,,,,,,,,,,,,,,,,,,,,,,,,,,,,,,,,,,,,,,,,,,,,,,,,,,,,,,,,,
,,,,,,,,,,stimuli/images/PICTURE_470.png,MOMENT,57cde6e36736cf0001b326e4,08/02/1990,2020-09-02_08h28.11.446,proactive3.2,2020.1.2,Win32,60,5f47c0b9b035471e11593a5c,5f4f81a4275a7403ec8ca83c,5,,,,,,motorbike,,,,,,0,4,4,40,1,5,2,,,,,,,,,,,,,,,,,,,,,,,,,,,,,,,,,,,,,,,,,,,,,,,,,,,,,,,,,,,,,,,,,,,,,,,,,,,
,,,,,,,,,,stimuli/images/PICTURE_327.png,LEADER,57cde6e36736cf0001b326e4,08/02/1990,2020-09-02_08h28.11.446,proactive3.2,2020.1.2,Win32,60,5f47c0b9b035471e11593a5c,5f4f81a4275a7403ec8ca83c,5,,,,,,helmet,,,,,,0,5,5,17,1,2,2,,,,,,,,,,,,,,,,,,,,,,,,,,,,,,,,,,,,,,,,,,,,,,,,,,,,,,,,,,,,,,,,,,,,,,,,,,,
,,,,,,,,,,stimuli/images/PICTURE_348.png,TOILET,57cde6e36736cf0001b326e4,08/02/1990,2020-09-02_08h28.11.446,proactive3.2,2020.1.2,Win32,60,5f47c0b9b035471e11593a5c,5f4f81a4275a7403ec8ca83c,5,,,,,,pepper,,,,,,0,6,6,4,1,1,2,,,,,,,,,,,,,,,,,,,,,,,,,,,,,,,,,,,,,,,,,,,,,,,,,,,,,,,,,,,,,,,,,,,,,,,,,,,
,,,,,,,,,,stimuli/images/PICTURE_509.png,MILLER,57cde6e36736cf0001b326e4,08/02/1990,2020-09-02_08h28.11.446,proactive3.2,2020.1.2,Win32,60,5f47c0b9b035471e11593a5c,5f4f81a4275a7403ec8ca83c,5,,,,,,telephone,,,,,,0,7,7,49,1,5,2,,,,,,,,,,,,,,,,,,,,,,,,,,,,,,,,,,,,,,,,,,,,,,,,,,,,,,,,,,,,,,,,,,,,,,,,,,,
,,,,,,,,,,stimuli/images/PICTURE_348.png,DUDE,57cde6e36736cf0001b326e4,08/02/1990,2020-09-02_08h28.11.446,proactive3.2,2020.1.2,Win32,60,5f47c0b9b035471e11593a5c,5f4f81a4275a7403ec8ca83c,5,,,,,,pepper,,,,,,0,8,8,59,1,6,2,,,,,,,,,,,,,,,,,,,,,,,,,,,,,,,,,,,,,,,,,,,,,,,,,,,,,,,,,,,,,,,,,,,,,,,,,,,
,,,,,,,,,,stimuli/images/PICTURE_2.png,YARD,57cde6e36736cf0001b326e4,08/02/1990,2020-09-02_08h28.11.446,proactive3.2,2020.1.2,Win32,60,5f47c0b9b035471e11593a5c,5f4f81a4275a7403ec8ca83c,5,,,,,,tyre,,,,,,0,9,9,55,1,6,2,,,,,,,,,,,,,,,,,,,,,,,,,,,,,,,,,,,,,,,,,,,,,,,,,,,,,,,,,,,,,,,,,,,,,,,,,,,
,,,,,,,,,,stimuli/images/PICTURE_57.png,NATION,57cde6e36736cf0001b326e4,08/02/1990,2020-09-02_08h28.11.446,proactive3.2,2020.1.2,Win32,60,5f47c0b9b035471e11593a5c,5f4f81a4275a7403ec8ca83c,5,,,,,,stamp,,,,,,0,10,10,21,1,3,2,,,,,,,,,,,,,,,,,,,,,,,,,,,,,,,,,,,,,,,,,,,,,,,,,,,,,,,,,,,,,,,,,,,,,,,,,,,
,,,,,,,,,,stimuli/images/PICTURE_68.png,KIND,57cde6e36736cf0001b326e4,08/02/1990,2020-09-02_08h28.11.446,proactive3.2,2020.1.2,Win32,60,5f47c0b9b035471e11593a5c,5f4f81a4275a7403ec8ca83c,5,,,,,,candle,,,,,,0,11,11,23,1,3,2,,,,,,,,,,,,,,,,,,,,,,,,,,,,,,,,,,,,,,,,,,,,,,,,,,,,,,,,,,,,,,,,,,,,,,,,,,,
,,,,,,,,,,stimuli/images/PICTURE_123.png,SALE,57cde6e36736cf0001b326e4,08/02/1990,2020-09-02_08h28.11.446,proactive3.2,2020.1.2,Win32,60,5f47c0b9b035471e11593a5c,5f4f81a4275a7403ec8ca83c,5,,,,,,dart,,,,,,0,12,12,8,1,1,2,,,,,,,,,,,,,,,,,,,,,,,,,,,,,,,,,,,,,,,,,,,,,,,,,,,,,,,,,,,,,,,,,,,,,,,,,,,
,,,,,,,,,,stimuli/images/PICTURE_654.png,COPS,57cde6e36736cf0001b326e4,08/02/1990,2020-09-02_08h28.11.446,proactive3.2,2020.1.2,Win32,60,5f47c0b9b035471e11593a5c,5f4f81a4275a7403ec8ca83c,5,,,,,,pencil,,,,,,0,13,13,10,1,2,2,,,,,,,,,,,,,,,,,,,,,,,,,,,,,,,,,,,,,,,,,,,,,,,,,,,,,,,,,,,,,,,,,,,,,,,,,,,
,,,,,,,,,,stimuli/images/PICTURE_314.png,SPEECH,57cde6e36736cf0001b326e4,08/02/1990,2020-09-02_08h28.11.446,proactive3.2,2020.1.2,Win32,60,5f47c0b9b035471e11593a5c,5f4f81a4275a7403ec8ca83c,5,,,,,,perfume,,,,,,0,14,14,35,1,4,2,,,,,,,,,,,,,,,,,,,,,,,,,,,,,,,,,,,,,,,,,,,,,,,,,,,,,,,,,,,,,,,,,,,,,,,,,,,
,,,,,,,,,,stimuli/images/PICTURE_356.png,CANDY,57cde6e36736cf0001b326e4,08/02/1990,2020-09-02_08h28.11.446,proactive3.2,2020.1.2,Win32,60,5f47c0b9b035471e11593a5c,5f4f81a4275a7403ec8ca83c,5,,,,,,pawn,,,,,,0,15,15,46,1,5,2,,,,,,,,,,,,,,,,,,,,,,,,,,,,,,,,,,,,,,,,,,,,,,,,,,,,,,,,,,,,,,,,,,,,,,,,,,,
,,,,,,,,,,stimuli/images/PICTURE_654.png,YEAR,57cde6e36736cf0001b326e4,08/02/1990,2020-09-02_08h28.11.446,proactive3.2,2020.1.2,Win32,60,5f47c0b9b035471e11593a5c,5f4f81a4275a7403ec8ca83c,5,,,,,,pencil,,,,,,0,16,16,41,1,5,2,,,,,,,,,,,,,,,,,,,,,,,,,,,,,,,,,,,,,,,,,,,,,,,,,,,,,,,,,,,,,,,,,,,,,,,,,,,
,,,,,,,,,,stimuli/images/PICTURE_677.png,FAMILY,57cde6e36736cf0001b326e4,08/02/1990,2020-09-02_08h28.11.446,proactive3.2,2020.1.2,Win32,60,5f47c0b9b035471e11593a5c,5f4f81a4275a7403ec8ca83c,5,,,,,,map,,,,,,0,17,17,53,1,6,2,,,,,,,,,,,,,,,,,,,,,,,,,,,,,,,,,,,,,,,,,,,,,,,,,,,,,,,,,,,,,,,,,,,,,,,,,,,
,,,,,,,,,,stimuli/images/PICTURE_470.png,BEAUTY,57cde6e36736cf0001b326e4,08/02/1990,2020-09-02_08h28.11.446,proactive3.2,2020.1.2,Win32,60,5f47c0b9b035471e11593a5c,5f4f81a4275a7403ec8ca83c,5,,,,,,motorbike,,,,,,0,18,18,26,1,3,2,,,,,,,,,,,,,,,,,,,,,,,,,,,,,,,,,,,,,,,,,,,,,,,,,,,,,,,,,,,,,,,,,,,,,,,,,,,
,,,,,,,,,,stimuli/images/PICTURE_93.png,GIRL,57cde6e36736cf0001b326e4,08/02/1990,2020-09-02_08h28.11.446,proactive3.2,2020.1.2,Win32,60,5f47c0b9b035471e11593a5c,5f4f81a4275a7403ec8ca83c,5,,,,,,skateboard,,,,,,0,19,19,31,1,4,2,,,,,,,,,,,,,,,,,,,,,,,,,,,,,,,,,,,,,,,,,,,,,,,,,,,,,,,,,,,,,,,,,,,,,,,,,,,
,,,,,,,,,,stimuli/images/PICTURE_655.png,SALE,57cde6e36736cf0001b326e4,08/02/1990,2020-09-02_08h28.11.446,proactive3.2,2020.1.2,Win32,60,5f47c0b9b035471e11593a5c,5f4f81a4275a7403ec8ca83c,5,,,,,,megaphone,,,,,,0,20,20,57,1,6,2,,,,,,,,,,,,,,,,,,,,,,,,,,,,,,,,,,,,,,,,,,,,,,,,,,,,,,,,,,,,,,,,,,,,,,,,,,,
,,,,,,,,,,stimuli/images/PICTURE_311.png,FLESH,57cde6e36736cf0001b326e4,08/02/1990,2020-09-02_08h28.11.446,proactive3.2,2020.1.2,Win32,60,5f47c0b9b035471e11593a5c,5f4f81a4275a7403ec8ca83c,5,,,,,,razor,,,,,,0,21,21,3,1,1,2,,,,,,,,,,,,,,,,,,,,,,,,,,,,,,,,,,,,,,,,,,,,,,,,,,,,,,,,,,,,,,,,,,,,,,,,,,,
,,,,,,,,,,stimuli/images/PICTURE_18.png,RIVER,57cde6e36736cf0001b326e4,08/02/1990,2020-09-02_08h28.11.446,proactive3.2,2020.1.2,Win32,60,5f47c0b9b035471e11593a5c,5f4f81a4275a7403ec8ca83c,5,,,,,,planet,,,,,,0,22,22,22,1,3,2,,,,,,,,,,,,,,,,,,,,,,,,,,,,,,,,,,,,,,,,,,,,,,,,,,,,,,,,,,,,,,,,,,,,,,,,,,,
,,,,,,,,,,stimuli/images/PICTURE_405.png,HOUSE,57cde6e36736cf0001b326e4,08/02/1990,2020-09-02_08h28.11.446,proactive3.2,2020.1.2,Win32,60,5f47c0b9b035471e11593a5c,5f4f81a4275a7403ec8ca83c,5,,,,,,anchor,,,,,,0,23,23,2,1,1,2,,,,,,,,,,,,,,,,,,,,,,,,,,,,,,,,,,,,,,,,,,,,,,,,,,,,,,,,,,,,,,,,,,,,,,,,,,,
,,,,,,,,,,stimuli/images/PICTURE_509.png,APPLE,57cde6e36736cf0001b326e4,08/02/1990,2020-09-02_08h28.11.446,proactive3.2,2020.1.2,Win32,60,5f47c0b9b035471e11593a5c,5f4f81a4275a7403ec8ca83c,5,,,,,,telephone,,,,,,0,24,24,38,1,4,2,,,,,,,,,,,,,,,,,,,,,,,,,,,,,,,,,,,,,,,,,,,,,,,,,,,,,,,,,,,,,,,,,,,,,,,,,,,
,,,,,,,,,,stimuli/images/PICTURE_2.png,AREA,57cde6e36736cf0001b326e4,08/02/1990,2020-09-02_08h28.11.446,proactive3.2,2020.1.2,Win32,60,5f47c0b9b035471e11593a5c,5f4f81a4275a7403ec8ca83c,5,,,,,,tyre,,,,,,0,25,25,32,1,4,2,,,,,,,,,,,,,,,,,,,,,,,,,,,,,,,,,,,,,,,,,,,,,,,,,,,,,,,,,,,,,,,,,,,,,,,,,,,
,,,,,,,,,,stimuli/images/PICTURE_491.png,SERIES,57cde6e36736cf0001b326e4,08/02/1990,2020-09-02_08h28.11.446,proactive3.2,2020.1.2,Win32,60,5f47c0b9b035471e11593a5c,5f4f81a4275a7403ec8ca83c,5,,,,,,rug,,,,,,0,26,26,39,1,4,2,,,,,,,,,,,,,,,,,,,,,,,,,,,,,,,,,,,,,,,,,,,,,,,,,,,,,,,,,,,,,,,,,,,,,,,,,,,
,,,,,,,,,,stimuli/images/PICTURE_509.png,BATH,57cde6e36736cf0001b326e4,08/02/1990,2020-09-02_08h28.11.446,proactive3.2,2020.1.2,Win32,60,5f47c0b9b035471e11593a5c,5f4f81a4275a7403ec8ca83c,5,,,,,,telephone,,,,,,0,27,27,15,1,2,2,,,,,,,,,,,,,,,,,,,,,,,,,,,,,,,,,,,,,,,,,,,,,,,,,,,,,,,,,,,,,,,,,,,,,,,,,,,
,,,,,,,,,,stimuli/images/PICTURE_405.png,JUNGLE,57cde6e36736cf0001b326e4,08/02/1990,2020-09-02_08h28.11.446,proactive3.2,2020.1.2,Win32,60,5f47c0b9b035471e11593a5c,5f4f81a4275a7403ec8ca83c,5,,,,,,anchor,,,,,,0,28,28,13,1,2,2,,,,,,,,,,,,,,,,,,,,,,,,,,,,,,,,,,,,,,,,,,,,,,,,,,,,,,,,,,,,,,,,,,,,,,,,,,,
,,,,,,,,,,stimuli/images/PICTURE_405.png,JUNGLE,57cde6e36736cf0001b326e4,08/02/1990,2020-09-02_08h28.11.446,proactive3.2,2020.1.2,Win32,60,5f47c0b9b035471e11593a5c,5f4f81a4275a7403ec8ca83c,5,,,,,,anchor,,,,,,0,29,29,58,1,6,2,,,,,,,,,,,,,,,,,,,,,,,,,,,,,,,,,,,,,,,,,,,,,,,,,,,,,,,,,,,,,,,,,,,,,,,,,,,
,,,,,,,,,,stimuli/images/PICTURE_255.png,PENNY,57cde6e36736cf0001b326e4,08/02/1990,2020-09-02_08h28.11.446,proactive3.2,2020.1.2,Win32,60,5f47c0b9b035471e11593a5c,5f4f81a4275a7403ec8ca83c,5,,,,,,shovel,,,,,,0,30,30,19,1,2,2,,,,,,,,,,,,,,,,,,,,,,,,,,,,,,,,,,,,,,,,,,,,,,,,,,,,,,,,,,,,,,,,,,,,,,,,,,,
,,,,,,,,,,stimuli/images/PICTURE_285.png,WRITER,57cde6e36736cf0001b326e4,08/02/1990,2020-09-02_08h28.11.446,proactive3.2,2020.1.2,Win32,60,5f47c0b9b035471e11593a5c,5f4f81a4275a7403ec8ca83c,5,,,,,,carrot,,,,,,0,31,31,6,1,1,2,,,,,,,,,,,,,,,,,,,,,,,,,,,,,,,,,,,,,,,,,,,,,,,,,,,,,,,,,,,,,,,,,,,,,,,,,,,
,,,,,,,,,,stimuli/images/PICTURE_453.png,FAMILY,57cde6e36736cf0001b326e4,08/02/1990,2020-09-02_08h28.11.446,proactive3.2,2020.1.2,Win32,60,5f47c0b9b035471e11593a5c,5f4f81a4275a7403ec8ca83c,5,,,,,,scissors,,,,,,0,32,32,48,1,5,2,,,,,,,,,,,,,,,,,,,,,,,,,,,,,,,,,,,,,,,,,,,,,,,,,,,,,,,,,,,,,,,,,,,,,,,,,,,
,,,,,,,,,,stimuli/images/PICTURE_215.png,FOOD,57cde6e36736cf0001b326e4,08/02/1990,2020-09-02_08h28.11.446,proactive3.2,2020.1.2,Win32,60,5f47c0b9b035471e11593a5c,5f4f81a4275a7403ec8ca83c,5,,,,,,boot,,,,,,0,33,33,5,1,1,2,,,,,,,,,,,,,,,,,,,,,,,,,,,,,,,,,,,,,,,,,,,,,,,,,,,,,,,,,,,,,,,,,,,,,,,,,,,
,,,,,,,,,,stimuli/images/PICTURE_95.png,NIGHT,57cde6e36736cf0001b326e4,08/02/1990,2020-09-02_08h28.11.446,proactive3.2,2020.1.2,Win32,60,5f47c0b9b035471e11593a5c,5f4f81a4275a7403ec8ca83c,5,,,,,,suitcase,,,,,,0,34,34,37,1,4,2,,,,,,,,,,,,,,,,,,,,,,,,,,,,,,,,,,,,,,,,,,,,,,,,,,,,,,,,,,,,,,,,,,,,,,,,,,,
,,,,,,,,,,stimuli/images/PICTURE_692.png,DUDE,57cde6e36736cf0001b326e4,08/02/1990,2020-09-02_08h28.11.446,proactive3.2,2020.1.2,Win32,60,5f47c0b9b035471e11593a5c,5f4f81a4275a7403ec8ca83c,5,,,,,,cherry,,,,,,0,35,35,47,1,5,2,,,,,,,,,,,,,,,,,,,,,,,,,,,,,,,,,,,,,,,,,,,,,,,,,,,,,,,,,,,,,,,,,,,,,,,,,,,
,,,,,,,,,,stimuli/images/PICTURE_2.png,JUNGLE,57cde6e36736cf0001b326e4,08/02/1990,2020-09-02_08h28.11.446,proactive3.2,2020.1.2,Win32,60,5f47c0b9b035471e11593a5c,5f4f81a4275a7403ec8ca83c,5,,,,,,tyre,,,,,,0,36,36,1,1,1,2,,,,,,,,,,,,,,,,,,,,,,,,,,,,,,,,,,,,,,,,,,,,,,,,,,,,,,,,,,,,,,,,,,,,,,,,,,,
,,,,,,,,,,stimuli/images/PICTURE_403.png,FAMILY,57cde6e36736cf0001b326e4,08/02/1990,2020-09-02_08h28.11.446,proactive3.2,2020.1.2,Win32,60,5f47c0b9b035471e11593a5c,5f4f81a4275a7403ec8ca83c,5,,,,,,cathedral,,,,,,0,37,37,9,1,1,2,,,,,,,,,,,,,,,,,,,,,,,,,,,,,,,,,,,,,,,,,,,,,,,,,,,,,,,,,,,,,,,,,,,,,,,,,,,
,,,,,,,,,,stimuli/images/PICTURE_285.png,PRINCE,57cde6e36736cf0001b326e4,08/02/1990,2020-09-02_08h28.11.446,proactive3.2,2020.1.2,Win32,60,5f47c0b9b035471e11593a5c,5f4f81a4275a7403ec8ca83c,5,,,,,,carrot,,,,,,0,38,38,20,1,3,2,,,,,,,,,,,,,,,,,,,,,,,,,,,,,,,,,,,,,,,,,,,,,,,,,,,,,,,,,,,,,,,,,,,,,,,,,,,
,,,,,,,,,,stimuli/images/PICTURE_667.png,GLASS,57cde6e36736cf0001b326e4,08/02/1990,2020-09-02_08h28.11.446,proactive3.2,2020.1.2,Win32,60,5f47c0b9b035471e11593a5c,5f4f81a4275a7403ec8ca83c,5,,,,,,daisy,,,,,,0,39,39,27,1,3,2,,,,,,,,,,,,,,,,,,,,,,,,,,,,,,,,,,,,,,,,,,,,,,,,,,,,,,,,,,,,,,,,,,,,,,,,,,,
,,,,,,,,,,stimuli/images/PICTURE_688.png,CLOCK,57cde6e36736cf0001b326e4,08/02/1990,2020-09-02_08h28.11.446,proactive3.2,2020.1.2,Win32,60,5f47c0b9b035471e11593a5c,5f4f81a4275a7403ec8ca83c,5,,,,,,runner,,,,,,0,40,40,42,1,5,2,,,,,,,,,,,,,,,,,,,,,,,,,,,,,,,,,,,,,,,,,,,,,,,,,,,,,,,,,,,,,,,,,,,,,,,,,,,
,,,,,,,,,,stimuli/images/PICTURE_177.png,HOUSE,57cde6e36736cf0001b326e4,08/02/1990,2020-09-02_08h28.11.446,proactive3.2,2020.1.2,Win32,60,5f47c0b9b035471e11593a5c,5f4f81a4275a7403ec8ca83c,5,,,,,,mushroom,,,,,,0,41,41,25,1,3,2,,,,,,,,,,,,,,,,,,,,,,,,,,,,,,,,,,,,,,,,,,,,,,,,,,,,,,,,,,,,,,,,,,,,,,,,,,,
,,,,,,,,,,stimuli/images/PICTURE_208.png,SPIRIT,57cde6e36736cf0001b326e4,08/02/1990,2020-09-02_08h28.11.446,proactive3.2,2020.1.2,Win32,60,5f47c0b9b035471e11593a5c,5f4f81a4275a7403ec8ca83c,5,,,,,,microphone,,,,,,0,42,42,28,1,3,2,,,,,,,,,,,,,,,,,,,,,,,,,,,,,,,,,,,,,,,,,,,,,,,,,,,,,,,,,,,,,,,,,,,,,,,,,,,
,,,,,,,,,,stimuli/images/PICTURE_750.png,POLICY,57cde6e36736cf0001b326e4,08/02/1990,2020-09-02_08h28.11.446,proactive3.2,2020.1.2,Win32,60,5f47c0b9b035471e11593a5c,5f4f81a4275a7403ec8ca83c,5,,,,,,kettle,,,,,,0,43,43,44,1,5,2,,,,,,,,,,,,,,,,,,,,,,,,,,,,,,,,,,,,,,,,,,,,,,,,,,,,,,,,,,,,,,,,,,,,,,,,,,,
,,,,,,,,,,stimuli/images/PICTURE_57.png,CANDY,57cde6e36736cf0001b326e4,08/02/1990,2020-09-02_08h28.11.446,proactive3.2,2020.1.2,Win32,60,5f47c0b9b035471e11593a5c,5f4f81a4275a7403ec8ca83c,5,,,,,,stamp,,,,,,0,44,44,52,1,6,2,,,,,,,,,,,,,,,,,,,,,,,,,,,,,,,,,,,,,,,,,,,,,,,,,,,,,,,,,,,,,,,,,,,,,,,,,,,
,,,,,,,,,,stimuli/images/PICTURE_487.png,POLICY,57cde6e36736cf0001b326e4,08/02/1990,2020-09-02_08h28.11.446,proactive3.2,2020.1.2,Win32,60,5f47c0b9b035471e11593a5c,5f4f81a4275a7403ec8ca83c,5,,,,,,basket,,,,,,0,45,45,34,1,4,2,,,,,,,,,,,,,,,,,,,,,,,,,,,,,,,,,,,,,,,,,,,,,,,,,,,,,,,,,,,,,,,,,,,,,,,,,,,
,,,,,,,,,,stimuli/images/PICTURE_147.png,LEADER,57cde6e36736cf0001b326e4,08/02/1990,2020-09-02_08h28.11.446,proactive3.2,2020.1.2,Win32,60,5f47c0b9b035471e11593a5c,5f4f81a4275a7403ec8ca83c,5,,,,,,hanger,,,,,,0,46,46,33,1,4,2,,,,,,,,,,,,,,,,,,,,,,,,,,,,,,,,,,,,,,,,,,,,,,,,,,,,,,,,,,,,,,,,,,,,,,,,,,,
,,,,,,,,,,stimuli/images/PICTURE_296.png,CLOCK,57cde6e36736cf0001b326e4,08/02/1990,2020-09-02_08h28.11.446,proactive3.2,2020.1.2,Win32,60,5f47c0b9b035471e11593a5c,5f4f81a4275a7403ec8ca83c,5,,,,,,bolt,,,,,,0,47,47,18,1,2,2,,,,,,,,,,,,,,,,,,,,,,,,,,,,,,,,,,,,,,,,,,,,,,,,,,,,,,,,,,,,,,,,,,,,,,,,,,,
,,,,,,,,,,stimuli/images/PICTURE_677.png,PHOTO,57cde6e36736cf0001b326e4,08/02/1990,2020-09-02_08h28.11.446,proactive3.2,2020.1.2,Win32,60,5f47c0b9b035471e11593a5c,5f4f81a4275a7403ec8ca83c,5,,,,,,map,,,,,,0,48,48,14,1,2,2,,,,,,,,,,,,,,,,,,,,,,,,,,,,,,,,,,,,,,,,,,,,,,,,,,,,,,,,,,,,,,,,,,,,,,,,,,,
,,,,,,,,,,stimuli/images/PICTURE_297.png,BODY,57cde6e36736cf0001b326e4,08/02/1990,2020-09-02_08h28.11.446,proactive3.2,2020.1.2,Win32,60,5f47c0b9b035471e11593a5c,5f4f81a4275a7403ec8ca83c,5,,,,,,aeroplane,,,,,,0,49,49,51,1,6,2,,,,,,,,,,,,,,,,,,,,,,,,,,,,,,,,,,,,,,,,,,,,,,,,,,,,,,,,,,,,,,,,,,,,,,,,,,,
,,,,,,,,,,stimuli/images/PICTURE_504.png,HOUSE,57cde6e36736cf0001b326e4,08/02/1990,2020-09-02_08h28.11.446,proactive3.2,2020.1.2,Win32,60,5f47c0b9b035471e11593a5c,5f4f81a4275a7403ec8ca83c,5,,,,,,wheel,,,,,,0,50,50,36,1,4,2,,,,,,,,,,,,,,,,,,,,,,,,,,,,,,,,,,,,,,,,,,,,,,,,,,,,,,,,,,,,,,,,,,,,,,,,,,,
,,,,,,,,,,stimuli/images/PICTURE_32.png,LETTER,57cde6e36736cf0001b326e4,08/02/1990,2020-09-02_08h28.11.446,proactive3.2,2020.1.2,Win32,60,5f47c0b9b035471e11593a5c,5f4f81a4275a7403ec8ca83c,5,,,,,,crown,,,,,,0,51,51,56,1,6,2,,,,,,,,,,,,,,,,,,,,,,,,,,,,,,,,,,,,,,,,,,,,,,,,,,,,,,,,,,,,,,,,,,,,,,,,,,,
,,,,,,,,,,stimuli/images/PICTURE_141.png,CLIENT,57cde6e36736cf0001b326e4,08/02/1990,2020-09-02_08h28.11.446,proactive3.2,2020.1.2,Win32,60,5f47c0b9b035471e11593a5c,5f4f81a4275a7403ec8ca83c,5,,,,,,sunflower,,,,,,0,52,52,30,1,4,2,,,,,,,,,,,,,,,,,,,,,,,,,,,,,,,,,,,,,,,,,,,,,,,,,,,,,,,,,,,,,,,,,,,,,,,,,,,
,,,,,,,,,,stimuli/images/PICTURE_311.png,TOILET,57cde6e36736cf0001b326e4,08/02/1990,2020-09-02_08h28.11.446,proactive3.2,2020.1.2,Win32,60,5f47c0b9b035471e11593a5c,5f4f81a4275a7403ec8ca83c,5,,,,,,razor,,,,,,0,53,53,54,1,6,2,,,,,,,,,,,,,,,,,,,,,,,,,,,,,,,,,,,,,,,,,,,,,,,,,,,,,,,,,,,,,,,,,,,,,,,,,,,
,,,,,,,,,,stimuli/images/PICTURE_57.png,CASINO,57cde6e36736cf0001b326e4,08/02/1990,2020-09-02_08h28.11.446,proactive3.2,2020.1.2,Win32,60,5f47c0b9b035471e11593a5c,5f4f81a4275a7403ec8ca83c,5,,,,,,stamp,,,,,,0,54,54,12,1,2,2,,,,,,,,,,,,,,,,,,,,,,,,,,,,,,,,,,,,,,,,,,,,,,,,,,,,,,,,,,,,,,,,,,,,,,,,,,,
,,,,,,,,,,stimuli/images/PICTURE_564.png,PLENTY,57cde6e36736cf0001b326e4,08/02/1990,2020-09-02_08h28.11.446,proactive3.2,2020.1.2,Win32,60,5f47c0b9b035471e11593a5c,5f4f81a4275a7403ec8ca83c,5,,,,,,spoon,,,,,,0,55,55,11,1,2,2,,,,,,,,,,,,,,,,,,,,,,,,,,,,,,,,,,,,,,,,,,,,,,,,,,,,,,,,,,,,,,,,,,,,,,,,,,,
,,,,,,,,,,stimuli/images/PICTURE_215.png,LEADER,57cde6e36736cf0001b326e4,08/02/1990,2020-09-02_08h28.11.446,proactive3.2,2020.1.2,Win32,60,5f47c0b9b035471e11593a5c,5f4f81a4275a7403ec8ca83c,5,,,,,,boot,,,,,,0,56,56,43,1,5,2,,,,,,,,,,,,,,,,,,,,,,,,,,,,,,,,,,,,,,,,,,,,,,,,,,,,,,,,,,,,,,,,,,,,,,,,,,,
,,,,,,,,,,stimuli/images/PICTURE_452.png,COPS,57cde6e36736cf0001b326e4,08/02/1990,2020-09-02_08h28.11.446,proactive3.2,2020.1.2,Win32,60,5f47c0b9b035471e11593a5c,5f4f81a4275a7403ec8ca83c,5,,,,,,watch,,,,,,0,57,57,0,1,1,2,,,,,,,,,,,,,,,,,,,,,,,,,,,,,,,,,,,,,,,,,,,,,,,,,,,,,,,,,,,,,,,,,,,,,,,,,,,
,,,,,,,,,,stimuli/images/PICTURE_160.png,HOTEL,57cde6e36736cf0001b326e4,08/02/1990,2020-09-02_08h28.11.446,proactive3.2,2020.1.2,Win32,60,5f47c0b9b035471e11593a5c,5f4f81a4275a7403ec8ca83c,5,,,,,,wheelbarrow,,,,,,0,58,58,16,1,2,2,,,,,,,,,,,,,,,,,,,,,,,,,,,,,,,,,,,,,,,,,,,,,,,,,,,,,,,,,,,,,,,,,,,,,,,,,,,
,,?,0.001785,0,,,,,,stimuli/images/PICTURE_215.png,FOOD,57cde6e36736cf0001b326e4,08/02/1990,2020-09-02_08h28.11.446,proactive3.2,2020.1.2,Win32,60,5f47c0b9b035471e11593a5c,5f4f81a4275a7403ec8ca83c,5,,,,,,boot,,,,,,,,,,,1,2,0,0,0,5,1,,,,,,,,,,,,,,,,,,,,,,,,,,,,,,,,,,,,,,,,,,,,,,,,,,,,,,,,,,,,,,,,,,,,,,
,,?,0.001005,0,,,,,,stimuli/images/PICTURE_470.png,BEAUTY,57cde6e36736cf0001b326e4,08/02/1990,2020-09-02_08h28.11.446,proactive3.2,2020.1.2,Win32,60,5f47c0b9b035471e11593a5c,5f4f81a4275a7403ec8ca83c,5,,,,,,motorbike,,,,,,,,,,,3,2,0,1,1,26,1,,,,,,,,,,,,,,,,,,,,,,,,,,,,,,,,,,,,,,,,,,,,,,,,,,,,,,,,,,,,,,,,,,,,,,
,,MILLER,3.23462,1,,,,,,stimuli/images/PICTURE_509.png,MILLER,57cde6e36736cf0001b326e4,08/02/1990,2020-09-02_08h28.11.446,proactive3.2,2020.1.2,Win32,60,5f47c0b9b035471e11593a5c,5f4f81a4275a7403ec8ca83c,5,,,,,,telephone,,,,,,,,,,,5,2,0,2,2,49,1,,,,,,,,,,,,,,,,,,,,,,,,,,,,,,,,,,,,,,,,,,,,,,,,,,,,,,,,,,,,,,,,,,,,,,
,,?,0.001545,0,,,,,,stimuli/images/PICTURE_311.png,FLESH,57cde6e36736cf0001b326e4,08/02/1990,2020-09-02_08h28.11.446,proactive3.2,2020.1.2,Win32,60,5f47c0b9b035471e11593a5c,5f4f81a4275a7403ec8ca83c,5,,,,,,razor,,,,,,,,,,,1,2,0,3,3,3,1,,,,,,,,,,,,,,,,,,,,,,,,,,,,,,,,,,,,,,,,,,,,,,,,,,,,,,,,,,,,,,,,,,,,,,
,,?,0.000755,0,,,,,,stimuli/images/PICTURE_215.png,BOYS,57cde6e36736cf0001b326e4,08/02/1990,2020-09-02_08h28.11.446,proactive3.2,2020.1.2,Win32,60,5f47c0b9b035471e11593a5c,5f4f81a4275a7403ec8ca83c,5,,,,,,boot,,,,,,,,,,,3,2,0,4,4,24,1,,,,,,,,,,,,,,,,,,,,,,,,,,,,,,,,,,,,,,,,,,,,,,,,,,,,,,,,,,,,,,,,,,,,,,
,,CLOCK,1.992705,0,,,,,,stimuli/images/PICTURE_654.png,YEAR,57cde6e36736cf0001b326e4,08/02/1990,2020-09-02_08h28.11.446,proactive3.2,2020.1.2,Win32,60,5f47c0b9b035471e11593a5c,5f4f81a4275a7403ec8ca83c,5,,,,,,pencil,,,,,,,,,,,5,2,0,5,5,41,1,,,,,,,,,,,,,,,,,,,,,,,,,,,,,,,,,,,,,,,,,,,,,,,,,,,,,,,,,,,,,,,,,,,,,,
,,?,0.0016,0,,,,,,stimuli/images/PICTURE_68.png,KIND,57cde6e36736cf0001b326e4,08/02/1990,2020-09-02_08h28.11.446,proactive3.2,2020.1.2,Win32,60,5f47c0b9b035471e11593a5c,5f4f81a4275a7403ec8ca83c,5,,,,,,candle,,,,,,,,,,,3,2,0,6,6,23,1,,,,,,,,,,,,,,,,,,,,,,,,,,,,,,,,,,,,,,,,,,,,,,,,,,,,,,,,,,,,,,,,,,,,,,
,,?,0.001165,0,,,,,,stimuli/images/PICTURE_452.png,COPS,57cde6e36736cf0001b326e4,08/02/1990,2020-09-02_08h28.11.446,proactive3.2,2020.1.2,Win32,60,5f47c0b9b035471e11593a5c,5f4f81a4275a7403ec8ca83c,5,,,,,,watch,,,,,,,,,,,1,2,0,7,7,0,1,,,,,,,,,,,,,,,,,,,,,,,,,,,,,,,,,,,,,,,,,,,,,,,,,,,,,,,,,,,,,,,,,,,,,,
,,?,0.00065,0,,,,,,stimuli/images/PICTURE_509.png,APPLE,57cde6e36736cf0001b326e4,08/02/1990,2020-09-02_08h28.11.446,proactive3.2,2020.1.2,Win32,60,5f47c0b9b035471e11593a5c,5f4f81a4275a7403ec8ca83c,5,,,,,,telephone,,,,,,,,,,,4,2,0,8,8,38,1,,,,,,,,,,,,,,,,,,,,,,,,,,,,,,,,,,,,,,,,,,,,,,,,,,,,,,,,,,,,,,,,,,,,,,
,,WINNER,5.889315,0,,,,,,stimuli/images/PICTURE_215.png,LEADER,57cde6e36736cf0001b326e4,08/02/1990,2020-09-02_08h28.11.446,proactive3.2,2020.1.2,Win32,60,5f47c0b9b035471e11593a5c,5f4f81a4275a7403ec8ca83c,5,,,,,,boot,,,,,,,,,,,5,2,0,9,9,43,1,,,,,,,,,,,,,,,,,,,,,,,,,,,,,,,,,,,,,,,,,,,,,,,,,,,,,,,,,,,,,,,,,,,,,,
,,?,0.00121,0,,,,,,stimuli/images/PICTURE_327.png,LEADER,57cde6e36736cf0001b326e4,08/02/1990,2020-09-02_08h28.11.446,proactive3.2,2020.1.2,Win32,60,5f47c0b9b035471e11593a5c,5f4f81a4275a7403ec8ca83c,5,,,,,,helmet,,,,,,,,,,,2,2,0,10,10,17,1,,,,,,,,,,,,,,,,,,,,,,,,,,,,,,,,,,,,,,,,,,,,,,,,,,,,,,,,,,,,,,,,,,,,,,
,,?,0.000775,0,,,,,,stimuli/images/PICTURE_18.png,RIVER,57cde6e36736cf0001b326e4,08/02/1990,2020-09-02_08h28.11.446,proactive3.2,2020.1.2,Win32,60,5f47c0b9b035471e11593a5c,5f4f81a4275a7403ec8ca83c,5,,,,,,planet,,,,,,,,,,,3,2,0,11,11,22,1,,,,,,,,,,,,,,,,,,,,,,,,,,,,,,,,,,,,,,,,,,,,,,,,,,,,,,,,,,,,,,,,,,,,,,
,,?,0.00059,0,,,,,,stimuli/images/PICTURE_314.png,SPEECH,57cde6e36736cf0001b326e4,08/02/1990,2020-09-02_08h28.11.446,proactive3.2,2020.1.2,Win32,60,5f47c0b9b035471e11593a5c,5f4f81a4275a7403ec8ca83c,5,,,,,,perfume,,,,,,,,,,,4,2,0,12,12,35,1,,,,,,,,,,,,,,,,,,,,,,,,,,,,,,,,,,,,,,,,,,,,,,,,,,,,,,,,,,,,,,,,,,,,,,
,,?,0.000705,0,,,,,,stimuli/images/PICTURE_208.png,SPIRIT,57cde6e36736cf0001b326e4,08/02/1990,2020-09-02_08h28.11.446,proactive3.2,2020.1.2,Win32,60,5f47c0b9b035471e11593a5c,5f4f81a4275a7403ec8ca83c,5,,,,,,microphone,,,,,,,,,,,3,2,0,13,13,28,1,,,,,,,,,,,,,,,,,,,,,,,,,,,,,,,,,,,,,,,,,,,,,,,,,,,,,,,,,,,,,,,,,,,,,,
,,?,0.000515,0,,,,,,stimuli/images/PICTURE_667.png,GLASS,57cde6e36736cf0001b326e4,08/02/1990,2020-09-02_08h28.11.446,proactive3.2,2020.1.2,Win32,60,5f47c0b9b035471e11593a5c,5f4f81a4275a7403ec8ca83c,5,,,,,,daisy,,,,,,,,,,,3,2,0,14,14,27,1,,,,,,,,,,,,,,,,,,,,,,,,,,,,,,,,,,,,,,,,,,,,,,,,,,,,,,,,,,,,,,,,,,,,,,
,,?,0.000685,0,,,,,,stimuli/images/PICTURE_564.png,PLENTY,57cde6e36736cf0001b326e4,08/02/1990,2020-09-02_08h28.11.446,proactive3.2,2020.1.2,Win32,60,5f47c0b9b035471e11593a5c,5f4f81a4275a7403ec8ca83c,5,,,,,,spoon,,,,,,,,,,,2,2,0,15,15,11,1,,,,,,,,,,,,,,,,,,,,,,,,,,,,,,,,,,,,,,,,,,,,,,,,,,,,,,,,,,,,,,,,,,,,,,
,,?,0.00053,0,,,,,,stimuli/images/PICTURE_296.png,CLOCK,57cde6e36736cf0001b326e4,08/02/1990,2020-09-02_08h28.11.446,proactive3.2,2020.1.2,Win32,60,5f47c0b9b035471e11593a5c,5f4f81a4275a7403ec8ca83c,5,,,,,,bolt,,,,,,,,,,,2,2,0,16,16,18,1,,,,,,,,,,,,,,,,,,,,,,,,,,,,,,,,,,,,,,,,,,,,,,,,,,,,,,,,,,,,,,,,,,,,,,
,,?,0.000565,0,,,,,,stimuli/images/PICTURE_177.png,HOUSE,57cde6e36736cf0001b326e4,08/02/1990,2020-09-02_08h28.11.446,proactive3.2,2020.1.2,Win32,60,5f47c0b9b035471e11593a5c,5f4f81a4275a7403ec8ca83c,5,,,,,,mushroom,,,,,,,,,,,3,2,0,17,17,25,1,,,,,,,,,,,,,,,,,,,,,,,,,,,,,,,,,,,,,,,,,,,,,,,,,,,,,,,,,,,,,,,,,,,,,,
,,?,0.000785,0,,,,,,stimuli/images/PICTURE_348.png,TOILET,57cde6e36736cf0001b326e4,08/02/1990,2020-09-02_08h28.11.446,proactive3.2,2020.1.2,Win32,60,5f47c0b9b035471e11593a5c,5f4f81a4275a7403ec8ca83c,5,,,,,,pepper,,,,,,,,,,,1,2,0,18,18,4,1,,,,,,,,,,,,,,,,,,,,,,,,,,,,,,,,,,,,,,,,,,,,,,,,,,,,,,,,,,,,,,,,,,,,,,
,,?,0.000935,0,,,,,,stimuli/images/PICTURE_57.png,NATION,57cde6e36736cf0001b326e4,08/02/1990,2020-09-02_08h28.11.446,proactive3.2,2020.1.2,Win32,60,5f47c0b9b035471e11593a5c,5f4f81a4275a7403ec8ca83c,5,,,,,,stamp,,,,,,,,,,,3,2,0,19,19,21,1,,,,,,,,,,,,,,,,,,,,,,,,,,,,,,,,,,,,,,,,,,,,,,,,,,,,,,,,,,,,,,,,,,,,,,
,,?,2.362335,0,,,,,,stimuli/images/PICTURE_356.png,CANDY,57cde6e36736cf0001b326e4,08/02/1990,2020-09-02_08h28.11.446,proactive3.2,2020.1.2,Win32,60,5f47c0b9b035471e11593a5c,5f4f81a4275a7403ec8ca83c,5,,,,,,pawn,,,,,,,,,,,5,2,0,20,20,46,1,,,,,,,,,,,,,,,,,,,,,,,,,,,,,,,,,,,,,,,,,,,,,,,,,,,,,,,,,,,,,,,,,,,,,,
,,DUDE,2.07943,1,,,,,,stimuli/images/PICTURE_692.png,DUDE,57cde6e36736cf0001b326e4,08/02/1990,2020-09-02_08h28.11.446,proactive3.2,2020.1.2,Win32,60,5f47c0b9b035471e11593a5c,5f4f81a4275a7403ec8ca83c,5,,,,,,cherry,,,,,,,,,,,5,2,0,21,21,47,1,,,,,,,,,,,,,,,,,,,,,,,,,,,,,,,,,,,,,,,,,,,,,,,,,,,,,,,,,,,,,,,,,,,,,,
,,?,0.000815,0,,,,,,stimuli/images/PICTURE_33.png,COPS,57cde6e36736cf0001b326e4,08/02/1990,2020-09-02_08h28.11.446,proactive3.2,2020.1.2,Win32,60,5f47c0b9b035471e11593a5c,5f4f81a4275a7403ec8ca83c,5,,,,,,frame,,,,,,,,,,,3,2,0,22,22,29,1,,,,,,,,,,,,,,,,,,,,,,,,,,,,,,,,,,,,,,,,,,,,,,,,,,,,,,,,,,,,,,,,,,,,,,
,,?,0.0006,0,,,,,,stimuli/images/PICTURE_348.png,DUDE,57cde6e36736cf0001b326e4,08/02/1990,2020-09-02_08h28.11.446,proactive3.2,2020.1.2,Win32,60,5f47c0b9b035471e11593a5c,5f4f81a4275a7403ec8ca83c,5,,,,,,pepper,,,,,,,,,,,6,2,0,23,23,59,1,,,,,,,,,,,,,,,,,,,,,,,,,,,,,,,,,,,,,,,,,,,,,,,,,,,,,,,,,,,,,,,,,,,,,,
,,?,0.000565,0,,,,,,stimuli/images/PICTURE_57.png,CANDY,57cde6e36736cf0001b326e4,08/02/1990,2020-09-02_08h28.11.446,proactive3.2,2020.1.2,Win32,60,5f47c0b9b035471e11593a5c,5f4f81a4275a7403ec8ca83c,5,,,,,,stamp,,,,,,,,,,,6,2,0,24,24,52,1,,,,,,,,,,,,,,,,,,,,,,,,,,,,,,,,,,,,,,,,,,,,,,,,,,,,,,,,,,,,,,,,,,,,,,
,,?,0.00073,0,,,,,,stimuli/images/PICTURE_32.png,LETTER,57cde6e36736cf0001b326e4,08/02/1990,2020-09-02_08h28.11.446,proactive3.2,2020.1.2,Win32,60,5f47c0b9b035471e11593a5c,5f4f81a4275a7403ec8ca83c,5,,,,,,crown,,,,,,,,,,,6,2,0,25,25,56,1,,,,,,,,,,,,,,,,,,,,,,,,,,,,,,,,,,,,,,,,,,,,,,,,,,,,,,,,,,,,,,,,,,,,,,
,,?,0.00062,0,,,,,,stimuli/images/PICTURE_504.png,HOUSE,57cde6e36736cf0001b326e4,08/02/1990,2020-09-02_08h28.11.446,proactive3.2,2020.1.2,Win32,60,5f47c0b9b035471e11593a5c,5f4f81a4275a7403ec8ca83c,5,,,,,,wheel,,,,,,,,,,,4,2,0,26,26,36,1,,,,,,,,,,,,,,,,,,,,,,,,,,,,,,,,,,,,,,,,,,,,,,,,,,,,,,,,,,,,,,,,,,,,,,
,,CLOCK,2.991565,1,,,,,,stimuli/images/PICTURE_688.png,CLOCK,57cde6e36736cf0001b326e4,08/02/1990,2020-09-02_08h28.11.446,proactive3.2,2020.1.2,Win32,60,5f47c0b9b035471e11593a5c,5f4f81a4275a7403ec8ca83c,5,,,,,,runner,,,,,,,,,,,5,2,0,27,27,42,1,,,,,,,,,,,,,,,,,,,,,,,,,,,,,,,,,,,,,,,,,,,,,,,,,,,,,,,,,,,,,,,,,,,,,,
,,?,0.00153,0,,,,,,stimuli/images/PICTURE_2.png,JUNGLE,57cde6e36736cf0001b326e4,08/02/1990,2020-09-02_08h28.11.446,proactive3.2,2020.1.2,Win32,60,5f47c0b9b035471e11593a5c,5f4f81a4275a7403ec8ca83c,5,,,,,,tyre,,,,,,,,,,,1,2,0,28,28,1,1,,,,,,,,,,,,,,,,,,,,,,,,,,,,,,,,,,,,,,,,,,,,,,,,,,,,,,,,,,,,,,,,,,,,,,
,,?,0.002255,0,,,,,,stimuli/images/PICTURE_57.png,CASINO,57cde6e36736cf0001b326e4,08/02/1990,2020-09-02_08h28.11.446,proactive3.2,2020.1.2,Win32,60,5f47c0b9b035471e11593a5c,5f4f81a4275a7403ec8ca83c,5,,,,,,stamp,,,,,,,,,,,2,2,0,29,29,12,1,,,,,,,,,,,,,,,,,,,,,,,,,,,,,,,,,,,,,,,,,,,,,,,,,,,,,,,,,,,,,,,,,,,,,,
,,?,0.00086,0,,,,,,stimuli/images/PICTURE_677.png,FAMILY,57cde6e36736cf0001b326e4,08/02/1990,2020-09-02_08h28.11.446,proactive3.2,2020.1.2,Win32,60,5f47c0b9b035471e11593a5c,5f4f81a4275a7403ec8ca83c,5,,,,,,map,,,,,,,,,,,6,2,0,30,30,53,1,,,,,,,,,,,,,,,,,,,,,,,,,,,,,,,,,,,,,,,,,,,,,,,,,,,,,,,,,,,,,,,,,,,,,,
,,?,0.002435,0,,,,,,stimuli/images/PICTURE_405.png,JUNGLE,57cde6e36736cf0001b326e4,08/02/1990,2020-09-02_08h28.11.446,proactive3.2,2020.1.2,Win32,60,5f47c0b9b035471e11593a5c,5f4f81a4275a7403ec8ca83c,5,,,,,,anchor,,,,,,,,,,,6,2,0,31,31,58,1,,,,,,,,,,,,,,,,,,,,,,,,,,,,,,,,,,,,,,,,,,,,,,,,,,,,,,,,,,,,,,,,,,,,,,
,,POLICY,8.948845,1,,,,,,stimuli/images/PICTURE_750.png,POLICY,57cde6e36736cf0001b326e4,08/02/1990,2020-09-02_08h28.11.446,proactive3.2,2020.1.2,Win32,60,5f47c0b9b035471e11593a5c,5f4f81a4275a7403ec8ca83c,5,,,,,,kettle,,,,,,,,,,,5,2,0,32,32,44,1,,,,,,,,,,,,,,,,,,,,,,,,,,,,,,,,,,,,,,,,,,,,,,,,,,,,,,,,,,,,,,,,,,,,,,
,,?,0.000825,0,,,,,,stimuli/images/PICTURE_654.png,COPS,57cde6e36736cf0001b326e4,08/02/1990,2020-09-02_08h28.11.446,proactive3.2,2020.1.2,Win32,60,5f47c0b9b035471e11593a5c,5f4f81a4275a7403ec8ca83c,5,,,,,,pencil,,,,,,,,,,,2,2,0,33,33,10,1,,,,,,,,,,,,,,,,,,,,,,,,,,,,,,,,,,,,,,,,,,,,,,,,,,,,,,,,,,,,,,,,,,,,,,
,,VVALLET,5.613915,0,,,,,,stimuli/images/PICTURE_708.png,VALLEY,57cde6e36736cf0001b326e4,08/02/1990,2020-09-02_08h28.11.446,proactive3.2,2020.1.2,Win32,60,5f47c0b9b035471e11593a5c,5f4f81a4275a7403ec8ca83c,5,,,,,,monkey,,,,,,,,,,,5,2,0,34,34,45,1,,,,,,,,,,,,,,,,,,,,,,,,,,,,,,,,,,,,,,,,,,,,,,,,,,,,,,,,,,,,,,,,,,,,,,
,,?,0.00266,0,,,,,,stimuli/images/PICTURE_123.png,SALE,57cde6e36736cf0001b326e4,08/02/1990,2020-09-02_08h28.11.446,proactive3.2,2020.1.2,Win32,60,5f47c0b9b035471e11593a5c,5f4f81a4275a7403ec8ca83c,5,,,,,,dart,,,,,,,,,,,1,2,0,35,35,8,1,,,,,,,,,,,,,,,,,,,,,,,,,,,,,,,,,,,,,,,,,,,,,,,,,,,,,,,,,,,,,,,,,,,,,,
,,?,0.001185,0,,,,,,stimuli/images/PICTURE_147.png,LEADER,57cde6e36736cf0001b326e4,08/02/1990,2020-09-02_08h28.11.446,proactive3.2,2020.1.2,Win32,60,5f47c0b9b035471e11593a5c,5f4f81a4275a7403ec8ca83c,5,,,,,,hanger,,,,,,,,,,,4,2,0,36,36,33,1,,,,,,,,,,,,,,,,,,,,,,,,,,,,,,,,,,,,,,,,,,,,,,,,,,,,,,,,,,,,,,,,,,,,,,
,,?,0.001285,0,,,,,,stimuli/images/PICTURE_405.png,HOUSE,57cde6e36736cf0001b326e4,08/02/1990,2020-09-02_08h28.11.446,proactive3.2,2020.1.2,Win32,60,5f47c0b9b035471e11593a5c,5f4f81a4275a7403ec8ca83c,5,,,,,,anchor,,,,,,,,,,,1,2,0,37,37,2,1,,,,,,,,,,,,,,,,,,,,,,,,,,,,,,,,,,,,,,,,,,,,,,,,,,,,,,,,,,,,,,,,,,,,,,
,,?,0.00113,0,,,,,,stimuli/images/PICTURE_311.png,TOILET,57cde6e36736cf0001b326e4,08/02/1990,2020-09-02_08h28.11.446,proactive3.2,2020.1.2,Win32,60,5f47c0b9b035471e11593a5c,5f4f81a4275a7403ec8ca83c,5,,,,,,razor,,,,,,,,,,,6,2,0,38,38,54,1,,,,,,,,,,,,,,,,,,,,,,,,,,,,,,,,,,,,,,,,,,,,,,,,,,,,,,,,,,,,,,,,,,,,,,
,,?,1.972995,0,,,,,,stimuli/images/PICTURE_470.png,MOMENT,57cde6e36736cf0001b326e4,08/02/1990,2020-09-02_08h28.11.446,proactive3.2,2020.1.2,Win32,60,5f47c0b9b035471e11593a5c,5f4f81a4275a7403ec8ca83c,5,,,,,,motorbike,,,,,,,,,,,5,2,0,39,39,40,1,,,,,,,,,,,,,,,,,,,,,,,,,,,,,,,,,,,,,,,,,,,,,,,,,,,,,,,,,,,,,,,,,,,,,,
,,?,0.00157,0,,,,,,stimuli/images/PICTURE_297.png,BODY,57cde6e36736cf0001b326e4,08/02/1990,2020-09-02_08h28.11.446,proactive3.2,2020.1.2,Win32,60,5f47c0b9b035471e11593a5c,5f4f81a4275a7403ec8ca83c,5,,,,,,aeroplane,,,,,,,,,,,6,2,0,40,40,51,1,,,,,,,,,,,,,,,,,,,,,,,,,,,,,,,,,,,,,,,,,,,,,,,,,,,,,,,,,,,,,,,,,,,,,,
,,?,0.00055,0,,,,,,stimuli/images/PICTURE_255.png,PENNY,57cde6e36736cf0001b326e4,08/02/1990,2020-09-02_08h28.11.446,proactive3.2,2020.1.2,Win32,60,5f47c0b9b035471e11593a5c,5f4f81a4275a7403ec8ca83c,5,,,,,,shovel,,,,,,,,,,,2,2,0,41,41,19,1,,,,,,,,,,,,,,,,,,,,,,,,,,,,,,,,,,,,,,,,,,,,,,,,,,,,,,,,,,,,,,,,,,,,,,
,,?,0.00072,0,,,,,,stimuli/images/PICTURE_491.png,SERIES,57cde6e36736cf0001b326e4,08/02/1990,2020-09-02_08h28.11.446,proactive3.2,2020.1.2,Win32,60,5f47c0b9b035471e11593a5c,5f4f81a4275a7403ec8ca83c,5,,,,,,rug,,,,,,,,,,,4,2,0,42,42,39,1,,,,,,,,,,,,,,,,,,,,,,,,,,,,,,,,,,,,,,,,,,,,,,,,,,,,,,,,,,,,,,,,,,,,,,
,,?,0.000555,0,,,,,,stimuli/images/PICTURE_93.png,GIRL,57cde6e36736cf0001b326e4,08/02/1990,2020-09-02_08h28.11.446,proactive3.2,2020.1.2,Win32,60,5f47c0b9b035471e11593a5c,5f4f81a4275a7403ec8ca83c,5,,,,,,skateboard,,,,,,,,,,,4,2,0,43,43,31,1,,,,,,,,,,,,,,,,,,,,,,,,,,,,,,,,,,,,,,,,,,,,,,,,,,,,,,,,,,,,,,,,,,,,,,
,,?,0.000505,0,,,,,,stimuli/images/PICTURE_487.png,POLICY,57cde6e36736cf0001b326e4,08/02/1990,2020-09-02_08h28.11.446,proactive3.2,2020.1.2,Win32,60,5f47c0b9b035471e11593a5c,5f4f81a4275a7403ec8ca83c,5,,,,,,basket,,,,,,,,,,,4,2,0,44,44,34,1,,,,,,,,,,,,,,,,,,,,,,,,,,,,,,,,,,,,,,,,,,,,,,,,,,,,,,,,,,,,,,,,,,,,,,
,,?,0.000535,0,,,,,,stimuli/images/PICTURE_285.png,PRINCE,57cde6e36736cf0001b326e4,08/02/1990,2020-09-02_08h28.11.446,proactive3.2,2020.1.2,Win32,60,5f47c0b9b035471e11593a5c,5f4f81a4275a7403ec8ca83c,5,,,,,,carrot,,,,,,,,,,,3,2,0,45,45,20,1,,,,,,,,,,,,,,,,,,,,,,,,,,,,,,,,,,,,,,,,,,,,,,,,,,,,,,,,,,,,,,,,,,,,,,
,,?,0.000605,0,,,,,,stimuli/images/PICTURE_160.png,HOTEL,57cde6e36736cf0001b326e4,08/02/1990,2020-09-02_08h28.11.446,proactive3.2,2020.1.2,Win32,60,5f47c0b9b035471e11593a5c,5f4f81a4275a7403ec8ca83c,5,,,,,,wheelbarrow,,,,,,,,,,,2,2,0,46,46,16,1,,,,,,,,,,,,,,,,,,,,,,,,,,,,,,,,,,,,,,,,,,,,,,,,,,,,,,,,,,,,,,,,,,,,,,
,,?,0.00071,0,,,,,,stimuli/images/PICTURE_141.png,CLIENT,57cde6e36736cf0001b326e4,08/02/1990,2020-09-02_08h28.11.446,proactive3.2,2020.1.2,Win32,60,5f47c0b9b035471e11593a5c,5f4f81a4275a7403ec8ca83c,5,,,,,,sunflower,,,,,,,,,,,4,2,0,47,47,30,1,,,,,,,,,,,,,,,,,,,,,,,,,,,,,,,,,,,,,,,,,,,,,,,,,,,,,,,,,,,,,,,,,,,,,,
,,?,0.002185,0,,,,,,stimuli/images/PICTURE_405.png,JUNGLE,57cde6e36736cf0001b326e4,08/02/1990,2020-09-02_08h28.11.446,proactive3.2,2020.1.2,Win32,60,5f47c0b9b035471e11593a5c,5f4f81a4275a7403ec8ca83c,5,,,,,,anchor,,,,,,,,,,,2,2,0,48,48,13,1,,,,,,,,,,,,,,,,,,,,,,,,,,,,,,,,,,,,,,,,,,,,,,,,,,,,,,,,,,,,,,,,,,,,,,
,,?,0.000575,0,,,,,,stimuli/images/PICTURE_2.png,YARD,57cde6e36736cf0001b326e4,08/02/1990,2020-09-02_08h28.11.446,proactive3.2,2020.1.2,Win32,60,5f47c0b9b035471e11593a5c,5f4f81a4275a7403ec8ca83c,5,,,,,,tyre,,,,,,,,,,,6,2,0,49,49,55,1,,,,,,,,,,,,,,,,,,,,,,,,,,,,,,,,,,,,,,,,,,,,,,,,,,,,,,,,,,,,,,,,,,,,,,
,,?,0.000565,0,,,,,,stimuli/images/PICTURE_403.png,FAMILY,57cde6e36736cf0001b326e4,08/02/1990,2020-09-02_08h28.11.446,proactive3.2,2020.1.2,Win32,60,5f47c0b9b035471e11593a5c,5f4f81a4275a7403ec8ca83c,5,,,,,,cathedral,,,,,,,,,,,1,2,0,50,50,9,1,,,,,,,,,,,,,,,,,,,,,,,,,,,,,,,,,,,,,,,,,,,,,,,,,,,,,,,,,,,,,,,,,,,,,,
,,?,0.0008,0,,,,,,stimuli/images/PICTURE_509.png,SHOTS,57cde6e36736cf0001b326e4,08/02/1990,2020-09-02_08h28.11.446,proactive3.2,2020.1.2,Win32,60,5f47c0b9b035471e11593a5c,5f4f81a4275a7403ec8ca83c,5,,,,,,telephone,,,,,,,,,,,1,2,0,51,51,7,1,,,,,,,,,,,,,,,,,,,,,,,,,,,,,,,,,,,,,,,,,,,,,,,,,,,,,,,,,,,,,,,,,,,,,,
,,?,0.000605,0,,,,,,stimuli/images/PICTURE_655.png,SALE,57cde6e36736cf0001b326e4,08/02/1990,2020-09-02_08h28.11.446,proactive3.2,2020.1.2,Win32,60,5f47c0b9b035471e11593a5c,5f4f81a4275a7403ec8ca83c,5,,,,,,megaphone,,,,,,,,,,,6,2,0,52,52,57,1,,,,,,,,,,,,,,,,,,,,,,,,,,,,,,,,,,,,,,,,,,,,,,,,,,,,,,,,,,,,,,,,,,,,,,
,,?,0.00114,0,,,,,,stimuli/images/PICTURE_2.png,AREA,57cde6e36736cf0001b326e4,08/02/1990,2020-09-02_08h28.11.446,proactive3.2,2020.1.2,Win32,60,5f47c0b9b035471e11593a5c,5f4f81a4275a7403ec8ca83c,5,,,,,,tyre,,,,,,,,,,,4,2,0,53,53,32,1,,,,,,,,,,,,,,,,,,,,,,,,,,,,,,,,,,,,,,,,,,,,,,,,,,,,,,,,,,,,,,,,,,,,,,
,,?,0.000565,0,,,,,,stimuli/images/PICTURE_509.png,BATH,57cde6e36736cf0001b326e4,08/02/1990,2020-09-02_08h28.11.446,proactive3.2,2020.1.2,Win32,60,5f47c0b9b035471e11593a5c,5f4f81a4275a7403ec8ca83c,5,,,,,,telephone,,,,,,,,,,,2,2,0,54,54,15,1,,,,,,,,,,,,,,,,,,,,,,,,,,,,,,,,,,,,,,,,,,,,,,,,,,,,,,,,,,,,,,,,,,,,,,
,,?,0.00051,0,,,,,,stimuli/images/PICTURE_487.png,ROOF,57cde6e36736cf0001b326e4,08/02/1990,2020-09-02_08h28.11.446,proactive3.2,2020.1.2,Win32,60,5f47c0b9b035471e11593a5c,5f4f81a4275a7403ec8ca83c,5,,,,,,basket,,,,,,,,,,,6,2,0,55,55,50,1,,,,,,,,,,,,,,,,,,,,,,,,,,,,,,,,,,,,,,,,,,,,,,,,,,,,,,,,,,,,,,,,,,,,,,
,,?,0.00052,0,,,,,,stimuli/images/PICTURE_677.png,PHOTO,57cde6e36736cf0001b326e4,08/02/1990,2020-09-02_08h28.11.446,proactive3.2,2020.1.2,Win32,60,5f47c0b9b035471e11593a5c,5f4f81a4275a7403ec8ca83c,5,,,,,,map,,,,,,,,,,,2,2,0,56,56,14,1,,,,,,,,,,,,,,,,,,,,,,,,,,,,,,,,,,,,,,,,,,,,,,,,,,,,,,,,,,,,,,,,,,,,,,
,,?,4.252305,0,,,,,,stimuli/images/PICTURE_453.png,FAMILY,57cde6e36736cf0001b326e4,08/02/1990,2020-09-02_08h28.11.446,proactive3.2,2020.1.2,Win32,60,5f47c0b9b035471e11593a5c,5f4f81a4275a7403ec8ca83c,5,,,,,,scissors,,,,,,,,,,,5,2,0,57,57,48,1,,,,,,,,,,,,,,,,,,,,,,,,,,,,,,,,,,,,,,,,,,,,,,,,,,,,,,,,,,,,,,,,,,,,,,
,,?,0.000935,0,,,,,,stimuli/images/PICTURE_95.png,NIGHT,57cde6e36736cf0001b326e4,08/02/1990,2020-09-02_08h28.11.446,proactive3.2,2020.1.2,Win32,60,5f47c0b9b035471e11593a5c,5f4f81a4275a7403ec8ca83c,5,,,,,,suitcase,,,,,,,,,,,4,2,0,58,58,37,1,,,,,,,,,,,,,,,,,,,,,,,,,,,,,,,,,,,,,,,,,,,,,,,,,,,,,,,,,,,,,,,,,,,,,,
,,?,0.000645,0,,,,,,stimuli/images/PICTURE_285.png,WRITER,57cde6e36736cf0001b326e4,08/02/1990,2020-09-02_08h28.11.446,proactive3.2,2020.1.2,Win32,60,5f47c0b9b035471e11593a5c,5f4f81a4275a7403ec8ca83c,5,,,,,,carrot,,,,,,,,,,,1,2,0,59,59,6,1,,,,,,,,,,,,,,,,,,,,,,,,,,,,,,,,,,,,,,,,,,,,,,,,,,,,,,,,,,,,,,,,,,,,,,
,,,,,,,,,,,,57cde6e36736cf0001b326e4,08/02/1990,2020-09-02_08h28.11.446,proactive3.2,2020.1.2,Win32,60,5f47c0b9b035471e11593a5c,5f4f81a4275a7403ec8ca83c,5,,,,,,,,,,,,,,,,,,,,,,,,0,1,1,2,1,stimuli/learn-block3.csv,,,,,,,,,,,,,,,,,,,,,,,,,,,,,,,,,,,,,,,,,,,,,,,,,,,,,,,,,,,,,,,,
,,,,,,,,,,stimuli/images/PICTURE_147.png,MOMENT,57cde6e36736cf0001b326e4,08/02/1990,2020-09-02_08h28.11.446,proactive3.2,2020.1.2,Win32,60,5f47c0b9b035471e11593a5c,5f4f81a4275a7403ec8ca83c,5,,,,,,hanger,,,,,,0,0,0,51,1,6,0,,,,,,,,,,,,,,,,,,,,,,,,,,,,,,,,,,,,,,,,,,,,,,,,,,,,,,,,,,,,,,,,,,,,,,,,,,,
,,,,,,,,,,stimuli/images/PICTURE_248.png,DOZEN,57cde6e36736cf0001b326e4,08/02/1990,2020-09-02_08h28.11.446,proactive3.2,2020.1.2,Win32,60,5f47c0b9b035471e11593a5c,5f4f81a4275a7403ec8ca83c,5,,,,,,cart,,,,,,0,1,1,39,1,4,0,,,,,,,,,,,,,,,,,,,,,,,,,,,,,,,,,,,,,,,,,,,,,,,,,,,,,,,,,,,,,,,,,,,,,,,,,,,
,,,,,,,,,,stimuli/images/PICTURE_68.png,MILE,57cde6e36736cf0001b326e4,08/02/1990,2020-09-02_08h28.11.446,proactive3.2,2020.1.2,Win32,60,5f47c0b9b035471e11593a5c,5f4f81a4275a7403ec8ca83c,5,,,,,,candle,,,,,,0,2,2,44,1,5,0,,,,,,,,,,,,,,,,,,,,,,,,,,,,,,,,,,,,,,,,,,,,,,,,,,,,,,,,,,,,,,,,,,,,,,,,,,,
,,,,,,,,,,stimuli/images/PICTURE_356.png,DANGER,57cde6e36736cf0001b326e4,08/02/1990,2020-09-02_08h28.11.446,proactive3.2,2020.1.2,Win32,60,5f47c0b9b035471e11593a5c,5f4f81a4275a7403ec8ca83c,5,,,,,,pawn,,,,,,0,3,3,55,1,6,0,,,,,,,,,,,,,,,,,,,,,,,,,,,,,,,,,,,,,,,,,,,,,,,,,,,,,,,,,,,,,,,,,,,,,,,,,,,
,,,,,,,,,,stimuli/images/PICTURE_654.png,VALLEY,57cde6e36736cf0001b326e4,08/02/1990,2020-09-02_08h28.11.446,proactive3.2,2020.1.2,Win32,60,5f47c0b9b035471e11593a5c,5f4f81a4275a7403ec8ca83c,5,,,,,,pencil,,,,,,0,4,4,1,1,1,0,,,,,,,,,,,,,,,,,,,,,,,,,,,,,,,,,,,,,,,,,,,,,,,,,,,,,,,,,,,,,,,,,,,,,,,,,,,
,,,,,,,,,,stimuli/images/PICTURE_692.png,MONTH,57cde6e36736cf0001b326e4,08/02/1990,2020-09-02_08h28.11.446,proactive3.2,2020.1.2,Win32,60,5f47c0b9b035471e11593a5c,5f4f81a4275a7403ec8ca83c,5,,,,,,cherry,,,,,,0,5,5,16,1,2,0,,,,,,,,,,,,,,,,,,,,,,,,,,,,,,,,,,,,,,,,,,,,,,,,,,,,,,,,,,,,,,,,,,,,,,,,,,,
,,,,,,,,,,stimuli/images/PICTURE_32.png,JUNGLE,57cde6e36736cf0001b326e4,08/02/1990,2020-09-02_08h28.11.446,proactive3.2,2020.1.2,Win32,60,5f47c0b9b035471e11593a5c,5f4f81a4275a7403ec8ca83c,5,,,,,,crown,,,,,,0,6,6,45,1,5,0,,,,,,,,,,,,,,,,,,,,,,,,,,,,,,,,,,,,,,,,,,,,,,,,,,,,,,,,,,,,,,,,,,,,,,,,,,,
,,,,,,,,,,stimuli/images/PICTURE_311.png,FRIEND,57cde6e36736cf0001b326e4,08/02/1990,2020-09-02_08h28.11.446,proactive3.2,2020.1.2,Win32,60,5f47c0b9b035471e11593a5c,5f4f81a4275a7403ec8ca83c,5,,,,,,razor,,,,,,0,7,7,34,1,4,0,,,,,,,,,,,,,,,,,,,,,,,,,,,,,,,,,,,,,,,,,,,,,,,,,,,,,,,,,,,,,,,,,,,,,,,,,,,
,,,,,,,,,,stimuli/images/PICTURE_688.png,WOMEN,57cde6e36736cf0001b326e4,08/02/1990,2020-09-02_08h28.11.446,proactive3.2,2020.1.2,Win32,60,5f47c0b9b035471e11593a5c,5f4f81a4275a7403ec8ca83c,5,,,,,,runner,,,,,,0,8,8,14,1,2,0,,,,,,,,,,,,,,,,,,,,,,,,,,,,,,,,,,,,,,,,,,,,,,,,,,,,,,,,,,,,,,,,,,,,,,,,,,,
,,,,,,,,,,stimuli/images/PICTURE_469.png,LETTER,57cde6e36736cf0001b326e4,08/02/1990,2020-09-02_08h28.11.446,proactive3.2,2020.1.2,Win32,60,5f47c0b9b035471e11593a5c,5f4f81a4275a7403ec8ca83c,5,,,,,,stool,,,,,,0,9,9,42,1,5,0,,,,,,,,,,,,,,,,,,,,,,,,,,,,,,,,,,,,,,,,,,,,,,,,,,,,,,,,,,,,,,,,,,,,,,,,,,,
,,,,,,,,,,stimuli/images/PICTURE_233.png,IDEAS,57cde6e36736cf0001b326e4,08/02/1990,2020-09-02_08h28.11.446,proactive3.2,2020.1.2,Win32,60,5f47c0b9b035471e11593a5c,5f4f81a4275a7403ec8ca83c,5,,,,,,salt,,,,,,0,10,10,28,1,3,0,,,,,,,,,,,,,,,,,,,,,,,,,,,,,,,,,,,,,,,,,,,,,,,,,,,,,,,,,,,,,,,,,,,,,,,,,,,
,,,,,,,,,,stimuli/images/PICTURE_123.png,ADVICE,57cde6e36736cf0001b326e4,08/02/1990,2020-09-02_08h28.11.446,proactive3.2,2020.1.2,Win32,60,5f47c0b9b035471e11593a5c,5f4f81a4275a7403ec8ca83c,5,,,,,,dart,,,,,,0,11,11,40,1,5,0,,,,,,,,,,,,,,,,,,,,,,,,,,,,,,,,,,,,,,,,,,,,,,,,,,,,,,,,,,,,,,,,,,,,,,,,,,,
,,,,,,,,,,stimuli/images/PICTURE_123.png,ADVICE,57cde6e36736cf0001b326e4,08/02/1990,2020-09-02_08h28.11.446,proactive3.2,2020.1.2,Win32,60,5f47c0b9b035471e11593a5c,5f4f81a4275a7403ec8ca83c,5,,,,,,dart,,,,,,0,12,12,50,1,6,0,,,,,,,,,,,,,,,,,,,,,,,,,,,,,,,,,,,,,,,,,,,,,,,,,,,,,,,,,,,,,,,,,,,,,,,,,,,
,,,,,,,,,,stimuli/images/PICTURE_380.png,DEATH,57cde6e36736cf0001b326e4,08/02/1990,2020-09-02_08h28.11.446,proactive3.2,2020.1.2,Win32,60,5f47c0b9b035471e11593a5c,5f4f81a4275a7403ec8ca83c,5,,,,,,gorilla,,,,,,0,13,13,49,1,5,0,,,,,,,,,,,,,,,,,,,,,,,,,,,,,,,,,,,,,,,,,,,,,,,,,,,,,,,,,,,,,,,,,,,,,,,,,,,
,,,,,,,,,,stimuli/images/PICTURE_151.png,GIRL,57cde6e36736cf0001b326e4,08/02/1990,2020-09-02_08h28.11.446,proactive3.2,2020.1.2,Win32,60,5f47c0b9b035471e11593a5c,5f4f81a4275a7403ec8ca83c,5,,,,,,tray,,,,,,0,14,14,19,1,2,0,,,,,,,,,,,,,,,,,,,,,,,,,,,,,,,,,,,,,,,,,,,,,,,,,,,,,,,,,,,,,,,,,,,,,,,,,,,
,,,,,,,,,,stimuli/images/PICTURE_744.png,SYSTEM,57cde6e36736cf0001b326e4,08/02/1990,2020-09-02_08h28.11.446,proactive3.2,2020.1.2,Win32,60,5f47c0b9b035471e11593a5c,5f4f81a4275a7403ec8ca83c,5,,,,,,ring,,,,,,0,15,15,43,1,5,0,,,,,,,,,,,,,,,,,,,,,,,,,,,,,,,,,,,,,,,,,,,,,,,,,,,,,,,,,,,,,,,,,,,,,,,,,,,
,,,,,,,,,,stimuli/images/PICTURE_177.png,CARS,57cde6e36736cf0001b326e4,08/02/1990,2020-09-02_08h28.11.446,proactive3.2,2020.1.2,Win32,60,5f47c0b9b035471e11593a5c,5f4f81a4275a7403ec8ca83c,5,,,,,,mushroom,,,,,,0,16,16,35,1,4,0,,,,,,,,,,,,,,,,,,,,,,,,,,,,,,,,,,,,,,,,,,,,,,,,,,,,,,,,,,,,,,,,,,,,,,,,,,,
,,,,,,,,,,stimuli/images/PICTURE_327.png,BEAUTY,57cde6e36736cf0001b326e4,08/02/1990,2020-09-02_08h28.11.446,proactive3.2,2020.1.2,Win32,60,5f47c0b9b035471e11593a5c,5f4f81a4275a7403ec8ca83c,5,,,,,,helmet,,,,,,0,17,17,48,1,5,0,,,,,,,,,,,,,,,,,,,,,,,,,,,,,,,,,,,,,,,,,,,,,,,,,,,,,,,,,,,,,,,,,,,,,,,,,,,
,,,,,,,,,,stimuli/images/PICTURE_285.png,ADVICE,57cde6e36736cf0001b326e4,08/02/1990,2020-09-02_08h28.11.446,proactive3.2,2020.1.2,Win32,60,5f47c0b9b035471e11593a5c,5f4f81a4275a7403ec8ca83c,5,,,,,,carrot,,,,,,0,18,18,12,1,2,0,,,,,,,,,,,,,,,,,,,,,,,,,,,,,,,,,,,,,,,,,,,,,,,,,,,,,,,,,,,,,,,,,,,,,,,,,,,
,,,,,,,,,,stimuli/images/PICTURE_208.png,LOTS,57cde6e36736cf0001b326e4,08/02/1990,2020-09-02_08h28.11.446,proactive3.2,2020.1.2,Win32,60,5f47c0b9b035471e11593a5c,5f4f81a4275a7403ec8ca83c,5,,,,,,microphone,,,,,,0,19,19,10,1,2,0,,,,,,,,,,,,,,,,,,,,,,,,,,,,,,,,,,,,,,,,,,,,,,,,,,,,,,,,,,,,,,,,,,,,,,,,,,,
,,,,,,,,,,stimuli/images/PICTURE_469.png,ARTIST,57cde6e36736cf0001b326e4,08/02/1990,2020-09-02_08h28.11.446,proactive3.2,2020.1.2,Win32,60,5f47c0b9b035471e11593a5c,5f4f81a4275a7403ec8ca83c,5,,,,,,stool,,,,,,0,20,20,6,1,1,0,,,,,,,,,,,,,,,,,,,,,,,,,,,,,,,,,,,,,,,,,,,,,,,,,,,,,,,,,,,,,,,,,,,,,,,,,,,
,,,,,,,,,,stimuli/images/PICTURE_95.png,STYLE,57cde6e36736cf0001b326e4,08/02/1990,2020-09-02_08h28.11.446,proactive3.2,2020.1.2,Win32,60,5f47c0b9b035471e11593a5c,5f4f81a4275a7403ec8ca83c,5,,,,,,suitcase,,,,,,0,21,21,25,1,3,0,,,,,,,,,,,,,,,,,,,,,,,,,,,,,,,,,,,,,,,,,,,,,,,,,,,,,,,,,,,,,,,,,,,,,,,,,,,
,,,,,,,,,,stimuli/images/PICTURE_667.png,PLENTY,57cde6e36736cf0001b326e4,08/02/1990,2020-09-02_08h28.11.446,proactive3.2,2020.1.2,Win32,60,5f47c0b9b035471e11593a5c,5f4f81a4275a7403ec8ca83c,5,,,,,,daisy,,,,,,0,22,22,41,1,5,0,,,,,,,,,,,,,,,,,,,,,,,,,,,,,,,,,,,,,,,,,,,,,,,,,,,,,,,,,,,,,,,,,,,,,,,,,,,
,,,,,,,,,,stimuli/images/PICTURE_453.png,DUDE,57cde6e36736cf0001b326e4,08/02/1990,2020-09-02_08h28.11.446,proactive3.2,2020.1.2,Win32,60,5f47c0b9b035471e11593a5c,5f4f81a4275a7403ec8ca83c,5,,,,,,scissors,,,,,,0,23,23,27,1,3,0,,,,,,,,,,,,,,,,,,,,,,,,,,,,,,,,,,,,,,,,,,,,,,,,,,,,,,,,,,,,,,,,,,,,,,,,,,,
,,,,,,,,,,stimuli/images/PICTURE_488.png,STYLE,57cde6e36736cf0001b326e4,08/02/1990,2020-09-02_08h28.11.446,proactive3.2,2020.1.2,Win32,60,5f47c0b9b035471e11593a5c,5f4f81a4275a7403ec8ca83c,5,,,,,,sun,,,,,,0,24,24,33,1,4,0,,,,,,,,,,,,,,,,,,,,,,,,,,,,,,,,,,,,,,,,,,,,,,,,,,,,,,,,,,,,,,,,,,,,,,,,,,,
,,,,,,,,,,stimuli/images/PICTURE_491.png,ROOF,57cde6e36736cf0001b326e4,08/02/1990,2020-09-02_08h28.11.446,proactive3.2,2020.1.2,Win32,60,5f47c0b9b035471e11593a5c,5f4f81a4275a7403ec8ca83c,5,,,,,,rug,,,,,,0,25,25,24,1,3,0,,,,,,,,,,,,,,,,,,,,,,,,,,,,,,,,,,,,,,,,,,,,,,,,,,,,,,,,,,,,,,,,,,,,,,,,,,,
,,,,,,,,,,stimuli/images/PICTURE_380.png,PHOTO,57cde6e36736cf0001b326e4,08/02/1990,2020-09-02_08h28.11.446,proactive3.2,2020.1.2,Win32,60,5f47c0b9b035471e11593a5c,5f4f81a4275a7403ec8ca83c,5,,,,,,gorilla,,,,,,0,26,26,52,1,6,0,,,,,,,,,,,,,,,,,,,,,,,,,,,,,,,,,,,,,,,,,,,,,,,,,,,,,,,,,,,,,,,,,,,,,,,,,,,
,,,,,,,,,,stimuli/images/PICTURE_308.png,ESTATE,57cde6e36736cf0001b326e4,08/02/1990,2020-09-02_08h28.11.446,proactive3.2,2020.1.2,Win32,60,5f47c0b9b035471e11593a5c,5f4f81a4275a7403ec8ca83c,5,,,,,,dice,,,,,,0,27,27,46,1,5,0,,,,,,,,,,,,,,,,,,,,,,,,,,,,,,,,,,,,,,,,,,,,,,,,,,,,,,,,,,,,,,,,,,,,,,,,,,,
,,,,,,,,,,stimuli/images/PICTURE_302.png,FAMILY,57cde6e36736cf0001b326e4,08/02/1990,2020-09-02_08h28.11.446,proactive3.2,2020.1.2,Win32,60,5f47c0b9b035471e11593a5c,5f4f81a4275a7403ec8ca83c,5,,,,,,taxi,,,,,,0,28,28,18,1,2,0,,,,,,,,,,,,,,,,,,,,,,,,,,,,,,,,,,,,,,,,,,,,,,,,,,,,,,,,,,,,,,,,,,,,,,,,,,,
,,,,,,,,,,stimuli/images/PICTURE_667.png,BATH,57cde6e36736cf0001b326e4,08/02/1990,2020-09-02_08h28.11.446,proactive3.2,2020.1.2,Win32,60,5f47c0b9b035471e11593a5c,5f4f81a4275a7403ec8ca83c,5,,,,,,daisy,,,,,,0,29,29,4,1,1,0,,,,,,,,,,,,,,,,,,,,,,,,,,,,,,,,,,,,,,,,,,,,,,,,,,,,,,,,,,,,,,,,,,,,,,,,,,,
,,,,,,,,,,stimuli/images/PICTURE_314.png,SAKE,57cde6e36736cf0001b326e4,08/02/1990,2020-09-02_08h28.11.446,proactive3.2,2020.1.2,Win32,60,5f47c0b9b035471e11593a5c,5f4f81a4275a7403ec8ca83c,5,,,,,,perfume,,,,,,0,30,30,7,1,1,0,,,,,,,,,,,,,,,,,,,,,,,,,,,,,,,,,,,,,,,,,,,,,,,,,,,,,,,,,,,,,,,,,,,,,,,,,,,
,,,,,,,,,,stimuli/images/PICTURE_453.png,PLENTY,57cde6e36736cf0001b326e4,08/02/1990,2020-09-02_08h28.11.446,proactive3.2,2020.1.2,Win32,60,5f47c0b9b035471e11593a5c,5f4f81a4275a7403ec8ca83c,5,,,,,,scissors,,,,,,0,31,31,56,1,6,0,,,,,,,,,,,,,,,,,,,,,,,,,,,,,,,,,,,,,,,,,,,,,,,,,,,,,,,,,,,,,,,,,,,,,,,,,,,
,,,,,,,,,,stimuli/images/PICTURE_233.png,WOMEN,57cde6e36736cf0001b326e4,08/02/1990,2020-09-02_08h28.11.446,proactive3.2,2020.1.2,Win32,60,5f47c0b9b035471e11593a5c,5f4f81a4275a7403ec8ca83c,5,,,,,,salt,,,,,,0,32,32,38,1,4,0,,,,,,,,,,,,,,,,,,,,,,,,,,,,,,,,,,,,,,,,,,,,,,,,,,,,,,,,,,,,,,,,,,,,,,,,,,,
,,,,,,,,,,stimuli/images/PICTURE_203.png,ARTIST,57cde6e36736cf0001b326e4,08/02/1990,2020-09-02_08h28.11.446,proactive3.2,2020.1.2,Win32,60,5f47c0b9b035471e11593a5c,5f4f81a4275a7403ec8ca83c,5,,,,,,cap,,,,,,0,33,33,26,1,3,0,,,,,,,,,,,,,,,,,,,,,,,,,,,,,,,,,,,,,,,,,,,,,,,,,,,,,,,,,,,,,,,,,,,,,,,,,,,
,,,,,,,,,,stimuli/images/PICTURE_708.png,PENNY,57cde6e36736cf0001b326e4,08/02/1990,2020-09-02_08h28.11.446,proactive3.2,2020.1.2,Win32,60,5f47c0b9b035471e11593a5c,5f4f81a4275a7403ec8ca83c,5,,,,,,monkey,,,,,,0,34,34,31,1,4,0,,,,,,,,,,,,,,,,,,,,,,,,,,,,,,,,,,,,,,,,,,,,,,,,,,,,,,,,,,,,,,,,,,,,,,,,,,,
,,,,,,,,,,stimuli/images/PICTURE_744.png,SAKE,57cde6e36736cf0001b326e4,08/02/1990,2020-09-02_08h28.11.446,proactive3.2,2020.1.2,Win32,60,5f47c0b9b035471e11593a5c,5f4f81a4275a7403ec8ca83c,5,,,,,,ring,,,,,,0,35,35,17,1,2,0,,,,,,,,,,,,,,,,,,,,,,,,,,,,,,,,,,,,,,,,,,,,,,,,,,,,,,,,,,,,,,,,,,,,,,,,,,,
,,,,,,,,,,stimuli/images/PICTURE_311.png,BEAUTY,57cde6e36736cf0001b326e4,08/02/1990,2020-09-02_08h28.11.446,proactive3.2,2020.1.2,Win32,60,5f47c0b9b035471e11593a5c,5f4f81a4275a7403ec8ca83c,5,,,,,,razor,,,,,,0,36,36,13,1,2,0,,,,,,,,,,,,,,,,,,,,,,,,,,,,,,,,,,,,,,,,,,,,,,,,,,,,,,,,,,,,,,,,,,,,,,,,,,,
,,,,,,,,,,stimuli/images/PICTURE_467.png,DEMON,57cde6e36736cf0001b326e4,08/02/1990,2020-09-02_08h28.11.446,proactive3.2,2020.1.2,Win32,60,5f47c0b9b035471e11593a5c,5f4f81a4275a7403ec8ca83c,5,,,,,,peg,,,,,,0,37,37,23,1,3,0,,,,,,,,,,,,,,,,,,,,,,,,,,,,,,,,,,,,,,,,,,,,,,,,,,,,,,,,,,,,,,,,,,,,,,,,,,,
,,,,,,,,,,stimuli/images/PICTURE_308.png,KIND,57cde6e36736cf0001b326e4,08/02/1990,2020-09-02_08h28.11.446,proactive3.2,2020.1.2,Win32,60,5f47c0b9b035471e11593a5c,5f4f81a4275a7403ec8ca83c,5,,,,,,dice,,,,,,0,38,38,54,1,6,0,,,,,,,,,,,,,,,,,,,,,,,,,,,,,,,,,,,,,,,,,,,,,,,,,,,,,,,,,,,,,,,,,,,,,,,,,,,
,,,,,,,,,,stimuli/images/PICTURE_255.png,AREA,57cde6e36736cf0001b326e4,08/02/1990,2020-09-02_08h28.11.446,proactive3.2,2020.1.2,Win32,60,5f47c0b9b035471e11593a5c,5f4f81a4275a7403ec8ca83c,5,,,,,,shovel,,,,,,0,39,39,22,1,3,0,,,,,,,,,,,,,,,,,,,,,,,,,,,,,,,,,,,,,,,,,,,,,,,,,,,,,,,,,,,,,,,,,,,,,,,,,,,
,,,,,,,,,,stimuli/images/PICTURE_208.png,THING,57cde6e36736cf0001b326e4,08/02/1990,2020-09-02_08h28.11.446,proactive3.2,2020.1.2,Win32,60,5f47c0b9b035471e11593a5c,5f4f81a4275a7403ec8ca83c,5,,,,,,microphone,,,,,,0,40,40,47,1,5,0,,,,,,,,,,,,,,,,,,,,,,,,,,,,,,,,,,,,,,,,,,,,,,,,,,,,,,,,,,,,,,,,,,,,,,,,,,,
,,,,,,,,,,stimuli/images/PICTURE_675.png,WEAPON,57cde6e36736cf0001b326e4,08/02/1990,2020-09-02_08h28.11.446,proactive3.2,2020.1.2,Win32,60,5f47c0b9b035471e11593a5c,5f4f81a4275a7403ec8ca83c,5,,,,,,windmill,,,,,,0,41,41,32,1,4,0,,,,,,,,,,,,,,,,,,,,,,,,,,,,,,,,,,,,,,,,,,,,,,,,,,,,,,,,,,,,,,,,,,,,,,,,,,,
,,,,,,,,,,stimuli/images/PICTURE_314.png,GODS,57cde6e36736cf0001b326e4,08/02/1990,2020-09-02_08h28.11.446,proactive3.2,2020.1.2,Win32,60,5f47c0b9b035471e11593a5c,5f4f81a4275a7403ec8ca83c,5,,,,,,perfume,,,,,,0,42,42,11,1,2,0,,,,,,,,,,,,,,,,,,,,,,,,,,,,,,,,,,,,,,,,,,,,,,,,,,,,,,,,,,,,,,,,,,,,,,,,,,,
,,,,,,,,,,stimuli/images/PICTURE_449.png,THING,57cde6e36736cf0001b326e4,08/02/1990,2020-09-02_08h28.11.446,proactive3.2,2020.1.2,Win32,60,5f47c0b9b035471e11593a5c,5f4f81a4275a7403ec8ca83c,5,,,,,,bench,,,,,,0,43,43,59,1,6,0,,,,,,,,,,,,,,,,,,,,,,,,,,,,,,,,,,,,,,,,,,,,,,,,,,,,,,,,,,,,,,,,,,,,,,,,,,,
,,,,,,,,,,stimuli/images/PICTURE_339.png,PLENTY,57cde6e36736cf0001b326e4,08/02/1990,2020-09-02_08h28.11.446,proactive3.2,2020.1.2,Win32,60,5f47c0b9b035471e11593a5c,5f4f81a4275a7403ec8ca83c,5,,,,,,backpack,,,,,,0,44,44,0,1,1,0,,,,,,,,,,,,,,,,,,,,,,,,,,,,,,,,,,,,,,,,,,,,,,,,,,,,,,,,,,,,,,,,,,,,,,,,,,,
,,,,,,,,,,stimuli/images/PICTURE_160.png,FEET,57cde6e36736cf0001b326e4,08/02/1990,2020-09-02_08h28.11.446,proactive3.2,2020.1.2,Win32,60,5f47c0b9b035471e11593a5c,5f4f81a4275a7403ec8ca83c,5,,,,,,wheelbarrow,,,,,,0,45,45,58,1,6,0,,,,,,,,,,,,,,,,,,,,,,,,,,,,,,,,,,,,,,,,,,,,,,,,,,,,,,,,,,,,,,,,,,,,,,,,,,,
,,,,,,,,,,stimuli/images/PICTURE_215.png,PLENTY,57cde6e36736cf0001b326e4,08/02/1990,2020-09-02_08h28.11.446,proactive3.2,2020.1.2,Win32,60,5f47c0b9b035471e11593a5c,5f4f81a4275a7403ec8ca83c,5,,,,,,boot,,,,,,0,46,46,37,1,4,0,,,,,,,,,,,,,,,,,,,,,,,,,,,,,,,,,,,,,,,,,,,,,,,,,,,,,,,,,,,,,,,,,,,,,,,,,,,
,,,,,,,,,,stimuli/images/PICTURE_509.png,PHOTO,57cde6e36736cf0001b326e4,08/02/1990,2020-09-02_08h28.11.446,proactive3.2,2020.1.2,Win32,60,5f47c0b9b035471e11593a5c,5f4f81a4275a7403ec8ca83c,5,,,,,,telephone,,,,,,0,47,47,21,1,3,0,,,,,,,,,,,,,,,,,,,,,,,,,,,,,,,,,,,,,,,,,,,,,,,,,,,,,,,,,,,,,,,,,,,,,,,,,,,
,,,,,,,,,,stimuli/images/PICTURE_160.png,LEADER,57cde6e36736cf0001b326e4,08/02/1990,2020-09-02_08h28.11.446,proactive3.2,2020.1.2,Win32,60,5f47c0b9b035471e11593a5c,5f4f81a4275a7403ec8ca83c,5,,,,,,wheelbarrow,,,,,,0,48,48,3,1,1,0,,,,,,,,,,,,,,,,,,,,,,,,,,,,,,,,,,,,,,,,,,,,,,,,,,,,,,,,,,,,,,,,,,,,,,,,,,,
,,,,,,,,,,stimuli/images/PICTURE_85.png,THING,57cde6e36736cf0001b326e4,08/02/1990,2020-09-02_08h28.11.446,proactive3.2,2020.1.2,Win32,60,5f47c0b9b035471e11593a5c,5f4f81a4275a7403ec8ca83c,5,,,,,,diamond,,,,,,0,49,49,15,1,2,0,,,,,,,,,,,,,,,,,,,,,,,,,,,,,,,,,,,,,,,,,,,,,,,,,,,,,,,,,,,,,,,,,,,,,,,,,,,
,,,,,,,,,,stimuli/images/PICTURE_708.png,YARD,57cde6e36736cf0001b326e4,08/02/1990,2020-09-02_08h28.11.446,proactive3.2,2020.1.2,Win32,60,5f47c0b9b035471e11593a5c,5f4f81a4275a7403ec8ca83c,5,,,,,,monkey,,,,,,0,50,50,29,1,3,0,,,,,,,,,,,,,,,,,,,,,,,,,,,,,,,,,,,,,,,,,,,,,,,,,,,,,,,,,,,,,,,,,,,,,,,,,,,
,,,,,,,,,,stimuli/images/PICTURE_504.png,BODY,57cde6e36736cf0001b326e4,08/02/1990,2020-09-02_08h28.11.446,proactive3.2,2020.1.2,Win32,60,5f47c0b9b035471e11593a5c,5f4f81a4275a7403ec8ca83c,5,,,,,,wheel,,,,,,0,51,51,8,1,1,0,,,,,,,,,,,,,,,,,,,,,,,,,,,,,,,,,,,,,,,,,,,,,,,,,,,,,,,,,,,,,,,,,,,,,,,,,,,
,,,,,,,,,,stimuli/images/PICTURE_677.png,MILE,57cde6e36736cf0001b326e4,08/02/1990,2020-09-02_08h28.11.446,proactive3.2,2020.1.2,Win32,60,5f47c0b9b035471e11593a5c,5f4f81a4275a7403ec8ca83c,5,,,,,,map,,,,,,0,52,52,30,1,4,0,,,,,,,,,,,,,,,,,,,,,,,,,,,,,,,,,,,,,,,,,,,,,,,,,,,,,,,,,,,,,,,,,,,,,,,,,,,
,,,,,,,,,,stimuli/images/PICTURE_487.png,FLIGHT,57cde6e36736cf0001b326e4,08/02/1990,2020-09-02_08h28.11.446,proactive3.2,2020.1.2,Win32,60,5f47c0b9b035471e11593a5c,5f4f81a4275a7403ec8ca83c,5,,,,,,basket,,,,,,0,53,53,9,1,1,0,,,,,,,,,,,,,,,,,,,,,,,,,,,,,,,,,,,,,,,,,,,,,,,,,,,,,,,,,,,,,,,,,,,,,,,,,,,
,,,,,,,,,,stimuli/images/PICTURE_688.png,CASINO,57cde6e36736cf0001b326e4,08/02/1990,2020-09-02_08h28.11.446,proactive3.2,2020.1.2,Win32,60,5f47c0b9b035471e11593a5c,5f4f81a4275a7403ec8ca83c,5,,,,,,runner,,,,,,0,54,54,2,1,1,0,,,,,,,,,,,,,,,,,,,,,,,,,,,,,,,,,,,,,,,,,,,,,,,,,,,,,,,,,,,,,,,,,,,,,,,,,,,
,,,,,,,,,,stimuli/images/PICTURE_348.png,SPEECH,57cde6e36736cf0001b326e4,08/02/1990,2020-09-02_08h28.11.446,proactive3.2,2020.1.2,Win32,60,5f47c0b9b035471e11593a5c,5f4f81a4275a7403ec8ca83c,5,,,,,,pepper,,,,,,0,55,55,20,1,3,0,,,,,,,,,,,,,,,,,,,,,,,,,,,,,,,,,,,,,,,,,,,,,,,,,,,,,,,,,,,,,,,,,,,,,,,,,,,
,,,,,,,,,,stimuli/images/PICTURE_708.png,CLIENT,57cde6e36736cf0001b326e4,08/02/1990,2020-09-02_08h28.11.446,proactive3.2,2020.1.2,Win32,60,5f47c0b9b035471e11593a5c,5f4f81a4275a7403ec8ca83c,5,,,,,,monkey,,,,,,0,56,56,5,1,1,0,,,,,,,,,,,,,,,,,,,,,,,,,,,,,,,,,,,,,,,,,,,,,,,,,,,,,,,,,,,,,,,,,,,,,,,,,,,
,,,,,,,,,,stimuli/images/PICTURE_470.png,CASINO,57cde6e36736cf0001b326e4,08/02/1990,2020-09-02_08h28.11.446,proactive3.2,2020.1.2,Win32,60,5f47c0b9b035471e11593a5c,5f4f81a4275a7403ec8ca83c,5,,,,,,motorbike,,,,,,0,57,57,36,1,4,0,,,,,,,,,,,,,,,,,,,,,,,,,,,,,,,,,,,,,,,,,,,,,,,,,,,,,,,,,,,,,,,,,,,,,,,,,,,
,,,,,,,,,,stimuli/images/PICTURE_491.png,WRITER,57cde6e36736cf0001b326e4,08/02/1990,2020-09-02_08h28.11.446,proactive3.2,2020.1.2,Win32,60,5f47c0b9b035471e11593a5c,5f4f81a4275a7403ec8ca83c,5,,,,,,rug,,,,,,0,58,58,57,1,6,0,,,,,,,,,,,,,,,,,,,,,,,,,,,,,,,,,,,,,,,,,,,,,,,,,,,,,,,,,,,,,,,,,,,,,,,,,,,
,,?,0.00093,0,,,,,,stimuli/images/PICTURE_654.png,VALLEY,57cde6e36736cf0001b326e4,08/02/1990,2020-09-02_08h28.11.446,proactive3.2,2020.1.2,Win32,60,5f47c0b9b035471e11593a5c,5f4f81a4275a7403ec8ca83c,5,,,,,,pencil,,,,,,,,,,,1,0,0,0,0,1,1,,,,,,,,,,,,,,,,,,,,,,,,,,,,,,,,,,,,,,,,,,,,,,,,,,,,,,,,,,,,,,,,,,,,,,
,,THING,1.37145,1,,,,,,stimuli/images/PICTURE_208.png,THING,57cde6e36736cf0001b326e4,08/02/1990,2020-09-02_08h28.11.446,proactive3.2,2020.1.2,Win32,60,5f47c0b9b035471e11593a5c,5f4f81a4275a7403ec8ca83c,5,,,,,,microphone,,,,,,,,,,,5,0,0,1,1,47,1,,,,,,,,,,,,,,,,,,,,,,,,,,,,,,,,,,,,,,,,,,,,,,,,,,,,,,,,,,,,,,,,,,,,,,
,,?,0.00085,0,,,,,,stimuli/images/PICTURE_311.png,BEAUTY,57cde6e36736cf0001b326e4,08/02/1990,2020-09-02_08h28.11.446,proactive3.2,2020.1.2,Win32,60,5f47c0b9b035471e11593a5c,5f4f81a4275a7403ec8ca83c,5,,,,,,razor,,,,,,,,,,,2,0,0,2,2,13,1,,,,,,,,,,,,,,,,,,,,,,,,,,,,,,,,,,,,,,,,,,,,,,,,,,,,,,,,,,,,,,,,,,,,,,
,,?,0.00126,0,,,,,,stimuli/images/PICTURE_215.png,PLENTY,57cde6e36736cf0001b326e4,08/02/1990,2020-09-02_08h28.11.446,proactive3.2,2020.1.2,Win32,60,5f47c0b9b035471e11593a5c,5f4f81a4275a7403ec8ca83c,5,,,,,,boot,,,,,,,,,,,4,0,0,3,3,37,1,,,,,,,,,,,,,,,,,,,,,,,,,,,,,,,,,,,,,,,,,,,,,,,,,,,,,,,,,,,,,,,,,,,,,,
,,?,0.00256,0,,,,,,stimuli/images/PICTURE_449.png,THING,57cde6e36736cf0001b326e4,08/02/1990,2020-09-02_08h28.11.446,proactive3.2,2020.1.2,Win32,60,5f47c0b9b035471e11593a5c,5f4f81a4275a7403ec8ca83c,5,,,,,,bench,,,,,,,,,,,6,0,0,4,4,59,1,,,,,,,,,,,,,,,,,,,,,,,,,,,,,,,,,,,,,,,,,,,,,,,,,,,,,,,,,,,,,,,,,,,,,,
,,?,0.001535,0,,,,,,stimuli/images/PICTURE_692.png,MONTH,57cde6e36736cf0001b326e4,08/02/1990,2020-09-02_08h28.11.446,proactive3.2,2020.1.2,Win32,60,5f47c0b9b035471e11593a5c,5f4f81a4275a7403ec8ca83c,5,,,,,,cherry,,,,,,,,,,,2,0,0,5,5,16,1,,,,,,,,,,,,,,,,,,,,,,,,,,,,,,,,,,,,,,,,,,,,,,,,,,,,,,,,,,,,,,,,,,,,,,
,,?,0.003495,0,,,,,,stimuli/images/PICTURE_453.png,PLENTY,57cde6e36736cf0001b326e4,08/02/1990,2020-09-02_08h28.11.446,proactive3.2,2020.1.2,Win32,60,5f47c0b9b035471e11593a5c,5f4f81a4275a7403ec8ca83c,5,,,,,,scissors,,,,,,,,,,,6,0,0,6,6,56,1,,,,,,,,,,,,,,,,,,,,,,,,,,,,,,,,,,,,,,,,,,,,,,,,,,,,,,,,,,,,,,,,,,,,,,
,,?,0.0006,0,,,,,,stimuli/images/PICTURE_311.png,FRIEND,57cde6e36736cf0001b326e4,08/02/1990,2020-09-02_08h28.11.446,proactive3.2,2020.1.2,Win32,60,5f47c0b9b035471e11593a5c,5f4f81a4275a7403ec8ca83c,5,,,,,,razor,,,,,,,,,,,4,0,0,7,7,34,1,,,,,,,,,,,,,,,,,,,,,,,,,,,,,,,,,,,,,,,,,,,,,,,,,,,,,,,,,,,,,,,,,,,,,,
,,?,0.0038,0,,,,,,stimuli/images/PICTURE_504.png,BODY,57cde6e36736cf0001b326e4,08/02/1990,2020-09-02_08h28.11.446,proactive3.2,2020.1.2,Win32,60,5f47c0b9b035471e11593a5c,5f4f81a4275a7403ec8ca83c,5,,,,,,wheel,,,,,,,,,,,1,0,0,8,8,8,1,,,,,,,,,,,,,,,,,,,,,,,,,,,,,,,,,,,,,,,,,,,,,,,,,,,,,,,,,,,,,,,,,,,,,,
,,SPACE,5.172225,0,,,,,,stimuli/images/PICTURE_32.png,JUNGLE,57cde6e36736cf0001b326e4,08/02/1990,2020-09-02_08h28.11.446,proactive3.2,2020.1.2,Win32,60,5f47c0b9b035471e11593a5c,5f4f81a4275a7403ec8ca83c,5,,,,,,crown,,,,,,,,,,,5,0,0,9,9,45,1,,,,,,,,,,,,,,,,,,,,,,,,,,,,,,,,,,,,,,,,,,,,,,,,,,,,,,,,,,,,,,,,,,,,,,
,,?,0.00071,0,,,,,,stimuli/images/PICTURE_314.png,GODS,57cde6e36736cf0001b326e4,08/02/1990,2020-09-02_08h28.11.446,proactive3.2,2020.1.2,Win32,60,5f47c0b9b035471e11593a5c,5f4f81a4275a7403ec8ca83c,5,,,,,,perfume,,,,,,,,,,,2,0,0,10,10,11,1,,,,,,,,,,,,,,,,,,,,,,,,,,,,,,,,,,,,,,,,,,,,,,,,,,,,,,,,,,,,,,,,,,,,,,
,,?,0.001925,0,,,,,,stimuli/images/PICTURE_469.png,ARTIST,57cde6e36736cf0001b326e4,08/02/1990,2020-09-02_08h28.11.446,proactive3.2,2020.1.2,Win32,60,5f47c0b9b035471e11593a5c,5f4f81a4275a7403ec8ca83c,5,,,,,,stool,,,,,,,,,,,1,0,0,11,11,6,1,,,,,,,,,,,,,,,,,,,,,,,,,,,,,,,,,,,,,,,,,,,,,,,,,,,,,,,,,,,,,,,,,,,,,,
,,?,0.00052,0,,,,,,stimuli/images/PICTURE_203.png,ARTIST,57cde6e36736cf0001b326e4,08/02/1990,2020-09-02_08h28.11.446,proactive3.2,2020.1.2,Win32,60,5f47c0b9b035471e11593a5c,5f4f81a4275a7403ec8ca83c,5,,,,,,cap,,,,,,,,,,,3,0,0,12,12,26,1,,,,,,,,,,,,,,,,,,,,,,,,,,,,,,,,,,,,,,,,,,,,,,,,,,,,,,,,,,,,,,,,,,,,,,
,,?,0.000785,0,,,,,,stimuli/images/PICTURE_248.png,DOZEN,57cde6e36736cf0001b326e4,08/02/1990,2020-09-02_08h28.11.446,proactive3.2,2020.1.2,Win32,60,5f47c0b9b035471e11593a5c,5f4f81a4275a7403ec8ca83c,5,,,,,,cart,,,,,,,,,,,4,0,0,13,13,39,1,,,,,,,,,,,,,,,,,,,,,,,,,,,,,,,,,,,,,,,,,,,,,,,,,,,,,,,,,,,,,,,,,,,,,,
