consent_key.keys,consent_key.rt,recalled,recalled_rt,recall_acc,example_recall.thisRepN,example_recall.thisTrialN,example_recall.thisN,example_recall.thisIndex,example_recall.ran,file,word,participant,please enter your date of birth (dd/mm/yyyy),date,expName,psychopyVersion,OS,frameRate,STUDY_ID,SESSION_ID,list,prac_learn_study_loop.thisRepN,prac_learn_study_loop.thisTrialN,prac_learn_study_loop.thisN,prac_learn_study_loop.thisIndex,prac_learn_study_loop.ran,image,prac_learn_test_loop.thisRepN,prac_learn_test_loop.thisTrialN,prac_learn_test_loop.thisN,prac_learn_test_loop.thisIndex,prac_learn_test_loop.ran,learn_study_loop.thisRepN,learn_study_loop.thisTrialN,learn_study_loop.thisN,learn_study_loop.thisIndex,learn_study_loop.ran,list_no,block_no,learn_test_loop.thisRepN,learn_test_loop.thisTrialN,learn_test_loop.thisN,learn_test_loop.thisIndex,learn_test_loop.ran,learn_blocks.thisRepN,learn_blocks.thisTrialN,learn_blocks.thisN,learn_blocks.thisIndex,learn_blocks.ran,block_csv,key_resp_13.keys,key_resp_13.rt,learn_blocks_loop.thisRepN,learn_blocks_loop.thisTrialN,learn_blocks_loop.thisN,learn_blocks_loop.thisIndex,learn_blocks_loop.ran,final_learn_test.thisRepN,final_learn_test.thisTrialN,final_learn_test.thisN,final_learn_test.thisIndex,final_learn_test.ran,prac_wm_test_loop.thisRepN,prac_wm_test_loop.thisTrialN,prac_wm_test_loop.thisN,prac_wm_test_loop.thisIndex,prac_wm_test_loop.ran,wm_recalled1,wm_recall_rt1,wm_probed1,wm_recall_acc1,wm_recalled2,wm_recall_rt2,wm_probed2,wm_recall_acc2,wm_recalled3,wm_recall_rt3,wm_probed3,wm_recall_acc3,wm_recalled4,wm_recall_rt4,wm_probed4,wm_recall_acc4,prac_wm_trial_loop.thisRepN,prac_wm_trial_loop.thisTrialN,prac_wm_trial_loop.thisN,prac_wm_trial_loop.thisIndex,prac_wm_trial_loop.ran,word1,image1,file1,item_type1,word2,image2,file2,item_type2,word4,image4,file4,item_type4,word3,image3,file3,item_type3,wm_test_loop.thisRepN,wm_test_loop.thisTrialN,wm_test_loop.thisN,wm_test_loop.thisIndex,wm_test_loop.ran,wm_trial_loop.thisRepN,wm_trial_loop.thisTrialN,wm_trial_loop.thisN,wm_trial_loop.thisIndex,wm_trial_loop.ran
y,18.441,TOUGH,6.621,1,0,0,0,0,1,stimuli/images/PICTURE_747.png,TOUGH,59609bdb599b690001ef2c59,25/12/1950,2020-09-12_08h51.06.405,proactive3.2,2020.1.2,Win32,60,5f5adea66120081ea0f57a61,5f5c7dcf65bc63010aea01e0,6,,,,,,,,,,,,,,,,,,,,,,,,,,,,,,,,,,,,,,,,,,,,,,,,,,,,,,,,,,,,,,,,,,,,,,,,,,,,,,,,,,,,,,,,,,,,,
,,,,,,,,,,stimuli/images/PICTURE_269.png,GENIUS,59609bdb599b690001ef2c59,25/12/1950,2020-09-12_08h51.06.405,proactive3.2,2020.1.2,Win32,60,5f5adea66120081ea0f57a61,5f5c7dcf65bc63010aea01e0,6,0,0,0,0,1,chameleon,,,,,,,,,,,,,,,,,,,,,,,,,,,,,,,,,,,,,,,,,,,,,,,,,,,,,,,,,,,,,,,,,,,,,,,,,,,,,,,,,,,,,,,
,,,,,,,,,,stimuli/images/PICTURE_697.png,KILLER,59609bdb599b690001ef2c59,25/12/1950,2020-09-12_08h51.06.405,proactive3.2,2020.1.2,Win32,60,5f5adea66120081ea0f57a61,5f5c7dcf65bc63010aea01e0,6,0,1,1,4,1,peach,,,,,,,,,,,,,,,,,,,,,,,,,,,,,,,,,,,,,,,,,,,,,,,,,,,,,,,,,,,,,,,,,,,,,,,,,,,,,,,,,,,,,,,
,,,,,,,,,,stimuli/images/PICTURE_378.png,LOSS,59609bdb599b690001ef2c59,25/12/1950,2020-09-12_08h51.06.405,proactive3.2,2020.1.2,Win32,60,5f5adea66120081ea0f57a61,5f5c7dcf65bc63010aea01e0,6,0,2,2,2,1,lobster,,,,,,,,,,,,,,,,,,,,,,,,,,,,,,,,,,,,,,,,,,,,,,,,,,,,,,,,,,,,,,,,,,,,,,,,,,,,,,,,,,,,,,,
,,,,,,,,,,stimuli/images/PICTURE_727.png,CELL,59609bdb599b690001ef2c59,25/12/1950,2020-09-12_08h51.06.405,proactive3.2,2020.1.2,Win32,60,5f5adea66120081ea0f57a61,5f5c7dcf65bc63010aea01e0,6,0,3,3,1,1,hose,,,,,,,,,,,,,,,,,,,,,,,,,,,,,,,,,,,,,,,,,,,,,,,,,,,,,,,,,,,,,,,,,,,,,,,,,,,,,,,,,,,,,,,
,,?,15.014,0,,,,,,stimuli/images/PICTURE_697.png,KILLER,59609bdb599b690001ef2c59,25/12/1950,2020-09-12_08h51.06.405,proactive3.2,2020.1.2,Win32,60,5f5adea66120081ea0f57a61,5f5c7dcf65bc63010aea01e0,6,,,,,,peach,0,0,0,4,1,,,,,,,,,,,,,,,,,,,,,,,,,,,,,,,,,,,,,,,,,,,,,,,,,,,,,,,,,,,,,,,,,,,,,,,,,,,,,,,,,,
,,LOSS,3.653,1,,,,,,stimuli/images/PICTURE_378.png,LOSS,59609bdb599b690001ef2c59,25/12/1950,2020-09-12_08h51.06.405,proactive3.2,2020.1.2,Win32,60,5f5adea66120081ea0f57a61,5f5c7dcf65bc63010aea01e0,6,,,,,,lobster,0,1,1,2,1,,,,,,,,,,,,,,,,,,,,,,,,,,,,,,,,,,,,,,,,,,,,,,,,,,,,,,,,,,,,,,,,,,,,,,,,,,,,,,,,,,
,,GENIUS,4.005,1,,,,,,stimuli/images/PICTURE_269.png,GENIUS,59609bdb599b690001ef2c59,25/12/1950,2020-09-12_08h51.06.405,proactive3.2,2020.1.2,Win32,60,5f5adea66120081ea0f57a61,5f5c7dcf65bc63010aea01e0,6,,,,,,chameleon,0,2,2,0,1,,,,,,,,,,,,,,,,,,,,,,,,,,,,,,,,,,,,,,,,,,,,,,,,,,,,,,,,,,,,,,,,,,,,,,,,,,,,,,,,,,
,,DEVIL,4.279,1,,,,,,stimuli/images/PICTURE_658.png,DEVIL,59609bdb599b690001ef2c59,25/12/1950,2020-09-12_08h51.06.405,proactive3.2,2020.1.2,Win32,60,5f5adea66120081ea0f57a61,5f5c7dcf65bc63010aea01e0,6,,,,,,crow,0,3,3,3,1,,,,,,,,,,,,,,,,,,,,,,,,,,,,,,,,,,,,,,,,,,,,,,,,,,,,,,,,,,,,,,,,,,,,,,,,,,,,,,,,,,
,,CELL,3.228,1,,,,,,stimuli/images/PICTURE_727.png,CELL,59609bdb599b690001ef2c59,25/12/1950,2020-09-12_08h51.06.405,proactive3.2,2020.1.2,Win32,60,5f5adea66120081ea0f57a61,5f5c7dcf65bc63010aea01e0,6,,,,,,hose,0,4,4,1,1,,,,,,,,,,,,,,,,,,,,,,,,,,,,,,,,,,,,,,,,,,,,,,,,,,,,,,,,,,,,,,,,,,,,,,,,,,,,,,,,,,
,,,,,,,,,,stimuli/images/PICTURE_564.png,BATH,59609bdb599b690001ef2c59,25/12/1950,2020-09-12_08h51.06.405,proactive3.2,2020.1.2,Win32,60,5f5adea66120081ea0f57a61,5f5c7dcf65bc63010aea01e0,6,,,,,,spoon,,,,,,0,0,0,26,1,3,1,,,,,,,,,,,,,,,,,,,,,,,,,,,,,,,,,,,,,,,,,,,,,,,,,,,,,,,,,,,,,,,,,,,,,,,,,,,
,,,,,,,,,,stimuli/images/PICTURE_57.png,MOMENT,59609bdb599b690001ef2c59,25/12/1950,2020-09-12_08h51.06.405,proactive3.2,2020.1.2,Win32,60,5f5adea66120081ea0f57a61,5f5c7dcf65bc63010aea01e0,6,,,,,,stamp,,,,,,0,1,1,37,1,4,1,,,,,,,,,,,,,,,,,,,,,,,,,,,,,,,,,,,,,,,,,,,,,,,,,,,,,,,,,,,,,,,,,,,,,,,,,,,
,,,,,,,,,,stimuli/images/PICTURE_85.png,NATION,59609bdb599b690001ef2c59,25/12/1950,2020-09-12_08h51.06.405,proactive3.2,2020.1.2,Win32,60,5f5adea66120081ea0f57a61,5f5c7dcf65bc63010aea01e0,6,,,,,,diamond,,,,,,0,2,2,5,1,1,1,,,,,,,,,,,,,,,,,,,,,,,,,,,,,,,,,,,,,,,,,,,,,,,,,,,,,,,,,,,,,,,,,,,,,,,,,,,
,,,,,,,,,,stimuli/images/PICTURE_147.png,WOMEN,59609bdb599b690001ef2c59,25/12/1950,2020-09-12_08h51.06.405,proactive3.2,2020.1.2,Win32,60,5f5adea66120081ea0f57a61,5f5c7dcf65bc63010aea01e0,6,,,,,,hanger,,,,,,0,3,3,7,1,1,1,,,,,,,,,,,,,,,,,,,,,,,,,,,,,,,,,,,,,,,,,,,,,,,,,,,,,,,,,,,,,,,,,,,,,,,,,,,
,,,,,,,,,,stimuli/images/PICTURE_504.png,YEAR,59609bdb599b690001ef2c59,25/12/1950,2020-09-12_08h51.06.405,proactive3.2,2020.1.2,Win32,60,5f5adea66120081ea0f57a61,5f5c7dcf65bc63010aea01e0,6,,,,,,wheel,,,,,,0,4,4,13,1,2,1,,,,,,,,,,,,,,,,,,,,,,,,,,,,,,,,,,,,,,,,,,,,,,,,,,,,,,,,,,,,,,,,,,,,,,,,,,,
,,,,,,,,,,stimuli/images/PICTURE_32.png,KIND,59609bdb599b690001ef2c59,25/12/1950,2020-09-12_08h51.06.405,proactive3.2,2020.1.2,Win32,60,5f5adea66120081ea0f57a61,5f5c7dcf65bc63010aea01e0,6,,,,,,crown,,,,,,0,5,5,35,1,4,1,,,,,,,,,,,,,,,,,,,,,,,,,,,,,,,,,,,,,,,,,,,,,,,,,,,,,,,,,,,,,,,,,,,,,,,,,,,
,,,,,,,,,,stimuli/images/PICTURE_380.png,CANDY,59609bdb599b690001ef2c59,25/12/1950,2020-09-12_08h51.06.405,proactive3.2,2020.1.2,Win32,60,5f5adea66120081ea0f57a61,5f5c7dcf65bc63010aea01e0,6,,,,,,gorilla,,,,,,0,6,6,0,1,1,1,,,,,,,,,,,,,,,,,,,,,,,,,,,,,,,,,,,,,,,,,,,,,,,,,,,,,,,,,,,,,,,,,,,,,,,,,,,
,,,,,,,,,,stimuli/images/PICTURE_685.png,PENNY,59609bdb599b690001ef2c59,25/12/1950,2020-09-12_08h51.06.405,proactive3.2,2020.1.2,Win32,60,5f5adea66120081ea0f57a61,5f5c7dcf65bc63010aea01e0,6,,,,,,goose,,,,,,0,7,7,4,1,1,1,,,,,,,,,,,,,,,,,,,,,,,,,,,,,,,,,,,,,,,,,,,,,,,,,,,,,,,,,,,,,,,,,,,,,,,,,,,
,,,,,,,,,,stimuli/images/PICTURE_449.png,DUDE,59609bdb599b690001ef2c59,25/12/1950,2020-09-12_08h51.06.405,proactive3.2,2020.1.2,Win32,60,5f5adea66120081ea0f57a61,5f5c7dcf65bc63010aea01e0,6,,,,,,bench,,,,,,0,8,8,17,1,2,1,,,,,,,,,,,,,,,,,,,,,,,,,,,,,,,,,,,,,,,,,,,,,,,,,,,,,,,,,,,,,,,,,,,,,,,,,,,
,,,,,,,,,,stimuli/images/PICTURE_654.png,MONTH,59609bdb599b690001ef2c59,25/12/1950,2020-09-12_08h51.06.405,proactive3.2,2020.1.2,Win32,60,5f5adea66120081ea0f57a61,5f5c7dcf65bc63010aea01e0,6,,,,,,pencil,,,,,,0,9,9,29,1,3,1,,,,,,,,,,,,,,,,,,,,,,,,,,,,,,,,,,,,,,,,,,,,,,,,,,,,,,,,,,,,,,,,,,,,,,,,,,,
,,,,,,,,,,stimuli/images/PICTURE_33.png,FRIEND,59609bdb599b690001ef2c59,25/12/1950,2020-09-12_08h51.06.405,proactive3.2,2020.1.2,Win32,60,5f5adea66120081ea0f57a61,5f5c7dcf65bc63010aea01e0,6,,,,,,frame,,,,,,0,10,10,8,1,1,1,,,,,,,,,,,,,,,,,,,,,,,,,,,,,,,,,,,,,,,,,,,,,,,,,,,,,,,,,,,,,,,,,,,,,,,,,,,
,,,,,,,,,,stimuli/images/PICTURE_380.png,HONEY,59609bdb599b690001ef2c59,25/12/1950,2020-09-12_08h51.06.405,proactive3.2,2020.1.2,Win32,60,5f5adea66120081ea0f57a61,5f5c7dcf65bc63010aea01e0,6,,,,,,gorilla,,,,,,0,11,11,19,1,2,1,,,,,,,,,,,,,,,,,,,,,,,,,,,,,,,,,,,,,,,,,,,,,,,,,,,,,,,,,,,,,,,,,,,,,,,,,,,
,,,,,,,,,,stimuli/images/PICTURE_297.png,RIVER,59609bdb599b690001ef2c59,25/12/1950,2020-09-12_08h51.06.405,proactive3.2,2020.1.2,Win32,60,5f5adea66120081ea0f57a61,5f5c7dcf65bc63010aea01e0,6,,,,,,aeroplane,,,,,,0,12,12,39,1,4,1,,,,,,,,,,,,,,,,,,,,,,,,,,,,,,,,,,,,,,,,,,,,,,,,,,,,,,,,,,,,,,,,,,,,,,,,,,,
,,,,,,,,,,stimuli/images/PICTURE_2.png,FLIGHT,59609bdb599b690001ef2c59,25/12/1950,2020-09-12_08h51.06.405,proactive3.2,2020.1.2,Win32,60,5f5adea66120081ea0f57a61,5f5c7dcf65bc63010aea01e0,6,,,,,,tyre,,,,,,0,13,13,15,1,2,1,,,,,,,,,,,,,,,,,,,,,,,,,,,,,,,,,,,,,,,,,,,,,,,,,,,,,,,,,,,,,,,,,,,,,,,,,,,
,,,,,,,,,,stimuli/images/PICTURE_108.png,POLICY,59609bdb599b690001ef2c59,25/12/1950,2020-09-12_08h51.06.405,proactive3.2,2020.1.2,Win32,60,5f5adea66120081ea0f57a61,5f5c7dcf65bc63010aea01e0,6,,,,,,calendar,,,,,,0,14,14,22,1,3,1,,,,,,,,,,,,,,,,,,,,,,,,,,,,,,,,,,,,,,,,,,,,,,,,,,,,,,,,,,,,,,,,,,,,,,,,,,,
,,,,,,,,,,stimuli/images/PICTURE_327.png,SERIES,59609bdb599b690001ef2c59,25/12/1950,2020-09-12_08h51.06.405,proactive3.2,2020.1.2,Win32,60,5f5adea66120081ea0f57a61,5f5c7dcf65bc63010aea01e0,6,,,,,,helmet,,,,,,0,15,15,3,1,1,1,,,,,,,,,,,,,,,,,,,,,,,,,,,,,,,,,,,,,,,,,,,,,,,,,,,,,,,,,,,,,,,,,,,,,,,,,,,
,,,,,,,,,,stimuli/images/PICTURE_285.png,LIFE,59609bdb599b690001ef2c59,25/12/1950,2020-09-12_08h51.06.405,proactive3.2,2020.1.2,Win32,60,5f5adea66120081ea0f57a61,5f5c7dcf65bc63010aea01e0,6,,,,,,carrot,,,,,,0,16,16,33,1,4,1,,,,,,,,,,,,,,,,,,,,,,,,,,,,,,,,,,,,,,,,,,,,,,,,,,,,,,,,,,,,,,,,,,,,,,,,,,,
,,,,,,,,,,stimuli/images/PICTURE_42.png,BOYS,59609bdb599b690001ef2c59,25/12/1950,2020-09-12_08h51.06.405,proactive3.2,2020.1.2,Win32,60,5f5adea66120081ea0f57a61,5f5c7dcf65bc63010aea01e0,6,,,,,,pear,,,,,,0,17,17,55,1,6,1,,,,,,,,,,,,,,,,,,,,,,,,,,,,,,,,,,,,,,,,,,,,,,,,,,,,,,,,,,,,,,,,,,,,,,,,,,,
,,,,,,,,,,stimuli/images/PICTURE_95.png,BOYS,59609bdb599b690001ef2c59,25/12/1950,2020-09-12_08h51.06.405,proactive3.2,2020.1.2,Win32,60,5f5adea66120081ea0f57a61,5f5c7dcf65bc63010aea01e0,6,,,,,,suitcase,,,,,,0,18,18,1,1,1,1,,,,,,,,,,,,,,,,,,,,,,,,,,,,,,,,,,,,,,,,,,,,,,,,,,,,,,,,,,,,,,,,,,,,,,,,,,,
,,,,,,,,,,stimuli/images/PICTURE_667.png,RIVER,59609bdb599b690001ef2c59,25/12/1950,2020-09-12_08h51.06.405,proactive3.2,2020.1.2,Win32,60,5f5adea66120081ea0f57a61,5f5c7dcf65bc63010aea01e0,6,,,,,,daisy,,,,,,0,19,19,10,1,2,1,,,,,,,,,,,,,,,,,,,,,,,,,,,,,,,,,,,,,,,,,,,,,,,,,,,,,,,,,,,,,,,,,,,,,,,,,,,
,,,,,,,,,,stimuli/images/PICTURE_504.png,ARTIST,59609bdb599b690001ef2c59,25/12/1950,2020-09-12_08h51.06.405,proactive3.2,2020.1.2,Win32,60,5f5adea66120081ea0f57a61,5f5c7dcf65bc63010aea01e0,6,,,,,,wheel,,,,,,0,20,20,49,1,5,1,,,,,,,,,,,,,,,,,,,,,,,,,,,,,,,,,,,,,,,,,,,,,,,,,,,,,,,,,,,,,,,,,,,,,,,,,,,
,,,,,,,,,,stimuli/images/PICTURE_504.png,COPS,59609bdb599b690001ef2c59,25/12/1950,2020-09-12_08h51.06.405,proactive3.2,2020.1.2,Win32,60,5f5adea66120081ea0f57a61,5f5c7dcf65bc63010aea01e0,6,,,,,,wheel,,,,,,0,21,21,52,1,6,1,,,,,,,,,,,,,,,,,,,,,,,,,,,,,,,,,,,,,,,,,,,,,,,,,,,,,,,,,,,,,,,,,,,,,,,,,,,
,,,,,,,,,,stimuli/images/PICTURE_327.png,CASINO,59609bdb599b690001ef2c59,25/12/1950,2020-09-12_08h51.06.405,proactive3.2,2020.1.2,Win32,60,5f5adea66120081ea0f57a61,5f5c7dcf65bc63010aea01e0,6,,,,,,helmet,,,,,,0,22,22,20,1,3,1,,,,,,,,,,,,,,,,,,,,,,,,,,,,,,,,,,,,,,,,,,,,,,,,,,,,,,,,,,,,,,,,,,,,,,,,,,,
,,,,,,,,,,stimuli/images/PICTURE_469.png,AGENT,59609bdb599b690001ef2c59,25/12/1950,2020-09-12_08h51.06.405,proactive3.2,2020.1.2,Win32,60,5f5adea66120081ea0f57a61,5f5c7dcf65bc63010aea01e0,6,,,,,,stool,,,,,,0,23,23,16,1,2,1,,,,,,,,,,,,,,,,,,,,,,,,,,,,,,,,,,,,,,,,,,,,,,,,,,,,,,,,,,,,,,,,,,,,,,,,,,,
,,,,,,,,,,stimuli/images/PICTURE_403.png,TOILET,59609bdb599b690001ef2c59,25/12/1950,2020-09-12_08h51.06.405,proactive3.2,2020.1.2,Win32,60,5f5adea66120081ea0f57a61,5f5c7dcf65bc63010aea01e0,6,,,,,,cathedral,,,,,,0,24,24,25,1,3,1,,,,,,,,,,,,,,,,,,,,,,,,,,,,,,,,,,,,,,,,,,,,,,,,,,,,,,,,,,,,,,,,,,,,,,,,,,,
,,,,,,,,,,stimuli/images/PICTURE_491.png,RIVER,59609bdb599b690001ef2c59,25/12/1950,2020-09-12_08h51.06.405,proactive3.2,2020.1.2,Win32,60,5f5adea66120081ea0f57a61,5f5c7dcf65bc63010aea01e0,6,,,,,,rug,,,,,,0,25,25,6,1,1,1,,,,,,,,,,,,,,,,,,,,,,,,,,,,,,,,,,,,,,,,,,,,,,,,,,,,,,,,,,,,,,,,,,,,,,,,,,,
,,,,,,,,,,stimuli/images/PICTURE_744.png,WEAPON,59609bdb599b690001ef2c59,25/12/1950,2020-09-12_08h51.06.405,proactive3.2,2020.1.2,Win32,60,5f5adea66120081ea0f57a61,5f5c7dcf65bc63010aea01e0,6,,,,,,ring,,,,,,0,26,26,50,1,6,1,,,,,,,,,,,,,,,,,,,,,,,,,,,,,,,,,,,,,,,,,,,,,,,,,,,,,,,,,,,,,,,,,,,,,,,,,,,
,,,,,,,,,,stimuli/images/PICTURE_405.png,YEAR,59609bdb599b690001ef2c59,25/12/1950,2020-09-12_08h51.06.405,proactive3.2,2020.1.2,Win32,60,5f5adea66120081ea0f57a61,5f5c7dcf65bc63010aea01e0,6,,,,,,anchor,,,,,,0,27,27,34,1,4,1,,,,,,,,,,,,,,,,,,,,,,,,,,,,,,,,,,,,,,,,,,,,,,,,,,,,,,,,,,,,,,,,,,,,,,,,,,,
,,,,,,,,,,stimuli/images/PICTURE_383.png,WRITER,59609bdb599b690001ef2c59,25/12/1950,2020-09-12_08h51.06.405,proactive3.2,2020.1.2,Win32,60,5f5adea66120081ea0f57a61,5f5c7dcf65bc63010aea01e0,6,,,,,,coin,,,,,,0,28,28,28,1,3,1,,,,,,,,,,,,,,,,,,,,,,,,,,,,,,,,,,,,,,,,,,,,,,,,,,,,,,,,,,,,,,,,,,,,,,,,,,,
,,,,,,,,,,stimuli/images/PICTURE_68.png,ROOF,59609bdb599b690001ef2c59,25/12/1950,2020-09-12_08h51.06.405,proactive3.2,2020.1.2,Win32,60,5f5adea66120081ea0f57a61,5f5c7dcf65bc63010aea01e0,6,,,,,,candle,,,,,,0,29,29,38,1,4,1,,,,,,,,,,,,,,,,,,,,,,,,,,,,,,,,,,,,,,,,,,,,,,,,,,,,,,,,,,,,,,,,,,,,,,,,,,,
,,,,,,,,,,stimuli/images/PICTURE_308.png,FAMILY,59609bdb599b690001ef2c59,25/12/1950,2020-09-12_08h51.06.405,proactive3.2,2020.1.2,Win32,60,5f5adea66120081ea0f57a61,5f5c7dcf65bc63010aea01e0,6,,,,,,dice,,,,,,0,30,30,36,1,4,1,,,,,,,,,,,,,,,,,,,,,,,,,,,,,,,,,,,,,,,,,,,,,,,,,,,,,,,,,,,,,,,,,,,,,,,,,,,
,,,,,,,,,,stimuli/images/PICTURE_203.png,GODS,59609bdb599b690001ef2c59,25/12/1950,2020-09-12_08h51.06.405,proactive3.2,2020.1.2,Win32,60,5f5adea66120081ea0f57a61,5f5c7dcf65bc63010aea01e0,6,,,,,,cap,,,,,,0,31,31,30,1,4,1,,,,,,,,,,,,,,,,,,,,,,,,,,,,,,,,,,,,,,,,,,,,,,,,,,,,,,,,,,,,,,,,,,,,,,,,,,,
,,,,,,,,,,stimuli/images/PICTURE_68.png,MILE,59609bdb599b690001ef2c59,25/12/1950,2020-09-12_08h51.06.405,proactive3.2,2020.1.2,Win32,60,5f5adea66120081ea0f57a61,5f5c7dcf65bc63010aea01e0,6,,,,,,candle,,,,,,0,32,32,51,1,6,1,,,,,,,,,,,,,,,,,,,,,,,,,,,,,,,,,,,,,,,,,,,,,,,,,,,,,,,,,,,,,,,,,,,,,,,,,,,
,,,,,,,,,,stimuli/images/PICTURE_467.png,POLICY,59609bdb599b690001ef2c59,25/12/1950,2020-09-12_08h51.06.405,proactive3.2,2020.1.2,Win32,60,5f5adea66120081ea0f57a61,5f5c7dcf65bc63010aea01e0,6,,,,,,peg,,,,,,0,33,33,53,1,6,1,,,,,,,,,,,,,,,,,,,,,,,,,,,,,,,,,,,,,,,,,,,,,,,,,,,,,,,,,,,,,,,,,,,,,,,,,,,
,,,,,,,,,,stimuli/images/PICTURE_339.png,CLIENT,59609bdb599b690001ef2c59,25/12/1950,2020-09-12_08h51.06.405,proactive3.2,2020.1.2,Win32,60,5f5adea66120081ea0f57a61,5f5c7dcf65bc63010aea01e0,6,,,,,,backpack,,,,,,0,34,34,11,1,2,1,,,,,,,,,,,,,,,,,,,,,,,,,,,,,,,,,,,,,,,,,,,,,,,,,,,,,,,,,,,,,,,,,,,,,,,,,,,
,,,,,,,,,,stimuli/images/PICTURE_85.png,TOILET,59609bdb599b690001ef2c59,25/12/1950,2020-09-12_08h51.06.405,proactive3.2,2020.1.2,Win32,60,5f5adea66120081ea0f57a61,5f5c7dcf65bc63010aea01e0,6,,,,,,diamond,,,,,,0,35,35,48,1,5,1,,,,,,,,,,,,,,,,,,,,,,,,,,,,,,,,,,,,,,,,,,,,,,,,,,,,,,,,,,,,,,,,,,,,,,,,,,,
,,,,,,,,,,stimuli/images/PICTURE_708.png,RECORD,59609bdb599b690001ef2c59,25/12/1950,2020-09-12_08h51.06.405,proactive3.2,2020.1.2,Win32,60,5f5adea66120081ea0f57a61,5f5c7dcf65bc63010aea01e0,6,,,,,,monkey,,,,,,0,36,36,58,1,6,1,,,,,,,,,,,,,,,,,,,,,,,,,,,,,,,,,,,,,,,,,,,,,,,,,,,,,,,,,,,,,,,,,,,,,,,,,,,
,,,,,,,,,,stimuli/images/PICTURE_147.png,YEAR,59609bdb599b690001ef2c59,25/12/1950,2020-09-12_08h51.06.405,proactive3.2,2020.1.2,Win32,60,5f5adea66120081ea0f57a61,5f5c7dcf65bc63010aea01e0,6,,,,,,hanger,,,,,,0,37,37,21,1,3,1,,,,,,,,,,,,,,,,,,,,,,,,,,,,,,,,,,,,,,,,,,,,,,,,,,,,,,,,,,,,,,,,,,,,,,,,,,,
,,,,,,,,,,stimuli/images/PICTURE_750.png,HOTEL,59609bdb599b690001ef2c59,25/12/1950,2020-09-12_08h51.06.405,proactive3.2,2020.1.2,Win32,60,5f5adea66120081ea0f57a61,5f5c7dcf65bc63010aea01e0,6,,,,,,kettle,,,,,,0,38,38,27,1,3,1,,,,,,,,,,,,,,,,,,,,,,,,,,,,,,,,,,,,,,,,,,,,,,,,,,,,,,,,,,,,,,,,,,,,,,,,,,,
,,,,,,,,,,stimuli/images/PICTURE_340.png,LETTER,59609bdb599b690001ef2c59,25/12/1950,2020-09-12_08h51.06.405,proactive3.2,2020.1.2,Win32,60,5f5adea66120081ea0f57a61,5f5c7dcf65bc63010aea01e0,6,,,,,,mirror,,,,,,0,39,39,24,1,3,1,,,,,,,,,,,,,,,,,,,,,,,,,,,,,,,,,,,,,,,,,,,,,,,,,,,,,,,,,,,,,,,,,,,,,,,,,,,
,,,,,,,,,,stimuli/images/PICTURE_655.png,TOILET,59609bdb599b690001ef2c59,25/12/1950,2020-09-12_08h51.06.405,proactive3.2,2020.1.2,Win32,60,5f5adea66120081ea0f57a61,5f5c7dcf65bc63010aea01e0,6,,,,,,megaphone,,,,,,0,40,40,12,1,2,1,,,,,,,,,,,,,,,,,,,,,,,,,,,,,,,,,,,,,,,,,,,,,,,,,,,,,,,,,,,,,,,,,,,,,,,,,,,
,,,,,,,,,,stimuli/images/PICTURE_203.png,NIGHT,59609bdb599b690001ef2c59,25/12/1950,2020-09-12_08h51.06.405,proactive3.2,2020.1.2,Win32,60,5f5adea66120081ea0f57a61,5f5c7dcf65bc63010aea01e0,6,,,,,,cap,,,,,,0,41,41,2,1,1,1,,,,,,,,,,,,,,,,,,,,,,,,,,,,,,,,,,,,,,,,,,,,,,,,,,,,,,,,,,,,,,,,,,,,,,,,,,,
,,,,,,,,,,stimuli/images/PICTURE_95.png,MILLER,59609bdb599b690001ef2c59,25/12/1950,2020-09-12_08h51.06.405,proactive3.2,2020.1.2,Win32,60,5f5adea66120081ea0f57a61,5f5c7dcf65bc63010aea01e0,6,,,,,,suitcase,,,,,,0,42,42,56,1,6,1,,,,,,,,,,,,,,,,,,,,,,,,,,,,,,,,,,,,,,,,,,,,,,,,,,,,,,,,,,,,,,,,,,,,,,,,,,,
,,,,,,,,,,stimuli/images/PICTURE_233.png,LOTS,59609bdb599b690001ef2c59,25/12/1950,2020-09-12_08h51.06.405,proactive3.2,2020.1.2,Win32,60,5f5adea66120081ea0f57a61,5f5c7dcf65bc63010aea01e0,6,,,,,,salt,,,,,,0,43,43,42,1,5,1,,,,,,,,,,,,,,,,,,,,,,,,,,,,,,,,,,,,,,,,,,,,,,,,,,,,,,,,,,,,,,,,,,,,,,,,,,,
,,,,,,,,,,stimuli/images/PICTURE_296.png,LIFE,59609bdb599b690001ef2c59,25/12/1950,2020-09-12_08h51.06.405,proactive3.2,2020.1.2,Win32,60,5f5adea66120081ea0f57a61,5f5c7dcf65bc63010aea01e0,6,,,,,,bolt,,,,,,0,44,44,57,1,6,1,,,,,,,,,,,,,,,,,,,,,,,,,,,,,,,,,,,,,,,,,,,,,,,,,,,,,,,,,,,,,,,,,,,,,,,,,,,
,,,,,,,,,,stimuli/images/PICTURE_108.png,FLIGHT,59609bdb599b690001ef2c59,25/12/1950,2020-09-12_08h51.06.405,proactive3.2,2020.1.2,Win32,60,5f5adea66120081ea0f57a61,5f5c7dcf65bc63010aea01e0,6,,,,,,calendar,,,,,,0,45,45,59,1,6,1,,,,,,,,,,,,,,,,,,,,,,,,,,,,,,,,,,,,,,,,,,,,,,,,,,,,,,,,,,,,,,,,,,,,,,,,,,,
,,,,,,,,,,stimuli/images/PICTURE_177.png,WRITER,59609bdb599b690001ef2c59,25/12/1950,2020-09-12_08h51.06.405,proactive3.2,2020.1.2,Win32,60,5f5adea66120081ea0f57a61,5f5c7dcf65bc63010aea01e0,6,,,,,,mushroom,,,,,,0,46,46,41,1,5,1,,,,,,,,,,,,,,,,,,,,,,,,,,,,,,,,,,,,,,,,,,,,,,,,,,,,,,,,,,,,,,,,,,,,,,,,,,,
,,,,,,,,,,stimuli/images/PICTURE_675.png,SALE,59609bdb599b690001ef2c59,25/12/1950,2020-09-12_08h51.06.405,proactive3.2,2020.1.2,Win32,60,5f5adea66120081ea0f57a61,5f5c7dcf65bc63010aea01e0,6,,,,,,windmill,,,,,,0,47,47,47,1,5,1,,,,,,,,,,,,,,,,,,,,,,,,,,,,,,,,,,,,,,,,,,,,,,,,,,,,,,,,,,,,,,,,,,,,,,,,,,,
,,,,,,,,,,stimuli/images/PICTURE_403.png,WRITER,59609bdb599b690001ef2c59,25/12/1950,2020-09-12_08h51.06.405,proactive3.2,2020.1.2,Win32,60,5f5adea66120081ea0f57a61,5f5c7dcf65bc63010aea01e0,6,,,,,,cathedral,,,,,,0,48,48,31,1,4,1,,,,,,,,,,,,,,,,,,,,,,,,,,,,,,,,,,,,,,,,,,,,,,,,,,,,,,,,,,,,,,,,,,,,,,,,,,,
,,,,,,,,,,stimuli/images/PICTURE_32.png,PILLS,59609bdb599b690001ef2c59,25/12/1950,2020-09-12_08h51.06.405,proactive3.2,2020.1.2,Win32,60,5f5adea66120081ea0f57a61,5f5c7dcf65bc63010aea01e0,6,,,,,,crown,,,,,,0,49,49,18,1,2,1,,,,,,,,,,,,,,,,,,,,,,,,,,,,,,,,,,,,,,,,,,,,,,,,,,,,,,,,,,,,,,,,,,,,,,,,,,,
,,,,,,,,,,stimuli/images/PICTURE_677.png,APPLE,59609bdb599b690001ef2c59,25/12/1950,2020-09-12_08h51.06.405,proactive3.2,2020.1.2,Win32,60,5f5adea66120081ea0f57a61,5f5c7dcf65bc63010aea01e0,6,,,,,,map,,,,,,0,50,50,43,1,5,1,,,,,,,,,,,,,,,,,,,,,,,,,,,,,,,,,,,,,,,,,,,,,,,,,,,,,,,,,,,,,,,,,,,,,,,,,,,
,,,,,,,,,,stimuli/images/PICTURE_340.png,VALLEY,59609bdb599b690001ef2c59,25/12/1950,2020-09-12_08h51.06.405,proactive3.2,2020.1.2,Win32,60,5f5adea66120081ea0f57a61,5f5c7dcf65bc63010aea01e0,6,,,,,,mirror,,,,,,0,51,51,54,1,6,1,,,,,,,,,,,,,,,,,,,,,,,,,,,,,,,,,,,,,,,,,,,,,,,,,,,,,,,,,,,,,,,,,,,,,,,,,,,
,,,,,,,,,,stimuli/images/PICTURE_487.png,GIRL,59609bdb599b690001ef2c59,25/12/1950,2020-09-12_08h51.06.405,proactive3.2,2020.1.2,Win32,60,5f5adea66120081ea0f57a61,5f5c7dcf65bc63010aea01e0,6,,,,,,basket,,,,,,0,52,52,45,1,5,1,,,,,,,,,,,,,,,,,,,,,,,,,,,,,,,,,,,,,,,,,,,,,,,,,,,,,,,,,,,,,,,,,,,,,,,,,,,
,,,,,,,,,,stimuli/images/PICTURE_403.png,RIVER,59609bdb599b690001ef2c59,25/12/1950,2020-09-12_08h51.06.405,proactive3.2,2020.1.2,Win32,60,5f5adea66120081ea0f57a61,5f5c7dcf65bc63010aea01e0,6,,,,,,cathedral,,,,,,0,53,53,40,1,5,1,,,,,,,,,,,,,,,,,,,,,,,,,,,,,,,,,,,,,,,,,,,,,,,,,,,,,,,,,,,,,,,,,,,,,,,,,,,
,,,,,,,,,,stimuli/images/PICTURE_383.png,SERIES,59609bdb599b690001ef2c59,25/12/1950,2020-09-12_08h51.06.405,proactive3.2,2020.1.2,Win32,60,5f5adea66120081ea0f57a61,5f5c7dcf65bc63010aea01e0,6,,,,,,coin,,,,,,0,54,54,46,1,5,1,,,,,,,,,,,,,,,,,,,,,,,,,,,,,,,,,,,,,,,,,,,,,,,,,,,,,,,,,,,,,,,,,,,,,,,,,,,
,,,,,,,,,,stimuli/images/PICTURE_491.png,GLASS,59609bdb599b690001ef2c59,25/12/1950,2020-09-12_08h51.06.405,proactive3.2,2020.1.2,Win32,60,5f5adea66120081ea0f57a61,5f5c7dcf65bc63010aea01e0,6,,,,,,rug,,,,,,0,55,55,14,1,2,1,,,,,,,,,,,,,,,,,,,,,,,,,,,,,,,,,,,,,,,,,,,,,,,,,,,,,,,,,,,,,,,,,,,,,,,,,,,
,,,,,,,,,,stimuli/images/PICTURE_95.png,HONEY,59609bdb599b690001ef2c59,25/12/1950,2020-09-12_08h51.06.405,proactive3.2,2020.1.2,Win32,60,5f5adea66120081ea0f57a61,5f5c7dcf65bc63010aea01e0,6,,,,,,suitcase,,,,,,0,56,56,44,1,5,1,,,,,,,,,,,,,,,,,,,,,,,,,,,,,,,,,,,,,,,,,,,,,,,,,,,,,,,,,,,,,,,,,,,,,,,,,,,
,,,,,,,,,,stimuli/images/PICTURE_296.png,LOTS,59609bdb599b690001ef2c59,25/12/1950,2020-09-12_08h51.06.405,proactive3.2,2020.1.2,Win32,60,5f5adea66120081ea0f57a61,5f5c7dcf65bc63010aea01e0,6,,,,,,bolt,,,,,,0,57,57,9,1,1,1,,,,,,,,,,,,,,,,,,,,,,,,,,,,,,,,,,,,,,,,,,,,,,,,,,,,,,,,,,,,,,,,,,,,,,,,,,,
,,,,,,,,,,stimuli/images/PICTURE_208.png,SYSTEM,59609bdb599b690001ef2c59,25/12/1950,2020-09-12_08h51.06.405,proactive3.2,2020.1.2,Win32,60,5f5adea66120081ea0f57a61,5f5c7dcf65bc63010aea01e0,6,,,,,,microphone,,,,,,0,58,58,32,1,4,1,,,,,,,,,,,,,,,,,,,,,,,,,,,,,,,,,,,,,,,,,,,,,,,,,,,,,,,,,,,,,,,,,,,,,,,,,,,
,,?,0.001,0,,,,,,stimuli/images/PICTURE_32.png,KIND,59609bdb599b690001ef2c59,25/12/1950,2020-09-12_08h51.06.405,proactive3.2,2020.1.2,Win32,60,5f5adea66120081ea0f57a61,5f5c7dcf65bc63010aea01e0,6,,,,,,crown,,,,,,,,,,,4,1,0,0,0,35,1,,,,,,,,,,,,,,,,,,,,,,,,,,,,,,,,,,,,,,,,,,,,,,,,,,,,,,,,,,,,,,,,,,,,,,
,,?,0.001,0,,,,,,stimuli/images/PICTURE_32.png,PILLS,59609bdb599b690001ef2c59,25/12/1950,2020-09-12_08h51.06.405,proactive3.2,2020.1.2,Win32,60,5f5adea66120081ea0f57a61,5f5c7dcf65bc63010aea01e0,6,,,,,,crown,,,,,,,,,,,2,1,0,1,1,18,1,,,,,,,,,,,,,,,,,,,,,,,,,,,,,,,,,,,,,,,,,,,,,,,,,,,,,,,,,,,,,,,,,,,,,,
,,?,0,0,,,,,,stimuli/images/PICTURE_2.png,FLIGHT,59609bdb599b690001ef2c59,25/12/1950,2020-09-12_08h51.06.405,proactive3.2,2020.1.2,Win32,60,5f5adea66120081ea0f57a61,5f5c7dcf65bc63010aea01e0,6,,,,,,tyre,,,,,,,,,,,2,1,0,2,2,15,1,,,,,,,,,,,,,,,,,,,,,,,,,,,,,,,,,,,,,,,,,,,,,,,,,,,,,,,,,,,,,,,,,,,,,,
,,?,0,0,,,,,,stimuli/images/PICTURE_296.png,LOTS,59609bdb599b690001ef2c59,25/12/1950,2020-09-12_08h51.06.405,proactive3.2,2020.1.2,Win32,60,5f5adea66120081ea0f57a61,5f5c7dcf65bc63010aea01e0,6,,,,,,bolt,,,,,,,,,,,1,1,0,3,3,9,1,,,,,,,,,,,,,,,,,,,,,,,,,,,,,,,,,,,,,,,,,,,,,,,,,,,,,,,,,,,,,,,,,,,,,,
,,?,0,0,,,,,,stimuli/images/PICTURE_85.png,NATION,59609bdb599b690001ef2c59,25/12/1950,2020-09-12_08h51.06.405,proactive3.2,2020.1.2,Win32,60,5f5adea66120081ea0f57a61,5f5c7dcf65bc63010aea01e0,6,,,,,,diamond,,,,,,,,,,,1,1,0,4,4,5,1,,,,,,,,,,,,,,,,,,,,,,,,,,,,,,,,,,,,,,,,,,,,,,,,,,,,,,,,,,,,,,,,,,,,,,
,,KILLER,6.26,0,,,,,,stimuli/images/PICTURE_296.png,LIFE,59609bdb599b690001ef2c59,25/12/1950,2020-09-12_08h51.06.405,proactive3.2,2020.1.2,Win32,60,5f5adea66120081ea0f57a61,5f5c7dcf65bc63010aea01e0,6,,,,,,bolt,,,,,,,,,,,6,1,0,5,5,57,1,,,,,,,,,,,,,,,,,,,,,,,,,,,,,,,,,,,,,,,,,,,,,,,,,,,,,,,,,,,,,,,,,,,,,,
,,?,0.001,0,,,,,,stimuli/images/PICTURE_405.png,YEAR,59609bdb599b690001ef2c59,25/12/1950,2020-09-12_08h51.06.405,proactive3.2,2020.1.2,Win32,60,5f5adea66120081ea0f57a61,5f5c7dcf65bc63010aea01e0,6,,,,,,anchor,,,,,,,,,,,4,1,0,6,6,34,1,,,,,,,,,,,,,,,,,,,,,,,,,,,,,,,,,,,,,,,,,,,,,,,,,,,,,,,,,,,,,,,,,,,,,,
,,?,0.003,0,,,,,,stimuli/images/PICTURE_449.png,DUDE,59609bdb599b690001ef2c59,25/12/1950,2020-09-12_08h51.06.405,proactive3.2,2020.1.2,Win32,60,5f5adea66120081ea0f57a61,5f5c7dcf65bc63010aea01e0,6,,,,,,bench,,,,,,,,,,,2,1,0,7,7,17,1,,,,,,,,,,,,,,,,,,,,,,,,,,,,,,,,,,,,,,,,,,,,,,,,,,,,,,,,,,,,,,,,,,,,,,
,,WEAPON,3.771,1,,,,,,stimuli/images/PICTURE_744.png,WEAPON,59609bdb599b690001ef2c59,25/12/1950,2020-09-12_08h51.06.405,proactive3.2,2020.1.2,Win32,60,5f5adea66120081ea0f57a61,5f5c7dcf65bc63010aea01e0,6,,,,,,ring,,,,,,,,,,,6,1,0,8,8,50,1,,,,,,,,,,,,,,,,,,,,,,,,,,,,,,,,,,,,,,,,,,,,,,,,,,,,,,,,,,,,,,,,,,,,,,
,,?,0.001,0,,,,,,stimuli/images/PICTURE_203.png,GODS,59609bdb599b690001ef2c59,25/12/1950,2020-09-12_08h51.06.405,proactive3.2,2020.1.2,Win32,60,5f5adea66120081ea0f57a61,5f5c7dcf65bc63010aea01e0,6,,,,,,cap,,,,,,,,,,,4,1,0,9,9,30,1,,,,,,,,,,,,,,,,,,,,,,,,,,,,,,,,,,,,,,,,,,,,,,,,,,,,,,,,,,,,,,,,,,,,,,
,,?,0.001,0,,,,,,stimuli/images/PICTURE_233.png,LOTS,59609bdb599b690001ef2c59,25/12/1950,2020-09-12_08h51.06.405,proactive3.2,2020.1.2,Win32,60,5f5adea66120081ea0f57a61,5f5c7dcf65bc63010aea01e0,6,,,,,,salt,,,,,,,,,,,5,1,0,10,10,42,1,,,,,,,,,,,,,,,,,,,,,,,,,,,,,,,,,,,,,,,,,,,,,,,,,,,,,,,,,,,,,,,,,,,,,,
,,?,0.001,0,,,,,,stimuli/images/PICTURE_327.png,SERIES,59609bdb599b690001ef2c59,25/12/1950,2020-09-12_08h51.06.405,proactive3.2,2020.1.2,Win32,60,5f5adea66120081ea0f57a61,5f5c7dcf65bc63010aea01e0,6,,,,,,helmet,,,,,,,,,,,1,1,0,11,11,3,1,,,,,,,,,,,,,,,,,,,,,,,,,,,,,,,,,,,,,,,,,,,,,,,,,,,,,,,,,,,,,,,,,,,,,,
,,?,0.001,0,,,,,,stimuli/images/PICTURE_95.png,HONEY,59609bdb599b690001ef2c59,25/12/1950,2020-09-12_08h51.06.405,proactive3.2,2020.1.2,Win32,60,5f5adea66120081ea0f57a61,5f5c7dcf65bc63010aea01e0,6,,,,,,suitcase,,,,,,,,,,,5,1,0,12,12,44,1,,,,,,,,,,,,,,,,,,,,,,,,,,,,,,,,,,,,,,,,,,,,,,,,,,,,,,,,,,,,,,,,,,,,,,
,,?,0.001,0,,,,,,stimuli/images/PICTURE_339.png,CLIENT,59609bdb599b690001ef2c59,25/12/1950,2020-09-12_08h51.06.405,proactive3.2,2020.1.2,Win32,60,5f5adea66120081ea0f57a61,5f5c7dcf65bc63010aea01e0,6,,,,,,backpack,,,,,,,,,,,2,1,0,13,13,11,1,,,,,,,,,,,,,,,,,,,,,,,,,,,,,,,,,,,,,,,,,,,,,,,,,,,,,,,,,,,,,,,,,,,,,,
,,?,0.002,0,,,,,,stimuli/images/PICTURE_147.png,WOMEN,59609bdb599b690001ef2c59,25/12/1950,2020-09-12_08h51.06.405,proactive3.2,2020.1.2,Win32,60,5f5adea66120081ea0f57a61,5f5c7dcf65bc63010aea01e0,6,,,,,,hanger,,,,,,,,,,,1,1,0,14,14,7,1,,,,,,,,,,,,,,,,,,,,,,,,,,,,,,,,,,,,,,,,,,,,,,,,,,,,,,,,,,,,,,,,,,,,,,
,,?,0,0,,,,,,stimuli/images/PICTURE_469.png,AGENT,59609bdb599b690001ef2c59,25/12/1950,2020-09-12_08h51.06.405,proactive3.2,2020.1.2,Win32,60,5f5adea66120081ea0f57a61,5f5c7dcf65bc63010aea01e0,6,,,,,,stool,,,,,,,,,,,2,1,0,15,15,16,1,,,,,,,,,,,,,,,,,,,,,,,,,,,,,,,,,,,,,,,,,,,,,,,,,,,,,,,,,,,,,,,,,,,,,,
,,?,0.002,0,,,,,,stimuli/images/PICTURE_491.png,RIVER,59609bdb599b690001ef2c59,25/12/1950,2020-09-12_08h51.06.405,proactive3.2,2020.1.2,Win32,60,5f5adea66120081ea0f57a61,5f5c7dcf65bc63010aea01e0,6,,,,,,rug,,,,,,,,,,,1,1,0,16,16,6,1,,,,,,,,,,,,,,,,,,,,,,,,,,,,,,,,,,,,,,,,,,,,,,,,,,,,,,,,,,,,,,,,,,,,,,
,,?,0.001,0,,,,,,stimuli/images/PICTURE_208.png,SYSTEM,59609bdb599b690001ef2c59,25/12/1950,2020-09-12_08h51.06.405,proactive3.2,2020.1.2,Win32,60,5f5adea66120081ea0f57a61,5f5c7dcf65bc63010aea01e0,6,,,,,,microphone,,,,,,,,,,,4,1,0,17,17,32,1,,,,,,,,,,,,,,,,,,,,,,,,,,,,,,,,,,,,,,,,,,,,,,,,,,,,,,,,,,,,,,,,,,,,,,
,,?,0.002,0,,,,,,stimuli/images/PICTURE_285.png,LIFE,59609bdb599b690001ef2c59,25/12/1950,2020-09-12_08h51.06.405,proactive3.2,2020.1.2,Win32,60,5f5adea66120081ea0f57a61,5f5c7dcf65bc63010aea01e0,6,,,,,,carrot,,,,,,,,,,,4,1,0,18,18,33,1,,,,,,,,,,,,,,,,,,,,,,,,,,,,,,,,,,,,,,,,,,,,,,,,,,,,,,,,,,,,,,,,,,,,,,
,,?,0.001,0,,,,,,stimuli/images/PICTURE_327.png,CASINO,59609bdb599b690001ef2c59,25/12/1950,2020-09-12_08h51.06.405,proactive3.2,2020.1.2,Win32,60,5f5adea66120081ea0f57a61,5f5c7dcf65bc63010aea01e0,6,,,,,,helmet,,,,,,,,,,,3,1,0,19,19,20,1,,,,,,,,,,,,,,,,,,,,,,,,,,,,,,,,,,,,,,,,,,,,,,,,,,,,,,,,,,,,,,,,,,,,,,
,,?,4.871,0,,,,,,stimuli/images/PICTURE_504.png,COPS,59609bdb599b690001ef2c59,25/12/1950,2020-09-12_08h51.06.405,proactive3.2,2020.1.2,Win32,60,5f5adea66120081ea0f57a61,5f5c7dcf65bc63010aea01e0,6,,,,,,wheel,,,,,,,,,,,6,1,0,20,20,52,1,,,,,,,,,,,,,,,,,,,,,,,,,,,,,,,,,,,,,,,,,,,,,,,,,,,,,,,,,,,,,,,,,,,,,,
,,LIFE,8.26,0,,,,,,stimuli/images/PICTURE_340.png,VALLEY,59609bdb599b690001ef2c59,25/12/1950,2020-09-12_08h51.06.405,proactive3.2,2020.1.2,Win32,60,5f5adea66120081ea0f57a61,5f5c7dcf65bc63010aea01e0,6,,,,,,mirror,,,,,,,,,,,6,1,0,21,21,54,1,,,,,,,,,,,,,,,,,,,,,,,,,,,,,,,,,,,,,,,,,,,,,,,,,,,,,,,,,,,,,,,,,,,,,,
,,?,0.001,0,,,,,,stimuli/images/PICTURE_487.png,GIRL,59609bdb599b690001ef2c59,25/12/1950,2020-09-12_08h51.06.405,proactive3.2,2020.1.2,Win32,60,5f5adea66120081ea0f57a61,5f5c7dcf65bc63010aea01e0,6,,,,,,basket,,,,,,,,,,,5,1,0,22,22,45,1,,,,,,,,,,,,,,,,,,,,,,,,,,,,,,,,,,,,,,,,,,,,,,,,,,,,,,,,,,,,,,,,,,,,,,
,,?,0.001,0,,,,,,stimuli/images/PICTURE_380.png,CANDY,59609bdb599b690001ef2c59,25/12/1950,2020-09-12_08h51.06.405,proactive3.2,2020.1.2,Win32,60,5f5adea66120081ea0f57a61,5f5c7dcf65bc63010aea01e0,6,,,,,,gorilla,,,,,,,,,,,1,1,0,23,23,0,1,,,,,,,,,,,,,,,,,,,,,,,,,,,,,,,,,,,,,,,,,,,,,,,,,,,,,,,,,,,,,,,,,,,,,,
,,FLIGHT,3.547,0,,,,,,stimuli/images/PICTURE_95.png,MILLER,59609bdb599b690001ef2c59,25/12/1950,2020-09-12_08h51.06.405,proactive3.2,2020.1.2,Win32,60,5f5adea66120081ea0f57a61,5f5c7dcf65bc63010aea01e0,6,,,,,,suitcase,,,,,,,,,,,6,1,0,24,24,56,1,,,,,,,,,,,,,,,,,,,,,,,,,,,,,,,,,,,,,,,,,,,,,,,,,,,,,,,,,,,,,,,,,,,,,,
,,?,0.001,0,,,,,,stimuli/images/PICTURE_85.png,TOILET,59609bdb599b690001ef2c59,25/12/1950,2020-09-12_08h51.06.405,proactive3.2,2020.1.2,Win32,60,5f5adea66120081ea0f57a61,5f5c7dcf65bc63010aea01e0,6,,,,,,diamond,,,,,,,,,,,5,1,0,25,25,48,1,,,,,,,,,,,,,,,,,,,,,,,,,,,,,,,,,,,,,,,,,,,,,,,,,,,,,,,,,,,,,,,,,,,,,,
,,?,0.001,0,,,,,,stimuli/images/PICTURE_491.png,GLASS,59609bdb599b690001ef2c59,25/12/1950,2020-09-12_08h51.06.405,proactive3.2,2020.1.2,Win32,60,5f5adea66120081ea0f57a61,5f5c7dcf65bc63010aea01e0,6,,,,,,rug,,,,,,,,,,,2,1,0,26,26,14,1,,,,,,,,,,,,,,,,,,,,,,,,,,,,,,,,,,,,,,,,,,,,,,,,,,,,,,,,,,,,,,,,,,,,,,
,,?,0.001,0,,,,,,stimuli/images/PICTURE_504.png,ARTIST,59609bdb599b690001ef2c59,25/12/1950,2020-09-12_08h51.06.405,proactive3.2,2020.1.2,Win32,60,5f5adea66120081ea0f57a61,5f5c7dcf65bc63010aea01e0,6,,,,,,wheel,,,,,,,,,,,5,1,0,27,27,49,1,,,,,,,,,,,,,,,,,,,,,,,,,,,,,,,,,,,,,,,,,,,,,,,,,,,,,,,,,,,,,,,,,,,,,,
,,?,0.002,0,,,,,,stimuli/images/PICTURE_504.png,YEAR,59609bdb599b690001ef2c59,25/12/1950,2020-09-12_08h51.06.405,proactive3.2,2020.1.2,Win32,60,5f5adea66120081ea0f57a61,5f5c7dcf65bc63010aea01e0,6,,,,,,wheel,,,,,,,,,,,2,1,0,28,28,13,1,,,,,,,,,,,,,,,,,,,,,,,,,,,,,,,,,,,,,,,,,,,,,,,,,,,,,,,,,,,,,,,,,,,,,,
,,?,0.001,0,,,,,,stimuli/images/PICTURE_33.png,FRIEND,59609bdb599b690001ef2c59,25/12/1950,2020-09-12_08h51.06.405,proactive3.2,2020.1.2,Win32,60,5f5adea66120081ea0f57a61,5f5c7dcf65bc63010aea01e0,6,,,,,,frame,,,,,,,,,,,1,1,0,29,29,8,1,,,,,,,,,,,,,,,,,,,,,,,,,,,,,,,,,,,,,,,,,,,,,,,,,,,,,,,,,,,,,,,,,,,,,,
,,?,0.001,0,,,,,,stimuli/images/PICTURE_68.png,ROOF,59609bdb599b690001ef2c59,25/12/1950,2020-09-12_08h51.06.405,proactive3.2,2020.1.2,Win32,60,5f5adea66120081ea0f57a61,5f5c7dcf65bc63010aea01e0,6,,,,,,candle,,,,,,,,,,,4,1,0,30,30,38,1,,,,,,,,,,,,,,,,,,,,,,,,,,,,,,,,,,,,,,,,,,,,,,,,,,,,,,,,,,,,,,,,,,,,,,
,,?,0.001,0,,,,,,stimuli/images/PICTURE_95.png,BOYS,59609bdb599b690001ef2c59,25/12/1950,2020-09-12_08h51.06.405,proactive3.2,2020.1.2,Win32,60,5f5adea66120081ea0f57a61,5f5c7dcf65bc63010aea01e0,6,,,,,,suitcase,,,,,,,,,,,1,1,0,31,31,1,1,,,,,,,,,,,,,,,,,,,,,,,,,,,,,,,,,,,,,,,,,,,,,,,,,,,,,,,,,,,,,,,,,,,,,,
,,?,0.002,0,,,,,,stimuli/images/PICTURE_383.png,WRITER,59609bdb599b690001ef2c59,25/12/1950,2020-09-12_08h51.06.405,proactive3.2,2020.1.2,Win32,60,5f5adea66120081ea0f57a61,5f5c7dcf65bc63010aea01e0,6,,,,,,coin,,,,,,,,,,,3,1,0,32,32,28,1,,,,,,,,,,,,,,,,,,,,,,,,,,,,,,,,,,,,,,,,,,,,,,,,,,,,,,,,,,,,,,,,,,,,,,
,,FLIGHT,3.535,0,,,,,,stimuli/images/PICTURE_467.png,POLICY,59609bdb599b690001ef2c59,25/12/1950,2020-09-12_08h51.06.405,proactive3.2,2020.1.2,Win32,60,5f5adea66120081ea0f57a61,5f5c7dcf65bc63010aea01e0,6,,,,,,peg,,,,,,,,,,,6,1,0,33,33,53,1,,,,,,,,,,,,,,,,,,,,,,,,,,,,,,,,,,,,,,,,,,,,,,,,,,,,,,,,,,,,,,,,,,,,,,
,,LIFE,3.956,0,,,,,,stimuli/images/PICTURE_68.png,MILE,59609bdb599b690001ef2c59,25/12/1950,2020-09-12_08h51.06.405,proactive3.2,2020.1.2,Win32,60,5f5adea66120081ea0f57a61,5f5c7dcf65bc63010aea01e0,6,,,,,,candle,,,,,,,,,,,6,1,0,34,34,51,1,,,,,,,,,,,,,,,,,,,,,,,,,,,,,,,,,,,,,,,,,,,,,,,,,,,,,,,,,,,,,,,,,,,,,,
,,?,0.001,0,,,,,,stimuli/images/PICTURE_203.png,NIGHT,59609bdb599b690001ef2c59,25/12/1950,2020-09-12_08h51.06.405,proactive3.2,2020.1.2,Win32,60,5f5adea66120081ea0f57a61,5f5c7dcf65bc63010aea01e0,6,,,,,,cap,,,,,,,,,,,1,1,0,35,35,2,1,,,,,,,,,,,,,,,,,,,,,,,,,,,,,,,,,,,,,,,,,,,,,,,,,,,,,,,,,,,,,,,,,,,,,,
,,?,0,0,,,,,,stimuli/images/PICTURE_685.png,PENNY,59609bdb599b690001ef2c59,25/12/1950,2020-09-12_08h51.06.405,proactive3.2,2020.1.2,Win32,60,5f5adea66120081ea0f57a61,5f5c7dcf65bc63010aea01e0,6,,,,,,goose,,,,,,,,,,,1,1,0,36,36,4,1,,,,,,,,,,,,,,,,,,,,,,,,,,,,,,,,,,,,,,,,,,,,,,,,,,,,,,,,,,,,,,,,,,,,,,
,,?,0,0,,,,,,stimuli/images/PICTURE_380.png,HONEY,59609bdb599b690001ef2c59,25/12/1950,2020-09-12_08h51.06.405,proactive3.2,2020.1.2,Win32,60,5f5adea66120081ea0f57a61,5f5c7dcf65bc63010aea01e0,6,,,,,,gorilla,,,,,,,,,,,2,1,0,37,37,19,1,,,,,,,,,,,,,,,,,,,,,,,,,,,,,,,,,,,,,,,,,,,,,,,,,,,,,,,,,,,,,,,,,,,,,,
,,?,0.002,0,,,,,,stimuli/images/PICTURE_403.png,WRITER,59609bdb599b690001ef2c59,25/12/1950,2020-09-12_08h51.06.405,proactive3.2,2020.1.2,Win32,60,5f5adea66120081ea0f57a61,5f5c7dcf65bc63010aea01e0,6,,,,,,cathedral,,,,,,,,,,,4,1,0,38,38,31,1,,,,,,,,,,,,,,,,,,,,,,,,,,,,,,,,,,,,,,,,,,,,,,,,,,,,,,,,,,,,,,,,,,,,,,
,,?,0.001,0,,,,,,stimuli/images/PICTURE_403.png,RIVER,59609bdb599b690001ef2c59,25/12/1950,2020-09-12_08h51.06.405,proactive3.2,2020.1.2,Win32,60,5f5adea66120081ea0f57a61,5f5c7dcf65bc63010aea01e0,6,,,,,,cathedral,,,,,,,,,,,5,1,0,39,39,40,1,,,,,,,,,,,,,,,,,,,,,,,,,,,,,,,,,,,,,,,,,,,,,,,,,,,,,,,,,,,,,,,,,,,,,,
,,?,0.001,0,,,,,,stimuli/images/PICTURE_177.png,WRITER,59609bdb599b690001ef2c59,25/12/1950,2020-09-12_08h51.06.405,proactive3.2,2020.1.2,Win32,60,5f5adea66120081ea0f57a61,5f5c7dcf65bc63010aea01e0,6,,,,,,mushroom,,,,,,,,,,,5,1,0,40,40,41,1,,,,,,,,,,,,,,,,,,,,,,,,,,,,,,,,,,,,,,,,,,,,,,,,,,,,,,,,,,,,,,,,,,,,,,
,,?,0,0,,,,,,stimuli/images/PICTURE_57.png,MOMENT,59609bdb599b690001ef2c59,25/12/1950,2020-09-12_08h51.06.405,proactive3.2,2020.1.2,Win32,60,5f5adea66120081ea0f57a61,5f5c7dcf65bc63010aea01e0,6,,,,,,stamp,,,,,,,,,,,4,1,0,41,41,37,1,,,,,,,,,,,,,,,,,,,,,,,,,,,,,,,,,,,,,,,,,,,,,,,,,,,,,,,,,,,,,,,,,,,,,,
,,?,0,0,,,,,,stimuli/images/PICTURE_108.png,POLICY,59609bdb599b690001ef2c59,25/12/1950,2020-09-12_08h51.06.405,proactive3.2,2020.1.2,Win32,60,5f5adea66120081ea0f57a61,5f5c7dcf65bc63010aea01e0,6,,,,,,calendar,,,,,,,,,,,3,1,0,42,42,22,1,,,,,,,,,,,,,,,,,,,,,,,,,,,,,,,,,,,,,,,,,,,,,,,,,,,,,,,,,,,,,,,,,,,,,,
,,?,0.001,0,,,,,,stimuli/images/PICTURE_667.png,RIVER,59609bdb599b690001ef2c59,25/12/1950,2020-09-12_08h51.06.405,proactive3.2,2020.1.2,Win32,60,5f5adea66120081ea0f57a61,5f5c7dcf65bc63010aea01e0,6,,,,,,daisy,,,,,,,,,,,2,1,0,43,43,10,1,,,,,,,,,,,,,,,,,,,,,,,,,,,,,,,,,,,,,,,,,,,,,,,,,,,,,,,,,,,,,,,,,,,,,,
,,?,0.001,0,,,,,,stimuli/images/PICTURE_655.png,TOILET,59609bdb599b690001ef2c59,25/12/1950,2020-09-12_08h51.06.405,proactive3.2,2020.1.2,Win32,60,5f5adea66120081ea0f57a61,5f5c7dcf65bc63010aea01e0,6,,,,,,megaphone,,,,,,,,,,,2,1,0,44,44,12,1,,,,,,,,,,,,,,,,,,,,,,,,,,,,,,,,,,,,,,,,,,,,,,,,,,,,,,,,,,,,,,,,,,,,,,
,,?,0.002,0,,,,,,stimuli/images/PICTURE_403.png,TOILET,59609bdb599b690001ef2c59,25/12/1950,2020-09-12_08h51.06.405,proactive3.2,2020.1.2,Win32,60,5f5adea66120081ea0f57a61,5f5c7dcf65bc63010aea01e0,6,,,,,,cathedral,,,,,,,,,,,3,1,0,45,45,25,1,,,,,,,,,,,,,,,,,,,,,,,,,,,,,,,,,,,,,,,,,,,,,,,,,,,,,,,,,,,,,,,,,,,,,,
,,KILLER,4.057,0,,,,,,stimuli/images/PICTURE_708.png,RECORD,59609bdb599b690001ef2c59,25/12/1950,2020-09-12_08h51.06.405,proactive3.2,2020.1.2,Win32,60,5f5adea66120081ea0f57a61,5f5c7dcf65bc63010aea01e0,6,,,,,,monkey,,,,,,,,,,,6,1,0,46,46,58,1,,,,,,,,,,,,,,,,,,,,,,,,,,,,,,,,,,,,,,,,,,,,,,,,,,,,,,,,,,,,,,,,,,,,,,
,,?,0.001,0,,,,,,stimuli/images/PICTURE_675.png,SALE,59609bdb599b690001ef2c59,25/12/1950,2020-09-12_08h51.06.405,proactive3.2,2020.1.2,Win32,60,5f5adea66120081ea0f57a61,5f5c7dcf65bc63010aea01e0,6,,,,,,windmill,,,,,,,,,,,5,1,0,47,47,47,1,,,,,,,,,,,,,,,,,,,,,,,,,,,,,,,,,,,,,,,,,,,,,,,,,,,,,,,,,,,,,,,,,,,,,,
,,?,0.002,0,,,,,,stimuli/images/PICTURE_750.png,HOTEL,59609bdb599b690001ef2c59,25/12/1950,2020-09-12_08h51.06.405,proactive3.2,2020.1.2,Win32,60,5f5adea66120081ea0f57a61,5f5c7dcf65bc63010aea01e0,6,,,,,,kettle,,,,,,,,,,,3,1,0,48,48,27,1,,,,,,,,,,,,,,,,,,,,,,,,,,,,,,,,,,,,,,,,,,,,,,,,,,,,,,,,,,,,,,,,,,,,,,
,,?,0,0,,,,,,stimuli/images/PICTURE_147.png,YEAR,59609bdb599b690001ef2c59,25/12/1950,2020-09-12_08h51.06.405,proactive3.2,2020.1.2,Win32,60,5f5adea66120081ea0f57a61,5f5c7dcf65bc63010aea01e0,6,,,,,,hanger,,,,,,,,,,,3,1,0,49,49,21,1,,,,,,,,,,,,,,,,,,,,,,,,,,,,,,,,,,,,,,,,,,,,,,,,,,,,,,,,,,,,,,,,,,,,,,
,,?,0.001,0,,,,,,stimuli/images/PICTURE_297.png,RIVER,59609bdb599b690001ef2c59,25/12/1950,2020-09-12_08h51.06.405,proactive3.2,2020.1.2,Win32,60,5f5adea66120081ea0f57a61,5f5c7dcf65bc63010aea01e0,6,,,,,,aeroplane,,,,,,,,,,,4,1,0,50,50,39,1,,,,,,,,,,,,,,,,,,,,,,,,,,,,,,,,,,,,,,,,,,,,,,,,,,,,,,,,,,,,,,,,,,,,,,
,,?,0.001,0,,,,,,stimuli/images/PICTURE_564.png,BATH,59609bdb599b690001ef2c59,25/12/1950,2020-09-12_08h51.06.405,proactive3.2,2020.1.2,Win32,60,5f5adea66120081ea0f57a61,5f5c7dcf65bc63010aea01e0,6,,,,,,spoon,,,,,,,,,,,3,1,0,51,51,26,1,,,,,,,,,,,,,,,,,,,,,,,,,,,,,,,,,,,,,,,,,,,,,,,,,,,,,,,,,,,,,,,,,,,,,,
,,YOUNG,6.495,0,,,,,,stimuli/images/PICTURE_42.png,BOYS,59609bdb599b690001ef2c59,25/12/1950,2020-09-12_08h51.06.405,proactive3.2,2020.1.2,Win32,60,5f5adea66120081ea0f57a61,5f5c7dcf65bc63010aea01e0,6,,,,,,pear,,,,,,,,,,,6,1,0,52,52,55,1,,,,,,,,,,,,,,,,,,,,,,,,,,,,,,,,,,,,,,,,,,,,,,,,,,,,,,,,,,,,,,,,,,,,,,
,,?,0.002,0,,,,,,stimuli/images/PICTURE_405.png,PLENTY,59609bdb599b690001ef2c59,25/12/1950,2020-09-12_08h51.06.405,proactive3.2,2020.1.2,Win32,60,5f5adea66120081ea0f57a61,5f5c7dcf65bc63010aea01e0,6,,,,,,anchor,,,,,,,,,,,3,1,0,53,53,23,1,,,,,,,,,,,,,,,,,,,,,,,,,,,,,,,,,,,,,,,,,,,,,,,,,,,,,,,,,,,,,,,,,,,,,,
,,?,0.002,0,,,,,,stimuli/images/PICTURE_308.png,FAMILY,59609bdb599b690001ef2c59,25/12/1950,2020-09-12_08h51.06.405,proactive3.2,2020.1.2,Win32,60,5f5adea66120081ea0f57a61,5f5c7dcf65bc63010aea01e0,6,,,,,,dice,,,,,,,,,,,4,1,0,54,54,36,1,,,,,,,,,,,,,,,,,,,,,,,,,,,,,,,,,,,,,,,,,,,,,,,,,,,,,,,,,,,,,,,,,,,,,,
,,FLIGHT,3.274,1,,,,,,stimuli/images/PICTURE_108.png,FLIGHT,59609bdb599b690001ef2c59,25/12/1950,2020-09-12_08h51.06.405,proactive3.2,2020.1.2,Win32,60,5f5adea66120081ea0f57a61,5f5c7dcf65bc63010aea01e0,6,,,,,,calendar,,,,,,,,,,,6,1,0,55,55,59,1,,,,,,,,,,,,,,,,,,,,,,,,,,,,,,,,,,,,,,,,,,,,,,,,,,,,,,,,,,,,,,,,,,,,,,
,,?,0.002,0,,,,,,stimuli/images/PICTURE_340.png,LETTER,59609bdb599b690001ef2c59,25/12/1950,2020-09-12_08h51.06.405,proactive3.2,2020.1.2,Win32,60,5f5adea66120081ea0f57a61,5f5c7dcf65bc63010aea01e0,6,,,,,,mirror,,,,,,,,,,,3,1,0,56,56,24,1,,,,,,,,,,,,,,,,,,,,,,,,,,,,,,,,,,,,,,,,,,,,,,,,,,,,,,,,,,,,,,,,,,,,,,
,,?,0.001,0,,,,,,stimuli/images/PICTURE_383.png,SERIES,59609bdb599b690001ef2c59,25/12/1950,2020-09-12_08h51.06.405,proactive3.2,2020.1.2,Win32,60,5f5adea66120081ea0f57a61,5f5c7dcf65bc63010aea01e0,6,,,,,,coin,,,,,,,,,,,5,1,0,57,57,46,1,,,,,,,,,,,,,,,,,,,,,,,,,,,,,,,,,,,,,,,,,,,,,,,,,,,,,,,,,,,,,,,,,,,,,,
,,?,0.001,0,,,,,,stimuli/images/PICTURE_677.png,APPLE,59609bdb599b690001ef2c59,25/12/1950,2020-09-12_08h51.06.405,proactive3.2,2020.1.2,Win32,60,5f5adea66120081ea0f57a61,5f5c7dcf65bc63010aea01e0,6,,,,,,map,,,,,,,,,,,5,1,0,58,58,43,1,,,,,,,,,,,,,,,,,,,,,,,,,,,,,,,,,,,,,,,,,,,,,,,,,,,,,,,,,,,,,,,,,,,,,,
,,?,0.002,0,,,,,,stimuli/images/PICTURE_654.png,MONTH,59609bdb599b690001ef2c59,25/12/1950,2020-09-12_08h51.06.405,proactive3.2,2020.1.2,Win32,60,5f5adea66120081ea0f57a61,5f5c7dcf65bc63010aea01e0,6,,,,,,pencil,,,,,,,,,,,3,1,0,59,59,29,1,,,,,,,,,,,,,,,,,,,,,,,,,,,,,,,,,,,,,,,,,,,,,,,,,,,,,,,,,,,,,,,,,,,,,,
,,,,,,,,,,,,59609bdb599b690001ef2c59,25/12/1950,2020-09-12_08h51.06.405,proactive3.2,2020.1.2,Win32,60,5f5adea66120081ea0f57a61,5f5c7dcf65bc63010aea01e0,6,,,,,,,,,,,,,,,,,,,,,,,,0,0,0,1,1,stimuli/learn-block2.csv,,,,,,,,,,,,,,,,,,,,,,,,,,,,,,,,,,,,,,,,,,,,,,,,,,,,,,,,,,,,,,,,
,,,,,,,,,,stimuli/images/PICTURE_160.png,FEET,59609bdb599b690001ef2c59,25/12/1950,2020-09-12_08h51.06.405,proactive3.2,2020.1.2,Win32,60,5f5adea66120081ea0f57a61,5f5c7dcf65bc63010aea01e0,6,,,,,,wheelbarrow,,,,,,0,0,0,58,1,6,0,,,,,,,,,,,,,,,,,,,,,,,,,,,,,,,,,,,,,,,,,,,,,,,,,,,,,,,,,,,,,,,,,,,,,,,,,,,
,,,,,,,,,,stimuli/images/PICTURE_380.png,DEATH,59609bdb599b690001ef2c59,25/12/1950,2020-09-12_08h51.06.405,proactive3.2,2020.1.2,Win32,60,5f5adea66120081ea0f57a61,5f5c7dcf65bc63010aea01e0,6,,,,,,gorilla,,,,,,0,1,1,49,1,5,0,,,,,,,,,,,,,,,,,,,,,,,,,,,,,,,,,,,,,,,,,,,,,,,,,,,,,,,,,,,,,,,,,,,,,,,,,,,
,,,,,,,,,,stimuli/images/PICTURE_504.png,BODY,59609bdb599b690001ef2c59,25/12/1950,2020-09-12_08h51.06.405,proactive3.2,2020.1.2,Win32,60,5f5adea66120081ea0f57a61,5f5c7dcf65bc63010aea01e0,6,,,,,,wheel,,,,,,0,2,2,8,1,1,0,,,,,,,,,,,,,,,,,,,,,,,,,,,,,,,,,,,,,,,,,,,,,,,,,,,,,,,,,,,,,,,,,,,,,,,,,,,
,,,,,,,,,,stimuli/images/PICTURE_32.png,JUNGLE,59609bdb599b690001ef2c59,25/12/1950,2020-09-12_08h51.06.405,proactive3.2,2020.1.2,Win32,60,5f5adea66120081ea0f57a61,5f5c7dcf65bc63010aea01e0,6,,,,,,crown,,,,,,0,3,3,45,1,5,0,,,,,,,,,,,,,,,,,,,,,,,,,,,,,,,,,,,,,,,,,,,,,,,,,,,,,,,,,,,,,,,,,,,,,,,,,,,
,,,,,,,,,,stimuli/images/PICTURE_314.png,GODS,59609bdb599b690001ef2c59,25/12/1950,2020-09-12_08h51.06.405,proactive3.2,2020.1.2,Win32,60,5f5adea66120081ea0f57a61,5f5c7dcf65bc63010aea01e0,6,,,,,,perfume,,,,,,0,4,4,11,1,2,0,,,,,,,,,,,,,,,,,,,,,,,,,,,,,,,,,,,,,,,,,,,,,,,,,,,,,,,,,,,,,,,,,,,,,,,,,,,
,,,,,,,,,,stimuli/images/PICTURE_667.png,PLENTY,59609bdb599b690001ef2c59,25/12/1950,2020-09-12_08h51.06.405,proactive3.2,2020.1.2,Win32,60,5f5adea66120081ea0f57a61,5f5c7dcf65bc63010aea01e0,6,,,,,,daisy,,,,,,0,5,5,41,1,5,0,,,,,,,,,,,,,,,,,,,,,,,,,,,,,,,,,,,,,,,,,,,,,,,,,,,,,,,,,,,,,,,,,,,,,,,,,,,
,,,,,,,,,,stimuli/images/PICTURE_470.png,CASINO,59609bdb599b690001ef2c59,25/12/1950,2020-09-12_08h51.06.405,proactive3.2,2020.1.2,Win32,60,5f5adea66120081ea0f57a61,5f5c7dcf65bc63010aea01e0,6,,,,,,motorbike,,,,,,0,6,6,36,1,4,0,,,,,,,,,,,,,,,,,,,,,,,,,,,,,,,,,,,,,,,,,,,,,,,,,,,,,,,,,,,,,,,,,,,,,,,,,,,
,,,,,,,,,,stimuli/images/PICTURE_160.png,LEADER,59609bdb599b690001ef2c59,25/12/1950,2020-09-12_08h51.06.405,proactive3.2,2020.1.2,Win32,60,5f5adea66120081ea0f57a61,5f5c7dcf65bc63010aea01e0,6,,,,,,wheelbarrow,,,,,,0,7,7,3,1,1,0,,,,,,,,,,,,,,,,,,,,,,,,,,,,,,,,,,,,,,,,,,,,,,,,,,,,,,,,,,,,,,,,,,,,,,,,,,,
,,,,,,,,,,stimuli/images/PICTURE_356.png,DANGER,59609bdb599b690001ef2c59,25/12/1950,2020-09-12_08h51.06.405,proactive3.2,2020.1.2,Win32,60,5f5adea66120081ea0f57a61,5f5c7dcf65bc63010aea01e0,6,,,,,,pawn,,,,,,0,8,8,55,1,6,0,,,,,,,,,,,,,,,,,,,,,,,,,,,,,,,,,,,,,,,,,,,,,,,,,,,,,,,,,,,,,,,,,,,,,,,,,,,
,,,,,,,,,,stimuli/images/PICTURE_233.png,WOMEN,59609bdb599b690001ef2c59,25/12/1950,2020-09-12_08h51.06.405,proactive3.2,2020.1.2,Win32,60,5f5adea66120081ea0f57a61,5f5c7dcf65bc63010aea01e0,6,,,,,,salt,,,,,,0,9,9,38,1,4,0,,,,,,,,,,,,,,,,,,,,,,,,,,,,,,,,,,,,,,,,,,,,,,,,,,,,,,,,,,,,,,,,,,,,,,,,,,,
,,,,,,,,,,stimuli/images/PICTURE_467.png,DEMON,59609bdb599b690001ef2c59,25/12/1950,2020-09-12_08h51.06.405,proactive3.2,2020.1.2,Win32,60,5f5adea66120081ea0f57a61,5f5c7dcf65bc63010aea01e0,6,,,,,,peg,,,,,,0,10,10,23,1,3,0,,,,,,,,,,,,,,,,,,,,,,,,,,,,,,,,,,,,,,,,,,,,,,,,,,,,,,,,,,,,,,,,,,,,,,,,,,,
,,,,,,,,,,stimuli/images/PICTURE_68.png,MILE,59609bdb599b690001ef2c59,25/12/1950,2020-09-12_08h51.06.405,proactive3.2,2020.1.2,Win32,60,5f5adea66120081ea0f57a61,5f5c7dcf65bc63010aea01e0,6,,,,,,candle,,,,,,0,11,11,44,1,5,0,,,,,,,,,,,,,,,,,,,,,,,,,,,,,,,,,,,,,,,,,,,,,,,,,,,,,,,,,,,,,,,,,,,,,,,,,,,
,,,,,,,,,,stimuli/images/PICTURE_311.png,FRIEND,59609bdb599b690001ef2c59,25/12/1950,2020-09-12_08h51.06.405,proactive3.2,2020.1.2,Win32,60,5f5adea66120081ea0f57a61,5f5c7dcf65bc63010aea01e0,6,,,,,,razor,,,,,,0,12,12,34,1,4,0,,,,,,,,,,,,,,,,,,,,,,,,,,,,,,,,,,,,,,,,,,,,,,,,,,,,,,,,,,,,,,,,,,,,,,,,,,,
,,,,,,,,,,stimuli/images/PICTURE_151.png,GIRL,59609bdb599b690001ef2c59,25/12/1950,2020-09-12_08h51.06.405,proactive3.2,2020.1.2,Win32,60,5f5adea66120081ea0f57a61,5f5c7dcf65bc63010aea01e0,6,,,,,,tray,,,,,,0,13,13,19,1,2,0,,,,,,,,,,,,,,,,,,,,,,,,,,,,,,,,,,,,,,,,,,,,,,,,,,,,,,,,,,,,,,,,,,,,,,,,,,,
,,,,,,,,,,stimuli/images/PICTURE_491.png,WRITER,59609bdb599b690001ef2c59,25/12/1950,2020-09-12_08h51.06.405,proactive3.2,2020.1.2,Win32,60,5f5adea66120081ea0f57a61,5f5c7dcf65bc63010aea01e0,6,,,,,,rug,,,,,,0,14,14,57,1,6,0,,,,,,,,,,,,,,,,,,,,,,,,,,,,,,,,,,,,,,,,,,,,,,,,,,,,,,,,,,,,,,,,,,,,,,,,,,,
,,,,,,,,,,stimuli/images/PICTURE_311.png,BEAUTY,59609bdb599b690001ef2c59,25/12/1950,2020-09-12_08h51.06.405,proactive3.2,2020.1.2,Win32,60,5f5adea66120081ea0f57a61,5f5c7dcf65bc63010aea01e0,6,,,,,,razor,,,,,,0,15,15,13,1,2,0,,,,,,,,,,,,,,,,,,,,,,,,,,,,,,,,,,,,,,,,,,,,,,,,,,,,,,,,,,,,,,,,,,,,,,,,,,,
,,,,,,,,,,stimuli/images/PICTURE_708.png,CLIENT,59609bdb599b690001ef2c59,25/12/1950,2020-09-12_08h51.06.405,proactive3.2,2020.1.2,Win32,60,5f5adea66120081ea0f57a61,5f5c7dcf65bc63010aea01e0,6,,,,,,monkey,,,,,,0,16,16,5,1,1,0,,,,,,,,,,,,,,,,,,,,,,,,,,,,,,,,,,,,,,,,,,,,,,,,,,,,,,,,,,,,,,,,,,,,,,,,,,,
,,,,,,,,,,stimuli/images/PICTURE_453.png,PLENTY,59609bdb599b690001ef2c59,25/12/1950,2020-09-12_08h51.06.405,proactive3.2,2020.1.2,Win32,60,5f5adea66120081ea0f57a61,5f5c7dcf65bc63010aea01e0,6,,,,,,scissors,,,,,,0,17,17,56,1,6,0,,,,,,,,,,,,,,,,,,,,,,,,,,,,,,,,,,,,,,,,,,,,,,,,,,,,,,,,,,,,,,,,,,,,,,,,,,,
,,,,,,,,,,stimuli/images/PICTURE_667.png,BATH,59609bdb599b690001ef2c59,25/12/1950,2020-09-12_08h51.06.405,proactive3.2,2020.1.2,Win32,60,5f5adea66120081ea0f57a61,5f5c7dcf65bc63010aea01e0,6,,,,,,daisy,,,,,,0,18,18,4,1,1,0,,,,,,,,,,,,,,,,,,,,,,,,,,,,,,,,,,,,,,,,,,,,,,,,,,,,,,,,,,,,,,,,,,,,,,,,,,,
,,,,,,,,,,stimuli/images/PICTURE_123.png,ADVICE,59609bdb599b690001ef2c59,25/12/1950,2020-09-12_08h51.06.405,proactive3.2,2020.1.2,Win32,60,5f5adea66120081ea0f57a61,5f5c7dcf65bc63010aea01e0,6,,,,,,dart,,,,,,0,19,19,50,1,6,0,,,,,,,,,,,,,,,,,,,,,,,,,,,,,,,,,,,,,,,,,,,,,,,,,,,,,,,,,,,,,,,,,,,,,,,,,,,
,,,,,,,,,,stimuli/images/PICTURE_469.png,ARTIST,59609bdb599b690001ef2c59,25/12/1950,2020-09-12_08h51.06.405,proactive3.2,2020.1.2,Win32,60,5f5adea66120081ea0f57a61,5f5c7dcf65bc63010aea01e0,6,,,,,,stool,,,,,,0,20,20,6,1,1,0,,,,,,,,,,,,,,,,,,,,,,,,,,,,,,,,,,,,,,,,,,,,,,,,,,,,,,,,,,,,,,,,,,,,,,,,,,,
,,,,,,,,,,stimuli/images/PICTURE_285.png,ADVICE,59609bdb599b690001ef2c59,25/12/1950,2020-09-12_08h51.06.405,proactive3.2,2020.1.2,Win32,60,5f5adea66120081ea0f57a61,5f5c7dcf65bc63010aea01e0,6,,,,,,carrot,,,,,,0,21,21,12,1,2,0,,,,,,,,,,,,,,,,,,,,,,,,,,,,,,,,,,,,,,,,,,,,,,,,,,,,,,,,,,,,,,,,,,,,,,,,,,,
,,,,,,,,,,stimuli/images/PICTURE_215.png,PLENTY,59609bdb599b690001ef2c59,25/12/1950,2020-09-12_08h51.06.405,proactive3.2,2020.1.2,Win32,60,5f5adea66120081ea0f57a61,5f5c7dcf65bc63010aea01e0,6,,,,,,boot,,,,,,0,22,22,37,1,4,0,,,,,,,,,,,,,,,,,,,,,,,,,,,,,,,,,,,,,,,,,,,,,,,,,,,,,,,,,,,,,,,,,,,,,,,,,,,
,,,,,,,,,,stimuli/images/PICTURE_509.png,PHOTO,59609bdb599b690001ef2c59,25/12/1950,2020-09-12_08h51.06.405,proactive3.2,2020.1.2,Win32,60,5f5adea66120081ea0f57a61,5f5c7dcf65bc63010aea01e0,6,,,,,,telephone,,,,,,0,23,23,21,1,3,0,,,,,,,,,,,,,,,,,,,,,,,,,,,,,,,,,,,,,,,,,,,,,,,,,,,,,,,,,,,,,,,,,,,,,,,,,,,
,,,,,,,,,,stimuli/images/PICTURE_654.png,VALLEY,59609bdb599b690001ef2c59,25/12/1950,2020-09-12_08h51.06.405,proactive3.2,2020.1.2,Win32,60,5f5adea66120081ea0f57a61,5f5c7dcf65bc63010aea01e0,6,,,,,,pencil,,,,,,0,24,24,1,1,1,0,,,,,,,,,,,,,,,,,,,,,,,,,,,,,,,,,,,,,,,,,,,,,,,,,,,,,,,,,,,,,,,,,,,,,,,,,,,
,,,,,,,,,,stimuli/images/PICTURE_380.png,PHOTO,59609bdb599b690001ef2c59,25/12/1950,2020-09-12_08h51.06.405,proactive3.2,2020.1.2,Win32,60,5f5adea66120081ea0f57a61,5f5c7dcf65bc63010aea01e0,6,,,,,,gorilla,,,,,,0,25,25,52,1,6,0,,,,,,,,,,,,,,,,,,,,,,,,,,,,,,,,,,,,,,,,,,,,,,,,,,,,,,,,,,,,,,,,,,,,,,,,,,,
,,,,,,,,,,stimuli/images/PICTURE_208.png,LOTS,59609bdb599b690001ef2c59,25/12/1950,2020-09-12_08h51.06.405,proactive3.2,2020.1.2,Win32,60,5f5adea66120081ea0f57a61,5f5c7dcf65bc63010aea01e0,6,,,,,,microphone,,,,,,0,26,26,10,1,2,0,,,,,,,,,,,,,,,,,,,,,,,,,,,,,,,,,,,,,,,,,,,,,,,,,,,,,,,,,,,,,,,,,,,,,,,,,,,
,,,,,,,,,,stimuli/images/PICTURE_708.png,PENNY,59609bdb599b690001ef2c59,25/12/1950,2020-09-12_08h51.06.405,proactive3.2,2020.1.2,Win32,60,5f5adea66120081ea0f57a61,5f5c7dcf65bc63010aea01e0,6,,,,,,monkey,,,,,,0,27,27,31,1,4,0,,,,,,,,,,,,,,,,,,,,,,,,,,,,,,,,,,,,,,,,,,,,,,,,,,,,,,,,,,,,,,,,,,,,,,,,,,,
,,,,,,,,,,stimuli/images/PICTURE_677.png,MILE,59609bdb599b690001ef2c59,25/12/1950,2020-09-12_08h51.06.405,proactive3.2,2020.1.2,Win32,60,5f5adea66120081ea0f57a61,5f5c7dcf65bc63010aea01e0,6,,,,,,map,,,,,,0,28,28,30,1,4,0,,,,,,,,,,,,,,,,,,,,,,,,,,,,,,,,,,,,,,,,,,,,,,,,,,,,,,,,,,,,,,,,,,,,,,,,,,,
,,,,,,,,,,stimuli/images/PICTURE_348.png,SPEECH,59609bdb599b690001ef2c59,25/12/1950,2020-09-12_08h51.06.405,proactive3.2,2020.1.2,Win32,60,5f5adea66120081ea0f57a61,5f5c7dcf65bc63010aea01e0,6,,,,,,pepper,,,,,,0,29,29,20,1,3,0,,,,,,,,,,,,,,,,,,,,,,,,,,,,,,,,,,,,,,,,,,,,,,,,,,,,,,,,,,,,,,,,,,,,,,,,,,,
,,,,,,,,,,stimuli/images/PICTURE_675.png,WEAPON,59609bdb599b690001ef2c59,25/12/1950,2020-09-12_08h51.06.405,proactive3.2,2020.1.2,Win32,60,5f5adea66120081ea0f57a61,5f5c7dcf65bc63010aea01e0,6,,,,,,windmill,,,,,,0,30,30,32,1,4,0,,,,,,,,,,,,,,,,,,,,,,,,,,,,,,,,,,,,,,,,,,,,,,,,,,,,,,,,,,,,,,,,,,,,,,,,,,,
,,,,,,,,,,stimuli/images/PICTURE_314.png,SAKE,59609bdb599b690001ef2c59,25/12/1950,2020-09-12_08h51.06.405,proactive3.2,2020.1.2,Win32,60,5f5adea66120081ea0f57a61,5f5c7dcf65bc63010aea01e0,6,,,,,,perfume,,,,,,0,31,31,7,1,1,0,,,,,,,,,,,,,,,,,,,,,,,,,,,,,,,,,,,,,,,,,,,,,,,,,,,,,,,,,,,,,,,,,,,,,,,,,,,
,,,,,,,,,,stimuli/images/PICTURE_491.png,ROOF,59609bdb599b690001ef2c59,25/12/1950,2020-09-12_08h51.06.405,proactive3.2,2020.1.2,Win32,60,5f5adea66120081ea0f57a61,5f5c7dcf65bc63010aea01e0,6,,,,,,rug,,,,,,0,32,32,24,1,3,0,,,,,,,,,,,,,,,,,,,,,,,,,,,,,,,,,,,,,,,,,,,,,,,,,,,,,,,,,,,,,,,,,,,,,,,,,,,
,,,,,,,,,,stimuli/images/PICTURE_233.png,IDEAS,59609bdb599b690001ef2c59,25/12/1950,2020-09-12_08h51.06.405,proactive3.2,2020.1.2,Win32,60,5f5adea66120081ea0f57a61,5f5c7dcf65bc63010aea01e0,6,,,,,,salt,,,,,,0,33,33,28,1,3,0,,,,,,,,,,,,,,,,,,,,,,,,,,,,,,,,,,,,,,,,,,,,,,,,,,,,,,,,,,,,,,,,,,,,,,,,,,,
,,,,,,,,,,stimuli/images/PICTURE_688.png,WOMEN,59609bdb599b690001ef2c59,25/12/1950,2020-09-12_08h51.06.405,proactive3.2,2020.1.2,Win32,60,5f5adea66120081ea0f57a61,5f5c7dcf65bc63010aea01e0,6,,,,,,runner,,,,,,0,34,34,14,1,2,0,,,,,,,,,,,,,,,,,,,,,,,,,,,,,,,,,,,,,,,,,,,,,,,,,,,,,,,,,,,,,,,,,,,,,,,,,,,
,,,,,,,,,,stimuli/images/PICTURE_85.png,THING,59609bdb599b690001ef2c59,25/12/1950,2020-09-12_08h51.06.405,proactive3.2,2020.1.2,Win32,60,5f5adea66120081ea0f57a61,5f5c7dcf65bc63010aea01e0,6,,,,,,diamond,,,,,,0,35,35,15,1,2,0,,,,,,,,,,,,,,,,,,,,,,,,,,,,,,,,,,,,,,,,,,,,,,,,,,,,,,,,,,,,,,,,,,,,,,,,,,,
,,,,,,,,,,stimuli/images/PICTURE_469.png,LETTER,59609bdb599b690001ef2c59,25/12/1950,2020-09-12_08h51.06.405,proactive3.2,2020.1.2,Win32,60,5f5adea66120081ea0f57a61,5f5c7dcf65bc63010aea01e0,6,,,,,,stool,,,,,,0,36,36,42,1,5,0,,,,,,,,,,,,,,,,,,,,,,,,,,,,,,,,,,,,,,,,,,,,,,,,,,,,,,,,,,,,,,,,,,,,,,,,,,,
,,,,,,,,,,stimuli/images/PICTURE_248.png,DOZEN,59609bdb599b690001ef2c59,25/12/1950,2020-09-12_08h51.06.405,proactive3.2,2020.1.2,Win32,60,5f5adea66120081ea0f57a61,5f5c7dcf65bc63010aea01e0,6,,,,,,cart,,,,,,0,37,37,39,1,4,0,,,,,,,,,,,,,,,,,,,,,,,,,,,,,,,,,,,,,,,,,,,,,,,,,,,,,,,,,,,,,,,,,,,,,,,,,,,
,,,,,,,,,,stimuli/images/PICTURE_123.png,ADVICE,59609bdb599b690001ef2c59,25/12/1950,2020-09-12_08h51.06.405,proactive3.2,2020.1.2,Win32,60,5f5adea66120081ea0f57a61,5f5c7dcf65bc63010aea01e0,6,,,,,,dart,,,,,,0,38,38,40,1,5,0,,,,,,,,,,,,,,,,,,,,,,,,,,,,,,,,,,,,,,,,,,,,,,,,,,,,,,,,,,,,,,,,,,,,,,,,,,,
,,,,,,,,,,stimuli/images/PICTURE_688.png,CASINO,59609bdb599b690001ef2c59,25/12/1950,2020-09-12_08h51.06.405,proactive3.2,2020.1.2,Win32,60,5f5adea66120081ea0f57a61,5f5c7dcf65bc63010aea01e0,6,,,,,,runner,,,,,,0,39,39,2,1,1,0,,,,,,,,,,,,,,,,,,,,,,,,,,,,,,,,,,,,,,,,,,,,,,,,,,,,,,,,,,,,,,,,,,,,,,,,,,,
,,,,,,,,,,stimuli/images/PICTURE_708.png,YARD,59609bdb599b690001ef2c59,25/12/1950,2020-09-12_08h51.06.405,proactive3.2,2020.1.2,Win32,60,5f5adea66120081ea0f57a61,5f5c7dcf65bc63010aea01e0,6,,,,,,monkey,,,,,,0,40,40,29,1,3,0,,,,,,,,,,,,,,,,,,,,,,,,,,,,,,,,,,,,,,,,,,,,,,,,,,,,,,,,,,,,,,,,,,,,,,,,,,,
,,,,,,,,,,stimuli/images/PICTURE_203.png,ARTIST,59609bdb599b690001ef2c59,25/12/1950,2020-09-12_08h51.06.405,proactive3.2,2020.1.2,Win32,60,5f5adea66120081ea0f57a61,5f5c7dcf65bc63010aea01e0,6,,,,,,cap,,,,,,0,41,41,26,1,3,0,,,,,,,,,,,,,,,,,,,,,,,,,,,,,,,,,,,,,,,,,,,,,,,,,,,,,,,,,,,,,,,,,,,,,,,,,,,
,,,,,,,,,,stimuli/images/PICTURE_308.png,ESTATE,59609bdb599b690001ef2c59,25/12/1950,2020-09-12_08h51.06.405,proactive3.2,2020.1.2,Win32,60,5f5adea66120081ea0f57a61,5f5c7dcf65bc63010aea01e0,6,,,,,,dice,,,,,,0,42,42,46,1,5,0,,,,,,,,,,,,,,,,,,,,,,,,,,,,,,,,,,,,,,,,,,,,,,,,,,,,,,,,,,,,,,,,,,,,,,,,,,,
,,,,,,,,,,stimuli/images/PICTURE_208.png,THING,59609bdb599b690001ef2c59,25/12/1950,2020-09-12_08h51.06.405,proactive3.2,2020.1.2,Win32,60,5f5adea66120081ea0f57a61,5f5c7dcf65bc63010aea01e0,6,,,,,,microphone,,,,,,0,43,43,47,1,5,0,,,,,,,,,,,,,,,,,,,,,,,,,,,,,,,,,,,,,,,,,,,,,,,,,,,,,,,,,,,,,,,,,,,,,,,,,,,
,,,,,,,,,,stimuli/images/PICTURE_255.png,AREA,59609bdb599b690001ef2c59,25/12/1950,2020-09-12_08h51.06.405,proactive3.2,2020.1.2,Win32,60,5f5adea66120081ea0f57a61,5f5c7dcf65bc63010aea01e0,6,,,,,,shovel,,,,,,0,44,44,22,1,3,0,,,,,,,,,,,,,,,,,,,,,,,,,,,,,,,,,,,,,,,,,,,,,,,,,,,,,,,,,,,,,,,,,,,,,,,,,,,
,,,,,,,,,,stimuli/images/PICTURE_339.png,PLENTY,59609bdb599b690001ef2c59,25/12/1950,2020-09-12_08h51.06.405,proactive3.2,2020.1.2,Win32,60,5f5adea66120081ea0f57a61,5f5c7dcf65bc63010aea01e0,6,,,,,,backpack,,,,,,0,45,45,0,1,1,0,,,,,,,,,,,,,,,,,,,,,,,,,,,,,,,,,,,,,,,,,,,,,,,,,,,,,,,,,,,,,,,,,,,,,,,,,,,
,,,,,,,,,,stimuli/images/PICTURE_327.png,BEAUTY,59609bdb599b690001ef2c59,25/12/1950,2020-09-12_08h51.06.405,proactive3.2,2020.1.2,Win32,60,5f5adea66120081ea0f57a61,5f5c7dcf65bc63010aea01e0,6,,,,,,helmet,,,,,,0,46,46,48,1,5,0,,,,,,,,,,,,,,,,,,,,,,,,,,,,,,,,,,,,,,,,,,,,,,,,,,,,,,,,,,,,,,,,,,,,,,,,,,,
,,,,,,,,,,stimuli/images/PICTURE_449.png,THING,59609bdb599b690001ef2c59,25/12/1950,2020-09-12_08h51.06.405,proactive3.2,2020.1.2,Win32,60,5f5adea66120081ea0f57a61,5f5c7dcf65bc63010aea01e0,6,,,,,,bench,,,,,,0,47,47,59,1,6,0,,,,,,,,,,,,,,,,,,,,,,,,,,,,,,,,,,,,,,,,,,,,,,,,,,,,,,,,,,,,,,,,,,,,,,,,,,,
,,,,,,,,,,stimuli/images/PICTURE_147.png,MOMENT,59609bdb599b690001ef2c59,25/12/1950,2020-09-12_08h51.06.405,proactive3.2,2020.1.2,Win32,60,5f5adea66120081ea0f57a61,5f5c7dcf65bc63010aea01e0,6,,,,,,hanger,,,,,,0,48,48,51,1,6,0,,,,,,,,,,,,,,,,,,,,,,,,,,,,,,,,,,,,,,,,,,,,,,,,,,,,,,,,,,,,,,,,,,,,,,,,,,,
,,,,,,,,,,stimuli/images/PICTURE_692.png,MONTH,59609bdb599b690001ef2c59,25/12/1950,2020-09-12_08h51.06.405,proactive3.2,2020.1.2,Win32,60,5f5adea66120081ea0f57a61,5f5c7dcf65bc63010aea01e0,6,,,,,,cherry,,,,,,0,49,49,16,1,2,0,,,,,,,,,,,,,,,,,,,,,,,,,,,,,,,,,,,,,,,,,,,,,,,,,,,,,,,,,,,,,,,,,,,,,,,,,,,
,,,,,,,,,,stimuli/images/PICTURE_95.png,STYLE,59609bdb599b690001ef2c59,25/12/1950,2020-09-12_08h51.06.405,proactive3.2,2020.1.2,Win32,60,5f5adea66120081ea0f57a61,5f5c7dcf65bc63010aea01e0,6,,,,,,suitcase,,,,,,0,50,50,25,1,3,0,,,,,,,,,,,,,,,,,,,,,,,,,,,,,,,,,,,,,,,,,,,,,,,,,,,,,,,,,,,,,,,,,,,,,,,,,,,
,,,,,,,,,,stimuli/images/PICTURE_208.png,MONTH,59609bdb599b690001ef2c59,25/12/1950,2020-09-12_08h51.06.405,proactive3.2,2020.1.2,Win32,60,5f5adea66120081ea0f57a61,5f5c7dcf65bc63010aea01e0,6,,,,,,microphone,,,,,,0,51,51,53,1,6,0,,,,,,,,,,,,,,,,,,,,,,,,,,,,,,,,,,,,,,,,,,,,,,,,,,,,,,,,,,,,,,,,,,,,,,,,,,,
,,,,,,,,,,stimuli/images/PICTURE_488.png,STYLE,59609bdb599b690001ef2c59,25/12/1950,2020-09-12_08h51.06.405,proactive3.2,2020.1.2,Win32,60,5f5adea66120081ea0f57a61,5f5c7dcf65bc63010aea01e0,6,,,,,,sun,,,,,,0,52,52,33,1,4,0,,,,,,,,,,,,,,,,,,,,,,,,,,,,,,,,,,,,,,,,,,,,,,,,,,,,,,,,,,,,,,,,,,,,,,,,,,,
,,,,,,,,,,stimuli/images/PICTURE_302.png,FAMILY,59609bdb599b690001ef2c59,25/12/1950,2020-09-12_08h51.06.405,proactive3.2,2020.1.2,Win32,60,5f5adea66120081ea0f57a61,5f5c7dcf65bc63010aea01e0,6,,,,,,taxi,,,,,,0,53,53,18,1,2,0,,,,,,,,,,,,,,,,,,,,,,,,,,,,,,,,,,,,,,,,,,,,,,,,,,,,,,,,,,,,,,,,,,,,,,,,,,,
,,,,,,,,,,stimuli/images/PICTURE_453.png,DUDE,59609bdb599b690001ef2c59,25/12/1950,2020-09-12_08h51.06.405,proactive3.2,2020.1.2,Win32,60,5f5adea66120081ea0f57a61,5f5c7dcf65bc63010aea01e0,6,,,,,,scissors,,,,,,0,54,54,27,1,3,0,,,,,,,,,,,,,,,,,,,,,,,,,,,,,,,,,,,,,,,,,,,,,,,,,,,,,,,,,,,,,,,,,,,,,,,,,,,
,,,,,,,,,,stimuli/images/PICTURE_744.png,SYSTEM,59609bdb599b690001ef2c59,25/12/1950,2020-09-12_08h51.06.405,proactive3.2,2020.1.2,Win32,60,5f5adea66120081ea0f57a61,5f5c7dcf65bc63010aea01e0,6,,,,,,ring,,,,,,0,55,55,43,1,5,0,,,,,,,,,,,,,,,,,,,,,,,,,,,,,,,,,,,,,,,,,,,,,,,,,,,,,,,,,,,,,,,,,,,,,,,,,,,
,,,,,,,,,,stimuli/images/PICTURE_177.png,CARS,59609bdb599b690001ef2c59,25/12/1950,2020-09-12_08h51.06.405,proactive3.2,2020.1.2,Win32,60,5f5adea66120081ea0f57a61,5f5c7dcf65bc63010aea01e0,6,,,,,,mushroom,,,,,,0,56,56,35,1,4,0,,,,,,,,,,,,,,,,,,,,,,,,,,,,,,,,,,,,,,,,,,,,,,,,,,,,,,,,,,,,,,,,,,,,,,,,,,,
,,,,,,,,,,stimuli/images/PICTURE_487.png,FLIGHT,59609bdb599b690001ef2c59,25/12/1950,2020-09-12_08h51.06.405,proactive3.2,2020.1.2,Win32,60,5f5adea66120081ea0f57a61,5f5c7dcf65bc63010aea01e0,6,,,,,,basket,,,,,,0,57,57,9,1,1,0,,,,,,,,,,,,,,,,,,,,,,,,,,,,,,,,,,,,,,,,,,,,,,,,,,,,,,,,,,,,,,,,,,,,,,,,,,,
,,,,,,,,,,stimuli/images/PICTURE_308.png,KIND,59609bdb599b690001ef2c59,25/12/1950,2020-09-12_08h51.06.405,proactive3.2,2020.1.2,Win32,60,5f5adea66120081ea0f57a61,5f5c7dcf65bc63010aea01e0,6,,,,,,dice,,,,,,0,58,58,54,1,6,0,,,,,,,,,,,,,,,,,,,,,,,,,,,,,,,,,,,,,,,,,,,,,,,,,,,,,,,,,,,,,,,,,,,,,,,,,,,
,,?,0.001,0,,,,,,stimuli/images/PICTURE_151.png,GIRL,59609bdb599b690001ef2c59,25/12/1950,2020-09-12_08h51.06.405,proactive3.2,2020.1.2,Win32,60,5f5adea66120081ea0f57a61,5f5c7dcf65bc63010aea01e0,6,,,,,,tray,,,,,,,,,,,2,0,0,0,0,19,1,,,,,,,,,,,,,,,,,,,,,,,,,,,,,,,,,,,,,,,,,,,,,,,,,,,,,,,,,,,,,,,,,,,,,,
,,?,3.594,0,,,,,,stimuli/images/PICTURE_208.png,MONTH,59609bdb599b690001ef2c59,25/12/1950,2020-09-12_08h51.06.405,proactive3.2,2020.1.2,Win32,60,5f5adea66120081ea0f57a61,5f5c7dcf65bc63010aea01e0,6,,,,,,microphone,,,,,,,,,,,6,0,0,1,1,53,1,,,,,,,,,,,,,,,,,,,,,,,,,,,,,,,,,,,,,,,,,,,,,,,,,,,,,,,,,,,,,,,,,,,,,,
,,?,0.002,0,,,,,,stimuli/images/PICTURE_208.png,LOTS,59609bdb599b690001ef2c59,25/12/1950,2020-09-12_08h51.06.405,proactive3.2,2020.1.2,Win32,60,5f5adea66120081ea0f57a61,5f5c7dcf65bc63010aea01e0,6,,,,,,microphone,,,,,,,,,,,2,0,0,2,2,10,1,,,,,,,,,,,,,,,,,,,,,,,,,,,,,,,,,,,,,,,,,,,,,,,,,,,,,,,,,,,,,,,,,,,,,,
,,?,0.002,0,,,,,,stimuli/images/PICTURE_233.png,IDEAS,59609bdb599b690001ef2c59,25/12/1950,2020-09-12_08h51.06.405,proactive3.2,2020.1.2,Win32,60,5f5adea66120081ea0f57a61,5f5c7dcf65bc63010aea01e0,6,,,,,,salt,,,,,,,,,,,3,0,0,3,3,28,1,,,,,,,,,,,,,,,,,,,,,,,,,,,,,,,,,,,,,,,,,,,,,,,,,,,,,,,,,,,,,,,,,,,,,,
,,THING,3.546,1,,,,,,stimuli/images/PICTURE_449.png,THING,59609bdb599b690001ef2c59,25/12/1950,2020-09-12_08h51.06.405,proactive3.2,2020.1.2,Win32,60,5f5adea66120081ea0f57a61,5f5c7dcf65bc63010aea01e0,6,,,,,,bench,,,,,,,,,,,6,0,0,4,4,59,1,,,,,,,,,,,,,,,,,,,,,,,,,,,,,,,,,,,,,,,,,,,,,,,,,,,,,,,,,,,,,,,,,,,,,,
,,?,0.002,0,,,,,,stimuli/images/PICTURE_160.png,LEADER,59609bdb599b690001ef2c59,25/12/1950,2020-09-12_08h51.06.405,proactive3.2,2020.1.2,Win32,60,5f5adea66120081ea0f57a61,5f5c7dcf65bc63010aea01e0,6,,,,,,wheelbarrow,,,,,,,,,,,1,0,0,5,5,3,1,,,,,,,,,,,,,,,,,,,,,,,,,,,,,,,,,,,,,,,,,,,,,,,,,,,,,,,,,,,,,,,,,,,,,,
,,?,0.001,0,,,,,,stimuli/images/PICTURE_339.png,PLENTY,59609bdb599b690001ef2c59,25/12/1950,2020-09-12_08h51.06.405,proactive3.2,2020.1.2,Win32,60,5f5adea66120081ea0f57a61,5f5c7dcf65bc63010aea01e0,6,,,,,,backpack,,,,,,,,,,,1,0,0,6,6,0,1,,,,,,,,,,,,,,,,,,,,,,,,,,,,,,,,,,,,,,,,,,,,,,,,,,,,,,,,,,,,,,,,,,,,,,
,,?,0.001,0,,,,,,stimuli/images/PICTURE_453.png,DUDE,59609bdb599b690001ef2c59,25/12/1950,2020-09-12_08h51.06.405,proactive3.2,2020.1.2,Win32,60,5f5adea66120081ea0f57a61,5f5c7dcf65bc63010aea01e0,6,,,,,,scissors,,,,,,,,,,,3,0,0,7,7,27,1,,,,,,,,,,,,,,,,,,,,,,,,,,,,,,,,,,,,,,,,,,,,,,,,,,,,,,,,,,,,,,,,,,,,,,
,,?,0,0,,,,,,stimuli/images/PICTURE_314.png,GODS,59609bdb599b690001ef2c59,25/12/1950,2020-09-12_08h51.06.405,proactive3.2,2020.1.2,Win32,60,5f5adea66120081ea0f57a61,5f5c7dcf65bc63010aea01e0,6,,,,,,perfume,,,,,,,,,,,2,0,0,8,8,11,1,,,,,,,,,,,,,,,,,,,,,,,,,,,,,,,,,,,,,,,,,,,,,,,,,,,,,,,,,,,,,,,,,,,,,,
,,?,0.001,0,,,,,,stimuli/images/PICTURE_688.png,WOMEN,59609bdb599b690001ef2c59,25/12/1950,2020-09-12_08h51.06.405,proactive3.2,2020.1.2,Win32,60,5f5adea66120081ea0f57a61,5f5c7dcf65bc63010aea01e0,6,,,,,,runner,,,,,,,,,,,2,0,0,9,9,14,1,,,,,,,,,,,,,,,,,,,,,,,,,,,,,,,,,,,,,,,,,,,,,,,,,,,,,,,,,,,,,,,,,,,,,,
,,?,0.001,0,,,,,,stimuli/images/PICTURE_504.png,BODY,59609bdb599b690001ef2c59,25/12/1950,2020-09-12_08h51.06.405,proactive3.2,2020.1.2,Win32,60,5f5adea66120081ea0f57a61,5f5c7dcf65bc63010aea01e0,6,,,,,,wheel,,,,,,,,,,,1,0,0,10,10,8,1,,,,,,,,,,,,,,,,,,,,,,,,,,,,,,,,,,,,,,,,,,,,,,,,,,,,,,,,,,,,,,,,,,,,,,
,,?,0,0,,,,,,stimuli/images/PICTURE_68.png,MILE,59609bdb599b690001ef2c59,25/12/1950,2020-09-12_08h51.06.405,proactive3.2,2020.1.2,Win32,60,5f5adea66120081ea0f57a61,5f5c7dcf65bc63010aea01e0,6,,,,,,candle,,,,,,,,,,,5,0,0,11,11,44,1,,,,,,,,,,,,,,,,,,,,,,,,,,,,,,,,,,,,,,,,,,,,,,,,,,,,,,,,,,,,,,,,,,,,,,
,,?,0.001,0,,,,,,stimuli/images/PICTURE_744.png,SYSTEM,59609bdb599b690001ef2c59,25/12/1950,2020-09-12_08h51.06.405,proactive3.2,2020.1.2,Win32,60,5f5adea66120081ea0f57a61,5f5c7dcf65bc63010aea01e0,6,,,,,,ring,,,,,,,,,,,5,0,0,12,12,43,1,,,,,,,,,,,,,,,,,,,,,,,,,,,,,,,,,,,,,,,,,,,,,,,,,,,,,,,,,,,,,,,,,,,,,,
,,?,0.001,0,,,,,,stimuli/images/PICTURE_215.png,PLENTY,59609bdb599b690001ef2c59,25/12/1950,2020-09-12_08h51.06.405,proactive3.2,2020.1.2,Win32,60,5f5adea66120081ea0f57a61,5f5c7dcf65bc63010aea01e0,6,,,,,,boot,,,,,,,,,,,4,0,0,13,13,37,1,,,,,,,,,,,,,,,,,,,,,,,,,,,,,,,,,,,,,,,,,,,,,,,,,,,,,,,,,,,,,,,,,,,,,,
,,?,0.001,0,,,,,,stimuli/images/PICTURE_380.png,DEATH,59609bdb599b690001ef2c59,25/12/1950,2020-09-12_08h51.06.405,proactive3.2,2020.1.2,Win32,60,5f5adea66120081ea0f57a61,5f5c7dcf65bc63010aea01e0,6,,,,,,gorilla,,,,,,,,,,,5,0,0,14,14,49,1,,,,,,,,,,,,,,,,,,,,,,,,,,,,,,,,,,,,,,,,,,,,,,,,,,,,,,,,,,,,,,,,,,,,,,
,,?,0.002,0,,,,,,stimuli/images/PICTURE_314.png,SAKE,59609bdb599b690001ef2c59,25/12/1950,2020-09-12_08h51.06.405,proactive3.2,2020.1.2,Win32,60,5f5adea66120081ea0f57a61,5f5c7dcf65bc63010aea01e0,6,,,,,,perfume,,,,,,,,,,,1,0,0,15,15,7,1,,,,,,,,,,,,,,,,,,,,,,,,,,,,,,,,,,,,,,,,,,,,,,,,,,,,,,,,,,,,,,,,,,,,,,
,,?,0.001,0,,,,,,stimuli/images/PICTURE_744.png,SAKE,59609bdb599b690001ef2c59,25/12/1950,2020-09-12_08h51.06.405,proactive3.2,2020.1.2,Win32,60,5f5adea66120081ea0f57a61,5f5c7dcf65bc63010aea01e0,6,,,,,,ring,,,,,,,,,,,2,0,0,16,16,17,1,,,,,,,,,,,,,,,,,,,,,,,,,,,,,,,,,,,,,,,,,,,,,,,,,,,,,,,,,,,,,,,,,,,,,,
,,?,0.001,0,,,,,,stimuli/images/PICTURE_327.png,BEAUTY,59609bdb599b690001ef2c59,25/12/1950,2020-09-12_08h51.06.405,proactive3.2,2020.1.2,Win32,60,5f5adea66120081ea0f57a61,5f5c7dcf65bc63010aea01e0,6,,,,,,helmet,,,,,,,,,,,5,0,0,17,17,48,1,,,,,,,,,,,,,,,,,,,,,,,,,,,,,,,,,,,,,,,,,,,,,,,,,,,,,,,,,,,,,,,,,,,,,,
,,?,0.001,0,,,,,,stimuli/images/PICTURE_233.png,WOMEN,59609bdb599b690001ef2c59,25/12/1950,2020-09-12_08h51.06.405,proactive3.2,2020.1.2,Win32,60,5f5adea66120081ea0f57a61,5f5c7dcf65bc63010aea01e0,6,,,,,,salt,,,,,,,,,,,4,0,0,18,18,38,1,,,,,,,,,,,,,,,,,,,,,,,,,,,,,,,,,,,,,,,,,,,,,,,,,,,,,,,,,,,,,,,,,,,,,,
,,ADVICE,5.572,1,,,,,,stimuli/images/PICTURE_123.png,ADVICE,59609bdb599b690001ef2c59,25/12/1950,2020-09-12_08h51.06.405,proactive3.2,2020.1.2,Win32,60,5f5adea66120081ea0f57a61,5f5c7dcf65bc63010aea01e0,6,,,,,,dart,,,,,,,,,,,6,0,0,19,19,50,1,,,,,,,,,,,,,,,,,,,,,,,,,,,,,,,,,,,,,,,,,,,,,,,,,,,,,,,,,,,,,,,,,,,,,,
,,WRITER,4.155,1,,,,,,stimuli/images/PICTURE_491.png,WRITER,59609bdb599b690001ef2c59,25/12/1950,2020-09-12_08h51.06.405,proactive3.2,2020.1.2,Win32,60,5f5adea66120081ea0f57a61,5f5c7dcf65bc63010aea01e0,6,,,,,,rug,,,,,,,,,,,6,0,0,20,20,57,1,,,,,,,,,,,,,,,,,,,,,,,,,,,,,,,,,,,,,,,,,,,,,,,,,,,,,,,,,,,,,,,,,,,,,,
,,?,2.577,0,,,,,,stimuli/images/PICTURE_147.png,MOMENT,59609bdb599b690001ef2c59,25/12/1950,2020-09-12_08h51.06.405,proactive3.2,2020.1.2,Win32,60,5f5adea66120081ea0f57a61,5f5c7dcf65bc63010aea01e0,6,,,,,,hanger,,,,,,,,,,,6,0,0,21,21,51,1,,,,,,,,,,,,,,,,,,,,,,,,,,,,,,,,,,,,,,,,,,,,,,,,,,,,,,,,,,,,,,,,,,,,,,
,,?,0.001,0,,,,,,stimuli/images/PICTURE_123.png,ADVICE,59609bdb599b690001ef2c59,25/12/1950,2020-09-12_08h51.06.405,proactive3.2,2020.1.2,Win32,60,5f5adea66120081ea0f57a61,5f5c7dcf65bc63010aea01e0,6,,,,,,dart,,,,,,,,,,,5,0,0,22,22,40,1,,,,,,,,,,,,,,,,,,,,,,,,,,,,,,,,,,,,,,,,,,,,,,,,,,,,,,,,,,,,,,,,,,,,,,
,,?,0,0,,,,,,stimuli/images/PICTURE_675.png,WEAPON,59609bdb599b690001ef2c59,25/12/1950,2020-09-12_08h51.06.405,proactive3.2,2020.1.2,Win32,60,5f5adea66120081ea0f57a61,5f5c7dcf65bc63010aea01e0,6,,,,,,windmill,,,,,,,,,,,4,0,0,23,23,32,1,,,,,,,,,,,,,,,,,,,,,,,,,,,,,,,,,,,,,,,,,,,,,,,,,,,,,,,,,,,,,,,,,,,,,,
,,?,0.002,0,,,,,,stimuli/images/PICTURE_248.png,DOZEN,59609bdb599b690001ef2c59,25/12/1950,2020-09-12_08h51.06.405,proactive3.2,2020.1.2,Win32,60,5f5adea66120081ea0f57a61,5f5c7dcf65bc63010aea01e0,6,,,,,,cart,,,,,,,,,,,4,0,0,24,24,39,1,,,,,,,,,,,,,,,,,,,,,,,,,,,,,,,,,,,,,,,,,,,,,,,,,,,,,,,,,,,,,,,,,,,,,,
,,DANGER,4.523,1,,,,,,stimuli/images/PICTURE_356.png,DANGER,59609bdb599b690001ef2c59,25/12/1950,2020-09-12_08h51.06.405,proactive3.2,2020.1.2,Win32,60,5f5adea66120081ea0f57a61,5f5c7dcf65bc63010aea01e0,6,,,,,,pawn,,,,,,,,,,,6,0,0,25,25,55,1,,,,,,,,,,,,,,,,,,,,,,,,,,,,,,,,,,,,,,,,,,,,,,,,,,,,,,,,,,,,,,,,,,,,,,
,,?,0.002,0,,,,,,stimuli/images/PICTURE_208.png,THING,59609bdb599b690001ef2c59,25/12/1950,2020-09-12_08h51.06.405,proactive3.2,2020.1.2,Win32,60,5f5adea66120081ea0f57a61,5f5c7dcf65bc63010aea01e0,6,,,,,,microphone,,,,,,,,,,,5,0,0,26,26,47,1,,,,,,,,,,,,,,,,,,,,,,,,,,,,,,,,,,,,,,,,,,,,,,,,,,,,,,,,,,,,,,,,,,,,,,
,,?,0.001,0,,,,,,stimuli/images/PICTURE_85.png,THING,59609bdb599b690001ef2c59,25/12/1950,2020-09-12_08h51.06.405,proactive3.2,2020.1.2,Win32,60,5f5adea66120081ea0f57a61,5f5c7dcf65bc63010aea01e0,6,,,,,,diamond,,,,,,,,,,,2,0,0,27,27,15,1,,,,,,,,,,,,,,,,,,,,,,,,,,,,,,,,,,,,,,,,,,,,,,,,,,,,,,,,,,,,,,,,,,,,,,
,,KIND,3.073,1,,,,,,stimuli/images/PICTURE_308.png,KIND,59609bdb599b690001ef2c59,25/12/1950,2020-09-12_08h51.06.405,proactive3.2,2020.1.2,Win32,60,5f5adea66120081ea0f57a61,5f5c7dcf65bc63010aea01e0,6,,,,,,dice,,,,,,,,,,,6,0,0,28,28,54,1,,,,,,,,,,,,,,,,,,,,,,,,,,,,,,,,,,,,,,,,,,,,,,,,,,,,,,,,,,,,,,,,,,,,,,
,,?,0.001,0,,,,,,stimuli/images/PICTURE_255.png,AREA,59609bdb599b690001ef2c59,25/12/1950,2020-09-12_08h51.06.405,proactive3.2,2020.1.2,Win32,60,5f5adea66120081ea0f57a61,5f5c7dcf65bc63010aea01e0,6,,,,,,shovel,,,,,,,,,,,3,0,0,29,29,22,1,,,,,,,,,,,,,,,,,,,,,,,,,,,,,,,,,,,,,,,,,,,,,,,,,,,,,,,,,,,,,,,,,,,,,,
,,?,0.001,0,,,,,,stimuli/images/PICTURE_177.png,CARS,59609bdb599b690001ef2c59,25/12/1950,2020-09-12_08h51.06.405,proactive3.2,2020.1.2,Win32,60,5f5adea66120081ea0f57a61,5f5c7dcf65bc63010aea01e0,6,,,,,,mushroom,,,,,,,,,,,4,0,0,30,30,35,1,,,,,,,,,,,,,,,,,,,,,,,,,,,,,,,,,,,,,,,,,,,,,,,,,,,,,,,,,,,,,,,,,,,,,,
,,?,0.001,0,,,,,,stimuli/images/PICTURE_311.png,BEAUTY,59609bdb599b690001ef2c59,25/12/1950,2020-09-12_08h51.06.405,proactive3.2,2020.1.2,Win32,60,5f5adea66120081ea0f57a61,5f5c7dcf65bc63010aea01e0,6,,,,,,razor,,,,,,,,,,,2,0,0,31,31,13,1,,,,,,,,,,,,,,,,,,,,,,,,,,,,,,,,,,,,,,,,,,,,,,,,,,,,,,,,,,,,,,,,,,,,,,
,,?,0.001,0,,,,,,stimuli/images/PICTURE_285.png,ADVICE,59609bdb599b690001ef2c59,25/12/1950,2020-09-12_08h51.06.405,proactive3.2,2020.1.2,Win32,60,5f5adea66120081ea0f57a61,5f5c7dcf65bc63010aea01e0,6,,,,,,carrot,,,,,,,,,,,2,0,0,32,32,12,1,,,,,,,,,,,,,,,,,,,,,,,,,,,,,,,,,,,,,,,,,,,,,,,,,,,,,,,,,,,,,,,,,,,,,,
,,?,0.003,0,,,,,,stimuli/images/PICTURE_95.png,STYLE,59609bdb599b690001ef2c59,25/12/1950,2020-09-12_08h51.06.405,proactive3.2,2020.1.2,Win32,60,5f5adea66120081ea0f57a61,5f5c7dcf65bc63010aea01e0,6,,,,,,suitcase,,,,,,,,,,,3,0,0,33,33,25,1,,,,,,,,,,,,,,,,,,,,,,,,,,,,,,,,,,,,,,,,,,,,,,,,,,,,,,,,,,,,,,,,,,,,,,
,,?,0.001,0,,,,,,stimuli/images/PICTURE_469.png,ARTIST,59609bdb599b690001ef2c59,25/12/1950,2020-09-12_08h51.06.405,proactive3.2,2020.1.2,Win32,60,5f5adea66120081ea0f57a61,5f5c7dcf65bc63010aea01e0,6,,,,,,stool,,,,,,,,,,,1,0,0,34,34,6,1,,,,,,,,,,,,,,,,,,,,,,,,,,,,,,,,,,,,,,,,,,,,,,,,,,,,,,,,,,,,,,,,,,,,,,
,,?,0,0,,,,,,stimuli/images/PICTURE_488.png,STYLE,59609bdb599b690001ef2c59,25/12/1950,2020-09-12_08h51.06.405,proactive3.2,2020.1.2,Win32,60,5f5adea66120081ea0f57a61,5f5c7dcf65bc63010aea01e0,6,,,,,,sun,,,,,,,,,,,4,0,0,35,35,33,1,,,,,,,,,,,,,,,,,,,,,,,,,,,,,,,,,,,,,,,,,,,,,,,,,,,,,,,,,,,,,,,,,,,,,,
,,?,0.001,0,,,,,,stimuli/images/PICTURE_470.png,CASINO,59609bdb599b690001ef2c59,25/12/1950,2020-09-12_08h51.06.405,proactive3.2,2020.1.2,Win32,60,5f5adea66120081ea0f57a61,5f5c7dcf65bc63010aea01e0,6,,,,,,motorbike,,,,,,,,,,,4,0,0,36,36,36,1,,,,,,,,,,,,,,,,,,,,,,,,,,,,,,,,,,,,,,,,,,,,,,,,,,,,,,,,,,,,,,,,,,,,,,
,,?,0,0,,,,,,stimuli/images/PICTURE_491.png,ROOF,59609bdb599b690001ef2c59,25/12/1950,2020-09-12_08h51.06.405,proactive3.2,2020.1.2,Win32,60,5f5adea66120081ea0f57a61,5f5c7dcf65bc63010aea01e0,6,,,,,,rug,,,,,,,,,,,3,0,0,37,37,24,1,,,,,,,,,,,,,,,,,,,,,,,,,,,,,,,,,,,,,,,,,,,,,,,,,,,,,,,,,,,,,,,,,,,,,,
,,?,0.001,0,,,,,,stimuli/images/PICTURE_302.png,FAMILY,59609bdb599b690001ef2c59,25/12/1950,2020-09-12_08h51.06.405,proactive3.2,2020.1.2,Win32,60,5f5adea66120081ea0f57a61,5f5c7dcf65bc63010aea01e0,6,,,,,,taxi,,,,,,,,,,,2,0,0,38,38,18,1,,,,,,,,,,,,,,,,,,,,,,,,,,,,,,,,,,,,,,,,,,,,,,,,,,,,,,,,,,,,,,,,,,,,,,
,,?,0.001,0,,,,,,stimuli/images/PICTURE_487.png,FLIGHT,59609bdb599b690001ef2c59,25/12/1950,2020-09-12_08h51.06.405,proactive3.2,2020.1.2,Win32,60,5f5adea66120081ea0f57a61,5f5c7dcf65bc63010aea01e0,6,,,,,,basket,,,,,,,,,,,1,0,0,39,39,9,1,,,,,,,,,,,,,,,,,,,,,,,,,,,,,,,,,,,,,,,,,,,,,,,,,,,,,,,,,,,,,,,,,,,,,,
,,?,0.001,0,,,,,,stimuli/images/PICTURE_708.png,CLIENT,59609bdb599b690001ef2c59,25/12/1950,2020-09-12_08h51.06.405,proactive3.2,2020.1.2,Win32,60,5f5adea66120081ea0f57a61,5f5c7dcf65bc63010aea01e0,6,,,,,,monkey,,,,,,,,,,,1,0,0,40,40,5,1,,,,,,,,,,,,,,,,,,,,,,,,,,,,,,,,,,,,,,,,,,,,,,,,,,,,,,,,,,,,,,,,,,,,,,
,,?,0,0,,,,,,stimuli/images/PICTURE_692.png,MONTH,59609bdb599b690001ef2c59,25/12/1950,2020-09-12_08h51.06.405,proactive3.2,2020.1.2,Win32,60,5f5adea66120081ea0f57a61,5f5c7dcf65bc63010aea01e0,6,,,,,,cherry,,,,,,,,,,,2,0,0,41,41,16,1,,,,,,,,,,,,,,,,,,,,,,,,,,,,,,,,,,,,,,,,,,,,,,,,,,,,,,,,,,,,,,,,,,,,,,
,,FEET,3.04,1,,,,,,stimuli/images/PICTURE_160.png,FEET,59609bdb599b690001ef2c59,25/12/1950,2020-09-12_08h51.06.405,proactive3.2,2020.1.2,Win32,60,5f5adea66120081ea0f57a61,5f5c7dcf65bc63010aea01e0,6,,,,,,wheelbarrow,,,,,,,,,,,6,0,0,42,42,58,1,,,,,,,,,,,,,,,,,,,,,,,,,,,,,,,,,,,,,,,,,,,,,,,,,,,,,,,,,,,,,,,,,,,,,,
,,?,0.002,0,,,,,,stimuli/images/PICTURE_469.png,LETTER,59609bdb599b690001ef2c59,25/12/1950,2020-09-12_08h51.06.405,proactive3.2,2020.1.2,Win32,60,5f5adea66120081ea0f57a61,5f5c7dcf65bc63010aea01e0,6,,,,,,stool,,,,,,,,,,,5,0,0,43,43,42,1,,,,,,,,,,,,,,,,,,,,,,,,,,,,,,,,,,,,,,,,,,,,,,,,,,,,,,,,,,,,,,,,,,,,,,
,,?,0.001,0,,,,,,stimuli/images/PICTURE_509.png,PHOTO,59609bdb599b690001ef2c59,25/12/1950,2020-09-12_08h51.06.405,proactive3.2,2020.1.2,Win32,60,5f5adea66120081ea0f57a61,5f5c7dcf65bc63010aea01e0,6,,,,,,telephone,,,,,,,,,,,3,0,0,44,44,21,1,,,,,,,,,,,,,,,,,,,,,,,,,,,,,,,,,,,,,,,,,,,,,,,,,,,,,,,,,,,,,,,,,,,,,,
,,?,0.001,0,,,,,,stimuli/images/PICTURE_677.png,MILE,59609bdb599b690001ef2c59,25/12/1950,2020-09-12_08h51.06.405,proactive3.2,2020.1.2,Win32,60,5f5adea66120081ea0f57a61,5f5c7dcf65bc63010aea01e0,6,,,,,,map,,,,,,,,,,,4,0,0,45,45,30,1,,,,,,,,,,,,,,,,,,,,,,,,,,,,,,,,,,,,,,,,,,,,,,,,,,,,,,,,,,,,,,,,,,,,,,
,,?,0.001,0,,,,,,stimuli/images/PICTURE_688.png,CASINO,59609bdb599b690001ef2c59,25/12/1950,2020-09-12_08h51.06.405,proactive3.2,2020.1.2,Win32,60,5f5adea66120081ea0f57a61,5f5c7dcf65bc63010aea01e0,6,,,,,,runner,,,,,,,,,,,1,0,0,46,46,2,1,,,,,,,,,,,,,,,,,,,,,,,,,,,,,,,,,,,,,,,,,,,,,,,,,,,,,,,,,,,,,,,,,,,,,,
,,?,0.002,0,,,,,,stimuli/images/PICTURE_708.png,YARD,59609bdb599b690001ef2c59,25/12/1950,2020-09-12_08h51.06.405,proactive3.2,2020.1.2,Win32,60,5f5adea66120081ea0f57a61,5f5c7dcf65bc63010aea01e0,6,,,,,,monkey,,,,,,,,,,,3,0,0,47,47,29,1,,,,,,,,,,,,,,,,,,,,,,,,,,,,,,,,,,,,,,,,,,,,,,,,,,,,,,,,,,,,,,,,,,,,,,
,,?,0.001,0,,,,,,stimuli/images/PICTURE_311.png,FRIEND,59609bdb599b690001ef2c59,25/12/1950,2020-09-12_08h51.06.405,proactive3.2,2020.1.2,Win32,60,5f5adea66120081ea0f57a61,5f5c7dcf65bc63010aea01e0,6,,,,,,razor,,,,,,,,,,,4,0,0,48,48,34,1,,,,,,,,,,,,,,,,,,,,,,,,,,,,,,,,,,,,,,,,,,,,,,,,,,,,,,,,,,,,,,,,,,,,,,
,,?,0.001,0,,,,,,stimuli/images/PICTURE_667.png,BATH,59609bdb599b690001ef2c59,25/12/1950,2020-09-12_08h51.06.405,proactive3.2,2020.1.2,Win32,60,5f5adea66120081ea0f57a61,5f5c7dcf65bc63010aea01e0,6,,,,,,daisy,,,,,,,,,,,1,0,0,49,49,4,1,,,,,,,,,,,,,,,,,,,,,,,,,,,,,,,,,,,,,,,,,,,,,,,,,,,,,,,,,,,,,,,,,,,,,,
,,?,0,0,,,,,,stimuli/images/PICTURE_708.png,PENNY,59609bdb599b690001ef2c59,25/12/1950,2020-09-12_08h51.06.405,proactive3.2,2020.1.2,Win32,60,5f5adea66120081ea0f57a61,5f5c7dcf65bc63010aea01e0,6,,,,,,monkey,,,,,,,,,,,4,0,0,50,50,31,1,,,,,,,,,,,,,,,,,,,,,,,,,,,,,,,,,,,,,,,,,,,,,,,,,,,,,,,,,,,,,,,,,,,,,,
,,?,0.002,0,,,,,,stimuli/images/PICTURE_654.png,VALLEY,59609bdb599b690001ef2c59,25/12/1950,2020-09-12_08h51.06.405,proactive3.2,2020.1.2,Win32,60,5f5adea66120081ea0f57a61,5f5c7dcf65bc63010aea01e0,6,,,,,,pencil,,,,,,,,,,,1,0,0,51,51,1,1,,,,,,,,,,,,,,,,,,,,,,,,,,,,,,,,,,,,,,,,,,,,,,,,,,,,,,,,,,,,,,,,,,,,,,
,,?,0.001,0,,,,,,stimuli/images/PICTURE_32.png,JUNGLE,59609bdb599b690001ef2c59,25/12/1950,2020-09-12_08h51.06.405,proactive3.2,2020.1.2,Win32,60,5f5adea66120081ea0f57a61,5f5c7dcf65bc63010aea01e0,6,,,,,,crown,,,,,,,,,,,5,0,0,52,52,45,1,,,,,,,,,,,,,,,,,,,,,,,,,,,,,,,,,,,,,,,,,,,,,,,,,,,,,,,,,,,,,,,,,,,,,,
,,?,0.001,0,,,,,,stimuli/images/PICTURE_667.png,PLENTY,59609bdb599b690001ef2c59,25/12/1950,2020-09-12_08h51.06.405,proactive3.2,2020.1.2,Win32,60,5f5adea66120081ea0f57a61,5f5c7dcf65bc63010aea01e0,6,,,,,,daisy,,,,,,,,,,,5,0,0,53,53,41,1,,,,,,,,,,,,,,,,,,,,,,,,,,,,,,,,,,,,,,,,,,,,,,,,,,,,,,,,,,,,,,,,,,,,,,
,,?,3.07,0,,,,,,stimuli/images/PICTURE_453.png,PLENTY,59609bdb599b690001ef2c59,25/12/1950,2020-09-12_08h51.06.405,proactive3.2,2020.1.2,Win32,60,5f5adea66120081ea0f57a61,5f5c7dcf65bc63010aea01e0,6,,,,,,scissors,,,,,,,,,,,6,0,0,54,54,56,1,,,,,,,,,,,,,,,,,,,,,,,,,,,,,,,,,,,,,,,,,,,,,,,,,,,,,,,,,,,,,,,,,,,,,,
,,?,0.002,0,,,,,,stimuli/images/PICTURE_308.png,ESTATE,59609bdb599b690001ef2c59,25/12/1950,2020-09-12_08h51.06.405,proactive3.2,2020.1.2,Win32,60,5f5adea66120081ea0f57a61,5f5c7dcf65bc63010aea01e0,6,,,,,,dice,,,,,,,,,,,5,0,0,55,55,46,1,,,,,,,,,,,,,,,,,,,,,,,,,,,,,,,,,,,,,,,,,,,,,,,,,,,,,,,,,,,,,,,,,,,,,,
,,?,0.002,0,,,,,,stimuli/images/PICTURE_467.png,DEMON,59609bdb599b690001ef2c59,25/12/1950,2020-09-12_08h51.06.405,proactive3.2,2020.1.2,Win32,60,5f5adea66120081ea0f57a61,5f5c7dcf65bc63010aea01e0,6,,,,,,peg,,,,,,,,,,,3,0,0,56,56,23,1,,,,,,,,,,,,,,,,,,,,,,,,,,,,,,,,,,,,,,,,,,,,,,,,,,,,,,,,,,,,,,,,,,,,,,
,,PHOTO,3.971,1,,,,,,stimuli/images/PICTURE_380.png,PHOTO,59609bdb599b690001ef2c59,25/12/1950,2020-09-12_08h51.06.405,proactive3.2,2020.1.2,Win32,60,5f5adea66120081ea0f57a61,5f5c7dcf65bc63010aea01e0,6,,,,,,gorilla,,,,,,,,,,,6,0,0,57,57,52,1,,,,,,,,,,,,,,,,,,,,,,,,,,,,,,,,,,,,,,,,,,,,,,,,,,,,,,,,,,,,,,,,,,,,,,
,,?,0.001,0,,,,,,stimuli/images/PICTURE_348.png,SPEECH,59609bdb599b690001ef2c59,25/12/1950,2020-09-12_08h51.06.405,proactive3.2,2020.1.2,Win32,60,5f5adea66120081ea0f57a61,5f5c7dcf65bc63010aea01e0,6,,,,,,pepper,,,,,,,,,,,3,0,0,58,58,20,1,,,,,,,,,,,,,,,,,,,,,,,,,,,,,,,,,,,,,,,,,,,,,,,,,,,,,,,,,,,,,,,,,,,,,,
,,?,0.001,0,,,,,,stimuli/images/PICTURE_203.png,ARTIST,59609bdb599b690001ef2c59,25/12/1950,2020-09-12_08h51.06.405,proactive3.2,2020.1.2,Win32,60,5f5adea66120081ea0f57a61,5f5c7dcf65bc63010aea01e0,6,,,,,,cap,,,,,,,,,,,3,0,0,59,59,26,1,,,,,,,,,,,,,,,,,,,,,,,,,,,,,,,,,,,,,,,,,,,,,,,,,,,,,,,,,,,,,,,,,,,,,,
,,,,,,,,,,,,59609bdb599b690001ef2c59,25/12/1950,2020-09-12_08h51.06.405,proactive3.2,2020.1.2,Win32,60,5f5adea66120081ea0f57a61,5f5c7dcf65bc63010aea01e0,6,,,,,,,,,,,,,,,,,,,,,,,,0,1,1,0,1,stimuli/learn-block1.csv,,,,,,,,,,,,,,,,,,,,,,,,,,,,,,,,,,,,,,,,,,,,,,,,,,,,,,,,,,,,,,,,
,,,,,,,,,,stimuli/images/PICTURE_667.png,GLASS,59609bdb599b690001ef2c59,25/12/1950,2020-09-12_08h51.06.405,proactive3.2,2020.1.2,Win32,60,5f5adea66120081ea0f57a61,5f5c7dcf65bc63010aea01e0,6,,,,,,daisy,,,,,,0,0,0,27,1,3,2,,,,,,,,,,,,,,,,,,,,,,,,,,,,,,,,,,,,,,,,,,,,,,,,,,,,,,,,,,,,,,,,,,,,,,,,,,,
,,,,,,,,,,stimuli/images/PICTURE_123.png,SALE,59609bdb599b690001ef2c59,25/12/1950,2020-09-12_08h51.06.405,proactive3.2,2020.1.2,Win32,60,5f5adea66120081ea0f57a61,5f5c7dcf65bc63010aea01e0,6,,,,,,dart,,,,,,0,1,1,8,1,1,2,,,,,,,,,,,,,,,,,,,,,,,,,,,,,,,,,,,,,,,,,,,,,,,,,,,,,,,,,,,,,,,,,,,,,,,,,,,
,,,,,,,,,,stimuli/images/PICTURE_18.png,RIVER,59609bdb599b690001ef2c59,25/12/1950,2020-09-12_08h51.06.405,proactive3.2,2020.1.2,Win32,60,5f5adea66120081ea0f57a61,5f5c7dcf65bc63010aea01e0,6,,,,,,planet,,,,,,0,2,2,22,1,3,2,,,,,,,,,,,,,,,,,,,,,,,,,,,,,,,,,,,,,,,,,,,,,,,,,,,,,,,,,,,,,,,,,,,,,,,,,,,
,,,,,,,,,,stimuli/images/PICTURE_255.png,PENNY,59609bdb599b690001ef2c59,25/12/1950,2020-09-12_08h51.06.405,proactive3.2,2020.1.2,Win32,60,5f5adea66120081ea0f57a61,5f5c7dcf65bc63010aea01e0,6,,,,,,shovel,,,,,,0,3,3,19,1,2,2,,,,,,,,,,,,,,,,,,,,,,,,,,,,,,,,,,,,,,,,,,,,,,,,,,,,,,,,,,,,,,,,,,,,,,,,,,,
,,,,,,,,,,stimuli/images/PICTURE_2.png,AREA,59609bdb599b690001ef2c59,25/12/1950,2020-09-12_08h51.06.405,proactive3.2,2020.1.2,Win32,60,5f5adea66120081ea0f57a61,5f5c7dcf65bc63010aea01e0,6,,,,,,tyre,,,,,,0,4,4,32,1,4,2,,,,,,,,,,,,,,,,,,,,,,,,,,,,,,,,,,,,,,,,,,,,,,,,,,,,,,,,,,,,,,,,,,,,,,,,,,,
,,,,,,,,,,stimuli/images/PICTURE_356.png,CANDY,59609bdb599b690001ef2c59,25/12/1950,2020-09-12_08h51.06.405,proactive3.2,2020.1.2,Win32,60,5f5adea66120081ea0f57a61,5f5c7dcf65bc63010aea01e0,6,,,,,,pawn,,,,,,0,5,5,46,1,5,2,,,,,,,,,,,,,,,,,,,,,,,,,,,,,,,,,,,,,,,,,,,,,,,,,,,,,,,,,,,,,,,,,,,,,,,,,,,
,,,,,,,,,,stimuli/images/PICTURE_2.png,JUNGLE,59609bdb599b690001ef2c59,25/12/1950,2020-09-12_08h51.06.405,proactive3.2,2020.1.2,Win32,60,5f5adea66120081ea0f57a61,5f5c7dcf65bc63010aea01e0,6,,,,,,tyre,,,,,,0,6,6,1,1,1,2,,,,,,,,,,,,,,,,,,,,,,,,,,,,,,,,,,,,,,,,,,,,,,,,,,,,,,,,,,,,,,,,,,,,,,,,,,,
,,,,,,,,,,stimuli/images/PICTURE_215.png,FOOD,59609bdb599b690001ef2c59,25/12/1950,2020-09-12_08h51.06.405,proactive3.2,2020.1.2,Win32,60,5f5adea66120081ea0f57a61,5f5c7dcf65bc63010aea01e0,6,,,,,,boot,,,,,,0,7,7,5,1,1,2,,,,,,,,,,,,,,,,,,,,,,,,,,,,,,,,,,,,,,,,,,,,,,,,,,,,,,,,,,,,,,,,,,,,,,,,,,,
,,,,,,,,,,stimuli/images/PICTURE_160.png,HOTEL,59609bdb599b690001ef2c59,25/12/1950,2020-09-12_08h51.06.405,proactive3.2,2020.1.2,Win32,60,5f5adea66120081ea0f57a61,5f5c7dcf65bc63010aea01e0,6,,,,,,wheelbarrow,,,,,,0,8,8,16,1,2,2,,,,,,,,,,,,,,,,,,,,,,,,,,,,,,,,,,,,,,,,,,,,,,,,,,,,,,,,,,,,,,,,,,,,,,,,,,,
,,,,,,,,,,stimuli/images/PICTURE_314.png,SPEECH,59609bdb599b690001ef2c59,25/12/1950,2020-09-12_08h51.06.405,proactive3.2,2020.1.2,Win32,60,5f5adea66120081ea0f57a61,5f5c7dcf65bc63010aea01e0,6,,,,,,perfume,,,,,,0,9,9,35,1,4,2,,,,,,,,,,,,,,,,,,,,,,,,,,,,,,,,,,,,,,,,,,,,,,,,,,,,,,,,,,,,,,,,,,,,,,,,,,,
,,,,,,,,,,stimuli/images/PICTURE_509.png,SHOTS,59609bdb599b690001ef2c59,25/12/1950,2020-09-12_08h51.06.405,proactive3.2,2020.1.2,Win32,60,5f5adea66120081ea0f57a61,5f5c7dcf65bc63010aea01e0,6,,,,,,telephone,,,,,,0,10,10,7,1,1,2,,,,,,,,,,,,,,,,,,,,,,,,,,,,,,,,,,,,,,,,,,,,,,,,,,,,,,,,,,,,,,,,,,,,,,,,,,,
,,,,,,,,,,stimuli/images/PICTURE_509.png,APPLE,59609bdb599b690001ef2c59,25/12/1950,2020-09-12_08h51.06.405,proactive3.2,2020.1.2,Win32,60,5f5adea66120081ea0f57a61,5f5c7dcf65bc63010aea01e0,6,,,,,,telephone,,,,,,0,11,11,38,1,4,2,,,,,,,,,,,,,,,,,,,,,,,,,,,,,,,,,,,,,,,,,,,,,,,,,,,,,,,,,,,,,,,,,,,,,,,,,,,
,,,,,,,,,,stimuli/images/PICTURE_487.png,POLICY,59609bdb599b690001ef2c59,25/12/1950,2020-09-12_08h51.06.405,proactive3.2,2020.1.2,Win32,60,5f5adea66120081ea0f57a61,5f5c7dcf65bc63010aea01e0,6,,,,,,basket,,,,,,0,12,12,34,1,4,2,,,,,,,,,,,,,,,,,,,,,,,,,,,,,,,,,,,,,,,,,,,,,,,,,,,,,,,,,,,,,,,,,,,,,,,,,,,
,,,,,,,,,,stimuli/images/PICTURE_32.png,LETTER,59609bdb599b690001ef2c59,25/12/1950,2020-09-12_08h51.06.405,proactive3.2,2020.1.2,Win32,60,5f5adea66120081ea0f57a61,5f5c7dcf65bc63010aea01e0,6,,,,,,crown,,,,,,0,13,13,56,1,6,2,,,,,,,,,,,,,,,,,,,,,,,,,,,,,,,,,,,,,,,,,,,,,,,,,,,,,,,,,,,,,,,,,,,,,,,,,,,
,,,,,,,,,,stimuli/images/PICTURE_405.png,JUNGLE,59609bdb599b690001ef2c59,25/12/1950,2020-09-12_08h51.06.405,proactive3.2,2020.1.2,Win32,60,5f5adea66120081ea0f57a61,5f5c7dcf65bc63010aea01e0,6,,,,,,anchor,,,,,,0,14,14,58,1,6,2,,,,,,,,,,,,,,,,,,,,,,,,,,,,,,,,,,,,,,,,,,,,,,,,,,,,,,,,,,,,,,,,,,,,,,,,,,,
,,,,,,,,,,stimuli/images/PICTURE_147.png,LEADER,59609bdb599b690001ef2c59,25/12/1950,2020-09-12_08h51.06.405,proactive3.2,2020.1.2,Win32,60,5f5adea66120081ea0f57a61,5f5c7dcf65bc63010aea01e0,6,,,,,,hanger,,,,,,0,15,15,33,1,4,2,,,,,,,,,,,,,,,,,,,,,,,,,,,,,,,,,,,,,,,,,,,,,,,,,,,,,,,,,,,,,,,,,,,,,,,,,,,
,,,,,,,,,,stimuli/images/PICTURE_564.png,PLENTY,59609bdb599b690001ef2c59,25/12/1950,2020-09-12_08h51.06.405,proactive3.2,2020.1.2,Win32,60,5f5adea66120081ea0f57a61,5f5c7dcf65bc63010aea01e0,6,,,,,,spoon,,,,,,0,16,16,11,1,2,2,,,,,,,,,,,,,,,,,,,,,,,,,,,,,,,,,,,,,,,,,,,,,,,,,,,,,,,,,,,,,,,,,,,,,,,,,,,
,,,,,,,,,,stimuli/images/PICTURE_504.png,HOUSE,59609bdb599b690001ef2c59,25/12/1950,2020-09-12_08h51.06.405,proactive3.2,2020.1.2,Win32,60,5f5adea66120081ea0f57a61,5f5c7dcf65bc63010aea01e0,6,,,,,,wheel,,,,,,0,17,17,36,1,4,2,,,,,,,,,,,,,,,,,,,,,,,,,,,,,,,,,,,,,,,,,,,,,,,,,,,,,,,,,,,,,,,,,,,,,,,,,,,
,,,,,,,,,,stimuli/images/PICTURE_95.png,NIGHT,59609bdb599b690001ef2c59,25/12/1950,2020-09-12_08h51.06.405,proactive3.2,2020.1.2,Win32,60,5f5adea66120081ea0f57a61,5f5c7dcf65bc63010aea01e0,6,,,,,,suitcase,,,,,,0,18,18,37,1,4,2,,,,,,,,,,,,,,,,,,,,,,,,,,,,,,,,,,,,,,,,,,,,,,,,,,,,,,,,,,,,,,,,,,,,,,,,,,,
,,,,,,,,,,stimuli/images/PICTURE_509.png,MILLER,59609bdb599b690001ef2c59,25/12/1950,2020-09-12_08h51.06.405,proactive3.2,2020.1.2,Win32,60,5f5adea66120081ea0f57a61,5f5c7dcf65bc63010aea01e0,6,,,,,,telephone,,,,,,0,19,19,49,1,5,2,,,,,,,,,,,,,,,,,,,,,,,,,,,,,,,,,,,,,,,,,,,,,,,,,,,,,,,,,,,,,,,,,,,,,,,,,,,
,,,,,,,,,,stimuli/images/PICTURE_487.png,ROOF,59609bdb599b690001ef2c59,25/12/1950,2020-09-12_08h51.06.405,proactive3.2,2020.1.2,Win32,60,5f5adea66120081ea0f57a61,5f5c7dcf65bc63010aea01e0,6,,,,,,basket,,,,,,0,20,20,50,1,6,2,,,,,,,,,,,,,,,,,,,,,,,,,,,,,,,,,,,,,,,,,,,,,,,,,,,,,,,,,,,,,,,,,,,,,,,,,,,
,,,,,,,,,,stimuli/images/PICTURE_2.png,YARD,59609bdb599b690001ef2c59,25/12/1950,2020-09-12_08h51.06.405,proactive3.2,2020.1.2,Win32,60,5f5adea66120081ea0f57a61,5f5c7dcf65bc63010aea01e0,6,,,,,,tyre,,,,,,0,21,21,55,1,6,2,,,,,,,,,,,,,,,,,,,,,,,,,,,,,,,,,,,,,,,,,,,,,,,,,,,,,,,,,,,,,,,,,,,,,,,,,,,
,,,,,,,,,,stimuli/images/PICTURE_405.png,HOUSE,59609bdb599b690001ef2c59,25/12/1950,2020-09-12_08h51.06.405,proactive3.2,2020.1.2,Win32,60,5f5adea66120081ea0f57a61,5f5c7dcf65bc63010aea01e0,6,,,,,,anchor,,,,,,0,22,22,2,1,1,2,,,,,,,,,,,,,,,,,,,,,,,,,,,,,,,,,,,,,,,,,,,,,,,,,,,,,,,,,,,,,,,,,,,,,,,,,,,
,,,,,,,,,,stimuli/images/PICTURE_405.png,JUNGLE,59609bdb599b690001ef2c59,25/12/1950,2020-09-12_08h51.06.405,proactive3.2,2020.1.2,Win32,60,5f5adea66120081ea0f57a61,5f5c7dcf65bc63010aea01e0,6,,,,,,anchor,,,,,,0,23,23,13,1,2,2,,,,,,,,,,,,,,,,,,,,,,,,,,,,,,,,,,,,,,,,,,,,,,,,,,,,,,,,,,,,,,,,,,,,,,,,,,,
,,,,,,,,,,stimuli/images/PICTURE_491.png,SERIES,59609bdb599b690001ef2c59,25/12/1950,2020-09-12_08h51.06.405,proactive3.2,2020.1.2,Win32,60,5f5adea66120081ea0f57a61,5f5c7dcf65bc63010aea01e0,6,,,,,,rug,,,,,,0,24,24,39,1,4,2,,,,,,,,,,,,,,,,,,,,,,,,,,,,,,,,,,,,,,,,,,,,,,,,,,,,,,,,,,,,,,,,,,,,,,,,,,,
,,,,,,,,,,stimuli/images/PICTURE_655.png,SALE,59609bdb599b690001ef2c59,25/12/1950,2020-09-12_08h51.06.405,proactive3.2,2020.1.2,Win32,60,5f5adea66120081ea0f57a61,5f5c7dcf65bc63010aea01e0,6,,,,,,megaphone,,,,,,0,25,25,57,1,6,2,,,,,,,,,,,,,,,,,,,,,,,,,,,,,,,,,,,,,,,,,,,,,,,,,,,,,,,,,,,,,,,,,,,,,,,,,,,
,,,,,,,,,,stimuli/images/PICTURE_297.png,BODY,59609bdb599b690001ef2c59,25/12/1950,2020-09-12_08h51.06.405,proactive3.2,2020.1.2,Win32,60,5f5adea66120081ea0f57a61,5f5c7dcf65bc63010aea01e0,6,,,,,,aeroplane,,,,,,0,26,26,51,1,6,2,,,,,,,,,,,,,,,,,,,,,,,,,,,,,,,,,,,,,,,,,,,,,,,,,,,,,,,,,,,,,,,,,,,,,,,,,,,
,,,,,,,,,,stimuli/images/PICTURE_57.png,CANDY,59609bdb599b690001ef2c59,25/12/1950,2020-09-12_08h51.06.405,proactive3.2,2020.1.2,Win32,60,5f5adea66120081ea0f57a61,5f5c7dcf65bc63010aea01e0,6,,,,,,stamp,,,,,,0,27,27,52,1,6,2,,,,,,,,,,,,,,,,,,,,,,,,,,,,,,,,,,,,,,,,,,,,,,,,,,,,,,,,,,,,,,,,,,,,,,,,,,,
,,,,,,,,,,stimuli/images/PICTURE_141.png,CLIENT,59609bdb599b690001ef2c59,25/12/1950,2020-09-12_08h51.06.405,proactive3.2,2020.1.2,Win32,60,5f5adea66120081ea0f57a61,5f5c7dcf65bc63010aea01e0,6,,,,,,sunflower,,,,,,0,28,28,30,1,4,2,,,,,,,,,,,,,,,,,,,,,,,,,,,,,,,,,,,,,,,,,,,,,,,,,,,,,,,,,,,,,,,,,,,,,,,,,,,
,,,,,,,,,,stimuli/images/PICTURE_93.png,GIRL,59609bdb599b690001ef2c59,25/12/1950,2020-09-12_08h51.06.405,proactive3.2,2020.1.2,Win32,60,5f5adea66120081ea0f57a61,5f5c7dcf65bc63010aea01e0,6,,,,,,skateboard,,,,,,0,29,29,31,1,4,2,,,,,,,,,,,,,,,,,,,,,,,,,,,,,,,,,,,,,,,,,,,,,,,,,,,,,,,,,,,,,,,,,,,,,,,,,,,
,,,,,,,,,,stimuli/images/PICTURE_348.png,TOILET,59609bdb599b690001ef2c59,25/12/1950,2020-09-12_08h51.06.405,proactive3.2,2020.1.2,Win32,60,5f5adea66120081ea0f57a61,5f5c7dcf65bc63010aea01e0,6,,,,,,pepper,,,,,,0,30,30,4,1,1,2,,,,,,,,,,,,,,,,,,,,,,,,,,,,,,,,,,,,,,,,,,,,,,,,,,,,,,,,,,,,,,,,,,,,,,,,,,,
,,,,,,,,,,stimuli/images/PICTURE_470.png,MOMENT,59609bdb599b690001ef2c59,25/12/1950,2020-09-12_08h51.06.405,proactive3.2,2020.1.2,Win32,60,5f5adea66120081ea0f57a61,5f5c7dcf65bc63010aea01e0,6,,,,,,motorbike,,,,,,0,31,31,40,1,5,2,,,,,,,,,,,,,,,,,,,,,,,,,,,,,,,,,,,,,,,,,,,,,,,,,,,,,,,,,,,,,,,,,,,,,,,,,,,
,,,,,,,,,,stimuli/images/PICTURE_688.png,CLOCK,59609bdb599b690001ef2c59,25/12/1950,2020-09-12_08h51.06.405,proactive3.2,2020.1.2,Win32,60,5f5adea66120081ea0f57a61,5f5c7dcf65bc63010aea01e0,6,,,,,,runner,,,,,,0,32,32,42,1,5,2,,,,,,,,,,,,,,,,,,,,,,,,,,,,,,,,,,,,,,,,,,,,,,,,,,,,,,,,,,,,,,,,,,,,,,,,,,,
,,,,,,,,,,stimuli/images/PICTURE_57.png,CASINO,59609bdb599b690001ef2c59,25/12/1950,2020-09-12_08h51.06.405,proactive3.2,2020.1.2,Win32,60,5f5adea66120081ea0f57a61,5f5c7dcf65bc63010aea01e0,6,,,,,,stamp,,,,,,0,33,33,12,1,2,2,,,,,,,,,,,,,,,,,,,,,,,,,,,,,,,,,,,,,,,,,,,,,,,,,,,,,,,,,,,,,,,,,,,,,,,,,,,
,,,,,,,,,,stimuli/images/PICTURE_33.png,COPS,59609bdb599b690001ef2c59,25/12/1950,2020-09-12_08h51.06.405,proactive3.2,2020.1.2,Win32,60,5f5adea66120081ea0f57a61,5f5c7dcf65bc63010aea01e0,6,,,,,,frame,,,,,,0,34,34,29,1,3,2,,,,,,,,,,,,,,,,,,,,,,,,,,,,,,,,,,,,,,,,,,,,,,,,,,,,,,,,,,,,,,,,,,,,,,,,,,,
,,,,,,,,,,stimuli/images/PICTURE_57.png,NATION,59609bdb599b690001ef2c59,25/12/1950,2020-09-12_08h51.06.405,proactive3.2,2020.1.2,Win32,60,5f5adea66120081ea0f57a61,5f5c7dcf65bc63010aea01e0,6,,,,,,stamp,,,,,,0,35,35,21,1,3,2,,,,,,,,,,,,,,,,,,,,,,,,,,,,,,,,,,,,,,,,,,,,,,,,,,,,,,,,,,,,,,,,,,,,,,,,,,,
,,,,,,,,,,stimuli/images/PICTURE_453.png,FAMILY,59609bdb599b690001ef2c59,25/12/1950,2020-09-12_08h51.06.405,proactive3.2,2020.1.2,Win32,60,5f5adea66120081ea0f57a61,5f5c7dcf65bc63010aea01e0,6,,,,,,scissors,,,,,,0,36,36,48,1,5,2,,,,,,,,,,,,,,,,,,,,,,,,,,,,,,,,,,,,,,,,,,,,,,,,,,,,,,,,,,,,,,,,,,,,,,,,,,,
,,,,,,,,,,stimuli/images/PICTURE_285.png,PRINCE,59609bdb599b690001ef2c59,25/12/1950,2020-09-12_08h51.06.405,proactive3.2,2020.1.2,Win32,60,5f5adea66120081ea0f57a61,5f5c7dcf65bc63010aea01e0,6,,,,,,carrot,,,,,,0,37,37,20,1,3,2,,,,,,,,,,,,,,,,,,,,,,,,,,,,,,,,,,,,,,,,,,,,,,,,,,,,,,,,,,,,,,,,,,,,,,,,,,,
,,,,,,,,,,stimuli/images/PICTURE_470.png,BEAUTY,59609bdb599b690001ef2c59,25/12/1950,2020-09-12_08h51.06.405,proactive3.2,2020.1.2,Win32,60,5f5adea66120081ea0f57a61,5f5c7dcf65bc63010aea01e0,6,,,,,,motorbike,,,,,,0,38,38,26,1,3,2,,,,,,,,,,,,,,,,,,,,,,,,,,,,,,,,,,,,,,,,,,,,,,,,,,,,,,,,,,,,,,,,,,,,,,,,,,,
,,,,,,,,,,stimuli/images/PICTURE_177.png,HOUSE,59609bdb599b690001ef2c59,25/12/1950,2020-09-12_08h51.06.405,proactive3.2,2020.1.2,Win32,60,5f5adea66120081ea0f57a61,5f5c7dcf65bc63010aea01e0,6,,,,,,mushroom,,,,,,0,39,39,25,1,3,2,,,,,,,,,,,,,,,,,,,,,,,,,,,,,,,,,,,,,,,,,,,,,,,,,,,,,,,,,,,,,,,,,,,,,,,,,,,
,,,,,,,,,,stimuli/images/PICTURE_348.png,DUDE,59609bdb599b690001ef2c59,25/12/1950,2020-09-12_08h51.06.405,proactive3.2,2020.1.2,Win32,60,5f5adea66120081ea0f57a61,5f5c7dcf65bc63010aea01e0,6,,,,,,pepper,,,,,,0,40,40,59,1,6,2,,,,,,,,,,,,,,,,,,,,,,,,,,,,,,,,,,,,,,,,,,,,,,,,,,,,,,,,,,,,,,,,,,,,,,,,,,,
,,,,,,,,,,stimuli/images/PICTURE_677.png,PHOTO,59609bdb599b690001ef2c59,25/12/1950,2020-09-12_08h51.06.405,proactive3.2,2020.1.2,Win32,60,5f5adea66120081ea0f57a61,5f5c7dcf65bc63010aea01e0,6,,,,,,map,,,,,,0,41,41,14,1,2,2,,,,,,,,,,,,,,,,,,,,,,,,,,,,,,,,,,,,,,,,,,,,,,,,,,,,,,,,,,,,,,,,,,,,,,,,,,,
,,,,,,,,,,stimuli/images/PICTURE_708.png,VALLEY,59609bdb599b690001ef2c59,25/12/1950,2020-09-12_08h51.06.405,proactive3.2,2020.1.2,Win32,60,5f5adea66120081ea0f57a61,5f5c7dcf65bc63010aea01e0,6,,,,,,monkey,,,,,,0,42,42,45,1,5,2,,,,,,,,,,,,,,,,,,,,,,,,,,,,,,,,,,,,,,,,,,,,,,,,,,,,,,,,,,,,,,,,,,,,,,,,,,,
,,,,,,,,,,stimuli/images/PICTURE_677.png,FAMILY,59609bdb599b690001ef2c59,25/12/1950,2020-09-12_08h51.06.405,proactive3.2,2020.1.2,Win32,60,5f5adea66120081ea0f57a61,5f5c7dcf65bc63010aea01e0,6,,,,,,map,,,,,,0,43,43,53,1,6,2,,,,,,,,,,,,,,,,,,,,,,,,,,,,,,,,,,,,,,,,,,,,,,,,,,,,,,,,,,,,,,,,,,,,,,,,,,,
,,,,,,,,,,stimuli/images/PICTURE_750.png,POLICY,59609bdb599b690001ef2c59,25/12/1950,2020-09-12_08h51.06.405,proactive3.2,2020.1.2,Win32,60,5f5adea66120081ea0f57a61,5f5c7dcf65bc63010aea01e0,6,,,,,,kettle,,,,,,0,44,44,44,1,5,2,,,,,,,,,,,,,,,,,,,,,,,,,,,,,,,,,,,,,,,,,,,,,,,,,,,,,,,,,,,,,,,,,,,,,,,,,,,
,,,,,,,,,,stimuli/images/PICTURE_327.png,LEADER,59609bdb599b690001ef2c59,25/12/1950,2020-09-12_08h51.06.405,proactive3.2,2020.1.2,Win32,60,5f5adea66120081ea0f57a61,5f5c7dcf65bc63010aea01e0,6,,,,,,helmet,,,,,,0,45,45,17,1,2,2,,,,,,,,,,,,,,,,,,,,,,,,,,,,,,,,,,,,,,,,,,,,,,,,,,,,,,,,,,,,,,,,,,,,,,,,,,,
,,,,,,,,,,stimuli/images/PICTURE_311.png,TOILET,59609bdb599b690001ef2c59,25/12/1950,2020-09-12_08h51.06.405,proactive3.2,2020.1.2,Win32,60,5f5adea66120081ea0f57a61,5f5c7dcf65bc63010aea01e0,6,,,,,,razor,,,,,,0,46,46,54,1,6,2,,,,,,,,,,,,,,,,,,,,,,,,,,,,,,,,,,,,,,,,,,,,,,,,,,,,,,,,,,,,,,,,,,,,,,,,,,,
,,,,,,,,,,stimuli/images/PICTURE_452.png,COPS,59609bdb599b690001ef2c59,25/12/1950,2020-09-12_08h51.06.405,proactive3.2,2020.1.2,Win32,60,5f5adea66120081ea0f57a61,5f5c7dcf65bc63010aea01e0,6,,,,,,watch,,,,,,0,47,47,0,1,1,2,,,,,,,,,,,,,,,,,,,,,,,,,,,,,,,,,,,,,,,,,,,,,,,,,,,,,,,,,,,,,,,,,,,,,,,,,,,
,,,,,,,,,,stimuli/images/PICTURE_654.png,COPS,59609bdb599b690001ef2c59,25/12/1950,2020-09-12_08h51.06.405,proactive3.2,2020.1.2,Win32,60,5f5adea66120081ea0f57a61,5f5c7dcf65bc63010aea01e0,6,,,,,,pencil,,,,,,0,48,48,10,1,2,2,,,,,,,,,,,,,,,,,,,,,,,,,,,,,,,,,,,,,,,,,,,,,,,,,,,,,,,,,,,,,,,,,,,,,,,,,,,
,,,,,,,,,,stimuli/images/PICTURE_654.png,YEAR,59609bdb599b690001ef2c59,25/12/1950,2020-09-12_08h51.06.405,proactive3.2,2020.1.2,Win32,60,5f5adea66120081ea0f57a61,5f5c7dcf65bc63010aea01e0,6,,,,,,pencil,,,,,,0,49,49,41,1,5,2,,,,,,,,,,,,,,,,,,,,,,,,,,,,,,,,,,,,,,,,,,,,,,,,,,,,,,,,,,,,,,,,,,,,,,,,,,,
,,,,,,,,,,stimuli/images/PICTURE_692.png,DUDE,59609bdb599b690001ef2c59,25/12/1950,2020-09-12_08h51.06.405,proactive3.2,2020.1.2,Win32,60,5f5adea66120081ea0f57a61,5f5c7dcf65bc63010aea01e0,6,,,,,,cherry,,,,,,0,50,50,47,1,5,2,,,,,,,,,,,,,,,,,,,,,,,,,,,,,,,,,,,,,,,,,,,,,,,,,,,,,,,,,,,,,,,,,,,,,,,,,,,
,,,,,,,,,,stimuli/images/PICTURE_208.png,SPIRIT,59609bdb599b690001ef2c59,25/12/1950,2020-09-12_08h51.06.405,proactive3.2,2020.1.2,Win32,60,5f5adea66120081ea0f57a61,5f5c7dcf65bc63010aea01e0,6,,,,,,microphone,,,,,,0,51,51,28,1,3,2,,,,,,,,,,,,,,,,,,,,,,,,,,,,,,,,,,,,,,,,,,,,,,,,,,,,,,,,,,,,,,,,,,,,,,,,,,,
,,,,,,,,,,stimuli/images/PICTURE_296.png,CLOCK,59609bdb599b690001ef2c59,25/12/1950,2020-09-12_08h51.06.405,proactive3.2,2020.1.2,Win32,60,5f5adea66120081ea0f57a61,5f5c7dcf65bc63010aea01e0,6,,,,,,bolt,,,,,,0,52,52,18,1,2,2,,,,,,,,,,,,,,,,,,,,,,,,,,,,,,,,,,,,,,,,,,,,,,,,,,,,,,,,,,,,,,,,,,,,,,,,,,,
,,,,,,,,,,stimuli/images/PICTURE_215.png,LEADER,59609bdb599b690001ef2c59,25/12/1950,2020-09-12_08h51.06.405,proactive3.2,2020.1.2,Win32,60,5f5adea66120081ea0f57a61,5f5c7dcf65bc63010aea01e0,6,,,,,,boot,,,,,,0,53,53,43,1,5,2,,,,,,,,,,,,,,,,,,,,,,,,,,,,,,,,,,,,,,,,,,,,,,,,,,,,,,,,,,,,,,,,,,,,,,,,,,,
,,,,,,,,,,stimuli/images/PICTURE_403.png,FAMILY,59609bdb599b690001ef2c59,25/12/1950,2020-09-12_08h51.06.405,proactive3.2,2020.1.2,Win32,60,5f5adea66120081ea0f57a61,5f5c7dcf65bc63010aea01e0,6,,,,,,cathedral,,,,,,0,54,54,9,1,1,2,,,,,,,,,,,,,,,,,,,,,,,,,,,,,,,,,,,,,,,,,,,,,,,,,,,,,,,,,,,,,,,,,,,,,,,,,,,
,,,,,,,,,,stimuli/images/PICTURE_509.png,BATH,59609bdb599b690001ef2c59,25/12/1950,2020-09-12_08h51.06.405,proactive3.2,2020.1.2,Win32,60,5f5adea66120081ea0f57a61,5f5c7dcf65bc63010aea01e0,6,,,,,,telephone,,,,,,0,55,55,15,1,2,2,,,,,,,,,,,,,,,,,,,,,,,,,,,,,,,,,,,,,,,,,,,,,,,,,,,,,,,,,,,,,,,,,,,,,,,,,,,
,,,,,,,,,,stimuli/images/PICTURE_285.png,WRITER,59609bdb599b690001ef2c59,25/12/1950,2020-09-12_08h51.06.405,proactive3.2,2020.1.2,Win32,60,5f5adea66120081ea0f57a61,5f5c7dcf65bc63010aea01e0,6,,,,,,carrot,,,,,,0,56,56,6,1,1,2,,,,,,,,,,,,,,,,,,,,,,,,,,,,,,,,,,,,,,,,,,,,,,,,,,,,,,,,,,,,,,,,,,,,,,,,,,,
,,,,,,,,,,stimuli/images/PICTURE_68.png,KIND,59609bdb599b690001ef2c59,25/12/1950,2020-09-12_08h51.06.405,proactive3.2,2020.1.2,Win32,60,5f5adea66120081ea0f57a61,5f5c7dcf65bc63010aea01e0,6,,,,,,candle,,,,,,0,57,57,23,1,3,2,,,,,,,,,,,,,,,,,,,,,,,,,,,,,,,,,,,,,,,,,,,,,,,,,,,,,,,,,,,,,,,,,,,,,,,,,,,
,,,,,,,,,,stimuli/images/PICTURE_311.png,FLESH,59609bdb599b690001ef2c59,25/12/1950,2020-09-12_08h51.06.405,proactive3.2,2020.1.2,Win32,60,5f5adea66120081ea0f57a61,5f5c7dcf65bc63010aea01e0,6,,,,,,razor,,,,,,0,58,58,3,1,1,2,,,,,,,,,,,,,,,,,,,,,,,,,,,,,,,,,,,,,,,,,,,,,,,,,,,,,,,,,,,,,,,,,,,,,,,,,,,
,,?,0.002,0,,,,,,stimuli/images/PICTURE_215.png,BOYS,59609bdb599b690001ef2c59,25/12/1950,2020-09-12_08h51.06.405,proactive3.2,2020.1.2,Win32,60,5f5adea66120081ea0f57a61,5f5c7dcf65bc63010aea01e0,6,,,,,,boot,,,,,,,,,,,3,2,0,0,0,24,1,,,,,,,,,,,,,,,,,,,,,,,,,,,,,,,,,,,,,,,,,,,,,,,,,,,,,,,,,,,,,,,,,,,,,,
,,TOILET,3.394,1,,,,,,stimuli/images/PICTURE_311.png,TOILET,59609bdb599b690001ef2c59,25/12/1950,2020-09-12_08h51.06.405,proactive3.2,2020.1.2,Win32,60,5f5adea66120081ea0f57a61,5f5c7dcf65bc63010aea01e0,6,,,,,,razor,,,,,,,,,,,6,2,0,1,1,54,1,,,,,,,,,,,,,,,,,,,,,,,,,,,,,,,,,,,,,,,,,,,,,,,,,,,,,,,,,,,,,,,,,,,,,,
,,?,0.002,0,,,,,,stimuli/images/PICTURE_2.png,AREA,59609bdb599b690001ef2c59,25/12/1950,2020-09-12_08h51.06.405,proactive3.2,2020.1.2,Win32,60,5f5adea66120081ea0f57a61,5f5c7dcf65bc63010aea01e0,6,,,,,,tyre,,,,,,,,,,,4,2,0,2,2,32,1,,,,,,,,,,,,,,,,,,,,,,,,,,,,,,,,,,,,,,,,,,,,,,,,,,,,,,,,,,,,,,,,,,,,,,
,,?,0.001,0,,,,,,stimuli/images/PICTURE_57.png,NATION,59609bdb599b690001ef2c59,25/12/1950,2020-09-12_08h51.06.405,proactive3.2,2020.1.2,Win32,60,5f5adea66120081ea0f57a61,5f5c7dcf65bc63010aea01e0,6,,,,,,stamp,,,,,,,,,,,3,2,0,3,3,21,1,,,,,,,,,,,,,,,,,,,,,,,,,,,,,,,,,,,,,,,,,,,,,,,,,,,,,,,,,,,,,,,,,,,,,,
,,?,0.001,0,,,,,,stimuli/images/PICTURE_285.png,PRINCE,59609bdb599b690001ef2c59,25/12/1950,2020-09-12_08h51.06.405,proactive3.2,2020.1.2,Win32,60,5f5adea66120081ea0f57a61,5f5c7dcf65bc63010aea01e0,6,,,,,,carrot,,,,,,,,,,,3,2,0,4,4,20,1,,,,,,,,,,,,,,,,,,,,,,,,,,,,,,,,,,,,,,,,,,,,,,,,,,,,,,,,,,,,,,,,,,,,,,
,,?,0.002,0,,,,,,stimuli/images/PICTURE_141.png,CLIENT,59609bdb599b690001ef2c59,25/12/1950,2020-09-12_08h51.06.405,proactive3.2,2020.1.2,Win32,60,5f5adea66120081ea0f57a61,5f5c7dcf65bc63010aea01e0,6,,,,,,sunflower,,,,,,,,,,,4,2,0,5,5,30,1,,,,,,,,,,,,,,,,,,,,,,,,,,,,,,,,,,,,,,,,,,,,,,,,,,,,,,,,,,,,,,,,,,,,,,
,,?,0.001,0,,,,,,stimuli/images/PICTURE_750.png,POLICY,59609bdb599b690001ef2c59,25/12/1950,2020-09-12_08h51.06.405,proactive3.2,2020.1.2,Win32,60,5f5adea66120081ea0f57a61,5f5c7dcf65bc63010aea01e0,6,,,,,,kettle,,,,,,,,,,,5,2,0,6,6,44,1,,,,,,,,,,,,,,,,,,,,,,,,,,,,,,,,,,,,,,,,,,,,,,,,,,,,,,,,,,,,,,,,,,,,,,
,,?,0.001,0,,,,,,stimuli/images/PICTURE_405.png,JUNGLE,59609bdb599b690001ef2c59,25/12/1950,2020-09-12_08h51.06.405,proactive3.2,2020.1.2,Win32,60,5f5adea66120081ea0f57a61,5f5c7dcf65bc63010aea01e0,6,,,,,,anchor,,,,,,,,,,,2,2,0,7,7,13,1,,,,,,,,,,,,,,,,,,,,,,,,,,,,,,,,,,,,,,,,,,,,,,,,,,,,,,,,,,,,,,,,,,,,,,
,,?,0.001,0,,,,,,stimuli/images/PICTURE_327.png,LEADER,59609bdb599b690001ef2c59,25/12/1950,2020-09-12_08h51.06.405,proactive3.2,2020.1.2,Win32,60,5f5adea66120081ea0f57a61,5f5c7dcf65bc63010aea01e0,6,,,,,,helmet,,,,,,,,,,,2,2,0,8,8,17,1,,,,,,,,,,,,,,,,,,,,,,,,,,,,,,,,,,,,,,,,,,,,,,,,,,,,,,,,,,,,,,,,,,,,,,
,,?,0.001,0,,,,,,stimuli/images/PICTURE_215.png,FOOD,59609bdb599b690001ef2c59,25/12/1950,2020-09-12_08h51.06.405,proactive3.2,2020.1.2,Win32,60,5f5adea66120081ea0f57a61,5f5c7dcf65bc63010aea01e0,6,,,,,,boot,,,,,,,,,,,1,2,0,9,9,5,1,,,,,,,,,,,,,,,,,,,,,,,,,,,,,,,,,,,,,,,,,,,,,,,,,,,,,,,,,,,,,,,,,,,,,,
,,?,0.002,0,,,,,,stimuli/images/PICTURE_453.png,FAMILY,59609bdb599b690001ef2c59,25/12/1950,2020-09-12_08h51.06.405,proactive3.2,2020.1.2,Win32,60,5f5adea66120081ea0f57a61,5f5c7dcf65bc63010aea01e0,6,,,,,,scissors,,,,,,,,,,,5,2,0,10,10,48,1,,,,,,,,,,,,,,,,,,,,,,,,,,,,,,,,,,,,,,,,,,,,,,,,,,,,,,,,,,,,,,,,,,,,,,
,,?,0.001,0,,,,,,stimuli/images/PICTURE_504.png,HOUSE,59609bdb599b690001ef2c59,25/12/1950,2020-09-12_08h51.06.405,proactive3.2,2020.1.2,Win32,60,5f5adea66120081ea0f57a61,5f5c7dcf65bc63010aea01e0,6,,,,,,wheel,,,,,,,,,,,4,2,0,11,11,36,1,,,,,,,,,,,,,,,,,,,,,,,,,,,,,,,,,,,,,,,,,,,,,,,,,,,,,,,,,,,,,,,,,,,,,,
,,?,0.001,0,,,,,,stimuli/images/PICTURE_208.png,SPIRIT,59609bdb599b690001ef2c59,25/12/1950,2020-09-12_08h51.06.405,proactive3.2,2020.1.2,Win32,60,5f5adea66120081ea0f57a61,5f5c7dcf65bc63010aea01e0,6,,,,,,microphone,,,,,,,,,,,3,2,0,12,12,28,1,,,,,,,,,,,,,,,,,,,,,,,,,,,,,,,,,,,,,,,,,,,,,,,,,,,,,,,,,,,,,,,,,,,,,,
,,?,0.001,0,,,,,,stimuli/images/PICTURE_708.png,VALLEY,59609bdb599b690001ef2c59,25/12/1950,2020-09-12_08h51.06.405,proactive3.2,2020.1.2,Win32,60,5f5adea66120081ea0f57a61,5f5c7dcf65bc63010aea01e0,6,,,,,,monkey,,,,,,,,,,,5,2,0,13,13,45,1,,,,,,,,,,,,,,,,,,,,,,,,,,,,,,,,,,,,,,,,,,,,,,,,,,,,,,,,,,,,,,,,,,,,,,
,,?,0.001,0,,,,,,stimuli/images/PICTURE_491.png,SERIES,59609bdb599b690001ef2c59,25/12/1950,2020-09-12_08h51.06.405,proactive3.2,2020.1.2,Win32,60,5f5adea66120081ea0f57a61,5f5c7dcf65bc63010aea01e0,6,,,,,,rug,,,,,,,,,,,4,2,0,14,14,39,1,,,,,,,,,,,,,,,,,,,,,,,,,,,,,,,,,,,,,,,,,,,,,,,,,,,,,,,,,,,,,,,,,,,,,,
