consent_key.keys,consent_key.rt,recalled,recalled_rt,recall_acc,example_recall.thisRepN,example_recall.thisTrialN,example_recall.thisN,example_recall.thisIndex,example_recall.ran,file,word,participant,please enter your date of birth (dd/mm/yyyy),date,expName,psychopyVersion,OS,frameRate,STUDY_ID,SESSION_ID,list,prac_learn_study_loop.thisRepN,prac_learn_study_loop.thisTrialN,prac_learn_study_loop.thisN,prac_learn_study_loop.thisIndex,prac_learn_study_loop.ran,image,prac_learn_test_loop.thisRepN,prac_learn_test_loop.thisTrialN,prac_learn_test_loop.thisN,prac_learn_test_loop.thisIndex,prac_learn_test_loop.ran,learn_study_loop.thisRepN,learn_study_loop.thisTrialN,learn_study_loop.thisN,learn_study_loop.thisIndex,learn_study_loop.ran,list_no,block_no,learn_test_loop.thisRepN,learn_test_loop.thisTrialN,learn_test_loop.thisN,learn_test_loop.thisIndex,learn_test_loop.ran,learn_blocks.thisRepN,learn_blocks.thisTrialN,learn_blocks.thisN,learn_blocks.thisIndex,learn_blocks.ran,block_csv,key_resp_13.keys,key_resp_13.rt,learn_blocks_loop.thisRepN,learn_blocks_loop.thisTrialN,learn_blocks_loop.thisN,learn_blocks_loop.thisIndex,learn_blocks_loop.ran,final_learn_test.thisRepN,final_learn_test.thisTrialN,final_learn_test.thisN,final_learn_test.thisIndex,final_learn_test.ran,prac_wm_test_loop.thisRepN,prac_wm_test_loop.thisTrialN,prac_wm_test_loop.thisN,prac_wm_test_loop.thisIndex,prac_wm_test_loop.ran,wm_recalled1,wm_recall_rt1,wm_probed1,wm_recall_acc1,wm_recalled2,wm_recall_rt2,wm_probed2,wm_recall_acc2,wm_recalled3,wm_recall_rt3,wm_probed3,wm_recall_acc3,wm_recalled4,wm_recall_rt4,wm_probed4,wm_recall_acc4,prac_wm_trial_loop.thisRepN,prac_wm_trial_loop.thisTrialN,prac_wm_trial_loop.thisN,prac_wm_trial_loop.thisIndex,prac_wm_trial_loop.ran,word1,image1,file1,item_type1,word2,image2,file2,item_type2,word4,image4,file4,item_type4,word3,image3,file3,item_type3,wm_test_loop.thisRepN,wm_test_loop.thisTrialN,wm_test_loop.thisN,wm_test_loop.thisIndex,wm_test_loop.ran,wm_trial_loop.thisRepN,wm_trial_loop.thisTrialN,wm_trial_loop.thisN,wm_trial_loop.thisIndex,wm_trial_loop.ran
y,22.13885,TOUGH,6.263315,1,0,0,0,0,1,stimuli/images/PICTURE_747.png,TOUGH,599614af004c4f0001cc8642,05/08/1952,2020-09-14_11h14.45.225,proactive3.2,2020.1.2,Win32,60,5f5adea66120081ea0f57a61,5f5f42353a42fc0322ba95a3,2,,,,,,,,,,,,,,,,,,,,,,,,,,,,,,,,,,,,,,,,,,,,,,,,,,,,,,,,,,,,,,,,,,,,,,,,,,,,,,,,,,,,,,,,,,,,,
,,,,,,,,,,stimuli/images/PICTURE_378.png,LOSS,599614af004c4f0001cc8642,05/08/1952,2020-09-14_11h14.45.225,proactive3.2,2020.1.2,Win32,60,5f5adea66120081ea0f57a61,5f5f42353a42fc0322ba95a3,2,0,0,0,2,1,lobster,,,,,,,,,,,,,,,,,,,,,,,,,,,,,,,,,,,,,,,,,,,,,,,,,,,,,,,,,,,,,,,,,,,,,,,,,,,,,,,,,,,,,,,
,,,,,,,,,,stimuli/images/PICTURE_697.png,KILLER,599614af004c4f0001cc8642,05/08/1952,2020-09-14_11h14.45.225,proactive3.2,2020.1.2,Win32,60,5f5adea66120081ea0f57a61,5f5f42353a42fc0322ba95a3,2,0,1,1,4,1,peach,,,,,,,,,,,,,,,,,,,,,,,,,,,,,,,,,,,,,,,,,,,,,,,,,,,,,,,,,,,,,,,,,,,,,,,,,,,,,,,,,,,,,,,
,,,,,,,,,,stimuli/images/PICTURE_727.png,CELL,599614af004c4f0001cc8642,05/08/1952,2020-09-14_11h14.45.225,proactive3.2,2020.1.2,Win32,60,5f5adea66120081ea0f57a61,5f5f42353a42fc0322ba95a3,2,0,2,2,1,1,hose,,,,,,,,,,,,,,,,,,,,,,,,,,,,,,,,,,,,,,,,,,,,,,,,,,,,,,,,,,,,,,,,,,,,,,,,,,,,,,,,,,,,,,,
,,,,,,,,,,stimuli/images/PICTURE_658.png,DEVIL,599614af004c4f0001cc8642,05/08/1952,2020-09-14_11h14.45.225,proactive3.2,2020.1.2,Win32,60,5f5adea66120081ea0f57a61,5f5f42353a42fc0322ba95a3,2,0,3,3,3,1,crow,,,,,,,,,,,,,,,,,,,,,,,,,,,,,,,,,,,,,,,,,,,,,,,,,,,,,,,,,,,,,,,,,,,,,,,,,,,,,,,,,,,,,,,
,,CLEVER,12.57841,0,,,,,,stimuli/images/PICTURE_269.png,GENIUS,599614af004c4f0001cc8642,05/08/1952,2020-09-14_11h14.45.225,proactive3.2,2020.1.2,Win32,60,5f5adea66120081ea0f57a61,5f5f42353a42fc0322ba95a3,2,,,,,,chameleon,0,0,0,0,1,,,,,,,,,,,,,,,,,,,,,,,,,,,,,,,,,,,,,,,,,,,,,,,,,,,,,,,,,,,,,,,,,,,,,,,,,,,,,,,,,,
,,KILLER,6.49797,1,,,,,,stimuli/images/PICTURE_697.png,KILLER,599614af004c4f0001cc8642,05/08/1952,2020-09-14_11h14.45.225,proactive3.2,2020.1.2,Win32,60,5f5adea66120081ea0f57a61,5f5f42353a42fc0322ba95a3,2,,,,,,peach,0,1,1,4,1,,,,,,,,,,,,,,,,,,,,,,,,,,,,,,,,,,,,,,,,,,,,,,,,,,,,,,,,,,,,,,,,,,,,,,,,,,,,,,,,,,
,,?,3.980065,0,,,,,,stimuli/images/PICTURE_727.png,CELL,599614af004c4f0001cc8642,05/08/1952,2020-09-14_11h14.45.225,proactive3.2,2020.1.2,Win32,60,5f5adea66120081ea0f57a61,5f5f42353a42fc0322ba95a3,2,,,,,,hose,0,2,2,1,1,,,,,,,,,,,,,,,,,,,,,,,,,,,,,,,,,,,,,,,,,,,,,,,,,,,,,,,,,,,,,,,,,,,,,,,,,,,,,,,,,,
,,DEVIL,3.913525,1,,,,,,stimuli/images/PICTURE_658.png,DEVIL,599614af004c4f0001cc8642,05/08/1952,2020-09-14_11h14.45.225,proactive3.2,2020.1.2,Win32,60,5f5adea66120081ea0f57a61,5f5f42353a42fc0322ba95a3,2,,,,,,crow,0,3,3,3,1,,,,,,,,,,,,,,,,,,,,,,,,,,,,,,,,,,,,,,,,,,,,,,,,,,,,,,,,,,,,,,,,,,,,,,,,,,,,,,,,,,
,,CELL,4.815175,0,,,,,,stimuli/images/PICTURE_378.png,LOSS,599614af004c4f0001cc8642,05/08/1952,2020-09-14_11h14.45.225,proactive3.2,2020.1.2,Win32,60,5f5adea66120081ea0f57a61,5f5f42353a42fc0322ba95a3,2,,,,,,lobster,0,4,4,2,1,,,,,,,,,,,,,,,,,,,,,,,,,,,,,,,,,,,,,,,,,,,,,,,,,,,,,,,,,,,,,,,,,,,,,,,,,,,,,,,,,,
,,,,,,,,,,stimuli/images/PICTURE_208.png,MONTH,599614af004c4f0001cc8642,05/08/1952,2020-09-14_11h14.45.225,proactive3.2,2020.1.2,Win32,60,5f5adea66120081ea0f57a61,5f5f42353a42fc0322ba95a3,2,,,,,,microphone,,,,,,0,0,0,53,1,6,0,,,,,,,,,,,,,,,,,,,,,,,,,,,,,,,,,,,,,,,,,,,,,,,,,,,,,,,,,,,,,,,,,,,,,,,,,,,
,,,,,,,,,,stimuli/images/PICTURE_302.png,FAMILY,599614af004c4f0001cc8642,05/08/1952,2020-09-14_11h14.45.225,proactive3.2,2020.1.2,Win32,60,5f5adea66120081ea0f57a61,5f5f42353a42fc0322ba95a3,2,,,,,,taxi,,,,,,0,1,1,18,1,2,0,,,,,,,,,,,,,,,,,,,,,,,,,,,,,,,,,,,,,,,,,,,,,,,,,,,,,,,,,,,,,,,,,,,,,,,,,,,
,,,,,,,,,,stimuli/images/PICTURE_449.png,THING,599614af004c4f0001cc8642,05/08/1952,2020-09-14_11h14.45.225,proactive3.2,2020.1.2,Win32,60,5f5adea66120081ea0f57a61,5f5f42353a42fc0322ba95a3,2,,,,,,bench,,,,,,0,2,2,59,1,6,0,,,,,,,,,,,,,,,,,,,,,,,,,,,,,,,,,,,,,,,,,,,,,,,,,,,,,,,,,,,,,,,,,,,,,,,,,,,
,,,,,,,,,,stimuli/images/PICTURE_308.png,ESTATE,599614af004c4f0001cc8642,05/08/1952,2020-09-14_11h14.45.225,proactive3.2,2020.1.2,Win32,60,5f5adea66120081ea0f57a61,5f5f42353a42fc0322ba95a3,2,,,,,,dice,,,,,,0,3,3,46,1,5,0,,,,,,,,,,,,,,,,,,,,,,,,,,,,,,,,,,,,,,,,,,,,,,,,,,,,,,,,,,,,,,,,,,,,,,,,,,,
,,,,,,,,,,stimuli/images/PICTURE_314.png,GODS,599614af004c4f0001cc8642,05/08/1952,2020-09-14_11h14.45.225,proactive3.2,2020.1.2,Win32,60,5f5adea66120081ea0f57a61,5f5f42353a42fc0322ba95a3,2,,,,,,perfume,,,,,,0,4,4,11,1,2,0,,,,,,,,,,,,,,,,,,,,,,,,,,,,,,,,,,,,,,,,,,,,,,,,,,,,,,,,,,,,,,,,,,,,,,,,,,,
,,,,,,,,,,stimuli/images/PICTURE_488.png,STYLE,599614af004c4f0001cc8642,05/08/1952,2020-09-14_11h14.45.225,proactive3.2,2020.1.2,Win32,60,5f5adea66120081ea0f57a61,5f5f42353a42fc0322ba95a3,2,,,,,,sun,,,,,,0,5,5,33,1,4,0,,,,,,,,,,,,,,,,,,,,,,,,,,,,,,,,,,,,,,,,,,,,,,,,,,,,,,,,,,,,,,,,,,,,,,,,,,,
,,,,,,,,,,stimuli/images/PICTURE_509.png,PHOTO,599614af004c4f0001cc8642,05/08/1952,2020-09-14_11h14.45.225,proactive3.2,2020.1.2,Win32,60,5f5adea66120081ea0f57a61,5f5f42353a42fc0322ba95a3,2,,,,,,telephone,,,,,,0,6,6,21,1,3,0,,,,,,,,,,,,,,,,,,,,,,,,,,,,,,,,,,,,,,,,,,,,,,,,,,,,,,,,,,,,,,,,,,,,,,,,,,,
,,,,,,,,,,stimuli/images/PICTURE_708.png,PENNY,599614af004c4f0001cc8642,05/08/1952,2020-09-14_11h14.45.225,proactive3.2,2020.1.2,Win32,60,5f5adea66120081ea0f57a61,5f5f42353a42fc0322ba95a3,2,,,,,,monkey,,,,,,0,7,7,31,1,4,0,,,,,,,,,,,,,,,,,,,,,,,,,,,,,,,,,,,,,,,,,,,,,,,,,,,,,,,,,,,,,,,,,,,,,,,,,,,
,,,,,,,,,,stimuli/images/PICTURE_215.png,PLENTY,599614af004c4f0001cc8642,05/08/1952,2020-09-14_11h14.45.225,proactive3.2,2020.1.2,Win32,60,5f5adea66120081ea0f57a61,5f5f42353a42fc0322ba95a3,2,,,,,,boot,,,,,,0,8,8,37,1,4,0,,,,,,,,,,,,,,,,,,,,,,,,,,,,,,,,,,,,,,,,,,,,,,,,,,,,,,,,,,,,,,,,,,,,,,,,,,,
,,,,,,,,,,stimuli/images/PICTURE_255.png,AREA,599614af004c4f0001cc8642,05/08/1952,2020-09-14_11h14.45.225,proactive3.2,2020.1.2,Win32,60,5f5adea66120081ea0f57a61,5f5f42353a42fc0322ba95a3,2,,,,,,shovel,,,,,,0,9,9,22,1,3,0,,,,,,,,,,,,,,,,,,,,,,,,,,,,,,,,,,,,,,,,,,,,,,,,,,,,,,,,,,,,,,,,,,,,,,,,,,,
,,,,,,,,,,stimuli/images/PICTURE_151.png,GIRL,599614af004c4f0001cc8642,05/08/1952,2020-09-14_11h14.45.225,proactive3.2,2020.1.2,Win32,60,5f5adea66120081ea0f57a61,5f5f42353a42fc0322ba95a3,2,,,,,,tray,,,,,,0,10,10,19,1,2,0,,,,,,,,,,,,,,,,,,,,,,,,,,,,,,,,,,,,,,,,,,,,,,,,,,,,,,,,,,,,,,,,,,,,,,,,,,,
,,,,,,,,,,stimuli/images/PICTURE_467.png,DEMON,599614af004c4f0001cc8642,05/08/1952,2020-09-14_11h14.45.225,proactive3.2,2020.1.2,Win32,60,5f5adea66120081ea0f57a61,5f5f42353a42fc0322ba95a3,2,,,,,,peg,,,,,,0,11,11,23,1,3,0,,,,,,,,,,,,,,,,,,,,,,,,,,,,,,,,,,,,,,,,,,,,,,,,,,,,,,,,,,,,,,,,,,,,,,,,,,,
,,,,,,,,,,stimuli/images/PICTURE_491.png,ROOF,599614af004c4f0001cc8642,05/08/1952,2020-09-14_11h14.45.225,proactive3.2,2020.1.2,Win32,60,5f5adea66120081ea0f57a61,5f5f42353a42fc0322ba95a3,2,,,,,,rug,,,,,,0,12,12,24,1,3,0,,,,,,,,,,,,,,,,,,,,,,,,,,,,,,,,,,,,,,,,,,,,,,,,,,,,,,,,,,,,,,,,,,,,,,,,,,,
,,,,,,,,,,stimuli/images/PICTURE_308.png,KIND,599614af004c4f0001cc8642,05/08/1952,2020-09-14_11h14.45.225,proactive3.2,2020.1.2,Win32,60,5f5adea66120081ea0f57a61,5f5f42353a42fc0322ba95a3,2,,,,,,dice,,,,,,0,13,13,54,1,6,0,,,,,,,,,,,,,,,,,,,,,,,,,,,,,,,,,,,,,,,,,,,,,,,,,,,,,,,,,,,,,,,,,,,,,,,,,,,
,,,,,,,,,,stimuli/images/PICTURE_123.png,ADVICE,599614af004c4f0001cc8642,05/08/1952,2020-09-14_11h14.45.225,proactive3.2,2020.1.2,Win32,60,5f5adea66120081ea0f57a61,5f5f42353a42fc0322ba95a3,2,,,,,,dart,,,,,,0,14,14,50,1,6,0,,,,,,,,,,,,,,,,,,,,,,,,,,,,,,,,,,,,,,,,,,,,,,,,,,,,,,,,,,,,,,,,,,,,,,,,,,,
,,,,,,,,,,stimuli/images/PICTURE_314.png,SAKE,599614af004c4f0001cc8642,05/08/1952,2020-09-14_11h14.45.225,proactive3.2,2020.1.2,Win32,60,5f5adea66120081ea0f57a61,5f5f42353a42fc0322ba95a3,2,,,,,,perfume,,,,,,0,15,15,7,1,1,0,,,,,,,,,,,,,,,,,,,,,,,,,,,,,,,,,,,,,,,,,,,,,,,,,,,,,,,,,,,,,,,,,,,,,,,,,,,
,,,,,,,,,,stimuli/images/PICTURE_688.png,CASINO,599614af004c4f0001cc8642,05/08/1952,2020-09-14_11h14.45.225,proactive3.2,2020.1.2,Win32,60,5f5adea66120081ea0f57a61,5f5f42353a42fc0322ba95a3,2,,,,,,runner,,,,,,0,16,16,2,1,1,0,,,,,,,,,,,,,,,,,,,,,,,,,,,,,,,,,,,,,,,,,,,,,,,,,,,,,,,,,,,,,,,,,,,,,,,,,,,
,,,,,,,,,,stimuli/images/PICTURE_233.png,WOMEN,599614af004c4f0001cc8642,05/08/1952,2020-09-14_11h14.45.225,proactive3.2,2020.1.2,Win32,60,5f5adea66120081ea0f57a61,5f5f42353a42fc0322ba95a3,2,,,,,,salt,,,,,,0,17,17,38,1,4,0,,,,,,,,,,,,,,,,,,,,,,,,,,,,,,,,,,,,,,,,,,,,,,,,,,,,,,,,,,,,,,,,,,,,,,,,,,,
,,,,,,,,,,stimuli/images/PICTURE_248.png,DOZEN,599614af004c4f0001cc8642,05/08/1952,2020-09-14_11h14.45.225,proactive3.2,2020.1.2,Win32,60,5f5adea66120081ea0f57a61,5f5f42353a42fc0322ba95a3,2,,,,,,cart,,,,,,0,18,18,39,1,4,0,,,,,,,,,,,,,,,,,,,,,,,,,,,,,,,,,,,,,,,,,,,,,,,,,,,,,,,,,,,,,,,,,,,,,,,,,,,
,,,,,,,,,,stimuli/images/PICTURE_677.png,MILE,599614af004c4f0001cc8642,05/08/1952,2020-09-14_11h14.45.225,proactive3.2,2020.1.2,Win32,60,5f5adea66120081ea0f57a61,5f5f42353a42fc0322ba95a3,2,,,,,,map,,,,,,0,19,19,30,1,4,0,,,,,,,,,,,,,,,,,,,,,,,,,,,,,,,,,,,,,,,,,,,,,,,,,,,,,,,,,,,,,,,,,,,,,,,,,,,
,,,,,,,,,,stimuli/images/PICTURE_177.png,CARS,599614af004c4f0001cc8642,05/08/1952,2020-09-14_11h14.45.225,proactive3.2,2020.1.2,Win32,60,5f5adea66120081ea0f57a61,5f5f42353a42fc0322ba95a3,2,,,,,,mushroom,,,,,,0,20,20,35,1,4,0,,,,,,,,,,,,,,,,,,,,,,,,,,,,,,,,,,,,,,,,,,,,,,,,,,,,,,,,,,,,,,,,,,,,,,,,,,,
,,,,,,,,,,stimuli/images/PICTURE_469.png,ARTIST,599614af004c4f0001cc8642,05/08/1952,2020-09-14_11h14.45.225,proactive3.2,2020.1.2,Win32,60,5f5adea66120081ea0f57a61,5f5f42353a42fc0322ba95a3,2,,,,,,stool,,,,,,0,21,21,6,1,1,0,,,,,,,,,,,,,,,,,,,,,,,,,,,,,,,,,,,,,,,,,,,,,,,,,,,,,,,,,,,,,,,,,,,,,,,,,,,
,,,,,,,,,,stimuli/images/PICTURE_453.png,DUDE,599614af004c4f0001cc8642,05/08/1952,2020-09-14_11h14.45.225,proactive3.2,2020.1.2,Win32,60,5f5adea66120081ea0f57a61,5f5f42353a42fc0322ba95a3,2,,,,,,scissors,,,,,,0,22,22,27,1,3,0,,,,,,,,,,,,,,,,,,,,,,,,,,,,,,,,,,,,,,,,,,,,,,,,,,,,,,,,,,,,,,,,,,,,,,,,,,,
,,,,,,,,,,stimuli/images/PICTURE_469.png,LETTER,599614af004c4f0001cc8642,05/08/1952,2020-09-14_11h14.45.225,proactive3.2,2020.1.2,Win32,60,5f5adea66120081ea0f57a61,5f5f42353a42fc0322ba95a3,2,,,,,,stool,,,,,,0,23,23,42,1,5,0,,,,,,,,,,,,,,,,,,,,,,,,,,,,,,,,,,,,,,,,,,,,,,,,,,,,,,,,,,,,,,,,,,,,,,,,,,,
,,,,,,,,,,stimuli/images/PICTURE_233.png,IDEAS,599614af004c4f0001cc8642,05/08/1952,2020-09-14_11h14.45.225,proactive3.2,2020.1.2,Win32,60,5f5adea66120081ea0f57a61,5f5f42353a42fc0322ba95a3,2,,,,,,salt,,,,,,0,24,24,28,1,3,0,,,,,,,,,,,,,,,,,,,,,,,,,,,,,,,,,,,,,,,,,,,,,,,,,,,,,,,,,,,,,,,,,,,,,,,,,,,
,,,,,,,,,,stimuli/images/PICTURE_470.png,CASINO,599614af004c4f0001cc8642,05/08/1952,2020-09-14_11h14.45.225,proactive3.2,2020.1.2,Win32,60,5f5adea66120081ea0f57a61,5f5f42353a42fc0322ba95a3,2,,,,,,motorbike,,,,,,0,25,25,36,1,4,0,,,,,,,,,,,,,,,,,,,,,,,,,,,,,,,,,,,,,,,,,,,,,,,,,,,,,,,,,,,,,,,,,,,,,,,,,,,
,,,,,,,,,,stimuli/images/PICTURE_504.png,BODY,599614af004c4f0001cc8642,05/08/1952,2020-09-14_11h14.45.225,proactive3.2,2020.1.2,Win32,60,5f5adea66120081ea0f57a61,5f5f42353a42fc0322ba95a3,2,,,,,,wheel,,,,,,0,26,26,8,1,1,0,,,,,,,,,,,,,,,,,,,,,,,,,,,,,,,,,,,,,,,,,,,,,,,,,,,,,,,,,,,,,,,,,,,,,,,,,,,
,,,,,,,,,,stimuli/images/PICTURE_708.png,CLIENT,599614af004c4f0001cc8642,05/08/1952,2020-09-14_11h14.45.225,proactive3.2,2020.1.2,Win32,60,5f5adea66120081ea0f57a61,5f5f42353a42fc0322ba95a3,2,,,,,,monkey,,,,,,0,27,27,5,1,1,0,,,,,,,,,,,,,,,,,,,,,,,,,,,,,,,,,,,,,,,,,,,,,,,,,,,,,,,,,,,,,,,,,,,,,,,,,,,
,,,,,,,,,,stimuli/images/PICTURE_208.png,THING,599614af004c4f0001cc8642,05/08/1952,2020-09-14_11h14.45.225,proactive3.2,2020.1.2,Win32,60,5f5adea66120081ea0f57a61,5f5f42353a42fc0322ba95a3,2,,,,,,microphone,,,,,,0,28,28,47,1,5,0,,,,,,,,,,,,,,,,,,,,,,,,,,,,,,,,,,,,,,,,,,,,,,,,,,,,,,,,,,,,,,,,,,,,,,,,,,,
,,,,,,,,,,stimuli/images/PICTURE_203.png,ARTIST,599614af004c4f0001cc8642,05/08/1952,2020-09-14_11h14.45.225,proactive3.2,2020.1.2,Win32,60,5f5adea66120081ea0f57a61,5f5f42353a42fc0322ba95a3,2,,,,,,cap,,,,,,0,29,29,26,1,3,0,,,,,,,,,,,,,,,,,,,,,,,,,,,,,,,,,,,,,,,,,,,,,,,,,,,,,,,,,,,,,,,,,,,,,,,,,,,
,,,,,,,,,,stimuli/images/PICTURE_327.png,BEAUTY,599614af004c4f0001cc8642,05/08/1952,2020-09-14_11h14.45.225,proactive3.2,2020.1.2,Win32,60,5f5adea66120081ea0f57a61,5f5f42353a42fc0322ba95a3,2,,,,,,helmet,,,,,,0,30,30,48,1,5,0,,,,,,,,,,,,,,,,,,,,,,,,,,,,,,,,,,,,,,,,,,,,,,,,,,,,,,,,,,,,,,,,,,,,,,,,,,,
,,,,,,,,,,stimuli/images/PICTURE_708.png,YARD,599614af004c4f0001cc8642,05/08/1952,2020-09-14_11h14.45.225,proactive3.2,2020.1.2,Win32,60,5f5adea66120081ea0f57a61,5f5f42353a42fc0322ba95a3,2,,,,,,monkey,,,,,,0,31,31,29,1,3,0,,,,,,,,,,,,,,,,,,,,,,,,,,,,,,,,,,,,,,,,,,,,,,,,,,,,,,,,,,,,,,,,,,,,,,,,,,,
,,,,,,,,,,stimuli/images/PICTURE_208.png,LOTS,599614af004c4f0001cc8642,05/08/1952,2020-09-14_11h14.45.225,proactive3.2,2020.1.2,Win32,60,5f5adea66120081ea0f57a61,5f5f42353a42fc0322ba95a3,2,,,,,,microphone,,,,,,0,32,32,10,1,2,0,,,,,,,,,,,,,,,,,,,,,,,,,,,,,,,,,,,,,,,,,,,,,,,,,,,,,,,,,,,,,,,,,,,,,,,,,,,
,,,,,,,,,,stimuli/images/PICTURE_285.png,ADVICE,599614af004c4f0001cc8642,05/08/1952,2020-09-14_11h14.45.225,proactive3.2,2020.1.2,Win32,60,5f5adea66120081ea0f57a61,5f5f42353a42fc0322ba95a3,2,,,,,,carrot,,,,,,0,33,33,12,1,2,0,,,,,,,,,,,,,,,,,,,,,,,,,,,,,,,,,,,,,,,,,,,,,,,,,,,,,,,,,,,,,,,,,,,,,,,,,,,
,,,,,,,,,,stimuli/images/PICTURE_32.png,JUNGLE,599614af004c4f0001cc8642,05/08/1952,2020-09-14_11h14.45.225,proactive3.2,2020.1.2,Win32,60,5f5adea66120081ea0f57a61,5f5f42353a42fc0322ba95a3,2,,,,,,crown,,,,,,0,34,34,45,1,5,0,,,,,,,,,,,,,,,,,,,,,,,,,,,,,,,,,,,,,,,,,,,,,,,,,,,,,,,,,,,,,,,,,,,,,,,,,,,
,,,,,,,,,,stimuli/images/PICTURE_654.png,VALLEY,599614af004c4f0001cc8642,05/08/1952,2020-09-14_11h14.45.225,proactive3.2,2020.1.2,Win32,60,5f5adea66120081ea0f57a61,5f5f42353a42fc0322ba95a3,2,,,,,,pencil,,,,,,0,35,35,1,1,1,0,,,,,,,,,,,,,,,,,,,,,,,,,,,,,,,,,,,,,,,,,,,,,,,,,,,,,,,,,,,,,,,,,,,,,,,,,,,
,,,,,,,,,,stimuli/images/PICTURE_160.png,LEADER,599614af004c4f0001cc8642,05/08/1952,2020-09-14_11h14.45.225,proactive3.2,2020.1.2,Win32,60,5f5adea66120081ea0f57a61,5f5f42353a42fc0322ba95a3,2,,,,,,wheelbarrow,,,,,,0,36,36,3,1,1,0,,,,,,,,,,,,,,,,,,,,,,,,,,,,,,,,,,,,,,,,,,,,,,,,,,,,,,,,,,,,,,,,,,,,,,,,,,,
,,,,,,,,,,stimuli/images/PICTURE_160.png,FEET,599614af004c4f0001cc8642,05/08/1952,2020-09-14_11h14.45.225,proactive3.2,2020.1.2,Win32,60,5f5adea66120081ea0f57a61,5f5f42353a42fc0322ba95a3,2,,,,,,wheelbarrow,,,,,,0,37,37,58,1,6,0,,,,,,,,,,,,,,,,,,,,,,,,,,,,,,,,,,,,,,,,,,,,,,,,,,,,,,,,,,,,,,,,,,,,,,,,,,,
,,,,,,,,,,stimuli/images/PICTURE_453.png,PLENTY,599614af004c4f0001cc8642,05/08/1952,2020-09-14_11h14.45.225,proactive3.2,2020.1.2,Win32,60,5f5adea66120081ea0f57a61,5f5f42353a42fc0322ba95a3,2,,,,,,scissors,,,,,,0,38,38,56,1,6,0,,,,,,,,,,,,,,,,,,,,,,,,,,,,,,,,,,,,,,,,,,,,,,,,,,,,,,,,,,,,,,,,,,,,,,,,,,,
,,,,,,,,,,stimuli/images/PICTURE_348.png,SPEECH,599614af004c4f0001cc8642,05/08/1952,2020-09-14_11h14.45.225,proactive3.2,2020.1.2,Win32,60,5f5adea66120081ea0f57a61,5f5f42353a42fc0322ba95a3,2,,,,,,pepper,,,,,,0,39,39,20,1,3,0,,,,,,,,,,,,,,,,,,,,,,,,,,,,,,,,,,,,,,,,,,,,,,,,,,,,,,,,,,,,,,,,,,,,,,,,,,,
,,,,,,,,,,stimuli/images/PICTURE_380.png,DEATH,599614af004c4f0001cc8642,05/08/1952,2020-09-14_11h14.45.225,proactive3.2,2020.1.2,Win32,60,5f5adea66120081ea0f57a61,5f5f42353a42fc0322ba95a3,2,,,,,,gorilla,,,,,,0,40,40,49,1,5,0,,,,,,,,,,,,,,,,,,,,,,,,,,,,,,,,,,,,,,,,,,,,,,,,,,,,,,,,,,,,,,,,,,,,,,,,,,,
,,,,,,,,,,stimuli/images/PICTURE_667.png,PLENTY,599614af004c4f0001cc8642,05/08/1952,2020-09-14_11h14.45.225,proactive3.2,2020.1.2,Win32,60,5f5adea66120081ea0f57a61,5f5f42353a42fc0322ba95a3,2,,,,,,daisy,,,,,,0,41,41,41,1,5,0,,,,,,,,,,,,,,,,,,,,,,,,,,,,,,,,,,,,,,,,,,,,,,,,,,,,,,,,,,,,,,,,,,,,,,,,,,,
,,,,,,,,,,stimuli/images/PICTURE_667.png,BATH,599614af004c4f0001cc8642,05/08/1952,2020-09-14_11h14.45.225,proactive3.2,2020.1.2,Win32,60,5f5adea66120081ea0f57a61,5f5f42353a42fc0322ba95a3,2,,,,,,daisy,,,,,,0,42,42,4,1,1,0,,,,,,,,,,,,,,,,,,,,,,,,,,,,,,,,,,,,,,,,,,,,,,,,,,,,,,,,,,,,,,,,,,,,,,,,,,,
,,,,,,,,,,stimuli/images/PICTURE_339.png,PLENTY,599614af004c4f0001cc8642,05/08/1952,2020-09-14_11h14.45.225,proactive3.2,2020.1.2,Win32,60,5f5adea66120081ea0f57a61,5f5f42353a42fc0322ba95a3,2,,,,,,backpack,,,,,,0,43,43,0,1,1,0,,,,,,,,,,,,,,,,,,,,,,,,,,,,,,,,,,,,,,,,,,,,,,,,,,,,,,,,,,,,,,,,,,,,,,,,,,,
,,,,,,,,,,stimuli/images/PICTURE_68.png,MILE,599614af004c4f0001cc8642,05/08/1952,2020-09-14_11h14.45.225,proactive3.2,2020.1.2,Win32,60,5f5adea66120081ea0f57a61,5f5f42353a42fc0322ba95a3,2,,,,,,candle,,,,,,0,44,44,44,1,5,0,,,,,,,,,,,,,,,,,,,,,,,,,,,,,,,,,,,,,,,,,,,,,,,,,,,,,,,,,,,,,,,,,,,,,,,,,,,
,,,,,,,,,,stimuli/images/PICTURE_311.png,BEAUTY,599614af004c4f0001cc8642,05/08/1952,2020-09-14_11h14.45.225,proactive3.2,2020.1.2,Win32,60,5f5adea66120081ea0f57a61,5f5f42353a42fc0322ba95a3,2,,,,,,razor,,,,,,0,45,45,13,1,2,0,,,,,,,,,,,,,,,,,,,,,,,,,,,,,,,,,,,,,,,,,,,,,,,,,,,,,,,,,,,,,,,,,,,,,,,,,,,
,,,,,,,,,,stimuli/images/PICTURE_95.png,STYLE,599614af004c4f0001cc8642,05/08/1952,2020-09-14_11h14.45.225,proactive3.2,2020.1.2,Win32,60,5f5adea66120081ea0f57a61,5f5f42353a42fc0322ba95a3,2,,,,,,suitcase,,,,,,0,46,46,25,1,3,0,,,,,,,,,,,,,,,,,,,,,,,,,,,,,,,,,,,,,,,,,,,,,,,,,,,,,,,,,,,,,,,,,,,,,,,,,,,
,,,,,,,,,,stimuli/images/PICTURE_85.png,THING,599614af004c4f0001cc8642,05/08/1952,2020-09-14_11h14.45.225,proactive3.2,2020.1.2,Win32,60,5f5adea66120081ea0f57a61,5f5f42353a42fc0322ba95a3,2,,,,,,diamond,,,,,,0,47,47,15,1,2,0,,,,,,,,,,,,,,,,,,,,,,,,,,,,,,,,,,,,,,,,,,,,,,,,,,,,,,,,,,,,,,,,,,,,,,,,,,,
,,,,,,,,,,stimuli/images/PICTURE_380.png,PHOTO,599614af004c4f0001cc8642,05/08/1952,2020-09-14_11h14.45.225,proactive3.2,2020.1.2,Win32,60,5f5adea66120081ea0f57a61,5f5f42353a42fc0322ba95a3,2,,,,,,gorilla,,,,,,0,48,48,52,1,6,0,,,,,,,,,,,,,,,,,,,,,,,,,,,,,,,,,,,,,,,,,,,,,,,,,,,,,,,,,,,,,,,,,,,,,,,,,,,
,,,,,,,,,,stimuli/images/PICTURE_311.png,FRIEND,599614af004c4f0001cc8642,05/08/1952,2020-09-14_11h14.45.225,proactive3.2,2020.1.2,Win32,60,5f5adea66120081ea0f57a61,5f5f42353a42fc0322ba95a3,2,,,,,,razor,,,,,,0,49,49,34,1,4,0,,,,,,,,,,,,,,,,,,,,,,,,,,,,,,,,,,,,,,,,,,,,,,,,,,,,,,,,,,,,,,,,,,,,,,,,,,,
,,,,,,,,,,stimuli/images/PICTURE_744.png,SYSTEM,599614af004c4f0001cc8642,05/08/1952,2020-09-14_11h14.45.225,proactive3.2,2020.1.2,Win32,60,5f5adea66120081ea0f57a61,5f5f42353a42fc0322ba95a3,2,,,,,,ring,,,,,,0,50,50,43,1,5,0,,,,,,,,,,,,,,,,,,,,,,,,,,,,,,,,,,,,,,,,,,,,,,,,,,,,,,,,,,,,,,,,,,,,,,,,,,,
,,,,,,,,,,stimuli/images/PICTURE_692.png,MONTH,599614af004c4f0001cc8642,05/08/1952,2020-09-14_11h14.45.225,proactive3.2,2020.1.2,Win32,60,5f5adea66120081ea0f57a61,5f5f42353a42fc0322ba95a3,2,,,,,,cherry,,,,,,0,51,51,16,1,2,0,,,,,,,,,,,,,,,,,,,,,,,,,,,,,,,,,,,,,,,,,,,,,,,,,,,,,,,,,,,,,,,,,,,,,,,,,,,
,,,,,,,,,,stimuli/images/PICTURE_356.png,DANGER,599614af004c4f0001cc8642,05/08/1952,2020-09-14_11h14.45.225,proactive3.2,2020.1.2,Win32,60,5f5adea66120081ea0f57a61,5f5f42353a42fc0322ba95a3,2,,,,,,pawn,,,,,,0,52,52,55,1,6,0,,,,,,,,,,,,,,,,,,,,,,,,,,,,,,,,,,,,,,,,,,,,,,,,,,,,,,,,,,,,,,,,,,,,,,,,,,,
,,,,,,,,,,stimuli/images/PICTURE_744.png,SAKE,599614af004c4f0001cc8642,05/08/1952,2020-09-14_11h14.45.225,proactive3.2,2020.1.2,Win32,60,5f5adea66120081ea0f57a61,5f5f42353a42fc0322ba95a3,2,,,,,,ring,,,,,,0,53,53,17,1,2,0,,,,,,,,,,,,,,,,,,,,,,,,,,,,,,,,,,,,,,,,,,,,,,,,,,,,,,,,,,,,,,,,,,,,,,,,,,,
,,,,,,,,,,stimuli/images/PICTURE_675.png,WEAPON,599614af004c4f0001cc8642,05/08/1952,2020-09-14_11h14.45.225,proactive3.2,2020.1.2,Win32,60,5f5adea66120081ea0f57a61,5f5f42353a42fc0322ba95a3,2,,,,,,windmill,,,,,,0,54,54,32,1,4,0,,,,,,,,,,,,,,,,,,,,,,,,,,,,,,,,,,,,,,,,,,,,,,,,,,,,,,,,,,,,,,,,,,,,,,,,,,,
,,,,,,,,,,stimuli/images/PICTURE_123.png,ADVICE,599614af004c4f0001cc8642,05/08/1952,2020-09-14_11h14.45.225,proactive3.2,2020.1.2,Win32,60,5f5adea66120081ea0f57a61,5f5f42353a42fc0322ba95a3,2,,,,,,dart,,,,,,0,55,55,40,1,5,0,,,,,,,,,,,,,,,,,,,,,,,,,,,,,,,,,,,,,,,,,,,,,,,,,,,,,,,,,,,,,,,,,,,,,,,,,,,
,,,,,,,,,,stimuli/images/PICTURE_147.png,MOMENT,599614af004c4f0001cc8642,05/08/1952,2020-09-14_11h14.45.225,proactive3.2,2020.1.2,Win32,60,5f5adea66120081ea0f57a61,5f5f42353a42fc0322ba95a3,2,,,,,,hanger,,,,,,0,56,56,51,1,6,0,,,,,,,,,,,,,,,,,,,,,,,,,,,,,,,,,,,,,,,,,,,,,,,,,,,,,,,,,,,,,,,,,,,,,,,,,,,
,,,,,,,,,,stimuli/images/PICTURE_487.png,FLIGHT,599614af004c4f0001cc8642,05/08/1952,2020-09-14_11h14.45.225,proactive3.2,2020.1.2,Win32,60,5f5adea66120081ea0f57a61,5f5f42353a42fc0322ba95a3,2,,,,,,basket,,,,,,0,57,57,9,1,1,0,,,,,,,,,,,,,,,,,,,,,,,,,,,,,,,,,,,,,,,,,,,,,,,,,,,,,,,,,,,,,,,,,,,,,,,,,,,
,,,,,,,,,,stimuli/images/PICTURE_688.png,WOMEN,599614af004c4f0001cc8642,05/08/1952,2020-09-14_11h14.45.225,proactive3.2,2020.1.2,Win32,60,5f5adea66120081ea0f57a61,5f5f42353a42fc0322ba95a3,2,,,,,,runner,,,,,,0,58,58,14,1,2,0,,,,,,,,,,,,,,,,,,,,,,,,,,,,,,,,,,,,,,,,,,,,,,,,,,,,,,,,,,,,,,,,,,,,,,,,,,,
,,?,0.0015,0,,,,,,stimuli/images/PICTURE_203.png,ARTIST,599614af004c4f0001cc8642,05/08/1952,2020-09-14_11h14.45.225,proactive3.2,2020.1.2,Win32,60,5f5adea66120081ea0f57a61,5f5f42353a42fc0322ba95a3,2,,,,,,cap,,,,,,,,,,,3,0,0,0,0,26,1,,,,,,,,,,,,,,,,,,,,,,,,,,,,,,,,,,,,,,,,,,,,,,,,,,,,,,,,,,,,,,,,,,,,,,
,,WOMEN,3.814175,1,,,,,,stimuli/images/PICTURE_688.png,WOMEN,599614af004c4f0001cc8642,05/08/1952,2020-09-14_11h14.45.225,proactive3.2,2020.1.2,Win32,60,5f5adea66120081ea0f57a61,5f5f42353a42fc0322ba95a3,2,,,,,,runner,,,,,,,,,,,2,0,0,1,1,14,1,,,,,,,,,,,,,,,,,,,,,,,,,,,,,,,,,,,,,,,,,,,,,,,,,,,,,,,,,,,,,,,,,,,,,,
,,?,0.00103,0,,,,,,stimuli/images/PICTURE_95.png,STYLE,599614af004c4f0001cc8642,05/08/1952,2020-09-14_11h14.45.225,proactive3.2,2020.1.2,Win32,60,5f5adea66120081ea0f57a61,5f5f42353a42fc0322ba95a3,2,,,,,,suitcase,,,,,,,,,,,3,0,0,2,2,25,1,,,,,,,,,,,,,,,,,,,,,,,,,,,,,,,,,,,,,,,,,,,,,,,,,,,,,,,,,,,,,,,,,,,,,,
,,?,0.00092,0,,,,,,stimuli/images/PICTURE_654.png,VALLEY,599614af004c4f0001cc8642,05/08/1952,2020-09-14_11h14.45.225,proactive3.2,2020.1.2,Win32,60,5f5adea66120081ea0f57a61,5f5f42353a42fc0322ba95a3,2,,,,,,pencil,,,,,,,,,,,1,0,0,3,3,1,1,,,,,,,,,,,,,,,,,,,,,,,,,,,,,,,,,,,,,,,,,,,,,,,,,,,,,,,,,,,,,,,,,,,,,,
,,?,0.00093,0,,,,,,stimuli/images/PICTURE_314.png,SAKE,599614af004c4f0001cc8642,05/08/1952,2020-09-14_11h14.45.225,proactive3.2,2020.1.2,Win32,60,5f5adea66120081ea0f57a61,5f5f42353a42fc0322ba95a3,2,,,,,,perfume,,,,,,,,,,,1,0,0,4,4,7,1,,,,,,,,,,,,,,,,,,,,,,,,,,,,,,,,,,,,,,,,,,,,,,,,,,,,,,,,,,,,,,,,,,,,,,
,,?,0.000865,0,,,,,,stimuli/images/PICTURE_449.png,THING,599614af004c4f0001cc8642,05/08/1952,2020-09-14_11h14.45.225,proactive3.2,2020.1.2,Win32,60,5f5adea66120081ea0f57a61,5f5f42353a42fc0322ba95a3,2,,,,,,bench,,,,,,,,,,,6,0,0,5,5,59,1,,,,,,,,,,,,,,,,,,,,,,,,,,,,,,,,,,,,,,,,,,,,,,,,,,,,,,,,,,,,,,,,,,,,,,
,,?,0.00088,0,,,,,,stimuli/images/PICTURE_708.png,CLIENT,599614af004c4f0001cc8642,05/08/1952,2020-09-14_11h14.45.225,proactive3.2,2020.1.2,Win32,60,5f5adea66120081ea0f57a61,5f5f42353a42fc0322ba95a3,2,,,,,,monkey,,,,,,,,,,,1,0,0,6,6,5,1,,,,,,,,,,,,,,,,,,,,,,,,,,,,,,,,,,,,,,,,,,,,,,,,,,,,,,,,,,,,,,,,,,,,,,
,,?,0.000905,0,,,,,,stimuli/images/PICTURE_233.png,IDEAS,599614af004c4f0001cc8642,05/08/1952,2020-09-14_11h14.45.225,proactive3.2,2020.1.2,Win32,60,5f5adea66120081ea0f57a61,5f5f42353a42fc0322ba95a3,2,,,,,,salt,,,,,,,,,,,3,0,0,7,7,28,1,,,,,,,,,,,,,,,,,,,,,,,,,,,,,,,,,,,,,,,,,,,,,,,,,,,,,,,,,,,,,,,,,,,,,,
,,?,0.000895,0,,,,,,stimuli/images/PICTURE_215.png,PLENTY,599614af004c4f0001cc8642,05/08/1952,2020-09-14_11h14.45.225,proactive3.2,2020.1.2,Win32,60,5f5adea66120081ea0f57a61,5f5f42353a42fc0322ba95a3,2,,,,,,boot,,,,,,,,,,,4,0,0,8,8,37,1,,,,,,,,,,,,,,,,,,,,,,,,,,,,,,,,,,,,,,,,,,,,,,,,,,,,,,,,,,,,,,,,,,,,,,
,,?,0.001415,0,,,,,,stimuli/images/PICTURE_380.png,PHOTO,599614af004c4f0001cc8642,05/08/1952,2020-09-14_11h14.45.225,proactive3.2,2020.1.2,Win32,60,5f5adea66120081ea0f57a61,5f5f42353a42fc0322ba95a3,2,,,,,,gorilla,,,,,,,,,,,6,0,0,9,9,52,1,,,,,,,,,,,,,,,,,,,,,,,,,,,,,,,,,,,,,,,,,,,,,,,,,,,,,,,,,,,,,,,,,,,,,,
,,?,0.00091,0,,,,,,stimuli/images/PICTURE_123.png,ADVICE,599614af004c4f0001cc8642,05/08/1952,2020-09-14_11h14.45.225,proactive3.2,2020.1.2,Win32,60,5f5adea66120081ea0f57a61,5f5f42353a42fc0322ba95a3,2,,,,,,dart,,,,,,,,,,,6,0,0,10,10,50,1,,,,,,,,,,,,,,,,,,,,,,,,,,,,,,,,,,,,,,,,,,,,,,,,,,,,,,,,,,,,,,,,,,,,,,
,,?,0.001055,0,,,,,,stimuli/images/PICTURE_248.png,DOZEN,599614af004c4f0001cc8642,05/08/1952,2020-09-14_11h14.45.225,proactive3.2,2020.1.2,Win32,60,5f5adea66120081ea0f57a61,5f5f42353a42fc0322ba95a3,2,,,,,,cart,,,,,,,,,,,4,0,0,11,11,39,1,,,,,,,,,,,,,,,,,,,,,,,,,,,,,,,,,,,,,,,,,,,,,,,,,,,,,,,,,,,,,,,,,,,,,,
,,?,0.00114,0,,,,,,stimuli/images/PICTURE_147.png,MOMENT,599614af004c4f0001cc8642,05/08/1952,2020-09-14_11h14.45.225,proactive3.2,2020.1.2,Win32,60,5f5adea66120081ea0f57a61,5f5f42353a42fc0322ba95a3,2,,,,,,hanger,,,,,,,,,,,6,0,0,12,12,51,1,,,,,,,,,,,,,,,,,,,,,,,,,,,,,,,,,,,,,,,,,,,,,,,,,,,,,,,,,,,,,,,,,,,,,,
,,?,0.000945,0,,,,,,stimuli/images/PICTURE_487.png,FLIGHT,599614af004c4f0001cc8642,05/08/1952,2020-09-14_11h14.45.225,proactive3.2,2020.1.2,Win32,60,5f5adea66120081ea0f57a61,5f5f42353a42fc0322ba95a3,2,,,,,,basket,,,,,,,,,,,1,0,0,13,13,9,1,,,,,,,,,,,,,,,,,,,,,,,,,,,,,,,,,,,,,,,,,,,,,,,,,,,,,,,,,,,,,,,,,,,,,,
,,?,0.00238,0,,,,,,stimuli/images/PICTURE_123.png,ADVICE,599614af004c4f0001cc8642,05/08/1952,2020-09-14_11h14.45.225,proactive3.2,2020.1.2,Win32,60,5f5adea66120081ea0f57a61,5f5f42353a42fc0322ba95a3,2,,,,,,dart,,,,,,,,,,,5,0,0,14,14,40,1,,,,,,,,,,,,,,,,,,,,,,,,,,,,,,,,,,,,,,,,,,,,,,,,,,,,,,,,,,,,,,,,,,,,,,
,,?,0.001215,0,,,,,,stimuli/images/PICTURE_667.png,BATH,599614af004c4f0001cc8642,05/08/1952,2020-09-14_11h14.45.225,proactive3.2,2020.1.2,Win32,60,5f5adea66120081ea0f57a61,5f5f42353a42fc0322ba95a3,2,,,,,,daisy,,,,,,,,,,,1,0,0,15,15,4,1,,,,,,,,,,,,,,,,,,,,,,,,,,,,,,,,,,,,,,,,,,,,,,,,,,,,,,,,,,,,,,,,,,,,,,
,,?,0.00091,0,,,,,,stimuli/images/PICTURE_688.png,CASINO,599614af004c4f0001cc8642,05/08/1952,2020-09-14_11h14.45.225,proactive3.2,2020.1.2,Win32,60,5f5adea66120081ea0f57a61,5f5f42353a42fc0322ba95a3,2,,,,,,runner,,,,,,,,,,,1,0,0,16,16,2,1,,,,,,,,,,,,,,,,,,,,,,,,,,,,,,,,,,,,,,,,,,,,,,,,,,,,,,,,,,,,,,,,,,,,,,
,,?,0.001115,0,,,,,,stimuli/images/PICTURE_160.png,FEET,599614af004c4f0001cc8642,05/08/1952,2020-09-14_11h14.45.225,proactive3.2,2020.1.2,Win32,60,5f5adea66120081ea0f57a61,5f5f42353a42fc0322ba95a3,2,,,,,,wheelbarrow,,,,,,,,,,,6,0,0,17,17,58,1,,,,,,,,,,,,,,,,,,,,,,,,,,,,,,,,,,,,,,,,,,,,,,,,,,,,,,,,,,,,,,,,,,,,,,
,,FAMILY,4.995405,1,,,,,,stimuli/images/PICTURE_302.png,FAMILY,599614af004c4f0001cc8642,05/08/1952,2020-09-14_11h14.45.225,proactive3.2,2020.1.2,Win32,60,5f5adea66120081ea0f57a61,5f5f42353a42fc0322ba95a3,2,,,,,,taxi,,,,,,,,,,,2,0,0,18,18,18,1,,,,,,,,,,,,,,,,,,,,,,,,,,,,,,,,,,,,,,,,,,,,,,,,,,,,,,,,,,,,,,,,,,,,,,
,,?,0.002355,0,,,,,,stimuli/images/PICTURE_356.png,DANGER,599614af004c4f0001cc8642,05/08/1952,2020-09-14_11h14.45.225,proactive3.2,2020.1.2,Win32,60,5f5adea66120081ea0f57a61,5f5f42353a42fc0322ba95a3,2,,,,,,pawn,,,,,,,,,,,6,0,0,19,19,55,1,,,,,,,,,,,,,,,,,,,,,,,,,,,,,,,,,,,,,,,,,,,,,,,,,,,,,,,,,,,,,,,,,,,,,,
,,?,0.00167,0,,,,,,stimuli/images/PICTURE_708.png,PENNY,599614af004c4f0001cc8642,05/08/1952,2020-09-14_11h14.45.225,proactive3.2,2020.1.2,Win32,60,5f5adea66120081ea0f57a61,5f5f42353a42fc0322ba95a3,2,,,,,,monkey,,,,,,,,,,,4,0,0,20,20,31,1,,,,,,,,,,,,,,,,,,,,,,,,,,,,,,,,,,,,,,,,,,,,,,,,,,,,,,,,,,,,,,,,,,,,,,
,,?,0.00157,0,,,,,,stimuli/images/PICTURE_469.png,LETTER,599614af004c4f0001cc8642,05/08/1952,2020-09-14_11h14.45.225,proactive3.2,2020.1.2,Win32,60,5f5adea66120081ea0f57a61,5f5f42353a42fc0322ba95a3,2,,,,,,stool,,,,,,,,,,,5,0,0,21,21,42,1,,,,,,,,,,,,,,,,,,,,,,,,,,,,,,,,,,,,,,,,,,,,,,,,,,,,,,,,,,,,,,,,,,,,,,
,,?,0.001045,0,,,,,,stimuli/images/PICTURE_467.png,DEMON,599614af004c4f0001cc8642,05/08/1952,2020-09-14_11h14.45.225,proactive3.2,2020.1.2,Win32,60,5f5adea66120081ea0f57a61,5f5f42353a42fc0322ba95a3,2,,,,,,peg,,,,,,,,,,,3,0,0,22,22,23,1,,,,,,,,,,,,,,,,,,,,,,,,,,,,,,,,,,,,,,,,,,,,,,,,,,,,,,,,,,,,,,,,,,,,,,
,,?,0.000955,0,,,,,,stimuli/images/PICTURE_488.png,STYLE,599614af004c4f0001cc8642,05/08/1952,2020-09-14_11h14.45.225,proactive3.2,2020.1.2,Win32,60,5f5adea66120081ea0f57a61,5f5f42353a42fc0322ba95a3,2,,,,,,sun,,,,,,,,,,,4,0,0,23,23,33,1,,,,,,,,,,,,,,,,,,,,,,,,,,,,,,,,,,,,,,,,,,,,,,,,,,,,,,,,,,,,,,,,,,,,,,
,,?,4.49464,0,,,,,,stimuli/images/PICTURE_151.png,GIRL,599614af004c4f0001cc8642,05/08/1952,2020-09-14_11h14.45.225,proactive3.2,2020.1.2,Win32,60,5f5adea66120081ea0f57a61,5f5f42353a42fc0322ba95a3,2,,,,,,tray,,,,,,,,,,,2,0,0,24,24,19,1,,,,,,,,,,,,,,,,,,,,,,,,,,,,,,,,,,,,,,,,,,,,,,,,,,,,,,,,,,,,,,,,,,,,,,
,,?,0.003055,0,,,,,,stimuli/images/PICTURE_177.png,CARS,599614af004c4f0001cc8642,05/08/1952,2020-09-14_11h14.45.225,proactive3.2,2020.1.2,Win32,60,5f5adea66120081ea0f57a61,5f5f42353a42fc0322ba95a3,2,,,,,,mushroom,,,,,,,,,,,4,0,0,25,25,35,1,,,,,,,,,,,,,,,,,,,,,,,,,,,,,,,,,,,,,,,,,,,,,,,,,,,,,,,,,,,,,,,,,,,,,,
,,?,0.001895,0,,,,,,stimuli/images/PICTURE_453.png,PLENTY,599614af004c4f0001cc8642,05/08/1952,2020-09-14_11h14.45.225,proactive3.2,2020.1.2,Win32,60,5f5adea66120081ea0f57a61,5f5f42353a42fc0322ba95a3,2,,,,,,scissors,,,,,,,,,,,6,0,0,26,26,56,1,,,,,,,,,,,,,,,,,,,,,,,,,,,,,,,,,,,,,,,,,,,,,,,,,,,,,,,,,,,,,,,,,,,,,,
,,?,0.001315,0,,,,,,stimuli/images/PICTURE_68.png,MILE,599614af004c4f0001cc8642,05/08/1952,2020-09-14_11h14.45.225,proactive3.2,2020.1.2,Win32,60,5f5adea66120081ea0f57a61,5f5f42353a42fc0322ba95a3,2,,,,,,candle,,,,,,,,,,,5,0,0,27,27,44,1,,,,,,,,,,,,,,,,,,,,,,,,,,,,,,,,,,,,,,,,,,,,,,,,,,,,,,,,,,,,,,,,,,,,,,
,,?,0.00116,0,,,,,,stimuli/images/PICTURE_311.png,FRIEND,599614af004c4f0001cc8642,05/08/1952,2020-09-14_11h14.45.225,proactive3.2,2020.1.2,Win32,60,5f5adea66120081ea0f57a61,5f5f42353a42fc0322ba95a3,2,,,,,,razor,,,,,,,,,,,4,0,0,28,28,34,1,,,,,,,,,,,,,,,,,,,,,,,,,,,,,,,,,,,,,,,,,,,,,,,,,,,,,,,,,,,,,,,,,,,,,,
,,?,0.001185,0,,,,,,stimuli/images/PICTURE_708.png,YARD,599614af004c4f0001cc8642,05/08/1952,2020-09-14_11h14.45.225,proactive3.2,2020.1.2,Win32,60,5f5adea66120081ea0f57a61,5f5f42353a42fc0322ba95a3,2,,,,,,monkey,,,,,,,,,,,3,0,0,29,29,29,1,,,,,,,,,,,,,,,,,,,,,,,,,,,,,,,,,,,,,,,,,,,,,,,,,,,,,,,,,,,,,,,,,,,,,,
,,?,0.00089,0,,,,,,stimuli/images/PICTURE_491.png,WRITER,599614af004c4f0001cc8642,05/08/1952,2020-09-14_11h14.45.225,proactive3.2,2020.1.2,Win32,60,5f5adea66120081ea0f57a61,5f5f42353a42fc0322ba95a3,2,,,,,,rug,,,,,,,,,,,6,0,0,30,30,57,1,,,,,,,,,,,,,,,,,,,,,,,,,,,,,,,,,,,,,,,,,,,,,,,,,,,,,,,,,,,,,,,,,,,,,,
,,?,0.001105,0,,,,,,stimuli/images/PICTURE_233.png,WOMEN,599614af004c4f0001cc8642,05/08/1952,2020-09-14_11h14.45.225,proactive3.2,2020.1.2,Win32,60,5f5adea66120081ea0f57a61,5f5f42353a42fc0322ba95a3,2,,,,,,salt,,,,,,,,,,,4,0,0,31,31,38,1,,,,,,,,,,,,,,,,,,,,,,,,,,,,,,,,,,,,,,,,,,,,,,,,,,,,,,,,,,,,,,,,,,,,,,
,,?,0.00097,0,,,,,,stimuli/images/PICTURE_504.png,BODY,599614af004c4f0001cc8642,05/08/1952,2020-09-14_11h14.45.225,proactive3.2,2020.1.2,Win32,60,5f5adea66120081ea0f57a61,5f5f42353a42fc0322ba95a3,2,,,,,,wheel,,,,,,,,,,,1,0,0,32,32,8,1,,,,,,,,,,,,,,,,,,,,,,,,,,,,,,,,,,,,,,,,,,,,,,,,,,,,,,,,,,,,,,,,,,,,,,
,,?,0.00085,0,,,,,,stimuli/images/PICTURE_509.png,PHOTO,599614af004c4f0001cc8642,05/08/1952,2020-09-14_11h14.45.225,proactive3.2,2020.1.2,Win32,60,5f5adea66120081ea0f57a61,5f5f42353a42fc0322ba95a3,2,,,,,,telephone,,,,,,,,,,,3,0,0,33,33,21,1,,,,,,,,,,,,,,,,,,,,,,,,,,,,,,,,,,,,,,,,,,,,,,,,,,,,,,,,,,,,,,,,,,,,,,
,,?,0.00218,0,,,,,,stimuli/images/PICTURE_339.png,PLENTY,599614af004c4f0001cc8642,05/08/1952,2020-09-14_11h14.45.225,proactive3.2,2020.1.2,Win32,60,5f5adea66120081ea0f57a61,5f5f42353a42fc0322ba95a3,2,,,,,,backpack,,,,,,,,,,,1,0,0,34,34,0,1,,,,,,,,,,,,,,,,,,,,,,,,,,,,,,,,,,,,,,,,,,,,,,,,,,,,,,,,,,,,,,,,,,,,,,
,,?,8.67726,0,,,,,,stimuli/images/PICTURE_285.png,ADVICE,599614af004c4f0001cc8642,05/08/1952,2020-09-14_11h14.45.225,proactive3.2,2020.1.2,Win32,60,5f5adea66120081ea0f57a61,5f5f42353a42fc0322ba95a3,2,,,,,,carrot,,,,,,,,,,,2,0,0,35,35,12,1,,,,,,,,,,,,,,,,,,,,,,,,,,,,,,,,,,,,,,,,,,,,,,,,,,,,,,,,,,,,,,,,,,,,,,
,,?,0.002235,0,,,,,,stimuli/images/PICTURE_308.png,ESTATE,599614af004c4f0001cc8642,05/08/1952,2020-09-14_11h14.45.225,proactive3.2,2020.1.2,Win32,60,5f5adea66120081ea0f57a61,5f5f42353a42fc0322ba95a3,2,,,,,,dice,,,,,,,,,,,5,0,0,36,36,46,1,,,,,,,,,,,,,,,,,,,,,,,,,,,,,,,,,,,,,,,,,,,,,,,,,,,,,,,,,,,,,,,,,,,,,,
,,?,0.00202,0,,,,,,stimuli/images/PICTURE_491.png,ROOF,599614af004c4f0001cc8642,05/08/1952,2020-09-14_11h14.45.225,proactive3.2,2020.1.2,Win32,60,5f5adea66120081ea0f57a61,5f5f42353a42fc0322ba95a3,2,,,,,,rug,,,,,,,,,,,3,0,0,37,37,24,1,,,,,,,,,,,,,,,,,,,,,,,,,,,,,,,,,,,,,,,,,,,,,,,,,,,,,,,,,,,,,,,,,,,,,,
,,?,0.00197,0,,,,,,stimuli/images/PICTURE_160.png,LEADER,599614af004c4f0001cc8642,05/08/1952,2020-09-14_11h14.45.225,proactive3.2,2020.1.2,Win32,60,5f5adea66120081ea0f57a61,5f5f42353a42fc0322ba95a3,2,,,,,,wheelbarrow,,,,,,,,,,,1,0,0,38,38,3,1,,,,,,,,,,,,,,,,,,,,,,,,,,,,,,,,,,,,,,,,,,,,,,,,,,,,,,,,,,,,,,,,,,,,,,
,,?,0.00194,0,,,,,,stimuli/images/PICTURE_208.png,THING,599614af004c4f0001cc8642,05/08/1952,2020-09-14_11h14.45.225,proactive3.2,2020.1.2,Win32,60,5f5adea66120081ea0f57a61,5f5f42353a42fc0322ba95a3,2,,,,,,microphone,,,,,,,,,,,5,0,0,39,39,47,1,,,,,,,,,,,,,,,,,,,,,,,,,,,,,,,,,,,,,,,,,,,,,,,,,,,,,,,,,,,,,,,,,,,,,,
,,?,0.00199,0,,,,,,stimuli/images/PICTURE_348.png,SPEECH,599614af004c4f0001cc8642,05/08/1952,2020-09-14_11h14.45.225,proactive3.2,2020.1.2,Win32,60,5f5adea66120081ea0f57a61,5f5f42353a42fc0322ba95a3,2,,,,,,pepper,,,,,,,,,,,3,0,0,40,40,20,1,,,,,,,,,,,,,,,,,,,,,,,,,,,,,,,,,,,,,,,,,,,,,,,,,,,,,,,,,,,,,,,,,,,,,,
,,?,0.00212,0,,,,,,stimuli/images/PICTURE_469.png,ARTIST,599614af004c4f0001cc8642,05/08/1952,2020-09-14_11h14.45.225,proactive3.2,2020.1.2,Win32,60,5f5adea66120081ea0f57a61,5f5f42353a42fc0322ba95a3,2,,,,,,stool,,,,,,,,,,,1,0,0,41,41,6,1,,,,,,,,,,,,,,,,,,,,,,,,,,,,,,,,,,,,,,,,,,,,,,,,,,,,,,,,,,,,,,,,,,,,,,
,,?,6.333275,0,,,,,,stimuli/images/PICTURE_744.png,SAKE,599614af004c4f0001cc8642,05/08/1952,2020-09-14_11h14.45.225,proactive3.2,2020.1.2,Win32,60,5f5adea66120081ea0f57a61,5f5f42353a42fc0322ba95a3,2,,,,,,ring,,,,,,,,,,,2,0,0,42,42,17,1,,,,,,,,,,,,,,,,,,,,,,,,,,,,,,,,,,,,,,,,,,,,,,,,,,,,,,,,,,,,,,,,,,,,,,
,,?,0.002125,0,,,,,,stimuli/images/PICTURE_327.png,BEAUTY,599614af004c4f0001cc8642,05/08/1952,2020-09-14_11h14.45.225,proactive3.2,2020.1.2,Win32,60,5f5adea66120081ea0f57a61,5f5f42353a42fc0322ba95a3,2,,,,,,helmet,,,,,,,,,,,5,0,0,43,43,48,1,,,,,,,,,,,,,,,,,,,,,,,,,,,,,,,,,,,,,,,,,,,,,,,,,,,,,,,,,,,,,,,,,,,,,,
,,?,0.002175,0,,,,,,stimuli/images/PICTURE_744.png,SYSTEM,599614af004c4f0001cc8642,05/08/1952,2020-09-14_11h14.45.225,proactive3.2,2020.1.2,Win32,60,5f5adea66120081ea0f57a61,5f5f42353a42fc0322ba95a3,2,,,,,,ring,,,,,,,,,,,5,0,0,44,44,43,1,,,,,,,,,,,,,,,,,,,,,,,,,,,,,,,,,,,,,,,,,,,,,,,,,,,,,,,,,,,,,,,,,,,,,,
,,?,0.001905,0,,,,,,stimuli/images/PICTURE_453.png,DUDE,599614af004c4f0001cc8642,05/08/1952,2020-09-14_11h14.45.225,proactive3.2,2020.1.2,Win32,60,5f5adea66120081ea0f57a61,5f5f42353a42fc0322ba95a3,2,,,,,,scissors,,,,,,,,,,,3,0,0,45,45,27,1,,,,,,,,,,,,,,,,,,,,,,,,,,,,,,,,,,,,,,,,,,,,,,,,,,,,,,,,,,,,,,,,,,,,,,
,,?,0.00205,0,,,,,,stimuli/images/PICTURE_208.png,MONTH,599614af004c4f0001cc8642,05/08/1952,2020-09-14_11h14.45.225,proactive3.2,2020.1.2,Win32,60,5f5adea66120081ea0f57a61,5f5f42353a42fc0322ba95a3,2,,,,,,microphone,,,,,,,,,,,6,0,0,46,46,53,1,,,,,,,,,,,,,,,,,,,,,,,,,,,,,,,,,,,,,,,,,,,,,,,,,,,,,,,,,,,,,,,,,,,,,,
,,BEAUTY,8.27153,1,,,,,,stimuli/images/PICTURE_311.png,BEAUTY,599614af004c4f0001cc8642,05/08/1952,2020-09-14_11h14.45.225,proactive3.2,2020.1.2,Win32,60,5f5adea66120081ea0f57a61,5f5f42353a42fc0322ba95a3,2,,,,,,razor,,,,,,,,,,,2,0,0,47,47,13,1,,,,,,,,,,,,,,,,,,,,,,,,,,,,,,,,,,,,,,,,,,,,,,,,,,,,,,,,,,,,,,,,,,,,,,
,,?,0.0035,0,,,,,,stimuli/images/PICTURE_308.png,KIND,599614af004c4f0001cc8642,05/08/1952,2020-09-14_11h14.45.225,proactive3.2,2020.1.2,Win32,60,5f5adea66120081ea0f57a61,5f5f42353a42fc0322ba95a3,2,,,,,,dice,,,,,,,,,,,6,0,0,48,48,54,1,,,,,,,,,,,,,,,,,,,,,,,,,,,,,,,,,,,,,,,,,,,,,,,,,,,,,,,,,,,,,,,,,,,,,,
,,?,6.00624,0,,,,,,stimuli/images/PICTURE_85.png,THING,599614af004c4f0001cc8642,05/08/1952,2020-09-14_11h14.45.225,proactive3.2,2020.1.2,Win32,60,5f5adea66120081ea0f57a61,5f5f42353a42fc0322ba95a3,2,,,,,,diamond,,,,,,,,,,,2,0,0,49,49,15,1,,,,,,,,,,,,,,,,,,,,,,,,,,,,,,,,,,,,,,,,,,,,,,,,,,,,,,,,,,,,,,,,,,,,,,
,,?,0.00133,0,,,,,,stimuli/images/PICTURE_255.png,AREA,599614af004c4f0001cc8642,05/08/1952,2020-09-14_11h14.45.225,proactive3.2,2020.1.2,Win32,60,5f5adea66120081ea0f57a61,5f5f42353a42fc0322ba95a3,2,,,,,,shovel,,,,,,,,,,,3,0,0,50,50,22,1,,,,,,,,,,,,,,,,,,,,,,,,,,,,,,,,,,,,,,,,,,,,,,,,,,,,,,,,,,,,,,,,,,,,,,
,,?,0.00118,0,,,,,,stimuli/images/PICTURE_675.png,WEAPON,599614af004c4f0001cc8642,05/08/1952,2020-09-14_11h14.45.225,proactive3.2,2020.1.2,Win32,60,5f5adea66120081ea0f57a61,5f5f42353a42fc0322ba95a3,2,,,,,,windmill,,,,,,,,,,,4,0,0,51,51,32,1,,,,,,,,,,,,,,,,,,,,,,,,,,,,,,,,,,,,,,,,,,,,,,,,,,,,,,,,,,,,,,,,,,,,,,
,,?,2.85947,0,,,,,,stimuli/images/PICTURE_692.png,MONTH,599614af004c4f0001cc8642,05/08/1952,2020-09-14_11h14.45.225,proactive3.2,2020.1.2,Win32,60,5f5adea66120081ea0f57a61,5f5f42353a42fc0322ba95a3,2,,,,,,cherry,,,,,,,,,,,2,0,0,52,52,16,1,,,,,,,,,,,,,,,,,,,,,,,,,,,,,,,,,,,,,,,,,,,,,,,,,,,,,,,,,,,,,,,,,,,,,,
,,?,0.00191,0,,,,,,stimuli/images/PICTURE_677.png,MILE,599614af004c4f0001cc8642,05/08/1952,2020-09-14_11h14.45.225,proactive3.2,2020.1.2,Win32,60,5f5adea66120081ea0f57a61,5f5f42353a42fc0322ba95a3,2,,,,,,map,,,,,,,,,,,4,0,0,53,53,30,1,,,,,,,,,,,,,,,,,,,,,,,,,,,,,,,,,,,,,,,,,,,,,,,,,,,,,,,,,,,,,,,,,,,,,,
,,?,0.00198,0,,,,,,stimuli/images/PICTURE_470.png,CASINO,599614af004c4f0001cc8642,05/08/1952,2020-09-14_11h14.45.225,proactive3.2,2020.1.2,Win32,60,5f5adea66120081ea0f57a61,5f5f42353a42fc0322ba95a3,2,,,,,,motorbike,,,,,,,,,,,4,0,0,54,54,36,1,,,,,,,,,,,,,,,,,,,,,,,,,,,,,,,,,,,,,,,,,,,,,,,,,,,,,,,,,,,,,,,,,,,,,,
,,LOUD,5.97062,0,,,,,,stimuli/images/PICTURE_208.png,LOTS,599614af004c4f0001cc8642,05/08/1952,2020-09-14_11h14.45.225,proactive3.2,2020.1.2,Win32,60,5f5adea66120081ea0f57a61,5f5f42353a42fc0322ba95a3,2,,,,,,microphone,,,,,,,,,,,2,0,0,55,55,10,1,,,,,,,,,,,,,,,,,,,,,,,,,,,,,,,,,,,,,,,,,,,,,,,,,,,,,,,,,,,,,,,,,,,,,,
,,?,0.000855,0,,,,,,stimuli/images/PICTURE_380.png,DEATH,599614af004c4f0001cc8642,05/08/1952,2020-09-14_11h14.45.225,proactive3.2,2020.1.2,Win32,60,5f5adea66120081ea0f57a61,5f5f42353a42fc0322ba95a3,2,,,,,,gorilla,,,,,,,,,,,5,0,0,56,56,49,1,,,,,,,,,,,,,,,,,,,,,,,,,,,,,,,,,,,,,,,,,,,,,,,,,,,,,,,,,,,,,,,,,,,,,,
,,?,0.00083,0,,,,,,stimuli/images/PICTURE_32.png,JUNGLE,599614af004c4f0001cc8642,05/08/1952,2020-09-14_11h14.45.225,proactive3.2,2020.1.2,Win32,60,5f5adea66120081ea0f57a61,5f5f42353a42fc0322ba95a3,2,,,,,,crown,,,,,,,,,,,5,0,0,57,57,45,1,,,,,,,,,,,,,,,,,,,,,,,,,,,,,,,,,,,,,,,,,,,,,,,,,,,,,,,,,,,,,,,,,,,,,,
,,?,9.376995,0,,,,,,stimuli/images/PICTURE_314.png,GODS,599614af004c4f0001cc8642,05/08/1952,2020-09-14_11h14.45.225,proactive3.2,2020.1.2,Win32,60,5f5adea66120081ea0f57a61,5f5f42353a42fc0322ba95a3,2,,,,,,perfume,,,,,,,,,,,2,0,0,58,58,11,1,,,,,,,,,,,,,,,,,,,,,,,,,,,,,,,,,,,,,,,,,,,,,,,,,,,,,,,,,,,,,,,,,,,,,,
,,?,0.001615,0,,,,,,stimuli/images/PICTURE_667.png,PLENTY,599614af004c4f0001cc8642,05/08/1952,2020-09-14_11h14.45.225,proactive3.2,2020.1.2,Win32,60,5f5adea66120081ea0f57a61,5f5f42353a42fc0322ba95a3,2,,,,,,daisy,,,,,,,,,,,5,0,0,59,59,41,1,,,,,,,,,,,,,,,,,,,,,,,,,,,,,,,,,,,,,,,,,,,,,,,,,,,,,,,,,,,,,,,,,,,,,,
,,,,,,,,,,,,599614af004c4f0001cc8642,05/08/1952,2020-09-14_11h14.45.225,proactive3.2,2020.1.2,Win32,60,5f5adea66120081ea0f57a61,5f5f42353a42fc0322ba95a3,2,,,,,,,,,,,,,,,,,,,,,,,,0,0,0,0,1,stimuli/learn-block1.csv,,,,,,,,,,,,,,,,,,,,,,,,,,,,,,,,,,,,,,,,,,,,,,,,,,,,,,,,,,,,,,,,
,,,,,,,,,,stimuli/images/PICTURE_141.png,CLIENT,599614af004c4f0001cc8642,05/08/1952,2020-09-14_11h14.45.225,proactive3.2,2020.1.2,Win32,60,5f5adea66120081ea0f57a61,5f5f42353a42fc0322ba95a3,2,,,,,,sunflower,,,,,,0,0,0,30,1,4,2,,,,,,,,,,,,,,,,,,,,,,,,,,,,,,,,,,,,,,,,,,,,,,,,,,,,,,,,,,,,,,,,,,,,,,,,,,,
,,,,,,,,,,stimuli/images/PICTURE_297.png,BODY,599614af004c4f0001cc8642,05/08/1952,2020-09-14_11h14.45.225,proactive3.2,2020.1.2,Win32,60,5f5adea66120081ea0f57a61,5f5f42353a42fc0322ba95a3,2,,,,,,aeroplane,,,,,,0,1,1,51,1,6,2,,,,,,,,,,,,,,,,,,,,,,,,,,,,,,,,,,,,,,,,,,,,,,,,,,,,,,,,,,,,,,,,,,,,,,,,,,,
,,,,,,,,,,stimuli/images/PICTURE_356.png,CANDY,599614af004c4f0001cc8642,05/08/1952,2020-09-14_11h14.45.225,proactive3.2,2020.1.2,Win32,60,5f5adea66120081ea0f57a61,5f5f42353a42fc0322ba95a3,2,,,,,,pawn,,,,,,0,2,2,46,1,5,2,,,,,,,,,,,,,,,,,,,,,,,,,,,,,,,,,,,,,,,,,,,,,,,,,,,,,,,,,,,,,,,,,,,,,,,,,,,
,,,,,,,,,,stimuli/images/PICTURE_470.png,MOMENT,599614af004c4f0001cc8642,05/08/1952,2020-09-14_11h14.45.225,proactive3.2,2020.1.2,Win32,60,5f5adea66120081ea0f57a61,5f5f42353a42fc0322ba95a3,2,,,,,,motorbike,,,,,,0,3,3,40,1,5,2,,,,,,,,,,,,,,,,,,,,,,,,,,,,,,,,,,,,,,,,,,,,,,,,,,,,,,,,,,,,,,,,,,,,,,,,,,,
,,,,,,,,,,stimuli/images/PICTURE_405.png,JUNGLE,599614af004c4f0001cc8642,05/08/1952,2020-09-14_11h14.45.225,proactive3.2,2020.1.2,Win32,60,5f5adea66120081ea0f57a61,5f5f42353a42fc0322ba95a3,2,,,,,,anchor,,,,,,0,4,4,13,1,2,2,,,,,,,,,,,,,,,,,,,,,,,,,,,,,,,,,,,,,,,,,,,,,,,,,,,,,,,,,,,,,,,,,,,,,,,,,,,
,,,,,,,,,,stimuli/images/PICTURE_208.png,SPIRIT,599614af004c4f0001cc8642,05/08/1952,2020-09-14_11h14.45.225,proactive3.2,2020.1.2,Win32,60,5f5adea66120081ea0f57a61,5f5f42353a42fc0322ba95a3,2,,,,,,microphone,,,,,,0,5,5,28,1,3,2,,,,,,,,,,,,,,,,,,,,,,,,,,,,,,,,,,,,,,,,,,,,,,,,,,,,,,,,,,,,,,,,,,,,,,,,,,,
,,,,,,,,,,stimuli/images/PICTURE_57.png,CASINO,599614af004c4f0001cc8642,05/08/1952,2020-09-14_11h14.45.225,proactive3.2,2020.1.2,Win32,60,5f5adea66120081ea0f57a61,5f5f42353a42fc0322ba95a3,2,,,,,,stamp,,,,,,0,6,6,12,1,2,2,,,,,,,,,,,,,,,,,,,,,,,,,,,,,,,,,,,,,,,,,,,,,,,,,,,,,,,,,,,,,,,,,,,,,,,,,,,
,,,,,,,,,,stimuli/images/PICTURE_311.png,FLESH,599614af004c4f0001cc8642,05/08/1952,2020-09-14_11h14.45.225,proactive3.2,2020.1.2,Win32,60,5f5adea66120081ea0f57a61,5f5f42353a42fc0322ba95a3,2,,,,,,razor,,,,,,0,7,7,3,1,1,2,,,,,,,,,,,,,,,,,,,,,,,,,,,,,,,,,,,,,,,,,,,,,,,,,,,,,,,,,,,,,,,,,,,,,,,,,,,
,,,,,,,,,,stimuli/images/PICTURE_57.png,CANDY,599614af004c4f0001cc8642,05/08/1952,2020-09-14_11h14.45.225,proactive3.2,2020.1.2,Win32,60,5f5adea66120081ea0f57a61,5f5f42353a42fc0322ba95a3,2,,,,,,stamp,,,,,,0,8,8,52,1,6,2,,,,,,,,,,,,,,,,,,,,,,,,,,,,,,,,,,,,,,,,,,,,,,,,,,,,,,,,,,,,,,,,,,,,,,,,,,,
,,,,,,,,,,stimuli/images/PICTURE_160.png,HOTEL,599614af004c4f0001cc8642,05/08/1952,2020-09-14_11h14.45.225,proactive3.2,2020.1.2,Win32,60,5f5adea66120081ea0f57a61,5f5f42353a42fc0322ba95a3,2,,,,,,wheelbarrow,,,,,,0,9,9,16,1,2,2,,,,,,,,,,,,,,,,,,,,,,,,,,,,,,,,,,,,,,,,,,,,,,,,,,,,,,,,,,,,,,,,,,,,,,,,,,,
,,,,,,,,,,stimuli/images/PICTURE_487.png,ROOF,599614af004c4f0001cc8642,05/08/1952,2020-09-14_11h14.45.225,proactive3.2,2020.1.2,Win32,60,5f5adea66120081ea0f57a61,5f5f42353a42fc0322ba95a3,2,,,,,,basket,,,,,,0,10,10,50,1,6,2,,,,,,,,,,,,,,,,,,,,,,,,,,,,,,,,,,,,,,,,,,,,,,,,,,,,,,,,,,,,,,,,,,,,,,,,,,,
,,,,,,,,,,stimuli/images/PICTURE_654.png,YEAR,599614af004c4f0001cc8642,05/08/1952,2020-09-14_11h14.45.225,proactive3.2,2020.1.2,Win32,60,5f5adea66120081ea0f57a61,5f5f42353a42fc0322ba95a3,2,,,,,,pencil,,,,,,0,11,11,41,1,5,2,,,,,,,,,,,,,,,,,,,,,,,,,,,,,,,,,,,,,,,,,,,,,,,,,,,,,,,,,,,,,,,,,,,,,,,,,,,
,,,,,,,,,,stimuli/images/PICTURE_32.png,LETTER,599614af004c4f0001cc8642,05/08/1952,2020-09-14_11h14.45.225,proactive3.2,2020.1.2,Win32,60,5f5adea66120081ea0f57a61,5f5f42353a42fc0322ba95a3,2,,,,,,crown,,,,,,0,12,12,56,1,6,2,,,,,,,,,,,,,,,,,,,,,,,,,,,,,,,,,,,,,,,,,,,,,,,,,,,,,,,,,,,,,,,,,,,,,,,,,,,
,,,,,,,,,,stimuli/images/PICTURE_2.png,YARD,599614af004c4f0001cc8642,05/08/1952,2020-09-14_11h14.45.225,proactive3.2,2020.1.2,Win32,60,5f5adea66120081ea0f57a61,5f5f42353a42fc0322ba95a3,2,,,,,,tyre,,,,,,0,13,13,55,1,6,2,,,,,,,,,,,,,,,,,,,,,,,,,,,,,,,,,,,,,,,,,,,,,,,,,,,,,,,,,,,,,,,,,,,,,,,,,,,
,,,,,,,,,,stimuli/images/PICTURE_692.png,DUDE,599614af004c4f0001cc8642,05/08/1952,2020-09-14_11h14.45.225,proactive3.2,2020.1.2,Win32,60,5f5adea66120081ea0f57a61,5f5f42353a42fc0322ba95a3,2,,,,,,cherry,,,,,,0,14,14,47,1,5,2,,,,,,,,,,,,,,,,,,,,,,,,,,,,,,,,,,,,,,,,,,,,,,,,,,,,,,,,,,,,,,,,,,,,,,,,,,,
,,,,,,,,,,stimuli/images/PICTURE_311.png,TOILET,599614af004c4f0001cc8642,05/08/1952,2020-09-14_11h14.45.225,proactive3.2,2020.1.2,Win32,60,5f5adea66120081ea0f57a61,5f5f42353a42fc0322ba95a3,2,,,,,,razor,,,,,,0,15,15,54,1,6,2,,,,,,,,,,,,,,,,,,,,,,,,,,,,,,,,,,,,,,,,,,,,,,,,,,,,,,,,,,,,,,,,,,,,,,,,,,,
,,,,,,,,,,stimuli/images/PICTURE_177.png,HOUSE,599614af004c4f0001cc8642,05/08/1952,2020-09-14_11h14.45.225,proactive3.2,2020.1.2,Win32,60,5f5adea66120081ea0f57a61,5f5f42353a42fc0322ba95a3,2,,,,,,mushroom,,,,,,0,16,16,25,1,3,2,,,,,,,,,,,,,,,,,,,,,,,,,,,,,,,,,,,,,,,,,,,,,,,,,,,,,,,,,,,,,,,,,,,,,,,,,,,
,,,,,,,,,,stimuli/images/PICTURE_405.png,JUNGLE,599614af004c4f0001cc8642,05/08/1952,2020-09-14_11h14.45.225,proactive3.2,2020.1.2,Win32,60,5f5adea66120081ea0f57a61,5f5f42353a42fc0322ba95a3,2,,,,,,anchor,,,,,,0,17,17,58,1,6,2,,,,,,,,,,,,,,,,,,,,,,,,,,,,,,,,,,,,,,,,,,,,,,,,,,,,,,,,,,,,,,,,,,,,,,,,,,,
,,,,,,,,,,stimuli/images/PICTURE_57.png,NATION,599614af004c4f0001cc8642,05/08/1952,2020-09-14_11h14.45.225,proactive3.2,2020.1.2,Win32,60,5f5adea66120081ea0f57a61,5f5f42353a42fc0322ba95a3,2,,,,,,stamp,,,,,,0,18,18,21,1,3,2,,,,,,,,,,,,,,,,,,,,,,,,,,,,,,,,,,,,,,,,,,,,,,,,,,,,,,,,,,,,,,,,,,,,,,,,,,,
,,,,,,,,,,stimuli/images/PICTURE_509.png,MILLER,599614af004c4f0001cc8642,05/08/1952,2020-09-14_11h14.45.225,proactive3.2,2020.1.2,Win32,60,5f5adea66120081ea0f57a61,5f5f42353a42fc0322ba95a3,2,,,,,,telephone,,,,,,0,19,19,49,1,5,2,,,,,,,,,,,,,,,,,,,,,,,,,,,,,,,,,,,,,,,,,,,,,,,,,,,,,,,,,,,,,,,,,,,,,,,,,,,
,,,,,,,,,,stimuli/images/PICTURE_285.png,WRITER,599614af004c4f0001cc8642,05/08/1952,2020-09-14_11h14.45.225,proactive3.2,2020.1.2,Win32,60,5f5adea66120081ea0f57a61,5f5f42353a42fc0322ba95a3,2,,,,,,carrot,,,,,,0,20,20,6,1,1,2,,,,,,,,,,,,,,,,,,,,,,,,,,,,,,,,,,,,,,,,,,,,,,,,,,,,,,,,,,,,,,,,,,,,,,,,,,,
,,,,,,,,,,stimuli/images/PICTURE_491.png,SERIES,599614af004c4f0001cc8642,05/08/1952,2020-09-14_11h14.45.225,proactive3.2,2020.1.2,Win32,60,5f5adea66120081ea0f57a61,5f5f42353a42fc0322ba95a3,2,,,,,,rug,,,,,,0,21,21,39,1,4,2,,,,,,,,,,,,,,,,,,,,,,,,,,,,,,,,,,,,,,,,,,,,,,,,,,,,,,,,,,,,,,,,,,,,,,,,,,,
,,,,,,,,,,stimuli/images/PICTURE_348.png,DUDE,599614af004c4f0001cc8642,05/08/1952,2020-09-14_11h14.45.225,proactive3.2,2020.1.2,Win32,60,5f5adea66120081ea0f57a61,5f5f42353a42fc0322ba95a3,2,,,,,,pepper,,,,,,0,22,22,59,1,6,2,,,,,,,,,,,,,,,,,,,,,,,,,,,,,,,,,,,,,,,,,,,,,,,,,,,,,,,,,,,,,,,,,,,,,,,,,,,
,,,,,,,,,,stimuli/images/PICTURE_453.png,FAMILY,599614af004c4f0001cc8642,05/08/1952,2020-09-14_11h14.45.225,proactive3.2,2020.1.2,Win32,60,5f5adea66120081ea0f57a61,5f5f42353a42fc0322ba95a3,2,,,,,,scissors,,,,,,0,23,23,48,1,5,2,,,,,,,,,,,,,,,,,,,,,,,,,,,,,,,,,,,,,,,,,,,,,,,,,,,,,,,,,,,,,,,,,,,,,,,,,,,
,,,,,,,,,,stimuli/images/PICTURE_509.png,SHOTS,599614af004c4f0001cc8642,05/08/1952,2020-09-14_11h14.45.225,proactive3.2,2020.1.2,Win32,60,5f5adea66120081ea0f57a61,5f5f42353a42fc0322ba95a3,2,,,,,,telephone,,,,,,0,24,24,7,1,1,2,,,,,,,,,,,,,,,,,,,,,,,,,,,,,,,,,,,,,,,,,,,,,,,,,,,,,,,,,,,,,,,,,,,,,,,,,,,
,,,,,,,,,,stimuli/images/PICTURE_708.png,VALLEY,599614af004c4f0001cc8642,05/08/1952,2020-09-14_11h14.45.225,proactive3.2,2020.1.2,Win32,60,5f5adea66120081ea0f57a61,5f5f42353a42fc0322ba95a3,2,,,,,,monkey,,,,,,0,25,25,45,1,5,2,,,,,,,,,,,,,,,,,,,,,,,,,,,,,,,,,,,,,,,,,,,,,,,,,,,,,,,,,,,,,,,,,,,,,,,,,,,
,,,,,,,,,,stimuli/images/PICTURE_18.png,RIVER,599614af004c4f0001cc8642,05/08/1952,2020-09-14_11h14.45.225,proactive3.2,2020.1.2,Win32,60,5f5adea66120081ea0f57a61,5f5f42353a42fc0322ba95a3,2,,,,,,planet,,,,,,0,26,26,22,1,3,2,,,,,,,,,,,,,,,,,,,,,,,,,,,,,,,,,,,,,,,,,,,,,,,,,,,,,,,,,,,,,,,,,,,,,,,,,,,
,,,,,,,,,,stimuli/images/PICTURE_123.png,SALE,599614af004c4f0001cc8642,05/08/1952,2020-09-14_11h14.45.225,proactive3.2,2020.1.2,Win32,60,5f5adea66120081ea0f57a61,5f5f42353a42fc0322ba95a3,2,,,,,,dart,,,,,,0,27,27,8,1,1,2,,,,,,,,,,,,,,,,,,,,,,,,,,,,,,,,,,,,,,,,,,,,,,,,,,,,,,,,,,,,,,,,,,,,,,,,,,,
,,,,,,,,,,stimuli/images/PICTURE_509.png,BATH,599614af004c4f0001cc8642,05/08/1952,2020-09-14_11h14.45.225,proactive3.2,2020.1.2,Win32,60,5f5adea66120081ea0f57a61,5f5f42353a42fc0322ba95a3,2,,,,,,telephone,,,,,,0,28,28,15,1,2,2,,,,,,,,,,,,,,,,,,,,,,,,,,,,,,,,,,,,,,,,,,,,,,,,,,,,,,,,,,,,,,,,,,,,,,,,,,,
,,,,,,,,,,stimuli/images/PICTURE_470.png,BEAUTY,599614af004c4f0001cc8642,05/08/1952,2020-09-14_11h14.45.225,proactive3.2,2020.1.2,Win32,60,5f5adea66120081ea0f57a61,5f5f42353a42fc0322ba95a3,2,,,,,,motorbike,,,,,,0,29,29,26,1,3,2,,,,,,,,,,,,,,,,,,,,,,,,,,,,,,,,,,,,,,,,,,,,,,,,,,,,,,,,,,,,,,,,,,,,,,,,,,,
,,,,,,,,,,stimuli/images/PICTURE_33.png,COPS,599614af004c4f0001cc8642,05/08/1952,2020-09-14_11h14.45.225,proactive3.2,2020.1.2,Win32,60,5f5adea66120081ea0f57a61,5f5f42353a42fc0322ba95a3,2,,,,,,frame,,,,,,0,30,30,29,1,3,2,,,,,,,,,,,,,,,,,,,,,,,,,,,,,,,,,,,,,,,,,,,,,,,,,,,,,,,,,,,,,,,,,,,,,,,,,,,
,,,,,,,,,,stimuli/images/PICTURE_215.png,FOOD,599614af004c4f0001cc8642,05/08/1952,2020-09-14_11h14.45.225,proactive3.2,2020.1.2,Win32,60,5f5adea66120081ea0f57a61,5f5f42353a42fc0322ba95a3,2,,,,,,boot,,,,,,0,31,31,5,1,1,2,,,,,,,,,,,,,,,,,,,,,,,,,,,,,,,,,,,,,,,,,,,,,,,,,,,,,,,,,,,,,,,,,,,,,,,,,,,
,,,,,,,,,,stimuli/images/PICTURE_348.png,TOILET,599614af004c4f0001cc8642,05/08/1952,2020-09-14_11h14.45.225,proactive3.2,2020.1.2,Win32,60,5f5adea66120081ea0f57a61,5f5f42353a42fc0322ba95a3,2,,,,,,pepper,,,,,,0,32,32,4,1,1,2,,,,,,,,,,,,,,,,,,,,,,,,,,,,,,,,,,,,,,,,,,,,,,,,,,,,,,,,,,,,,,,,,,,,,,,,,,,
,,,,,,,,,,stimuli/images/PICTURE_68.png,KIND,599614af004c4f0001cc8642,05/08/1952,2020-09-14_11h14.45.225,proactive3.2,2020.1.2,Win32,60,5f5adea66120081ea0f57a61,5f5f42353a42fc0322ba95a3,2,,,,,,candle,,,,,,0,33,33,23,1,3,2,,,,,,,,,,,,,,,,,,,,,,,,,,,,,,,,,,,,,,,,,,,,,,,,,,,,,,,,,,,,,,,,,,,,,,,,,,,
,,,,,,,,,,stimuli/images/PICTURE_147.png,LEADER,599614af004c4f0001cc8642,05/08/1952,2020-09-14_11h14.45.225,proactive3.2,2020.1.2,Win32,60,5f5adea66120081ea0f57a61,5f5f42353a42fc0322ba95a3,2,,,,,,hanger,,,,,,0,34,34,33,1,4,2,,,,,,,,,,,,,,,,,,,,,,,,,,,,,,,,,,,,,,,,,,,,,,,,,,,,,,,,,,,,,,,,,,,,,,,,,,,
,,,,,,,,,,stimuli/images/PICTURE_688.png,CLOCK,599614af004c4f0001cc8642,05/08/1952,2020-09-14_11h14.45.225,proactive3.2,2020.1.2,Win32,60,5f5adea66120081ea0f57a61,5f5f42353a42fc0322ba95a3,2,,,,,,runner,,,,,,0,35,35,42,1,5,2,,,,,,,,,,,,,,,,,,,,,,,,,,,,,,,,,,,,,,,,,,,,,,,,,,,,,,,,,,,,,,,,,,,,,,,,,,,
,,,,,,,,,,stimuli/images/PICTURE_93.png,GIRL,599614af004c4f0001cc8642,05/08/1952,2020-09-14_11h14.45.225,proactive3.2,2020.1.2,Win32,60,5f5adea66120081ea0f57a61,5f5f42353a42fc0322ba95a3,2,,,,,,skateboard,,,,,,0,36,36,31,1,4,2,,,,,,,,,,,,,,,,,,,,,,,,,,,,,,,,,,,,,,,,,,,,,,,,,,,,,,,,,,,,,,,,,,,,,,,,,,,
,,,,,,,,,,stimuli/images/PICTURE_215.png,BOYS,599614af004c4f0001cc8642,05/08/1952,2020-09-14_11h14.45.225,proactive3.2,2020.1.2,Win32,60,5f5adea66120081ea0f57a61,5f5f42353a42fc0322ba95a3,2,,,,,,boot,,,,,,0,37,37,24,1,3,2,,,,,,,,,,,,,,,,,,,,,,,,,,,,,,,,,,,,,,,,,,,,,,,,,,,,,,,,,,,,,,,,,,,,,,,,,,,
,,,,,,,,,,stimuli/images/PICTURE_655.png,SALE,599614af004c4f0001cc8642,05/08/1952,2020-09-14_11h14.45.225,proactive3.2,2020.1.2,Win32,60,5f5adea66120081ea0f57a61,5f5f42353a42fc0322ba95a3,2,,,,,,megaphone,,,,,,0,38,38,57,1,6,2,,,,,,,,,,,,,,,,,,,,,,,,,,,,,,,,,,,,,,,,,,,,,,,,,,,,,,,,,,,,,,,,,,,,,,,,,,,
,,,,,,,,,,stimuli/images/PICTURE_750.png,POLICY,599614af004c4f0001cc8642,05/08/1952,2020-09-14_11h14.45.225,proactive3.2,2020.1.2,Win32,60,5f5adea66120081ea0f57a61,5f5f42353a42fc0322ba95a3,2,,,,,,kettle,,,,,,0,39,39,44,1,5,2,,,,,,,,,,,,,,,,,,,,,,,,,,,,,,,,,,,,,,,,,,,,,,,,,,,,,,,,,,,,,,,,,,,,,,,,,,,
,,,,,,,,,,stimuli/images/PICTURE_677.png,FAMILY,599614af004c4f0001cc8642,05/08/1952,2020-09-14_11h14.45.225,proactive3.2,2020.1.2,Win32,60,5f5adea66120081ea0f57a61,5f5f42353a42fc0322ba95a3,2,,,,,,map,,,,,,0,40,40,53,1,6,2,,,,,,,,,,,,,,,,,,,,,,,,,,,,,,,,,,,,,,,,,,,,,,,,,,,,,,,,,,,,,,,,,,,,,,,,,,,
,,,,,,,,,,stimuli/images/PICTURE_296.png,CLOCK,599614af004c4f0001cc8642,05/08/1952,2020-09-14_11h14.45.225,proactive3.2,2020.1.2,Win32,60,5f5adea66120081ea0f57a61,5f5f42353a42fc0322ba95a3,2,,,,,,bolt,,,,,,0,41,41,18,1,2,2,,,,,,,,,,,,,,,,,,,,,,,,,,,,,,,,,,,,,,,,,,,,,,,,,,,,,,,,,,,,,,,,,,,,,,,,,,,
,,,,,,,,,,stimuli/images/PICTURE_403.png,FAMILY,599614af004c4f0001cc8642,05/08/1952,2020-09-14_11h14.45.225,proactive3.2,2020.1.2,Win32,60,5f5adea66120081ea0f57a61,5f5f42353a42fc0322ba95a3,2,,,,,,cathedral,,,,,,0,42,42,9,1,1,2,,,,,,,,,,,,,,,,,,,,,,,,,,,,,,,,,,,,,,,,,,,,,,,,,,,,,,,,,,,,,,,,,,,,,,,,,,,
,,,,,,,,,,stimuli/images/PICTURE_2.png,JUNGLE,599614af004c4f0001cc8642,05/08/1952,2020-09-14_11h14.45.225,proactive3.2,2020.1.2,Win32,60,5f5adea66120081ea0f57a61,5f5f42353a42fc0322ba95a3,2,,,,,,tyre,,,,,,0,43,43,1,1,1,2,,,,,,,,,,,,,,,,,,,,,,,,,,,,,,,,,,,,,,,,,,,,,,,,,,,,,,,,,,,,,,,,,,,,,,,,,,,
,,,,,,,,,,stimuli/images/PICTURE_487.png,POLICY,599614af004c4f0001cc8642,05/08/1952,2020-09-14_11h14.45.225,proactive3.2,2020.1.2,Win32,60,5f5adea66120081ea0f57a61,5f5f42353a42fc0322ba95a3,2,,,,,,basket,,,,,,0,44,44,34,1,4,2,,,,,,,,,,,,,,,,,,,,,,,,,,,,,,,,,,,,,,,,,,,,,,,,,,,,,,,,,,,,,,,,,,,,,,,,,,,
,,,,,,,,,,stimuli/images/PICTURE_285.png,PRINCE,599614af004c4f0001cc8642,05/08/1952,2020-09-14_11h14.45.225,proactive3.2,2020.1.2,Win32,60,5f5adea66120081ea0f57a61,5f5f42353a42fc0322ba95a3,2,,,,,,carrot,,,,,,0,45,45,20,1,3,2,,,,,,,,,,,,,,,,,,,,,,,,,,,,,,,,,,,,,,,,,,,,,,,,,,,,,,,,,,,,,,,,,,,,,,,,,,,
,,,,,,,,,,stimuli/images/PICTURE_215.png,LEADER,599614af004c4f0001cc8642,05/08/1952,2020-09-14_11h14.45.225,proactive3.2,2020.1.2,Win32,60,5f5adea66120081ea0f57a61,5f5f42353a42fc0322ba95a3,2,,,,,,boot,,,,,,0,46,46,43,1,5,2,,,,,,,,,,,,,,,,,,,,,,,,,,,,,,,,,,,,,,,,,,,,,,,,,,,,,,,,,,,,,,,,,,,,,,,,,,,
,,,,,,,,,,stimuli/images/PICTURE_667.png,GLASS,599614af004c4f0001cc8642,05/08/1952,2020-09-14_11h14.45.225,proactive3.2,2020.1.2,Win32,60,5f5adea66120081ea0f57a61,5f5f42353a42fc0322ba95a3,2,,,,,,daisy,,,,,,0,47,47,27,1,3,2,,,,,,,,,,,,,,,,,,,,,,,,,,,,,,,,,,,,,,,,,,,,,,,,,,,,,,,,,,,,,,,,,,,,,,,,,,,
,,,,,,,,,,stimuli/images/PICTURE_509.png,APPLE,599614af004c4f0001cc8642,05/08/1952,2020-09-14_11h14.45.225,proactive3.2,2020.1.2,Win32,60,5f5adea66120081ea0f57a61,5f5f42353a42fc0322ba95a3,2,,,,,,telephone,,,,,,0,48,48,38,1,4,2,,,,,,,,,,,,,,,,,,,,,,,,,,,,,,,,,,,,,,,,,,,,,,,,,,,,,,,,,,,,,,,,,,,,,,,,,,,
,,,,,,,,,,stimuli/images/PICTURE_314.png,SPEECH,599614af004c4f0001cc8642,05/08/1952,2020-09-14_11h14.45.225,proactive3.2,2020.1.2,Win32,60,5f5adea66120081ea0f57a61,5f5f42353a42fc0322ba95a3,2,,,,,,perfume,,,,,,0,49,49,35,1,4,2,,,,,,,,,,,,,,,,,,,,,,,,,,,,,,,,,,,,,,,,,,,,,,,,,,,,,,,,,,,,,,,,,,,,,,,,,,,
,,,,,,,,,,stimuli/images/PICTURE_564.png,PLENTY,599614af004c4f0001cc8642,05/08/1952,2020-09-14_11h14.45.225,proactive3.2,2020.1.2,Win32,60,5f5adea66120081ea0f57a61,5f5f42353a42fc0322ba95a3,2,,,,,,spoon,,,,,,0,50,50,11,1,2,2,,,,,,,,,,,,,,,,,,,,,,,,,,,,,,,,,,,,,,,,,,,,,,,,,,,,,,,,,,,,,,,,,,,,,,,,,,,
,,,,,,,,,,stimuli/images/PICTURE_95.png,NIGHT,599614af004c4f0001cc8642,05/08/1952,2020-09-14_11h14.45.225,proactive3.2,2020.1.2,Win32,60,5f5adea66120081ea0f57a61,5f5f42353a42fc0322ba95a3,2,,,,,,suitcase,,,,,,0,51,51,37,1,4,2,,,,,,,,,,,,,,,,,,,,,,,,,,,,,,,,,,,,,,,,,,,,,,,,,,,,,,,,,,,,,,,,,,,,,,,,,,,
,,,,,,,,,,stimuli/images/PICTURE_504.png,HOUSE,599614af004c4f0001cc8642,05/08/1952,2020-09-14_11h14.45.225,proactive3.2,2020.1.2,Win32,60,5f5adea66120081ea0f57a61,5f5f42353a42fc0322ba95a3,2,,,,,,wheel,,,,,,0,52,52,36,1,4,2,,,,,,,,,,,,,,,,,,,,,,,,,,,,,,,,,,,,,,,,,,,,,,,,,,,,,,,,,,,,,,,,,,,,,,,,,,,
,,,,,,,,,,stimuli/images/PICTURE_452.png,COPS,599614af004c4f0001cc8642,05/08/1952,2020-09-14_11h14.45.225,proactive3.2,2020.1.2,Win32,60,5f5adea66120081ea0f57a61,5f5f42353a42fc0322ba95a3,2,,,,,,watch,,,,,,0,53,53,0,1,1,2,,,,,,,,,,,,,,,,,,,,,,,,,,,,,,,,,,,,,,,,,,,,,,,,,,,,,,,,,,,,,,,,,,,,,,,,,,,
,,,,,,,,,,stimuli/images/PICTURE_654.png,COPS,599614af004c4f0001cc8642,05/08/1952,2020-09-14_11h14.45.225,proactive3.2,2020.1.2,Win32,60,5f5adea66120081ea0f57a61,5f5f42353a42fc0322ba95a3,2,,,,,,pencil,,,,,,0,54,54,10,1,2,2,,,,,,,,,,,,,,,,,,,,,,,,,,,,,,,,,,,,,,,,,,,,,,,,,,,,,,,,,,,,,,,,,,,,,,,,,,,
,,,,,,,,,,stimuli/images/PICTURE_2.png,AREA,599614af004c4f0001cc8642,05/08/1952,2020-09-14_11h14.45.225,proactive3.2,2020.1.2,Win32,60,5f5adea66120081ea0f57a61,5f5f42353a42fc0322ba95a3,2,,,,,,tyre,,,,,,0,55,55,32,1,4,2,,,,,,,,,,,,,,,,,,,,,,,,,,,,,,,,,,,,,,,,,,,,,,,,,,,,,,,,,,,,,,,,,,,,,,,,,,,
,,,,,,,,,,stimuli/images/PICTURE_405.png,HOUSE,599614af004c4f0001cc8642,05/08/1952,2020-09-14_11h14.45.225,proactive3.2,2020.1.2,Win32,60,5f5adea66120081ea0f57a61,5f5f42353a42fc0322ba95a3,2,,,,,,anchor,,,,,,0,56,56,2,1,1,2,,,,,,,,,,,,,,,,,,,,,,,,,,,,,,,,,,,,,,,,,,,,,,,,,,,,,,,,,,,,,,,,,,,,,,,,,,,
,,,,,,,,,,stimuli/images/PICTURE_677.png,PHOTO,599614af004c4f0001cc8642,05/08/1952,2020-09-14_11h14.45.225,proactive3.2,2020.1.2,Win32,60,5f5adea66120081ea0f57a61,5f5f42353a42fc0322ba95a3,2,,,,,,map,,,,,,0,57,57,14,1,2,2,,,,,,,,,,,,,,,,,,,,,,,,,,,,,,,,,,,,,,,,,,,,,,,,,,,,,,,,,,,,,,,,,,,,,,,,,,,
,,,,,,,,,,stimuli/images/PICTURE_255.png,PENNY,599614af004c4f0001cc8642,05/08/1952,2020-09-14_11h14.45.225,proactive3.2,2020.1.2,Win32,60,5f5adea66120081ea0f57a61,5f5f42353a42fc0322ba95a3,2,,,,,,shovel,,,,,,0,58,58,19,1,2,2,,,,,,,,,,,,,,,,,,,,,,,,,,,,,,,,,,,,,,,,,,,,,,,,,,,,,,,,,,,,,,,,,,,,,,,,,,,
,,?,0.002475,0,,,,,,stimuli/images/PICTURE_285.png,PRINCE,599614af004c4f0001cc8642,05/08/1952,2020-09-14_11h14.45.225,proactive3.2,2020.1.2,Win32,60,5f5adea66120081ea0f57a61,5f5f42353a42fc0322ba95a3,2,,,,,,carrot,,,,,,,,,,,3,2,0,0,0,20,1,,,,,,,,,,,,,,,,,,,,,,,,,,,,,,,,,,,,,,,,,,,,,,,,,,,,,,,,,,,,,,,,,,,,,,
,,?,0.001775,0,,,,,,stimuli/images/PICTURE_356.png,CANDY,599614af004c4f0001cc8642,05/08/1952,2020-09-14_11h14.45.225,proactive3.2,2020.1.2,Win32,60,5f5adea66120081ea0f57a61,5f5f42353a42fc0322ba95a3,2,,,,,,pawn,,,,,,,,,,,5,2,0,1,1,46,1,,,,,,,,,,,,,,,,,,,,,,,,,,,,,,,,,,,,,,,,,,,,,,,,,,,,,,,,,,,,,,,,,,,,,,
,,?,0.001655,0,,,,,,stimuli/images/PICTURE_311.png,FLESH,599614af004c4f0001cc8642,05/08/1952,2020-09-14_11h14.45.225,proactive3.2,2020.1.2,Win32,60,5f5adea66120081ea0f57a61,5f5f42353a42fc0322ba95a3,2,,,,,,razor,,,,,,,,,,,1,2,0,2,2,3,1,,,,,,,,,,,,,,,,,,,,,,,,,,,,,,,,,,,,,,,,,,,,,,,,,,,,,,,,,,,,,,,,,,,,,,
,,?,0.001575,0,,,,,,stimuli/images/PICTURE_348.png,TOILET,599614af004c4f0001cc8642,05/08/1952,2020-09-14_11h14.45.225,proactive3.2,2020.1.2,Win32,60,5f5adea66120081ea0f57a61,5f5f42353a42fc0322ba95a3,2,,,,,,pepper,,,,,,,,,,,1,2,0,3,3,4,1,,,,,,,,,,,,,,,,,,,,,,,,,,,,,,,,,,,,,,,,,,,,,,,,,,,,,,,,,,,,,,,,,,,,,,
,,?,0.001575,0,,,,,,stimuli/images/PICTURE_692.png,DUDE,599614af004c4f0001cc8642,05/08/1952,2020-09-14_11h14.45.225,proactive3.2,2020.1.2,Win32,60,5f5adea66120081ea0f57a61,5f5f42353a42fc0322ba95a3,2,,,,,,cherry,,,,,,,,,,,5,2,0,4,4,47,1,,,,,,,,,,,,,,,,,,,,,,,,,,,,,,,,,,,,,,,,,,,,,,,,,,,,,,,,,,,,,,,,,,,,,,
,,?,0.00116,0,,,,,,stimuli/images/PICTURE_405.png,JUNGLE,599614af004c4f0001cc8642,05/08/1952,2020-09-14_11h14.45.225,proactive3.2,2020.1.2,Win32,60,5f5adea66120081ea0f57a61,5f5f42353a42fc0322ba95a3,2,,,,,,anchor,,,,,,,,,,,6,2,0,5,5,58,1,,,,,,,,,,,,,,,,,,,,,,,,,,,,,,,,,,,,,,,,,,,,,,,,,,,,,,,,,,,,,,,,,,,,,,
,,?,0.00096,0,,,,,,stimuli/images/PICTURE_470.png,BEAUTY,599614af004c4f0001cc8642,05/08/1952,2020-09-14_11h14.45.225,proactive3.2,2020.1.2,Win32,60,5f5adea66120081ea0f57a61,5f5f42353a42fc0322ba95a3,2,,,,,,motorbike,,,,,,,,,,,3,2,0,6,6,26,1,,,,,,,,,,,,,,,,,,,,,,,,,,,,,,,,,,,,,,,,,,,,,,,,,,,,,,,,,,,,,,,,,,,,,,
,,?,0.000885,0,,,,,,stimuli/images/PICTURE_403.png,FAMILY,599614af004c4f0001cc8642,05/08/1952,2020-09-14_11h14.45.225,proactive3.2,2020.1.2,Win32,60,5f5adea66120081ea0f57a61,5f5f42353a42fc0322ba95a3,2,,,,,,cathedral,,,,,,,,,,,1,2,0,7,7,9,1,,,,,,,,,,,,,,,,,,,,,,,,,,,,,,,,,,,,,,,,,,,,,,,,,,,,,,,,,,,,,,,,,,,,,,
,,PHOTO,5.524025,1,,,,,,stimuli/images/PICTURE_677.png,PHOTO,599614af004c4f0001cc8642,05/08/1952,2020-09-14_11h14.45.225,proactive3.2,2020.1.2,Win32,60,5f5adea66120081ea0f57a61,5f5f42353a42fc0322ba95a3,2,,,,,,map,,,,,,,,,,,2,2,0,8,8,14,1,,,,,,,,,,,,,,,,,,,,,,,,,,,,,,,,,,,,,,,,,,,,,,,,,,,,,,,,,,,,,,,,,,,,,,
,,?,0.00132,0,,,,,,stimuli/images/PICTURE_348.png,DUDE,599614af004c4f0001cc8642,05/08/1952,2020-09-14_11h14.45.225,proactive3.2,2020.1.2,Win32,60,5f5adea66120081ea0f57a61,5f5f42353a42fc0322ba95a3,2,,,,,,pepper,,,,,,,,,,,6,2,0,9,9,59,1,,,,,,,,,,,,,,,,,,,,,,,,,,,,,,,,,,,,,,,,,,,,,,,,,,,,,,,,,,,,,,,,,,,,,,
,,?,0.00122,0,,,,,,stimuli/images/PICTURE_285.png,WRITER,599614af004c4f0001cc8642,05/08/1952,2020-09-14_11h14.45.225,proactive3.2,2020.1.2,Win32,60,5f5adea66120081ea0f57a61,5f5f42353a42fc0322ba95a3,2,,,,,,carrot,,,,,,,,,,,1,2,0,10,10,6,1,,,,,,,,,,,,,,,,,,,,,,,,,,,,,,,,,,,,,,,,,,,,,,,,,,,,,,,,,,,,,,,,,,,,,,
,,LEADER,7.959295,1,,,,,,stimuli/images/PICTURE_327.png,LEADER,599614af004c4f0001cc8642,05/08/1952,2020-09-14_11h14.45.225,proactive3.2,2020.1.2,Win32,60,5f5adea66120081ea0f57a61,5f5f42353a42fc0322ba95a3,2,,,,,,helmet,,,,,,,,,,,2,2,0,11,11,17,1,,,,,,,,,,,,,,,,,,,,,,,,,,,,,,,,,,,,,,,,,,,,,,,,,,,,,,,,,,,,,,,,,,,,,,
,,?,0.00345,0,,,,,,stimuli/images/PICTURE_147.png,LEADER,599614af004c4f0001cc8642,05/08/1952,2020-09-14_11h14.45.225,proactive3.2,2020.1.2,Win32,60,5f5adea66120081ea0f57a61,5f5f42353a42fc0322ba95a3,2,,,,,,hanger,,,,,,,,,,,4,2,0,12,12,33,1,,,,,,,,,,,,,,,,,,,,,,,,,,,,,,,,,,,,,,,,,,,,,,,,,,,,,,,,,,,,,,,,,,,,,,
,,?,0.003005,0,,,,,,stimuli/images/PICTURE_95.png,NIGHT,599614af004c4f0001cc8642,05/08/1952,2020-09-14_11h14.45.225,proactive3.2,2020.1.2,Win32,60,5f5adea66120081ea0f57a61,5f5f42353a42fc0322ba95a3,2,,,,,,suitcase,,,,,,,,,,,4,2,0,13,13,37,1,,,,,,,,,,,,,,,,,,,,,,,,,,,,,,,,,,,,,,,,,,,,,,,,,,,,,,,,,,,,,,,,,,,,,,
,,?,0.001755,0,,,,,,stimuli/images/PICTURE_2.png,YARD,599614af004c4f0001cc8642,05/08/1952,2020-09-14_11h14.45.225,proactive3.2,2020.1.2,Win32,60,5f5adea66120081ea0f57a61,5f5f42353a42fc0322ba95a3,2,,,,,,tyre,,,,,,,,,,,6,2,0,14,14,55,1,,,,,,,,,,,,,,,,,,,,,,,,,,,,,,,,,,,,,,,,,,,,,,,,,,,,,,,,,,,,,,,,,,,,,,
,,?,0.00152,0,,,,,,stimuli/images/PICTURE_177.png,HOUSE,599614af004c4f0001cc8642,05/08/1952,2020-09-14_11h14.45.225,proactive3.2,2020.1.2,Win32,60,5f5adea66120081ea0f57a61,5f5f42353a42fc0322ba95a3,2,,,,,,mushroom,,,,,,,,,,,3,2,0,15,15,25,1,,,,,,,,,,,,,,,,,,,,,,,,,,,,,,,,,,,,,,,,,,,,,,,,,,,,,,,,,,,,,,,,,,,,,,
,,?,0.001165,0,,,,,,stimuli/images/PICTURE_297.png,BODY,599614af004c4f0001cc8642,05/08/1952,2020-09-14_11h14.45.225,proactive3.2,2020.1.2,Win32,60,5f5adea66120081ea0f57a61,5f5f42353a42fc0322ba95a3,2,,,,,,aeroplane,,,,,,,,,,,6,2,0,16,16,51,1,,,,,,,,,,,,,,,,,,,,,,,,,,,,,,,,,,,,,,,,,,,,,,,,,,,,,,,,,,,,,,,,,,,,,,
,,?,0.003345,0,,,,,,stimuli/images/PICTURE_2.png,AREA,599614af004c4f0001cc8642,05/08/1952,2020-09-14_11h14.45.225,proactive3.2,2020.1.2,Win32,60,5f5adea66120081ea0f57a61,5f5f42353a42fc0322ba95a3,2,,,,,,tyre,,,,,,,,,,,4,2,0,17,17,32,1,,,,,,,,,,,,,,,,,,,,,,,,,,,,,,,,,,,,,,,,,,,,,,,,,,,,,,,,,,,,,,,,,,,,,,
,,?,0.001505,0,,,,,,stimuli/images/PICTURE_487.png,ROOF,599614af004c4f0001cc8642,05/08/1952,2020-09-14_11h14.45.225,proactive3.2,2020.1.2,Win32,60,5f5adea66120081ea0f57a61,5f5f42353a42fc0322ba95a3,2,,,,,,basket,,,,,,,,,,,6,2,0,18,18,50,1,,,,,,,,,,,,,,,,,,,,,,,,,,,,,,,,,,,,,,,,,,,,,,,,,,,,,,,,,,,,,,,,,,,,,,
,,?,0.000885,0,,,,,,stimuli/images/PICTURE_2.png,JUNGLE,599614af004c4f0001cc8642,05/08/1952,2020-09-14_11h14.45.225,proactive3.2,2020.1.2,Win32,60,5f5adea66120081ea0f57a61,5f5f42353a42fc0322ba95a3,2,,,,,,tyre,,,,,,,,,,,1,2,0,19,19,1,1,,,,,,,,,,,,,,,,,,,,,,,,,,,,,,,,,,,,,,,,,,,,,,,,,,,,,,,,,,,,,,,,,,,,,,
,,?,0.000915,0,,,,,,stimuli/images/PICTURE_405.png,HOUSE,599614af004c4f0001cc8642,05/08/1952,2020-09-14_11h14.45.225,proactive3.2,2020.1.2,Win32,60,5f5adea66120081ea0f57a61,5f5f42353a42fc0322ba95a3,2,,,,,,anchor,,,,,,,,,,,1,2,0,20,20,2,1,,,,,,,,,,,,,,,,,,,,,,,,,,,,,,,,,,,,,,,,,,,,,,,,,,,,,,,,,,,,,,,,,,,,,,
,,COPS,4.80913,1,,,,,,stimuli/images/PICTURE_654.png,COPS,599614af004c4f0001cc8642,05/08/1952,2020-09-14_11h14.45.225,proactive3.2,2020.1.2,Win32,60,5f5adea66120081ea0f57a61,5f5f42353a42fc0322ba95a3,2,,,,,,pencil,,,,,,,,,,,2,2,0,21,21,10,1,,,,,,,,,,,,,,,,,,,,,,,,,,,,,,,,,,,,,,,,,,,,,,,,,,,,,,,,,,,,,,,,,,,,,,
,,?,0.003715,0,,,,,,stimuli/images/PICTURE_708.png,VALLEY,599614af004c4f0001cc8642,05/08/1952,2020-09-14_11h14.45.225,proactive3.2,2020.1.2,Win32,60,5f5adea66120081ea0f57a61,5f5f42353a42fc0322ba95a3,2,,,,,,monkey,,,,,,,,,,,5,2,0,22,22,45,1,,,,,,,,,,,,,,,,,,,,,,,,,,,,,,,,,,,,,,,,,,,,,,,,,,,,,,,,,,,,,,,,,,,,,,
,,PLENTY,5.503825,1,,,,,,stimuli/images/PICTURE_564.png,PLENTY,599614af004c4f0001cc8642,05/08/1952,2020-09-14_11h14.45.225,proactive3.2,2020.1.2,Win32,60,5f5adea66120081ea0f57a61,5f5f42353a42fc0322ba95a3,2,,,,,,spoon,,,,,,,,,,,2,2,0,23,23,11,1,,,,,,,,,,,,,,,,,,,,,,,,,,,,,,,,,,,,,,,,,,,,,,,,,,,,,,,,,,,,,,,,,,,,,,
,,?,0.00183,0,,,,,,stimuli/images/PICTURE_18.png,RIVER,599614af004c4f0001cc8642,05/08/1952,2020-09-14_11h14.45.225,proactive3.2,2020.1.2,Win32,60,5f5adea66120081ea0f57a61,5f5f42353a42fc0322ba95a3,2,,,,,,planet,,,,,,,,,,,3,2,0,24,24,22,1,,,,,,,,,,,,,,,,,,,,,,,,,,,,,,,,,,,,,,,,,,,,,,,,,,,,,,,,,,,,,,,,,,,,,,
,,?,0.00155,0,,,,,,stimuli/images/PICTURE_123.png,SALE,599614af004c4f0001cc8642,05/08/1952,2020-09-14_11h14.45.225,proactive3.2,2020.1.2,Win32,60,5f5adea66120081ea0f57a61,5f5f42353a42fc0322ba95a3,2,,,,,,dart,,,,,,,,,,,1,2,0,25,25,8,1,,,,,,,,,,,,,,,,,,,,,,,,,,,,,,,,,,,,,,,,,,,,,,,,,,,,,,,,,,,,,,,,,,,,,,
,,?,0.001565,0,,,,,,stimuli/images/PICTURE_504.png,HOUSE,599614af004c4f0001cc8642,05/08/1952,2020-09-14_11h14.45.225,proactive3.2,2020.1.2,Win32,60,5f5adea66120081ea0f57a61,5f5f42353a42fc0322ba95a3,2,,,,,,wheel,,,,,,,,,,,4,2,0,26,26,36,1,,,,,,,,,,,,,,,,,,,,,,,,,,,,,,,,,,,,,,,,,,,,,,,,,,,,,,,,,,,,,,,,,,,,,,
,,?,3.836055,0,,,,,,stimuli/images/PICTURE_255.png,PENNY,599614af004c4f0001cc8642,05/08/1952,2020-09-14_11h14.45.225,proactive3.2,2020.1.2,Win32,60,5f5adea66120081ea0f57a61,5f5f42353a42fc0322ba95a3,2,,,,,,shovel,,,,,,,,,,,2,2,0,27,27,19,1,,,,,,,,,,,,,,,,,,,,,,,,,,,,,,,,,,,,,,,,,,,,,,,,,,,,,,,,,,,,,,,,,,,,,,
,,?,0.0017,0,,,,,,stimuli/images/PICTURE_453.png,FAMILY,599614af004c4f0001cc8642,05/08/1952,2020-09-14_11h14.45.225,proactive3.2,2020.1.2,Win32,60,5f5adea66120081ea0f57a61,5f5f42353a42fc0322ba95a3,2,,,,,,scissors,,,,,,,,,,,5,2,0,28,28,48,1,,,,,,,,,,,,,,,,,,,,,,,,,,,,,,,,,,,,,,,,,,,,,,,,,,,,,,,,,,,,,,,,,,,,,,
,,?,0.00159,0,,,,,,stimuli/images/PICTURE_509.png,MILLER,599614af004c4f0001cc8642,05/08/1952,2020-09-14_11h14.45.225,proactive3.2,2020.1.2,Win32,60,5f5adea66120081ea0f57a61,5f5f42353a42fc0322ba95a3,2,,,,,,telephone,,,,,,,,,,,5,2,0,29,29,49,1,,,,,,,,,,,,,,,,,,,,,,,,,,,,,,,,,,,,,,,,,,,,,,,,,,,,,,,,,,,,,,,,,,,,,,
,,?,0.0014,0,,,,,,stimuli/images/PICTURE_141.png,CLIENT,599614af004c4f0001cc8642,05/08/1952,2020-09-14_11h14.45.225,proactive3.2,2020.1.2,Win32,60,5f5adea66120081ea0f57a61,5f5f42353a42fc0322ba95a3,2,,,,,,sunflower,,,,,,,,,,,4,2,0,30,30,30,1,,,,,,,,,,,,,,,,,,,,,,,,,,,,,,,,,,,,,,,,,,,,,,,,,,,,,,,,,,,,,,,,,,,,,,
,,?,0.00109,0,,,,,,stimuli/images/PICTURE_33.png,COPS,599614af004c4f0001cc8642,05/08/1952,2020-09-14_11h14.45.225,proactive3.2,2020.1.2,Win32,60,5f5adea66120081ea0f57a61,5f5f42353a42fc0322ba95a3,2,,,,,,frame,,,,,,,,,,,3,2,0,31,31,29,1,,,,,,,,,,,,,,,,,,,,,,,,,,,,,,,,,,,,,,,,,,,,,,,,,,,,,,,,,,,,,,,,,,,,,,
,,?,0.00085,0,,,,,,stimuli/images/PICTURE_57.png,CANDY,599614af004c4f0001cc8642,05/08/1952,2020-09-14_11h14.45.225,proactive3.2,2020.1.2,Win32,60,5f5adea66120081ea0f57a61,5f5f42353a42fc0322ba95a3,2,,,,,,stamp,,,,,,,,,,,6,2,0,32,32,52,1,,,,,,,,,,,,,,,,,,,,,,,,,,,,,,,,,,,,,,,,,,,,,,,,,,,,,,,,,,,,,,,,,,,,,,
,,BATH,6.277905,1,,,,,,stimuli/images/PICTURE_509.png,BATH,599614af004c4f0001cc8642,05/08/1952,2020-09-14_11h14.45.225,proactive3.2,2020.1.2,Win32,60,5f5adea66120081ea0f57a61,5f5f42353a42fc0322ba95a3,2,,,,,,telephone,,,,,,,,,,,2,2,0,33,33,15,1,,,,,,,,,,,,,,,,,,,,,,,,,,,,,,,,,,,,,,,,,,,,,,,,,,,,,,,,,,,,,,,,,,,,,,
,,?,0.004,0,,,,,,stimuli/images/PICTURE_509.png,APPLE,599614af004c4f0001cc8642,05/08/1952,2020-09-14_11h14.45.225,proactive3.2,2020.1.2,Win32,60,5f5adea66120081ea0f57a61,5f5f42353a42fc0322ba95a3,2,,,,,,telephone,,,,,,,,,,,4,2,0,34,34,38,1,,,,,,,,,,,,,,,,,,,,,,,,,,,,,,,,,,,,,,,,,,,,,,,,,,,,,,,,,,,,,,,,,,,,,,
,,?,0.002925,0,,,,,,stimuli/images/PICTURE_215.png,LEADER,599614af004c4f0001cc8642,05/08/1952,2020-09-14_11h14.45.225,proactive3.2,2020.1.2,Win32,60,5f5adea66120081ea0f57a61,5f5f42353a42fc0322ba95a3,2,,,,,,boot,,,,,,,,,,,5,2,0,35,35,43,1,,,,,,,,,,,,,,,,,,,,,,,,,,,,,,,,,,,,,,,,,,,,,,,,,,,,,,,,,,,,,,,,,,,,,,
,,?,0.002485,0,,,,,,stimuli/images/PICTURE_215.png,FOOD,599614af004c4f0001cc8642,05/08/1952,2020-09-14_11h14.45.225,proactive3.2,2020.1.2,Win32,60,5f5adea66120081ea0f57a61,5f5f42353a42fc0322ba95a3,2,,,,,,boot,,,,,,,,,,,1,2,0,36,36,5,1,,,,,,,,,,,,,,,,,,,,,,,,,,,,,,,,,,,,,,,,,,,,,,,,,,,,,,,,,,,,,,,,,,,,,,
,,?,0.00142,0,,,,,,stimuli/images/PICTURE_68.png,KIND,599614af004c4f0001cc8642,05/08/1952,2020-09-14_11h14.45.225,proactive3.2,2020.1.2,Win32,60,5f5adea66120081ea0f57a61,5f5f42353a42fc0322ba95a3,2,,,,,,candle,,,,,,,,,,,3,2,0,37,37,23,1,,,,,,,,,,,,,,,,,,,,,,,,,,,,,,,,,,,,,,,,,,,,,,,,,,,,,,,,,,,,,,,,,,,,,,
,,?,0.00139,0,,,,,,stimuli/images/PICTURE_215.png,BOYS,599614af004c4f0001cc8642,05/08/1952,2020-09-14_11h14.45.225,proactive3.2,2020.1.2,Win32,60,5f5adea66120081ea0f57a61,5f5f42353a42fc0322ba95a3,2,,,,,,boot,,,,,,,,,,,3,2,0,38,38,24,1,,,,,,,,,,,,,,,,,,,,,,,,,,,,,,,,,,,,,,,,,,,,,,,,,,,,,,,,,,,,,,,,,,,,,,
,,?,0.001155,0,,,,,,stimuli/images/PICTURE_208.png,SPIRIT,599614af004c4f0001cc8642,05/08/1952,2020-09-14_11h14.45.225,proactive3.2,2020.1.2,Win32,60,5f5adea66120081ea0f57a61,5f5f42353a42fc0322ba95a3,2,,,,,,microphone,,,,,,,,,,,3,2,0,39,39,28,1,,,,,,,,,,,,,,,,,,,,,,,,,,,,,,,,,,,,,,,,,,,,,,,,,,,,,,,,,,,,,,,,,,,,,,
,,?,0.000795,0,,,,,,stimuli/images/PICTURE_32.png,LETTER,599614af004c4f0001cc8642,05/08/1952,2020-09-14_11h14.45.225,proactive3.2,2020.1.2,Win32,60,5f5adea66120081ea0f57a61,5f5f42353a42fc0322ba95a3,2,,,,,,crown,,,,,,,,,,,6,2,0,40,40,56,1,,,,,,,,,,,,,,,,,,,,,,,,,,,,,,,,,,,,,,,,,,,,,,,,,,,,,,,,,,,,,,,,,,,,,,
,,?,0.000685,0,,,,,,stimuli/images/PICTURE_93.png,GIRL,599614af004c4f0001cc8642,05/08/1952,2020-09-14_11h14.45.225,proactive3.2,2020.1.2,Win32,60,5f5adea66120081ea0f57a61,5f5f42353a42fc0322ba95a3,2,,,,,,skateboard,,,,,,,,,,,4,2,0,41,41,31,1,,,,,,,,,,,,,,,,,,,,,,,,,,,,,,,,,,,,,,,,,,,,,,,,,,,,,,,,,,,,,,,,,,,,,,
,,?,0.00096,0,,,,,,stimuli/images/PICTURE_677.png,FAMILY,599614af004c4f0001cc8642,05/08/1952,2020-09-14_11h14.45.225,proactive3.2,2020.1.2,Win32,60,5f5adea66120081ea0f57a61,5f5f42353a42fc0322ba95a3,2,,,,,,map,,,,,,,,,,,6,2,0,42,42,53,1,,,,,,,,,,,,,,,,,,,,,,,,,,,,,,,,,,,,,,,,,,,,,,,,,,,,,,,,,,,,,,,,,,,,,,
,,?,0.00074,0,,,,,,stimuli/images/PICTURE_311.png,TOILET,599614af004c4f0001cc8642,05/08/1952,2020-09-14_11h14.45.225,proactive3.2,2020.1.2,Win32,60,5f5adea66120081ea0f57a61,5f5f42353a42fc0322ba95a3,2,,,,,,razor,,,,,,,,,,,6,2,0,43,43,54,1,,,,,,,,,,,,,,,,,,,,,,,,,,,,,,,,,,,,,,,,,,,,,,,,,,,,,,,,,,,,,,,,,,,,,,
,,?,0.0006,0,,,,,,stimuli/images/PICTURE_452.png,COPS,599614af004c4f0001cc8642,05/08/1952,2020-09-14_11h14.45.225,proactive3.2,2020.1.2,Win32,60,5f5adea66120081ea0f57a61,5f5f42353a42fc0322ba95a3,2,,,,,,watch,,,,,,,,,,,1,2,0,44,44,0,1,,,,,,,,,,,,,,,,,,,,,,,,,,,,,,,,,,,,,,,,,,,,,,,,,,,,,,,,,,,,,,,,,,,,,,
,,CLOCK,4.119635,1,,,,,,stimuli/images/PICTURE_296.png,CLOCK,599614af004c4f0001cc8642,05/08/1952,2020-09-14_11h14.45.225,proactive3.2,2020.1.2,Win32,60,5f5adea66120081ea0f57a61,5f5f42353a42fc0322ba95a3,2,,,,,,bolt,,,,,,,,,,,2,2,0,45,45,18,1,,,,,,,,,,,,,,,,,,,,,,,,,,,,,,,,,,,,,,,,,,,,,,,,,,,,,,,,,,,,,,,,,,,,,,
,,?,3.766335,0,,,,,,stimuli/images/PICTURE_57.png,CASINO,599614af004c4f0001cc8642,05/08/1952,2020-09-14_11h14.45.225,proactive3.2,2020.1.2,Win32,60,5f5adea66120081ea0f57a61,5f5f42353a42fc0322ba95a3,2,,,,,,stamp,,,,,,,,,,,2,2,0,46,46,12,1,,,,,,,,,,,,,,,,,,,,,,,,,,,,,,,,,,,,,,,,,,,,,,,,,,,,,,,,,,,,,,,,,,,,,,
,,?,0.001065,0,,,,,,stimuli/images/PICTURE_667.png,GLASS,599614af004c4f0001cc8642,05/08/1952,2020-09-14_11h14.45.225,proactive3.2,2020.1.2,Win32,60,5f5adea66120081ea0f57a61,5f5f42353a42fc0322ba95a3,2,,,,,,daisy,,,,,,,,,,,3,2,0,47,47,27,1,,,,,,,,,,,,,,,,,,,,,,,,,,,,,,,,,,,,,,,,,,,,,,,,,,,,,,,,,,,,,,,,,,,,,,
,,?,0.00094,0,,,,,,stimuli/images/PICTURE_509.png,SHOTS,599614af004c4f0001cc8642,05/08/1952,2020-09-14_11h14.45.225,proactive3.2,2020.1.2,Win32,60,5f5adea66120081ea0f57a61,5f5f42353a42fc0322ba95a3,2,,,,,,telephone,,,,,,,,,,,1,2,0,48,48,7,1,,,,,,,,,,,,,,,,,,,,,,,,,,,,,,,,,,,,,,,,,,,,,,,,,,,,,,,,,,,,,,,,,,,,,,
,,?,0.000925,0,,,,,,stimuli/images/PICTURE_750.png,POLICY,599614af004c4f0001cc8642,05/08/1952,2020-09-14_11h14.45.225,proactive3.2,2020.1.2,Win32,60,5f5adea66120081ea0f57a61,5f5f42353a42fc0322ba95a3,2,,,,,,kettle,,,,,,,,,,,5,2,0,49,49,44,1,,,,,,,,,,,,,,,,,,,,,,,,,,,,,,,,,,,,,,,,,,,,,,,,,,,,,,,,,,,,,,,,,,,,,,
,,?,0.00091,0,,,,,,stimuli/images/PICTURE_57.png,NATION,599614af004c4f0001cc8642,05/08/1952,2020-09-14_11h14.45.225,proactive3.2,2020.1.2,Win32,60,5f5adea66120081ea0f57a61,5f5f42353a42fc0322ba95a3,2,,,,,,stamp,,,,,,,,,,,3,2,0,50,50,21,1,,,,,,,,,,,,,,,,,,,,,,,,,,,,,,,,,,,,,,,,,,,,,,,,,,,,,,,,,,,,,,,,,,,,,,
,,?,0.00093,0,,,,,,stimuli/images/PICTURE_314.png,SPEECH,599614af004c4f0001cc8642,05/08/1952,2020-09-14_11h14.45.225,proactive3.2,2020.1.2,Win32,60,5f5adea66120081ea0f57a61,5f5f42353a42fc0322ba95a3,2,,,,,,perfume,,,,,,,,,,,4,2,0,51,51,35,1,,,,,,,,,,,,,,,,,,,,,,,,,,,,,,,,,,,,,,,,,,,,,,,,,,,,,,,,,,,,,,,,,,,,,,
,,?,0.00109,0,,,,,,stimuli/images/PICTURE_491.png,SERIES,599614af004c4f0001cc8642,05/08/1952,2020-09-14_11h14.45.225,proactive3.2,2020.1.2,Win32,60,5f5adea66120081ea0f57a61,5f5f42353a42fc0322ba95a3,2,,,,,,rug,,,,,,,,,,,4,2,0,52,52,39,1,,,,,,,,,,,,,,,,,,,,,,,,,,,,,,,,,,,,,,,,,,,,,,,,,,,,,,,,,,,,,,,,,,,,,,
,,?,0.000775,0,,,,,,stimuli/images/PICTURE_487.png,POLICY,599614af004c4f0001cc8642,05/08/1952,2020-09-14_11h14.45.225,proactive3.2,2020.1.2,Win32,60,5f5adea66120081ea0f57a61,5f5f42353a42fc0322ba95a3,2,,,,,,basket,,,,,,,,,,,4,2,0,53,53,34,1,,,,,,,,,,,,,,,,,,,,,,,,,,,,,,,,,,,,,,,,,,,,,,,,,,,,,,,,,,,,,,,,,,,,,,
,,?,0.000725,0,,,,,,stimuli/images/PICTURE_654.png,YEAR,599614af004c4f0001cc8642,05/08/1952,2020-09-14_11h14.45.225,proactive3.2,2020.1.2,Win32,60,5f5adea66120081ea0f57a61,5f5f42353a42fc0322ba95a3,2,,,,,,pencil,,,,,,,,,,,5,2,0,54,54,41,1,,,,,,,,,,,,,,,,,,,,,,,,,,,,,,,,,,,,,,,,,,,,,,,,,,,,,,,,,,,,,,,,,,,,,,
,,?,0.00064,0,,,,,,stimuli/images/PICTURE_655.png,SALE,599614af004c4f0001cc8642,05/08/1952,2020-09-14_11h14.45.225,proactive3.2,2020.1.2,Win32,60,5f5adea66120081ea0f57a61,5f5f42353a42fc0322ba95a3,2,,,,,,megaphone,,,,,,,,,,,6,2,0,55,55,57,1,,,,,,,,,,,,,,,,,,,,,,,,,,,,,,,,,,,,,,,,,,,,,,,,,,,,,,,,,,,,,,,,,,,,,,
,,?,0.00064,0,,,,,,stimuli/images/PICTURE_688.png,CLOCK,599614af004c4f0001cc8642,05/08/1952,2020-09-14_11h14.45.225,proactive3.2,2020.1.2,Win32,60,5f5adea66120081ea0f57a61,5f5f42353a42fc0322ba95a3,2,,,,,,runner,,,,,,,,,,,5,2,0,56,56,42,1,,,,,,,,,,,,,,,,,,,,,,,,,,,,,,,,,,,,,,,,,,,,,,,,,,,,,,,,,,,,,,,,,,,,,,
,,HOTEL,7.35971,1,,,,,,stimuli/images/PICTURE_160.png,HOTEL,599614af004c4f0001cc8642,05/08/1952,2020-09-14_11h14.45.225,proactive3.2,2020.1.2,Win32,60,5f5adea66120081ea0f57a61,5f5f42353a42fc0322ba95a3,2,,,,,,wheelbarrow,,,,,,,,,,,2,2,0,57,57,16,1,,,,,,,,,,,,,,,,,,,,,,,,,,,,,,,,,,,,,,,,,,,,,,,,,,,,,,,,,,,,,,,,,,,,,,
,,?,0.00074,0,,,,,,stimuli/images/PICTURE_470.png,MOMENT,599614af004c4f0001cc8642,05/08/1952,2020-09-14_11h14.45.225,proactive3.2,2020.1.2,Win32,60,5f5adea66120081ea0f57a61,5f5f42353a42fc0322ba95a3,2,,,,,,motorbike,,,,,,,,,,,5,2,0,58,58,40,1,,,,,,,,,,,,,,,,,,,,,,,,,,,,,,,,,,,,,,,,,,,,,,,,,,,,,,,,,,,,,,,,,,,,,,
,,DOWN,4.430595,0,,,,,,stimuli/images/PICTURE_405.png,JUNGLE,599614af004c4f0001cc8642,05/08/1952,2020-09-14_11h14.45.225,proactive3.2,2020.1.2,Win32,60,5f5adea66120081ea0f57a61,5f5f42353a42fc0322ba95a3,2,,,,,,anchor,,,,,,,,,,,2,2,0,59,59,13,1,,,,,,,,,,,,,,,,,,,,,,,,,,,,,,,,,,,,,,,,,,,,,,,,,,,,,,,,,,,,,,,,,,,,,,
,,,,,,,,,,,,599614af004c4f0001cc8642,05/08/1952,2020-09-14_11h14.45.225,proactive3.2,2020.1.2,Win32,60,5f5adea66120081ea0f57a61,5f5f42353a42fc0322ba95a3,2,,,,,,,,,,,,,,,,,,,,,,,,0,1,1,2,1,stimuli/learn-block3.csv,,,,,,,,,,,,,,,,,,,,,,,,,,,,,,,,,,,,,,,,,,,,,,,,,,,,,,,,,,,,,,,,
,,,,,,,,,,stimuli/images/PICTURE_85.png,TOILET,599614af004c4f0001cc8642,05/08/1952,2020-09-14_11h14.45.225,proactive3.2,2020.1.2,Win32,60,5f5adea66120081ea0f57a61,5f5f42353a42fc0322ba95a3,2,,,,,,diamond,,,,,,0,0,0,48,1,5,1,,,,,,,,,,,,,,,,,,,,,,,,,,,,,,,,,,,,,,,,,,,,,,,,,,,,,,,,,,,,,,,,,,,,,,,,,,,
,,,,,,,,,,stimuli/images/PICTURE_449.png,DUDE,599614af004c4f0001cc8642,05/08/1952,2020-09-14_11h14.45.225,proactive3.2,2020.1.2,Win32,60,5f5adea66120081ea0f57a61,5f5f42353a42fc0322ba95a3,2,,,,,,bench,,,,,,0,1,1,17,1,2,1,,,,,,,,,,,,,,,,,,,,,,,,,,,,,,,,,,,,,,,,,,,,,,,,,,,,,,,,,,,,,,,,,,,,,,,,,,,
,,,,,,,,,,stimuli/images/PICTURE_296.png,LOTS,599614af004c4f0001cc8642,05/08/1952,2020-09-14_11h14.45.225,proactive3.2,2020.1.2,Win32,60,5f5adea66120081ea0f57a61,5f5f42353a42fc0322ba95a3,2,,,,,,bolt,,,,,,0,2,2,9,1,1,1,,,,,,,,,,,,,,,,,,,,,,,,,,,,,,,,,,,,,,,,,,,,,,,,,,,,,,,,,,,,,,,,,,,,,,,,,,,
,,,,,,,,,,stimuli/images/PICTURE_504.png,YEAR,599614af004c4f0001cc8642,05/08/1952,2020-09-14_11h14.45.225,proactive3.2,2020.1.2,Win32,60,5f5adea66120081ea0f57a61,5f5f42353a42fc0322ba95a3,2,,,,,,wheel,,,,,,0,3,3,13,1,2,1,,,,,,,,,,,,,,,,,,,,,,,,,,,,,,,,,,,,,,,,,,,,,,,,,,,,,,,,,,,,,,,,,,,,,,,,,,,
,,,,,,,,,,stimuli/images/PICTURE_308.png,FAMILY,599614af004c4f0001cc8642,05/08/1952,2020-09-14_11h14.45.225,proactive3.2,2020.1.2,Win32,60,5f5adea66120081ea0f57a61,5f5f42353a42fc0322ba95a3,2,,,,,,dice,,,,,,0,4,4,36,1,4,1,,,,,,,,,,,,,,,,,,,,,,,,,,,,,,,,,,,,,,,,,,,,,,,,,,,,,,,,,,,,,,,,,,,,,,,,,,,
,,,,,,,,,,stimuli/images/PICTURE_340.png,LETTER,599614af004c4f0001cc8642,05/08/1952,2020-09-14_11h14.45.225,proactive3.2,2020.1.2,Win32,60,5f5adea66120081ea0f57a61,5f5f42353a42fc0322ba95a3,2,,,,,,mirror,,,,,,0,5,5,24,1,3,1,,,,,,,,,,,,,,,,,,,,,,,,,,,,,,,,,,,,,,,,,,,,,,,,,,,,,,,,,,,,,,,,,,,,,,,,,,,
,,,,,,,,,,stimuli/images/PICTURE_108.png,FLIGHT,599614af004c4f0001cc8642,05/08/1952,2020-09-14_11h14.45.225,proactive3.2,2020.1.2,Win32,60,5f5adea66120081ea0f57a61,5f5f42353a42fc0322ba95a3,2,,,,,,calendar,,,,,,0,6,6,59,1,6,1,,,,,,,,,,,,,,,,,,,,,,,,,,,,,,,,,,,,,,,,,,,,,,,,,,,,,,,,,,,,,,,,,,,,,,,,,,,
,,,,,,,,,,stimuli/images/PICTURE_95.png,MILLER,599614af004c4f0001cc8642,05/08/1952,2020-09-14_11h14.45.225,proactive3.2,2020.1.2,Win32,60,5f5adea66120081ea0f57a61,5f5f42353a42fc0322ba95a3,2,,,,,,suitcase,,,,,,0,7,7,56,1,6,1,,,,,,,,,,,,,,,,,,,,,,,,,,,,,,,,,,,,,,,,,,,,,,,,,,,,,,,,,,,,,,,,,,,,,,,,,,,
,,,,,,,,,,stimuli/images/PICTURE_383.png,SERIES,599614af004c4f0001cc8642,05/08/1952,2020-09-14_11h14.45.225,proactive3.2,2020.1.2,Win32,60,5f5adea66120081ea0f57a61,5f5f42353a42fc0322ba95a3,2,,,,,,coin,,,,,,0,8,8,46,1,5,1,,,,,,,,,,,,,,,,,,,,,,,,,,,,,,,,,,,,,,,,,,,,,,,,,,,,,,,,,,,,,,,,,,,,,,,,,,,
,,,,,,,,,,stimuli/images/PICTURE_677.png,APPLE,599614af004c4f0001cc8642,05/08/1952,2020-09-14_11h14.45.225,proactive3.2,2020.1.2,Win32,60,5f5adea66120081ea0f57a61,5f5f42353a42fc0322ba95a3,2,,,,,,map,,,,,,0,9,9,43,1,5,1,,,,,,,,,,,,,,,,,,,,,,,,,,,,,,,,,,,,,,,,,,,,,,,,,,,,,,,,,,,,,,,,,,,,,,,,,,,
,,,,,,,,,,stimuli/images/PICTURE_42.png,BOYS,599614af004c4f0001cc8642,05/08/1952,2020-09-14_11h14.45.225,proactive3.2,2020.1.2,Win32,60,5f5adea66120081ea0f57a61,5f5f42353a42fc0322ba95a3,2,,,,,,pear,,,,,,0,10,10,55,1,6,1,,,,,,,,,,,,,,,,,,,,,,,,,,,,,,,,,,,,,,,,,,,,,,,,,,,,,,,,,,,,,,,,,,,,,,,,,,,
,,,,,,,,,,stimuli/images/PICTURE_487.png,GIRL,599614af004c4f0001cc8642,05/08/1952,2020-09-14_11h14.45.225,proactive3.2,2020.1.2,Win32,60,5f5adea66120081ea0f57a61,5f5f42353a42fc0322ba95a3,2,,,,,,basket,,,,,,0,11,11,45,1,5,1,,,,,,,,,,,,,,,,,,,,,,,,,,,,,,,,,,,,,,,,,,,,,,,,,,,,,,,,,,,,,,,,,,,,,,,,,,,
,,,,,,,,,,stimuli/images/PICTURE_403.png,WRITER,599614af004c4f0001cc8642,05/08/1952,2020-09-14_11h14.45.225,proactive3.2,2020.1.2,Win32,60,5f5adea66120081ea0f57a61,5f5f42353a42fc0322ba95a3,2,,,,,,cathedral,,,,,,0,12,12,31,1,4,1,,,,,,,,,,,,,,,,,,,,,,,,,,,,,,,,,,,,,,,,,,,,,,,,,,,,,,,,,,,,,,,,,,,,,,,,,,,
,,,,,,,,,,stimuli/images/PICTURE_504.png,ARTIST,599614af004c4f0001cc8642,05/08/1952,2020-09-14_11h14.45.225,proactive3.2,2020.1.2,Win32,60,5f5adea66120081ea0f57a61,5f5f42353a42fc0322ba95a3,2,,,,,,wheel,,,,,,0,13,13,49,1,5,1,,,,,,,,,,,,,,,,,,,,,,,,,,,,,,,,,,,,,,,,,,,,,,,,,,,,,,,,,,,,,,,,,,,,,,,,,,,
,,,,,,,,,,stimuli/images/PICTURE_405.png,PLENTY,599614af004c4f0001cc8642,05/08/1952,2020-09-14_11h14.45.225,proactive3.2,2020.1.2,Win32,60,5f5adea66120081ea0f57a61,5f5f42353a42fc0322ba95a3,2,,,,,,anchor,,,,,,0,14,14,23,1,3,1,,,,,,,,,,,,,,,,,,,,,,,,,,,,,,,,,,,,,,,,,,,,,,,,,,,,,,,,,,,,,,,,,,,,,,,,,,,
,,,,,,,,,,stimuli/images/PICTURE_685.png,PENNY,599614af004c4f0001cc8642,05/08/1952,2020-09-14_11h14.45.225,proactive3.2,2020.1.2,Win32,60,5f5adea66120081ea0f57a61,5f5f42353a42fc0322ba95a3,2,,,,,,goose,,,,,,0,15,15,4,1,1,1,,,,,,,,,,,,,,,,,,,,,,,,,,,,,,,,,,,,,,,,,,,,,,,,,,,,,,,,,,,,,,,,,,,,,,,,,,,
,,,,,,,,,,stimuli/images/PICTURE_750.png,HOTEL,599614af004c4f0001cc8642,05/08/1952,2020-09-14_11h14.45.225,proactive3.2,2020.1.2,Win32,60,5f5adea66120081ea0f57a61,5f5f42353a42fc0322ba95a3,2,,,,,,kettle,,,,,,0,16,16,27,1,3,1,,,,,,,,,,,,,,,,,,,,,,,,,,,,,,,,,,,,,,,,,,,,,,,,,,,,,,,,,,,,,,,,,,,,,,,,,,,
,,,,,,,,,,stimuli/images/PICTURE_327.png,SERIES,599614af004c4f0001cc8642,05/08/1952,2020-09-14_11h14.45.225,proactive3.2,2020.1.2,Win32,60,5f5adea66120081ea0f57a61,5f5f42353a42fc0322ba95a3,2,,,,,,helmet,,,,,,0,17,17,3,1,1,1,,,,,,,,,,,,,,,,,,,,,,,,,,,,,,,,,,,,,,,,,,,,,,,,,,,,,,,,,,,,,,,,,,,,,,,,,,,
,,,,,,,,,,stimuli/images/PICTURE_2.png,FLIGHT,599614af004c4f0001cc8642,05/08/1952,2020-09-14_11h14.45.225,proactive3.2,2020.1.2,Win32,60,5f5adea66120081ea0f57a61,5f5f42353a42fc0322ba95a3,2,,,,,,tyre,,,,,,0,18,18,15,1,2,1,,,,,,,,,,,,,,,,,,,,,,,,,,,,,,,,,,,,,,,,,,,,,,,,,,,,,,,,,,,,,,,,,,,,,,,,,,,
,,,,,,,,,,stimuli/images/PICTURE_296.png,LIFE,599614af004c4f0001cc8642,05/08/1952,2020-09-14_11h14.45.225,proactive3.2,2020.1.2,Win32,60,5f5adea66120081ea0f57a61,5f5f42353a42fc0322ba95a3,2,,,,,,bolt,,,,,,0,19,19,57,1,6,1,,,,,,,,,,,,,,,,,,,,,,,,,,,,,,,,,,,,,,,,,,,,,,,,,,,,,,,,,,,,,,,,,,,,,,,,,,,
,,,,,,,,,,stimuli/images/PICTURE_403.png,TOILET,599614af004c4f0001cc8642,05/08/1952,2020-09-14_11h14.45.225,proactive3.2,2020.1.2,Win32,60,5f5adea66120081ea0f57a61,5f5f42353a42fc0322ba95a3,2,,,,,,cathedral,,,,,,0,20,20,25,1,3,1,,,,,,,,,,,,,,,,,,,,,,,,,,,,,,,,,,,,,,,,,,,,,,,,,,,,,,,,,,,,,,,,,,,,,,,,,,,
,,,,,,,,,,stimuli/images/PICTURE_32.png,PILLS,599614af004c4f0001cc8642,05/08/1952,2020-09-14_11h14.45.225,proactive3.2,2020.1.2,Win32,60,5f5adea66120081ea0f57a61,5f5f42353a42fc0322ba95a3,2,,,,,,crown,,,,,,0,21,21,18,1,2,1,,,,,,,,,,,,,,,,,,,,,,,,,,,,,,,,,,,,,,,,,,,,,,,,,,,,,,,,,,,,,,,,,,,,,,,,,,,
,,,,,,,,,,stimuli/images/PICTURE_203.png,GODS,599614af004c4f0001cc8642,05/08/1952,2020-09-14_11h14.45.225,proactive3.2,2020.1.2,Win32,60,5f5adea66120081ea0f57a61,5f5f42353a42fc0322ba95a3,2,,,,,,cap,,,,,,0,22,22,30,1,4,1,,,,,,,,,,,,,,,,,,,,,,,,,,,,,,,,,,,,,,,,,,,,,,,,,,,,,,,,,,,,,,,,,,,,,,,,,,,
,,,,,,,,,,stimuli/images/PICTURE_285.png,LIFE,599614af004c4f0001cc8642,05/08/1952,2020-09-14_11h14.45.225,proactive3.2,2020.1.2,Win32,60,5f5adea66120081ea0f57a61,5f5f42353a42fc0322ba95a3,2,,,,,,carrot,,,,,,0,23,23,33,1,4,1,,,,,,,,,,,,,,,,,,,,,,,,,,,,,,,,,,,,,,,,,,,,,,,,,,,,,,,,,,,,,,,,,,,,,,,,,,,
,,,,,,,,,,stimuli/images/PICTURE_675.png,SALE,599614af004c4f0001cc8642,05/08/1952,2020-09-14_11h14.45.225,proactive3.2,2020.1.2,Win32,60,5f5adea66120081ea0f57a61,5f5f42353a42fc0322ba95a3,2,,,,,,windmill,,,,,,0,24,24,47,1,5,1,,,,,,,,,,,,,,,,,,,,,,,,,,,,,,,,,,,,,,,,,,,,,,,,,,,,,,,,,,,,,,,,,,,,,,,,,,,
,,,,,,,,,,stimuli/images/PICTURE_203.png,NIGHT,599614af004c4f0001cc8642,05/08/1952,2020-09-14_11h14.45.225,proactive3.2,2020.1.2,Win32,60,5f5adea66120081ea0f57a61,5f5f42353a42fc0322ba95a3,2,,,,,,cap,,,,,,0,25,25,2,1,1,1,,,,,,,,,,,,,,,,,,,,,,,,,,,,,,,,,,,,,,,,,,,,,,,,,,,,,,,,,,,,,,,,,,,,,,,,,,,
,,,,,,,,,,stimuli/images/PICTURE_68.png,ROOF,599614af004c4f0001cc8642,05/08/1952,2020-09-14_11h14.45.225,proactive3.2,2020.1.2,Win32,60,5f5adea66120081ea0f57a61,5f5f42353a42fc0322ba95a3,2,,,,,,candle,,,,,,0,26,26,38,1,4,1,,,,,,,,,,,,,,,,,,,,,,,,,,,,,,,,,,,,,,,,,,,,,,,,,,,,,,,,,,,,,,,,,,,,,,,,,,,
,,,,,,,,,,stimuli/images/PICTURE_403.png,RIVER,599614af004c4f0001cc8642,05/08/1952,2020-09-14_11h14.45.225,proactive3.2,2020.1.2,Win32,60,5f5adea66120081ea0f57a61,5f5f42353a42fc0322ba95a3,2,,,,,,cathedral,,,,,,0,27,27,40,1,5,1,,,,,,,,,,,,,,,,,,,,,,,,,,,,,,,,,,,,,,,,,,,,,,,,,,,,,,,,,,,,,,,,,,,,,,,,,,,
,,,,,,,,,,stimuli/images/PICTURE_95.png,HONEY,599614af004c4f0001cc8642,05/08/1952,2020-09-14_11h14.45.225,proactive3.2,2020.1.2,Win32,60,5f5adea66120081ea0f57a61,5f5f42353a42fc0322ba95a3,2,,,,,,suitcase,,,,,,0,28,28,44,1,5,1,,,,,,,,,,,,,,,,,,,,,,,,,,,,,,,,,,,,,,,,,,,,,,,,,,,,,,,,,,,,,,,,,,,,,,,,,,,
,,,,,,,,,,stimuli/images/PICTURE_95.png,BOYS,599614af004c4f0001cc8642,05/08/1952,2020-09-14_11h14.45.225,proactive3.2,2020.1.2,Win32,60,5f5adea66120081ea0f57a61,5f5f42353a42fc0322ba95a3,2,,,,,,suitcase,,,,,,0,29,29,1,1,1,1,,,,,,,,,,,,,,,,,,,,,,,,,,,,,,,,,,,,,,,,,,,,,,,,,,,,,,,,,,,,,,,,,,,,,,,,,,,
,,,,,,,,,,stimuli/images/PICTURE_504.png,COPS,599614af004c4f0001cc8642,05/08/1952,2020-09-14_11h14.45.225,proactive3.2,2020.1.2,Win32,60,5f5adea66120081ea0f57a61,5f5f42353a42fc0322ba95a3,2,,,,,,wheel,,,,,,0,30,30,52,1,6,1,,,,,,,,,,,,,,,,,,,,,,,,,,,,,,,,,,,,,,,,,,,,,,,,,,,,,,,,,,,,,,,,,,,,,,,,,,,
,,,,,,,,,,stimuli/images/PICTURE_233.png,LOTS,599614af004c4f0001cc8642,05/08/1952,2020-09-14_11h14.45.225,proactive3.2,2020.1.2,Win32,60,5f5adea66120081ea0f57a61,5f5f42353a42fc0322ba95a3,2,,,,,,salt,,,,,,0,31,31,42,1,5,1,,,,,,,,,,,,,,,,,,,,,,,,,,,,,,,,,,,,,,,,,,,,,,,,,,,,,,,,,,,,,,,,,,,,,,,,,,,
,,,,,,,,,,stimuli/images/PICTURE_147.png,WOMEN,599614af004c4f0001cc8642,05/08/1952,2020-09-14_11h14.45.225,proactive3.2,2020.1.2,Win32,60,5f5adea66120081ea0f57a61,5f5f42353a42fc0322ba95a3,2,,,,,,hanger,,,,,,0,32,32,7,1,1,1,,,,,,,,,,,,,,,,,,,,,,,,,,,,,,,,,,,,,,,,,,,,,,,,,,,,,,,,,,,,,,,,,,,,,,,,,,,
,,,,,,,,,,stimuli/images/PICTURE_32.png,KIND,599614af004c4f0001cc8642,05/08/1952,2020-09-14_11h14.45.225,proactive3.2,2020.1.2,Win32,60,5f5adea66120081ea0f57a61,5f5f42353a42fc0322ba95a3,2,,,,,,crown,,,,,,0,33,33,35,1,4,1,,,,,,,,,,,,,,,,,,,,,,,,,,,,,,,,,,,,,,,,,,,,,,,,,,,,,,,,,,,,,,,,,,,,,,,,,,,
,,,,,,,,,,stimuli/images/PICTURE_33.png,FRIEND,599614af004c4f0001cc8642,05/08/1952,2020-09-14_11h14.45.225,proactive3.2,2020.1.2,Win32,60,5f5adea66120081ea0f57a61,5f5f42353a42fc0322ba95a3,2,,,,,,frame,,,,,,0,34,34,8,1,1,1,,,,,,,,,,,,,,,,,,,,,,,,,,,,,,,,,,,,,,,,,,,,,,,,,,,,,,,,,,,,,,,,,,,,,,,,,,,
,,,,,,,,,,stimuli/images/PICTURE_68.png,MILE,599614af004c4f0001cc8642,05/08/1952,2020-09-14_11h14.45.225,proactive3.2,2020.1.2,Win32,60,5f5adea66120081ea0f57a61,5f5f42353a42fc0322ba95a3,2,,,,,,candle,,,,,,0,35,35,51,1,6,1,,,,,,,,,,,,,,,,,,,,,,,,,,,,,,,,,,,,,,,,,,,,,,,,,,,,,,,,,,,,,,,,,,,,,,,,,,,
,,,,,,,,,,stimuli/images/PICTURE_57.png,MOMENT,599614af004c4f0001cc8642,05/08/1952,2020-09-14_11h14.45.225,proactive3.2,2020.1.2,Win32,60,5f5adea66120081ea0f57a61,5f5f42353a42fc0322ba95a3,2,,,,,,stamp,,,,,,0,36,36,37,1,4,1,,,,,,,,,,,,,,,,,,,,,,,,,,,,,,,,,,,,,,,,,,,,,,,,,,,,,,,,,,,,,,,,,,,,,,,,,,,
,,,,,,,,,,stimuli/images/PICTURE_654.png,MONTH,599614af004c4f0001cc8642,05/08/1952,2020-09-14_11h14.45.225,proactive3.2,2020.1.2,Win32,60,5f5adea66120081ea0f57a61,5f5f42353a42fc0322ba95a3,2,,,,,,pencil,,,,,,0,37,37,29,1,3,1,,,,,,,,,,,,,,,,,,,,,,,,,,,,,,,,,,,,,,,,,,,,,,,,,,,,,,,,,,,,,,,,,,,,,,,,,,,
,,,,,,,,,,stimuli/images/PICTURE_380.png,CANDY,599614af004c4f0001cc8642,05/08/1952,2020-09-14_11h14.45.225,proactive3.2,2020.1.2,Win32,60,5f5adea66120081ea0f57a61,5f5f42353a42fc0322ba95a3,2,,,,,,gorilla,,,,,,0,38,38,0,1,1,1,,,,,,,,,,,,,,,,,,,,,,,,,,,,,,,,,,,,,,,,,,,,,,,,,,,,,,,,,,,,,,,,,,,,,,,,,,,
,,,,,,,,,,stimuli/images/PICTURE_108.png,POLICY,599614af004c4f0001cc8642,05/08/1952,2020-09-14_11h14.45.225,proactive3.2,2020.1.2,Win32,60,5f5adea66120081ea0f57a61,5f5f42353a42fc0322ba95a3,2,,,,,,calendar,,,,,,0,39,39,22,1,3,1,,,,,,,,,,,,,,,,,,,,,,,,,,,,,,,,,,,,,,,,,,,,,,,,,,,,,,,,,,,,,,,,,,,,,,,,,,,
,,,,,,,,,,stimuli/images/PICTURE_467.png,POLICY,599614af004c4f0001cc8642,05/08/1952,2020-09-14_11h14.45.225,proactive3.2,2020.1.2,Win32,60,5f5adea66120081ea0f57a61,5f5f42353a42fc0322ba95a3,2,,,,,,peg,,,,,,0,40,40,53,1,6,1,,,,,,,,,,,,,,,,,,,,,,,,,,,,,,,,,,,,,,,,,,,,,,,,,,,,,,,,,,,,,,,,,,,,,,,,,,,
,,,,,,,,,,stimuli/images/PICTURE_744.png,WEAPON,599614af004c4f0001cc8642,05/08/1952,2020-09-14_11h14.45.225,proactive3.2,2020.1.2,Win32,60,5f5adea66120081ea0f57a61,5f5f42353a42fc0322ba95a3,2,,,,,,ring,,,,,,0,41,41,50,1,6,1,,,,,,,,,,,,,,,,,,,,,,,,,,,,,,,,,,,,,,,,,,,,,,,,,,,,,,,,,,,,,,,,,,,,,,,,,,,
,,,,,,,,,,stimuli/images/PICTURE_564.png,BATH,599614af004c4f0001cc8642,05/08/1952,2020-09-14_11h14.45.225,proactive3.2,2020.1.2,Win32,60,5f5adea66120081ea0f57a61,5f5f42353a42fc0322ba95a3,2,,,,,,spoon,,,,,,0,42,42,26,1,3,1,,,,,,,,,,,,,,,,,,,,,,,,,,,,,,,,,,,,,,,,,,,,,,,,,,,,,,,,,,,,,,,,,,,,,,,,,,,
,,,,,,,,,,stimuli/images/PICTURE_491.png,GLASS,599614af004c4f0001cc8642,05/08/1952,2020-09-14_11h14.45.225,proactive3.2,2020.1.2,Win32,60,5f5adea66120081ea0f57a61,5f5f42353a42fc0322ba95a3,2,,,,,,rug,,,,,,0,43,43,14,1,2,1,,,,,,,,,,,,,,,,,,,,,,,,,,,,,,,,,,,,,,,,,,,,,,,,,,,,,,,,,,,,,,,,,,,,,,,,,,,
,,,,,,,,,,stimuli/images/PICTURE_339.png,CLIENT,599614af004c4f0001cc8642,05/08/1952,2020-09-14_11h14.45.225,proactive3.2,2020.1.2,Win32,60,5f5adea66120081ea0f57a61,5f5f42353a42fc0322ba95a3,2,,,,,,backpack,,,,,,0,44,44,11,1,2,1,,,,,,,,,,,,,,,,,,,,,,,,,,,,,,,,,,,,,,,,,,,,,,,,,,,,,,,,,,,,,,,,,,,,,,,,,,,
,,,,,,,,,,stimuli/images/PICTURE_340.png,VALLEY,599614af004c4f0001cc8642,05/08/1952,2020-09-14_11h14.45.225,proactive3.2,2020.1.2,Win32,60,5f5adea66120081ea0f57a61,5f5f42353a42fc0322ba95a3,2,,,,,,mirror,,,,,,0,45,45,54,1,6,1,,,,,,,,,,,,,,,,,,,,,,,,,,,,,,,,,,,,,,,,,,,,,,,,,,,,,,,,,,,,,,,,,,,,,,,,,,,
,,,,,,,,,,stimuli/images/PICTURE_208.png,SYSTEM,599614af004c4f0001cc8642,05/08/1952,2020-09-14_11h14.45.225,proactive3.2,2020.1.2,Win32,60,5f5adea66120081ea0f57a61,5f5f42353a42fc0322ba95a3,2,,,,,,microphone,,,,,,0,46,46,32,1,4,1,,,,,,,,,,,,,,,,,,,,,,,,,,,,,,,,,,,,,,,,,,,,,,,,,,,,,,,,,,,,,,,,,,,,,,,,,,,
,,,,,,,,,,stimuli/images/PICTURE_297.png,RIVER,599614af004c4f0001cc8642,05/08/1952,2020-09-14_11h14.45.225,proactive3.2,2020.1.2,Win32,60,5f5adea66120081ea0f57a61,5f5f42353a42fc0322ba95a3,2,,,,,,aeroplane,,,,,,0,47,47,39,1,4,1,,,,,,,,,,,,,,,,,,,,,,,,,,,,,,,,,,,,,,,,,,,,,,,,,,,,,,,,,,,,,,,,,,,,,,,,,,,
,,,,,,,,,,stimuli/images/PICTURE_327.png,CASINO,599614af004c4f0001cc8642,05/08/1952,2020-09-14_11h14.45.225,proactive3.2,2020.1.2,Win32,60,5f5adea66120081ea0f57a61,5f5f42353a42fc0322ba95a3,2,,,,,,helmet,,,,,,0,48,48,20,1,3,1,,,,,,,,,,,,,,,,,,,,,,,,,,,,,,,,,,,,,,,,,,,,,,,,,,,,,,,,,,,,,,,,,,,,,,,,,,,
,,,,,,,,,,stimuli/images/PICTURE_655.png,TOILET,599614af004c4f0001cc8642,05/08/1952,2020-09-14_11h14.45.225,proactive3.2,2020.1.2,Win32,60,5f5adea66120081ea0f57a61,5f5f42353a42fc0322ba95a3,2,,,,,,megaphone,,,,,,0,49,49,12,1,2,1,,,,,,,,,,,,,,,,,,,,,,,,,,,,,,,,,,,,,,,,,,,,,,,,,,,,,,,,,,,,,,,,,,,,,,,,,,,
,,,,,,,,,,stimuli/images/PICTURE_147.png,YEAR,599614af004c4f0001cc8642,05/08/1952,2020-09-14_11h14.45.225,proactive3.2,2020.1.2,Win32,60,5f5adea66120081ea0f57a61,5f5f42353a42fc0322ba95a3,2,,,,,,hanger,,,,,,0,50,50,21,1,3,1,,,,,,,,,,,,,,,,,,,,,,,,,,,,,,,,,,,,,,,,,,,,,,,,,,,,,,,,,,,,,,,,,,,,,,,,,,,
,,,,,,,,,,stimuli/images/PICTURE_708.png,RECORD,599614af004c4f0001cc8642,05/08/1952,2020-09-14_11h14.45.225,proactive3.2,2020.1.2,Win32,60,5f5adea66120081ea0f57a61,5f5f42353a42fc0322ba95a3,2,,,,,,monkey,,,,,,0,51,51,58,1,6,1,,,,,,,,,,,,,,,,,,,,,,,,,,,,,,,,,,,,,,,,,,,,,,,,,,,,,,,,,,,,,,,,,,,,,,,,,,,
,,,,,,,,,,stimuli/images/PICTURE_405.png,YEAR,599614af004c4f0001cc8642,05/08/1952,2020-09-14_11h14.45.225,proactive3.2,2020.1.2,Win32,60,5f5adea66120081ea0f57a61,5f5f42353a42fc0322ba95a3,2,,,,,,anchor,,,,,,0,52,52,34,1,4,1,,,,,,,,,,,,,,,,,,,,,,,,,,,,,,,,,,,,,,,,,,,,,,,,,,,,,,,,,,,,,,,,,,,,,,,,,,,
,,,,,,,,,,stimuli/images/PICTURE_469.png,AGENT,599614af004c4f0001cc8642,05/08/1952,2020-09-14_11h14.45.225,proactive3.2,2020.1.2,Win32,60,5f5adea66120081ea0f57a61,5f5f42353a42fc0322ba95a3,2,,,,,,stool,,,,,,0,53,53,16,1,2,1,,,,,,,,,,,,,,,,,,,,,,,,,,,,,,,,,,,,,,,,,,,,,,,,,,,,,,,,,,,,,,,,,,,,,,,,,,,
,,,,,,,,,,stimuli/images/PICTURE_491.png,RIVER,599614af004c4f0001cc8642,05/08/1952,2020-09-14_11h14.45.225,proactive3.2,2020.1.2,Win32,60,5f5adea66120081ea0f57a61,5f5f42353a42fc0322ba95a3,2,,,,,,rug,,,,,,0,54,54,6,1,1,1,,,,,,,,,,,,,,,,,,,,,,,,,,,,,,,,,,,,,,,,,,,,,,,,,,,,,,,,,,,,,,,,,,,,,,,,,,,
,,,,,,,,,,stimuli/images/PICTURE_85.png,NATION,599614af004c4f0001cc8642,05/08/1952,2020-09-14_11h14.45.225,proactive3.2,2020.1.2,Win32,60,5f5adea66120081ea0f57a61,5f5f42353a42fc0322ba95a3,2,,,,,,diamond,,,,,,0,55,55,5,1,1,1,,,,,,,,,,,,,,,,,,,,,,,,,,,,,,,,,,,,,,,,,,,,,,,,,,,,,,,,,,,,,,,,,,,,,,,,,,,
,,,,,,,,,,stimuli/images/PICTURE_177.png,WRITER,599614af004c4f0001cc8642,05/08/1952,2020-09-14_11h14.45.225,proactive3.2,2020.1.2,Win32,60,5f5adea66120081ea0f57a61,5f5f42353a42fc0322ba95a3,2,,,,,,mushroom,,,,,,0,56,56,41,1,5,1,,,,,,,,,,,,,,,,,,,,,,,,,,,,,,,,,,,,,,,,,,,,,,,,,,,,,,,,,,,,,,,,,,,,,,,,,,,
,,,,,,,,,,stimuli/images/PICTURE_667.png,RIVER,599614af004c4f0001cc8642,05/08/1952,2020-09-14_11h14.45.225,proactive3.2,2020.1.2,Win32,60,5f5adea66120081ea0f57a61,5f5f42353a42fc0322ba95a3,2,,,,,,daisy,,,,,,0,57,57,10,1,2,1,,,,,,,,,,,,,,,,,,,,,,,,,,,,,,,,,,,,,,,,,,,,,,,,,,,,,,,,,,,,,,,,,,,,,,,,,,,
,,,,,,,,,,stimuli/images/PICTURE_380.png,HONEY,599614af004c4f0001cc8642,05/08/1952,2020-09-14_11h14.45.225,proactive3.2,2020.1.2,Win32,60,5f5adea66120081ea0f57a61,5f5f42353a42fc0322ba95a3,2,,,,,,gorilla,,,,,,0,58,58,19,1,2,1,,,,,,,,,,,,,,,,,,,,,,,,,,,,,,,,,,,,,,,,,,,,,,,,,,,,,,,,,,,,,,,,,,,,,,,,,,,
,,?,0.001865,0,,,,,,stimuli/images/PICTURE_68.png,MILE,599614af004c4f0001cc8642,05/08/1952,2020-09-14_11h14.45.225,proactive3.2,2020.1.2,Win32,60,5f5adea66120081ea0f57a61,5f5f42353a42fc0322ba95a3,2,,,,,,candle,,,,,,,,,,,6,1,0,0,0,51,1,,,,,,,,,,,,,,,,,,,,,,,,,,,,,,,,,,,,,,,,,,,,,,,,,,,,,,,,,,,,,,,,,,,,,,
,,?,1.899,0,,,,,,stimuli/images/PICTURE_32.png,PILLS,599614af004c4f0001cc8642,05/08/1952,2020-09-14_11h14.45.225,proactive3.2,2020.1.2,Win32,60,5f5adea66120081ea0f57a61,5f5f42353a42fc0322ba95a3,2,,,,,,crown,,,,,,,,,,,2,1,0,1,1,18,1,,,,,,,,,,,,,,,,,,,,,,,,,,,,,,,,,,,,,,,,,,,,,,,,,,,,,,,,,,,,,,,,,,,,,,
,,?,0.0008,0,,,,,,stimuli/images/PICTURE_147.png,WOMEN,599614af004c4f0001cc8642,05/08/1952,2020-09-14_11h14.45.225,proactive3.2,2020.1.2,Win32,60,5f5adea66120081ea0f57a61,5f5f42353a42fc0322ba95a3,2,,,,,,hanger,,,,,,,,,,,1,1,0,2,2,7,1,,,,,,,,,,,,,,,,,,,,,,,,,,,,,,,,,,,,,,,,,,,,,,,,,,,,,,,,,,,,,,,,,,,,,,
,,?,0.000755,0,,,,,,stimuli/images/PICTURE_504.png,ARTIST,599614af004c4f0001cc8642,05/08/1952,2020-09-14_11h14.45.225,proactive3.2,2020.1.2,Win32,60,5f5adea66120081ea0f57a61,5f5f42353a42fc0322ba95a3,2,,,,,,wheel,,,,,,,,,,,5,1,0,3,3,49,1,,,,,,,,,,,,,,,,,,,,,,,,,,,,,,,,,,,,,,,,,,,,,,,,,,,,,,,,,,,,,,,,,,,,,,
,,?,0.000665,0,,,,,,stimuli/images/PICTURE_95.png,BOYS,599614af004c4f0001cc8642,05/08/1952,2020-09-14_11h14.45.225,proactive3.2,2020.1.2,Win32,60,5f5adea66120081ea0f57a61,5f5f42353a42fc0322ba95a3,2,,,,,,suitcase,,,,,,,,,,,1,1,0,4,4,1,1,,,,,,,,,,,,,,,,,,,,,,,,,,,,,,,,,,,,,,,,,,,,,,,,,,,,,,,,,,,,,,,,,,,,,,
,,?,0.00078,0,,,,,,stimuli/images/PICTURE_340.png,LETTER,599614af004c4f0001cc8642,05/08/1952,2020-09-14_11h14.45.225,proactive3.2,2020.1.2,Win32,60,5f5adea66120081ea0f57a61,5f5f42353a42fc0322ba95a3,2,,,,,,mirror,,,,,,,,,,,3,1,0,5,5,24,1,,,,,,,,,,,,,,,,,,,,,,,,,,,,,,,,,,,,,,,,,,,,,,,,,,,,,,,,,,,,,,,,,,,,,,
,,?,1.97472,0,,,,,,stimuli/images/PICTURE_339.png,CLIENT,599614af004c4f0001cc8642,05/08/1952,2020-09-14_11h14.45.225,proactive3.2,2020.1.2,Win32,60,5f5adea66120081ea0f57a61,5f5f42353a42fc0322ba95a3,2,,,,,,backpack,,,,,,,,,,,2,1,0,6,6,11,1,,,,,,,,,,,,,,,,,,,,,,,,,,,,,,,,,,,,,,,,,,,,,,,,,,,,,,,,,,,,,,,,,,,,,,
,,?,0.00391,0,,,,,,stimuli/images/PICTURE_68.png,ROOF,599614af004c4f0001cc8642,05/08/1952,2020-09-14_11h14.45.225,proactive3.2,2020.1.2,Win32,60,5f5adea66120081ea0f57a61,5f5f42353a42fc0322ba95a3,2,,,,,,candle,,,,,,,,,,,4,1,0,7,7,38,1,,,,,,,,,,,,,,,,,,,,,,,,,,,,,,,,,,,,,,,,,,,,,,,,,,,,,,,,,,,,,,,,,,,,,,
,,?,0.001495,0,,,,,,stimuli/images/PICTURE_383.png,SERIES,599614af004c4f0001cc8642,05/08/1952,2020-09-14_11h14.45.225,proactive3.2,2020.1.2,Win32,60,5f5adea66120081ea0f57a61,5f5f42353a42fc0322ba95a3,2,,,,,,coin,,,,,,,,,,,5,1,0,8,8,46,1,,,,,,,,,,,,,,,,,,,,,,,,,,,,,,,,,,,,,,,,,,,,,,,,,,,,,,,,,,,,,,,,,,,,,,
,,?,0.002725,0,,,,,,stimuli/images/PICTURE_32.png,KIND,599614af004c4f0001cc8642,05/08/1952,2020-09-14_11h14.45.225,proactive3.2,2020.1.2,Win32,60,5f5adea66120081ea0f57a61,5f5f42353a42fc0322ba95a3,2,,,,,,crown,,,,,,,,,,,4,1,0,9,9,35,1,,,,,,,,,,,,,,,,,,,,,,,,,,,,,,,,,,,,,,,,,,,,,,,,,,,,,,,,,,,,,,,,,,,,,,
,,?,0.001075,0,,,,,,stimuli/images/PICTURE_744.png,WEAPON,599614af004c4f0001cc8642,05/08/1952,2020-09-14_11h14.45.225,proactive3.2,2020.1.2,Win32,60,5f5adea66120081ea0f57a61,5f5f42353a42fc0322ba95a3,2,,,,,,ring,,,,,,,,,,,6,1,0,10,10,50,1,,,,,,,,,,,,,,,,,,,,,,,,,,,,,,,,,,,,,,,,,,,,,,,,,,,,,,,,,,,,,,,,,,,,,,
,,?,0.00086,0,,,,,,stimuli/images/PICTURE_233.png,LOTS,599614af004c4f0001cc8642,05/08/1952,2020-09-14_11h14.45.225,proactive3.2,2020.1.2,Win32,60,5f5adea66120081ea0f57a61,5f5f42353a42fc0322ba95a3,2,,,,,,salt,,,,,,,,,,,5,1,0,11,11,42,1,,,,,,,,,,,,,,,,,,,,,,,,,,,,,,,,,,,,,,,,,,,,,,,,,,,,,,,,,,,,,,,,,,,,,,
,,?,0.000935,0,,,,,,stimuli/images/PICTURE_403.png,TOILET,599614af004c4f0001cc8642,05/08/1952,2020-09-14_11h14.45.225,proactive3.2,2020.1.2,Win32,60,5f5adea66120081ea0f57a61,5f5f42353a42fc0322ba95a3,2,,,,,,cathedral,,,,,,,,,,,3,1,0,12,12,25,1,,,,,,,,,,,,,,,,,,,,,,,,,,,,,,,,,,,,,,,,,,,,,,,,,,,,,,,,,,,,,,,,,,,,,,
,,?,0.000765,0,,,,,,stimuli/images/PICTURE_85.png,TOILET,599614af004c4f0001cc8642,05/08/1952,2020-09-14_11h14.45.225,proactive3.2,2020.1.2,Win32,60,5f5adea66120081ea0f57a61,5f5f42353a42fc0322ba95a3,2,,,,,,diamond,,,,,,,,,,,5,1,0,13,13,48,1,,,,,,,,,,,,,,,,,,,,,,,,,,,,,,,,,,,,,,,,,,,,,,,,,,,,,,,,,,,,,,,,,,,,,,
