consent_key.keys,consent_key.rt,recalled,recalled_rt,recall_acc,example_recall.thisRepN,example_recall.thisTrialN,example_recall.thisN,example_recall.thisIndex,example_recall.ran,file,word,participant,please enter your date of birth (dd/mm/yyyy),date,expName,psychopyVersion,OS,frameRate,STUDY_ID,SESSION_ID,list,prac_learn_study_loop.thisRepN,prac_learn_study_loop.thisTrialN,prac_learn_study_loop.thisN,prac_learn_study_loop.thisIndex,prac_learn_study_loop.ran,image,prac_learn_test_loop.thisRepN,prac_learn_test_loop.thisTrialN,prac_learn_test_loop.thisN,prac_learn_test_loop.thisIndex,prac_learn_test_loop.ran,learn_study_loop.thisRepN,learn_study_loop.thisTrialN,learn_study_loop.thisN,learn_study_loop.thisIndex,learn_study_loop.ran,list_no,block_no,learn_test_loop.thisRepN,learn_test_loop.thisTrialN,learn_test_loop.thisN,learn_test_loop.thisIndex,learn_test_loop.ran,learn_blocks.thisRepN,learn_blocks.thisTrialN,learn_blocks.thisN,learn_blocks.thisIndex,learn_blocks.ran,block_csv,key_resp_13.keys,key_resp_13.rt,learn_blocks_loop.thisRepN,learn_blocks_loop.thisTrialN,learn_blocks_loop.thisN,learn_blocks_loop.thisIndex,learn_blocks_loop.ran,final_learn_test.thisRepN,final_learn_test.thisTrialN,final_learn_test.thisN,final_learn_test.thisIndex,final_learn_test.ran,prac_wm_test_loop.thisRepN,prac_wm_test_loop.thisTrialN,prac_wm_test_loop.thisN,prac_wm_test_loop.thisIndex,prac_wm_test_loop.ran,wm_recalled1,wm_recall_rt1,wm_probed1,wm_recall_acc1,wm_recalled2,wm_recall_rt2,wm_probed2,wm_recall_acc2,wm_recalled3,wm_recall_rt3,wm_probed3,wm_recall_acc3,wm_recalled4,wm_recall_rt4,wm_probed4,wm_recall_acc4,prac_wm_trial_loop.thisRepN,prac_wm_trial_loop.thisTrialN,prac_wm_trial_loop.thisN,prac_wm_trial_loop.thisIndex,prac_wm_trial_loop.ran,word1,image1,file1,item_type1,word2,image2,file2,item_type2,word4,image4,file4,item_type4,word3,image3,file3,item_type3,wm_test_loop.thisRepN,wm_test_loop.thisTrialN,wm_test_loop.thisN,wm_test_loop.thisIndex,wm_test_loop.ran,wm_trial_loop.thisRepN,wm_trial_loop.thisTrialN,wm_trial_loop.thisN,wm_trial_loop.thisIndex,wm_trial_loop.ran
y,28.59555,TOUGH,3.292955,1,0,0,0,0,1,stimuli/images/PICTURE_747.png,TOUGH,59e71906ac0af70001b36a06,06/02/1989,2020-08-27_15h46.26.691,proactive3.2,2020.1.2,Win32,60,5f47c0b9b035471e11593a5c,5f47c72ac541cc1f16f3b51d,1,,,,,,,,,,,,,,,,,,,,,,,,,,,,,,,,,,,,,,,,,,,,,,,,,,,,,,,,,,,,,,,,,,,,,,,,,,,,,,,,,,,,,,,,,,,,,
,,,,,,,,,,stimuli/images/PICTURE_658.png,DEVIL,59e71906ac0af70001b36a06,06/02/1989,2020-08-27_15h46.26.691,proactive3.2,2020.1.2,Win32,60,5f47c0b9b035471e11593a5c,5f47c72ac541cc1f16f3b51d,1,0,0,0,3,1,crow,,,,,,,,,,,,,,,,,,,,,,,,,,,,,,,,,,,,,,,,,,,,,,,,,,,,,,,,,,,,,,,,,,,,,,,,,,,,,,,,,,,,,,,
,,,,,,,,,,stimuli/images/PICTURE_378.png,LOSS,59e71906ac0af70001b36a06,06/02/1989,2020-08-27_15h46.26.691,proactive3.2,2020.1.2,Win32,60,5f47c0b9b035471e11593a5c,5f47c72ac541cc1f16f3b51d,1,0,1,1,2,1,lobster,,,,,,,,,,,,,,,,,,,,,,,,,,,,,,,,,,,,,,,,,,,,,,,,,,,,,,,,,,,,,,,,,,,,,,,,,,,,,,,,,,,,,,,
,,,,,,,,,,stimuli/images/PICTURE_697.png,KILLER,59e71906ac0af70001b36a06,06/02/1989,2020-08-27_15h46.26.691,proactive3.2,2020.1.2,Win32,60,5f47c0b9b035471e11593a5c,5f47c72ac541cc1f16f3b51d,1,0,2,2,4,1,peach,,,,,,,,,,,,,,,,,,,,,,,,,,,,,,,,,,,,,,,,,,,,,,,,,,,,,,,,,,,,,,,,,,,,,,,,,,,,,,,,,,,,,,,
,,,,,,,,,,stimuli/images/PICTURE_269.png,GENIUS,59e71906ac0af70001b36a06,06/02/1989,2020-08-27_15h46.26.691,proactive3.2,2020.1.2,Win32,60,5f47c0b9b035471e11593a5c,5f47c72ac541cc1f16f3b51d,1,0,3,3,0,1,chameleon,,,,,,,,,,,,,,,,,,,,,,,,,,,,,,,,,,,,,,,,,,,,,,,,,,,,,,,,,,,,,,,,,,,,,,,,,,,,,,,,,,,,,,,
,,LOSS,2.29769,1,,,,,,stimuli/images/PICTURE_378.png,LOSS,59e71906ac0af70001b36a06,06/02/1989,2020-08-27_15h46.26.691,proactive3.2,2020.1.2,Win32,60,5f47c0b9b035471e11593a5c,5f47c72ac541cc1f16f3b51d,1,,,,,,lobster,0,0,0,2,1,,,,,,,,,,,,,,,,,,,,,,,,,,,,,,,,,,,,,,,,,,,,,,,,,,,,,,,,,,,,,,,,,,,,,,,,,,,,,,,,,,
,,DEVIL,2.44903,1,,,,,,stimuli/images/PICTURE_658.png,DEVIL,59e71906ac0af70001b36a06,06/02/1989,2020-08-27_15h46.26.691,proactive3.2,2020.1.2,Win32,60,5f47c0b9b035471e11593a5c,5f47c72ac541cc1f16f3b51d,1,,,,,,crow,0,1,1,3,1,,,,,,,,,,,,,,,,,,,,,,,,,,,,,,,,,,,,,,,,,,,,,,,,,,,,,,,,,,,,,,,,,,,,,,,,,,,,,,,,,,
,,KILLER,2.26532,1,,,,,,stimuli/images/PICTURE_697.png,KILLER,59e71906ac0af70001b36a06,06/02/1989,2020-08-27_15h46.26.691,proactive3.2,2020.1.2,Win32,60,5f47c0b9b035471e11593a5c,5f47c72ac541cc1f16f3b51d,1,,,,,,peach,0,2,2,4,1,,,,,,,,,,,,,,,,,,,,,,,,,,,,,,,,,,,,,,,,,,,,,,,,,,,,,,,,,,,,,,,,,,,,,,,,,,,,,,,,,,
,,GENIUS,2.43211,1,,,,,,stimuli/images/PICTURE_269.png,GENIUS,59e71906ac0af70001b36a06,06/02/1989,2020-08-27_15h46.26.691,proactive3.2,2020.1.2,Win32,60,5f47c0b9b035471e11593a5c,5f47c72ac541cc1f16f3b51d,1,,,,,,chameleon,0,3,3,0,1,,,,,,,,,,,,,,,,,,,,,,,,,,,,,,,,,,,,,,,,,,,,,,,,,,,,,,,,,,,,,,,,,,,,,,,,,,,,,,,,,,
,,CELL,1.882295,1,,,,,,stimuli/images/PICTURE_727.png,CELL,59e71906ac0af70001b36a06,06/02/1989,2020-08-27_15h46.26.691,proactive3.2,2020.1.2,Win32,60,5f47c0b9b035471e11593a5c,5f47c72ac541cc1f16f3b51d,1,,,,,,hose,0,4,4,1,1,,,,,,,,,,,,,,,,,,,,,,,,,,,,,,,,,,,,,,,,,,,,,,,,,,,,,,,,,,,,,,,,,,,,,,,,,,,,,,,,,,
,,,,,,,,,,stimuli/images/PICTURE_297.png,RIVER,59e71906ac0af70001b36a06,06/02/1989,2020-08-27_15h46.26.691,proactive3.2,2020.1.2,Win32,60,5f47c0b9b035471e11593a5c,5f47c72ac541cc1f16f3b51d,1,,,,,,aeroplane,,,,,,0,0,0,39,1,4,1,,,,,,,,,,,,,,,,,,,,,,,,,,,,,,,,,,,,,,,,,,,,,,,,,,,,,,,,,,,,,,,,,,,,,,,,,,,
,,,,,,,,,,stimuli/images/PICTURE_655.png,TOILET,59e71906ac0af70001b36a06,06/02/1989,2020-08-27_15h46.26.691,proactive3.2,2020.1.2,Win32,60,5f47c0b9b035471e11593a5c,5f47c72ac541cc1f16f3b51d,1,,,,,,megaphone,,,,,,0,1,1,12,1,2,1,,,,,,,,,,,,,,,,,,,,,,,,,,,,,,,,,,,,,,,,,,,,,,,,,,,,,,,,,,,,,,,,,,,,,,,,,,,
,,,,,,,,,,stimuli/images/PICTURE_68.png,MILE,59e71906ac0af70001b36a06,06/02/1989,2020-08-27_15h46.26.691,proactive3.2,2020.1.2,Win32,60,5f47c0b9b035471e11593a5c,5f47c72ac541cc1f16f3b51d,1,,,,,,candle,,,,,,0,2,2,51,1,6,1,,,,,,,,,,,,,,,,,,,,,,,,,,,,,,,,,,,,,,,,,,,,,,,,,,,,,,,,,,,,,,,,,,,,,,,,,,,
,,,,,,,,,,stimuli/images/PICTURE_327.png,CASINO,59e71906ac0af70001b36a06,06/02/1989,2020-08-27_15h46.26.691,proactive3.2,2020.1.2,Win32,60,5f47c0b9b035471e11593a5c,5f47c72ac541cc1f16f3b51d,1,,,,,,helmet,,,,,,0,3,3,20,1,3,1,,,,,,,,,,,,,,,,,,,,,,,,,,,,,,,,,,,,,,,,,,,,,,,,,,,,,,,,,,,,,,,,,,,,,,,,,,,
,,,,,,,,,,stimuli/images/PICTURE_308.png,FAMILY,59e71906ac0af70001b36a06,06/02/1989,2020-08-27_15h46.26.691,proactive3.2,2020.1.2,Win32,60,5f47c0b9b035471e11593a5c,5f47c72ac541cc1f16f3b51d,1,,,,,,dice,,,,,,0,4,4,36,1,4,1,,,,,,,,,,,,,,,,,,,,,,,,,,,,,,,,,,,,,,,,,,,,,,,,,,,,,,,,,,,,,,,,,,,,,,,,,,,
,,,,,,,,,,stimuli/images/PICTURE_296.png,LOTS,59e71906ac0af70001b36a06,06/02/1989,2020-08-27_15h46.26.691,proactive3.2,2020.1.2,Win32,60,5f47c0b9b035471e11593a5c,5f47c72ac541cc1f16f3b51d,1,,,,,,bolt,,,,,,0,5,5,9,1,1,1,,,,,,,,,,,,,,,,,,,,,,,,,,,,,,,,,,,,,,,,,,,,,,,,,,,,,,,,,,,,,,,,,,,,,,,,,,,
,,,,,,,,,,stimuli/images/PICTURE_469.png,AGENT,59e71906ac0af70001b36a06,06/02/1989,2020-08-27_15h46.26.691,proactive3.2,2020.1.2,Win32,60,5f47c0b9b035471e11593a5c,5f47c72ac541cc1f16f3b51d,1,,,,,,stool,,,,,,0,6,6,16,1,2,1,,,,,,,,,,,,,,,,,,,,,,,,,,,,,,,,,,,,,,,,,,,,,,,,,,,,,,,,,,,,,,,,,,,,,,,,,,,
,,,,,,,,,,stimuli/images/PICTURE_708.png,RECORD,59e71906ac0af70001b36a06,06/02/1989,2020-08-27_15h46.26.691,proactive3.2,2020.1.2,Win32,60,5f47c0b9b035471e11593a5c,5f47c72ac541cc1f16f3b51d,1,,,,,,monkey,,,,,,0,7,7,58,1,6,1,,,,,,,,,,,,,,,,,,,,,,,,,,,,,,,,,,,,,,,,,,,,,,,,,,,,,,,,,,,,,,,,,,,,,,,,,,,
,,,,,,,,,,stimuli/images/PICTURE_667.png,RIVER,59e71906ac0af70001b36a06,06/02/1989,2020-08-27_15h46.26.691,proactive3.2,2020.1.2,Win32,60,5f47c0b9b035471e11593a5c,5f47c72ac541cc1f16f3b51d,1,,,,,,daisy,,,,,,0,8,8,10,1,2,1,,,,,,,,,,,,,,,,,,,,,,,,,,,,,,,,,,,,,,,,,,,,,,,,,,,,,,,,,,,,,,,,,,,,,,,,,,,
,,,,,,,,,,stimuli/images/PICTURE_85.png,NATION,59e71906ac0af70001b36a06,06/02/1989,2020-08-27_15h46.26.691,proactive3.2,2020.1.2,Win32,60,5f47c0b9b035471e11593a5c,5f47c72ac541cc1f16f3b51d,1,,,,,,diamond,,,,,,0,9,9,5,1,1,1,,,,,,,,,,,,,,,,,,,,,,,,,,,,,,,,,,,,,,,,,,,,,,,,,,,,,,,,,,,,,,,,,,,,,,,,,,,
,,,,,,,,,,stimuli/images/PICTURE_327.png,SERIES,59e71906ac0af70001b36a06,06/02/1989,2020-08-27_15h46.26.691,proactive3.2,2020.1.2,Win32,60,5f47c0b9b035471e11593a5c,5f47c72ac541cc1f16f3b51d,1,,,,,,helmet,,,,,,0,10,10,3,1,1,1,,,,,,,,,,,,,,,,,,,,,,,,,,,,,,,,,,,,,,,,,,,,,,,,,,,,,,,,,,,,,,,,,,,,,,,,,,,
,,,,,,,,,,stimuli/images/PICTURE_32.png,KIND,59e71906ac0af70001b36a06,06/02/1989,2020-08-27_15h46.26.691,proactive3.2,2020.1.2,Win32,60,5f47c0b9b035471e11593a5c,5f47c72ac541cc1f16f3b51d,1,,,,,,crown,,,,,,0,11,11,35,1,4,1,,,,,,,,,,,,,,,,,,,,,,,,,,,,,,,,,,,,,,,,,,,,,,,,,,,,,,,,,,,,,,,,,,,,,,,,,,,
,,,,,,,,,,stimuli/images/PICTURE_147.png,WOMEN,59e71906ac0af70001b36a06,06/02/1989,2020-08-27_15h46.26.691,proactive3.2,2020.1.2,Win32,60,5f47c0b9b035471e11593a5c,5f47c72ac541cc1f16f3b51d,1,,,,,,hanger,,,,,,0,12,12,7,1,1,1,,,,,,,,,,,,,,,,,,,,,,,,,,,,,,,,,,,,,,,,,,,,,,,,,,,,,,,,,,,,,,,,,,,,,,,,,,,
,,,,,,,,,,stimuli/images/PICTURE_147.png,YEAR,59e71906ac0af70001b36a06,06/02/1989,2020-08-27_15h46.26.691,proactive3.2,2020.1.2,Win32,60,5f47c0b9b035471e11593a5c,5f47c72ac541cc1f16f3b51d,1,,,,,,hanger,,,,,,0,13,13,21,1,3,1,,,,,,,,,,,,,,,,,,,,,,,,,,,,,,,,,,,,,,,,,,,,,,,,,,,,,,,,,,,,,,,,,,,,,,,,,,,
,,,,,,,,,,stimuli/images/PICTURE_57.png,MOMENT,59e71906ac0af70001b36a06,06/02/1989,2020-08-27_15h46.26.691,proactive3.2,2020.1.2,Win32,60,5f47c0b9b035471e11593a5c,5f47c72ac541cc1f16f3b51d,1,,,,,,stamp,,,,,,0,14,14,37,1,4,1,,,,,,,,,,,,,,,,,,,,,,,,,,,,,,,,,,,,,,,,,,,,,,,,,,,,,,,,,,,,,,,,,,,,,,,,,,,
,,,,,,,,,,stimuli/images/PICTURE_504.png,COPS,59e71906ac0af70001b36a06,06/02/1989,2020-08-27_15h46.26.691,proactive3.2,2020.1.2,Win32,60,5f47c0b9b035471e11593a5c,5f47c72ac541cc1f16f3b51d,1,,,,,,wheel,,,,,,0,15,15,52,1,6,1,,,,,,,,,,,,,,,,,,,,,,,,,,,,,,,,,,,,,,,,,,,,,,,,,,,,,,,,,,,,,,,,,,,,,,,,,,,
,,,,,,,,,,stimuli/images/PICTURE_685.png,PENNY,59e71906ac0af70001b36a06,06/02/1989,2020-08-27_15h46.26.691,proactive3.2,2020.1.2,Win32,60,5f47c0b9b035471e11593a5c,5f47c72ac541cc1f16f3b51d,1,,,,,,goose,,,,,,0,16,16,4,1,1,1,,,,,,,,,,,,,,,,,,,,,,,,,,,,,,,,,,,,,,,,,,,,,,,,,,,,,,,,,,,,,,,,,,,,,,,,,,,
,,,,,,,,,,stimuli/images/PICTURE_383.png,WRITER,59e71906ac0af70001b36a06,06/02/1989,2020-08-27_15h46.26.691,proactive3.2,2020.1.2,Win32,60,5f47c0b9b035471e11593a5c,5f47c72ac541cc1f16f3b51d,1,,,,,,coin,,,,,,0,17,17,28,1,3,1,,,,,,,,,,,,,,,,,,,,,,,,,,,,,,,,,,,,,,,,,,,,,,,,,,,,,,,,,,,,,,,,,,,,,,,,,,,
,,,,,,,,,,stimuli/images/PICTURE_403.png,WRITER,59e71906ac0af70001b36a06,06/02/1989,2020-08-27_15h46.26.691,proactive3.2,2020.1.2,Win32,60,5f47c0b9b035471e11593a5c,5f47c72ac541cc1f16f3b51d,1,,,,,,cathedral,,,,,,0,18,18,31,1,4,1,,,,,,,,,,,,,,,,,,,,,,,,,,,,,,,,,,,,,,,,,,,,,,,,,,,,,,,,,,,,,,,,,,,,,,,,,,,
,,,,,,,,,,stimuli/images/PICTURE_233.png,LOTS,59e71906ac0af70001b36a06,06/02/1989,2020-08-27_15h46.26.691,proactive3.2,2020.1.2,Win32,60,5f47c0b9b035471e11593a5c,5f47c72ac541cc1f16f3b51d,1,,,,,,salt,,,,,,0,19,19,42,1,5,1,,,,,,,,,,,,,,,,,,,,,,,,,,,,,,,,,,,,,,,,,,,,,,,,,,,,,,,,,,,,,,,,,,,,,,,,,,,
,,,,,,,,,,stimuli/images/PICTURE_95.png,HONEY,59e71906ac0af70001b36a06,06/02/1989,2020-08-27_15h46.26.691,proactive3.2,2020.1.2,Win32,60,5f47c0b9b035471e11593a5c,5f47c72ac541cc1f16f3b51d,1,,,,,,suitcase,,,,,,0,20,20,44,1,5,1,,,,,,,,,,,,,,,,,,,,,,,,,,,,,,,,,,,,,,,,,,,,,,,,,,,,,,,,,,,,,,,,,,,,,,,,,,,
,,,,,,,,,,stimuli/images/PICTURE_108.png,POLICY,59e71906ac0af70001b36a06,06/02/1989,2020-08-27_15h46.26.691,proactive3.2,2020.1.2,Win32,60,5f47c0b9b035471e11593a5c,5f47c72ac541cc1f16f3b51d,1,,,,,,calendar,,,,,,0,21,21,22,1,3,1,,,,,,,,,,,,,,,,,,,,,,,,,,,,,,,,,,,,,,,,,,,,,,,,,,,,,,,,,,,,,,,,,,,,,,,,,,,
,,,,,,,,,,stimuli/images/PICTURE_285.png,LIFE,59e71906ac0af70001b36a06,06/02/1989,2020-08-27_15h46.26.691,proactive3.2,2020.1.2,Win32,60,5f47c0b9b035471e11593a5c,5f47c72ac541cc1f16f3b51d,1,,,,,,carrot,,,,,,0,22,22,33,1,4,1,,,,,,,,,,,,,,,,,,,,,,,,,,,,,,,,,,,,,,,,,,,,,,,,,,,,,,,,,,,,,,,,,,,,,,,,,,,
,,,,,,,,,,stimuli/images/PICTURE_95.png,MILLER,59e71906ac0af70001b36a06,06/02/1989,2020-08-27_15h46.26.691,proactive3.2,2020.1.2,Win32,60,5f47c0b9b035471e11593a5c,5f47c72ac541cc1f16f3b51d,1,,,,,,suitcase,,,,,,0,23,23,56,1,6,1,,,,,,,,,,,,,,,,,,,,,,,,,,,,,,,,,,,,,,,,,,,,,,,,,,,,,,,,,,,,,,,,,,,,,,,,,,,
,,,,,,,,,,stimuli/images/PICTURE_380.png,CANDY,59e71906ac0af70001b36a06,06/02/1989,2020-08-27_15h46.26.691,proactive3.2,2020.1.2,Win32,60,5f47c0b9b035471e11593a5c,5f47c72ac541cc1f16f3b51d,1,,,,,,gorilla,,,,,,0,24,24,0,1,1,1,,,,,,,,,,,,,,,,,,,,,,,,,,,,,,,,,,,,,,,,,,,,,,,,,,,,,,,,,,,,,,,,,,,,,,,,,,,
,,,,,,,,,,stimuli/images/PICTURE_405.png,YEAR,59e71906ac0af70001b36a06,06/02/1989,2020-08-27_15h46.26.691,proactive3.2,2020.1.2,Win32,60,5f47c0b9b035471e11593a5c,5f47c72ac541cc1f16f3b51d,1,,,,,,anchor,,,,,,0,25,25,34,1,4,1,,,,,,,,,,,,,,,,,,,,,,,,,,,,,,,,,,,,,,,,,,,,,,,,,,,,,,,,,,,,,,,,,,,,,,,,,,,
,,,,,,,,,,stimuli/images/PICTURE_564.png,BATH,59e71906ac0af70001b36a06,06/02/1989,2020-08-27_15h46.26.691,proactive3.2,2020.1.2,Win32,60,5f47c0b9b035471e11593a5c,5f47c72ac541cc1f16f3b51d,1,,,,,,spoon,,,,,,0,26,26,26,1,3,1,,,,,,,,,,,,,,,,,,,,,,,,,,,,,,,,,,,,,,,,,,,,,,,,,,,,,,,,,,,,,,,,,,,,,,,,,,,
,,,,,,,,,,stimuli/images/PICTURE_405.png,PLENTY,59e71906ac0af70001b36a06,06/02/1989,2020-08-27_15h46.26.691,proactive3.2,2020.1.2,Win32,60,5f47c0b9b035471e11593a5c,5f47c72ac541cc1f16f3b51d,1,,,,,,anchor,,,,,,0,27,27,23,1,3,1,,,,,,,,,,,,,,,,,,,,,,,,,,,,,,,,,,,,,,,,,,,,,,,,,,,,,,,,,,,,,,,,,,,,,,,,,,,
,,,,,,,,,,stimuli/images/PICTURE_467.png,POLICY,59e71906ac0af70001b36a06,06/02/1989,2020-08-27_15h46.26.691,proactive3.2,2020.1.2,Win32,60,5f47c0b9b035471e11593a5c,5f47c72ac541cc1f16f3b51d,1,,,,,,peg,,,,,,0,28,28,53,1,6,1,,,,,,,,,,,,,,,,,,,,,,,,,,,,,,,,,,,,,,,,,,,,,,,,,,,,,,,,,,,,,,,,,,,,,,,,,,,
,,,,,,,,,,stimuli/images/PICTURE_33.png,FRIEND,59e71906ac0af70001b36a06,06/02/1989,2020-08-27_15h46.26.691,proactive3.2,2020.1.2,Win32,60,5f47c0b9b035471e11593a5c,5f47c72ac541cc1f16f3b51d,1,,,,,,frame,,,,,,0,29,29,8,1,1,1,,,,,,,,,,,,,,,,,,,,,,,,,,,,,,,,,,,,,,,,,,,,,,,,,,,,,,,,,,,,,,,,,,,,,,,,,,,
,,,,,,,,,,stimuli/images/PICTURE_208.png,SYSTEM,59e71906ac0af70001b36a06,06/02/1989,2020-08-27_15h46.26.691,proactive3.2,2020.1.2,Win32,60,5f47c0b9b035471e11593a5c,5f47c72ac541cc1f16f3b51d,1,,,,,,microphone,,,,,,0,30,30,32,1,4,1,,,,,,,,,,,,,,,,,,,,,,,,,,,,,,,,,,,,,,,,,,,,,,,,,,,,,,,,,,,,,,,,,,,,,,,,,,,
,,,,,,,,,,stimuli/images/PICTURE_177.png,WRITER,59e71906ac0af70001b36a06,06/02/1989,2020-08-27_15h46.26.691,proactive3.2,2020.1.2,Win32,60,5f47c0b9b035471e11593a5c,5f47c72ac541cc1f16f3b51d,1,,,,,,mushroom,,,,,,0,31,31,41,1,5,1,,,,,,,,,,,,,,,,,,,,,,,,,,,,,,,,,,,,,,,,,,,,,,,,,,,,,,,,,,,,,,,,,,,,,,,,,,,
,,,,,,,,,,stimuli/images/PICTURE_383.png,SERIES,59e71906ac0af70001b36a06,06/02/1989,2020-08-27_15h46.26.691,proactive3.2,2020.1.2,Win32,60,5f47c0b9b035471e11593a5c,5f47c72ac541cc1f16f3b51d,1,,,,,,coin,,,,,,0,32,32,46,1,5,1,,,,,,,,,,,,,,,,,,,,,,,,,,,,,,,,,,,,,,,,,,,,,,,,,,,,,,,,,,,,,,,,,,,,,,,,,,,
,,,,,,,,,,stimuli/images/PICTURE_340.png,VALLEY,59e71906ac0af70001b36a06,06/02/1989,2020-08-27_15h46.26.691,proactive3.2,2020.1.2,Win32,60,5f47c0b9b035471e11593a5c,5f47c72ac541cc1f16f3b51d,1,,,,,,mirror,,,,,,0,33,33,54,1,6,1,,,,,,,,,,,,,,,,,,,,,,,,,,,,,,,,,,,,,,,,,,,,,,,,,,,,,,,,,,,,,,,,,,,,,,,,,,,
,,,,,,,,,,stimuli/images/PICTURE_203.png,GODS,59e71906ac0af70001b36a06,06/02/1989,2020-08-27_15h46.26.691,proactive3.2,2020.1.2,Win32,60,5f47c0b9b035471e11593a5c,5f47c72ac541cc1f16f3b51d,1,,,,,,cap,,,,,,0,34,34,30,1,4,1,,,,,,,,,,,,,,,,,,,,,,,,,,,,,,,,,,,,,,,,,,,,,,,,,,,,,,,,,,,,,,,,,,,,,,,,,,,
,,,,,,,,,,stimuli/images/PICTURE_340.png,LETTER,59e71906ac0af70001b36a06,06/02/1989,2020-08-27_15h46.26.691,proactive3.2,2020.1.2,Win32,60,5f47c0b9b035471e11593a5c,5f47c72ac541cc1f16f3b51d,1,,,,,,mirror,,,,,,0,35,35,24,1,3,1,,,,,,,,,,,,,,,,,,,,,,,,,,,,,,,,,,,,,,,,,,,,,,,,,,,,,,,,,,,,,,,,,,,,,,,,,,,
,,,,,,,,,,stimuli/images/PICTURE_744.png,WEAPON,59e71906ac0af70001b36a06,06/02/1989,2020-08-27_15h46.26.691,proactive3.2,2020.1.2,Win32,60,5f47c0b9b035471e11593a5c,5f47c72ac541cc1f16f3b51d,1,,,,,,ring,,,,,,0,36,36,50,1,6,1,,,,,,,,,,,,,,,,,,,,,,,,,,,,,,,,,,,,,,,,,,,,,,,,,,,,,,,,,,,,,,,,,,,,,,,,,,,
,,,,,,,,,,stimuli/images/PICTURE_339.png,CLIENT,59e71906ac0af70001b36a06,06/02/1989,2020-08-27_15h46.26.691,proactive3.2,2020.1.2,Win32,60,5f47c0b9b035471e11593a5c,5f47c72ac541cc1f16f3b51d,1,,,,,,backpack,,,,,,0,37,37,11,1,2,1,,,,,,,,,,,,,,,,,,,,,,,,,,,,,,,,,,,,,,,,,,,,,,,,,,,,,,,,,,,,,,,,,,,,,,,,,,,
,,,,,,,,,,stimuli/images/PICTURE_403.png,RIVER,59e71906ac0af70001b36a06,06/02/1989,2020-08-27_15h46.26.691,proactive3.2,2020.1.2,Win32,60,5f47c0b9b035471e11593a5c,5f47c72ac541cc1f16f3b51d,1,,,,,,cathedral,,,,,,0,38,38,40,1,5,1,,,,,,,,,,,,,,,,,,,,,,,,,,,,,,,,,,,,,,,,,,,,,,,,,,,,,,,,,,,,,,,,,,,,,,,,,,,
,,,,,,,,,,stimuli/images/PICTURE_491.png,RIVER,59e71906ac0af70001b36a06,06/02/1989,2020-08-27_15h46.26.691,proactive3.2,2020.1.2,Win32,60,5f47c0b9b035471e11593a5c,5f47c72ac541cc1f16f3b51d,1,,,,,,rug,,,,,,0,39,39,6,1,1,1,,,,,,,,,,,,,,,,,,,,,,,,,,,,,,,,,,,,,,,,,,,,,,,,,,,,,,,,,,,,,,,,,,,,,,,,,,,
,,,,,,,,,,stimuli/images/PICTURE_403.png,TOILET,59e71906ac0af70001b36a06,06/02/1989,2020-08-27_15h46.26.691,proactive3.2,2020.1.2,Win32,60,5f47c0b9b035471e11593a5c,5f47c72ac541cc1f16f3b51d,1,,,,,,cathedral,,,,,,0,40,40,25,1,3,1,,,,,,,,,,,,,,,,,,,,,,,,,,,,,,,,,,,,,,,,,,,,,,,,,,,,,,,,,,,,,,,,,,,,,,,,,,,
,,,,,,,,,,stimuli/images/PICTURE_85.png,TOILET,59e71906ac0af70001b36a06,06/02/1989,2020-08-27_15h46.26.691,proactive3.2,2020.1.2,Win32,60,5f47c0b9b035471e11593a5c,5f47c72ac541cc1f16f3b51d,1,,,,,,diamond,,,,,,0,41,41,48,1,5,1,,,,,,,,,,,,,,,,,,,,,,,,,,,,,,,,,,,,,,,,,,,,,,,,,,,,,,,,,,,,,,,,,,,,,,,,,,,
,,,,,,,,,,stimuli/images/PICTURE_95.png,BOYS,59e71906ac0af70001b36a06,06/02/1989,2020-08-27_15h46.26.691,proactive3.2,2020.1.2,Win32,60,5f47c0b9b035471e11593a5c,5f47c72ac541cc1f16f3b51d,1,,,,,,suitcase,,,,,,0,42,42,1,1,1,1,,,,,,,,,,,,,,,,,,,,,,,,,,,,,,,,,,,,,,,,,,,,,,,,,,,,,,,,,,,,,,,,,,,,,,,,,,,
,,,,,,,,,,stimuli/images/PICTURE_42.png,BOYS,59e71906ac0af70001b36a06,06/02/1989,2020-08-27_15h46.26.691,proactive3.2,2020.1.2,Win32,60,5f47c0b9b035471e11593a5c,5f47c72ac541cc1f16f3b51d,1,,,,,,pear,,,,,,0,43,43,55,1,6,1,,,,,,,,,,,,,,,,,,,,,,,,,,,,,,,,,,,,,,,,,,,,,,,,,,,,,,,,,,,,,,,,,,,,,,,,,,,
,,,,,,,,,,stimuli/images/PICTURE_487.png,GIRL,59e71906ac0af70001b36a06,06/02/1989,2020-08-27_15h46.26.691,proactive3.2,2020.1.2,Win32,60,5f47c0b9b035471e11593a5c,5f47c72ac541cc1f16f3b51d,1,,,,,,basket,,,,,,0,44,44,45,1,5,1,,,,,,,,,,,,,,,,,,,,,,,,,,,,,,,,,,,,,,,,,,,,,,,,,,,,,,,,,,,,,,,,,,,,,,,,,,,
,,,,,,,,,,stimuli/images/PICTURE_504.png,ARTIST,59e71906ac0af70001b36a06,06/02/1989,2020-08-27_15h46.26.691,proactive3.2,2020.1.2,Win32,60,5f47c0b9b035471e11593a5c,5f47c72ac541cc1f16f3b51d,1,,,,,,wheel,,,,,,0,45,45,49,1,5,1,,,,,,,,,,,,,,,,,,,,,,,,,,,,,,,,,,,,,,,,,,,,,,,,,,,,,,,,,,,,,,,,,,,,,,,,,,,
,,,,,,,,,,stimuli/images/PICTURE_2.png,FLIGHT,59e71906ac0af70001b36a06,06/02/1989,2020-08-27_15h46.26.691,proactive3.2,2020.1.2,Win32,60,5f47c0b9b035471e11593a5c,5f47c72ac541cc1f16f3b51d,1,,,,,,tyre,,,,,,0,46,46,15,1,2,1,,,,,,,,,,,,,,,,,,,,,,,,,,,,,,,,,,,,,,,,,,,,,,,,,,,,,,,,,,,,,,,,,,,,,,,,,,,
,,,,,,,,,,stimuli/images/PICTURE_108.png,FLIGHT,59e71906ac0af70001b36a06,06/02/1989,2020-08-27_15h46.26.691,proactive3.2,2020.1.2,Win32,60,5f47c0b9b035471e11593a5c,5f47c72ac541cc1f16f3b51d,1,,,,,,calendar,,,,,,0,47,47,59,1,6,1,,,,,,,,,,,,,,,,,,,,,,,,,,,,,,,,,,,,,,,,,,,,,,,,,,,,,,,,,,,,,,,,,,,,,,,,,,,
,,,,,,,,,,stimuli/images/PICTURE_677.png,APPLE,59e71906ac0af70001b36a06,06/02/1989,2020-08-27_15h46.26.691,proactive3.2,2020.1.2,Win32,60,5f47c0b9b035471e11593a5c,5f47c72ac541cc1f16f3b51d,1,,,,,,map,,,,,,0,48,48,43,1,5,1,,,,,,,,,,,,,,,,,,,,,,,,,,,,,,,,,,,,,,,,,,,,,,,,,,,,,,,,,,,,,,,,,,,,,,,,,,,
,,,,,,,,,,stimuli/images/PICTURE_296.png,LIFE,59e71906ac0af70001b36a06,06/02/1989,2020-08-27_15h46.26.691,proactive3.2,2020.1.2,Win32,60,5f47c0b9b035471e11593a5c,5f47c72ac541cc1f16f3b51d,1,,,,,,bolt,,,,,,0,49,49,57,1,6,1,,,,,,,,,,,,,,,,,,,,,,,,,,,,,,,,,,,,,,,,,,,,,,,,,,,,,,,,,,,,,,,,,,,,,,,,,,,
,,,,,,,,,,stimuli/images/PICTURE_449.png,DUDE,59e71906ac0af70001b36a06,06/02/1989,2020-08-27_15h46.26.691,proactive3.2,2020.1.2,Win32,60,5f47c0b9b035471e11593a5c,5f47c72ac541cc1f16f3b51d,1,,,,,,bench,,,,,,0,50,50,17,1,2,1,,,,,,,,,,,,,,,,,,,,,,,,,,,,,,,,,,,,,,,,,,,,,,,,,,,,,,,,,,,,,,,,,,,,,,,,,,,
,,,,,,,,,,stimuli/images/PICTURE_750.png,HOTEL,59e71906ac0af70001b36a06,06/02/1989,2020-08-27_15h46.26.691,proactive3.2,2020.1.2,Win32,60,5f47c0b9b035471e11593a5c,5f47c72ac541cc1f16f3b51d,1,,,,,,kettle,,,,,,0,51,51,27,1,3,1,,,,,,,,,,,,,,,,,,,,,,,,,,,,,,,,,,,,,,,,,,,,,,,,,,,,,,,,,,,,,,,,,,,,,,,,,,,
,,,,,,,,,,stimuli/images/PICTURE_32.png,PILLS,59e71906ac0af70001b36a06,06/02/1989,2020-08-27_15h46.26.691,proactive3.2,2020.1.2,Win32,60,5f47c0b9b035471e11593a5c,5f47c72ac541cc1f16f3b51d,1,,,,,,crown,,,,,,0,52,52,18,1,2,1,,,,,,,,,,,,,,,,,,,,,,,,,,,,,,,,,,,,,,,,,,,,,,,,,,,,,,,,,,,,,,,,,,,,,,,,,,,
,,,,,,,,,,stimuli/images/PICTURE_203.png,NIGHT,59e71906ac0af70001b36a06,06/02/1989,2020-08-27_15h46.26.691,proactive3.2,2020.1.2,Win32,60,5f47c0b9b035471e11593a5c,5f47c72ac541cc1f16f3b51d,1,,,,,,cap,,,,,,0,53,53,2,1,1,1,,,,,,,,,,,,,,,,,,,,,,,,,,,,,,,,,,,,,,,,,,,,,,,,,,,,,,,,,,,,,,,,,,,,,,,,,,,
,,,,,,,,,,stimuli/images/PICTURE_654.png,MONTH,59e71906ac0af70001b36a06,06/02/1989,2020-08-27_15h46.26.691,proactive3.2,2020.1.2,Win32,60,5f47c0b9b035471e11593a5c,5f47c72ac541cc1f16f3b51d,1,,,,,,pencil,,,,,,0,54,54,29,1,3,1,,,,,,,,,,,,,,,,,,,,,,,,,,,,,,,,,,,,,,,,,,,,,,,,,,,,,,,,,,,,,,,,,,,,,,,,,,,
,,,,,,,,,,stimuli/images/PICTURE_68.png,ROOF,59e71906ac0af70001b36a06,06/02/1989,2020-08-27_15h46.26.691,proactive3.2,2020.1.2,Win32,60,5f47c0b9b035471e11593a5c,5f47c72ac541cc1f16f3b51d,1,,,,,,candle,,,,,,0,55,55,38,1,4,1,,,,,,,,,,,,,,,,,,,,,,,,,,,,,,,,,,,,,,,,,,,,,,,,,,,,,,,,,,,,,,,,,,,,,,,,,,,
,,,,,,,,,,stimuli/images/PICTURE_380.png,HONEY,59e71906ac0af70001b36a06,06/02/1989,2020-08-27_15h46.26.691,proactive3.2,2020.1.2,Win32,60,5f47c0b9b035471e11593a5c,5f47c72ac541cc1f16f3b51d,1,,,,,,gorilla,,,,,,0,56,56,19,1,2,1,,,,,,,,,,,,,,,,,,,,,,,,,,,,,,,,,,,,,,,,,,,,,,,,,,,,,,,,,,,,,,,,,,,,,,,,,,,
,,,,,,,,,,stimuli/images/PICTURE_491.png,GLASS,59e71906ac0af70001b36a06,06/02/1989,2020-08-27_15h46.26.691,proactive3.2,2020.1.2,Win32,60,5f47c0b9b035471e11593a5c,5f47c72ac541cc1f16f3b51d,1,,,,,,rug,,,,,,0,57,57,14,1,2,1,,,,,,,,,,,,,,,,,,,,,,,,,,,,,,,,,,,,,,,,,,,,,,,,,,,,,,,,,,,,,,,,,,,,,,,,,,,
,,,,,,,,,,stimuli/images/PICTURE_675.png,SALE,59e71906ac0af70001b36a06,06/02/1989,2020-08-27_15h46.26.691,proactive3.2,2020.1.2,Win32,60,5f47c0b9b035471e11593a5c,5f47c72ac541cc1f16f3b51d,1,,,,,,windmill,,,,,,0,58,58,47,1,5,1,,,,,,,,,,,,,,,,,,,,,,,,,,,,,,,,,,,,,,,,,,,,,,,,,,,,,,,,,,,,,,,,,,,,,,,,,,,
,,?,0.000525,0,,,,,,stimuli/images/PICTURE_677.png,APPLE,59e71906ac0af70001b36a06,06/02/1989,2020-08-27_15h46.26.691,proactive3.2,2020.1.2,Win32,60,5f47c0b9b035471e11593a5c,5f47c72ac541cc1f16f3b51d,1,,,,,,map,,,,,,,,,,,5,1,0,0,0,43,1,,,,,,,,,,,,,,,,,,,,,,,,,,,,,,,,,,,,,,,,,,,,,,,,,,,,,,,,,,,,,,,,,,,,,,
,,?,0.000485,0,,,,,,stimuli/images/PICTURE_405.png,YEAR,59e71906ac0af70001b36a06,06/02/1989,2020-08-27_15h46.26.691,proactive3.2,2020.1.2,Win32,60,5f47c0b9b035471e11593a5c,5f47c72ac541cc1f16f3b51d,1,,,,,,anchor,,,,,,,,,,,4,1,0,1,1,34,1,,,,,,,,,,,,,,,,,,,,,,,,,,,,,,,,,,,,,,,,,,,,,,,,,,,,,,,,,,,,,,,,,,,,,,
,,PENNY,2.311095,1,,,,,,stimuli/images/PICTURE_685.png,PENNY,59e71906ac0af70001b36a06,06/02/1989,2020-08-27_15h46.26.691,proactive3.2,2020.1.2,Win32,60,5f47c0b9b035471e11593a5c,5f47c72ac541cc1f16f3b51d,1,,,,,,goose,,,,,,,,,,,1,1,0,2,2,4,1,,,,,,,,,,,,,,,,,,,,,,,,,,,,,,,,,,,,,,,,,,,,,,,,,,,,,,,,,,,,,,,,,,,,,,
,,FRIEND,2.598985,1,,,,,,stimuli/images/PICTURE_33.png,FRIEND,59e71906ac0af70001b36a06,06/02/1989,2020-08-27_15h46.26.691,proactive3.2,2020.1.2,Win32,60,5f47c0b9b035471e11593a5c,5f47c72ac541cc1f16f3b51d,1,,,,,,frame,,,,,,,,,,,1,1,0,3,3,8,1,,,,,,,,,,,,,,,,,,,,,,,,,,,,,,,,,,,,,,,,,,,,,,,,,,,,,,,,,,,,,,,,,,,,,,
,,?,0.00062,0,,,,,,stimuli/images/PICTURE_504.png,ARTIST,59e71906ac0af70001b36a06,06/02/1989,2020-08-27_15h46.26.691,proactive3.2,2020.1.2,Win32,60,5f47c0b9b035471e11593a5c,5f47c72ac541cc1f16f3b51d,1,,,,,,wheel,,,,,,,,,,,5,1,0,4,4,49,1,,,,,,,,,,,,,,,,,,,,,,,,,,,,,,,,,,,,,,,,,,,,,,,,,,,,,,,,,,,,,,,,,,,,,,
,,?,0.000375,0,,,,,,stimuli/images/PICTURE_296.png,LIFE,59e71906ac0af70001b36a06,06/02/1989,2020-08-27_15h46.26.691,proactive3.2,2020.1.2,Win32,60,5f47c0b9b035471e11593a5c,5f47c72ac541cc1f16f3b51d,1,,,,,,bolt,,,,,,,,,,,6,1,0,5,5,57,1,,,,,,,,,,,,,,,,,,,,,,,,,,,,,,,,,,,,,,,,,,,,,,,,,,,,,,,,,,,,,,,,,,,,,,
,,?,0.00037,0,,,,,,stimuli/images/PICTURE_327.png,CASINO,59e71906ac0af70001b36a06,06/02/1989,2020-08-27_15h46.26.691,proactive3.2,2020.1.2,Win32,60,5f47c0b9b035471e11593a5c,5f47c72ac541cc1f16f3b51d,1,,,,,,helmet,,,,,,,,,,,3,1,0,6,6,20,1,,,,,,,,,,,,,,,,,,,,,,,,,,,,,,,,,,,,,,,,,,,,,,,,,,,,,,,,,,,,,,,,,,,,,,
,,?,0.00038,0,,,,,,stimuli/images/PICTURE_654.png,MONTH,59e71906ac0af70001b36a06,06/02/1989,2020-08-27_15h46.26.691,proactive3.2,2020.1.2,Win32,60,5f47c0b9b035471e11593a5c,5f47c72ac541cc1f16f3b51d,1,,,,,,pencil,,,,,,,,,,,3,1,0,7,7,29,1,,,,,,,,,,,,,,,,,,,,,,,,,,,,,,,,,,,,,,,,,,,,,,,,,,,,,,,,,,,,,,,,,,,,,,
,,?,0.00037,0,,,,,,stimuli/images/PICTURE_708.png,RECORD,59e71906ac0af70001b36a06,06/02/1989,2020-08-27_15h46.26.691,proactive3.2,2020.1.2,Win32,60,5f47c0b9b035471e11593a5c,5f47c72ac541cc1f16f3b51d,1,,,,,,monkey,,,,,,,,,,,6,1,0,8,8,58,1,,,,,,,,,,,,,,,,,,,,,,,,,,,,,,,,,,,,,,,,,,,,,,,,,,,,,,,,,,,,,,,,,,,,,,
,,?,0.000735,0,,,,,,stimuli/images/PICTURE_68.png,ROOF,59e71906ac0af70001b36a06,06/02/1989,2020-08-27_15h46.26.691,proactive3.2,2020.1.2,Win32,60,5f47c0b9b035471e11593a5c,5f47c72ac541cc1f16f3b51d,1,,,,,,candle,,,,,,,,,,,4,1,0,9,9,38,1,,,,,,,,,,,,,,,,,,,,,,,,,,,,,,,,,,,,,,,,,,,,,,,,,,,,,,,,,,,,,,,,,,,,,,
,,?,0.0005,0,,,,,,stimuli/images/PICTURE_491.png,GLASS,59e71906ac0af70001b36a06,06/02/1989,2020-08-27_15h46.26.691,proactive3.2,2020.1.2,Win32,60,5f47c0b9b035471e11593a5c,5f47c72ac541cc1f16f3b51d,1,,,,,,rug,,,,,,,,,,,2,1,0,10,10,14,1,,,,,,,,,,,,,,,,,,,,,,,,,,,,,,,,,,,,,,,,,,,,,,,,,,,,,,,,,,,,,,,,,,,,,,
,,?,0.000375,0,,,,,,stimuli/images/PICTURE_564.png,BATH,59e71906ac0af70001b36a06,06/02/1989,2020-08-27_15h46.26.691,proactive3.2,2020.1.2,Win32,60,5f47c0b9b035471e11593a5c,5f47c72ac541cc1f16f3b51d,1,,,,,,spoon,,,,,,,,,,,3,1,0,11,11,26,1,,,,,,,,,,,,,,,,,,,,,,,,,,,,,,,,,,,,,,,,,,,,,,,,,,,,,,,,,,,,,,,,,,,,,,
,,?,0.000365,0,,,,,,stimuli/images/PICTURE_108.png,FLIGHT,59e71906ac0af70001b36a06,06/02/1989,2020-08-27_15h46.26.691,proactive3.2,2020.1.2,Win32,60,5f47c0b9b035471e11593a5c,5f47c72ac541cc1f16f3b51d,1,,,,,,calendar,,,,,,,,,,,6,1,0,12,12,59,1,,,,,,,,,,,,,,,,,,,,,,,,,,,,,,,,,,,,,,,,,,,,,,,,,,,,,,,,,,,,,,,,,,,,,,
,,?,0.000385,0,,,,,,stimuli/images/PICTURE_744.png,WEAPON,59e71906ac0af70001b36a06,06/02/1989,2020-08-27_15h46.26.691,proactive3.2,2020.1.2,Win32,60,5f47c0b9b035471e11593a5c,5f47c72ac541cc1f16f3b51d,1,,,,,,ring,,,,,,,,,,,6,1,0,13,13,50,1,,,,,,,,,,,,,,,,,,,,,,,,,,,,,,,,,,,,,,,,,,,,,,,,,,,,,,,,,,,,,,,,,,,,,,
,,?,0.000385,0,,,,,,stimuli/images/PICTURE_32.png,PILLS,59e71906ac0af70001b36a06,06/02/1989,2020-08-27_15h46.26.691,proactive3.2,2020.1.2,Win32,60,5f47c0b9b035471e11593a5c,5f47c72ac541cc1f16f3b51d,1,,,,,,crown,,,,,,,,,,,2,1,0,14,14,18,1,,,,,,,,,,,,,,,,,,,,,,,,,,,,,,,,,,,,,,,,,,,,,,,,,,,,,,,,,,,,,,,,,,,,,,
,,?,0.00044,0,,,,,,stimuli/images/PICTURE_297.png,RIVER,59e71906ac0af70001b36a06,06/02/1989,2020-08-27_15h46.26.691,proactive3.2,2020.1.2,Win32,60,5f47c0b9b035471e11593a5c,5f47c72ac541cc1f16f3b51d,1,,,,,,aeroplane,,,,,,,,,,,4,1,0,15,15,39,1,,,,,,,,,,,,,,,,,,,,,,,,,,,,,,,,,,,,,,,,,,,,,,,,,,,,,,,,,,,,,,,,,,,,,,
,,?,0.0004,0,,,,,,stimuli/images/PICTURE_108.png,POLICY,59e71906ac0af70001b36a06,06/02/1989,2020-08-27_15h46.26.691,proactive3.2,2020.1.2,Win32,60,5f47c0b9b035471e11593a5c,5f47c72ac541cc1f16f3b51d,1,,,,,,calendar,,,,,,,,,,,3,1,0,16,16,22,1,,,,,,,,,,,,,,,,,,,,,,,,,,,,,,,,,,,,,,,,,,,,,,,,,,,,,,,,,,,,,,,,,,,,,,
,,?,0.000455,0,,,,,,stimuli/images/PICTURE_403.png,WRITER,59e71906ac0af70001b36a06,06/02/1989,2020-08-27_15h46.26.691,proactive3.2,2020.1.2,Win32,60,5f47c0b9b035471e11593a5c,5f47c72ac541cc1f16f3b51d,1,,,,,,cathedral,,,,,,,,,,,4,1,0,17,17,31,1,,,,,,,,,,,,,,,,,,,,,,,,,,,,,,,,,,,,,,,,,,,,,,,,,,,,,,,,,,,,,,,,,,,,,,
,,NATION,2.09972,1,,,,,,stimuli/images/PICTURE_85.png,NATION,59e71906ac0af70001b36a06,06/02/1989,2020-08-27_15h46.26.691,proactive3.2,2020.1.2,Win32,60,5f47c0b9b035471e11593a5c,5f47c72ac541cc1f16f3b51d,1,,,,,,diamond,,,,,,,,,,,1,1,0,18,18,5,1,,,,,,,,,,,,,,,,,,,,,,,,,,,,,,,,,,,,,,,,,,,,,,,,,,,,,,,,,,,,,,,,,,,,,,
,,?,0.0006,0,,,,,,stimuli/images/PICTURE_68.png,MILE,59e71906ac0af70001b36a06,06/02/1989,2020-08-27_15h46.26.691,proactive3.2,2020.1.2,Win32,60,5f47c0b9b035471e11593a5c,5f47c72ac541cc1f16f3b51d,1,,,,,,candle,,,,,,,,,,,6,1,0,19,19,51,1,,,,,,,,,,,,,,,,,,,,,,,,,,,,,,,,,,,,,,,,,,,,,,,,,,,,,,,,,,,,,,,,,,,,,,
,,?,0.000575,0,,,,,,stimuli/images/PICTURE_32.png,KIND,59e71906ac0af70001b36a06,06/02/1989,2020-08-27_15h46.26.691,proactive3.2,2020.1.2,Win32,60,5f47c0b9b035471e11593a5c,5f47c72ac541cc1f16f3b51d,1,,,,,,crown,,,,,,,,,,,4,1,0,20,20,35,1,,,,,,,,,,,,,,,,,,,,,,,,,,,,,,,,,,,,,,,,,,,,,,,,,,,,,,,,,,,,,,,,,,,,,,
,,?,0.000465,0,,,,,,stimuli/images/PICTURE_340.png,VALLEY,59e71906ac0af70001b36a06,06/02/1989,2020-08-27_15h46.26.691,proactive3.2,2020.1.2,Win32,60,5f47c0b9b035471e11593a5c,5f47c72ac541cc1f16f3b51d,1,,,,,,mirror,,,,,,,,,,,6,1,0,21,21,54,1,,,,,,,,,,,,,,,,,,,,,,,,,,,,,,,,,,,,,,,,,,,,,,,,,,,,,,,,,,,,,,,,,,,,,,
,,?,0.000445,0,,,,,,stimuli/images/PICTURE_57.png,MOMENT,59e71906ac0af70001b36a06,06/02/1989,2020-08-27_15h46.26.691,proactive3.2,2020.1.2,Win32,60,5f47c0b9b035471e11593a5c,5f47c72ac541cc1f16f3b51d,1,,,,,,stamp,,,,,,,,,,,4,1,0,22,22,37,1,,,,,,,,,,,,,,,,,,,,,,,,,,,,,,,,,,,,,,,,,,,,,,,,,,,,,,,,,,,,,,,,,,,,,,
,,?,0.00043,0,,,,,,stimuli/images/PICTURE_469.png,AGENT,59e71906ac0af70001b36a06,06/02/1989,2020-08-27_15h46.26.691,proactive3.2,2020.1.2,Win32,60,5f47c0b9b035471e11593a5c,5f47c72ac541cc1f16f3b51d,1,,,,,,stool,,,,,,,,,,,2,1,0,23,23,16,1,,,,,,,,,,,,,,,,,,,,,,,,,,,,,,,,,,,,,,,,,,,,,,,,,,,,,,,,,,,,,,,,,,,,,,
,,?,0.00051,0,,,,,,stimuli/images/PICTURE_203.png,GODS,59e71906ac0af70001b36a06,06/02/1989,2020-08-27_15h46.26.691,proactive3.2,2020.1.2,Win32,60,5f47c0b9b035471e11593a5c,5f47c72ac541cc1f16f3b51d,1,,,,,,cap,,,,,,,,,,,4,1,0,24,24,30,1,,,,,,,,,,,,,,,,,,,,,,,,,,,,,,,,,,,,,,,,,,,,,,,,,,,,,,,,,,,,,,,,,,,,,,
,,?,0.0004,0,,,,,,stimuli/images/PICTURE_403.png,RIVER,59e71906ac0af70001b36a06,06/02/1989,2020-08-27_15h46.26.691,proactive3.2,2020.1.2,Win32,60,5f47c0b9b035471e11593a5c,5f47c72ac541cc1f16f3b51d,1,,,,,,cathedral,,,,,,,,,,,5,1,0,25,25,40,1,,,,,,,,,,,,,,,,,,,,,,,,,,,,,,,,,,,,,,,,,,,,,,,,,,,,,,,,,,,,,,,,,,,,,,
,,?,0.00047,0,,,,,,stimuli/images/PICTURE_339.png,CLIENT,59e71906ac0af70001b36a06,06/02/1989,2020-08-27_15h46.26.691,proactive3.2,2020.1.2,Win32,60,5f47c0b9b035471e11593a5c,5f47c72ac541cc1f16f3b51d,1,,,,,,backpack,,,,,,,,,,,2,1,0,26,26,11,1,,,,,,,,,,,,,,,,,,,,,,,,,,,,,,,,,,,,,,,,,,,,,,,,,,,,,,,,,,,,,,,,,,,,,,
,,WOMEN,1.623415,1,,,,,,stimuli/images/PICTURE_147.png,WOMEN,59e71906ac0af70001b36a06,06/02/1989,2020-08-27_15h46.26.691,proactive3.2,2020.1.2,Win32,60,5f47c0b9b035471e11593a5c,5f47c72ac541cc1f16f3b51d,1,,,,,,hanger,,,,,,,,,,,1,1,0,27,27,7,1,,,,,,,,,,,,,,,,,,,,,,,,,,,,,,,,,,,,,,,,,,,,,,,,,,,,,,,,,,,,,,,,,,,,,,
,,?,0.00064,0,,,,,,stimuli/images/PICTURE_675.png,SALE,59e71906ac0af70001b36a06,06/02/1989,2020-08-27_15h46.26.691,proactive3.2,2020.1.2,Win32,60,5f47c0b9b035471e11593a5c,5f47c72ac541cc1f16f3b51d,1,,,,,,windmill,,,,,,,,,,,5,1,0,28,28,47,1,,,,,,,,,,,,,,,,,,,,,,,,,,,,,,,,,,,,,,,,,,,,,,,,,,,,,,,,,,,,,,,,,,,,,,
,,?,0.00036,0,,,,,,stimuli/images/PICTURE_95.png,HONEY,59e71906ac0af70001b36a06,06/02/1989,2020-08-27_15h46.26.691,proactive3.2,2020.1.2,Win32,60,5f47c0b9b035471e11593a5c,5f47c72ac541cc1f16f3b51d,1,,,,,,suitcase,,,,,,,,,,,5,1,0,29,29,44,1,,,,,,,,,,,,,,,,,,,,,,,,,,,,,,,,,,,,,,,,,,,,,,,,,,,,,,,,,,,,,,,,,,,,,,
,,BOYS,1.79711,1,,,,,,stimuli/images/PICTURE_95.png,BOYS,59e71906ac0af70001b36a06,06/02/1989,2020-08-27_15h46.26.691,proactive3.2,2020.1.2,Win32,60,5f47c0b9b035471e11593a5c,5f47c72ac541cc1f16f3b51d,1,,,,,,suitcase,,,,,,,,,,,1,1,0,30,30,1,1,,,,,,,,,,,,,,,,,,,,,,,,,,,,,,,,,,,,,,,,,,,,,,,,,,,,,,,,,,,,,,,,,,,,,,
,,?,0.00218,0,,,,,,stimuli/images/PICTURE_147.png,YEAR,59e71906ac0af70001b36a06,06/02/1989,2020-08-27_15h46.26.691,proactive3.2,2020.1.2,Win32,60,5f47c0b9b035471e11593a5c,5f47c72ac541cc1f16f3b51d,1,,,,,,hanger,,,,,,,,,,,3,1,0,31,31,21,1,,,,,,,,,,,,,,,,,,,,,,,,,,,,,,,,,,,,,,,,,,,,,,,,,,,,,,,,,,,,,,,,,,,,,,
,,LOTS,1.713185,1,,,,,,stimuli/images/PICTURE_296.png,LOTS,59e71906ac0af70001b36a06,06/02/1989,2020-08-27_15h46.26.691,proactive3.2,2020.1.2,Win32,60,5f47c0b9b035471e11593a5c,5f47c72ac541cc1f16f3b51d,1,,,,,,bolt,,,,,,,,,,,1,1,0,32,32,9,1,,,,,,,,,,,,,,,,,,,,,,,,,,,,,,,,,,,,,,,,,,,,,,,,,,,,,,,,,,,,,,,,,,,,,,
,,?,0.000555,0,,,,,,stimuli/images/PICTURE_2.png,FLIGHT,59e71906ac0af70001b36a06,06/02/1989,2020-08-27_15h46.26.691,proactive3.2,2020.1.2,Win32,60,5f47c0b9b035471e11593a5c,5f47c72ac541cc1f16f3b51d,1,,,,,,tyre,,,,,,,,,,,2,1,0,33,33,15,1,,,,,,,,,,,,,,,,,,,,,,,,,,,,,,,,,,,,,,,,,,,,,,,,,,,,,,,,,,,,,,,,,,,,,,
,,?,0.00036,0,,,,,,stimuli/images/PICTURE_504.png,YEAR,59e71906ac0af70001b36a06,06/02/1989,2020-08-27_15h46.26.691,proactive3.2,2020.1.2,Win32,60,5f47c0b9b035471e11593a5c,5f47c72ac541cc1f16f3b51d,1,,,,,,wheel,,,,,,,,,,,2,1,0,34,34,13,1,,,,,,,,,,,,,,,,,,,,,,,,,,,,,,,,,,,,,,,,,,,,,,,,,,,,,,,,,,,,,,,,,,,,,,
,,?,0.00036,0,,,,,,stimuli/images/PICTURE_340.png,LETTER,59e71906ac0af70001b36a06,06/02/1989,2020-08-27_15h46.26.691,proactive3.2,2020.1.2,Win32,60,5f47c0b9b035471e11593a5c,5f47c72ac541cc1f16f3b51d,1,,,,,,mirror,,,,,,,,,,,3,1,0,35,35,24,1,,,,,,,,,,,,,,,,,,,,,,,,,,,,,,,,,,,,,,,,,,,,,,,,,,,,,,,,,,,,,,,,,,,,,,
,,?,0.00036,0,,,,,,stimuli/images/PICTURE_467.png,POLICY,59e71906ac0af70001b36a06,06/02/1989,2020-08-27_15h46.26.691,proactive3.2,2020.1.2,Win32,60,5f47c0b9b035471e11593a5c,5f47c72ac541cc1f16f3b51d,1,,,,,,peg,,,,,,,,,,,6,1,0,36,36,53,1,,,,,,,,,,,,,,,,,,,,,,,,,,,,,,,,,,,,,,,,,,,,,,,,,,,,,,,,,,,,,,,,,,,,,,
,,?,0.00037,0,,,,,,stimuli/images/PICTURE_233.png,LOTS,59e71906ac0af70001b36a06,06/02/1989,2020-08-27_15h46.26.691,proactive3.2,2020.1.2,Win32,60,5f47c0b9b035471e11593a5c,5f47c72ac541cc1f16f3b51d,1,,,,,,salt,,,,,,,,,,,5,1,0,37,37,42,1,,,,,,,,,,,,,,,,,,,,,,,,,,,,,,,,,,,,,,,,,,,,,,,,,,,,,,,,,,,,,,,,,,,,,,
,,?,0.00035,0,,,,,,stimuli/images/PICTURE_85.png,TOILET,59e71906ac0af70001b36a06,06/02/1989,2020-08-27_15h46.26.691,proactive3.2,2020.1.2,Win32,60,5f47c0b9b035471e11593a5c,5f47c72ac541cc1f16f3b51d,1,,,,,,diamond,,,,,,,,,,,5,1,0,38,38,48,1,,,,,,,,,,,,,,,,,,,,,,,,,,,,,,,,,,,,,,,,,,,,,,,,,,,,,,,,,,,,,,,,,,,,,,
,,?,0.000375,0,,,,,,stimuli/images/PICTURE_177.png,WRITER,59e71906ac0af70001b36a06,06/02/1989,2020-08-27_15h46.26.691,proactive3.2,2020.1.2,Win32,60,5f47c0b9b035471e11593a5c,5f47c72ac541cc1f16f3b51d,1,,,,,,mushroom,,,,,,,,,,,5,1,0,39,39,41,1,,,,,,,,,,,,,,,,,,,,,,,,,,,,,,,,,,,,,,,,,,,,,,,,,,,,,,,,,,,,,,,,,,,,,,
,,?,0.00037,0,,,,,,stimuli/images/PICTURE_308.png,FAMILY,59e71906ac0af70001b36a06,06/02/1989,2020-08-27_15h46.26.691,proactive3.2,2020.1.2,Win32,60,5f47c0b9b035471e11593a5c,5f47c72ac541cc1f16f3b51d,1,,,,,,dice,,,,,,,,,,,4,1,0,40,40,36,1,,,,,,,,,,,,,,,,,,,,,,,,,,,,,,,,,,,,,,,,,,,,,,,,,,,,,,,,,,,,,,,,,,,,,,
,,?,0.00172,0,,,,,,stimuli/images/PICTURE_449.png,DUDE,59e71906ac0af70001b36a06,06/02/1989,2020-08-27_15h46.26.691,proactive3.2,2020.1.2,Win32,60,5f47c0b9b035471e11593a5c,5f47c72ac541cc1f16f3b51d,1,,,,,,bench,,,,,,,,,,,2,1,0,41,41,17,1,,,,,,,,,,,,,,,,,,,,,,,,,,,,,,,,,,,,,,,,,,,,,,,,,,,,,,,,,,,,,,,,,,,,,,
,,?,0.000425,0,,,,,,stimuli/images/PICTURE_208.png,SYSTEM,59e71906ac0af70001b36a06,06/02/1989,2020-08-27_15h46.26.691,proactive3.2,2020.1.2,Win32,60,5f47c0b9b035471e11593a5c,5f47c72ac541cc1f16f3b51d,1,,,,,,microphone,,,,,,,,,,,4,1,0,42,42,32,1,,,,,,,,,,,,,,,,,,,,,,,,,,,,,,,,,,,,,,,,,,,,,,,,,,,,,,,,,,,,,,,,,,,,,,
,,?,0.000355,0,,,,,,stimuli/images/PICTURE_380.png,HONEY,59e71906ac0af70001b36a06,06/02/1989,2020-08-27_15h46.26.691,proactive3.2,2020.1.2,Win32,60,5f47c0b9b035471e11593a5c,5f47c72ac541cc1f16f3b51d,1,,,,,,gorilla,,,,,,,,,,,2,1,0,43,43,19,1,,,,,,,,,,,,,,,,,,,,,,,,,,,,,,,,,,,,,,,,,,,,,,,,,,,,,,,,,,,,,,,,,,,,,,
,,?,0.00043,0,,,,,,stimuli/images/PICTURE_487.png,GIRL,59e71906ac0af70001b36a06,06/02/1989,2020-08-27_15h46.26.691,proactive3.2,2020.1.2,Win32,60,5f47c0b9b035471e11593a5c,5f47c72ac541cc1f16f3b51d,1,,,,,,basket,,,,,,,,,,,5,1,0,44,44,45,1,,,,,,,,,,,,,,,,,,,,,,,,,,,,,,,,,,,,,,,,,,,,,,,,,,,,,,,,,,,,,,,,,,,,,,
,,SERIES,1.602955,1,,,,,,stimuli/images/PICTURE_327.png,SERIES,59e71906ac0af70001b36a06,06/02/1989,2020-08-27_15h46.26.691,proactive3.2,2020.1.2,Win32,60,5f47c0b9b035471e11593a5c,5f47c72ac541cc1f16f3b51d,1,,,,,,helmet,,,,,,,,,,,1,1,0,45,45,3,1,,,,,,,,,,,,,,,,,,,,,,,,,,,,,,,,,,,,,,,,,,,,,,,,,,,,,,,,,,,,,,,,,,,,,,
,,?,0.00059,0,,,,,,stimuli/images/PICTURE_285.png,LIFE,59e71906ac0af70001b36a06,06/02/1989,2020-08-27_15h46.26.691,proactive3.2,2020.1.2,Win32,60,5f47c0b9b035471e11593a5c,5f47c72ac541cc1f16f3b51d,1,,,,,,carrot,,,,,,,,,,,4,1,0,46,46,33,1,,,,,,,,,,,,,,,,,,,,,,,,,,,,,,,,,,,,,,,,,,,,,,,,,,,,,,,,,,,,,,,,,,,,,,
,,NIGHT,3.48068,1,,,,,,stimuli/images/PICTURE_203.png,NIGHT,59e71906ac0af70001b36a06,06/02/1989,2020-08-27_15h46.26.691,proactive3.2,2020.1.2,Win32,60,5f47c0b9b035471e11593a5c,5f47c72ac541cc1f16f3b51d,1,,,,,,cap,,,,,,,,,,,1,1,0,47,47,2,1,,,,,,,,,,,,,,,,,,,,,,,,,,,,,,,,,,,,,,,,,,,,,,,,,,,,,,,,,,,,,,,,,,,,,,
,,?,0.000585,0,,,,,,stimuli/images/PICTURE_655.png,TOILET,59e71906ac0af70001b36a06,06/02/1989,2020-08-27_15h46.26.691,proactive3.2,2020.1.2,Win32,60,5f47c0b9b035471e11593a5c,5f47c72ac541cc1f16f3b51d,1,,,,,,megaphone,,,,,,,,,,,2,1,0,48,48,12,1,,,,,,,,,,,,,,,,,,,,,,,,,,,,,,,,,,,,,,,,,,,,,,,,,,,,,,,,,,,,,,,,,,,,,,
,,?,0.00034,0,,,,,,stimuli/images/PICTURE_667.png,RIVER,59e71906ac0af70001b36a06,06/02/1989,2020-08-27_15h46.26.691,proactive3.2,2020.1.2,Win32,60,5f47c0b9b035471e11593a5c,5f47c72ac541cc1f16f3b51d,1,,,,,,daisy,,,,,,,,,,,2,1,0,49,49,10,1,,,,,,,,,,,,,,,,,,,,,,,,,,,,,,,,,,,,,,,,,,,,,,,,,,,,,,,,,,,,,,,,,,,,,,
,,?,0.000345,0,,,,,,stimuli/images/PICTURE_403.png,TOILET,59e71906ac0af70001b36a06,06/02/1989,2020-08-27_15h46.26.691,proactive3.2,2020.1.2,Win32,60,5f47c0b9b035471e11593a5c,5f47c72ac541cc1f16f3b51d,1,,,,,,cathedral,,,,,,,,,,,3,1,0,50,50,25,1,,,,,,,,,,,,,,,,,,,,,,,,,,,,,,,,,,,,,,,,,,,,,,,,,,,,,,,,,,,,,,,,,,,,,,
,,RIVER,1.979645,1,,,,,,stimuli/images/PICTURE_491.png,RIVER,59e71906ac0af70001b36a06,06/02/1989,2020-08-27_15h46.26.691,proactive3.2,2020.1.2,Win32,60,5f47c0b9b035471e11593a5c,5f47c72ac541cc1f16f3b51d,1,,,,,,rug,,,,,,,,,,,1,1,0,51,51,6,1,,,,,,,,,,,,,,,,,,,,,,,,,,,,,,,,,,,,,,,,,,,,,,,,,,,,,,,,,,,,,,,,,,,,,,
,,?,0.00047,0,,,,,,stimuli/images/PICTURE_750.png,HOTEL,59e71906ac0af70001b36a06,06/02/1989,2020-08-27_15h46.26.691,proactive3.2,2020.1.2,Win32,60,5f47c0b9b035471e11593a5c,5f47c72ac541cc1f16f3b51d,1,,,,,,kettle,,,,,,,,,,,3,1,0,52,52,27,1,,,,,,,,,,,,,,,,,,,,,,,,,,,,,,,,,,,,,,,,,,,,,,,,,,,,,,,,,,,,,,,,,,,,,,
,,?,0.00039,0,,,,,,stimuli/images/PICTURE_504.png,COPS,59e71906ac0af70001b36a06,06/02/1989,2020-08-27_15h46.26.691,proactive3.2,2020.1.2,Win32,60,5f47c0b9b035471e11593a5c,5f47c72ac541cc1f16f3b51d,1,,,,,,wheel,,,,,,,,,,,6,1,0,53,53,52,1,,,,,,,,,,,,,,,,,,,,,,,,,,,,,,,,,,,,,,,,,,,,,,,,,,,,,,,,,,,,,,,,,,,,,,
,,?,0.00035,0,,,,,,stimuli/images/PICTURE_405.png,PLENTY,59e71906ac0af70001b36a06,06/02/1989,2020-08-27_15h46.26.691,proactive3.2,2020.1.2,Win32,60,5f47c0b9b035471e11593a5c,5f47c72ac541cc1f16f3b51d,1,,,,,,anchor,,,,,,,,,,,3,1,0,54,54,23,1,,,,,,,,,,,,,,,,,,,,,,,,,,,,,,,,,,,,,,,,,,,,,,,,,,,,,,,,,,,,,,,,,,,,,,
,,?,0.000505,0,,,,,,stimuli/images/PICTURE_383.png,WRITER,59e71906ac0af70001b36a06,06/02/1989,2020-08-27_15h46.26.691,proactive3.2,2020.1.2,Win32,60,5f47c0b9b035471e11593a5c,5f47c72ac541cc1f16f3b51d,1,,,,,,coin,,,,,,,,,,,3,1,0,55,55,28,1,,,,,,,,,,,,,,,,,,,,,,,,,,,,,,,,,,,,,,,,,,,,,,,,,,,,,,,,,,,,,,,,,,,,,,
,,?,0.00033,0,,,,,,stimuli/images/PICTURE_383.png,SERIES,59e71906ac0af70001b36a06,06/02/1989,2020-08-27_15h46.26.691,proactive3.2,2020.1.2,Win32,60,5f47c0b9b035471e11593a5c,5f47c72ac541cc1f16f3b51d,1,,,,,,coin,,,,,,,,,,,5,1,0,56,56,46,1,,,,,,,,,,,,,,,,,,,,,,,,,,,,,,,,,,,,,,,,,,,,,,,,,,,,,,,,,,,,,,,,,,,,,,
,,?,0.00033,0,,,,,,stimuli/images/PICTURE_95.png,MILLER,59e71906ac0af70001b36a06,06/02/1989,2020-08-27_15h46.26.691,proactive3.2,2020.1.2,Win32,60,5f47c0b9b035471e11593a5c,5f47c72ac541cc1f16f3b51d,1,,,,,,suitcase,,,,,,,,,,,6,1,0,57,57,56,1,,,,,,,,,,,,,,,,,,,,,,,,,,,,,,,,,,,,,,,,,,,,,,,,,,,,,,,,,,,,,,,,,,,,,,
,,?,0.00128,0,,,,,,stimuli/images/PICTURE_42.png,BOYS,59e71906ac0af70001b36a06,06/02/1989,2020-08-27_15h46.26.691,proactive3.2,2020.1.2,Win32,60,5f47c0b9b035471e11593a5c,5f47c72ac541cc1f16f3b51d,1,,,,,,pear,,,,,,,,,,,6,1,0,58,58,55,1,,,,,,,,,,,,,,,,,,,,,,,,,,,,,,,,,,,,,,,,,,,,,,,,,,,,,,,,,,,,,,,,,,,,,,
,,CANDY,2.242015,1,,,,,,stimuli/images/PICTURE_380.png,CANDY,59e71906ac0af70001b36a06,06/02/1989,2020-08-27_15h46.26.691,proactive3.2,2020.1.2,Win32,60,5f47c0b9b035471e11593a5c,5f47c72ac541cc1f16f3b51d,1,,,,,,gorilla,,,,,,,,,,,1,1,0,59,59,0,1,,,,,,,,,,,,,,,,,,,,,,,,,,,,,,,,,,,,,,,,,,,,,,,,,,,,,,,,,,,,,,,,,,,,,,
,,,,,,,,,,,,59e71906ac0af70001b36a06,06/02/1989,2020-08-27_15h46.26.691,proactive3.2,2020.1.2,Win32,60,5f47c0b9b035471e11593a5c,5f47c72ac541cc1f16f3b51d,1,,,,,,,,,,,,,,,,,,,,,,,,0,0,0,1,1,stimuli/learn-block2.csv,,,,,,,,,,,,,,,,,,,,,,,,,,,,,,,,,,,,,,,,,,,,,,,,,,,,,,,,,,,,,,,,
,,,,,,,,,,stimuli/images/PICTURE_285.png,WRITER,59e71906ac0af70001b36a06,06/02/1989,2020-08-27_15h46.26.691,proactive3.2,2020.1.2,Win32,60,5f47c0b9b035471e11593a5c,5f47c72ac541cc1f16f3b51d,1,,,,,,carrot,,,,,,0,0,0,6,1,1,2,,,,,,,,,,,,,,,,,,,,,,,,,,,,,,,,,,,,,,,,,,,,,,,,,,,,,,,,,,,,,,,,,,,,,,,,,,,
,,,,,,,,,,stimuli/images/PICTURE_32.png,LETTER,59e71906ac0af70001b36a06,06/02/1989,2020-08-27_15h46.26.691,proactive3.2,2020.1.2,Win32,60,5f47c0b9b035471e11593a5c,5f47c72ac541cc1f16f3b51d,1,,,,,,crown,,,,,,0,1,1,56,1,6,2,,,,,,,,,,,,,,,,,,,,,,,,,,,,,,,,,,,,,,,,,,,,,,,,,,,,,,,,,,,,,,,,,,,,,,,,,,,
,,,,,,,,,,stimuli/images/PICTURE_296.png,CLOCK,59e71906ac0af70001b36a06,06/02/1989,2020-08-27_15h46.26.691,proactive3.2,2020.1.2,Win32,60,5f47c0b9b035471e11593a5c,5f47c72ac541cc1f16f3b51d,1,,,,,,bolt,,,,,,0,2,2,18,1,2,2,,,,,,,,,,,,,,,,,,,,,,,,,,,,,,,,,,,,,,,,,,,,,,,,,,,,,,,,,,,,,,,,,,,,,,,,,,,
,,,,,,,,,,stimuli/images/PICTURE_654.png,COPS,59e71906ac0af70001b36a06,06/02/1989,2020-08-27_15h46.26.691,proactive3.2,2020.1.2,Win32,60,5f47c0b9b035471e11593a5c,5f47c72ac541cc1f16f3b51d,1,,,,,,pencil,,,,,,0,3,3,10,1,2,2,,,,,,,,,,,,,,,,,,,,,,,,,,,,,,,,,,,,,,,,,,,,,,,,,,,,,,,,,,,,,,,,,,,,,,,,,,,
,,,,,,,,,,stimuli/images/PICTURE_509.png,MILLER,59e71906ac0af70001b36a06,06/02/1989,2020-08-27_15h46.26.691,proactive3.2,2020.1.2,Win32,60,5f47c0b9b035471e11593a5c,5f47c72ac541cc1f16f3b51d,1,,,,,,telephone,,,,,,0,4,4,49,1,5,2,,,,,,,,,,,,,,,,,,,,,,,,,,,,,,,,,,,,,,,,,,,,,,,,,,,,,,,,,,,,,,,,,,,,,,,,,,,
,,,,,,,,,,stimuli/images/PICTURE_677.png,FAMILY,59e71906ac0af70001b36a06,06/02/1989,2020-08-27_15h46.26.691,proactive3.2,2020.1.2,Win32,60,5f47c0b9b035471e11593a5c,5f47c72ac541cc1f16f3b51d,1,,,,,,map,,,,,,0,5,5,53,1,6,2,,,,,,,,,,,,,,,,,,,,,,,,,,,,,,,,,,,,,,,,,,,,,,,,,,,,,,,,,,,,,,,,,,,,,,,,,,,
,,,,,,,,,,stimuli/images/PICTURE_405.png,JUNGLE,59e71906ac0af70001b36a06,06/02/1989,2020-08-27_15h46.26.691,proactive3.2,2020.1.2,Win32,60,5f47c0b9b035471e11593a5c,5f47c72ac541cc1f16f3b51d,1,,,,,,anchor,,,,,,0,6,6,58,1,6,2,,,,,,,,,,,,,,,,,,,,,,,,,,,,,,,,,,,,,,,,,,,,,,,,,,,,,,,,,,,,,,,,,,,,,,,,,,,
,,,,,,,,,,stimuli/images/PICTURE_405.png,HOUSE,59e71906ac0af70001b36a06,06/02/1989,2020-08-27_15h46.26.691,proactive3.2,2020.1.2,Win32,60,5f47c0b9b035471e11593a5c,5f47c72ac541cc1f16f3b51d,1,,,,,,anchor,,,,,,0,7,7,2,1,1,2,,,,,,,,,,,,,,,,,,,,,,,,,,,,,,,,,,,,,,,,,,,,,,,,,,,,,,,,,,,,,,,,,,,,,,,,,,,
,,,,,,,,,,stimuli/images/PICTURE_95.png,NIGHT,59e71906ac0af70001b36a06,06/02/1989,2020-08-27_15h46.26.691,proactive3.2,2020.1.2,Win32,60,5f47c0b9b035471e11593a5c,5f47c72ac541cc1f16f3b51d,1,,,,,,suitcase,,,,,,0,8,8,37,1,4,2,,,,,,,,,,,,,,,,,,,,,,,,,,,,,,,,,,,,,,,,,,,,,,,,,,,,,,,,,,,,,,,,,,,,,,,,,,,
,,,,,,,,,,stimuli/images/PICTURE_141.png,CLIENT,59e71906ac0af70001b36a06,06/02/1989,2020-08-27_15h46.26.691,proactive3.2,2020.1.2,Win32,60,5f47c0b9b035471e11593a5c,5f47c72ac541cc1f16f3b51d,1,,,,,,sunflower,,,,,,0,9,9,30,1,4,2,,,,,,,,,,,,,,,,,,,,,,,,,,,,,,,,,,,,,,,,,,,,,,,,,,,,,,,,,,,,,,,,,,,,,,,,,,,
,,,,,,,,,,stimuli/images/PICTURE_487.png,POLICY,59e71906ac0af70001b36a06,06/02/1989,2020-08-27_15h46.26.691,proactive3.2,2020.1.2,Win32,60,5f47c0b9b035471e11593a5c,5f47c72ac541cc1f16f3b51d,1,,,,,,basket,,,,,,0,10,10,34,1,4,2,,,,,,,,,,,,,,,,,,,,,,,,,,,,,,,,,,,,,,,,,,,,,,,,,,,,,,,,,,,,,,,,,,,,,,,,,,,
,,,,,,,,,,stimuli/images/PICTURE_470.png,MOMENT,59e71906ac0af70001b36a06,06/02/1989,2020-08-27_15h46.26.691,proactive3.2,2020.1.2,Win32,60,5f47c0b9b035471e11593a5c,5f47c72ac541cc1f16f3b51d,1,,,,,,motorbike,,,,,,0,11,11,40,1,5,2,,,,,,,,,,,,,,,,,,,,,,,,,,,,,,,,,,,,,,,,,,,,,,,,,,,,,,,,,,,,,,,,,,,,,,,,,,,
,,,,,,,,,,stimuli/images/PICTURE_348.png,TOILET,59e71906ac0af70001b36a06,06/02/1989,2020-08-27_15h46.26.691,proactive3.2,2020.1.2,Win32,60,5f47c0b9b035471e11593a5c,5f47c72ac541cc1f16f3b51d,1,,,,,,pepper,,,,,,0,12,12,4,1,1,2,,,,,,,,,,,,,,,,,,,,,,,,,,,,,,,,,,,,,,,,,,,,,,,,,,,,,,,,,,,,,,,,,,,,,,,,,,,
,,,,,,,,,,stimuli/images/PICTURE_453.png,FAMILY,59e71906ac0af70001b36a06,06/02/1989,2020-08-27_15h46.26.691,proactive3.2,2020.1.2,Win32,60,5f47c0b9b035471e11593a5c,5f47c72ac541cc1f16f3b51d,1,,,,,,scissors,,,,,,0,13,13,48,1,5,2,,,,,,,,,,,,,,,,,,,,,,,,,,,,,,,,,,,,,,,,,,,,,,,,,,,,,,,,,,,,,,,,,,,,,,,,,,,
,,,,,,,,,,stimuli/images/PICTURE_147.png,LEADER,59e71906ac0af70001b36a06,06/02/1989,2020-08-27_15h46.26.691,proactive3.2,2020.1.2,Win32,60,5f47c0b9b035471e11593a5c,5f47c72ac541cc1f16f3b51d,1,,,,,,hanger,,,,,,0,14,14,33,1,4,2,,,,,,,,,,,,,,,,,,,,,,,,,,,,,,,,,,,,,,,,,,,,,,,,,,,,,,,,,,,,,,,,,,,,,,,,,,,
,,,,,,,,,,stimuli/images/PICTURE_57.png,CANDY,59e71906ac0af70001b36a06,06/02/1989,2020-08-27_15h46.26.691,proactive3.2,2020.1.2,Win32,60,5f47c0b9b035471e11593a5c,5f47c72ac541cc1f16f3b51d,1,,,,,,stamp,,,,,,0,15,15,52,1,6,2,,,,,,,,,,,,,,,,,,,,,,,,,,,,,,,,,,,,,,,,,,,,,,,,,,,,,,,,,,,,,,,,,,,,,,,,,,,
,,,,,,,,,,stimuli/images/PICTURE_509.png,SHOTS,59e71906ac0af70001b36a06,06/02/1989,2020-08-27_15h46.26.691,proactive3.2,2020.1.2,Win32,60,5f47c0b9b035471e11593a5c,5f47c72ac541cc1f16f3b51d,1,,,,,,telephone,,,,,,0,16,16,7,1,1,2,,,,,,,,,,,,,,,,,,,,,,,,,,,,,,,,,,,,,,,,,,,,,,,,,,,,,,,,,,,,,,,,,,,,,,,,,,,
,,,,,,,,,,stimuli/images/PICTURE_314.png,SPEECH,59e71906ac0af70001b36a06,06/02/1989,2020-08-27_15h46.26.691,proactive3.2,2020.1.2,Win32,60,5f47c0b9b035471e11593a5c,5f47c72ac541cc1f16f3b51d,1,,,,,,perfume,,,,,,0,17,17,35,1,4,2,,,,,,,,,,,,,,,,,,,,,,,,,,,,,,,,,,,,,,,,,,,,,,,,,,,,,,,,,,,,,,,,,,,,,,,,,,,
,,,,,,,,,,stimuli/images/PICTURE_655.png,SALE,59e71906ac0af70001b36a06,06/02/1989,2020-08-27_15h46.26.691,proactive3.2,2020.1.2,Win32,60,5f47c0b9b035471e11593a5c,5f47c72ac541cc1f16f3b51d,1,,,,,,megaphone,,,,,,0,18,18,57,1,6,2,,,,,,,,,,,,,,,,,,,,,,,,,,,,,,,,,,,,,,,,,,,,,,,,,,,,,,,,,,,,,,,,,,,,,,,,,,,
,,,,,,,,,,stimuli/images/PICTURE_2.png,AREA,59e71906ac0af70001b36a06,06/02/1989,2020-08-27_15h46.26.691,proactive3.2,2020.1.2,Win32,60,5f47c0b9b035471e11593a5c,5f47c72ac541cc1f16f3b51d,1,,,,,,tyre,,,,,,0,19,19,32,1,4,2,,,,,,,,,,,,,,,,,,,,,,,,,,,,,,,,,,,,,,,,,,,,,,,,,,,,,,,,,,,,,,,,,,,,,,,,,,,
,,,,,,,,,,stimuli/images/PICTURE_215.png,FOOD,59e71906ac0af70001b36a06,06/02/1989,2020-08-27_15h46.26.691,proactive3.2,2020.1.2,Win32,60,5f47c0b9b035471e11593a5c,5f47c72ac541cc1f16f3b51d,1,,,,,,boot,,,,,,0,20,20,5,1,1,2,,,,,,,,,,,,,,,,,,,,,,,,,,,,,,,,,,,,,,,,,,,,,,,,,,,,,,,,,,,,,,,,,,,,,,,,,,,
,,,,,,,,,,stimuli/images/PICTURE_297.png,BODY,59e71906ac0af70001b36a06,06/02/1989,2020-08-27_15h46.26.691,proactive3.2,2020.1.2,Win32,60,5f47c0b9b035471e11593a5c,5f47c72ac541cc1f16f3b51d,1,,,,,,aeroplane,,,,,,0,21,21,51,1,6,2,,,,,,,,,,,,,,,,,,,,,,,,,,,,,,,,,,,,,,,,,,,,,,,,,,,,,,,,,,,,,,,,,,,,,,,,,,,
,,,,,,,,,,stimuli/images/PICTURE_688.png,CLOCK,59e71906ac0af70001b36a06,06/02/1989,2020-08-27_15h46.26.691,proactive3.2,2020.1.2,Win32,60,5f47c0b9b035471e11593a5c,5f47c72ac541cc1f16f3b51d,1,,,,,,runner,,,,,,0,22,22,42,1,5,2,,,,,,,,,,,,,,,,,,,,,,,,,,,,,,,,,,,,,,,,,,,,,,,,,,,,,,,,,,,,,,,,,,,,,,,,,,,
,,,,,,,,,,stimuli/images/PICTURE_654.png,YEAR,59e71906ac0af70001b36a06,06/02/1989,2020-08-27_15h46.26.691,proactive3.2,2020.1.2,Win32,60,5f47c0b9b035471e11593a5c,5f47c72ac541cc1f16f3b51d,1,,,,,,pencil,,,,,,0,23,23,41,1,5,2,,,,,,,,,,,,,,,,,,,,,,,,,,,,,,,,,,,,,,,,,,,,,,,,,,,,,,,,,,,,,,,,,,,,,,,,,,,
,,,,,,,,,,stimuli/images/PICTURE_68.png,KIND,59e71906ac0af70001b36a06,06/02/1989,2020-08-27_15h46.26.691,proactive3.2,2020.1.2,Win32,60,5f47c0b9b035471e11593a5c,5f47c72ac541cc1f16f3b51d,1,,,,,,candle,,,,,,0,24,24,23,1,3,2,,,,,,,,,,,,,,,,,,,,,,,,,,,,,,,,,,,,,,,,,,,,,,,,,,,,,,,,,,,,,,,,,,,,,,,,,,,
,,,,,,,,,,stimuli/images/PICTURE_18.png,RIVER,59e71906ac0af70001b36a06,06/02/1989,2020-08-27_15h46.26.691,proactive3.2,2020.1.2,Win32,60,5f47c0b9b035471e11593a5c,5f47c72ac541cc1f16f3b51d,1,,,,,,planet,,,,,,0,25,25,22,1,3,2,,,,,,,,,,,,,,,,,,,,,,,,,,,,,,,,,,,,,,,,,,,,,,,,,,,,,,,,,,,,,,,,,,,,,,,,,,,
,,,,,,,,,,stimuli/images/PICTURE_667.png,GLASS,59e71906ac0af70001b36a06,06/02/1989,2020-08-27_15h46.26.691,proactive3.2,2020.1.2,Win32,60,5f47c0b9b035471e11593a5c,5f47c72ac541cc1f16f3b51d,1,,,,,,daisy,,,,,,0,26,26,27,1,3,2,,,,,,,,,,,,,,,,,,,,,,,,,,,,,,,,,,,,,,,,,,,,,,,,,,,,,,,,,,,,,,,,,,,,,,,,,,,
,,,,,,,,,,stimuli/images/PICTURE_123.png,SALE,59e71906ac0af70001b36a06,06/02/1989,2020-08-27_15h46.26.691,proactive3.2,2020.1.2,Win32,60,5f47c0b9b035471e11593a5c,5f47c72ac541cc1f16f3b51d,1,,,,,,dart,,,,,,0,27,27,8,1,1,2,,,,,,,,,,,,,,,,,,,,,,,,,,,,,,,,,,,,,,,,,,,,,,,,,,,,,,,,,,,,,,,,,,,,,,,,,,,
,,,,,,,,,,stimuli/images/PICTURE_160.png,HOTEL,59e71906ac0af70001b36a06,06/02/1989,2020-08-27_15h46.26.691,proactive3.2,2020.1.2,Win32,60,5f47c0b9b035471e11593a5c,5f47c72ac541cc1f16f3b51d,1,,,,,,wheelbarrow,,,,,,0,28,28,16,1,2,2,,,,,,,,,,,,,,,,,,,,,,,,,,,,,,,,,,,,,,,,,,,,,,,,,,,,,,,,,,,,,,,,,,,,,,,,,,,
,,,,,,,,,,stimuli/images/PICTURE_285.png,PRINCE,59e71906ac0af70001b36a06,06/02/1989,2020-08-27_15h46.26.691,proactive3.2,2020.1.2,Win32,60,5f47c0b9b035471e11593a5c,5f47c72ac541cc1f16f3b51d,1,,,,,,carrot,,,,,,0,29,29,20,1,3,2,,,,,,,,,,,,,,,,,,,,,,,,,,,,,,,,,,,,,,,,,,,,,,,,,,,,,,,,,,,,,,,,,,,,,,,,,,,
,,,,,,,,,,stimuli/images/PICTURE_93.png,GIRL,59e71906ac0af70001b36a06,06/02/1989,2020-08-27_15h46.26.691,proactive3.2,2020.1.2,Win32,60,5f47c0b9b035471e11593a5c,5f47c72ac541cc1f16f3b51d,1,,,,,,skateboard,,,,,,0,30,30,31,1,4,2,,,,,,,,,,,,,,,,,,,,,,,,,,,,,,,,,,,,,,,,,,,,,,,,,,,,,,,,,,,,,,,,,,,,,,,,,,,
,,,,,,,,,,stimuli/images/PICTURE_215.png,LEADER,59e71906ac0af70001b36a06,06/02/1989,2020-08-27_15h46.26.691,proactive3.2,2020.1.2,Win32,60,5f47c0b9b035471e11593a5c,5f47c72ac541cc1f16f3b51d,1,,,,,,boot,,,,,,0,31,31,43,1,5,2,,,,,,,,,,,,,,,,,,,,,,,,,,,,,,,,,,,,,,,,,,,,,,,,,,,,,,,,,,,,,,,,,,,,,,,,,,,
,,,,,,,,,,stimuli/images/PICTURE_405.png,JUNGLE,59e71906ac0af70001b36a06,06/02/1989,2020-08-27_15h46.26.691,proactive3.2,2020.1.2,Win32,60,5f47c0b9b035471e11593a5c,5f47c72ac541cc1f16f3b51d,1,,,,,,anchor,,,,,,0,32,32,13,1,2,2,,,,,,,,,,,,,,,,,,,,,,,,,,,,,,,,,,,,,,,,,,,,,,,,,,,,,,,,,,,,,,,,,,,,,,,,,,,
,,,,,,,,,,stimuli/images/PICTURE_487.png,ROOF,59e71906ac0af70001b36a06,06/02/1989,2020-08-27_15h46.26.691,proactive3.2,2020.1.2,Win32,60,5f47c0b9b035471e11593a5c,5f47c72ac541cc1f16f3b51d,1,,,,,,basket,,,,,,0,33,33,50,1,6,2,,,,,,,,,,,,,,,,,,,,,,,,,,,,,,,,,,,,,,,,,,,,,,,,,,,,,,,,,,,,,,,,,,,,,,,,,,,
,,,,,,,,,,stimuli/images/PICTURE_2.png,JUNGLE,59e71906ac0af70001b36a06,06/02/1989,2020-08-27_15h46.26.691,proactive3.2,2020.1.2,Win32,60,5f47c0b9b035471e11593a5c,5f47c72ac541cc1f16f3b51d,1,,,,,,tyre,,,,,,0,34,34,1,1,1,2,,,,,,,,,,,,,,,,,,,,,,,,,,,,,,,,,,,,,,,,,,,,,,,,,,,,,,,,,,,,,,,,,,,,,,,,,,,
,,,,,,,,,,stimuli/images/PICTURE_504.png,HOUSE,59e71906ac0af70001b36a06,06/02/1989,2020-08-27_15h46.26.691,proactive3.2,2020.1.2,Win32,60,5f47c0b9b035471e11593a5c,5f47c72ac541cc1f16f3b51d,1,,,,,,wheel,,,,,,0,35,35,36,1,4,2,,,,,,,,,,,,,,,,,,,,,,,,,,,,,,,,,,,,,,,,,,,,,,,,,,,,,,,,,,,,,,,,,,,,,,,,,,,
,,,,,,,,,,stimuli/images/PICTURE_470.png,BEAUTY,59e71906ac0af70001b36a06,06/02/1989,2020-08-27_15h46.26.691,proactive3.2,2020.1.2,Win32,60,5f47c0b9b035471e11593a5c,5f47c72ac541cc1f16f3b51d,1,,,,,,motorbike,,,,,,0,36,36,26,1,3,2,,,,,,,,,,,,,,,,,,,,,,,,,,,,,,,,,,,,,,,,,,,,,,,,,,,,,,,,,,,,,,,,,,,,,,,,,,,
,,,,,,,,,,stimuli/images/PICTURE_177.png,HOUSE,59e71906ac0af70001b36a06,06/02/1989,2020-08-27_15h46.26.691,proactive3.2,2020.1.2,Win32,60,5f47c0b9b035471e11593a5c,5f47c72ac541cc1f16f3b51d,1,,,,,,mushroom,,,,,,0,37,37,25,1,3,2,,,,,,,,,,,,,,,,,,,,,,,,,,,,,,,,,,,,,,,,,,,,,,,,,,,,,,,,,,,,,,,,,,,,,,,,,,,
,,,,,,,,,,stimuli/images/PICTURE_348.png,DUDE,59e71906ac0af70001b36a06,06/02/1989,2020-08-27_15h46.26.691,proactive3.2,2020.1.2,Win32,60,5f47c0b9b035471e11593a5c,5f47c72ac541cc1f16f3b51d,1,,,,,,pepper,,,,,,0,38,38,59,1,6,2,,,,,,,,,,,,,,,,,,,,,,,,,,,,,,,,,,,,,,,,,,,,,,,,,,,,,,,,,,,,,,,,,,,,,,,,,,,
,,,,,,,,,,stimuli/images/PICTURE_311.png,FLESH,59e71906ac0af70001b36a06,06/02/1989,2020-08-27_15h46.26.691,proactive3.2,2020.1.2,Win32,60,5f47c0b9b035471e11593a5c,5f47c72ac541cc1f16f3b51d,1,,,,,,razor,,,,,,0,39,39,3,1,1,2,,,,,,,,,,,,,,,,,,,,,,,,,,,,,,,,,,,,,,,,,,,,,,,,,,,,,,,,,,,,,,,,,,,,,,,,,,,
,,,,,,,,,,stimuli/images/PICTURE_57.png,NATION,59e71906ac0af70001b36a06,06/02/1989,2020-08-27_15h46.26.691,proactive3.2,2020.1.2,Win32,60,5f47c0b9b035471e11593a5c,5f47c72ac541cc1f16f3b51d,1,,,,,,stamp,,,,,,0,40,40,21,1,3,2,,,,,,,,,,,,,,,,,,,,,,,,,,,,,,,,,,,,,,,,,,,,,,,,,,,,,,,,,,,,,,,,,,,,,,,,,,,
,,,,,,,,,,stimuli/images/PICTURE_491.png,SERIES,59e71906ac0af70001b36a06,06/02/1989,2020-08-27_15h46.26.691,proactive3.2,2020.1.2,Win32,60,5f47c0b9b035471e11593a5c,5f47c72ac541cc1f16f3b51d,1,,,,,,rug,,,,,,0,41,41,39,1,4,2,,,,,,,,,,,,,,,,,,,,,,,,,,,,,,,,,,,,,,,,,,,,,,,,,,,,,,,,,,,,,,,,,,,,,,,,,,,
,,,,,,,,,,stimuli/images/PICTURE_403.png,FAMILY,59e71906ac0af70001b36a06,06/02/1989,2020-08-27_15h46.26.691,proactive3.2,2020.1.2,Win32,60,5f47c0b9b035471e11593a5c,5f47c72ac541cc1f16f3b51d,1,,,,,,cathedral,,,,,,0,42,42,9,1,1,2,,,,,,,,,,,,,,,,,,,,,,,,,,,,,,,,,,,,,,,,,,,,,,,,,,,,,,,,,,,,,,,,,,,,,,,,,,,
,,,,,,,,,,stimuli/images/PICTURE_509.png,BATH,59e71906ac0af70001b36a06,06/02/1989,2020-08-27_15h46.26.691,proactive3.2,2020.1.2,Win32,60,5f47c0b9b035471e11593a5c,5f47c72ac541cc1f16f3b51d,1,,,,,,telephone,,,,,,0,43,43,15,1,2,2,,,,,,,,,,,,,,,,,,,,,,,,,,,,,,,,,,,,,,,,,,,,,,,,,,,,,,,,,,,,,,,,,,,,,,,,,,,
,,,,,,,,,,stimuli/images/PICTURE_677.png,PHOTO,59e71906ac0af70001b36a06,06/02/1989,2020-08-27_15h46.26.691,proactive3.2,2020.1.2,Win32,60,5f47c0b9b035471e11593a5c,5f47c72ac541cc1f16f3b51d,1,,,,,,map,,,,,,0,44,44,14,1,2,2,,,,,,,,,,,,,,,,,,,,,,,,,,,,,,,,,,,,,,,,,,,,,,,,,,,,,,,,,,,,,,,,,,,,,,,,,,,
,,,,,,,,,,stimuli/images/PICTURE_692.png,DUDE,59e71906ac0af70001b36a06,06/02/1989,2020-08-27_15h46.26.691,proactive3.2,2020.1.2,Win32,60,5f47c0b9b035471e11593a5c,5f47c72ac541cc1f16f3b51d,1,,,,,,cherry,,,,,,0,45,45,47,1,5,2,,,,,,,,,,,,,,,,,,,,,,,,,,,,,,,,,,,,,,,,,,,,,,,,,,,,,,,,,,,,,,,,,,,,,,,,,,,
,,,,,,,,,,stimuli/images/PICTURE_356.png,CANDY,59e71906ac0af70001b36a06,06/02/1989,2020-08-27_15h46.26.691,proactive3.2,2020.1.2,Win32,60,5f47c0b9b035471e11593a5c,5f47c72ac541cc1f16f3b51d,1,,,,,,pawn,,,,,,0,46,46,46,1,5,2,,,,,,,,,,,,,,,,,,,,,,,,,,,,,,,,,,,,,,,,,,,,,,,,,,,,,,,,,,,,,,,,,,,,,,,,,,,
,,,,,,,,,,stimuli/images/PICTURE_509.png,APPLE,59e71906ac0af70001b36a06,06/02/1989,2020-08-27_15h46.26.691,proactive3.2,2020.1.2,Win32,60,5f47c0b9b035471e11593a5c,5f47c72ac541cc1f16f3b51d,1,,,,,,telephone,,,,,,0,47,47,38,1,4,2,,,,,,,,,,,,,,,,,,,,,,,,,,,,,,,,,,,,,,,,,,,,,,,,,,,,,,,,,,,,,,,,,,,,,,,,,,,
,,,,,,,,,,stimuli/images/PICTURE_255.png,PENNY,59e71906ac0af70001b36a06,06/02/1989,2020-08-27_15h46.26.691,proactive3.2,2020.1.2,Win32,60,5f47c0b9b035471e11593a5c,5f47c72ac541cc1f16f3b51d,1,,,,,,shovel,,,,,,0,48,48,19,1,2,2,,,,,,,,,,,,,,,,,,,,,,,,,,,,,,,,,,,,,,,,,,,,,,,,,,,,,,,,,,,,,,,,,,,,,,,,,,,
,,,,,,,,,,stimuli/images/PICTURE_564.png,PLENTY,59e71906ac0af70001b36a06,06/02/1989,2020-08-27_15h46.26.691,proactive3.2,2020.1.2,Win32,60,5f47c0b9b035471e11593a5c,5f47c72ac541cc1f16f3b51d,1,,,,,,spoon,,,,,,0,49,49,11,1,2,2,,,,,,,,,,,,,,,,,,,,,,,,,,,,,,,,,,,,,,,,,,,,,,,,,,,,,,,,,,,,,,,,,,,,,,,,,,,
,,,,,,,,,,stimuli/images/PICTURE_208.png,SPIRIT,59e71906ac0af70001b36a06,06/02/1989,2020-08-27_15h46.26.691,proactive3.2,2020.1.2,Win32,60,5f47c0b9b035471e11593a5c,5f47c72ac541cc1f16f3b51d,1,,,,,,microphone,,,,,,0,50,50,28,1,3,2,,,,,,,,,,,,,,,,,,,,,,,,,,,,,,,,,,,,,,,,,,,,,,,,,,,,,,,,,,,,,,,,,,,,,,,,,,,
,,,,,,,,,,stimuli/images/PICTURE_33.png,COPS,59e71906ac0af70001b36a06,06/02/1989,2020-08-27_15h46.26.691,proactive3.2,2020.1.2,Win32,60,5f47c0b9b035471e11593a5c,5f47c72ac541cc1f16f3b51d,1,,,,,,frame,,,,,,0,51,51,29,1,3,2,,,,,,,,,,,,,,,,,,,,,,,,,,,,,,,,,,,,,,,,,,,,,,,,,,,,,,,,,,,,,,,,,,,,,,,,,,,
,,,,,,,,,,stimuli/images/PICTURE_215.png,BOYS,59e71906ac0af70001b36a06,06/02/1989,2020-08-27_15h46.26.691,proactive3.2,2020.1.2,Win32,60,5f47c0b9b035471e11593a5c,5f47c72ac541cc1f16f3b51d,1,,,,,,boot,,,,,,0,52,52,24,1,3,2,,,,,,,,,,,,,,,,,,,,,,,,,,,,,,,,,,,,,,,,,,,,,,,,,,,,,,,,,,,,,,,,,,,,,,,,,,,
,,,,,,,,,,stimuli/images/PICTURE_327.png,LEADER,59e71906ac0af70001b36a06,06/02/1989,2020-08-27_15h46.26.691,proactive3.2,2020.1.2,Win32,60,5f47c0b9b035471e11593a5c,5f47c72ac541cc1f16f3b51d,1,,,,,,helmet,,,,,,0,53,53,17,1,2,2,,,,,,,,,,,,,,,,,,,,,,,,,,,,,,,,,,,,,,,,,,,,,,,,,,,,,,,,,,,,,,,,,,,,,,,,,,,
,,,,,,,,,,stimuli/images/PICTURE_452.png,COPS,59e71906ac0af70001b36a06,06/02/1989,2020-08-27_15h46.26.691,proactive3.2,2020.1.2,Win32,60,5f47c0b9b035471e11593a5c,5f47c72ac541cc1f16f3b51d,1,,,,,,watch,,,,,,0,54,54,0,1,1,2,,,,,,,,,,,,,,,,,,,,,,,,,,,,,,,,,,,,,,,,,,,,,,,,,,,,,,,,,,,,,,,,,,,,,,,,,,,
,,,,,,,,,,stimuli/images/PICTURE_750.png,POLICY,59e71906ac0af70001b36a06,06/02/1989,2020-08-27_15h46.26.691,proactive3.2,2020.1.2,Win32,60,5f47c0b9b035471e11593a5c,5f47c72ac541cc1f16f3b51d,1,,,,,,kettle,,,,,,0,55,55,44,1,5,2,,,,,,,,,,,,,,,,,,,,,,,,,,,,,,,,,,,,,,,,,,,,,,,,,,,,,,,,,,,,,,,,,,,,,,,,,,,
,,,,,,,,,,stimuli/images/PICTURE_311.png,TOILET,59e71906ac0af70001b36a06,06/02/1989,2020-08-27_15h46.26.691,proactive3.2,2020.1.2,Win32,60,5f47c0b9b035471e11593a5c,5f47c72ac541cc1f16f3b51d,1,,,,,,razor,,,,,,0,56,56,54,1,6,2,,,,,,,,,,,,,,,,,,,,,,,,,,,,,,,,,,,,,,,,,,,,,,,,,,,,,,,,,,,,,,,,,,,,,,,,,,,
,,,,,,,,,,stimuli/images/PICTURE_57.png,CASINO,59e71906ac0af70001b36a06,06/02/1989,2020-08-27_15h46.26.691,proactive3.2,2020.1.2,Win32,60,5f47c0b9b035471e11593a5c,5f47c72ac541cc1f16f3b51d,1,,,,,,stamp,,,,,,0,57,57,12,1,2,2,,,,,,,,,,,,,,,,,,,,,,,,,,,,,,,,,,,,,,,,,,,,,,,,,,,,,,,,,,,,,,,,,,,,,,,,,,,
,,,,,,,,,,stimuli/images/PICTURE_2.png,YARD,59e71906ac0af70001b36a06,06/02/1989,2020-08-27_15h46.26.691,proactive3.2,2020.1.2,Win32,60,5f47c0b9b035471e11593a5c,5f47c72ac541cc1f16f3b51d,1,,,,,,tyre,,,,,,0,58,58,55,1,6,2,,,,,,,,,,,,,,,,,,,,,,,,,,,,,,,,,,,,,,,,,,,,,,,,,,,,,,,,,,,,,,,,,,,,,,,,,,,
,,WRITER,2.41305,1,,,,,,stimuli/images/PICTURE_285.png,WRITER,59e71906ac0af70001b36a06,06/02/1989,2020-08-27_15h46.26.691,proactive3.2,2020.1.2,Win32,60,5f47c0b9b035471e11593a5c,5f47c72ac541cc1f16f3b51d,1,,,,,,carrot,,,,,,,,,,,1,2,0,0,0,6,1,,,,,,,,,,,,,,,,,,,,,,,,,,,,,,,,,,,,,,,,,,,,,,,,,,,,,,,,,,,,,,,,,,,,,,
,,?,0.00057,0,,,,,,stimuli/images/PICTURE_356.png,CANDY,59e71906ac0af70001b36a06,06/02/1989,2020-08-27_15h46.26.691,proactive3.2,2020.1.2,Win32,60,5f47c0b9b035471e11593a5c,5f47c72ac541cc1f16f3b51d,1,,,,,,pawn,,,,,,,,,,,5,2,0,1,1,46,1,,,,,,,,,,,,,,,,,,,,,,,,,,,,,,,,,,,,,,,,,,,,,,,,,,,,,,,,,,,,,,,,,,,,,,
,,?,6.613545,0,,,,,,stimuli/images/PICTURE_348.png,TOILET,59e71906ac0af70001b36a06,06/02/1989,2020-08-27_15h46.26.691,proactive3.2,2020.1.2,Win32,60,5f47c0b9b035471e11593a5c,5f47c72ac541cc1f16f3b51d,1,,,,,,pepper,,,,,,,,,,,1,2,0,2,2,4,1,,,,,,,,,,,,,,,,,,,,,,,,,,,,,,,,,,,,,,,,,,,,,,,,,,,,,,,,,,,,,,,,,,,,,,
,,?,0.000465,0,,,,,,stimuli/images/PICTURE_405.png,JUNGLE,59e71906ac0af70001b36a06,06/02/1989,2020-08-27_15h46.26.691,proactive3.2,2020.1.2,Win32,60,5f47c0b9b035471e11593a5c,5f47c72ac541cc1f16f3b51d,1,,,,,,anchor,,,,,,,,,,,2,2,0,3,3,13,1,,,,,,,,,,,,,,,,,,,,,,,,,,,,,,,,,,,,,,,,,,,,,,,,,,,,,,,,,,,,,,,,,,,,,,
,,?,0.000345,0,,,,,,stimuli/images/PICTURE_655.png,SALE,59e71906ac0af70001b36a06,06/02/1989,2020-08-27_15h46.26.691,proactive3.2,2020.1.2,Win32,60,5f47c0b9b035471e11593a5c,5f47c72ac541cc1f16f3b51d,1,,,,,,megaphone,,,,,,,,,,,6,2,0,4,4,57,1,,,,,,,,,,,,,,,,,,,,,,,,,,,,,,,,,,,,,,,,,,,,,,,,,,,,,,,,,,,,,,,,,,,,,,
,,?,0.000385,0,,,,,,stimuli/images/PICTURE_33.png,COPS,59e71906ac0af70001b36a06,06/02/1989,2020-08-27_15h46.26.691,proactive3.2,2020.1.2,Win32,60,5f47c0b9b035471e11593a5c,5f47c72ac541cc1f16f3b51d,1,,,,,,frame,,,,,,,,,,,3,2,0,5,5,29,1,,,,,,,,,,,,,,,,,,,,,,,,,,,,,,,,,,,,,,,,,,,,,,,,,,,,,,,,,,,,,,,,,,,,,,
,,?,8.12749,0,,,,,,stimuli/images/PICTURE_2.png,JUNGLE,59e71906ac0af70001b36a06,06/02/1989,2020-08-27_15h46.26.691,proactive3.2,2020.1.2,Win32,60,5f47c0b9b035471e11593a5c,5f47c72ac541cc1f16f3b51d,1,,,,,,tyre,,,,,,,,,,,1,2,0,6,6,1,1,,,,,,,,,,,,,,,,,,,,,,,,,,,,,,,,,,,,,,,,,,,,,,,,,,,,,,,,,,,,,,,,,,,,,,
,,?,0.00044,0,,,,,,stimuli/images/PICTURE_453.png,FAMILY,59e71906ac0af70001b36a06,06/02/1989,2020-08-27_15h46.26.691,proactive3.2,2020.1.2,Win32,60,5f47c0b9b035471e11593a5c,5f47c72ac541cc1f16f3b51d,1,,,,,,scissors,,,,,,,,,,,5,2,0,7,7,48,1,,,,,,,,,,,,,,,,,,,,,,,,,,,,,,,,,,,,,,,,,,,,,,,,,,,,,,,,,,,,,,,,,,,,,,
,,?,0.000315,0,,,,,,stimuli/images/PICTURE_327.png,LEADER,59e71906ac0af70001b36a06,06/02/1989,2020-08-27_15h46.26.691,proactive3.2,2020.1.2,Win32,60,5f47c0b9b035471e11593a5c,5f47c72ac541cc1f16f3b51d,1,,,,,,helmet,,,,,,,,,,,2,2,0,8,8,17,1,,,,,,,,,,,,,,,,,,,,,,,,,,,,,,,,,,,,,,,,,,,,,,,,,,,,,,,,,,,,,,,,,,,,,,
,,?,0.000355,0,,,,,,stimuli/images/PICTURE_93.png,GIRL,59e71906ac0af70001b36a06,06/02/1989,2020-08-27_15h46.26.691,proactive3.2,2020.1.2,Win32,60,5f47c0b9b035471e11593a5c,5f47c72ac541cc1f16f3b51d,1,,,,,,skateboard,,,,,,,,,,,4,2,0,9,9,31,1,,,,,,,,,,,,,,,,,,,,,,,,,,,,,,,,,,,,,,,,,,,,,,,,,,,,,,,,,,,,,,,,,,,,,,
,,FLESH,2.162955,1,,,,,,stimuli/images/PICTURE_311.png,FLESH,59e71906ac0af70001b36a06,06/02/1989,2020-08-27_15h46.26.691,proactive3.2,2020.1.2,Win32,60,5f47c0b9b035471e11593a5c,5f47c72ac541cc1f16f3b51d,1,,,,,,razor,,,,,,,,,,,1,2,0,10,10,3,1,,,,,,,,,,,,,,,,,,,,,,,,,,,,,,,,,,,,,,,,,,,,,,,,,,,,,,,,,,,,,,,,,,,,,,
,,?,0.00046,0,,,,,,stimuli/images/PICTURE_177.png,HOUSE,59e71906ac0af70001b36a06,06/02/1989,2020-08-27_15h46.26.691,proactive3.2,2020.1.2,Win32,60,5f47c0b9b035471e11593a5c,5f47c72ac541cc1f16f3b51d,1,,,,,,mushroom,,,,,,,,,,,3,2,0,11,11,25,1,,,,,,,,,,,,,,,,,,,,,,,,,,,,,,,,,,,,,,,,,,,,,,,,,,,,,,,,,,,,,,,,,,,,,,
,,?,0.00032,0,,,,,,stimuli/images/PICTURE_160.png,HOTEL,59e71906ac0af70001b36a06,06/02/1989,2020-08-27_15h46.26.691,proactive3.2,2020.1.2,Win32,60,5f47c0b9b035471e11593a5c,5f47c72ac541cc1f16f3b51d,1,,,,,,wheelbarrow,,,,,,,,,,,2,2,0,12,12,16,1,,,,,,,,,,,,,,,,,,,,,,,,,,,,,,,,,,,,,,,,,,,,,,,,,,,,,,,,,,,,,,,,,,,,,,
,,FAMILY,2.11393,1,,,,,,stimuli/images/PICTURE_403.png,FAMILY,59e71906ac0af70001b36a06,06/02/1989,2020-08-27_15h46.26.691,proactive3.2,2020.1.2,Win32,60,5f47c0b9b035471e11593a5c,5f47c72ac541cc1f16f3b51d,1,,,,,,cathedral,,,,,,,,,,,1,2,0,13,13,9,1,,,,,,,,,,,,,,,,,,,,,,,,,,,,,,,,,,,,,,,,,,,,,,,,,,,,,,,,,,,,,,,,,,,,,,
,,?,0.00045,0,,,,,,stimuli/images/PICTURE_688.png,CLOCK,59e71906ac0af70001b36a06,06/02/1989,2020-08-27_15h46.26.691,proactive3.2,2020.1.2,Win32,60,5f47c0b9b035471e11593a5c,5f47c72ac541cc1f16f3b51d,1,,,,,,runner,,,,,,,,,,,5,2,0,14,14,42,1,,,,,,,,,,,,,,,,,,,,,,,,,,,,,,,,,,,,,,,,,,,,,,,,,,,,,,,,,,,,,,,,,,,,,,
,,?,0.00032,0,,,,,,stimuli/images/PICTURE_57.png,CASINO,59e71906ac0af70001b36a06,06/02/1989,2020-08-27_15h46.26.691,proactive3.2,2020.1.2,Win32,60,5f47c0b9b035471e11593a5c,5f47c72ac541cc1f16f3b51d,1,,,,,,stamp,,,,,,,,,,,2,2,0,15,15,12,1,,,,,,,,,,,,,,,,,,,,,,,,,,,,,,,,,,,,,,,,,,,,,,,,,,,,,,,,,,,,,,,,,,,,,,
,,?,0.000295,0,,,,,,stimuli/images/PICTURE_296.png,CLOCK,59e71906ac0af70001b36a06,06/02/1989,2020-08-27_15h46.26.691,proactive3.2,2020.1.2,Win32,60,5f47c0b9b035471e11593a5c,5f47c72ac541cc1f16f3b51d,1,,,,,,bolt,,,,,,,,,,,2,2,0,16,16,18,1,,,,,,,,,,,,,,,,,,,,,,,,,,,,,,,,,,,,,,,,,,,,,,,,,,,,,,,,,,,,,,,,,,,,,,
,,?,0.00032,0,,,,,,stimuli/images/PICTURE_2.png,YARD,59e71906ac0af70001b36a06,06/02/1989,2020-08-27_15h46.26.691,proactive3.2,2020.1.2,Win32,60,5f47c0b9b035471e11593a5c,5f47c72ac541cc1f16f3b51d,1,,,,,,tyre,,,,,,,,,,,6,2,0,17,17,55,1,,,,,,,,,,,,,,,,,,,,,,,,,,,,,,,,,,,,,,,,,,,,,,,,,,,,,,,,,,,,,,,,,,,,,,
,,?,0.000345,0,,,,,,stimuli/images/PICTURE_509.png,BATH,59e71906ac0af70001b36a06,06/02/1989,2020-08-27_15h46.26.691,proactive3.2,2020.1.2,Win32,60,5f47c0b9b035471e11593a5c,5f47c72ac541cc1f16f3b51d,1,,,,,,telephone,,,,,,,,,,,2,2,0,18,18,15,1,,,,,,,,,,,,,,,,,,,,,,,,,,,,,,,,,,,,,,,,,,,,,,,,,,,,,,,,,,,,,,,,,,,,,,
,,?,0.00031,0,,,,,,stimuli/images/PICTURE_470.png,BEAUTY,59e71906ac0af70001b36a06,06/02/1989,2020-08-27_15h46.26.691,proactive3.2,2020.1.2,Win32,60,5f47c0b9b035471e11593a5c,5f47c72ac541cc1f16f3b51d,1,,,,,,motorbike,,,,,,,,,,,3,2,0,19,19,26,1,,,,,,,,,,,,,,,,,,,,,,,,,,,,,,,,,,,,,,,,,,,,,,,,,,,,,,,,,,,,,,,,,,,,,,
,,?,0.0003,0,,,,,,stimuli/images/PICTURE_255.png,PENNY,59e71906ac0af70001b36a06,06/02/1989,2020-08-27_15h46.26.691,proactive3.2,2020.1.2,Win32,60,5f47c0b9b035471e11593a5c,5f47c72ac541cc1f16f3b51d,1,,,,,,shovel,,,,,,,,,,,2,2,0,20,20,19,1,,,,,,,,,,,,,,,,,,,,,,,,,,,,,,,,,,,,,,,,,,,,,,,,,,,,,,,,,,,,,,,,,,,,,,
,,?,0.000315,0,,,,,,stimuli/images/PICTURE_654.png,COPS,59e71906ac0af70001b36a06,06/02/1989,2020-08-27_15h46.26.691,proactive3.2,2020.1.2,Win32,60,5f47c0b9b035471e11593a5c,5f47c72ac541cc1f16f3b51d,1,,,,,,pencil,,,,,,,,,,,2,2,0,21,21,10,1,,,,,,,,,,,,,,,,,,,,,,,,,,,,,,,,,,,,,,,,,,,,,,,,,,,,,,,,,,,,,,,,,,,,,,
,,?,0.0003,0,,,,,,stimuli/images/PICTURE_708.png,VALLEY,59e71906ac0af70001b36a06,06/02/1989,2020-08-27_15h46.26.691,proactive3.2,2020.1.2,Win32,60,5f47c0b9b035471e11593a5c,5f47c72ac541cc1f16f3b51d,1,,,,,,monkey,,,,,,,,,,,5,2,0,22,22,45,1,,,,,,,,,,,,,,,,,,,,,,,,,,,,,,,,,,,,,,,,,,,,,,,,,,,,,,,,,,,,,,,,,,,,,,
,,?,0.001225,0,,,,,,stimuli/images/PICTURE_654.png,YEAR,59e71906ac0af70001b36a06,06/02/1989,2020-08-27_15h46.26.691,proactive3.2,2020.1.2,Win32,60,5f47c0b9b035471e11593a5c,5f47c72ac541cc1f16f3b51d,1,,,,,,pencil,,,,,,,,,,,5,2,0,23,23,41,1,,,,,,,,,,,,,,,,,,,,,,,,,,,,,,,,,,,,,,,,,,,,,,,,,,,,,,,,,,,,,,,,,,,,,,
,,?,0.00031,0,,,,,,stimuli/images/PICTURE_405.png,JUNGLE,59e71906ac0af70001b36a06,06/02/1989,2020-08-27_15h46.26.691,proactive3.2,2020.1.2,Win32,60,5f47c0b9b035471e11593a5c,5f47c72ac541cc1f16f3b51d,1,,,,,,anchor,,,,,,,,,,,6,2,0,24,24,58,1,,,,,,,,,,,,,,,,,,,,,,,,,,,,,,,,,,,,,,,,,,,,,,,,,,,,,,,,,,,,,,,,,,,,,,
,,?,0.000305,0,,,,,,stimuli/images/PICTURE_750.png,POLICY,59e71906ac0af70001b36a06,06/02/1989,2020-08-27_15h46.26.691,proactive3.2,2020.1.2,Win32,60,5f47c0b9b035471e11593a5c,5f47c72ac541cc1f16f3b51d,1,,,,,,kettle,,,,,,,,,,,5,2,0,25,25,44,1,,,,,,,,,,,,,,,,,,,,,,,,,,,,,,,,,,,,,,,,,,,,,,,,,,,,,,,,,,,,,,,,,,,,,,
,,?,0.0003,0,,,,,,stimuli/images/PICTURE_470.png,MOMENT,59e71906ac0af70001b36a06,06/02/1989,2020-08-27_15h46.26.691,proactive3.2,2020.1.2,Win32,60,5f47c0b9b035471e11593a5c,5f47c72ac541cc1f16f3b51d,1,,,,,,motorbike,,,,,,,,,,,5,2,0,26,26,40,1,,,,,,,,,,,,,,,,,,,,,,,,,,,,,,,,,,,,,,,,,,,,,,,,,,,,,,,,,,,,,,,,,,,,,,
,,?,0.000305,0,,,,,,stimuli/images/PICTURE_95.png,NIGHT,59e71906ac0af70001b36a06,06/02/1989,2020-08-27_15h46.26.691,proactive3.2,2020.1.2,Win32,60,5f47c0b9b035471e11593a5c,5f47c72ac541cc1f16f3b51d,1,,,,,,suitcase,,,,,,,,,,,4,2,0,27,27,37,1,,,,,,,,,,,,,,,,,,,,,,,,,,,,,,,,,,,,,,,,,,,,,,,,,,,,,,,,,,,,,,,,,,,,,,
,,?,0.00029,0,,,,,,stimuli/images/PICTURE_677.png,FAMILY,59e71906ac0af70001b36a06,06/02/1989,2020-08-27_15h46.26.691,proactive3.2,2020.1.2,Win32,60,5f47c0b9b035471e11593a5c,5f47c72ac541cc1f16f3b51d,1,,,,,,map,,,,,,,,,,,6,2,0,28,28,53,1,,,,,,,,,,,,,,,,,,,,,,,,,,,,,,,,,,,,,,,,,,,,,,,,,,,,,,,,,,,,,,,,,,,,,,
,,?,0.000295,0,,,,,,stimuli/images/PICTURE_285.png,PRINCE,59e71906ac0af70001b36a06,06/02/1989,2020-08-27_15h46.26.691,proactive3.2,2020.1.2,Win32,60,5f47c0b9b035471e11593a5c,5f47c72ac541cc1f16f3b51d,1,,,,,,carrot,,,,,,,,,,,3,2,0,29,29,20,1,,,,,,,,,,,,,,,,,,,,,,,,,,,,,,,,,,,,,,,,,,,,,,,,,,,,,,,,,,,,,,,,,,,,,,
,,SHOTS,3.485065,1,,,,,,stimuli/images/PICTURE_509.png,SHOTS,59e71906ac0af70001b36a06,06/02/1989,2020-08-27_15h46.26.691,proactive3.2,2020.1.2,Win32,60,5f47c0b9b035471e11593a5c,5f47c72ac541cc1f16f3b51d,1,,,,,,telephone,,,,,,,,,,,1,2,0,30,30,7,1,,,,,,,,,,,,,,,,,,,,,,,,,,,,,,,,,,,,,,,,,,,,,,,,,,,,,,,,,,,,,,,,,,,,,,
,,?,0.00072,0,,,,,,stimuli/images/PICTURE_667.png,GLASS,59e71906ac0af70001b36a06,06/02/1989,2020-08-27_15h46.26.691,proactive3.2,2020.1.2,Win32,60,5f47c0b9b035471e11593a5c,5f47c72ac541cc1f16f3b51d,1,,,,,,daisy,,,,,,,,,,,3,2,0,31,31,27,1,,,,,,,,,,,,,,,,,,,,,,,,,,,,,,,,,,,,,,,,,,,,,,,,,,,,,,,,,,,,,,,,,,,,,,
,,?,0.00053,0,,,,,,stimuli/images/PICTURE_141.png,CLIENT,59e71906ac0af70001b36a06,06/02/1989,2020-08-27_15h46.26.691,proactive3.2,2020.1.2,Win32,60,5f47c0b9b035471e11593a5c,5f47c72ac541cc1f16f3b51d,1,,,,,,sunflower,,,,,,,,,,,4,2,0,32,32,30,1,,,,,,,,,,,,,,,,,,,,,,,,,,,,,,,,,,,,,,,,,,,,,,,,,,,,,,,,,,,,,,,,,,,,,,
,,?,0.00032,0,,,,,,stimuli/images/PICTURE_297.png,BODY,59e71906ac0af70001b36a06,06/02/1989,2020-08-27_15h46.26.691,proactive3.2,2020.1.2,Win32,60,5f47c0b9b035471e11593a5c,5f47c72ac541cc1f16f3b51d,1,,,,,,aeroplane,,,,,,,,,,,6,2,0,33,33,51,1,,,,,,,,,,,,,,,,,,,,,,,,,,,,,,,,,,,,,,,,,,,,,,,,,,,,,,,,,,,,,,,,,,,,,,
,,?,0.000295,0,,,,,,stimuli/images/PICTURE_692.png,DUDE,59e71906ac0af70001b36a06,06/02/1989,2020-08-27_15h46.26.691,proactive3.2,2020.1.2,Win32,60,5f47c0b9b035471e11593a5c,5f47c72ac541cc1f16f3b51d,1,,,,,,cherry,,,,,,,,,,,5,2,0,34,34,47,1,,,,,,,,,,,,,,,,,,,,,,,,,,,,,,,,,,,,,,,,,,,,,,,,,,,,,,,,,,,,,,,,,,,,,,
,,?,0.00033,0,,,,,,stimuli/images/PICTURE_208.png,SPIRIT,59e71906ac0af70001b36a06,06/02/1989,2020-08-27_15h46.26.691,proactive3.2,2020.1.2,Win32,60,5f47c0b9b035471e11593a5c,5f47c72ac541cc1f16f3b51d,1,,,,,,microphone,,,,,,,,,,,3,2,0,35,35,28,1,,,,,,,,,,,,,,,,,,,,,,,,,,,,,,,,,,,,,,,,,,,,,,,,,,,,,,,,,,,,,,,,,,,,,,
,,?,0.000305,0,,,,,,stimuli/images/PICTURE_215.png,LEADER,59e71906ac0af70001b36a06,06/02/1989,2020-08-27_15h46.26.691,proactive3.2,2020.1.2,Win32,60,5f47c0b9b035471e11593a5c,5f47c72ac541cc1f16f3b51d,1,,,,,,boot,,,,,,,,,,,5,2,0,36,36,43,1,,,,,,,,,,,,,,,,,,,,,,,,,,,,,,,,,,,,,,,,,,,,,,,,,,,,,,,,,,,,,,,,,,,,,,
,,?,0.00036,0,,,,,,stimuli/images/PICTURE_314.png,SPEECH,59e71906ac0af70001b36a06,06/02/1989,2020-08-27_15h46.26.691,proactive3.2,2020.1.2,Win32,60,5f47c0b9b035471e11593a5c,5f47c72ac541cc1f16f3b51d,1,,,,,,perfume,,,,,,,,,,,4,2,0,37,37,35,1,,,,,,,,,,,,,,,,,,,,,,,,,,,,,,,,,,,,,,,,,,,,,,,,,,,,,,,,,,,,,,,,,,,,,,
,,POLICE,3.257765,0,,,,,,stimuli/images/PICTURE_452.png,COPS,59e71906ac0af70001b36a06,06/02/1989,2020-08-27_15h46.26.691,proactive3.2,2020.1.2,Win32,60,5f47c0b9b035471e11593a5c,5f47c72ac541cc1f16f3b51d,1,,,,,,watch,,,,,,,,,,,1,2,0,38,38,0,1,,,,,,,,,,,,,,,,,,,,,,,,,,,,,,,,,,,,,,,,,,,,,,,,,,,,,,,,,,,,,,,,,,,,,,
,,?,0.0005,0,,,,,,stimuli/images/PICTURE_487.png,ROOF,59e71906ac0af70001b36a06,06/02/1989,2020-08-27_15h46.26.691,proactive3.2,2020.1.2,Win32,60,5f47c0b9b035471e11593a5c,5f47c72ac541cc1f16f3b51d,1,,,,,,basket,,,,,,,,,,,6,2,0,39,39,50,1,,,,,,,,,,,,,,,,,,,,,,,,,,,,,,,,,,,,,,,,,,,,,,,,,,,,,,,,,,,,,,,,,,,,,,
,,?,0.00046,0,,,,,,stimuli/images/PICTURE_509.png,MILLER,59e71906ac0af70001b36a06,06/02/1989,2020-08-27_15h46.26.691,proactive3.2,2020.1.2,Win32,60,5f47c0b9b035471e11593a5c,5f47c72ac541cc1f16f3b51d,1,,,,,,telephone,,,,,,,,,,,5,2,0,40,40,49,1,,,,,,,,,,,,,,,,,,,,,,,,,,,,,,,,,,,,,,,,,,,,,,,,,,,,,,,,,,,,,,,,,,,,,,
,,?,0.0005,0,,,,,,stimuli/images/PICTURE_348.png,DUDE,59e71906ac0af70001b36a06,06/02/1989,2020-08-27_15h46.26.691,proactive3.2,2020.1.2,Win32,60,5f47c0b9b035471e11593a5c,5f47c72ac541cc1f16f3b51d,1,,,,,,pepper,,,,,,,,,,,6,2,0,41,41,59,1,,,,,,,,,,,,,,,,,,,,,,,,,,,,,,,,,,,,,,,,,,,,,,,,,,,,,,,,,,,,,,,,,,,,,,
,,?,0.000525,0,,,,,,stimuli/images/PICTURE_564.png,PLENTY,59e71906ac0af70001b36a06,06/02/1989,2020-08-27_15h46.26.691,proactive3.2,2020.1.2,Win32,60,5f47c0b9b035471e11593a5c,5f47c72ac541cc1f16f3b51d,1,,,,,,spoon,,,,,,,,,,,2,2,0,42,42,11,1,,,,,,,,,,,,,,,,,,,,,,,,,,,,,,,,,,,,,,,,,,,,,,,,,,,,,,,,,,,,,,,,,,,,,,
,,TIME,2.509795,0,,,,,,stimuli/images/PICTURE_123.png,SALE,59e71906ac0af70001b36a06,06/02/1989,2020-08-27_15h46.26.691,proactive3.2,2020.1.2,Win32,60,5f47c0b9b035471e11593a5c,5f47c72ac541cc1f16f3b51d,1,,,,,,dart,,,,,,,,,,,1,2,0,43,43,8,1,,,,,,,,,,,,,,,,,,,,,,,,,,,,,,,,,,,,,,,,,,,,,,,,,,,,,,,,,,,,,,,,,,,,,,
,,?,0.000455,0,,,,,,stimuli/images/PICTURE_491.png,SERIES,59e71906ac0af70001b36a06,06/02/1989,2020-08-27_15h46.26.691,proactive3.2,2020.1.2,Win32,60,5f47c0b9b035471e11593a5c,5f47c72ac541cc1f16f3b51d,1,,,,,,rug,,,,,,,,,,,4,2,0,44,44,39,1,,,,,,,,,,,,,,,,,,,,,,,,,,,,,,,,,,,,,,,,,,,,,,,,,,,,,,,,,,,,,,,,,,,,,,
,,?,0.000295,0,,,,,,stimuli/images/PICTURE_311.png,TOILET,59e71906ac0af70001b36a06,06/02/1989,2020-08-27_15h46.26.691,proactive3.2,2020.1.2,Win32,60,5f47c0b9b035471e11593a5c,5f47c72ac541cc1f16f3b51d,1,,,,,,razor,,,,,,,,,,,6,2,0,45,45,54,1,,,,,,,,,,,,,,,,,,,,,,,,,,,,,,,,,,,,,,,,,,,,,,,,,,,,,,,,,,,,,,,,,,,,,,
,,FOOD,2.61368,1,,,,,,stimuli/images/PICTURE_215.png,FOOD,59e71906ac0af70001b36a06,06/02/1989,2020-08-27_15h46.26.691,proactive3.2,2020.1.2,Win32,60,5f47c0b9b035471e11593a5c,5f47c72ac541cc1f16f3b51d,1,,,,,,boot,,,,,,,,,,,1,2,0,46,46,5,1,,,,,,,,,,,,,,,,,,,,,,,,,,,,,,,,,,,,,,,,,,,,,,,,,,,,,,,,,,,,,,,,,,,,,,
,,?,0.000545,0,,,,,,stimuli/images/PICTURE_18.png,RIVER,59e71906ac0af70001b36a06,06/02/1989,2020-08-27_15h46.26.691,proactive3.2,2020.1.2,Win32,60,5f47c0b9b035471e11593a5c,5f47c72ac541cc1f16f3b51d,1,,,,,,planet,,,,,,,,,,,3,2,0,47,47,22,1,,,,,,,,,,,,,,,,,,,,,,,,,,,,,,,,,,,,,,,,,,,,,,,,,,,,,,,,,,,,,,,,,,,,,,
,,?,0.000335,0,,,,,,stimuli/images/PICTURE_57.png,CANDY,59e71906ac0af70001b36a06,06/02/1989,2020-08-27_15h46.26.691,proactive3.2,2020.1.2,Win32,60,5f47c0b9b035471e11593a5c,5f47c72ac541cc1f16f3b51d,1,,,,,,stamp,,,,,,,,,,,6,2,0,48,48,52,1,,,,,,,,,,,,,,,,,,,,,,,,,,,,,,,,,,,,,,,,,,,,,,,,,,,,,,,,,,,,,,,,,,,,,,
,,?,0.0003,0,,,,,,stimuli/images/PICTURE_68.png,KIND,59e71906ac0af70001b36a06,06/02/1989,2020-08-27_15h46.26.691,proactive3.2,2020.1.2,Win32,60,5f47c0b9b035471e11593a5c,5f47c72ac541cc1f16f3b51d,1,,,,,,candle,,,,,,,,,,,3,2,0,49,49,23,1,,,,,,,,,,,,,,,,,,,,,,,,,,,,,,,,,,,,,,,,,,,,,,,,,,,,,,,,,,,,,,,,,,,,,,
,,HOUSE,2.412725,1,,,,,,stimuli/images/PICTURE_405.png,HOUSE,59e71906ac0af70001b36a06,06/02/1989,2020-08-27_15h46.26.691,proactive3.2,2020.1.2,Win32,60,5f47c0b9b035471e11593a5c,5f47c72ac541cc1f16f3b51d,1,,,,,,anchor,,,,,,,,,,,1,2,0,50,50,2,1,,,,,,,,,,,,,,,,,,,,,,,,,,,,,,,,,,,,,,,,,,,,,,,,,,,,,,,,,,,,,,,,,,,,,,
,,?,0.000445,0,,,,,,stimuli/images/PICTURE_2.png,AREA,59e71906ac0af70001b36a06,06/02/1989,2020-08-27_15h46.26.691,proactive3.2,2020.1.2,Win32,60,5f47c0b9b035471e11593a5c,5f47c72ac541cc1f16f3b51d,1,,,,,,tyre,,,,,,,,,,,4,2,0,51,51,32,1,,,,,,,,,,,,,,,,,,,,,,,,,,,,,,,,,,,,,,,,,,,,,,,,,,,,,,,,,,,,,,,,,,,,,,
,,?,0.0003,0,,,,,,stimuli/images/PICTURE_147.png,LEADER,59e71906ac0af70001b36a06,06/02/1989,2020-08-27_15h46.26.691,proactive3.2,2020.1.2,Win32,60,5f47c0b9b035471e11593a5c,5f47c72ac541cc1f16f3b51d,1,,,,,,hanger,,,,,,,,,,,4,2,0,52,52,33,1,,,,,,,,,,,,,,,,,,,,,,,,,,,,,,,,,,,,,,,,,,,,,,,,,,,,,,,,,,,,,,,,,,,,,,
,,?,0.000295,0,,,,,,stimuli/images/PICTURE_504.png,HOUSE,59e71906ac0af70001b36a06,06/02/1989,2020-08-27_15h46.26.691,proactive3.2,2020.1.2,Win32,60,5f47c0b9b035471e11593a5c,5f47c72ac541cc1f16f3b51d,1,,,,,,wheel,,,,,,,,,,,4,2,0,53,53,36,1,,,,,,,,,,,,,,,,,,,,,,,,,,,,,,,,,,,,,,,,,,,,,,,,,,,,,,,,,,,,,,,,,,,,,,
,,?,0.000295,0,,,,,,stimuli/images/PICTURE_677.png,PHOTO,59e71906ac0af70001b36a06,06/02/1989,2020-08-27_15h46.26.691,proactive3.2,2020.1.2,Win32,60,5f47c0b9b035471e11593a5c,5f47c72ac541cc1f16f3b51d,1,,,,,,map,,,,,,,,,,,2,2,0,54,54,14,1,,,,,,,,,,,,,,,,,,,,,,,,,,,,,,,,,,,,,,,,,,,,,,,,,,,,,,,,,,,,,,,,,,,,,,
,,?,0.000325,0,,,,,,stimuli/images/PICTURE_57.png,NATION,59e71906ac0af70001b36a06,06/02/1989,2020-08-27_15h46.26.691,proactive3.2,2020.1.2,Win32,60,5f47c0b9b035471e11593a5c,5f47c72ac541cc1f16f3b51d,1,,,,,,stamp,,,,,,,,,,,3,2,0,55,55,21,1,,,,,,,,,,,,,,,,,,,,,,,,,,,,,,,,,,,,,,,,,,,,,,,,,,,,,,,,,,,,,,,,,,,,,,
,,?,0.000345,0,,,,,,stimuli/images/PICTURE_215.png,BOYS,59e71906ac0af70001b36a06,06/02/1989,2020-08-27_15h46.26.691,proactive3.2,2020.1.2,Win32,60,5f47c0b9b035471e11593a5c,5f47c72ac541cc1f16f3b51d,1,,,,,,boot,,,,,,,,,,,3,2,0,56,56,24,1,,,,,,,,,,,,,,,,,,,,,,,,,,,,,,,,,,,,,,,,,,,,,,,,,,,,,,,,,,,,,,,,,,,,,,
,,?,0.000495,0,,,,,,stimuli/images/PICTURE_487.png,POLICY,59e71906ac0af70001b36a06,06/02/1989,2020-08-27_15h46.26.691,proactive3.2,2020.1.2,Win32,60,5f47c0b9b035471e11593a5c,5f47c72ac541cc1f16f3b51d,1,,,,,,basket,,,,,,,,,,,4,2,0,57,57,34,1,,,,,,,,,,,,,,,,,,,,,,,,,,,,,,,,,,,,,,,,,,,,,,,,,,,,,,,,,,,,,,,,,,,,,,
,,?,0.0003,0,,,,,,stimuli/images/PICTURE_32.png,LETTER,59e71906ac0af70001b36a06,06/02/1989,2020-08-27_15h46.26.691,proactive3.2,2020.1.2,Win32,60,5f47c0b9b035471e11593a5c,5f47c72ac541cc1f16f3b51d,1,,,,,,crown,,,,,,,,,,,6,2,0,58,58,56,1,,,,,,,,,,,,,,,,,,,,,,,,,,,,,,,,,,,,,,,,,,,,,,,,,,,,,,,,,,,,,,,,,,,,,,
,,?,0.000385,0,,,,,,stimuli/images/PICTURE_509.png,APPLE,59e71906ac0af70001b36a06,06/02/1989,2020-08-27_15h46.26.691,proactive3.2,2020.1.2,Win32,60,5f47c0b9b035471e11593a5c,5f47c72ac541cc1f16f3b51d,1,,,,,,telephone,,,,,,,,,,,4,2,0,59,59,38,1,,,,,,,,,,,,,,,,,,,,,,,,,,,,,,,,,,,,,,,,,,,,,,,,,,,,,,,,,,,,,,,,,,,,,,
,,,,,,,,,,,,59e71906ac0af70001b36a06,06/02/1989,2020-08-27_15h46.26.691,proactive3.2,2020.1.2,Win32,60,5f47c0b9b035471e11593a5c,5f47c72ac541cc1f16f3b51d,1,,,,,,,,,,,,,,,,,,,,,,,,0,1,1,2,1,stimuli/learn-block3.csv,,,,,,,,,,,,,,,,,,,,,,,,,,,,,,,,,,,,,,,,,,,,,,,,,,,,,,,,,,,,,,,,
,,,,,,,,,,stimuli/images/PICTURE_233.png,IDEAS,59e71906ac0af70001b36a06,06/02/1989,2020-08-27_15h46.26.691,proactive3.2,2020.1.2,Win32,60,5f47c0b9b035471e11593a5c,5f47c72ac541cc1f16f3b51d,1,,,,,,salt,,,,,,0,0,0,28,1,3,0,,,,,,,,,,,,,,,,,,,,,,,,,,,,,,,,,,,,,,,,,,,,,,,,,,,,,,,,,,,,,,,,,,,,,,,,,,,
,,,,,,,,,,stimuli/images/PICTURE_95.png,STYLE,59e71906ac0af70001b36a06,06/02/1989,2020-08-27_15h46.26.691,proactive3.2,2020.1.2,Win32,60,5f47c0b9b035471e11593a5c,5f47c72ac541cc1f16f3b51d,1,,,,,,suitcase,,,,,,0,1,1,25,1,3,0,,,,,,,,,,,,,,,,,,,,,,,,,,,,,,,,,,,,,,,,,,,,,,,,,,,,,,,,,,,,,,,,,,,,,,,,,,,
,,,,,,,,,,stimuli/images/PICTURE_708.png,PENNY,59e71906ac0af70001b36a06,06/02/1989,2020-08-27_15h46.26.691,proactive3.2,2020.1.2,Win32,60,5f47c0b9b035471e11593a5c,5f47c72ac541cc1f16f3b51d,1,,,,,,monkey,,,,,,0,2,2,31,1,4,0,,,,,,,,,,,,,,,,,,,,,,,,,,,,,,,,,,,,,,,,,,,,,,,,,,,,,,,,,,,,,,,,,,,,,,,,,,,
,,,,,,,,,,stimuli/images/PICTURE_203.png,ARTIST,59e71906ac0af70001b36a06,06/02/1989,2020-08-27_15h46.26.691,proactive3.2,2020.1.2,Win32,60,5f47c0b9b035471e11593a5c,5f47c72ac541cc1f16f3b51d,1,,,,,,cap,,,,,,0,3,3,26,1,3,0,,,,,,,,,,,,,,,,,,,,,,,,,,,,,,,,,,,,,,,,,,,,,,,,,,,,,,,,,,,,,,,,,,,,,,,,,,,
,,,,,,,,,,stimuli/images/PICTURE_285.png,ADVICE,59e71906ac0af70001b36a06,06/02/1989,2020-08-27_15h46.26.691,proactive3.2,2020.1.2,Win32,60,5f47c0b9b035471e11593a5c,5f47c72ac541cc1f16f3b51d,1,,,,,,carrot,,,,,,0,4,4,12,1,2,0,,,,,,,,,,,,,,,,,,,,,,,,,,,,,,,,,,,,,,,,,,,,,,,,,,,,,,,,,,,,,,,,,,,,,,,,,,,
,,,,,,,,,,stimuli/images/PICTURE_380.png,DEATH,59e71906ac0af70001b36a06,06/02/1989,2020-08-27_15h46.26.691,proactive3.2,2020.1.2,Win32,60,5f47c0b9b035471e11593a5c,5f47c72ac541cc1f16f3b51d,1,,,,,,gorilla,,,,,,0,5,5,49,1,5,0,,,,,,,,,,,,,,,,,,,,,,,,,,,,,,,,,,,,,,,,,,,,,,,,,,,,,,,,,,,,,,,,,,,,,,,,,,,
,,,,,,,,,,stimuli/images/PICTURE_208.png,THING,59e71906ac0af70001b36a06,06/02/1989,2020-08-27_15h46.26.691,proactive3.2,2020.1.2,Win32,60,5f47c0b9b035471e11593a5c,5f47c72ac541cc1f16f3b51d,1,,,,,,microphone,,,,,,0,6,6,47,1,5,0,,,,,,,,,,,,,,,,,,,,,,,,,,,,,,,,,,,,,,,,,,,,,,,,,,,,,,,,,,,,,,,,,,,,,,,,,,,
,,,,,,,,,,stimuli/images/PICTURE_348.png,SPEECH,59e71906ac0af70001b36a06,06/02/1989,2020-08-27_15h46.26.691,proactive3.2,2020.1.2,Win32,60,5f47c0b9b035471e11593a5c,5f47c72ac541cc1f16f3b51d,1,,,,,,pepper,,,,,,0,7,7,20,1,3,0,,,,,,,,,,,,,,,,,,,,,,,,,,,,,,,,,,,,,,,,,,,,,,,,,,,,,,,,,,,,,,,,,,,,,,,,,,,
,,,,,,,,,,stimuli/images/PICTURE_469.png,LETTER,59e71906ac0af70001b36a06,06/02/1989,2020-08-27_15h46.26.691,proactive3.2,2020.1.2,Win32,60,5f47c0b9b035471e11593a5c,5f47c72ac541cc1f16f3b51d,1,,,,,,stool,,,,,,0,8,8,42,1,5,0,,,,,,,,,,,,,,,,,,,,,,,,,,,,,,,,,,,,,,,,,,,,,,,,,,,,,,,,,,,,,,,,,,,,,,,,,,,
,,,,,,,,,,stimuli/images/PICTURE_504.png,BODY,59e71906ac0af70001b36a06,06/02/1989,2020-08-27_15h46.26.691,proactive3.2,2020.1.2,Win32,60,5f47c0b9b035471e11593a5c,5f47c72ac541cc1f16f3b51d,1,,,,,,wheel,,,,,,0,9,9,8,1,1,0,,,,,,,,,,,,,,,,,,,,,,,,,,,,,,,,,,,,,,,,,,,,,,,,,,,,,,,,,,,,,,,,,,,,,,,,,,,
,,,,,,,,,,stimuli/images/PICTURE_453.png,DUDE,59e71906ac0af70001b36a06,06/02/1989,2020-08-27_15h46.26.691,proactive3.2,2020.1.2,Win32,60,5f47c0b9b035471e11593a5c,5f47c72ac541cc1f16f3b51d,1,,,,,,scissors,,,,,,0,10,10,27,1,3,0,,,,,,,,,,,,,,,,,,,,,,,,,,,,,,,,,,,,,,,,,,,,,,,,,,,,,,,,,,,,,,,,,,,,,,,,,,,
,,,,,,,,,,stimuli/images/PICTURE_453.png,PLENTY,59e71906ac0af70001b36a06,06/02/1989,2020-08-27_15h46.26.691,proactive3.2,2020.1.2,Win32,60,5f47c0b9b035471e11593a5c,5f47c72ac541cc1f16f3b51d,1,,,,,,scissors,,,,,,0,11,11,56,1,6,0,,,,,,,,,,,,,,,,,,,,,,,,,,,,,,,,,,,,,,,,,,,,,,,,,,,,,,,,,,,,,,,,,,,,,,,,,,,
,,,,,,,,,,stimuli/images/PICTURE_160.png,FEET,59e71906ac0af70001b36a06,06/02/1989,2020-08-27_15h46.26.691,proactive3.2,2020.1.2,Win32,60,5f47c0b9b035471e11593a5c,5f47c72ac541cc1f16f3b51d,1,,,,,,wheelbarrow,,,,,,0,12,12,58,1,6,0,,,,,,,,,,,,,,,,,,,,,,,,,,,,,,,,,,,,,,,,,,,,,,,,,,,,,,,,,,,,,,,,,,,,,,,,,,,
,,,,,,,,,,stimuli/images/PICTURE_491.png,WRITER,59e71906ac0af70001b36a06,06/02/1989,2020-08-27_15h46.26.691,proactive3.2,2020.1.2,Win32,60,5f47c0b9b035471e11593a5c,5f47c72ac541cc1f16f3b51d,1,,,,,,rug,,,,,,0,13,13,57,1,6,0,,,,,,,,,,,,,,,,,,,,,,,,,,,,,,,,,,,,,,,,,,,,,,,,,,,,,,,,,,,,,,,,,,,,,,,,,,,
,,,,,,,,,,stimuli/images/PICTURE_327.png,BEAUTY,59e71906ac0af70001b36a06,06/02/1989,2020-08-27_15h46.26.691,proactive3.2,2020.1.2,Win32,60,5f47c0b9b035471e11593a5c,5f47c72ac541cc1f16f3b51d,1,,,,,,helmet,,,,,,0,14,14,48,1,5,0,,,,,,,,,,,,,,,,,,,,,,,,,,,,,,,,,,,,,,,,,,,,,,,,,,,,,,,,,,,,,,,,,,,,,,,,,,,
,,,,,,,,,,stimuli/images/PICTURE_123.png,ADVICE,59e71906ac0af70001b36a06,06/02/1989,2020-08-27_15h46.26.691,proactive3.2,2020.1.2,Win32,60,5f47c0b9b035471e11593a5c,5f47c72ac541cc1f16f3b51d,1,,,,,,dart,,,,,,0,15,15,40,1,5,0,,,,,,,,,,,,,,,,,,,,,,,,,,,,,,,,,,,,,,,,,,,,,,,,,,,,,,,,,,,,,,,,,,,,,,,,,,,
,,,,,,,,,,stimuli/images/PICTURE_667.png,PLENTY,59e71906ac0af70001b36a06,06/02/1989,2020-08-27_15h46.26.691,proactive3.2,2020.1.2,Win32,60,5f47c0b9b035471e11593a5c,5f47c72ac541cc1f16f3b51d,1,,,,,,daisy,,,,,,0,16,16,41,1,5,0,,,,,,,,,,,,,,,,,,,,,,,,,,,,,,,,,,,,,,,,,,,,,,,,,,,,,,,,,,,,,,,,,,,,,,,,,,,
,,,,,,,,,,stimuli/images/PICTURE_488.png,STYLE,59e71906ac0af70001b36a06,06/02/1989,2020-08-27_15h46.26.691,proactive3.2,2020.1.2,Win32,60,5f47c0b9b035471e11593a5c,5f47c72ac541cc1f16f3b51d,1,,,,,,sun,,,,,,0,17,17,33,1,4,0,,,,,,,,,,,,,,,,,,,,,,,,,,,,,,,,,,,,,,,,,,,,,,,,,,,,,,,,,,,,,,,,,,,,,,,,,,,
,,,,,,,,,,stimuli/images/PICTURE_308.png,ESTATE,59e71906ac0af70001b36a06,06/02/1989,2020-08-27_15h46.26.691,proactive3.2,2020.1.2,Win32,60,5f47c0b9b035471e11593a5c,5f47c72ac541cc1f16f3b51d,1,,,,,,dice,,,,,,0,18,18,46,1,5,0,,,,,,,,,,,,,,,,,,,,,,,,,,,,,,,,,,,,,,,,,,,,,,,,,,,,,,,,,,,,,,,,,,,,,,,,,,,
,,,,,,,,,,stimuli/images/PICTURE_667.png,BATH,59e71906ac0af70001b36a06,06/02/1989,2020-08-27_15h46.26.691,proactive3.2,2020.1.2,Win32,60,5f47c0b9b035471e11593a5c,5f47c72ac541cc1f16f3b51d,1,,,,,,daisy,,,,,,0,19,19,4,1,1,0,,,,,,,,,,,,,,,,,,,,,,,,,,,,,,,,,,,,,,,,,,,,,,,,,,,,,,,,,,,,,,,,,,,,,,,,,,,
,,,,,,,,,,stimuli/images/PICTURE_302.png,FAMILY,59e71906ac0af70001b36a06,06/02/1989,2020-08-27_15h46.26.691,proactive3.2,2020.1.2,Win32,60,5f47c0b9b035471e11593a5c,5f47c72ac541cc1f16f3b51d,1,,,,,,taxi,,,,,,0,20,20,18,1,2,0,,,,,,,,,,,,,,,,,,,,,,,,,,,,,,,,,,,,,,,,,,,,,,,,,,,,,,,,,,,,,,,,,,,,,,,,,,,
,,,,,,,,,,stimuli/images/PICTURE_744.png,SAKE,59e71906ac0af70001b36a06,06/02/1989,2020-08-27_15h46.26.691,proactive3.2,2020.1.2,Win32,60,5f47c0b9b035471e11593a5c,5f47c72ac541cc1f16f3b51d,1,,,,,,ring,,,,,,0,21,21,17,1,2,0,,,,,,,,,,,,,,,,,,,,,,,,,,,,,,,,,,,,,,,,,,,,,,,,,,,,,,,,,,,,,,,,,,,,,,,,,,,
,,,,,,,,,,stimuli/images/PICTURE_85.png,THING,59e71906ac0af70001b36a06,06/02/1989,2020-08-27_15h46.26.691,proactive3.2,2020.1.2,Win32,60,5f47c0b9b035471e11593a5c,5f47c72ac541cc1f16f3b51d,1,,,,,,diamond,,,,,,0,22,22,15,1,2,0,,,,,,,,,,,,,,,,,,,,,,,,,,,,,,,,,,,,,,,,,,,,,,,,,,,,,,,,,,,,,,,,,,,,,,,,,,,
,,,,,,,,,,stimuli/images/PICTURE_509.png,PHOTO,59e71906ac0af70001b36a06,06/02/1989,2020-08-27_15h46.26.691,proactive3.2,2020.1.2,Win32,60,5f47c0b9b035471e11593a5c,5f47c72ac541cc1f16f3b51d,1,,,,,,telephone,,,,,,0,23,23,21,1,3,0,,,,,,,,,,,,,,,,,,,,,,,,,,,,,,,,,,,,,,,,,,,,,,,,,,,,,,,,,,,,,,,,,,,,,,,,,,,
,,,,,,,,,,stimuli/images/PICTURE_308.png,KIND,59e71906ac0af70001b36a06,06/02/1989,2020-08-27_15h46.26.691,proactive3.2,2020.1.2,Win32,60,5f47c0b9b035471e11593a5c,5f47c72ac541cc1f16f3b51d,1,,,,,,dice,,,,,,0,24,24,54,1,6,0,,,,,,,,,,,,,,,,,,,,,,,,,,,,,,,,,,,,,,,,,,,,,,,,,,,,,,,,,,,,,,,,,,,,,,,,,,,
,,,,,,,,,,stimuli/images/PICTURE_314.png,GODS,59e71906ac0af70001b36a06,06/02/1989,2020-08-27_15h46.26.691,proactive3.2,2020.1.2,Win32,60,5f47c0b9b035471e11593a5c,5f47c72ac541cc1f16f3b51d,1,,,,,,perfume,,,,,,0,25,25,11,1,2,0,,,,,,,,,,,,,,,,,,,,,,,,,,,,,,,,,,,,,,,,,,,,,,,,,,,,,,,,,,,,,,,,,,,,,,,,,,,
,,,,,,,,,,stimuli/images/PICTURE_233.png,WOMEN,59e71906ac0af70001b36a06,06/02/1989,2020-08-27_15h46.26.691,proactive3.2,2020.1.2,Win32,60,5f47c0b9b035471e11593a5c,5f47c72ac541cc1f16f3b51d,1,,,,,,salt,,,,,,0,26,26,38,1,4,0,,,,,,,,,,,,,,,,,,,,,,,,,,,,,,,,,,,,,,,,,,,,,,,,,,,,,,,,,,,,,,,,,,,,,,,,,,,
,,,,,,,,,,stimuli/images/PICTURE_208.png,LOTS,59e71906ac0af70001b36a06,06/02/1989,2020-08-27_15h46.26.691,proactive3.2,2020.1.2,Win32,60,5f47c0b9b035471e11593a5c,5f47c72ac541cc1f16f3b51d,1,,,,,,microphone,,,,,,0,27,27,10,1,2,0,,,,,,,,,,,,,,,,,,,,,,,,,,,,,,,,,,,,,,,,,,,,,,,,,,,,,,,,,,,,,,,,,,,,,,,,,,,
,,,,,,,,,,stimuli/images/PICTURE_708.png,YARD,59e71906ac0af70001b36a06,06/02/1989,2020-08-27_15h46.26.691,proactive3.2,2020.1.2,Win32,60,5f47c0b9b035471e11593a5c,5f47c72ac541cc1f16f3b51d,1,,,,,,monkey,,,,,,0,28,28,29,1,3,0,,,,,,,,,,,,,,,,,,,,,,,,,,,,,,,,,,,,,,,,,,,,,,,,,,,,,,,,,,,,,,,,,,,,,,,,,,,
,,,,,,,,,,stimuli/images/PICTURE_68.png,MILE,59e71906ac0af70001b36a06,06/02/1989,2020-08-27_15h46.26.691,proactive3.2,2020.1.2,Win32,60,5f47c0b9b035471e11593a5c,5f47c72ac541cc1f16f3b51d,1,,,,,,candle,,,,,,0,29,29,44,1,5,0,,,,,,,,,,,,,,,,,,,,,,,,,,,,,,,,,,,,,,,,,,,,,,,,,,,,,,,,,,,,,,,,,,,,,,,,,,,
,,,,,,,,,,stimuli/images/PICTURE_692.png,MONTH,59e71906ac0af70001b36a06,06/02/1989,2020-08-27_15h46.26.691,proactive3.2,2020.1.2,Win32,60,5f47c0b9b035471e11593a5c,5f47c72ac541cc1f16f3b51d,1,,,,,,cherry,,,,,,0,30,30,16,1,2,0,,,,,,,,,,,,,,,,,,,,,,,,,,,,,,,,,,,,,,,,,,,,,,,,,,,,,,,,,,,,,,,,,,,,,,,,,,,
,,,,,,,,,,stimuli/images/PICTURE_449.png,THING,59e71906ac0af70001b36a06,06/02/1989,2020-08-27_15h46.26.691,proactive3.2,2020.1.2,Win32,60,5f47c0b9b035471e11593a5c,5f47c72ac541cc1f16f3b51d,1,,,,,,bench,,,,,,0,31,31,59,1,6,0,,,,,,,,,,,,,,,,,,,,,,,,,,,,,,,,,,,,,,,,,,,,,,,,,,,,,,,,,,,,,,,,,,,,,,,,,,,
,,,,,,,,,,stimuli/images/PICTURE_151.png,GIRL,59e71906ac0af70001b36a06,06/02/1989,2020-08-27_15h46.26.691,proactive3.2,2020.1.2,Win32,60,5f47c0b9b035471e11593a5c,5f47c72ac541cc1f16f3b51d,1,,,,,,tray,,,,,,0,32,32,19,1,2,0,,,,,,,,,,,,,,,,,,,,,,,,,,,,,,,,,,,,,,,,,,,,,,,,,,,,,,,,,,,,,,,,,,,,,,,,,,,
,,,,,,,,,,stimuli/images/PICTURE_487.png,FLIGHT,59e71906ac0af70001b36a06,06/02/1989,2020-08-27_15h46.26.691,proactive3.2,2020.1.2,Win32,60,5f47c0b9b035471e11593a5c,5f47c72ac541cc1f16f3b51d,1,,,,,,basket,,,,,,0,33,33,9,1,1,0,,,,,,,,,,,,,,,,,,,,,,,,,,,,,,,,,,,,,,,,,,,,,,,,,,,,,,,,,,,,,,,,,,,,,,,,,,,
,,,,,,,,,,stimuli/images/PICTURE_470.png,CASINO,59e71906ac0af70001b36a06,06/02/1989,2020-08-27_15h46.26.691,proactive3.2,2020.1.2,Win32,60,5f47c0b9b035471e11593a5c,5f47c72ac541cc1f16f3b51d,1,,,,,,motorbike,,,,,,0,34,34,36,1,4,0,,,,,,,,,,,,,,,,,,,,,,,,,,,,,,,,,,,,,,,,,,,,,,,,,,,,,,,,,,,,,,,,,,,,,,,,,,,
,,,,,,,,,,stimuli/images/PICTURE_744.png,SYSTEM,59e71906ac0af70001b36a06,06/02/1989,2020-08-27_15h46.26.691,proactive3.2,2020.1.2,Win32,60,5f47c0b9b035471e11593a5c,5f47c72ac541cc1f16f3b51d,1,,,,,,ring,,,,,,0,35,35,43,1,5,0,,,,,,,,,,,,,,,,,,,,,,,,,,,,,,,,,,,,,,,,,,,,,,,,,,,,,,,,,,,,,,,,,,,,,,,,,,,
,,,,,,,,,,stimuli/images/PICTURE_339.png,PLENTY,59e71906ac0af70001b36a06,06/02/1989,2020-08-27_15h46.26.691,proactive3.2,2020.1.2,Win32,60,5f47c0b9b035471e11593a5c,5f47c72ac541cc1f16f3b51d,1,,,,,,backpack,,,,,,0,36,36,0,1,1,0,,,,,,,,,,,,,,,,,,,,,,,,,,,,,,,,,,,,,,,,,,,,,,,,,,,,,,,,,,,,,,,,,,,,,,,,,,,
,,,,,,,,,,stimuli/images/PICTURE_380.png,PHOTO,59e71906ac0af70001b36a06,06/02/1989,2020-08-27_15h46.26.691,proactive3.2,2020.1.2,Win32,60,5f47c0b9b035471e11593a5c,5f47c72ac541cc1f16f3b51d,1,,,,,,gorilla,,,,,,0,37,37,52,1,6,0,,,,,,,,,,,,,,,,,,,,,,,,,,,,,,,,,,,,,,,,,,,,,,,,,,,,,,,,,,,,,,,,,,,,,,,,,,,
,,,,,,,,,,stimuli/images/PICTURE_311.png,FRIEND,59e71906ac0af70001b36a06,06/02/1989,2020-08-27_15h46.26.691,proactive3.2,2020.1.2,Win32,60,5f47c0b9b035471e11593a5c,5f47c72ac541cc1f16f3b51d,1,,,,,,razor,,,,,,0,38,38,34,1,4,0,,,,,,,,,,,,,,,,,,,,,,,,,,,,,,,,,,,,,,,,,,,,,,,,,,,,,,,,,,,,,,,,,,,,,,,,,,,
,,,,,,,,,,stimuli/images/PICTURE_255.png,AREA,59e71906ac0af70001b36a06,06/02/1989,2020-08-27_15h46.26.691,proactive3.2,2020.1.2,Win32,60,5f47c0b9b035471e11593a5c,5f47c72ac541cc1f16f3b51d,1,,,,,,shovel,,,,,,0,39,39,22,1,3,0,,,,,,,,,,,,,,,,,,,,,,,,,,,,,,,,,,,,,,,,,,,,,,,,,,,,,,,,,,,,,,,,,,,,,,,,,,,
,,,,,,,,,,stimuli/images/PICTURE_160.png,LEADER,59e71906ac0af70001b36a06,06/02/1989,2020-08-27_15h46.26.691,proactive3.2,2020.1.2,Win32,60,5f47c0b9b035471e11593a5c,5f47c72ac541cc1f16f3b51d,1,,,,,,wheelbarrow,,,,,,0,40,40,3,1,1,0,,,,,,,,,,,,,,,,,,,,,,,,,,,,,,,,,,,,,,,,,,,,,,,,,,,,,,,,,,,,,,,,,,,,,,,,,,,
,,,,,,,,,,stimuli/images/PICTURE_314.png,SAKE,59e71906ac0af70001b36a06,06/02/1989,2020-08-27_15h46.26.691,proactive3.2,2020.1.2,Win32,60,5f47c0b9b035471e11593a5c,5f47c72ac541cc1f16f3b51d,1,,,,,,perfume,,,,,,0,41,41,7,1,1,0,,,,,,,,,,,,,,,,,,,,,,,,,,,,,,,,,,,,,,,,,,,,,,,,,,,,,,,,,,,,,,,,,,,,,,,,,,,
,,,,,,,,,,stimuli/images/PICTURE_675.png,WEAPON,59e71906ac0af70001b36a06,06/02/1989,2020-08-27_15h46.26.691,proactive3.2,2020.1.2,Win32,60,5f47c0b9b035471e11593a5c,5f47c72ac541cc1f16f3b51d,1,,,,,,windmill,,,,,,0,42,42,32,1,4,0,,,,,,,,,,,,,,,,,,,,,,,,,,,,,,,,,,,,,,,,,,,,,,,,,,,,,,,,,,,,,,,,,,,,,,,,,,,
,,,,,,,,,,stimuli/images/PICTURE_32.png,JUNGLE,59e71906ac0af70001b36a06,06/02/1989,2020-08-27_15h46.26.691,proactive3.2,2020.1.2,Win32,60,5f47c0b9b035471e11593a5c,5f47c72ac541cc1f16f3b51d,1,,,,,,crown,,,,,,0,43,43,45,1,5,0,,,,,,,,,,,,,,,,,,,,,,,,,,,,,,,,,,,,,,,,,,,,,,,,,,,,,,,,,,,,,,,,,,,,,,,,,,,
,,,,,,,,,,stimuli/images/PICTURE_467.png,DEMON,59e71906ac0af70001b36a06,06/02/1989,2020-08-27_15h46.26.691,proactive3.2,2020.1.2,Win32,60,5f47c0b9b035471e11593a5c,5f47c72ac541cc1f16f3b51d,1,,,,,,peg,,,,,,0,44,44,23,1,3,0,,,,,,,,,,,,,,,,,,,,,,,,,,,,,,,,,,,,,,,,,,,,,,,,,,,,,,,,,,,,,,,,,,,,,,,,,,,
,,,,,,,,,,stimuli/images/PICTURE_469.png,ARTIST,59e71906ac0af70001b36a06,06/02/1989,2020-08-27_15h46.26.691,proactive3.2,2020.1.2,Win32,60,5f47c0b9b035471e11593a5c,5f47c72ac541cc1f16f3b51d,1,,,,,,stool,,,,,,0,45,45,6,1,1,0,,,,,,,,,,,,,,,,,,,,,,,,,,,,,,,,,,,,,,,,,,,,,,,,,,,,,,,,,,,,,,,,,,,,,,,,,,,
,,,,,,,,,,stimuli/images/PICTURE_248.png,DOZEN,59e71906ac0af70001b36a06,06/02/1989,2020-08-27_15h46.26.691,proactive3.2,2020.1.2,Win32,60,5f47c0b9b035471e11593a5c,5f47c72ac541cc1f16f3b51d,1,,,,,,cart,,,,,,0,46,46,39,1,4,0,,,,,,,,,,,,,,,,,,,,,,,,,,,,,,,,,,,,,,,,,,,,,,,,,,,,,,,,,,,,,,,,,,,,,,,,,,,
,,,,,,,,,,stimuli/images/PICTURE_688.png,WOMEN,59e71906ac0af70001b36a06,06/02/1989,2020-08-27_15h46.26.691,proactive3.2,2020.1.2,Win32,60,5f47c0b9b035471e11593a5c,5f47c72ac541cc1f16f3b51d,1,,,,,,runner,,,,,,0,47,47,14,1,2,0,,,,,,,,,,,,,,,,,,,,,,,,,,,,,,,,,,,,,,,,,,,,,,,,,,,,,,,,,,,,,,,,,,,,,,,,,,,
,,,,,,,,,,stimuli/images/PICTURE_688.png,CASINO,59e71906ac0af70001b36a06,06/02/1989,2020-08-27_15h46.26.691,proactive3.2,2020.1.2,Win32,60,5f47c0b9b035471e11593a5c,5f47c72ac541cc1f16f3b51d,1,,,,,,runner,,,,,,0,48,48,2,1,1,0,,,,,,,,,,,,,,,,,,,,,,,,,,,,,,,,,,,,,,,,,,,,,,,,,,,,,,,,,,,,,,,,,,,,,,,,,,,
,,,,,,,,,,stimuli/images/PICTURE_123.png,ADVICE,59e71906ac0af70001b36a06,06/02/1989,2020-08-27_15h46.26.691,proactive3.2,2020.1.2,Win32,60,5f47c0b9b035471e11593a5c,5f47c72ac541cc1f16f3b51d,1,,,,,,dart,,,,,,0,49,49,50,1,6,0,,,,,,,,,,,,,,,,,,,,,,,,,,,,,,,,,,,,,,,,,,,,,,,,,,,,,,,,,,,,,,,,,,,,,,,,,,,
,,,,,,,,,,stimuli/images/PICTURE_356.png,DANGER,59e71906ac0af70001b36a06,06/02/1989,2020-08-27_15h46.26.691,proactive3.2,2020.1.2,Win32,60,5f47c0b9b035471e11593a5c,5f47c72ac541cc1f16f3b51d,1,,,,,,pawn,,,,,,0,50,50,55,1,6,0,,,,,,,,,,,,,,,,,,,,,,,,,,,,,,,,,,,,,,,,,,,,,,,,,,,,,,,,,,,,,,,,,,,,,,,,,,,
,,,,,,,,,,stimuli/images/PICTURE_177.png,CARS,59e71906ac0af70001b36a06,06/02/1989,2020-08-27_15h46.26.691,proactive3.2,2020.1.2,Win32,60,5f47c0b9b035471e11593a5c,5f47c72ac541cc1f16f3b51d,1,,,,,,mushroom,,,,,,0,51,51,35,1,4,0,,,,,,,,,,,,,,,,,,,,,,,,,,,,,,,,,,,,,,,,,,,,,,,,,,,,,,,,,,,,,,,,,,,,,,,,,,,
,,,,,,,,,,stimuli/images/PICTURE_215.png,PLENTY,59e71906ac0af70001b36a06,06/02/1989,2020-08-27_15h46.26.691,proactive3.2,2020.1.2,Win32,60,5f47c0b9b035471e11593a5c,5f47c72ac541cc1f16f3b51d,1,,,,,,boot,,,,,,0,52,52,37,1,4,0,,,,,,,,,,,,,,,,,,,,,,,,,,,,,,,,,,,,,,,,,,,,,,,,,,,,,,,,,,,,,,,,,,,,,,,,,,,
,,,,,,,,,,stimuli/images/PICTURE_708.png,CLIENT,59e71906ac0af70001b36a06,06/02/1989,2020-08-27_15h46.26.691,proactive3.2,2020.1.2,Win32,60,5f47c0b9b035471e11593a5c,5f47c72ac541cc1f16f3b51d,1,,,,,,monkey,,,,,,0,53,53,5,1,1,0,,,,,,,,,,,,,,,,,,,,,,,,,,,,,,,,,,,,,,,,,,,,,,,,,,,,,,,,,,,,,,,,,,,,,,,,,,,
,,,,,,,,,,stimuli/images/PICTURE_677.png,MILE,59e71906ac0af70001b36a06,06/02/1989,2020-08-27_15h46.26.691,proactive3.2,2020.1.2,Win32,60,5f47c0b9b035471e11593a5c,5f47c72ac541cc1f16f3b51d,1,,,,,,map,,,,,,0,54,54,30,1,4,0,,,,,,,,,,,,,,,,,,,,,,,,,,,,,,,,,,,,,,,,,,,,,,,,,,,,,,,,,,,,,,,,,,,,,,,,,,,
,,,,,,,,,,stimuli/images/PICTURE_147.png,MOMENT,59e71906ac0af70001b36a06,06/02/1989,2020-08-27_15h46.26.691,proactive3.2,2020.1.2,Win32,60,5f47c0b9b035471e11593a5c,5f47c72ac541cc1f16f3b51d,1,,,,,,hanger,,,,,,0,55,55,51,1,6,0,,,,,,,,,,,,,,,,,,,,,,,,,,,,,,,,,,,,,,,,,,,,,,,,,,,,,,,,,,,,,,,,,,,,,,,,,,,
,,,,,,,,,,stimuli/images/PICTURE_208.png,MONTH,59e71906ac0af70001b36a06,06/02/1989,2020-08-27_15h46.26.691,proactive3.2,2020.1.2,Win32,60,5f47c0b9b035471e11593a5c,5f47c72ac541cc1f16f3b51d,1,,,,,,microphone,,,,,,0,56,56,53,1,6,0,,,,,,,,,,,,,,,,,,,,,,,,,,,,,,,,,,,,,,,,,,,,,,,,,,,,,,,,,,,,,,,,,,,,,,,,,,,
,,,,,,,,,,stimuli/images/PICTURE_491.png,ROOF,59e71906ac0af70001b36a06,06/02/1989,2020-08-27_15h46.26.691,proactive3.2,2020.1.2,Win32,60,5f47c0b9b035471e11593a5c,5f47c72ac541cc1f16f3b51d,1,,,,,,rug,,,,,,0,57,57,24,1,3,0,,,,,,,,,,,,,,,,,,,,,,,,,,,,,,,,,,,,,,,,,,,,,,,,,,,,,,,,,,,,,,,,,,,,,,,,,,,
,,,,,,,,,,stimuli/images/PICTURE_311.png,BEAUTY,59e71906ac0af70001b36a06,06/02/1989,2020-08-27_15h46.26.691,proactive3.2,2020.1.2,Win32,60,5f47c0b9b035471e11593a5c,5f47c72ac541cc1f16f3b51d,1,,,,,,razor,,,,,,0,58,58,13,1,2,0,,,,,,,,,,,,,,,,,,,,,,,,,,,,,,,,,,,,,,,,,,,,,,,,,,,,,,,,,,,,,,,,,,,,,,,,,,,
,,?,0.000445,0,,,,,,stimuli/images/PICTURE_160.png,FEET,59e71906ac0af70001b36a06,06/02/1989,2020-08-27_15h46.26.691,proactive3.2,2020.1.2,Win32,60,5f47c0b9b035471e11593a5c,5f47c72ac541cc1f16f3b51d,1,,,,,,wheelbarrow,,,,,,,,,,,6,0,0,0,0,58,1,,,,,,,,,,,,,,,,,,,,,,,,,,,,,,,,,,,,,,,,,,,,,,,,,,,,,,,,,,,,,,,,,,,,,,
,,?,0.00031,0,,,,,,stimuli/images/PICTURE_151.png,GIRL,59e71906ac0af70001b36a06,06/02/1989,2020-08-27_15h46.26.691,proactive3.2,2020.1.2,Win32,60,5f47c0b9b035471e11593a5c,5f47c72ac541cc1f16f3b51d,1,,,,,,tray,,,,,,,,,,,2,0,0,1,1,19,1,,,,,,,,,,,,,,,,,,,,,,,,,,,,,,,,,,,,,,,,,,,,,,,,,,,,,,,,,,,,,,,,,,,,,,
,,?,0.0003,0,,,,,,stimuli/images/PICTURE_708.png,PENNY,59e71906ac0af70001b36a06,06/02/1989,2020-08-27_15h46.26.691,proactive3.2,2020.1.2,Win32,60,5f47c0b9b035471e11593a5c,5f47c72ac541cc1f16f3b51d,1,,,,,,monkey,,,,,,,,,,,4,0,0,2,2,31,1,,,,,,,,,,,,,,,,,,,,,,,,,,,,,,,,,,,,,,,,,,,,,,,,,,,,,,,,,,,,,,,,,,,,,,
,,?,0.00029,0,,,,,,stimuli/images/PICTURE_675.png,WEAPON,59e71906ac0af70001b36a06,06/02/1989,2020-08-27_15h46.26.691,proactive3.2,2020.1.2,Win32,60,5f47c0b9b035471e11593a5c,5f47c72ac541cc1f16f3b51d,1,,,,,,windmill,,,,,,,,,,,4,0,0,3,3,32,1,,,,,,,,,,,,,,,,,,,,,,,,,,,,,,,,,,,,,,,,,,,,,,,,,,,,,,,,,,,,,,,,,,,,,,
,,?,0.000305,0,,,,,,stimuli/images/PICTURE_348.png,SPEECH,59e71906ac0af70001b36a06,06/02/1989,2020-08-27_15h46.26.691,proactive3.2,2020.1.2,Win32,60,5f47c0b9b035471e11593a5c,5f47c72ac541cc1f16f3b51d,1,,,,,,pepper,,,,,,,,,,,3,0,0,4,4,20,1,,,,,,,,,,,,,,,,,,,,,,,,,,,,,,,,,,,,,,,,,,,,,,,,,,,,,,,,,,,,,,,,,,,,,,
,,?,0.00029,0,,,,,,stimuli/images/PICTURE_667.png,PLENTY,59e71906ac0af70001b36a06,06/02/1989,2020-08-27_15h46.26.691,proactive3.2,2020.1.2,Win32,60,5f47c0b9b035471e11593a5c,5f47c72ac541cc1f16f3b51d,1,,,,,,daisy,,,,,,,,,,,5,0,0,5,5,41,1,,,,,,,,,,,,,,,,,,,,,,,,,,,,,,,,,,,,,,,,,,,,,,,,,,,,,,,,,,,,,,,,,,,,,,
,,?,0.000285,0,,,,,,stimuli/images/PICTURE_302.png,FAMILY,59e71906ac0af70001b36a06,06/02/1989,2020-08-27_15h46.26.691,proactive3.2,2020.1.2,Win32,60,5f47c0b9b035471e11593a5c,5f47c72ac541cc1f16f3b51d,1,,,,,,taxi,,,,,,,,,,,2,0,0,6,6,18,1,,,,,,,,,,,,,,,,,,,,,,,,,,,,,,,,,,,,,,,,,,,,,,,,,,,,,,,,,,,,,,,,,,,,,,
,,?,0.000295,0,,,,,,stimuli/images/PICTURE_215.png,PLENTY,59e71906ac0af70001b36a06,06/02/1989,2020-08-27_15h46.26.691,proactive3.2,2020.1.2,Win32,60,5f47c0b9b035471e11593a5c,5f47c72ac541cc1f16f3b51d,1,,,,,,boot,,,,,,,,,,,4,0,0,7,7,37,1,,,,,,,,,,,,,,,,,,,,,,,,,,,,,,,,,,,,,,,,,,,,,,,,,,,,,,,,,,,,,,,,,,,,,,
,,?,0.0003,0,,,,,,stimuli/images/PICTURE_147.png,MOMENT,59e71906ac0af70001b36a06,06/02/1989,2020-08-27_15h46.26.691,proactive3.2,2020.1.2,Win32,60,5f47c0b9b035471e11593a5c,5f47c72ac541cc1f16f3b51d,1,,,,,,hanger,,,,,,,,,,,6,0,0,8,8,51,1,,,,,,,,,,,,,,,,,,,,,,,,,,,,,,,,,,,,,,,,,,,,,,,,,,,,,,,,,,,,,,,,,,,,,,
,,?,0.00029,0,,,,,,stimuli/images/PICTURE_208.png,THING,59e71906ac0af70001b36a06,06/02/1989,2020-08-27_15h46.26.691,proactive3.2,2020.1.2,Win32,60,5f47c0b9b035471e11593a5c,5f47c72ac541cc1f16f3b51d,1,,,,,,microphone,,,,,,,,,,,5,0,0,9,9,47,1,,,,,,,,,,,,,,,,,,,,,,,,,,,,,,,,,,,,,,,,,,,,,,,,,,,,,,,,,,,,,,,,,,,,,,
,,?,0.0003,0,,,,,,stimuli/images/PICTURE_677.png,MILE,59e71906ac0af70001b36a06,06/02/1989,2020-08-27_15h46.26.691,proactive3.2,2020.1.2,Win32,60,5f47c0b9b035471e11593a5c,5f47c72ac541cc1f16f3b51d,1,,,,,,map,,,,,,,,,,,4,0,0,10,10,30,1,,,,,,,,,,,,,,,,,,,,,,,,,,,,,,,,,,,,,,,,,,,,,,,,,,,,,,,,,,,,,,,,,,,,,,
,,?,6.18593,0,,,,,,stimuli/images/PICTURE_504.png,BODY,59e71906ac0af70001b36a06,06/02/1989,2020-08-27_15h46.26.691,proactive3.2,2020.1.2,Win32,60,5f47c0b9b035471e11593a5c,5f47c72ac541cc1f16f3b51d,1,,,,,,wheel,,,,,,,,,,,1,0,0,11,11,8,1,,,,,,,,,,,,,,,,,,,,,,,,,,,,,,,,,,,,,,,,,,,,,,,,,,,,,,,,,,,,,,,,,,,,,,
,,?,0.00044,0,,,,,,stimuli/images/PICTURE_327.png,BEAUTY,59e71906ac0af70001b36a06,06/02/1989,2020-08-27_15h46.26.691,proactive3.2,2020.1.2,Win32,60,5f47c0b9b035471e11593a5c,5f47c72ac541cc1f16f3b51d,1,,,,,,helmet,,,,,,,,,,,5,0,0,12,12,48,1,,,,,,,,,,,,,,,,,,,,,,,,,,,,,,,,,,,,,,,,,,,,,,,,,,,,,,,,,,,,,,,,,,,,,,
,,?,0.000285,0,,,,,,stimuli/images/PICTURE_488.png,STYLE,59e71906ac0af70001b36a06,06/02/1989,2020-08-27_15h46.26.691,proactive3.2,2020.1.2,Win32,60,5f47c0b9b035471e11593a5c,5f47c72ac541cc1f16f3b51d,1,,,,,,sun,,,,,,,,,,,4,0,0,13,13,33,1,,,,,,,,,,,,,,,,,,,,,,,,,,,,,,,,,,,,,,,,,,,,,,,,,,,,,,,,,,,,,,,,,,,,,,
