consent_key.keys,consent_key.rt,recalled,recalled_rt,recall_acc,example_recall.thisRepN,example_recall.thisTrialN,example_recall.thisN,example_recall.thisIndex,example_recall.ran,file,word,participant,please enter your date of birth (dd/mm/yyyy),date,expName,psychopyVersion,OS,frameRate,STUDY_ID,SESSION_ID,list,prac_learn_study_loop.thisRepN,prac_learn_study_loop.thisTrialN,prac_learn_study_loop.thisN,prac_learn_study_loop.thisIndex,prac_learn_study_loop.ran,image,prac_learn_test_loop.thisRepN,prac_learn_test_loop.thisTrialN,prac_learn_test_loop.thisN,prac_learn_test_loop.thisIndex,prac_learn_test_loop.ran,learn_study_loop.thisRepN,learn_study_loop.thisTrialN,learn_study_loop.thisN,learn_study_loop.thisIndex,learn_study_loop.ran,list_no,block_no,learn_test_loop.thisRepN,learn_test_loop.thisTrialN,learn_test_loop.thisN,learn_test_loop.thisIndex,learn_test_loop.ran,learn_blocks.thisRepN,learn_blocks.thisTrialN,learn_blocks.thisN,learn_blocks.thisIndex,learn_blocks.ran,block_csv,key_resp_13.keys,key_resp_13.rt,learn_blocks_loop.thisRepN,learn_blocks_loop.thisTrialN,learn_blocks_loop.thisN,learn_blocks_loop.thisIndex,learn_blocks_loop.ran,final_learn_test.thisRepN,final_learn_test.thisTrialN,final_learn_test.thisN,final_learn_test.thisIndex,final_learn_test.ran,prac_wm_test_loop.thisRepN,prac_wm_test_loop.thisTrialN,prac_wm_test_loop.thisN,prac_wm_test_loop.thisIndex,prac_wm_test_loop.ran,wm_recalled1,wm_recall_rt1,wm_probed1,wm_recall_acc1,wm_recalled2,wm_recall_rt2,wm_probed2,wm_recall_acc2,wm_recalled3,wm_recall_rt3,wm_probed3,wm_recall_acc3,wm_recalled4,wm_recall_rt4,wm_probed4,wm_recall_acc4,prac_wm_trial_loop.thisRepN,prac_wm_trial_loop.thisTrialN,prac_wm_trial_loop.thisN,prac_wm_trial_loop.thisIndex,prac_wm_trial_loop.ran,word1,image1,file1,item_type1,word2,image2,file2,item_type2,word4,image4,file4,item_type4,word3,image3,file3,item_type3,wm_test_loop.thisRepN,wm_test_loop.thisTrialN,wm_test_loop.thisN,wm_test_loop.thisIndex,wm_test_loop.ran,wm_trial_loop.thisRepN,wm_trial_loop.thisTrialN,wm_trial_loop.thisN,wm_trial_loop.thisIndex,wm_trial_loop.ran
y,31.716,TOUGH,5.248,1,0,0,0,0,1,stimuli/images/PICTURE_747.png,TOUGH,59e7362fe75b450001a69349,27/05/1937,2020-09-12_09h03.26.260,proactive3.2,2020.1.2,MacIntel,60,5f5adea66120081ea0f57a61,5f5c80b12cde2b45a77321c4,2,,,,,,,,,,,,,,,,,,,,,,,,,,,,,,,,,,,,,,,,,,,,,,,,,,,,,,,,,,,,,,,,,,,,,,,,,,,,,,,,,,,,,,,,,,,,,
,,,,,,,,,,stimuli/images/PICTURE_697.png,KILLER,59e7362fe75b450001a69349,27/05/1937,2020-09-12_09h03.26.260,proactive3.2,2020.1.2,MacIntel,60,5f5adea66120081ea0f57a61,5f5c80b12cde2b45a77321c4,2,0,0,0,4,1,peach,,,,,,,,,,,,,,,,,,,,,,,,,,,,,,,,,,,,,,,,,,,,,,,,,,,,,,,,,,,,,,,,,,,,,,,,,,,,,,,,,,,,,,,
,,,,,,,,,,stimuli/images/PICTURE_378.png,LOSS,59e7362fe75b450001a69349,27/05/1937,2020-09-12_09h03.26.260,proactive3.2,2020.1.2,MacIntel,60,5f5adea66120081ea0f57a61,5f5c80b12cde2b45a77321c4,2,0,1,1,2,1,lobster,,,,,,,,,,,,,,,,,,,,,,,,,,,,,,,,,,,,,,,,,,,,,,,,,,,,,,,,,,,,,,,,,,,,,,,,,,,,,,,,,,,,,,,
,,,,,,,,,,stimuli/images/PICTURE_727.png,CELL,59e7362fe75b450001a69349,27/05/1937,2020-09-12_09h03.26.260,proactive3.2,2020.1.2,MacIntel,60,5f5adea66120081ea0f57a61,5f5c80b12cde2b45a77321c4,2,0,2,2,1,1,hose,,,,,,,,,,,,,,,,,,,,,,,,,,,,,,,,,,,,,,,,,,,,,,,,,,,,,,,,,,,,,,,,,,,,,,,,,,,,,,,,,,,,,,,
,,,,,,,,,,stimuli/images/PICTURE_658.png,DEVIL,59e7362fe75b450001a69349,27/05/1937,2020-09-12_09h03.26.260,proactive3.2,2020.1.2,MacIntel,60,5f5adea66120081ea0f57a61,5f5c80b12cde2b45a77321c4,2,0,3,3,3,1,crow,,,,,,,,,,,,,,,,,,,,,,,,,,,,,,,,,,,,,,,,,,,,,,,,,,,,,,,,,,,,,,,,,,,,,,,,,,,,,,,,,,,,,,,
,,GENIUS,5.636,1,,,,,,stimuli/images/PICTURE_269.png,GENIUS,59e7362fe75b450001a69349,27/05/1937,2020-09-12_09h03.26.260,proactive3.2,2020.1.2,MacIntel,60,5f5adea66120081ea0f57a61,5f5c80b12cde2b45a77321c4,2,,,,,,chameleon,0,0,0,0,1,,,,,,,,,,,,,,,,,,,,,,,,,,,,,,,,,,,,,,,,,,,,,,,,,,,,,,,,,,,,,,,,,,,,,,,,,,,,,,,,,,
,,LOSS,4.269,1,,,,,,stimuli/images/PICTURE_378.png,LOSS,59e7362fe75b450001a69349,27/05/1937,2020-09-12_09h03.26.260,proactive3.2,2020.1.2,MacIntel,60,5f5adea66120081ea0f57a61,5f5c80b12cde2b45a77321c4,2,,,,,,lobster,0,1,1,2,1,,,,,,,,,,,,,,,,,,,,,,,,,,,,,,,,,,,,,,,,,,,,,,,,,,,,,,,,,,,,,,,,,,,,,,,,,,,,,,,,,,
,,KILLER,4.77,1,,,,,,stimuli/images/PICTURE_697.png,KILLER,59e7362fe75b450001a69349,27/05/1937,2020-09-12_09h03.26.260,proactive3.2,2020.1.2,MacIntel,60,5f5adea66120081ea0f57a61,5f5c80b12cde2b45a77321c4,2,,,,,,peach,0,2,2,4,1,,,,,,,,,,,,,,,,,,,,,,,,,,,,,,,,,,,,,,,,,,,,,,,,,,,,,,,,,,,,,,,,,,,,,,,,,,,,,,,,,,
,,CELL,4.52,1,,,,,,stimuli/images/PICTURE_727.png,CELL,59e7362fe75b450001a69349,27/05/1937,2020-09-12_09h03.26.260,proactive3.2,2020.1.2,MacIntel,60,5f5adea66120081ea0f57a61,5f5c80b12cde2b45a77321c4,2,,,,,,hose,0,3,3,1,1,,,,,,,,,,,,,,,,,,,,,,,,,,,,,,,,,,,,,,,,,,,,,,,,,,,,,,,,,,,,,,,,,,,,,,,,,,,,,,,,,,
,,DEVIL,5.153,1,,,,,,stimuli/images/PICTURE_658.png,DEVIL,59e7362fe75b450001a69349,27/05/1937,2020-09-12_09h03.26.260,proactive3.2,2020.1.2,MacIntel,60,5f5adea66120081ea0f57a61,5f5c80b12cde2b45a77321c4,2,,,,,,crow,0,4,4,3,1,,,,,,,,,,,,,,,,,,,,,,,,,,,,,,,,,,,,,,,,,,,,,,,,,,,,,,,,,,,,,,,,,,,,,,,,,,,,,,,,,,
,,,,,,,,,,stimuli/images/PICTURE_296.png,CLOCK,59e7362fe75b450001a69349,27/05/1937,2020-09-12_09h03.26.260,proactive3.2,2020.1.2,MacIntel,60,5f5adea66120081ea0f57a61,5f5c80b12cde2b45a77321c4,2,,,,,,bolt,,,,,,0,0,0,18,1,2,2,,,,,,,,,,,,,,,,,,,,,,,,,,,,,,,,,,,,,,,,,,,,,,,,,,,,,,,,,,,,,,,,,,,,,,,,,,,
,,,,,,,,,,stimuli/images/PICTURE_177.png,HOUSE,59e7362fe75b450001a69349,27/05/1937,2020-09-12_09h03.26.260,proactive3.2,2020.1.2,MacIntel,60,5f5adea66120081ea0f57a61,5f5c80b12cde2b45a77321c4,2,,,,,,mushroom,,,,,,0,1,1,25,1,3,2,,,,,,,,,,,,,,,,,,,,,,,,,,,,,,,,,,,,,,,,,,,,,,,,,,,,,,,,,,,,,,,,,,,,,,,,,,,
,,,,,,,,,,stimuli/images/PICTURE_405.png,HOUSE,59e7362fe75b450001a69349,27/05/1937,2020-09-12_09h03.26.260,proactive3.2,2020.1.2,MacIntel,60,5f5adea66120081ea0f57a61,5f5c80b12cde2b45a77321c4,2,,,,,,anchor,,,,,,0,2,2,2,1,1,2,,,,,,,,,,,,,,,,,,,,,,,,,,,,,,,,,,,,,,,,,,,,,,,,,,,,,,,,,,,,,,,,,,,,,,,,,,,
,,,,,,,,,,stimuli/images/PICTURE_692.png,DUDE,59e7362fe75b450001a69349,27/05/1937,2020-09-12_09h03.26.260,proactive3.2,2020.1.2,MacIntel,60,5f5adea66120081ea0f57a61,5f5c80b12cde2b45a77321c4,2,,,,,,cherry,,,,,,0,3,3,47,1,5,2,,,,,,,,,,,,,,,,,,,,,,,,,,,,,,,,,,,,,,,,,,,,,,,,,,,,,,,,,,,,,,,,,,,,,,,,,,,
,,,,,,,,,,stimuli/images/PICTURE_708.png,VALLEY,59e7362fe75b450001a69349,27/05/1937,2020-09-12_09h03.26.260,proactive3.2,2020.1.2,MacIntel,60,5f5adea66120081ea0f57a61,5f5c80b12cde2b45a77321c4,2,,,,,,monkey,,,,,,0,4,4,45,1,5,2,,,,,,,,,,,,,,,,,,,,,,,,,,,,,,,,,,,,,,,,,,,,,,,,,,,,,,,,,,,,,,,,,,,,,,,,,,,
,,,,,,,,,,stimuli/images/PICTURE_215.png,LEADER,59e7362fe75b450001a69349,27/05/1937,2020-09-12_09h03.26.260,proactive3.2,2020.1.2,MacIntel,60,5f5adea66120081ea0f57a61,5f5c80b12cde2b45a77321c4,2,,,,,,boot,,,,,,0,5,5,43,1,5,2,,,,,,,,,,,,,,,,,,,,,,,,,,,,,,,,,,,,,,,,,,,,,,,,,,,,,,,,,,,,,,,,,,,,,,,,,,,
,,,,,,,,,,stimuli/images/PICTURE_403.png,FAMILY,59e7362fe75b450001a69349,27/05/1937,2020-09-12_09h03.26.260,proactive3.2,2020.1.2,MacIntel,60,5f5adea66120081ea0f57a61,5f5c80b12cde2b45a77321c4,2,,,,,,cathedral,,,,,,0,6,6,9,1,1,2,,,,,,,,,,,,,,,,,,,,,,,,,,,,,,,,,,,,,,,,,,,,,,,,,,,,,,,,,,,,,,,,,,,,,,,,,,,
,,,,,,,,,,stimuli/images/PICTURE_667.png,GLASS,59e7362fe75b450001a69349,27/05/1937,2020-09-12_09h03.26.260,proactive3.2,2020.1.2,MacIntel,60,5f5adea66120081ea0f57a61,5f5c80b12cde2b45a77321c4,2,,,,,,daisy,,,,,,0,7,7,27,1,3,2,,,,,,,,,,,,,,,,,,,,,,,,,,,,,,,,,,,,,,,,,,,,,,,,,,,,,,,,,,,,,,,,,,,,,,,,,,,
,,,,,,,,,,stimuli/images/PICTURE_491.png,SERIES,59e7362fe75b450001a69349,27/05/1937,2020-09-12_09h03.26.260,proactive3.2,2020.1.2,MacIntel,60,5f5adea66120081ea0f57a61,5f5c80b12cde2b45a77321c4,2,,,,,,rug,,,,,,0,8,8,39,1,4,2,,,,,,,,,,,,,,,,,,,,,,,,,,,,,,,,,,,,,,,,,,,,,,,,,,,,,,,,,,,,,,,,,,,,,,,,,,,
,,,,,,,,,,stimuli/images/PICTURE_57.png,NATION,59e7362fe75b450001a69349,27/05/1937,2020-09-12_09h03.26.260,proactive3.2,2020.1.2,MacIntel,60,5f5adea66120081ea0f57a61,5f5c80b12cde2b45a77321c4,2,,,,,,stamp,,,,,,0,9,9,21,1,3,2,,,,,,,,,,,,,,,,,,,,,,,,,,,,,,,,,,,,,,,,,,,,,,,,,,,,,,,,,,,,,,,,,,,,,,,,,,,
,,,,,,,,,,stimuli/images/PICTURE_677.png,PHOTO,59e7362fe75b450001a69349,27/05/1937,2020-09-12_09h03.26.260,proactive3.2,2020.1.2,MacIntel,60,5f5adea66120081ea0f57a61,5f5c80b12cde2b45a77321c4,2,,,,,,map,,,,,,0,10,10,14,1,2,2,,,,,,,,,,,,,,,,,,,,,,,,,,,,,,,,,,,,,,,,,,,,,,,,,,,,,,,,,,,,,,,,,,,,,,,,,,,
,,,,,,,,,,stimuli/images/PICTURE_509.png,BATH,59e7362fe75b450001a69349,27/05/1937,2020-09-12_09h03.26.260,proactive3.2,2020.1.2,MacIntel,60,5f5adea66120081ea0f57a61,5f5c80b12cde2b45a77321c4,2,,,,,,telephone,,,,,,0,11,11,15,1,2,2,,,,,,,,,,,,,,,,,,,,,,,,,,,,,,,,,,,,,,,,,,,,,,,,,,,,,,,,,,,,,,,,,,,,,,,,,,,
,,,,,,,,,,stimuli/images/PICTURE_654.png,YEAR,59e7362fe75b450001a69349,27/05/1937,2020-09-12_09h03.26.260,proactive3.2,2020.1.2,MacIntel,60,5f5adea66120081ea0f57a61,5f5c80b12cde2b45a77321c4,2,,,,,,pencil,,,,,,0,12,12,41,1,5,2,,,,,,,,,,,,,,,,,,,,,,,,,,,,,,,,,,,,,,,,,,,,,,,,,,,,,,,,,,,,,,,,,,,,,,,,,,,
,,,,,,,,,,stimuli/images/PICTURE_688.png,CLOCK,59e7362fe75b450001a69349,27/05/1937,2020-09-12_09h03.26.260,proactive3.2,2020.1.2,MacIntel,60,5f5adea66120081ea0f57a61,5f5c80b12cde2b45a77321c4,2,,,,,,runner,,,,,,0,13,13,42,1,5,2,,,,,,,,,,,,,,,,,,,,,,,,,,,,,,,,,,,,,,,,,,,,,,,,,,,,,,,,,,,,,,,,,,,,,,,,,,,
,,,,,,,,,,stimuli/images/PICTURE_2.png,YARD,59e7362fe75b450001a69349,27/05/1937,2020-09-12_09h03.26.260,proactive3.2,2020.1.2,MacIntel,60,5f5adea66120081ea0f57a61,5f5c80b12cde2b45a77321c4,2,,,,,,tyre,,,,,,0,14,14,55,1,6,2,,,,,,,,,,,,,,,,,,,,,,,,,,,,,,,,,,,,,,,,,,,,,,,,,,,,,,,,,,,,,,,,,,,,,,,,,,,
,,,,,,,,,,stimuli/images/PICTURE_750.png,POLICY,59e7362fe75b450001a69349,27/05/1937,2020-09-12_09h03.26.260,proactive3.2,2020.1.2,MacIntel,60,5f5adea66120081ea0f57a61,5f5c80b12cde2b45a77321c4,2,,,,,,kettle,,,,,,0,15,15,44,1,5,2,,,,,,,,,,,,,,,,,,,,,,,,,,,,,,,,,,,,,,,,,,,,,,,,,,,,,,,,,,,,,,,,,,,,,,,,,,,
,,,,,,,,,,stimuli/images/PICTURE_348.png,TOILET,59e7362fe75b450001a69349,27/05/1937,2020-09-12_09h03.26.260,proactive3.2,2020.1.2,MacIntel,60,5f5adea66120081ea0f57a61,5f5c80b12cde2b45a77321c4,2,,,,,,pepper,,,,,,0,16,16,4,1,1,2,,,,,,,,,,,,,,,,,,,,,,,,,,,,,,,,,,,,,,,,,,,,,,,,,,,,,,,,,,,,,,,,,,,,,,,,,,,
,,,,,,,,,,stimuli/images/PICTURE_405.png,JUNGLE,59e7362fe75b450001a69349,27/05/1937,2020-09-12_09h03.26.260,proactive3.2,2020.1.2,MacIntel,60,5f5adea66120081ea0f57a61,5f5c80b12cde2b45a77321c4,2,,,,,,anchor,,,,,,0,17,17,13,1,2,2,,,,,,,,,,,,,,,,,,,,,,,,,,,,,,,,,,,,,,,,,,,,,,,,,,,,,,,,,,,,,,,,,,,,,,,,,,,
,,,,,,,,,,stimuli/images/PICTURE_57.png,CASINO,59e7362fe75b450001a69349,27/05/1937,2020-09-12_09h03.26.260,proactive3.2,2020.1.2,MacIntel,60,5f5adea66120081ea0f57a61,5f5c80b12cde2b45a77321c4,2,,,,,,stamp,,,,,,0,18,18,12,1,2,2,,,,,,,,,,,,,,,,,,,,,,,,,,,,,,,,,,,,,,,,,,,,,,,,,,,,,,,,,,,,,,,,,,,,,,,,,,,
,,,,,,,,,,stimuli/images/PICTURE_348.png,DUDE,59e7362fe75b450001a69349,27/05/1937,2020-09-12_09h03.26.260,proactive3.2,2020.1.2,MacIntel,60,5f5adea66120081ea0f57a61,5f5c80b12cde2b45a77321c4,2,,,,,,pepper,,,,,,0,19,19,59,1,6,2,,,,,,,,,,,,,,,,,,,,,,,,,,,,,,,,,,,,,,,,,,,,,,,,,,,,,,,,,,,,,,,,,,,,,,,,,,,
,,,,,,,,,,stimuli/images/PICTURE_470.png,BEAUTY,59e7362fe75b450001a69349,27/05/1937,2020-09-12_09h03.26.260,proactive3.2,2020.1.2,MacIntel,60,5f5adea66120081ea0f57a61,5f5c80b12cde2b45a77321c4,2,,,,,,motorbike,,,,,,0,20,20,26,1,3,2,,,,,,,,,,,,,,,,,,,,,,,,,,,,,,,,,,,,,,,,,,,,,,,,,,,,,,,,,,,,,,,,,,,,,,,,,,,
,,,,,,,,,,stimuli/images/PICTURE_147.png,LEADER,59e7362fe75b450001a69349,27/05/1937,2020-09-12_09h03.26.260,proactive3.2,2020.1.2,MacIntel,60,5f5adea66120081ea0f57a61,5f5c80b12cde2b45a77321c4,2,,,,,,hanger,,,,,,0,21,21,33,1,4,2,,,,,,,,,,,,,,,,,,,,,,,,,,,,,,,,,,,,,,,,,,,,,,,,,,,,,,,,,,,,,,,,,,,,,,,,,,,
,,,,,,,,,,stimuli/images/PICTURE_215.png,FOOD,59e7362fe75b450001a69349,27/05/1937,2020-09-12_09h03.26.260,proactive3.2,2020.1.2,MacIntel,60,5f5adea66120081ea0f57a61,5f5c80b12cde2b45a77321c4,2,,,,,,boot,,,,,,0,22,22,5,1,1,2,,,,,,,,,,,,,,,,,,,,,,,,,,,,,,,,,,,,,,,,,,,,,,,,,,,,,,,,,,,,,,,,,,,,,,,,,,,
,,,,,,,,,,stimuli/images/PICTURE_311.png,TOILET,59e7362fe75b450001a69349,27/05/1937,2020-09-12_09h03.26.260,proactive3.2,2020.1.2,MacIntel,60,5f5adea66120081ea0f57a61,5f5c80b12cde2b45a77321c4,2,,,,,,razor,,,,,,0,23,23,54,1,6,2,,,,,,,,,,,,,,,,,,,,,,,,,,,,,,,,,,,,,,,,,,,,,,,,,,,,,,,,,,,,,,,,,,,,,,,,,,,
,,,,,,,,,,stimuli/images/PICTURE_18.png,RIVER,59e7362fe75b450001a69349,27/05/1937,2020-09-12_09h03.26.260,proactive3.2,2020.1.2,MacIntel,60,5f5adea66120081ea0f57a61,5f5c80b12cde2b45a77321c4,2,,,,,,planet,,,,,,0,24,24,22,1,3,2,,,,,,,,,,,,,,,,,,,,,,,,,,,,,,,,,,,,,,,,,,,,,,,,,,,,,,,,,,,,,,,,,,,,,,,,,,,
,,,,,,,,,,stimuli/images/PICTURE_677.png,FAMILY,59e7362fe75b450001a69349,27/05/1937,2020-09-12_09h03.26.260,proactive3.2,2020.1.2,MacIntel,60,5f5adea66120081ea0f57a61,5f5c80b12cde2b45a77321c4,2,,,,,,map,,,,,,0,25,25,53,1,6,2,,,,,,,,,,,,,,,,,,,,,,,,,,,,,,,,,,,,,,,,,,,,,,,,,,,,,,,,,,,,,,,,,,,,,,,,,,,
,,,,,,,,,,stimuli/images/PICTURE_32.png,LETTER,59e7362fe75b450001a69349,27/05/1937,2020-09-12_09h03.26.260,proactive3.2,2020.1.2,MacIntel,60,5f5adea66120081ea0f57a61,5f5c80b12cde2b45a77321c4,2,,,,,,crown,,,,,,0,26,26,56,1,6,2,,,,,,,,,,,,,,,,,,,,,,,,,,,,,,,,,,,,,,,,,,,,,,,,,,,,,,,,,,,,,,,,,,,,,,,,,,,
,,,,,,,,,,stimuli/images/PICTURE_509.png,MILLER,59e7362fe75b450001a69349,27/05/1937,2020-09-12_09h03.26.260,proactive3.2,2020.1.2,MacIntel,60,5f5adea66120081ea0f57a61,5f5c80b12cde2b45a77321c4,2,,,,,,telephone,,,,,,0,27,27,49,1,5,2,,,,,,,,,,,,,,,,,,,,,,,,,,,,,,,,,,,,,,,,,,,,,,,,,,,,,,,,,,,,,,,,,,,,,,,,,,,
,,,,,,,,,,stimuli/images/PICTURE_405.png,JUNGLE,59e7362fe75b450001a69349,27/05/1937,2020-09-12_09h03.26.260,proactive3.2,2020.1.2,MacIntel,60,5f5adea66120081ea0f57a61,5f5c80b12cde2b45a77321c4,2,,,,,,anchor,,,,,,0,28,28,58,1,6,2,,,,,,,,,,,,,,,,,,,,,,,,,,,,,,,,,,,,,,,,,,,,,,,,,,,,,,,,,,,,,,,,,,,,,,,,,,,
,,,,,,,,,,stimuli/images/PICTURE_509.png,APPLE,59e7362fe75b450001a69349,27/05/1937,2020-09-12_09h03.26.260,proactive3.2,2020.1.2,MacIntel,60,5f5adea66120081ea0f57a61,5f5c80b12cde2b45a77321c4,2,,,,,,telephone,,,,,,0,29,29,38,1,4,2,,,,,,,,,,,,,,,,,,,,,,,,,,,,,,,,,,,,,,,,,,,,,,,,,,,,,,,,,,,,,,,,,,,,,,,,,,,
,,,,,,,,,,stimuli/images/PICTURE_509.png,SHOTS,59e7362fe75b450001a69349,27/05/1937,2020-09-12_09h03.26.260,proactive3.2,2020.1.2,MacIntel,60,5f5adea66120081ea0f57a61,5f5c80b12cde2b45a77321c4,2,,,,,,telephone,,,,,,0,30,30,7,1,1,2,,,,,,,,,,,,,,,,,,,,,,,,,,,,,,,,,,,,,,,,,,,,,,,,,,,,,,,,,,,,,,,,,,,,,,,,,,,
,,,,,,,,,,stimuli/images/PICTURE_123.png,SALE,59e7362fe75b450001a69349,27/05/1937,2020-09-12_09h03.26.260,proactive3.2,2020.1.2,MacIntel,60,5f5adea66120081ea0f57a61,5f5c80b12cde2b45a77321c4,2,,,,,,dart,,,,,,0,31,31,8,1,1,2,,,,,,,,,,,,,,,,,,,,,,,,,,,,,,,,,,,,,,,,,,,,,,,,,,,,,,,,,,,,,,,,,,,,,,,,,,,
,,,,,,,,,,stimuli/images/PICTURE_327.png,LEADER,59e7362fe75b450001a69349,27/05/1937,2020-09-12_09h03.26.260,proactive3.2,2020.1.2,MacIntel,60,5f5adea66120081ea0f57a61,5f5c80b12cde2b45a77321c4,2,,,,,,helmet,,,,,,0,32,32,17,1,2,2,,,,,,,,,,,,,,,,,,,,,,,,,,,,,,,,,,,,,,,,,,,,,,,,,,,,,,,,,,,,,,,,,,,,,,,,,,,
,,,,,,,,,,stimuli/images/PICTURE_654.png,COPS,59e7362fe75b450001a69349,27/05/1937,2020-09-12_09h03.26.260,proactive3.2,2020.1.2,MacIntel,60,5f5adea66120081ea0f57a61,5f5c80b12cde2b45a77321c4,2,,,,,,pencil,,,,,,0,33,33,10,1,2,2,,,,,,,,,,,,,,,,,,,,,,,,,,,,,,,,,,,,,,,,,,,,,,,,,,,,,,,,,,,,,,,,,,,,,,,,,,,
,,,,,,,,,,stimuli/images/PICTURE_297.png,BODY,59e7362fe75b450001a69349,27/05/1937,2020-09-12_09h03.26.260,proactive3.2,2020.1.2,MacIntel,60,5f5adea66120081ea0f57a61,5f5c80b12cde2b45a77321c4,2,,,,,,aeroplane,,,,,,0,34,34,51,1,6,2,,,,,,,,,,,,,,,,,,,,,,,,,,,,,,,,,,,,,,,,,,,,,,,,,,,,,,,,,,,,,,,,,,,,,,,,,,,
,,,,,,,,,,stimuli/images/PICTURE_487.png,ROOF,59e7362fe75b450001a69349,27/05/1937,2020-09-12_09h03.26.260,proactive3.2,2020.1.2,MacIntel,60,5f5adea66120081ea0f57a61,5f5c80b12cde2b45a77321c4,2,,,,,,basket,,,,,,0,35,35,50,1,6,2,,,,,,,,,,,,,,,,,,,,,,,,,,,,,,,,,,,,,,,,,,,,,,,,,,,,,,,,,,,,,,,,,,,,,,,,,,,
,,,,,,,,,,stimuli/images/PICTURE_453.png,FAMILY,59e7362fe75b450001a69349,27/05/1937,2020-09-12_09h03.26.260,proactive3.2,2020.1.2,MacIntel,60,5f5adea66120081ea0f57a61,5f5c80b12cde2b45a77321c4,2,,,,,,scissors,,,,,,0,36,36,48,1,5,2,,,,,,,,,,,,,,,,,,,,,,,,,,,,,,,,,,,,,,,,,,,,,,,,,,,,,,,,,,,,,,,,,,,,,,,,,,,
,,,,,,,,,,stimuli/images/PICTURE_255.png,PENNY,59e7362fe75b450001a69349,27/05/1937,2020-09-12_09h03.26.260,proactive3.2,2020.1.2,MacIntel,60,5f5adea66120081ea0f57a61,5f5c80b12cde2b45a77321c4,2,,,,,,shovel,,,,,,0,37,37,19,1,2,2,,,,,,,,,,,,,,,,,,,,,,,,,,,,,,,,,,,,,,,,,,,,,,,,,,,,,,,,,,,,,,,,,,,,,,,,,,,
,,,,,,,,,,stimuli/images/PICTURE_2.png,JUNGLE,59e7362fe75b450001a69349,27/05/1937,2020-09-12_09h03.26.260,proactive3.2,2020.1.2,MacIntel,60,5f5adea66120081ea0f57a61,5f5c80b12cde2b45a77321c4,2,,,,,,tyre,,,,,,0,38,38,1,1,1,2,,,,,,,,,,,,,,,,,,,,,,,,,,,,,,,,,,,,,,,,,,,,,,,,,,,,,,,,,,,,,,,,,,,,,,,,,,,
,,,,,,,,,,stimuli/images/PICTURE_57.png,CANDY,59e7362fe75b450001a69349,27/05/1937,2020-09-12_09h03.26.260,proactive3.2,2020.1.2,MacIntel,60,5f5adea66120081ea0f57a61,5f5c80b12cde2b45a77321c4,2,,,,,,stamp,,,,,,0,39,39,52,1,6,2,,,,,,,,,,,,,,,,,,,,,,,,,,,,,,,,,,,,,,,,,,,,,,,,,,,,,,,,,,,,,,,,,,,,,,,,,,,
,,,,,,,,,,stimuli/images/PICTURE_33.png,COPS,59e7362fe75b450001a69349,27/05/1937,2020-09-12_09h03.26.260,proactive3.2,2020.1.2,MacIntel,60,5f5adea66120081ea0f57a61,5f5c80b12cde2b45a77321c4,2,,,,,,frame,,,,,,0,40,40,29,1,3,2,,,,,,,,,,,,,,,,,,,,,,,,,,,,,,,,,,,,,,,,,,,,,,,,,,,,,,,,,,,,,,,,,,,,,,,,,,,
,,,,,,,,,,stimuli/images/PICTURE_285.png,PRINCE,59e7362fe75b450001a69349,27/05/1937,2020-09-12_09h03.26.260,proactive3.2,2020.1.2,MacIntel,60,5f5adea66120081ea0f57a61,5f5c80b12cde2b45a77321c4,2,,,,,,carrot,,,,,,0,41,41,20,1,3,2,,,,,,,,,,,,,,,,,,,,,,,,,,,,,,,,,,,,,,,,,,,,,,,,,,,,,,,,,,,,,,,,,,,,,,,,,,,
,,,,,,,,,,stimuli/images/PICTURE_504.png,HOUSE,59e7362fe75b450001a69349,27/05/1937,2020-09-12_09h03.26.260,proactive3.2,2020.1.2,MacIntel,60,5f5adea66120081ea0f57a61,5f5c80b12cde2b45a77321c4,2,,,,,,wheel,,,,,,0,42,42,36,1,4,2,,,,,,,,,,,,,,,,,,,,,,,,,,,,,,,,,,,,,,,,,,,,,,,,,,,,,,,,,,,,,,,,,,,,,,,,,,,
,,,,,,,,,,stimuli/images/PICTURE_160.png,HOTEL,59e7362fe75b450001a69349,27/05/1937,2020-09-12_09h03.26.260,proactive3.2,2020.1.2,MacIntel,60,5f5adea66120081ea0f57a61,5f5c80b12cde2b45a77321c4,2,,,,,,wheelbarrow,,,,,,0,43,43,16,1,2,2,,,,,,,,,,,,,,,,,,,,,,,,,,,,,,,,,,,,,,,,,,,,,,,,,,,,,,,,,,,,,,,,,,,,,,,,,,,
,,,,,,,,,,stimuli/images/PICTURE_487.png,POLICY,59e7362fe75b450001a69349,27/05/1937,2020-09-12_09h03.26.260,proactive3.2,2020.1.2,MacIntel,60,5f5adea66120081ea0f57a61,5f5c80b12cde2b45a77321c4,2,,,,,,basket,,,,,,0,44,44,34,1,4,2,,,,,,,,,,,,,,,,,,,,,,,,,,,,,,,,,,,,,,,,,,,,,,,,,,,,,,,,,,,,,,,,,,,,,,,,,,,
,,,,,,,,,,stimuli/images/PICTURE_95.png,NIGHT,59e7362fe75b450001a69349,27/05/1937,2020-09-12_09h03.26.260,proactive3.2,2020.1.2,MacIntel,60,5f5adea66120081ea0f57a61,5f5c80b12cde2b45a77321c4,2,,,,,,suitcase,,,,,,0,45,45,37,1,4,2,,,,,,,,,,,,,,,,,,,,,,,,,,,,,,,,,,,,,,,,,,,,,,,,,,,,,,,,,,,,,,,,,,,,,,,,,,,
,,,,,,,,,,stimuli/images/PICTURE_655.png,SALE,59e7362fe75b450001a69349,27/05/1937,2020-09-12_09h03.26.260,proactive3.2,2020.1.2,MacIntel,60,5f5adea66120081ea0f57a61,5f5c80b12cde2b45a77321c4,2,,,,,,megaphone,,,,,,0,46,46,57,1,6,2,,,,,,,,,,,,,,,,,,,,,,,,,,,,,,,,,,,,,,,,,,,,,,,,,,,,,,,,,,,,,,,,,,,,,,,,,,,
,,,,,,,,,,stimuli/images/PICTURE_356.png,CANDY,59e7362fe75b450001a69349,27/05/1937,2020-09-12_09h03.26.260,proactive3.2,2020.1.2,MacIntel,60,5f5adea66120081ea0f57a61,5f5c80b12cde2b45a77321c4,2,,,,,,pawn,,,,,,0,47,47,46,1,5,2,,,,,,,,,,,,,,,,,,,,,,,,,,,,,,,,,,,,,,,,,,,,,,,,,,,,,,,,,,,,,,,,,,,,,,,,,,,
,,,,,,,,,,stimuli/images/PICTURE_2.png,AREA,59e7362fe75b450001a69349,27/05/1937,2020-09-12_09h03.26.260,proactive3.2,2020.1.2,MacIntel,60,5f5adea66120081ea0f57a61,5f5c80b12cde2b45a77321c4,2,,,,,,tyre,,,,,,0,48,48,32,1,4,2,,,,,,,,,,,,,,,,,,,,,,,,,,,,,,,,,,,,,,,,,,,,,,,,,,,,,,,,,,,,,,,,,,,,,,,,,,,
,,,,,,,,,,stimuli/images/PICTURE_314.png,SPEECH,59e7362fe75b450001a69349,27/05/1937,2020-09-12_09h03.26.260,proactive3.2,2020.1.2,MacIntel,60,5f5adea66120081ea0f57a61,5f5c80b12cde2b45a77321c4,2,,,,,,perfume,,,,,,0,49,49,35,1,4,2,,,,,,,,,,,,,,,,,,,,,,,,,,,,,,,,,,,,,,,,,,,,,,,,,,,,,,,,,,,,,,,,,,,,,,,,,,,
,,,,,,,,,,stimuli/images/PICTURE_215.png,BOYS,59e7362fe75b450001a69349,27/05/1937,2020-09-12_09h03.26.260,proactive3.2,2020.1.2,MacIntel,60,5f5adea66120081ea0f57a61,5f5c80b12cde2b45a77321c4,2,,,,,,boot,,,,,,0,50,50,24,1,3,2,,,,,,,,,,,,,,,,,,,,,,,,,,,,,,,,,,,,,,,,,,,,,,,,,,,,,,,,,,,,,,,,,,,,,,,,,,,
,,,,,,,,,,stimuli/images/PICTURE_470.png,MOMENT,59e7362fe75b450001a69349,27/05/1937,2020-09-12_09h03.26.260,proactive3.2,2020.1.2,MacIntel,60,5f5adea66120081ea0f57a61,5f5c80b12cde2b45a77321c4,2,,,,,,motorbike,,,,,,0,51,51,40,1,5,2,,,,,,,,,,,,,,,,,,,,,,,,,,,,,,,,,,,,,,,,,,,,,,,,,,,,,,,,,,,,,,,,,,,,,,,,,,,
,,,,,,,,,,stimuli/images/PICTURE_208.png,SPIRIT,59e7362fe75b450001a69349,27/05/1937,2020-09-12_09h03.26.260,proactive3.2,2020.1.2,MacIntel,60,5f5adea66120081ea0f57a61,5f5c80b12cde2b45a77321c4,2,,,,,,microphone,,,,,,0,52,52,28,1,3,2,,,,,,,,,,,,,,,,,,,,,,,,,,,,,,,,,,,,,,,,,,,,,,,,,,,,,,,,,,,,,,,,,,,,,,,,,,,
,,,,,,,,,,stimuli/images/PICTURE_141.png,CLIENT,59e7362fe75b450001a69349,27/05/1937,2020-09-12_09h03.26.260,proactive3.2,2020.1.2,MacIntel,60,5f5adea66120081ea0f57a61,5f5c80b12cde2b45a77321c4,2,,,,,,sunflower,,,,,,0,53,53,30,1,4,2,,,,,,,,,,,,,,,,,,,,,,,,,,,,,,,,,,,,,,,,,,,,,,,,,,,,,,,,,,,,,,,,,,,,,,,,,,,
,,,,,,,,,,stimuli/images/PICTURE_93.png,GIRL,59e7362fe75b450001a69349,27/05/1937,2020-09-12_09h03.26.260,proactive3.2,2020.1.2,MacIntel,60,5f5adea66120081ea0f57a61,5f5c80b12cde2b45a77321c4,2,,,,,,skateboard,,,,,,0,54,54,31,1,4,2,,,,,,,,,,,,,,,,,,,,,,,,,,,,,,,,,,,,,,,,,,,,,,,,,,,,,,,,,,,,,,,,,,,,,,,,,,,
,,,,,,,,,,stimuli/images/PICTURE_452.png,COPS,59e7362fe75b450001a69349,27/05/1937,2020-09-12_09h03.26.260,proactive3.2,2020.1.2,MacIntel,60,5f5adea66120081ea0f57a61,5f5c80b12cde2b45a77321c4,2,,,,,,watch,,,,,,0,55,55,0,1,1,2,,,,,,,,,,,,,,,,,,,,,,,,,,,,,,,,,,,,,,,,,,,,,,,,,,,,,,,,,,,,,,,,,,,,,,,,,,,
,,,,,,,,,,stimuli/images/PICTURE_285.png,WRITER,59e7362fe75b450001a69349,27/05/1937,2020-09-12_09h03.26.260,proactive3.2,2020.1.2,MacIntel,60,5f5adea66120081ea0f57a61,5f5c80b12cde2b45a77321c4,2,,,,,,carrot,,,,,,0,56,56,6,1,1,2,,,,,,,,,,,,,,,,,,,,,,,,,,,,,,,,,,,,,,,,,,,,,,,,,,,,,,,,,,,,,,,,,,,,,,,,,,,
,,,,,,,,,,stimuli/images/PICTURE_311.png,FLESH,59e7362fe75b450001a69349,27/05/1937,2020-09-12_09h03.26.260,proactive3.2,2020.1.2,MacIntel,60,5f5adea66120081ea0f57a61,5f5c80b12cde2b45a77321c4,2,,,,,,razor,,,,,,0,57,57,3,1,1,2,,,,,,,,,,,,,,,,,,,,,,,,,,,,,,,,,,,,,,,,,,,,,,,,,,,,,,,,,,,,,,,,,,,,,,,,,,,
,,,,,,,,,,stimuli/images/PICTURE_68.png,KIND,59e7362fe75b450001a69349,27/05/1937,2020-09-12_09h03.26.260,proactive3.2,2020.1.2,MacIntel,60,5f5adea66120081ea0f57a61,5f5c80b12cde2b45a77321c4,2,,,,,,candle,,,,,,0,58,58,23,1,3,2,,,,,,,,,,,,,,,,,,,,,,,,,,,,,,,,,,,,,,,,,,,,,,,,,,,,,,,,,,,,,,,,,,,,,,,,,,,
,,?,0,0,,,,,,stimuli/images/PICTURE_708.png,VALLEY,59e7362fe75b450001a69349,27/05/1937,2020-09-12_09h03.26.260,proactive3.2,2020.1.2,MacIntel,60,5f5adea66120081ea0f57a61,5f5c80b12cde2b45a77321c4,2,,,,,,monkey,,,,,,,,,,,5,2,0,0,0,45,1,,,,,,,,,,,,,,,,,,,,,,,,,,,,,,,,,,,,,,,,,,,,,,,,,,,,,,,,,,,,,,,,,,,,,,
,,?,0.001,0,,,,,,stimuli/images/PICTURE_667.png,GLASS,59e7362fe75b450001a69349,27/05/1937,2020-09-12_09h03.26.260,proactive3.2,2020.1.2,MacIntel,60,5f5adea66120081ea0f57a61,5f5c80b12cde2b45a77321c4,2,,,,,,daisy,,,,,,,,,,,3,2,0,1,1,27,1,,,,,,,,,,,,,,,,,,,,,,,,,,,,,,,,,,,,,,,,,,,,,,,,,,,,,,,,,,,,,,,,,,,,,,
,,?,0.001,0,,,,,,stimuli/images/PICTURE_509.png,APPLE,59e7362fe75b450001a69349,27/05/1937,2020-09-12_09h03.26.260,proactive3.2,2020.1.2,MacIntel,60,5f5adea66120081ea0f57a61,5f5c80b12cde2b45a77321c4,2,,,,,,telephone,,,,,,,,,,,4,2,0,2,2,38,1,,,,,,,,,,,,,,,,,,,,,,,,,,,,,,,,,,,,,,,,,,,,,,,,,,,,,,,,,,,,,,,,,,,,,,
,,?,0.001,0,,,,,,stimuli/images/PICTURE_215.png,LEADER,59e7362fe75b450001a69349,27/05/1937,2020-09-12_09h03.26.260,proactive3.2,2020.1.2,MacIntel,60,5f5adea66120081ea0f57a61,5f5c80b12cde2b45a77321c4,2,,,,,,boot,,,,,,,,,,,5,2,0,3,3,43,1,,,,,,,,,,,,,,,,,,,,,,,,,,,,,,,,,,,,,,,,,,,,,,,,,,,,,,,,,,,,,,,,,,,,,,
,,?,0.001,0,,,,,,stimuli/images/PICTURE_509.png,SHOTS,59e7362fe75b450001a69349,27/05/1937,2020-09-12_09h03.26.260,proactive3.2,2020.1.2,MacIntel,60,5f5adea66120081ea0f57a61,5f5c80b12cde2b45a77321c4,2,,,,,,telephone,,,,,,,,,,,1,2,0,4,4,7,1,,,,,,,,,,,,,,,,,,,,,,,,,,,,,,,,,,,,,,,,,,,,,,,,,,,,,,,,,,,,,,,,,,,,,,
,,?,0,0,,,,,,stimuli/images/PICTURE_504.png,HOUSE,59e7362fe75b450001a69349,27/05/1937,2020-09-12_09h03.26.260,proactive3.2,2020.1.2,MacIntel,60,5f5adea66120081ea0f57a61,5f5c80b12cde2b45a77321c4,2,,,,,,wheel,,,,,,,,,,,4,2,0,5,5,36,1,,,,,,,,,,,,,,,,,,,,,,,,,,,,,,,,,,,,,,,,,,,,,,,,,,,,,,,,,,,,,,,,,,,,,,
,,?,0,0,,,,,,stimuli/images/PICTURE_452.png,COPS,59e7362fe75b450001a69349,27/05/1937,2020-09-12_09h03.26.260,proactive3.2,2020.1.2,MacIntel,60,5f5adea66120081ea0f57a61,5f5c80b12cde2b45a77321c4,2,,,,,,watch,,,,,,,,,,,1,2,0,6,6,0,1,,,,,,,,,,,,,,,,,,,,,,,,,,,,,,,,,,,,,,,,,,,,,,,,,,,,,,,,,,,,,,,,,,,,,,
,,?,0,0,,,,,,stimuli/images/PICTURE_453.png,FAMILY,59e7362fe75b450001a69349,27/05/1937,2020-09-12_09h03.26.260,proactive3.2,2020.1.2,MacIntel,60,5f5adea66120081ea0f57a61,5f5c80b12cde2b45a77321c4,2,,,,,,scissors,,,,,,,,,,,5,2,0,7,7,48,1,,,,,,,,,,,,,,,,,,,,,,,,,,,,,,,,,,,,,,,,,,,,,,,,,,,,,,,,,,,,,,,,,,,,,,
,,?,0,0,,,,,,stimuli/images/PICTURE_57.png,CANDY,59e7362fe75b450001a69349,27/05/1937,2020-09-12_09h03.26.260,proactive3.2,2020.1.2,MacIntel,60,5f5adea66120081ea0f57a61,5f5c80b12cde2b45a77321c4,2,,,,,,stamp,,,,,,,,,,,6,2,0,8,8,52,1,,,,,,,,,,,,,,,,,,,,,,,,,,,,,,,,,,,,,,,,,,,,,,,,,,,,,,,,,,,,,,,,,,,,,,
,,CLOCK,5.324,0,,,,,,stimuli/images/PICTURE_509.png,BATH,59e7362fe75b450001a69349,27/05/1937,2020-09-12_09h03.26.260,proactive3.2,2020.1.2,MacIntel,60,5f5adea66120081ea0f57a61,5f5c80b12cde2b45a77321c4,2,,,,,,telephone,,,,,,,,,,,2,2,0,9,9,15,1,,,,,,,,,,,,,,,,,,,,,,,,,,,,,,,,,,,,,,,,,,,,,,,,,,,,,,,,,,,,,,,,,,,,,,
,,?,0.001,0,,,,,,stimuli/images/PICTURE_692.png,DUDE,59e7362fe75b450001a69349,27/05/1937,2020-09-12_09h03.26.260,proactive3.2,2020.1.2,MacIntel,60,5f5adea66120081ea0f57a61,5f5c80b12cde2b45a77321c4,2,,,,,,cherry,,,,,,,,,,,5,2,0,10,10,47,1,,,,,,,,,,,,,,,,,,,,,,,,,,,,,,,,,,,,,,,,,,,,,,,,,,,,,,,,,,,,,,,,,,,,,,
,,?,0.001,0,,,,,,stimuli/images/PICTURE_487.png,POLICY,59e7362fe75b450001a69349,27/05/1937,2020-09-12_09h03.26.260,proactive3.2,2020.1.2,MacIntel,60,5f5adea66120081ea0f57a61,5f5c80b12cde2b45a77321c4,2,,,,,,basket,,,,,,,,,,,4,2,0,11,11,34,1,,,,,,,,,,,,,,,,,,,,,,,,,,,,,,,,,,,,,,,,,,,,,,,,,,,,,,,,,,,,,,,,,,,,,,
,,CLOCK,7.32,1,,,,,,stimuli/images/PICTURE_296.png,CLOCK,59e7362fe75b450001a69349,27/05/1937,2020-09-12_09h03.26.260,proactive3.2,2020.1.2,MacIntel,60,5f5adea66120081ea0f57a61,5f5c80b12cde2b45a77321c4,2,,,,,,bolt,,,,,,,,,,,2,2,0,12,12,18,1,,,,,,,,,,,,,,,,,,,,,,,,,,,,,,,,,,,,,,,,,,,,,,,,,,,,,,,,,,,,,,,,,,,,,,
,,?,0.001,0,,,,,,stimuli/images/PICTURE_311.png,FLESH,59e7362fe75b450001a69349,27/05/1937,2020-09-12_09h03.26.260,proactive3.2,2020.1.2,MacIntel,60,5f5adea66120081ea0f57a61,5f5c80b12cde2b45a77321c4,2,,,,,,razor,,,,,,,,,,,1,2,0,13,13,3,1,,,,,,,,,,,,,,,,,,,,,,,,,,,,,,,,,,,,,,,,,,,,,,,,,,,,,,,,,,,,,,,,,,,,,,
,,?,0.001,0,,,,,,stimuli/images/PICTURE_177.png,HOUSE,59e7362fe75b450001a69349,27/05/1937,2020-09-12_09h03.26.260,proactive3.2,2020.1.2,MacIntel,60,5f5adea66120081ea0f57a61,5f5c80b12cde2b45a77321c4,2,,,,,,mushroom,,,,,,,,,,,3,2,0,14,14,25,1,,,,,,,,,,,,,,,,,,,,,,,,,,,,,,,,,,,,,,,,,,,,,,,,,,,,,,,,,,,,,,,,,,,,,,
,,PLENTY,7.554,0,,,,,,stimuli/images/PICTURE_255.png,PENNY,59e7362fe75b450001a69349,27/05/1937,2020-09-12_09h03.26.260,proactive3.2,2020.1.2,MacIntel,60,5f5adea66120081ea0f57a61,5f5c80b12cde2b45a77321c4,2,,,,,,shovel,,,,,,,,,,,2,2,0,15,15,19,1,,,,,,,,,,,,,,,,,,,,,,,,,,,,,,,,,,,,,,,,,,,,,,,,,,,,,,,,,,,,,,,,,,,,,,
,,?,0.002,0,,,,,,stimuli/images/PICTURE_68.png,KIND,59e7362fe75b450001a69349,27/05/1937,2020-09-12_09h03.26.260,proactive3.2,2020.1.2,MacIntel,60,5f5adea66120081ea0f57a61,5f5c80b12cde2b45a77321c4,2,,,,,,candle,,,,,,,,,,,3,2,0,16,16,23,1,,,,,,,,,,,,,,,,,,,,,,,,,,,,,,,,,,,,,,,,,,,,,,,,,,,,,,,,,,,,,,,,,,,,,,
,,?,0,0,,,,,,stimuli/images/PICTURE_487.png,ROOF,59e7362fe75b450001a69349,27/05/1937,2020-09-12_09h03.26.260,proactive3.2,2020.1.2,MacIntel,60,5f5adea66120081ea0f57a61,5f5c80b12cde2b45a77321c4,2,,,,,,basket,,,,,,,,,,,6,2,0,17,17,50,1,,,,,,,,,,,,,,,,,,,,,,,,,,,,,,,,,,,,,,,,,,,,,,,,,,,,,,,,,,,,,,,,,,,,,,
,,?,0,0,,,,,,stimuli/images/PICTURE_297.png,BODY,59e7362fe75b450001a69349,27/05/1937,2020-09-12_09h03.26.260,proactive3.2,2020.1.2,MacIntel,60,5f5adea66120081ea0f57a61,5f5c80b12cde2b45a77321c4,2,,,,,,aeroplane,,,,,,,,,,,6,2,0,18,18,51,1,,,,,,,,,,,,,,,,,,,,,,,,,,,,,,,,,,,,,,,,,,,,,,,,,,,,,,,,,,,,,,,,,,,,,,
,,?,0,0,,,,,,stimuli/images/PICTURE_285.png,WRITER,59e7362fe75b450001a69349,27/05/1937,2020-09-12_09h03.26.260,proactive3.2,2020.1.2,MacIntel,60,5f5adea66120081ea0f57a61,5f5c80b12cde2b45a77321c4,2,,,,,,carrot,,,,,,,,,,,1,2,0,19,19,6,1,,,,,,,,,,,,,,,,,,,,,,,,,,,,,,,,,,,,,,,,,,,,,,,,,,,,,,,,,,,,,,,,,,,,,,
,,COPS,5.013,1,,,,,,stimuli/images/PICTURE_654.png,COPS,59e7362fe75b450001a69349,27/05/1937,2020-09-12_09h03.26.260,proactive3.2,2020.1.2,MacIntel,60,5f5adea66120081ea0f57a61,5f5c80b12cde2b45a77321c4,2,,,,,,pencil,,,,,,,,,,,2,2,0,20,20,10,1,,,,,,,,,,,,,,,,,,,,,,,,,,,,,,,,,,,,,,,,,,,,,,,,,,,,,,,,,,,,,,,,,,,,,,
,,?,0.001,0,,,,,,stimuli/images/PICTURE_470.png,BEAUTY,59e7362fe75b450001a69349,27/05/1937,2020-09-12_09h03.26.260,proactive3.2,2020.1.2,MacIntel,60,5f5adea66120081ea0f57a61,5f5c80b12cde2b45a77321c4,2,,,,,,motorbike,,,,,,,,,,,3,2,0,21,21,26,1,,,,,,,,,,,,,,,,,,,,,,,,,,,,,,,,,,,,,,,,,,,,,,,,,,,,,,,,,,,,,,,,,,,,,,
,,?,0,0,,,,,,stimuli/images/PICTURE_285.png,PRINCE,59e7362fe75b450001a69349,27/05/1937,2020-09-12_09h03.26.260,proactive3.2,2020.1.2,MacIntel,60,5f5adea66120081ea0f57a61,5f5c80b12cde2b45a77321c4,2,,,,,,carrot,,,,,,,,,,,3,2,0,22,22,20,1,,,,,,,,,,,,,,,,,,,,,,,,,,,,,,,,,,,,,,,,,,,,,,,,,,,,,,,,,,,,,,,,,,,,,,
,,?,13.174,0,,,,,,stimuli/images/PICTURE_405.png,JUNGLE,59e7362fe75b450001a69349,27/05/1937,2020-09-12_09h03.26.260,proactive3.2,2020.1.2,MacIntel,60,5f5adea66120081ea0f57a61,5f5c80b12cde2b45a77321c4,2,,,,,,anchor,,,,,,,,,,,2,2,0,23,23,13,1,,,,,,,,,,,,,,,,,,,,,,,,,,,,,,,,,,,,,,,,,,,,,,,,,,,,,,,,,,,,,,,,,,,,,,
,,?,0,0,,,,,,stimuli/images/PICTURE_509.png,MILLER,59e7362fe75b450001a69349,27/05/1937,2020-09-12_09h03.26.260,proactive3.2,2020.1.2,MacIntel,60,5f5adea66120081ea0f57a61,5f5c80b12cde2b45a77321c4,2,,,,,,telephone,,,,,,,,,,,5,2,0,24,24,49,1,,,,,,,,,,,,,,,,,,,,,,,,,,,,,,,,,,,,,,,,,,,,,,,,,,,,,,,,,,,,,,,,,,,,,,
,,?,0,0,,,,,,stimuli/images/PICTURE_750.png,POLICY,59e7362fe75b450001a69349,27/05/1937,2020-09-12_09h03.26.260,proactive3.2,2020.1.2,MacIntel,60,5f5adea66120081ea0f57a61,5f5c80b12cde2b45a77321c4,2,,,,,,kettle,,,,,,,,,,,5,2,0,25,25,44,1,,,,,,,,,,,,,,,,,,,,,,,,,,,,,,,,,,,,,,,,,,,,,,,,,,,,,,,,,,,,,,,,,,,,,,
,,?,0,0,,,,,,stimuli/images/PICTURE_356.png,CANDY,59e7362fe75b450001a69349,27/05/1937,2020-09-12_09h03.26.260,proactive3.2,2020.1.2,MacIntel,60,5f5adea66120081ea0f57a61,5f5c80b12cde2b45a77321c4,2,,,,,,pawn,,,,,,,,,,,5,2,0,26,26,46,1,,,,,,,,,,,,,,,,,,,,,,,,,,,,,,,,,,,,,,,,,,,,,,,,,,,,,,,,,,,,,,,,,,,,,,
,,?,0.001,0,,,,,,stimuli/images/PICTURE_215.png,FOOD,59e7362fe75b450001a69349,27/05/1937,2020-09-12_09h03.26.260,proactive3.2,2020.1.2,MacIntel,60,5f5adea66120081ea0f57a61,5f5c80b12cde2b45a77321c4,2,,,,,,boot,,,,,,,,,,,1,2,0,27,27,5,1,,,,,,,,,,,,,,,,,,,,,,,,,,,,,,,,,,,,,,,,,,,,,,,,,,,,,,,,,,,,,,,,,,,,,,
,,?,0.001,0,,,,,,stimuli/images/PICTURE_123.png,SALE,59e7362fe75b450001a69349,27/05/1937,2020-09-12_09h03.26.260,proactive3.2,2020.1.2,MacIntel,60,5f5adea66120081ea0f57a61,5f5c80b12cde2b45a77321c4,2,,,,,,dart,,,,,,,,,,,1,2,0,28,28,8,1,,,,,,,,,,,,,,,,,,,,,,,,,,,,,,,,,,,,,,,,,,,,,,,,,,,,,,,,,,,,,,,,,,,,,,
,,?,6.166,0,,,,,,stimuli/images/PICTURE_327.png,LEADER,59e7362fe75b450001a69349,27/05/1937,2020-09-12_09h03.26.260,proactive3.2,2020.1.2,MacIntel,60,5f5adea66120081ea0f57a61,5f5c80b12cde2b45a77321c4,2,,,,,,helmet,,,,,,,,,,,2,2,0,29,29,17,1,,,,,,,,,,,,,,,,,,,,,,,,,,,,,,,,,,,,,,,,,,,,,,,,,,,,,,,,,,,,,,,,,,,,,,
,,?,0.001,0,,,,,,stimuli/images/PICTURE_491.png,SERIES,59e7362fe75b450001a69349,27/05/1937,2020-09-12_09h03.26.260,proactive3.2,2020.1.2,MacIntel,60,5f5adea66120081ea0f57a61,5f5c80b12cde2b45a77321c4,2,,,,,,rug,,,,,,,,,,,4,2,0,30,30,39,1,,,,,,,,,,,,,,,,,,,,,,,,,,,,,,,,,,,,,,,,,,,,,,,,,,,,,,,,,,,,,,,,,,,,,,
,,?,0.001,0,,,,,,stimuli/images/PICTURE_33.png,COPS,59e7362fe75b450001a69349,27/05/1937,2020-09-12_09h03.26.260,proactive3.2,2020.1.2,MacIntel,60,5f5adea66120081ea0f57a61,5f5c80b12cde2b45a77321c4,2,,,,,,frame,,,,,,,,,,,3,2,0,31,31,29,1,,,,,,,,,,,,,,,,,,,,,,,,,,,,,,,,,,,,,,,,,,,,,,,,,,,,,,,,,,,,,,,,,,,,,,
,,?,0.001,0,,,,,,stimuli/images/PICTURE_95.png,NIGHT,59e7362fe75b450001a69349,27/05/1937,2020-09-12_09h03.26.260,proactive3.2,2020.1.2,MacIntel,60,5f5adea66120081ea0f57a61,5f5c80b12cde2b45a77321c4,2,,,,,,suitcase,,,,,,,,,,,4,2,0,32,32,37,1,,,,,,,,,,,,,,,,,,,,,,,,,,,,,,,,,,,,,,,,,,,,,,,,,,,,,,,,,,,,,,,,,,,,,,
,,?,0.001,0,,,,,,stimuli/images/PICTURE_32.png,LETTER,59e7362fe75b450001a69349,27/05/1937,2020-09-12_09h03.26.260,proactive3.2,2020.1.2,MacIntel,60,5f5adea66120081ea0f57a61,5f5c80b12cde2b45a77321c4,2,,,,,,crown,,,,,,,,,,,6,2,0,33,33,56,1,,,,,,,,,,,,,,,,,,,,,,,,,,,,,,,,,,,,,,,,,,,,,,,,,,,,,,,,,,,,,,,,,,,,,,
,,?,0.001,0,,,,,,stimuli/images/PICTURE_215.png,BOYS,59e7362fe75b450001a69349,27/05/1937,2020-09-12_09h03.26.260,proactive3.2,2020.1.2,MacIntel,60,5f5adea66120081ea0f57a61,5f5c80b12cde2b45a77321c4,2,,,,,,boot,,,,,,,,,,,3,2,0,34,34,24,1,,,,,,,,,,,,,,,,,,,,,,,,,,,,,,,,,,,,,,,,,,,,,,,,,,,,,,,,,,,,,,,,,,,,,,
,,PHOTO,7.949,1,,,,,,stimuli/images/PICTURE_677.png,PHOTO,59e7362fe75b450001a69349,27/05/1937,2020-09-12_09h03.26.260,proactive3.2,2020.1.2,MacIntel,60,5f5adea66120081ea0f57a61,5f5c80b12cde2b45a77321c4,2,,,,,,map,,,,,,,,,,,2,2,0,35,35,14,1,,,,,,,,,,,,,,,,,,,,,,,,,,,,,,,,,,,,,,,,,,,,,,,,,,,,,,,,,,,,,,,,,,,,,,
,,?,0,0,,,,,,stimuli/images/PICTURE_405.png,JUNGLE,59e7362fe75b450001a69349,27/05/1937,2020-09-12_09h03.26.260,proactive3.2,2020.1.2,MacIntel,60,5f5adea66120081ea0f57a61,5f5c80b12cde2b45a77321c4,2,,,,,,anchor,,,,,,,,,,,6,2,0,36,36,58,1,,,,,,,,,,,,,,,,,,,,,,,,,,,,,,,,,,,,,,,,,,,,,,,,,,,,,,,,,,,,,,,,,,,,,,
,,?,0,0,,,,,,stimuli/images/PICTURE_655.png,SALE,59e7362fe75b450001a69349,27/05/1937,2020-09-12_09h03.26.260,proactive3.2,2020.1.2,MacIntel,60,5f5adea66120081ea0f57a61,5f5c80b12cde2b45a77321c4,2,,,,,,megaphone,,,,,,,,,,,6,2,0,37,37,57,1,,,,,,,,,,,,,,,,,,,,,,,,,,,,,,,,,,,,,,,,,,,,,,,,,,,,,,,,,,,,,,,,,,,,,,
,,?,0,0,,,,,,stimuli/images/PICTURE_348.png,TOILET,59e7362fe75b450001a69349,27/05/1937,2020-09-12_09h03.26.260,proactive3.2,2020.1.2,MacIntel,60,5f5adea66120081ea0f57a61,5f5c80b12cde2b45a77321c4,2,,,,,,pepper,,,,,,,,,,,1,2,0,38,38,4,1,,,,,,,,,,,,,,,,,,,,,,,,,,,,,,,,,,,,,,,,,,,,,,,,,,,,,,,,,,,,,,,,,,,,,,
,,?,0,0,,,,,,stimuli/images/PICTURE_314.png,SPEECH,59e7362fe75b450001a69349,27/05/1937,2020-09-12_09h03.26.260,proactive3.2,2020.1.2,MacIntel,60,5f5adea66120081ea0f57a61,5f5c80b12cde2b45a77321c4,2,,,,,,perfume,,,,,,,,,,,4,2,0,39,39,35,1,,,,,,,,,,,,,,,,,,,,,,,,,,,,,,,,,,,,,,,,,,,,,,,,,,,,,,,,,,,,,,,,,,,,,,
,,?,0,0,,,,,,stimuli/images/PICTURE_470.png,MOMENT,59e7362fe75b450001a69349,27/05/1937,2020-09-12_09h03.26.260,proactive3.2,2020.1.2,MacIntel,60,5f5adea66120081ea0f57a61,5f5c80b12cde2b45a77321c4,2,,,,,,motorbike,,,,,,,,,,,5,2,0,40,40,40,1,,,,,,,,,,,,,,,,,,,,,,,,,,,,,,,,,,,,,,,,,,,,,,,,,,,,,,,,,,,,,,,,,,,,,,
,,?,2.379,0,,,,,,stimuli/images/PICTURE_57.png,CASINO,59e7362fe75b450001a69349,27/05/1937,2020-09-12_09h03.26.260,proactive3.2,2020.1.2,MacIntel,60,5f5adea66120081ea0f57a61,5f5c80b12cde2b45a77321c4,2,,,,,,stamp,,,,,,,,,,,2,2,0,41,41,12,1,,,,,,,,,,,,,,,,,,,,,,,,,,,,,,,,,,,,,,,,,,,,,,,,,,,,,,,,,,,,,,,,,,,,,,
,,PLENTY,6.788,1,,,,,,stimuli/images/PICTURE_564.png,PLENTY,59e7362fe75b450001a69349,27/05/1937,2020-09-12_09h03.26.260,proactive3.2,2020.1.2,MacIntel,60,5f5adea66120081ea0f57a61,5f5c80b12cde2b45a77321c4,2,,,,,,spoon,,,,,,,,,,,2,2,0,42,42,11,1,,,,,,,,,,,,,,,,,,,,,,,,,,,,,,,,,,,,,,,,,,,,,,,,,,,,,,,,,,,,,,,,,,,,,,
,,?,0.001,0,,,,,,stimuli/images/PICTURE_2.png,JUNGLE,59e7362fe75b450001a69349,27/05/1937,2020-09-12_09h03.26.260,proactive3.2,2020.1.2,MacIntel,60,5f5adea66120081ea0f57a61,5f5c80b12cde2b45a77321c4,2,,,,,,tyre,,,,,,,,,,,1,2,0,43,43,1,1,,,,,,,,,,,,,,,,,,,,,,,,,,,,,,,,,,,,,,,,,,,,,,,,,,,,,,,,,,,,,,,,,,,,,,
,,?,0,0,,,,,,stimuli/images/PICTURE_57.png,NATION,59e7362fe75b450001a69349,27/05/1937,2020-09-12_09h03.26.260,proactive3.2,2020.1.2,MacIntel,60,5f5adea66120081ea0f57a61,5f5c80b12cde2b45a77321c4,2,,,,,,stamp,,,,,,,,,,,3,2,0,44,44,21,1,,,,,,,,,,,,,,,,,,,,,,,,,,,,,,,,,,,,,,,,,,,,,,,,,,,,,,,,,,,,,,,,,,,,,,
,,?,0,0,,,,,,stimuli/images/PICTURE_405.png,HOUSE,59e7362fe75b450001a69349,27/05/1937,2020-09-12_09h03.26.260,proactive3.2,2020.1.2,MacIntel,60,5f5adea66120081ea0f57a61,5f5c80b12cde2b45a77321c4,2,,,,,,anchor,,,,,,,,,,,1,2,0,45,45,2,1,,,,,,,,,,,,,,,,,,,,,,,,,,,,,,,,,,,,,,,,,,,,,,,,,,,,,,,,,,,,,,,,,,,,,,
,,HOTEL,5.5,1,,,,,,stimuli/images/PICTURE_160.png,HOTEL,59e7362fe75b450001a69349,27/05/1937,2020-09-12_09h03.26.260,proactive3.2,2020.1.2,MacIntel,60,5f5adea66120081ea0f57a61,5f5c80b12cde2b45a77321c4,2,,,,,,wheelbarrow,,,,,,,,,,,2,2,0,46,46,16,1,,,,,,,,,,,,,,,,,,,,,,,,,,,,,,,,,,,,,,,,,,,,,,,,,,,,,,,,,,,,,,,,,,,,,,
,,?,0.001,0,,,,,,stimuli/images/PICTURE_403.png,FAMILY,59e7362fe75b450001a69349,27/05/1937,2020-09-12_09h03.26.260,proactive3.2,2020.1.2,MacIntel,60,5f5adea66120081ea0f57a61,5f5c80b12cde2b45a77321c4,2,,,,,,cathedral,,,,,,,,,,,1,2,0,47,47,9,1,,,,,,,,,,,,,,,,,,,,,,,,,,,,,,,,,,,,,,,,,,,,,,,,,,,,,,,,,,,,,,,,,,,,,,
,,?,0.001,0,,,,,,stimuli/images/PICTURE_208.png,SPIRIT,59e7362fe75b450001a69349,27/05/1937,2020-09-12_09h03.26.260,proactive3.2,2020.1.2,MacIntel,60,5f5adea66120081ea0f57a61,5f5c80b12cde2b45a77321c4,2,,,,,,microphone,,,,,,,,,,,3,2,0,48,48,28,1,,,,,,,,,,,,,,,,,,,,,,,,,,,,,,,,,,,,,,,,,,,,,,,,,,,,,,,,,,,,,,,,,,,,,,
,,?,0,0,,,,,,stimuli/images/PICTURE_93.png,GIRL,59e7362fe75b450001a69349,27/05/1937,2020-09-12_09h03.26.260,proactive3.2,2020.1.2,MacIntel,60,5f5adea66120081ea0f57a61,5f5c80b12cde2b45a77321c4,2,,,,,,skateboard,,,,,,,,,,,4,2,0,49,49,31,1,,,,,,,,,,,,,,,,,,,,,,,,,,,,,,,,,,,,,,,,,,,,,,,,,,,,,,,,,,,,,,,,,,,,,,
,,?,0.001,0,,,,,,stimuli/images/PICTURE_141.png,CLIENT,59e7362fe75b450001a69349,27/05/1937,2020-09-12_09h03.26.260,proactive3.2,2020.1.2,MacIntel,60,5f5adea66120081ea0f57a61,5f5c80b12cde2b45a77321c4,2,,,,,,sunflower,,,,,,,,,,,4,2,0,50,50,30,1,,,,,,,,,,,,,,,,,,,,,,,,,,,,,,,,,,,,,,,,,,,,,,,,,,,,,,,,,,,,,,,,,,,,,,
,,?,0,0,,,,,,stimuli/images/PICTURE_688.png,CLOCK,59e7362fe75b450001a69349,27/05/1937,2020-09-12_09h03.26.260,proactive3.2,2020.1.2,MacIntel,60,5f5adea66120081ea0f57a61,5f5c80b12cde2b45a77321c4,2,,,,,,runner,,,,,,,,,,,5,2,0,51,51,42,1,,,,,,,,,,,,,,,,,,,,,,,,,,,,,,,,,,,,,,,,,,,,,,,,,,,,,,,,,,,,,,,,,,,,,,
,,?,0,0,,,,,,stimuli/images/PICTURE_18.png,RIVER,59e7362fe75b450001a69349,27/05/1937,2020-09-12_09h03.26.260,proactive3.2,2020.1.2,MacIntel,60,5f5adea66120081ea0f57a61,5f5c80b12cde2b45a77321c4,2,,,,,,planet,,,,,,,,,,,3,2,0,52,52,22,1,,,,,,,,,,,,,,,,,,,,,,,,,,,,,,,,,,,,,,,,,,,,,,,,,,,,,,,,,,,,,,,,,,,,,,
,,?,0,0,,,,,,stimuli/images/PICTURE_147.png,LEADER,59e7362fe75b450001a69349,27/05/1937,2020-09-12_09h03.26.260,proactive3.2,2020.1.2,MacIntel,60,5f5adea66120081ea0f57a61,5f5c80b12cde2b45a77321c4,2,,,,,,hanger,,,,,,,,,,,4,2,0,53,53,33,1,,,,,,,,,,,,,,,,,,,,,,,,,,,,,,,,,,,,,,,,,,,,,,,,,,,,,,,,,,,,,,,,,,,,,,
,,?,0,0,,,,,,stimuli/images/PICTURE_2.png,AREA,59e7362fe75b450001a69349,27/05/1937,2020-09-12_09h03.26.260,proactive3.2,2020.1.2,MacIntel,60,5f5adea66120081ea0f57a61,5f5c80b12cde2b45a77321c4,2,,,,,,tyre,,,,,,,,,,,4,2,0,54,54,32,1,,,,,,,,,,,,,,,,,,,,,,,,,,,,,,,,,,,,,,,,,,,,,,,,,,,,,,,,,,,,,,,,,,,,,,
,,?,0,0,,,,,,stimuli/images/PICTURE_654.png,YEAR,59e7362fe75b450001a69349,27/05/1937,2020-09-12_09h03.26.260,proactive3.2,2020.1.2,MacIntel,60,5f5adea66120081ea0f57a61,5f5c80b12cde2b45a77321c4,2,,,,,,pencil,,,,,,,,,,,5,2,0,55,55,41,1,,,,,,,,,,,,,,,,,,,,,,,,,,,,,,,,,,,,,,,,,,,,,,,,,,,,,,,,,,,,,,,,,,,,,,
,,?,0,0,,,,,,stimuli/images/PICTURE_677.png,FAMILY,59e7362fe75b450001a69349,27/05/1937,2020-09-12_09h03.26.260,proactive3.2,2020.1.2,MacIntel,60,5f5adea66120081ea0f57a61,5f5c80b12cde2b45a77321c4,2,,,,,,map,,,,,,,,,,,6,2,0,56,56,53,1,,,,,,,,,,,,,,,,,,,,,,,,,,,,,,,,,,,,,,,,,,,,,,,,,,,,,,,,,,,,,,,,,,,,,,
,,?,0,0,,,,,,stimuli/images/PICTURE_348.png,DUDE,59e7362fe75b450001a69349,27/05/1937,2020-09-12_09h03.26.260,proactive3.2,2020.1.2,MacIntel,60,5f5adea66120081ea0f57a61,5f5c80b12cde2b45a77321c4,2,,,,,,pepper,,,,,,,,,,,6,2,0,57,57,59,1,,,,,,,,,,,,,,,,,,,,,,,,,,,,,,,,,,,,,,,,,,,,,,,,,,,,,,,,,,,,,,,,,,,,,,
,,?,0,0,,,,,,stimuli/images/PICTURE_2.png,YARD,59e7362fe75b450001a69349,27/05/1937,2020-09-12_09h03.26.260,proactive3.2,2020.1.2,MacIntel,60,5f5adea66120081ea0f57a61,5f5c80b12cde2b45a77321c4,2,,,,,,tyre,,,,,,,,,,,6,2,0,58,58,55,1,,,,,,,,,,,,,,,,,,,,,,,,,,,,,,,,,,,,,,,,,,,,,,,,,,,,,,,,,,,,,,,,,,,,,,
,,?,0,0,,,,,,stimuli/images/PICTURE_311.png,TOILET,59e7362fe75b450001a69349,27/05/1937,2020-09-12_09h03.26.260,proactive3.2,2020.1.2,MacIntel,60,5f5adea66120081ea0f57a61,5f5c80b12cde2b45a77321c4,2,,,,,,razor,,,,,,,,,,,6,2,0,59,59,54,1,,,,,,,,,,,,,,,,,,,,,,,,,,,,,,,,,,,,,,,,,,,,,,,,,,,,,,,,,,,,,,,,,,,,,,
,,,,,,,,,,,,59e7362fe75b450001a69349,27/05/1937,2020-09-12_09h03.26.260,proactive3.2,2020.1.2,MacIntel,60,5f5adea66120081ea0f57a61,5f5c80b12cde2b45a77321c4,2,,,,,,,,,,,,,,,,,,,,,,,,0,0,0,2,1,stimuli/learn-block3.csv,,,,,,,,,,,,,,,,,,,,,,,,,,,,,,,,,,,,,,,,,,,,,,,,,,,,,,,,,,,,,,,,
,,,,,,,,,,stimuli/images/PICTURE_327.png,BEAUTY,59e7362fe75b450001a69349,27/05/1937,2020-09-12_09h03.26.260,proactive3.2,2020.1.2,MacIntel,60,5f5adea66120081ea0f57a61,5f5c80b12cde2b45a77321c4,2,,,,,,helmet,,,,,,0,0,0,48,1,5,0,,,,,,,,,,,,,,,,,,,,,,,,,,,,,,,,,,,,,,,,,,,,,,,,,,,,,,,,,,,,,,,,,,,,,,,,,,,
,,,,,,,,,,stimuli/images/PICTURE_203.png,ARTIST,59e7362fe75b450001a69349,27/05/1937,2020-09-12_09h03.26.260,proactive3.2,2020.1.2,MacIntel,60,5f5adea66120081ea0f57a61,5f5c80b12cde2b45a77321c4,2,,,,,,cap,,,,,,0,1,1,26,1,3,0,,,,,,,,,,,,,,,,,,,,,,,,,,,,,,,,,,,,,,,,,,,,,,,,,,,,,,,,,,,,,,,,,,,,,,,,,,,
,,,,,,,,,,stimuli/images/PICTURE_667.png,BATH,59e7362fe75b450001a69349,27/05/1937,2020-09-12_09h03.26.260,proactive3.2,2020.1.2,MacIntel,60,5f5adea66120081ea0f57a61,5f5c80b12cde2b45a77321c4,2,,,,,,daisy,,,,,,0,2,2,4,1,1,0,,,,,,,,,,,,,,,,,,,,,,,,,,,,,,,,,,,,,,,,,,,,,,,,,,,,,,,,,,,,,,,,,,,,,,,,,,,
,,,,,,,,,,stimuli/images/PICTURE_308.png,ESTATE,59e7362fe75b450001a69349,27/05/1937,2020-09-12_09h03.26.260,proactive3.2,2020.1.2,MacIntel,60,5f5adea66120081ea0f57a61,5f5c80b12cde2b45a77321c4,2,,,,,,dice,,,,,,0,3,3,46,1,5,0,,,,,,,,,,,,,,,,,,,,,,,,,,,,,,,,,,,,,,,,,,,,,,,,,,,,,,,,,,,,,,,,,,,,,,,,,,,
,,,,,,,,,,stimuli/images/PICTURE_469.png,ARTIST,59e7362fe75b450001a69349,27/05/1937,2020-09-12_09h03.26.260,proactive3.2,2020.1.2,MacIntel,60,5f5adea66120081ea0f57a61,5f5c80b12cde2b45a77321c4,2,,,,,,stool,,,,,,0,4,4,6,1,1,0,,,,,,,,,,,,,,,,,,,,,,,,,,,,,,,,,,,,,,,,,,,,,,,,,,,,,,,,,,,,,,,,,,,,,,,,,,,
,,,,,,,,,,stimuli/images/PICTURE_491.png,ROOF,59e7362fe75b450001a69349,27/05/1937,2020-09-12_09h03.26.260,proactive3.2,2020.1.2,MacIntel,60,5f5adea66120081ea0f57a61,5f5c80b12cde2b45a77321c4,2,,,,,,rug,,,,,,0,5,5,24,1,3,0,,,,,,,,,,,,,,,,,,,,,,,,,,,,,,,,,,,,,,,,,,,,,,,,,,,,,,,,,,,,,,,,,,,,,,,,,,,
,,,,,,,,,,stimuli/images/PICTURE_311.png,FRIEND,59e7362fe75b450001a69349,27/05/1937,2020-09-12_09h03.26.260,proactive3.2,2020.1.2,MacIntel,60,5f5adea66120081ea0f57a61,5f5c80b12cde2b45a77321c4,2,,,,,,razor,,,,,,0,6,6,34,1,4,0,,,,,,,,,,,,,,,,,,,,,,,,,,,,,,,,,,,,,,,,,,,,,,,,,,,,,,,,,,,,,,,,,,,,,,,,,,,
,,,,,,,,,,stimuli/images/PICTURE_160.png,FEET,59e7362fe75b450001a69349,27/05/1937,2020-09-12_09h03.26.260,proactive3.2,2020.1.2,MacIntel,60,5f5adea66120081ea0f57a61,5f5c80b12cde2b45a77321c4,2,,,,,,wheelbarrow,,,,,,0,7,7,58,1,6,0,,,,,,,,,,,,,,,,,,,,,,,,,,,,,,,,,,,,,,,,,,,,,,,,,,,,,,,,,,,,,,,,,,,,,,,,,,,
,,,,,,,,,,stimuli/images/PICTURE_744.png,SAKE,59e7362fe75b450001a69349,27/05/1937,2020-09-12_09h03.26.260,proactive3.2,2020.1.2,MacIntel,60,5f5adea66120081ea0f57a61,5f5c80b12cde2b45a77321c4,2,,,,,,ring,,,,,,0,8,8,17,1,2,0,,,,,,,,,,,,,,,,,,,,,,,,,,,,,,,,,,,,,,,,,,,,,,,,,,,,,,,,,,,,,,,,,,,,,,,,,,,
,,,,,,,,,,stimuli/images/PICTURE_339.png,PLENTY,59e7362fe75b450001a69349,27/05/1937,2020-09-12_09h03.26.260,proactive3.2,2020.1.2,MacIntel,60,5f5adea66120081ea0f57a61,5f5c80b12cde2b45a77321c4,2,,,,,,backpack,,,,,,0,9,9,0,1,1,0,,,,,,,,,,,,,,,,,,,,,,,,,,,,,,,,,,,,,,,,,,,,,,,,,,,,,,,,,,,,,,,,,,,,,,,,,,,
,,,,,,,,,,stimuli/images/PICTURE_488.png,STYLE,59e7362fe75b450001a69349,27/05/1937,2020-09-12_09h03.26.260,proactive3.2,2020.1.2,MacIntel,60,5f5adea66120081ea0f57a61,5f5c80b12cde2b45a77321c4,2,,,,,,sun,,,,,,0,10,10,33,1,4,0,,,,,,,,,,,,,,,,,,,,,,,,,,,,,,,,,,,,,,,,,,,,,,,,,,,,,,,,,,,,,,,,,,,,,,,,,,,
,,,,,,,,,,stimuli/images/PICTURE_688.png,WOMEN,59e7362fe75b450001a69349,27/05/1937,2020-09-12_09h03.26.260,proactive3.2,2020.1.2,MacIntel,60,5f5adea66120081ea0f57a61,5f5c80b12cde2b45a77321c4,2,,,,,,runner,,,,,,0,11,11,14,1,2,0,,,,,,,,,,,,,,,,,,,,,,,,,,,,,,,,,,,,,,,,,,,,,,,,,,,,,,,,,,,,,,,,,,,,,,,,,,,
,,,,,,,,,,stimuli/images/PICTURE_348.png,SPEECH,59e7362fe75b450001a69349,27/05/1937,2020-09-12_09h03.26.260,proactive3.2,2020.1.2,MacIntel,60,5f5adea66120081ea0f57a61,5f5c80b12cde2b45a77321c4,2,,,,,,pepper,,,,,,0,12,12,20,1,3,0,,,,,,,,,,,,,,,,,,,,,,,,,,,,,,,,,,,,,,,,,,,,,,,,,,,,,,,,,,,,,,,,,,,,,,,,,,,
,,,,,,,,,,stimuli/images/PICTURE_688.png,CASINO,59e7362fe75b450001a69349,27/05/1937,2020-09-12_09h03.26.260,proactive3.2,2020.1.2,MacIntel,60,5f5adea66120081ea0f57a61,5f5c80b12cde2b45a77321c4,2,,,,,,runner,,,,,,0,13,13,2,1,1,0,,,,,,,,,,,,,,,,,,,,,,,,,,,,,,,,,,,,,,,,,,,,,,,,,,,,,,,,,,,,,,,,,,,,,,,,,,,
,,,,,,,,,,stimuli/images/PICTURE_123.png,ADVICE,59e7362fe75b450001a69349,27/05/1937,2020-09-12_09h03.26.260,proactive3.2,2020.1.2,MacIntel,60,5f5adea66120081ea0f57a61,5f5c80b12cde2b45a77321c4,2,,,,,,dart,,,,,,0,14,14,50,1,6,0,,,,,,,,,,,,,,,,,,,,,,,,,,,,,,,,,,,,,,,,,,,,,,,,,,,,,,,,,,,,,,,,,,,,,,,,,,,
,,,,,,,,,,stimuli/images/PICTURE_708.png,PENNY,59e7362fe75b450001a69349,27/05/1937,2020-09-12_09h03.26.260,proactive3.2,2020.1.2,MacIntel,60,5f5adea66120081ea0f57a61,5f5c80b12cde2b45a77321c4,2,,,,,,monkey,,,,,,0,15,15,31,1,4,0,,,,,,,,,,,,,,,,,,,,,,,,,,,,,,,,,,,,,,,,,,,,,,,,,,,,,,,,,,,,,,,,,,,,,,,,,,,
,,,,,,,,,,stimuli/images/PICTURE_449.png,THING,59e7362fe75b450001a69349,27/05/1937,2020-09-12_09h03.26.260,proactive3.2,2020.1.2,MacIntel,60,5f5adea66120081ea0f57a61,5f5c80b12cde2b45a77321c4,2,,,,,,bench,,,,,,0,16,16,59,1,6,0,,,,,,,,,,,,,,,,,,,,,,,,,,,,,,,,,,,,,,,,,,,,,,,,,,,,,,,,,,,,,,,,,,,,,,,,,,,
,,,,,,,,,,stimuli/images/PICTURE_302.png,FAMILY,59e7362fe75b450001a69349,27/05/1937,2020-09-12_09h03.26.260,proactive3.2,2020.1.2,MacIntel,60,5f5adea66120081ea0f57a61,5f5c80b12cde2b45a77321c4,2,,,,,,taxi,,,,,,0,17,17,18,1,2,0,,,,,,,,,,,,,,,,,,,,,,,,,,,,,,,,,,,,,,,,,,,,,,,,,,,,,,,,,,,,,,,,,,,,,,,,,,,
,,,,,,,,,,stimuli/images/PICTURE_151.png,GIRL,59e7362fe75b450001a69349,27/05/1937,2020-09-12_09h03.26.260,proactive3.2,2020.1.2,MacIntel,60,5f5adea66120081ea0f57a61,5f5c80b12cde2b45a77321c4,2,,,,,,tray,,,,,,0,18,18,19,1,2,0,,,,,,,,,,,,,,,,,,,,,,,,,,,,,,,,,,,,,,,,,,,,,,,,,,,,,,,,,,,,,,,,,,,,,,,,,,,
,,,,,,,,,,stimuli/images/PICTURE_667.png,PLENTY,59e7362fe75b450001a69349,27/05/1937,2020-09-12_09h03.26.260,proactive3.2,2020.1.2,MacIntel,60,5f5adea66120081ea0f57a61,5f5c80b12cde2b45a77321c4,2,,,,,,daisy,,,,,,0,19,19,41,1,5,0,,,,,,,,,,,,,,,,,,,,,,,,,,,,,,,,,,,,,,,,,,,,,,,,,,,,,,,,,,,,,,,,,,,,,,,,,,,
,,,,,,,,,,stimuli/images/PICTURE_208.png,MONTH,59e7362fe75b450001a69349,27/05/1937,2020-09-12_09h03.26.260,proactive3.2,2020.1.2,MacIntel,60,5f5adea66120081ea0f57a61,5f5c80b12cde2b45a77321c4,2,,,,,,microphone,,,,,,0,20,20,53,1,6,0,,,,,,,,,,,,,,,,,,,,,,,,,,,,,,,,,,,,,,,,,,,,,,,,,,,,,,,,,,,,,,,,,,,,,,,,,,,
,,,,,,,,,,stimuli/images/PICTURE_285.png,ADVICE,59e7362fe75b450001a69349,27/05/1937,2020-09-12_09h03.26.260,proactive3.2,2020.1.2,MacIntel,60,5f5adea66120081ea0f57a61,5f5c80b12cde2b45a77321c4,2,,,,,,carrot,,,,,,0,21,21,12,1,2,0,,,,,,,,,,,,,,,,,,,,,,,,,,,,,,,,,,,,,,,,,,,,,,,,,,,,,,,,,,,,,,,,,,,,,,,,,,,
,,,,,,,,,,stimuli/images/PICTURE_68.png,MILE,59e7362fe75b450001a69349,27/05/1937,2020-09-12_09h03.26.260,proactive3.2,2020.1.2,MacIntel,60,5f5adea66120081ea0f57a61,5f5c80b12cde2b45a77321c4,2,,,,,,candle,,,,,,0,22,22,44,1,5,0,,,,,,,,,,,,,,,,,,,,,,,,,,,,,,,,,,,,,,,,,,,,,,,,,,,,,,,,,,,,,,,,,,,,,,,,,,,
,,,,,,,,,,stimuli/images/PICTURE_32.png,JUNGLE,59e7362fe75b450001a69349,27/05/1937,2020-09-12_09h03.26.260,proactive3.2,2020.1.2,MacIntel,60,5f5adea66120081ea0f57a61,5f5c80b12cde2b45a77321c4,2,,,,,,crown,,,,,,0,23,23,45,1,5,0,,,,,,,,,,,,,,,,,,,,,,,,,,,,,,,,,,,,,,,,,,,,,,,,,,,,,,,,,,,,,,,,,,,,,,,,,,,
,,,,,,,,,,stimuli/images/PICTURE_356.png,DANGER,59e7362fe75b450001a69349,27/05/1937,2020-09-12_09h03.26.260,proactive3.2,2020.1.2,MacIntel,60,5f5adea66120081ea0f57a61,5f5c80b12cde2b45a77321c4,2,,,,,,pawn,,,,,,0,24,24,55,1,6,0,,,,,,,,,,,,,,,,,,,,,,,,,,,,,,,,,,,,,,,,,,,,,,,,,,,,,,,,,,,,,,,,,,,,,,,,,,,
,,,,,,,,,,stimuli/images/PICTURE_453.png,PLENTY,59e7362fe75b450001a69349,27/05/1937,2020-09-12_09h03.26.260,proactive3.2,2020.1.2,MacIntel,60,5f5adea66120081ea0f57a61,5f5c80b12cde2b45a77321c4,2,,,,,,scissors,,,,,,0,25,25,56,1,6,0,,,,,,,,,,,,,,,,,,,,,,,,,,,,,,,,,,,,,,,,,,,,,,,,,,,,,,,,,,,,,,,,,,,,,,,,,,,
,,,,,,,,,,stimuli/images/PICTURE_147.png,MOMENT,59e7362fe75b450001a69349,27/05/1937,2020-09-12_09h03.26.260,proactive3.2,2020.1.2,MacIntel,60,5f5adea66120081ea0f57a61,5f5c80b12cde2b45a77321c4,2,,,,,,hanger,,,,,,0,26,26,51,1,6,0,,,,,,,,,,,,,,,,,,,,,,,,,,,,,,,,,,,,,,,,,,,,,,,,,,,,,,,,,,,,,,,,,,,,,,,,,,,
,,,,,,,,,,stimuli/images/PICTURE_233.png,WOMEN,59e7362fe75b450001a69349,27/05/1937,2020-09-12_09h03.26.260,proactive3.2,2020.1.2,MacIntel,60,5f5adea66120081ea0f57a61,5f5c80b12cde2b45a77321c4,2,,,,,,salt,,,,,,0,27,27,38,1,4,0,,,,,,,,,,,,,,,,,,,,,,,,,,,,,,,,,,,,,,,,,,,,,,,,,,,,,,,,,,,,,,,,,,,,,,,,,,,
,,,,,,,,,,stimuli/images/PICTURE_453.png,DUDE,59e7362fe75b450001a69349,27/05/1937,2020-09-12_09h03.26.260,proactive3.2,2020.1.2,MacIntel,60,5f5adea66120081ea0f57a61,5f5c80b12cde2b45a77321c4,2,,,,,,scissors,,,,,,0,28,28,27,1,3,0,,,,,,,,,,,,,,,,,,,,,,,,,,,,,,,,,,,,,,,,,,,,,,,,,,,,,,,,,,,,,,,,,,,,,,,,,,,
,,,,,,,,,,stimuli/images/PICTURE_248.png,DOZEN,59e7362fe75b450001a69349,27/05/1937,2020-09-12_09h03.26.260,proactive3.2,2020.1.2,MacIntel,60,5f5adea66120081ea0f57a61,5f5c80b12cde2b45a77321c4,2,,,,,,cart,,,,,,0,29,29,39,1,4,0,,,,,,,,,,,,,,,,,,,,,,,,,,,,,,,,,,,,,,,,,,,,,,,,,,,,,,,,,,,,,,,,,,,,,,,,,,,
,,,,,,,,,,stimuli/images/PICTURE_177.png,CARS,59e7362fe75b450001a69349,27/05/1937,2020-09-12_09h03.26.260,proactive3.2,2020.1.2,MacIntel,60,5f5adea66120081ea0f57a61,5f5c80b12cde2b45a77321c4,2,,,,,,mushroom,,,,,,0,30,30,35,1,4,0,,,,,,,,,,,,,,,,,,,,,,,,,,,,,,,,,,,,,,,,,,,,,,,,,,,,,,,,,,,,,,,,,,,,,,,,,,,
,,,,,,,,,,stimuli/images/PICTURE_469.png,LETTER,59e7362fe75b450001a69349,27/05/1937,2020-09-12_09h03.26.260,proactive3.2,2020.1.2,MacIntel,60,5f5adea66120081ea0f57a61,5f5c80b12cde2b45a77321c4,2,,,,,,stool,,,,,,0,31,31,42,1,5,0,,,,,,,,,,,,,,,,,,,,,,,,,,,,,,,,,,,,,,,,,,,,,,,,,,,,,,,,,,,,,,,,,,,,,,,,,,,
,,,,,,,,,,stimuli/images/PICTURE_311.png,BEAUTY,59e7362fe75b450001a69349,27/05/1937,2020-09-12_09h03.26.260,proactive3.2,2020.1.2,MacIntel,60,5f5adea66120081ea0f57a61,5f5c80b12cde2b45a77321c4,2,,,,,,razor,,,,,,0,32,32,13,1,2,0,,,,,,,,,,,,,,,,,,,,,,,,,,,,,,,,,,,,,,,,,,,,,,,,,,,,,,,,,,,,,,,,,,,,,,,,,,,
,,,,,,,,,,stimuli/images/PICTURE_491.png,WRITER,59e7362fe75b450001a69349,27/05/1937,2020-09-12_09h03.26.260,proactive3.2,2020.1.2,MacIntel,60,5f5adea66120081ea0f57a61,5f5c80b12cde2b45a77321c4,2,,,,,,rug,,,,,,0,33,33,57,1,6,0,,,,,,,,,,,,,,,,,,,,,,,,,,,,,,,,,,,,,,,,,,,,,,,,,,,,,,,,,,,,,,,,,,,,,,,,,,,
,,,,,,,,,,stimuli/images/PICTURE_509.png,PHOTO,59e7362fe75b450001a69349,27/05/1937,2020-09-12_09h03.26.260,proactive3.2,2020.1.2,MacIntel,60,5f5adea66120081ea0f57a61,5f5c80b12cde2b45a77321c4,2,,,,,,telephone,,,,,,0,34,34,21,1,3,0,,,,,,,,,,,,,,,,,,,,,,,,,,,,,,,,,,,,,,,,,,,,,,,,,,,,,,,,,,,,,,,,,,,,,,,,,,,
,,,,,,,,,,stimuli/images/PICTURE_380.png,DEATH,59e7362fe75b450001a69349,27/05/1937,2020-09-12_09h03.26.260,proactive3.2,2020.1.2,MacIntel,60,5f5adea66120081ea0f57a61,5f5c80b12cde2b45a77321c4,2,,,,,,gorilla,,,,,,0,35,35,49,1,5,0,,,,,,,,,,,,,,,,,,,,,,,,,,,,,,,,,,,,,,,,,,,,,,,,,,,,,,,,,,,,,,,,,,,,,,,,,,,
,,,,,,,,,,stimuli/images/PICTURE_314.png,GODS,59e7362fe75b450001a69349,27/05/1937,2020-09-12_09h03.26.260,proactive3.2,2020.1.2,MacIntel,60,5f5adea66120081ea0f57a61,5f5c80b12cde2b45a77321c4,2,,,,,,perfume,,,,,,0,36,36,11,1,2,0,,,,,,,,,,,,,,,,,,,,,,,,,,,,,,,,,,,,,,,,,,,,,,,,,,,,,,,,,,,,,,,,,,,,,,,,,,,
,,,,,,,,,,stimuli/images/PICTURE_255.png,AREA,59e7362fe75b450001a69349,27/05/1937,2020-09-12_09h03.26.260,proactive3.2,2020.1.2,MacIntel,60,5f5adea66120081ea0f57a61,5f5c80b12cde2b45a77321c4,2,,,,,,shovel,,,,,,0,37,37,22,1,3,0,,,,,,,,,,,,,,,,,,,,,,,,,,,,,,,,,,,,,,,,,,,,,,,,,,,,,,,,,,,,,,,,,,,,,,,,,,,
,,,,,,,,,,stimuli/images/PICTURE_95.png,STYLE,59e7362fe75b450001a69349,27/05/1937,2020-09-12_09h03.26.260,proactive3.2,2020.1.2,MacIntel,60,5f5adea66120081ea0f57a61,5f5c80b12cde2b45a77321c4,2,,,,,,suitcase,,,,,,0,38,38,25,1,3,0,,,,,,,,,,,,,,,,,,,,,,,,,,,,,,,,,,,,,,,,,,,,,,,,,,,,,,,,,,,,,,,,,,,,,,,,,,,
,,,,,,,,,,stimuli/images/PICTURE_467.png,DEMON,59e7362fe75b450001a69349,27/05/1937,2020-09-12_09h03.26.260,proactive3.2,2020.1.2,MacIntel,60,5f5adea66120081ea0f57a61,5f5c80b12cde2b45a77321c4,2,,,,,,peg,,,,,,0,39,39,23,1,3,0,,,,,,,,,,,,,,,,,,,,,,,,,,,,,,,,,,,,,,,,,,,,,,,,,,,,,,,,,,,,,,,,,,,,,,,,,,,
,,,,,,,,,,stimuli/images/PICTURE_208.png,THING,59e7362fe75b450001a69349,27/05/1937,2020-09-12_09h03.26.260,proactive3.2,2020.1.2,MacIntel,60,5f5adea66120081ea0f57a61,5f5c80b12cde2b45a77321c4,2,,,,,,microphone,,,,,,0,40,40,47,1,5,0,,,,,,,,,,,,,,,,,,,,,,,,,,,,,,,,,,,,,,,,,,,,,,,,,,,,,,,,,,,,,,,,,,,,,,,,,,,
,,,,,,,,,,stimuli/images/PICTURE_208.png,LOTS,59e7362fe75b450001a69349,27/05/1937,2020-09-12_09h03.26.260,proactive3.2,2020.1.2,MacIntel,60,5f5adea66120081ea0f57a61,5f5c80b12cde2b45a77321c4,2,,,,,,microphone,,,,,,0,41,41,10,1,2,0,,,,,,,,,,,,,,,,,,,,,,,,,,,,,,,,,,,,,,,,,,,,,,,,,,,,,,,,,,,,,,,,,,,,,,,,,,,
,,,,,,,,,,stimuli/images/PICTURE_487.png,FLIGHT,59e7362fe75b450001a69349,27/05/1937,2020-09-12_09h03.26.260,proactive3.2,2020.1.2,MacIntel,60,5f5adea66120081ea0f57a61,5f5c80b12cde2b45a77321c4,2,,,,,,basket,,,,,,0,42,42,9,1,1,0,,,,,,,,,,,,,,,,,,,,,,,,,,,,,,,,,,,,,,,,,,,,,,,,,,,,,,,,,,,,,,,,,,,,,,,,,,,
,,,,,,,,,,stimuli/images/PICTURE_708.png,YARD,59e7362fe75b450001a69349,27/05/1937,2020-09-12_09h03.26.260,proactive3.2,2020.1.2,MacIntel,60,5f5adea66120081ea0f57a61,5f5c80b12cde2b45a77321c4,2,,,,,,monkey,,,,,,0,43,43,29,1,3,0,,,,,,,,,,,,,,,,,,,,,,,,,,,,,,,,,,,,,,,,,,,,,,,,,,,,,,,,,,,,,,,,,,,,,,,,,,,
,,,,,,,,,,stimuli/images/PICTURE_123.png,ADVICE,59e7362fe75b450001a69349,27/05/1937,2020-09-12_09h03.26.260,proactive3.2,2020.1.2,MacIntel,60,5f5adea66120081ea0f57a61,5f5c80b12cde2b45a77321c4,2,,,,,,dart,,,,,,0,44,44,40,1,5,0,,,,,,,,,,,,,,,,,,,,,,,,,,,,,,,,,,,,,,,,,,,,,,,,,,,,,,,,,,,,,,,,,,,,,,,,,,,
,,,,,,,,,,stimuli/images/PICTURE_314.png,SAKE,59e7362fe75b450001a69349,27/05/1937,2020-09-12_09h03.26.260,proactive3.2,2020.1.2,MacIntel,60,5f5adea66120081ea0f57a61,5f5c80b12cde2b45a77321c4,2,,,,,,perfume,,,,,,0,45,45,7,1,1,0,,,,,,,,,,,,,,,,,,,,,,,,,,,,,,,,,,,,,,,,,,,,,,,,,,,,,,,,,,,,,,,,,,,,,,,,,,,
,,,,,,,,,,stimuli/images/PICTURE_308.png,KIND,59e7362fe75b450001a69349,27/05/1937,2020-09-12_09h03.26.260,proactive3.2,2020.1.2,MacIntel,60,5f5adea66120081ea0f57a61,5f5c80b12cde2b45a77321c4,2,,,,,,dice,,,,,,0,46,46,54,1,6,0,,,,,,,,,,,,,,,,,,,,,,,,,,,,,,,,,,,,,,,,,,,,,,,,,,,,,,,,,,,,,,,,,,,,,,,,,,,
,,,,,,,,,,stimuli/images/PICTURE_708.png,CLIENT,59e7362fe75b450001a69349,27/05/1937,2020-09-12_09h03.26.260,proactive3.2,2020.1.2,MacIntel,60,5f5adea66120081ea0f57a61,5f5c80b12cde2b45a77321c4,2,,,,,,monkey,,,,,,0,47,47,5,1,1,0,,,,,,,,,,,,,,,,,,,,,,,,,,,,,,,,,,,,,,,,,,,,,,,,,,,,,,,,,,,,,,,,,,,,,,,,,,,
,,,,,,,,,,stimuli/images/PICTURE_470.png,CASINO,59e7362fe75b450001a69349,27/05/1937,2020-09-12_09h03.26.260,proactive3.2,2020.1.2,MacIntel,60,5f5adea66120081ea0f57a61,5f5c80b12cde2b45a77321c4,2,,,,,,motorbike,,,,,,0,48,48,36,1,4,0,,,,,,,,,,,,,,,,,,,,,,,,,,,,,,,,,,,,,,,,,,,,,,,,,,,,,,,,,,,,,,,,,,,,,,,,,,,
,,,,,,,,,,stimuli/images/PICTURE_677.png,MILE,59e7362fe75b450001a69349,27/05/1937,2020-09-12_09h03.26.260,proactive3.2,2020.1.2,MacIntel,60,5f5adea66120081ea0f57a61,5f5c80b12cde2b45a77321c4,2,,,,,,map,,,,,,0,49,49,30,1,4,0,,,,,,,,,,,,,,,,,,,,,,,,,,,,,,,,,,,,,,,,,,,,,,,,,,,,,,,,,,,,,,,,,,,,,,,,,,,
,,,,,,,,,,stimuli/images/PICTURE_692.png,MONTH,59e7362fe75b450001a69349,27/05/1937,2020-09-12_09h03.26.260,proactive3.2,2020.1.2,MacIntel,60,5f5adea66120081ea0f57a61,5f5c80b12cde2b45a77321c4,2,,,,,,cherry,,,,,,0,50,50,16,1,2,0,,,,,,,,,,,,,,,,,,,,,,,,,,,,,,,,,,,,,,,,,,,,,,,,,,,,,,,,,,,,,,,,,,,,,,,,,,,
,,,,,,,,,,stimuli/images/PICTURE_675.png,WEAPON,59e7362fe75b450001a69349,27/05/1937,2020-09-12_09h03.26.260,proactive3.2,2020.1.2,MacIntel,60,5f5adea66120081ea0f57a61,5f5c80b12cde2b45a77321c4,2,,,,,,windmill,,,,,,0,51,51,32,1,4,0,,,,,,,,,,,,,,,,,,,,,,,,,,,,,,,,,,,,,,,,,,,,,,,,,,,,,,,,,,,,,,,,,,,,,,,,,,,
,,,,,,,,,,stimuli/images/PICTURE_744.png,SYSTEM,59e7362fe75b450001a69349,27/05/1937,2020-09-12_09h03.26.260,proactive3.2,2020.1.2,MacIntel,60,5f5adea66120081ea0f57a61,5f5c80b12cde2b45a77321c4,2,,,,,,ring,,,,,,0,52,52,43,1,5,0,,,,,,,,,,,,,,,,,,,,,,,,,,,,,,,,,,,,,,,,,,,,,,,,,,,,,,,,,,,,,,,,,,,,,,,,,,,
,,,,,,,,,,stimuli/images/PICTURE_380.png,PHOTO,59e7362fe75b450001a69349,27/05/1937,2020-09-12_09h03.26.260,proactive3.2,2020.1.2,MacIntel,60,5f5adea66120081ea0f57a61,5f5c80b12cde2b45a77321c4,2,,,,,,gorilla,,,,,,0,53,53,52,1,6,0,,,,,,,,,,,,,,,,,,,,,,,,,,,,,,,,,,,,,,,,,,,,,,,,,,,,,,,,,,,,,,,,,,,,,,,,,,,
,,,,,,,,,,stimuli/images/PICTURE_654.png,VALLEY,59e7362fe75b450001a69349,27/05/1937,2020-09-12_09h03.26.260,proactive3.2,2020.1.2,MacIntel,60,5f5adea66120081ea0f57a61,5f5c80b12cde2b45a77321c4,2,,,,,,pencil,,,,,,0,54,54,1,1,1,0,,,,,,,,,,,,,,,,,,,,,,,,,,,,,,,,,,,,,,,,,,,,,,,,,,,,,,,,,,,,,,,,,,,,,,,,,,,
,,,,,,,,,,stimuli/images/PICTURE_85.png,THING,59e7362fe75b450001a69349,27/05/1937,2020-09-12_09h03.26.260,proactive3.2,2020.1.2,MacIntel,60,5f5adea66120081ea0f57a61,5f5c80b12cde2b45a77321c4,2,,,,,,diamond,,,,,,0,55,55,15,1,2,0,,,,,,,,,,,,,,,,,,,,,,,,,,,,,,,,,,,,,,,,,,,,,,,,,,,,,,,,,,,,,,,,,,,,,,,,,,,
,,,,,,,,,,stimuli/images/PICTURE_160.png,LEADER,59e7362fe75b450001a69349,27/05/1937,2020-09-12_09h03.26.260,proactive3.2,2020.1.2,MacIntel,60,5f5adea66120081ea0f57a61,5f5c80b12cde2b45a77321c4,2,,,,,,wheelbarrow,,,,,,0,56,56,3,1,1,0,,,,,,,,,,,,,,,,,,,,,,,,,,,,,,,,,,,,,,,,,,,,,,,,,,,,,,,,,,,,,,,,,,,,,,,,,,,
,,,,,,,,,,stimuli/images/PICTURE_504.png,BODY,59e7362fe75b450001a69349,27/05/1937,2020-09-12_09h03.26.260,proactive3.2,2020.1.2,MacIntel,60,5f5adea66120081ea0f57a61,5f5c80b12cde2b45a77321c4,2,,,,,,wheel,,,,,,0,57,57,8,1,1,0,,,,,,,,,,,,,,,,,,,,,,,,,,,,,,,,,,,,,,,,,,,,,,,,,,,,,,,,,,,,,,,,,,,,,,,,,,,
,,,,,,,,,,stimuli/images/PICTURE_215.png,PLENTY,59e7362fe75b450001a69349,27/05/1937,2020-09-12_09h03.26.260,proactive3.2,2020.1.2,MacIntel,60,5f5adea66120081ea0f57a61,5f5c80b12cde2b45a77321c4,2,,,,,,boot,,,,,,0,58,58,37,1,4,0,,,,,,,,,,,,,,,,,,,,,,,,,,,,,,,,,,,,,,,,,,,,,,,,,,,,,,,,,,,,,,,,,,,,,,,,,,,
,,?,0.001,0,,,,,,stimuli/images/PICTURE_491.png,WRITER,59e7362fe75b450001a69349,27/05/1937,2020-09-12_09h03.26.260,proactive3.2,2020.1.2,MacIntel,60,5f5adea66120081ea0f57a61,5f5c80b12cde2b45a77321c4,2,,,,,,rug,,,,,,,,,,,6,0,0,0,0,57,1,,,,,,,,,,,,,,,,,,,,,,,,,,,,,,,,,,,,,,,,,,,,,,,,,,,,,,,,,,,,,,,,,,,,,,
,,MONTH,7.97,1,,,,,,stimuli/images/PICTURE_692.png,MONTH,59e7362fe75b450001a69349,27/05/1937,2020-09-12_09h03.26.260,proactive3.2,2020.1.2,MacIntel,60,5f5adea66120081ea0f57a61,5f5c80b12cde2b45a77321c4,2,,,,,,cherry,,,,,,,,,,,2,0,0,1,1,16,1,,,,,,,,,,,,,,,,,,,,,,,,,,,,,,,,,,,,,,,,,,,,,,,,,,,,,,,,,,,,,,,,,,,,,,
,,?,0.001,0,,,,,,stimuli/images/PICTURE_469.png,ARTIST,59e7362fe75b450001a69349,27/05/1937,2020-09-12_09h03.26.260,proactive3.2,2020.1.2,MacIntel,60,5f5adea66120081ea0f57a61,5f5c80b12cde2b45a77321c4,2,,,,,,stool,,,,,,,,,,,1,0,0,2,2,6,1,,,,,,,,,,,,,,,,,,,,,,,,,,,,,,,,,,,,,,,,,,,,,,,,,,,,,,,,,,,,,,,,,,,,,,
,,?,0.001,0,,,,,,stimuli/images/PICTURE_491.png,ROOF,59e7362fe75b450001a69349,27/05/1937,2020-09-12_09h03.26.260,proactive3.2,2020.1.2,MacIntel,60,5f5adea66120081ea0f57a61,5f5c80b12cde2b45a77321c4,2,,,,,,rug,,,,,,,,,,,3,0,0,3,3,24,1,,,,,,,,,,,,,,,,,,,,,,,,,,,,,,,,,,,,,,,,,,,,,,,,,,,,,,,,,,,,,,,,,,,,,,
,,?,0.001,0,,,,,,stimuli/images/PICTURE_356.png,DANGER,59e7362fe75b450001a69349,27/05/1937,2020-09-12_09h03.26.260,proactive3.2,2020.1.2,MacIntel,60,5f5adea66120081ea0f57a61,5f5c80b12cde2b45a77321c4,2,,,,,,pawn,,,,,,,,,,,6,0,0,4,4,55,1,,,,,,,,,,,,,,,,,,,,,,,,,,,,,,,,,,,,,,,,,,,,,,,,,,,,,,,,,,,,,,,,,,,,,,
,,?,0.001,0,,,,,,stimuli/images/PICTURE_203.png,ARTIST,59e7362fe75b450001a69349,27/05/1937,2020-09-12_09h03.26.260,proactive3.2,2020.1.2,MacIntel,60,5f5adea66120081ea0f57a61,5f5c80b12cde2b45a77321c4,2,,,,,,cap,,,,,,,,,,,3,0,0,5,5,26,1,,,,,,,,,,,,,,,,,,,,,,,,,,,,,,,,,,,,,,,,,,,,,,,,,,,,,,,,,,,,,,,,,,,,,,
,,?,0.001,0,,,,,,stimuli/images/PICTURE_654.png,VALLEY,59e7362fe75b450001a69349,27/05/1937,2020-09-12_09h03.26.260,proactive3.2,2020.1.2,MacIntel,60,5f5adea66120081ea0f57a61,5f5c80b12cde2b45a77321c4,2,,,,,,pencil,,,,,,,,,,,1,0,0,6,6,1,1,,,,,,,,,,,,,,,,,,,,,,,,,,,,,,,,,,,,,,,,,,,,,,,,,,,,,,,,,,,,,,,,,,,,,,
,,?,0.001,0,,,,,,stimuli/images/PICTURE_380.png,PHOTO,59e7362fe75b450001a69349,27/05/1937,2020-09-12_09h03.26.260,proactive3.2,2020.1.2,MacIntel,60,5f5adea66120081ea0f57a61,5f5c80b12cde2b45a77321c4,2,,,,,,gorilla,,,,,,,,,,,6,0,0,7,7,52,1,,,,,,,,,,,,,,,,,,,,,,,,,,,,,,,,,,,,,,,,,,,,,,,,,,,,,,,,,,,,,,,,,,,,,,
,,?,0.001,0,,,,,,stimuli/images/PICTURE_688.png,CASINO,59e7362fe75b450001a69349,27/05/1937,2020-09-12_09h03.26.260,proactive3.2,2020.1.2,MacIntel,60,5f5adea66120081ea0f57a61,5f5c80b12cde2b45a77321c4,2,,,,,,runner,,,,,,,,,,,1,0,0,8,8,2,1,,,,,,,,,,,,,,,,,,,,,,,,,,,,,,,,,,,,,,,,,,,,,,,,,,,,,,,,,,,,,,,,,,,,,,
,,?,0.001,0,,,,,,stimuli/images/PICTURE_233.png,WOMEN,59e7362fe75b450001a69349,27/05/1937,2020-09-12_09h03.26.260,proactive3.2,2020.1.2,MacIntel,60,5f5adea66120081ea0f57a61,5f5c80b12cde2b45a77321c4,2,,,,,,salt,,,,,,,,,,,4,0,0,9,9,38,1,,,,,,,,,,,,,,,,,,,,,,,,,,,,,,,,,,,,,,,,,,,,,,,,,,,,,,,,,,,,,,,,,,,,,,
,,?,0.001,0,,,,,,stimuli/images/PICTURE_488.png,STYLE,59e7362fe75b450001a69349,27/05/1937,2020-09-12_09h03.26.260,proactive3.2,2020.1.2,MacIntel,60,5f5adea66120081ea0f57a61,5f5c80b12cde2b45a77321c4,2,,,,,,sun,,,,,,,,,,,4,0,0,10,10,33,1,,,,,,,,,,,,,,,,,,,,,,,,,,,,,,,,,,,,,,,,,,,,,,,,,,,,,,,,,,,,,,,,,,,,,,
,,BEAUTY,6.012,1,,,,,,stimuli/images/PICTURE_311.png,BEAUTY,59e7362fe75b450001a69349,27/05/1937,2020-09-12_09h03.26.260,proactive3.2,2020.1.2,MacIntel,60,5f5adea66120081ea0f57a61,5f5c80b12cde2b45a77321c4,2,,,,,,razor,,,,,,,,,,,2,0,0,11,11,13,1,,,,,,,,,,,,,,,,,,,,,,,,,,,,,,,,,,,,,,,,,,,,,,,,,,,,,,,,,,,,,,,,,,,,,,
,,?,0.001,0,,,,,,stimuli/images/PICTURE_248.png,DOZEN,59e7362fe75b450001a69349,27/05/1937,2020-09-12_09h03.26.260,proactive3.2,2020.1.2,MacIntel,60,5f5adea66120081ea0f57a61,5f5c80b12cde2b45a77321c4,2,,,,,,cart,,,,,,,,,,,4,0,0,12,12,39,1,,,,,,,,,,,,,,,,,,,,,,,,,,,,,,,,,,,,,,,,,,,,,,,,,,,,,,,,,,,,,,,,,,,,,,
,,GODS,4.535,1,,,,,,stimuli/images/PICTURE_314.png,GODS,59e7362fe75b450001a69349,27/05/1937,2020-09-12_09h03.26.260,proactive3.2,2020.1.2,MacIntel,60,5f5adea66120081ea0f57a61,5f5c80b12cde2b45a77321c4,2,,,,,,perfume,,,,,,,,,,,2,0,0,13,13,11,1,,,,,,,,,,,,,,,,,,,,,,,,,,,,,,,,,,,,,,,,,,,,,,,,,,,,,,,,,,,,,,,,,,,,,,
,,?,0.001,0,,,,,,stimuli/images/PICTURE_147.png,MOMENT,59e7362fe75b450001a69349,27/05/1937,2020-09-12_09h03.26.260,proactive3.2,2020.1.2,MacIntel,60,5f5adea66120081ea0f57a61,5f5c80b12cde2b45a77321c4,2,,,,,,hanger,,,,,,,,,,,6,0,0,14,14,51,1,,,,,,,,,,,,,,,,,,,,,,,,,,,,,,,,,,,,,,,,,,,,,,,,,,,,,,,,,,,,,,,,,,,,,,
,,WOMEN,6.471,0,,,,,,stimuli/images/PICTURE_302.png,FAMILY,59e7362fe75b450001a69349,27/05/1937,2020-09-12_09h03.26.260,proactive3.2,2020.1.2,MacIntel,60,5f5adea66120081ea0f57a61,5f5c80b12cde2b45a77321c4,2,,,,,,taxi,,,,,,,,,,,2,0,0,15,15,18,1,,,,,,,,,,,,,,,,,,,,,,,,,,,,,,,,,,,,,,,,,,,,,,,,,,,,,,,,,,,,,,,,,,,,,,
,,?,0.001,0,,,,,,stimuli/images/PICTURE_449.png,THING,59e7362fe75b450001a69349,27/05/1937,2020-09-12_09h03.26.260,proactive3.2,2020.1.2,MacIntel,60,5f5adea66120081ea0f57a61,5f5c80b12cde2b45a77321c4,2,,,,,,bench,,,,,,,,,,,6,0,0,16,16,59,1,,,,,,,,,,,,,,,,,,,,,,,,,,,,,,,,,,,,,,,,,,,,,,,,,,,,,,,,,,,,,,,,,,,,,,
,,?,0,0,,,,,,stimuli/images/PICTURE_208.png,THING,59e7362fe75b450001a69349,27/05/1937,2020-09-12_09h03.26.260,proactive3.2,2020.1.2,MacIntel,60,5f5adea66120081ea0f57a61,5f5c80b12cde2b45a77321c4,2,,,,,,microphone,,,,,,,,,,,5,0,0,17,17,47,1,,,,,,,,,,,,,,,,,,,,,,,,,,,,,,,,,,,,,,,,,,,,,,,,,,,,,,,,,,,,,,,,,,,,,,
,,GIRL,6.769,1,,,,,,stimuli/images/PICTURE_151.png,GIRL,59e7362fe75b450001a69349,27/05/1937,2020-09-12_09h03.26.260,proactive3.2,2020.1.2,MacIntel,60,5f5adea66120081ea0f57a61,5f5c80b12cde2b45a77321c4,2,,,,,,tray,,,,,,,,,,,2,0,0,18,18,19,1,,,,,,,,,,,,,,,,,,,,,,,,,,,,,,,,,,,,,,,,,,,,,,,,,,,,,,,,,,,,,,,,,,,,,,
,,?,0.001,0,,,,,,stimuli/images/PICTURE_348.png,SPEECH,59e7362fe75b450001a69349,27/05/1937,2020-09-12_09h03.26.260,proactive3.2,2020.1.2,MacIntel,60,5f5adea66120081ea0f57a61,5f5c80b12cde2b45a77321c4,2,,,,,,pepper,,,,,,,,,,,3,0,0,19,19,20,1,,,,,,,,,,,,,,,,,,,,,,,,,,,,,,,,,,,,,,,,,,,,,,,,,,,,,,,,,,,,,,,,,,,,,,
,,?,0,0,,,,,,stimuli/images/PICTURE_470.png,CASINO,59e7362fe75b450001a69349,27/05/1937,2020-09-12_09h03.26.260,proactive3.2,2020.1.2,MacIntel,60,5f5adea66120081ea0f57a61,5f5c80b12cde2b45a77321c4,2,,,,,,motorbike,,,,,,,,,,,4,0,0,20,20,36,1,,,,,,,,,,,,,,,,,,,,,,,,,,,,,,,,,,,,,,,,,,,,,,,,,,,,,,,,,,,,,,,,,,,,,,
,,?,0,0,,,,,,stimuli/images/PICTURE_487.png,FLIGHT,59e7362fe75b450001a69349,27/05/1937,2020-09-12_09h03.26.260,proactive3.2,2020.1.2,MacIntel,60,5f5adea66120081ea0f57a61,5f5c80b12cde2b45a77321c4,2,,,,,,basket,,,,,,,,,,,1,0,0,21,21,9,1,,,,,,,,,,,,,,,,,,,,,,,,,,,,,,,,,,,,,,,,,,,,,,,,,,,,,,,,,,,,,,,,,,,,,,
,,?,0.001,0,,,,,,stimuli/images/PICTURE_208.png,MONTH,59e7362fe75b450001a69349,27/05/1937,2020-09-12_09h03.26.260,proactive3.2,2020.1.2,MacIntel,60,5f5adea66120081ea0f57a61,5f5c80b12cde2b45a77321c4,2,,,,,,microphone,,,,,,,,,,,6,0,0,22,22,53,1,,,,,,,,,,,,,,,,,,,,,,,,,,,,,,,,,,,,,,,,,,,,,,,,,,,,,,,,,,,,,,,,,,,,,,
,,?,0.001,0,,,,,,stimuli/images/PICTURE_509.png,PHOTO,59e7362fe75b450001a69349,27/05/1937,2020-09-12_09h03.26.260,proactive3.2,2020.1.2,MacIntel,60,5f5adea66120081ea0f57a61,5f5c80b12cde2b45a77321c4,2,,,,,,telephone,,,,,,,,,,,3,0,0,23,23,21,1,,,,,,,,,,,,,,,,,,,,,,,,,,,,,,,,,,,,,,,,,,,,,,,,,,,,,,,,,,,,,,,,,,,,,,
,,?,0,0,,,,,,stimuli/images/PICTURE_667.png,PLENTY,59e7362fe75b450001a69349,27/05/1937,2020-09-12_09h03.26.260,proactive3.2,2020.1.2,MacIntel,60,5f5adea66120081ea0f57a61,5f5c80b12cde2b45a77321c4,2,,,,,,daisy,,,,,,,,,,,5,0,0,24,24,41,1,,,,,,,,,,,,,,,,,,,,,,,,,,,,,,,,,,,,,,,,,,,,,,,,,,,,,,,,,,,,,,,,,,,,,,
,,?,0,0,,,,,,stimuli/images/PICTURE_308.png,ESTATE,59e7362fe75b450001a69349,27/05/1937,2020-09-12_09h03.26.260,proactive3.2,2020.1.2,MacIntel,60,5f5adea66120081ea0f57a61,5f5c80b12cde2b45a77321c4,2,,,,,,dice,,,,,,,,,,,5,0,0,25,25,46,1,,,,,,,,,,,,,,,,,,,,,,,,,,,,,,,,,,,,,,,,,,,,,,,,,,,,,,,,,,,,,,,,,,,,,,
,,?,0,0,,,,,,stimuli/images/PICTURE_708.png,YARD,59e7362fe75b450001a69349,27/05/1937,2020-09-12_09h03.26.260,proactive3.2,2020.1.2,MacIntel,60,5f5adea66120081ea0f57a61,5f5c80b12cde2b45a77321c4,2,,,,,,monkey,,,,,,,,,,,3,0,0,26,26,29,1,,,,,,,,,,,,,,,,,,,,,,,,,,,,,,,,,,,,,,,,,,,,,,,,,,,,,,,,,,,,,,,,,,,,,,
,,?,0,0,,,,,,stimuli/images/PICTURE_744.png,SYSTEM,59e7362fe75b450001a69349,27/05/1937,2020-09-12_09h03.26.260,proactive3.2,2020.1.2,MacIntel,60,5f5adea66120081ea0f57a61,5f5c80b12cde2b45a77321c4,2,,,,,,ring,,,,,,,,,,,5,0,0,27,27,43,1,,,,,,,,,,,,,,,,,,,,,,,,,,,,,,,,,,,,,,,,,,,,,,,,,,,,,,,,,,,,,,,,,,,,,,
,,?,0.001,0,,,,,,stimuli/images/PICTURE_667.png,BATH,59e7362fe75b450001a69349,27/05/1937,2020-09-12_09h03.26.260,proactive3.2,2020.1.2,MacIntel,60,5f5adea66120081ea0f57a61,5f5c80b12cde2b45a77321c4,2,,,,,,daisy,,,,,,,,,,,1,0,0,28,28,4,1,,,,,,,,,,,,,,,,,,,,,,,,,,,,,,,,,,,,,,,,,,,,,,,,,,,,,,,,,,,,,,,,,,,,,,
,,?,0.001,0,,,,,,stimuli/images/PICTURE_160.png,FEET,59e7362fe75b450001a69349,27/05/1937,2020-09-12_09h03.26.260,proactive3.2,2020.1.2,MacIntel,60,5f5adea66120081ea0f57a61,5f5c80b12cde2b45a77321c4,2,,,,,,wheelbarrow,,,,,,,,,,,6,0,0,29,29,58,1,,,,,,,,,,,,,,,,,,,,,,,,,,,,,,,,,,,,,,,,,,,,,,,,,,,,,,,,,,,,,,,,,,,,,,
,,?,0.001,0,,,,,,stimuli/images/PICTURE_708.png,CLIENT,59e7362fe75b450001a69349,27/05/1937,2020-09-12_09h03.26.260,proactive3.2,2020.1.2,MacIntel,60,5f5adea66120081ea0f57a61,5f5c80b12cde2b45a77321c4,2,,,,,,monkey,,,,,,,,,,,1,0,0,30,30,5,1,,,,,,,,,,,,,,,,,,,,,,,,,,,,,,,,,,,,,,,,,,,,,,,,,,,,,,,,,,,,,,,,,,,,,,
,,?,0,0,,,,,,stimuli/images/PICTURE_308.png,KIND,59e7362fe75b450001a69349,27/05/1937,2020-09-12_09h03.26.260,proactive3.2,2020.1.2,MacIntel,60,5f5adea66120081ea0f57a61,5f5c80b12cde2b45a77321c4,2,,,,,,dice,,,,,,,,,,,6,0,0,31,31,54,1,,,,,,,,,,,,,,,,,,,,,,,,,,,,,,,,,,,,,,,,,,,,,,,,,,,,,,,,,,,,,,,,,,,,,,
,,?,0,0,,,,,,stimuli/images/PICTURE_675.png,WEAPON,59e7362fe75b450001a69349,27/05/1937,2020-09-12_09h03.26.260,proactive3.2,2020.1.2,MacIntel,60,5f5adea66120081ea0f57a61,5f5c80b12cde2b45a77321c4,2,,,,,,windmill,,,,,,,,,,,4,0,0,32,32,32,1,,,,,,,,,,,,,,,,,,,,,,,,,,,,,,,,,,,,,,,,,,,,,,,,,,,,,,,,,,,,,,,,,,,,,,
,,?,0,0,,,,,,stimuli/images/PICTURE_708.png,PENNY,59e7362fe75b450001a69349,27/05/1937,2020-09-12_09h03.26.260,proactive3.2,2020.1.2,MacIntel,60,5f5adea66120081ea0f57a61,5f5c80b12cde2b45a77321c4,2,,,,,,monkey,,,,,,,,,,,4,0,0,33,33,31,1,,,,,,,,,,,,,,,,,,,,,,,,,,,,,,,,,,,,,,,,,,,,,,,,,,,,,,,,,,,,,,,,,,,,,,
,,?,0.001,0,,,,,,stimuli/images/PICTURE_160.png,LEADER,59e7362fe75b450001a69349,27/05/1937,2020-09-12_09h03.26.260,proactive3.2,2020.1.2,MacIntel,60,5f5adea66120081ea0f57a61,5f5c80b12cde2b45a77321c4,2,,,,,,wheelbarrow,,,,,,,,,,,1,0,0,34,34,3,1,,,,,,,,,,,,,,,,,,,,,,,,,,,,,,,,,,,,,,,,,,,,,,,,,,,,,,,,,,,,,,,,,,,,,,
,,?,0.001,0,,,,,,stimuli/images/PICTURE_453.png,PLENTY,59e7362fe75b450001a69349,27/05/1937,2020-09-12_09h03.26.260,proactive3.2,2020.1.2,MacIntel,60,5f5adea66120081ea0f57a61,5f5c80b12cde2b45a77321c4,2,,,,,,scissors,,,,,,,,,,,6,0,0,35,35,56,1,,,,,,,,,,,,,,,,,,,,,,,,,,,,,,,,,,,,,,,,,,,,,,,,,,,,,,,,,,,,,,,,,,,,,,
,,ADVICE,6.824,1,,,,,,stimuli/images/PICTURE_285.png,ADVICE,59e7362fe75b450001a69349,27/05/1937,2020-09-12_09h03.26.260,proactive3.2,2020.1.2,MacIntel,60,5f5adea66120081ea0f57a61,5f5c80b12cde2b45a77321c4,2,,,,,,carrot,,,,,,,,,,,2,0,0,36,36,12,1,,,,,,,,,,,,,,,,,,,,,,,,,,,,,,,,,,,,,,,,,,,,,,,,,,,,,,,,,,,,,,,,,,,,,,
,,?,0.001,0,,,,,,stimuli/images/PICTURE_233.png,IDEAS,59e7362fe75b450001a69349,27/05/1937,2020-09-12_09h03.26.260,proactive3.2,2020.1.2,MacIntel,60,5f5adea66120081ea0f57a61,5f5c80b12cde2b45a77321c4,2,,,,,,salt,,,,,,,,,,,3,0,0,37,37,28,1,,,,,,,,,,,,,,,,,,,,,,,,,,,,,,,,,,,,,,,,,,,,,,,,,,,,,,,,,,,,,,,,,,,,,,
,,LOTS,6.803,1,,,,,,stimuli/images/PICTURE_208.png,LOTS,59e7362fe75b450001a69349,27/05/1937,2020-09-12_09h03.26.260,proactive3.2,2020.1.2,MacIntel,60,5f5adea66120081ea0f57a61,5f5c80b12cde2b45a77321c4,2,,,,,,microphone,,,,,,,,,,,2,0,0,38,38,10,1,,,,,,,,,,,,,,,,,,,,,,,,,,,,,,,,,,,,,,,,,,,,,,,,,,,,,,,,,,,,,,,,,,,,,,
,,?,0,0,,,,,,stimuli/images/PICTURE_123.png,ADVICE,59e7362fe75b450001a69349,27/05/1937,2020-09-12_09h03.26.260,proactive3.2,2020.1.2,MacIntel,60,5f5adea66120081ea0f57a61,5f5c80b12cde2b45a77321c4,2,,,,,,dart,,,,,,,,,,,5,0,0,39,39,40,1,,,,,,,,,,,,,,,,,,,,,,,,,,,,,,,,,,,,,,,,,,,,,,,,,,,,,,,,,,,,,,,,,,,,,,
,,?,0,0,,,,,,stimuli/images/PICTURE_504.png,BODY,59e7362fe75b450001a69349,27/05/1937,2020-09-12_09h03.26.260,proactive3.2,2020.1.2,MacIntel,60,5f5adea66120081ea0f57a61,5f5c80b12cde2b45a77321c4,2,,,,,,wheel,,,,,,,,,,,1,0,0,40,40,8,1,,,,,,,,,,,,,,,,,,,,,,,,,,,,,,,,,,,,,,,,,,,,,,,,,,,,,,,,,,,,,,,,,,,,,,
,,?,0,0,,,,,,stimuli/images/PICTURE_215.png,PLENTY,59e7362fe75b450001a69349,27/05/1937,2020-09-12_09h03.26.260,proactive3.2,2020.1.2,MacIntel,60,5f5adea66120081ea0f57a61,5f5c80b12cde2b45a77321c4,2,,,,,,boot,,,,,,,,,,,4,0,0,41,41,37,1,,,,,,,,,,,,,,,,,,,,,,,,,,,,,,,,,,,,,,,,,,,,,,,,,,,,,,,,,,,,,,,,,,,,,,
,,?,0,0,,,,,,stimuli/images/PICTURE_467.png,DEMON,59e7362fe75b450001a69349,27/05/1937,2020-09-12_09h03.26.260,proactive3.2,2020.1.2,MacIntel,60,5f5adea66120081ea0f57a61,5f5c80b12cde2b45a77321c4,2,,,,,,peg,,,,,,,,,,,3,0,0,42,42,23,1,,,,,,,,,,,,,,,,,,,,,,,,,,,,,,,,,,,,,,,,,,,,,,,,,,,,,,,,,,,,,,,,,,,,,,
,,THING,6.149,1,,,,,,stimuli/images/PICTURE_85.png,THING,59e7362fe75b450001a69349,27/05/1937,2020-09-12_09h03.26.260,proactive3.2,2020.1.2,MacIntel,60,5f5adea66120081ea0f57a61,5f5c80b12cde2b45a77321c4,2,,,,,,diamond,,,,,,,,,,,2,0,0,43,43,15,1,,,,,,,,,,,,,,,,,,,,,,,,,,,,,,,,,,,,,,,,,,,,,,,,,,,,,,,,,,,,,,,,,,,,,,
,,?,0.001,0,,,,,,stimuli/images/PICTURE_327.png,BEAUTY,59e7362fe75b450001a69349,27/05/1937,2020-09-12_09h03.26.260,proactive3.2,2020.1.2,MacIntel,60,5f5adea66120081ea0f57a61,5f5c80b12cde2b45a77321c4,2,,,,,,helmet,,,,,,,,,,,5,0,0,44,44,48,1,,,,,,,,,,,,,,,,,,,,,,,,,,,,,,,,,,,,,,,,,,,,,,,,,,,,,,,,,,,,,,,,,,,,,,
,,SAKE,6.819,1,,,,,,stimuli/images/PICTURE_744.png,SAKE,59e7362fe75b450001a69349,27/05/1937,2020-09-12_09h03.26.260,proactive3.2,2020.1.2,MacIntel,60,5f5adea66120081ea0f57a61,5f5c80b12cde2b45a77321c4,2,,,,,,ring,,,,,,,,,,,2,0,0,45,45,17,1,,,,,,,,,,,,,,,,,,,,,,,,,,,,,,,,,,,,,,,,,,,,,,,,,,,,,,,,,,,,,,,,,,,,,,
,,?,0,0,,,,,,stimuli/images/PICTURE_95.png,STYLE,59e7362fe75b450001a69349,27/05/1937,2020-09-12_09h03.26.260,proactive3.2,2020.1.2,MacIntel,60,5f5adea66120081ea0f57a61,5f5c80b12cde2b45a77321c4,2,,,,,,suitcase,,,,,,,,,,,3,0,0,46,46,25,1,,,,,,,,,,,,,,,,,,,,,,,,,,,,,,,,,,,,,,,,,,,,,,,,,,,,,,,,,,,,,,,,,,,,,,
,,?,0.001,0,,,,,,stimuli/images/PICTURE_255.png,AREA,59e7362fe75b450001a69349,27/05/1937,2020-09-12_09h03.26.260,proactive3.2,2020.1.2,MacIntel,60,5f5adea66120081ea0f57a61,5f5c80b12cde2b45a77321c4,2,,,,,,shovel,,,,,,,,,,,3,0,0,47,47,22,1,,,,,,,,,,,,,,,,,,,,,,,,,,,,,,,,,,,,,,,,,,,,,,,,,,,,,,,,,,,,,,,,,,,,,,
,,?,0,0,,,,,,stimuli/images/PICTURE_314.png,SAKE,59e7362fe75b450001a69349,27/05/1937,2020-09-12_09h03.26.260,proactive3.2,2020.1.2,MacIntel,60,5f5adea66120081ea0f57a61,5f5c80b12cde2b45a77321c4,2,,,,,,perfume,,,,,,,,,,,1,0,0,48,48,7,1,,,,,,,,,,,,,,,,,,,,,,,,,,,,,,,,,,,,,,,,,,,,,,,,,,,,,,,,,,,,,,,,,,,,,,
,,WOMEN,6.333,1,,,,,,stimuli/images/PICTURE_688.png,WOMEN,59e7362fe75b450001a69349,27/05/1937,2020-09-12_09h03.26.260,proactive3.2,2020.1.2,MacIntel,60,5f5adea66120081ea0f57a61,5f5c80b12cde2b45a77321c4,2,,,,,,runner,,,,,,,,,,,2,0,0,49,49,14,1,,,,,,,,,,,,,,,,,,,,,,,,,,,,,,,,,,,,,,,,,,,,,,,,,,,,,,,,,,,,,,,,,,,,,,
,,?,0.001,0,,,,,,stimuli/images/PICTURE_32.png,JUNGLE,59e7362fe75b450001a69349,27/05/1937,2020-09-12_09h03.26.260,proactive3.2,2020.1.2,MacIntel,60,5f5adea66120081ea0f57a61,5f5c80b12cde2b45a77321c4,2,,,,,,crown,,,,,,,,,,,5,0,0,50,50,45,1,,,,,,,,,,,,,,,,,,,,,,,,,,,,,,,,,,,,,,,,,,,,,,,,,,,,,,,,,,,,,,,,,,,,,,
,,?,0,0,,,,,,stimuli/images/PICTURE_469.png,LETTER,59e7362fe75b450001a69349,27/05/1937,2020-09-12_09h03.26.260,proactive3.2,2020.1.2,MacIntel,60,5f5adea66120081ea0f57a61,5f5c80b12cde2b45a77321c4,2,,,,,,stool,,,,,,,,,,,5,0,0,51,51,42,1,,,,,,,,,,,,,,,,,,,,,,,,,,,,,,,,,,,,,,,,,,,,,,,,,,,,,,,,,,,,,,,,,,,,,,
,,?,0,0,,,,,,stimuli/images/PICTURE_123.png,ADVICE,59e7362fe75b450001a69349,27/05/1937,2020-09-12_09h03.26.260,proactive3.2,2020.1.2,MacIntel,60,5f5adea66120081ea0f57a61,5f5c80b12cde2b45a77321c4,2,,,,,,dart,,,,,,,,,,,6,0,0,52,52,50,1,,,,,,,,,,,,,,,,,,,,,,,,,,,,,,,,,,,,,,,,,,,,,,,,,,,,,,,,,,,,,,,,,,,,,,
,,?,0,0,,,,,,stimuli/images/PICTURE_380.png,DEATH,59e7362fe75b450001a69349,27/05/1937,2020-09-12_09h03.26.260,proactive3.2,2020.1.2,MacIntel,60,5f5adea66120081ea0f57a61,5f5c80b12cde2b45a77321c4,2,,,,,,gorilla,,,,,,,,,,,5,0,0,53,53,49,1,,,,,,,,,,,,,,,,,,,,,,,,,,,,,,,,,,,,,,,,,,,,,,,,,,,,,,,,,,,,,,,,,,,,,,
,,?,0.001,0,,,,,,stimuli/images/PICTURE_177.png,CARS,59e7362fe75b450001a69349,27/05/1937,2020-09-12_09h03.26.260,proactive3.2,2020.1.2,MacIntel,60,5f5adea66120081ea0f57a61,5f5c80b12cde2b45a77321c4,2,,,,,,mushroom,,,,,,,,,,,4,0,0,54,54,35,1,,,,,,,,,,,,,,,,,,,,,,,,,,,,,,,,,,,,,,,,,,,,,,,,,,,,,,,,,,,,,,,,,,,,,,
,,?,0.001,0,,,,,,stimuli/images/PICTURE_453.png,DUDE,59e7362fe75b450001a69349,27/05/1937,2020-09-12_09h03.26.260,proactive3.2,2020.1.2,MacIntel,60,5f5adea66120081ea0f57a61,5f5c80b12cde2b45a77321c4,2,,,,,,scissors,,,,,,,,,,,3,0,0,55,55,27,1,,,,,,,,,,,,,,,,,,,,,,,,,,,,,,,,,,,,,,,,,,,,,,,,,,,,,,,,,,,,,,,,,,,,,,
,,?,0,0,,,,,,stimuli/images/PICTURE_311.png,FRIEND,59e7362fe75b450001a69349,27/05/1937,2020-09-12_09h03.26.260,proactive3.2,2020.1.2,MacIntel,60,5f5adea66120081ea0f57a61,5f5c80b12cde2b45a77321c4,2,,,,,,razor,,,,,,,,,,,4,0,0,56,56,34,1,,,,,,,,,,,,,,,,,,,,,,,,,,,,,,,,,,,,,,,,,,,,,,,,,,,,,,,,,,,,,,,,,,,,,,
,,?,0.001,0,,,,,,stimuli/images/PICTURE_677.png,MILE,59e7362fe75b450001a69349,27/05/1937,2020-09-12_09h03.26.260,proactive3.2,2020.1.2,MacIntel,60,5f5adea66120081ea0f57a61,5f5c80b12cde2b45a77321c4,2,,,,,,map,,,,,,,,,,,4,0,0,57,57,30,1,,,,,,,,,,,,,,,,,,,,,,,,,,,,,,,,,,,,,,,,,,,,,,,,,,,,,,,,,,,,,,,,,,,,,,
,,?,0.001,0,,,,,,stimuli/images/PICTURE_68.png,MILE,59e7362fe75b450001a69349,27/05/1937,2020-09-12_09h03.26.260,proactive3.2,2020.1.2,MacIntel,60,5f5adea66120081ea0f57a61,5f5c80b12cde2b45a77321c4,2,,,,,,candle,,,,,,,,,,,5,0,0,58,58,44,1,,,,,,,,,,,,,,,,,,,,,,,,,,,,,,,,,,,,,,,,,,,,,,,,,,,,,,,,,,,,,,,,,,,,,,
,,?,0.001,0,,,,,,stimuli/images/PICTURE_339.png,PLENTY,59e7362fe75b450001a69349,27/05/1937,2020-09-12_09h03.26.260,proactive3.2,2020.1.2,MacIntel,60,5f5adea66120081ea0f57a61,5f5c80b12cde2b45a77321c4,2,,,,,,backpack,,,,,,,,,,,1,0,0,59,59,0,1,,,,,,,,,,,,,,,,,,,,,,,,,,,,,,,,,,,,,,,,,,,,,,,,,,,,,,,,,,,,,,,,,,,,,,
,,,,,,,,,,,,59e7362fe75b450001a69349,27/05/1937,2020-09-12_09h03.26.260,proactive3.2,2020.1.2,MacIntel,60,5f5adea66120081ea0f57a61,5f5c80b12cde2b45a77321c4,2,,,,,,,,,,,,,,,,,,,,,,,,0,1,1,0,1,stimuli/learn-block1.csv,,,,,,,,,,,,,,,,,,,,,,,,,,,,,,,,,,,,,,,,,,,,,,,,,,,,,,,,,,,,,,,,
,,,,,,,,,,stimuli/images/PICTURE_68.png,ROOF,59e7362fe75b450001a69349,27/05/1937,2020-09-12_09h03.26.260,proactive3.2,2020.1.2,MacIntel,60,5f5adea66120081ea0f57a61,5f5c80b12cde2b45a77321c4,2,,,,,,candle,,,,,,0,0,0,38,1,4,1,,,,,,,,,,,,,,,,,,,,,,,,,,,,,,,,,,,,,,,,,,,,,,,,,,,,,,,,,,,,,,,,,,,,,,,,,,,
,,,,,,,,,,stimuli/images/PICTURE_285.png,LIFE,59e7362fe75b450001a69349,27/05/1937,2020-09-12_09h03.26.260,proactive3.2,2020.1.2,MacIntel,60,5f5adea66120081ea0f57a61,5f5c80b12cde2b45a77321c4,2,,,,,,carrot,,,,,,0,1,1,33,1,4,1,,,,,,,,,,,,,,,,,,,,,,,,,,,,,,,,,,,,,,,,,,,,,,,,,,,,,,,,,,,,,,,,,,,,,,,,,,,
,,,,,,,,,,stimuli/images/PICTURE_405.png,PLENTY,59e7362fe75b450001a69349,27/05/1937,2020-09-12_09h03.26.260,proactive3.2,2020.1.2,MacIntel,60,5f5adea66120081ea0f57a61,5f5c80b12cde2b45a77321c4,2,,,,,,anchor,,,,,,0,2,2,23,1,3,1,,,,,,,,,,,,,,,,,,,,,,,,,,,,,,,,,,,,,,,,,,,,,,,,,,,,,,,,,,,,,,,,,,,,,,,,,,,
,,,,,,,,,,stimuli/images/PICTURE_208.png,SYSTEM,59e7362fe75b450001a69349,27/05/1937,2020-09-12_09h03.26.260,proactive3.2,2020.1.2,MacIntel,60,5f5adea66120081ea0f57a61,5f5c80b12cde2b45a77321c4,2,,,,,,microphone,,,,,,0,3,3,32,1,4,1,,,,,,,,,,,,,,,,,,,,,,,,,,,,,,,,,,,,,,,,,,,,,,,,,,,,,,,,,,,,,,,,,,,,,,,,,,,
,,,,,,,,,,stimuli/images/PICTURE_147.png,WOMEN,59e7362fe75b450001a69349,27/05/1937,2020-09-12_09h03.26.260,proactive3.2,2020.1.2,MacIntel,60,5f5adea66120081ea0f57a61,5f5c80b12cde2b45a77321c4,2,,,,,,hanger,,,,,,0,4,4,7,1,1,1,,,,,,,,,,,,,,,,,,,,,,,,,,,,,,,,,,,,,,,,,,,,,,,,,,,,,,,,,,,,,,,,,,,,,,,,,,,
,,,,,,,,,,stimuli/images/PICTURE_708.png,RECORD,59e7362fe75b450001a69349,27/05/1937,2020-09-12_09h03.26.260,proactive3.2,2020.1.2,MacIntel,60,5f5adea66120081ea0f57a61,5f5c80b12cde2b45a77321c4,2,,,,,,monkey,,,,,,0,5,5,58,1,6,1,,,,,,,,,,,,,,,,,,,,,,,,,,,,,,,,,,,,,,,,,,,,,,,,,,,,,,,,,,,,,,,,,,,,,,,,,,,
,,,,,,,,,,stimuli/images/PICTURE_504.png,ARTIST,59e7362fe75b450001a69349,27/05/1937,2020-09-12_09h03.26.260,proactive3.2,2020.1.2,MacIntel,60,5f5adea66120081ea0f57a61,5f5c80b12cde2b45a77321c4,2,,,,,,wheel,,,,,,0,6,6,49,1,5,1,,,,,,,,,,,,,,,,,,,,,,,,,,,,,,,,,,,,,,,,,,,,,,,,,,,,,,,,,,,,,,,,,,,,,,,,,,,
,,,,,,,,,,stimuli/images/PICTURE_296.png,LOTS,59e7362fe75b450001a69349,27/05/1937,2020-09-12_09h03.26.260,proactive3.2,2020.1.2,MacIntel,60,5f5adea66120081ea0f57a61,5f5c80b12cde2b45a77321c4,2,,,,,,bolt,,,,,,0,7,7,9,1,1,1,,,,,,,,,,,,,,,,,,,,,,,,,,,,,,,,,,,,,,,,,,,,,,,,,,,,,,,,,,,,,,,,,,,,,,,,,,,
,,,,,,,,,,stimuli/images/PICTURE_403.png,TOILET,59e7362fe75b450001a69349,27/05/1937,2020-09-12_09h03.26.260,proactive3.2,2020.1.2,MacIntel,60,5f5adea66120081ea0f57a61,5f5c80b12cde2b45a77321c4,2,,,,,,cathedral,,,,,,0,8,8,25,1,3,1,,,,,,,,,,,,,,,,,,,,,,,,,,,,,,,,,,,,,,,,,,,,,,,,,,,,,,,,,,,,,,,,,,,,,,,,,,,
,,,,,,,,,,stimuli/images/PICTURE_327.png,SERIES,59e7362fe75b450001a69349,27/05/1937,2020-09-12_09h03.26.260,proactive3.2,2020.1.2,MacIntel,60,5f5adea66120081ea0f57a61,5f5c80b12cde2b45a77321c4,2,,,,,,helmet,,,,,,0,9,9,3,1,1,1,,,,,,,,,,,,,,,,,,,,,,,,,,,,,,,,,,,,,,,,,,,,,,,,,,,,,,,,,,,,,,,,,,,,,,,,,,,
,,,,,,,,,,stimuli/images/PICTURE_95.png,HONEY,59e7362fe75b450001a69349,27/05/1937,2020-09-12_09h03.26.260,proactive3.2,2020.1.2,MacIntel,60,5f5adea66120081ea0f57a61,5f5c80b12cde2b45a77321c4,2,,,,,,suitcase,,,,,,0,10,10,44,1,5,1,,,,,,,,,,,,,,,,,,,,,,,,,,,,,,,,,,,,,,,,,,,,,,,,,,,,,,,,,,,,,,,,,,,,,,,,,,,
,,,,,,,,,,stimuli/images/PICTURE_655.png,TOILET,59e7362fe75b450001a69349,27/05/1937,2020-09-12_09h03.26.260,proactive3.2,2020.1.2,MacIntel,60,5f5adea66120081ea0f57a61,5f5c80b12cde2b45a77321c4,2,,,,,,megaphone,,,,,,0,11,11,12,1,2,1,,,,,,,,,,,,,,,,,,,,,,,,,,,,,,,,,,,,,,,,,,,,,,,,,,,,,,,,,,,,,,,,,,,,,,,,,,,
,,,,,,,,,,stimuli/images/PICTURE_308.png,FAMILY,59e7362fe75b450001a69349,27/05/1937,2020-09-12_09h03.26.260,proactive3.2,2020.1.2,MacIntel,60,5f5adea66120081ea0f57a61,5f5c80b12cde2b45a77321c4,2,,,,,,dice,,,,,,0,12,12,36,1,4,1,,,,,,,,,,,,,,,,,,,,,,,,,,,,,,,,,,,,,,,,,,,,,,,,,,,,,,,,,,,,,,,,,,,,,,,,,,,
,,,,,,,,,,stimuli/images/PICTURE_85.png,TOILET,59e7362fe75b450001a69349,27/05/1937,2020-09-12_09h03.26.260,proactive3.2,2020.1.2,MacIntel,60,5f5adea66120081ea0f57a61,5f5c80b12cde2b45a77321c4,2,,,,,,diamond,,,,,,0,13,13,48,1,5,1,,,,,,,,,,,,,,,,,,,,,,,,,,,,,,,,,,,,,,,,,,,,,,,,,,,,,,,,,,,,,,,,,,,,,,,,,,,
,,,,,,,,,,stimuli/images/PICTURE_654.png,MONTH,59e7362fe75b450001a69349,27/05/1937,2020-09-12_09h03.26.260,proactive3.2,2020.1.2,MacIntel,60,5f5adea66120081ea0f57a61,5f5c80b12cde2b45a77321c4,2,,,,,,pencil,,,,,,0,14,14,29,1,3,1,,,,,,,,,,,,,,,,,,,,,,,,,,,,,,,,,,,,,,,,,,,,,,,,,,,,,,,,,,,,,,,,,,,,,,,,,,,
,,,,,,,,,,stimuli/images/PICTURE_203.png,GODS,59e7362fe75b450001a69349,27/05/1937,2020-09-12_09h03.26.260,proactive3.2,2020.1.2,MacIntel,60,5f5adea66120081ea0f57a61,5f5c80b12cde2b45a77321c4,2,,,,,,cap,,,,,,0,15,15,30,1,4,1,,,,,,,,,,,,,,,,,,,,,,,,,,,,,,,,,,,,,,,,,,,,,,,,,,,,,,,,,,,,,,,,,,,,,,,,,,,
,,,,,,,,,,stimuli/images/PICTURE_405.png,YEAR,59e7362fe75b450001a69349,27/05/1937,2020-09-12_09h03.26.260,proactive3.2,2020.1.2,MacIntel,60,5f5adea66120081ea0f57a61,5f5c80b12cde2b45a77321c4,2,,,,,,anchor,,,,,,0,16,16,34,1,4,1,,,,,,,,,,,,,,,,,,,,,,,,,,,,,,,,,,,,,,,,,,,,,,,,,,,,,,,,,,,,,,,,,,,,,,,,,,,
,,,,,,,,,,stimuli/images/PICTURE_32.png,KIND,59e7362fe75b450001a69349,27/05/1937,2020-09-12_09h03.26.260,proactive3.2,2020.1.2,MacIntel,60,5f5adea66120081ea0f57a61,5f5c80b12cde2b45a77321c4,2,,,,,,crown,,,,,,0,17,17,35,1,4,1,,,,,,,,,,,,,,,,,,,,,,,,,,,,,,,,,,,,,,,,,,,,,,,,,,,,,,,,,,,,,,,,,,,,,,,,,,,
,,,,,,,,,,stimuli/images/PICTURE_108.png,FLIGHT,59e7362fe75b450001a69349,27/05/1937,2020-09-12_09h03.26.260,proactive3.2,2020.1.2,MacIntel,60,5f5adea66120081ea0f57a61,5f5c80b12cde2b45a77321c4,2,,,,,,calendar,,,,,,0,18,18,59,1,6,1,,,,,,,,,,,,,,,,,,,,,,,,,,,,,,,,,,,,,,,,,,,,,,,,,,,,,,,,,,,,,,,,,,,,,,,,,,,
,,,,,,,,,,stimuli/images/PICTURE_383.png,SERIES,59e7362fe75b450001a69349,27/05/1937,2020-09-12_09h03.26.260,proactive3.2,2020.1.2,MacIntel,60,5f5adea66120081ea0f57a61,5f5c80b12cde2b45a77321c4,2,,,,,,coin,,,,,,0,19,19,46,1,5,1,,,,,,,,,,,,,,,,,,,,,,,,,,,,,,,,,,,,,,,,,,,,,,,,,,,,,,,,,,,,,,,,,,,,,,,,,,,
,,,,,,,,,,stimuli/images/PICTURE_677.png,APPLE,59e7362fe75b450001a69349,27/05/1937,2020-09-12_09h03.26.260,proactive3.2,2020.1.2,MacIntel,60,5f5adea66120081ea0f57a61,5f5c80b12cde2b45a77321c4,2,,,,,,map,,,,,,0,20,20,43,1,5,1,,,,,,,,,,,,,,,,,,,,,,,,,,,,,,,,,,,,,,,,,,,,,,,,,,,,,,,,,,,,,,,,,,,,,,,,,,,
,,,,,,,,,,stimuli/images/PICTURE_296.png,LIFE,59e7362fe75b450001a69349,27/05/1937,2020-09-12_09h03.26.260,proactive3.2,2020.1.2,MacIntel,60,5f5adea66120081ea0f57a61,5f5c80b12cde2b45a77321c4,2,,,,,,bolt,,,,,,0,21,21,57,1,6,1,,,,,,,,,,,,,,,,,,,,,,,,,,,,,,,,,,,,,,,,,,,,,,,,,,,,,,,,,,,,,,,,,,,,,,,,,,,
,,,,,,,,,,stimuli/images/PICTURE_57.png,MOMENT,59e7362fe75b450001a69349,27/05/1937,2020-09-12_09h03.26.260,proactive3.2,2020.1.2,MacIntel,60,5f5adea66120081ea0f57a61,5f5c80b12cde2b45a77321c4,2,,,,,,stamp,,,,,,0,22,22,37,1,4,1,,,,,,,,,,,,,,,,,,,,,,,,,,,,,,,,,,,,,,,,,,,,,,,,,,,,,,,,,,,,,,,,,,,,,,,,,,,
,,,,,,,,,,stimuli/images/PICTURE_2.png,FLIGHT,59e7362fe75b450001a69349,27/05/1937,2020-09-12_09h03.26.260,proactive3.2,2020.1.2,MacIntel,60,5f5adea66120081ea0f57a61,5f5c80b12cde2b45a77321c4,2,,,,,,tyre,,,,,,0,23,23,15,1,2,1,,,,,,,,,,,,,,,,,,,,,,,,,,,,,,,,,,,,,,,,,,,,,,,,,,,,,,,,,,,,,,,,,,,,,,,,,,,
,,,,,,,,,,stimuli/images/PICTURE_504.png,YEAR,59e7362fe75b450001a69349,27/05/1937,2020-09-12_09h03.26.260,proactive3.2,2020.1.2,MacIntel,60,5f5adea66120081ea0f57a61,5f5c80b12cde2b45a77321c4,2,,,,,,wheel,,,,,,0,24,24,13,1,2,1,,,,,,,,,,,,,,,,,,,,,,,,,,,,,,,,,,,,,,,,,,,,,,,,,,,,,,,,,,,,,,,,,,,,,,,,,,,
,,,,,,,,,,stimuli/images/PICTURE_108.png,POLICY,59e7362fe75b450001a69349,27/05/1937,2020-09-12_09h03.26.260,proactive3.2,2020.1.2,MacIntel,60,5f5adea66120081ea0f57a61,5f5c80b12cde2b45a77321c4,2,,,,,,calendar,,,,,,0,25,25,22,1,3,1,,,,,,,,,,,,,,,,,,,,,,,,,,,,,,,,,,,,,,,,,,,,,,,,,,,,,,,,,,,,,,,,,,,,,,,,,,,
,,,,,,,,,,stimuli/images/PICTURE_380.png,CANDY,59e7362fe75b450001a69349,27/05/1937,2020-09-12_09h03.26.260,proactive3.2,2020.1.2,MacIntel,60,5f5adea66120081ea0f57a61,5f5c80b12cde2b45a77321c4,2,,,,,,gorilla,,,,,,0,26,26,0,1,1,1,,,,,,,,,,,,,,,,,,,,,,,,,,,,,,,,,,,,,,,,,,,,,,,,,,,,,,,,,,,,,,,,,,,,,,,,,,,
,,,,,,,,,,stimuli/images/PICTURE_504.png,COPS,59e7362fe75b450001a69349,27/05/1937,2020-09-12_09h03.26.260,proactive3.2,2020.1.2,MacIntel,60,5f5adea66120081ea0f57a61,5f5c80b12cde2b45a77321c4,2,,,,,,wheel,,,,,,0,27,27,52,1,6,1,,,,,,,,,,,,,,,,,,,,,,,,,,,,,,,,,,,,,,,,,,,,,,,,,,,,,,,,,,,,,,,,,,,,,,,,,,,
,,,,,,,,,,stimuli/images/PICTURE_340.png,VALLEY,59e7362fe75b450001a69349,27/05/1937,2020-09-12_09h03.26.260,proactive3.2,2020.1.2,MacIntel,60,5f5adea66120081ea0f57a61,5f5c80b12cde2b45a77321c4,2,,,,,,mirror,,,,,,0,28,28,54,1,6,1,,,,,,,,,,,,,,,,,,,,,,,,,,,,,,,,,,,,,,,,,,,,,,,,,,,,,,,,,,,,,,,,,,,,,,,,,,,
,,,,,,,,,,stimuli/images/PICTURE_233.png,LOTS,59e7362fe75b450001a69349,27/05/1937,2020-09-12_09h03.26.260,proactive3.2,2020.1.2,MacIntel,60,5f5adea66120081ea0f57a61,5f5c80b12cde2b45a77321c4,2,,,,,,salt,,,,,,0,29,29,42,1,5,1,,,,,,,,,,,,,,,,,,,,,,,,,,,,,,,,,,,,,,,,,,,,,,,,,,,,,,,,,,,,,,,,,,,,,,,,,,,
,,,,,,,,,,stimuli/images/PICTURE_675.png,SALE,59e7362fe75b450001a69349,27/05/1937,2020-09-12_09h03.26.260,proactive3.2,2020.1.2,MacIntel,60,5f5adea66120081ea0f57a61,5f5c80b12cde2b45a77321c4,2,,,,,,windmill,,,,,,0,30,30,47,1,5,1,,,,,,,,,,,,,,,,,,,,,,,,,,,,,,,,,,,,,,,,,,,,,,,,,,,,,,,,,,,,,,,,,,,,,,,,,,,
,,,,,,,,,,stimuli/images/PICTURE_327.png,CASINO,59e7362fe75b450001a69349,27/05/1937,2020-09-12_09h03.26.260,proactive3.2,2020.1.2,MacIntel,60,5f5adea66120081ea0f57a61,5f5c80b12cde2b45a77321c4,2,,,,,,helmet,,,,,,0,31,31,20,1,3,1,,,,,,,,,,,,,,,,,,,,,,,,,,,,,,,,,,,,,,,,,,,,,,,,,,,,,,,,,,,,,,,,,,,,,,,,,,,
,,,,,,,,,,stimuli/images/PICTURE_33.png,FRIEND,59e7362fe75b450001a69349,27/05/1937,2020-09-12_09h03.26.260,proactive3.2,2020.1.2,MacIntel,60,5f5adea66120081ea0f57a61,5f5c80b12cde2b45a77321c4,2,,,,,,frame,,,,,,0,32,32,8,1,1,1,,,,,,,,,,,,,,,,,,,,,,,,,,,,,,,,,,,,,,,,,,,,,,,,,,,,,,,,,,,,,,,,,,,,,,,,,,,
,,,,,,,,,,stimuli/images/PICTURE_203.png,NIGHT,59e7362fe75b450001a69349,27/05/1937,2020-09-12_09h03.26.260,proactive3.2,2020.1.2,MacIntel,60,5f5adea66120081ea0f57a61,5f5c80b12cde2b45a77321c4,2,,,,,,cap,,,,,,0,33,33,2,1,1,1,,,,,,,,,,,,,,,,,,,,,,,,,,,,,,,,,,,,,,,,,,,,,,,,,,,,,,,,,,,,,,,,,,,,,,,,,,,
,,,,,,,,,,stimuli/images/PICTURE_380.png,HONEY,59e7362fe75b450001a69349,27/05/1937,2020-09-12_09h03.26.260,proactive3.2,2020.1.2,MacIntel,60,5f5adea66120081ea0f57a61,5f5c80b12cde2b45a77321c4,2,,,,,,gorilla,,,,,,0,34,34,19,1,2,1,,,,,,,,,,,,,,,,,,,,,,,,,,,,,,,,,,,,,,,,,,,,,,,,,,,,,,,,,,,,,,,,,,,,,,,,,,,
,,,,,,,,,,stimuli/images/PICTURE_32.png,PILLS,59e7362fe75b450001a69349,27/05/1937,2020-09-12_09h03.26.260,proactive3.2,2020.1.2,MacIntel,60,5f5adea66120081ea0f57a61,5f5c80b12cde2b45a77321c4,2,,,,,,crown,,,,,,0,35,35,18,1,2,1,,,,,,,,,,,,,,,,,,,,,,,,,,,,,,,,,,,,,,,,,,,,,,,,,,,,,,,,,,,,,,,,,,,,,,,,,,,
,,,,,,,,,,stimuli/images/PICTURE_750.png,HOTEL,59e7362fe75b450001a69349,27/05/1937,2020-09-12_09h03.26.260,proactive3.2,2020.1.2,MacIntel,60,5f5adea66120081ea0f57a61,5f5c80b12cde2b45a77321c4,2,,,,,,kettle,,,,,,0,36,36,27,1,3,1,,,,,,,,,,,,,,,,,,,,,,,,,,,,,,,,,,,,,,,,,,,,,,,,,,,,,,,,,,,,,,,,,,,,,,,,,,,
,,,,,,,,,,stimuli/images/PICTURE_685.png,PENNY,59e7362fe75b450001a69349,27/05/1937,2020-09-12_09h03.26.260,proactive3.2,2020.1.2,MacIntel,60,5f5adea66120081ea0f57a61,5f5c80b12cde2b45a77321c4,2,,,,,,goose,,,,,,0,37,37,4,1,1,1,,,,,,,,,,,,,,,,,,,,,,,,,,,,,,,,,,,,,,,,,,,,,,,,,,,,,,,,,,,,,,,,,,,,,,,,,,,
,,,,,,,,,,stimuli/images/PICTURE_147.png,YEAR,59e7362fe75b450001a69349,27/05/1937,2020-09-12_09h03.26.260,proactive3.2,2020.1.2,MacIntel,60,5f5adea66120081ea0f57a61,5f5c80b12cde2b45a77321c4,2,,,,,,hanger,,,,,,0,38,38,21,1,3,1,,,,,,,,,,,,,,,,,,,,,,,,,,,,,,,,,,,,,,,,,,,,,,,,,,,,,,,,,,,,,,,,,,,,,,,,,,,
,,,,,,,,,,stimuli/images/PICTURE_449.png,DUDE,59e7362fe75b450001a69349,27/05/1937,2020-09-12_09h03.26.260,proactive3.2,2020.1.2,MacIntel,60,5f5adea66120081ea0f57a61,5f5c80b12cde2b45a77321c4,2,,,,,,bench,,,,,,0,39,39,17,1,2,1,,,,,,,,,,,,,,,,,,,,,,,,,,,,,,,,,,,,,,,,,,,,,,,,,,,,,,,,,,,,,,,,,,,,,,,,,,,
,,,,,,,,,,stimuli/images/PICTURE_42.png,BOYS,59e7362fe75b450001a69349,27/05/1937,2020-09-12_09h03.26.260,proactive3.2,2020.1.2,MacIntel,60,5f5adea66120081ea0f57a61,5f5c80b12cde2b45a77321c4,2,,,,,,pear,,,,,,0,40,40,55,1,6,1,,,,,,,,,,,,,,,,,,,,,,,,,,,,,,,,,,,,,,,,,,,,,,,,,,,,,,,,,,,,,,,,,,,,,,,,,,,
,,,,,,,,,,stimuli/images/PICTURE_467.png,POLICY,59e7362fe75b450001a69349,27/05/1937,2020-09-12_09h03.26.260,proactive3.2,2020.1.2,MacIntel,60,5f5adea66120081ea0f57a61,5f5c80b12cde2b45a77321c4,2,,,,,,peg,,,,,,0,41,41,53,1,6,1,,,,,,,,,,,,,,,,,,,,,,,,,,,,,,,,,,,,,,,,,,,,,,,,,,,,,,,,,,,,,,,,,,,,,,,,,,,
,,,,,,,,,,stimuli/images/PICTURE_85.png,NATION,59e7362fe75b450001a69349,27/05/1937,2020-09-12_09h03.26.260,proactive3.2,2020.1.2,MacIntel,60,5f5adea66120081ea0f57a61,5f5c80b12cde2b45a77321c4,2,,,,,,diamond,,,,,,0,42,42,5,1,1,1,,,,,,,,,,,,,,,,,,,,,,,,,,,,,,,,,,,,,,,,,,,,,,,,,,,,,,,,,,,,,,,,,,,,,,,,,,,
,,,,,,,,,,stimuli/images/PICTURE_340.png,LETTER,59e7362fe75b450001a69349,27/05/1937,2020-09-12_09h03.26.260,proactive3.2,2020.1.2,MacIntel,60,5f5adea66120081ea0f57a61,5f5c80b12cde2b45a77321c4,2,,,,,,mirror,,,,,,0,43,43,24,1,3,1,,,,,,,,,,,,,,,,,,,,,,,,,,,,,,,,,,,,,,,,,,,,,,,,,,,,,,,,,,,,,,,,,,,,,,,,,,,
,,,,,,,,,,stimuli/images/PICTURE_297.png,RIVER,59e7362fe75b450001a69349,27/05/1937,2020-09-12_09h03.26.260,proactive3.2,2020.1.2,MacIntel,60,5f5adea66120081ea0f57a61,5f5c80b12cde2b45a77321c4,2,,,,,,aeroplane,,,,,,0,44,44,39,1,4,1,,,,,,,,,,,,,,,,,,,,,,,,,,,,,,,,,,,,,,,,,,,,,,,,,,,,,,,,,,,,,,,,,,,,,,,,,,,
,,,,,,,,,,stimuli/images/PICTURE_744.png,WEAPON,59e7362fe75b450001a69349,27/05/1937,2020-09-12_09h03.26.260,proactive3.2,2020.1.2,MacIntel,60,5f5adea66120081ea0f57a61,5f5c80b12cde2b45a77321c4,2,,,,,,ring,,,,,,0,45,45,50,1,6,1,,,,,,,,,,,,,,,,,,,,,,,,,,,,,,,,,,,,,,,,,,,,,,,,,,,,,,,,,,,,,,,,,,,,,,,,,,,
,,,,,,,,,,stimuli/images/PICTURE_68.png,MILE,59e7362fe75b450001a69349,27/05/1937,2020-09-12_09h03.26.260,proactive3.2,2020.1.2,MacIntel,60,5f5adea66120081ea0f57a61,5f5c80b12cde2b45a77321c4,2,,,,,,candle,,,,,,0,46,46,51,1,6,1,,,,,,,,,,,,,,,,,,,,,,,,,,,,,,,,,,,,,,,,,,,,,,,,,,,,,,,,,,,,,,,,,,,,,,,,,,,
,,,,,,,,,,stimuli/images/PICTURE_564.png,BATH,59e7362fe75b450001a69349,27/05/1937,2020-09-12_09h03.26.260,proactive3.2,2020.1.2,MacIntel,60,5f5adea66120081ea0f57a61,5f5c80b12cde2b45a77321c4,2,,,,,,spoon,,,,,,0,47,47,26,1,3,1,,,,,,,,,,,,,,,,,,,,,,,,,,,,,,,,,,,,,,,,,,,,,,,,,,,,,,,,,,,,,,,,,,,,,,,,,,,
,,,,,,,,,,stimuli/images/PICTURE_95.png,BOYS,59e7362fe75b450001a69349,27/05/1937,2020-09-12_09h03.26.260,proactive3.2,2020.1.2,MacIntel,60,5f5adea66120081ea0f57a61,5f5c80b12cde2b45a77321c4,2,,,,,,suitcase,,,,,,0,48,48,1,1,1,1,,,,,,,,,,,,,,,,,,,,,,,,,,,,,,,,,,,,,,,,,,,,,,,,,,,,,,,,,,,,,,,,,,,,,,,,,,,
,,,,,,,,,,stimuli/images/PICTURE_383.png,WRITER,59e7362fe75b450001a69349,27/05/1937,2020-09-12_09h03.26.260,proactive3.2,2020.1.2,MacIntel,60,5f5adea66120081ea0f57a61,5f5c80b12cde2b45a77321c4,2,,,,,,coin,,,,,,0,49,49,28,1,3,1,,,,,,,,,,,,,,,,,,,,,,,,,,,,,,,,,,,,,,,,,,,,,,,,,,,,,,,,,,,,,,,,,,,,,,,,,,,
,,,,,,,,,,stimuli/images/PICTURE_667.png,RIVER,59e7362fe75b450001a69349,27/05/1937,2020-09-12_09h03.26.260,proactive3.2,2020.1.2,MacIntel,60,5f5adea66120081ea0f57a61,5f5c80b12cde2b45a77321c4,2,,,,,,daisy,,,,,,0,50,50,10,1,2,1,,,,,,,,,,,,,,,,,,,,,,,,,,,,,,,,,,,,,,,,,,,,,,,,,,,,,,,,,,,,,,,,,,,,,,,,,,,
,,,,,,,,,,stimuli/images/PICTURE_95.png,MILLER,59e7362fe75b450001a69349,27/05/1937,2020-09-12_09h03.26.260,proactive3.2,2020.1.2,MacIntel,60,5f5adea66120081ea0f57a61,5f5c80b12cde2b45a77321c4,2,,,,,,suitcase,,,,,,0,51,51,56,1,6,1,,,,,,,,,,,,,,,,,,,,,,,,,,,,,,,,,,,,,,,,,,,,,,,,,,,,,,,,,,,,,,,,,,,,,,,,,,,
,,,,,,,,,,stimuli/images/PICTURE_177.png,WRITER,59e7362fe75b450001a69349,27/05/1937,2020-09-12_09h03.26.260,proactive3.2,2020.1.2,MacIntel,60,5f5adea66120081ea0f57a61,5f5c80b12cde2b45a77321c4,2,,,,,,mushroom,,,,,,0,52,52,41,1,5,1,,,,,,,,,,,,,,,,,,,,,,,,,,,,,,,,,,,,,,,,,,,,,,,,,,,,,,,,,,,,,,,,,,,,,,,,,,,
,,,,,,,,,,stimuli/images/PICTURE_487.png,GIRL,59e7362fe75b450001a69349,27/05/1937,2020-09-12_09h03.26.260,proactive3.2,2020.1.2,MacIntel,60,5f5adea66120081ea0f57a61,5f5c80b12cde2b45a77321c4,2,,,,,,basket,,,,,,0,53,53,45,1,5,1,,,,,,,,,,,,,,,,,,,,,,,,,,,,,,,,,,,,,,,,,,,,,,,,,,,,,,,,,,,,,,,,,,,,,,,,,,,
,,,,,,,,,,stimuli/images/PICTURE_403.png,RIVER,59e7362fe75b450001a69349,27/05/1937,2020-09-12_09h03.26.260,proactive3.2,2020.1.2,MacIntel,60,5f5adea66120081ea0f57a61,5f5c80b12cde2b45a77321c4,2,,,,,,cathedral,,,,,,0,54,54,40,1,5,1,,,,,,,,,,,,,,,,,,,,,,,,,,,,,,,,,,,,,,,,,,,,,,,,,,,,,,,,,,,,,,,,,,,,,,,,,,,
,,,,,,,,,,stimuli/images/PICTURE_403.png,WRITER,59e7362fe75b450001a69349,27/05/1937,2020-09-12_09h03.26.260,proactive3.2,2020.1.2,MacIntel,60,5f5adea66120081ea0f57a61,5f5c80b12cde2b45a77321c4,2,,,,,,cathedral,,,,,,0,55,55,31,1,4,1,,,,,,,,,,,,,,,,,,,,,,,,,,,,,,,,,,,,,,,,,,,,,,,,,,,,,,,,,,,,,,,,,,,,,,,,,,,
,,,,,,,,,,stimuli/images/PICTURE_491.png,GLASS,59e7362fe75b450001a69349,27/05/1937,2020-09-12_09h03.26.260,proactive3.2,2020.1.2,MacIntel,60,5f5adea66120081ea0f57a61,5f5c80b12cde2b45a77321c4,2,,,,,,rug,,,,,,0,56,56,14,1,2,1,,,,,,,,,,,,,,,,,,,,,,,,,,,,,,,,,,,,,,,,,,,,,,,,,,,,,,,,,,,,,,,,,,,,,,,,,,,
,,,,,,,,,,stimuli/images/PICTURE_339.png,CLIENT,59e7362fe75b450001a69349,27/05/1937,2020-09-12_09h03.26.260,proactive3.2,2020.1.2,MacIntel,60,5f5adea66120081ea0f57a61,5f5c80b12cde2b45a77321c4,2,,,,,,backpack,,,,,,0,57,57,11,1,2,1,,,,,,,,,,,,,,,,,,,,,,,,,,,,,,,,,,,,,,,,,,,,,,,,,,,,,,,,,,,,,,,,,,,,,,,,,,,
,,,,,,,,,,stimuli/images/PICTURE_491.png,RIVER,59e7362fe75b450001a69349,27/05/1937,2020-09-12_09h03.26.260,proactive3.2,2020.1.2,MacIntel,60,5f5adea66120081ea0f57a61,5f5c80b12cde2b45a77321c4,2,,,,,,rug,,,,,,0,58,58,6,1,1,1,,,,,,,,,,,,,,,,,,,,,,,,,,,,,,,,,,,,,,,,,,,,,,,,,,,,,,,,,,,,,,,,,,,,,,,,,,,
,,?,0.001,0,,,,,,stimuli/images/PICTURE_95.png,BOYS,59e7362fe75b450001a69349,27/05/1937,2020-09-12_09h03.26.260,proactive3.2,2020.1.2,MacIntel,60,5f5adea66120081ea0f57a61,5f5c80b12cde2b45a77321c4,2,,,,,,suitcase,,,,,,,,,,,1,1,0,0,0,1,1,,,,,,,,,,,,,,,,,,,,,,,,,,,,,,,,,,,,,,,,,,,,,,,,,,,,,,,,,,,,,,,,,,,,,,
,,?,0,0,,,,,,stimuli/images/PICTURE_487.png,GIRL,59e7362fe75b450001a69349,27/05/1937,2020-09-12_09h03.26.260,proactive3.2,2020.1.2,MacIntel,60,5f5adea66120081ea0f57a61,5f5c80b12cde2b45a77321c4,2,,,,,,basket,,,,,,,,,,,5,1,0,1,1,45,1,,,,,,,,,,,,,,,,,,,,,,,,,,,,,,,,,,,,,,,,,,,,,,,,,,,,,,,,,,,,,,,,,,,,,,
,,?,0,0,,,,,,stimuli/images/PICTURE_677.png,APPLE,59e7362fe75b450001a69349,27/05/1937,2020-09-12_09h03.26.260,proactive3.2,2020.1.2,MacIntel,60,5f5adea66120081ea0f57a61,5f5c80b12cde2b45a77321c4,2,,,,,,map,,,,,,,,,,,5,1,0,2,2,43,1,,,,,,,,,,,,,,,,,,,,,,,,,,,,,,,,,,,,,,,,,,,,,,,,,,,,,,,,,,,,,,,,,,,,,,
,,?,0,0,,,,,,stimuli/images/PICTURE_403.png,RIVER,59e7362fe75b450001a69349,27/05/1937,2020-09-12_09h03.26.260,proactive3.2,2020.1.2,MacIntel,60,5f5adea66120081ea0f57a61,5f5c80b12cde2b45a77321c4,2,,,,,,cathedral,,,,,,,,,,,5,1,0,3,3,40,1,,,,,,,,,,,,,,,,,,,,,,,,,,,,,,,,,,,,,,,,,,,,,,,,,,,,,,,,,,,,,,,,,,,,,,
,,?,0,0,,,,,,stimuli/images/PICTURE_403.png,WRITER,59e7362fe75b450001a69349,27/05/1937,2020-09-12_09h03.26.260,proactive3.2,2020.1.2,MacIntel,60,5f5adea66120081ea0f57a61,5f5c80b12cde2b45a77321c4,2,,,,,,cathedral,,,,,,,,,,,4,1,0,4,4,31,1,,,,,,,,,,,,,,,,,,,,,,,,,,,,,,,,,,,,,,,,,,,,,,,,,,,,,,,,,,,,,,,,,,,,,,
,,?,0,0,,,,,,stimuli/images/PICTURE_405.png,PLENTY,59e7362fe75b450001a69349,27/05/1937,2020-09-12_09h03.26.260,proactive3.2,2020.1.2,MacIntel,60,5f5adea66120081ea0f57a61,5f5c80b12cde2b45a77321c4,2,,,,,,anchor,,,,,,,,,,,3,1,0,5,5,23,1,,,,,,,,,,,,,,,,,,,,,,,,,,,,,,,,,,,,,,,,,,,,,,,,,,,,,,,,,,,,,,,,,,,,,,
,,GLASS,9.316,0,,,,,,stimuli/images/PICTURE_667.png,RIVER,59e7362fe75b450001a69349,27/05/1937,2020-09-12_09h03.26.260,proactive3.2,2020.1.2,MacIntel,60,5f5adea66120081ea0f57a61,5f5c80b12cde2b45a77321c4,2,,,,,,daisy,,,,,,,,,,,2,1,0,6,6,10,1,,,,,,,,,,,,,,,,,,,,,,,,,,,,,,,,,,,,,,,,,,,,,,,,,,,,,,,,,,,,,,,,,,,,,,
,,?,0.001,0,,,,,,stimuli/images/PICTURE_654.png,MONTH,59e7362fe75b450001a69349,27/05/1937,2020-09-12_09h03.26.260,proactive3.2,2020.1.2,MacIntel,60,5f5adea66120081ea0f57a61,5f5c80b12cde2b45a77321c4,2,,,,,,pencil,,,,,,,,,,,3,1,0,7,7,29,1,,,,,,,,,,,,,,,,,,,,,,,,,,,,,,,,,,,,,,,,,,,,,,,,,,,,,,,,,,,,,,,,,,,,,,
,,?,0.001,0,,,,,,stimuli/images/PICTURE_744.png,WEAPON,59e7362fe75b450001a69349,27/05/1937,2020-09-12_09h03.26.260,proactive3.2,2020.1.2,MacIntel,60,5f5adea66120081ea0f57a61,5f5c80b12cde2b45a77321c4,2,,,,,,ring,,,,,,,,,,,6,1,0,8,8,50,1,,,,,,,,,,,,,,,,,,,,,,,,,,,,,,,,,,,,,,,,,,,,,,,,,,,,,,,,,,,,,,,,,,,,,,
,,FLIGHT,5.868,1,,,,,,stimuli/images/PICTURE_2.png,FLIGHT,59e7362fe75b450001a69349,27/05/1937,2020-09-12_09h03.26.260,proactive3.2,2020.1.2,MacIntel,60,5f5adea66120081ea0f57a61,5f5c80b12cde2b45a77321c4,2,,,,,,tyre,,,,,,,,,,,2,1,0,9,9,15,1,,,,,,,,,,,,,,,,,,,,,,,,,,,,,,,,,,,,,,,,,,,,,,,,,,,,,,,,,,,,,,,,,,,,,,
,,CLIENT,5.853,1,,,,,,stimuli/images/PICTURE_339.png,CLIENT,59e7362fe75b450001a69349,27/05/1937,2020-09-12_09h03.26.260,proactive3.2,2020.1.2,MacIntel,60,5f5adea66120081ea0f57a61,5f5c80b12cde2b45a77321c4,2,,,,,,backpack,,,,,,,,,,,2,1,0,10,10,11,1,,,,,,,,,,,,,,,,,,,,,,,,,,,,,,,,,,,,,,,,,,,,,,,,,,,,,,,,,,,,,,,,,,,,,,
,,AGENT,7.905,0,,,,,,stimuli/images/PICTURE_491.png,GLASS,59e7362fe75b450001a69349,27/05/1937,2020-09-12_09h03.26.260,proactive3.2,2020.1.2,MacIntel,60,5f5adea66120081ea0f57a61,5f5c80b12cde2b45a77321c4,2,,,,,,rug,,,,,,,,,,,2,1,0,11,11,14,1,,,,,,,,,,,,,,,,,,,,,,,,,,,,,,,,,,,,,,,,,,,,,,,,,,,,,,,,,,,,,,,,,,,,,,
,,?,0,0,,,,,,stimuli/images/PICTURE_403.png,TOILET,59e7362fe75b450001a69349,27/05/1937,2020-09-12_09h03.26.260,proactive3.2,2020.1.2,MacIntel,60,5f5adea66120081ea0f57a61,5f5c80b12cde2b45a77321c4,2,,,,,,cathedral,,,,,,,,,,,3,1,0,12,12,25,1,,,,,,,,,,,,,,,,,,,,,,,,,,,,,,,,,,,,,,,,,,,,,,,,,,,,,,,,,,,,,,,,,,,,,,
