consent_key.keys,consent_key.rt,recalled,recalled_rt,recall_acc,example_recall.thisRepN,example_recall.thisTrialN,example_recall.thisN,example_recall.thisIndex,example_recall.ran,file,word,participant,please enter your date of birth (dd/mm/yyyy),date,expName,psychopyVersion,OS,frameRate,STUDY_ID,SESSION_ID,list,prac_learn_study_loop.thisRepN,prac_learn_study_loop.thisTrialN,prac_learn_study_loop.thisN,prac_learn_study_loop.thisIndex,prac_learn_study_loop.ran,image,prac_learn_test_loop.thisRepN,prac_learn_test_loop.thisTrialN,prac_learn_test_loop.thisN,prac_learn_test_loop.thisIndex,prac_learn_test_loop.ran,learn_study_loop.thisRepN,learn_study_loop.thisTrialN,learn_study_loop.thisN,learn_study_loop.thisIndex,learn_study_loop.ran,list_no,block_no,learn_test_loop.thisRepN,learn_test_loop.thisTrialN,learn_test_loop.thisN,learn_test_loop.thisIndex,learn_test_loop.ran,learn_blocks.thisRepN,learn_blocks.thisTrialN,learn_blocks.thisN,learn_blocks.thisIndex,learn_blocks.ran,block_csv,key_resp_13.keys,key_resp_13.rt,learn_blocks_loop.thisRepN,learn_blocks_loop.thisTrialN,learn_blocks_loop.thisN,learn_blocks_loop.thisIndex,learn_blocks_loop.ran,final_learn_test.thisRepN,final_learn_test.thisTrialN,final_learn_test.thisN,final_learn_test.thisIndex,final_learn_test.ran,prac_wm_test_loop.thisRepN,prac_wm_test_loop.thisTrialN,prac_wm_test_loop.thisN,prac_wm_test_loop.thisIndex,prac_wm_test_loop.ran,wm_recalled1,wm_recall_rt1,wm_probed1,wm_recall_acc1,wm_recalled2,wm_recall_rt2,wm_probed2,wm_recall_acc2,wm_recalled3,wm_recall_rt3,wm_probed3,wm_recall_acc3,wm_recalled4,wm_recall_rt4,wm_probed4,wm_recall_acc4,prac_wm_trial_loop.thisRepN,prac_wm_trial_loop.thisTrialN,prac_wm_trial_loop.thisN,prac_wm_trial_loop.thisIndex,prac_wm_trial_loop.ran,word1,image1,file1,item_type1,word2,image2,file2,item_type2,word4,image4,file4,item_type4,word3,image3,file3,item_type3,wm_test_loop.thisRepN,wm_test_loop.thisTrialN,wm_test_loop.thisN,wm_test_loop.thisIndex,wm_test_loop.ran,wm_trial_loop.thisRepN,wm_trial_loop.thisTrialN,wm_trial_loop.thisN,wm_trial_loop.thisIndex,wm_trial_loop.ran
y,6.445545,TOUGH,3.37678,1,0,0,0,0,1,stimuli/images/PICTURE_747.png,TOUGH,5a3117d0715d6a0001118bfc,01/08/1998,2020-09-02_12h28.06.922,proactive3.2,2020.1.2,Win32,60,5f47c0b9b035471e11593a5c,5f4f81a34f8d2d04088954fe,3,,,,,,,,,,,,,,,,,,,,,,,,,,,,,,,,,,,,,,,,,,,,,,,,,,,,,,,,,,,,,,,,,,,,,,,,,,,,,,,,,,,,,,,,,,,,,
,,,,,,,,,,stimuli/images/PICTURE_697.png,KILLER,5a3117d0715d6a0001118bfc,01/08/1998,2020-09-02_12h28.06.922,proactive3.2,2020.1.2,Win32,60,5f47c0b9b035471e11593a5c,5f4f81a34f8d2d04088954fe,3,0,0,0,4,1,peach,,,,,,,,,,,,,,,,,,,,,,,,,,,,,,,,,,,,,,,,,,,,,,,,,,,,,,,,,,,,,,,,,,,,,,,,,,,,,,,,,,,,,,,
,,,,,,,,,,stimuli/images/PICTURE_658.png,DEVIL,5a3117d0715d6a0001118bfc,01/08/1998,2020-09-02_12h28.06.922,proactive3.2,2020.1.2,Win32,60,5f47c0b9b035471e11593a5c,5f4f81a34f8d2d04088954fe,3,0,1,1,3,1,crow,,,,,,,,,,,,,,,,,,,,,,,,,,,,,,,,,,,,,,,,,,,,,,,,,,,,,,,,,,,,,,,,,,,,,,,,,,,,,,,,,,,,,,,
,,,,,,,,,,stimuli/images/PICTURE_269.png,GENIUS,5a3117d0715d6a0001118bfc,01/08/1998,2020-09-02_12h28.06.922,proactive3.2,2020.1.2,Win32,60,5f47c0b9b035471e11593a5c,5f4f81a34f8d2d04088954fe,3,0,2,2,0,1,chameleon,,,,,,,,,,,,,,,,,,,,,,,,,,,,,,,,,,,,,,,,,,,,,,,,,,,,,,,,,,,,,,,,,,,,,,,,,,,,,,,,,,,,,,,
,,,,,,,,,,stimuli/images/PICTURE_727.png,CELL,5a3117d0715d6a0001118bfc,01/08/1998,2020-09-02_12h28.06.922,proactive3.2,2020.1.2,Win32,60,5f47c0b9b035471e11593a5c,5f4f81a34f8d2d04088954fe,3,0,3,3,1,1,hose,,,,,,,,,,,,,,,,,,,,,,,,,,,,,,,,,,,,,,,,,,,,,,,,,,,,,,,,,,,,,,,,,,,,,,,,,,,,,,,,,,,,,,,
,,CELL,3.10023,1,,,,,,stimuli/images/PICTURE_727.png,CELL,5a3117d0715d6a0001118bfc,01/08/1998,2020-09-02_12h28.06.922,proactive3.2,2020.1.2,Win32,60,5f47c0b9b035471e11593a5c,5f4f81a34f8d2d04088954fe,3,,,,,,hose,0,0,0,1,1,,,,,,,,,,,,,,,,,,,,,,,,,,,,,,,,,,,,,,,,,,,,,,,,,,,,,,,,,,,,,,,,,,,,,,,,,,,,,,,,,,
,,GENIUS,2.13435,1,,,,,,stimuli/images/PICTURE_269.png,GENIUS,5a3117d0715d6a0001118bfc,01/08/1998,2020-09-02_12h28.06.922,proactive3.2,2020.1.2,Win32,60,5f47c0b9b035471e11593a5c,5f4f81a34f8d2d04088954fe,3,,,,,,chameleon,0,1,1,0,1,,,,,,,,,,,,,,,,,,,,,,,,,,,,,,,,,,,,,,,,,,,,,,,,,,,,,,,,,,,,,,,,,,,,,,,,,,,,,,,,,,
,,DEVIL,2.585815,1,,,,,,stimuli/images/PICTURE_658.png,DEVIL,5a3117d0715d6a0001118bfc,01/08/1998,2020-09-02_12h28.06.922,proactive3.2,2020.1.2,Win32,60,5f47c0b9b035471e11593a5c,5f4f81a34f8d2d04088954fe,3,,,,,,crow,0,2,2,3,1,,,,,,,,,,,,,,,,,,,,,,,,,,,,,,,,,,,,,,,,,,,,,,,,,,,,,,,,,,,,,,,,,,,,,,,,,,,,,,,,,,
,,LOSS,2.73566,1,,,,,,stimuli/images/PICTURE_378.png,LOSS,5a3117d0715d6a0001118bfc,01/08/1998,2020-09-02_12h28.06.922,proactive3.2,2020.1.2,Win32,60,5f47c0b9b035471e11593a5c,5f4f81a34f8d2d04088954fe,3,,,,,,lobster,0,3,3,2,1,,,,,,,,,,,,,,,,,,,,,,,,,,,,,,,,,,,,,,,,,,,,,,,,,,,,,,,,,,,,,,,,,,,,,,,,,,,,,,,,,,
,,KILLER,2.15188,1,,,,,,stimuli/images/PICTURE_697.png,KILLER,5a3117d0715d6a0001118bfc,01/08/1998,2020-09-02_12h28.06.922,proactive3.2,2020.1.2,Win32,60,5f47c0b9b035471e11593a5c,5f4f81a34f8d2d04088954fe,3,,,,,,peach,0,4,4,4,1,,,,,,,,,,,,,,,,,,,,,,,,,,,,,,,,,,,,,,,,,,,,,,,,,,,,,,,,,,,,,,,,,,,,,,,,,,,,,,,,,,
,,,,,,,,,,stimuli/images/PICTURE_255.png,AREA,5a3117d0715d6a0001118bfc,01/08/1998,2020-09-02_12h28.06.922,proactive3.2,2020.1.2,Win32,60,5f47c0b9b035471e11593a5c,5f4f81a34f8d2d04088954fe,3,,,,,,shovel,,,,,,0,0,0,22,1,3,0,,,,,,,,,,,,,,,,,,,,,,,,,,,,,,,,,,,,,,,,,,,,,,,,,,,,,,,,,,,,,,,,,,,,,,,,,,,
,,,,,,,,,,stimuli/images/PICTURE_449.png,THING,5a3117d0715d6a0001118bfc,01/08/1998,2020-09-02_12h28.06.922,proactive3.2,2020.1.2,Win32,60,5f47c0b9b035471e11593a5c,5f4f81a34f8d2d04088954fe,3,,,,,,bench,,,,,,0,1,1,59,1,6,0,,,,,,,,,,,,,,,,,,,,,,,,,,,,,,,,,,,,,,,,,,,,,,,,,,,,,,,,,,,,,,,,,,,,,,,,,,,
,,,,,,,,,,stimuli/images/PICTURE_469.png,LETTER,5a3117d0715d6a0001118bfc,01/08/1998,2020-09-02_12h28.06.922,proactive3.2,2020.1.2,Win32,60,5f47c0b9b035471e11593a5c,5f4f81a34f8d2d04088954fe,3,,,,,,stool,,,,,,0,2,2,42,1,5,0,,,,,,,,,,,,,,,,,,,,,,,,,,,,,,,,,,,,,,,,,,,,,,,,,,,,,,,,,,,,,,,,,,,,,,,,,,,
,,,,,,,,,,stimuli/images/PICTURE_233.png,WOMEN,5a3117d0715d6a0001118bfc,01/08/1998,2020-09-02_12h28.06.922,proactive3.2,2020.1.2,Win32,60,5f47c0b9b035471e11593a5c,5f4f81a34f8d2d04088954fe,3,,,,,,salt,,,,,,0,3,3,38,1,4,0,,,,,,,,,,,,,,,,,,,,,,,,,,,,,,,,,,,,,,,,,,,,,,,,,,,,,,,,,,,,,,,,,,,,,,,,,,,
,,,,,,,,,,stimuli/images/PICTURE_314.png,GODS,5a3117d0715d6a0001118bfc,01/08/1998,2020-09-02_12h28.06.922,proactive3.2,2020.1.2,Win32,60,5f47c0b9b035471e11593a5c,5f4f81a34f8d2d04088954fe,3,,,,,,perfume,,,,,,0,4,4,11,1,2,0,,,,,,,,,,,,,,,,,,,,,,,,,,,,,,,,,,,,,,,,,,,,,,,,,,,,,,,,,,,,,,,,,,,,,,,,,,,
,,,,,,,,,,stimuli/images/PICTURE_151.png,GIRL,5a3117d0715d6a0001118bfc,01/08/1998,2020-09-02_12h28.06.922,proactive3.2,2020.1.2,Win32,60,5f47c0b9b035471e11593a5c,5f4f81a34f8d2d04088954fe,3,,,,,,tray,,,,,,0,5,5,19,1,2,0,,,,,,,,,,,,,,,,,,,,,,,,,,,,,,,,,,,,,,,,,,,,,,,,,,,,,,,,,,,,,,,,,,,,,,,,,,,
,,,,,,,,,,stimuli/images/PICTURE_744.png,SAKE,5a3117d0715d6a0001118bfc,01/08/1998,2020-09-02_12h28.06.922,proactive3.2,2020.1.2,Win32,60,5f47c0b9b035471e11593a5c,5f4f81a34f8d2d04088954fe,3,,,,,,ring,,,,,,0,6,6,17,1,2,0,,,,,,,,,,,,,,,,,,,,,,,,,,,,,,,,,,,,,,,,,,,,,,,,,,,,,,,,,,,,,,,,,,,,,,,,,,,
,,,,,,,,,,stimuli/images/PICTURE_491.png,WRITER,5a3117d0715d6a0001118bfc,01/08/1998,2020-09-02_12h28.06.922,proactive3.2,2020.1.2,Win32,60,5f47c0b9b035471e11593a5c,5f4f81a34f8d2d04088954fe,3,,,,,,rug,,,,,,0,7,7,57,1,6,0,,,,,,,,,,,,,,,,,,,,,,,,,,,,,,,,,,,,,,,,,,,,,,,,,,,,,,,,,,,,,,,,,,,,,,,,,,,
,,,,,,,,,,stimuli/images/PICTURE_453.png,PLENTY,5a3117d0715d6a0001118bfc,01/08/1998,2020-09-02_12h28.06.922,proactive3.2,2020.1.2,Win32,60,5f47c0b9b035471e11593a5c,5f4f81a34f8d2d04088954fe,3,,,,,,scissors,,,,,,0,8,8,56,1,6,0,,,,,,,,,,,,,,,,,,,,,,,,,,,,,,,,,,,,,,,,,,,,,,,,,,,,,,,,,,,,,,,,,,,,,,,,,,,
,,,,,,,,,,stimuli/images/PICTURE_311.png,FRIEND,5a3117d0715d6a0001118bfc,01/08/1998,2020-09-02_12h28.06.922,proactive3.2,2020.1.2,Win32,60,5f47c0b9b035471e11593a5c,5f4f81a34f8d2d04088954fe,3,,,,,,razor,,,,,,0,9,9,34,1,4,0,,,,,,,,,,,,,,,,,,,,,,,,,,,,,,,,,,,,,,,,,,,,,,,,,,,,,,,,,,,,,,,,,,,,,,,,,,,
,,,,,,,,,,stimuli/images/PICTURE_744.png,SYSTEM,5a3117d0715d6a0001118bfc,01/08/1998,2020-09-02_12h28.06.922,proactive3.2,2020.1.2,Win32,60,5f47c0b9b035471e11593a5c,5f4f81a34f8d2d04088954fe,3,,,,,,ring,,,,,,0,10,10,43,1,5,0,,,,,,,,,,,,,,,,,,,,,,,,,,,,,,,,,,,,,,,,,,,,,,,,,,,,,,,,,,,,,,,,,,,,,,,,,,,
,,,,,,,,,,stimuli/images/PICTURE_504.png,BODY,5a3117d0715d6a0001118bfc,01/08/1998,2020-09-02_12h28.06.922,proactive3.2,2020.1.2,Win32,60,5f47c0b9b035471e11593a5c,5f4f81a34f8d2d04088954fe,3,,,,,,wheel,,,,,,0,11,11,8,1,1,0,,,,,,,,,,,,,,,,,,,,,,,,,,,,,,,,,,,,,,,,,,,,,,,,,,,,,,,,,,,,,,,,,,,,,,,,,,,
,,,,,,,,,,stimuli/images/PICTURE_348.png,SPEECH,5a3117d0715d6a0001118bfc,01/08/1998,2020-09-02_12h28.06.922,proactive3.2,2020.1.2,Win32,60,5f47c0b9b035471e11593a5c,5f4f81a34f8d2d04088954fe,3,,,,,,pepper,,,,,,0,12,12,20,1,3,0,,,,,,,,,,,,,,,,,,,,,,,,,,,,,,,,,,,,,,,,,,,,,,,,,,,,,,,,,,,,,,,,,,,,,,,,,,,
,,,,,,,,,,stimuli/images/PICTURE_147.png,MOMENT,5a3117d0715d6a0001118bfc,01/08/1998,2020-09-02_12h28.06.922,proactive3.2,2020.1.2,Win32,60,5f47c0b9b035471e11593a5c,5f4f81a34f8d2d04088954fe,3,,,,,,hanger,,,,,,0,13,13,51,1,6,0,,,,,,,,,,,,,,,,,,,,,,,,,,,,,,,,,,,,,,,,,,,,,,,,,,,,,,,,,,,,,,,,,,,,,,,,,,,
,,,,,,,,,,stimuli/images/PICTURE_160.png,LEADER,5a3117d0715d6a0001118bfc,01/08/1998,2020-09-02_12h28.06.922,proactive3.2,2020.1.2,Win32,60,5f47c0b9b035471e11593a5c,5f4f81a34f8d2d04088954fe,3,,,,,,wheelbarrow,,,,,,0,14,14,3,1,1,0,,,,,,,,,,,,,,,,,,,,,,,,,,,,,,,,,,,,,,,,,,,,,,,,,,,,,,,,,,,,,,,,,,,,,,,,,,,
,,,,,,,,,,stimuli/images/PICTURE_302.png,FAMILY,5a3117d0715d6a0001118bfc,01/08/1998,2020-09-02_12h28.06.922,proactive3.2,2020.1.2,Win32,60,5f47c0b9b035471e11593a5c,5f4f81a34f8d2d04088954fe,3,,,,,,taxi,,,,,,0,15,15,18,1,2,0,,,,,,,,,,,,,,,,,,,,,,,,,,,,,,,,,,,,,,,,,,,,,,,,,,,,,,,,,,,,,,,,,,,,,,,,,,,
,,,,,,,,,,stimuli/images/PICTURE_208.png,LOTS,5a3117d0715d6a0001118bfc,01/08/1998,2020-09-02_12h28.06.922,proactive3.2,2020.1.2,Win32,60,5f47c0b9b035471e11593a5c,5f4f81a34f8d2d04088954fe,3,,,,,,microphone,,,,,,0,16,16,10,1,2,0,,,,,,,,,,,,,,,,,,,,,,,,,,,,,,,,,,,,,,,,,,,,,,,,,,,,,,,,,,,,,,,,,,,,,,,,,,,
,,,,,,,,,,stimuli/images/PICTURE_675.png,WEAPON,5a3117d0715d6a0001118bfc,01/08/1998,2020-09-02_12h28.06.922,proactive3.2,2020.1.2,Win32,60,5f47c0b9b035471e11593a5c,5f4f81a34f8d2d04088954fe,3,,,,,,windmill,,,,,,0,17,17,32,1,4,0,,,,,,,,,,,,,,,,,,,,,,,,,,,,,,,,,,,,,,,,,,,,,,,,,,,,,,,,,,,,,,,,,,,,,,,,,,,
,,,,,,,,,,stimuli/images/PICTURE_708.png,CLIENT,5a3117d0715d6a0001118bfc,01/08/1998,2020-09-02_12h28.06.922,proactive3.2,2020.1.2,Win32,60,5f47c0b9b035471e11593a5c,5f4f81a34f8d2d04088954fe,3,,,,,,monkey,,,,,,0,18,18,5,1,1,0,,,,,,,,,,,,,,,,,,,,,,,,,,,,,,,,,,,,,,,,,,,,,,,,,,,,,,,,,,,,,,,,,,,,,,,,,,,
,,,,,,,,,,stimuli/images/PICTURE_308.png,KIND,5a3117d0715d6a0001118bfc,01/08/1998,2020-09-02_12h28.06.922,proactive3.2,2020.1.2,Win32,60,5f47c0b9b035471e11593a5c,5f4f81a34f8d2d04088954fe,3,,,,,,dice,,,,,,0,19,19,54,1,6,0,,,,,,,,,,,,,,,,,,,,,,,,,,,,,,,,,,,,,,,,,,,,,,,,,,,,,,,,,,,,,,,,,,,,,,,,,,,
,,,,,,,,,,stimuli/images/PICTURE_380.png,PHOTO,5a3117d0715d6a0001118bfc,01/08/1998,2020-09-02_12h28.06.922,proactive3.2,2020.1.2,Win32,60,5f47c0b9b035471e11593a5c,5f4f81a34f8d2d04088954fe,3,,,,,,gorilla,,,,,,0,20,20,52,1,6,0,,,,,,,,,,,,,,,,,,,,,,,,,,,,,,,,,,,,,,,,,,,,,,,,,,,,,,,,,,,,,,,,,,,,,,,,,,,
,,,,,,,,,,stimuli/images/PICTURE_68.png,MILE,5a3117d0715d6a0001118bfc,01/08/1998,2020-09-02_12h28.06.922,proactive3.2,2020.1.2,Win32,60,5f47c0b9b035471e11593a5c,5f4f81a34f8d2d04088954fe,3,,,,,,candle,,,,,,0,21,21,44,1,5,0,,,,,,,,,,,,,,,,,,,,,,,,,,,,,,,,,,,,,,,,,,,,,,,,,,,,,,,,,,,,,,,,,,,,,,,,,,,
,,,,,,,,,,stimuli/images/PICTURE_487.png,FLIGHT,5a3117d0715d6a0001118bfc,01/08/1998,2020-09-02_12h28.06.922,proactive3.2,2020.1.2,Win32,60,5f47c0b9b035471e11593a5c,5f4f81a34f8d2d04088954fe,3,,,,,,basket,,,,,,0,22,22,9,1,1,0,,,,,,,,,,,,,,,,,,,,,,,,,,,,,,,,,,,,,,,,,,,,,,,,,,,,,,,,,,,,,,,,,,,,,,,,,,,
,,,,,,,,,,stimuli/images/PICTURE_453.png,DUDE,5a3117d0715d6a0001118bfc,01/08/1998,2020-09-02_12h28.06.922,proactive3.2,2020.1.2,Win32,60,5f47c0b9b035471e11593a5c,5f4f81a34f8d2d04088954fe,3,,,,,,scissors,,,,,,0,23,23,27,1,3,0,,,,,,,,,,,,,,,,,,,,,,,,,,,,,,,,,,,,,,,,,,,,,,,,,,,,,,,,,,,,,,,,,,,,,,,,,,,
,,,,,,,,,,stimuli/images/PICTURE_688.png,CASINO,5a3117d0715d6a0001118bfc,01/08/1998,2020-09-02_12h28.06.922,proactive3.2,2020.1.2,Win32,60,5f47c0b9b035471e11593a5c,5f4f81a34f8d2d04088954fe,3,,,,,,runner,,,,,,0,24,24,2,1,1,0,,,,,,,,,,,,,,,,,,,,,,,,,,,,,,,,,,,,,,,,,,,,,,,,,,,,,,,,,,,,,,,,,,,,,,,,,,,
,,,,,,,,,,stimuli/images/PICTURE_488.png,STYLE,5a3117d0715d6a0001118bfc,01/08/1998,2020-09-02_12h28.06.922,proactive3.2,2020.1.2,Win32,60,5f47c0b9b035471e11593a5c,5f4f81a34f8d2d04088954fe,3,,,,,,sun,,,,,,0,25,25,33,1,4,0,,,,,,,,,,,,,,,,,,,,,,,,,,,,,,,,,,,,,,,,,,,,,,,,,,,,,,,,,,,,,,,,,,,,,,,,,,,
,,,,,,,,,,stimuli/images/PICTURE_123.png,ADVICE,5a3117d0715d6a0001118bfc,01/08/1998,2020-09-02_12h28.06.922,proactive3.2,2020.1.2,Win32,60,5f47c0b9b035471e11593a5c,5f4f81a34f8d2d04088954fe,3,,,,,,dart,,,,,,0,26,26,40,1,5,0,,,,,,,,,,,,,,,,,,,,,,,,,,,,,,,,,,,,,,,,,,,,,,,,,,,,,,,,,,,,,,,,,,,,,,,,,,,
,,,,,,,,,,stimuli/images/PICTURE_708.png,PENNY,5a3117d0715d6a0001118bfc,01/08/1998,2020-09-02_12h28.06.922,proactive3.2,2020.1.2,Win32,60,5f47c0b9b035471e11593a5c,5f4f81a34f8d2d04088954fe,3,,,,,,monkey,,,,,,0,27,27,31,1,4,0,,,,,,,,,,,,,,,,,,,,,,,,,,,,,,,,,,,,,,,,,,,,,,,,,,,,,,,,,,,,,,,,,,,,,,,,,,,
,,,,,,,,,,stimuli/images/PICTURE_95.png,STYLE,5a3117d0715d6a0001118bfc,01/08/1998,2020-09-02_12h28.06.922,proactive3.2,2020.1.2,Win32,60,5f47c0b9b035471e11593a5c,5f4f81a34f8d2d04088954fe,3,,,,,,suitcase,,,,,,0,28,28,25,1,3,0,,,,,,,,,,,,,,,,,,,,,,,,,,,,,,,,,,,,,,,,,,,,,,,,,,,,,,,,,,,,,,,,,,,,,,,,,,,
,,,,,,,,,,stimuli/images/PICTURE_215.png,PLENTY,5a3117d0715d6a0001118bfc,01/08/1998,2020-09-02_12h28.06.922,proactive3.2,2020.1.2,Win32,60,5f47c0b9b035471e11593a5c,5f4f81a34f8d2d04088954fe,3,,,,,,boot,,,,,,0,29,29,37,1,4,0,,,,,,,,,,,,,,,,,,,,,,,,,,,,,,,,,,,,,,,,,,,,,,,,,,,,,,,,,,,,,,,,,,,,,,,,,,,
,,,,,,,,,,stimuli/images/PICTURE_85.png,THING,5a3117d0715d6a0001118bfc,01/08/1998,2020-09-02_12h28.06.922,proactive3.2,2020.1.2,Win32,60,5f47c0b9b035471e11593a5c,5f4f81a34f8d2d04088954fe,3,,,,,,diamond,,,,,,0,30,30,15,1,2,0,,,,,,,,,,,,,,,,,,,,,,,,,,,,,,,,,,,,,,,,,,,,,,,,,,,,,,,,,,,,,,,,,,,,,,,,,,,
,,,,,,,,,,stimuli/images/PICTURE_491.png,ROOF,5a3117d0715d6a0001118bfc,01/08/1998,2020-09-02_12h28.06.922,proactive3.2,2020.1.2,Win32,60,5f47c0b9b035471e11593a5c,5f4f81a34f8d2d04088954fe,3,,,,,,rug,,,,,,0,31,31,24,1,3,0,,,,,,,,,,,,,,,,,,,,,,,,,,,,,,,,,,,,,,,,,,,,,,,,,,,,,,,,,,,,,,,,,,,,,,,,,,,
,,,,,,,,,,stimuli/images/PICTURE_233.png,IDEAS,5a3117d0715d6a0001118bfc,01/08/1998,2020-09-02_12h28.06.922,proactive3.2,2020.1.2,Win32,60,5f47c0b9b035471e11593a5c,5f4f81a34f8d2d04088954fe,3,,,,,,salt,,,,,,0,32,32,28,1,3,0,,,,,,,,,,,,,,,,,,,,,,,,,,,,,,,,,,,,,,,,,,,,,,,,,,,,,,,,,,,,,,,,,,,,,,,,,,,
,,,,,,,,,,stimuli/images/PICTURE_470.png,CASINO,5a3117d0715d6a0001118bfc,01/08/1998,2020-09-02_12h28.06.922,proactive3.2,2020.1.2,Win32,60,5f47c0b9b035471e11593a5c,5f4f81a34f8d2d04088954fe,3,,,,,,motorbike,,,,,,0,33,33,36,1,4,0,,,,,,,,,,,,,,,,,,,,,,,,,,,,,,,,,,,,,,,,,,,,,,,,,,,,,,,,,,,,,,,,,,,,,,,,,,,
,,,,,,,,,,stimuli/images/PICTURE_177.png,CARS,5a3117d0715d6a0001118bfc,01/08/1998,2020-09-02_12h28.06.922,proactive3.2,2020.1.2,Win32,60,5f47c0b9b035471e11593a5c,5f4f81a34f8d2d04088954fe,3,,,,,,mushroom,,,,,,0,34,34,35,1,4,0,,,,,,,,,,,,,,,,,,,,,,,,,,,,,,,,,,,,,,,,,,,,,,,,,,,,,,,,,,,,,,,,,,,,,,,,,,,
,,,,,,,,,,stimuli/images/PICTURE_314.png,SAKE,5a3117d0715d6a0001118bfc,01/08/1998,2020-09-02_12h28.06.922,proactive3.2,2020.1.2,Win32,60,5f47c0b9b035471e11593a5c,5f4f81a34f8d2d04088954fe,3,,,,,,perfume,,,,,,0,35,35,7,1,1,0,,,,,,,,,,,,,,,,,,,,,,,,,,,,,,,,,,,,,,,,,,,,,,,,,,,,,,,,,,,,,,,,,,,,,,,,,,,
,,,,,,,,,,stimuli/images/PICTURE_123.png,ADVICE,5a3117d0715d6a0001118bfc,01/08/1998,2020-09-02_12h28.06.922,proactive3.2,2020.1.2,Win32,60,5f47c0b9b035471e11593a5c,5f4f81a34f8d2d04088954fe,3,,,,,,dart,,,,,,0,36,36,50,1,6,0,,,,,,,,,,,,,,,,,,,,,,,,,,,,,,,,,,,,,,,,,,,,,,,,,,,,,,,,,,,,,,,,,,,,,,,,,,,
,,,,,,,,,,stimuli/images/PICTURE_32.png,JUNGLE,5a3117d0715d6a0001118bfc,01/08/1998,2020-09-02_12h28.06.922,proactive3.2,2020.1.2,Win32,60,5f47c0b9b035471e11593a5c,5f4f81a34f8d2d04088954fe,3,,,,,,crown,,,,,,0,37,37,45,1,5,0,,,,,,,,,,,,,,,,,,,,,,,,,,,,,,,,,,,,,,,,,,,,,,,,,,,,,,,,,,,,,,,,,,,,,,,,,,,
,,,,,,,,,,stimuli/images/PICTURE_248.png,DOZEN,5a3117d0715d6a0001118bfc,01/08/1998,2020-09-02_12h28.06.922,proactive3.2,2020.1.2,Win32,60,5f47c0b9b035471e11593a5c,5f4f81a34f8d2d04088954fe,3,,,,,,cart,,,,,,0,38,38,39,1,4,0,,,,,,,,,,,,,,,,,,,,,,,,,,,,,,,,,,,,,,,,,,,,,,,,,,,,,,,,,,,,,,,,,,,,,,,,,,,
,,,,,,,,,,stimuli/images/PICTURE_380.png,DEATH,5a3117d0715d6a0001118bfc,01/08/1998,2020-09-02_12h28.06.922,proactive3.2,2020.1.2,Win32,60,5f47c0b9b035471e11593a5c,5f4f81a34f8d2d04088954fe,3,,,,,,gorilla,,,,,,0,39,39,49,1,5,0,,,,,,,,,,,,,,,,,,,,,,,,,,,,,,,,,,,,,,,,,,,,,,,,,,,,,,,,,,,,,,,,,,,,,,,,,,,
,,,,,,,,,,stimuli/images/PICTURE_208.png,MONTH,5a3117d0715d6a0001118bfc,01/08/1998,2020-09-02_12h28.06.922,proactive3.2,2020.1.2,Win32,60,5f47c0b9b035471e11593a5c,5f4f81a34f8d2d04088954fe,3,,,,,,microphone,,,,,,0,40,40,53,1,6,0,,,,,,,,,,,,,,,,,,,,,,,,,,,,,,,,,,,,,,,,,,,,,,,,,,,,,,,,,,,,,,,,,,,,,,,,,,,
,,,,,,,,,,stimuli/images/PICTURE_160.png,FEET,5a3117d0715d6a0001118bfc,01/08/1998,2020-09-02_12h28.06.922,proactive3.2,2020.1.2,Win32,60,5f47c0b9b035471e11593a5c,5f4f81a34f8d2d04088954fe,3,,,,,,wheelbarrow,,,,,,0,41,41,58,1,6,0,,,,,,,,,,,,,,,,,,,,,,,,,,,,,,,,,,,,,,,,,,,,,,,,,,,,,,,,,,,,,,,,,,,,,,,,,,,
,,,,,,,,,,stimuli/images/PICTURE_356.png,DANGER,5a3117d0715d6a0001118bfc,01/08/1998,2020-09-02_12h28.06.922,proactive3.2,2020.1.2,Win32,60,5f47c0b9b035471e11593a5c,5f4f81a34f8d2d04088954fe,3,,,,,,pawn,,,,,,0,42,42,55,1,6,0,,,,,,,,,,,,,,,,,,,,,,,,,,,,,,,,,,,,,,,,,,,,,,,,,,,,,,,,,,,,,,,,,,,,,,,,,,,
,,,,,,,,,,stimuli/images/PICTURE_311.png,BEAUTY,5a3117d0715d6a0001118bfc,01/08/1998,2020-09-02_12h28.06.922,proactive3.2,2020.1.2,Win32,60,5f47c0b9b035471e11593a5c,5f4f81a34f8d2d04088954fe,3,,,,,,razor,,,,,,0,43,43,13,1,2,0,,,,,,,,,,,,,,,,,,,,,,,,,,,,,,,,,,,,,,,,,,,,,,,,,,,,,,,,,,,,,,,,,,,,,,,,,,,
,,,,,,,,,,stimuli/images/PICTURE_467.png,DEMON,5a3117d0715d6a0001118bfc,01/08/1998,2020-09-02_12h28.06.922,proactive3.2,2020.1.2,Win32,60,5f47c0b9b035471e11593a5c,5f4f81a34f8d2d04088954fe,3,,,,,,peg,,,,,,0,44,44,23,1,3,0,,,,,,,,,,,,,,,,,,,,,,,,,,,,,,,,,,,,,,,,,,,,,,,,,,,,,,,,,,,,,,,,,,,,,,,,,,,
,,,,,,,,,,stimuli/images/PICTURE_692.png,MONTH,5a3117d0715d6a0001118bfc,01/08/1998,2020-09-02_12h28.06.922,proactive3.2,2020.1.2,Win32,60,5f47c0b9b035471e11593a5c,5f4f81a34f8d2d04088954fe,3,,,,,,cherry,,,,,,0,45,45,16,1,2,0,,,,,,,,,,,,,,,,,,,,,,,,,,,,,,,,,,,,,,,,,,,,,,,,,,,,,,,,,,,,,,,,,,,,,,,,,,,
,,,,,,,,,,stimuli/images/PICTURE_708.png,YARD,5a3117d0715d6a0001118bfc,01/08/1998,2020-09-02_12h28.06.922,proactive3.2,2020.1.2,Win32,60,5f47c0b9b035471e11593a5c,5f4f81a34f8d2d04088954fe,3,,,,,,monkey,,,,,,0,46,46,29,1,3,0,,,,,,,,,,,,,,,,,,,,,,,,,,,,,,,,,,,,,,,,,,,,,,,,,,,,,,,,,,,,,,,,,,,,,,,,,,,
,,,,,,,,,,stimuli/images/PICTURE_667.png,PLENTY,5a3117d0715d6a0001118bfc,01/08/1998,2020-09-02_12h28.06.922,proactive3.2,2020.1.2,Win32,60,5f47c0b9b035471e11593a5c,5f4f81a34f8d2d04088954fe,3,,,,,,daisy,,,,,,0,47,47,41,1,5,0,,,,,,,,,,,,,,,,,,,,,,,,,,,,,,,,,,,,,,,,,,,,,,,,,,,,,,,,,,,,,,,,,,,,,,,,,,,
,,,,,,,,,,stimuli/images/PICTURE_203.png,ARTIST,5a3117d0715d6a0001118bfc,01/08/1998,2020-09-02_12h28.06.922,proactive3.2,2020.1.2,Win32,60,5f47c0b9b035471e11593a5c,5f4f81a34f8d2d04088954fe,3,,,,,,cap,,,,,,0,48,48,26,1,3,0,,,,,,,,,,,,,,,,,,,,,,,,,,,,,,,,,,,,,,,,,,,,,,,,,,,,,,,,,,,,,,,,,,,,,,,,,,,
,,,,,,,,,,stimuli/images/PICTURE_285.png,ADVICE,5a3117d0715d6a0001118bfc,01/08/1998,2020-09-02_12h28.06.922,proactive3.2,2020.1.2,Win32,60,5f47c0b9b035471e11593a5c,5f4f81a34f8d2d04088954fe,3,,,,,,carrot,,,,,,0,49,49,12,1,2,0,,,,,,,,,,,,,,,,,,,,,,,,,,,,,,,,,,,,,,,,,,,,,,,,,,,,,,,,,,,,,,,,,,,,,,,,,,,
,,,,,,,,,,stimuli/images/PICTURE_688.png,WOMEN,5a3117d0715d6a0001118bfc,01/08/1998,2020-09-02_12h28.06.922,proactive3.2,2020.1.2,Win32,60,5f47c0b9b035471e11593a5c,5f4f81a34f8d2d04088954fe,3,,,,,,runner,,,,,,0,50,50,14,1,2,0,,,,,,,,,,,,,,,,,,,,,,,,,,,,,,,,,,,,,,,,,,,,,,,,,,,,,,,,,,,,,,,,,,,,,,,,,,,
,,,,,,,,,,stimuli/images/PICTURE_654.png,VALLEY,5a3117d0715d6a0001118bfc,01/08/1998,2020-09-02_12h28.06.922,proactive3.2,2020.1.2,Win32,60,5f47c0b9b035471e11593a5c,5f4f81a34f8d2d04088954fe,3,,,,,,pencil,,,,,,0,51,51,1,1,1,0,,,,,,,,,,,,,,,,,,,,,,,,,,,,,,,,,,,,,,,,,,,,,,,,,,,,,,,,,,,,,,,,,,,,,,,,,,,
,,,,,,,,,,stimuli/images/PICTURE_469.png,ARTIST,5a3117d0715d6a0001118bfc,01/08/1998,2020-09-02_12h28.06.922,proactive3.2,2020.1.2,Win32,60,5f47c0b9b035471e11593a5c,5f4f81a34f8d2d04088954fe,3,,,,,,stool,,,,,,0,52,52,6,1,1,0,,,,,,,,,,,,,,,,,,,,,,,,,,,,,,,,,,,,,,,,,,,,,,,,,,,,,,,,,,,,,,,,,,,,,,,,,,,
,,,,,,,,,,stimuli/images/PICTURE_667.png,BATH,5a3117d0715d6a0001118bfc,01/08/1998,2020-09-02_12h28.06.922,proactive3.2,2020.1.2,Win32,60,5f47c0b9b035471e11593a5c,5f4f81a34f8d2d04088954fe,3,,,,,,daisy,,,,,,0,53,53,4,1,1,0,,,,,,,,,,,,,,,,,,,,,,,,,,,,,,,,,,,,,,,,,,,,,,,,,,,,,,,,,,,,,,,,,,,,,,,,,,,
,,,,,,,,,,stimuli/images/PICTURE_208.png,THING,5a3117d0715d6a0001118bfc,01/08/1998,2020-09-02_12h28.06.922,proactive3.2,2020.1.2,Win32,60,5f47c0b9b035471e11593a5c,5f4f81a34f8d2d04088954fe,3,,,,,,microphone,,,,,,0,54,54,47,1,5,0,,,,,,,,,,,,,,,,,,,,,,,,,,,,,,,,,,,,,,,,,,,,,,,,,,,,,,,,,,,,,,,,,,,,,,,,,,,
,,,,,,,,,,stimuli/images/PICTURE_327.png,BEAUTY,5a3117d0715d6a0001118bfc,01/08/1998,2020-09-02_12h28.06.922,proactive3.2,2020.1.2,Win32,60,5f47c0b9b035471e11593a5c,5f4f81a34f8d2d04088954fe,3,,,,,,helmet,,,,,,0,55,55,48,1,5,0,,,,,,,,,,,,,,,,,,,,,,,,,,,,,,,,,,,,,,,,,,,,,,,,,,,,,,,,,,,,,,,,,,,,,,,,,,,
,,,,,,,,,,stimuli/images/PICTURE_509.png,PHOTO,5a3117d0715d6a0001118bfc,01/08/1998,2020-09-02_12h28.06.922,proactive3.2,2020.1.2,Win32,60,5f47c0b9b035471e11593a5c,5f4f81a34f8d2d04088954fe,3,,,,,,telephone,,,,,,0,56,56,21,1,3,0,,,,,,,,,,,,,,,,,,,,,,,,,,,,,,,,,,,,,,,,,,,,,,,,,,,,,,,,,,,,,,,,,,,,,,,,,,,
,,,,,,,,,,stimuli/images/PICTURE_308.png,ESTATE,5a3117d0715d6a0001118bfc,01/08/1998,2020-09-02_12h28.06.922,proactive3.2,2020.1.2,Win32,60,5f47c0b9b035471e11593a5c,5f4f81a34f8d2d04088954fe,3,,,,,,dice,,,,,,0,57,57,46,1,5,0,,,,,,,,,,,,,,,,,,,,,,,,,,,,,,,,,,,,,,,,,,,,,,,,,,,,,,,,,,,,,,,,,,,,,,,,,,,
,,,,,,,,,,stimuli/images/PICTURE_677.png,MILE,5a3117d0715d6a0001118bfc,01/08/1998,2020-09-02_12h28.06.922,proactive3.2,2020.1.2,Win32,60,5f47c0b9b035471e11593a5c,5f4f81a34f8d2d04088954fe,3,,,,,,map,,,,,,0,58,58,30,1,4,0,,,,,,,,,,,,,,,,,,,,,,,,,,,,,,,,,,,,,,,,,,,,,,,,,,,,,,,,,,,,,,,,,,,,,,,,,,,
,,?,0.000835,0,,,,,,stimuli/images/PICTURE_68.png,MILE,5a3117d0715d6a0001118bfc,01/08/1998,2020-09-02_12h28.06.922,proactive3.2,2020.1.2,Win32,60,5f47c0b9b035471e11593a5c,5f4f81a34f8d2d04088954fe,3,,,,,,candle,,,,,,,,,,,5,0,0,0,0,44,1,,,,,,,,,,,,,,,,,,,,,,,,,,,,,,,,,,,,,,,,,,,,,,,,,,,,,,,,,,,,,,,,,,,,,,
,,DUDE,2.47977,1,,,,,,stimuli/images/PICTURE_453.png,DUDE,5a3117d0715d6a0001118bfc,01/08/1998,2020-09-02_12h28.06.922,proactive3.2,2020.1.2,Win32,60,5f47c0b9b035471e11593a5c,5f4f81a34f8d2d04088954fe,3,,,,,,scissors,,,,,,,,,,,3,0,0,1,1,27,1,,,,,,,,,,,,,,,,,,,,,,,,,,,,,,,,,,,,,,,,,,,,,,,,,,,,,,,,,,,,,,,,,,,,,,
,,?,0.000945,0,,,,,,stimuli/images/PICTURE_380.png,DEATH,5a3117d0715d6a0001118bfc,01/08/1998,2020-09-02_12h28.06.922,proactive3.2,2020.1.2,Win32,60,5f47c0b9b035471e11593a5c,5f4f81a34f8d2d04088954fe,3,,,,,,gorilla,,,,,,,,,,,5,0,0,2,2,49,1,,,,,,,,,,,,,,,,,,,,,,,,,,,,,,,,,,,,,,,,,,,,,,,,,,,,,,,,,,,,,,,,,,,,,,
,,?,0.000595,0,,,,,,stimuli/images/PICTURE_744.png,SYSTEM,5a3117d0715d6a0001118bfc,01/08/1998,2020-09-02_12h28.06.922,proactive3.2,2020.1.2,Win32,60,5f47c0b9b035471e11593a5c,5f4f81a34f8d2d04088954fe,3,,,,,,ring,,,,,,,,,,,5,0,0,3,3,43,1,,,,,,,,,,,,,,,,,,,,,,,,,,,,,,,,,,,,,,,,,,,,,,,,,,,,,,,,,,,,,,,,,,,,,,
,,DEMON,5.468405,1,,,,,,stimuli/images/PICTURE_467.png,DEMON,5a3117d0715d6a0001118bfc,01/08/1998,2020-09-02_12h28.06.922,proactive3.2,2020.1.2,Win32,60,5f47c0b9b035471e11593a5c,5f4f81a34f8d2d04088954fe,3,,,,,,peg,,,,,,,,,,,3,0,0,4,4,23,1,,,,,,,,,,,,,,,,,,,,,,,,,,,,,,,,,,,,,,,,,,,,,,,,,,,,,,,,,,,,,,,,,,,,,,
,,?,0.000795,0,,,,,,stimuli/images/PICTURE_147.png,MOMENT,5a3117d0715d6a0001118bfc,01/08/1998,2020-09-02_12h28.06.922,proactive3.2,2020.1.2,Win32,60,5f47c0b9b035471e11593a5c,5f4f81a34f8d2d04088954fe,3,,,,,,hanger,,,,,,,,,,,6,0,0,5,5,51,1,,,,,,,,,,,,,,,,,,,,,,,,,,,,,,,,,,,,,,,,,,,,,,,,,,,,,,,,,,,,,,,,,,,,,,
,,?,0.000795,0,,,,,,stimuli/images/PICTURE_487.png,FLIGHT,5a3117d0715d6a0001118bfc,01/08/1998,2020-09-02_12h28.06.922,proactive3.2,2020.1.2,Win32,60,5f47c0b9b035471e11593a5c,5f4f81a34f8d2d04088954fe,3,,,,,,basket,,,,,,,,,,,1,0,0,6,6,9,1,,,,,,,,,,,,,,,,,,,,,,,,,,,,,,,,,,,,,,,,,,,,,,,,,,,,,,,,,,,,,,,,,,,,,,
,,?,0.00062,0,,,,,,stimuli/images/PICTURE_302.png,FAMILY,5a3117d0715d6a0001118bfc,01/08/1998,2020-09-02_12h28.06.922,proactive3.2,2020.1.2,Win32,60,5f47c0b9b035471e11593a5c,5f4f81a34f8d2d04088954fe,3,,,,,,taxi,,,,,,,,,,,2,0,0,7,7,18,1,,,,,,,,,,,,,,,,,,,,,,,,,,,,,,,,,,,,,,,,,,,,,,,,,,,,,,,,,,,,,,,,,,,,,,
,,?,0.00058,0,,,,,,stimuli/images/PICTURE_177.png,CARS,5a3117d0715d6a0001118bfc,01/08/1998,2020-09-02_12h28.06.922,proactive3.2,2020.1.2,Win32,60,5f47c0b9b035471e11593a5c,5f4f81a34f8d2d04088954fe,3,,,,,,mushroom,,,,,,,,,,,4,0,0,8,8,35,1,,,,,,,,,,,,,,,,,,,,,,,,,,,,,,,,,,,,,,,,,,,,,,,,,,,,,,,,,,,,,,,,,,,,,,
,,?,0.000565,0,,,,,,stimuli/images/PICTURE_160.png,LEADER,5a3117d0715d6a0001118bfc,01/08/1998,2020-09-02_12h28.06.922,proactive3.2,2020.1.2,Win32,60,5f47c0b9b035471e11593a5c,5f4f81a34f8d2d04088954fe,3,,,,,,wheelbarrow,,,,,,,,,,,1,0,0,9,9,3,1,,,,,,,,,,,,,,,,,,,,,,,,,,,,,,,,,,,,,,,,,,,,,,,,,,,,,,,,,,,,,,,,,,,,,,
,,STYLE,2.01029,1,,,,,,stimuli/images/PICTURE_95.png,STYLE,5a3117d0715d6a0001118bfc,01/08/1998,2020-09-02_12h28.06.922,proactive3.2,2020.1.2,Win32,60,5f47c0b9b035471e11593a5c,5f4f81a34f8d2d04088954fe,3,,,,,,suitcase,,,,,,,,,,,3,0,0,10,10,25,1,,,,,,,,,,,,,,,,,,,,,,,,,,,,,,,,,,,,,,,,,,,,,,,,,,,,,,,,,,,,,,,,,,,,,,
,,?,0.000845,0,,,,,,stimuli/images/PICTURE_688.png,WOMEN,5a3117d0715d6a0001118bfc,01/08/1998,2020-09-02_12h28.06.922,proactive3.2,2020.1.2,Win32,60,5f47c0b9b035471e11593a5c,5f4f81a34f8d2d04088954fe,3,,,,,,runner,,,,,,,,,,,2,0,0,11,11,14,1,,,,,,,,,,,,,,,,,,,,,,,,,,,,,,,,,,,,,,,,,,,,,,,,,,,,,,,,,,,,,,,,,,,,,,
,,?,0.00072,0,,,,,,stimuli/images/PICTURE_311.png,BEAUTY,5a3117d0715d6a0001118bfc,01/08/1998,2020-09-02_12h28.06.922,proactive3.2,2020.1.2,Win32,60,5f47c0b9b035471e11593a5c,5f4f81a34f8d2d04088954fe,3,,,,,,razor,,,,,,,,,,,2,0,0,12,12,13,1,,,,,,,,,,,,,,,,,,,,,,,,,,,,,,,,,,,,,,,,,,,,,,,,,,,,,,,,,,,,,,,,,,,,,,
,,ARTIST,1.998245,1,,,,,,stimuli/images/PICTURE_203.png,ARTIST,5a3117d0715d6a0001118bfc,01/08/1998,2020-09-02_12h28.06.922,proactive3.2,2020.1.2,Win32,60,5f47c0b9b035471e11593a5c,5f4f81a34f8d2d04088954fe,3,,,,,,cap,,,,,,,,,,,3,0,0,13,13,26,1,,,,,,,,,,,,,,,,,,,,,,,,,,,,,,,,,,,,,,,,,,,,,,,,,,,,,,,,,,,,,,,,,,,,,,
,,?,0.000745,0,,,,,,stimuli/images/PICTURE_688.png,CASINO,5a3117d0715d6a0001118bfc,01/08/1998,2020-09-02_12h28.06.922,proactive3.2,2020.1.2,Win32,60,5f47c0b9b035471e11593a5c,5f4f81a34f8d2d04088954fe,3,,,,,,runner,,,,,,,,,,,1,0,0,14,14,2,1,,,,,,,,,,,,,,,,,,,,,,,,,,,,,,,,,,,,,,,,,,,,,,,,,,,,,,,,,,,,,,,,,,,,,,
,,?,0.00058,0,,,,,,stimuli/images/PICTURE_504.png,BODY,5a3117d0715d6a0001118bfc,01/08/1998,2020-09-02_12h28.06.922,proactive3.2,2020.1.2,Win32,60,5f47c0b9b035471e11593a5c,5f4f81a34f8d2d04088954fe,3,,,,,,wheel,,,,,,,,,,,1,0,0,15,15,8,1,,,,,,,,,,,,,,,,,,,,,,,,,,,,,,,,,,,,,,,,,,,,,,,,,,,,,,,,,,,,,,,,,,,,,,
,,ROOF,2.28202,1,,,,,,stimuli/images/PICTURE_491.png,ROOF,5a3117d0715d6a0001118bfc,01/08/1998,2020-09-02_12h28.06.922,proactive3.2,2020.1.2,Win32,60,5f47c0b9b035471e11593a5c,5f4f81a34f8d2d04088954fe,3,,,,,,rug,,,,,,,,,,,3,0,0,16,16,24,1,,,,,,,,,,,,,,,,,,,,,,,,,,,,,,,,,,,,,,,,,,,,,,,,,,,,,,,,,,,,,,,,,,,,,,
,,?,0.000745,0,,,,,,stimuli/images/PICTURE_380.png,PHOTO,5a3117d0715d6a0001118bfc,01/08/1998,2020-09-02_12h28.06.922,proactive3.2,2020.1.2,Win32,60,5f47c0b9b035471e11593a5c,5f4f81a34f8d2d04088954fe,3,,,,,,gorilla,,,,,,,,,,,6,0,0,17,17,52,1,,,,,,,,,,,,,,,,,,,,,,,,,,,,,,,,,,,,,,,,,,,,,,,,,,,,,,,,,,,,,,,,,,,,,,
,,?,0.00058,0,,,,,,stimuli/images/PICTURE_151.png,GIRL,5a3117d0715d6a0001118bfc,01/08/1998,2020-09-02_12h28.06.922,proactive3.2,2020.1.2,Win32,60,5f47c0b9b035471e11593a5c,5f4f81a34f8d2d04088954fe,3,,,,,,tray,,,,,,,,,,,2,0,0,18,18,19,1,,,,,,,,,,,,,,,,,,,,,,,,,,,,,,,,,,,,,,,,,,,,,,,,,,,,,,,,,,,,,,,,,,,,,,
,,?,0.000565,0,,,,,,stimuli/images/PICTURE_356.png,DANGER,5a3117d0715d6a0001118bfc,01/08/1998,2020-09-02_12h28.06.922,proactive3.2,2020.1.2,Win32,60,5f47c0b9b035471e11593a5c,5f4f81a34f8d2d04088954fe,3,,,,,,pawn,,,,,,,,,,,6,0,0,19,19,55,1,,,,,,,,,,,,,,,,,,,,,,,,,,,,,,,,,,,,,,,,,,,,,,,,,,,,,,,,,,,,,,,,,,,,,,
,,?,0.000725,0,,,,,,stimuli/images/PICTURE_208.png,MONTH,5a3117d0715d6a0001118bfc,01/08/1998,2020-09-02_12h28.06.922,proactive3.2,2020.1.2,Win32,60,5f47c0b9b035471e11593a5c,5f4f81a34f8d2d04088954fe,3,,,,,,microphone,,,,,,,,,,,6,0,0,20,20,53,1,,,,,,,,,,,,,,,,,,,,,,,,,,,,,,,,,,,,,,,,,,,,,,,,,,,,,,,,,,,,,,,,,,,,,,
,,?,0.00167,0,,,,,,stimuli/images/PICTURE_208.png,THING,5a3117d0715d6a0001118bfc,01/08/1998,2020-09-02_12h28.06.922,proactive3.2,2020.1.2,Win32,60,5f47c0b9b035471e11593a5c,5f4f81a34f8d2d04088954fe,3,,,,,,microphone,,,,,,,,,,,5,0,0,21,21,47,1,,,,,,,,,,,,,,,,,,,,,,,,,,,,,,,,,,,,,,,,,,,,,,,,,,,,,,,,,,,,,,,,,,,,,,
,,PHOTO,2.44085,1,,,,,,stimuli/images/PICTURE_509.png,PHOTO,5a3117d0715d6a0001118bfc,01/08/1998,2020-09-02_12h28.06.922,proactive3.2,2020.1.2,Win32,60,5f47c0b9b035471e11593a5c,5f4f81a34f8d2d04088954fe,3,,,,,,telephone,,,,,,,,,,,3,0,0,22,22,21,1,,,,,,,,,,,,,,,,,,,,,,,,,,,,,,,,,,,,,,,,,,,,,,,,,,,,,,,,,,,,,,,,,,,,,,
,,?,0.00092,0,,,,,,stimuli/images/PICTURE_469.png,LETTER,5a3117d0715d6a0001118bfc,01/08/1998,2020-09-02_12h28.06.922,proactive3.2,2020.1.2,Win32,60,5f47c0b9b035471e11593a5c,5f4f81a34f8d2d04088954fe,3,,,,,,stool,,,,,,,,,,,5,0,0,23,23,42,1,,,,,,,,,,,,,,,,,,,,,,,,,,,,,,,,,,,,,,,,,,,,,,,,,,,,,,,,,,,,,,,,,,,,,,
,,?,0.00068,0,,,,,,stimuli/images/PICTURE_470.png,CASINO,5a3117d0715d6a0001118bfc,01/08/1998,2020-09-02_12h28.06.922,proactive3.2,2020.1.2,Win32,60,5f47c0b9b035471e11593a5c,5f4f81a34f8d2d04088954fe,3,,,,,,motorbike,,,,,,,,,,,4,0,0,24,24,36,1,,,,,,,,,,,,,,,,,,,,,,,,,,,,,,,,,,,,,,,,,,,,,,,,,,,,,,,,,,,,,,,,,,,,,,
,,?,0.00053,0,,,,,,stimuli/images/PICTURE_675.png,WEAPON,5a3117d0715d6a0001118bfc,01/08/1998,2020-09-02_12h28.06.922,proactive3.2,2020.1.2,Win32,60,5f47c0b9b035471e11593a5c,5f4f81a34f8d2d04088954fe,3,,,,,,windmill,,,,,,,,,,,4,0,0,25,25,32,1,,,,,,,,,,,,,,,,,,,,,,,,,,,,,,,,,,,,,,,,,,,,,,,,,,,,,,,,,,,,,,,,,,,,,,
,,AREA,2.113725,1,,,,,,stimuli/images/PICTURE_255.png,AREA,5a3117d0715d6a0001118bfc,01/08/1998,2020-09-02_12h28.06.922,proactive3.2,2020.1.2,Win32,60,5f47c0b9b035471e11593a5c,5f4f81a34f8d2d04088954fe,3,,,,,,shovel,,,,,,,,,,,3,0,0,26,26,22,1,,,,,,,,,,,,,,,,,,,,,,,,,,,,,,,,,,,,,,,,,,,,,,,,,,,,,,,,,,,,,,,,,,,,,,
,,?,0.000735,0,,,,,,stimuli/images/PICTURE_208.png,LOTS,5a3117d0715d6a0001118bfc,01/08/1998,2020-09-02_12h28.06.922,proactive3.2,2020.1.2,Win32,60,5f47c0b9b035471e11593a5c,5f4f81a34f8d2d04088954fe,3,,,,,,microphone,,,,,,,,,,,2,0,0,27,27,10,1,,,,,,,,,,,,,,,,,,,,,,,,,,,,,,,,,,,,,,,,,,,,,,,,,,,,,,,,,,,,,,,,,,,,,,
,,?,0.000625,0,,,,,,stimuli/images/PICTURE_708.png,CLIENT,5a3117d0715d6a0001118bfc,01/08/1998,2020-09-02_12h28.06.922,proactive3.2,2020.1.2,Win32,60,5f47c0b9b035471e11593a5c,5f4f81a34f8d2d04088954fe,3,,,,,,monkey,,,,,,,,,,,1,0,0,28,28,5,1,,,,,,,,,,,,,,,,,,,,,,,,,,,,,,,,,,,,,,,,,,,,,,,,,,,,,,,,,,,,,,,,,,,,,,
,,?,0.000585,0,,,,,,stimuli/images/PICTURE_123.png,ADVICE,5a3117d0715d6a0001118bfc,01/08/1998,2020-09-02_12h28.06.922,proactive3.2,2020.1.2,Win32,60,5f47c0b9b035471e11593a5c,5f4f81a34f8d2d04088954fe,3,,,,,,dart,,,,,,,,,,,6,0,0,29,29,50,1,,,,,,,,,,,,,,,,,,,,,,,,,,,,,,,,,,,,,,,,,,,,,,,,,,,,,,,,,,,,,,,,,,,,,,
,,?,0.000515,0,,,,,,stimuli/images/PICTURE_311.png,FRIEND,5a3117d0715d6a0001118bfc,01/08/1998,2020-09-02_12h28.06.922,proactive3.2,2020.1.2,Win32,60,5f47c0b9b035471e11593a5c,5f4f81a34f8d2d04088954fe,3,,,,,,razor,,,,,,,,,,,4,0,0,30,30,34,1,,,,,,,,,,,,,,,,,,,,,,,,,,,,,,,,,,,,,,,,,,,,,,,,,,,,,,,,,,,,,,,,,,,,,,
,,?,0.001455,0,,,,,,stimuli/images/PICTURE_488.png,STYLE,5a3117d0715d6a0001118bfc,01/08/1998,2020-09-02_12h28.06.922,proactive3.2,2020.1.2,Win32,60,5f47c0b9b035471e11593a5c,5f4f81a34f8d2d04088954fe,3,,,,,,sun,,,,,,,,,,,4,0,0,31,31,33,1,,,,,,,,,,,,,,,,,,,,,,,,,,,,,,,,,,,,,,,,,,,,,,,,,,,,,,,,,,,,,,,,,,,,,,
,,?,0.001275,0,,,,,,stimuli/images/PICTURE_692.png,MONTH,5a3117d0715d6a0001118bfc,01/08/1998,2020-09-02_12h28.06.922,proactive3.2,2020.1.2,Win32,60,5f47c0b9b035471e11593a5c,5f4f81a34f8d2d04088954fe,3,,,,,,cherry,,,,,,,,,,,2,0,0,32,32,16,1,,,,,,,,,,,,,,,,,,,,,,,,,,,,,,,,,,,,,,,,,,,,,,,,,,,,,,,,,,,,,,,,,,,,,,
,,?,0.000595,0,,,,,,stimuli/images/PICTURE_308.png,KIND,5a3117d0715d6a0001118bfc,01/08/1998,2020-09-02_12h28.06.922,proactive3.2,2020.1.2,Win32,60,5f47c0b9b035471e11593a5c,5f4f81a34f8d2d04088954fe,3,,,,,,dice,,,,,,,,,,,6,0,0,33,33,54,1,,,,,,,,,,,,,,,,,,,,,,,,,,,,,,,,,,,,,,,,,,,,,,,,,,,,,,,,,,,,,,,,,,,,,,
,,?,0.00058,0,,,,,,stimuli/images/PICTURE_233.png,WOMEN,5a3117d0715d6a0001118bfc,01/08/1998,2020-09-02_12h28.06.922,proactive3.2,2020.1.2,Win32,60,5f47c0b9b035471e11593a5c,5f4f81a34f8d2d04088954fe,3,,,,,,salt,,,,,,,,,,,4,0,0,34,34,38,1,,,,,,,,,,,,,,,,,,,,,,,,,,,,,,,,,,,,,,,,,,,,,,,,,,,,,,,,,,,,,,,,,,,,,,
,,YARD,2.5052,1,,,,,,stimuli/images/PICTURE_708.png,YARD,5a3117d0715d6a0001118bfc,01/08/1998,2020-09-02_12h28.06.922,proactive3.2,2020.1.2,Win32,60,5f47c0b9b035471e11593a5c,5f4f81a34f8d2d04088954fe,3,,,,,,monkey,,,,,,,,,,,3,0,0,35,35,29,1,,,,,,,,,,,,,,,,,,,,,,,,,,,,,,,,,,,,,,,,,,,,,,,,,,,,,,,,,,,,,,,,,,,,,,
,,?,0.000785,0,,,,,,stimuli/images/PICTURE_453.png,PLENTY,5a3117d0715d6a0001118bfc,01/08/1998,2020-09-02_12h28.06.922,proactive3.2,2020.1.2,Win32,60,5f47c0b9b035471e11593a5c,5f4f81a34f8d2d04088954fe,3,,,,,,scissors,,,,,,,,,,,6,0,0,36,36,56,1,,,,,,,,,,,,,,,,,,,,,,,,,,,,,,,,,,,,,,,,,,,,,,,,,,,,,,,,,,,,,,,,,,,,,,
,,?,0.00057,0,,,,,,stimuli/images/PICTURE_491.png,WRITER,5a3117d0715d6a0001118bfc,01/08/1998,2020-09-02_12h28.06.922,proactive3.2,2020.1.2,Win32,60,5f47c0b9b035471e11593a5c,5f4f81a34f8d2d04088954fe,3,,,,,,rug,,,,,,,,,,,6,0,0,37,37,57,1,,,,,,,,,,,,,,,,,,,,,,,,,,,,,,,,,,,,,,,,,,,,,,,,,,,,,,,,,,,,,,,,,,,,,,
,,?,0.00055,0,,,,,,stimuli/images/PICTURE_449.png,THING,5a3117d0715d6a0001118bfc,01/08/1998,2020-09-02_12h28.06.922,proactive3.2,2020.1.2,Win32,60,5f47c0b9b035471e11593a5c,5f4f81a34f8d2d04088954fe,3,,,,,,bench,,,,,,,,,,,6,0,0,38,38,59,1,,,,,,,,,,,,,,,,,,,,,,,,,,,,,,,,,,,,,,,,,,,,,,,,,,,,,,,,,,,,,,,,,,,,,,
,,IDEAS,2.02899,1,,,,,,stimuli/images/PICTURE_233.png,IDEAS,5a3117d0715d6a0001118bfc,01/08/1998,2020-09-02_12h28.06.922,proactive3.2,2020.1.2,Win32,60,5f47c0b9b035471e11593a5c,5f4f81a34f8d2d04088954fe,3,,,,,,salt,,,,,,,,,,,3,0,0,39,39,28,1,,,,,,,,,,,,,,,,,,,,,,,,,,,,,,,,,,,,,,,,,,,,,,,,,,,,,,,,,,,,,,,,,,,,,,
,,?,0.00071,0,,,,,,stimuli/images/PICTURE_708.png,PENNY,5a3117d0715d6a0001118bfc,01/08/1998,2020-09-02_12h28.06.922,proactive3.2,2020.1.2,Win32,60,5f47c0b9b035471e11593a5c,5f4f81a34f8d2d04088954fe,3,,,,,,monkey,,,,,,,,,,,4,0,0,40,40,31,1,,,,,,,,,,,,,,,,,,,,,,,,,,,,,,,,,,,,,,,,,,,,,,,,,,,,,,,,,,,,,,,,,,,,,,
,,?,0.000555,0,,,,,,stimuli/images/PICTURE_123.png,ADVICE,5a3117d0715d6a0001118bfc,01/08/1998,2020-09-02_12h28.06.922,proactive3.2,2020.1.2,Win32,60,5f47c0b9b035471e11593a5c,5f4f81a34f8d2d04088954fe,3,,,,,,dart,,,,,,,,,,,5,0,0,41,41,40,1,,,,,,,,,,,,,,,,,,,,,,,,,,,,,,,,,,,,,,,,,,,,,,,,,,,,,,,,,,,,,,,,,,,,,,
,,?,0.000565,0,,,,,,stimuli/images/PICTURE_469.png,ARTIST,5a3117d0715d6a0001118bfc,01/08/1998,2020-09-02_12h28.06.922,proactive3.2,2020.1.2,Win32,60,5f47c0b9b035471e11593a5c,5f4f81a34f8d2d04088954fe,3,,,,,,stool,,,,,,,,,,,1,0,0,42,42,6,1,,,,,,,,,,,,,,,,,,,,,,,,,,,,,,,,,,,,,,,,,,,,,,,,,,,,,,,,,,,,,,,,,,,,,,
,,?,0.003105,0,,,,,,stimuli/images/PICTURE_215.png,PLENTY,5a3117d0715d6a0001118bfc,01/08/1998,2020-09-02_12h28.06.922,proactive3.2,2020.1.2,Win32,60,5f47c0b9b035471e11593a5c,5f4f81a34f8d2d04088954fe,3,,,,,,boot,,,,,,,,,,,4,0,0,43,43,37,1,,,,,,,,,,,,,,,,,,,,,,,,,,,,,,,,,,,,,,,,,,,,,,,,,,,,,,,,,,,,,,,,,,,,,,
,,?,0.000655,0,,,,,,stimuli/images/PICTURE_314.png,GODS,5a3117d0715d6a0001118bfc,01/08/1998,2020-09-02_12h28.06.922,proactive3.2,2020.1.2,Win32,60,5f47c0b9b035471e11593a5c,5f4f81a34f8d2d04088954fe,3,,,,,,perfume,,,,,,,,,,,2,0,0,44,44,11,1,,,,,,,,,,,,,,,,,,,,,,,,,,,,,,,,,,,,,,,,,,,,,,,,,,,,,,,,,,,,,,,,,,,,,,
,,?,0.00069,0,,,,,,stimuli/images/PICTURE_677.png,MILE,5a3117d0715d6a0001118bfc,01/08/1998,2020-09-02_12h28.06.922,proactive3.2,2020.1.2,Win32,60,5f47c0b9b035471e11593a5c,5f4f81a34f8d2d04088954fe,3,,,,,,map,,,,,,,,,,,4,0,0,45,45,30,1,,,,,,,,,,,,,,,,,,,,,,,,,,,,,,,,,,,,,,,,,,,,,,,,,,,,,,,,,,,,,,,,,,,,,,
,,?,0.001665,0,,,,,,stimuli/images/PICTURE_667.png,BATH,5a3117d0715d6a0001118bfc,01/08/1998,2020-09-02_12h28.06.922,proactive3.2,2020.1.2,Win32,60,5f47c0b9b035471e11593a5c,5f4f81a34f8d2d04088954fe,3,,,,,,daisy,,,,,,,,,,,1,0,0,46,46,4,1,,,,,,,,,,,,,,,,,,,,,,,,,,,,,,,,,,,,,,,,,,,,,,,,,,,,,,,,,,,,,,,,,,,,,,
,,?,0.00119,0,,,,,,stimuli/images/PICTURE_248.png,DOZEN,5a3117d0715d6a0001118bfc,01/08/1998,2020-09-02_12h28.06.922,proactive3.2,2020.1.2,Win32,60,5f47c0b9b035471e11593a5c,5f4f81a34f8d2d04088954fe,3,,,,,,cart,,,,,,,,,,,4,0,0,47,47,39,1,,,,,,,,,,,,,,,,,,,,,,,,,,,,,,,,,,,,,,,,,,,,,,,,,,,,,,,,,,,,,,,,,,,,,,
,,?,0.0007,0,,,,,,stimuli/images/PICTURE_285.png,ADVICE,5a3117d0715d6a0001118bfc,01/08/1998,2020-09-02_12h28.06.922,proactive3.2,2020.1.2,Win32,60,5f47c0b9b035471e11593a5c,5f4f81a34f8d2d04088954fe,3,,,,,,carrot,,,,,,,,,,,2,0,0,48,48,12,1,,,,,,,,,,,,,,,,,,,,,,,,,,,,,,,,,,,,,,,,,,,,,,,,,,,,,,,,,,,,,,,,,,,,,,
,,?,0.00066,0,,,,,,stimuli/images/PICTURE_160.png,FEET,5a3117d0715d6a0001118bfc,01/08/1998,2020-09-02_12h28.06.922,proactive3.2,2020.1.2,Win32,60,5f47c0b9b035471e11593a5c,5f4f81a34f8d2d04088954fe,3,,,,,,wheelbarrow,,,,,,,,,,,6,0,0,49,49,58,1,,,,,,,,,,,,,,,,,,,,,,,,,,,,,,,,,,,,,,,,,,,,,,,,,,,,,,,,,,,,,,,,,,,,,,
,,?,0.000665,0,,,,,,stimuli/images/PICTURE_327.png,BEAUTY,5a3117d0715d6a0001118bfc,01/08/1998,2020-09-02_12h28.06.922,proactive3.2,2020.1.2,Win32,60,5f47c0b9b035471e11593a5c,5f4f81a34f8d2d04088954fe,3,,,,,,helmet,,,,,,,,,,,5,0,0,50,50,48,1,,,,,,,,,,,,,,,,,,,,,,,,,,,,,,,,,,,,,,,,,,,,,,,,,,,,,,,,,,,,,,,,,,,,,,
,,?,0.00075,0,,,,,,stimuli/images/PICTURE_667.png,PLENTY,5a3117d0715d6a0001118bfc,01/08/1998,2020-09-02_12h28.06.922,proactive3.2,2020.1.2,Win32,60,5f47c0b9b035471e11593a5c,5f4f81a34f8d2d04088954fe,3,,,,,,daisy,,,,,,,,,,,5,0,0,51,51,41,1,,,,,,,,,,,,,,,,,,,,,,,,,,,,,,,,,,,,,,,,,,,,,,,,,,,,,,,,,,,,,,,,,,,,,,
,,?,0.002305,0,,,,,,stimuli/images/PICTURE_654.png,VALLEY,5a3117d0715d6a0001118bfc,01/08/1998,2020-09-02_12h28.06.922,proactive3.2,2020.1.2,Win32,60,5f47c0b9b035471e11593a5c,5f4f81a34f8d2d04088954fe,3,,,,,,pencil,,,,,,,,,,,1,0,0,52,52,1,1,,,,,,,,,,,,,,,,,,,,,,,,,,,,,,,,,,,,,,,,,,,,,,,,,,,,,,,,,,,,,,,,,,,,,,
,,?,0.00077,0,,,,,,stimuli/images/PICTURE_32.png,JUNGLE,5a3117d0715d6a0001118bfc,01/08/1998,2020-09-02_12h28.06.922,proactive3.2,2020.1.2,Win32,60,5f47c0b9b035471e11593a5c,5f4f81a34f8d2d04088954fe,3,,,,,,crown,,,,,,,,,,,5,0,0,53,53,45,1,,,,,,,,,,,,,,,,,,,,,,,,,,,,,,,,,,,,,,,,,,,,,,,,,,,,,,,,,,,,,,,,,,,,,,
,,?,0.000525,0,,,,,,stimuli/images/PICTURE_744.png,SAKE,5a3117d0715d6a0001118bfc,01/08/1998,2020-09-02_12h28.06.922,proactive3.2,2020.1.2,Win32,60,5f47c0b9b035471e11593a5c,5f4f81a34f8d2d04088954fe,3,,,,,,ring,,,,,,,,,,,2,0,0,54,54,17,1,,,,,,,,,,,,,,,,,,,,,,,,,,,,,,,,,,,,,,,,,,,,,,,,,,,,,,,,,,,,,,,,,,,,,,
,,?,0.000505,0,,,,,,stimuli/images/PICTURE_308.png,ESTATE,5a3117d0715d6a0001118bfc,01/08/1998,2020-09-02_12h28.06.922,proactive3.2,2020.1.2,Win32,60,5f47c0b9b035471e11593a5c,5f4f81a34f8d2d04088954fe,3,,,,,,dice,,,,,,,,,,,5,0,0,55,55,46,1,,,,,,,,,,,,,,,,,,,,,,,,,,,,,,,,,,,,,,,,,,,,,,,,,,,,,,,,,,,,,,,,,,,,,,
,,SPEECH,2.368955,1,,,,,,stimuli/images/PICTURE_348.png,SPEECH,5a3117d0715d6a0001118bfc,01/08/1998,2020-09-02_12h28.06.922,proactive3.2,2020.1.2,Win32,60,5f47c0b9b035471e11593a5c,5f4f81a34f8d2d04088954fe,3,,,,,,pepper,,,,,,,,,,,3,0,0,56,56,20,1,,,,,,,,,,,,,,,,,,,,,,,,,,,,,,,,,,,,,,,,,,,,,,,,,,,,,,,,,,,,,,,,,,,,,,
,,?,0.0007,0,,,,,,stimuli/images/PICTURE_314.png,SAKE,5a3117d0715d6a0001118bfc,01/08/1998,2020-09-02_12h28.06.922,proactive3.2,2020.1.2,Win32,60,5f47c0b9b035471e11593a5c,5f4f81a34f8d2d04088954fe,3,,,,,,perfume,,,,,,,,,,,1,0,0,57,57,7,1,,,,,,,,,,,,,,,,,,,,,,,,,,,,,,,,,,,,,,,,,,,,,,,,,,,,,,,,,,,,,,,,,,,,,,
,,?,0.000535,0,,,,,,stimuli/images/PICTURE_85.png,THING,5a3117d0715d6a0001118bfc,01/08/1998,2020-09-02_12h28.06.922,proactive3.2,2020.1.2,Win32,60,5f47c0b9b035471e11593a5c,5f4f81a34f8d2d04088954fe,3,,,,,,diamond,,,,,,,,,,,2,0,0,58,58,15,1,,,,,,,,,,,,,,,,,,,,,,,,,,,,,,,,,,,,,,,,,,,,,,,,,,,,,,,,,,,,,,,,,,,,,,
,,?,0.00058,0,,,,,,stimuli/images/PICTURE_339.png,PLENTY,5a3117d0715d6a0001118bfc,01/08/1998,2020-09-02_12h28.06.922,proactive3.2,2020.1.2,Win32,60,5f47c0b9b035471e11593a5c,5f4f81a34f8d2d04088954fe,3,,,,,,backpack,,,,,,,,,,,1,0,0,59,59,0,1,,,,,,,,,,,,,,,,,,,,,,,,,,,,,,,,,,,,,,,,,,,,,,,,,,,,,,,,,,,,,,,,,,,,,,
,,,,,,,,,,,,5a3117d0715d6a0001118bfc,01/08/1998,2020-09-02_12h28.06.922,proactive3.2,2020.1.2,Win32,60,5f47c0b9b035471e11593a5c,5f4f81a34f8d2d04088954fe,3,,,,,,,,,,,,,,,,,,,,,,,,0,0,0,0,1,stimuli/learn-block1.csv,,,,,,,,,,,,,,,,,,,,,,,,,,,,,,,,,,,,,,,,,,,,,,,,,,,,,,,,,,,,,,,,
,,,,,,,,,,stimuli/images/PICTURE_667.png,GLASS,5a3117d0715d6a0001118bfc,01/08/1998,2020-09-02_12h28.06.922,proactive3.2,2020.1.2,Win32,60,5f47c0b9b035471e11593a5c,5f4f81a34f8d2d04088954fe,3,,,,,,daisy,,,,,,0,0,0,27,1,3,2,,,,,,,,,,,,,,,,,,,,,,,,,,,,,,,,,,,,,,,,,,,,,,,,,,,,,,,,,,,,,,,,,,,,,,,,,,,
,,,,,,,,,,stimuli/images/PICTURE_405.png,JUNGLE,5a3117d0715d6a0001118bfc,01/08/1998,2020-09-02_12h28.06.922,proactive3.2,2020.1.2,Win32,60,5f47c0b9b035471e11593a5c,5f4f81a34f8d2d04088954fe,3,,,,,,anchor,,,,,,0,1,1,13,1,2,2,,,,,,,,,,,,,,,,,,,,,,,,,,,,,,,,,,,,,,,,,,,,,,,,,,,,,,,,,,,,,,,,,,,,,,,,,,,
,,,,,,,,,,stimuli/images/PICTURE_147.png,LEADER,5a3117d0715d6a0001118bfc,01/08/1998,2020-09-02_12h28.06.922,proactive3.2,2020.1.2,Win32,60,5f47c0b9b035471e11593a5c,5f4f81a34f8d2d04088954fe,3,,,,,,hanger,,,,,,0,2,2,33,1,4,2,,,,,,,,,,,,,,,,,,,,,,,,,,,,,,,,,,,,,,,,,,,,,,,,,,,,,,,,,,,,,,,,,,,,,,,,,,,
,,,,,,,,,,stimuli/images/PICTURE_208.png,SPIRIT,5a3117d0715d6a0001118bfc,01/08/1998,2020-09-02_12h28.06.922,proactive3.2,2020.1.2,Win32,60,5f47c0b9b035471e11593a5c,5f4f81a34f8d2d04088954fe,3,,,,,,microphone,,,,,,0,3,3,28,1,3,2,,,,,,,,,,,,,,,,,,,,,,,,,,,,,,,,,,,,,,,,,,,,,,,,,,,,,,,,,,,,,,,,,,,,,,,,,,,
,,,,,,,,,,stimuli/images/PICTURE_311.png,FLESH,5a3117d0715d6a0001118bfc,01/08/1998,2020-09-02_12h28.06.922,proactive3.2,2020.1.2,Win32,60,5f47c0b9b035471e11593a5c,5f4f81a34f8d2d04088954fe,3,,,,,,razor,,,,,,0,4,4,3,1,1,2,,,,,,,,,,,,,,,,,,,,,,,,,,,,,,,,,,,,,,,,,,,,,,,,,,,,,,,,,,,,,,,,,,,,,,,,,,,
,,,,,,,,,,stimuli/images/PICTURE_68.png,KIND,5a3117d0715d6a0001118bfc,01/08/1998,2020-09-02_12h28.06.922,proactive3.2,2020.1.2,Win32,60,5f47c0b9b035471e11593a5c,5f4f81a34f8d2d04088954fe,3,,,,,,candle,,,,,,0,5,5,23,1,3,2,,,,,,,,,,,,,,,,,,,,,,,,,,,,,,,,,,,,,,,,,,,,,,,,,,,,,,,,,,,,,,,,,,,,,,,,,,,
,,,,,,,,,,stimuli/images/PICTURE_688.png,CLOCK,5a3117d0715d6a0001118bfc,01/08/1998,2020-09-02_12h28.06.922,proactive3.2,2020.1.2,Win32,60,5f47c0b9b035471e11593a5c,5f4f81a34f8d2d04088954fe,3,,,,,,runner,,,,,,0,6,6,42,1,5,2,,,,,,,,,,,,,,,,,,,,,,,,,,,,,,,,,,,,,,,,,,,,,,,,,,,,,,,,,,,,,,,,,,,,,,,,,,,
,,,,,,,,,,stimuli/images/PICTURE_2.png,YARD,5a3117d0715d6a0001118bfc,01/08/1998,2020-09-02_12h28.06.922,proactive3.2,2020.1.2,Win32,60,5f47c0b9b035471e11593a5c,5f4f81a34f8d2d04088954fe,3,,,,,,tyre,,,,,,0,7,7,55,1,6,2,,,,,,,,,,,,,,,,,,,,,,,,,,,,,,,,,,,,,,,,,,,,,,,,,,,,,,,,,,,,,,,,,,,,,,,,,,,
,,,,,,,,,,stimuli/images/PICTURE_405.png,JUNGLE,5a3117d0715d6a0001118bfc,01/08/1998,2020-09-02_12h28.06.922,proactive3.2,2020.1.2,Win32,60,5f47c0b9b035471e11593a5c,5f4f81a34f8d2d04088954fe,3,,,,,,anchor,,,,,,0,8,8,58,1,6,2,,,,,,,,,,,,,,,,,,,,,,,,,,,,,,,,,,,,,,,,,,,,,,,,,,,,,,,,,,,,,,,,,,,,,,,,,,,
,,,,,,,,,,stimuli/images/PICTURE_491.png,SERIES,5a3117d0715d6a0001118bfc,01/08/1998,2020-09-02_12h28.06.922,proactive3.2,2020.1.2,Win32,60,5f47c0b9b035471e11593a5c,5f4f81a34f8d2d04088954fe,3,,,,,,rug,,,,,,0,9,9,39,1,4,2,,,,,,,,,,,,,,,,,,,,,,,,,,,,,,,,,,,,,,,,,,,,,,,,,,,,,,,,,,,,,,,,,,,,,,,,,,,
,,,,,,,,,,stimuli/images/PICTURE_348.png,DUDE,5a3117d0715d6a0001118bfc,01/08/1998,2020-09-02_12h28.06.922,proactive3.2,2020.1.2,Win32,60,5f47c0b9b035471e11593a5c,5f4f81a34f8d2d04088954fe,3,,,,,,pepper,,,,,,0,10,10,59,1,6,2,,,,,,,,,,,,,,,,,,,,,,,,,,,,,,,,,,,,,,,,,,,,,,,,,,,,,,,,,,,,,,,,,,,,,,,,,,,
,,,,,,,,,,stimuli/images/PICTURE_453.png,FAMILY,5a3117d0715d6a0001118bfc,01/08/1998,2020-09-02_12h28.06.922,proactive3.2,2020.1.2,Win32,60,5f47c0b9b035471e11593a5c,5f4f81a34f8d2d04088954fe,3,,,,,,scissors,,,,,,0,11,11,48,1,5,2,,,,,,,,,,,,,,,,,,,,,,,,,,,,,,,,,,,,,,,,,,,,,,,,,,,,,,,,,,,,,,,,,,,,,,,,,,,
,,,,,,,,,,stimuli/images/PICTURE_405.png,HOUSE,5a3117d0715d6a0001118bfc,01/08/1998,2020-09-02_12h28.06.922,proactive3.2,2020.1.2,Win32,60,5f47c0b9b035471e11593a5c,5f4f81a34f8d2d04088954fe,3,,,,,,anchor,,,,,,0,12,12,2,1,1,2,,,,,,,,,,,,,,,,,,,,,,,,,,,,,,,,,,,,,,,,,,,,,,,,,,,,,,,,,,,,,,,,,,,,,,,,,,,
,,,,,,,,,,stimuli/images/PICTURE_655.png,SALE,5a3117d0715d6a0001118bfc,01/08/1998,2020-09-02_12h28.06.922,proactive3.2,2020.1.2,Win32,60,5f47c0b9b035471e11593a5c,5f4f81a34f8d2d04088954fe,3,,,,,,megaphone,,,,,,0,13,13,57,1,6,2,,,,,,,,,,,,,,,,,,,,,,,,,,,,,,,,,,,,,,,,,,,,,,,,,,,,,,,,,,,,,,,,,,,,,,,,,,,
,,,,,,,,,,stimuli/images/PICTURE_509.png,MILLER,5a3117d0715d6a0001118bfc,01/08/1998,2020-09-02_12h28.06.922,proactive3.2,2020.1.2,Win32,60,5f47c0b9b035471e11593a5c,5f4f81a34f8d2d04088954fe,3,,,,,,telephone,,,,,,0,14,14,49,1,5,2,,,,,,,,,,,,,,,,,,,,,,,,,,,,,,,,,,,,,,,,,,,,,,,,,,,,,,,,,,,,,,,,,,,,,,,,,,,
,,,,,,,,,,stimuli/images/PICTURE_177.png,HOUSE,5a3117d0715d6a0001118bfc,01/08/1998,2020-09-02_12h28.06.922,proactive3.2,2020.1.2,Win32,60,5f47c0b9b035471e11593a5c,5f4f81a34f8d2d04088954fe,3,,,,,,mushroom,,,,,,0,15,15,25,1,3,2,,,,,,,,,,,,,,,,,,,,,,,,,,,,,,,,,,,,,,,,,,,,,,,,,,,,,,,,,,,,,,,,,,,,,,,,,,,
,,,,,,,,,,stimuli/images/PICTURE_33.png,COPS,5a3117d0715d6a0001118bfc,01/08/1998,2020-09-02_12h28.06.922,proactive3.2,2020.1.2,Win32,60,5f47c0b9b035471e11593a5c,5f4f81a34f8d2d04088954fe,3,,,,,,frame,,,,,,0,16,16,29,1,3,2,,,,,,,,,,,,,,,,,,,,,,,,,,,,,,,,,,,,,,,,,,,,,,,,,,,,,,,,,,,,,,,,,,,,,,,,,,,
,,,,,,,,,,stimuli/images/PICTURE_215.png,BOYS,5a3117d0715d6a0001118bfc,01/08/1998,2020-09-02_12h28.06.922,proactive3.2,2020.1.2,Win32,60,5f47c0b9b035471e11593a5c,5f4f81a34f8d2d04088954fe,3,,,,,,boot,,,,,,0,17,17,24,1,3,2,,,,,,,,,,,,,,,,,,,,,,,,,,,,,,,,,,,,,,,,,,,,,,,,,,,,,,,,,,,,,,,,,,,,,,,,,,,
,,,,,,,,,,stimuli/images/PICTURE_470.png,MOMENT,5a3117d0715d6a0001118bfc,01/08/1998,2020-09-02_12h28.06.922,proactive3.2,2020.1.2,Win32,60,5f47c0b9b035471e11593a5c,5f4f81a34f8d2d04088954fe,3,,,,,,motorbike,,,,,,0,18,18,40,1,5,2,,,,,,,,,,,,,,,,,,,,,,,,,,,,,,,,,,,,,,,,,,,,,,,,,,,,,,,,,,,,,,,,,,,,,,,,,,,
,,,,,,,,,,stimuli/images/PICTURE_215.png,FOOD,5a3117d0715d6a0001118bfc,01/08/1998,2020-09-02_12h28.06.922,proactive3.2,2020.1.2,Win32,60,5f47c0b9b035471e11593a5c,5f4f81a34f8d2d04088954fe,3,,,,,,boot,,,,,,0,19,19,5,1,1,2,,,,,,,,,,,,,,,,,,,,,,,,,,,,,,,,,,,,,,,,,,,,,,,,,,,,,,,,,,,,,,,,,,,,,,,,,,,
,,,,,,,,,,stimuli/images/PICTURE_403.png,FAMILY,5a3117d0715d6a0001118bfc,01/08/1998,2020-09-02_12h28.06.922,proactive3.2,2020.1.2,Win32,60,5f47c0b9b035471e11593a5c,5f4f81a34f8d2d04088954fe,3,,,,,,cathedral,,,,,,0,20,20,9,1,1,2,,,,,,,,,,,,,,,,,,,,,,,,,,,,,,,,,,,,,,,,,,,,,,,,,,,,,,,,,,,,,,,,,,,,,,,,,,,
,,,,,,,,,,stimuli/images/PICTURE_93.png,GIRL,5a3117d0715d6a0001118bfc,01/08/1998,2020-09-02_12h28.06.922,proactive3.2,2020.1.2,Win32,60,5f47c0b9b035471e11593a5c,5f4f81a34f8d2d04088954fe,3,,,,,,skateboard,,,,,,0,21,21,31,1,4,2,,,,,,,,,,,,,,,,,,,,,,,,,,,,,,,,,,,,,,,,,,,,,,,,,,,,,,,,,,,,,,,,,,,,,,,,,,,
,,,,,,,,,,stimuli/images/PICTURE_750.png,POLICY,5a3117d0715d6a0001118bfc,01/08/1998,2020-09-02_12h28.06.922,proactive3.2,2020.1.2,Win32,60,5f47c0b9b035471e11593a5c,5f4f81a34f8d2d04088954fe,3,,,,,,kettle,,,,,,0,22,22,44,1,5,2,,,,,,,,,,,,,,,,,,,,,,,,,,,,,,,,,,,,,,,,,,,,,,,,,,,,,,,,,,,,,,,,,,,,,,,,,,,
,,,,,,,,,,stimuli/images/PICTURE_32.png,LETTER,5a3117d0715d6a0001118bfc,01/08/1998,2020-09-02_12h28.06.922,proactive3.2,2020.1.2,Win32,60,5f47c0b9b035471e11593a5c,5f4f81a34f8d2d04088954fe,3,,,,,,crown,,,,,,0,23,23,56,1,6,2,,,,,,,,,,,,,,,,,,,,,,,,,,,,,,,,,,,,,,,,,,,,,,,,,,,,,,,,,,,,,,,,,,,,,,,,,,,
,,,,,,,,,,stimuli/images/PICTURE_677.png,FAMILY,5a3117d0715d6a0001118bfc,01/08/1998,2020-09-02_12h28.06.922,proactive3.2,2020.1.2,Win32,60,5f47c0b9b035471e11593a5c,5f4f81a34f8d2d04088954fe,3,,,,,,map,,,,,,0,24,24,53,1,6,2,,,,,,,,,,,,,,,,,,,,,,,,,,,,,,,,,,,,,,,,,,,,,,,,,,,,,,,,,,,,,,,,,,,,,,,,,,,
,,,,,,,,,,stimuli/images/PICTURE_654.png,COPS,5a3117d0715d6a0001118bfc,01/08/1998,2020-09-02_12h28.06.922,proactive3.2,2020.1.2,Win32,60,5f47c0b9b035471e11593a5c,5f4f81a34f8d2d04088954fe,3,,,,,,pencil,,,,,,0,25,25,10,1,2,2,,,,,,,,,,,,,,,,,,,,,,,,,,,,,,,,,,,,,,,,,,,,,,,,,,,,,,,,,,,,,,,,,,,,,,,,,,,
,,,,,,,,,,stimuli/images/PICTURE_160.png,HOTEL,5a3117d0715d6a0001118bfc,01/08/1998,2020-09-02_12h28.06.922,proactive3.2,2020.1.2,Win32,60,5f47c0b9b035471e11593a5c,5f4f81a34f8d2d04088954fe,3,,,,,,wheelbarrow,,,,,,0,26,26,16,1,2,2,,,,,,,,,,,,,,,,,,,,,,,,,,,,,,,,,,,,,,,,,,,,,,,,,,,,,,,,,,,,,,,,,,,,,,,,,,,
,,,,,,,,,,stimuli/images/PICTURE_2.png,AREA,5a3117d0715d6a0001118bfc,01/08/1998,2020-09-02_12h28.06.922,proactive3.2,2020.1.2,Win32,60,5f47c0b9b035471e11593a5c,5f4f81a34f8d2d04088954fe,3,,,,,,tyre,,,,,,0,27,27,32,1,4,2,,,,,,,,,,,,,,,,,,,,,,,,,,,,,,,,,,,,,,,,,,,,,,,,,,,,,,,,,,,,,,,,,,,,,,,,,,,
,,,,,,,,,,stimuli/images/PICTURE_95.png,NIGHT,5a3117d0715d6a0001118bfc,01/08/1998,2020-09-02_12h28.06.922,proactive3.2,2020.1.2,Win32,60,5f47c0b9b035471e11593a5c,5f4f81a34f8d2d04088954fe,3,,,,,,suitcase,,,,,,0,28,28,37,1,4,2,,,,,,,,,,,,,,,,,,,,,,,,,,,,,,,,,,,,,,,,,,,,,,,,,,,,,,,,,,,,,,,,,,,,,,,,,,,
,,,,,,,,,,stimuli/images/PICTURE_296.png,CLOCK,5a3117d0715d6a0001118bfc,01/08/1998,2020-09-02_12h28.06.922,proactive3.2,2020.1.2,Win32,60,5f47c0b9b035471e11593a5c,5f4f81a34f8d2d04088954fe,3,,,,,,bolt,,,,,,0,29,29,18,1,2,2,,,,,,,,,,,,,,,,,,,,,,,,,,,,,,,,,,,,,,,,,,,,,,,,,,,,,,,,,,,,,,,,,,,,,,,,,,,
,,,,,,,,,,stimuli/images/PICTURE_564.png,PLENTY,5a3117d0715d6a0001118bfc,01/08/1998,2020-09-02_12h28.06.922,proactive3.2,2020.1.2,Win32,60,5f47c0b9b035471e11593a5c,5f4f81a34f8d2d04088954fe,3,,,,,,spoon,,,,,,0,30,30,11,1,2,2,,,,,,,,,,,,,,,,,,,,,,,,,,,,,,,,,,,,,,,,,,,,,,,,,,,,,,,,,,,,,,,,,,,,,,,,,,,
,,,,,,,,,,stimuli/images/PICTURE_285.png,WRITER,5a3117d0715d6a0001118bfc,01/08/1998,2020-09-02_12h28.06.922,proactive3.2,2020.1.2,Win32,60,5f47c0b9b035471e11593a5c,5f4f81a34f8d2d04088954fe,3,,,,,,carrot,,,,,,0,31,31,6,1,1,2,,,,,,,,,,,,,,,,,,,,,,,,,,,,,,,,,,,,,,,,,,,,,,,,,,,,,,,,,,,,,,,,,,,,,,,,,,,
,,,,,,,,,,stimuli/images/PICTURE_470.png,BEAUTY,5a3117d0715d6a0001118bfc,01/08/1998,2020-09-02_12h28.06.922,proactive3.2,2020.1.2,Win32,60,5f47c0b9b035471e11593a5c,5f4f81a34f8d2d04088954fe,3,,,,,,motorbike,,,,,,0,32,32,26,1,3,2,,,,,,,,,,,,,,,,,,,,,,,,,,,,,,,,,,,,,,,,,,,,,,,,,,,,,,,,,,,,,,,,,,,,,,,,,,,
,,,,,,,,,,stimuli/images/PICTURE_314.png,SPEECH,5a3117d0715d6a0001118bfc,01/08/1998,2020-09-02_12h28.06.922,proactive3.2,2020.1.2,Win32,60,5f47c0b9b035471e11593a5c,5f4f81a34f8d2d04088954fe,3,,,,,,perfume,,,,,,0,33,33,35,1,4,2,,,,,,,,,,,,,,,,,,,,,,,,,,,,,,,,,,,,,,,,,,,,,,,,,,,,,,,,,,,,,,,,,,,,,,,,,,,
,,,,,,,,,,stimuli/images/PICTURE_285.png,PRINCE,5a3117d0715d6a0001118bfc,01/08/1998,2020-09-02_12h28.06.922,proactive3.2,2020.1.2,Win32,60,5f47c0b9b035471e11593a5c,5f4f81a34f8d2d04088954fe,3,,,,,,carrot,,,,,,0,34,34,20,1,3,2,,,,,,,,,,,,,,,,,,,,,,,,,,,,,,,,,,,,,,,,,,,,,,,,,,,,,,,,,,,,,,,,,,,,,,,,,,,
,,,,,,,,,,stimuli/images/PICTURE_487.png,POLICY,5a3117d0715d6a0001118bfc,01/08/1998,2020-09-02_12h28.06.922,proactive3.2,2020.1.2,Win32,60,5f47c0b9b035471e11593a5c,5f4f81a34f8d2d04088954fe,3,,,,,,basket,,,,,,0,35,35,34,1,4,2,,,,,,,,,,,,,,,,,,,,,,,,,,,,,,,,,,,,,,,,,,,,,,,,,,,,,,,,,,,,,,,,,,,,,,,,,,,
,,,,,,,,,,stimuli/images/PICTURE_141.png,CLIENT,5a3117d0715d6a0001118bfc,01/08/1998,2020-09-02_12h28.06.922,proactive3.2,2020.1.2,Win32,60,5f47c0b9b035471e11593a5c,5f4f81a34f8d2d04088954fe,3,,,,,,sunflower,,,,,,0,36,36,30,1,4,2,,,,,,,,,,,,,,,,,,,,,,,,,,,,,,,,,,,,,,,,,,,,,,,,,,,,,,,,,,,,,,,,,,,,,,,,,,,
,,,,,,,,,,stimuli/images/PICTURE_692.png,DUDE,5a3117d0715d6a0001118bfc,01/08/1998,2020-09-02_12h28.06.922,proactive3.2,2020.1.2,Win32,60,5f47c0b9b035471e11593a5c,5f4f81a34f8d2d04088954fe,3,,,,,,cherry,,,,,,0,37,37,47,1,5,2,,,,,,,,,,,,,,,,,,,,,,,,,,,,,,,,,,,,,,,,,,,,,,,,,,,,,,,,,,,,,,,,,,,,,,,,,,,
,,,,,,,,,,stimuli/images/PICTURE_57.png,CASINO,5a3117d0715d6a0001118bfc,01/08/1998,2020-09-02_12h28.06.922,proactive3.2,2020.1.2,Win32,60,5f47c0b9b035471e11593a5c,5f4f81a34f8d2d04088954fe,3,,,,,,stamp,,,,,,0,38,38,12,1,2,2,,,,,,,,,,,,,,,,,,,,,,,,,,,,,,,,,,,,,,,,,,,,,,,,,,,,,,,,,,,,,,,,,,,,,,,,,,,
,,,,,,,,,,stimuli/images/PICTURE_297.png,BODY,5a3117d0715d6a0001118bfc,01/08/1998,2020-09-02_12h28.06.922,proactive3.2,2020.1.2,Win32,60,5f47c0b9b035471e11593a5c,5f4f81a34f8d2d04088954fe,3,,,,,,aeroplane,,,,,,0,39,39,51,1,6,2,,,,,,,,,,,,,,,,,,,,,,,,,,,,,,,,,,,,,,,,,,,,,,,,,,,,,,,,,,,,,,,,,,,,,,,,,,,
,,,,,,,,,,stimuli/images/PICTURE_708.png,VALLEY,5a3117d0715d6a0001118bfc,01/08/1998,2020-09-02_12h28.06.922,proactive3.2,2020.1.2,Win32,60,5f47c0b9b035471e11593a5c,5f4f81a34f8d2d04088954fe,3,,,,,,monkey,,,,,,0,40,40,45,1,5,2,,,,,,,,,,,,,,,,,,,,,,,,,,,,,,,,,,,,,,,,,,,,,,,,,,,,,,,,,,,,,,,,,,,,,,,,,,,
,,,,,,,,,,stimuli/images/PICTURE_57.png,NATION,5a3117d0715d6a0001118bfc,01/08/1998,2020-09-02_12h28.06.922,proactive3.2,2020.1.2,Win32,60,5f47c0b9b035471e11593a5c,5f4f81a34f8d2d04088954fe,3,,,,,,stamp,,,,,,0,41,41,21,1,3,2,,,,,,,,,,,,,,,,,,,,,,,,,,,,,,,,,,,,,,,,,,,,,,,,,,,,,,,,,,,,,,,,,,,,,,,,,,,
,,,,,,,,,,stimuli/images/PICTURE_509.png,SHOTS,5a3117d0715d6a0001118bfc,01/08/1998,2020-09-02_12h28.06.922,proactive3.2,2020.1.2,Win32,60,5f47c0b9b035471e11593a5c,5f4f81a34f8d2d04088954fe,3,,,,,,telephone,,,,,,0,42,42,7,1,1,2,,,,,,,,,,,,,,,,,,,,,,,,,,,,,,,,,,,,,,,,,,,,,,,,,,,,,,,,,,,,,,,,,,,,,,,,,,,
,,,,,,,,,,stimuli/images/PICTURE_654.png,YEAR,5a3117d0715d6a0001118bfc,01/08/1998,2020-09-02_12h28.06.922,proactive3.2,2020.1.2,Win32,60,5f47c0b9b035471e11593a5c,5f4f81a34f8d2d04088954fe,3,,,,,,pencil,,,,,,0,43,43,41,1,5,2,,,,,,,,,,,,,,,,,,,,,,,,,,,,,,,,,,,,,,,,,,,,,,,,,,,,,,,,,,,,,,,,,,,,,,,,,,,
,,,,,,,,,,stimuli/images/PICTURE_677.png,PHOTO,5a3117d0715d6a0001118bfc,01/08/1998,2020-09-02_12h28.06.922,proactive3.2,2020.1.2,Win32,60,5f47c0b9b035471e11593a5c,5f4f81a34f8d2d04088954fe,3,,,,,,map,,,,,,0,44,44,14,1,2,2,,,,,,,,,,,,,,,,,,,,,,,,,,,,,,,,,,,,,,,,,,,,,,,,,,,,,,,,,,,,,,,,,,,,,,,,,,,
,,,,,,,,,,stimuli/images/PICTURE_509.png,BATH,5a3117d0715d6a0001118bfc,01/08/1998,2020-09-02_12h28.06.922,proactive3.2,2020.1.2,Win32,60,5f47c0b9b035471e11593a5c,5f4f81a34f8d2d04088954fe,3,,,,,,telephone,,,,,,0,45,45,15,1,2,2,,,,,,,,,,,,,,,,,,,,,,,,,,,,,,,,,,,,,,,,,,,,,,,,,,,,,,,,,,,,,,,,,,,,,,,,,,,
,,,,,,,,,,stimuli/images/PICTURE_311.png,TOILET,5a3117d0715d6a0001118bfc,01/08/1998,2020-09-02_12h28.06.922,proactive3.2,2020.1.2,Win32,60,5f47c0b9b035471e11593a5c,5f4f81a34f8d2d04088954fe,3,,,,,,razor,,,,,,0,46,46,54,1,6,2,,,,,,,,,,,,,,,,,,,,,,,,,,,,,,,,,,,,,,,,,,,,,,,,,,,,,,,,,,,,,,,,,,,,,,,,,,,
,,,,,,,,,,stimuli/images/PICTURE_509.png,APPLE,5a3117d0715d6a0001118bfc,01/08/1998,2020-09-02_12h28.06.922,proactive3.2,2020.1.2,Win32,60,5f47c0b9b035471e11593a5c,5f4f81a34f8d2d04088954fe,3,,,,,,telephone,,,,,,0,47,47,38,1,4,2,,,,,,,,,,,,,,,,,,,,,,,,,,,,,,,,,,,,,,,,,,,,,,,,,,,,,,,,,,,,,,,,,,,,,,,,,,,
,,,,,,,,,,stimuli/images/PICTURE_356.png,CANDY,5a3117d0715d6a0001118bfc,01/08/1998,2020-09-02_12h28.06.922,proactive3.2,2020.1.2,Win32,60,5f47c0b9b035471e11593a5c,5f4f81a34f8d2d04088954fe,3,,,,,,pawn,,,,,,0,48,48,46,1,5,2,,,,,,,,,,,,,,,,,,,,,,,,,,,,,,,,,,,,,,,,,,,,,,,,,,,,,,,,,,,,,,,,,,,,,,,,,,,
,,,,,,,,,,stimuli/images/PICTURE_327.png,LEADER,5a3117d0715d6a0001118bfc,01/08/1998,2020-09-02_12h28.06.922,proactive3.2,2020.1.2,Win32,60,5f47c0b9b035471e11593a5c,5f4f81a34f8d2d04088954fe,3,,,,,,helmet,,,,,,0,49,49,17,1,2,2,,,,,,,,,,,,,,,,,,,,,,,,,,,,,,,,,,,,,,,,,,,,,,,,,,,,,,,,,,,,,,,,,,,,,,,,,,,
,,,,,,,,,,stimuli/images/PICTURE_57.png,CANDY,5a3117d0715d6a0001118bfc,01/08/1998,2020-09-02_12h28.06.922,proactive3.2,2020.1.2,Win32,60,5f47c0b9b035471e11593a5c,5f4f81a34f8d2d04088954fe,3,,,,,,stamp,,,,,,0,50,50,52,1,6,2,,,,,,,,,,,,,,,,,,,,,,,,,,,,,,,,,,,,,,,,,,,,,,,,,,,,,,,,,,,,,,,,,,,,,,,,,,,
,,,,,,,,,,stimuli/images/PICTURE_215.png,LEADER,5a3117d0715d6a0001118bfc,01/08/1998,2020-09-02_12h28.06.922,proactive3.2,2020.1.2,Win32,60,5f47c0b9b035471e11593a5c,5f4f81a34f8d2d04088954fe,3,,,,,,boot,,,,,,0,51,51,43,1,5,2,,,,,,,,,,,,,,,,,,,,,,,,,,,,,,,,,,,,,,,,,,,,,,,,,,,,,,,,,,,,,,,,,,,,,,,,,,,
,,,,,,,,,,stimuli/images/PICTURE_504.png,HOUSE,5a3117d0715d6a0001118bfc,01/08/1998,2020-09-02_12h28.06.922,proactive3.2,2020.1.2,Win32,60,5f47c0b9b035471e11593a5c,5f4f81a34f8d2d04088954fe,3,,,,,,wheel,,,,,,0,52,52,36,1,4,2,,,,,,,,,,,,,,,,,,,,,,,,,,,,,,,,,,,,,,,,,,,,,,,,,,,,,,,,,,,,,,,,,,,,,,,,,,,
,,,,,,,,,,stimuli/images/PICTURE_452.png,COPS,5a3117d0715d6a0001118bfc,01/08/1998,2020-09-02_12h28.06.922,proactive3.2,2020.1.2,Win32,60,5f47c0b9b035471e11593a5c,5f4f81a34f8d2d04088954fe,3,,,,,,watch,,,,,,0,53,53,0,1,1,2,,,,,,,,,,,,,,,,,,,,,,,,,,,,,,,,,,,,,,,,,,,,,,,,,,,,,,,,,,,,,,,,,,,,,,,,,,,
,,,,,,,,,,stimuli/images/PICTURE_487.png,ROOF,5a3117d0715d6a0001118bfc,01/08/1998,2020-09-02_12h28.06.922,proactive3.2,2020.1.2,Win32,60,5f47c0b9b035471e11593a5c,5f4f81a34f8d2d04088954fe,3,,,,,,basket,,,,,,0,54,54,50,1,6,2,,,,,,,,,,,,,,,,,,,,,,,,,,,,,,,,,,,,,,,,,,,,,,,,,,,,,,,,,,,,,,,,,,,,,,,,,,,
,,,,,,,,,,stimuli/images/PICTURE_255.png,PENNY,5a3117d0715d6a0001118bfc,01/08/1998,2020-09-02_12h28.06.922,proactive3.2,2020.1.2,Win32,60,5f47c0b9b035471e11593a5c,5f4f81a34f8d2d04088954fe,3,,,,,,shovel,,,,,,0,55,55,19,1,2,2,,,,,,,,,,,,,,,,,,,,,,,,,,,,,,,,,,,,,,,,,,,,,,,,,,,,,,,,,,,,,,,,,,,,,,,,,,,
,,,,,,,,,,stimuli/images/PICTURE_2.png,JUNGLE,5a3117d0715d6a0001118bfc,01/08/1998,2020-09-02_12h28.06.922,proactive3.2,2020.1.2,Win32,60,5f47c0b9b035471e11593a5c,5f4f81a34f8d2d04088954fe,3,,,,,,tyre,,,,,,0,56,56,1,1,1,2,,,,,,,,,,,,,,,,,,,,,,,,,,,,,,,,,,,,,,,,,,,,,,,,,,,,,,,,,,,,,,,,,,,,,,,,,,,
,,,,,,,,,,stimuli/images/PICTURE_123.png,SALE,5a3117d0715d6a0001118bfc,01/08/1998,2020-09-02_12h28.06.922,proactive3.2,2020.1.2,Win32,60,5f47c0b9b035471e11593a5c,5f4f81a34f8d2d04088954fe,3,,,,,,dart,,,,,,0,57,57,8,1,1,2,,,,,,,,,,,,,,,,,,,,,,,,,,,,,,,,,,,,,,,,,,,,,,,,,,,,,,,,,,,,,,,,,,,,,,,,,,,
,,,,,,,,,,stimuli/images/PICTURE_348.png,TOILET,5a3117d0715d6a0001118bfc,01/08/1998,2020-09-02_12h28.06.922,proactive3.2,2020.1.2,Win32,60,5f47c0b9b035471e11593a5c,5f4f81a34f8d2d04088954fe,3,,,,,,pepper,,,,,,0,58,58,4,1,1,2,,,,,,,,,,,,,,,,,,,,,,,,,,,,,,,,,,,,,,,,,,,,,,,,,,,,,,,,,,,,,,,,,,,,,,,,,,,
,,KIND,3.1313,1,,,,,,stimuli/images/PICTURE_68.png,KIND,5a3117d0715d6a0001118bfc,01/08/1998,2020-09-02_12h28.06.922,proactive3.2,2020.1.2,Win32,60,5f47c0b9b035471e11593a5c,5f4f81a34f8d2d04088954fe,3,,,,,,candle,,,,,,,,,,,3,2,0,0,0,23,1,,,,,,,,,,,,,,,,,,,,,,,,,,,,,,,,,,,,,,,,,,,,,,,,,,,,,,,,,,,,,,,,,,,,,,
,,?,0.00096,0,,,,,,stimuli/images/PICTURE_654.png,YEAR,5a3117d0715d6a0001118bfc,01/08/1998,2020-09-02_12h28.06.922,proactive3.2,2020.1.2,Win32,60,5f47c0b9b035471e11593a5c,5f4f81a34f8d2d04088954fe,3,,,,,,pencil,,,,,,,,,,,5,2,0,1,1,41,1,,,,,,,,,,,,,,,,,,,,,,,,,,,,,,,,,,,,,,,,,,,,,,,,,,,,,,,,,,,,,,,,,,,,,,
,,?,0.000615,0,,,,,,stimuli/images/PICTURE_509.png,BATH,5a3117d0715d6a0001118bfc,01/08/1998,2020-09-02_12h28.06.922,proactive3.2,2020.1.2,Win32,60,5f47c0b9b035471e11593a5c,5f4f81a34f8d2d04088954fe,3,,,,,,telephone,,,,,,,,,,,2,2,0,2,2,15,1,,,,,,,,,,,,,,,,,,,,,,,,,,,,,,,,,,,,,,,,,,,,,,,,,,,,,,,,,,,,,,,,,,,,,,
,,?,0.000565,0,,,,,,stimuli/images/PICTURE_655.png,SALE,5a3117d0715d6a0001118bfc,01/08/1998,2020-09-02_12h28.06.922,proactive3.2,2020.1.2,Win32,60,5f47c0b9b035471e11593a5c,5f4f81a34f8d2d04088954fe,3,,,,,,megaphone,,,,,,,,,,,6,2,0,3,3,57,1,,,,,,,,,,,,,,,,,,,,,,,,,,,,,,,,,,,,,,,,,,,,,,,,,,,,,,,,,,,,,,,,,,,,,,
,,GLASS,1.82897,1,,,,,,stimuli/images/PICTURE_667.png,GLASS,5a3117d0715d6a0001118bfc,01/08/1998,2020-09-02_12h28.06.922,proactive3.2,2020.1.2,Win32,60,5f47c0b9b035471e11593a5c,5f4f81a34f8d2d04088954fe,3,,,,,,daisy,,,,,,,,,,,3,2,0,4,4,27,1,,,,,,,,,,,,,,,,,,,,,,,,,,,,,,,,,,,,,,,,,,,,,,,,,,,,,,,,,,,,,,,,,,,,,,
,,BOYS,3.25342,1,,,,,,stimuli/images/PICTURE_215.png,BOYS,5a3117d0715d6a0001118bfc,01/08/1998,2020-09-02_12h28.06.922,proactive3.2,2020.1.2,Win32,60,5f47c0b9b035471e11593a5c,5f4f81a34f8d2d04088954fe,3,,,,,,boot,,,,,,,,,,,3,2,0,5,5,24,1,,,,,,,,,,,,,,,,,,,,,,,,,,,,,,,,,,,,,,,,,,,,,,,,,,,,,,,,,,,,,,,,,,,,,,
,,?,0.00089,0,,,,,,stimuli/images/PICTURE_255.png,PENNY,5a3117d0715d6a0001118bfc,01/08/1998,2020-09-02_12h28.06.922,proactive3.2,2020.1.2,Win32,60,5f47c0b9b035471e11593a5c,5f4f81a34f8d2d04088954fe,3,,,,,,shovel,,,,,,,,,,,2,2,0,6,6,19,1,,,,,,,,,,,,,,,,,,,,,,,,,,,,,,,,,,,,,,,,,,,,,,,,,,,,,,,,,,,,,,,,,,,,,,
,,?,0.000565,0,,,,,,stimuli/images/PICTURE_296.png,CLOCK,5a3117d0715d6a0001118bfc,01/08/1998,2020-09-02_12h28.06.922,proactive3.2,2020.1.2,Win32,60,5f47c0b9b035471e11593a5c,5f4f81a34f8d2d04088954fe,3,,,,,,bolt,,,,,,,,,,,2,2,0,7,7,18,1,,,,,,,,,,,,,,,,,,,,,,,,,,,,,,,,,,,,,,,,,,,,,,,,,,,,,,,,,,,,,,,,,,,,,,
,,SPIRIT,5.65193,1,,,,,,stimuli/images/PICTURE_208.png,SPIRIT,5a3117d0715d6a0001118bfc,01/08/1998,2020-09-02_12h28.06.922,proactive3.2,2020.1.2,Win32,60,5f47c0b9b035471e11593a5c,5f4f81a34f8d2d04088954fe,3,,,,,,microphone,,,,,,,,,,,3,2,0,8,8,28,1,,,,,,,,,,,,,,,,,,,,,,,,,,,,,,,,,,,,,,,,,,,,,,,,,,,,,,,,,,,,,,,,,,,,,,
,,?,0.000725,0,,,,,,stimuli/images/PICTURE_708.png,VALLEY,5a3117d0715d6a0001118bfc,01/08/1998,2020-09-02_12h28.06.922,proactive3.2,2020.1.2,Win32,60,5f47c0b9b035471e11593a5c,5f4f81a34f8d2d04088954fe,3,,,,,,monkey,,,,,,,,,,,5,2,0,9,9,45,1,,,,,,,,,,,,,,,,,,,,,,,,,,,,,,,,,,,,,,,,,,,,,,,,,,,,,,,,,,,,,,,,,,,,,,
,,?,0.00062,0,,,,,,stimuli/images/PICTURE_311.png,TOILET,5a3117d0715d6a0001118bfc,01/08/1998,2020-09-02_12h28.06.922,proactive3.2,2020.1.2,Win32,60,5f47c0b9b035471e11593a5c,5f4f81a34f8d2d04088954fe,3,,,,,,razor,,,,,,,,,,,6,2,0,10,10,54,1,,,,,,,,,,,,,,,,,,,,,,,,,,,,,,,,,,,,,,,,,,,,,,,,,,,,,,,,,,,,,,,,,,,,,,
,,HOUSE,3.45016,1,,,,,,stimuli/images/PICTURE_177.png,HOUSE,5a3117d0715d6a0001118bfc,01/08/1998,2020-09-02_12h28.06.922,proactive3.2,2020.1.2,Win32,60,5f47c0b9b035471e11593a5c,5f4f81a34f8d2d04088954fe,3,,,,,,mushroom,,,,,,,,,,,3,2,0,11,11,25,1,,,,,,,,,,,,,,,,,,,,,,,,,,,,,,,,,,,,,,,,,,,,,,,,,,,,,,,,,,,,,,,,,,,,,,
,,RIVER,2.285235,1,,,,,,stimuli/images/PICTURE_18.png,RIVER,5a3117d0715d6a0001118bfc,01/08/1998,2020-09-02_12h28.06.922,proactive3.2,2020.1.2,Win32,60,5f47c0b9b035471e11593a5c,5f4f81a34f8d2d04088954fe,3,,,,,,planet,,,,,,,,,,,3,2,0,12,12,22,1,,,,,,,,,,,,,,,,,,,,,,,,,,,,,,,,,,,,,,,,,,,,,,,,,,,,,,,,,,,,,,,,,,,,,,
,,?,0.00066,0,,,,,,stimuli/images/PICTURE_147.png,LEADER,5a3117d0715d6a0001118bfc,01/08/1998,2020-09-02_12h28.06.922,proactive3.2,2020.1.2,Win32,60,5f47c0b9b035471e11593a5c,5f4f81a34f8d2d04088954fe,3,,,,,,hanger,,,,,,,,,,,4,2,0,13,13,33,1,,,,,,,,,,,,,,,,,,,,,,,,,,,,,,,,,,,,,,,,,,,,,,,,,,,,,,,,,,,,,,,,,,,,,,
,,NATION,2.317255,1,,,,,,stimuli/images/PICTURE_57.png,NATION,5a3117d0715d6a0001118bfc,01/08/1998,2020-09-02_12h28.06.922,proactive3.2,2020.1.2,Win32,60,5f47c0b9b035471e11593a5c,5f4f81a34f8d2d04088954fe,3,,,,,,stamp,,,,,,,,,,,3,2,0,14,14,21,1,,,,,,,,,,,,,,,,,,,,,,,,,,,,,,,,,,,,,,,,,,,,,,,,,,,,,,,,,,,,,,,,,,,,,,
,,BEAUTY,1.96835,1,,,,,,stimuli/images/PICTURE_470.png,BEAUTY,5a3117d0715d6a0001118bfc,01/08/1998,2020-09-02_12h28.06.922,proactive3.2,2020.1.2,Win32,60,5f47c0b9b035471e11593a5c,5f4f81a34f8d2d04088954fe,3,,,,,,motorbike,,,,,,,,,,,3,2,0,15,15,26,1,,,,,,,,,,,,,,,,,,,,,,,,,,,,,,,,,,,,,,,,,,,,,,,,,,,,,,,,,,,,,,,,,,,,,,
,,?,0.000735,0,,,,,,stimuli/images/PICTURE_405.png,JUNGLE,5a3117d0715d6a0001118bfc,01/08/1998,2020-09-02_12h28.06.922,proactive3.2,2020.1.2,Win32,60,5f47c0b9b035471e11593a5c,5f4f81a34f8d2d04088954fe,3,,,,,,anchor,,,,,,,,,,,6,2,0,16,16,58,1,,,,,,,,,,,,,,,,,,,,,,,,,,,,,,,,,,,,,,,,,,,,,,,,,,,,,,,,,,,,,,,,,,,,,,
,,?,0.000615,0,,,,,,stimuli/images/PICTURE_405.png,HOUSE,5a3117d0715d6a0001118bfc,01/08/1998,2020-09-02_12h28.06.922,proactive3.2,2020.1.2,Win32,60,5f47c0b9b035471e11593a5c,5f4f81a34f8d2d04088954fe,3,,,,,,anchor,,,,,,,,,,,1,2,0,17,17,2,1,,,,,,,,,,,,,,,,,,,,,,,,,,,,,,,,,,,,,,,,,,,,,,,,,,,,,,,,,,,,,,,,,,,,,,
,,?,0.000575,0,,,,,,stimuli/images/PICTURE_2.png,JUNGLE,5a3117d0715d6a0001118bfc,01/08/1998,2020-09-02_12h28.06.922,proactive3.2,2020.1.2,Win32,60,5f47c0b9b035471e11593a5c,5f4f81a34f8d2d04088954fe,3,,,,,,tyre,,,,,,,,,,,1,2,0,18,18,1,1,,,,,,,,,,,,,,,,,,,,,,,,,,,,,,,,,,,,,,,,,,,,,,,,,,,,,,,,,,,,,,,,,,,,,,
,,?,0.000845,0,,,,,,stimuli/images/PICTURE_509.png,MILLER,5a3117d0715d6a0001118bfc,01/08/1998,2020-09-02_12h28.06.922,proactive3.2,2020.1.2,Win32,60,5f47c0b9b035471e11593a5c,5f4f81a34f8d2d04088954fe,3,,,,,,telephone,,,,,,,,,,,5,2,0,19,19,49,1,,,,,,,,,,,,,,,,,,,,,,,,,,,,,,,,,,,,,,,,,,,,,,,,,,,,,,,,,,,,,,,,,,,,,,
,,?,0.00065,0,,,,,,stimuli/images/PICTURE_491.png,SERIES,5a3117d0715d6a0001118bfc,01/08/1998,2020-09-02_12h28.06.922,proactive3.2,2020.1.2,Win32,60,5f47c0b9b035471e11593a5c,5f4f81a34f8d2d04088954fe,3,,,,,,rug,,,,,,,,,,,4,2,0,20,20,39,1,,,,,,,,,,,,,,,,,,,,,,,,,,,,,,,,,,,,,,,,,,,,,,,,,,,,,,,,,,,,,,,,,,,,,,
,,?,0.00059,0,,,,,,stimuli/images/PICTURE_487.png,ROOF,5a3117d0715d6a0001118bfc,01/08/1998,2020-09-02_12h28.06.922,proactive3.2,2020.1.2,Win32,60,5f47c0b9b035471e11593a5c,5f4f81a34f8d2d04088954fe,3,,,,,,basket,,,,,,,,,,,6,2,0,21,21,50,1,,,,,,,,,,,,,,,,,,,,,,,,,,,,,,,,,,,,,,,,,,,,,,,,,,,,,,,,,,,,,,,,,,,,,,
,,?,0.0006,0,,,,,,stimuli/images/PICTURE_509.png,SHOTS,5a3117d0715d6a0001118bfc,01/08/1998,2020-09-02_12h28.06.922,proactive3.2,2020.1.2,Win32,60,5f47c0b9b035471e11593a5c,5f4f81a34f8d2d04088954fe,3,,,,,,telephone,,,,,,,,,,,1,2,0,22,22,7,1,,,,,,,,,,,,,,,,,,,,,,,,,,,,,,,,,,,,,,,,,,,,,,,,,,,,,,,,,,,,,,,,,,,,,,
,,?,0.000625,0,,,,,,stimuli/images/PICTURE_57.png,CANDY,5a3117d0715d6a0001118bfc,01/08/1998,2020-09-02_12h28.06.922,proactive3.2,2020.1.2,Win32,60,5f47c0b9b035471e11593a5c,5f4f81a34f8d2d04088954fe,3,,,,,,stamp,,,,,,,,,,,6,2,0,23,23,52,1,,,,,,,,,,,,,,,,,,,,,,,,,,,,,,,,,,,,,,,,,,,,,,,,,,,,,,,,,,,,,,,,,,,,,,
,,?,0.00064,0,,,,,,stimuli/images/PICTURE_297.png,BODY,5a3117d0715d6a0001118bfc,01/08/1998,2020-09-02_12h28.06.922,proactive3.2,2020.1.2,Win32,60,5f47c0b9b035471e11593a5c,5f4f81a34f8d2d04088954fe,3,,,,,,aeroplane,,,,,,,,,,,6,2,0,24,24,51,1,,,,,,,,,,,,,,,,,,,,,,,,,,,,,,,,,,,,,,,,,,,,,,,,,,,,,,,,,,,,,,,,,,,,,,
,,?,0.00137,0,,,,,,stimuli/images/PICTURE_123.png,SALE,5a3117d0715d6a0001118bfc,01/08/1998,2020-09-02_12h28.06.922,proactive3.2,2020.1.2,Win32,60,5f47c0b9b035471e11593a5c,5f4f81a34f8d2d04088954fe,3,,,,,,dart,,,,,,,,,,,1,2,0,25,25,8,1,,,,,,,,,,,,,,,,,,,,,,,,,,,,,,,,,,,,,,,,,,,,,,,,,,,,,,,,,,,,,,,,,,,,,,
,,?,0.00052,0,,,,,,stimuli/images/PICTURE_215.png,FOOD,5a3117d0715d6a0001118bfc,01/08/1998,2020-09-02_12h28.06.922,proactive3.2,2020.1.2,Win32,60,5f47c0b9b035471e11593a5c,5f4f81a34f8d2d04088954fe,3,,,,,,boot,,,,,,,,,,,1,2,0,26,26,5,1,,,,,,,,,,,,,,,,,,,,,,,,,,,,,,,,,,,,,,,,,,,,,,,,,,,,,,,,,,,,,,,,,,,,,,
,,?,0.000495,0,,,,,,stimuli/images/PICTURE_160.png,HOTEL,5a3117d0715d6a0001118bfc,01/08/1998,2020-09-02_12h28.06.922,proactive3.2,2020.1.2,Win32,60,5f47c0b9b035471e11593a5c,5f4f81a34f8d2d04088954fe,3,,,,,,wheelbarrow,,,,,,,,,,,2,2,0,27,27,16,1,,,,,,,,,,,,,,,,,,,,,,,,,,,,,,,,,,,,,,,,,,,,,,,,,,,,,,,,,,,,,,,,,,,,,,
,,?,0.000585,0,,,,,,stimuli/images/PICTURE_314.png,SPEECH,5a3117d0715d6a0001118bfc,01/08/1998,2020-09-02_12h28.06.922,proactive3.2,2020.1.2,Win32,60,5f47c0b9b035471e11593a5c,5f4f81a34f8d2d04088954fe,3,,,,,,perfume,,,,,,,,,,,4,2,0,28,28,35,1,,,,,,,,,,,,,,,,,,,,,,,,,,,,,,,,,,,,,,,,,,,,,,,,,,,,,,,,,,,,,,,,,,,,,,
,,?,0.000575,0,,,,,,stimuli/images/PICTURE_327.png,LEADER,5a3117d0715d6a0001118bfc,01/08/1998,2020-09-02_12h28.06.922,proactive3.2,2020.1.2,Win32,60,5f47c0b9b035471e11593a5c,5f4f81a34f8d2d04088954fe,3,,,,,,helmet,,,,,,,,,,,2,2,0,29,29,17,1,,,,,,,,,,,,,,,,,,,,,,,,,,,,,,,,,,,,,,,,,,,,,,,,,,,,,,,,,,,,,,,,,,,,,,
,,?,0.00049,0,,,,,,stimuli/images/PICTURE_2.png,AREA,5a3117d0715d6a0001118bfc,01/08/1998,2020-09-02_12h28.06.922,proactive3.2,2020.1.2,Win32,60,5f47c0b9b035471e11593a5c,5f4f81a34f8d2d04088954fe,3,,,,,,tyre,,,,,,,,,,,4,2,0,30,30,32,1,,,,,,,,,,,,,,,,,,,,,,,,,,,,,,,,,,,,,,,,,,,,,,,,,,,,,,,,,,,,,,,,,,,,,,
,,?,0.00143,0,,,,,,stimuli/images/PICTURE_452.png,COPS,5a3117d0715d6a0001118bfc,01/08/1998,2020-09-02_12h28.06.922,proactive3.2,2020.1.2,Win32,60,5f47c0b9b035471e11593a5c,5f4f81a34f8d2d04088954fe,3,,,,,,watch,,,,,,,,,,,1,2,0,31,31,0,1,,,,,,,,,,,,,,,,,,,,,,,,,,,,,,,,,,,,,,,,,,,,,,,,,,,,,,,,,,,,,,,,,,,,,,
,,?,0.0005,0,,,,,,stimuli/images/PICTURE_504.png,HOUSE,5a3117d0715d6a0001118bfc,01/08/1998,2020-09-02_12h28.06.922,proactive3.2,2020.1.2,Win32,60,5f47c0b9b035471e11593a5c,5f4f81a34f8d2d04088954fe,3,,,,,,wheel,,,,,,,,,,,4,2,0,32,32,36,1,,,,,,,,,,,,,,,,,,,,,,,,,,,,,,,,,,,,,,,,,,,,,,,,,,,,,,,,,,,,,,,,,,,,,,
,,COPS,1.82129,1,,,,,,stimuli/images/PICTURE_33.png,COPS,5a3117d0715d6a0001118bfc,01/08/1998,2020-09-02_12h28.06.922,proactive3.2,2020.1.2,Win32,60,5f47c0b9b035471e11593a5c,5f4f81a34f8d2d04088954fe,3,,,,,,frame,,,,,,,,,,,3,2,0,33,33,29,1,,,,,,,,,,,,,,,,,,,,,,,,,,,,,,,,,,,,,,,,,,,,,,,,,,,,,,,,,,,,,,,,,,,,,,
,,?,0.00074,0,,,,,,stimuli/images/PICTURE_93.png,GIRL,5a3117d0715d6a0001118bfc,01/08/1998,2020-09-02_12h28.06.922,proactive3.2,2020.1.2,Win32,60,5f47c0b9b035471e11593a5c,5f4f81a34f8d2d04088954fe,3,,,,,,skateboard,,,,,,,,,,,4,2,0,34,34,31,1,,,,,,,,,,,,,,,,,,,,,,,,,,,,,,,,,,,,,,,,,,,,,,,,,,,,,,,,,,,,,,,,,,,,,,
,,?,0.00054,0,,,,,,stimuli/images/PICTURE_348.png,TOILET,5a3117d0715d6a0001118bfc,01/08/1998,2020-09-02_12h28.06.922,proactive3.2,2020.1.2,Win32,60,5f47c0b9b035471e11593a5c,5f4f81a34f8d2d04088954fe,3,,,,,,pepper,,,,,,,,,,,1,2,0,35,35,4,1,,,,,,,,,,,,,,,,,,,,,,,,,,,,,,,,,,,,,,,,,,,,,,,,,,,,,,,,,,,,,,,,,,,,,,
,,?,0.000475,0,,,,,,stimuli/images/PICTURE_32.png,LETTER,5a3117d0715d6a0001118bfc,01/08/1998,2020-09-02_12h28.06.922,proactive3.2,2020.1.2,Win32,60,5f47c0b9b035471e11593a5c,5f4f81a34f8d2d04088954fe,3,,,,,,crown,,,,,,,,,,,6,2,0,36,36,56,1,,,,,,,,,,,,,,,,,,,,,,,,,,,,,,,,,,,,,,,,,,,,,,,,,,,,,,,,,,,,,,,,,,,,,,
,,PRINCE,2.030695,1,,,,,,stimuli/images/PICTURE_285.png,PRINCE,5a3117d0715d6a0001118bfc,01/08/1998,2020-09-02_12h28.06.922,proactive3.2,2020.1.2,Win32,60,5f47c0b9b035471e11593a5c,5f4f81a34f8d2d04088954fe,3,,,,,,carrot,,,,,,,,,,,3,2,0,37,37,20,1,,,,,,,,,,,,,,,,,,,,,,,,,,,,,,,,,,,,,,,,,,,,,,,,,,,,,,,,,,,,,,,,,,,,,,
,,?,0.00065,0,,,,,,stimuli/images/PICTURE_2.png,YARD,5a3117d0715d6a0001118bfc,01/08/1998,2020-09-02_12h28.06.922,proactive3.2,2020.1.2,Win32,60,5f47c0b9b035471e11593a5c,5f4f81a34f8d2d04088954fe,3,,,,,,tyre,,,,,,,,,,,6,2,0,38,38,55,1,,,,,,,,,,,,,,,,,,,,,,,,,,,,,,,,,,,,,,,,,,,,,,,,,,,,,,,,,,,,,,,,,,,,,,
,,?,0.000525,0,,,,,,stimuli/images/PICTURE_285.png,WRITER,5a3117d0715d6a0001118bfc,01/08/1998,2020-09-02_12h28.06.922,proactive3.2,2020.1.2,Win32,60,5f47c0b9b035471e11593a5c,5f4f81a34f8d2d04088954fe,3,,,,,,carrot,,,,,,,,,,,1,2,0,39,39,6,1,,,,,,,,,,,,,,,,,,,,,,,,,,,,,,,,,,,,,,,,,,,,,,,,,,,,,,,,,,,,,,,,,,,,,,
,,?,0.00052,0,,,,,,stimuli/images/PICTURE_677.png,FAMILY,5a3117d0715d6a0001118bfc,01/08/1998,2020-09-02_12h28.06.922,proactive3.2,2020.1.2,Win32,60,5f47c0b9b035471e11593a5c,5f4f81a34f8d2d04088954fe,3,,,,,,map,,,,,,,,,,,6,2,0,40,40,53,1,,,,,,,,,,,,,,,,,,,,,,,,,,,,,,,,,,,,,,,,,,,,,,,,,,,,,,,,,,,,,,,,,,,,,,
,,?,0.00048,0,,,,,,stimuli/images/PICTURE_692.png,DUDE,5a3117d0715d6a0001118bfc,01/08/1998,2020-09-02_12h28.06.922,proactive3.2,2020.1.2,Win32,60,5f47c0b9b035471e11593a5c,5f4f81a34f8d2d04088954fe,3,,,,,,cherry,,,,,,,,,,,5,2,0,41,41,47,1,,,,,,,,,,,,,,,,,,,,,,,,,,,,,,,,,,,,,,,,,,,,,,,,,,,,,,,,,,,,,,,,,,,,,,
,,?,0.00048,0,,,,,,stimuli/images/PICTURE_57.png,CASINO,5a3117d0715d6a0001118bfc,01/08/1998,2020-09-02_12h28.06.922,proactive3.2,2020.1.2,Win32,60,5f47c0b9b035471e11593a5c,5f4f81a34f8d2d04088954fe,3,,,,,,stamp,,,,,,,,,,,2,2,0,42,42,12,1,,,,,,,,,,,,,,,,,,,,,,,,,,,,,,,,,,,,,,,,,,,,,,,,,,,,,,,,,,,,,,,,,,,,,,
,,?,0.000485,0,,,,,,stimuli/images/PICTURE_356.png,CANDY,5a3117d0715d6a0001118bfc,01/08/1998,2020-09-02_12h28.06.922,proactive3.2,2020.1.2,Win32,60,5f47c0b9b035471e11593a5c,5f4f81a34f8d2d04088954fe,3,,,,,,pawn,,,,,,,,,,,5,2,0,43,43,46,1,,,,,,,,,,,,,,,,,,,,,,,,,,,,,,,,,,,,,,,,,,,,,,,,,,,,,,,,,,,,,,,,,,,,,,
,,?,0.000485,0,,,,,,stimuli/images/PICTURE_564.png,PLENTY,5a3117d0715d6a0001118bfc,01/08/1998,2020-09-02_12h28.06.922,proactive3.2,2020.1.2,Win32,60,5f47c0b9b035471e11593a5c,5f4f81a34f8d2d04088954fe,3,,,,,,spoon,,,,,,,,,,,2,2,0,44,44,11,1,,,,,,,,,,,,,,,,,,,,,,,,,,,,,,,,,,,,,,,,,,,,,,,,,,,,,,,,,,,,,,,,,,,,,,
,,?,0.000485,0,,,,,,stimuli/images/PICTURE_509.png,APPLE,5a3117d0715d6a0001118bfc,01/08/1998,2020-09-02_12h28.06.922,proactive3.2,2020.1.2,Win32,60,5f47c0b9b035471e11593a5c,5f4f81a34f8d2d04088954fe,3,,,,,,telephone,,,,,,,,,,,4,2,0,45,45,38,1,,,,,,,,,,,,,,,,,,,,,,,,,,,,,,,,,,,,,,,,,,,,,,,,,,,,,,,,,,,,,,,,,,,,,,
,,?,0.000465,0,,,,,,stimuli/images/PICTURE_141.png,CLIENT,5a3117d0715d6a0001118bfc,01/08/1998,2020-09-02_12h28.06.922,proactive3.2,2020.1.2,Win32,60,5f47c0b9b035471e11593a5c,5f4f81a34f8d2d04088954fe,3,,,,,,sunflower,,,,,,,,,,,4,2,0,46,46,30,1,,,,,,,,,,,,,,,,,,,,,,,,,,,,,,,,,,,,,,,,,,,,,,,,,,,,,,,,,,,,,,,,,,,,,,
,,?,0.000595,0,,,,,,stimuli/images/PICTURE_487.png,POLICY,5a3117d0715d6a0001118bfc,01/08/1998,2020-09-02_12h28.06.922,proactive3.2,2020.1.2,Win32,60,5f47c0b9b035471e11593a5c,5f4f81a34f8d2d04088954fe,3,,,,,,basket,,,,,,,,,,,4,2,0,47,47,34,1,,,,,,,,,,,,,,,,,,,,,,,,,,,,,,,,,,,,,,,,,,,,,,,,,,,,,,,,,,,,,,,,,,,,,,
,,?,0.00066,0,,,,,,stimuli/images/PICTURE_688.png,CLOCK,5a3117d0715d6a0001118bfc,01/08/1998,2020-09-02_12h28.06.922,proactive3.2,2020.1.2,Win32,60,5f47c0b9b035471e11593a5c,5f4f81a34f8d2d04088954fe,3,,,,,,runner,,,,,,,,,,,5,2,0,48,48,42,1,,,,,,,,,,,,,,,,,,,,,,,,,,,,,,,,,,,,,,,,,,,,,,,,,,,,,,,,,,,,,,,,,,,,,,
,,?,0.0005,0,,,,,,stimuli/images/PICTURE_470.png,MOMENT,5a3117d0715d6a0001118bfc,01/08/1998,2020-09-02_12h28.06.922,proactive3.2,2020.1.2,Win32,60,5f47c0b9b035471e11593a5c,5f4f81a34f8d2d04088954fe,3,,,,,,motorbike,,,,,,,,,,,5,2,0,49,49,40,1,,,,,,,,,,,,,,,,,,,,,,,,,,,,,,,,,,,,,,,,,,,,,,,,,,,,,,,,,,,,,,,,,,,,,,
,,?,0.000475,0,,,,,,stimuli/images/PICTURE_348.png,DUDE,5a3117d0715d6a0001118bfc,01/08/1998,2020-09-02_12h28.06.922,proactive3.2,2020.1.2,Win32,60,5f47c0b9b035471e11593a5c,5f4f81a34f8d2d04088954fe,3,,,,,,pepper,,,,,,,,,,,6,2,0,50,50,59,1,,,,,,,,,,,,,,,,,,,,,,,,,,,,,,,,,,,,,,,,,,,,,,,,,,,,,,,,,,,,,,,,,,,,,,
,,?,0.00164,0,,,,,,stimuli/images/PICTURE_654.png,COPS,5a3117d0715d6a0001118bfc,01/08/1998,2020-09-02_12h28.06.922,proactive3.2,2020.1.2,Win32,60,5f47c0b9b035471e11593a5c,5f4f81a34f8d2d04088954fe,3,,,,,,pencil,,,,,,,,,,,2,2,0,51,51,10,1,,,,,,,,,,,,,,,,,,,,,,,,,,,,,,,,,,,,,,,,,,,,,,,,,,,,,,,,,,,,,,,,,,,,,,
,,?,0.0005,0,,,,,,stimuli/images/PICTURE_453.png,FAMILY,5a3117d0715d6a0001118bfc,01/08/1998,2020-09-02_12h28.06.922,proactive3.2,2020.1.2,Win32,60,5f47c0b9b035471e11593a5c,5f4f81a34f8d2d04088954fe,3,,,,,,scissors,,,,,,,,,,,5,2,0,52,52,48,1,,,,,,,,,,,,,,,,,,,,,,,,,,,,,,,,,,,,,,,,,,,,,,,,,,,,,,,,,,,,,,,,,,,,,,
,,?,0.00047,0,,,,,,stimuli/images/PICTURE_677.png,PHOTO,5a3117d0715d6a0001118bfc,01/08/1998,2020-09-02_12h28.06.922,proactive3.2,2020.1.2,Win32,60,5f47c0b9b035471e11593a5c,5f4f81a34f8d2d04088954fe,3,,,,,,map,,,,,,,,,,,2,2,0,53,53,14,1,,,,,,,,,,,,,,,,,,,,,,,,,,,,,,,,,,,,,,,,,,,,,,,,,,,,,,,,,,,,,,,,,,,,,,
,,?,0.000465,0,,,,,,stimuli/images/PICTURE_750.png,POLICY,5a3117d0715d6a0001118bfc,01/08/1998,2020-09-02_12h28.06.922,proactive3.2,2020.1.2,Win32,60,5f47c0b9b035471e11593a5c,5f4f81a34f8d2d04088954fe,3,,,,,,kettle,,,,,,,,,,,5,2,0,54,54,44,1,,,,,,,,,,,,,,,,,,,,,,,,,,,,,,,,,,,,,,,,,,,,,,,,,,,,,,,,,,,,,,,,,,,,,,
,,?,0.00054,0,,,,,,stimuli/images/PICTURE_403.png,FAMILY,5a3117d0715d6a0001118bfc,01/08/1998,2020-09-02_12h28.06.922,proactive3.2,2020.1.2,Win32,60,5f47c0b9b035471e11593a5c,5f4f81a34f8d2d04088954fe,3,,,,,,cathedral,,,,,,,,,,,1,2,0,55,55,9,1,,,,,,,,,,,,,,,,,,,,,,,,,,,,,,,,,,,,,,,,,,,,,,,,,,,,,,,,,,,,,,,,,,,,,,
,,?,0.00046,0,,,,,,stimuli/images/PICTURE_215.png,LEADER,5a3117d0715d6a0001118bfc,01/08/1998,2020-09-02_12h28.06.922,proactive3.2,2020.1.2,Win32,60,5f47c0b9b035471e11593a5c,5f4f81a34f8d2d04088954fe,3,,,,,,boot,,,,,,,,,,,5,2,0,56,56,43,1,,,,,,,,,,,,,,,,,,,,,,,,,,,,,,,,,,,,,,,,,,,,,,,,,,,,,,,,,,,,,,,,,,,,,,
,,?,0.00055,0,,,,,,stimuli/images/PICTURE_95.png,NIGHT,5a3117d0715d6a0001118bfc,01/08/1998,2020-09-02_12h28.06.922,proactive3.2,2020.1.2,Win32,60,5f47c0b9b035471e11593a5c,5f4f81a34f8d2d04088954fe,3,,,,,,suitcase,,,,,,,,,,,4,2,0,57,57,37,1,,,,,,,,,,,,,,,,,,,,,,,,,,,,,,,,,,,,,,,,,,,,,,,,,,,,,,,,,,,,,,,,,,,,,,
,,?,0.000505,0,,,,,,stimuli/images/PICTURE_311.png,FLESH,5a3117d0715d6a0001118bfc,01/08/1998,2020-09-02_12h28.06.922,proactive3.2,2020.1.2,Win32,60,5f47c0b9b035471e11593a5c,5f4f81a34f8d2d04088954fe,3,,,,,,razor,,,,,,,,,,,1,2,0,58,58,3,1,,,,,,,,,,,,,,,,,,,,,,,,,,,,,,,,,,,,,,,,,,,,,,,,,,,,,,,,,,,,,,,,,,,,,,
,,?,0.000475,0,,,,,,stimuli/images/PICTURE_405.png,JUNGLE,5a3117d0715d6a0001118bfc,01/08/1998,2020-09-02_12h28.06.922,proactive3.2,2020.1.2,Win32,60,5f47c0b9b035471e11593a5c,5f4f81a34f8d2d04088954fe,3,,,,,,anchor,,,,,,,,,,,2,2,0,59,59,13,1,,,,,,,,,,,,,,,,,,,,,,,,,,,,,,,,,,,,,,,,,,,,,,,,,,,,,,,,,,,,,,,,,,,,,,
,,,,,,,,,,,,5a3117d0715d6a0001118bfc,01/08/1998,2020-09-02_12h28.06.922,proactive3.2,2020.1.2,Win32,60,5f47c0b9b035471e11593a5c,5f4f81a34f8d2d04088954fe,3,,,,,,,,,,,,,,,,,,,,,,,,0,1,1,2,1,stimuli/learn-block3.csv,,,,,,,,,,,,,,,,,,,,,,,,,,,,,,,,,,,,,,,,,,,,,,,,,,,,,,,,,,,,,,,,
,,,,,,,,,,stimuli/images/PICTURE_85.png,TOILET,5a3117d0715d6a0001118bfc,01/08/1998,2020-09-02_12h28.06.922,proactive3.2,2020.1.2,Win32,60,5f47c0b9b035471e11593a5c,5f4f81a34f8d2d04088954fe,3,,,,,,diamond,,,,,,0,0,0,48,1,5,1,,,,,,,,,,,,,,,,,,,,,,,,,,,,,,,,,,,,,,,,,,,,,,,,,,,,,,,,,,,,,,,,,,,,,,,,,,,
,,,,,,,,,,stimuli/images/PICTURE_487.png,GIRL,5a3117d0715d6a0001118bfc,01/08/1998,2020-09-02_12h28.06.922,proactive3.2,2020.1.2,Win32,60,5f47c0b9b035471e11593a5c,5f4f81a34f8d2d04088954fe,3,,,,,,basket,,,,,,0,1,1,45,1,5,1,,,,,,,,,,,,,,,,,,,,,,,,,,,,,,,,,,,,,,,,,,,,,,,,,,,,,,,,,,,,,,,,,,,,,,,,,,,
,,,,,,,,,,stimuli/images/PICTURE_297.png,RIVER,5a3117d0715d6a0001118bfc,01/08/1998,2020-09-02_12h28.06.922,proactive3.2,2020.1.2,Win32,60,5f47c0b9b035471e11593a5c,5f4f81a34f8d2d04088954fe,3,,,,,,aeroplane,,,,,,0,2,2,39,1,4,1,,,,,,,,,,,,,,,,,,,,,,,,,,,,,,,,,,,,,,,,,,,,,,,,,,,,,,,,,,,,,,,,,,,,,,,,,,,
,,,,,,,,,,stimuli/images/PICTURE_449.png,DUDE,5a3117d0715d6a0001118bfc,01/08/1998,2020-09-02_12h28.06.922,proactive3.2,2020.1.2,Win32,60,5f47c0b9b035471e11593a5c,5f4f81a34f8d2d04088954fe,3,,,,,,bench,,,,,,0,3,3,17,1,2,1,,,,,,,,,,,,,,,,,,,,,,,,,,,,,,,,,,,,,,,,,,,,,,,,,,,,,,,,,,,,,,,,,,,,,,,,,,,
,,,,,,,,,,stimuli/images/PICTURE_57.png,MOMENT,5a3117d0715d6a0001118bfc,01/08/1998,2020-09-02_12h28.06.922,proactive3.2,2020.1.2,Win32,60,5f47c0b9b035471e11593a5c,5f4f81a34f8d2d04088954fe,3,,,,,,stamp,,,,,,0,4,4,37,1,4,1,,,,,,,,,,,,,,,,,,,,,,,,,,,,,,,,,,,,,,,,,,,,,,,,,,,,,,,,,,,,,,,,,,,,,,,,,,,
,,,,,,,,,,stimuli/images/PICTURE_655.png,TOILET,5a3117d0715d6a0001118bfc,01/08/1998,2020-09-02_12h28.06.922,proactive3.2,2020.1.2,Win32,60,5f47c0b9b035471e11593a5c,5f4f81a34f8d2d04088954fe,3,,,,,,megaphone,,,,,,0,5,5,12,1,2,1,,,,,,,,,,,,,,,,,,,,,,,,,,,,,,,,,,,,,,,,,,,,,,,,,,,,,,,,,,,,,,,,,,,,,,,,,,,
,,,,,,,,,,stimuli/images/PICTURE_469.png,AGENT,5a3117d0715d6a0001118bfc,01/08/1998,2020-09-02_12h28.06.922,proactive3.2,2020.1.2,Win32,60,5f47c0b9b035471e11593a5c,5f4f81a34f8d2d04088954fe,3,,,,,,stool,,,,,,0,6,6,16,1,2,1,,,,,,,,,,,,,,,,,,,,,,,,,,,,,,,,,,,,,,,,,,,,,,,,,,,,,,,,,,,,,,,,,,,,,,,,,,,
,,,,,,,,,,stimuli/images/PICTURE_504.png,YEAR,5a3117d0715d6a0001118bfc,01/08/1998,2020-09-02_12h28.06.922,proactive3.2,2020.1.2,Win32,60,5f47c0b9b035471e11593a5c,5f4f81a34f8d2d04088954fe,3,,,,,,wheel,,,,,,0,7,7,13,1,2,1,,,,,,,,,,,,,,,,,,,,,,,,,,,,,,,,,,,,,,,,,,,,,,,,,,,,,,,,,,,,,,,,,,,,,,,,,,,
,,,,,,,,,,stimuli/images/PICTURE_203.png,NIGHT,5a3117d0715d6a0001118bfc,01/08/1998,2020-09-02_12h28.06.922,proactive3.2,2020.1.2,Win32,60,5f47c0b9b035471e11593a5c,5f4f81a34f8d2d04088954fe,3,,,,,,cap,,,,,,0,8,8,2,1,1,1,,,,,,,,,,,,,,,,,,,,,,,,,,,,,,,,,,,,,,,,,,,,,,,,,,,,,,,,,,,,,,,,,,,,,,,,,,,
,,,,,,,,,,stimuli/images/PICTURE_504.png,COPS,5a3117d0715d6a0001118bfc,01/08/1998,2020-09-02_12h28.06.922,proactive3.2,2020.1.2,Win32,60,5f47c0b9b035471e11593a5c,5f4f81a34f8d2d04088954fe,3,,,,,,wheel,,,,,,0,9,9,52,1,6,1,,,,,,,,,,,,,,,,,,,,,,,,,,,,,,,,,,,,,,,,,,,,,,,,,,,,,,,,,,,,,,,,,,,,,,,,,,,
,,,,,,,,,,stimuli/images/PICTURE_667.png,RIVER,5a3117d0715d6a0001118bfc,01/08/1998,2020-09-02_12h28.06.922,proactive3.2,2020.1.2,Win32,60,5f47c0b9b035471e11593a5c,5f4f81a34f8d2d04088954fe,3,,,,,,daisy,,,,,,0,10,10,10,1,2,1,,,,,,,,,,,,,,,,,,,,,,,,,,,,,,,,,,,,,,,,,,,,,,,,,,,,,,,,,,,,,,,,,,,,,,,,,,,
,,,,,,,,,,stimuli/images/PICTURE_708.png,RECORD,5a3117d0715d6a0001118bfc,01/08/1998,2020-09-02_12h28.06.922,proactive3.2,2020.1.2,Win32,60,5f47c0b9b035471e11593a5c,5f4f81a34f8d2d04088954fe,3,,,,,,monkey,,,,,,0,11,11,58,1,6,1,,,,,,,,,,,,,,,,,,,,,,,,,,,,,,,,,,,,,,,,,,,,,,,,,,,,,,,,,,,,,,,,,,,,,,,,,,,
,,,,,,,,,,stimuli/images/PICTURE_95.png,MILLER,5a3117d0715d6a0001118bfc,01/08/1998,2020-09-02_12h28.06.922,proactive3.2,2020.1.2,Win32,60,5f47c0b9b035471e11593a5c,5f4f81a34f8d2d04088954fe,3,,,,,,suitcase,,,,,,0,12,12,56,1,6,1,,,,,,,,,,,,,,,,,,,,,,,,,,,,,,,,,,,,,,,,,,,,,,,,,,,,,,,,,,,,,,,,,,,,,,,,,,,
,,,,,,,,,,stimuli/images/PICTURE_380.png,HONEY,5a3117d0715d6a0001118bfc,01/08/1998,2020-09-02_12h28.06.922,proactive3.2,2020.1.2,Win32,60,5f47c0b9b035471e11593a5c,5f4f81a34f8d2d04088954fe,3,,,,,,gorilla,,,,,,0,13,13,19,1,2,1,,,,,,,,,,,,,,,,,,,,,,,,,,,,,,,,,,,,,,,,,,,,,,,,,,,,,,,,,,,,,,,,,,,,,,,,,,,
,,,,,,,,,,stimuli/images/PICTURE_403.png,RIVER,5a3117d0715d6a0001118bfc,01/08/1998,2020-09-02_12h28.06.922,proactive3.2,2020.1.2,Win32,60,5f47c0b9b035471e11593a5c,5f4f81a34f8d2d04088954fe,3,,,,,,cathedral,,,,,,0,14,14,40,1,5,1,,,,,,,,,,,,,,,,,,,,,,,,,,,,,,,,,,,,,,,,,,,,,,,,,,,,,,,,,,,,,,,,,,,,,,,,,,,
,,,,,,,,,,stimuli/images/PICTURE_340.png,LETTER,5a3117d0715d6a0001118bfc,01/08/1998,2020-09-02_12h28.06.922,proactive3.2,2020.1.2,Win32,60,5f47c0b9b035471e11593a5c,5f4f81a34f8d2d04088954fe,3,,,,,,mirror,,,,,,0,15,15,24,1,3,1,,,,,,,,,,,,,,,,,,,,,,,,,,,,,,,,,,,,,,,,,,,,,,,,,,,,,,,,,,,,,,,,,,,,,,,,,,,
,,,,,,,,,,stimuli/images/PICTURE_2.png,FLIGHT,5a3117d0715d6a0001118bfc,01/08/1998,2020-09-02_12h28.06.922,proactive3.2,2020.1.2,Win32,60,5f47c0b9b035471e11593a5c,5f4f81a34f8d2d04088954fe,3,,,,,,tyre,,,,,,0,16,16,15,1,2,1,,,,,,,,,,,,,,,,,,,,,,,,,,,,,,,,,,,,,,,,,,,,,,,,,,,,,,,,,,,,,,,,,,,,,,,,,,,
,,,,,,,,,,stimuli/images/PICTURE_68.png,MILE,5a3117d0715d6a0001118bfc,01/08/1998,2020-09-02_12h28.06.922,proactive3.2,2020.1.2,Win32,60,5f47c0b9b035471e11593a5c,5f4f81a34f8d2d04088954fe,3,,,,,,candle,,,,,,0,17,17,51,1,6,1,,,,,,,,,,,,,,,,,,,,,,,,,,,,,,,,,,,,,,,,,,,,,,,,,,,,,,,,,,,,,,,,,,,,,,,,,,,
,,,,,,,,,,stimuli/images/PICTURE_32.png,KIND,5a3117d0715d6a0001118bfc,01/08/1998,2020-09-02_12h28.06.922,proactive3.2,2020.1.2,Win32,60,5f47c0b9b035471e11593a5c,5f4f81a34f8d2d04088954fe,3,,,,,,crown,,,,,,0,18,18,35,1,4,1,,,,,,,,,,,,,,,,,,,,,,,,,,,,,,,,,,,,,,,,,,,,,,,,,,,,,,,,,,,,,,,,,,,,,,,,,,,
,,,,,,,,,,stimuli/images/PICTURE_95.png,HONEY,5a3117d0715d6a0001118bfc,01/08/1998,2020-09-02_12h28.06.922,proactive3.2,2020.1.2,Win32,60,5f47c0b9b035471e11593a5c,5f4f81a34f8d2d04088954fe,3,,,,,,suitcase,,,,,,0,19,19,44,1,5,1,,,,,,,,,,,,,,,,,,,,,,,,,,,,,,,,,,,,,,,,,,,,,,,,,,,,,,,,,,,,,,,,,,,,,,,,,,,
,,,,,,,,,,stimuli/images/PICTURE_403.png,WRITER,5a3117d0715d6a0001118bfc,01/08/1998,2020-09-02_12h28.06.922,proactive3.2,2020.1.2,Win32,60,5f47c0b9b035471e11593a5c,5f4f81a34f8d2d04088954fe,3,,,,,,cathedral,,,,,,0,20,20,31,1,4,1,,,,,,,,,,,,,,,,,,,,,,,,,,,,,,,,,,,,,,,,,,,,,,,,,,,,,,,,,,,,,,,,,,,,,,,,,,,
,,,,,,,,,,stimuli/images/PICTURE_467.png,POLICY,5a3117d0715d6a0001118bfc,01/08/1998,2020-09-02_12h28.06.922,proactive3.2,2020.1.2,Win32,60,5f47c0b9b035471e11593a5c,5f4f81a34f8d2d04088954fe,3,,,,,,peg,,,,,,0,21,21,53,1,6,1,,,,,,,,,,,,,,,,,,,,,,,,,,,,,,,,,,,,,,,,,,,,,,,,,,,,,,,,,,,,,,,,,,,,,,,,,,,
,,,,,,,,,,stimuli/images/PICTURE_405.png,YEAR,5a3117d0715d6a0001118bfc,01/08/1998,2020-09-02_12h28.06.922,proactive3.2,2020.1.2,Win32,60,5f47c0b9b035471e11593a5c,5f4f81a34f8d2d04088954fe,3,,,,,,anchor,,,,,,0,22,22,34,1,4,1,,,,,,,,,,,,,,,,,,,,,,,,,,,,,,,,,,,,,,,,,,,,,,,,,,,,,,,,,,,,,,,,,,,,,,,,,,,
,,,,,,,,,,stimuli/images/PICTURE_491.png,RIVER,5a3117d0715d6a0001118bfc,01/08/1998,2020-09-02_12h28.06.922,proactive3.2,2020.1.2,Win32,60,5f47c0b9b035471e11593a5c,5f4f81a34f8d2d04088954fe,3,,,,,,rug,,,,,,0,23,23,6,1,1,1,,,,,,,,,,,,,,,,,,,,,,,,,,,,,,,,,,,,,,,,,,,,,,,,,,,,,,,,,,,,,,,,,,,,,,,,,,,
,,,,,,,,,,stimuli/images/PICTURE_108.png,FLIGHT,5a3117d0715d6a0001118bfc,01/08/1998,2020-09-02_12h28.06.922,proactive3.2,2020.1.2,Win32,60,5f47c0b9b035471e11593a5c,5f4f81a34f8d2d04088954fe,3,,,,,,calendar,,,,,,0,24,24,59,1,6,1,,,,,,,,,,,,,,,,,,,,,,,,,,,,,,,,,,,,,,,,,,,,,,,,,,,,,,,,,,,,,,,,,,,,,,,,,,,
,,,,,,,,,,stimuli/images/PICTURE_95.png,BOYS,5a3117d0715d6a0001118bfc,01/08/1998,2020-09-02_12h28.06.922,proactive3.2,2020.1.2,Win32,60,5f47c0b9b035471e11593a5c,5f4f81a34f8d2d04088954fe,3,,,,,,suitcase,,,,,,0,25,25,1,1,1,1,,,,,,,,,,,,,,,,,,,,,,,,,,,,,,,,,,,,,,,,,,,,,,,,,,,,,,,,,,,,,,,,,,,,,,,,,,,
,,,,,,,,,,stimuli/images/PICTURE_750.png,HOTEL,5a3117d0715d6a0001118bfc,01/08/1998,2020-09-02_12h28.06.922,proactive3.2,2020.1.2,Win32,60,5f47c0b9b035471e11593a5c,5f4f81a34f8d2d04088954fe,3,,,,,,kettle,,,,,,0,26,26,27,1,3,1,,,,,,,,,,,,,,,,,,,,,,,,,,,,,,,,,,,,,,,,,,,,,,,,,,,,,,,,,,,,,,,,,,,,,,,,,,,
,,,,,,,,,,stimuli/images/PICTURE_685.png,PENNY,5a3117d0715d6a0001118bfc,01/08/1998,2020-09-02_12h28.06.922,proactive3.2,2020.1.2,Win32,60,5f47c0b9b035471e11593a5c,5f4f81a34f8d2d04088954fe,3,,,,,,goose,,,,,,0,27,27,4,1,1,1,,,,,,,,,,,,,,,,,,,,,,,,,,,,,,,,,,,,,,,,,,,,,,,,,,,,,,,,,,,,,,,,,,,,,,,,,,,
,,,,,,,,,,stimuli/images/PICTURE_504.png,ARTIST,5a3117d0715d6a0001118bfc,01/08/1998,2020-09-02_12h28.06.922,proactive3.2,2020.1.2,Win32,60,5f47c0b9b035471e11593a5c,5f4f81a34f8d2d04088954fe,3,,,,,,wheel,,,,,,0,28,28,49,1,5,1,,,,,,,,,,,,,,,,,,,,,,,,,,,,,,,,,,,,,,,,,,,,,,,,,,,,,,,,,,,,,,,,,,,,,,,,,,,
,,,,,,,,,,stimuli/images/PICTURE_383.png,WRITER,5a3117d0715d6a0001118bfc,01/08/1998,2020-09-02_12h28.06.922,proactive3.2,2020.1.2,Win32,60,5f47c0b9b035471e11593a5c,5f4f81a34f8d2d04088954fe,3,,,,,,coin,,,,,,0,29,29,28,1,3,1,,,,,,,,,,,,,,,,,,,,,,,,,,,,,,,,,,,,,,,,,,,,,,,,,,,,,,,,,,,,,,,,,,,,,,,,,,,
,,,,,,,,,,stimuli/images/PICTURE_296.png,LIFE,5a3117d0715d6a0001118bfc,01/08/1998,2020-09-02_12h28.06.922,proactive3.2,2020.1.2,Win32,60,5f47c0b9b035471e11593a5c,5f4f81a34f8d2d04088954fe,3,,,,,,bolt,,,,,,0,30,30,57,1,6,1,,,,,,,,,,,,,,,,,,,,,,,,,,,,,,,,,,,,,,,,,,,,,,,,,,,,,,,,,,,,,,,,,,,,,,,,,,,
,,,,,,,,,,stimuli/images/PICTURE_177.png,WRITER,5a3117d0715d6a0001118bfc,01/08/1998,2020-09-02_12h28.06.922,proactive3.2,2020.1.2,Win32,60,5f47c0b9b035471e11593a5c,5f4f81a34f8d2d04088954fe,3,,,,,,mushroom,,,,,,0,31,31,41,1,5,1,,,,,,,,,,,,,,,,,,,,,,,,,,,,,,,,,,,,,,,,,,,,,,,,,,,,,,,,,,,,,,,,,,,,,,,,,,,
,,,,,,,,,,stimuli/images/PICTURE_33.png,FRIEND,5a3117d0715d6a0001118bfc,01/08/1998,2020-09-02_12h28.06.922,proactive3.2,2020.1.2,Win32,60,5f47c0b9b035471e11593a5c,5f4f81a34f8d2d04088954fe,3,,,,,,frame,,,,,,0,32,32,8,1,1,1,,,,,,,,,,,,,,,,,,,,,,,,,,,,,,,,,,,,,,,,,,,,,,,,,,,,,,,,,,,,,,,,,,,,,,,,,,,
,,,,,,,,,,stimuli/images/PICTURE_147.png,WOMEN,5a3117d0715d6a0001118bfc,01/08/1998,2020-09-02_12h28.06.922,proactive3.2,2020.1.2,Win32,60,5f47c0b9b035471e11593a5c,5f4f81a34f8d2d04088954fe,3,,,,,,hanger,,,,,,0,33,33,7,1,1,1,,,,,,,,,,,,,,,,,,,,,,,,,,,,,,,,,,,,,,,,,,,,,,,,,,,,,,,,,,,,,,,,,,,,,,,,,,,
,,,,,,,,,,stimuli/images/PICTURE_675.png,SALE,5a3117d0715d6a0001118bfc,01/08/1998,2020-09-02_12h28.06.922,proactive3.2,2020.1.2,Win32,60,5f47c0b9b035471e11593a5c,5f4f81a34f8d2d04088954fe,3,,,,,,windmill,,,,,,0,34,34,47,1,5,1,,,,,,,,,,,,,,,,,,,,,,,,,,,,,,,,,,,,,,,,,,,,,,,,,,,,,,,,,,,,,,,,,,,,,,,,,,,
,,,,,,,,,,stimuli/images/PICTURE_405.png,PLENTY,5a3117d0715d6a0001118bfc,01/08/1998,2020-09-02_12h28.06.922,proactive3.2,2020.1.2,Win32,60,5f47c0b9b035471e11593a5c,5f4f81a34f8d2d04088954fe,3,,,,,,anchor,,,,,,0,35,35,23,1,3,1,,,,,,,,,,,,,,,,,,,,,,,,,,,,,,,,,,,,,,,,,,,,,,,,,,,,,,,,,,,,,,,,,,,,,,,,,,,
,,,,,,,,,,stimuli/images/PICTURE_564.png,BATH,5a3117d0715d6a0001118bfc,01/08/1998,2020-09-02_12h28.06.922,proactive3.2,2020.1.2,Win32,60,5f47c0b9b035471e11593a5c,5f4f81a34f8d2d04088954fe,3,,,,,,spoon,,,,,,0,36,36,26,1,3,1,,,,,,,,,,,,,,,,,,,,,,,,,,,,,,,,,,,,,,,,,,,,,,,,,,,,,,,,,,,,,,,,,,,,,,,,,,,
,,,,,,,,,,stimuli/images/PICTURE_308.png,FAMILY,5a3117d0715d6a0001118bfc,01/08/1998,2020-09-02_12h28.06.922,proactive3.2,2020.1.2,Win32,60,5f47c0b9b035471e11593a5c,5f4f81a34f8d2d04088954fe,3,,,,,,dice,,,,,,0,37,37,36,1,4,1,,,,,,,,,,,,,,,,,,,,,,,,,,,,,,,,,,,,,,,,,,,,,,,,,,,,,,,,,,,,,,,,,,,,,,,,,,,
,,,,,,,,,,stimuli/images/PICTURE_327.png,SERIES,5a3117d0715d6a0001118bfc,01/08/1998,2020-09-02_12h28.06.922,proactive3.2,2020.1.2,Win32,60,5f47c0b9b035471e11593a5c,5f4f81a34f8d2d04088954fe,3,,,,,,helmet,,,,,,0,38,38,3,1,1,1,,,,,,,,,,,,,,,,,,,,,,,,,,,,,,,,,,,,,,,,,,,,,,,,,,,,,,,,,,,,,,,,,,,,,,,,,,,
,,,,,,,,,,stimuli/images/PICTURE_340.png,VALLEY,5a3117d0715d6a0001118bfc,01/08/1998,2020-09-02_12h28.06.922,proactive3.2,2020.1.2,Win32,60,5f47c0b9b035471e11593a5c,5f4f81a34f8d2d04088954fe,3,,,,,,mirror,,,,,,0,39,39,54,1,6,1,,,,,,,,,,,,,,,,,,,,,,,,,,,,,,,,,,,,,,,,,,,,,,,,,,,,,,,,,,,,,,,,,,,,,,,,,,,
,,,,,,,,,,stimuli/images/PICTURE_147.png,YEAR,5a3117d0715d6a0001118bfc,01/08/1998,2020-09-02_12h28.06.922,proactive3.2,2020.1.2,Win32,60,5f47c0b9b035471e11593a5c,5f4f81a34f8d2d04088954fe,3,,,,,,hanger,,,,,,0,40,40,21,1,3,1,,,,,,,,,,,,,,,,,,,,,,,,,,,,,,,,,,,,,,,,,,,,,,,,,,,,,,,,,,,,,,,,,,,,,,,,,,,
,,,,,,,,,,stimuli/images/PICTURE_654.png,MONTH,5a3117d0715d6a0001118bfc,01/08/1998,2020-09-02_12h28.06.922,proactive3.2,2020.1.2,Win32,60,5f47c0b9b035471e11593a5c,5f4f81a34f8d2d04088954fe,3,,,,,,pencil,,,,,,0,41,41,29,1,3,1,,,,,,,,,,,,,,,,,,,,,,,,,,,,,,,,,,,,,,,,,,,,,,,,,,,,,,,,,,,,,,,,,,,,,,,,,,,
,,,,,,,,,,stimuli/images/PICTURE_339.png,CLIENT,5a3117d0715d6a0001118bfc,01/08/1998,2020-09-02_12h28.06.922,proactive3.2,2020.1.2,Win32,60,5f47c0b9b035471e11593a5c,5f4f81a34f8d2d04088954fe,3,,,,,,backpack,,,,,,0,42,42,11,1,2,1,,,,,,,,,,,,,,,,,,,,,,,,,,,,,,,,,,,,,,,,,,,,,,,,,,,,,,,,,,,,,,,,,,,,,,,,,,,
,,,,,,,,,,stimuli/images/PICTURE_677.png,APPLE,5a3117d0715d6a0001118bfc,01/08/1998,2020-09-02_12h28.06.922,proactive3.2,2020.1.2,Win32,60,5f47c0b9b035471e11593a5c,5f4f81a34f8d2d04088954fe,3,,,,,,map,,,,,,0,43,43,43,1,5,1,,,,,,,,,,,,,,,,,,,,,,,,,,,,,,,,,,,,,,,,,,,,,,,,,,,,,,,,,,,,,,,,,,,,,,,,,,,
,,,,,,,,,,stimuli/images/PICTURE_108.png,POLICY,5a3117d0715d6a0001118bfc,01/08/1998,2020-09-02_12h28.06.922,proactive3.2,2020.1.2,Win32,60,5f47c0b9b035471e11593a5c,5f4f81a34f8d2d04088954fe,3,,,,,,calendar,,,,,,0,44,44,22,1,3,1,,,,,,,,,,,,,,,,,,,,,,,,,,,,,,,,,,,,,,,,,,,,,,,,,,,,,,,,,,,,,,,,,,,,,,,,,,,
,,,,,,,,,,stimuli/images/PICTURE_68.png,ROOF,5a3117d0715d6a0001118bfc,01/08/1998,2020-09-02_12h28.06.922,proactive3.2,2020.1.2,Win32,60,5f47c0b9b035471e11593a5c,5f4f81a34f8d2d04088954fe,3,,,,,,candle,,,,,,0,45,45,38,1,4,1,,,,,,,,,,,,,,,,,,,,,,,,,,,,,,,,,,,,,,,,,,,,,,,,,,,,,,,,,,,,,,,,,,,,,,,,,,,
,,,,,,,,,,stimuli/images/PICTURE_32.png,PILLS,5a3117d0715d6a0001118bfc,01/08/1998,2020-09-02_12h28.06.922,proactive3.2,2020.1.2,Win32,60,5f47c0b9b035471e11593a5c,5f4f81a34f8d2d04088954fe,3,,,,,,crown,,,,,,0,46,46,18,1,2,1,,,,,,,,,,,,,,,,,,,,,,,,,,,,,,,,,,,,,,,,,,,,,,,,,,,,,,,,,,,,,,,,,,,,,,,,,,,
,,,,,,,,,,stimuli/images/PICTURE_296.png,LOTS,5a3117d0715d6a0001118bfc,01/08/1998,2020-09-02_12h28.06.922,proactive3.2,2020.1.2,Win32,60,5f47c0b9b035471e11593a5c,5f4f81a34f8d2d04088954fe,3,,,,,,bolt,,,,,,0,47,47,9,1,1,1,,,,,,,,,,,,,,,,,,,,,,,,,,,,,,,,,,,,,,,,,,,,,,,,,,,,,,,,,,,,,,,,,,,,,,,,,,,
,,,,,,,,,,stimuli/images/PICTURE_403.png,TOILET,5a3117d0715d6a0001118bfc,01/08/1998,2020-09-02_12h28.06.922,proactive3.2,2020.1.2,Win32,60,5f47c0b9b035471e11593a5c,5f4f81a34f8d2d04088954fe,3,,,,,,cathedral,,,,,,0,48,48,25,1,3,1,,,,,,,,,,,,,,,,,,,,,,,,,,,,,,,,,,,,,,,,,,,,,,,,,,,,,,,,,,,,,,,,,,,,,,,,,,,
,,,,,,,,,,stimuli/images/PICTURE_491.png,GLASS,5a3117d0715d6a0001118bfc,01/08/1998,2020-09-02_12h28.06.922,proactive3.2,2020.1.2,Win32,60,5f47c0b9b035471e11593a5c,5f4f81a34f8d2d04088954fe,3,,,,,,rug,,,,,,0,49,49,14,1,2,1,,,,,,,,,,,,,,,,,,,,,,,,,,,,,,,,,,,,,,,,,,,,,,,,,,,,,,,,,,,,,,,,,,,,,,,,,,,
,,,,,,,,,,stimuli/images/PICTURE_42.png,BOYS,5a3117d0715d6a0001118bfc,01/08/1998,2020-09-02_12h28.06.922,proactive3.2,2020.1.2,Win32,60,5f47c0b9b035471e11593a5c,5f4f81a34f8d2d04088954fe,3,,,,,,pear,,,,,,0,50,50,55,1,6,1,,,,,,,,,,,,,,,,,,,,,,,,,,,,,,,,,,,,,,,,,,,,,,,,,,,,,,,,,,,,,,,,,,,,,,,,,,,
,,,,,,,,,,stimuli/images/PICTURE_285.png,LIFE,5a3117d0715d6a0001118bfc,01/08/1998,2020-09-02_12h28.06.922,proactive3.2,2020.1.2,Win32,60,5f47c0b9b035471e11593a5c,5f4f81a34f8d2d04088954fe,3,,,,,,carrot,,,,,,0,51,51,33,1,4,1,,,,,,,,,,,,,,,,,,,,,,,,,,,,,,,,,,,,,,,,,,,,,,,,,,,,,,,,,,,,,,,,,,,,,,,,,,,
,,,,,,,,,,stimuli/images/PICTURE_208.png,SYSTEM,5a3117d0715d6a0001118bfc,01/08/1998,2020-09-02_12h28.06.922,proactive3.2,2020.1.2,Win32,60,5f47c0b9b035471e11593a5c,5f4f81a34f8d2d04088954fe,3,,,,,,microphone,,,,,,0,52,52,32,1,4,1,,,,,,,,,,,,,,,,,,,,,,,,,,,,,,,,,,,,,,,,,,,,,,,,,,,,,,,,,,,,,,,,,,,,,,,,,,,
,,,,,,,,,,stimuli/images/PICTURE_233.png,LOTS,5a3117d0715d6a0001118bfc,01/08/1998,2020-09-02_12h28.06.922,proactive3.2,2020.1.2,Win32,60,5f47c0b9b035471e11593a5c,5f4f81a34f8d2d04088954fe,3,,,,,,salt,,,,,,0,53,53,42,1,5,1,,,,,,,,,,,,,,,,,,,,,,,,,,,,,,,,,,,,,,,,,,,,,,,,,,,,,,,,,,,,,,,,,,,,,,,,,,,
,,,,,,,,,,stimuli/images/PICTURE_85.png,NATION,5a3117d0715d6a0001118bfc,01/08/1998,2020-09-02_12h28.06.922,proactive3.2,2020.1.2,Win32,60,5f47c0b9b035471e11593a5c,5f4f81a34f8d2d04088954fe,3,,,,,,diamond,,,,,,0,54,54,5,1,1,1,,,,,,,,,,,,,,,,,,,,,,,,,,,,,,,,,,,,,,,,,,,,,,,,,,,,,,,,,,,,,,,,,,,,,,,,,,,
,,,,,,,,,,stimuli/images/PICTURE_383.png,SERIES,5a3117d0715d6a0001118bfc,01/08/1998,2020-09-02_12h28.06.922,proactive3.2,2020.1.2,Win32,60,5f47c0b9b035471e11593a5c,5f4f81a34f8d2d04088954fe,3,,,,,,coin,,,,,,0,55,55,46,1,5,1,,,,,,,,,,,,,,,,,,,,,,,,,,,,,,,,,,,,,,,,,,,,,,,,,,,,,,,,,,,,,,,,,,,,,,,,,,,
,,,,,,,,,,stimuli/images/PICTURE_744.png,WEAPON,5a3117d0715d6a0001118bfc,01/08/1998,2020-09-02_12h28.06.922,proactive3.2,2020.1.2,Win32,60,5f47c0b9b035471e11593a5c,5f4f81a34f8d2d04088954fe,3,,,,,,ring,,,,,,0,56,56,50,1,6,1,,,,,,,,,,,,,,,,,,,,,,,,,,,,,,,,,,,,,,,,,,,,,,,,,,,,,,,,,,,,,,,,,,,,,,,,,,,
,,,,,,,,,,stimuli/images/PICTURE_380.png,CANDY,5a3117d0715d6a0001118bfc,01/08/1998,2020-09-02_12h28.06.922,proactive3.2,2020.1.2,Win32,60,5f47c0b9b035471e11593a5c,5f4f81a34f8d2d04088954fe,3,,,,,,gorilla,,,,,,0,57,57,0,1,1,1,,,,,,,,,,,,,,,,,,,,,,,,,,,,,,,,,,,,,,,,,,,,,,,,,,,,,,,,,,,,,,,,,,,,,,,,,,,
,,,,,,,,,,stimuli/images/PICTURE_203.png,GODS,5a3117d0715d6a0001118bfc,01/08/1998,2020-09-02_12h28.06.922,proactive3.2,2020.1.2,Win32,60,5f47c0b9b035471e11593a5c,5f4f81a34f8d2d04088954fe,3,,,,,,cap,,,,,,0,58,58,30,1,4,1,,,,,,,,,,,,,,,,,,,,,,,,,,,,,,,,,,,,,,,,,,,,,,,,,,,,,,,,,,,,,,,,,,,,,,,,,,,
,,?,0.000725,0,,,,,,stimuli/images/PICTURE_487.png,GIRL,5a3117d0715d6a0001118bfc,01/08/1998,2020-09-02_12h28.06.922,proactive3.2,2020.1.2,Win32,60,5f47c0b9b035471e11593a5c,5f4f81a34f8d2d04088954fe,3,,,,,,basket,,,,,,,,,,,5,1,0,0,0,45,1,,,,,,,,,,,,,,,,,,,,,,,,,,,,,,,,,,,,,,,,,,,,,,,,,,,,,,,,,,,,,,,,,,,,,,
,,MONTH,7.586445,1,,,,,,stimuli/images/PICTURE_654.png,MONTH,5a3117d0715d6a0001118bfc,01/08/1998,2020-09-02_12h28.06.922,proactive3.2,2020.1.2,Win32,60,5f47c0b9b035471e11593a5c,5f4f81a34f8d2d04088954fe,3,,,,,,pencil,,,,,,,,,,,3,1,0,1,1,29,1,,,,,,,,,,,,,,,,,,,,,,,,,,,,,,,,,,,,,,,,,,,,,,,,,,,,,,,,,,,,,,,,,,,,,,
,,?,0.00065,0,,,,,,stimuli/images/PICTURE_203.png,GODS,5a3117d0715d6a0001118bfc,01/08/1998,2020-09-02_12h28.06.922,proactive3.2,2020.1.2,Win32,60,5f47c0b9b035471e11593a5c,5f4f81a34f8d2d04088954fe,3,,,,,,cap,,,,,,,,,,,4,1,0,2,2,30,1,,,,,,,,,,,,,,,,,,,,,,,,,,,,,,,,,,,,,,,,,,,,,,,,,,,,,,,,,,,,,,,,,,,,,,
,,?,0.00059,0,,,,,,stimuli/images/PICTURE_68.png,ROOF,5a3117d0715d6a0001118bfc,01/08/1998,2020-09-02_12h28.06.922,proactive3.2,2020.1.2,Win32,60,5f47c0b9b035471e11593a5c,5f4f81a34f8d2d04088954fe,3,,,,,,candle,,,,,,,,,,,4,1,0,3,3,38,1,,,,,,,,,,,,,,,,,,,,,,,,,,,,,,,,,,,,,,,,,,,,,,,,,,,,,,,,,,,,,,,,,,,,,,
,,?,0.00056,0,,,,,,stimuli/images/PICTURE_32.png,KIND,5a3117d0715d6a0001118bfc,01/08/1998,2020-09-02_12h28.06.922,proactive3.2,2020.1.2,Win32,60,5f47c0b9b035471e11593a5c,5f4f81a34f8d2d04088954fe,3,,,,,,crown,,,,,,,,,,,4,1,0,4,4,35,1,,,,,,,,,,,,,,,,,,,,,,,,,,,,,,,,,,,,,,,,,,,,,,,,,,,,,,,,,,,,,,,,,,,,,,
,,?,0.000485,0,,,,,,stimuli/images/PICTURE_383.png,SERIES,5a3117d0715d6a0001118bfc,01/08/1998,2020-09-02_12h28.06.922,proactive3.2,2020.1.2,Win32,60,5f47c0b9b035471e11593a5c,5f4f81a34f8d2d04088954fe,3,,,,,,coin,,,,,,,,,,,5,1,0,5,5,46,1,,,,,,,,,,,,,,,,,,,,,,,,,,,,,,,,,,,,,,,,,,,,,,,,,,,,,,,,,,,,,,,,,,,,,,
,,?,0.00047,0,,,,,,stimuli/images/PICTURE_297.png,RIVER,5a3117d0715d6a0001118bfc,01/08/1998,2020-09-02_12h28.06.922,proactive3.2,2020.1.2,Win32,60,5f47c0b9b035471e11593a5c,5f4f81a34f8d2d04088954fe,3,,,,,,aeroplane,,,,,,,,,,,4,1,0,6,6,39,1,,,,,,,,,,,,,,,,,,,,,,,,,,,,,,,,,,,,,,,,,,,,,,,,,,,,,,,,,,,,,,,,,,,,,,
,,?,0.00048,0,,,,,,stimuli/images/PICTURE_42.png,BOYS,5a3117d0715d6a0001118bfc,01/08/1998,2020-09-02_12h28.06.922,proactive3.2,2020.1.2,Win32,60,5f47c0b9b035471e11593a5c,5f4f81a34f8d2d04088954fe,3,,,,,,pear,,,,,,,,,,,6,1,0,7,7,55,1,,,,,,,,,,,,,,,,,,,,,,,,,,,,,,,,,,,,,,,,,,,,,,,,,,,,,,,,,,,,,,,,,,,,,,
,,?,0.00047,0,,,,,,stimuli/images/PICTURE_667.png,RIVER,5a3117d0715d6a0001118bfc,01/08/1998,2020-09-02_12h28.06.922,proactive3.2,2020.1.2,Win32,60,5f47c0b9b035471e11593a5c,5f4f81a34f8d2d04088954fe,3,,,,,,daisy,,,,,,,,,,,2,1,0,8,8,10,1,,,,,,,,,,,,,,,,,,,,,,,,,,,,,,,,,,,,,,,,,,,,,,,,,,,,,,,,,,,,,,,,,,,,,,
,,?,0.00047,0,,,,,,stimuli/images/PICTURE_95.png,MILLER,5a3117d0715d6a0001118bfc,01/08/1998,2020-09-02_12h28.06.922,proactive3.2,2020.1.2,Win32,60,5f47c0b9b035471e11593a5c,5f4f81a34f8d2d04088954fe,3,,,,,,suitcase,,,,,,,,,,,6,1,0,9,9,56,1,,,,,,,,,,,,,,,,,,,,,,,,,,,,,,,,,,,,,,,,,,,,,,,,,,,,,,,,,,,,,,,,,,,,,,
,,?,0.00046,0,,,,,,stimuli/images/PICTURE_85.png,TOILET,5a3117d0715d6a0001118bfc,01/08/1998,2020-09-02_12h28.06.922,proactive3.2,2020.1.2,Win32,60,5f47c0b9b035471e11593a5c,5f4f81a34f8d2d04088954fe,3,,,,,,diamond,,,,,,,,,,,5,1,0,10,10,48,1,,,,,,,,,,,,,,,,,,,,,,,,,,,,,,,,,,,,,,,,,,,,,,,,,,,,,,,,,,,,,,,,,,,,,,
,,?,0.000655,0,,,,,,stimuli/images/PICTURE_296.png,LOTS,5a3117d0715d6a0001118bfc,01/08/1998,2020-09-02_12h28.06.922,proactive3.2,2020.1.2,Win32,60,5f47c0b9b035471e11593a5c,5f4f81a34f8d2d04088954fe,3,,,,,,bolt,,,,,,,,,,,1,1,0,11,11,9,1,,,,,,,,,,,,,,,,,,,,,,,,,,,,,,,,,,,,,,,,,,,,,,,,,,,,,,,,,,,,,,,,,,,,,,
,,?,0.00062,0,,,,,,stimuli/images/PICTURE_233.png,LOTS,5a3117d0715d6a0001118bfc,01/08/1998,2020-09-02_12h28.06.922,proactive3.2,2020.1.2,Win32,60,5f47c0b9b035471e11593a5c,5f4f81a34f8d2d04088954fe,3,,,,,,salt,,,,,,,,,,,5,1,0,12,12,42,1,,,,,,,,,,,,,,,,,,,,,,,,,,,,,,,,,,,,,,,,,,,,,,,,,,,,,,,,,,,,,,,,,,,,,,
,,?,0.00054,0,,,,,,stimuli/images/PICTURE_95.png,HONEY,5a3117d0715d6a0001118bfc,01/08/1998,2020-09-02_12h28.06.922,proactive3.2,2020.1.2,Win32,60,5f47c0b9b035471e11593a5c,5f4f81a34f8d2d04088954fe,3,,,,,,suitcase,,,,,,,,,,,5,1,0,13,13,44,1,,,,,,,,,,,,,,,,,,,,,,,,,,,,,,,,,,,,,,,,,,,,,,,,,,,,,,,,,,,,,,,,,,,,,,
