consent_key.keys,consent_key.rt,recalled,recalled_rt,recall_acc,example_recall.thisRepN,example_recall.thisTrialN,example_recall.thisN,example_recall.thisIndex,example_recall.ran,file,word,participant,please enter your date of birth (dd/mm/yyyy),date,expName,psychopyVersion,OS,frameRate,STUDY_ID,SESSION_ID,list,prac_learn_study_loop.thisRepN,prac_learn_study_loop.thisTrialN,prac_learn_study_loop.thisN,prac_learn_study_loop.thisIndex,prac_learn_study_loop.ran,image,prac_learn_test_loop.thisRepN,prac_learn_test_loop.thisTrialN,prac_learn_test_loop.thisN,prac_learn_test_loop.thisIndex,prac_learn_test_loop.ran,learn_study_loop.thisRepN,learn_study_loop.thisTrialN,learn_study_loop.thisN,learn_study_loop.thisIndex,learn_study_loop.ran,list_no,block_no,learn_test_loop.thisRepN,learn_test_loop.thisTrialN,learn_test_loop.thisN,learn_test_loop.thisIndex,learn_test_loop.ran,learn_blocks.thisRepN,learn_blocks.thisTrialN,learn_blocks.thisN,learn_blocks.thisIndex,learn_blocks.ran,block_csv,key_resp_13.keys,key_resp_13.rt,learn_blocks_loop.thisRepN,learn_blocks_loop.thisTrialN,learn_blocks_loop.thisN,learn_blocks_loop.thisIndex,learn_blocks_loop.ran,final_learn_test.thisRepN,final_learn_test.thisTrialN,final_learn_test.thisN,final_learn_test.thisIndex,final_learn_test.ran,prac_wm_test_loop.thisRepN,prac_wm_test_loop.thisTrialN,prac_wm_test_loop.thisN,prac_wm_test_loop.thisIndex,prac_wm_test_loop.ran,wm_recalled1,wm_recall_rt1,wm_probed1,wm_recall_acc1,wm_recalled2,wm_recall_rt2,wm_probed2,wm_recall_acc2,wm_recalled3,wm_recall_rt3,wm_probed3,wm_recall_acc3,wm_recalled4,wm_recall_rt4,wm_probed4,wm_recall_acc4,prac_wm_trial_loop.thisRepN,prac_wm_trial_loop.thisTrialN,prac_wm_trial_loop.thisN,prac_wm_trial_loop.thisIndex,prac_wm_trial_loop.ran,word1,image1,file1,item_type1,word2,image2,file2,item_type2,word4,image4,file4,item_type4,word3,image3,file3,item_type3,wm_test_loop.thisRepN,wm_test_loop.thisTrialN,wm_test_loop.thisN,wm_test_loop.thisIndex,wm_test_loop.ran,wm_trial_loop.thisRepN,wm_trial_loop.thisTrialN,wm_trial_loop.thisN,wm_trial_loop.thisIndex,wm_trial_loop.ran
y,31.845425,TO,15.003145,0,0,0,0,0,1,stimuli/images/PICTURE_747.png,TOUGH,5a6adef80384310001944ba8,08/01/1954,2020-09-12_06h56.50.110,proactive3.2,2020.1.2,Win32,60,5f5adea66120081ea0f57a61,5f5c62f772bd1b23b601bf20,6,,,,,,,,,,,,,,,,,,,,,,,,,,,,,,,,,,,,,,,,,,,,,,,,,,,,,,,,,,,,,,,,,,,,,,,,,,,,,,,,,,,,,,,,,,,,,
,,,,,,,,,,stimuli/images/PICTURE_727.png,CELL,5a6adef80384310001944ba8,08/01/1954,2020-09-12_06h56.50.110,proactive3.2,2020.1.2,Win32,60,5f5adea66120081ea0f57a61,5f5c62f772bd1b23b601bf20,6,0,0,0,1,1,hose,,,,,,,,,,,,,,,,,,,,,,,,,,,,,,,,,,,,,,,,,,,,,,,,,,,,,,,,,,,,,,,,,,,,,,,,,,,,,,,,,,,,,,,
,,,,,,,,,,stimuli/images/PICTURE_378.png,LOSS,5a6adef80384310001944ba8,08/01/1954,2020-09-12_06h56.50.110,proactive3.2,2020.1.2,Win32,60,5f5adea66120081ea0f57a61,5f5c62f772bd1b23b601bf20,6,0,1,1,2,1,lobster,,,,,,,,,,,,,,,,,,,,,,,,,,,,,,,,,,,,,,,,,,,,,,,,,,,,,,,,,,,,,,,,,,,,,,,,,,,,,,,,,,,,,,,
,,,,,,,,,,stimuli/images/PICTURE_697.png,KILLER,5a6adef80384310001944ba8,08/01/1954,2020-09-12_06h56.50.110,proactive3.2,2020.1.2,Win32,60,5f5adea66120081ea0f57a61,5f5c62f772bd1b23b601bf20,6,0,2,2,4,1,peach,,,,,,,,,,,,,,,,,,,,,,,,,,,,,,,,,,,,,,,,,,,,,,,,,,,,,,,,,,,,,,,,,,,,,,,,,,,,,,,,,,,,,,,
,,,,,,,,,,stimuli/images/PICTURE_658.png,DEVIL,5a6adef80384310001944ba8,08/01/1954,2020-09-12_06h56.50.110,proactive3.2,2020.1.2,Win32,60,5f5adea66120081ea0f57a61,5f5c62f772bd1b23b601bf20,6,0,3,3,3,1,crow,,,,,,,,,,,,,,,,,,,,,,,,,,,,,,,,,,,,,,,,,,,,,,,,,,,,,,,,,,,,,,,,,,,,,,,,,,,,,,,,,,,,,,,
,,?,4.46364,0,,,,,,stimuli/images/PICTURE_378.png,LOSS,5a6adef80384310001944ba8,08/01/1954,2020-09-12_06h56.50.110,proactive3.2,2020.1.2,Win32,60,5f5adea66120081ea0f57a61,5f5c62f772bd1b23b601bf20,6,,,,,,lobster,0,0,0,2,1,,,,,,,,,,,,,,,,,,,,,,,,,,,,,,,,,,,,,,,,,,,,,,,,,,,,,,,,,,,,,,,,,,,,,,,,,,,,,,,,,,
,,?,2.56539,0,,,,,,stimuli/images/PICTURE_697.png,KILLER,5a6adef80384310001944ba8,08/01/1954,2020-09-12_06h56.50.110,proactive3.2,2020.1.2,Win32,60,5f5adea66120081ea0f57a61,5f5c62f772bd1b23b601bf20,6,,,,,,peach,0,1,1,4,1,,,,,,,,,,,,,,,,,,,,,,,,,,,,,,,,,,,,,,,,,,,,,,,,,,,,,,,,,,,,,,,,,,,,,,,,,,,,,,,,,,
,,?,2.631915,0,,,,,,stimuli/images/PICTURE_269.png,GENIUS,5a6adef80384310001944ba8,08/01/1954,2020-09-12_06h56.50.110,proactive3.2,2020.1.2,Win32,60,5f5adea66120081ea0f57a61,5f5c62f772bd1b23b601bf20,6,,,,,,chameleon,0,2,2,0,1,,,,,,,,,,,,,,,,,,,,,,,,,,,,,,,,,,,,,,,,,,,,,,,,,,,,,,,,,,,,,,,,,,,,,,,,,,,,,,,,,,
,,?,2.24864,0,,,,,,stimuli/images/PICTURE_658.png,DEVIL,5a6adef80384310001944ba8,08/01/1954,2020-09-12_06h56.50.110,proactive3.2,2020.1.2,Win32,60,5f5adea66120081ea0f57a61,5f5c62f772bd1b23b601bf20,6,,,,,,crow,0,3,3,3,1,,,,,,,,,,,,,,,,,,,,,,,,,,,,,,,,,,,,,,,,,,,,,,,,,,,,,,,,,,,,,,,,,,,,,,,,,,,,,,,,,,
,,CELL,9.432105,1,,,,,,stimuli/images/PICTURE_727.png,CELL,5a6adef80384310001944ba8,08/01/1954,2020-09-12_06h56.50.110,proactive3.2,2020.1.2,Win32,60,5f5adea66120081ea0f57a61,5f5c62f772bd1b23b601bf20,6,,,,,,hose,0,4,4,1,1,,,,,,,,,,,,,,,,,,,,,,,,,,,,,,,,,,,,,,,,,,,,,,,,,,,,,,,,,,,,,,,,,,,,,,,,,,,,,,,,,,
,,,,,,,,,,stimuli/images/PICTURE_177.png,HOUSE,5a6adef80384310001944ba8,08/01/1954,2020-09-12_06h56.50.110,proactive3.2,2020.1.2,Win32,60,5f5adea66120081ea0f57a61,5f5c62f772bd1b23b601bf20,6,,,,,,mushroom,,,,,,0,0,0,25,1,3,2,,,,,,,,,,,,,,,,,,,,,,,,,,,,,,,,,,,,,,,,,,,,,,,,,,,,,,,,,,,,,,,,,,,,,,,,,,,
,,,,,,,,,,stimuli/images/PICTURE_141.png,CLIENT,5a6adef80384310001944ba8,08/01/1954,2020-09-12_06h56.50.110,proactive3.2,2020.1.2,Win32,60,5f5adea66120081ea0f57a61,5f5c62f772bd1b23b601bf20,6,,,,,,sunflower,,,,,,0,1,1,30,1,4,2,,,,,,,,,,,,,,,,,,,,,,,,,,,,,,,,,,,,,,,,,,,,,,,,,,,,,,,,,,,,,,,,,,,,,,,,,,,
,,,,,,,,,,stimuli/images/PICTURE_487.png,ROOF,5a6adef80384310001944ba8,08/01/1954,2020-09-12_06h56.50.110,proactive3.2,2020.1.2,Win32,60,5f5adea66120081ea0f57a61,5f5c62f772bd1b23b601bf20,6,,,,,,basket,,,,,,0,2,2,50,1,6,2,,,,,,,,,,,,,,,,,,,,,,,,,,,,,,,,,,,,,,,,,,,,,,,,,,,,,,,,,,,,,,,,,,,,,,,,,,,
,,,,,,,,,,stimuli/images/PICTURE_18.png,RIVER,5a6adef80384310001944ba8,08/01/1954,2020-09-12_06h56.50.110,proactive3.2,2020.1.2,Win32,60,5f5adea66120081ea0f57a61,5f5c62f772bd1b23b601bf20,6,,,,,,planet,,,,,,0,3,3,22,1,3,2,,,,,,,,,,,,,,,,,,,,,,,,,,,,,,,,,,,,,,,,,,,,,,,,,,,,,,,,,,,,,,,,,,,,,,,,,,,
,,,,,,,,,,stimuli/images/PICTURE_509.png,BATH,5a6adef80384310001944ba8,08/01/1954,2020-09-12_06h56.50.110,proactive3.2,2020.1.2,Win32,60,5f5adea66120081ea0f57a61,5f5c62f772bd1b23b601bf20,6,,,,,,telephone,,,,,,0,4,4,15,1,2,2,,,,,,,,,,,,,,,,,,,,,,,,,,,,,,,,,,,,,,,,,,,,,,,,,,,,,,,,,,,,,,,,,,,,,,,,,,,
,,,,,,,,,,stimuli/images/PICTURE_311.png,TOILET,5a6adef80384310001944ba8,08/01/1954,2020-09-12_06h56.50.110,proactive3.2,2020.1.2,Win32,60,5f5adea66120081ea0f57a61,5f5c62f772bd1b23b601bf20,6,,,,,,razor,,,,,,0,5,5,54,1,6,2,,,,,,,,,,,,,,,,,,,,,,,,,,,,,,,,,,,,,,,,,,,,,,,,,,,,,,,,,,,,,,,,,,,,,,,,,,,
,,,,,,,,,,stimuli/images/PICTURE_215.png,LEADER,5a6adef80384310001944ba8,08/01/1954,2020-09-12_06h56.50.110,proactive3.2,2020.1.2,Win32,60,5f5adea66120081ea0f57a61,5f5c62f772bd1b23b601bf20,6,,,,,,boot,,,,,,0,6,6,43,1,5,2,,,,,,,,,,,,,,,,,,,,,,,,,,,,,,,,,,,,,,,,,,,,,,,,,,,,,,,,,,,,,,,,,,,,,,,,,,,
,,,,,,,,,,stimuli/images/PICTURE_2.png,AREA,5a6adef80384310001944ba8,08/01/1954,2020-09-12_06h56.50.110,proactive3.2,2020.1.2,Win32,60,5f5adea66120081ea0f57a61,5f5c62f772bd1b23b601bf20,6,,,,,,tyre,,,,,,0,7,7,32,1,4,2,,,,,,,,,,,,,,,,,,,,,,,,,,,,,,,,,,,,,,,,,,,,,,,,,,,,,,,,,,,,,,,,,,,,,,,,,,,
,,,,,,,,,,stimuli/images/PICTURE_57.png,CANDY,5a6adef80384310001944ba8,08/01/1954,2020-09-12_06h56.50.110,proactive3.2,2020.1.2,Win32,60,5f5adea66120081ea0f57a61,5f5c62f772bd1b23b601bf20,6,,,,,,stamp,,,,,,0,8,8,52,1,6,2,,,,,,,,,,,,,,,,,,,,,,,,,,,,,,,,,,,,,,,,,,,,,,,,,,,,,,,,,,,,,,,,,,,,,,,,,,,
,,,,,,,,,,stimuli/images/PICTURE_564.png,PLENTY,5a6adef80384310001944ba8,08/01/1954,2020-09-12_06h56.50.110,proactive3.2,2020.1.2,Win32,60,5f5adea66120081ea0f57a61,5f5c62f772bd1b23b601bf20,6,,,,,,spoon,,,,,,0,9,9,11,1,2,2,,,,,,,,,,,,,,,,,,,,,,,,,,,,,,,,,,,,,,,,,,,,,,,,,,,,,,,,,,,,,,,,,,,,,,,,,,,
,,,,,,,,,,stimuli/images/PICTURE_57.png,CASINO,5a6adef80384310001944ba8,08/01/1954,2020-09-12_06h56.50.110,proactive3.2,2020.1.2,Win32,60,5f5adea66120081ea0f57a61,5f5c62f772bd1b23b601bf20,6,,,,,,stamp,,,,,,0,10,10,12,1,2,2,,,,,,,,,,,,,,,,,,,,,,,,,,,,,,,,,,,,,,,,,,,,,,,,,,,,,,,,,,,,,,,,,,,,,,,,,,,
,,,,,,,,,,stimuli/images/PICTURE_667.png,GLASS,5a6adef80384310001944ba8,08/01/1954,2020-09-12_06h56.50.110,proactive3.2,2020.1.2,Win32,60,5f5adea66120081ea0f57a61,5f5c62f772bd1b23b601bf20,6,,,,,,daisy,,,,,,0,11,11,27,1,3,2,,,,,,,,,,,,,,,,,,,,,,,,,,,,,,,,,,,,,,,,,,,,,,,,,,,,,,,,,,,,,,,,,,,,,,,,,,,
,,,,,,,,,,stimuli/images/PICTURE_470.png,BEAUTY,5a6adef80384310001944ba8,08/01/1954,2020-09-12_06h56.50.110,proactive3.2,2020.1.2,Win32,60,5f5adea66120081ea0f57a61,5f5c62f772bd1b23b601bf20,6,,,,,,motorbike,,,,,,0,12,12,26,1,3,2,,,,,,,,,,,,,,,,,,,,,,,,,,,,,,,,,,,,,,,,,,,,,,,,,,,,,,,,,,,,,,,,,,,,,,,,,,,
,,,,,,,,,,stimuli/images/PICTURE_95.png,NIGHT,5a6adef80384310001944ba8,08/01/1954,2020-09-12_06h56.50.110,proactive3.2,2020.1.2,Win32,60,5f5adea66120081ea0f57a61,5f5c62f772bd1b23b601bf20,6,,,,,,suitcase,,,,,,0,13,13,37,1,4,2,,,,,,,,,,,,,,,,,,,,,,,,,,,,,,,,,,,,,,,,,,,,,,,,,,,,,,,,,,,,,,,,,,,,,,,,,,,
,,,,,,,,,,stimuli/images/PICTURE_470.png,MOMENT,5a6adef80384310001944ba8,08/01/1954,2020-09-12_06h56.50.110,proactive3.2,2020.1.2,Win32,60,5f5adea66120081ea0f57a61,5f5c62f772bd1b23b601bf20,6,,,,,,motorbike,,,,,,0,14,14,40,1,5,2,,,,,,,,,,,,,,,,,,,,,,,,,,,,,,,,,,,,,,,,,,,,,,,,,,,,,,,,,,,,,,,,,,,,,,,,,,,
,,,,,,,,,,stimuli/images/PICTURE_509.png,APPLE,5a6adef80384310001944ba8,08/01/1954,2020-09-12_06h56.50.110,proactive3.2,2020.1.2,Win32,60,5f5adea66120081ea0f57a61,5f5c62f772bd1b23b601bf20,6,,,,,,telephone,,,,,,0,15,15,38,1,4,2,,,,,,,,,,,,,,,,,,,,,,,,,,,,,,,,,,,,,,,,,,,,,,,,,,,,,,,,,,,,,,,,,,,,,,,,,,,
,,,,,,,,,,stimuli/images/PICTURE_356.png,CANDY,5a6adef80384310001944ba8,08/01/1954,2020-09-12_06h56.50.110,proactive3.2,2020.1.2,Win32,60,5f5adea66120081ea0f57a61,5f5c62f772bd1b23b601bf20,6,,,,,,pawn,,,,,,0,16,16,46,1,5,2,,,,,,,,,,,,,,,,,,,,,,,,,,,,,,,,,,,,,,,,,,,,,,,,,,,,,,,,,,,,,,,,,,,,,,,,,,,
,,,,,,,,,,stimuli/images/PICTURE_677.png,FAMILY,5a6adef80384310001944ba8,08/01/1954,2020-09-12_06h56.50.110,proactive3.2,2020.1.2,Win32,60,5f5adea66120081ea0f57a61,5f5c62f772bd1b23b601bf20,6,,,,,,map,,,,,,0,17,17,53,1,6,2,,,,,,,,,,,,,,,,,,,,,,,,,,,,,,,,,,,,,,,,,,,,,,,,,,,,,,,,,,,,,,,,,,,,,,,,,,,
,,,,,,,,,,stimuli/images/PICTURE_405.png,HOUSE,5a6adef80384310001944ba8,08/01/1954,2020-09-12_06h56.50.110,proactive3.2,2020.1.2,Win32,60,5f5adea66120081ea0f57a61,5f5c62f772bd1b23b601bf20,6,,,,,,anchor,,,,,,0,18,18,2,1,1,2,,,,,,,,,,,,,,,,,,,,,,,,,,,,,,,,,,,,,,,,,,,,,,,,,,,,,,,,,,,,,,,,,,,,,,,,,,,
,,,,,,,,,,stimuli/images/PICTURE_215.png,FOOD,5a6adef80384310001944ba8,08/01/1954,2020-09-12_06h56.50.110,proactive3.2,2020.1.2,Win32,60,5f5adea66120081ea0f57a61,5f5c62f772bd1b23b601bf20,6,,,,,,boot,,,,,,0,19,19,5,1,1,2,,,,,,,,,,,,,,,,,,,,,,,,,,,,,,,,,,,,,,,,,,,,,,,,,,,,,,,,,,,,,,,,,,,,,,,,,,,
,,,,,,,,,,stimuli/images/PICTURE_68.png,KIND,5a6adef80384310001944ba8,08/01/1954,2020-09-12_06h56.50.110,proactive3.2,2020.1.2,Win32,60,5f5adea66120081ea0f57a61,5f5c62f772bd1b23b601bf20,6,,,,,,candle,,,,,,0,20,20,23,1,3,2,,,,,,,,,,,,,,,,,,,,,,,,,,,,,,,,,,,,,,,,,,,,,,,,,,,,,,,,,,,,,,,,,,,,,,,,,,,
,,,,,,,,,,stimuli/images/PICTURE_405.png,JUNGLE,5a6adef80384310001944ba8,08/01/1954,2020-09-12_06h56.50.110,proactive3.2,2020.1.2,Win32,60,5f5adea66120081ea0f57a61,5f5c62f772bd1b23b601bf20,6,,,,,,anchor,,,,,,0,21,21,58,1,6,2,,,,,,,,,,,,,,,,,,,,,,,,,,,,,,,,,,,,,,,,,,,,,,,,,,,,,,,,,,,,,,,,,,,,,,,,,,,
,,,,,,,,,,stimuli/images/PICTURE_296.png,CLOCK,5a6adef80384310001944ba8,08/01/1954,2020-09-12_06h56.50.110,proactive3.2,2020.1.2,Win32,60,5f5adea66120081ea0f57a61,5f5c62f772bd1b23b601bf20,6,,,,,,bolt,,,,,,0,22,22,18,1,2,2,,,,,,,,,,,,,,,,,,,,,,,,,,,,,,,,,,,,,,,,,,,,,,,,,,,,,,,,,,,,,,,,,,,,,,,,,,,
,,,,,,,,,,stimuli/images/PICTURE_147.png,LEADER,5a6adef80384310001944ba8,08/01/1954,2020-09-12_06h56.50.110,proactive3.2,2020.1.2,Win32,60,5f5adea66120081ea0f57a61,5f5c62f772bd1b23b601bf20,6,,,,,,hanger,,,,,,0,23,23,33,1,4,2,,,,,,,,,,,,,,,,,,,,,,,,,,,,,,,,,,,,,,,,,,,,,,,,,,,,,,,,,,,,,,,,,,,,,,,,,,,
,,,,,,,,,,stimuli/images/PICTURE_314.png,SPEECH,5a6adef80384310001944ba8,08/01/1954,2020-09-12_06h56.50.110,proactive3.2,2020.1.2,Win32,60,5f5adea66120081ea0f57a61,5f5c62f772bd1b23b601bf20,6,,,,,,perfume,,,,,,0,24,24,35,1,4,2,,,,,,,,,,,,,,,,,,,,,,,,,,,,,,,,,,,,,,,,,,,,,,,,,,,,,,,,,,,,,,,,,,,,,,,,,,,
,,,,,,,,,,stimuli/images/PICTURE_348.png,TOILET,5a6adef80384310001944ba8,08/01/1954,2020-09-12_06h56.50.110,proactive3.2,2020.1.2,Win32,60,5f5adea66120081ea0f57a61,5f5c62f772bd1b23b601bf20,6,,,,,,pepper,,,,,,0,25,25,4,1,1,2,,,,,,,,,,,,,,,,,,,,,,,,,,,,,,,,,,,,,,,,,,,,,,,,,,,,,,,,,,,,,,,,,,,,,,,,,,,
,,,,,,,,,,stimuli/images/PICTURE_57.png,NATION,5a6adef80384310001944ba8,08/01/1954,2020-09-12_06h56.50.110,proactive3.2,2020.1.2,Win32,60,5f5adea66120081ea0f57a61,5f5c62f772bd1b23b601bf20,6,,,,,,stamp,,,,,,0,26,26,21,1,3,2,,,,,,,,,,,,,,,,,,,,,,,,,,,,,,,,,,,,,,,,,,,,,,,,,,,,,,,,,,,,,,,,,,,,,,,,,,,
,,,,,,,,,,stimuli/images/PICTURE_285.png,WRITER,5a6adef80384310001944ba8,08/01/1954,2020-09-12_06h56.50.110,proactive3.2,2020.1.2,Win32,60,5f5adea66120081ea0f57a61,5f5c62f772bd1b23b601bf20,6,,,,,,carrot,,,,,,0,27,27,6,1,1,2,,,,,,,,,,,,,,,,,,,,,,,,,,,,,,,,,,,,,,,,,,,,,,,,,,,,,,,,,,,,,,,,,,,,,,,,,,,
,,,,,,,,,,stimuli/images/PICTURE_403.png,FAMILY,5a6adef80384310001944ba8,08/01/1954,2020-09-12_06h56.50.110,proactive3.2,2020.1.2,Win32,60,5f5adea66120081ea0f57a61,5f5c62f772bd1b23b601bf20,6,,,,,,cathedral,,,,,,0,28,28,9,1,1,2,,,,,,,,,,,,,,,,,,,,,,,,,,,,,,,,,,,,,,,,,,,,,,,,,,,,,,,,,,,,,,,,,,,,,,,,,,,
,,,,,,,,,,stimuli/images/PICTURE_311.png,FLESH,5a6adef80384310001944ba8,08/01/1954,2020-09-12_06h56.50.110,proactive3.2,2020.1.2,Win32,60,5f5adea66120081ea0f57a61,5f5c62f772bd1b23b601bf20,6,,,,,,razor,,,,,,0,29,29,3,1,1,2,,,,,,,,,,,,,,,,,,,,,,,,,,,,,,,,,,,,,,,,,,,,,,,,,,,,,,,,,,,,,,,,,,,,,,,,,,,
,,,,,,,,,,stimuli/images/PICTURE_255.png,PENNY,5a6adef80384310001944ba8,08/01/1954,2020-09-12_06h56.50.110,proactive3.2,2020.1.2,Win32,60,5f5adea66120081ea0f57a61,5f5c62f772bd1b23b601bf20,6,,,,,,shovel,,,,,,0,30,30,19,1,2,2,,,,,,,,,,,,,,,,,,,,,,,,,,,,,,,,,,,,,,,,,,,,,,,,,,,,,,,,,,,,,,,,,,,,,,,,,,,
,,,,,,,,,,stimuli/images/PICTURE_509.png,MILLER,5a6adef80384310001944ba8,08/01/1954,2020-09-12_06h56.50.110,proactive3.2,2020.1.2,Win32,60,5f5adea66120081ea0f57a61,5f5c62f772bd1b23b601bf20,6,,,,,,telephone,,,,,,0,31,31,49,1,5,2,,,,,,,,,,,,,,,,,,,,,,,,,,,,,,,,,,,,,,,,,,,,,,,,,,,,,,,,,,,,,,,,,,,,,,,,,,,
,,,,,,,,,,stimuli/images/PICTURE_750.png,POLICY,5a6adef80384310001944ba8,08/01/1954,2020-09-12_06h56.50.110,proactive3.2,2020.1.2,Win32,60,5f5adea66120081ea0f57a61,5f5c62f772bd1b23b601bf20,6,,,,,,kettle,,,,,,0,32,32,44,1,5,2,,,,,,,,,,,,,,,,,,,,,,,,,,,,,,,,,,,,,,,,,,,,,,,,,,,,,,,,,,,,,,,,,,,,,,,,,,,
,,,,,,,,,,stimuli/images/PICTURE_297.png,BODY,5a6adef80384310001944ba8,08/01/1954,2020-09-12_06h56.50.110,proactive3.2,2020.1.2,Win32,60,5f5adea66120081ea0f57a61,5f5c62f772bd1b23b601bf20,6,,,,,,aeroplane,,,,,,0,33,33,51,1,6,2,,,,,,,,,,,,,,,,,,,,,,,,,,,,,,,,,,,,,,,,,,,,,,,,,,,,,,,,,,,,,,,,,,,,,,,,,,,
,,,,,,,,,,stimuli/images/PICTURE_123.png,SALE,5a6adef80384310001944ba8,08/01/1954,2020-09-12_06h56.50.110,proactive3.2,2020.1.2,Win32,60,5f5adea66120081ea0f57a61,5f5c62f772bd1b23b601bf20,6,,,,,,dart,,,,,,0,34,34,8,1,1,2,,,,,,,,,,,,,,,,,,,,,,,,,,,,,,,,,,,,,,,,,,,,,,,,,,,,,,,,,,,,,,,,,,,,,,,,,,,
,,,,,,,,,,stimuli/images/PICTURE_654.png,COPS,5a6adef80384310001944ba8,08/01/1954,2020-09-12_06h56.50.110,proactive3.2,2020.1.2,Win32,60,5f5adea66120081ea0f57a61,5f5c62f772bd1b23b601bf20,6,,,,,,pencil,,,,,,0,35,35,10,1,2,2,,,,,,,,,,,,,,,,,,,,,,,,,,,,,,,,,,,,,,,,,,,,,,,,,,,,,,,,,,,,,,,,,,,,,,,,,,,
,,,,,,,,,,stimuli/images/PICTURE_654.png,YEAR,5a6adef80384310001944ba8,08/01/1954,2020-09-12_06h56.50.110,proactive3.2,2020.1.2,Win32,60,5f5adea66120081ea0f57a61,5f5c62f772bd1b23b601bf20,6,,,,,,pencil,,,,,,0,36,36,41,1,5,2,,,,,,,,,,,,,,,,,,,,,,,,,,,,,,,,,,,,,,,,,,,,,,,,,,,,,,,,,,,,,,,,,,,,,,,,,,,
,,,,,,,,,,stimuli/images/PICTURE_327.png,LEADER,5a6adef80384310001944ba8,08/01/1954,2020-09-12_06h56.50.110,proactive3.2,2020.1.2,Win32,60,5f5adea66120081ea0f57a61,5f5c62f772bd1b23b601bf20,6,,,,,,helmet,,,,,,0,37,37,17,1,2,2,,,,,,,,,,,,,,,,,,,,,,,,,,,,,,,,,,,,,,,,,,,,,,,,,,,,,,,,,,,,,,,,,,,,,,,,,,,
,,,,,,,,,,stimuli/images/PICTURE_348.png,DUDE,5a6adef80384310001944ba8,08/01/1954,2020-09-12_06h56.50.110,proactive3.2,2020.1.2,Win32,60,5f5adea66120081ea0f57a61,5f5c62f772bd1b23b601bf20,6,,,,,,pepper,,,,,,0,38,38,59,1,6,2,,,,,,,,,,,,,,,,,,,,,,,,,,,,,,,,,,,,,,,,,,,,,,,,,,,,,,,,,,,,,,,,,,,,,,,,,,,
,,,,,,,,,,stimuli/images/PICTURE_215.png,BOYS,5a6adef80384310001944ba8,08/01/1954,2020-09-12_06h56.50.110,proactive3.2,2020.1.2,Win32,60,5f5adea66120081ea0f57a61,5f5c62f772bd1b23b601bf20,6,,,,,,boot,,,,,,0,39,39,24,1,3,2,,,,,,,,,,,,,,,,,,,,,,,,,,,,,,,,,,,,,,,,,,,,,,,,,,,,,,,,,,,,,,,,,,,,,,,,,,,
,,,,,,,,,,stimuli/images/PICTURE_677.png,PHOTO,5a6adef80384310001944ba8,08/01/1954,2020-09-12_06h56.50.110,proactive3.2,2020.1.2,Win32,60,5f5adea66120081ea0f57a61,5f5c62f772bd1b23b601bf20,6,,,,,,map,,,,,,0,40,40,14,1,2,2,,,,,,,,,,,,,,,,,,,,,,,,,,,,,,,,,,,,,,,,,,,,,,,,,,,,,,,,,,,,,,,,,,,,,,,,,,,
,,,,,,,,,,stimuli/images/PICTURE_285.png,PRINCE,5a6adef80384310001944ba8,08/01/1954,2020-09-12_06h56.50.110,proactive3.2,2020.1.2,Win32,60,5f5adea66120081ea0f57a61,5f5c62f772bd1b23b601bf20,6,,,,,,carrot,,,,,,0,41,41,20,1,3,2,,,,,,,,,,,,,,,,,,,,,,,,,,,,,,,,,,,,,,,,,,,,,,,,,,,,,,,,,,,,,,,,,,,,,,,,,,,
,,,,,,,,,,stimuli/images/PICTURE_453.png,FAMILY,5a6adef80384310001944ba8,08/01/1954,2020-09-12_06h56.50.110,proactive3.2,2020.1.2,Win32,60,5f5adea66120081ea0f57a61,5f5c62f772bd1b23b601bf20,6,,,,,,scissors,,,,,,0,42,42,48,1,5,2,,,,,,,,,,,,,,,,,,,,,,,,,,,,,,,,,,,,,,,,,,,,,,,,,,,,,,,,,,,,,,,,,,,,,,,,,,,
,,,,,,,,,,stimuli/images/PICTURE_32.png,LETTER,5a6adef80384310001944ba8,08/01/1954,2020-09-12_06h56.50.110,proactive3.2,2020.1.2,Win32,60,5f5adea66120081ea0f57a61,5f5c62f772bd1b23b601bf20,6,,,,,,crown,,,,,,0,43,43,56,1,6,2,,,,,,,,,,,,,,,,,,,,,,,,,,,,,,,,,,,,,,,,,,,,,,,,,,,,,,,,,,,,,,,,,,,,,,,,,,,
,,,,,,,,,,stimuli/images/PICTURE_160.png,HOTEL,5a6adef80384310001944ba8,08/01/1954,2020-09-12_06h56.50.110,proactive3.2,2020.1.2,Win32,60,5f5adea66120081ea0f57a61,5f5c62f772bd1b23b601bf20,6,,,,,,wheelbarrow,,,,,,0,44,44,16,1,2,2,,,,,,,,,,,,,,,,,,,,,,,,,,,,,,,,,,,,,,,,,,,,,,,,,,,,,,,,,,,,,,,,,,,,,,,,,,,
,,,,,,,,,,stimuli/images/PICTURE_509.png,SHOTS,5a6adef80384310001944ba8,08/01/1954,2020-09-12_06h56.50.110,proactive3.2,2020.1.2,Win32,60,5f5adea66120081ea0f57a61,5f5c62f772bd1b23b601bf20,6,,,,,,telephone,,,,,,0,45,45,7,1,1,2,,,,,,,,,,,,,,,,,,,,,,,,,,,,,,,,,,,,,,,,,,,,,,,,,,,,,,,,,,,,,,,,,,,,,,,,,,,
,,,,,,,,,,stimuli/images/PICTURE_491.png,SERIES,5a6adef80384310001944ba8,08/01/1954,2020-09-12_06h56.50.110,proactive3.2,2020.1.2,Win32,60,5f5adea66120081ea0f57a61,5f5c62f772bd1b23b601bf20,6,,,,,,rug,,,,,,0,46,46,39,1,4,2,,,,,,,,,,,,,,,,,,,,,,,,,,,,,,,,,,,,,,,,,,,,,,,,,,,,,,,,,,,,,,,,,,,,,,,,,,,
,,,,,,,,,,stimuli/images/PICTURE_33.png,COPS,5a6adef80384310001944ba8,08/01/1954,2020-09-12_06h56.50.110,proactive3.2,2020.1.2,Win32,60,5f5adea66120081ea0f57a61,5f5c62f772bd1b23b601bf20,6,,,,,,frame,,,,,,0,47,47,29,1,3,2,,,,,,,,,,,,,,,,,,,,,,,,,,,,,,,,,,,,,,,,,,,,,,,,,,,,,,,,,,,,,,,,,,,,,,,,,,,
,,,,,,,,,,stimuli/images/PICTURE_452.png,COPS,5a6adef80384310001944ba8,08/01/1954,2020-09-12_06h56.50.110,proactive3.2,2020.1.2,Win32,60,5f5adea66120081ea0f57a61,5f5c62f772bd1b23b601bf20,6,,,,,,watch,,,,,,0,48,48,0,1,1,2,,,,,,,,,,,,,,,,,,,,,,,,,,,,,,,,,,,,,,,,,,,,,,,,,,,,,,,,,,,,,,,,,,,,,,,,,,,
,,,,,,,,,,stimuli/images/PICTURE_692.png,DUDE,5a6adef80384310001944ba8,08/01/1954,2020-09-12_06h56.50.110,proactive3.2,2020.1.2,Win32,60,5f5adea66120081ea0f57a61,5f5c62f772bd1b23b601bf20,6,,,,,,cherry,,,,,,0,49,49,47,1,5,2,,,,,,,,,,,,,,,,,,,,,,,,,,,,,,,,,,,,,,,,,,,,,,,,,,,,,,,,,,,,,,,,,,,,,,,,,,,
,,,,,,,,,,stimuli/images/PICTURE_208.png,SPIRIT,5a6adef80384310001944ba8,08/01/1954,2020-09-12_06h56.50.110,proactive3.2,2020.1.2,Win32,60,5f5adea66120081ea0f57a61,5f5c62f772bd1b23b601bf20,6,,,,,,microphone,,,,,,0,50,50,28,1,3,2,,,,,,,,,,,,,,,,,,,,,,,,,,,,,,,,,,,,,,,,,,,,,,,,,,,,,,,,,,,,,,,,,,,,,,,,,,,
,,,,,,,,,,stimuli/images/PICTURE_708.png,VALLEY,5a6adef80384310001944ba8,08/01/1954,2020-09-12_06h56.50.110,proactive3.2,2020.1.2,Win32,60,5f5adea66120081ea0f57a61,5f5c62f772bd1b23b601bf20,6,,,,,,monkey,,,,,,0,51,51,45,1,5,2,,,,,,,,,,,,,,,,,,,,,,,,,,,,,,,,,,,,,,,,,,,,,,,,,,,,,,,,,,,,,,,,,,,,,,,,,,,
,,,,,,,,,,stimuli/images/PICTURE_405.png,JUNGLE,5a6adef80384310001944ba8,08/01/1954,2020-09-12_06h56.50.110,proactive3.2,2020.1.2,Win32,60,5f5adea66120081ea0f57a61,5f5c62f772bd1b23b601bf20,6,,,,,,anchor,,,,,,0,52,52,13,1,2,2,,,,,,,,,,,,,,,,,,,,,,,,,,,,,,,,,,,,,,,,,,,,,,,,,,,,,,,,,,,,,,,,,,,,,,,,,,,
,,,,,,,,,,stimuli/images/PICTURE_688.png,CLOCK,5a6adef80384310001944ba8,08/01/1954,2020-09-12_06h56.50.110,proactive3.2,2020.1.2,Win32,60,5f5adea66120081ea0f57a61,5f5c62f772bd1b23b601bf20,6,,,,,,runner,,,,,,0,53,53,42,1,5,2,,,,,,,,,,,,,,,,,,,,,,,,,,,,,,,,,,,,,,,,,,,,,,,,,,,,,,,,,,,,,,,,,,,,,,,,,,,
,,,,,,,,,,stimuli/images/PICTURE_93.png,GIRL,5a6adef80384310001944ba8,08/01/1954,2020-09-12_06h56.50.110,proactive3.2,2020.1.2,Win32,60,5f5adea66120081ea0f57a61,5f5c62f772bd1b23b601bf20,6,,,,,,skateboard,,,,,,0,54,54,31,1,4,2,,,,,,,,,,,,,,,,,,,,,,,,,,,,,,,,,,,,,,,,,,,,,,,,,,,,,,,,,,,,,,,,,,,,,,,,,,,
,,,,,,,,,,stimuli/images/PICTURE_487.png,POLICY,5a6adef80384310001944ba8,08/01/1954,2020-09-12_06h56.50.110,proactive3.2,2020.1.2,Win32,60,5f5adea66120081ea0f57a61,5f5c62f772bd1b23b601bf20,6,,,,,,basket,,,,,,0,55,55,34,1,4,2,,,,,,,,,,,,,,,,,,,,,,,,,,,,,,,,,,,,,,,,,,,,,,,,,,,,,,,,,,,,,,,,,,,,,,,,,,,
,,,,,,,,,,stimuli/images/PICTURE_2.png,YARD,5a6adef80384310001944ba8,08/01/1954,2020-09-12_06h56.50.110,proactive3.2,2020.1.2,Win32,60,5f5adea66120081ea0f57a61,5f5c62f772bd1b23b601bf20,6,,,,,,tyre,,,,,,0,56,56,55,1,6,2,,,,,,,,,,,,,,,,,,,,,,,,,,,,,,,,,,,,,,,,,,,,,,,,,,,,,,,,,,,,,,,,,,,,,,,,,,,
,,,,,,,,,,stimuli/images/PICTURE_504.png,HOUSE,5a6adef80384310001944ba8,08/01/1954,2020-09-12_06h56.50.110,proactive3.2,2020.1.2,Win32,60,5f5adea66120081ea0f57a61,5f5c62f772bd1b23b601bf20,6,,,,,,wheel,,,,,,0,57,57,36,1,4,2,,,,,,,,,,,,,,,,,,,,,,,,,,,,,,,,,,,,,,,,,,,,,,,,,,,,,,,,,,,,,,,,,,,,,,,,,,,
,,,,,,,,,,stimuli/images/PICTURE_2.png,JUNGLE,5a6adef80384310001944ba8,08/01/1954,2020-09-12_06h56.50.110,proactive3.2,2020.1.2,Win32,60,5f5adea66120081ea0f57a61,5f5c62f772bd1b23b601bf20,6,,,,,,tyre,,,,,,0,58,58,1,1,1,2,,,,,,,,,,,,,,,,,,,,,,,,,,,,,,,,,,,,,,,,,,,,,,,,,,,,,,,,,,,,,,,,,,,,,,,,,,,
,,?,0.000885,0,,,,,,stimuli/images/PICTURE_160.png,HOTEL,5a6adef80384310001944ba8,08/01/1954,2020-09-12_06h56.50.110,proactive3.2,2020.1.2,Win32,60,5f5adea66120081ea0f57a61,5f5c62f772bd1b23b601bf20,6,,,,,,wheelbarrow,,,,,,,,,,,2,2,0,0,0,16,1,,,,,,,,,,,,,,,,,,,,,,,,,,,,,,,,,,,,,,,,,,,,,,,,,,,,,,,,,,,,,,,,,,,,,,
,,?,2.15494,0,,,,,,stimuli/images/PICTURE_677.png,FAMILY,5a6adef80384310001944ba8,08/01/1954,2020-09-12_06h56.50.110,proactive3.2,2020.1.2,Win32,60,5f5adea66120081ea0f57a61,5f5c62f772bd1b23b601bf20,6,,,,,,map,,,,,,,,,,,6,2,0,1,1,53,1,,,,,,,,,,,,,,,,,,,,,,,,,,,,,,,,,,,,,,,,,,,,,,,,,,,,,,,,,,,,,,,,,,,,,,
,,?,0.00105,0,,,,,,stimuli/images/PICTURE_2.png,AREA,5a6adef80384310001944ba8,08/01/1954,2020-09-12_06h56.50.110,proactive3.2,2020.1.2,Win32,60,5f5adea66120081ea0f57a61,5f5c62f772bd1b23b601bf20,6,,,,,,tyre,,,,,,,,,,,4,2,0,2,2,32,1,,,,,,,,,,,,,,,,,,,,,,,,,,,,,,,,,,,,,,,,,,,,,,,,,,,,,,,,,,,,,,,,,,,,,,
,,?,0.00072,0,,,,,,stimuli/images/PICTURE_141.png,CLIENT,5a6adef80384310001944ba8,08/01/1954,2020-09-12_06h56.50.110,proactive3.2,2020.1.2,Win32,60,5f5adea66120081ea0f57a61,5f5c62f772bd1b23b601bf20,6,,,,,,sunflower,,,,,,,,,,,4,2,0,3,3,30,1,,,,,,,,,,,,,,,,,,,,,,,,,,,,,,,,,,,,,,,,,,,,,,,,,,,,,,,,,,,,,,,,,,,,,,
,,ROOF,6.02845,1,,,,,,stimuli/images/PICTURE_487.png,ROOF,5a6adef80384310001944ba8,08/01/1954,2020-09-12_06h56.50.110,proactive3.2,2020.1.2,Win32,60,5f5adea66120081ea0f57a61,5f5c62f772bd1b23b601bf20,6,,,,,,basket,,,,,,,,,,,6,2,0,4,4,50,1,,,,,,,,,,,,,,,,,,,,,,,,,,,,,,,,,,,,,,,,,,,,,,,,,,,,,,,,,,,,,,,,,,,,,,
,,?,0.00086,0,,,,,,stimuli/images/PICTURE_654.png,YEAR,5a6adef80384310001944ba8,08/01/1954,2020-09-12_06h56.50.110,proactive3.2,2020.1.2,Win32,60,5f5adea66120081ea0f57a61,5f5c62f772bd1b23b601bf20,6,,,,,,pencil,,,,,,,,,,,5,2,0,5,5,41,1,,,,,,,,,,,,,,,,,,,,,,,,,,,,,,,,,,,,,,,,,,,,,,,,,,,,,,,,,,,,,,,,,,,,,,
,,?,0.0007,0,,,,,,stimuli/images/PICTURE_692.png,DUDE,5a6adef80384310001944ba8,08/01/1954,2020-09-12_06h56.50.110,proactive3.2,2020.1.2,Win32,60,5f5adea66120081ea0f57a61,5f5c62f772bd1b23b601bf20,6,,,,,,cherry,,,,,,,,,,,5,2,0,6,6,47,1,,,,,,,,,,,,,,,,,,,,,,,,,,,,,,,,,,,,,,,,,,,,,,,,,,,,,,,,,,,,,,,,,,,,,,
,,BODY,6.16163,1,,,,,,stimuli/images/PICTURE_297.png,BODY,5a6adef80384310001944ba8,08/01/1954,2020-09-12_06h56.50.110,proactive3.2,2020.1.2,Win32,60,5f5adea66120081ea0f57a61,5f5c62f772bd1b23b601bf20,6,,,,,,aeroplane,,,,,,,,,,,6,2,0,7,7,51,1,,,,,,,,,,,,,,,,,,,,,,,,,,,,,,,,,,,,,,,,,,,,,,,,,,,,,,,,,,,,,,,,,,,,,,
,,?,0.002465,0,,,,,,stimuli/images/PICTURE_509.png,APPLE,5a6adef80384310001944ba8,08/01/1954,2020-09-12_06h56.50.110,proactive3.2,2020.1.2,Win32,60,5f5adea66120081ea0f57a61,5f5c62f772bd1b23b601bf20,6,,,,,,telephone,,,,,,,,,,,4,2,0,8,8,38,1,,,,,,,,,,,,,,,,,,,,,,,,,,,,,,,,,,,,,,,,,,,,,,,,,,,,,,,,,,,,,,,,,,,,,,
,,?,0.00082,0,,,,,,stimuli/images/PICTURE_285.png,PRINCE,5a6adef80384310001944ba8,08/01/1954,2020-09-12_06h56.50.110,proactive3.2,2020.1.2,Win32,60,5f5adea66120081ea0f57a61,5f5c62f772bd1b23b601bf20,6,,,,,,carrot,,,,,,,,,,,3,2,0,9,9,20,1,,,,,,,,,,,,,,,,,,,,,,,,,,,,,,,,,,,,,,,,,,,,,,,,,,,,,,,,,,,,,,,,,,,,,,
,,?,0.000665,0,,,,,,stimuli/images/PICTURE_147.png,LEADER,5a6adef80384310001944ba8,08/01/1954,2020-09-12_06h56.50.110,proactive3.2,2020.1.2,Win32,60,5f5adea66120081ea0f57a61,5f5c62f772bd1b23b601bf20,6,,,,,,hanger,,,,,,,,,,,4,2,0,10,10,33,1,,,,,,,,,,,,,,,,,,,,,,,,,,,,,,,,,,,,,,,,,,,,,,,,,,,,,,,,,,,,,,,,,,,,,,
,,?,0.00075,0,,,,,,stimuli/images/PICTURE_215.png,LEADER,5a6adef80384310001944ba8,08/01/1954,2020-09-12_06h56.50.110,proactive3.2,2020.1.2,Win32,60,5f5adea66120081ea0f57a61,5f5c62f772bd1b23b601bf20,6,,,,,,boot,,,,,,,,,,,5,2,0,11,11,43,1,,,,,,,,,,,,,,,,,,,,,,,,,,,,,,,,,,,,,,,,,,,,,,,,,,,,,,,,,,,,,,,,,,,,,,
,,?,1.49051,0,,,,,,stimuli/images/PICTURE_405.png,JUNGLE,5a6adef80384310001944ba8,08/01/1954,2020-09-12_06h56.50.110,proactive3.2,2020.1.2,Win32,60,5f5adea66120081ea0f57a61,5f5c62f772bd1b23b601bf20,6,,,,,,anchor,,,,,,,,,,,6,2,0,12,12,58,1,,,,,,,,,,,,,,,,,,,,,,,,,,,,,,,,,,,,,,,,,,,,,,,,,,,,,,,,,,,,,,,,,,,,,,
,,?,0.00089,0,,,,,,stimuli/images/PICTURE_750.png,POLICY,5a6adef80384310001944ba8,08/01/1954,2020-09-12_06h56.50.110,proactive3.2,2020.1.2,Win32,60,5f5adea66120081ea0f57a61,5f5c62f772bd1b23b601bf20,6,,,,,,kettle,,,,,,,,,,,5,2,0,13,13,44,1,,,,,,,,,,,,,,,,,,,,,,,,,,,,,,,,,,,,,,,,,,,,,,,,,,,,,,,,,,,,,,,,,,,,,,
,,?,0.00085,0,,,,,,stimuli/images/PICTURE_255.png,PENNY,5a6adef80384310001944ba8,08/01/1954,2020-09-12_06h56.50.110,proactive3.2,2020.1.2,Win32,60,5f5adea66120081ea0f57a61,5f5c62f772bd1b23b601bf20,6,,,,,,shovel,,,,,,,,,,,2,2,0,14,14,19,1,,,,,,,,,,,,,,,,,,,,,,,,,,,,,,,,,,,,,,,,,,,,,,,,,,,,,,,,,,,,,,,,,,,,,,
,,?,1.094875,0,,,,,,stimuli/images/PICTURE_57.png,CANDY,5a6adef80384310001944ba8,08/01/1954,2020-09-12_06h56.50.110,proactive3.2,2020.1.2,Win32,60,5f5adea66120081ea0f57a61,5f5c62f772bd1b23b601bf20,6,,,,,,stamp,,,,,,,,,,,6,2,0,15,15,52,1,,,,,,,,,,,,,,,,,,,,,,,,,,,,,,,,,,,,,,,,,,,,,,,,,,,,,,,,,,,,,,,,,,,,,,
,,?,0.00093,0,,,,,,stimuli/images/PICTURE_215.png,FOOD,5a6adef80384310001944ba8,08/01/1954,2020-09-12_06h56.50.110,proactive3.2,2020.1.2,Win32,60,5f5adea66120081ea0f57a61,5f5c62f772bd1b23b601bf20,6,,,,,,boot,,,,,,,,,,,1,2,0,16,16,5,1,,,,,,,,,,,,,,,,,,,,,,,,,,,,,,,,,,,,,,,,,,,,,,,,,,,,,,,,,,,,,,,,,,,,,,
,,?,0.000655,0,,,,,,stimuli/images/PICTURE_296.png,CLOCK,5a6adef80384310001944ba8,08/01/1954,2020-09-12_06h56.50.110,proactive3.2,2020.1.2,Win32,60,5f5adea66120081ea0f57a61,5f5c62f772bd1b23b601bf20,6,,,,,,bolt,,,,,,,,,,,2,2,0,17,17,18,1,,,,,,,,,,,,,,,,,,,,,,,,,,,,,,,,,,,,,,,,,,,,,,,,,,,,,,,,,,,,,,,,,,,,,,
,,?,0.0007,0,,,,,,stimuli/images/PICTURE_327.png,LEADER,5a6adef80384310001944ba8,08/01/1954,2020-09-12_06h56.50.110,proactive3.2,2020.1.2,Win32,60,5f5adea66120081ea0f57a61,5f5c62f772bd1b23b601bf20,6,,,,,,helmet,,,,,,,,,,,2,2,0,18,18,17,1,,,,,,,,,,,,,,,,,,,,,,,,,,,,,,,,,,,,,,,,,,,,,,,,,,,,,,,,,,,,,,,,,,,,,,
,,?,0.000625,0,,,,,,stimuli/images/PICTURE_509.png,BATH,5a6adef80384310001944ba8,08/01/1954,2020-09-12_06h56.50.110,proactive3.2,2020.1.2,Win32,60,5f5adea66120081ea0f57a61,5f5c62f772bd1b23b601bf20,6,,,,,,telephone,,,,,,,,,,,2,2,0,19,19,15,1,,,,,,,,,,,,,,,,,,,,,,,,,,,,,,,,,,,,,,,,,,,,,,,,,,,,,,,,,,,,,,,,,,,,,,
,,?,0.000795,0,,,,,,stimuli/images/PICTURE_708.png,VALLEY,5a6adef80384310001944ba8,08/01/1954,2020-09-12_06h56.50.110,proactive3.2,2020.1.2,Win32,60,5f5adea66120081ea0f57a61,5f5c62f772bd1b23b601bf20,6,,,,,,monkey,,,,,,,,,,,5,2,0,20,20,45,1,,,,,,,,,,,,,,,,,,,,,,,,,,,,,,,,,,,,,,,,,,,,,,,,,,,,,,,,,,,,,,,,,,,,,,
,,?,0.000345,0,,,,,,stimuli/images/PICTURE_677.png,PHOTO,5a6adef80384310001944ba8,08/01/1954,2020-09-12_06h56.50.110,proactive3.2,2020.1.2,Win32,60,5f5adea66120081ea0f57a61,5f5c62f772bd1b23b601bf20,6,,,,,,map,,,,,,,,,,,2,2,0,21,21,14,1,,,,,,,,,,,,,,,,,,,,,,,,,,,,,,,,,,,,,,,,,,,,,,,,,,,,,,,,,,,,,,,,,,,,,,
,,?,0.000345,0,,,,,,stimuli/images/PICTURE_688.png,CLOCK,5a6adef80384310001944ba8,08/01/1954,2020-09-12_06h56.50.110,proactive3.2,2020.1.2,Win32,60,5f5adea66120081ea0f57a61,5f5c62f772bd1b23b601bf20,6,,,,,,runner,,,,,,,,,,,5,2,0,22,22,42,1,,,,,,,,,,,,,,,,,,,,,,,,,,,,,,,,,,,,,,,,,,,,,,,,,,,,,,,,,,,,,,,,,,,,,,
,,?,0.00039,0,,,,,,stimuli/images/PICTURE_667.png,GLASS,5a6adef80384310001944ba8,08/01/1954,2020-09-12_06h56.50.110,proactive3.2,2020.1.2,Win32,60,5f5adea66120081ea0f57a61,5f5c62f772bd1b23b601bf20,6,,,,,,daisy,,,,,,,,,,,3,2,0,23,23,27,1,,,,,,,,,,,,,,,,,,,,,,,,,,,,,,,,,,,,,,,,,,,,,,,,,,,,,,,,,,,,,,,,,,,,,,
,,?,0.00036,0,,,,,,stimuli/images/PICTURE_405.png,HOUSE,5a6adef80384310001944ba8,08/01/1954,2020-09-12_06h56.50.110,proactive3.2,2020.1.2,Win32,60,5f5adea66120081ea0f57a61,5f5c62f772bd1b23b601bf20,6,,,,,,anchor,,,,,,,,,,,1,2,0,24,24,2,1,,,,,,,,,,,,,,,,,,,,,,,,,,,,,,,,,,,,,,,,,,,,,,,,,,,,,,,,,,,,,,,,,,,,,,
,,?,1.23472,0,,,,,,stimuli/images/PICTURE_655.png,SALE,5a6adef80384310001944ba8,08/01/1954,2020-09-12_06h56.50.110,proactive3.2,2020.1.2,Win32,60,5f5adea66120081ea0f57a61,5f5c62f772bd1b23b601bf20,6,,,,,,megaphone,,,,,,,,,,,6,2,0,25,25,57,1,,,,,,,,,,,,,,,,,,,,,,,,,,,,,,,,,,,,,,,,,,,,,,,,,,,,,,,,,,,,,,,,,,,,,,
,,?,0.00097,0,,,,,,stimuli/images/PICTURE_123.png,SALE,5a6adef80384310001944ba8,08/01/1954,2020-09-12_06h56.50.110,proactive3.2,2020.1.2,Win32,60,5f5adea66120081ea0f57a61,5f5c62f772bd1b23b601bf20,6,,,,,,dart,,,,,,,,,,,1,2,0,26,26,8,1,,,,,,,,,,,,,,,,,,,,,,,,,,,,,,,,,,,,,,,,,,,,,,,,,,,,,,,,,,,,,,,,,,,,,,
,,?,0.00089,0,,,,,,stimuli/images/PICTURE_215.png,BOYS,5a6adef80384310001944ba8,08/01/1954,2020-09-12_06h56.50.110,proactive3.2,2020.1.2,Win32,60,5f5adea66120081ea0f57a61,5f5c62f772bd1b23b601bf20,6,,,,,,boot,,,,,,,,,,,3,2,0,27,27,24,1,,,,,,,,,,,,,,,,,,,,,,,,,,,,,,,,,,,,,,,,,,,,,,,,,,,,,,,,,,,,,,,,,,,,,,
,,?,0.000715,0,,,,,,stimuli/images/PICTURE_18.png,RIVER,5a6adef80384310001944ba8,08/01/1954,2020-09-12_06h56.50.110,proactive3.2,2020.1.2,Win32,60,5f5adea66120081ea0f57a61,5f5c62f772bd1b23b601bf20,6,,,,,,planet,,,,,,,,,,,3,2,0,28,28,22,1,,,,,,,,,,,,,,,,,,,,,,,,,,,,,,,,,,,,,,,,,,,,,,,,,,,,,,,,,,,,,,,,,,,,,,
,,?,0.000395,0,,,,,,stimuli/images/PICTURE_491.png,SERIES,5a6adef80384310001944ba8,08/01/1954,2020-09-12_06h56.50.110,proactive3.2,2020.1.2,Win32,60,5f5adea66120081ea0f57a61,5f5c62f772bd1b23b601bf20,6,,,,,,rug,,,,,,,,,,,4,2,0,29,29,39,1,,,,,,,,,,,,,,,,,,,,,,,,,,,,,,,,,,,,,,,,,,,,,,,,,,,,,,,,,,,,,,,,,,,,,,
,,?,0.00039,0,,,,,,stimuli/images/PICTURE_470.png,MOMENT,5a6adef80384310001944ba8,08/01/1954,2020-09-12_06h56.50.110,proactive3.2,2020.1.2,Win32,60,5f5adea66120081ea0f57a61,5f5c62f772bd1b23b601bf20,6,,,,,,motorbike,,,,,,,,,,,5,2,0,30,30,40,1,,,,,,,,,,,,,,,,,,,,,,,,,,,,,,,,,,,,,,,,,,,,,,,,,,,,,,,,,,,,,,,,,,,,,,
,,?,1.622775,0,,,,,,stimuli/images/PICTURE_311.png,TOILET,5a6adef80384310001944ba8,08/01/1954,2020-09-12_06h56.50.110,proactive3.2,2020.1.2,Win32,60,5f5adea66120081ea0f57a61,5f5c62f772bd1b23b601bf20,6,,,,,,razor,,,,,,,,,,,6,2,0,31,31,54,1,,,,,,,,,,,,,,,,,,,,,,,,,,,,,,,,,,,,,,,,,,,,,,,,,,,,,,,,,,,,,,,,,,,,,,
,,?,0.000935,0,,,,,,stimuli/images/PICTURE_452.png,COPS,5a6adef80384310001944ba8,08/01/1954,2020-09-12_06h56.50.110,proactive3.2,2020.1.2,Win32,60,5f5adea66120081ea0f57a61,5f5c62f772bd1b23b601bf20,6,,,,,,watch,,,,,,,,,,,1,2,0,32,32,0,1,,,,,,,,,,,,,,,,,,,,,,,,,,,,,,,,,,,,,,,,,,,,,,,,,,,,,,,,,,,,,,,,,,,,,,
,,?,0.000745,0,,,,,,stimuli/images/PICTURE_95.png,NIGHT,5a6adef80384310001944ba8,08/01/1954,2020-09-12_06h56.50.110,proactive3.2,2020.1.2,Win32,60,5f5adea66120081ea0f57a61,5f5c62f772bd1b23b601bf20,6,,,,,,suitcase,,,,,,,,,,,4,2,0,33,33,37,1,,,,,,,,,,,,,,,,,,,,,,,,,,,,,,,,,,,,,,,,,,,,,,,,,,,,,,,,,,,,,,,,,,,,,,
,,?,0.000675,0,,,,,,stimuli/images/PICTURE_453.png,FAMILY,5a6adef80384310001944ba8,08/01/1954,2020-09-12_06h56.50.110,proactive3.2,2020.1.2,Win32,60,5f5adea66120081ea0f57a61,5f5c62f772bd1b23b601bf20,6,,,,,,scissors,,,,,,,,,,,5,2,0,34,34,48,1,,,,,,,,,,,,,,,,,,,,,,,,,,,,,,,,,,,,,,,,,,,,,,,,,,,,,,,,,,,,,,,,,,,,,,
,,?,0.00071,0,,,,,,stimuli/images/PICTURE_68.png,KIND,5a6adef80384310001944ba8,08/01/1954,2020-09-12_06h56.50.110,proactive3.2,2020.1.2,Win32,60,5f5adea66120081ea0f57a61,5f5c62f772bd1b23b601bf20,6,,,,,,candle,,,,,,,,,,,3,2,0,35,35,23,1,,,,,,,,,,,,,,,,,,,,,,,,,,,,,,,,,,,,,,,,,,,,,,,,,,,,,,,,,,,,,,,,,,,,,,
,,?,0.00062,0,,,,,,stimuli/images/PICTURE_311.png,FLESH,5a6adef80384310001944ba8,08/01/1954,2020-09-12_06h56.50.110,proactive3.2,2020.1.2,Win32,60,5f5adea66120081ea0f57a61,5f5c62f772bd1b23b601bf20,6,,,,,,razor,,,,,,,,,,,1,2,0,36,36,3,1,,,,,,,,,,,,,,,,,,,,,,,,,,,,,,,,,,,,,,,,,,,,,,,,,,,,,,,,,,,,,,,,,,,,,,
,,?,1.423115,0,,,,,,stimuli/images/PICTURE_32.png,LETTER,5a6adef80384310001944ba8,08/01/1954,2020-09-12_06h56.50.110,proactive3.2,2020.1.2,Win32,60,5f5adea66120081ea0f57a61,5f5c62f772bd1b23b601bf20,6,,,,,,crown,,,,,,,,,,,6,2,0,37,37,56,1,,,,,,,,,,,,,,,,,,,,,,,,,,,,,,,,,,,,,,,,,,,,,,,,,,,,,,,,,,,,,,,,,,,,,,
,,?,0.000665,0,,,,,,stimuli/images/PICTURE_405.png,JUNGLE,5a6adef80384310001944ba8,08/01/1954,2020-09-12_06h56.50.110,proactive3.2,2020.1.2,Win32,60,5f5adea66120081ea0f57a61,5f5c62f772bd1b23b601bf20,6,,,,,,anchor,,,,,,,,,,,2,2,0,38,38,13,1,,,,,,,,,,,,,,,,,,,,,,,,,,,,,,,,,,,,,,,,,,,,,,,,,,,,,,,,,,,,,,,,,,,,,,
,,?,0.000475,0,,,,,,stimuli/images/PICTURE_564.png,PLENTY,5a6adef80384310001944ba8,08/01/1954,2020-09-12_06h56.50.110,proactive3.2,2020.1.2,Win32,60,5f5adea66120081ea0f57a61,5f5c62f772bd1b23b601bf20,6,,,,,,spoon,,,,,,,,,,,2,2,0,39,39,11,1,,,,,,,,,,,,,,,,,,,,,,,,,,,,,,,,,,,,,,,,,,,,,,,,,,,,,,,,,,,,,,,,,,,,,,
,,?,0.000475,0,,,,,,stimuli/images/PICTURE_654.png,COPS,5a6adef80384310001944ba8,08/01/1954,2020-09-12_06h56.50.110,proactive3.2,2020.1.2,Win32,60,5f5adea66120081ea0f57a61,5f5c62f772bd1b23b601bf20,6,,,,,,pencil,,,,,,,,,,,2,2,0,40,40,10,1,,,,,,,,,,,,,,,,,,,,,,,,,,,,,,,,,,,,,,,,,,,,,,,,,,,,,,,,,,,,,,,,,,,,,,
,,?,0.000575,0,,,,,,stimuli/images/PICTURE_487.png,POLICY,5a6adef80384310001944ba8,08/01/1954,2020-09-12_06h56.50.110,proactive3.2,2020.1.2,Win32,60,5f5adea66120081ea0f57a61,5f5c62f772bd1b23b601bf20,6,,,,,,basket,,,,,,,,,,,4,2,0,41,41,34,1,,,,,,,,,,,,,,,,,,,,,,,,,,,,,,,,,,,,,,,,,,,,,,,,,,,,,,,,,,,,,,,,,,,,,,
,,?,0.00045,0,,,,,,stimuli/images/PICTURE_177.png,HOUSE,5a6adef80384310001944ba8,08/01/1954,2020-09-12_06h56.50.110,proactive3.2,2020.1.2,Win32,60,5f5adea66120081ea0f57a61,5f5c62f772bd1b23b601bf20,6,,,,,,mushroom,,,,,,,,,,,3,2,0,42,42,25,1,,,,,,,,,,,,,,,,,,,,,,,,,,,,,,,,,,,,,,,,,,,,,,,,,,,,,,,,,,,,,,,,,,,,,,
,,?,0.001435,0,,,,,,stimuli/images/PICTURE_356.png,CANDY,5a6adef80384310001944ba8,08/01/1954,2020-09-12_06h56.50.110,proactive3.2,2020.1.2,Win32,60,5f5adea66120081ea0f57a61,5f5c62f772bd1b23b601bf20,6,,,,,,pawn,,,,,,,,,,,5,2,0,43,43,46,1,,,,,,,,,,,,,,,,,,,,,,,,,,,,,,,,,,,,,,,,,,,,,,,,,,,,,,,,,,,,,,,,,,,,,,
,,?,0.00044,0,,,,,,stimuli/images/PICTURE_33.png,COPS,5a6adef80384310001944ba8,08/01/1954,2020-09-12_06h56.50.110,proactive3.2,2020.1.2,Win32,60,5f5adea66120081ea0f57a61,5f5c62f772bd1b23b601bf20,6,,,,,,frame,,,,,,,,,,,3,2,0,44,44,29,1,,,,,,,,,,,,,,,,,,,,,,,,,,,,,,,,,,,,,,,,,,,,,,,,,,,,,,,,,,,,,,,,,,,,,,
,,?,0.000495,0,,,,,,stimuli/images/PICTURE_93.png,GIRL,5a6adef80384310001944ba8,08/01/1954,2020-09-12_06h56.50.110,proactive3.2,2020.1.2,Win32,60,5f5adea66120081ea0f57a61,5f5c62f772bd1b23b601bf20,6,,,,,,skateboard,,,,,,,,,,,4,2,0,45,45,31,1,,,,,,,,,,,,,,,,,,,,,,,,,,,,,,,,,,,,,,,,,,,,,,,,,,,,,,,,,,,,,,,,,,,,,,
,,?,1.60515,0,,,,,,stimuli/images/PICTURE_348.png,DUDE,5a6adef80384310001944ba8,08/01/1954,2020-09-12_06h56.50.110,proactive3.2,2020.1.2,Win32,60,5f5adea66120081ea0f57a61,5f5c62f772bd1b23b601bf20,6,,,,,,pepper,,,,,,,,,,,6,2,0,46,46,59,1,,,,,,,,,,,,,,,,,,,,,,,,,,,,,,,,,,,,,,,,,,,,,,,,,,,,,,,,,,,,,,,,,,,,,,
,,?,0.00094,0,,,,,,stimuli/images/PICTURE_504.png,HOUSE,5a6adef80384310001944ba8,08/01/1954,2020-09-12_06h56.50.110,proactive3.2,2020.1.2,Win32,60,5f5adea66120081ea0f57a61,5f5c62f772bd1b23b601bf20,6,,,,,,wheel,,,,,,,,,,,4,2,0,47,47,36,1,,,,,,,,,,,,,,,,,,,,,,,,,,,,,,,,,,,,,,,,,,,,,,,,,,,,,,,,,,,,,,,,,,,,,,
,,?,0.00068,0,,,,,,stimuli/images/PICTURE_314.png,SPEECH,5a6adef80384310001944ba8,08/01/1954,2020-09-12_06h56.50.110,proactive3.2,2020.1.2,Win32,60,5f5adea66120081ea0f57a61,5f5c62f772bd1b23b601bf20,6,,,,,,perfume,,,,,,,,,,,4,2,0,48,48,35,1,,,,,,,,,,,,,,,,,,,,,,,,,,,,,,,,,,,,,,,,,,,,,,,,,,,,,,,,,,,,,,,,,,,,,,
,,?,1.49515,0,,,,,,stimuli/images/PICTURE_2.png,YARD,5a6adef80384310001944ba8,08/01/1954,2020-09-12_06h56.50.110,proactive3.2,2020.1.2,Win32,60,5f5adea66120081ea0f57a61,5f5c62f772bd1b23b601bf20,6,,,,,,tyre,,,,,,,,,,,6,2,0,49,49,55,1,,,,,,,,,,,,,,,,,,,,,,,,,,,,,,,,,,,,,,,,,,,,,,,,,,,,,,,,,,,,,,,,,,,,,,
,,?,0.000875,0,,,,,,stimuli/images/PICTURE_208.png,SPIRIT,5a6adef80384310001944ba8,08/01/1954,2020-09-12_06h56.50.110,proactive3.2,2020.1.2,Win32,60,5f5adea66120081ea0f57a61,5f5c62f772bd1b23b601bf20,6,,,,,,microphone,,,,,,,,,,,3,2,0,50,50,28,1,,,,,,,,,,,,,,,,,,,,,,,,,,,,,,,,,,,,,,,,,,,,,,,,,,,,,,,,,,,,,,,,,,,,,,
,,?,0.000625,0,,,,,,stimuli/images/PICTURE_2.png,JUNGLE,5a6adef80384310001944ba8,08/01/1954,2020-09-12_06h56.50.110,proactive3.2,2020.1.2,Win32,60,5f5adea66120081ea0f57a61,5f5c62f772bd1b23b601bf20,6,,,,,,tyre,,,,,,,,,,,1,2,0,51,51,1,1,,,,,,,,,,,,,,,,,,,,,,,,,,,,,,,,,,,,,,,,,,,,,,,,,,,,,,,,,,,,,,,,,,,,,,
,,?,0.000615,0,,,,,,stimuli/images/PICTURE_470.png,BEAUTY,5a6adef80384310001944ba8,08/01/1954,2020-09-12_06h56.50.110,proactive3.2,2020.1.2,Win32,60,5f5adea66120081ea0f57a61,5f5c62f772bd1b23b601bf20,6,,,,,,motorbike,,,,,,,,,,,3,2,0,52,52,26,1,,,,,,,,,,,,,,,,,,,,,,,,,,,,,,,,,,,,,,,,,,,,,,,,,,,,,,,,,,,,,,,,,,,,,,
,,?,0.002405,0,,,,,,stimuli/images/PICTURE_403.png,FAMILY,5a6adef80384310001944ba8,08/01/1954,2020-09-12_06h56.50.110,proactive3.2,2020.1.2,Win32,60,5f5adea66120081ea0f57a61,5f5c62f772bd1b23b601bf20,6,,,,,,cathedral,,,,,,,,,,,1,2,0,53,53,9,1,,,,,,,,,,,,,,,,,,,,,,,,,,,,,,,,,,,,,,,,,,,,,,,,,,,,,,,,,,,,,,,,,,,,,,
,,?,0.00062,0,,,,,,stimuli/images/PICTURE_509.png,SHOTS,5a6adef80384310001944ba8,08/01/1954,2020-09-12_06h56.50.110,proactive3.2,2020.1.2,Win32,60,5f5adea66120081ea0f57a61,5f5c62f772bd1b23b601bf20,6,,,,,,telephone,,,,,,,,,,,1,2,0,54,54,7,1,,,,,,,,,,,,,,,,,,,,,,,,,,,,,,,,,,,,,,,,,,,,,,,,,,,,,,,,,,,,,,,,,,,,,,
,,?,0.00039,0,,,,,,stimuli/images/PICTURE_509.png,MILLER,5a6adef80384310001944ba8,08/01/1954,2020-09-12_06h56.50.110,proactive3.2,2020.1.2,Win32,60,5f5adea66120081ea0f57a61,5f5c62f772bd1b23b601bf20,6,,,,,,telephone,,,,,,,,,,,5,2,0,55,55,49,1,,,,,,,,,,,,,,,,,,,,,,,,,,,,,,,,,,,,,,,,,,,,,,,,,,,,,,,,,,,,,,,,,,,,,,
,,?,0.00041,0,,,,,,stimuli/images/PICTURE_57.png,CASINO,5a6adef80384310001944ba8,08/01/1954,2020-09-12_06h56.50.110,proactive3.2,2020.1.2,Win32,60,5f5adea66120081ea0f57a61,5f5c62f772bd1b23b601bf20,6,,,,,,stamp,,,,,,,,,,,2,2,0,56,56,12,1,,,,,,,,,,,,,,,,,,,,,,,,,,,,,,,,,,,,,,,,,,,,,,,,,,,,,,,,,,,,,,,,,,,,,,
,,?,0.000365,0,,,,,,stimuli/images/PICTURE_348.png,TOILET,5a6adef80384310001944ba8,08/01/1954,2020-09-12_06h56.50.110,proactive3.2,2020.1.2,Win32,60,5f5adea66120081ea0f57a61,5f5c62f772bd1b23b601bf20,6,,,,,,pepper,,,,,,,,,,,1,2,0,57,57,4,1,,,,,,,,,,,,,,,,,,,,,,,,,,,,,,,,,,,,,,,,,,,,,,,,,,,,,,,,,,,,,,,,,,,,,,
,,?,0.000485,0,,,,,,stimuli/images/PICTURE_285.png,WRITER,5a6adef80384310001944ba8,08/01/1954,2020-09-12_06h56.50.110,proactive3.2,2020.1.2,Win32,60,5f5adea66120081ea0f57a61,5f5c62f772bd1b23b601bf20,6,,,,,,carrot,,,,,,,,,,,1,2,0,58,58,6,1,,,,,,,,,,,,,,,,,,,,,,,,,,,,,,,,,,,,,,,,,,,,,,,,,,,,,,,,,,,,,,,,,,,,,,
,,?,0.00036,0,,,,,,stimuli/images/PICTURE_57.png,NATION,5a6adef80384310001944ba8,08/01/1954,2020-09-12_06h56.50.110,proactive3.2,2020.1.2,Win32,60,5f5adea66120081ea0f57a61,5f5c62f772bd1b23b601bf20,6,,,,,,stamp,,,,,,,,,,,3,2,0,59,59,21,1,,,,,,,,,,,,,,,,,,,,,,,,,,,,,,,,,,,,,,,,,,,,,,,,,,,,,,,,,,,,,,,,,,,,,,
,,,,,,,,,,,,5a6adef80384310001944ba8,08/01/1954,2020-09-12_06h56.50.110,proactive3.2,2020.1.2,Win32,60,5f5adea66120081ea0f57a61,5f5c62f772bd1b23b601bf20,6,,,,,,,,,,,,,,,,,,,,,,,,0,0,0,2,1,stimuli/learn-block3.csv,,,,,,,,,,,,,,,,,,,,,,,,,,,,,,,,,,,,,,,,,,,,,,,,,,,,,,,,,,,,,,,,
,,,,,,,,,,stimuli/images/PICTURE_467.png,DEMON,5a6adef80384310001944ba8,08/01/1954,2020-09-12_06h56.50.110,proactive3.2,2020.1.2,Win32,60,5f5adea66120081ea0f57a61,5f5c62f772bd1b23b601bf20,6,,,,,,peg,,,,,,0,0,0,23,1,3,0,,,,,,,,,,,,,,,,,,,,,,,,,,,,,,,,,,,,,,,,,,,,,,,,,,,,,,,,,,,,,,,,,,,,,,,,,,,
,,,,,,,,,,stimuli/images/PICTURE_509.png,PHOTO,5a6adef80384310001944ba8,08/01/1954,2020-09-12_06h56.50.110,proactive3.2,2020.1.2,Win32,60,5f5adea66120081ea0f57a61,5f5c62f772bd1b23b601bf20,6,,,,,,telephone,,,,,,0,1,1,21,1,3,0,,,,,,,,,,,,,,,,,,,,,,,,,,,,,,,,,,,,,,,,,,,,,,,,,,,,,,,,,,,,,,,,,,,,,,,,,,,
,,,,,,,,,,stimuli/images/PICTURE_654.png,VALLEY,5a6adef80384310001944ba8,08/01/1954,2020-09-12_06h56.50.110,proactive3.2,2020.1.2,Win32,60,5f5adea66120081ea0f57a61,5f5c62f772bd1b23b601bf20,6,,,,,,pencil,,,,,,0,2,2,1,1,1,0,,,,,,,,,,,,,,,,,,,,,,,,,,,,,,,,,,,,,,,,,,,,,,,,,,,,,,,,,,,,,,,,,,,,,,,,,,,
,,,,,,,,,,stimuli/images/PICTURE_356.png,DANGER,5a6adef80384310001944ba8,08/01/1954,2020-09-12_06h56.50.110,proactive3.2,2020.1.2,Win32,60,5f5adea66120081ea0f57a61,5f5c62f772bd1b23b601bf20,6,,,,,,pawn,,,,,,0,3,3,55,1,6,0,,,,,,,,,,,,,,,,,,,,,,,,,,,,,,,,,,,,,,,,,,,,,,,,,,,,,,,,,,,,,,,,,,,,,,,,,,,
,,,,,,,,,,stimuli/images/PICTURE_688.png,CASINO,5a6adef80384310001944ba8,08/01/1954,2020-09-12_06h56.50.110,proactive3.2,2020.1.2,Win32,60,5f5adea66120081ea0f57a61,5f5c62f772bd1b23b601bf20,6,,,,,,runner,,,,,,0,4,4,2,1,1,0,,,,,,,,,,,,,,,,,,,,,,,,,,,,,,,,,,,,,,,,,,,,,,,,,,,,,,,,,,,,,,,,,,,,,,,,,,,
,,,,,,,,,,stimuli/images/PICTURE_314.png,GODS,5a6adef80384310001944ba8,08/01/1954,2020-09-12_06h56.50.110,proactive3.2,2020.1.2,Win32,60,5f5adea66120081ea0f57a61,5f5c62f772bd1b23b601bf20,6,,,,,,perfume,,,,,,0,5,5,11,1,2,0,,,,,,,,,,,,,,,,,,,,,,,,,,,,,,,,,,,,,,,,,,,,,,,,,,,,,,,,,,,,,,,,,,,,,,,,,,,
,,,,,,,,,,stimuli/images/PICTURE_469.png,ARTIST,5a6adef80384310001944ba8,08/01/1954,2020-09-12_06h56.50.110,proactive3.2,2020.1.2,Win32,60,5f5adea66120081ea0f57a61,5f5c62f772bd1b23b601bf20,6,,,,,,stool,,,,,,0,6,6,6,1,1,0,,,,,,,,,,,,,,,,,,,,,,,,,,,,,,,,,,,,,,,,,,,,,,,,,,,,,,,,,,,,,,,,,,,,,,,,,,,
,,,,,,,,,,stimuli/images/PICTURE_123.png,ADVICE,5a6adef80384310001944ba8,08/01/1954,2020-09-12_06h56.50.110,proactive3.2,2020.1.2,Win32,60,5f5adea66120081ea0f57a61,5f5c62f772bd1b23b601bf20,6,,,,,,dart,,,,,,0,7,7,50,1,6,0,,,,,,,,,,,,,,,,,,,,,,,,,,,,,,,,,,,,,,,,,,,,,,,,,,,,,,,,,,,,,,,,,,,,,,,,,,,
,,,,,,,,,,stimuli/images/PICTURE_469.png,LETTER,5a6adef80384310001944ba8,08/01/1954,2020-09-12_06h56.50.110,proactive3.2,2020.1.2,Win32,60,5f5adea66120081ea0f57a61,5f5c62f772bd1b23b601bf20,6,,,,,,stool,,,,,,0,8,8,42,1,5,0,,,,,,,,,,,,,,,,,,,,,,,,,,,,,,,,,,,,,,,,,,,,,,,,,,,,,,,,,,,,,,,,,,,,,,,,,,,
,,,,,,,,,,stimuli/images/PICTURE_487.png,FLIGHT,5a6adef80384310001944ba8,08/01/1954,2020-09-12_06h56.50.110,proactive3.2,2020.1.2,Win32,60,5f5adea66120081ea0f57a61,5f5c62f772bd1b23b601bf20,6,,,,,,basket,,,,,,0,9,9,9,1,1,0,,,,,,,,,,,,,,,,,,,,,,,,,,,,,,,,,,,,,,,,,,,,,,,,,,,,,,,,,,,,,,,,,,,,,,,,,,,
,,,,,,,,,,stimuli/images/PICTURE_488.png,STYLE,5a6adef80384310001944ba8,08/01/1954,2020-09-12_06h56.50.110,proactive3.2,2020.1.2,Win32,60,5f5adea66120081ea0f57a61,5f5c62f772bd1b23b601bf20,6,,,,,,sun,,,,,,0,10,10,33,1,4,0,,,,,,,,,,,,,,,,,,,,,,,,,,,,,,,,,,,,,,,,,,,,,,,,,,,,,,,,,,,,,,,,,,,,,,,,,,,
,,,,,,,,,,stimuli/images/PICTURE_677.png,MILE,5a6adef80384310001944ba8,08/01/1954,2020-09-12_06h56.50.110,proactive3.2,2020.1.2,Win32,60,5f5adea66120081ea0f57a61,5f5c62f772bd1b23b601bf20,6,,,,,,map,,,,,,0,11,11,30,1,4,0,,,,,,,,,,,,,,,,,,,,,,,,,,,,,,,,,,,,,,,,,,,,,,,,,,,,,,,,,,,,,,,,,,,,,,,,,,,
,,,,,,,,,,stimuli/images/PICTURE_491.png,WRITER,5a6adef80384310001944ba8,08/01/1954,2020-09-12_06h56.50.110,proactive3.2,2020.1.2,Win32,60,5f5adea66120081ea0f57a61,5f5c62f772bd1b23b601bf20,6,,,,,,rug,,,,,,0,12,12,57,1,6,0,,,,,,,,,,,,,,,,,,,,,,,,,,,,,,,,,,,,,,,,,,,,,,,,,,,,,,,,,,,,,,,,,,,,,,,,,,,
,,,,,,,,,,stimuli/images/PICTURE_314.png,SAKE,5a6adef80384310001944ba8,08/01/1954,2020-09-12_06h56.50.110,proactive3.2,2020.1.2,Win32,60,5f5adea66120081ea0f57a61,5f5c62f772bd1b23b601bf20,6,,,,,,perfume,,,,,,0,13,13,7,1,1,0,,,,,,,,,,,,,,,,,,,,,,,,,,,,,,,,,,,,,,,,,,,,,,,,,,,,,,,,,,,,,,,,,,,,,,,,,,,
,,,,,,,,,,stimuli/images/PICTURE_95.png,STYLE,5a6adef80384310001944ba8,08/01/1954,2020-09-12_06h56.50.110,proactive3.2,2020.1.2,Win32,60,5f5adea66120081ea0f57a61,5f5c62f772bd1b23b601bf20,6,,,,,,suitcase,,,,,,0,14,14,25,1,3,0,,,,,,,,,,,,,,,,,,,,,,,,,,,,,,,,,,,,,,,,,,,,,,,,,,,,,,,,,,,,,,,,,,,,,,,,,,,
,,,,,,,,,,stimuli/images/PICTURE_68.png,MILE,5a6adef80384310001944ba8,08/01/1954,2020-09-12_06h56.50.110,proactive3.2,2020.1.2,Win32,60,5f5adea66120081ea0f57a61,5f5c62f772bd1b23b601bf20,6,,,,,,candle,,,,,,0,15,15,44,1,5,0,,,,,,,,,,,,,,,,,,,,,,,,,,,,,,,,,,,,,,,,,,,,,,,,,,,,,,,,,,,,,,,,,,,,,,,,,,,
,,,,,,,,,,stimuli/images/PICTURE_208.png,THING,5a6adef80384310001944ba8,08/01/1954,2020-09-12_06h56.50.110,proactive3.2,2020.1.2,Win32,60,5f5adea66120081ea0f57a61,5f5c62f772bd1b23b601bf20,6,,,,,,microphone,,,,,,0,16,16,47,1,5,0,,,,,,,,,,,,,,,,,,,,,,,,,,,,,,,,,,,,,,,,,,,,,,,,,,,,,,,,,,,,,,,,,,,,,,,,,,,
,,,,,,,,,,stimuli/images/PICTURE_675.png,WEAPON,5a6adef80384310001944ba8,08/01/1954,2020-09-12_06h56.50.110,proactive3.2,2020.1.2,Win32,60,5f5adea66120081ea0f57a61,5f5c62f772bd1b23b601bf20,6,,,,,,windmill,,,,,,0,17,17,32,1,4,0,,,,,,,,,,,,,,,,,,,,,,,,,,,,,,,,,,,,,,,,,,,,,,,,,,,,,,,,,,,,,,,,,,,,,,,,,,,
,,,,,,,,,,stimuli/images/PICTURE_248.png,DOZEN,5a6adef80384310001944ba8,08/01/1954,2020-09-12_06h56.50.110,proactive3.2,2020.1.2,Win32,60,5f5adea66120081ea0f57a61,5f5c62f772bd1b23b601bf20,6,,,,,,cart,,,,,,0,18,18,39,1,4,0,,,,,,,,,,,,,,,,,,,,,,,,,,,,,,,,,,,,,,,,,,,,,,,,,,,,,,,,,,,,,,,,,,,,,,,,,,,
,,,,,,,,,,stimuli/images/PICTURE_308.png,ESTATE,5a6adef80384310001944ba8,08/01/1954,2020-09-12_06h56.50.110,proactive3.2,2020.1.2,Win32,60,5f5adea66120081ea0f57a61,5f5c62f772bd1b23b601bf20,6,,,,,,dice,,,,,,0,19,19,46,1,5,0,,,,,,,,,,,,,,,,,,,,,,,,,,,,,,,,,,,,,,,,,,,,,,,,,,,,,,,,,,,,,,,,,,,,,,,,,,,
,,,,,,,,,,stimuli/images/PICTURE_160.png,FEET,5a6adef80384310001944ba8,08/01/1954,2020-09-12_06h56.50.110,proactive3.2,2020.1.2,Win32,60,5f5adea66120081ea0f57a61,5f5c62f772bd1b23b601bf20,6,,,,,,wheelbarrow,,,,,,0,20,20,58,1,6,0,,,,,,,,,,,,,,,,,,,,,,,,,,,,,,,,,,,,,,,,,,,,,,,,,,,,,,,,,,,,,,,,,,,,,,,,,,,
,,,,,,,,,,stimuli/images/PICTURE_708.png,PENNY,5a6adef80384310001944ba8,08/01/1954,2020-09-12_06h56.50.110,proactive3.2,2020.1.2,Win32,60,5f5adea66120081ea0f57a61,5f5c62f772bd1b23b601bf20,6,,,,,,monkey,,,,,,0,21,21,31,1,4,0,,,,,,,,,,,,,,,,,,,,,,,,,,,,,,,,,,,,,,,,,,,,,,,,,,,,,,,,,,,,,,,,,,,,,,,,,,,
,,,,,,,,,,stimuli/images/PICTURE_692.png,MONTH,5a6adef80384310001944ba8,08/01/1954,2020-09-12_06h56.50.110,proactive3.2,2020.1.2,Win32,60,5f5adea66120081ea0f57a61,5f5c62f772bd1b23b601bf20,6,,,,,,cherry,,,,,,0,22,22,16,1,2,0,,,,,,,,,,,,,,,,,,,,,,,,,,,,,,,,,,,,,,,,,,,,,,,,,,,,,,,,,,,,,,,,,,,,,,,,,,,
,,,,,,,,,,stimuli/images/PICTURE_708.png,CLIENT,5a6adef80384310001944ba8,08/01/1954,2020-09-12_06h56.50.110,proactive3.2,2020.1.2,Win32,60,5f5adea66120081ea0f57a61,5f5c62f772bd1b23b601bf20,6,,,,,,monkey,,,,,,0,23,23,5,1,1,0,,,,,,,,,,,,,,,,,,,,,,,,,,,,,,,,,,,,,,,,,,,,,,,,,,,,,,,,,,,,,,,,,,,,,,,,,,,
,,,,,,,,,,stimuli/images/PICTURE_308.png,KIND,5a6adef80384310001944ba8,08/01/1954,2020-09-12_06h56.50.110,proactive3.2,2020.1.2,Win32,60,5f5adea66120081ea0f57a61,5f5c62f772bd1b23b601bf20,6,,,,,,dice,,,,,,0,24,24,54,1,6,0,,,,,,,,,,,,,,,,,,,,,,,,,,,,,,,,,,,,,,,,,,,,,,,,,,,,,,,,,,,,,,,,,,,,,,,,,,,
,,,,,,,,,,stimuli/images/PICTURE_123.png,ADVICE,5a6adef80384310001944ba8,08/01/1954,2020-09-12_06h56.50.110,proactive3.2,2020.1.2,Win32,60,5f5adea66120081ea0f57a61,5f5c62f772bd1b23b601bf20,6,,,,,,dart,,,,,,0,25,25,40,1,5,0,,,,,,,,,,,,,,,,,,,,,,,,,,,,,,,,,,,,,,,,,,,,,,,,,,,,,,,,,,,,,,,,,,,,,,,,,,,
,,,,,,,,,,stimuli/images/PICTURE_255.png,AREA,5a6adef80384310001944ba8,08/01/1954,2020-09-12_06h56.50.110,proactive3.2,2020.1.2,Win32,60,5f5adea66120081ea0f57a61,5f5c62f772bd1b23b601bf20,6,,,,,,shovel,,,,,,0,26,26,22,1,3,0,,,,,,,,,,,,,,,,,,,,,,,,,,,,,,,,,,,,,,,,,,,,,,,,,,,,,,,,,,,,,,,,,,,,,,,,,,,
,,,,,,,,,,stimuli/images/PICTURE_302.png,FAMILY,5a6adef80384310001944ba8,08/01/1954,2020-09-12_06h56.50.110,proactive3.2,2020.1.2,Win32,60,5f5adea66120081ea0f57a61,5f5c62f772bd1b23b601bf20,6,,,,,,taxi,,,,,,0,27,27,18,1,2,0,,,,,,,,,,,,,,,,,,,,,,,,,,,,,,,,,,,,,,,,,,,,,,,,,,,,,,,,,,,,,,,,,,,,,,,,,,,
,,,,,,,,,,stimuli/images/PICTURE_215.png,PLENTY,5a6adef80384310001944ba8,08/01/1954,2020-09-12_06h56.50.110,proactive3.2,2020.1.2,Win32,60,5f5adea66120081ea0f57a61,5f5c62f772bd1b23b601bf20,6,,,,,,boot,,,,,,0,28,28,37,1,4,0,,,,,,,,,,,,,,,,,,,,,,,,,,,,,,,,,,,,,,,,,,,,,,,,,,,,,,,,,,,,,,,,,,,,,,,,,,,
,,,,,,,,,,stimuli/images/PICTURE_504.png,BODY,5a6adef80384310001944ba8,08/01/1954,2020-09-12_06h56.50.110,proactive3.2,2020.1.2,Win32,60,5f5adea66120081ea0f57a61,5f5c62f772bd1b23b601bf20,6,,,,,,wheel,,,,,,0,29,29,8,1,1,0,,,,,,,,,,,,,,,,,,,,,,,,,,,,,,,,,,,,,,,,,,,,,,,,,,,,,,,,,,,,,,,,,,,,,,,,,,,
,,,,,,,,,,stimuli/images/PICTURE_233.png,IDEAS,5a6adef80384310001944ba8,08/01/1954,2020-09-12_06h56.50.110,proactive3.2,2020.1.2,Win32,60,5f5adea66120081ea0f57a61,5f5c62f772bd1b23b601bf20,6,,,,,,salt,,,,,,0,30,30,28,1,3,0,,,,,,,,,,,,,,,,,,,,,,,,,,,,,,,,,,,,,,,,,,,,,,,,,,,,,,,,,,,,,,,,,,,,,,,,,,,
,,,,,,,,,,stimuli/images/PICTURE_708.png,YARD,5a6adef80384310001944ba8,08/01/1954,2020-09-12_06h56.50.110,proactive3.2,2020.1.2,Win32,60,5f5adea66120081ea0f57a61,5f5c62f772bd1b23b601bf20,6,,,,,,monkey,,,,,,0,31,31,29,1,3,0,,,,,,,,,,,,,,,,,,,,,,,,,,,,,,,,,,,,,,,,,,,,,,,,,,,,,,,,,,,,,,,,,,,,,,,,,,,
,,,,,,,,,,stimuli/images/PICTURE_744.png,SYSTEM,5a6adef80384310001944ba8,08/01/1954,2020-09-12_06h56.50.110,proactive3.2,2020.1.2,Win32,60,5f5adea66120081ea0f57a61,5f5c62f772bd1b23b601bf20,6,,,,,,ring,,,,,,0,32,32,43,1,5,0,,,,,,,,,,,,,,,,,,,,,,,,,,,,,,,,,,,,,,,,,,,,,,,,,,,,,,,,,,,,,,,,,,,,,,,,,,,
,,,,,,,,,,stimuli/images/PICTURE_348.png,SPEECH,5a6adef80384310001944ba8,08/01/1954,2020-09-12_06h56.50.110,proactive3.2,2020.1.2,Win32,60,5f5adea66120081ea0f57a61,5f5c62f772bd1b23b601bf20,6,,,,,,pepper,,,,,,0,33,33,20,1,3,0,,,,,,,,,,,,,,,,,,,,,,,,,,,,,,,,,,,,,,,,,,,,,,,,,,,,,,,,,,,,,,,,,,,,,,,,,,,
,,,,,,,,,,stimuli/images/PICTURE_339.png,PLENTY,5a6adef80384310001944ba8,08/01/1954,2020-09-12_06h56.50.110,proactive3.2,2020.1.2,Win32,60,5f5adea66120081ea0f57a61,5f5c62f772bd1b23b601bf20,6,,,,,,backpack,,,,,,0,34,34,0,1,1,0,,,,,,,,,,,,,,,,,,,,,,,,,,,,,,,,,,,,,,,,,,,,,,,,,,,,,,,,,,,,,,,,,,,,,,,,,,,
,,,,,,,,,,stimuli/images/PICTURE_203.png,ARTIST,5a6adef80384310001944ba8,08/01/1954,2020-09-12_06h56.50.110,proactive3.2,2020.1.2,Win32,60,5f5adea66120081ea0f57a61,5f5c62f772bd1b23b601bf20,6,,,,,,cap,,,,,,0,35,35,26,1,3,0,,,,,,,,,,,,,,,,,,,,,,,,,,,,,,,,,,,,,,,,,,,,,,,,,,,,,,,,,,,,,,,,,,,,,,,,,,,
,,,,,,,,,,stimuli/images/PICTURE_208.png,MONTH,5a6adef80384310001944ba8,08/01/1954,2020-09-12_06h56.50.110,proactive3.2,2020.1.2,Win32,60,5f5adea66120081ea0f57a61,5f5c62f772bd1b23b601bf20,6,,,,,,microphone,,,,,,0,36,36,53,1,6,0,,,,,,,,,,,,,,,,,,,,,,,,,,,,,,,,,,,,,,,,,,,,,,,,,,,,,,,,,,,,,,,,,,,,,,,,,,,
,,,,,,,,,,stimuli/images/PICTURE_667.png,BATH,5a6adef80384310001944ba8,08/01/1954,2020-09-12_06h56.50.110,proactive3.2,2020.1.2,Win32,60,5f5adea66120081ea0f57a61,5f5c62f772bd1b23b601bf20,6,,,,,,daisy,,,,,,0,37,37,4,1,1,0,,,,,,,,,,,,,,,,,,,,,,,,,,,,,,,,,,,,,,,,,,,,,,,,,,,,,,,,,,,,,,,,,,,,,,,,,,,
,,,,,,,,,,stimuli/images/PICTURE_327.png,BEAUTY,5a6adef80384310001944ba8,08/01/1954,2020-09-12_06h56.50.110,proactive3.2,2020.1.2,Win32,60,5f5adea66120081ea0f57a61,5f5c62f772bd1b23b601bf20,6,,,,,,helmet,,,,,,0,38,38,48,1,5,0,,,,,,,,,,,,,,,,,,,,,,,,,,,,,,,,,,,,,,,,,,,,,,,,,,,,,,,,,,,,,,,,,,,,,,,,,,,
,,,,,,,,,,stimuli/images/PICTURE_85.png,THING,5a6adef80384310001944ba8,08/01/1954,2020-09-12_06h56.50.110,proactive3.2,2020.1.2,Win32,60,5f5adea66120081ea0f57a61,5f5c62f772bd1b23b601bf20,6,,,,,,diamond,,,,,,0,39,39,15,1,2,0,,,,,,,,,,,,,,,,,,,,,,,,,,,,,,,,,,,,,,,,,,,,,,,,,,,,,,,,,,,,,,,,,,,,,,,,,,,
,,,,,,,,,,stimuli/images/PICTURE_160.png,LEADER,5a6adef80384310001944ba8,08/01/1954,2020-09-12_06h56.50.110,proactive3.2,2020.1.2,Win32,60,5f5adea66120081ea0f57a61,5f5c62f772bd1b23b601bf20,6,,,,,,wheelbarrow,,,,,,0,40,40,3,1,1,0,,,,,,,,,,,,,,,,,,,,,,,,,,,,,,,,,,,,,,,,,,,,,,,,,,,,,,,,,,,,,,,,,,,,,,,,,,,
,,,,,,,,,,stimuli/images/PICTURE_453.png,DUDE,5a6adef80384310001944ba8,08/01/1954,2020-09-12_06h56.50.110,proactive3.2,2020.1.2,Win32,60,5f5adea66120081ea0f57a61,5f5c62f772bd1b23b601bf20,6,,,,,,scissors,,,,,,0,41,41,27,1,3,0,,,,,,,,,,,,,,,,,,,,,,,,,,,,,,,,,,,,,,,,,,,,,,,,,,,,,,,,,,,,,,,,,,,,,,,,,,,
,,,,,,,,,,stimuli/images/PICTURE_667.png,PLENTY,5a6adef80384310001944ba8,08/01/1954,2020-09-12_06h56.50.110,proactive3.2,2020.1.2,Win32,60,5f5adea66120081ea0f57a61,5f5c62f772bd1b23b601bf20,6,,,,,,daisy,,,,,,0,42,42,41,1,5,0,,,,,,,,,,,,,,,,,,,,,,,,,,,,,,,,,,,,,,,,,,,,,,,,,,,,,,,,,,,,,,,,,,,,,,,,,,,
,,,,,,,,,,stimuli/images/PICTURE_744.png,SAKE,5a6adef80384310001944ba8,08/01/1954,2020-09-12_06h56.50.110,proactive3.2,2020.1.2,Win32,60,5f5adea66120081ea0f57a61,5f5c62f772bd1b23b601bf20,6,,,,,,ring,,,,,,0,43,43,17,1,2,0,,,,,,,,,,,,,,,,,,,,,,,,,,,,,,,,,,,,,,,,,,,,,,,,,,,,,,,,,,,,,,,,,,,,,,,,,,,
,,,,,,,,,,stimuli/images/PICTURE_147.png,MOMENT,5a6adef80384310001944ba8,08/01/1954,2020-09-12_06h56.50.110,proactive3.2,2020.1.2,Win32,60,5f5adea66120081ea0f57a61,5f5c62f772bd1b23b601bf20,6,,,,,,hanger,,,,,,0,44,44,51,1,6,0,,,,,,,,,,,,,,,,,,,,,,,,,,,,,,,,,,,,,,,,,,,,,,,,,,,,,,,,,,,,,,,,,,,,,,,,,,,
,,,,,,,,,,stimuli/images/PICTURE_380.png,DEATH,5a6adef80384310001944ba8,08/01/1954,2020-09-12_06h56.50.110,proactive3.2,2020.1.2,Win32,60,5f5adea66120081ea0f57a61,5f5c62f772bd1b23b601bf20,6,,,,,,gorilla,,,,,,0,45,45,49,1,5,0,,,,,,,,,,,,,,,,,,,,,,,,,,,,,,,,,,,,,,,,,,,,,,,,,,,,,,,,,,,,,,,,,,,,,,,,,,,
,,,,,,,,,,stimuli/images/PICTURE_688.png,WOMEN,5a6adef80384310001944ba8,08/01/1954,2020-09-12_06h56.50.110,proactive3.2,2020.1.2,Win32,60,5f5adea66120081ea0f57a61,5f5c62f772bd1b23b601bf20,6,,,,,,runner,,,,,,0,46,46,14,1,2,0,,,,,,,,,,,,,,,,,,,,,,,,,,,,,,,,,,,,,,,,,,,,,,,,,,,,,,,,,,,,,,,,,,,,,,,,,,,
,,,,,,,,,,stimuli/images/PICTURE_449.png,THING,5a6adef80384310001944ba8,08/01/1954,2020-09-12_06h56.50.110,proactive3.2,2020.1.2,Win32,60,5f5adea66120081ea0f57a61,5f5c62f772bd1b23b601bf20,6,,,,,,bench,,,,,,0,47,47,59,1,6,0,,,,,,,,,,,,,,,,,,,,,,,,,,,,,,,,,,,,,,,,,,,,,,,,,,,,,,,,,,,,,,,,,,,,,,,,,,,
,,,,,,,,,,stimuli/images/PICTURE_453.png,PLENTY,5a6adef80384310001944ba8,08/01/1954,2020-09-12_06h56.50.110,proactive3.2,2020.1.2,Win32,60,5f5adea66120081ea0f57a61,5f5c62f772bd1b23b601bf20,6,,,,,,scissors,,,,,,0,48,48,56,1,6,0,,,,,,,,,,,,,,,,,,,,,,,,,,,,,,,,,,,,,,,,,,,,,,,,,,,,,,,,,,,,,,,,,,,,,,,,,,,
,,,,,,,,,,stimuli/images/PICTURE_177.png,CARS,5a6adef80384310001944ba8,08/01/1954,2020-09-12_06h56.50.110,proactive3.2,2020.1.2,Win32,60,5f5adea66120081ea0f57a61,5f5c62f772bd1b23b601bf20,6,,,,,,mushroom,,,,,,0,49,49,35,1,4,0,,,,,,,,,,,,,,,,,,,,,,,,,,,,,,,,,,,,,,,,,,,,,,,,,,,,,,,,,,,,,,,,,,,,,,,,,,,
,,,,,,,,,,stimuli/images/PICTURE_470.png,CASINO,5a6adef80384310001944ba8,08/01/1954,2020-09-12_06h56.50.110,proactive3.2,2020.1.2,Win32,60,5f5adea66120081ea0f57a61,5f5c62f772bd1b23b601bf20,6,,,,,,motorbike,,,,,,0,50,50,36,1,4,0,,,,,,,,,,,,,,,,,,,,,,,,,,,,,,,,,,,,,,,,,,,,,,,,,,,,,,,,,,,,,,,,,,,,,,,,,,,
,,,,,,,,,,stimuli/images/PICTURE_208.png,LOTS,5a6adef80384310001944ba8,08/01/1954,2020-09-12_06h56.50.110,proactive3.2,2020.1.2,Win32,60,5f5adea66120081ea0f57a61,5f5c62f772bd1b23b601bf20,6,,,,,,microphone,,,,,,0,51,51,10,1,2,0,,,,,,,,,,,,,,,,,,,,,,,,,,,,,,,,,,,,,,,,,,,,,,,,,,,,,,,,,,,,,,,,,,,,,,,,,,,
,,,,,,,,,,stimuli/images/PICTURE_285.png,ADVICE,5a6adef80384310001944ba8,08/01/1954,2020-09-12_06h56.50.110,proactive3.2,2020.1.2,Win32,60,5f5adea66120081ea0f57a61,5f5c62f772bd1b23b601bf20,6,,,,,,carrot,,,,,,0,52,52,12,1,2,0,,,,,,,,,,,,,,,,,,,,,,,,,,,,,,,,,,,,,,,,,,,,,,,,,,,,,,,,,,,,,,,,,,,,,,,,,,,
,,,,,,,,,,stimuli/images/PICTURE_491.png,ROOF,5a6adef80384310001944ba8,08/01/1954,2020-09-12_06h56.50.110,proactive3.2,2020.1.2,Win32,60,5f5adea66120081ea0f57a61,5f5c62f772bd1b23b601bf20,6,,,,,,rug,,,,,,0,53,53,24,1,3,0,,,,,,,,,,,,,,,,,,,,,,,,,,,,,,,,,,,,,,,,,,,,,,,,,,,,,,,,,,,,,,,,,,,,,,,,,,,
,,,,,,,,,,stimuli/images/PICTURE_32.png,JUNGLE,5a6adef80384310001944ba8,08/01/1954,2020-09-12_06h56.50.110,proactive3.2,2020.1.2,Win32,60,5f5adea66120081ea0f57a61,5f5c62f772bd1b23b601bf20,6,,,,,,crown,,,,,,0,54,54,45,1,5,0,,,,,,,,,,,,,,,,,,,,,,,,,,,,,,,,,,,,,,,,,,,,,,,,,,,,,,,,,,,,,,,,,,,,,,,,,,,
,,,,,,,,,,stimuli/images/PICTURE_380.png,PHOTO,5a6adef80384310001944ba8,08/01/1954,2020-09-12_06h56.50.110,proactive3.2,2020.1.2,Win32,60,5f5adea66120081ea0f57a61,5f5c62f772bd1b23b601bf20,6,,,,,,gorilla,,,,,,0,55,55,52,1,6,0,,,,,,,,,,,,,,,,,,,,,,,,,,,,,,,,,,,,,,,,,,,,,,,,,,,,,,,,,,,,,,,,,,,,,,,,,,,
,,,,,,,,,,stimuli/images/PICTURE_151.png,GIRL,5a6adef80384310001944ba8,08/01/1954,2020-09-12_06h56.50.110,proactive3.2,2020.1.2,Win32,60,5f5adea66120081ea0f57a61,5f5c62f772bd1b23b601bf20,6,,,,,,tray,,,,,,0,56,56,19,1,2,0,,,,,,,,,,,,,,,,,,,,,,,,,,,,,,,,,,,,,,,,,,,,,,,,,,,,,,,,,,,,,,,,,,,,,,,,,,,
,,,,,,,,,,stimuli/images/PICTURE_311.png,FRIEND,5a6adef80384310001944ba8,08/01/1954,2020-09-12_06h56.50.110,proactive3.2,2020.1.2,Win32,60,5f5adea66120081ea0f57a61,5f5c62f772bd1b23b601bf20,6,,,,,,razor,,,,,,0,57,57,34,1,4,0,,,,,,,,,,,,,,,,,,,,,,,,,,,,,,,,,,,,,,,,,,,,,,,,,,,,,,,,,,,,,,,,,,,,,,,,,,,
,,,,,,,,,,stimuli/images/PICTURE_311.png,BEAUTY,5a6adef80384310001944ba8,08/01/1954,2020-09-12_06h56.50.110,proactive3.2,2020.1.2,Win32,60,5f5adea66120081ea0f57a61,5f5c62f772bd1b23b601bf20,6,,,,,,razor,,,,,,0,58,58,13,1,2,0,,,,,,,,,,,,,,,,,,,,,,,,,,,,,,,,,,,,,,,,,,,,,,,,,,,,,,,,,,,,,,,,,,,,,,,,,,,
,,?,0.00088,0,,,,,,stimuli/images/PICTURE_203.png,ARTIST,5a6adef80384310001944ba8,08/01/1954,2020-09-12_06h56.50.110,proactive3.2,2020.1.2,Win32,60,5f5adea66120081ea0f57a61,5f5c62f772bd1b23b601bf20,6,,,,,,cap,,,,,,,,,,,3,0,0,0,0,26,1,,,,,,,,,,,,,,,,,,,,,,,,,,,,,,,,,,,,,,,,,,,,,,,,,,,,,,,,,,,,,,,,,,,,,,
,,?,0.000795,0,,,,,,stimuli/images/PICTURE_32.png,JUNGLE,5a6adef80384310001944ba8,08/01/1954,2020-09-12_06h56.50.110,proactive3.2,2020.1.2,Win32,60,5f5adea66120081ea0f57a61,5f5c62f772bd1b23b601bf20,6,,,,,,crown,,,,,,,,,,,5,0,0,1,1,45,1,,,,,,,,,,,,,,,,,,,,,,,,,,,,,,,,,,,,,,,,,,,,,,,,,,,,,,,,,,,,,,,,,,,,,,
,,?,1.53626,0,,,,,,stimuli/images/PICTURE_453.png,PLENTY,5a6adef80384310001944ba8,08/01/1954,2020-09-12_06h56.50.110,proactive3.2,2020.1.2,Win32,60,5f5adea66120081ea0f57a61,5f5c62f772bd1b23b601bf20,6,,,,,,scissors,,,,,,,,,,,6,0,0,2,2,56,1,,,,,,,,,,,,,,,,,,,,,,,,,,,,,,,,,,,,,,,,,,,,,,,,,,,,,,,,,,,,,,,,,,,,,,
,,?,0.00084,0,,,,,,stimuli/images/PICTURE_314.png,GODS,5a6adef80384310001944ba8,08/01/1954,2020-09-12_06h56.50.110,proactive3.2,2020.1.2,Win32,60,5f5adea66120081ea0f57a61,5f5c62f772bd1b23b601bf20,6,,,,,,perfume,,,,,,,,,,,2,0,0,3,3,11,1,,,,,,,,,,,,,,,,,,,,,,,,,,,,,,,,,,,,,,,,,,,,,,,,,,,,,,,,,,,,,,,,,,,,,,
,,PHOTO,6.54678,1,,,,,,stimuli/images/PICTURE_380.png,PHOTO,5a6adef80384310001944ba8,08/01/1954,2020-09-12_06h56.50.110,proactive3.2,2020.1.2,Win32,60,5f5adea66120081ea0f57a61,5f5c62f772bd1b23b601bf20,6,,,,,,gorilla,,,,,,,,,,,6,0,0,4,4,52,1,,,,,,,,,,,,,,,,,,,,,,,,,,,,,,,,,,,,,,,,,,,,,,,,,,,,,,,,,,,,,,,,,,,,,,
,,?,0.00086,0,,,,,,stimuli/images/PICTURE_177.png,CARS,5a6adef80384310001944ba8,08/01/1954,2020-09-12_06h56.50.110,proactive3.2,2020.1.2,Win32,60,5f5adea66120081ea0f57a61,5f5c62f772bd1b23b601bf20,6,,,,,,mushroom,,,,,,,,,,,4,0,0,5,5,35,1,,,,,,,,,,,,,,,,,,,,,,,,,,,,,,,,,,,,,,,,,,,,,,,,,,,,,,,,,,,,,,,,,,,,,,
,,?,0.000675,0,,,,,,stimuli/images/PICTURE_469.png,ARTIST,5a6adef80384310001944ba8,08/01/1954,2020-09-12_06h56.50.110,proactive3.2,2020.1.2,Win32,60,5f5adea66120081ea0f57a61,5f5c62f772bd1b23b601bf20,6,,,,,,stool,,,,,,,,,,,1,0,0,6,6,6,1,,,,,,,,,,,,,,,,,,,,,,,,,,,,,,,,,,,,,,,,,,,,,,,,,,,,,,,,,,,,,,,,,,,,,,
,,?,0.00073,0,,,,,,stimuli/images/PICTURE_68.png,MILE,5a6adef80384310001944ba8,08/01/1954,2020-09-12_06h56.50.110,proactive3.2,2020.1.2,Win32,60,5f5adea66120081ea0f57a61,5f5c62f772bd1b23b601bf20,6,,,,,,candle,,,,,,,,,,,5,0,0,7,7,44,1,,,,,,,,,,,,,,,,,,,,,,,,,,,,,,,,,,,,,,,,,,,,,,,,,,,,,,,,,,,,,,,,,,,,,,
,,?,0.000725,0,,,,,,stimuli/images/PICTURE_160.png,LEADER,5a6adef80384310001944ba8,08/01/1954,2020-09-12_06h56.50.110,proactive3.2,2020.1.2,Win32,60,5f5adea66120081ea0f57a61,5f5c62f772bd1b23b601bf20,6,,,,,,wheelbarrow,,,,,,,,,,,1,0,0,8,8,3,1,,,,,,,,,,,,,,,,,,,,,,,,,,,,,,,,,,,,,,,,,,,,,,,,,,,,,,,,,,,,,,,,,,,,,,
,,?,0.000675,0,,,,,,stimuli/images/PICTURE_311.png,FRIEND,5a6adef80384310001944ba8,08/01/1954,2020-09-12_06h56.50.110,proactive3.2,2020.1.2,Win32,60,5f5adea66120081ea0f57a61,5f5c62f772bd1b23b601bf20,6,,,,,,razor,,,,,,,,,,,4,0,0,9,9,34,1,,,,,,,,,,,,,,,,,,,,,,,,,,,,,,,,,,,,,,,,,,,,,,,,,,,,,,,,,,,,,,,,,,,,,,
,,?,2.307025,0,,,,,,stimuli/images/PICTURE_123.png,ADVICE,5a6adef80384310001944ba8,08/01/1954,2020-09-12_06h56.50.110,proactive3.2,2020.1.2,Win32,60,5f5adea66120081ea0f57a61,5f5c62f772bd1b23b601bf20,6,,,,,,dart,,,,,,,,,,,6,0,0,10,10,50,1,,,,,,,,,,,,,,,,,,,,,,,,,,,,,,,,,,,,,,,,,,,,,,,,,,,,,,,,,,,,,,,,,,,,,,
,,?,0.000965,0,,,,,,stimuli/images/PICTURE_488.png,STYLE,5a6adef80384310001944ba8,08/01/1954,2020-09-12_06h56.50.110,proactive3.2,2020.1.2,Win32,60,5f5adea66120081ea0f57a61,5f5c62f772bd1b23b601bf20,6,,,,,,sun,,,,,,,,,,,4,0,0,11,11,33,1,,,,,,,,,,,,,,,,,,,,,,,,,,,,,,,,,,,,,,,,,,,,,,,,,,,,,,,,,,,,,,,,,,,,,,
,,?,0.00072,0,,,,,,stimuli/images/PICTURE_233.png,IDEAS,5a6adef80384310001944ba8,08/01/1954,2020-09-12_06h56.50.110,proactive3.2,2020.1.2,Win32,60,5f5adea66120081ea0f57a61,5f5c62f772bd1b23b601bf20,6,,,,,,salt,,,,,,,,,,,3,0,0,12,12,28,1,,,,,,,,,,,,,,,,,,,,,,,,,,,,,,,,,,,,,,,,,,,,,,,,,,,,,,,,,,,,,,,,,,,,,,
,,?,0.00061,0,,,,,,stimuli/images/PICTURE_469.png,LETTER,5a6adef80384310001944ba8,08/01/1954,2020-09-12_06h56.50.110,proactive3.2,2020.1.2,Win32,60,5f5adea66120081ea0f57a61,5f5c62f772bd1b23b601bf20,6,,,,,,stool,,,,,,,,,,,5,0,0,13,13,42,1,,,,,,,,,,,,,,,,,,,,,,,,,,,,,,,,,,,,,,,,,,,,,,,,,,,,,,,,,,,,,,,,,,,,,,
,,?,0.00065,0,,,,,,stimuli/images/PICTURE_491.png,ROOF,5a6adef80384310001944ba8,08/01/1954,2020-09-12_06h56.50.110,proactive3.2,2020.1.2,Win32,60,5f5adea66120081ea0f57a61,5f5c62f772bd1b23b601bf20,6,,,,,,rug,,,,,,,,,,,3,0,0,14,14,24,1,,,,,,,,,,,,,,,,,,,,,,,,,,,,,,,,,,,,,,,,,,,,,,,,,,,,,,,,,,,,,,,,,,,,,,
,,?,0.0006,0,,,,,,stimuli/images/PICTURE_675.png,WEAPON,5a6adef80384310001944ba8,08/01/1954,2020-09-12_06h56.50.110,proactive3.2,2020.1.2,Win32,60,5f5adea66120081ea0f57a61,5f5c62f772bd1b23b601bf20,6,,,,,,windmill,,,,,,,,,,,4,0,0,15,15,32,1,,,,,,,,,,,,,,,,,,,,,,,,,,,,,,,,,,,,,,,,,,,,,,,,,,,,,,,,,,,,,,,,,,,,,,
,,?,0.000625,0,,,,,,stimuli/images/PICTURE_151.png,GIRL,5a6adef80384310001944ba8,08/01/1954,2020-09-12_06h56.50.110,proactive3.2,2020.1.2,Win32,60,5f5adea66120081ea0f57a61,5f5c62f772bd1b23b601bf20,6,,,,,,tray,,,,,,,,,,,2,0,0,16,16,19,1,,,,,,,,,,,,,,,,,,,,,,,,,,,,,,,,,,,,,,,,,,,,,,,,,,,,,,,,,,,,,,,,,,,,,,
,,?,0.00059,0,,,,,,stimuli/images/PICTURE_504.png,BODY,5a6adef80384310001944ba8,08/01/1954,2020-09-12_06h56.50.110,proactive3.2,2020.1.2,Win32,60,5f5adea66120081ea0f57a61,5f5c62f772bd1b23b601bf20,6,,,,,,wheel,,,,,,,,,,,1,0,0,17,17,8,1,,,,,,,,,,,,,,,,,,,,,,,,,,,,,,,,,,,,,,,,,,,,,,,,,,,,,,,,,,,,,,,,,,,,,,
,,?,0.000595,0,,,,,,stimuli/images/PICTURE_123.png,ADVICE,5a6adef80384310001944ba8,08/01/1954,2020-09-12_06h56.50.110,proactive3.2,2020.1.2,Win32,60,5f5adea66120081ea0f57a61,5f5c62f772bd1b23b601bf20,6,,,,,,dart,,,,,,,,,,,5,0,0,18,18,40,1,,,,,,,,,,,,,,,,,,,,,,,,,,,,,,,,,,,,,,,,,,,,,,,,,,,,,,,,,,,,,,,,,,,,,,
,,?,0.00059,0,,,,,,stimuli/images/PICTURE_208.png,LOTS,5a6adef80384310001944ba8,08/01/1954,2020-09-12_06h56.50.110,proactive3.2,2020.1.2,Win32,60,5f5adea66120081ea0f57a61,5f5c62f772bd1b23b601bf20,6,,,,,,microphone,,,,,,,,,,,2,0,0,19,19,10,1,,,,,,,,,,,,,,,,,,,,,,,,,,,,,,,,,,,,,,,,,,,,,,,,,,,,,,,,,,,,,,,,,,,,,,
,,?,0.00049,0,,,,,,stimuli/images/PICTURE_95.png,STYLE,5a6adef80384310001944ba8,08/01/1954,2020-09-12_06h56.50.110,proactive3.2,2020.1.2,Win32,60,5f5adea66120081ea0f57a61,5f5c62f772bd1b23b601bf20,6,,,,,,suitcase,,,,,,,,,,,3,0,0,20,20,25,1,,,,,,,,,,,,,,,,,,,,,,,,,,,,,,,,,,,,,,,,,,,,,,,,,,,,,,,,,,,,,,,,,,,,,,
,,?,0.000595,0,,,,,,stimuli/images/PICTURE_667.png,BATH,5a6adef80384310001944ba8,08/01/1954,2020-09-12_06h56.50.110,proactive3.2,2020.1.2,Win32,60,5f5adea66120081ea0f57a61,5f5c62f772bd1b23b601bf20,6,,,,,,daisy,,,,,,,,,,,1,0,0,21,21,4,1,,,,,,,,,,,,,,,,,,,,,,,,,,,,,,,,,,,,,,,,,,,,,,,,,,,,,,,,,,,,,,,,,,,,,,
,,?,0.00045,0,,,,,,stimuli/images/PICTURE_327.png,BEAUTY,5a6adef80384310001944ba8,08/01/1954,2020-09-12_06h56.50.110,proactive3.2,2020.1.2,Win32,60,5f5adea66120081ea0f57a61,5f5c62f772bd1b23b601bf20,6,,,,,,helmet,,,,,,,,,,,5,0,0,22,22,48,1,,,,,,,,,,,,,,,,,,,,,,,,,,,,,,,,,,,,,,,,,,,,,,,,,,,,,,,,,,,,,,,,,,,,,,
,,?,0.000345,0,,,,,,stimuli/images/PICTURE_470.png,CASINO,5a6adef80384310001944ba8,08/01/1954,2020-09-12_06h56.50.110,proactive3.2,2020.1.2,Win32,60,5f5adea66120081ea0f57a61,5f5c62f772bd1b23b601bf20,6,,,,,,motorbike,,,,,,,,,,,4,0,0,23,23,36,1,,,,,,,,,,,,,,,,,,,,,,,,,,,,,,,,,,,,,,,,,,,,,,,,,,,,,,,,,,,,,,,,,,,,,,
,,?,0.000355,0,,,,,,stimuli/images/PICTURE_688.png,WOMEN,5a6adef80384310001944ba8,08/01/1954,2020-09-12_06h56.50.110,proactive3.2,2020.1.2,Win32,60,5f5adea66120081ea0f57a61,5f5c62f772bd1b23b601bf20,6,,,,,,runner,,,,,,,,,,,2,0,0,24,24,14,1,,,,,,,,,,,,,,,,,,,,,,,,,,,,,,,,,,,,,,,,,,,,,,,,,,,,,,,,,,,,,,,,,,,,,,
,,?,0.00034,0,,,,,,stimuli/images/PICTURE_302.png,FAMILY,5a6adef80384310001944ba8,08/01/1954,2020-09-12_06h56.50.110,proactive3.2,2020.1.2,Win32,60,5f5adea66120081ea0f57a61,5f5c62f772bd1b23b601bf20,6,,,,,,taxi,,,,,,,,,,,2,0,0,25,25,18,1,,,,,,,,,,,,,,,,,,,,,,,,,,,,,,,,,,,,,,,,,,,,,,,,,,,,,,,,,,,,,,,,,,,,,,
,,?,0.00033,0,,,,,,stimuli/images/PICTURE_308.png,ESTATE,5a6adef80384310001944ba8,08/01/1954,2020-09-12_06h56.50.110,proactive3.2,2020.1.2,Win32,60,5f5adea66120081ea0f57a61,5f5c62f772bd1b23b601bf20,6,,,,,,dice,,,,,,,,,,,5,0,0,26,26,46,1,,,,,,,,,,,,,,,,,,,,,,,,,,,,,,,,,,,,,,,,,,,,,,,,,,,,,,,,,,,,,,,,,,,,,,
,,?,1.908295,0,,,,,,stimuli/images/PICTURE_308.png,KIND,5a6adef80384310001944ba8,08/01/1954,2020-09-12_06h56.50.110,proactive3.2,2020.1.2,Win32,60,5f5adea66120081ea0f57a61,5f5c62f772bd1b23b601bf20,6,,,,,,dice,,,,,,,,,,,6,0,0,27,27,54,1,,,,,,,,,,,,,,,,,,,,,,,,,,,,,,,,,,,,,,,,,,,,,,,,,,,,,,,,,,,,,,,,,,,,,,
,,?,0.000695,0,,,,,,stimuli/images/PICTURE_339.png,PLENTY,5a6adef80384310001944ba8,08/01/1954,2020-09-12_06h56.50.110,proactive3.2,2020.1.2,Win32,60,5f5adea66120081ea0f57a61,5f5c62f772bd1b23b601bf20,6,,,,,,backpack,,,,,,,,,,,1,0,0,28,28,0,1,,,,,,,,,,,,,,,,,,,,,,,,,,,,,,,,,,,,,,,,,,,,,,,,,,,,,,,,,,,,,,,,,,,,,,
,,?,0.000465,0,,,,,,stimuli/images/PICTURE_744.png,SYSTEM,5a6adef80384310001944ba8,08/01/1954,2020-09-12_06h56.50.110,proactive3.2,2020.1.2,Win32,60,5f5adea66120081ea0f57a61,5f5c62f772bd1b23b601bf20,6,,,,,,ring,,,,,,,,,,,5,0,0,29,29,43,1,,,,,,,,,,,,,,,,,,,,,,,,,,,,,,,,,,,,,,,,,,,,,,,,,,,,,,,,,,,,,,,,,,,,,,
,,?,0.00046,0,,,,,,stimuli/images/PICTURE_285.png,ADVICE,5a6adef80384310001944ba8,08/01/1954,2020-09-12_06h56.50.110,proactive3.2,2020.1.2,Win32,60,5f5adea66120081ea0f57a61,5f5c62f772bd1b23b601bf20,6,,,,,,carrot,,,,,,,,,,,2,0,0,30,30,12,1,,,,,,,,,,,,,,,,,,,,,,,,,,,,,,,,,,,,,,,,,,,,,,,,,,,,,,,,,,,,,,,,,,,,,,
,,?,1.279065,0,,,,,,stimuli/images/PICTURE_491.png,WRITER,5a6adef80384310001944ba8,08/01/1954,2020-09-12_06h56.50.110,proactive3.2,2020.1.2,Win32,60,5f5adea66120081ea0f57a61,5f5c62f772bd1b23b601bf20,6,,,,,,rug,,,,,,,,,,,6,0,0,31,31,57,1,,,,,,,,,,,,,,,,,,,,,,,,,,,,,,,,,,,,,,,,,,,,,,,,,,,,,,,,,,,,,,,,,,,,,,
,,?,0.00091,0,,,,,,stimuli/images/PICTURE_348.png,SPEECH,5a6adef80384310001944ba8,08/01/1954,2020-09-12_06h56.50.110,proactive3.2,2020.1.2,Win32,60,5f5adea66120081ea0f57a61,5f5c62f772bd1b23b601bf20,6,,,,,,pepper,,,,,,,,,,,3,0,0,32,32,20,1,,,,,,,,,,,,,,,,,,,,,,,,,,,,,,,,,,,,,,,,,,,,,,,,,,,,,,,,,,,,,,,,,,,,,,
,,?,0.00073,0,,,,,,stimuli/images/PICTURE_467.png,DEMON,5a6adef80384310001944ba8,08/01/1954,2020-09-12_06h56.50.110,proactive3.2,2020.1.2,Win32,60,5f5adea66120081ea0f57a61,5f5c62f772bd1b23b601bf20,6,,,,,,peg,,,,,,,,,,,3,0,0,33,33,23,1,,,,,,,,,,,,,,,,,,,,,,,,,,,,,,,,,,,,,,,,,,,,,,,,,,,,,,,,,,,,,,,,,,,,,,
,,?,0.000435,0,,,,,,stimuli/images/PICTURE_85.png,THING,5a6adef80384310001944ba8,08/01/1954,2020-09-12_06h56.50.110,proactive3.2,2020.1.2,Win32,60,5f5adea66120081ea0f57a61,5f5c62f772bd1b23b601bf20,6,,,,,,diamond,,,,,,,,,,,2,0,0,34,34,15,1,,,,,,,,,,,,,,,,,,,,,,,,,,,,,,,,,,,,,,,,,,,,,,,,,,,,,,,,,,,,,,,,,,,,,,
,,?,0.000345,0,,,,,,stimuli/images/PICTURE_380.png,DEATH,5a6adef80384310001944ba8,08/01/1954,2020-09-12_06h56.50.110,proactive3.2,2020.1.2,Win32,60,5f5adea66120081ea0f57a61,5f5c62f772bd1b23b601bf20,6,,,,,,gorilla,,,,,,,,,,,5,0,0,35,35,49,1,,,,,,,,,,,,,,,,,,,,,,,,,,,,,,,,,,,,,,,,,,,,,,,,,,,,,,,,,,,,,,,,,,,,,,
,,?,0.000345,0,,,,,,stimuli/images/PICTURE_708.png,PENNY,5a6adef80384310001944ba8,08/01/1954,2020-09-12_06h56.50.110,proactive3.2,2020.1.2,Win32,60,5f5adea66120081ea0f57a61,5f5c62f772bd1b23b601bf20,6,,,,,,monkey,,,,,,,,,,,4,0,0,36,36,31,1,,,,,,,,,,,,,,,,,,,,,,,,,,,,,,,,,,,,,,,,,,,,,,,,,,,,,,,,,,,,,,,,,,,,,,
,,?,0.00038,0,,,,,,stimuli/images/PICTURE_233.png,WOMEN,5a6adef80384310001944ba8,08/01/1954,2020-09-12_06h56.50.110,proactive3.2,2020.1.2,Win32,60,5f5adea66120081ea0f57a61,5f5c62f772bd1b23b601bf20,6,,,,,,salt,,,,,,,,,,,4,0,0,37,37,38,1,,,,,,,,,,,,,,,,,,,,,,,,,,,,,,,,,,,,,,,,,,,,,,,,,,,,,,,,,,,,,,,,,,,,,,
,,?,0.00043,0,,,,,,stimuli/images/PICTURE_314.png,SAKE,5a6adef80384310001944ba8,08/01/1954,2020-09-12_06h56.50.110,proactive3.2,2020.1.2,Win32,60,5f5adea66120081ea0f57a61,5f5c62f772bd1b23b601bf20,6,,,,,,perfume,,,,,,,,,,,1,0,0,38,38,7,1,,,,,,,,,,,,,,,,,,,,,,,,,,,,,,,,,,,,,,,,,,,,,,,,,,,,,,,,,,,,,,,,,,,,,,
,,?,0.000355,0,,,,,,stimuli/images/PICTURE_708.png,CLIENT,5a6adef80384310001944ba8,08/01/1954,2020-09-12_06h56.50.110,proactive3.2,2020.1.2,Win32,60,5f5adea66120081ea0f57a61,5f5c62f772bd1b23b601bf20,6,,,,,,monkey,,,,,,,,,,,1,0,0,39,39,5,1,,,,,,,,,,,,,,,,,,,,,,,,,,,,,,,,,,,,,,,,,,,,,,,,,,,,,,,,,,,,,,,,,,,,,,
,,?,0.00036,0,,,,,,stimuli/images/PICTURE_255.png,AREA,5a6adef80384310001944ba8,08/01/1954,2020-09-12_06h56.50.110,proactive3.2,2020.1.2,Win32,60,5f5adea66120081ea0f57a61,5f5c62f772bd1b23b601bf20,6,,,,,,shovel,,,,,,,,,,,3,0,0,40,40,22,1,,,,,,,,,,,,,,,,,,,,,,,,,,,,,,,,,,,,,,,,,,,,,,,,,,,,,,,,,,,,,,,,,,,,,,
,,?,0.00034,0,,,,,,stimuli/images/PICTURE_677.png,MILE,5a6adef80384310001944ba8,08/01/1954,2020-09-12_06h56.50.110,proactive3.2,2020.1.2,Win32,60,5f5adea66120081ea0f57a61,5f5c62f772bd1b23b601bf20,6,,,,,,map,,,,,,,,,,,4,0,0,41,41,30,1,,,,,,,,,,,,,,,,,,,,,,,,,,,,,,,,,,,,,,,,,,,,,,,,,,,,,,,,,,,,,,,,,,,,,,
,,?,0.00033,0,,,,,,stimuli/images/PICTURE_708.png,YARD,5a6adef80384310001944ba8,08/01/1954,2020-09-12_06h56.50.110,proactive3.2,2020.1.2,Win32,60,5f5adea66120081ea0f57a61,5f5c62f772bd1b23b601bf20,6,,,,,,monkey,,,,,,,,,,,3,0,0,42,42,29,1,,,,,,,,,,,,,,,,,,,,,,,,,,,,,,,,,,,,,,,,,,,,,,,,,,,,,,,,,,,,,,,,,,,,,,
,,?,0.0005,0,,,,,,stimuli/images/PICTURE_248.png,DOZEN,5a6adef80384310001944ba8,08/01/1954,2020-09-12_06h56.50.110,proactive3.2,2020.1.2,Win32,60,5f5adea66120081ea0f57a61,5f5c62f772bd1b23b601bf20,6,,,,,,cart,,,,,,,,,,,4,0,0,43,43,39,1,,,,,,,,,,,,,,,,,,,,,,,,,,,,,,,,,,,,,,,,,,,,,,,,,,,,,,,,,,,,,,,,,,,,,,
,,?,1.28416,0,,,,,,stimuli/images/PICTURE_449.png,THING,5a6adef80384310001944ba8,08/01/1954,2020-09-12_06h56.50.110,proactive3.2,2020.1.2,Win32,60,5f5adea66120081ea0f57a61,5f5c62f772bd1b23b601bf20,6,,,,,,bench,,,,,,,,,,,6,0,0,44,44,59,1,,,,,,,,,,,,,,,,,,,,,,,,,,,,,,,,,,,,,,,,,,,,,,,,,,,,,,,,,,,,,,,,,,,,,,
,,?,0.00062,0,,,,,,stimuli/images/PICTURE_654.png,VALLEY,5a6adef80384310001944ba8,08/01/1954,2020-09-12_06h56.50.110,proactive3.2,2020.1.2,Win32,60,5f5adea66120081ea0f57a61,5f5c62f772bd1b23b601bf20,6,,,,,,pencil,,,,,,,,,,,1,0,0,45,45,1,1,,,,,,,,,,,,,,,,,,,,,,,,,,,,,,,,,,,,,,,,,,,,,,,,,,,,,,,,,,,,,,,,,,,,,,
,,?,0.00042,0,,,,,,stimuli/images/PICTURE_744.png,SAKE,5a6adef80384310001944ba8,08/01/1954,2020-09-12_06h56.50.110,proactive3.2,2020.1.2,Win32,60,5f5adea66120081ea0f57a61,5f5c62f772bd1b23b601bf20,6,,,,,,ring,,,,,,,,,,,2,0,0,46,46,17,1,,,,,,,,,,,,,,,,,,,,,,,,,,,,,,,,,,,,,,,,,,,,,,,,,,,,,,,,,,,,,,,,,,,,,,
,,?,0.0004,0,,,,,,stimuli/images/PICTURE_453.png,DUDE,5a6adef80384310001944ba8,08/01/1954,2020-09-12_06h56.50.110,proactive3.2,2020.1.2,Win32,60,5f5adea66120081ea0f57a61,5f5c62f772bd1b23b601bf20,6,,,,,,scissors,,,,,,,,,,,3,0,0,47,47,27,1,,,,,,,,,,,,,,,,,,,,,,,,,,,,,,,,,,,,,,,,,,,,,,,,,,,,,,,,,,,,,,,,,,,,,,
,,?,0.0004,0,,,,,,stimuli/images/PICTURE_311.png,BEAUTY,5a6adef80384310001944ba8,08/01/1954,2020-09-12_06h56.50.110,proactive3.2,2020.1.2,Win32,60,5f5adea66120081ea0f57a61,5f5c62f772bd1b23b601bf20,6,,,,,,razor,,,,,,,,,,,2,0,0,48,48,13,1,,,,,,,,,,,,,,,,,,,,,,,,,,,,,,,,,,,,,,,,,,,,,,,,,,,,,,,,,,,,,,,,,,,,,,
,,?,0.0004,0,,,,,,stimuli/images/PICTURE_208.png,THING,5a6adef80384310001944ba8,08/01/1954,2020-09-12_06h56.50.110,proactive3.2,2020.1.2,Win32,60,5f5adea66120081ea0f57a61,5f5c62f772bd1b23b601bf20,6,,,,,,microphone,,,,,,,,,,,5,0,0,49,49,47,1,,,,,,,,,,,,,,,,,,,,,,,,,,,,,,,,,,,,,,,,,,,,,,,,,,,,,,,,,,,,,,,,,,,,,,
,,?,0.8268,0,,,,,,stimuli/images/PICTURE_147.png,MOMENT,5a6adef80384310001944ba8,08/01/1954,2020-09-12_06h56.50.110,proactive3.2,2020.1.2,Win32,60,5f5adea66120081ea0f57a61,5f5c62f772bd1b23b601bf20,6,,,,,,hanger,,,,,,,,,,,6,0,0,50,50,51,1,,,,,,,,,,,,,,,,,,,,,,,,,,,,,,,,,,,,,,,,,,,,,,,,,,,,,,,,,,,,,,,,,,,,,,
,,?,0.000545,0,,,,,,stimuli/images/PICTURE_509.png,PHOTO,5a6adef80384310001944ba8,08/01/1954,2020-09-12_06h56.50.110,proactive3.2,2020.1.2,Win32,60,5f5adea66120081ea0f57a61,5f5c62f772bd1b23b601bf20,6,,,,,,telephone,,,,,,,,,,,3,0,0,51,51,21,1,,,,,,,,,,,,,,,,,,,,,,,,,,,,,,,,,,,,,,,,,,,,,,,,,,,,,,,,,,,,,,,,,,,,,,
,,?,0.00038,0,,,,,,stimuli/images/PICTURE_692.png,MONTH,5a6adef80384310001944ba8,08/01/1954,2020-09-12_06h56.50.110,proactive3.2,2020.1.2,Win32,60,5f5adea66120081ea0f57a61,5f5c62f772bd1b23b601bf20,6,,,,,,cherry,,,,,,,,,,,2,0,0,52,52,16,1,,,,,,,,,,,,,,,,,,,,,,,,,,,,,,,,,,,,,,,,,,,,,,,,,,,,,,,,,,,,,,,,,,,,,,
,,?,1.28061,0,,,,,,stimuli/images/PICTURE_208.png,MONTH,5a6adef80384310001944ba8,08/01/1954,2020-09-12_06h56.50.110,proactive3.2,2020.1.2,Win32,60,5f5adea66120081ea0f57a61,5f5c62f772bd1b23b601bf20,6,,,,,,microphone,,,,,,,,,,,6,0,0,53,53,53,1,,,,,,,,,,,,,,,,,,,,,,,,,,,,,,,,,,,,,,,,,,,,,,,,,,,,,,,,,,,,,,,,,,,,,,
,,?,2.515765,0,,,,,,stimuli/images/PICTURE_160.png,FEET,5a6adef80384310001944ba8,08/01/1954,2020-09-12_06h56.50.110,proactive3.2,2020.1.2,Win32,60,5f5adea66120081ea0f57a61,5f5c62f772bd1b23b601bf20,6,,,,,,wheelbarrow,,,,,,,,,,,6,0,0,54,54,58,1,,,,,,,,,,,,,,,,,,,,,,,,,,,,,,,,,,,,,,,,,,,,,,,,,,,,,,,,,,,,,,,,,,,,,,
,,?,0.00086,0,,,,,,stimuli/images/PICTURE_487.png,FLIGHT,5a6adef80384310001944ba8,08/01/1954,2020-09-12_06h56.50.110,proactive3.2,2020.1.2,Win32,60,5f5adea66120081ea0f57a61,5f5c62f772bd1b23b601bf20,6,,,,,,basket,,,,,,,,,,,1,0,0,55,55,9,1,,,,,,,,,,,,,,,,,,,,,,,,,,,,,,,,,,,,,,,,,,,,,,,,,,,,,,,,,,,,,,,,,,,,,,
,,?,0.00139,0,,,,,,stimuli/images/PICTURE_667.png,PLENTY,5a6adef80384310001944ba8,08/01/1954,2020-09-12_06h56.50.110,proactive3.2,2020.1.2,Win32,60,5f5adea66120081ea0f57a61,5f5c62f772bd1b23b601bf20,6,,,,,,daisy,,,,,,,,,,,5,0,0,56,56,41,1,,,,,,,,,,,,,,,,,,,,,,,,,,,,,,,,,,,,,,,,,,,,,,,,,,,,,,,,,,,,,,,,,,,,,,
,,?,0.000485,0,,,,,,stimuli/images/PICTURE_215.png,PLENTY,5a6adef80384310001944ba8,08/01/1954,2020-09-12_06h56.50.110,proactive3.2,2020.1.2,Win32,60,5f5adea66120081ea0f57a61,5f5c62f772bd1b23b601bf20,6,,,,,,boot,,,,,,,,,,,4,0,0,57,57,37,1,,,,,,,,,,,,,,,,,,,,,,,,,,,,,,,,,,,,,,,,,,,,,,,,,,,,,,,,,,,,,,,,,,,,,,
,,?,0.000505,0,,,,,,stimuli/images/PICTURE_688.png,CASINO,5a6adef80384310001944ba8,08/01/1954,2020-09-12_06h56.50.110,proactive3.2,2020.1.2,Win32,60,5f5adea66120081ea0f57a61,5f5c62f772bd1b23b601bf20,6,,,,,,runner,,,,,,,,,,,1,0,0,58,58,2,1,,,,,,,,,,,,,,,,,,,,,,,,,,,,,,,,,,,,,,,,,,,,,,,,,,,,,,,,,,,,,,,,,,,,,,
,,DANGER,6.059465,1,,,,,,stimuli/images/PICTURE_356.png,DANGER,5a6adef80384310001944ba8,08/01/1954,2020-09-12_06h56.50.110,proactive3.2,2020.1.2,Win32,60,5f5adea66120081ea0f57a61,5f5c62f772bd1b23b601bf20,6,,,,,,pawn,,,,,,,,,,,6,0,0,59,59,55,1,,,,,,,,,,,,,,,,,,,,,,,,,,,,,,,,,,,,,,,,,,,,,,,,,,,,,,,,,,,,,,,,,,,,,,
,,,,,,,,,,,,5a6adef80384310001944ba8,08/01/1954,2020-09-12_06h56.50.110,proactive3.2,2020.1.2,Win32,60,5f5adea66120081ea0f57a61,5f5c62f772bd1b23b601bf20,6,,,,,,,,,,,,,,,,,,,,,,,,0,1,1,0,1,stimuli/learn-block1.csv,,,,,,,,,,,,,,,,,,,,,,,,,,,,,,,,,,,,,,,,,,,,,,,,,,,,,,,,,,,,,,,,
,,,,,,,,,,stimuli/images/PICTURE_95.png,HONEY,5a6adef80384310001944ba8,08/01/1954,2020-09-12_06h56.50.110,proactive3.2,2020.1.2,Win32,60,5f5adea66120081ea0f57a61,5f5c62f772bd1b23b601bf20,6,,,,,,suitcase,,,,,,0,0,0,44,1,5,1,,,,,,,,,,,,,,,,,,,,,,,,,,,,,,,,,,,,,,,,,,,,,,,,,,,,,,,,,,,,,,,,,,,,,,,,,,,
,,,,,,,,,,stimuli/images/PICTURE_677.png,APPLE,5a6adef80384310001944ba8,08/01/1954,2020-09-12_06h56.50.110,proactive3.2,2020.1.2,Win32,60,5f5adea66120081ea0f57a61,5f5c62f772bd1b23b601bf20,6,,,,,,map,,,,,,0,1,1,43,1,5,1,,,,,,,,,,,,,,,,,,,,,,,,,,,,,,,,,,,,,,,,,,,,,,,,,,,,,,,,,,,,,,,,,,,,,,,,,,,
,,,,,,,,,,stimuli/images/PICTURE_32.png,KIND,5a6adef80384310001944ba8,08/01/1954,2020-09-12_06h56.50.110,proactive3.2,2020.1.2,Win32,60,5f5adea66120081ea0f57a61,5f5c62f772bd1b23b601bf20,6,,,,,,crown,,,,,,0,2,2,35,1,4,1,,,,,,,,,,,,,,,,,,,,,,,,,,,,,,,,,,,,,,,,,,,,,,,,,,,,,,,,,,,,,,,,,,,,,,,,,,,
,,,,,,,,,,stimuli/images/PICTURE_296.png,LIFE,5a6adef80384310001944ba8,08/01/1954,2020-09-12_06h56.50.110,proactive3.2,2020.1.2,Win32,60,5f5adea66120081ea0f57a61,5f5c62f772bd1b23b601bf20,6,,,,,,bolt,,,,,,0,3,3,57,1,6,1,,,,,,,,,,,,,,,,,,,,,,,,,,,,,,,,,,,,,,,,,,,,,,,,,,,,,,,,,,,,,,,,,,,,,,,,,,,
,,,,,,,,,,stimuli/images/PICTURE_147.png,YEAR,5a6adef80384310001944ba8,08/01/1954,2020-09-12_06h56.50.110,proactive3.2,2020.1.2,Win32,60,5f5adea66120081ea0f57a61,5f5c62f772bd1b23b601bf20,6,,,,,,hanger,,,,,,0,4,4,21,1,3,1,,,,,,,,,,,,,,,,,,,,,,,,,,,,,,,,,,,,,,,,,,,,,,,,,,,,,,,,,,,,,,,,,,,,,,,,,,,
,,,,,,,,,,stimuli/images/PICTURE_467.png,POLICY,5a6adef80384310001944ba8,08/01/1954,2020-09-12_06h56.50.110,proactive3.2,2020.1.2,Win32,60,5f5adea66120081ea0f57a61,5f5c62f772bd1b23b601bf20,6,,,,,,peg,,,,,,0,5,5,53,1,6,1,,,,,,,,,,,,,,,,,,,,,,,,,,,,,,,,,,,,,,,,,,,,,,,,,,,,,,,,,,,,,,,,,,,,,,,,,,,
,,,,,,,,,,stimuli/images/PICTURE_491.png,GLASS,5a6adef80384310001944ba8,08/01/1954,2020-09-12_06h56.50.110,proactive3.2,2020.1.2,Win32,60,5f5adea66120081ea0f57a61,5f5c62f772bd1b23b601bf20,6,,,,,,rug,,,,,,0,6,6,14,1,2,1,,,,,,,,,,,,,,,,,,,,,,,,,,,,,,,,,,,,,,,,,,,,,,,,,,,,,,,,,,,,,,,,,,,,,,,,,,,
,,,,,,,,,,stimuli/images/PICTURE_2.png,FLIGHT,5a6adef80384310001944ba8,08/01/1954,2020-09-12_06h56.50.110,proactive3.2,2020.1.2,Win32,60,5f5adea66120081ea0f57a61,5f5c62f772bd1b23b601bf20,6,,,,,,tyre,,,,,,0,7,7,15,1,2,1,,,,,,,,,,,,,,,,,,,,,,,,,,,,,,,,,,,,,,,,,,,,,,,,,,,,,,,,,,,,,,,,,,,,,,,,,,,
,,,,,,,,,,stimuli/images/PICTURE_327.png,CASINO,5a6adef80384310001944ba8,08/01/1954,2020-09-12_06h56.50.110,proactive3.2,2020.1.2,Win32,60,5f5adea66120081ea0f57a61,5f5c62f772bd1b23b601bf20,6,,,,,,helmet,,,,,,0,8,8,20,1,3,1,,,,,,,,,,,,,,,,,,,,,,,,,,,,,,,,,,,,,,,,,,,,,,,,,,,,,,,,,,,,,,,,,,,,,,,,,,,
,,,,,,,,,,stimuli/images/PICTURE_667.png,RIVER,5a6adef80384310001944ba8,08/01/1954,2020-09-12_06h56.50.110,proactive3.2,2020.1.2,Win32,60,5f5adea66120081ea0f57a61,5f5c62f772bd1b23b601bf20,6,,,,,,daisy,,,,,,0,9,9,10,1,2,1,,,,,,,,,,,,,,,,,,,,,,,,,,,,,,,,,,,,,,,,,,,,,,,,,,,,,,,,,,,,,,,,,,,,,,,,,,,
,,,,,,,,,,stimuli/images/PICTURE_491.png,RIVER,5a6adef80384310001944ba8,08/01/1954,2020-09-12_06h56.50.110,proactive3.2,2020.1.2,Win32,60,5f5adea66120081ea0f57a61,5f5c62f772bd1b23b601bf20,6,,,,,,rug,,,,,,0,10,10,6,1,1,1,,,,,,,,,,,,,,,,,,,,,,,,,,,,,,,,,,,,,,,,,,,,,,,,,,,,,,,,,,,,,,,,,,,,,,,,,,,
,,,,,,,,,,stimuli/images/PICTURE_340.png,VALLEY,5a6adef80384310001944ba8,08/01/1954,2020-09-12_06h56.50.110,proactive3.2,2020.1.2,Win32,60,5f5adea66120081ea0f57a61,5f5c62f772bd1b23b601bf20,6,,,,,,mirror,,,,,,0,11,11,54,1,6,1,,,,,,,,,,,,,,,,,,,,,,,,,,,,,,,,,,,,,,,,,,,,,,,,,,,,,,,,,,,,,,,,,,,,,,,,,,,
,,,,,,,,,,stimuli/images/PICTURE_33.png,FRIEND,5a6adef80384310001944ba8,08/01/1954,2020-09-12_06h56.50.110,proactive3.2,2020.1.2,Win32,60,5f5adea66120081ea0f57a61,5f5c62f772bd1b23b601bf20,6,,,,,,frame,,,,,,0,12,12,8,1,1,1,,,,,,,,,,,,,,,,,,,,,,,,,,,,,,,,,,,,,,,,,,,,,,,,,,,,,,,,,,,,,,,,,,,,,,,,,,,
,,,,,,,,,,stimuli/images/PICTURE_504.png,COPS,5a6adef80384310001944ba8,08/01/1954,2020-09-12_06h56.50.110,proactive3.2,2020.1.2,Win32,60,5f5adea66120081ea0f57a61,5f5c62f772bd1b23b601bf20,6,,,,,,wheel,,,,,,0,13,13,52,1,6,1,,,,,,,,,,,,,,,,,,,,,,,,,,,,,,,,,,,,,,,,,,,,,,,,,,,,,,,,,,,,,,,,,,,,,,,,,,,
,,,,,,,,,,stimuli/images/PICTURE_564.png,BATH,5a6adef80384310001944ba8,08/01/1954,2020-09-12_06h56.50.110,proactive3.2,2020.1.2,Win32,60,5f5adea66120081ea0f57a61,5f5c62f772bd1b23b601bf20,6,,,,,,spoon,,,,,,0,14,14,26,1,3,1,,,,,,,,,,,,,,,,,,,,,,,,,,,,,,,,,,,,,,,,,,,,,,,,,,,,,,,,,,,,,,,,,,,,,,,,,,,
,,,,,,,,,,stimuli/images/PICTURE_42.png,BOYS,5a6adef80384310001944ba8,08/01/1954,2020-09-12_06h56.50.110,proactive3.2,2020.1.2,Win32,60,5f5adea66120081ea0f57a61,5f5c62f772bd1b23b601bf20,6,,,,,,pear,,,,,,0,15,15,55,1,6,1,,,,,,,,,,,,,,,,,,,,,,,,,,,,,,,,,,,,,,,,,,,,,,,,,,,,,,,,,,,,,,,,,,,,,,,,,,,
,,,,,,,,,,stimuli/images/PICTURE_233.png,LOTS,5a6adef80384310001944ba8,08/01/1954,2020-09-12_06h56.50.110,proactive3.2,2020.1.2,Win32,60,5f5adea66120081ea0f57a61,5f5c62f772bd1b23b601bf20,6,,,,,,salt,,,,,,0,16,16,42,1,5,1,,,,,,,,,,,,,,,,,,,,,,,,,,,,,,,,,,,,,,,,,,,,,,,,,,,,,,,,,,,,,,,,,,,,,,,,,,,
,,,,,,,,,,stimuli/images/PICTURE_108.png,FLIGHT,5a6adef80384310001944ba8,08/01/1954,2020-09-12_06h56.50.110,proactive3.2,2020.1.2,Win32,60,5f5adea66120081ea0f57a61,5f5c62f772bd1b23b601bf20,6,,,,,,calendar,,,,,,0,17,17,59,1,6,1,,,,,,,,,,,,,,,,,,,,,,,,,,,,,,,,,,,,,,,,,,,,,,,,,,,,,,,,,,,,,,,,,,,,,,,,,,,
,,,,,,,,,,stimuli/images/PICTURE_744.png,WEAPON,5a6adef80384310001944ba8,08/01/1954,2020-09-12_06h56.50.110,proactive3.2,2020.1.2,Win32,60,5f5adea66120081ea0f57a61,5f5c62f772bd1b23b601bf20,6,,,,,,ring,,,,,,0,18,18,50,1,6,1,,,,,,,,,,,,,,,,,,,,,,,,,,,,,,,,,,,,,,,,,,,,,,,,,,,,,,,,,,,,,,,,,,,,,,,,,,,
,,,,,,,,,,stimuli/images/PICTURE_750.png,HOTEL,5a6adef80384310001944ba8,08/01/1954,2020-09-12_06h56.50.110,proactive3.2,2020.1.2,Win32,60,5f5adea66120081ea0f57a61,5f5c62f772bd1b23b601bf20,6,,,,,,kettle,,,,,,0,19,19,27,1,3,1,,,,,,,,,,,,,,,,,,,,,,,,,,,,,,,,,,,,,,,,,,,,,,,,,,,,,,,,,,,,,,,,,,,,,,,,,,,
,,,,,,,,,,stimuli/images/PICTURE_380.png,HONEY,5a6adef80384310001944ba8,08/01/1954,2020-09-12_06h56.50.110,proactive3.2,2020.1.2,Win32,60,5f5adea66120081ea0f57a61,5f5c62f772bd1b23b601bf20,6,,,,,,gorilla,,,,,,0,20,20,19,1,2,1,,,,,,,,,,,,,,,,,,,,,,,,,,,,,,,,,,,,,,,,,,,,,,,,,,,,,,,,,,,,,,,,,,,,,,,,,,,
,,,,,,,,,,stimuli/images/PICTURE_654.png,MONTH,5a6adef80384310001944ba8,08/01/1954,2020-09-12_06h56.50.110,proactive3.2,2020.1.2,Win32,60,5f5adea66120081ea0f57a61,5f5c62f772bd1b23b601bf20,6,,,,,,pencil,,,,,,0,21,21,29,1,3,1,,,,,,,,,,,,,,,,,,,,,,,,,,,,,,,,,,,,,,,,,,,,,,,,,,,,,,,,,,,,,,,,,,,,,,,,,,,
,,,,,,,,,,stimuli/images/PICTURE_297.png,RIVER,5a6adef80384310001944ba8,08/01/1954,2020-09-12_06h56.50.110,proactive3.2,2020.1.2,Win32,60,5f5adea66120081ea0f57a61,5f5c62f772bd1b23b601bf20,6,,,,,,aeroplane,,,,,,0,22,22,39,1,4,1,,,,,,,,,,,,,,,,,,,,,,,,,,,,,,,,,,,,,,,,,,,,,,,,,,,,,,,,,,,,,,,,,,,,,,,,,,,
,,,,,,,,,,stimuli/images/PICTURE_95.png,BOYS,5a6adef80384310001944ba8,08/01/1954,2020-09-12_06h56.50.110,proactive3.2,2020.1.2,Win32,60,5f5adea66120081ea0f57a61,5f5c62f772bd1b23b601bf20,6,,,,,,suitcase,,,,,,0,23,23,1,1,1,1,,,,,,,,,,,,,,,,,,,,,,,,,,,,,,,,,,,,,,,,,,,,,,,,,,,,,,,,,,,,,,,,,,,,,,,,,,,
,,,,,,,,,,stimuli/images/PICTURE_68.png,ROOF,5a6adef80384310001944ba8,08/01/1954,2020-09-12_06h56.50.110,proactive3.2,2020.1.2,Win32,60,5f5adea66120081ea0f57a61,5f5c62f772bd1b23b601bf20,6,,,,,,candle,,,,,,0,24,24,38,1,4,1,,,,,,,,,,,,,,,,,,,,,,,,,,,,,,,,,,,,,,,,,,,,,,,,,,,,,,,,,,,,,,,,,,,,,,,,,,,
,,,,,,,,,,stimuli/images/PICTURE_383.png,SERIES,5a6adef80384310001944ba8,08/01/1954,2020-09-12_06h56.50.110,proactive3.2,2020.1.2,Win32,60,5f5adea66120081ea0f57a61,5f5c62f772bd1b23b601bf20,6,,,,,,coin,,,,,,0,25,25,46,1,5,1,,,,,,,,,,,,,,,,,,,,,,,,,,,,,,,,,,,,,,,,,,,,,,,,,,,,,,,,,,,,,,,,,,,,,,,,,,,
,,,,,,,,,,stimuli/images/PICTURE_504.png,ARTIST,5a6adef80384310001944ba8,08/01/1954,2020-09-12_06h56.50.110,proactive3.2,2020.1.2,Win32,60,5f5adea66120081ea0f57a61,5f5c62f772bd1b23b601bf20,6,,,,,,wheel,,,,,,0,26,26,49,1,5,1,,,,,,,,,,,,,,,,,,,,,,,,,,,,,,,,,,,,,,,,,,,,,,,,,,,,,,,,,,,,,,,,,,,,,,,,,,,
,,,,,,,,,,stimuli/images/PICTURE_32.png,PILLS,5a6adef80384310001944ba8,08/01/1954,2020-09-12_06h56.50.110,proactive3.2,2020.1.2,Win32,60,5f5adea66120081ea0f57a61,5f5c62f772bd1b23b601bf20,6,,,,,,crown,,,,,,0,27,27,18,1,2,1,,,,,,,,,,,,,,,,,,,,,,,,,,,,,,,,,,,,,,,,,,,,,,,,,,,,,,,,,,,,,,,,,,,,,,,,,,,
,,,,,,,,,,stimuli/images/PICTURE_147.png,WOMEN,5a6adef80384310001944ba8,08/01/1954,2020-09-12_06h56.50.110,proactive3.2,2020.1.2,Win32,60,5f5adea66120081ea0f57a61,5f5c62f772bd1b23b601bf20,6,,,,,,hanger,,,,,,0,28,28,7,1,1,1,,,,,,,,,,,,,,,,,,,,,,,,,,,,,,,,,,,,,,,,,,,,,,,,,,,,,,,,,,,,,,,,,,,,,,,,,,,
,,,,,,,,,,stimuli/images/PICTURE_685.png,PENNY,5a6adef80384310001944ba8,08/01/1954,2020-09-12_06h56.50.110,proactive3.2,2020.1.2,Win32,60,5f5adea66120081ea0f57a61,5f5c62f772bd1b23b601bf20,6,,,,,,goose,,,,,,0,29,29,4,1,1,1,,,,,,,,,,,,,,,,,,,,,,,,,,,,,,,,,,,,,,,,,,,,,,,,,,,,,,,,,,,,,,,,,,,,,,,,,,,
,,,,,,,,,,stimuli/images/PICTURE_487.png,GIRL,5a6adef80384310001944ba8,08/01/1954,2020-09-12_06h56.50.110,proactive3.2,2020.1.2,Win32,60,5f5adea66120081ea0f57a61,5f5c62f772bd1b23b601bf20,6,,,,,,basket,,,,,,0,30,30,45,1,5,1,,,,,,,,,,,,,,,,,,,,,,,,,,,,,,,,,,,,,,,,,,,,,,,,,,,,,,,,,,,,,,,,,,,,,,,,,,,
,,,,,,,,,,stimuli/images/PICTURE_504.png,YEAR,5a6adef80384310001944ba8,08/01/1954,2020-09-12_06h56.50.110,proactive3.2,2020.1.2,Win32,60,5f5adea66120081ea0f57a61,5f5c62f772bd1b23b601bf20,6,,,,,,wheel,,,,,,0,31,31,13,1,2,1,,,,,,,,,,,,,,,,,,,,,,,,,,,,,,,,,,,,,,,,,,,,,,,,,,,,,,,,,,,,,,,,,,,,,,,,,,,
,,,,,,,,,,stimuli/images/PICTURE_285.png,LIFE,5a6adef80384310001944ba8,08/01/1954,2020-09-12_06h56.50.110,proactive3.2,2020.1.2,Win32,60,5f5adea66120081ea0f57a61,5f5c62f772bd1b23b601bf20,6,,,,,,carrot,,,,,,0,32,32,33,1,4,1,,,,,,,,,,,,,,,,,,,,,,,,,,,,,,,,,,,,,,,,,,,,,,,,,,,,,,,,,,,,,,,,,,,,,,,,,,,
,,,,,,,,,,stimuli/images/PICTURE_383.png,WRITER,5a6adef80384310001944ba8,08/01/1954,2020-09-12_06h56.50.110,proactive3.2,2020.1.2,Win32,60,5f5adea66120081ea0f57a61,5f5c62f772bd1b23b601bf20,6,,,,,,coin,,,,,,0,33,33,28,1,3,1,,,,,,,,,,,,,,,,,,,,,,,,,,,,,,,,,,,,,,,,,,,,,,,,,,,,,,,,,,,,,,,,,,,,,,,,,,,
,,,,,,,,,,stimuli/images/PICTURE_85.png,NATION,5a6adef80384310001944ba8,08/01/1954,2020-09-12_06h56.50.110,proactive3.2,2020.1.2,Win32,60,5f5adea66120081ea0f57a61,5f5c62f772bd1b23b601bf20,6,,,,,,diamond,,,,,,0,34,34,5,1,1,1,,,,,,,,,,,,,,,,,,,,,,,,,,,,,,,,,,,,,,,,,,,,,,,,,,,,,,,,,,,,,,,,,,,,,,,,,,,
,,,,,,,,,,stimuli/images/PICTURE_203.png,NIGHT,5a6adef80384310001944ba8,08/01/1954,2020-09-12_06h56.50.110,proactive3.2,2020.1.2,Win32,60,5f5adea66120081ea0f57a61,5f5c62f772bd1b23b601bf20,6,,,,,,cap,,,,,,0,35,35,2,1,1,1,,,,,,,,,,,,,,,,,,,,,,,,,,,,,,,,,,,,,,,,,,,,,,,,,,,,,,,,,,,,,,,,,,,,,,,,,,,
,,,,,,,,,,stimuli/images/PICTURE_675.png,SALE,5a6adef80384310001944ba8,08/01/1954,2020-09-12_06h56.50.110,proactive3.2,2020.1.2,Win32,60,5f5adea66120081ea0f57a61,5f5c62f772bd1b23b601bf20,6,,,,,,windmill,,,,,,0,36,36,47,1,5,1,,,,,,,,,,,,,,,,,,,,,,,,,,,,,,,,,,,,,,,,,,,,,,,,,,,,,,,,,,,,,,,,,,,,,,,,,,,
,,,,,,,,,,stimuli/images/PICTURE_296.png,LOTS,5a6adef80384310001944ba8,08/01/1954,2020-09-12_06h56.50.110,proactive3.2,2020.1.2,Win32,60,5f5adea66120081ea0f57a61,5f5c62f772bd1b23b601bf20,6,,,,,,bolt,,,,,,0,37,37,9,1,1,1,,,,,,,,,,,,,,,,,,,,,,,,,,,,,,,,,,,,,,,,,,,,,,,,,,,,,,,,,,,,,,,,,,,,,,,,,,,
,,,,,,,,,,stimuli/images/PICTURE_177.png,WRITER,5a6adef80384310001944ba8,08/01/1954,2020-09-12_06h56.50.110,proactive3.2,2020.1.2,Win32,60,5f5adea66120081ea0f57a61,5f5c62f772bd1b23b601bf20,6,,,,,,mushroom,,,,,,0,38,38,41,1,5,1,,,,,,,,,,,,,,,,,,,,,,,,,,,,,,,,,,,,,,,,,,,,,,,,,,,,,,,,,,,,,,,,,,,,,,,,,,,
,,,,,,,,,,stimuli/images/PICTURE_340.png,LETTER,5a6adef80384310001944ba8,08/01/1954,2020-09-12_06h56.50.110,proactive3.2,2020.1.2,Win32,60,5f5adea66120081ea0f57a61,5f5c62f772bd1b23b601bf20,6,,,,,,mirror,,,,,,0,39,39,24,1,3,1,,,,,,,,,,,,,,,,,,,,,,,,,,,,,,,,,,,,,,,,,,,,,,,,,,,,,,,,,,,,,,,,,,,,,,,,,,,
,,,,,,,,,,stimuli/images/PICTURE_108.png,POLICY,5a6adef80384310001944ba8,08/01/1954,2020-09-12_06h56.50.110,proactive3.2,2020.1.2,Win32,60,5f5adea66120081ea0f57a61,5f5c62f772bd1b23b601bf20,6,,,,,,calendar,,,,,,0,40,40,22,1,3,1,,,,,,,,,,,,,,,,,,,,,,,,,,,,,,,,,,,,,,,,,,,,,,,,,,,,,,,,,,,,,,,,,,,,,,,,,,,
,,,,,,,,,,stimuli/images/PICTURE_405.png,YEAR,5a6adef80384310001944ba8,08/01/1954,2020-09-12_06h56.50.110,proactive3.2,2020.1.2,Win32,60,5f5adea66120081ea0f57a61,5f5c62f772bd1b23b601bf20,6,,,,,,anchor,,,,,,0,41,41,34,1,4,1,,,,,,,,,,,,,,,,,,,,,,,,,,,,,,,,,,,,,,,,,,,,,,,,,,,,,,,,,,,,,,,,,,,,,,,,,,,
,,,,,,,,,,stimuli/images/PICTURE_95.png,MILLER,5a6adef80384310001944ba8,08/01/1954,2020-09-12_06h56.50.110,proactive3.2,2020.1.2,Win32,60,5f5adea66120081ea0f57a61,5f5c62f772bd1b23b601bf20,6,,,,,,suitcase,,,,,,0,42,42,56,1,6,1,,,,,,,,,,,,,,,,,,,,,,,,,,,,,,,,,,,,,,,,,,,,,,,,,,,,,,,,,,,,,,,,,,,,,,,,,,,
,,,,,,,,,,stimuli/images/PICTURE_403.png,WRITER,5a6adef80384310001944ba8,08/01/1954,2020-09-12_06h56.50.110,proactive3.2,2020.1.2,Win32,60,5f5adea66120081ea0f57a61,5f5c62f772bd1b23b601bf20,6,,,,,,cathedral,,,,,,0,43,43,31,1,4,1,,,,,,,,,,,,,,,,,,,,,,,,,,,,,,,,,,,,,,,,,,,,,,,,,,,,,,,,,,,,,,,,,,,,,,,,,,,
,,,,,,,,,,stimuli/images/PICTURE_449.png,DUDE,5a6adef80384310001944ba8,08/01/1954,2020-09-12_06h56.50.110,proactive3.2,2020.1.2,Win32,60,5f5adea66120081ea0f57a61,5f5c62f772bd1b23b601bf20,6,,,,,,bench,,,,,,0,44,44,17,1,2,1,,,,,,,,,,,,,,,,,,,,,,,,,,,,,,,,,,,,,,,,,,,,,,,,,,,,,,,,,,,,,,,,,,,,,,,,,,,
,,,,,,,,,,stimuli/images/PICTURE_403.png,TOILET,5a6adef80384310001944ba8,08/01/1954,2020-09-12_06h56.50.110,proactive3.2,2020.1.2,Win32,60,5f5adea66120081ea0f57a61,5f5c62f772bd1b23b601bf20,6,,,,,,cathedral,,,,,,0,45,45,25,1,3,1,,,,,,,,,,,,,,,,,,,,,,,,,,,,,,,,,,,,,,,,,,,,,,,,,,,,,,,,,,,,,,,,,,,,,,,,,,,
,,,,,,,,,,stimuli/images/PICTURE_85.png,TOILET,5a6adef80384310001944ba8,08/01/1954,2020-09-12_06h56.50.110,proactive3.2,2020.1.2,Win32,60,5f5adea66120081ea0f57a61,5f5c62f772bd1b23b601bf20,6,,,,,,diamond,,,,,,0,46,46,48,1,5,1,,,,,,,,,,,,,,,,,,,,,,,,,,,,,,,,,,,,,,,,,,,,,,,,,,,,,,,,,,,,,,,,,,,,,,,,,,,
,,,,,,,,,,stimuli/images/PICTURE_57.png,MOMENT,5a6adef80384310001944ba8,08/01/1954,2020-09-12_06h56.50.110,proactive3.2,2020.1.2,Win32,60,5f5adea66120081ea0f57a61,5f5c62f772bd1b23b601bf20,6,,,,,,stamp,,,,,,0,47,47,37,1,4,1,,,,,,,,,,,,,,,,,,,,,,,,,,,,,,,,,,,,,,,,,,,,,,,,,,,,,,,,,,,,,,,,,,,,,,,,,,,
,,,,,,,,,,stimuli/images/PICTURE_708.png,RECORD,5a6adef80384310001944ba8,08/01/1954,2020-09-12_06h56.50.110,proactive3.2,2020.1.2,Win32,60,5f5adea66120081ea0f57a61,5f5c62f772bd1b23b601bf20,6,,,,,,monkey,,,,,,0,48,48,58,1,6,1,,,,,,,,,,,,,,,,,,,,,,,,,,,,,,,,,,,,,,,,,,,,,,,,,,,,,,,,,,,,,,,,,,,,,,,,,,,
,,,,,,,,,,stimuli/images/PICTURE_327.png,SERIES,5a6adef80384310001944ba8,08/01/1954,2020-09-12_06h56.50.110,proactive3.2,2020.1.2,Win32,60,5f5adea66120081ea0f57a61,5f5c62f772bd1b23b601bf20,6,,,,,,helmet,,,,,,0,49,49,3,1,1,1,,,,,,,,,,,,,,,,,,,,,,,,,,,,,,,,,,,,,,,,,,,,,,,,,,,,,,,,,,,,,,,,,,,,,,,,,,,
,,,,,,,,,,stimuli/images/PICTURE_655.png,TOILET,5a6adef80384310001944ba8,08/01/1954,2020-09-12_06h56.50.110,proactive3.2,2020.1.2,Win32,60,5f5adea66120081ea0f57a61,5f5c62f772bd1b23b601bf20,6,,,,,,megaphone,,,,,,0,50,50,12,1,2,1,,,,,,,,,,,,,,,,,,,,,,,,,,,,,,,,,,,,,,,,,,,,,,,,,,,,,,,,,,,,,,,,,,,,,,,,,,,
,,,,,,,,,,stimuli/images/PICTURE_308.png,FAMILY,5a6adef80384310001944ba8,08/01/1954,2020-09-12_06h56.50.110,proactive3.2,2020.1.2,Win32,60,5f5adea66120081ea0f57a61,5f5c62f772bd1b23b601bf20,6,,,,,,dice,,,,,,0,51,51,36,1,4,1,,,,,,,,,,,,,,,,,,,,,,,,,,,,,,,,,,,,,,,,,,,,,,,,,,,,,,,,,,,,,,,,,,,,,,,,,,,
,,,,,,,,,,stimuli/images/PICTURE_380.png,CANDY,5a6adef80384310001944ba8,08/01/1954,2020-09-12_06h56.50.110,proactive3.2,2020.1.2,Win32,60,5f5adea66120081ea0f57a61,5f5c62f772bd1b23b601bf20,6,,,,,,gorilla,,,,,,0,52,52,0,1,1,1,,,,,,,,,,,,,,,,,,,,,,,,,,,,,,,,,,,,,,,,,,,,,,,,,,,,,,,,,,,,,,,,,,,,,,,,,,,
,,,,,,,,,,stimuli/images/PICTURE_339.png,CLIENT,5a6adef80384310001944ba8,08/01/1954,2020-09-12_06h56.50.110,proactive3.2,2020.1.2,Win32,60,5f5adea66120081ea0f57a61,5f5c62f772bd1b23b601bf20,6,,,,,,backpack,,,,,,0,53,53,11,1,2,1,,,,,,,,,,,,,,,,,,,,,,,,,,,,,,,,,,,,,,,,,,,,,,,,,,,,,,,,,,,,,,,,,,,,,,,,,,,
,,,,,,,,,,stimuli/images/PICTURE_208.png,SYSTEM,5a6adef80384310001944ba8,08/01/1954,2020-09-12_06h56.50.110,proactive3.2,2020.1.2,Win32,60,5f5adea66120081ea0f57a61,5f5c62f772bd1b23b601bf20,6,,,,,,microphone,,,,,,0,54,54,32,1,4,1,,,,,,,,,,,,,,,,,,,,,,,,,,,,,,,,,,,,,,,,,,,,,,,,,,,,,,,,,,,,,,,,,,,,,,,,,,,
,,,,,,,,,,stimuli/images/PICTURE_203.png,GODS,5a6adef80384310001944ba8,08/01/1954,2020-09-12_06h56.50.110,proactive3.2,2020.1.2,Win32,60,5f5adea66120081ea0f57a61,5f5c62f772bd1b23b601bf20,6,,,,,,cap,,,,,,0,55,55,30,1,4,1,,,,,,,,,,,,,,,,,,,,,,,,,,,,,,,,,,,,,,,,,,,,,,,,,,,,,,,,,,,,,,,,,,,,,,,,,,,
,,,,,,,,,,stimuli/images/PICTURE_403.png,RIVER,5a6adef80384310001944ba8,08/01/1954,2020-09-12_06h56.50.110,proactive3.2,2020.1.2,Win32,60,5f5adea66120081ea0f57a61,5f5c62f772bd1b23b601bf20,6,,,,,,cathedral,,,,,,0,56,56,40,1,5,1,,,,,,,,,,,,,,,,,,,,,,,,,,,,,,,,,,,,,,,,,,,,,,,,,,,,,,,,,,,,,,,,,,,,,,,,,,,
,,,,,,,,,,stimuli/images/PICTURE_469.png,AGENT,5a6adef80384310001944ba8,08/01/1954,2020-09-12_06h56.50.110,proactive3.2,2020.1.2,Win32,60,5f5adea66120081ea0f57a61,5f5c62f772bd1b23b601bf20,6,,,,,,stool,,,,,,0,57,57,16,1,2,1,,,,,,,,,,,,,,,,,,,,,,,,,,,,,,,,,,,,,,,,,,,,,,,,,,,,,,,,,,,,,,,,,,,,,,,,,,,
,,,,,,,,,,stimuli/images/PICTURE_405.png,PLENTY,5a6adef80384310001944ba8,08/01/1954,2020-09-12_06h56.50.110,proactive3.2,2020.1.2,Win32,60,5f5adea66120081ea0f57a61,5f5c62f772bd1b23b601bf20,6,,,,,,anchor,,,,,,0,58,58,23,1,3,1,,,,,,,,,,,,,,,,,,,,,,,,,,,,,,,,,,,,,,,,,,,,,,,,,,,,,,,,,,,,,,,,,,,,,,,,,,,
,,?,0.000875,0,,,,,,stimuli/images/PICTURE_233.png,LOTS,5a6adef80384310001944ba8,08/01/1954,2020-09-12_06h56.50.110,proactive3.2,2020.1.2,Win32,60,5f5adea66120081ea0f57a61,5f5c62f772bd1b23b601bf20,6,,,,,,salt,,,,,,,,,,,5,1,0,0,0,42,1,,,,,,,,,,,,,,,,,,,,,,,,,,,,,,,,,,,,,,,,,,,,,,,,,,,,,,,,,,,,,,,,,,,,,,
,,?,0.000645,0,,,,,,stimuli/images/PICTURE_203.png,NIGHT,5a6adef80384310001944ba8,08/01/1954,2020-09-12_06h56.50.110,proactive3.2,2020.1.2,Win32,60,5f5adea66120081ea0f57a61,5f5c62f772bd1b23b601bf20,6,,,,,,cap,,,,,,,,,,,1,1,0,1,1,2,1,,,,,,,,,,,,,,,,,,,,,,,,,,,,,,,,,,,,,,,,,,,,,,,,,,,,,,,,,,,,,,,,,,,,,,
,,?,0.000645,0,,,,,,stimuli/images/PICTURE_675.png,SALE,5a6adef80384310001944ba8,08/01/1954,2020-09-12_06h56.50.110,proactive3.2,2020.1.2,Win32,60,5f5adea66120081ea0f57a61,5f5c62f772bd1b23b601bf20,6,,,,,,windmill,,,,,,,,,,,5,1,0,2,2,47,1,,,,,,,,,,,,,,,,,,,,,,,,,,,,,,,,,,,,,,,,,,,,,,,,,,,,,,,,,,,,,,,,,,,,,,
,,?,1.31853,0,,,,,,stimuli/images/PICTURE_340.png,VALLEY,5a6adef80384310001944ba8,08/01/1954,2020-09-12_06h56.50.110,proactive3.2,2020.1.2,Win32,60,5f5adea66120081ea0f57a61,5f5c62f772bd1b23b601bf20,6,,,,,,mirror,,,,,,,,,,,6,1,0,3,3,54,1,,,,,,,,,,,,,,,,,,,,,,,,,,,,,,,,,,,,,,,,,,,,,,,,,,,,,,,,,,,,,,,,,,,,,,
,,?,0.000685,0,,,,,,stimuli/images/PICTURE_327.png,CASINO,5a6adef80384310001944ba8,08/01/1954,2020-09-12_06h56.50.110,proactive3.2,2020.1.2,Win32,60,5f5adea66120081ea0f57a61,5f5c62f772bd1b23b601bf20,6,,,,,,helmet,,,,,,,,,,,3,1,0,4,4,20,1,,,,,,,,,,,,,,,,,,,,,,,,,,,,,,,,,,,,,,,,,,,,,,,,,,,,,,,,,,,,,,,,,,,,,,
,,?,0.000415,0,,,,,,stimuli/images/PICTURE_491.png,RIVER,5a6adef80384310001944ba8,08/01/1954,2020-09-12_06h56.50.110,proactive3.2,2020.1.2,Win32,60,5f5adea66120081ea0f57a61,5f5c62f772bd1b23b601bf20,6,,,,,,rug,,,,,,,,,,,1,1,0,5,5,6,1,,,,,,,,,,,,,,,,,,,,,,,,,,,,,,,,,,,,,,,,,,,,,,,,,,,,,,,,,,,,,,,,,,,,,,
,,?,0.000405,0,,,,,,stimuli/images/PICTURE_504.png,YEAR,5a6adef80384310001944ba8,08/01/1954,2020-09-12_06h56.50.110,proactive3.2,2020.1.2,Win32,60,5f5adea66120081ea0f57a61,5f5c62f772bd1b23b601bf20,6,,,,,,wheel,,,,,,,,,,,2,1,0,6,6,13,1,,,,,,,,,,,,,,,,,,,,,,,,,,,,,,,,,,,,,,,,,,,,,,,,,,,,,,,,,,,,,,,,,,,,,,
,,?,0.000445,0,,,,,,stimuli/images/PICTURE_147.png,WOMEN,5a6adef80384310001944ba8,08/01/1954,2020-09-12_06h56.50.110,proactive3.2,2020.1.2,Win32,60,5f5adea66120081ea0f57a61,5f5c62f772bd1b23b601bf20,6,,,,,,hanger,,,,,,,,,,,1,1,0,7,7,7,1,,,,,,,,,,,,,,,,,,,,,,,,,,,,,,,,,,,,,,,,,,,,,,,,,,,,,,,,,,,,,,,,,,,,,,
,,?,0.00038,0,,,,,,stimuli/images/PICTURE_487.png,GIRL,5a6adef80384310001944ba8,08/01/1954,2020-09-12_06h56.50.110,proactive3.2,2020.1.2,Win32,60,5f5adea66120081ea0f57a61,5f5c62f772bd1b23b601bf20,6,,,,,,basket,,,,,,,,,,,5,1,0,8,8,45,1,,,,,,,,,,,,,,,,,,,,,,,,,,,,,,,,,,,,,,,,,,,,,,,,,,,,,,,,,,,,,,,,,,,,,,
,,?,0.00044,0,,,,,,stimuli/images/PICTURE_654.png,MONTH,5a6adef80384310001944ba8,08/01/1954,2020-09-12_06h56.50.110,proactive3.2,2020.1.2,Win32,60,5f5adea66120081ea0f57a61,5f5c62f772bd1b23b601bf20,6,,,,,,pencil,,,,,,,,,,,3,1,0,9,9,29,1,,,,,,,,,,,,,,,,,,,,,,,,,,,,,,,,,,,,,,,,,,,,,,,,,,,,,,,,,,,,,,,,,,,,,,
,,?,0.00038,0,,,,,,stimuli/images/PICTURE_491.png,GLASS,5a6adef80384310001944ba8,08/01/1954,2020-09-12_06h56.50.110,proactive3.2,2020.1.2,Win32,60,5f5adea66120081ea0f57a61,5f5c62f772bd1b23b601bf20,6,,,,,,rug,,,,,,,,,,,2,1,0,10,10,14,1,,,,,,,,,,,,,,,,,,,,,,,,,,,,,,,,,,,,,,,,,,,,,,,,,,,,,,,,,,,,,,,,,,,,,,
,,?,0.89189,0,,,,,,stimuli/images/PICTURE_95.png,MILLER,5a6adef80384310001944ba8,08/01/1954,2020-09-12_06h56.50.110,proactive3.2,2020.1.2,Win32,60,5f5adea66120081ea0f57a61,5f5c62f772bd1b23b601bf20,6,,,,,,suitcase,,,,,,,,,,,6,1,0,11,11,56,1,,,,,,,,,,,,,,,,,,,,,,,,,,,,,,,,,,,,,,,,,,,,,,,,,,,,,,,,,,,,,,,,,,,,,,
,,?,0.00093,0,,,,,,stimuli/images/PICTURE_32.png,PILLS,5a6adef80384310001944ba8,08/01/1954,2020-09-12_06h56.50.110,proactive3.2,2020.1.2,Win32,60,5f5adea66120081ea0f57a61,5f5c62f772bd1b23b601bf20,6,,,,,,crown,,,,,,,,,,,2,1,0,12,12,18,1,,,,,,,,,,,,,,,,,,,,,,,,,,,,,,,,,,,,,,,,,,,,,,,,,,,,,,,,,,,,,,,,,,,,,,
,,?,0.00063,0,,,,,,stimuli/images/PICTURE_68.png,ROOF,5a6adef80384310001944ba8,08/01/1954,2020-09-12_06h56.50.110,proactive3.2,2020.1.2,Win32,60,5f5adea66120081ea0f57a61,5f5c62f772bd1b23b601bf20,6,,,,,,candle,,,,,,,,,,,4,1,0,13,13,38,1,,,,,,,,,,,,,,,,,,,,,,,,,,,,,,,,,,,,,,,,,,,,,,,,,,,,,,,,,,,,,,,,,,,,,,
