consent_key.keys,consent_key.rt,recalled,recalled_rt,recall_acc,example_recall.thisRepN,example_recall.thisTrialN,example_recall.thisN,example_recall.thisIndex,example_recall.ran,file,word,participant,please enter your date of birth (dd/mm/yyyy),date,expName,psychopyVersion,OS,frameRate,STUDY_ID,SESSION_ID,list,prac_learn_study_loop.thisRepN,prac_learn_study_loop.thisTrialN,prac_learn_study_loop.thisN,prac_learn_study_loop.thisIndex,prac_learn_study_loop.ran,image,prac_learn_test_loop.thisRepN,prac_learn_test_loop.thisTrialN,prac_learn_test_loop.thisN,prac_learn_test_loop.thisIndex,prac_learn_test_loop.ran,learn_study_loop.thisRepN,learn_study_loop.thisTrialN,learn_study_loop.thisN,learn_study_loop.thisIndex,learn_study_loop.ran,list_no,block_no,learn_test_loop.thisRepN,learn_test_loop.thisTrialN,learn_test_loop.thisN,learn_test_loop.thisIndex,learn_test_loop.ran,learn_blocks.thisRepN,learn_blocks.thisTrialN,learn_blocks.thisN,learn_blocks.thisIndex,learn_blocks.ran,block_csv,key_resp_13.keys,key_resp_13.rt,learn_blocks_loop.thisRepN,learn_blocks_loop.thisTrialN,learn_blocks_loop.thisN,learn_blocks_loop.thisIndex,learn_blocks_loop.ran,final_learn_test.thisRepN,final_learn_test.thisTrialN,final_learn_test.thisN,final_learn_test.thisIndex,final_learn_test.ran,prac_wm_test_loop.thisRepN,prac_wm_test_loop.thisTrialN,prac_wm_test_loop.thisN,prac_wm_test_loop.thisIndex,prac_wm_test_loop.ran,wm_recalled1,wm_recall_rt1,wm_probed1,wm_recall_acc1,wm_recalled2,wm_recall_rt2,wm_probed2,wm_recall_acc2,wm_recalled3,wm_recall_rt3,wm_probed3,wm_recall_acc3,wm_recalled4,wm_recall_rt4,wm_probed4,wm_recall_acc4,prac_wm_trial_loop.thisRepN,prac_wm_trial_loop.thisTrialN,prac_wm_trial_loop.thisN,prac_wm_trial_loop.thisIndex,prac_wm_trial_loop.ran,word1,image1,file1,item_type1,word2,image2,file2,item_type2,word4,image4,file4,item_type4,word3,image3,file3,item_type3,wm_test_loop.thisRepN,wm_test_loop.thisTrialN,wm_test_loop.thisN,wm_test_loop.thisIndex,wm_test_loop.ran,wm_trial_loop.thisRepN,wm_trial_loop.thisTrialN,wm_trial_loop.thisN,wm_trial_loop.thisIndex,wm_trial_loop.ran
y,5.088,TOUGH,6.909,1,0,0,0,0,1,stimuli/images/PICTURE_747.png,TOUGH,5a8035cfaa46dd00016b7793,15/02/1955,2020-09-12_08h27.37.096,proactive3.2,2020.1.2,MacIntel,60,5f5adea66120081ea0f57a61,5f5c7790437b2a01043a7b82,3,,,,,,,,,,,,,,,,,,,,,,,,,,,,,,,,,,,,,,,,,,,,,,,,,,,,,,,,,,,,,,,,,,,,,,,,,,,,,,,,,,,,,,,,,,,,,
,,,,,,,,,,stimuli/images/PICTURE_378.png,LOSS,5a8035cfaa46dd00016b7793,15/02/1955,2020-09-12_08h27.37.096,proactive3.2,2020.1.2,MacIntel,60,5f5adea66120081ea0f57a61,5f5c7790437b2a01043a7b82,3,0,0,0,2,1,lobster,,,,,,,,,,,,,,,,,,,,,,,,,,,,,,,,,,,,,,,,,,,,,,,,,,,,,,,,,,,,,,,,,,,,,,,,,,,,,,,,,,,,,,,
,,,,,,,,,,stimuli/images/PICTURE_269.png,GENIUS,5a8035cfaa46dd00016b7793,15/02/1955,2020-09-12_08h27.37.096,proactive3.2,2020.1.2,MacIntel,60,5f5adea66120081ea0f57a61,5f5c7790437b2a01043a7b82,3,0,1,1,0,1,chameleon,,,,,,,,,,,,,,,,,,,,,,,,,,,,,,,,,,,,,,,,,,,,,,,,,,,,,,,,,,,,,,,,,,,,,,,,,,,,,,,,,,,,,,,
,,,,,,,,,,stimuli/images/PICTURE_727.png,CELL,5a8035cfaa46dd00016b7793,15/02/1955,2020-09-12_08h27.37.096,proactive3.2,2020.1.2,MacIntel,60,5f5adea66120081ea0f57a61,5f5c7790437b2a01043a7b82,3,0,2,2,1,1,hose,,,,,,,,,,,,,,,,,,,,,,,,,,,,,,,,,,,,,,,,,,,,,,,,,,,,,,,,,,,,,,,,,,,,,,,,,,,,,,,,,,,,,,,
,,,,,,,,,,stimuli/images/PICTURE_658.png,DEVIL,5a8035cfaa46dd00016b7793,15/02/1955,2020-09-12_08h27.37.096,proactive3.2,2020.1.2,MacIntel,60,5f5adea66120081ea0f57a61,5f5c7790437b2a01043a7b82,3,0,3,3,3,1,crow,,,,,,,,,,,,,,,,,,,,,,,,,,,,,,,,,,,,,,,,,,,,,,,,,,,,,,,,,,,,,,,,,,,,,,,,,,,,,,,,,,,,,,,
,,DEVIL,7.01,1,,,,,,stimuli/images/PICTURE_658.png,DEVIL,5a8035cfaa46dd00016b7793,15/02/1955,2020-09-12_08h27.37.096,proactive3.2,2020.1.2,MacIntel,60,5f5adea66120081ea0f57a61,5f5c7790437b2a01043a7b82,3,,,,,,crow,0,0,0,3,1,,,,,,,,,,,,,,,,,,,,,,,,,,,,,,,,,,,,,,,,,,,,,,,,,,,,,,,,,,,,,,,,,,,,,,,,,,,,,,,,,,
,,CELL,4.856,0,,,,,,stimuli/images/PICTURE_378.png,LOSS,5a8035cfaa46dd00016b7793,15/02/1955,2020-09-12_08h27.37.096,proactive3.2,2020.1.2,MacIntel,60,5f5adea66120081ea0f57a61,5f5c7790437b2a01043a7b82,3,,,,,,lobster,0,1,1,2,1,,,,,,,,,,,,,,,,,,,,,,,,,,,,,,,,,,,,,,,,,,,,,,,,,,,,,,,,,,,,,,,,,,,,,,,,,,,,,,,,,,
,,?,0.033,0,,,,,,stimuli/images/PICTURE_269.png,GENIUS,5a8035cfaa46dd00016b7793,15/02/1955,2020-09-12_08h27.37.096,proactive3.2,2020.1.2,MacIntel,60,5f5adea66120081ea0f57a61,5f5c7790437b2a01043a7b82,3,,,,,,chameleon,0,2,2,0,1,,,,,,,,,,,,,,,,,,,,,,,,,,,,,,,,,,,,,,,,,,,,,,,,,,,,,,,,,,,,,,,,,,,,,,,,,,,,,,,,,,
,,CELL,4.656,1,,,,,,stimuli/images/PICTURE_727.png,CELL,5a8035cfaa46dd00016b7793,15/02/1955,2020-09-12_08h27.37.096,proactive3.2,2020.1.2,MacIntel,60,5f5adea66120081ea0f57a61,5f5c7790437b2a01043a7b82,3,,,,,,hose,0,3,3,1,1,,,,,,,,,,,,,,,,,,,,,,,,,,,,,,,,,,,,,,,,,,,,,,,,,,,,,,,,,,,,,,,,,,,,,,,,,,,,,,,,,,
,,HARD,11.508,0,,,,,,stimuli/images/PICTURE_697.png,KILLER,5a8035cfaa46dd00016b7793,15/02/1955,2020-09-12_08h27.37.096,proactive3.2,2020.1.2,MacIntel,60,5f5adea66120081ea0f57a61,5f5c7790437b2a01043a7b82,3,,,,,,peach,0,4,4,4,1,,,,,,,,,,,,,,,,,,,,,,,,,,,,,,,,,,,,,,,,,,,,,,,,,,,,,,,,,,,,,,,,,,,,,,,,,,,,,,,,,,
,,,,,,,,,,stimuli/images/PICTURE_348.png,TOILET,5a8035cfaa46dd00016b7793,15/02/1955,2020-09-12_08h27.37.096,proactive3.2,2020.1.2,MacIntel,60,5f5adea66120081ea0f57a61,5f5c7790437b2a01043a7b82,3,,,,,,pepper,,,,,,0,0,0,4,1,1,2,,,,,,,,,,,,,,,,,,,,,,,,,,,,,,,,,,,,,,,,,,,,,,,,,,,,,,,,,,,,,,,,,,,,,,,,,,,
,,,,,,,,,,stimuli/images/PICTURE_177.png,HOUSE,5a8035cfaa46dd00016b7793,15/02/1955,2020-09-12_08h27.37.096,proactive3.2,2020.1.2,MacIntel,60,5f5adea66120081ea0f57a61,5f5c7790437b2a01043a7b82,3,,,,,,mushroom,,,,,,0,1,1,25,1,3,2,,,,,,,,,,,,,,,,,,,,,,,,,,,,,,,,,,,,,,,,,,,,,,,,,,,,,,,,,,,,,,,,,,,,,,,,,,,
,,,,,,,,,,stimuli/images/PICTURE_405.png,HOUSE,5a8035cfaa46dd00016b7793,15/02/1955,2020-09-12_08h27.37.096,proactive3.2,2020.1.2,MacIntel,60,5f5adea66120081ea0f57a61,5f5c7790437b2a01043a7b82,3,,,,,,anchor,,,,,,0,2,2,2,1,1,2,,,,,,,,,,,,,,,,,,,,,,,,,,,,,,,,,,,,,,,,,,,,,,,,,,,,,,,,,,,,,,,,,,,,,,,,,,,
,,,,,,,,,,stimuli/images/PICTURE_655.png,SALE,5a8035cfaa46dd00016b7793,15/02/1955,2020-09-12_08h27.37.096,proactive3.2,2020.1.2,MacIntel,60,5f5adea66120081ea0f57a61,5f5c7790437b2a01043a7b82,3,,,,,,megaphone,,,,,,0,3,3,57,1,6,2,,,,,,,,,,,,,,,,,,,,,,,,,,,,,,,,,,,,,,,,,,,,,,,,,,,,,,,,,,,,,,,,,,,,,,,,,,,
,,,,,,,,,,stimuli/images/PICTURE_215.png,FOOD,5a8035cfaa46dd00016b7793,15/02/1955,2020-09-12_08h27.37.096,proactive3.2,2020.1.2,MacIntel,60,5f5adea66120081ea0f57a61,5f5c7790437b2a01043a7b82,3,,,,,,boot,,,,,,0,4,4,5,1,1,2,,,,,,,,,,,,,,,,,,,,,,,,,,,,,,,,,,,,,,,,,,,,,,,,,,,,,,,,,,,,,,,,,,,,,,,,,,,
,,,,,,,,,,stimuli/images/PICTURE_677.png,FAMILY,5a8035cfaa46dd00016b7793,15/02/1955,2020-09-12_08h27.37.096,proactive3.2,2020.1.2,MacIntel,60,5f5adea66120081ea0f57a61,5f5c7790437b2a01043a7b82,3,,,,,,map,,,,,,0,5,5,53,1,6,2,,,,,,,,,,,,,,,,,,,,,,,,,,,,,,,,,,,,,,,,,,,,,,,,,,,,,,,,,,,,,,,,,,,,,,,,,,,
,,,,,,,,,,stimuli/images/PICTURE_33.png,COPS,5a8035cfaa46dd00016b7793,15/02/1955,2020-09-12_08h27.37.096,proactive3.2,2020.1.2,MacIntel,60,5f5adea66120081ea0f57a61,5f5c7790437b2a01043a7b82,3,,,,,,frame,,,,,,0,6,6,29,1,3,2,,,,,,,,,,,,,,,,,,,,,,,,,,,,,,,,,,,,,,,,,,,,,,,,,,,,,,,,,,,,,,,,,,,,,,,,,,,
,,,,,,,,,,stimuli/images/PICTURE_356.png,CANDY,5a8035cfaa46dd00016b7793,15/02/1955,2020-09-12_08h27.37.096,proactive3.2,2020.1.2,MacIntel,60,5f5adea66120081ea0f57a61,5f5c7790437b2a01043a7b82,3,,,,,,pawn,,,,,,0,7,7,46,1,5,2,,,,,,,,,,,,,,,,,,,,,,,,,,,,,,,,,,,,,,,,,,,,,,,,,,,,,,,,,,,,,,,,,,,,,,,,,,,
,,,,,,,,,,stimuli/images/PICTURE_470.png,BEAUTY,5a8035cfaa46dd00016b7793,15/02/1955,2020-09-12_08h27.37.096,proactive3.2,2020.1.2,MacIntel,60,5f5adea66120081ea0f57a61,5f5c7790437b2a01043a7b82,3,,,,,,motorbike,,,,,,0,8,8,26,1,3,2,,,,,,,,,,,,,,,,,,,,,,,,,,,,,,,,,,,,,,,,,,,,,,,,,,,,,,,,,,,,,,,,,,,,,,,,,,,
,,,,,,,,,,stimuli/images/PICTURE_504.png,HOUSE,5a8035cfaa46dd00016b7793,15/02/1955,2020-09-12_08h27.37.096,proactive3.2,2020.1.2,MacIntel,60,5f5adea66120081ea0f57a61,5f5c7790437b2a01043a7b82,3,,,,,,wheel,,,,,,0,9,9,36,1,4,2,,,,,,,,,,,,,,,,,,,,,,,,,,,,,,,,,,,,,,,,,,,,,,,,,,,,,,,,,,,,,,,,,,,,,,,,,,,
,,,,,,,,,,stimuli/images/PICTURE_2.png,JUNGLE,5a8035cfaa46dd00016b7793,15/02/1955,2020-09-12_08h27.37.096,proactive3.2,2020.1.2,MacIntel,60,5f5adea66120081ea0f57a61,5f5c7790437b2a01043a7b82,3,,,,,,tyre,,,,,,0,10,10,1,1,1,2,,,,,,,,,,,,,,,,,,,,,,,,,,,,,,,,,,,,,,,,,,,,,,,,,,,,,,,,,,,,,,,,,,,,,,,,,,,
,,,,,,,,,,stimuli/images/PICTURE_327.png,LEADER,5a8035cfaa46dd00016b7793,15/02/1955,2020-09-12_08h27.37.096,proactive3.2,2020.1.2,MacIntel,60,5f5adea66120081ea0f57a61,5f5c7790437b2a01043a7b82,3,,,,,,helmet,,,,,,0,11,11,17,1,2,2,,,,,,,,,,,,,,,,,,,,,,,,,,,,,,,,,,,,,,,,,,,,,,,,,,,,,,,,,,,,,,,,,,,,,,,,,,,
,,,,,,,,,,stimuli/images/PICTURE_57.png,NATION,5a8035cfaa46dd00016b7793,15/02/1955,2020-09-12_08h27.37.096,proactive3.2,2020.1.2,MacIntel,60,5f5adea66120081ea0f57a61,5f5c7790437b2a01043a7b82,3,,,,,,stamp,,,,,,0,12,12,21,1,3,2,,,,,,,,,,,,,,,,,,,,,,,,,,,,,,,,,,,,,,,,,,,,,,,,,,,,,,,,,,,,,,,,,,,,,,,,,,,
,,,,,,,,,,stimuli/images/PICTURE_314.png,SPEECH,5a8035cfaa46dd00016b7793,15/02/1955,2020-09-12_08h27.37.096,proactive3.2,2020.1.2,MacIntel,60,5f5adea66120081ea0f57a61,5f5c7790437b2a01043a7b82,3,,,,,,perfume,,,,,,0,13,13,35,1,4,2,,,,,,,,,,,,,,,,,,,,,,,,,,,,,,,,,,,,,,,,,,,,,,,,,,,,,,,,,,,,,,,,,,,,,,,,,,,
,,,,,,,,,,stimuli/images/PICTURE_509.png,BATH,5a8035cfaa46dd00016b7793,15/02/1955,2020-09-12_08h27.37.096,proactive3.2,2020.1.2,MacIntel,60,5f5adea66120081ea0f57a61,5f5c7790437b2a01043a7b82,3,,,,,,telephone,,,,,,0,14,14,15,1,2,2,,,,,,,,,,,,,,,,,,,,,,,,,,,,,,,,,,,,,,,,,,,,,,,,,,,,,,,,,,,,,,,,,,,,,,,,,,,
,,,,,,,,,,stimuli/images/PICTURE_57.png,CANDY,5a8035cfaa46dd00016b7793,15/02/1955,2020-09-12_08h27.37.096,proactive3.2,2020.1.2,MacIntel,60,5f5adea66120081ea0f57a61,5f5c7790437b2a01043a7b82,3,,,,,,stamp,,,,,,0,15,15,52,1,6,2,,,,,,,,,,,,,,,,,,,,,,,,,,,,,,,,,,,,,,,,,,,,,,,,,,,,,,,,,,,,,,,,,,,,,,,,,,,
,,,,,,,,,,stimuli/images/PICTURE_564.png,PLENTY,5a8035cfaa46dd00016b7793,15/02/1955,2020-09-12_08h27.37.096,proactive3.2,2020.1.2,MacIntel,60,5f5adea66120081ea0f57a61,5f5c7790437b2a01043a7b82,3,,,,,,spoon,,,,,,0,16,16,11,1,2,2,,,,,,,,,,,,,,,,,,,,,,,,,,,,,,,,,,,,,,,,,,,,,,,,,,,,,,,,,,,,,,,,,,,,,,,,,,,
,,,,,,,,,,stimuli/images/PICTURE_311.png,FLESH,5a8035cfaa46dd00016b7793,15/02/1955,2020-09-12_08h27.37.096,proactive3.2,2020.1.2,MacIntel,60,5f5adea66120081ea0f57a61,5f5c7790437b2a01043a7b82,3,,,,,,razor,,,,,,0,17,17,3,1,1,2,,,,,,,,,,,,,,,,,,,,,,,,,,,,,,,,,,,,,,,,,,,,,,,,,,,,,,,,,,,,,,,,,,,,,,,,,,,
,,,,,,,,,,stimuli/images/PICTURE_654.png,YEAR,5a8035cfaa46dd00016b7793,15/02/1955,2020-09-12_08h27.37.096,proactive3.2,2020.1.2,MacIntel,60,5f5adea66120081ea0f57a61,5f5c7790437b2a01043a7b82,3,,,,,,pencil,,,,,,0,18,18,41,1,5,2,,,,,,,,,,,,,,,,,,,,,,,,,,,,,,,,,,,,,,,,,,,,,,,,,,,,,,,,,,,,,,,,,,,,,,,,,,,
,,,,,,,,,,stimuli/images/PICTURE_147.png,LEADER,5a8035cfaa46dd00016b7793,15/02/1955,2020-09-12_08h27.37.096,proactive3.2,2020.1.2,MacIntel,60,5f5adea66120081ea0f57a61,5f5c7790437b2a01043a7b82,3,,,,,,hanger,,,,,,0,19,19,33,1,4,2,,,,,,,,,,,,,,,,,,,,,,,,,,,,,,,,,,,,,,,,,,,,,,,,,,,,,,,,,,,,,,,,,,,,,,,,,,,
,,,,,,,,,,stimuli/images/PICTURE_487.png,POLICY,5a8035cfaa46dd00016b7793,15/02/1955,2020-09-12_08h27.37.096,proactive3.2,2020.1.2,MacIntel,60,5f5adea66120081ea0f57a61,5f5c7790437b2a01043a7b82,3,,,,,,basket,,,,,,0,20,20,34,1,4,2,,,,,,,,,,,,,,,,,,,,,,,,,,,,,,,,,,,,,,,,,,,,,,,,,,,,,,,,,,,,,,,,,,,,,,,,,,,
,,,,,,,,,,stimuli/images/PICTURE_255.png,PENNY,5a8035cfaa46dd00016b7793,15/02/1955,2020-09-12_08h27.37.096,proactive3.2,2020.1.2,MacIntel,60,5f5adea66120081ea0f57a61,5f5c7790437b2a01043a7b82,3,,,,,,shovel,,,,,,0,21,21,19,1,2,2,,,,,,,,,,,,,,,,,,,,,,,,,,,,,,,,,,,,,,,,,,,,,,,,,,,,,,,,,,,,,,,,,,,,,,,,,,,
,,,,,,,,,,stimuli/images/PICTURE_509.png,SHOTS,5a8035cfaa46dd00016b7793,15/02/1955,2020-09-12_08h27.37.096,proactive3.2,2020.1.2,MacIntel,60,5f5adea66120081ea0f57a61,5f5c7790437b2a01043a7b82,3,,,,,,telephone,,,,,,0,22,22,7,1,1,2,,,,,,,,,,,,,,,,,,,,,,,,,,,,,,,,,,,,,,,,,,,,,,,,,,,,,,,,,,,,,,,,,,,,,,,,,,,
,,,,,,,,,,stimuli/images/PICTURE_509.png,MILLER,5a8035cfaa46dd00016b7793,15/02/1955,2020-09-12_08h27.37.096,proactive3.2,2020.1.2,MacIntel,60,5f5adea66120081ea0f57a61,5f5c7790437b2a01043a7b82,3,,,,,,telephone,,,,,,0,23,23,49,1,5,2,,,,,,,,,,,,,,,,,,,,,,,,,,,,,,,,,,,,,,,,,,,,,,,,,,,,,,,,,,,,,,,,,,,,,,,,,,,
,,,,,,,,,,stimuli/images/PICTURE_2.png,AREA,5a8035cfaa46dd00016b7793,15/02/1955,2020-09-12_08h27.37.096,proactive3.2,2020.1.2,MacIntel,60,5f5adea66120081ea0f57a61,5f5c7790437b2a01043a7b82,3,,,,,,tyre,,,,,,0,24,24,32,1,4,2,,,,,,,,,,,,,,,,,,,,,,,,,,,,,,,,,,,,,,,,,,,,,,,,,,,,,,,,,,,,,,,,,,,,,,,,,,,
,,,,,,,,,,stimuli/images/PICTURE_487.png,ROOF,5a8035cfaa46dd00016b7793,15/02/1955,2020-09-12_08h27.37.096,proactive3.2,2020.1.2,MacIntel,60,5f5adea66120081ea0f57a61,5f5c7790437b2a01043a7b82,3,,,,,,basket,,,,,,0,25,25,50,1,6,2,,,,,,,,,,,,,,,,,,,,,,,,,,,,,,,,,,,,,,,,,,,,,,,,,,,,,,,,,,,,,,,,,,,,,,,,,,,
,,,,,,,,,,stimuli/images/PICTURE_18.png,RIVER,5a8035cfaa46dd00016b7793,15/02/1955,2020-09-12_08h27.37.096,proactive3.2,2020.1.2,MacIntel,60,5f5adea66120081ea0f57a61,5f5c7790437b2a01043a7b82,3,,,,,,planet,,,,,,0,26,26,22,1,3,2,,,,,,,,,,,,,,,,,,,,,,,,,,,,,,,,,,,,,,,,,,,,,,,,,,,,,,,,,,,,,,,,,,,,,,,,,,,
,,,,,,,,,,stimuli/images/PICTURE_750.png,POLICY,5a8035cfaa46dd00016b7793,15/02/1955,2020-09-12_08h27.37.096,proactive3.2,2020.1.2,MacIntel,60,5f5adea66120081ea0f57a61,5f5c7790437b2a01043a7b82,3,,,,,,kettle,,,,,,0,27,27,44,1,5,2,,,,,,,,,,,,,,,,,,,,,,,,,,,,,,,,,,,,,,,,,,,,,,,,,,,,,,,,,,,,,,,,,,,,,,,,,,,
,,,,,,,,,,stimuli/images/PICTURE_95.png,NIGHT,5a8035cfaa46dd00016b7793,15/02/1955,2020-09-12_08h27.37.096,proactive3.2,2020.1.2,MacIntel,60,5f5adea66120081ea0f57a61,5f5c7790437b2a01043a7b82,3,,,,,,suitcase,,,,,,0,28,28,37,1,4,2,,,,,,,,,,,,,,,,,,,,,,,,,,,,,,,,,,,,,,,,,,,,,,,,,,,,,,,,,,,,,,,,,,,,,,,,,,,
,,,,,,,,,,stimuli/images/PICTURE_32.png,LETTER,5a8035cfaa46dd00016b7793,15/02/1955,2020-09-12_08h27.37.096,proactive3.2,2020.1.2,MacIntel,60,5f5adea66120081ea0f57a61,5f5c7790437b2a01043a7b82,3,,,,,,crown,,,,,,0,29,29,56,1,6,2,,,,,,,,,,,,,,,,,,,,,,,,,,,,,,,,,,,,,,,,,,,,,,,,,,,,,,,,,,,,,,,,,,,,,,,,,,,
,,,,,,,,,,stimuli/images/PICTURE_453.png,FAMILY,5a8035cfaa46dd00016b7793,15/02/1955,2020-09-12_08h27.37.096,proactive3.2,2020.1.2,MacIntel,60,5f5adea66120081ea0f57a61,5f5c7790437b2a01043a7b82,3,,,,,,scissors,,,,,,0,30,30,48,1,5,2,,,,,,,,,,,,,,,,,,,,,,,,,,,,,,,,,,,,,,,,,,,,,,,,,,,,,,,,,,,,,,,,,,,,,,,,,,,
,,,,,,,,,,stimuli/images/PICTURE_93.png,GIRL,5a8035cfaa46dd00016b7793,15/02/1955,2020-09-12_08h27.37.096,proactive3.2,2020.1.2,MacIntel,60,5f5adea66120081ea0f57a61,5f5c7790437b2a01043a7b82,3,,,,,,skateboard,,,,,,0,31,31,31,1,4,2,,,,,,,,,,,,,,,,,,,,,,,,,,,,,,,,,,,,,,,,,,,,,,,,,,,,,,,,,,,,,,,,,,,,,,,,,,,
,,,,,,,,,,stimuli/images/PICTURE_509.png,APPLE,5a8035cfaa46dd00016b7793,15/02/1955,2020-09-12_08h27.37.096,proactive3.2,2020.1.2,MacIntel,60,5f5adea66120081ea0f57a61,5f5c7790437b2a01043a7b82,3,,,,,,telephone,,,,,,0,32,32,38,1,4,2,,,,,,,,,,,,,,,,,,,,,,,,,,,,,,,,,,,,,,,,,,,,,,,,,,,,,,,,,,,,,,,,,,,,,,,,,,,
,,,,,,,,,,stimuli/images/PICTURE_403.png,FAMILY,5a8035cfaa46dd00016b7793,15/02/1955,2020-09-12_08h27.37.096,proactive3.2,2020.1.2,MacIntel,60,5f5adea66120081ea0f57a61,5f5c7790437b2a01043a7b82,3,,,,,,cathedral,,,,,,0,33,33,9,1,1,2,,,,,,,,,,,,,,,,,,,,,,,,,,,,,,,,,,,,,,,,,,,,,,,,,,,,,,,,,,,,,,,,,,,,,,,,,,,
,,,,,,,,,,stimuli/images/PICTURE_57.png,CASINO,5a8035cfaa46dd00016b7793,15/02/1955,2020-09-12_08h27.37.096,proactive3.2,2020.1.2,MacIntel,60,5f5adea66120081ea0f57a61,5f5c7790437b2a01043a7b82,3,,,,,,stamp,,,,,,0,34,34,12,1,2,2,,,,,,,,,,,,,,,,,,,,,,,,,,,,,,,,,,,,,,,,,,,,,,,,,,,,,,,,,,,,,,,,,,,,,,,,,,,
,,,,,,,,,,stimuli/images/PICTURE_297.png,BODY,5a8035cfaa46dd00016b7793,15/02/1955,2020-09-12_08h27.37.096,proactive3.2,2020.1.2,MacIntel,60,5f5adea66120081ea0f57a61,5f5c7790437b2a01043a7b82,3,,,,,,aeroplane,,,,,,0,35,35,51,1,6,2,,,,,,,,,,,,,,,,,,,,,,,,,,,,,,,,,,,,,,,,,,,,,,,,,,,,,,,,,,,,,,,,,,,,,,,,,,,
,,,,,,,,,,stimuli/images/PICTURE_123.png,SALE,5a8035cfaa46dd00016b7793,15/02/1955,2020-09-12_08h27.37.096,proactive3.2,2020.1.2,MacIntel,60,5f5adea66120081ea0f57a61,5f5c7790437b2a01043a7b82,3,,,,,,dart,,,,,,0,36,36,8,1,1,2,,,,,,,,,,,,,,,,,,,,,,,,,,,,,,,,,,,,,,,,,,,,,,,,,,,,,,,,,,,,,,,,,,,,,,,,,,,
,,,,,,,,,,stimuli/images/PICTURE_311.png,TOILET,5a8035cfaa46dd00016b7793,15/02/1955,2020-09-12_08h27.37.096,proactive3.2,2020.1.2,MacIntel,60,5f5adea66120081ea0f57a61,5f5c7790437b2a01043a7b82,3,,,,,,razor,,,,,,0,37,37,54,1,6,2,,,,,,,,,,,,,,,,,,,,,,,,,,,,,,,,,,,,,,,,,,,,,,,,,,,,,,,,,,,,,,,,,,,,,,,,,,,
,,,,,,,,,,stimuli/images/PICTURE_677.png,PHOTO,5a8035cfaa46dd00016b7793,15/02/1955,2020-09-12_08h27.37.096,proactive3.2,2020.1.2,MacIntel,60,5f5adea66120081ea0f57a61,5f5c7790437b2a01043a7b82,3,,,,,,map,,,,,,0,38,38,14,1,2,2,,,,,,,,,,,,,,,,,,,,,,,,,,,,,,,,,,,,,,,,,,,,,,,,,,,,,,,,,,,,,,,,,,,,,,,,,,,
,,,,,,,,,,stimuli/images/PICTURE_160.png,HOTEL,5a8035cfaa46dd00016b7793,15/02/1955,2020-09-12_08h27.37.096,proactive3.2,2020.1.2,MacIntel,60,5f5adea66120081ea0f57a61,5f5c7790437b2a01043a7b82,3,,,,,,wheelbarrow,,,,,,0,39,39,16,1,2,2,,,,,,,,,,,,,,,,,,,,,,,,,,,,,,,,,,,,,,,,,,,,,,,,,,,,,,,,,,,,,,,,,,,,,,,,,,,
,,,,,,,,,,stimuli/images/PICTURE_491.png,SERIES,5a8035cfaa46dd00016b7793,15/02/1955,2020-09-12_08h27.37.096,proactive3.2,2020.1.2,MacIntel,60,5f5adea66120081ea0f57a61,5f5c7790437b2a01043a7b82,3,,,,,,rug,,,,,,0,40,40,39,1,4,2,,,,,,,,,,,,,,,,,,,,,,,,,,,,,,,,,,,,,,,,,,,,,,,,,,,,,,,,,,,,,,,,,,,,,,,,,,,
,,,,,,,,,,stimuli/images/PICTURE_348.png,DUDE,5a8035cfaa46dd00016b7793,15/02/1955,2020-09-12_08h27.37.096,proactive3.2,2020.1.2,MacIntel,60,5f5adea66120081ea0f57a61,5f5c7790437b2a01043a7b82,3,,,,,,pepper,,,,,,0,41,41,59,1,6,2,,,,,,,,,,,,,,,,,,,,,,,,,,,,,,,,,,,,,,,,,,,,,,,,,,,,,,,,,,,,,,,,,,,,,,,,,,,
,,,,,,,,,,stimuli/images/PICTURE_708.png,VALLEY,5a8035cfaa46dd00016b7793,15/02/1955,2020-09-12_08h27.37.096,proactive3.2,2020.1.2,MacIntel,60,5f5adea66120081ea0f57a61,5f5c7790437b2a01043a7b82,3,,,,,,monkey,,,,,,0,42,42,45,1,5,2,,,,,,,,,,,,,,,,,,,,,,,,,,,,,,,,,,,,,,,,,,,,,,,,,,,,,,,,,,,,,,,,,,,,,,,,,,,
,,,,,,,,,,stimuli/images/PICTURE_215.png,BOYS,5a8035cfaa46dd00016b7793,15/02/1955,2020-09-12_08h27.37.096,proactive3.2,2020.1.2,MacIntel,60,5f5adea66120081ea0f57a61,5f5c7790437b2a01043a7b82,3,,,,,,boot,,,,,,0,43,43,24,1,3,2,,,,,,,,,,,,,,,,,,,,,,,,,,,,,,,,,,,,,,,,,,,,,,,,,,,,,,,,,,,,,,,,,,,,,,,,,,,
,,,,,,,,,,stimuli/images/PICTURE_285.png,WRITER,5a8035cfaa46dd00016b7793,15/02/1955,2020-09-12_08h27.37.096,proactive3.2,2020.1.2,MacIntel,60,5f5adea66120081ea0f57a61,5f5c7790437b2a01043a7b82,3,,,,,,carrot,,,,,,0,44,44,6,1,1,2,,,,,,,,,,,,,,,,,,,,,,,,,,,,,,,,,,,,,,,,,,,,,,,,,,,,,,,,,,,,,,,,,,,,,,,,,,,
,,,,,,,,,,stimuli/images/PICTURE_208.png,SPIRIT,5a8035cfaa46dd00016b7793,15/02/1955,2020-09-12_08h27.37.096,proactive3.2,2020.1.2,MacIntel,60,5f5adea66120081ea0f57a61,5f5c7790437b2a01043a7b82,3,,,,,,microphone,,,,,,0,45,45,28,1,3,2,,,,,,,,,,,,,,,,,,,,,,,,,,,,,,,,,,,,,,,,,,,,,,,,,,,,,,,,,,,,,,,,,,,,,,,,,,,
,,,,,,,,,,stimuli/images/PICTURE_2.png,YARD,5a8035cfaa46dd00016b7793,15/02/1955,2020-09-12_08h27.37.096,proactive3.2,2020.1.2,MacIntel,60,5f5adea66120081ea0f57a61,5f5c7790437b2a01043a7b82,3,,,,,,tyre,,,,,,0,46,46,55,1,6,2,,,,,,,,,,,,,,,,,,,,,,,,,,,,,,,,,,,,,,,,,,,,,,,,,,,,,,,,,,,,,,,,,,,,,,,,,,,
,,,,,,,,,,stimuli/images/PICTURE_452.png,COPS,5a8035cfaa46dd00016b7793,15/02/1955,2020-09-12_08h27.37.096,proactive3.2,2020.1.2,MacIntel,60,5f5adea66120081ea0f57a61,5f5c7790437b2a01043a7b82,3,,,,,,watch,,,,,,0,47,47,0,1,1,2,,,,,,,,,,,,,,,,,,,,,,,,,,,,,,,,,,,,,,,,,,,,,,,,,,,,,,,,,,,,,,,,,,,,,,,,,,,
,,,,,,,,,,stimuli/images/PICTURE_141.png,CLIENT,5a8035cfaa46dd00016b7793,15/02/1955,2020-09-12_08h27.37.096,proactive3.2,2020.1.2,MacIntel,60,5f5adea66120081ea0f57a61,5f5c7790437b2a01043a7b82,3,,,,,,sunflower,,,,,,0,48,48,30,1,4,2,,,,,,,,,,,,,,,,,,,,,,,,,,,,,,,,,,,,,,,,,,,,,,,,,,,,,,,,,,,,,,,,,,,,,,,,,,,
,,,,,,,,,,stimuli/images/PICTURE_405.png,JUNGLE,5a8035cfaa46dd00016b7793,15/02/1955,2020-09-12_08h27.37.096,proactive3.2,2020.1.2,MacIntel,60,5f5adea66120081ea0f57a61,5f5c7790437b2a01043a7b82,3,,,,,,anchor,,,,,,0,49,49,58,1,6,2,,,,,,,,,,,,,,,,,,,,,,,,,,,,,,,,,,,,,,,,,,,,,,,,,,,,,,,,,,,,,,,,,,,,,,,,,,,
,,,,,,,,,,stimuli/images/PICTURE_285.png,PRINCE,5a8035cfaa46dd00016b7793,15/02/1955,2020-09-12_08h27.37.096,proactive3.2,2020.1.2,MacIntel,60,5f5adea66120081ea0f57a61,5f5c7790437b2a01043a7b82,3,,,,,,carrot,,,,,,0,50,50,20,1,3,2,,,,,,,,,,,,,,,,,,,,,,,,,,,,,,,,,,,,,,,,,,,,,,,,,,,,,,,,,,,,,,,,,,,,,,,,,,,
,,,,,,,,,,stimuli/images/PICTURE_654.png,COPS,5a8035cfaa46dd00016b7793,15/02/1955,2020-09-12_08h27.37.096,proactive3.2,2020.1.2,MacIntel,60,5f5adea66120081ea0f57a61,5f5c7790437b2a01043a7b82,3,,,,,,pencil,,,,,,0,51,51,10,1,2,2,,,,,,,,,,,,,,,,,,,,,,,,,,,,,,,,,,,,,,,,,,,,,,,,,,,,,,,,,,,,,,,,,,,,,,,,,,,
,,,,,,,,,,stimuli/images/PICTURE_470.png,MOMENT,5a8035cfaa46dd00016b7793,15/02/1955,2020-09-12_08h27.37.096,proactive3.2,2020.1.2,MacIntel,60,5f5adea66120081ea0f57a61,5f5c7790437b2a01043a7b82,3,,,,,,motorbike,,,,,,0,52,52,40,1,5,2,,,,,,,,,,,,,,,,,,,,,,,,,,,,,,,,,,,,,,,,,,,,,,,,,,,,,,,,,,,,,,,,,,,,,,,,,,,
,,,,,,,,,,stimuli/images/PICTURE_667.png,GLASS,5a8035cfaa46dd00016b7793,15/02/1955,2020-09-12_08h27.37.096,proactive3.2,2020.1.2,MacIntel,60,5f5adea66120081ea0f57a61,5f5c7790437b2a01043a7b82,3,,,,,,daisy,,,,,,0,53,53,27,1,3,2,,,,,,,,,,,,,,,,,,,,,,,,,,,,,,,,,,,,,,,,,,,,,,,,,,,,,,,,,,,,,,,,,,,,,,,,,,,
,,,,,,,,,,stimuli/images/PICTURE_68.png,KIND,5a8035cfaa46dd00016b7793,15/02/1955,2020-09-12_08h27.37.096,proactive3.2,2020.1.2,MacIntel,60,5f5adea66120081ea0f57a61,5f5c7790437b2a01043a7b82,3,,,,,,candle,,,,,,0,54,54,23,1,3,2,,,,,,,,,,,,,,,,,,,,,,,,,,,,,,,,,,,,,,,,,,,,,,,,,,,,,,,,,,,,,,,,,,,,,,,,,,,
,,,,,,,,,,stimuli/images/PICTURE_692.png,DUDE,5a8035cfaa46dd00016b7793,15/02/1955,2020-09-12_08h27.37.096,proactive3.2,2020.1.2,MacIntel,60,5f5adea66120081ea0f57a61,5f5c7790437b2a01043a7b82,3,,,,,,cherry,,,,,,0,55,55,47,1,5,2,,,,,,,,,,,,,,,,,,,,,,,,,,,,,,,,,,,,,,,,,,,,,,,,,,,,,,,,,,,,,,,,,,,,,,,,,,,
,,,,,,,,,,stimuli/images/PICTURE_405.png,JUNGLE,5a8035cfaa46dd00016b7793,15/02/1955,2020-09-12_08h27.37.096,proactive3.2,2020.1.2,MacIntel,60,5f5adea66120081ea0f57a61,5f5c7790437b2a01043a7b82,3,,,,,,anchor,,,,,,0,56,56,13,1,2,2,,,,,,,,,,,,,,,,,,,,,,,,,,,,,,,,,,,,,,,,,,,,,,,,,,,,,,,,,,,,,,,,,,,,,,,,,,,
,,,,,,,,,,stimuli/images/PICTURE_296.png,CLOCK,5a8035cfaa46dd00016b7793,15/02/1955,2020-09-12_08h27.37.096,proactive3.2,2020.1.2,MacIntel,60,5f5adea66120081ea0f57a61,5f5c7790437b2a01043a7b82,3,,,,,,bolt,,,,,,0,57,57,18,1,2,2,,,,,,,,,,,,,,,,,,,,,,,,,,,,,,,,,,,,,,,,,,,,,,,,,,,,,,,,,,,,,,,,,,,,,,,,,,,
,,,,,,,,,,stimuli/images/PICTURE_688.png,CLOCK,5a8035cfaa46dd00016b7793,15/02/1955,2020-09-12_08h27.37.096,proactive3.2,2020.1.2,MacIntel,60,5f5adea66120081ea0f57a61,5f5c7790437b2a01043a7b82,3,,,,,,runner,,,,,,0,58,58,42,1,5,2,,,,,,,,,,,,,,,,,,,,,,,,,,,,,,,,,,,,,,,,,,,,,,,,,,,,,,,,,,,,,,,,,,,,,,,,,,,
,,?,0.002,0,,,,,,stimuli/images/PICTURE_311.png,TOILET,5a8035cfaa46dd00016b7793,15/02/1955,2020-09-12_08h27.37.096,proactive3.2,2020.1.2,MacIntel,60,5f5adea66120081ea0f57a61,5f5c7790437b2a01043a7b82,3,,,,,,razor,,,,,,,,,,,6,2,0,0,0,54,1,,,,,,,,,,,,,,,,,,,,,,,,,,,,,,,,,,,,,,,,,,,,,,,,,,,,,,,,,,,,,,,,,,,,,,
,,?,0.001,0,,,,,,stimuli/images/PICTURE_2.png,JUNGLE,5a8035cfaa46dd00016b7793,15/02/1955,2020-09-12_08h27.37.096,proactive3.2,2020.1.2,MacIntel,60,5f5adea66120081ea0f57a61,5f5c7790437b2a01043a7b82,3,,,,,,tyre,,,,,,,,,,,1,2,0,1,1,1,1,,,,,,,,,,,,,,,,,,,,,,,,,,,,,,,,,,,,,,,,,,,,,,,,,,,,,,,,,,,,,,,,,,,,,,
,,?,0.001,0,,,,,,stimuli/images/PICTURE_504.png,HOUSE,5a8035cfaa46dd00016b7793,15/02/1955,2020-09-12_08h27.37.096,proactive3.2,2020.1.2,MacIntel,60,5f5adea66120081ea0f57a61,5f5c7790437b2a01043a7b82,3,,,,,,wheel,,,,,,,,,,,4,2,0,2,2,36,1,,,,,,,,,,,,,,,,,,,,,,,,,,,,,,,,,,,,,,,,,,,,,,,,,,,,,,,,,,,,,,,,,,,,,,
,,?,0.001,0,,,,,,stimuli/images/PICTURE_2.png,YARD,5a8035cfaa46dd00016b7793,15/02/1955,2020-09-12_08h27.37.096,proactive3.2,2020.1.2,MacIntel,60,5f5adea66120081ea0f57a61,5f5c7790437b2a01043a7b82,3,,,,,,tyre,,,,,,,,,,,6,2,0,3,3,55,1,,,,,,,,,,,,,,,,,,,,,,,,,,,,,,,,,,,,,,,,,,,,,,,,,,,,,,,,,,,,,,,,,,,,,,
,,?,0.001,0,,,,,,stimuli/images/PICTURE_487.png,POLICY,5a8035cfaa46dd00016b7793,15/02/1955,2020-09-12_08h27.37.096,proactive3.2,2020.1.2,MacIntel,60,5f5adea66120081ea0f57a61,5f5c7790437b2a01043a7b82,3,,,,,,basket,,,,,,,,,,,4,2,0,4,4,34,1,,,,,,,,,,,,,,,,,,,,,,,,,,,,,,,,,,,,,,,,,,,,,,,,,,,,,,,,,,,,,,,,,,,,,,
,,?,0.001,0,,,,,,stimuli/images/PICTURE_405.png,JUNGLE,5a8035cfaa46dd00016b7793,15/02/1955,2020-09-12_08h27.37.096,proactive3.2,2020.1.2,MacIntel,60,5f5adea66120081ea0f57a61,5f5c7790437b2a01043a7b82,3,,,,,,anchor,,,,,,,,,,,6,2,0,5,5,58,1,,,,,,,,,,,,,,,,,,,,,,,,,,,,,,,,,,,,,,,,,,,,,,,,,,,,,,,,,,,,,,,,,,,,,,
,,?,0.001,0,,,,,,stimuli/images/PICTURE_57.png,CANDY,5a8035cfaa46dd00016b7793,15/02/1955,2020-09-12_08h27.37.096,proactive3.2,2020.1.2,MacIntel,60,5f5adea66120081ea0f57a61,5f5c7790437b2a01043a7b82,3,,,,,,stamp,,,,,,,,,,,6,2,0,6,6,52,1,,,,,,,,,,,,,,,,,,,,,,,,,,,,,,,,,,,,,,,,,,,,,,,,,,,,,,,,,,,,,,,,,,,,,,
,,?,0.001,0,,,,,,stimuli/images/PICTURE_215.png,FOOD,5a8035cfaa46dd00016b7793,15/02/1955,2020-09-12_08h27.37.096,proactive3.2,2020.1.2,MacIntel,60,5f5adea66120081ea0f57a61,5f5c7790437b2a01043a7b82,3,,,,,,boot,,,,,,,,,,,1,2,0,7,7,5,1,,,,,,,,,,,,,,,,,,,,,,,,,,,,,,,,,,,,,,,,,,,,,,,,,,,,,,,,,,,,,,,,,,,,,,
,,?,0,0,,,,,,stimuli/images/PICTURE_750.png,POLICY,5a8035cfaa46dd00016b7793,15/02/1955,2020-09-12_08h27.37.096,proactive3.2,2020.1.2,MacIntel,60,5f5adea66120081ea0f57a61,5f5c7790437b2a01043a7b82,3,,,,,,kettle,,,,,,,,,,,5,2,0,8,8,44,1,,,,,,,,,,,,,,,,,,,,,,,,,,,,,,,,,,,,,,,,,,,,,,,,,,,,,,,,,,,,,,,,,,,,,,
,,?,0.001,0,,,,,,stimuli/images/PICTURE_655.png,SALE,5a8035cfaa46dd00016b7793,15/02/1955,2020-09-12_08h27.37.096,proactive3.2,2020.1.2,MacIntel,60,5f5adea66120081ea0f57a61,5f5c7790437b2a01043a7b82,3,,,,,,megaphone,,,,,,,,,,,6,2,0,9,9,57,1,,,,,,,,,,,,,,,,,,,,,,,,,,,,,,,,,,,,,,,,,,,,,,,,,,,,,,,,,,,,,,,,,,,,,,
,,?,0.001,0,,,,,,stimuli/images/PICTURE_285.png,WRITER,5a8035cfaa46dd00016b7793,15/02/1955,2020-09-12_08h27.37.096,proactive3.2,2020.1.2,MacIntel,60,5f5adea66120081ea0f57a61,5f5c7790437b2a01043a7b82,3,,,,,,carrot,,,,,,,,,,,1,2,0,10,10,6,1,,,,,,,,,,,,,,,,,,,,,,,,,,,,,,,,,,,,,,,,,,,,,,,,,,,,,,,,,,,,,,,,,,,,,,
,,PRINCE,6.832,1,,,,,,stimuli/images/PICTURE_285.png,PRINCE,5a8035cfaa46dd00016b7793,15/02/1955,2020-09-12_08h27.37.096,proactive3.2,2020.1.2,MacIntel,60,5f5adea66120081ea0f57a61,5f5c7790437b2a01043a7b82,3,,,,,,carrot,,,,,,,,,,,3,2,0,11,11,20,1,,,,,,,,,,,,,,,,,,,,,,,,,,,,,,,,,,,,,,,,,,,,,,,,,,,,,,,,,,,,,,,,,,,,,,
,,?,0.001,0,,,,,,stimuli/images/PICTURE_296.png,CLOCK,5a8035cfaa46dd00016b7793,15/02/1955,2020-09-12_08h27.37.096,proactive3.2,2020.1.2,MacIntel,60,5f5adea66120081ea0f57a61,5f5c7790437b2a01043a7b82,3,,,,,,bolt,,,,,,,,,,,2,2,0,12,12,18,1,,,,,,,,,,,,,,,,,,,,,,,,,,,,,,,,,,,,,,,,,,,,,,,,,,,,,,,,,,,,,,,,,,,,,,
,,?,0.001,0,,,,,,stimuli/images/PICTURE_509.png,SHOTS,5a8035cfaa46dd00016b7793,15/02/1955,2020-09-12_08h27.37.096,proactive3.2,2020.1.2,MacIntel,60,5f5adea66120081ea0f57a61,5f5c7790437b2a01043a7b82,3,,,,,,telephone,,,,,,,,,,,1,2,0,13,13,7,1,,,,,,,,,,,,,,,,,,,,,,,,,,,,,,,,,,,,,,,,,,,,,,,,,,,,,,,,,,,,,,,,,,,,,,
,,?,0.001,0,,,,,,stimuli/images/PICTURE_509.png,MILLER,5a8035cfaa46dd00016b7793,15/02/1955,2020-09-12_08h27.37.096,proactive3.2,2020.1.2,MacIntel,60,5f5adea66120081ea0f57a61,5f5c7790437b2a01043a7b82,3,,,,,,telephone,,,,,,,,,,,5,2,0,14,14,49,1,,,,,,,,,,,,,,,,,,,,,,,,,,,,,,,,,,,,,,,,,,,,,,,,,,,,,,,,,,,,,,,,,,,,,,
,,?,0,0,,,,,,stimuli/images/PICTURE_2.png,AREA,5a8035cfaa46dd00016b7793,15/02/1955,2020-09-12_08h27.37.096,proactive3.2,2020.1.2,MacIntel,60,5f5adea66120081ea0f57a61,5f5c7790437b2a01043a7b82,3,,,,,,tyre,,,,,,,,,,,4,2,0,15,15,32,1,,,,,,,,,,,,,,,,,,,,,,,,,,,,,,,,,,,,,,,,,,,,,,,,,,,,,,,,,,,,,,,,,,,,,,
,,?,0.001,0,,,,,,stimuli/images/PICTURE_32.png,LETTER,5a8035cfaa46dd00016b7793,15/02/1955,2020-09-12_08h27.37.096,proactive3.2,2020.1.2,MacIntel,60,5f5adea66120081ea0f57a61,5f5c7790437b2a01043a7b82,3,,,,,,crown,,,,,,,,,,,6,2,0,16,16,56,1,,,,,,,,,,,,,,,,,,,,,,,,,,,,,,,,,,,,,,,,,,,,,,,,,,,,,,,,,,,,,,,,,,,,,,
,,?,0,0,,,,,,stimuli/images/PICTURE_491.png,SERIES,5a8035cfaa46dd00016b7793,15/02/1955,2020-09-12_08h27.37.096,proactive3.2,2020.1.2,MacIntel,60,5f5adea66120081ea0f57a61,5f5c7790437b2a01043a7b82,3,,,,,,rug,,,,,,,,,,,4,2,0,17,17,39,1,,,,,,,,,,,,,,,,,,,,,,,,,,,,,,,,,,,,,,,,,,,,,,,,,,,,,,,,,,,,,,,,,,,,,,
,,?,0.001,0,,,,,,stimuli/images/PICTURE_255.png,PENNY,5a8035cfaa46dd00016b7793,15/02/1955,2020-09-12_08h27.37.096,proactive3.2,2020.1.2,MacIntel,60,5f5adea66120081ea0f57a61,5f5c7790437b2a01043a7b82,3,,,,,,shovel,,,,,,,,,,,2,2,0,18,18,19,1,,,,,,,,,,,,,,,,,,,,,,,,,,,,,,,,,,,,,,,,,,,,,,,,,,,,,,,,,,,,,,,,,,,,,,
,,?,0,0,,,,,,stimuli/images/PICTURE_564.png,PLENTY,5a8035cfaa46dd00016b7793,15/02/1955,2020-09-12_08h27.37.096,proactive3.2,2020.1.2,MacIntel,60,5f5adea66120081ea0f57a61,5f5c7790437b2a01043a7b82,3,,,,,,spoon,,,,,,,,,,,2,2,0,19,19,11,1,,,,,,,,,,,,,,,,,,,,,,,,,,,,,,,,,,,,,,,,,,,,,,,,,,,,,,,,,,,,,,,,,,,,,,
,,?,0.001,0,,,,,,stimuli/images/PICTURE_160.png,HOTEL,5a8035cfaa46dd00016b7793,15/02/1955,2020-09-12_08h27.37.096,proactive3.2,2020.1.2,MacIntel,60,5f5adea66120081ea0f57a61,5f5c7790437b2a01043a7b82,3,,,,,,wheelbarrow,,,,,,,,,,,2,2,0,20,20,16,1,,,,,,,,,,,,,,,,,,,,,,,,,,,,,,,,,,,,,,,,,,,,,,,,,,,,,,,,,,,,,,,,,,,,,,
,,KIND,4.492,1,,,,,,stimuli/images/PICTURE_68.png,KIND,5a8035cfaa46dd00016b7793,15/02/1955,2020-09-12_08h27.37.096,proactive3.2,2020.1.2,MacIntel,60,5f5adea66120081ea0f57a61,5f5c7790437b2a01043a7b82,3,,,,,,candle,,,,,,,,,,,3,2,0,21,21,23,1,,,,,,,,,,,,,,,,,,,,,,,,,,,,,,,,,,,,,,,,,,,,,,,,,,,,,,,,,,,,,,,,,,,,,,
,,?,0.001,0,,,,,,stimuli/images/PICTURE_677.png,PHOTO,5a8035cfaa46dd00016b7793,15/02/1955,2020-09-12_08h27.37.096,proactive3.2,2020.1.2,MacIntel,60,5f5adea66120081ea0f57a61,5f5c7790437b2a01043a7b82,3,,,,,,map,,,,,,,,,,,2,2,0,22,22,14,1,,,,,,,,,,,,,,,,,,,,,,,,,,,,,,,,,,,,,,,,,,,,,,,,,,,,,,,,,,,,,,,,,,,,,,
,,?,0.001,0,,,,,,stimuli/images/PICTURE_677.png,FAMILY,5a8035cfaa46dd00016b7793,15/02/1955,2020-09-12_08h27.37.096,proactive3.2,2020.1.2,MacIntel,60,5f5adea66120081ea0f57a61,5f5c7790437b2a01043a7b82,3,,,,,,map,,,,,,,,,,,6,2,0,23,23,53,1,,,,,,,,,,,,,,,,,,,,,,,,,,,,,,,,,,,,,,,,,,,,,,,,,,,,,,,,,,,,,,,,,,,,,,
,,?,0,0,,,,,,stimuli/images/PICTURE_147.png,LEADER,5a8035cfaa46dd00016b7793,15/02/1955,2020-09-12_08h27.37.096,proactive3.2,2020.1.2,MacIntel,60,5f5adea66120081ea0f57a61,5f5c7790437b2a01043a7b82,3,,,,,,hanger,,,,,,,,,,,4,2,0,24,24,33,1,,,,,,,,,,,,,,,,,,,,,,,,,,,,,,,,,,,,,,,,,,,,,,,,,,,,,,,,,,,,,,,,,,,,,,
,,?,0.001,0,,,,,,stimuli/images/PICTURE_470.png,MOMENT,5a8035cfaa46dd00016b7793,15/02/1955,2020-09-12_08h27.37.096,proactive3.2,2020.1.2,MacIntel,60,5f5adea66120081ea0f57a61,5f5c7790437b2a01043a7b82,3,,,,,,motorbike,,,,,,,,,,,5,2,0,25,25,40,1,,,,,,,,,,,,,,,,,,,,,,,,,,,,,,,,,,,,,,,,,,,,,,,,,,,,,,,,,,,,,,,,,,,,,,
,,NATION,6.433,1,,,,,,stimuli/images/PICTURE_57.png,NATION,5a8035cfaa46dd00016b7793,15/02/1955,2020-09-12_08h27.37.096,proactive3.2,2020.1.2,MacIntel,60,5f5adea66120081ea0f57a61,5f5c7790437b2a01043a7b82,3,,,,,,stamp,,,,,,,,,,,3,2,0,26,26,21,1,,,,,,,,,,,,,,,,,,,,,,,,,,,,,,,,,,,,,,,,,,,,,,,,,,,,,,,,,,,,,,,,,,,,,,
,,?,0.002,0,,,,,,stimuli/images/PICTURE_509.png,BATH,5a8035cfaa46dd00016b7793,15/02/1955,2020-09-12_08h27.37.096,proactive3.2,2020.1.2,MacIntel,60,5f5adea66120081ea0f57a61,5f5c7790437b2a01043a7b82,3,,,,,,telephone,,,,,,,,,,,2,2,0,27,27,15,1,,,,,,,,,,,,,,,,,,,,,,,,,,,,,,,,,,,,,,,,,,,,,,,,,,,,,,,,,,,,,,,,,,,,,,
,,?,0.001,0,,,,,,stimuli/images/PICTURE_356.png,CANDY,5a8035cfaa46dd00016b7793,15/02/1955,2020-09-12_08h27.37.096,proactive3.2,2020.1.2,MacIntel,60,5f5adea66120081ea0f57a61,5f5c7790437b2a01043a7b82,3,,,,,,pawn,,,,,,,,,,,5,2,0,28,28,46,1,,,,,,,,,,,,,,,,,,,,,,,,,,,,,,,,,,,,,,,,,,,,,,,,,,,,,,,,,,,,,,,,,,,,,,
,,?,0.001,0,,,,,,stimuli/images/PICTURE_348.png,DUDE,5a8035cfaa46dd00016b7793,15/02/1955,2020-09-12_08h27.37.096,proactive3.2,2020.1.2,MacIntel,60,5f5adea66120081ea0f57a61,5f5c7790437b2a01043a7b82,3,,,,,,pepper,,,,,,,,,,,6,2,0,29,29,59,1,,,,,,,,,,,,,,,,,,,,,,,,,,,,,,,,,,,,,,,,,,,,,,,,,,,,,,,,,,,,,,,,,,,,,,
,,?,0.001,0,,,,,,stimuli/images/PICTURE_453.png,FAMILY,5a8035cfaa46dd00016b7793,15/02/1955,2020-09-12_08h27.37.096,proactive3.2,2020.1.2,MacIntel,60,5f5adea66120081ea0f57a61,5f5c7790437b2a01043a7b82,3,,,,,,scissors,,,,,,,,,,,5,2,0,30,30,48,1,,,,,,,,,,,,,,,,,,,,,,,,,,,,,,,,,,,,,,,,,,,,,,,,,,,,,,,,,,,,,,,,,,,,,,
,,?,0,0,,,,,,stimuli/images/PICTURE_297.png,BODY,5a8035cfaa46dd00016b7793,15/02/1955,2020-09-12_08h27.37.096,proactive3.2,2020.1.2,MacIntel,60,5f5adea66120081ea0f57a61,5f5c7790437b2a01043a7b82,3,,,,,,aeroplane,,,,,,,,,,,6,2,0,31,31,51,1,,,,,,,,,,,,,,,,,,,,,,,,,,,,,,,,,,,,,,,,,,,,,,,,,,,,,,,,,,,,,,,,,,,,,,
,,HOUSE,4.072,1,,,,,,stimuli/images/PICTURE_177.png,HOUSE,5a8035cfaa46dd00016b7793,15/02/1955,2020-09-12_08h27.37.096,proactive3.2,2020.1.2,MacIntel,60,5f5adea66120081ea0f57a61,5f5c7790437b2a01043a7b82,3,,,,,,mushroom,,,,,,,,,,,3,2,0,32,32,25,1,,,,,,,,,,,,,,,,,,,,,,,,,,,,,,,,,,,,,,,,,,,,,,,,,,,,,,,,,,,,,,,,,,,,,,
,,?,0.001,0,,,,,,stimuli/images/PICTURE_654.png,YEAR,5a8035cfaa46dd00016b7793,15/02/1955,2020-09-12_08h27.37.096,proactive3.2,2020.1.2,MacIntel,60,5f5adea66120081ea0f57a61,5f5c7790437b2a01043a7b82,3,,,,,,pencil,,,,,,,,,,,5,2,0,33,33,41,1,,,,,,,,,,,,,,,,,,,,,,,,,,,,,,,,,,,,,,,,,,,,,,,,,,,,,,,,,,,,,,,,,,,,,,
,,?,0.001,0,,,,,,stimuli/images/PICTURE_327.png,LEADER,5a8035cfaa46dd00016b7793,15/02/1955,2020-09-12_08h27.37.096,proactive3.2,2020.1.2,MacIntel,60,5f5adea66120081ea0f57a61,5f5c7790437b2a01043a7b82,3,,,,,,helmet,,,,,,,,,,,2,2,0,34,34,17,1,,,,,,,,,,,,,,,,,,,,,,,,,,,,,,,,,,,,,,,,,,,,,,,,,,,,,,,,,,,,,,,,,,,,,,
,,?,0,0,,,,,,stimuli/images/PICTURE_708.png,VALLEY,5a8035cfaa46dd00016b7793,15/02/1955,2020-09-12_08h27.37.096,proactive3.2,2020.1.2,MacIntel,60,5f5adea66120081ea0f57a61,5f5c7790437b2a01043a7b82,3,,,,,,monkey,,,,,,,,,,,5,2,0,35,35,45,1,,,,,,,,,,,,,,,,,,,,,,,,,,,,,,,,,,,,,,,,,,,,,,,,,,,,,,,,,,,,,,,,,,,,,,
,,?,0.001,0,,,,,,stimuli/images/PICTURE_405.png,HOUSE,5a8035cfaa46dd00016b7793,15/02/1955,2020-09-12_08h27.37.096,proactive3.2,2020.1.2,MacIntel,60,5f5adea66120081ea0f57a61,5f5c7790437b2a01043a7b82,3,,,,,,anchor,,,,,,,,,,,1,2,0,36,36,2,1,,,,,,,,,,,,,,,,,,,,,,,,,,,,,,,,,,,,,,,,,,,,,,,,,,,,,,,,,,,,,,,,,,,,,,
,,BEAUTY,4.897,1,,,,,,stimuli/images/PICTURE_470.png,BEAUTY,5a8035cfaa46dd00016b7793,15/02/1955,2020-09-12_08h27.37.096,proactive3.2,2020.1.2,MacIntel,60,5f5adea66120081ea0f57a61,5f5c7790437b2a01043a7b82,3,,,,,,motorbike,,,,,,,,,,,3,2,0,37,37,26,1,,,,,,,,,,,,,,,,,,,,,,,,,,,,,,,,,,,,,,,,,,,,,,,,,,,,,,,,,,,,,,,,,,,,,,
,,?,0.001,0,,,,,,stimuli/images/PICTURE_452.png,COPS,5a8035cfaa46dd00016b7793,15/02/1955,2020-09-12_08h27.37.096,proactive3.2,2020.1.2,MacIntel,60,5f5adea66120081ea0f57a61,5f5c7790437b2a01043a7b82,3,,,,,,watch,,,,,,,,,,,1,2,0,38,38,0,1,,,,,,,,,,,,,,,,,,,,,,,,,,,,,,,,,,,,,,,,,,,,,,,,,,,,,,,,,,,,,,,,,,,,,,
,,?,0,0,,,,,,stimuli/images/PICTURE_93.png,GIRL,5a8035cfaa46dd00016b7793,15/02/1955,2020-09-12_08h27.37.096,proactive3.2,2020.1.2,MacIntel,60,5f5adea66120081ea0f57a61,5f5c7790437b2a01043a7b82,3,,,,,,skateboard,,,,,,,,,,,4,2,0,39,39,31,1,,,,,,,,,,,,,,,,,,,,,,,,,,,,,,,,,,,,,,,,,,,,,,,,,,,,,,,,,,,,,,,,,,,,,,
,,?,0.001,0,,,,,,stimuli/images/PICTURE_215.png,LEADER,5a8035cfaa46dd00016b7793,15/02/1955,2020-09-12_08h27.37.096,proactive3.2,2020.1.2,MacIntel,60,5f5adea66120081ea0f57a61,5f5c7790437b2a01043a7b82,3,,,,,,boot,,,,,,,,,,,5,2,0,40,40,43,1,,,,,,,,,,,,,,,,,,,,,,,,,,,,,,,,,,,,,,,,,,,,,,,,,,,,,,,,,,,,,,,,,,,,,,
,,?,0.002,0,,,,,,stimuli/images/PICTURE_95.png,NIGHT,5a8035cfaa46dd00016b7793,15/02/1955,2020-09-12_08h27.37.096,proactive3.2,2020.1.2,MacIntel,60,5f5adea66120081ea0f57a61,5f5c7790437b2a01043a7b82,3,,,,,,suitcase,,,,,,,,,,,4,2,0,41,41,37,1,,,,,,,,,,,,,,,,,,,,,,,,,,,,,,,,,,,,,,,,,,,,,,,,,,,,,,,,,,,,,,,,,,,,,,
,,?,0.001,0,,,,,,stimuli/images/PICTURE_141.png,CLIENT,5a8035cfaa46dd00016b7793,15/02/1955,2020-09-12_08h27.37.096,proactive3.2,2020.1.2,MacIntel,60,5f5adea66120081ea0f57a61,5f5c7790437b2a01043a7b82,3,,,,,,sunflower,,,,,,,,,,,4,2,0,42,42,30,1,,,,,,,,,,,,,,,,,,,,,,,,,,,,,,,,,,,,,,,,,,,,,,,,,,,,,,,,,,,,,,,,,,,,,,
,,?,0.001,0,,,,,,stimuli/images/PICTURE_403.png,FAMILY,5a8035cfaa46dd00016b7793,15/02/1955,2020-09-12_08h27.37.096,proactive3.2,2020.1.2,MacIntel,60,5f5adea66120081ea0f57a61,5f5c7790437b2a01043a7b82,3,,,,,,cathedral,,,,,,,,,,,1,2,0,43,43,9,1,,,,,,,,,,,,,,,,,,,,,,,,,,,,,,,,,,,,,,,,,,,,,,,,,,,,,,,,,,,,,,,,,,,,,,
,,?,0.001,0,,,,,,stimuli/images/PICTURE_123.png,SALE,5a8035cfaa46dd00016b7793,15/02/1955,2020-09-12_08h27.37.096,proactive3.2,2020.1.2,MacIntel,60,5f5adea66120081ea0f57a61,5f5c7790437b2a01043a7b82,3,,,,,,dart,,,,,,,,,,,1,2,0,44,44,8,1,,,,,,,,,,,,,,,,,,,,,,,,,,,,,,,,,,,,,,,,,,,,,,,,,,,,,,,,,,,,,,,,,,,,,,
,,COPS,4.58,1,,,,,,stimuli/images/PICTURE_33.png,COPS,5a8035cfaa46dd00016b7793,15/02/1955,2020-09-12_08h27.37.096,proactive3.2,2020.1.2,MacIntel,60,5f5adea66120081ea0f57a61,5f5c7790437b2a01043a7b82,3,,,,,,frame,,,,,,,,,,,3,2,0,45,45,29,1,,,,,,,,,,,,,,,,,,,,,,,,,,,,,,,,,,,,,,,,,,,,,,,,,,,,,,,,,,,,,,,,,,,,,,
,,?,0.001,0,,,,,,stimuli/images/PICTURE_692.png,DUDE,5a8035cfaa46dd00016b7793,15/02/1955,2020-09-12_08h27.37.096,proactive3.2,2020.1.2,MacIntel,60,5f5adea66120081ea0f57a61,5f5c7790437b2a01043a7b82,3,,,,,,cherry,,,,,,,,,,,5,2,0,46,46,47,1,,,,,,,,,,,,,,,,,,,,,,,,,,,,,,,,,,,,,,,,,,,,,,,,,,,,,,,,,,,,,,,,,,,,,,
,,?,0.001,0,,,,,,stimuli/images/PICTURE_311.png,FLESH,5a8035cfaa46dd00016b7793,15/02/1955,2020-09-12_08h27.37.096,proactive3.2,2020.1.2,MacIntel,60,5f5adea66120081ea0f57a61,5f5c7790437b2a01043a7b82,3,,,,,,razor,,,,,,,,,,,1,2,0,47,47,3,1,,,,,,,,,,,,,,,,,,,,,,,,,,,,,,,,,,,,,,,,,,,,,,,,,,,,,,,,,,,,,,,,,,,,,,
,,SPIRIT,7.187,1,,,,,,stimuli/images/PICTURE_208.png,SPIRIT,5a8035cfaa46dd00016b7793,15/02/1955,2020-09-12_08h27.37.096,proactive3.2,2020.1.2,MacIntel,60,5f5adea66120081ea0f57a61,5f5c7790437b2a01043a7b82,3,,,,,,microphone,,,,,,,,,,,3,2,0,48,48,28,1,,,,,,,,,,,,,,,,,,,,,,,,,,,,,,,,,,,,,,,,,,,,,,,,,,,,,,,,,,,,,,,,,,,,,,
,,?,0.001,0,,,,,,stimuli/images/PICTURE_654.png,COPS,5a8035cfaa46dd00016b7793,15/02/1955,2020-09-12_08h27.37.096,proactive3.2,2020.1.2,MacIntel,60,5f5adea66120081ea0f57a61,5f5c7790437b2a01043a7b82,3,,,,,,pencil,,,,,,,,,,,2,2,0,49,49,10,1,,,,,,,,,,,,,,,,,,,,,,,,,,,,,,,,,,,,,,,,,,,,,,,,,,,,,,,,,,,,,,,,,,,,,,
,,?,0,0,,,,,,stimuli/images/PICTURE_314.png,SPEECH,5a8035cfaa46dd00016b7793,15/02/1955,2020-09-12_08h27.37.096,proactive3.2,2020.1.2,MacIntel,60,5f5adea66120081ea0f57a61,5f5c7790437b2a01043a7b82,3,,,,,,perfume,,,,,,,,,,,4,2,0,50,50,35,1,,,,,,,,,,,,,,,,,,,,,,,,,,,,,,,,,,,,,,,,,,,,,,,,,,,,,,,,,,,,,,,,,,,,,,
,,?,0.001,0,,,,,,stimuli/images/PICTURE_405.png,JUNGLE,5a8035cfaa46dd00016b7793,15/02/1955,2020-09-12_08h27.37.096,proactive3.2,2020.1.2,MacIntel,60,5f5adea66120081ea0f57a61,5f5c7790437b2a01043a7b82,3,,,,,,anchor,,,,,,,,,,,2,2,0,51,51,13,1,,,,,,,,,,,,,,,,,,,,,,,,,,,,,,,,,,,,,,,,,,,,,,,,,,,,,,,,,,,,,,,,,,,,,,
,,?,0,0,,,,,,stimuli/images/PICTURE_348.png,TOILET,5a8035cfaa46dd00016b7793,15/02/1955,2020-09-12_08h27.37.096,proactive3.2,2020.1.2,MacIntel,60,5f5adea66120081ea0f57a61,5f5c7790437b2a01043a7b82,3,,,,,,pepper,,,,,,,,,,,1,2,0,52,52,4,1,,,,,,,,,,,,,,,,,,,,,,,,,,,,,,,,,,,,,,,,,,,,,,,,,,,,,,,,,,,,,,,,,,,,,,
,,?,0.001,0,,,,,,stimuli/images/PICTURE_57.png,CASINO,5a8035cfaa46dd00016b7793,15/02/1955,2020-09-12_08h27.37.096,proactive3.2,2020.1.2,MacIntel,60,5f5adea66120081ea0f57a61,5f5c7790437b2a01043a7b82,3,,,,,,stamp,,,,,,,,,,,2,2,0,53,53,12,1,,,,,,,,,,,,,,,,,,,,,,,,,,,,,,,,,,,,,,,,,,,,,,,,,,,,,,,,,,,,,,,,,,,,,,
,,BOYS,4.679,1,,,,,,stimuli/images/PICTURE_215.png,BOYS,5a8035cfaa46dd00016b7793,15/02/1955,2020-09-12_08h27.37.096,proactive3.2,2020.1.2,MacIntel,60,5f5adea66120081ea0f57a61,5f5c7790437b2a01043a7b82,3,,,,,,boot,,,,,,,,,,,3,2,0,54,54,24,1,,,,,,,,,,,,,,,,,,,,,,,,,,,,,,,,,,,,,,,,,,,,,,,,,,,,,,,,,,,,,,,,,,,,,,
,,GLASS,4.733,1,,,,,,stimuli/images/PICTURE_667.png,GLASS,5a8035cfaa46dd00016b7793,15/02/1955,2020-09-12_08h27.37.096,proactive3.2,2020.1.2,MacIntel,60,5f5adea66120081ea0f57a61,5f5c7790437b2a01043a7b82,3,,,,,,daisy,,,,,,,,,,,3,2,0,55,55,27,1,,,,,,,,,,,,,,,,,,,,,,,,,,,,,,,,,,,,,,,,,,,,,,,,,,,,,,,,,,,,,,,,,,,,,,
,,?,0.001,0,,,,,,stimuli/images/PICTURE_487.png,ROOF,5a8035cfaa46dd00016b7793,15/02/1955,2020-09-12_08h27.37.096,proactive3.2,2020.1.2,MacIntel,60,5f5adea66120081ea0f57a61,5f5c7790437b2a01043a7b82,3,,,,,,basket,,,,,,,,,,,6,2,0,56,56,50,1,,,,,,,,,,,,,,,,,,,,,,,,,,,,,,,,,,,,,,,,,,,,,,,,,,,,,,,,,,,,,,,,,,,,,,
,,?,0.001,0,,,,,,stimuli/images/PICTURE_688.png,CLOCK,5a8035cfaa46dd00016b7793,15/02/1955,2020-09-12_08h27.37.096,proactive3.2,2020.1.2,MacIntel,60,5f5adea66120081ea0f57a61,5f5c7790437b2a01043a7b82,3,,,,,,runner,,,,,,,,,,,5,2,0,57,57,42,1,,,,,,,,,,,,,,,,,,,,,,,,,,,,,,,,,,,,,,,,,,,,,,,,,,,,,,,,,,,,,,,,,,,,,,
,,RIVER,5.419,1,,,,,,stimuli/images/PICTURE_18.png,RIVER,5a8035cfaa46dd00016b7793,15/02/1955,2020-09-12_08h27.37.096,proactive3.2,2020.1.2,MacIntel,60,5f5adea66120081ea0f57a61,5f5c7790437b2a01043a7b82,3,,,,,,planet,,,,,,,,,,,3,2,0,58,58,22,1,,,,,,,,,,,,,,,,,,,,,,,,,,,,,,,,,,,,,,,,,,,,,,,,,,,,,,,,,,,,,,,,,,,,,,
,,?,0.001,0,,,,,,stimuli/images/PICTURE_509.png,APPLE,5a8035cfaa46dd00016b7793,15/02/1955,2020-09-12_08h27.37.096,proactive3.2,2020.1.2,MacIntel,60,5f5adea66120081ea0f57a61,5f5c7790437b2a01043a7b82,3,,,,,,telephone,,,,,,,,,,,4,2,0,59,59,38,1,,,,,,,,,,,,,,,,,,,,,,,,,,,,,,,,,,,,,,,,,,,,,,,,,,,,,,,,,,,,,,,,,,,,,,
,,,,,,,,,,,,5a8035cfaa46dd00016b7793,15/02/1955,2020-09-12_08h27.37.096,proactive3.2,2020.1.2,MacIntel,60,5f5adea66120081ea0f57a61,5f5c7790437b2a01043a7b82,3,,,,,,,,,,,,,,,,,,,,,,,,0,0,0,2,1,stimuli/learn-block3.csv,,,,,,,,,,,,,,,,,,,,,,,,,,,,,,,,,,,,,,,,,,,,,,,,,,,,,,,,,,,,,,,,
,,,,,,,,,,stimuli/images/PICTURE_285.png,LIFE,5a8035cfaa46dd00016b7793,15/02/1955,2020-09-12_08h27.37.096,proactive3.2,2020.1.2,MacIntel,60,5f5adea66120081ea0f57a61,5f5c7790437b2a01043a7b82,3,,,,,,carrot,,,,,,0,0,0,33,1,4,1,,,,,,,,,,,,,,,,,,,,,,,,,,,,,,,,,,,,,,,,,,,,,,,,,,,,,,,,,,,,,,,,,,,,,,,,,,,
,,,,,,,,,,stimuli/images/PICTURE_108.png,FLIGHT,5a8035cfaa46dd00016b7793,15/02/1955,2020-09-12_08h27.37.096,proactive3.2,2020.1.2,MacIntel,60,5f5adea66120081ea0f57a61,5f5c7790437b2a01043a7b82,3,,,,,,calendar,,,,,,0,1,1,59,1,6,1,,,,,,,,,,,,,,,,,,,,,,,,,,,,,,,,,,,,,,,,,,,,,,,,,,,,,,,,,,,,,,,,,,,,,,,,,,,
,,,,,,,,,,stimuli/images/PICTURE_147.png,YEAR,5a8035cfaa46dd00016b7793,15/02/1955,2020-09-12_08h27.37.096,proactive3.2,2020.1.2,MacIntel,60,5f5adea66120081ea0f57a61,5f5c7790437b2a01043a7b82,3,,,,,,hanger,,,,,,0,2,2,21,1,3,1,,,,,,,,,,,,,,,,,,,,,,,,,,,,,,,,,,,,,,,,,,,,,,,,,,,,,,,,,,,,,,,,,,,,,,,,,,,
,,,,,,,,,,stimuli/images/PICTURE_744.png,WEAPON,5a8035cfaa46dd00016b7793,15/02/1955,2020-09-12_08h27.37.096,proactive3.2,2020.1.2,MacIntel,60,5f5adea66120081ea0f57a61,5f5c7790437b2a01043a7b82,3,,,,,,ring,,,,,,0,3,3,50,1,6,1,,,,,,,,,,,,,,,,,,,,,,,,,,,,,,,,,,,,,,,,,,,,,,,,,,,,,,,,,,,,,,,,,,,,,,,,,,,
,,,,,,,,,,stimuli/images/PICTURE_491.png,GLASS,5a8035cfaa46dd00016b7793,15/02/1955,2020-09-12_08h27.37.096,proactive3.2,2020.1.2,MacIntel,60,5f5adea66120081ea0f57a61,5f5c7790437b2a01043a7b82,3,,,,,,rug,,,,,,0,4,4,14,1,2,1,,,,,,,,,,,,,,,,,,,,,,,,,,,,,,,,,,,,,,,,,,,,,,,,,,,,,,,,,,,,,,,,,,,,,,,,,,,
,,,,,,,,,,stimuli/images/PICTURE_203.png,GODS,5a8035cfaa46dd00016b7793,15/02/1955,2020-09-12_08h27.37.096,proactive3.2,2020.1.2,MacIntel,60,5f5adea66120081ea0f57a61,5f5c7790437b2a01043a7b82,3,,,,,,cap,,,,,,0,5,5,30,1,4,1,,,,,,,,,,,,,,,,,,,,,,,,,,,,,,,,,,,,,,,,,,,,,,,,,,,,,,,,,,,,,,,,,,,,,,,,,,,
,,,,,,,,,,stimuli/images/PICTURE_95.png,MILLER,5a8035cfaa46dd00016b7793,15/02/1955,2020-09-12_08h27.37.096,proactive3.2,2020.1.2,MacIntel,60,5f5adea66120081ea0f57a61,5f5c7790437b2a01043a7b82,3,,,,,,suitcase,,,,,,0,6,6,56,1,6,1,,,,,,,,,,,,,,,,,,,,,,,,,,,,,,,,,,,,,,,,,,,,,,,,,,,,,,,,,,,,,,,,,,,,,,,,,,,
,,,,,,,,,,stimuli/images/PICTURE_667.png,RIVER,5a8035cfaa46dd00016b7793,15/02/1955,2020-09-12_08h27.37.096,proactive3.2,2020.1.2,MacIntel,60,5f5adea66120081ea0f57a61,5f5c7790437b2a01043a7b82,3,,,,,,daisy,,,,,,0,7,7,10,1,2,1,,,,,,,,,,,,,,,,,,,,,,,,,,,,,,,,,,,,,,,,,,,,,,,,,,,,,,,,,,,,,,,,,,,,,,,,,,,
,,,,,,,,,,stimuli/images/PICTURE_296.png,LOTS,5a8035cfaa46dd00016b7793,15/02/1955,2020-09-12_08h27.37.096,proactive3.2,2020.1.2,MacIntel,60,5f5adea66120081ea0f57a61,5f5c7790437b2a01043a7b82,3,,,,,,bolt,,,,,,0,8,8,9,1,1,1,,,,,,,,,,,,,,,,,,,,,,,,,,,,,,,,,,,,,,,,,,,,,,,,,,,,,,,,,,,,,,,,,,,,,,,,,,,
,,,,,,,,,,stimuli/images/PICTURE_308.png,FAMILY,5a8035cfaa46dd00016b7793,15/02/1955,2020-09-12_08h27.37.096,proactive3.2,2020.1.2,MacIntel,60,5f5adea66120081ea0f57a61,5f5c7790437b2a01043a7b82,3,,,,,,dice,,,,,,0,9,9,36,1,4,1,,,,,,,,,,,,,,,,,,,,,,,,,,,,,,,,,,,,,,,,,,,,,,,,,,,,,,,,,,,,,,,,,,,,,,,,,,,
,,,,,,,,,,stimuli/images/PICTURE_677.png,APPLE,5a8035cfaa46dd00016b7793,15/02/1955,2020-09-12_08h27.37.096,proactive3.2,2020.1.2,MacIntel,60,5f5adea66120081ea0f57a61,5f5c7790437b2a01043a7b82,3,,,,,,map,,,,,,0,10,10,43,1,5,1,,,,,,,,,,,,,,,,,,,,,,,,,,,,,,,,,,,,,,,,,,,,,,,,,,,,,,,,,,,,,,,,,,,,,,,,,,,
,,,,,,,,,,stimuli/images/PICTURE_85.png,TOILET,5a8035cfaa46dd00016b7793,15/02/1955,2020-09-12_08h27.37.096,proactive3.2,2020.1.2,MacIntel,60,5f5adea66120081ea0f57a61,5f5c7790437b2a01043a7b82,3,,,,,,diamond,,,,,,0,11,11,48,1,5,1,,,,,,,,,,,,,,,,,,,,,,,,,,,,,,,,,,,,,,,,,,,,,,,,,,,,,,,,,,,,,,,,,,,,,,,,,,,
,,,,,,,,,,stimuli/images/PICTURE_33.png,FRIEND,5a8035cfaa46dd00016b7793,15/02/1955,2020-09-12_08h27.37.096,proactive3.2,2020.1.2,MacIntel,60,5f5adea66120081ea0f57a61,5f5c7790437b2a01043a7b82,3,,,,,,frame,,,,,,0,12,12,8,1,1,1,,,,,,,,,,,,,,,,,,,,,,,,,,,,,,,,,,,,,,,,,,,,,,,,,,,,,,,,,,,,,,,,,,,,,,,,,,,
,,,,,,,,,,stimuli/images/PICTURE_327.png,CASINO,5a8035cfaa46dd00016b7793,15/02/1955,2020-09-12_08h27.37.096,proactive3.2,2020.1.2,MacIntel,60,5f5adea66120081ea0f57a61,5f5c7790437b2a01043a7b82,3,,,,,,helmet,,,,,,0,13,13,20,1,3,1,,,,,,,,,,,,,,,,,,,,,,,,,,,,,,,,,,,,,,,,,,,,,,,,,,,,,,,,,,,,,,,,,,,,,,,,,,,
,,,,,,,,,,stimuli/images/PICTURE_491.png,RIVER,5a8035cfaa46dd00016b7793,15/02/1955,2020-09-12_08h27.37.096,proactive3.2,2020.1.2,MacIntel,60,5f5adea66120081ea0f57a61,5f5c7790437b2a01043a7b82,3,,,,,,rug,,,,,,0,14,14,6,1,1,1,,,,,,,,,,,,,,,,,,,,,,,,,,,,,,,,,,,,,,,,,,,,,,,,,,,,,,,,,,,,,,,,,,,,,,,,,,,
,,,,,,,,,,stimuli/images/PICTURE_708.png,RECORD,5a8035cfaa46dd00016b7793,15/02/1955,2020-09-12_08h27.37.096,proactive3.2,2020.1.2,MacIntel,60,5f5adea66120081ea0f57a61,5f5c7790437b2a01043a7b82,3,,,,,,monkey,,,,,,0,15,15,58,1,6,1,,,,,,,,,,,,,,,,,,,,,,,,,,,,,,,,,,,,,,,,,,,,,,,,,,,,,,,,,,,,,,,,,,,,,,,,,,,
,,,,,,,,,,stimuli/images/PICTURE_383.png,WRITER,5a8035cfaa46dd00016b7793,15/02/1955,2020-09-12_08h27.37.096,proactive3.2,2020.1.2,MacIntel,60,5f5adea66120081ea0f57a61,5f5c7790437b2a01043a7b82,3,,,,,,coin,,,,,,0,16,16,28,1,3,1,,,,,,,,,,,,,,,,,,,,,,,,,,,,,,,,,,,,,,,,,,,,,,,,,,,,,,,,,,,,,,,,,,,,,,,,,,,
,,,,,,,,,,stimuli/images/PICTURE_177.png,WRITER,5a8035cfaa46dd00016b7793,15/02/1955,2020-09-12_08h27.37.096,proactive3.2,2020.1.2,MacIntel,60,5f5adea66120081ea0f57a61,5f5c7790437b2a01043a7b82,3,,,,,,mushroom,,,,,,0,17,17,41,1,5,1,,,,,,,,,,,,,,,,,,,,,,,,,,,,,,,,,,,,,,,,,,,,,,,,,,,,,,,,,,,,,,,,,,,,,,,,,,,
,,,,,,,,,,stimuli/images/PICTURE_564.png,BATH,5a8035cfaa46dd00016b7793,15/02/1955,2020-09-12_08h27.37.096,proactive3.2,2020.1.2,MacIntel,60,5f5adea66120081ea0f57a61,5f5c7790437b2a01043a7b82,3,,,,,,spoon,,,,,,0,18,18,26,1,3,1,,,,,,,,,,,,,,,,,,,,,,,,,,,,,,,,,,,,,,,,,,,,,,,,,,,,,,,,,,,,,,,,,,,,,,,,,,,
,,,,,,,,,,stimuli/images/PICTURE_750.png,HOTEL,5a8035cfaa46dd00016b7793,15/02/1955,2020-09-12_08h27.37.096,proactive3.2,2020.1.2,MacIntel,60,5f5adea66120081ea0f57a61,5f5c7790437b2a01043a7b82,3,,,,,,kettle,,,,,,0,19,19,27,1,3,1,,,,,,,,,,,,,,,,,,,,,,,,,,,,,,,,,,,,,,,,,,,,,,,,,,,,,,,,,,,,,,,,,,,,,,,,,,,
,,,,,,,,,,stimuli/images/PICTURE_403.png,RIVER,5a8035cfaa46dd00016b7793,15/02/1955,2020-09-12_08h27.37.096,proactive3.2,2020.1.2,MacIntel,60,5f5adea66120081ea0f57a61,5f5c7790437b2a01043a7b82,3,,,,,,cathedral,,,,,,0,20,20,40,1,5,1,,,,,,,,,,,,,,,,,,,,,,,,,,,,,,,,,,,,,,,,,,,,,,,,,,,,,,,,,,,,,,,,,,,,,,,,,,,
,,,,,,,,,,stimuli/images/PICTURE_380.png,HONEY,5a8035cfaa46dd00016b7793,15/02/1955,2020-09-12_08h27.37.096,proactive3.2,2020.1.2,MacIntel,60,5f5adea66120081ea0f57a61,5f5c7790437b2a01043a7b82,3,,,,,,gorilla,,,,,,0,21,21,19,1,2,1,,,,,,,,,,,,,,,,,,,,,,,,,,,,,,,,,,,,,,,,,,,,,,,,,,,,,,,,,,,,,,,,,,,,,,,,,,,
,,,,,,,,,,stimuli/images/PICTURE_296.png,LIFE,5a8035cfaa46dd00016b7793,15/02/1955,2020-09-12_08h27.37.096,proactive3.2,2020.1.2,MacIntel,60,5f5adea66120081ea0f57a61,5f5c7790437b2a01043a7b82,3,,,,,,bolt,,,,,,0,22,22,57,1,6,1,,,,,,,,,,,,,,,,,,,,,,,,,,,,,,,,,,,,,,,,,,,,,,,,,,,,,,,,,,,,,,,,,,,,,,,,,,,
,,,,,,,,,,stimuli/images/PICTURE_32.png,PILLS,5a8035cfaa46dd00016b7793,15/02/1955,2020-09-12_08h27.37.096,proactive3.2,2020.1.2,MacIntel,60,5f5adea66120081ea0f57a61,5f5c7790437b2a01043a7b82,3,,,,,,crown,,,,,,0,23,23,18,1,2,1,,,,,,,,,,,,,,,,,,,,,,,,,,,,,,,,,,,,,,,,,,,,,,,,,,,,,,,,,,,,,,,,,,,,,,,,,,,
,,,,,,,,,,stimuli/images/PICTURE_42.png,BOYS,5a8035cfaa46dd00016b7793,15/02/1955,2020-09-12_08h27.37.096,proactive3.2,2020.1.2,MacIntel,60,5f5adea66120081ea0f57a61,5f5c7790437b2a01043a7b82,3,,,,,,pear,,,,,,0,24,24,55,1,6,1,,,,,,,,,,,,,,,,,,,,,,,,,,,,,,,,,,,,,,,,,,,,,,,,,,,,,,,,,,,,,,,,,,,,,,,,,,,
,,,,,,,,,,stimuli/images/PICTURE_108.png,POLICY,5a8035cfaa46dd00016b7793,15/02/1955,2020-09-12_08h27.37.096,proactive3.2,2020.1.2,MacIntel,60,5f5adea66120081ea0f57a61,5f5c7790437b2a01043a7b82,3,,,,,,calendar,,,,,,0,25,25,22,1,3,1,,,,,,,,,,,,,,,,,,,,,,,,,,,,,,,,,,,,,,,,,,,,,,,,,,,,,,,,,,,,,,,,,,,,,,,,,,,
,,,,,,,,,,stimuli/images/PICTURE_339.png,CLIENT,5a8035cfaa46dd00016b7793,15/02/1955,2020-09-12_08h27.37.096,proactive3.2,2020.1.2,MacIntel,60,5f5adea66120081ea0f57a61,5f5c7790437b2a01043a7b82,3,,,,,,backpack,,,,,,0,26,26,11,1,2,1,,,,,,,,,,,,,,,,,,,,,,,,,,,,,,,,,,,,,,,,,,,,,,,,,,,,,,,,,,,,,,,,,,,,,,,,,,,
,,,,,,,,,,stimuli/images/PICTURE_297.png,RIVER,5a8035cfaa46dd00016b7793,15/02/1955,2020-09-12_08h27.37.096,proactive3.2,2020.1.2,MacIntel,60,5f5adea66120081ea0f57a61,5f5c7790437b2a01043a7b82,3,,,,,,aeroplane,,,,,,0,27,27,39,1,4,1,,,,,,,,,,,,,,,,,,,,,,,,,,,,,,,,,,,,,,,,,,,,,,,,,,,,,,,,,,,,,,,,,,,,,,,,,,,
,,,,,,,,,,stimuli/images/PICTURE_95.png,HONEY,5a8035cfaa46dd00016b7793,15/02/1955,2020-09-12_08h27.37.096,proactive3.2,2020.1.2,MacIntel,60,5f5adea66120081ea0f57a61,5f5c7790437b2a01043a7b82,3,,,,,,suitcase,,,,,,0,28,28,44,1,5,1,,,,,,,,,,,,,,,,,,,,,,,,,,,,,,,,,,,,,,,,,,,,,,,,,,,,,,,,,,,,,,,,,,,,,,,,,,,
,,,,,,,,,,stimuli/images/PICTURE_2.png,FLIGHT,5a8035cfaa46dd00016b7793,15/02/1955,2020-09-12_08h27.37.096,proactive3.2,2020.1.2,MacIntel,60,5f5adea66120081ea0f57a61,5f5c7790437b2a01043a7b82,3,,,,,,tyre,,,,,,0,29,29,15,1,2,1,,,,,,,,,,,,,,,,,,,,,,,,,,,,,,,,,,,,,,,,,,,,,,,,,,,,,,,,,,,,,,,,,,,,,,,,,,,
,,,,,,,,,,stimuli/images/PICTURE_85.png,NATION,5a8035cfaa46dd00016b7793,15/02/1955,2020-09-12_08h27.37.096,proactive3.2,2020.1.2,MacIntel,60,5f5adea66120081ea0f57a61,5f5c7790437b2a01043a7b82,3,,,,,,diamond,,,,,,0,30,30,5,1,1,1,,,,,,,,,,,,,,,,,,,,,,,,,,,,,,,,,,,,,,,,,,,,,,,,,,,,,,,,,,,,,,,,,,,,,,,,,,,
,,,,,,,,,,stimuli/images/PICTURE_147.png,WOMEN,5a8035cfaa46dd00016b7793,15/02/1955,2020-09-12_08h27.37.096,proactive3.2,2020.1.2,MacIntel,60,5f5adea66120081ea0f57a61,5f5c7790437b2a01043a7b82,3,,,,,,hanger,,,,,,0,31,31,7,1,1,1,,,,,,,,,,,,,,,,,,,,,,,,,,,,,,,,,,,,,,,,,,,,,,,,,,,,,,,,,,,,,,,,,,,,,,,,,,,
,,,,,,,,,,stimuli/images/PICTURE_469.png,AGENT,5a8035cfaa46dd00016b7793,15/02/1955,2020-09-12_08h27.37.096,proactive3.2,2020.1.2,MacIntel,60,5f5adea66120081ea0f57a61,5f5c7790437b2a01043a7b82,3,,,,,,stool,,,,,,0,32,32,16,1,2,1,,,,,,,,,,,,,,,,,,,,,,,,,,,,,,,,,,,,,,,,,,,,,,,,,,,,,,,,,,,,,,,,,,,,,,,,,,,
,,,,,,,,,,stimuli/images/PICTURE_685.png,PENNY,5a8035cfaa46dd00016b7793,15/02/1955,2020-09-12_08h27.37.096,proactive3.2,2020.1.2,MacIntel,60,5f5adea66120081ea0f57a61,5f5c7790437b2a01043a7b82,3,,,,,,goose,,,,,,0,33,33,4,1,1,1,,,,,,,,,,,,,,,,,,,,,,,,,,,,,,,,,,,,,,,,,,,,,,,,,,,,,,,,,,,,,,,,,,,,,,,,,,,
,,,,,,,,,,stimuli/images/PICTURE_340.png,VALLEY,5a8035cfaa46dd00016b7793,15/02/1955,2020-09-12_08h27.37.096,proactive3.2,2020.1.2,MacIntel,60,5f5adea66120081ea0f57a61,5f5c7790437b2a01043a7b82,3,,,,,,mirror,,,,,,0,34,34,54,1,6,1,,,,,,,,,,,,,,,,,,,,,,,,,,,,,,,,,,,,,,,,,,,,,,,,,,,,,,,,,,,,,,,,,,,,,,,,,,,
,,,,,,,,,,stimuli/images/PICTURE_208.png,SYSTEM,5a8035cfaa46dd00016b7793,15/02/1955,2020-09-12_08h27.37.096,proactive3.2,2020.1.2,MacIntel,60,5f5adea66120081ea0f57a61,5f5c7790437b2a01043a7b82,3,,,,,,microphone,,,,,,0,35,35,32,1,4,1,,,,,,,,,,,,,,,,,,,,,,,,,,,,,,,,,,,,,,,,,,,,,,,,,,,,,,,,,,,,,,,,,,,,,,,,,,,
,,,,,,,,,,stimuli/images/PICTURE_504.png,ARTIST,5a8035cfaa46dd00016b7793,15/02/1955,2020-09-12_08h27.37.096,proactive3.2,2020.1.2,MacIntel,60,5f5adea66120081ea0f57a61,5f5c7790437b2a01043a7b82,3,,,,,,wheel,,,,,,0,36,36,49,1,5,1,,,,,,,,,,,,,,,,,,,,,,,,,,,,,,,,,,,,,,,,,,,,,,,,,,,,,,,,,,,,,,,,,,,,,,,,,,,
,,,,,,,,,,stimuli/images/PICTURE_32.png,KIND,5a8035cfaa46dd00016b7793,15/02/1955,2020-09-12_08h27.37.096,proactive3.2,2020.1.2,MacIntel,60,5f5adea66120081ea0f57a61,5f5c7790437b2a01043a7b82,3,,,,,,crown,,,,,,0,37,37,35,1,4,1,,,,,,,,,,,,,,,,,,,,,,,,,,,,,,,,,,,,,,,,,,,,,,,,,,,,,,,,,,,,,,,,,,,,,,,,,,,
,,,,,,,,,,stimuli/images/PICTURE_405.png,YEAR,5a8035cfaa46dd00016b7793,15/02/1955,2020-09-12_08h27.37.096,proactive3.2,2020.1.2,MacIntel,60,5f5adea66120081ea0f57a61,5f5c7790437b2a01043a7b82,3,,,,,,anchor,,,,,,0,38,38,34,1,4,1,,,,,,,,,,,,,,,,,,,,,,,,,,,,,,,,,,,,,,,,,,,,,,,,,,,,,,,,,,,,,,,,,,,,,,,,,,,
,,,,,,,,,,stimuli/images/PICTURE_327.png,SERIES,5a8035cfaa46dd00016b7793,15/02/1955,2020-09-12_08h27.37.096,proactive3.2,2020.1.2,MacIntel,60,5f5adea66120081ea0f57a61,5f5c7790437b2a01043a7b82,3,,,,,,helmet,,,,,,0,39,39,3,1,1,1,,,,,,,,,,,,,,,,,,,,,,,,,,,,,,,,,,,,,,,,,,,,,,,,,,,,,,,,,,,,,,,,,,,,,,,,,,,
,,,,,,,,,,stimuli/images/PICTURE_487.png,GIRL,5a8035cfaa46dd00016b7793,15/02/1955,2020-09-12_08h27.37.096,proactive3.2,2020.1.2,MacIntel,60,5f5adea66120081ea0f57a61,5f5c7790437b2a01043a7b82,3,,,,,,basket,,,,,,0,40,40,45,1,5,1,,,,,,,,,,,,,,,,,,,,,,,,,,,,,,,,,,,,,,,,,,,,,,,,,,,,,,,,,,,,,,,,,,,,,,,,,,,
,,,,,,,,,,stimuli/images/PICTURE_403.png,TOILET,5a8035cfaa46dd00016b7793,15/02/1955,2020-09-12_08h27.37.096,proactive3.2,2020.1.2,MacIntel,60,5f5adea66120081ea0f57a61,5f5c7790437b2a01043a7b82,3,,,,,,cathedral,,,,,,0,41,41,25,1,3,1,,,,,,,,,,,,,,,,,,,,,,,,,,,,,,,,,,,,,,,,,,,,,,,,,,,,,,,,,,,,,,,,,,,,,,,,,,,
,,,,,,,,,,stimuli/images/PICTURE_68.png,MILE,5a8035cfaa46dd00016b7793,15/02/1955,2020-09-12_08h27.37.096,proactive3.2,2020.1.2,MacIntel,60,5f5adea66120081ea0f57a61,5f5c7790437b2a01043a7b82,3,,,,,,candle,,,,,,0,42,42,51,1,6,1,,,,,,,,,,,,,,,,,,,,,,,,,,,,,,,,,,,,,,,,,,,,,,,,,,,,,,,,,,,,,,,,,,,,,,,,,,,
,,,,,,,,,,stimuli/images/PICTURE_380.png,CANDY,5a8035cfaa46dd00016b7793,15/02/1955,2020-09-12_08h27.37.096,proactive3.2,2020.1.2,MacIntel,60,5f5adea66120081ea0f57a61,5f5c7790437b2a01043a7b82,3,,,,,,gorilla,,,,,,0,43,43,0,1,1,1,,,,,,,,,,,,,,,,,,,,,,,,,,,,,,,,,,,,,,,,,,,,,,,,,,,,,,,,,,,,,,,,,,,,,,,,,,,
,,,,,,,,,,stimuli/images/PICTURE_203.png,NIGHT,5a8035cfaa46dd00016b7793,15/02/1955,2020-09-12_08h27.37.096,proactive3.2,2020.1.2,MacIntel,60,5f5adea66120081ea0f57a61,5f5c7790437b2a01043a7b82,3,,,,,,cap,,,,,,0,44,44,2,1,1,1,,,,,,,,,,,,,,,,,,,,,,,,,,,,,,,,,,,,,,,,,,,,,,,,,,,,,,,,,,,,,,,,,,,,,,,,,,,
,,,,,,,,,,stimuli/images/PICTURE_449.png,DUDE,5a8035cfaa46dd00016b7793,15/02/1955,2020-09-12_08h27.37.096,proactive3.2,2020.1.2,MacIntel,60,5f5adea66120081ea0f57a61,5f5c7790437b2a01043a7b82,3,,,,,,bench,,,,,,0,45,45,17,1,2,1,,,,,,,,,,,,,,,,,,,,,,,,,,,,,,,,,,,,,,,,,,,,,,,,,,,,,,,,,,,,,,,,,,,,,,,,,,,
,,,,,,,,,,stimuli/images/PICTURE_57.png,MOMENT,5a8035cfaa46dd00016b7793,15/02/1955,2020-09-12_08h27.37.096,proactive3.2,2020.1.2,MacIntel,60,5f5adea66120081ea0f57a61,5f5c7790437b2a01043a7b82,3,,,,,,stamp,,,,,,0,46,46,37,1,4,1,,,,,,,,,,,,,,,,,,,,,,,,,,,,,,,,,,,,,,,,,,,,,,,,,,,,,,,,,,,,,,,,,,,,,,,,,,,
,,,,,,,,,,stimuli/images/PICTURE_504.png,COPS,5a8035cfaa46dd00016b7793,15/02/1955,2020-09-12_08h27.37.096,proactive3.2,2020.1.2,MacIntel,60,5f5adea66120081ea0f57a61,5f5c7790437b2a01043a7b82,3,,,,,,wheel,,,,,,0,47,47,52,1,6,1,,,,,,,,,,,,,,,,,,,,,,,,,,,,,,,,,,,,,,,,,,,,,,,,,,,,,,,,,,,,,,,,,,,,,,,,,,,
,,,,,,,,,,stimuli/images/PICTURE_655.png,TOILET,5a8035cfaa46dd00016b7793,15/02/1955,2020-09-12_08h27.37.096,proactive3.2,2020.1.2,MacIntel,60,5f5adea66120081ea0f57a61,5f5c7790437b2a01043a7b82,3,,,,,,megaphone,,,,,,0,48,48,12,1,2,1,,,,,,,,,,,,,,,,,,,,,,,,,,,,,,,,,,,,,,,,,,,,,,,,,,,,,,,,,,,,,,,,,,,,,,,,,,,
,,,,,,,,,,stimuli/images/PICTURE_340.png,LETTER,5a8035cfaa46dd00016b7793,15/02/1955,2020-09-12_08h27.37.096,proactive3.2,2020.1.2,MacIntel,60,5f5adea66120081ea0f57a61,5f5c7790437b2a01043a7b82,3,,,,,,mirror,,,,,,0,49,49,24,1,3,1,,,,,,,,,,,,,,,,,,,,,,,,,,,,,,,,,,,,,,,,,,,,,,,,,,,,,,,,,,,,,,,,,,,,,,,,,,,
,,,,,,,,,,stimuli/images/PICTURE_383.png,SERIES,5a8035cfaa46dd00016b7793,15/02/1955,2020-09-12_08h27.37.096,proactive3.2,2020.1.2,MacIntel,60,5f5adea66120081ea0f57a61,5f5c7790437b2a01043a7b82,3,,,,,,coin,,,,,,0,50,50,46,1,5,1,,,,,,,,,,,,,,,,,,,,,,,,,,,,,,,,,,,,,,,,,,,,,,,,,,,,,,,,,,,,,,,,,,,,,,,,,,,
,,,,,,,,,,stimuli/images/PICTURE_504.png,YEAR,5a8035cfaa46dd00016b7793,15/02/1955,2020-09-12_08h27.37.096,proactive3.2,2020.1.2,MacIntel,60,5f5adea66120081ea0f57a61,5f5c7790437b2a01043a7b82,3,,,,,,wheel,,,,,,0,51,51,13,1,2,1,,,,,,,,,,,,,,,,,,,,,,,,,,,,,,,,,,,,,,,,,,,,,,,,,,,,,,,,,,,,,,,,,,,,,,,,,,,
,,,,,,,,,,stimuli/images/PICTURE_403.png,WRITER,5a8035cfaa46dd00016b7793,15/02/1955,2020-09-12_08h27.37.096,proactive3.2,2020.1.2,MacIntel,60,5f5adea66120081ea0f57a61,5f5c7790437b2a01043a7b82,3,,,,,,cathedral,,,,,,0,52,52,31,1,4,1,,,,,,,,,,,,,,,,,,,,,,,,,,,,,,,,,,,,,,,,,,,,,,,,,,,,,,,,,,,,,,,,,,,,,,,,,,,
,,,,,,,,,,stimuli/images/PICTURE_405.png,PLENTY,5a8035cfaa46dd00016b7793,15/02/1955,2020-09-12_08h27.37.096,proactive3.2,2020.1.2,MacIntel,60,5f5adea66120081ea0f57a61,5f5c7790437b2a01043a7b82,3,,,,,,anchor,,,,,,0,53,53,23,1,3,1,,,,,,,,,,,,,,,,,,,,,,,,,,,,,,,,,,,,,,,,,,,,,,,,,,,,,,,,,,,,,,,,,,,,,,,,,,,
,,,,,,,,,,stimuli/images/PICTURE_467.png,POLICY,5a8035cfaa46dd00016b7793,15/02/1955,2020-09-12_08h27.37.096,proactive3.2,2020.1.2,MacIntel,60,5f5adea66120081ea0f57a61,5f5c7790437b2a01043a7b82,3,,,,,,peg,,,,,,0,54,54,53,1,6,1,,,,,,,,,,,,,,,,,,,,,,,,,,,,,,,,,,,,,,,,,,,,,,,,,,,,,,,,,,,,,,,,,,,,,,,,,,,
,,,,,,,,,,stimuli/images/PICTURE_675.png,SALE,5a8035cfaa46dd00016b7793,15/02/1955,2020-09-12_08h27.37.096,proactive3.2,2020.1.2,MacIntel,60,5f5adea66120081ea0f57a61,5f5c7790437b2a01043a7b82,3,,,,,,windmill,,,,,,0,55,55,47,1,5,1,,,,,,,,,,,,,,,,,,,,,,,,,,,,,,,,,,,,,,,,,,,,,,,,,,,,,,,,,,,,,,,,,,,,,,,,,,,
,,,,,,,,,,stimuli/images/PICTURE_95.png,BOYS,5a8035cfaa46dd00016b7793,15/02/1955,2020-09-12_08h27.37.096,proactive3.2,2020.1.2,MacIntel,60,5f5adea66120081ea0f57a61,5f5c7790437b2a01043a7b82,3,,,,,,suitcase,,,,,,0,56,56,1,1,1,1,,,,,,,,,,,,,,,,,,,,,,,,,,,,,,,,,,,,,,,,,,,,,,,,,,,,,,,,,,,,,,,,,,,,,,,,,,,
,,,,,,,,,,stimuli/images/PICTURE_68.png,ROOF,5a8035cfaa46dd00016b7793,15/02/1955,2020-09-12_08h27.37.096,proactive3.2,2020.1.2,MacIntel,60,5f5adea66120081ea0f57a61,5f5c7790437b2a01043a7b82,3,,,,,,candle,,,,,,0,57,57,38,1,4,1,,,,,,,,,,,,,,,,,,,,,,,,,,,,,,,,,,,,,,,,,,,,,,,,,,,,,,,,,,,,,,,,,,,,,,,,,,,
,,,,,,,,,,stimuli/images/PICTURE_233.png,LOTS,5a8035cfaa46dd00016b7793,15/02/1955,2020-09-12_08h27.37.096,proactive3.2,2020.1.2,MacIntel,60,5f5adea66120081ea0f57a61,5f5c7790437b2a01043a7b82,3,,,,,,salt,,,,,,0,58,58,42,1,5,1,,,,,,,,,,,,,,,,,,,,,,,,,,,,,,,,,,,,,,,,,,,,,,,,,,,,,,,,,,,,,,,,,,,,,,,,,,,
,,?,0.001,0,,,,,,stimuli/images/PICTURE_33.png,FRIEND,5a8035cfaa46dd00016b7793,15/02/1955,2020-09-12_08h27.37.096,proactive3.2,2020.1.2,MacIntel,60,5f5adea66120081ea0f57a61,5f5c7790437b2a01043a7b82,3,,,,,,frame,,,,,,,,,,,1,1,0,0,0,8,1,,,,,,,,,,,,,,,,,,,,,,,,,,,,,,,,,,,,,,,,,,,,,,,,,,,,,,,,,,,,,,,,,,,,,,
,,?,0.001,0,,,,,,stimuli/images/PICTURE_327.png,SERIES,5a8035cfaa46dd00016b7793,15/02/1955,2020-09-12_08h27.37.096,proactive3.2,2020.1.2,MacIntel,60,5f5adea66120081ea0f57a61,5f5c7790437b2a01043a7b82,3,,,,,,helmet,,,,,,,,,,,1,1,0,1,1,3,1,,,,,,,,,,,,,,,,,,,,,,,,,,,,,,,,,,,,,,,,,,,,,,,,,,,,,,,,,,,,,,,,,,,,,,
,,?,0.001,0,,,,,,stimuli/images/PICTURE_340.png,VALLEY,5a8035cfaa46dd00016b7793,15/02/1955,2020-09-12_08h27.37.096,proactive3.2,2020.1.2,MacIntel,60,5f5adea66120081ea0f57a61,5f5c7790437b2a01043a7b82,3,,,,,,mirror,,,,,,,,,,,6,1,0,2,2,54,1,,,,,,,,,,,,,,,,,,,,,,,,,,,,,,,,,,,,,,,,,,,,,,,,,,,,,,,,,,,,,,,,,,,,,,
,,?,0.001,0,,,,,,stimuli/images/PICTURE_203.png,NIGHT,5a8035cfaa46dd00016b7793,15/02/1955,2020-09-12_08h27.37.096,proactive3.2,2020.1.2,MacIntel,60,5f5adea66120081ea0f57a61,5f5c7790437b2a01043a7b82,3,,,,,,cap,,,,,,,,,,,1,1,0,3,3,2,1,,,,,,,,,,,,,,,,,,,,,,,,,,,,,,,,,,,,,,,,,,,,,,,,,,,,,,,,,,,,,,,,,,,,,,
,,?,0.001,0,,,,,,stimuli/images/PICTURE_504.png,YEAR,5a8035cfaa46dd00016b7793,15/02/1955,2020-09-12_08h27.37.096,proactive3.2,2020.1.2,MacIntel,60,5f5adea66120081ea0f57a61,5f5c7790437b2a01043a7b82,3,,,,,,wheel,,,,,,,,,,,2,1,0,4,4,13,1,,,,,,,,,,,,,,,,,,,,,,,,,,,,,,,,,,,,,,,,,,,,,,,,,,,,,,,,,,,,,,,,,,,,,,
,,LETTER,7.91,1,,,,,,stimuli/images/PICTURE_340.png,LETTER,5a8035cfaa46dd00016b7793,15/02/1955,2020-09-12_08h27.37.096,proactive3.2,2020.1.2,MacIntel,60,5f5adea66120081ea0f57a61,5f5c7790437b2a01043a7b82,3,,,,,,mirror,,,,,,,,,,,3,1,0,5,5,24,1,,,,,,,,,,,,,,,,,,,,,,,,,,,,,,,,,,,,,,,,,,,,,,,,,,,,,,,,,,,,,,,,,,,,,,
,,?,0.001,0,,,,,,stimuli/images/PICTURE_203.png,GODS,5a8035cfaa46dd00016b7793,15/02/1955,2020-09-12_08h27.37.096,proactive3.2,2020.1.2,MacIntel,60,5f5adea66120081ea0f57a61,5f5c7790437b2a01043a7b82,3,,,,,,cap,,,,,,,,,,,4,1,0,6,6,30,1,,,,,,,,,,,,,,,,,,,,,,,,,,,,,,,,,,,,,,,,,,,,,,,,,,,,,,,,,,,,,,,,,,,,,,
,,?,0.001,0,,,,,,stimuli/images/PICTURE_667.png,RIVER,5a8035cfaa46dd00016b7793,15/02/1955,2020-09-12_08h27.37.096,proactive3.2,2020.1.2,MacIntel,60,5f5adea66120081ea0f57a61,5f5c7790437b2a01043a7b82,3,,,,,,daisy,,,,,,,,,,,2,1,0,7,7,10,1,,,,,,,,,,,,,,,,,,,,,,,,,,,,,,,,,,,,,,,,,,,,,,,,,,,,,,,,,,,,,,,,,,,,,,
,,?,0.001,0,,,,,,stimuli/images/PICTURE_655.png,TOILET,5a8035cfaa46dd00016b7793,15/02/1955,2020-09-12_08h27.37.096,proactive3.2,2020.1.2,MacIntel,60,5f5adea66120081ea0f57a61,5f5c7790437b2a01043a7b82,3,,,,,,megaphone,,,,,,,,,,,2,1,0,8,8,12,1,,,,,,,,,,,,,,,,,,,,,,,,,,,,,,,,,,,,,,,,,,,,,,,,,,,,,,,,,,,,,,,,,,,,,,
,,?,0,0,,,,,,stimuli/images/PICTURE_85.png,TOILET,5a8035cfaa46dd00016b7793,15/02/1955,2020-09-12_08h27.37.096,proactive3.2,2020.1.2,MacIntel,60,5f5adea66120081ea0f57a61,5f5c7790437b2a01043a7b82,3,,,,,,diamond,,,,,,,,,,,5,1,0,9,9,48,1,,,,,,,,,,,,,,,,,,,,,,,,,,,,,,,,,,,,,,,,,,,,,,,,,,,,,,,,,,,,,,,,,,,,,,
,,?,0.001,0,,,,,,stimuli/images/PICTURE_108.png,FLIGHT,5a8035cfaa46dd00016b7793,15/02/1955,2020-09-12_08h27.37.096,proactive3.2,2020.1.2,MacIntel,60,5f5adea66120081ea0f57a61,5f5c7790437b2a01043a7b82,3,,,,,,calendar,,,,,,,,,,,6,1,0,10,10,59,1,,,,,,,,,,,,,,,,,,,,,,,,,,,,,,,,,,,,,,,,,,,,,,,,,,,,,,,,,,,,,,,,,,,,,,
,,WRITER,8.984,1,,,,,,stimuli/images/PICTURE_383.png,WRITER,5a8035cfaa46dd00016b7793,15/02/1955,2020-09-12_08h27.37.096,proactive3.2,2020.1.2,MacIntel,60,5f5adea66120081ea0f57a61,5f5c7790437b2a01043a7b82,3,,,,,,coin,,,,,,,,,,,3,1,0,11,11,28,1,,,,,,,,,,,,,,,,,,,,,,,,,,,,,,,,,,,,,,,,,,,,,,,,,,,,,,,,,,,,,,,,,,,,,,
,,?,0.001,0,,,,,,stimuli/images/PICTURE_57.png,MOMENT,5a8035cfaa46dd00016b7793,15/02/1955,2020-09-12_08h27.37.096,proactive3.2,2020.1.2,MacIntel,60,5f5adea66120081ea0f57a61,5f5c7790437b2a01043a7b82,3,,,,,,stamp,,,,,,,,,,,4,1,0,12,12,37,1,,,,,,,,,,,,,,,,,,,,,,,,,,,,,,,,,,,,,,,,,,,,,,,,,,,,,,,,,,,,,,,,,,,,,,
,,?,0.001,0,,,,,,stimuli/images/PICTURE_380.png,HONEY,5a8035cfaa46dd00016b7793,15/02/1955,2020-09-12_08h27.37.096,proactive3.2,2020.1.2,MacIntel,60,5f5adea66120081ea0f57a61,5f5c7790437b2a01043a7b82,3,,,,,,gorilla,,,,,,,,,,,2,1,0,13,13,19,1,,,,,,,,,,,,,,,,,,,,,,,,,,,,,,,,,,,,,,,,,,,,,,,,,,,,,,,,,,,,,,,,,,,,,,
,,?,0,0,,,,,,stimuli/images/PICTURE_308.png,FAMILY,5a8035cfaa46dd00016b7793,15/02/1955,2020-09-12_08h27.37.096,proactive3.2,2020.1.2,MacIntel,60,5f5adea66120081ea0f57a61,5f5c7790437b2a01043a7b82,3,,,,,,dice,,,,,,,,,,,4,1,0,14,14,36,1,,,,,,,,,,,,,,,,,,,,,,,,,,,,,,,,,,,,,,,,,,,,,,,,,,,,,,,,,,,,,,,,,,,,,,
,,TOILET,4.35,1,,,,,,stimuli/images/PICTURE_403.png,TOILET,5a8035cfaa46dd00016b7793,15/02/1955,2020-09-12_08h27.37.096,proactive3.2,2020.1.2,MacIntel,60,5f5adea66120081ea0f57a61,5f5c7790437b2a01043a7b82,3,,,,,,cathedral,,,,,,,,,,,3,1,0,15,15,25,1,,,,,,,,,,,,,,,,,,,,,,,,,,,,,,,,,,,,,,,,,,,,,,,,,,,,,,,,,,,,,,,,,,,,,,
,,?,0.002,0,,,,,,stimuli/images/PICTURE_208.png,SYSTEM,5a8035cfaa46dd00016b7793,15/02/1955,2020-09-12_08h27.37.096,proactive3.2,2020.1.2,MacIntel,60,5f5adea66120081ea0f57a61,5f5c7790437b2a01043a7b82,3,,,,,,microphone,,,,,,,,,,,4,1,0,16,16,32,1,,,,,,,,,,,,,,,,,,,,,,,,,,,,,,,,,,,,,,,,,,,,,,,,,,,,,,,,,,,,,,,,,,,,,,
,,?,0.001,0,,,,,,stimuli/images/PICTURE_68.png,ROOF,5a8035cfaa46dd00016b7793,15/02/1955,2020-09-12_08h27.37.096,proactive3.2,2020.1.2,MacIntel,60,5f5adea66120081ea0f57a61,5f5c7790437b2a01043a7b82,3,,,,,,candle,,,,,,,,,,,4,1,0,17,17,38,1,,,,,,,,,,,,,,,,,,,,,,,,,,,,,,,,,,,,,,,,,,,,,,,,,,,,,,,,,,,,,,,,,,,,,,
,,?,0,0,,,,,,stimuli/images/PICTURE_2.png,FLIGHT,5a8035cfaa46dd00016b7793,15/02/1955,2020-09-12_08h27.37.096,proactive3.2,2020.1.2,MacIntel,60,5f5adea66120081ea0f57a61,5f5c7790437b2a01043a7b82,3,,,,,,tyre,,,,,,,,,,,2,1,0,18,18,15,1,,,,,,,,,,,,,,,,,,,,,,,,,,,,,,,,,,,,,,,,,,,,,,,,,,,,,,,,,,,,,,,,,,,,,,
,,?,0.001,0,,,,,,stimuli/images/PICTURE_68.png,MILE,5a8035cfaa46dd00016b7793,15/02/1955,2020-09-12_08h27.37.096,proactive3.2,2020.1.2,MacIntel,60,5f5adea66120081ea0f57a61,5f5c7790437b2a01043a7b82,3,,,,,,candle,,,,,,,,,,,6,1,0,19,19,51,1,,,,,,,,,,,,,,,,,,,,,,,,,,,,,,,,,,,,,,,,,,,,,,,,,,,,,,,,,,,,,,,,,,,,,,
,,?,0.001,0,,,,,,stimuli/images/PICTURE_403.png,RIVER,5a8035cfaa46dd00016b7793,15/02/1955,2020-09-12_08h27.37.096,proactive3.2,2020.1.2,MacIntel,60,5f5adea66120081ea0f57a61,5f5c7790437b2a01043a7b82,3,,,,,,cathedral,,,,,,,,,,,5,1,0,20,20,40,1,,,,,,,,,,,,,,,,,,,,,,,,,,,,,,,,,,,,,,,,,,,,,,,,,,,,,,,,,,,,,,,,,,,,,,
,,?,0.001,0,,,,,,stimuli/images/PICTURE_380.png,CANDY,5a8035cfaa46dd00016b7793,15/02/1955,2020-09-12_08h27.37.096,proactive3.2,2020.1.2,MacIntel,60,5f5adea66120081ea0f57a61,5f5c7790437b2a01043a7b82,3,,,,,,gorilla,,,,,,,,,,,1,1,0,21,21,0,1,,,,,,,,,,,,,,,,,,,,,,,,,,,,,,,,,,,,,,,,,,,,,,,,,,,,,,,,,,,,,,,,,,,,,,
,,?,0,0,,,,,,stimuli/images/PICTURE_147.png,WOMEN,5a8035cfaa46dd00016b7793,15/02/1955,2020-09-12_08h27.37.096,proactive3.2,2020.1.2,MacIntel,60,5f5adea66120081ea0f57a61,5f5c7790437b2a01043a7b82,3,,,,,,hanger,,,,,,,,,,,1,1,0,22,22,7,1,,,,,,,,,,,,,,,,,,,,,,,,,,,,,,,,,,,,,,,,,,,,,,,,,,,,,,,,,,,,,,,,,,,,,,
,,?,0,0,,,,,,stimuli/images/PICTURE_32.png,PILLS,5a8035cfaa46dd00016b7793,15/02/1955,2020-09-12_08h27.37.096,proactive3.2,2020.1.2,MacIntel,60,5f5adea66120081ea0f57a61,5f5c7790437b2a01043a7b82,3,,,,,,crown,,,,,,,,,,,2,1,0,23,23,18,1,,,,,,,,,,,,,,,,,,,,,,,,,,,,,,,,,,,,,,,,,,,,,,,,,,,,,,,,,,,,,,,,,,,,,,
,,MONTH,9.273,1,,,,,,stimuli/images/PICTURE_654.png,MONTH,5a8035cfaa46dd00016b7793,15/02/1955,2020-09-12_08h27.37.096,proactive3.2,2020.1.2,MacIntel,60,5f5adea66120081ea0f57a61,5f5c7790437b2a01043a7b82,3,,,,,,pencil,,,,,,,,,,,3,1,0,24,24,29,1,,,,,,,,,,,,,,,,,,,,,,,,,,,,,,,,,,,,,,,,,,,,,,,,,,,,,,,,,,,,,,,,,,,,,,
,,POLICY,6.018,1,,,,,,stimuli/images/PICTURE_108.png,POLICY,5a8035cfaa46dd00016b7793,15/02/1955,2020-09-12_08h27.37.096,proactive3.2,2020.1.2,MacIntel,60,5f5adea66120081ea0f57a61,5f5c7790437b2a01043a7b82,3,,,,,,calendar,,,,,,,,,,,3,1,0,25,25,22,1,,,,,,,,,,,,,,,,,,,,,,,,,,,,,,,,,,,,,,,,,,,,,,,,,,,,,,,,,,,,,,,,,,,,,,
,,?,0.001,0,,,,,,stimuli/images/PICTURE_491.png,GLASS,5a8035cfaa46dd00016b7793,15/02/1955,2020-09-12_08h27.37.096,proactive3.2,2020.1.2,MacIntel,60,5f5adea66120081ea0f57a61,5f5c7790437b2a01043a7b82,3,,,,,,rug,,,,,,,,,,,2,1,0,26,26,14,1,,,,,,,,,,,,,,,,,,,,,,,,,,,,,,,,,,,,,,,,,,,,,,,,,,,,,,,,,,,,,,,,,,,,,,
,,?,0.001,0,,,,,,stimuli/images/PICTURE_296.png,LOTS,5a8035cfaa46dd00016b7793,15/02/1955,2020-09-12_08h27.37.096,proactive3.2,2020.1.2,MacIntel,60,5f5adea66120081ea0f57a61,5f5c7790437b2a01043a7b82,3,,,,,,bolt,,,,,,,,,,,1,1,0,27,27,9,1,,,,,,,,,,,,,,,,,,,,,,,,,,,,,,,,,,,,,,,,,,,,,,,,,,,,,,,,,,,,,,,,,,,,,,
,,?,0.001,0,,,,,,stimuli/images/PICTURE_677.png,APPLE,5a8035cfaa46dd00016b7793,15/02/1955,2020-09-12_08h27.37.096,proactive3.2,2020.1.2,MacIntel,60,5f5adea66120081ea0f57a61,5f5c7790437b2a01043a7b82,3,,,,,,map,,,,,,,,,,,5,1,0,28,28,43,1,,,,,,,,,,,,,,,,,,,,,,,,,,,,,,,,,,,,,,,,,,,,,,,,,,,,,,,,,,,,,,,,,,,,,,
,,BATH,4.46,1,,,,,,stimuli/images/PICTURE_564.png,BATH,5a8035cfaa46dd00016b7793,15/02/1955,2020-09-12_08h27.37.096,proactive3.2,2020.1.2,MacIntel,60,5f5adea66120081ea0f57a61,5f5c7790437b2a01043a7b82,3,,,,,,spoon,,,,,,,,,,,3,1,0,29,29,26,1,,,,,,,,,,,,,,,,,,,,,,,,,,,,,,,,,,,,,,,,,,,,,,,,,,,,,,,,,,,,,,,,,,,,,,
,,?,0.001,0,,,,,,stimuli/images/PICTURE_685.png,PENNY,5a8035cfaa46dd00016b7793,15/02/1955,2020-09-12_08h27.37.096,proactive3.2,2020.1.2,MacIntel,60,5f5adea66120081ea0f57a61,5f5c7790437b2a01043a7b82,3,,,,,,goose,,,,,,,,,,,1,1,0,30,30,4,1,,,,,,,,,,,,,,,,,,,,,,,,,,,,,,,,,,,,,,,,,,,,,,,,,,,,,,,,,,,,,,,,,,,,,,
,,?,0.001,0,,,,,,stimuli/images/PICTURE_177.png,WRITER,5a8035cfaa46dd00016b7793,15/02/1955,2020-09-12_08h27.37.096,proactive3.2,2020.1.2,MacIntel,60,5f5adea66120081ea0f57a61,5f5c7790437b2a01043a7b82,3,,,,,,mushroom,,,,,,,,,,,5,1,0,31,31,41,1,,,,,,,,,,,,,,,,,,,,,,,,,,,,,,,,,,,,,,,,,,,,,,,,,,,,,,,,,,,,,,,,,,,,,,
,,?,0.001,0,,,,,,stimuli/images/PICTURE_339.png,CLIENT,5a8035cfaa46dd00016b7793,15/02/1955,2020-09-12_08h27.37.096,proactive3.2,2020.1.2,MacIntel,60,5f5adea66120081ea0f57a61,5f5c7790437b2a01043a7b82,3,,,,,,backpack,,,,,,,,,,,2,1,0,32,32,11,1,,,,,,,,,,,,,,,,,,,,,,,,,,,,,,,,,,,,,,,,,,,,,,,,,,,,,,,,,,,,,,,,,,,,,,
,,?,0.001,0,,,,,,stimuli/images/PICTURE_285.png,LIFE,5a8035cfaa46dd00016b7793,15/02/1955,2020-09-12_08h27.37.096,proactive3.2,2020.1.2,MacIntel,60,5f5adea66120081ea0f57a61,5f5c7790437b2a01043a7b82,3,,,,,,carrot,,,,,,,,,,,4,1,0,33,33,33,1,,,,,,,,,,,,,,,,,,,,,,,,,,,,,,,,,,,,,,,,,,,,,,,,,,,,,,,,,,,,,,,,,,,,,,
,,?,0,0,,,,,,stimuli/images/PICTURE_95.png,MILLER,5a8035cfaa46dd00016b7793,15/02/1955,2020-09-12_08h27.37.096,proactive3.2,2020.1.2,MacIntel,60,5f5adea66120081ea0f57a61,5f5c7790437b2a01043a7b82,3,,,,,,suitcase,,,,,,,,,,,6,1,0,34,34,56,1,,,,,,,,,,,,,,,,,,,,,,,,,,,,,,,,,,,,,,,,,,,,,,,,,,,,,,,,,,,,,,,,,,,,,,
,,?,0.001,0,,,,,,stimuli/images/PICTURE_504.png,COPS,5a8035cfaa46dd00016b7793,15/02/1955,2020-09-12_08h27.37.096,proactive3.2,2020.1.2,MacIntel,60,5f5adea66120081ea0f57a61,5f5c7790437b2a01043a7b82,3,,,,,,wheel,,,,,,,,,,,6,1,0,35,35,52,1,,,,,,,,,,,,,,,,,,,,,,,,,,,,,,,,,,,,,,,,,,,,,,,,,,,,,,,,,,,,,,,,,,,,,,
,,?,0,0,,,,,,stimuli/images/PICTURE_42.png,BOYS,5a8035cfaa46dd00016b7793,15/02/1955,2020-09-12_08h27.37.096,proactive3.2,2020.1.2,MacIntel,60,5f5adea66120081ea0f57a61,5f5c7790437b2a01043a7b82,3,,,,,,pear,,,,,,,,,,,6,1,0,36,36,55,1,,,,,,,,,,,,,,,,,,,,,,,,,,,,,,,,,,,,,,,,,,,,,,,,,,,,,,,,,,,,,,,,,,,,,,
,,?,0.001,0,,,,,,stimuli/images/PICTURE_297.png,RIVER,5a8035cfaa46dd00016b7793,15/02/1955,2020-09-12_08h27.37.096,proactive3.2,2020.1.2,MacIntel,60,5f5adea66120081ea0f57a61,5f5c7790437b2a01043a7b82,3,,,,,,aeroplane,,,,,,,,,,,4,1,0,37,37,39,1,,,,,,,,,,,,,,,,,,,,,,,,,,,,,,,,,,,,,,,,,,,,,,,,,,,,,,,,,,,,,,,,,,,,,,
,,?,0.001,0,,,,,,stimuli/images/PICTURE_487.png,GIRL,5a8035cfaa46dd00016b7793,15/02/1955,2020-09-12_08h27.37.096,proactive3.2,2020.1.2,MacIntel,60,5f5adea66120081ea0f57a61,5f5c7790437b2a01043a7b82,3,,,,,,basket,,,,,,,,,,,5,1,0,38,38,45,1,,,,,,,,,,,,,,,,,,,,,,,,,,,,,,,,,,,,,,,,,,,,,,,,,,,,,,,,,,,,,,,,,,,,,,
,,?,0,0,,,,,,stimuli/images/PICTURE_491.png,RIVER,5a8035cfaa46dd00016b7793,15/02/1955,2020-09-12_08h27.37.096,proactive3.2,2020.1.2,MacIntel,60,5f5adea66120081ea0f57a61,5f5c7790437b2a01043a7b82,3,,,,,,rug,,,,,,,,,,,1,1,0,39,39,6,1,,,,,,,,,,,,,,,,,,,,,,,,,,,,,,,,,,,,,,,,,,,,,,,,,,,,,,,,,,,,,,,,,,,,,,
,,?,0.001,0,,,,,,stimuli/images/PICTURE_708.png,RECORD,5a8035cfaa46dd00016b7793,15/02/1955,2020-09-12_08h27.37.096,proactive3.2,2020.1.2,MacIntel,60,5f5adea66120081ea0f57a61,5f5c7790437b2a01043a7b82,3,,,,,,monkey,,,,,,,,,,,6,1,0,40,40,58,1,,,,,,,,,,,,,,,,,,,,,,,,,,,,,,,,,,,,,,,,,,,,,,,,,,,,,,,,,,,,,,,,,,,,,,
,,YEAR,3.785,1,,,,,,stimuli/images/PICTURE_147.png,YEAR,5a8035cfaa46dd00016b7793,15/02/1955,2020-09-12_08h27.37.096,proactive3.2,2020.1.2,MacIntel,60,5f5adea66120081ea0f57a61,5f5c7790437b2a01043a7b82,3,,,,,,hanger,,,,,,,,,,,3,1,0,41,41,21,1,,,,,,,,,,,,,,,,,,,,,,,,,,,,,,,,,,,,,,,,,,,,,,,,,,,,,,,,,,,,,,,,,,,,,,
,,CASINO,4.472,1,,,,,,stimuli/images/PICTURE_327.png,CASINO,5a8035cfaa46dd00016b7793,15/02/1955,2020-09-12_08h27.37.096,proactive3.2,2020.1.2,MacIntel,60,5f5adea66120081ea0f57a61,5f5c7790437b2a01043a7b82,3,,,,,,helmet,,,,,,,,,,,3,1,0,42,42,20,1,,,,,,,,,,,,,,,,,,,,,,,,,,,,,,,,,,,,,,,,,,,,,,,,,,,,,,,,,,,,,,,,,,,,,,
,,?,0.003,0,,,,,,stimuli/images/PICTURE_504.png,ARTIST,5a8035cfaa46dd00016b7793,15/02/1955,2020-09-12_08h27.37.096,proactive3.2,2020.1.2,MacIntel,60,5f5adea66120081ea0f57a61,5f5c7790437b2a01043a7b82,3,,,,,,wheel,,,,,,,,,,,5,1,0,43,43,49,1,,,,,,,,,,,,,,,,,,,,,,,,,,,,,,,,,,,,,,,,,,,,,,,,,,,,,,,,,,,,,,,,,,,,,,
,,?,0.001,0,,,,,,stimuli/images/PICTURE_744.png,WEAPON,5a8035cfaa46dd00016b7793,15/02/1955,2020-09-12_08h27.37.096,proactive3.2,2020.1.2,MacIntel,60,5f5adea66120081ea0f57a61,5f5c7790437b2a01043a7b82,3,,,,,,ring,,,,,,,,,,,6,1,0,44,44,50,1,,,,,,,,,,,,,,,,,,,,,,,,,,,,,,,,,,,,,,,,,,,,,,,,,,,,,,,,,,,,,,,,,,,,,,
,,?,0.001,0,,,,,,stimuli/images/PICTURE_95.png,HONEY,5a8035cfaa46dd00016b7793,15/02/1955,2020-09-12_08h27.37.096,proactive3.2,2020.1.2,MacIntel,60,5f5adea66120081ea0f57a61,5f5c7790437b2a01043a7b82,3,,,,,,suitcase,,,,,,,,,,,5,1,0,45,45,44,1,,,,,,,,,,,,,,,,,,,,,,,,,,,,,,,,,,,,,,,,,,,,,,,,,,,,,,,,,,,,,,,,,,,,,,
,,?,0,0,,,,,,stimuli/images/PICTURE_403.png,WRITER,5a8035cfaa46dd00016b7793,15/02/1955,2020-09-12_08h27.37.096,proactive3.2,2020.1.2,MacIntel,60,5f5adea66120081ea0f57a61,5f5c7790437b2a01043a7b82,3,,,,,,cathedral,,,,,,,,,,,4,1,0,46,46,31,1,,,,,,,,,,,,,,,,,,,,,,,,,,,,,,,,,,,,,,,,,,,,,,,,,,,,,,,,,,,,,,,,,,,,,,
,,HOTEL,4.939,1,,,,,,stimuli/images/PICTURE_750.png,HOTEL,5a8035cfaa46dd00016b7793,15/02/1955,2020-09-12_08h27.37.096,proactive3.2,2020.1.2,MacIntel,60,5f5adea66120081ea0f57a61,5f5c7790437b2a01043a7b82,3,,,,,,kettle,,,,,,,,,,,3,1,0,47,47,27,1,,,,,,,,,,,,,,,,,,,,,,,,,,,,,,,,,,,,,,,,,,,,,,,,,,,,,,,,,,,,,,,,,,,,,,
,,?,0.001,0,,,,,,stimuli/images/PICTURE_95.png,BOYS,5a8035cfaa46dd00016b7793,15/02/1955,2020-09-12_08h27.37.096,proactive3.2,2020.1.2,MacIntel,60,5f5adea66120081ea0f57a61,5f5c7790437b2a01043a7b82,3,,,,,,suitcase,,,,,,,,,,,1,1,0,48,48,1,1,,,,,,,,,,,,,,,,,,,,,,,,,,,,,,,,,,,,,,,,,,,,,,,,,,,,,,,,,,,,,,,,,,,,,,
,,?,0,0,,,,,,stimuli/images/PICTURE_383.png,SERIES,5a8035cfaa46dd00016b7793,15/02/1955,2020-09-12_08h27.37.096,proactive3.2,2020.1.2,MacIntel,60,5f5adea66120081ea0f57a61,5f5c7790437b2a01043a7b82,3,,,,,,coin,,,,,,,,,,,5,1,0,49,49,46,1,,,,,,,,,,,,,,,,,,,,,,,,,,,,,,,,,,,,,,,,,,,,,,,,,,,,,,,,,,,,,,,,,,,,,,
,,PLENTY,5.153,1,,,,,,stimuli/images/PICTURE_405.png,PLENTY,5a8035cfaa46dd00016b7793,15/02/1955,2020-09-12_08h27.37.096,proactive3.2,2020.1.2,MacIntel,60,5f5adea66120081ea0f57a61,5f5c7790437b2a01043a7b82,3,,,,,,anchor,,,,,,,,,,,3,1,0,50,50,23,1,,,,,,,,,,,,,,,,,,,,,,,,,,,,,,,,,,,,,,,,,,,,,,,,,,,,,,,,,,,,,,,,,,,,,,
,,?,0.001,0,,,,,,stimuli/images/PICTURE_32.png,KIND,5a8035cfaa46dd00016b7793,15/02/1955,2020-09-12_08h27.37.096,proactive3.2,2020.1.2,MacIntel,60,5f5adea66120081ea0f57a61,5f5c7790437b2a01043a7b82,3,,,,,,crown,,,,,,,,,,,4,1,0,51,51,35,1,,,,,,,,,,,,,,,,,,,,,,,,,,,,,,,,,,,,,,,,,,,,,,,,,,,,,,,,,,,,,,,,,,,,,,
,,?,0.001,0,,,,,,stimuli/images/PICTURE_85.png,NATION,5a8035cfaa46dd00016b7793,15/02/1955,2020-09-12_08h27.37.096,proactive3.2,2020.1.2,MacIntel,60,5f5adea66120081ea0f57a61,5f5c7790437b2a01043a7b82,3,,,,,,diamond,,,,,,,,,,,1,1,0,52,52,5,1,,,,,,,,,,,,,,,,,,,,,,,,,,,,,,,,,,,,,,,,,,,,,,,,,,,,,,,,,,,,,,,,,,,,,,
,,?,0.001,0,,,,,,stimuli/images/PICTURE_449.png,DUDE,5a8035cfaa46dd00016b7793,15/02/1955,2020-09-12_08h27.37.096,proactive3.2,2020.1.2,MacIntel,60,5f5adea66120081ea0f57a61,5f5c7790437b2a01043a7b82,3,,,,,,bench,,,,,,,,,,,2,1,0,53,53,17,1,,,,,,,,,,,,,,,,,,,,,,,,,,,,,,,,,,,,,,,,,,,,,,,,,,,,,,,,,,,,,,,,,,,,,,
,,?,0.001,0,,,,,,stimuli/images/PICTURE_675.png,SALE,5a8035cfaa46dd00016b7793,15/02/1955,2020-09-12_08h27.37.096,proactive3.2,2020.1.2,MacIntel,60,5f5adea66120081ea0f57a61,5f5c7790437b2a01043a7b82,3,,,,,,windmill,,,,,,,,,,,5,1,0,54,54,47,1,,,,,,,,,,,,,,,,,,,,,,,,,,,,,,,,,,,,,,,,,,,,,,,,,,,,,,,,,,,,,,,,,,,,,,
,,?,0.001,0,,,,,,stimuli/images/PICTURE_469.png,AGENT,5a8035cfaa46dd00016b7793,15/02/1955,2020-09-12_08h27.37.096,proactive3.2,2020.1.2,MacIntel,60,5f5adea66120081ea0f57a61,5f5c7790437b2a01043a7b82,3,,,,,,stool,,,,,,,,,,,2,1,0,55,55,16,1,,,,,,,,,,,,,,,,,,,,,,,,,,,,,,,,,,,,,,,,,,,,,,,,,,,,,,,,,,,,,,,,,,,,,,
,,?,0.001,0,,,,,,stimuli/images/PICTURE_467.png,POLICY,5a8035cfaa46dd00016b7793,15/02/1955,2020-09-12_08h27.37.096,proactive3.2,2020.1.2,MacIntel,60,5f5adea66120081ea0f57a61,5f5c7790437b2a01043a7b82,3,,,,,,peg,,,,,,,,,,,6,1,0,56,56,53,1,,,,,,,,,,,,,,,,,,,,,,,,,,,,,,,,,,,,,,,,,,,,,,,,,,,,,,,,,,,,,,,,,,,,,,
,,?,0.001,0,,,,,,stimuli/images/PICTURE_405.png,YEAR,5a8035cfaa46dd00016b7793,15/02/1955,2020-09-12_08h27.37.096,proactive3.2,2020.1.2,MacIntel,60,5f5adea66120081ea0f57a61,5f5c7790437b2a01043a7b82,3,,,,,,anchor,,,,,,,,,,,4,1,0,57,57,34,1,,,,,,,,,,,,,,,,,,,,,,,,,,,,,,,,,,,,,,,,,,,,,,,,,,,,,,,,,,,,,,,,,,,,,,
,,?,0.001,0,,,,,,stimuli/images/PICTURE_296.png,LIFE,5a8035cfaa46dd00016b7793,15/02/1955,2020-09-12_08h27.37.096,proactive3.2,2020.1.2,MacIntel,60,5f5adea66120081ea0f57a61,5f5c7790437b2a01043a7b82,3,,,,,,bolt,,,,,,,,,,,6,1,0,58,58,57,1,,,,,,,,,,,,,,,,,,,,,,,,,,,,,,,,,,,,,,,,,,,,,,,,,,,,,,,,,,,,,,,,,,,,,,
,,?,0.001,0,,,,,,stimuli/images/PICTURE_233.png,LOTS,5a8035cfaa46dd00016b7793,15/02/1955,2020-09-12_08h27.37.096,proactive3.2,2020.1.2,MacIntel,60,5f5adea66120081ea0f57a61,5f5c7790437b2a01043a7b82,3,,,,,,salt,,,,,,,,,,,5,1,0,59,59,42,1,,,,,,,,,,,,,,,,,,,,,,,,,,,,,,,,,,,,,,,,,,,,,,,,,,,,,,,,,,,,,,,,,,,,,,
,,,,,,,,,,,,5a8035cfaa46dd00016b7793,15/02/1955,2020-09-12_08h27.37.096,proactive3.2,2020.1.2,MacIntel,60,5f5adea66120081ea0f57a61,5f5c7790437b2a01043a7b82,3,,,,,,,,,,,,,,,,,,,,,,,,0,1,1,1,1,stimuli/learn-block2.csv,,,,,,,,,,,,,,,,,,,,,,,,,,,,,,,,,,,,,,,,,,,,,,,,,,,,,,,,,,,,,,,,
,,,,,,,,,,stimuli/images/PICTURE_380.png,PHOTO,5a8035cfaa46dd00016b7793,15/02/1955,2020-09-12_08h27.37.096,proactive3.2,2020.1.2,MacIntel,60,5f5adea66120081ea0f57a61,5f5c7790437b2a01043a7b82,3,,,,,,gorilla,,,,,,0,0,0,52,1,6,0,,,,,,,,,,,,,,,,,,,,,,,,,,,,,,,,,,,,,,,,,,,,,,,,,,,,,,,,,,,,,,,,,,,,,,,,,,,
,,,,,,,,,,stimuli/images/PICTURE_151.png,GIRL,5a8035cfaa46dd00016b7793,15/02/1955,2020-09-12_08h27.37.096,proactive3.2,2020.1.2,MacIntel,60,5f5adea66120081ea0f57a61,5f5c7790437b2a01043a7b82,3,,,,,,tray,,,,,,0,1,1,19,1,2,0,,,,,,,,,,,,,,,,,,,,,,,,,,,,,,,,,,,,,,,,,,,,,,,,,,,,,,,,,,,,,,,,,,,,,,,,,,,
,,,,,,,,,,stimuli/images/PICTURE_654.png,VALLEY,5a8035cfaa46dd00016b7793,15/02/1955,2020-09-12_08h27.37.096,proactive3.2,2020.1.2,MacIntel,60,5f5adea66120081ea0f57a61,5f5c7790437b2a01043a7b82,3,,,,,,pencil,,,,,,0,2,2,1,1,1,0,,,,,,,,,,,,,,,,,,,,,,,,,,,,,,,,,,,,,,,,,,,,,,,,,,,,,,,,,,,,,,,,,,,,,,,,,,,
,,,,,,,,,,stimuli/images/PICTURE_308.png,KIND,5a8035cfaa46dd00016b7793,15/02/1955,2020-09-12_08h27.37.096,proactive3.2,2020.1.2,MacIntel,60,5f5adea66120081ea0f57a61,5f5c7790437b2a01043a7b82,3,,,,,,dice,,,,,,0,3,3,54,1,6,0,,,,,,,,,,,,,,,,,,,,,,,,,,,,,,,,,,,,,,,,,,,,,,,,,,,,,,,,,,,,,,,,,,,,,,,,,,,
,,,,,,,,,,stimuli/images/PICTURE_380.png,DEATH,5a8035cfaa46dd00016b7793,15/02/1955,2020-09-12_08h27.37.096,proactive3.2,2020.1.2,MacIntel,60,5f5adea66120081ea0f57a61,5f5c7790437b2a01043a7b82,3,,,,,,gorilla,,,,,,0,4,4,49,1,5,0,,,,,,,,,,,,,,,,,,,,,,,,,,,,,,,,,,,,,,,,,,,,,,,,,,,,,,,,,,,,,,,,,,,,,,,,,,,
,,,,,,,,,,stimuli/images/PICTURE_177.png,CARS,5a8035cfaa46dd00016b7793,15/02/1955,2020-09-12_08h27.37.096,proactive3.2,2020.1.2,MacIntel,60,5f5adea66120081ea0f57a61,5f5c7790437b2a01043a7b82,3,,,,,,mushroom,,,,,,0,5,5,35,1,4,0,,,,,,,,,,,,,,,,,,,,,,,,,,,,,,,,,,,,,,,,,,,,,,,,,,,,,,,,,,,,,,,,,,,,,,,,,,,
,,,,,,,,,,stimuli/images/PICTURE_504.png,BODY,5a8035cfaa46dd00016b7793,15/02/1955,2020-09-12_08h27.37.096,proactive3.2,2020.1.2,MacIntel,60,5f5adea66120081ea0f57a61,5f5c7790437b2a01043a7b82,3,,,,,,wheel,,,,,,0,6,6,8,1,1,0,,,,,,,,,,,,,,,,,,,,,,,,,,,,,,,,,,,,,,,,,,,,,,,,,,,,,,,,,,,,,,,,,,,,,,,,,,,
,,,,,,,,,,stimuli/images/PICTURE_667.png,PLENTY,5a8035cfaa46dd00016b7793,15/02/1955,2020-09-12_08h27.37.096,proactive3.2,2020.1.2,MacIntel,60,5f5adea66120081ea0f57a61,5f5c7790437b2a01043a7b82,3,,,,,,daisy,,,,,,0,7,7,41,1,5,0,,,,,,,,,,,,,,,,,,,,,,,,,,,,,,,,,,,,,,,,,,,,,,,,,,,,,,,,,,,,,,,,,,,,,,,,,,,
,,,,,,,,,,stimuli/images/PICTURE_160.png,FEET,5a8035cfaa46dd00016b7793,15/02/1955,2020-09-12_08h27.37.096,proactive3.2,2020.1.2,MacIntel,60,5f5adea66120081ea0f57a61,5f5c7790437b2a01043a7b82,3,,,,,,wheelbarrow,,,,,,0,8,8,58,1,6,0,,,,,,,,,,,,,,,,,,,,,,,,,,,,,,,,,,,,,,,,,,,,,,,,,,,,,,,,,,,,,,,,,,,,,,,,,,,
,,,,,,,,,,stimuli/images/PICTURE_302.png,FAMILY,5a8035cfaa46dd00016b7793,15/02/1955,2020-09-12_08h27.37.096,proactive3.2,2020.1.2,MacIntel,60,5f5adea66120081ea0f57a61,5f5c7790437b2a01043a7b82,3,,,,,,taxi,,,,,,0,9,9,18,1,2,0,,,,,,,,,,,,,,,,,,,,,,,,,,,,,,,,,,,,,,,,,,,,,,,,,,,,,,,,,,,,,,,,,,,,,,,,,,,
,,,,,,,,,,stimuli/images/PICTURE_123.png,ADVICE,5a8035cfaa46dd00016b7793,15/02/1955,2020-09-12_08h27.37.096,proactive3.2,2020.1.2,MacIntel,60,5f5adea66120081ea0f57a61,5f5c7790437b2a01043a7b82,3,,,,,,dart,,,,,,0,10,10,40,1,5,0,,,,,,,,,,,,,,,,,,,,,,,,,,,,,,,,,,,,,,,,,,,,,,,,,,,,,,,,,,,,,,,,,,,,,,,,,,,
,,,,,,,,,,stimuli/images/PICTURE_314.png,GODS,5a8035cfaa46dd00016b7793,15/02/1955,2020-09-12_08h27.37.096,proactive3.2,2020.1.2,MacIntel,60,5f5adea66120081ea0f57a61,5f5c7790437b2a01043a7b82,3,,,,,,perfume,,,,,,0,11,11,11,1,2,0,,,,,,,,,,,,,,,,,,,,,,,,,,,,,,,,,,,,,,,,,,,,,,,,,,,,,,,,,,,,,,,,,,,,,,,,,,,
,,,,,,,,,,stimuli/images/PICTURE_85.png,THING,5a8035cfaa46dd00016b7793,15/02/1955,2020-09-12_08h27.37.096,proactive3.2,2020.1.2,MacIntel,60,5f5adea66120081ea0f57a61,5f5c7790437b2a01043a7b82,3,,,,,,diamond,,,,,,0,12,12,15,1,2,0,,,,,,,,,,,,,,,,,,,,,,,,,,,,,,,,,,,,,,,,,,,,,,,,,,,,,,,,,,,,,,,,,,,,,,,,,,,
,,,,,,,,,,stimuli/images/PICTURE_675.png,WEAPON,5a8035cfaa46dd00016b7793,15/02/1955,2020-09-12_08h27.37.096,proactive3.2,2020.1.2,MacIntel,60,5f5adea66120081ea0f57a61,5f5c7790437b2a01043a7b82,3,,,,,,windmill,,,,,,0,13,13,32,1,4,0,,,,,,,,,,,,,,,,,,,,,,,,,,,,,,,,,,,,,,,,,,,,,,,,,,,,,,,,,,,,,,,,,,,,,,,,,,,
,,,,,,,,,,stimuli/images/PICTURE_667.png,BATH,5a8035cfaa46dd00016b7793,15/02/1955,2020-09-12_08h27.37.096,proactive3.2,2020.1.2,MacIntel,60,5f5adea66120081ea0f57a61,5f5c7790437b2a01043a7b82,3,,,,,,daisy,,,,,,0,14,14,4,1,1,0,,,,,,,,,,,,,,,,,,,,,,,,,,,,,,,,,,,,,,,,,,,,,,,,,,,,,,,,,,,,,,,,,,,,,,,,,,,
,,,,,,,,,,stimuli/images/PICTURE_95.png,STYLE,5a8035cfaa46dd00016b7793,15/02/1955,2020-09-12_08h27.37.096,proactive3.2,2020.1.2,MacIntel,60,5f5adea66120081ea0f57a61,5f5c7790437b2a01043a7b82,3,,,,,,suitcase,,,,,,0,15,15,25,1,3,0,,,,,,,,,,,,,,,,,,,,,,,,,,,,,,,,,,,,,,,,,,,,,,,,,,,,,,,,,,,,,,,,,,,,,,,,,,,
,,,,,,,,,,stimuli/images/PICTURE_208.png,THING,5a8035cfaa46dd00016b7793,15/02/1955,2020-09-12_08h27.37.096,proactive3.2,2020.1.2,MacIntel,60,5f5adea66120081ea0f57a61,5f5c7790437b2a01043a7b82,3,,,,,,microphone,,,,,,0,16,16,47,1,5,0,,,,,,,,,,,,,,,,,,,,,,,,,,,,,,,,,,,,,,,,,,,,,,,,,,,,,,,,,,,,,,,,,,,,,,,,,,,
,,,,,,,,,,stimuli/images/PICTURE_470.png,CASINO,5a8035cfaa46dd00016b7793,15/02/1955,2020-09-12_08h27.37.096,proactive3.2,2020.1.2,MacIntel,60,5f5adea66120081ea0f57a61,5f5c7790437b2a01043a7b82,3,,,,,,motorbike,,,,,,0,17,17,36,1,4,0,,,,,,,,,,,,,,,,,,,,,,,,,,,,,,,,,,,,,,,,,,,,,,,,,,,,,,,,,,,,,,,,,,,,,,,,,,,
,,,,,,,,,,stimuli/images/PICTURE_327.png,BEAUTY,5a8035cfaa46dd00016b7793,15/02/1955,2020-09-12_08h27.37.096,proactive3.2,2020.1.2,MacIntel,60,5f5adea66120081ea0f57a61,5f5c7790437b2a01043a7b82,3,,,,,,helmet,,,,,,0,18,18,48,1,5,0,,,,,,,,,,,,,,,,,,,,,,,,,,,,,,,,,,,,,,,,,,,,,,,,,,,,,,,,,,,,,,,,,,,,,,,,,,,
,,,,,,,,,,stimuli/images/PICTURE_248.png,DOZEN,5a8035cfaa46dd00016b7793,15/02/1955,2020-09-12_08h27.37.096,proactive3.2,2020.1.2,MacIntel,60,5f5adea66120081ea0f57a61,5f5c7790437b2a01043a7b82,3,,,,,,cart,,,,,,0,19,19,39,1,4,0,,,,,,,,,,,,,,,,,,,,,,,,,,,,,,,,,,,,,,,,,,,,,,,,,,,,,,,,,,,,,,,,,,,,,,,,,,,
,,,,,,,,,,stimuli/images/PICTURE_348.png,SPEECH,5a8035cfaa46dd00016b7793,15/02/1955,2020-09-12_08h27.37.096,proactive3.2,2020.1.2,MacIntel,60,5f5adea66120081ea0f57a61,5f5c7790437b2a01043a7b82,3,,,,,,pepper,,,,,,0,20,20,20,1,3,0,,,,,,,,,,,,,,,,,,,,,,,,,,,,,,,,,,,,,,,,,,,,,,,,,,,,,,,,,,,,,,,,,,,,,,,,,,,
,,,,,,,,,,stimuli/images/PICTURE_308.png,ESTATE,5a8035cfaa46dd00016b7793,15/02/1955,2020-09-12_08h27.37.096,proactive3.2,2020.1.2,MacIntel,60,5f5adea66120081ea0f57a61,5f5c7790437b2a01043a7b82,3,,,,,,dice,,,,,,0,21,21,46,1,5,0,,,,,,,,,,,,,,,,,,,,,,,,,,,,,,,,,,,,,,,,,,,,,,,,,,,,,,,,,,,,,,,,,,,,,,,,,,,
,,,,,,,,,,stimuli/images/PICTURE_285.png,ADVICE,5a8035cfaa46dd00016b7793,15/02/1955,2020-09-12_08h27.37.096,proactive3.2,2020.1.2,MacIntel,60,5f5adea66120081ea0f57a61,5f5c7790437b2a01043a7b82,3,,,,,,carrot,,,,,,0,22,22,12,1,2,0,,,,,,,,,,,,,,,,,,,,,,,,,,,,,,,,,,,,,,,,,,,,,,,,,,,,,,,,,,,,,,,,,,,,,,,,,,,
,,,,,,,,,,stimuli/images/PICTURE_453.png,DUDE,5a8035cfaa46dd00016b7793,15/02/1955,2020-09-12_08h27.37.096,proactive3.2,2020.1.2,MacIntel,60,5f5adea66120081ea0f57a61,5f5c7790437b2a01043a7b82,3,,,,,,scissors,,,,,,0,23,23,27,1,3,0,,,,,,,,,,,,,,,,,,,,,,,,,,,,,,,,,,,,,,,,,,,,,,,,,,,,,,,,,,,,,,,,,,,,,,,,,,,
,,,,,,,,,,stimuli/images/PICTURE_233.png,WOMEN,5a8035cfaa46dd00016b7793,15/02/1955,2020-09-12_08h27.37.096,proactive3.2,2020.1.2,MacIntel,60,5f5adea66120081ea0f57a61,5f5c7790437b2a01043a7b82,3,,,,,,salt,,,,,,0,24,24,38,1,4,0,,,,,,,,,,,,,,,,,,,,,,,,,,,,,,,,,,,,,,,,,,,,,,,,,,,,,,,,,,,,,,,,,,,,,,,,,,,
,,,,,,,,,,stimuli/images/PICTURE_311.png,BEAUTY,5a8035cfaa46dd00016b7793,15/02/1955,2020-09-12_08h27.37.096,proactive3.2,2020.1.2,MacIntel,60,5f5adea66120081ea0f57a61,5f5c7790437b2a01043a7b82,3,,,,,,razor,,,,,,0,25,25,13,1,2,0,,,,,,,,,,,,,,,,,,,,,,,,,,,,,,,,,,,,,,,,,,,,,,,,,,,,,,,,,,,,,,,,,,,,,,,,,,,
,,,,,,,,,,stimuli/images/PICTURE_314.png,SAKE,5a8035cfaa46dd00016b7793,15/02/1955,2020-09-12_08h27.37.096,proactive3.2,2020.1.2,MacIntel,60,5f5adea66120081ea0f57a61,5f5c7790437b2a01043a7b82,3,,,,,,perfume,,,,,,0,26,26,7,1,1,0,,,,,,,,,,,,,,,,,,,,,,,,,,,,,,,,,,,,,,,,,,,,,,,,,,,,,,,,,,,,,,,,,,,,,,,,,,,
,,,,,,,,,,stimuli/images/PICTURE_339.png,PLENTY,5a8035cfaa46dd00016b7793,15/02/1955,2020-09-12_08h27.37.096,proactive3.2,2020.1.2,MacIntel,60,5f5adea66120081ea0f57a61,5f5c7790437b2a01043a7b82,3,,,,,,backpack,,,,,,0,27,27,0,1,1,0,,,,,,,,,,,,,,,,,,,,,,,,,,,,,,,,,,,,,,,,,,,,,,,,,,,,,,,,,,,,,,,,,,,,,,,,,,,
,,,,,,,,,,stimuli/images/PICTURE_469.png,ARTIST,5a8035cfaa46dd00016b7793,15/02/1955,2020-09-12_08h27.37.096,proactive3.2,2020.1.2,MacIntel,60,5f5adea66120081ea0f57a61,5f5c7790437b2a01043a7b82,3,,,,,,stool,,,,,,0,28,28,6,1,1,0,,,,,,,,,,,,,,,,,,,,,,,,,,,,,,,,,,,,,,,,,,,,,,,,,,,,,,,,,,,,,,,,,,,,,,,,,,,
,,,,,,,,,,stimuli/images/PICTURE_467.png,DEMON,5a8035cfaa46dd00016b7793,15/02/1955,2020-09-12_08h27.37.096,proactive3.2,2020.1.2,MacIntel,60,5f5adea66120081ea0f57a61,5f5c7790437b2a01043a7b82,3,,,,,,peg,,,,,,0,29,29,23,1,3,0,,,,,,,,,,,,,,,,,,,,,,,,,,,,,,,,,,,,,,,,,,,,,,,,,,,,,,,,,,,,,,,,,,,,,,,,,,,
,,,,,,,,,,stimuli/images/PICTURE_688.png,WOMEN,5a8035cfaa46dd00016b7793,15/02/1955,2020-09-12_08h27.37.096,proactive3.2,2020.1.2,MacIntel,60,5f5adea66120081ea0f57a61,5f5c7790437b2a01043a7b82,3,,,,,,runner,,,,,,0,30,30,14,1,2,0,,,,,,,,,,,,,,,,,,,,,,,,,,,,,,,,,,,,,,,,,,,,,,,,,,,,,,,,,,,,,,,,,,,,,,,,,,,
,,,,,,,,,,stimuli/images/PICTURE_677.png,MILE,5a8035cfaa46dd00016b7793,15/02/1955,2020-09-12_08h27.37.096,proactive3.2,2020.1.2,MacIntel,60,5f5adea66120081ea0f57a61,5f5c7790437b2a01043a7b82,3,,,,,,map,,,,,,0,31,31,30,1,4,0,,,,,,,,,,,,,,,,,,,,,,,,,,,,,,,,,,,,,,,,,,,,,,,,,,,,,,,,,,,,,,,,,,,,,,,,,,,
,,,,,,,,,,stimuli/images/PICTURE_255.png,AREA,5a8035cfaa46dd00016b7793,15/02/1955,2020-09-12_08h27.37.096,proactive3.2,2020.1.2,MacIntel,60,5f5adea66120081ea0f57a61,5f5c7790437b2a01043a7b82,3,,,,,,shovel,,,,,,0,32,32,22,1,3,0,,,,,,,,,,,,,,,,,,,,,,,,,,,,,,,,,,,,,,,,,,,,,,,,,,,,,,,,,,,,,,,,,,,,,,,,,,,
,,,,,,,,,,stimuli/images/PICTURE_32.png,JUNGLE,5a8035cfaa46dd00016b7793,15/02/1955,2020-09-12_08h27.37.096,proactive3.2,2020.1.2,MacIntel,60,5f5adea66120081ea0f57a61,5f5c7790437b2a01043a7b82,3,,,,,,crown,,,,,,0,33,33,45,1,5,0,,,,,,,,,,,,,,,,,,,,,,,,,,,,,,,,,,,,,,,,,,,,,,,,,,,,,,,,,,,,,,,,,,,,,,,,,,,
,,,,,,,,,,stimuli/images/PICTURE_449.png,THING,5a8035cfaa46dd00016b7793,15/02/1955,2020-09-12_08h27.37.096,proactive3.2,2020.1.2,MacIntel,60,5f5adea66120081ea0f57a61,5f5c7790437b2a01043a7b82,3,,,,,,bench,,,,,,0,34,34,59,1,6,0,,,,,,,,,,,,,,,,,,,,,,,,,,,,,,,,,,,,,,,,,,,,,,,,,,,,,,,,,,,,,,,,,,,,,,,,,,,
,,,,,,,,,,stimuli/images/PICTURE_708.png,YARD,5a8035cfaa46dd00016b7793,15/02/1955,2020-09-12_08h27.37.096,proactive3.2,2020.1.2,MacIntel,60,5f5adea66120081ea0f57a61,5f5c7790437b2a01043a7b82,3,,,,,,monkey,,,,,,0,35,35,29,1,3,0,,,,,,,,,,,,,,,,,,,,,,,,,,,,,,,,,,,,,,,,,,,,,,,,,,,,,,,,,,,,,,,,,,,,,,,,,,,
,,,,,,,,,,stimuli/images/PICTURE_356.png,DANGER,5a8035cfaa46dd00016b7793,15/02/1955,2020-09-12_08h27.37.096,proactive3.2,2020.1.2,MacIntel,60,5f5adea66120081ea0f57a61,5f5c7790437b2a01043a7b82,3,,,,,,pawn,,,,,,0,36,36,55,1,6,0,,,,,,,,,,,,,,,,,,,,,,,,,,,,,,,,,,,,,,,,,,,,,,,,,,,,,,,,,,,,,,,,,,,,,,,,,,,
,,,,,,,,,,stimuli/images/PICTURE_311.png,FRIEND,5a8035cfaa46dd00016b7793,15/02/1955,2020-09-12_08h27.37.096,proactive3.2,2020.1.2,MacIntel,60,5f5adea66120081ea0f57a61,5f5c7790437b2a01043a7b82,3,,,,,,razor,,,,,,0,37,37,34,1,4,0,,,,,,,,,,,,,,,,,,,,,,,,,,,,,,,,,,,,,,,,,,,,,,,,,,,,,,,,,,,,,,,,,,,,,,,,,,,
,,,,,,,,,,stimuli/images/PICTURE_487.png,FLIGHT,5a8035cfaa46dd00016b7793,15/02/1955,2020-09-12_08h27.37.096,proactive3.2,2020.1.2,MacIntel,60,5f5adea66120081ea0f57a61,5f5c7790437b2a01043a7b82,3,,,,,,basket,,,,,,0,38,38,9,1,1,0,,,,,,,,,,,,,,,,,,,,,,,,,,,,,,,,,,,,,,,,,,,,,,,,,,,,,,,,,,,,,,,,,,,,,,,,,,,
,,,,,,,,,,stimuli/images/PICTURE_203.png,ARTIST,5a8035cfaa46dd00016b7793,15/02/1955,2020-09-12_08h27.37.096,proactive3.2,2020.1.2,MacIntel,60,5f5adea66120081ea0f57a61,5f5c7790437b2a01043a7b82,3,,,,,,cap,,,,,,0,39,39,26,1,3,0,,,,,,,,,,,,,,,,,,,,,,,,,,,,,,,,,,,,,,,,,,,,,,,,,,,,,,,,,,,,,,,,,,,,,,,,,,,
,,,,,,,,,,stimuli/images/PICTURE_215.png,PLENTY,5a8035cfaa46dd00016b7793,15/02/1955,2020-09-12_08h27.37.096,proactive3.2,2020.1.2,MacIntel,60,5f5adea66120081ea0f57a61,5f5c7790437b2a01043a7b82,3,,,,,,boot,,,,,,0,40,40,37,1,4,0,,,,,,,,,,,,,,,,,,,,,,,,,,,,,,,,,,,,,,,,,,,,,,,,,,,,,,,,,,,,,,,,,,,,,,,,,,,
,,,,,,,,,,stimuli/images/PICTURE_469.png,LETTER,5a8035cfaa46dd00016b7793,15/02/1955,2020-09-12_08h27.37.096,proactive3.2,2020.1.2,MacIntel,60,5f5adea66120081ea0f57a61,5f5c7790437b2a01043a7b82,3,,,,,,stool,,,,,,0,41,41,42,1,5,0,,,,,,,,,,,,,,,,,,,,,,,,,,,,,,,,,,,,,,,,,,,,,,,,,,,,,,,,,,,,,,,,,,,,,,,,,,,
,,,,,,,,,,stimuli/images/PICTURE_744.png,SYSTEM,5a8035cfaa46dd00016b7793,15/02/1955,2020-09-12_08h27.37.096,proactive3.2,2020.1.2,MacIntel,60,5f5adea66120081ea0f57a61,5f5c7790437b2a01043a7b82,3,,,,,,ring,,,,,,0,42,42,43,1,5,0,,,,,,,,,,,,,,,,,,,,,,,,,,,,,,,,,,,,,,,,,,,,,,,,,,,,,,,,,,,,,,,,,,,,,,,,,,,
,,,,,,,,,,stimuli/images/PICTURE_491.png,WRITER,5a8035cfaa46dd00016b7793,15/02/1955,2020-09-12_08h27.37.096,proactive3.2,2020.1.2,MacIntel,60,5f5adea66120081ea0f57a61,5f5c7790437b2a01043a7b82,3,,,,,,rug,,,,,,0,43,43,57,1,6,0,,,,,,,,,,,,,,,,,,,,,,,,,,,,,,,,,,,,,,,,,,,,,,,,,,,,,,,,,,,,,,,,,,,,,,,,,,,
,,,,,,,,,,stimuli/images/PICTURE_491.png,ROOF,5a8035cfaa46dd00016b7793,15/02/1955,2020-09-12_08h27.37.096,proactive3.2,2020.1.2,MacIntel,60,5f5adea66120081ea0f57a61,5f5c7790437b2a01043a7b82,3,,,,,,rug,,,,,,0,44,44,24,1,3,0,,,,,,,,,,,,,,,,,,,,,,,,,,,,,,,,,,,,,,,,,,,,,,,,,,,,,,,,,,,,,,,,,,,,,,,,,,,
,,,,,,,,,,stimuli/images/PICTURE_208.png,MONTH,5a8035cfaa46dd00016b7793,15/02/1955,2020-09-12_08h27.37.096,proactive3.2,2020.1.2,MacIntel,60,5f5adea66120081ea0f57a61,5f5c7790437b2a01043a7b82,3,,,,,,microphone,,,,,,0,45,45,53,1,6,0,,,,,,,,,,,,,,,,,,,,,,,,,,,,,,,,,,,,,,,,,,,,,,,,,,,,,,,,,,,,,,,,,,,,,,,,,,,
,,,,,,,,,,stimuli/images/PICTURE_123.png,ADVICE,5a8035cfaa46dd00016b7793,15/02/1955,2020-09-12_08h27.37.096,proactive3.2,2020.1.2,MacIntel,60,5f5adea66120081ea0f57a61,5f5c7790437b2a01043a7b82,3,,,,,,dart,,,,,,0,46,46,50,1,6,0,,,,,,,,,,,,,,,,,,,,,,,,,,,,,,,,,,,,,,,,,,,,,,,,,,,,,,,,,,,,,,,,,,,,,,,,,,,
,,,,,,,,,,stimuli/images/PICTURE_708.png,PENNY,5a8035cfaa46dd00016b7793,15/02/1955,2020-09-12_08h27.37.096,proactive3.2,2020.1.2,MacIntel,60,5f5adea66120081ea0f57a61,5f5c7790437b2a01043a7b82,3,,,,,,monkey,,,,,,0,47,47,31,1,4,0,,,,,,,,,,,,,,,,,,,,,,,,,,,,,,,,,,,,,,,,,,,,,,,,,,,,,,,,,,,,,,,,,,,,,,,,,,,
,,,,,,,,,,stimuli/images/PICTURE_160.png,LEADER,5a8035cfaa46dd00016b7793,15/02/1955,2020-09-12_08h27.37.096,proactive3.2,2020.1.2,MacIntel,60,5f5adea66120081ea0f57a61,5f5c7790437b2a01043a7b82,3,,,,,,wheelbarrow,,,,,,0,48,48,3,1,1,0,,,,,,,,,,,,,,,,,,,,,,,,,,,,,,,,,,,,,,,,,,,,,,,,,,,,,,,,,,,,,,,,,,,,,,,,,,,
,,,,,,,,,,stimuli/images/PICTURE_208.png,LOTS,5a8035cfaa46dd00016b7793,15/02/1955,2020-09-12_08h27.37.096,proactive3.2,2020.1.2,MacIntel,60,5f5adea66120081ea0f57a61,5f5c7790437b2a01043a7b82,3,,,,,,microphone,,,,,,0,49,49,10,1,2,0,,,,,,,,,,,,,,,,,,,,,,,,,,,,,,,,,,,,,,,,,,,,,,,,,,,,,,,,,,,,,,,,,,,,,,,,,,,
,,,,,,,,,,stimuli/images/PICTURE_688.png,CASINO,5a8035cfaa46dd00016b7793,15/02/1955,2020-09-12_08h27.37.096,proactive3.2,2020.1.2,MacIntel,60,5f5adea66120081ea0f57a61,5f5c7790437b2a01043a7b82,3,,,,,,runner,,,,,,0,50,50,2,1,1,0,,,,,,,,,,,,,,,,,,,,,,,,,,,,,,,,,,,,,,,,,,,,,,,,,,,,,,,,,,,,,,,,,,,,,,,,,,,
,,,,,,,,,,stimuli/images/PICTURE_509.png,PHOTO,5a8035cfaa46dd00016b7793,15/02/1955,2020-09-12_08h27.37.096,proactive3.2,2020.1.2,MacIntel,60,5f5adea66120081ea0f57a61,5f5c7790437b2a01043a7b82,3,,,,,,telephone,,,,,,0,51,51,21,1,3,0,,,,,,,,,,,,,,,,,,,,,,,,,,,,,,,,,,,,,,,,,,,,,,,,,,,,,,,,,,,,,,,,,,,,,,,,,,,
,,,,,,,,,,stimuli/images/PICTURE_147.png,MOMENT,5a8035cfaa46dd00016b7793,15/02/1955,2020-09-12_08h27.37.096,proactive3.2,2020.1.2,MacIntel,60,5f5adea66120081ea0f57a61,5f5c7790437b2a01043a7b82,3,,,,,,hanger,,,,,,0,52,52,51,1,6,0,,,,,,,,,,,,,,,,,,,,,,,,,,,,,,,,,,,,,,,,,,,,,,,,,,,,,,,,,,,,,,,,,,,,,,,,,,,
,,,,,,,,,,stimuli/images/PICTURE_708.png,CLIENT,5a8035cfaa46dd00016b7793,15/02/1955,2020-09-12_08h27.37.096,proactive3.2,2020.1.2,MacIntel,60,5f5adea66120081ea0f57a61,5f5c7790437b2a01043a7b82,3,,,,,,monkey,,,,,,0,53,53,5,1,1,0,,,,,,,,,,,,,,,,,,,,,,,,,,,,,,,,,,,,,,,,,,,,,,,,,,,,,,,,,,,,,,,,,,,,,,,,,,,
,,,,,,,,,,stimuli/images/PICTURE_692.png,MONTH,5a8035cfaa46dd00016b7793,15/02/1955,2020-09-12_08h27.37.096,proactive3.2,2020.1.2,MacIntel,60,5f5adea66120081ea0f57a61,5f5c7790437b2a01043a7b82,3,,,,,,cherry,,,,,,0,54,54,16,1,2,0,,,,,,,,,,,,,,,,,,,,,,,,,,,,,,,,,,,,,,,,,,,,,,,,,,,,,,,,,,,,,,,,,,,,,,,,,,,
,,,,,,,,,,stimuli/images/PICTURE_488.png,STYLE,5a8035cfaa46dd00016b7793,15/02/1955,2020-09-12_08h27.37.096,proactive3.2,2020.1.2,MacIntel,60,5f5adea66120081ea0f57a61,5f5c7790437b2a01043a7b82,3,,,,,,sun,,,,,,0,55,55,33,1,4,0,,,,,,,,,,,,,,,,,,,,,,,,,,,,,,,,,,,,,,,,,,,,,,,,,,,,,,,,,,,,,,,,,,,,,,,,,,,
,,,,,,,,,,stimuli/images/PICTURE_744.png,SAKE,5a8035cfaa46dd00016b7793,15/02/1955,2020-09-12_08h27.37.096,proactive3.2,2020.1.2,MacIntel,60,5f5adea66120081ea0f57a61,5f5c7790437b2a01043a7b82,3,,,,,,ring,,,,,,0,56,56,17,1,2,0,,,,,,,,,,,,,,,,,,,,,,,,,,,,,,,,,,,,,,,,,,,,,,,,,,,,,,,,,,,,,,,,,,,,,,,,,,,
,,,,,,,,,,stimuli/images/PICTURE_453.png,PLENTY,5a8035cfaa46dd00016b7793,15/02/1955,2020-09-12_08h27.37.096,proactive3.2,2020.1.2,MacIntel,60,5f5adea66120081ea0f57a61,5f5c7790437b2a01043a7b82,3,,,,,,scissors,,,,,,0,57,57,56,1,6,0,,,,,,,,,,,,,,,,,,,,,,,,,,,,,,,,,,,,,,,,,,,,,,,,,,,,,,,,,,,,,,,,,,,,,,,,,,,
,,,,,,,,,,stimuli/images/PICTURE_233.png,IDEAS,5a8035cfaa46dd00016b7793,15/02/1955,2020-09-12_08h27.37.096,proactive3.2,2020.1.2,MacIntel,60,5f5adea66120081ea0f57a61,5f5c7790437b2a01043a7b82,3,,,,,,salt,,,,,,0,58,58,28,1,3,0,,,,,,,,,,,,,,,,,,,,,,,,,,,,,,,,,,,,,,,,,,,,,,,,,,,,,,,,,,,,,,,,,,,,,,,,,,,
,,?,0.001,0,,,,,,stimuli/images/PICTURE_233.png,WOMEN,5a8035cfaa46dd00016b7793,15/02/1955,2020-09-12_08h27.37.096,proactive3.2,2020.1.2,MacIntel,60,5f5adea66120081ea0f57a61,5f5c7790437b2a01043a7b82,3,,,,,,salt,,,,,,,,,,,4,0,0,0,0,38,1,,,,,,,,,,,,,,,,,,,,,,,,,,,,,,,,,,,,,,,,,,,,,,,,,,,,,,,,,,,,,,,,,,,,,,
,,?,0.001,0,,,,,,stimuli/images/PICTURE_285.png,ADVICE,5a8035cfaa46dd00016b7793,15/02/1955,2020-09-12_08h27.37.096,proactive3.2,2020.1.2,MacIntel,60,5f5adea66120081ea0f57a61,5f5c7790437b2a01043a7b82,3,,,,,,carrot,,,,,,,,,,,2,0,0,1,1,12,1,,,,,,,,,,,,,,,,,,,,,,,,,,,,,,,,,,,,,,,,,,,,,,,,,,,,,,,,,,,,,,,,,,,,,,
,,?,0,0,,,,,,stimuli/images/PICTURE_692.png,MONTH,5a8035cfaa46dd00016b7793,15/02/1955,2020-09-12_08h27.37.096,proactive3.2,2020.1.2,MacIntel,60,5f5adea66120081ea0f57a61,5f5c7790437b2a01043a7b82,3,,,,,,cherry,,,,,,,,,,,2,0,0,2,2,16,1,,,,,,,,,,,,,,,,,,,,,,,,,,,,,,,,,,,,,,,,,,,,,,,,,,,,,,,,,,,,,,,,,,,,,,
,,?,0.001,0,,,,,,stimuli/images/PICTURE_311.png,FRIEND,5a8035cfaa46dd00016b7793,15/02/1955,2020-09-12_08h27.37.096,proactive3.2,2020.1.2,MacIntel,60,5f5adea66120081ea0f57a61,5f5c7790437b2a01043a7b82,3,,,,,,razor,,,,,,,,,,,4,0,0,3,3,34,1,,,,,,,,,,,,,,,,,,,,,,,,,,,,,,,,,,,,,,,,,,,,,,,,,,,,,,,,,,,,,,,,,,,,,,
,,?,0,0,,,,,,stimuli/images/PICTURE_708.png,CLIENT,5a8035cfaa46dd00016b7793,15/02/1955,2020-09-12_08h27.37.096,proactive3.2,2020.1.2,MacIntel,60,5f5adea66120081ea0f57a61,5f5c7790437b2a01043a7b82,3,,,,,,monkey,,,,,,,,,,,1,0,0,4,4,5,1,,,,,,,,,,,,,,,,,,,,,,,,,,,,,,,,,,,,,,,,,,,,,,,,,,,,,,,,,,,,,,,,,,,,,,
,,?,0.001,0,,,,,,stimuli/images/PICTURE_744.png,SYSTEM,5a8035cfaa46dd00016b7793,15/02/1955,2020-09-12_08h27.37.096,proactive3.2,2020.1.2,MacIntel,60,5f5adea66120081ea0f57a61,5f5c7790437b2a01043a7b82,3,,,,,,ring,,,,,,,,,,,5,0,0,5,5,43,1,,,,,,,,,,,,,,,,,,,,,,,,,,,,,,,,,,,,,,,,,,,,,,,,,,,,,,,,,,,,,,,,,,,,,,
,,?,0.001,0,,,,,,stimuli/images/PICTURE_177.png,CARS,5a8035cfaa46dd00016b7793,15/02/1955,2020-09-12_08h27.37.096,proactive3.2,2020.1.2,MacIntel,60,5f5adea66120081ea0f57a61,5f5c7790437b2a01043a7b82,3,,,,,,mushroom,,,,,,,,,,,4,0,0,6,6,35,1,,,,,,,,,,,,,,,,,,,,,,,,,,,,,,,,,,,,,,,,,,,,,,,,,,,,,,,,,,,,,,,,,,,,,,
,,AREA,5.269,1,,,,,,stimuli/images/PICTURE_255.png,AREA,5a8035cfaa46dd00016b7793,15/02/1955,2020-09-12_08h27.37.096,proactive3.2,2020.1.2,MacIntel,60,5f5adea66120081ea0f57a61,5f5c7790437b2a01043a7b82,3,,,,,,shovel,,,,,,,,,,,3,0,0,7,7,22,1,,,,,,,,,,,,,,,,,,,,,,,,,,,,,,,,,,,,,,,,,,,,,,,,,,,,,,,,,,,,,,,,,,,,,,
,,IDEAS,6.274,1,,,,,,stimuli/images/PICTURE_233.png,IDEAS,5a8035cfaa46dd00016b7793,15/02/1955,2020-09-12_08h27.37.096,proactive3.2,2020.1.2,MacIntel,60,5f5adea66120081ea0f57a61,5f5c7790437b2a01043a7b82,3,,,,,,salt,,,,,,,,,,,3,0,0,8,8,28,1,,,,,,,,,,,,,,,,,,,,,,,,,,,,,,,,,,,,,,,,,,,,,,,,,,,,,,,,,,,,,,,,,,,,,,
,,?,0.001,0,,,,,,stimuli/images/PICTURE_314.png,SAKE,5a8035cfaa46dd00016b7793,15/02/1955,2020-09-12_08h27.37.096,proactive3.2,2020.1.2,MacIntel,60,5f5adea66120081ea0f57a61,5f5c7790437b2a01043a7b82,3,,,,,,perfume,,,,,,,,,,,1,0,0,9,9,7,1,,,,,,,,,,,,,,,,,,,,,,,,,,,,,,,,,,,,,,,,,,,,,,,,,,,,,,,,,,,,,,,,,,,,,,
,,DEMON,5.188,1,,,,,,stimuli/images/PICTURE_467.png,DEMON,5a8035cfaa46dd00016b7793,15/02/1955,2020-09-12_08h27.37.096,proactive3.2,2020.1.2,MacIntel,60,5f5adea66120081ea0f57a61,5f5c7790437b2a01043a7b82,3,,,,,,peg,,,,,,,,,,,3,0,0,10,10,23,1,,,,,,,,,,,,,,,,,,,,,,,,,,,,,,,,,,,,,,,,,,,,,,,,,,,,,,,,,,,,,,,,,,,,,,
,,YARD,4.335,1,,,,,,stimuli/images/PICTURE_708.png,YARD,5a8035cfaa46dd00016b7793,15/02/1955,2020-09-12_08h27.37.096,proactive3.2,2020.1.2,MacIntel,60,5f5adea66120081ea0f57a61,5f5c7790437b2a01043a7b82,3,,,,,,monkey,,,,,,,,,,,3,0,0,11,11,29,1,,,,,,,,,,,,,,,,,,,,,,,,,,,,,,,,,,,,,,,,,,,,,,,,,,,,,,,,,,,,,,,,,,,,,,
