consent_key.keys,consent_key.rt,recalled,recalled_rt,recall_acc,example_recall.thisRepN,example_recall.thisTrialN,example_recall.thisN,example_recall.thisIndex,example_recall.ran,file,word,participant,please enter your date of birth (dd/mm/yyyy),date,expName,psychopyVersion,OS,frameRate,STUDY_ID,SESSION_ID,list,prac_learn_study_loop.thisRepN,prac_learn_study_loop.thisTrialN,prac_learn_study_loop.thisN,prac_learn_study_loop.thisIndex,prac_learn_study_loop.ran,image,prac_learn_test_loop.thisRepN,prac_learn_test_loop.thisTrialN,prac_learn_test_loop.thisN,prac_learn_test_loop.thisIndex,prac_learn_test_loop.ran,learn_study_loop.thisRepN,learn_study_loop.thisTrialN,learn_study_loop.thisN,learn_study_loop.thisIndex,learn_study_loop.ran,list_no,block_no,learn_test_loop.thisRepN,learn_test_loop.thisTrialN,learn_test_loop.thisN,learn_test_loop.thisIndex,learn_test_loop.ran,learn_blocks.thisRepN,learn_blocks.thisTrialN,learn_blocks.thisN,learn_blocks.thisIndex,learn_blocks.ran,block_csv,key_resp_13.keys,key_resp_13.rt,learn_blocks_loop.thisRepN,learn_blocks_loop.thisTrialN,learn_blocks_loop.thisN,learn_blocks_loop.thisIndex,learn_blocks_loop.ran,final_learn_test.thisRepN,final_learn_test.thisTrialN,final_learn_test.thisN,final_learn_test.thisIndex,final_learn_test.ran,prac_wm_test_loop.thisRepN,prac_wm_test_loop.thisTrialN,prac_wm_test_loop.thisN,prac_wm_test_loop.thisIndex,prac_wm_test_loop.ran,wm_recalled1,wm_recall_rt1,wm_probed1,wm_recall_acc1,wm_recalled2,wm_recall_rt2,wm_probed2,wm_recall_acc2,wm_recalled3,wm_recall_rt3,wm_probed3,wm_recall_acc3,wm_recalled4,wm_recall_rt4,wm_probed4,wm_recall_acc4,prac_wm_trial_loop.thisRepN,prac_wm_trial_loop.thisTrialN,prac_wm_trial_loop.thisN,prac_wm_trial_loop.thisIndex,prac_wm_trial_loop.ran,word1,image1,file1,item_type1,word2,image2,file2,item_type2,word4,image4,file4,item_type4,word3,image3,file3,item_type3,wm_test_loop.thisRepN,wm_test_loop.thisTrialN,wm_test_loop.thisN,wm_test_loop.thisIndex,wm_test_loop.ran,wm_trial_loop.thisRepN,wm_trial_loop.thisTrialN,wm_trial_loop.thisN,wm_trial_loop.thisIndex,wm_trial_loop.ran
y,20.531935,TOUGH,7.03857,1,0,0,0,0,1,stimuli/images/PICTURE_747.png,TOUGH,5b9f7e3d00815d00010323f6,30/06/1995,2020-09-02_12h29.41.515,proactive3.2,2020.1.2,Win32,60,5f47c0b9b035471e11593a5c,5f4f819c5e8dec040402bf23,5,,,,,,,,,,,,,,,,,,,,,,,,,,,,,,,,,,,,,,,,,,,,,,,,,,,,,,,,,,,,,,,,,,,,,,,,,,,,,,,,,,,,,,,,,,,,,
,,,,,,,,,,stimuli/images/PICTURE_727.png,CELL,5b9f7e3d00815d00010323f6,30/06/1995,2020-09-02_12h29.41.515,proactive3.2,2020.1.2,Win32,60,5f47c0b9b035471e11593a5c,5f4f819c5e8dec040402bf23,5,0,0,0,1,1,hose,,,,,,,,,,,,,,,,,,,,,,,,,,,,,,,,,,,,,,,,,,,,,,,,,,,,,,,,,,,,,,,,,,,,,,,,,,,,,,,,,,,,,,,
,,,,,,,,,,stimuli/images/PICTURE_658.png,DEVIL,5b9f7e3d00815d00010323f6,30/06/1995,2020-09-02_12h29.41.515,proactive3.2,2020.1.2,Win32,60,5f47c0b9b035471e11593a5c,5f4f819c5e8dec040402bf23,5,0,1,1,3,1,crow,,,,,,,,,,,,,,,,,,,,,,,,,,,,,,,,,,,,,,,,,,,,,,,,,,,,,,,,,,,,,,,,,,,,,,,,,,,,,,,,,,,,,,,
,,,,,,,,,,stimuli/images/PICTURE_378.png,LOSS,5b9f7e3d00815d00010323f6,30/06/1995,2020-09-02_12h29.41.515,proactive3.2,2020.1.2,Win32,60,5f47c0b9b035471e11593a5c,5f4f819c5e8dec040402bf23,5,0,2,2,2,1,lobster,,,,,,,,,,,,,,,,,,,,,,,,,,,,,,,,,,,,,,,,,,,,,,,,,,,,,,,,,,,,,,,,,,,,,,,,,,,,,,,,,,,,,,,
,,,,,,,,,,stimuli/images/PICTURE_269.png,GENIUS,5b9f7e3d00815d00010323f6,30/06/1995,2020-09-02_12h29.41.515,proactive3.2,2020.1.2,Win32,60,5f47c0b9b035471e11593a5c,5f4f819c5e8dec040402bf23,5,0,3,3,0,1,chameleon,,,,,,,,,,,,,,,,,,,,,,,,,,,,,,,,,,,,,,,,,,,,,,,,,,,,,,,,,,,,,,,,,,,,,,,,,,,,,,,,,,,,,,,
,,DEVIL,3.262225,1,,,,,,stimuli/images/PICTURE_658.png,DEVIL,5b9f7e3d00815d00010323f6,30/06/1995,2020-09-02_12h29.41.515,proactive3.2,2020.1.2,Win32,60,5f47c0b9b035471e11593a5c,5f4f819c5e8dec040402bf23,5,,,,,,crow,0,0,0,3,1,,,,,,,,,,,,,,,,,,,,,,,,,,,,,,,,,,,,,,,,,,,,,,,,,,,,,,,,,,,,,,,,,,,,,,,,,,,,,,,,,,
,,LOSS,3.24964,1,,,,,,stimuli/images/PICTURE_378.png,LOSS,5b9f7e3d00815d00010323f6,30/06/1995,2020-09-02_12h29.41.515,proactive3.2,2020.1.2,Win32,60,5f47c0b9b035471e11593a5c,5f4f819c5e8dec040402bf23,5,,,,,,lobster,0,1,1,2,1,,,,,,,,,,,,,,,,,,,,,,,,,,,,,,,,,,,,,,,,,,,,,,,,,,,,,,,,,,,,,,,,,,,,,,,,,,,,,,,,,,
,,CELL,2.766195,1,,,,,,stimuli/images/PICTURE_727.png,CELL,5b9f7e3d00815d00010323f6,30/06/1995,2020-09-02_12h29.41.515,proactive3.2,2020.1.2,Win32,60,5f47c0b9b035471e11593a5c,5f4f819c5e8dec040402bf23,5,,,,,,hose,0,2,2,1,1,,,,,,,,,,,,,,,,,,,,,,,,,,,,,,,,,,,,,,,,,,,,,,,,,,,,,,,,,,,,,,,,,,,,,,,,,,,,,,,,,,
,,KILLER,3.01685,1,,,,,,stimuli/images/PICTURE_697.png,KILLER,5b9f7e3d00815d00010323f6,30/06/1995,2020-09-02_12h29.41.515,proactive3.2,2020.1.2,Win32,60,5f47c0b9b035471e11593a5c,5f4f819c5e8dec040402bf23,5,,,,,,peach,0,3,3,4,1,,,,,,,,,,,,,,,,,,,,,,,,,,,,,,,,,,,,,,,,,,,,,,,,,,,,,,,,,,,,,,,,,,,,,,,,,,,,,,,,,,
,,GENIUS,6.103035,1,,,,,,stimuli/images/PICTURE_269.png,GENIUS,5b9f7e3d00815d00010323f6,30/06/1995,2020-09-02_12h29.41.515,proactive3.2,2020.1.2,Win32,60,5f47c0b9b035471e11593a5c,5f4f819c5e8dec040402bf23,5,,,,,,chameleon,0,4,4,0,1,,,,,,,,,,,,,,,,,,,,,,,,,,,,,,,,,,,,,,,,,,,,,,,,,,,,,,,,,,,,,,,,,,,,,,,,,,,,,,,,,,
,,,,,,,,,,stimuli/images/PICTURE_203.png,ARTIST,5b9f7e3d00815d00010323f6,30/06/1995,2020-09-02_12h29.41.515,proactive3.2,2020.1.2,Win32,60,5f47c0b9b035471e11593a5c,5f4f819c5e8dec040402bf23,5,,,,,,cap,,,,,,0,0,0,26,1,3,0,,,,,,,,,,,,,,,,,,,,,,,,,,,,,,,,,,,,,,,,,,,,,,,,,,,,,,,,,,,,,,,,,,,,,,,,,,,
,,,,,,,,,,stimuli/images/PICTURE_708.png,CLIENT,5b9f7e3d00815d00010323f6,30/06/1995,2020-09-02_12h29.41.515,proactive3.2,2020.1.2,Win32,60,5f47c0b9b035471e11593a5c,5f4f819c5e8dec040402bf23,5,,,,,,monkey,,,,,,0,1,1,5,1,1,0,,,,,,,,,,,,,,,,,,,,,,,,,,,,,,,,,,,,,,,,,,,,,,,,,,,,,,,,,,,,,,,,,,,,,,,,,,,
,,,,,,,,,,stimuli/images/PICTURE_708.png,PENNY,5b9f7e3d00815d00010323f6,30/06/1995,2020-09-02_12h29.41.515,proactive3.2,2020.1.2,Win32,60,5f47c0b9b035471e11593a5c,5f4f819c5e8dec040402bf23,5,,,,,,monkey,,,,,,0,2,2,31,1,4,0,,,,,,,,,,,,,,,,,,,,,,,,,,,,,,,,,,,,,,,,,,,,,,,,,,,,,,,,,,,,,,,,,,,,,,,,,,,
,,,,,,,,,,stimuli/images/PICTURE_123.png,ADVICE,5b9f7e3d00815d00010323f6,30/06/1995,2020-09-02_12h29.41.515,proactive3.2,2020.1.2,Win32,60,5f47c0b9b035471e11593a5c,5f4f819c5e8dec040402bf23,5,,,,,,dart,,,,,,0,3,3,50,1,6,0,,,,,,,,,,,,,,,,,,,,,,,,,,,,,,,,,,,,,,,,,,,,,,,,,,,,,,,,,,,,,,,,,,,,,,,,,,,
,,,,,,,,,,stimuli/images/PICTURE_469.png,ARTIST,5b9f7e3d00815d00010323f6,30/06/1995,2020-09-02_12h29.41.515,proactive3.2,2020.1.2,Win32,60,5f47c0b9b035471e11593a5c,5f4f819c5e8dec040402bf23,5,,,,,,stool,,,,,,0,4,4,6,1,1,0,,,,,,,,,,,,,,,,,,,,,,,,,,,,,,,,,,,,,,,,,,,,,,,,,,,,,,,,,,,,,,,,,,,,,,,,,,,
,,,,,,,,,,stimuli/images/PICTURE_654.png,VALLEY,5b9f7e3d00815d00010323f6,30/06/1995,2020-09-02_12h29.41.515,proactive3.2,2020.1.2,Win32,60,5f47c0b9b035471e11593a5c,5f4f819c5e8dec040402bf23,5,,,,,,pencil,,,,,,0,5,5,1,1,1,0,,,,,,,,,,,,,,,,,,,,,,,,,,,,,,,,,,,,,,,,,,,,,,,,,,,,,,,,,,,,,,,,,,,,,,,,,,,
,,,,,,,,,,stimuli/images/PICTURE_469.png,LETTER,5b9f7e3d00815d00010323f6,30/06/1995,2020-09-02_12h29.41.515,proactive3.2,2020.1.2,Win32,60,5f47c0b9b035471e11593a5c,5f4f819c5e8dec040402bf23,5,,,,,,stool,,,,,,0,6,6,42,1,5,0,,,,,,,,,,,,,,,,,,,,,,,,,,,,,,,,,,,,,,,,,,,,,,,,,,,,,,,,,,,,,,,,,,,,,,,,,,,
,,,,,,,,,,stimuli/images/PICTURE_667.png,BATH,5b9f7e3d00815d00010323f6,30/06/1995,2020-09-02_12h29.41.515,proactive3.2,2020.1.2,Win32,60,5f47c0b9b035471e11593a5c,5f4f819c5e8dec040402bf23,5,,,,,,daisy,,,,,,0,7,7,4,1,1,0,,,,,,,,,,,,,,,,,,,,,,,,,,,,,,,,,,,,,,,,,,,,,,,,,,,,,,,,,,,,,,,,,,,,,,,,,,,
,,,,,,,,,,stimuli/images/PICTURE_488.png,STYLE,5b9f7e3d00815d00010323f6,30/06/1995,2020-09-02_12h29.41.515,proactive3.2,2020.1.2,Win32,60,5f47c0b9b035471e11593a5c,5f4f819c5e8dec040402bf23,5,,,,,,sun,,,,,,0,8,8,33,1,4,0,,,,,,,,,,,,,,,,,,,,,,,,,,,,,,,,,,,,,,,,,,,,,,,,,,,,,,,,,,,,,,,,,,,,,,,,,,,
,,,,,,,,,,stimuli/images/PICTURE_667.png,PLENTY,5b9f7e3d00815d00010323f6,30/06/1995,2020-09-02_12h29.41.515,proactive3.2,2020.1.2,Win32,60,5f47c0b9b035471e11593a5c,5f4f819c5e8dec040402bf23,5,,,,,,daisy,,,,,,0,9,9,41,1,5,0,,,,,,,,,,,,,,,,,,,,,,,,,,,,,,,,,,,,,,,,,,,,,,,,,,,,,,,,,,,,,,,,,,,,,,,,,,,
,,,,,,,,,,stimuli/images/PICTURE_208.png,THING,5b9f7e3d00815d00010323f6,30/06/1995,2020-09-02_12h29.41.515,proactive3.2,2020.1.2,Win32,60,5f47c0b9b035471e11593a5c,5f4f819c5e8dec040402bf23,5,,,,,,microphone,,,,,,0,10,10,47,1,5,0,,,,,,,,,,,,,,,,,,,,,,,,,,,,,,,,,,,,,,,,,,,,,,,,,,,,,,,,,,,,,,,,,,,,,,,,,,,
,,,,,,,,,,stimuli/images/PICTURE_380.png,DEATH,5b9f7e3d00815d00010323f6,30/06/1995,2020-09-02_12h29.41.515,proactive3.2,2020.1.2,Win32,60,5f47c0b9b035471e11593a5c,5f4f819c5e8dec040402bf23,5,,,,,,gorilla,,,,,,0,11,11,49,1,5,0,,,,,,,,,,,,,,,,,,,,,,,,,,,,,,,,,,,,,,,,,,,,,,,,,,,,,,,,,,,,,,,,,,,,,,,,,,,
,,,,,,,,,,stimuli/images/PICTURE_692.png,MONTH,5b9f7e3d00815d00010323f6,30/06/1995,2020-09-02_12h29.41.515,proactive3.2,2020.1.2,Win32,60,5f47c0b9b035471e11593a5c,5f4f819c5e8dec040402bf23,5,,,,,,cherry,,,,,,0,12,12,16,1,2,0,,,,,,,,,,,,,,,,,,,,,,,,,,,,,,,,,,,,,,,,,,,,,,,,,,,,,,,,,,,,,,,,,,,,,,,,,,,
,,,,,,,,,,stimuli/images/PICTURE_509.png,PHOTO,5b9f7e3d00815d00010323f6,30/06/1995,2020-09-02_12h29.41.515,proactive3.2,2020.1.2,Win32,60,5f47c0b9b035471e11593a5c,5f4f819c5e8dec040402bf23,5,,,,,,telephone,,,,,,0,13,13,21,1,3,0,,,,,,,,,,,,,,,,,,,,,,,,,,,,,,,,,,,,,,,,,,,,,,,,,,,,,,,,,,,,,,,,,,,,,,,,,,,
,,,,,,,,,,stimuli/images/PICTURE_151.png,GIRL,5b9f7e3d00815d00010323f6,30/06/1995,2020-09-02_12h29.41.515,proactive3.2,2020.1.2,Win32,60,5f47c0b9b035471e11593a5c,5f4f819c5e8dec040402bf23,5,,,,,,tray,,,,,,0,14,14,19,1,2,0,,,,,,,,,,,,,,,,,,,,,,,,,,,,,,,,,,,,,,,,,,,,,,,,,,,,,,,,,,,,,,,,,,,,,,,,,,,
,,,,,,,,,,stimuli/images/PICTURE_708.png,YARD,5b9f7e3d00815d00010323f6,30/06/1995,2020-09-02_12h29.41.515,proactive3.2,2020.1.2,Win32,60,5f47c0b9b035471e11593a5c,5f4f819c5e8dec040402bf23,5,,,,,,monkey,,,,,,0,15,15,29,1,3,0,,,,,,,,,,,,,,,,,,,,,,,,,,,,,,,,,,,,,,,,,,,,,,,,,,,,,,,,,,,,,,,,,,,,,,,,,,,
,,,,,,,,,,stimuli/images/PICTURE_32.png,JUNGLE,5b9f7e3d00815d00010323f6,30/06/1995,2020-09-02_12h29.41.515,proactive3.2,2020.1.2,Win32,60,5f47c0b9b035471e11593a5c,5f4f819c5e8dec040402bf23,5,,,,,,crown,,,,,,0,16,16,45,1,5,0,,,,,,,,,,,,,,,,,,,,,,,,,,,,,,,,,,,,,,,,,,,,,,,,,,,,,,,,,,,,,,,,,,,,,,,,,,,
,,,,,,,,,,stimuli/images/PICTURE_491.png,ROOF,5b9f7e3d00815d00010323f6,30/06/1995,2020-09-02_12h29.41.515,proactive3.2,2020.1.2,Win32,60,5f47c0b9b035471e11593a5c,5f4f819c5e8dec040402bf23,5,,,,,,rug,,,,,,0,17,17,24,1,3,0,,,,,,,,,,,,,,,,,,,,,,,,,,,,,,,,,,,,,,,,,,,,,,,,,,,,,,,,,,,,,,,,,,,,,,,,,,,
,,,,,,,,,,stimuli/images/PICTURE_177.png,CARS,5b9f7e3d00815d00010323f6,30/06/1995,2020-09-02_12h29.41.515,proactive3.2,2020.1.2,Win32,60,5f47c0b9b035471e11593a5c,5f4f819c5e8dec040402bf23,5,,,,,,mushroom,,,,,,0,18,18,35,1,4,0,,,,,,,,,,,,,,,,,,,,,,,,,,,,,,,,,,,,,,,,,,,,,,,,,,,,,,,,,,,,,,,,,,,,,,,,,,,
,,,,,,,,,,stimuli/images/PICTURE_675.png,WEAPON,5b9f7e3d00815d00010323f6,30/06/1995,2020-09-02_12h29.41.515,proactive3.2,2020.1.2,Win32,60,5f47c0b9b035471e11593a5c,5f4f819c5e8dec040402bf23,5,,,,,,windmill,,,,,,0,19,19,32,1,4,0,,,,,,,,,,,,,,,,,,,,,,,,,,,,,,,,,,,,,,,,,,,,,,,,,,,,,,,,,,,,,,,,,,,,,,,,,,,
,,,,,,,,,,stimuli/images/PICTURE_208.png,LOTS,5b9f7e3d00815d00010323f6,30/06/1995,2020-09-02_12h29.41.515,proactive3.2,2020.1.2,Win32,60,5f47c0b9b035471e11593a5c,5f4f819c5e8dec040402bf23,5,,,,,,microphone,,,,,,0,20,20,10,1,2,0,,,,,,,,,,,,,,,,,,,,,,,,,,,,,,,,,,,,,,,,,,,,,,,,,,,,,,,,,,,,,,,,,,,,,,,,,,,
,,,,,,,,,,stimuli/images/PICTURE_95.png,STYLE,5b9f7e3d00815d00010323f6,30/06/1995,2020-09-02_12h29.41.515,proactive3.2,2020.1.2,Win32,60,5f47c0b9b035471e11593a5c,5f4f819c5e8dec040402bf23,5,,,,,,suitcase,,,,,,0,21,21,25,1,3,0,,,,,,,,,,,,,,,,,,,,,,,,,,,,,,,,,,,,,,,,,,,,,,,,,,,,,,,,,,,,,,,,,,,,,,,,,,,
,,,,,,,,,,stimuli/images/PICTURE_233.png,WOMEN,5b9f7e3d00815d00010323f6,30/06/1995,2020-09-02_12h29.41.515,proactive3.2,2020.1.2,Win32,60,5f47c0b9b035471e11593a5c,5f4f819c5e8dec040402bf23,5,,,,,,salt,,,,,,0,22,22,38,1,4,0,,,,,,,,,,,,,,,,,,,,,,,,,,,,,,,,,,,,,,,,,,,,,,,,,,,,,,,,,,,,,,,,,,,,,,,,,,,
,,,,,,,,,,stimuli/images/PICTURE_504.png,BODY,5b9f7e3d00815d00010323f6,30/06/1995,2020-09-02_12h29.41.515,proactive3.2,2020.1.2,Win32,60,5f47c0b9b035471e11593a5c,5f4f819c5e8dec040402bf23,5,,,,,,wheel,,,,,,0,23,23,8,1,1,0,,,,,,,,,,,,,,,,,,,,,,,,,,,,,,,,,,,,,,,,,,,,,,,,,,,,,,,,,,,,,,,,,,,,,,,,,,,
,,,,,,,,,,stimuli/images/PICTURE_314.png,GODS,5b9f7e3d00815d00010323f6,30/06/1995,2020-09-02_12h29.41.515,proactive3.2,2020.1.2,Win32,60,5f47c0b9b035471e11593a5c,5f4f819c5e8dec040402bf23,5,,,,,,perfume,,,,,,0,24,24,11,1,2,0,,,,,,,,,,,,,,,,,,,,,,,,,,,,,,,,,,,,,,,,,,,,,,,,,,,,,,,,,,,,,,,,,,,,,,,,,,,
,,,,,,,,,,stimuli/images/PICTURE_160.png,LEADER,5b9f7e3d00815d00010323f6,30/06/1995,2020-09-02_12h29.41.515,proactive3.2,2020.1.2,Win32,60,5f47c0b9b035471e11593a5c,5f4f819c5e8dec040402bf23,5,,,,,,wheelbarrow,,,,,,0,25,25,3,1,1,0,,,,,,,,,,,,,,,,,,,,,,,,,,,,,,,,,,,,,,,,,,,,,,,,,,,,,,,,,,,,,,,,,,,,,,,,,,,
,,,,,,,,,,stimuli/images/PICTURE_380.png,PHOTO,5b9f7e3d00815d00010323f6,30/06/1995,2020-09-02_12h29.41.515,proactive3.2,2020.1.2,Win32,60,5f47c0b9b035471e11593a5c,5f4f819c5e8dec040402bf23,5,,,,,,gorilla,,,,,,0,26,26,52,1,6,0,,,,,,,,,,,,,,,,,,,,,,,,,,,,,,,,,,,,,,,,,,,,,,,,,,,,,,,,,,,,,,,,,,,,,,,,,,,
,,,,,,,,,,stimuli/images/PICTURE_302.png,FAMILY,5b9f7e3d00815d00010323f6,30/06/1995,2020-09-02_12h29.41.515,proactive3.2,2020.1.2,Win32,60,5f47c0b9b035471e11593a5c,5f4f819c5e8dec040402bf23,5,,,,,,taxi,,,,,,0,27,27,18,1,2,0,,,,,,,,,,,,,,,,,,,,,,,,,,,,,,,,,,,,,,,,,,,,,,,,,,,,,,,,,,,,,,,,,,,,,,,,,,,
,,,,,,,,,,stimuli/images/PICTURE_285.png,ADVICE,5b9f7e3d00815d00010323f6,30/06/1995,2020-09-02_12h29.41.515,proactive3.2,2020.1.2,Win32,60,5f47c0b9b035471e11593a5c,5f4f819c5e8dec040402bf23,5,,,,,,carrot,,,,,,0,28,28,12,1,2,0,,,,,,,,,,,,,,,,,,,,,,,,,,,,,,,,,,,,,,,,,,,,,,,,,,,,,,,,,,,,,,,,,,,,,,,,,,,
,,,,,,,,,,stimuli/images/PICTURE_233.png,IDEAS,5b9f7e3d00815d00010323f6,30/06/1995,2020-09-02_12h29.41.515,proactive3.2,2020.1.2,Win32,60,5f47c0b9b035471e11593a5c,5f4f819c5e8dec040402bf23,5,,,,,,salt,,,,,,0,29,29,28,1,3,0,,,,,,,,,,,,,,,,,,,,,,,,,,,,,,,,,,,,,,,,,,,,,,,,,,,,,,,,,,,,,,,,,,,,,,,,,,,
,,,,,,,,,,stimuli/images/PICTURE_744.png,SAKE,5b9f7e3d00815d00010323f6,30/06/1995,2020-09-02_12h29.41.515,proactive3.2,2020.1.2,Win32,60,5f47c0b9b035471e11593a5c,5f4f819c5e8dec040402bf23,5,,,,,,ring,,,,,,0,30,30,17,1,2,0,,,,,,,,,,,,,,,,,,,,,,,,,,,,,,,,,,,,,,,,,,,,,,,,,,,,,,,,,,,,,,,,,,,,,,,,,,,
,,,,,,,,,,stimuli/images/PICTURE_491.png,WRITER,5b9f7e3d00815d00010323f6,30/06/1995,2020-09-02_12h29.41.515,proactive3.2,2020.1.2,Win32,60,5f47c0b9b035471e11593a5c,5f4f819c5e8dec040402bf23,5,,,,,,rug,,,,,,0,31,31,57,1,6,0,,,,,,,,,,,,,,,,,,,,,,,,,,,,,,,,,,,,,,,,,,,,,,,,,,,,,,,,,,,,,,,,,,,,,,,,,,,
,,,,,,,,,,stimuli/images/PICTURE_487.png,FLIGHT,5b9f7e3d00815d00010323f6,30/06/1995,2020-09-02_12h29.41.515,proactive3.2,2020.1.2,Win32,60,5f47c0b9b035471e11593a5c,5f4f819c5e8dec040402bf23,5,,,,,,basket,,,,,,0,32,32,9,1,1,0,,,,,,,,,,,,,,,,,,,,,,,,,,,,,,,,,,,,,,,,,,,,,,,,,,,,,,,,,,,,,,,,,,,,,,,,,,,
,,,,,,,,,,stimuli/images/PICTURE_215.png,PLENTY,5b9f7e3d00815d00010323f6,30/06/1995,2020-09-02_12h29.41.515,proactive3.2,2020.1.2,Win32,60,5f47c0b9b035471e11593a5c,5f4f819c5e8dec040402bf23,5,,,,,,boot,,,,,,0,33,33,37,1,4,0,,,,,,,,,,,,,,,,,,,,,,,,,,,,,,,,,,,,,,,,,,,,,,,,,,,,,,,,,,,,,,,,,,,,,,,,,,,
,,,,,,,,,,stimuli/images/PICTURE_688.png,CASINO,5b9f7e3d00815d00010323f6,30/06/1995,2020-09-02_12h29.41.515,proactive3.2,2020.1.2,Win32,60,5f47c0b9b035471e11593a5c,5f4f819c5e8dec040402bf23,5,,,,,,runner,,,,,,0,34,34,2,1,1,0,,,,,,,,,,,,,,,,,,,,,,,,,,,,,,,,,,,,,,,,,,,,,,,,,,,,,,,,,,,,,,,,,,,,,,,,,,,
,,,,,,,,,,stimuli/images/PICTURE_308.png,ESTATE,5b9f7e3d00815d00010323f6,30/06/1995,2020-09-02_12h29.41.515,proactive3.2,2020.1.2,Win32,60,5f47c0b9b035471e11593a5c,5f4f819c5e8dec040402bf23,5,,,,,,dice,,,,,,0,35,35,46,1,5,0,,,,,,,,,,,,,,,,,,,,,,,,,,,,,,,,,,,,,,,,,,,,,,,,,,,,,,,,,,,,,,,,,,,,,,,,,,,
,,,,,,,,,,stimuli/images/PICTURE_453.png,PLENTY,5b9f7e3d00815d00010323f6,30/06/1995,2020-09-02_12h29.41.515,proactive3.2,2020.1.2,Win32,60,5f47c0b9b035471e11593a5c,5f4f819c5e8dec040402bf23,5,,,,,,scissors,,,,,,0,36,36,56,1,6,0,,,,,,,,,,,,,,,,,,,,,,,,,,,,,,,,,,,,,,,,,,,,,,,,,,,,,,,,,,,,,,,,,,,,,,,,,,,
,,,,,,,,,,stimuli/images/PICTURE_677.png,MILE,5b9f7e3d00815d00010323f6,30/06/1995,2020-09-02_12h29.41.515,proactive3.2,2020.1.2,Win32,60,5f47c0b9b035471e11593a5c,5f4f819c5e8dec040402bf23,5,,,,,,map,,,,,,0,37,37,30,1,4,0,,,,,,,,,,,,,,,,,,,,,,,,,,,,,,,,,,,,,,,,,,,,,,,,,,,,,,,,,,,,,,,,,,,,,,,,,,,
,,,,,,,,,,stimuli/images/PICTURE_449.png,THING,5b9f7e3d00815d00010323f6,30/06/1995,2020-09-02_12h29.41.515,proactive3.2,2020.1.2,Win32,60,5f47c0b9b035471e11593a5c,5f4f819c5e8dec040402bf23,5,,,,,,bench,,,,,,0,38,38,59,1,6,0,,,,,,,,,,,,,,,,,,,,,,,,,,,,,,,,,,,,,,,,,,,,,,,,,,,,,,,,,,,,,,,,,,,,,,,,,,,
,,,,,,,,,,stimuli/images/PICTURE_123.png,ADVICE,5b9f7e3d00815d00010323f6,30/06/1995,2020-09-02_12h29.41.515,proactive3.2,2020.1.2,Win32,60,5f47c0b9b035471e11593a5c,5f4f819c5e8dec040402bf23,5,,,,,,dart,,,,,,0,39,39,40,1,5,0,,,,,,,,,,,,,,,,,,,,,,,,,,,,,,,,,,,,,,,,,,,,,,,,,,,,,,,,,,,,,,,,,,,,,,,,,,,
,,,,,,,,,,stimuli/images/PICTURE_339.png,PLENTY,5b9f7e3d00815d00010323f6,30/06/1995,2020-09-02_12h29.41.515,proactive3.2,2020.1.2,Win32,60,5f47c0b9b035471e11593a5c,5f4f819c5e8dec040402bf23,5,,,,,,backpack,,,,,,0,40,40,0,1,1,0,,,,,,,,,,,,,,,,,,,,,,,,,,,,,,,,,,,,,,,,,,,,,,,,,,,,,,,,,,,,,,,,,,,,,,,,,,,
,,,,,,,,,,stimuli/images/PICTURE_255.png,AREA,5b9f7e3d00815d00010323f6,30/06/1995,2020-09-02_12h29.41.515,proactive3.2,2020.1.2,Win32,60,5f47c0b9b035471e11593a5c,5f4f819c5e8dec040402bf23,5,,,,,,shovel,,,,,,0,41,41,22,1,3,0,,,,,,,,,,,,,,,,,,,,,,,,,,,,,,,,,,,,,,,,,,,,,,,,,,,,,,,,,,,,,,,,,,,,,,,,,,,
,,,,,,,,,,stimuli/images/PICTURE_311.png,FRIEND,5b9f7e3d00815d00010323f6,30/06/1995,2020-09-02_12h29.41.515,proactive3.2,2020.1.2,Win32,60,5f47c0b9b035471e11593a5c,5f4f819c5e8dec040402bf23,5,,,,,,razor,,,,,,0,42,42,34,1,4,0,,,,,,,,,,,,,,,,,,,,,,,,,,,,,,,,,,,,,,,,,,,,,,,,,,,,,,,,,,,,,,,,,,,,,,,,,,,
,,,,,,,,,,stimuli/images/PICTURE_470.png,CASINO,5b9f7e3d00815d00010323f6,30/06/1995,2020-09-02_12h29.41.515,proactive3.2,2020.1.2,Win32,60,5f47c0b9b035471e11593a5c,5f4f819c5e8dec040402bf23,5,,,,,,motorbike,,,,,,0,43,43,36,1,4,0,,,,,,,,,,,,,,,,,,,,,,,,,,,,,,,,,,,,,,,,,,,,,,,,,,,,,,,,,,,,,,,,,,,,,,,,,,,
,,,,,,,,,,stimuli/images/PICTURE_85.png,THING,5b9f7e3d00815d00010323f6,30/06/1995,2020-09-02_12h29.41.515,proactive3.2,2020.1.2,Win32,60,5f47c0b9b035471e11593a5c,5f4f819c5e8dec040402bf23,5,,,,,,diamond,,,,,,0,44,44,15,1,2,0,,,,,,,,,,,,,,,,,,,,,,,,,,,,,,,,,,,,,,,,,,,,,,,,,,,,,,,,,,,,,,,,,,,,,,,,,,,
,,,,,,,,,,stimuli/images/PICTURE_147.png,MOMENT,5b9f7e3d00815d00010323f6,30/06/1995,2020-09-02_12h29.41.515,proactive3.2,2020.1.2,Win32,60,5f47c0b9b035471e11593a5c,5f4f819c5e8dec040402bf23,5,,,,,,hanger,,,,,,0,45,45,51,1,6,0,,,,,,,,,,,,,,,,,,,,,,,,,,,,,,,,,,,,,,,,,,,,,,,,,,,,,,,,,,,,,,,,,,,,,,,,,,,
,,,,,,,,,,stimuli/images/PICTURE_208.png,MONTH,5b9f7e3d00815d00010323f6,30/06/1995,2020-09-02_12h29.41.515,proactive3.2,2020.1.2,Win32,60,5f47c0b9b035471e11593a5c,5f4f819c5e8dec040402bf23,5,,,,,,microphone,,,,,,0,46,46,53,1,6,0,,,,,,,,,,,,,,,,,,,,,,,,,,,,,,,,,,,,,,,,,,,,,,,,,,,,,,,,,,,,,,,,,,,,,,,,,,,
,,,,,,,,,,stimuli/images/PICTURE_160.png,FEET,5b9f7e3d00815d00010323f6,30/06/1995,2020-09-02_12h29.41.515,proactive3.2,2020.1.2,Win32,60,5f47c0b9b035471e11593a5c,5f4f819c5e8dec040402bf23,5,,,,,,wheelbarrow,,,,,,0,47,47,58,1,6,0,,,,,,,,,,,,,,,,,,,,,,,,,,,,,,,,,,,,,,,,,,,,,,,,,,,,,,,,,,,,,,,,,,,,,,,,,,,
,,,,,,,,,,stimuli/images/PICTURE_744.png,SYSTEM,5b9f7e3d00815d00010323f6,30/06/1995,2020-09-02_12h29.41.515,proactive3.2,2020.1.2,Win32,60,5f47c0b9b035471e11593a5c,5f4f819c5e8dec040402bf23,5,,,,,,ring,,,,,,0,48,48,43,1,5,0,,,,,,,,,,,,,,,,,,,,,,,,,,,,,,,,,,,,,,,,,,,,,,,,,,,,,,,,,,,,,,,,,,,,,,,,,,,
,,,,,,,,,,stimuli/images/PICTURE_327.png,BEAUTY,5b9f7e3d00815d00010323f6,30/06/1995,2020-09-02_12h29.41.515,proactive3.2,2020.1.2,Win32,60,5f47c0b9b035471e11593a5c,5f4f819c5e8dec040402bf23,5,,,,,,helmet,,,,,,0,49,49,48,1,5,0,,,,,,,,,,,,,,,,,,,,,,,,,,,,,,,,,,,,,,,,,,,,,,,,,,,,,,,,,,,,,,,,,,,,,,,,,,,
,,,,,,,,,,stimuli/images/PICTURE_453.png,DUDE,5b9f7e3d00815d00010323f6,30/06/1995,2020-09-02_12h29.41.515,proactive3.2,2020.1.2,Win32,60,5f47c0b9b035471e11593a5c,5f4f819c5e8dec040402bf23,5,,,,,,scissors,,,,,,0,50,50,27,1,3,0,,,,,,,,,,,,,,,,,,,,,,,,,,,,,,,,,,,,,,,,,,,,,,,,,,,,,,,,,,,,,,,,,,,,,,,,,,,
,,,,,,,,,,stimuli/images/PICTURE_356.png,DANGER,5b9f7e3d00815d00010323f6,30/06/1995,2020-09-02_12h29.41.515,proactive3.2,2020.1.2,Win32,60,5f47c0b9b035471e11593a5c,5f4f819c5e8dec040402bf23,5,,,,,,pawn,,,,,,0,51,51,55,1,6,0,,,,,,,,,,,,,,,,,,,,,,,,,,,,,,,,,,,,,,,,,,,,,,,,,,,,,,,,,,,,,,,,,,,,,,,,,,,
,,,,,,,,,,stimuli/images/PICTURE_688.png,WOMEN,5b9f7e3d00815d00010323f6,30/06/1995,2020-09-02_12h29.41.515,proactive3.2,2020.1.2,Win32,60,5f47c0b9b035471e11593a5c,5f4f819c5e8dec040402bf23,5,,,,,,runner,,,,,,0,52,52,14,1,2,0,,,,,,,,,,,,,,,,,,,,,,,,,,,,,,,,,,,,,,,,,,,,,,,,,,,,,,,,,,,,,,,,,,,,,,,,,,,
,,,,,,,,,,stimuli/images/PICTURE_308.png,KIND,5b9f7e3d00815d00010323f6,30/06/1995,2020-09-02_12h29.41.515,proactive3.2,2020.1.2,Win32,60,5f47c0b9b035471e11593a5c,5f4f819c5e8dec040402bf23,5,,,,,,dice,,,,,,0,53,53,54,1,6,0,,,,,,,,,,,,,,,,,,,,,,,,,,,,,,,,,,,,,,,,,,,,,,,,,,,,,,,,,,,,,,,,,,,,,,,,,,,
,,,,,,,,,,stimuli/images/PICTURE_68.png,MILE,5b9f7e3d00815d00010323f6,30/06/1995,2020-09-02_12h29.41.515,proactive3.2,2020.1.2,Win32,60,5f47c0b9b035471e11593a5c,5f4f819c5e8dec040402bf23,5,,,,,,candle,,,,,,0,54,54,44,1,5,0,,,,,,,,,,,,,,,,,,,,,,,,,,,,,,,,,,,,,,,,,,,,,,,,,,,,,,,,,,,,,,,,,,,,,,,,,,,
,,,,,,,,,,stimuli/images/PICTURE_248.png,DOZEN,5b9f7e3d00815d00010323f6,30/06/1995,2020-09-02_12h29.41.515,proactive3.2,2020.1.2,Win32,60,5f47c0b9b035471e11593a5c,5f4f819c5e8dec040402bf23,5,,,,,,cart,,,,,,0,55,55,39,1,4,0,,,,,,,,,,,,,,,,,,,,,,,,,,,,,,,,,,,,,,,,,,,,,,,,,,,,,,,,,,,,,,,,,,,,,,,,,,,
,,,,,,,,,,stimuli/images/PICTURE_467.png,DEMON,5b9f7e3d00815d00010323f6,30/06/1995,2020-09-02_12h29.41.515,proactive3.2,2020.1.2,Win32,60,5f47c0b9b035471e11593a5c,5f4f819c5e8dec040402bf23,5,,,,,,peg,,,,,,0,56,56,23,1,3,0,,,,,,,,,,,,,,,,,,,,,,,,,,,,,,,,,,,,,,,,,,,,,,,,,,,,,,,,,,,,,,,,,,,,,,,,,,,
,,,,,,,,,,stimuli/images/PICTURE_314.png,SAKE,5b9f7e3d00815d00010323f6,30/06/1995,2020-09-02_12h29.41.515,proactive3.2,2020.1.2,Win32,60,5f47c0b9b035471e11593a5c,5f4f819c5e8dec040402bf23,5,,,,,,perfume,,,,,,0,57,57,7,1,1,0,,,,,,,,,,,,,,,,,,,,,,,,,,,,,,,,,,,,,,,,,,,,,,,,,,,,,,,,,,,,,,,,,,,,,,,,,,,
,,,,,,,,,,stimuli/images/PICTURE_348.png,SPEECH,5b9f7e3d00815d00010323f6,30/06/1995,2020-09-02_12h29.41.515,proactive3.2,2020.1.2,Win32,60,5f47c0b9b035471e11593a5c,5f4f819c5e8dec040402bf23,5,,,,,,pepper,,,,,,0,58,58,20,1,3,0,,,,,,,,,,,,,,,,,,,,,,,,,,,,,,,,,,,,,,,,,,,,,,,,,,,,,,,,,,,,,,,,,,,,,,,,,,,
,,BEAUTY,4.35721,1,,,,,,stimuli/images/PICTURE_327.png,BEAUTY,5b9f7e3d00815d00010323f6,30/06/1995,2020-09-02_12h29.41.515,proactive3.2,2020.1.2,Win32,60,5f47c0b9b035471e11593a5c,5f4f819c5e8dec040402bf23,5,,,,,,helmet,,,,,,,,,,,5,0,0,0,0,48,1,,,,,,,,,,,,,,,,,,,,,,,,,,,,,,,,,,,,,,,,,,,,,,,,,,,,,,,,,,,,,,,,,,,,,,
,,?,0.00201,0,,,,,,stimuli/images/PICTURE_302.png,FAMILY,5b9f7e3d00815d00010323f6,30/06/1995,2020-09-02_12h29.41.515,proactive3.2,2020.1.2,Win32,60,5f47c0b9b035471e11593a5c,5f4f819c5e8dec040402bf23,5,,,,,,taxi,,,,,,,,,,,2,0,0,1,1,18,1,,,,,,,,,,,,,,,,,,,,,,,,,,,,,,,,,,,,,,,,,,,,,,,,,,,,,,,,,,,,,,,,,,,,,,
,,?,0.001635,0,,,,,,stimuli/images/PICTURE_509.png,PHOTO,5b9f7e3d00815d00010323f6,30/06/1995,2020-09-02_12h29.41.515,proactive3.2,2020.1.2,Win32,60,5f47c0b9b035471e11593a5c,5f4f819c5e8dec040402bf23,5,,,,,,telephone,,,,,,,,,,,3,0,0,2,2,21,1,,,,,,,,,,,,,,,,,,,,,,,,,,,,,,,,,,,,,,,,,,,,,,,,,,,,,,,,,,,,,,,,,,,,,,
,,?,0.00166,0,,,,,,stimuli/images/PICTURE_339.png,PLENTY,5b9f7e3d00815d00010323f6,30/06/1995,2020-09-02_12h29.41.515,proactive3.2,2020.1.2,Win32,60,5f47c0b9b035471e11593a5c,5f4f819c5e8dec040402bf23,5,,,,,,backpack,,,,,,,,,,,1,0,0,3,3,0,1,,,,,,,,,,,,,,,,,,,,,,,,,,,,,,,,,,,,,,,,,,,,,,,,,,,,,,,,,,,,,,,,,,,,,,
,,?,0.002355,0,,,,,,stimuli/images/PICTURE_654.png,VALLEY,5b9f7e3d00815d00010323f6,30/06/1995,2020-09-02_12h29.41.515,proactive3.2,2020.1.2,Win32,60,5f47c0b9b035471e11593a5c,5f4f819c5e8dec040402bf23,5,,,,,,pencil,,,,,,,,,,,1,0,0,4,4,1,1,,,,,,,,,,,,,,,,,,,,,,,,,,,,,,,,,,,,,,,,,,,,,,,,,,,,,,,,,,,,,,,,,,,,,,
,,?,0.001595,0,,,,,,stimuli/images/PICTURE_380.png,PHOTO,5b9f7e3d00815d00010323f6,30/06/1995,2020-09-02_12h29.41.515,proactive3.2,2020.1.2,Win32,60,5f47c0b9b035471e11593a5c,5f4f819c5e8dec040402bf23,5,,,,,,gorilla,,,,,,,,,,,6,0,0,5,5,52,1,,,,,,,,,,,,,,,,,,,,,,,,,,,,,,,,,,,,,,,,,,,,,,,,,,,,,,,,,,,,,,,,,,,,,,
,,THING,2.62741,1,,,,,,stimuli/images/PICTURE_208.png,THING,5b9f7e3d00815d00010323f6,30/06/1995,2020-09-02_12h29.41.515,proactive3.2,2020.1.2,Win32,60,5f47c0b9b035471e11593a5c,5f4f819c5e8dec040402bf23,5,,,,,,microphone,,,,,,,,,,,5,0,0,6,6,47,1,,,,,,,,,,,,,,,,,,,,,,,,,,,,,,,,,,,,,,,,,,,,,,,,,,,,,,,,,,,,,,,,,,,,,,
,,?,0.002775,0,,,,,,stimuli/images/PICTURE_215.png,PLENTY,5b9f7e3d00815d00010323f6,30/06/1995,2020-09-02_12h29.41.515,proactive3.2,2020.1.2,Win32,60,5f47c0b9b035471e11593a5c,5f4f819c5e8dec040402bf23,5,,,,,,boot,,,,,,,,,,,4,0,0,7,7,37,1,,,,,,,,,,,,,,,,,,,,,,,,,,,,,,,,,,,,,,,,,,,,,,,,,,,,,,,,,,,,,,,,,,,,,,
,,?,0.001575,0,,,,,,stimuli/images/PICTURE_177.png,CARS,5b9f7e3d00815d00010323f6,30/06/1995,2020-09-02_12h29.41.515,proactive3.2,2020.1.2,Win32,60,5f47c0b9b035471e11593a5c,5f4f819c5e8dec040402bf23,5,,,,,,mushroom,,,,,,,,,,,4,0,0,8,8,35,1,,,,,,,,,,,,,,,,,,,,,,,,,,,,,,,,,,,,,,,,,,,,,,,,,,,,,,,,,,,,,,,,,,,,,,
,,?,0.0016,0,,,,,,stimuli/images/PICTURE_203.png,ARTIST,5b9f7e3d00815d00010323f6,30/06/1995,2020-09-02_12h29.41.515,proactive3.2,2020.1.2,Win32,60,5f47c0b9b035471e11593a5c,5f4f819c5e8dec040402bf23,5,,,,,,cap,,,,,,,,,,,3,0,0,9,9,26,1,,,,,,,,,,,,,,,,,,,,,,,,,,,,,,,,,,,,,,,,,,,,,,,,,,,,,,,,,,,,,,,,,,,,,,
,,?,0.00157,0,,,,,,stimuli/images/PICTURE_85.png,THING,5b9f7e3d00815d00010323f6,30/06/1995,2020-09-02_12h29.41.515,proactive3.2,2020.1.2,Win32,60,5f47c0b9b035471e11593a5c,5f4f819c5e8dec040402bf23,5,,,,,,diamond,,,,,,,,,,,2,0,0,10,10,15,1,,,,,,,,,,,,,,,,,,,,,,,,,,,,,,,,,,,,,,,,,,,,,,,,,,,,,,,,,,,,,,,,,,,,,,
,,?,0.001725,0,,,,,,stimuli/images/PICTURE_311.png,BEAUTY,5b9f7e3d00815d00010323f6,30/06/1995,2020-09-02_12h29.41.515,proactive3.2,2020.1.2,Win32,60,5f47c0b9b035471e11593a5c,5f4f819c5e8dec040402bf23,5,,,,,,razor,,,,,,,,,,,2,0,0,11,11,13,1,,,,,,,,,,,,,,,,,,,,,,,,,,,,,,,,,,,,,,,,,,,,,,,,,,,,,,,,,,,,,,,,,,,,,,
,,?,0.001585,0,,,,,,stimuli/images/PICTURE_667.png,BATH,5b9f7e3d00815d00010323f6,30/06/1995,2020-09-02_12h29.41.515,proactive3.2,2020.1.2,Win32,60,5f47c0b9b035471e11593a5c,5f4f819c5e8dec040402bf23,5,,,,,,daisy,,,,,,,,,,,1,0,0,12,12,4,1,,,,,,,,,,,,,,,,,,,,,,,,,,,,,,,,,,,,,,,,,,,,,,,,,,,,,,,,,,,,,,,,,,,,,,
,,?,0.001585,0,,,,,,stimuli/images/PICTURE_160.png,FEET,5b9f7e3d00815d00010323f6,30/06/1995,2020-09-02_12h29.41.515,proactive3.2,2020.1.2,Win32,60,5f47c0b9b035471e11593a5c,5f4f819c5e8dec040402bf23,5,,,,,,wheelbarrow,,,,,,,,,,,6,0,0,13,13,58,1,,,,,,,,,,,,,,,,,,,,,,,,,,,,,,,,,,,,,,,,,,,,,,,,,,,,,,,,,,,,,,,,,,,,,,
,,?,0.00157,0,,,,,,stimuli/images/PICTURE_470.png,CASINO,5b9f7e3d00815d00010323f6,30/06/1995,2020-09-02_12h29.41.515,proactive3.2,2020.1.2,Win32,60,5f47c0b9b035471e11593a5c,5f4f819c5e8dec040402bf23,5,,,,,,motorbike,,,,,,,,,,,4,0,0,14,14,36,1,,,,,,,,,,,,,,,,,,,,,,,,,,,,,,,,,,,,,,,,,,,,,,,,,,,,,,,,,,,,,,,,,,,,,,
,,?,0.001595,0,,,,,,stimuli/images/PICTURE_285.png,ADVICE,5b9f7e3d00815d00010323f6,30/06/1995,2020-09-02_12h29.41.515,proactive3.2,2020.1.2,Win32,60,5f47c0b9b035471e11593a5c,5f4f819c5e8dec040402bf23,5,,,,,,carrot,,,,,,,,,,,2,0,0,15,15,12,1,,,,,,,,,,,,,,,,,,,,,,,,,,,,,,,,,,,,,,,,,,,,,,,,,,,,,,,,,,,,,,,,,,,,,,
,,?,0.00158,0,,,,,,stimuli/images/PICTURE_311.png,FRIEND,5b9f7e3d00815d00010323f6,30/06/1995,2020-09-02_12h29.41.515,proactive3.2,2020.1.2,Win32,60,5f47c0b9b035471e11593a5c,5f4f819c5e8dec040402bf23,5,,,,,,razor,,,,,,,,,,,4,0,0,16,16,34,1,,,,,,,,,,,,,,,,,,,,,,,,,,,,,,,,,,,,,,,,,,,,,,,,,,,,,,,,,,,,,,,,,,,,,,
,,?,0.0016,0,,,,,,stimuli/images/PICTURE_233.png,WOMEN,5b9f7e3d00815d00010323f6,30/06/1995,2020-09-02_12h29.41.515,proactive3.2,2020.1.2,Win32,60,5f47c0b9b035471e11593a5c,5f4f819c5e8dec040402bf23,5,,,,,,salt,,,,,,,,,,,4,0,0,17,17,38,1,,,,,,,,,,,,,,,,,,,,,,,,,,,,,,,,,,,,,,,,,,,,,,,,,,,,,,,,,,,,,,,,,,,,,,
,,?,0.00164,0,,,,,,stimuli/images/PICTURE_233.png,IDEAS,5b9f7e3d00815d00010323f6,30/06/1995,2020-09-02_12h29.41.515,proactive3.2,2020.1.2,Win32,60,5f47c0b9b035471e11593a5c,5f4f819c5e8dec040402bf23,5,,,,,,salt,,,,,,,,,,,3,0,0,18,18,28,1,,,,,,,,,,,,,,,,,,,,,,,,,,,,,,,,,,,,,,,,,,,,,,,,,,,,,,,,,,,,,,,,,,,,,,
,,?,0.00166,0,,,,,,stimuli/images/PICTURE_255.png,AREA,5b9f7e3d00815d00010323f6,30/06/1995,2020-09-02_12h29.41.515,proactive3.2,2020.1.2,Win32,60,5f47c0b9b035471e11593a5c,5f4f819c5e8dec040402bf23,5,,,,,,shovel,,,,,,,,,,,3,0,0,19,19,22,1,,,,,,,,,,,,,,,,,,,,,,,,,,,,,,,,,,,,,,,,,,,,,,,,,,,,,,,,,,,,,,,,,,,,,,
,,?,0.001585,0,,,,,,stimuli/images/PICTURE_467.png,DEMON,5b9f7e3d00815d00010323f6,30/06/1995,2020-09-02_12h29.41.515,proactive3.2,2020.1.2,Win32,60,5f47c0b9b035471e11593a5c,5f4f819c5e8dec040402bf23,5,,,,,,peg,,,,,,,,,,,3,0,0,20,20,23,1,,,,,,,,,,,,,,,,,,,,,,,,,,,,,,,,,,,,,,,,,,,,,,,,,,,,,,,,,,,,,,,,,,,,,,
,,?,0.001645,0,,,,,,stimuli/images/PICTURE_160.png,LEADER,5b9f7e3d00815d00010323f6,30/06/1995,2020-09-02_12h29.41.515,proactive3.2,2020.1.2,Win32,60,5f47c0b9b035471e11593a5c,5f4f819c5e8dec040402bf23,5,,,,,,wheelbarrow,,,,,,,,,,,1,0,0,21,21,3,1,,,,,,,,,,,,,,,,,,,,,,,,,,,,,,,,,,,,,,,,,,,,,,,,,,,,,,,,,,,,,,,,,,,,,,
,,LETTER,9.489445,0,,,,,,stimuli/images/PICTURE_123.png,ADVICE,5b9f7e3d00815d00010323f6,30/06/1995,2020-09-02_12h29.41.515,proactive3.2,2020.1.2,Win32,60,5f47c0b9b035471e11593a5c,5f4f819c5e8dec040402bf23,5,,,,,,dart,,,,,,,,,,,5,0,0,22,22,40,1,,,,,,,,,,,,,,,,,,,,,,,,,,,,,,,,,,,,,,,,,,,,,,,,,,,,,,,,,,,,,,,,,,,,,,
,,?,0.002265,0,,,,,,stimuli/images/PICTURE_708.png,PENNY,5b9f7e3d00815d00010323f6,30/06/1995,2020-09-02_12h29.41.515,proactive3.2,2020.1.2,Win32,60,5f47c0b9b035471e11593a5c,5f4f819c5e8dec040402bf23,5,,,,,,monkey,,,,,,,,,,,4,0,0,23,23,31,1,,,,,,,,,,,,,,,,,,,,,,,,,,,,,,,,,,,,,,,,,,,,,,,,,,,,,,,,,,,,,,,,,,,,,,
,,DEATH,4.311275,1,,,,,,stimuli/images/PICTURE_380.png,DEATH,5b9f7e3d00815d00010323f6,30/06/1995,2020-09-02_12h29.41.515,proactive3.2,2020.1.2,Win32,60,5f47c0b9b035471e11593a5c,5f4f819c5e8dec040402bf23,5,,,,,,gorilla,,,,,,,,,,,5,0,0,24,24,49,1,,,,,,,,,,,,,,,,,,,,,,,,,,,,,,,,,,,,,,,,,,,,,,,,,,,,,,,,,,,,,,,,,,,,,,
,,?,0.003095,0,,,,,,stimuli/images/PICTURE_208.png,MONTH,5b9f7e3d00815d00010323f6,30/06/1995,2020-09-02_12h29.41.515,proactive3.2,2020.1.2,Win32,60,5f47c0b9b035471e11593a5c,5f4f819c5e8dec040402bf23,5,,,,,,microphone,,,,,,,,,,,6,0,0,25,25,53,1,,,,,,,,,,,,,,,,,,,,,,,,,,,,,,,,,,,,,,,,,,,,,,,,,,,,,,,,,,,,,,,,,,,,,,
,,?,0.002195,0,,,,,,stimuli/images/PICTURE_491.png,WRITER,5b9f7e3d00815d00010323f6,30/06/1995,2020-09-02_12h29.41.515,proactive3.2,2020.1.2,Win32,60,5f47c0b9b035471e11593a5c,5f4f819c5e8dec040402bf23,5,,,,,,rug,,,,,,,,,,,6,0,0,26,26,57,1,,,,,,,,,,,,,,,,,,,,,,,,,,,,,,,,,,,,,,,,,,,,,,,,,,,,,,,,,,,,,,,,,,,,,,
,,?,0.002035,0,,,,,,stimuli/images/PICTURE_453.png,PLENTY,5b9f7e3d00815d00010323f6,30/06/1995,2020-09-02_12h29.41.515,proactive3.2,2020.1.2,Win32,60,5f47c0b9b035471e11593a5c,5f4f819c5e8dec040402bf23,5,,,,,,scissors,,,,,,,,,,,6,0,0,27,27,56,1,,,,,,,,,,,,,,,,,,,,,,,,,,,,,,,,,,,,,,,,,,,,,,,,,,,,,,,,,,,,,,,,,,,,,,
,,MILE,2.06736,1,,,,,,stimuli/images/PICTURE_68.png,MILE,5b9f7e3d00815d00010323f6,30/06/1995,2020-09-02_12h29.41.515,proactive3.2,2020.1.2,Win32,60,5f47c0b9b035471e11593a5c,5f4f819c5e8dec040402bf23,5,,,,,,candle,,,,,,,,,,,5,0,0,28,28,44,1,,,,,,,,,,,,,,,,,,,,,,,,,,,,,,,,,,,,,,,,,,,,,,,,,,,,,,,,,,,,,,,,,,,,,,
,,?,11.036935,0,,,,,,stimuli/images/PICTURE_32.png,JUNGLE,5b9f7e3d00815d00010323f6,30/06/1995,2020-09-02_12h29.41.515,proactive3.2,2020.1.2,Win32,60,5f47c0b9b035471e11593a5c,5f4f819c5e8dec040402bf23,5,,,,,,crown,,,,,,,,,,,5,0,0,29,29,45,1,,,,,,,,,,,,,,,,,,,,,,,,,,,,,,,,,,,,,,,,,,,,,,,,,,,,,,,,,,,,,,,,,,,,,,
,,?,0.0017,0,,,,,,stimuli/images/PICTURE_491.png,ROOF,5b9f7e3d00815d00010323f6,30/06/1995,2020-09-02_12h29.41.515,proactive3.2,2020.1.2,Win32,60,5f47c0b9b035471e11593a5c,5f4f819c5e8dec040402bf23,5,,,,,,rug,,,,,,,,,,,3,0,0,30,30,24,1,,,,,,,,,,,,,,,,,,,,,,,,,,,,,,,,,,,,,,,,,,,,,,,,,,,,,,,,,,,,,,,,,,,,,,
,,?,13.932745,0,,,,,,stimuli/images/PICTURE_744.png,SYSTEM,5b9f7e3d00815d00010323f6,30/06/1995,2020-09-02_12h29.41.515,proactive3.2,2020.1.2,Win32,60,5f47c0b9b035471e11593a5c,5f4f819c5e8dec040402bf23,5,,,,,,ring,,,,,,,,,,,5,0,0,31,31,43,1,,,,,,,,,,,,,,,,,,,,,,,,,,,,,,,,,,,,,,,,,,,,,,,,,,,,,,,,,,,,,,,,,,,,,,
,,?,0.00159,0,,,,,,stimuli/images/PICTURE_348.png,SPEECH,5b9f7e3d00815d00010323f6,30/06/1995,2020-09-02_12h29.41.515,proactive3.2,2020.1.2,Win32,60,5f47c0b9b035471e11593a5c,5f4f819c5e8dec040402bf23,5,,,,,,pepper,,,,,,,,,,,3,0,0,32,32,20,1,,,,,,,,,,,,,,,,,,,,,,,,,,,,,,,,,,,,,,,,,,,,,,,,,,,,,,,,,,,,,,,,,,,,,,
,,?,0.001345,0,,,,,,stimuli/images/PICTURE_95.png,STYLE,5b9f7e3d00815d00010323f6,30/06/1995,2020-09-02_12h29.41.515,proactive3.2,2020.1.2,Win32,60,5f47c0b9b035471e11593a5c,5f4f819c5e8dec040402bf23,5,,,,,,suitcase,,,,,,,,,,,3,0,0,33,33,25,1,,,,,,,,,,,,,,,,,,,,,,,,,,,,,,,,,,,,,,,,,,,,,,,,,,,,,,,,,,,,,,,,,,,,,,
,,?,0.001385,0,,,,,,stimuli/images/PICTURE_688.png,CASINO,5b9f7e3d00815d00010323f6,30/06/1995,2020-09-02_12h29.41.515,proactive3.2,2020.1.2,Win32,60,5f47c0b9b035471e11593a5c,5f4f819c5e8dec040402bf23,5,,,,,,runner,,,,,,,,,,,1,0,0,34,34,2,1,,,,,,,,,,,,,,,,,,,,,,,,,,,,,,,,,,,,,,,,,,,,,,,,,,,,,,,,,,,,,,,,,,,,,,
,,?,0.00129,0,,,,,,stimuli/images/PICTURE_708.png,CLIENT,5b9f7e3d00815d00010323f6,30/06/1995,2020-09-02_12h29.41.515,proactive3.2,2020.1.2,Win32,60,5f47c0b9b035471e11593a5c,5f4f819c5e8dec040402bf23,5,,,,,,monkey,,,,,,,,,,,1,0,0,35,35,5,1,,,,,,,,,,,,,,,,,,,,,,,,,,,,,,,,,,,,,,,,,,,,,,,,,,,,,,,,,,,,,,,,,,,,,,
,,?,0.001435,0,,,,,,stimuli/images/PICTURE_675.png,WEAPON,5b9f7e3d00815d00010323f6,30/06/1995,2020-09-02_12h29.41.515,proactive3.2,2020.1.2,Win32,60,5f47c0b9b035471e11593a5c,5f4f819c5e8dec040402bf23,5,,,,,,windmill,,,,,,,,,,,4,0,0,36,36,32,1,,,,,,,,,,,,,,,,,,,,,,,,,,,,,,,,,,,,,,,,,,,,,,,,,,,,,,,,,,,,,,,,,,,,,,
,,?,0.00128,0,,,,,,stimuli/images/PICTURE_708.png,YARD,5b9f7e3d00815d00010323f6,30/06/1995,2020-09-02_12h29.41.515,proactive3.2,2020.1.2,Win32,60,5f47c0b9b035471e11593a5c,5f4f819c5e8dec040402bf23,5,,,,,,monkey,,,,,,,,,,,3,0,0,37,37,29,1,,,,,,,,,,,,,,,,,,,,,,,,,,,,,,,,,,,,,,,,,,,,,,,,,,,,,,,,,,,,,,,,,,,,,,
,,ESTATE,2.660145,1,,,,,,stimuli/images/PICTURE_308.png,ESTATE,5b9f7e3d00815d00010323f6,30/06/1995,2020-09-02_12h29.41.515,proactive3.2,2020.1.2,Win32,60,5f47c0b9b035471e11593a5c,5f4f819c5e8dec040402bf23,5,,,,,,dice,,,,,,,,,,,5,0,0,38,38,46,1,,,,,,,,,,,,,,,,,,,,,,,,,,,,,,,,,,,,,,,,,,,,,,,,,,,,,,,,,,,,,,,,,,,,,,
,,?,0.00162,0,,,,,,stimuli/images/PICTURE_744.png,SAKE,5b9f7e3d00815d00010323f6,30/06/1995,2020-09-02_12h29.41.515,proactive3.2,2020.1.2,Win32,60,5f47c0b9b035471e11593a5c,5f4f819c5e8dec040402bf23,5,,,,,,ring,,,,,,,,,,,2,0,0,39,39,17,1,,,,,,,,,,,,,,,,,,,,,,,,,,,,,,,,,,,,,,,,,,,,,,,,,,,,,,,,,,,,,,,,,,,,,,
,,?,0.001365,0,,,,,,stimuli/images/PICTURE_208.png,LOTS,5b9f7e3d00815d00010323f6,30/06/1995,2020-09-02_12h29.41.515,proactive3.2,2020.1.2,Win32,60,5f47c0b9b035471e11593a5c,5f4f819c5e8dec040402bf23,5,,,,,,microphone,,,,,,,,,,,2,0,0,40,40,10,1,,,,,,,,,,,,,,,,,,,,,,,,,,,,,,,,,,,,,,,,,,,,,,,,,,,,,,,,,,,,,,,,,,,,,,
,,?,0.001375,0,,,,,,stimuli/images/PICTURE_314.png,SAKE,5b9f7e3d00815d00010323f6,30/06/1995,2020-09-02_12h29.41.515,proactive3.2,2020.1.2,Win32,60,5f47c0b9b035471e11593a5c,5f4f819c5e8dec040402bf23,5,,,,,,perfume,,,,,,,,,,,1,0,0,41,41,7,1,,,,,,,,,,,,,,,,,,,,,,,,,,,,,,,,,,,,,,,,,,,,,,,,,,,,,,,,,,,,,,,,,,,,,,
,,?,0.001275,0,,,,,,stimuli/images/PICTURE_248.png,DOZEN,5b9f7e3d00815d00010323f6,30/06/1995,2020-09-02_12h29.41.515,proactive3.2,2020.1.2,Win32,60,5f47c0b9b035471e11593a5c,5f4f819c5e8dec040402bf23,5,,,,,,cart,,,,,,,,,,,4,0,0,42,42,39,1,,,,,,,,,,,,,,,,,,,,,,,,,,,,,,,,,,,,,,,,,,,,,,,,,,,,,,,,,,,,,,,,,,,,,,
,,?,0.001935,0,,,,,,stimuli/images/PICTURE_487.png,FLIGHT,5b9f7e3d00815d00010323f6,30/06/1995,2020-09-02_12h29.41.515,proactive3.2,2020.1.2,Win32,60,5f47c0b9b035471e11593a5c,5f4f819c5e8dec040402bf23,5,,,,,,basket,,,,,,,,,,,1,0,0,43,43,9,1,,,,,,,,,,,,,,,,,,,,,,,,,,,,,,,,,,,,,,,,,,,,,,,,,,,,,,,,,,,,,,,,,,,,,,
,,SYSTEM,9.167455,0,,,,,,stimuli/images/PICTURE_667.png,PLENTY,5b9f7e3d00815d00010323f6,30/06/1995,2020-09-02_12h29.41.515,proactive3.2,2020.1.2,Win32,60,5f47c0b9b035471e11593a5c,5f4f819c5e8dec040402bf23,5,,,,,,daisy,,,,,,,,,,,5,0,0,44,44,41,1,,,,,,,,,,,,,,,,,,,,,,,,,,,,,,,,,,,,,,,,,,,,,,,,,,,,,,,,,,,,,,,,,,,,,,
,,?,0.00155,0,,,,,,stimuli/images/PICTURE_147.png,MOMENT,5b9f7e3d00815d00010323f6,30/06/1995,2020-09-02_12h29.41.515,proactive3.2,2020.1.2,Win32,60,5f47c0b9b035471e11593a5c,5f4f819c5e8dec040402bf23,5,,,,,,hanger,,,,,,,,,,,6,0,0,45,45,51,1,,,,,,,,,,,,,,,,,,,,,,,,,,,,,,,,,,,,,,,,,,,,,,,,,,,,,,,,,,,,,,,,,,,,,,
,,?,0.001265,0,,,,,,stimuli/images/PICTURE_308.png,KIND,5b9f7e3d00815d00010323f6,30/06/1995,2020-09-02_12h29.41.515,proactive3.2,2020.1.2,Win32,60,5f47c0b9b035471e11593a5c,5f4f819c5e8dec040402bf23,5,,,,,,dice,,,,,,,,,,,6,0,0,46,46,54,1,,,,,,,,,,,,,,,,,,,,,,,,,,,,,,,,,,,,,,,,,,,,,,,,,,,,,,,,,,,,,,,,,,,,,,
,,?,0.00129,0,,,,,,stimuli/images/PICTURE_449.png,THING,5b9f7e3d00815d00010323f6,30/06/1995,2020-09-02_12h29.41.515,proactive3.2,2020.1.2,Win32,60,5f47c0b9b035471e11593a5c,5f4f819c5e8dec040402bf23,5,,,,,,bench,,,,,,,,,,,6,0,0,47,47,59,1,,,,,,,,,,,,,,,,,,,,,,,,,,,,,,,,,,,,,,,,,,,,,,,,,,,,,,,,,,,,,,,,,,,,,,
,,?,0.00173,0,,,,,,stimuli/images/PICTURE_123.png,ADVICE,5b9f7e3d00815d00010323f6,30/06/1995,2020-09-02_12h29.41.515,proactive3.2,2020.1.2,Win32,60,5f47c0b9b035471e11593a5c,5f4f819c5e8dec040402bf23,5,,,,,,dart,,,,,,,,,,,6,0,0,48,48,50,1,,,,,,,,,,,,,,,,,,,,,,,,,,,,,,,,,,,,,,,,,,,,,,,,,,,,,,,,,,,,,,,,,,,,,,
,,?,0.00128,0,,,,,,stimuli/images/PICTURE_692.png,MONTH,5b9f7e3d00815d00010323f6,30/06/1995,2020-09-02_12h29.41.515,proactive3.2,2020.1.2,Win32,60,5f47c0b9b035471e11593a5c,5f4f819c5e8dec040402bf23,5,,,,,,cherry,,,,,,,,,,,2,0,0,49,49,16,1,,,,,,,,,,,,,,,,,,,,,,,,,,,,,,,,,,,,,,,,,,,,,,,,,,,,,,,,,,,,,,,,,,,,,,
,,?,0.001455,0,,,,,,stimuli/images/PICTURE_677.png,MILE,5b9f7e3d00815d00010323f6,30/06/1995,2020-09-02_12h29.41.515,proactive3.2,2020.1.2,Win32,60,5f47c0b9b035471e11593a5c,5f4f819c5e8dec040402bf23,5,,,,,,map,,,,,,,,,,,4,0,0,50,50,30,1,,,,,,,,,,,,,,,,,,,,,,,,,,,,,,,,,,,,,,,,,,,,,,,,,,,,,,,,,,,,,,,,,,,,,,
,,?,0.001245,0,,,,,,stimuli/images/PICTURE_356.png,DANGER,5b9f7e3d00815d00010323f6,30/06/1995,2020-09-02_12h29.41.515,proactive3.2,2020.1.2,Win32,60,5f47c0b9b035471e11593a5c,5f4f819c5e8dec040402bf23,5,,,,,,pawn,,,,,,,,,,,6,0,0,51,51,55,1,,,,,,,,,,,,,,,,,,,,,,,,,,,,,,,,,,,,,,,,,,,,,,,,,,,,,,,,,,,,,,,,,,,,,,
,,LETTER,3.68797,1,,,,,,stimuli/images/PICTURE_469.png,LETTER,5b9f7e3d00815d00010323f6,30/06/1995,2020-09-02_12h29.41.515,proactive3.2,2020.1.2,Win32,60,5f47c0b9b035471e11593a5c,5f4f819c5e8dec040402bf23,5,,,,,,stool,,,,,,,,,,,5,0,0,52,52,42,1,,,,,,,,,,,,,,,,,,,,,,,,,,,,,,,,,,,,,,,,,,,,,,,,,,,,,,,,,,,,,,,,,,,,,,
,,?,0.002425,0,,,,,,stimuli/images/PICTURE_453.png,DUDE,5b9f7e3d00815d00010323f6,30/06/1995,2020-09-02_12h29.41.515,proactive3.2,2020.1.2,Win32,60,5f47c0b9b035471e11593a5c,5f4f819c5e8dec040402bf23,5,,,,,,scissors,,,,,,,,,,,3,0,0,53,53,27,1,,,,,,,,,,,,,,,,,,,,,,,,,,,,,,,,,,,,,,,,,,,,,,,,,,,,,,,,,,,,,,,,,,,,,,
,,?,0.001325,0,,,,,,stimuli/images/PICTURE_688.png,WOMEN,5b9f7e3d00815d00010323f6,30/06/1995,2020-09-02_12h29.41.515,proactive3.2,2020.1.2,Win32,60,5f47c0b9b035471e11593a5c,5f4f819c5e8dec040402bf23,5,,,,,,runner,,,,,,,,,,,2,0,0,54,54,14,1,,,,,,,,,,,,,,,,,,,,,,,,,,,,,,,,,,,,,,,,,,,,,,,,,,,,,,,,,,,,,,,,,,,,,,
,,?,0.001345,0,,,,,,stimuli/images/PICTURE_151.png,GIRL,5b9f7e3d00815d00010323f6,30/06/1995,2020-09-02_12h29.41.515,proactive3.2,2020.1.2,Win32,60,5f47c0b9b035471e11593a5c,5f4f819c5e8dec040402bf23,5,,,,,,tray,,,,,,,,,,,2,0,0,55,55,19,1,,,,,,,,,,,,,,,,,,,,,,,,,,,,,,,,,,,,,,,,,,,,,,,,,,,,,,,,,,,,,,,,,,,,,,
,,?,0.00123,0,,,,,,stimuli/images/PICTURE_488.png,STYLE,5b9f7e3d00815d00010323f6,30/06/1995,2020-09-02_12h29.41.515,proactive3.2,2020.1.2,Win32,60,5f47c0b9b035471e11593a5c,5f4f819c5e8dec040402bf23,5,,,,,,sun,,,,,,,,,,,4,0,0,56,56,33,1,,,,,,,,,,,,,,,,,,,,,,,,,,,,,,,,,,,,,,,,,,,,,,,,,,,,,,,,,,,,,,,,,,,,,,
,,?,0.00181,0,,,,,,stimuli/images/PICTURE_469.png,ARTIST,5b9f7e3d00815d00010323f6,30/06/1995,2020-09-02_12h29.41.515,proactive3.2,2020.1.2,Win32,60,5f47c0b9b035471e11593a5c,5f4f819c5e8dec040402bf23,5,,,,,,stool,,,,,,,,,,,1,0,0,57,57,6,1,,,,,,,,,,,,,,,,,,,,,,,,,,,,,,,,,,,,,,,,,,,,,,,,,,,,,,,,,,,,,,,,,,,,,,
,,?,0.00128,0,,,,,,stimuli/images/PICTURE_314.png,GODS,5b9f7e3d00815d00010323f6,30/06/1995,2020-09-02_12h29.41.515,proactive3.2,2020.1.2,Win32,60,5f47c0b9b035471e11593a5c,5f4f819c5e8dec040402bf23,5,,,,,,perfume,,,,,,,,,,,2,0,0,58,58,11,1,,,,,,,,,,,,,,,,,,,,,,,,,,,,,,,,,,,,,,,,,,,,,,,,,,,,,,,,,,,,,,,,,,,,,,
,,?,0.001265,0,,,,,,stimuli/images/PICTURE_504.png,BODY,5b9f7e3d00815d00010323f6,30/06/1995,2020-09-02_12h29.41.515,proactive3.2,2020.1.2,Win32,60,5f47c0b9b035471e11593a5c,5f4f819c5e8dec040402bf23,5,,,,,,wheel,,,,,,,,,,,1,0,0,59,59,8,1,,,,,,,,,,,,,,,,,,,,,,,,,,,,,,,,,,,,,,,,,,,,,,,,,,,,,,,,,,,,,,,,,,,,,,
,,,,,,,,,,,,5b9f7e3d00815d00010323f6,30/06/1995,2020-09-02_12h29.41.515,proactive3.2,2020.1.2,Win32,60,5f47c0b9b035471e11593a5c,5f4f819c5e8dec040402bf23,5,,,,,,,,,,,,,,,,,,,,,,,,0,0,0,0,1,stimuli/learn-block1.csv,,,,,,,,,,,,,,,,,,,,,,,,,,,,,,,,,,,,,,,,,,,,,,,,,,,,,,,,,,,,,,,,
,,,,,,,,,,stimuli/images/PICTURE_327.png,CASINO,5b9f7e3d00815d00010323f6,30/06/1995,2020-09-02_12h29.41.515,proactive3.2,2020.1.2,Win32,60,5f47c0b9b035471e11593a5c,5f4f819c5e8dec040402bf23,5,,,,,,helmet,,,,,,0,0,0,20,1,3,1,,,,,,,,,,,,,,,,,,,,,,,,,,,,,,,,,,,,,,,,,,,,,,,,,,,,,,,,,,,,,,,,,,,,,,,,,,,
,,,,,,,,,,stimuli/images/PICTURE_564.png,BATH,5b9f7e3d00815d00010323f6,30/06/1995,2020-09-02_12h29.41.515,proactive3.2,2020.1.2,Win32,60,5f47c0b9b035471e11593a5c,5f4f819c5e8dec040402bf23,5,,,,,,spoon,,,,,,0,1,1,26,1,3,1,,,,,,,,,,,,,,,,,,,,,,,,,,,,,,,,,,,,,,,,,,,,,,,,,,,,,,,,,,,,,,,,,,,,,,,,,,,
,,,,,,,,,,stimuli/images/PICTURE_469.png,AGENT,5b9f7e3d00815d00010323f6,30/06/1995,2020-09-02_12h29.41.515,proactive3.2,2020.1.2,Win32,60,5f47c0b9b035471e11593a5c,5f4f819c5e8dec040402bf23,5,,,,,,stool,,,,,,0,2,2,16,1,2,1,,,,,,,,,,,,,,,,,,,,,,,,,,,,,,,,,,,,,,,,,,,,,,,,,,,,,,,,,,,,,,,,,,,,,,,,,,,
,,,,,,,,,,stimuli/images/PICTURE_744.png,WEAPON,5b9f7e3d00815d00010323f6,30/06/1995,2020-09-02_12h29.41.515,proactive3.2,2020.1.2,Win32,60,5f47c0b9b035471e11593a5c,5f4f819c5e8dec040402bf23,5,,,,,,ring,,,,,,0,3,3,50,1,6,1,,,,,,,,,,,,,,,,,,,,,,,,,,,,,,,,,,,,,,,,,,,,,,,,,,,,,,,,,,,,,,,,,,,,,,,,,,,
,,,,,,,,,,stimuli/images/PICTURE_677.png,APPLE,5b9f7e3d00815d00010323f6,30/06/1995,2020-09-02_12h29.41.515,proactive3.2,2020.1.2,Win32,60,5f47c0b9b035471e11593a5c,5f4f819c5e8dec040402bf23,5,,,,,,map,,,,,,0,4,4,43,1,5,1,,,,,,,,,,,,,,,,,,,,,,,,,,,,,,,,,,,,,,,,,,,,,,,,,,,,,,,,,,,,,,,,,,,,,,,,,,,
,,,,,,,,,,stimuli/images/PICTURE_340.png,LETTER,5b9f7e3d00815d00010323f6,30/06/1995,2020-09-02_12h29.41.515,proactive3.2,2020.1.2,Win32,60,5f47c0b9b035471e11593a5c,5f4f819c5e8dec040402bf23,5,,,,,,mirror,,,,,,0,5,5,24,1,3,1,,,,,,,,,,,,,,,,,,,,,,,,,,,,,,,,,,,,,,,,,,,,,,,,,,,,,,,,,,,,,,,,,,,,,,,,,,,
,,,,,,,,,,stimuli/images/PICTURE_95.png,HONEY,5b9f7e3d00815d00010323f6,30/06/1995,2020-09-02_12h29.41.515,proactive3.2,2020.1.2,Win32,60,5f47c0b9b035471e11593a5c,5f4f819c5e8dec040402bf23,5,,,,,,suitcase,,,,,,0,6,6,44,1,5,1,,,,,,,,,,,,,,,,,,,,,,,,,,,,,,,,,,,,,,,,,,,,,,,,,,,,,,,,,,,,,,,,,,,,,,,,,,,
,,,,,,,,,,stimuli/images/PICTURE_68.png,MILE,5b9f7e3d00815d00010323f6,30/06/1995,2020-09-02_12h29.41.515,proactive3.2,2020.1.2,Win32,60,5f47c0b9b035471e11593a5c,5f4f819c5e8dec040402bf23,5,,,,,,candle,,,,,,0,7,7,51,1,6,1,,,,,,,,,,,,,,,,,,,,,,,,,,,,,,,,,,,,,,,,,,,,,,,,,,,,,,,,,,,,,,,,,,,,,,,,,,,
,,,,,,,,,,stimuli/images/PICTURE_57.png,MOMENT,5b9f7e3d00815d00010323f6,30/06/1995,2020-09-02_12h29.41.515,proactive3.2,2020.1.2,Win32,60,5f47c0b9b035471e11593a5c,5f4f819c5e8dec040402bf23,5,,,,,,stamp,,,,,,0,8,8,37,1,4,1,,,,,,,,,,,,,,,,,,,,,,,,,,,,,,,,,,,,,,,,,,,,,,,,,,,,,,,,,,,,,,,,,,,,,,,,,,,
,,,,,,,,,,stimuli/images/PICTURE_654.png,MONTH,5b9f7e3d00815d00010323f6,30/06/1995,2020-09-02_12h29.41.515,proactive3.2,2020.1.2,Win32,60,5f47c0b9b035471e11593a5c,5f4f819c5e8dec040402bf23,5,,,,,,pencil,,,,,,0,9,9,29,1,3,1,,,,,,,,,,,,,,,,,,,,,,,,,,,,,,,,,,,,,,,,,,,,,,,,,,,,,,,,,,,,,,,,,,,,,,,,,,,
,,,,,,,,,,stimuli/images/PICTURE_42.png,BOYS,5b9f7e3d00815d00010323f6,30/06/1995,2020-09-02_12h29.41.515,proactive3.2,2020.1.2,Win32,60,5f47c0b9b035471e11593a5c,5f4f819c5e8dec040402bf23,5,,,,,,pear,,,,,,0,10,10,55,1,6,1,,,,,,,,,,,,,,,,,,,,,,,,,,,,,,,,,,,,,,,,,,,,,,,,,,,,,,,,,,,,,,,,,,,,,,,,,,,
,,,,,,,,,,stimuli/images/PICTURE_383.png,SERIES,5b9f7e3d00815d00010323f6,30/06/1995,2020-09-02_12h29.41.515,proactive3.2,2020.1.2,Win32,60,5f47c0b9b035471e11593a5c,5f4f819c5e8dec040402bf23,5,,,,,,coin,,,,,,0,11,11,46,1,5,1,,,,,,,,,,,,,,,,,,,,,,,,,,,,,,,,,,,,,,,,,,,,,,,,,,,,,,,,,,,,,,,,,,,,,,,,,,,
,,,,,,,,,,stimuli/images/PICTURE_403.png,TOILET,5b9f7e3d00815d00010323f6,30/06/1995,2020-09-02_12h29.41.515,proactive3.2,2020.1.2,Win32,60,5f47c0b9b035471e11593a5c,5f4f819c5e8dec040402bf23,5,,,,,,cathedral,,,,,,0,12,12,25,1,3,1,,,,,,,,,,,,,,,,,,,,,,,,,,,,,,,,,,,,,,,,,,,,,,,,,,,,,,,,,,,,,,,,,,,,,,,,,,,
,,,,,,,,,,stimuli/images/PICTURE_147.png,WOMEN,5b9f7e3d00815d00010323f6,30/06/1995,2020-09-02_12h29.41.515,proactive3.2,2020.1.2,Win32,60,5f47c0b9b035471e11593a5c,5f4f819c5e8dec040402bf23,5,,,,,,hanger,,,,,,0,13,13,7,1,1,1,,,,,,,,,,,,,,,,,,,,,,,,,,,,,,,,,,,,,,,,,,,,,,,,,,,,,,,,,,,,,,,,,,,,,,,,,,,
,,,,,,,,,,stimuli/images/PICTURE_108.png,POLICY,5b9f7e3d00815d00010323f6,30/06/1995,2020-09-02_12h29.41.515,proactive3.2,2020.1.2,Win32,60,5f47c0b9b035471e11593a5c,5f4f819c5e8dec040402bf23,5,,,,,,calendar,,,,,,0,14,14,22,1,3,1,,,,,,,,,,,,,,,,,,,,,,,,,,,,,,,,,,,,,,,,,,,,,,,,,,,,,,,,,,,,,,,,,,,,,,,,,,,
,,,,,,,,,,stimuli/images/PICTURE_68.png,ROOF,5b9f7e3d00815d00010323f6,30/06/1995,2020-09-02_12h29.41.515,proactive3.2,2020.1.2,Win32,60,5f47c0b9b035471e11593a5c,5f4f819c5e8dec040402bf23,5,,,,,,candle,,,,,,0,15,15,38,1,4,1,,,,,,,,,,,,,,,,,,,,,,,,,,,,,,,,,,,,,,,,,,,,,,,,,,,,,,,,,,,,,,,,,,,,,,,,,,,
,,,,,,,,,,stimuli/images/PICTURE_685.png,PENNY,5b9f7e3d00815d00010323f6,30/06/1995,2020-09-02_12h29.41.515,proactive3.2,2020.1.2,Win32,60,5f47c0b9b035471e11593a5c,5f4f819c5e8dec040402bf23,5,,,,,,goose,,,,,,0,16,16,4,1,1,1,,,,,,,,,,,,,,,,,,,,,,,,,,,,,,,,,,,,,,,,,,,,,,,,,,,,,,,,,,,,,,,,,,,,,,,,,,,
,,,,,,,,,,stimuli/images/PICTURE_308.png,FAMILY,5b9f7e3d00815d00010323f6,30/06/1995,2020-09-02_12h29.41.515,proactive3.2,2020.1.2,Win32,60,5f47c0b9b035471e11593a5c,5f4f819c5e8dec040402bf23,5,,,,,,dice,,,,,,0,17,17,36,1,4,1,,,,,,,,,,,,,,,,,,,,,,,,,,,,,,,,,,,,,,,,,,,,,,,,,,,,,,,,,,,,,,,,,,,,,,,,,,,
,,,,,,,,,,stimuli/images/PICTURE_233.png,LOTS,5b9f7e3d00815d00010323f6,30/06/1995,2020-09-02_12h29.41.515,proactive3.2,2020.1.2,Win32,60,5f47c0b9b035471e11593a5c,5f4f819c5e8dec040402bf23,5,,,,,,salt,,,,,,0,18,18,42,1,5,1,,,,,,,,,,,,,,,,,,,,,,,,,,,,,,,,,,,,,,,,,,,,,,,,,,,,,,,,,,,,,,,,,,,,,,,,,,,
,,,,,,,,,,stimuli/images/PICTURE_108.png,FLIGHT,5b9f7e3d00815d00010323f6,30/06/1995,2020-09-02_12h29.41.515,proactive3.2,2020.1.2,Win32,60,5f47c0b9b035471e11593a5c,5f4f819c5e8dec040402bf23,5,,,,,,calendar,,,,,,0,19,19,59,1,6,1,,,,,,,,,,,,,,,,,,,,,,,,,,,,,,,,,,,,,,,,,,,,,,,,,,,,,,,,,,,,,,,,,,,,,,,,,,,
,,,,,,,,,,stimuli/images/PICTURE_327.png,SERIES,5b9f7e3d00815d00010323f6,30/06/1995,2020-09-02_12h29.41.515,proactive3.2,2020.1.2,Win32,60,5f47c0b9b035471e11593a5c,5f4f819c5e8dec040402bf23,5,,,,,,helmet,,,,,,0,20,20,3,1,1,1,,,,,,,,,,,,,,,,,,,,,,,,,,,,,,,,,,,,,,,,,,,,,,,,,,,,,,,,,,,,,,,,,,,,,,,,,,,
,,,,,,,,,,stimuli/images/PICTURE_504.png,YEAR,5b9f7e3d00815d00010323f6,30/06/1995,2020-09-02_12h29.41.515,proactive3.2,2020.1.2,Win32,60,5f47c0b9b035471e11593a5c,5f4f819c5e8dec040402bf23,5,,,,,,wheel,,,,,,0,21,21,13,1,2,1,,,,,,,,,,,,,,,,,,,,,,,,,,,,,,,,,,,,,,,,,,,,,,,,,,,,,,,,,,,,,,,,,,,,,,,,,,,
,,,,,,,,,,stimuli/images/PICTURE_403.png,WRITER,5b9f7e3d00815d00010323f6,30/06/1995,2020-09-02_12h29.41.515,proactive3.2,2020.1.2,Win32,60,5f47c0b9b035471e11593a5c,5f4f819c5e8dec040402bf23,5,,,,,,cathedral,,,,,,0,22,22,31,1,4,1,,,,,,,,,,,,,,,,,,,,,,,,,,,,,,,,,,,,,,,,,,,,,,,,,,,,,,,,,,,,,,,,,,,,,,,,,,,
,,,,,,,,,,stimuli/images/PICTURE_147.png,YEAR,5b9f7e3d00815d00010323f6,30/06/1995,2020-09-02_12h29.41.515,proactive3.2,2020.1.2,Win32,60,5f47c0b9b035471e11593a5c,5f4f819c5e8dec040402bf23,5,,,,,,hanger,,,,,,0,23,23,21,1,3,1,,,,,,,,,,,,,,,,,,,,,,,,,,,,,,,,,,,,,,,,,,,,,,,,,,,,,,,,,,,,,,,,,,,,,,,,,,,
,,,,,,,,,,stimuli/images/PICTURE_467.png,POLICY,5b9f7e3d00815d00010323f6,30/06/1995,2020-09-02_12h29.41.515,proactive3.2,2020.1.2,Win32,60,5f47c0b9b035471e11593a5c,5f4f819c5e8dec040402bf23,5,,,,,,peg,,,,,,0,24,24,53,1,6,1,,,,,,,,,,,,,,,,,,,,,,,,,,,,,,,,,,,,,,,,,,,,,,,,,,,,,,,,,,,,,,,,,,,,,,,,,,,
,,,,,,,,,,stimuli/images/PICTURE_504.png,COPS,5b9f7e3d00815d00010323f6,30/06/1995,2020-09-02_12h29.41.515,proactive3.2,2020.1.2,Win32,60,5f47c0b9b035471e11593a5c,5f4f819c5e8dec040402bf23,5,,,,,,wheel,,,,,,0,25,25,52,1,6,1,,,,,,,,,,,,,,,,,,,,,,,,,,,,,,,,,,,,,,,,,,,,,,,,,,,,,,,,,,,,,,,,,,,,,,,,,,,
,,,,,,,,,,stimuli/images/PICTURE_383.png,WRITER,5b9f7e3d00815d00010323f6,30/06/1995,2020-09-02_12h29.41.515,proactive3.2,2020.1.2,Win32,60,5f47c0b9b035471e11593a5c,5f4f819c5e8dec040402bf23,5,,,,,,coin,,,,,,0,26,26,28,1,3,1,,,,,,,,,,,,,,,,,,,,,,,,,,,,,,,,,,,,,,,,,,,,,,,,,,,,,,,,,,,,,,,,,,,,,,,,,,,
,,,,,,,,,,stimuli/images/PICTURE_675.png,SALE,5b9f7e3d00815d00010323f6,30/06/1995,2020-09-02_12h29.41.515,proactive3.2,2020.1.2,Win32,60,5f47c0b9b035471e11593a5c,5f4f819c5e8dec040402bf23,5,,,,,,windmill,,,,,,0,27,27,47,1,5,1,,,,,,,,,,,,,,,,,,,,,,,,,,,,,,,,,,,,,,,,,,,,,,,,,,,,,,,,,,,,,,,,,,,,,,,,,,,
,,,,,,,,,,stimuli/images/PICTURE_296.png,LIFE,5b9f7e3d00815d00010323f6,30/06/1995,2020-09-02_12h29.41.515,proactive3.2,2020.1.2,Win32,60,5f47c0b9b035471e11593a5c,5f4f819c5e8dec040402bf23,5,,,,,,bolt,,,,,,0,28,28,57,1,6,1,,,,,,,,,,,,,,,,,,,,,,,,,,,,,,,,,,,,,,,,,,,,,,,,,,,,,,,,,,,,,,,,,,,,,,,,,,,
,,,,,,,,,,stimuli/images/PICTURE_208.png,SYSTEM,5b9f7e3d00815d00010323f6,30/06/1995,2020-09-02_12h29.41.515,proactive3.2,2020.1.2,Win32,60,5f47c0b9b035471e11593a5c,5f4f819c5e8dec040402bf23,5,,,,,,microphone,,,,,,0,29,29,32,1,4,1,,,,,,,,,,,,,,,,,,,,,,,,,,,,,,,,,,,,,,,,,,,,,,,,,,,,,,,,,,,,,,,,,,,,,,,,,,,
,,,,,,,,,,stimuli/images/PICTURE_177.png,WRITER,5b9f7e3d00815d00010323f6,30/06/1995,2020-09-02_12h29.41.515,proactive3.2,2020.1.2,Win32,60,5f47c0b9b035471e11593a5c,5f4f819c5e8dec040402bf23,5,,,,,,mushroom,,,,,,0,30,30,41,1,5,1,,,,,,,,,,,,,,,,,,,,,,,,,,,,,,,,,,,,,,,,,,,,,,,,,,,,,,,,,,,,,,,,,,,,,,,,,,,
,,,,,,,,,,stimuli/images/PICTURE_95.png,MILLER,5b9f7e3d00815d00010323f6,30/06/1995,2020-09-02_12h29.41.515,proactive3.2,2020.1.2,Win32,60,5f47c0b9b035471e11593a5c,5f4f819c5e8dec040402bf23,5,,,,,,suitcase,,,,,,0,31,31,56,1,6,1,,,,,,,,,,,,,,,,,,,,,,,,,,,,,,,,,,,,,,,,,,,,,,,,,,,,,,,,,,,,,,,,,,,,,,,,,,,
,,,,,,,,,,stimuli/images/PICTURE_203.png,NIGHT,5b9f7e3d00815d00010323f6,30/06/1995,2020-09-02_12h29.41.515,proactive3.2,2020.1.2,Win32,60,5f47c0b9b035471e11593a5c,5f4f819c5e8dec040402bf23,5,,,,,,cap,,,,,,0,32,32,2,1,1,1,,,,,,,,,,,,,,,,,,,,,,,,,,,,,,,,,,,,,,,,,,,,,,,,,,,,,,,,,,,,,,,,,,,,,,,,,,,
,,,,,,,,,,stimuli/images/PICTURE_491.png,GLASS,5b9f7e3d00815d00010323f6,30/06/1995,2020-09-02_12h29.41.515,proactive3.2,2020.1.2,Win32,60,5f47c0b9b035471e11593a5c,5f4f819c5e8dec040402bf23,5,,,,,,rug,,,,,,0,33,33,14,1,2,1,,,,,,,,,,,,,,,,,,,,,,,,,,,,,,,,,,,,,,,,,,,,,,,,,,,,,,,,,,,,,,,,,,,,,,,,,,,
,,,,,,,,,,stimuli/images/PICTURE_33.png,FRIEND,5b9f7e3d00815d00010323f6,30/06/1995,2020-09-02_12h29.41.515,proactive3.2,2020.1.2,Win32,60,5f47c0b9b035471e11593a5c,5f4f819c5e8dec040402bf23,5,,,,,,frame,,,,,,0,34,34,8,1,1,1,,,,,,,,,,,,,,,,,,,,,,,,,,,,,,,,,,,,,,,,,,,,,,,,,,,,,,,,,,,,,,,,,,,,,,,,,,,
,,,,,,,,,,stimuli/images/PICTURE_491.png,RIVER,5b9f7e3d00815d00010323f6,30/06/1995,2020-09-02_12h29.41.515,proactive3.2,2020.1.2,Win32,60,5f47c0b9b035471e11593a5c,5f4f819c5e8dec040402bf23,5,,,,,,rug,,,,,,0,35,35,6,1,1,1,,,,,,,,,,,,,,,,,,,,,,,,,,,,,,,,,,,,,,,,,,,,,,,,,,,,,,,,,,,,,,,,,,,,,,,,,,,
,,,,,,,,,,stimuli/images/PICTURE_32.png,KIND,5b9f7e3d00815d00010323f6,30/06/1995,2020-09-02_12h29.41.515,proactive3.2,2020.1.2,Win32,60,5f47c0b9b035471e11593a5c,5f4f819c5e8dec040402bf23,5,,,,,,crown,,,,,,0,36,36,35,1,4,1,,,,,,,,,,,,,,,,,,,,,,,,,,,,,,,,,,,,,,,,,,,,,,,,,,,,,,,,,,,,,,,,,,,,,,,,,,,
,,,,,,,,,,stimuli/images/PICTURE_380.png,CANDY,5b9f7e3d00815d00010323f6,30/06/1995,2020-09-02_12h29.41.515,proactive3.2,2020.1.2,Win32,60,5f47c0b9b035471e11593a5c,5f4f819c5e8dec040402bf23,5,,,,,,gorilla,,,,,,0,37,37,0,1,1,1,,,,,,,,,,,,,,,,,,,,,,,,,,,,,,,,,,,,,,,,,,,,,,,,,,,,,,,,,,,,,,,,,,,,,,,,,,,
,,,,,,,,,,stimuli/images/PICTURE_285.png,LIFE,5b9f7e3d00815d00010323f6,30/06/1995,2020-09-02_12h29.41.515,proactive3.2,2020.1.2,Win32,60,5f47c0b9b035471e11593a5c,5f4f819c5e8dec040402bf23,5,,,,,,carrot,,,,,,0,38,38,33,1,4,1,,,,,,,,,,,,,,,,,,,,,,,,,,,,,,,,,,,,,,,,,,,,,,,,,,,,,,,,,,,,,,,,,,,,,,,,,,,
,,,,,,,,,,stimuli/images/PICTURE_487.png,GIRL,5b9f7e3d00815d00010323f6,30/06/1995,2020-09-02_12h29.41.515,proactive3.2,2020.1.2,Win32,60,5f47c0b9b035471e11593a5c,5f4f819c5e8dec040402bf23,5,,,,,,basket,,,,,,0,39,39,45,1,5,1,,,,,,,,,,,,,,,,,,,,,,,,,,,,,,,,,,,,,,,,,,,,,,,,,,,,,,,,,,,,,,,,,,,,,,,,,,,
,,,,,,,,,,stimuli/images/PICTURE_85.png,TOILET,5b9f7e3d00815d00010323f6,30/06/1995,2020-09-02_12h29.41.515,proactive3.2,2020.1.2,Win32,60,5f47c0b9b035471e11593a5c,5f4f819c5e8dec040402bf23,5,,,,,,diamond,,,,,,0,40,40,48,1,5,1,,,,,,,,,,,,,,,,,,,,,,,,,,,,,,,,,,,,,,,,,,,,,,,,,,,,,,,,,,,,,,,,,,,,,,,,,,,
,,,,,,,,,,stimuli/images/PICTURE_85.png,NATION,5b9f7e3d00815d00010323f6,30/06/1995,2020-09-02_12h29.41.515,proactive3.2,2020.1.2,Win32,60,5f47c0b9b035471e11593a5c,5f4f819c5e8dec040402bf23,5,,,,,,diamond,,,,,,0,41,41,5,1,1,1,,,,,,,,,,,,,,,,,,,,,,,,,,,,,,,,,,,,,,,,,,,,,,,,,,,,,,,,,,,,,,,,,,,,,,,,,,,
,,,,,,,,,,stimuli/images/PICTURE_655.png,TOILET,5b9f7e3d00815d00010323f6,30/06/1995,2020-09-02_12h29.41.515,proactive3.2,2020.1.2,Win32,60,5f47c0b9b035471e11593a5c,5f4f819c5e8dec040402bf23,5,,,,,,megaphone,,,,,,0,42,42,12,1,2,1,,,,,,,,,,,,,,,,,,,,,,,,,,,,,,,,,,,,,,,,,,,,,,,,,,,,,,,,,,,,,,,,,,,,,,,,,,,
,,,,,,,,,,stimuli/images/PICTURE_504.png,ARTIST,5b9f7e3d00815d00010323f6,30/06/1995,2020-09-02_12h29.41.515,proactive3.2,2020.1.2,Win32,60,5f47c0b9b035471e11593a5c,5f4f819c5e8dec040402bf23,5,,,,,,wheel,,,,,,0,43,43,49,1,5,1,,,,,,,,,,,,,,,,,,,,,,,,,,,,,,,,,,,,,,,,,,,,,,,,,,,,,,,,,,,,,,,,,,,,,,,,,,,
,,,,,,,,,,stimuli/images/PICTURE_405.png,YEAR,5b9f7e3d00815d00010323f6,30/06/1995,2020-09-02_12h29.41.515,proactive3.2,2020.1.2,Win32,60,5f47c0b9b035471e11593a5c,5f4f819c5e8dec040402bf23,5,,,,,,anchor,,,,,,0,44,44,34,1,4,1,,,,,,,,,,,,,,,,,,,,,,,,,,,,,,,,,,,,,,,,,,,,,,,,,,,,,,,,,,,,,,,,,,,,,,,,,,,
,,,,,,,,,,stimuli/images/PICTURE_203.png,GODS,5b9f7e3d00815d00010323f6,30/06/1995,2020-09-02_12h29.41.515,proactive3.2,2020.1.2,Win32,60,5f47c0b9b035471e11593a5c,5f4f819c5e8dec040402bf23,5,,,,,,cap,,,,,,0,45,45,30,1,4,1,,,,,,,,,,,,,,,,,,,,,,,,,,,,,,,,,,,,,,,,,,,,,,,,,,,,,,,,,,,,,,,,,,,,,,,,,,,
,,,,,,,,,,stimuli/images/PICTURE_403.png,RIVER,5b9f7e3d00815d00010323f6,30/06/1995,2020-09-02_12h29.41.515,proactive3.2,2020.1.2,Win32,60,5f47c0b9b035471e11593a5c,5f4f819c5e8dec040402bf23,5,,,,,,cathedral,,,,,,0,46,46,40,1,5,1,,,,,,,,,,,,,,,,,,,,,,,,,,,,,,,,,,,,,,,,,,,,,,,,,,,,,,,,,,,,,,,,,,,,,,,,,,,
,,,,,,,,,,stimuli/images/PICTURE_667.png,RIVER,5b9f7e3d00815d00010323f6,30/06/1995,2020-09-02_12h29.41.515,proactive3.2,2020.1.2,Win32,60,5f47c0b9b035471e11593a5c,5f4f819c5e8dec040402bf23,5,,,,,,daisy,,,,,,0,47,47,10,1,2,1,,,,,,,,,,,,,,,,,,,,,,,,,,,,,,,,,,,,,,,,,,,,,,,,,,,,,,,,,,,,,,,,,,,,,,,,,,,
,,,,,,,,,,stimuli/images/PICTURE_708.png,RECORD,5b9f7e3d00815d00010323f6,30/06/1995,2020-09-02_12h29.41.515,proactive3.2,2020.1.2,Win32,60,5f47c0b9b035471e11593a5c,5f4f819c5e8dec040402bf23,5,,,,,,monkey,,,,,,0,48,48,58,1,6,1,,,,,,,,,,,,,,,,,,,,,,,,,,,,,,,,,,,,,,,,,,,,,,,,,,,,,,,,,,,,,,,,,,,,,,,,,,,
,,,,,,,,,,stimuli/images/PICTURE_297.png,RIVER,5b9f7e3d00815d00010323f6,30/06/1995,2020-09-02_12h29.41.515,proactive3.2,2020.1.2,Win32,60,5f47c0b9b035471e11593a5c,5f4f819c5e8dec040402bf23,5,,,,,,aeroplane,,,,,,0,49,49,39,1,4,1,,,,,,,,,,,,,,,,,,,,,,,,,,,,,,,,,,,,,,,,,,,,,,,,,,,,,,,,,,,,,,,,,,,,,,,,,,,
,,,,,,,,,,stimuli/images/PICTURE_340.png,VALLEY,5b9f7e3d00815d00010323f6,30/06/1995,2020-09-02_12h29.41.515,proactive3.2,2020.1.2,Win32,60,5f47c0b9b035471e11593a5c,5f4f819c5e8dec040402bf23,5,,,,,,mirror,,,,,,0,50,50,54,1,6,1,,,,,,,,,,,,,,,,,,,,,,,,,,,,,,,,,,,,,,,,,,,,,,,,,,,,,,,,,,,,,,,,,,,,,,,,,,,
,,,,,,,,,,stimuli/images/PICTURE_2.png,FLIGHT,5b9f7e3d00815d00010323f6,30/06/1995,2020-09-02_12h29.41.515,proactive3.2,2020.1.2,Win32,60,5f47c0b9b035471e11593a5c,5f4f819c5e8dec040402bf23,5,,,,,,tyre,,,,,,0,51,51,15,1,2,1,,,,,,,,,,,,,,,,,,,,,,,,,,,,,,,,,,,,,,,,,,,,,,,,,,,,,,,,,,,,,,,,,,,,,,,,,,,
,,,,,,,,,,stimuli/images/PICTURE_750.png,HOTEL,5b9f7e3d00815d00010323f6,30/06/1995,2020-09-02_12h29.41.515,proactive3.2,2020.1.2,Win32,60,5f47c0b9b035471e11593a5c,5f4f819c5e8dec040402bf23,5,,,,,,kettle,,,,,,0,52,52,27,1,3,1,,,,,,,,,,,,,,,,,,,,,,,,,,,,,,,,,,,,,,,,,,,,,,,,,,,,,,,,,,,,,,,,,,,,,,,,,,,
,,,,,,,,,,stimuli/images/PICTURE_95.png,BOYS,5b9f7e3d00815d00010323f6,30/06/1995,2020-09-02_12h29.41.515,proactive3.2,2020.1.2,Win32,60,5f47c0b9b035471e11593a5c,5f4f819c5e8dec040402bf23,5,,,,,,suitcase,,,,,,0,53,53,1,1,1,1,,,,,,,,,,,,,,,,,,,,,,,,,,,,,,,,,,,,,,,,,,,,,,,,,,,,,,,,,,,,,,,,,,,,,,,,,,,
,,,,,,,,,,stimuli/images/PICTURE_296.png,LOTS,5b9f7e3d00815d00010323f6,30/06/1995,2020-09-02_12h29.41.515,proactive3.2,2020.1.2,Win32,60,5f47c0b9b035471e11593a5c,5f4f819c5e8dec040402bf23,5,,,,,,bolt,,,,,,0,54,54,9,1,1,1,,,,,,,,,,,,,,,,,,,,,,,,,,,,,,,,,,,,,,,,,,,,,,,,,,,,,,,,,,,,,,,,,,,,,,,,,,,
,,,,,,,,,,stimuli/images/PICTURE_449.png,DUDE,5b9f7e3d00815d00010323f6,30/06/1995,2020-09-02_12h29.41.515,proactive3.2,2020.1.2,Win32,60,5f47c0b9b035471e11593a5c,5f4f819c5e8dec040402bf23,5,,,,,,bench,,,,,,0,55,55,17,1,2,1,,,,,,,,,,,,,,,,,,,,,,,,,,,,,,,,,,,,,,,,,,,,,,,,,,,,,,,,,,,,,,,,,,,,,,,,,,,
,,,,,,,,,,stimuli/images/PICTURE_339.png,CLIENT,5b9f7e3d00815d00010323f6,30/06/1995,2020-09-02_12h29.41.515,proactive3.2,2020.1.2,Win32,60,5f47c0b9b035471e11593a5c,5f4f819c5e8dec040402bf23,5,,,,,,backpack,,,,,,0,56,56,11,1,2,1,,,,,,,,,,,,,,,,,,,,,,,,,,,,,,,,,,,,,,,,,,,,,,,,,,,,,,,,,,,,,,,,,,,,,,,,,,,
,,,,,,,,,,stimuli/images/PICTURE_405.png,PLENTY,5b9f7e3d00815d00010323f6,30/06/1995,2020-09-02_12h29.41.515,proactive3.2,2020.1.2,Win32,60,5f47c0b9b035471e11593a5c,5f4f819c5e8dec040402bf23,5,,,,,,anchor,,,,,,0,57,57,23,1,3,1,,,,,,,,,,,,,,,,,,,,,,,,,,,,,,,,,,,,,,,,,,,,,,,,,,,,,,,,,,,,,,,,,,,,,,,,,,,
,,,,,,,,,,stimuli/images/PICTURE_380.png,HONEY,5b9f7e3d00815d00010323f6,30/06/1995,2020-09-02_12h29.41.515,proactive3.2,2020.1.2,Win32,60,5f47c0b9b035471e11593a5c,5f4f819c5e8dec040402bf23,5,,,,,,gorilla,,,,,,0,58,58,19,1,2,1,,,,,,,,,,,,,,,,,,,,,,,,,,,,,,,,,,,,,,,,,,,,,,,,,,,,,,,,,,,,,,,,,,,,,,,,,,,
,,?,7.158155,0,,,,,,stimuli/images/PICTURE_85.png,TOILET,5b9f7e3d00815d00010323f6,30/06/1995,2020-09-02_12h29.41.515,proactive3.2,2020.1.2,Win32,60,5f47c0b9b035471e11593a5c,5f4f819c5e8dec040402bf23,5,,,,,,diamond,,,,,,,,,,,5,1,0,0,0,48,1,,,,,,,,,,,,,,,,,,,,,,,,,,,,,,,,,,,,,,,,,,,,,,,,,,,,,,,,,,,,,,,,,,,,,,
,,?,0.00162,0,,,,,,stimuli/images/PICTURE_203.png,NIGHT,5b9f7e3d00815d00010323f6,30/06/1995,2020-09-02_12h29.41.515,proactive3.2,2020.1.2,Win32,60,5f47c0b9b035471e11593a5c,5f4f819c5e8dec040402bf23,5,,,,,,cap,,,,,,,,,,,1,1,0,1,1,2,1,,,,,,,,,,,,,,,,,,,,,,,,,,,,,,,,,,,,,,,,,,,,,,,,,,,,,,,,,,,,,,,,,,,,,,
,,?,0.001325,0,,,,,,stimuli/images/PICTURE_68.png,MILE,5b9f7e3d00815d00010323f6,30/06/1995,2020-09-02_12h29.41.515,proactive3.2,2020.1.2,Win32,60,5f47c0b9b035471e11593a5c,5f4f819c5e8dec040402bf23,5,,,,,,candle,,,,,,,,,,,6,1,0,2,2,51,1,,,,,,,,,,,,,,,,,,,,,,,,,,,,,,,,,,,,,,,,,,,,,,,,,,,,,,,,,,,,,,,,,,,,,,
,,?,0.00126,0,,,,,,stimuli/images/PICTURE_339.png,CLIENT,5b9f7e3d00815d00010323f6,30/06/1995,2020-09-02_12h29.41.515,proactive3.2,2020.1.2,Win32,60,5f47c0b9b035471e11593a5c,5f4f819c5e8dec040402bf23,5,,,,,,backpack,,,,,,,,,,,2,1,0,3,3,11,1,,,,,,,,,,,,,,,,,,,,,,,,,,,,,,,,,,,,,,,,,,,,,,,,,,,,,,,,,,,,,,,,,,,,,,
,,?,0.00129,0,,,,,,stimuli/images/PICTURE_308.png,FAMILY,5b9f7e3d00815d00010323f6,30/06/1995,2020-09-02_12h29.41.515,proactive3.2,2020.1.2,Win32,60,5f47c0b9b035471e11593a5c,5f4f819c5e8dec040402bf23,5,,,,,,dice,,,,,,,,,,,4,1,0,4,4,36,1,,,,,,,,,,,,,,,,,,,,,,,,,,,,,,,,,,,,,,,,,,,,,,,,,,,,,,,,,,,,,,,,,,,,,,
,,?,0.00135,0,,,,,,stimuli/images/PICTURE_340.png,LETTER,5b9f7e3d00815d00010323f6,30/06/1995,2020-09-02_12h29.41.515,proactive3.2,2020.1.2,Win32,60,5f47c0b9b035471e11593a5c,5f4f819c5e8dec040402bf23,5,,,,,,mirror,,,,,,,,,,,3,1,0,5,5,24,1,,,,,,,,,,,,,,,,,,,,,,,,,,,,,,,,,,,,,,,,,,,,,,,,,,,,,,,,,,,,,,,,,,,,,,
,,?,0.001245,0,,,,,,stimuli/images/PICTURE_147.png,WOMEN,5b9f7e3d00815d00010323f6,30/06/1995,2020-09-02_12h29.41.515,proactive3.2,2020.1.2,Win32,60,5f47c0b9b035471e11593a5c,5f4f819c5e8dec040402bf23,5,,,,,,hanger,,,,,,,,,,,1,1,0,6,6,7,1,,,,,,,,,,,,,,,,,,,,,,,,,,,,,,,,,,,,,,,,,,,,,,,,,,,,,,,,,,,,,,,,,,,,,,
,,?,0.00123,0,,,,,,stimuli/images/PICTURE_296.png,LOTS,5b9f7e3d00815d00010323f6,30/06/1995,2020-09-02_12h29.41.515,proactive3.2,2020.1.2,Win32,60,5f47c0b9b035471e11593a5c,5f4f819c5e8dec040402bf23,5,,,,,,bolt,,,,,,,,,,,1,1,0,7,7,9,1,,,,,,,,,,,,,,,,,,,,,,,,,,,,,,,,,,,,,,,,,,,,,,,,,,,,,,,,,,,,,,,,,,,,,,
,,?,0.001255,0,,,,,,stimuli/images/PICTURE_654.png,MONTH,5b9f7e3d00815d00010323f6,30/06/1995,2020-09-02_12h29.41.515,proactive3.2,2020.1.2,Win32,60,5f47c0b9b035471e11593a5c,5f4f819c5e8dec040402bf23,5,,,,,,pencil,,,,,,,,,,,3,1,0,8,8,29,1,,,,,,,,,,,,,,,,,,,,,,,,,,,,,,,,,,,,,,,,,,,,,,,,,,,,,,,,,,,,,,,,,,,,,,
,,?,15.008505,0,,,,,,stimuli/images/PICTURE_233.png,LOTS,5b9f7e3d00815d00010323f6,30/06/1995,2020-09-02_12h29.41.515,proactive3.2,2020.1.2,Win32,60,5f47c0b9b035471e11593a5c,5f4f819c5e8dec040402bf23,5,,,,,,salt,,,,,,,,,,,5,1,0,9,9,42,1,,,,,,,,,,,,,,,,,,,,,,,,,,,,,,,,,,,,,,,,,,,,,,,,,,,,,,,,,,,,,,,,,,,,,,
,,?,0.002025,0,,,,,,stimuli/images/PICTURE_327.png,SERIES,5b9f7e3d00815d00010323f6,30/06/1995,2020-09-02_12h29.41.515,proactive3.2,2020.1.2,Win32,60,5f47c0b9b035471e11593a5c,5f4f819c5e8dec040402bf23,5,,,,,,helmet,,,,,,,,,,,1,1,0,10,10,3,1,,,,,,,,,,,,,,,,,,,,,,,,,,,,,,,,,,,,,,,,,,,,,,,,,,,,,,,,,,,,,,,,,,,,,,
,,?,0.001285,0,,,,,,stimuli/images/PICTURE_95.png,MILLER,5b9f7e3d00815d00010323f6,30/06/1995,2020-09-02_12h29.41.515,proactive3.2,2020.1.2,Win32,60,5f47c0b9b035471e11593a5c,5f4f819c5e8dec040402bf23,5,,,,,,suitcase,,,,,,,,,,,6,1,0,11,11,56,1,,,,,,,,,,,,,,,,,,,,,,,,,,,,,,,,,,,,,,,,,,,,,,,,,,,,,,,,,,,,,,,,,,,,,,
,,ARTIST,12.56224,1,,,,,,stimuli/images/PICTURE_504.png,ARTIST,5b9f7e3d00815d00010323f6,30/06/1995,2020-09-02_12h29.41.515,proactive3.2,2020.1.2,Win32,60,5f47c0b9b035471e11593a5c,5f4f819c5e8dec040402bf23,5,,,,,,wheel,,,,,,,,,,,5,1,0,12,12,49,1,,,,,,,,,,,,,,,,,,,,,,,,,,,,,,,,,,,,,,,,,,,,,,,,,,,,,,,,,,,,,,,,,,,,,,
,,?,0.002675,0,,,,,,stimuli/images/PICTURE_340.png,VALLEY,5b9f7e3d00815d00010323f6,30/06/1995,2020-09-02_12h29.41.515,proactive3.2,2020.1.2,Win32,60,5f47c0b9b035471e11593a5c,5f4f819c5e8dec040402bf23,5,,,,,,mirror,,,,,,,,,,,6,1,0,13,13,54,1,,,,,,,,,,,,,,,,,,,,,,,,,,,,,,,,,,,,,,,,,,,,,,,,,,,,,,,,,,,,,,,,,,,,,,
,,?,0.001385,0,,,,,,stimuli/images/PICTURE_296.png,LIFE,5b9f7e3d00815d00010323f6,30/06/1995,2020-09-02_12h29.41.515,proactive3.2,2020.1.2,Win32,60,5f47c0b9b035471e11593a5c,5f4f819c5e8dec040402bf23,5,,,,,,bolt,,,,,,,,,,,6,1,0,14,14,57,1,,,,,,,,,,,,,,,,,,,,,,,,,,,,,,,,,,,,,,,,,,,,,,,,,,,,,,,,,,,,,,,,,,,,,,
,,?,0.001295,0,,,,,,stimuli/images/PICTURE_108.png,POLICY,5b9f7e3d00815d00010323f6,30/06/1995,2020-09-02_12h29.41.515,proactive3.2,2020.1.2,Win32,60,5f47c0b9b035471e11593a5c,5f4f819c5e8dec040402bf23,5,,,,,,calendar,,,,,,,,,,,3,1,0,15,15,22,1,,,,,,,,,,,,,,,,,,,,,,,,,,,,,,,,,,,,,,,,,,,,,,,,,,,,,,,,,,,,,,,,,,,,,,
,,?,0.001625,0,,,,,,stimuli/images/PICTURE_469.png,AGENT,5b9f7e3d00815d00010323f6,30/06/1995,2020-09-02_12h29.41.515,proactive3.2,2020.1.2,Win32,60,5f47c0b9b035471e11593a5c,5f4f819c5e8dec040402bf23,5,,,,,,stool,,,,,,,,,,,2,1,0,16,16,16,1,,,,,,,,,,,,,,,,,,,,,,,,,,,,,,,,,,,,,,,,,,,,,,,,,,,,,,,,,,,,,,,,,,,,,,
,,?,0.001335,0,,,,,,stimuli/images/PICTURE_203.png,GODS,5b9f7e3d00815d00010323f6,30/06/1995,2020-09-02_12h29.41.515,proactive3.2,2020.1.2,Win32,60,5f47c0b9b035471e11593a5c,5f4f819c5e8dec040402bf23,5,,,,,,cap,,,,,,,,,,,4,1,0,17,17,30,1,,,,,,,,,,,,,,,,,,,,,,,,,,,,,,,,,,,,,,,,,,,,,,,,,,,,,,,,,,,,,,,,,,,,,,
,,?,0.001255,0,,,,,,stimuli/images/PICTURE_467.png,POLICY,5b9f7e3d00815d00010323f6,30/06/1995,2020-09-02_12h29.41.515,proactive3.2,2020.1.2,Win32,60,5f47c0b9b035471e11593a5c,5f4f819c5e8dec040402bf23,5,,,,,,peg,,,,,,,,,,,6,1,0,18,18,53,1,,,,,,,,,,,,,,,,,,,,,,,,,,,,,,,,,,,,,,,,,,,,,,,,,,,,,,,,,,,,,,,,,,,,,,
,,?,0.0013,0,,,,,,stimuli/images/PICTURE_405.png,YEAR,5b9f7e3d00815d00010323f6,30/06/1995,2020-09-02_12h29.41.515,proactive3.2,2020.1.2,Win32,60,5f47c0b9b035471e11593a5c,5f4f819c5e8dec040402bf23,5,,,,,,anchor,,,,,,,,,,,4,1,0,19,19,34,1,,,,,,,,,,,,,,,,,,,,,,,,,,,,,,,,,,,,,,,,,,,,,,,,,,,,,,,,,,,,,,,,,,,,,,
,,?,0.001285,0,,,,,,stimuli/images/PICTURE_403.png,WRITER,5b9f7e3d00815d00010323f6,30/06/1995,2020-09-02_12h29.41.515,proactive3.2,2020.1.2,Win32,60,5f47c0b9b035471e11593a5c,5f4f819c5e8dec040402bf23,5,,,,,,cathedral,,,,,,,,,,,4,1,0,20,20,31,1,,,,,,,,,,,,,,,,,,,,,,,,,,,,,,,,,,,,,,,,,,,,,,,,,,,,,,,,,,,,,,,,,,,,,,
,,?,0.001305,0,,,,,,stimuli/images/PICTURE_504.png,COPS,5b9f7e3d00815d00010323f6,30/06/1995,2020-09-02_12h29.41.515,proactive3.2,2020.1.2,Win32,60,5f47c0b9b035471e11593a5c,5f4f819c5e8dec040402bf23,5,,,,,,wheel,,,,,,,,,,,6,1,0,21,21,52,1,,,,,,,,,,,,,,,,,,,,,,,,,,,,,,,,,,,,,,,,,,,,,,,,,,,,,,,,,,,,,,,,,,,,,,
,,?,0.001545,0,,,,,,stimuli/images/PICTURE_380.png,CANDY,5b9f7e3d00815d00010323f6,30/06/1995,2020-09-02_12h29.41.515,proactive3.2,2020.1.2,Win32,60,5f47c0b9b035471e11593a5c,5f4f819c5e8dec040402bf23,5,,,,,,gorilla,,,,,,,,,,,1,1,0,22,22,0,1,,,,,,,,,,,,,,,,,,,,,,,,,,,,,,,,,,,,,,,,,,,,,,,,,,,,,,,,,,,,,,,,,,,,,,
,,?,0.00134,0,,,,,,stimuli/images/PICTURE_2.png,FLIGHT,5b9f7e3d00815d00010323f6,30/06/1995,2020-09-02_12h29.41.515,proactive3.2,2020.1.2,Win32,60,5f47c0b9b035471e11593a5c,5f4f819c5e8dec040402bf23,5,,,,,,tyre,,,,,,,,,,,2,1,0,23,23,15,1,,,,,,,,,,,,,,,,,,,,,,,,,,,,,,,,,,,,,,,,,,,,,,,,,,,,,,,,,,,,,,,,,,,,,,
,,?,4.60987,0,,,,,,stimuli/images/PICTURE_383.png,SERIES,5b9f7e3d00815d00010323f6,30/06/1995,2020-09-02_12h29.41.515,proactive3.2,2020.1.2,Win32,60,5f47c0b9b035471e11593a5c,5f4f819c5e8dec040402bf23,5,,,,,,coin,,,,,,,,,,,5,1,0,24,24,46,1,,,,,,,,,,,,,,,,,,,,,,,,,,,,,,,,,,,,,,,,,,,,,,,,,,,,,,,,,,,,,,,,,,,,,,
,,?,0.002585,0,,,,,,stimuli/images/PICTURE_108.png,FLIGHT,5b9f7e3d00815d00010323f6,30/06/1995,2020-09-02_12h29.41.515,proactive3.2,2020.1.2,Win32,60,5f47c0b9b035471e11593a5c,5f4f819c5e8dec040402bf23,5,,,,,,calendar,,,,,,,,,,,6,1,0,25,25,59,1,,,,,,,,,,,,,,,,,,,,,,,,,,,,,,,,,,,,,,,,,,,,,,,,,,,,,,,,,,,,,,,,,,,,,,
,,RIVER,3.32739,1,,,,,,stimuli/images/PICTURE_403.png,RIVER,5b9f7e3d00815d00010323f6,30/06/1995,2020-09-02_12h29.41.515,proactive3.2,2020.1.2,Win32,60,5f47c0b9b035471e11593a5c,5f4f819c5e8dec040402bf23,5,,,,,,cathedral,,,,,,,,,,,5,1,0,26,26,40,1,,,,,,,,,,,,,,,,,,,,,,,,,,,,,,,,,,,,,,,,,,,,,,,,,,,,,,,,,,,,,,,,,,,,,,
,,?,0.002575,0,,,,,,stimuli/images/PICTURE_380.png,HONEY,5b9f7e3d00815d00010323f6,30/06/1995,2020-09-02_12h29.41.515,proactive3.2,2020.1.2,Win32,60,5f47c0b9b035471e11593a5c,5f4f819c5e8dec040402bf23,5,,,,,,gorilla,,,,,,,,,,,2,1,0,27,27,19,1,,,,,,,,,,,,,,,,,,,,,,,,,,,,,,,,,,,,,,,,,,,,,,,,,,,,,,,,,,,,,,,,,,,,,,
,,?,0.001395,0,,,,,,stimuli/images/PICTURE_297.png,RIVER,5b9f7e3d00815d00010323f6,30/06/1995,2020-09-02_12h29.41.515,proactive3.2,2020.1.2,Win32,60,5f47c0b9b035471e11593a5c,5f4f819c5e8dec040402bf23,5,,,,,,aeroplane,,,,,,,,,,,4,1,0,28,28,39,1,,,,,,,,,,,,,,,,,,,,,,,,,,,,,,,,,,,,,,,,,,,,,,,,,,,,,,,,,,,,,,,,,,,,,,
,,?,0.00134,0,,,,,,stimuli/images/PICTURE_750.png,HOTEL,5b9f7e3d00815d00010323f6,30/06/1995,2020-09-02_12h29.41.515,proactive3.2,2020.1.2,Win32,60,5f47c0b9b035471e11593a5c,5f4f819c5e8dec040402bf23,5,,,,,,kettle,,,,,,,,,,,3,1,0,29,29,27,1,,,,,,,,,,,,,,,,,,,,,,,,,,,,,,,,,,,,,,,,,,,,,,,,,,,,,,,,,,,,,,,,,,,,,,
,,?,0.001335,0,,,,,,stimuli/images/PICTURE_383.png,WRITER,5b9f7e3d00815d00010323f6,30/06/1995,2020-09-02_12h29.41.515,proactive3.2,2020.1.2,Win32,60,5f47c0b9b035471e11593a5c,5f4f819c5e8dec040402bf23,5,,,,,,coin,,,,,,,,,,,3,1,0,30,30,28,1,,,,,,,,,,,,,,,,,,,,,,,,,,,,,,,,,,,,,,,,,,,,,,,,,,,,,,,,,,,,,,,,,,,,,,
,,?,0.001785,0,,,,,,stimuli/images/PICTURE_95.png,BOYS,5b9f7e3d00815d00010323f6,30/06/1995,2020-09-02_12h29.41.515,proactive3.2,2020.1.2,Win32,60,5f47c0b9b035471e11593a5c,5f4f819c5e8dec040402bf23,5,,,,,,suitcase,,,,,,,,,,,1,1,0,31,31,1,1,,,,,,,,,,,,,,,,,,,,,,,,,,,,,,,,,,,,,,,,,,,,,,,,,,,,,,,,,,,,,,,,,,,,,,
,,?,3.78873,0,,,,,,stimuli/images/PICTURE_95.png,HONEY,5b9f7e3d00815d00010323f6,30/06/1995,2020-09-02_12h29.41.515,proactive3.2,2020.1.2,Win32,60,5f47c0b9b035471e11593a5c,5f4f819c5e8dec040402bf23,5,,,,,,suitcase,,,,,,,,,,,5,1,0,32,32,44,1,,,,,,,,,,,,,,,,,,,,,,,,,,,,,,,,,,,,,,,,,,,,,,,,,,,,,,,,,,,,,,,,,,,,,,
,,?,0.001645,0,,,,,,stimuli/images/PICTURE_403.png,TOILET,5b9f7e3d00815d00010323f6,30/06/1995,2020-09-02_12h29.41.515,proactive3.2,2020.1.2,Win32,60,5f47c0b9b035471e11593a5c,5f4f819c5e8dec040402bf23,5,,,,,,cathedral,,,,,,,,,,,3,1,0,33,33,25,1,,,,,,,,,,,,,,,,,,,,,,,,,,,,,,,,,,,,,,,,,,,,,,,,,,,,,,,,,,,,,,,,,,,,,,
,,?,0.001315,0,,,,,,stimuli/images/PICTURE_68.png,ROOF,5b9f7e3d00815d00010323f6,30/06/1995,2020-09-02_12h29.41.515,proactive3.2,2020.1.2,Win32,60,5f47c0b9b035471e11593a5c,5f4f819c5e8dec040402bf23,5,,,,,,candle,,,,,,,,,,,4,1,0,34,34,38,1,,,,,,,,,,,,,,,,,,,,,,,,,,,,,,,,,,,,,,,,,,,,,,,,,,,,,,,,,,,,,,,,,,,,,,
,,?,0.00475,0,,,,,,stimuli/images/PICTURE_57.png,MOMENT,5b9f7e3d00815d00010323f6,30/06/1995,2020-09-02_12h29.41.515,proactive3.2,2020.1.2,Win32,60,5f47c0b9b035471e11593a5c,5f4f819c5e8dec040402bf23,5,,,,,,stamp,,,,,,,,,,,4,1,0,35,35,37,1,,,,,,,,,,,,,,,,,,,,,,,,,,,,,,,,,,,,,,,,,,,,,,,,,,,,,,,,,,,,,,,,,,,,,,
,,?,0.001555,0,,,,,,stimuli/images/PICTURE_744.png,WEAPON,5b9f7e3d00815d00010323f6,30/06/1995,2020-09-02_12h29.41.515,proactive3.2,2020.1.2,Win32,60,5f47c0b9b035471e11593a5c,5f4f819c5e8dec040402bf23,5,,,,,,ring,,,,,,,,,,,6,1,0,36,36,50,1,,,,,,,,,,,,,,,,,,,,,,,,,,,,,,,,,,,,,,,,,,,,,,,,,,,,,,,,,,,,,,,,,,,,,,
,,?,0.00133,0,,,,,,stimuli/images/PICTURE_327.png,CASINO,5b9f7e3d00815d00010323f6,30/06/1995,2020-09-02_12h29.41.515,proactive3.2,2020.1.2,Win32,60,5f47c0b9b035471e11593a5c,5f4f819c5e8dec040402bf23,5,,,,,,helmet,,,,,,,,,,,3,1,0,37,37,20,1,,,,,,,,,,,,,,,,,,,,,,,,,,,,,,,,,,,,,,,,,,,,,,,,,,,,,,,,,,,,,,,,,,,,,,
,,?,0.00134,0,,,,,,stimuli/images/PICTURE_405.png,PLENTY,5b9f7e3d00815d00010323f6,30/06/1995,2020-09-02_12h29.41.515,proactive3.2,2020.1.2,Win32,60,5f47c0b9b035471e11593a5c,5f4f819c5e8dec040402bf23,5,,,,,,anchor,,,,,,,,,,,3,1,0,38,38,23,1,,,,,,,,,,,,,,,,,,,,,,,,,,,,,,,,,,,,,,,,,,,,,,,,,,,,,,,,,,,,,,,,,,,,,,
,,?,0.001315,0,,,,,,stimuli/images/PICTURE_685.png,PENNY,5b9f7e3d00815d00010323f6,30/06/1995,2020-09-02_12h29.41.515,proactive3.2,2020.1.2,Win32,60,5f47c0b9b035471e11593a5c,5f4f819c5e8dec040402bf23,5,,,,,,goose,,,,,,,,,,,1,1,0,39,39,4,1,,,,,,,,,,,,,,,,,,,,,,,,,,,,,,,,,,,,,,,,,,,,,,,,,,,,,,,,,,,,,,,,,,,,,,
,,?,0.001305,0,,,,,,stimuli/images/PICTURE_147.png,YEAR,5b9f7e3d00815d00010323f6,30/06/1995,2020-09-02_12h29.41.515,proactive3.2,2020.1.2,Win32,60,5f47c0b9b035471e11593a5c,5f4f819c5e8dec040402bf23,5,,,,,,hanger,,,,,,,,,,,3,1,0,40,40,21,1,,,,,,,,,,,,,,,,,,,,,,,,,,,,,,,,,,,,,,,,,,,,,,,,,,,,,,,,,,,,,,,,,,,,,,
,,?,0.00132,0,,,,,,stimuli/images/PICTURE_564.png,BATH,5b9f7e3d00815d00010323f6,30/06/1995,2020-09-02_12h29.41.515,proactive3.2,2020.1.2,Win32,60,5f47c0b9b035471e11593a5c,5f4f819c5e8dec040402bf23,5,,,,,,spoon,,,,,,,,,,,3,1,0,41,41,26,1,,,,,,,,,,,,,,,,,,,,,,,,,,,,,,,,,,,,,,,,,,,,,,,,,,,,,,,,,,,,,,,,,,,,,,
,,?,0.001435,0,,,,,,stimuli/images/PICTURE_285.png,LIFE,5b9f7e3d00815d00010323f6,30/06/1995,2020-09-02_12h29.41.515,proactive3.2,2020.1.2,Win32,60,5f47c0b9b035471e11593a5c,5f4f819c5e8dec040402bf23,5,,,,,,carrot,,,,,,,,,,,4,1,0,42,42,33,1,,,,,,,,,,,,,,,,,,,,,,,,,,,,,,,,,,,,,,,,,,,,,,,,,,,,,,,,,,,,,,,,,,,,,,
,,WRITER,6.87816,1,,,,,,stimuli/images/PICTURE_177.png,WRITER,5b9f7e3d00815d00010323f6,30/06/1995,2020-09-02_12h29.41.515,proactive3.2,2020.1.2,Win32,60,5f47c0b9b035471e11593a5c,5f4f819c5e8dec040402bf23,5,,,,,,mushroom,,,,,,,,,,,5,1,0,43,43,41,1,,,,,,,,,,,,,,,,,,,,,,,,,,,,,,,,,,,,,,,,,,,,,,,,,,,,,,,,,,,,,,,,,,,,,,
,,?,0.002625,0,,,,,,stimuli/images/PICTURE_708.png,RECORD,5b9f7e3d00815d00010323f6,30/06/1995,2020-09-02_12h29.41.515,proactive3.2,2020.1.2,Win32,60,5f47c0b9b035471e11593a5c,5f4f819c5e8dec040402bf23,5,,,,,,monkey,,,,,,,,,,,6,1,0,44,44,58,1,,,,,,,,,,,,,,,,,,,,,,,,,,,,,,,,,,,,,,,,,,,,,,,,,,,,,,,,,,,,,,,,,,,,,,
,,MAP,3.11199,0,,,,,,stimuli/images/PICTURE_677.png,APPLE,5b9f7e3d00815d00010323f6,30/06/1995,2020-09-02_12h29.41.515,proactive3.2,2020.1.2,Win32,60,5f47c0b9b035471e11593a5c,5f4f819c5e8dec040402bf23,5,,,,,,map,,,,,,,,,,,5,1,0,45,45,43,1,,,,,,,,,,,,,,,,,,,,,,,,,,,,,,,,,,,,,,,,,,,,,,,,,,,,,,,,,,,,,,,,,,,,,,
,,?,0.00227,0,,,,,,stimuli/images/PICTURE_491.png,RIVER,5b9f7e3d00815d00010323f6,30/06/1995,2020-09-02_12h29.41.515,proactive3.2,2020.1.2,Win32,60,5f47c0b9b035471e11593a5c,5f4f819c5e8dec040402bf23,5,,,,,,rug,,,,,,,,,,,1,1,0,46,46,6,1,,,,,,,,,,,,,,,,,,,,,,,,,,,,,,,,,,,,,,,,,,,,,,,,,,,,,,,,,,,,,,,,,,,,,,
,,?,0.001385,0,,,,,,stimuli/images/PICTURE_42.png,BOYS,5b9f7e3d00815d00010323f6,30/06/1995,2020-09-02_12h29.41.515,proactive3.2,2020.1.2,Win32,60,5f47c0b9b035471e11593a5c,5f4f819c5e8dec040402bf23,5,,,,,,pear,,,,,,,,,,,6,1,0,47,47,55,1,,,,,,,,,,,,,,,,,,,,,,,,,,,,,,,,,,,,,,,,,,,,,,,,,,,,,,,,,,,,,,,,,,,,,,
,,?,0.001355,0,,,,,,stimuli/images/PICTURE_85.png,NATION,5b9f7e3d00815d00010323f6,30/06/1995,2020-09-02_12h29.41.515,proactive3.2,2020.1.2,Win32,60,5f47c0b9b035471e11593a5c,5f4f819c5e8dec040402bf23,5,,,,,,diamond,,,,,,,,,,,1,1,0,48,48,5,1,,,,,,,,,,,,,,,,,,,,,,,,,,,,,,,,,,,,,,,,,,,,,,,,,,,,,,,,,,,,,,,,,,,,,,
,,?,0.001365,0,,,,,,stimuli/images/PICTURE_504.png,YEAR,5b9f7e3d00815d00010323f6,30/06/1995,2020-09-02_12h29.41.515,proactive3.2,2020.1.2,Win32,60,5f47c0b9b035471e11593a5c,5f4f819c5e8dec040402bf23,5,,,,,,wheel,,,,,,,,,,,2,1,0,49,49,13,1,,,,,,,,,,,,,,,,,,,,,,,,,,,,,,,,,,,,,,,,,,,,,,,,,,,,,,,,,,,,,,,,,,,,,,
,,?,0.00124,0,,,,,,stimuli/images/PICTURE_33.png,FRIEND,5b9f7e3d00815d00010323f6,30/06/1995,2020-09-02_12h29.41.515,proactive3.2,2020.1.2,Win32,60,5f47c0b9b035471e11593a5c,5f4f819c5e8dec040402bf23,5,,,,,,frame,,,,,,,,,,,1,1,0,50,50,8,1,,,,,,,,,,,,,,,,,,,,,,,,,,,,,,,,,,,,,,,,,,,,,,,,,,,,,,,,,,,,,,,,,,,,,,
,,?,9.06307,0,,,,,,stimuli/images/PICTURE_675.png,SALE,5b9f7e3d00815d00010323f6,30/06/1995,2020-09-02_12h29.41.515,proactive3.2,2020.1.2,Win32,60,5f47c0b9b035471e11593a5c,5f4f819c5e8dec040402bf23,5,,,,,,windmill,,,,,,,,,,,5,1,0,51,51,47,1,,,,,,,,,,,,,,,,,,,,,,,,,,,,,,,,,,,,,,,,,,,,,,,,,,,,,,,,,,,,,,,,,,,,,,
,,?,0.00215,0,,,,,,stimuli/images/PICTURE_32.png,PILLS,5b9f7e3d00815d00010323f6,30/06/1995,2020-09-02_12h29.41.515,proactive3.2,2020.1.2,Win32,60,5f47c0b9b035471e11593a5c,5f4f819c5e8dec040402bf23,5,,,,,,crown,,,,,,,,,,,2,1,0,52,52,18,1,,,,,,,,,,,,,,,,,,,,,,,,,,,,,,,,,,,,,,,,,,,,,,,,,,,,,,,,,,,,,,,,,,,,,,
,,?,0.001275,0,,,,,,stimuli/images/PICTURE_208.png,SYSTEM,5b9f7e3d00815d00010323f6,30/06/1995,2020-09-02_12h29.41.515,proactive3.2,2020.1.2,Win32,60,5f47c0b9b035471e11593a5c,5f4f819c5e8dec040402bf23,5,,,,,,microphone,,,,,,,,,,,4,1,0,53,53,32,1,,,,,,,,,,,,,,,,,,,,,,,,,,,,,,,,,,,,,,,,,,,,,,,,,,,,,,,,,,,,,,,,,,,,,,
,,?,0.003645,0,,,,,,stimuli/images/PICTURE_32.png,KIND,5b9f7e3d00815d00010323f6,30/06/1995,2020-09-02_12h29.41.515,proactive3.2,2020.1.2,Win32,60,5f47c0b9b035471e11593a5c,5f4f819c5e8dec040402bf23,5,,,,,,crown,,,,,,,,,,,4,1,0,54,54,35,1,,,,,,,,,,,,,,,,,,,,,,,,,,,,,,,,,,,,,,,,,,,,,,,,,,,,,,,,,,,,,,,,,,,,,,
,,?,0.00173,0,,,,,,stimuli/images/PICTURE_667.png,RIVER,5b9f7e3d00815d00010323f6,30/06/1995,2020-09-02_12h29.41.515,proactive3.2,2020.1.2,Win32,60,5f47c0b9b035471e11593a5c,5f4f819c5e8dec040402bf23,5,,,,,,daisy,,,,,,,,,,,2,1,0,55,55,10,1,,,,,,,,,,,,,,,,,,,,,,,,,,,,,,,,,,,,,,,,,,,,,,,,,,,,,,,,,,,,,,,,,,,,,,
,,?,0.00127,0,,,,,,stimuli/images/PICTURE_491.png,GLASS,5b9f7e3d00815d00010323f6,30/06/1995,2020-09-02_12h29.41.515,proactive3.2,2020.1.2,Win32,60,5f47c0b9b035471e11593a5c,5f4f819c5e8dec040402bf23,5,,,,,,rug,,,,,,,,,,,2,1,0,56,56,14,1,,,,,,,,,,,,,,,,,,,,,,,,,,,,,,,,,,,,,,,,,,,,,,,,,,,,,,,,,,,,,,,,,,,,,,
,,?,0.00125,0,,,,,,stimuli/images/PICTURE_655.png,TOILET,5b9f7e3d00815d00010323f6,30/06/1995,2020-09-02_12h29.41.515,proactive3.2,2020.1.2,Win32,60,5f47c0b9b035471e11593a5c,5f4f819c5e8dec040402bf23,5,,,,,,megaphone,,,,,,,,,,,2,1,0,57,57,12,1,,,,,,,,,,,,,,,,,,,,,,,,,,,,,,,,,,,,,,,,,,,,,,,,,,,,,,,,,,,,,,,,,,,,,,
,,GIRL,2.87623,1,,,,,,stimuli/images/PICTURE_487.png,GIRL,5b9f7e3d00815d00010323f6,30/06/1995,2020-09-02_12h29.41.515,proactive3.2,2020.1.2,Win32,60,5f47c0b9b035471e11593a5c,5f4f819c5e8dec040402bf23,5,,,,,,basket,,,,,,,,,,,5,1,0,58,58,45,1,,,,,,,,,,,,,,,,,,,,,,,,,,,,,,,,,,,,,,,,,,,,,,,,,,,,,,,,,,,,,,,,,,,,,,
,,?,0.002815,0,,,,,,stimuli/images/PICTURE_449.png,DUDE,5b9f7e3d00815d00010323f6,30/06/1995,2020-09-02_12h29.41.515,proactive3.2,2020.1.2,Win32,60,5f47c0b9b035471e11593a5c,5f4f819c5e8dec040402bf23,5,,,,,,bench,,,,,,,,,,,2,1,0,59,59,17,1,,,,,,,,,,,,,,,,,,,,,,,,,,,,,,,,,,,,,,,,,,,,,,,,,,,,,,,,,,,,,,,,,,,,,,
,,,,,,,,,,,,5b9f7e3d00815d00010323f6,30/06/1995,2020-09-02_12h29.41.515,proactive3.2,2020.1.2,Win32,60,5f47c0b9b035471e11593a5c,5f4f819c5e8dec040402bf23,5,,,,,,,,,,,,,,,,,,,,,,,,0,1,1,1,1,stimuli/learn-block2.csv,,,,,,,,,,,,,,,,,,,,,,,,,,,,,,,,,,,,,,,,,,,,,,,,,,,,,,,,,,,,,,,,
,,,,,,,,,,stimuli/images/PICTURE_147.png,LEADER,5b9f7e3d00815d00010323f6,30/06/1995,2020-09-02_12h29.41.515,proactive3.2,2020.1.2,Win32,60,5f47c0b9b035471e11593a5c,5f4f819c5e8dec040402bf23,5,,,,,,hanger,,,,,,0,0,0,33,1,4,2,,,,,,,,,,,,,,,,,,,,,,,,,,,,,,,,,,,,,,,,,,,,,,,,,,,,,,,,,,,,,,,,,,,,,,,,,,,
,,,,,,,,,,stimuli/images/PICTURE_285.png,WRITER,5b9f7e3d00815d00010323f6,30/06/1995,2020-09-02_12h29.41.515,proactive3.2,2020.1.2,Win32,60,5f47c0b9b035471e11593a5c,5f4f819c5e8dec040402bf23,5,,,,,,carrot,,,,,,0,1,1,6,1,1,2,,,,,,,,,,,,,,,,,,,,,,,,,,,,,,,,,,,,,,,,,,,,,,,,,,,,,,,,,,,,,,,,,,,,,,,,,,,
,,,,,,,,,,stimuli/images/PICTURE_296.png,CLOCK,5b9f7e3d00815d00010323f6,30/06/1995,2020-09-02_12h29.41.515,proactive3.2,2020.1.2,Win32,60,5f47c0b9b035471e11593a5c,5f4f819c5e8dec040402bf23,5,,,,,,bolt,,,,,,0,2,2,18,1,2,2,,,,,,,,,,,,,,,,,,,,,,,,,,,,,,,,,,,,,,,,,,,,,,,,,,,,,,,,,,,,,,,,,,,,,,,,,,,
,,,,,,,,,,stimuli/images/PICTURE_348.png,DUDE,5b9f7e3d00815d00010323f6,30/06/1995,2020-09-02_12h29.41.515,proactive3.2,2020.1.2,Win32,60,5f47c0b9b035471e11593a5c,5f4f819c5e8dec040402bf23,5,,,,,,pepper,,,,,,0,3,3,59,1,6,2,,,,,,,,,,,,,,,,,,,,,,,,,,,,,,,,,,,,,,,,,,,,,,,,,,,,,,,,,,,,,,,,,,,,,,,,,,,
,,,,,,,,,,stimuli/images/PICTURE_453.png,FAMILY,5b9f7e3d00815d00010323f6,30/06/1995,2020-09-02_12h29.41.515,proactive3.2,2020.1.2,Win32,60,5f47c0b9b035471e11593a5c,5f4f819c5e8dec040402bf23,5,,,,,,scissors,,,,,,0,4,4,48,1,5,2,,,,,,,,,,,,,,,,,,,,,,,,,,,,,,,,,,,,,,,,,,,,,,,,,,,,,,,,,,,,,,,,,,,,,,,,,,,
,,,,,,,,,,stimuli/images/PICTURE_403.png,FAMILY,5b9f7e3d00815d00010323f6,30/06/1995,2020-09-02_12h29.41.515,proactive3.2,2020.1.2,Win32,60,5f47c0b9b035471e11593a5c,5f4f819c5e8dec040402bf23,5,,,,,,cathedral,,,,,,0,5,5,9,1,1,2,,,,,,,,,,,,,,,,,,,,,,,,,,,,,,,,,,,,,,,,,,,,,,,,,,,,,,,,,,,,,,,,,,,,,,,,,,,
,,,,,,,,,,stimuli/images/PICTURE_654.png,COPS,5b9f7e3d00815d00010323f6,30/06/1995,2020-09-02_12h29.41.515,proactive3.2,2020.1.2,Win32,60,5f47c0b9b035471e11593a5c,5f4f819c5e8dec040402bf23,5,,,,,,pencil,,,,,,0,6,6,10,1,2,2,,,,,,,,,,,,,,,,,,,,,,,,,,,,,,,,,,,,,,,,,,,,,,,,,,,,,,,,,,,,,,,,,,,,,,,,,,,
,,,,,,,,,,stimuli/images/PICTURE_677.png,PHOTO,5b9f7e3d00815d00010323f6,30/06/1995,2020-09-02_12h29.41.515,proactive3.2,2020.1.2,Win32,60,5f47c0b9b035471e11593a5c,5f4f819c5e8dec040402bf23,5,,,,,,map,,,,,,0,7,7,14,1,2,2,,,,,,,,,,,,,,,,,,,,,,,,,,,,,,,,,,,,,,,,,,,,,,,,,,,,,,,,,,,,,,,,,,,,,,,,,,,
,,,,,,,,,,stimuli/images/PICTURE_654.png,YEAR,5b9f7e3d00815d00010323f6,30/06/1995,2020-09-02_12h29.41.515,proactive3.2,2020.1.2,Win32,60,5f47c0b9b035471e11593a5c,5f4f819c5e8dec040402bf23,5,,,,,,pencil,,,,,,0,8,8,41,1,5,2,,,,,,,,,,,,,,,,,,,,,,,,,,,,,,,,,,,,,,,,,,,,,,,,,,,,,,,,,,,,,,,,,,,,,,,,,,,
,,,,,,,,,,stimuli/images/PICTURE_405.png,HOUSE,5b9f7e3d00815d00010323f6,30/06/1995,2020-09-02_12h29.41.515,proactive3.2,2020.1.2,Win32,60,5f47c0b9b035471e11593a5c,5f4f819c5e8dec040402bf23,5,,,,,,anchor,,,,,,0,9,9,2,1,1,2,,,,,,,,,,,,,,,,,,,,,,,,,,,,,,,,,,,,,,,,,,,,,,,,,,,,,,,,,,,,,,,,,,,,,,,,,,,
,,,,,,,,,,stimuli/images/PICTURE_255.png,PENNY,5b9f7e3d00815d00010323f6,30/06/1995,2020-09-02_12h29.41.515,proactive3.2,2020.1.2,Win32,60,5f47c0b9b035471e11593a5c,5f4f819c5e8dec040402bf23,5,,,,,,shovel,,,,,,0,10,10,19,1,2,2,,,,,,,,,,,,,,,,,,,,,,,,,,,,,,,,,,,,,,,,,,,,,,,,,,,,,,,,,,,,,,,,,,,,,,,,,,,
,,,,,,,,,,stimuli/images/PICTURE_356.png,CANDY,5b9f7e3d00815d00010323f6,30/06/1995,2020-09-02_12h29.41.515,proactive3.2,2020.1.2,Win32,60,5f47c0b9b035471e11593a5c,5f4f819c5e8dec040402bf23,5,,,,,,pawn,,,,,,0,11,11,46,1,5,2,,,,,,,,,,,,,,,,,,,,,,,,,,,,,,,,,,,,,,,,,,,,,,,,,,,,,,,,,,,,,,,,,,,,,,,,,,,
,,,,,,,,,,stimuli/images/PICTURE_95.png,NIGHT,5b9f7e3d00815d00010323f6,30/06/1995,2020-09-02_12h29.41.515,proactive3.2,2020.1.2,Win32,60,5f47c0b9b035471e11593a5c,5f4f819c5e8dec040402bf23,5,,,,,,suitcase,,,,,,0,12,12,37,1,4,2,,,,,,,,,,,,,,,,,,,,,,,,,,,,,,,,,,,,,,,,,,,,,,,,,,,,,,,,,,,,,,,,,,,,,,,,,,,
,,,,,,,,,,stimuli/images/PICTURE_708.png,VALLEY,5b9f7e3d00815d00010323f6,30/06/1995,2020-09-02_12h29.41.515,proactive3.2,2020.1.2,Win32,60,5f47c0b9b035471e11593a5c,5f4f819c5e8dec040402bf23,5,,,,,,monkey,,,,,,0,13,13,45,1,5,2,,,,,,,,,,,,,,,,,,,,,,,,,,,,,,,,,,,,,,,,,,,,,,,,,,,,,,,,,,,,,,,,,,,,,,,,,,,
,,,,,,,,,,stimuli/images/PICTURE_2.png,AREA,5b9f7e3d00815d00010323f6,30/06/1995,2020-09-02_12h29.41.515,proactive3.2,2020.1.2,Win32,60,5f47c0b9b035471e11593a5c,5f4f819c5e8dec040402bf23,5,,,,,,tyre,,,,,,0,14,14,32,1,4,2,,,,,,,,,,,,,,,,,,,,,,,,,,,,,,,,,,,,,,,,,,,,,,,,,,,,,,,,,,,,,,,,,,,,,,,,,,,
,,,,,,,,,,stimuli/images/PICTURE_470.png,BEAUTY,5b9f7e3d00815d00010323f6,30/06/1995,2020-09-02_12h29.41.515,proactive3.2,2020.1.2,Win32,60,5f47c0b9b035471e11593a5c,5f4f819c5e8dec040402bf23,5,,,,,,motorbike,,,,,,0,15,15,26,1,3,2,,,,,,,,,,,,,,,,,,,,,,,,,,,,,,,,,,,,,,,,,,,,,,,,,,,,,,,,,,,,,,,,,,,,,,,,,,,
,,,,,,,,,,stimuli/images/PICTURE_57.png,NATION,5b9f7e3d00815d00010323f6,30/06/1995,2020-09-02_12h29.41.515,proactive3.2,2020.1.2,Win32,60,5f47c0b9b035471e11593a5c,5f4f819c5e8dec040402bf23,5,,,,,,stamp,,,,,,0,16,16,21,1,3,2,,,,,,,,,,,,,,,,,,,,,,,,,,,,,,,,,,,,,,,,,,,,,,,,,,,,,,,,,,,,,,,,,,,,,,,,,,,
,,,,,,,,,,stimuli/images/PICTURE_123.png,SALE,5b9f7e3d00815d00010323f6,30/06/1995,2020-09-02_12h29.41.515,proactive3.2,2020.1.2,Win32,60,5f47c0b9b035471e11593a5c,5f4f819c5e8dec040402bf23,5,,,,,,dart,,,,,,0,17,17,8,1,1,2,,,,,,,,,,,,,,,,,,,,,,,,,,,,,,,,,,,,,,,,,,,,,,,,,,,,,,,,,,,,,,,,,,,,,,,,,,,
,,,,,,,,,,stimuli/images/PICTURE_68.png,KIND,5b9f7e3d00815d00010323f6,30/06/1995,2020-09-02_12h29.41.515,proactive3.2,2020.1.2,Win32,60,5f47c0b9b035471e11593a5c,5f4f819c5e8dec040402bf23,5,,,,,,candle,,,,,,0,18,18,23,1,3,2,,,,,,,,,,,,,,,,,,,,,,,,,,,,,,,,,,,,,,,,,,,,,,,,,,,,,,,,,,,,,,,,,,,,,,,,,,,
,,,,,,,,,,stimuli/images/PICTURE_405.png,JUNGLE,5b9f7e3d00815d00010323f6,30/06/1995,2020-09-02_12h29.41.515,proactive3.2,2020.1.2,Win32,60,5f47c0b9b035471e11593a5c,5f4f819c5e8dec040402bf23,5,,,,,,anchor,,,,,,0,19,19,58,1,6,2,,,,,,,,,,,,,,,,,,,,,,,,,,,,,,,,,,,,,,,,,,,,,,,,,,,,,,,,,,,,,,,,,,,,,,,,,,,
,,,,,,,,,,stimuli/images/PICTURE_2.png,JUNGLE,5b9f7e3d00815d00010323f6,30/06/1995,2020-09-02_12h29.41.515,proactive3.2,2020.1.2,Win32,60,5f47c0b9b035471e11593a5c,5f4f819c5e8dec040402bf23,5,,,,,,tyre,,,,,,0,20,20,1,1,1,2,,,,,,,,,,,,,,,,,,,,,,,,,,,,,,,,,,,,,,,,,,,,,,,,,,,,,,,,,,,,,,,,,,,,,,,,,,,
,,,,,,,,,,stimuli/images/PICTURE_452.png,COPS,5b9f7e3d00815d00010323f6,30/06/1995,2020-09-02_12h29.41.515,proactive3.2,2020.1.2,Win32,60,5f47c0b9b035471e11593a5c,5f4f819c5e8dec040402bf23,5,,,,,,watch,,,,,,0,21,21,0,1,1,2,,,,,,,,,,,,,,,,,,,,,,,,,,,,,,,,,,,,,,,,,,,,,,,,,,,,,,,,,,,,,,,,,,,,,,,,,,,
,,,,,,,,,,stimuli/images/PICTURE_215.png,LEADER,5b9f7e3d00815d00010323f6,30/06/1995,2020-09-02_12h29.41.515,proactive3.2,2020.1.2,Win32,60,5f47c0b9b035471e11593a5c,5f4f819c5e8dec040402bf23,5,,,,,,boot,,,,,,0,22,22,43,1,5,2,,,,,,,,,,,,,,,,,,,,,,,,,,,,,,,,,,,,,,,,,,,,,,,,,,,,,,,,,,,,,,,,,,,,,,,,,,,
,,,,,,,,,,stimuli/images/PICTURE_487.png,POLICY,5b9f7e3d00815d00010323f6,30/06/1995,2020-09-02_12h29.41.515,proactive3.2,2020.1.2,Win32,60,5f47c0b9b035471e11593a5c,5f4f819c5e8dec040402bf23,5,,,,,,basket,,,,,,0,23,23,34,1,4,2,,,,,,,,,,,,,,,,,,,,,,,,,,,,,,,,,,,,,,,,,,,,,,,,,,,,,,,,,,,,,,,,,,,,,,,,,,,
,,,,,,,,,,stimuli/images/PICTURE_314.png,SPEECH,5b9f7e3d00815d00010323f6,30/06/1995,2020-09-02_12h29.41.515,proactive3.2,2020.1.2,Win32,60,5f47c0b9b035471e11593a5c,5f4f819c5e8dec040402bf23,5,,,,,,perfume,,,,,,0,24,24,35,1,4,2,,,,,,,,,,,,,,,,,,,,,,,,,,,,,,,,,,,,,,,,,,,,,,,,,,,,,,,,,,,,,,,,,,,,,,,,,,,
,,,,,,,,,,stimuli/images/PICTURE_57.png,CANDY,5b9f7e3d00815d00010323f6,30/06/1995,2020-09-02_12h29.41.515,proactive3.2,2020.1.2,Win32,60,5f47c0b9b035471e11593a5c,5f4f819c5e8dec040402bf23,5,,,,,,stamp,,,,,,0,25,25,52,1,6,2,,,,,,,,,,,,,,,,,,,,,,,,,,,,,,,,,,,,,,,,,,,,,,,,,,,,,,,,,,,,,,,,,,,,,,,,,,,
,,,,,,,,,,stimuli/images/PICTURE_509.png,BATH,5b9f7e3d00815d00010323f6,30/06/1995,2020-09-02_12h29.41.515,proactive3.2,2020.1.2,Win32,60,5f47c0b9b035471e11593a5c,5f4f819c5e8dec040402bf23,5,,,,,,telephone,,,,,,0,26,26,15,1,2,2,,,,,,,,,,,,,,,,,,,,,,,,,,,,,,,,,,,,,,,,,,,,,,,,,,,,,,,,,,,,,,,,,,,,,,,,,,,
,,,,,,,,,,stimuli/images/PICTURE_327.png,LEADER,5b9f7e3d00815d00010323f6,30/06/1995,2020-09-02_12h29.41.515,proactive3.2,2020.1.2,Win32,60,5f47c0b9b035471e11593a5c,5f4f819c5e8dec040402bf23,5,,,,,,helmet,,,,,,0,27,27,17,1,2,2,,,,,,,,,,,,,,,,,,,,,,,,,,,,,,,,,,,,,,,,,,,,,,,,,,,,,,,,,,,,,,,,,,,,,,,,,,,
,,,,,,,,,,stimuli/images/PICTURE_160.png,HOTEL,5b9f7e3d00815d00010323f6,30/06/1995,2020-09-02_12h29.41.515,proactive3.2,2020.1.2,Win32,60,5f47c0b9b035471e11593a5c,5f4f819c5e8dec040402bf23,5,,,,,,wheelbarrow,,,,,,0,28,28,16,1,2,2,,,,,,,,,,,,,,,,,,,,,,,,,,,,,,,,,,,,,,,,,,,,,,,,,,,,,,,,,,,,,,,,,,,,,,,,,,,
,,,,,,,,,,stimuli/images/PICTURE_2.png,YARD,5b9f7e3d00815d00010323f6,30/06/1995,2020-09-02_12h29.41.515,proactive3.2,2020.1.2,Win32,60,5f47c0b9b035471e11593a5c,5f4f819c5e8dec040402bf23,5,,,,,,tyre,,,,,,0,29,29,55,1,6,2,,,,,,,,,,,,,,,,,,,,,,,,,,,,,,,,,,,,,,,,,,,,,,,,,,,,,,,,,,,,,,,,,,,,,,,,,,,
,,,,,,,,,,stimuli/images/PICTURE_688.png,CLOCK,5b9f7e3d00815d00010323f6,30/06/1995,2020-09-02_12h29.41.515,proactive3.2,2020.1.2,Win32,60,5f47c0b9b035471e11593a5c,5f4f819c5e8dec040402bf23,5,,,,,,runner,,,,,,0,30,30,42,1,5,2,,,,,,,,,,,,,,,,,,,,,,,,,,,,,,,,,,,,,,,,,,,,,,,,,,,,,,,,,,,,,,,,,,,,,,,,,,,
,,,,,,,,,,stimuli/images/PICTURE_93.png,GIRL,5b9f7e3d00815d00010323f6,30/06/1995,2020-09-02_12h29.41.515,proactive3.2,2020.1.2,Win32,60,5f47c0b9b035471e11593a5c,5f4f819c5e8dec040402bf23,5,,,,,,skateboard,,,,,,0,31,31,31,1,4,2,,,,,,,,,,,,,,,,,,,,,,,,,,,,,,,,,,,,,,,,,,,,,,,,,,,,,,,,,,,,,,,,,,,,,,,,,,,
,,,,,,,,,,stimuli/images/PICTURE_141.png,CLIENT,5b9f7e3d00815d00010323f6,30/06/1995,2020-09-02_12h29.41.515,proactive3.2,2020.1.2,Win32,60,5f47c0b9b035471e11593a5c,5f4f819c5e8dec040402bf23,5,,,,,,sunflower,,,,,,0,32,32,30,1,4,2,,,,,,,,,,,,,,,,,,,,,,,,,,,,,,,,,,,,,,,,,,,,,,,,,,,,,,,,,,,,,,,,,,,,,,,,,,,
,,,,,,,,,,stimuli/images/PICTURE_311.png,FLESH,5b9f7e3d00815d00010323f6,30/06/1995,2020-09-02_12h29.41.515,proactive3.2,2020.1.2,Win32,60,5f47c0b9b035471e11593a5c,5f4f819c5e8dec040402bf23,5,,,,,,razor,,,,,,0,33,33,3,1,1,2,,,,,,,,,,,,,,,,,,,,,,,,,,,,,,,,,,,,,,,,,,,,,,,,,,,,,,,,,,,,,,,,,,,,,,,,,,,
,,,,,,,,,,stimuli/images/PICTURE_509.png,APPLE,5b9f7e3d00815d00010323f6,30/06/1995,2020-09-02_12h29.41.515,proactive3.2,2020.1.2,Win32,60,5f47c0b9b035471e11593a5c,5f4f819c5e8dec040402bf23,5,,,,,,telephone,,,,,,0,34,34,38,1,4,2,,,,,,,,,,,,,,,,,,,,,,,,,,,,,,,,,,,,,,,,,,,,,,,,,,,,,,,,,,,,,,,,,,,,,,,,,,,
,,,,,,,,,,stimuli/images/PICTURE_32.png,LETTER,5b9f7e3d00815d00010323f6,30/06/1995,2020-09-02_12h29.41.515,proactive3.2,2020.1.2,Win32,60,5f47c0b9b035471e11593a5c,5f4f819c5e8dec040402bf23,5,,,,,,crown,,,,,,0,35,35,56,1,6,2,,,,,,,,,,,,,,,,,,,,,,,,,,,,,,,,,,,,,,,,,,,,,,,,,,,,,,,,,,,,,,,,,,,,,,,,,,,
,,,,,,,,,,stimuli/images/PICTURE_491.png,SERIES,5b9f7e3d00815d00010323f6,30/06/1995,2020-09-02_12h29.41.515,proactive3.2,2020.1.2,Win32,60,5f47c0b9b035471e11593a5c,5f4f819c5e8dec040402bf23,5,,,,,,rug,,,,,,0,36,36,39,1,4,2,,,,,,,,,,,,,,,,,,,,,,,,,,,,,,,,,,,,,,,,,,,,,,,,,,,,,,,,,,,,,,,,,,,,,,,,,,,
,,,,,,,,,,stimuli/images/PICTURE_667.png,GLASS,5b9f7e3d00815d00010323f6,30/06/1995,2020-09-02_12h29.41.515,proactive3.2,2020.1.2,Win32,60,5f47c0b9b035471e11593a5c,5f4f819c5e8dec040402bf23,5,,,,,,daisy,,,,,,0,37,37,27,1,3,2,,,,,,,,,,,,,,,,,,,,,,,,,,,,,,,,,,,,,,,,,,,,,,,,,,,,,,,,,,,,,,,,,,,,,,,,,,,
,,,,,,,,,,stimuli/images/PICTURE_208.png,SPIRIT,5b9f7e3d00815d00010323f6,30/06/1995,2020-09-02_12h29.41.515,proactive3.2,2020.1.2,Win32,60,5f47c0b9b035471e11593a5c,5f4f819c5e8dec040402bf23,5,,,,,,microphone,,,,,,0,38,38,28,1,3,2,,,,,,,,,,,,,,,,,,,,,,,,,,,,,,,,,,,,,,,,,,,,,,,,,,,,,,,,,,,,,,,,,,,,,,,,,,,
,,,,,,,,,,stimuli/images/PICTURE_470.png,MOMENT,5b9f7e3d00815d00010323f6,30/06/1995,2020-09-02_12h29.41.515,proactive3.2,2020.1.2,Win32,60,5f47c0b9b035471e11593a5c,5f4f819c5e8dec040402bf23,5,,,,,,motorbike,,,,,,0,39,39,40,1,5,2,,,,,,,,,,,,,,,,,,,,,,,,,,,,,,,,,,,,,,,,,,,,,,,,,,,,,,,,,,,,,,,,,,,,,,,,,,,
,,,,,,,,,,stimuli/images/PICTURE_18.png,RIVER,5b9f7e3d00815d00010323f6,30/06/1995,2020-09-02_12h29.41.515,proactive3.2,2020.1.2,Win32,60,5f47c0b9b035471e11593a5c,5f4f819c5e8dec040402bf23,5,,,,,,planet,,,,,,0,40,40,22,1,3,2,,,,,,,,,,,,,,,,,,,,,,,,,,,,,,,,,,,,,,,,,,,,,,,,,,,,,,,,,,,,,,,,,,,,,,,,,,,
,,,,,,,,,,stimuli/images/PICTURE_405.png,JUNGLE,5b9f7e3d00815d00010323f6,30/06/1995,2020-09-02_12h29.41.515,proactive3.2,2020.1.2,Win32,60,5f47c0b9b035471e11593a5c,5f4f819c5e8dec040402bf23,5,,,,,,anchor,,,,,,0,41,41,13,1,2,2,,,,,,,,,,,,,,,,,,,,,,,,,,,,,,,,,,,,,,,,,,,,,,,,,,,,,,,,,,,,,,,,,,,,,,,,,,,
,,,,,,,,,,stimuli/images/PICTURE_33.png,COPS,5b9f7e3d00815d00010323f6,30/06/1995,2020-09-02_12h29.41.515,proactive3.2,2020.1.2,Win32,60,5f47c0b9b035471e11593a5c,5f4f819c5e8dec040402bf23,5,,,,,,frame,,,,,,0,42,42,29,1,3,2,,,,,,,,,,,,,,,,,,,,,,,,,,,,,,,,,,,,,,,,,,,,,,,,,,,,,,,,,,,,,,,,,,,,,,,,,,,
,,,,,,,,,,stimuli/images/PICTURE_677.png,FAMILY,5b9f7e3d00815d00010323f6,30/06/1995,2020-09-02_12h29.41.515,proactive3.2,2020.1.2,Win32,60,5f47c0b9b035471e11593a5c,5f4f819c5e8dec040402bf23,5,,,,,,map,,,,,,0,43,43,53,1,6,2,,,,,,,,,,,,,,,,,,,,,,,,,,,,,,,,,,,,,,,,,,,,,,,,,,,,,,,,,,,,,,,,,,,,,,,,,,,
,,,,,,,,,,stimuli/images/PICTURE_504.png,HOUSE,5b9f7e3d00815d00010323f6,30/06/1995,2020-09-02_12h29.41.515,proactive3.2,2020.1.2,Win32,60,5f47c0b9b035471e11593a5c,5f4f819c5e8dec040402bf23,5,,,,,,wheel,,,,,,0,44,44,36,1,4,2,,,,,,,,,,,,,,,,,,,,,,,,,,,,,,,,,,,,,,,,,,,,,,,,,,,,,,,,,,,,,,,,,,,,,,,,,,,
,,,,,,,,,,stimuli/images/PICTURE_297.png,BODY,5b9f7e3d00815d00010323f6,30/06/1995,2020-09-02_12h29.41.515,proactive3.2,2020.1.2,Win32,60,5f47c0b9b035471e11593a5c,5f4f819c5e8dec040402bf23,5,,,,,,aeroplane,,,,,,0,45,45,51,1,6,2,,,,,,,,,,,,,,,,,,,,,,,,,,,,,,,,,,,,,,,,,,,,,,,,,,,,,,,,,,,,,,,,,,,,,,,,,,,
,,,,,,,,,,stimuli/images/PICTURE_57.png,CASINO,5b9f7e3d00815d00010323f6,30/06/1995,2020-09-02_12h29.41.515,proactive3.2,2020.1.2,Win32,60,5f47c0b9b035471e11593a5c,5f4f819c5e8dec040402bf23,5,,,,,,stamp,,,,,,0,46,46,12,1,2,2,,,,,,,,,,,,,,,,,,,,,,,,,,,,,,,,,,,,,,,,,,,,,,,,,,,,,,,,,,,,,,,,,,,,,,,,,,,
,,,,,,,,,,stimuli/images/PICTURE_348.png,TOILET,5b9f7e3d00815d00010323f6,30/06/1995,2020-09-02_12h29.41.515,proactive3.2,2020.1.2,Win32,60,5f47c0b9b035471e11593a5c,5f4f819c5e8dec040402bf23,5,,,,,,pepper,,,,,,0,47,47,4,1,1,2,,,,,,,,,,,,,,,,,,,,,,,,,,,,,,,,,,,,,,,,,,,,,,,,,,,,,,,,,,,,,,,,,,,,,,,,,,,
,,,,,,,,,,stimuli/images/PICTURE_692.png,DUDE,5b9f7e3d00815d00010323f6,30/06/1995,2020-09-02_12h29.41.515,proactive3.2,2020.1.2,Win32,60,5f47c0b9b035471e11593a5c,5f4f819c5e8dec040402bf23,5,,,,,,cherry,,,,,,0,48,48,47,1,5,2,,,,,,,,,,,,,,,,,,,,,,,,,,,,,,,,,,,,,,,,,,,,,,,,,,,,,,,,,,,,,,,,,,,,,,,,,,,
,,,,,,,,,,stimuli/images/PICTURE_311.png,TOILET,5b9f7e3d00815d00010323f6,30/06/1995,2020-09-02_12h29.41.515,proactive3.2,2020.1.2,Win32,60,5f47c0b9b035471e11593a5c,5f4f819c5e8dec040402bf23,5,,,,,,razor,,,,,,0,49,49,54,1,6,2,,,,,,,,,,,,,,,,,,,,,,,,,,,,,,,,,,,,,,,,,,,,,,,,,,,,,,,,,,,,,,,,,,,,,,,,,,,
,,,,,,,,,,stimuli/images/PICTURE_655.png,SALE,5b9f7e3d00815d00010323f6,30/06/1995,2020-09-02_12h29.41.515,proactive3.2,2020.1.2,Win32,60,5f47c0b9b035471e11593a5c,5f4f819c5e8dec040402bf23,5,,,,,,megaphone,,,,,,0,50,50,57,1,6,2,,,,,,,,,,,,,,,,,,,,,,,,,,,,,,,,,,,,,,,,,,,,,,,,,,,,,,,,,,,,,,,,,,,,,,,,,,,
,,,,,,,,,,stimuli/images/PICTURE_285.png,PRINCE,5b9f7e3d00815d00010323f6,30/06/1995,2020-09-02_12h29.41.515,proactive3.2,2020.1.2,Win32,60,5f47c0b9b035471e11593a5c,5f4f819c5e8dec040402bf23,5,,,,,,carrot,,,,,,0,51,51,20,1,3,2,,,,,,,,,,,,,,,,,,,,,,,,,,,,,,,,,,,,,,,,,,,,,,,,,,,,,,,,,,,,,,,,,,,,,,,,,,,
,,,,,,,,,,stimuli/images/PICTURE_215.png,FOOD,5b9f7e3d00815d00010323f6,30/06/1995,2020-09-02_12h29.41.515,proactive3.2,2020.1.2,Win32,60,5f47c0b9b035471e11593a5c,5f4f819c5e8dec040402bf23,5,,,,,,boot,,,,,,0,52,52,5,1,1,2,,,,,,,,,,,,,,,,,,,,,,,,,,,,,,,,,,,,,,,,,,,,,,,,,,,,,,,,,,,,,,,,,,,,,,,,,,,
,,,,,,,,,,stimuli/images/PICTURE_509.png,MILLER,5b9f7e3d00815d00010323f6,30/06/1995,2020-09-02_12h29.41.515,proactive3.2,2020.1.2,Win32,60,5f47c0b9b035471e11593a5c,5f4f819c5e8dec040402bf23,5,,,,,,telephone,,,,,,0,53,53,49,1,5,2,,,,,,,,,,,,,,,,,,,,,,,,,,,,,,,,,,,,,,,,,,,,,,,,,,,,,,,,,,,,,,,,,,,,,,,,,,,
,,,,,,,,,,stimuli/images/PICTURE_487.png,ROOF,5b9f7e3d00815d00010323f6,30/06/1995,2020-09-02_12h29.41.515,proactive3.2,2020.1.2,Win32,60,5f47c0b9b035471e11593a5c,5f4f819c5e8dec040402bf23,5,,,,,,basket,,,,,,0,54,54,50,1,6,2,,,,,,,,,,,,,,,,,,,,,,,,,,,,,,,,,,,,,,,,,,,,,,,,,,,,,,,,,,,,,,,,,,,,,,,,,,,
,,,,,,,,,,stimuli/images/PICTURE_177.png,HOUSE,5b9f7e3d00815d00010323f6,30/06/1995,2020-09-02_12h29.41.515,proactive3.2,2020.1.2,Win32,60,5f47c0b9b035471e11593a5c,5f4f819c5e8dec040402bf23,5,,,,,,mushroom,,,,,,0,55,55,25,1,3,2,,,,,,,,,,,,,,,,,,,,,,,,,,,,,,,,,,,,,,,,,,,,,,,,,,,,,,,,,,,,,,,,,,,,,,,,,,,
,,,,,,,,,,stimuli/images/PICTURE_509.png,SHOTS,5b9f7e3d00815d00010323f6,30/06/1995,2020-09-02_12h29.41.515,proactive3.2,2020.1.2,Win32,60,5f47c0b9b035471e11593a5c,5f4f819c5e8dec040402bf23,5,,,,,,telephone,,,,,,0,56,56,7,1,1,2,,,,,,,,,,,,,,,,,,,,,,,,,,,,,,,,,,,,,,,,,,,,,,,,,,,,,,,,,,,,,,,,,,,,,,,,,,,
,,,,,,,,,,stimuli/images/PICTURE_750.png,POLICY,5b9f7e3d00815d00010323f6,30/06/1995,2020-09-02_12h29.41.515,proactive3.2,2020.1.2,Win32,60,5f47c0b9b035471e11593a5c,5f4f819c5e8dec040402bf23,5,,,,,,kettle,,,,,,0,57,57,44,1,5,2,,,,,,,,,,,,,,,,,,,,,,,,,,,,,,,,,,,,,,,,,,,,,,,,,,,,,,,,,,,,,,,,,,,,,,,,,,,
,,,,,,,,,,stimuli/images/PICTURE_564.png,PLENTY,5b9f7e3d00815d00010323f6,30/06/1995,2020-09-02_12h29.41.515,proactive3.2,2020.1.2,Win32,60,5f47c0b9b035471e11593a5c,5f4f819c5e8dec040402bf23,5,,,,,,spoon,,,,,,0,58,58,11,1,2,2,,,,,,,,,,,,,,,,,,,,,,,,,,,,,,,,,,,,,,,,,,,,,,,,,,,,,,,,,,,,,,,,,,,,,,,,,,,
,,?,0.0017,0,,,,,,stimuli/images/PICTURE_654.png,COPS,5b9f7e3d00815d00010323f6,30/06/1995,2020-09-02_12h29.41.515,proactive3.2,2020.1.2,Win32,60,5f47c0b9b035471e11593a5c,5f4f819c5e8dec040402bf23,5,,,,,,pencil,,,,,,,,,,,2,2,0,0,0,10,1,,,,,,,,,,,,,,,,,,,,,,,,,,,,,,,,,,,,,,,,,,,,,,,,,,,,,,,,,,,,,,,,,,,,,,
,,?,0.00132,0,,,,,,stimuli/images/PICTURE_57.png,NATION,5b9f7e3d00815d00010323f6,30/06/1995,2020-09-02_12h29.41.515,proactive3.2,2020.1.2,Win32,60,5f47c0b9b035471e11593a5c,5f4f819c5e8dec040402bf23,5,,,,,,stamp,,,,,,,,,,,3,2,0,1,1,21,1,,,,,,,,,,,,,,,,,,,,,,,,,,,,,,,,,,,,,,,,,,,,,,,,,,,,,,,,,,,,,,,,,,,,,,
,,?,0.001335,0,,,,,,stimuli/images/PICTURE_18.png,RIVER,5b9f7e3d00815d00010323f6,30/06/1995,2020-09-02_12h29.41.515,proactive3.2,2020.1.2,Win32,60,5f47c0b9b035471e11593a5c,5f4f819c5e8dec040402bf23,5,,,,,,planet,,,,,,,,,,,3,2,0,2,2,22,1,,,,,,,,,,,,,,,,,,,,,,,,,,,,,,,,,,,,,,,,,,,,,,,,,,,,,,,,,,,,,,,,,,,,,,
,,?,0.00132,0,,,,,,stimuli/images/PICTURE_348.png,DUDE,5b9f7e3d00815d00010323f6,30/06/1995,2020-09-02_12h29.41.515,proactive3.2,2020.1.2,Win32,60,5f47c0b9b035471e11593a5c,5f4f819c5e8dec040402bf23,5,,,,,,pepper,,,,,,,,,,,6,2,0,3,3,59,1,,,,,,,,,,,,,,,,,,,,,,,,,,,,,,,,,,,,,,,,,,,,,,,,,,,,,,,,,,,,,,,,,,,,,,
,,?,0.00158,0,,,,,,stimuli/images/PICTURE_215.png,BOYS,5b9f7e3d00815d00010323f6,30/06/1995,2020-09-02_12h29.41.515,proactive3.2,2020.1.2,Win32,60,5f47c0b9b035471e11593a5c,5f4f819c5e8dec040402bf23,5,,,,,,boot,,,,,,,,,,,3,2,0,4,4,24,1,,,,,,,,,,,,,,,,,,,,,,,,,,,,,,,,,,,,,,,,,,,,,,,,,,,,,,,,,,,,,,,,,,,,,,
,,?,0.001365,0,,,,,,stimuli/images/PICTURE_509.png,BATH,5b9f7e3d00815d00010323f6,30/06/1995,2020-09-02_12h29.41.515,proactive3.2,2020.1.2,Win32,60,5f47c0b9b035471e11593a5c,5f4f819c5e8dec040402bf23,5,,,,,,telephone,,,,,,,,,,,2,2,0,5,5,15,1,,,,,,,,,,,,,,,,,,,,,,,,,,,,,,,,,,,,,,,,,,,,,,,,,,,,,,,,,,,,,,,,,,,,,,
,,?,0.001325,0,,,,,,stimuli/images/PICTURE_403.png,FAMILY,5b9f7e3d00815d00010323f6,30/06/1995,2020-09-02_12h29.41.515,proactive3.2,2020.1.2,Win32,60,5f47c0b9b035471e11593a5c,5f4f819c5e8dec040402bf23,5,,,,,,cathedral,,,,,,,,,,,1,2,0,6,6,9,1,,,,,,,,,,,,,,,,,,,,,,,,,,,,,,,,,,,,,,,,,,,,,,,,,,,,,,,,,,,,,,,,,,,,,,
,,?,0.001295,0,,,,,,stimuli/images/PICTURE_68.png,KIND,5b9f7e3d00815d00010323f6,30/06/1995,2020-09-02_12h29.41.515,proactive3.2,2020.1.2,Win32,60,5f47c0b9b035471e11593a5c,5f4f819c5e8dec040402bf23,5,,,,,,candle,,,,,,,,,,,3,2,0,7,7,23,1,,,,,,,,,,,,,,,,,,,,,,,,,,,,,,,,,,,,,,,,,,,,,,,,,,,,,,,,,,,,,,,,,,,,,,
,,?,0.00154,0,,,,,,stimuli/images/PICTURE_470.png,BEAUTY,5b9f7e3d00815d00010323f6,30/06/1995,2020-09-02_12h29.41.515,proactive3.2,2020.1.2,Win32,60,5f47c0b9b035471e11593a5c,5f4f819c5e8dec040402bf23,5,,,,,,motorbike,,,,,,,,,,,3,2,0,8,8,26,1,,,,,,,,,,,,,,,,,,,,,,,,,,,,,,,,,,,,,,,,,,,,,,,,,,,,,,,,,,,,,,,,,,,,,,
,,?,1.78336,0,,,,,,stimuli/images/PICTURE_688.png,CLOCK,5b9f7e3d00815d00010323f6,30/06/1995,2020-09-02_12h29.41.515,proactive3.2,2020.1.2,Win32,60,5f47c0b9b035471e11593a5c,5f4f819c5e8dec040402bf23,5,,,,,,runner,,,,,,,,,,,5,2,0,9,9,42,1,,,,,,,,,,,,,,,,,,,,,,,,,,,,,,,,,,,,,,,,,,,,,,,,,,,,,,,,,,,,,,,,,,,,,,
,,?,0.002275,0,,,,,,stimuli/images/PICTURE_667.png,GLASS,5b9f7e3d00815d00010323f6,30/06/1995,2020-09-02_12h29.41.515,proactive3.2,2020.1.2,Win32,60,5f47c0b9b035471e11593a5c,5f4f819c5e8dec040402bf23,5,,,,,,daisy,,,,,,,,,,,3,2,0,10,10,27,1,,,,,,,,,,,,,,,,,,,,,,,,,,,,,,,,,,,,,,,,,,,,,,,,,,,,,,,,,,,,,,,,,,,,,,
,,?,0.004985,0,,,,,,stimuli/images/PICTURE_311.png,FLESH,5b9f7e3d00815d00010323f6,30/06/1995,2020-09-02_12h29.41.515,proactive3.2,2020.1.2,Win32,60,5f47c0b9b035471e11593a5c,5f4f819c5e8dec040402bf23,5,,,,,,razor,,,,,,,,,,,1,2,0,11,11,3,1,,,,,,,,,,,,,,,,,,,,,,,,,,,,,,,,,,,,,,,,,,,,,,,,,,,,,,,,,,,,,,,,,,,,,,
,,?,0.00179,0,,,,,,stimuli/images/PICTURE_93.png,GIRL,5b9f7e3d00815d00010323f6,30/06/1995,2020-09-02_12h29.41.515,proactive3.2,2020.1.2,Win32,60,5f47c0b9b035471e11593a5c,5f4f819c5e8dec040402bf23,5,,,,,,skateboard,,,,,,,,,,,4,2,0,12,12,31,1,,,,,,,,,,,,,,,,,,,,,,,,,,,,,,,,,,,,,,,,,,,,,,,,,,,,,,,,,,,,,,,,,,,,,,
,,DUDE,2.416285,1,,,,,,stimuli/images/PICTURE_692.png,DUDE,5b9f7e3d00815d00010323f6,30/06/1995,2020-09-02_12h29.41.515,proactive3.2,2020.1.2,Win32,60,5f47c0b9b035471e11593a5c,5f4f819c5e8dec040402bf23,5,,,,,,cherry,,,,,,,,,,,5,2,0,13,13,47,1,,,,,,,,,,,,,,,,,,,,,,,,,,,,,,,,,,,,,,,,,,,,,,,,,,,,,,,,,,,,,,,,,,,,,,
