consent_key.keys,consent_key.rt,recalled,recalled_rt,recall_acc,example_recall.thisRepN,example_recall.thisTrialN,example_recall.thisN,example_recall.thisIndex,example_recall.ran,file,word,participant,please enter your date of birth (dd/mm/yyyy),date,expName,psychopyVersion,OS,frameRate,STUDY_ID,SESSION_ID,list,prac_learn_study_loop.thisRepN,prac_learn_study_loop.thisTrialN,prac_learn_study_loop.thisN,prac_learn_study_loop.thisIndex,prac_learn_study_loop.ran,image,prac_learn_test_loop.thisRepN,prac_learn_test_loop.thisTrialN,prac_learn_test_loop.thisN,prac_learn_test_loop.thisIndex,prac_learn_test_loop.ran,learn_study_loop.thisRepN,learn_study_loop.thisTrialN,learn_study_loop.thisN,learn_study_loop.thisIndex,learn_study_loop.ran,list_no,block_no,learn_test_loop.thisRepN,learn_test_loop.thisTrialN,learn_test_loop.thisN,learn_test_loop.thisIndex,learn_test_loop.ran,learn_blocks.thisRepN,learn_blocks.thisTrialN,learn_blocks.thisN,learn_blocks.thisIndex,learn_blocks.ran,block_csv,key_resp_13.keys,key_resp_13.rt,learn_blocks_loop.thisRepN,learn_blocks_loop.thisTrialN,learn_blocks_loop.thisN,learn_blocks_loop.thisIndex,learn_blocks_loop.ran,final_learn_test.thisRepN,final_learn_test.thisTrialN,final_learn_test.thisN,final_learn_test.thisIndex,final_learn_test.ran,prac_wm_test_loop.thisRepN,prac_wm_test_loop.thisTrialN,prac_wm_test_loop.thisN,prac_wm_test_loop.thisIndex,prac_wm_test_loop.ran,wm_recalled1,wm_recall_rt1,wm_probed1,wm_recall_acc1,wm_recalled2,wm_recall_rt2,wm_probed2,wm_recall_acc2,wm_recalled3,wm_recall_rt3,wm_probed3,wm_recall_acc3,wm_recalled4,wm_recall_rt4,wm_probed4,wm_recall_acc4,prac_wm_trial_loop.thisRepN,prac_wm_trial_loop.thisTrialN,prac_wm_trial_loop.thisN,prac_wm_trial_loop.thisIndex,prac_wm_trial_loop.ran,word1,image1,file1,item_type1,word2,image2,file2,item_type2,word4,image4,file4,item_type4,word3,image3,file3,item_type3,wm_test_loop.thisRepN,wm_test_loop.thisTrialN,wm_test_loop.thisN,wm_test_loop.thisIndex,wm_test_loop.ran,wm_trial_loop.thisRepN,wm_trial_loop.thisTrialN,wm_trial_loop.thisN,wm_trial_loop.thisIndex,wm_trial_loop.ran
y,169.281535,TOUGH,4.0065,1,0,0,0,0,1,stimuli/images/PICTURE_747.png,TOUGH,5c598b3704bbff000140a506,25/03/1997,2020-09-02_12h28.47.335,proactive3.2,2020.1.2,MacIntel,60,5f47c0b9b035471e11593a5c,5f4f81a9d786b703eabbf21e,1,,,,,,,,,,,,,,,,,,,,,,,,,,,,,,,,,,,,,,,,,,,,,,,,,,,,,,,,,,,,,,,,,,,,,,,,,,,,,,,,,,,,,,,,,,,,,
,,,,,,,,,,stimuli/images/PICTURE_658.png,DEVIL,5c598b3704bbff000140a506,25/03/1997,2020-09-02_12h28.47.335,proactive3.2,2020.1.2,MacIntel,60,5f47c0b9b035471e11593a5c,5f4f81a9d786b703eabbf21e,1,0,0,0,3,1,crow,,,,,,,,,,,,,,,,,,,,,,,,,,,,,,,,,,,,,,,,,,,,,,,,,,,,,,,,,,,,,,,,,,,,,,,,,,,,,,,,,,,,,,,
,,,,,,,,,,stimuli/images/PICTURE_269.png,GENIUS,5c598b3704bbff000140a506,25/03/1997,2020-09-02_12h28.47.335,proactive3.2,2020.1.2,MacIntel,60,5f47c0b9b035471e11593a5c,5f4f81a9d786b703eabbf21e,1,0,1,1,0,1,chameleon,,,,,,,,,,,,,,,,,,,,,,,,,,,,,,,,,,,,,,,,,,,,,,,,,,,,,,,,,,,,,,,,,,,,,,,,,,,,,,,,,,,,,,,
,,,,,,,,,,stimuli/images/PICTURE_378.png,LOSS,5c598b3704bbff000140a506,25/03/1997,2020-09-02_12h28.47.335,proactive3.2,2020.1.2,MacIntel,60,5f47c0b9b035471e11593a5c,5f4f81a9d786b703eabbf21e,1,0,2,2,2,1,lobster,,,,,,,,,,,,,,,,,,,,,,,,,,,,,,,,,,,,,,,,,,,,,,,,,,,,,,,,,,,,,,,,,,,,,,,,,,,,,,,,,,,,,,,
,,,,,,,,,,stimuli/images/PICTURE_727.png,CELL,5c598b3704bbff000140a506,25/03/1997,2020-09-02_12h28.47.335,proactive3.2,2020.1.2,MacIntel,60,5f47c0b9b035471e11593a5c,5f4f81a9d786b703eabbf21e,1,0,3,3,1,1,hose,,,,,,,,,,,,,,,,,,,,,,,,,,,,,,,,,,,,,,,,,,,,,,,,,,,,,,,,,,,,,,,,,,,,,,,,,,,,,,,,,,,,,,,
,,GENIUS,3.964585,1,,,,,,stimuli/images/PICTURE_269.png,GENIUS,5c598b3704bbff000140a506,25/03/1997,2020-09-02_12h28.47.335,proactive3.2,2020.1.2,MacIntel,60,5f47c0b9b035471e11593a5c,5f4f81a9d786b703eabbf21e,1,,,,,,chameleon,0,0,0,0,1,,,,,,,,,,,,,,,,,,,,,,,,,,,,,,,,,,,,,,,,,,,,,,,,,,,,,,,,,,,,,,,,,,,,,,,,,,,,,,,,,,
,,LOSS,2.334905,1,,,,,,stimuli/images/PICTURE_378.png,LOSS,5c598b3704bbff000140a506,25/03/1997,2020-09-02_12h28.47.335,proactive3.2,2020.1.2,MacIntel,60,5f47c0b9b035471e11593a5c,5f4f81a9d786b703eabbf21e,1,,,,,,lobster,0,1,1,2,1,,,,,,,,,,,,,,,,,,,,,,,,,,,,,,,,,,,,,,,,,,,,,,,,,,,,,,,,,,,,,,,,,,,,,,,,,,,,,,,,,,
,,DEVIL,2.516105,1,,,,,,stimuli/images/PICTURE_658.png,DEVIL,5c598b3704bbff000140a506,25/03/1997,2020-09-02_12h28.47.335,proactive3.2,2020.1.2,MacIntel,60,5f47c0b9b035471e11593a5c,5f4f81a9d786b703eabbf21e,1,,,,,,crow,0,2,2,3,1,,,,,,,,,,,,,,,,,,,,,,,,,,,,,,,,,,,,,,,,,,,,,,,,,,,,,,,,,,,,,,,,,,,,,,,,,,,,,,,,,,
,,CELL,2.58444,1,,,,,,stimuli/images/PICTURE_727.png,CELL,5c598b3704bbff000140a506,25/03/1997,2020-09-02_12h28.47.335,proactive3.2,2020.1.2,MacIntel,60,5f47c0b9b035471e11593a5c,5f4f81a9d786b703eabbf21e,1,,,,,,hose,0,3,3,1,1,,,,,,,,,,,,,,,,,,,,,,,,,,,,,,,,,,,,,,,,,,,,,,,,,,,,,,,,,,,,,,,,,,,,,,,,,,,,,,,,,,
,,KILLER,2.56915,1,,,,,,stimuli/images/PICTURE_697.png,KILLER,5c598b3704bbff000140a506,25/03/1997,2020-09-02_12h28.47.335,proactive3.2,2020.1.2,MacIntel,60,5f47c0b9b035471e11593a5c,5f4f81a9d786b703eabbf21e,1,,,,,,peach,0,4,4,4,1,,,,,,,,,,,,,,,,,,,,,,,,,,,,,,,,,,,,,,,,,,,,,,,,,,,,,,,,,,,,,,,,,,,,,,,,,,,,,,,,,,
,,,,,,,,,,stimuli/images/PICTURE_470.png,CASINO,5c598b3704bbff000140a506,25/03/1997,2020-09-02_12h28.47.335,proactive3.2,2020.1.2,MacIntel,60,5f47c0b9b035471e11593a5c,5f4f81a9d786b703eabbf21e,1,,,,,,motorbike,,,,,,0,0,0,36,1,4,0,,,,,,,,,,,,,,,,,,,,,,,,,,,,,,,,,,,,,,,,,,,,,,,,,,,,,,,,,,,,,,,,,,,,,,,,,,,
,,,,,,,,,,stimuli/images/PICTURE_654.png,VALLEY,5c598b3704bbff000140a506,25/03/1997,2020-09-02_12h28.47.335,proactive3.2,2020.1.2,MacIntel,60,5f47c0b9b035471e11593a5c,5f4f81a9d786b703eabbf21e,1,,,,,,pencil,,,,,,0,1,1,1,1,1,0,,,,,,,,,,,,,,,,,,,,,,,,,,,,,,,,,,,,,,,,,,,,,,,,,,,,,,,,,,,,,,,,,,,,,,,,,,,
,,,,,,,,,,stimuli/images/PICTURE_233.png,IDEAS,5c598b3704bbff000140a506,25/03/1997,2020-09-02_12h28.47.335,proactive3.2,2020.1.2,MacIntel,60,5f47c0b9b035471e11593a5c,5f4f81a9d786b703eabbf21e,1,,,,,,salt,,,,,,0,2,2,28,1,3,0,,,,,,,,,,,,,,,,,,,,,,,,,,,,,,,,,,,,,,,,,,,,,,,,,,,,,,,,,,,,,,,,,,,,,,,,,,,
,,,,,,,,,,stimuli/images/PICTURE_308.png,ESTATE,5c598b3704bbff000140a506,25/03/1997,2020-09-02_12h28.47.335,proactive3.2,2020.1.2,MacIntel,60,5f47c0b9b035471e11593a5c,5f4f81a9d786b703eabbf21e,1,,,,,,dice,,,,,,0,3,3,46,1,5,0,,,,,,,,,,,,,,,,,,,,,,,,,,,,,,,,,,,,,,,,,,,,,,,,,,,,,,,,,,,,,,,,,,,,,,,,,,,
,,,,,,,,,,stimuli/images/PICTURE_203.png,ARTIST,5c598b3704bbff000140a506,25/03/1997,2020-09-02_12h28.47.335,proactive3.2,2020.1.2,MacIntel,60,5f47c0b9b035471e11593a5c,5f4f81a9d786b703eabbf21e,1,,,,,,cap,,,,,,0,4,4,26,1,3,0,,,,,,,,,,,,,,,,,,,,,,,,,,,,,,,,,,,,,,,,,,,,,,,,,,,,,,,,,,,,,,,,,,,,,,,,,,,
,,,,,,,,,,stimuli/images/PICTURE_453.png,PLENTY,5c598b3704bbff000140a506,25/03/1997,2020-09-02_12h28.47.335,proactive3.2,2020.1.2,MacIntel,60,5f47c0b9b035471e11593a5c,5f4f81a9d786b703eabbf21e,1,,,,,,scissors,,,,,,0,5,5,56,1,6,0,,,,,,,,,,,,,,,,,,,,,,,,,,,,,,,,,,,,,,,,,,,,,,,,,,,,,,,,,,,,,,,,,,,,,,,,,,,
,,,,,,,,,,stimuli/images/PICTURE_449.png,THING,5c598b3704bbff000140a506,25/03/1997,2020-09-02_12h28.47.335,proactive3.2,2020.1.2,MacIntel,60,5f47c0b9b035471e11593a5c,5f4f81a9d786b703eabbf21e,1,,,,,,bench,,,,,,0,6,6,59,1,6,0,,,,,,,,,,,,,,,,,,,,,,,,,,,,,,,,,,,,,,,,,,,,,,,,,,,,,,,,,,,,,,,,,,,,,,,,,,,
,,,,,,,,,,stimuli/images/PICTURE_677.png,MILE,5c598b3704bbff000140a506,25/03/1997,2020-09-02_12h28.47.335,proactive3.2,2020.1.2,MacIntel,60,5f47c0b9b035471e11593a5c,5f4f81a9d786b703eabbf21e,1,,,,,,map,,,,,,0,7,7,30,1,4,0,,,,,,,,,,,,,,,,,,,,,,,,,,,,,,,,,,,,,,,,,,,,,,,,,,,,,,,,,,,,,,,,,,,,,,,,,,,
,,,,,,,,,,stimuli/images/PICTURE_327.png,BEAUTY,5c598b3704bbff000140a506,25/03/1997,2020-09-02_12h28.47.335,proactive3.2,2020.1.2,MacIntel,60,5f47c0b9b035471e11593a5c,5f4f81a9d786b703eabbf21e,1,,,,,,helmet,,,,,,0,8,8,48,1,5,0,,,,,,,,,,,,,,,,,,,,,,,,,,,,,,,,,,,,,,,,,,,,,,,,,,,,,,,,,,,,,,,,,,,,,,,,,,,
,,,,,,,,,,stimuli/images/PICTURE_314.png,GODS,5c598b3704bbff000140a506,25/03/1997,2020-09-02_12h28.47.335,proactive3.2,2020.1.2,MacIntel,60,5f47c0b9b035471e11593a5c,5f4f81a9d786b703eabbf21e,1,,,,,,perfume,,,,,,0,9,9,11,1,2,0,,,,,,,,,,,,,,,,,,,,,,,,,,,,,,,,,,,,,,,,,,,,,,,,,,,,,,,,,,,,,,,,,,,,,,,,,,,
,,,,,,,,,,stimuli/images/PICTURE_688.png,CASINO,5c598b3704bbff000140a506,25/03/1997,2020-09-02_12h28.47.335,proactive3.2,2020.1.2,MacIntel,60,5f47c0b9b035471e11593a5c,5f4f81a9d786b703eabbf21e,1,,,,,,runner,,,,,,0,10,10,2,1,1,0,,,,,,,,,,,,,,,,,,,,,,,,,,,,,,,,,,,,,,,,,,,,,,,,,,,,,,,,,,,,,,,,,,,,,,,,,,,
,,,,,,,,,,stimuli/images/PICTURE_160.png,FEET,5c598b3704bbff000140a506,25/03/1997,2020-09-02_12h28.47.335,proactive3.2,2020.1.2,MacIntel,60,5f47c0b9b035471e11593a5c,5f4f81a9d786b703eabbf21e,1,,,,,,wheelbarrow,,,,,,0,11,11,58,1,6,0,,,,,,,,,,,,,,,,,,,,,,,,,,,,,,,,,,,,,,,,,,,,,,,,,,,,,,,,,,,,,,,,,,,,,,,,,,,
,,,,,,,,,,stimuli/images/PICTURE_356.png,DANGER,5c598b3704bbff000140a506,25/03/1997,2020-09-02_12h28.47.335,proactive3.2,2020.1.2,MacIntel,60,5f47c0b9b035471e11593a5c,5f4f81a9d786b703eabbf21e,1,,,,,,pawn,,,,,,0,12,12,55,1,6,0,,,,,,,,,,,,,,,,,,,,,,,,,,,,,,,,,,,,,,,,,,,,,,,,,,,,,,,,,,,,,,,,,,,,,,,,,,,
,,,,,,,,,,stimuli/images/PICTURE_311.png,FRIEND,5c598b3704bbff000140a506,25/03/1997,2020-09-02_12h28.47.335,proactive3.2,2020.1.2,MacIntel,60,5f47c0b9b035471e11593a5c,5f4f81a9d786b703eabbf21e,1,,,,,,razor,,,,,,0,13,13,34,1,4,0,,,,,,,,,,,,,,,,,,,,,,,,,,,,,,,,,,,,,,,,,,,,,,,,,,,,,,,,,,,,,,,,,,,,,,,,,,,
,,,,,,,,,,stimuli/images/PICTURE_302.png,FAMILY,5c598b3704bbff000140a506,25/03/1997,2020-09-02_12h28.47.335,proactive3.2,2020.1.2,MacIntel,60,5f47c0b9b035471e11593a5c,5f4f81a9d786b703eabbf21e,1,,,,,,taxi,,,,,,0,14,14,18,1,2,0,,,,,,,,,,,,,,,,,,,,,,,,,,,,,,,,,,,,,,,,,,,,,,,,,,,,,,,,,,,,,,,,,,,,,,,,,,,
,,,,,,,,,,stimuli/images/PICTURE_177.png,CARS,5c598b3704bbff000140a506,25/03/1997,2020-09-02_12h28.47.335,proactive3.2,2020.1.2,MacIntel,60,5f47c0b9b035471e11593a5c,5f4f81a9d786b703eabbf21e,1,,,,,,mushroom,,,,,,0,15,15,35,1,4,0,,,,,,,,,,,,,,,,,,,,,,,,,,,,,,,,,,,,,,,,,,,,,,,,,,,,,,,,,,,,,,,,,,,,,,,,,,,
,,,,,,,,,,stimuli/images/PICTURE_208.png,THING,5c598b3704bbff000140a506,25/03/1997,2020-09-02_12h28.47.335,proactive3.2,2020.1.2,MacIntel,60,5f47c0b9b035471e11593a5c,5f4f81a9d786b703eabbf21e,1,,,,,,microphone,,,,,,0,16,16,47,1,5,0,,,,,,,,,,,,,,,,,,,,,,,,,,,,,,,,,,,,,,,,,,,,,,,,,,,,,,,,,,,,,,,,,,,,,,,,,,,
,,,,,,,,,,stimuli/images/PICTURE_491.png,WRITER,5c598b3704bbff000140a506,25/03/1997,2020-09-02_12h28.47.335,proactive3.2,2020.1.2,MacIntel,60,5f47c0b9b035471e11593a5c,5f4f81a9d786b703eabbf21e,1,,,,,,rug,,,,,,0,17,17,57,1,6,0,,,,,,,,,,,,,,,,,,,,,,,,,,,,,,,,,,,,,,,,,,,,,,,,,,,,,,,,,,,,,,,,,,,,,,,,,,,
,,,,,,,,,,stimuli/images/PICTURE_504.png,BODY,5c598b3704bbff000140a506,25/03/1997,2020-09-02_12h28.47.335,proactive3.2,2020.1.2,MacIntel,60,5f47c0b9b035471e11593a5c,5f4f81a9d786b703eabbf21e,1,,,,,,wheel,,,,,,0,18,18,8,1,1,0,,,,,,,,,,,,,,,,,,,,,,,,,,,,,,,,,,,,,,,,,,,,,,,,,,,,,,,,,,,,,,,,,,,,,,,,,,,
,,,,,,,,,,stimuli/images/PICTURE_380.png,PHOTO,5c598b3704bbff000140a506,25/03/1997,2020-09-02_12h28.47.335,proactive3.2,2020.1.2,MacIntel,60,5f47c0b9b035471e11593a5c,5f4f81a9d786b703eabbf21e,1,,,,,,gorilla,,,,,,0,19,19,52,1,6,0,,,,,,,,,,,,,,,,,,,,,,,,,,,,,,,,,,,,,,,,,,,,,,,,,,,,,,,,,,,,,,,,,,,,,,,,,,,
,,,,,,,,,,stimuli/images/PICTURE_509.png,PHOTO,5c598b3704bbff000140a506,25/03/1997,2020-09-02_12h28.47.335,proactive3.2,2020.1.2,MacIntel,60,5f47c0b9b035471e11593a5c,5f4f81a9d786b703eabbf21e,1,,,,,,telephone,,,,,,0,20,20,21,1,3,0,,,,,,,,,,,,,,,,,,,,,,,,,,,,,,,,,,,,,,,,,,,,,,,,,,,,,,,,,,,,,,,,,,,,,,,,,,,
,,,,,,,,,,stimuli/images/PICTURE_708.png,YARD,5c598b3704bbff000140a506,25/03/1997,2020-09-02_12h28.47.335,proactive3.2,2020.1.2,MacIntel,60,5f47c0b9b035471e11593a5c,5f4f81a9d786b703eabbf21e,1,,,,,,monkey,,,,,,0,21,21,29,1,3,0,,,,,,,,,,,,,,,,,,,,,,,,,,,,,,,,,,,,,,,,,,,,,,,,,,,,,,,,,,,,,,,,,,,,,,,,,,,
,,,,,,,,,,stimuli/images/PICTURE_208.png,MONTH,5c598b3704bbff000140a506,25/03/1997,2020-09-02_12h28.47.335,proactive3.2,2020.1.2,MacIntel,60,5f47c0b9b035471e11593a5c,5f4f81a9d786b703eabbf21e,1,,,,,,microphone,,,,,,0,22,22,53,1,6,0,,,,,,,,,,,,,,,,,,,,,,,,,,,,,,,,,,,,,,,,,,,,,,,,,,,,,,,,,,,,,,,,,,,,,,,,,,,
,,,,,,,,,,stimuli/images/PICTURE_467.png,DEMON,5c598b3704bbff000140a506,25/03/1997,2020-09-02_12h28.47.335,proactive3.2,2020.1.2,MacIntel,60,5f47c0b9b035471e11593a5c,5f4f81a9d786b703eabbf21e,1,,,,,,peg,,,,,,0,23,23,23,1,3,0,,,,,,,,,,,,,,,,,,,,,,,,,,,,,,,,,,,,,,,,,,,,,,,,,,,,,,,,,,,,,,,,,,,,,,,,,,,
,,,,,,,,,,stimuli/images/PICTURE_85.png,THING,5c598b3704bbff000140a506,25/03/1997,2020-09-02_12h28.47.335,proactive3.2,2020.1.2,MacIntel,60,5f47c0b9b035471e11593a5c,5f4f81a9d786b703eabbf21e,1,,,,,,diamond,,,,,,0,24,24,15,1,2,0,,,,,,,,,,,,,,,,,,,,,,,,,,,,,,,,,,,,,,,,,,,,,,,,,,,,,,,,,,,,,,,,,,,,,,,,,,,
,,,,,,,,,,stimuli/images/PICTURE_255.png,AREA,5c598b3704bbff000140a506,25/03/1997,2020-09-02_12h28.47.335,proactive3.2,2020.1.2,MacIntel,60,5f47c0b9b035471e11593a5c,5f4f81a9d786b703eabbf21e,1,,,,,,shovel,,,,,,0,25,25,22,1,3,0,,,,,,,,,,,,,,,,,,,,,,,,,,,,,,,,,,,,,,,,,,,,,,,,,,,,,,,,,,,,,,,,,,,,,,,,,,,
,,,,,,,,,,stimuli/images/PICTURE_248.png,DOZEN,5c598b3704bbff000140a506,25/03/1997,2020-09-02_12h28.47.335,proactive3.2,2020.1.2,MacIntel,60,5f47c0b9b035471e11593a5c,5f4f81a9d786b703eabbf21e,1,,,,,,cart,,,,,,0,26,26,39,1,4,0,,,,,,,,,,,,,,,,,,,,,,,,,,,,,,,,,,,,,,,,,,,,,,,,,,,,,,,,,,,,,,,,,,,,,,,,,,,
,,,,,,,,,,stimuli/images/PICTURE_675.png,WEAPON,5c598b3704bbff000140a506,25/03/1997,2020-09-02_12h28.47.335,proactive3.2,2020.1.2,MacIntel,60,5f47c0b9b035471e11593a5c,5f4f81a9d786b703eabbf21e,1,,,,,,windmill,,,,,,0,27,27,32,1,4,0,,,,,,,,,,,,,,,,,,,,,,,,,,,,,,,,,,,,,,,,,,,,,,,,,,,,,,,,,,,,,,,,,,,,,,,,,,,
,,,,,,,,,,stimuli/images/PICTURE_667.png,BATH,5c598b3704bbff000140a506,25/03/1997,2020-09-02_12h28.47.335,proactive3.2,2020.1.2,MacIntel,60,5f47c0b9b035471e11593a5c,5f4f81a9d786b703eabbf21e,1,,,,,,daisy,,,,,,0,28,28,4,1,1,0,,,,,,,,,,,,,,,,,,,,,,,,,,,,,,,,,,,,,,,,,,,,,,,,,,,,,,,,,,,,,,,,,,,,,,,,,,,
,,,,,,,,,,stimuli/images/PICTURE_744.png,SYSTEM,5c598b3704bbff000140a506,25/03/1997,2020-09-02_12h28.47.335,proactive3.2,2020.1.2,MacIntel,60,5f47c0b9b035471e11593a5c,5f4f81a9d786b703eabbf21e,1,,,,,,ring,,,,,,0,29,29,43,1,5,0,,,,,,,,,,,,,,,,,,,,,,,,,,,,,,,,,,,,,,,,,,,,,,,,,,,,,,,,,,,,,,,,,,,,,,,,,,,
,,,,,,,,,,stimuli/images/PICTURE_469.png,ARTIST,5c598b3704bbff000140a506,25/03/1997,2020-09-02_12h28.47.335,proactive3.2,2020.1.2,MacIntel,60,5f47c0b9b035471e11593a5c,5f4f81a9d786b703eabbf21e,1,,,,,,stool,,,,,,0,30,30,6,1,1,0,,,,,,,,,,,,,,,,,,,,,,,,,,,,,,,,,,,,,,,,,,,,,,,,,,,,,,,,,,,,,,,,,,,,,,,,,,,
,,,,,,,,,,stimuli/images/PICTURE_208.png,LOTS,5c598b3704bbff000140a506,25/03/1997,2020-09-02_12h28.47.335,proactive3.2,2020.1.2,MacIntel,60,5f47c0b9b035471e11593a5c,5f4f81a9d786b703eabbf21e,1,,,,,,microphone,,,,,,0,31,31,10,1,2,0,,,,,,,,,,,,,,,,,,,,,,,,,,,,,,,,,,,,,,,,,,,,,,,,,,,,,,,,,,,,,,,,,,,,,,,,,,,
,,,,,,,,,,stimuli/images/PICTURE_488.png,STYLE,5c598b3704bbff000140a506,25/03/1997,2020-09-02_12h28.47.335,proactive3.2,2020.1.2,MacIntel,60,5f47c0b9b035471e11593a5c,5f4f81a9d786b703eabbf21e,1,,,,,,sun,,,,,,0,32,32,33,1,4,0,,,,,,,,,,,,,,,,,,,,,,,,,,,,,,,,,,,,,,,,,,,,,,,,,,,,,,,,,,,,,,,,,,,,,,,,,,,
,,,,,,,,,,stimuli/images/PICTURE_32.png,JUNGLE,5c598b3704bbff000140a506,25/03/1997,2020-09-02_12h28.47.335,proactive3.2,2020.1.2,MacIntel,60,5f47c0b9b035471e11593a5c,5f4f81a9d786b703eabbf21e,1,,,,,,crown,,,,,,0,33,33,45,1,5,0,,,,,,,,,,,,,,,,,,,,,,,,,,,,,,,,,,,,,,,,,,,,,,,,,,,,,,,,,,,,,,,,,,,,,,,,,,,
,,,,,,,,,,stimuli/images/PICTURE_314.png,SAKE,5c598b3704bbff000140a506,25/03/1997,2020-09-02_12h28.47.335,proactive3.2,2020.1.2,MacIntel,60,5f47c0b9b035471e11593a5c,5f4f81a9d786b703eabbf21e,1,,,,,,perfume,,,,,,0,34,34,7,1,1,0,,,,,,,,,,,,,,,,,,,,,,,,,,,,,,,,,,,,,,,,,,,,,,,,,,,,,,,,,,,,,,,,,,,,,,,,,,,
,,,,,,,,,,stimuli/images/PICTURE_491.png,ROOF,5c598b3704bbff000140a506,25/03/1997,2020-09-02_12h28.47.335,proactive3.2,2020.1.2,MacIntel,60,5f47c0b9b035471e11593a5c,5f4f81a9d786b703eabbf21e,1,,,,,,rug,,,,,,0,35,35,24,1,3,0,,,,,,,,,,,,,,,,,,,,,,,,,,,,,,,,,,,,,,,,,,,,,,,,,,,,,,,,,,,,,,,,,,,,,,,,,,,
,,,,,,,,,,stimuli/images/PICTURE_348.png,SPEECH,5c598b3704bbff000140a506,25/03/1997,2020-09-02_12h28.47.335,proactive3.2,2020.1.2,MacIntel,60,5f47c0b9b035471e11593a5c,5f4f81a9d786b703eabbf21e,1,,,,,,pepper,,,,,,0,36,36,20,1,3,0,,,,,,,,,,,,,,,,,,,,,,,,,,,,,,,,,,,,,,,,,,,,,,,,,,,,,,,,,,,,,,,,,,,,,,,,,,,
,,,,,,,,,,stimuli/images/PICTURE_233.png,WOMEN,5c598b3704bbff000140a506,25/03/1997,2020-09-02_12h28.47.335,proactive3.2,2020.1.2,MacIntel,60,5f47c0b9b035471e11593a5c,5f4f81a9d786b703eabbf21e,1,,,,,,salt,,,,,,0,37,37,38,1,4,0,,,,,,,,,,,,,,,,,,,,,,,,,,,,,,,,,,,,,,,,,,,,,,,,,,,,,,,,,,,,,,,,,,,,,,,,,,,
,,,,,,,,,,stimuli/images/PICTURE_453.png,DUDE,5c598b3704bbff000140a506,25/03/1997,2020-09-02_12h28.47.335,proactive3.2,2020.1.2,MacIntel,60,5f47c0b9b035471e11593a5c,5f4f81a9d786b703eabbf21e,1,,,,,,scissors,,,,,,0,38,38,27,1,3,0,,,,,,,,,,,,,,,,,,,,,,,,,,,,,,,,,,,,,,,,,,,,,,,,,,,,,,,,,,,,,,,,,,,,,,,,,,,
,,,,,,,,,,stimuli/images/PICTURE_311.png,BEAUTY,5c598b3704bbff000140a506,25/03/1997,2020-09-02_12h28.47.335,proactive3.2,2020.1.2,MacIntel,60,5f47c0b9b035471e11593a5c,5f4f81a9d786b703eabbf21e,1,,,,,,razor,,,,,,0,39,39,13,1,2,0,,,,,,,,,,,,,,,,,,,,,,,,,,,,,,,,,,,,,,,,,,,,,,,,,,,,,,,,,,,,,,,,,,,,,,,,,,,
,,,,,,,,,,stimuli/images/PICTURE_380.png,DEATH,5c598b3704bbff000140a506,25/03/1997,2020-09-02_12h28.47.335,proactive3.2,2020.1.2,MacIntel,60,5f47c0b9b035471e11593a5c,5f4f81a9d786b703eabbf21e,1,,,,,,gorilla,,,,,,0,40,40,49,1,5,0,,,,,,,,,,,,,,,,,,,,,,,,,,,,,,,,,,,,,,,,,,,,,,,,,,,,,,,,,,,,,,,,,,,,,,,,,,,
,,,,,,,,,,stimuli/images/PICTURE_151.png,GIRL,5c598b3704bbff000140a506,25/03/1997,2020-09-02_12h28.47.335,proactive3.2,2020.1.2,MacIntel,60,5f47c0b9b035471e11593a5c,5f4f81a9d786b703eabbf21e,1,,,,,,tray,,,,,,0,41,41,19,1,2,0,,,,,,,,,,,,,,,,,,,,,,,,,,,,,,,,,,,,,,,,,,,,,,,,,,,,,,,,,,,,,,,,,,,,,,,,,,,
,,,,,,,,,,stimuli/images/PICTURE_147.png,MOMENT,5c598b3704bbff000140a506,25/03/1997,2020-09-02_12h28.47.335,proactive3.2,2020.1.2,MacIntel,60,5f47c0b9b035471e11593a5c,5f4f81a9d786b703eabbf21e,1,,,,,,hanger,,,,,,0,42,42,51,1,6,0,,,,,,,,,,,,,,,,,,,,,,,,,,,,,,,,,,,,,,,,,,,,,,,,,,,,,,,,,,,,,,,,,,,,,,,,,,,
,,,,,,,,,,stimuli/images/PICTURE_469.png,LETTER,5c598b3704bbff000140a506,25/03/1997,2020-09-02_12h28.47.335,proactive3.2,2020.1.2,MacIntel,60,5f47c0b9b035471e11593a5c,5f4f81a9d786b703eabbf21e,1,,,,,,stool,,,,,,0,43,43,42,1,5,0,,,,,,,,,,,,,,,,,,,,,,,,,,,,,,,,,,,,,,,,,,,,,,,,,,,,,,,,,,,,,,,,,,,,,,,,,,,
,,,,,,,,,,stimuli/images/PICTURE_487.png,FLIGHT,5c598b3704bbff000140a506,25/03/1997,2020-09-02_12h28.47.335,proactive3.2,2020.1.2,MacIntel,60,5f47c0b9b035471e11593a5c,5f4f81a9d786b703eabbf21e,1,,,,,,basket,,,,,,0,44,44,9,1,1,0,,,,,,,,,,,,,,,,,,,,,,,,,,,,,,,,,,,,,,,,,,,,,,,,,,,,,,,,,,,,,,,,,,,,,,,,,,,
,,,,,,,,,,stimuli/images/PICTURE_285.png,ADVICE,5c598b3704bbff000140a506,25/03/1997,2020-09-02_12h28.47.335,proactive3.2,2020.1.2,MacIntel,60,5f47c0b9b035471e11593a5c,5f4f81a9d786b703eabbf21e,1,,,,,,carrot,,,,,,0,45,45,12,1,2,0,,,,,,,,,,,,,,,,,,,,,,,,,,,,,,,,,,,,,,,,,,,,,,,,,,,,,,,,,,,,,,,,,,,,,,,,,,,
,,,,,,,,,,stimuli/images/PICTURE_123.png,ADVICE,5c598b3704bbff000140a506,25/03/1997,2020-09-02_12h28.47.335,proactive3.2,2020.1.2,MacIntel,60,5f47c0b9b035471e11593a5c,5f4f81a9d786b703eabbf21e,1,,,,,,dart,,,,,,0,46,46,40,1,5,0,,,,,,,,,,,,,,,,,,,,,,,,,,,,,,,,,,,,,,,,,,,,,,,,,,,,,,,,,,,,,,,,,,,,,,,,,,,
,,,,,,,,,,stimuli/images/PICTURE_667.png,PLENTY,5c598b3704bbff000140a506,25/03/1997,2020-09-02_12h28.47.335,proactive3.2,2020.1.2,MacIntel,60,5f47c0b9b035471e11593a5c,5f4f81a9d786b703eabbf21e,1,,,,,,daisy,,,,,,0,47,47,41,1,5,0,,,,,,,,,,,,,,,,,,,,,,,,,,,,,,,,,,,,,,,,,,,,,,,,,,,,,,,,,,,,,,,,,,,,,,,,,,,
,,,,,,,,,,stimuli/images/PICTURE_95.png,STYLE,5c598b3704bbff000140a506,25/03/1997,2020-09-02_12h28.47.335,proactive3.2,2020.1.2,MacIntel,60,5f47c0b9b035471e11593a5c,5f4f81a9d786b703eabbf21e,1,,,,,,suitcase,,,,,,0,48,48,25,1,3,0,,,,,,,,,,,,,,,,,,,,,,,,,,,,,,,,,,,,,,,,,,,,,,,,,,,,,,,,,,,,,,,,,,,,,,,,,,,
,,,,,,,,,,stimuli/images/PICTURE_123.png,ADVICE,5c598b3704bbff000140a506,25/03/1997,2020-09-02_12h28.47.335,proactive3.2,2020.1.2,MacIntel,60,5f47c0b9b035471e11593a5c,5f4f81a9d786b703eabbf21e,1,,,,,,dart,,,,,,0,49,49,50,1,6,0,,,,,,,,,,,,,,,,,,,,,,,,,,,,,,,,,,,,,,,,,,,,,,,,,,,,,,,,,,,,,,,,,,,,,,,,,,,
,,,,,,,,,,stimuli/images/PICTURE_744.png,SAKE,5c598b3704bbff000140a506,25/03/1997,2020-09-02_12h28.47.335,proactive3.2,2020.1.2,MacIntel,60,5f47c0b9b035471e11593a5c,5f4f81a9d786b703eabbf21e,1,,,,,,ring,,,,,,0,50,50,17,1,2,0,,,,,,,,,,,,,,,,,,,,,,,,,,,,,,,,,,,,,,,,,,,,,,,,,,,,,,,,,,,,,,,,,,,,,,,,,,,
,,,,,,,,,,stimuli/images/PICTURE_339.png,PLENTY,5c598b3704bbff000140a506,25/03/1997,2020-09-02_12h28.47.335,proactive3.2,2020.1.2,MacIntel,60,5f47c0b9b035471e11593a5c,5f4f81a9d786b703eabbf21e,1,,,,,,backpack,,,,,,0,51,51,0,1,1,0,,,,,,,,,,,,,,,,,,,,,,,,,,,,,,,,,,,,,,,,,,,,,,,,,,,,,,,,,,,,,,,,,,,,,,,,,,,
,,,,,,,,,,stimuli/images/PICTURE_692.png,MONTH,5c598b3704bbff000140a506,25/03/1997,2020-09-02_12h28.47.335,proactive3.2,2020.1.2,MacIntel,60,5f47c0b9b035471e11593a5c,5f4f81a9d786b703eabbf21e,1,,,,,,cherry,,,,,,0,52,52,16,1,2,0,,,,,,,,,,,,,,,,,,,,,,,,,,,,,,,,,,,,,,,,,,,,,,,,,,,,,,,,,,,,,,,,,,,,,,,,,,,
,,,,,,,,,,stimuli/images/PICTURE_160.png,LEADER,5c598b3704bbff000140a506,25/03/1997,2020-09-02_12h28.47.335,proactive3.2,2020.1.2,MacIntel,60,5f47c0b9b035471e11593a5c,5f4f81a9d786b703eabbf21e,1,,,,,,wheelbarrow,,,,,,0,53,53,3,1,1,0,,,,,,,,,,,,,,,,,,,,,,,,,,,,,,,,,,,,,,,,,,,,,,,,,,,,,,,,,,,,,,,,,,,,,,,,,,,
,,,,,,,,,,stimuli/images/PICTURE_215.png,PLENTY,5c598b3704bbff000140a506,25/03/1997,2020-09-02_12h28.47.335,proactive3.2,2020.1.2,MacIntel,60,5f47c0b9b035471e11593a5c,5f4f81a9d786b703eabbf21e,1,,,,,,boot,,,,,,0,54,54,37,1,4,0,,,,,,,,,,,,,,,,,,,,,,,,,,,,,,,,,,,,,,,,,,,,,,,,,,,,,,,,,,,,,,,,,,,,,,,,,,,
,,,,,,,,,,stimuli/images/PICTURE_708.png,CLIENT,5c598b3704bbff000140a506,25/03/1997,2020-09-02_12h28.47.335,proactive3.2,2020.1.2,MacIntel,60,5f47c0b9b035471e11593a5c,5f4f81a9d786b703eabbf21e,1,,,,,,monkey,,,,,,0,55,55,5,1,1,0,,,,,,,,,,,,,,,,,,,,,,,,,,,,,,,,,,,,,,,,,,,,,,,,,,,,,,,,,,,,,,,,,,,,,,,,,,,
,,,,,,,,,,stimuli/images/PICTURE_68.png,MILE,5c598b3704bbff000140a506,25/03/1997,2020-09-02_12h28.47.335,proactive3.2,2020.1.2,MacIntel,60,5f47c0b9b035471e11593a5c,5f4f81a9d786b703eabbf21e,1,,,,,,candle,,,,,,0,56,56,44,1,5,0,,,,,,,,,,,,,,,,,,,,,,,,,,,,,,,,,,,,,,,,,,,,,,,,,,,,,,,,,,,,,,,,,,,,,,,,,,,
,,,,,,,,,,stimuli/images/PICTURE_688.png,WOMEN,5c598b3704bbff000140a506,25/03/1997,2020-09-02_12h28.47.335,proactive3.2,2020.1.2,MacIntel,60,5f47c0b9b035471e11593a5c,5f4f81a9d786b703eabbf21e,1,,,,,,runner,,,,,,0,57,57,14,1,2,0,,,,,,,,,,,,,,,,,,,,,,,,,,,,,,,,,,,,,,,,,,,,,,,,,,,,,,,,,,,,,,,,,,,,,,,,,,,
,,,,,,,,,,stimuli/images/PICTURE_708.png,PENNY,5c598b3704bbff000140a506,25/03/1997,2020-09-02_12h28.47.335,proactive3.2,2020.1.2,MacIntel,60,5f47c0b9b035471e11593a5c,5f4f81a9d786b703eabbf21e,1,,,,,,monkey,,,,,,0,58,58,31,1,4,0,,,,,,,,,,,,,,,,,,,,,,,,,,,,,,,,,,,,,,,,,,,,,,,,,,,,,,,,,,,,,,,,,,,,,,,,,,,
,,?,0.000635,0,,,,,,stimuli/images/PICTURE_203.png,ARTIST,5c598b3704bbff000140a506,25/03/1997,2020-09-02_12h28.47.335,proactive3.2,2020.1.2,MacIntel,60,5f47c0b9b035471e11593a5c,5f4f81a9d786b703eabbf21e,1,,,,,,cap,,,,,,,,,,,3,0,0,0,0,26,1,,,,,,,,,,,,,,,,,,,,,,,,,,,,,,,,,,,,,,,,,,,,,,,,,,,,,,,,,,,,,,,,,,,,,,
,,?,0.000605,0,,,,,,stimuli/images/PICTURE_348.png,SPEECH,5c598b3704bbff000140a506,25/03/1997,2020-09-02_12h28.47.335,proactive3.2,2020.1.2,MacIntel,60,5f47c0b9b035471e11593a5c,5f4f81a9d786b703eabbf21e,1,,,,,,pepper,,,,,,,,,,,3,0,0,1,1,20,1,,,,,,,,,,,,,,,,,,,,,,,,,,,,,,,,,,,,,,,,,,,,,,,,,,,,,,,,,,,,,,,,,,,,,,
,,?,0.00054,0,,,,,,stimuli/images/PICTURE_744.png,SAKE,5c598b3704bbff000140a506,25/03/1997,2020-09-02_12h28.47.335,proactive3.2,2020.1.2,MacIntel,60,5f47c0b9b035471e11593a5c,5f4f81a9d786b703eabbf21e,1,,,,,,ring,,,,,,,,,,,2,0,0,2,2,17,1,,,,,,,,,,,,,,,,,,,,,,,,,,,,,,,,,,,,,,,,,,,,,,,,,,,,,,,,,,,,,,,,,,,,,,
,,?,0.00046,0,,,,,,stimuli/images/PICTURE_123.png,ADVICE,5c598b3704bbff000140a506,25/03/1997,2020-09-02_12h28.47.335,proactive3.2,2020.1.2,MacIntel,60,5f47c0b9b035471e11593a5c,5f4f81a9d786b703eabbf21e,1,,,,,,dart,,,,,,,,,,,5,0,0,3,3,40,1,,,,,,,,,,,,,,,,,,,,,,,,,,,,,,,,,,,,,,,,,,,,,,,,,,,,,,,,,,,,,,,,,,,,,,
,,?,0.000465,0,,,,,,stimuli/images/PICTURE_151.png,GIRL,5c598b3704bbff000140a506,25/03/1997,2020-09-02_12h28.47.335,proactive3.2,2020.1.2,MacIntel,60,5f47c0b9b035471e11593a5c,5f4f81a9d786b703eabbf21e,1,,,,,,tray,,,,,,,,,,,2,0,0,4,4,19,1,,,,,,,,,,,,,,,,,,,,,,,,,,,,,,,,,,,,,,,,,,,,,,,,,,,,,,,,,,,,,,,,,,,,,,
,,?,0.000495,0,,,,,,stimuli/images/PICTURE_327.png,BEAUTY,5c598b3704bbff000140a506,25/03/1997,2020-09-02_12h28.47.335,proactive3.2,2020.1.2,MacIntel,60,5f47c0b9b035471e11593a5c,5f4f81a9d786b703eabbf21e,1,,,,,,helmet,,,,,,,,,,,5,0,0,5,5,48,1,,,,,,,,,,,,,,,,,,,,,,,,,,,,,,,,,,,,,,,,,,,,,,,,,,,,,,,,,,,,,,,,,,,,,,
,,?,0.00051,0,,,,,,stimuli/images/PICTURE_491.png,WRITER,5c598b3704bbff000140a506,25/03/1997,2020-09-02_12h28.47.335,proactive3.2,2020.1.2,MacIntel,60,5f47c0b9b035471e11593a5c,5f4f81a9d786b703eabbf21e,1,,,,,,rug,,,,,,,,,,,6,0,0,6,6,57,1,,,,,,,,,,,,,,,,,,,,,,,,,,,,,,,,,,,,,,,,,,,,,,,,,,,,,,,,,,,,,,,,,,,,,,
,,?,0.000395,0,,,,,,stimuli/images/PICTURE_285.png,ADVICE,5c598b3704bbff000140a506,25/03/1997,2020-09-02_12h28.47.335,proactive3.2,2020.1.2,MacIntel,60,5f47c0b9b035471e11593a5c,5f4f81a9d786b703eabbf21e,1,,,,,,carrot,,,,,,,,,,,2,0,0,7,7,12,1,,,,,,,,,,,,,,,,,,,,,,,,,,,,,,,,,,,,,,,,,,,,,,,,,,,,,,,,,,,,,,,,,,,,,,
,,?,0.000435,0,,,,,,stimuli/images/PICTURE_311.png,FRIEND,5c598b3704bbff000140a506,25/03/1997,2020-09-02_12h28.47.335,proactive3.2,2020.1.2,MacIntel,60,5f47c0b9b035471e11593a5c,5f4f81a9d786b703eabbf21e,1,,,,,,razor,,,,,,,,,,,4,0,0,8,8,34,1,,,,,,,,,,,,,,,,,,,,,,,,,,,,,,,,,,,,,,,,,,,,,,,,,,,,,,,,,,,,,,,,,,,,,,
,,BODY,2.400735,1,,,,,,stimuli/images/PICTURE_504.png,BODY,5c598b3704bbff000140a506,25/03/1997,2020-09-02_12h28.47.335,proactive3.2,2020.1.2,MacIntel,60,5f47c0b9b035471e11593a5c,5f4f81a9d786b703eabbf21e,1,,,,,,wheel,,,,,,,,,,,1,0,0,9,9,8,1,,,,,,,,,,,,,,,,,,,,,,,,,,,,,,,,,,,,,,,,,,,,,,,,,,,,,,,,,,,,,,,,,,,,,,
,,?,0.00104,0,,,,,,stimuli/images/PICTURE_467.png,DEMON,5c598b3704bbff000140a506,25/03/1997,2020-09-02_12h28.47.335,proactive3.2,2020.1.2,MacIntel,60,5f47c0b9b035471e11593a5c,5f4f81a9d786b703eabbf21e,1,,,,,,peg,,,,,,,,,,,3,0,0,10,10,23,1,,,,,,,,,,,,,,,,,,,,,,,,,,,,,,,,,,,,,,,,,,,,,,,,,,,,,,,,,,,,,,,,,,,,,,
,,?,0.0009,0,,,,,,stimuli/images/PICTURE_215.png,PLENTY,5c598b3704bbff000140a506,25/03/1997,2020-09-02_12h28.47.335,proactive3.2,2020.1.2,MacIntel,60,5f47c0b9b035471e11593a5c,5f4f81a9d786b703eabbf21e,1,,,,,,boot,,,,,,,,,,,4,0,0,11,11,37,1,,,,,,,,,,,,,,,,,,,,,,,,,,,,,,,,,,,,,,,,,,,,,,,,,,,,,,,,,,,,,,,,,,,,,,
,,LEADER,2.51179,1,,,,,,stimuli/images/PICTURE_160.png,LEADER,5c598b3704bbff000140a506,25/03/1997,2020-09-02_12h28.47.335,proactive3.2,2020.1.2,MacIntel,60,5f47c0b9b035471e11593a5c,5f4f81a9d786b703eabbf21e,1,,,,,,wheelbarrow,,,,,,,,,,,1,0,0,12,12,3,1,,,,,,,,,,,,,,,,,,,,,,,,,,,,,,,,,,,,,,,,,,,,,,,,,,,,,,,,,,,,,,,,,,,,,,
,,?,0.00091,0,,,,,,stimuli/images/PICTURE_380.png,DEATH,5c598b3704bbff000140a506,25/03/1997,2020-09-02_12h28.47.335,proactive3.2,2020.1.2,MacIntel,60,5f47c0b9b035471e11593a5c,5f4f81a9d786b703eabbf21e,1,,,,,,gorilla,,,,,,,,,,,5,0,0,13,13,49,1,,,,,,,,,,,,,,,,,,,,,,,,,,,,,,,,,,,,,,,,,,,,,,,,,,,,,,,,,,,,,,,,,,,,,,
,,?,0.000625,0,,,,,,stimuli/images/PICTURE_688.png,WOMEN,5c598b3704bbff000140a506,25/03/1997,2020-09-02_12h28.47.335,proactive3.2,2020.1.2,MacIntel,60,5f47c0b9b035471e11593a5c,5f4f81a9d786b703eabbf21e,1,,,,,,runner,,,,,,,,,,,2,0,0,14,14,14,1,,,,,,,,,,,,,,,,,,,,,,,,,,,,,,,,,,,,,,,,,,,,,,,,,,,,,,,,,,,,,,,,,,,,,,
,,VALLEY,2.612425,1,,,,,,stimuli/images/PICTURE_654.png,VALLEY,5c598b3704bbff000140a506,25/03/1997,2020-09-02_12h28.47.335,proactive3.2,2020.1.2,MacIntel,60,5f47c0b9b035471e11593a5c,5f4f81a9d786b703eabbf21e,1,,,,,,pencil,,,,,,,,,,,1,0,0,15,15,1,1,,,,,,,,,,,,,,,,,,,,,,,,,,,,,,,,,,,,,,,,,,,,,,,,,,,,,,,,,,,,,,,,,,,,,,
,,?,0.00162,0,,,,,,stimuli/images/PICTURE_208.png,MONTH,5c598b3704bbff000140a506,25/03/1997,2020-09-02_12h28.47.335,proactive3.2,2020.1.2,MacIntel,60,5f47c0b9b035471e11593a5c,5f4f81a9d786b703eabbf21e,1,,,,,,microphone,,,,,,,,,,,6,0,0,16,16,53,1,,,,,,,,,,,,,,,,,,,,,,,,,,,,,,,,,,,,,,,,,,,,,,,,,,,,,,,,,,,,,,,,,,,,,,
,,?,0.000715,0,,,,,,stimuli/images/PICTURE_208.png,THING,5c598b3704bbff000140a506,25/03/1997,2020-09-02_12h28.47.335,proactive3.2,2020.1.2,MacIntel,60,5f47c0b9b035471e11593a5c,5f4f81a9d786b703eabbf21e,1,,,,,,microphone,,,,,,,,,,,5,0,0,17,17,47,1,,,,,,,,,,,,,,,,,,,,,,,,,,,,,,,,,,,,,,,,,,,,,,,,,,,,,,,,,,,,,,,,,,,,,,
,,BATH,2.609795,1,,,,,,stimuli/images/PICTURE_667.png,BATH,5c598b3704bbff000140a506,25/03/1997,2020-09-02_12h28.47.335,proactive3.2,2020.1.2,MacIntel,60,5f47c0b9b035471e11593a5c,5f4f81a9d786b703eabbf21e,1,,,,,,daisy,,,,,,,,,,,1,0,0,18,18,4,1,,,,,,,,,,,,,,,,,,,,,,,,,,,,,,,,,,,,,,,,,,,,,,,,,,,,,,,,,,,,,,,,,,,,,,
,,?,0.001775,0,,,,,,stimuli/images/PICTURE_308.png,KIND,5c598b3704bbff000140a506,25/03/1997,2020-09-02_12h28.47.335,proactive3.2,2020.1.2,MacIntel,60,5f47c0b9b035471e11593a5c,5f4f81a9d786b703eabbf21e,1,,,,,,dice,,,,,,,,,,,6,0,0,19,19,54,1,,,,,,,,,,,,,,,,,,,,,,,,,,,,,,,,,,,,,,,,,,,,,,,,,,,,,,,,,,,,,,,,,,,,,,
,,CLIENT,2.945735,1,,,,,,stimuli/images/PICTURE_708.png,CLIENT,5c598b3704bbff000140a506,25/03/1997,2020-09-02_12h28.47.335,proactive3.2,2020.1.2,MacIntel,60,5f47c0b9b035471e11593a5c,5f4f81a9d786b703eabbf21e,1,,,,,,monkey,,,,,,,,,,,1,0,0,20,20,5,1,,,,,,,,,,,,,,,,,,,,,,,,,,,,,,,,,,,,,,,,,,,,,,,,,,,,,,,,,,,,,,,,,,,,,,
,,?,0.00069,0,,,,,,stimuli/images/PICTURE_677.png,MILE,5c598b3704bbff000140a506,25/03/1997,2020-09-02_12h28.47.335,proactive3.2,2020.1.2,MacIntel,60,5f47c0b9b035471e11593a5c,5f4f81a9d786b703eabbf21e,1,,,,,,map,,,,,,,,,,,4,0,0,21,21,30,1,,,,,,,,,,,,,,,,,,,,,,,,,,,,,,,,,,,,,,,,,,,,,,,,,,,,,,,,,,,,,,,,,,,,,,
,,?,0.00117,0,,,,,,stimuli/images/PICTURE_708.png,YARD,5c598b3704bbff000140a506,25/03/1997,2020-09-02_12h28.47.335,proactive3.2,2020.1.2,MacIntel,60,5f47c0b9b035471e11593a5c,5f4f81a9d786b703eabbf21e,1,,,,,,monkey,,,,,,,,,,,3,0,0,22,22,29,1,,,,,,,,,,,,,,,,,,,,,,,,,,,,,,,,,,,,,,,,,,,,,,,,,,,,,,,,,,,,,,,,,,,,,,
,,?,0.001075,0,,,,,,stimuli/images/PICTURE_692.png,MONTH,5c598b3704bbff000140a506,25/03/1997,2020-09-02_12h28.47.335,proactive3.2,2020.1.2,MacIntel,60,5f47c0b9b035471e11593a5c,5f4f81a9d786b703eabbf21e,1,,,,,,cherry,,,,,,,,,,,2,0,0,23,23,16,1,,,,,,,,,,,,,,,,,,,,,,,,,,,,,,,,,,,,,,,,,,,,,,,,,,,,,,,,,,,,,,,,,,,,,,
,,SAKE,2.759375,1,,,,,,stimuli/images/PICTURE_314.png,SAKE,5c598b3704bbff000140a506,25/03/1997,2020-09-02_12h28.47.335,proactive3.2,2020.1.2,MacIntel,60,5f47c0b9b035471e11593a5c,5f4f81a9d786b703eabbf21e,1,,,,,,perfume,,,,,,,,,,,1,0,0,24,24,7,1,,,,,,,,,,,,,,,,,,,,,,,,,,,,,,,,,,,,,,,,,,,,,,,,,,,,,,,,,,,,,,,,,,,,,,
,,?,0.001425,0,,,,,,stimuli/images/PICTURE_667.png,PLENTY,5c598b3704bbff000140a506,25/03/1997,2020-09-02_12h28.47.335,proactive3.2,2020.1.2,MacIntel,60,5f47c0b9b035471e11593a5c,5f4f81a9d786b703eabbf21e,1,,,,,,daisy,,,,,,,,,,,5,0,0,25,25,41,1,,,,,,,,,,,,,,,,,,,,,,,,,,,,,,,,,,,,,,,,,,,,,,,,,,,,,,,,,,,,,,,,,,,,,,
,,?,0.000605,0,,,,,,stimuli/images/PICTURE_32.png,JUNGLE,5c598b3704bbff000140a506,25/03/1997,2020-09-02_12h28.47.335,proactive3.2,2020.1.2,MacIntel,60,5f47c0b9b035471e11593a5c,5f4f81a9d786b703eabbf21e,1,,,,,,crown,,,,,,,,,,,5,0,0,26,26,45,1,,,,,,,,,,,,,,,,,,,,,,,,,,,,,,,,,,,,,,,,,,,,,,,,,,,,,,,,,,,,,,,,,,,,,,
,,?,0.000615,0,,,,,,stimuli/images/PICTURE_177.png,CARS,5c598b3704bbff000140a506,25/03/1997,2020-09-02_12h28.47.335,proactive3.2,2020.1.2,MacIntel,60,5f47c0b9b035471e11593a5c,5f4f81a9d786b703eabbf21e,1,,,,,,mushroom,,,,,,,,,,,4,0,0,27,27,35,1,,,,,,,,,,,,,,,,,,,,,,,,,,,,,,,,,,,,,,,,,,,,,,,,,,,,,,,,,,,,,,,,,,,,,,
,,?,0.000475,0,,,,,,stimuli/images/PICTURE_308.png,ESTATE,5c598b3704bbff000140a506,25/03/1997,2020-09-02_12h28.47.335,proactive3.2,2020.1.2,MacIntel,60,5f47c0b9b035471e11593a5c,5f4f81a9d786b703eabbf21e,1,,,,,,dice,,,,,,,,,,,5,0,0,28,28,46,1,,,,,,,,,,,,,,,,,,,,,,,,,,,,,,,,,,,,,,,,,,,,,,,,,,,,,,,,,,,,,,,,,,,,,,
,,?,0.000475,0,,,,,,stimuli/images/PICTURE_85.png,THING,5c598b3704bbff000140a506,25/03/1997,2020-09-02_12h28.47.335,proactive3.2,2020.1.2,MacIntel,60,5f47c0b9b035471e11593a5c,5f4f81a9d786b703eabbf21e,1,,,,,,diamond,,,,,,,,,,,2,0,0,29,29,15,1,,,,,,,,,,,,,,,,,,,,,,,,,,,,,,,,,,,,,,,,,,,,,,,,,,,,,,,,,,,,,,,,,,,,,,
,,?,0.000475,0,,,,,,stimuli/images/PICTURE_356.png,DANGER,5c598b3704bbff000140a506,25/03/1997,2020-09-02_12h28.47.335,proactive3.2,2020.1.2,MacIntel,60,5f47c0b9b035471e11593a5c,5f4f81a9d786b703eabbf21e,1,,,,,,pawn,,,,,,,,,,,6,0,0,30,30,55,1,,,,,,,,,,,,,,,,,,,,,,,,,,,,,,,,,,,,,,,,,,,,,,,,,,,,,,,,,,,,,,,,,,,,,,
,,?,0.000465,0,,,,,,stimuli/images/PICTURE_302.png,FAMILY,5c598b3704bbff000140a506,25/03/1997,2020-09-02_12h28.47.335,proactive3.2,2020.1.2,MacIntel,60,5f47c0b9b035471e11593a5c,5f4f81a9d786b703eabbf21e,1,,,,,,taxi,,,,,,,,,,,2,0,0,31,31,18,1,,,,,,,,,,,,,,,,,,,,,,,,,,,,,,,,,,,,,,,,,,,,,,,,,,,,,,,,,,,,,,,,,,,,,,
,,?,0.00037,0,,,,,,stimuli/images/PICTURE_248.png,DOZEN,5c598b3704bbff000140a506,25/03/1997,2020-09-02_12h28.47.335,proactive3.2,2020.1.2,MacIntel,60,5f47c0b9b035471e11593a5c,5f4f81a9d786b703eabbf21e,1,,,,,,cart,,,,,,,,,,,4,0,0,32,32,39,1,,,,,,,,,,,,,,,,,,,,,,,,,,,,,,,,,,,,,,,,,,,,,,,,,,,,,,,,,,,,,,,,,,,,,,
,,?,0.00038,0,,,,,,stimuli/images/PICTURE_233.png,WOMEN,5c598b3704bbff000140a506,25/03/1997,2020-09-02_12h28.47.335,proactive3.2,2020.1.2,MacIntel,60,5f47c0b9b035471e11593a5c,5f4f81a9d786b703eabbf21e,1,,,,,,salt,,,,,,,,,,,4,0,0,33,33,38,1,,,,,,,,,,,,,,,,,,,,,,,,,,,,,,,,,,,,,,,,,,,,,,,,,,,,,,,,,,,,,,,,,,,,,,
,,?,0.000495,0,,,,,,stimuli/images/PICTURE_147.png,MOMENT,5c598b3704bbff000140a506,25/03/1997,2020-09-02_12h28.47.335,proactive3.2,2020.1.2,MacIntel,60,5f47c0b9b035471e11593a5c,5f4f81a9d786b703eabbf21e,1,,,,,,hanger,,,,,,,,,,,6,0,0,34,34,51,1,,,,,,,,,,,,,,,,,,,,,,,,,,,,,,,,,,,,,,,,,,,,,,,,,,,,,,,,,,,,,,,,,,,,,,
,,?,0.000465,0,,,,,,stimuli/images/PICTURE_488.png,STYLE,5c598b3704bbff000140a506,25/03/1997,2020-09-02_12h28.47.335,proactive3.2,2020.1.2,MacIntel,60,5f47c0b9b035471e11593a5c,5f4f81a9d786b703eabbf21e,1,,,,,,sun,,,,,,,,,,,4,0,0,35,35,33,1,,,,,,,,,,,,,,,,,,,,,,,,,,,,,,,,,,,,,,,,,,,,,,,,,,,,,,,,,,,,,,,,,,,,,,
,,?,0.00054,0,,,,,,stimuli/images/PICTURE_491.png,ROOF,5c598b3704bbff000140a506,25/03/1997,2020-09-02_12h28.47.335,proactive3.2,2020.1.2,MacIntel,60,5f47c0b9b035471e11593a5c,5f4f81a9d786b703eabbf21e,1,,,,,,rug,,,,,,,,,,,3,0,0,36,36,24,1,,,,,,,,,,,,,,,,,,,,,,,,,,,,,,,,,,,,,,,,,,,,,,,,,,,,,,,,,,,,,,,,,,,,,,
,,CASINO,2.7,1,,,,,,stimuli/images/PICTURE_688.png,CASINO,5c598b3704bbff000140a506,25/03/1997,2020-09-02_12h28.47.335,proactive3.2,2020.1.2,MacIntel,60,5f47c0b9b035471e11593a5c,5f4f81a9d786b703eabbf21e,1,,,,,,runner,,,,,,,,,,,1,0,0,37,37,2,1,,,,,,,,,,,,,,,,,,,,,,,,,,,,,,,,,,,,,,,,,,,,,,,,,,,,,,,,,,,,,,,,,,,,,,
,,?,0.000795,0,,,,,,stimuli/images/PICTURE_208.png,LOTS,5c598b3704bbff000140a506,25/03/1997,2020-09-02_12h28.47.335,proactive3.2,2020.1.2,MacIntel,60,5f47c0b9b035471e11593a5c,5f4f81a9d786b703eabbf21e,1,,,,,,microphone,,,,,,,,,,,2,0,0,38,38,10,1,,,,,,,,,,,,,,,,,,,,,,,,,,,,,,,,,,,,,,,,,,,,,,,,,,,,,,,,,,,,,,,,,,,,,,
,,?,0.000705,0,,,,,,stimuli/images/PICTURE_469.png,LETTER,5c598b3704bbff000140a506,25/03/1997,2020-09-02_12h28.47.335,proactive3.2,2020.1.2,MacIntel,60,5f47c0b9b035471e11593a5c,5f4f81a9d786b703eabbf21e,1,,,,,,stool,,,,,,,,,,,5,0,0,39,39,42,1,,,,,,,,,,,,,,,,,,,,,,,,,,,,,,,,,,,,,,,,,,,,,,,,,,,,,,,,,,,,,,,,,,,,,,
,,?,0.000455,0,,,,,,stimuli/images/PICTURE_160.png,FEET,5c598b3704bbff000140a506,25/03/1997,2020-09-02_12h28.47.335,proactive3.2,2020.1.2,MacIntel,60,5f47c0b9b035471e11593a5c,5f4f81a9d786b703eabbf21e,1,,,,,,wheelbarrow,,,,,,,,,,,6,0,0,40,40,58,1,,,,,,,,,,,,,,,,,,,,,,,,,,,,,,,,,,,,,,,,,,,,,,,,,,,,,,,,,,,,,,,,,,,,,,
,,ARTIST,2.945245,1,,,,,,stimuli/images/PICTURE_469.png,ARTIST,5c598b3704bbff000140a506,25/03/1997,2020-09-02_12h28.47.335,proactive3.2,2020.1.2,MacIntel,60,5f47c0b9b035471e11593a5c,5f4f81a9d786b703eabbf21e,1,,,,,,stool,,,,,,,,,,,1,0,0,41,41,6,1,,,,,,,,,,,,,,,,,,,,,,,,,,,,,,,,,,,,,,,,,,,,,,,,,,,,,,,,,,,,,,,,,,,,,,
,,?,0.00136,0,,,,,,stimuli/images/PICTURE_68.png,MILE,5c598b3704bbff000140a506,25/03/1997,2020-09-02_12h28.47.335,proactive3.2,2020.1.2,MacIntel,60,5f47c0b9b035471e11593a5c,5f4f81a9d786b703eabbf21e,1,,,,,,candle,,,,,,,,,,,5,0,0,42,42,44,1,,,,,,,,,,,,,,,,,,,,,,,,,,,,,,,,,,,,,,,,,,,,,,,,,,,,,,,,,,,,,,,,,,,,,,
,,?,0.000575,0,,,,,,stimuli/images/PICTURE_255.png,AREA,5c598b3704bbff000140a506,25/03/1997,2020-09-02_12h28.47.335,proactive3.2,2020.1.2,MacIntel,60,5f47c0b9b035471e11593a5c,5f4f81a9d786b703eabbf21e,1,,,,,,shovel,,,,,,,,,,,3,0,0,43,43,22,1,,,,,,,,,,,,,,,,,,,,,,,,,,,,,,,,,,,,,,,,,,,,,,,,,,,,,,,,,,,,,,,,,,,,,,
,,?,0.00073,0,,,,,,stimuli/images/PICTURE_744.png,SYSTEM,5c598b3704bbff000140a506,25/03/1997,2020-09-02_12h28.47.335,proactive3.2,2020.1.2,MacIntel,60,5f47c0b9b035471e11593a5c,5f4f81a9d786b703eabbf21e,1,,,,,,ring,,,,,,,,,,,5,0,0,44,44,43,1,,,,,,,,,,,,,,,,,,,,,,,,,,,,,,,,,,,,,,,,,,,,,,,,,,,,,,,,,,,,,,,,,,,,,,
,,?,0.00053,0,,,,,,stimuli/images/PICTURE_123.png,ADVICE,5c598b3704bbff000140a506,25/03/1997,2020-09-02_12h28.47.335,proactive3.2,2020.1.2,MacIntel,60,5f47c0b9b035471e11593a5c,5f4f81a9d786b703eabbf21e,1,,,,,,dart,,,,,,,,,,,6,0,0,45,45,50,1,,,,,,,,,,,,,,,,,,,,,,,,,,,,,,,,,,,,,,,,,,,,,,,,,,,,,,,,,,,,,,,,,,,,,,
,,?,0.000465,0,,,,,,stimuli/images/PICTURE_453.png,PLENTY,5c598b3704bbff000140a506,25/03/1997,2020-09-02_12h28.47.335,proactive3.2,2020.1.2,MacIntel,60,5f47c0b9b035471e11593a5c,5f4f81a9d786b703eabbf21e,1,,,,,,scissors,,,,,,,,,,,6,0,0,46,46,56,1,,,,,,,,,,,,,,,,,,,,,,,,,,,,,,,,,,,,,,,,,,,,,,,,,,,,,,,,,,,,,,,,,,,,,,
,,?,0.000405,0,,,,,,stimuli/images/PICTURE_675.png,WEAPON,5c598b3704bbff000140a506,25/03/1997,2020-09-02_12h28.47.335,proactive3.2,2020.1.2,MacIntel,60,5f47c0b9b035471e11593a5c,5f4f81a9d786b703eabbf21e,1,,,,,,windmill,,,,,,,,,,,4,0,0,47,47,32,1,,,,,,,,,,,,,,,,,,,,,,,,,,,,,,,,,,,,,,,,,,,,,,,,,,,,,,,,,,,,,,,,,,,,,,
,,?,0.00039,0,,,,,,stimuli/images/PICTURE_470.png,CASINO,5c598b3704bbff000140a506,25/03/1997,2020-09-02_12h28.47.335,proactive3.2,2020.1.2,MacIntel,60,5f47c0b9b035471e11593a5c,5f4f81a9d786b703eabbf21e,1,,,,,,motorbike,,,,,,,,,,,4,0,0,48,48,36,1,,,,,,,,,,,,,,,,,,,,,,,,,,,,,,,,,,,,,,,,,,,,,,,,,,,,,,,,,,,,,,,,,,,,,,
,,?,0.00039,0,,,,,,stimuli/images/PICTURE_311.png,BEAUTY,5c598b3704bbff000140a506,25/03/1997,2020-09-02_12h28.47.335,proactive3.2,2020.1.2,MacIntel,60,5f47c0b9b035471e11593a5c,5f4f81a9d786b703eabbf21e,1,,,,,,razor,,,,,,,,,,,2,0,0,49,49,13,1,,,,,,,,,,,,,,,,,,,,,,,,,,,,,,,,,,,,,,,,,,,,,,,,,,,,,,,,,,,,,,,,,,,,,,
,,?,0.000365,0,,,,,,stimuli/images/PICTURE_314.png,GODS,5c598b3704bbff000140a506,25/03/1997,2020-09-02_12h28.47.335,proactive3.2,2020.1.2,MacIntel,60,5f47c0b9b035471e11593a5c,5f4f81a9d786b703eabbf21e,1,,,,,,perfume,,,,,,,,,,,2,0,0,50,50,11,1,,,,,,,,,,,,,,,,,,,,,,,,,,,,,,,,,,,,,,,,,,,,,,,,,,,,,,,,,,,,,,,,,,,,,,
,,?,0.00041,0,,,,,,stimuli/images/PICTURE_233.png,IDEAS,5c598b3704bbff000140a506,25/03/1997,2020-09-02_12h28.47.335,proactive3.2,2020.1.2,MacIntel,60,5f47c0b9b035471e11593a5c,5f4f81a9d786b703eabbf21e,1,,,,,,salt,,,,,,,,,,,3,0,0,51,51,28,1,,,,,,,,,,,,,,,,,,,,,,,,,,,,,,,,,,,,,,,,,,,,,,,,,,,,,,,,,,,,,,,,,,,,,,
,,PLENTY,2.969015,1,,,,,,stimuli/images/PICTURE_339.png,PLENTY,5c598b3704bbff000140a506,25/03/1997,2020-09-02_12h28.47.335,proactive3.2,2020.1.2,MacIntel,60,5f47c0b9b035471e11593a5c,5f4f81a9d786b703eabbf21e,1,,,,,,backpack,,,,,,,,,,,1,0,0,52,52,0,1,,,,,,,,,,,,,,,,,,,,,,,,,,,,,,,,,,,,,,,,,,,,,,,,,,,,,,,,,,,,,,,,,,,,,,
,,?,0.000585,0,,,,,,stimuli/images/PICTURE_453.png,DUDE,5c598b3704bbff000140a506,25/03/1997,2020-09-02_12h28.47.335,proactive3.2,2020.1.2,MacIntel,60,5f47c0b9b035471e11593a5c,5f4f81a9d786b703eabbf21e,1,,,,,,scissors,,,,,,,,,,,3,0,0,53,53,27,1,,,,,,,,,,,,,,,,,,,,,,,,,,,,,,,,,,,,,,,,,,,,,,,,,,,,,,,,,,,,,,,,,,,,,,
,,?,0.00113,0,,,,,,stimuli/images/PICTURE_380.png,PHOTO,5c598b3704bbff000140a506,25/03/1997,2020-09-02_12h28.47.335,proactive3.2,2020.1.2,MacIntel,60,5f47c0b9b035471e11593a5c,5f4f81a9d786b703eabbf21e,1,,,,,,gorilla,,,,,,,,,,,6,0,0,54,54,52,1,,,,,,,,,,,,,,,,,,,,,,,,,,,,,,,,,,,,,,,,,,,,,,,,,,,,,,,,,,,,,,,,,,,,,,
,,TRAVEL,8.19623,0,,,,,,stimuli/images/PICTURE_487.png,FLIGHT,5c598b3704bbff000140a506,25/03/1997,2020-09-02_12h28.47.335,proactive3.2,2020.1.2,MacIntel,60,5f47c0b9b035471e11593a5c,5f4f81a9d786b703eabbf21e,1,,,,,,basket,,,,,,,,,,,1,0,0,55,55,9,1,,,,,,,,,,,,,,,,,,,,,,,,,,,,,,,,,,,,,,,,,,,,,,,,,,,,,,,,,,,,,,,,,,,,,,
,,?,0.00138,0,,,,,,stimuli/images/PICTURE_95.png,STYLE,5c598b3704bbff000140a506,25/03/1997,2020-09-02_12h28.47.335,proactive3.2,2020.1.2,MacIntel,60,5f47c0b9b035471e11593a5c,5f4f81a9d786b703eabbf21e,1,,,,,,suitcase,,,,,,,,,,,3,0,0,56,56,25,1,,,,,,,,,,,,,,,,,,,,,,,,,,,,,,,,,,,,,,,,,,,,,,,,,,,,,,,,,,,,,,,,,,,,,,
,,?,0.00051,0,,,,,,stimuli/images/PICTURE_708.png,PENNY,5c598b3704bbff000140a506,25/03/1997,2020-09-02_12h28.47.335,proactive3.2,2020.1.2,MacIntel,60,5f47c0b9b035471e11593a5c,5f4f81a9d786b703eabbf21e,1,,,,,,monkey,,,,,,,,,,,4,0,0,57,57,31,1,,,,,,,,,,,,,,,,,,,,,,,,,,,,,,,,,,,,,,,,,,,,,,,,,,,,,,,,,,,,,,,,,,,,,,
,,?,0.000485,0,,,,,,stimuli/images/PICTURE_509.png,PHOTO,5c598b3704bbff000140a506,25/03/1997,2020-09-02_12h28.47.335,proactive3.2,2020.1.2,MacIntel,60,5f47c0b9b035471e11593a5c,5f4f81a9d786b703eabbf21e,1,,,,,,telephone,,,,,,,,,,,3,0,0,58,58,21,1,,,,,,,,,,,,,,,,,,,,,,,,,,,,,,,,,,,,,,,,,,,,,,,,,,,,,,,,,,,,,,,,,,,,,,
,,?,0.000575,0,,,,,,stimuli/images/PICTURE_449.png,THING,5c598b3704bbff000140a506,25/03/1997,2020-09-02_12h28.47.335,proactive3.2,2020.1.2,MacIntel,60,5f47c0b9b035471e11593a5c,5f4f81a9d786b703eabbf21e,1,,,,,,bench,,,,,,,,,,,6,0,0,59,59,59,1,,,,,,,,,,,,,,,,,,,,,,,,,,,,,,,,,,,,,,,,,,,,,,,,,,,,,,,,,,,,,,,,,,,,,,
,,,,,,,,,,,,5c598b3704bbff000140a506,25/03/1997,2020-09-02_12h28.47.335,proactive3.2,2020.1.2,MacIntel,60,5f47c0b9b035471e11593a5c,5f4f81a9d786b703eabbf21e,1,,,,,,,,,,,,,,,,,,,,,,,,0,0,0,0,1,stimuli/learn-block1.csv,,,,,,,,,,,,,,,,,,,,,,,,,,,,,,,,,,,,,,,,,,,,,,,,,,,,,,,,,,,,,,,,
,,,,,,,,,,stimuli/images/PICTURE_327.png,SERIES,5c598b3704bbff000140a506,25/03/1997,2020-09-02_12h28.47.335,proactive3.2,2020.1.2,MacIntel,60,5f47c0b9b035471e11593a5c,5f4f81a9d786b703eabbf21e,1,,,,,,helmet,,,,,,0,0,0,3,1,1,1,,,,,,,,,,,,,,,,,,,,,,,,,,,,,,,,,,,,,,,,,,,,,,,,,,,,,,,,,,,,,,,,,,,,,,,,,,,
,,,,,,,,,,stimuli/images/PICTURE_296.png,LOTS,5c598b3704bbff000140a506,25/03/1997,2020-09-02_12h28.47.335,proactive3.2,2020.1.2,MacIntel,60,5f47c0b9b035471e11593a5c,5f4f81a9d786b703eabbf21e,1,,,,,,bolt,,,,,,0,1,1,9,1,1,1,,,,,,,,,,,,,,,,,,,,,,,,,,,,,,,,,,,,,,,,,,,,,,,,,,,,,,,,,,,,,,,,,,,,,,,,,,,
,,,,,,,,,,stimuli/images/PICTURE_285.png,LIFE,5c598b3704bbff000140a506,25/03/1997,2020-09-02_12h28.47.335,proactive3.2,2020.1.2,MacIntel,60,5f47c0b9b035471e11593a5c,5f4f81a9d786b703eabbf21e,1,,,,,,carrot,,,,,,0,2,2,33,1,4,1,,,,,,,,,,,,,,,,,,,,,,,,,,,,,,,,,,,,,,,,,,,,,,,,,,,,,,,,,,,,,,,,,,,,,,,,,,,
,,,,,,,,,,stimuli/images/PICTURE_380.png,HONEY,5c598b3704bbff000140a506,25/03/1997,2020-09-02_12h28.47.335,proactive3.2,2020.1.2,MacIntel,60,5f47c0b9b035471e11593a5c,5f4f81a9d786b703eabbf21e,1,,,,,,gorilla,,,,,,0,3,3,19,1,2,1,,,,,,,,,,,,,,,,,,,,,,,,,,,,,,,,,,,,,,,,,,,,,,,,,,,,,,,,,,,,,,,,,,,,,,,,,,,
,,,,,,,,,,stimuli/images/PICTURE_85.png,TOILET,5c598b3704bbff000140a506,25/03/1997,2020-09-02_12h28.47.335,proactive3.2,2020.1.2,MacIntel,60,5f47c0b9b035471e11593a5c,5f4f81a9d786b703eabbf21e,1,,,,,,diamond,,,,,,0,4,4,48,1,5,1,,,,,,,,,,,,,,,,,,,,,,,,,,,,,,,,,,,,,,,,,,,,,,,,,,,,,,,,,,,,,,,,,,,,,,,,,,,
,,,,,,,,,,stimuli/images/PICTURE_85.png,NATION,5c598b3704bbff000140a506,25/03/1997,2020-09-02_12h28.47.335,proactive3.2,2020.1.2,MacIntel,60,5f47c0b9b035471e11593a5c,5f4f81a9d786b703eabbf21e,1,,,,,,diamond,,,,,,0,5,5,5,1,1,1,,,,,,,,,,,,,,,,,,,,,,,,,,,,,,,,,,,,,,,,,,,,,,,,,,,,,,,,,,,,,,,,,,,,,,,,,,,
,,,,,,,,,,stimuli/images/PICTURE_95.png,MILLER,5c598b3704bbff000140a506,25/03/1997,2020-09-02_12h28.47.335,proactive3.2,2020.1.2,MacIntel,60,5f47c0b9b035471e11593a5c,5f4f81a9d786b703eabbf21e,1,,,,,,suitcase,,,,,,0,6,6,56,1,6,1,,,,,,,,,,,,,,,,,,,,,,,,,,,,,,,,,,,,,,,,,,,,,,,,,,,,,,,,,,,,,,,,,,,,,,,,,,,
,,,,,,,,,,stimuli/images/PICTURE_108.png,FLIGHT,5c598b3704bbff000140a506,25/03/1997,2020-09-02_12h28.47.335,proactive3.2,2020.1.2,MacIntel,60,5f47c0b9b035471e11593a5c,5f4f81a9d786b703eabbf21e,1,,,,,,calendar,,,,,,0,7,7,59,1,6,1,,,,,,,,,,,,,,,,,,,,,,,,,,,,,,,,,,,,,,,,,,,,,,,,,,,,,,,,,,,,,,,,,,,,,,,,,,,
,,,,,,,,,,stimuli/images/PICTURE_32.png,PILLS,5c598b3704bbff000140a506,25/03/1997,2020-09-02_12h28.47.335,proactive3.2,2020.1.2,MacIntel,60,5f47c0b9b035471e11593a5c,5f4f81a9d786b703eabbf21e,1,,,,,,crown,,,,,,0,8,8,18,1,2,1,,,,,,,,,,,,,,,,,,,,,,,,,,,,,,,,,,,,,,,,,,,,,,,,,,,,,,,,,,,,,,,,,,,,,,,,,,,
,,,,,,,,,,stimuli/images/PICTURE_504.png,COPS,5c598b3704bbff000140a506,25/03/1997,2020-09-02_12h28.47.335,proactive3.2,2020.1.2,MacIntel,60,5f47c0b9b035471e11593a5c,5f4f81a9d786b703eabbf21e,1,,,,,,wheel,,,,,,0,9,9,52,1,6,1,,,,,,,,,,,,,,,,,,,,,,,,,,,,,,,,,,,,,,,,,,,,,,,,,,,,,,,,,,,,,,,,,,,,,,,,,,,
,,,,,,,,,,stimuli/images/PICTURE_340.png,LETTER,5c598b3704bbff000140a506,25/03/1997,2020-09-02_12h28.47.335,proactive3.2,2020.1.2,MacIntel,60,5f47c0b9b035471e11593a5c,5f4f81a9d786b703eabbf21e,1,,,,,,mirror,,,,,,0,10,10,24,1,3,1,,,,,,,,,,,,,,,,,,,,,,,,,,,,,,,,,,,,,,,,,,,,,,,,,,,,,,,,,,,,,,,,,,,,,,,,,,,
,,,,,,,,,,stimuli/images/PICTURE_469.png,AGENT,5c598b3704bbff000140a506,25/03/1997,2020-09-02_12h28.47.335,proactive3.2,2020.1.2,MacIntel,60,5f47c0b9b035471e11593a5c,5f4f81a9d786b703eabbf21e,1,,,,,,stool,,,,,,0,11,11,16,1,2,1,,,,,,,,,,,,,,,,,,,,,,,,,,,,,,,,,,,,,,,,,,,,,,,,,,,,,,,,,,,,,,,,,,,,,,,,,,,
,,,,,,,,,,stimuli/images/PICTURE_504.png,ARTIST,5c598b3704bbff000140a506,25/03/1997,2020-09-02_12h28.47.335,proactive3.2,2020.1.2,MacIntel,60,5f47c0b9b035471e11593a5c,5f4f81a9d786b703eabbf21e,1,,,,,,wheel,,,,,,0,12,12,49,1,5,1,,,,,,,,,,,,,,,,,,,,,,,,,,,,,,,,,,,,,,,,,,,,,,,,,,,,,,,,,,,,,,,,,,,,,,,,,,,
,,,,,,,,,,stimuli/images/PICTURE_491.png,GLASS,5c598b3704bbff000140a506,25/03/1997,2020-09-02_12h28.47.335,proactive3.2,2020.1.2,MacIntel,60,5f47c0b9b035471e11593a5c,5f4f81a9d786b703eabbf21e,1,,,,,,rug,,,,,,0,13,13,14,1,2,1,,,,,,,,,,,,,,,,,,,,,,,,,,,,,,,,,,,,,,,,,,,,,,,,,,,,,,,,,,,,,,,,,,,,,,,,,,,
,,,,,,,,,,stimuli/images/PICTURE_32.png,KIND,5c598b3704bbff000140a506,25/03/1997,2020-09-02_12h28.47.335,proactive3.2,2020.1.2,MacIntel,60,5f47c0b9b035471e11593a5c,5f4f81a9d786b703eabbf21e,1,,,,,,crown,,,,,,0,14,14,35,1,4,1,,,,,,,,,,,,,,,,,,,,,,,,,,,,,,,,,,,,,,,,,,,,,,,,,,,,,,,,,,,,,,,,,,,,,,,,,,,
,,,,,,,,,,stimuli/images/PICTURE_449.png,DUDE,5c598b3704bbff000140a506,25/03/1997,2020-09-02_12h28.47.335,proactive3.2,2020.1.2,MacIntel,60,5f47c0b9b035471e11593a5c,5f4f81a9d786b703eabbf21e,1,,,,,,bench,,,,,,0,15,15,17,1,2,1,,,,,,,,,,,,,,,,,,,,,,,,,,,,,,,,,,,,,,,,,,,,,,,,,,,,,,,,,,,,,,,,,,,,,,,,,,,
,,,,,,,,,,stimuli/images/PICTURE_383.png,SERIES,5c598b3704bbff000140a506,25/03/1997,2020-09-02_12h28.47.335,proactive3.2,2020.1.2,MacIntel,60,5f47c0b9b035471e11593a5c,5f4f81a9d786b703eabbf21e,1,,,,,,coin,,,,,,0,16,16,46,1,5,1,,,,,,,,,,,,,,,,,,,,,,,,,,,,,,,,,,,,,,,,,,,,,,,,,,,,,,,,,,,,,,,,,,,,,,,,,,,
,,,,,,,,,,stimuli/images/PICTURE_339.png,CLIENT,5c598b3704bbff000140a506,25/03/1997,2020-09-02_12h28.47.335,proactive3.2,2020.1.2,MacIntel,60,5f47c0b9b035471e11593a5c,5f4f81a9d786b703eabbf21e,1,,,,,,backpack,,,,,,0,17,17,11,1,2,1,,,,,,,,,,,,,,,,,,,,,,,,,,,,,,,,,,,,,,,,,,,,,,,,,,,,,,,,,,,,,,,,,,,,,,,,,,,
,,,,,,,,,,stimuli/images/PICTURE_95.png,BOYS,5c598b3704bbff000140a506,25/03/1997,2020-09-02_12h28.47.335,proactive3.2,2020.1.2,MacIntel,60,5f47c0b9b035471e11593a5c,5f4f81a9d786b703eabbf21e,1,,,,,,suitcase,,,,,,0,18,18,1,1,1,1,,,,,,,,,,,,,,,,,,,,,,,,,,,,,,,,,,,,,,,,,,,,,,,,,,,,,,,,,,,,,,,,,,,,,,,,,,,
,,,,,,,,,,stimuli/images/PICTURE_655.png,TOILET,5c598b3704bbff000140a506,25/03/1997,2020-09-02_12h28.47.335,proactive3.2,2020.1.2,MacIntel,60,5f47c0b9b035471e11593a5c,5f4f81a9d786b703eabbf21e,1,,,,,,megaphone,,,,,,0,19,19,12,1,2,1,,,,,,,,,,,,,,,,,,,,,,,,,,,,,,,,,,,,,,,,,,,,,,,,,,,,,,,,,,,,,,,,,,,,,,,,,,,
,,,,,,,,,,stimuli/images/PICTURE_491.png,RIVER,5c598b3704bbff000140a506,25/03/1997,2020-09-02_12h28.47.335,proactive3.2,2020.1.2,MacIntel,60,5f47c0b9b035471e11593a5c,5f4f81a9d786b703eabbf21e,1,,,,,,rug,,,,,,0,20,20,6,1,1,1,,,,,,,,,,,,,,,,,,,,,,,,,,,,,,,,,,,,,,,,,,,,,,,,,,,,,,,,,,,,,,,,,,,,,,,,,,,
,,,,,,,,,,stimuli/images/PICTURE_203.png,GODS,5c598b3704bbff000140a506,25/03/1997,2020-09-02_12h28.47.335,proactive3.2,2020.1.2,MacIntel,60,5f47c0b9b035471e11593a5c,5f4f81a9d786b703eabbf21e,1,,,,,,cap,,,,,,0,21,21,30,1,4,1,,,,,,,,,,,,,,,,,,,,,,,,,,,,,,,,,,,,,,,,,,,,,,,,,,,,,,,,,,,,,,,,,,,,,,,,,,,
,,,,,,,,,,stimuli/images/PICTURE_42.png,BOYS,5c598b3704bbff000140a506,25/03/1997,2020-09-02_12h28.47.335,proactive3.2,2020.1.2,MacIntel,60,5f47c0b9b035471e11593a5c,5f4f81a9d786b703eabbf21e,1,,,,,,pear,,,,,,0,22,22,55,1,6,1,,,,,,,,,,,,,,,,,,,,,,,,,,,,,,,,,,,,,,,,,,,,,,,,,,,,,,,,,,,,,,,,,,,,,,,,,,,
,,,,,,,,,,stimuli/images/PICTURE_750.png,HOTEL,5c598b3704bbff000140a506,25/03/1997,2020-09-02_12h28.47.335,proactive3.2,2020.1.2,MacIntel,60,5f47c0b9b035471e11593a5c,5f4f81a9d786b703eabbf21e,1,,,,,,kettle,,,,,,0,23,23,27,1,3,1,,,,,,,,,,,,,,,,,,,,,,,,,,,,,,,,,,,,,,,,,,,,,,,,,,,,,,,,,,,,,,,,,,,,,,,,,,,
,,,,,,,,,,stimuli/images/PICTURE_147.png,WOMEN,5c598b3704bbff000140a506,25/03/1997,2020-09-02_12h28.47.335,proactive3.2,2020.1.2,MacIntel,60,5f47c0b9b035471e11593a5c,5f4f81a9d786b703eabbf21e,1,,,,,,hanger,,,,,,0,24,24,7,1,1,1,,,,,,,,,,,,,,,,,,,,,,,,,,,,,,,,,,,,,,,,,,,,,,,,,,,,,,,,,,,,,,,,,,,,,,,,,,,
,,,,,,,,,,stimuli/images/PICTURE_95.png,HONEY,5c598b3704bbff000140a506,25/03/1997,2020-09-02_12h28.47.335,proactive3.2,2020.1.2,MacIntel,60,5f47c0b9b035471e11593a5c,5f4f81a9d786b703eabbf21e,1,,,,,,suitcase,,,,,,0,25,25,44,1,5,1,,,,,,,,,,,,,,,,,,,,,,,,,,,,,,,,,,,,,,,,,,,,,,,,,,,,,,,,,,,,,,,,,,,,,,,,,,,
,,,,,,,,,,stimuli/images/PICTURE_147.png,YEAR,5c598b3704bbff000140a506,25/03/1997,2020-09-02_12h28.47.335,proactive3.2,2020.1.2,MacIntel,60,5f47c0b9b035471e11593a5c,5f4f81a9d786b703eabbf21e,1,,,,,,hanger,,,,,,0,26,26,21,1,3,1,,,,,,,,,,,,,,,,,,,,,,,,,,,,,,,,,,,,,,,,,,,,,,,,,,,,,,,,,,,,,,,,,,,,,,,,,,,
,,,,,,,,,,stimuli/images/PICTURE_203.png,NIGHT,5c598b3704bbff000140a506,25/03/1997,2020-09-02_12h28.47.335,proactive3.2,2020.1.2,MacIntel,60,5f47c0b9b035471e11593a5c,5f4f81a9d786b703eabbf21e,1,,,,,,cap,,,,,,0,27,27,2,1,1,1,,,,,,,,,,,,,,,,,,,,,,,,,,,,,,,,,,,,,,,,,,,,,,,,,,,,,,,,,,,,,,,,,,,,,,,,,,,
,,,,,,,,,,stimuli/images/PICTURE_340.png,VALLEY,5c598b3704bbff000140a506,25/03/1997,2020-09-02_12h28.47.335,proactive3.2,2020.1.2,MacIntel,60,5f47c0b9b035471e11593a5c,5f4f81a9d786b703eabbf21e,1,,,,,,mirror,,,,,,0,28,28,54,1,6,1,,,,,,,,,,,,,,,,,,,,,,,,,,,,,,,,,,,,,,,,,,,,,,,,,,,,,,,,,,,,,,,,,,,,,,,,,,,
,,,,,,,,,,stimuli/images/PICTURE_308.png,FAMILY,5c598b3704bbff000140a506,25/03/1997,2020-09-02_12h28.47.335,proactive3.2,2020.1.2,MacIntel,60,5f47c0b9b035471e11593a5c,5f4f81a9d786b703eabbf21e,1,,,,,,dice,,,,,,0,29,29,36,1,4,1,,,,,,,,,,,,,,,,,,,,,,,,,,,,,,,,,,,,,,,,,,,,,,,,,,,,,,,,,,,,,,,,,,,,,,,,,,,
,,,,,,,,,,stimuli/images/PICTURE_405.png,PLENTY,5c598b3704bbff000140a506,25/03/1997,2020-09-02_12h28.47.335,proactive3.2,2020.1.2,MacIntel,60,5f47c0b9b035471e11593a5c,5f4f81a9d786b703eabbf21e,1,,,,,,anchor,,,,,,0,30,30,23,1,3,1,,,,,,,,,,,,,,,,,,,,,,,,,,,,,,,,,,,,,,,,,,,,,,,,,,,,,,,,,,,,,,,,,,,,,,,,,,,
,,,,,,,,,,stimuli/images/PICTURE_380.png,CANDY,5c598b3704bbff000140a506,25/03/1997,2020-09-02_12h28.47.335,proactive3.2,2020.1.2,MacIntel,60,5f47c0b9b035471e11593a5c,5f4f81a9d786b703eabbf21e,1,,,,,,gorilla,,,,,,0,31,31,0,1,1,1,,,,,,,,,,,,,,,,,,,,,,,,,,,,,,,,,,,,,,,,,,,,,,,,,,,,,,,,,,,,,,,,,,,,,,,,,,,
,,,,,,,,,,stimuli/images/PICTURE_296.png,LIFE,5c598b3704bbff000140a506,25/03/1997,2020-09-02_12h28.47.335,proactive3.2,2020.1.2,MacIntel,60,5f47c0b9b035471e11593a5c,5f4f81a9d786b703eabbf21e,1,,,,,,bolt,,,,,,0,32,32,57,1,6,1,,,,,,,,,,,,,,,,,,,,,,,,,,,,,,,,,,,,,,,,,,,,,,,,,,,,,,,,,,,,,,,,,,,,,,,,,,,
,,,,,,,,,,stimuli/images/PICTURE_233.png,LOTS,5c598b3704bbff000140a506,25/03/1997,2020-09-02_12h28.47.335,proactive3.2,2020.1.2,MacIntel,60,5f47c0b9b035471e11593a5c,5f4f81a9d786b703eabbf21e,1,,,,,,salt,,,,,,0,33,33,42,1,5,1,,,,,,,,,,,,,,,,,,,,,,,,,,,,,,,,,,,,,,,,,,,,,,,,,,,,,,,,,,,,,,,,,,,,,,,,,,,
,,,,,,,,,,stimuli/images/PICTURE_654.png,MONTH,5c598b3704bbff000140a506,25/03/1997,2020-09-02_12h28.47.335,proactive3.2,2020.1.2,MacIntel,60,5f47c0b9b035471e11593a5c,5f4f81a9d786b703eabbf21e,1,,,,,,pencil,,,,,,0,34,34,29,1,3,1,,,,,,,,,,,,,,,,,,,,,,,,,,,,,,,,,,,,,,,,,,,,,,,,,,,,,,,,,,,,,,,,,,,,,,,,,,,
,,,,,,,,,,stimuli/images/PICTURE_208.png,SYSTEM,5c598b3704bbff000140a506,25/03/1997,2020-09-02_12h28.47.335,proactive3.2,2020.1.2,MacIntel,60,5f47c0b9b035471e11593a5c,5f4f81a9d786b703eabbf21e,1,,,,,,microphone,,,,,,0,35,35,32,1,4,1,,,,,,,,,,,,,,,,,,,,,,,,,,,,,,,,,,,,,,,,,,,,,,,,,,,,,,,,,,,,,,,,,,,,,,,,,,,
,,,,,,,,,,stimuli/images/PICTURE_403.png,WRITER,5c598b3704bbff000140a506,25/03/1997,2020-09-02_12h28.47.335,proactive3.2,2020.1.2,MacIntel,60,5f47c0b9b035471e11593a5c,5f4f81a9d786b703eabbf21e,1,,,,,,cathedral,,,,,,0,36,36,31,1,4,1,,,,,,,,,,,,,,,,,,,,,,,,,,,,,,,,,,,,,,,,,,,,,,,,,,,,,,,,,,,,,,,,,,,,,,,,,,,
,,,,,,,,,,stimuli/images/PICTURE_403.png,TOILET,5c598b3704bbff000140a506,25/03/1997,2020-09-02_12h28.47.335,proactive3.2,2020.1.2,MacIntel,60,5f47c0b9b035471e11593a5c,5f4f81a9d786b703eabbf21e,1,,,,,,cathedral,,,,,,0,37,37,25,1,3,1,,,,,,,,,,,,,,,,,,,,,,,,,,,,,,,,,,,,,,,,,,,,,,,,,,,,,,,,,,,,,,,,,,,,,,,,,,,
,,,,,,,,,,stimuli/images/PICTURE_744.png,WEAPON,5c598b3704bbff000140a506,25/03/1997,2020-09-02_12h28.47.335,proactive3.2,2020.1.2,MacIntel,60,5f47c0b9b035471e11593a5c,5f4f81a9d786b703eabbf21e,1,,,,,,ring,,,,,,0,38,38,50,1,6,1,,,,,,,,,,,,,,,,,,,,,,,,,,,,,,,,,,,,,,,,,,,,,,,,,,,,,,,,,,,,,,,,,,,,,,,,,,,
,,,,,,,,,,stimuli/images/PICTURE_708.png,RECORD,5c598b3704bbff000140a506,25/03/1997,2020-09-02_12h28.47.335,proactive3.2,2020.1.2,MacIntel,60,5f47c0b9b035471e11593a5c,5f4f81a9d786b703eabbf21e,1,,,,,,monkey,,,,,,0,39,39,58,1,6,1,,,,,,,,,,,,,,,,,,,,,,,,,,,,,,,,,,,,,,,,,,,,,,,,,,,,,,,,,,,,,,,,,,,,,,,,,,,
,,,,,,,,,,stimuli/images/PICTURE_68.png,MILE,5c598b3704bbff000140a506,25/03/1997,2020-09-02_12h28.47.335,proactive3.2,2020.1.2,MacIntel,60,5f47c0b9b035471e11593a5c,5f4f81a9d786b703eabbf21e,1,,,,,,candle,,,,,,0,40,40,51,1,6,1,,,,,,,,,,,,,,,,,,,,,,,,,,,,,,,,,,,,,,,,,,,,,,,,,,,,,,,,,,,,,,,,,,,,,,,,,,,
,,,,,,,,,,stimuli/images/PICTURE_177.png,WRITER,5c598b3704bbff000140a506,25/03/1997,2020-09-02_12h28.47.335,proactive3.2,2020.1.2,MacIntel,60,5f47c0b9b035471e11593a5c,5f4f81a9d786b703eabbf21e,1,,,,,,mushroom,,,,,,0,41,41,41,1,5,1,,,,,,,,,,,,,,,,,,,,,,,,,,,,,,,,,,,,,,,,,,,,,,,,,,,,,,,,,,,,,,,,,,,,,,,,,,,
,,,,,,,,,,stimuli/images/PICTURE_2.png,FLIGHT,5c598b3704bbff000140a506,25/03/1997,2020-09-02_12h28.47.335,proactive3.2,2020.1.2,MacIntel,60,5f47c0b9b035471e11593a5c,5f4f81a9d786b703eabbf21e,1,,,,,,tyre,,,,,,0,42,42,15,1,2,1,,,,,,,,,,,,,,,,,,,,,,,,,,,,,,,,,,,,,,,,,,,,,,,,,,,,,,,,,,,,,,,,,,,,,,,,,,,
,,,,,,,,,,stimuli/images/PICTURE_403.png,RIVER,5c598b3704bbff000140a506,25/03/1997,2020-09-02_12h28.47.335,proactive3.2,2020.1.2,MacIntel,60,5f47c0b9b035471e11593a5c,5f4f81a9d786b703eabbf21e,1,,,,,,cathedral,,,,,,0,43,43,40,1,5,1,,,,,,,,,,,,,,,,,,,,,,,,,,,,,,,,,,,,,,,,,,,,,,,,,,,,,,,,,,,,,,,,,,,,,,,,,,,
,,,,,,,,,,stimuli/images/PICTURE_405.png,YEAR,5c598b3704bbff000140a506,25/03/1997,2020-09-02_12h28.47.335,proactive3.2,2020.1.2,MacIntel,60,5f47c0b9b035471e11593a5c,5f4f81a9d786b703eabbf21e,1,,,,,,anchor,,,,,,0,44,44,34,1,4,1,,,,,,,,,,,,,,,,,,,,,,,,,,,,,,,,,,,,,,,,,,,,,,,,,,,,,,,,,,,,,,,,,,,,,,,,,,,
,,,,,,,,,,stimuli/images/PICTURE_487.png,GIRL,5c598b3704bbff000140a506,25/03/1997,2020-09-02_12h28.47.335,proactive3.2,2020.1.2,MacIntel,60,5f47c0b9b035471e11593a5c,5f4f81a9d786b703eabbf21e,1,,,,,,basket,,,,,,0,45,45,45,1,5,1,,,,,,,,,,,,,,,,,,,,,,,,,,,,,,,,,,,,,,,,,,,,,,,,,,,,,,,,,,,,,,,,,,,,,,,,,,,
,,,,,,,,,,stimuli/images/PICTURE_108.png,POLICY,5c598b3704bbff000140a506,25/03/1997,2020-09-02_12h28.47.335,proactive3.2,2020.1.2,MacIntel,60,5f47c0b9b035471e11593a5c,5f4f81a9d786b703eabbf21e,1,,,,,,calendar,,,,,,0,46,46,22,1,3,1,,,,,,,,,,,,,,,,,,,,,,,,,,,,,,,,,,,,,,,,,,,,,,,,,,,,,,,,,,,,,,,,,,,,,,,,,,,
,,,,,,,,,,stimuli/images/PICTURE_68.png,ROOF,5c598b3704bbff000140a506,25/03/1997,2020-09-02_12h28.47.335,proactive3.2,2020.1.2,MacIntel,60,5f47c0b9b035471e11593a5c,5f4f81a9d786b703eabbf21e,1,,,,,,candle,,,,,,0,47,47,38,1,4,1,,,,,,,,,,,,,,,,,,,,,,,,,,,,,,,,,,,,,,,,,,,,,,,,,,,,,,,,,,,,,,,,,,,,,,,,,,,
,,,,,,,,,,stimuli/images/PICTURE_667.png,RIVER,5c598b3704bbff000140a506,25/03/1997,2020-09-02_12h28.47.335,proactive3.2,2020.1.2,MacIntel,60,5f47c0b9b035471e11593a5c,5f4f81a9d786b703eabbf21e,1,,,,,,daisy,,,,,,0,48,48,10,1,2,1,,,,,,,,,,,,,,,,,,,,,,,,,,,,,,,,,,,,,,,,,,,,,,,,,,,,,,,,,,,,,,,,,,,,,,,,,,,
,,,,,,,,,,stimuli/images/PICTURE_504.png,YEAR,5c598b3704bbff000140a506,25/03/1997,2020-09-02_12h28.47.335,proactive3.2,2020.1.2,MacIntel,60,5f47c0b9b035471e11593a5c,5f4f81a9d786b703eabbf21e,1,,,,,,wheel,,,,,,0,49,49,13,1,2,1,,,,,,,,,,,,,,,,,,,,,,,,,,,,,,,,,,,,,,,,,,,,,,,,,,,,,,,,,,,,,,,,,,,,,,,,,,,
,,,,,,,,,,stimuli/images/PICTURE_675.png,SALE,5c598b3704bbff000140a506,25/03/1997,2020-09-02_12h28.47.335,proactive3.2,2020.1.2,MacIntel,60,5f47c0b9b035471e11593a5c,5f4f81a9d786b703eabbf21e,1,,,,,,windmill,,,,,,0,50,50,47,1,5,1,,,,,,,,,,,,,,,,,,,,,,,,,,,,,,,,,,,,,,,,,,,,,,,,,,,,,,,,,,,,,,,,,,,,,,,,,,,
,,,,,,,,,,stimuli/images/PICTURE_327.png,CASINO,5c598b3704bbff000140a506,25/03/1997,2020-09-02_12h28.47.335,proactive3.2,2020.1.2,MacIntel,60,5f47c0b9b035471e11593a5c,5f4f81a9d786b703eabbf21e,1,,,,,,helmet,,,,,,0,51,51,20,1,3,1,,,,,,,,,,,,,,,,,,,,,,,,,,,,,,,,,,,,,,,,,,,,,,,,,,,,,,,,,,,,,,,,,,,,,,,,,,,
,,,,,,,,,,stimuli/images/PICTURE_297.png,RIVER,5c598b3704bbff000140a506,25/03/1997,2020-09-02_12h28.47.335,proactive3.2,2020.1.2,MacIntel,60,5f47c0b9b035471e11593a5c,5f4f81a9d786b703eabbf21e,1,,,,,,aeroplane,,,,,,0,52,52,39,1,4,1,,,,,,,,,,,,,,,,,,,,,,,,,,,,,,,,,,,,,,,,,,,,,,,,,,,,,,,,,,,,,,,,,,,,,,,,,,,
,,,,,,,,,,stimuli/images/PICTURE_383.png,WRITER,5c598b3704bbff000140a506,25/03/1997,2020-09-02_12h28.47.335,proactive3.2,2020.1.2,MacIntel,60,5f47c0b9b035471e11593a5c,5f4f81a9d786b703eabbf21e,1,,,,,,coin,,,,,,0,53,53,28,1,3,1,,,,,,,,,,,,,,,,,,,,,,,,,,,,,,,,,,,,,,,,,,,,,,,,,,,,,,,,,,,,,,,,,,,,,,,,,,,
,,,,,,,,,,stimuli/images/PICTURE_467.png,POLICY,5c598b3704bbff000140a506,25/03/1997,2020-09-02_12h28.47.335,proactive3.2,2020.1.2,MacIntel,60,5f47c0b9b035471e11593a5c,5f4f81a9d786b703eabbf21e,1,,,,,,peg,,,,,,0,54,54,53,1,6,1,,,,,,,,,,,,,,,,,,,,,,,,,,,,,,,,,,,,,,,,,,,,,,,,,,,,,,,,,,,,,,,,,,,,,,,,,,,
,,,,,,,,,,stimuli/images/PICTURE_677.png,APPLE,5c598b3704bbff000140a506,25/03/1997,2020-09-02_12h28.47.335,proactive3.2,2020.1.2,MacIntel,60,5f47c0b9b035471e11593a5c,5f4f81a9d786b703eabbf21e,1,,,,,,map,,,,,,0,55,55,43,1,5,1,,,,,,,,,,,,,,,,,,,,,,,,,,,,,,,,,,,,,,,,,,,,,,,,,,,,,,,,,,,,,,,,,,,,,,,,,,,
,,,,,,,,,,stimuli/images/PICTURE_33.png,FRIEND,5c598b3704bbff000140a506,25/03/1997,2020-09-02_12h28.47.335,proactive3.2,2020.1.2,MacIntel,60,5f47c0b9b035471e11593a5c,5f4f81a9d786b703eabbf21e,1,,,,,,frame,,,,,,0,56,56,8,1,1,1,,,,,,,,,,,,,,,,,,,,,,,,,,,,,,,,,,,,,,,,,,,,,,,,,,,,,,,,,,,,,,,,,,,,,,,,,,,
,,,,,,,,,,stimuli/images/PICTURE_685.png,PENNY,5c598b3704bbff000140a506,25/03/1997,2020-09-02_12h28.47.335,proactive3.2,2020.1.2,MacIntel,60,5f47c0b9b035471e11593a5c,5f4f81a9d786b703eabbf21e,1,,,,,,goose,,,,,,0,57,57,4,1,1,1,,,,,,,,,,,,,,,,,,,,,,,,,,,,,,,,,,,,,,,,,,,,,,,,,,,,,,,,,,,,,,,,,,,,,,,,,,,
,,,,,,,,,,stimuli/images/PICTURE_57.png,MOMENT,5c598b3704bbff000140a506,25/03/1997,2020-09-02_12h28.47.335,proactive3.2,2020.1.2,MacIntel,60,5f47c0b9b035471e11593a5c,5f4f81a9d786b703eabbf21e,1,,,,,,stamp,,,,,,0,58,58,37,1,4,1,,,,,,,,,,,,,,,,,,,,,,,,,,,,,,,,,,,,,,,,,,,,,,,,,,,,,,,,,,,,,,,,,,,,,,,,,,,
,,?,0.00066,0,,,,,,stimuli/images/PICTURE_68.png,MILE,5c598b3704bbff000140a506,25/03/1997,2020-09-02_12h28.47.335,proactive3.2,2020.1.2,MacIntel,60,5f47c0b9b035471e11593a5c,5f4f81a9d786b703eabbf21e,1,,,,,,candle,,,,,,,,,,,6,1,0,0,0,51,1,,,,,,,,,,,,,,,,,,,,,,,,,,,,,,,,,,,,,,,,,,,,,,,,,,,,,,,,,,,,,,,,,,,,,,
,,?,0.000595,0,,,,,,stimuli/images/PICTURE_655.png,TOILET,5c598b3704bbff000140a506,25/03/1997,2020-09-02_12h28.47.335,proactive3.2,2020.1.2,MacIntel,60,5f47c0b9b035471e11593a5c,5f4f81a9d786b703eabbf21e,1,,,,,,megaphone,,,,,,,,,,,2,1,0,1,1,12,1,,,,,,,,,,,,,,,,,,,,,,,,,,,,,,,,,,,,,,,,,,,,,,,,,,,,,,,,,,,,,,,,,,,,,,
,,?,0.00064,0,,,,,,stimuli/images/PICTURE_383.png,SERIES,5c598b3704bbff000140a506,25/03/1997,2020-09-02_12h28.47.335,proactive3.2,2020.1.2,MacIntel,60,5f47c0b9b035471e11593a5c,5f4f81a9d786b703eabbf21e,1,,,,,,coin,,,,,,,,,,,5,1,0,2,2,46,1,,,,,,,,,,,,,,,,,,,,,,,,,,,,,,,,,,,,,,,,,,,,,,,,,,,,,,,,,,,,,,,,,,,,,,
,,?,0.000415,0,,,,,,stimuli/images/PICTURE_297.png,RIVER,5c598b3704bbff000140a506,25/03/1997,2020-09-02_12h28.47.335,proactive3.2,2020.1.2,MacIntel,60,5f47c0b9b035471e11593a5c,5f4f81a9d786b703eabbf21e,1,,,,,,aeroplane,,,,,,,,,,,4,1,0,3,3,39,1,,,,,,,,,,,,,,,,,,,,,,,,,,,,,,,,,,,,,,,,,,,,,,,,,,,,,,,,,,,,,,,,,,,,,,
,,?,0.000405,0,,,,,,stimuli/images/PICTURE_208.png,SYSTEM,5c598b3704bbff000140a506,25/03/1997,2020-09-02_12h28.47.335,proactive3.2,2020.1.2,MacIntel,60,5f47c0b9b035471e11593a5c,5f4f81a9d786b703eabbf21e,1,,,,,,microphone,,,,,,,,,,,4,1,0,4,4,32,1,,,,,,,,,,,,,,,,,,,,,,,,,,,,,,,,,,,,,,,,,,,,,,,,,,,,,,,,,,,,,,,,,,,,,,
,,?,0.00135,0,,,,,,stimuli/images/PICTURE_108.png,POLICY,5c598b3704bbff000140a506,25/03/1997,2020-09-02_12h28.47.335,proactive3.2,2020.1.2,MacIntel,60,5f47c0b9b035471e11593a5c,5f4f81a9d786b703eabbf21e,1,,,,,,calendar,,,,,,,,,,,3,1,0,5,5,22,1,,,,,,,,,,,,,,,,,,,,,,,,,,,,,,,,,,,,,,,,,,,,,,,,,,,,,,,,,,,,,,,,,,,,,,
,,?,0.00037,0,,,,,,stimuli/images/PICTURE_467.png,POLICY,5c598b3704bbff000140a506,25/03/1997,2020-09-02_12h28.47.335,proactive3.2,2020.1.2,MacIntel,60,5f47c0b9b035471e11593a5c,5f4f81a9d786b703eabbf21e,1,,,,,,peg,,,,,,,,,,,6,1,0,6,6,53,1,,,,,,,,,,,,,,,,,,,,,,,,,,,,,,,,,,,,,,,,,,,,,,,,,,,,,,,,,,,,,,,,,,,,,,
,,?,0.000385,0,,,,,,stimuli/images/PICTURE_564.png,BATH,5c598b3704bbff000140a506,25/03/1997,2020-09-02_12h28.47.335,proactive3.2,2020.1.2,MacIntel,60,5f47c0b9b035471e11593a5c,5f4f81a9d786b703eabbf21e,1,,,,,,spoon,,,,,,,,,,,3,1,0,7,7,26,1,,,,,,,,,,,,,,,,,,,,,,,,,,,,,,,,,,,,,,,,,,,,,,,,,,,,,,,,,,,,,,,,,,,,,,
,,?,0.00054,0,,,,,,stimuli/images/PICTURE_308.png,FAMILY,5c598b3704bbff000140a506,25/03/1997,2020-09-02_12h28.47.335,proactive3.2,2020.1.2,MacIntel,60,5f47c0b9b035471e11593a5c,5f4f81a9d786b703eabbf21e,1,,,,,,dice,,,,,,,,,,,4,1,0,8,8,36,1,,,,,,,,,,,,,,,,,,,,,,,,,,,,,,,,,,,,,,,,,,,,,,,,,,,,,,,,,,,,,,,,,,,,,,
,,SERIES,2.96671,1,,,,,,stimuli/images/PICTURE_327.png,SERIES,5c598b3704bbff000140a506,25/03/1997,2020-09-02_12h28.47.335,proactive3.2,2020.1.2,MacIntel,60,5f47c0b9b035471e11593a5c,5f4f81a9d786b703eabbf21e,1,,,,,,helmet,,,,,,,,,,,1,1,0,9,9,3,1,,,,,,,,,,,,,,,,,,,,,,,,,,,,,,,,,,,,,,,,,,,,,,,,,,,,,,,,,,,,,,,,,,,,,,
,,?,0.000965,0,,,,,,stimuli/images/PICTURE_42.png,BOYS,5c598b3704bbff000140a506,25/03/1997,2020-09-02_12h28.47.335,proactive3.2,2020.1.2,MacIntel,60,5f47c0b9b035471e11593a5c,5f4f81a9d786b703eabbf21e,1,,,,,,pear,,,,,,,,,,,6,1,0,10,10,55,1,,,,,,,,,,,,,,,,,,,,,,,,,,,,,,,,,,,,,,,,,,,,,,,,,,,,,,,,,,,,,,,,,,,,,,
,,?,0.00054,0,,,,,,stimuli/images/PICTURE_380.png,HONEY,5c598b3704bbff000140a506,25/03/1997,2020-09-02_12h28.47.335,proactive3.2,2020.1.2,MacIntel,60,5f47c0b9b035471e11593a5c,5f4f81a9d786b703eabbf21e,1,,,,,,gorilla,,,,,,,,,,,2,1,0,11,11,19,1,,,,,,,,,,,,,,,,,,,,,,,,,,,,,,,,,,,,,,,,,,,,,,,,,,,,,,,,,,,,,,,,,,,,,,
,,?,0.0004,0,,,,,,stimuli/images/PICTURE_675.png,SALE,5c598b3704bbff000140a506,25/03/1997,2020-09-02_12h28.47.335,proactive3.2,2020.1.2,MacIntel,60,5f47c0b9b035471e11593a5c,5f4f81a9d786b703eabbf21e,1,,,,,,windmill,,,,,,,,,,,5,1,0,12,12,47,1,,,,,,,,,,,,,,,,,,,,,,,,,,,,,,,,,,,,,,,,,,,,,,,,,,,,,,,,,,,,,,,,,,,,,,
,,NIGHT,2.09545,1,,,,,,stimuli/images/PICTURE_203.png,NIGHT,5c598b3704bbff000140a506,25/03/1997,2020-09-02_12h28.47.335,proactive3.2,2020.1.2,MacIntel,60,5f47c0b9b035471e11593a5c,5f4f81a9d786b703eabbf21e,1,,,,,,cap,,,,,,,,,,,1,1,0,13,13,2,1,,,,,,,,,,,,,,,,,,,,,,,,,,,,,,,,,,,,,,,,,,,,,,,,,,,,,,,,,,,,,,,,,,,,,,
,,?,0.001145,0,,,,,,stimuli/images/PICTURE_504.png,COPS,5c598b3704bbff000140a506,25/03/1997,2020-09-02_12h28.47.335,proactive3.2,2020.1.2,MacIntel,60,5f47c0b9b035471e11593a5c,5f4f81a9d786b703eabbf21e,1,,,,,,wheel,,,,,,,,,,,6,1,0,14,14,52,1,,,,,,,,,,,,,,,,,,,,,,,,,,,,,,,,,,,,,,,,,,,,,,,,,,,,,,,,,,,,,,,,,,,,,,
,,?,0.000455,0,,,,,,stimuli/images/PICTURE_233.png,LOTS,5c598b3704bbff000140a506,25/03/1997,2020-09-02_12h28.47.335,proactive3.2,2020.1.2,MacIntel,60,5f47c0b9b035471e11593a5c,5f4f81a9d786b703eabbf21e,1,,,,,,salt,,,,,,,,,,,5,1,0,15,15,42,1,,,,,,,,,,,,,,,,,,,,,,,,,,,,,,,,,,,,,,,,,,,,,,,,,,,,,,,,,,,,,,,,,,,,,,
,,BOY,1.91228,0,,,,,,stimuli/images/PICTURE_95.png,BOYS,5c598b3704bbff000140a506,25/03/1997,2020-09-02_12h28.47.335,proactive3.2,2020.1.2,MacIntel,60,5f47c0b9b035471e11593a5c,5f4f81a9d786b703eabbf21e,1,,,,,,suitcase,,,,,,,,,,,1,1,0,16,16,1,1,,,,,,,,,,,,,,,,,,,,,,,,,,,,,,,,,,,,,,,,,,,,,,,,,,,,,,,,,,,,,,,,,,,,,,
,,?,0.00148,0,,,,,,stimuli/images/PICTURE_108.png,FLIGHT,5c598b3704bbff000140a506,25/03/1997,2020-09-02_12h28.47.335,proactive3.2,2020.1.2,MacIntel,60,5f47c0b9b035471e11593a5c,5f4f81a9d786b703eabbf21e,1,,,,,,calendar,,,,,,,,,,,6,1,0,17,17,59,1,,,,,,,,,,,,,,,,,,,,,,,,,,,,,,,,,,,,,,,,,,,,,,,,,,,,,,,,,,,,,,,,,,,,,,
,,PENNY,2.72828,1,,,,,,stimuli/images/PICTURE_685.png,PENNY,5c598b3704bbff000140a506,25/03/1997,2020-09-02_12h28.47.335,proactive3.2,2020.1.2,MacIntel,60,5f47c0b9b035471e11593a5c,5f4f81a9d786b703eabbf21e,1,,,,,,goose,,,,,,,,,,,1,1,0,18,18,4,1,,,,,,,,,,,,,,,,,,,,,,,,,,,,,,,,,,,,,,,,,,,,,,,,,,,,,,,,,,,,,,,,,,,,,,
,,?,0.000575,0,,,,,,stimuli/images/PICTURE_667.png,RIVER,5c598b3704bbff000140a506,25/03/1997,2020-09-02_12h28.47.335,proactive3.2,2020.1.2,MacIntel,60,5f47c0b9b035471e11593a5c,5f4f81a9d786b703eabbf21e,1,,,,,,daisy,,,,,,,,,,,2,1,0,19,19,10,1,,,,,,,,,,,,,,,,,,,,,,,,,,,,,,,,,,,,,,,,,,,,,,,,,,,,,,,,,,,,,,,,,,,,,,
,,?,0.00072,0,,,,,,stimuli/images/PICTURE_469.png,AGENT,5c598b3704bbff000140a506,25/03/1997,2020-09-02_12h28.47.335,proactive3.2,2020.1.2,MacIntel,60,5f47c0b9b035471e11593a5c,5f4f81a9d786b703eabbf21e,1,,,,,,stool,,,,,,,,,,,2,1,0,20,20,16,1,,,,,,,,,,,,,,,,,,,,,,,,,,,,,,,,,,,,,,,,,,,,,,,,,,,,,,,,,,,,,,,,,,,,,,
,,?,0.000465,0,,,,,,stimuli/images/PICTURE_403.png,TOILET,5c598b3704bbff000140a506,25/03/1997,2020-09-02_12h28.47.335,proactive3.2,2020.1.2,MacIntel,60,5f47c0b9b035471e11593a5c,5f4f81a9d786b703eabbf21e,1,,,,,,cathedral,,,,,,,,,,,3,1,0,21,21,25,1,,,,,,,,,,,,,,,,,,,,,,,,,,,,,,,,,,,,,,,,,,,,,,,,,,,,,,,,,,,,,,,,,,,,,,
,,?,0.000405,0,,,,,,stimuli/images/PICTURE_340.png,VALLEY,5c598b3704bbff000140a506,25/03/1997,2020-09-02_12h28.47.335,proactive3.2,2020.1.2,MacIntel,60,5f47c0b9b035471e11593a5c,5f4f81a9d786b703eabbf21e,1,,,,,,mirror,,,,,,,,,,,6,1,0,22,22,54,1,,,,,,,,,,,,,,,,,,,,,,,,,,,,,,,,,,,,,,,,,,,,,,,,,,,,,,,,,,,,,,,,,,,,,,
,,?,0.00045,0,,,,,,stimuli/images/PICTURE_203.png,GODS,5c598b3704bbff000140a506,25/03/1997,2020-09-02_12h28.47.335,proactive3.2,2020.1.2,MacIntel,60,5f47c0b9b035471e11593a5c,5f4f81a9d786b703eabbf21e,1,,,,,,cap,,,,,,,,,,,4,1,0,23,23,30,1,,,,,,,,,,,,,,,,,,,,,,,,,,,,,,,,,,,,,,,,,,,,,,,,,,,,,,,,,,,,,,,,,,,,,,
,,?,0.00044,0,,,,,,stimuli/images/PICTURE_750.png,HOTEL,5c598b3704bbff000140a506,25/03/1997,2020-09-02_12h28.47.335,proactive3.2,2020.1.2,MacIntel,60,5f47c0b9b035471e11593a5c,5f4f81a9d786b703eabbf21e,1,,,,,,kettle,,,,,,,,,,,3,1,0,24,24,27,1,,,,,,,,,,,,,,,,,,,,,,,,,,,,,,,,,,,,,,,,,,,,,,,,,,,,,,,,,,,,,,,,,,,,,,
,,?,0.00043,0,,,,,,stimuli/images/PICTURE_95.png,MILLER,5c598b3704bbff000140a506,25/03/1997,2020-09-02_12h28.47.335,proactive3.2,2020.1.2,MacIntel,60,5f47c0b9b035471e11593a5c,5f4f81a9d786b703eabbf21e,1,,,,,,suitcase,,,,,,,,,,,6,1,0,25,25,56,1,,,,,,,,,,,,,,,,,,,,,,,,,,,,,,,,,,,,,,,,,,,,,,,,,,,,,,,,,,,,,,,,,,,,,,
,,RIVER,3.523685,1,,,,,,stimuli/images/PICTURE_491.png,RIVER,5c598b3704bbff000140a506,25/03/1997,2020-09-02_12h28.47.335,proactive3.2,2020.1.2,MacIntel,60,5f47c0b9b035471e11593a5c,5f4f81a9d786b703eabbf21e,1,,,,,,rug,,,,,,,,,,,1,1,0,26,26,6,1,,,,,,,,,,,,,,,,,,,,,,,,,,,,,,,,,,,,,,,,,,,,,,,,,,,,,,,,,,,,,,,,,,,,,,
,,?,0.00069,0,,,,,,stimuli/images/PICTURE_405.png,YEAR,5c598b3704bbff000140a506,25/03/1997,2020-09-02_12h28.47.335,proactive3.2,2020.1.2,MacIntel,60,5f47c0b9b035471e11593a5c,5f4f81a9d786b703eabbf21e,1,,,,,,anchor,,,,,,,,,,,4,1,0,27,27,34,1,,,,,,,,,,,,,,,,,,,,,,,,,,,,,,,,,,,,,,,,,,,,,,,,,,,,,,,,,,,,,,,,,,,,,,
,,?,0.000405,0,,,,,,stimuli/images/PICTURE_677.png,APPLE,5c598b3704bbff000140a506,25/03/1997,2020-09-02_12h28.47.335,proactive3.2,2020.1.2,MacIntel,60,5f47c0b9b035471e11593a5c,5f4f81a9d786b703eabbf21e,1,,,,,,map,,,,,,,,,,,5,1,0,28,28,43,1,,,,,,,,,,,,,,,,,,,,,,,,,,,,,,,,,,,,,,,,,,,,,,,,,,,,,,,,,,,,,,,,,,,,,,
,,?,0.000515,0,,,,,,stimuli/images/PICTURE_68.png,ROOF,5c598b3704bbff000140a506,25/03/1997,2020-09-02_12h28.47.335,proactive3.2,2020.1.2,MacIntel,60,5f47c0b9b035471e11593a5c,5f4f81a9d786b703eabbf21e,1,,,,,,candle,,,,,,,,,,,4,1,0,29,29,38,1,,,,,,,,,,,,,,,,,,,,,,,,,,,,,,,,,,,,,,,,,,,,,,,,,,,,,,,,,,,,,,,,,,,,,,
,,?,0.000395,0,,,,,,stimuli/images/PICTURE_296.png,LIFE,5c598b3704bbff000140a506,25/03/1997,2020-09-02_12h28.47.335,proactive3.2,2020.1.2,MacIntel,60,5f47c0b9b035471e11593a5c,5f4f81a9d786b703eabbf21e,1,,,,,,bolt,,,,,,,,,,,6,1,0,30,30,57,1,,,,,,,,,,,,,,,,,,,,,,,,,,,,,,,,,,,,,,,,,,,,,,,,,,,,,,,,,,,,,,,,,,,,,,
,,?,0.000365,0,,,,,,stimuli/images/PICTURE_744.png,WEAPON,5c598b3704bbff000140a506,25/03/1997,2020-09-02_12h28.47.335,proactive3.2,2020.1.2,MacIntel,60,5f47c0b9b035471e11593a5c,5f4f81a9d786b703eabbf21e,1,,,,,,ring,,,,,,,,,,,6,1,0,31,31,50,1,,,,,,,,,,,,,,,,,,,,,,,,,,,,,,,,,,,,,,,,,,,,,,,,,,,,,,,,,,,,,,,,,,,,,,
,,?,0.00041,0,,,,,,stimuli/images/PICTURE_95.png,HONEY,5c598b3704bbff000140a506,25/03/1997,2020-09-02_12h28.47.335,proactive3.2,2020.1.2,MacIntel,60,5f47c0b9b035471e11593a5c,5f4f81a9d786b703eabbf21e,1,,,,,,suitcase,,,,,,,,,,,5,1,0,32,32,44,1,,,,,,,,,,,,,,,,,,,,,,,,,,,,,,,,,,,,,,,,,,,,,,,,,,,,,,,,,,,,,,,,,,,,,,
,,NATION,3.355485,1,,,,,,stimuli/images/PICTURE_85.png,NATION,5c598b3704bbff000140a506,25/03/1997,2020-09-02_12h28.47.335,proactive3.2,2020.1.2,MacIntel,60,5f47c0b9b035471e11593a5c,5f4f81a9d786b703eabbf21e,1,,,,,,diamond,,,,,,,,,,,1,1,0,33,33,5,1,,,,,,,,,,,,,,,,,,,,,,,,,,,,,,,,,,,,,,,,,,,,,,,,,,,,,,,,,,,,,,,,,,,,,,
,,FEMALE,3.299065,0,,,,,,stimuli/images/PICTURE_147.png,WOMEN,5c598b3704bbff000140a506,25/03/1997,2020-09-02_12h28.47.335,proactive3.2,2020.1.2,MacIntel,60,5f47c0b9b035471e11593a5c,5f4f81a9d786b703eabbf21e,1,,,,,,hanger,,,,,,,,,,,1,1,0,34,34,7,1,,,,,,,,,,,,,,,,,,,,,,,,,,,,,,,,,,,,,,,,,,,,,,,,,,,,,,,,,,,,,,,,,,,,,,
,,?,0.00152,0,,,,,,stimuli/images/PICTURE_449.png,DUDE,5c598b3704bbff000140a506,25/03/1997,2020-09-02_12h28.47.335,proactive3.2,2020.1.2,MacIntel,60,5f47c0b9b035471e11593a5c,5f4f81a9d786b703eabbf21e,1,,,,,,bench,,,,,,,,,,,2,1,0,35,35,17,1,,,,,,,,,,,,,,,,,,,,,,,,,,,,,,,,,,,,,,,,,,,,,,,,,,,,,,,,,,,,,,,,,,,,,,
,,?,0.000415,0,,,,,,stimuli/images/PICTURE_339.png,CLIENT,5c598b3704bbff000140a506,25/03/1997,2020-09-02_12h28.47.335,proactive3.2,2020.1.2,MacIntel,60,5f47c0b9b035471e11593a5c,5f4f81a9d786b703eabbf21e,1,,,,,,backpack,,,,,,,,,,,2,1,0,36,36,11,1,,,,,,,,,,,,,,,,,,,,,,,,,,,,,,,,,,,,,,,,,,,,,,,,,,,,,,,,,,,,,,,,,,,,,,
,,?,0.00044,0,,,,,,stimuli/images/PICTURE_147.png,YEAR,5c598b3704bbff000140a506,25/03/1997,2020-09-02_12h28.47.335,proactive3.2,2020.1.2,MacIntel,60,5f47c0b9b035471e11593a5c,5f4f81a9d786b703eabbf21e,1,,,,,,hanger,,,,,,,,,,,3,1,0,37,37,21,1,,,,,,,,,,,,,,,,,,,,,,,,,,,,,,,,,,,,,,,,,,,,,,,,,,,,,,,,,,,,,,,,,,,,,,
,,FRIEND,2.411615,1,,,,,,stimuli/images/PICTURE_33.png,FRIEND,5c598b3704bbff000140a506,25/03/1997,2020-09-02_12h28.47.335,proactive3.2,2020.1.2,MacIntel,60,5f47c0b9b035471e11593a5c,5f4f81a9d786b703eabbf21e,1,,,,,,frame,,,,,,,,,,,1,1,0,38,38,8,1,,,,,,,,,,,,,,,,,,,,,,,,,,,,,,,,,,,,,,,,,,,,,,,,,,,,,,,,,,,,,,,,,,,,,,
,,?,0.00066,0,,,,,,stimuli/images/PICTURE_2.png,FLIGHT,5c598b3704bbff000140a506,25/03/1997,2020-09-02_12h28.47.335,proactive3.2,2020.1.2,MacIntel,60,5f47c0b9b035471e11593a5c,5f4f81a9d786b703eabbf21e,1,,,,,,tyre,,,,,,,,,,,2,1,0,39,39,15,1,,,,,,,,,,,,,,,,,,,,,,,,,,,,,,,,,,,,,,,,,,,,,,,,,,,,,,,,,,,,,,,,,,,,,,
,,?,0.00074,0,,,,,,stimuli/images/PICTURE_340.png,LETTER,5c598b3704bbff000140a506,25/03/1997,2020-09-02_12h28.47.335,proactive3.2,2020.1.2,MacIntel,60,5f47c0b9b035471e11593a5c,5f4f81a9d786b703eabbf21e,1,,,,,,mirror,,,,,,,,,,,3,1,0,40,40,24,1,,,,,,,,,,,,,,,,,,,,,,,,,,,,,,,,,,,,,,,,,,,,,,,,,,,,,,,,,,,,,,,,,,,,,,
,,?,0.00041,0,,,,,,stimuli/images/PICTURE_504.png,ARTIST,5c598b3704bbff000140a506,25/03/1997,2020-09-02_12h28.47.335,proactive3.2,2020.1.2,MacIntel,60,5f47c0b9b035471e11593a5c,5f4f81a9d786b703eabbf21e,1,,,,,,wheel,,,,,,,,,,,5,1,0,41,41,49,1,,,,,,,,,,,,,,,,,,,,,,,,,,,,,,,,,,,,,,,,,,,,,,,,,,,,,,,,,,,,,,,,,,,,,,
,,?,0.00049,0,,,,,,stimuli/images/PICTURE_405.png,PLENTY,5c598b3704bbff000140a506,25/03/1997,2020-09-02_12h28.47.335,proactive3.2,2020.1.2,MacIntel,60,5f47c0b9b035471e11593a5c,5f4f81a9d786b703eabbf21e,1,,,,,,anchor,,,,,,,,,,,3,1,0,42,42,23,1,,,,,,,,,,,,,,,,,,,,,,,,,,,,,,,,,,,,,,,,,,,,,,,,,,,,,,,,,,,,,,,,,,,,,,
,,CANDY,2.79271,1,,,,,,stimuli/images/PICTURE_380.png,CANDY,5c598b3704bbff000140a506,25/03/1997,2020-09-02_12h28.47.335,proactive3.2,2020.1.2,MacIntel,60,5f47c0b9b035471e11593a5c,5f4f81a9d786b703eabbf21e,1,,,,,,gorilla,,,,,,,,,,,1,1,0,43,43,0,1,,,,,,,,,,,,,,,,,,,,,,,,,,,,,,,,,,,,,,,,,,,,,,,,,,,,,,,,,,,,,,,,,,,,,,
,,?,0.000665,0,,,,,,stimuli/images/PICTURE_383.png,WRITER,5c598b3704bbff000140a506,25/03/1997,2020-09-02_12h28.47.335,proactive3.2,2020.1.2,MacIntel,60,5f47c0b9b035471e11593a5c,5f4f81a9d786b703eabbf21e,1,,,,,,coin,,,,,,,,,,,3,1,0,44,44,28,1,,,,,,,,,,,,,,,,,,,,,,,,,,,,,,,,,,,,,,,,,,,,,,,,,,,,,,,,,,,,,,,,,,,,,,
,,?,0.000695,0,,,,,,stimuli/images/PICTURE_491.png,GLASS,5c598b3704bbff000140a506,25/03/1997,2020-09-02_12h28.47.335,proactive3.2,2020.1.2,MacIntel,60,5f47c0b9b035471e11593a5c,5f4f81a9d786b703eabbf21e,1,,,,,,rug,,,,,,,,,,,2,1,0,45,45,14,1,,,,,,,,,,,,,,,,,,,,,,,,,,,,,,,,,,,,,,,,,,,,,,,,,,,,,,,,,,,,,,,,,,,,,,
,,?,0.00051,0,,,,,,stimuli/images/PICTURE_403.png,RIVER,5c598b3704bbff000140a506,25/03/1997,2020-09-02_12h28.47.335,proactive3.2,2020.1.2,MacIntel,60,5f47c0b9b035471e11593a5c,5f4f81a9d786b703eabbf21e,1,,,,,,cathedral,,,,,,,,,,,5,1,0,46,46,40,1,,,,,,,,,,,,,,,,,,,,,,,,,,,,,,,,,,,,,,,,,,,,,,,,,,,,,,,,,,,,,,,,,,,,,,
,,?,0.00051,0,,,,,,stimuli/images/PICTURE_85.png,TOILET,5c598b3704bbff000140a506,25/03/1997,2020-09-02_12h28.47.335,proactive3.2,2020.1.2,MacIntel,60,5f47c0b9b035471e11593a5c,5f4f81a9d786b703eabbf21e,1,,,,,,diamond,,,,,,,,,,,5,1,0,47,47,48,1,,,,,,,,,,,,,,,,,,,,,,,,,,,,,,,,,,,,,,,,,,,,,,,,,,,,,,,,,,,,,,,,,,,,,,
,,?,0.000385,0,,,,,,stimuli/images/PICTURE_654.png,MONTH,5c598b3704bbff000140a506,25/03/1997,2020-09-02_12h28.47.335,proactive3.2,2020.1.2,MacIntel,60,5f47c0b9b035471e11593a5c,5f4f81a9d786b703eabbf21e,1,,,,,,pencil,,,,,,,,,,,3,1,0,48,48,29,1,,,,,,,,,,,,,,,,,,,,,,,,,,,,,,,,,,,,,,,,,,,,,,,,,,,,,,,,,,,,,,,,,,,,,,
,,LOTS,3.24333,1,,,,,,stimuli/images/PICTURE_296.png,LOTS,5c598b3704bbff000140a506,25/03/1997,2020-09-02_12h28.47.335,proactive3.2,2020.1.2,MacIntel,60,5f47c0b9b035471e11593a5c,5f4f81a9d786b703eabbf21e,1,,,,,,bolt,,,,,,,,,,,1,1,0,49,49,9,1,,,,,,,,,,,,,,,,,,,,,,,,,,,,,,,,,,,,,,,,,,,,,,,,,,,,,,,,,,,,,,,,,,,,,,
,,?,0.00063,0,,,,,,stimuli/images/PICTURE_504.png,YEAR,5c598b3704bbff000140a506,25/03/1997,2020-09-02_12h28.47.335,proactive3.2,2020.1.2,MacIntel,60,5f47c0b9b035471e11593a5c,5f4f81a9d786b703eabbf21e,1,,,,,,wheel,,,,,,,,,,,2,1,0,50,50,13,1,,,,,,,,,,,,,,,,,,,,,,,,,,,,,,,,,,,,,,,,,,,,,,,,,,,,,,,,,,,,,,,,,,,,,,
,,?,0.00051,0,,,,,,stimuli/images/PICTURE_487.png,GIRL,5c598b3704bbff000140a506,25/03/1997,2020-09-02_12h28.47.335,proactive3.2,2020.1.2,MacIntel,60,5f47c0b9b035471e11593a5c,5f4f81a9d786b703eabbf21e,1,,,,,,basket,,,,,,,,,,,5,1,0,51,51,45,1,,,,,,,,,,,,,,,,,,,,,,,,,,,,,,,,,,,,,,,,,,,,,,,,,,,,,,,,,,,,,,,,,,,,,,
,,?,0.000455,0,,,,,,stimuli/images/PICTURE_57.png,MOMENT,5c598b3704bbff000140a506,25/03/1997,2020-09-02_12h28.47.335,proactive3.2,2020.1.2,MacIntel,60,5f47c0b9b035471e11593a5c,5f4f81a9d786b703eabbf21e,1,,,,,,stamp,,,,,,,,,,,4,1,0,52,52,37,1,,,,,,,,,,,,,,,,,,,,,,,,,,,,,,,,,,,,,,,,,,,,,,,,,,,,,,,,,,,,,,,,,,,,,,
,,?,0.000565,0,,,,,,stimuli/images/PICTURE_32.png,PILLS,5c598b3704bbff000140a506,25/03/1997,2020-09-02_12h28.47.335,proactive3.2,2020.1.2,MacIntel,60,5f47c0b9b035471e11593a5c,5f4f81a9d786b703eabbf21e,1,,,,,,crown,,,,,,,,,,,2,1,0,53,53,18,1,,,,,,,,,,,,,,,,,,,,,,,,,,,,,,,,,,,,,,,,,,,,,,,,,,,,,,,,,,,,,,,,,,,,,,
,,?,0.00039,0,,,,,,stimuli/images/PICTURE_32.png,KIND,5c598b3704bbff000140a506,25/03/1997,2020-09-02_12h28.47.335,proactive3.2,2020.1.2,MacIntel,60,5f47c0b9b035471e11593a5c,5f4f81a9d786b703eabbf21e,1,,,,,,crown,,,,,,,,,,,4,1,0,54,54,35,1,,,,,,,,,,,,,,,,,,,,,,,,,,,,,,,,,,,,,,,,,,,,,,,,,,,,,,,,,,,,,,,,,,,,,,
,,?,0.00037,0,,,,,,stimuli/images/PICTURE_327.png,CASINO,5c598b3704bbff000140a506,25/03/1997,2020-09-02_12h28.47.335,proactive3.2,2020.1.2,MacIntel,60,5f47c0b9b035471e11593a5c,5f4f81a9d786b703eabbf21e,1,,,,,,helmet,,,,,,,,,,,3,1,0,55,55,20,1,,,,,,,,,,,,,,,,,,,,,,,,,,,,,,,,,,,,,,,,,,,,,,,,,,,,,,,,,,,,,,,,,,,,,,
,,?,0.00037,0,,,,,,stimuli/images/PICTURE_177.png,WRITER,5c598b3704bbff000140a506,25/03/1997,2020-09-02_12h28.47.335,proactive3.2,2020.1.2,MacIntel,60,5f47c0b9b035471e11593a5c,5f4f81a9d786b703eabbf21e,1,,,,,,mushroom,,,,,,,,,,,5,1,0,56,56,41,1,,,,,,,,,,,,,,,,,,,,,,,,,,,,,,,,,,,,,,,,,,,,,,,,,,,,,,,,,,,,,,,,,,,,,,
,,?,0.000415,0,,,,,,stimuli/images/PICTURE_285.png,LIFE,5c598b3704bbff000140a506,25/03/1997,2020-09-02_12h28.47.335,proactive3.2,2020.1.2,MacIntel,60,5f47c0b9b035471e11593a5c,5f4f81a9d786b703eabbf21e,1,,,,,,carrot,,,,,,,,,,,4,1,0,57,57,33,1,,,,,,,,,,,,,,,,,,,,,,,,,,,,,,,,,,,,,,,,,,,,,,,,,,,,,,,,,,,,,,,,,,,,,,
,,?,0.00216,0,,,,,,stimuli/images/PICTURE_403.png,WRITER,5c598b3704bbff000140a506,25/03/1997,2020-09-02_12h28.47.335,proactive3.2,2020.1.2,MacIntel,60,5f47c0b9b035471e11593a5c,5f4f81a9d786b703eabbf21e,1,,,,,,cathedral,,,,,,,,,,,4,1,0,58,58,31,1,,,,,,,,,,,,,,,,,,,,,,,,,,,,,,,,,,,,,,,,,,,,,,,,,,,,,,,,,,,,,,,,,,,,,,
,,?,0.00037,0,,,,,,stimuli/images/PICTURE_708.png,RECORD,5c598b3704bbff000140a506,25/03/1997,2020-09-02_12h28.47.335,proactive3.2,2020.1.2,MacIntel,60,5f47c0b9b035471e11593a5c,5f4f81a9d786b703eabbf21e,1,,,,,,monkey,,,,,,,,,,,6,1,0,59,59,58,1,,,,,,,,,,,,,,,,,,,,,,,,,,,,,,,,,,,,,,,,,,,,,,,,,,,,,,,,,,,,,,,,,,,,,,
,,,,,,,,,,,,5c598b3704bbff000140a506,25/03/1997,2020-09-02_12h28.47.335,proactive3.2,2020.1.2,MacIntel,60,5f47c0b9b035471e11593a5c,5f4f81a9d786b703eabbf21e,1,,,,,,,,,,,,,,,,,,,,,,,,0,1,1,1,1,stimuli/learn-block2.csv,,,,,,,,,,,,,,,,,,,,,,,,,,,,,,,,,,,,,,,,,,,,,,,,,,,,,,,,,,,,,,,,
,,,,,,,,,,stimuli/images/PICTURE_487.png,POLICY,5c598b3704bbff000140a506,25/03/1997,2020-09-02_12h28.47.335,proactive3.2,2020.1.2,MacIntel,60,5f47c0b9b035471e11593a5c,5f4f81a9d786b703eabbf21e,1,,,,,,basket,,,,,,0,0,0,34,1,4,2,,,,,,,,,,,,,,,,,,,,,,,,,,,,,,,,,,,,,,,,,,,,,,,,,,,,,,,,,,,,,,,,,,,,,,,,,,,
,,,,,,,,,,stimuli/images/PICTURE_215.png,FOOD,5c598b3704bbff000140a506,25/03/1997,2020-09-02_12h28.47.335,proactive3.2,2020.1.2,MacIntel,60,5f47c0b9b035471e11593a5c,5f4f81a9d786b703eabbf21e,1,,,,,,boot,,,,,,0,1,1,5,1,1,2,,,,,,,,,,,,,,,,,,,,,,,,,,,,,,,,,,,,,,,,,,,,,,,,,,,,,,,,,,,,,,,,,,,,,,,,,,,
,,,,,,,,,,stimuli/images/PICTURE_2.png,YARD,5c598b3704bbff000140a506,25/03/1997,2020-09-02_12h28.47.335,proactive3.2,2020.1.2,MacIntel,60,5f47c0b9b035471e11593a5c,5f4f81a9d786b703eabbf21e,1,,,,,,tyre,,,,,,0,2,2,55,1,6,2,,,,,,,,,,,,,,,,,,,,,,,,,,,,,,,,,,,,,,,,,,,,,,,,,,,,,,,,,,,,,,,,,,,,,,,,,,,
,,,,,,,,,,stimuli/images/PICTURE_348.png,DUDE,5c598b3704bbff000140a506,25/03/1997,2020-09-02_12h28.47.335,proactive3.2,2020.1.2,MacIntel,60,5f47c0b9b035471e11593a5c,5f4f81a9d786b703eabbf21e,1,,,,,,pepper,,,,,,0,3,3,59,1,6,2,,,,,,,,,,,,,,,,,,,,,,,,,,,,,,,,,,,,,,,,,,,,,,,,,,,,,,,,,,,,,,,,,,,,,,,,,,,
,,,,,,,,,,stimuli/images/PICTURE_208.png,SPIRIT,5c598b3704bbff000140a506,25/03/1997,2020-09-02_12h28.47.335,proactive3.2,2020.1.2,MacIntel,60,5f47c0b9b035471e11593a5c,5f4f81a9d786b703eabbf21e,1,,,,,,microphone,,,,,,0,4,4,28,1,3,2,,,,,,,,,,,,,,,,,,,,,,,,,,,,,,,,,,,,,,,,,,,,,,,,,,,,,,,,,,,,,,,,,,,,,,,,,,,
,,,,,,,,,,stimuli/images/PICTURE_750.png,POLICY,5c598b3704bbff000140a506,25/03/1997,2020-09-02_12h28.47.335,proactive3.2,2020.1.2,MacIntel,60,5f47c0b9b035471e11593a5c,5f4f81a9d786b703eabbf21e,1,,,,,,kettle,,,,,,0,5,5,44,1,5,2,,,,,,,,,,,,,,,,,,,,,,,,,,,,,,,,,,,,,,,,,,,,,,,,,,,,,,,,,,,,,,,,,,,,,,,,,,,
,,,,,,,,,,stimuli/images/PICTURE_667.png,GLASS,5c598b3704bbff000140a506,25/03/1997,2020-09-02_12h28.47.335,proactive3.2,2020.1.2,MacIntel,60,5f47c0b9b035471e11593a5c,5f4f81a9d786b703eabbf21e,1,,,,,,daisy,,,,,,0,6,6,27,1,3,2,,,,,,,,,,,,,,,,,,,,,,,,,,,,,,,,,,,,,,,,,,,,,,,,,,,,,,,,,,,,,,,,,,,,,,,,,,,
,,,,,,,,,,stimuli/images/PICTURE_57.png,CASINO,5c598b3704bbff000140a506,25/03/1997,2020-09-02_12h28.47.335,proactive3.2,2020.1.2,MacIntel,60,5f47c0b9b035471e11593a5c,5f4f81a9d786b703eabbf21e,1,,,,,,stamp,,,,,,0,7,7,12,1,2,2,,,,,,,,,,,,,,,,,,,,,,,,,,,,,,,,,,,,,,,,,,,,,,,,,,,,,,,,,,,,,,,,,,,,,,,,,,,
,,,,,,,,,,stimuli/images/PICTURE_509.png,SHOTS,5c598b3704bbff000140a506,25/03/1997,2020-09-02_12h28.47.335,proactive3.2,2020.1.2,MacIntel,60,5f47c0b9b035471e11593a5c,5f4f81a9d786b703eabbf21e,1,,,,,,telephone,,,,,,0,8,8,7,1,1,2,,,,,,,,,,,,,,,,,,,,,,,,,,,,,,,,,,,,,,,,,,,,,,,,,,,,,,,,,,,,,,,,,,,,,,,,,,,
,,,,,,,,,,stimuli/images/PICTURE_491.png,SERIES,5c598b3704bbff000140a506,25/03/1997,2020-09-02_12h28.47.335,proactive3.2,2020.1.2,MacIntel,60,5f47c0b9b035471e11593a5c,5f4f81a9d786b703eabbf21e,1,,,,,,rug,,,,,,0,9,9,39,1,4,2,,,,,,,,,,,,,,,,,,,,,,,,,,,,,,,,,,,,,,,,,,,,,,,,,,,,,,,,,,,,,,,,,,,,,,,,,,,
,,,,,,,,,,stimuli/images/PICTURE_509.png,MILLER,5c598b3704bbff000140a506,25/03/1997,2020-09-02_12h28.47.335,proactive3.2,2020.1.2,MacIntel,60,5f47c0b9b035471e11593a5c,5f4f81a9d786b703eabbf21e,1,,,,,,telephone,,,,,,0,10,10,49,1,5,2,,,,,,,,,,,,,,,,,,,,,,,,,,,,,,,,,,,,,,,,,,,,,,,,,,,,,,,,,,,,,,,,,,,,,,,,,,,
,,,,,,,,,,stimuli/images/PICTURE_160.png,HOTEL,5c598b3704bbff000140a506,25/03/1997,2020-09-02_12h28.47.335,proactive3.2,2020.1.2,MacIntel,60,5f47c0b9b035471e11593a5c,5f4f81a9d786b703eabbf21e,1,,,,,,wheelbarrow,,,,,,0,11,11,16,1,2,2,,,,,,,,,,,,,,,,,,,,,,,,,,,,,,,,,,,,,,,,,,,,,,,,,,,,,,,,,,,,,,,,,,,,,,,,,,,
,,,,,,,,,,stimuli/images/PICTURE_509.png,APPLE,5c598b3704bbff000140a506,25/03/1997,2020-09-02_12h28.47.335,proactive3.2,2020.1.2,MacIntel,60,5f47c0b9b035471e11593a5c,5f4f81a9d786b703eabbf21e,1,,,,,,telephone,,,,,,0,12,12,38,1,4,2,,,,,,,,,,,,,,,,,,,,,,,,,,,,,,,,,,,,,,,,,,,,,,,,,,,,,,,,,,,,,,,,,,,,,,,,,,,
,,,,,,,,,,stimuli/images/PICTURE_677.png,FAMILY,5c598b3704bbff000140a506,25/03/1997,2020-09-02_12h28.47.335,proactive3.2,2020.1.2,MacIntel,60,5f47c0b9b035471e11593a5c,5f4f81a9d786b703eabbf21e,1,,,,,,map,,,,,,0,13,13,53,1,6,2,,,,,,,,,,,,,,,,,,,,,,,,,,,,,,,,,,,,,,,,,,,,,,,,,,,,,,,,,,,,,,,,,,,,,,,,,,,
,,,,,,,,,,stimuli/images/PICTURE_93.png,GIRL,5c598b3704bbff000140a506,25/03/1997,2020-09-02_12h28.47.335,proactive3.2,2020.1.2,MacIntel,60,5f47c0b9b035471e11593a5c,5f4f81a9d786b703eabbf21e,1,,,,,,skateboard,,,,,,0,14,14,31,1,4,2,,,,,,,,,,,,,,,,,,,,,,,,,,,,,,,,,,,,,,,,,,,,,,,,,,,,,,,,,,,,,,,,,,,,,,,,,,,
,,,,,,,,,,stimuli/images/PICTURE_2.png,JUNGLE,5c598b3704bbff000140a506,25/03/1997,2020-09-02_12h28.47.335,proactive3.2,2020.1.2,MacIntel,60,5f47c0b9b035471e11593a5c,5f4f81a9d786b703eabbf21e,1,,,,,,tyre,,,,,,0,15,15,1,1,1,2,,,,,,,,,,,,,,,,,,,,,,,,,,,,,,,,,,,,,,,,,,,,,,,,,,,,,,,,,,,,,,,,,,,,,,,,,,,
,,,,,,,,,,stimuli/images/PICTURE_327.png,LEADER,5c598b3704bbff000140a506,25/03/1997,2020-09-02_12h28.47.335,proactive3.2,2020.1.2,MacIntel,60,5f47c0b9b035471e11593a5c,5f4f81a9d786b703eabbf21e,1,,,,,,helmet,,,,,,0,16,16,17,1,2,2,,,,,,,,,,,,,,,,,,,,,,,,,,,,,,,,,,,,,,,,,,,,,,,,,,,,,,,,,,,,,,,,,,,,,,,,,,,
,,,,,,,,,,stimuli/images/PICTURE_297.png,BODY,5c598b3704bbff000140a506,25/03/1997,2020-09-02_12h28.47.335,proactive3.2,2020.1.2,MacIntel,60,5f47c0b9b035471e11593a5c,5f4f81a9d786b703eabbf21e,1,,,,,,aeroplane,,,,,,0,17,17,51,1,6,2,,,,,,,,,,,,,,,,,,,,,,,,,,,,,,,,,,,,,,,,,,,,,,,,,,,,,,,,,,,,,,,,,,,,,,,,,,,
,,,,,,,,,,stimuli/images/PICTURE_311.png,TOILET,5c598b3704bbff000140a506,25/03/1997,2020-09-02_12h28.47.335,proactive3.2,2020.1.2,MacIntel,60,5f47c0b9b035471e11593a5c,5f4f81a9d786b703eabbf21e,1,,,,,,razor,,,,,,0,18,18,54,1,6,2,,,,,,,,,,,,,,,,,,,,,,,,,,,,,,,,,,,,,,,,,,,,,,,,,,,,,,,,,,,,,,,,,,,,,,,,,,,
,,,,,,,,,,stimuli/images/PICTURE_356.png,CANDY,5c598b3704bbff000140a506,25/03/1997,2020-09-02_12h28.47.335,proactive3.2,2020.1.2,MacIntel,60,5f47c0b9b035471e11593a5c,5f4f81a9d786b703eabbf21e,1,,,,,,pawn,,,,,,0,19,19,46,1,5,2,,,,,,,,,,,,,,,,,,,,,,,,,,,,,,,,,,,,,,,,,,,,,,,,,,,,,,,,,,,,,,,,,,,,,,,,,,,
,,,,,,,,,,stimuli/images/PICTURE_95.png,NIGHT,5c598b3704bbff000140a506,25/03/1997,2020-09-02_12h28.47.335,proactive3.2,2020.1.2,MacIntel,60,5f47c0b9b035471e11593a5c,5f4f81a9d786b703eabbf21e,1,,,,,,suitcase,,,,,,0,20,20,37,1,4,2,,,,,,,,,,,,,,,,,,,,,,,,,,,,,,,,,,,,,,,,,,,,,,,,,,,,,,,,,,,,,,,,,,,,,,,,,,,
,,,,,,,,,,stimuli/images/PICTURE_453.png,FAMILY,5c598b3704bbff000140a506,25/03/1997,2020-09-02_12h28.47.335,proactive3.2,2020.1.2,MacIntel,60,5f47c0b9b035471e11593a5c,5f4f81a9d786b703eabbf21e,1,,,,,,scissors,,,,,,0,21,21,48,1,5,2,,,,,,,,,,,,,,,,,,,,,,,,,,,,,,,,,,,,,,,,,,,,,,,,,,,,,,,,,,,,,,,,,,,,,,,,,,,
,,,,,,,,,,stimuli/images/PICTURE_147.png,LEADER,5c598b3704bbff000140a506,25/03/1997,2020-09-02_12h28.47.335,proactive3.2,2020.1.2,MacIntel,60,5f47c0b9b035471e11593a5c,5f4f81a9d786b703eabbf21e,1,,,,,,hanger,,,,,,0,22,22,33,1,4,2,,,,,,,,,,,,,,,,,,,,,,,,,,,,,,,,,,,,,,,,,,,,,,,,,,,,,,,,,,,,,,,,,,,,,,,,,,,
,,,,,,,,,,stimuli/images/PICTURE_677.png,PHOTO,5c598b3704bbff000140a506,25/03/1997,2020-09-02_12h28.47.335,proactive3.2,2020.1.2,MacIntel,60,5f47c0b9b035471e11593a5c,5f4f81a9d786b703eabbf21e,1,,,,,,map,,,,,,0,23,23,14,1,2,2,,,,,,,,,,,,,,,,,,,,,,,,,,,,,,,,,,,,,,,,,,,,,,,,,,,,,,,,,,,,,,,,,,,,,,,,,,,
,,,,,,,,,,stimuli/images/PICTURE_708.png,VALLEY,5c598b3704bbff000140a506,25/03/1997,2020-09-02_12h28.47.335,proactive3.2,2020.1.2,MacIntel,60,5f47c0b9b035471e11593a5c,5f4f81a9d786b703eabbf21e,1,,,,,,monkey,,,,,,0,24,24,45,1,5,2,,,,,,,,,,,,,,,,,,,,,,,,,,,,,,,,,,,,,,,,,,,,,,,,,,,,,,,,,,,,,,,,,,,,,,,,,,,
,,,,,,,,,,stimuli/images/PICTURE_405.png,HOUSE,5c598b3704bbff000140a506,25/03/1997,2020-09-02_12h28.47.335,proactive3.2,2020.1.2,MacIntel,60,5f47c0b9b035471e11593a5c,5f4f81a9d786b703eabbf21e,1,,,,,,anchor,,,,,,0,25,25,2,1,1,2,,,,,,,,,,,,,,,,,,,,,,,,,,,,,,,,,,,,,,,,,,,,,,,,,,,,,,,,,,,,,,,,,,,,,,,,,,,
,,,,,,,,,,stimuli/images/PICTURE_470.png,BEAUTY,5c598b3704bbff000140a506,25/03/1997,2020-09-02_12h28.47.335,proactive3.2,2020.1.2,MacIntel,60,5f47c0b9b035471e11593a5c,5f4f81a9d786b703eabbf21e,1,,,,,,motorbike,,,,,,0,26,26,26,1,3,2,,,,,,,,,,,,,,,,,,,,,,,,,,,,,,,,,,,,,,,,,,,,,,,,,,,,,,,,,,,,,,,,,,,,,,,,,,,
,,,,,,,,,,stimuli/images/PICTURE_255.png,PENNY,5c598b3704bbff000140a506,25/03/1997,2020-09-02_12h28.47.335,proactive3.2,2020.1.2,MacIntel,60,5f47c0b9b035471e11593a5c,5f4f81a9d786b703eabbf21e,1,,,,,,shovel,,,,,,0,27,27,19,1,2,2,,,,,,,,,,,,,,,,,,,,,,,,,,,,,,,,,,,,,,,,,,,,,,,,,,,,,,,,,,,,,,,,,,,,,,,,,,,
,,,,,,,,,,stimuli/images/PICTURE_57.png,CANDY,5c598b3704bbff000140a506,25/03/1997,2020-09-02_12h28.47.335,proactive3.2,2020.1.2,MacIntel,60,5f47c0b9b035471e11593a5c,5f4f81a9d786b703eabbf21e,1,,,,,,stamp,,,,,,0,28,28,52,1,6,2,,,,,,,,,,,,,,,,,,,,,,,,,,,,,,,,,,,,,,,,,,,,,,,,,,,,,,,,,,,,,,,,,,,,,,,,,,,
,,,,,,,,,,stimuli/images/PICTURE_654.png,YEAR,5c598b3704bbff000140a506,25/03/1997,2020-09-02_12h28.47.335,proactive3.2,2020.1.2,MacIntel,60,5f47c0b9b035471e11593a5c,5f4f81a9d786b703eabbf21e,1,,,,,,pencil,,,,,,0,29,29,41,1,5,2,,,,,,,,,,,,,,,,,,,,,,,,,,,,,,,,,,,,,,,,,,,,,,,,,,,,,,,,,,,,,,,,,,,,,,,,,,,
,,,,,,,,,,stimuli/images/PICTURE_123.png,SALE,5c598b3704bbff000140a506,25/03/1997,2020-09-02_12h28.47.335,proactive3.2,2020.1.2,MacIntel,60,5f47c0b9b035471e11593a5c,5f4f81a9d786b703eabbf21e,1,,,,,,dart,,,,,,0,30,30,8,1,1,2,,,,,,,,,,,,,,,,,,,,,,,,,,,,,,,,,,,,,,,,,,,,,,,,,,,,,,,,,,,,,,,,,,,,,,,,,,,
,,,,,,,,,,stimuli/images/PICTURE_285.png,PRINCE,5c598b3704bbff000140a506,25/03/1997,2020-09-02_12h28.47.335,proactive3.2,2020.1.2,MacIntel,60,5f47c0b9b035471e11593a5c,5f4f81a9d786b703eabbf21e,1,,,,,,carrot,,,,,,0,31,31,20,1,3,2,,,,,,,,,,,,,,,,,,,,,,,,,,,,,,,,,,,,,,,,,,,,,,,,,,,,,,,,,,,,,,,,,,,,,,,,,,,
,,,,,,,,,,stimuli/images/PICTURE_692.png,DUDE,5c598b3704bbff000140a506,25/03/1997,2020-09-02_12h28.47.335,proactive3.2,2020.1.2,MacIntel,60,5f47c0b9b035471e11593a5c,5f4f81a9d786b703eabbf21e,1,,,,,,cherry,,,,,,0,32,32,47,1,5,2,,,,,,,,,,,,,,,,,,,,,,,,,,,,,,,,,,,,,,,,,,,,,,,,,,,,,,,,,,,,,,,,,,,,,,,,,,,
,,,,,,,,,,stimuli/images/PICTURE_504.png,HOUSE,5c598b3704bbff000140a506,25/03/1997,2020-09-02_12h28.47.335,proactive3.2,2020.1.2,MacIntel,60,5f47c0b9b035471e11593a5c,5f4f81a9d786b703eabbf21e,1,,,,,,wheel,,,,,,0,33,33,36,1,4,2,,,,,,,,,,,,,,,,,,,,,,,,,,,,,,,,,,,,,,,,,,,,,,,,,,,,,,,,,,,,,,,,,,,,,,,,,,,
,,,,,,,,,,stimuli/images/PICTURE_688.png,CLOCK,5c598b3704bbff000140a506,25/03/1997,2020-09-02_12h28.47.335,proactive3.2,2020.1.2,MacIntel,60,5f47c0b9b035471e11593a5c,5f4f81a9d786b703eabbf21e,1,,,,,,runner,,,,,,0,34,34,42,1,5,2,,,,,,,,,,,,,,,,,,,,,,,,,,,,,,,,,,,,,,,,,,,,,,,,,,,,,,,,,,,,,,,,,,,,,,,,,,,
,,,,,,,,,,stimuli/images/PICTURE_33.png,COPS,5c598b3704bbff000140a506,25/03/1997,2020-09-02_12h28.47.335,proactive3.2,2020.1.2,MacIntel,60,5f47c0b9b035471e11593a5c,5f4f81a9d786b703eabbf21e,1,,,,,,frame,,,,,,0,35,35,29,1,3,2,,,,,,,,,,,,,,,,,,,,,,,,,,,,,,,,,,,,,,,,,,,,,,,,,,,,,,,,,,,,,,,,,,,,,,,,,,,
,,,,,,,,,,stimuli/images/PICTURE_285.png,WRITER,5c598b3704bbff000140a506,25/03/1997,2020-09-02_12h28.47.335,proactive3.2,2020.1.2,MacIntel,60,5f47c0b9b035471e11593a5c,5f4f81a9d786b703eabbf21e,1,,,,,,carrot,,,,,,0,36,36,6,1,1,2,,,,,,,,,,,,,,,,,,,,,,,,,,,,,,,,,,,,,,,,,,,,,,,,,,,,,,,,,,,,,,,,,,,,,,,,,,,
,,,,,,,,,,stimuli/images/PICTURE_177.png,HOUSE,5c598b3704bbff000140a506,25/03/1997,2020-09-02_12h28.47.335,proactive3.2,2020.1.2,MacIntel,60,5f47c0b9b035471e11593a5c,5f4f81a9d786b703eabbf21e,1,,,,,,mushroom,,,,,,0,37,37,25,1,3,2,,,,,,,,,,,,,,,,,,,,,,,,,,,,,,,,,,,,,,,,,,,,,,,,,,,,,,,,,,,,,,,,,,,,,,,,,,,
,,,,,,,,,,stimuli/images/PICTURE_215.png,LEADER,5c598b3704bbff000140a506,25/03/1997,2020-09-02_12h28.47.335,proactive3.2,2020.1.2,MacIntel,60,5f47c0b9b035471e11593a5c,5f4f81a9d786b703eabbf21e,1,,,,,,boot,,,,,,0,38,38,43,1,5,2,,,,,,,,,,,,,,,,,,,,,,,,,,,,,,,,,,,,,,,,,,,,,,,,,,,,,,,,,,,,,,,,,,,,,,,,,,,
,,,,,,,,,,stimuli/images/PICTURE_348.png,TOILET,5c598b3704bbff000140a506,25/03/1997,2020-09-02_12h28.47.335,proactive3.2,2020.1.2,MacIntel,60,5f47c0b9b035471e11593a5c,5f4f81a9d786b703eabbf21e,1,,,,,,pepper,,,,,,0,39,39,4,1,1,2,,,,,,,,,,,,,,,,,,,,,,,,,,,,,,,,,,,,,,,,,,,,,,,,,,,,,,,,,,,,,,,,,,,,,,,,,,,
,,,,,,,,,,stimuli/images/PICTURE_452.png,COPS,5c598b3704bbff000140a506,25/03/1997,2020-09-02_12h28.47.335,proactive3.2,2020.1.2,MacIntel,60,5f47c0b9b035471e11593a5c,5f4f81a9d786b703eabbf21e,1,,,,,,watch,,,,,,0,40,40,0,1,1,2,,,,,,,,,,,,,,,,,,,,,,,,,,,,,,,,,,,,,,,,,,,,,,,,,,,,,,,,,,,,,,,,,,,,,,,,,,,
,,,,,,,,,,stimuli/images/PICTURE_314.png,SPEECH,5c598b3704bbff000140a506,25/03/1997,2020-09-02_12h28.47.335,proactive3.2,2020.1.2,MacIntel,60,5f47c0b9b035471e11593a5c,5f4f81a9d786b703eabbf21e,1,,,,,,perfume,,,,,,0,41,41,35,1,4,2,,,,,,,,,,,,,,,,,,,,,,,,,,,,,,,,,,,,,,,,,,,,,,,,,,,,,,,,,,,,,,,,,,,,,,,,,,,
,,,,,,,,,,stimuli/images/PICTURE_564.png,PLENTY,5c598b3704bbff000140a506,25/03/1997,2020-09-02_12h28.47.335,proactive3.2,2020.1.2,MacIntel,60,5f47c0b9b035471e11593a5c,5f4f81a9d786b703eabbf21e,1,,,,,,spoon,,,,,,0,42,42,11,1,2,2,,,,,,,,,,,,,,,,,,,,,,,,,,,,,,,,,,,,,,,,,,,,,,,,,,,,,,,,,,,,,,,,,,,,,,,,,,,
,,,,,,,,,,stimuli/images/PICTURE_32.png,LETTER,5c598b3704bbff000140a506,25/03/1997,2020-09-02_12h28.47.335,proactive3.2,2020.1.2,MacIntel,60,5f47c0b9b035471e11593a5c,5f4f81a9d786b703eabbf21e,1,,,,,,crown,,,,,,0,43,43,56,1,6,2,,,,,,,,,,,,,,,,,,,,,,,,,,,,,,,,,,,,,,,,,,,,,,,,,,,,,,,,,,,,,,,,,,,,,,,,,,,
,,,,,,,,,,stimuli/images/PICTURE_57.png,NATION,5c598b3704bbff000140a506,25/03/1997,2020-09-02_12h28.47.335,proactive3.2,2020.1.2,MacIntel,60,5f47c0b9b035471e11593a5c,5f4f81a9d786b703eabbf21e,1,,,,,,stamp,,,,,,0,44,44,21,1,3,2,,,,,,,,,,,,,,,,,,,,,,,,,,,,,,,,,,,,,,,,,,,,,,,,,,,,,,,,,,,,,,,,,,,,,,,,,,,
,,,,,,,,,,stimuli/images/PICTURE_487.png,ROOF,5c598b3704bbff000140a506,25/03/1997,2020-09-02_12h28.47.335,proactive3.2,2020.1.2,MacIntel,60,5f47c0b9b035471e11593a5c,5f4f81a9d786b703eabbf21e,1,,,,,,basket,,,,,,0,45,45,50,1,6,2,,,,,,,,,,,,,,,,,,,,,,,,,,,,,,,,,,,,,,,,,,,,,,,,,,,,,,,,,,,,,,,,,,,,,,,,,,,
,,,,,,,,,,stimuli/images/PICTURE_141.png,CLIENT,5c598b3704bbff000140a506,25/03/1997,2020-09-02_12h28.47.335,proactive3.2,2020.1.2,MacIntel,60,5f47c0b9b035471e11593a5c,5f4f81a9d786b703eabbf21e,1,,,,,,sunflower,,,,,,0,46,46,30,1,4,2,,,,,,,,,,,,,,,,,,,,,,,,,,,,,,,,,,,,,,,,,,,,,,,,,,,,,,,,,,,,,,,,,,,,,,,,,,,
,,,,,,,,,,stimuli/images/PICTURE_215.png,BOYS,5c598b3704bbff000140a506,25/03/1997,2020-09-02_12h28.47.335,proactive3.2,2020.1.2,MacIntel,60,5f47c0b9b035471e11593a5c,5f4f81a9d786b703eabbf21e,1,,,,,,boot,,,,,,0,47,47,24,1,3,2,,,,,,,,,,,,,,,,,,,,,,,,,,,,,,,,,,,,,,,,,,,,,,,,,,,,,,,,,,,,,,,,,,,,,,,,,,,
,,,,,,,,,,stimuli/images/PICTURE_403.png,FAMILY,5c598b3704bbff000140a506,25/03/1997,2020-09-02_12h28.47.335,proactive3.2,2020.1.2,MacIntel,60,5f47c0b9b035471e11593a5c,5f4f81a9d786b703eabbf21e,1,,,,,,cathedral,,,,,,0,48,48,9,1,1,2,,,,,,,,,,,,,,,,,,,,,,,,,,,,,,,,,,,,,,,,,,,,,,,,,,,,,,,,,,,,,,,,,,,,,,,,,,,
,,,,,,,,,,stimuli/images/PICTURE_405.png,JUNGLE,5c598b3704bbff000140a506,25/03/1997,2020-09-02_12h28.47.335,proactive3.2,2020.1.2,MacIntel,60,5f47c0b9b035471e11593a5c,5f4f81a9d786b703eabbf21e,1,,,,,,anchor,,,,,,0,49,49,58,1,6,2,,,,,,,,,,,,,,,,,,,,,,,,,,,,,,,,,,,,,,,,,,,,,,,,,,,,,,,,,,,,,,,,,,,,,,,,,,,
,,,,,,,,,,stimuli/images/PICTURE_405.png,JUNGLE,5c598b3704bbff000140a506,25/03/1997,2020-09-02_12h28.47.335,proactive3.2,2020.1.2,MacIntel,60,5f47c0b9b035471e11593a5c,5f4f81a9d786b703eabbf21e,1,,,,,,anchor,,,,,,0,50,50,13,1,2,2,,,,,,,,,,,,,,,,,,,,,,,,,,,,,,,,,,,,,,,,,,,,,,,,,,,,,,,,,,,,,,,,,,,,,,,,,,,
,,,,,,,,,,stimuli/images/PICTURE_18.png,RIVER,5c598b3704bbff000140a506,25/03/1997,2020-09-02_12h28.47.335,proactive3.2,2020.1.2,MacIntel,60,5f47c0b9b035471e11593a5c,5f4f81a9d786b703eabbf21e,1,,,,,,planet,,,,,,0,51,51,22,1,3,2,,,,,,,,,,,,,,,,,,,,,,,,,,,,,,,,,,,,,,,,,,,,,,,,,,,,,,,,,,,,,,,,,,,,,,,,,,,
,,,,,,,,,,stimuli/images/PICTURE_470.png,MOMENT,5c598b3704bbff000140a506,25/03/1997,2020-09-02_12h28.47.335,proactive3.2,2020.1.2,MacIntel,60,5f47c0b9b035471e11593a5c,5f4f81a9d786b703eabbf21e,1,,,,,,motorbike,,,,,,0,52,52,40,1,5,2,,,,,,,,,,,,,,,,,,,,,,,,,,,,,,,,,,,,,,,,,,,,,,,,,,,,,,,,,,,,,,,,,,,,,,,,,,,
,,,,,,,,,,stimuli/images/PICTURE_296.png,CLOCK,5c598b3704bbff000140a506,25/03/1997,2020-09-02_12h28.47.335,proactive3.2,2020.1.2,MacIntel,60,5f47c0b9b035471e11593a5c,5f4f81a9d786b703eabbf21e,1,,,,,,bolt,,,,,,0,53,53,18,1,2,2,,,,,,,,,,,,,,,,,,,,,,,,,,,,,,,,,,,,,,,,,,,,,,,,,,,,,,,,,,,,,,,,,,,,,,,,,,,
,,,,,,,,,,stimuli/images/PICTURE_509.png,BATH,5c598b3704bbff000140a506,25/03/1997,2020-09-02_12h28.47.335,proactive3.2,2020.1.2,MacIntel,60,5f47c0b9b035471e11593a5c,5f4f81a9d786b703eabbf21e,1,,,,,,telephone,,,,,,0,54,54,15,1,2,2,,,,,,,,,,,,,,,,,,,,,,,,,,,,,,,,,,,,,,,,,,,,,,,,,,,,,,,,,,,,,,,,,,,,,,,,,,,
,,,,,,,,,,stimuli/images/PICTURE_655.png,SALE,5c598b3704bbff000140a506,25/03/1997,2020-09-02_12h28.47.335,proactive3.2,2020.1.2,MacIntel,60,5f47c0b9b035471e11593a5c,5f4f81a9d786b703eabbf21e,1,,,,,,megaphone,,,,,,0,55,55,57,1,6,2,,,,,,,,,,,,,,,,,,,,,,,,,,,,,,,,,,,,,,,,,,,,,,,,,,,,,,,,,,,,,,,,,,,,,,,,,,,
,,,,,,,,,,stimuli/images/PICTURE_311.png,FLESH,5c598b3704bbff000140a506,25/03/1997,2020-09-02_12h28.47.335,proactive3.2,2020.1.2,MacIntel,60,5f47c0b9b035471e11593a5c,5f4f81a9d786b703eabbf21e,1,,,,,,razor,,,,,,0,56,56,3,1,1,2,,,,,,,,,,,,,,,,,,,,,,,,,,,,,,,,,,,,,,,,,,,,,,,,,,,,,,,,,,,,,,,,,,,,,,,,,,,
,,,,,,,,,,stimuli/images/PICTURE_654.png,COPS,5c598b3704bbff000140a506,25/03/1997,2020-09-02_12h28.47.335,proactive3.2,2020.1.2,MacIntel,60,5f47c0b9b035471e11593a5c,5f4f81a9d786b703eabbf21e,1,,,,,,pencil,,,,,,0,57,57,10,1,2,2,,,,,,,,,,,,,,,,,,,,,,,,,,,,,,,,,,,,,,,,,,,,,,,,,,,,,,,,,,,,,,,,,,,,,,,,,,,
,,,,,,,,,,stimuli/images/PICTURE_68.png,KIND,5c598b3704bbff000140a506,25/03/1997,2020-09-02_12h28.47.335,proactive3.2,2020.1.2,MacIntel,60,5f47c0b9b035471e11593a5c,5f4f81a9d786b703eabbf21e,1,,,,,,candle,,,,,,0,58,58,23,1,3,2,,,,,,,,,,,,,,,,,,,,,,,,,,,,,,,,,,,,,,,,,,,,,,,,,,,,,,,,,,,,,,,,,,,,,,,,,,,
,,?,0.00082,0,,,,,,stimuli/images/PICTURE_655.png,SALE,5c598b3704bbff000140a506,25/03/1997,2020-09-02_12h28.47.335,proactive3.2,2020.1.2,MacIntel,60,5f47c0b9b035471e11593a5c,5f4f81a9d786b703eabbf21e,1,,,,,,megaphone,,,,,,,,,,,6,2,0,0,0,57,1,,,,,,,,,,,,,,,,,,,,,,,,,,,,,,,,,,,,,,,,,,,,,,,,,,,,,,,,,,,,,,,,,,,,,,
,,?,0.00039,0,,,,,,stimuli/images/PICTURE_57.png,CASINO,5c598b3704bbff000140a506,25/03/1997,2020-09-02_12h28.47.335,proactive3.2,2020.1.2,MacIntel,60,5f47c0b9b035471e11593a5c,5f4f81a9d786b703eabbf21e,1,,,,,,stamp,,,,,,,,,,,2,2,0,1,1,12,1,,,,,,,,,,,,,,,,,,,,,,,,,,,,,,,,,,,,,,,,,,,,,,,,,,,,,,,,,,,,,,,,,,,,,,
,,COPS,4.04454,1,,,,,,stimuli/images/PICTURE_452.png,COPS,5c598b3704bbff000140a506,25/03/1997,2020-09-02_12h28.47.335,proactive3.2,2020.1.2,MacIntel,60,5f47c0b9b035471e11593a5c,5f4f81a9d786b703eabbf21e,1,,,,,,watch,,,,,,,,,,,1,2,0,2,2,0,1,,,,,,,,,,,,,,,,,,,,,,,,,,,,,,,,,,,,,,,,,,,,,,,,,,,,,,,,,,,,,,,,,,,,,,
,,?,0.00113,0,,,,,,stimuli/images/PICTURE_487.png,POLICY,5c598b3704bbff000140a506,25/03/1997,2020-09-02_12h28.47.335,proactive3.2,2020.1.2,MacIntel,60,5f47c0b9b035471e11593a5c,5f4f81a9d786b703eabbf21e,1,,,,,,basket,,,,,,,,,,,4,2,0,3,3,34,1,,,,,,,,,,,,,,,,,,,,,,,,,,,,,,,,,,,,,,,,,,,,,,,,,,,,,,,,,,,,,,,,,,,,,,
,,CITY,10.847435,0,,,,,,stimuli/images/PICTURE_2.png,JUNGLE,5c598b3704bbff000140a506,25/03/1997,2020-09-02_12h28.47.335,proactive3.2,2020.1.2,MacIntel,60,5f47c0b9b035471e11593a5c,5f4f81a9d786b703eabbf21e,1,,,,,,tyre,,,,,,,,,,,1,2,0,4,4,1,1,,,,,,,,,,,,,,,,,,,,,,,,,,,,,,,,,,,,,,,,,,,,,,,,,,,,,,,,,,,,,,,,,,,,,,
,,?,0.001755,0,,,,,,stimuli/images/PICTURE_314.png,SPEECH,5c598b3704bbff000140a506,25/03/1997,2020-09-02_12h28.47.335,proactive3.2,2020.1.2,MacIntel,60,5f47c0b9b035471e11593a5c,5f4f81a9d786b703eabbf21e,1,,,,,,perfume,,,,,,,,,,,4,2,0,5,5,35,1,,,,,,,,,,,,,,,,,,,,,,,,,,,,,,,,,,,,,,,,,,,,,,,,,,,,,,,,,,,,,,,,,,,,,,
,,?,0.00303,0,,,,,,stimuli/images/PICTURE_33.png,COPS,5c598b3704bbff000140a506,25/03/1997,2020-09-02_12h28.47.335,proactive3.2,2020.1.2,MacIntel,60,5f47c0b9b035471e11593a5c,5f4f81a9d786b703eabbf21e,1,,,,,,frame,,,,,,,,,,,3,2,0,6,6,29,1,,,,,,,,,,,,,,,,,,,,,,,,,,,,,,,,,,,,,,,,,,,,,,,,,,,,,,,,,,,,,,,,,,,,,,
,,?,0.000395,0,,,,,,stimuli/images/PICTURE_491.png,SERIES,5c598b3704bbff000140a506,25/03/1997,2020-09-02_12h28.47.335,proactive3.2,2020.1.2,MacIntel,60,5f47c0b9b035471e11593a5c,5f4f81a9d786b703eabbf21e,1,,,,,,rug,,,,,,,,,,,4,2,0,7,7,39,1,,,,,,,,,,,,,,,,,,,,,,,,,,,,,,,,,,,,,,,,,,,,,,,,,,,,,,,,,,,,,,,,,,,,,,
,,?,0.000385,0,,,,,,stimuli/images/PICTURE_215.png,BOYS,5c598b3704bbff000140a506,25/03/1997,2020-09-02_12h28.47.335,proactive3.2,2020.1.2,MacIntel,60,5f47c0b9b035471e11593a5c,5f4f81a9d786b703eabbf21e,1,,,,,,boot,,,,,,,,,,,3,2,0,8,8,24,1,,,,,,,,,,,,,,,,,,,,,,,,,,,,,,,,,,,,,,,,,,,,,,,,,,,,,,,,,,,,,,,,,,,,,,
,,?,0.000455,0,,,,,,stimuli/images/PICTURE_296.png,CLOCK,5c598b3704bbff000140a506,25/03/1997,2020-09-02_12h28.47.335,proactive3.2,2020.1.2,MacIntel,60,5f47c0b9b035471e11593a5c,5f4f81a9d786b703eabbf21e,1,,,,,,bolt,,,,,,,,,,,2,2,0,9,9,18,1,,,,,,,,,,,,,,,,,,,,,,,,,,,,,,,,,,,,,,,,,,,,,,,,,,,,,,,,,,,,,,,,,,,,,,
,,?,0.000405,0,,,,,,stimuli/images/PICTURE_57.png,CANDY,5c598b3704bbff000140a506,25/03/1997,2020-09-02_12h28.47.335,proactive3.2,2020.1.2,MacIntel,60,5f47c0b9b035471e11593a5c,5f4f81a9d786b703eabbf21e,1,,,,,,stamp,,,,,,,,,,,6,2,0,10,10,52,1,,,,,,,,,,,,,,,,,,,,,,,,,,,,,,,,,,,,,,,,,,,,,,,,,,,,,,,,,,,,,,,,,,,,,,
