consent_key.keys,consent_key.rt,recalled,recalled_rt,recall_acc,example_recall.thisRepN,example_recall.thisTrialN,example_recall.thisN,example_recall.thisIndex,example_recall.ran,file,word,participant,please enter your date of birth (dd/mm/yyyy),date,expName,psychopyVersion,OS,frameRate,STUDY_ID,SESSION_ID,list,prac_learn_study_loop.thisRepN,prac_learn_study_loop.thisTrialN,prac_learn_study_loop.thisN,prac_learn_study_loop.thisIndex,prac_learn_study_loop.ran,image,prac_learn_test_loop.thisRepN,prac_learn_test_loop.thisTrialN,prac_learn_test_loop.thisN,prac_learn_test_loop.thisIndex,prac_learn_test_loop.ran,learn_study_loop.thisRepN,learn_study_loop.thisTrialN,learn_study_loop.thisN,learn_study_loop.thisIndex,learn_study_loop.ran,list_no,block_no,learn_test_loop.thisRepN,learn_test_loop.thisTrialN,learn_test_loop.thisN,learn_test_loop.thisIndex,learn_test_loop.ran,learn_blocks.thisRepN,learn_blocks.thisTrialN,learn_blocks.thisN,learn_blocks.thisIndex,learn_blocks.ran,block_csv,key_resp_13.keys,key_resp_13.rt,learn_blocks_loop.thisRepN,learn_blocks_loop.thisTrialN,learn_blocks_loop.thisN,learn_blocks_loop.thisIndex,learn_blocks_loop.ran,final_learn_test.thisRepN,final_learn_test.thisTrialN,final_learn_test.thisN,final_learn_test.thisIndex,final_learn_test.ran,prac_wm_test_loop.thisRepN,prac_wm_test_loop.thisTrialN,prac_wm_test_loop.thisN,prac_wm_test_loop.thisIndex,prac_wm_test_loop.ran,wm_recalled1,wm_recall_rt1,wm_probed1,wm_recall_acc1,wm_recalled2,wm_recall_rt2,wm_probed2,wm_recall_acc2,wm_recalled3,wm_recall_rt3,wm_probed3,wm_recall_acc3,wm_recalled4,wm_recall_rt4,wm_probed4,wm_recall_acc4,prac_wm_trial_loop.thisRepN,prac_wm_trial_loop.thisTrialN,prac_wm_trial_loop.thisN,prac_wm_trial_loop.thisIndex,prac_wm_trial_loop.ran,word1,image1,file1,item_type1,word2,image2,file2,item_type2,word4,image4,file4,item_type4,word3,image3,file3,item_type3,wm_test_loop.thisRepN,wm_test_loop.thisTrialN,wm_test_loop.thisN,wm_test_loop.thisIndex,wm_test_loop.ran,wm_trial_loop.thisRepN,wm_trial_loop.thisTrialN,wm_trial_loop.thisN,wm_trial_loop.thisIndex,wm_trial_loop.ran
y,23.480545,TOUGH,11.071645,1,0,0,0,0,1,stimuli/images/PICTURE_747.png,TOUGH,5c5fe9d34fff5700017ecdb4,05/01/1955,2020-09-12_06h51.57.101,proactive3.2,2020.1.2,Win32,60,5f5adea66120081ea0f57a61,5f5c61dce06d35459fd3459d,3,,,,,,,,,,,,,,,,,,,,,,,,,,,,,,,,,,,,,,,,,,,,,,,,,,,,,,,,,,,,,,,,,,,,,,,,,,,,,,,,,,,,,,,,,,,,,
,,,,,,,,,,stimuli/images/PICTURE_727.png,CELL,5c5fe9d34fff5700017ecdb4,05/01/1955,2020-09-12_06h51.57.101,proactive3.2,2020.1.2,Win32,60,5f5adea66120081ea0f57a61,5f5c61dce06d35459fd3459d,3,0,0,0,1,1,hose,,,,,,,,,,,,,,,,,,,,,,,,,,,,,,,,,,,,,,,,,,,,,,,,,,,,,,,,,,,,,,,,,,,,,,,,,,,,,,,,,,,,,,,
,,,,,,,,,,stimuli/images/PICTURE_658.png,DEVIL,5c5fe9d34fff5700017ecdb4,05/01/1955,2020-09-12_06h51.57.101,proactive3.2,2020.1.2,Win32,60,5f5adea66120081ea0f57a61,5f5c61dce06d35459fd3459d,3,0,1,1,3,1,crow,,,,,,,,,,,,,,,,,,,,,,,,,,,,,,,,,,,,,,,,,,,,,,,,,,,,,,,,,,,,,,,,,,,,,,,,,,,,,,,,,,,,,,,
,,,,,,,,,,stimuli/images/PICTURE_269.png,GENIUS,5c5fe9d34fff5700017ecdb4,05/01/1955,2020-09-12_06h51.57.101,proactive3.2,2020.1.2,Win32,60,5f5adea66120081ea0f57a61,5f5c61dce06d35459fd3459d,3,0,2,2,0,1,chameleon,,,,,,,,,,,,,,,,,,,,,,,,,,,,,,,,,,,,,,,,,,,,,,,,,,,,,,,,,,,,,,,,,,,,,,,,,,,,,,,,,,,,,,,
,,,,,,,,,,stimuli/images/PICTURE_697.png,KILLER,5c5fe9d34fff5700017ecdb4,05/01/1955,2020-09-12_06h51.57.101,proactive3.2,2020.1.2,Win32,60,5f5adea66120081ea0f57a61,5f5c61dce06d35459fd3459d,3,0,3,3,4,1,peach,,,,,,,,,,,,,,,,,,,,,,,,,,,,,,,,,,,,,,,,,,,,,,,,,,,,,,,,,,,,,,,,,,,,,,,,,,,,,,,,,,,,,,,
,,LOSS,10.65544,1,,,,,,stimuli/images/PICTURE_378.png,LOSS,5c5fe9d34fff5700017ecdb4,05/01/1955,2020-09-12_06h51.57.101,proactive3.2,2020.1.2,Win32,60,5f5adea66120081ea0f57a61,5f5c61dce06d35459fd3459d,3,,,,,,lobster,0,0,0,2,1,,,,,,,,,,,,,,,,,,,,,,,,,,,,,,,,,,,,,,,,,,,,,,,,,,,,,,,,,,,,,,,,,,,,,,,,,,,,,,,,,,
,,?,8.88753,0,,,,,,stimuli/images/PICTURE_697.png,KILLER,5c5fe9d34fff5700017ecdb4,05/01/1955,2020-09-12_06h51.57.101,proactive3.2,2020.1.2,Win32,60,5f5adea66120081ea0f57a61,5f5c61dce06d35459fd3459d,3,,,,,,peach,0,1,1,4,1,,,,,,,,,,,,,,,,,,,,,,,,,,,,,,,,,,,,,,,,,,,,,,,,,,,,,,,,,,,,,,,,,,,,,,,,,,,,,,,,,,
,,GENIUS,4.68977,1,,,,,,stimuli/images/PICTURE_269.png,GENIUS,5c5fe9d34fff5700017ecdb4,05/01/1955,2020-09-12_06h51.57.101,proactive3.2,2020.1.2,Win32,60,5f5adea66120081ea0f57a61,5f5c61dce06d35459fd3459d,3,,,,,,chameleon,0,2,2,0,1,,,,,,,,,,,,,,,,,,,,,,,,,,,,,,,,,,,,,,,,,,,,,,,,,,,,,,,,,,,,,,,,,,,,,,,,,,,,,,,,,,
,,CELL,4.01181,1,,,,,,stimuli/images/PICTURE_727.png,CELL,5c5fe9d34fff5700017ecdb4,05/01/1955,2020-09-12_06h51.57.101,proactive3.2,2020.1.2,Win32,60,5f5adea66120081ea0f57a61,5f5c61dce06d35459fd3459d,3,,,,,,hose,0,3,3,1,1,,,,,,,,,,,,,,,,,,,,,,,,,,,,,,,,,,,,,,,,,,,,,,,,,,,,,,,,,,,,,,,,,,,,,,,,,,,,,,,,,,
,,DEVIL,3.66538,1,,,,,,stimuli/images/PICTURE_658.png,DEVIL,5c5fe9d34fff5700017ecdb4,05/01/1955,2020-09-12_06h51.57.101,proactive3.2,2020.1.2,Win32,60,5f5adea66120081ea0f57a61,5f5c61dce06d35459fd3459d,3,,,,,,crow,0,4,4,3,1,,,,,,,,,,,,,,,,,,,,,,,,,,,,,,,,,,,,,,,,,,,,,,,,,,,,,,,,,,,,,,,,,,,,,,,,,,,,,,,,,,
,,,,,,,,,,stimuli/images/PICTURE_2.png,YARD,5c5fe9d34fff5700017ecdb4,05/01/1955,2020-09-12_06h51.57.101,proactive3.2,2020.1.2,Win32,60,5f5adea66120081ea0f57a61,5f5c61dce06d35459fd3459d,3,,,,,,tyre,,,,,,0,0,0,55,1,6,2,,,,,,,,,,,,,,,,,,,,,,,,,,,,,,,,,,,,,,,,,,,,,,,,,,,,,,,,,,,,,,,,,,,,,,,,,,,
,,,,,,,,,,stimuli/images/PICTURE_667.png,GLASS,5c5fe9d34fff5700017ecdb4,05/01/1955,2020-09-12_06h51.57.101,proactive3.2,2020.1.2,Win32,60,5f5adea66120081ea0f57a61,5f5c61dce06d35459fd3459d,3,,,,,,daisy,,,,,,0,1,1,27,1,3,2,,,,,,,,,,,,,,,,,,,,,,,,,,,,,,,,,,,,,,,,,,,,,,,,,,,,,,,,,,,,,,,,,,,,,,,,,,,
,,,,,,,,,,stimuli/images/PICTURE_18.png,RIVER,5c5fe9d34fff5700017ecdb4,05/01/1955,2020-09-12_06h51.57.101,proactive3.2,2020.1.2,Win32,60,5f5adea66120081ea0f57a61,5f5c61dce06d35459fd3459d,3,,,,,,planet,,,,,,0,2,2,22,1,3,2,,,,,,,,,,,,,,,,,,,,,,,,,,,,,,,,,,,,,,,,,,,,,,,,,,,,,,,,,,,,,,,,,,,,,,,,,,,
,,,,,,,,,,stimuli/images/PICTURE_255.png,PENNY,5c5fe9d34fff5700017ecdb4,05/01/1955,2020-09-12_06h51.57.101,proactive3.2,2020.1.2,Win32,60,5f5adea66120081ea0f57a61,5f5c61dce06d35459fd3459d,3,,,,,,shovel,,,,,,0,3,3,19,1,2,2,,,,,,,,,,,,,,,,,,,,,,,,,,,,,,,,,,,,,,,,,,,,,,,,,,,,,,,,,,,,,,,,,,,,,,,,,,,
,,,,,,,,,,stimuli/images/PICTURE_215.png,FOOD,5c5fe9d34fff5700017ecdb4,05/01/1955,2020-09-12_06h51.57.101,proactive3.2,2020.1.2,Win32,60,5f5adea66120081ea0f57a61,5f5c61dce06d35459fd3459d,3,,,,,,boot,,,,,,0,4,4,5,1,1,2,,,,,,,,,,,,,,,,,,,,,,,,,,,,,,,,,,,,,,,,,,,,,,,,,,,,,,,,,,,,,,,,,,,,,,,,,,,
,,,,,,,,,,stimuli/images/PICTURE_285.png,PRINCE,5c5fe9d34fff5700017ecdb4,05/01/1955,2020-09-12_06h51.57.101,proactive3.2,2020.1.2,Win32,60,5f5adea66120081ea0f57a61,5f5c61dce06d35459fd3459d,3,,,,,,carrot,,,,,,0,5,5,20,1,3,2,,,,,,,,,,,,,,,,,,,,,,,,,,,,,,,,,,,,,,,,,,,,,,,,,,,,,,,,,,,,,,,,,,,,,,,,,,,
,,,,,,,,,,stimuli/images/PICTURE_692.png,DUDE,5c5fe9d34fff5700017ecdb4,05/01/1955,2020-09-12_06h51.57.101,proactive3.2,2020.1.2,Win32,60,5f5adea66120081ea0f57a61,5f5c61dce06d35459fd3459d,3,,,,,,cherry,,,,,,0,6,6,47,1,5,2,,,,,,,,,,,,,,,,,,,,,,,,,,,,,,,,,,,,,,,,,,,,,,,,,,,,,,,,,,,,,,,,,,,,,,,,,,,
,,,,,,,,,,stimuli/images/PICTURE_314.png,SPEECH,5c5fe9d34fff5700017ecdb4,05/01/1955,2020-09-12_06h51.57.101,proactive3.2,2020.1.2,Win32,60,5f5adea66120081ea0f57a61,5f5c61dce06d35459fd3459d,3,,,,,,perfume,,,,,,0,7,7,35,1,4,2,,,,,,,,,,,,,,,,,,,,,,,,,,,,,,,,,,,,,,,,,,,,,,,,,,,,,,,,,,,,,,,,,,,,,,,,,,,
,,,,,,,,,,stimuli/images/PICTURE_654.png,COPS,5c5fe9d34fff5700017ecdb4,05/01/1955,2020-09-12_06h51.57.101,proactive3.2,2020.1.2,Win32,60,5f5adea66120081ea0f57a61,5f5c61dce06d35459fd3459d,3,,,,,,pencil,,,,,,0,8,8,10,1,2,2,,,,,,,,,,,,,,,,,,,,,,,,,,,,,,,,,,,,,,,,,,,,,,,,,,,,,,,,,,,,,,,,,,,,,,,,,,,
,,,,,,,,,,stimuli/images/PICTURE_32.png,LETTER,5c5fe9d34fff5700017ecdb4,05/01/1955,2020-09-12_06h51.57.101,proactive3.2,2020.1.2,Win32,60,5f5adea66120081ea0f57a61,5f5c61dce06d35459fd3459d,3,,,,,,crown,,,,,,0,9,9,56,1,6,2,,,,,,,,,,,,,,,,,,,,,,,,,,,,,,,,,,,,,,,,,,,,,,,,,,,,,,,,,,,,,,,,,,,,,,,,,,,
,,,,,,,,,,stimuli/images/PICTURE_2.png,AREA,5c5fe9d34fff5700017ecdb4,05/01/1955,2020-09-12_06h51.57.101,proactive3.2,2020.1.2,Win32,60,5f5adea66120081ea0f57a61,5f5c61dce06d35459fd3459d,3,,,,,,tyre,,,,,,0,10,10,32,1,4,2,,,,,,,,,,,,,,,,,,,,,,,,,,,,,,,,,,,,,,,,,,,,,,,,,,,,,,,,,,,,,,,,,,,,,,,,,,,
,,,,,,,,,,stimuli/images/PICTURE_57.png,CANDY,5c5fe9d34fff5700017ecdb4,05/01/1955,2020-09-12_06h51.57.101,proactive3.2,2020.1.2,Win32,60,5f5adea66120081ea0f57a61,5f5c61dce06d35459fd3459d,3,,,,,,stamp,,,,,,0,11,11,52,1,6,2,,,,,,,,,,,,,,,,,,,,,,,,,,,,,,,,,,,,,,,,,,,,,,,,,,,,,,,,,,,,,,,,,,,,,,,,,,,
,,,,,,,,,,stimuli/images/PICTURE_141.png,CLIENT,5c5fe9d34fff5700017ecdb4,05/01/1955,2020-09-12_06h51.57.101,proactive3.2,2020.1.2,Win32,60,5f5adea66120081ea0f57a61,5f5c61dce06d35459fd3459d,3,,,,,,sunflower,,,,,,0,12,12,30,1,4,2,,,,,,,,,,,,,,,,,,,,,,,,,,,,,,,,,,,,,,,,,,,,,,,,,,,,,,,,,,,,,,,,,,,,,,,,,,,
,,,,,,,,,,stimuli/images/PICTURE_296.png,CLOCK,5c5fe9d34fff5700017ecdb4,05/01/1955,2020-09-12_06h51.57.101,proactive3.2,2020.1.2,Win32,60,5f5adea66120081ea0f57a61,5f5c61dce06d35459fd3459d,3,,,,,,bolt,,,,,,0,13,13,18,1,2,2,,,,,,,,,,,,,,,,,,,,,,,,,,,,,,,,,,,,,,,,,,,,,,,,,,,,,,,,,,,,,,,,,,,,,,,,,,,
,,,,,,,,,,stimuli/images/PICTURE_348.png,TOILET,5c5fe9d34fff5700017ecdb4,05/01/1955,2020-09-12_06h51.57.101,proactive3.2,2020.1.2,Win32,60,5f5adea66120081ea0f57a61,5f5c61dce06d35459fd3459d,3,,,,,,pepper,,,,,,0,14,14,4,1,1,2,,,,,,,,,,,,,,,,,,,,,,,,,,,,,,,,,,,,,,,,,,,,,,,,,,,,,,,,,,,,,,,,,,,,,,,,,,,
,,,,,,,,,,stimuli/images/PICTURE_509.png,MILLER,5c5fe9d34fff5700017ecdb4,05/01/1955,2020-09-12_06h51.57.101,proactive3.2,2020.1.2,Win32,60,5f5adea66120081ea0f57a61,5f5c61dce06d35459fd3459d,3,,,,,,telephone,,,,,,0,15,15,49,1,5,2,,,,,,,,,,,,,,,,,,,,,,,,,,,,,,,,,,,,,,,,,,,,,,,,,,,,,,,,,,,,,,,,,,,,,,,,,,,
,,,,,,,,,,stimuli/images/PICTURE_68.png,KIND,5c5fe9d34fff5700017ecdb4,05/01/1955,2020-09-12_06h51.57.101,proactive3.2,2020.1.2,Win32,60,5f5adea66120081ea0f57a61,5f5c61dce06d35459fd3459d,3,,,,,,candle,,,,,,0,16,16,23,1,3,2,,,,,,,,,,,,,,,,,,,,,,,,,,,,,,,,,,,,,,,,,,,,,,,,,,,,,,,,,,,,,,,,,,,,,,,,,,,
,,,,,,,,,,stimuli/images/PICTURE_356.png,CANDY,5c5fe9d34fff5700017ecdb4,05/01/1955,2020-09-12_06h51.57.101,proactive3.2,2020.1.2,Win32,60,5f5adea66120081ea0f57a61,5f5c61dce06d35459fd3459d,3,,,,,,pawn,,,,,,0,17,17,46,1,5,2,,,,,,,,,,,,,,,,,,,,,,,,,,,,,,,,,,,,,,,,,,,,,,,,,,,,,,,,,,,,,,,,,,,,,,,,,,,
,,,,,,,,,,stimuli/images/PICTURE_33.png,COPS,5c5fe9d34fff5700017ecdb4,05/01/1955,2020-09-12_06h51.57.101,proactive3.2,2020.1.2,Win32,60,5f5adea66120081ea0f57a61,5f5c61dce06d35459fd3459d,3,,,,,,frame,,,,,,0,18,18,29,1,3,2,,,,,,,,,,,,,,,,,,,,,,,,,,,,,,,,,,,,,,,,,,,,,,,,,,,,,,,,,,,,,,,,,,,,,,,,,,,
,,,,,,,,,,stimuli/images/PICTURE_215.png,BOYS,5c5fe9d34fff5700017ecdb4,05/01/1955,2020-09-12_06h51.57.101,proactive3.2,2020.1.2,Win32,60,5f5adea66120081ea0f57a61,5f5c61dce06d35459fd3459d,3,,,,,,boot,,,,,,0,19,19,24,1,3,2,,,,,,,,,,,,,,,,,,,,,,,,,,,,,,,,,,,,,,,,,,,,,,,,,,,,,,,,,,,,,,,,,,,,,,,,,,,
,,,,,,,,,,stimuli/images/PICTURE_123.png,SALE,5c5fe9d34fff5700017ecdb4,05/01/1955,2020-09-12_06h51.57.101,proactive3.2,2020.1.2,Win32,60,5f5adea66120081ea0f57a61,5f5c61dce06d35459fd3459d,3,,,,,,dart,,,,,,0,20,20,8,1,1,2,,,,,,,,,,,,,,,,,,,,,,,,,,,,,,,,,,,,,,,,,,,,,,,,,,,,,,,,,,,,,,,,,,,,,,,,,,,
,,,,,,,,,,stimuli/images/PICTURE_452.png,COPS,5c5fe9d34fff5700017ecdb4,05/01/1955,2020-09-12_06h51.57.101,proactive3.2,2020.1.2,Win32,60,5f5adea66120081ea0f57a61,5f5c61dce06d35459fd3459d,3,,,,,,watch,,,,,,0,21,21,0,1,1,2,,,,,,,,,,,,,,,,,,,,,,,,,,,,,,,,,,,,,,,,,,,,,,,,,,,,,,,,,,,,,,,,,,,,,,,,,,,
,,,,,,,,,,stimuli/images/PICTURE_311.png,TOILET,5c5fe9d34fff5700017ecdb4,05/01/1955,2020-09-12_06h51.57.101,proactive3.2,2020.1.2,Win32,60,5f5adea66120081ea0f57a61,5f5c61dce06d35459fd3459d,3,,,,,,razor,,,,,,0,22,22,54,1,6,2,,,,,,,,,,,,,,,,,,,,,,,,,,,,,,,,,,,,,,,,,,,,,,,,,,,,,,,,,,,,,,,,,,,,,,,,,,,
,,,,,,,,,,stimuli/images/PICTURE_677.png,PHOTO,5c5fe9d34fff5700017ecdb4,05/01/1955,2020-09-12_06h51.57.101,proactive3.2,2020.1.2,Win32,60,5f5adea66120081ea0f57a61,5f5c61dce06d35459fd3459d,3,,,,,,map,,,,,,0,23,23,14,1,2,2,,,,,,,,,,,,,,,,,,,,,,,,,,,,,,,,,,,,,,,,,,,,,,,,,,,,,,,,,,,,,,,,,,,,,,,,,,,
,,,,,,,,,,stimuli/images/PICTURE_177.png,HOUSE,5c5fe9d34fff5700017ecdb4,05/01/1955,2020-09-12_06h51.57.101,proactive3.2,2020.1.2,Win32,60,5f5adea66120081ea0f57a61,5f5c61dce06d35459fd3459d,3,,,,,,mushroom,,,,,,0,24,24,25,1,3,2,,,,,,,,,,,,,,,,,,,,,,,,,,,,,,,,,,,,,,,,,,,,,,,,,,,,,,,,,,,,,,,,,,,,,,,,,,,
,,,,,,,,,,stimuli/images/PICTURE_327.png,LEADER,5c5fe9d34fff5700017ecdb4,05/01/1955,2020-09-12_06h51.57.101,proactive3.2,2020.1.2,Win32,60,5f5adea66120081ea0f57a61,5f5c61dce06d35459fd3459d,3,,,,,,helmet,,,,,,0,25,25,17,1,2,2,,,,,,,,,,,,,,,,,,,,,,,,,,,,,,,,,,,,,,,,,,,,,,,,,,,,,,,,,,,,,,,,,,,,,,,,,,,
,,,,,,,,,,stimuli/images/PICTURE_95.png,NIGHT,5c5fe9d34fff5700017ecdb4,05/01/1955,2020-09-12_06h51.57.101,proactive3.2,2020.1.2,Win32,60,5f5adea66120081ea0f57a61,5f5c61dce06d35459fd3459d,3,,,,,,suitcase,,,,,,0,26,26,37,1,4,2,,,,,,,,,,,,,,,,,,,,,,,,,,,,,,,,,,,,,,,,,,,,,,,,,,,,,,,,,,,,,,,,,,,,,,,,,,,
,,,,,,,,,,stimuli/images/PICTURE_208.png,SPIRIT,5c5fe9d34fff5700017ecdb4,05/01/1955,2020-09-12_06h51.57.101,proactive3.2,2020.1.2,Win32,60,5f5adea66120081ea0f57a61,5f5c61dce06d35459fd3459d,3,,,,,,microphone,,,,,,0,27,27,28,1,3,2,,,,,,,,,,,,,,,,,,,,,,,,,,,,,,,,,,,,,,,,,,,,,,,,,,,,,,,,,,,,,,,,,,,,,,,,,,,
,,,,,,,,,,stimuli/images/PICTURE_677.png,FAMILY,5c5fe9d34fff5700017ecdb4,05/01/1955,2020-09-12_06h51.57.101,proactive3.2,2020.1.2,Win32,60,5f5adea66120081ea0f57a61,5f5c61dce06d35459fd3459d,3,,,,,,map,,,,,,0,28,28,53,1,6,2,,,,,,,,,,,,,,,,,,,,,,,,,,,,,,,,,,,,,,,,,,,,,,,,,,,,,,,,,,,,,,,,,,,,,,,,,,,
,,,,,,,,,,stimuli/images/PICTURE_509.png,APPLE,5c5fe9d34fff5700017ecdb4,05/01/1955,2020-09-12_06h51.57.101,proactive3.2,2020.1.2,Win32,60,5f5adea66120081ea0f57a61,5f5c61dce06d35459fd3459d,3,,,,,,telephone,,,,,,0,29,29,38,1,4,2,,,,,,,,,,,,,,,,,,,,,,,,,,,,,,,,,,,,,,,,,,,,,,,,,,,,,,,,,,,,,,,,,,,,,,,,,,,
,,,,,,,,,,stimuli/images/PICTURE_160.png,HOTEL,5c5fe9d34fff5700017ecdb4,05/01/1955,2020-09-12_06h51.57.101,proactive3.2,2020.1.2,Win32,60,5f5adea66120081ea0f57a61,5f5c61dce06d35459fd3459d,3,,,,,,wheelbarrow,,,,,,0,30,30,16,1,2,2,,,,,,,,,,,,,,,,,,,,,,,,,,,,,,,,,,,,,,,,,,,,,,,,,,,,,,,,,,,,,,,,,,,,,,,,,,,
,,,,,,,,,,stimuli/images/PICTURE_57.png,NATION,5c5fe9d34fff5700017ecdb4,05/01/1955,2020-09-12_06h51.57.101,proactive3.2,2020.1.2,Win32,60,5f5adea66120081ea0f57a61,5f5c61dce06d35459fd3459d,3,,,,,,stamp,,,,,,0,31,31,21,1,3,2,,,,,,,,,,,,,,,,,,,,,,,,,,,,,,,,,,,,,,,,,,,,,,,,,,,,,,,,,,,,,,,,,,,,,,,,,,,
,,,,,,,,,,stimuli/images/PICTURE_564.png,PLENTY,5c5fe9d34fff5700017ecdb4,05/01/1955,2020-09-12_06h51.57.101,proactive3.2,2020.1.2,Win32,60,5f5adea66120081ea0f57a61,5f5c61dce06d35459fd3459d,3,,,,,,spoon,,,,,,0,32,32,11,1,2,2,,,,,,,,,,,,,,,,,,,,,,,,,,,,,,,,,,,,,,,,,,,,,,,,,,,,,,,,,,,,,,,,,,,,,,,,,,,
,,,,,,,,,,stimuli/images/PICTURE_655.png,SALE,5c5fe9d34fff5700017ecdb4,05/01/1955,2020-09-12_06h51.57.101,proactive3.2,2020.1.2,Win32,60,5f5adea66120081ea0f57a61,5f5c61dce06d35459fd3459d,3,,,,,,megaphone,,,,,,0,33,33,57,1,6,2,,,,,,,,,,,,,,,,,,,,,,,,,,,,,,,,,,,,,,,,,,,,,,,,,,,,,,,,,,,,,,,,,,,,,,,,,,,
,,,,,,,,,,stimuli/images/PICTURE_215.png,LEADER,5c5fe9d34fff5700017ecdb4,05/01/1955,2020-09-12_06h51.57.101,proactive3.2,2020.1.2,Win32,60,5f5adea66120081ea0f57a61,5f5c61dce06d35459fd3459d,3,,,,,,boot,,,,,,0,34,34,43,1,5,2,,,,,,,,,,,,,,,,,,,,,,,,,,,,,,,,,,,,,,,,,,,,,,,,,,,,,,,,,,,,,,,,,,,,,,,,,,,
,,,,,,,,,,stimuli/images/PICTURE_487.png,POLICY,5c5fe9d34fff5700017ecdb4,05/01/1955,2020-09-12_06h51.57.101,proactive3.2,2020.1.2,Win32,60,5f5adea66120081ea0f57a61,5f5c61dce06d35459fd3459d,3,,,,,,basket,,,,,,0,35,35,34,1,4,2,,,,,,,,,,,,,,,,,,,,,,,,,,,,,,,,,,,,,,,,,,,,,,,,,,,,,,,,,,,,,,,,,,,,,,,,,,,
,,,,,,,,,,stimuli/images/PICTURE_453.png,FAMILY,5c5fe9d34fff5700017ecdb4,05/01/1955,2020-09-12_06h51.57.101,proactive3.2,2020.1.2,Win32,60,5f5adea66120081ea0f57a61,5f5c61dce06d35459fd3459d,3,,,,,,scissors,,,,,,0,36,36,48,1,5,2,,,,,,,,,,,,,,,,,,,,,,,,,,,,,,,,,,,,,,,,,,,,,,,,,,,,,,,,,,,,,,,,,,,,,,,,,,,
,,,,,,,,,,stimuli/images/PICTURE_403.png,FAMILY,5c5fe9d34fff5700017ecdb4,05/01/1955,2020-09-12_06h51.57.101,proactive3.2,2020.1.2,Win32,60,5f5adea66120081ea0f57a61,5f5c61dce06d35459fd3459d,3,,,,,,cathedral,,,,,,0,37,37,9,1,1,2,,,,,,,,,,,,,,,,,,,,,,,,,,,,,,,,,,,,,,,,,,,,,,,,,,,,,,,,,,,,,,,,,,,,,,,,,,,
,,,,,,,,,,stimuli/images/PICTURE_285.png,WRITER,5c5fe9d34fff5700017ecdb4,05/01/1955,2020-09-12_06h51.57.101,proactive3.2,2020.1.2,Win32,60,5f5adea66120081ea0f57a61,5f5c61dce06d35459fd3459d,3,,,,,,carrot,,,,,,0,38,38,6,1,1,2,,,,,,,,,,,,,,,,,,,,,,,,,,,,,,,,,,,,,,,,,,,,,,,,,,,,,,,,,,,,,,,,,,,,,,,,,,,
,,,,,,,,,,stimuli/images/PICTURE_470.png,BEAUTY,5c5fe9d34fff5700017ecdb4,05/01/1955,2020-09-12_06h51.57.101,proactive3.2,2020.1.2,Win32,60,5f5adea66120081ea0f57a61,5f5c61dce06d35459fd3459d,3,,,,,,motorbike,,,,,,0,39,39,26,1,3,2,,,,,,,,,,,,,,,,,,,,,,,,,,,,,,,,,,,,,,,,,,,,,,,,,,,,,,,,,,,,,,,,,,,,,,,,,,,
,,,,,,,,,,stimuli/images/PICTURE_654.png,YEAR,5c5fe9d34fff5700017ecdb4,05/01/1955,2020-09-12_06h51.57.101,proactive3.2,2020.1.2,Win32,60,5f5adea66120081ea0f57a61,5f5c61dce06d35459fd3459d,3,,,,,,pencil,,,,,,0,40,40,41,1,5,2,,,,,,,,,,,,,,,,,,,,,,,,,,,,,,,,,,,,,,,,,,,,,,,,,,,,,,,,,,,,,,,,,,,,,,,,,,,
,,,,,,,,,,stimuli/images/PICTURE_405.png,HOUSE,5c5fe9d34fff5700017ecdb4,05/01/1955,2020-09-12_06h51.57.101,proactive3.2,2020.1.2,Win32,60,5f5adea66120081ea0f57a61,5f5c61dce06d35459fd3459d,3,,,,,,anchor,,,,,,0,41,41,2,1,1,2,,,,,,,,,,,,,,,,,,,,,,,,,,,,,,,,,,,,,,,,,,,,,,,,,,,,,,,,,,,,,,,,,,,,,,,,,,,
,,,,,,,,,,stimuli/images/PICTURE_688.png,CLOCK,5c5fe9d34fff5700017ecdb4,05/01/1955,2020-09-12_06h51.57.101,proactive3.2,2020.1.2,Win32,60,5f5adea66120081ea0f57a61,5f5c61dce06d35459fd3459d,3,,,,,,runner,,,,,,0,42,42,42,1,5,2,,,,,,,,,,,,,,,,,,,,,,,,,,,,,,,,,,,,,,,,,,,,,,,,,,,,,,,,,,,,,,,,,,,,,,,,,,,
,,,,,,,,,,stimuli/images/PICTURE_348.png,DUDE,5c5fe9d34fff5700017ecdb4,05/01/1955,2020-09-12_06h51.57.101,proactive3.2,2020.1.2,Win32,60,5f5adea66120081ea0f57a61,5f5c61dce06d35459fd3459d,3,,,,,,pepper,,,,,,0,43,43,59,1,6,2,,,,,,,,,,,,,,,,,,,,,,,,,,,,,,,,,,,,,,,,,,,,,,,,,,,,,,,,,,,,,,,,,,,,,,,,,,,
,,,,,,,,,,stimuli/images/PICTURE_405.png,JUNGLE,5c5fe9d34fff5700017ecdb4,05/01/1955,2020-09-12_06h51.57.101,proactive3.2,2020.1.2,Win32,60,5f5adea66120081ea0f57a61,5f5c61dce06d35459fd3459d,3,,,,,,anchor,,,,,,0,44,44,13,1,2,2,,,,,,,,,,,,,,,,,,,,,,,,,,,,,,,,,,,,,,,,,,,,,,,,,,,,,,,,,,,,,,,,,,,,,,,,,,,
,,,,,,,,,,stimuli/images/PICTURE_491.png,SERIES,5c5fe9d34fff5700017ecdb4,05/01/1955,2020-09-12_06h51.57.101,proactive3.2,2020.1.2,Win32,60,5f5adea66120081ea0f57a61,5f5c61dce06d35459fd3459d,3,,,,,,rug,,,,,,0,45,45,39,1,4,2,,,,,,,,,,,,,,,,,,,,,,,,,,,,,,,,,,,,,,,,,,,,,,,,,,,,,,,,,,,,,,,,,,,,,,,,,,,
,,,,,,,,,,stimuli/images/PICTURE_93.png,GIRL,5c5fe9d34fff5700017ecdb4,05/01/1955,2020-09-12_06h51.57.101,proactive3.2,2020.1.2,Win32,60,5f5adea66120081ea0f57a61,5f5c61dce06d35459fd3459d,3,,,,,,skateboard,,,,,,0,46,46,31,1,4,2,,,,,,,,,,,,,,,,,,,,,,,,,,,,,,,,,,,,,,,,,,,,,,,,,,,,,,,,,,,,,,,,,,,,,,,,,,,
,,,,,,,,,,stimuli/images/PICTURE_509.png,SHOTS,5c5fe9d34fff5700017ecdb4,05/01/1955,2020-09-12_06h51.57.101,proactive3.2,2020.1.2,Win32,60,5f5adea66120081ea0f57a61,5f5c61dce06d35459fd3459d,3,,,,,,telephone,,,,,,0,47,47,7,1,1,2,,,,,,,,,,,,,,,,,,,,,,,,,,,,,,,,,,,,,,,,,,,,,,,,,,,,,,,,,,,,,,,,,,,,,,,,,,,
,,,,,,,,,,stimuli/images/PICTURE_405.png,JUNGLE,5c5fe9d34fff5700017ecdb4,05/01/1955,2020-09-12_06h51.57.101,proactive3.2,2020.1.2,Win32,60,5f5adea66120081ea0f57a61,5f5c61dce06d35459fd3459d,3,,,,,,anchor,,,,,,0,48,48,58,1,6,2,,,,,,,,,,,,,,,,,,,,,,,,,,,,,,,,,,,,,,,,,,,,,,,,,,,,,,,,,,,,,,,,,,,,,,,,,,,
,,,,,,,,,,stimuli/images/PICTURE_708.png,VALLEY,5c5fe9d34fff5700017ecdb4,05/01/1955,2020-09-12_06h51.57.101,proactive3.2,2020.1.2,Win32,60,5f5adea66120081ea0f57a61,5f5c61dce06d35459fd3459d,3,,,,,,monkey,,,,,,0,49,49,45,1,5,2,,,,,,,,,,,,,,,,,,,,,,,,,,,,,,,,,,,,,,,,,,,,,,,,,,,,,,,,,,,,,,,,,,,,,,,,,,,
,,,,,,,,,,stimuli/images/PICTURE_2.png,JUNGLE,5c5fe9d34fff5700017ecdb4,05/01/1955,2020-09-12_06h51.57.101,proactive3.2,2020.1.2,Win32,60,5f5adea66120081ea0f57a61,5f5c61dce06d35459fd3459d,3,,,,,,tyre,,,,,,0,50,50,1,1,1,2,,,,,,,,,,,,,,,,,,,,,,,,,,,,,,,,,,,,,,,,,,,,,,,,,,,,,,,,,,,,,,,,,,,,,,,,,,,
,,,,,,,,,,stimuli/images/PICTURE_487.png,ROOF,5c5fe9d34fff5700017ecdb4,05/01/1955,2020-09-12_06h51.57.101,proactive3.2,2020.1.2,Win32,60,5f5adea66120081ea0f57a61,5f5c61dce06d35459fd3459d,3,,,,,,basket,,,,,,0,51,51,50,1,6,2,,,,,,,,,,,,,,,,,,,,,,,,,,,,,,,,,,,,,,,,,,,,,,,,,,,,,,,,,,,,,,,,,,,,,,,,,,,
,,,,,,,,,,stimuli/images/PICTURE_311.png,FLESH,5c5fe9d34fff5700017ecdb4,05/01/1955,2020-09-12_06h51.57.101,proactive3.2,2020.1.2,Win32,60,5f5adea66120081ea0f57a61,5f5c61dce06d35459fd3459d,3,,,,,,razor,,,,,,0,52,52,3,1,1,2,,,,,,,,,,,,,,,,,,,,,,,,,,,,,,,,,,,,,,,,,,,,,,,,,,,,,,,,,,,,,,,,,,,,,,,,,,,
,,,,,,,,,,stimuli/images/PICTURE_509.png,BATH,5c5fe9d34fff5700017ecdb4,05/01/1955,2020-09-12_06h51.57.101,proactive3.2,2020.1.2,Win32,60,5f5adea66120081ea0f57a61,5f5c61dce06d35459fd3459d,3,,,,,,telephone,,,,,,0,53,53,15,1,2,2,,,,,,,,,,,,,,,,,,,,,,,,,,,,,,,,,,,,,,,,,,,,,,,,,,,,,,,,,,,,,,,,,,,,,,,,,,,
,,,,,,,,,,stimuli/images/PICTURE_750.png,POLICY,5c5fe9d34fff5700017ecdb4,05/01/1955,2020-09-12_06h51.57.101,proactive3.2,2020.1.2,Win32,60,5f5adea66120081ea0f57a61,5f5c61dce06d35459fd3459d,3,,,,,,kettle,,,,,,0,54,54,44,1,5,2,,,,,,,,,,,,,,,,,,,,,,,,,,,,,,,,,,,,,,,,,,,,,,,,,,,,,,,,,,,,,,,,,,,,,,,,,,,
,,,,,,,,,,stimuli/images/PICTURE_147.png,LEADER,5c5fe9d34fff5700017ecdb4,05/01/1955,2020-09-12_06h51.57.101,proactive3.2,2020.1.2,Win32,60,5f5adea66120081ea0f57a61,5f5c61dce06d35459fd3459d,3,,,,,,hanger,,,,,,0,55,55,33,1,4,2,,,,,,,,,,,,,,,,,,,,,,,,,,,,,,,,,,,,,,,,,,,,,,,,,,,,,,,,,,,,,,,,,,,,,,,,,,,
,,,,,,,,,,stimuli/images/PICTURE_470.png,MOMENT,5c5fe9d34fff5700017ecdb4,05/01/1955,2020-09-12_06h51.57.101,proactive3.2,2020.1.2,Win32,60,5f5adea66120081ea0f57a61,5f5c61dce06d35459fd3459d,3,,,,,,motorbike,,,,,,0,56,56,40,1,5,2,,,,,,,,,,,,,,,,,,,,,,,,,,,,,,,,,,,,,,,,,,,,,,,,,,,,,,,,,,,,,,,,,,,,,,,,,,,
,,,,,,,,,,stimuli/images/PICTURE_297.png,BODY,5c5fe9d34fff5700017ecdb4,05/01/1955,2020-09-12_06h51.57.101,proactive3.2,2020.1.2,Win32,60,5f5adea66120081ea0f57a61,5f5c61dce06d35459fd3459d,3,,,,,,aeroplane,,,,,,0,57,57,51,1,6,2,,,,,,,,,,,,,,,,,,,,,,,,,,,,,,,,,,,,,,,,,,,,,,,,,,,,,,,,,,,,,,,,,,,,,,,,,,,
,,,,,,,,,,stimuli/images/PICTURE_504.png,HOUSE,5c5fe9d34fff5700017ecdb4,05/01/1955,2020-09-12_06h51.57.101,proactive3.2,2020.1.2,Win32,60,5f5adea66120081ea0f57a61,5f5c61dce06d35459fd3459d,3,,,,,,wheel,,,,,,0,58,58,36,1,4,2,,,,,,,,,,,,,,,,,,,,,,,,,,,,,,,,,,,,,,,,,,,,,,,,,,,,,,,,,,,,,,,,,,,,,,,,,,,
,,?,0.00264,0,,,,,,stimuli/images/PICTURE_215.png,FOOD,5c5fe9d34fff5700017ecdb4,05/01/1955,2020-09-12_06h51.57.101,proactive3.2,2020.1.2,Win32,60,5f5adea66120081ea0f57a61,5f5c61dce06d35459fd3459d,3,,,,,,boot,,,,,,,,,,,1,2,0,0,0,5,1,,,,,,,,,,,,,,,,,,,,,,,,,,,,,,,,,,,,,,,,,,,,,,,,,,,,,,,,,,,,,,,,,,,,,,
,,GLASS,3.615385,1,,,,,,stimuli/images/PICTURE_667.png,GLASS,5c5fe9d34fff5700017ecdb4,05/01/1955,2020-09-12_06h51.57.101,proactive3.2,2020.1.2,Win32,60,5f5adea66120081ea0f57a61,5f5c61dce06d35459fd3459d,3,,,,,,daisy,,,,,,,,,,,3,2,0,1,1,27,1,,,,,,,,,,,,,,,,,,,,,,,,,,,,,,,,,,,,,,,,,,,,,,,,,,,,,,,,,,,,,,,,,,,,,,
,,?,0.002045,0,,,,,,stimuli/images/PICTURE_123.png,SALE,5c5fe9d34fff5700017ecdb4,05/01/1955,2020-09-12_06h51.57.101,proactive3.2,2020.1.2,Win32,60,5f5adea66120081ea0f57a61,5f5c61dce06d35459fd3459d,3,,,,,,dart,,,,,,,,,,,1,2,0,2,2,8,1,,,,,,,,,,,,,,,,,,,,,,,,,,,,,,,,,,,,,,,,,,,,,,,,,,,,,,,,,,,,,,,,,,,,,,
,,?,0.00328,0,,,,,,stimuli/images/PICTURE_285.png,WRITER,5c5fe9d34fff5700017ecdb4,05/01/1955,2020-09-12_06h51.57.101,proactive3.2,2020.1.2,Win32,60,5f5adea66120081ea0f57a61,5f5c61dce06d35459fd3459d,3,,,,,,carrot,,,,,,,,,,,1,2,0,3,3,6,1,,,,,,,,,,,,,,,,,,,,,,,,,,,,,,,,,,,,,,,,,,,,,,,,,,,,,,,,,,,,,,,,,,,,,,
,,?,0.002665,0,,,,,,stimuli/images/PICTURE_487.png,POLICY,5c5fe9d34fff5700017ecdb4,05/01/1955,2020-09-12_06h51.57.101,proactive3.2,2020.1.2,Win32,60,5f5adea66120081ea0f57a61,5f5c61dce06d35459fd3459d,3,,,,,,basket,,,,,,,,,,,4,2,0,4,4,34,1,,,,,,,,,,,,,,,,,,,,,,,,,,,,,,,,,,,,,,,,,,,,,,,,,,,,,,,,,,,,,,,,,,,,,,
,,?,0.002915,0,,,,,,stimuli/images/PICTURE_487.png,ROOF,5c5fe9d34fff5700017ecdb4,05/01/1955,2020-09-12_06h51.57.101,proactive3.2,2020.1.2,Win32,60,5f5adea66120081ea0f57a61,5f5c61dce06d35459fd3459d,3,,,,,,basket,,,,,,,,,,,6,2,0,5,5,50,1,,,,,,,,,,,,,,,,,,,,,,,,,,,,,,,,,,,,,,,,,,,,,,,,,,,,,,,,,,,,,,,,,,,,,,
,,?,0.00246,0,,,,,,stimuli/images/PICTURE_215.png,LEADER,5c5fe9d34fff5700017ecdb4,05/01/1955,2020-09-12_06h51.57.101,proactive3.2,2020.1.2,Win32,60,5f5adea66120081ea0f57a61,5f5c61dce06d35459fd3459d,3,,,,,,boot,,,,,,,,,,,5,2,0,6,6,43,1,,,,,,,,,,,,,,,,,,,,,,,,,,,,,,,,,,,,,,,,,,,,,,,,,,,,,,,,,,,,,,,,,,,,,,
,,?,3.57014,0,,,,,,stimuli/images/PICTURE_208.png,SPIRIT,5c5fe9d34fff5700017ecdb4,05/01/1955,2020-09-12_06h51.57.101,proactive3.2,2020.1.2,Win32,60,5f5adea66120081ea0f57a61,5f5c61dce06d35459fd3459d,3,,,,,,microphone,,,,,,,,,,,3,2,0,7,7,28,1,,,,,,,,,,,,,,,,,,,,,,,,,,,,,,,,,,,,,,,,,,,,,,,,,,,,,,,,,,,,,,,,,,,,,,
,,?,0.0025,0,,,,,,stimuli/images/PICTURE_452.png,COPS,5c5fe9d34fff5700017ecdb4,05/01/1955,2020-09-12_06h51.57.101,proactive3.2,2020.1.2,Win32,60,5f5adea66120081ea0f57a61,5f5c61dce06d35459fd3459d,3,,,,,,watch,,,,,,,,,,,1,2,0,8,8,0,1,,,,,,,,,,,,,,,,,,,,,,,,,,,,,,,,,,,,,,,,,,,,,,,,,,,,,,,,,,,,,,,,,,,,,,
,,?,0.002055,0,,,,,,stimuli/images/PICTURE_509.png,APPLE,5c5fe9d34fff5700017ecdb4,05/01/1955,2020-09-12_06h51.57.101,proactive3.2,2020.1.2,Win32,60,5f5adea66120081ea0f57a61,5f5c61dce06d35459fd3459d,3,,,,,,telephone,,,,,,,,,,,4,2,0,9,9,38,1,,,,,,,,,,,,,,,,,,,,,,,,,,,,,,,,,,,,,,,,,,,,,,,,,,,,,,,,,,,,,,,,,,,,,,
,,?,0.00202,0,,,,,,stimuli/images/PICTURE_141.png,CLIENT,5c5fe9d34fff5700017ecdb4,05/01/1955,2020-09-12_06h51.57.101,proactive3.2,2020.1.2,Win32,60,5f5adea66120081ea0f57a61,5f5c61dce06d35459fd3459d,3,,,,,,sunflower,,,,,,,,,,,4,2,0,10,10,30,1,,,,,,,,,,,,,,,,,,,,,,,,,,,,,,,,,,,,,,,,,,,,,,,,,,,,,,,,,,,,,,,,,,,,,,
,,KIND,4.163215,1,,,,,,stimuli/images/PICTURE_68.png,KIND,5c5fe9d34fff5700017ecdb4,05/01/1955,2020-09-12_06h51.57.101,proactive3.2,2020.1.2,Win32,60,5f5adea66120081ea0f57a61,5f5c61dce06d35459fd3459d,3,,,,,,candle,,,,,,,,,,,3,2,0,11,11,23,1,,,,,,,,,,,,,,,,,,,,,,,,,,,,,,,,,,,,,,,,,,,,,,,,,,,,,,,,,,,,,,,,,,,,,,
,,?,0.00558,0,,,,,,stimuli/images/PICTURE_654.png,YEAR,5c5fe9d34fff5700017ecdb4,05/01/1955,2020-09-12_06h51.57.101,proactive3.2,2020.1.2,Win32,60,5f5adea66120081ea0f57a61,5f5c61dce06d35459fd3459d,3,,,,,,pencil,,,,,,,,,,,5,2,0,12,12,41,1,,,,,,,,,,,,,,,,,,,,,,,,,,,,,,,,,,,,,,,,,,,,,,,,,,,,,,,,,,,,,,,,,,,,,,
,,?,0.002025,0,,,,,,stimuli/images/PICTURE_504.png,HOUSE,5c5fe9d34fff5700017ecdb4,05/01/1955,2020-09-12_06h51.57.101,proactive3.2,2020.1.2,Win32,60,5f5adea66120081ea0f57a61,5f5c61dce06d35459fd3459d,3,,,,,,wheel,,,,,,,,,,,4,2,0,13,13,36,1,,,,,,,,,,,,,,,,,,,,,,,,,,,,,,,,,,,,,,,,,,,,,,,,,,,,,,,,,,,,,,,,,,,,,,
,,BEAUTY,3.86927,1,,,,,,stimuli/images/PICTURE_470.png,BEAUTY,5c5fe9d34fff5700017ecdb4,05/01/1955,2020-09-12_06h51.57.101,proactive3.2,2020.1.2,Win32,60,5f5adea66120081ea0f57a61,5f5c61dce06d35459fd3459d,3,,,,,,motorbike,,,,,,,,,,,3,2,0,14,14,26,1,,,,,,,,,,,,,,,,,,,,,,,,,,,,,,,,,,,,,,,,,,,,,,,,,,,,,,,,,,,,,,,,,,,,,,
,,?,0.002485,0,,,,,,stimuli/images/PICTURE_403.png,FAMILY,5c5fe9d34fff5700017ecdb4,05/01/1955,2020-09-12_06h51.57.101,proactive3.2,2020.1.2,Win32,60,5f5adea66120081ea0f57a61,5f5c61dce06d35459fd3459d,3,,,,,,cathedral,,,,,,,,,,,1,2,0,15,15,9,1,,,,,,,,,,,,,,,,,,,,,,,,,,,,,,,,,,,,,,,,,,,,,,,,,,,,,,,,,,,,,,,,,,,,,,
,,?,0.002295,0,,,,,,stimuli/images/PICTURE_453.png,FAMILY,5c5fe9d34fff5700017ecdb4,05/01/1955,2020-09-12_06h51.57.101,proactive3.2,2020.1.2,Win32,60,5f5adea66120081ea0f57a61,5f5c61dce06d35459fd3459d,3,,,,,,scissors,,,,,,,,,,,5,2,0,16,16,48,1,,,,,,,,,,,,,,,,,,,,,,,,,,,,,,,,,,,,,,,,,,,,,,,,,,,,,,,,,,,,,,,,,,,,,,
,,?,0.00201,0,,,,,,stimuli/images/PICTURE_314.png,SPEECH,5c5fe9d34fff5700017ecdb4,05/01/1955,2020-09-12_06h51.57.101,proactive3.2,2020.1.2,Win32,60,5f5adea66120081ea0f57a61,5f5c61dce06d35459fd3459d,3,,,,,,perfume,,,,,,,,,,,4,2,0,17,17,35,1,,,,,,,,,,,,,,,,,,,,,,,,,,,,,,,,,,,,,,,,,,,,,,,,,,,,,,,,,,,,,,,,,,,,,,
,,?,0.002155,0,,,,,,stimuli/images/PICTURE_311.png,FLESH,5c5fe9d34fff5700017ecdb4,05/01/1955,2020-09-12_06h51.57.101,proactive3.2,2020.1.2,Win32,60,5f5adea66120081ea0f57a61,5f5c61dce06d35459fd3459d,3,,,,,,razor,,,,,,,,,,,1,2,0,18,18,3,1,,,,,,,,,,,,,,,,,,,,,,,,,,,,,,,,,,,,,,,,,,,,,,,,,,,,,,,,,,,,,,,,,,,,,,
,,?,0.0022,0,,,,,,stimuli/images/PICTURE_57.png,CANDY,5c5fe9d34fff5700017ecdb4,05/01/1955,2020-09-12_06h51.57.101,proactive3.2,2020.1.2,Win32,60,5f5adea66120081ea0f57a61,5f5c61dce06d35459fd3459d,3,,,,,,stamp,,,,,,,,,,,6,2,0,19,19,52,1,,,,,,,,,,,,,,,,,,,,,,,,,,,,,,,,,,,,,,,,,,,,,,,,,,,,,,,,,,,,,,,,,,,,,,
,,?,0.001965,0,,,,,,stimuli/images/PICTURE_564.png,PLENTY,5c5fe9d34fff5700017ecdb4,05/01/1955,2020-09-12_06h51.57.101,proactive3.2,2020.1.2,Win32,60,5f5adea66120081ea0f57a61,5f5c61dce06d35459fd3459d,3,,,,,,spoon,,,,,,,,,,,2,2,0,20,20,11,1,,,,,,,,,,,,,,,,,,,,,,,,,,,,,,,,,,,,,,,,,,,,,,,,,,,,,,,,,,,,,,,,,,,,,,
,,?,0.002395,0,,,,,,stimuli/images/PICTURE_509.png,BATH,5c5fe9d34fff5700017ecdb4,05/01/1955,2020-09-12_06h51.57.101,proactive3.2,2020.1.2,Win32,60,5f5adea66120081ea0f57a61,5f5c61dce06d35459fd3459d,3,,,,,,telephone,,,,,,,,,,,2,2,0,21,21,15,1,,,,,,,,,,,,,,,,,,,,,,,,,,,,,,,,,,,,,,,,,,,,,,,,,,,,,,,,,,,,,,,,,,,,,,
,,?,3.37723,0,,,,,,stimuli/images/PICTURE_18.png,RIVER,5c5fe9d34fff5700017ecdb4,05/01/1955,2020-09-12_06h51.57.101,proactive3.2,2020.1.2,Win32,60,5f5adea66120081ea0f57a61,5f5c61dce06d35459fd3459d,3,,,,,,planet,,,,,,,,,,,3,2,0,22,22,22,1,,,,,,,,,,,,,,,,,,,,,,,,,,,,,,,,,,,,,,,,,,,,,,,,,,,,,,,,,,,,,,,,,,,,,,
,,?,3.545775,0,,,,,,stimuli/images/PICTURE_33.png,COPS,5c5fe9d34fff5700017ecdb4,05/01/1955,2020-09-12_06h51.57.101,proactive3.2,2020.1.2,Win32,60,5f5adea66120081ea0f57a61,5f5c61dce06d35459fd3459d,3,,,,,,frame,,,,,,,,,,,3,2,0,23,23,29,1,,,,,,,,,,,,,,,,,,,,,,,,,,,,,,,,,,,,,,,,,,,,,,,,,,,,,,,,,,,,,,,,,,,,,,
,,?,0.00221,0,,,,,,stimuli/images/PICTURE_296.png,CLOCK,5c5fe9d34fff5700017ecdb4,05/01/1955,2020-09-12_06h51.57.101,proactive3.2,2020.1.2,Win32,60,5f5adea66120081ea0f57a61,5f5c61dce06d35459fd3459d,3,,,,,,bolt,,,,,,,,,,,2,2,0,24,24,18,1,,,,,,,,,,,,,,,,,,,,,,,,,,,,,,,,,,,,,,,,,,,,,,,,,,,,,,,,,,,,,,,,,,,,,,
,,?,0.001995,0,,,,,,stimuli/images/PICTURE_311.png,TOILET,5c5fe9d34fff5700017ecdb4,05/01/1955,2020-09-12_06h51.57.101,proactive3.2,2020.1.2,Win32,60,5f5adea66120081ea0f57a61,5f5c61dce06d35459fd3459d,3,,,,,,razor,,,,,,,,,,,6,2,0,25,25,54,1,,,,,,,,,,,,,,,,,,,,,,,,,,,,,,,,,,,,,,,,,,,,,,,,,,,,,,,,,,,,,,,,,,,,,,
,,?,0.001965,0,,,,,,stimuli/images/PICTURE_750.png,POLICY,5c5fe9d34fff5700017ecdb4,05/01/1955,2020-09-12_06h51.57.101,proactive3.2,2020.1.2,Win32,60,5f5adea66120081ea0f57a61,5f5c61dce06d35459fd3459d,3,,,,,,kettle,,,,,,,,,,,5,2,0,26,26,44,1,,,,,,,,,,,,,,,,,,,,,,,,,,,,,,,,,,,,,,,,,,,,,,,,,,,,,,,,,,,,,,,,,,,,,,
,,BOYS,3.96043,1,,,,,,stimuli/images/PICTURE_215.png,BOYS,5c5fe9d34fff5700017ecdb4,05/01/1955,2020-09-12_06h51.57.101,proactive3.2,2020.1.2,Win32,60,5f5adea66120081ea0f57a61,5f5c61dce06d35459fd3459d,3,,,,,,boot,,,,,,,,,,,3,2,0,27,27,24,1,,,,,,,,,,,,,,,,,,,,,,,,,,,,,,,,,,,,,,,,,,,,,,,,,,,,,,,,,,,,,,,,,,,,,,
,,?,0.002155,0,,,,,,stimuli/images/PICTURE_470.png,MOMENT,5c5fe9d34fff5700017ecdb4,05/01/1955,2020-09-12_06h51.57.101,proactive3.2,2020.1.2,Win32,60,5f5adea66120081ea0f57a61,5f5c61dce06d35459fd3459d,3,,,,,,motorbike,,,,,,,,,,,5,2,0,28,28,40,1,,,,,,,,,,,,,,,,,,,,,,,,,,,,,,,,,,,,,,,,,,,,,,,,,,,,,,,,,,,,,,,,,,,,,,
,,?,0.00187,0,,,,,,stimuli/images/PICTURE_348.png,TOILET,5c5fe9d34fff5700017ecdb4,05/01/1955,2020-09-12_06h51.57.101,proactive3.2,2020.1.2,Win32,60,5f5adea66120081ea0f57a61,5f5c61dce06d35459fd3459d,3,,,,,,pepper,,,,,,,,,,,1,2,0,29,29,4,1,,,,,,,,,,,,,,,,,,,,,,,,,,,,,,,,,,,,,,,,,,,,,,,,,,,,,,,,,,,,,,,,,,,,,,
,,?,0.0021,0,,,,,,stimuli/images/PICTURE_32.png,LETTER,5c5fe9d34fff5700017ecdb4,05/01/1955,2020-09-12_06h51.57.101,proactive3.2,2020.1.2,Win32,60,5f5adea66120081ea0f57a61,5f5c61dce06d35459fd3459d,3,,,,,,crown,,,,,,,,,,,6,2,0,30,30,56,1,,,,,,,,,,,,,,,,,,,,,,,,,,,,,,,,,,,,,,,,,,,,,,,,,,,,,,,,,,,,,,,,,,,,,,
,,NATION,3.286715,1,,,,,,stimuli/images/PICTURE_57.png,NATION,5c5fe9d34fff5700017ecdb4,05/01/1955,2020-09-12_06h51.57.101,proactive3.2,2020.1.2,Win32,60,5f5adea66120081ea0f57a61,5f5c61dce06d35459fd3459d,3,,,,,,stamp,,,,,,,,,,,3,2,0,31,31,21,1,,,,,,,,,,,,,,,,,,,,,,,,,,,,,,,,,,,,,,,,,,,,,,,,,,,,,,,,,,,,,,,,,,,,,,
,,?,0.00217,0,,,,,,stimuli/images/PICTURE_708.png,VALLEY,5c5fe9d34fff5700017ecdb4,05/01/1955,2020-09-12_06h51.57.101,proactive3.2,2020.1.2,Win32,60,5f5adea66120081ea0f57a61,5f5c61dce06d35459fd3459d,3,,,,,,monkey,,,,,,,,,,,5,2,0,32,32,45,1,,,,,,,,,,,,,,,,,,,,,,,,,,,,,,,,,,,,,,,,,,,,,,,,,,,,,,,,,,,,,,,,,,,,,,
,,?,0.00189,0,,,,,,stimuli/images/PICTURE_509.png,MILLER,5c5fe9d34fff5700017ecdb4,05/01/1955,2020-09-12_06h51.57.101,proactive3.2,2020.1.2,Win32,60,5f5adea66120081ea0f57a61,5f5c61dce06d35459fd3459d,3,,,,,,telephone,,,,,,,,,,,5,2,0,33,33,49,1,,,,,,,,,,,,,,,,,,,,,,,,,,,,,,,,,,,,,,,,,,,,,,,,,,,,,,,,,,,,,,,,,,,,,,
,,?,0.00196,0,,,,,,stimuli/images/PICTURE_491.png,SERIES,5c5fe9d34fff5700017ecdb4,05/01/1955,2020-09-12_06h51.57.101,proactive3.2,2020.1.2,Win32,60,5f5adea66120081ea0f57a61,5f5c61dce06d35459fd3459d,3,,,,,,rug,,,,,,,,,,,4,2,0,34,34,39,1,,,,,,,,,,,,,,,,,,,,,,,,,,,,,,,,,,,,,,,,,,,,,,,,,,,,,,,,,,,,,,,,,,,,,,
,,?,0.00216,0,,,,,,stimuli/images/PICTURE_356.png,CANDY,5c5fe9d34fff5700017ecdb4,05/01/1955,2020-09-12_06h51.57.101,proactive3.2,2020.1.2,Win32,60,5f5adea66120081ea0f57a61,5f5c61dce06d35459fd3459d,3,,,,,,pawn,,,,,,,,,,,5,2,0,35,35,46,1,,,,,,,,,,,,,,,,,,,,,,,,,,,,,,,,,,,,,,,,,,,,,,,,,,,,,,,,,,,,,,,,,,,,,,
,,?,0.00227,0,,,,,,stimuli/images/PICTURE_655.png,SALE,5c5fe9d34fff5700017ecdb4,05/01/1955,2020-09-12_06h51.57.101,proactive3.2,2020.1.2,Win32,60,5f5adea66120081ea0f57a61,5f5c61dce06d35459fd3459d,3,,,,,,megaphone,,,,,,,,,,,6,2,0,36,36,57,1,,,,,,,,,,,,,,,,,,,,,,,,,,,,,,,,,,,,,,,,,,,,,,,,,,,,,,,,,,,,,,,,,,,,,,
,,?,0.002145,0,,,,,,stimuli/images/PICTURE_677.png,PHOTO,5c5fe9d34fff5700017ecdb4,05/01/1955,2020-09-12_06h51.57.101,proactive3.2,2020.1.2,Win32,60,5f5adea66120081ea0f57a61,5f5c61dce06d35459fd3459d,3,,,,,,map,,,,,,,,,,,2,2,0,37,37,14,1,,,,,,,,,,,,,,,,,,,,,,,,,,,,,,,,,,,,,,,,,,,,,,,,,,,,,,,,,,,,,,,,,,,,,,
,,?,0.00208,0,,,,,,stimuli/images/PICTURE_327.png,LEADER,5c5fe9d34fff5700017ecdb4,05/01/1955,2020-09-12_06h51.57.101,proactive3.2,2020.1.2,Win32,60,5f5adea66120081ea0f57a61,5f5c61dce06d35459fd3459d,3,,,,,,helmet,,,,,,,,,,,2,2,0,38,38,17,1,,,,,,,,,,,,,,,,,,,,,,,,,,,,,,,,,,,,,,,,,,,,,,,,,,,,,,,,,,,,,,,,,,,,,,
,,?,0.002215,0,,,,,,stimuli/images/PICTURE_255.png,PENNY,5c5fe9d34fff5700017ecdb4,05/01/1955,2020-09-12_06h51.57.101,proactive3.2,2020.1.2,Win32,60,5f5adea66120081ea0f57a61,5f5c61dce06d35459fd3459d,3,,,,,,shovel,,,,,,,,,,,2,2,0,39,39,19,1,,,,,,,,,,,,,,,,,,,,,,,,,,,,,,,,,,,,,,,,,,,,,,,,,,,,,,,,,,,,,,,,,,,,,,
,,?,0.0021,0,,,,,,stimuli/images/PICTURE_692.png,DUDE,5c5fe9d34fff5700017ecdb4,05/01/1955,2020-09-12_06h51.57.101,proactive3.2,2020.1.2,Win32,60,5f5adea66120081ea0f57a61,5f5c61dce06d35459fd3459d,3,,,,,,cherry,,,,,,,,,,,5,2,0,40,40,47,1,,,,,,,,,,,,,,,,,,,,,,,,,,,,,,,,,,,,,,,,,,,,,,,,,,,,,,,,,,,,,,,,,,,,,,
,,?,0.002435,0,,,,,,stimuli/images/PICTURE_2.png,YARD,5c5fe9d34fff5700017ecdb4,05/01/1955,2020-09-12_06h51.57.101,proactive3.2,2020.1.2,Win32,60,5f5adea66120081ea0f57a61,5f5c61dce06d35459fd3459d,3,,,,,,tyre,,,,,,,,,,,6,2,0,41,41,55,1,,,,,,,,,,,,,,,,,,,,,,,,,,,,,,,,,,,,,,,,,,,,,,,,,,,,,,,,,,,,,,,,,,,,,,
,,HOUSE,2.75943,1,,,,,,stimuli/images/PICTURE_177.png,HOUSE,5c5fe9d34fff5700017ecdb4,05/01/1955,2020-09-12_06h51.57.101,proactive3.2,2020.1.2,Win32,60,5f5adea66120081ea0f57a61,5f5c61dce06d35459fd3459d,3,,,,,,mushroom,,,,,,,,,,,3,2,0,42,42,25,1,,,,,,,,,,,,,,,,,,,,,,,,,,,,,,,,,,,,,,,,,,,,,,,,,,,,,,,,,,,,,,,,,,,,,,
,,?,0.002225,0,,,,,,stimuli/images/PICTURE_57.png,CASINO,5c5fe9d34fff5700017ecdb4,05/01/1955,2020-09-12_06h51.57.101,proactive3.2,2020.1.2,Win32,60,5f5adea66120081ea0f57a61,5f5c61dce06d35459fd3459d,3,,,,,,stamp,,,,,,,,,,,2,2,0,43,43,12,1,,,,,,,,,,,,,,,,,,,,,,,,,,,,,,,,,,,,,,,,,,,,,,,,,,,,,,,,,,,,,,,,,,,,,,
,,?,0.001885,0,,,,,,stimuli/images/PICTURE_405.png,JUNGLE,5c5fe9d34fff5700017ecdb4,05/01/1955,2020-09-12_06h51.57.101,proactive3.2,2020.1.2,Win32,60,5f5adea66120081ea0f57a61,5f5c61dce06d35459fd3459d,3,,,,,,anchor,,,,,,,,,,,6,2,0,44,44,58,1,,,,,,,,,,,,,,,,,,,,,,,,,,,,,,,,,,,,,,,,,,,,,,,,,,,,,,,,,,,,,,,,,,,,,,
,,?,0.00212,0,,,,,,stimuli/images/PICTURE_2.png,AREA,5c5fe9d34fff5700017ecdb4,05/01/1955,2020-09-12_06h51.57.101,proactive3.2,2020.1.2,Win32,60,5f5adea66120081ea0f57a61,5f5c61dce06d35459fd3459d,3,,,,,,tyre,,,,,,,,,,,4,2,0,45,45,32,1,,,,,,,,,,,,,,,,,,,,,,,,,,,,,,,,,,,,,,,,,,,,,,,,,,,,,,,,,,,,,,,,,,,,,,
,,?,0.0054,0,,,,,,stimuli/images/PICTURE_405.png,HOUSE,5c5fe9d34fff5700017ecdb4,05/01/1955,2020-09-12_06h51.57.101,proactive3.2,2020.1.2,Win32,60,5f5adea66120081ea0f57a61,5f5c61dce06d35459fd3459d,3,,,,,,anchor,,,,,,,,,,,1,2,0,46,46,2,1,,,,,,,,,,,,,,,,,,,,,,,,,,,,,,,,,,,,,,,,,,,,,,,,,,,,,,,,,,,,,,,,,,,,,,
,,?,0.00186,0,,,,,,stimuli/images/PICTURE_147.png,LEADER,5c5fe9d34fff5700017ecdb4,05/01/1955,2020-09-12_06h51.57.101,proactive3.2,2020.1.2,Win32,60,5f5adea66120081ea0f57a61,5f5c61dce06d35459fd3459d,3,,,,,,hanger,,,,,,,,,,,4,2,0,47,47,33,1,,,,,,,,,,,,,,,,,,,,,,,,,,,,,,,,,,,,,,,,,,,,,,,,,,,,,,,,,,,,,,,,,,,,,,
,,?,0.00225,0,,,,,,stimuli/images/PICTURE_677.png,FAMILY,5c5fe9d34fff5700017ecdb4,05/01/1955,2020-09-12_06h51.57.101,proactive3.2,2020.1.2,Win32,60,5f5adea66120081ea0f57a61,5f5c61dce06d35459fd3459d,3,,,,,,map,,,,,,,,,,,6,2,0,48,48,53,1,,,,,,,,,,,,,,,,,,,,,,,,,,,,,,,,,,,,,,,,,,,,,,,,,,,,,,,,,,,,,,,,,,,,,,
,,?,0.002325,0,,,,,,stimuli/images/PICTURE_405.png,JUNGLE,5c5fe9d34fff5700017ecdb4,05/01/1955,2020-09-12_06h51.57.101,proactive3.2,2020.1.2,Win32,60,5f5adea66120081ea0f57a61,5f5c61dce06d35459fd3459d,3,,,,,,anchor,,,,,,,,,,,2,2,0,49,49,13,1,,,,,,,,,,,,,,,,,,,,,,,,,,,,,,,,,,,,,,,,,,,,,,,,,,,,,,,,,,,,,,,,,,,,,,
,,?,0.002435,0,,,,,,stimuli/images/PICTURE_654.png,COPS,5c5fe9d34fff5700017ecdb4,05/01/1955,2020-09-12_06h51.57.101,proactive3.2,2020.1.2,Win32,60,5f5adea66120081ea0f57a61,5f5c61dce06d35459fd3459d,3,,,,,,pencil,,,,,,,,,,,2,2,0,50,50,10,1,,,,,,,,,,,,,,,,,,,,,,,,,,,,,,,,,,,,,,,,,,,,,,,,,,,,,,,,,,,,,,,,,,,,,,
,,?,0.00314,0,,,,,,stimuli/images/PICTURE_93.png,GIRL,5c5fe9d34fff5700017ecdb4,05/01/1955,2020-09-12_06h51.57.101,proactive3.2,2020.1.2,Win32,60,5f5adea66120081ea0f57a61,5f5c61dce06d35459fd3459d,3,,,,,,skateboard,,,,,,,,,,,4,2,0,51,51,31,1,,,,,,,,,,,,,,,,,,,,,,,,,,,,,,,,,,,,,,,,,,,,,,,,,,,,,,,,,,,,,,,,,,,,,,
,,?,0.00201,0,,,,,,stimuli/images/PICTURE_2.png,JUNGLE,5c5fe9d34fff5700017ecdb4,05/01/1955,2020-09-12_06h51.57.101,proactive3.2,2020.1.2,Win32,60,5f5adea66120081ea0f57a61,5f5c61dce06d35459fd3459d,3,,,,,,tyre,,,,,,,,,,,1,2,0,52,52,1,1,,,,,,,,,,,,,,,,,,,,,,,,,,,,,,,,,,,,,,,,,,,,,,,,,,,,,,,,,,,,,,,,,,,,,,
,,PRINCE,9.95153,1,,,,,,stimuli/images/PICTURE_285.png,PRINCE,5c5fe9d34fff5700017ecdb4,05/01/1955,2020-09-12_06h51.57.101,proactive3.2,2020.1.2,Win32,60,5f5adea66120081ea0f57a61,5f5c61dce06d35459fd3459d,3,,,,,,carrot,,,,,,,,,,,3,2,0,53,53,20,1,,,,,,,,,,,,,,,,,,,,,,,,,,,,,,,,,,,,,,,,,,,,,,,,,,,,,,,,,,,,,,,,,,,,,,
,,?,0.00346,0,,,,,,stimuli/images/PICTURE_95.png,NIGHT,5c5fe9d34fff5700017ecdb4,05/01/1955,2020-09-12_06h51.57.101,proactive3.2,2020.1.2,Win32,60,5f5adea66120081ea0f57a61,5f5c61dce06d35459fd3459d,3,,,,,,suitcase,,,,,,,,,,,4,2,0,54,54,37,1,,,,,,,,,,,,,,,,,,,,,,,,,,,,,,,,,,,,,,,,,,,,,,,,,,,,,,,,,,,,,,,,,,,,,,
,,?,0.00186,0,,,,,,stimuli/images/PICTURE_688.png,CLOCK,5c5fe9d34fff5700017ecdb4,05/01/1955,2020-09-12_06h51.57.101,proactive3.2,2020.1.2,Win32,60,5f5adea66120081ea0f57a61,5f5c61dce06d35459fd3459d,3,,,,,,runner,,,,,,,,,,,5,2,0,55,55,42,1,,,,,,,,,,,,,,,,,,,,,,,,,,,,,,,,,,,,,,,,,,,,,,,,,,,,,,,,,,,,,,,,,,,,,,
,,?,0.00352,0,,,,,,stimuli/images/PICTURE_160.png,HOTEL,5c5fe9d34fff5700017ecdb4,05/01/1955,2020-09-12_06h51.57.101,proactive3.2,2020.1.2,Win32,60,5f5adea66120081ea0f57a61,5f5c61dce06d35459fd3459d,3,,,,,,wheelbarrow,,,,,,,,,,,2,2,0,56,56,16,1,,,,,,,,,,,,,,,,,,,,,,,,,,,,,,,,,,,,,,,,,,,,,,,,,,,,,,,,,,,,,,,,,,,,,,
,,?,0.001855,0,,,,,,stimuli/images/PICTURE_509.png,SHOTS,5c5fe9d34fff5700017ecdb4,05/01/1955,2020-09-12_06h51.57.101,proactive3.2,2020.1.2,Win32,60,5f5adea66120081ea0f57a61,5f5c61dce06d35459fd3459d,3,,,,,,telephone,,,,,,,,,,,1,2,0,57,57,7,1,,,,,,,,,,,,,,,,,,,,,,,,,,,,,,,,,,,,,,,,,,,,,,,,,,,,,,,,,,,,,,,,,,,,,,
,,?,0.001915,0,,,,,,stimuli/images/PICTURE_297.png,BODY,5c5fe9d34fff5700017ecdb4,05/01/1955,2020-09-12_06h51.57.101,proactive3.2,2020.1.2,Win32,60,5f5adea66120081ea0f57a61,5f5c61dce06d35459fd3459d,3,,,,,,aeroplane,,,,,,,,,,,6,2,0,58,58,51,1,,,,,,,,,,,,,,,,,,,,,,,,,,,,,,,,,,,,,,,,,,,,,,,,,,,,,,,,,,,,,,,,,,,,,,
,,?,0.00193,0,,,,,,stimuli/images/PICTURE_348.png,DUDE,5c5fe9d34fff5700017ecdb4,05/01/1955,2020-09-12_06h51.57.101,proactive3.2,2020.1.2,Win32,60,5f5adea66120081ea0f57a61,5f5c61dce06d35459fd3459d,3,,,,,,pepper,,,,,,,,,,,6,2,0,59,59,59,1,,,,,,,,,,,,,,,,,,,,,,,,,,,,,,,,,,,,,,,,,,,,,,,,,,,,,,,,,,,,,,,,,,,,,,
,,,,,,,,,,,,5c5fe9d34fff5700017ecdb4,05/01/1955,2020-09-12_06h51.57.101,proactive3.2,2020.1.2,Win32,60,5f5adea66120081ea0f57a61,5f5c61dce06d35459fd3459d,3,,,,,,,,,,,,,,,,,,,,,,,,0,0,0,2,1,stimuli/learn-block3.csv,,,,,,,,,,,,,,,,,,,,,,,,,,,,,,,,,,,,,,,,,,,,,,,,,,,,,,,,,,,,,,,,
,,,,,,,,,,stimuli/images/PICTURE_233.png,LOTS,5c5fe9d34fff5700017ecdb4,05/01/1955,2020-09-12_06h51.57.101,proactive3.2,2020.1.2,Win32,60,5f5adea66120081ea0f57a61,5f5c61dce06d35459fd3459d,3,,,,,,salt,,,,,,0,0,0,42,1,5,1,,,,,,,,,,,,,,,,,,,,,,,,,,,,,,,,,,,,,,,,,,,,,,,,,,,,,,,,,,,,,,,,,,,,,,,,,,,
,,,,,,,,,,stimuli/images/PICTURE_85.png,NATION,5c5fe9d34fff5700017ecdb4,05/01/1955,2020-09-12_06h51.57.101,proactive3.2,2020.1.2,Win32,60,5f5adea66120081ea0f57a61,5f5c61dce06d35459fd3459d,3,,,,,,diamond,,,,,,0,1,1,5,1,1,1,,,,,,,,,,,,,,,,,,,,,,,,,,,,,,,,,,,,,,,,,,,,,,,,,,,,,,,,,,,,,,,,,,,,,,,,,,,
,,,,,,,,,,stimuli/images/PICTURE_654.png,MONTH,5c5fe9d34fff5700017ecdb4,05/01/1955,2020-09-12_06h51.57.101,proactive3.2,2020.1.2,Win32,60,5f5adea66120081ea0f57a61,5f5c61dce06d35459fd3459d,3,,,,,,pencil,,,,,,0,2,2,29,1,3,1,,,,,,,,,,,,,,,,,,,,,,,,,,,,,,,,,,,,,,,,,,,,,,,,,,,,,,,,,,,,,,,,,,,,,,,,,,,
,,,,,,,,,,stimuli/images/PICTURE_2.png,FLIGHT,5c5fe9d34fff5700017ecdb4,05/01/1955,2020-09-12_06h51.57.101,proactive3.2,2020.1.2,Win32,60,5f5adea66120081ea0f57a61,5f5c61dce06d35459fd3459d,3,,,,,,tyre,,,,,,0,3,3,15,1,2,1,,,,,,,,,,,,,,,,,,,,,,,,,,,,,,,,,,,,,,,,,,,,,,,,,,,,,,,,,,,,,,,,,,,,,,,,,,,
,,,,,,,,,,stimuli/images/PICTURE_491.png,GLASS,5c5fe9d34fff5700017ecdb4,05/01/1955,2020-09-12_06h51.57.101,proactive3.2,2020.1.2,Win32,60,5f5adea66120081ea0f57a61,5f5c61dce06d35459fd3459d,3,,,,,,rug,,,,,,0,4,4,14,1,2,1,,,,,,,,,,,,,,,,,,,,,,,,,,,,,,,,,,,,,,,,,,,,,,,,,,,,,,,,,,,,,,,,,,,,,,,,,,,
,,,,,,,,,,stimuli/images/PICTURE_405.png,PLENTY,5c5fe9d34fff5700017ecdb4,05/01/1955,2020-09-12_06h51.57.101,proactive3.2,2020.1.2,Win32,60,5f5adea66120081ea0f57a61,5f5c61dce06d35459fd3459d,3,,,,,,anchor,,,,,,0,5,5,23,1,3,1,,,,,,,,,,,,,,,,,,,,,,,,,,,,,,,,,,,,,,,,,,,,,,,,,,,,,,,,,,,,,,,,,,,,,,,,,,,
,,,,,,,,,,stimuli/images/PICTURE_85.png,TOILET,5c5fe9d34fff5700017ecdb4,05/01/1955,2020-09-12_06h51.57.101,proactive3.2,2020.1.2,Win32,60,5f5adea66120081ea0f57a61,5f5c61dce06d35459fd3459d,3,,,,,,diamond,,,,,,0,6,6,48,1,5,1,,,,,,,,,,,,,,,,,,,,,,,,,,,,,,,,,,,,,,,,,,,,,,,,,,,,,,,,,,,,,,,,,,,,,,,,,,,
,,,,,,,,,,stimuli/images/PICTURE_32.png,PILLS,5c5fe9d34fff5700017ecdb4,05/01/1955,2020-09-12_06h51.57.101,proactive3.2,2020.1.2,Win32,60,5f5adea66120081ea0f57a61,5f5c61dce06d35459fd3459d,3,,,,,,crown,,,,,,0,7,7,18,1,2,1,,,,,,,,,,,,,,,,,,,,,,,,,,,,,,,,,,,,,,,,,,,,,,,,,,,,,,,,,,,,,,,,,,,,,,,,,,,
,,,,,,,,,,stimuli/images/PICTURE_675.png,SALE,5c5fe9d34fff5700017ecdb4,05/01/1955,2020-09-12_06h51.57.101,proactive3.2,2020.1.2,Win32,60,5f5adea66120081ea0f57a61,5f5c61dce06d35459fd3459d,3,,,,,,windmill,,,,,,0,8,8,47,1,5,1,,,,,,,,,,,,,,,,,,,,,,,,,,,,,,,,,,,,,,,,,,,,,,,,,,,,,,,,,,,,,,,,,,,,,,,,,,,
,,,,,,,,,,stimuli/images/PICTURE_285.png,LIFE,5c5fe9d34fff5700017ecdb4,05/01/1955,2020-09-12_06h51.57.101,proactive3.2,2020.1.2,Win32,60,5f5adea66120081ea0f57a61,5f5c61dce06d35459fd3459d,3,,,,,,carrot,,,,,,0,9,9,33,1,4,1,,,,,,,,,,,,,,,,,,,,,,,,,,,,,,,,,,,,,,,,,,,,,,,,,,,,,,,,,,,,,,,,,,,,,,,,,,,
,,,,,,,,,,stimuli/images/PICTURE_340.png,LETTER,5c5fe9d34fff5700017ecdb4,05/01/1955,2020-09-12_06h51.57.101,proactive3.2,2020.1.2,Win32,60,5f5adea66120081ea0f57a61,5f5c61dce06d35459fd3459d,3,,,,,,mirror,,,,,,0,10,10,24,1,3,1,,,,,,,,,,,,,,,,,,,,,,,,,,,,,,,,,,,,,,,,,,,,,,,,,,,,,,,,,,,,,,,,,,,,,,,,,,,
,,,,,,,,,,stimuli/images/PICTURE_750.png,HOTEL,5c5fe9d34fff5700017ecdb4,05/01/1955,2020-09-12_06h51.57.101,proactive3.2,2020.1.2,Win32,60,5f5adea66120081ea0f57a61,5f5c61dce06d35459fd3459d,3,,,,,,kettle,,,,,,0,11,11,27,1,3,1,,,,,,,,,,,,,,,,,,,,,,,,,,,,,,,,,,,,,,,,,,,,,,,,,,,,,,,,,,,,,,,,,,,,,,,,,,,
,,,,,,,,,,stimuli/images/PICTURE_308.png,FAMILY,5c5fe9d34fff5700017ecdb4,05/01/1955,2020-09-12_06h51.57.101,proactive3.2,2020.1.2,Win32,60,5f5adea66120081ea0f57a61,5f5c61dce06d35459fd3459d,3,,,,,,dice,,,,,,0,12,12,36,1,4,1,,,,,,,,,,,,,,,,,,,,,,,,,,,,,,,,,,,,,,,,,,,,,,,,,,,,,,,,,,,,,,,,,,,,,,,,,,,
,,,,,,,,,,stimuli/images/PICTURE_380.png,CANDY,5c5fe9d34fff5700017ecdb4,05/01/1955,2020-09-12_06h51.57.101,proactive3.2,2020.1.2,Win32,60,5f5adea66120081ea0f57a61,5f5c61dce06d35459fd3459d,3,,,,,,gorilla,,,,,,0,13,13,0,1,1,1,,,,,,,,,,,,,,,,,,,,,,,,,,,,,,,,,,,,,,,,,,,,,,,,,,,,,,,,,,,,,,,,,,,,,,,,,,,
,,,,,,,,,,stimuli/images/PICTURE_667.png,RIVER,5c5fe9d34fff5700017ecdb4,05/01/1955,2020-09-12_06h51.57.101,proactive3.2,2020.1.2,Win32,60,5f5adea66120081ea0f57a61,5f5c61dce06d35459fd3459d,3,,,,,,daisy,,,,,,0,14,14,10,1,2,1,,,,,,,,,,,,,,,,,,,,,,,,,,,,,,,,,,,,,,,,,,,,,,,,,,,,,,,,,,,,,,,,,,,,,,,,,,,
,,,,,,,,,,stimuli/images/PICTURE_95.png,MILLER,5c5fe9d34fff5700017ecdb4,05/01/1955,2020-09-12_06h51.57.101,proactive3.2,2020.1.2,Win32,60,5f5adea66120081ea0f57a61,5f5c61dce06d35459fd3459d,3,,,,,,suitcase,,,,,,0,15,15,56,1,6,1,,,,,,,,,,,,,,,,,,,,,,,,,,,,,,,,,,,,,,,,,,,,,,,,,,,,,,,,,,,,,,,,,,,,,,,,,,,
,,,,,,,,,,stimuli/images/PICTURE_403.png,TOILET,5c5fe9d34fff5700017ecdb4,05/01/1955,2020-09-12_06h51.57.101,proactive3.2,2020.1.2,Win32,60,5f5adea66120081ea0f57a61,5f5c61dce06d35459fd3459d,3,,,,,,cathedral,,,,,,0,16,16,25,1,3,1,,,,,,,,,,,,,,,,,,,,,,,,,,,,,,,,,,,,,,,,,,,,,,,,,,,,,,,,,,,,,,,,,,,,,,,,,,,
,,,,,,,,,,stimuli/images/PICTURE_208.png,SYSTEM,5c5fe9d34fff5700017ecdb4,05/01/1955,2020-09-12_06h51.57.101,proactive3.2,2020.1.2,Win32,60,5f5adea66120081ea0f57a61,5f5c61dce06d35459fd3459d,3,,,,,,microphone,,,,,,0,17,17,32,1,4,1,,,,,,,,,,,,,,,,,,,,,,,,,,,,,,,,,,,,,,,,,,,,,,,,,,,,,,,,,,,,,,,,,,,,,,,,,,,
,,,,,,,,,,stimuli/images/PICTURE_297.png,RIVER,5c5fe9d34fff5700017ecdb4,05/01/1955,2020-09-12_06h51.57.101,proactive3.2,2020.1.2,Win32,60,5f5adea66120081ea0f57a61,5f5c61dce06d35459fd3459d,3,,,,,,aeroplane,,,,,,0,18,18,39,1,4,1,,,,,,,,,,,,,,,,,,,,,,,,,,,,,,,,,,,,,,,,,,,,,,,,,,,,,,,,,,,,,,,,,,,,,,,,,,,
,,,,,,,,,,stimuli/images/PICTURE_147.png,YEAR,5c5fe9d34fff5700017ecdb4,05/01/1955,2020-09-12_06h51.57.101,proactive3.2,2020.1.2,Win32,60,5f5adea66120081ea0f57a61,5f5c61dce06d35459fd3459d,3,,,,,,hanger,,,,,,0,19,19,21,1,3,1,,,,,,,,,,,,,,,,,,,,,,,,,,,,,,,,,,,,,,,,,,,,,,,,,,,,,,,,,,,,,,,,,,,,,,,,,,,
,,,,,,,,,,stimuli/images/PICTURE_296.png,LOTS,5c5fe9d34fff5700017ecdb4,05/01/1955,2020-09-12_06h51.57.101,proactive3.2,2020.1.2,Win32,60,5f5adea66120081ea0f57a61,5f5c61dce06d35459fd3459d,3,,,,,,bolt,,,,,,0,20,20,9,1,1,1,,,,,,,,,,,,,,,,,,,,,,,,,,,,,,,,,,,,,,,,,,,,,,,,,,,,,,,,,,,,,,,,,,,,,,,,,,,
,,,,,,,,,,stimuli/images/PICTURE_487.png,GIRL,5c5fe9d34fff5700017ecdb4,05/01/1955,2020-09-12_06h51.57.101,proactive3.2,2020.1.2,Win32,60,5f5adea66120081ea0f57a61,5f5c61dce06d35459fd3459d,3,,,,,,basket,,,,,,0,21,21,45,1,5,1,,,,,,,,,,,,,,,,,,,,,,,,,,,,,,,,,,,,,,,,,,,,,,,,,,,,,,,,,,,,,,,,,,,,,,,,,,,
,,,,,,,,,,stimuli/images/PICTURE_108.png,FLIGHT,5c5fe9d34fff5700017ecdb4,05/01/1955,2020-09-12_06h51.57.101,proactive3.2,2020.1.2,Win32,60,5f5adea66120081ea0f57a61,5f5c61dce06d35459fd3459d,3,,,,,,calendar,,,,,,0,22,22,59,1,6,1,,,,,,,,,,,,,,,,,,,,,,,,,,,,,,,,,,,,,,,,,,,,,,,,,,,,,,,,,,,,,,,,,,,,,,,,,,,
,,,,,,,,,,stimuli/images/PICTURE_383.png,SERIES,5c5fe9d34fff5700017ecdb4,05/01/1955,2020-09-12_06h51.57.101,proactive3.2,2020.1.2,Win32,60,5f5adea66120081ea0f57a61,5f5c61dce06d35459fd3459d,3,,,,,,coin,,,,,,0,23,23,46,1,5,1,,,,,,,,,,,,,,,,,,,,,,,,,,,,,,,,,,,,,,,,,,,,,,,,,,,,,,,,,,,,,,,,,,,,,,,,,,,
,,,,,,,,,,stimuli/images/PICTURE_42.png,BOYS,5c5fe9d34fff5700017ecdb4,05/01/1955,2020-09-12_06h51.57.101,proactive3.2,2020.1.2,Win32,60,5f5adea66120081ea0f57a61,5f5c61dce06d35459fd3459d,3,,,,,,pear,,,,,,0,24,24,55,1,6,1,,,,,,,,,,,,,,,,,,,,,,,,,,,,,,,,,,,,,,,,,,,,,,,,,,,,,,,,,,,,,,,,,,,,,,,,,,,
,,,,,,,,,,stimuli/images/PICTURE_504.png,COPS,5c5fe9d34fff5700017ecdb4,05/01/1955,2020-09-12_06h51.57.101,proactive3.2,2020.1.2,Win32,60,5f5adea66120081ea0f57a61,5f5c61dce06d35459fd3459d,3,,,,,,wheel,,,,,,0,25,25,52,1,6,1,,,,,,,,,,,,,,,,,,,,,,,,,,,,,,,,,,,,,,,,,,,,,,,,,,,,,,,,,,,,,,,,,,,,,,,,,,,
,,,,,,,,,,stimuli/images/PICTURE_403.png,WRITER,5c5fe9d34fff5700017ecdb4,05/01/1955,2020-09-12_06h51.57.101,proactive3.2,2020.1.2,Win32,60,5f5adea66120081ea0f57a61,5f5c61dce06d35459fd3459d,3,,,,,,cathedral,,,,,,0,26,26,31,1,4,1,,,,,,,,,,,,,,,,,,,,,,,,,,,,,,,,,,,,,,,,,,,,,,,,,,,,,,,,,,,,,,,,,,,,,,,,,,,
,,,,,,,,,,stimuli/images/PICTURE_33.png,FRIEND,5c5fe9d34fff5700017ecdb4,05/01/1955,2020-09-12_06h51.57.101,proactive3.2,2020.1.2,Win32,60,5f5adea66120081ea0f57a61,5f5c61dce06d35459fd3459d,3,,,,,,frame,,,,,,0,27,27,8,1,1,1,,,,,,,,,,,,,,,,,,,,,,,,,,,,,,,,,,,,,,,,,,,,,,,,,,,,,,,,,,,,,,,,,,,,,,,,,,,
,,,,,,,,,,stimuli/images/PICTURE_203.png,GODS,5c5fe9d34fff5700017ecdb4,05/01/1955,2020-09-12_06h51.57.101,proactive3.2,2020.1.2,Win32,60,5f5adea66120081ea0f57a61,5f5c61dce06d35459fd3459d,3,,,,,,cap,,,,,,0,28,28,30,1,4,1,,,,,,,,,,,,,,,,,,,,,,,,,,,,,,,,,,,,,,,,,,,,,,,,,,,,,,,,,,,,,,,,,,,,,,,,,,,
,,,,,,,,,,stimuli/images/PICTURE_327.png,CASINO,5c5fe9d34fff5700017ecdb4,05/01/1955,2020-09-12_06h51.57.101,proactive3.2,2020.1.2,Win32,60,5f5adea66120081ea0f57a61,5f5c61dce06d35459fd3459d,3,,,,,,helmet,,,,,,0,29,29,20,1,3,1,,,,,,,,,,,,,,,,,,,,,,,,,,,,,,,,,,,,,,,,,,,,,,,,,,,,,,,,,,,,,,,,,,,,,,,,,,,
,,,,,,,,,,stimuli/images/PICTURE_655.png,TOILET,5c5fe9d34fff5700017ecdb4,05/01/1955,2020-09-12_06h51.57.101,proactive3.2,2020.1.2,Win32,60,5f5adea66120081ea0f57a61,5f5c61dce06d35459fd3459d,3,,,,,,megaphone,,,,,,0,30,30,12,1,2,1,,,,,,,,,,,,,,,,,,,,,,,,,,,,,,,,,,,,,,,,,,,,,,,,,,,,,,,,,,,,,,,,,,,,,,,,,,,
,,,,,,,,,,stimuli/images/PICTURE_467.png,POLICY,5c5fe9d34fff5700017ecdb4,05/01/1955,2020-09-12_06h51.57.101,proactive3.2,2020.1.2,Win32,60,5f5adea66120081ea0f57a61,5f5c61dce06d35459fd3459d,3,,,,,,peg,,,,,,0,31,31,53,1,6,1,,,,,,,,,,,,,,,,,,,,,,,,,,,,,,,,,,,,,,,,,,,,,,,,,,,,,,,,,,,,,,,,,,,,,,,,,,,
,,,,,,,,,,stimuli/images/PICTURE_68.png,MILE,5c5fe9d34fff5700017ecdb4,05/01/1955,2020-09-12_06h51.57.101,proactive3.2,2020.1.2,Win32,60,5f5adea66120081ea0f57a61,5f5c61dce06d35459fd3459d,3,,,,,,candle,,,,,,0,32,32,51,1,6,1,,,,,,,,,,,,,,,,,,,,,,,,,,,,,,,,,,,,,,,,,,,,,,,,,,,,,,,,,,,,,,,,,,,,,,,,,,,
,,,,,,,,,,stimuli/images/PICTURE_504.png,ARTIST,5c5fe9d34fff5700017ecdb4,05/01/1955,2020-09-12_06h51.57.101,proactive3.2,2020.1.2,Win32,60,5f5adea66120081ea0f57a61,5f5c61dce06d35459fd3459d,3,,,,,,wheel,,,,,,0,33,33,49,1,5,1,,,,,,,,,,,,,,,,,,,,,,,,,,,,,,,,,,,,,,,,,,,,,,,,,,,,,,,,,,,,,,,,,,,,,,,,,,,
,,,,,,,,,,stimuli/images/PICTURE_685.png,PENNY,5c5fe9d34fff5700017ecdb4,05/01/1955,2020-09-12_06h51.57.101,proactive3.2,2020.1.2,Win32,60,5f5adea66120081ea0f57a61,5f5c61dce06d35459fd3459d,3,,,,,,goose,,,,,,0,34,34,4,1,1,1,,,,,,,,,,,,,,,,,,,,,,,,,,,,,,,,,,,,,,,,,,,,,,,,,,,,,,,,,,,,,,,,,,,,,,,,,,,
,,,,,,,,,,stimuli/images/PICTURE_405.png,YEAR,5c5fe9d34fff5700017ecdb4,05/01/1955,2020-09-12_06h51.57.101,proactive3.2,2020.1.2,Win32,60,5f5adea66120081ea0f57a61,5f5c61dce06d35459fd3459d,3,,,,,,anchor,,,,,,0,35,35,34,1,4,1,,,,,,,,,,,,,,,,,,,,,,,,,,,,,,,,,,,,,,,,,,,,,,,,,,,,,,,,,,,,,,,,,,,,,,,,,,,
,,,,,,,,,,stimuli/images/PICTURE_32.png,KIND,5c5fe9d34fff5700017ecdb4,05/01/1955,2020-09-12_06h51.57.101,proactive3.2,2020.1.2,Win32,60,5f5adea66120081ea0f57a61,5f5c61dce06d35459fd3459d,3,,,,,,crown,,,,,,0,36,36,35,1,4,1,,,,,,,,,,,,,,,,,,,,,,,,,,,,,,,,,,,,,,,,,,,,,,,,,,,,,,,,,,,,,,,,,,,,,,,,,,,
,,,,,,,,,,stimuli/images/PICTURE_708.png,RECORD,5c5fe9d34fff5700017ecdb4,05/01/1955,2020-09-12_06h51.57.101,proactive3.2,2020.1.2,Win32,60,5f5adea66120081ea0f57a61,5f5c61dce06d35459fd3459d,3,,,,,,monkey,,,,,,0,37,37,58,1,6,1,,,,,,,,,,,,,,,,,,,,,,,,,,,,,,,,,,,,,,,,,,,,,,,,,,,,,,,,,,,,,,,,,,,,,,,,,,,
,,,,,,,,,,stimuli/images/PICTURE_203.png,NIGHT,5c5fe9d34fff5700017ecdb4,05/01/1955,2020-09-12_06h51.57.101,proactive3.2,2020.1.2,Win32,60,5f5adea66120081ea0f57a61,5f5c61dce06d35459fd3459d,3,,,,,,cap,,,,,,0,38,38,2,1,1,1,,,,,,,,,,,,,,,,,,,,,,,,,,,,,,,,,,,,,,,,,,,,,,,,,,,,,,,,,,,,,,,,,,,,,,,,,,,
,,,,,,,,,,stimuli/images/PICTURE_95.png,HONEY,5c5fe9d34fff5700017ecdb4,05/01/1955,2020-09-12_06h51.57.101,proactive3.2,2020.1.2,Win32,60,5f5adea66120081ea0f57a61,5f5c61dce06d35459fd3459d,3,,,,,,suitcase,,,,,,0,39,39,44,1,5,1,,,,,,,,,,,,,,,,,,,,,,,,,,,,,,,,,,,,,,,,,,,,,,,,,,,,,,,,,,,,,,,,,,,,,,,,,,,
,,,,,,,,,,stimuli/images/PICTURE_327.png,SERIES,5c5fe9d34fff5700017ecdb4,05/01/1955,2020-09-12_06h51.57.101,proactive3.2,2020.1.2,Win32,60,5f5adea66120081ea0f57a61,5f5c61dce06d35459fd3459d,3,,,,,,helmet,,,,,,0,40,40,3,1,1,1,,,,,,,,,,,,,,,,,,,,,,,,,,,,,,,,,,,,,,,,,,,,,,,,,,,,,,,,,,,,,,,,,,,,,,,,,,,
,,,,,,,,,,stimuli/images/PICTURE_108.png,POLICY,5c5fe9d34fff5700017ecdb4,05/01/1955,2020-09-12_06h51.57.101,proactive3.2,2020.1.2,Win32,60,5f5adea66120081ea0f57a61,5f5c61dce06d35459fd3459d,3,,,,,,calendar,,,,,,0,41,41,22,1,3,1,,,,,,,,,,,,,,,,,,,,,,,,,,,,,,,,,,,,,,,,,,,,,,,,,,,,,,,,,,,,,,,,,,,,,,,,,,,
,,,,,,,,,,stimuli/images/PICTURE_68.png,ROOF,5c5fe9d34fff5700017ecdb4,05/01/1955,2020-09-12_06h51.57.101,proactive3.2,2020.1.2,Win32,60,5f5adea66120081ea0f57a61,5f5c61dce06d35459fd3459d,3,,,,,,candle,,,,,,0,42,42,38,1,4,1,,,,,,,,,,,,,,,,,,,,,,,,,,,,,,,,,,,,,,,,,,,,,,,,,,,,,,,,,,,,,,,,,,,,,,,,,,,
,,,,,,,,,,stimuli/images/PICTURE_504.png,YEAR,5c5fe9d34fff5700017ecdb4,05/01/1955,2020-09-12_06h51.57.101,proactive3.2,2020.1.2,Win32,60,5f5adea66120081ea0f57a61,5f5c61dce06d35459fd3459d,3,,,,,,wheel,,,,,,0,43,43,13,1,2,1,,,,,,,,,,,,,,,,,,,,,,,,,,,,,,,,,,,,,,,,,,,,,,,,,,,,,,,,,,,,,,,,,,,,,,,,,,,
,,,,,,,,,,stimuli/images/PICTURE_449.png,DUDE,5c5fe9d34fff5700017ecdb4,05/01/1955,2020-09-12_06h51.57.101,proactive3.2,2020.1.2,Win32,60,5f5adea66120081ea0f57a61,5f5c61dce06d35459fd3459d,3,,,,,,bench,,,,,,0,44,44,17,1,2,1,,,,,,,,,,,,,,,,,,,,,,,,,,,,,,,,,,,,,,,,,,,,,,,,,,,,,,,,,,,,,,,,,,,,,,,,,,,
,,,,,,,,,,stimuli/images/PICTURE_177.png,WRITER,5c5fe9d34fff5700017ecdb4,05/01/1955,2020-09-12_06h51.57.101,proactive3.2,2020.1.2,Win32,60,5f5adea66120081ea0f57a61,5f5c61dce06d35459fd3459d,3,,,,,,mushroom,,,,,,0,45,45,41,1,5,1,,,,,,,,,,,,,,,,,,,,,,,,,,,,,,,,,,,,,,,,,,,,,,,,,,,,,,,,,,,,,,,,,,,,,,,,,,,
,,,,,,,,,,stimuli/images/PICTURE_403.png,RIVER,5c5fe9d34fff5700017ecdb4,05/01/1955,2020-09-12_06h51.57.101,proactive3.2,2020.1.2,Win32,60,5f5adea66120081ea0f57a61,5f5c61dce06d35459fd3459d,3,,,,,,cathedral,,,,,,0,46,46,40,1,5,1,,,,,,,,,,,,,,,,,,,,,,,,,,,,,,,,,,,,,,,,,,,,,,,,,,,,,,,,,,,,,,,,,,,,,,,,,,,
,,,,,,,,,,stimuli/images/PICTURE_744.png,WEAPON,5c5fe9d34fff5700017ecdb4,05/01/1955,2020-09-12_06h51.57.101,proactive3.2,2020.1.2,Win32,60,5f5adea66120081ea0f57a61,5f5c61dce06d35459fd3459d,3,,,,,,ring,,,,,,0,47,47,50,1,6,1,,,,,,,,,,,,,,,,,,,,,,,,,,,,,,,,,,,,,,,,,,,,,,,,,,,,,,,,,,,,,,,,,,,,,,,,,,,
,,,,,,,,,,stimuli/images/PICTURE_491.png,RIVER,5c5fe9d34fff5700017ecdb4,05/01/1955,2020-09-12_06h51.57.101,proactive3.2,2020.1.2,Win32,60,5f5adea66120081ea0f57a61,5f5c61dce06d35459fd3459d,3,,,,,,rug,,,,,,0,48,48,6,1,1,1,,,,,,,,,,,,,,,,,,,,,,,,,,,,,,,,,,,,,,,,,,,,,,,,,,,,,,,,,,,,,,,,,,,,,,,,,,,
,,,,,,,,,,stimuli/images/PICTURE_95.png,BOYS,5c5fe9d34fff5700017ecdb4,05/01/1955,2020-09-12_06h51.57.101,proactive3.2,2020.1.2,Win32,60,5f5adea66120081ea0f57a61,5f5c61dce06d35459fd3459d,3,,,,,,suitcase,,,,,,0,49,49,1,1,1,1,,,,,,,,,,,,,,,,,,,,,,,,,,,,,,,,,,,,,,,,,,,,,,,,,,,,,,,,,,,,,,,,,,,,,,,,,,,
,,,,,,,,,,stimuli/images/PICTURE_383.png,WRITER,5c5fe9d34fff5700017ecdb4,05/01/1955,2020-09-12_06h51.57.101,proactive3.2,2020.1.2,Win32,60,5f5adea66120081ea0f57a61,5f5c61dce06d35459fd3459d,3,,,,,,coin,,,,,,0,50,50,28,1,3,1,,,,,,,,,,,,,,,,,,,,,,,,,,,,,,,,,,,,,,,,,,,,,,,,,,,,,,,,,,,,,,,,,,,,,,,,,,,
,,,,,,,,,,stimuli/images/PICTURE_340.png,VALLEY,5c5fe9d34fff5700017ecdb4,05/01/1955,2020-09-12_06h51.57.101,proactive3.2,2020.1.2,Win32,60,5f5adea66120081ea0f57a61,5f5c61dce06d35459fd3459d,3,,,,,,mirror,,,,,,0,51,51,54,1,6,1,,,,,,,,,,,,,,,,,,,,,,,,,,,,,,,,,,,,,,,,,,,,,,,,,,,,,,,,,,,,,,,,,,,,,,,,,,,
,,,,,,,,,,stimuli/images/PICTURE_469.png,AGENT,5c5fe9d34fff5700017ecdb4,05/01/1955,2020-09-12_06h51.57.101,proactive3.2,2020.1.2,Win32,60,5f5adea66120081ea0f57a61,5f5c61dce06d35459fd3459d,3,,,,,,stool,,,,,,0,52,52,16,1,2,1,,,,,,,,,,,,,,,,,,,,,,,,,,,,,,,,,,,,,,,,,,,,,,,,,,,,,,,,,,,,,,,,,,,,,,,,,,,
,,,,,,,,,,stimuli/images/PICTURE_147.png,WOMEN,5c5fe9d34fff5700017ecdb4,05/01/1955,2020-09-12_06h51.57.101,proactive3.2,2020.1.2,Win32,60,5f5adea66120081ea0f57a61,5f5c61dce06d35459fd3459d,3,,,,,,hanger,,,,,,0,53,53,7,1,1,1,,,,,,,,,,,,,,,,,,,,,,,,,,,,,,,,,,,,,,,,,,,,,,,,,,,,,,,,,,,,,,,,,,,,,,,,,,,
,,,,,,,,,,stimuli/images/PICTURE_677.png,APPLE,5c5fe9d34fff5700017ecdb4,05/01/1955,2020-09-12_06h51.57.101,proactive3.2,2020.1.2,Win32,60,5f5adea66120081ea0f57a61,5f5c61dce06d35459fd3459d,3,,,,,,map,,,,,,0,54,54,43,1,5,1,,,,,,,,,,,,,,,,,,,,,,,,,,,,,,,,,,,,,,,,,,,,,,,,,,,,,,,,,,,,,,,,,,,,,,,,,,,
,,,,,,,,,,stimuli/images/PICTURE_380.png,HONEY,5c5fe9d34fff5700017ecdb4,05/01/1955,2020-09-12_06h51.57.101,proactive3.2,2020.1.2,Win32,60,5f5adea66120081ea0f57a61,5f5c61dce06d35459fd3459d,3,,,,,,gorilla,,,,,,0,55,55,19,1,2,1,,,,,,,,,,,,,,,,,,,,,,,,,,,,,,,,,,,,,,,,,,,,,,,,,,,,,,,,,,,,,,,,,,,,,,,,,,,
,,,,,,,,,,stimuli/images/PICTURE_296.png,LIFE,5c5fe9d34fff5700017ecdb4,05/01/1955,2020-09-12_06h51.57.101,proactive3.2,2020.1.2,Win32,60,5f5adea66120081ea0f57a61,5f5c61dce06d35459fd3459d,3,,,,,,bolt,,,,,,0,56,56,57,1,6,1,,,,,,,,,,,,,,,,,,,,,,,,,,,,,,,,,,,,,,,,,,,,,,,,,,,,,,,,,,,,,,,,,,,,,,,,,,,
,,,,,,,,,,stimuli/images/PICTURE_339.png,CLIENT,5c5fe9d34fff5700017ecdb4,05/01/1955,2020-09-12_06h51.57.101,proactive3.2,2020.1.2,Win32,60,5f5adea66120081ea0f57a61,5f5c61dce06d35459fd3459d,3,,,,,,backpack,,,,,,0,57,57,11,1,2,1,,,,,,,,,,,,,,,,,,,,,,,,,,,,,,,,,,,,,,,,,,,,,,,,,,,,,,,,,,,,,,,,,,,,,,,,,,,
,,,,,,,,,,stimuli/images/PICTURE_564.png,BATH,5c5fe9d34fff5700017ecdb4,05/01/1955,2020-09-12_06h51.57.101,proactive3.2,2020.1.2,Win32,60,5f5adea66120081ea0f57a61,5f5c61dce06d35459fd3459d,3,,,,,,spoon,,,,,,0,58,58,26,1,3,1,,,,,,,,,,,,,,,,,,,,,,,,,,,,,,,,,,,,,,,,,,,,,,,,,,,,,,,,,,,,,,,,,,,,,,,,,,,
,,?,0.002405,0,,,,,,stimuli/images/PICTURE_340.png,VALLEY,5c5fe9d34fff5700017ecdb4,05/01/1955,2020-09-12_06h51.57.101,proactive3.2,2020.1.2,Win32,60,5f5adea66120081ea0f57a61,5f5c61dce06d35459fd3459d,3,,,,,,mirror,,,,,,,,,,,6,1,0,0,0,54,1,,,,,,,,,,,,,,,,,,,,,,,,,,,,,,,,,,,,,,,,,,,,,,,,,,,,,,,,,,,,,,,,,,,,,,
,,?,0.002475,0,,,,,,stimuli/images/PICTURE_449.png,DUDE,5c5fe9d34fff5700017ecdb4,05/01/1955,2020-09-12_06h51.57.101,proactive3.2,2020.1.2,Win32,60,5f5adea66120081ea0f57a61,5f5c61dce06d35459fd3459d,3,,,,,,bench,,,,,,,,,,,2,1,0,1,1,17,1,,,,,,,,,,,,,,,,,,,,,,,,,,,,,,,,,,,,,,,,,,,,,,,,,,,,,,,,,,,,,,,,,,,,,,
,,?,0.00982,0,,,,,,stimuli/images/PICTURE_85.png,TOILET,5c5fe9d34fff5700017ecdb4,05/01/1955,2020-09-12_06h51.57.101,proactive3.2,2020.1.2,Win32,60,5f5adea66120081ea0f57a61,5f5c61dce06d35459fd3459d,3,,,,,,diamond,,,,,,,,,,,5,1,0,2,2,48,1,,,,,,,,,,,,,,,,,,,,,,,,,,,,,,,,,,,,,,,,,,,,,,,,,,,,,,,,,,,,,,,,,,,,,,
,,HOTEL,3.136615,1,,,,,,stimuli/images/PICTURE_750.png,HOTEL,5c5fe9d34fff5700017ecdb4,05/01/1955,2020-09-12_06h51.57.101,proactive3.2,2020.1.2,Win32,60,5f5adea66120081ea0f57a61,5f5c61dce06d35459fd3459d,3,,,,,,kettle,,,,,,,,,,,3,1,0,3,3,27,1,,,,,,,,,,,,,,,,,,,,,,,,,,,,,,,,,,,,,,,,,,,,,,,,,,,,,,,,,,,,,,,,,,,,,,
,,?,0.0027,0,,,,,,stimuli/images/PICTURE_147.png,WOMEN,5c5fe9d34fff5700017ecdb4,05/01/1955,2020-09-12_06h51.57.101,proactive3.2,2020.1.2,Win32,60,5f5adea66120081ea0f57a61,5f5c61dce06d35459fd3459d,3,,,,,,hanger,,,,,,,,,,,1,1,0,4,4,7,1,,,,,,,,,,,,,,,,,,,,,,,,,,,,,,,,,,,,,,,,,,,,,,,,,,,,,,,,,,,,,,,,,,,,,,
,,CASINO,3.324095,1,,,,,,stimuli/images/PICTURE_327.png,CASINO,5c5fe9d34fff5700017ecdb4,05/01/1955,2020-09-12_06h51.57.101,proactive3.2,2020.1.2,Win32,60,5f5adea66120081ea0f57a61,5f5c61dce06d35459fd3459d,3,,,,,,helmet,,,,,,,,,,,3,1,0,5,5,20,1,,,,,,,,,,,,,,,,,,,,,,,,,,,,,,,,,,,,,,,,,,,,,,,,,,,,,,,,,,,,,,,,,,,,,,
,,?,0.002425,0,,,,,,stimuli/images/PICTURE_108.png,FLIGHT,5c5fe9d34fff5700017ecdb4,05/01/1955,2020-09-12_06h51.57.101,proactive3.2,2020.1.2,Win32,60,5f5adea66120081ea0f57a61,5f5c61dce06d35459fd3459d,3,,,,,,calendar,,,,,,,,,,,6,1,0,6,6,59,1,,,,,,,,,,,,,,,,,,,,,,,,,,,,,,,,,,,,,,,,,,,,,,,,,,,,,,,,,,,,,,,,,,,,,,
,,?,0.002125,0,,,,,,stimuli/images/PICTURE_667.png,RIVER,5c5fe9d34fff5700017ecdb4,05/01/1955,2020-09-12_06h51.57.101,proactive3.2,2020.1.2,Win32,60,5f5adea66120081ea0f57a61,5f5c61dce06d35459fd3459d,3,,,,,,daisy,,,,,,,,,,,2,1,0,7,7,10,1,,,,,,,,,,,,,,,,,,,,,,,,,,,,,,,,,,,,,,,,,,,,,,,,,,,,,,,,,,,,,,,,,,,,,,
,,?,0.00234,0,,,,,,stimuli/images/PICTURE_33.png,FRIEND,5c5fe9d34fff5700017ecdb4,05/01/1955,2020-09-12_06h51.57.101,proactive3.2,2020.1.2,Win32,60,5f5adea66120081ea0f57a61,5f5c61dce06d35459fd3459d,3,,,,,,frame,,,,,,,,,,,1,1,0,8,8,8,1,,,,,,,,,,,,,,,,,,,,,,,,,,,,,,,,,,,,,,,,,,,,,,,,,,,,,,,,,,,,,,,,,,,,,,
,,PLENTY,3.61415,1,,,,,,stimuli/images/PICTURE_405.png,PLENTY,5c5fe9d34fff5700017ecdb4,05/01/1955,2020-09-12_06h51.57.101,proactive3.2,2020.1.2,Win32,60,5f5adea66120081ea0f57a61,5f5c61dce06d35459fd3459d,3,,,,,,anchor,,,,,,,,,,,3,1,0,9,9,23,1,,,,,,,,,,,,,,,,,,,,,,,,,,,,,,,,,,,,,,,,,,,,,,,,,,,,,,,,,,,,,,,,,,,,,,
,,?,0.002075,0,,,,,,stimuli/images/PICTURE_233.png,LOTS,5c5fe9d34fff5700017ecdb4,05/01/1955,2020-09-12_06h51.57.101,proactive3.2,2020.1.2,Win32,60,5f5adea66120081ea0f57a61,5f5c61dce06d35459fd3459d,3,,,,,,salt,,,,,,,,,,,5,1,0,10,10,42,1,,,,,,,,,,,,,,,,,,,,,,,,,,,,,,,,,,,,,,,,,,,,,,,,,,,,,,,,,,,,,,,,,,,,,,
,,?,0.002305,0,,,,,,stimuli/images/PICTURE_208.png,SYSTEM,5c5fe9d34fff5700017ecdb4,05/01/1955,2020-09-12_06h51.57.101,proactive3.2,2020.1.2,Win32,60,5f5adea66120081ea0f57a61,5f5c61dce06d35459fd3459d,3,,,,,,microphone,,,,,,,,,,,4,1,0,11,11,32,1,,,,,,,,,,,,,,,,,,,,,,,,,,,,,,,,,,,,,,,,,,,,,,,,,,,,,,,,,,,,,,,,,,,,,,
,,?,0.00186,0,,,,,,stimuli/images/PICTURE_504.png,ARTIST,5c5fe9d34fff5700017ecdb4,05/01/1955,2020-09-12_06h51.57.101,proactive3.2,2020.1.2,Win32,60,5f5adea66120081ea0f57a61,5f5c61dce06d35459fd3459d,3,,,,,,wheel,,,,,,,,,,,5,1,0,12,12,49,1,,,,,,,,,,,,,,,,,,,,,,,,,,,,,,,,,,,,,,,,,,,,,,,,,,,,,,,,,,,,,,,,,,,,,,
,,?,0.005655,0,,,,,,stimuli/images/PICTURE_203.png,GODS,5c5fe9d34fff5700017ecdb4,05/01/1955,2020-09-12_06h51.57.101,proactive3.2,2020.1.2,Win32,60,5f5adea66120081ea0f57a61,5f5c61dce06d35459fd3459d,3,,,,,,cap,,,,,,,,,,,4,1,0,13,13,30,1,,,,,,,,,,,,,,,,,,,,,,,,,,,,,,,,,,,,,,,,,,,,,,,,,,,,,,,,,,,,,,,,,,,,,,
,,?,0.002095,0,,,,,,stimuli/images/PICTURE_403.png,RIVER,5c5fe9d34fff5700017ecdb4,05/01/1955,2020-09-12_06h51.57.101,proactive3.2,2020.1.2,Win32,60,5f5adea66120081ea0f57a61,5f5c61dce06d35459fd3459d,3,,,,,,cathedral,,,,,,,,,,,5,1,0,14,14,40,1,,,,,,,,,,,,,,,,,,,,,,,,,,,,,,,,,,,,,,,,,,,,,,,,,,,,,,,,,,,,,,,,,,,,,,
,,?,0.002925,0,,,,,,stimuli/images/PICTURE_491.png,RIVER,5c5fe9d34fff5700017ecdb4,05/01/1955,2020-09-12_06h51.57.101,proactive3.2,2020.1.2,Win32,60,5f5adea66120081ea0f57a61,5f5c61dce06d35459fd3459d,3,,,,,,rug,,,,,,,,,,,1,1,0,15,15,6,1,,,,,,,,,,,,,,,,,,,,,,,,,,,,,,,,,,,,,,,,,,,,,,,,,,,,,,,,,,,,,,,,,,,,,,
,,?,0.002015,0,,,,,,stimuli/images/PICTURE_487.png,GIRL,5c5fe9d34fff5700017ecdb4,05/01/1955,2020-09-12_06h51.57.101,proactive3.2,2020.1.2,Win32,60,5f5adea66120081ea0f57a61,5f5c61dce06d35459fd3459d,3,,,,,,basket,,,,,,,,,,,5,1,0,16,16,45,1,,,,,,,,,,,,,,,,,,,,,,,,,,,,,,,,,,,,,,,,,,,,,,,,,,,,,,,,,,,,,,,,,,,,,,
,,BATH,2.776455,1,,,,,,stimuli/images/PICTURE_564.png,BATH,5c5fe9d34fff5700017ecdb4,05/01/1955,2020-09-12_06h51.57.101,proactive3.2,2020.1.2,Win32,60,5f5adea66120081ea0f57a61,5f5c61dce06d35459fd3459d,3,,,,,,spoon,,,,,,,,,,,3,1,0,17,17,26,1,,,,,,,,,,,,,,,,,,,,,,,,,,,,,,,,,,,,,,,,,,,,,,,,,,,,,,,,,,,,,,,,,,,,,,
,,?,0.002125,0,,,,,,stimuli/images/PICTURE_685.png,PENNY,5c5fe9d34fff5700017ecdb4,05/01/1955,2020-09-12_06h51.57.101,proactive3.2,2020.1.2,Win32,60,5f5adea66120081ea0f57a61,5f5c61dce06d35459fd3459d,3,,,,,,goose,,,,,,,,,,,1,1,0,18,18,4,1,,,,,,,,,,,,,,,,,,,,,,,,,,,,,,,,,,,,,,,,,,,,,,,,,,,,,,,,,,,,,,,,,,,,,,
,,?,5.0727,0,,,,,,stimuli/images/PICTURE_108.png,POLICY,5c5fe9d34fff5700017ecdb4,05/01/1955,2020-09-12_06h51.57.101,proactive3.2,2020.1.2,Win32,60,5f5adea66120081ea0f57a61,5f5c61dce06d35459fd3459d,3,,,,,,calendar,,,,,,,,,,,3,1,0,19,19,22,1,,,,,,,,,,,,,,,,,,,,,,,,,,,,,,,,,,,,,,,,,,,,,,,,,,,,,,,,,,,,,,,,,,,,,,
,,?,0.0023,0,,,,,,stimuli/images/PICTURE_675.png,SALE,5c5fe9d34fff5700017ecdb4,05/01/1955,2020-09-12_06h51.57.101,proactive3.2,2020.1.2,Win32,60,5f5adea66120081ea0f57a61,5f5c61dce06d35459fd3459d,3,,,,,,windmill,,,,,,,,,,,5,1,0,20,20,47,1,,,,,,,,,,,,,,,,,,,,,,,,,,,,,,,,,,,,,,,,,,,,,,,,,,,,,,,,,,,,,,,,,,,,,,
,,?,0.001985,0,,,,,,stimuli/images/PICTURE_504.png,COPS,5c5fe9d34fff5700017ecdb4,05/01/1955,2020-09-12_06h51.57.101,proactive3.2,2020.1.2,Win32,60,5f5adea66120081ea0f57a61,5f5c61dce06d35459fd3459d,3,,,,,,wheel,,,,,,,,,,,6,1,0,21,21,52,1,,,,,,,,,,,,,,,,,,,,,,,,,,,,,,,,,,,,,,,,,,,,,,,,,,,,,,,,,,,,,,,,,,,,,,
,,?,0.00212,0,,,,,,stimuli/images/PICTURE_42.png,BOYS,5c5fe9d34fff5700017ecdb4,05/01/1955,2020-09-12_06h51.57.101,proactive3.2,2020.1.2,Win32,60,5f5adea66120081ea0f57a61,5f5c61dce06d35459fd3459d,3,,,,,,pear,,,,,,,,,,,6,1,0,22,22,55,1,,,,,,,,,,,,,,,,,,,,,,,,,,,,,,,,,,,,,,,,,,,,,,,,,,,,,,,,,,,,,,,,,,,,,,
,,?,0.00185,0,,,,,,stimuli/images/PICTURE_504.png,YEAR,5c5fe9d34fff5700017ecdb4,05/01/1955,2020-09-12_06h51.57.101,proactive3.2,2020.1.2,Win32,60,5f5adea66120081ea0f57a61,5f5c61dce06d35459fd3459d,3,,,,,,wheel,,,,,,,,,,,2,1,0,23,23,13,1,,,,,,,,,,,,,,,,,,,,,,,,,,,,,,,,,,,,,,,,,,,,,,,,,,,,,,,,,,,,,,,,,,,,,,
,,?,0.00188,0,,,,,,stimuli/images/PICTURE_380.png,HONEY,5c5fe9d34fff5700017ecdb4,05/01/1955,2020-09-12_06h51.57.101,proactive3.2,2020.1.2,Win32,60,5f5adea66120081ea0f57a61,5f5c61dce06d35459fd3459d,3,,,,,,gorilla,,,,,,,,,,,2,1,0,24,24,19,1,,,,,,,,,,,,,,,,,,,,,,,,,,,,,,,,,,,,,,,,,,,,,,,,,,,,,,,,,,,,,,,,,,,,,,
,,?,0.002095,0,,,,,,stimuli/images/PICTURE_177.png,WRITER,5c5fe9d34fff5700017ecdb4,05/01/1955,2020-09-12_06h51.57.101,proactive3.2,2020.1.2,Win32,60,5f5adea66120081ea0f57a61,5f5c61dce06d35459fd3459d,3,,,,,,mushroom,,,,,,,,,,,5,1,0,25,25,41,1,,,,,,,,,,,,,,,,,,,,,,,,,,,,,,,,,,,,,,,,,,,,,,,,,,,,,,,,,,,,,,,,,,,,,,
,,?,0.002245,0,,,,,,stimuli/images/PICTURE_467.png,POLICY,5c5fe9d34fff5700017ecdb4,05/01/1955,2020-09-12_06h51.57.101,proactive3.2,2020.1.2,Win32,60,5f5adea66120081ea0f57a61,5f5c61dce06d35459fd3459d,3,,,,,,peg,,,,,,,,,,,6,1,0,26,26,53,1,,,,,,,,,,,,,,,,,,,,,,,,,,,,,,,,,,,,,,,,,,,,,,,,,,,,,,,,,,,,,,,,,,,,,,
,,?,0.002075,0,,,,,,stimuli/images/PICTURE_2.png,FLIGHT,5c5fe9d34fff5700017ecdb4,05/01/1955,2020-09-12_06h51.57.101,proactive3.2,2020.1.2,Win32,60,5f5adea66120081ea0f57a61,5f5c61dce06d35459fd3459d,3,,,,,,tyre,,,,,,,,,,,2,1,0,27,27,15,1,,,,,,,,,,,,,,,,,,,,,,,,,,,,,,,,,,,,,,,,,,,,,,,,,,,,,,,,,,,,,,,,,,,,,,
,,?,0.0024,0,,,,,,stimuli/images/PICTURE_708.png,RECORD,5c5fe9d34fff5700017ecdb4,05/01/1955,2020-09-12_06h51.57.101,proactive3.2,2020.1.2,Win32,60,5f5adea66120081ea0f57a61,5f5c61dce06d35459fd3459d,3,,,,,,monkey,,,,,,,,,,,6,1,0,28,28,58,1,,,,,,,,,,,,,,,,,,,,,,,,,,,,,,,,,,,,,,,,,,,,,,,,,,,,,,,,,,,,,,,,,,,,,,
,,?,0.00201,0,,,,,,stimuli/images/PICTURE_296.png,LIFE,5c5fe9d34fff5700017ecdb4,05/01/1955,2020-09-12_06h51.57.101,proactive3.2,2020.1.2,Win32,60,5f5adea66120081ea0f57a61,5f5c61dce06d35459fd3459d,3,,,,,,bolt,,,,,,,,,,,6,1,0,29,29,57,1,,,,,,,,,,,,,,,,,,,,,,,,,,,,,,,,,,,,,,,,,,,,,,,,,,,,,,,,,,,,,,,,,,,,,,
,,?,0.002645,0,,,,,,stimuli/images/PICTURE_57.png,MOMENT,5c5fe9d34fff5700017ecdb4,05/01/1955,2020-09-12_06h51.57.101,proactive3.2,2020.1.2,Win32,60,5f5adea66120081ea0f57a61,5f5c61dce06d35459fd3459d,3,,,,,,stamp,,,,,,,,,,,4,1,0,30,30,37,1,,,,,,,,,,,,,,,,,,,,,,,,,,,,,,,,,,,,,,,,,,,,,,,,,,,,,,,,,,,,,,,,,,,,,,
,,?,0.002055,0,,,,,,stimuli/images/PICTURE_403.png,WRITER,5c5fe9d34fff5700017ecdb4,05/01/1955,2020-09-12_06h51.57.101,proactive3.2,2020.1.2,Win32,60,5f5adea66120081ea0f57a61,5f5c61dce06d35459fd3459d,3,,,,,,cathedral,,,,,,,,,,,4,1,0,31,31,31,1,,,,,,,,,,,,,,,,,,,,,,,,,,,,,,,,,,,,,,,,,,,,,,,,,,,,,,,,,,,,,,,,,,,,,,
,,?,0.002295,0,,,,,,stimuli/images/PICTURE_95.png,BOYS,5c5fe9d34fff5700017ecdb4,05/01/1955,2020-09-12_06h51.57.101,proactive3.2,2020.1.2,Win32,60,5f5adea66120081ea0f57a61,5f5c61dce06d35459fd3459d,3,,,,,,suitcase,,,,,,,,,,,1,1,0,32,32,1,1,,,,,,,,,,,,,,,,,,,,,,,,,,,,,,,,,,,,,,,,,,,,,,,,,,,,,,,,,,,,,,,,,,,,,,
,,?,0.0021,0,,,,,,stimuli/images/PICTURE_32.png,PILLS,5c5fe9d34fff5700017ecdb4,05/01/1955,2020-09-12_06h51.57.101,proactive3.2,2020.1.2,Win32,60,5f5adea66120081ea0f57a61,5f5c61dce06d35459fd3459d,3,,,,,,crown,,,,,,,,,,,2,1,0,33,33,18,1,,,,,,,,,,,,,,,,,,,,,,,,,,,,,,,,,,,,,,,,,,,,,,,,,,,,,,,,,,,,,,,,,,,,,,
,,?,0.002085,0,,,,,,stimuli/images/PICTURE_296.png,LOTS,5c5fe9d34fff5700017ecdb4,05/01/1955,2020-09-12_06h51.57.101,proactive3.2,2020.1.2,Win32,60,5f5adea66120081ea0f57a61,5f5c61dce06d35459fd3459d,3,,,,,,bolt,,,,,,,,,,,1,1,0,34,34,9,1,,,,,,,,,,,,,,,,,,,,,,,,,,,,,,,,,,,,,,,,,,,,,,,,,,,,,,,,,,,,,,,,,,,,,,
,,?,0.002035,0,,,,,,stimuli/images/PICTURE_339.png,CLIENT,5c5fe9d34fff5700017ecdb4,05/01/1955,2020-09-12_06h51.57.101,proactive3.2,2020.1.2,Win32,60,5f5adea66120081ea0f57a61,5f5c61dce06d35459fd3459d,3,,,,,,backpack,,,,,,,,,,,2,1,0,35,35,11,1,,,,,,,,,,,,,,,,,,,,,,,,,,,,,,,,,,,,,,,,,,,,,,,,,,,,,,,,,,,,,,,,,,,,,,
,,?,0.00225,0,,,,,,stimuli/images/PICTURE_32.png,KIND,5c5fe9d34fff5700017ecdb4,05/01/1955,2020-09-12_06h51.57.101,proactive3.2,2020.1.2,Win32,60,5f5adea66120081ea0f57a61,5f5c61dce06d35459fd3459d,3,,,,,,crown,,,,,,,,,,,4,1,0,36,36,35,1,,,,,,,,,,,,,,,,,,,,,,,,,,,,,,,,,,,,,,,,,,,,,,,,,,,,,,,,,,,,,,,,,,,,,,
,,?,5.14177,0,,,,,,stimuli/images/PICTURE_340.png,LETTER,5c5fe9d34fff5700017ecdb4,05/01/1955,2020-09-12_06h51.57.101,proactive3.2,2020.1.2,Win32,60,5f5adea66120081ea0f57a61,5f5c61dce06d35459fd3459d,3,,,,,,mirror,,,,,,,,,,,3,1,0,37,37,24,1,,,,,,,,,,,,,,,,,,,,,,,,,,,,,,,,,,,,,,,,,,,,,,,,,,,,,,,,,,,,,,,,,,,,,,
,,?,0.00204,0,,,,,,stimuli/images/PICTURE_297.png,RIVER,5c5fe9d34fff5700017ecdb4,05/01/1955,2020-09-12_06h51.57.101,proactive3.2,2020.1.2,Win32,60,5f5adea66120081ea0f57a61,5f5c61dce06d35459fd3459d,3,,,,,,aeroplane,,,,,,,,,,,4,1,0,38,38,39,1,,,,,,,,,,,,,,,,,,,,,,,,,,,,,,,,,,,,,,,,,,,,,,,,,,,,,,,,,,,,,,,,,,,,,,
,,?,0.00181,0,,,,,,stimuli/images/PICTURE_405.png,YEAR,5c5fe9d34fff5700017ecdb4,05/01/1955,2020-09-12_06h51.57.101,proactive3.2,2020.1.2,Win32,60,5f5adea66120081ea0f57a61,5f5c61dce06d35459fd3459d,3,,,,,,anchor,,,,,,,,,,,4,1,0,39,39,34,1,,,,,,,,,,,,,,,,,,,,,,,,,,,,,,,,,,,,,,,,,,,,,,,,,,,,,,,,,,,,,,,,,,,,,,
,,?,0.001845,0,,,,,,stimuli/images/PICTURE_677.png,APPLE,5c5fe9d34fff5700017ecdb4,05/01/1955,2020-09-12_06h51.57.101,proactive3.2,2020.1.2,Win32,60,5f5adea66120081ea0f57a61,5f5c61dce06d35459fd3459d,3,,,,,,map,,,,,,,,,,,5,1,0,40,40,43,1,,,,,,,,,,,,,,,,,,,,,,,,,,,,,,,,,,,,,,,,,,,,,,,,,,,,,,,,,,,,,,,,,,,,,,
,,TOILET,3.30186,1,,,,,,stimuli/images/PICTURE_403.png,TOILET,5c5fe9d34fff5700017ecdb4,05/01/1955,2020-09-12_06h51.57.101,proactive3.2,2020.1.2,Win32,60,5f5adea66120081ea0f57a61,5f5c61dce06d35459fd3459d,3,,,,,,cathedral,,,,,,,,,,,3,1,0,41,41,25,1,,,,,,,,,,,,,,,,,,,,,,,,,,,,,,,,,,,,,,,,,,,,,,,,,,,,,,,,,,,,,,,,,,,,,,
,,?,0.002265,0,,,,,,stimuli/images/PICTURE_68.png,MILE,5c5fe9d34fff5700017ecdb4,05/01/1955,2020-09-12_06h51.57.101,proactive3.2,2020.1.2,Win32,60,5f5adea66120081ea0f57a61,5f5c61dce06d35459fd3459d,3,,,,,,candle,,,,,,,,,,,6,1,0,42,42,51,1,,,,,,,,,,,,,,,,,,,,,,,,,,,,,,,,,,,,,,,,,,,,,,,,,,,,,,,,,,,,,,,,,,,,,,
,,?,0.002115,0,,,,,,stimuli/images/PICTURE_95.png,HONEY,5c5fe9d34fff5700017ecdb4,05/01/1955,2020-09-12_06h51.57.101,proactive3.2,2020.1.2,Win32,60,5f5adea66120081ea0f57a61,5f5c61dce06d35459fd3459d,3,,,,,,suitcase,,,,,,,,,,,5,1,0,43,43,44,1,,,,,,,,,,,,,,,,,,,,,,,,,,,,,,,,,,,,,,,,,,,,,,,,,,,,,,,,,,,,,,,,,,,,,,
,,MONTH,3.750865,1,,,,,,stimuli/images/PICTURE_654.png,MONTH,5c5fe9d34fff5700017ecdb4,05/01/1955,2020-09-12_06h51.57.101,proactive3.2,2020.1.2,Win32,60,5f5adea66120081ea0f57a61,5f5c61dce06d35459fd3459d,3,,,,,,pencil,,,,,,,,,,,3,1,0,44,44,29,1,,,,,,,,,,,,,,,,,,,,,,,,,,,,,,,,,,,,,,,,,,,,,,,,,,,,,,,,,,,,,,,,,,,,,,
,,?,0.00218,0,,,,,,stimuli/images/PICTURE_383.png,SERIES,5c5fe9d34fff5700017ecdb4,05/01/1955,2020-09-12_06h51.57.101,proactive3.2,2020.1.2,Win32,60,5f5adea66120081ea0f57a61,5f5c61dce06d35459fd3459d,3,,,,,,coin,,,,,,,,,,,5,1,0,45,45,46,1,,,,,,,,,,,,,,,,,,,,,,,,,,,,,,,,,,,,,,,,,,,,,,,,,,,,,,,,,,,,,,,,,,,,,,
,,?,0.002095,0,,,,,,stimuli/images/PICTURE_744.png,WEAPON,5c5fe9d34fff5700017ecdb4,05/01/1955,2020-09-12_06h51.57.101,proactive3.2,2020.1.2,Win32,60,5f5adea66120081ea0f57a61,5f5c61dce06d35459fd3459d,3,,,,,,ring,,,,,,,,,,,6,1,0,46,46,50,1,,,,,,,,,,,,,,,,,,,,,,,,,,,,,,,,,,,,,,,,,,,,,,,,,,,,,,,,,,,,,,,,,,,,,,
,,?,0.002395,0,,,,,,stimuli/images/PICTURE_68.png,ROOF,5c5fe9d34fff5700017ecdb4,05/01/1955,2020-09-12_06h51.57.101,proactive3.2,2020.1.2,Win32,60,5f5adea66120081ea0f57a61,5f5c61dce06d35459fd3459d,3,,,,,,candle,,,,,,,,,,,4,1,0,47,47,38,1,,,,,,,,,,,,,,,,,,,,,,,,,,,,,,,,,,,,,,,,,,,,,,,,,,,,,,,,,,,,,,,,,,,,,,
,,?,0.002215,0,,,,,,stimuli/images/PICTURE_655.png,TOILET,5c5fe9d34fff5700017ecdb4,05/01/1955,2020-09-12_06h51.57.101,proactive3.2,2020.1.2,Win32,60,5f5adea66120081ea0f57a61,5f5c61dce06d35459fd3459d,3,,,,,,megaphone,,,,,,,,,,,2,1,0,48,48,12,1,,,,,,,,,,,,,,,,,,,,,,,,,,,,,,,,,,,,,,,,,,,,,,,,,,,,,,,,,,,,,,,,,,,,,,
,,WRITER,3.673395,1,,,,,,stimuli/images/PICTURE_383.png,WRITER,5c5fe9d34fff5700017ecdb4,05/01/1955,2020-09-12_06h51.57.101,proactive3.2,2020.1.2,Win32,60,5f5adea66120081ea0f57a61,5f5c61dce06d35459fd3459d,3,,,,,,coin,,,,,,,,,,,3,1,0,49,49,28,1,,,,,,,,,,,,,,,,,,,,,,,,,,,,,,,,,,,,,,,,,,,,,,,,,,,,,,,,,,,,,,,,,,,,,,
,,?,0.00205,0,,,,,,stimuli/images/PICTURE_491.png,GLASS,5c5fe9d34fff5700017ecdb4,05/01/1955,2020-09-12_06h51.57.101,proactive3.2,2020.1.2,Win32,60,5f5adea66120081ea0f57a61,5f5c61dce06d35459fd3459d,3,,,,,,rug,,,,,,,,,,,2,1,0,50,50,14,1,,,,,,,,,,,,,,,,,,,,,,,,,,,,,,,,,,,,,,,,,,,,,,,,,,,,,,,,,,,,,,,,,,,,,,
,,?,0.002085,0,,,,,,stimuli/images/PICTURE_308.png,FAMILY,5c5fe9d34fff5700017ecdb4,05/01/1955,2020-09-12_06h51.57.101,proactive3.2,2020.1.2,Win32,60,5f5adea66120081ea0f57a61,5f5c61dce06d35459fd3459d,3,,,,,,dice,,,,,,,,,,,4,1,0,51,51,36,1,,,,,,,,,,,,,,,,,,,,,,,,,,,,,,,,,,,,,,,,,,,,,,,,,,,,,,,,,,,,,,,,,,,,,,
,,?,0.00202,0,,,,,,stimuli/images/PICTURE_380.png,CANDY,5c5fe9d34fff5700017ecdb4,05/01/1955,2020-09-12_06h51.57.101,proactive3.2,2020.1.2,Win32,60,5f5adea66120081ea0f57a61,5f5c61dce06d35459fd3459d,3,,,,,,gorilla,,,,,,,,,,,1,1,0,52,52,0,1,,,,,,,,,,,,,,,,,,,,,,,,,,,,,,,,,,,,,,,,,,,,,,,,,,,,,,,,,,,,,,,,,,,,,,
,,?,0.001835,0,,,,,,stimuli/images/PICTURE_95.png,MILLER,5c5fe9d34fff5700017ecdb4,05/01/1955,2020-09-12_06h51.57.101,proactive3.2,2020.1.2,Win32,60,5f5adea66120081ea0f57a61,5f5c61dce06d35459fd3459d,3,,,,,,suitcase,,,,,,,,,,,6,1,0,53,53,56,1,,,,,,,,,,,,,,,,,,,,,,,,,,,,,,,,,,,,,,,,,,,,,,,,,,,,,,,,,,,,,,,,,,,,,,
,,YEAR,2.31848,1,,,,,,stimuli/images/PICTURE_147.png,YEAR,5c5fe9d34fff5700017ecdb4,05/01/1955,2020-09-12_06h51.57.101,proactive3.2,2020.1.2,Win32,60,5f5adea66120081ea0f57a61,5f5c61dce06d35459fd3459d,3,,,,,,hanger,,,,,,,,,,,3,1,0,54,54,21,1,,,,,,,,,,,,,,,,,,,,,,,,,,,,,,,,,,,,,,,,,,,,,,,,,,,,,,,,,,,,,,,,,,,,,,
,,?,0.002255,0,,,,,,stimuli/images/PICTURE_327.png,SERIES,5c5fe9d34fff5700017ecdb4,05/01/1955,2020-09-12_06h51.57.101,proactive3.2,2020.1.2,Win32,60,5f5adea66120081ea0f57a61,5f5c61dce06d35459fd3459d,3,,,,,,helmet,,,,,,,,,,,1,1,0,55,55,3,1,,,,,,,,,,,,,,,,,,,,,,,,,,,,,,,,,,,,,,,,,,,,,,,,,,,,,,,,,,,,,,,,,,,,,,
,,?,0.00206,0,,,,,,stimuli/images/PICTURE_85.png,NATION,5c5fe9d34fff5700017ecdb4,05/01/1955,2020-09-12_06h51.57.101,proactive3.2,2020.1.2,Win32,60,5f5adea66120081ea0f57a61,5f5c61dce06d35459fd3459d,3,,,,,,diamond,,,,,,,,,,,1,1,0,56,56,5,1,,,,,,,,,,,,,,,,,,,,,,,,,,,,,,,,,,,,,,,,,,,,,,,,,,,,,,,,,,,,,,,,,,,,,,
,,?,0.002,0,,,,,,stimuli/images/PICTURE_469.png,AGENT,5c5fe9d34fff5700017ecdb4,05/01/1955,2020-09-12_06h51.57.101,proactive3.2,2020.1.2,Win32,60,5f5adea66120081ea0f57a61,5f5c61dce06d35459fd3459d,3,,,,,,stool,,,,,,,,,,,2,1,0,57,57,16,1,,,,,,,,,,,,,,,,,,,,,,,,,,,,,,,,,,,,,,,,,,,,,,,,,,,,,,,,,,,,,,,,,,,,,,
,,?,0.002135,0,,,,,,stimuli/images/PICTURE_285.png,LIFE,5c5fe9d34fff5700017ecdb4,05/01/1955,2020-09-12_06h51.57.101,proactive3.2,2020.1.2,Win32,60,5f5adea66120081ea0f57a61,5f5c61dce06d35459fd3459d,3,,,,,,carrot,,,,,,,,,,,4,1,0,58,58,33,1,,,,,,,,,,,,,,,,,,,,,,,,,,,,,,,,,,,,,,,,,,,,,,,,,,,,,,,,,,,,,,,,,,,,,,
,,?,0.00216,0,,,,,,stimuli/images/PICTURE_203.png,NIGHT,5c5fe9d34fff5700017ecdb4,05/01/1955,2020-09-12_06h51.57.101,proactive3.2,2020.1.2,Win32,60,5f5adea66120081ea0f57a61,5f5c61dce06d35459fd3459d,3,,,,,,cap,,,,,,,,,,,1,1,0,59,59,2,1,,,,,,,,,,,,,,,,,,,,,,,,,,,,,,,,,,,,,,,,,,,,,,,,,,,,,,,,,,,,,,,,,,,,,,
,,,,,,,,,,,,5c5fe9d34fff5700017ecdb4,05/01/1955,2020-09-12_06h51.57.101,proactive3.2,2020.1.2,Win32,60,5f5adea66120081ea0f57a61,5f5c61dce06d35459fd3459d,3,,,,,,,,,,,,,,,,,,,,,,,,0,1,1,1,1,stimuli/learn-block2.csv,,,,,,,,,,,,,,,,,,,,,,,,,,,,,,,,,,,,,,,,,,,,,,,,,,,,,,,,,,,,,,,,
,,,,,,,,,,stimuli/images/PICTURE_675.png,WEAPON,5c5fe9d34fff5700017ecdb4,05/01/1955,2020-09-12_06h51.57.101,proactive3.2,2020.1.2,Win32,60,5f5adea66120081ea0f57a61,5f5c61dce06d35459fd3459d,3,,,,,,windmill,,,,,,0,0,0,32,1,4,0,,,,,,,,,,,,,,,,,,,,,,,,,,,,,,,,,,,,,,,,,,,,,,,,,,,,,,,,,,,,,,,,,,,,,,,,,,,
,,,,,,,,,,stimuli/images/PICTURE_667.png,BATH,5c5fe9d34fff5700017ecdb4,05/01/1955,2020-09-12_06h51.57.101,proactive3.2,2020.1.2,Win32,60,5f5adea66120081ea0f57a61,5f5c61dce06d35459fd3459d,3,,,,,,daisy,,,,,,0,1,1,4,1,1,0,,,,,,,,,,,,,,,,,,,,,,,,,,,,,,,,,,,,,,,,,,,,,,,,,,,,,,,,,,,,,,,,,,,,,,,,,,,
,,,,,,,,,,stimuli/images/PICTURE_308.png,KIND,5c5fe9d34fff5700017ecdb4,05/01/1955,2020-09-12_06h51.57.101,proactive3.2,2020.1.2,Win32,60,5f5adea66120081ea0f57a61,5f5c61dce06d35459fd3459d,3,,,,,,dice,,,,,,0,2,2,54,1,6,0,,,,,,,,,,,,,,,,,,,,,,,,,,,,,,,,,,,,,,,,,,,,,,,,,,,,,,,,,,,,,,,,,,,,,,,,,,,
,,,,,,,,,,stimuli/images/PICTURE_487.png,FLIGHT,5c5fe9d34fff5700017ecdb4,05/01/1955,2020-09-12_06h51.57.101,proactive3.2,2020.1.2,Win32,60,5f5adea66120081ea0f57a61,5f5c61dce06d35459fd3459d,3,,,,,,basket,,,,,,0,3,3,9,1,1,0,,,,,,,,,,,,,,,,,,,,,,,,,,,,,,,,,,,,,,,,,,,,,,,,,,,,,,,,,,,,,,,,,,,,,,,,,,,
,,,,,,,,,,stimuli/images/PICTURE_491.png,ROOF,5c5fe9d34fff5700017ecdb4,05/01/1955,2020-09-12_06h51.57.101,proactive3.2,2020.1.2,Win32,60,5f5adea66120081ea0f57a61,5f5c61dce06d35459fd3459d,3,,,,,,rug,,,,,,0,4,4,24,1,3,0,,,,,,,,,,,,,,,,,,,,,,,,,,,,,,,,,,,,,,,,,,,,,,,,,,,,,,,,,,,,,,,,,,,,,,,,,,,
,,,,,,,,,,stimuli/images/PICTURE_151.png,GIRL,5c5fe9d34fff5700017ecdb4,05/01/1955,2020-09-12_06h51.57.101,proactive3.2,2020.1.2,Win32,60,5f5adea66120081ea0f57a61,5f5c61dce06d35459fd3459d,3,,,,,,tray,,,,,,0,5,5,19,1,2,0,,,,,,,,,,,,,,,,,,,,,,,,,,,,,,,,,,,,,,,,,,,,,,,,,,,,,,,,,,,,,,,,,,,,,,,,,,,
,,,,,,,,,,stimuli/images/PICTURE_708.png,CLIENT,5c5fe9d34fff5700017ecdb4,05/01/1955,2020-09-12_06h51.57.101,proactive3.2,2020.1.2,Win32,60,5f5adea66120081ea0f57a61,5f5c61dce06d35459fd3459d,3,,,,,,monkey,,,,,,0,6,6,5,1,1,0,,,,,,,,,,,,,,,,,,,,,,,,,,,,,,,,,,,,,,,,,,,,,,,,,,,,,,,,,,,,,,,,,,,,,,,,,,,
,,,,,,,,,,stimuli/images/PICTURE_208.png,THING,5c5fe9d34fff5700017ecdb4,05/01/1955,2020-09-12_06h51.57.101,proactive3.2,2020.1.2,Win32,60,5f5adea66120081ea0f57a61,5f5c61dce06d35459fd3459d,3,,,,,,microphone,,,,,,0,7,7,47,1,5,0,,,,,,,,,,,,,,,,,,,,,,,,,,,,,,,,,,,,,,,,,,,,,,,,,,,,,,,,,,,,,,,,,,,,,,,,,,,
,,,,,,,,,,stimuli/images/PICTURE_208.png,MONTH,5c5fe9d34fff5700017ecdb4,05/01/1955,2020-09-12_06h51.57.101,proactive3.2,2020.1.2,Win32,60,5f5adea66120081ea0f57a61,5f5c61dce06d35459fd3459d,3,,,,,,microphone,,,,,,0,8,8,53,1,6,0,,,,,,,,,,,,,,,,,,,,,,,,,,,,,,,,,,,,,,,,,,,,,,,,,,,,,,,,,,,,,,,,,,,,,,,,,,,
,,,,,,,,,,stimuli/images/PICTURE_470.png,CASINO,5c5fe9d34fff5700017ecdb4,05/01/1955,2020-09-12_06h51.57.101,proactive3.2,2020.1.2,Win32,60,5f5adea66120081ea0f57a61,5f5c61dce06d35459fd3459d,3,,,,,,motorbike,,,,,,0,9,9,36,1,4,0,,,,,,,,,,,,,,,,,,,,,,,,,,,,,,,,,,,,,,,,,,,,,,,,,,,,,,,,,,,,,,,,,,,,,,,,,,,
,,,,,,,,,,stimuli/images/PICTURE_32.png,JUNGLE,5c5fe9d34fff5700017ecdb4,05/01/1955,2020-09-12_06h51.57.101,proactive3.2,2020.1.2,Win32,60,5f5adea66120081ea0f57a61,5f5c61dce06d35459fd3459d,3,,,,,,crown,,,,,,0,10,10,45,1,5,0,,,,,,,,,,,,,,,,,,,,,,,,,,,,,,,,,,,,,,,,,,,,,,,,,,,,,,,,,,,,,,,,,,,,,,,,,,,
,,,,,,,,,,stimuli/images/PICTURE_356.png,DANGER,5c5fe9d34fff5700017ecdb4,05/01/1955,2020-09-12_06h51.57.101,proactive3.2,2020.1.2,Win32,60,5f5adea66120081ea0f57a61,5f5c61dce06d35459fd3459d,3,,,,,,pawn,,,,,,0,11,11,55,1,6,0,,,,,,,,,,,,,,,,,,,,,,,,,,,,,,,,,,,,,,,,,,,,,,,,,,,,,,,,,,,,,,,,,,,,,,,,,,,
,,,,,,,,,,stimuli/images/PICTURE_491.png,WRITER,5c5fe9d34fff5700017ecdb4,05/01/1955,2020-09-12_06h51.57.101,proactive3.2,2020.1.2,Win32,60,5f5adea66120081ea0f57a61,5f5c61dce06d35459fd3459d,3,,,,,,rug,,,,,,0,12,12,57,1,6,0,,,,,,,,,,,,,,,,,,,,,,,,,,,,,,,,,,,,,,,,,,,,,,,,,,,,,,,,,,,,,,,,,,,,,,,,,,,
,,,,,,,,,,stimuli/images/PICTURE_208.png,LOTS,5c5fe9d34fff5700017ecdb4,05/01/1955,2020-09-12_06h51.57.101,proactive3.2,2020.1.2,Win32,60,5f5adea66120081ea0f57a61,5f5c61dce06d35459fd3459d,3,,,,,,microphone,,,,,,0,13,13,10,1,2,0,,,,,,,,,,,,,,,,,,,,,,,,,,,,,,,,,,,,,,,,,,,,,,,,,,,,,,,,,,,,,,,,,,,,,,,,,,,
,,,,,,,,,,stimuli/images/PICTURE_688.png,WOMEN,5c5fe9d34fff5700017ecdb4,05/01/1955,2020-09-12_06h51.57.101,proactive3.2,2020.1.2,Win32,60,5f5adea66120081ea0f57a61,5f5c61dce06d35459fd3459d,3,,,,,,runner,,,,,,0,14,14,14,1,2,0,,,,,,,,,,,,,,,,,,,,,,,,,,,,,,,,,,,,,,,,,,,,,,,,,,,,,,,,,,,,,,,,,,,,,,,,,,,
,,,,,,,,,,stimuli/images/PICTURE_123.png,ADVICE,5c5fe9d34fff5700017ecdb4,05/01/1955,2020-09-12_06h51.57.101,proactive3.2,2020.1.2,Win32,60,5f5adea66120081ea0f57a61,5f5c61dce06d35459fd3459d,3,,,,,,dart,,,,,,0,15,15,40,1,5,0,,,,,,,,,,,,,,,,,,,,,,,,,,,,,,,,,,,,,,,,,,,,,,,,,,,,,,,,,,,,,,,,,,,,,,,,,,,
,,,,,,,,,,stimuli/images/PICTURE_467.png,DEMON,5c5fe9d34fff5700017ecdb4,05/01/1955,2020-09-12_06h51.57.101,proactive3.2,2020.1.2,Win32,60,5f5adea66120081ea0f57a61,5f5c61dce06d35459fd3459d,3,,,,,,peg,,,,,,0,16,16,23,1,3,0,,,,,,,,,,,,,,,,,,,,,,,,,,,,,,,,,,,,,,,,,,,,,,,,,,,,,,,,,,,,,,,,,,,,,,,,,,,
,,,,,,,,,,stimuli/images/PICTURE_708.png,YARD,5c5fe9d34fff5700017ecdb4,05/01/1955,2020-09-12_06h51.57.101,proactive3.2,2020.1.2,Win32,60,5f5adea66120081ea0f57a61,5f5c61dce06d35459fd3459d,3,,,,,,monkey,,,,,,0,17,17,29,1,3,0,,,,,,,,,,,,,,,,,,,,,,,,,,,,,,,,,,,,,,,,,,,,,,,,,,,,,,,,,,,,,,,,,,,,,,,,,,,
,,,,,,,,,,stimuli/images/PICTURE_469.png,ARTIST,5c5fe9d34fff5700017ecdb4,05/01/1955,2020-09-12_06h51.57.101,proactive3.2,2020.1.2,Win32,60,5f5adea66120081ea0f57a61,5f5c61dce06d35459fd3459d,3,,,,,,stool,,,,,,0,18,18,6,1,1,0,,,,,,,,,,,,,,,,,,,,,,,,,,,,,,,,,,,,,,,,,,,,,,,,,,,,,,,,,,,,,,,,,,,,,,,,,,,
,,,,,,,,,,stimuli/images/PICTURE_488.png,STYLE,5c5fe9d34fff5700017ecdb4,05/01/1955,2020-09-12_06h51.57.101,proactive3.2,2020.1.2,Win32,60,5f5adea66120081ea0f57a61,5f5c61dce06d35459fd3459d,3,,,,,,sun,,,,,,0,19,19,33,1,4,0,,,,,,,,,,,,,,,,,,,,,,,,,,,,,,,,,,,,,,,,,,,,,,,,,,,,,,,,,,,,,,,,,,,,,,,,,,,
,,,,,,,,,,stimuli/images/PICTURE_677.png,MILE,5c5fe9d34fff5700017ecdb4,05/01/1955,2020-09-12_06h51.57.101,proactive3.2,2020.1.2,Win32,60,5f5adea66120081ea0f57a61,5f5c61dce06d35459fd3459d,3,,,,,,map,,,,,,0,20,20,30,1,4,0,,,,,,,,,,,,,,,,,,,,,,,,,,,,,,,,,,,,,,,,,,,,,,,,,,,,,,,,,,,,,,,,,,,,,,,,,,,
,,,,,,,,,,stimuli/images/PICTURE_255.png,AREA,5c5fe9d34fff5700017ecdb4,05/01/1955,2020-09-12_06h51.57.101,proactive3.2,2020.1.2,Win32,60,5f5adea66120081ea0f57a61,5f5c61dce06d35459fd3459d,3,,,,,,shovel,,,,,,0,21,21,22,1,3,0,,,,,,,,,,,,,,,,,,,,,,,,,,,,,,,,,,,,,,,,,,,,,,,,,,,,,,,,,,,,,,,,,,,,,,,,,,,
,,,,,,,,,,stimuli/images/PICTURE_123.png,ADVICE,5c5fe9d34fff5700017ecdb4,05/01/1955,2020-09-12_06h51.57.101,proactive3.2,2020.1.2,Win32,60,5f5adea66120081ea0f57a61,5f5c61dce06d35459fd3459d,3,,,,,,dart,,,,,,0,22,22,50,1,6,0,,,,,,,,,,,,,,,,,,,,,,,,,,,,,,,,,,,,,,,,,,,,,,,,,,,,,,,,,,,,,,,,,,,,,,,,,,,
,,,,,,,,,,stimuli/images/PICTURE_285.png,ADVICE,5c5fe9d34fff5700017ecdb4,05/01/1955,2020-09-12_06h51.57.101,proactive3.2,2020.1.2,Win32,60,5f5adea66120081ea0f57a61,5f5c61dce06d35459fd3459d,3,,,,,,carrot,,,,,,0,23,23,12,1,2,0,,,,,,,,,,,,,,,,,,,,,,,,,,,,,,,,,,,,,,,,,,,,,,,,,,,,,,,,,,,,,,,,,,,,,,,,,,,
,,,,,,,,,,stimuli/images/PICTURE_380.png,DEATH,5c5fe9d34fff5700017ecdb4,05/01/1955,2020-09-12_06h51.57.101,proactive3.2,2020.1.2,Win32,60,5f5adea66120081ea0f57a61,5f5c61dce06d35459fd3459d,3,,,,,,gorilla,,,,,,0,24,24,49,1,5,0,,,,,,,,,,,,,,,,,,,,,,,,,,,,,,,,,,,,,,,,,,,,,,,,,,,,,,,,,,,,,,,,,,,,,,,,,,,
,,,,,,,,,,stimuli/images/PICTURE_248.png,DOZEN,5c5fe9d34fff5700017ecdb4,05/01/1955,2020-09-12_06h51.57.101,proactive3.2,2020.1.2,Win32,60,5f5adea66120081ea0f57a61,5f5c61dce06d35459fd3459d,3,,,,,,cart,,,,,,0,25,25,39,1,4,0,,,,,,,,,,,,,,,,,,,,,,,,,,,,,,,,,,,,,,,,,,,,,,,,,,,,,,,,,,,,,,,,,,,,,,,,,,,
,,,,,,,,,,stimuli/images/PICTURE_95.png,STYLE,5c5fe9d34fff5700017ecdb4,05/01/1955,2020-09-12_06h51.57.101,proactive3.2,2020.1.2,Win32,60,5f5adea66120081ea0f57a61,5f5c61dce06d35459fd3459d,3,,,,,,suitcase,,,,,,0,26,26,25,1,3,0,,,,,,,,,,,,,,,,,,,,,,,,,,,,,,,,,,,,,,,,,,,,,,,,,,,,,,,,,,,,,,,,,,,,,,,,,,,
,,,,,,,,,,stimuli/images/PICTURE_504.png,BODY,5c5fe9d34fff5700017ecdb4,05/01/1955,2020-09-12_06h51.57.101,proactive3.2,2020.1.2,Win32,60,5f5adea66120081ea0f57a61,5f5c61dce06d35459fd3459d,3,,,,,,wheel,,,,,,0,27,27,8,1,1,0,,,,,,,,,,,,,,,,,,,,,,,,,,,,,,,,,,,,,,,,,,,,,,,,,,,,,,,,,,,,,,,,,,,,,,,,,,,
,,,,,,,,,,stimuli/images/PICTURE_147.png,MOMENT,5c5fe9d34fff5700017ecdb4,05/01/1955,2020-09-12_06h51.57.101,proactive3.2,2020.1.2,Win32,60,5f5adea66120081ea0f57a61,5f5c61dce06d35459fd3459d,3,,,,,,hanger,,,,,,0,28,28,51,1,6,0,,,,,,,,,,,,,,,,,,,,,,,,,,,,,,,,,,,,,,,,,,,,,,,,,,,,,,,,,,,,,,,,,,,,,,,,,,,
,,,,,,,,,,stimuli/images/PICTURE_339.png,PLENTY,5c5fe9d34fff5700017ecdb4,05/01/1955,2020-09-12_06h51.57.101,proactive3.2,2020.1.2,Win32,60,5f5adea66120081ea0f57a61,5f5c61dce06d35459fd3459d,3,,,,,,backpack,,,,,,0,29,29,0,1,1,0,,,,,,,,,,,,,,,,,,,,,,,,,,,,,,,,,,,,,,,,,,,,,,,,,,,,,,,,,,,,,,,,,,,,,,,,,,,
,,,,,,,,,,stimuli/images/PICTURE_311.png,FRIEND,5c5fe9d34fff5700017ecdb4,05/01/1955,2020-09-12_06h51.57.101,proactive3.2,2020.1.2,Win32,60,5f5adea66120081ea0f57a61,5f5c61dce06d35459fd3459d,3,,,,,,razor,,,,,,0,30,30,34,1,4,0,,,,,,,,,,,,,,,,,,,,,,,,,,,,,,,,,,,,,,,,,,,,,,,,,,,,,,,,,,,,,,,,,,,,,,,,,,,
,,,,,,,,,,stimuli/images/PICTURE_688.png,CASINO,5c5fe9d34fff5700017ecdb4,05/01/1955,2020-09-12_06h51.57.101,proactive3.2,2020.1.2,Win32,60,5f5adea66120081ea0f57a61,5f5c61dce06d35459fd3459d,3,,,,,,runner,,,,,,0,31,31,2,1,1,0,,,,,,,,,,,,,,,,,,,,,,,,,,,,,,,,,,,,,,,,,,,,,,,,,,,,,,,,,,,,,,,,,,,,,,,,,,,
,,,,,,,,,,stimuli/images/PICTURE_469.png,LETTER,5c5fe9d34fff5700017ecdb4,05/01/1955,2020-09-12_06h51.57.101,proactive3.2,2020.1.2,Win32,60,5f5adea66120081ea0f57a61,5f5c61dce06d35459fd3459d,3,,,,,,stool,,,,,,0,32,32,42,1,5,0,,,,,,,,,,,,,,,,,,,,,,,,,,,,,,,,,,,,,,,,,,,,,,,,,,,,,,,,,,,,,,,,,,,,,,,,,,,
,,,,,,,,,,stimuli/images/PICTURE_160.png,FEET,5c5fe9d34fff5700017ecdb4,05/01/1955,2020-09-12_06h51.57.101,proactive3.2,2020.1.2,Win32,60,5f5adea66120081ea0f57a61,5f5c61dce06d35459fd3459d,3,,,,,,wheelbarrow,,,,,,0,33,33,58,1,6,0,,,,,,,,,,,,,,,,,,,,,,,,,,,,,,,,,,,,,,,,,,,,,,,,,,,,,,,,,,,,,,,,,,,,,,,,,,,
,,,,,,,,,,stimuli/images/PICTURE_314.png,SAKE,5c5fe9d34fff5700017ecdb4,05/01/1955,2020-09-12_06h51.57.101,proactive3.2,2020.1.2,Win32,60,5f5adea66120081ea0f57a61,5f5c61dce06d35459fd3459d,3,,,,,,perfume,,,,,,0,34,34,7,1,1,0,,,,,,,,,,,,,,,,,,,,,,,,,,,,,,,,,,,,,,,,,,,,,,,,,,,,,,,,,,,,,,,,,,,,,,,,,,,
,,,,,,,,,,stimuli/images/PICTURE_453.png,PLENTY,5c5fe9d34fff5700017ecdb4,05/01/1955,2020-09-12_06h51.57.101,proactive3.2,2020.1.2,Win32,60,5f5adea66120081ea0f57a61,5f5c61dce06d35459fd3459d,3,,,,,,scissors,,,,,,0,35,35,56,1,6,0,,,,,,,,,,,,,,,,,,,,,,,,,,,,,,,,,,,,,,,,,,,,,,,,,,,,,,,,,,,,,,,,,,,,,,,,,,,
,,,,,,,,,,stimuli/images/PICTURE_348.png,SPEECH,5c5fe9d34fff5700017ecdb4,05/01/1955,2020-09-12_06h51.57.101,proactive3.2,2020.1.2,Win32,60,5f5adea66120081ea0f57a61,5f5c61dce06d35459fd3459d,3,,,,,,pepper,,,,,,0,36,36,20,1,3,0,,,,,,,,,,,,,,,,,,,,,,,,,,,,,,,,,,,,,,,,,,,,,,,,,,,,,,,,,,,,,,,,,,,,,,,,,,,
,,,,,,,,,,stimuli/images/PICTURE_85.png,THING,5c5fe9d34fff5700017ecdb4,05/01/1955,2020-09-12_06h51.57.101,proactive3.2,2020.1.2,Win32,60,5f5adea66120081ea0f57a61,5f5c61dce06d35459fd3459d,3,,,,,,diamond,,,,,,0,37,37,15,1,2,0,,,,,,,,,,,,,,,,,,,,,,,,,,,,,,,,,,,,,,,,,,,,,,,,,,,,,,,,,,,,,,,,,,,,,,,,,,,
,,,,,,,,,,stimuli/images/PICTURE_449.png,THING,5c5fe9d34fff5700017ecdb4,05/01/1955,2020-09-12_06h51.57.101,proactive3.2,2020.1.2,Win32,60,5f5adea66120081ea0f57a61,5f5c61dce06d35459fd3459d,3,,,,,,bench,,,,,,0,38,38,59,1,6,0,,,,,,,,,,,,,,,,,,,,,,,,,,,,,,,,,,,,,,,,,,,,,,,,,,,,,,,,,,,,,,,,,,,,,,,,,,,
,,,,,,,,,,stimuli/images/PICTURE_215.png,PLENTY,5c5fe9d34fff5700017ecdb4,05/01/1955,2020-09-12_06h51.57.101,proactive3.2,2020.1.2,Win32,60,5f5adea66120081ea0f57a61,5f5c61dce06d35459fd3459d,3,,,,,,boot,,,,,,0,39,39,37,1,4,0,,,,,,,,,,,,,,,,,,,,,,,,,,,,,,,,,,,,,,,,,,,,,,,,,,,,,,,,,,,,,,,,,,,,,,,,,,,
,,,,,,,,,,stimuli/images/PICTURE_233.png,IDEAS,5c5fe9d34fff5700017ecdb4,05/01/1955,2020-09-12_06h51.57.101,proactive3.2,2020.1.2,Win32,60,5f5adea66120081ea0f57a61,5f5c61dce06d35459fd3459d,3,,,,,,salt,,,,,,0,40,40,28,1,3,0,,,,,,,,,,,,,,,,,,,,,,,,,,,,,,,,,,,,,,,,,,,,,,,,,,,,,,,,,,,,,,,,,,,,,,,,,,,
,,,,,,,,,,stimuli/images/PICTURE_327.png,BEAUTY,5c5fe9d34fff5700017ecdb4,05/01/1955,2020-09-12_06h51.57.101,proactive3.2,2020.1.2,Win32,60,5f5adea66120081ea0f57a61,5f5c61dce06d35459fd3459d,3,,,,,,helmet,,,,,,0,41,41,48,1,5,0,,,,,,,,,,,,,,,,,,,,,,,,,,,,,,,,,,,,,,,,,,,,,,,,,,,,,,,,,,,,,,,,,,,,,,,,,,,
,,,,,,,,,,stimuli/images/PICTURE_308.png,ESTATE,5c5fe9d34fff5700017ecdb4,05/01/1955,2020-09-12_06h51.57.101,proactive3.2,2020.1.2,Win32,60,5f5adea66120081ea0f57a61,5f5c61dce06d35459fd3459d,3,,,,,,dice,,,,,,0,42,42,46,1,5,0,,,,,,,,,,,,,,,,,,,,,,,,,,,,,,,,,,,,,,,,,,,,,,,,,,,,,,,,,,,,,,,,,,,,,,,,,,,
,,,,,,,,,,stimuli/images/PICTURE_311.png,BEAUTY,5c5fe9d34fff5700017ecdb4,05/01/1955,2020-09-12_06h51.57.101,proactive3.2,2020.1.2,Win32,60,5f5adea66120081ea0f57a61,5f5c61dce06d35459fd3459d,3,,,,,,razor,,,,,,0,43,43,13,1,2,0,,,,,,,,,,,,,,,,,,,,,,,,,,,,,,,,,,,,,,,,,,,,,,,,,,,,,,,,,,,,,,,,,,,,,,,,,,,
,,,,,,,,,,stimuli/images/PICTURE_380.png,PHOTO,5c5fe9d34fff5700017ecdb4,05/01/1955,2020-09-12_06h51.57.101,proactive3.2,2020.1.2,Win32,60,5f5adea66120081ea0f57a61,5f5c61dce06d35459fd3459d,3,,,,,,gorilla,,,,,,0,44,44,52,1,6,0,,,,,,,,,,,,,,,,,,,,,,,,,,,,,,,,,,,,,,,,,,,,,,,,,,,,,,,,,,,,,,,,,,,,,,,,,,,
,,,,,,,,,,stimuli/images/PICTURE_654.png,VALLEY,5c5fe9d34fff5700017ecdb4,05/01/1955,2020-09-12_06h51.57.101,proactive3.2,2020.1.2,Win32,60,5f5adea66120081ea0f57a61,5f5c61dce06d35459fd3459d,3,,,,,,pencil,,,,,,0,45,45,1,1,1,0,,,,,,,,,,,,,,,,,,,,,,,,,,,,,,,,,,,,,,,,,,,,,,,,,,,,,,,,,,,,,,,,,,,,,,,,,,,
,,,,,,,,,,stimuli/images/PICTURE_692.png,MONTH,5c5fe9d34fff5700017ecdb4,05/01/1955,2020-09-12_06h51.57.101,proactive3.2,2020.1.2,Win32,60,5f5adea66120081ea0f57a61,5f5c61dce06d35459fd3459d,3,,,,,,cherry,,,,,,0,46,46,16,1,2,0,,,,,,,,,,,,,,,,,,,,,,,,,,,,,,,,,,,,,,,,,,,,,,,,,,,,,,,,,,,,,,,,,,,,,,,,,,,
,,,,,,,,,,stimuli/images/PICTURE_203.png,ARTIST,5c5fe9d34fff5700017ecdb4,05/01/1955,2020-09-12_06h51.57.101,proactive3.2,2020.1.2,Win32,60,5f5adea66120081ea0f57a61,5f5c61dce06d35459fd3459d,3,,,,,,cap,,,,,,0,47,47,26,1,3,0,,,,,,,,,,,,,,,,,,,,,,,,,,,,,,,,,,,,,,,,,,,,,,,,,,,,,,,,,,,,,,,,,,,,,,,,,,,
,,,,,,,,,,stimuli/images/PICTURE_302.png,FAMILY,5c5fe9d34fff5700017ecdb4,05/01/1955,2020-09-12_06h51.57.101,proactive3.2,2020.1.2,Win32,60,5f5adea66120081ea0f57a61,5f5c61dce06d35459fd3459d,3,,,,,,taxi,,,,,,0,48,48,18,1,2,0,,,,,,,,,,,,,,,,,,,,,,,,,,,,,,,,,,,,,,,,,,,,,,,,,,,,,,,,,,,,,,,,,,,,,,,,,,,
,,,,,,,,,,stimuli/images/PICTURE_233.png,WOMEN,5c5fe9d34fff5700017ecdb4,05/01/1955,2020-09-12_06h51.57.101,proactive3.2,2020.1.2,Win32,60,5f5adea66120081ea0f57a61,5f5c61dce06d35459fd3459d,3,,,,,,salt,,,,,,0,49,49,38,1,4,0,,,,,,,,,,,,,,,,,,,,,,,,,,,,,,,,,,,,,,,,,,,,,,,,,,,,,,,,,,,,,,,,,,,,,,,,,,,
,,,,,,,,,,stimuli/images/PICTURE_509.png,PHOTO,5c5fe9d34fff5700017ecdb4,05/01/1955,2020-09-12_06h51.57.101,proactive3.2,2020.1.2,Win32,60,5f5adea66120081ea0f57a61,5f5c61dce06d35459fd3459d,3,,,,,,telephone,,,,,,0,50,50,21,1,3,0,,,,,,,,,,,,,,,,,,,,,,,,,,,,,,,,,,,,,,,,,,,,,,,,,,,,,,,,,,,,,,,,,,,,,,,,,,,
,,,,,,,,,,stimuli/images/PICTURE_744.png,SAKE,5c5fe9d34fff5700017ecdb4,05/01/1955,2020-09-12_06h51.57.101,proactive3.2,2020.1.2,Win32,60,5f5adea66120081ea0f57a61,5f5c61dce06d35459fd3459d,3,,,,,,ring,,,,,,0,51,51,17,1,2,0,,,,,,,,,,,,,,,,,,,,,,,,,,,,,,,,,,,,,,,,,,,,,,,,,,,,,,,,,,,,,,,,,,,,,,,,,,,
,,,,,,,,,,stimuli/images/PICTURE_177.png,CARS,5c5fe9d34fff5700017ecdb4,05/01/1955,2020-09-12_06h51.57.101,proactive3.2,2020.1.2,Win32,60,5f5adea66120081ea0f57a61,5f5c61dce06d35459fd3459d,3,,,,,,mushroom,,,,,,0,52,52,35,1,4,0,,,,,,,,,,,,,,,,,,,,,,,,,,,,,,,,,,,,,,,,,,,,,,,,,,,,,,,,,,,,,,,,,,,,,,,,,,,
,,,,,,,,,,stimuli/images/PICTURE_744.png,SYSTEM,5c5fe9d34fff5700017ecdb4,05/01/1955,2020-09-12_06h51.57.101,proactive3.2,2020.1.2,Win32,60,5f5adea66120081ea0f57a61,5f5c61dce06d35459fd3459d,3,,,,,,ring,,,,,,0,53,53,43,1,5,0,,,,,,,,,,,,,,,,,,,,,,,,,,,,,,,,,,,,,,,,,,,,,,,,,,,,,,,,,,,,,,,,,,,,,,,,,,,
,,,,,,,,,,stimuli/images/PICTURE_667.png,PLENTY,5c5fe9d34fff5700017ecdb4,05/01/1955,2020-09-12_06h51.57.101,proactive3.2,2020.1.2,Win32,60,5f5adea66120081ea0f57a61,5f5c61dce06d35459fd3459d,3,,,,,,daisy,,,,,,0,54,54,41,1,5,0,,,,,,,,,,,,,,,,,,,,,,,,,,,,,,,,,,,,,,,,,,,,,,,,,,,,,,,,,,,,,,,,,,,,,,,,,,,
,,,,,,,,,,stimuli/images/PICTURE_453.png,DUDE,5c5fe9d34fff5700017ecdb4,05/01/1955,2020-09-12_06h51.57.101,proactive3.2,2020.1.2,Win32,60,5f5adea66120081ea0f57a61,5f5c61dce06d35459fd3459d,3,,,,,,scissors,,,,,,0,55,55,27,1,3,0,,,,,,,,,,,,,,,,,,,,,,,,,,,,,,,,,,,,,,,,,,,,,,,,,,,,,,,,,,,,,,,,,,,,,,,,,,,
,,,,,,,,,,stimuli/images/PICTURE_314.png,GODS,5c5fe9d34fff5700017ecdb4,05/01/1955,2020-09-12_06h51.57.101,proactive3.2,2020.1.2,Win32,60,5f5adea66120081ea0f57a61,5f5c61dce06d35459fd3459d,3,,,,,,perfume,,,,,,0,56,56,11,1,2,0,,,,,,,,,,,,,,,,,,,,,,,,,,,,,,,,,,,,,,,,,,,,,,,,,,,,,,,,,,,,,,,,,,,,,,,,,,,
,,,,,,,,,,stimuli/images/PICTURE_68.png,MILE,5c5fe9d34fff5700017ecdb4,05/01/1955,2020-09-12_06h51.57.101,proactive3.2,2020.1.2,Win32,60,5f5adea66120081ea0f57a61,5f5c61dce06d35459fd3459d,3,,,,,,candle,,,,,,0,57,57,44,1,5,0,,,,,,,,,,,,,,,,,,,,,,,,,,,,,,,,,,,,,,,,,,,,,,,,,,,,,,,,,,,,,,,,,,,,,,,,,,,
,,,,,,,,,,stimuli/images/PICTURE_160.png,LEADER,5c5fe9d34fff5700017ecdb4,05/01/1955,2020-09-12_06h51.57.101,proactive3.2,2020.1.2,Win32,60,5f5adea66120081ea0f57a61,5f5c61dce06d35459fd3459d,3,,,,,,wheelbarrow,,,,,,0,58,58,3,1,1,0,,,,,,,,,,,,,,,,,,,,,,,,,,,,,,,,,,,,,,,,,,,,,,,,,,,,,,,,,,,,,,,,,,,,,,,,,,,
,,?,0.003415,0,,,,,,stimuli/images/PICTURE_688.png,CASINO,5c5fe9d34fff5700017ecdb4,05/01/1955,2020-09-12_06h51.57.101,proactive3.2,2020.1.2,Win32,60,5f5adea66120081ea0f57a61,5f5c61dce06d35459fd3459d,3,,,,,,runner,,,,,,,,,,,1,0,0,0,0,2,1,,,,,,,,,,,,,,,,,,,,,,,,,,,,,,,,,,,,,,,,,,,,,,,,,,,,,,,,,,,,,,,,,,,,,,
,,?,0.002135,0,,,,,,stimuli/images/PICTURE_744.png,SAKE,5c5fe9d34fff5700017ecdb4,05/01/1955,2020-09-12_06h51.57.101,proactive3.2,2020.1.2,Win32,60,5f5adea66120081ea0f57a61,5f5c61dce06d35459fd3459d,3,,,,,,ring,,,,,,,,,,,2,0,0,1,1,17,1,,,,,,,,,,,,,,,,,,,,,,,,,,,,,,,,,,,,,,,,,,,,,,,,,,,,,,,,,,,,,,,,,,,,,,
,,?,0.001985,0,,,,,,stimuli/images/PICTURE_488.png,STYLE,5c5fe9d34fff5700017ecdb4,05/01/1955,2020-09-12_06h51.57.101,proactive3.2,2020.1.2,Win32,60,5f5adea66120081ea0f57a61,5f5c61dce06d35459fd3459d,3,,,,,,sun,,,,,,,,,,,4,0,0,2,2,33,1,,,,,,,,,,,,,,,,,,,,,,,,,,,,,,,,,,,,,,,,,,,,,,,,,,,,,,,,,,,,,,,,,,,,,,
,,?,0.002075,0,,,,,,stimuli/images/PICTURE_123.png,ADVICE,5c5fe9d34fff5700017ecdb4,05/01/1955,2020-09-12_06h51.57.101,proactive3.2,2020.1.2,Win32,60,5f5adea66120081ea0f57a61,5f5c61dce06d35459fd3459d,3,,,,,,dart,,,,,,,,,,,5,0,0,3,3,40,1,,,,,,,,,,,,,,,,,,,,,,,,,,,,,,,,,,,,,,,,,,,,,,,,,,,,,,,,,,,,,,,,,,,,,,
,,?,0.00201,0,,,,,,stimuli/images/PICTURE_654.png,VALLEY,5c5fe9d34fff5700017ecdb4,05/01/1955,2020-09-12_06h51.57.101,proactive3.2,2020.1.2,Win32,60,5f5adea66120081ea0f57a61,5f5c61dce06d35459fd3459d,3,,,,,,pencil,,,,,,,,,,,1,0,0,4,4,1,1,,,,,,,,,,,,,,,,,,,,,,,,,,,,,,,,,,,,,,,,,,,,,,,,,,,,,,,,,,,,,,,,,,,,,,
,,?,0.00203,0,,,,,,stimuli/images/PICTURE_215.png,PLENTY,5c5fe9d34fff5700017ecdb4,05/01/1955,2020-09-12_06h51.57.101,proactive3.2,2020.1.2,Win32,60,5f5adea66120081ea0f57a61,5f5c61dce06d35459fd3459d,3,,,,,,boot,,,,,,,,,,,4,0,0,5,5,37,1,,,,,,,,,,,,,,,,,,,,,,,,,,,,,,,,,,,,,,,,,,,,,,,,,,,,,,,,,,,,,,,,,,,,,,
,,?,0.00268,0,,,,,,stimuli/images/PICTURE_708.png,CLIENT,5c5fe9d34fff5700017ecdb4,05/01/1955,2020-09-12_06h51.57.101,proactive3.2,2020.1.2,Win32,60,5f5adea66120081ea0f57a61,5f5c61dce06d35459fd3459d,3,,,,,,monkey,,,,,,,,,,,1,0,0,6,6,5,1,,,,,,,,,,,,,,,,,,,,,,,,,,,,,,,,,,,,,,,,,,,,,,,,,,,,,,,,,,,,,,,,,,,,,,
,,?,0.0021,0,,,,,,stimuli/images/PICTURE_491.png,WRITER,5c5fe9d34fff5700017ecdb4,05/01/1955,2020-09-12_06h51.57.101,proactive3.2,2020.1.2,Win32,60,5f5adea66120081ea0f57a61,5f5c61dce06d35459fd3459d,3,,,,,,rug,,,,,,,,,,,6,0,0,7,7,57,1,,,,,,,,,,,,,,,,,,,,,,,,,,,,,,,,,,,,,,,,,,,,,,,,,,,,,,,,,,,,,,,,,,,,,,
,,?,0.00205,0,,,,,,stimuli/images/PICTURE_449.png,THING,5c5fe9d34fff5700017ecdb4,05/01/1955,2020-09-12_06h51.57.101,proactive3.2,2020.1.2,Win32,60,5f5adea66120081ea0f57a61,5f5c61dce06d35459fd3459d,3,,,,,,bench,,,,,,,,,,,6,0,0,8,8,59,1,,,,,,,,,,,,,,,,,,,,,,,,,,,,,,,,,,,,,,,,,,,,,,,,,,,,,,,,,,,,,,,,,,,,,,
,,?,0.00264,0,,,,,,stimuli/images/PICTURE_302.png,FAMILY,5c5fe9d34fff5700017ecdb4,05/01/1955,2020-09-12_06h51.57.101,proactive3.2,2020.1.2,Win32,60,5f5adea66120081ea0f57a61,5f5c61dce06d35459fd3459d,3,,,,,,taxi,,,,,,,,,,,2,0,0,9,9,18,1,,,,,,,,,,,,,,,,,,,,,,,,,,,,,,,,,,,,,,,,,,,,,,,,,,,,,,,,,,,,,,,,,,,,,,
,,ROOF,3.809555,1,,,,,,stimuli/images/PICTURE_491.png,ROOF,5c5fe9d34fff5700017ecdb4,05/01/1955,2020-09-12_06h51.57.101,proactive3.2,2020.1.2,Win32,60,5f5adea66120081ea0f57a61,5f5c61dce06d35459fd3459d,3,,,,,,rug,,,,,,,,,,,3,0,0,10,10,24,1,,,,,,,,,,,,,,,,,,,,,,,,,,,,,,,,,,,,,,,,,,,,,,,,,,,,,,,,,,,,,,,,,,,,,,
,,?,0.00208,0,,,,,,stimuli/images/PICTURE_160.png,LEADER,5c5fe9d34fff5700017ecdb4,05/01/1955,2020-09-12_06h51.57.101,proactive3.2,2020.1.2,Win32,60,5f5adea66120081ea0f57a61,5f5c61dce06d35459fd3459d,3,,,,,,wheelbarrow,,,,,,,,,,,1,0,0,11,11,3,1,,,,,,,,,,,,,,,,,,,,,,,,,,,,,,,,,,,,,,,,,,,,,,,,,,,,,,,,,,,,,,,,,,,,,,
,,?,0.00182,0,,,,,,stimuli/images/PICTURE_380.png,PHOTO,5c5fe9d34fff5700017ecdb4,05/01/1955,2020-09-12_06h51.57.101,proactive3.2,2020.1.2,Win32,60,5f5adea66120081ea0f57a61,5f5c61dce06d35459fd3459d,3,,,,,,gorilla,,,,,,,,,,,6,0,0,12,12,52,1,,,,,,,,,,,,,,,,,,,,,,,,,,,,,,,,,,,,,,,,,,,,,,,,,,,,,,,,,,,,,,,,,,,,,,
,,?,0.00182,0,,,,,,stimuli/images/PICTURE_123.png,ADVICE,5c5fe9d34fff5700017ecdb4,05/01/1955,2020-09-12_06h51.57.101,proactive3.2,2020.1.2,Win32,60,5f5adea66120081ea0f57a61,5f5c61dce06d35459fd3459d,3,,,,,,dart,,,,,,,,,,,6,0,0,13,13,50,1,,,,,,,,,,,,,,,,,,,,,,,,,,,,,,,,,,,,,,,,,,,,,,,,,,,,,,,,,,,,,,,,,,,,,,
