consent_key.keys,consent_key.rt,recalled,recalled_rt,recall_acc,example_recall.thisRepN,example_recall.thisTrialN,example_recall.thisN,example_recall.thisIndex,example_recall.ran,file,word,participant,please enter your date of birth (dd/mm/yyyy),date,expName,psychopyVersion,OS,frameRate,STUDY_ID,SESSION_ID,list,prac_learn_study_loop.thisRepN,prac_learn_study_loop.thisTrialN,prac_learn_study_loop.thisN,prac_learn_study_loop.thisIndex,prac_learn_study_loop.ran,image,prac_learn_test_loop.thisRepN,prac_learn_test_loop.thisTrialN,prac_learn_test_loop.thisN,prac_learn_test_loop.thisIndex,prac_learn_test_loop.ran,learn_study_loop.thisRepN,learn_study_loop.thisTrialN,learn_study_loop.thisN,learn_study_loop.thisIndex,learn_study_loop.ran,list_no,block_no,learn_test_loop.thisRepN,learn_test_loop.thisTrialN,learn_test_loop.thisN,learn_test_loop.thisIndex,learn_test_loop.ran,learn_blocks.thisRepN,learn_blocks.thisTrialN,learn_blocks.thisN,learn_blocks.thisIndex,learn_blocks.ran,block_csv,key_resp_13.keys,key_resp_13.rt,learn_blocks_loop.thisRepN,learn_blocks_loop.thisTrialN,learn_blocks_loop.thisN,learn_blocks_loop.thisIndex,learn_blocks_loop.ran,final_learn_test.thisRepN,final_learn_test.thisTrialN,final_learn_test.thisN,final_learn_test.thisIndex,final_learn_test.ran,prac_wm_test_loop.thisRepN,prac_wm_test_loop.thisTrialN,prac_wm_test_loop.thisN,prac_wm_test_loop.thisIndex,prac_wm_test_loop.ran,wm_recalled1,wm_recall_rt1,wm_probed1,wm_recall_acc1,wm_recalled2,wm_recall_rt2,wm_probed2,wm_recall_acc2,wm_recalled3,wm_recall_rt3,wm_probed3,wm_recall_acc3,wm_recalled4,wm_recall_rt4,wm_probed4,wm_recall_acc4,prac_wm_trial_loop.thisRepN,prac_wm_trial_loop.thisTrialN,prac_wm_trial_loop.thisN,prac_wm_trial_loop.thisIndex,prac_wm_trial_loop.ran,word1,image1,file1,item_type1,word2,image2,file2,item_type2,word4,image4,file4,item_type4,word3,image3,file3,item_type3,wm_test_loop.thisRepN,wm_test_loop.thisTrialN,wm_test_loop.thisN,wm_test_loop.thisIndex,wm_test_loop.ran,wm_trial_loop.thisRepN,wm_trial_loop.thisTrialN,wm_trial_loop.thisN,wm_trial_loop.thisIndex,wm_trial_loop.ran
y,21.03864,TOUGH,4.465375,1,0,0,0,0,1,stimuli/images/PICTURE_747.png,TOUGH,5c7ba5be2ceba0001668b9b9,12/03/2000,2020-08-27_15h41.00.115,proactive3.2,2020.1.2,Win32,60,5f47c0b9b035471e11593a5c,5f47c5ad25bc3c0a5420e69a,6,,,,,,,,,,,,,,,,,,,,,,,,,,,,,,,,,,,,,,,,,,,,,,,,,,,,,,,,,,,,,,,,,,,,,,,,,,,,,,,,,,,,,,,,,,,,,
,,,,,,,,,,stimuli/images/PICTURE_658.png,DEVIL,5c7ba5be2ceba0001668b9b9,12/03/2000,2020-08-27_15h41.00.115,proactive3.2,2020.1.2,Win32,60,5f47c0b9b035471e11593a5c,5f47c5ad25bc3c0a5420e69a,6,0,0,0,3,1,crow,,,,,,,,,,,,,,,,,,,,,,,,,,,,,,,,,,,,,,,,,,,,,,,,,,,,,,,,,,,,,,,,,,,,,,,,,,,,,,,,,,,,,,,
,,,,,,,,,,stimuli/images/PICTURE_697.png,KILLER,5c7ba5be2ceba0001668b9b9,12/03/2000,2020-08-27_15h41.00.115,proactive3.2,2020.1.2,Win32,60,5f47c0b9b035471e11593a5c,5f47c5ad25bc3c0a5420e69a,6,0,1,1,4,1,peach,,,,,,,,,,,,,,,,,,,,,,,,,,,,,,,,,,,,,,,,,,,,,,,,,,,,,,,,,,,,,,,,,,,,,,,,,,,,,,,,,,,,,,,
,,,,,,,,,,stimuli/images/PICTURE_727.png,CELL,5c7ba5be2ceba0001668b9b9,12/03/2000,2020-08-27_15h41.00.115,proactive3.2,2020.1.2,Win32,60,5f47c0b9b035471e11593a5c,5f47c5ad25bc3c0a5420e69a,6,0,2,2,1,1,hose,,,,,,,,,,,,,,,,,,,,,,,,,,,,,,,,,,,,,,,,,,,,,,,,,,,,,,,,,,,,,,,,,,,,,,,,,,,,,,,,,,,,,,,
,,,,,,,,,,stimuli/images/PICTURE_378.png,LOSS,5c7ba5be2ceba0001668b9b9,12/03/2000,2020-08-27_15h41.00.115,proactive3.2,2020.1.2,Win32,60,5f47c0b9b035471e11593a5c,5f47c5ad25bc3c0a5420e69a,6,0,3,3,2,1,lobster,,,,,,,,,,,,,,,,,,,,,,,,,,,,,,,,,,,,,,,,,,,,,,,,,,,,,,,,,,,,,,,,,,,,,,,,,,,,,,,,,,,,,,,
,,DEVIL,3.254385,1,,,,,,stimuli/images/PICTURE_658.png,DEVIL,5c7ba5be2ceba0001668b9b9,12/03/2000,2020-08-27_15h41.00.115,proactive3.2,2020.1.2,Win32,60,5f47c0b9b035471e11593a5c,5f47c5ad25bc3c0a5420e69a,6,,,,,,crow,0,0,0,3,1,,,,,,,,,,,,,,,,,,,,,,,,,,,,,,,,,,,,,,,,,,,,,,,,,,,,,,,,,,,,,,,,,,,,,,,,,,,,,,,,,,
,,KILLER,4.758065,1,,,,,,stimuli/images/PICTURE_697.png,KILLER,5c7ba5be2ceba0001668b9b9,12/03/2000,2020-08-27_15h41.00.115,proactive3.2,2020.1.2,Win32,60,5f47c0b9b035471e11593a5c,5f47c5ad25bc3c0a5420e69a,6,,,,,,peach,0,1,1,4,1,,,,,,,,,,,,,,,,,,,,,,,,,,,,,,,,,,,,,,,,,,,,,,,,,,,,,,,,,,,,,,,,,,,,,,,,,,,,,,,,,,
,,LOSS,1.845715,1,,,,,,stimuli/images/PICTURE_378.png,LOSS,5c7ba5be2ceba0001668b9b9,12/03/2000,2020-08-27_15h41.00.115,proactive3.2,2020.1.2,Win32,60,5f47c0b9b035471e11593a5c,5f47c5ad25bc3c0a5420e69a,6,,,,,,lobster,0,2,2,2,1,,,,,,,,,,,,,,,,,,,,,,,,,,,,,,,,,,,,,,,,,,,,,,,,,,,,,,,,,,,,,,,,,,,,,,,,,,,,,,,,,,
,,GENIUS,1.91219,1,,,,,,stimuli/images/PICTURE_269.png,GENIUS,5c7ba5be2ceba0001668b9b9,12/03/2000,2020-08-27_15h41.00.115,proactive3.2,2020.1.2,Win32,60,5f47c0b9b035471e11593a5c,5f47c5ad25bc3c0a5420e69a,6,,,,,,chameleon,0,3,3,0,1,,,,,,,,,,,,,,,,,,,,,,,,,,,,,,,,,,,,,,,,,,,,,,,,,,,,,,,,,,,,,,,,,,,,,,,,,,,,,,,,,,
,,?,1.66252,0,,,,,,stimuli/images/PICTURE_727.png,CELL,5c7ba5be2ceba0001668b9b9,12/03/2000,2020-08-27_15h41.00.115,proactive3.2,2020.1.2,Win32,60,5f47c0b9b035471e11593a5c,5f47c5ad25bc3c0a5420e69a,6,,,,,,hose,0,4,4,1,1,,,,,,,,,,,,,,,,,,,,,,,,,,,,,,,,,,,,,,,,,,,,,,,,,,,,,,,,,,,,,,,,,,,,,,,,,,,,,,,,,,
,,,,,,,,,,stimuli/images/PICTURE_470.png,MOMENT,5c7ba5be2ceba0001668b9b9,12/03/2000,2020-08-27_15h41.00.115,proactive3.2,2020.1.2,Win32,60,5f47c0b9b035471e11593a5c,5f47c5ad25bc3c0a5420e69a,6,,,,,,motorbike,,,,,,0,0,0,40,1,5,2,,,,,,,,,,,,,,,,,,,,,,,,,,,,,,,,,,,,,,,,,,,,,,,,,,,,,,,,,,,,,,,,,,,,,,,,,,,
,,,,,,,,,,stimuli/images/PICTURE_18.png,RIVER,5c7ba5be2ceba0001668b9b9,12/03/2000,2020-08-27_15h41.00.115,proactive3.2,2020.1.2,Win32,60,5f47c0b9b035471e11593a5c,5f47c5ad25bc3c0a5420e69a,6,,,,,,planet,,,,,,0,1,1,22,1,3,2,,,,,,,,,,,,,,,,,,,,,,,,,,,,,,,,,,,,,,,,,,,,,,,,,,,,,,,,,,,,,,,,,,,,,,,,,,,
,,,,,,,,,,stimuli/images/PICTURE_405.png,HOUSE,5c7ba5be2ceba0001668b9b9,12/03/2000,2020-08-27_15h41.00.115,proactive3.2,2020.1.2,Win32,60,5f47c0b9b035471e11593a5c,5f47c5ad25bc3c0a5420e69a,6,,,,,,anchor,,,,,,0,2,2,2,1,1,2,,,,,,,,,,,,,,,,,,,,,,,,,,,,,,,,,,,,,,,,,,,,,,,,,,,,,,,,,,,,,,,,,,,,,,,,,,,
,,,,,,,,,,stimuli/images/PICTURE_348.png,DUDE,5c7ba5be2ceba0001668b9b9,12/03/2000,2020-08-27_15h41.00.115,proactive3.2,2020.1.2,Win32,60,5f47c0b9b035471e11593a5c,5f47c5ad25bc3c0a5420e69a,6,,,,,,pepper,,,,,,0,3,3,59,1,6,2,,,,,,,,,,,,,,,,,,,,,,,,,,,,,,,,,,,,,,,,,,,,,,,,,,,,,,,,,,,,,,,,,,,,,,,,,,,
,,,,,,,,,,stimuli/images/PICTURE_677.png,PHOTO,5c7ba5be2ceba0001668b9b9,12/03/2000,2020-08-27_15h41.00.115,proactive3.2,2020.1.2,Win32,60,5f47c0b9b035471e11593a5c,5f47c5ad25bc3c0a5420e69a,6,,,,,,map,,,,,,0,4,4,14,1,2,2,,,,,,,,,,,,,,,,,,,,,,,,,,,,,,,,,,,,,,,,,,,,,,,,,,,,,,,,,,,,,,,,,,,,,,,,,,,
,,,,,,,,,,stimuli/images/PICTURE_452.png,COPS,5c7ba5be2ceba0001668b9b9,12/03/2000,2020-08-27_15h41.00.115,proactive3.2,2020.1.2,Win32,60,5f47c0b9b035471e11593a5c,5f47c5ad25bc3c0a5420e69a,6,,,,,,watch,,,,,,0,5,5,0,1,1,2,,,,,,,,,,,,,,,,,,,,,,,,,,,,,,,,,,,,,,,,,,,,,,,,,,,,,,,,,,,,,,,,,,,,,,,,,,,
,,,,,,,,,,stimuli/images/PICTURE_487.png,POLICY,5c7ba5be2ceba0001668b9b9,12/03/2000,2020-08-27_15h41.00.115,proactive3.2,2020.1.2,Win32,60,5f47c0b9b035471e11593a5c,5f47c5ad25bc3c0a5420e69a,6,,,,,,basket,,,,,,0,6,6,34,1,4,2,,,,,,,,,,,,,,,,,,,,,,,,,,,,,,,,,,,,,,,,,,,,,,,,,,,,,,,,,,,,,,,,,,,,,,,,,,,
,,,,,,,,,,stimuli/images/PICTURE_2.png,AREA,5c7ba5be2ceba0001668b9b9,12/03/2000,2020-08-27_15h41.00.115,proactive3.2,2020.1.2,Win32,60,5f47c0b9b035471e11593a5c,5f47c5ad25bc3c0a5420e69a,6,,,,,,tyre,,,,,,0,7,7,32,1,4,2,,,,,,,,,,,,,,,,,,,,,,,,,,,,,,,,,,,,,,,,,,,,,,,,,,,,,,,,,,,,,,,,,,,,,,,,,,,
,,,,,,,,,,stimuli/images/PICTURE_2.png,JUNGLE,5c7ba5be2ceba0001668b9b9,12/03/2000,2020-08-27_15h41.00.115,proactive3.2,2020.1.2,Win32,60,5f47c0b9b035471e11593a5c,5f47c5ad25bc3c0a5420e69a,6,,,,,,tyre,,,,,,0,8,8,1,1,1,2,,,,,,,,,,,,,,,,,,,,,,,,,,,,,,,,,,,,,,,,,,,,,,,,,,,,,,,,,,,,,,,,,,,,,,,,,,,
,,,,,,,,,,stimuli/images/PICTURE_215.png,FOOD,5c7ba5be2ceba0001668b9b9,12/03/2000,2020-08-27_15h41.00.115,proactive3.2,2020.1.2,Win32,60,5f47c0b9b035471e11593a5c,5f47c5ad25bc3c0a5420e69a,6,,,,,,boot,,,,,,0,9,9,5,1,1,2,,,,,,,,,,,,,,,,,,,,,,,,,,,,,,,,,,,,,,,,,,,,,,,,,,,,,,,,,,,,,,,,,,,,,,,,,,,
,,,,,,,,,,stimuli/images/PICTURE_403.png,FAMILY,5c7ba5be2ceba0001668b9b9,12/03/2000,2020-08-27_15h41.00.115,proactive3.2,2020.1.2,Win32,60,5f47c0b9b035471e11593a5c,5f47c5ad25bc3c0a5420e69a,6,,,,,,cathedral,,,,,,0,10,10,9,1,1,2,,,,,,,,,,,,,,,,,,,,,,,,,,,,,,,,,,,,,,,,,,,,,,,,,,,,,,,,,,,,,,,,,,,,,,,,,,,
,,,,,,,,,,stimuli/images/PICTURE_348.png,TOILET,5c7ba5be2ceba0001668b9b9,12/03/2000,2020-08-27_15h41.00.115,proactive3.2,2020.1.2,Win32,60,5f47c0b9b035471e11593a5c,5f47c5ad25bc3c0a5420e69a,6,,,,,,pepper,,,,,,0,11,11,4,1,1,2,,,,,,,,,,,,,,,,,,,,,,,,,,,,,,,,,,,,,,,,,,,,,,,,,,,,,,,,,,,,,,,,,,,,,,,,,,,
,,,,,,,,,,stimuli/images/PICTURE_654.png,YEAR,5c7ba5be2ceba0001668b9b9,12/03/2000,2020-08-27_15h41.00.115,proactive3.2,2020.1.2,Win32,60,5f47c0b9b035471e11593a5c,5f47c5ad25bc3c0a5420e69a,6,,,,,,pencil,,,,,,0,12,12,41,1,5,2,,,,,,,,,,,,,,,,,,,,,,,,,,,,,,,,,,,,,,,,,,,,,,,,,,,,,,,,,,,,,,,,,,,,,,,,,,,
,,,,,,,,,,stimuli/images/PICTURE_32.png,LETTER,5c7ba5be2ceba0001668b9b9,12/03/2000,2020-08-27_15h41.00.115,proactive3.2,2020.1.2,Win32,60,5f47c0b9b035471e11593a5c,5f47c5ad25bc3c0a5420e69a,6,,,,,,crown,,,,,,0,13,13,56,1,6,2,,,,,,,,,,,,,,,,,,,,,,,,,,,,,,,,,,,,,,,,,,,,,,,,,,,,,,,,,,,,,,,,,,,,,,,,,,,
,,,,,,,,,,stimuli/images/PICTURE_255.png,PENNY,5c7ba5be2ceba0001668b9b9,12/03/2000,2020-08-27_15h41.00.115,proactive3.2,2020.1.2,Win32,60,5f47c0b9b035471e11593a5c,5f47c5ad25bc3c0a5420e69a,6,,,,,,shovel,,,,,,0,14,14,19,1,2,2,,,,,,,,,,,,,,,,,,,,,,,,,,,,,,,,,,,,,,,,,,,,,,,,,,,,,,,,,,,,,,,,,,,,,,,,,,,
,,,,,,,,,,stimuli/images/PICTURE_123.png,SALE,5c7ba5be2ceba0001668b9b9,12/03/2000,2020-08-27_15h41.00.115,proactive3.2,2020.1.2,Win32,60,5f47c0b9b035471e11593a5c,5f47c5ad25bc3c0a5420e69a,6,,,,,,dart,,,,,,0,15,15,8,1,1,2,,,,,,,,,,,,,,,,,,,,,,,,,,,,,,,,,,,,,,,,,,,,,,,,,,,,,,,,,,,,,,,,,,,,,,,,,,,
,,,,,,,,,,stimuli/images/PICTURE_93.png,GIRL,5c7ba5be2ceba0001668b9b9,12/03/2000,2020-08-27_15h41.00.115,proactive3.2,2020.1.2,Win32,60,5f47c0b9b035471e11593a5c,5f47c5ad25bc3c0a5420e69a,6,,,,,,skateboard,,,,,,0,16,16,31,1,4,2,,,,,,,,,,,,,,,,,,,,,,,,,,,,,,,,,,,,,,,,,,,,,,,,,,,,,,,,,,,,,,,,,,,,,,,,,,,
,,,,,,,,,,stimuli/images/PICTURE_285.png,WRITER,5c7ba5be2ceba0001668b9b9,12/03/2000,2020-08-27_15h41.00.115,proactive3.2,2020.1.2,Win32,60,5f47c0b9b035471e11593a5c,5f47c5ad25bc3c0a5420e69a,6,,,,,,carrot,,,,,,0,17,17,6,1,1,2,,,,,,,,,,,,,,,,,,,,,,,,,,,,,,,,,,,,,,,,,,,,,,,,,,,,,,,,,,,,,,,,,,,,,,,,,,,
,,,,,,,,,,stimuli/images/PICTURE_57.png,NATION,5c7ba5be2ceba0001668b9b9,12/03/2000,2020-08-27_15h41.00.115,proactive3.2,2020.1.2,Win32,60,5f47c0b9b035471e11593a5c,5f47c5ad25bc3c0a5420e69a,6,,,,,,stamp,,,,,,0,18,18,21,1,3,2,,,,,,,,,,,,,,,,,,,,,,,,,,,,,,,,,,,,,,,,,,,,,,,,,,,,,,,,,,,,,,,,,,,,,,,,,,,
,,,,,,,,,,stimuli/images/PICTURE_654.png,COPS,5c7ba5be2ceba0001668b9b9,12/03/2000,2020-08-27_15h41.00.115,proactive3.2,2020.1.2,Win32,60,5f47c0b9b035471e11593a5c,5f47c5ad25bc3c0a5420e69a,6,,,,,,pencil,,,,,,0,19,19,10,1,2,2,,,,,,,,,,,,,,,,,,,,,,,,,,,,,,,,,,,,,,,,,,,,,,,,,,,,,,,,,,,,,,,,,,,,,,,,,,,
,,,,,,,,,,stimuli/images/PICTURE_655.png,SALE,5c7ba5be2ceba0001668b9b9,12/03/2000,2020-08-27_15h41.00.115,proactive3.2,2020.1.2,Win32,60,5f47c0b9b035471e11593a5c,5f47c5ad25bc3c0a5420e69a,6,,,,,,megaphone,,,,,,0,20,20,57,1,6,2,,,,,,,,,,,,,,,,,,,,,,,,,,,,,,,,,,,,,,,,,,,,,,,,,,,,,,,,,,,,,,,,,,,,,,,,,,,
,,,,,,,,,,stimuli/images/PICTURE_208.png,SPIRIT,5c7ba5be2ceba0001668b9b9,12/03/2000,2020-08-27_15h41.00.115,proactive3.2,2020.1.2,Win32,60,5f47c0b9b035471e11593a5c,5f47c5ad25bc3c0a5420e69a,6,,,,,,microphone,,,,,,0,21,21,28,1,3,2,,,,,,,,,,,,,,,,,,,,,,,,,,,,,,,,,,,,,,,,,,,,,,,,,,,,,,,,,,,,,,,,,,,,,,,,,,,
,,,,,,,,,,stimuli/images/PICTURE_311.png,TOILET,5c7ba5be2ceba0001668b9b9,12/03/2000,2020-08-27_15h41.00.115,proactive3.2,2020.1.2,Win32,60,5f47c0b9b035471e11593a5c,5f47c5ad25bc3c0a5420e69a,6,,,,,,razor,,,,,,0,22,22,54,1,6,2,,,,,,,,,,,,,,,,,,,,,,,,,,,,,,,,,,,,,,,,,,,,,,,,,,,,,,,,,,,,,,,,,,,,,,,,,,,
,,,,,,,,,,stimuli/images/PICTURE_405.png,JUNGLE,5c7ba5be2ceba0001668b9b9,12/03/2000,2020-08-27_15h41.00.115,proactive3.2,2020.1.2,Win32,60,5f47c0b9b035471e11593a5c,5f47c5ad25bc3c0a5420e69a,6,,,,,,anchor,,,,,,0,23,23,13,1,2,2,,,,,,,,,,,,,,,,,,,,,,,,,,,,,,,,,,,,,,,,,,,,,,,,,,,,,,,,,,,,,,,,,,,,,,,,,,,
,,,,,,,,,,stimuli/images/PICTURE_692.png,DUDE,5c7ba5be2ceba0001668b9b9,12/03/2000,2020-08-27_15h41.00.115,proactive3.2,2020.1.2,Win32,60,5f47c0b9b035471e11593a5c,5f47c5ad25bc3c0a5420e69a,6,,,,,,cherry,,,,,,0,24,24,47,1,5,2,,,,,,,,,,,,,,,,,,,,,,,,,,,,,,,,,,,,,,,,,,,,,,,,,,,,,,,,,,,,,,,,,,,,,,,,,,,
,,,,,,,,,,stimuli/images/PICTURE_68.png,KIND,5c7ba5be2ceba0001668b9b9,12/03/2000,2020-08-27_15h41.00.115,proactive3.2,2020.1.2,Win32,60,5f47c0b9b035471e11593a5c,5f47c5ad25bc3c0a5420e69a,6,,,,,,candle,,,,,,0,25,25,23,1,3,2,,,,,,,,,,,,,,,,,,,,,,,,,,,,,,,,,,,,,,,,,,,,,,,,,,,,,,,,,,,,,,,,,,,,,,,,,,,
,,,,,,,,,,stimuli/images/PICTURE_453.png,FAMILY,5c7ba5be2ceba0001668b9b9,12/03/2000,2020-08-27_15h41.00.115,proactive3.2,2020.1.2,Win32,60,5f47c0b9b035471e11593a5c,5f47c5ad25bc3c0a5420e69a,6,,,,,,scissors,,,,,,0,26,26,48,1,5,2,,,,,,,,,,,,,,,,,,,,,,,,,,,,,,,,,,,,,,,,,,,,,,,,,,,,,,,,,,,,,,,,,,,,,,,,,,,
,,,,,,,,,,stimuli/images/PICTURE_296.png,CLOCK,5c7ba5be2ceba0001668b9b9,12/03/2000,2020-08-27_15h41.00.115,proactive3.2,2020.1.2,Win32,60,5f47c0b9b035471e11593a5c,5f47c5ad25bc3c0a5420e69a,6,,,,,,bolt,,,,,,0,27,27,18,1,2,2,,,,,,,,,,,,,,,,,,,,,,,,,,,,,,,,,,,,,,,,,,,,,,,,,,,,,,,,,,,,,,,,,,,,,,,,,,,
,,,,,,,,,,stimuli/images/PICTURE_487.png,ROOF,5c7ba5be2ceba0001668b9b9,12/03/2000,2020-08-27_15h41.00.115,proactive3.2,2020.1.2,Win32,60,5f47c0b9b035471e11593a5c,5f47c5ad25bc3c0a5420e69a,6,,,,,,basket,,,,,,0,28,28,50,1,6,2,,,,,,,,,,,,,,,,,,,,,,,,,,,,,,,,,,,,,,,,,,,,,,,,,,,,,,,,,,,,,,,,,,,,,,,,,,,
,,,,,,,,,,stimuli/images/PICTURE_509.png,BATH,5c7ba5be2ceba0001668b9b9,12/03/2000,2020-08-27_15h41.00.115,proactive3.2,2020.1.2,Win32,60,5f47c0b9b035471e11593a5c,5f47c5ad25bc3c0a5420e69a,6,,,,,,telephone,,,,,,0,29,29,15,1,2,2,,,,,,,,,,,,,,,,,,,,,,,,,,,,,,,,,,,,,,,,,,,,,,,,,,,,,,,,,,,,,,,,,,,,,,,,,,,
,,,,,,,,,,stimuli/images/PICTURE_509.png,APPLE,5c7ba5be2ceba0001668b9b9,12/03/2000,2020-08-27_15h41.00.115,proactive3.2,2020.1.2,Win32,60,5f47c0b9b035471e11593a5c,5f47c5ad25bc3c0a5420e69a,6,,,,,,telephone,,,,,,0,30,30,38,1,4,2,,,,,,,,,,,,,,,,,,,,,,,,,,,,,,,,,,,,,,,,,,,,,,,,,,,,,,,,,,,,,,,,,,,,,,,,,,,
,,,,,,,,,,stimuli/images/PICTURE_215.png,LEADER,5c7ba5be2ceba0001668b9b9,12/03/2000,2020-08-27_15h41.00.115,proactive3.2,2020.1.2,Win32,60,5f47c0b9b035471e11593a5c,5f47c5ad25bc3c0a5420e69a,6,,,,,,boot,,,,,,0,31,31,43,1,5,2,,,,,,,,,,,,,,,,,,,,,,,,,,,,,,,,,,,,,,,,,,,,,,,,,,,,,,,,,,,,,,,,,,,,,,,,,,,
,,,,,,,,,,stimuli/images/PICTURE_147.png,LEADER,5c7ba5be2ceba0001668b9b9,12/03/2000,2020-08-27_15h41.00.115,proactive3.2,2020.1.2,Win32,60,5f47c0b9b035471e11593a5c,5f47c5ad25bc3c0a5420e69a,6,,,,,,hanger,,,,,,0,32,32,33,1,4,2,,,,,,,,,,,,,,,,,,,,,,,,,,,,,,,,,,,,,,,,,,,,,,,,,,,,,,,,,,,,,,,,,,,,,,,,,,,
,,,,,,,,,,stimuli/images/PICTURE_57.png,CASINO,5c7ba5be2ceba0001668b9b9,12/03/2000,2020-08-27_15h41.00.115,proactive3.2,2020.1.2,Win32,60,5f47c0b9b035471e11593a5c,5f47c5ad25bc3c0a5420e69a,6,,,,,,stamp,,,,,,0,33,33,12,1,2,2,,,,,,,,,,,,,,,,,,,,,,,,,,,,,,,,,,,,,,,,,,,,,,,,,,,,,,,,,,,,,,,,,,,,,,,,,,,
,,,,,,,,,,stimuli/images/PICTURE_708.png,VALLEY,5c7ba5be2ceba0001668b9b9,12/03/2000,2020-08-27_15h41.00.115,proactive3.2,2020.1.2,Win32,60,5f47c0b9b035471e11593a5c,5f47c5ad25bc3c0a5420e69a,6,,,,,,monkey,,,,,,0,34,34,45,1,5,2,,,,,,,,,,,,,,,,,,,,,,,,,,,,,,,,,,,,,,,,,,,,,,,,,,,,,,,,,,,,,,,,,,,,,,,,,,,
,,,,,,,,,,stimuli/images/PICTURE_314.png,SPEECH,5c7ba5be2ceba0001668b9b9,12/03/2000,2020-08-27_15h41.00.115,proactive3.2,2020.1.2,Win32,60,5f47c0b9b035471e11593a5c,5f47c5ad25bc3c0a5420e69a,6,,,,,,perfume,,,,,,0,35,35,35,1,4,2,,,,,,,,,,,,,,,,,,,,,,,,,,,,,,,,,,,,,,,,,,,,,,,,,,,,,,,,,,,,,,,,,,,,,,,,,,,
,,,,,,,,,,stimuli/images/PICTURE_688.png,CLOCK,5c7ba5be2ceba0001668b9b9,12/03/2000,2020-08-27_15h41.00.115,proactive3.2,2020.1.2,Win32,60,5f47c0b9b035471e11593a5c,5f47c5ad25bc3c0a5420e69a,6,,,,,,runner,,,,,,0,36,36,42,1,5,2,,,,,,,,,,,,,,,,,,,,,,,,,,,,,,,,,,,,,,,,,,,,,,,,,,,,,,,,,,,,,,,,,,,,,,,,,,,
,,,,,,,,,,stimuli/images/PICTURE_33.png,COPS,5c7ba5be2ceba0001668b9b9,12/03/2000,2020-08-27_15h41.00.115,proactive3.2,2020.1.2,Win32,60,5f47c0b9b035471e11593a5c,5f47c5ad25bc3c0a5420e69a,6,,,,,,frame,,,,,,0,37,37,29,1,3,2,,,,,,,,,,,,,,,,,,,,,,,,,,,,,,,,,,,,,,,,,,,,,,,,,,,,,,,,,,,,,,,,,,,,,,,,,,,
,,,,,,,,,,stimuli/images/PICTURE_285.png,PRINCE,5c7ba5be2ceba0001668b9b9,12/03/2000,2020-08-27_15h41.00.115,proactive3.2,2020.1.2,Win32,60,5f47c0b9b035471e11593a5c,5f47c5ad25bc3c0a5420e69a,6,,,,,,carrot,,,,,,0,38,38,20,1,3,2,,,,,,,,,,,,,,,,,,,,,,,,,,,,,,,,,,,,,,,,,,,,,,,,,,,,,,,,,,,,,,,,,,,,,,,,,,,
,,,,,,,,,,stimuli/images/PICTURE_564.png,PLENTY,5c7ba5be2ceba0001668b9b9,12/03/2000,2020-08-27_15h41.00.115,proactive3.2,2020.1.2,Win32,60,5f47c0b9b035471e11593a5c,5f47c5ad25bc3c0a5420e69a,6,,,,,,spoon,,,,,,0,39,39,11,1,2,2,,,,,,,,,,,,,,,,,,,,,,,,,,,,,,,,,,,,,,,,,,,,,,,,,,,,,,,,,,,,,,,,,,,,,,,,,,,
,,,,,,,,,,stimuli/images/PICTURE_215.png,BOYS,5c7ba5be2ceba0001668b9b9,12/03/2000,2020-08-27_15h41.00.115,proactive3.2,2020.1.2,Win32,60,5f47c0b9b035471e11593a5c,5f47c5ad25bc3c0a5420e69a,6,,,,,,boot,,,,,,0,40,40,24,1,3,2,,,,,,,,,,,,,,,,,,,,,,,,,,,,,,,,,,,,,,,,,,,,,,,,,,,,,,,,,,,,,,,,,,,,,,,,,,,
,,,,,,,,,,stimuli/images/PICTURE_160.png,HOTEL,5c7ba5be2ceba0001668b9b9,12/03/2000,2020-08-27_15h41.00.115,proactive3.2,2020.1.2,Win32,60,5f47c0b9b035471e11593a5c,5f47c5ad25bc3c0a5420e69a,6,,,,,,wheelbarrow,,,,,,0,41,41,16,1,2,2,,,,,,,,,,,,,,,,,,,,,,,,,,,,,,,,,,,,,,,,,,,,,,,,,,,,,,,,,,,,,,,,,,,,,,,,,,,
,,,,,,,,,,stimuli/images/PICTURE_667.png,GLASS,5c7ba5be2ceba0001668b9b9,12/03/2000,2020-08-27_15h41.00.115,proactive3.2,2020.1.2,Win32,60,5f47c0b9b035471e11593a5c,5f47c5ad25bc3c0a5420e69a,6,,,,,,daisy,,,,,,0,42,42,27,1,3,2,,,,,,,,,,,,,,,,,,,,,,,,,,,,,,,,,,,,,,,,,,,,,,,,,,,,,,,,,,,,,,,,,,,,,,,,,,,
,,,,,,,,,,stimuli/images/PICTURE_356.png,CANDY,5c7ba5be2ceba0001668b9b9,12/03/2000,2020-08-27_15h41.00.115,proactive3.2,2020.1.2,Win32,60,5f47c0b9b035471e11593a5c,5f47c5ad25bc3c0a5420e69a,6,,,,,,pawn,,,,,,0,43,43,46,1,5,2,,,,,,,,,,,,,,,,,,,,,,,,,,,,,,,,,,,,,,,,,,,,,,,,,,,,,,,,,,,,,,,,,,,,,,,,,,,
,,,,,,,,,,stimuli/images/PICTURE_470.png,BEAUTY,5c7ba5be2ceba0001668b9b9,12/03/2000,2020-08-27_15h41.00.115,proactive3.2,2020.1.2,Win32,60,5f47c0b9b035471e11593a5c,5f47c5ad25bc3c0a5420e69a,6,,,,,,motorbike,,,,,,0,44,44,26,1,3,2,,,,,,,,,,,,,,,,,,,,,,,,,,,,,,,,,,,,,,,,,,,,,,,,,,,,,,,,,,,,,,,,,,,,,,,,,,,
,,,,,,,,,,stimuli/images/PICTURE_2.png,YARD,5c7ba5be2ceba0001668b9b9,12/03/2000,2020-08-27_15h41.00.115,proactive3.2,2020.1.2,Win32,60,5f47c0b9b035471e11593a5c,5f47c5ad25bc3c0a5420e69a,6,,,,,,tyre,,,,,,0,45,45,55,1,6,2,,,,,,,,,,,,,,,,,,,,,,,,,,,,,,,,,,,,,,,,,,,,,,,,,,,,,,,,,,,,,,,,,,,,,,,,,,,
,,,,,,,,,,stimuli/images/PICTURE_177.png,HOUSE,5c7ba5be2ceba0001668b9b9,12/03/2000,2020-08-27_15h41.00.115,proactive3.2,2020.1.2,Win32,60,5f47c0b9b035471e11593a5c,5f47c5ad25bc3c0a5420e69a,6,,,,,,mushroom,,,,,,0,46,46,25,1,3,2,,,,,,,,,,,,,,,,,,,,,,,,,,,,,,,,,,,,,,,,,,,,,,,,,,,,,,,,,,,,,,,,,,,,,,,,,,,
,,,,,,,,,,stimuli/images/PICTURE_57.png,CANDY,5c7ba5be2ceba0001668b9b9,12/03/2000,2020-08-27_15h41.00.115,proactive3.2,2020.1.2,Win32,60,5f47c0b9b035471e11593a5c,5f47c5ad25bc3c0a5420e69a,6,,,,,,stamp,,,,,,0,47,47,52,1,6,2,,,,,,,,,,,,,,,,,,,,,,,,,,,,,,,,,,,,,,,,,,,,,,,,,,,,,,,,,,,,,,,,,,,,,,,,,,,
,,,,,,,,,,stimuli/images/PICTURE_141.png,CLIENT,5c7ba5be2ceba0001668b9b9,12/03/2000,2020-08-27_15h41.00.115,proactive3.2,2020.1.2,Win32,60,5f47c0b9b035471e11593a5c,5f47c5ad25bc3c0a5420e69a,6,,,,,,sunflower,,,,,,0,48,48,30,1,4,2,,,,,,,,,,,,,,,,,,,,,,,,,,,,,,,,,,,,,,,,,,,,,,,,,,,,,,,,,,,,,,,,,,,,,,,,,,,
,,,,,,,,,,stimuli/images/PICTURE_504.png,HOUSE,5c7ba5be2ceba0001668b9b9,12/03/2000,2020-08-27_15h41.00.115,proactive3.2,2020.1.2,Win32,60,5f47c0b9b035471e11593a5c,5f47c5ad25bc3c0a5420e69a,6,,,,,,wheel,,,,,,0,49,49,36,1,4,2,,,,,,,,,,,,,,,,,,,,,,,,,,,,,,,,,,,,,,,,,,,,,,,,,,,,,,,,,,,,,,,,,,,,,,,,,,,
,,,,,,,,,,stimuli/images/PICTURE_95.png,NIGHT,5c7ba5be2ceba0001668b9b9,12/03/2000,2020-08-27_15h41.00.115,proactive3.2,2020.1.2,Win32,60,5f47c0b9b035471e11593a5c,5f47c5ad25bc3c0a5420e69a,6,,,,,,suitcase,,,,,,0,50,50,37,1,4,2,,,,,,,,,,,,,,,,,,,,,,,,,,,,,,,,,,,,,,,,,,,,,,,,,,,,,,,,,,,,,,,,,,,,,,,,,,,
,,,,,,,,,,stimuli/images/PICTURE_311.png,FLESH,5c7ba5be2ceba0001668b9b9,12/03/2000,2020-08-27_15h41.00.115,proactive3.2,2020.1.2,Win32,60,5f47c0b9b035471e11593a5c,5f47c5ad25bc3c0a5420e69a,6,,,,,,razor,,,,,,0,51,51,3,1,1,2,,,,,,,,,,,,,,,,,,,,,,,,,,,,,,,,,,,,,,,,,,,,,,,,,,,,,,,,,,,,,,,,,,,,,,,,,,,
,,,,,,,,,,stimuli/images/PICTURE_750.png,POLICY,5c7ba5be2ceba0001668b9b9,12/03/2000,2020-08-27_15h41.00.115,proactive3.2,2020.1.2,Win32,60,5f47c0b9b035471e11593a5c,5f47c5ad25bc3c0a5420e69a,6,,,,,,kettle,,,,,,0,52,52,44,1,5,2,,,,,,,,,,,,,,,,,,,,,,,,,,,,,,,,,,,,,,,,,,,,,,,,,,,,,,,,,,,,,,,,,,,,,,,,,,,
,,,,,,,,,,stimuli/images/PICTURE_405.png,JUNGLE,5c7ba5be2ceba0001668b9b9,12/03/2000,2020-08-27_15h41.00.115,proactive3.2,2020.1.2,Win32,60,5f47c0b9b035471e11593a5c,5f47c5ad25bc3c0a5420e69a,6,,,,,,anchor,,,,,,0,53,53,58,1,6,2,,,,,,,,,,,,,,,,,,,,,,,,,,,,,,,,,,,,,,,,,,,,,,,,,,,,,,,,,,,,,,,,,,,,,,,,,,,
,,,,,,,,,,stimuli/images/PICTURE_297.png,BODY,5c7ba5be2ceba0001668b9b9,12/03/2000,2020-08-27_15h41.00.115,proactive3.2,2020.1.2,Win32,60,5f47c0b9b035471e11593a5c,5f47c5ad25bc3c0a5420e69a,6,,,,,,aeroplane,,,,,,0,54,54,51,1,6,2,,,,,,,,,,,,,,,,,,,,,,,,,,,,,,,,,,,,,,,,,,,,,,,,,,,,,,,,,,,,,,,,,,,,,,,,,,,
,,,,,,,,,,stimuli/images/PICTURE_509.png,SHOTS,5c7ba5be2ceba0001668b9b9,12/03/2000,2020-08-27_15h41.00.115,proactive3.2,2020.1.2,Win32,60,5f47c0b9b035471e11593a5c,5f47c5ad25bc3c0a5420e69a,6,,,,,,telephone,,,,,,0,55,55,7,1,1,2,,,,,,,,,,,,,,,,,,,,,,,,,,,,,,,,,,,,,,,,,,,,,,,,,,,,,,,,,,,,,,,,,,,,,,,,,,,
,,,,,,,,,,stimuli/images/PICTURE_491.png,SERIES,5c7ba5be2ceba0001668b9b9,12/03/2000,2020-08-27_15h41.00.115,proactive3.2,2020.1.2,Win32,60,5f47c0b9b035471e11593a5c,5f47c5ad25bc3c0a5420e69a,6,,,,,,rug,,,,,,0,56,56,39,1,4,2,,,,,,,,,,,,,,,,,,,,,,,,,,,,,,,,,,,,,,,,,,,,,,,,,,,,,,,,,,,,,,,,,,,,,,,,,,,
,,,,,,,,,,stimuli/images/PICTURE_509.png,MILLER,5c7ba5be2ceba0001668b9b9,12/03/2000,2020-08-27_15h41.00.115,proactive3.2,2020.1.2,Win32,60,5f47c0b9b035471e11593a5c,5f47c5ad25bc3c0a5420e69a,6,,,,,,telephone,,,,,,0,57,57,49,1,5,2,,,,,,,,,,,,,,,,,,,,,,,,,,,,,,,,,,,,,,,,,,,,,,,,,,,,,,,,,,,,,,,,,,,,,,,,,,,
,,,,,,,,,,stimuli/images/PICTURE_677.png,FAMILY,5c7ba5be2ceba0001668b9b9,12/03/2000,2020-08-27_15h41.00.115,proactive3.2,2020.1.2,Win32,60,5f47c0b9b035471e11593a5c,5f47c5ad25bc3c0a5420e69a,6,,,,,,map,,,,,,0,58,58,53,1,6,2,,,,,,,,,,,,,,,,,,,,,,,,,,,,,,,,,,,,,,,,,,,,,,,,,,,,,,,,,,,,,,,,,,,,,,,,,,,
,,?,0.001895,0,,,,,,stimuli/images/PICTURE_215.png,BOYS,5c7ba5be2ceba0001668b9b9,12/03/2000,2020-08-27_15h41.00.115,proactive3.2,2020.1.2,Win32,60,5f47c0b9b035471e11593a5c,5f47c5ad25bc3c0a5420e69a,6,,,,,,boot,,,,,,,,,,,3,2,0,0,0,24,1,,,,,,,,,,,,,,,,,,,,,,,,,,,,,,,,,,,,,,,,,,,,,,,,,,,,,,,,,,,,,,,,,,,,,,
,,?,0.001795,0,,,,,,stimuli/images/PICTURE_208.png,SPIRIT,5c7ba5be2ceba0001668b9b9,12/03/2000,2020-08-27_15h41.00.115,proactive3.2,2020.1.2,Win32,60,5f47c0b9b035471e11593a5c,5f47c5ad25bc3c0a5420e69a,6,,,,,,microphone,,,,,,,,,,,3,2,0,1,1,28,1,,,,,,,,,,,,,,,,,,,,,,,,,,,,,,,,,,,,,,,,,,,,,,,,,,,,,,,,,,,,,,,,,,,,,,
,,?,0.00158,0,,,,,,stimuli/images/PICTURE_314.png,SPEECH,5c7ba5be2ceba0001668b9b9,12/03/2000,2020-08-27_15h41.00.115,proactive3.2,2020.1.2,Win32,60,5f47c0b9b035471e11593a5c,5f47c5ad25bc3c0a5420e69a,6,,,,,,perfume,,,,,,,,,,,4,2,0,2,2,35,1,,,,,,,,,,,,,,,,,,,,,,,,,,,,,,,,,,,,,,,,,,,,,,,,,,,,,,,,,,,,,,,,,,,,,,
,,FAMILY,2.919575,0,,,,,,stimuli/images/PICTURE_405.png,JUNGLE,5c7ba5be2ceba0001668b9b9,12/03/2000,2020-08-27_15h41.00.115,proactive3.2,2020.1.2,Win32,60,5f47c0b9b035471e11593a5c,5f47c5ad25bc3c0a5420e69a,6,,,,,,anchor,,,,,,,,,,,6,2,0,3,3,58,1,,,,,,,,,,,,,,,,,,,,,,,,,,,,,,,,,,,,,,,,,,,,,,,,,,,,,,,,,,,,,,,,,,,,,,
,,GUY,6.3545,0,,,,,,stimuli/images/PICTURE_348.png,DUDE,5c7ba5be2ceba0001668b9b9,12/03/2000,2020-08-27_15h41.00.115,proactive3.2,2020.1.2,Win32,60,5f47c0b9b035471e11593a5c,5f47c5ad25bc3c0a5420e69a,6,,,,,,pepper,,,,,,,,,,,6,2,0,4,4,59,1,,,,,,,,,,,,,,,,,,,,,,,,,,,,,,,,,,,,,,,,,,,,,,,,,,,,,,,,,,,,,,,,,,,,,,
,,?,0.002345,0,,,,,,stimuli/images/PICTURE_68.png,KIND,5c7ba5be2ceba0001668b9b9,12/03/2000,2020-08-27_15h41.00.115,proactive3.2,2020.1.2,Win32,60,5f47c0b9b035471e11593a5c,5f47c5ad25bc3c0a5420e69a,6,,,,,,candle,,,,,,,,,,,3,2,0,5,5,23,1,,,,,,,,,,,,,,,,,,,,,,,,,,,,,,,,,,,,,,,,,,,,,,,,,,,,,,,,,,,,,,,,,,,,,,
,,?,0.002025,0,,,,,,stimuli/images/PICTURE_487.png,POLICY,5c7ba5be2ceba0001668b9b9,12/03/2000,2020-08-27_15h41.00.115,proactive3.2,2020.1.2,Win32,60,5f47c0b9b035471e11593a5c,5f47c5ad25bc3c0a5420e69a,6,,,,,,basket,,,,,,,,,,,4,2,0,6,6,34,1,,,,,,,,,,,,,,,,,,,,,,,,,,,,,,,,,,,,,,,,,,,,,,,,,,,,,,,,,,,,,,,,,,,,,,
,,?,0.001715,0,,,,,,stimuli/images/PICTURE_215.png,FOOD,5c7ba5be2ceba0001668b9b9,12/03/2000,2020-08-27_15h41.00.115,proactive3.2,2020.1.2,Win32,60,5f47c0b9b035471e11593a5c,5f47c5ad25bc3c0a5420e69a,6,,,,,,boot,,,,,,,,,,,1,2,0,7,7,5,1,,,,,,,,,,,,,,,,,,,,,,,,,,,,,,,,,,,,,,,,,,,,,,,,,,,,,,,,,,,,,,,,,,,,,,
,,?,0.00174,0,,,,,,stimuli/images/PICTURE_57.png,NATION,5c7ba5be2ceba0001668b9b9,12/03/2000,2020-08-27_15h41.00.115,proactive3.2,2020.1.2,Win32,60,5f47c0b9b035471e11593a5c,5f47c5ad25bc3c0a5420e69a,6,,,,,,stamp,,,,,,,,,,,3,2,0,8,8,21,1,,,,,,,,,,,,,,,,,,,,,,,,,,,,,,,,,,,,,,,,,,,,,,,,,,,,,,,,,,,,,,,,,,,,,,
,,SALE,4.15455,1,,,,,,stimuli/images/PICTURE_655.png,SALE,5c7ba5be2ceba0001668b9b9,12/03/2000,2020-08-27_15h41.00.115,proactive3.2,2020.1.2,Win32,60,5f47c0b9b035471e11593a5c,5f47c5ad25bc3c0a5420e69a,6,,,,,,megaphone,,,,,,,,,,,6,2,0,9,9,57,1,,,,,,,,,,,,,,,,,,,,,,,,,,,,,,,,,,,,,,,,,,,,,,,,,,,,,,,,,,,,,,,,,,,,,,
,,?,0.001875,0,,,,,,stimuli/images/PICTURE_654.png,COPS,5c7ba5be2ceba0001668b9b9,12/03/2000,2020-08-27_15h41.00.115,proactive3.2,2020.1.2,Win32,60,5f47c0b9b035471e11593a5c,5f47c5ad25bc3c0a5420e69a,6,,,,,,pencil,,,,,,,,,,,2,2,0,10,10,10,1,,,,,,,,,,,,,,,,,,,,,,,,,,,,,,,,,,,,,,,,,,,,,,,,,,,,,,,,,,,,,,,,,,,,,,
,,?,0.00149,0,,,,,,stimuli/images/PICTURE_405.png,HOUSE,5c7ba5be2ceba0001668b9b9,12/03/2000,2020-08-27_15h41.00.115,proactive3.2,2020.1.2,Win32,60,5f47c0b9b035471e11593a5c,5f47c5ad25bc3c0a5420e69a,6,,,,,,anchor,,,,,,,,,,,1,2,0,11,11,2,1,,,,,,,,,,,,,,,,,,,,,,,,,,,,,,,,,,,,,,,,,,,,,,,,,,,,,,,,,,,,,,,,,,,,,,
,,?,0.001465,0,,,,,,stimuli/images/PICTURE_177.png,HOUSE,5c7ba5be2ceba0001668b9b9,12/03/2000,2020-08-27_15h41.00.115,proactive3.2,2020.1.2,Win32,60,5f47c0b9b035471e11593a5c,5f47c5ad25bc3c0a5420e69a,6,,,,,,mushroom,,,,,,,,,,,3,2,0,12,12,25,1,,,,,,,,,,,,,,,,,,,,,,,,,,,,,,,,,,,,,,,,,,,,,,,,,,,,,,,,,,,,,,,,,,,,,,
,,?,0.001475,0,,,,,,stimuli/images/PICTURE_491.png,SERIES,5c7ba5be2ceba0001668b9b9,12/03/2000,2020-08-27_15h41.00.115,proactive3.2,2020.1.2,Win32,60,5f47c0b9b035471e11593a5c,5f47c5ad25bc3c0a5420e69a,6,,,,,,rug,,,,,,,,,,,4,2,0,13,13,39,1,,,,,,,,,,,,,,,,,,,,,,,,,,,,,,,,,,,,,,,,,,,,,,,,,,,,,,,,,,,,,,,,,,,,,,
,,?,0.00152,0,,,,,,stimuli/images/PICTURE_285.png,WRITER,5c7ba5be2ceba0001668b9b9,12/03/2000,2020-08-27_15h41.00.115,proactive3.2,2020.1.2,Win32,60,5f47c0b9b035471e11593a5c,5f47c5ad25bc3c0a5420e69a,6,,,,,,carrot,,,,,,,,,,,1,2,0,14,14,6,1,,,,,,,,,,,,,,,,,,,,,,,,,,,,,,,,,,,,,,,,,,,,,,,,,,,,,,,,,,,,,,,,,,,,,,
,,?,0.001445,0,,,,,,stimuli/images/PICTURE_688.png,CLOCK,5c7ba5be2ceba0001668b9b9,12/03/2000,2020-08-27_15h41.00.115,proactive3.2,2020.1.2,Win32,60,5f47c0b9b035471e11593a5c,5f47c5ad25bc3c0a5420e69a,6,,,,,,runner,,,,,,,,,,,5,2,0,15,15,42,1,,,,,,,,,,,,,,,,,,,,,,,,,,,,,,,,,,,,,,,,,,,,,,,,,,,,,,,,,,,,,,,,,,,,,,
,,?,0.00147,0,,,,,,stimuli/images/PICTURE_708.png,VALLEY,5c7ba5be2ceba0001668b9b9,12/03/2000,2020-08-27_15h41.00.115,proactive3.2,2020.1.2,Win32,60,5f47c0b9b035471e11593a5c,5f47c5ad25bc3c0a5420e69a,6,,,,,,monkey,,,,,,,,,,,5,2,0,16,16,45,1,,,,,,,,,,,,,,,,,,,,,,,,,,,,,,,,,,,,,,,,,,,,,,,,,,,,,,,,,,,,,,,,,,,,,,
,,?,0.001445,0,,,,,,stimuli/images/PICTURE_327.png,LEADER,5c7ba5be2ceba0001668b9b9,12/03/2000,2020-08-27_15h41.00.115,proactive3.2,2020.1.2,Win32,60,5f47c0b9b035471e11593a5c,5f47c5ad25bc3c0a5420e69a,6,,,,,,helmet,,,,,,,,,,,2,2,0,17,17,17,1,,,,,,,,,,,,,,,,,,,,,,,,,,,,,,,,,,,,,,,,,,,,,,,,,,,,,,,,,,,,,,,,,,,,,,
,,?,0.00144,0,,,,,,stimuli/images/PICTURE_33.png,COPS,5c7ba5be2ceba0001668b9b9,12/03/2000,2020-08-27_15h41.00.115,proactive3.2,2020.1.2,Win32,60,5f47c0b9b035471e11593a5c,5f47c5ad25bc3c0a5420e69a,6,,,,,,frame,,,,,,,,,,,3,2,0,18,18,29,1,,,,,,,,,,,,,,,,,,,,,,,,,,,,,,,,,,,,,,,,,,,,,,,,,,,,,,,,,,,,,,,,,,,,,,
,,LETTER,2.228895,1,,,,,,stimuli/images/PICTURE_32.png,LETTER,5c7ba5be2ceba0001668b9b9,12/03/2000,2020-08-27_15h41.00.115,proactive3.2,2020.1.2,Win32,60,5f47c0b9b035471e11593a5c,5f47c5ad25bc3c0a5420e69a,6,,,,,,crown,,,,,,,,,,,6,2,0,19,19,56,1,,,,,,,,,,,,,,,,,,,,,,,,,,,,,,,,,,,,,,,,,,,,,,,,,,,,,,,,,,,,,,,,,,,,,,
,,?,0.00201,0,,,,,,stimuli/images/PICTURE_215.png,LEADER,5c7ba5be2ceba0001668b9b9,12/03/2000,2020-08-27_15h41.00.115,proactive3.2,2020.1.2,Win32,60,5f47c0b9b035471e11593a5c,5f47c5ad25bc3c0a5420e69a,6,,,,,,boot,,,,,,,,,,,5,2,0,20,20,43,1,,,,,,,,,,,,,,,,,,,,,,,,,,,,,,,,,,,,,,,,,,,,,,,,,,,,,,,,,,,,,,,,,,,,,,
,,?,0.001595,0,,,,,,stimuli/images/PICTURE_285.png,PRINCE,5c7ba5be2ceba0001668b9b9,12/03/2000,2020-08-27_15h41.00.115,proactive3.2,2020.1.2,Win32,60,5f47c0b9b035471e11593a5c,5f47c5ad25bc3c0a5420e69a,6,,,,,,carrot,,,,,,,,,,,3,2,0,21,21,20,1,,,,,,,,,,,,,,,,,,,,,,,,,,,,,,,,,,,,,,,,,,,,,,,,,,,,,,,,,,,,,,,,,,,,,,
,,?,0.0015,0,,,,,,stimuli/images/PICTURE_18.png,RIVER,5c7ba5be2ceba0001668b9b9,12/03/2000,2020-08-27_15h41.00.115,proactive3.2,2020.1.2,Win32,60,5f47c0b9b035471e11593a5c,5f47c5ad25bc3c0a5420e69a,6,,,,,,planet,,,,,,,,,,,3,2,0,22,22,22,1,,,,,,,,,,,,,,,,,,,,,,,,,,,,,,,,,,,,,,,,,,,,,,,,,,,,,,,,,,,,,,,,,,,,,,
,,?,0.00149,0,,,,,,stimuli/images/PICTURE_677.png,PHOTO,5c7ba5be2ceba0001668b9b9,12/03/2000,2020-08-27_15h41.00.115,proactive3.2,2020.1.2,Win32,60,5f47c0b9b035471e11593a5c,5f47c5ad25bc3c0a5420e69a,6,,,,,,map,,,,,,,,,,,2,2,0,23,23,14,1,,,,,,,,,,,,,,,,,,,,,,,,,,,,,,,,,,,,,,,,,,,,,,,,,,,,,,,,,,,,,,,,,,,,,,
,,?,0.001465,0,,,,,,stimuli/images/PICTURE_470.png,BEAUTY,5c7ba5be2ceba0001668b9b9,12/03/2000,2020-08-27_15h41.00.115,proactive3.2,2020.1.2,Win32,60,5f47c0b9b035471e11593a5c,5f47c5ad25bc3c0a5420e69a,6,,,,,,motorbike,,,,,,,,,,,3,2,0,24,24,26,1,,,,,,,,,,,,,,,,,,,,,,,,,,,,,,,,,,,,,,,,,,,,,,,,,,,,,,,,,,,,,,,,,,,,,,
,,?,0.001455,0,,,,,,stimuli/images/PICTURE_356.png,CANDY,5c7ba5be2ceba0001668b9b9,12/03/2000,2020-08-27_15h41.00.115,proactive3.2,2020.1.2,Win32,60,5f47c0b9b035471e11593a5c,5f47c5ad25bc3c0a5420e69a,6,,,,,,pawn,,,,,,,,,,,5,2,0,25,25,46,1,,,,,,,,,,,,,,,,,,,,,,,,,,,,,,,,,,,,,,,,,,,,,,,,,,,,,,,,,,,,,,,,,,,,,,
,,?,0.003405,0,,,,,,stimuli/images/PICTURE_405.png,JUNGLE,5c7ba5be2ceba0001668b9b9,12/03/2000,2020-08-27_15h41.00.115,proactive3.2,2020.1.2,Win32,60,5f47c0b9b035471e11593a5c,5f47c5ad25bc3c0a5420e69a,6,,,,,,anchor,,,,,,,,,,,2,2,0,26,26,13,1,,,,,,,,,,,,,,,,,,,,,,,,,,,,,,,,,,,,,,,,,,,,,,,,,,,,,,,,,,,,,,,,,,,,,,
,,?,0.001455,0,,,,,,stimuli/images/PICTURE_509.png,MILLER,5c7ba5be2ceba0001668b9b9,12/03/2000,2020-08-27_15h41.00.115,proactive3.2,2020.1.2,Win32,60,5f47c0b9b035471e11593a5c,5f47c5ad25bc3c0a5420e69a,6,,,,,,telephone,,,,,,,,,,,5,2,0,27,27,49,1,,,,,,,,,,,,,,,,,,,,,,,,,,,,,,,,,,,,,,,,,,,,,,,,,,,,,,,,,,,,,,,,,,,,,,
,,?,0.001465,0,,,,,,stimuli/images/PICTURE_123.png,SALE,5c7ba5be2ceba0001668b9b9,12/03/2000,2020-08-27_15h41.00.115,proactive3.2,2020.1.2,Win32,60,5f47c0b9b035471e11593a5c,5f47c5ad25bc3c0a5420e69a,6,,,,,,dart,,,,,,,,,,,1,2,0,28,28,8,1,,,,,,,,,,,,,,,,,,,,,,,,,,,,,,,,,,,,,,,,,,,,,,,,,,,,,,,,,,,,,,,,,,,,,,
,,?,0.00144,0,,,,,,stimuli/images/PICTURE_296.png,CLOCK,5c7ba5be2ceba0001668b9b9,12/03/2000,2020-08-27_15h41.00.115,proactive3.2,2020.1.2,Win32,60,5f47c0b9b035471e11593a5c,5f47c5ad25bc3c0a5420e69a,6,,,,,,bolt,,,,,,,,,,,2,2,0,29,29,18,1,,,,,,,,,,,,,,,,,,,,,,,,,,,,,,,,,,,,,,,,,,,,,,,,,,,,,,,,,,,,,,,,,,,,,,
,,?,0.001425,0,,,,,,stimuli/images/PICTURE_667.png,GLASS,5c7ba5be2ceba0001668b9b9,12/03/2000,2020-08-27_15h41.00.115,proactive3.2,2020.1.2,Win32,60,5f47c0b9b035471e11593a5c,5f47c5ad25bc3c0a5420e69a,6,,,,,,daisy,,,,,,,,,,,3,2,0,30,30,27,1,,,,,,,,,,,,,,,,,,,,,,,,,,,,,,,,,,,,,,,,,,,,,,,,,,,,,,,,,,,,,,,,,,,,,,
,,?,0.001445,0,,,,,,stimuli/images/PICTURE_654.png,YEAR,5c7ba5be2ceba0001668b9b9,12/03/2000,2020-08-27_15h41.00.115,proactive3.2,2020.1.2,Win32,60,5f47c0b9b035471e11593a5c,5f47c5ad25bc3c0a5420e69a,6,,,,,,pencil,,,,,,,,,,,5,2,0,31,31,41,1,,,,,,,,,,,,,,,,,,,,,,,,,,,,,,,,,,,,,,,,,,,,,,,,,,,,,,,,,,,,,,,,,,,,,,
,,?,0.001585,0,,,,,,stimuli/images/PICTURE_348.png,TOILET,5c7ba5be2ceba0001668b9b9,12/03/2000,2020-08-27_15h41.00.115,proactive3.2,2020.1.2,Win32,60,5f47c0b9b035471e11593a5c,5f47c5ad25bc3c0a5420e69a,6,,,,,,pepper,,,,,,,,,,,1,2,0,32,32,4,1,,,,,,,,,,,,,,,,,,,,,,,,,,,,,,,,,,,,,,,,,,,,,,,,,,,,,,,,,,,,,,,,,,,,,,
,,?,0.001425,0,,,,,,stimuli/images/PICTURE_509.png,BATH,5c7ba5be2ceba0001668b9b9,12/03/2000,2020-08-27_15h41.00.115,proactive3.2,2020.1.2,Win32,60,5f47c0b9b035471e11593a5c,5f47c5ad25bc3c0a5420e69a,6,,,,,,telephone,,,,,,,,,,,2,2,0,33,33,15,1,,,,,,,,,,,,,,,,,,,,,,,,,,,,,,,,,,,,,,,,,,,,,,,,,,,,,,,,,,,,,,,,,,,,,,
,,?,0.001425,0,,,,,,stimuli/images/PICTURE_692.png,DUDE,5c7ba5be2ceba0001668b9b9,12/03/2000,2020-08-27_15h41.00.115,proactive3.2,2020.1.2,Win32,60,5f47c0b9b035471e11593a5c,5f47c5ad25bc3c0a5420e69a,6,,,,,,cherry,,,,,,,,,,,5,2,0,34,34,47,1,,,,,,,,,,,,,,,,,,,,,,,,,,,,,,,,,,,,,,,,,,,,,,,,,,,,,,,,,,,,,,,,,,,,,,
,,?,0.00148,0,,,,,,stimuli/images/PICTURE_255.png,PENNY,5c7ba5be2ceba0001668b9b9,12/03/2000,2020-08-27_15h41.00.115,proactive3.2,2020.1.2,Win32,60,5f47c0b9b035471e11593a5c,5f47c5ad25bc3c0a5420e69a,6,,,,,,shovel,,,,,,,,,,,2,2,0,35,35,19,1,,,,,,,,,,,,,,,,,,,,,,,,,,,,,,,,,,,,,,,,,,,,,,,,,,,,,,,,,,,,,,,,,,,,,,
,,?,0.00147,0,,,,,,stimuli/images/PICTURE_750.png,POLICY,5c7ba5be2ceba0001668b9b9,12/03/2000,2020-08-27_15h41.00.115,proactive3.2,2020.1.2,Win32,60,5f47c0b9b035471e11593a5c,5f47c5ad25bc3c0a5420e69a,6,,,,,,kettle,,,,,,,,,,,5,2,0,36,36,44,1,,,,,,,,,,,,,,,,,,,,,,,,,,,,,,,,,,,,,,,,,,,,,,,,,,,,,,,,,,,,,,,,,,,,,,
,,?,0.001485,0,,,,,,stimuli/images/PICTURE_2.png,AREA,5c7ba5be2ceba0001668b9b9,12/03/2000,2020-08-27_15h41.00.115,proactive3.2,2020.1.2,Win32,60,5f47c0b9b035471e11593a5c,5f47c5ad25bc3c0a5420e69a,6,,,,,,tyre,,,,,,,,,,,4,2,0,37,37,32,1,,,,,,,,,,,,,,,,,,,,,,,,,,,,,,,,,,,,,,,,,,,,,,,,,,,,,,,,,,,,,,,,,,,,,,
,,?,0.00156,0,,,,,,stimuli/images/PICTURE_403.png,FAMILY,5c7ba5be2ceba0001668b9b9,12/03/2000,2020-08-27_15h41.00.115,proactive3.2,2020.1.2,Win32,60,5f47c0b9b035471e11593a5c,5f47c5ad25bc3c0a5420e69a,6,,,,,,cathedral,,,,,,,,,,,1,2,0,38,38,9,1,,,,,,,,,,,,,,,,,,,,,,,,,,,,,,,,,,,,,,,,,,,,,,,,,,,,,,,,,,,,,,,,,,,,,,
,,CLEANER,3.34889,0,,,,,,stimuli/images/PICTURE_311.png,TOILET,5c7ba5be2ceba0001668b9b9,12/03/2000,2020-08-27_15h41.00.115,proactive3.2,2020.1.2,Win32,60,5f47c0b9b035471e11593a5c,5f47c5ad25bc3c0a5420e69a,6,,,,,,razor,,,,,,,,,,,6,2,0,39,39,54,1,,,,,,,,,,,,,,,,,,,,,,,,,,,,,,,,,,,,,,,,,,,,,,,,,,,,,,,,,,,,,,,,,,,,,,
,,?,0.00239,0,,,,,,stimuli/images/PICTURE_452.png,COPS,5c7ba5be2ceba0001668b9b9,12/03/2000,2020-08-27_15h41.00.115,proactive3.2,2020.1.2,Win32,60,5f47c0b9b035471e11593a5c,5f47c5ad25bc3c0a5420e69a,6,,,,,,watch,,,,,,,,,,,1,2,0,40,40,0,1,,,,,,,,,,,,,,,,,,,,,,,,,,,,,,,,,,,,,,,,,,,,,,,,,,,,,,,,,,,,,,,,,,,,,,
,,?,0.00606,0,,,,,,stimuli/images/PICTURE_141.png,CLIENT,5c7ba5be2ceba0001668b9b9,12/03/2000,2020-08-27_15h41.00.115,proactive3.2,2020.1.2,Win32,60,5f47c0b9b035471e11593a5c,5f47c5ad25bc3c0a5420e69a,6,,,,,,sunflower,,,,,,,,,,,4,2,0,41,41,30,1,,,,,,,,,,,,,,,,,,,,,,,,,,,,,,,,,,,,,,,,,,,,,,,,,,,,,,,,,,,,,,,,,,,,,,
,,?,0.00173,0,,,,,,stimuli/images/PICTURE_147.png,LEADER,5c7ba5be2ceba0001668b9b9,12/03/2000,2020-08-27_15h41.00.115,proactive3.2,2020.1.2,Win32,60,5f47c0b9b035471e11593a5c,5f47c5ad25bc3c0a5420e69a,6,,,,,,hanger,,,,,,,,,,,4,2,0,42,42,33,1,,,,,,,,,,,,,,,,,,,,,,,,,,,,,,,,,,,,,,,,,,,,,,,,,,,,,,,,,,,,,,,,,,,,,,
,,?,0.00193,0,,,,,,stimuli/images/PICTURE_509.png,SHOTS,5c7ba5be2ceba0001668b9b9,12/03/2000,2020-08-27_15h41.00.115,proactive3.2,2020.1.2,Win32,60,5f47c0b9b035471e11593a5c,5f47c5ad25bc3c0a5420e69a,6,,,,,,telephone,,,,,,,,,,,1,2,0,43,43,7,1,,,,,,,,,,,,,,,,,,,,,,,,,,,,,,,,,,,,,,,,,,,,,,,,,,,,,,,,,,,,,,,,,,,,,,
,,?,0.001605,0,,,,,,stimuli/images/PICTURE_2.png,JUNGLE,5c7ba5be2ceba0001668b9b9,12/03/2000,2020-08-27_15h41.00.115,proactive3.2,2020.1.2,Win32,60,5f47c0b9b035471e11593a5c,5f47c5ad25bc3c0a5420e69a,6,,,,,,tyre,,,,,,,,,,,1,2,0,44,44,1,1,,,,,,,,,,,,,,,,,,,,,,,,,,,,,,,,,,,,,,,,,,,,,,,,,,,,,,,,,,,,,,,,,,,,,,
,,FAMILY,3.54658,0,,,,,,stimuli/images/PICTURE_297.png,BODY,5c7ba5be2ceba0001668b9b9,12/03/2000,2020-08-27_15h41.00.115,proactive3.2,2020.1.2,Win32,60,5f47c0b9b035471e11593a5c,5f47c5ad25bc3c0a5420e69a,6,,,,,,aeroplane,,,,,,,,,,,6,2,0,45,45,51,1,,,,,,,,,,,,,,,,,,,,,,,,,,,,,,,,,,,,,,,,,,,,,,,,,,,,,,,,,,,,,,,,,,,,,,
,,?,0.00166,0,,,,,,stimuli/images/PICTURE_57.png,CASINO,5c7ba5be2ceba0001668b9b9,12/03/2000,2020-08-27_15h41.00.115,proactive3.2,2020.1.2,Win32,60,5f47c0b9b035471e11593a5c,5f47c5ad25bc3c0a5420e69a,6,,,,,,stamp,,,,,,,,,,,2,2,0,46,46,12,1,,,,,,,,,,,,,,,,,,,,,,,,,,,,,,,,,,,,,,,,,,,,,,,,,,,,,,,,,,,,,,,,,,,,,,
,,?,0.001375,0,,,,,,stimuli/images/PICTURE_470.png,MOMENT,5c7ba5be2ceba0001668b9b9,12/03/2000,2020-08-27_15h41.00.115,proactive3.2,2020.1.2,Win32,60,5f47c0b9b035471e11593a5c,5f47c5ad25bc3c0a5420e69a,6,,,,,,motorbike,,,,,,,,,,,5,2,0,47,47,40,1,,,,,,,,,,,,,,,,,,,,,,,,,,,,,,,,,,,,,,,,,,,,,,,,,,,,,,,,,,,,,,,,,,,,,,
,,?,0.001435,0,,,,,,stimuli/images/PICTURE_504.png,HOUSE,5c7ba5be2ceba0001668b9b9,12/03/2000,2020-08-27_15h41.00.115,proactive3.2,2020.1.2,Win32,60,5f47c0b9b035471e11593a5c,5f47c5ad25bc3c0a5420e69a,6,,,,,,wheel,,,,,,,,,,,4,2,0,48,48,36,1,,,,,,,,,,,,,,,,,,,,,,,,,,,,,,,,,,,,,,,,,,,,,,,,,,,,,,,,,,,,,,,,,,,,,,
,,FAMILY,2.76612,0,,,,,,stimuli/images/PICTURE_57.png,CANDY,5c7ba5be2ceba0001668b9b9,12/03/2000,2020-08-27_15h41.00.115,proactive3.2,2020.1.2,Win32,60,5f47c0b9b035471e11593a5c,5f47c5ad25bc3c0a5420e69a,6,,,,,,stamp,,,,,,,,,,,6,2,0,49,49,52,1,,,,,,,,,,,,,,,,,,,,,,,,,,,,,,,,,,,,,,,,,,,,,,,,,,,,,,,,,,,,,,,,,,,,,,
,,?,0.00413,0,,,,,,stimuli/images/PICTURE_564.png,PLENTY,5c7ba5be2ceba0001668b9b9,12/03/2000,2020-08-27_15h41.00.115,proactive3.2,2020.1.2,Win32,60,5f47c0b9b035471e11593a5c,5f47c5ad25bc3c0a5420e69a,6,,,,,,spoon,,,,,,,,,,,2,2,0,50,50,11,1,,,,,,,,,,,,,,,,,,,,,,,,,,,,,,,,,,,,,,,,,,,,,,,,,,,,,,,,,,,,,,,,,,,,,,
,,?,0.00138,0,,,,,,stimuli/images/PICTURE_311.png,FLESH,5c7ba5be2ceba0001668b9b9,12/03/2000,2020-08-27_15h41.00.115,proactive3.2,2020.1.2,Win32,60,5f47c0b9b035471e11593a5c,5f47c5ad25bc3c0a5420e69a,6,,,,,,razor,,,,,,,,,,,1,2,0,51,51,3,1,,,,,,,,,,,,,,,,,,,,,,,,,,,,,,,,,,,,,,,,,,,,,,,,,,,,,,,,,,,,,,,,,,,,,,
,,?,0.00132,0,,,,,,stimuli/images/PICTURE_453.png,FAMILY,5c7ba5be2ceba0001668b9b9,12/03/2000,2020-08-27_15h41.00.115,proactive3.2,2020.1.2,Win32,60,5f47c0b9b035471e11593a5c,5f47c5ad25bc3c0a5420e69a,6,,,,,,scissors,,,,,,,,,,,5,2,0,52,52,48,1,,,,,,,,,,,,,,,,,,,,,,,,,,,,,,,,,,,,,,,,,,,,,,,,,,,,,,,,,,,,,,,,,,,,,,
,,?,0.001375,0,,,,,,stimuli/images/PICTURE_93.png,GIRL,5c7ba5be2ceba0001668b9b9,12/03/2000,2020-08-27_15h41.00.115,proactive3.2,2020.1.2,Win32,60,5f47c0b9b035471e11593a5c,5f47c5ad25bc3c0a5420e69a,6,,,,,,skateboard,,,,,,,,,,,4,2,0,53,53,31,1,,,,,,,,,,,,,,,,,,,,,,,,,,,,,,,,,,,,,,,,,,,,,,,,,,,,,,,,,,,,,,,,,,,,,,
,,?,2.36109,0,,,,,,stimuli/images/PICTURE_677.png,FAMILY,5c7ba5be2ceba0001668b9b9,12/03/2000,2020-08-27_15h41.00.115,proactive3.2,2020.1.2,Win32,60,5f47c0b9b035471e11593a5c,5f47c5ad25bc3c0a5420e69a,6,,,,,,map,,,,,,,,,,,6,2,0,54,54,53,1,,,,,,,,,,,,,,,,,,,,,,,,,,,,,,,,,,,,,,,,,,,,,,,,,,,,,,,,,,,,,,,,,,,,,,
,,?,0.001595,0,,,,,,stimuli/images/PICTURE_160.png,HOTEL,5c7ba5be2ceba0001668b9b9,12/03/2000,2020-08-27_15h41.00.115,proactive3.2,2020.1.2,Win32,60,5f47c0b9b035471e11593a5c,5f47c5ad25bc3c0a5420e69a,6,,,,,,wheelbarrow,,,,,,,,,,,2,2,0,55,55,16,1,,,,,,,,,,,,,,,,,,,,,,,,,,,,,,,,,,,,,,,,,,,,,,,,,,,,,,,,,,,,,,,,,,,,,,
,,?,0.001365,0,,,,,,stimuli/images/PICTURE_509.png,APPLE,5c7ba5be2ceba0001668b9b9,12/03/2000,2020-08-27_15h41.00.115,proactive3.2,2020.1.2,Win32,60,5f47c0b9b035471e11593a5c,5f47c5ad25bc3c0a5420e69a,6,,,,,,telephone,,,,,,,,,,,4,2,0,56,56,38,1,,,,,,,,,,,,,,,,,,,,,,,,,,,,,,,,,,,,,,,,,,,,,,,,,,,,,,,,,,,,,,,,,,,,,,
,,CART,4.117805,0,,,,,,stimuli/images/PICTURE_2.png,YARD,5c7ba5be2ceba0001668b9b9,12/03/2000,2020-08-27_15h41.00.115,proactive3.2,2020.1.2,Win32,60,5f47c0b9b035471e11593a5c,5f47c5ad25bc3c0a5420e69a,6,,,,,,tyre,,,,,,,,,,,6,2,0,57,57,55,1,,,,,,,,,,,,,,,,,,,,,,,,,,,,,,,,,,,,,,,,,,,,,,,,,,,,,,,,,,,,,,,,,,,,,,
,,?,0.00218,0,,,,,,stimuli/images/PICTURE_95.png,NIGHT,5c7ba5be2ceba0001668b9b9,12/03/2000,2020-08-27_15h41.00.115,proactive3.2,2020.1.2,Win32,60,5f47c0b9b035471e11593a5c,5f47c5ad25bc3c0a5420e69a,6,,,,,,suitcase,,,,,,,,,,,4,2,0,58,58,37,1,,,,,,,,,,,,,,,,,,,,,,,,,,,,,,,,,,,,,,,,,,,,,,,,,,,,,,,,,,,,,,,,,,,,,,
,,ROOF,1.572665,1,,,,,,stimuli/images/PICTURE_487.png,ROOF,5c7ba5be2ceba0001668b9b9,12/03/2000,2020-08-27_15h41.00.115,proactive3.2,2020.1.2,Win32,60,5f47c0b9b035471e11593a5c,5f47c5ad25bc3c0a5420e69a,6,,,,,,basket,,,,,,,,,,,6,2,0,59,59,50,1,,,,,,,,,,,,,,,,,,,,,,,,,,,,,,,,,,,,,,,,,,,,,,,,,,,,,,,,,,,,,,,,,,,,,,
,,,,,,,,,,,,5c7ba5be2ceba0001668b9b9,12/03/2000,2020-08-27_15h41.00.115,proactive3.2,2020.1.2,Win32,60,5f47c0b9b035471e11593a5c,5f47c5ad25bc3c0a5420e69a,6,,,,,,,,,,,,,,,,,,,,,,,,0,0,0,2,1,stimuli/learn-block3.csv,,,,,,,,,,,,,,,,,,,,,,,,,,,,,,,,,,,,,,,,,,,,,,,,,,,,,,,,,,,,,,,,
,,,,,,,,,,stimuli/images/PICTURE_655.png,TOILET,5c7ba5be2ceba0001668b9b9,12/03/2000,2020-08-27_15h41.00.115,proactive3.2,2020.1.2,Win32,60,5f47c0b9b035471e11593a5c,5f47c5ad25bc3c0a5420e69a,6,,,,,,megaphone,,,,,,0,0,0,12,1,2,1,,,,,,,,,,,,,,,,,,,,,,,,,,,,,,,,,,,,,,,,,,,,,,,,,,,,,,,,,,,,,,,,,,,,,,,,,,,
,,,,,,,,,,stimuli/images/PICTURE_327.png,SERIES,5c7ba5be2ceba0001668b9b9,12/03/2000,2020-08-27_15h41.00.115,proactive3.2,2020.1.2,Win32,60,5f47c0b9b035471e11593a5c,5f47c5ad25bc3c0a5420e69a,6,,,,,,helmet,,,,,,0,1,1,3,1,1,1,,,,,,,,,,,,,,,,,,,,,,,,,,,,,,,,,,,,,,,,,,,,,,,,,,,,,,,,,,,,,,,,,,,,,,,,,,,
,,,,,,,,,,stimuli/images/PICTURE_380.png,HONEY,5c7ba5be2ceba0001668b9b9,12/03/2000,2020-08-27_15h41.00.115,proactive3.2,2020.1.2,Win32,60,5f47c0b9b035471e11593a5c,5f47c5ad25bc3c0a5420e69a,6,,,,,,gorilla,,,,,,0,2,2,19,1,2,1,,,,,,,,,,,,,,,,,,,,,,,,,,,,,,,,,,,,,,,,,,,,,,,,,,,,,,,,,,,,,,,,,,,,,,,,,,,
,,,,,,,,,,stimuli/images/PICTURE_677.png,APPLE,5c7ba5be2ceba0001668b9b9,12/03/2000,2020-08-27_15h41.00.115,proactive3.2,2020.1.2,Win32,60,5f47c0b9b035471e11593a5c,5f47c5ad25bc3c0a5420e69a,6,,,,,,map,,,,,,0,3,3,43,1,5,1,,,,,,,,,,,,,,,,,,,,,,,,,,,,,,,,,,,,,,,,,,,,,,,,,,,,,,,,,,,,,,,,,,,,,,,,,,,
,,,,,,,,,,stimuli/images/PICTURE_203.png,GODS,5c7ba5be2ceba0001668b9b9,12/03/2000,2020-08-27_15h41.00.115,proactive3.2,2020.1.2,Win32,60,5f47c0b9b035471e11593a5c,5f47c5ad25bc3c0a5420e69a,6,,,,,,cap,,,,,,0,4,4,30,1,4,1,,,,,,,,,,,,,,,,,,,,,,,,,,,,,,,,,,,,,,,,,,,,,,,,,,,,,,,,,,,,,,,,,,,,,,,,,,,
,,,,,,,,,,stimuli/images/PICTURE_403.png,WRITER,5c7ba5be2ceba0001668b9b9,12/03/2000,2020-08-27_15h41.00.115,proactive3.2,2020.1.2,Win32,60,5f47c0b9b035471e11593a5c,5f47c5ad25bc3c0a5420e69a,6,,,,,,cathedral,,,,,,0,5,5,31,1,4,1,,,,,,,,,,,,,,,,,,,,,,,,,,,,,,,,,,,,,,,,,,,,,,,,,,,,,,,,,,,,,,,,,,,,,,,,,,,
,,,,,,,,,,stimuli/images/PICTURE_327.png,CASINO,5c7ba5be2ceba0001668b9b9,12/03/2000,2020-08-27_15h41.00.115,proactive3.2,2020.1.2,Win32,60,5f47c0b9b035471e11593a5c,5f47c5ad25bc3c0a5420e69a,6,,,,,,helmet,,,,,,0,6,6,20,1,3,1,,,,,,,,,,,,,,,,,,,,,,,,,,,,,,,,,,,,,,,,,,,,,,,,,,,,,,,,,,,,,,,,,,,,,,,,,,,
,,,,,,,,,,stimuli/images/PICTURE_491.png,GLASS,5c7ba5be2ceba0001668b9b9,12/03/2000,2020-08-27_15h41.00.115,proactive3.2,2020.1.2,Win32,60,5f47c0b9b035471e11593a5c,5f47c5ad25bc3c0a5420e69a,6,,,,,,rug,,,,,,0,7,7,14,1,2,1,,,,,,,,,,,,,,,,,,,,,,,,,,,,,,,,,,,,,,,,,,,,,,,,,,,,,,,,,,,,,,,,,,,,,,,,,,,
,,,,,,,,,,stimuli/images/PICTURE_654.png,MONTH,5c7ba5be2ceba0001668b9b9,12/03/2000,2020-08-27_15h41.00.115,proactive3.2,2020.1.2,Win32,60,5f47c0b9b035471e11593a5c,5f47c5ad25bc3c0a5420e69a,6,,,,,,pencil,,,,,,0,8,8,29,1,3,1,,,,,,,,,,,,,,,,,,,,,,,,,,,,,,,,,,,,,,,,,,,,,,,,,,,,,,,,,,,,,,,,,,,,,,,,,,,
,,,,,,,,,,stimuli/images/PICTURE_667.png,RIVER,5c7ba5be2ceba0001668b9b9,12/03/2000,2020-08-27_15h41.00.115,proactive3.2,2020.1.2,Win32,60,5f47c0b9b035471e11593a5c,5f47c5ad25bc3c0a5420e69a,6,,,,,,daisy,,,,,,0,9,9,10,1,2,1,,,,,,,,,,,,,,,,,,,,,,,,,,,,,,,,,,,,,,,,,,,,,,,,,,,,,,,,,,,,,,,,,,,,,,,,,,,
,,,,,,,,,,stimuli/images/PICTURE_68.png,MILE,5c7ba5be2ceba0001668b9b9,12/03/2000,2020-08-27_15h41.00.115,proactive3.2,2020.1.2,Win32,60,5f47c0b9b035471e11593a5c,5f47c5ad25bc3c0a5420e69a,6,,,,,,candle,,,,,,0,10,10,51,1,6,1,,,,,,,,,,,,,,,,,,,,,,,,,,,,,,,,,,,,,,,,,,,,,,,,,,,,,,,,,,,,,,,,,,,,,,,,,,,
,,,,,,,,,,stimuli/images/PICTURE_85.png,NATION,5c7ba5be2ceba0001668b9b9,12/03/2000,2020-08-27_15h41.00.115,proactive3.2,2020.1.2,Win32,60,5f47c0b9b035471e11593a5c,5f47c5ad25bc3c0a5420e69a,6,,,,,,diamond,,,,,,0,11,11,5,1,1,1,,,,,,,,,,,,,,,,,,,,,,,,,,,,,,,,,,,,,,,,,,,,,,,,,,,,,,,,,,,,,,,,,,,,,,,,,,,
,,,,,,,,,,stimuli/images/PICTURE_403.png,TOILET,5c7ba5be2ceba0001668b9b9,12/03/2000,2020-08-27_15h41.00.115,proactive3.2,2020.1.2,Win32,60,5f47c0b9b035471e11593a5c,5f47c5ad25bc3c0a5420e69a,6,,,,,,cathedral,,,,,,0,12,12,25,1,3,1,,,,,,,,,,,,,,,,,,,,,,,,,,,,,,,,,,,,,,,,,,,,,,,,,,,,,,,,,,,,,,,,,,,,,,,,,,,
,,,,,,,,,,stimuli/images/PICTURE_383.png,WRITER,5c7ba5be2ceba0001668b9b9,12/03/2000,2020-08-27_15h41.00.115,proactive3.2,2020.1.2,Win32,60,5f47c0b9b035471e11593a5c,5f47c5ad25bc3c0a5420e69a,6,,,,,,coin,,,,,,0,13,13,28,1,3,1,,,,,,,,,,,,,,,,,,,,,,,,,,,,,,,,,,,,,,,,,,,,,,,,,,,,,,,,,,,,,,,,,,,,,,,,,,,
,,,,,,,,,,stimuli/images/PICTURE_708.png,RECORD,5c7ba5be2ceba0001668b9b9,12/03/2000,2020-08-27_15h41.00.115,proactive3.2,2020.1.2,Win32,60,5f47c0b9b035471e11593a5c,5f47c5ad25bc3c0a5420e69a,6,,,,,,monkey,,,,,,0,14,14,58,1,6,1,,,,,,,,,,,,,,,,,,,,,,,,,,,,,,,,,,,,,,,,,,,,,,,,,,,,,,,,,,,,,,,,,,,,,,,,,,,
,,,,,,,,,,stimuli/images/PICTURE_449.png,DUDE,5c7ba5be2ceba0001668b9b9,12/03/2000,2020-08-27_15h41.00.115,proactive3.2,2020.1.2,Win32,60,5f47c0b9b035471e11593a5c,5f47c5ad25bc3c0a5420e69a,6,,,,,,bench,,,,,,0,15,15,17,1,2,1,,,,,,,,,,,,,,,,,,,,,,,,,,,,,,,,,,,,,,,,,,,,,,,,,,,,,,,,,,,,,,,,,,,,,,,,,,,
,,,,,,,,,,stimuli/images/PICTURE_296.png,LOTS,5c7ba5be2ceba0001668b9b9,12/03/2000,2020-08-27_15h41.00.115,proactive3.2,2020.1.2,Win32,60,5f47c0b9b035471e11593a5c,5f47c5ad25bc3c0a5420e69a,6,,,,,,bolt,,,,,,0,16,16,9,1,1,1,,,,,,,,,,,,,,,,,,,,,,,,,,,,,,,,,,,,,,,,,,,,,,,,,,,,,,,,,,,,,,,,,,,,,,,,,,,
,,,,,,,,,,stimuli/images/PICTURE_95.png,BOYS,5c7ba5be2ceba0001668b9b9,12/03/2000,2020-08-27_15h41.00.115,proactive3.2,2020.1.2,Win32,60,5f47c0b9b035471e11593a5c,5f47c5ad25bc3c0a5420e69a,6,,,,,,suitcase,,,,,,0,17,17,1,1,1,1,,,,,,,,,,,,,,,,,,,,,,,,,,,,,,,,,,,,,,,,,,,,,,,,,,,,,,,,,,,,,,,,,,,,,,,,,,,
,,,,,,,,,,stimuli/images/PICTURE_85.png,TOILET,5c7ba5be2ceba0001668b9b9,12/03/2000,2020-08-27_15h41.00.115,proactive3.2,2020.1.2,Win32,60,5f47c0b9b035471e11593a5c,5f47c5ad25bc3c0a5420e69a,6,,,,,,diamond,,,,,,0,18,18,48,1,5,1,,,,,,,,,,,,,,,,,,,,,,,,,,,,,,,,,,,,,,,,,,,,,,,,,,,,,,,,,,,,,,,,,,,,,,,,,,,
,,,,,,,,,,stimuli/images/PICTURE_285.png,LIFE,5c7ba5be2ceba0001668b9b9,12/03/2000,2020-08-27_15h41.00.115,proactive3.2,2020.1.2,Win32,60,5f47c0b9b035471e11593a5c,5f47c5ad25bc3c0a5420e69a,6,,,,,,carrot,,,,,,0,19,19,33,1,4,1,,,,,,,,,,,,,,,,,,,,,,,,,,,,,,,,,,,,,,,,,,,,,,,,,,,,,,,,,,,,,,,,,,,,,,,,,,,
,,,,,,,,,,stimuli/images/PICTURE_405.png,YEAR,5c7ba5be2ceba0001668b9b9,12/03/2000,2020-08-27_15h41.00.115,proactive3.2,2020.1.2,Win32,60,5f47c0b9b035471e11593a5c,5f47c5ad25bc3c0a5420e69a,6,,,,,,anchor,,,,,,0,20,20,34,1,4,1,,,,,,,,,,,,,,,,,,,,,,,,,,,,,,,,,,,,,,,,,,,,,,,,,,,,,,,,,,,,,,,,,,,,,,,,,,,
,,,,,,,,,,stimuli/images/PICTURE_504.png,ARTIST,5c7ba5be2ceba0001668b9b9,12/03/2000,2020-08-27_15h41.00.115,proactive3.2,2020.1.2,Win32,60,5f47c0b9b035471e11593a5c,5f47c5ad25bc3c0a5420e69a,6,,,,,,wheel,,,,,,0,21,21,49,1,5,1,,,,,,,,,,,,,,,,,,,,,,,,,,,,,,,,,,,,,,,,,,,,,,,,,,,,,,,,,,,,,,,,,,,,,,,,,,,
,,,,,,,,,,stimuli/images/PICTURE_147.png,YEAR,5c7ba5be2ceba0001668b9b9,12/03/2000,2020-08-27_15h41.00.115,proactive3.2,2020.1.2,Win32,60,5f47c0b9b035471e11593a5c,5f47c5ad25bc3c0a5420e69a,6,,,,,,hanger,,,,,,0,22,22,21,1,3,1,,,,,,,,,,,,,,,,,,,,,,,,,,,,,,,,,,,,,,,,,,,,,,,,,,,,,,,,,,,,,,,,,,,,,,,,,,,
,,,,,,,,,,stimuli/images/PICTURE_380.png,CANDY,5c7ba5be2ceba0001668b9b9,12/03/2000,2020-08-27_15h41.00.115,proactive3.2,2020.1.2,Win32,60,5f47c0b9b035471e11593a5c,5f47c5ad25bc3c0a5420e69a,6,,,,,,gorilla,,,,,,0,23,23,0,1,1,1,,,,,,,,,,,,,,,,,,,,,,,,,,,,,,,,,,,,,,,,,,,,,,,,,,,,,,,,,,,,,,,,,,,,,,,,,,,
,,,,,,,,,,stimuli/images/PICTURE_340.png,LETTER,5c7ba5be2ceba0001668b9b9,12/03/2000,2020-08-27_15h41.00.115,proactive3.2,2020.1.2,Win32,60,5f47c0b9b035471e11593a5c,5f47c5ad25bc3c0a5420e69a,6,,,,,,mirror,,,,,,0,24,24,24,1,3,1,,,,,,,,,,,,,,,,,,,,,,,,,,,,,,,,,,,,,,,,,,,,,,,,,,,,,,,,,,,,,,,,,,,,,,,,,,,
,,,,,,,,,,stimuli/images/PICTURE_208.png,SYSTEM,5c7ba5be2ceba0001668b9b9,12/03/2000,2020-08-27_15h41.00.115,proactive3.2,2020.1.2,Win32,60,5f47c0b9b035471e11593a5c,5f47c5ad25bc3c0a5420e69a,6,,,,,,microphone,,,,,,0,25,25,32,1,4,1,,,,,,,,,,,,,,,,,,,,,,,,,,,,,,,,,,,,,,,,,,,,,,,,,,,,,,,,,,,,,,,,,,,,,,,,,,,
,,,,,,,,,,stimuli/images/PICTURE_564.png,BATH,5c7ba5be2ceba0001668b9b9,12/03/2000,2020-08-27_15h41.00.115,proactive3.2,2020.1.2,Win32,60,5f47c0b9b035471e11593a5c,5f47c5ad25bc3c0a5420e69a,6,,,,,,spoon,,,,,,0,26,26,26,1,3,1,,,,,,,,,,,,,,,,,,,,,,,,,,,,,,,,,,,,,,,,,,,,,,,,,,,,,,,,,,,,,,,,,,,,,,,,,,,
,,,,,,,,,,stimuli/images/PICTURE_685.png,PENNY,5c7ba5be2ceba0001668b9b9,12/03/2000,2020-08-27_15h41.00.115,proactive3.2,2020.1.2,Win32,60,5f47c0b9b035471e11593a5c,5f47c5ad25bc3c0a5420e69a,6,,,,,,goose,,,,,,0,27,27,4,1,1,1,,,,,,,,,,,,,,,,,,,,,,,,,,,,,,,,,,,,,,,,,,,,,,,,,,,,,,,,,,,,,,,,,,,,,,,,,,,
,,,,,,,,,,stimuli/images/PICTURE_403.png,RIVER,5c7ba5be2ceba0001668b9b9,12/03/2000,2020-08-27_15h41.00.115,proactive3.2,2020.1.2,Win32,60,5f47c0b9b035471e11593a5c,5f47c5ad25bc3c0a5420e69a,6,,,,,,cathedral,,,,,,0,28,28,40,1,5,1,,,,,,,,,,,,,,,,,,,,,,,,,,,,,,,,,,,,,,,,,,,,,,,,,,,,,,,,,,,,,,,,,,,,,,,,,,,
,,,,,,,,,,stimuli/images/PICTURE_233.png,LOTS,5c7ba5be2ceba0001668b9b9,12/03/2000,2020-08-27_15h41.00.115,proactive3.2,2020.1.2,Win32,60,5f47c0b9b035471e11593a5c,5f47c5ad25bc3c0a5420e69a,6,,,,,,salt,,,,,,0,29,29,42,1,5,1,,,,,,,,,,,,,,,,,,,,,,,,,,,,,,,,,,,,,,,,,,,,,,,,,,,,,,,,,,,,,,,,,,,,,,,,,,,
,,,,,,,,,,stimuli/images/PICTURE_95.png,HONEY,5c7ba5be2ceba0001668b9b9,12/03/2000,2020-08-27_15h41.00.115,proactive3.2,2020.1.2,Win32,60,5f47c0b9b035471e11593a5c,5f47c5ad25bc3c0a5420e69a,6,,,,,,suitcase,,,,,,0,30,30,44,1,5,1,,,,,,,,,,,,,,,,,,,,,,,,,,,,,,,,,,,,,,,,,,,,,,,,,,,,,,,,,,,,,,,,,,,,,,,,,,,
,,,,,,,,,,stimuli/images/PICTURE_32.png,PILLS,5c7ba5be2ceba0001668b9b9,12/03/2000,2020-08-27_15h41.00.115,proactive3.2,2020.1.2,Win32,60,5f47c0b9b035471e11593a5c,5f47c5ad25bc3c0a5420e69a,6,,,,,,crown,,,,,,0,31,31,18,1,2,1,,,,,,,,,,,,,,,,,,,,,,,,,,,,,,,,,,,,,,,,,,,,,,,,,,,,,,,,,,,,,,,,,,,,,,,,,,,
,,,,,,,,,,stimuli/images/PICTURE_491.png,RIVER,5c7ba5be2ceba0001668b9b9,12/03/2000,2020-08-27_15h41.00.115,proactive3.2,2020.1.2,Win32,60,5f47c0b9b035471e11593a5c,5f47c5ad25bc3c0a5420e69a,6,,,,,,rug,,,,,,0,32,32,6,1,1,1,,,,,,,,,,,,,,,,,,,,,,,,,,,,,,,,,,,,,,,,,,,,,,,,,,,,,,,,,,,,,,,,,,,,,,,,,,,
,,,,,,,,,,stimuli/images/PICTURE_504.png,YEAR,5c7ba5be2ceba0001668b9b9,12/03/2000,2020-08-27_15h41.00.115,proactive3.2,2020.1.2,Win32,60,5f47c0b9b035471e11593a5c,5f47c5ad25bc3c0a5420e69a,6,,,,,,wheel,,,,,,0,33,33,13,1,2,1,,,,,,,,,,,,,,,,,,,,,,,,,,,,,,,,,,,,,,,,,,,,,,,,,,,,,,,,,,,,,,,,,,,,,,,,,,,
,,,,,,,,,,stimuli/images/PICTURE_744.png,WEAPON,5c7ba5be2ceba0001668b9b9,12/03/2000,2020-08-27_15h41.00.115,proactive3.2,2020.1.2,Win32,60,5f47c0b9b035471e11593a5c,5f47c5ad25bc3c0a5420e69a,6,,,,,,ring,,,,,,0,34,34,50,1,6,1,,,,,,,,,,,,,,,,,,,,,,,,,,,,,,,,,,,,,,,,,,,,,,,,,,,,,,,,,,,,,,,,,,,,,,,,,,,
,,,,,,,,,,stimuli/images/PICTURE_504.png,COPS,5c7ba5be2ceba0001668b9b9,12/03/2000,2020-08-27_15h41.00.115,proactive3.2,2020.1.2,Win32,60,5f47c0b9b035471e11593a5c,5f47c5ad25bc3c0a5420e69a,6,,,,,,wheel,,,,,,0,35,35,52,1,6,1,,,,,,,,,,,,,,,,,,,,,,,,,,,,,,,,,,,,,,,,,,,,,,,,,,,,,,,,,,,,,,,,,,,,,,,,,,,
,,,,,,,,,,stimuli/images/PICTURE_147.png,WOMEN,5c7ba5be2ceba0001668b9b9,12/03/2000,2020-08-27_15h41.00.115,proactive3.2,2020.1.2,Win32,60,5f47c0b9b035471e11593a5c,5f47c5ad25bc3c0a5420e69a,6,,,,,,hanger,,,,,,0,36,36,7,1,1,1,,,,,,,,,,,,,,,,,,,,,,,,,,,,,,,,,,,,,,,,,,,,,,,,,,,,,,,,,,,,,,,,,,,,,,,,,,,
,,,,,,,,,,stimuli/images/PICTURE_95.png,MILLER,5c7ba5be2ceba0001668b9b9,12/03/2000,2020-08-27_15h41.00.115,proactive3.2,2020.1.2,Win32,60,5f47c0b9b035471e11593a5c,5f47c5ad25bc3c0a5420e69a,6,,,,,,suitcase,,,,,,0,37,37,56,1,6,1,,,,,,,,,,,,,,,,,,,,,,,,,,,,,,,,,,,,,,,,,,,,,,,,,,,,,,,,,,,,,,,,,,,,,,,,,,,
,,,,,,,,,,stimuli/images/PICTURE_467.png,POLICY,5c7ba5be2ceba0001668b9b9,12/03/2000,2020-08-27_15h41.00.115,proactive3.2,2020.1.2,Win32,60,5f47c0b9b035471e11593a5c,5f47c5ad25bc3c0a5420e69a,6,,,,,,peg,,,,,,0,38,38,53,1,6,1,,,,,,,,,,,,,,,,,,,,,,,,,,,,,,,,,,,,,,,,,,,,,,,,,,,,,,,,,,,,,,,,,,,,,,,,,,,
,,,,,,,,,,stimuli/images/PICTURE_108.png,FLIGHT,5c7ba5be2ceba0001668b9b9,12/03/2000,2020-08-27_15h41.00.115,proactive3.2,2020.1.2,Win32,60,5f47c0b9b035471e11593a5c,5f47c5ad25bc3c0a5420e69a,6,,,,,,calendar,,,,,,0,39,39,59,1,6,1,,,,,,,,,,,,,,,,,,,,,,,,,,,,,,,,,,,,,,,,,,,,,,,,,,,,,,,,,,,,,,,,,,,,,,,,,,,
,,,,,,,,,,stimuli/images/PICTURE_42.png,BOYS,5c7ba5be2ceba0001668b9b9,12/03/2000,2020-08-27_15h41.00.115,proactive3.2,2020.1.2,Win32,60,5f47c0b9b035471e11593a5c,5f47c5ad25bc3c0a5420e69a,6,,,,,,pear,,,,,,0,40,40,55,1,6,1,,,,,,,,,,,,,,,,,,,,,,,,,,,,,,,,,,,,,,,,,,,,,,,,,,,,,,,,,,,,,,,,,,,,,,,,,,,
,,,,,,,,,,stimuli/images/PICTURE_750.png,HOTEL,5c7ba5be2ceba0001668b9b9,12/03/2000,2020-08-27_15h41.00.115,proactive3.2,2020.1.2,Win32,60,5f47c0b9b035471e11593a5c,5f47c5ad25bc3c0a5420e69a,6,,,,,,kettle,,,,,,0,41,41,27,1,3,1,,,,,,,,,,,,,,,,,,,,,,,,,,,,,,,,,,,,,,,,,,,,,,,,,,,,,,,,,,,,,,,,,,,,,,,,,,,
,,,,,,,,,,stimuli/images/PICTURE_296.png,LIFE,5c7ba5be2ceba0001668b9b9,12/03/2000,2020-08-27_15h41.00.115,proactive3.2,2020.1.2,Win32,60,5f47c0b9b035471e11593a5c,5f47c5ad25bc3c0a5420e69a,6,,,,,,bolt,,,,,,0,42,42,57,1,6,1,,,,,,,,,,,,,,,,,,,,,,,,,,,,,,,,,,,,,,,,,,,,,,,,,,,,,,,,,,,,,,,,,,,,,,,,,,,
,,,,,,,,,,stimuli/images/PICTURE_469.png,AGENT,5c7ba5be2ceba0001668b9b9,12/03/2000,2020-08-27_15h41.00.115,proactive3.2,2020.1.2,Win32,60,5f47c0b9b035471e11593a5c,5f47c5ad25bc3c0a5420e69a,6,,,,,,stool,,,,,,0,43,43,16,1,2,1,,,,,,,,,,,,,,,,,,,,,,,,,,,,,,,,,,,,,,,,,,,,,,,,,,,,,,,,,,,,,,,,,,,,,,,,,,,
,,,,,,,,,,stimuli/images/PICTURE_2.png,FLIGHT,5c7ba5be2ceba0001668b9b9,12/03/2000,2020-08-27_15h41.00.115,proactive3.2,2020.1.2,Win32,60,5f47c0b9b035471e11593a5c,5f47c5ad25bc3c0a5420e69a,6,,,,,,tyre,,,,,,0,44,44,15,1,2,1,,,,,,,,,,,,,,,,,,,,,,,,,,,,,,,,,,,,,,,,,,,,,,,,,,,,,,,,,,,,,,,,,,,,,,,,,,,
,,,,,,,,,,stimuli/images/PICTURE_57.png,MOMENT,5c7ba5be2ceba0001668b9b9,12/03/2000,2020-08-27_15h41.00.115,proactive3.2,2020.1.2,Win32,60,5f47c0b9b035471e11593a5c,5f47c5ad25bc3c0a5420e69a,6,,,,,,stamp,,,,,,0,45,45,37,1,4,1,,,,,,,,,,,,,,,,,,,,,,,,,,,,,,,,,,,,,,,,,,,,,,,,,,,,,,,,,,,,,,,,,,,,,,,,,,,
,,,,,,,,,,stimuli/images/PICTURE_383.png,SERIES,5c7ba5be2ceba0001668b9b9,12/03/2000,2020-08-27_15h41.00.115,proactive3.2,2020.1.2,Win32,60,5f47c0b9b035471e11593a5c,5f47c5ad25bc3c0a5420e69a,6,,,,,,coin,,,,,,0,46,46,46,1,5,1,,,,,,,,,,,,,,,,,,,,,,,,,,,,,,,,,,,,,,,,,,,,,,,,,,,,,,,,,,,,,,,,,,,,,,,,,,,
,,,,,,,,,,stimuli/images/PICTURE_203.png,NIGHT,5c7ba5be2ceba0001668b9b9,12/03/2000,2020-08-27_15h41.00.115,proactive3.2,2020.1.2,Win32,60,5f47c0b9b035471e11593a5c,5f47c5ad25bc3c0a5420e69a,6,,,,,,cap,,,,,,0,47,47,2,1,1,1,,,,,,,,,,,,,,,,,,,,,,,,,,,,,,,,,,,,,,,,,,,,,,,,,,,,,,,,,,,,,,,,,,,,,,,,,,,
,,,,,,,,,,stimuli/images/PICTURE_177.png,WRITER,5c7ba5be2ceba0001668b9b9,12/03/2000,2020-08-27_15h41.00.115,proactive3.2,2020.1.2,Win32,60,5f47c0b9b035471e11593a5c,5f47c5ad25bc3c0a5420e69a,6,,,,,,mushroom,,,,,,0,48,48,41,1,5,1,,,,,,,,,,,,,,,,,,,,,,,,,,,,,,,,,,,,,,,,,,,,,,,,,,,,,,,,,,,,,,,,,,,,,,,,,,,
,,,,,,,,,,stimuli/images/PICTURE_32.png,KIND,5c7ba5be2ceba0001668b9b9,12/03/2000,2020-08-27_15h41.00.115,proactive3.2,2020.1.2,Win32,60,5f47c0b9b035471e11593a5c,5f47c5ad25bc3c0a5420e69a,6,,,,,,crown,,,,,,0,49,49,35,1,4,1,,,,,,,,,,,,,,,,,,,,,,,,,,,,,,,,,,,,,,,,,,,,,,,,,,,,,,,,,,,,,,,,,,,,,,,,,,,
,,,,,,,,,,stimuli/images/PICTURE_297.png,RIVER,5c7ba5be2ceba0001668b9b9,12/03/2000,2020-08-27_15h41.00.115,proactive3.2,2020.1.2,Win32,60,5f47c0b9b035471e11593a5c,5f47c5ad25bc3c0a5420e69a,6,,,,,,aeroplane,,,,,,0,50,50,39,1,4,1,,,,,,,,,,,,,,,,,,,,,,,,,,,,,,,,,,,,,,,,,,,,,,,,,,,,,,,,,,,,,,,,,,,,,,,,,,,
,,,,,,,,,,stimuli/images/PICTURE_68.png,ROOF,5c7ba5be2ceba0001668b9b9,12/03/2000,2020-08-27_15h41.00.115,proactive3.2,2020.1.2,Win32,60,5f47c0b9b035471e11593a5c,5f47c5ad25bc3c0a5420e69a,6,,,,,,candle,,,,,,0,51,51,38,1,4,1,,,,,,,,,,,,,,,,,,,,,,,,,,,,,,,,,,,,,,,,,,,,,,,,,,,,,,,,,,,,,,,,,,,,,,,,,,,
,,,,,,,,,,stimuli/images/PICTURE_340.png,VALLEY,5c7ba5be2ceba0001668b9b9,12/03/2000,2020-08-27_15h41.00.115,proactive3.2,2020.1.2,Win32,60,5f47c0b9b035471e11593a5c,5f47c5ad25bc3c0a5420e69a,6,,,,,,mirror,,,,,,0,52,52,54,1,6,1,,,,,,,,,,,,,,,,,,,,,,,,,,,,,,,,,,,,,,,,,,,,,,,,,,,,,,,,,,,,,,,,,,,,,,,,,,,
,,,,,,,,,,stimuli/images/PICTURE_108.png,POLICY,5c7ba5be2ceba0001668b9b9,12/03/2000,2020-08-27_15h41.00.115,proactive3.2,2020.1.2,Win32,60,5f47c0b9b035471e11593a5c,5f47c5ad25bc3c0a5420e69a,6,,,,,,calendar,,,,,,0,53,53,22,1,3,1,,,,,,,,,,,,,,,,,,,,,,,,,,,,,,,,,,,,,,,,,,,,,,,,,,,,,,,,,,,,,,,,,,,,,,,,,,,
,,,,,,,,,,stimuli/images/PICTURE_339.png,CLIENT,5c7ba5be2ceba0001668b9b9,12/03/2000,2020-08-27_15h41.00.115,proactive3.2,2020.1.2,Win32,60,5f47c0b9b035471e11593a5c,5f47c5ad25bc3c0a5420e69a,6,,,,,,backpack,,,,,,0,54,54,11,1,2,1,,,,,,,,,,,,,,,,,,,,,,,,,,,,,,,,,,,,,,,,,,,,,,,,,,,,,,,,,,,,,,,,,,,,,,,,,,,
,,,,,,,,,,stimuli/images/PICTURE_675.png,SALE,5c7ba5be2ceba0001668b9b9,12/03/2000,2020-08-27_15h41.00.115,proactive3.2,2020.1.2,Win32,60,5f47c0b9b035471e11593a5c,5f47c5ad25bc3c0a5420e69a,6,,,,,,windmill,,,,,,0,55,55,47,1,5,1,,,,,,,,,,,,,,,,,,,,,,,,,,,,,,,,,,,,,,,,,,,,,,,,,,,,,,,,,,,,,,,,,,,,,,,,,,,
,,,,,,,,,,stimuli/images/PICTURE_33.png,FRIEND,5c7ba5be2ceba0001668b9b9,12/03/2000,2020-08-27_15h41.00.115,proactive3.2,2020.1.2,Win32,60,5f47c0b9b035471e11593a5c,5f47c5ad25bc3c0a5420e69a,6,,,,,,frame,,,,,,0,56,56,8,1,1,1,,,,,,,,,,,,,,,,,,,,,,,,,,,,,,,,,,,,,,,,,,,,,,,,,,,,,,,,,,,,,,,,,,,,,,,,,,,
,,,,,,,,,,stimuli/images/PICTURE_405.png,PLENTY,5c7ba5be2ceba0001668b9b9,12/03/2000,2020-08-27_15h41.00.115,proactive3.2,2020.1.2,Win32,60,5f47c0b9b035471e11593a5c,5f47c5ad25bc3c0a5420e69a,6,,,,,,anchor,,,,,,0,57,57,23,1,3,1,,,,,,,,,,,,,,,,,,,,,,,,,,,,,,,,,,,,,,,,,,,,,,,,,,,,,,,,,,,,,,,,,,,,,,,,,,,
,,,,,,,,,,stimuli/images/PICTURE_308.png,FAMILY,5c7ba5be2ceba0001668b9b9,12/03/2000,2020-08-27_15h41.00.115,proactive3.2,2020.1.2,Win32,60,5f47c0b9b035471e11593a5c,5f47c5ad25bc3c0a5420e69a,6,,,,,,dice,,,,,,0,58,58,36,1,4,1,,,,,,,,,,,,,,,,,,,,,,,,,,,,,,,,,,,,,,,,,,,,,,,,,,,,,,,,,,,,,,,,,,,,,,,,,,,
,,?,0.00178,0,,,,,,stimuli/images/PICTURE_340.png,LETTER,5c7ba5be2ceba0001668b9b9,12/03/2000,2020-08-27_15h41.00.115,proactive3.2,2020.1.2,Win32,60,5f47c0b9b035471e11593a5c,5f47c5ad25bc3c0a5420e69a,6,,,,,,mirror,,,,,,,,,,,3,1,0,0,0,24,1,,,,,,,,,,,,,,,,,,,,,,,,,,,,,,,,,,,,,,,,,,,,,,,,,,,,,,,,,,,,,,,,,,,,,,
,,PEAR,2.71073,0,,,,,,stimuli/images/PICTURE_42.png,BOYS,5c7ba5be2ceba0001668b9b9,12/03/2000,2020-08-27_15h41.00.115,proactive3.2,2020.1.2,Win32,60,5f47c0b9b035471e11593a5c,5f47c5ad25bc3c0a5420e69a,6,,,,,,pear,,,,,,,,,,,6,1,0,1,1,55,1,,,,,,,,,,,,,,,,,,,,,,,,,,,,,,,,,,,,,,,,,,,,,,,,,,,,,,,,,,,,,,,,,,,,,,
,,?,0.001535,0,,,,,,stimuli/images/PICTURE_383.png,WRITER,5c7ba5be2ceba0001668b9b9,12/03/2000,2020-08-27_15h41.00.115,proactive3.2,2020.1.2,Win32,60,5f47c0b9b035471e11593a5c,5f47c5ad25bc3c0a5420e69a,6,,,,,,coin,,,,,,,,,,,3,1,0,2,2,28,1,,,,,,,,,,,,,,,,,,,,,,,,,,,,,,,,,,,,,,,,,,,,,,,,,,,,,,,,,,,,,,,,,,,,,,
,,?,5.519995,0,,,,,,stimuli/images/PICTURE_708.png,RECORD,5c7ba5be2ceba0001668b9b9,12/03/2000,2020-08-27_15h41.00.115,proactive3.2,2020.1.2,Win32,60,5f47c0b9b035471e11593a5c,5f47c5ad25bc3c0a5420e69a,6,,,,,,monkey,,,,,,,,,,,6,1,0,3,3,58,1,,,,,,,,,,,,,,,,,,,,,,,,,,,,,,,,,,,,,,,,,,,,,,,,,,,,,,,,,,,,,,,,,,,,,,
,,?,0.00214,0,,,,,,stimuli/images/PICTURE_685.png,PENNY,5c7ba5be2ceba0001668b9b9,12/03/2000,2020-08-27_15h41.00.115,proactive3.2,2020.1.2,Win32,60,5f47c0b9b035471e11593a5c,5f47c5ad25bc3c0a5420e69a,6,,,,,,goose,,,,,,,,,,,1,1,0,4,4,4,1,,,,,,,,,,,,,,,,,,,,,,,,,,,,,,,,,,,,,,,,,,,,,,,,,,,,,,,,,,,,,,,,,,,,,,
,,?,0.001515,0,,,,,,stimuli/images/PICTURE_405.png,YEAR,5c7ba5be2ceba0001668b9b9,12/03/2000,2020-08-27_15h41.00.115,proactive3.2,2020.1.2,Win32,60,5f47c0b9b035471e11593a5c,5f47c5ad25bc3c0a5420e69a,6,,,,,,anchor,,,,,,,,,,,4,1,0,5,5,34,1,,,,,,,,,,,,,,,,,,,,,,,,,,,,,,,,,,,,,,,,,,,,,,,,,,,,,,,,,,,,,,,,,,,,,,
,,?,0.00152,0,,,,,,stimuli/images/PICTURE_85.png,TOILET,5c7ba5be2ceba0001668b9b9,12/03/2000,2020-08-27_15h41.00.115,proactive3.2,2020.1.2,Win32,60,5f47c0b9b035471e11593a5c,5f47c5ad25bc3c0a5420e69a,6,,,,,,diamond,,,,,,,,,,,5,1,0,6,6,48,1,,,,,,,,,,,,,,,,,,,,,,,,,,,,,,,,,,,,,,,,,,,,,,,,,,,,,,,,,,,,,,,,,,,,,,
,,?,0.00171,0,,,,,,stimuli/images/PICTURE_32.png,KIND,5c7ba5be2ceba0001668b9b9,12/03/2000,2020-08-27_15h41.00.115,proactive3.2,2020.1.2,Win32,60,5f47c0b9b035471e11593a5c,5f47c5ad25bc3c0a5420e69a,6,,,,,,crown,,,,,,,,,,,4,1,0,7,7,35,1,,,,,,,,,,,,,,,,,,,,,,,,,,,,,,,,,,,,,,,,,,,,,,,,,,,,,,,,,,,,,,,,,,,,,,
,,VALLEY,2.75893,1,,,,,,stimuli/images/PICTURE_340.png,VALLEY,5c7ba5be2ceba0001668b9b9,12/03/2000,2020-08-27_15h41.00.115,proactive3.2,2020.1.2,Win32,60,5f47c0b9b035471e11593a5c,5f47c5ad25bc3c0a5420e69a,6,,,,,,mirror,,,,,,,,,,,6,1,0,8,8,54,1,,,,,,,,,,,,,,,,,,,,,,,,,,,,,,,,,,,,,,,,,,,,,,,,,,,,,,,,,,,,,,,,,,,,,,
,,?,0.00176,0,,,,,,stimuli/images/PICTURE_32.png,PILLS,5c7ba5be2ceba0001668b9b9,12/03/2000,2020-08-27_15h41.00.115,proactive3.2,2020.1.2,Win32,60,5f47c0b9b035471e11593a5c,5f47c5ad25bc3c0a5420e69a,6,,,,,,crown,,,,,,,,,,,2,1,0,9,9,18,1,,,,,,,,,,,,,,,,,,,,,,,,,,,,,,,,,,,,,,,,,,,,,,,,,,,,,,,,,,,,,,,,,,,,,,
,,?,0.0015,0,,,,,,stimuli/images/PICTURE_491.png,GLASS,5c7ba5be2ceba0001668b9b9,12/03/2000,2020-08-27_15h41.00.115,proactive3.2,2020.1.2,Win32,60,5f47c0b9b035471e11593a5c,5f47c5ad25bc3c0a5420e69a,6,,,,,,rug,,,,,,,,,,,2,1,0,10,10,14,1,,,,,,,,,,,,,,,,,,,,,,,,,,,,,,,,,,,,,,,,,,,,,,,,,,,,,,,,,,,,,,,,,,,,,,
,,?,0.001485,0,,,,,,stimuli/images/PICTURE_297.png,RIVER,5c7ba5be2ceba0001668b9b9,12/03/2000,2020-08-27_15h41.00.115,proactive3.2,2020.1.2,Win32,60,5f47c0b9b035471e11593a5c,5f47c5ad25bc3c0a5420e69a,6,,,,,,aeroplane,,,,,,,,,,,4,1,0,11,11,39,1,,,,,,,,,,,,,,,,,,,,,,,,,,,,,,,,,,,,,,,,,,,,,,,,,,,,,,,,,,,,,,,,,,,,,,
,,?,0.001435,0,,,,,,stimuli/images/PICTURE_108.png,POLICY,5c7ba5be2ceba0001668b9b9,12/03/2000,2020-08-27_15h41.00.115,proactive3.2,2020.1.2,Win32,60,5f47c0b9b035471e11593a5c,5f47c5ad25bc3c0a5420e69a,6,,,,,,calendar,,,,,,,,,,,3,1,0,12,12,22,1,,,,,,,,,,,,,,,,,,,,,,,,,,,,,,,,,,,,,,,,,,,,,,,,,,,,,,,,,,,,,,,,,,,,,,
,,?,0.001575,0,,,,,,stimuli/images/PICTURE_177.png,WRITER,5c7ba5be2ceba0001668b9b9,12/03/2000,2020-08-27_15h41.00.115,proactive3.2,2020.1.2,Win32,60,5f47c0b9b035471e11593a5c,5f47c5ad25bc3c0a5420e69a,6,,,,,,mushroom,,,,,,,,,,,5,1,0,13,13,41,1,,,,,,,,,,,,,,,,,,,,,,,,,,,,,,,,,,,,,,,,,,,,,,,,,,,,,,,,,,,,,,,,,,,,,,
,,?,0.001455,0,,,,,,stimuli/images/PICTURE_504.png,YEAR,5c7ba5be2ceba0001668b9b9,12/03/2000,2020-08-27_15h41.00.115,proactive3.2,2020.1.2,Win32,60,5f47c0b9b035471e11593a5c,5f47c5ad25bc3c0a5420e69a,6,,,,,,wheel,,,,,,,,,,,2,1,0,14,14,13,1,,,,,,,,,,,,,,,,,,,,,,,,,,,,,,,,,,,,,,,,,,,,,,,,,,,,,,,,,,,,,,,,,,,,,,
,,?,0.001575,0,,,,,,stimuli/images/PICTURE_147.png,WOMEN,5c7ba5be2ceba0001668b9b9,12/03/2000,2020-08-27_15h41.00.115,proactive3.2,2020.1.2,Win32,60,5f47c0b9b035471e11593a5c,5f47c5ad25bc3c0a5420e69a,6,,,,,,hanger,,,,,,,,,,,1,1,0,15,15,7,1,,,,,,,,,,,,,,,,,,,,,,,,,,,,,,,,,,,,,,,,,,,,,,,,,,,,,,,,,,,,,,,,,,,,,,
,,?,0.001855,0,,,,,,stimuli/images/PICTURE_339.png,CLIENT,5c7ba5be2ceba0001668b9b9,12/03/2000,2020-08-27_15h41.00.115,proactive3.2,2020.1.2,Win32,60,5f47c0b9b035471e11593a5c,5f47c5ad25bc3c0a5420e69a,6,,,,,,backpack,,,,,,,,,,,2,1,0,16,16,11,1,,,,,,,,,,,,,,,,,,,,,,,,,,,,,,,,,,,,,,,,,,,,,,,,,,,,,,,,,,,,,,,,,,,,,,
,,?,0.00181,0,,,,,,stimuli/images/PICTURE_564.png,BATH,5c7ba5be2ceba0001668b9b9,12/03/2000,2020-08-27_15h41.00.115,proactive3.2,2020.1.2,Win32,60,5f47c0b9b035471e11593a5c,5f47c5ad25bc3c0a5420e69a,6,,,,,,spoon,,,,,,,,,,,3,1,0,17,17,26,1,,,,,,,,,,,,,,,,,,,,,,,,,,,,,,,,,,,,,,,,,,,,,,,,,,,,,,,,,,,,,,,,,,,,,,
,,?,0.00174,0,,,,,,stimuli/images/PICTURE_667.png,RIVER,5c7ba5be2ceba0001668b9b9,12/03/2000,2020-08-27_15h41.00.115,proactive3.2,2020.1.2,Win32,60,5f47c0b9b035471e11593a5c,5f47c5ad25bc3c0a5420e69a,6,,,,,,daisy,,,,,,,,,,,2,1,0,18,18,10,1,,,,,,,,,,,,,,,,,,,,,,,,,,,,,,,,,,,,,,,,,,,,,,,,,,,,,,,,,,,,,,,,,,,,,,
,,?,0.001465,0,,,,,,stimuli/images/PICTURE_308.png,FAMILY,5c7ba5be2ceba0001668b9b9,12/03/2000,2020-08-27_15h41.00.115,proactive3.2,2020.1.2,Win32,60,5f47c0b9b035471e11593a5c,5f47c5ad25bc3c0a5420e69a,6,,,,,,dice,,,,,,,,,,,4,1,0,19,19,36,1,,,,,,,,,,,,,,,,,,,,,,,,,,,,,,,,,,,,,,,,,,,,,,,,,,,,,,,,,,,,,,,,,,,,,,
,,?,0.00199,0,,,,,,stimuli/images/PICTURE_403.png,RIVER,5c7ba5be2ceba0001668b9b9,12/03/2000,2020-08-27_15h41.00.115,proactive3.2,2020.1.2,Win32,60,5f47c0b9b035471e11593a5c,5f47c5ad25bc3c0a5420e69a,6,,,,,,cathedral,,,,,,,,,,,5,1,0,20,20,40,1,,,,,,,,,,,,,,,,,,,,,,,,,,,,,,,,,,,,,,,,,,,,,,,,,,,,,,,,,,,,,,,,,,,,,,
,,MILLER,2.744045,1,,,,,,stimuli/images/PICTURE_95.png,MILLER,5c7ba5be2ceba0001668b9b9,12/03/2000,2020-08-27_15h41.00.115,proactive3.2,2020.1.2,Win32,60,5f47c0b9b035471e11593a5c,5f47c5ad25bc3c0a5420e69a,6,,,,,,suitcase,,,,,,,,,,,6,1,0,21,21,56,1,,,,,,,,,,,,,,,,,,,,,,,,,,,,,,,,,,,,,,,,,,,,,,,,,,,,,,,,,,,,,,,,,,,,,,
,,WEAPON,2.3948,1,,,,,,stimuli/images/PICTURE_744.png,WEAPON,5c7ba5be2ceba0001668b9b9,12/03/2000,2020-08-27_15h41.00.115,proactive3.2,2020.1.2,Win32,60,5f47c0b9b035471e11593a5c,5f47c5ad25bc3c0a5420e69a,6,,,,,,ring,,,,,,,,,,,6,1,0,22,22,50,1,,,,,,,,,,,,,,,,,,,,,,,,,,,,,,,,,,,,,,,,,,,,,,,,,,,,,,,,,,,,,,,,,,,,,,
,,FLIGHT,1.746495,1,,,,,,stimuli/images/PICTURE_108.png,FLIGHT,5c7ba5be2ceba0001668b9b9,12/03/2000,2020-08-27_15h41.00.115,proactive3.2,2020.1.2,Win32,60,5f47c0b9b035471e11593a5c,5f47c5ad25bc3c0a5420e69a,6,,,,,,calendar,,,,,,,,,,,6,1,0,23,23,59,1,,,,,,,,,,,,,,,,,,,,,,,,,,,,,,,,,,,,,,,,,,,,,,,,,,,,,,,,,,,,,,,,,,,,,,
,,COPS,6.406955,1,,,,,,stimuli/images/PICTURE_504.png,COPS,5c7ba5be2ceba0001668b9b9,12/03/2000,2020-08-27_15h41.00.115,proactive3.2,2020.1.2,Win32,60,5f47c0b9b035471e11593a5c,5f47c5ad25bc3c0a5420e69a,6,,,,,,wheel,,,,,,,,,,,6,1,0,24,24,52,1,,,,,,,,,,,,,,,,,,,,,,,,,,,,,,,,,,,,,,,,,,,,,,,,,,,,,,,,,,,,,,,,,,,,,,
,,?,0.002035,0,,,,,,stimuli/images/PICTURE_147.png,YEAR,5c7ba5be2ceba0001668b9b9,12/03/2000,2020-08-27_15h41.00.115,proactive3.2,2020.1.2,Win32,60,5f47c0b9b035471e11593a5c,5f47c5ad25bc3c0a5420e69a,6,,,,,,hanger,,,,,,,,,,,3,1,0,25,25,21,1,,,,,,,,,,,,,,,,,,,,,,,,,,,,,,,,,,,,,,,,,,,,,,,,,,,,,,,,,,,,,,,,,,,,,,
,,?,0.00142,0,,,,,,stimuli/images/PICTURE_203.png,GODS,5c7ba5be2ceba0001668b9b9,12/03/2000,2020-08-27_15h41.00.115,proactive3.2,2020.1.2,Win32,60,5f47c0b9b035471e11593a5c,5f47c5ad25bc3c0a5420e69a,6,,,,,,cap,,,,,,,,,,,4,1,0,26,26,30,1,,,,,,,,,,,,,,,,,,,,,,,,,,,,,,,,,,,,,,,,,,,,,,,,,,,,,,,,,,,,,,,,,,,,,,
,,?,0.00142,0,,,,,,stimuli/images/PICTURE_654.png,MONTH,5c7ba5be2ceba0001668b9b9,12/03/2000,2020-08-27_15h41.00.115,proactive3.2,2020.1.2,Win32,60,5f47c0b9b035471e11593a5c,5f47c5ad25bc3c0a5420e69a,6,,,,,,pencil,,,,,,,,,,,3,1,0,27,27,29,1,,,,,,,,,,,,,,,,,,,,,,,,,,,,,,,,,,,,,,,,,,,,,,,,,,,,,,,,,,,,,,,,,,,,,,
,,?,0.001385,0,,,,,,stimuli/images/PICTURE_285.png,LIFE,5c7ba5be2ceba0001668b9b9,12/03/2000,2020-08-27_15h41.00.115,proactive3.2,2020.1.2,Win32,60,5f47c0b9b035471e11593a5c,5f47c5ad25bc3c0a5420e69a,6,,,,,,carrot,,,,,,,,,,,4,1,0,28,28,33,1,,,,,,,,,,,,,,,,,,,,,,,,,,,,,,,,,,,,,,,,,,,,,,,,,,,,,,,,,,,,,,,,,,,,,,
,,?,0.00145,0,,,,,,stimuli/images/PICTURE_85.png,NATION,5c7ba5be2ceba0001668b9b9,12/03/2000,2020-08-27_15h41.00.115,proactive3.2,2020.1.2,Win32,60,5f47c0b9b035471e11593a5c,5f47c5ad25bc3c0a5420e69a,6,,,,,,diamond,,,,,,,,,,,1,1,0,29,29,5,1,,,,,,,,,,,,,,,,,,,,,,,,,,,,,,,,,,,,,,,,,,,,,,,,,,,,,,,,,,,,,,,,,,,,,,
,,?,0.001385,0,,,,,,stimuli/images/PICTURE_203.png,NIGHT,5c7ba5be2ceba0001668b9b9,12/03/2000,2020-08-27_15h41.00.115,proactive3.2,2020.1.2,Win32,60,5f47c0b9b035471e11593a5c,5f47c5ad25bc3c0a5420e69a,6,,,,,,cap,,,,,,,,,,,1,1,0,30,30,2,1,,,,,,,,,,,,,,,,,,,,,,,,,,,,,,,,,,,,,,,,,,,,,,,,,,,,,,,,,,,,,,,,,,,,,,
,,?,0.00159,0,,,,,,stimuli/images/PICTURE_487.png,GIRL,5c7ba5be2ceba0001668b9b9,12/03/2000,2020-08-27_15h41.00.115,proactive3.2,2020.1.2,Win32,60,5f47c0b9b035471e11593a5c,5f47c5ad25bc3c0a5420e69a,6,,,,,,basket,,,,,,,,,,,5,1,0,31,31,45,1,,,,,,,,,,,,,,,,,,,,,,,,,,,,,,,,,,,,,,,,,,,,,,,,,,,,,,,,,,,,,,,,,,,,,,
,,?,0.00159,0,,,,,,stimuli/images/PICTURE_380.png,CANDY,5c7ba5be2ceba0001668b9b9,12/03/2000,2020-08-27_15h41.00.115,proactive3.2,2020.1.2,Win32,60,5f47c0b9b035471e11593a5c,5f47c5ad25bc3c0a5420e69a,6,,,,,,gorilla,,,,,,,,,,,1,1,0,32,32,0,1,,,,,,,,,,,,,,,,,,,,,,,,,,,,,,,,,,,,,,,,,,,,,,,,,,,,,,,,,,,,,,,,,,,,,,
,,?,0.00174,0,,,,,,stimuli/images/PICTURE_449.png,DUDE,5c7ba5be2ceba0001668b9b9,12/03/2000,2020-08-27_15h41.00.115,proactive3.2,2020.1.2,Win32,60,5f47c0b9b035471e11593a5c,5f47c5ad25bc3c0a5420e69a,6,,,,,,bench,,,,,,,,,,,2,1,0,33,33,17,1,,,,,,,,,,,,,,,,,,,,,,,,,,,,,,,,,,,,,,,,,,,,,,,,,,,,,,,,,,,,,,,,,,,,,,
,,?,0.001625,0,,,,,,stimuli/images/PICTURE_68.png,ROOF,5c7ba5be2ceba0001668b9b9,12/03/2000,2020-08-27_15h41.00.115,proactive3.2,2020.1.2,Win32,60,5f47c0b9b035471e11593a5c,5f47c5ad25bc3c0a5420e69a,6,,,,,,candle,,,,,,,,,,,4,1,0,34,34,38,1,,,,,,,,,,,,,,,,,,,,,,,,,,,,,,,,,,,,,,,,,,,,,,,,,,,,,,,,,,,,,,,,,,,,,,
,,?,0.00143,0,,,,,,stimuli/images/PICTURE_383.png,SERIES,5c7ba5be2ceba0001668b9b9,12/03/2000,2020-08-27_15h41.00.115,proactive3.2,2020.1.2,Win32,60,5f47c0b9b035471e11593a5c,5f47c5ad25bc3c0a5420e69a,6,,,,,,coin,,,,,,,,,,,5,1,0,35,35,46,1,,,,,,,,,,,,,,,,,,,,,,,,,,,,,,,,,,,,,,,,,,,,,,,,,,,,,,,,,,,,,,,,,,,,,,
,,?,0.001405,0,,,,,,stimuli/images/PICTURE_750.png,HOTEL,5c7ba5be2ceba0001668b9b9,12/03/2000,2020-08-27_15h41.00.115,proactive3.2,2020.1.2,Win32,60,5f47c0b9b035471e11593a5c,5f47c5ad25bc3c0a5420e69a,6,,,,,,kettle,,,,,,,,,,,3,1,0,36,36,27,1,,,,,,,,,,,,,,,,,,,,,,,,,,,,,,,,,,,,,,,,,,,,,,,,,,,,,,,,,,,,,,,,,,,,,,
,,MILE,2.212365,1,,,,,,stimuli/images/PICTURE_68.png,MILE,5c7ba5be2ceba0001668b9b9,12/03/2000,2020-08-27_15h41.00.115,proactive3.2,2020.1.2,Win32,60,5f47c0b9b035471e11593a5c,5f47c5ad25bc3c0a5420e69a,6,,,,,,candle,,,,,,,,,,,6,1,0,37,37,51,1,,,,,,,,,,,,,,,,,,,,,,,,,,,,,,,,,,,,,,,,,,,,,,,,,,,,,,,,,,,,,,,,,,,,,,
,,?,0.0017,0,,,,,,stimuli/images/PICTURE_95.png,HONEY,5c7ba5be2ceba0001668b9b9,12/03/2000,2020-08-27_15h41.00.115,proactive3.2,2020.1.2,Win32,60,5f47c0b9b035471e11593a5c,5f47c5ad25bc3c0a5420e69a,6,,,,,,suitcase,,,,,,,,,,,5,1,0,38,38,44,1,,,,,,,,,,,,,,,,,,,,,,,,,,,,,,,,,,,,,,,,,,,,,,,,,,,,,,,,,,,,,,,,,,,,,,
,,?,0.001505,0,,,,,,stimuli/images/PICTURE_95.png,BOYS,5c7ba5be2ceba0001668b9b9,12/03/2000,2020-08-27_15h41.00.115,proactive3.2,2020.1.2,Win32,60,5f47c0b9b035471e11593a5c,5f47c5ad25bc3c0a5420e69a,6,,,,,,suitcase,,,,,,,,,,,1,1,0,39,39,1,1,,,,,,,,,,,,,,,,,,,,,,,,,,,,,,,,,,,,,,,,,,,,,,,,,,,,,,,,,,,,,,,,,,,,,,
,,?,0.0013,0,,,,,,stimuli/images/PICTURE_469.png,AGENT,5c7ba5be2ceba0001668b9b9,12/03/2000,2020-08-27_15h41.00.115,proactive3.2,2020.1.2,Win32,60,5f47c0b9b035471e11593a5c,5f47c5ad25bc3c0a5420e69a,6,,,,,,stool,,,,,,,,,,,2,1,0,40,40,16,1,,,,,,,,,,,,,,,,,,,,,,,,,,,,,,,,,,,,,,,,,,,,,,,,,,,,,,,,,,,,,,,,,,,,,,
,,?,0.00127,0,,,,,,stimuli/images/PICTURE_403.png,WRITER,5c7ba5be2ceba0001668b9b9,12/03/2000,2020-08-27_15h41.00.115,proactive3.2,2020.1.2,Win32,60,5f47c0b9b035471e11593a5c,5f47c5ad25bc3c0a5420e69a,6,,,,,,cathedral,,,,,,,,,,,4,1,0,41,41,31,1,,,,,,,,,,,,,,,,,,,,,,,,,,,,,,,,,,,,,,,,,,,,,,,,,,,,,,,,,,,,,,,,,,,,,,
,,TYRE,2.973185,0,,,,,,stimuli/images/PICTURE_296.png,LIFE,5c7ba5be2ceba0001668b9b9,12/03/2000,2020-08-27_15h41.00.115,proactive3.2,2020.1.2,Win32,60,5f47c0b9b035471e11593a5c,5f47c5ad25bc3c0a5420e69a,6,,,,,,bolt,,,,,,,,,,,6,1,0,42,42,57,1,,,,,,,,,,,,,,,,,,,,,,,,,,,,,,,,,,,,,,,,,,,,,,,,,,,,,,,,,,,,,,,,,,,,,,
,,?,0.001535,0,,,,,,stimuli/images/PICTURE_296.png,LOTS,5c7ba5be2ceba0001668b9b9,12/03/2000,2020-08-27_15h41.00.115,proactive3.2,2020.1.2,Win32,60,5f47c0b9b035471e11593a5c,5f47c5ad25bc3c0a5420e69a,6,,,,,,bolt,,,,,,,,,,,1,1,0,43,43,9,1,,,,,,,,,,,,,,,,,,,,,,,,,,,,,,,,,,,,,,,,,,,,,,,,,,,,,,,,,,,,,,,,,,,,,,
,,?,0.001245,0,,,,,,stimuli/images/PICTURE_2.png,FLIGHT,5c7ba5be2ceba0001668b9b9,12/03/2000,2020-08-27_15h41.00.115,proactive3.2,2020.1.2,Win32,60,5f47c0b9b035471e11593a5c,5f47c5ad25bc3c0a5420e69a,6,,,,,,tyre,,,,,,,,,,,2,1,0,44,44,15,1,,,,,,,,,,,,,,,,,,,,,,,,,,,,,,,,,,,,,,,,,,,,,,,,,,,,,,,,,,,,,,,,,,,,,,
,,?,0.00124,0,,,,,,stimuli/images/PICTURE_403.png,TOILET,5c7ba5be2ceba0001668b9b9,12/03/2000,2020-08-27_15h41.00.115,proactive3.2,2020.1.2,Win32,60,5f47c0b9b035471e11593a5c,5f47c5ad25bc3c0a5420e69a,6,,,,,,cathedral,,,,,,,,,,,3,1,0,45,45,25,1,,,,,,,,,,,,,,,,,,,,,,,,,,,,,,,,,,,,,,,,,,,,,,,,,,,,,,,,,,,,,,,,,,,,,,
,,?,0.00124,0,,,,,,stimuli/images/PICTURE_491.png,RIVER,5c7ba5be2ceba0001668b9b9,12/03/2000,2020-08-27_15h41.00.115,proactive3.2,2020.1.2,Win32,60,5f47c0b9b035471e11593a5c,5f47c5ad25bc3c0a5420e69a,6,,,,,,rug,,,,,,,,,,,1,1,0,46,46,6,1,,,,,,,,,,,,,,,,,,,,,,,,,,,,,,,,,,,,,,,,,,,,,,,,,,,,,,,,,,,,,,,,,,,,,,
,,?,0.00127,0,,,,,,stimuli/images/PICTURE_33.png,FRIEND,5c7ba5be2ceba0001668b9b9,12/03/2000,2020-08-27_15h41.00.115,proactive3.2,2020.1.2,Win32,60,5f47c0b9b035471e11593a5c,5f47c5ad25bc3c0a5420e69a,6,,,,,,frame,,,,,,,,,,,1,1,0,47,47,8,1,,,,,,,,,,,,,,,,,,,,,,,,,,,,,,,,,,,,,,,,,,,,,,,,,,,,,,,,,,,,,,,,,,,,,,
,,?,0.0012,0,,,,,,stimuli/images/PICTURE_327.png,SERIES,5c7ba5be2ceba0001668b9b9,12/03/2000,2020-08-27_15h41.00.115,proactive3.2,2020.1.2,Win32,60,5f47c0b9b035471e11593a5c,5f47c5ad25bc3c0a5420e69a,6,,,,,,helmet,,,,,,,,,,,1,1,0,48,48,3,1,,,,,,,,,,,,,,,,,,,,,,,,,,,,,,,,,,,,,,,,,,,,,,,,,,,,,,,,,,,,,,,,,,,,,,
,,?,0.001205,0,,,,,,stimuli/images/PICTURE_675.png,SALE,5c7ba5be2ceba0001668b9b9,12/03/2000,2020-08-27_15h41.00.115,proactive3.2,2020.1.2,Win32,60,5f47c0b9b035471e11593a5c,5f47c5ad25bc3c0a5420e69a,6,,,,,,windmill,,,,,,,,,,,5,1,0,49,49,47,1,,,,,,,,,,,,,,,,,,,,,,,,,,,,,,,,,,,,,,,,,,,,,,,,,,,,,,,,,,,,,,,,,,,,,,
,,?,0.001205,0,,,,,,stimuli/images/PICTURE_655.png,TOILET,5c7ba5be2ceba0001668b9b9,12/03/2000,2020-08-27_15h41.00.115,proactive3.2,2020.1.2,Win32,60,5f47c0b9b035471e11593a5c,5f47c5ad25bc3c0a5420e69a,6,,,,,,megaphone,,,,,,,,,,,2,1,0,50,50,12,1,,,,,,,,,,,,,,,,,,,,,,,,,,,,,,,,,,,,,,,,,,,,,,,,,,,,,,,,,,,,,,,,,,,,,,
,,?,0.001195,0,,,,,,stimuli/images/PICTURE_405.png,PLENTY,5c7ba5be2ceba0001668b9b9,12/03/2000,2020-08-27_15h41.00.115,proactive3.2,2020.1.2,Win32,60,5f47c0b9b035471e11593a5c,5f47c5ad25bc3c0a5420e69a,6,,,,,,anchor,,,,,,,,,,,3,1,0,51,51,23,1,,,,,,,,,,,,,,,,,,,,,,,,,,,,,,,,,,,,,,,,,,,,,,,,,,,,,,,,,,,,,,,,,,,,,,
,,?,0.00124,0,,,,,,stimuli/images/PICTURE_208.png,SYSTEM,5c7ba5be2ceba0001668b9b9,12/03/2000,2020-08-27_15h41.00.115,proactive3.2,2020.1.2,Win32,60,5f47c0b9b035471e11593a5c,5f47c5ad25bc3c0a5420e69a,6,,,,,,microphone,,,,,,,,,,,4,1,0,52,52,32,1,,,,,,,,,,,,,,,,,,,,,,,,,,,,,,,,,,,,,,,,,,,,,,,,,,,,,,,,,,,,,,,,,,,,,,
,,?,0.001205,0,,,,,,stimuli/images/PICTURE_380.png,HONEY,5c7ba5be2ceba0001668b9b9,12/03/2000,2020-08-27_15h41.00.115,proactive3.2,2020.1.2,Win32,60,5f47c0b9b035471e11593a5c,5f47c5ad25bc3c0a5420e69a,6,,,,,,gorilla,,,,,,,,,,,2,1,0,53,53,19,1,,,,,,,,,,,,,,,,,,,,,,,,,,,,,,,,,,,,,,,,,,,,,,,,,,,,,,,,,,,,,,,,,,,,,,
,,?,0.001215,0,,,,,,stimuli/images/PICTURE_504.png,ARTIST,5c7ba5be2ceba0001668b9b9,12/03/2000,2020-08-27_15h41.00.115,proactive3.2,2020.1.2,Win32,60,5f47c0b9b035471e11593a5c,5f47c5ad25bc3c0a5420e69a,6,,,,,,wheel,,,,,,,,,,,5,1,0,54,54,49,1,,,,,,,,,,,,,,,,,,,,,,,,,,,,,,,,,,,,,,,,,,,,,,,,,,,,,,,,,,,,,,,,,,,,,,
,,?,0.001285,0,,,,,,stimuli/images/PICTURE_677.png,APPLE,5c7ba5be2ceba0001668b9b9,12/03/2000,2020-08-27_15h41.00.115,proactive3.2,2020.1.2,Win32,60,5f47c0b9b035471e11593a5c,5f47c5ad25bc3c0a5420e69a,6,,,,,,map,,,,,,,,,,,5,1,0,55,55,43,1,,,,,,,,,,,,,,,,,,,,,,,,,,,,,,,,,,,,,,,,,,,,,,,,,,,,,,,,,,,,,,,,,,,,,,
,,?,0.001235,0,,,,,,stimuli/images/PICTURE_233.png,LOTS,5c7ba5be2ceba0001668b9b9,12/03/2000,2020-08-27_15h41.00.115,proactive3.2,2020.1.2,Win32,60,5f47c0b9b035471e11593a5c,5f47c5ad25bc3c0a5420e69a,6,,,,,,salt,,,,,,,,,,,5,1,0,56,56,42,1,,,,,,,,,,,,,,,,,,,,,,,,,,,,,,,,,,,,,,,,,,,,,,,,,,,,,,,,,,,,,,,,,,,,,,
,,?,0.00118,0,,,,,,stimuli/images/PICTURE_327.png,CASINO,5c7ba5be2ceba0001668b9b9,12/03/2000,2020-08-27_15h41.00.115,proactive3.2,2020.1.2,Win32,60,5f47c0b9b035471e11593a5c,5f47c5ad25bc3c0a5420e69a,6,,,,,,helmet,,,,,,,,,,,3,1,0,57,57,20,1,,,,,,,,,,,,,,,,,,,,,,,,,,,,,,,,,,,,,,,,,,,,,,,,,,,,,,,,,,,,,,,,,,,,,,
,,POLICY,2.49679,1,,,,,,stimuli/images/PICTURE_467.png,POLICY,5c7ba5be2ceba0001668b9b9,12/03/2000,2020-08-27_15h41.00.115,proactive3.2,2020.1.2,Win32,60,5f47c0b9b035471e11593a5c,5f47c5ad25bc3c0a5420e69a,6,,,,,,peg,,,,,,,,,,,6,1,0,58,58,53,1,,,,,,,,,,,,,,,,,,,,,,,,,,,,,,,,,,,,,,,,,,,,,,,,,,,,,,,,,,,,,,,,,,,,,,
,,?,0.00155,0,,,,,,stimuli/images/PICTURE_57.png,MOMENT,5c7ba5be2ceba0001668b9b9,12/03/2000,2020-08-27_15h41.00.115,proactive3.2,2020.1.2,Win32,60,5f47c0b9b035471e11593a5c,5f47c5ad25bc3c0a5420e69a,6,,,,,,stamp,,,,,,,,,,,4,1,0,59,59,37,1,,,,,,,,,,,,,,,,,,,,,,,,,,,,,,,,,,,,,,,,,,,,,,,,,,,,,,,,,,,,,,,,,,,,,,
,,,,,,,,,,,,5c7ba5be2ceba0001668b9b9,12/03/2000,2020-08-27_15h41.00.115,proactive3.2,2020.1.2,Win32,60,5f47c0b9b035471e11593a5c,5f47c5ad25bc3c0a5420e69a,6,,,,,,,,,,,,,,,,,,,,,,,,0,1,1,1,1,stimuli/learn-block2.csv,,,,,,,,,,,,,,,,,,,,,,,,,,,,,,,,,,,,,,,,,,,,,,,,,,,,,,,,,,,,,,,,
,,,,,,,,,,stimuli/images/PICTURE_667.png,PLENTY,5c7ba5be2ceba0001668b9b9,12/03/2000,2020-08-27_15h41.00.115,proactive3.2,2020.1.2,Win32,60,5f47c0b9b035471e11593a5c,5f47c5ad25bc3c0a5420e69a,6,,,,,,daisy,,,,,,0,0,0,41,1,5,0,,,,,,,,,,,,,,,,,,,,,,,,,,,,,,,,,,,,,,,,,,,,,,,,,,,,,,,,,,,,,,,,,,,,,,,,,,,
,,,,,,,,,,stimuli/images/PICTURE_453.png,PLENTY,5c7ba5be2ceba0001668b9b9,12/03/2000,2020-08-27_15h41.00.115,proactive3.2,2020.1.2,Win32,60,5f47c0b9b035471e11593a5c,5f47c5ad25bc3c0a5420e69a,6,,,,,,scissors,,,,,,0,1,1,56,1,6,0,,,,,,,,,,,,,,,,,,,,,,,,,,,,,,,,,,,,,,,,,,,,,,,,,,,,,,,,,,,,,,,,,,,,,,,,,,,
,,,,,,,,,,stimuli/images/PICTURE_308.png,KIND,5c7ba5be2ceba0001668b9b9,12/03/2000,2020-08-27_15h41.00.115,proactive3.2,2020.1.2,Win32,60,5f47c0b9b035471e11593a5c,5f47c5ad25bc3c0a5420e69a,6,,,,,,dice,,,,,,0,2,2,54,1,6,0,,,,,,,,,,,,,,,,,,,,,,,,,,,,,,,,,,,,,,,,,,,,,,,,,,,,,,,,,,,,,,,,,,,,,,,,,,,
,,,,,,,,,,stimuli/images/PICTURE_160.png,FEET,5c7ba5be2ceba0001668b9b9,12/03/2000,2020-08-27_15h41.00.115,proactive3.2,2020.1.2,Win32,60,5f47c0b9b035471e11593a5c,5f47c5ad25bc3c0a5420e69a,6,,,,,,wheelbarrow,,,,,,0,3,3,58,1,6,0,,,,,,,,,,,,,,,,,,,,,,,,,,,,,,,,,,,,,,,,,,,,,,,,,,,,,,,,,,,,,,,,,,,,,,,,,,,
,,,,,,,,,,stimuli/images/PICTURE_32.png,JUNGLE,5c7ba5be2ceba0001668b9b9,12/03/2000,2020-08-27_15h41.00.115,proactive3.2,2020.1.2,Win32,60,5f47c0b9b035471e11593a5c,5f47c5ad25bc3c0a5420e69a,6,,,,,,crown,,,,,,0,4,4,45,1,5,0,,,,,,,,,,,,,,,,,,,,,,,,,,,,,,,,,,,,,,,,,,,,,,,,,,,,,,,,,,,,,,,,,,,,,,,,,,,
,,,,,,,,,,stimuli/images/PICTURE_487.png,FLIGHT,5c7ba5be2ceba0001668b9b9,12/03/2000,2020-08-27_15h41.00.115,proactive3.2,2020.1.2,Win32,60,5f47c0b9b035471e11593a5c,5f47c5ad25bc3c0a5420e69a,6,,,,,,basket,,,,,,0,5,5,9,1,1,0,,,,,,,,,,,,,,,,,,,,,,,,,,,,,,,,,,,,,,,,,,,,,,,,,,,,,,,,,,,,,,,,,,,,,,,,,,,
,,,,,,,,,,stimuli/images/PICTURE_744.png,SYSTEM,5c7ba5be2ceba0001668b9b9,12/03/2000,2020-08-27_15h41.00.115,proactive3.2,2020.1.2,Win32,60,5f47c0b9b035471e11593a5c,5f47c5ad25bc3c0a5420e69a,6,,,,,,ring,,,,,,0,6,6,43,1,5,0,,,,,,,,,,,,,,,,,,,,,,,,,,,,,,,,,,,,,,,,,,,,,,,,,,,,,,,,,,,,,,,,,,,,,,,,,,,
,,,,,,,,,,stimuli/images/PICTURE_248.png,DOZEN,5c7ba5be2ceba0001668b9b9,12/03/2000,2020-08-27_15h41.00.115,proactive3.2,2020.1.2,Win32,60,5f47c0b9b035471e11593a5c,5f47c5ad25bc3c0a5420e69a,6,,,,,,cart,,,,,,0,7,7,39,1,4,0,,,,,,,,,,,,,,,,,,,,,,,,,,,,,,,,,,,,,,,,,,,,,,,,,,,,,,,,,,,,,,,,,,,,,,,,,,,
,,,,,,,,,,stimuli/images/PICTURE_491.png,ROOF,5c7ba5be2ceba0001668b9b9,12/03/2000,2020-08-27_15h41.00.115,proactive3.2,2020.1.2,Win32,60,5f47c0b9b035471e11593a5c,5f47c5ad25bc3c0a5420e69a,6,,,,,,rug,,,,,,0,8,8,24,1,3,0,,,,,,,,,,,,,,,,,,,,,,,,,,,,,,,,,,,,,,,,,,,,,,,,,,,,,,,,,,,,,,,,,,,,,,,,,,,
,,,,,,,,,,stimuli/images/PICTURE_467.png,DEMON,5c7ba5be2ceba0001668b9b9,12/03/2000,2020-08-27_15h41.00.115,proactive3.2,2020.1.2,Win32,60,5f47c0b9b035471e11593a5c,5f47c5ad25bc3c0a5420e69a,6,,,,,,peg,,,,,,0,9,9,23,1,3,0,,,,,,,,,,,,,,,,,,,,,,,,,,,,,,,,,,,,,,,,,,,,,,,,,,,,,,,,,,,,,,,,,,,,,,,,,,,
,,,,,,,,,,stimuli/images/PICTURE_208.png,MONTH,5c7ba5be2ceba0001668b9b9,12/03/2000,2020-08-27_15h41.00.115,proactive3.2,2020.1.2,Win32,60,5f47c0b9b035471e11593a5c,5f47c5ad25bc3c0a5420e69a,6,,,,,,microphone,,,,,,0,10,10,53,1,6,0,,,,,,,,,,,,,,,,,,,,,,,,,,,,,,,,,,,,,,,,,,,,,,,,,,,,,,,,,,,,,,,,,,,,,,,,,,,
,,,,,,,,,,stimuli/images/PICTURE_509.png,PHOTO,5c7ba5be2ceba0001668b9b9,12/03/2000,2020-08-27_15h41.00.115,proactive3.2,2020.1.2,Win32,60,5f47c0b9b035471e11593a5c,5f47c5ad25bc3c0a5420e69a,6,,,,,,telephone,,,,,,0,11,11,21,1,3,0,,,,,,,,,,,,,,,,,,,,,,,,,,,,,,,,,,,,,,,,,,,,,,,,,,,,,,,,,,,,,,,,,,,,,,,,,,,
,,,,,,,,,,stimuli/images/PICTURE_470.png,CASINO,5c7ba5be2ceba0001668b9b9,12/03/2000,2020-08-27_15h41.00.115,proactive3.2,2020.1.2,Win32,60,5f47c0b9b035471e11593a5c,5f47c5ad25bc3c0a5420e69a,6,,,,,,motorbike,,,,,,0,12,12,36,1,4,0,,,,,,,,,,,,,,,,,,,,,,,,,,,,,,,,,,,,,,,,,,,,,,,,,,,,,,,,,,,,,,,,,,,,,,,,,,,
,,,,,,,,,,stimuli/images/PICTURE_160.png,LEADER,5c7ba5be2ceba0001668b9b9,12/03/2000,2020-08-27_15h41.00.115,proactive3.2,2020.1.2,Win32,60,5f47c0b9b035471e11593a5c,5f47c5ad25bc3c0a5420e69a,6,,,,,,wheelbarrow,,,,,,0,13,13,3,1,1,0,,,,,,,,,,,,,,,,,,,,,,,,,,,,,,,,,,,,,,,,,,,,,,,,,,,,,,,,,,,,,,,,,,,,,,,,,,,
,,,,,,,,,,stimuli/images/PICTURE_491.png,WRITER,5c7ba5be2ceba0001668b9b9,12/03/2000,2020-08-27_15h41.00.115,proactive3.2,2020.1.2,Win32,60,5f47c0b9b035471e11593a5c,5f47c5ad25bc3c0a5420e69a,6,,,,,,rug,,,,,,0,14,14,57,1,6,0,,,,,,,,,,,,,,,,,,,,,,,,,,,,,,,,,,,,,,,,,,,,,,,,,,,,,,,,,,,,,,,,,,,,,,,,,,,
,,,,,,,,,,stimuli/images/PICTURE_68.png,MILE,5c7ba5be2ceba0001668b9b9,12/03/2000,2020-08-27_15h41.00.115,proactive3.2,2020.1.2,Win32,60,5f47c0b9b035471e11593a5c,5f47c5ad25bc3c0a5420e69a,6,,,,,,candle,,,,,,0,15,15,44,1,5,0,,,,,,,,,,,,,,,,,,,,,,,,,,,,,,,,,,,,,,,,,,,,,,,,,,,,,,,,,,,,,,,,,,,,,,,,,,,
,,,,,,,,,,stimuli/images/PICTURE_688.png,WOMEN,5c7ba5be2ceba0001668b9b9,12/03/2000,2020-08-27_15h41.00.115,proactive3.2,2020.1.2,Win32,60,5f47c0b9b035471e11593a5c,5f47c5ad25bc3c0a5420e69a,6,,,,,,runner,,,,,,0,16,16,14,1,2,0,,,,,,,,,,,,,,,,,,,,,,,,,,,,,,,,,,,,,,,,,,,,,,,,,,,,,,,,,,,,,,,,,,,,,,,,,,,
,,,,,,,,,,stimuli/images/PICTURE_215.png,PLENTY,5c7ba5be2ceba0001668b9b9,12/03/2000,2020-08-27_15h41.00.115,proactive3.2,2020.1.2,Win32,60,5f47c0b9b035471e11593a5c,5f47c5ad25bc3c0a5420e69a,6,,,,,,boot,,,,,,0,17,17,37,1,4,0,,,,,,,,,,,,,,,,,,,,,,,,,,,,,,,,,,,,,,,,,,,,,,,,,,,,,,,,,,,,,,,,,,,,,,,,,,,
,,,,,,,,,,stimuli/images/PICTURE_449.png,THING,5c7ba5be2ceba0001668b9b9,12/03/2000,2020-08-27_15h41.00.115,proactive3.2,2020.1.2,Win32,60,5f47c0b9b035471e11593a5c,5f47c5ad25bc3c0a5420e69a,6,,,,,,bench,,,,,,0,18,18,59,1,6,0,,,,,,,,,,,,,,,,,,,,,,,,,,,,,,,,,,,,,,,,,,,,,,,,,,,,,,,,,,,,,,,,,,,,,,,,,,,
,,,,,,,,,,stimuli/images/PICTURE_314.png,GODS,5c7ba5be2ceba0001668b9b9,12/03/2000,2020-08-27_15h41.00.115,proactive3.2,2020.1.2,Win32,60,5f47c0b9b035471e11593a5c,5f47c5ad25bc3c0a5420e69a,6,,,,,,perfume,,,,,,0,19,19,11,1,2,0,,,,,,,,,,,,,,,,,,,,,,,,,,,,,,,,,,,,,,,,,,,,,,,,,,,,,,,,,,,,,,,,,,,,,,,,,,,
,,,,,,,,,,stimuli/images/PICTURE_151.png,GIRL,5c7ba5be2ceba0001668b9b9,12/03/2000,2020-08-27_15h41.00.115,proactive3.2,2020.1.2,Win32,60,5f47c0b9b035471e11593a5c,5f47c5ad25bc3c0a5420e69a,6,,,,,,tray,,,,,,0,20,20,19,1,2,0,,,,,,,,,,,,,,,,,,,,,,,,,,,,,,,,,,,,,,,,,,,,,,,,,,,,,,,,,,,,,,,,,,,,,,,,,,,
,,,,,,,,,,stimuli/images/PICTURE_311.png,BEAUTY,5c7ba5be2ceba0001668b9b9,12/03/2000,2020-08-27_15h41.00.115,proactive3.2,2020.1.2,Win32,60,5f47c0b9b035471e11593a5c,5f47c5ad25bc3c0a5420e69a,6,,,,,,razor,,,,,,0,21,21,13,1,2,0,,,,,,,,,,,,,,,,,,,,,,,,,,,,,,,,,,,,,,,,,,,,,,,,,,,,,,,,,,,,,,,,,,,,,,,,,,,
,,,,,,,,,,stimuli/images/PICTURE_233.png,WOMEN,5c7ba5be2ceba0001668b9b9,12/03/2000,2020-08-27_15h41.00.115,proactive3.2,2020.1.2,Win32,60,5f47c0b9b035471e11593a5c,5f47c5ad25bc3c0a5420e69a,6,,,,,,salt,,,,,,0,22,22,38,1,4,0,,,,,,,,,,,,,,,,,,,,,,,,,,,,,,,,,,,,,,,,,,,,,,,,,,,,,,,,,,,,,,,,,,,,,,,,,,,
,,,,,,,,,,stimuli/images/PICTURE_356.png,DANGER,5c7ba5be2ceba0001668b9b9,12/03/2000,2020-08-27_15h41.00.115,proactive3.2,2020.1.2,Win32,60,5f47c0b9b035471e11593a5c,5f47c5ad25bc3c0a5420e69a,6,,,,,,pawn,,,,,,0,23,23,55,1,6,0,,,,,,,,,,,,,,,,,,,,,,,,,,,,,,,,,,,,,,,,,,,,,,,,,,,,,,,,,,,,,,,,,,,,,,,,,,,
,,,,,,,,,,stimuli/images/PICTURE_380.png,PHOTO,5c7ba5be2ceba0001668b9b9,12/03/2000,2020-08-27_15h41.00.115,proactive3.2,2020.1.2,Win32,60,5f47c0b9b035471e11593a5c,5f47c5ad25bc3c0a5420e69a,6,,,,,,gorilla,,,,,,0,24,24,52,1,6,0,,,,,,,,,,,,,,,,,,,,,,,,,,,,,,,,,,,,,,,,,,,,,,,,,,,,,,,,,,,,,,,,,,,,,,,,,,,
,,,,,,,,,,stimuli/images/PICTURE_708.png,CLIENT,5c7ba5be2ceba0001668b9b9,12/03/2000,2020-08-27_15h41.00.115,proactive3.2,2020.1.2,Win32,60,5f47c0b9b035471e11593a5c,5f47c5ad25bc3c0a5420e69a,6,,,,,,monkey,,,,,,0,25,25,5,1,1,0,,,,,,,,,,,,,,,,,,,,,,,,,,,,,,,,,,,,,,,,,,,,,,,,,,,,,,,,,,,,,,,,,,,,,,,,,,,
,,,,,,,,,,stimuli/images/PICTURE_339.png,PLENTY,5c7ba5be2ceba0001668b9b9,12/03/2000,2020-08-27_15h41.00.115,proactive3.2,2020.1.2,Win32,60,5f47c0b9b035471e11593a5c,5f47c5ad25bc3c0a5420e69a,6,,,,,,backpack,,,,,,0,26,26,0,1,1,0,,,,,,,,,,,,,,,,,,,,,,,,,,,,,,,,,,,,,,,,,,,,,,,,,,,,,,,,,,,,,,,,,,,,,,,,,,,
,,,,,,,,,,stimuli/images/PICTURE_208.png,THING,5c7ba5be2ceba0001668b9b9,12/03/2000,2020-08-27_15h41.00.115,proactive3.2,2020.1.2,Win32,60,5f47c0b9b035471e11593a5c,5f47c5ad25bc3c0a5420e69a,6,,,,,,microphone,,,,,,0,27,27,47,1,5,0,,,,,,,,,,,,,,,,,,,,,,,,,,,,,,,,,,,,,,,,,,,,,,,,,,,,,,,,,,,,,,,,,,,,,,,,,,,
,,,,,,,,,,stimuli/images/PICTURE_308.png,ESTATE,5c7ba5be2ceba0001668b9b9,12/03/2000,2020-08-27_15h41.00.115,proactive3.2,2020.1.2,Win32,60,5f47c0b9b035471e11593a5c,5f47c5ad25bc3c0a5420e69a,6,,,,,,dice,,,,,,0,28,28,46,1,5,0,,,,,,,,,,,,,,,,,,,,,,,,,,,,,,,,,,,,,,,,,,,,,,,,,,,,,,,,,,,,,,,,,,,,,,,,,,,
,,,,,,,,,,stimuli/images/PICTURE_85.png,THING,5c7ba5be2ceba0001668b9b9,12/03/2000,2020-08-27_15h41.00.115,proactive3.2,2020.1.2,Win32,60,5f47c0b9b035471e11593a5c,5f47c5ad25bc3c0a5420e69a,6,,,,,,diamond,,,,,,0,29,29,15,1,2,0,,,,,,,,,,,,,,,,,,,,,,,,,,,,,,,,,,,,,,,,,,,,,,,,,,,,,,,,,,,,,,,,,,,,,,,,,,,
,,,,,,,,,,stimuli/images/PICTURE_744.png,SAKE,5c7ba5be2ceba0001668b9b9,12/03/2000,2020-08-27_15h41.00.115,proactive3.2,2020.1.2,Win32,60,5f47c0b9b035471e11593a5c,5f47c5ad25bc3c0a5420e69a,6,,,,,,ring,,,,,,0,30,30,17,1,2,0,,,,,,,,,,,,,,,,,,,,,,,,,,,,,,,,,,,,,,,,,,,,,,,,,,,,,,,,,,,,,,,,,,,,,,,,,,,
,,,,,,,,,,stimuli/images/PICTURE_327.png,BEAUTY,5c7ba5be2ceba0001668b9b9,12/03/2000,2020-08-27_15h41.00.115,proactive3.2,2020.1.2,Win32,60,5f47c0b9b035471e11593a5c,5f47c5ad25bc3c0a5420e69a,6,,,,,,helmet,,,,,,0,31,31,48,1,5,0,,,,,,,,,,,,,,,,,,,,,,,,,,,,,,,,,,,,,,,,,,,,,,,,,,,,,,,,,,,,,,,,,,,,,,,,,,,
,,,,,,,,,,stimuli/images/PICTURE_692.png,MONTH,5c7ba5be2ceba0001668b9b9,12/03/2000,2020-08-27_15h41.00.115,proactive3.2,2020.1.2,Win32,60,5f47c0b9b035471e11593a5c,5f47c5ad25bc3c0a5420e69a,6,,,,,,cherry,,,,,,0,32,32,16,1,2,0,,,,,,,,,,,,,,,,,,,,,,,,,,,,,,,,,,,,,,,,,,,,,,,,,,,,,,,,,,,,,,,,,,,,,,,,,,,
,,,,,,,,,,stimuli/images/PICTURE_488.png,STYLE,5c7ba5be2ceba0001668b9b9,12/03/2000,2020-08-27_15h41.00.115,proactive3.2,2020.1.2,Win32,60,5f47c0b9b035471e11593a5c,5f47c5ad25bc3c0a5420e69a,6,,,,,,sun,,,,,,0,33,33,33,1,4,0,,,,,,,,,,,,,,,,,,,,,,,,,,,,,,,,,,,,,,,,,,,,,,,,,,,,,,,,,,,,,,,,,,,,,,,,,,,
,,,,,,,,,,stimuli/images/PICTURE_285.png,ADVICE,5c7ba5be2ceba0001668b9b9,12/03/2000,2020-08-27_15h41.00.115,proactive3.2,2020.1.2,Win32,60,5f47c0b9b035471e11593a5c,5f47c5ad25bc3c0a5420e69a,6,,,,,,carrot,,,,,,0,34,34,12,1,2,0,,,,,,,,,,,,,,,,,,,,,,,,,,,,,,,,,,,,,,,,,,,,,,,,,,,,,,,,,,,,,,,,,,,,,,,,,,,
,,,,,,,,,,stimuli/images/PICTURE_688.png,CASINO,5c7ba5be2ceba0001668b9b9,12/03/2000,2020-08-27_15h41.00.115,proactive3.2,2020.1.2,Win32,60,5f47c0b9b035471e11593a5c,5f47c5ad25bc3c0a5420e69a,6,,,,,,runner,,,,,,0,35,35,2,1,1,0,,,,,,,,,,,,,,,,,,,,,,,,,,,,,,,,,,,,,,,,,,,,,,,,,,,,,,,,,,,,,,,,,,,,,,,,,,,
,,,,,,,,,,stimuli/images/PICTURE_708.png,YARD,5c7ba5be2ceba0001668b9b9,12/03/2000,2020-08-27_15h41.00.115,proactive3.2,2020.1.2,Win32,60,5f47c0b9b035471e11593a5c,5f47c5ad25bc3c0a5420e69a,6,,,,,,monkey,,,,,,0,36,36,29,1,3,0,,,,,,,,,,,,,,,,,,,,,,,,,,,,,,,,,,,,,,,,,,,,,,,,,,,,,,,,,,,,,,,,,,,,,,,,,,,
,,,,,,,,,,stimuli/images/PICTURE_504.png,BODY,5c7ba5be2ceba0001668b9b9,12/03/2000,2020-08-27_15h41.00.115,proactive3.2,2020.1.2,Win32,60,5f47c0b9b035471e11593a5c,5f47c5ad25bc3c0a5420e69a,6,,,,,,wheel,,,,,,0,37,37,8,1,1,0,,,,,,,,,,,,,,,,,,,,,,,,,,,,,,,,,,,,,,,,,,,,,,,,,,,,,,,,,,,,,,,,,,,,,,,,,,,
,,,,,,,,,,stimuli/images/PICTURE_123.png,ADVICE,5c7ba5be2ceba0001668b9b9,12/03/2000,2020-08-27_15h41.00.115,proactive3.2,2020.1.2,Win32,60,5f47c0b9b035471e11593a5c,5f47c5ad25bc3c0a5420e69a,6,,,,,,dart,,,,,,0,38,38,50,1,6,0,,,,,,,,,,,,,,,,,,,,,,,,,,,,,,,,,,,,,,,,,,,,,,,,,,,,,,,,,,,,,,,,,,,,,,,,,,,
,,,,,,,,,,stimuli/images/PICTURE_708.png,PENNY,5c7ba5be2ceba0001668b9b9,12/03/2000,2020-08-27_15h41.00.115,proactive3.2,2020.1.2,Win32,60,5f47c0b9b035471e11593a5c,5f47c5ad25bc3c0a5420e69a,6,,,,,,monkey,,,,,,0,39,39,31,1,4,0,,,,,,,,,,,,,,,,,,,,,,,,,,,,,,,,,,,,,,,,,,,,,,,,,,,,,,,,,,,,,,,,,,,,,,,,,,,
,,,,,,,,,,stimuli/images/PICTURE_675.png,WEAPON,5c7ba5be2ceba0001668b9b9,12/03/2000,2020-08-27_15h41.00.115,proactive3.2,2020.1.2,Win32,60,5f47c0b9b035471e11593a5c,5f47c5ad25bc3c0a5420e69a,6,,,,,,windmill,,,,,,0,40,40,32,1,4,0,,,,,,,,,,,,,,,,,,,,,,,,,,,,,,,,,,,,,,,,,,,,,,,,,,,,,,,,,,,,,,,,,,,,,,,,,,,
,,,,,,,,,,stimuli/images/PICTURE_314.png,SAKE,5c7ba5be2ceba0001668b9b9,12/03/2000,2020-08-27_15h41.00.115,proactive3.2,2020.1.2,Win32,60,5f47c0b9b035471e11593a5c,5f47c5ad25bc3c0a5420e69a,6,,,,,,perfume,,,,,,0,41,41,7,1,1,0,,,,,,,,,,,,,,,,,,,,,,,,,,,,,,,,,,,,,,,,,,,,,,,,,,,,,,,,,,,,,,,,,,,,,,,,,,,
,,,,,,,,,,stimuli/images/PICTURE_654.png,VALLEY,5c7ba5be2ceba0001668b9b9,12/03/2000,2020-08-27_15h41.00.115,proactive3.2,2020.1.2,Win32,60,5f47c0b9b035471e11593a5c,5f47c5ad25bc3c0a5420e69a,6,,,,,,pencil,,,,,,0,42,42,1,1,1,0,,,,,,,,,,,,,,,,,,,,,,,,,,,,,,,,,,,,,,,,,,,,,,,,,,,,,,,,,,,,,,,,,,,,,,,,,,,
,,,,,,,,,,stimuli/images/PICTURE_348.png,SPEECH,5c7ba5be2ceba0001668b9b9,12/03/2000,2020-08-27_15h41.00.115,proactive3.2,2020.1.2,Win32,60,5f47c0b9b035471e11593a5c,5f47c5ad25bc3c0a5420e69a,6,,,,,,pepper,,,,,,0,43,43,20,1,3,0,,,,,,,,,,,,,,,,,,,,,,,,,,,,,,,,,,,,,,,,,,,,,,,,,,,,,,,,,,,,,,,,,,,,,,,,,,,
,,,,,,,,,,stimuli/images/PICTURE_311.png,FRIEND,5c7ba5be2ceba0001668b9b9,12/03/2000,2020-08-27_15h41.00.115,proactive3.2,2020.1.2,Win32,60,5f47c0b9b035471e11593a5c,5f47c5ad25bc3c0a5420e69a,6,,,,,,razor,,,,,,0,44,44,34,1,4,0,,,,,,,,,,,,,,,,,,,,,,,,,,,,,,,,,,,,,,,,,,,,,,,,,,,,,,,,,,,,,,,,,,,,,,,,,,,
,,,,,,,,,,stimuli/images/PICTURE_233.png,IDEAS,5c7ba5be2ceba0001668b9b9,12/03/2000,2020-08-27_15h41.00.115,proactive3.2,2020.1.2,Win32,60,5f47c0b9b035471e11593a5c,5f47c5ad25bc3c0a5420e69a,6,,,,,,salt,,,,,,0,45,45,28,1,3,0,,,,,,,,,,,,,,,,,,,,,,,,,,,,,,,,,,,,,,,,,,,,,,,,,,,,,,,,,,,,,,,,,,,,,,,,,,,
,,,,,,,,,,stimuli/images/PICTURE_302.png,FAMILY,5c7ba5be2ceba0001668b9b9,12/03/2000,2020-08-27_15h41.00.115,proactive3.2,2020.1.2,Win32,60,5f47c0b9b035471e11593a5c,5f47c5ad25bc3c0a5420e69a,6,,,,,,taxi,,,,,,0,46,46,18,1,2,0,,,,,,,,,,,,,,,,,,,,,,,,,,,,,,,,,,,,,,,,,,,,,,,,,,,,,,,,,,,,,,,,,,,,,,,,,,,
,,,,,,,,,,stimuli/images/PICTURE_469.png,ARTIST,5c7ba5be2ceba0001668b9b9,12/03/2000,2020-08-27_15h41.00.115,proactive3.2,2020.1.2,Win32,60,5f47c0b9b035471e11593a5c,5f47c5ad25bc3c0a5420e69a,6,,,,,,stool,,,,,,0,47,47,6,1,1,0,,,,,,,,,,,,,,,,,,,,,,,,,,,,,,,,,,,,,,,,,,,,,,,,,,,,,,,,,,,,,,,,,,,,,,,,,,,
,,,,,,,,,,stimuli/images/PICTURE_123.png,ADVICE,5c7ba5be2ceba0001668b9b9,12/03/2000,2020-08-27_15h41.00.115,proactive3.2,2020.1.2,Win32,60,5f47c0b9b035471e11593a5c,5f47c5ad25bc3c0a5420e69a,6,,,,,,dart,,,,,,0,48,48,40,1,5,0,,,,,,,,,,,,,,,,,,,,,,,,,,,,,,,,,,,,,,,,,,,,,,,,,,,,,,,,,,,,,,,,,,,,,,,,,,,
,,,,,,,,,,stimuli/images/PICTURE_177.png,CARS,5c7ba5be2ceba0001668b9b9,12/03/2000,2020-08-27_15h41.00.115,proactive3.2,2020.1.2,Win32,60,5f47c0b9b035471e11593a5c,5f47c5ad25bc3c0a5420e69a,6,,,,,,mushroom,,,,,,0,49,49,35,1,4,0,,,,,,,,,,,,,,,,,,,,,,,,,,,,,,,,,,,,,,,,,,,,,,,,,,,,,,,,,,,,,,,,,,,,,,,,,,,
,,,,,,,,,,stimuli/images/PICTURE_469.png,LETTER,5c7ba5be2ceba0001668b9b9,12/03/2000,2020-08-27_15h41.00.115,proactive3.2,2020.1.2,Win32,60,5f47c0b9b035471e11593a5c,5f47c5ad25bc3c0a5420e69a,6,,,,,,stool,,,,,,0,50,50,42,1,5,0,,,,,,,,,,,,,,,,,,,,,,,,,,,,,,,,,,,,,,,,,,,,,,,,,,,,,,,,,,,,,,,,,,,,,,,,,,,
,,,,,,,,,,stimuli/images/PICTURE_667.png,BATH,5c7ba5be2ceba0001668b9b9,12/03/2000,2020-08-27_15h41.00.115,proactive3.2,2020.1.2,Win32,60,5f47c0b9b035471e11593a5c,5f47c5ad25bc3c0a5420e69a,6,,,,,,daisy,,,,,,0,51,51,4,1,1,0,,,,,,,,,,,,,,,,,,,,,,,,,,,,,,,,,,,,,,,,,,,,,,,,,,,,,,,,,,,,,,,,,,,,,,,,,,,
,,,,,,,,,,stimuli/images/PICTURE_255.png,AREA,5c7ba5be2ceba0001668b9b9,12/03/2000,2020-08-27_15h41.00.115,proactive3.2,2020.1.2,Win32,60,5f47c0b9b035471e11593a5c,5f47c5ad25bc3c0a5420e69a,6,,,,,,shovel,,,,,,0,52,52,22,1,3,0,,,,,,,,,,,,,,,,,,,,,,,,,,,,,,,,,,,,,,,,,,,,,,,,,,,,,,,,,,,,,,,,,,,,,,,,,,,
,,,,,,,,,,stimuli/images/PICTURE_203.png,ARTIST,5c7ba5be2ceba0001668b9b9,12/03/2000,2020-08-27_15h41.00.115,proactive3.2,2020.1.2,Win32,60,5f47c0b9b035471e11593a5c,5f47c5ad25bc3c0a5420e69a,6,,,,,,cap,,,,,,0,53,53,26,1,3,0,,,,,,,,,,,,,,,,,,,,,,,,,,,,,,,,,,,,,,,,,,,,,,,,,,,,,,,,,,,,,,,,,,,,,,,,,,,
,,,,,,,,,,stimuli/images/PICTURE_147.png,MOMENT,5c7ba5be2ceba0001668b9b9,12/03/2000,2020-08-27_15h41.00.115,proactive3.2,2020.1.2,Win32,60,5f47c0b9b035471e11593a5c,5f47c5ad25bc3c0a5420e69a,6,,,,,,hanger,,,,,,0,54,54,51,1,6,0,,,,,,,,,,,,,,,,,,,,,,,,,,,,,,,,,,,,,,,,,,,,,,,,,,,,,,,,,,,,,,,,,,,,,,,,,,,
,,,,,,,,,,stimuli/images/PICTURE_453.png,DUDE,5c7ba5be2ceba0001668b9b9,12/03/2000,2020-08-27_15h41.00.115,proactive3.2,2020.1.2,Win32,60,5f47c0b9b035471e11593a5c,5f47c5ad25bc3c0a5420e69a,6,,,,,,scissors,,,,,,0,55,55,27,1,3,0,,,,,,,,,,,,,,,,,,,,,,,,,,,,,,,,,,,,,,,,,,,,,,,,,,,,,,,,,,,,,,,,,,,,,,,,,,,
,,,,,,,,,,stimuli/images/PICTURE_380.png,DEATH,5c7ba5be2ceba0001668b9b9,12/03/2000,2020-08-27_15h41.00.115,proactive3.2,2020.1.2,Win32,60,5f47c0b9b035471e11593a5c,5f47c5ad25bc3c0a5420e69a,6,,,,,,gorilla,,,,,,0,56,56,49,1,5,0,,,,,,,,,,,,,,,,,,,,,,,,,,,,,,,,,,,,,,,,,,,,,,,,,,,,,,,,,,,,,,,,,,,,,,,,,,,
,,,,,,,,,,stimuli/images/PICTURE_677.png,MILE,5c7ba5be2ceba0001668b9b9,12/03/2000,2020-08-27_15h41.00.115,proactive3.2,2020.1.2,Win32,60,5f47c0b9b035471e11593a5c,5f47c5ad25bc3c0a5420e69a,6,,,,,,map,,,,,,0,57,57,30,1,4,0,,,,,,,,,,,,,,,,,,,,,,,,,,,,,,,,,,,,,,,,,,,,,,,,,,,,,,,,,,,,,,,,,,,,,,,,,,,
,,,,,,,,,,stimuli/images/PICTURE_95.png,STYLE,5c7ba5be2ceba0001668b9b9,12/03/2000,2020-08-27_15h41.00.115,proactive3.2,2020.1.2,Win32,60,5f47c0b9b035471e11593a5c,5f47c5ad25bc3c0a5420e69a,6,,,,,,suitcase,,,,,,0,58,58,25,1,3,0,,,,,,,,,,,,,,,,,,,,,,,,,,,,,,,,,,,,,,,,,,,,,,,,,,,,,,,,,,,,,,,,,,,,,,,,,,,
,,?,0.0015,0,,,,,,stimuli/images/PICTURE_233.png,IDEAS,5c7ba5be2ceba0001668b9b9,12/03/2000,2020-08-27_15h41.00.115,proactive3.2,2020.1.2,Win32,60,5f47c0b9b035471e11593a5c,5f47c5ad25bc3c0a5420e69a,6,,,,,,salt,,,,,,,,,,,3,0,0,0,0,28,1,,,,,,,,,,,,,,,,,,,,,,,,,,,,,,,,,,,,,,,,,,,,,,,,,,,,,,,,,,,,,,,,,,,,,,
,,?,0.001305,0,,,,,,stimuli/images/PICTURE_327.png,BEAUTY,5c7ba5be2ceba0001668b9b9,12/03/2000,2020-08-27_15h41.00.115,proactive3.2,2020.1.2,Win32,60,5f47c0b9b035471e11593a5c,5f47c5ad25bc3c0a5420e69a,6,,,,,,helmet,,,,,,,,,,,5,0,0,1,1,48,1,,,,,,,,,,,,,,,,,,,,,,,,,,,,,,,,,,,,,,,,,,,,,,,,,,,,,,,,,,,,,,,,,,,,,,
,,?,0.00125,0,,,,,,stimuli/images/PICTURE_311.png,BEAUTY,5c7ba5be2ceba0001668b9b9,12/03/2000,2020-08-27_15h41.00.115,proactive3.2,2020.1.2,Win32,60,5f47c0b9b035471e11593a5c,5f47c5ad25bc3c0a5420e69a,6,,,,,,razor,,,,,,,,,,,2,0,0,2,2,13,1,,,,,,,,,,,,,,,,,,,,,,,,,,,,,,,,,,,,,,,,,,,,,,,,,,,,,,,,,,,,,,,,,,,,,,
,,?,3.304485,0,,,,,,stimuli/images/PICTURE_160.png,FEET,5c7ba5be2ceba0001668b9b9,12/03/2000,2020-08-27_15h41.00.115,proactive3.2,2020.1.2,Win32,60,5f47c0b9b035471e11593a5c,5f47c5ad25bc3c0a5420e69a,6,,,,,,wheelbarrow,,,,,,,,,,,6,0,0,3,3,58,1,,,,,,,,,,,,,,,,,,,,,,,,,,,,,,,,,,,,,,,,,,,,,,,,,,,,,,,,,,,,,,,,,,,,,,
,,?,0.00208,0,,,,,,stimuli/images/PICTURE_744.png,SYSTEM,5c7ba5be2ceba0001668b9b9,12/03/2000,2020-08-27_15h41.00.115,proactive3.2,2020.1.2,Win32,60,5f47c0b9b035471e11593a5c,5f47c5ad25bc3c0a5420e69a,6,,,,,,ring,,,,,,,,,,,5,0,0,4,4,43,1,,,,,,,,,,,,,,,,,,,,,,,,,,,,,,,,,,,,,,,,,,,,,,,,,,,,,,,,,,,,,,,,,,,,,,
,,?,0.00167,0,,,,,,stimuli/images/PICTURE_675.png,WEAPON,5c7ba5be2ceba0001668b9b9,12/03/2000,2020-08-27_15h41.00.115,proactive3.2,2020.1.2,Win32,60,5f47c0b9b035471e11593a5c,5f47c5ad25bc3c0a5420e69a,6,,,,,,windmill,,,,,,,,,,,4,0,0,5,5,32,1,,,,,,,,,,,,,,,,,,,,,,,,,,,,,,,,,,,,,,,,,,,,,,,,,,,,,,,,,,,,,,,,,,,,,,
,,?,0.001485,0,,,,,,stimuli/images/PICTURE_151.png,GIRL,5c7ba5be2ceba0001668b9b9,12/03/2000,2020-08-27_15h41.00.115,proactive3.2,2020.1.2,Win32,60,5f47c0b9b035471e11593a5c,5f47c5ad25bc3c0a5420e69a,6,,,,,,tray,,,,,,,,,,,2,0,0,6,6,19,1,,,,,,,,,,,,,,,,,,,,,,,,,,,,,,,,,,,,,,,,,,,,,,,,,,,,,,,,,,,,,,,,,,,,,,
,,ANGLE,3.19567,0,,,,,,stimuli/images/PICTURE_123.png,ADVICE,5c7ba5be2ceba0001668b9b9,12/03/2000,2020-08-27_15h41.00.115,proactive3.2,2020.1.2,Win32,60,5f47c0b9b035471e11593a5c,5f47c5ad25bc3c0a5420e69a,6,,,,,,dart,,,,,,,,,,,6,0,0,7,7,50,1,,,,,,,,,,,,,,,,,,,,,,,,,,,,,,,,,,,,,,,,,,,,,,,,,,,,,,,,,,,,,,,,,,,,,,
,,?,0.001545,0,,,,,,stimuli/images/PICTURE_469.png,LETTER,5c7ba5be2ceba0001668b9b9,12/03/2000,2020-08-27_15h41.00.115,proactive3.2,2020.1.2,Win32,60,5f47c0b9b035471e11593a5c,5f47c5ad25bc3c0a5420e69a,6,,,,,,stool,,,,,,,,,,,5,0,0,8,8,42,1,,,,,,,,,,,,,,,,,,,,,,,,,,,,,,,,,,,,,,,,,,,,,,,,,,,,,,,,,,,,,,,,,,,,,,
,,?,0.001205,0,,,,,,stimuli/images/PICTURE_667.png,BATH,5c7ba5be2ceba0001668b9b9,12/03/2000,2020-08-27_15h41.00.115,proactive3.2,2020.1.2,Win32,60,5f47c0b9b035471e11593a5c,5f47c5ad25bc3c0a5420e69a,6,,,,,,daisy,,,,,,,,,,,1,0,0,9,9,4,1,,,,,,,,,,,,,,,,,,,,,,,,,,,,,,,,,,,,,,,,,,,,,,,,,,,,,,,,,,,,,,,,,,,,,,
,,?,0.001235,0,,,,,,stimuli/images/PICTURE_708.png,YARD,5c7ba5be2ceba0001668b9b9,12/03/2000,2020-08-27_15h41.00.115,proactive3.2,2020.1.2,Win32,60,5f47c0b9b035471e11593a5c,5f47c5ad25bc3c0a5420e69a,6,,,,,,monkey,,,,,,,,,,,3,0,0,10,10,29,1,,,,,,,,,,,,,,,,,,,,,,,,,,,,,,,,,,,,,,,,,,,,,,,,,,,,,,,,,,,,,,,,,,,,,,
,,?,0.0013,0,,,,,,stimuli/images/PICTURE_177.png,CARS,5c7ba5be2ceba0001668b9b9,12/03/2000,2020-08-27_15h41.00.115,proactive3.2,2020.1.2,Win32,60,5f47c0b9b035471e11593a5c,5f47c5ad25bc3c0a5420e69a,6,,,,,,mushroom,,,,,,,,,,,4,0,0,11,11,35,1,,,,,,,,,,,,,,,,,,,,,,,,,,,,,,,,,,,,,,,,,,,,,,,,,,,,,,,,,,,,,,,,,,,,,,
,,?,0.00128,0,,,,,,stimuli/images/PICTURE_504.png,BODY,5c7ba5be2ceba0001668b9b9,12/03/2000,2020-08-27_15h41.00.115,proactive3.2,2020.1.2,Win32,60,5f47c0b9b035471e11593a5c,5f47c5ad25bc3c0a5420e69a,6,,,,,,wheel,,,,,,,,,,,1,0,0,12,12,8,1,,,,,,,,,,,,,,,,,,,,,,,,,,,,,,,,,,,,,,,,,,,,,,,,,,,,,,,,,,,,,,,,,,,,,,
,,?,0.00118,0,,,,,,stimuli/images/PICTURE_688.png,WOMEN,5c7ba5be2ceba0001668b9b9,12/03/2000,2020-08-27_15h41.00.115,proactive3.2,2020.1.2,Win32,60,5f47c0b9b035471e11593a5c,5f47c5ad25bc3c0a5420e69a,6,,,,,,runner,,,,,,,,,,,2,0,0,13,13,14,1,,,,,,,,,,,,,,,,,,,,,,,,,,,,,,,,,,,,,,,,,,,,,,,,,,,,,,,,,,,,,,,,,,,,,,
