consent_key.keys,consent_key.rt,recalled,recalled_rt,recall_acc,example_recall.thisRepN,example_recall.thisTrialN,example_recall.thisN,example_recall.thisIndex,example_recall.ran,file,word,participant,please enter your date of birth (dd/mm/yyyy),date,expName,psychopyVersion,OS,frameRate,list,prac_learn_study_loop.thisRepN,prac_learn_study_loop.thisTrialN,prac_learn_study_loop.thisN,prac_learn_study_loop.thisIndex,prac_learn_study_loop.ran,image,prac_learn_test_loop.thisRepN,prac_learn_test_loop.thisTrialN,prac_learn_test_loop.thisN,prac_learn_test_loop.thisIndex,prac_learn_test_loop.ran,learn_study_loop.thisRepN,learn_study_loop.thisTrialN,learn_study_loop.thisN,learn_study_loop.thisIndex,learn_study_loop.ran,list_no,block_no,learn_test_loop.thisRepN,learn_test_loop.thisTrialN,learn_test_loop.thisN,learn_test_loop.thisIndex,learn_test_loop.ran,learn_blocks.thisRepN,learn_blocks.thisTrialN,learn_blocks.thisN,learn_blocks.thisIndex,learn_blocks.ran,block_csv,key_resp_13.keys,key_resp_13.rt,learn_blocks_loop.thisRepN,learn_blocks_loop.thisTrialN,learn_blocks_loop.thisN,learn_blocks_loop.thisIndex,learn_blocks_loop.ran,final_learn_test.thisRepN,final_learn_test.thisTrialN,final_learn_test.thisN,final_learn_test.thisIndex,final_learn_test.ran,prac_wm_test_loop.thisRepN,prac_wm_test_loop.thisTrialN,prac_wm_test_loop.thisN,prac_wm_test_loop.thisIndex,prac_wm_test_loop.ran,wm_recalled1,wm_recall_rt1,wm_probed1,wm_recall_acc1,wm_recalled2,wm_recall_rt2,wm_probed2,wm_recall_acc2,wm_recalled3,wm_recall_rt3,wm_probed3,wm_recall_acc3,wm_recalled4,wm_recall_rt4,wm_probed4,wm_recall_acc4,prac_wm_trial_loop.thisRepN,prac_wm_trial_loop.thisTrialN,prac_wm_trial_loop.thisN,prac_wm_trial_loop.thisIndex,prac_wm_trial_loop.ran,word1,image1,file1,item_type1,word2,image2,file2,item_type2,word4,image4,file4,item_type4,word3,image3,file3,item_type3,wm_test_loop.thisRepN,wm_test_loop.thisTrialN,wm_test_loop.thisN,wm_test_loop.thisIndex,wm_test_loop.ran,wm_trial_loop.thisRepN,wm_trial_loop.thisTrialN,wm_trial_loop.thisN,wm_trial_loop.thisIndex,wm_trial_loop.ran
y,50.0937,TOUGH,10.8753,1,0,0,0,0,1,stimuli/images/PICTURE_747.png,TOUGH,5c92870723bd7e001870138e,1009,2020-09-12_06h49.43.748,proactive3.2,2020.1.2,Linux x86_64,60,1,,,,,,,,,,,,,,,,,,,,,,,,,,,,,,,,,,,,,,,,,,,,,,,,,,,,,,,,,,,,,,,,,,,,,,,,,,,,,,,,,,,,,,,,,,,,,
,,,,,,,,,,stimuli/images/PICTURE_378.png,LOSS,5c92870723bd7e001870138e,1009,2020-09-12_06h49.43.748,proactive3.2,2020.1.2,Linux x86_64,60,1,0,0,0,2,1,lobster,,,,,,,,,,,,,,,,,,,,,,,,,,,,,,,,,,,,,,,,,,,,,,,,,,,,,,,,,,,,,,,,,,,,,,,,,,,,,,,,,,,,,,,
,,,,,,,,,,stimuli/images/PICTURE_269.png,GENIUS,5c92870723bd7e001870138e,1009,2020-09-12_06h49.43.748,proactive3.2,2020.1.2,Linux x86_64,60,1,0,1,1,0,1,chameleon,,,,,,,,,,,,,,,,,,,,,,,,,,,,,,,,,,,,,,,,,,,,,,,,,,,,,,,,,,,,,,,,,,,,,,,,,,,,,,,,,,,,,,,
,,,,,,,,,,stimuli/images/PICTURE_658.png,DEVIL,5c92870723bd7e001870138e,1009,2020-09-12_06h49.43.748,proactive3.2,2020.1.2,Linux x86_64,60,1,0,2,2,3,1,crow,,,,,,,,,,,,,,,,,,,,,,,,,,,,,,,,,,,,,,,,,,,,,,,,,,,,,,,,,,,,,,,,,,,,,,,,,,,,,,,,,,,,,,,
,,,,,,,,,,stimuli/images/PICTURE_727.png,CELL,5c92870723bd7e001870138e,1009,2020-09-12_06h49.43.748,proactive3.2,2020.1.2,Linux x86_64,60,1,0,3,3,1,1,hose,,,,,,,,,,,,,,,,,,,,,,,,,,,,,,,,,,,,,,,,,,,,,,,,,,,,,,,,,,,,,,,,,,,,,,,,,,,,,,,,,,,,,,,
,,CELL,6.3459,1,,,,,,stimuli/images/PICTURE_727.png,CELL,5c92870723bd7e001870138e,1009,2020-09-12_06h49.43.748,proactive3.2,2020.1.2,Linux x86_64,60,1,,,,,,hose,0,0,0,1,1,,,,,,,,,,,,,,,,,,,,,,,,,,,,,,,,,,,,,,,,,,,,,,,,,,,,,,,,,,,,,,,,,,,,,,,,,,,,,,,,,,
,,KILLER,6.8339,1,,,,,,stimuli/images/PICTURE_697.png,KILLER,5c92870723bd7e001870138e,1009,2020-09-12_06h49.43.748,proactive3.2,2020.1.2,Linux x86_64,60,1,,,,,,peach,0,1,1,4,1,,,,,,,,,,,,,,,,,,,,,,,,,,,,,,,,,,,,,,,,,,,,,,,,,,,,,,,,,,,,,,,,,,,,,,,,,,,,,,,,,,
,,GFC,12.0455,0,,,,,,stimuli/images/PICTURE_658.png,DEVIL,5c92870723bd7e001870138e,1009,2020-09-12_06h49.43.748,proactive3.2,2020.1.2,Linux x86_64,60,1,,,,,,crow,0,2,2,3,1,,,,,,,,,,,,,,,,,,,,,,,,,,,,,,,,,,,,,,,,,,,,,,,,,,,,,,,,,,,,,,,,,,,,,,,,,,,,,,,,,,
,,GENIUS,7.6052,1,,,,,,stimuli/images/PICTURE_269.png,GENIUS,5c92870723bd7e001870138e,1009,2020-09-12_06h49.43.748,proactive3.2,2020.1.2,Linux x86_64,60,1,,,,,,chameleon,0,3,3,0,1,,,,,,,,,,,,,,,,,,,,,,,,,,,,,,,,,,,,,,,,,,,,,,,,,,,,,,,,,,,,,,,,,,,,,,,,,,,,,,,,,,
,,GVUYHUJ,11.911,0,,,,,,stimuli/images/PICTURE_378.png,LOSS,5c92870723bd7e001870138e,1009,2020-09-12_06h49.43.748,proactive3.2,2020.1.2,Linux x86_64,60,1,,,,,,lobster,0,4,4,2,1,,,,,,,,,,,,,,,,,,,,,,,,,,,,,,,,,,,,,,,,,,,,,,,,,,,,,,,,,,,,,,,,,,,,,,,,,,,,,,,,,,
,,,,,,,,,,stimuli/images/PICTURE_667.png,GLASS,5c92870723bd7e001870138e,1009,2020-09-12_06h49.43.748,proactive3.2,2020.1.2,Linux x86_64,60,1,,,,,,daisy,,,,,,0,0,0,27,1,3,2,,,,,,,,,,,,,,,,,,,,,,,,,,,,,,,,,,,,,,,,,,,,,,,,,,,,,,,,,,,,,,,,,,,,,,,,,,,
,,,,,,,,,,stimuli/images/PICTURE_2.png,YARD,5c92870723bd7e001870138e,1009,2020-09-12_06h49.43.748,proactive3.2,2020.1.2,Linux x86_64,60,1,,,,,,tyre,,,,,,0,1,1,55,1,6,2,,,,,,,,,,,,,,,,,,,,,,,,,,,,,,,,,,,,,,,,,,,,,,,,,,,,,,,,,,,,,,,,,,,,,,,,,,,
,,,,,,,,,,stimuli/images/PICTURE_314.png,SPEECH,5c92870723bd7e001870138e,1009,2020-09-12_06h49.43.748,proactive3.2,2020.1.2,Linux x86_64,60,1,,,,,,perfume,,,,,,0,2,2,35,1,4,2,,,,,,,,,,,,,,,,,,,,,,,,,,,,,,,,,,,,,,,,,,,,,,,,,,,,,,,,,,,,,,,,,,,,,,,,,,,
,,,,,,,,,,stimuli/images/PICTURE_405.png,JUNGLE,5c92870723bd7e001870138e,1009,2020-09-12_06h49.43.748,proactive3.2,2020.1.2,Linux x86_64,60,1,,,,,,anchor,,,,,,0,3,3,13,1,2,2,,,,,,,,,,,,,,,,,,,,,,,,,,,,,,,,,,,,,,,,,,,,,,,,,,,,,,,,,,,,,,,,,,,,,,,,,,,
,,,,,,,,,,stimuli/images/PICTURE_491.png,SERIES,5c92870723bd7e001870138e,1009,2020-09-12_06h49.43.748,proactive3.2,2020.1.2,Linux x86_64,60,1,,,,,,rug,,,,,,0,4,4,39,1,4,2,,,,,,,,,,,,,,,,,,,,,,,,,,,,,,,,,,,,,,,,,,,,,,,,,,,,,,,,,,,,,,,,,,,,,,,,,,,
,,,,,,,,,,stimuli/images/PICTURE_32.png,LETTER,5c92870723bd7e001870138e,1009,2020-09-12_06h49.43.748,proactive3.2,2020.1.2,Linux x86_64,60,1,,,,,,crown,,,,,,0,5,5,56,1,6,2,,,,,,,,,,,,,,,,,,,,,,,,,,,,,,,,,,,,,,,,,,,,,,,,,,,,,,,,,,,,,,,,,,,,,,,,,,,
,,,,,,,,,,stimuli/images/PICTURE_255.png,PENNY,5c92870723bd7e001870138e,1009,2020-09-12_06h49.43.748,proactive3.2,2020.1.2,Linux x86_64,60,1,,,,,,shovel,,,,,,0,6,6,19,1,2,2,,,,,,,,,,,,,,,,,,,,,,,,,,,,,,,,,,,,,,,,,,,,,,,,,,,,,,,,,,,,,,,,,,,,,,,,,,,
,,,,,,,,,,stimuli/images/PICTURE_453.png,FAMILY,5c92870723bd7e001870138e,1009,2020-09-12_06h49.43.748,proactive3.2,2020.1.2,Linux x86_64,60,1,,,,,,scissors,,,,,,0,7,7,48,1,5,2,,,,,,,,,,,,,,,,,,,,,,,,,,,,,,,,,,,,,,,,,,,,,,,,,,,,,,,,,,,,,,,,,,,,,,,,,,,
,,,,,,,,,,stimuli/images/PICTURE_33.png,COPS,5c92870723bd7e001870138e,1009,2020-09-12_06h49.43.748,proactive3.2,2020.1.2,Linux x86_64,60,1,,,,,,frame,,,,,,0,8,8,29,1,3,2,,,,,,,,,,,,,,,,,,,,,,,,,,,,,,,,,,,,,,,,,,,,,,,,,,,,,,,,,,,,,,,,,,,,,,,,,,,
,,,,,,,,,,stimuli/images/PICTURE_348.png,DUDE,5c92870723bd7e001870138e,1009,2020-09-12_06h49.43.748,proactive3.2,2020.1.2,Linux x86_64,60,1,,,,,,pepper,,,,,,0,9,9,59,1,6,2,,,,,,,,,,,,,,,,,,,,,,,,,,,,,,,,,,,,,,,,,,,,,,,,,,,,,,,,,,,,,,,,,,,,,,,,,,,
,,,,,,,,,,stimuli/images/PICTURE_57.png,CANDY,5c92870723bd7e001870138e,1009,2020-09-12_06h49.43.748,proactive3.2,2020.1.2,Linux x86_64,60,1,,,,,,stamp,,,,,,0,10,10,52,1,6,2,,,,,,,,,,,,,,,,,,,,,,,,,,,,,,,,,,,,,,,,,,,,,,,,,,,,,,,,,,,,,,,,,,,,,,,,,,,
,,,,,,,,,,stimuli/images/PICTURE_564.png,PLENTY,5c92870723bd7e001870138e,1009,2020-09-12_06h49.43.748,proactive3.2,2020.1.2,Linux x86_64,60,1,,,,,,spoon,,,,,,0,11,11,11,1,2,2,,,,,,,,,,,,,,,,,,,,,,,,,,,,,,,,,,,,,,,,,,,,,,,,,,,,,,,,,,,,,,,,,,,,,,,,,,,
,,,,,,,,,,stimuli/images/PICTURE_509.png,SHOTS,5c92870723bd7e001870138e,1009,2020-09-12_06h49.43.748,proactive3.2,2020.1.2,Linux x86_64,60,1,,,,,,telephone,,,,,,0,12,12,7,1,1,2,,,,,,,,,,,,,,,,,,,,,,,,,,,,,,,,,,,,,,,,,,,,,,,,,,,,,,,,,,,,,,,,,,,,,,,,,,,
,,,,,,,,,,stimuli/images/PICTURE_677.png,FAMILY,5c92870723bd7e001870138e,1009,2020-09-12_06h49.43.748,proactive3.2,2020.1.2,Linux x86_64,60,1,,,,,,map,,,,,,0,13,13,53,1,6,2,,,,,,,,,,,,,,,,,,,,,,,,,,,,,,,,,,,,,,,,,,,,,,,,,,,,,,,,,,,,,,,,,,,,,,,,,,,
,,,,,,,,,,stimuli/images/PICTURE_208.png,SPIRIT,5c92870723bd7e001870138e,1009,2020-09-12_06h49.43.748,proactive3.2,2020.1.2,Linux x86_64,60,1,,,,,,microphone,,,,,,0,14,14,28,1,3,2,,,,,,,,,,,,,,,,,,,,,,,,,,,,,,,,,,,,,,,,,,,,,,,,,,,,,,,,,,,,,,,,,,,,,,,,,,,
,,,,,,,,,,stimuli/images/PICTURE_57.png,CASINO,5c92870723bd7e001870138e,1009,2020-09-12_06h49.43.748,proactive3.2,2020.1.2,Linux x86_64,60,1,,,,,,stamp,,,,,,0,15,15,12,1,2,2,,,,,,,,,,,,,,,,,,,,,,,,,,,,,,,,,,,,,,,,,,,,,,,,,,,,,,,,,,,,,,,,,,,,,,,,,,,
,,,,,,,,,,stimuli/images/PICTURE_215.png,FOOD,5c92870723bd7e001870138e,1009,2020-09-12_06h49.43.748,proactive3.2,2020.1.2,Linux x86_64,60,1,,,,,,boot,,,,,,0,16,16,5,1,1,2,,,,,,,,,,,,,,,,,,,,,,,,,,,,,,,,,,,,,,,,,,,,,,,,,,,,,,,,,,,,,,,,,,,,,,,,,,,
,,,,,,,,,,stimuli/images/PICTURE_470.png,MOMENT,5c92870723bd7e001870138e,1009,2020-09-12_06h49.43.748,proactive3.2,2020.1.2,Linux x86_64,60,1,,,,,,motorbike,,,,,,0,17,17,40,1,5,2,,,,,,,,,,,,,,,,,,,,,,,,,,,,,,,,,,,,,,,,,,,,,,,,,,,,,,,,,,,,,,,,,,,,,,,,,,,
,,,,,,,,,,stimuli/images/PICTURE_57.png,NATION,5c92870723bd7e001870138e,1009,2020-09-12_06h49.43.748,proactive3.2,2020.1.2,Linux x86_64,60,1,,,,,,stamp,,,,,,0,18,18,21,1,3,2,,,,,,,,,,,,,,,,,,,,,,,,,,,,,,,,,,,,,,,,,,,,,,,,,,,,,,,,,,,,,,,,,,,,,,,,,,,
,,,,,,,,,,stimuli/images/PICTURE_311.png,FLESH,5c92870723bd7e001870138e,1009,2020-09-12_06h49.43.748,proactive3.2,2020.1.2,Linux x86_64,60,1,,,,,,razor,,,,,,0,19,19,3,1,1,2,,,,,,,,,,,,,,,,,,,,,,,,,,,,,,,,,,,,,,,,,,,,,,,,,,,,,,,,,,,,,,,,,,,,,,,,,,,
,,,,,,,,,,stimuli/images/PICTURE_692.png,DUDE,5c92870723bd7e001870138e,1009,2020-09-12_06h49.43.748,proactive3.2,2020.1.2,Linux x86_64,60,1,,,,,,cherry,,,,,,0,20,20,47,1,5,2,,,,,,,,,,,,,,,,,,,,,,,,,,,,,,,,,,,,,,,,,,,,,,,,,,,,,,,,,,,,,,,,,,,,,,,,,,,
,,,,,,,,,,stimuli/images/PICTURE_654.png,YEAR,5c92870723bd7e001870138e,1009,2020-09-12_06h49.43.748,proactive3.2,2020.1.2,Linux x86_64,60,1,,,,,,pencil,,,,,,0,21,21,41,1,5,2,,,,,,,,,,,,,,,,,,,,,,,,,,,,,,,,,,,,,,,,,,,,,,,,,,,,,,,,,,,,,,,,,,,,,,,,,,,
,,,,,,,,,,stimuli/images/PICTURE_405.png,JUNGLE,5c92870723bd7e001870138e,1009,2020-09-12_06h49.43.748,proactive3.2,2020.1.2,Linux x86_64,60,1,,,,,,anchor,,,,,,0,22,22,58,1,6,2,,,,,,,,,,,,,,,,,,,,,,,,,,,,,,,,,,,,,,,,,,,,,,,,,,,,,,,,,,,,,,,,,,,,,,,,,,,
,,,,,,,,,,stimuli/images/PICTURE_509.png,APPLE,5c92870723bd7e001870138e,1009,2020-09-12_06h49.43.748,proactive3.2,2020.1.2,Linux x86_64,60,1,,,,,,telephone,,,,,,0,23,23,38,1,4,2,,,,,,,,,,,,,,,,,,,,,,,,,,,,,,,,,,,,,,,,,,,,,,,,,,,,,,,,,,,,,,,,,,,,,,,,,,,
,,,,,,,,,,stimuli/images/PICTURE_285.png,WRITER,5c92870723bd7e001870138e,1009,2020-09-12_06h49.43.748,proactive3.2,2020.1.2,Linux x86_64,60,1,,,,,,carrot,,,,,,0,24,24,6,1,1,2,,,,,,,,,,,,,,,,,,,,,,,,,,,,,,,,,,,,,,,,,,,,,,,,,,,,,,,,,,,,,,,,,,,,,,,,,,,
,,,,,,,,,,stimuli/images/PICTURE_311.png,TOILET,5c92870723bd7e001870138e,1009,2020-09-12_06h49.43.748,proactive3.2,2020.1.2,Linux x86_64,60,1,,,,,,razor,,,,,,0,25,25,54,1,6,2,,,,,,,,,,,,,,,,,,,,,,,,,,,,,,,,,,,,,,,,,,,,,,,,,,,,,,,,,,,,,,,,,,,,,,,,,,,
,,,,,,,,,,stimuli/images/PICTURE_750.png,POLICY,5c92870723bd7e001870138e,1009,2020-09-12_06h49.43.748,proactive3.2,2020.1.2,Linux x86_64,60,1,,,,,,kettle,,,,,,0,26,26,44,1,5,2,,,,,,,,,,,,,,,,,,,,,,,,,,,,,,,,,,,,,,,,,,,,,,,,,,,,,,,,,,,,,,,,,,,,,,,,,,,
,,,,,,,,,,stimuli/images/PICTURE_147.png,LEADER,5c92870723bd7e001870138e,1009,2020-09-12_06h49.43.748,proactive3.2,2020.1.2,Linux x86_64,60,1,,,,,,hanger,,,,,,0,27,27,33,1,4,2,,,,,,,,,,,,,,,,,,,,,,,,,,,,,,,,,,,,,,,,,,,,,,,,,,,,,,,,,,,,,,,,,,,,,,,,,,,
,,,,,,,,,,stimuli/images/PICTURE_95.png,NIGHT,5c92870723bd7e001870138e,1009,2020-09-12_06h49.43.748,proactive3.2,2020.1.2,Linux x86_64,60,1,,,,,,suitcase,,,,,,0,28,28,37,1,4,2,,,,,,,,,,,,,,,,,,,,,,,,,,,,,,,,,,,,,,,,,,,,,,,,,,,,,,,,,,,,,,,,,,,,,,,,,,,
,,,,,,,,,,stimuli/images/PICTURE_504.png,HOUSE,5c92870723bd7e001870138e,1009,2020-09-12_06h49.43.748,proactive3.2,2020.1.2,Linux x86_64,60,1,,,,,,wheel,,,,,,0,29,29,36,1,4,2,,,,,,,,,,,,,,,,,,,,,,,,,,,,,,,,,,,,,,,,,,,,,,,,,,,,,,,,,,,,,,,,,,,,,,,,,,,
,,,,,,,,,,stimuli/images/PICTURE_688.png,CLOCK,5c92870723bd7e001870138e,1009,2020-09-12_06h49.43.748,proactive3.2,2020.1.2,Linux x86_64,60,1,,,,,,runner,,,,,,0,30,30,42,1,5,2,,,,,,,,,,,,,,,,,,,,,,,,,,,,,,,,,,,,,,,,,,,,,,,,,,,,,,,,,,,,,,,,,,,,,,,,,,,
,,,,,,,,,,stimuli/images/PICTURE_348.png,TOILET,5c92870723bd7e001870138e,1009,2020-09-12_06h49.43.748,proactive3.2,2020.1.2,Linux x86_64,60,1,,,,,,pepper,,,,,,0,31,31,4,1,1,2,,,,,,,,,,,,,,,,,,,,,,,,,,,,,,,,,,,,,,,,,,,,,,,,,,,,,,,,,,,,,,,,,,,,,,,,,,,
,,,,,,,,,,stimuli/images/PICTURE_297.png,BODY,5c92870723bd7e001870138e,1009,2020-09-12_06h49.43.748,proactive3.2,2020.1.2,Linux x86_64,60,1,,,,,,aeroplane,,,,,,0,32,32,51,1,6,2,,,,,,,,,,,,,,,,,,,,,,,,,,,,,,,,,,,,,,,,,,,,,,,,,,,,,,,,,,,,,,,,,,,,,,,,,,,
,,,,,,,,,,stimuli/images/PICTURE_2.png,JUNGLE,5c92870723bd7e001870138e,1009,2020-09-12_06h49.43.748,proactive3.2,2020.1.2,Linux x86_64,60,1,,,,,,tyre,,,,,,0,33,33,1,1,1,2,,,,,,,,,,,,,,,,,,,,,,,,,,,,,,,,,,,,,,,,,,,,,,,,,,,,,,,,,,,,,,,,,,,,,,,,,,,
,,,,,,,,,,stimuli/images/PICTURE_177.png,HOUSE,5c92870723bd7e001870138e,1009,2020-09-12_06h49.43.748,proactive3.2,2020.1.2,Linux x86_64,60,1,,,,,,mushroom,,,,,,0,34,34,25,1,3,2,,,,,,,,,,,,,,,,,,,,,,,,,,,,,,,,,,,,,,,,,,,,,,,,,,,,,,,,,,,,,,,,,,,,,,,,,,,
,,,,,,,,,,stimuli/images/PICTURE_708.png,VALLEY,5c92870723bd7e001870138e,1009,2020-09-12_06h49.43.748,proactive3.2,2020.1.2,Linux x86_64,60,1,,,,,,monkey,,,,,,0,35,35,45,1,5,2,,,,,,,,,,,,,,,,,,,,,,,,,,,,,,,,,,,,,,,,,,,,,,,,,,,,,,,,,,,,,,,,,,,,,,,,,,,
,,,,,,,,,,stimuli/images/PICTURE_655.png,SALE,5c92870723bd7e001870138e,1009,2020-09-12_06h49.43.748,proactive3.2,2020.1.2,Linux x86_64,60,1,,,,,,megaphone,,,,,,0,36,36,57,1,6,2,,,,,,,,,,,,,,,,,,,,,,,,,,,,,,,,,,,,,,,,,,,,,,,,,,,,,,,,,,,,,,,,,,,,,,,,,,,
,,,,,,,,,,stimuli/images/PICTURE_487.png,ROOF,5c92870723bd7e001870138e,1009,2020-09-12_06h49.43.748,proactive3.2,2020.1.2,Linux x86_64,60,1,,,,,,basket,,,,,,0,37,37,50,1,6,2,,,,,,,,,,,,,,,,,,,,,,,,,,,,,,,,,,,,,,,,,,,,,,,,,,,,,,,,,,,,,,,,,,,,,,,,,,,
,,,,,,,,,,stimuli/images/PICTURE_509.png,BATH,5c92870723bd7e001870138e,1009,2020-09-12_06h49.43.748,proactive3.2,2020.1.2,Linux x86_64,60,1,,,,,,telephone,,,,,,0,38,38,15,1,2,2,,,,,,,,,,,,,,,,,,,,,,,,,,,,,,,,,,,,,,,,,,,,,,,,,,,,,,,,,,,,,,,,,,,,,,,,,,,
,,,,,,,,,,stimuli/images/PICTURE_487.png,POLICY,5c92870723bd7e001870138e,1009,2020-09-12_06h49.43.748,proactive3.2,2020.1.2,Linux x86_64,60,1,,,,,,basket,,,,,,0,39,39,34,1,4,2,,,,,,,,,,,,,,,,,,,,,,,,,,,,,,,,,,,,,,,,,,,,,,,,,,,,,,,,,,,,,,,,,,,,,,,,,,,
,,,,,,,,,,stimuli/images/PICTURE_2.png,AREA,5c92870723bd7e001870138e,1009,2020-09-12_06h49.43.748,proactive3.2,2020.1.2,Linux x86_64,60,1,,,,,,tyre,,,,,,0,40,40,32,1,4,2,,,,,,,,,,,,,,,,,,,,,,,,,,,,,,,,,,,,,,,,,,,,,,,,,,,,,,,,,,,,,,,,,,,,,,,,,,,
,,,,,,,,,,stimuli/images/PICTURE_654.png,COPS,5c92870723bd7e001870138e,1009,2020-09-12_06h49.43.748,proactive3.2,2020.1.2,Linux x86_64,60,1,,,,,,pencil,,,,,,0,41,41,10,1,2,2,,,,,,,,,,,,,,,,,,,,,,,,,,,,,,,,,,,,,,,,,,,,,,,,,,,,,,,,,,,,,,,,,,,,,,,,,,,
,,,,,,,,,,stimuli/images/PICTURE_68.png,KIND,5c92870723bd7e001870138e,1009,2020-09-12_06h49.43.748,proactive3.2,2020.1.2,Linux x86_64,60,1,,,,,,candle,,,,,,0,42,42,23,1,3,2,,,,,,,,,,,,,,,,,,,,,,,,,,,,,,,,,,,,,,,,,,,,,,,,,,,,,,,,,,,,,,,,,,,,,,,,,,,
,,,,,,,,,,stimuli/images/PICTURE_356.png,CANDY,5c92870723bd7e001870138e,1009,2020-09-12_06h49.43.748,proactive3.2,2020.1.2,Linux x86_64,60,1,,,,,,pawn,,,,,,0,43,43,46,1,5,2,,,,,,,,,,,,,,,,,,,,,,,,,,,,,,,,,,,,,,,,,,,,,,,,,,,,,,,,,,,,,,,,,,,,,,,,,,,
,,,,,,,,,,stimuli/images/PICTURE_18.png,RIVER,5c92870723bd7e001870138e,1009,2020-09-12_06h49.43.748,proactive3.2,2020.1.2,Linux x86_64,60,1,,,,,,planet,,,,,,0,44,44,22,1,3,2,,,,,,,,,,,,,,,,,,,,,,,,,,,,,,,,,,,,,,,,,,,,,,,,,,,,,,,,,,,,,,,,,,,,,,,,,,,
,,,,,,,,,,stimuli/images/PICTURE_452.png,COPS,5c92870723bd7e001870138e,1009,2020-09-12_06h49.43.748,proactive3.2,2020.1.2,Linux x86_64,60,1,,,,,,watch,,,,,,0,45,45,0,1,1,2,,,,,,,,,,,,,,,,,,,,,,,,,,,,,,,,,,,,,,,,,,,,,,,,,,,,,,,,,,,,,,,,,,,,,,,,,,,
,,,,,,,,,,stimuli/images/PICTURE_123.png,SALE,5c92870723bd7e001870138e,1009,2020-09-12_06h49.43.748,proactive3.2,2020.1.2,Linux x86_64,60,1,,,,,,dart,,,,,,0,46,46,8,1,1,2,,,,,,,,,,,,,,,,,,,,,,,,,,,,,,,,,,,,,,,,,,,,,,,,,,,,,,,,,,,,,,,,,,,,,,,,,,,
,,,,,,,,,,stimuli/images/PICTURE_215.png,BOYS,5c92870723bd7e001870138e,1009,2020-09-12_06h49.43.748,proactive3.2,2020.1.2,Linux x86_64,60,1,,,,,,boot,,,,,,0,47,47,24,1,3,2,,,,,,,,,,,,,,,,,,,,,,,,,,,,,,,,,,,,,,,,,,,,,,,,,,,,,,,,,,,,,,,,,,,,,,,,,,,
,,,,,,,,,,stimuli/images/PICTURE_403.png,FAMILY,5c92870723bd7e001870138e,1009,2020-09-12_06h49.43.748,proactive3.2,2020.1.2,Linux x86_64,60,1,,,,,,cathedral,,,,,,0,48,48,9,1,1,2,,,,,,,,,,,,,,,,,,,,,,,,,,,,,,,,,,,,,,,,,,,,,,,,,,,,,,,,,,,,,,,,,,,,,,,,,,,
,,,,,,,,,,stimuli/images/PICTURE_285.png,PRINCE,5c92870723bd7e001870138e,1009,2020-09-12_06h49.43.748,proactive3.2,2020.1.2,Linux x86_64,60,1,,,,,,carrot,,,,,,0,49,49,20,1,3,2,,,,,,,,,,,,,,,,,,,,,,,,,,,,,,,,,,,,,,,,,,,,,,,,,,,,,,,,,,,,,,,,,,,,,,,,,,,
,,,,,,,,,,stimuli/images/PICTURE_470.png,BEAUTY,5c92870723bd7e001870138e,1009,2020-09-12_06h49.43.748,proactive3.2,2020.1.2,Linux x86_64,60,1,,,,,,motorbike,,,,,,0,50,50,26,1,3,2,,,,,,,,,,,,,,,,,,,,,,,,,,,,,,,,,,,,,,,,,,,,,,,,,,,,,,,,,,,,,,,,,,,,,,,,,,,
,,,,,,,,,,stimuli/images/PICTURE_677.png,PHOTO,5c92870723bd7e001870138e,1009,2020-09-12_06h49.43.748,proactive3.2,2020.1.2,Linux x86_64,60,1,,,,,,map,,,,,,0,51,51,14,1,2,2,,,,,,,,,,,,,,,,,,,,,,,,,,,,,,,,,,,,,,,,,,,,,,,,,,,,,,,,,,,,,,,,,,,,,,,,,,,
,,,,,,,,,,stimuli/images/PICTURE_405.png,HOUSE,5c92870723bd7e001870138e,1009,2020-09-12_06h49.43.748,proactive3.2,2020.1.2,Linux x86_64,60,1,,,,,,anchor,,,,,,0,52,52,2,1,1,2,,,,,,,,,,,,,,,,,,,,,,,,,,,,,,,,,,,,,,,,,,,,,,,,,,,,,,,,,,,,,,,,,,,,,,,,,,,
,,,,,,,,,,stimuli/images/PICTURE_296.png,CLOCK,5c92870723bd7e001870138e,1009,2020-09-12_06h49.43.748,proactive3.2,2020.1.2,Linux x86_64,60,1,,,,,,bolt,,,,,,0,53,53,18,1,2,2,,,,,,,,,,,,,,,,,,,,,,,,,,,,,,,,,,,,,,,,,,,,,,,,,,,,,,,,,,,,,,,,,,,,,,,,,,,
,,,,,,,,,,stimuli/images/PICTURE_327.png,LEADER,5c92870723bd7e001870138e,1009,2020-09-12_06h49.43.748,proactive3.2,2020.1.2,Linux x86_64,60,1,,,,,,helmet,,,,,,0,54,54,17,1,2,2,,,,,,,,,,,,,,,,,,,,,,,,,,,,,,,,,,,,,,,,,,,,,,,,,,,,,,,,,,,,,,,,,,,,,,,,,,,
,,,,,,,,,,stimuli/images/PICTURE_141.png,CLIENT,5c92870723bd7e001870138e,1009,2020-09-12_06h49.43.748,proactive3.2,2020.1.2,Linux x86_64,60,1,,,,,,sunflower,,,,,,0,55,55,30,1,4,2,,,,,,,,,,,,,,,,,,,,,,,,,,,,,,,,,,,,,,,,,,,,,,,,,,,,,,,,,,,,,,,,,,,,,,,,,,,
,,,,,,,,,,stimuli/images/PICTURE_215.png,LEADER,5c92870723bd7e001870138e,1009,2020-09-12_06h49.43.748,proactive3.2,2020.1.2,Linux x86_64,60,1,,,,,,boot,,,,,,0,56,56,43,1,5,2,,,,,,,,,,,,,,,,,,,,,,,,,,,,,,,,,,,,,,,,,,,,,,,,,,,,,,,,,,,,,,,,,,,,,,,,,,,
,,,,,,,,,,stimuli/images/PICTURE_160.png,HOTEL,5c92870723bd7e001870138e,1009,2020-09-12_06h49.43.748,proactive3.2,2020.1.2,Linux x86_64,60,1,,,,,,wheelbarrow,,,,,,0,57,57,16,1,2,2,,,,,,,,,,,,,,,,,,,,,,,,,,,,,,,,,,,,,,,,,,,,,,,,,,,,,,,,,,,,,,,,,,,,,,,,,,,
,,,,,,,,,,stimuli/images/PICTURE_509.png,MILLER,5c92870723bd7e001870138e,1009,2020-09-12_06h49.43.748,proactive3.2,2020.1.2,Linux x86_64,60,1,,,,,,telephone,,,,,,0,58,58,49,1,5,2,,,,,,,,,,,,,,,,,,,,,,,,,,,,,,,,,,,,,,,,,,,,,,,,,,,,,,,,,,,,,,,,,,,,,,,,,,,
,,?,0.0018,0,,,,,,stimuli/images/PICTURE_57.png,CANDY,5c92870723bd7e001870138e,1009,2020-09-12_06h49.43.748,proactive3.2,2020.1.2,Linux x86_64,60,1,,,,,,stamp,,,,,,,,,,,6,2,0,0,0,52,1,,,,,,,,,,,,,,,,,,,,,,,,,,,,,,,,,,,,,,,,,,,,,,,,,,,,,,,,,,,,,,,,,,,,,,
,,?,0.0015,0,,,,,,stimuli/images/PICTURE_509.png,BATH,5c92870723bd7e001870138e,1009,2020-09-12_06h49.43.748,proactive3.2,2020.1.2,Linux x86_64,60,1,,,,,,telephone,,,,,,,,,,,2,2,0,1,1,15,1,,,,,,,,,,,,,,,,,,,,,,,,,,,,,,,,,,,,,,,,,,,,,,,,,,,,,,,,,,,,,,,,,,,,,,
,,FAMILY,12.4701,0,,,,,,stimuli/images/PICTURE_452.png,COPS,5c92870723bd7e001870138e,1009,2020-09-12_06h49.43.748,proactive3.2,2020.1.2,Linux x86_64,60,1,,,,,,watch,,,,,,,,,,,1,2,0,2,2,0,1,,,,,,,,,,,,,,,,,,,,,,,,,,,,,,,,,,,,,,,,,,,,,,,,,,,,,,,,,,,,,,,,,,,,,,
,,?,0.0025,0,,,,,,stimuli/images/PICTURE_405.png,JUNGLE,5c92870723bd7e001870138e,1009,2020-09-12_06h49.43.748,proactive3.2,2020.1.2,Linux x86_64,60,1,,,,,,anchor,,,,,,,,,,,2,2,0,3,3,13,1,,,,,,,,,,,,,,,,,,,,,,,,,,,,,,,,,,,,,,,,,,,,,,,,,,,,,,,,,,,,,,,,,,,,,,
,,?,0.0023,0,,,,,,stimuli/images/PICTURE_667.png,GLASS,5c92870723bd7e001870138e,1009,2020-09-12_06h49.43.748,proactive3.2,2020.1.2,Linux x86_64,60,1,,,,,,daisy,,,,,,,,,,,3,2,0,4,4,27,1,,,,,,,,,,,,,,,,,,,,,,,,,,,,,,,,,,,,,,,,,,,,,,,,,,,,,,,,,,,,,,,,,,,,,,
,,?,0.0022,0,,,,,,stimuli/images/PICTURE_95.png,NIGHT,5c92870723bd7e001870138e,1009,2020-09-12_06h49.43.748,proactive3.2,2020.1.2,Linux x86_64,60,1,,,,,,suitcase,,,,,,,,,,,4,2,0,5,5,37,1,,,,,,,,,,,,,,,,,,,,,,,,,,,,,,,,,,,,,,,,,,,,,,,,,,,,,,,,,,,,,,,,,,,,,,
,,?,0.0015,0,,,,,,stimuli/images/PICTURE_160.png,HOTEL,5c92870723bd7e001870138e,1009,2020-09-12_06h49.43.748,proactive3.2,2020.1.2,Linux x86_64,60,1,,,,,,wheelbarrow,,,,,,,,,,,2,2,0,6,6,16,1,,,,,,,,,,,,,,,,,,,,,,,,,,,,,,,,,,,,,,,,,,,,,,,,,,,,,,,,,,,,,,,,,,,,,,
,,?,0.0014,0,,,,,,stimuli/images/PICTURE_57.png,NATION,5c92870723bd7e001870138e,1009,2020-09-12_06h49.43.748,proactive3.2,2020.1.2,Linux x86_64,60,1,,,,,,stamp,,,,,,,,,,,3,2,0,7,7,21,1,,,,,,,,,,,,,,,,,,,,,,,,,,,,,,,,,,,,,,,,,,,,,,,,,,,,,,,,,,,,,,,,,,,,,,
,,?,0.0014,0,,,,,,stimuli/images/PICTURE_215.png,BOYS,5c92870723bd7e001870138e,1009,2020-09-12_06h49.43.748,proactive3.2,2020.1.2,Linux x86_64,60,1,,,,,,boot,,,,,,,,,,,3,2,0,8,8,24,1,,,,,,,,,,,,,,,,,,,,,,,,,,,,,,,,,,,,,,,,,,,,,,,,,,,,,,,,,,,,,,,,,,,,,,
,,?,0.0016,0,,,,,,stimuli/images/PICTURE_215.png,LEADER,5c92870723bd7e001870138e,1009,2020-09-12_06h49.43.748,proactive3.2,2020.1.2,Linux x86_64,60,1,,,,,,boot,,,,,,,,,,,5,2,0,9,9,43,1,,,,,,,,,,,,,,,,,,,,,,,,,,,,,,,,,,,,,,,,,,,,,,,,,,,,,,,,,,,,,,,,,,,,,,
,,FAMILY,6.1492,1,,,,,,stimuli/images/PICTURE_403.png,FAMILY,5c92870723bd7e001870138e,1009,2020-09-12_06h49.43.748,proactive3.2,2020.1.2,Linux x86_64,60,1,,,,,,cathedral,,,,,,,,,,,1,2,0,10,10,9,1,,,,,,,,,,,,,,,,,,,,,,,,,,,,,,,,,,,,,,,,,,,,,,,,,,,,,,,,,,,,,,,,,,,,,,
,,?,0.0024,0,,,,,,stimuli/images/PICTURE_405.png,JUNGLE,5c92870723bd7e001870138e,1009,2020-09-12_06h49.43.748,proactive3.2,2020.1.2,Linux x86_64,60,1,,,,,,anchor,,,,,,,,,,,6,2,0,11,11,58,1,,,,,,,,,,,,,,,,,,,,,,,,,,,,,,,,,,,,,,,,,,,,,,,,,,,,,,,,,,,,,,,,,,,,,,
,,?,0.0023,0,,,,,,stimuli/images/PICTURE_504.png,HOUSE,5c92870723bd7e001870138e,1009,2020-09-12_06h49.43.748,proactive3.2,2020.1.2,Linux x86_64,60,1,,,,,,wheel,,,,,,,,,,,4,2,0,12,12,36,1,,,,,,,,,,,,,,,,,,,,,,,,,,,,,,,,,,,,,,,,,,,,,,,,,,,,,,,,,,,,,,,,,,,,,,
,,FOOD,7.0222,0,,,,,,stimuli/images/PICTURE_509.png,SHOTS,5c92870723bd7e001870138e,1009,2020-09-12_06h49.43.748,proactive3.2,2020.1.2,Linux x86_64,60,1,,,,,,telephone,,,,,,,,,,,1,2,0,13,13,7,1,,,,,,,,,,,,,,,,,,,,,,,,,,,,,,,,,,,,,,,,,,,,,,,,,,,,,,,,,,,,,,,,,,,,,,
,,?,0.0026,0,,,,,,stimuli/images/PICTURE_708.png,VALLEY,5c92870723bd7e001870138e,1009,2020-09-12_06h49.43.748,proactive3.2,2020.1.2,Linux x86_64,60,1,,,,,,monkey,,,,,,,,,,,5,2,0,14,14,45,1,,,,,,,,,,,,,,,,,,,,,,,,,,,,,,,,,,,,,,,,,,,,,,,,,,,,,,,,,,,,,,,,,,,,,,
,,?,0.0023,0,,,,,,stimuli/images/PICTURE_327.png,LEADER,5c92870723bd7e001870138e,1009,2020-09-12_06h49.43.748,proactive3.2,2020.1.2,Linux x86_64,60,1,,,,,,helmet,,,,,,,,,,,2,2,0,15,15,17,1,,,,,,,,,,,,,,,,,,,,,,,,,,,,,,,,,,,,,,,,,,,,,,,,,,,,,,,,,,,,,,,,,,,,,,
,,?,0.0014,0,,,,,,stimuli/images/PICTURE_509.png,APPLE,5c92870723bd7e001870138e,1009,2020-09-12_06h49.43.748,proactive3.2,2020.1.2,Linux x86_64,60,1,,,,,,telephone,,,,,,,,,,,4,2,0,16,16,38,1,,,,,,,,,,,,,,,,,,,,,,,,,,,,,,,,,,,,,,,,,,,,,,,,,,,,,,,,,,,,,,,,,,,,,,
,,?,0.0014,0,,,,,,stimuli/images/PICTURE_296.png,CLOCK,5c92870723bd7e001870138e,1009,2020-09-12_06h49.43.748,proactive3.2,2020.1.2,Linux x86_64,60,1,,,,,,bolt,,,,,,,,,,,2,2,0,17,17,18,1,,,,,,,,,,,,,,,,,,,,,,,,,,,,,,,,,,,,,,,,,,,,,,,,,,,,,,,,,,,,,,,,,,,,,,
,,CHAIN,12.7123,0,,,,,,stimuli/images/PICTURE_405.png,HOUSE,5c92870723bd7e001870138e,1009,2020-09-12_06h49.43.748,proactive3.2,2020.1.2,Linux x86_64,60,1,,,,,,anchor,,,,,,,,,,,1,2,0,18,18,2,1,,,,,,,,,,,,,,,,,,,,,,,,,,,,,,,,,,,,,,,,,,,,,,,,,,,,,,,,,,,,,,,,,,,,,,
,,?,0.0019,0,,,,,,stimuli/images/PICTURE_33.png,COPS,5c92870723bd7e001870138e,1009,2020-09-12_06h49.43.748,proactive3.2,2020.1.2,Linux x86_64,60,1,,,,,,frame,,,,,,,,,,,3,2,0,19,19,29,1,,,,,,,,,,,,,,,,,,,,,,,,,,,,,,,,,,,,,,,,,,,,,,,,,,,,,,,,,,,,,,,,,,,,,,
,,EVIL,8.9074,0,,,,,,stimuli/images/PICTURE_348.png,TOILET,5c92870723bd7e001870138e,1009,2020-09-12_06h49.43.748,proactive3.2,2020.1.2,Linux x86_64,60,1,,,,,,pepper,,,,,,,,,,,1,2,0,20,20,4,1,,,,,,,,,,,,,,,,,,,,,,,,,,,,,,,,,,,,,,,,,,,,,,,,,,,,,,,,,,,,,,,,,,,,,,
,,?,0.0024,0,,,,,,stimuli/images/PICTURE_93.png,GIRL,5c92870723bd7e001870138e,1009,2020-09-12_06h49.43.748,proactive3.2,2020.1.2,Linux x86_64,60,1,,,,,,skateboard,,,,,,,,,,,4,2,0,21,21,31,1,,,,,,,,,,,,,,,,,,,,,,,,,,,,,,,,,,,,,,,,,,,,,,,,,,,,,,,,,,,,,,,,,,,,,,
,,?,0.0018,0,,,,,,stimuli/images/PICTURE_285.png,PRINCE,5c92870723bd7e001870138e,1009,2020-09-12_06h49.43.748,proactive3.2,2020.1.2,Linux x86_64,60,1,,,,,,carrot,,,,,,,,,,,3,2,0,22,22,20,1,,,,,,,,,,,,,,,,,,,,,,,,,,,,,,,,,,,,,,,,,,,,,,,,,,,,,,,,,,,,,,,,,,,,,,
,,SHARP,8.0311,0,,,,,,stimuli/images/PICTURE_123.png,SALE,5c92870723bd7e001870138e,1009,2020-09-12_06h49.43.748,proactive3.2,2020.1.2,Linux x86_64,60,1,,,,,,dart,,,,,,,,,,,1,2,0,23,23,8,1,,,,,,,,,,,,,,,,,,,,,,,,,,,,,,,,,,,,,,,,,,,,,,,,,,,,,,,,,,,,,,,,,,,,,,
,,?,0.0016,0,,,,,,stimuli/images/PICTURE_487.png,ROOF,5c92870723bd7e001870138e,1009,2020-09-12_06h49.43.748,proactive3.2,2020.1.2,Linux x86_64,60,1,,,,,,basket,,,,,,,,,,,6,2,0,24,24,50,1,,,,,,,,,,,,,,,,,,,,,,,,,,,,,,,,,,,,,,,,,,,,,,,,,,,,,,,,,,,,,,,,,,,,,,
,,?,0.0014,0,,,,,,stimuli/images/PICTURE_348.png,DUDE,5c92870723bd7e001870138e,1009,2020-09-12_06h49.43.748,proactive3.2,2020.1.2,Linux x86_64,60,1,,,,,,pepper,,,,,,,,,,,6,2,0,25,25,59,1,,,,,,,,,,,,,,,,,,,,,,,,,,,,,,,,,,,,,,,,,,,,,,,,,,,,,,,,,,,,,,,,,,,,,,
,,?,0.0012,0,,,,,,stimuli/images/PICTURE_208.png,SPIRIT,5c92870723bd7e001870138e,1009,2020-09-12_06h49.43.748,proactive3.2,2020.1.2,Linux x86_64,60,1,,,,,,microphone,,,,,,,,,,,3,2,0,26,26,28,1,,,,,,,,,,,,,,,,,,,,,,,,,,,,,,,,,,,,,,,,,,,,,,,,,,,,,,,,,,,,,,,,,,,,,,
,,?,0.0015,0,,,,,,stimuli/images/PICTURE_177.png,HOUSE,5c92870723bd7e001870138e,1009,2020-09-12_06h49.43.748,proactive3.2,2020.1.2,Linux x86_64,60,1,,,,,,mushroom,,,,,,,,,,,3,2,0,27,27,25,1,,,,,,,,,,,,,,,,,,,,,,,,,,,,,,,,,,,,,,,,,,,,,,,,,,,,,,,,,,,,,,,,,,,,,,
,,?,0.0015,0,,,,,,stimuli/images/PICTURE_57.png,CASINO,5c92870723bd7e001870138e,1009,2020-09-12_06h49.43.748,proactive3.2,2020.1.2,Linux x86_64,60,1,,,,,,stamp,,,,,,,,,,,2,2,0,28,28,12,1,,,,,,,,,,,,,,,,,,,,,,,,,,,,,,,,,,,,,,,,,,,,,,,,,,,,,,,,,,,,,,,,,,,,,,
,,?,0.0015,0,,,,,,stimuli/images/PICTURE_68.png,KIND,5c92870723bd7e001870138e,1009,2020-09-12_06h49.43.748,proactive3.2,2020.1.2,Linux x86_64,60,1,,,,,,candle,,,,,,,,,,,3,2,0,29,29,23,1,,,,,,,,,,,,,,,,,,,,,,,,,,,,,,,,,,,,,,,,,,,,,,,,,,,,,,,,,,,,,,,,,,,,,,
,,?,0.0013,0,,,,,,stimuli/images/PICTURE_564.png,PLENTY,5c92870723bd7e001870138e,1009,2020-09-12_06h49.43.748,proactive3.2,2020.1.2,Linux x86_64,60,1,,,,,,spoon,,,,,,,,,,,2,2,0,30,30,11,1,,,,,,,,,,,,,,,,,,,,,,,,,,,,,,,,,,,,,,,,,,,,,,,,,,,,,,,,,,,,,,,,,,,,,,
,,?,0.0012,0,,,,,,stimuli/images/PICTURE_677.png,PHOTO,5c92870723bd7e001870138e,1009,2020-09-12_06h49.43.748,proactive3.2,2020.1.2,Linux x86_64,60,1,,,,,,map,,,,,,,,,,,2,2,0,31,31,14,1,,,,,,,,,,,,,,,,,,,,,,,,,,,,,,,,,,,,,,,,,,,,,,,,,,,,,,,,,,,,,,,,,,,,,,
,,?,0.0012,0,,,,,,stimuli/images/PICTURE_297.png,BODY,5c92870723bd7e001870138e,1009,2020-09-12_06h49.43.748,proactive3.2,2020.1.2,Linux x86_64,60,1,,,,,,aeroplane,,,,,,,,,,,6,2,0,32,32,51,1,,,,,,,,,,,,,,,,,,,,,,,,,,,,,,,,,,,,,,,,,,,,,,,,,,,,,,,,,,,,,,,,,,,,,,
,,?,0.0034,0,,,,,,stimuli/images/PICTURE_692.png,DUDE,5c92870723bd7e001870138e,1009,2020-09-12_06h49.43.748,proactive3.2,2020.1.2,Linux x86_64,60,1,,,,,,cherry,,,,,,,,,,,5,2,0,33,33,47,1,,,,,,,,,,,,,,,,,,,,,,,,,,,,,,,,,,,,,,,,,,,,,,,,,,,,,,,,,,,,,,,,,,,,,,
,,BLOOD,13.7649,0,,,,,,stimuli/images/PICTURE_215.png,FOOD,5c92870723bd7e001870138e,1009,2020-09-12_06h49.43.748,proactive3.2,2020.1.2,Linux x86_64,60,1,,,,,,boot,,,,,,,,,,,1,2,0,34,34,5,1,,,,,,,,,,,,,,,,,,,,,,,,,,,,,,,,,,,,,,,,,,,,,,,,,,,,,,,,,,,,,,,,,,,,,,
,,?,0.0017,0,,,,,,stimuli/images/PICTURE_453.png,FAMILY,5c92870723bd7e001870138e,1009,2020-09-12_06h49.43.748,proactive3.2,2020.1.2,Linux x86_64,60,1,,,,,,scissors,,,,,,,,,,,5,2,0,35,35,48,1,,,,,,,,,,,,,,,,,,,,,,,,,,,,,,,,,,,,,,,,,,,,,,,,,,,,,,,,,,,,,,,,,,,,,,
,,STY,7.5345,0,,,,,,stimuli/images/PICTURE_2.png,JUNGLE,5c92870723bd7e001870138e,1009,2020-09-12_06h49.43.748,proactive3.2,2020.1.2,Linux x86_64,60,1,,,,,,tyre,,,,,,,,,,,1,2,0,36,36,1,1,,,,,,,,,,,,,,,,,,,,,,,,,,,,,,,,,,,,,,,,,,,,,,,,,,,,,,,,,,,,,,,,,,,,,,
,,?,0.0016,0,,,,,,stimuli/images/PICTURE_688.png,CLOCK,5c92870723bd7e001870138e,1009,2020-09-12_06h49.43.748,proactive3.2,2020.1.2,Linux x86_64,60,1,,,,,,runner,,,,,,,,,,,5,2,0,37,37,42,1,,,,,,,,,,,,,,,,,,,,,,,,,,,,,,,,,,,,,,,,,,,,,,,,,,,,,,,,,,,,,,,,,,,,,,
,,?,0.0014,0,,,,,,stimuli/images/PICTURE_356.png,CANDY,5c92870723bd7e001870138e,1009,2020-09-12_06h49.43.748,proactive3.2,2020.1.2,Linux x86_64,60,1,,,,,,pawn,,,,,,,,,,,5,2,0,38,38,46,1,,,,,,,,,,,,,,,,,,,,,,,,,,,,,,,,,,,,,,,,,,,,,,,,,,,,,,,,,,,,,,,,,,,,,,
,,?,0.0013,0,,,,,,stimuli/images/PICTURE_18.png,RIVER,5c92870723bd7e001870138e,1009,2020-09-12_06h49.43.748,proactive3.2,2020.1.2,Linux x86_64,60,1,,,,,,planet,,,,,,,,,,,3,2,0,39,39,22,1,,,,,,,,,,,,,,,,,,,,,,,,,,,,,,,,,,,,,,,,,,,,,,,,,,,,,,,,,,,,,,,,,,,,,,
,,?,0.0012,0,,,,,,stimuli/images/PICTURE_677.png,FAMILY,5c92870723bd7e001870138e,1009,2020-09-12_06h49.43.748,proactive3.2,2020.1.2,Linux x86_64,60,1,,,,,,map,,,,,,,,,,,6,2,0,40,40,53,1,,,,,,,,,,,,,,,,,,,,,,,,,,,,,,,,,,,,,,,,,,,,,,,,,,,,,,,,,,,,,,,,,,,,,,
,,HUM,8.3128,0,,,,,,stimuli/images/PICTURE_311.png,FLESH,5c92870723bd7e001870138e,1009,2020-09-12_06h49.43.748,proactive3.2,2020.1.2,Linux x86_64,60,1,,,,,,razor,,,,,,,,,,,1,2,0,41,41,3,1,,,,,,,,,,,,,,,,,,,,,,,,,,,,,,,,,,,,,,,,,,,,,,,,,,,,,,,,,,,,,,,,,,,,,,
,,?,0.0017,0,,,,,,stimuli/images/PICTURE_32.png,LETTER,5c92870723bd7e001870138e,1009,2020-09-12_06h49.43.748,proactive3.2,2020.1.2,Linux x86_64,60,1,,,,,,crown,,,,,,,,,,,6,2,0,42,42,56,1,,,,,,,,,,,,,,,,,,,,,,,,,,,,,,,,,,,,,,,,,,,,,,,,,,,,,,,,,,,,,,,,,,,,,,
,,?,0.0022,0,,,,,,stimuli/images/PICTURE_141.png,CLIENT,5c92870723bd7e001870138e,1009,2020-09-12_06h49.43.748,proactive3.2,2020.1.2,Linux x86_64,60,1,,,,,,sunflower,,,,,,,,,,,4,2,0,43,43,30,1,,,,,,,,,,,,,,,,,,,,,,,,,,,,,,,,,,,,,,,,,,,,,,,,,,,,,,,,,,,,,,,,,,,,,,
,,?,0.0064,0,,,,,,stimuli/images/PICTURE_470.png,MOMENT,5c92870723bd7e001870138e,1009,2020-09-12_06h49.43.748,proactive3.2,2020.1.2,Linux x86_64,60,1,,,,,,motorbike,,,,,,,,,,,5,2,0,44,44,40,1,,,,,,,,,,,,,,,,,,,,,,,,,,,,,,,,,,,,,,,,,,,,,,,,,,,,,,,,,,,,,,,,,,,,,,
,,?,0.0014,0,,,,,,stimuli/images/PICTURE_314.png,SPEECH,5c92870723bd7e001870138e,1009,2020-09-12_06h49.43.748,proactive3.2,2020.1.2,Linux x86_64,60,1,,,,,,perfume,,,,,,,,,,,4,2,0,45,45,35,1,,,,,,,,,,,,,,,,,,,,,,,,,,,,,,,,,,,,,,,,,,,,,,,,,,,,,,,,,,,,,,,,,,,,,,
,,?,0.0013,0,,,,,,stimuli/images/PICTURE_654.png,COPS,5c92870723bd7e001870138e,1009,2020-09-12_06h49.43.748,proactive3.2,2020.1.2,Linux x86_64,60,1,,,,,,pencil,,,,,,,,,,,2,2,0,46,46,10,1,,,,,,,,,,,,,,,,,,,,,,,,,,,,,,,,,,,,,,,,,,,,,,,,,,,,,,,,,,,,,,,,,,,,,,
,,?,0.0013,0,,,,,,stimuli/images/PICTURE_2.png,YARD,5c92870723bd7e001870138e,1009,2020-09-12_06h49.43.748,proactive3.2,2020.1.2,Linux x86_64,60,1,,,,,,tyre,,,,,,,,,,,6,2,0,47,47,55,1,,,,,,,,,,,,,,,,,,,,,,,,,,,,,,,,,,,,,,,,,,,,,,,,,,,,,,,,,,,,,,,,,,,,,,
,,?,0.0014,0,,,,,,stimuli/images/PICTURE_491.png,SERIES,5c92870723bd7e001870138e,1009,2020-09-12_06h49.43.748,proactive3.2,2020.1.2,Linux x86_64,60,1,,,,,,rug,,,,,,,,,,,4,2,0,48,48,39,1,,,,,,,,,,,,,,,,,,,,,,,,,,,,,,,,,,,,,,,,,,,,,,,,,,,,,,,,,,,,,,,,,,,,,,
,,?,0.0013,0,,,,,,stimuli/images/PICTURE_487.png,POLICY,5c92870723bd7e001870138e,1009,2020-09-12_06h49.43.748,proactive3.2,2020.1.2,Linux x86_64,60,1,,,,,,basket,,,,,,,,,,,4,2,0,49,49,34,1,,,,,,,,,,,,,,,,,,,,,,,,,,,,,,,,,,,,,,,,,,,,,,,,,,,,,,,,,,,,,,,,,,,,,,
,,VEGGIE,11.1025,0,,,,,,stimuli/images/PICTURE_285.png,WRITER,5c92870723bd7e001870138e,1009,2020-09-12_06h49.43.748,proactive3.2,2020.1.2,Linux x86_64,60,1,,,,,,carrot,,,,,,,,,,,1,2,0,50,50,6,1,,,,,,,,,,,,,,,,,,,,,,,,,,,,,,,,,,,,,,,,,,,,,,,,,,,,,,,,,,,,,,,,,,,,,,
,,?,0.0021,0,,,,,,stimuli/images/PICTURE_2.png,AREA,5c92870723bd7e001870138e,1009,2020-09-12_06h49.43.748,proactive3.2,2020.1.2,Linux x86_64,60,1,,,,,,tyre,,,,,,,,,,,4,2,0,51,51,32,1,,,,,,,,,,,,,,,,,,,,,,,,,,,,,,,,,,,,,,,,,,,,,,,,,,,,,,,,,,,,,,,,,,,,,,
,,?,0.0016,0,,,,,,stimuli/images/PICTURE_654.png,YEAR,5c92870723bd7e001870138e,1009,2020-09-12_06h49.43.748,proactive3.2,2020.1.2,Linux x86_64,60,1,,,,,,pencil,,,,,,,,,,,5,2,0,52,52,41,1,,,,,,,,,,,,,,,,,,,,,,,,,,,,,,,,,,,,,,,,,,,,,,,,,,,,,,,,,,,,,,,,,,,,,,
,,?,0.0017,0,,,,,,stimuli/images/PICTURE_147.png,LEADER,5c92870723bd7e001870138e,1009,2020-09-12_06h49.43.748,proactive3.2,2020.1.2,Linux x86_64,60,1,,,,,,hanger,,,,,,,,,,,4,2,0,53,53,33,1,,,,,,,,,,,,,,,,,,,,,,,,,,,,,,,,,,,,,,,,,,,,,,,,,,,,,,,,,,,,,,,,,,,,,,
,,?,0.0012,0,,,,,,stimuli/images/PICTURE_655.png,SALE,5c92870723bd7e001870138e,1009,2020-09-12_06h49.43.748,proactive3.2,2020.1.2,Linux x86_64,60,1,,,,,,megaphone,,,,,,,,,,,6,2,0,54,54,57,1,,,,,,,,,,,,,,,,,,,,,,,,,,,,,,,,,,,,,,,,,,,,,,,,,,,,,,,,,,,,,,,,,,,,,,
,,?,0.0012,0,,,,,,stimuli/images/PICTURE_255.png,PENNY,5c92870723bd7e001870138e,1009,2020-09-12_06h49.43.748,proactive3.2,2020.1.2,Linux x86_64,60,1,,,,,,shovel,,,,,,,,,,,2,2,0,55,55,19,1,,,,,,,,,,,,,,,,,,,,,,,,,,,,,,,,,,,,,,,,,,,,,,,,,,,,,,,,,,,,,,,,,,,,,,
,,?,0.0013,0,,,,,,stimuli/images/PICTURE_470.png,BEAUTY,5c92870723bd7e001870138e,1009,2020-09-12_06h49.43.748,proactive3.2,2020.1.2,Linux x86_64,60,1,,,,,,motorbike,,,,,,,,,,,3,2,0,56,56,26,1,,,,,,,,,,,,,,,,,,,,,,,,,,,,,,,,,,,,,,,,,,,,,,,,,,,,,,,,,,,,,,,,,,,,,,
,,?,0.0011,0,,,,,,stimuli/images/PICTURE_311.png,TOILET,5c92870723bd7e001870138e,1009,2020-09-12_06h49.43.748,proactive3.2,2020.1.2,Linux x86_64,60,1,,,,,,razor,,,,,,,,,,,6,2,0,57,57,54,1,,,,,,,,,,,,,,,,,,,,,,,,,,,,,,,,,,,,,,,,,,,,,,,,,,,,,,,,,,,,,,,,,,,,,,
,,?,0.0012,0,,,,,,stimuli/images/PICTURE_750.png,POLICY,5c92870723bd7e001870138e,1009,2020-09-12_06h49.43.748,proactive3.2,2020.1.2,Linux x86_64,60,1,,,,,,kettle,,,,,,,,,,,5,2,0,58,58,44,1,,,,,,,,,,,,,,,,,,,,,,,,,,,,,,,,,,,,,,,,,,,,,,,,,,,,,,,,,,,,,,,,,,,,,,
,,?,0.0012,0,,,,,,stimuli/images/PICTURE_509.png,MILLER,5c92870723bd7e001870138e,1009,2020-09-12_06h49.43.748,proactive3.2,2020.1.2,Linux x86_64,60,1,,,,,,telephone,,,,,,,,,,,5,2,0,59,59,49,1,,,,,,,,,,,,,,,,,,,,,,,,,,,,,,,,,,,,,,,,,,,,,,,,,,,,,,,,,,,,,,,,,,,,,,
,,,,,,,,,,,,5c92870723bd7e001870138e,1009,2020-09-12_06h49.43.748,proactive3.2,2020.1.2,Linux x86_64,60,1,,,,,,,,,,,,,,,,,,,,,,,,0,0,0,2,1,stimuli/learn-block3.csv,,,,,,,,,,,,,,,,,,,,,,,,,,,,,,,,,,,,,,,,,,,,,,,,,,,,,,,,,,,,,,,,
,,,,,,,,,,stimuli/images/PICTURE_405.png,YEAR,5c92870723bd7e001870138e,1009,2020-09-12_06h49.43.748,proactive3.2,2020.1.2,Linux x86_64,60,1,,,,,,anchor,,,,,,0,0,0,34,1,4,1,,,,,,,,,,,,,,,,,,,,,,,,,,,,,,,,,,,,,,,,,,,,,,,,,,,,,,,,,,,,,,,,,,,,,,,,,,,
,,,,,,,,,,stimuli/images/PICTURE_487.png,GIRL,5c92870723bd7e001870138e,1009,2020-09-12_06h49.43.748,proactive3.2,2020.1.2,Linux x86_64,60,1,,,,,,basket,,,,,,0,1,1,45,1,5,1,,,,,,,,,,,,,,,,,,,,,,,,,,,,,,,,,,,,,,,,,,,,,,,,,,,,,,,,,,,,,,,,,,,,,,,,,,,
,,,,,,,,,,stimuli/images/PICTURE_380.png,CANDY,5c92870723bd7e001870138e,1009,2020-09-12_06h49.43.748,proactive3.2,2020.1.2,Linux x86_64,60,1,,,,,,gorilla,,,,,,0,2,2,0,1,1,1,,,,,,,,,,,,,,,,,,,,,,,,,,,,,,,,,,,,,,,,,,,,,,,,,,,,,,,,,,,,,,,,,,,,,,,,,,,
,,,,,,,,,,stimuli/images/PICTURE_380.png,HONEY,5c92870723bd7e001870138e,1009,2020-09-12_06h49.43.748,proactive3.2,2020.1.2,Linux x86_64,60,1,,,,,,gorilla,,,,,,0,3,3,19,1,2,1,,,,,,,,,,,,,,,,,,,,,,,,,,,,,,,,,,,,,,,,,,,,,,,,,,,,,,,,,,,,,,,,,,,,,,,,,,,
,,,,,,,,,,stimuli/images/PICTURE_467.png,POLICY,5c92870723bd7e001870138e,1009,2020-09-12_06h49.43.748,proactive3.2,2020.1.2,Linux x86_64,60,1,,,,,,peg,,,,,,0,4,4,53,1,6,1,,,,,,,,,,,,,,,,,,,,,,,,,,,,,,,,,,,,,,,,,,,,,,,,,,,,,,,,,,,,,,,,,,,,,,,,,,,
,,,,,,,,,,stimuli/images/PICTURE_68.png,ROOF,5c92870723bd7e001870138e,1009,2020-09-12_06h49.43.748,proactive3.2,2020.1.2,Linux x86_64,60,1,,,,,,candle,,,,,,0,5,5,38,1,4,1,,,,,,,,,,,,,,,,,,,,,,,,,,,,,,,,,,,,,,,,,,,,,,,,,,,,,,,,,,,,,,,,,,,,,,,,,,,
,,,,,,,,,,stimuli/images/PICTURE_308.png,FAMILY,5c92870723bd7e001870138e,1009,2020-09-12_06h49.43.748,proactive3.2,2020.1.2,Linux x86_64,60,1,,,,,,dice,,,,,,0,6,6,36,1,4,1,,,,,,,,,,,,,,,,,,,,,,,,,,,,,,,,,,,,,,,,,,,,,,,,,,,,,,,,,,,,,,,,,,,,,,,,,,,
,,,,,,,,,,stimuli/images/PICTURE_685.png,PENNY,5c92870723bd7e001870138e,1009,2020-09-12_06h49.43.748,proactive3.2,2020.1.2,Linux x86_64,60,1,,,,,,goose,,,,,,0,7,7,4,1,1,1,,,,,,,,,,,,,,,,,,,,,,,,,,,,,,,,,,,,,,,,,,,,,,,,,,,,,,,,,,,,,,,,,,,,,,,,,,,
,,,,,,,,,,stimuli/images/PICTURE_327.png,SERIES,5c92870723bd7e001870138e,1009,2020-09-12_06h49.43.748,proactive3.2,2020.1.2,Linux x86_64,60,1,,,,,,helmet,,,,,,0,8,8,3,1,1,1,,,,,,,,,,,,,,,,,,,,,,,,,,,,,,,,,,,,,,,,,,,,,,,,,,,,,,,,,,,,,,,,,,,,,,,,,,,
,,,,,,,,,,stimuli/images/PICTURE_491.png,GLASS,5c92870723bd7e001870138e,1009,2020-09-12_06h49.43.748,proactive3.2,2020.1.2,Linux x86_64,60,1,,,,,,rug,,,,,,0,9,9,14,1,2,1,,,,,,,,,,,,,,,,,,,,,,,,,,,,,,,,,,,,,,,,,,,,,,,,,,,,,,,,,,,,,,,,,,,,,,,,,,,
,,,,,,,,,,stimuli/images/PICTURE_469.png,AGENT,5c92870723bd7e001870138e,1009,2020-09-12_06h49.43.748,proactive3.2,2020.1.2,Linux x86_64,60,1,,,,,,stool,,,,,,0,10,10,16,1,2,1,,,,,,,,,,,,,,,,,,,,,,,,,,,,,,,,,,,,,,,,,,,,,,,,,,,,,,,,,,,,,,,,,,,,,,,,,,,
,,,,,,,,,,stimuli/images/PICTURE_667.png,RIVER,5c92870723bd7e001870138e,1009,2020-09-12_06h49.43.748,proactive3.2,2020.1.2,Linux x86_64,60,1,,,,,,daisy,,,,,,0,11,11,10,1,2,1,,,,,,,,,,,,,,,,,,,,,,,,,,,,,,,,,,,,,,,,,,,,,,,,,,,,,,,,,,,,,,,,,,,,,,,,,,,
,,,,,,,,,,stimuli/images/PICTURE_449.png,DUDE,5c92870723bd7e001870138e,1009,2020-09-12_06h49.43.748,proactive3.2,2020.1.2,Linux x86_64,60,1,,,,,,bench,,,,,,0,12,12,17,1,2,1,,,,,,,,,,,,,,,,,,,,,,,,,,,,,,,,,,,,,,,,,,,,,,,,,,,,,,,,,,,,,,,,,,,,,,,,,,,
,,,,,,,,,,stimuli/images/PICTURE_95.png,BOYS,5c92870723bd7e001870138e,1009,2020-09-12_06h49.43.748,proactive3.2,2020.1.2,Linux x86_64,60,1,,,,,,suitcase,,,,,,0,13,13,1,1,1,1,,,,,,,,,,,,,,,,,,,,,,,,,,,,,,,,,,,,,,,,,,,,,,,,,,,,,,,,,,,,,,,,,,,,,,,,,,,
,,,,,,,,,,stimuli/images/PICTURE_147.png,WOMEN,5c92870723bd7e001870138e,1009,2020-09-12_06h49.43.748,proactive3.2,2020.1.2,Linux x86_64,60,1,,,,,,hanger,,,,,,0,14,14,7,1,1,1,,,,,,,,,,,,,,,,,,,,,,,,,,,,,,,,,,,,,,,,,,,,,,,,,,,,,,,,,,,,,,,,,,,,,,,,,,,
,,,,,,,,,,stimuli/images/PICTURE_564.png,BATH,5c92870723bd7e001870138e,1009,2020-09-12_06h49.43.748,proactive3.2,2020.1.2,Linux x86_64,60,1,,,,,,spoon,,,,,,0,15,15,26,1,3,1,,,,,,,,,,,,,,,,,,,,,,,,,,,,,,,,,,,,,,,,,,,,,,,,,,,,,,,,,,,,,,,,,,,,,,,,,,,
,,,,,,,,,,stimuli/images/PICTURE_677.png,APPLE,5c92870723bd7e001870138e,1009,2020-09-12_06h49.43.748,proactive3.2,2020.1.2,Linux x86_64,60,1,,,,,,map,,,,,,0,16,16,43,1,5,1,,,,,,,,,,,,,,,,,,,,,,,,,,,,,,,,,,,,,,,,,,,,,,,,,,,,,,,,,,,,,,,,,,,,,,,,,,,
,,,,,,,,,,stimuli/images/PICTURE_383.png,WRITER,5c92870723bd7e001870138e,1009,2020-09-12_06h49.43.748,proactive3.2,2020.1.2,Linux x86_64,60,1,,,,,,coin,,,,,,0,17,17,28,1,3,1,,,,,,,,,,,,,,,,,,,,,,,,,,,,,,,,,,,,,,,,,,,,,,,,,,,,,,,,,,,,,,,,,,,,,,,,,,,
,,,,,,,,,,stimuli/images/PICTURE_403.png,RIVER,5c92870723bd7e001870138e,1009,2020-09-12_06h49.43.748,proactive3.2,2020.1.2,Linux x86_64,60,1,,,,,,cathedral,,,,,,0,18,18,40,1,5,1,,,,,,,,,,,,,,,,,,,,,,,,,,,,,,,,,,,,,,,,,,,,,,,,,,,,,,,,,,,,,,,,,,,,,,,,,,,
,,,,,,,,,,stimuli/images/PICTURE_340.png,LETTER,5c92870723bd7e001870138e,1009,2020-09-12_06h49.43.748,proactive3.2,2020.1.2,Linux x86_64,60,1,,,,,,mirror,,,,,,0,19,19,24,1,3,1,,,,,,,,,,,,,,,,,,,,,,,,,,,,,,,,,,,,,,,,,,,,,,,,,,,,,,,,,,,,,,,,,,,,,,,,,,,
,,,,,,,,,,stimuli/images/PICTURE_504.png,YEAR,5c92870723bd7e001870138e,1009,2020-09-12_06h49.43.748,proactive3.2,2020.1.2,Linux x86_64,60,1,,,,,,wheel,,,,,,0,20,20,13,1,2,1,,,,,,,,,,,,,,,,,,,,,,,,,,,,,,,,,,,,,,,,,,,,,,,,,,,,,,,,,,,,,,,,,,,,,,,,,,,
,,,,,,,,,,stimuli/images/PICTURE_108.png,POLICY,5c92870723bd7e001870138e,1009,2020-09-12_06h49.43.748,proactive3.2,2020.1.2,Linux x86_64,60,1,,,,,,calendar,,,,,,0,21,21,22,1,3,1,,,,,,,,,,,,,,,,,,,,,,,,,,,,,,,,,,,,,,,,,,,,,,,,,,,,,,,,,,,,,,,,,,,,,,,,,,,
,,,,,,,,,,stimuli/images/PICTURE_108.png,FLIGHT,5c92870723bd7e001870138e,1009,2020-09-12_06h49.43.748,proactive3.2,2020.1.2,Linux x86_64,60,1,,,,,,calendar,,,,,,0,22,22,59,1,6,1,,,,,,,,,,,,,,,,,,,,,,,,,,,,,,,,,,,,,,,,,,,,,,,,,,,,,,,,,,,,,,,,,,,,,,,,,,,
,,,,,,,,,,stimuli/images/PICTURE_285.png,LIFE,5c92870723bd7e001870138e,1009,2020-09-12_06h49.43.748,proactive3.2,2020.1.2,Linux x86_64,60,1,,,,,,carrot,,,,,,0,23,23,33,1,4,1,,,,,,,,,,,,,,,,,,,,,,,,,,,,,,,,,,,,,,,,,,,,,,,,,,,,,,,,,,,,,,,,,,,,,,,,,,,
,,,,,,,,,,stimuli/images/PICTURE_147.png,YEAR,5c92870723bd7e001870138e,1009,2020-09-12_06h49.43.748,proactive3.2,2020.1.2,Linux x86_64,60,1,,,,,,hanger,,,,,,0,24,24,21,1,3,1,,,,,,,,,,,,,,,,,,,,,,,,,,,,,,,,,,,,,,,,,,,,,,,,,,,,,,,,,,,,,,,,,,,,,,,,,,,
,,,,,,,,,,stimuli/images/PICTURE_383.png,SERIES,5c92870723bd7e001870138e,1009,2020-09-12_06h49.43.748,proactive3.2,2020.1.2,Linux x86_64,60,1,,,,,,coin,,,,,,0,25,25,46,1,5,1,,,,,,,,,,,,,,,,,,,,,,,,,,,,,,,,,,,,,,,,,,,,,,,,,,,,,,,,,,,,,,,,,,,,,,,,,,,
,,,,,,,,,,stimuli/images/PICTURE_57.png,MOMENT,5c92870723bd7e001870138e,1009,2020-09-12_06h49.43.748,proactive3.2,2020.1.2,Linux x86_64,60,1,,,,,,stamp,,,,,,0,26,26,37,1,4,1,,,,,,,,,,,,,,,,,,,,,,,,,,,,,,,,,,,,,,,,,,,,,,,,,,,,,,,,,,,,,,,,,,,,,,,,,,,
,,,,,,,,,,stimuli/images/PICTURE_296.png,LIFE,5c92870723bd7e001870138e,1009,2020-09-12_06h49.43.748,proactive3.2,2020.1.2,Linux x86_64,60,1,,,,,,bolt,,,,,,0,27,27,57,1,6,1,,,,,,,,,,,,,,,,,,,,,,,,,,,,,,,,,,,,,,,,,,,,,,,,,,,,,,,,,,,,,,,,,,,,,,,,,,,
,,,,,,,,,,stimuli/images/PICTURE_85.png,TOILET,5c92870723bd7e001870138e,1009,2020-09-12_06h49.43.748,proactive3.2,2020.1.2,Linux x86_64,60,1,,,,,,diamond,,,,,,0,28,28,48,1,5,1,,,,,,,,,,,,,,,,,,,,,,,,,,,,,,,,,,,,,,,,,,,,,,,,,,,,,,,,,,,,,,,,,,,,,,,,,,,
,,,,,,,,,,stimuli/images/PICTURE_233.png,LOTS,5c92870723bd7e001870138e,1009,2020-09-12_06h49.43.748,proactive3.2,2020.1.2,Linux x86_64,60,1,,,,,,salt,,,,,,0,29,29,42,1,5,1,,,,,,,,,,,,,,,,,,,,,,,,,,,,,,,,,,,,,,,,,,,,,,,,,,,,,,,,,,,,,,,,,,,,,,,,,,,
,,,,,,,,,,stimuli/images/PICTURE_403.png,TOILET,5c92870723bd7e001870138e,1009,2020-09-12_06h49.43.748,proactive3.2,2020.1.2,Linux x86_64,60,1,,,,,,cathedral,,,,,,0,30,30,25,1,3,1,,,,,,,,,,,,,,,,,,,,,,,,,,,,,,,,,,,,,,,,,,,,,,,,,,,,,,,,,,,,,,,,,,,,,,,,,,,
,,,,,,,,,,stimuli/images/PICTURE_42.png,BOYS,5c92870723bd7e001870138e,1009,2020-09-12_06h49.43.748,proactive3.2,2020.1.2,Linux x86_64,60,1,,,,,,pear,,,,,,0,31,31,55,1,6,1,,,,,,,,,,,,,,,,,,,,,,,,,,,,,,,,,,,,,,,,,,,,,,,,,,,,,,,,,,,,,,,,,,,,,,,,,,,
,,,,,,,,,,stimuli/images/PICTURE_177.png,WRITER,5c92870723bd7e001870138e,1009,2020-09-12_06h49.43.748,proactive3.2,2020.1.2,Linux x86_64,60,1,,,,,,mushroom,,,,,,0,32,32,41,1,5,1,,,,,,,,,,,,,,,,,,,,,,,,,,,,,,,,,,,,,,,,,,,,,,,,,,,,,,,,,,,,,,,,,,,,,,,,,,,
,,,,,,,,,,stimuli/images/PICTURE_708.png,RECORD,5c92870723bd7e001870138e,1009,2020-09-12_06h49.43.748,proactive3.2,2020.1.2,Linux x86_64,60,1,,,,,,monkey,,,,,,0,33,33,58,1,6,1,,,,,,,,,,,,,,,,,,,,,,,,,,,,,,,,,,,,,,,,,,,,,,,,,,,,,,,,,,,,,,,,,,,,,,,,,,,
,,,,,,,,,,stimuli/images/PICTURE_2.png,FLIGHT,5c92870723bd7e001870138e,1009,2020-09-12_06h49.43.748,proactive3.2,2020.1.2,Linux x86_64,60,1,,,,,,tyre,,,,,,0,34,34,15,1,2,1,,,,,,,,,,,,,,,,,,,,,,,,,,,,,,,,,,,,,,,,,,,,,,,,,,,,,,,,,,,,,,,,,,,,,,,,,,,
,,,,,,,,,,stimuli/images/PICTURE_32.png,KIND,5c92870723bd7e001870138e,1009,2020-09-12_06h49.43.748,proactive3.2,2020.1.2,Linux x86_64,60,1,,,,,,crown,,,,,,0,35,35,35,1,4,1,,,,,,,,,,,,,,,,,,,,,,,,,,,,,,,,,,,,,,,,,,,,,,,,,,,,,,,,,,,,,,,,,,,,,,,,,,,
,,,,,,,,,,stimuli/images/PICTURE_208.png,SYSTEM,5c92870723bd7e001870138e,1009,2020-09-12_06h49.43.748,proactive3.2,2020.1.2,Linux x86_64,60,1,,,,,,microphone,,,,,,0,36,36,32,1,4,1,,,,,,,,,,,,,,,,,,,,,,,,,,,,,,,,,,,,,,,,,,,,,,,,,,,,,,,,,,,,,,,,,,,,,,,,,,,
,,,,,,,,,,stimuli/images/PICTURE_675.png,SALE,5c92870723bd7e001870138e,1009,2020-09-12_06h49.43.748,proactive3.2,2020.1.2,Linux x86_64,60,1,,,,,,windmill,,,,,,0,37,37,47,1,5,1,,,,,,,,,,,,,,,,,,,,,,,,,,,,,,,,,,,,,,,,,,,,,,,,,,,,,,,,,,,,,,,,,,,,,,,,,,,
,,,,,,,,,,stimuli/images/PICTURE_68.png,MILE,5c92870723bd7e001870138e,1009,2020-09-12_06h49.43.748,proactive3.2,2020.1.2,Linux x86_64,60,1,,,,,,candle,,,,,,0,38,38,51,1,6,1,,,,,,,,,,,,,,,,,,,,,,,,,,,,,,,,,,,,,,,,,,,,,,,,,,,,,,,,,,,,,,,,,,,,,,,,,,,
,,,,,,,,,,stimuli/images/PICTURE_297.png,RIVER,5c92870723bd7e001870138e,1009,2020-09-12_06h49.43.748,proactive3.2,2020.1.2,Linux x86_64,60,1,,,,,,aeroplane,,,,,,0,39,39,39,1,4,1,,,,,,,,,,,,,,,,,,,,,,,,,,,,,,,,,,,,,,,,,,,,,,,,,,,,,,,,,,,,,,,,,,,,,,,,,,,
,,,,,,,,,,stimuli/images/PICTURE_203.png,NIGHT,5c92870723bd7e001870138e,1009,2020-09-12_06h49.43.748,proactive3.2,2020.1.2,Linux x86_64,60,1,,,,,,cap,,,,,,0,40,40,2,1,1,1,,,,,,,,,,,,,,,,,,,,,,,,,,,,,,,,,,,,,,,,,,,,,,,,,,,,,,,,,,,,,,,,,,,,,,,,,,,
,,,,,,,,,,stimuli/images/PICTURE_296.png,LOTS,5c92870723bd7e001870138e,1009,2020-09-12_06h49.43.748,proactive3.2,2020.1.2,Linux x86_64,60,1,,,,,,bolt,,,,,,0,41,41,9,1,1,1,,,,,,,,,,,,,,,,,,,,,,,,,,,,,,,,,,,,,,,,,,,,,,,,,,,,,,,,,,,,,,,,,,,,,,,,,,,
,,,,,,,,,,stimuli/images/PICTURE_327.png,CASINO,5c92870723bd7e001870138e,1009,2020-09-12_06h49.43.748,proactive3.2,2020.1.2,Linux x86_64,60,1,,,,,,helmet,,,,,,0,42,42,20,1,3,1,,,,,,,,,,,,,,,,,,,,,,,,,,,,,,,,,,,,,,,,,,,,,,,,,,,,,,,,,,,,,,,,,,,,,,,,,,,
,,,,,,,,,,stimuli/images/PICTURE_744.png,WEAPON,5c92870723bd7e001870138e,1009,2020-09-12_06h49.43.748,proactive3.2,2020.1.2,Linux x86_64,60,1,,,,,,ring,,,,,,0,43,43,50,1,6,1,,,,,,,,,,,,,,,,,,,,,,,,,,,,,,,,,,,,,,,,,,,,,,,,,,,,,,,,,,,,,,,,,,,,,,,,,,,
,,,,,,,,,,stimuli/images/PICTURE_504.png,COPS,5c92870723bd7e001870138e,1009,2020-09-12_06h49.43.748,proactive3.2,2020.1.2,Linux x86_64,60,1,,,,,,wheel,,,,,,0,44,44,52,1,6,1,,,,,,,,,,,,,,,,,,,,,,,,,,,,,,,,,,,,,,,,,,,,,,,,,,,,,,,,,,,,,,,,,,,,,,,,,,,
,,,,,,,,,,stimuli/images/PICTURE_655.png,TOILET,5c92870723bd7e001870138e,1009,2020-09-12_06h49.43.748,proactive3.2,2020.1.2,Linux x86_64,60,1,,,,,,megaphone,,,,,,0,45,45,12,1,2,1,,,,,,,,,,,,,,,,,,,,,,,,,,,,,,,,,,,,,,,,,,,,,,,,,,,,,,,,,,,,,,,,,,,,,,,,,,,
,,,,,,,,,,stimuli/images/PICTURE_95.png,HONEY,5c92870723bd7e001870138e,1009,2020-09-12_06h49.43.748,proactive3.2,2020.1.2,Linux x86_64,60,1,,,,,,suitcase,,,,,,0,46,46,44,1,5,1,,,,,,,,,,,,,,,,,,,,,,,,,,,,,,,,,,,,,,,,,,,,,,,,,,,,,,,,,,,,,,,,,,,,,,,,,,,
,,,,,,,,,,stimuli/images/PICTURE_654.png,MONTH,5c92870723bd7e001870138e,1009,2020-09-12_06h49.43.748,proactive3.2,2020.1.2,Linux x86_64,60,1,,,,,,pencil,,,,,,0,47,47,29,1,3,1,,,,,,,,,,,,,,,,,,,,,,,,,,,,,,,,,,,,,,,,,,,,,,,,,,,,,,,,,,,,,,,,,,,,,,,,,,,
,,,,,,,,,,stimuli/images/PICTURE_750.png,HOTEL,5c92870723bd7e001870138e,1009,2020-09-12_06h49.43.748,proactive3.2,2020.1.2,Linux x86_64,60,1,,,,,,kettle,,,,,,0,48,48,27,1,3,1,,,,,,,,,,,,,,,,,,,,,,,,,,,,,,,,,,,,,,,,,,,,,,,,,,,,,,,,,,,,,,,,,,,,,,,,,,,
,,,,,,,,,,stimuli/images/PICTURE_85.png,NATION,5c92870723bd7e001870138e,1009,2020-09-12_06h49.43.748,proactive3.2,2020.1.2,Linux x86_64,60,1,,,,,,diamond,,,,,,0,49,49,5,1,1,1,,,,,,,,,,,,,,,,,,,,,,,,,,,,,,,,,,,,,,,,,,,,,,,,,,,,,,,,,,,,,,,,,,,,,,,,,,,
,,,,,,,,,,stimuli/images/PICTURE_32.png,PILLS,5c92870723bd7e001870138e,1009,2020-09-12_06h49.43.748,proactive3.2,2020.1.2,Linux x86_64,60,1,,,,,,crown,,,,,,0,50,50,18,1,2,1,,,,,,,,,,,,,,,,,,,,,,,,,,,,,,,,,,,,,,,,,,,,,,,,,,,,,,,,,,,,,,,,,,,,,,,,,,,
,,,,,,,,,,stimuli/images/PICTURE_203.png,GODS,5c92870723bd7e001870138e,1009,2020-09-12_06h49.43.748,proactive3.2,2020.1.2,Linux x86_64,60,1,,,,,,cap,,,,,,0,51,51,30,1,4,1,,,,,,,,,,,,,,,,,,,,,,,,,,,,,,,,,,,,,,,,,,,,,,,,,,,,,,,,,,,,,,,,,,,,,,,,,,,
,,,,,,,,,,stimuli/images/PICTURE_33.png,FRIEND,5c92870723bd7e001870138e,1009,2020-09-12_06h49.43.748,proactive3.2,2020.1.2,Linux x86_64,60,1,,,,,,frame,,,,,,0,52,52,8,1,1,1,,,,,,,,,,,,,,,,,,,,,,,,,,,,,,,,,,,,,,,,,,,,,,,,,,,,,,,,,,,,,,,,,,,,,,,,,,,
,,,,,,,,,,stimuli/images/PICTURE_339.png,CLIENT,5c92870723bd7e001870138e,1009,2020-09-12_06h49.43.748,proactive3.2,2020.1.2,Linux x86_64,60,1,,,,,,backpack,,,,,,0,53,53,11,1,2,1,,,,,,,,,,,,,,,,,,,,,,,,,,,,,,,,,,,,,,,,,,,,,,,,,,,,,,,,,,,,,,,,,,,,,,,,,,,
,,,,,,,,,,stimuli/images/PICTURE_403.png,WRITER,5c92870723bd7e001870138e,1009,2020-09-12_06h49.43.748,proactive3.2,2020.1.2,Linux x86_64,60,1,,,,,,cathedral,,,,,,0,54,54,31,1,4,1,,,,,,,,,,,,,,,,,,,,,,,,,,,,,,,,,,,,,,,,,,,,,,,,,,,,,,,,,,,,,,,,,,,,,,,,,,,
,,,,,,,,,,stimuli/images/PICTURE_95.png,MILLER,5c92870723bd7e001870138e,1009,2020-09-12_06h49.43.748,proactive3.2,2020.1.2,Linux x86_64,60,1,,,,,,suitcase,,,,,,0,55,55,56,1,6,1,,,,,,,,,,,,,,,,,,,,,,,,,,,,,,,,,,,,,,,,,,,,,,,,,,,,,,,,,,,,,,,,,,,,,,,,,,,
,,,,,,,,,,stimuli/images/PICTURE_491.png,RIVER,5c92870723bd7e001870138e,1009,2020-09-12_06h49.43.748,proactive3.2,2020.1.2,Linux x86_64,60,1,,,,,,rug,,,,,,0,56,56,6,1,1,1,,,,,,,,,,,,,,,,,,,,,,,,,,,,,,,,,,,,,,,,,,,,,,,,,,,,,,,,,,,,,,,,,,,,,,,,,,,
,,,,,,,,,,stimuli/images/PICTURE_340.png,VALLEY,5c92870723bd7e001870138e,1009,2020-09-12_06h49.43.748,proactive3.2,2020.1.2,Linux x86_64,60,1,,,,,,mirror,,,,,,0,57,57,54,1,6,1,,,,,,,,,,,,,,,,,,,,,,,,,,,,,,,,,,,,,,,,,,,,,,,,,,,,,,,,,,,,,,,,,,,,,,,,,,,
,,,,,,,,,,stimuli/images/PICTURE_405.png,PLENTY,5c92870723bd7e001870138e,1009,2020-09-12_06h49.43.748,proactive3.2,2020.1.2,Linux x86_64,60,1,,,,,,anchor,,,,,,0,58,58,23,1,3,1,,,,,,,,,,,,,,,,,,,,,,,,,,,,,,,,,,,,,,,,,,,,,,,,,,,,,,,,,,,,,,,,,,,,,,,,,,,
,,?,0.0021,0,,,,,,stimuli/images/PICTURE_42.png,BOYS,5c92870723bd7e001870138e,1009,2020-09-12_06h49.43.748,proactive3.2,2020.1.2,Linux x86_64,60,1,,,,,,pear,,,,,,,,,,,6,1,0,0,0,55,1,,,,,,,,,,,,,,,,,,,,,,,,,,,,,,,,,,,,,,,,,,,,,,,,,,,,,,,,,,,,,,,,,,,,,,
,,?,0.0019,0,,,,,,stimuli/images/PICTURE_383.png,WRITER,5c92870723bd7e001870138e,1009,2020-09-12_06h49.43.748,proactive3.2,2020.1.2,Linux x86_64,60,1,,,,,,coin,,,,,,,,,,,3,1,0,1,1,28,1,,,,,,,,,,,,,,,,,,,,,,,,,,,,,,,,,,,,,,,,,,,,,,,,,,,,,,,,,,,,,,,,,,,,,,
,,?,0.0015,0,,,,,,stimuli/images/PICTURE_327.png,CASINO,5c92870723bd7e001870138e,1009,2020-09-12_06h49.43.748,proactive3.2,2020.1.2,Linux x86_64,60,1,,,,,,helmet,,,,,,,,,,,3,1,0,2,2,20,1,,,,,,,,,,,,,,,,,,,,,,,,,,,,,,,,,,,,,,,,,,,,,,,,,,,,,,,,,,,,,,,,,,,,,,
,,HH,10.5781,0,,,,,,stimuli/images/PICTURE_685.png,PENNY,5c92870723bd7e001870138e,1009,2020-09-12_06h49.43.748,proactive3.2,2020.1.2,Linux x86_64,60,1,,,,,,goose,,,,,,,,,,,1,1,0,3,3,4,1,,,,,,,,,,,,,,,,,,,,,,,,,,,,,,,,,,,,,,,,,,,,,,,,,,,,,,,,,,,,,,,,,,,,,,
,,?,0.0023,0,,,,,,stimuli/images/PICTURE_383.png,SERIES,5c92870723bd7e001870138e,1009,2020-09-12_06h49.43.748,proactive3.2,2020.1.2,Linux x86_64,60,1,,,,,,coin,,,,,,,,,,,5,1,0,4,4,46,1,,,,,,,,,,,,,,,,,,,,,,,,,,,,,,,,,,,,,,,,,,,,,,,,,,,,,,,,,,,,,,,,,,,,,,
,,GRASS,8.2699,0,,,,,,stimuli/images/PICTURE_380.png,CANDY,5c92870723bd7e001870138e,1009,2020-09-12_06h49.43.748,proactive3.2,2020.1.2,Linux x86_64,60,1,,,,,,gorilla,,,,,,,,,,,1,1,0,5,5,0,1,,,,,,,,,,,,,,,,,,,,,,,,,,,,,,,,,,,,,,,,,,,,,,,,,,,,,,,,,,,,,,,,,,,,,,
,,?,0.0021,0,,,,,,stimuli/images/PICTURE_504.png,COPS,5c92870723bd7e001870138e,1009,2020-09-12_06h49.43.748,proactive3.2,2020.1.2,Linux x86_64,60,1,,,,,,wheel,,,,,,,,,,,6,1,0,6,6,52,1,,,,,,,,,,,,,,,,,,,,,,,,,,,,,,,,,,,,,,,,,,,,,,,,,,,,,,,,,,,,,,,,,,,,,,
,,MAN,8.7397,0,,,,,,stimuli/images/PICTURE_327.png,SERIES,5c92870723bd7e001870138e,1009,2020-09-12_06h49.43.748,proactive3.2,2020.1.2,Linux x86_64,60,1,,,,,,helmet,,,,,,,,,,,1,1,0,7,7,3,1,,,,,,,,,,,,,,,,,,,,,,,,,,,,,,,,,,,,,,,,,,,,,,,,,,,,,,,,,,,,,,,,,,,,,,
,,?,0.0021,0,,,,,,stimuli/images/PICTURE_57.png,MOMENT,5c92870723bd7e001870138e,1009,2020-09-12_06h49.43.748,proactive3.2,2020.1.2,Linux x86_64,60,1,,,,,,stamp,,,,,,,,,,,4,1,0,8,8,37,1,,,,,,,,,,,,,,,,,,,,,,,,,,,,,,,,,,,,,,,,,,,,,,,,,,,,,,,,,,,,,,,,,,,,,,
,,?,0.0017,0,,,,,,stimuli/images/PICTURE_108.png,POLICY,5c92870723bd7e001870138e,1009,2020-09-12_06h49.43.748,proactive3.2,2020.1.2,Linux x86_64,60,1,,,,,,calendar,,,,,,,,,,,3,1,0,9,9,22,1,,,,,,,,,,,,,,,,,,,,,,,,,,,,,,,,,,,,,,,,,,,,,,,,,,,,,,,,,,,,,,,,,,,,,,
,,?,0.0012,0,,,,,,stimuli/images/PICTURE_296.png,LIFE,5c92870723bd7e001870138e,1009,2020-09-12_06h49.43.748,proactive3.2,2020.1.2,Linux x86_64,60,1,,,,,,bolt,,,,,,,,,,,6,1,0,10,10,57,1,,,,,,,,,,,,,,,,,,,,,,,,,,,,,,,,,,,,,,,,,,,,,,,,,,,,,,,,,,,,,,,,,,,,,,
,,?,0.0016,0,,,,,,stimuli/images/PICTURE_68.png,MILE,5c92870723bd7e001870138e,1009,2020-09-12_06h49.43.748,proactive3.2,2020.1.2,Linux x86_64,60,1,,,,,,candle,,,,,,,,,,,6,1,0,11,11,51,1,,,,,,,,,,,,,,,,,,,,,,,,,,,,,,,,,,,,,,,,,,,,,,,,,,,,,,,,,,,,,,,,,,,,,,
,,?,0.0012,0,,,,,,stimuli/images/PICTURE_177.png,WRITER,5c92870723bd7e001870138e,1009,2020-09-12_06h49.43.748,proactive3.2,2020.1.2,Linux x86_64,60,1,,,,,,mushroom,,,,,,,,,,,5,1,0,12,12,41,1,,,,,,,,,,,,,,,,,,,,,,,,,,,,,,,,,,,,,,,,,,,,,,,,,,,,,,,,,,,,,,,,,,,,,,
,,?,0.0012,0,,,,,,stimuli/images/PICTURE_675.png,SALE,5c92870723bd7e001870138e,1009,2020-09-12_06h49.43.748,proactive3.2,2020.1.2,Linux x86_64,60,1,,,,,,windmill,,,,,,,,,,,5,1,0,13,13,47,1,,,,,,,,,,,,,,,,,,,,,,,,,,,,,,,,,,,,,,,,,,,,,,,,,,,,,,,,,,,,,,,,,,,,,,
,,FRIEND,6.023,1,,,,,,stimuli/images/PICTURE_33.png,FRIEND,5c92870723bd7e001870138e,1009,2020-09-12_06h49.43.748,proactive3.2,2020.1.2,Linux x86_64,60,1,,,,,,frame,,,,,,,,,,,1,1,0,14,14,8,1,,,,,,,,,,,,,,,,,,,,,,,,,,,,,,,,,,,,,,,,,,,,,,,,,,,,,,,,,,,,,,,,,,,,,,
,,?,0.0021,0,,,,,,stimuli/images/PICTURE_297.png,RIVER,5c92870723bd7e001870138e,1009,2020-09-12_06h49.43.748,proactive3.2,2020.1.2,Linux x86_64,60,1,,,,,,aeroplane,,,,,,,,,,,4,1,0,15,15,39,1,,,,,,,,,,,,,,,,,,,,,,,,,,,,,,,,,,,,,,,,,,,,,,,,,,,,,,,,,,,,,,,,,,,,,,
,,FAFT,9.2762,0,,,,,,stimuli/images/PICTURE_491.png,RIVER,5c92870723bd7e001870138e,1009,2020-09-12_06h49.43.748,proactive3.2,2020.1.2,Linux x86_64,60,1,,,,,,rug,,,,,,,,,,,1,1,0,16,16,6,1,,,,,,,,,,,,,,,,,,,,,,,,,,,,,,,,,,,,,,,,,,,,,,,,,,,,,,,,,,,,,,,,,,,,,,
,,WOMAN,6.3823,0,,,,,,stimuli/images/PICTURE_147.png,WOMEN,5c92870723bd7e001870138e,1009,2020-09-12_06h49.43.748,proactive3.2,2020.1.2,Linux x86_64,60,1,,,,,,hanger,,,,,,,,,,,1,1,0,17,17,7,1,,,,,,,,,,,,,,,,,,,,,,,,,,,,,,,,,,,,,,,,,,,,,,,,,,,,,,,,,,,,,,,,,,,,,,
,,?,0.0021,0,,,,,,stimuli/images/PICTURE_85.png,TOILET,5c92870723bd7e001870138e,1009,2020-09-12_06h49.43.748,proactive3.2,2020.1.2,Linux x86_64,60,1,,,,,,diamond,,,,,,,,,,,5,1,0,18,18,48,1,,,,,,,,,,,,,,,,,,,,,,,,,,,,,,,,,,,,,,,,,,,,,,,,,,,,,,,,,,,,,,,,,,,,,,
,,?,0.0019,0,,,,,,stimuli/images/PICTURE_147.png,YEAR,5c92870723bd7e001870138e,1009,2020-09-12_06h49.43.748,proactive3.2,2020.1.2,Linux x86_64,60,1,,,,,,hanger,,,,,,,,,,,3,1,0,19,19,21,1,,,,,,,,,,,,,,,,,,,,,,,,,,,,,,,,,,,,,,,,,,,,,,,,,,,,,,,,,,,,,,,,,,,,,,
,,?,0.0014,0,,,,,,stimuli/images/PICTURE_504.png,YEAR,5c92870723bd7e001870138e,1009,2020-09-12_06h49.43.748,proactive3.2,2020.1.2,Linux x86_64,60,1,,,,,,wheel,,,,,,,,,,,2,1,0,20,20,13,1,,,,,,,,,,,,,,,,,,,,,,,,,,,,,,,,,,,,,,,,,,,,,,,,,,,,,,,,,,,,,,,,,,,,,,
,,?,0.0017,0,,,,,,stimuli/images/PICTURE_95.png,HONEY,5c92870723bd7e001870138e,1009,2020-09-12_06h49.43.748,proactive3.2,2020.1.2,Linux x86_64,60,1,,,,,,suitcase,,,,,,,,,,,5,1,0,21,21,44,1,,,,,,,,,,,,,,,,,,,,,,,,,,,,,,,,,,,,,,,,,,,,,,,,,,,,,,,,,,,,,,,,,,,,,,
,,?,0.0014,0,,,,,,stimuli/images/PICTURE_208.png,SYSTEM,5c92870723bd7e001870138e,1009,2020-09-12_06h49.43.748,proactive3.2,2020.1.2,Linux x86_64,60,1,,,,,,microphone,,,,,,,,,,,4,1,0,22,22,32,1,,,,,,,,,,,,,,,,,,,,,,,,,,,,,,,,,,,,,,,,,,,,,,,,,,,,,,,,,,,,,,,,,,,,,,
,,?,0.0015,0,,,,,,stimuli/images/PICTURE_564.png,BATH,5c92870723bd7e001870138e,1009,2020-09-12_06h49.43.748,proactive3.2,2020.1.2,Linux x86_64,60,1,,,,,,spoon,,,,,,,,,,,3,1,0,23,23,26,1,,,,,,,,,,,,,,,,,,,,,,,,,,,,,,,,,,,,,,,,,,,,,,,,,,,,,,,,,,,,,,,,,,,,,,
,,?,0.0014,0,,,,,,stimuli/images/PICTURE_469.png,AGENT,5c92870723bd7e001870138e,1009,2020-09-12_06h49.43.748,proactive3.2,2020.1.2,Linux x86_64,60,1,,,,,,stool,,,,,,,,,,,2,1,0,24,24,16,1,,,,,,,,,,,,,,,,,,,,,,,,,,,,,,,,,,,,,,,,,,,,,,,,,,,,,,,,,,,,,,,,,,,,,,
,,?,0.0017,0,,,,,,stimuli/images/PICTURE_403.png,WRITER,5c92870723bd7e001870138e,1009,2020-09-12_06h49.43.748,proactive3.2,2020.1.2,Linux x86_64,60,1,,,,,,cathedral,,,,,,,,,,,4,1,0,25,25,31,1,,,,,,,,,,,,,,,,,,,,,,,,,,,,,,,,,,,,,,,,,,,,,,,,,,,,,,,,,,,,,,,,,,,,,,
,,?,0.0014,0,,,,,,stimuli/images/PICTURE_677.png,APPLE,5c92870723bd7e001870138e,1009,2020-09-12_06h49.43.748,proactive3.2,2020.1.2,Linux x86_64,60,1,,,,,,map,,,,,,,,,,,5,1,0,26,26,43,1,,,,,,,,,,,,,,,,,,,,,,,,,,,,,,,,,,,,,,,,,,,,,,,,,,,,,,,,,,,,,,,,,,,,,,
,,?,0.0014,0,,,,,,stimuli/images/PICTURE_403.png,TOILET,5c92870723bd7e001870138e,1009,2020-09-12_06h49.43.748,proactive3.2,2020.1.2,Linux x86_64,60,1,,,,,,cathedral,,,,,,,,,,,3,1,0,27,27,25,1,,,,,,,,,,,,,,,,,,,,,,,,,,,,,,,,,,,,,,,,,,,,,,,,,,,,,,,,,,,,,,,,,,,,,,
,,?,0.0015,0,,,,,,stimuli/images/PICTURE_68.png,ROOF,5c92870723bd7e001870138e,1009,2020-09-12_06h49.43.748,proactive3.2,2020.1.2,Linux x86_64,60,1,,,,,,candle,,,,,,,,,,,4,1,0,28,28,38,1,,,,,,,,,,,,,,,,,,,,,,,,,,,,,,,,,,,,,,,,,,,,,,,,,,,,,,,,,,,,,,,,,,,,,,
,,?,0.0013,0,,,,,,stimuli/images/PICTURE_380.png,HONEY,5c92870723bd7e001870138e,1009,2020-09-12_06h49.43.748,proactive3.2,2020.1.2,Linux x86_64,60,1,,,,,,gorilla,,,,,,,,,,,2,1,0,29,29,19,1,,,,,,,,,,,,,,,,,,,,,,,,,,,,,,,,,,,,,,,,,,,,,,,,,,,,,,,,,,,,,,,,,,,,,,
,,?,0.0016,0,,,,,,stimuli/images/PICTURE_708.png,RECORD,5c92870723bd7e001870138e,1009,2020-09-12_06h49.43.748,proactive3.2,2020.1.2,Linux x86_64,60,1,,,,,,monkey,,,,,,,,,,,6,1,0,30,30,58,1,,,,,,,,,,,,,,,,,,,,,,,,,,,,,,,,,,,,,,,,,,,,,,,,,,,,,,,,,,,,,,,,,,,,,,
,,?,0.0013,0,,,,,,stimuli/images/PICTURE_308.png,FAMILY,5c92870723bd7e001870138e,1009,2020-09-12_06h49.43.748,proactive3.2,2020.1.2,Linux x86_64,60,1,,,,,,dice,,,,,,,,,,,4,1,0,31,31,36,1,,,,,,,,,,,,,,,,,,,,,,,,,,,,,,,,,,,,,,,,,,,,,,,,,,,,,,,,,,,,,,,,,,,,,,
,,CONTAINER,15.0063,0,,,,,,stimuli/images/PICTURE_203.png,NIGHT,5c92870723bd7e001870138e,1009,2020-09-12_06h49.43.748,proactive3.2,2020.1.2,Linux x86_64,60,1,,,,,,cap,,,,,,,,,,,1,1,0,32,32,2,1,,,,,,,,,,,,,,,,,,,,,,,,,,,,,,,,,,,,,,,,,,,,,,,,,,,,,,,,,,,,,,,,,,,,,,
,,?,0.0021,0,,,,,,stimuli/images/PICTURE_667.png,RIVER,5c92870723bd7e001870138e,1009,2020-09-12_06h49.43.748,proactive3.2,2020.1.2,Linux x86_64,60,1,,,,,,daisy,,,,,,,,,,,2,1,0,33,33,10,1,,,,,,,,,,,,,,,,,,,,,,,,,,,,,,,,,,,,,,,,,,,,,,,,,,,,,,,,,,,,,,,,,,,,,,
,,?,0.0017,0,,,,,,stimuli/images/PICTURE_467.png,POLICY,5c92870723bd7e001870138e,1009,2020-09-12_06h49.43.748,proactive3.2,2020.1.2,Linux x86_64,60,1,,,,,,peg,,,,,,,,,,,6,1,0,34,34,53,1,,,,,,,,,,,,,,,,,,,,,,,,,,,,,,,,,,,,,,,,,,,,,,,,,,,,,,,,,,,,,,,,,,,,,,
,,?,0.0016,0,,,,,,stimuli/images/PICTURE_339.png,CLIENT,5c92870723bd7e001870138e,1009,2020-09-12_06h49.43.748,proactive3.2,2020.1.2,Linux x86_64,60,1,,,,,,backpack,,,,,,,,,,,2,1,0,35,35,11,1,,,,,,,,,,,,,,,,,,,,,,,,,,,,,,,,,,,,,,,,,,,,,,,,,,,,,,,,,,,,,,,,,,,,,,
,,?,0.0046,0,,,,,,stimuli/images/PICTURE_233.png,LOTS,5c92870723bd7e001870138e,1009,2020-09-12_06h49.43.748,proactive3.2,2020.1.2,Linux x86_64,60,1,,,,,,salt,,,,,,,,,,,5,1,0,36,36,42,1,,,,,,,,,,,,,,,,,,,,,,,,,,,,,,,,,,,,,,,,,,,,,,,,,,,,,,,,,,,,,,,,,,,,,,
,,?,0.0013,0,,,,,,stimuli/images/PICTURE_340.png,VALLEY,5c92870723bd7e001870138e,1009,2020-09-12_06h49.43.748,proactive3.2,2020.1.2,Linux x86_64,60,1,,,,,,mirror,,,,,,,,,,,6,1,0,37,37,54,1,,,,,,,,,,,,,,,,,,,,,,,,,,,,,,,,,,,,,,,,,,,,,,,,,,,,,,,,,,,,,,,,,,,,,,
,,?,0.0013,0,,,,,,stimuli/images/PICTURE_108.png,FLIGHT,5c92870723bd7e001870138e,1009,2020-09-12_06h49.43.748,proactive3.2,2020.1.2,Linux x86_64,60,1,,,,,,calendar,,,,,,,,,,,6,1,0,38,38,59,1,,,,,,,,,,,,,,,,,,,,,,,,,,,,,,,,,,,,,,,,,,,,,,,,,,,,,,,,,,,,,,,,,,,,,,
,,?,0.0011,0,,,,,,stimuli/images/PICTURE_491.png,GLASS,5c92870723bd7e001870138e,1009,2020-09-12_06h49.43.748,proactive3.2,2020.1.2,Linux x86_64,60,1,,,,,,rug,,,,,,,,,,,2,1,0,39,39,14,1,,,,,,,,,,,,,,,,,,,,,,,,,,,,,,,,,,,,,,,,,,,,,,,,,,,,,,,,,,,,,,,,,,,,,,
,,?,0.0011,0,,,,,,stimuli/images/PICTURE_744.png,WEAPON,5c92870723bd7e001870138e,1009,2020-09-12_06h49.43.748,proactive3.2,2020.1.2,Linux x86_64,60,1,,,,,,ring,,,,,,,,,,,6,1,0,40,40,50,1,,,,,,,,,,,,,,,,,,,,,,,,,,,,,,,,,,,,,,,,,,,,,,,,,,,,,,,,,,,,,,,,,,,,,,
,,?,0.0012,0,,,,,,stimuli/images/PICTURE_403.png,RIVER,5c92870723bd7e001870138e,1009,2020-09-12_06h49.43.748,proactive3.2,2020.1.2,Linux x86_64,60,1,,,,,,cathedral,,,,,,,,,,,5,1,0,41,41,40,1,,,,,,,,,,,,,,,,,,,,,,,,,,,,,,,,,,,,,,,,,,,,,,,,,,,,,,,,,,,,,,,,,,,,,,
,,RICH,8.4401,0,,,,,,stimuli/images/PICTURE_85.png,NATION,5c92870723bd7e001870138e,1009,2020-09-12_06h49.43.748,proactive3.2,2020.1.2,Linux x86_64,60,1,,,,,,diamond,,,,,,,,,,,1,1,0,42,42,5,1,,,,,,,,,,,,,,,,,,,,,,,,,,,,,,,,,,,,,,,,,,,,,,,,,,,,,,,,,,,,,,,,,,,,,,
,,?,0.0019,0,,,,,,stimuli/images/PICTURE_32.png,PILLS,5c92870723bd7e001870138e,1009,2020-09-12_06h49.43.748,proactive3.2,2020.1.2,Linux x86_64,60,1,,,,,,crown,,,,,,,,,,,2,1,0,43,43,18,1,,,,,,,,,,,,,,,,,,,,,,,,,,,,,,,,,,,,,,,,,,,,,,,,,,,,,,,,,,,,,,,,,,,,,,
,,?,0.0016,0,,,,,,stimuli/images/PICTURE_285.png,LIFE,5c92870723bd7e001870138e,1009,2020-09-12_06h49.43.748,proactive3.2,2020.1.2,Linux x86_64,60,1,,,,,,carrot,,,,,,,,,,,4,1,0,44,44,33,1,,,,,,,,,,,,,,,,,,,,,,,,,,,,,,,,,,,,,,,,,,,,,,,,,,,,,,,,,,,,,,,,,,,,,,
,,?,0.0044,0,,,,,,stimuli/images/PICTURE_405.png,YEAR,5c92870723bd7e001870138e,1009,2020-09-12_06h49.43.748,proactive3.2,2020.1.2,Linux x86_64,60,1,,,,,,anchor,,,,,,,,,,,4,1,0,45,45,34,1,,,,,,,,,,,,,,,,,,,,,,,,,,,,,,,,,,,,,,,,,,,,,,,,,,,,,,,,,,,,,,,,,,,,,,
,,LOOSE,6.9031,0,,,,,,stimuli/images/PICTURE_296.png,LOTS,5c92870723bd7e001870138e,1009,2020-09-12_06h49.43.748,proactive3.2,2020.1.2,Linux x86_64,60,1,,,,,,bolt,,,,,,,,,,,1,1,0,46,46,9,1,,,,,,,,,,,,,,,,,,,,,,,,,,,,,,,,,,,,,,,,,,,,,,,,,,,,,,,,,,,,,,,,,,,,,,
,,?,0.0023,0,,,,,,stimuli/images/PICTURE_449.png,DUDE,5c92870723bd7e001870138e,1009,2020-09-12_06h49.43.748,proactive3.2,2020.1.2,Linux x86_64,60,1,,,,,,bench,,,,,,,,,,,2,1,0,47,47,17,1,,,,,,,,,,,,,,,,,,,,,,,,,,,,,,,,,,,,,,,,,,,,,,,,,,,,,,,,,,,,,,,,,,,,,,
,,?,0.0019,0,,,,,,stimuli/images/PICTURE_2.png,FLIGHT,5c92870723bd7e001870138e,1009,2020-09-12_06h49.43.748,proactive3.2,2020.1.2,Linux x86_64,60,1,,,,,,tyre,,,,,,,,,,,2,1,0,48,48,15,1,,,,,,,,,,,,,,,,,,,,,,,,,,,,,,,,,,,,,,,,,,,,,,,,,,,,,,,,,,,,,,,,,,,,,,
,,?,0.0012,0,,,,,,stimuli/images/PICTURE_32.png,KIND,5c92870723bd7e001870138e,1009,2020-09-12_06h49.43.748,proactive3.2,2020.1.2,Linux x86_64,60,1,,,,,,crown,,,,,,,,,,,4,1,0,49,49,35,1,,,,,,,,,,,,,,,,,,,,,,,,,,,,,,,,,,,,,,,,,,,,,,,,,,,,,,,,,,,,,,,,,,,,,,
,,?,0.0021,0,,,,,,stimuli/images/PICTURE_654.png,MONTH,5c92870723bd7e001870138e,1009,2020-09-12_06h49.43.748,proactive3.2,2020.1.2,Linux x86_64,60,1,,,,,,pencil,,,,,,,,,,,3,1,0,50,50,29,1,,,,,,,,,,,,,,,,,,,,,,,,,,,,,,,,,,,,,,,,,,,,,,,,,,,,,,,,,,,,,,,,,,,,,,
,,?,0.0016,0,,,,,,stimuli/images/PICTURE_504.png,ARTIST,5c92870723bd7e001870138e,1009,2020-09-12_06h49.43.748,proactive3.2,2020.1.2,Linux x86_64,60,1,,,,,,wheel,,,,,,,,,,,5,1,0,51,51,49,1,,,,,,,,,,,,,,,,,,,,,,,,,,,,,,,,,,,,,,,,,,,,,,,,,,,,,,,,,,,,,,,,,,,,,,
,,?,0.0014,0,,,,,,stimuli/images/PICTURE_487.png,GIRL,5c92870723bd7e001870138e,1009,2020-09-12_06h49.43.748,proactive3.2,2020.1.2,Linux x86_64,60,1,,,,,,basket,,,,,,,,,,,5,1,0,52,52,45,1,,,,,,,,,,,,,,,,,,,,,,,,,,,,,,,,,,,,,,,,,,,,,,,,,,,,,,,,,,,,,,,,,,,,,,
,,?,0.0013,0,,,,,,stimuli/images/PICTURE_655.png,TOILET,5c92870723bd7e001870138e,1009,2020-09-12_06h49.43.748,proactive3.2,2020.1.2,Linux x86_64,60,1,,,,,,megaphone,,,,,,,,,,,2,1,0,53,53,12,1,,,,,,,,,,,,,,,,,,,,,,,,,,,,,,,,,,,,,,,,,,,,,,,,,,,,,,,,,,,,,,,,,,,,,,
,,BOY,6.8053,0,,,,,,stimuli/images/PICTURE_95.png,BOYS,5c92870723bd7e001870138e,1009,2020-09-12_06h49.43.748,proactive3.2,2020.1.2,Linux x86_64,60,1,,,,,,suitcase,,,,,,,,,,,1,1,0,54,54,1,1,,,,,,,,,,,,,,,,,,,,,,,,,,,,,,,,,,,,,,,,,,,,,,,,,,,,,,,,,,,,,,,,,,,,,,
,,?,0.0023,0,,,,,,stimuli/images/PICTURE_340.png,LETTER,5c92870723bd7e001870138e,1009,2020-09-12_06h49.43.748,proactive3.2,2020.1.2,Linux x86_64,60,1,,,,,,mirror,,,,,,,,,,,3,1,0,55,55,24,1,,,,,,,,,,,,,,,,,,,,,,,,,,,,,,,,,,,,,,,,,,,,,,,,,,,,,,,,,,,,,,,,,,,,,,
,,?,0.0021,0,,,,,,stimuli/images/PICTURE_405.png,PLENTY,5c92870723bd7e001870138e,1009,2020-09-12_06h49.43.748,proactive3.2,2020.1.2,Linux x86_64,60,1,,,,,,anchor,,,,,,,,,,,3,1,0,56,56,23,1,,,,,,,,,,,,,,,,,,,,,,,,,,,,,,,,,,,,,,,,,,,,,,,,,,,,,,,,,,,,,,,,,,,,,,
,,?,0.0018,0,,,,,,stimuli/images/PICTURE_203.png,GODS,5c92870723bd7e001870138e,1009,2020-09-12_06h49.43.748,proactive3.2,2020.1.2,Linux x86_64,60,1,,,,,,cap,,,,,,,,,,,4,1,0,57,57,30,1,,,,,,,,,,,,,,,,,,,,,,,,,,,,,,,,,,,,,,,,,,,,,,,,,,,,,,,,,,,,,,,,,,,,,,
,,?,0.0016,0,,,,,,stimuli/images/PICTURE_95.png,MILLER,5c92870723bd7e001870138e,1009,2020-09-12_06h49.43.748,proactive3.2,2020.1.2,Linux x86_64,60,1,,,,,,suitcase,,,,,,,,,,,6,1,0,58,58,56,1,,,,,,,,,,,,,,,,,,,,,,,,,,,,,,,,,,,,,,,,,,,,,,,,,,,,,,,,,,,,,,,,,,,,,,
,,?,0.0015,0,,,,,,stimuli/images/PICTURE_750.png,HOTEL,5c92870723bd7e001870138e,1009,2020-09-12_06h49.43.748,proactive3.2,2020.1.2,Linux x86_64,60,1,,,,,,kettle,,,,,,,,,,,3,1,0,59,59,27,1,,,,,,,,,,,,,,,,,,,,,,,,,,,,,,,,,,,,,,,,,,,,,,,,,,,,,,,,,,,,,,,,,,,,,,
,,,,,,,,,,,,5c92870723bd7e001870138e,1009,2020-09-12_06h49.43.748,proactive3.2,2020.1.2,Linux x86_64,60,1,,,,,,,,,,,,,,,,,,,,,,,,0,1,1,1,1,stimuli/learn-block2.csv,,,,,,,,,,,,,,,,,,,,,,,,,,,,,,,,,,,,,,,,,,,,,,,,,,,,,,,,,,,,,,,,
,,,,,,,,,,stimuli/images/PICTURE_487.png,FLIGHT,5c92870723bd7e001870138e,1009,2020-09-12_06h49.43.748,proactive3.2,2020.1.2,Linux x86_64,60,1,,,,,,basket,,,,,,0,0,0,9,1,1,0,,,,,,,,,,,,,,,,,,,,,,,,,,,,,,,,,,,,,,,,,,,,,,,,,,,,,,,,,,,,,,,,,,,,,,,,,,,
,,,,,,,,,,stimuli/images/PICTURE_453.png,PLENTY,5c92870723bd7e001870138e,1009,2020-09-12_06h49.43.748,proactive3.2,2020.1.2,Linux x86_64,60,1,,,,,,scissors,,,,,,0,1,1,56,1,6,0,,,,,,,,,,,,,,,,,,,,,,,,,,,,,,,,,,,,,,,,,,,,,,,,,,,,,,,,,,,,,,,,,,,,,,,,,,,
,,,,,,,,,,stimuli/images/PICTURE_667.png,BATH,5c92870723bd7e001870138e,1009,2020-09-12_06h49.43.748,proactive3.2,2020.1.2,Linux x86_64,60,1,,,,,,daisy,,,,,,0,2,2,4,1,1,0,,,,,,,,,,,,,,,,,,,,,,,,,,,,,,,,,,,,,,,,,,,,,,,,,,,,,,,,,,,,,,,,,,,,,,,,,,,
,,,,,,,,,,stimuli/images/PICTURE_151.png,GIRL,5c92870723bd7e001870138e,1009,2020-09-12_06h49.43.748,proactive3.2,2020.1.2,Linux x86_64,60,1,,,,,,tray,,,,,,0,3,3,19,1,2,0,,,,,,,,,,,,,,,,,,,,,,,,,,,,,,,,,,,,,,,,,,,,,,,,,,,,,,,,,,,,,,,,,,,,,,,,,,,
,,,,,,,,,,stimuli/images/PICTURE_95.png,STYLE,5c92870723bd7e001870138e,1009,2020-09-12_06h49.43.748,proactive3.2,2020.1.2,Linux x86_64,60,1,,,,,,suitcase,,,,,,0,4,4,25,1,3,0,,,,,,,,,,,,,,,,,,,,,,,,,,,,,,,,,,,,,,,,,,,,,,,,,,,,,,,,,,,,,,,,,,,,,,,,,,,
,,,,,,,,,,stimuli/images/PICTURE_123.png,ADVICE,5c92870723bd7e001870138e,1009,2020-09-12_06h49.43.748,proactive3.2,2020.1.2,Linux x86_64,60,1,,,,,,dart,,,,,,0,5,5,50,1,6,0,,,,,,,,,,,,,,,,,,,,,,,,,,,,,,,,,,,,,,,,,,,,,,,,,,,,,,,,,,,,,,,,,,,,,,,,,,,
,,,,,,,,,,stimuli/images/PICTURE_692.png,MONTH,5c92870723bd7e001870138e,1009,2020-09-12_06h49.43.748,proactive3.2,2020.1.2,Linux x86_64,60,1,,,,,,cherry,,,,,,0,6,6,16,1,2,0,,,,,,,,,,,,,,,,,,,,,,,,,,,,,,,,,,,,,,,,,,,,,,,,,,,,,,,,,,,,,,,,,,,,,,,,,,,
,,,,,,,,,,stimuli/images/PICTURE_470.png,CASINO,5c92870723bd7e001870138e,1009,2020-09-12_06h49.43.748,proactive3.2,2020.1.2,Linux x86_64,60,1,,,,,,motorbike,,,,,,0,7,7,36,1,4,0,,,,,,,,,,,,,,,,,,,,,,,,,,,,,,,,,,,,,,,,,,,,,,,,,,,,,,,,,,,,,,,,,,,,,,,,,,,
,,,,,,,,,,stimuli/images/PICTURE_233.png,WOMEN,5c92870723bd7e001870138e,1009,2020-09-12_06h49.43.748,proactive3.2,2020.1.2,Linux x86_64,60,1,,,,,,salt,,,,,,0,8,8,38,1,4,0,,,,,,,,,,,,,,,,,,,,,,,,,,,,,,,,,,,,,,,,,,,,,,,,,,,,,,,,,,,,,,,,,,,,,,,,,,,
,,,,,,,,,,stimuli/images/PICTURE_449.png,THING,5c92870723bd7e001870138e,1009,2020-09-12_06h49.43.748,proactive3.2,2020.1.2,Linux x86_64,60,1,,,,,,bench,,,,,,0,9,9,59,1,6,0,,,,,,,,,,,,,,,,,,,,,,,,,,,,,,,,,,,,,,,,,,,,,,,,,,,,,,,,,,,,,,,,,,,,,,,,,,,
,,,,,,,,,,stimuli/images/PICTURE_160.png,LEADER,5c92870723bd7e001870138e,1009,2020-09-12_06h49.43.748,proactive3.2,2020.1.2,Linux x86_64,60,1,,,,,,wheelbarrow,,,,,,0,10,10,3,1,1,0,,,,,,,,,,,,,,,,,,,,,,,,,,,,,,,,,,,,,,,,,,,,,,,,,,,,,,,,,,,,,,,,,,,,,,,,,,,
,,,,,,,,,,stimuli/images/PICTURE_667.png,PLENTY,5c92870723bd7e001870138e,1009,2020-09-12_06h49.43.748,proactive3.2,2020.1.2,Linux x86_64,60,1,,,,,,daisy,,,,,,0,11,11,41,1,5,0,,,,,,,,,,,,,,,,,,,,,,,,,,,,,,,,,,,,,,,,,,,,,,,,,,,,,,,,,,,,,,,,,,,,,,,,,,,
,,,,,,,,,,stimuli/images/PICTURE_215.png,PLENTY,5c92870723bd7e001870138e,1009,2020-09-12_06h49.43.748,proactive3.2,2020.1.2,Linux x86_64,60,1,,,,,,boot,,,,,,0,12,12,37,1,4,0,,,,,,,,,,,,,,,,,,,,,,,,,,,,,,,,,,,,,,,,,,,,,,,,,,,,,,,,,,,,,,,,,,,,,,,,,,,
,,,,,,,,,,stimuli/images/PICTURE_327.png,BEAUTY,5c92870723bd7e001870138e,1009,2020-09-12_06h49.43.748,proactive3.2,2020.1.2,Linux x86_64,60,1,,,,,,helmet,,,,,,0,13,13,48,1,5,0,,,,,,,,,,,,,,,,,,,,,,,,,,,,,,,,,,,,,,,,,,,,,,,,,,,,,,,,,,,,,,,,,,,,,,,,,,,
,,,,,,,,,,stimuli/images/PICTURE_469.png,LETTER,5c92870723bd7e001870138e,1009,2020-09-12_06h49.43.748,proactive3.2,2020.1.2,Linux x86_64,60,1,,,,,,stool,,,,,,0,14,14,42,1,5,0,,,,,,,,,,,,,,,,,,,,,,,,,,,,,,,,,,,,,,,,,,,,,,,,,,,,,,,,,,,,,,,,,,,,,,,,,,,
,,,,,,,,,,stimuli/images/PICTURE_248.png,DOZEN,5c92870723bd7e001870138e,1009,2020-09-12_06h49.43.748,proactive3.2,2020.1.2,Linux x86_64,60,1,,,,,,cart,,,,,,0,15,15,39,1,4,0,,,,,,,,,,,,,,,,,,,,,,,,,,,,,,,,,,,,,,,,,,,,,,,,,,,,,,,,,,,,,,,,,,,,,,,,,,,
,,,,,,,,,,stimuli/images/PICTURE_308.png,KIND,5c92870723bd7e001870138e,1009,2020-09-12_06h49.43.748,proactive3.2,2020.1.2,Linux x86_64,60,1,,,,,,dice,,,,,,0,16,16,54,1,6,0,,,,,,,,,,,,,,,,,,,,,,,,,,,,,,,,,,,,,,,,,,,,,,,,,,,,,,,,,,,,,,,,,,,,,,,,,,,
,,,,,,,,,,stimuli/images/PICTURE_708.png,YARD,5c92870723bd7e001870138e,1009,2020-09-12_06h49.43.748,proactive3.2,2020.1.2,Linux x86_64,60,1,,,,,,monkey,,,,,,0,17,17,29,1,3,0,,,,,,,,,,,,,,,,,,,,,,,,,,,,,,,,,,,,,,,,,,,,,,,,,,,,,,,,,,,,,,,,,,,,,,,,,,,
,,,,,,,,,,stimuli/images/PICTURE_311.png,FRIEND,5c92870723bd7e001870138e,1009,2020-09-12_06h49.43.748,proactive3.2,2020.1.2,Linux x86_64,60,1,,,,,,razor,,,,,,0,18,18,34,1,4,0,,,,,,,,,,,,,,,,,,,,,,,,,,,,,,,,,,,,,,,,,,,,,,,,,,,,,,,,,,,,,,,,,,,,,,,,,,,
,,,,,,,,,,stimuli/images/PICTURE_488.png,STYLE,5c92870723bd7e001870138e,1009,2020-09-12_06h49.43.748,proactive3.2,2020.1.2,Linux x86_64,60,1,,,,,,sun,,,,,,0,19,19,33,1,4,0,,,,,,,,,,,,,,,,,,,,,,,,,,,,,,,,,,,,,,,,,,,,,,,,,,,,,,,,,,,,,,,,,,,,,,,,,,,
,,,,,,,,,,stimuli/images/PICTURE_339.png,PLENTY,5c92870723bd7e001870138e,1009,2020-09-12_06h49.43.748,proactive3.2,2020.1.2,Linux x86_64,60,1,,,,,,backpack,,,,,,0,20,20,0,1,1,0,,,,,,,,,,,,,,,,,,,,,,,,,,,,,,,,,,,,,,,,,,,,,,,,,,,,,,,,,,,,,,,,,,,,,,,,,,,
,,,,,,,,,,stimuli/images/PICTURE_504.png,BODY,5c92870723bd7e001870138e,1009,2020-09-12_06h49.43.748,proactive3.2,2020.1.2,Linux x86_64,60,1,,,,,,wheel,,,,,,0,21,21,8,1,1,0,,,,,,,,,,,,,,,,,,,,,,,,,,,,,,,,,,,,,,,,,,,,,,,,,,,,,,,,,,,,,,,,,,,,,,,,,,,
,,,,,,,,,,stimuli/images/PICTURE_744.png,SAKE,5c92870723bd7e001870138e,1009,2020-09-12_06h49.43.748,proactive3.2,2020.1.2,Linux x86_64,60,1,,,,,,ring,,,,,,0,22,22,17,1,2,0,,,,,,,,,,,,,,,,,,,,,,,,,,,,,,,,,,,,,,,,,,,,,,,,,,,,,,,,,,,,,,,,,,,,,,,,,,,
,,,,,,,,,,stimuli/images/PICTURE_160.png,FEET,5c92870723bd7e001870138e,1009,2020-09-12_06h49.43.748,proactive3.2,2020.1.2,Linux x86_64,60,1,,,,,,wheelbarrow,,,,,,0,23,23,58,1,6,0,,,,,,,,,,,,,,,,,,,,,,,,,,,,,,,,,,,,,,,,,,,,,,,,,,,,,,,,,,,,,,,,,,,,,,,,,,,
,,,,,,,,,,stimuli/images/PICTURE_467.png,DEMON,5c92870723bd7e001870138e,1009,2020-09-12_06h49.43.748,proactive3.2,2020.1.2,Linux x86_64,60,1,,,,,,peg,,,,,,0,24,24,23,1,3,0,,,,,,,,,,,,,,,,,,,,,,,,,,,,,,,,,,,,,,,,,,,,,,,,,,,,,,,,,,,,,,,,,,,,,,,,,,,
,,,,,,,,,,stimuli/images/PICTURE_285.png,ADVICE,5c92870723bd7e001870138e,1009,2020-09-12_06h49.43.748,proactive3.2,2020.1.2,Linux x86_64,60,1,,,,,,carrot,,,,,,0,25,25,12,1,2,0,,,,,,,,,,,,,,,,,,,,,,,,,,,,,,,,,,,,,,,,,,,,,,,,,,,,,,,,,,,,,,,,,,,,,,,,,,,
,,,,,,,,,,stimuli/images/PICTURE_509.png,PHOTO,5c92870723bd7e001870138e,1009,2020-09-12_06h49.43.748,proactive3.2,2020.1.2,Linux x86_64,60,1,,,,,,telephone,,,,,,0,26,26,21,1,3,0,,,,,,,,,,,,,,,,,,,,,,,,,,,,,,,,,,,,,,,,,,,,,,,,,,,,,,,,,,,,,,,,,,,,,,,,,,,
,,,,,,,,,,stimuli/images/PICTURE_311.png,BEAUTY,5c92870723bd7e001870138e,1009,2020-09-12_06h49.43.748,proactive3.2,2020.1.2,Linux x86_64,60,1,,,,,,razor,,,,,,0,27,27,13,1,2,0,,,,,,,,,,,,,,,,,,,,,,,,,,,,,,,,,,,,,,,,,,,,,,,,,,,,,,,,,,,,,,,,,,,,,,,,,,,
,,,,,,,,,,stimuli/images/PICTURE_654.png,VALLEY,5c92870723bd7e001870138e,1009,2020-09-12_06h49.43.748,proactive3.2,2020.1.2,Linux x86_64,60,1,,,,,,pencil,,,,,,0,28,28,1,1,1,0,,,,,,,,,,,,,,,,,,,,,,,,,,,,,,,,,,,,,,,,,,,,,,,,,,,,,,,,,,,,,,,,,,,,,,,,,,,
,,,,,,,,,,stimuli/images/PICTURE_32.png,JUNGLE,5c92870723bd7e001870138e,1009,2020-09-12_06h49.43.748,proactive3.2,2020.1.2,Linux x86_64,60,1,,,,,,crown,,,,,,0,29,29,45,1,5,0,,,,,,,,,,,,,,,,,,,,,,,,,,,,,,,,,,,,,,,,,,,,,,,,,,,,,,,,,,,,,,,,,,,,,,,,,,,
,,,,,,,,,,stimuli/images/PICTURE_208.png,MONTH,5c92870723bd7e001870138e,1009,2020-09-12_06h49.43.748,proactive3.2,2020.1.2,Linux x86_64,60,1,,,,,,microphone,,,,,,0,30,30,53,1,6,0,,,,,,,,,,,,,,,,,,,,,,,,,,,,,,,,,,,,,,,,,,,,,,,,,,,,,,,,,,,,,,,,,,,,,,,,,,,
,,,,,,,,,,stimuli/images/PICTURE_233.png,IDEAS,5c92870723bd7e001870138e,1009,2020-09-12_06h49.43.748,proactive3.2,2020.1.2,Linux x86_64,60,1,,,,,,salt,,,,,,0,31,31,28,1,3,0,,,,,,,,,,,,,,,,,,,,,,,,,,,,,,,,,,,,,,,,,,,,,,,,,,,,,,,,,,,,,,,,,,,,,,,,,,,
,,,,,,,,,,stimuli/images/PICTURE_380.png,PHOTO,5c92870723bd7e001870138e,1009,2020-09-12_06h49.43.748,proactive3.2,2020.1.2,Linux x86_64,60,1,,,,,,gorilla,,,,,,0,32,32,52,1,6,0,,,,,,,,,,,,,,,,,,,,,,,,,,,,,,,,,,,,,,,,,,,,,,,,,,,,,,,,,,,,,,,,,,,,,,,,,,,
,,,,,,,,,,stimuli/images/PICTURE_491.png,ROOF,5c92870723bd7e001870138e,1009,2020-09-12_06h49.43.748,proactive3.2,2020.1.2,Linux x86_64,60,1,,,,,,rug,,,,,,0,33,33,24,1,3,0,,,,,,,,,,,,,,,,,,,,,,,,,,,,,,,,,,,,,,,,,,,,,,,,,,,,,,,,,,,,,,,,,,,,,,,,,,,
,,,,,,,,,,stimuli/images/PICTURE_177.png,CARS,5c92870723bd7e001870138e,1009,2020-09-12_06h49.43.748,proactive3.2,2020.1.2,Linux x86_64,60,1,,,,,,mushroom,,,,,,0,34,34,35,1,4,0,,,,,,,,,,,,,,,,,,,,,,,,,,,,,,,,,,,,,,,,,,,,,,,,,,,,,,,,,,,,,,,,,,,,,,,,,,,
,,,,,,,,,,stimuli/images/PICTURE_147.png,MOMENT,5c92870723bd7e001870138e,1009,2020-09-12_06h49.43.748,proactive3.2,2020.1.2,Linux x86_64,60,1,,,,,,hanger,,,,,,0,35,35,51,1,6,0,,,,,,,,,,,,,,,,,,,,,,,,,,,,,,,,,,,,,,,,,,,,,,,,,,,,,,,,,,,,,,,,,,,,,,,,,,,
,,,,,,,,,,stimuli/images/PICTURE_68.png,MILE,5c92870723bd7e001870138e,1009,2020-09-12_06h49.43.748,proactive3.2,2020.1.2,Linux x86_64,60,1,,,,,,candle,,,,,,0,36,36,44,1,5,0,,,,,,,,,,,,,,,,,,,,,,,,,,,,,,,,,,,,,,,,,,,,,,,,,,,,,,,,,,,,,,,,,,,,,,,,,,,
,,,,,,,,,,stimuli/images/PICTURE_688.png,WOMEN,5c92870723bd7e001870138e,1009,2020-09-12_06h49.43.748,proactive3.2,2020.1.2,Linux x86_64,60,1,,,,,,runner,,,,,,0,37,37,14,1,2,0,,,,,,,,,,,,,,,,,,,,,,,,,,,,,,,,,,,,,,,,,,,,,,,,,,,,,,,,,,,,,,,,,,,,,,,,,,,
,,,,,,,,,,stimuli/images/PICTURE_314.png,GODS,5c92870723bd7e001870138e,1009,2020-09-12_06h49.43.748,proactive3.2,2020.1.2,Linux x86_64,60,1,,,,,,perfume,,,,,,0,38,38,11,1,2,0,,,,,,,,,,,,,,,,,,,,,,,,,,,,,,,,,,,,,,,,,,,,,,,,,,,,,,,,,,,,,,,,,,,,,,,,,,,
,,,,,,,,,,stimuli/images/PICTURE_380.png,DEATH,5c92870723bd7e001870138e,1009,2020-09-12_06h49.43.748,proactive3.2,2020.1.2,Linux x86_64,60,1,,,,,,gorilla,,,,,,0,39,39,49,1,5,0,,,,,,,,,,,,,,,,,,,,,,,,,,,,,,,,,,,,,,,,,,,,,,,,,,,,,,,,,,,,,,,,,,,,,,,,,,,
,,,,,,,,,,stimuli/images/PICTURE_491.png,WRITER,5c92870723bd7e001870138e,1009,2020-09-12_06h49.43.748,proactive3.2,2020.1.2,Linux x86_64,60,1,,,,,,rug,,,,,,0,40,40,57,1,6,0,,,,,,,,,,,,,,,,,,,,,,,,,,,,,,,,,,,,,,,,,,,,,,,,,,,,,,,,,,,,,,,,,,,,,,,,,,,
,,,,,,,,,,stimuli/images/PICTURE_688.png,CASINO,5c92870723bd7e001870138e,1009,2020-09-12_06h49.43.748,proactive3.2,2020.1.2,Linux x86_64,60,1,,,,,,runner,,,,,,0,41,41,2,1,1,0,,,,,,,,,,,,,,,,,,,,,,,,,,,,,,,,,,,,,,,,,,,,,,,,,,,,,,,,,,,,,,,,,,,,,,,,,,,
,,,,,,,,,,stimuli/images/PICTURE_123.png,ADVICE,5c92870723bd7e001870138e,1009,2020-09-12_06h49.43.748,proactive3.2,2020.1.2,Linux x86_64,60,1,,,,,,dart,,,,,,0,42,42,40,1,5,0,,,,,,,,,,,,,,,,,,,,,,,,,,,,,,,,,,,,,,,,,,,,,,,,,,,,,,,,,,,,,,,,,,,,,,,,,,,
,,,,,,,,,,stimuli/images/PICTURE_255.png,AREA,5c92870723bd7e001870138e,1009,2020-09-12_06h49.43.748,proactive3.2,2020.1.2,Linux x86_64,60,1,,,,,,shovel,,,,,,0,43,43,22,1,3,0,,,,,,,,,,,,,,,,,,,,,,,,,,,,,,,,,,,,,,,,,,,,,,,,,,,,,,,,,,,,,,,,,,,,,,,,,,,
,,,,,,,,,,stimuli/images/PICTURE_203.png,ARTIST,5c92870723bd7e001870138e,1009,2020-09-12_06h49.43.748,proactive3.2,2020.1.2,Linux x86_64,60,1,,,,,,cap,,,,,,0,44,44,26,1,3,0,,,,,,,,,,,,,,,,,,,,,,,,,,,,,,,,,,,,,,,,,,,,,,,,,,,,,,,,,,,,,,,,,,,,,,,,,,,
,,,,,,,,,,stimuli/images/PICTURE_453.png,DUDE,5c92870723bd7e001870138e,1009,2020-09-12_06h49.43.748,proactive3.2,2020.1.2,Linux x86_64,60,1,,,,,,scissors,,,,,,0,45,45,27,1,3,0,,,,,,,,,,,,,,,,,,,,,,,,,,,,,,,,,,,,,,,,,,,,,,,,,,,,,,,,,,,,,,,,,,,,,,,,,,,
,,,,,,,,,,stimuli/images/PICTURE_744.png,SYSTEM,5c92870723bd7e001870138e,1009,2020-09-12_06h49.43.748,proactive3.2,2020.1.2,Linux x86_64,60,1,,,,,,ring,,,,,,0,46,46,43,1,5,0,,,,,,,,,,,,,,,,,,,,,,,,,,,,,,,,,,,,,,,,,,,,,,,,,,,,,,,,,,,,,,,,,,,,,,,,,,,
,,,,,,,,,,stimuli/images/PICTURE_708.png,CLIENT,5c92870723bd7e001870138e,1009,2020-09-12_06h49.43.748,proactive3.2,2020.1.2,Linux x86_64,60,1,,,,,,monkey,,,,,,0,47,47,5,1,1,0,,,,,,,,,,,,,,,,,,,,,,,,,,,,,,,,,,,,,,,,,,,,,,,,,,,,,,,,,,,,,,,,,,,,,,,,,,,
,,,,,,,,,,stimuli/images/PICTURE_469.png,ARTIST,5c92870723bd7e001870138e,1009,2020-09-12_06h49.43.748,proactive3.2,2020.1.2,Linux x86_64,60,1,,,,,,stool,,,,,,0,48,48,6,1,1,0,,,,,,,,,,,,,,,,,,,,,,,,,,,,,,,,,,,,,,,,,,,,,,,,,,,,,,,,,,,,,,,,,,,,,,,,,,,
,,,,,,,,,,stimuli/images/PICTURE_356.png,DANGER,5c92870723bd7e001870138e,1009,2020-09-12_06h49.43.748,proactive3.2,2020.1.2,Linux x86_64,60,1,,,,,,pawn,,,,,,0,49,49,55,1,6,0,,,,,,,,,,,,,,,,,,,,,,,,,,,,,,,,,,,,,,,,,,,,,,,,,,,,,,,,,,,,,,,,,,,,,,,,,,,
,,,,,,,,,,stimuli/images/PICTURE_677.png,MILE,5c92870723bd7e001870138e,1009,2020-09-12_06h49.43.748,proactive3.2,2020.1.2,Linux x86_64,60,1,,,,,,map,,,,,,0,50,50,30,1,4,0,,,,,,,,,,,,,,,,,,,,,,,,,,,,,,,,,,,,,,,,,,,,,,,,,,,,,,,,,,,,,,,,,,,,,,,,,,,
,,,,,,,,,,stimuli/images/PICTURE_208.png,THING,5c92870723bd7e001870138e,1009,2020-09-12_06h49.43.748,proactive3.2,2020.1.2,Linux x86_64,60,1,,,,,,microphone,,,,,,0,51,51,47,1,5,0,,,,,,,,,,,,,,,,,,,,,,,,,,,,,,,,,,,,,,,,,,,,,,,,,,,,,,,,,,,,,,,,,,,,,,,,,,,
,,,,,,,,,,stimuli/images/PICTURE_308.png,ESTATE,5c92870723bd7e001870138e,1009,2020-09-12_06h49.43.748,proactive3.2,2020.1.2,Linux x86_64,60,1,,,,,,dice,,,,,,0,52,52,46,1,5,0,,,,,,,,,,,,,,,,,,,,,,,,,,,,,,,,,,,,,,,,,,,,,,,,,,,,,,,,,,,,,,,,,,,,,,,,,,,
,,,,,,,,,,stimuli/images/PICTURE_208.png,LOTS,5c92870723bd7e001870138e,1009,2020-09-12_06h49.43.748,proactive3.2,2020.1.2,Linux x86_64,60,1,,,,,,microphone,,,,,,0,53,53,10,1,2,0,,,,,,,,,,,,,,,,,,,,,,,,,,,,,,,,,,,,,,,,,,,,,,,,,,,,,,,,,,,,,,,,,,,,,,,,,,,
,,,,,,,,,,stimuli/images/PICTURE_348.png,SPEECH,5c92870723bd7e001870138e,1009,2020-09-12_06h49.43.748,proactive3.2,2020.1.2,Linux x86_64,60,1,,,,,,pepper,,,,,,0,54,54,20,1,3,0,,,,,,,,,,,,,,,,,,,,,,,,,,,,,,,,,,,,,,,,,,,,,,,,,,,,,,,,,,,,,,,,,,,,,,,,,,,
,,,,,,,,,,stimuli/images/PICTURE_302.png,FAMILY,5c92870723bd7e001870138e,1009,2020-09-12_06h49.43.748,proactive3.2,2020.1.2,Linux x86_64,60,1,,,,,,taxi,,,,,,0,55,55,18,1,2,0,,,,,,,,,,,,,,,,,,,,,,,,,,,,,,,,,,,,,,,,,,,,,,,,,,,,,,,,,,,,,,,,,,,,,,,,,,,
,,,,,,,,,,stimuli/images/PICTURE_314.png,SAKE,5c92870723bd7e001870138e,1009,2020-09-12_06h49.43.748,proactive3.2,2020.1.2,Linux x86_64,60,1,,,,,,perfume,,,,,,0,56,56,7,1,1,0,,,,,,,,,,,,,,,,,,,,,,,,,,,,,,,,,,,,,,,,,,,,,,,,,,,,,,,,,,,,,,,,,,,,,,,,,,,
,,,,,,,,,,stimuli/images/PICTURE_708.png,PENNY,5c92870723bd7e001870138e,1009,2020-09-12_06h49.43.748,proactive3.2,2020.1.2,Linux x86_64,60,1,,,,,,monkey,,,,,,0,57,57,31,1,4,0,,,,,,,,,,,,,,,,,,,,,,,,,,,,,,,,,,,,,,,,,,,,,,,,,,,,,,,,,,,,,,,,,,,,,,,,,,,
,,,,,,,,,,stimuli/images/PICTURE_85.png,THING,5c92870723bd7e001870138e,1009,2020-09-12_06h49.43.748,proactive3.2,2020.1.2,Linux x86_64,60,1,,,,,,diamond,,,,,,0,58,58,15,1,2,0,,,,,,,,,,,,,,,,,,,,,,,,,,,,,,,,,,,,,,,,,,,,,,,,,,,,,,,,,,,,,,,,,,,,,,,,,,,
,,?,0.0014,0,,,,,,stimuli/images/PICTURE_233.png,IDEAS,5c92870723bd7e001870138e,1009,2020-09-12_06h49.43.748,proactive3.2,2020.1.2,Linux x86_64,60,1,,,,,,salt,,,,,,,,,,,3,0,0,0,0,28,1,,,,,,,,,,,,,,,,,,,,,,,,,,,,,,,,,,,,,,,,,,,,,,,,,,,,,,,,,,,,,,,,,,,,,,
,,?,0.0019,0,,,,,,stimuli/images/PICTURE_470.png,CASINO,5c92870723bd7e001870138e,1009,2020-09-12_06h49.43.748,proactive3.2,2020.1.2,Linux x86_64,60,1,,,,,,motorbike,,,,,,,,,,,4,0,0,1,1,36,1,,,,,,,,,,,,,,,,,,,,,,,,,,,,,,,,,,,,,,,,,,,,,,,,,,,,,,,,,,,,,,,,,,,,,,
,,PENCIL,15.0019,0,,,,,,stimuli/images/PICTURE_504.png,BODY,5c92870723bd7e001870138e,1009,2020-09-12_06h49.43.748,proactive3.2,2020.1.2,Linux x86_64,60,1,,,,,,wheel,,,,,,,,,,,1,0,0,2,2,8,1,,,,,,,,,,,,,,,,,,,,,,,,,,,,,,,,,,,,,,,,,,,,,,,,,,,,,,,,,,,,,,,,,,,,,,
,,?,0.0022,0,,,,,,stimuli/images/PICTURE_667.png,PLENTY,5c92870723bd7e001870138e,1009,2020-09-12_06h49.43.748,proactive3.2,2020.1.2,Linux x86_64,60,1,,,,,,daisy,,,,,,,,,,,5,0,0,3,3,41,1,,,,,,,,,,,,,,,,,,,,,,,,,,,,,,,,,,,,,,,,,,,,,,,,,,,,,,,,,,,,,,,,,,,,,,
,,BOY,11.2858,0,,,,,,stimuli/images/PICTURE_160.png,LEADER,5c92870723bd7e001870138e,1009,2020-09-12_06h49.43.748,proactive3.2,2020.1.2,Linux x86_64,60,1,,,,,,wheelbarrow,,,,,,,,,,,1,0,0,4,4,3,1,,,,,,,,,,,,,,,,,,,,,,,,,,,,,,,,,,,,,,,,,,,,,,,,,,,,,,,,,,,,,,,,,,,,,,
,,?,0.0021,0,,,,,,stimuli/images/PICTURE_380.png,PHOTO,5c92870723bd7e001870138e,1009,2020-09-12_06h49.43.748,proactive3.2,2020.1.2,Linux x86_64,60,1,,,,,,gorilla,,,,,,,,,,,6,0,0,5,5,52,1,,,,,,,,,,,,,,,,,,,,,,,,,,,,,,,,,,,,,,,,,,,,,,,,,,,,,,,,,,,,,,,,,,,,,,
,,?,0.0016,0,,,,,,stimuli/images/PICTURE_311.png,BEAUTY,5c92870723bd7e001870138e,1009,2020-09-12_06h49.43.748,proactive3.2,2020.1.2,Linux x86_64,60,1,,,,,,razor,,,,,,,,,,,2,0,0,6,6,13,1,,,,,,,,,,,,,,,,,,,,,,,,,,,,,,,,,,,,,,,,,,,,,,,,,,,,,,,,,,,,,,,,,,,,,,
,,OUT,8.351,0,,,,,,stimuli/images/PICTURE_469.png,ARTIST,5c92870723bd7e001870138e,1009,2020-09-12_06h49.43.748,proactive3.2,2020.1.2,Linux x86_64,60,1,,,,,,stool,,,,,,,,,,,1,0,0,7,7,6,1,,,,,,,,,,,,,,,,,,,,,,,,,,,,,,,,,,,,,,,,,,,,,,,,,,,,,,,,,,,,,,,,,,,,,,
,,?,0.0021,0,,,,,,stimuli/images/PICTURE_285.png,ADVICE,5c92870723bd7e001870138e,1009,2020-09-12_06h49.43.748,proactive3.2,2020.1.2,Linux x86_64,60,1,,,,,,carrot,,,,,,,,,,,2,0,0,8,8,12,1,,,,,,,,,,,,,,,,,,,,,,,,,,,,,,,,,,,,,,,,,,,,,,,,,,,,,,,,,,,,,,,,,,,,,,
,,?,0.0018,0,,,,,,stimuli/images/PICTURE_147.png,MOMENT,5c92870723bd7e001870138e,1009,2020-09-12_06h49.43.748,proactive3.2,2020.1.2,Linux x86_64,60,1,,,,,,hanger,,,,,,,,,,,6,0,0,9,9,51,1,,,,,,,,,,,,,,,,,,,,,,,,,,,,,,,,,,,,,,,,,,,,,,,,,,,,,,,,,,,,,,,,,,,,,,
,,?,0.0013,0,,,,,,stimuli/images/PICTURE_327.png,BEAUTY,5c92870723bd7e001870138e,1009,2020-09-12_06h49.43.748,proactive3.2,2020.1.2,Linux x86_64,60,1,,,,,,helmet,,,,,,,,,,,5,0,0,10,10,48,1,,,,,,,,,,,,,,,,,,,,,,,,,,,,,,,,,,,,,,,,,,,,,,,,,,,,,,,,,,,,,,,,,,,,,,
,,?,0.0013,0,,,,,,stimuli/images/PICTURE_123.png,ADVICE,5c92870723bd7e001870138e,1009,2020-09-12_06h49.43.748,proactive3.2,2020.1.2,Linux x86_64,60,1,,,,,,dart,,,,,,,,,,,5,0,0,11,11,40,1,,,,,,,,,,,,,,,,,,,,,,,,,,,,,,,,,,,,,,,,,,,,,,,,,,,,,,,,,,,,,,,,,,,,,,
,,?,0.0014,0,,,,,,stimuli/images/PICTURE_151.png,GIRL,5c92870723bd7e001870138e,1009,2020-09-12_06h49.43.748,proactive3.2,2020.1.2,Linux x86_64,60,1,,,,,,tray,,,,,,,,,,,2,0,0,12,12,19,1,,,,,,,,,,,,,,,,,,,,,,,,,,,,,,,,,,,,,,,,,,,,,,,,,,,,,,,,,,,,,,,,,,,,,,
,,?,0.0012,0,,,,,,stimuli/images/PICTURE_233.png,WOMEN,5c92870723bd7e001870138e,1009,2020-09-12_06h49.43.748,proactive3.2,2020.1.2,Linux x86_64,60,1,,,,,,salt,,,,,,,,,,,4,0,0,13,13,38,1,,,,,,,,,,,,,,,,,,,,,,,,,,,,,,,,,,,,,,,,,,,,,,,,,,,,,,,,,,,,,,,,,,,,,,
,,?,0.0012,0,,,,,,stimuli/images/PICTURE_469.png,LETTER,5c92870723bd7e001870138e,1009,2020-09-12_06h49.43.748,proactive3.2,2020.1.2,Linux x86_64,60,1,,,,,,stool,,,,,,,,,,,5,0,0,14,14,42,1,,,,,,,,,,,,,,,,,,,,,,,,,,,,,,,,,,,,,,,,,,,,,,,,,,,,,,,,,,,,,,,,,,,,,,
,,NOT,10.0426,0,,,,,,stimuli/images/PICTURE_314.png,SAKE,5c92870723bd7e001870138e,1009,2020-09-12_06h49.43.748,proactive3.2,2020.1.2,Linux x86_64,60,1,,,,,,perfume,,,,,,,,,,,1,0,0,15,15,7,1,,,,,,,,,,,,,,,,,,,,,,,,,,,,,,,,,,,,,,,,,,,,,,,,,,,,,,,,,,,,,,,,,,,,,,
,,?,0.002,0,,,,,,stimuli/images/PICTURE_32.png,JUNGLE,5c92870723bd7e001870138e,1009,2020-09-12_06h49.43.748,proactive3.2,2020.1.2,Linux x86_64,60,1,,,,,,crown,,,,,,,,,,,5,0,0,16,16,45,1,,,,,,,,,,,,,,,,,,,,,,,,,,,,,,,,,,,,,,,,,,,,,,,,,,,,,,,,,,,,,,,,,,,,,,
,,?,0.0013,0,,,,,,stimuli/images/PICTURE_308.png,ESTATE,5c92870723bd7e001870138e,1009,2020-09-12_06h49.43.748,proactive3.2,2020.1.2,Linux x86_64,60,1,,,,,,dice,,,,,,,,,,,5,0,0,17,17,46,1,,,,,,,,,,,,,,,,,,,,,,,,,,,,,,,,,,,,,,,,,,,,,,,,,,,,,,,,,,,,,,,,,,,,,,
,,?,0.0013,0,,,,,,stimuli/images/PICTURE_449.png,THING,5c92870723bd7e001870138e,1009,2020-09-12_06h49.43.748,proactive3.2,2020.1.2,Linux x86_64,60,1,,,,,,bench,,,,,,,,,,,6,0,0,18,18,59,1,,,,,,,,,,,,,,,,,,,,,,,,,,,,,,,,,,,,,,,,,,,,,,,,,,,,,,,,,,,,,,,,,,,,,,
,,?,0.0016,0,,,,,,stimuli/images/PICTURE_453.png,PLENTY,5c92870723bd7e001870138e,1009,2020-09-12_06h49.43.748,proactive3.2,2020.1.2,Linux x86_64,60,1,,,,,,scissors,,,,,,,,,,,6,0,0,19,19,56,1,,,,,,,,,,,,,,,,,,,,,,,,,,,,,,,,,,,,,,,,,,,,,,,,,,,,,,,,,,,,,,,,,,,,,,
,,?,0.0015,0,,,,,,stimuli/images/PICTURE_248.png,DOZEN,5c92870723bd7e001870138e,1009,2020-09-12_06h49.43.748,proactive3.2,2020.1.2,Linux x86_64,60,1,,,,,,cart,,,,,,,,,,,4,0,0,20,20,39,1,,,,,,,,,,,,,,,,,,,,,,,,,,,,,,,,,,,,,,,,,,,,,,,,,,,,,,,,,,,,,,,,,,,,,,
,,?,0.0012,0,,,,,,stimuli/images/PICTURE_491.png,ROOF,5c92870723bd7e001870138e,1009,2020-09-12_06h49.43.748,proactive3.2,2020.1.2,Linux x86_64,60,1,,,,,,rug,,,,,,,,,,,3,0,0,21,21,24,1,,,,,,,,,,,,,,,,,,,,,,,,,,,,,,,,,,,,,,,,,,,,,,,,,,,,,,,,,,,,,,,,,,,,,,
,,FRUIT,10.1274,0,,,,,,stimuli/images/PICTURE_487.png,FLIGHT,5c92870723bd7e001870138e,1009,2020-09-12_06h49.43.748,proactive3.2,2020.1.2,Linux x86_64,60,1,,,,,,basket,,,,,,,,,,,1,0,0,22,22,9,1,,,,,,,,,,,,,,,,,,,,,,,,,,,,,,,,,,,,,,,,,,,,,,,,,,,,,,,,,,,,,,,,,,,,,,
,,?,0.002,0,,,,,,stimuli/images/PICTURE_708.png,YARD,5c92870723bd7e001870138e,1009,2020-09-12_06h49.43.748,proactive3.2,2020.1.2,Linux x86_64,60,1,,,,,,monkey,,,,,,,,,,,3,0,0,23,23,29,1,,,,,,,,,,,,,,,,,,,,,,,,,,,,,,,,,,,,,,,,,,,,,,,,,,,,,,,,,,,,,,,,,,,,,,
,,?,0.0019,0,,,,,,stimuli/images/PICTURE_208.png,LOTS,5c92870723bd7e001870138e,1009,2020-09-12_06h49.43.748,proactive3.2,2020.1.2,Linux x86_64,60,1,,,,,,microphone,,,,,,,,,,,2,0,0,24,24,10,1,,,,,,,,,,,,,,,,,,,,,,,,,,,,,,,,,,,,,,,,,,,,,,,,,,,,,,,,,,,,,,,,,,,,,,
,,SACK,6.2854,0,,,,,,stimuli/images/PICTURE_339.png,PLENTY,5c92870723bd7e001870138e,1009,2020-09-12_06h49.43.748,proactive3.2,2020.1.2,Linux x86_64,60,1,,,,,,backpack,,,,,,,,,,,1,0,0,25,25,0,1,,,,,,,,,,,,,,,,,,,,,,,,,,,,,,,,,,,,,,,,,,,,,,,,,,,,,,,,,,,,,,,,,,,,,,
,,?,0.0023,0,,,,,,stimuli/images/PICTURE_491.png,WRITER,5c92870723bd7e001870138e,1009,2020-09-12_06h49.43.748,proactive3.2,2020.1.2,Linux x86_64,60,1,,,,,,rug,,,,,,,,,,,6,0,0,26,26,57,1,,,,,,,,,,,,,,,,,,,,,,,,,,,,,,,,,,,,,,,,,,,,,,,,,,,,,,,,,,,,,,,,,,,,,,
,,?,0.0016,0,,,,,,stimuli/images/PICTURE_308.png,KIND,5c92870723bd7e001870138e,1009,2020-09-12_06h49.43.748,proactive3.2,2020.1.2,Linux x86_64,60,1,,,,,,dice,,,,,,,,,,,6,0,0,27,27,54,1,,,,,,,,,,,,,,,,,,,,,,,,,,,,,,,,,,,,,,,,,,,,,,,,,,,,,,,,,,,,,,,,,,,,,,
,,?,0.0014,0,,,,,,stimuli/images/PICTURE_688.png,WOMEN,5c92870723bd7e001870138e,1009,2020-09-12_06h49.43.748,proactive3.2,2020.1.2,Linux x86_64,60,1,,,,,,runner,,,,,,,,,,,2,0,0,28,28,14,1,,,,,,,,,,,,,,,,,,,,,,,,,,,,,,,,,,,,,,,,,,,,,,,,,,,,,,,,,,,,,,,,,,,,,,
,,?,0.0013,0,,,,,,stimuli/images/PICTURE_380.png,DEATH,5c92870723bd7e001870138e,1009,2020-09-12_06h49.43.748,proactive3.2,2020.1.2,Linux x86_64,60,1,,,,,,gorilla,,,,,,,,,,,5,0,0,29,29,49,1,,,,,,,,,,,,,,,,,,,,,,,,,,,,,,,,,,,,,,,,,,,,,,,,,,,,,,,,,,,,,,,,,,,,,,
,,?,0.0014,0,,,,,,stimuli/images/PICTURE_356.png,DANGER,5c92870723bd7e001870138e,1009,2020-09-12_06h49.43.748,proactive3.2,2020.1.2,Linux x86_64,60,1,,,,,,pawn,,,,,,,,,,,6,0,0,30,30,55,1,,,,,,,,,,,,,,,,,,,,,,,,,,,,,,,,,,,,,,,,,,,,,,,,,,,,,,,,,,,,,,,,,,,,,,
,,?,0.0012,0,,,,,,stimuli/images/PICTURE_509.png,PHOTO,5c92870723bd7e001870138e,1009,2020-09-12_06h49.43.748,proactive3.2,2020.1.2,Linux x86_64,60,1,,,,,,telephone,,,,,,,,,,,3,0,0,31,31,21,1,,,,,,,,,,,,,,,,,,,,,,,,,,,,,,,,,,,,,,,,,,,,,,,,,,,,,,,,,,,,,,,,,,,,,,
,,?,0.0012,0,,,,,,stimuli/images/PICTURE_744.png,SYSTEM,5c92870723bd7e001870138e,1009,2020-09-12_06h49.43.748,proactive3.2,2020.1.2,Linux x86_64,60,1,,,,,,ring,,,,,,,,,,,5,0,0,32,32,43,1,,,,,,,,,,,,,,,,,,,,,,,,,,,,,,,,,,,,,,,,,,,,,,,,,,,,,,,,,,,,,,,,,,,,,,
,,?,0.0012,0,,,,,,stimuli/images/PICTURE_488.png,STYLE,5c92870723bd7e001870138e,1009,2020-09-12_06h49.43.748,proactive3.2,2020.1.2,Linux x86_64,60,1,,,,,,sun,,,,,,,,,,,4,0,0,33,33,33,1,,,,,,,,,,,,,,,,,,,,,,,,,,,,,,,,,,,,,,,,,,,,,,,,,,,,,,,,,,,,,,,,,,,,,,
,,?,0.0042,0,,,,,,stimuli/images/PICTURE_453.png,DUDE,5c92870723bd7e001870138e,1009,2020-09-12_06h49.43.748,proactive3.2,2020.1.2,Linux x86_64,60,1,,,,,,scissors,,,,,,,,,,,3,0,0,34,34,27,1,,,,,,,,,,,,,,,,,,,,,,,,,,,,,,,,,,,,,,,,,,,,,,,,,,,,,,,,,,,,,,,,,,,,,,
,,?,0.0019,0,,,,,,stimuli/images/PICTURE_123.png,ADVICE,5c92870723bd7e001870138e,1009,2020-09-12_06h49.43.748,proactive3.2,2020.1.2,Linux x86_64,60,1,,,,,,dart,,,,,,,,,,,6,0,0,35,35,50,1,,,,,,,,,,,,,,,,,,,,,,,,,,,,,,,,,,,,,,,,,,,,,,,,,,,,,,,,,,,,,,,,,,,,,,
,,?,0.0096,0,,,,,,stimuli/images/PICTURE_208.png,THING,5c92870723bd7e001870138e,1009,2020-09-12_06h49.43.748,proactive3.2,2020.1.2,Linux x86_64,60,1,,,,,,microphone,,,,,,,,,,,5,0,0,36,36,47,1,,,,,,,,,,,,,,,,,,,,,,,,,,,,,,,,,,,,,,,,,,,,,,,,,,,,,,,,,,,,,,,,,,,,,,
,,?,0.0016,0,,,,,,stimuli/images/PICTURE_203.png,ARTIST,5c92870723bd7e001870138e,1009,2020-09-12_06h49.43.748,proactive3.2,2020.1.2,Linux x86_64,60,1,,,,,,cap,,,,,,,,,,,3,0,0,37,37,26,1,,,,,,,,,,,,,,,,,,,,,,,,,,,,,,,,,,,,,,,,,,,,,,,,,,,,,,,,,,,,,,,,,,,,,,
,,?,0.0014,0,,,,,,stimuli/images/PICTURE_255.png,AREA,5c92870723bd7e001870138e,1009,2020-09-12_06h49.43.748,proactive3.2,2020.1.2,Linux x86_64,60,1,,,,,,shovel,,,,,,,,,,,3,0,0,38,38,22,1,,,,,,,,,,,,,,,,,,,,,,,,,,,,,,,,,,,,,,,,,,,,,,,,,,,,,,,,,,,,,,,,,,,,,,
,,?,0.0016,0,,,,,,stimuli/images/PICTURE_177.png,CARS,5c92870723bd7e001870138e,1009,2020-09-12_06h49.43.748,proactive3.2,2020.1.2,Linux x86_64,60,1,,,,,,mushroom,,,,,,,,,,,4,0,0,39,39,35,1,,,,,,,,,,,,,,,,,,,,,,,,,,,,,,,,,,,,,,,,,,,,,,,,,,,,,,,,,,,,,,,,,,,,,,
,,?,0.0016,0,,,,,,stimuli/images/PICTURE_692.png,MONTH,5c92870723bd7e001870138e,1009,2020-09-12_06h49.43.748,proactive3.2,2020.1.2,Linux x86_64,60,1,,,,,,cherry,,,,,,,,,,,2,0,0,40,40,16,1,,,,,,,,,,,,,,,,,,,,,,,,,,,,,,,,,,,,,,,,,,,,,,,,,,,,,,,,,,,,,,,,,,,,,,
,,?,0.0014,0,,,,,,stimuli/images/PICTURE_467.png,DEMON,5c92870723bd7e001870138e,1009,2020-09-12_06h49.43.748,proactive3.2,2020.1.2,Linux x86_64,60,1,,,,,,peg,,,,,,,,,,,3,0,0,41,41,23,1,,,,,,,,,,,,,,,,,,,,,,,,,,,,,,,,,,,,,,,,,,,,,,,,,,,,,,,,,,,,,,,,,,,,,,
,,?,0.0014,0,,,,,,stimuli/images/PICTURE_311.png,FRIEND,5c92870723bd7e001870138e,1009,2020-09-12_06h49.43.748,proactive3.2,2020.1.2,Linux x86_64,60,1,,,,,,razor,,,,,,,,,,,4,0,0,42,42,34,1,,,,,,,,,,,,,,,,,,,,,,,,,,,,,,,,,,,,,,,,,,,,,,,,,,,,,,,,,,,,,,,,,,,,,,
,,?,0.0016,0,,,,,,stimuli/images/PICTURE_302.png,FAMILY,5c92870723bd7e001870138e,1009,2020-09-12_06h49.43.748,proactive3.2,2020.1.2,Linux x86_64,60,1,,,,,,taxi,,,,,,,,,,,2,0,0,43,43,18,1,,,,,,,,,,,,,,,,,,,,,,,,,,,,,,,,,,,,,,,,,,,,,,,,,,,,,,,,,,,,,,,,,,,,,,
,,?,0.0016,0,,,,,,stimuli/images/PICTURE_85.png,THING,5c92870723bd7e001870138e,1009,2020-09-12_06h49.43.748,proactive3.2,2020.1.2,Linux x86_64,60,1,,,,,,diamond,,,,,,,,,,,2,0,0,44,44,15,1,,,,,,,,,,,,,,,,,,,,,,,,,,,,,,,,,,,,,,,,,,,,,,,,,,,,,,,,,,,,,,,,,,,,,,
,,MAN,7.3187,0,,,,,,stimuli/images/PICTURE_708.png,CLIENT,5c92870723bd7e001870138e,1009,2020-09-12_06h49.43.748,proactive3.2,2020.1.2,Linux x86_64,60,1,,,,,,monkey,,,,,,,,,,,1,0,0,45,45,5,1,,,,,,,,,,,,,,,,,,,,,,,,,,,,,,,,,,,,,,,,,,,,,,,,,,,,,,,,,,,,,,,,,,,,,,
,,?,0.0023,0,,,,,,stimuli/images/PICTURE_215.png,PLENTY,5c92870723bd7e001870138e,1009,2020-09-12_06h49.43.748,proactive3.2,2020.1.2,Linux x86_64,60,1,,,,,,boot,,,,,,,,,,,4,0,0,46,46,37,1,,,,,,,,,,,,,,,,,,,,,,,,,,,,,,,,,,,,,,,,,,,,,,,,,,,,,,,,,,,,,,,,,,,,,,
,,BNM,7.533,0,,,,,,stimuli/images/PICTURE_654.png,VALLEY,5c92870723bd7e001870138e,1009,2020-09-12_06h49.43.748,proactive3.2,2020.1.2,Linux x86_64,60,1,,,,,,pencil,,,,,,,,,,,1,0,0,47,47,1,1,,,,,,,,,,,,,,,,,,,,,,,,,,,,,,,,,,,,,,,,,,,,,,,,,,,,,,,,,,,,,,,,,,,,,,
,,OK,7.9365,0,,,,,,stimuli/images/PICTURE_667.png,BATH,5c92870723bd7e001870138e,1009,2020-09-12_06h49.43.748,proactive3.2,2020.1.2,Linux x86_64,60,1,,,,,,daisy,,,,,,,,,,,1,0,0,48,48,4,1,,,,,,,,,,,,,,,,,,,,,,,,,,,,,,,,,,,,,,,,,,,,,,,,,,,,,,,,,,,,,,,,,,,,,,
,,?,0.002,0,,,,,,stimuli/images/PICTURE_675.png,WEAPON,5c92870723bd7e001870138e,1009,2020-09-12_06h49.43.748,proactive3.2,2020.1.2,Linux x86_64,60,1,,,,,,windmill,,,,,,,,,,,4,0,0,49,49,32,1,,,,,,,,,,,,,,,,,,,,,,,,,,,,,,,,,,,,,,,,,,,,,,,,,,,,,,,,,,,,,,,,,,,,,,
,,?,0.0018,0,,,,,,stimuli/images/PICTURE_744.png,SAKE,5c92870723bd7e001870138e,1009,2020-09-12_06h49.43.748,proactive3.2,2020.1.2,Linux x86_64,60,1,,,,,,ring,,,,,,,,,,,2,0,0,50,50,17,1,,,,,,,,,,,,,,,,,,,,,,,,,,,,,,,,,,,,,,,,,,,,,,,,,,,,,,,,,,,,,,,,,,,,,,
,,?,0.0014,0,,,,,,stimuli/images/PICTURE_348.png,SPEECH,5c92870723bd7e001870138e,1009,2020-09-12_06h49.43.748,proactive3.2,2020.1.2,Linux x86_64,60,1,,,,,,pepper,,,,,,,,,,,3,0,0,51,51,20,1,,,,,,,,,,,,,,,,,,,,,,,,,,,,,,,,,,,,,,,,,,,,,,,,,,,,,,,,,,,,,,,,,,,,,,
,,?,0.0013,0,,,,,,stimuli/images/PICTURE_314.png,GODS,5c92870723bd7e001870138e,1009,2020-09-12_06h49.43.748,proactive3.2,2020.1.2,Linux x86_64,60,1,,,,,,perfume,,,,,,,,,,,2,0,0,52,52,11,1,,,,,,,,,,,,,,,,,,,,,,,,,,,,,,,,,,,,,,,,,,,,,,,,,,,,,,,,,,,,,,,,,,,,,,
,,?,0.0012,0,,,,,,stimuli/images/PICTURE_677.png,MILE,5c92870723bd7e001870138e,1009,2020-09-12_06h49.43.748,proactive3.2,2020.1.2,Linux x86_64,60,1,,,,,,map,,,,,,,,,,,4,0,0,53,53,30,1,,,,,,,,,,,,,,,,,,,,,,,,,,,,,,,,,,,,,,,,,,,,,,,,,,,,,,,,,,,,,,,,,,,,,,
,,?,0.0012,0,,,,,,stimuli/images/PICTURE_208.png,MONTH,5c92870723bd7e001870138e,1009,2020-09-12_06h49.43.748,proactive3.2,2020.1.2,Linux x86_64,60,1,,,,,,microphone,,,,,,,,,,,6,0,0,54,54,53,1,,,,,,,,,,,,,,,,,,,,,,,,,,,,,,,,,,,,,,,,,,,,,,,,,,,,,,,,,,,,,,,,,,,,,,
,,TROT,8.3603,0,,,,,,stimuli/images/PICTURE_688.png,CASINO,5c92870723bd7e001870138e,1009,2020-09-12_06h49.43.748,proactive3.2,2020.1.2,Linux x86_64,60,1,,,,,,runner,,,,,,,,,,,1,0,0,55,55,2,1,,,,,,,,,,,,,,,,,,,,,,,,,,,,,,,,,,,,,,,,,,,,,,,,,,,,,,,,,,,,,,,,,,,,,,
,,?,0.0021,0,,,,,,stimuli/images/PICTURE_708.png,PENNY,5c92870723bd7e001870138e,1009,2020-09-12_06h49.43.748,proactive3.2,2020.1.2,Linux x86_64,60,1,,,,,,monkey,,,,,,,,,,,4,0,0,56,56,31,1,,,,,,,,,,,,,,,,,,,,,,,,,,,,,,,,,,,,,,,,,,,,,,,,,,,,,,,,,,,,,,,,,,,,,,
,,?,0.0019,0,,,,,,stimuli/images/PICTURE_160.png,FEET,5c92870723bd7e001870138e,1009,2020-09-12_06h49.43.748,proactive3.2,2020.1.2,Linux x86_64,60,1,,,,,,wheelbarrow,,,,,,,,,,,6,0,0,57,57,58,1,,,,,,,,,,,,,,,,,,,,,,,,,,,,,,,,,,,,,,,,,,,,,,,,,,,,,,,,,,,,,,,,,,,,,,
,,?,0.0014,0,,,,,,stimuli/images/PICTURE_68.png,MILE,5c92870723bd7e001870138e,1009,2020-09-12_06h49.43.748,proactive3.2,2020.1.2,Linux x86_64,60,1,,,,,,candle,,,,,,,,,,,5,0,0,58,58,44,1,,,,,,,,,,,,,,,,,,,,,,,,,,,,,,,,,,,,,,,,,,,,,,,,,,,,,,,,,,,,,,,,,,,,,,
,,?,0.0013,0,,,,,,stimuli/images/PICTURE_95.png,STYLE,5c92870723bd7e001870138e,1009,2020-09-12_06h49.43.748,proactive3.2,2020.1.2,Linux x86_64,60,1,,,,,,suitcase,,,,,,,,,,,3,0,0,59,59,25,1,,,,,,,,,,,,,,,,,,,,,,,,,,,,,,,,,,,,,,,,,,,,,,,,,,,,,,,,,,,,,,,,,,,,,,
,,,,,,,,,,,,5c92870723bd7e001870138e,1009,2020-09-12_06h49.43.748,proactive3.2,2020.1.2,Linux x86_64,60,1,,,,,,,,,,,,,,,,,,,,,,,,,,,,,,space,12.8849,0,0,0,0,1,,,,,,,,,,,,,,,,,,,,,,,,,,,,,,,,,,,,,,,,,,,,,,,,,,,,,,,,,
,,,,,,,,,,stimuli/images/PICTURE_215.png,PLENTY,5c92870723bd7e001870138e,1009,2020-09-12_06h49.43.748,proactive3.2,2020.1.2,Linux x86_64,60,1,,,,,,boot,,,,,,0,0,0,37,1,4,0,,,,,,,,,,,,,,,,,,,,,,,,,,,,,,,,,,,,,,,,,,,,,,,,,,,,,,,,,,,,,,,,,,,,,,,,,,,
,,,,,,,,,,stimuli/images/PICTURE_339.png,PLENTY,5c92870723bd7e001870138e,1009,2020-09-12_06h49.43.748,proactive3.2,2020.1.2,Linux x86_64,60,1,,,,,,backpack,,,,,,0,1,1,0,1,1,0,,,,,,,,,,,,,,,,,,,,,,,,,,,,,,,,,,,,,,,,,,,,,,,,,,,,,,,,,,,,,,,,,,,,,,,,,,,
,,,,,,,,,,stimuli/images/PICTURE_667.png,PLENTY,5c92870723bd7e001870138e,1009,2020-09-12_06h49.43.748,proactive3.2,2020.1.2,Linux x86_64,60,1,,,,,,daisy,,,,,,0,2,2,41,1,5,0,,,,,,,,,,,,,,,,,,,,,,,,,,,,,,,,,,,,,,,,,,,,,,,,,,,,,,,,,,,,,,,,,,,,,,,,,,,
,,,,,,,,,,stimuli/images/PICTURE_509.png,PHOTO,5c92870723bd7e001870138e,1009,2020-09-12_06h49.43.748,proactive3.2,2020.1.2,Linux x86_64,60,1,,,,,,telephone,,,,,,0,3,3,21,1,3,0,,,,,,,,,,,,,,,,,,,,,,,,,,,,,,,,,,,,,,,,,,,,,,,,,,,,,,,,,,,,,,,,,,,,,,,,,,,
,,,,,,,,,,stimuli/images/PICTURE_667.png,BATH,5c92870723bd7e001870138e,1009,2020-09-12_06h49.43.748,proactive3.2,2020.1.2,Linux x86_64,60,1,,,,,,daisy,,,,,,0,4,4,4,1,1,0,,,,,,,,,,,,,,,,,,,,,,,,,,,,,,,,,,,,,,,,,,,,,,,,,,,,,,,,,,,,,,,,,,,,,,,,,,,
,,,,,,,,,,stimuli/images/PICTURE_348.png,SPEECH,5c92870723bd7e001870138e,1009,2020-09-12_06h49.43.748,proactive3.2,2020.1.2,Linux x86_64,60,1,,,,,,pepper,,,,,,0,5,5,20,1,3,0,,,,,,,,,,,,,,,,,,,,,,,,,,,,,,,,,,,,,,,,,,,,,,,,,,,,,,,,,,,,,,,,,,,,,,,,,,,
,,,,,,,,,,stimuli/images/PICTURE_311.png,BEAUTY,5c92870723bd7e001870138e,1009,2020-09-12_06h49.43.748,proactive3.2,2020.1.2,Linux x86_64,60,1,,,,,,razor,,,,,,0,6,6,13,1,2,0,,,,,,,,,,,,,,,,,,,,,,,,,,,,,,,,,,,,,,,,,,,,,,,,,,,,,,,,,,,,,,,,,,,,,,,,,,,
,,,,,,,,,,stimuli/images/PICTURE_208.png,THING,5c92870723bd7e001870138e,1009,2020-09-12_06h49.43.748,proactive3.2,2020.1.2,Linux x86_64,60,1,,,,,,microphone,,,,,,0,7,7,47,1,5,0,,,,,,,,,,,,,,,,,,,,,,,,,,,,,,,,,,,,,,,,,,,,,,,,,,,,,,,,,,,,,,,,,,,,,,,,,,,
,,,,,,,,,,stimuli/images/PICTURE_308.png,KIND,5c92870723bd7e001870138e,1009,2020-09-12_06h49.43.748,proactive3.2,2020.1.2,Linux x86_64,60,1,,,,,,dice,,,,,,0,8,8,54,1,6,0,,,,,,,,,,,,,,,,,,,,,,,,,,,,,,,,,,,,,,,,,,,,,,,,,,,,,,,,,,,,,,,,,,,,,,,,,,,
,,,,,,,,,,stimuli/images/PICTURE_491.png,WRITER,5c92870723bd7e001870138e,1009,2020-09-12_06h49.43.748,proactive3.2,2020.1.2,Linux x86_64,60,1,,,,,,rug,,,,,,0,9,9,57,1,6,0,,,,,,,,,,,,,,,,,,,,,,,,,,,,,,,,,,,,,,,,,,,,,,,,,,,,,,,,,,,,,,,,,,,,,,,,,,,
,,,,,,,,,,stimuli/images/PICTURE_32.png,JUNGLE,5c92870723bd7e001870138e,1009,2020-09-12_06h49.43.748,proactive3.2,2020.1.2,Linux x86_64,60,1,,,,,,crown,,,,,,0,10,10,45,1,5,0,,,,,,,,,,,,,,,,,,,,,,,,,,,,,,,,,,,,,,,,,,,,,,,,,,,,,,,,,,,,,,,,,,,,,,,,,,,
,,,,,,,,,,stimuli/images/PICTURE_68.png,MILE,5c92870723bd7e001870138e,1009,2020-09-12_06h49.43.748,proactive3.2,2020.1.2,Linux x86_64,60,1,,,,,,candle,,,,,,0,11,11,44,1,5,0,,,,,,,,,,,,,,,,,,,,,,,,,,,,,,,,,,,,,,,,,,,,,,,,,,,,,,,,,,,,,,,,,,,,,,,,,,,
,,,,,,,,,,stimuli/images/PICTURE_147.png,MOMENT,5c92870723bd7e001870138e,1009,2020-09-12_06h49.43.748,proactive3.2,2020.1.2,Linux x86_64,60,1,,,,,,hanger,,,,,,0,12,12,51,1,6,0,,,,,,,,,,,,,,,,,,,,,,,,,,,,,,,,,,,,,,,,,,,,,,,,,,,,,,,,,,,,,,,,,,,,,,,,,,,
,,,,,,,,,,stimuli/images/PICTURE_95.png,STYLE,5c92870723bd7e001870138e,1009,2020-09-12_06h49.43.748,proactive3.2,2020.1.2,Linux x86_64,60,1,,,,,,suitcase,,,,,,0,13,13,25,1,3,0,,,,,,,,,,,,,,,,,,,,,,,,,,,,,,,,,,,,,,,,,,,,,,,,,,,,,,,,,,,,,,,,,,,,,,,,,,,
,,,,,,,,,,stimuli/images/PICTURE_654.png,VALLEY,5c92870723bd7e001870138e,1009,2020-09-12_06h49.43.748,proactive3.2,2020.1.2,Linux x86_64,60,1,,,,,,pencil,,,,,,0,14,14,1,1,1,0,,,,,,,,,,,,,,,,,,,,,,,,,,,,,,,,,,,,,,,,,,,,,,,,,,,,,,,,,,,,,,,,,,,,,,,,,,,
,,,,,,,,,,stimuli/images/PICTURE_692.png,MONTH,5c92870723bd7e001870138e,1009,2020-09-12_06h49.43.748,proactive3.2,2020.1.2,Linux x86_64,60,1,,,,,,cherry,,,,,,0,15,15,16,1,2,0,,,,,,,,,,,,,,,,,,,,,,,,,,,,,,,,,,,,,,,,,,,,,,,,,,,,,,,,,,,,,,,,,,,,,,,,,,,
