consent_key.keys,consent_key.rt,recalled,recalled_rt,recall_acc,example_recall.thisRepN,example_recall.thisTrialN,example_recall.thisN,example_recall.thisIndex,example_recall.ran,file,word,participant,please enter your date of birth (dd/mm/yyyy),date,expName,psychopyVersion,OS,frameRate,STUDY_ID,SESSION_ID,list,prac_learn_study_loop.thisRepN,prac_learn_study_loop.thisTrialN,prac_learn_study_loop.thisN,prac_learn_study_loop.thisIndex,prac_learn_study_loop.ran,image,prac_learn_test_loop.thisRepN,prac_learn_test_loop.thisTrialN,prac_learn_test_loop.thisN,prac_learn_test_loop.thisIndex,prac_learn_test_loop.ran,learn_study_loop.thisRepN,learn_study_loop.thisTrialN,learn_study_loop.thisN,learn_study_loop.thisIndex,learn_study_loop.ran,list_no,block_no,learn_test_loop.thisRepN,learn_test_loop.thisTrialN,learn_test_loop.thisN,learn_test_loop.thisIndex,learn_test_loop.ran,learn_blocks.thisRepN,learn_blocks.thisTrialN,learn_blocks.thisN,learn_blocks.thisIndex,learn_blocks.ran,block_csv,key_resp_13.keys,key_resp_13.rt,learn_blocks_loop.thisRepN,learn_blocks_loop.thisTrialN,learn_blocks_loop.thisN,learn_blocks_loop.thisIndex,learn_blocks_loop.ran,final_learn_test.thisRepN,final_learn_test.thisTrialN,final_learn_test.thisN,final_learn_test.thisIndex,final_learn_test.ran,prac_wm_test_loop.thisRepN,prac_wm_test_loop.thisTrialN,prac_wm_test_loop.thisN,prac_wm_test_loop.thisIndex,prac_wm_test_loop.ran,wm_recalled1,wm_recall_rt1,wm_probed1,wm_recall_acc1,wm_recalled2,wm_recall_rt2,wm_probed2,wm_recall_acc2,wm_recalled3,wm_recall_rt3,wm_probed3,wm_recall_acc3,wm_recalled4,wm_recall_rt4,wm_probed4,wm_recall_acc4,prac_wm_trial_loop.thisRepN,prac_wm_trial_loop.thisTrialN,prac_wm_trial_loop.thisN,prac_wm_trial_loop.thisIndex,prac_wm_trial_loop.ran,word1,image1,file1,item_type1,word2,image2,file2,item_type2,word4,image4,file4,item_type4,word3,image3,file3,item_type3,wm_test_loop.thisRepN,wm_test_loop.thisTrialN,wm_test_loop.thisN,wm_test_loop.thisIndex,wm_test_loop.ran,wm_trial_loop.thisRepN,wm_trial_loop.thisTrialN,wm_trial_loop.thisN,wm_trial_loop.thisIndex,wm_trial_loop.ran
y,6.038,TOUGH,7.012,1,0,0,0,0,1,stimuli/images/PICTURE_747.png,TOUGH,5c93e5293a673a0001869096,05/08/1947,2020-09-12_09h28.08.981,proactive3.2,2020.1.2,Win32,60,5f5adea66120081ea0f57a61,5f5c866e5b1a18478c75c80a,3,,,,,,,,,,,,,,,,,,,,,,,,,,,,,,,,,,,,,,,,,,,,,,,,,,,,,,,,,,,,,,,,,,,,,,,,,,,,,,,,,,,,,,,,,,,,,
,,,,,,,,,,stimuli/images/PICTURE_378.png,LOSS,5c93e5293a673a0001869096,05/08/1947,2020-09-12_09h28.08.981,proactive3.2,2020.1.2,Win32,60,5f5adea66120081ea0f57a61,5f5c866e5b1a18478c75c80a,3,0,0,0,2,1,lobster,,,,,,,,,,,,,,,,,,,,,,,,,,,,,,,,,,,,,,,,,,,,,,,,,,,,,,,,,,,,,,,,,,,,,,,,,,,,,,,,,,,,,,,
,,,,,,,,,,stimuli/images/PICTURE_658.png,DEVIL,5c93e5293a673a0001869096,05/08/1947,2020-09-12_09h28.08.981,proactive3.2,2020.1.2,Win32,60,5f5adea66120081ea0f57a61,5f5c866e5b1a18478c75c80a,3,0,1,1,3,1,crow,,,,,,,,,,,,,,,,,,,,,,,,,,,,,,,,,,,,,,,,,,,,,,,,,,,,,,,,,,,,,,,,,,,,,,,,,,,,,,,,,,,,,,,
,,,,,,,,,,stimuli/images/PICTURE_727.png,CELL,5c93e5293a673a0001869096,05/08/1947,2020-09-12_09h28.08.981,proactive3.2,2020.1.2,Win32,60,5f5adea66120081ea0f57a61,5f5c866e5b1a18478c75c80a,3,0,2,2,1,1,hose,,,,,,,,,,,,,,,,,,,,,,,,,,,,,,,,,,,,,,,,,,,,,,,,,,,,,,,,,,,,,,,,,,,,,,,,,,,,,,,,,,,,,,,
,,,,,,,,,,stimuli/images/PICTURE_269.png,GENIUS,5c93e5293a673a0001869096,05/08/1947,2020-09-12_09h28.08.981,proactive3.2,2020.1.2,Win32,60,5f5adea66120081ea0f57a61,5f5c866e5b1a18478c75c80a,3,0,3,3,0,1,chameleon,,,,,,,,,,,,,,,,,,,,,,,,,,,,,,,,,,,,,,,,,,,,,,,,,,,,,,,,,,,,,,,,,,,,,,,,,,,,,,,,,,,,,,,
,,GENUIS,4.987,0,,,,,,stimuli/images/PICTURE_269.png,GENIUS,5c93e5293a673a0001869096,05/08/1947,2020-09-12_09h28.08.981,proactive3.2,2020.1.2,Win32,60,5f5adea66120081ea0f57a61,5f5c866e5b1a18478c75c80a,3,,,,,,chameleon,0,0,0,0,1,,,,,,,,,,,,,,,,,,,,,,,,,,,,,,,,,,,,,,,,,,,,,,,,,,,,,,,,,,,,,,,,,,,,,,,,,,,,,,,,,,
,,CELL,3.678,1,,,,,,stimuli/images/PICTURE_727.png,CELL,5c93e5293a673a0001869096,05/08/1947,2020-09-12_09h28.08.981,proactive3.2,2020.1.2,Win32,60,5f5adea66120081ea0f57a61,5f5c866e5b1a18478c75c80a,3,,,,,,hose,0,1,1,1,1,,,,,,,,,,,,,,,,,,,,,,,,,,,,,,,,,,,,,,,,,,,,,,,,,,,,,,,,,,,,,,,,,,,,,,,,,,,,,,,,,,
,,DEVIL,4.626,1,,,,,,stimuli/images/PICTURE_658.png,DEVIL,5c93e5293a673a0001869096,05/08/1947,2020-09-12_09h28.08.981,proactive3.2,2020.1.2,Win32,60,5f5adea66120081ea0f57a61,5f5c866e5b1a18478c75c80a,3,,,,,,crow,0,2,2,3,1,,,,,,,,,,,,,,,,,,,,,,,,,,,,,,,,,,,,,,,,,,,,,,,,,,,,,,,,,,,,,,,,,,,,,,,,,,,,,,,,,,
,,LOSS,2.612,0,,,,,,stimuli/images/PICTURE_697.png,KILLER,5c93e5293a673a0001869096,05/08/1947,2020-09-12_09h28.08.981,proactive3.2,2020.1.2,Win32,60,5f5adea66120081ea0f57a61,5f5c866e5b1a18478c75c80a,3,,,,,,peach,0,3,3,4,1,,,,,,,,,,,,,,,,,,,,,,,,,,,,,,,,,,,,,,,,,,,,,,,,,,,,,,,,,,,,,,,,,,,,,,,,,,,,,,,,,,
,,DEVIL,3.468,0,,,,,,stimuli/images/PICTURE_378.png,LOSS,5c93e5293a673a0001869096,05/08/1947,2020-09-12_09h28.08.981,proactive3.2,2020.1.2,Win32,60,5f5adea66120081ea0f57a61,5f5c866e5b1a18478c75c80a,3,,,,,,lobster,0,4,4,2,1,,,,,,,,,,,,,,,,,,,,,,,,,,,,,,,,,,,,,,,,,,,,,,,,,,,,,,,,,,,,,,,,,,,,,,,,,,,,,,,,,,
,,,,,,,,,,stimuli/images/PICTURE_33.png,FRIEND,5c93e5293a673a0001869096,05/08/1947,2020-09-12_09h28.08.981,proactive3.2,2020.1.2,Win32,60,5f5adea66120081ea0f57a61,5f5c866e5b1a18478c75c80a,3,,,,,,frame,,,,,,0,0,0,8,1,1,1,,,,,,,,,,,,,,,,,,,,,,,,,,,,,,,,,,,,,,,,,,,,,,,,,,,,,,,,,,,,,,,,,,,,,,,,,,,
,,,,,,,,,,stimuli/images/PICTURE_32.png,KIND,5c93e5293a673a0001869096,05/08/1947,2020-09-12_09h28.08.981,proactive3.2,2020.1.2,Win32,60,5f5adea66120081ea0f57a61,5f5c866e5b1a18478c75c80a,3,,,,,,crown,,,,,,0,1,1,35,1,4,1,,,,,,,,,,,,,,,,,,,,,,,,,,,,,,,,,,,,,,,,,,,,,,,,,,,,,,,,,,,,,,,,,,,,,,,,,,,
,,,,,,,,,,stimuli/images/PICTURE_297.png,RIVER,5c93e5293a673a0001869096,05/08/1947,2020-09-12_09h28.08.981,proactive3.2,2020.1.2,Win32,60,5f5adea66120081ea0f57a61,5f5c866e5b1a18478c75c80a,3,,,,,,aeroplane,,,,,,0,2,2,39,1,4,1,,,,,,,,,,,,,,,,,,,,,,,,,,,,,,,,,,,,,,,,,,,,,,,,,,,,,,,,,,,,,,,,,,,,,,,,,,,
,,,,,,,,,,stimuli/images/PICTURE_383.png,WRITER,5c93e5293a673a0001869096,05/08/1947,2020-09-12_09h28.08.981,proactive3.2,2020.1.2,Win32,60,5f5adea66120081ea0f57a61,5f5c866e5b1a18478c75c80a,3,,,,,,coin,,,,,,0,3,3,28,1,3,1,,,,,,,,,,,,,,,,,,,,,,,,,,,,,,,,,,,,,,,,,,,,,,,,,,,,,,,,,,,,,,,,,,,,,,,,,,,
,,,,,,,,,,stimuli/images/PICTURE_85.png,TOILET,5c93e5293a673a0001869096,05/08/1947,2020-09-12_09h28.08.981,proactive3.2,2020.1.2,Win32,60,5f5adea66120081ea0f57a61,5f5c866e5b1a18478c75c80a,3,,,,,,diamond,,,,,,0,4,4,48,1,5,1,,,,,,,,,,,,,,,,,,,,,,,,,,,,,,,,,,,,,,,,,,,,,,,,,,,,,,,,,,,,,,,,,,,,,,,,,,,
,,,,,,,,,,stimuli/images/PICTURE_32.png,PILLS,5c93e5293a673a0001869096,05/08/1947,2020-09-12_09h28.08.981,proactive3.2,2020.1.2,Win32,60,5f5adea66120081ea0f57a61,5f5c866e5b1a18478c75c80a,3,,,,,,crown,,,,,,0,5,5,18,1,2,1,,,,,,,,,,,,,,,,,,,,,,,,,,,,,,,,,,,,,,,,,,,,,,,,,,,,,,,,,,,,,,,,,,,,,,,,,,,
,,,,,,,,,,stimuli/images/PICTURE_95.png,MILLER,5c93e5293a673a0001869096,05/08/1947,2020-09-12_09h28.08.981,proactive3.2,2020.1.2,Win32,60,5f5adea66120081ea0f57a61,5f5c866e5b1a18478c75c80a,3,,,,,,suitcase,,,,,,0,6,6,56,1,6,1,,,,,,,,,,,,,,,,,,,,,,,,,,,,,,,,,,,,,,,,,,,,,,,,,,,,,,,,,,,,,,,,,,,,,,,,,,,
,,,,,,,,,,stimuli/images/PICTURE_108.png,POLICY,5c93e5293a673a0001869096,05/08/1947,2020-09-12_09h28.08.981,proactive3.2,2020.1.2,Win32,60,5f5adea66120081ea0f57a61,5f5c866e5b1a18478c75c80a,3,,,,,,calendar,,,,,,0,7,7,22,1,3,1,,,,,,,,,,,,,,,,,,,,,,,,,,,,,,,,,,,,,,,,,,,,,,,,,,,,,,,,,,,,,,,,,,,,,,,,,,,
,,,,,,,,,,stimuli/images/PICTURE_405.png,YEAR,5c93e5293a673a0001869096,05/08/1947,2020-09-12_09h28.08.981,proactive3.2,2020.1.2,Win32,60,5f5adea66120081ea0f57a61,5f5c866e5b1a18478c75c80a,3,,,,,,anchor,,,,,,0,8,8,34,1,4,1,,,,,,,,,,,,,,,,,,,,,,,,,,,,,,,,,,,,,,,,,,,,,,,,,,,,,,,,,,,,,,,,,,,,,,,,,,,
,,,,,,,,,,stimuli/images/PICTURE_85.png,NATION,5c93e5293a673a0001869096,05/08/1947,2020-09-12_09h28.08.981,proactive3.2,2020.1.2,Win32,60,5f5adea66120081ea0f57a61,5f5c866e5b1a18478c75c80a,3,,,,,,diamond,,,,,,0,9,9,5,1,1,1,,,,,,,,,,,,,,,,,,,,,,,,,,,,,,,,,,,,,,,,,,,,,,,,,,,,,,,,,,,,,,,,,,,,,,,,,,,
,,,,,,,,,,stimuli/images/PICTURE_504.png,YEAR,5c93e5293a673a0001869096,05/08/1947,2020-09-12_09h28.08.981,proactive3.2,2020.1.2,Win32,60,5f5adea66120081ea0f57a61,5f5c866e5b1a18478c75c80a,3,,,,,,wheel,,,,,,0,10,10,13,1,2,1,,,,,,,,,,,,,,,,,,,,,,,,,,,,,,,,,,,,,,,,,,,,,,,,,,,,,,,,,,,,,,,,,,,,,,,,,,,
,,,,,,,,,,stimuli/images/PICTURE_655.png,TOILET,5c93e5293a673a0001869096,05/08/1947,2020-09-12_09h28.08.981,proactive3.2,2020.1.2,Win32,60,5f5adea66120081ea0f57a61,5f5c866e5b1a18478c75c80a,3,,,,,,megaphone,,,,,,0,11,11,12,1,2,1,,,,,,,,,,,,,,,,,,,,,,,,,,,,,,,,,,,,,,,,,,,,,,,,,,,,,,,,,,,,,,,,,,,,,,,,,,,
,,,,,,,,,,stimuli/images/PICTURE_177.png,WRITER,5c93e5293a673a0001869096,05/08/1947,2020-09-12_09h28.08.981,proactive3.2,2020.1.2,Win32,60,5f5adea66120081ea0f57a61,5f5c866e5b1a18478c75c80a,3,,,,,,mushroom,,,,,,0,12,12,41,1,5,1,,,,,,,,,,,,,,,,,,,,,,,,,,,,,,,,,,,,,,,,,,,,,,,,,,,,,,,,,,,,,,,,,,,,,,,,,,,
,,,,,,,,,,stimuli/images/PICTURE_667.png,RIVER,5c93e5293a673a0001869096,05/08/1947,2020-09-12_09h28.08.981,proactive3.2,2020.1.2,Win32,60,5f5adea66120081ea0f57a61,5f5c866e5b1a18478c75c80a,3,,,,,,daisy,,,,,,0,13,13,10,1,2,1,,,,,,,,,,,,,,,,,,,,,,,,,,,,,,,,,,,,,,,,,,,,,,,,,,,,,,,,,,,,,,,,,,,,,,,,,,,
,,,,,,,,,,stimuli/images/PICTURE_147.png,YEAR,5c93e5293a673a0001869096,05/08/1947,2020-09-12_09h28.08.981,proactive3.2,2020.1.2,Win32,60,5f5adea66120081ea0f57a61,5f5c866e5b1a18478c75c80a,3,,,,,,hanger,,,,,,0,14,14,21,1,3,1,,,,,,,,,,,,,,,,,,,,,,,,,,,,,,,,,,,,,,,,,,,,,,,,,,,,,,,,,,,,,,,,,,,,,,,,,,,
,,,,,,,,,,stimuli/images/PICTURE_68.png,MILE,5c93e5293a673a0001869096,05/08/1947,2020-09-12_09h28.08.981,proactive3.2,2020.1.2,Win32,60,5f5adea66120081ea0f57a61,5f5c866e5b1a18478c75c80a,3,,,,,,candle,,,,,,0,15,15,51,1,6,1,,,,,,,,,,,,,,,,,,,,,,,,,,,,,,,,,,,,,,,,,,,,,,,,,,,,,,,,,,,,,,,,,,,,,,,,,,,
,,,,,,,,,,stimuli/images/PICTURE_2.png,FLIGHT,5c93e5293a673a0001869096,05/08/1947,2020-09-12_09h28.08.981,proactive3.2,2020.1.2,Win32,60,5f5adea66120081ea0f57a61,5f5c866e5b1a18478c75c80a,3,,,,,,tyre,,,,,,0,16,16,15,1,2,1,,,,,,,,,,,,,,,,,,,,,,,,,,,,,,,,,,,,,,,,,,,,,,,,,,,,,,,,,,,,,,,,,,,,,,,,,,,
,,,,,,,,,,stimuli/images/PICTURE_405.png,PLENTY,5c93e5293a673a0001869096,05/08/1947,2020-09-12_09h28.08.981,proactive3.2,2020.1.2,Win32,60,5f5adea66120081ea0f57a61,5f5c866e5b1a18478c75c80a,3,,,,,,anchor,,,,,,0,17,17,23,1,3,1,,,,,,,,,,,,,,,,,,,,,,,,,,,,,,,,,,,,,,,,,,,,,,,,,,,,,,,,,,,,,,,,,,,,,,,,,,,
,,,,,,,,,,stimuli/images/PICTURE_677.png,APPLE,5c93e5293a673a0001869096,05/08/1947,2020-09-12_09h28.08.981,proactive3.2,2020.1.2,Win32,60,5f5adea66120081ea0f57a61,5f5c866e5b1a18478c75c80a,3,,,,,,map,,,,,,0,18,18,43,1,5,1,,,,,,,,,,,,,,,,,,,,,,,,,,,,,,,,,,,,,,,,,,,,,,,,,,,,,,,,,,,,,,,,,,,,,,,,,,,
,,,,,,,,,,stimuli/images/PICTURE_467.png,POLICY,5c93e5293a673a0001869096,05/08/1947,2020-09-12_09h28.08.981,proactive3.2,2020.1.2,Win32,60,5f5adea66120081ea0f57a61,5f5c866e5b1a18478c75c80a,3,,,,,,peg,,,,,,0,19,19,53,1,6,1,,,,,,,,,,,,,,,,,,,,,,,,,,,,,,,,,,,,,,,,,,,,,,,,,,,,,,,,,,,,,,,,,,,,,,,,,,,
,,,,,,,,,,stimuli/images/PICTURE_491.png,RIVER,5c93e5293a673a0001869096,05/08/1947,2020-09-12_09h28.08.981,proactive3.2,2020.1.2,Win32,60,5f5adea66120081ea0f57a61,5f5c866e5b1a18478c75c80a,3,,,,,,rug,,,,,,0,20,20,6,1,1,1,,,,,,,,,,,,,,,,,,,,,,,,,,,,,,,,,,,,,,,,,,,,,,,,,,,,,,,,,,,,,,,,,,,,,,,,,,,
,,,,,,,,,,stimuli/images/PICTURE_380.png,HONEY,5c93e5293a673a0001869096,05/08/1947,2020-09-12_09h28.08.981,proactive3.2,2020.1.2,Win32,60,5f5adea66120081ea0f57a61,5f5c866e5b1a18478c75c80a,3,,,,,,gorilla,,,,,,0,21,21,19,1,2,1,,,,,,,,,,,,,,,,,,,,,,,,,,,,,,,,,,,,,,,,,,,,,,,,,,,,,,,,,,,,,,,,,,,,,,,,,,,
,,,,,,,,,,stimuli/images/PICTURE_708.png,RECORD,5c93e5293a673a0001869096,05/08/1947,2020-09-12_09h28.08.981,proactive3.2,2020.1.2,Win32,60,5f5adea66120081ea0f57a61,5f5c866e5b1a18478c75c80a,3,,,,,,monkey,,,,,,0,22,22,58,1,6,1,,,,,,,,,,,,,,,,,,,,,,,,,,,,,,,,,,,,,,,,,,,,,,,,,,,,,,,,,,,,,,,,,,,,,,,,,,,
,,,,,,,,,,stimuli/images/PICTURE_296.png,LIFE,5c93e5293a673a0001869096,05/08/1947,2020-09-12_09h28.08.981,proactive3.2,2020.1.2,Win32,60,5f5adea66120081ea0f57a61,5f5c866e5b1a18478c75c80a,3,,,,,,bolt,,,,,,0,23,23,57,1,6,1,,,,,,,,,,,,,,,,,,,,,,,,,,,,,,,,,,,,,,,,,,,,,,,,,,,,,,,,,,,,,,,,,,,,,,,,,,,
,,,,,,,,,,stimuli/images/PICTURE_296.png,LOTS,5c93e5293a673a0001869096,05/08/1947,2020-09-12_09h28.08.981,proactive3.2,2020.1.2,Win32,60,5f5adea66120081ea0f57a61,5f5c866e5b1a18478c75c80a,3,,,,,,bolt,,,,,,0,24,24,9,1,1,1,,,,,,,,,,,,,,,,,,,,,,,,,,,,,,,,,,,,,,,,,,,,,,,,,,,,,,,,,,,,,,,,,,,,,,,,,,,
,,,,,,,,,,stimuli/images/PICTURE_487.png,GIRL,5c93e5293a673a0001869096,05/08/1947,2020-09-12_09h28.08.981,proactive3.2,2020.1.2,Win32,60,5f5adea66120081ea0f57a61,5f5c866e5b1a18478c75c80a,3,,,,,,basket,,,,,,0,25,25,45,1,5,1,,,,,,,,,,,,,,,,,,,,,,,,,,,,,,,,,,,,,,,,,,,,,,,,,,,,,,,,,,,,,,,,,,,,,,,,,,,
,,,,,,,,,,stimuli/images/PICTURE_233.png,LOTS,5c93e5293a673a0001869096,05/08/1947,2020-09-12_09h28.08.981,proactive3.2,2020.1.2,Win32,60,5f5adea66120081ea0f57a61,5f5c866e5b1a18478c75c80a,3,,,,,,salt,,,,,,0,26,26,42,1,5,1,,,,,,,,,,,,,,,,,,,,,,,,,,,,,,,,,,,,,,,,,,,,,,,,,,,,,,,,,,,,,,,,,,,,,,,,,,,
,,,,,,,,,,stimuli/images/PICTURE_744.png,WEAPON,5c93e5293a673a0001869096,05/08/1947,2020-09-12_09h28.08.981,proactive3.2,2020.1.2,Win32,60,5f5adea66120081ea0f57a61,5f5c866e5b1a18478c75c80a,3,,,,,,ring,,,,,,0,27,27,50,1,6,1,,,,,,,,,,,,,,,,,,,,,,,,,,,,,,,,,,,,,,,,,,,,,,,,,,,,,,,,,,,,,,,,,,,,,,,,,,,
,,,,,,,,,,stimuli/images/PICTURE_564.png,BATH,5c93e5293a673a0001869096,05/08/1947,2020-09-12_09h28.08.981,proactive3.2,2020.1.2,Win32,60,5f5adea66120081ea0f57a61,5f5c866e5b1a18478c75c80a,3,,,,,,spoon,,,,,,0,28,28,26,1,3,1,,,,,,,,,,,,,,,,,,,,,,,,,,,,,,,,,,,,,,,,,,,,,,,,,,,,,,,,,,,,,,,,,,,,,,,,,,,
,,,,,,,,,,stimuli/images/PICTURE_208.png,SYSTEM,5c93e5293a673a0001869096,05/08/1947,2020-09-12_09h28.08.981,proactive3.2,2020.1.2,Win32,60,5f5adea66120081ea0f57a61,5f5c866e5b1a18478c75c80a,3,,,,,,microphone,,,,,,0,29,29,32,1,4,1,,,,,,,,,,,,,,,,,,,,,,,,,,,,,,,,,,,,,,,,,,,,,,,,,,,,,,,,,,,,,,,,,,,,,,,,,,,
,,,,,,,,,,stimuli/images/PICTURE_403.png,RIVER,5c93e5293a673a0001869096,05/08/1947,2020-09-12_09h28.08.981,proactive3.2,2020.1.2,Win32,60,5f5adea66120081ea0f57a61,5f5c866e5b1a18478c75c80a,3,,,,,,cathedral,,,,,,0,30,30,40,1,5,1,,,,,,,,,,,,,,,,,,,,,,,,,,,,,,,,,,,,,,,,,,,,,,,,,,,,,,,,,,,,,,,,,,,,,,,,,,,
,,,,,,,,,,stimuli/images/PICTURE_340.png,VALLEY,5c93e5293a673a0001869096,05/08/1947,2020-09-12_09h28.08.981,proactive3.2,2020.1.2,Win32,60,5f5adea66120081ea0f57a61,5f5c866e5b1a18478c75c80a,3,,,,,,mirror,,,,,,0,31,31,54,1,6,1,,,,,,,,,,,,,,,,,,,,,,,,,,,,,,,,,,,,,,,,,,,,,,,,,,,,,,,,,,,,,,,,,,,,,,,,,,,
,,,,,,,,,,stimuli/images/PICTURE_339.png,CLIENT,5c93e5293a673a0001869096,05/08/1947,2020-09-12_09h28.08.981,proactive3.2,2020.1.2,Win32,60,5f5adea66120081ea0f57a61,5f5c866e5b1a18478c75c80a,3,,,,,,backpack,,,,,,0,32,32,11,1,2,1,,,,,,,,,,,,,,,,,,,,,,,,,,,,,,,,,,,,,,,,,,,,,,,,,,,,,,,,,,,,,,,,,,,,,,,,,,,
,,,,,,,,,,stimuli/images/PICTURE_504.png,ARTIST,5c93e5293a673a0001869096,05/08/1947,2020-09-12_09h28.08.981,proactive3.2,2020.1.2,Win32,60,5f5adea66120081ea0f57a61,5f5c866e5b1a18478c75c80a,3,,,,,,wheel,,,,,,0,33,33,49,1,5,1,,,,,,,,,,,,,,,,,,,,,,,,,,,,,,,,,,,,,,,,,,,,,,,,,,,,,,,,,,,,,,,,,,,,,,,,,,,
,,,,,,,,,,stimuli/images/PICTURE_327.png,SERIES,5c93e5293a673a0001869096,05/08/1947,2020-09-12_09h28.08.981,proactive3.2,2020.1.2,Win32,60,5f5adea66120081ea0f57a61,5f5c866e5b1a18478c75c80a,3,,,,,,helmet,,,,,,0,34,34,3,1,1,1,,,,,,,,,,,,,,,,,,,,,,,,,,,,,,,,,,,,,,,,,,,,,,,,,,,,,,,,,,,,,,,,,,,,,,,,,,,
,,,,,,,,,,stimuli/images/PICTURE_340.png,LETTER,5c93e5293a673a0001869096,05/08/1947,2020-09-12_09h28.08.981,proactive3.2,2020.1.2,Win32,60,5f5adea66120081ea0f57a61,5f5c866e5b1a18478c75c80a,3,,,,,,mirror,,,,,,0,35,35,24,1,3,1,,,,,,,,,,,,,,,,,,,,,,,,,,,,,,,,,,,,,,,,,,,,,,,,,,,,,,,,,,,,,,,,,,,,,,,,,,,
,,,,,,,,,,stimuli/images/PICTURE_147.png,WOMEN,5c93e5293a673a0001869096,05/08/1947,2020-09-12_09h28.08.981,proactive3.2,2020.1.2,Win32,60,5f5adea66120081ea0f57a61,5f5c866e5b1a18478c75c80a,3,,,,,,hanger,,,,,,0,36,36,7,1,1,1,,,,,,,,,,,,,,,,,,,,,,,,,,,,,,,,,,,,,,,,,,,,,,,,,,,,,,,,,,,,,,,,,,,,,,,,,,,
,,,,,,,,,,stimuli/images/PICTURE_403.png,WRITER,5c93e5293a673a0001869096,05/08/1947,2020-09-12_09h28.08.981,proactive3.2,2020.1.2,Win32,60,5f5adea66120081ea0f57a61,5f5c866e5b1a18478c75c80a,3,,,,,,cathedral,,,,,,0,37,37,31,1,4,1,,,,,,,,,,,,,,,,,,,,,,,,,,,,,,,,,,,,,,,,,,,,,,,,,,,,,,,,,,,,,,,,,,,,,,,,,,,
,,,,,,,,,,stimuli/images/PICTURE_449.png,DUDE,5c93e5293a673a0001869096,05/08/1947,2020-09-12_09h28.08.981,proactive3.2,2020.1.2,Win32,60,5f5adea66120081ea0f57a61,5f5c866e5b1a18478c75c80a,3,,,,,,bench,,,,,,0,38,38,17,1,2,1,,,,,,,,,,,,,,,,,,,,,,,,,,,,,,,,,,,,,,,,,,,,,,,,,,,,,,,,,,,,,,,,,,,,,,,,,,,
,,,,,,,,,,stimuli/images/PICTURE_504.png,COPS,5c93e5293a673a0001869096,05/08/1947,2020-09-12_09h28.08.981,proactive3.2,2020.1.2,Win32,60,5f5adea66120081ea0f57a61,5f5c866e5b1a18478c75c80a,3,,,,,,wheel,,,,,,0,39,39,52,1,6,1,,,,,,,,,,,,,,,,,,,,,,,,,,,,,,,,,,,,,,,,,,,,,,,,,,,,,,,,,,,,,,,,,,,,,,,,,,,
,,,,,,,,,,stimuli/images/PICTURE_95.png,HONEY,5c93e5293a673a0001869096,05/08/1947,2020-09-12_09h28.08.981,proactive3.2,2020.1.2,Win32,60,5f5adea66120081ea0f57a61,5f5c866e5b1a18478c75c80a,3,,,,,,suitcase,,,,,,0,40,40,44,1,5,1,,,,,,,,,,,,,,,,,,,,,,,,,,,,,,,,,,,,,,,,,,,,,,,,,,,,,,,,,,,,,,,,,,,,,,,,,,,
,,,,,,,,,,stimuli/images/PICTURE_57.png,MOMENT,5c93e5293a673a0001869096,05/08/1947,2020-09-12_09h28.08.981,proactive3.2,2020.1.2,Win32,60,5f5adea66120081ea0f57a61,5f5c866e5b1a18478c75c80a,3,,,,,,stamp,,,,,,0,41,41,37,1,4,1,,,,,,,,,,,,,,,,,,,,,,,,,,,,,,,,,,,,,,,,,,,,,,,,,,,,,,,,,,,,,,,,,,,,,,,,,,,
,,,,,,,,,,stimuli/images/PICTURE_308.png,FAMILY,5c93e5293a673a0001869096,05/08/1947,2020-09-12_09h28.08.981,proactive3.2,2020.1.2,Win32,60,5f5adea66120081ea0f57a61,5f5c866e5b1a18478c75c80a,3,,,,,,dice,,,,,,0,42,42,36,1,4,1,,,,,,,,,,,,,,,,,,,,,,,,,,,,,,,,,,,,,,,,,,,,,,,,,,,,,,,,,,,,,,,,,,,,,,,,,,,
,,,,,,,,,,stimuli/images/PICTURE_383.png,SERIES,5c93e5293a673a0001869096,05/08/1947,2020-09-12_09h28.08.981,proactive3.2,2020.1.2,Win32,60,5f5adea66120081ea0f57a61,5f5c866e5b1a18478c75c80a,3,,,,,,coin,,,,,,0,43,43,46,1,5,1,,,,,,,,,,,,,,,,,,,,,,,,,,,,,,,,,,,,,,,,,,,,,,,,,,,,,,,,,,,,,,,,,,,,,,,,,,,
,,,,,,,,,,stimuli/images/PICTURE_203.png,NIGHT,5c93e5293a673a0001869096,05/08/1947,2020-09-12_09h28.08.981,proactive3.2,2020.1.2,Win32,60,5f5adea66120081ea0f57a61,5f5c866e5b1a18478c75c80a,3,,,,,,cap,,,,,,0,44,44,2,1,1,1,,,,,,,,,,,,,,,,,,,,,,,,,,,,,,,,,,,,,,,,,,,,,,,,,,,,,,,,,,,,,,,,,,,,,,,,,,,
,,,,,,,,,,stimuli/images/PICTURE_685.png,PENNY,5c93e5293a673a0001869096,05/08/1947,2020-09-12_09h28.08.981,proactive3.2,2020.1.2,Win32,60,5f5adea66120081ea0f57a61,5f5c866e5b1a18478c75c80a,3,,,,,,goose,,,,,,0,45,45,4,1,1,1,,,,,,,,,,,,,,,,,,,,,,,,,,,,,,,,,,,,,,,,,,,,,,,,,,,,,,,,,,,,,,,,,,,,,,,,,,,
,,,,,,,,,,stimuli/images/PICTURE_654.png,MONTH,5c93e5293a673a0001869096,05/08/1947,2020-09-12_09h28.08.981,proactive3.2,2020.1.2,Win32,60,5f5adea66120081ea0f57a61,5f5c866e5b1a18478c75c80a,3,,,,,,pencil,,,,,,0,46,46,29,1,3,1,,,,,,,,,,,,,,,,,,,,,,,,,,,,,,,,,,,,,,,,,,,,,,,,,,,,,,,,,,,,,,,,,,,,,,,,,,,
,,,,,,,,,,stimuli/images/PICTURE_108.png,FLIGHT,5c93e5293a673a0001869096,05/08/1947,2020-09-12_09h28.08.981,proactive3.2,2020.1.2,Win32,60,5f5adea66120081ea0f57a61,5f5c866e5b1a18478c75c80a,3,,,,,,calendar,,,,,,0,47,47,59,1,6,1,,,,,,,,,,,,,,,,,,,,,,,,,,,,,,,,,,,,,,,,,,,,,,,,,,,,,,,,,,,,,,,,,,,,,,,,,,,
,,,,,,,,,,stimuli/images/PICTURE_491.png,GLASS,5c93e5293a673a0001869096,05/08/1947,2020-09-12_09h28.08.981,proactive3.2,2020.1.2,Win32,60,5f5adea66120081ea0f57a61,5f5c866e5b1a18478c75c80a,3,,,,,,rug,,,,,,0,48,48,14,1,2,1,,,,,,,,,,,,,,,,,,,,,,,,,,,,,,,,,,,,,,,,,,,,,,,,,,,,,,,,,,,,,,,,,,,,,,,,,,,
,,,,,,,,,,stimuli/images/PICTURE_327.png,CASINO,5c93e5293a673a0001869096,05/08/1947,2020-09-12_09h28.08.981,proactive3.2,2020.1.2,Win32,60,5f5adea66120081ea0f57a61,5f5c866e5b1a18478c75c80a,3,,,,,,helmet,,,,,,0,49,49,20,1,3,1,,,,,,,,,,,,,,,,,,,,,,,,,,,,,,,,,,,,,,,,,,,,,,,,,,,,,,,,,,,,,,,,,,,,,,,,,,,
,,,,,,,,,,stimuli/images/PICTURE_95.png,BOYS,5c93e5293a673a0001869096,05/08/1947,2020-09-12_09h28.08.981,proactive3.2,2020.1.2,Win32,60,5f5adea66120081ea0f57a61,5f5c866e5b1a18478c75c80a,3,,,,,,suitcase,,,,,,0,50,50,1,1,1,1,,,,,,,,,,,,,,,,,,,,,,,,,,,,,,,,,,,,,,,,,,,,,,,,,,,,,,,,,,,,,,,,,,,,,,,,,,,
,,,,,,,,,,stimuli/images/PICTURE_469.png,AGENT,5c93e5293a673a0001869096,05/08/1947,2020-09-12_09h28.08.981,proactive3.2,2020.1.2,Win32,60,5f5adea66120081ea0f57a61,5f5c866e5b1a18478c75c80a,3,,,,,,stool,,,,,,0,51,51,16,1,2,1,,,,,,,,,,,,,,,,,,,,,,,,,,,,,,,,,,,,,,,,,,,,,,,,,,,,,,,,,,,,,,,,,,,,,,,,,,,
,,,,,,,,,,stimuli/images/PICTURE_380.png,CANDY,5c93e5293a673a0001869096,05/08/1947,2020-09-12_09h28.08.981,proactive3.2,2020.1.2,Win32,60,5f5adea66120081ea0f57a61,5f5c866e5b1a18478c75c80a,3,,,,,,gorilla,,,,,,0,52,52,0,1,1,1,,,,,,,,,,,,,,,,,,,,,,,,,,,,,,,,,,,,,,,,,,,,,,,,,,,,,,,,,,,,,,,,,,,,,,,,,,,
,,,,,,,,,,stimuli/images/PICTURE_203.png,GODS,5c93e5293a673a0001869096,05/08/1947,2020-09-12_09h28.08.981,proactive3.2,2020.1.2,Win32,60,5f5adea66120081ea0f57a61,5f5c866e5b1a18478c75c80a,3,,,,,,cap,,,,,,0,53,53,30,1,4,1,,,,,,,,,,,,,,,,,,,,,,,,,,,,,,,,,,,,,,,,,,,,,,,,,,,,,,,,,,,,,,,,,,,,,,,,,,,
,,,,,,,,,,stimuli/images/PICTURE_42.png,BOYS,5c93e5293a673a0001869096,05/08/1947,2020-09-12_09h28.08.981,proactive3.2,2020.1.2,Win32,60,5f5adea66120081ea0f57a61,5f5c866e5b1a18478c75c80a,3,,,,,,pear,,,,,,0,54,54,55,1,6,1,,,,,,,,,,,,,,,,,,,,,,,,,,,,,,,,,,,,,,,,,,,,,,,,,,,,,,,,,,,,,,,,,,,,,,,,,,,
,,,,,,,,,,stimuli/images/PICTURE_68.png,ROOF,5c93e5293a673a0001869096,05/08/1947,2020-09-12_09h28.08.981,proactive3.2,2020.1.2,Win32,60,5f5adea66120081ea0f57a61,5f5c866e5b1a18478c75c80a,3,,,,,,candle,,,,,,0,55,55,38,1,4,1,,,,,,,,,,,,,,,,,,,,,,,,,,,,,,,,,,,,,,,,,,,,,,,,,,,,,,,,,,,,,,,,,,,,,,,,,,,
,,,,,,,,,,stimuli/images/PICTURE_750.png,HOTEL,5c93e5293a673a0001869096,05/08/1947,2020-09-12_09h28.08.981,proactive3.2,2020.1.2,Win32,60,5f5adea66120081ea0f57a61,5f5c866e5b1a18478c75c80a,3,,,,,,kettle,,,,,,0,56,56,27,1,3,1,,,,,,,,,,,,,,,,,,,,,,,,,,,,,,,,,,,,,,,,,,,,,,,,,,,,,,,,,,,,,,,,,,,,,,,,,,,
,,,,,,,,,,stimuli/images/PICTURE_285.png,LIFE,5c93e5293a673a0001869096,05/08/1947,2020-09-12_09h28.08.981,proactive3.2,2020.1.2,Win32,60,5f5adea66120081ea0f57a61,5f5c866e5b1a18478c75c80a,3,,,,,,carrot,,,,,,0,57,57,33,1,4,1,,,,,,,,,,,,,,,,,,,,,,,,,,,,,,,,,,,,,,,,,,,,,,,,,,,,,,,,,,,,,,,,,,,,,,,,,,,
,,,,,,,,,,stimuli/images/PICTURE_403.png,TOILET,5c93e5293a673a0001869096,05/08/1947,2020-09-12_09h28.08.981,proactive3.2,2020.1.2,Win32,60,5f5adea66120081ea0f57a61,5f5c866e5b1a18478c75c80a,3,,,,,,cathedral,,,,,,0,58,58,25,1,3,1,,,,,,,,,,,,,,,,,,,,,,,,,,,,,,,,,,,,,,,,,,,,,,,,,,,,,,,,,,,,,,,,,,,,,,,,,,,
,,?,0.001,0,,,,,,stimuli/images/PICTURE_33.png,FRIEND,5c93e5293a673a0001869096,05/08/1947,2020-09-12_09h28.08.981,proactive3.2,2020.1.2,Win32,60,5f5adea66120081ea0f57a61,5f5c866e5b1a18478c75c80a,3,,,,,,frame,,,,,,,,,,,1,1,0,0,0,8,1,,,,,,,,,,,,,,,,,,,,,,,,,,,,,,,,,,,,,,,,,,,,,,,,,,,,,,,,,,,,,,,,,,,,,,
,,?,0.001,0,,,,,,stimuli/images/PICTURE_68.png,MILE,5c93e5293a673a0001869096,05/08/1947,2020-09-12_09h28.08.981,proactive3.2,2020.1.2,Win32,60,5f5adea66120081ea0f57a61,5f5c866e5b1a18478c75c80a,3,,,,,,candle,,,,,,,,,,,6,1,0,1,1,51,1,,,,,,,,,,,,,,,,,,,,,,,,,,,,,,,,,,,,,,,,,,,,,,,,,,,,,,,,,,,,,,,,,,,,,,
,,?,0.002,0,,,,,,stimuli/images/PICTURE_147.png,WOMEN,5c93e5293a673a0001869096,05/08/1947,2020-09-12_09h28.08.981,proactive3.2,2020.1.2,Win32,60,5f5adea66120081ea0f57a61,5f5c866e5b1a18478c75c80a,3,,,,,,hanger,,,,,,,,,,,1,1,0,2,2,7,1,,,,,,,,,,,,,,,,,,,,,,,,,,,,,,,,,,,,,,,,,,,,,,,,,,,,,,,,,,,,,,,,,,,,,,
,,POLICY,14.096,0,,,,,,stimuli/images/PICTURE_405.png,PLENTY,5c93e5293a673a0001869096,05/08/1947,2020-09-12_09h28.08.981,proactive3.2,2020.1.2,Win32,60,5f5adea66120081ea0f57a61,5f5c866e5b1a18478c75c80a,3,,,,,,anchor,,,,,,,,,,,3,1,0,3,3,23,1,,,,,,,,,,,,,,,,,,,,,,,,,,,,,,,,,,,,,,,,,,,,,,,,,,,,,,,,,,,,,,,,,,,,,,
,,?,0.003,0,,,,,,stimuli/images/PICTURE_308.png,FAMILY,5c93e5293a673a0001869096,05/08/1947,2020-09-12_09h28.08.981,proactive3.2,2020.1.2,Win32,60,5f5adea66120081ea0f57a61,5f5c866e5b1a18478c75c80a,3,,,,,,dice,,,,,,,,,,,4,1,0,4,4,36,1,,,,,,,,,,,,,,,,,,,,,,,,,,,,,,,,,,,,,,,,,,,,,,,,,,,,,,,,,,,,,,,,,,,,,,
,,?,0.001,0,,,,,,stimuli/images/PICTURE_296.png,LIFE,5c93e5293a673a0001869096,05/08/1947,2020-09-12_09h28.08.981,proactive3.2,2020.1.2,Win32,60,5f5adea66120081ea0f57a61,5f5c866e5b1a18478c75c80a,3,,,,,,bolt,,,,,,,,,,,6,1,0,5,5,57,1,,,,,,,,,,,,,,,,,,,,,,,,,,,,,,,,,,,,,,,,,,,,,,,,,,,,,,,,,,,,,,,,,,,,,,
,,?,0.001,0,,,,,,stimuli/images/PICTURE_177.png,WRITER,5c93e5293a673a0001869096,05/08/1947,2020-09-12_09h28.08.981,proactive3.2,2020.1.2,Win32,60,5f5adea66120081ea0f57a61,5f5c866e5b1a18478c75c80a,3,,,,,,mushroom,,,,,,,,,,,5,1,0,6,6,41,1,,,,,,,,,,,,,,,,,,,,,,,,,,,,,,,,,,,,,,,,,,,,,,,,,,,,,,,,,,,,,,,,,,,,,,
,,BATH,4.299,1,,,,,,stimuli/images/PICTURE_564.png,BATH,5c93e5293a673a0001869096,05/08/1947,2020-09-12_09h28.08.981,proactive3.2,2020.1.2,Win32,60,5f5adea66120081ea0f57a61,5f5c866e5b1a18478c75c80a,3,,,,,,spoon,,,,,,,,,,,3,1,0,7,7,26,1,,,,,,,,,,,,,,,,,,,,,,,,,,,,,,,,,,,,,,,,,,,,,,,,,,,,,,,,,,,,,,,,,,,,,,
,,?,0.002,0,,,,,,stimuli/images/PICTURE_383.png,SERIES,5c93e5293a673a0001869096,05/08/1947,2020-09-12_09h28.08.981,proactive3.2,2020.1.2,Win32,60,5f5adea66120081ea0f57a61,5f5c866e5b1a18478c75c80a,3,,,,,,coin,,,,,,,,,,,5,1,0,8,8,46,1,,,,,,,,,,,,,,,,,,,,,,,,,,,,,,,,,,,,,,,,,,,,,,,,,,,,,,,,,,,,,,,,,,,,,,
,,?,0.002,0,,,,,,stimuli/images/PICTURE_85.png,TOILET,5c93e5293a673a0001869096,05/08/1947,2020-09-12_09h28.08.981,proactive3.2,2020.1.2,Win32,60,5f5adea66120081ea0f57a61,5f5c866e5b1a18478c75c80a,3,,,,,,diamond,,,,,,,,,,,5,1,0,9,9,48,1,,,,,,,,,,,,,,,,,,,,,,,,,,,,,,,,,,,,,,,,,,,,,,,,,,,,,,,,,,,,,,,,,,,,,,
,,?,0,0,,,,,,stimuli/images/PICTURE_380.png,HONEY,5c93e5293a673a0001869096,05/08/1947,2020-09-12_09h28.08.981,proactive3.2,2020.1.2,Win32,60,5f5adea66120081ea0f57a61,5f5c866e5b1a18478c75c80a,3,,,,,,gorilla,,,,,,,,,,,2,1,0,10,10,19,1,,,,,,,,,,,,,,,,,,,,,,,,,,,,,,,,,,,,,,,,,,,,,,,,,,,,,,,,,,,,,,,,,,,,,,
,,?,0.001,0,,,,,,stimuli/images/PICTURE_405.png,YEAR,5c93e5293a673a0001869096,05/08/1947,2020-09-12_09h28.08.981,proactive3.2,2020.1.2,Win32,60,5f5adea66120081ea0f57a61,5f5c866e5b1a18478c75c80a,3,,,,,,anchor,,,,,,,,,,,4,1,0,11,11,34,1,,,,,,,,,,,,,,,,,,,,,,,,,,,,,,,,,,,,,,,,,,,,,,,,,,,,,,,,,,,,,,,,,,,,,,
,,HOTEL,6.543,1,,,,,,stimuli/images/PICTURE_750.png,HOTEL,5c93e5293a673a0001869096,05/08/1947,2020-09-12_09h28.08.981,proactive3.2,2020.1.2,Win32,60,5f5adea66120081ea0f57a61,5f5c866e5b1a18478c75c80a,3,,,,,,kettle,,,,,,,,,,,3,1,0,12,12,27,1,,,,,,,,,,,,,,,,,,,,,,,,,,,,,,,,,,,,,,,,,,,,,,,,,,,,,,,,,,,,,,,,,,,,,,
,,?,0.003,0,,,,,,stimuli/images/PICTURE_327.png,SERIES,5c93e5293a673a0001869096,05/08/1947,2020-09-12_09h28.08.981,proactive3.2,2020.1.2,Win32,60,5f5adea66120081ea0f57a61,5f5c866e5b1a18478c75c80a,3,,,,,,helmet,,,,,,,,,,,1,1,0,13,13,3,1,,,,,,,,,,,,,,,,,,,,,,,,,,,,,,,,,,,,,,,,,,,,,,,,,,,,,,,,,,,,,,,,,,,,,,
,,?,0.001,0,,,,,,stimuli/images/PICTURE_296.png,LOTS,5c93e5293a673a0001869096,05/08/1947,2020-09-12_09h28.08.981,proactive3.2,2020.1.2,Win32,60,5f5adea66120081ea0f57a61,5f5c866e5b1a18478c75c80a,3,,,,,,bolt,,,,,,,,,,,1,1,0,14,14,9,1,,,,,,,,,,,,,,,,,,,,,,,,,,,,,,,,,,,,,,,,,,,,,,,,,,,,,,,,,,,,,,,,,,,,,,
,,?,0.001,0,,,,,,stimuli/images/PICTURE_42.png,BOYS,5c93e5293a673a0001869096,05/08/1947,2020-09-12_09h28.08.981,proactive3.2,2020.1.2,Win32,60,5f5adea66120081ea0f57a61,5f5c866e5b1a18478c75c80a,3,,,,,,pear,,,,,,,,,,,6,1,0,15,15,55,1,,,,,,,,,,,,,,,,,,,,,,,,,,,,,,,,,,,,,,,,,,,,,,,,,,,,,,,,,,,,,,,,,,,,,,
,,POLICY,10.292,1,,,,,,stimuli/images/PICTURE_108.png,POLICY,5c93e5293a673a0001869096,05/08/1947,2020-09-12_09h28.08.981,proactive3.2,2020.1.2,Win32,60,5f5adea66120081ea0f57a61,5f5c866e5b1a18478c75c80a,3,,,,,,calendar,,,,,,,,,,,3,1,0,16,16,22,1,,,,,,,,,,,,,,,,,,,,,,,,,,,,,,,,,,,,,,,,,,,,,,,,,,,,,,,,,,,,,,,,,,,,,,
,,?,0.002,0,,,,,,stimuli/images/PICTURE_467.png,POLICY,5c93e5293a673a0001869096,05/08/1947,2020-09-12_09h28.08.981,proactive3.2,2020.1.2,Win32,60,5f5adea66120081ea0f57a61,5f5c866e5b1a18478c75c80a,3,,,,,,peg,,,,,,,,,,,6,1,0,17,17,53,1,,,,,,,,,,,,,,,,,,,,,,,,,,,,,,,,,,,,,,,,,,,,,,,,,,,,,,,,,,,,,,,,,,,,,,
,,?,0.002,0,,,,,,stimuli/images/PICTURE_203.png,GODS,5c93e5293a673a0001869096,05/08/1947,2020-09-12_09h28.08.981,proactive3.2,2020.1.2,Win32,60,5f5adea66120081ea0f57a61,5f5c866e5b1a18478c75c80a,3,,,,,,cap,,,,,,,,,,,4,1,0,18,18,30,1,,,,,,,,,,,,,,,,,,,,,,,,,,,,,,,,,,,,,,,,,,,,,,,,,,,,,,,,,,,,,,,,,,,,,,
,,?,0.001,0,,,,,,stimuli/images/PICTURE_667.png,RIVER,5c93e5293a673a0001869096,05/08/1947,2020-09-12_09h28.08.981,proactive3.2,2020.1.2,Win32,60,5f5adea66120081ea0f57a61,5f5c866e5b1a18478c75c80a,3,,,,,,daisy,,,,,,,,,,,2,1,0,19,19,10,1,,,,,,,,,,,,,,,,,,,,,,,,,,,,,,,,,,,,,,,,,,,,,,,,,,,,,,,,,,,,,,,,,,,,,,
,,WRITER,6.497,1,,,,,,stimuli/images/PICTURE_383.png,WRITER,5c93e5293a673a0001869096,05/08/1947,2020-09-12_09h28.08.981,proactive3.2,2020.1.2,Win32,60,5f5adea66120081ea0f57a61,5f5c866e5b1a18478c75c80a,3,,,,,,coin,,,,,,,,,,,3,1,0,20,20,28,1,,,,,,,,,,,,,,,,,,,,,,,,,,,,,,,,,,,,,,,,,,,,,,,,,,,,,,,,,,,,,,,,,,,,,,
,,LETTER,5.31,1,,,,,,stimuli/images/PICTURE_340.png,LETTER,5c93e5293a673a0001869096,05/08/1947,2020-09-12_09h28.08.981,proactive3.2,2020.1.2,Win32,60,5f5adea66120081ea0f57a61,5f5c866e5b1a18478c75c80a,3,,,,,,mirror,,,,,,,,,,,3,1,0,21,21,24,1,,,,,,,,,,,,,,,,,,,,,,,,,,,,,,,,,,,,,,,,,,,,,,,,,,,,,,,,,,,,,,,,,,,,,,
,,?,0.002,0,,,,,,stimuli/images/PICTURE_744.png,WEAPON,5c93e5293a673a0001869096,05/08/1947,2020-09-12_09h28.08.981,proactive3.2,2020.1.2,Win32,60,5f5adea66120081ea0f57a61,5f5c866e5b1a18478c75c80a,3,,,,,,ring,,,,,,,,,,,6,1,0,22,22,50,1,,,,,,,,,,,,,,,,,,,,,,,,,,,,,,,,,,,,,,,,,,,,,,,,,,,,,,,,,,,,,,,,,,,,,,
,,?,0.001,0,,,,,,stimuli/images/PICTURE_340.png,VALLEY,5c93e5293a673a0001869096,05/08/1947,2020-09-12_09h28.08.981,proactive3.2,2020.1.2,Win32,60,5f5adea66120081ea0f57a61,5f5c866e5b1a18478c75c80a,3,,,,,,mirror,,,,,,,,,,,6,1,0,23,23,54,1,,,,,,,,,,,,,,,,,,,,,,,,,,,,,,,,,,,,,,,,,,,,,,,,,,,,,,,,,,,,,,,,,,,,,,
,,?,0.002,0,,,,,,stimuli/images/PICTURE_655.png,TOILET,5c93e5293a673a0001869096,05/08/1947,2020-09-12_09h28.08.981,proactive3.2,2020.1.2,Win32,60,5f5adea66120081ea0f57a61,5f5c866e5b1a18478c75c80a,3,,,,,,megaphone,,,,,,,,,,,2,1,0,24,24,12,1,,,,,,,,,,,,,,,,,,,,,,,,,,,,,,,,,,,,,,,,,,,,,,,,,,,,,,,,,,,,,,,,,,,,,,
,,?,0.001,0,,,,,,stimuli/images/PICTURE_504.png,YEAR,5c93e5293a673a0001869096,05/08/1947,2020-09-12_09h28.08.981,proactive3.2,2020.1.2,Win32,60,5f5adea66120081ea0f57a61,5f5c866e5b1a18478c75c80a,3,,,,,,wheel,,,,,,,,,,,2,1,0,25,25,13,1,,,,,,,,,,,,,,,,,,,,,,,,,,,,,,,,,,,,,,,,,,,,,,,,,,,,,,,,,,,,,,,,,,,,,,
,,?,0.001,0,,,,,,stimuli/images/PICTURE_57.png,MOMENT,5c93e5293a673a0001869096,05/08/1947,2020-09-12_09h28.08.981,proactive3.2,2020.1.2,Win32,60,5f5adea66120081ea0f57a61,5f5c866e5b1a18478c75c80a,3,,,,,,stamp,,,,,,,,,,,4,1,0,26,26,37,1,,,,,,,,,,,,,,,,,,,,,,,,,,,,,,,,,,,,,,,,,,,,,,,,,,,,,,,,,,,,,,,,,,,,,,
,,?,0.002,0,,,,,,stimuli/images/PICTURE_233.png,LOTS,5c93e5293a673a0001869096,05/08/1947,2020-09-12_09h28.08.981,proactive3.2,2020.1.2,Win32,60,5f5adea66120081ea0f57a61,5f5c866e5b1a18478c75c80a,3,,,,,,salt,,,,,,,,,,,5,1,0,27,27,42,1,,,,,,,,,,,,,,,,,,,,,,,,,,,,,,,,,,,,,,,,,,,,,,,,,,,,,,,,,,,,,,,,,,,,,,
,,?,0.002,0,,,,,,stimuli/images/PICTURE_95.png,BOYS,5c93e5293a673a0001869096,05/08/1947,2020-09-12_09h28.08.981,proactive3.2,2020.1.2,Win32,60,5f5adea66120081ea0f57a61,5f5c866e5b1a18478c75c80a,3,,,,,,suitcase,,,,,,,,,,,1,1,0,28,28,1,1,,,,,,,,,,,,,,,,,,,,,,,,,,,,,,,,,,,,,,,,,,,,,,,,,,,,,,,,,,,,,,,,,,,,,,
,,?,0.002,0,,,,,,stimuli/images/PICTURE_285.png,LIFE,5c93e5293a673a0001869096,05/08/1947,2020-09-12_09h28.08.981,proactive3.2,2020.1.2,Win32,60,5f5adea66120081ea0f57a61,5f5c866e5b1a18478c75c80a,3,,,,,,carrot,,,,,,,,,,,4,1,0,29,29,33,1,,,,,,,,,,,,,,,,,,,,,,,,,,,,,,,,,,,,,,,,,,,,,,,,,,,,,,,,,,,,,,,,,,,,,,
,,?,0.002,0,,,,,,stimuli/images/PICTURE_85.png,NATION,5c93e5293a673a0001869096,05/08/1947,2020-09-12_09h28.08.981,proactive3.2,2020.1.2,Win32,60,5f5adea66120081ea0f57a61,5f5c866e5b1a18478c75c80a,3,,,,,,diamond,,,,,,,,,,,1,1,0,30,30,5,1,,,,,,,,,,,,,,,,,,,,,,,,,,,,,,,,,,,,,,,,,,,,,,,,,,,,,,,,,,,,,,,,,,,,,,
,,?,0.001,0,,,,,,stimuli/images/PICTURE_68.png,ROOF,5c93e5293a673a0001869096,05/08/1947,2020-09-12_09h28.08.981,proactive3.2,2020.1.2,Win32,60,5f5adea66120081ea0f57a61,5f5c866e5b1a18478c75c80a,3,,,,,,candle,,,,,,,,,,,4,1,0,31,31,38,1,,,,,,,,,,,,,,,,,,,,,,,,,,,,,,,,,,,,,,,,,,,,,,,,,,,,,,,,,,,,,,,,,,,,,,
,,?,0.002,0,,,,,,stimuli/images/PICTURE_491.png,GLASS,5c93e5293a673a0001869096,05/08/1947,2020-09-12_09h28.08.981,proactive3.2,2020.1.2,Win32,60,5f5adea66120081ea0f57a61,5f5c866e5b1a18478c75c80a,3,,,,,,rug,,,,,,,,,,,2,1,0,32,32,14,1,,,,,,,,,,,,,,,,,,,,,,,,,,,,,,,,,,,,,,,,,,,,,,,,,,,,,,,,,,,,,,,,,,,,,,
,,?,0.001,0,,,,,,stimuli/images/PICTURE_708.png,RECORD,5c93e5293a673a0001869096,05/08/1947,2020-09-12_09h28.08.981,proactive3.2,2020.1.2,Win32,60,5f5adea66120081ea0f57a61,5f5c866e5b1a18478c75c80a,3,,,,,,monkey,,,,,,,,,,,6,1,0,33,33,58,1,,,,,,,,,,,,,,,,,,,,,,,,,,,,,,,,,,,,,,,,,,,,,,,,,,,,,,,,,,,,,,,,,,,,,,
,,?,0,0,,,,,,stimuli/images/PICTURE_108.png,FLIGHT,5c93e5293a673a0001869096,05/08/1947,2020-09-12_09h28.08.981,proactive3.2,2020.1.2,Win32,60,5f5adea66120081ea0f57a61,5f5c866e5b1a18478c75c80a,3,,,,,,calendar,,,,,,,,,,,6,1,0,34,34,59,1,,,,,,,,,,,,,,,,,,,,,,,,,,,,,,,,,,,,,,,,,,,,,,,,,,,,,,,,,,,,,,,,,,,,,,
,,?,0.001,0,,,,,,stimuli/images/PICTURE_95.png,HONEY,5c93e5293a673a0001869096,05/08/1947,2020-09-12_09h28.08.981,proactive3.2,2020.1.2,Win32,60,5f5adea66120081ea0f57a61,5f5c866e5b1a18478c75c80a,3,,,,,,suitcase,,,,,,,,,,,5,1,0,35,35,44,1,,,,,,,,,,,,,,,,,,,,,,,,,,,,,,,,,,,,,,,,,,,,,,,,,,,,,,,,,,,,,,,,,,,,,,
,,?,0.001,0,,,,,,stimuli/images/PICTURE_449.png,DUDE,5c93e5293a673a0001869096,05/08/1947,2020-09-12_09h28.08.981,proactive3.2,2020.1.2,Win32,60,5f5adea66120081ea0f57a61,5f5c866e5b1a18478c75c80a,3,,,,,,bench,,,,,,,,,,,2,1,0,36,36,17,1,,,,,,,,,,,,,,,,,,,,,,,,,,,,,,,,,,,,,,,,,,,,,,,,,,,,,,,,,,,,,,,,,,,,,,
,,YEAR,7.124,1,,,,,,stimuli/images/PICTURE_147.png,YEAR,5c93e5293a673a0001869096,05/08/1947,2020-09-12_09h28.08.981,proactive3.2,2020.1.2,Win32,60,5f5adea66120081ea0f57a61,5f5c866e5b1a18478c75c80a,3,,,,,,hanger,,,,,,,,,,,3,1,0,37,37,21,1,,,,,,,,,,,,,,,,,,,,,,,,,,,,,,,,,,,,,,,,,,,,,,,,,,,,,,,,,,,,,,,,,,,,,,
,,?,0.003,0,,,,,,stimuli/images/PICTURE_203.png,NIGHT,5c93e5293a673a0001869096,05/08/1947,2020-09-12_09h28.08.981,proactive3.2,2020.1.2,Win32,60,5f5adea66120081ea0f57a61,5f5c866e5b1a18478c75c80a,3,,,,,,cap,,,,,,,,,,,1,1,0,38,38,2,1,,,,,,,,,,,,,,,,,,,,,,,,,,,,,,,,,,,,,,,,,,,,,,,,,,,,,,,,,,,,,,,,,,,,,,
,,?,0.001,0,,,,,,stimuli/images/PICTURE_339.png,CLIENT,5c93e5293a673a0001869096,05/08/1947,2020-09-12_09h28.08.981,proactive3.2,2020.1.2,Win32,60,5f5adea66120081ea0f57a61,5f5c866e5b1a18478c75c80a,3,,,,,,backpack,,,,,,,,,,,2,1,0,39,39,11,1,,,,,,,,,,,,,,,,,,,,,,,,,,,,,,,,,,,,,,,,,,,,,,,,,,,,,,,,,,,,,,,,,,,,,,
,,?,0.001,0,,,,,,stimuli/images/PICTURE_380.png,CANDY,5c93e5293a673a0001869096,05/08/1947,2020-09-12_09h28.08.981,proactive3.2,2020.1.2,Win32,60,5f5adea66120081ea0f57a61,5f5c866e5b1a18478c75c80a,3,,,,,,gorilla,,,,,,,,,,,1,1,0,40,40,0,1,,,,,,,,,,,,,,,,,,,,,,,,,,,,,,,,,,,,,,,,,,,,,,,,,,,,,,,,,,,,,,,,,,,,,,
,,TOILET,6.213,1,,,,,,stimuli/images/PICTURE_403.png,TOILET,5c93e5293a673a0001869096,05/08/1947,2020-09-12_09h28.08.981,proactive3.2,2020.1.2,Win32,60,5f5adea66120081ea0f57a61,5f5c866e5b1a18478c75c80a,3,,,,,,cathedral,,,,,,,,,,,3,1,0,41,41,25,1,,,,,,,,,,,,,,,,,,,,,,,,,,,,,,,,,,,,,,,,,,,,,,,,,,,,,,,,,,,,,,,,,,,,,,
,,?,0.004,0,,,,,,stimuli/images/PICTURE_32.png,KIND,5c93e5293a673a0001869096,05/08/1947,2020-09-12_09h28.08.981,proactive3.2,2020.1.2,Win32,60,5f5adea66120081ea0f57a61,5f5c866e5b1a18478c75c80a,3,,,,,,crown,,,,,,,,,,,4,1,0,42,42,35,1,,,,,,,,,,,,,,,,,,,,,,,,,,,,,,,,,,,,,,,,,,,,,,,,,,,,,,,,,,,,,,,,,,,,,,
,,?,0.001,0,,,,,,stimuli/images/PICTURE_675.png,SALE,5c93e5293a673a0001869096,05/08/1947,2020-09-12_09h28.08.981,proactive3.2,2020.1.2,Win32,60,5f5adea66120081ea0f57a61,5f5c866e5b1a18478c75c80a,3,,,,,,windmill,,,,,,,,,,,5,1,0,43,43,47,1,,,,,,,,,,,,,,,,,,,,,,,,,,,,,,,,,,,,,,,,,,,,,,,,,,,,,,,,,,,,,,,,,,,,,,
,,?,0.003,0,,,,,,stimuli/images/PICTURE_403.png,RIVER,5c93e5293a673a0001869096,05/08/1947,2020-09-12_09h28.08.981,proactive3.2,2020.1.2,Win32,60,5f5adea66120081ea0f57a61,5f5c866e5b1a18478c75c80a,3,,,,,,cathedral,,,,,,,,,,,5,1,0,44,44,40,1,,,,,,,,,,,,,,,,,,,,,,,,,,,,,,,,,,,,,,,,,,,,,,,,,,,,,,,,,,,,,,,,,,,,,,
,,?,0.001,0,,,,,,stimuli/images/PICTURE_504.png,COPS,5c93e5293a673a0001869096,05/08/1947,2020-09-12_09h28.08.981,proactive3.2,2020.1.2,Win32,60,5f5adea66120081ea0f57a61,5f5c866e5b1a18478c75c80a,3,,,,,,wheel,,,,,,,,,,,6,1,0,45,45,52,1,,,,,,,,,,,,,,,,,,,,,,,,,,,,,,,,,,,,,,,,,,,,,,,,,,,,,,,,,,,,,,,,,,,,,,
,,?,0.001,0,,,,,,stimuli/images/PICTURE_504.png,ARTIST,5c93e5293a673a0001869096,05/08/1947,2020-09-12_09h28.08.981,proactive3.2,2020.1.2,Win32,60,5f5adea66120081ea0f57a61,5f5c866e5b1a18478c75c80a,3,,,,,,wheel,,,,,,,,,,,5,1,0,46,46,49,1,,,,,,,,,,,,,,,,,,,,,,,,,,,,,,,,,,,,,,,,,,,,,,,,,,,,,,,,,,,,,,,,,,,,,,
,,?,0.001,0,,,,,,stimuli/images/PICTURE_95.png,MILLER,5c93e5293a673a0001869096,05/08/1947,2020-09-12_09h28.08.981,proactive3.2,2020.1.2,Win32,60,5f5adea66120081ea0f57a61,5f5c866e5b1a18478c75c80a,3,,,,,,suitcase,,,,,,,,,,,6,1,0,47,47,56,1,,,,,,,,,,,,,,,,,,,,,,,,,,,,,,,,,,,,,,,,,,,,,,,,,,,,,,,,,,,,,,,,,,,,,,
,,MONTH,5.387,1,,,,,,stimuli/images/PICTURE_654.png,MONTH,5c93e5293a673a0001869096,05/08/1947,2020-09-12_09h28.08.981,proactive3.2,2020.1.2,Win32,60,5f5adea66120081ea0f57a61,5f5c866e5b1a18478c75c80a,3,,,,,,pencil,,,,,,,,,,,3,1,0,48,48,29,1,,,,,,,,,,,,,,,,,,,,,,,,,,,,,,,,,,,,,,,,,,,,,,,,,,,,,,,,,,,,,,,,,,,,,,
,,?,0.004,0,,,,,,stimuli/images/PICTURE_403.png,WRITER,5c93e5293a673a0001869096,05/08/1947,2020-09-12_09h28.08.981,proactive3.2,2020.1.2,Win32,60,5f5adea66120081ea0f57a61,5f5c866e5b1a18478c75c80a,3,,,,,,cathedral,,,,,,,,,,,4,1,0,49,49,31,1,,,,,,,,,,,,,,,,,,,,,,,,,,,,,,,,,,,,,,,,,,,,,,,,,,,,,,,,,,,,,,,,,,,,,,
,,?,0.001,0,,,,,,stimuli/images/PICTURE_487.png,GIRL,5c93e5293a673a0001869096,05/08/1947,2020-09-12_09h28.08.981,proactive3.2,2020.1.2,Win32,60,5f5adea66120081ea0f57a61,5f5c866e5b1a18478c75c80a,3,,,,,,basket,,,,,,,,,,,5,1,0,50,50,45,1,,,,,,,,,,,,,,,,,,,,,,,,,,,,,,,,,,,,,,,,,,,,,,,,,,,,,,,,,,,,,,,,,,,,,,
,,?,0.002,0,,,,,,stimuli/images/PICTURE_32.png,PILLS,5c93e5293a673a0001869096,05/08/1947,2020-09-12_09h28.08.981,proactive3.2,2020.1.2,Win32,60,5f5adea66120081ea0f57a61,5f5c866e5b1a18478c75c80a,3,,,,,,crown,,,,,,,,,,,2,1,0,51,51,18,1,,,,,,,,,,,,,,,,,,,,,,,,,,,,,,,,,,,,,,,,,,,,,,,,,,,,,,,,,,,,,,,,,,,,,,
,,?,0.001,0,,,,,,stimuli/images/PICTURE_685.png,PENNY,5c93e5293a673a0001869096,05/08/1947,2020-09-12_09h28.08.981,proactive3.2,2020.1.2,Win32,60,5f5adea66120081ea0f57a61,5f5c866e5b1a18478c75c80a,3,,,,,,goose,,,,,,,,,,,1,1,0,52,52,4,1,,,,,,,,,,,,,,,,,,,,,,,,,,,,,,,,,,,,,,,,,,,,,,,,,,,,,,,,,,,,,,,,,,,,,,
,,?,0.002,0,,,,,,stimuli/images/PICTURE_491.png,RIVER,5c93e5293a673a0001869096,05/08/1947,2020-09-12_09h28.08.981,proactive3.2,2020.1.2,Win32,60,5f5adea66120081ea0f57a61,5f5c866e5b1a18478c75c80a,3,,,,,,rug,,,,,,,,,,,1,1,0,53,53,6,1,,,,,,,,,,,,,,,,,,,,,,,,,,,,,,,,,,,,,,,,,,,,,,,,,,,,,,,,,,,,,,,,,,,,,,
,,?,0.002,0,,,,,,stimuli/images/PICTURE_469.png,AGENT,5c93e5293a673a0001869096,05/08/1947,2020-09-12_09h28.08.981,proactive3.2,2020.1.2,Win32,60,5f5adea66120081ea0f57a61,5f5c866e5b1a18478c75c80a,3,,,,,,stool,,,,,,,,,,,2,1,0,54,54,16,1,,,,,,,,,,,,,,,,,,,,,,,,,,,,,,,,,,,,,,,,,,,,,,,,,,,,,,,,,,,,,,,,,,,,,,
,,CASINO,6.087,1,,,,,,stimuli/images/PICTURE_327.png,CASINO,5c93e5293a673a0001869096,05/08/1947,2020-09-12_09h28.08.981,proactive3.2,2020.1.2,Win32,60,5f5adea66120081ea0f57a61,5f5c866e5b1a18478c75c80a,3,,,,,,helmet,,,,,,,,,,,3,1,0,55,55,20,1,,,,,,,,,,,,,,,,,,,,,,,,,,,,,,,,,,,,,,,,,,,,,,,,,,,,,,,,,,,,,,,,,,,,,,
,,?,0.004,0,,,,,,stimuli/images/PICTURE_297.png,RIVER,5c93e5293a673a0001869096,05/08/1947,2020-09-12_09h28.08.981,proactive3.2,2020.1.2,Win32,60,5f5adea66120081ea0f57a61,5f5c866e5b1a18478c75c80a,3,,,,,,aeroplane,,,,,,,,,,,4,1,0,56,56,39,1,,,,,,,,,,,,,,,,,,,,,,,,,,,,,,,,,,,,,,,,,,,,,,,,,,,,,,,,,,,,,,,,,,,,,,
,,?,0.001,0,,,,,,stimuli/images/PICTURE_208.png,SYSTEM,5c93e5293a673a0001869096,05/08/1947,2020-09-12_09h28.08.981,proactive3.2,2020.1.2,Win32,60,5f5adea66120081ea0f57a61,5f5c866e5b1a18478c75c80a,3,,,,,,microphone,,,,,,,,,,,4,1,0,57,57,32,1,,,,,,,,,,,,,,,,,,,,,,,,,,,,,,,,,,,,,,,,,,,,,,,,,,,,,,,,,,,,,,,,,,,,,,
,,?,0.001,0,,,,,,stimuli/images/PICTURE_677.png,APPLE,5c93e5293a673a0001869096,05/08/1947,2020-09-12_09h28.08.981,proactive3.2,2020.1.2,Win32,60,5f5adea66120081ea0f57a61,5f5c866e5b1a18478c75c80a,3,,,,,,map,,,,,,,,,,,5,1,0,58,58,43,1,,,,,,,,,,,,,,,,,,,,,,,,,,,,,,,,,,,,,,,,,,,,,,,,,,,,,,,,,,,,,,,,,,,,,,
,,?,0,0,,,,,,stimuli/images/PICTURE_2.png,FLIGHT,5c93e5293a673a0001869096,05/08/1947,2020-09-12_09h28.08.981,proactive3.2,2020.1.2,Win32,60,5f5adea66120081ea0f57a61,5f5c866e5b1a18478c75c80a,3,,,,,,tyre,,,,,,,,,,,2,1,0,59,59,15,1,,,,,,,,,,,,,,,,,,,,,,,,,,,,,,,,,,,,,,,,,,,,,,,,,,,,,,,,,,,,,,,,,,,,,,
,,,,,,,,,,,,5c93e5293a673a0001869096,05/08/1947,2020-09-12_09h28.08.981,proactive3.2,2020.1.2,Win32,60,5f5adea66120081ea0f57a61,5f5c866e5b1a18478c75c80a,3,,,,,,,,,,,,,,,,,,,,,,,,0,0,0,1,1,stimuli/learn-block2.csv,,,,,,,,,,,,,,,,,,,,,,,,,,,,,,,,,,,,,,,,,,,,,,,,,,,,,,,,,,,,,,,,
,,,,,,,,,,stimuli/images/PICTURE_248.png,DOZEN,5c93e5293a673a0001869096,05/08/1947,2020-09-12_09h28.08.981,proactive3.2,2020.1.2,Win32,60,5f5adea66120081ea0f57a61,5f5c866e5b1a18478c75c80a,3,,,,,,cart,,,,,,0,0,0,39,1,4,0,,,,,,,,,,,,,,,,,,,,,,,,,,,,,,,,,,,,,,,,,,,,,,,,,,,,,,,,,,,,,,,,,,,,,,,,,,,
,,,,,,,,,,stimuli/images/PICTURE_314.png,GODS,5c93e5293a673a0001869096,05/08/1947,2020-09-12_09h28.08.981,proactive3.2,2020.1.2,Win32,60,5f5adea66120081ea0f57a61,5f5c866e5b1a18478c75c80a,3,,,,,,perfume,,,,,,0,1,1,11,1,2,0,,,,,,,,,,,,,,,,,,,,,,,,,,,,,,,,,,,,,,,,,,,,,,,,,,,,,,,,,,,,,,,,,,,,,,,,,,,
,,,,,,,,,,stimuli/images/PICTURE_302.png,FAMILY,5c93e5293a673a0001869096,05/08/1947,2020-09-12_09h28.08.981,proactive3.2,2020.1.2,Win32,60,5f5adea66120081ea0f57a61,5f5c866e5b1a18478c75c80a,3,,,,,,taxi,,,,,,0,2,2,18,1,2,0,,,,,,,,,,,,,,,,,,,,,,,,,,,,,,,,,,,,,,,,,,,,,,,,,,,,,,,,,,,,,,,,,,,,,,,,,,,
,,,,,,,,,,stimuli/images/PICTURE_95.png,STYLE,5c93e5293a673a0001869096,05/08/1947,2020-09-12_09h28.08.981,proactive3.2,2020.1.2,Win32,60,5f5adea66120081ea0f57a61,5f5c866e5b1a18478c75c80a,3,,,,,,suitcase,,,,,,0,3,3,25,1,3,0,,,,,,,,,,,,,,,,,,,,,,,,,,,,,,,,,,,,,,,,,,,,,,,,,,,,,,,,,,,,,,,,,,,,,,,,,,,
,,,,,,,,,,stimuli/images/PICTURE_32.png,JUNGLE,5c93e5293a673a0001869096,05/08/1947,2020-09-12_09h28.08.981,proactive3.2,2020.1.2,Win32,60,5f5adea66120081ea0f57a61,5f5c866e5b1a18478c75c80a,3,,,,,,crown,,,,,,0,4,4,45,1,5,0,,,,,,,,,,,,,,,,,,,,,,,,,,,,,,,,,,,,,,,,,,,,,,,,,,,,,,,,,,,,,,,,,,,,,,,,,,,
,,,,,,,,,,stimuli/images/PICTURE_692.png,MONTH,5c93e5293a673a0001869096,05/08/1947,2020-09-12_09h28.08.981,proactive3.2,2020.1.2,Win32,60,5f5adea66120081ea0f57a61,5f5c866e5b1a18478c75c80a,3,,,,,,cherry,,,,,,0,5,5,16,1,2,0,,,,,,,,,,,,,,,,,,,,,,,,,,,,,,,,,,,,,,,,,,,,,,,,,,,,,,,,,,,,,,,,,,,,,,,,,,,
,,,,,,,,,,stimuli/images/PICTURE_147.png,MOMENT,5c93e5293a673a0001869096,05/08/1947,2020-09-12_09h28.08.981,proactive3.2,2020.1.2,Win32,60,5f5adea66120081ea0f57a61,5f5c866e5b1a18478c75c80a,3,,,,,,hanger,,,,,,0,6,6,51,1,6,0,,,,,,,,,,,,,,,,,,,,,,,,,,,,,,,,,,,,,,,,,,,,,,,,,,,,,,,,,,,,,,,,,,,,,,,,,,,
,,,,,,,,,,stimuli/images/PICTURE_327.png,BEAUTY,5c93e5293a673a0001869096,05/08/1947,2020-09-12_09h28.08.981,proactive3.2,2020.1.2,Win32,60,5f5adea66120081ea0f57a61,5f5c866e5b1a18478c75c80a,3,,,,,,helmet,,,,,,0,7,7,48,1,5,0,,,,,,,,,,,,,,,,,,,,,,,,,,,,,,,,,,,,,,,,,,,,,,,,,,,,,,,,,,,,,,,,,,,,,,,,,,,
,,,,,,,,,,stimuli/images/PICTURE_123.png,ADVICE,5c93e5293a673a0001869096,05/08/1947,2020-09-12_09h28.08.981,proactive3.2,2020.1.2,Win32,60,5f5adea66120081ea0f57a61,5f5c866e5b1a18478c75c80a,3,,,,,,dart,,,,,,0,8,8,50,1,6,0,,,,,,,,,,,,,,,,,,,,,,,,,,,,,,,,,,,,,,,,,,,,,,,,,,,,,,,,,,,,,,,,,,,,,,,,,,,
,,,,,,,,,,stimuli/images/PICTURE_688.png,CASINO,5c93e5293a673a0001869096,05/08/1947,2020-09-12_09h28.08.981,proactive3.2,2020.1.2,Win32,60,5f5adea66120081ea0f57a61,5f5c866e5b1a18478c75c80a,3,,,,,,runner,,,,,,0,9,9,2,1,1,0,,,,,,,,,,,,,,,,,,,,,,,,,,,,,,,,,,,,,,,,,,,,,,,,,,,,,,,,,,,,,,,,,,,,,,,,,,,
,,,,,,,,,,stimuli/images/PICTURE_708.png,CLIENT,5c93e5293a673a0001869096,05/08/1947,2020-09-12_09h28.08.981,proactive3.2,2020.1.2,Win32,60,5f5adea66120081ea0f57a61,5f5c866e5b1a18478c75c80a,3,,,,,,monkey,,,,,,0,10,10,5,1,1,0,,,,,,,,,,,,,,,,,,,,,,,,,,,,,,,,,,,,,,,,,,,,,,,,,,,,,,,,,,,,,,,,,,,,,,,,,,,
,,,,,,,,,,stimuli/images/PICTURE_233.png,WOMEN,5c93e5293a673a0001869096,05/08/1947,2020-09-12_09h28.08.981,proactive3.2,2020.1.2,Win32,60,5f5adea66120081ea0f57a61,5f5c866e5b1a18478c75c80a,3,,,,,,salt,,,,,,0,11,11,38,1,4,0,,,,,,,,,,,,,,,,,,,,,,,,,,,,,,,,,,,,,,,,,,,,,,,,,,,,,,,,,,,,,,,,,,,,,,,,,,,
,,,,,,,,,,stimuli/images/PICTURE_85.png,THING,5c93e5293a673a0001869096,05/08/1947,2020-09-12_09h28.08.981,proactive3.2,2020.1.2,Win32,60,5f5adea66120081ea0f57a61,5f5c866e5b1a18478c75c80a,3,,,,,,diamond,,,,,,0,12,12,15,1,2,0,,,,,,,,,,,,,,,,,,,,,,,,,,,,,,,,,,,,,,,,,,,,,,,,,,,,,,,,,,,,,,,,,,,,,,,,,,,
,,,,,,,,,,stimuli/images/PICTURE_469.png,ARTIST,5c93e5293a673a0001869096,05/08/1947,2020-09-12_09h28.08.981,proactive3.2,2020.1.2,Win32,60,5f5adea66120081ea0f57a61,5f5c866e5b1a18478c75c80a,3,,,,,,stool,,,,,,0,13,13,6,1,1,0,,,,,,,,,,,,,,,,,,,,,,,,,,,,,,,,,,,,,,,,,,,,,,,,,,,,,,,,,,,,,,,,,,,,,,,,,,,
,,,,,,,,,,stimuli/images/PICTURE_487.png,FLIGHT,5c93e5293a673a0001869096,05/08/1947,2020-09-12_09h28.08.981,proactive3.2,2020.1.2,Win32,60,5f5adea66120081ea0f57a61,5f5c866e5b1a18478c75c80a,3,,,,,,basket,,,,,,0,14,14,9,1,1,0,,,,,,,,,,,,,,,,,,,,,,,,,,,,,,,,,,,,,,,,,,,,,,,,,,,,,,,,,,,,,,,,,,,,,,,,,,,
,,,,,,,,,,stimuli/images/PICTURE_708.png,YARD,5c93e5293a673a0001869096,05/08/1947,2020-09-12_09h28.08.981,proactive3.2,2020.1.2,Win32,60,5f5adea66120081ea0f57a61,5f5c866e5b1a18478c75c80a,3,,,,,,monkey,,,,,,0,15,15,29,1,3,0,,,,,,,,,,,,,,,,,,,,,,,,,,,,,,,,,,,,,,,,,,,,,,,,,,,,,,,,,,,,,,,,,,,,,,,,,,,
,,,,,,,,,,stimuli/images/PICTURE_208.png,MONTH,5c93e5293a673a0001869096,05/08/1947,2020-09-12_09h28.08.981,proactive3.2,2020.1.2,Win32,60,5f5adea66120081ea0f57a61,5f5c866e5b1a18478c75c80a,3,,,,,,microphone,,,,,,0,16,16,53,1,6,0,,,,,,,,,,,,,,,,,,,,,,,,,,,,,,,,,,,,,,,,,,,,,,,,,,,,,,,,,,,,,,,,,,,,,,,,,,,
,,,,,,,,,,stimuli/images/PICTURE_177.png,CARS,5c93e5293a673a0001869096,05/08/1947,2020-09-12_09h28.08.981,proactive3.2,2020.1.2,Win32,60,5f5adea66120081ea0f57a61,5f5c866e5b1a18478c75c80a,3,,,,,,mushroom,,,,,,0,17,17,35,1,4,0,,,,,,,,,,,,,,,,,,,,,,,,,,,,,,,,,,,,,,,,,,,,,,,,,,,,,,,,,,,,,,,,,,,,,,,,,,,
,,,,,,,,,,stimuli/images/PICTURE_285.png,ADVICE,5c93e5293a673a0001869096,05/08/1947,2020-09-12_09h28.08.981,proactive3.2,2020.1.2,Win32,60,5f5adea66120081ea0f57a61,5f5c866e5b1a18478c75c80a,3,,,,,,carrot,,,,,,0,18,18,12,1,2,0,,,,,,,,,,,,,,,,,,,,,,,,,,,,,,,,,,,,,,,,,,,,,,,,,,,,,,,,,,,,,,,,,,,,,,,,,,,
,,,,,,,,,,stimuli/images/PICTURE_677.png,MILE,5c93e5293a673a0001869096,05/08/1947,2020-09-12_09h28.08.981,proactive3.2,2020.1.2,Win32,60,5f5adea66120081ea0f57a61,5f5c866e5b1a18478c75c80a,3,,,,,,map,,,,,,0,19,19,30,1,4,0,,,,,,,,,,,,,,,,,,,,,,,,,,,,,,,,,,,,,,,,,,,,,,,,,,,,,,,,,,,,,,,,,,,,,,,,,,,
,,,,,,,,,,stimuli/images/PICTURE_688.png,WOMEN,5c93e5293a673a0001869096,05/08/1947,2020-09-12_09h28.08.981,proactive3.2,2020.1.2,Win32,60,5f5adea66120081ea0f57a61,5f5c866e5b1a18478c75c80a,3,,,,,,runner,,,,,,0,20,20,14,1,2,0,,,,,,,,,,,,,,,,,,,,,,,,,,,,,,,,,,,,,,,,,,,,,,,,,,,,,,,,,,,,,,,,,,,,,,,,,,,
,,,,,,,,,,stimuli/images/PICTURE_314.png,SAKE,5c93e5293a673a0001869096,05/08/1947,2020-09-12_09h28.08.981,proactive3.2,2020.1.2,Win32,60,5f5adea66120081ea0f57a61,5f5c866e5b1a18478c75c80a,3,,,,,,perfume,,,,,,0,21,21,7,1,1,0,,,,,,,,,,,,,,,,,,,,,,,,,,,,,,,,,,,,,,,,,,,,,,,,,,,,,,,,,,,,,,,,,,,,,,,,,,,
,,,,,,,,,,stimuli/images/PICTURE_308.png,KIND,5c93e5293a673a0001869096,05/08/1947,2020-09-12_09h28.08.981,proactive3.2,2020.1.2,Win32,60,5f5adea66120081ea0f57a61,5f5c866e5b1a18478c75c80a,3,,,,,,dice,,,,,,0,22,22,54,1,6,0,,,,,,,,,,,,,,,,,,,,,,,,,,,,,,,,,,,,,,,,,,,,,,,,,,,,,,,,,,,,,,,,,,,,,,,,,,,
,,,,,,,,,,stimuli/images/PICTURE_654.png,VALLEY,5c93e5293a673a0001869096,05/08/1947,2020-09-12_09h28.08.981,proactive3.2,2020.1.2,Win32,60,5f5adea66120081ea0f57a61,5f5c866e5b1a18478c75c80a,3,,,,,,pencil,,,,,,0,23,23,1,1,1,0,,,,,,,,,,,,,,,,,,,,,,,,,,,,,,,,,,,,,,,,,,,,,,,,,,,,,,,,,,,,,,,,,,,,,,,,,,,
,,,,,,,,,,stimuli/images/PICTURE_488.png,STYLE,5c93e5293a673a0001869096,05/08/1947,2020-09-12_09h28.08.981,proactive3.2,2020.1.2,Win32,60,5f5adea66120081ea0f57a61,5f5c866e5b1a18478c75c80a,3,,,,,,sun,,,,,,0,24,24,33,1,4,0,,,,,,,,,,,,,,,,,,,,,,,,,,,,,,,,,,,,,,,,,,,,,,,,,,,,,,,,,,,,,,,,,,,,,,,,,,,
,,,,,,,,,,stimuli/images/PICTURE_453.png,PLENTY,5c93e5293a673a0001869096,05/08/1947,2020-09-12_09h28.08.981,proactive3.2,2020.1.2,Win32,60,5f5adea66120081ea0f57a61,5f5c866e5b1a18478c75c80a,3,,,,,,scissors,,,,,,0,25,25,56,1,6,0,,,,,,,,,,,,,,,,,,,,,,,,,,,,,,,,,,,,,,,,,,,,,,,,,,,,,,,,,,,,,,,,,,,,,,,,,,,
,,,,,,,,,,stimuli/images/PICTURE_311.png,FRIEND,5c93e5293a673a0001869096,05/08/1947,2020-09-12_09h28.08.981,proactive3.2,2020.1.2,Win32,60,5f5adea66120081ea0f57a61,5f5c866e5b1a18478c75c80a,3,,,,,,razor,,,,,,0,26,26,34,1,4,0,,,,,,,,,,,,,,,,,,,,,,,,,,,,,,,,,,,,,,,,,,,,,,,,,,,,,,,,,,,,,,,,,,,,,,,,,,,
,,,,,,,,,,stimuli/images/PICTURE_667.png,PLENTY,5c93e5293a673a0001869096,05/08/1947,2020-09-12_09h28.08.981,proactive3.2,2020.1.2,Win32,60,5f5adea66120081ea0f57a61,5f5c866e5b1a18478c75c80a,3,,,,,,daisy,,,,,,0,27,27,41,1,5,0,,,,,,,,,,,,,,,,,,,,,,,,,,,,,,,,,,,,,,,,,,,,,,,,,,,,,,,,,,,,,,,,,,,,,,,,,,,
,,,,,,,,,,stimuli/images/PICTURE_453.png,DUDE,5c93e5293a673a0001869096,05/08/1947,2020-09-12_09h28.08.981,proactive3.2,2020.1.2,Win32,60,5f5adea66120081ea0f57a61,5f5c866e5b1a18478c75c80a,3,,,,,,scissors,,,,,,0,28,28,27,1,3,0,,,,,,,,,,,,,,,,,,,,,,,,,,,,,,,,,,,,,,,,,,,,,,,,,,,,,,,,,,,,,,,,,,,,,,,,,,,
,,,,,,,,,,stimuli/images/PICTURE_504.png,BODY,5c93e5293a673a0001869096,05/08/1947,2020-09-12_09h28.08.981,proactive3.2,2020.1.2,Win32,60,5f5adea66120081ea0f57a61,5f5c866e5b1a18478c75c80a,3,,,,,,wheel,,,,,,0,29,29,8,1,1,0,,,,,,,,,,,,,,,,,,,,,,,,,,,,,,,,,,,,,,,,,,,,,,,,,,,,,,,,,,,,,,,,,,,,,,,,,,,
,,,,,,,,,,stimuli/images/PICTURE_339.png,PLENTY,5c93e5293a673a0001869096,05/08/1947,2020-09-12_09h28.08.981,proactive3.2,2020.1.2,Win32,60,5f5adea66120081ea0f57a61,5f5c866e5b1a18478c75c80a,3,,,,,,backpack,,,,,,0,30,30,0,1,1,0,,,,,,,,,,,,,,,,,,,,,,,,,,,,,,,,,,,,,,,,,,,,,,,,,,,,,,,,,,,,,,,,,,,,,,,,,,,
,,,,,,,,,,stimuli/images/PICTURE_744.png,SYSTEM,5c93e5293a673a0001869096,05/08/1947,2020-09-12_09h28.08.981,proactive3.2,2020.1.2,Win32,60,5f5adea66120081ea0f57a61,5f5c866e5b1a18478c75c80a,3,,,,,,ring,,,,,,0,31,31,43,1,5,0,,,,,,,,,,,,,,,,,,,,,,,,,,,,,,,,,,,,,,,,,,,,,,,,,,,,,,,,,,,,,,,,,,,,,,,,,,,
,,,,,,,,,,stimuli/images/PICTURE_308.png,ESTATE,5c93e5293a673a0001869096,05/08/1947,2020-09-12_09h28.08.981,proactive3.2,2020.1.2,Win32,60,5f5adea66120081ea0f57a61,5f5c866e5b1a18478c75c80a,3,,,,,,dice,,,,,,0,32,32,46,1,5,0,,,,,,,,,,,,,,,,,,,,,,,,,,,,,,,,,,,,,,,,,,,,,,,,,,,,,,,,,,,,,,,,,,,,,,,,,,,
,,,,,,,,,,stimuli/images/PICTURE_356.png,DANGER,5c93e5293a673a0001869096,05/08/1947,2020-09-12_09h28.08.981,proactive3.2,2020.1.2,Win32,60,5f5adea66120081ea0f57a61,5f5c866e5b1a18478c75c80a,3,,,,,,pawn,,,,,,0,33,33,55,1,6,0,,,,,,,,,,,,,,,,,,,,,,,,,,,,,,,,,,,,,,,,,,,,,,,,,,,,,,,,,,,,,,,,,,,,,,,,,,,
,,,,,,,,,,stimuli/images/PICTURE_744.png,SAKE,5c93e5293a673a0001869096,05/08/1947,2020-09-12_09h28.08.981,proactive3.2,2020.1.2,Win32,60,5f5adea66120081ea0f57a61,5f5c866e5b1a18478c75c80a,3,,,,,,ring,,,,,,0,34,34,17,1,2,0,,,,,,,,,,,,,,,,,,,,,,,,,,,,,,,,,,,,,,,,,,,,,,,,,,,,,,,,,,,,,,,,,,,,,,,,,,,
,,,,,,,,,,stimuli/images/PICTURE_160.png,FEET,5c93e5293a673a0001869096,05/08/1947,2020-09-12_09h28.08.981,proactive3.2,2020.1.2,Win32,60,5f5adea66120081ea0f57a61,5f5c866e5b1a18478c75c80a,3,,,,,,wheelbarrow,,,,,,0,35,35,58,1,6,0,,,,,,,,,,,,,,,,,,,,,,,,,,,,,,,,,,,,,,,,,,,,,,,,,,,,,,,,,,,,,,,,,,,,,,,,,,,
,,,,,,,,,,stimuli/images/PICTURE_470.png,CASINO,5c93e5293a673a0001869096,05/08/1947,2020-09-12_09h28.08.981,proactive3.2,2020.1.2,Win32,60,5f5adea66120081ea0f57a61,5f5c866e5b1a18478c75c80a,3,,,,,,motorbike,,,,,,0,36,36,36,1,4,0,,,,,,,,,,,,,,,,,,,,,,,,,,,,,,,,,,,,,,,,,,,,,,,,,,,,,,,,,,,,,,,,,,,,,,,,,,,
,,,,,,,,,,stimuli/images/PICTURE_380.png,DEATH,5c93e5293a673a0001869096,05/08/1947,2020-09-12_09h28.08.981,proactive3.2,2020.1.2,Win32,60,5f5adea66120081ea0f57a61,5f5c866e5b1a18478c75c80a,3,,,,,,gorilla,,,,,,0,37,37,49,1,5,0,,,,,,,,,,,,,,,,,,,,,,,,,,,,,,,,,,,,,,,,,,,,,,,,,,,,,,,,,,,,,,,,,,,,,,,,,,,
,,,,,,,,,,stimuli/images/PICTURE_469.png,LETTER,5c93e5293a673a0001869096,05/08/1947,2020-09-12_09h28.08.981,proactive3.2,2020.1.2,Win32,60,5f5adea66120081ea0f57a61,5f5c866e5b1a18478c75c80a,3,,,,,,stool,,,,,,0,38,38,42,1,5,0,,,,,,,,,,,,,,,,,,,,,,,,,,,,,,,,,,,,,,,,,,,,,,,,,,,,,,,,,,,,,,,,,,,,,,,,,,,
,,,,,,,,,,stimuli/images/PICTURE_233.png,IDEAS,5c93e5293a673a0001869096,05/08/1947,2020-09-12_09h28.08.981,proactive3.2,2020.1.2,Win32,60,5f5adea66120081ea0f57a61,5f5c866e5b1a18478c75c80a,3,,,,,,salt,,,,,,0,39,39,28,1,3,0,,,,,,,,,,,,,,,,,,,,,,,,,,,,,,,,,,,,,,,,,,,,,,,,,,,,,,,,,,,,,,,,,,,,,,,,,,,
,,,,,,,,,,stimuli/images/PICTURE_215.png,PLENTY,5c93e5293a673a0001869096,05/08/1947,2020-09-12_09h28.08.981,proactive3.2,2020.1.2,Win32,60,5f5adea66120081ea0f57a61,5f5c866e5b1a18478c75c80a,3,,,,,,boot,,,,,,0,40,40,37,1,4,0,,,,,,,,,,,,,,,,,,,,,,,,,,,,,,,,,,,,,,,,,,,,,,,,,,,,,,,,,,,,,,,,,,,,,,,,,,,
,,,,,,,,,,stimuli/images/PICTURE_208.png,LOTS,5c93e5293a673a0001869096,05/08/1947,2020-09-12_09h28.08.981,proactive3.2,2020.1.2,Win32,60,5f5adea66120081ea0f57a61,5f5c866e5b1a18478c75c80a,3,,,,,,microphone,,,,,,0,41,41,10,1,2,0,,,,,,,,,,,,,,,,,,,,,,,,,,,,,,,,,,,,,,,,,,,,,,,,,,,,,,,,,,,,,,,,,,,,,,,,,,,
,,,,,,,,,,stimuli/images/PICTURE_467.png,DEMON,5c93e5293a673a0001869096,05/08/1947,2020-09-12_09h28.08.981,proactive3.2,2020.1.2,Win32,60,5f5adea66120081ea0f57a61,5f5c866e5b1a18478c75c80a,3,,,,,,peg,,,,,,0,42,42,23,1,3,0,,,,,,,,,,,,,,,,,,,,,,,,,,,,,,,,,,,,,,,,,,,,,,,,,,,,,,,,,,,,,,,,,,,,,,,,,,,
,,,,,,,,,,stimuli/images/PICTURE_667.png,BATH,5c93e5293a673a0001869096,05/08/1947,2020-09-12_09h28.08.981,proactive3.2,2020.1.2,Win32,60,5f5adea66120081ea0f57a61,5f5c866e5b1a18478c75c80a,3,,,,,,daisy,,,,,,0,43,43,4,1,1,0,,,,,,,,,,,,,,,,,,,,,,,,,,,,,,,,,,,,,,,,,,,,,,,,,,,,,,,,,,,,,,,,,,,,,,,,,,,
,,,,,,,,,,stimuli/images/PICTURE_208.png,THING,5c93e5293a673a0001869096,05/08/1947,2020-09-12_09h28.08.981,proactive3.2,2020.1.2,Win32,60,5f5adea66120081ea0f57a61,5f5c866e5b1a18478c75c80a,3,,,,,,microphone,,,,,,0,44,44,47,1,5,0,,,,,,,,,,,,,,,,,,,,,,,,,,,,,,,,,,,,,,,,,,,,,,,,,,,,,,,,,,,,,,,,,,,,,,,,,,,
,,,,,,,,,,stimuli/images/PICTURE_123.png,ADVICE,5c93e5293a673a0001869096,05/08/1947,2020-09-12_09h28.08.981,proactive3.2,2020.1.2,Win32,60,5f5adea66120081ea0f57a61,5f5c866e5b1a18478c75c80a,3,,,,,,dart,,,,,,0,45,45,40,1,5,0,,,,,,,,,,,,,,,,,,,,,,,,,,,,,,,,,,,,,,,,,,,,,,,,,,,,,,,,,,,,,,,,,,,,,,,,,,,
,,,,,,,,,,stimuli/images/PICTURE_491.png,ROOF,5c93e5293a673a0001869096,05/08/1947,2020-09-12_09h28.08.981,proactive3.2,2020.1.2,Win32,60,5f5adea66120081ea0f57a61,5f5c866e5b1a18478c75c80a,3,,,,,,rug,,,,,,0,46,46,24,1,3,0,,,,,,,,,,,,,,,,,,,,,,,,,,,,,,,,,,,,,,,,,,,,,,,,,,,,,,,,,,,,,,,,,,,,,,,,,,,
,,,,,,,,,,stimuli/images/PICTURE_675.png,WEAPON,5c93e5293a673a0001869096,05/08/1947,2020-09-12_09h28.08.981,proactive3.2,2020.1.2,Win32,60,5f5adea66120081ea0f57a61,5f5c866e5b1a18478c75c80a,3,,,,,,windmill,,,,,,0,47,47,32,1,4,0,,,,,,,,,,,,,,,,,,,,,,,,,,,,,,,,,,,,,,,,,,,,,,,,,,,,,,,,,,,,,,,,,,,,,,,,,,,
,,,,,,,,,,stimuli/images/PICTURE_509.png,PHOTO,5c93e5293a673a0001869096,05/08/1947,2020-09-12_09h28.08.981,proactive3.2,2020.1.2,Win32,60,5f5adea66120081ea0f57a61,5f5c866e5b1a18478c75c80a,3,,,,,,telephone,,,,,,0,48,48,21,1,3,0,,,,,,,,,,,,,,,,,,,,,,,,,,,,,,,,,,,,,,,,,,,,,,,,,,,,,,,,,,,,,,,,,,,,,,,,,,,
,,,,,,,,,,stimuli/images/PICTURE_311.png,BEAUTY,5c93e5293a673a0001869096,05/08/1947,2020-09-12_09h28.08.981,proactive3.2,2020.1.2,Win32,60,5f5adea66120081ea0f57a61,5f5c866e5b1a18478c75c80a,3,,,,,,razor,,,,,,0,49,49,13,1,2,0,,,,,,,,,,,,,,,,,,,,,,,,,,,,,,,,,,,,,,,,,,,,,,,,,,,,,,,,,,,,,,,,,,,,,,,,,,,
,,,,,,,,,,stimuli/images/PICTURE_68.png,MILE,5c93e5293a673a0001869096,05/08/1947,2020-09-12_09h28.08.981,proactive3.2,2020.1.2,Win32,60,5f5adea66120081ea0f57a61,5f5c866e5b1a18478c75c80a,3,,,,,,candle,,,,,,0,50,50,44,1,5,0,,,,,,,,,,,,,,,,,,,,,,,,,,,,,,,,,,,,,,,,,,,,,,,,,,,,,,,,,,,,,,,,,,,,,,,,,,,
,,,,,,,,,,stimuli/images/PICTURE_380.png,PHOTO,5c93e5293a673a0001869096,05/08/1947,2020-09-12_09h28.08.981,proactive3.2,2020.1.2,Win32,60,5f5adea66120081ea0f57a61,5f5c866e5b1a18478c75c80a,3,,,,,,gorilla,,,,,,0,51,51,52,1,6,0,,,,,,,,,,,,,,,,,,,,,,,,,,,,,,,,,,,,,,,,,,,,,,,,,,,,,,,,,,,,,,,,,,,,,,,,,,,
,,,,,,,,,,stimuli/images/PICTURE_348.png,SPEECH,5c93e5293a673a0001869096,05/08/1947,2020-09-12_09h28.08.981,proactive3.2,2020.1.2,Win32,60,5f5adea66120081ea0f57a61,5f5c866e5b1a18478c75c80a,3,,,,,,pepper,,,,,,0,52,52,20,1,3,0,,,,,,,,,,,,,,,,,,,,,,,,,,,,,,,,,,,,,,,,,,,,,,,,,,,,,,,,,,,,,,,,,,,,,,,,,,,
,,,,,,,,,,stimuli/images/PICTURE_255.png,AREA,5c93e5293a673a0001869096,05/08/1947,2020-09-12_09h28.08.981,proactive3.2,2020.1.2,Win32,60,5f5adea66120081ea0f57a61,5f5c866e5b1a18478c75c80a,3,,,,,,shovel,,,,,,0,53,53,22,1,3,0,,,,,,,,,,,,,,,,,,,,,,,,,,,,,,,,,,,,,,,,,,,,,,,,,,,,,,,,,,,,,,,,,,,,,,,,,,,
,,,,,,,,,,stimuli/images/PICTURE_491.png,WRITER,5c93e5293a673a0001869096,05/08/1947,2020-09-12_09h28.08.981,proactive3.2,2020.1.2,Win32,60,5f5adea66120081ea0f57a61,5f5c866e5b1a18478c75c80a,3,,,,,,rug,,,,,,0,54,54,57,1,6,0,,,,,,,,,,,,,,,,,,,,,,,,,,,,,,,,,,,,,,,,,,,,,,,,,,,,,,,,,,,,,,,,,,,,,,,,,,,
,,,,,,,,,,stimuli/images/PICTURE_160.png,LEADER,5c93e5293a673a0001869096,05/08/1947,2020-09-12_09h28.08.981,proactive3.2,2020.1.2,Win32,60,5f5adea66120081ea0f57a61,5f5c866e5b1a18478c75c80a,3,,,,,,wheelbarrow,,,,,,0,55,55,3,1,1,0,,,,,,,,,,,,,,,,,,,,,,,,,,,,,,,,,,,,,,,,,,,,,,,,,,,,,,,,,,,,,,,,,,,,,,,,,,,
,,,,,,,,,,stimuli/images/PICTURE_449.png,THING,5c93e5293a673a0001869096,05/08/1947,2020-09-12_09h28.08.981,proactive3.2,2020.1.2,Win32,60,5f5adea66120081ea0f57a61,5f5c866e5b1a18478c75c80a,3,,,,,,bench,,,,,,0,56,56,59,1,6,0,,,,,,,,,,,,,,,,,,,,,,,,,,,,,,,,,,,,,,,,,,,,,,,,,,,,,,,,,,,,,,,,,,,,,,,,,,,
,,,,,,,,,,stimuli/images/PICTURE_203.png,ARTIST,5c93e5293a673a0001869096,05/08/1947,2020-09-12_09h28.08.981,proactive3.2,2020.1.2,Win32,60,5f5adea66120081ea0f57a61,5f5c866e5b1a18478c75c80a,3,,,,,,cap,,,,,,0,57,57,26,1,3,0,,,,,,,,,,,,,,,,,,,,,,,,,,,,,,,,,,,,,,,,,,,,,,,,,,,,,,,,,,,,,,,,,,,,,,,,,,,
,,,,,,,,,,stimuli/images/PICTURE_708.png,PENNY,5c93e5293a673a0001869096,05/08/1947,2020-09-12_09h28.08.981,proactive3.2,2020.1.2,Win32,60,5f5adea66120081ea0f57a61,5f5c866e5b1a18478c75c80a,3,,,,,,monkey,,,,,,0,58,58,31,1,4,0,,,,,,,,,,,,,,,,,,,,,,,,,,,,,,,,,,,,,,,,,,,,,,,,,,,,,,,,,,,,,,,,,,,,,,,,,,,
,,?,0.001,0,,,,,,stimuli/images/PICTURE_215.png,PLENTY,5c93e5293a673a0001869096,05/08/1947,2020-09-12_09h28.08.981,proactive3.2,2020.1.2,Win32,60,5f5adea66120081ea0f57a61,5f5c866e5b1a18478c75c80a,3,,,,,,boot,,,,,,,,,,,4,0,0,0,0,37,1,,,,,,,,,,,,,,,,,,,,,,,,,,,,,,,,,,,,,,,,,,,,,,,,,,,,,,,,,,,,,,,,,,,,,,
,,?,0.001,0,,,,,,stimuli/images/PICTURE_688.png,CASINO,5c93e5293a673a0001869096,05/08/1947,2020-09-12_09h28.08.981,proactive3.2,2020.1.2,Win32,60,5f5adea66120081ea0f57a61,5f5c866e5b1a18478c75c80a,3,,,,,,runner,,,,,,,,,,,1,0,0,1,1,2,1,,,,,,,,,,,,,,,,,,,,,,,,,,,,,,,,,,,,,,,,,,,,,,,,,,,,,,,,,,,,,,,,,,,,,,
,,?,0.001,0,,,,,,stimuli/images/PICTURE_233.png,WOMEN,5c93e5293a673a0001869096,05/08/1947,2020-09-12_09h28.08.981,proactive3.2,2020.1.2,Win32,60,5f5adea66120081ea0f57a61,5f5c866e5b1a18478c75c80a,3,,,,,,salt,,,,,,,,,,,4,0,0,2,2,38,1,,,,,,,,,,,,,,,,,,,,,,,,,,,,,,,,,,,,,,,,,,,,,,,,,,,,,,,,,,,,,,,,,,,,,,
,,?,0.002,0,,,,,,stimuli/images/PICTURE_208.png,MONTH,5c93e5293a673a0001869096,05/08/1947,2020-09-12_09h28.08.981,proactive3.2,2020.1.2,Win32,60,5f5adea66120081ea0f57a61,5f5c866e5b1a18478c75c80a,3,,,,,,microphone,,,,,,,,,,,6,0,0,3,3,53,1,,,,,,,,,,,,,,,,,,,,,,,,,,,,,,,,,,,,,,,,,,,,,,,,,,,,,,,,,,,,,,,,,,,,,,
,,?,0.001,0,,,,,,stimuli/images/PICTURE_504.png,BODY,5c93e5293a673a0001869096,05/08/1947,2020-09-12_09h28.08.981,proactive3.2,2020.1.2,Win32,60,5f5adea66120081ea0f57a61,5f5c866e5b1a18478c75c80a,3,,,,,,wheel,,,,,,,,,,,1,0,0,4,4,8,1,,,,,,,,,,,,,,,,,,,,,,,,,,,,,,,,,,,,,,,,,,,,,,,,,,,,,,,,,,,,,,,,,,,,,,
,,?,0,0,,,,,,stimuli/images/PICTURE_667.png,PLENTY,5c93e5293a673a0001869096,05/08/1947,2020-09-12_09h28.08.981,proactive3.2,2020.1.2,Win32,60,5f5adea66120081ea0f57a61,5f5c866e5b1a18478c75c80a,3,,,,,,daisy,,,,,,,,,,,5,0,0,5,5,41,1,,,,,,,,,,,,,,,,,,,,,,,,,,,,,,,,,,,,,,,,,,,,,,,,,,,,,,,,,,,,,,,,,,,,,,
,,?,0.002,0,,,,,,stimuli/images/PICTURE_123.png,ADVICE,5c93e5293a673a0001869096,05/08/1947,2020-09-12_09h28.08.981,proactive3.2,2020.1.2,Win32,60,5f5adea66120081ea0f57a61,5f5c866e5b1a18478c75c80a,3,,,,,,dart,,,,,,,,,,,5,0,0,6,6,40,1,,,,,,,,,,,,,,,,,,,,,,,,,,,,,,,,,,,,,,,,,,,,,,,,,,,,,,,,,,,,,,,,,,,,,,
,,?,0.001,0,,,,,,stimuli/images/PICTURE_487.png,FLIGHT,5c93e5293a673a0001869096,05/08/1947,2020-09-12_09h28.08.981,proactive3.2,2020.1.2,Win32,60,5f5adea66120081ea0f57a61,5f5c866e5b1a18478c75c80a,3,,,,,,basket,,,,,,,,,,,1,0,0,7,7,9,1,,,,,,,,,,,,,,,,,,,,,,,,,,,,,,,,,,,,,,,,,,,,,,,,,,,,,,,,,,,,,,,,,,,,,,
,,IDEAS,4.59,1,,,,,,stimuli/images/PICTURE_233.png,IDEAS,5c93e5293a673a0001869096,05/08/1947,2020-09-12_09h28.08.981,proactive3.2,2020.1.2,Win32,60,5f5adea66120081ea0f57a61,5f5c866e5b1a18478c75c80a,3,,,,,,salt,,,,,,,,,,,3,0,0,8,8,28,1,,,,,,,,,,,,,,,,,,,,,,,,,,,,,,,,,,,,,,,,,,,,,,,,,,,,,,,,,,,,,,,,,,,,,,
,,?,0.003,0,,,,,,stimuli/images/PICTURE_308.png,KIND,5c93e5293a673a0001869096,05/08/1947,2020-09-12_09h28.08.981,proactive3.2,2020.1.2,Win32,60,5f5adea66120081ea0f57a61,5f5c866e5b1a18478c75c80a,3,,,,,,dice,,,,,,,,,,,6,0,0,9,9,54,1,,,,,,,,,,,,,,,,,,,,,,,,,,,,,,,,,,,,,,,,,,,,,,,,,,,,,,,,,,,,,,,,,,,,,,
,,FRUIT,6.853,0,,,,,,stimuli/images/PICTURE_348.png,SPEECH,5c93e5293a673a0001869096,05/08/1947,2020-09-12_09h28.08.981,proactive3.2,2020.1.2,Win32,60,5f5adea66120081ea0f57a61,5f5c866e5b1a18478c75c80a,3,,,,,,pepper,,,,,,,,,,,3,0,0,10,10,20,1,,,,,,,,,,,,,,,,,,,,,,,,,,,,,,,,,,,,,,,,,,,,,,,,,,,,,,,,,,,,,,,,,,,,,,
,,?,0.003,0,,,,,,stimuli/images/PICTURE_208.png,THING,5c93e5293a673a0001869096,05/08/1947,2020-09-12_09h28.08.981,proactive3.2,2020.1.2,Win32,60,5f5adea66120081ea0f57a61,5f5c866e5b1a18478c75c80a,3,,,,,,microphone,,,,,,,,,,,5,0,0,11,11,47,1,,,,,,,,,,,,,,,,,,,,,,,,,,,,,,,,,,,,,,,,,,,,,,,,,,,,,,,,,,,,,,,,,,,,,,
,,?,0.001,0,,,,,,stimuli/images/PICTURE_123.png,ADVICE,5c93e5293a673a0001869096,05/08/1947,2020-09-12_09h28.08.981,proactive3.2,2020.1.2,Win32,60,5f5adea66120081ea0f57a61,5f5c866e5b1a18478c75c80a,3,,,,,,dart,,,,,,,,,,,6,0,0,12,12,50,1,,,,,,,,,,,,,,,,,,,,,,,,,,,,,,,,,,,,,,,,,,,,,,,,,,,,,,,,,,,,,,,,,,,,,,
,,PHOTO,6.066,1,,,,,,stimuli/images/PICTURE_509.png,PHOTO,5c93e5293a673a0001869096,05/08/1947,2020-09-12_09h28.08.981,proactive3.2,2020.1.2,Win32,60,5f5adea66120081ea0f57a61,5f5c866e5b1a18478c75c80a,3,,,,,,telephone,,,,,,,,,,,3,0,0,13,13,21,1,,,,,,,,,,,,,,,,,,,,,,,,,,,,,,,,,,,,,,,,,,,,,,,,,,,,,,,,,,,,,,,,,,,,,,
,,?,0.002,0,,,,,,stimuli/images/PICTURE_302.png,FAMILY,5c93e5293a673a0001869096,05/08/1947,2020-09-12_09h28.08.981,proactive3.2,2020.1.2,Win32,60,5f5adea66120081ea0f57a61,5f5c866e5b1a18478c75c80a,3,,,,,,taxi,,,,,,,,,,,2,0,0,14,14,18,1,,,,,,,,,,,,,,,,,,,,,,,,,,,,,,,,,,,,,,,,,,,,,,,,,,,,,,,,,,,,,,,,,,,,,,
,,?,0.001,0,,,,,,stimuli/images/PICTURE_85.png,THING,5c93e5293a673a0001869096,05/08/1947,2020-09-12_09h28.08.981,proactive3.2,2020.1.2,Win32,60,5f5adea66120081ea0f57a61,5f5c866e5b1a18478c75c80a,3,,,,,,diamond,,,,,,,,,,,2,0,0,15,15,15,1,,,,,,,,,,,,,,,,,,,,,,,,,,,,,,,,,,,,,,,,,,,,,,,,,,,,,,,,,,,,,,,,,,,,,,
,,?,0.001,0,,,,,,stimuli/images/PICTURE_449.png,THING,5c93e5293a673a0001869096,05/08/1947,2020-09-12_09h28.08.981,proactive3.2,2020.1.2,Win32,60,5f5adea66120081ea0f57a61,5f5c866e5b1a18478c75c80a,3,,,,,,bench,,,,,,,,,,,6,0,0,16,16,59,1,,,,,,,,,,,,,,,,,,,,,,,,,,,,,,,,,,,,,,,,,,,,,,,,,,,,,,,,,,,,,,,,,,,,,,
,,?,0.001,0,,,,,,stimuli/images/PICTURE_32.png,JUNGLE,5c93e5293a673a0001869096,05/08/1947,2020-09-12_09h28.08.981,proactive3.2,2020.1.2,Win32,60,5f5adea66120081ea0f57a61,5f5c866e5b1a18478c75c80a,3,,,,,,crown,,,,,,,,,,,5,0,0,17,17,45,1,,,,,,,,,,,,,,,,,,,,,,,,,,,,,,,,,,,,,,,,,,,,,,,,,,,,,,,,,,,,,,,,,,,,,,
,,?,0.002,0,,,,,,stimuli/images/PICTURE_160.png,LEADER,5c93e5293a673a0001869096,05/08/1947,2020-09-12_09h28.08.981,proactive3.2,2020.1.2,Win32,60,5f5adea66120081ea0f57a61,5f5c866e5b1a18478c75c80a,3,,,,,,wheelbarrow,,,,,,,,,,,1,0,0,18,18,3,1,,,,,,,,,,,,,,,,,,,,,,,,,,,,,,,,,,,,,,,,,,,,,,,,,,,,,,,,,,,,,,,,,,,,,,
,,?,0.001,0,,,,,,stimuli/images/PICTURE_285.png,ADVICE,5c93e5293a673a0001869096,05/08/1947,2020-09-12_09h28.08.981,proactive3.2,2020.1.2,Win32,60,5f5adea66120081ea0f57a61,5f5c866e5b1a18478c75c80a,3,,,,,,carrot,,,,,,,,,,,2,0,0,19,19,12,1,,,,,,,,,,,,,,,,,,,,,,,,,,,,,,,,,,,,,,,,,,,,,,,,,,,,,,,,,,,,,,,,,,,,,,
,,?,0.001,0,,,,,,stimuli/images/PICTURE_160.png,FEET,5c93e5293a673a0001869096,05/08/1947,2020-09-12_09h28.08.981,proactive3.2,2020.1.2,Win32,60,5f5adea66120081ea0f57a61,5f5c866e5b1a18478c75c80a,3,,,,,,wheelbarrow,,,,,,,,,,,6,0,0,20,20,58,1,,,,,,,,,,,,,,,,,,,,,,,,,,,,,,,,,,,,,,,,,,,,,,,,,,,,,,,,,,,,,,,,,,,,,,
,,?,0.002,0,,,,,,stimuli/images/PICTURE_177.png,CARS,5c93e5293a673a0001869096,05/08/1947,2020-09-12_09h28.08.981,proactive3.2,2020.1.2,Win32,60,5f5adea66120081ea0f57a61,5f5c866e5b1a18478c75c80a,3,,,,,,mushroom,,,,,,,,,,,4,0,0,21,21,35,1,,,,,,,,,,,,,,,,,,,,,,,,,,,,,,,,,,,,,,,,,,,,,,,,,,,,,,,,,,,,,,,,,,,,,,
,,?,0.002,0,,,,,,stimuli/images/PICTURE_488.png,STYLE,5c93e5293a673a0001869096,05/08/1947,2020-09-12_09h28.08.981,proactive3.2,2020.1.2,Win32,60,5f5adea66120081ea0f57a61,5f5c866e5b1a18478c75c80a,3,,,,,,sun,,,,,,,,,,,4,0,0,22,22,33,1,,,,,,,,,,,,,,,,,,,,,,,,,,,,,,,,,,,,,,,,,,,,,,,,,,,,,,,,,,,,,,,,,,,,,,
,,?,0.002,0,,,,,,stimuli/images/PICTURE_469.png,ARTIST,5c93e5293a673a0001869096,05/08/1947,2020-09-12_09h28.08.981,proactive3.2,2020.1.2,Win32,60,5f5adea66120081ea0f57a61,5f5c866e5b1a18478c75c80a,3,,,,,,stool,,,,,,,,,,,1,0,0,23,23,6,1,,,,,,,,,,,,,,,,,,,,,,,,,,,,,,,,,,,,,,,,,,,,,,,,,,,,,,,,,,,,,,,,,,,,,,
,,?,0.001,0,,,,,,stimuli/images/PICTURE_470.png,CASINO,5c93e5293a673a0001869096,05/08/1947,2020-09-12_09h28.08.981,proactive3.2,2020.1.2,Win32,60,5f5adea66120081ea0f57a61,5f5c866e5b1a18478c75c80a,3,,,,,,motorbike,,,,,,,,,,,4,0,0,24,24,36,1,,,,,,,,,,,,,,,,,,,,,,,,,,,,,,,,,,,,,,,,,,,,,,,,,,,,,,,,,,,,,,,,,,,,,,
,,?,0.002,0,,,,,,stimuli/images/PICTURE_469.png,LETTER,5c93e5293a673a0001869096,05/08/1947,2020-09-12_09h28.08.981,proactive3.2,2020.1.2,Win32,60,5f5adea66120081ea0f57a61,5f5c866e5b1a18478c75c80a,3,,,,,,stool,,,,,,,,,,,5,0,0,25,25,42,1,,,,,,,,,,,,,,,,,,,,,,,,,,,,,,,,,,,,,,,,,,,,,,,,,,,,,,,,,,,,,,,,,,,,,,
,,?,0.001,0,,,,,,stimuli/images/PICTURE_708.png,PENNY,5c93e5293a673a0001869096,05/08/1947,2020-09-12_09h28.08.981,proactive3.2,2020.1.2,Win32,60,5f5adea66120081ea0f57a61,5f5c866e5b1a18478c75c80a,3,,,,,,monkey,,,,,,,,,,,4,0,0,26,26,31,1,,,,,,,,,,,,,,,,,,,,,,,,,,,,,,,,,,,,,,,,,,,,,,,,,,,,,,,,,,,,,,,,,,,,,,
,,?,0.001,0,,,,,,stimuli/images/PICTURE_677.png,MILE,5c93e5293a673a0001869096,05/08/1947,2020-09-12_09h28.08.981,proactive3.2,2020.1.2,Win32,60,5f5adea66120081ea0f57a61,5f5c866e5b1a18478c75c80a,3,,,,,,map,,,,,,,,,,,4,0,0,27,27,30,1,,,,,,,,,,,,,,,,,,,,,,,,,,,,,,,,,,,,,,,,,,,,,,,,,,,,,,,,,,,,,,,,,,,,,,
,,?,0.001,0,,,,,,stimuli/images/PICTURE_311.png,BEAUTY,5c93e5293a673a0001869096,05/08/1947,2020-09-12_09h28.08.981,proactive3.2,2020.1.2,Win32,60,5f5adea66120081ea0f57a61,5f5c866e5b1a18478c75c80a,3,,,,,,razor,,,,,,,,,,,2,0,0,28,28,13,1,,,,,,,,,,,,,,,,,,,,,,,,,,,,,,,,,,,,,,,,,,,,,,,,,,,,,,,,,,,,,,,,,,,,,,
,,?,0.001,0,,,,,,stimuli/images/PICTURE_208.png,LOTS,5c93e5293a673a0001869096,05/08/1947,2020-09-12_09h28.08.981,proactive3.2,2020.1.2,Win32,60,5f5adea66120081ea0f57a61,5f5c866e5b1a18478c75c80a,3,,,,,,microphone,,,,,,,,,,,2,0,0,29,29,10,1,,,,,,,,,,,,,,,,,,,,,,,,,,,,,,,,,,,,,,,,,,,,,,,,,,,,,,,,,,,,,,,,,,,,,,
,,?,0.001,0,,,,,,stimuli/images/PICTURE_248.png,DOZEN,5c93e5293a673a0001869096,05/08/1947,2020-09-12_09h28.08.981,proactive3.2,2020.1.2,Win32,60,5f5adea66120081ea0f57a61,5f5c866e5b1a18478c75c80a,3,,,,,,cart,,,,,,,,,,,4,0,0,30,30,39,1,,,,,,,,,,,,,,,,,,,,,,,,,,,,,,,,,,,,,,,,,,,,,,,,,,,,,,,,,,,,,,,,,,,,,,
,,?,0.001,0,,,,,,stimuli/images/PICTURE_667.png,BATH,5c93e5293a673a0001869096,05/08/1947,2020-09-12_09h28.08.981,proactive3.2,2020.1.2,Win32,60,5f5adea66120081ea0f57a61,5f5c866e5b1a18478c75c80a,3,,,,,,daisy,,,,,,,,,,,1,0,0,31,31,4,1,,,,,,,,,,,,,,,,,,,,,,,,,,,,,,,,,,,,,,,,,,,,,,,,,,,,,,,,,,,,,,,,,,,,,,
,,?,0.002,0,,,,,,stimuli/images/PICTURE_654.png,VALLEY,5c93e5293a673a0001869096,05/08/1947,2020-09-12_09h28.08.981,proactive3.2,2020.1.2,Win32,60,5f5adea66120081ea0f57a61,5f5c866e5b1a18478c75c80a,3,,,,,,pencil,,,,,,,,,,,1,0,0,32,32,1,1,,,,,,,,,,,,,,,,,,,,,,,,,,,,,,,,,,,,,,,,,,,,,,,,,,,,,,,,,,,,,,,,,,,,,,
,,?,0.001,0,,,,,,stimuli/images/PICTURE_311.png,FRIEND,5c93e5293a673a0001869096,05/08/1947,2020-09-12_09h28.08.981,proactive3.2,2020.1.2,Win32,60,5f5adea66120081ea0f57a61,5f5c866e5b1a18478c75c80a,3,,,,,,razor,,,,,,,,,,,4,0,0,33,33,34,1,,,,,,,,,,,,,,,,,,,,,,,,,,,,,,,,,,,,,,,,,,,,,,,,,,,,,,,,,,,,,,,,,,,,,,
,,?,0.001,0,,,,,,stimuli/images/PICTURE_688.png,WOMEN,5c93e5293a673a0001869096,05/08/1947,2020-09-12_09h28.08.981,proactive3.2,2020.1.2,Win32,60,5f5adea66120081ea0f57a61,5f5c866e5b1a18478c75c80a,3,,,,,,runner,,,,,,,,,,,2,0,0,34,34,14,1,,,,,,,,,,,,,,,,,,,,,,,,,,,,,,,,,,,,,,,,,,,,,,,,,,,,,,,,,,,,,,,,,,,,,,
,,ARTIST,4.722,1,,,,,,stimuli/images/PICTURE_203.png,ARTIST,5c93e5293a673a0001869096,05/08/1947,2020-09-12_09h28.08.981,proactive3.2,2020.1.2,Win32,60,5f5adea66120081ea0f57a61,5f5c866e5b1a18478c75c80a,3,,,,,,cap,,,,,,,,,,,3,0,0,35,35,26,1,,,,,,,,,,,,,,,,,,,,,,,,,,,,,,,,,,,,,,,,,,,,,,,,,,,,,,,,,,,,,,,,,,,,,,
,,?,0.004,0,,,,,,stimuli/images/PICTURE_68.png,MILE,5c93e5293a673a0001869096,05/08/1947,2020-09-12_09h28.08.981,proactive3.2,2020.1.2,Win32,60,5f5adea66120081ea0f57a61,5f5c866e5b1a18478c75c80a,3,,,,,,candle,,,,,,,,,,,5,0,0,36,36,44,1,,,,,,,,,,,,,,,,,,,,,,,,,,,,,,,,,,,,,,,,,,,,,,,,,,,,,,,,,,,,,,,,,,,,,,
,,?,0.002,0,,,,,,stimuli/images/PICTURE_675.png,WEAPON,5c93e5293a673a0001869096,05/08/1947,2020-09-12_09h28.08.981,proactive3.2,2020.1.2,Win32,60,5f5adea66120081ea0f57a61,5f5c866e5b1a18478c75c80a,3,,,,,,windmill,,,,,,,,,,,4,0,0,37,37,32,1,,,,,,,,,,,,,,,,,,,,,,,,,,,,,,,,,,,,,,,,,,,,,,,,,,,,,,,,,,,,,,,,,,,,,,
,,DUDE,5.301,1,,,,,,stimuli/images/PICTURE_453.png,DUDE,5c93e5293a673a0001869096,05/08/1947,2020-09-12_09h28.08.981,proactive3.2,2020.1.2,Win32,60,5f5adea66120081ea0f57a61,5f5c866e5b1a18478c75c80a,3,,,,,,scissors,,,,,,,,,,,3,0,0,38,38,27,1,,,,,,,,,,,,,,,,,,,,,,,,,,,,,,,,,,,,,,,,,,,,,,,,,,,,,,,,,,,,,,,,,,,,,,
,,?,0.003,0,,,,,,stimuli/images/PICTURE_308.png,ESTATE,5c93e5293a673a0001869096,05/08/1947,2020-09-12_09h28.08.981,proactive3.2,2020.1.2,Win32,60,5f5adea66120081ea0f57a61,5f5c866e5b1a18478c75c80a,3,,,,,,dice,,,,,,,,,,,5,0,0,39,39,46,1,,,,,,,,,,,,,,,,,,,,,,,,,,,,,,,,,,,,,,,,,,,,,,,,,,,,,,,,,,,,,,,,,,,,,,
,,?,0.002,0,,,,,,stimuli/images/PICTURE_453.png,PLENTY,5c93e5293a673a0001869096,05/08/1947,2020-09-12_09h28.08.981,proactive3.2,2020.1.2,Win32,60,5f5adea66120081ea0f57a61,5f5c866e5b1a18478c75c80a,3,,,,,,scissors,,,,,,,,,,,6,0,0,40,40,56,1,,,,,,,,,,,,,,,,,,,,,,,,,,,,,,,,,,,,,,,,,,,,,,,,,,,,,,,,,,,,,,,,,,,,,,
,,?,0.001,0,,,,,,stimuli/images/PICTURE_327.png,BEAUTY,5c93e5293a673a0001869096,05/08/1947,2020-09-12_09h28.08.981,proactive3.2,2020.1.2,Win32,60,5f5adea66120081ea0f57a61,5f5c866e5b1a18478c75c80a,3,,,,,,helmet,,,,,,,,,,,5,0,0,41,41,48,1,,,,,,,,,,,,,,,,,,,,,,,,,,,,,,,,,,,,,,,,,,,,,,,,,,,,,,,,,,,,,,,,,,,,,,
,,YARD,3.632,1,,,,,,stimuli/images/PICTURE_708.png,YARD,5c93e5293a673a0001869096,05/08/1947,2020-09-12_09h28.08.981,proactive3.2,2020.1.2,Win32,60,5f5adea66120081ea0f57a61,5f5c866e5b1a18478c75c80a,3,,,,,,monkey,,,,,,,,,,,3,0,0,42,42,29,1,,,,,,,,,,,,,,,,,,,,,,,,,,,,,,,,,,,,,,,,,,,,,,,,,,,,,,,,,,,,,,,,,,,,,,
,,?,0.002,0,,,,,,stimuli/images/PICTURE_147.png,MOMENT,5c93e5293a673a0001869096,05/08/1947,2020-09-12_09h28.08.981,proactive3.2,2020.1.2,Win32,60,5f5adea66120081ea0f57a61,5f5c866e5b1a18478c75c80a,3,,,,,,hanger,,,,,,,,,,,6,0,0,43,43,51,1,,,,,,,,,,,,,,,,,,,,,,,,,,,,,,,,,,,,,,,,,,,,,,,,,,,,,,,,,,,,,,,,,,,,,,
,,?,0.002,0,,,,,,stimuli/images/PICTURE_744.png,SYSTEM,5c93e5293a673a0001869096,05/08/1947,2020-09-12_09h28.08.981,proactive3.2,2020.1.2,Win32,60,5f5adea66120081ea0f57a61,5f5c866e5b1a18478c75c80a,3,,,,,,ring,,,,,,,,,,,5,0,0,44,44,43,1,,,,,,,,,,,,,,,,,,,,,,,,,,,,,,,,,,,,,,,,,,,,,,,,,,,,,,,,,,,,,,,,,,,,,,
,,?,0.002,0,,,,,,stimuli/images/PICTURE_151.png,GIRL,5c93e5293a673a0001869096,05/08/1947,2020-09-12_09h28.08.981,proactive3.2,2020.1.2,Win32,60,5f5adea66120081ea0f57a61,5f5c866e5b1a18478c75c80a,3,,,,,,tray,,,,,,,,,,,2,0,0,45,45,19,1,,,,,,,,,,,,,,,,,,,,,,,,,,,,,,,,,,,,,,,,,,,,,,,,,,,,,,,,,,,,,,,,,,,,,,
,,?,15.004,0,,,,,,stimuli/images/PICTURE_491.png,ROOF,5c93e5293a673a0001869096,05/08/1947,2020-09-12_09h28.08.981,proactive3.2,2020.1.2,Win32,60,5f5adea66120081ea0f57a61,5f5c866e5b1a18478c75c80a,3,,,,,,rug,,,,,,,,,,,3,0,0,46,46,24,1,,,,,,,,,,,,,,,,,,,,,,,,,,,,,,,,,,,,,,,,,,,,,,,,,,,,,,,,,,,,,,,,,,,,,,
,,?,0.002,0,,,,,,stimuli/images/PICTURE_692.png,MONTH,5c93e5293a673a0001869096,05/08/1947,2020-09-12_09h28.08.981,proactive3.2,2020.1.2,Win32,60,5f5adea66120081ea0f57a61,5f5c866e5b1a18478c75c80a,3,,,,,,cherry,,,,,,,,,,,2,0,0,47,47,16,1,,,,,,,,,,,,,,,,,,,,,,,,,,,,,,,,,,,,,,,,,,,,,,,,,,,,,,,,,,,,,,,,,,,,,,
,,?,0.001,0,,,,,,stimuli/images/PICTURE_356.png,DANGER,5c93e5293a673a0001869096,05/08/1947,2020-09-12_09h28.08.981,proactive3.2,2020.1.2,Win32,60,5f5adea66120081ea0f57a61,5f5c866e5b1a18478c75c80a,3,,,,,,pawn,,,,,,,,,,,6,0,0,48,48,55,1,,,,,,,,,,,,,,,,,,,,,,,,,,,,,,,,,,,,,,,,,,,,,,,,,,,,,,,,,,,,,,,,,,,,,,
,,LEMON,6.598,0,,,,,,stimuli/images/PICTURE_467.png,DEMON,5c93e5293a673a0001869096,05/08/1947,2020-09-12_09h28.08.981,proactive3.2,2020.1.2,Win32,60,5f5adea66120081ea0f57a61,5f5c866e5b1a18478c75c80a,3,,,,,,peg,,,,,,,,,,,3,0,0,49,49,23,1,,,,,,,,,,,,,,,,,,,,,,,,,,,,,,,,,,,,,,,,,,,,,,,,,,,,,,,,,,,,,,,,,,,,,,
,,?,0.006,0,,,,,,stimuli/images/PICTURE_380.png,PHOTO,5c93e5293a673a0001869096,05/08/1947,2020-09-12_09h28.08.981,proactive3.2,2020.1.2,Win32,60,5f5adea66120081ea0f57a61,5f5c866e5b1a18478c75c80a,3,,,,,,gorilla,,,,,,,,,,,6,0,0,50,50,52,1,,,,,,,,,,,,,,,,,,,,,,,,,,,,,,,,,,,,,,,,,,,,,,,,,,,,,,,,,,,,,,,,,,,,,,
,,AREA,9.515,1,,,,,,stimuli/images/PICTURE_255.png,AREA,5c93e5293a673a0001869096,05/08/1947,2020-09-12_09h28.08.981,proactive3.2,2020.1.2,Win32,60,5f5adea66120081ea0f57a61,5f5c866e5b1a18478c75c80a,3,,,,,,shovel,,,,,,,,,,,3,0,0,51,51,22,1,,,,,,,,,,,,,,,,,,,,,,,,,,,,,,,,,,,,,,,,,,,,,,,,,,,,,,,,,,,,,,,,,,,,,,
,,?,0.004,0,,,,,,stimuli/images/PICTURE_708.png,CLIENT,5c93e5293a673a0001869096,05/08/1947,2020-09-12_09h28.08.981,proactive3.2,2020.1.2,Win32,60,5f5adea66120081ea0f57a61,5f5c866e5b1a18478c75c80a,3,,,,,,monkey,,,,,,,,,,,1,0,0,52,52,5,1,,,,,,,,,,,,,,,,,,,,,,,,,,,,,,,,,,,,,,,,,,,,,,,,,,,,,,,,,,,,,,,,,,,,,,
,,?,0.001,0,,,,,,stimuli/images/PICTURE_339.png,PLENTY,5c93e5293a673a0001869096,05/08/1947,2020-09-12_09h28.08.981,proactive3.2,2020.1.2,Win32,60,5f5adea66120081ea0f57a61,5f5c866e5b1a18478c75c80a,3,,,,,,backpack,,,,,,,,,,,1,0,0,53,53,0,1,,,,,,,,,,,,,,,,,,,,,,,,,,,,,,,,,,,,,,,,,,,,,,,,,,,,,,,,,,,,,,,,,,,,,,
,,?,0.002,0,,,,,,stimuli/images/PICTURE_491.png,WRITER,5c93e5293a673a0001869096,05/08/1947,2020-09-12_09h28.08.981,proactive3.2,2020.1.2,Win32,60,5f5adea66120081ea0f57a61,5f5c866e5b1a18478c75c80a,3,,,,,,rug,,,,,,,,,,,6,0,0,54,54,57,1,,,,,,,,,,,,,,,,,,,,,,,,,,,,,,,,,,,,,,,,,,,,,,,,,,,,,,,,,,,,,,,,,,,,,,
,,?,0.002,0,,,,,,stimuli/images/PICTURE_314.png,SAKE,5c93e5293a673a0001869096,05/08/1947,2020-09-12_09h28.08.981,proactive3.2,2020.1.2,Win32,60,5f5adea66120081ea0f57a61,5f5c866e5b1a18478c75c80a,3,,,,,,perfume,,,,,,,,,,,1,0,0,55,55,7,1,,,,,,,,,,,,,,,,,,,,,,,,,,,,,,,,,,,,,,,,,,,,,,,,,,,,,,,,,,,,,,,,,,,,,,
,,?,0.002,0,,,,,,stimuli/images/PICTURE_744.png,SAKE,5c93e5293a673a0001869096,05/08/1947,2020-09-12_09h28.08.981,proactive3.2,2020.1.2,Win32,60,5f5adea66120081ea0f57a61,5f5c866e5b1a18478c75c80a,3,,,,,,ring,,,,,,,,,,,2,0,0,56,56,17,1,,,,,,,,,,,,,,,,,,,,,,,,,,,,,,,,,,,,,,,,,,,,,,,,,,,,,,,,,,,,,,,,,,,,,,
,,STYLE,6.704,1,,,,,,stimuli/images/PICTURE_95.png,STYLE,5c93e5293a673a0001869096,05/08/1947,2020-09-12_09h28.08.981,proactive3.2,2020.1.2,Win32,60,5f5adea66120081ea0f57a61,5f5c866e5b1a18478c75c80a,3,,,,,,suitcase,,,,,,,,,,,3,0,0,57,57,25,1,,,,,,,,,,,,,,,,,,,,,,,,,,,,,,,,,,,,,,,,,,,,,,,,,,,,,,,,,,,,,,,,,,,,,,
,,?,0.004,0,,,,,,stimuli/images/PICTURE_314.png,GODS,5c93e5293a673a0001869096,05/08/1947,2020-09-12_09h28.08.981,proactive3.2,2020.1.2,Win32,60,5f5adea66120081ea0f57a61,5f5c866e5b1a18478c75c80a,3,,,,,,perfume,,,,,,,,,,,2,0,0,58,58,11,1,,,,,,,,,,,,,,,,,,,,,,,,,,,,,,,,,,,,,,,,,,,,,,,,,,,,,,,,,,,,,,,,,,,,,,
,,?,0,0,,,,,,stimuli/images/PICTURE_380.png,DEATH,5c93e5293a673a0001869096,05/08/1947,2020-09-12_09h28.08.981,proactive3.2,2020.1.2,Win32,60,5f5adea66120081ea0f57a61,5f5c866e5b1a18478c75c80a,3,,,,,,gorilla,,,,,,,,,,,5,0,0,59,59,49,1,,,,,,,,,,,,,,,,,,,,,,,,,,,,,,,,,,,,,,,,,,,,,,,,,,,,,,,,,,,,,,,,,,,,,,
,,,,,,,,,,,,5c93e5293a673a0001869096,05/08/1947,2020-09-12_09h28.08.981,proactive3.2,2020.1.2,Win32,60,5f5adea66120081ea0f57a61,5f5c866e5b1a18478c75c80a,3,,,,,,,,,,,,,,,,,,,,,,,,0,1,1,0,1,stimuli/learn-block1.csv,,,,,,,,,,,,,,,,,,,,,,,,,,,,,,,,,,,,,,,,,,,,,,,,,,,,,,,,,,,,,,,,
,,,,,,,,,,stimuli/images/PICTURE_491.png,SERIES,5c93e5293a673a0001869096,05/08/1947,2020-09-12_09h28.08.981,proactive3.2,2020.1.2,Win32,60,5f5adea66120081ea0f57a61,5f5c866e5b1a18478c75c80a,3,,,,,,rug,,,,,,0,0,0,39,1,4,2,,,,,,,,,,,,,,,,,,,,,,,,,,,,,,,,,,,,,,,,,,,,,,,,,,,,,,,,,,,,,,,,,,,,,,,,,,,
,,,,,,,,,,stimuli/images/PICTURE_470.png,MOMENT,5c93e5293a673a0001869096,05/08/1947,2020-09-12_09h28.08.981,proactive3.2,2020.1.2,Win32,60,5f5adea66120081ea0f57a61,5f5c866e5b1a18478c75c80a,3,,,,,,motorbike,,,,,,0,1,1,40,1,5,2,,,,,,,,,,,,,,,,,,,,,,,,,,,,,,,,,,,,,,,,,,,,,,,,,,,,,,,,,,,,,,,,,,,,,,,,,,,
,,,,,,,,,,stimuli/images/PICTURE_314.png,SPEECH,5c93e5293a673a0001869096,05/08/1947,2020-09-12_09h28.08.981,proactive3.2,2020.1.2,Win32,60,5f5adea66120081ea0f57a61,5f5c866e5b1a18478c75c80a,3,,,,,,perfume,,,,,,0,2,2,35,1,4,2,,,,,,,,,,,,,,,,,,,,,,,,,,,,,,,,,,,,,,,,,,,,,,,,,,,,,,,,,,,,,,,,,,,,,,,,,,,
,,,,,,,,,,stimuli/images/PICTURE_677.png,PHOTO,5c93e5293a673a0001869096,05/08/1947,2020-09-12_09h28.08.981,proactive3.2,2020.1.2,Win32,60,5f5adea66120081ea0f57a61,5f5c866e5b1a18478c75c80a,3,,,,,,map,,,,,,0,3,3,14,1,2,2,,,,,,,,,,,,,,,,,,,,,,,,,,,,,,,,,,,,,,,,,,,,,,,,,,,,,,,,,,,,,,,,,,,,,,,,,,,
,,,,,,,,,,stimuli/images/PICTURE_509.png,APPLE,5c93e5293a673a0001869096,05/08/1947,2020-09-12_09h28.08.981,proactive3.2,2020.1.2,Win32,60,5f5adea66120081ea0f57a61,5f5c866e5b1a18478c75c80a,3,,,,,,telephone,,,,,,0,4,4,38,1,4,2,,,,,,,,,,,,,,,,,,,,,,,,,,,,,,,,,,,,,,,,,,,,,,,,,,,,,,,,,,,,,,,,,,,,,,,,,,,
,,,,,,,,,,stimuli/images/PICTURE_487.png,POLICY,5c93e5293a673a0001869096,05/08/1947,2020-09-12_09h28.08.981,proactive3.2,2020.1.2,Win32,60,5f5adea66120081ea0f57a61,5f5c866e5b1a18478c75c80a,3,,,,,,basket,,,,,,0,5,5,34,1,4,2,,,,,,,,,,,,,,,,,,,,,,,,,,,,,,,,,,,,,,,,,,,,,,,,,,,,,,,,,,,,,,,,,,,,,,,,,,,
,,,,,,,,,,stimuli/images/PICTURE_564.png,PLENTY,5c93e5293a673a0001869096,05/08/1947,2020-09-12_09h28.08.981,proactive3.2,2020.1.2,Win32,60,5f5adea66120081ea0f57a61,5f5c866e5b1a18478c75c80a,3,,,,,,spoon,,,,,,0,6,6,11,1,2,2,,,,,,,,,,,,,,,,,,,,,,,,,,,,,,,,,,,,,,,,,,,,,,,,,,,,,,,,,,,,,,,,,,,,,,,,,,,
,,,,,,,,,,stimuli/images/PICTURE_2.png,AREA,5c93e5293a673a0001869096,05/08/1947,2020-09-12_09h28.08.981,proactive3.2,2020.1.2,Win32,60,5f5adea66120081ea0f57a61,5f5c866e5b1a18478c75c80a,3,,,,,,tyre,,,,,,0,7,7,32,1,4,2,,,,,,,,,,,,,,,,,,,,,,,,,,,,,,,,,,,,,,,,,,,,,,,,,,,,,,,,,,,,,,,,,,,,,,,,,,,
,,,,,,,,,,stimuli/images/PICTURE_452.png,COPS,5c93e5293a673a0001869096,05/08/1947,2020-09-12_09h28.08.981,proactive3.2,2020.1.2,Win32,60,5f5adea66120081ea0f57a61,5f5c866e5b1a18478c75c80a,3,,,,,,watch,,,,,,0,8,8,0,1,1,2,,,,,,,,,,,,,,,,,,,,,,,,,,,,,,,,,,,,,,,,,,,,,,,,,,,,,,,,,,,,,,,,,,,,,,,,,,,
,,,,,,,,,,stimuli/images/PICTURE_692.png,DUDE,5c93e5293a673a0001869096,05/08/1947,2020-09-12_09h28.08.981,proactive3.2,2020.1.2,Win32,60,5f5adea66120081ea0f57a61,5f5c866e5b1a18478c75c80a,3,,,,,,cherry,,,,,,0,9,9,47,1,5,2,,,,,,,,,,,,,,,,,,,,,,,,,,,,,,,,,,,,,,,,,,,,,,,,,,,,,,,,,,,,,,,,,,,,,,,,,,,
,,,,,,,,,,stimuli/images/PICTURE_509.png,BATH,5c93e5293a673a0001869096,05/08/1947,2020-09-12_09h28.08.981,proactive3.2,2020.1.2,Win32,60,5f5adea66120081ea0f57a61,5f5c866e5b1a18478c75c80a,3,,,,,,telephone,,,,,,0,10,10,15,1,2,2,,,,,,,,,,,,,,,,,,,,,,,,,,,,,,,,,,,,,,,,,,,,,,,,,,,,,,,,,,,,,,,,,,,,,,,,,,,
,,,,,,,,,,stimuli/images/PICTURE_57.png,CANDY,5c93e5293a673a0001869096,05/08/1947,2020-09-12_09h28.08.981,proactive3.2,2020.1.2,Win32,60,5f5adea66120081ea0f57a61,5f5c866e5b1a18478c75c80a,3,,,,,,stamp,,,,,,0,11,11,52,1,6,2,,,,,,,,,,,,,,,,,,,,,,,,,,,,,,,,,,,,,,,,,,,,,,,,,,,,,,,,,,,,,,,,,,,,,,,,,,,
,,,,,,,,,,stimuli/images/PICTURE_57.png,CASINO,5c93e5293a673a0001869096,05/08/1947,2020-09-12_09h28.08.981,proactive3.2,2020.1.2,Win32,60,5f5adea66120081ea0f57a61,5f5c866e5b1a18478c75c80a,3,,,,,,stamp,,,,,,0,12,12,12,1,2,2,,,,,,,,,,,,,,,,,,,,,,,,,,,,,,,,,,,,,,,,,,,,,,,,,,,,,,,,,,,,,,,,,,,,,,,,,,,
,,,,,,,,,,stimuli/images/PICTURE_296.png,CLOCK,5c93e5293a673a0001869096,05/08/1947,2020-09-12_09h28.08.981,proactive3.2,2020.1.2,Win32,60,5f5adea66120081ea0f57a61,5f5c866e5b1a18478c75c80a,3,,,,,,bolt,,,,,,0,13,13,18,1,2,2,,,,,,,,,,,,,,,,,,,,,,,,,,,,,,,,,,,,,,,,,,,,,,,,,,,,,,,,,,,,,,,,,,,,,,,,,,,
,,,,,,,,,,stimuli/images/PICTURE_95.png,NIGHT,5c93e5293a673a0001869096,05/08/1947,2020-09-12_09h28.08.981,proactive3.2,2020.1.2,Win32,60,5f5adea66120081ea0f57a61,5f5c866e5b1a18478c75c80a,3,,,,,,suitcase,,,,,,0,14,14,37,1,4,2,,,,,,,,,,,,,,,,,,,,,,,,,,,,,,,,,,,,,,,,,,,,,,,,,,,,,,,,,,,,,,,,,,,,,,,,,,,
,,,,,,,,,,stimuli/images/PICTURE_405.png,JUNGLE,5c93e5293a673a0001869096,05/08/1947,2020-09-12_09h28.08.981,proactive3.2,2020.1.2,Win32,60,5f5adea66120081ea0f57a61,5f5c866e5b1a18478c75c80a,3,,,,,,anchor,,,,,,0,15,15,58,1,6,2,,,,,,,,,,,,,,,,,,,,,,,,,,,,,,,,,,,,,,,,,,,,,,,,,,,,,,,,,,,,,,,,,,,,,,,,,,,
,,,,,,,,,,stimuli/images/PICTURE_32.png,LETTER,5c93e5293a673a0001869096,05/08/1947,2020-09-12_09h28.08.981,proactive3.2,2020.1.2,Win32,60,5f5adea66120081ea0f57a61,5f5c866e5b1a18478c75c80a,3,,,,,,crown,,,,,,0,16,16,56,1,6,2,,,,,,,,,,,,,,,,,,,,,,,,,,,,,,,,,,,,,,,,,,,,,,,,,,,,,,,,,,,,,,,,,,,,,,,,,,,
,,,,,,,,,,stimuli/images/PICTURE_147.png,LEADER,5c93e5293a673a0001869096,05/08/1947,2020-09-12_09h28.08.981,proactive3.2,2020.1.2,Win32,60,5f5adea66120081ea0f57a61,5f5c866e5b1a18478c75c80a,3,,,,,,hanger,,,,,,0,17,17,33,1,4,2,,,,,,,,,,,,,,,,,,,,,,,,,,,,,,,,,,,,,,,,,,,,,,,,,,,,,,,,,,,,,,,,,,,,,,,,,,,
,,,,,,,,,,stimuli/images/PICTURE_215.png,LEADER,5c93e5293a673a0001869096,05/08/1947,2020-09-12_09h28.08.981,proactive3.2,2020.1.2,Win32,60,5f5adea66120081ea0f57a61,5f5c866e5b1a18478c75c80a,3,,,,,,boot,,,,,,0,18,18,43,1,5,2,,,,,,,,,,,,,,,,,,,,,,,,,,,,,,,,,,,,,,,,,,,,,,,,,,,,,,,,,,,,,,,,,,,,,,,,,,,
,,,,,,,,,,stimuli/images/PICTURE_215.png,BOYS,5c93e5293a673a0001869096,05/08/1947,2020-09-12_09h28.08.981,proactive3.2,2020.1.2,Win32,60,5f5adea66120081ea0f57a61,5f5c866e5b1a18478c75c80a,3,,,,,,boot,,,,,,0,19,19,24,1,3,2,,,,,,,,,,,,,,,,,,,,,,,,,,,,,,,,,,,,,,,,,,,,,,,,,,,,,,,,,,,,,,,,,,,,,,,,,,,
,,,,,,,,,,stimuli/images/PICTURE_311.png,TOILET,5c93e5293a673a0001869096,05/08/1947,2020-09-12_09h28.08.981,proactive3.2,2020.1.2,Win32,60,5f5adea66120081ea0f57a61,5f5c866e5b1a18478c75c80a,3,,,,,,razor,,,,,,0,20,20,54,1,6,2,,,,,,,,,,,,,,,,,,,,,,,,,,,,,,,,,,,,,,,,,,,,,,,,,,,,,,,,,,,,,,,,,,,,,,,,,,,
,,,,,,,,,,stimuli/images/PICTURE_311.png,FLESH,5c93e5293a673a0001869096,05/08/1947,2020-09-12_09h28.08.981,proactive3.2,2020.1.2,Win32,60,5f5adea66120081ea0f57a61,5f5c866e5b1a18478c75c80a,3,,,,,,razor,,,,,,0,21,21,3,1,1,2,,,,,,,,,,,,,,,,,,,,,,,,,,,,,,,,,,,,,,,,,,,,,,,,,,,,,,,,,,,,,,,,,,,,,,,,,,,
,,,,,,,,,,stimuli/images/PICTURE_356.png,CANDY,5c93e5293a673a0001869096,05/08/1947,2020-09-12_09h28.08.981,proactive3.2,2020.1.2,Win32,60,5f5adea66120081ea0f57a61,5f5c866e5b1a18478c75c80a,3,,,,,,pawn,,,,,,0,22,22,46,1,5,2,,,,,,,,,,,,,,,,,,,,,,,,,,,,,,,,,,,,,,,,,,,,,,,,,,,,,,,,,,,,,,,,,,,,,,,,,,,
,,,,,,,,,,stimuli/images/PICTURE_403.png,FAMILY,5c93e5293a673a0001869096,05/08/1947,2020-09-12_09h28.08.981,proactive3.2,2020.1.2,Win32,60,5f5adea66120081ea0f57a61,5f5c866e5b1a18478c75c80a,3,,,,,,cathedral,,,,,,0,23,23,9,1,1,2,,,,,,,,,,,,,,,,,,,,,,,,,,,,,,,,,,,,,,,,,,,,,,,,,,,,,,,,,,,,,,,,,,,,,,,,,,,
,,,,,,,,,,stimuli/images/PICTURE_348.png,TOILET,5c93e5293a673a0001869096,05/08/1947,2020-09-12_09h28.08.981,proactive3.2,2020.1.2,Win32,60,5f5adea66120081ea0f57a61,5f5c866e5b1a18478c75c80a,3,,,,,,pepper,,,,,,0,24,24,4,1,1,2,,,,,,,,,,,,,,,,,,,,,,,,,,,,,,,,,,,,,,,,,,,,,,,,,,,,,,,,,,,,,,,,,,,,,,,,,,,
,,,,,,,,,,stimuli/images/PICTURE_677.png,FAMILY,5c93e5293a673a0001869096,05/08/1947,2020-09-12_09h28.08.981,proactive3.2,2020.1.2,Win32,60,5f5adea66120081ea0f57a61,5f5c866e5b1a18478c75c80a,3,,,,,,map,,,,,,0,25,25,53,1,6,2,,,,,,,,,,,,,,,,,,,,,,,,,,,,,,,,,,,,,,,,,,,,,,,,,,,,,,,,,,,,,,,,,,,,,,,,,,,
,,,,,,,,,,stimuli/images/PICTURE_208.png,SPIRIT,5c93e5293a673a0001869096,05/08/1947,2020-09-12_09h28.08.981,proactive3.2,2020.1.2,Win32,60,5f5adea66120081ea0f57a61,5f5c866e5b1a18478c75c80a,3,,,,,,microphone,,,,,,0,26,26,28,1,3,2,,,,,,,,,,,,,,,,,,,,,,,,,,,,,,,,,,,,,,,,,,,,,,,,,,,,,,,,,,,,,,,,,,,,,,,,,,,
,,,,,,,,,,stimuli/images/PICTURE_285.png,WRITER,5c93e5293a673a0001869096,05/08/1947,2020-09-12_09h28.08.981,proactive3.2,2020.1.2,Win32,60,5f5adea66120081ea0f57a61,5f5c866e5b1a18478c75c80a,3,,,,,,carrot,,,,,,0,27,27,6,1,1,2,,,,,,,,,,,,,,,,,,,,,,,,,,,,,,,,,,,,,,,,,,,,,,,,,,,,,,,,,,,,,,,,,,,,,,,,,,,
,,,,,,,,,,stimuli/images/PICTURE_654.png,COPS,5c93e5293a673a0001869096,05/08/1947,2020-09-12_09h28.08.981,proactive3.2,2020.1.2,Win32,60,5f5adea66120081ea0f57a61,5f5c866e5b1a18478c75c80a,3,,,,,,pencil,,,,,,0,28,28,10,1,2,2,,,,,,,,,,,,,,,,,,,,,,,,,,,,,,,,,,,,,,,,,,,,,,,,,,,,,,,,,,,,,,,,,,,,,,,,,,,
,,,,,,,,,,stimuli/images/PICTURE_470.png,BEAUTY,5c93e5293a673a0001869096,05/08/1947,2020-09-12_09h28.08.981,proactive3.2,2020.1.2,Win32,60,5f5adea66120081ea0f57a61,5f5c866e5b1a18478c75c80a,3,,,,,,motorbike,,,,,,0,29,29,26,1,3,2,,,,,,,,,,,,,,,,,,,,,,,,,,,,,,,,,,,,,,,,,,,,,,,,,,,,,,,,,,,,,,,,,,,,,,,,,,,
,,,,,,,,,,stimuli/images/PICTURE_509.png,MILLER,5c93e5293a673a0001869096,05/08/1947,2020-09-12_09h28.08.981,proactive3.2,2020.1.2,Win32,60,5f5adea66120081ea0f57a61,5f5c866e5b1a18478c75c80a,3,,,,,,telephone,,,,,,0,30,30,49,1,5,2,,,,,,,,,,,,,,,,,,,,,,,,,,,,,,,,,,,,,,,,,,,,,,,,,,,,,,,,,,,,,,,,,,,,,,,,,,,
,,,,,,,,,,stimuli/images/PICTURE_405.png,HOUSE,5c93e5293a673a0001869096,05/08/1947,2020-09-12_09h28.08.981,proactive3.2,2020.1.2,Win32,60,5f5adea66120081ea0f57a61,5f5c866e5b1a18478c75c80a,3,,,,,,anchor,,,,,,0,31,31,2,1,1,2,,,,,,,,,,,,,,,,,,,,,,,,,,,,,,,,,,,,,,,,,,,,,,,,,,,,,,,,,,,,,,,,,,,,,,,,,,,
,,,,,,,,,,stimuli/images/PICTURE_327.png,LEADER,5c93e5293a673a0001869096,05/08/1947,2020-09-12_09h28.08.981,proactive3.2,2020.1.2,Win32,60,5f5adea66120081ea0f57a61,5f5c866e5b1a18478c75c80a,3,,,,,,helmet,,,,,,0,32,32,17,1,2,2,,,,,,,,,,,,,,,,,,,,,,,,,,,,,,,,,,,,,,,,,,,,,,,,,,,,,,,,,,,,,,,,,,,,,,,,,,,
,,,,,,,,,,stimuli/images/PICTURE_160.png,HOTEL,5c93e5293a673a0001869096,05/08/1947,2020-09-12_09h28.08.981,proactive3.2,2020.1.2,Win32,60,5f5adea66120081ea0f57a61,5f5c866e5b1a18478c75c80a,3,,,,,,wheelbarrow,,,,,,0,33,33,16,1,2,2,,,,,,,,,,,,,,,,,,,,,,,,,,,,,,,,,,,,,,,,,,,,,,,,,,,,,,,,,,,,,,,,,,,,,,,,,,,
,,,,,,,,,,stimuli/images/PICTURE_509.png,SHOTS,5c93e5293a673a0001869096,05/08/1947,2020-09-12_09h28.08.981,proactive3.2,2020.1.2,Win32,60,5f5adea66120081ea0f57a61,5f5c866e5b1a18478c75c80a,3,,,,,,telephone,,,,,,0,34,34,7,1,1,2,,,,,,,,,,,,,,,,,,,,,,,,,,,,,,,,,,,,,,,,,,,,,,,,,,,,,,,,,,,,,,,,,,,,,,,,,,,
,,,,,,,,,,stimuli/images/PICTURE_2.png,JUNGLE,5c93e5293a673a0001869096,05/08/1947,2020-09-12_09h28.08.981,proactive3.2,2020.1.2,Win32,60,5f5adea66120081ea0f57a61,5f5c866e5b1a18478c75c80a,3,,,,,,tyre,,,,,,0,35,35,1,1,1,2,,,,,,,,,,,,,,,,,,,,,,,,,,,,,,,,,,,,,,,,,,,,,,,,,,,,,,,,,,,,,,,,,,,,,,,,,,,
,,,,,,,,,,stimuli/images/PICTURE_405.png,JUNGLE,5c93e5293a673a0001869096,05/08/1947,2020-09-12_09h28.08.981,proactive3.2,2020.1.2,Win32,60,5f5adea66120081ea0f57a61,5f5c866e5b1a18478c75c80a,3,,,,,,anchor,,,,,,0,36,36,13,1,2,2,,,,,,,,,,,,,,,,,,,,,,,,,,,,,,,,,,,,,,,,,,,,,,,,,,,,,,,,,,,,,,,,,,,,,,,,,,,
,,,,,,,,,,stimuli/images/PICTURE_453.png,FAMILY,5c93e5293a673a0001869096,05/08/1947,2020-09-12_09h28.08.981,proactive3.2,2020.1.2,Win32,60,5f5adea66120081ea0f57a61,5f5c866e5b1a18478c75c80a,3,,,,,,scissors,,,,,,0,37,37,48,1,5,2,,,,,,,,,,,,,,,,,,,,,,,,,,,,,,,,,,,,,,,,,,,,,,,,,,,,,,,,,,,,,,,,,,,,,,,,,,,
,,,,,,,,,,stimuli/images/PICTURE_688.png,CLOCK,5c93e5293a673a0001869096,05/08/1947,2020-09-12_09h28.08.981,proactive3.2,2020.1.2,Win32,60,5f5adea66120081ea0f57a61,5f5c866e5b1a18478c75c80a,3,,,,,,runner,,,,,,0,38,38,42,1,5,2,,,,,,,,,,,,,,,,,,,,,,,,,,,,,,,,,,,,,,,,,,,,,,,,,,,,,,,,,,,,,,,,,,,,,,,,,,,
,,,,,,,,,,stimuli/images/PICTURE_667.png,GLASS,5c93e5293a673a0001869096,05/08/1947,2020-09-12_09h28.08.981,proactive3.2,2020.1.2,Win32,60,5f5adea66120081ea0f57a61,5f5c866e5b1a18478c75c80a,3,,,,,,daisy,,,,,,0,39,39,27,1,3,2,,,,,,,,,,,,,,,,,,,,,,,,,,,,,,,,,,,,,,,,,,,,,,,,,,,,,,,,,,,,,,,,,,,,,,,,,,,
,,,,,,,,,,stimuli/images/PICTURE_93.png,GIRL,5c93e5293a673a0001869096,05/08/1947,2020-09-12_09h28.08.981,proactive3.2,2020.1.2,Win32,60,5f5adea66120081ea0f57a61,5f5c866e5b1a18478c75c80a,3,,,,,,skateboard,,,,,,0,40,40,31,1,4,2,,,,,,,,,,,,,,,,,,,,,,,,,,,,,,,,,,,,,,,,,,,,,,,,,,,,,,,,,,,,,,,,,,,,,,,,,,,
,,,,,,,,,,stimuli/images/PICTURE_57.png,NATION,5c93e5293a673a0001869096,05/08/1947,2020-09-12_09h28.08.981,proactive3.2,2020.1.2,Win32,60,5f5adea66120081ea0f57a61,5f5c866e5b1a18478c75c80a,3,,,,,,stamp,,,,,,0,41,41,21,1,3,2,,,,,,,,,,,,,,,,,,,,,,,,,,,,,,,,,,,,,,,,,,,,,,,,,,,,,,,,,,,,,,,,,,,,,,,,,,,
,,,,,,,,,,stimuli/images/PICTURE_487.png,ROOF,5c93e5293a673a0001869096,05/08/1947,2020-09-12_09h28.08.981,proactive3.2,2020.1.2,Win32,60,5f5adea66120081ea0f57a61,5f5c866e5b1a18478c75c80a,3,,,,,,basket,,,,,,0,42,42,50,1,6,2,,,,,,,,,,,,,,,,,,,,,,,,,,,,,,,,,,,,,,,,,,,,,,,,,,,,,,,,,,,,,,,,,,,,,,,,,,,
,,,,,,,,,,stimuli/images/PICTURE_33.png,COPS,5c93e5293a673a0001869096,05/08/1947,2020-09-12_09h28.08.981,proactive3.2,2020.1.2,Win32,60,5f5adea66120081ea0f57a61,5f5c866e5b1a18478c75c80a,3,,,,,,frame,,,,,,0,43,43,29,1,3,2,,,,,,,,,,,,,,,,,,,,,,,,,,,,,,,,,,,,,,,,,,,,,,,,,,,,,,,,,,,,,,,,,,,,,,,,,,,
,,,,,,,,,,stimuli/images/PICTURE_141.png,CLIENT,5c93e5293a673a0001869096,05/08/1947,2020-09-12_09h28.08.981,proactive3.2,2020.1.2,Win32,60,5f5adea66120081ea0f57a61,5f5c866e5b1a18478c75c80a,3,,,,,,sunflower,,,,,,0,44,44,30,1,4,2,,,,,,,,,,,,,,,,,,,,,,,,,,,,,,,,,,,,,,,,,,,,,,,,,,,,,,,,,,,,,,,,,,,,,,,,,,,
,,,,,,,,,,stimuli/images/PICTURE_18.png,RIVER,5c93e5293a673a0001869096,05/08/1947,2020-09-12_09h28.08.981,proactive3.2,2020.1.2,Win32,60,5f5adea66120081ea0f57a61,5f5c866e5b1a18478c75c80a,3,,,,,,planet,,,,,,0,45,45,22,1,3,2,,,,,,,,,,,,,,,,,,,,,,,,,,,,,,,,,,,,,,,,,,,,,,,,,,,,,,,,,,,,,,,,,,,,,,,,,,,
,,,,,,,,,,stimuli/images/PICTURE_348.png,DUDE,5c93e5293a673a0001869096,05/08/1947,2020-09-12_09h28.08.981,proactive3.2,2020.1.2,Win32,60,5f5adea66120081ea0f57a61,5f5c866e5b1a18478c75c80a,3,,,,,,pepper,,,,,,0,46,46,59,1,6,2,,,,,,,,,,,,,,,,,,,,,,,,,,,,,,,,,,,,,,,,,,,,,,,,,,,,,,,,,,,,,,,,,,,,,,,,,,,
,,,,,,,,,,stimuli/images/PICTURE_215.png,FOOD,5c93e5293a673a0001869096,05/08/1947,2020-09-12_09h28.08.981,proactive3.2,2020.1.2,Win32,60,5f5adea66120081ea0f57a61,5f5c866e5b1a18478c75c80a,3,,,,,,boot,,,,,,0,47,47,5,1,1,2,,,,,,,,,,,,,,,,,,,,,,,,,,,,,,,,,,,,,,,,,,,,,,,,,,,,,,,,,,,,,,,,,,,,,,,,,,,
,,,,,,,,,,stimuli/images/PICTURE_123.png,SALE,5c93e5293a673a0001869096,05/08/1947,2020-09-12_09h28.08.981,proactive3.2,2020.1.2,Win32,60,5f5adea66120081ea0f57a61,5f5c866e5b1a18478c75c80a,3,,,,,,dart,,,,,,0,48,48,8,1,1,2,,,,,,,,,,,,,,,,,,,,,,,,,,,,,,,,,,,,,,,,,,,,,,,,,,,,,,,,,,,,,,,,,,,,,,,,,,,
,,,,,,,,,,stimuli/images/PICTURE_750.png,POLICY,5c93e5293a673a0001869096,05/08/1947,2020-09-12_09h28.08.981,proactive3.2,2020.1.2,Win32,60,5f5adea66120081ea0f57a61,5f5c866e5b1a18478c75c80a,3,,,,,,kettle,,,,,,0,49,49,44,1,5,2,,,,,,,,,,,,,,,,,,,,,,,,,,,,,,,,,,,,,,,,,,,,,,,,,,,,,,,,,,,,,,,,,,,,,,,,,,,
,,,,,,,,,,stimuli/images/PICTURE_255.png,PENNY,5c93e5293a673a0001869096,05/08/1947,2020-09-12_09h28.08.981,proactive3.2,2020.1.2,Win32,60,5f5adea66120081ea0f57a61,5f5c866e5b1a18478c75c80a,3,,,,,,shovel,,,,,,0,50,50,19,1,2,2,,,,,,,,,,,,,,,,,,,,,,,,,,,,,,,,,,,,,,,,,,,,,,,,,,,,,,,,,,,,,,,,,,,,,,,,,,,
,,,,,,,,,,stimuli/images/PICTURE_655.png,SALE,5c93e5293a673a0001869096,05/08/1947,2020-09-12_09h28.08.981,proactive3.2,2020.1.2,Win32,60,5f5adea66120081ea0f57a61,5f5c866e5b1a18478c75c80a,3,,,,,,megaphone,,,,,,0,51,51,57,1,6,2,,,,,,,,,,,,,,,,,,,,,,,,,,,,,,,,,,,,,,,,,,,,,,,,,,,,,,,,,,,,,,,,,,,,,,,,,,,
,,,,,,,,,,stimuli/images/PICTURE_297.png,BODY,5c93e5293a673a0001869096,05/08/1947,2020-09-12_09h28.08.981,proactive3.2,2020.1.2,Win32,60,5f5adea66120081ea0f57a61,5f5c866e5b1a18478c75c80a,3,,,,,,aeroplane,,,,,,0,52,52,51,1,6,2,,,,,,,,,,,,,,,,,,,,,,,,,,,,,,,,,,,,,,,,,,,,,,,,,,,,,,,,,,,,,,,,,,,,,,,,,,,
,,,,,,,,,,stimuli/images/PICTURE_504.png,HOUSE,5c93e5293a673a0001869096,05/08/1947,2020-09-12_09h28.08.981,proactive3.2,2020.1.2,Win32,60,5f5adea66120081ea0f57a61,5f5c866e5b1a18478c75c80a,3,,,,,,wheel,,,,,,0,53,53,36,1,4,2,,,,,,,,,,,,,,,,,,,,,,,,,,,,,,,,,,,,,,,,,,,,,,,,,,,,,,,,,,,,,,,,,,,,,,,,,,,
,,,,,,,,,,stimuli/images/PICTURE_177.png,HOUSE,5c93e5293a673a0001869096,05/08/1947,2020-09-12_09h28.08.981,proactive3.2,2020.1.2,Win32,60,5f5adea66120081ea0f57a61,5f5c866e5b1a18478c75c80a,3,,,,,,mushroom,,,,,,0,54,54,25,1,3,2,,,,,,,,,,,,,,,,,,,,,,,,,,,,,,,,,,,,,,,,,,,,,,,,,,,,,,,,,,,,,,,,,,,,,,,,,,,
,,,,,,,,,,stimuli/images/PICTURE_654.png,YEAR,5c93e5293a673a0001869096,05/08/1947,2020-09-12_09h28.08.981,proactive3.2,2020.1.2,Win32,60,5f5adea66120081ea0f57a61,5f5c866e5b1a18478c75c80a,3,,,,,,pencil,,,,,,0,55,55,41,1,5,2,,,,,,,,,,,,,,,,,,,,,,,,,,,,,,,,,,,,,,,,,,,,,,,,,,,,,,,,,,,,,,,,,,,,,,,,,,,
,,,,,,,,,,stimuli/images/PICTURE_68.png,KIND,5c93e5293a673a0001869096,05/08/1947,2020-09-12_09h28.08.981,proactive3.2,2020.1.2,Win32,60,5f5adea66120081ea0f57a61,5f5c866e5b1a18478c75c80a,3,,,,,,candle,,,,,,0,56,56,23,1,3,2,,,,,,,,,,,,,,,,,,,,,,,,,,,,,,,,,,,,,,,,,,,,,,,,,,,,,,,,,,,,,,,,,,,,,,,,,,,
,,,,,,,,,,stimuli/images/PICTURE_285.png,PRINCE,5c93e5293a673a0001869096,05/08/1947,2020-09-12_09h28.08.981,proactive3.2,2020.1.2,Win32,60,5f5adea66120081ea0f57a61,5f5c866e5b1a18478c75c80a,3,,,,,,carrot,,,,,,0,57,57,20,1,3,2,,,,,,,,,,,,,,,,,,,,,,,,,,,,,,,,,,,,,,,,,,,,,,,,,,,,,,,,,,,,,,,,,,,,,,,,,,,
,,,,,,,,,,stimuli/images/PICTURE_708.png,VALLEY,5c93e5293a673a0001869096,05/08/1947,2020-09-12_09h28.08.981,proactive3.2,2020.1.2,Win32,60,5f5adea66120081ea0f57a61,5f5c866e5b1a18478c75c80a,3,,,,,,monkey,,,,,,0,58,58,45,1,5,2,,,,,,,,,,,,,,,,,,,,,,,,,,,,,,,,,,,,,,,,,,,,,,,,,,,,,,,,,,,,,,,,,,,,,,,,,,,
,,?,0.002,0,,,,,,stimuli/images/PICTURE_509.png,BATH,5c93e5293a673a0001869096,05/08/1947,2020-09-12_09h28.08.981,proactive3.2,2020.1.2,Win32,60,5f5adea66120081ea0f57a61,5f5c866e5b1a18478c75c80a,3,,,,,,telephone,,,,,,,,,,,2,2,0,0,0,15,1,,,,,,,,,,,,,,,,,,,,,,,,,,,,,,,,,,,,,,,,,,,,,,,,,,,,,,,,,,,,,,,,,,,,,,
,,?,0.001,0,,,,,,stimuli/images/PICTURE_677.png,PHOTO,5c93e5293a673a0001869096,05/08/1947,2020-09-12_09h28.08.981,proactive3.2,2020.1.2,Win32,60,5f5adea66120081ea0f57a61,5f5c866e5b1a18478c75c80a,3,,,,,,map,,,,,,,,,,,2,2,0,1,1,14,1,,,,,,,,,,,,,,,,,,,,,,,,,,,,,,,,,,,,,,,,,,,,,,,,,,,,,,,,,,,,,,,,,,,,,,
,,?,0.001,0,,,,,,stimuli/images/PICTURE_311.png,FLESH,5c93e5293a673a0001869096,05/08/1947,2020-09-12_09h28.08.981,proactive3.2,2020.1.2,Win32,60,5f5adea66120081ea0f57a61,5f5c866e5b1a18478c75c80a,3,,,,,,razor,,,,,,,,,,,1,2,0,2,2,3,1,,,,,,,,,,,,,,,,,,,,,,,,,,,,,,,,,,,,,,,,,,,,,,,,,,,,,,,,,,,,,,,,,,,,,,
,,?,0.002,0,,,,,,stimuli/images/PICTURE_356.png,CANDY,5c93e5293a673a0001869096,05/08/1947,2020-09-12_09h28.08.981,proactive3.2,2020.1.2,Win32,60,5f5adea66120081ea0f57a61,5f5c866e5b1a18478c75c80a,3,,,,,,pawn,,,,,,,,,,,5,2,0,3,3,46,1,,,,,,,,,,,,,,,,,,,,,,,,,,,,,,,,,,,,,,,,,,,,,,,,,,,,,,,,,,,,,,,,,,,,,,
,,?,0.001,0,,,,,,stimuli/images/PICTURE_215.png,LEADER,5c93e5293a673a0001869096,05/08/1947,2020-09-12_09h28.08.981,proactive3.2,2020.1.2,Win32,60,5f5adea66120081ea0f57a61,5f5c866e5b1a18478c75c80a,3,,,,,,boot,,,,,,,,,,,5,2,0,4,4,43,1,,,,,,,,,,,,,,,,,,,,,,,,,,,,,,,,,,,,,,,,,,,,,,,,,,,,,,,,,,,,,,,,,,,,,,
,,KIND,5.149,1,,,,,,stimuli/images/PICTURE_68.png,KIND,5c93e5293a673a0001869096,05/08/1947,2020-09-12_09h28.08.981,proactive3.2,2020.1.2,Win32,60,5f5adea66120081ea0f57a61,5f5c866e5b1a18478c75c80a,3,,,,,,candle,,,,,,,,,,,3,2,0,5,5,23,1,,,,,,,,,,,,,,,,,,,,,,,,,,,,,,,,,,,,,,,,,,,,,,,,,,,,,,,,,,,,,,,,,,,,,,
,,?,0.003,0,,,,,,stimuli/images/PICTURE_509.png,MILLER,5c93e5293a673a0001869096,05/08/1947,2020-09-12_09h28.08.981,proactive3.2,2020.1.2,Win32,60,5f5adea66120081ea0f57a61,5f5c866e5b1a18478c75c80a,3,,,,,,telephone,,,,,,,,,,,5,2,0,6,6,49,1,,,,,,,,,,,,,,,,,,,,,,,,,,,,,,,,,,,,,,,,,,,,,,,,,,,,,,,,,,,,,,,,,,,,,,
,,?,15.009,0,,,,,,stimuli/images/PICTURE_470.png,BEAUTY,5c93e5293a673a0001869096,05/08/1947,2020-09-12_09h28.08.981,proactive3.2,2020.1.2,Win32,60,5f5adea66120081ea0f57a61,5f5c866e5b1a18478c75c80a,3,,,,,,motorbike,,,,,,,,,,,3,2,0,7,7,26,1,,,,,,,,,,,,,,,,,,,,,,,,,,,,,,,,,,,,,,,,,,,,,,,,,,,,,,,,,,,,,,,,,,,,,,
,,?,0.002,0,,,,,,stimuli/images/PICTURE_564.png,PLENTY,5c93e5293a673a0001869096,05/08/1947,2020-09-12_09h28.08.981,proactive3.2,2020.1.2,Win32,60,5f5adea66120081ea0f57a61,5f5c866e5b1a18478c75c80a,3,,,,,,spoon,,,,,,,,,,,2,2,0,8,8,11,1,,,,,,,,,,,,,,,,,,,,,,,,,,,,,,,,,,,,,,,,,,,,,,,,,,,,,,,,,,,,,,,,,,,,,,
,,?,0.001,0,,,,,,stimuli/images/PICTURE_688.png,CLOCK,5c93e5293a673a0001869096,05/08/1947,2020-09-12_09h28.08.981,proactive3.2,2020.1.2,Win32,60,5f5adea66120081ea0f57a61,5f5c866e5b1a18478c75c80a,3,,,,,,runner,,,,,,,,,,,5,2,0,9,9,42,1,,,,,,,,,,,,,,,,,,,,,,,,,,,,,,,,,,,,,,,,,,,,,,,,,,,,,,,,,,,,,,,,,,,,,,
,,?,0.002,0,,,,,,stimuli/images/PICTURE_93.png,GIRL,5c93e5293a673a0001869096,05/08/1947,2020-09-12_09h28.08.981,proactive3.2,2020.1.2,Win32,60,5f5adea66120081ea0f57a61,5f5c866e5b1a18478c75c80a,3,,,,,,skateboard,,,,,,,,,,,4,2,0,10,10,31,1,,,,,,,,,,,,,,,,,,,,,,,,,,,,,,,,,,,,,,,,,,,,,,,,,,,,,,,,,,,,,,,,,,,,,,
,,HOUSE,4.931,1,,,,,,stimuli/images/PICTURE_177.png,HOUSE,5c93e5293a673a0001869096,05/08/1947,2020-09-12_09h28.08.981,proactive3.2,2020.1.2,Win32,60,5f5adea66120081ea0f57a61,5f5c866e5b1a18478c75c80a,3,,,,,,mushroom,,,,,,,,,,,3,2,0,11,11,25,1,,,,,,,,,,,,,,,,,,,,,,,,,,,,,,,,,,,,,,,,,,,,,,,,,,,,,,,,,,,,,,,,,,,,,,
,,?,0.004,0,,,,,,stimuli/images/PICTURE_255.png,PENNY,5c93e5293a673a0001869096,05/08/1947,2020-09-12_09h28.08.981,proactive3.2,2020.1.2,Win32,60,5f5adea66120081ea0f57a61,5f5c866e5b1a18478c75c80a,3,,,,,,shovel,,,,,,,,,,,2,2,0,12,12,19,1,,,,,,,,,,,,,,,,,,,,,,,,,,,,,,,,,,,,,,,,,,,,,,,,,,,,,,,,,,,,,,,,,,,,,,
,,?,0.001,0,,,,,,stimuli/images/PICTURE_504.png,HOUSE,5c93e5293a673a0001869096,05/08/1947,2020-09-12_09h28.08.981,proactive3.2,2020.1.2,Win32,60,5f5adea66120081ea0f57a61,5f5c866e5b1a18478c75c80a,3,,,,,,wheel,,,,,,,,,,,4,2,0,13,13,36,1,,,,,,,,,,,,,,,,,,,,,,,,,,,,,,,,,,,,,,,,,,,,,,,,,,,,,,,,,,,,,,,,,,,,,,
,,?,0.002,0,,,,,,stimuli/images/PICTURE_509.png,SHOTS,5c93e5293a673a0001869096,05/08/1947,2020-09-12_09h28.08.981,proactive3.2,2020.1.2,Win32,60,5f5adea66120081ea0f57a61,5f5c866e5b1a18478c75c80a,3,,,,,,telephone,,,,,,,,,,,1,2,0,14,14,7,1,,,,,,,,,,,,,,,,,,,,,,,,,,,,,,,,,,,,,,,,,,,,,,,,,,,,,,,,,,,,,,,,,,,,,,
