consent_key.keys,consent_key.rt,recalled,recalled_rt,recall_acc,example_recall.thisRepN,example_recall.thisTrialN,example_recall.thisN,example_recall.thisIndex,example_recall.ran,file,word,participant,please enter your date of birth (dd/mm/yyyy),date,expName,psychopyVersion,OS,frameRate,STUDY_ID,SESSION_ID,list,prac_learn_study_loop.thisRepN,prac_learn_study_loop.thisTrialN,prac_learn_study_loop.thisN,prac_learn_study_loop.thisIndex,prac_learn_study_loop.ran,image,prac_learn_test_loop.thisRepN,prac_learn_test_loop.thisTrialN,prac_learn_test_loop.thisN,prac_learn_test_loop.thisIndex,prac_learn_test_loop.ran,learn_study_loop.thisRepN,learn_study_loop.thisTrialN,learn_study_loop.thisN,learn_study_loop.thisIndex,learn_study_loop.ran,list_no,block_no,learn_test_loop.thisRepN,learn_test_loop.thisTrialN,learn_test_loop.thisN,learn_test_loop.thisIndex,learn_test_loop.ran,learn_blocks.thisRepN,learn_blocks.thisTrialN,learn_blocks.thisN,learn_blocks.thisIndex,learn_blocks.ran,block_csv,key_resp_13.keys,key_resp_13.rt,learn_blocks_loop.thisRepN,learn_blocks_loop.thisTrialN,learn_blocks_loop.thisN,learn_blocks_loop.thisIndex,learn_blocks_loop.ran,final_learn_test.thisRepN,final_learn_test.thisTrialN,final_learn_test.thisN,final_learn_test.thisIndex,final_learn_test.ran,prac_wm_test_loop.thisRepN,prac_wm_test_loop.thisTrialN,prac_wm_test_loop.thisN,prac_wm_test_loop.thisIndex,prac_wm_test_loop.ran,wm_recalled1,wm_recall_rt1,wm_probed1,wm_recall_acc1,wm_recalled2,wm_recall_rt2,wm_probed2,wm_recall_acc2,wm_recalled3,wm_recall_rt3,wm_probed3,wm_recall_acc3,wm_recalled4,wm_recall_rt4,wm_probed4,wm_recall_acc4,prac_wm_trial_loop.thisRepN,prac_wm_trial_loop.thisTrialN,prac_wm_trial_loop.thisN,prac_wm_trial_loop.thisIndex,prac_wm_trial_loop.ran,word1,image1,file1,item_type1,word2,image2,file2,item_type2,word4,image4,file4,item_type4,word3,image3,file3,item_type3,wm_test_loop.thisRepN,wm_test_loop.thisTrialN,wm_test_loop.thisN,wm_test_loop.thisIndex,wm_test_loop.ran,wm_trial_loop.thisRepN,wm_trial_loop.thisTrialN,wm_trial_loop.thisN,wm_trial_loop.thisIndex,wm_trial_loop.ran
y,61.73072,TOUGH,6.32371,1,0,0,0,0,1,stimuli/images/PICTURE_747.png,TOUGH,5cf12ddbf17e370017a278c5,31081997,2020-09-02_12h32.51.613,proactive3.2,2020.1.2,MacIntel,60,5f47c0b9b035471e11593a5c,5f4f81a84873f20383e2d723,6,,,,,,,,,,,,,,,,,,,,,,,,,,,,,,,,,,,,,,,,,,,,,,,,,,,,,,,,,,,,,,,,,,,,,,,,,,,,,,,,,,,,,,,,,,,,,
,,,,,,,,,,stimuli/images/PICTURE_697.png,KILLER,5cf12ddbf17e370017a278c5,31081997,2020-09-02_12h32.51.613,proactive3.2,2020.1.2,MacIntel,60,5f47c0b9b035471e11593a5c,5f4f81a84873f20383e2d723,6,0,0,0,4,1,peach,,,,,,,,,,,,,,,,,,,,,,,,,,,,,,,,,,,,,,,,,,,,,,,,,,,,,,,,,,,,,,,,,,,,,,,,,,,,,,,,,,,,,,,
,,,,,,,,,,stimuli/images/PICTURE_378.png,LOSS,5cf12ddbf17e370017a278c5,31081997,2020-09-02_12h32.51.613,proactive3.2,2020.1.2,MacIntel,60,5f47c0b9b035471e11593a5c,5f4f81a84873f20383e2d723,6,0,1,1,2,1,lobster,,,,,,,,,,,,,,,,,,,,,,,,,,,,,,,,,,,,,,,,,,,,,,,,,,,,,,,,,,,,,,,,,,,,,,,,,,,,,,,,,,,,,,,
,,,,,,,,,,stimuli/images/PICTURE_727.png,CELL,5cf12ddbf17e370017a278c5,31081997,2020-09-02_12h32.51.613,proactive3.2,2020.1.2,MacIntel,60,5f47c0b9b035471e11593a5c,5f4f81a84873f20383e2d723,6,0,2,2,1,1,hose,,,,,,,,,,,,,,,,,,,,,,,,,,,,,,,,,,,,,,,,,,,,,,,,,,,,,,,,,,,,,,,,,,,,,,,,,,,,,,,,,,,,,,,
,,,,,,,,,,stimuli/images/PICTURE_658.png,DEVIL,5cf12ddbf17e370017a278c5,31081997,2020-09-02_12h32.51.613,proactive3.2,2020.1.2,MacIntel,60,5f47c0b9b035471e11593a5c,5f4f81a84873f20383e2d723,6,0,3,3,3,1,crow,,,,,,,,,,,,,,,,,,,,,,,,,,,,,,,,,,,,,,,,,,,,,,,,,,,,,,,,,,,,,,,,,,,,,,,,,,,,,,,,,,,,,,,
,,LOSS,3.02227,1,,,,,,stimuli/images/PICTURE_378.png,LOSS,5cf12ddbf17e370017a278c5,31081997,2020-09-02_12h32.51.613,proactive3.2,2020.1.2,MacIntel,60,5f47c0b9b035471e11593a5c,5f4f81a84873f20383e2d723,6,,,,,,lobster,0,0,0,2,1,,,,,,,,,,,,,,,,,,,,,,,,,,,,,,,,,,,,,,,,,,,,,,,,,,,,,,,,,,,,,,,,,,,,,,,,,,,,,,,,,,
,,GENIUS,2.826125,1,,,,,,stimuli/images/PICTURE_269.png,GENIUS,5cf12ddbf17e370017a278c5,31081997,2020-09-02_12h32.51.613,proactive3.2,2020.1.2,MacIntel,60,5f47c0b9b035471e11593a5c,5f4f81a84873f20383e2d723,6,,,,,,chameleon,0,1,1,0,1,,,,,,,,,,,,,,,,,,,,,,,,,,,,,,,,,,,,,,,,,,,,,,,,,,,,,,,,,,,,,,,,,,,,,,,,,,,,,,,,,,
,,CELL,1.92726,1,,,,,,stimuli/images/PICTURE_727.png,CELL,5cf12ddbf17e370017a278c5,31081997,2020-09-02_12h32.51.613,proactive3.2,2020.1.2,MacIntel,60,5f47c0b9b035471e11593a5c,5f4f81a84873f20383e2d723,6,,,,,,hose,0,2,2,1,1,,,,,,,,,,,,,,,,,,,,,,,,,,,,,,,,,,,,,,,,,,,,,,,,,,,,,,,,,,,,,,,,,,,,,,,,,,,,,,,,,,
,,KILLER,4.771125,1,,,,,,stimuli/images/PICTURE_697.png,KILLER,5cf12ddbf17e370017a278c5,31081997,2020-09-02_12h32.51.613,proactive3.2,2020.1.2,MacIntel,60,5f47c0b9b035471e11593a5c,5f4f81a84873f20383e2d723,6,,,,,,peach,0,3,3,4,1,,,,,,,,,,,,,,,,,,,,,,,,,,,,,,,,,,,,,,,,,,,,,,,,,,,,,,,,,,,,,,,,,,,,,,,,,,,,,,,,,,
,,DEVIL,2.744075,1,,,,,,stimuli/images/PICTURE_658.png,DEVIL,5cf12ddbf17e370017a278c5,31081997,2020-09-02_12h32.51.613,proactive3.2,2020.1.2,MacIntel,60,5f47c0b9b035471e11593a5c,5f4f81a84873f20383e2d723,6,,,,,,crow,0,4,4,3,1,,,,,,,,,,,,,,,,,,,,,,,,,,,,,,,,,,,,,,,,,,,,,,,,,,,,,,,,,,,,,,,,,,,,,,,,,,,,,,,,,,
,,,,,,,,,,stimuli/images/PICTURE_108.png,POLICY,5cf12ddbf17e370017a278c5,31081997,2020-09-02_12h32.51.613,proactive3.2,2020.1.2,MacIntel,60,5f47c0b9b035471e11593a5c,5f4f81a84873f20383e2d723,6,,,,,,calendar,,,,,,0,0,0,22,1,3,1,,,,,,,,,,,,,,,,,,,,,,,,,,,,,,,,,,,,,,,,,,,,,,,,,,,,,,,,,,,,,,,,,,,,,,,,,,,
,,,,,,,,,,stimuli/images/PICTURE_403.png,TOILET,5cf12ddbf17e370017a278c5,31081997,2020-09-02_12h32.51.613,proactive3.2,2020.1.2,MacIntel,60,5f47c0b9b035471e11593a5c,5f4f81a84873f20383e2d723,6,,,,,,cathedral,,,,,,0,1,1,25,1,3,1,,,,,,,,,,,,,,,,,,,,,,,,,,,,,,,,,,,,,,,,,,,,,,,,,,,,,,,,,,,,,,,,,,,,,,,,,,,
,,,,,,,,,,stimuli/images/PICTURE_383.png,SERIES,5cf12ddbf17e370017a278c5,31081997,2020-09-02_12h32.51.613,proactive3.2,2020.1.2,MacIntel,60,5f47c0b9b035471e11593a5c,5f4f81a84873f20383e2d723,6,,,,,,coin,,,,,,0,2,2,46,1,5,1,,,,,,,,,,,,,,,,,,,,,,,,,,,,,,,,,,,,,,,,,,,,,,,,,,,,,,,,,,,,,,,,,,,,,,,,,,,
,,,,,,,,,,stimuli/images/PICTURE_327.png,SERIES,5cf12ddbf17e370017a278c5,31081997,2020-09-02_12h32.51.613,proactive3.2,2020.1.2,MacIntel,60,5f47c0b9b035471e11593a5c,5f4f81a84873f20383e2d723,6,,,,,,helmet,,,,,,0,3,3,3,1,1,1,,,,,,,,,,,,,,,,,,,,,,,,,,,,,,,,,,,,,,,,,,,,,,,,,,,,,,,,,,,,,,,,,,,,,,,,,,,
,,,,,,,,,,stimuli/images/PICTURE_708.png,RECORD,5cf12ddbf17e370017a278c5,31081997,2020-09-02_12h32.51.613,proactive3.2,2020.1.2,MacIntel,60,5f47c0b9b035471e11593a5c,5f4f81a84873f20383e2d723,6,,,,,,monkey,,,,,,0,4,4,58,1,6,1,,,,,,,,,,,,,,,,,,,,,,,,,,,,,,,,,,,,,,,,,,,,,,,,,,,,,,,,,,,,,,,,,,,,,,,,,,,
,,,,,,,,,,stimuli/images/PICTURE_667.png,RIVER,5cf12ddbf17e370017a278c5,31081997,2020-09-02_12h32.51.613,proactive3.2,2020.1.2,MacIntel,60,5f47c0b9b035471e11593a5c,5f4f81a84873f20383e2d723,6,,,,,,daisy,,,,,,0,5,5,10,1,2,1,,,,,,,,,,,,,,,,,,,,,,,,,,,,,,,,,,,,,,,,,,,,,,,,,,,,,,,,,,,,,,,,,,,,,,,,,,,
,,,,,,,,,,stimuli/images/PICTURE_467.png,POLICY,5cf12ddbf17e370017a278c5,31081997,2020-09-02_12h32.51.613,proactive3.2,2020.1.2,MacIntel,60,5f47c0b9b035471e11593a5c,5f4f81a84873f20383e2d723,6,,,,,,peg,,,,,,0,6,6,53,1,6,1,,,,,,,,,,,,,,,,,,,,,,,,,,,,,,,,,,,,,,,,,,,,,,,,,,,,,,,,,,,,,,,,,,,,,,,,,,,
,,,,,,,,,,stimuli/images/PICTURE_308.png,FAMILY,5cf12ddbf17e370017a278c5,31081997,2020-09-02_12h32.51.613,proactive3.2,2020.1.2,MacIntel,60,5f47c0b9b035471e11593a5c,5f4f81a84873f20383e2d723,6,,,,,,dice,,,,,,0,7,7,36,1,4,1,,,,,,,,,,,,,,,,,,,,,,,,,,,,,,,,,,,,,,,,,,,,,,,,,,,,,,,,,,,,,,,,,,,,,,,,,,,
,,,,,,,,,,stimuli/images/PICTURE_340.png,LETTER,5cf12ddbf17e370017a278c5,31081997,2020-09-02_12h32.51.613,proactive3.2,2020.1.2,MacIntel,60,5f47c0b9b035471e11593a5c,5f4f81a84873f20383e2d723,6,,,,,,mirror,,,,,,0,8,8,24,1,3,1,,,,,,,,,,,,,,,,,,,,,,,,,,,,,,,,,,,,,,,,,,,,,,,,,,,,,,,,,,,,,,,,,,,,,,,,,,,
,,,,,,,,,,stimuli/images/PICTURE_296.png,LIFE,5cf12ddbf17e370017a278c5,31081997,2020-09-02_12h32.51.613,proactive3.2,2020.1.2,MacIntel,60,5f47c0b9b035471e11593a5c,5f4f81a84873f20383e2d723,6,,,,,,bolt,,,,,,0,9,9,57,1,6,1,,,,,,,,,,,,,,,,,,,,,,,,,,,,,,,,,,,,,,,,,,,,,,,,,,,,,,,,,,,,,,,,,,,,,,,,,,,
,,,,,,,,,,stimuli/images/PICTURE_744.png,WEAPON,5cf12ddbf17e370017a278c5,31081997,2020-09-02_12h32.51.613,proactive3.2,2020.1.2,MacIntel,60,5f47c0b9b035471e11593a5c,5f4f81a84873f20383e2d723,6,,,,,,ring,,,,,,0,10,10,50,1,6,1,,,,,,,,,,,,,,,,,,,,,,,,,,,,,,,,,,,,,,,,,,,,,,,,,,,,,,,,,,,,,,,,,,,,,,,,,,,
,,,,,,,,,,stimuli/images/PICTURE_504.png,YEAR,5cf12ddbf17e370017a278c5,31081997,2020-09-02_12h32.51.613,proactive3.2,2020.1.2,MacIntel,60,5f47c0b9b035471e11593a5c,5f4f81a84873f20383e2d723,6,,,,,,wheel,,,,,,0,11,11,13,1,2,1,,,,,,,,,,,,,,,,,,,,,,,,,,,,,,,,,,,,,,,,,,,,,,,,,,,,,,,,,,,,,,,,,,,,,,,,,,,
,,,,,,,,,,stimuli/images/PICTURE_85.png,NATION,5cf12ddbf17e370017a278c5,31081997,2020-09-02_12h32.51.613,proactive3.2,2020.1.2,MacIntel,60,5f47c0b9b035471e11593a5c,5f4f81a84873f20383e2d723,6,,,,,,diamond,,,,,,0,12,12,5,1,1,1,,,,,,,,,,,,,,,,,,,,,,,,,,,,,,,,,,,,,,,,,,,,,,,,,,,,,,,,,,,,,,,,,,,,,,,,,,,
,,,,,,,,,,stimuli/images/PICTURE_147.png,YEAR,5cf12ddbf17e370017a278c5,31081997,2020-09-02_12h32.51.613,proactive3.2,2020.1.2,MacIntel,60,5f47c0b9b035471e11593a5c,5f4f81a84873f20383e2d723,6,,,,,,hanger,,,,,,0,13,13,21,1,3,1,,,,,,,,,,,,,,,,,,,,,,,,,,,,,,,,,,,,,,,,,,,,,,,,,,,,,,,,,,,,,,,,,,,,,,,,,,,
,,,,,,,,,,stimuli/images/PICTURE_655.png,TOILET,5cf12ddbf17e370017a278c5,31081997,2020-09-02_12h32.51.613,proactive3.2,2020.1.2,MacIntel,60,5f47c0b9b035471e11593a5c,5f4f81a84873f20383e2d723,6,,,,,,megaphone,,,,,,0,14,14,12,1,2,1,,,,,,,,,,,,,,,,,,,,,,,,,,,,,,,,,,,,,,,,,,,,,,,,,,,,,,,,,,,,,,,,,,,,,,,,,,,
,,,,,,,,,,stimuli/images/PICTURE_449.png,DUDE,5cf12ddbf17e370017a278c5,31081997,2020-09-02_12h32.51.613,proactive3.2,2020.1.2,MacIntel,60,5f47c0b9b035471e11593a5c,5f4f81a84873f20383e2d723,6,,,,,,bench,,,,,,0,15,15,17,1,2,1,,,,,,,,,,,,,,,,,,,,,,,,,,,,,,,,,,,,,,,,,,,,,,,,,,,,,,,,,,,,,,,,,,,,,,,,,,,
,,,,,,,,,,stimuli/images/PICTURE_750.png,HOTEL,5cf12ddbf17e370017a278c5,31081997,2020-09-02_12h32.51.613,proactive3.2,2020.1.2,MacIntel,60,5f47c0b9b035471e11593a5c,5f4f81a84873f20383e2d723,6,,,,,,kettle,,,,,,0,16,16,27,1,3,1,,,,,,,,,,,,,,,,,,,,,,,,,,,,,,,,,,,,,,,,,,,,,,,,,,,,,,,,,,,,,,,,,,,,,,,,,,,
,,,,,,,,,,stimuli/images/PICTURE_147.png,WOMEN,5cf12ddbf17e370017a278c5,31081997,2020-09-02_12h32.51.613,proactive3.2,2020.1.2,MacIntel,60,5f47c0b9b035471e11593a5c,5f4f81a84873f20383e2d723,6,,,,,,hanger,,,,,,0,17,17,7,1,1,1,,,,,,,,,,,,,,,,,,,,,,,,,,,,,,,,,,,,,,,,,,,,,,,,,,,,,,,,,,,,,,,,,,,,,,,,,,,
,,,,,,,,,,stimuli/images/PICTURE_487.png,GIRL,5cf12ddbf17e370017a278c5,31081997,2020-09-02_12h32.51.613,proactive3.2,2020.1.2,MacIntel,60,5f47c0b9b035471e11593a5c,5f4f81a84873f20383e2d723,6,,,,,,basket,,,,,,0,18,18,45,1,5,1,,,,,,,,,,,,,,,,,,,,,,,,,,,,,,,,,,,,,,,,,,,,,,,,,,,,,,,,,,,,,,,,,,,,,,,,,,,
,,,,,,,,,,stimuli/images/PICTURE_405.png,PLENTY,5cf12ddbf17e370017a278c5,31081997,2020-09-02_12h32.51.613,proactive3.2,2020.1.2,MacIntel,60,5f47c0b9b035471e11593a5c,5f4f81a84873f20383e2d723,6,,,,,,anchor,,,,,,0,19,19,23,1,3,1,,,,,,,,,,,,,,,,,,,,,,,,,,,,,,,,,,,,,,,,,,,,,,,,,,,,,,,,,,,,,,,,,,,,,,,,,,,
,,,,,,,,,,stimuli/images/PICTURE_33.png,FRIEND,5cf12ddbf17e370017a278c5,31081997,2020-09-02_12h32.51.613,proactive3.2,2020.1.2,MacIntel,60,5f47c0b9b035471e11593a5c,5f4f81a84873f20383e2d723,6,,,,,,frame,,,,,,0,20,20,8,1,1,1,,,,,,,,,,,,,,,,,,,,,,,,,,,,,,,,,,,,,,,,,,,,,,,,,,,,,,,,,,,,,,,,,,,,,,,,,,,
,,,,,,,,,,stimuli/images/PICTURE_339.png,CLIENT,5cf12ddbf17e370017a278c5,31081997,2020-09-02_12h32.51.613,proactive3.2,2020.1.2,MacIntel,60,5f47c0b9b035471e11593a5c,5f4f81a84873f20383e2d723,6,,,,,,backpack,,,,,,0,21,21,11,1,2,1,,,,,,,,,,,,,,,,,,,,,,,,,,,,,,,,,,,,,,,,,,,,,,,,,,,,,,,,,,,,,,,,,,,,,,,,,,,
,,,,,,,,,,stimuli/images/PICTURE_108.png,FLIGHT,5cf12ddbf17e370017a278c5,31081997,2020-09-02_12h32.51.613,proactive3.2,2020.1.2,MacIntel,60,5f47c0b9b035471e11593a5c,5f4f81a84873f20383e2d723,6,,,,,,calendar,,,,,,0,22,22,59,1,6,1,,,,,,,,,,,,,,,,,,,,,,,,,,,,,,,,,,,,,,,,,,,,,,,,,,,,,,,,,,,,,,,,,,,,,,,,,,,
,,,,,,,,,,stimuli/images/PICTURE_68.png,MILE,5cf12ddbf17e370017a278c5,31081997,2020-09-02_12h32.51.613,proactive3.2,2020.1.2,MacIntel,60,5f47c0b9b035471e11593a5c,5f4f81a84873f20383e2d723,6,,,,,,candle,,,,,,0,23,23,51,1,6,1,,,,,,,,,,,,,,,,,,,,,,,,,,,,,,,,,,,,,,,,,,,,,,,,,,,,,,,,,,,,,,,,,,,,,,,,,,,
,,,,,,,,,,stimuli/images/PICTURE_403.png,WRITER,5cf12ddbf17e370017a278c5,31081997,2020-09-02_12h32.51.613,proactive3.2,2020.1.2,MacIntel,60,5f47c0b9b035471e11593a5c,5f4f81a84873f20383e2d723,6,,,,,,cathedral,,,,,,0,24,24,31,1,4,1,,,,,,,,,,,,,,,,,,,,,,,,,,,,,,,,,,,,,,,,,,,,,,,,,,,,,,,,,,,,,,,,,,,,,,,,,,,
,,,,,,,,,,stimuli/images/PICTURE_327.png,CASINO,5cf12ddbf17e370017a278c5,31081997,2020-09-02_12h32.51.613,proactive3.2,2020.1.2,MacIntel,60,5f47c0b9b035471e11593a5c,5f4f81a84873f20383e2d723,6,,,,,,helmet,,,,,,0,25,25,20,1,3,1,,,,,,,,,,,,,,,,,,,,,,,,,,,,,,,,,,,,,,,,,,,,,,,,,,,,,,,,,,,,,,,,,,,,,,,,,,,
,,,,,,,,,,stimuli/images/PICTURE_233.png,LOTS,5cf12ddbf17e370017a278c5,31081997,2020-09-02_12h32.51.613,proactive3.2,2020.1.2,MacIntel,60,5f47c0b9b035471e11593a5c,5f4f81a84873f20383e2d723,6,,,,,,salt,,,,,,0,26,26,42,1,5,1,,,,,,,,,,,,,,,,,,,,,,,,,,,,,,,,,,,,,,,,,,,,,,,,,,,,,,,,,,,,,,,,,,,,,,,,,,,
,,,,,,,,,,stimuli/images/PICTURE_2.png,FLIGHT,5cf12ddbf17e370017a278c5,31081997,2020-09-02_12h32.51.613,proactive3.2,2020.1.2,MacIntel,60,5f47c0b9b035471e11593a5c,5f4f81a84873f20383e2d723,6,,,,,,tyre,,,,,,0,27,27,15,1,2,1,,,,,,,,,,,,,,,,,,,,,,,,,,,,,,,,,,,,,,,,,,,,,,,,,,,,,,,,,,,,,,,,,,,,,,,,,,,
,,,,,,,,,,stimuli/images/PICTURE_203.png,GODS,5cf12ddbf17e370017a278c5,31081997,2020-09-02_12h32.51.613,proactive3.2,2020.1.2,MacIntel,60,5f47c0b9b035471e11593a5c,5f4f81a84873f20383e2d723,6,,,,,,cap,,,,,,0,28,28,30,1,4,1,,,,,,,,,,,,,,,,,,,,,,,,,,,,,,,,,,,,,,,,,,,,,,,,,,,,,,,,,,,,,,,,,,,,,,,,,,,
,,,,,,,,,,stimuli/images/PICTURE_32.png,PILLS,5cf12ddbf17e370017a278c5,31081997,2020-09-02_12h32.51.613,proactive3.2,2020.1.2,MacIntel,60,5f47c0b9b035471e11593a5c,5f4f81a84873f20383e2d723,6,,,,,,crown,,,,,,0,29,29,18,1,2,1,,,,,,,,,,,,,,,,,,,,,,,,,,,,,,,,,,,,,,,,,,,,,,,,,,,,,,,,,,,,,,,,,,,,,,,,,,,
,,,,,,,,,,stimuli/images/PICTURE_68.png,ROOF,5cf12ddbf17e370017a278c5,31081997,2020-09-02_12h32.51.613,proactive3.2,2020.1.2,MacIntel,60,5f47c0b9b035471e11593a5c,5f4f81a84873f20383e2d723,6,,,,,,candle,,,,,,0,30,30,38,1,4,1,,,,,,,,,,,,,,,,,,,,,,,,,,,,,,,,,,,,,,,,,,,,,,,,,,,,,,,,,,,,,,,,,,,,,,,,,,,
,,,,,,,,,,stimuli/images/PICTURE_504.png,COPS,5cf12ddbf17e370017a278c5,31081997,2020-09-02_12h32.51.613,proactive3.2,2020.1.2,MacIntel,60,5f47c0b9b035471e11593a5c,5f4f81a84873f20383e2d723,6,,,,,,wheel,,,,,,0,31,31,52,1,6,1,,,,,,,,,,,,,,,,,,,,,,,,,,,,,,,,,,,,,,,,,,,,,,,,,,,,,,,,,,,,,,,,,,,,,,,,,,,
,,,,,,,,,,stimuli/images/PICTURE_32.png,KIND,5cf12ddbf17e370017a278c5,31081997,2020-09-02_12h32.51.613,proactive3.2,2020.1.2,MacIntel,60,5f47c0b9b035471e11593a5c,5f4f81a84873f20383e2d723,6,,,,,,crown,,,,,,0,32,32,35,1,4,1,,,,,,,,,,,,,,,,,,,,,,,,,,,,,,,,,,,,,,,,,,,,,,,,,,,,,,,,,,,,,,,,,,,,,,,,,,,
,,,,,,,,,,stimuli/images/PICTURE_564.png,BATH,5cf12ddbf17e370017a278c5,31081997,2020-09-02_12h32.51.613,proactive3.2,2020.1.2,MacIntel,60,5f47c0b9b035471e11593a5c,5f4f81a84873f20383e2d723,6,,,,,,spoon,,,,,,0,33,33,26,1,3,1,,,,,,,,,,,,,,,,,,,,,,,,,,,,,,,,,,,,,,,,,,,,,,,,,,,,,,,,,,,,,,,,,,,,,,,,,,,
,,,,,,,,,,stimuli/images/PICTURE_340.png,VALLEY,5cf12ddbf17e370017a278c5,31081997,2020-09-02_12h32.51.613,proactive3.2,2020.1.2,MacIntel,60,5f47c0b9b035471e11593a5c,5f4f81a84873f20383e2d723,6,,,,,,mirror,,,,,,0,34,34,54,1,6,1,,,,,,,,,,,,,,,,,,,,,,,,,,,,,,,,,,,,,,,,,,,,,,,,,,,,,,,,,,,,,,,,,,,,,,,,,,,
,,,,,,,,,,stimuli/images/PICTURE_403.png,RIVER,5cf12ddbf17e370017a278c5,31081997,2020-09-02_12h32.51.613,proactive3.2,2020.1.2,MacIntel,60,5f47c0b9b035471e11593a5c,5f4f81a84873f20383e2d723,6,,,,,,cathedral,,,,,,0,35,35,40,1,5,1,,,,,,,,,,,,,,,,,,,,,,,,,,,,,,,,,,,,,,,,,,,,,,,,,,,,,,,,,,,,,,,,,,,,,,,,,,,
,,,,,,,,,,stimuli/images/PICTURE_491.png,GLASS,5cf12ddbf17e370017a278c5,31081997,2020-09-02_12h32.51.613,proactive3.2,2020.1.2,MacIntel,60,5f47c0b9b035471e11593a5c,5f4f81a84873f20383e2d723,6,,,,,,rug,,,,,,0,36,36,14,1,2,1,,,,,,,,,,,,,,,,,,,,,,,,,,,,,,,,,,,,,,,,,,,,,,,,,,,,,,,,,,,,,,,,,,,,,,,,,,,
,,,,,,,,,,stimuli/images/PICTURE_469.png,AGENT,5cf12ddbf17e370017a278c5,31081997,2020-09-02_12h32.51.613,proactive3.2,2020.1.2,MacIntel,60,5f47c0b9b035471e11593a5c,5f4f81a84873f20383e2d723,6,,,,,,stool,,,,,,0,37,37,16,1,2,1,,,,,,,,,,,,,,,,,,,,,,,,,,,,,,,,,,,,,,,,,,,,,,,,,,,,,,,,,,,,,,,,,,,,,,,,,,,
,,,,,,,,,,stimuli/images/PICTURE_85.png,TOILET,5cf12ddbf17e370017a278c5,31081997,2020-09-02_12h32.51.613,proactive3.2,2020.1.2,MacIntel,60,5f47c0b9b035471e11593a5c,5f4f81a84873f20383e2d723,6,,,,,,diamond,,,,,,0,38,38,48,1,5,1,,,,,,,,,,,,,,,,,,,,,,,,,,,,,,,,,,,,,,,,,,,,,,,,,,,,,,,,,,,,,,,,,,,,,,,,,,,
,,,,,,,,,,stimuli/images/PICTURE_380.png,HONEY,5cf12ddbf17e370017a278c5,31081997,2020-09-02_12h32.51.613,proactive3.2,2020.1.2,MacIntel,60,5f47c0b9b035471e11593a5c,5f4f81a84873f20383e2d723,6,,,,,,gorilla,,,,,,0,39,39,19,1,2,1,,,,,,,,,,,,,,,,,,,,,,,,,,,,,,,,,,,,,,,,,,,,,,,,,,,,,,,,,,,,,,,,,,,,,,,,,,,
,,,,,,,,,,stimuli/images/PICTURE_177.png,WRITER,5cf12ddbf17e370017a278c5,31081997,2020-09-02_12h32.51.613,proactive3.2,2020.1.2,MacIntel,60,5f47c0b9b035471e11593a5c,5f4f81a84873f20383e2d723,6,,,,,,mushroom,,,,,,0,40,40,41,1,5,1,,,,,,,,,,,,,,,,,,,,,,,,,,,,,,,,,,,,,,,,,,,,,,,,,,,,,,,,,,,,,,,,,,,,,,,,,,,
,,,,,,,,,,stimuli/images/PICTURE_296.png,LOTS,5cf12ddbf17e370017a278c5,31081997,2020-09-02_12h32.51.613,proactive3.2,2020.1.2,MacIntel,60,5f47c0b9b035471e11593a5c,5f4f81a84873f20383e2d723,6,,,,,,bolt,,,,,,0,41,41,9,1,1,1,,,,,,,,,,,,,,,,,,,,,,,,,,,,,,,,,,,,,,,,,,,,,,,,,,,,,,,,,,,,,,,,,,,,,,,,,,,
,,,,,,,,,,stimuli/images/PICTURE_677.png,APPLE,5cf12ddbf17e370017a278c5,31081997,2020-09-02_12h32.51.613,proactive3.2,2020.1.2,MacIntel,60,5f47c0b9b035471e11593a5c,5f4f81a84873f20383e2d723,6,,,,,,map,,,,,,0,42,42,43,1,5,1,,,,,,,,,,,,,,,,,,,,,,,,,,,,,,,,,,,,,,,,,,,,,,,,,,,,,,,,,,,,,,,,,,,,,,,,,,,
,,,,,,,,,,stimuli/images/PICTURE_208.png,SYSTEM,5cf12ddbf17e370017a278c5,31081997,2020-09-02_12h32.51.613,proactive3.2,2020.1.2,MacIntel,60,5f47c0b9b035471e11593a5c,5f4f81a84873f20383e2d723,6,,,,,,microphone,,,,,,0,43,43,32,1,4,1,,,,,,,,,,,,,,,,,,,,,,,,,,,,,,,,,,,,,,,,,,,,,,,,,,,,,,,,,,,,,,,,,,,,,,,,,,,
,,,,,,,,,,stimuli/images/PICTURE_380.png,CANDY,5cf12ddbf17e370017a278c5,31081997,2020-09-02_12h32.51.613,proactive3.2,2020.1.2,MacIntel,60,5f47c0b9b035471e11593a5c,5f4f81a84873f20383e2d723,6,,,,,,gorilla,,,,,,0,44,44,0,1,1,1,,,,,,,,,,,,,,,,,,,,,,,,,,,,,,,,,,,,,,,,,,,,,,,,,,,,,,,,,,,,,,,,,,,,,,,,,,,
,,,,,,,,,,stimuli/images/PICTURE_95.png,HONEY,5cf12ddbf17e370017a278c5,31081997,2020-09-02_12h32.51.613,proactive3.2,2020.1.2,MacIntel,60,5f47c0b9b035471e11593a5c,5f4f81a84873f20383e2d723,6,,,,,,suitcase,,,,,,0,45,45,44,1,5,1,,,,,,,,,,,,,,,,,,,,,,,,,,,,,,,,,,,,,,,,,,,,,,,,,,,,,,,,,,,,,,,,,,,,,,,,,,,
,,,,,,,,,,stimuli/images/PICTURE_383.png,WRITER,5cf12ddbf17e370017a278c5,31081997,2020-09-02_12h32.51.613,proactive3.2,2020.1.2,MacIntel,60,5f47c0b9b035471e11593a5c,5f4f81a84873f20383e2d723,6,,,,,,coin,,,,,,0,46,46,28,1,3,1,,,,,,,,,,,,,,,,,,,,,,,,,,,,,,,,,,,,,,,,,,,,,,,,,,,,,,,,,,,,,,,,,,,,,,,,,,,
,,,,,,,,,,stimuli/images/PICTURE_285.png,LIFE,5cf12ddbf17e370017a278c5,31081997,2020-09-02_12h32.51.613,proactive3.2,2020.1.2,MacIntel,60,5f47c0b9b035471e11593a5c,5f4f81a84873f20383e2d723,6,,,,,,carrot,,,,,,0,47,47,33,1,4,1,,,,,,,,,,,,,,,,,,,,,,,,,,,,,,,,,,,,,,,,,,,,,,,,,,,,,,,,,,,,,,,,,,,,,,,,,,,
,,,,,,,,,,stimuli/images/PICTURE_504.png,ARTIST,5cf12ddbf17e370017a278c5,31081997,2020-09-02_12h32.51.613,proactive3.2,2020.1.2,MacIntel,60,5f47c0b9b035471e11593a5c,5f4f81a84873f20383e2d723,6,,,,,,wheel,,,,,,0,48,48,49,1,5,1,,,,,,,,,,,,,,,,,,,,,,,,,,,,,,,,,,,,,,,,,,,,,,,,,,,,,,,,,,,,,,,,,,,,,,,,,,,
,,,,,,,,,,stimuli/images/PICTURE_95.png,MILLER,5cf12ddbf17e370017a278c5,31081997,2020-09-02_12h32.51.613,proactive3.2,2020.1.2,MacIntel,60,5f47c0b9b035471e11593a5c,5f4f81a84873f20383e2d723,6,,,,,,suitcase,,,,,,0,49,49,56,1,6,1,,,,,,,,,,,,,,,,,,,,,,,,,,,,,,,,,,,,,,,,,,,,,,,,,,,,,,,,,,,,,,,,,,,,,,,,,,,
,,,,,,,,,,stimuli/images/PICTURE_685.png,PENNY,5cf12ddbf17e370017a278c5,31081997,2020-09-02_12h32.51.613,proactive3.2,2020.1.2,MacIntel,60,5f47c0b9b035471e11593a5c,5f4f81a84873f20383e2d723,6,,,,,,goose,,,,,,0,50,50,4,1,1,1,,,,,,,,,,,,,,,,,,,,,,,,,,,,,,,,,,,,,,,,,,,,,,,,,,,,,,,,,,,,,,,,,,,,,,,,,,,
,,,,,,,,,,stimuli/images/PICTURE_491.png,RIVER,5cf12ddbf17e370017a278c5,31081997,2020-09-02_12h32.51.613,proactive3.2,2020.1.2,MacIntel,60,5f47c0b9b035471e11593a5c,5f4f81a84873f20383e2d723,6,,,,,,rug,,,,,,0,51,51,6,1,1,1,,,,,,,,,,,,,,,,,,,,,,,,,,,,,,,,,,,,,,,,,,,,,,,,,,,,,,,,,,,,,,,,,,,,,,,,,,,
,,,,,,,,,,stimuli/images/PICTURE_405.png,YEAR,5cf12ddbf17e370017a278c5,31081997,2020-09-02_12h32.51.613,proactive3.2,2020.1.2,MacIntel,60,5f47c0b9b035471e11593a5c,5f4f81a84873f20383e2d723,6,,,,,,anchor,,,,,,0,52,52,34,1,4,1,,,,,,,,,,,,,,,,,,,,,,,,,,,,,,,,,,,,,,,,,,,,,,,,,,,,,,,,,,,,,,,,,,,,,,,,,,,
,,,,,,,,,,stimuli/images/PICTURE_42.png,BOYS,5cf12ddbf17e370017a278c5,31081997,2020-09-02_12h32.51.613,proactive3.2,2020.1.2,MacIntel,60,5f47c0b9b035471e11593a5c,5f4f81a84873f20383e2d723,6,,,,,,pear,,,,,,0,53,53,55,1,6,1,,,,,,,,,,,,,,,,,,,,,,,,,,,,,,,,,,,,,,,,,,,,,,,,,,,,,,,,,,,,,,,,,,,,,,,,,,,
,,,,,,,,,,stimuli/images/PICTURE_297.png,RIVER,5cf12ddbf17e370017a278c5,31081997,2020-09-02_12h32.51.613,proactive3.2,2020.1.2,MacIntel,60,5f47c0b9b035471e11593a5c,5f4f81a84873f20383e2d723,6,,,,,,aeroplane,,,,,,0,54,54,39,1,4,1,,,,,,,,,,,,,,,,,,,,,,,,,,,,,,,,,,,,,,,,,,,,,,,,,,,,,,,,,,,,,,,,,,,,,,,,,,,
,,,,,,,,,,stimuli/images/PICTURE_203.png,NIGHT,5cf12ddbf17e370017a278c5,31081997,2020-09-02_12h32.51.613,proactive3.2,2020.1.2,MacIntel,60,5f47c0b9b035471e11593a5c,5f4f81a84873f20383e2d723,6,,,,,,cap,,,,,,0,55,55,2,1,1,1,,,,,,,,,,,,,,,,,,,,,,,,,,,,,,,,,,,,,,,,,,,,,,,,,,,,,,,,,,,,,,,,,,,,,,,,,,,
,,,,,,,,,,stimuli/images/PICTURE_95.png,BOYS,5cf12ddbf17e370017a278c5,31081997,2020-09-02_12h32.51.613,proactive3.2,2020.1.2,MacIntel,60,5f47c0b9b035471e11593a5c,5f4f81a84873f20383e2d723,6,,,,,,suitcase,,,,,,0,56,56,1,1,1,1,,,,,,,,,,,,,,,,,,,,,,,,,,,,,,,,,,,,,,,,,,,,,,,,,,,,,,,,,,,,,,,,,,,,,,,,,,,
,,,,,,,,,,stimuli/images/PICTURE_654.png,MONTH,5cf12ddbf17e370017a278c5,31081997,2020-09-02_12h32.51.613,proactive3.2,2020.1.2,MacIntel,60,5f47c0b9b035471e11593a5c,5f4f81a84873f20383e2d723,6,,,,,,pencil,,,,,,0,57,57,29,1,3,1,,,,,,,,,,,,,,,,,,,,,,,,,,,,,,,,,,,,,,,,,,,,,,,,,,,,,,,,,,,,,,,,,,,,,,,,,,,
,,,,,,,,,,stimuli/images/PICTURE_57.png,MOMENT,5cf12ddbf17e370017a278c5,31081997,2020-09-02_12h32.51.613,proactive3.2,2020.1.2,MacIntel,60,5f47c0b9b035471e11593a5c,5f4f81a84873f20383e2d723,6,,,,,,stamp,,,,,,0,58,58,37,1,4,1,,,,,,,,,,,,,,,,,,,,,,,,,,,,,,,,,,,,,,,,,,,,,,,,,,,,,,,,,,,,,,,,,,,,,,,,,,,
,,?,0.000845,0,,,,,,stimuli/images/PICTURE_297.png,RIVER,5cf12ddbf17e370017a278c5,31081997,2020-09-02_12h32.51.613,proactive3.2,2020.1.2,MacIntel,60,5f47c0b9b035471e11593a5c,5f4f81a84873f20383e2d723,6,,,,,,aeroplane,,,,,,,,,,,4,1,0,0,0,39,1,,,,,,,,,,,,,,,,,,,,,,,,,,,,,,,,,,,,,,,,,,,,,,,,,,,,,,,,,,,,,,,,,,,,,,
,,COPS,7.57359,1,,,,,,stimuli/images/PICTURE_504.png,COPS,5cf12ddbf17e370017a278c5,31081997,2020-09-02_12h32.51.613,proactive3.2,2020.1.2,MacIntel,60,5f47c0b9b035471e11593a5c,5f4f81a84873f20383e2d723,6,,,,,,wheel,,,,,,,,,,,6,1,0,1,1,52,1,,,,,,,,,,,,,,,,,,,,,,,,,,,,,,,,,,,,,,,,,,,,,,,,,,,,,,,,,,,,,,,,,,,,,,
,,?,0.00121,0,,,,,,stimuli/images/PICTURE_32.png,KIND,5cf12ddbf17e370017a278c5,31081997,2020-09-02_12h32.51.613,proactive3.2,2020.1.2,MacIntel,60,5f47c0b9b035471e11593a5c,5f4f81a84873f20383e2d723,6,,,,,,crown,,,,,,,,,,,4,1,0,2,2,35,1,,,,,,,,,,,,,,,,,,,,,,,,,,,,,,,,,,,,,,,,,,,,,,,,,,,,,,,,,,,,,,,,,,,,,,
,,?,0.001015,0,,,,,,stimuli/images/PICTURE_403.png,TOILET,5cf12ddbf17e370017a278c5,31081997,2020-09-02_12h32.51.613,proactive3.2,2020.1.2,MacIntel,60,5f47c0b9b035471e11593a5c,5f4f81a84873f20383e2d723,6,,,,,,cathedral,,,,,,,,,,,3,1,0,3,3,25,1,,,,,,,,,,,,,,,,,,,,,,,,,,,,,,,,,,,,,,,,,,,,,,,,,,,,,,,,,,,,,,,,,,,,,,
,,?,0.00073,0,,,,,,stimuli/images/PICTURE_405.png,PLENTY,5cf12ddbf17e370017a278c5,31081997,2020-09-02_12h32.51.613,proactive3.2,2020.1.2,MacIntel,60,5f47c0b9b035471e11593a5c,5f4f81a84873f20383e2d723,6,,,,,,anchor,,,,,,,,,,,3,1,0,4,4,23,1,,,,,,,,,,,,,,,,,,,,,,,,,,,,,,,,,,,,,,,,,,,,,,,,,,,,,,,,,,,,,,,,,,,,,,
,,MILLER,3.034595,1,,,,,,stimuli/images/PICTURE_95.png,MILLER,5cf12ddbf17e370017a278c5,31081997,2020-09-02_12h32.51.613,proactive3.2,2020.1.2,MacIntel,60,5f47c0b9b035471e11593a5c,5f4f81a84873f20383e2d723,6,,,,,,suitcase,,,,,,,,,,,6,1,0,5,5,56,1,,,,,,,,,,,,,,,,,,,,,,,,,,,,,,,,,,,,,,,,,,,,,,,,,,,,,,,,,,,,,,,,,,,,,,
,,?,0.001095,0,,,,,,stimuli/images/PICTURE_449.png,DUDE,5cf12ddbf17e370017a278c5,31081997,2020-09-02_12h32.51.613,proactive3.2,2020.1.2,MacIntel,60,5f47c0b9b035471e11593a5c,5f4f81a84873f20383e2d723,6,,,,,,bench,,,,,,,,,,,2,1,0,6,6,17,1,,,,,,,,,,,,,,,,,,,,,,,,,,,,,,,,,,,,,,,,,,,,,,,,,,,,,,,,,,,,,,,,,,,,,,
,,?,0.00085,0,,,,,,stimuli/images/PICTURE_487.png,GIRL,5cf12ddbf17e370017a278c5,31081997,2020-09-02_12h32.51.613,proactive3.2,2020.1.2,MacIntel,60,5f47c0b9b035471e11593a5c,5f4f81a84873f20383e2d723,6,,,,,,basket,,,,,,,,,,,5,1,0,7,7,45,1,,,,,,,,,,,,,,,,,,,,,,,,,,,,,,,,,,,,,,,,,,,,,,,,,,,,,,,,,,,,,,,,,,,,,,
,,?,0.00065,0,,,,,,stimuli/images/PICTURE_308.png,FAMILY,5cf12ddbf17e370017a278c5,31081997,2020-09-02_12h32.51.613,proactive3.2,2020.1.2,MacIntel,60,5f47c0b9b035471e11593a5c,5f4f81a84873f20383e2d723,6,,,,,,dice,,,,,,,,,,,4,1,0,8,8,36,1,,,,,,,,,,,,,,,,,,,,,,,,,,,,,,,,,,,,,,,,,,,,,,,,,,,,,,,,,,,,,,,,,,,,,,
,,?,0.00071,0,,,,,,stimuli/images/PICTURE_675.png,SALE,5cf12ddbf17e370017a278c5,31081997,2020-09-02_12h32.51.613,proactive3.2,2020.1.2,MacIntel,60,5f47c0b9b035471e11593a5c,5f4f81a84873f20383e2d723,6,,,,,,windmill,,,,,,,,,,,5,1,0,9,9,47,1,,,,,,,,,,,,,,,,,,,,,,,,,,,,,,,,,,,,,,,,,,,,,,,,,,,,,,,,,,,,,,,,,,,,,,
,,?,0.000675,0,,,,,,stimuli/images/PICTURE_95.png,BOYS,5cf12ddbf17e370017a278c5,31081997,2020-09-02_12h32.51.613,proactive3.2,2020.1.2,MacIntel,60,5f47c0b9b035471e11593a5c,5f4f81a84873f20383e2d723,6,,,,,,suitcase,,,,,,,,,,,1,1,0,10,10,1,1,,,,,,,,,,,,,,,,,,,,,,,,,,,,,,,,,,,,,,,,,,,,,,,,,,,,,,,,,,,,,,,,,,,,,,
,,?,0.000555,0,,,,,,stimuli/images/PICTURE_296.png,LOTS,5cf12ddbf17e370017a278c5,31081997,2020-09-02_12h32.51.613,proactive3.2,2020.1.2,MacIntel,60,5f47c0b9b035471e11593a5c,5f4f81a84873f20383e2d723,6,,,,,,bolt,,,,,,,,,,,1,1,0,11,11,9,1,,,,,,,,,,,,,,,,,,,,,,,,,,,,,,,,,,,,,,,,,,,,,,,,,,,,,,,,,,,,,,,,,,,,,,
,,?,0.000535,0,,,,,,stimuli/images/PICTURE_33.png,FRIEND,5cf12ddbf17e370017a278c5,31081997,2020-09-02_12h32.51.613,proactive3.2,2020.1.2,MacIntel,60,5f47c0b9b035471e11593a5c,5f4f81a84873f20383e2d723,6,,,,,,frame,,,,,,,,,,,1,1,0,12,12,8,1,,,,,,,,,,,,,,,,,,,,,,,,,,,,,,,,,,,,,,,,,,,,,,,,,,,,,,,,,,,,,,,,,,,,,,
,,?,0.00054,0,,,,,,stimuli/images/PICTURE_491.png,GLASS,5cf12ddbf17e370017a278c5,31081997,2020-09-02_12h32.51.613,proactive3.2,2020.1.2,MacIntel,60,5f47c0b9b035471e11593a5c,5f4f81a84873f20383e2d723,6,,,,,,rug,,,,,,,,,,,2,1,0,13,13,14,1,,,,,,,,,,,,,,,,,,,,,,,,,,,,,,,,,,,,,,,,,,,,,,,,,,,,,,,,,,,,,,,,,,,,,,
,,?,0.000495,0,,,,,,stimuli/images/PICTURE_383.png,WRITER,5cf12ddbf17e370017a278c5,31081997,2020-09-02_12h32.51.613,proactive3.2,2020.1.2,MacIntel,60,5f47c0b9b035471e11593a5c,5f4f81a84873f20383e2d723,6,,,,,,coin,,,,,,,,,,,3,1,0,14,14,28,1,,,,,,,,,,,,,,,,,,,,,,,,,,,,,,,,,,,,,,,,,,,,,,,,,,,,,,,,,,,,,,,,,,,,,,
,,?,0.00068,0,,,,,,stimuli/images/PICTURE_32.png,PILLS,5cf12ddbf17e370017a278c5,31081997,2020-09-02_12h32.51.613,proactive3.2,2020.1.2,MacIntel,60,5f47c0b9b035471e11593a5c,5f4f81a84873f20383e2d723,6,,,,,,crown,,,,,,,,,,,2,1,0,15,15,18,1,,,,,,,,,,,,,,,,,,,,,,,,,,,,,,,,,,,,,,,,,,,,,,,,,,,,,,,,,,,,,,,,,,,,,,
,,?,0.000655,0,,,,,,stimuli/images/PICTURE_491.png,RIVER,5cf12ddbf17e370017a278c5,31081997,2020-09-02_12h32.51.613,proactive3.2,2020.1.2,MacIntel,60,5f47c0b9b035471e11593a5c,5f4f81a84873f20383e2d723,6,,,,,,rug,,,,,,,,,,,1,1,0,16,16,6,1,,,,,,,,,,,,,,,,,,,,,,,,,,,,,,,,,,,,,,,,,,,,,,,,,,,,,,,,,,,,,,,,,,,,,,
,,?,0.000765,0,,,,,,stimuli/images/PICTURE_327.png,CASINO,5cf12ddbf17e370017a278c5,31081997,2020-09-02_12h32.51.613,proactive3.2,2020.1.2,MacIntel,60,5f47c0b9b035471e11593a5c,5f4f81a84873f20383e2d723,6,,,,,,helmet,,,,,,,,,,,3,1,0,17,17,20,1,,,,,,,,,,,,,,,,,,,,,,,,,,,,,,,,,,,,,,,,,,,,,,,,,,,,,,,,,,,,,,,,,,,,,,
,,?,0.00067,0,,,,,,stimuli/images/PICTURE_2.png,FLIGHT,5cf12ddbf17e370017a278c5,31081997,2020-09-02_12h32.51.613,proactive3.2,2020.1.2,MacIntel,60,5f47c0b9b035471e11593a5c,5f4f81a84873f20383e2d723,6,,,,,,tyre,,,,,,,,,,,2,1,0,18,18,15,1,,,,,,,,,,,,,,,,,,,,,,,,,,,,,,,,,,,,,,,,,,,,,,,,,,,,,,,,,,,,,,,,,,,,,,
,,?,0.000545,0,,,,,,stimuli/images/PICTURE_147.png,WOMEN,5cf12ddbf17e370017a278c5,31081997,2020-09-02_12h32.51.613,proactive3.2,2020.1.2,MacIntel,60,5f47c0b9b035471e11593a5c,5f4f81a84873f20383e2d723,6,,,,,,hanger,,,,,,,,,,,1,1,0,19,19,7,1,,,,,,,,,,,,,,,,,,,,,,,,,,,,,,,,,,,,,,,,,,,,,,,,,,,,,,,,,,,,,,,,,,,,,,
,,?,0.00062,0,,,,,,stimuli/images/PICTURE_677.png,APPLE,5cf12ddbf17e370017a278c5,31081997,2020-09-02_12h32.51.613,proactive3.2,2020.1.2,MacIntel,60,5f47c0b9b035471e11593a5c,5f4f81a84873f20383e2d723,6,,,,,,map,,,,,,,,,,,5,1,0,20,20,43,1,,,,,,,,,,,,,,,,,,,,,,,,,,,,,,,,,,,,,,,,,,,,,,,,,,,,,,,,,,,,,,,,,,,,,,
,,VALLEY,3.84966,1,,,,,,stimuli/images/PICTURE_340.png,VALLEY,5cf12ddbf17e370017a278c5,31081997,2020-09-02_12h32.51.613,proactive3.2,2020.1.2,MacIntel,60,5f47c0b9b035471e11593a5c,5f4f81a84873f20383e2d723,6,,,,,,mirror,,,,,,,,,,,6,1,0,21,21,54,1,,,,,,,,,,,,,,,,,,,,,,,,,,,,,,,,,,,,,,,,,,,,,,,,,,,,,,,,,,,,,,,,,,,,,,
,,?,0.00103,0,,,,,,stimuli/images/PICTURE_233.png,LOTS,5cf12ddbf17e370017a278c5,31081997,2020-09-02_12h32.51.613,proactive3.2,2020.1.2,MacIntel,60,5f47c0b9b035471e11593a5c,5f4f81a84873f20383e2d723,6,,,,,,salt,,,,,,,,,,,5,1,0,22,22,42,1,,,,,,,,,,,,,,,,,,,,,,,,,,,,,,,,,,,,,,,,,,,,,,,,,,,,,,,,,,,,,,,,,,,,,,
,,?,0.001195,0,,,,,,stimuli/images/PICTURE_108.png,POLICY,5cf12ddbf17e370017a278c5,31081997,2020-09-02_12h32.51.613,proactive3.2,2020.1.2,MacIntel,60,5f47c0b9b035471e11593a5c,5f4f81a84873f20383e2d723,6,,,,,,calendar,,,,,,,,,,,3,1,0,23,23,22,1,,,,,,,,,,,,,,,,,,,,,,,,,,,,,,,,,,,,,,,,,,,,,,,,,,,,,,,,,,,,,,,,,,,,,,
,,?,0.00093,0,,,,,,stimuli/images/PICTURE_85.png,NATION,5cf12ddbf17e370017a278c5,31081997,2020-09-02_12h32.51.613,proactive3.2,2020.1.2,MacIntel,60,5f47c0b9b035471e11593a5c,5f4f81a84873f20383e2d723,6,,,,,,diamond,,,,,,,,,,,1,1,0,24,24,5,1,,,,,,,,,,,,,,,,,,,,,,,,,,,,,,,,,,,,,,,,,,,,,,,,,,,,,,,,,,,,,,,,,,,,,,
,,?,0.00076,0,,,,,,stimuli/images/PICTURE_177.png,WRITER,5cf12ddbf17e370017a278c5,31081997,2020-09-02_12h32.51.613,proactive3.2,2020.1.2,MacIntel,60,5f47c0b9b035471e11593a5c,5f4f81a84873f20383e2d723,6,,,,,,mushroom,,,,,,,,,,,5,1,0,25,25,41,1,,,,,,,,,,,,,,,,,,,,,,,,,,,,,,,,,,,,,,,,,,,,,,,,,,,,,,,,,,,,,,,,,,,,,,
,,?,0.000715,0,,,,,,stimuli/images/PICTURE_208.png,SYSTEM,5cf12ddbf17e370017a278c5,31081997,2020-09-02_12h32.51.613,proactive3.2,2020.1.2,MacIntel,60,5f47c0b9b035471e11593a5c,5f4f81a84873f20383e2d723,6,,,,,,microphone,,,,,,,,,,,4,1,0,26,26,32,1,,,,,,,,,,,,,,,,,,,,,,,,,,,,,,,,,,,,,,,,,,,,,,,,,,,,,,,,,,,,,,,,,,,,,,
,,?,0.00182,0,,,,,,stimuli/images/PICTURE_68.png,ROOF,5cf12ddbf17e370017a278c5,31081997,2020-09-02_12h32.51.613,proactive3.2,2020.1.2,MacIntel,60,5f47c0b9b035471e11593a5c,5f4f81a84873f20383e2d723,6,,,,,,candle,,,,,,,,,,,4,1,0,27,27,38,1,,,,,,,,,,,,,,,,,,,,,,,,,,,,,,,,,,,,,,,,,,,,,,,,,,,,,,,,,,,,,,,,,,,,,,
,,?,0.000525,0,,,,,,stimuli/images/PICTURE_380.png,HONEY,5cf12ddbf17e370017a278c5,31081997,2020-09-02_12h32.51.613,proactive3.2,2020.1.2,MacIntel,60,5f47c0b9b035471e11593a5c,5f4f81a84873f20383e2d723,6,,,,,,gorilla,,,,,,,,,,,2,1,0,28,28,19,1,,,,,,,,,,,,,,,,,,,,,,,,,,,,,,,,,,,,,,,,,,,,,,,,,,,,,,,,,,,,,,,,,,,,,,
,,?,0.00072,0,,,,,,stimuli/images/PICTURE_469.png,AGENT,5cf12ddbf17e370017a278c5,31081997,2020-09-02_12h32.51.613,proactive3.2,2020.1.2,MacIntel,60,5f47c0b9b035471e11593a5c,5f4f81a84873f20383e2d723,6,,,,,,stool,,,,,,,,,,,2,1,0,29,29,16,1,,,,,,,,,,,,,,,,,,,,,,,,,,,,,,,,,,,,,,,,,,,,,,,,,,,,,,,,,,,,,,,,,,,,,,
,,?,0.000715,0,,,,,,stimuli/images/PICTURE_564.png,BATH,5cf12ddbf17e370017a278c5,31081997,2020-09-02_12h32.51.613,proactive3.2,2020.1.2,MacIntel,60,5f47c0b9b035471e11593a5c,5f4f81a84873f20383e2d723,6,,,,,,spoon,,,,,,,,,,,3,1,0,30,30,26,1,,,,,,,,,,,,,,,,,,,,,,,,,,,,,,,,,,,,,,,,,,,,,,,,,,,,,,,,,,,,,,,,,,,,,,
,,?,0.00063,0,,,,,,stimuli/images/PICTURE_203.png,GODS,5cf12ddbf17e370017a278c5,31081997,2020-09-02_12h32.51.613,proactive3.2,2020.1.2,MacIntel,60,5f47c0b9b035471e11593a5c,5f4f81a84873f20383e2d723,6,,,,,,cap,,,,,,,,,,,4,1,0,31,31,30,1,,,,,,,,,,,,,,,,,,,,,,,,,,,,,,,,,,,,,,,,,,,,,,,,,,,,,,,,,,,,,,,,,,,,,,
,,?,0.000625,0,,,,,,stimuli/images/PICTURE_750.png,HOTEL,5cf12ddbf17e370017a278c5,31081997,2020-09-02_12h32.51.613,proactive3.2,2020.1.2,MacIntel,60,5f47c0b9b035471e11593a5c,5f4f81a84873f20383e2d723,6,,,,,,kettle,,,,,,,,,,,3,1,0,32,32,27,1,,,,,,,,,,,,,,,,,,,,,,,,,,,,,,,,,,,,,,,,,,,,,,,,,,,,,,,,,,,,,,,,,,,,,,
,,?,0.000575,0,,,,,,stimuli/images/PICTURE_57.png,MOMENT,5cf12ddbf17e370017a278c5,31081997,2020-09-02_12h32.51.613,proactive3.2,2020.1.2,MacIntel,60,5f47c0b9b035471e11593a5c,5f4f81a84873f20383e2d723,6,,,,,,stamp,,,,,,,,,,,4,1,0,33,33,37,1,,,,,,,,,,,,,,,,,,,,,,,,,,,,,,,,,,,,,,,,,,,,,,,,,,,,,,,,,,,,,,,,,,,,,,
,,?,0.000495,0,,,,,,stimuli/images/PICTURE_95.png,HONEY,5cf12ddbf17e370017a278c5,31081997,2020-09-02_12h32.51.613,proactive3.2,2020.1.2,MacIntel,60,5f47c0b9b035471e11593a5c,5f4f81a84873f20383e2d723,6,,,,,,suitcase,,,,,,,,,,,5,1,0,34,34,44,1,,,,,,,,,,,,,,,,,,,,,,,,,,,,,,,,,,,,,,,,,,,,,,,,,,,,,,,,,,,,,,,,,,,,,,
,,?,0.00049,0,,,,,,stimuli/images/PICTURE_685.png,PENNY,5cf12ddbf17e370017a278c5,31081997,2020-09-02_12h32.51.613,proactive3.2,2020.1.2,MacIntel,60,5f47c0b9b035471e11593a5c,5f4f81a84873f20383e2d723,6,,,,,,goose,,,,,,,,,,,1,1,0,35,35,4,1,,,,,,,,,,,,,,,,,,,,,,,,,,,,,,,,,,,,,,,,,,,,,,,,,,,,,,,,,,,,,,,,,,,,,,
,,?,0.00059,0,,,,,,stimuli/images/PICTURE_147.png,YEAR,5cf12ddbf17e370017a278c5,31081997,2020-09-02_12h32.51.613,proactive3.2,2020.1.2,MacIntel,60,5f47c0b9b035471e11593a5c,5f4f81a84873f20383e2d723,6,,,,,,hanger,,,,,,,,,,,3,1,0,36,36,21,1,,,,,,,,,,,,,,,,,,,,,,,,,,,,,,,,,,,,,,,,,,,,,,,,,,,,,,,,,,,,,,,,,,,,,,
,,LIFE,2.517165,1,,,,,,stimuli/images/PICTURE_296.png,LIFE,5cf12ddbf17e370017a278c5,31081997,2020-09-02_12h32.51.613,proactive3.2,2020.1.2,MacIntel,60,5f47c0b9b035471e11593a5c,5f4f81a84873f20383e2d723,6,,,,,,bolt,,,,,,,,,,,6,1,0,37,37,57,1,,,,,,,,,,,,,,,,,,,,,,,,,,,,,,,,,,,,,,,,,,,,,,,,,,,,,,,,,,,,,,,,,,,,,,
,,?,0.00357,0,,,,,,stimuli/images/PICTURE_504.png,YEAR,5cf12ddbf17e370017a278c5,31081997,2020-09-02_12h32.51.613,proactive3.2,2020.1.2,MacIntel,60,5f47c0b9b035471e11593a5c,5f4f81a84873f20383e2d723,6,,,,,,wheel,,,,,,,,,,,2,1,0,38,38,13,1,,,,,,,,,,,,,,,,,,,,,,,,,,,,,,,,,,,,,,,,,,,,,,,,,,,,,,,,,,,,,,,,,,,,,,
,,?,0.00075,0,,,,,,stimuli/images/PICTURE_285.png,LIFE,5cf12ddbf17e370017a278c5,31081997,2020-09-02_12h32.51.613,proactive3.2,2020.1.2,MacIntel,60,5f47c0b9b035471e11593a5c,5f4f81a84873f20383e2d723,6,,,,,,carrot,,,,,,,,,,,4,1,0,39,39,33,1,,,,,,,,,,,,,,,,,,,,,,,,,,,,,,,,,,,,,,,,,,,,,,,,,,,,,,,,,,,,,,,,,,,,,,
,,?,0.00065,0,,,,,,stimuli/images/PICTURE_340.png,LETTER,5cf12ddbf17e370017a278c5,31081997,2020-09-02_12h32.51.613,proactive3.2,2020.1.2,MacIntel,60,5f47c0b9b035471e11593a5c,5f4f81a84873f20383e2d723,6,,,,,,mirror,,,,,,,,,,,3,1,0,40,40,24,1,,,,,,,,,,,,,,,,,,,,,,,,,,,,,,,,,,,,,,,,,,,,,,,,,,,,,,,,,,,,,,,,,,,,,,
,,POLICY,6.42732,1,,,,,,stimuli/images/PICTURE_467.png,POLICY,5cf12ddbf17e370017a278c5,31081997,2020-09-02_12h32.51.613,proactive3.2,2020.1.2,MacIntel,60,5f47c0b9b035471e11593a5c,5f4f81a84873f20383e2d723,6,,,,,,peg,,,,,,,,,,,6,1,0,41,41,53,1,,,,,,,,,,,,,,,,,,,,,,,,,,,,,,,,,,,,,,,,,,,,,,,,,,,,,,,,,,,,,,,,,,,,,,
,,?,0.001055,0,,,,,,stimuli/images/PICTURE_504.png,ARTIST,5cf12ddbf17e370017a278c5,31081997,2020-09-02_12h32.51.613,proactive3.2,2020.1.2,MacIntel,60,5f47c0b9b035471e11593a5c,5f4f81a84873f20383e2d723,6,,,,,,wheel,,,,,,,,,,,5,1,0,42,42,49,1,,,,,,,,,,,,,,,,,,,,,,,,,,,,,,,,,,,,,,,,,,,,,,,,,,,,,,,,,,,,,,,,,,,,,,
,,BOYS,2.77348,1,,,,,,stimuli/images/PICTURE_42.png,BOYS,5cf12ddbf17e370017a278c5,31081997,2020-09-02_12h32.51.613,proactive3.2,2020.1.2,MacIntel,60,5f47c0b9b035471e11593a5c,5f4f81a84873f20383e2d723,6,,,,,,pear,,,,,,,,,,,6,1,0,43,43,55,1,,,,,,,,,,,,,,,,,,,,,,,,,,,,,,,,,,,,,,,,,,,,,,,,,,,,,,,,,,,,,,,,,,,,,,
,,?,0.00114,0,,,,,,stimuli/images/PICTURE_339.png,CLIENT,5cf12ddbf17e370017a278c5,31081997,2020-09-02_12h32.51.613,proactive3.2,2020.1.2,MacIntel,60,5f47c0b9b035471e11593a5c,5f4f81a84873f20383e2d723,6,,,,,,backpack,,,,,,,,,,,2,1,0,44,44,11,1,,,,,,,,,,,,,,,,,,,,,,,,,,,,,,,,,,,,,,,,,,,,,,,,,,,,,,,,,,,,,,,,,,,,,,
,,?,0.00183,0,,,,,,stimuli/images/PICTURE_203.png,NIGHT,5cf12ddbf17e370017a278c5,31081997,2020-09-02_12h32.51.613,proactive3.2,2020.1.2,MacIntel,60,5f47c0b9b035471e11593a5c,5f4f81a84873f20383e2d723,6,,,,,,cap,,,,,,,,,,,1,1,0,45,45,2,1,,,,,,,,,,,,,,,,,,,,,,,,,,,,,,,,,,,,,,,,,,,,,,,,,,,,,,,,,,,,,,,,,,,,,,
,,?,0.000685,0,,,,,,stimuli/images/PICTURE_654.png,MONTH,5cf12ddbf17e370017a278c5,31081997,2020-09-02_12h32.51.613,proactive3.2,2020.1.2,MacIntel,60,5f47c0b9b035471e11593a5c,5f4f81a84873f20383e2d723,6,,,,,,pencil,,,,,,,,,,,3,1,0,46,46,29,1,,,,,,,,,,,,,,,,,,,,,,,,,,,,,,,,,,,,,,,,,,,,,,,,,,,,,,,,,,,,,,,,,,,,,,
,,RECORD,10.76756,1,,,,,,stimuli/images/PICTURE_708.png,RECORD,5cf12ddbf17e370017a278c5,31081997,2020-09-02_12h32.51.613,proactive3.2,2020.1.2,MacIntel,60,5f47c0b9b035471e11593a5c,5f4f81a84873f20383e2d723,6,,,,,,monkey,,,,,,,,,,,6,1,0,47,47,58,1,,,,,,,,,,,,,,,,,,,,,,,,,,,,,,,,,,,,,,,,,,,,,,,,,,,,,,,,,,,,,,,,,,,,,,
,,?,0.00108,0,,,,,,stimuli/images/PICTURE_667.png,RIVER,5cf12ddbf17e370017a278c5,31081997,2020-09-02_12h32.51.613,proactive3.2,2020.1.2,MacIntel,60,5f47c0b9b035471e11593a5c,5f4f81a84873f20383e2d723,6,,,,,,daisy,,,,,,,,,,,2,1,0,48,48,10,1,,,,,,,,,,,,,,,,,,,,,,,,,,,,,,,,,,,,,,,,,,,,,,,,,,,,,,,,,,,,,,,,,,,,,,
,,?,0.001045,0,,,,,,stimuli/images/PICTURE_85.png,TOILET,5cf12ddbf17e370017a278c5,31081997,2020-09-02_12h32.51.613,proactive3.2,2020.1.2,MacIntel,60,5f47c0b9b035471e11593a5c,5f4f81a84873f20383e2d723,6,,,,,,diamond,,,,,,,,,,,5,1,0,49,49,48,1,,,,,,,,,,,,,,,,,,,,,,,,,,,,,,,,,,,,,,,,,,,,,,,,,,,,,,,,,,,,,,,,,,,,,,
,,?,0.00089,0,,,,,,stimuli/images/PICTURE_380.png,CANDY,5cf12ddbf17e370017a278c5,31081997,2020-09-02_12h32.51.613,proactive3.2,2020.1.2,MacIntel,60,5f47c0b9b035471e11593a5c,5f4f81a84873f20383e2d723,6,,,,,,gorilla,,,,,,,,,,,1,1,0,50,50,0,1,,,,,,,,,,,,,,,,,,,,,,,,,,,,,,,,,,,,,,,,,,,,,,,,,,,,,,,,,,,,,,,,,,,,,,
,,?,0.000565,0,,,,,,stimuli/images/PICTURE_403.png,RIVER,5cf12ddbf17e370017a278c5,31081997,2020-09-02_12h32.51.613,proactive3.2,2020.1.2,MacIntel,60,5f47c0b9b035471e11593a5c,5f4f81a84873f20383e2d723,6,,,,,,cathedral,,,,,,,,,,,5,1,0,51,51,40,1,,,,,,,,,,,,,,,,,,,,,,,,,,,,,,,,,,,,,,,,,,,,,,,,,,,,,,,,,,,,,,,,,,,,,,
,,FLIGHT,7.3053,1,,,,,,stimuli/images/PICTURE_108.png,FLIGHT,5cf12ddbf17e370017a278c5,31081997,2020-09-02_12h32.51.613,proactive3.2,2020.1.2,MacIntel,60,5f47c0b9b035471e11593a5c,5f4f81a84873f20383e2d723,6,,,,,,calendar,,,,,,,,,,,6,1,0,52,52,59,1,,,,,,,,,,,,,,,,,,,,,,,,,,,,,,,,,,,,,,,,,,,,,,,,,,,,,,,,,,,,,,,,,,,,,,
,,?,0.001405,0,,,,,,stimuli/images/PICTURE_405.png,YEAR,5cf12ddbf17e370017a278c5,31081997,2020-09-02_12h32.51.613,proactive3.2,2020.1.2,MacIntel,60,5f47c0b9b035471e11593a5c,5f4f81a84873f20383e2d723,6,,,,,,anchor,,,,,,,,,,,4,1,0,53,53,34,1,,,,,,,,,,,,,,,,,,,,,,,,,,,,,,,,,,,,,,,,,,,,,,,,,,,,,,,,,,,,,,,,,,,,,,
,,?,0.0009,0,,,,,,stimuli/images/PICTURE_655.png,TOILET,5cf12ddbf17e370017a278c5,31081997,2020-09-02_12h32.51.613,proactive3.2,2020.1.2,MacIntel,60,5f47c0b9b035471e11593a5c,5f4f81a84873f20383e2d723,6,,,,,,megaphone,,,,,,,,,,,2,1,0,54,54,12,1,,,,,,,,,,,,,,,,,,,,,,,,,,,,,,,,,,,,,,,,,,,,,,,,,,,,,,,,,,,,,,,,,,,,,,
,,MILE,3.15333,1,,,,,,stimuli/images/PICTURE_68.png,MILE,5cf12ddbf17e370017a278c5,31081997,2020-09-02_12h32.51.613,proactive3.2,2020.1.2,MacIntel,60,5f47c0b9b035471e11593a5c,5f4f81a84873f20383e2d723,6,,,,,,candle,,,,,,,,,,,6,1,0,55,55,51,1,,,,,,,,,,,,,,,,,,,,,,,,,,,,,,,,,,,,,,,,,,,,,,,,,,,,,,,,,,,,,,,,,,,,,,
,,?,0.00085,0,,,,,,stimuli/images/PICTURE_383.png,SERIES,5cf12ddbf17e370017a278c5,31081997,2020-09-02_12h32.51.613,proactive3.2,2020.1.2,MacIntel,60,5f47c0b9b035471e11593a5c,5f4f81a84873f20383e2d723,6,,,,,,coin,,,,,,,,,,,5,1,0,56,56,46,1,,,,,,,,,,,,,,,,,,,,,,,,,,,,,,,,,,,,,,,,,,,,,,,,,,,,,,,,,,,,,,,,,,,,,,
,,?,0.00081,0,,,,,,stimuli/images/PICTURE_327.png,SERIES,5cf12ddbf17e370017a278c5,31081997,2020-09-02_12h32.51.613,proactive3.2,2020.1.2,MacIntel,60,5f47c0b9b035471e11593a5c,5f4f81a84873f20383e2d723,6,,,,,,helmet,,,,,,,,,,,1,1,0,57,57,3,1,,,,,,,,,,,,,,,,,,,,,,,,,,,,,,,,,,,,,,,,,,,,,,,,,,,,,,,,,,,,,,,,,,,,,,
,,?,0.000815,0,,,,,,stimuli/images/PICTURE_403.png,WRITER,5cf12ddbf17e370017a278c5,31081997,2020-09-02_12h32.51.613,proactive3.2,2020.1.2,MacIntel,60,5f47c0b9b035471e11593a5c,5f4f81a84873f20383e2d723,6,,,,,,cathedral,,,,,,,,,,,4,1,0,58,58,31,1,,,,,,,,,,,,,,,,,,,,,,,,,,,,,,,,,,,,,,,,,,,,,,,,,,,,,,,,,,,,,,,,,,,,,,
,,WEAPON,12.83056,1,,,,,,stimuli/images/PICTURE_744.png,WEAPON,5cf12ddbf17e370017a278c5,31081997,2020-09-02_12h32.51.613,proactive3.2,2020.1.2,MacIntel,60,5f47c0b9b035471e11593a5c,5f4f81a84873f20383e2d723,6,,,,,,ring,,,,,,,,,,,6,1,0,59,59,50,1,,,,,,,,,,,,,,,,,,,,,,,,,,,,,,,,,,,,,,,,,,,,,,,,,,,,,,,,,,,,,,,,,,,,,,
,,,,,,,,,,,,5cf12ddbf17e370017a278c5,31081997,2020-09-02_12h32.51.613,proactive3.2,2020.1.2,MacIntel,60,5f47c0b9b035471e11593a5c,5f4f81a84873f20383e2d723,6,,,,,,,,,,,,,,,,,,,,,,,,0,0,0,1,1,stimuli/learn-block2.csv,,,,,,,,,,,,,,,,,,,,,,,,,,,,,,,,,,,,,,,,,,,,,,,,,,,,,,,,,,,,,,,,
,,,,,,,,,,stimuli/images/PICTURE_708.png,PENNY,5cf12ddbf17e370017a278c5,31081997,2020-09-02_12h32.51.613,proactive3.2,2020.1.2,MacIntel,60,5f47c0b9b035471e11593a5c,5f4f81a84873f20383e2d723,6,,,,,,monkey,,,,,,0,0,0,31,1,4,0,,,,,,,,,,,,,,,,,,,,,,,,,,,,,,,,,,,,,,,,,,,,,,,,,,,,,,,,,,,,,,,,,,,,,,,,,,,
,,,,,,,,,,stimuli/images/PICTURE_688.png,CASINO,5cf12ddbf17e370017a278c5,31081997,2020-09-02_12h32.51.613,proactive3.2,2020.1.2,MacIntel,60,5f47c0b9b035471e11593a5c,5f4f81a84873f20383e2d723,6,,,,,,runner,,,,,,0,1,1,2,1,1,0,,,,,,,,,,,,,,,,,,,,,,,,,,,,,,,,,,,,,,,,,,,,,,,,,,,,,,,,,,,,,,,,,,,,,,,,,,,
,,,,,,,,,,stimuli/images/PICTURE_688.png,WOMEN,5cf12ddbf17e370017a278c5,31081997,2020-09-02_12h32.51.613,proactive3.2,2020.1.2,MacIntel,60,5f47c0b9b035471e11593a5c,5f4f81a84873f20383e2d723,6,,,,,,runner,,,,,,0,2,2,14,1,2,0,,,,,,,,,,,,,,,,,,,,,,,,,,,,,,,,,,,,,,,,,,,,,,,,,,,,,,,,,,,,,,,,,,,,,,,,,,,
,,,,,,,,,,stimuli/images/PICTURE_380.png,DEATH,5cf12ddbf17e370017a278c5,31081997,2020-09-02_12h32.51.613,proactive3.2,2020.1.2,MacIntel,60,5f47c0b9b035471e11593a5c,5f4f81a84873f20383e2d723,6,,,,,,gorilla,,,,,,0,3,3,49,1,5,0,,,,,,,,,,,,,,,,,,,,,,,,,,,,,,,,,,,,,,,,,,,,,,,,,,,,,,,,,,,,,,,,,,,,,,,,,,,
,,,,,,,,,,stimuli/images/PICTURE_123.png,ADVICE,5cf12ddbf17e370017a278c5,31081997,2020-09-02_12h32.51.613,proactive3.2,2020.1.2,MacIntel,60,5f47c0b9b035471e11593a5c,5f4f81a84873f20383e2d723,6,,,,,,dart,,,,,,0,4,4,40,1,5,0,,,,,,,,,,,,,,,,,,,,,,,,,,,,,,,,,,,,,,,,,,,,,,,,,,,,,,,,,,,,,,,,,,,,,,,,,,,
,,,,,,,,,,stimuli/images/PICTURE_708.png,YARD,5cf12ddbf17e370017a278c5,31081997,2020-09-02_12h32.51.613,proactive3.2,2020.1.2,MacIntel,60,5f47c0b9b035471e11593a5c,5f4f81a84873f20383e2d723,6,,,,,,monkey,,,,,,0,5,5,29,1,3,0,,,,,,,,,,,,,,,,,,,,,,,,,,,,,,,,,,,,,,,,,,,,,,,,,,,,,,,,,,,,,,,,,,,,,,,,,,,
,,,,,,,,,,stimuli/images/PICTURE_677.png,MILE,5cf12ddbf17e370017a278c5,31081997,2020-09-02_12h32.51.613,proactive3.2,2020.1.2,MacIntel,60,5f47c0b9b035471e11593a5c,5f4f81a84873f20383e2d723,6,,,,,,map,,,,,,0,6,6,30,1,4,0,,,,,,,,,,,,,,,,,,,,,,,,,,,,,,,,,,,,,,,,,,,,,,,,,,,,,,,,,,,,,,,,,,,,,,,,,,,
,,,,,,,,,,stimuli/images/PICTURE_744.png,SAKE,5cf12ddbf17e370017a278c5,31081997,2020-09-02_12h32.51.613,proactive3.2,2020.1.2,MacIntel,60,5f47c0b9b035471e11593a5c,5f4f81a84873f20383e2d723,6,,,,,,ring,,,,,,0,7,7,17,1,2,0,,,,,,,,,,,,,,,,,,,,,,,,,,,,,,,,,,,,,,,,,,,,,,,,,,,,,,,,,,,,,,,,,,,,,,,,,,,
,,,,,,,,,,stimuli/images/PICTURE_215.png,PLENTY,5cf12ddbf17e370017a278c5,31081997,2020-09-02_12h32.51.613,proactive3.2,2020.1.2,MacIntel,60,5f47c0b9b035471e11593a5c,5f4f81a84873f20383e2d723,6,,,,,,boot,,,,,,0,8,8,37,1,4,0,,,,,,,,,,,,,,,,,,,,,,,,,,,,,,,,,,,,,,,,,,,,,,,,,,,,,,,,,,,,,,,,,,,,,,,,,,,
,,,,,,,,,,stimuli/images/PICTURE_654.png,VALLEY,5cf12ddbf17e370017a278c5,31081997,2020-09-02_12h32.51.613,proactive3.2,2020.1.2,MacIntel,60,5f47c0b9b035471e11593a5c,5f4f81a84873f20383e2d723,6,,,,,,pencil,,,,,,0,9,9,1,1,1,0,,,,,,,,,,,,,,,,,,,,,,,,,,,,,,,,,,,,,,,,,,,,,,,,,,,,,,,,,,,,,,,,,,,,,,,,,,,
,,,,,,,,,,stimuli/images/PICTURE_160.png,LEADER,5cf12ddbf17e370017a278c5,31081997,2020-09-02_12h32.51.613,proactive3.2,2020.1.2,MacIntel,60,5f47c0b9b035471e11593a5c,5f4f81a84873f20383e2d723,6,,,,,,wheelbarrow,,,,,,0,10,10,3,1,1,0,,,,,,,,,,,,,,,,,,,,,,,,,,,,,,,,,,,,,,,,,,,,,,,,,,,,,,,,,,,,,,,,,,,,,,,,,,,
,,,,,,,,,,stimuli/images/PICTURE_151.png,GIRL,5cf12ddbf17e370017a278c5,31081997,2020-09-02_12h32.51.613,proactive3.2,2020.1.2,MacIntel,60,5f47c0b9b035471e11593a5c,5f4f81a84873f20383e2d723,6,,,,,,tray,,,,,,0,11,11,19,1,2,0,,,,,,,,,,,,,,,,,,,,,,,,,,,,,,,,,,,,,,,,,,,,,,,,,,,,,,,,,,,,,,,,,,,,,,,,,,,
,,,,,,,,,,stimuli/images/PICTURE_470.png,CASINO,5cf12ddbf17e370017a278c5,31081997,2020-09-02_12h32.51.613,proactive3.2,2020.1.2,MacIntel,60,5f47c0b9b035471e11593a5c,5f4f81a84873f20383e2d723,6,,,,,,motorbike,,,,,,0,12,12,36,1,4,0,,,,,,,,,,,,,,,,,,,,,,,,,,,,,,,,,,,,,,,,,,,,,,,,,,,,,,,,,,,,,,,,,,,,,,,,,,,
,,,,,,,,,,stimuli/images/PICTURE_308.png,ESTATE,5cf12ddbf17e370017a278c5,31081997,2020-09-02_12h32.51.613,proactive3.2,2020.1.2,MacIntel,60,5f47c0b9b035471e11593a5c,5f4f81a84873f20383e2d723,6,,,,,,dice,,,,,,0,13,13,46,1,5,0,,,,,,,,,,,,,,,,,,,,,,,,,,,,,,,,,,,,,,,,,,,,,,,,,,,,,,,,,,,,,,,,,,,,,,,,,,,
,,,,,,,,,,stimuli/images/PICTURE_491.png,WRITER,5cf12ddbf17e370017a278c5,31081997,2020-09-02_12h32.51.613,proactive3.2,2020.1.2,MacIntel,60,5f47c0b9b035471e11593a5c,5f4f81a84873f20383e2d723,6,,,,,,rug,,,,,,0,14,14,57,1,6,0,,,,,,,,,,,,,,,,,,,,,,,,,,,,,,,,,,,,,,,,,,,,,,,,,,,,,,,,,,,,,,,,,,,,,,,,,,,
,,,,,,,,,,stimuli/images/PICTURE_314.png,SAKE,5cf12ddbf17e370017a278c5,31081997,2020-09-02_12h32.51.613,proactive3.2,2020.1.2,MacIntel,60,5f47c0b9b035471e11593a5c,5f4f81a84873f20383e2d723,6,,,,,,perfume,,,,,,0,15,15,7,1,1,0,,,,,,,,,,,,,,,,,,,,,,,,,,,,,,,,,,,,,,,,,,,,,,,,,,,,,,,,,,,,,,,,,,,,,,,,,,,
,,,,,,,,,,stimuli/images/PICTURE_208.png,LOTS,5cf12ddbf17e370017a278c5,31081997,2020-09-02_12h32.51.613,proactive3.2,2020.1.2,MacIntel,60,5f47c0b9b035471e11593a5c,5f4f81a84873f20383e2d723,6,,,,,,microphone,,,,,,0,16,16,10,1,2,0,,,,,,,,,,,,,,,,,,,,,,,,,,,,,,,,,,,,,,,,,,,,,,,,,,,,,,,,,,,,,,,,,,,,,,,,,,,
,,,,,,,,,,stimuli/images/PICTURE_311.png,FRIEND,5cf12ddbf17e370017a278c5,31081997,2020-09-02_12h32.51.613,proactive3.2,2020.1.2,MacIntel,60,5f47c0b9b035471e11593a5c,5f4f81a84873f20383e2d723,6,,,,,,razor,,,,,,0,17,17,34,1,4,0,,,,,,,,,,,,,,,,,,,,,,,,,,,,,,,,,,,,,,,,,,,,,,,,,,,,,,,,,,,,,,,,,,,,,,,,,,,
,,,,,,,,,,stimuli/images/PICTURE_487.png,FLIGHT,5cf12ddbf17e370017a278c5,31081997,2020-09-02_12h32.51.613,proactive3.2,2020.1.2,MacIntel,60,5f47c0b9b035471e11593a5c,5f4f81a84873f20383e2d723,6,,,,,,basket,,,,,,0,18,18,9,1,1,0,,,,,,,,,,,,,,,,,,,,,,,,,,,,,,,,,,,,,,,,,,,,,,,,,,,,,,,,,,,,,,,,,,,,,,,,,,,
,,,,,,,,,,stimuli/images/PICTURE_203.png,ARTIST,5cf12ddbf17e370017a278c5,31081997,2020-09-02_12h32.51.613,proactive3.2,2020.1.2,MacIntel,60,5f47c0b9b035471e11593a5c,5f4f81a84873f20383e2d723,6,,,,,,cap,,,,,,0,19,19,26,1,3,0,,,,,,,,,,,,,,,,,,,,,,,,,,,,,,,,,,,,,,,,,,,,,,,,,,,,,,,,,,,,,,,,,,,,,,,,,,,
,,,,,,,,,,stimuli/images/PICTURE_248.png,DOZEN,5cf12ddbf17e370017a278c5,31081997,2020-09-02_12h32.51.613,proactive3.2,2020.1.2,MacIntel,60,5f47c0b9b035471e11593a5c,5f4f81a84873f20383e2d723,6,,,,,,cart,,,,,,0,20,20,39,1,4,0,,,,,,,,,,,,,,,,,,,,,,,,,,,,,,,,,,,,,,,,,,,,,,,,,,,,,,,,,,,,,,,,,,,,,,,,,,,
,,,,,,,,,,stimuli/images/PICTURE_285.png,ADVICE,5cf12ddbf17e370017a278c5,31081997,2020-09-02_12h32.51.613,proactive3.2,2020.1.2,MacIntel,60,5f47c0b9b035471e11593a5c,5f4f81a84873f20383e2d723,6,,,,,,carrot,,,,,,0,21,21,12,1,2,0,,,,,,,,,,,,,,,,,,,,,,,,,,,,,,,,,,,,,,,,,,,,,,,,,,,,,,,,,,,,,,,,,,,,,,,,,,,
,,,,,,,,,,stimuli/images/PICTURE_504.png,BODY,5cf12ddbf17e370017a278c5,31081997,2020-09-02_12h32.51.613,proactive3.2,2020.1.2,MacIntel,60,5f47c0b9b035471e11593a5c,5f4f81a84873f20383e2d723,6,,,,,,wheel,,,,,,0,22,22,8,1,1,0,,,,,,,,,,,,,,,,,,,,,,,,,,,,,,,,,,,,,,,,,,,,,,,,,,,,,,,,,,,,,,,,,,,,,,,,,,,
,,,,,,,,,,stimuli/images/PICTURE_744.png,SYSTEM,5cf12ddbf17e370017a278c5,31081997,2020-09-02_12h32.51.613,proactive3.2,2020.1.2,MacIntel,60,5f47c0b9b035471e11593a5c,5f4f81a84873f20383e2d723,6,,,,,,ring,,,,,,0,23,23,43,1,5,0,,,,,,,,,,,,,,,,,,,,,,,,,,,,,,,,,,,,,,,,,,,,,,,,,,,,,,,,,,,,,,,,,,,,,,,,,,,
,,,,,,,,,,stimuli/images/PICTURE_208.png,THING,5cf12ddbf17e370017a278c5,31081997,2020-09-02_12h32.51.613,proactive3.2,2020.1.2,MacIntel,60,5f47c0b9b035471e11593a5c,5f4f81a84873f20383e2d723,6,,,,,,microphone,,,,,,0,24,24,47,1,5,0,,,,,,,,,,,,,,,,,,,,,,,,,,,,,,,,,,,,,,,,,,,,,,,,,,,,,,,,,,,,,,,,,,,,,,,,,,,
,,,,,,,,,,stimuli/images/PICTURE_348.png,SPEECH,5cf12ddbf17e370017a278c5,31081997,2020-09-02_12h32.51.613,proactive3.2,2020.1.2,MacIntel,60,5f47c0b9b035471e11593a5c,5f4f81a84873f20383e2d723,6,,,,,,pepper,,,,,,0,25,25,20,1,3,0,,,,,,,,,,,,,,,,,,,,,,,,,,,,,,,,,,,,,,,,,,,,,,,,,,,,,,,,,,,,,,,,,,,,,,,,,,,
,,,,,,,,,,stimuli/images/PICTURE_469.png,LETTER,5cf12ddbf17e370017a278c5,31081997,2020-09-02_12h32.51.613,proactive3.2,2020.1.2,MacIntel,60,5f47c0b9b035471e11593a5c,5f4f81a84873f20383e2d723,6,,,,,,stool,,,,,,0,26,26,42,1,5,0,,,,,,,,,,,,,,,,,,,,,,,,,,,,,,,,,,,,,,,,,,,,,,,,,,,,,,,,,,,,,,,,,,,,,,,,,,,
,,,,,,,,,,stimuli/images/PICTURE_314.png,GODS,5cf12ddbf17e370017a278c5,31081997,2020-09-02_12h32.51.613,proactive3.2,2020.1.2,MacIntel,60,5f47c0b9b035471e11593a5c,5f4f81a84873f20383e2d723,6,,,,,,perfume,,,,,,0,27,27,11,1,2,0,,,,,,,,,,,,,,,,,,,,,,,,,,,,,,,,,,,,,,,,,,,,,,,,,,,,,,,,,,,,,,,,,,,,,,,,,,,
,,,,,,,,,,stimuli/images/PICTURE_667.png,PLENTY,5cf12ddbf17e370017a278c5,31081997,2020-09-02_12h32.51.613,proactive3.2,2020.1.2,MacIntel,60,5f47c0b9b035471e11593a5c,5f4f81a84873f20383e2d723,6,,,,,,daisy,,,,,,0,28,28,41,1,5,0,,,,,,,,,,,,,,,,,,,,,,,,,,,,,,,,,,,,,,,,,,,,,,,,,,,,,,,,,,,,,,,,,,,,,,,,,,,
,,,,,,,,,,stimuli/images/PICTURE_68.png,MILE,5cf12ddbf17e370017a278c5,31081997,2020-09-02_12h32.51.613,proactive3.2,2020.1.2,MacIntel,60,5f47c0b9b035471e11593a5c,5f4f81a84873f20383e2d723,6,,,,,,candle,,,,,,0,29,29,44,1,5,0,,,,,,,,,,,,,,,,,,,,,,,,,,,,,,,,,,,,,,,,,,,,,,,,,,,,,,,,,,,,,,,,,,,,,,,,,,,
,,,,,,,,,,stimuli/images/PICTURE_488.png,STYLE,5cf12ddbf17e370017a278c5,31081997,2020-09-02_12h32.51.613,proactive3.2,2020.1.2,MacIntel,60,5f47c0b9b035471e11593a5c,5f4f81a84873f20383e2d723,6,,,,,,sun,,,,,,0,30,30,33,1,4,0,,,,,,,,,,,,,,,,,,,,,,,,,,,,,,,,,,,,,,,,,,,,,,,,,,,,,,,,,,,,,,,,,,,,,,,,,,,
,,,,,,,,,,stimuli/images/PICTURE_177.png,CARS,5cf12ddbf17e370017a278c5,31081997,2020-09-02_12h32.51.613,proactive3.2,2020.1.2,MacIntel,60,5f47c0b9b035471e11593a5c,5f4f81a84873f20383e2d723,6,,,,,,mushroom,,,,,,0,31,31,35,1,4,0,,,,,,,,,,,,,,,,,,,,,,,,,,,,,,,,,,,,,,,,,,,,,,,,,,,,,,,,,,,,,,,,,,,,,,,,,,,
,,,,,,,,,,stimuli/images/PICTURE_160.png,FEET,5cf12ddbf17e370017a278c5,31081997,2020-09-02_12h32.51.613,proactive3.2,2020.1.2,MacIntel,60,5f47c0b9b035471e11593a5c,5f4f81a84873f20383e2d723,6,,,,,,wheelbarrow,,,,,,0,32,32,58,1,6,0,,,,,,,,,,,,,,,,,,,,,,,,,,,,,,,,,,,,,,,,,,,,,,,,,,,,,,,,,,,,,,,,,,,,,,,,,,,
,,,,,,,,,,stimuli/images/PICTURE_32.png,JUNGLE,5cf12ddbf17e370017a278c5,31081997,2020-09-02_12h32.51.613,proactive3.2,2020.1.2,MacIntel,60,5f47c0b9b035471e11593a5c,5f4f81a84873f20383e2d723,6,,,,,,crown,,,,,,0,33,33,45,1,5,0,,,,,,,,,,,,,,,,,,,,,,,,,,,,,,,,,,,,,,,,,,,,,,,,,,,,,,,,,,,,,,,,,,,,,,,,,,,
,,,,,,,,,,stimuli/images/PICTURE_449.png,THING,5cf12ddbf17e370017a278c5,31081997,2020-09-02_12h32.51.613,proactive3.2,2020.1.2,MacIntel,60,5f47c0b9b035471e11593a5c,5f4f81a84873f20383e2d723,6,,,,,,bench,,,,,,0,34,34,59,1,6,0,,,,,,,,,,,,,,,,,,,,,,,,,,,,,,,,,,,,,,,,,,,,,,,,,,,,,,,,,,,,,,,,,,,,,,,,,,,
,,,,,,,,,,stimuli/images/PICTURE_302.png,FAMILY,5cf12ddbf17e370017a278c5,31081997,2020-09-02_12h32.51.613,proactive3.2,2020.1.2,MacIntel,60,5f47c0b9b035471e11593a5c,5f4f81a84873f20383e2d723,6,,,,,,taxi,,,,,,0,35,35,18,1,2,0,,,,,,,,,,,,,,,,,,,,,,,,,,,,,,,,,,,,,,,,,,,,,,,,,,,,,,,,,,,,,,,,,,,,,,,,,,,
,,,,,,,,,,stimuli/images/PICTURE_453.png,PLENTY,5cf12ddbf17e370017a278c5,31081997,2020-09-02_12h32.51.613,proactive3.2,2020.1.2,MacIntel,60,5f47c0b9b035471e11593a5c,5f4f81a84873f20383e2d723,6,,,,,,scissors,,,,,,0,36,36,56,1,6,0,,,,,,,,,,,,,,,,,,,,,,,,,,,,,,,,,,,,,,,,,,,,,,,,,,,,,,,,,,,,,,,,,,,,,,,,,,,
,,,,,,,,,,stimuli/images/PICTURE_467.png,DEMON,5cf12ddbf17e370017a278c5,31081997,2020-09-02_12h32.51.613,proactive3.2,2020.1.2,MacIntel,60,5f47c0b9b035471e11593a5c,5f4f81a84873f20383e2d723,6,,,,,,peg,,,,,,0,37,37,23,1,3,0,,,,,,,,,,,,,,,,,,,,,,,,,,,,,,,,,,,,,,,,,,,,,,,,,,,,,,,,,,,,,,,,,,,,,,,,,,,
,,,,,,,,,,stimuli/images/PICTURE_308.png,KIND,5cf12ddbf17e370017a278c5,31081997,2020-09-02_12h32.51.613,proactive3.2,2020.1.2,MacIntel,60,5f47c0b9b035471e11593a5c,5f4f81a84873f20383e2d723,6,,,,,,dice,,,,,,0,38,38,54,1,6,0,,,,,,,,,,,,,,,,,,,,,,,,,,,,,,,,,,,,,,,,,,,,,,,,,,,,,,,,,,,,,,,,,,,,,,,,,,,
,,,,,,,,,,stimuli/images/PICTURE_327.png,BEAUTY,5cf12ddbf17e370017a278c5,31081997,2020-09-02_12h32.51.613,proactive3.2,2020.1.2,MacIntel,60,5f47c0b9b035471e11593a5c,5f4f81a84873f20383e2d723,6,,,,,,helmet,,,,,,0,39,39,48,1,5,0,,,,,,,,,,,,,,,,,,,,,,,,,,,,,,,,,,,,,,,,,,,,,,,,,,,,,,,,,,,,,,,,,,,,,,,,,,,
,,,,,,,,,,stimuli/images/PICTURE_255.png,AREA,5cf12ddbf17e370017a278c5,31081997,2020-09-02_12h32.51.613,proactive3.2,2020.1.2,MacIntel,60,5f47c0b9b035471e11593a5c,5f4f81a84873f20383e2d723,6,,,,,,shovel,,,,,,0,40,40,22,1,3,0,,,,,,,,,,,,,,,,,,,,,,,,,,,,,,,,,,,,,,,,,,,,,,,,,,,,,,,,,,,,,,,,,,,,,,,,,,,
,,,,,,,,,,stimuli/images/PICTURE_453.png,DUDE,5cf12ddbf17e370017a278c5,31081997,2020-09-02_12h32.51.613,proactive3.2,2020.1.2,MacIntel,60,5f47c0b9b035471e11593a5c,5f4f81a84873f20383e2d723,6,,,,,,scissors,,,,,,0,41,41,27,1,3,0,,,,,,,,,,,,,,,,,,,,,,,,,,,,,,,,,,,,,,,,,,,,,,,,,,,,,,,,,,,,,,,,,,,,,,,,,,,
,,,,,,,,,,stimuli/images/PICTURE_509.png,PHOTO,5cf12ddbf17e370017a278c5,31081997,2020-09-02_12h32.51.613,proactive3.2,2020.1.2,MacIntel,60,5f47c0b9b035471e11593a5c,5f4f81a84873f20383e2d723,6,,,,,,telephone,,,,,,0,42,42,21,1,3,0,,,,,,,,,,,,,,,,,,,,,,,,,,,,,,,,,,,,,,,,,,,,,,,,,,,,,,,,,,,,,,,,,,,,,,,,,,,
,,,,,,,,,,stimuli/images/PICTURE_692.png,MONTH,5cf12ddbf17e370017a278c5,31081997,2020-09-02_12h32.51.613,proactive3.2,2020.1.2,MacIntel,60,5f47c0b9b035471e11593a5c,5f4f81a84873f20383e2d723,6,,,,,,cherry,,,,,,0,43,43,16,1,2,0,,,,,,,,,,,,,,,,,,,,,,,,,,,,,,,,,,,,,,,,,,,,,,,,,,,,,,,,,,,,,,,,,,,,,,,,,,,
,,,,,,,,,,stimuli/images/PICTURE_233.png,WOMEN,5cf12ddbf17e370017a278c5,31081997,2020-09-02_12h32.51.613,proactive3.2,2020.1.2,MacIntel,60,5f47c0b9b035471e11593a5c,5f4f81a84873f20383e2d723,6,,,,,,salt,,,,,,0,44,44,38,1,4,0,,,,,,,,,,,,,,,,,,,,,,,,,,,,,,,,,,,,,,,,,,,,,,,,,,,,,,,,,,,,,,,,,,,,,,,,,,,
,,,,,,,,,,stimuli/images/PICTURE_356.png,DANGER,5cf12ddbf17e370017a278c5,31081997,2020-09-02_12h32.51.613,proactive3.2,2020.1.2,MacIntel,60,5f47c0b9b035471e11593a5c,5f4f81a84873f20383e2d723,6,,,,,,pawn,,,,,,0,45,45,55,1,6,0,,,,,,,,,,,,,,,,,,,,,,,,,,,,,,,,,,,,,,,,,,,,,,,,,,,,,,,,,,,,,,,,,,,,,,,,,,,
,,,,,,,,,,stimuli/images/PICTURE_380.png,PHOTO,5cf12ddbf17e370017a278c5,31081997,2020-09-02_12h32.51.613,proactive3.2,2020.1.2,MacIntel,60,5f47c0b9b035471e11593a5c,5f4f81a84873f20383e2d723,6,,,,,,gorilla,,,,,,0,46,46,52,1,6,0,,,,,,,,,,,,,,,,,,,,,,,,,,,,,,,,,,,,,,,,,,,,,,,,,,,,,,,,,,,,,,,,,,,,,,,,,,,
,,,,,,,,,,stimuli/images/PICTURE_233.png,IDEAS,5cf12ddbf17e370017a278c5,31081997,2020-09-02_12h32.51.613,proactive3.2,2020.1.2,MacIntel,60,5f47c0b9b035471e11593a5c,5f4f81a84873f20383e2d723,6,,,,,,salt,,,,,,0,47,47,28,1,3,0,,,,,,,,,,,,,,,,,,,,,,,,,,,,,,,,,,,,,,,,,,,,,,,,,,,,,,,,,,,,,,,,,,,,,,,,,,,
,,,,,,,,,,stimuli/images/PICTURE_469.png,ARTIST,5cf12ddbf17e370017a278c5,31081997,2020-09-02_12h32.51.613,proactive3.2,2020.1.2,MacIntel,60,5f47c0b9b035471e11593a5c,5f4f81a84873f20383e2d723,6,,,,,,stool,,,,,,0,48,48,6,1,1,0,,,,,,,,,,,,,,,,,,,,,,,,,,,,,,,,,,,,,,,,,,,,,,,,,,,,,,,,,,,,,,,,,,,,,,,,,,,
,,,,,,,,,,stimuli/images/PICTURE_95.png,STYLE,5cf12ddbf17e370017a278c5,31081997,2020-09-02_12h32.51.613,proactive3.2,2020.1.2,MacIntel,60,5f47c0b9b035471e11593a5c,5f4f81a84873f20383e2d723,6,,,,,,suitcase,,,,,,0,49,49,25,1,3,0,,,,,,,,,,,,,,,,,,,,,,,,,,,,,,,,,,,,,,,,,,,,,,,,,,,,,,,,,,,,,,,,,,,,,,,,,,,
,,,,,,,,,,stimuli/images/PICTURE_147.png,MOMENT,5cf12ddbf17e370017a278c5,31081997,2020-09-02_12h32.51.613,proactive3.2,2020.1.2,MacIntel,60,5f47c0b9b035471e11593a5c,5f4f81a84873f20383e2d723,6,,,,,,hanger,,,,,,0,50,50,51,1,6,0,,,,,,,,,,,,,,,,,,,,,,,,,,,,,,,,,,,,,,,,,,,,,,,,,,,,,,,,,,,,,,,,,,,,,,,,,,,
,,,,,,,,,,stimuli/images/PICTURE_123.png,ADVICE,5cf12ddbf17e370017a278c5,31081997,2020-09-02_12h32.51.613,proactive3.2,2020.1.2,MacIntel,60,5f47c0b9b035471e11593a5c,5f4f81a84873f20383e2d723,6,,,,,,dart,,,,,,0,51,51,50,1,6,0,,,,,,,,,,,,,,,,,,,,,,,,,,,,,,,,,,,,,,,,,,,,,,,,,,,,,,,,,,,,,,,,,,,,,,,,,,,
,,,,,,,,,,stimuli/images/PICTURE_311.png,BEAUTY,5cf12ddbf17e370017a278c5,31081997,2020-09-02_12h32.51.613,proactive3.2,2020.1.2,MacIntel,60,5f47c0b9b035471e11593a5c,5f4f81a84873f20383e2d723,6,,,,,,razor,,,,,,0,52,52,13,1,2,0,,,,,,,,,,,,,,,,,,,,,,,,,,,,,,,,,,,,,,,,,,,,,,,,,,,,,,,,,,,,,,,,,,,,,,,,,,,
,,,,,,,,,,stimuli/images/PICTURE_667.png,BATH,5cf12ddbf17e370017a278c5,31081997,2020-09-02_12h32.51.613,proactive3.2,2020.1.2,MacIntel,60,5f47c0b9b035471e11593a5c,5f4f81a84873f20383e2d723,6,,,,,,daisy,,,,,,0,53,53,4,1,1,0,,,,,,,,,,,,,,,,,,,,,,,,,,,,,,,,,,,,,,,,,,,,,,,,,,,,,,,,,,,,,,,,,,,,,,,,,,,
,,,,,,,,,,stimuli/images/PICTURE_339.png,PLENTY,5cf12ddbf17e370017a278c5,31081997,2020-09-02_12h32.51.613,proactive3.2,2020.1.2,MacIntel,60,5f47c0b9b035471e11593a5c,5f4f81a84873f20383e2d723,6,,,,,,backpack,,,,,,0,54,54,0,1,1,0,,,,,,,,,,,,,,,,,,,,,,,,,,,,,,,,,,,,,,,,,,,,,,,,,,,,,,,,,,,,,,,,,,,,,,,,,,,
,,,,,,,,,,stimuli/images/PICTURE_208.png,MONTH,5cf12ddbf17e370017a278c5,31081997,2020-09-02_12h32.51.613,proactive3.2,2020.1.2,MacIntel,60,5f47c0b9b035471e11593a5c,5f4f81a84873f20383e2d723,6,,,,,,microphone,,,,,,0,55,55,53,1,6,0,,,,,,,,,,,,,,,,,,,,,,,,,,,,,,,,,,,,,,,,,,,,,,,,,,,,,,,,,,,,,,,,,,,,,,,,,,,
,,,,,,,,,,stimuli/images/PICTURE_675.png,WEAPON,5cf12ddbf17e370017a278c5,31081997,2020-09-02_12h32.51.613,proactive3.2,2020.1.2,MacIntel,60,5f47c0b9b035471e11593a5c,5f4f81a84873f20383e2d723,6,,,,,,windmill,,,,,,0,56,56,32,1,4,0,,,,,,,,,,,,,,,,,,,,,,,,,,,,,,,,,,,,,,,,,,,,,,,,,,,,,,,,,,,,,,,,,,,,,,,,,,,
,,,,,,,,,,stimuli/images/PICTURE_85.png,THING,5cf12ddbf17e370017a278c5,31081997,2020-09-02_12h32.51.613,proactive3.2,2020.1.2,MacIntel,60,5f47c0b9b035471e11593a5c,5f4f81a84873f20383e2d723,6,,,,,,diamond,,,,,,0,57,57,15,1,2,0,,,,,,,,,,,,,,,,,,,,,,,,,,,,,,,,,,,,,,,,,,,,,,,,,,,,,,,,,,,,,,,,,,,,,,,,,,,
,,,,,,,,,,stimuli/images/PICTURE_491.png,ROOF,5cf12ddbf17e370017a278c5,31081997,2020-09-02_12h32.51.613,proactive3.2,2020.1.2,MacIntel,60,5f47c0b9b035471e11593a5c,5f4f81a84873f20383e2d723,6,,,,,,rug,,,,,,0,58,58,24,1,3,0,,,,,,,,,,,,,,,,,,,,,,,,,,,,,,,,,,,,,,,,,,,,,,,,,,,,,,,,,,,,,,,,,,,,,,,,,,,
,,?,0.000815,0,,,,,,stimuli/images/PICTURE_708.png,PENNY,5cf12ddbf17e370017a278c5,31081997,2020-09-02_12h32.51.613,proactive3.2,2020.1.2,MacIntel,60,5f47c0b9b035471e11593a5c,5f4f81a84873f20383e2d723,6,,,,,,monkey,,,,,,,,,,,4,0,0,0,0,31,1,,,,,,,,,,,,,,,,,,,,,,,,,,,,,,,,,,,,,,,,,,,,,,,,,,,,,,,,,,,,,,,,,,,,,,
,,?,0.000655,0,,,,,,stimuli/images/PICTURE_348.png,SPEECH,5cf12ddbf17e370017a278c5,31081997,2020-09-02_12h32.51.613,proactive3.2,2020.1.2,MacIntel,60,5f47c0b9b035471e11593a5c,5f4f81a84873f20383e2d723,6,,,,,,pepper,,,,,,,,,,,3,0,0,1,1,20,1,,,,,,,,,,,,,,,,,,,,,,,,,,,,,,,,,,,,,,,,,,,,,,,,,,,,,,,,,,,,,,,,,,,,,,
,,WRITER,8.55247,1,,,,,,stimuli/images/PICTURE_491.png,WRITER,5cf12ddbf17e370017a278c5,31081997,2020-09-02_12h32.51.613,proactive3.2,2020.1.2,MacIntel,60,5f47c0b9b035471e11593a5c,5f4f81a84873f20383e2d723,6,,,,,,rug,,,,,,,,,,,6,0,0,2,2,57,1,,,,,,,,,,,,,,,,,,,,,,,,,,,,,,,,,,,,,,,,,,,,,,,,,,,,,,,,,,,,,,,,,,,,,,
,,?,0.001185,0,,,,,,stimuli/images/PICTURE_302.png,FAMILY,5cf12ddbf17e370017a278c5,31081997,2020-09-02_12h32.51.613,proactive3.2,2020.1.2,MacIntel,60,5f47c0b9b035471e11593a5c,5f4f81a84873f20383e2d723,6,,,,,,taxi,,,,,,,,,,,2,0,0,3,3,18,1,,,,,,,,,,,,,,,,,,,,,,,,,,,,,,,,,,,,,,,,,,,,,,,,,,,,,,,,,,,,,,,,,,,,,,
,,?,0.000925,0,,,,,,stimuli/images/PICTURE_667.png,BATH,5cf12ddbf17e370017a278c5,31081997,2020-09-02_12h32.51.613,proactive3.2,2020.1.2,MacIntel,60,5f47c0b9b035471e11593a5c,5f4f81a84873f20383e2d723,6,,,,,,daisy,,,,,,,,,,,1,0,0,4,4,4,1,,,,,,,,,,,,,,,,,,,,,,,,,,,,,,,,,,,,,,,,,,,,,,,,,,,,,,,,,,,,,,,,,,,,,,
,,?,0.00058,0,,,,,,stimuli/images/PICTURE_233.png,WOMEN,5cf12ddbf17e370017a278c5,31081997,2020-09-02_12h32.51.613,proactive3.2,2020.1.2,MacIntel,60,5f47c0b9b035471e11593a5c,5f4f81a84873f20383e2d723,6,,,,,,salt,,,,,,,,,,,4,0,0,5,5,38,1,,,,,,,,,,,,,,,,,,,,,,,,,,,,,,,,,,,,,,,,,,,,,,,,,,,,,,,,,,,,,,,,,,,,,,
,,?,0.000665,0,,,,,,stimuli/images/PICTURE_744.png,SYSTEM,5cf12ddbf17e370017a278c5,31081997,2020-09-02_12h32.51.613,proactive3.2,2020.1.2,MacIntel,60,5f47c0b9b035471e11593a5c,5f4f81a84873f20383e2d723,6,,,,,,ring,,,,,,,,,,,5,0,0,6,6,43,1,,,,,,,,,,,,,,,,,,,,,,,,,,,,,,,,,,,,,,,,,,,,,,,,,,,,,,,,,,,,,,,,,,,,,,
,,?,0.000715,0,,,,,,stimuli/images/PICTURE_504.png,BODY,5cf12ddbf17e370017a278c5,31081997,2020-09-02_12h32.51.613,proactive3.2,2020.1.2,MacIntel,60,5f47c0b9b035471e11593a5c,5f4f81a84873f20383e2d723,6,,,,,,wheel,,,,,,,,,,,1,0,0,7,7,8,1,,,,,,,,,,,,,,,,,,,,,,,,,,,,,,,,,,,,,,,,,,,,,,,,,,,,,,,,,,,,,,,,,,,,,,
,,PLENTY,9.03511,0,,,,,,stimuli/images/PICTURE_208.png,MONTH,5cf12ddbf17e370017a278c5,31081997,2020-09-02_12h32.51.613,proactive3.2,2020.1.2,MacIntel,60,5f47c0b9b035471e11593a5c,5f4f81a84873f20383e2d723,6,,,,,,microphone,,,,,,,,,,,6,0,0,8,8,53,1,,,,,,,,,,,,,,,,,,,,,,,,,,,,,,,,,,,,,,,,,,,,,,,,,,,,,,,,,,,,,,,,,,,,,,
,,?,0.001145,0,,,,,,stimuli/images/PICTURE_215.png,PLENTY,5cf12ddbf17e370017a278c5,31081997,2020-09-02_12h32.51.613,proactive3.2,2020.1.2,MacIntel,60,5f47c0b9b035471e11593a5c,5f4f81a84873f20383e2d723,6,,,,,,boot,,,,,,,,,,,4,0,0,9,9,37,1,,,,,,,,,,,,,,,,,,,,,,,,,,,,,,,,,,,,,,,,,,,,,,,,,,,,,,,,,,,,,,,,,,,,,,
,,?,0.000605,0,,,,,,stimuli/images/PICTURE_314.png,SAKE,5cf12ddbf17e370017a278c5,31081997,2020-09-02_12h32.51.613,proactive3.2,2020.1.2,MacIntel,60,5f47c0b9b035471e11593a5c,5f4f81a84873f20383e2d723,6,,,,,,perfume,,,,,,,,,,,1,0,0,10,10,7,1,,,,,,,,,,,,,,,,,,,,,,,,,,,,,,,,,,,,,,,,,,,,,,,,,,,,,,,,,,,,,,,,,,,,,,
,,?,0.000485,0,,,,,,stimuli/images/PICTURE_311.png,BEAUTY,5cf12ddbf17e370017a278c5,31081997,2020-09-02_12h32.51.613,proactive3.2,2020.1.2,MacIntel,60,5f47c0b9b035471e11593a5c,5f4f81a84873f20383e2d723,6,,,,,,razor,,,,,,,,,,,2,0,0,11,11,13,1,,,,,,,,,,,,,,,,,,,,,,,,,,,,,,,,,,,,,,,,,,,,,,,,,,,,,,,,,,,,,,,,,,,,,,
,,PLENTY,5.496525,1,,,,,,stimuli/images/PICTURE_453.png,PLENTY,5cf12ddbf17e370017a278c5,31081997,2020-09-02_12h32.51.613,proactive3.2,2020.1.2,MacIntel,60,5f47c0b9b035471e11593a5c,5f4f81a84873f20383e2d723,6,,,,,,scissors,,,,,,,,,,,6,0,0,12,12,56,1,,,,,,,,,,,,,,,,,,,,,,,,,,,,,,,,,,,,,,,,,,,,,,,,,,,,,,,,,,,,,,,,,,,,,,
,,?,0.00087,0,,,,,,stimuli/images/PICTURE_160.png,LEADER,5cf12ddbf17e370017a278c5,31081997,2020-09-02_12h32.51.613,proactive3.2,2020.1.2,MacIntel,60,5f47c0b9b035471e11593a5c,5f4f81a84873f20383e2d723,6,,,,,,wheelbarrow,,,,,,,,,,,1,0,0,13,13,3,1,,,,,,,,,,,,,,,,,,,,,,,,,,,,,,,,,,,,,,,,,,,,,,,,,,,,,,,,,,,,,,,,,,,,,,
,,?,0.00077,0,,,,,,stimuli/images/PICTURE_285.png,ADVICE,5cf12ddbf17e370017a278c5,31081997,2020-09-02_12h32.51.613,proactive3.2,2020.1.2,MacIntel,60,5f47c0b9b035471e11593a5c,5f4f81a84873f20383e2d723,6,,,,,,carrot,,,,,,,,,,,2,0,0,14,14,12,1,,,,,,,,,,,,,,,,,,,,,,,,,,,,,,,,,,,,,,,,,,,,,,,,,,,,,,,,,,,,,,,,,,,,,,
,,?,0.000745,0,,,,,,stimuli/images/PICTURE_708.png,CLIENT,5cf12ddbf17e370017a278c5,31081997,2020-09-02_12h32.51.613,proactive3.2,2020.1.2,MacIntel,60,5f47c0b9b035471e11593a5c,5f4f81a84873f20383e2d723,6,,,,,,monkey,,,,,,,,,,,1,0,0,15,15,5,1,,,,,,,,,,,,,,,,,,,,,,,,,,,,,,,,,,,,,,,,,,,,,,,,,,,,,,,,,,,,,,,,,,,,,,
,,THING,14.55834,0,,,,,,stimuli/images/PICTURE_147.png,MOMENT,5cf12ddbf17e370017a278c5,31081997,2020-09-02_12h32.51.613,proactive3.2,2020.1.2,MacIntel,60,5f47c0b9b035471e11593a5c,5f4f81a84873f20383e2d723,6,,,,,,hanger,,,,,,,,,,,6,0,0,16,16,51,1,,,,,,,,,,,,,,,,,,,,,,,,,,,,,,,,,,,,,,,,,,,,,,,,,,,,,,,,,,,,,,,,,,,,,,
,,?,0.00122,0,,,,,,stimuli/images/PICTURE_339.png,PLENTY,5cf12ddbf17e370017a278c5,31081997,2020-09-02_12h32.51.613,proactive3.2,2020.1.2,MacIntel,60,5f47c0b9b035471e11593a5c,5f4f81a84873f20383e2d723,6,,,,,,backpack,,,,,,,,,,,1,0,0,17,17,0,1,,,,,,,,,,,,,,,,,,,,,,,,,,,,,,,,,,,,,,,,,,,,,,,,,,,,,,,,,,,,,,,,,,,,,,
,,?,0.00113,0,,,,,,stimuli/images/PICTURE_95.png,STYLE,5cf12ddbf17e370017a278c5,31081997,2020-09-02_12h32.51.613,proactive3.2,2020.1.2,MacIntel,60,5f47c0b9b035471e11593a5c,5f4f81a84873f20383e2d723,6,,,,,,suitcase,,,,,,,,,,,3,0,0,18,18,25,1,,,,,,,,,,,,,,,,,,,,,,,,,,,,,,,,,,,,,,,,,,,,,,,,,,,,,,,,,,,,,,,,,,,,,,
,,?,0.000485,0,,,,,,stimuli/images/PICTURE_509.png,PHOTO,5cf12ddbf17e370017a278c5,31081997,2020-09-02_12h32.51.613,proactive3.2,2020.1.2,MacIntel,60,5f47c0b9b035471e11593a5c,5f4f81a84873f20383e2d723,6,,,,,,telephone,,,,,,,,,,,3,0,0,19,19,21,1,,,,,,,,,,,,,,,,,,,,,,,,,,,,,,,,,,,,,,,,,,,,,,,,,,,,,,,,,,,,,,,,,,,,,,
,,?,0.00086,0,,,,,,stimuli/images/PICTURE_488.png,STYLE,5cf12ddbf17e370017a278c5,31081997,2020-09-02_12h32.51.613,proactive3.2,2020.1.2,MacIntel,60,5f47c0b9b035471e11593a5c,5f4f81a84873f20383e2d723,6,,,,,,sun,,,,,,,,,,,4,0,0,20,20,33,1,,,,,,,,,,,,,,,,,,,,,,,,,,,,,,,,,,,,,,,,,,,,,,,,,,,,,,,,,,,,,,,,,,,,,,
,,?,0.00051,0,,,,,,stimuli/images/PICTURE_208.png,LOTS,5cf12ddbf17e370017a278c5,31081997,2020-09-02_12h32.51.613,proactive3.2,2020.1.2,MacIntel,60,5f47c0b9b035471e11593a5c,5f4f81a84873f20383e2d723,6,,,,,,microphone,,,,,,,,,,,2,0,0,21,21,10,1,,,,,,,,,,,,,,,,,,,,,,,,,,,,,,,,,,,,,,,,,,,,,,,,,,,,,,,,,,,,,,,,,,,,,,
,,?,0.000505,0,,,,,,stimuli/images/PICTURE_654.png,VALLEY,5cf12ddbf17e370017a278c5,31081997,2020-09-02_12h32.51.613,proactive3.2,2020.1.2,MacIntel,60,5f47c0b9b035471e11593a5c,5f4f81a84873f20383e2d723,6,,,,,,pencil,,,,,,,,,,,1,0,0,22,22,1,1,,,,,,,,,,,,,,,,,,,,,,,,,,,,,,,,,,,,,,,,,,,,,,,,,,,,,,,,,,,,,,,,,,,,,,
,,?,0.00048,0,,,,,,stimuli/images/PICTURE_453.png,DUDE,5cf12ddbf17e370017a278c5,31081997,2020-09-02_12h32.51.613,proactive3.2,2020.1.2,MacIntel,60,5f47c0b9b035471e11593a5c,5f4f81a84873f20383e2d723,6,,,,,,scissors,,,,,,,,,,,3,0,0,23,23,27,1,,,,,,,,,,,,,,,,,,,,,,,,,,,,,,,,,,,,,,,,,,,,,,,,,,,,,,,,,,,,,,,,,,,,,,
,,?,0.000465,0,,,,,,stimuli/images/PICTURE_308.png,ESTATE,5cf12ddbf17e370017a278c5,31081997,2020-09-02_12h32.51.613,proactive3.2,2020.1.2,MacIntel,60,5f47c0b9b035471e11593a5c,5f4f81a84873f20383e2d723,6,,,,,,dice,,,,,,,,,,,5,0,0,24,24,46,1,,,,,,,,,,,,,,,,,,,,,,,,,,,,,,,,,,,,,,,,,,,,,,,,,,,,,,,,,,,,,,,,,,,,,,
,,?,0.000485,0,,,,,,stimuli/images/PICTURE_248.png,DOZEN,5cf12ddbf17e370017a278c5,31081997,2020-09-02_12h32.51.613,proactive3.2,2020.1.2,MacIntel,60,5f47c0b9b035471e11593a5c,5f4f81a84873f20383e2d723,6,,,,,,cart,,,,,,,,,,,4,0,0,25,25,39,1,,,,,,,,,,,,,,,,,,,,,,,,,,,,,,,,,,,,,,,,,,,,,,,,,,,,,,,,,,,,,,,,,,,,,,
,,?,0.00075,0,,,,,,stimuli/images/PICTURE_203.png,ARTIST,5cf12ddbf17e370017a278c5,31081997,2020-09-02_12h32.51.613,proactive3.2,2020.1.2,MacIntel,60,5f47c0b9b035471e11593a5c,5f4f81a84873f20383e2d723,6,,,,,,cap,,,,,,,,,,,3,0,0,26,26,26,1,,,,,,,,,,,,,,,,,,,,,,,,,,,,,,,,,,,,,,,,,,,,,,,,,,,,,,,,,,,,,,,,,,,,,,
,,?,0.000595,0,,,,,,stimuli/images/PICTURE_314.png,GODS,5cf12ddbf17e370017a278c5,31081997,2020-09-02_12h32.51.613,proactive3.2,2020.1.2,MacIntel,60,5f47c0b9b035471e11593a5c,5f4f81a84873f20383e2d723,6,,,,,,perfume,,,,,,,,,,,2,0,0,27,27,11,1,,,,,,,,,,,,,,,,,,,,,,,,,,,,,,,,,,,,,,,,,,,,,,,,,,,,,,,,,,,,,,,,,,,,,,
,,?,0.00062,0,,,,,,stimuli/images/PICTURE_85.png,THING,5cf12ddbf17e370017a278c5,31081997,2020-09-02_12h32.51.613,proactive3.2,2020.1.2,MacIntel,60,5f47c0b9b035471e11593a5c,5f4f81a84873f20383e2d723,6,,,,,,diamond,,,,,,,,,,,2,0,0,28,28,15,1,,,,,,,,,,,,,,,,,,,,,,,,,,,,,,,,,,,,,,,,,,,,,,,,,,,,,,,,,,,,,,,,,,,,,,
,,?,0.00056,0,,,,,,stimuli/images/PICTURE_380.png,DEATH,5cf12ddbf17e370017a278c5,31081997,2020-09-02_12h32.51.613,proactive3.2,2020.1.2,MacIntel,60,5f47c0b9b035471e11593a5c,5f4f81a84873f20383e2d723,6,,,,,,gorilla,,,,,,,,,,,5,0,0,29,29,49,1,,,,,,,,,,,,,,,,,,,,,,,,,,,,,,,,,,,,,,,,,,,,,,,,,,,,,,,,,,,,,,,,,,,,,,
,,?,0.0006,0,,,,,,stimuli/images/PICTURE_311.png,FRIEND,5cf12ddbf17e370017a278c5,31081997,2020-09-02_12h32.51.613,proactive3.2,2020.1.2,MacIntel,60,5f47c0b9b035471e11593a5c,5f4f81a84873f20383e2d723,6,,,,,,razor,,,,,,,,,,,4,0,0,30,30,34,1,,,,,,,,,,,,,,,,,,,,,,,,,,,,,,,,,,,,,,,,,,,,,,,,,,,,,,,,,,,,,,,,,,,,,,
,,?,0.00056,0,,,,,,stimuli/images/PICTURE_688.png,WOMEN,5cf12ddbf17e370017a278c5,31081997,2020-09-02_12h32.51.613,proactive3.2,2020.1.2,MacIntel,60,5f47c0b9b035471e11593a5c,5f4f81a84873f20383e2d723,6,,,,,,runner,,,,,,,,,,,2,0,0,31,31,14,1,,,,,,,,,,,,,,,,,,,,,,,,,,,,,,,,,,,,,,,,,,,,,,,,,,,,,,,,,,,,,,,,,,,,,,
,,?,0.000465,0,,,,,,stimuli/images/PICTURE_491.png,ROOF,5cf12ddbf17e370017a278c5,31081997,2020-09-02_12h32.51.613,proactive3.2,2020.1.2,MacIntel,60,5f47c0b9b035471e11593a5c,5f4f81a84873f20383e2d723,6,,,,,,rug,,,,,,,,,,,3,0,0,32,32,24,1,,,,,,,,,,,,,,,,,,,,,,,,,,,,,,,,,,,,,,,,,,,,,,,,,,,,,,,,,,,,,,,,,,,,,,
,,?,0.000465,0,,,,,,stimuli/images/PICTURE_208.png,THING,5cf12ddbf17e370017a278c5,31081997,2020-09-02_12h32.51.613,proactive3.2,2020.1.2,MacIntel,60,5f47c0b9b035471e11593a5c,5f4f81a84873f20383e2d723,6,,,,,,microphone,,,,,,,,,,,5,0,0,33,33,47,1,,,,,,,,,,,,,,,,,,,,,,,,,,,,,,,,,,,,,,,,,,,,,,,,,,,,,,,,,,,,,,,,,,,,,,
,,?,0.000415,0,,,,,,stimuli/images/PICTURE_255.png,AREA,5cf12ddbf17e370017a278c5,31081997,2020-09-02_12h32.51.613,proactive3.2,2020.1.2,MacIntel,60,5f47c0b9b035471e11593a5c,5f4f81a84873f20383e2d723,6,,,,,,shovel,,,,,,,,,,,3,0,0,34,34,22,1,,,,,,,,,,,,,,,,,,,,,,,,,,,,,,,,,,,,,,,,,,,,,,,,,,,,,,,,,,,,,,,,,,,,,,
,,FEET,3.6633,1,,,,,,stimuli/images/PICTURE_160.png,FEET,5cf12ddbf17e370017a278c5,31081997,2020-09-02_12h32.51.613,proactive3.2,2020.1.2,MacIntel,60,5f47c0b9b035471e11593a5c,5f4f81a84873f20383e2d723,6,,,,,,wheelbarrow,,,,,,,,,,,6,0,0,35,35,58,1,,,,,,,,,,,,,,,,,,,,,,,,,,,,,,,,,,,,,,,,,,,,,,,,,,,,,,,,,,,,,,,,,,,,,,
,,?,0.001085,0,,,,,,stimuli/images/PICTURE_327.png,BEAUTY,5cf12ddbf17e370017a278c5,31081997,2020-09-02_12h32.51.613,proactive3.2,2020.1.2,MacIntel,60,5f47c0b9b035471e11593a5c,5f4f81a84873f20383e2d723,6,,,,,,helmet,,,,,,,,,,,5,0,0,36,36,48,1,,,,,,,,,,,,,,,,,,,,,,,,,,,,,,,,,,,,,,,,,,,,,,,,,,,,,,,,,,,,,,,,,,,,,,
,,ADVICE,12.20152,1,,,,,,stimuli/images/PICTURE_123.png,ADVICE,5cf12ddbf17e370017a278c5,31081997,2020-09-02_12h32.51.613,proactive3.2,2020.1.2,MacIntel,60,5f47c0b9b035471e11593a5c,5f4f81a84873f20383e2d723,6,,,,,,dart,,,,,,,,,,,6,0,0,37,37,50,1,,,,,,,,,,,,,,,,,,,,,,,,,,,,,,,,,,,,,,,,,,,,,,,,,,,,,,,,,,,,,,,,,,,,,,
,,?,0.000855,0,,,,,,stimuli/images/PICTURE_177.png,CARS,5cf12ddbf17e370017a278c5,31081997,2020-09-02_12h32.51.613,proactive3.2,2020.1.2,MacIntel,60,5f47c0b9b035471e11593a5c,5f4f81a84873f20383e2d723,6,,,,,,mushroom,,,,,,,,,,,4,0,0,38,38,35,1,,,,,,,,,,,,,,,,,,,,,,,,,,,,,,,,,,,,,,,,,,,,,,,,,,,,,,,,,,,,,,,,,,,,,,
,,?,0.000785,0,,,,,,stimuli/images/PICTURE_677.png,MILE,5cf12ddbf17e370017a278c5,31081997,2020-09-02_12h32.51.613,proactive3.2,2020.1.2,MacIntel,60,5f47c0b9b035471e11593a5c,5f4f81a84873f20383e2d723,6,,,,,,map,,,,,,,,,,,4,0,0,39,39,30,1,,,,,,,,,,,,,,,,,,,,,,,,,,,,,,,,,,,,,,,,,,,,,,,,,,,,,,,,,,,,,,,,,,,,,,
,,?,0.000735,0,,,,,,stimuli/images/PICTURE_469.png,ARTIST,5cf12ddbf17e370017a278c5,31081997,2020-09-02_12h32.51.613,proactive3.2,2020.1.2,MacIntel,60,5f47c0b9b035471e11593a5c,5f4f81a84873f20383e2d723,6,,,,,,stool,,,,,,,,,,,1,0,0,40,40,6,1,,,,,,,,,,,,,,,,,,,,,,,,,,,,,,,,,,,,,,,,,,,,,,,,,,,,,,,,,,,,,,,,,,,,,,
,,?,0.000535,0,,,,,,stimuli/images/PICTURE_708.png,YARD,5cf12ddbf17e370017a278c5,31081997,2020-09-02_12h32.51.613,proactive3.2,2020.1.2,MacIntel,60,5f47c0b9b035471e11593a5c,5f4f81a84873f20383e2d723,6,,,,,,monkey,,,,,,,,,,,3,0,0,41,41,29,1,,,,,,,,,,,,,,,,,,,,,,,,,,,,,,,,,,,,,,,,,,,,,,,,,,,,,,,,,,,,,,,,,,,,,,
,,?,0.00042,0,,,,,,stimuli/images/PICTURE_675.png,WEAPON,5cf12ddbf17e370017a278c5,31081997,2020-09-02_12h32.51.613,proactive3.2,2020.1.2,MacIntel,60,5f47c0b9b035471e11593a5c,5f4f81a84873f20383e2d723,6,,,,,,windmill,,,,,,,,,,,4,0,0,42,42,32,1,,,,,,,,,,,,,,,,,,,,,,,,,,,,,,,,,,,,,,,,,,,,,,,,,,,,,,,,,,,,,,,,,,,,,,
,,?,0.00042,0,,,,,,stimuli/images/PICTURE_692.png,MONTH,5cf12ddbf17e370017a278c5,31081997,2020-09-02_12h32.51.613,proactive3.2,2020.1.2,MacIntel,60,5f47c0b9b035471e11593a5c,5f4f81a84873f20383e2d723,6,,,,,,cherry,,,,,,,,,,,2,0,0,43,43,16,1,,,,,,,,,,,,,,,,,,,,,,,,,,,,,,,,,,,,,,,,,,,,,,,,,,,,,,,,,,,,,,,,,,,,,,
,,THING,3.932325,1,,,,,,stimuli/images/PICTURE_449.png,THING,5cf12ddbf17e370017a278c5,31081997,2020-09-02_12h32.51.613,proactive3.2,2020.1.2,MacIntel,60,5f47c0b9b035471e11593a5c,5f4f81a84873f20383e2d723,6,,,,,,bench,,,,,,,,,,,6,0,0,44,44,59,1,,,,,,,,,,,,,,,,,,,,,,,,,,,,,,,,,,,,,,,,,,,,,,,,,,,,,,,,,,,,,,,,,,,,,,
,,?,0.00094,0,,,,,,stimuli/images/PICTURE_151.png,GIRL,5cf12ddbf17e370017a278c5,31081997,2020-09-02_12h32.51.613,proactive3.2,2020.1.2,MacIntel,60,5f47c0b9b035471e11593a5c,5f4f81a84873f20383e2d723,6,,,,,,tray,,,,,,,,,,,2,0,0,45,45,19,1,,,,,,,,,,,,,,,,,,,,,,,,,,,,,,,,,,,,,,,,,,,,,,,,,,,,,,,,,,,,,,,,,,,,,,
,,KIND,2.192025,1,,,,,,stimuli/images/PICTURE_308.png,KIND,5cf12ddbf17e370017a278c5,31081997,2020-09-02_12h32.51.613,proactive3.2,2020.1.2,MacIntel,60,5f47c0b9b035471e11593a5c,5f4f81a84873f20383e2d723,6,,,,,,dice,,,,,,,,,,,6,0,0,46,46,54,1,,,,,,,,,,,,,,,,,,,,,,,,,,,,,,,,,,,,,,,,,,,,,,,,,,,,,,,,,,,,,,,,,,,,,,
,,?,0.000875,0,,,,,,stimuli/images/PICTURE_68.png,MILE,5cf12ddbf17e370017a278c5,31081997,2020-09-02_12h32.51.613,proactive3.2,2020.1.2,MacIntel,60,5f47c0b9b035471e11593a5c,5f4f81a84873f20383e2d723,6,,,,,,candle,,,,,,,,,,,5,0,0,47,47,44,1,,,,,,,,,,,,,,,,,,,,,,,,,,,,,,,,,,,,,,,,,,,,,,,,,,,,,,,,,,,,,,,,,,,,,,
,,?,0.00082,0,,,,,,stimuli/images/PICTURE_467.png,DEMON,5cf12ddbf17e370017a278c5,31081997,2020-09-02_12h32.51.613,proactive3.2,2020.1.2,MacIntel,60,5f47c0b9b035471e11593a5c,5f4f81a84873f20383e2d723,6,,,,,,peg,,,,,,,,,,,3,0,0,48,48,23,1,,,,,,,,,,,,,,,,,,,,,,,,,,,,,,,,,,,,,,,,,,,,,,,,,,,,,,,,,,,,,,,,,,,,,,
,,?,0.000555,0,,,,,,stimuli/images/PICTURE_688.png,CASINO,5cf12ddbf17e370017a278c5,31081997,2020-09-02_12h32.51.613,proactive3.2,2020.1.2,MacIntel,60,5f47c0b9b035471e11593a5c,5f4f81a84873f20383e2d723,6,,,,,,runner,,,,,,,,,,,1,0,0,49,49,2,1,,,,,,,,,,,,,,,,,,,,,,,,,,,,,,,,,,,,,,,,,,,,,,,,,,,,,,,,,,,,,,,,,,,,,,
,,DANGER,2.07192,1,,,,,,stimuli/images/PICTURE_356.png,DANGER,5cf12ddbf17e370017a278c5,31081997,2020-09-02_12h32.51.613,proactive3.2,2020.1.2,MacIntel,60,5f47c0b9b035471e11593a5c,5f4f81a84873f20383e2d723,6,,,,,,pawn,,,,,,,,,,,6,0,0,50,50,55,1,,,,,,,,,,,,,,,,,,,,,,,,,,,,,,,,,,,,,,,,,,,,,,,,,,,,,,,,,,,,,,,,,,,,,,
,,?,0.001115,0,,,,,,stimuli/images/PICTURE_667.png,PLENTY,5cf12ddbf17e370017a278c5,31081997,2020-09-02_12h32.51.613,proactive3.2,2020.1.2,MacIntel,60,5f47c0b9b035471e11593a5c,5f4f81a84873f20383e2d723,6,,,,,,daisy,,,,,,,,,,,5,0,0,51,51,41,1,,,,,,,,,,,,,,,,,,,,,,,,,,,,,,,,,,,,,,,,,,,,,,,,,,,,,,,,,,,,,,,,,,,,,,
,,?,0.000975,0,,,,,,stimuli/images/PICTURE_744.png,SAKE,5cf12ddbf17e370017a278c5,31081997,2020-09-02_12h32.51.613,proactive3.2,2020.1.2,MacIntel,60,5f47c0b9b035471e11593a5c,5f4f81a84873f20383e2d723,6,,,,,,ring,,,,,,,,,,,2,0,0,52,52,17,1,,,,,,,,,,,,,,,,,,,,,,,,,,,,,,,,,,,,,,,,,,,,,,,,,,,,,,,,,,,,,,,,,,,,,,
,,?,0.000855,0,,,,,,stimuli/images/PICTURE_470.png,CASINO,5cf12ddbf17e370017a278c5,31081997,2020-09-02_12h32.51.613,proactive3.2,2020.1.2,MacIntel,60,5f47c0b9b035471e11593a5c,5f4f81a84873f20383e2d723,6,,,,,,motorbike,,,,,,,,,,,4,0,0,53,53,36,1,,,,,,,,,,,,,,,,,,,,,,,,,,,,,,,,,,,,,,,,,,,,,,,,,,,,,,,,,,,,,,,,,,,,,,
,,PHOTO,2.155115,1,,,,,,stimuli/images/PICTURE_380.png,PHOTO,5cf12ddbf17e370017a278c5,31081997,2020-09-02_12h32.51.613,proactive3.2,2020.1.2,MacIntel,60,5f47c0b9b035471e11593a5c,5f4f81a84873f20383e2d723,6,,,,,,gorilla,,,,,,,,,,,6,0,0,54,54,52,1,,,,,,,,,,,,,,,,,,,,,,,,,,,,,,,,,,,,,,,,,,,,,,,,,,,,,,,,,,,,,,,,,,,,,,
,,?,0.000915,0,,,,,,stimuli/images/PICTURE_469.png,LETTER,5cf12ddbf17e370017a278c5,31081997,2020-09-02_12h32.51.613,proactive3.2,2020.1.2,MacIntel,60,5f47c0b9b035471e11593a5c,5f4f81a84873f20383e2d723,6,,,,,,stool,,,,,,,,,,,5,0,0,55,55,42,1,,,,,,,,,,,,,,,,,,,,,,,,,,,,,,,,,,,,,,,,,,,,,,,,,,,,,,,,,,,,,,,,,,,,,,
,,?,0.000745,0,,,,,,stimuli/images/PICTURE_32.png,JUNGLE,5cf12ddbf17e370017a278c5,31081997,2020-09-02_12h32.51.613,proactive3.2,2020.1.2,MacIntel,60,5f47c0b9b035471e11593a5c,5f4f81a84873f20383e2d723,6,,,,,,crown,,,,,,,,,,,5,0,0,56,56,45,1,,,,,,,,,,,,,,,,,,,,,,,,,,,,,,,,,,,,,,,,,,,,,,,,,,,,,,,,,,,,,,,,,,,,,,
,,?,0.000915,0,,,,,,stimuli/images/PICTURE_123.png,ADVICE,5cf12ddbf17e370017a278c5,31081997,2020-09-02_12h32.51.613,proactive3.2,2020.1.2,MacIntel,60,5f47c0b9b035471e11593a5c,5f4f81a84873f20383e2d723,6,,,,,,dart,,,,,,,,,,,5,0,0,57,57,40,1,,,,,,,,,,,,,,,,,,,,,,,,,,,,,,,,,,,,,,,,,,,,,,,,,,,,,,,,,,,,,,,,,,,,,,
,,?,0.0009,0,,,,,,stimuli/images/PICTURE_233.png,IDEAS,5cf12ddbf17e370017a278c5,31081997,2020-09-02_12h32.51.613,proactive3.2,2020.1.2,MacIntel,60,5f47c0b9b035471e11593a5c,5f4f81a84873f20383e2d723,6,,,,,,salt,,,,,,,,,,,3,0,0,58,58,28,1,,,,,,,,,,,,,,,,,,,,,,,,,,,,,,,,,,,,,,,,,,,,,,,,,,,,,,,,,,,,,,,,,,,,,,
,,?,0.00074,0,,,,,,stimuli/images/PICTURE_487.png,FLIGHT,5cf12ddbf17e370017a278c5,31081997,2020-09-02_12h32.51.613,proactive3.2,2020.1.2,MacIntel,60,5f47c0b9b035471e11593a5c,5f4f81a84873f20383e2d723,6,,,,,,basket,,,,,,,,,,,1,0,0,59,59,9,1,,,,,,,,,,,,,,,,,,,,,,,,,,,,,,,,,,,,,,,,,,,,,,,,,,,,,,,,,,,,,,,,,,,,,,
,,,,,,,,,,,,5cf12ddbf17e370017a278c5,31081997,2020-09-02_12h32.51.613,proactive3.2,2020.1.2,MacIntel,60,5f47c0b9b035471e11593a5c,5f4f81a84873f20383e2d723,6,,,,,,,,,,,,,,,,,,,,,,,,0,1,1,0,1,stimuli/learn-block1.csv,,,,,,,,,,,,,,,,,,,,,,,,,,,,,,,,,,,,,,,,,,,,,,,,,,,,,,,,,,,,,,,,
,,,,,,,,,,stimuli/images/PICTURE_2.png,JUNGLE,5cf12ddbf17e370017a278c5,31081997,2020-09-02_12h32.51.613,proactive3.2,2020.1.2,MacIntel,60,5f47c0b9b035471e11593a5c,5f4f81a84873f20383e2d723,6,,,,,,tyre,,,,,,0,0,0,1,1,1,2,,,,,,,,,,,,,,,,,,,,,,,,,,,,,,,,,,,,,,,,,,,,,,,,,,,,,,,,,,,,,,,,,,,,,,,,,,,
,,,,,,,,,,stimuli/images/PICTURE_654.png,YEAR,5cf12ddbf17e370017a278c5,31081997,2020-09-02_12h32.51.613,proactive3.2,2020.1.2,MacIntel,60,5f47c0b9b035471e11593a5c,5f4f81a84873f20383e2d723,6,,,,,,pencil,,,,,,0,1,1,41,1,5,2,,,,,,,,,,,,,,,,,,,,,,,,,,,,,,,,,,,,,,,,,,,,,,,,,,,,,,,,,,,,,,,,,,,,,,,,,,,
,,,,,,,,,,stimuli/images/PICTURE_667.png,GLASS,5cf12ddbf17e370017a278c5,31081997,2020-09-02_12h32.51.613,proactive3.2,2020.1.2,MacIntel,60,5f47c0b9b035471e11593a5c,5f4f81a84873f20383e2d723,6,,,,,,daisy,,,,,,0,2,2,27,1,3,2,,,,,,,,,,,,,,,,,,,,,,,,,,,,,,,,,,,,,,,,,,,,,,,,,,,,,,,,,,,,,,,,,,,,,,,,,,,
,,,,,,,,,,stimuli/images/PICTURE_208.png,SPIRIT,5cf12ddbf17e370017a278c5,31081997,2020-09-02_12h32.51.613,proactive3.2,2020.1.2,MacIntel,60,5f47c0b9b035471e11593a5c,5f4f81a84873f20383e2d723,6,,,,,,microphone,,,,,,0,3,3,28,1,3,2,,,,,,,,,,,,,,,,,,,,,,,,,,,,,,,,,,,,,,,,,,,,,,,,,,,,,,,,,,,,,,,,,,,,,,,,,,,
,,,,,,,,,,stimuli/images/PICTURE_93.png,GIRL,5cf12ddbf17e370017a278c5,31081997,2020-09-02_12h32.51.613,proactive3.2,2020.1.2,MacIntel,60,5f47c0b9b035471e11593a5c,5f4f81a84873f20383e2d723,6,,,,,,skateboard,,,,,,0,4,4,31,1,4,2,,,,,,,,,,,,,,,,,,,,,,,,,,,,,,,,,,,,,,,,,,,,,,,,,,,,,,,,,,,,,,,,,,,,,,,,,,,
,,,,,,,,,,stimuli/images/PICTURE_177.png,HOUSE,5cf12ddbf17e370017a278c5,31081997,2020-09-02_12h32.51.613,proactive3.2,2020.1.2,MacIntel,60,5f47c0b9b035471e11593a5c,5f4f81a84873f20383e2d723,6,,,,,,mushroom,,,,,,0,5,5,25,1,3,2,,,,,,,,,,,,,,,,,,,,,,,,,,,,,,,,,,,,,,,,,,,,,,,,,,,,,,,,,,,,,,,,,,,,,,,,,,,
,,,,,,,,,,stimuli/images/PICTURE_285.png,PRINCE,5cf12ddbf17e370017a278c5,31081997,2020-09-02_12h32.51.613,proactive3.2,2020.1.2,MacIntel,60,5f47c0b9b035471e11593a5c,5f4f81a84873f20383e2d723,6,,,,,,carrot,,,,,,0,6,6,20,1,3,2,,,,,,,,,,,,,,,,,,,,,,,,,,,,,,,,,,,,,,,,,,,,,,,,,,,,,,,,,,,,,,,,,,,,,,,,,,,
,,,,,,,,,,stimuli/images/PICTURE_2.png,YARD,5cf12ddbf17e370017a278c5,31081997,2020-09-02_12h32.51.613,proactive3.2,2020.1.2,MacIntel,60,5f47c0b9b035471e11593a5c,5f4f81a84873f20383e2d723,6,,,,,,tyre,,,,,,0,7,7,55,1,6,2,,,,,,,,,,,,,,,,,,,,,,,,,,,,,,,,,,,,,,,,,,,,,,,,,,,,,,,,,,,,,,,,,,,,,,,,,,,
,,,,,,,,,,stimuli/images/PICTURE_215.png,FOOD,5cf12ddbf17e370017a278c5,31081997,2020-09-02_12h32.51.613,proactive3.2,2020.1.2,MacIntel,60,5f47c0b9b035471e11593a5c,5f4f81a84873f20383e2d723,6,,,,,,boot,,,,,,0,8,8,5,1,1,2,,,,,,,,,,,,,,,,,,,,,,,,,,,,,,,,,,,,,,,,,,,,,,,,,,,,,,,,,,,,,,,,,,,,,,,,,,,
,,,,,,,,,,stimuli/images/PICTURE_95.png,NIGHT,5cf12ddbf17e370017a278c5,31081997,2020-09-02_12h32.51.613,proactive3.2,2020.1.2,MacIntel,60,5f47c0b9b035471e11593a5c,5f4f81a84873f20383e2d723,6,,,,,,suitcase,,,,,,0,9,9,37,1,4,2,,,,,,,,,,,,,,,,,,,,,,,,,,,,,,,,,,,,,,,,,,,,,,,,,,,,,,,,,,,,,,,,,,,,,,,,,,,
,,,,,,,,,,stimuli/images/PICTURE_750.png,POLICY,5cf12ddbf17e370017a278c5,31081997,2020-09-02_12h32.51.613,proactive3.2,2020.1.2,MacIntel,60,5f47c0b9b035471e11593a5c,5f4f81a84873f20383e2d723,6,,,,,,kettle,,,,,,0,10,10,44,1,5,2,,,,,,,,,,,,,,,,,,,,,,,,,,,,,,,,,,,,,,,,,,,,,,,,,,,,,,,,,,,,,,,,,,,,,,,,,,,
,,,,,,,,,,stimuli/images/PICTURE_677.png,PHOTO,5cf12ddbf17e370017a278c5,31081997,2020-09-02_12h32.51.613,proactive3.2,2020.1.2,MacIntel,60,5f47c0b9b035471e11593a5c,5f4f81a84873f20383e2d723,6,,,,,,map,,,,,,0,11,11,14,1,2,2,,,,,,,,,,,,,,,,,,,,,,,,,,,,,,,,,,,,,,,,,,,,,,,,,,,,,,,,,,,,,,,,,,,,,,,,,,,
,,,,,,,,,,stimuli/images/PICTURE_160.png,HOTEL,5cf12ddbf17e370017a278c5,31081997,2020-09-02_12h32.51.613,proactive3.2,2020.1.2,MacIntel,60,5f47c0b9b035471e11593a5c,5f4f81a84873f20383e2d723,6,,,,,,wheelbarrow,,,,,,0,12,12,16,1,2,2,,,,,,,,,,,,,,,,,,,,,,,,,,,,,,,,,,,,,,,,,,,,,,,,,,,,,,,,,,,,,,,,,,,,,,,,,,,
,,,,,,,,,,stimuli/images/PICTURE_509.png,SHOTS,5cf12ddbf17e370017a278c5,31081997,2020-09-02_12h32.51.613,proactive3.2,2020.1.2,MacIntel,60,5f47c0b9b035471e11593a5c,5f4f81a84873f20383e2d723,6,,,,,,telephone,,,,,,0,13,13,7,1,1,2,,,,,,,,,,,,,,,,,,,,,,,,,,,,,,,,,,,,,,,,,,,,,,,,,,,,,,,,,,,,,,,,,,,,,,,,,,,
,,,,,,,,,,stimuli/images/PICTURE_504.png,HOUSE,5cf12ddbf17e370017a278c5,31081997,2020-09-02_12h32.51.613,proactive3.2,2020.1.2,MacIntel,60,5f47c0b9b035471e11593a5c,5f4f81a84873f20383e2d723,6,,,,,,wheel,,,,,,0,14,14,36,1,4,2,,,,,,,,,,,,,,,,,,,,,,,,,,,,,,,,,,,,,,,,,,,,,,,,,,,,,,,,,,,,,,,,,,,,,,,,,,,
,,,,,,,,,,stimuli/images/PICTURE_215.png,BOYS,5cf12ddbf17e370017a278c5,31081997,2020-09-02_12h32.51.613,proactive3.2,2020.1.2,MacIntel,60,5f47c0b9b035471e11593a5c,5f4f81a84873f20383e2d723,6,,,,,,boot,,,,,,0,15,15,24,1,3,2,,,,,,,,,,,,,,,,,,,,,,,,,,,,,,,,,,,,,,,,,,,,,,,,,,,,,,,,,,,,,,,,,,,,,,,,,,,
,,,,,,,,,,stimuli/images/PICTURE_356.png,CANDY,5cf12ddbf17e370017a278c5,31081997,2020-09-02_12h32.51.613,proactive3.2,2020.1.2,MacIntel,60,5f47c0b9b035471e11593a5c,5f4f81a84873f20383e2d723,6,,,,,,pawn,,,,,,0,16,16,46,1,5,2,,,,,,,,,,,,,,,,,,,,,,,,,,,,,,,,,,,,,,,,,,,,,,,,,,,,,,,,,,,,,,,,,,,,,,,,,,,
,,,,,,,,,,stimuli/images/PICTURE_403.png,FAMILY,5cf12ddbf17e370017a278c5,31081997,2020-09-02_12h32.51.613,proactive3.2,2020.1.2,MacIntel,60,5f47c0b9b035471e11593a5c,5f4f81a84873f20383e2d723,6,,,,,,cathedral,,,,,,0,17,17,9,1,1,2,,,,,,,,,,,,,,,,,,,,,,,,,,,,,,,,,,,,,,,,,,,,,,,,,,,,,,,,,,,,,,,,,,,,,,,,,,,
,,,,,,,,,,stimuli/images/PICTURE_564.png,PLENTY,5cf12ddbf17e370017a278c5,31081997,2020-09-02_12h32.51.613,proactive3.2,2020.1.2,MacIntel,60,5f47c0b9b035471e11593a5c,5f4f81a84873f20383e2d723,6,,,,,,spoon,,,,,,0,18,18,11,1,2,2,,,,,,,,,,,,,,,,,,,,,,,,,,,,,,,,,,,,,,,,,,,,,,,,,,,,,,,,,,,,,,,,,,,,,,,,,,,
,,,,,,,,,,stimuli/images/PICTURE_470.png,BEAUTY,5cf12ddbf17e370017a278c5,31081997,2020-09-02_12h32.51.613,proactive3.2,2020.1.2,MacIntel,60,5f47c0b9b035471e11593a5c,5f4f81a84873f20383e2d723,6,,,,,,motorbike,,,,,,0,19,19,26,1,3,2,,,,,,,,,,,,,,,,,,,,,,,,,,,,,,,,,,,,,,,,,,,,,,,,,,,,,,,,,,,,,,,,,,,,,,,,,,,
,,,,,,,,,,stimuli/images/PICTURE_57.png,CASINO,5cf12ddbf17e370017a278c5,31081997,2020-09-02_12h32.51.613,proactive3.2,2020.1.2,MacIntel,60,5f47c0b9b035471e11593a5c,5f4f81a84873f20383e2d723,6,,,,,,stamp,,,,,,0,20,20,12,1,2,2,,,,,,,,,,,,,,,,,,,,,,,,,,,,,,,,,,,,,,,,,,,,,,,,,,,,,,,,,,,,,,,,,,,,,,,,,,,
,,,,,,,,,,stimuli/images/PICTURE_33.png,COPS,5cf12ddbf17e370017a278c5,31081997,2020-09-02_12h32.51.613,proactive3.2,2020.1.2,MacIntel,60,5f47c0b9b035471e11593a5c,5f4f81a84873f20383e2d723,6,,,,,,frame,,,,,,0,21,21,29,1,3,2,,,,,,,,,,,,,,,,,,,,,,,,,,,,,,,,,,,,,,,,,,,,,,,,,,,,,,,,,,,,,,,,,,,,,,,,,,,
,,,,,,,,,,stimuli/images/PICTURE_348.png,DUDE,5cf12ddbf17e370017a278c5,31081997,2020-09-02_12h32.51.613,proactive3.2,2020.1.2,MacIntel,60,5f47c0b9b035471e11593a5c,5f4f81a84873f20383e2d723,6,,,,,,pepper,,,,,,0,22,22,59,1,6,2,,,,,,,,,,,,,,,,,,,,,,,,,,,,,,,,,,,,,,,,,,,,,,,,,,,,,,,,,,,,,,,,,,,,,,,,,,,
,,,,,,,,,,stimuli/images/PICTURE_677.png,FAMILY,5cf12ddbf17e370017a278c5,31081997,2020-09-02_12h32.51.613,proactive3.2,2020.1.2,MacIntel,60,5f47c0b9b035471e11593a5c,5f4f81a84873f20383e2d723,6,,,,,,map,,,,,,0,23,23,53,1,6,2,,,,,,,,,,,,,,,,,,,,,,,,,,,,,,,,,,,,,,,,,,,,,,,,,,,,,,,,,,,,,,,,,,,,,,,,,,,
,,,,,,,,,,stimuli/images/PICTURE_708.png,VALLEY,5cf12ddbf17e370017a278c5,31081997,2020-09-02_12h32.51.613,proactive3.2,2020.1.2,MacIntel,60,5f47c0b9b035471e11593a5c,5f4f81a84873f20383e2d723,6,,,,,,monkey,,,,,,0,24,24,45,1,5,2,,,,,,,,,,,,,,,,,,,,,,,,,,,,,,,,,,,,,,,,,,,,,,,,,,,,,,,,,,,,,,,,,,,,,,,,,,,
,,,,,,,,,,stimuli/images/PICTURE_692.png,DUDE,5cf12ddbf17e370017a278c5,31081997,2020-09-02_12h32.51.613,proactive3.2,2020.1.2,MacIntel,60,5f47c0b9b035471e11593a5c,5f4f81a84873f20383e2d723,6,,,,,,cherry,,,,,,0,25,25,47,1,5,2,,,,,,,,,,,,,,,,,,,,,,,,,,,,,,,,,,,,,,,,,,,,,,,,,,,,,,,,,,,,,,,,,,,,,,,,,,,
,,,,,,,,,,stimuli/images/PICTURE_311.png,TOILET,5cf12ddbf17e370017a278c5,31081997,2020-09-02_12h32.51.613,proactive3.2,2020.1.2,MacIntel,60,5f47c0b9b035471e11593a5c,5f4f81a84873f20383e2d723,6,,,,,,razor,,,,,,0,26,26,54,1,6,2,,,,,,,,,,,,,,,,,,,,,,,,,,,,,,,,,,,,,,,,,,,,,,,,,,,,,,,,,,,,,,,,,,,,,,,,,,,
,,,,,,,,,,stimuli/images/PICTURE_487.png,POLICY,5cf12ddbf17e370017a278c5,31081997,2020-09-02_12h32.51.613,proactive3.2,2020.1.2,MacIntel,60,5f47c0b9b035471e11593a5c,5f4f81a84873f20383e2d723,6,,,,,,basket,,,,,,0,27,27,34,1,4,2,,,,,,,,,,,,,,,,,,,,,,,,,,,,,,,,,,,,,,,,,,,,,,,,,,,,,,,,,,,,,,,,,,,,,,,,,,,
,,,,,,,,,,stimuli/images/PICTURE_327.png,LEADER,5cf12ddbf17e370017a278c5,31081997,2020-09-02_12h32.51.613,proactive3.2,2020.1.2,MacIntel,60,5f47c0b9b035471e11593a5c,5f4f81a84873f20383e2d723,6,,,,,,helmet,,,,,,0,28,28,17,1,2,2,,,,,,,,,,,,,,,,,,,,,,,,,,,,,,,,,,,,,,,,,,,,,,,,,,,,,,,,,,,,,,,,,,,,,,,,,,,
,,,,,,,,,,stimuli/images/PICTURE_2.png,AREA,5cf12ddbf17e370017a278c5,31081997,2020-09-02_12h32.51.613,proactive3.2,2020.1.2,MacIntel,60,5f47c0b9b035471e11593a5c,5f4f81a84873f20383e2d723,6,,,,,,tyre,,,,,,0,29,29,32,1,4,2,,,,,,,,,,,,,,,,,,,,,,,,,,,,,,,,,,,,,,,,,,,,,,,,,,,,,,,,,,,,,,,,,,,,,,,,,,,
,,,,,,,,,,stimuli/images/PICTURE_405.png,JUNGLE,5cf12ddbf17e370017a278c5,31081997,2020-09-02_12h32.51.613,proactive3.2,2020.1.2,MacIntel,60,5f47c0b9b035471e11593a5c,5f4f81a84873f20383e2d723,6,,,,,,anchor,,,,,,0,30,30,58,1,6,2,,,,,,,,,,,,,,,,,,,,,,,,,,,,,,,,,,,,,,,,,,,,,,,,,,,,,,,,,,,,,,,,,,,,,,,,,,,
,,,,,,,,,,stimuli/images/PICTURE_470.png,MOMENT,5cf12ddbf17e370017a278c5,31081997,2020-09-02_12h32.51.613,proactive3.2,2020.1.2,MacIntel,60,5f47c0b9b035471e11593a5c,5f4f81a84873f20383e2d723,6,,,,,,motorbike,,,,,,0,31,31,40,1,5,2,,,,,,,,,,,,,,,,,,,,,,,,,,,,,,,,,,,,,,,,,,,,,,,,,,,,,,,,,,,,,,,,,,,,,,,,,,,
,,,,,,,,,,stimuli/images/PICTURE_453.png,FAMILY,5cf12ddbf17e370017a278c5,31081997,2020-09-02_12h32.51.613,proactive3.2,2020.1.2,MacIntel,60,5f47c0b9b035471e11593a5c,5f4f81a84873f20383e2d723,6,,,,,,scissors,,,,,,0,32,32,48,1,5,2,,,,,,,,,,,,,,,,,,,,,,,,,,,,,,,,,,,,,,,,,,,,,,,,,,,,,,,,,,,,,,,,,,,,,,,,,,,
,,,,,,,,,,stimuli/images/PICTURE_123.png,SALE,5cf12ddbf17e370017a278c5,31081997,2020-09-02_12h32.51.613,proactive3.2,2020.1.2,MacIntel,60,5f47c0b9b035471e11593a5c,5f4f81a84873f20383e2d723,6,,,,,,dart,,,,,,0,33,33,8,1,1,2,,,,,,,,,,,,,,,,,,,,,,,,,,,,,,,,,,,,,,,,,,,,,,,,,,,,,,,,,,,,,,,,,,,,,,,,,,,
,,,,,,,,,,stimuli/images/PICTURE_348.png,TOILET,5cf12ddbf17e370017a278c5,31081997,2020-09-02_12h32.51.613,proactive3.2,2020.1.2,MacIntel,60,5f47c0b9b035471e11593a5c,5f4f81a84873f20383e2d723,6,,,,,,pepper,,,,,,0,34,34,4,1,1,2,,,,,,,,,,,,,,,,,,,,,,,,,,,,,,,,,,,,,,,,,,,,,,,,,,,,,,,,,,,,,,,,,,,,,,,,,,,
,,,,,,,,,,stimuli/images/PICTURE_297.png,BODY,5cf12ddbf17e370017a278c5,31081997,2020-09-02_12h32.51.613,proactive3.2,2020.1.2,MacIntel,60,5f47c0b9b035471e11593a5c,5f4f81a84873f20383e2d723,6,,,,,,aeroplane,,,,,,0,35,35,51,1,6,2,,,,,,,,,,,,,,,,,,,,,,,,,,,,,,,,,,,,,,,,,,,,,,,,,,,,,,,,,,,,,,,,,,,,,,,,,,,
,,,,,,,,,,stimuli/images/PICTURE_57.png,NATION,5cf12ddbf17e370017a278c5,31081997,2020-09-02_12h32.51.613,proactive3.2,2020.1.2,MacIntel,60,5f47c0b9b035471e11593a5c,5f4f81a84873f20383e2d723,6,,,,,,stamp,,,,,,0,36,36,21,1,3,2,,,,,,,,,,,,,,,,,,,,,,,,,,,,,,,,,,,,,,,,,,,,,,,,,,,,,,,,,,,,,,,,,,,,,,,,,,,
,,,,,,,,,,stimuli/images/PICTURE_509.png,APPLE,5cf12ddbf17e370017a278c5,31081997,2020-09-02_12h32.51.613,proactive3.2,2020.1.2,MacIntel,60,5f47c0b9b035471e11593a5c,5f4f81a84873f20383e2d723,6,,,,,,telephone,,,,,,0,37,37,38,1,4,2,,,,,,,,,,,,,,,,,,,,,,,,,,,,,,,,,,,,,,,,,,,,,,,,,,,,,,,,,,,,,,,,,,,,,,,,,,,
,,,,,,,,,,stimuli/images/PICTURE_405.png,JUNGLE,5cf12ddbf17e370017a278c5,31081997,2020-09-02_12h32.51.613,proactive3.2,2020.1.2,MacIntel,60,5f47c0b9b035471e11593a5c,5f4f81a84873f20383e2d723,6,,,,,,anchor,,,,,,0,38,38,13,1,2,2,,,,,,,,,,,,,,,,,,,,,,,,,,,,,,,,,,,,,,,,,,,,,,,,,,,,,,,,,,,,,,,,,,,,,,,,,,,
,,,,,,,,,,stimuli/images/PICTURE_452.png,COPS,5cf12ddbf17e370017a278c5,31081997,2020-09-02_12h32.51.613,proactive3.2,2020.1.2,MacIntel,60,5f47c0b9b035471e11593a5c,5f4f81a84873f20383e2d723,6,,,,,,watch,,,,,,0,39,39,0,1,1,2,,,,,,,,,,,,,,,,,,,,,,,,,,,,,,,,,,,,,,,,,,,,,,,,,,,,,,,,,,,,,,,,,,,,,,,,,,,
,,,,,,,,,,stimuli/images/PICTURE_509.png,MILLER,5cf12ddbf17e370017a278c5,31081997,2020-09-02_12h32.51.613,proactive3.2,2020.1.2,MacIntel,60,5f47c0b9b035471e11593a5c,5f4f81a84873f20383e2d723,6,,,,,,telephone,,,,,,0,40,40,49,1,5,2,,,,,,,,,,,,,,,,,,,,,,,,,,,,,,,,,,,,,,,,,,,,,,,,,,,,,,,,,,,,,,,,,,,,,,,,,,,
,,,,,,,,,,stimuli/images/PICTURE_655.png,SALE,5cf12ddbf17e370017a278c5,31081997,2020-09-02_12h32.51.613,proactive3.2,2020.1.2,MacIntel,60,5f47c0b9b035471e11593a5c,5f4f81a84873f20383e2d723,6,,,,,,megaphone,,,,,,0,41,41,57,1,6,2,,,,,,,,,,,,,,,,,,,,,,,,,,,,,,,,,,,,,,,,,,,,,,,,,,,,,,,,,,,,,,,,,,,,,,,,,,,
,,,,,,,,,,stimuli/images/PICTURE_147.png,LEADER,5cf12ddbf17e370017a278c5,31081997,2020-09-02_12h32.51.613,proactive3.2,2020.1.2,MacIntel,60,5f47c0b9b035471e11593a5c,5f4f81a84873f20383e2d723,6,,,,,,hanger,,,,,,0,42,42,33,1,4,2,,,,,,,,,,,,,,,,,,,,,,,,,,,,,,,,,,,,,,,,,,,,,,,,,,,,,,,,,,,,,,,,,,,,,,,,,,,
,,,,,,,,,,stimuli/images/PICTURE_141.png,CLIENT,5cf12ddbf17e370017a278c5,31081997,2020-09-02_12h32.51.613,proactive3.2,2020.1.2,MacIntel,60,5f47c0b9b035471e11593a5c,5f4f81a84873f20383e2d723,6,,,,,,sunflower,,,,,,0,43,43,30,1,4,2,,,,,,,,,,,,,,,,,,,,,,,,,,,,,,,,,,,,,,,,,,,,,,,,,,,,,,,,,,,,,,,,,,,,,,,,,,,
,,,,,,,,,,stimuli/images/PICTURE_68.png,KIND,5cf12ddbf17e370017a278c5,31081997,2020-09-02_12h32.51.613,proactive3.2,2020.1.2,MacIntel,60,5f47c0b9b035471e11593a5c,5f4f81a84873f20383e2d723,6,,,,,,candle,,,,,,0,44,44,23,1,3,2,,,,,,,,,,,,,,,,,,,,,,,,,,,,,,,,,,,,,,,,,,,,,,,,,,,,,,,,,,,,,,,,,,,,,,,,,,,
,,,,,,,,,,stimuli/images/PICTURE_285.png,WRITER,5cf12ddbf17e370017a278c5,31081997,2020-09-02_12h32.51.613,proactive3.2,2020.1.2,MacIntel,60,5f47c0b9b035471e11593a5c,5f4f81a84873f20383e2d723,6,,,,,,carrot,,,,,,0,45,45,6,1,1,2,,,,,,,,,,,,,,,,,,,,,,,,,,,,,,,,,,,,,,,,,,,,,,,,,,,,,,,,,,,,,,,,,,,,,,,,,,,
,,,,,,,,,,stimuli/images/PICTURE_654.png,COPS,5cf12ddbf17e370017a278c5,31081997,2020-09-02_12h32.51.613,proactive3.2,2020.1.2,MacIntel,60,5f47c0b9b035471e11593a5c,5f4f81a84873f20383e2d723,6,,,,,,pencil,,,,,,0,46,46,10,1,2,2,,,,,,,,,,,,,,,,,,,,,,,,,,,,,,,,,,,,,,,,,,,,,,,,,,,,,,,,,,,,,,,,,,,,,,,,,,,
,,,,,,,,,,stimuli/images/PICTURE_314.png,SPEECH,5cf12ddbf17e370017a278c5,31081997,2020-09-02_12h32.51.613,proactive3.2,2020.1.2,MacIntel,60,5f47c0b9b035471e11593a5c,5f4f81a84873f20383e2d723,6,,,,,,perfume,,,,,,0,47,47,35,1,4,2,,,,,,,,,,,,,,,,,,,,,,,,,,,,,,,,,,,,,,,,,,,,,,,,,,,,,,,,,,,,,,,,,,,,,,,,,,,
,,,,,,,,,,stimuli/images/PICTURE_255.png,PENNY,5cf12ddbf17e370017a278c5,31081997,2020-09-02_12h32.51.613,proactive3.2,2020.1.2,MacIntel,60,5f47c0b9b035471e11593a5c,5f4f81a84873f20383e2d723,6,,,,,,shovel,,,,,,0,48,48,19,1,2,2,,,,,,,,,,,,,,,,,,,,,,,,,,,,,,,,,,,,,,,,,,,,,,,,,,,,,,,,,,,,,,,,,,,,,,,,,,,
,,,,,,,,,,stimuli/images/PICTURE_32.png,LETTER,5cf12ddbf17e370017a278c5,31081997,2020-09-02_12h32.51.613,proactive3.2,2020.1.2,MacIntel,60,5f47c0b9b035471e11593a5c,5f4f81a84873f20383e2d723,6,,,,,,crown,,,,,,0,49,49,56,1,6,2,,,,,,,,,,,,,,,,,,,,,,,,,,,,,,,,,,,,,,,,,,,,,,,,,,,,,,,,,,,,,,,,,,,,,,,,,,,
,,,,,,,,,,stimuli/images/PICTURE_311.png,FLESH,5cf12ddbf17e370017a278c5,31081997,2020-09-02_12h32.51.613,proactive3.2,2020.1.2,MacIntel,60,5f47c0b9b035471e11593a5c,5f4f81a84873f20383e2d723,6,,,,,,razor,,,,,,0,50,50,3,1,1,2,,,,,,,,,,,,,,,,,,,,,,,,,,,,,,,,,,,,,,,,,,,,,,,,,,,,,,,,,,,,,,,,,,,,,,,,,,,
,,,,,,,,,,stimuli/images/PICTURE_18.png,RIVER,5cf12ddbf17e370017a278c5,31081997,2020-09-02_12h32.51.613,proactive3.2,2020.1.2,MacIntel,60,5f47c0b9b035471e11593a5c,5f4f81a84873f20383e2d723,6,,,,,,planet,,,,,,0,51,51,22,1,3,2,,,,,,,,,,,,,,,,,,,,,,,,,,,,,,,,,,,,,,,,,,,,,,,,,,,,,,,,,,,,,,,,,,,,,,,,,,,
,,,,,,,,,,stimuli/images/PICTURE_491.png,SERIES,5cf12ddbf17e370017a278c5,31081997,2020-09-02_12h32.51.613,proactive3.2,2020.1.2,MacIntel,60,5f47c0b9b035471e11593a5c,5f4f81a84873f20383e2d723,6,,,,,,rug,,,,,,0,52,52,39,1,4,2,,,,,,,,,,,,,,,,,,,,,,,,,,,,,,,,,,,,,,,,,,,,,,,,,,,,,,,,,,,,,,,,,,,,,,,,,,,
,,,,,,,,,,stimuli/images/PICTURE_487.png,ROOF,5cf12ddbf17e370017a278c5,31081997,2020-09-02_12h32.51.613,proactive3.2,2020.1.2,MacIntel,60,5f47c0b9b035471e11593a5c,5f4f81a84873f20383e2d723,6,,,,,,basket,,,,,,0,53,53,50,1,6,2,,,,,,,,,,,,,,,,,,,,,,,,,,,,,,,,,,,,,,,,,,,,,,,,,,,,,,,,,,,,,,,,,,,,,,,,,,,
,,,,,,,,,,stimuli/images/PICTURE_57.png,CANDY,5cf12ddbf17e370017a278c5,31081997,2020-09-02_12h32.51.613,proactive3.2,2020.1.2,MacIntel,60,5f47c0b9b035471e11593a5c,5f4f81a84873f20383e2d723,6,,,,,,stamp,,,,,,0,54,54,52,1,6,2,,,,,,,,,,,,,,,,,,,,,,,,,,,,,,,,,,,,,,,,,,,,,,,,,,,,,,,,,,,,,,,,,,,,,,,,,,,
,,,,,,,,,,stimuli/images/PICTURE_215.png,LEADER,5cf12ddbf17e370017a278c5,31081997,2020-09-02_12h32.51.613,proactive3.2,2020.1.2,MacIntel,60,5f47c0b9b035471e11593a5c,5f4f81a84873f20383e2d723,6,,,,,,boot,,,,,,0,55,55,43,1,5,2,,,,,,,,,,,,,,,,,,,,,,,,,,,,,,,,,,,,,,,,,,,,,,,,,,,,,,,,,,,,,,,,,,,,,,,,,,,
,,,,,,,,,,stimuli/images/PICTURE_296.png,CLOCK,5cf12ddbf17e370017a278c5,31081997,2020-09-02_12h32.51.613,proactive3.2,2020.1.2,MacIntel,60,5f47c0b9b035471e11593a5c,5f4f81a84873f20383e2d723,6,,,,,,bolt,,,,,,0,56,56,18,1,2,2,,,,,,,,,,,,,,,,,,,,,,,,,,,,,,,,,,,,,,,,,,,,,,,,,,,,,,,,,,,,,,,,,,,,,,,,,,,
,,,,,,,,,,stimuli/images/PICTURE_688.png,CLOCK,5cf12ddbf17e370017a278c5,31081997,2020-09-02_12h32.51.613,proactive3.2,2020.1.2,MacIntel,60,5f47c0b9b035471e11593a5c,5f4f81a84873f20383e2d723,6,,,,,,runner,,,,,,0,57,57,42,1,5,2,,,,,,,,,,,,,,,,,,,,,,,,,,,,,,,,,,,,,,,,,,,,,,,,,,,,,,,,,,,,,,,,,,,,,,,,,,,
,,,,,,,,,,stimuli/images/PICTURE_509.png,BATH,5cf12ddbf17e370017a278c5,31081997,2020-09-02_12h32.51.613,proactive3.2,2020.1.2,MacIntel,60,5f47c0b9b035471e11593a5c,5f4f81a84873f20383e2d723,6,,,,,,telephone,,,,,,0,58,58,15,1,2,2,,,,,,,,,,,,,,,,,,,,,,,,,,,,,,,,,,,,,,,,,,,,,,,,,,,,,,,,,,,,,,,,,,,,,,,,,,,
,,?,0.000965,0,,,,,,stimuli/images/PICTURE_314.png,SPEECH,5cf12ddbf17e370017a278c5,31081997,2020-09-02_12h32.51.613,proactive3.2,2020.1.2,MacIntel,60,5f47c0b9b035471e11593a5c,5f4f81a84873f20383e2d723,6,,,,,,perfume,,,,,,,,,,,4,2,0,0,0,35,1,,,,,,,,,,,,,,,,,,,,,,,,,,,,,,,,,,,,,,,,,,,,,,,,,,,,,,,,,,,,,,,,,,,,,,
,,?,0.000575,0,,,,,,stimuli/images/PICTURE_491.png,SERIES,5cf12ddbf17e370017a278c5,31081997,2020-09-02_12h32.51.613,proactive3.2,2020.1.2,MacIntel,60,5f47c0b9b035471e11593a5c,5f4f81a84873f20383e2d723,6,,,,,,rug,,,,,,,,,,,4,2,0,1,1,39,1,,,,,,,,,,,,,,,,,,,,,,,,,,,,,,,,,,,,,,,,,,,,,,,,,,,,,,,,,,,,,,,,,,,,,,
,,?,0.000785,0,,,,,,stimuli/images/PICTURE_452.png,COPS,5cf12ddbf17e370017a278c5,31081997,2020-09-02_12h32.51.613,proactive3.2,2020.1.2,MacIntel,60,5f47c0b9b035471e11593a5c,5f4f81a84873f20383e2d723,6,,,,,,watch,,,,,,,,,,,1,2,0,2,2,0,1,,,,,,,,,,,,,,,,,,,,,,,,,,,,,,,,,,,,,,,,,,,,,,,,,,,,,,,,,,,,,,,,,,,,,,
,,?,0.00072,0,,,,,,stimuli/images/PICTURE_57.png,CASINO,5cf12ddbf17e370017a278c5,31081997,2020-09-02_12h32.51.613,proactive3.2,2020.1.2,MacIntel,60,5f47c0b9b035471e11593a5c,5f4f81a84873f20383e2d723,6,,,,,,stamp,,,,,,,,,,,2,2,0,3,3,12,1,,,,,,,,,,,,,,,,,,,,,,,,,,,,,,,,,,,,,,,,,,,,,,,,,,,,,,,,,,,,,,,,,,,,,,
,,?,0.0006,0,,,,,,stimuli/images/PICTURE_33.png,COPS,5cf12ddbf17e370017a278c5,31081997,2020-09-02_12h32.51.613,proactive3.2,2020.1.2,MacIntel,60,5f47c0b9b035471e11593a5c,5f4f81a84873f20383e2d723,6,,,,,,frame,,,,,,,,,,,3,2,0,4,4,29,1,,,,,,,,,,,,,,,,,,,,,,,,,,,,,,,,,,,,,,,,,,,,,,,,,,,,,,,,,,,,,,,,,,,,,,
,,?,0.00061,0,,,,,,stimuli/images/PICTURE_708.png,VALLEY,5cf12ddbf17e370017a278c5,31081997,2020-09-02_12h32.51.613,proactive3.2,2020.1.2,MacIntel,60,5f47c0b9b035471e11593a5c,5f4f81a84873f20383e2d723,6,,,,,,monkey,,,,,,,,,,,5,2,0,5,5,45,1,,,,,,,,,,,,,,,,,,,,,,,,,,,,,,,,,,,,,,,,,,,,,,,,,,,,,,,,,,,,,,,,,,,,,,
,,?,0.00063,0,,,,,,stimuli/images/PICTURE_470.png,BEAUTY,5cf12ddbf17e370017a278c5,31081997,2020-09-02_12h32.51.613,proactive3.2,2020.1.2,MacIntel,60,5f47c0b9b035471e11593a5c,5f4f81a84873f20383e2d723,6,,,,,,motorbike,,,,,,,,,,,3,2,0,6,6,26,1,,,,,,,,,,,,,,,,,,,,,,,,,,,,,,,,,,,,,,,,,,,,,,,,,,,,,,,,,,,,,,,,,,,,,,
,,?,0.000615,0,,,,,,stimuli/images/PICTURE_509.png,SHOTS,5cf12ddbf17e370017a278c5,31081997,2020-09-02_12h32.51.613,proactive3.2,2020.1.2,MacIntel,60,5f47c0b9b035471e11593a5c,5f4f81a84873f20383e2d723,6,,,,,,telephone,,,,,,,,,,,1,2,0,7,7,7,1,,,,,,,,,,,,,,,,,,,,,,,,,,,,,,,,,,,,,,,,,,,,,,,,,,,,,,,,,,,,,,,,,,,,,,
,,?,0.00047,0,,,,,,stimuli/images/PICTURE_215.png,LEADER,5cf12ddbf17e370017a278c5,31081997,2020-09-02_12h32.51.613,proactive3.2,2020.1.2,MacIntel,60,5f47c0b9b035471e11593a5c,5f4f81a84873f20383e2d723,6,,,,,,boot,,,,,,,,,,,5,2,0,8,8,43,1,,,,,,,,,,,,,,,,,,,,,,,,,,,,,,,,,,,,,,,,,,,,,,,,,,,,,,,,,,,,,,,,,,,,,,
,,?,0.000455,0,,,,,,stimuli/images/PICTURE_147.png,LEADER,5cf12ddbf17e370017a278c5,31081997,2020-09-02_12h32.51.613,proactive3.2,2020.1.2,MacIntel,60,5f47c0b9b035471e11593a5c,5f4f81a84873f20383e2d723,6,,,,,,hanger,,,,,,,,,,,4,2,0,9,9,33,1,,,,,,,,,,,,,,,,,,,,,,,,,,,,,,,,,,,,,,,,,,,,,,,,,,,,,,,,,,,,,,,,,,,,,,
,,?,0.00047,0,,,,,,stimuli/images/PICTURE_68.png,KIND,5cf12ddbf17e370017a278c5,31081997,2020-09-02_12h32.51.613,proactive3.2,2020.1.2,MacIntel,60,5f47c0b9b035471e11593a5c,5f4f81a84873f20383e2d723,6,,,,,,candle,,,,,,,,,,,3,2,0,10,10,23,1,,,,,,,,,,,,,,,,,,,,,,,,,,,,,,,,,,,,,,,,,,,,,,,,,,,,,,,,,,,,,,,,,,,,,,
,,SALE,3.30136,1,,,,,,stimuli/images/PICTURE_655.png,SALE,5cf12ddbf17e370017a278c5,31081997,2020-09-02_12h32.51.613,proactive3.2,2020.1.2,MacIntel,60,5f47c0b9b035471e11593a5c,5f4f81a84873f20383e2d723,6,,,,,,megaphone,,,,,,,,,,,6,2,0,11,11,57,1,,,,,,,,,,,,,,,,,,,,,,,,,,,,,,,,,,,,,,,,,,,,,,,,,,,,,,,,,,,,,,,,,,,,,,
,,?,0.000865,0,,,,,,stimuli/images/PICTURE_487.png,POLICY,5cf12ddbf17e370017a278c5,31081997,2020-09-02_12h32.51.613,proactive3.2,2020.1.2,MacIntel,60,5f47c0b9b035471e11593a5c,5f4f81a84873f20383e2d723,6,,,,,,basket,,,,,,,,,,,4,2,0,12,12,34,1,,,,,,,,,,,,,,,,,,,,,,,,,,,,,,,,,,,,,,,,,,,,,,,,,,,,,,,,,,,,,,,,,,,,,,
