consent_key.keys,consent_key.rt,recalled,recalled_rt,recall_acc,example_recall.thisRepN,example_recall.thisTrialN,example_recall.thisN,example_recall.thisIndex,example_recall.ran,file,word,participant,please enter your date of birth (dd/mm/yyyy),date,expName,psychopyVersion,OS,frameRate,STUDY_ID,SESSION_ID,list,prac_learn_study_loop.thisRepN,prac_learn_study_loop.thisTrialN,prac_learn_study_loop.thisN,prac_learn_study_loop.thisIndex,prac_learn_study_loop.ran,image,prac_learn_test_loop.thisRepN,prac_learn_test_loop.thisTrialN,prac_learn_test_loop.thisN,prac_learn_test_loop.thisIndex,prac_learn_test_loop.ran,learn_study_loop.thisRepN,learn_study_loop.thisTrialN,learn_study_loop.thisN,learn_study_loop.thisIndex,learn_study_loop.ran,list_no,block_no,learn_test_loop.thisRepN,learn_test_loop.thisTrialN,learn_test_loop.thisN,learn_test_loop.thisIndex,learn_test_loop.ran,learn_blocks.thisRepN,learn_blocks.thisTrialN,learn_blocks.thisN,learn_blocks.thisIndex,learn_blocks.ran,block_csv,key_resp_13.keys,key_resp_13.rt,learn_blocks_loop.thisRepN,learn_blocks_loop.thisTrialN,learn_blocks_loop.thisN,learn_blocks_loop.thisIndex,learn_blocks_loop.ran,final_learn_test.thisRepN,final_learn_test.thisTrialN,final_learn_test.thisN,final_learn_test.thisIndex,final_learn_test.ran,prac_wm_test_loop.thisRepN,prac_wm_test_loop.thisTrialN,prac_wm_test_loop.thisN,prac_wm_test_loop.thisIndex,prac_wm_test_loop.ran,wm_recalled1,wm_recall_rt1,wm_probed1,wm_recall_acc1,wm_recalled2,wm_recall_rt2,wm_probed2,wm_recall_acc2,wm_recalled3,wm_recall_rt3,wm_probed3,wm_recall_acc3,wm_recalled4,wm_recall_rt4,wm_probed4,wm_recall_acc4,prac_wm_trial_loop.thisRepN,prac_wm_trial_loop.thisTrialN,prac_wm_trial_loop.thisN,prac_wm_trial_loop.thisIndex,prac_wm_trial_loop.ran,word1,image1,file1,item_type1,word2,image2,file2,item_type2,word4,image4,file4,item_type4,word3,image3,file3,item_type3,wm_test_loop.thisRepN,wm_test_loop.thisTrialN,wm_test_loop.thisN,wm_test_loop.thisIndex,wm_test_loop.ran,wm_trial_loop.thisRepN,wm_trial_loop.thisTrialN,wm_trial_loop.thisN,wm_trial_loop.thisIndex,wm_trial_loop.ran
y,62.20381,TOUGH,3.556425,1,0,0,0,0,1,stimuli/images/PICTURE_747.png,TOUGH,5d1a7d73a7f7ce0001dec46b,01/05/2001,2020-08-27_15h48.16.742,proactive3.2,2020.1.2,Win32,60,5f47c0b9b035471e11593a5c,5f47c66e60be640b5f110b18,2,,,,,,,,,,,,,,,,,,,,,,,,,,,,,,,,,,,,,,,,,,,,,,,,,,,,,,,,,,,,,,,,,,,,,,,,,,,,,,,,,,,,,,,,,,,,,
,,,,,,,,,,stimuli/images/PICTURE_269.png,GENIUS,5d1a7d73a7f7ce0001dec46b,01/05/2001,2020-08-27_15h48.16.742,proactive3.2,2020.1.2,Win32,60,5f47c0b9b035471e11593a5c,5f47c66e60be640b5f110b18,2,0,0,0,0,1,chameleon,,,,,,,,,,,,,,,,,,,,,,,,,,,,,,,,,,,,,,,,,,,,,,,,,,,,,,,,,,,,,,,,,,,,,,,,,,,,,,,,,,,,,,,
,,,,,,,,,,stimuli/images/PICTURE_727.png,CELL,5d1a7d73a7f7ce0001dec46b,01/05/2001,2020-08-27_15h48.16.742,proactive3.2,2020.1.2,Win32,60,5f47c0b9b035471e11593a5c,5f47c66e60be640b5f110b18,2,0,1,1,1,1,hose,,,,,,,,,,,,,,,,,,,,,,,,,,,,,,,,,,,,,,,,,,,,,,,,,,,,,,,,,,,,,,,,,,,,,,,,,,,,,,,,,,,,,,,
,,,,,,,,,,stimuli/images/PICTURE_658.png,DEVIL,5d1a7d73a7f7ce0001dec46b,01/05/2001,2020-08-27_15h48.16.742,proactive3.2,2020.1.2,Win32,60,5f47c0b9b035471e11593a5c,5f47c66e60be640b5f110b18,2,0,2,2,3,1,crow,,,,,,,,,,,,,,,,,,,,,,,,,,,,,,,,,,,,,,,,,,,,,,,,,,,,,,,,,,,,,,,,,,,,,,,,,,,,,,,,,,,,,,,
,,,,,,,,,,stimuli/images/PICTURE_697.png,KILLER,5d1a7d73a7f7ce0001dec46b,01/05/2001,2020-08-27_15h48.16.742,proactive3.2,2020.1.2,Win32,60,5f47c0b9b035471e11593a5c,5f47c66e60be640b5f110b18,2,0,3,3,4,1,peach,,,,,,,,,,,,,,,,,,,,,,,,,,,,,,,,,,,,,,,,,,,,,,,,,,,,,,,,,,,,,,,,,,,,,,,,,,,,,,,,,,,,,,,
,,LOSS,1.960965,1,,,,,,stimuli/images/PICTURE_378.png,LOSS,5d1a7d73a7f7ce0001dec46b,01/05/2001,2020-08-27_15h48.16.742,proactive3.2,2020.1.2,Win32,60,5f47c0b9b035471e11593a5c,5f47c66e60be640b5f110b18,2,,,,,,lobster,0,0,0,2,1,,,,,,,,,,,,,,,,,,,,,,,,,,,,,,,,,,,,,,,,,,,,,,,,,,,,,,,,,,,,,,,,,,,,,,,,,,,,,,,,,,
,,KILLER,2.614485,1,,,,,,stimuli/images/PICTURE_697.png,KILLER,5d1a7d73a7f7ce0001dec46b,01/05/2001,2020-08-27_15h48.16.742,proactive3.2,2020.1.2,Win32,60,5f47c0b9b035471e11593a5c,5f47c66e60be640b5f110b18,2,,,,,,peach,0,1,1,4,1,,,,,,,,,,,,,,,,,,,,,,,,,,,,,,,,,,,,,,,,,,,,,,,,,,,,,,,,,,,,,,,,,,,,,,,,,,,,,,,,,,
,,?,6.114335,0,,,,,,stimuli/images/PICTURE_658.png,DEVIL,5d1a7d73a7f7ce0001dec46b,01/05/2001,2020-08-27_15h48.16.742,proactive3.2,2020.1.2,Win32,60,5f47c0b9b035471e11593a5c,5f47c66e60be640b5f110b18,2,,,,,,crow,0,2,2,3,1,,,,,,,,,,,,,,,,,,,,,,,,,,,,,,,,,,,,,,,,,,,,,,,,,,,,,,,,,,,,,,,,,,,,,,,,,,,,,,,,,,
,,GENUIS,3.27867,0,,,,,,stimuli/images/PICTURE_269.png,GENIUS,5d1a7d73a7f7ce0001dec46b,01/05/2001,2020-08-27_15h48.16.742,proactive3.2,2020.1.2,Win32,60,5f47c0b9b035471e11593a5c,5f47c66e60be640b5f110b18,2,,,,,,chameleon,0,3,3,0,1,,,,,,,,,,,,,,,,,,,,,,,,,,,,,,,,,,,,,,,,,,,,,,,,,,,,,,,,,,,,,,,,,,,,,,,,,,,,,,,,,,
,,CELL,2.21382,1,,,,,,stimuli/images/PICTURE_727.png,CELL,5d1a7d73a7f7ce0001dec46b,01/05/2001,2020-08-27_15h48.16.742,proactive3.2,2020.1.2,Win32,60,5f47c0b9b035471e11593a5c,5f47c66e60be640b5f110b18,2,,,,,,hose,0,4,4,1,1,,,,,,,,,,,,,,,,,,,,,,,,,,,,,,,,,,,,,,,,,,,,,,,,,,,,,,,,,,,,,,,,,,,,,,,,,,,,,,,,,,
,,,,,,,,,,stimuli/images/PICTURE_469.png,AGENT,5d1a7d73a7f7ce0001dec46b,01/05/2001,2020-08-27_15h48.16.742,proactive3.2,2020.1.2,Win32,60,5f47c0b9b035471e11593a5c,5f47c66e60be640b5f110b18,2,,,,,,stool,,,,,,0,0,0,16,1,2,1,,,,,,,,,,,,,,,,,,,,,,,,,,,,,,,,,,,,,,,,,,,,,,,,,,,,,,,,,,,,,,,,,,,,,,,,,,,
,,,,,,,,,,stimuli/images/PICTURE_95.png,HONEY,5d1a7d73a7f7ce0001dec46b,01/05/2001,2020-08-27_15h48.16.742,proactive3.2,2020.1.2,Win32,60,5f47c0b9b035471e11593a5c,5f47c66e60be640b5f110b18,2,,,,,,suitcase,,,,,,0,1,1,44,1,5,1,,,,,,,,,,,,,,,,,,,,,,,,,,,,,,,,,,,,,,,,,,,,,,,,,,,,,,,,,,,,,,,,,,,,,,,,,,,
,,,,,,,,,,stimuli/images/PICTURE_147.png,YEAR,5d1a7d73a7f7ce0001dec46b,01/05/2001,2020-08-27_15h48.16.742,proactive3.2,2020.1.2,Win32,60,5f47c0b9b035471e11593a5c,5f47c66e60be640b5f110b18,2,,,,,,hanger,,,,,,0,2,2,21,1,3,1,,,,,,,,,,,,,,,,,,,,,,,,,,,,,,,,,,,,,,,,,,,,,,,,,,,,,,,,,,,,,,,,,,,,,,,,,,,
,,,,,,,,,,stimuli/images/PICTURE_504.png,YEAR,5d1a7d73a7f7ce0001dec46b,01/05/2001,2020-08-27_15h48.16.742,proactive3.2,2020.1.2,Win32,60,5f47c0b9b035471e11593a5c,5f47c66e60be640b5f110b18,2,,,,,,wheel,,,,,,0,3,3,13,1,2,1,,,,,,,,,,,,,,,,,,,,,,,,,,,,,,,,,,,,,,,,,,,,,,,,,,,,,,,,,,,,,,,,,,,,,,,,,,,
,,,,,,,,,,stimuli/images/PICTURE_504.png,ARTIST,5d1a7d73a7f7ce0001dec46b,01/05/2001,2020-08-27_15h48.16.742,proactive3.2,2020.1.2,Win32,60,5f47c0b9b035471e11593a5c,5f47c66e60be640b5f110b18,2,,,,,,wheel,,,,,,0,4,4,49,1,5,1,,,,,,,,,,,,,,,,,,,,,,,,,,,,,,,,,,,,,,,,,,,,,,,,,,,,,,,,,,,,,,,,,,,,,,,,,,,
,,,,,,,,,,stimuli/images/PICTURE_380.png,CANDY,5d1a7d73a7f7ce0001dec46b,01/05/2001,2020-08-27_15h48.16.742,proactive3.2,2020.1.2,Win32,60,5f47c0b9b035471e11593a5c,5f47c66e60be640b5f110b18,2,,,,,,gorilla,,,,,,0,5,5,0,1,1,1,,,,,,,,,,,,,,,,,,,,,,,,,,,,,,,,,,,,,,,,,,,,,,,,,,,,,,,,,,,,,,,,,,,,,,,,,,,
,,,,,,,,,,stimuli/images/PICTURE_339.png,CLIENT,5d1a7d73a7f7ce0001dec46b,01/05/2001,2020-08-27_15h48.16.742,proactive3.2,2020.1.2,Win32,60,5f47c0b9b035471e11593a5c,5f47c66e60be640b5f110b18,2,,,,,,backpack,,,,,,0,6,6,11,1,2,1,,,,,,,,,,,,,,,,,,,,,,,,,,,,,,,,,,,,,,,,,,,,,,,,,,,,,,,,,,,,,,,,,,,,,,,,,,,
,,,,,,,,,,stimuli/images/PICTURE_564.png,BATH,5d1a7d73a7f7ce0001dec46b,01/05/2001,2020-08-27_15h48.16.742,proactive3.2,2020.1.2,Win32,60,5f47c0b9b035471e11593a5c,5f47c66e60be640b5f110b18,2,,,,,,spoon,,,,,,0,7,7,26,1,3,1,,,,,,,,,,,,,,,,,,,,,,,,,,,,,,,,,,,,,,,,,,,,,,,,,,,,,,,,,,,,,,,,,,,,,,,,,,,
,,,,,,,,,,stimuli/images/PICTURE_32.png,PILLS,5d1a7d73a7f7ce0001dec46b,01/05/2001,2020-08-27_15h48.16.742,proactive3.2,2020.1.2,Win32,60,5f47c0b9b035471e11593a5c,5f47c66e60be640b5f110b18,2,,,,,,crown,,,,,,0,8,8,18,1,2,1,,,,,,,,,,,,,,,,,,,,,,,,,,,,,,,,,,,,,,,,,,,,,,,,,,,,,,,,,,,,,,,,,,,,,,,,,,,
,,,,,,,,,,stimuli/images/PICTURE_491.png,GLASS,5d1a7d73a7f7ce0001dec46b,01/05/2001,2020-08-27_15h48.16.742,proactive3.2,2020.1.2,Win32,60,5f47c0b9b035471e11593a5c,5f47c66e60be640b5f110b18,2,,,,,,rug,,,,,,0,9,9,14,1,2,1,,,,,,,,,,,,,,,,,,,,,,,,,,,,,,,,,,,,,,,,,,,,,,,,,,,,,,,,,,,,,,,,,,,,,,,,,,,
,,,,,,,,,,stimuli/images/PICTURE_708.png,RECORD,5d1a7d73a7f7ce0001dec46b,01/05/2001,2020-08-27_15h48.16.742,proactive3.2,2020.1.2,Win32,60,5f47c0b9b035471e11593a5c,5f47c66e60be640b5f110b18,2,,,,,,monkey,,,,,,0,10,10,58,1,6,1,,,,,,,,,,,,,,,,,,,,,,,,,,,,,,,,,,,,,,,,,,,,,,,,,,,,,,,,,,,,,,,,,,,,,,,,,,,
,,,,,,,,,,stimuli/images/PICTURE_2.png,FLIGHT,5d1a7d73a7f7ce0001dec46b,01/05/2001,2020-08-27_15h48.16.742,proactive3.2,2020.1.2,Win32,60,5f47c0b9b035471e11593a5c,5f47c66e60be640b5f110b18,2,,,,,,tyre,,,,,,0,11,11,15,1,2,1,,,,,,,,,,,,,,,,,,,,,,,,,,,,,,,,,,,,,,,,,,,,,,,,,,,,,,,,,,,,,,,,,,,,,,,,,,,
,,,,,,,,,,stimuli/images/PICTURE_296.png,LIFE,5d1a7d73a7f7ce0001dec46b,01/05/2001,2020-08-27_15h48.16.742,proactive3.2,2020.1.2,Win32,60,5f47c0b9b035471e11593a5c,5f47c66e60be640b5f110b18,2,,,,,,bolt,,,,,,0,12,12,57,1,6,1,,,,,,,,,,,,,,,,,,,,,,,,,,,,,,,,,,,,,,,,,,,,,,,,,,,,,,,,,,,,,,,,,,,,,,,,,,,
,,,,,,,,,,stimuli/images/PICTURE_383.png,SERIES,5d1a7d73a7f7ce0001dec46b,01/05/2001,2020-08-27_15h48.16.742,proactive3.2,2020.1.2,Win32,60,5f47c0b9b035471e11593a5c,5f47c66e60be640b5f110b18,2,,,,,,coin,,,,,,0,13,13,46,1,5,1,,,,,,,,,,,,,,,,,,,,,,,,,,,,,,,,,,,,,,,,,,,,,,,,,,,,,,,,,,,,,,,,,,,,,,,,,,,
,,,,,,,,,,stimuli/images/PICTURE_405.png,PLENTY,5d1a7d73a7f7ce0001dec46b,01/05/2001,2020-08-27_15h48.16.742,proactive3.2,2020.1.2,Win32,60,5f47c0b9b035471e11593a5c,5f47c66e60be640b5f110b18,2,,,,,,anchor,,,,,,0,14,14,23,1,3,1,,,,,,,,,,,,,,,,,,,,,,,,,,,,,,,,,,,,,,,,,,,,,,,,,,,,,,,,,,,,,,,,,,,,,,,,,,,
,,,,,,,,,,stimuli/images/PICTURE_654.png,MONTH,5d1a7d73a7f7ce0001dec46b,01/05/2001,2020-08-27_15h48.16.742,proactive3.2,2020.1.2,Win32,60,5f47c0b9b035471e11593a5c,5f47c66e60be640b5f110b18,2,,,,,,pencil,,,,,,0,15,15,29,1,3,1,,,,,,,,,,,,,,,,,,,,,,,,,,,,,,,,,,,,,,,,,,,,,,,,,,,,,,,,,,,,,,,,,,,,,,,,,,,
,,,,,,,,,,stimuli/images/PICTURE_85.png,NATION,5d1a7d73a7f7ce0001dec46b,01/05/2001,2020-08-27_15h48.16.742,proactive3.2,2020.1.2,Win32,60,5f47c0b9b035471e11593a5c,5f47c66e60be640b5f110b18,2,,,,,,diamond,,,,,,0,16,16,5,1,1,1,,,,,,,,,,,,,,,,,,,,,,,,,,,,,,,,,,,,,,,,,,,,,,,,,,,,,,,,,,,,,,,,,,,,,,,,,,,
,,,,,,,,,,stimuli/images/PICTURE_327.png,SERIES,5d1a7d73a7f7ce0001dec46b,01/05/2001,2020-08-27_15h48.16.742,proactive3.2,2020.1.2,Win32,60,5f47c0b9b035471e11593a5c,5f47c66e60be640b5f110b18,2,,,,,,helmet,,,,,,0,17,17,3,1,1,1,,,,,,,,,,,,,,,,,,,,,,,,,,,,,,,,,,,,,,,,,,,,,,,,,,,,,,,,,,,,,,,,,,,,,,,,,,,
,,,,,,,,,,stimuli/images/PICTURE_405.png,YEAR,5d1a7d73a7f7ce0001dec46b,01/05/2001,2020-08-27_15h48.16.742,proactive3.2,2020.1.2,Win32,60,5f47c0b9b035471e11593a5c,5f47c66e60be640b5f110b18,2,,,,,,anchor,,,,,,0,18,18,34,1,4,1,,,,,,,,,,,,,,,,,,,,,,,,,,,,,,,,,,,,,,,,,,,,,,,,,,,,,,,,,,,,,,,,,,,,,,,,,,,
,,,,,,,,,,stimuli/images/PICTURE_667.png,RIVER,5d1a7d73a7f7ce0001dec46b,01/05/2001,2020-08-27_15h48.16.742,proactive3.2,2020.1.2,Win32,60,5f47c0b9b035471e11593a5c,5f47c66e60be640b5f110b18,2,,,,,,daisy,,,,,,0,19,19,10,1,2,1,,,,,,,,,,,,,,,,,,,,,,,,,,,,,,,,,,,,,,,,,,,,,,,,,,,,,,,,,,,,,,,,,,,,,,,,,,,
,,,,,,,,,,stimuli/images/PICTURE_685.png,PENNY,5d1a7d73a7f7ce0001dec46b,01/05/2001,2020-08-27_15h48.16.742,proactive3.2,2020.1.2,Win32,60,5f47c0b9b035471e11593a5c,5f47c66e60be640b5f110b18,2,,,,,,goose,,,,,,0,20,20,4,1,1,1,,,,,,,,,,,,,,,,,,,,,,,,,,,,,,,,,,,,,,,,,,,,,,,,,,,,,,,,,,,,,,,,,,,,,,,,,,,
,,,,,,,,,,stimuli/images/PICTURE_203.png,NIGHT,5d1a7d73a7f7ce0001dec46b,01/05/2001,2020-08-27_15h48.16.742,proactive3.2,2020.1.2,Win32,60,5f47c0b9b035471e11593a5c,5f47c66e60be640b5f110b18,2,,,,,,cap,,,,,,0,21,21,2,1,1,1,,,,,,,,,,,,,,,,,,,,,,,,,,,,,,,,,,,,,,,,,,,,,,,,,,,,,,,,,,,,,,,,,,,,,,,,,,,
,,,,,,,,,,stimuli/images/PICTURE_504.png,COPS,5d1a7d73a7f7ce0001dec46b,01/05/2001,2020-08-27_15h48.16.742,proactive3.2,2020.1.2,Win32,60,5f47c0b9b035471e11593a5c,5f47c66e60be640b5f110b18,2,,,,,,wheel,,,,,,0,22,22,52,1,6,1,,,,,,,,,,,,,,,,,,,,,,,,,,,,,,,,,,,,,,,,,,,,,,,,,,,,,,,,,,,,,,,,,,,,,,,,,,,
,,,,,,,,,,stimuli/images/PICTURE_177.png,WRITER,5d1a7d73a7f7ce0001dec46b,01/05/2001,2020-08-27_15h48.16.742,proactive3.2,2020.1.2,Win32,60,5f47c0b9b035471e11593a5c,5f47c66e60be640b5f110b18,2,,,,,,mushroom,,,,,,0,23,23,41,1,5,1,,,,,,,,,,,,,,,,,,,,,,,,,,,,,,,,,,,,,,,,,,,,,,,,,,,,,,,,,,,,,,,,,,,,,,,,,,,
,,,,,,,,,,stimuli/images/PICTURE_340.png,VALLEY,5d1a7d73a7f7ce0001dec46b,01/05/2001,2020-08-27_15h48.16.742,proactive3.2,2020.1.2,Win32,60,5f47c0b9b035471e11593a5c,5f47c66e60be640b5f110b18,2,,,,,,mirror,,,,,,0,24,24,54,1,6,1,,,,,,,,,,,,,,,,,,,,,,,,,,,,,,,,,,,,,,,,,,,,,,,,,,,,,,,,,,,,,,,,,,,,,,,,,,,
,,,,,,,,,,stimuli/images/PICTURE_403.png,WRITER,5d1a7d73a7f7ce0001dec46b,01/05/2001,2020-08-27_15h48.16.742,proactive3.2,2020.1.2,Win32,60,5f47c0b9b035471e11593a5c,5f47c66e60be640b5f110b18,2,,,,,,cathedral,,,,,,0,25,25,31,1,4,1,,,,,,,,,,,,,,,,,,,,,,,,,,,,,,,,,,,,,,,,,,,,,,,,,,,,,,,,,,,,,,,,,,,,,,,,,,,
,,,,,,,,,,stimuli/images/PICTURE_68.png,ROOF,5d1a7d73a7f7ce0001dec46b,01/05/2001,2020-08-27_15h48.16.742,proactive3.2,2020.1.2,Win32,60,5f47c0b9b035471e11593a5c,5f47c66e60be640b5f110b18,2,,,,,,candle,,,,,,0,26,26,38,1,4,1,,,,,,,,,,,,,,,,,,,,,,,,,,,,,,,,,,,,,,,,,,,,,,,,,,,,,,,,,,,,,,,,,,,,,,,,,,,
,,,,,,,,,,stimuli/images/PICTURE_467.png,POLICY,5d1a7d73a7f7ce0001dec46b,01/05/2001,2020-08-27_15h48.16.742,proactive3.2,2020.1.2,Win32,60,5f47c0b9b035471e11593a5c,5f47c66e60be640b5f110b18,2,,,,,,peg,,,,,,0,27,27,53,1,6,1,,,,,,,,,,,,,,,,,,,,,,,,,,,,,,,,,,,,,,,,,,,,,,,,,,,,,,,,,,,,,,,,,,,,,,,,,,,
,,,,,,,,,,stimuli/images/PICTURE_655.png,TOILET,5d1a7d73a7f7ce0001dec46b,01/05/2001,2020-08-27_15h48.16.742,proactive3.2,2020.1.2,Win32,60,5f47c0b9b035471e11593a5c,5f47c66e60be640b5f110b18,2,,,,,,megaphone,,,,,,0,28,28,12,1,2,1,,,,,,,,,,,,,,,,,,,,,,,,,,,,,,,,,,,,,,,,,,,,,,,,,,,,,,,,,,,,,,,,,,,,,,,,,,,
,,,,,,,,,,stimuli/images/PICTURE_108.png,FLIGHT,5d1a7d73a7f7ce0001dec46b,01/05/2001,2020-08-27_15h48.16.742,proactive3.2,2020.1.2,Win32,60,5f47c0b9b035471e11593a5c,5f47c66e60be640b5f110b18,2,,,,,,calendar,,,,,,0,29,29,59,1,6,1,,,,,,,,,,,,,,,,,,,,,,,,,,,,,,,,,,,,,,,,,,,,,,,,,,,,,,,,,,,,,,,,,,,,,,,,,,,
,,,,,,,,,,stimuli/images/PICTURE_327.png,CASINO,5d1a7d73a7f7ce0001dec46b,01/05/2001,2020-08-27_15h48.16.742,proactive3.2,2020.1.2,Win32,60,5f47c0b9b035471e11593a5c,5f47c66e60be640b5f110b18,2,,,,,,helmet,,,,,,0,30,30,20,1,3,1,,,,,,,,,,,,,,,,,,,,,,,,,,,,,,,,,,,,,,,,,,,,,,,,,,,,,,,,,,,,,,,,,,,,,,,,,,,
,,,,,,,,,,stimuli/images/PICTURE_85.png,TOILET,5d1a7d73a7f7ce0001dec46b,01/05/2001,2020-08-27_15h48.16.742,proactive3.2,2020.1.2,Win32,60,5f47c0b9b035471e11593a5c,5f47c66e60be640b5f110b18,2,,,,,,diamond,,,,,,0,31,31,48,1,5,1,,,,,,,,,,,,,,,,,,,,,,,,,,,,,,,,,,,,,,,,,,,,,,,,,,,,,,,,,,,,,,,,,,,,,,,,,,,
,,,,,,,,,,stimuli/images/PICTURE_487.png,GIRL,5d1a7d73a7f7ce0001dec46b,01/05/2001,2020-08-27_15h48.16.742,proactive3.2,2020.1.2,Win32,60,5f47c0b9b035471e11593a5c,5f47c66e60be640b5f110b18,2,,,,,,basket,,,,,,0,32,32,45,1,5,1,,,,,,,,,,,,,,,,,,,,,,,,,,,,,,,,,,,,,,,,,,,,,,,,,,,,,,,,,,,,,,,,,,,,,,,,,,,
,,,,,,,,,,stimuli/images/PICTURE_491.png,RIVER,5d1a7d73a7f7ce0001dec46b,01/05/2001,2020-08-27_15h48.16.742,proactive3.2,2020.1.2,Win32,60,5f47c0b9b035471e11593a5c,5f47c66e60be640b5f110b18,2,,,,,,rug,,,,,,0,33,33,6,1,1,1,,,,,,,,,,,,,,,,,,,,,,,,,,,,,,,,,,,,,,,,,,,,,,,,,,,,,,,,,,,,,,,,,,,,,,,,,,,
,,,,,,,,,,stimuli/images/PICTURE_744.png,WEAPON,5d1a7d73a7f7ce0001dec46b,01/05/2001,2020-08-27_15h48.16.742,proactive3.2,2020.1.2,Win32,60,5f47c0b9b035471e11593a5c,5f47c66e60be640b5f110b18,2,,,,,,ring,,,,,,0,34,34,50,1,6,1,,,,,,,,,,,,,,,,,,,,,,,,,,,,,,,,,,,,,,,,,,,,,,,,,,,,,,,,,,,,,,,,,,,,,,,,,,,
,,,,,,,,,,stimuli/images/PICTURE_95.png,MILLER,5d1a7d73a7f7ce0001dec46b,01/05/2001,2020-08-27_15h48.16.742,proactive3.2,2020.1.2,Win32,60,5f47c0b9b035471e11593a5c,5f47c66e60be640b5f110b18,2,,,,,,suitcase,,,,,,0,35,35,56,1,6,1,,,,,,,,,,,,,,,,,,,,,,,,,,,,,,,,,,,,,,,,,,,,,,,,,,,,,,,,,,,,,,,,,,,,,,,,,,,
,,,,,,,,,,stimuli/images/PICTURE_675.png,SALE,5d1a7d73a7f7ce0001dec46b,01/05/2001,2020-08-27_15h48.16.742,proactive3.2,2020.1.2,Win32,60,5f47c0b9b035471e11593a5c,5f47c66e60be640b5f110b18,2,,,,,,windmill,,,,,,0,36,36,47,1,5,1,,,,,,,,,,,,,,,,,,,,,,,,,,,,,,,,,,,,,,,,,,,,,,,,,,,,,,,,,,,,,,,,,,,,,,,,,,,
,,,,,,,,,,stimuli/images/PICTURE_677.png,APPLE,5d1a7d73a7f7ce0001dec46b,01/05/2001,2020-08-27_15h48.16.742,proactive3.2,2020.1.2,Win32,60,5f47c0b9b035471e11593a5c,5f47c66e60be640b5f110b18,2,,,,,,map,,,,,,0,37,37,43,1,5,1,,,,,,,,,,,,,,,,,,,,,,,,,,,,,,,,,,,,,,,,,,,,,,,,,,,,,,,,,,,,,,,,,,,,,,,,,,,
,,,,,,,,,,stimuli/images/PICTURE_340.png,LETTER,5d1a7d73a7f7ce0001dec46b,01/05/2001,2020-08-27_15h48.16.742,proactive3.2,2020.1.2,Win32,60,5f47c0b9b035471e11593a5c,5f47c66e60be640b5f110b18,2,,,,,,mirror,,,,,,0,38,38,24,1,3,1,,,,,,,,,,,,,,,,,,,,,,,,,,,,,,,,,,,,,,,,,,,,,,,,,,,,,,,,,,,,,,,,,,,,,,,,,,,
,,,,,,,,,,stimuli/images/PICTURE_57.png,MOMENT,5d1a7d73a7f7ce0001dec46b,01/05/2001,2020-08-27_15h48.16.742,proactive3.2,2020.1.2,Win32,60,5f47c0b9b035471e11593a5c,5f47c66e60be640b5f110b18,2,,,,,,stamp,,,,,,0,39,39,37,1,4,1,,,,,,,,,,,,,,,,,,,,,,,,,,,,,,,,,,,,,,,,,,,,,,,,,,,,,,,,,,,,,,,,,,,,,,,,,,,
,,,,,,,,,,stimuli/images/PICTURE_203.png,GODS,5d1a7d73a7f7ce0001dec46b,01/05/2001,2020-08-27_15h48.16.742,proactive3.2,2020.1.2,Win32,60,5f47c0b9b035471e11593a5c,5f47c66e60be640b5f110b18,2,,,,,,cap,,,,,,0,40,40,30,1,4,1,,,,,,,,,,,,,,,,,,,,,,,,,,,,,,,,,,,,,,,,,,,,,,,,,,,,,,,,,,,,,,,,,,,,,,,,,,,
,,,,,,,,,,stimuli/images/PICTURE_380.png,HONEY,5d1a7d73a7f7ce0001dec46b,01/05/2001,2020-08-27_15h48.16.742,proactive3.2,2020.1.2,Win32,60,5f47c0b9b035471e11593a5c,5f47c66e60be640b5f110b18,2,,,,,,gorilla,,,,,,0,41,41,19,1,2,1,,,,,,,,,,,,,,,,,,,,,,,,,,,,,,,,,,,,,,,,,,,,,,,,,,,,,,,,,,,,,,,,,,,,,,,,,,,
,,,,,,,,,,stimuli/images/PICTURE_33.png,FRIEND,5d1a7d73a7f7ce0001dec46b,01/05/2001,2020-08-27_15h48.16.742,proactive3.2,2020.1.2,Win32,60,5f47c0b9b035471e11593a5c,5f47c66e60be640b5f110b18,2,,,,,,frame,,,,,,0,42,42,8,1,1,1,,,,,,,,,,,,,,,,,,,,,,,,,,,,,,,,,,,,,,,,,,,,,,,,,,,,,,,,,,,,,,,,,,,,,,,,,,,
,,,,,,,,,,stimuli/images/PICTURE_296.png,LOTS,5d1a7d73a7f7ce0001dec46b,01/05/2001,2020-08-27_15h48.16.742,proactive3.2,2020.1.2,Win32,60,5f47c0b9b035471e11593a5c,5f47c66e60be640b5f110b18,2,,,,,,bolt,,,,,,0,43,43,9,1,1,1,,,,,,,,,,,,,,,,,,,,,,,,,,,,,,,,,,,,,,,,,,,,,,,,,,,,,,,,,,,,,,,,,,,,,,,,,,,
,,,,,,,,,,stimuli/images/PICTURE_108.png,POLICY,5d1a7d73a7f7ce0001dec46b,01/05/2001,2020-08-27_15h48.16.742,proactive3.2,2020.1.2,Win32,60,5f47c0b9b035471e11593a5c,5f47c66e60be640b5f110b18,2,,,,,,calendar,,,,,,0,44,44,22,1,3,1,,,,,,,,,,,,,,,,,,,,,,,,,,,,,,,,,,,,,,,,,,,,,,,,,,,,,,,,,,,,,,,,,,,,,,,,,,,
,,,,,,,,,,stimuli/images/PICTURE_95.png,BOYS,5d1a7d73a7f7ce0001dec46b,01/05/2001,2020-08-27_15h48.16.742,proactive3.2,2020.1.2,Win32,60,5f47c0b9b035471e11593a5c,5f47c66e60be640b5f110b18,2,,,,,,suitcase,,,,,,0,45,45,1,1,1,1,,,,,,,,,,,,,,,,,,,,,,,,,,,,,,,,,,,,,,,,,,,,,,,,,,,,,,,,,,,,,,,,,,,,,,,,,,,
,,,,,,,,,,stimuli/images/PICTURE_42.png,BOYS,5d1a7d73a7f7ce0001dec46b,01/05/2001,2020-08-27_15h48.16.742,proactive3.2,2020.1.2,Win32,60,5f47c0b9b035471e11593a5c,5f47c66e60be640b5f110b18,2,,,,,,pear,,,,,,0,46,46,55,1,6,1,,,,,,,,,,,,,,,,,,,,,,,,,,,,,,,,,,,,,,,,,,,,,,,,,,,,,,,,,,,,,,,,,,,,,,,,,,,
,,,,,,,,,,stimuli/images/PICTURE_449.png,DUDE,5d1a7d73a7f7ce0001dec46b,01/05/2001,2020-08-27_15h48.16.742,proactive3.2,2020.1.2,Win32,60,5f47c0b9b035471e11593a5c,5f47c66e60be640b5f110b18,2,,,,,,bench,,,,,,0,47,47,17,1,2,1,,,,,,,,,,,,,,,,,,,,,,,,,,,,,,,,,,,,,,,,,,,,,,,,,,,,,,,,,,,,,,,,,,,,,,,,,,,
,,,,,,,,,,stimuli/images/PICTURE_32.png,KIND,5d1a7d73a7f7ce0001dec46b,01/05/2001,2020-08-27_15h48.16.742,proactive3.2,2020.1.2,Win32,60,5f47c0b9b035471e11593a5c,5f47c66e60be640b5f110b18,2,,,,,,crown,,,,,,0,48,48,35,1,4,1,,,,,,,,,,,,,,,,,,,,,,,,,,,,,,,,,,,,,,,,,,,,,,,,,,,,,,,,,,,,,,,,,,,,,,,,,,,
,,,,,,,,,,stimuli/images/PICTURE_403.png,TOILET,5d1a7d73a7f7ce0001dec46b,01/05/2001,2020-08-27_15h48.16.742,proactive3.2,2020.1.2,Win32,60,5f47c0b9b035471e11593a5c,5f47c66e60be640b5f110b18,2,,,,,,cathedral,,,,,,0,49,49,25,1,3,1,,,,,,,,,,,,,,,,,,,,,,,,,,,,,,,,,,,,,,,,,,,,,,,,,,,,,,,,,,,,,,,,,,,,,,,,,,,
,,,,,,,,,,stimuli/images/PICTURE_383.png,WRITER,5d1a7d73a7f7ce0001dec46b,01/05/2001,2020-08-27_15h48.16.742,proactive3.2,2020.1.2,Win32,60,5f47c0b9b035471e11593a5c,5f47c66e60be640b5f110b18,2,,,,,,coin,,,,,,0,50,50,28,1,3,1,,,,,,,,,,,,,,,,,,,,,,,,,,,,,,,,,,,,,,,,,,,,,,,,,,,,,,,,,,,,,,,,,,,,,,,,,,,
,,,,,,,,,,stimuli/images/PICTURE_750.png,HOTEL,5d1a7d73a7f7ce0001dec46b,01/05/2001,2020-08-27_15h48.16.742,proactive3.2,2020.1.2,Win32,60,5f47c0b9b035471e11593a5c,5f47c66e60be640b5f110b18,2,,,,,,kettle,,,,,,0,51,51,27,1,3,1,,,,,,,,,,,,,,,,,,,,,,,,,,,,,,,,,,,,,,,,,,,,,,,,,,,,,,,,,,,,,,,,,,,,,,,,,,,
,,,,,,,,,,stimuli/images/PICTURE_285.png,LIFE,5d1a7d73a7f7ce0001dec46b,01/05/2001,2020-08-27_15h48.16.742,proactive3.2,2020.1.2,Win32,60,5f47c0b9b035471e11593a5c,5f47c66e60be640b5f110b18,2,,,,,,carrot,,,,,,0,52,52,33,1,4,1,,,,,,,,,,,,,,,,,,,,,,,,,,,,,,,,,,,,,,,,,,,,,,,,,,,,,,,,,,,,,,,,,,,,,,,,,,,
,,,,,,,,,,stimuli/images/PICTURE_68.png,MILE,5d1a7d73a7f7ce0001dec46b,01/05/2001,2020-08-27_15h48.16.742,proactive3.2,2020.1.2,Win32,60,5f47c0b9b035471e11593a5c,5f47c66e60be640b5f110b18,2,,,,,,candle,,,,,,0,53,53,51,1,6,1,,,,,,,,,,,,,,,,,,,,,,,,,,,,,,,,,,,,,,,,,,,,,,,,,,,,,,,,,,,,,,,,,,,,,,,,,,,
,,,,,,,,,,stimuli/images/PICTURE_147.png,WOMEN,5d1a7d73a7f7ce0001dec46b,01/05/2001,2020-08-27_15h48.16.742,proactive3.2,2020.1.2,Win32,60,5f47c0b9b035471e11593a5c,5f47c66e60be640b5f110b18,2,,,,,,hanger,,,,,,0,54,54,7,1,1,1,,,,,,,,,,,,,,,,,,,,,,,,,,,,,,,,,,,,,,,,,,,,,,,,,,,,,,,,,,,,,,,,,,,,,,,,,,,
,,,,,,,,,,stimuli/images/PICTURE_297.png,RIVER,5d1a7d73a7f7ce0001dec46b,01/05/2001,2020-08-27_15h48.16.742,proactive3.2,2020.1.2,Win32,60,5f47c0b9b035471e11593a5c,5f47c66e60be640b5f110b18,2,,,,,,aeroplane,,,,,,0,55,55,39,1,4,1,,,,,,,,,,,,,,,,,,,,,,,,,,,,,,,,,,,,,,,,,,,,,,,,,,,,,,,,,,,,,,,,,,,,,,,,,,,
,,,,,,,,,,stimuli/images/PICTURE_403.png,RIVER,5d1a7d73a7f7ce0001dec46b,01/05/2001,2020-08-27_15h48.16.742,proactive3.2,2020.1.2,Win32,60,5f47c0b9b035471e11593a5c,5f47c66e60be640b5f110b18,2,,,,,,cathedral,,,,,,0,56,56,40,1,5,1,,,,,,,,,,,,,,,,,,,,,,,,,,,,,,,,,,,,,,,,,,,,,,,,,,,,,,,,,,,,,,,,,,,,,,,,,,,
,,,,,,,,,,stimuli/images/PICTURE_208.png,SYSTEM,5d1a7d73a7f7ce0001dec46b,01/05/2001,2020-08-27_15h48.16.742,proactive3.2,2020.1.2,Win32,60,5f47c0b9b035471e11593a5c,5f47c66e60be640b5f110b18,2,,,,,,microphone,,,,,,0,57,57,32,1,4,1,,,,,,,,,,,,,,,,,,,,,,,,,,,,,,,,,,,,,,,,,,,,,,,,,,,,,,,,,,,,,,,,,,,,,,,,,,,
,,,,,,,,,,stimuli/images/PICTURE_308.png,FAMILY,5d1a7d73a7f7ce0001dec46b,01/05/2001,2020-08-27_15h48.16.742,proactive3.2,2020.1.2,Win32,60,5f47c0b9b035471e11593a5c,5f47c66e60be640b5f110b18,2,,,,,,dice,,,,,,0,58,58,36,1,4,1,,,,,,,,,,,,,,,,,,,,,,,,,,,,,,,,,,,,,,,,,,,,,,,,,,,,,,,,,,,,,,,,,,,,,,,,,,,
,,?,0.002125,0,,,,,,stimuli/images/PICTURE_95.png,MILLER,5d1a7d73a7f7ce0001dec46b,01/05/2001,2020-08-27_15h48.16.742,proactive3.2,2020.1.2,Win32,60,5f47c0b9b035471e11593a5c,5f47c66e60be640b5f110b18,2,,,,,,suitcase,,,,,,,,,,,6,1,0,0,0,56,1,,,,,,,,,,,,,,,,,,,,,,,,,,,,,,,,,,,,,,,,,,,,,,,,,,,,,,,,,,,,,,,,,,,,,,
,,?,0.00203,0,,,,,,stimuli/images/PICTURE_147.png,WOMEN,5d1a7d73a7f7ce0001dec46b,01/05/2001,2020-08-27_15h48.16.742,proactive3.2,2020.1.2,Win32,60,5f47c0b9b035471e11593a5c,5f47c66e60be640b5f110b18,2,,,,,,hanger,,,,,,,,,,,1,1,0,1,1,7,1,,,,,,,,,,,,,,,,,,,,,,,,,,,,,,,,,,,,,,,,,,,,,,,,,,,,,,,,,,,,,,,,,,,,,,
,,?,0.00232,0,,,,,,stimuli/images/PICTURE_675.png,SALE,5d1a7d73a7f7ce0001dec46b,01/05/2001,2020-08-27_15h48.16.742,proactive3.2,2020.1.2,Win32,60,5f47c0b9b035471e11593a5c,5f47c66e60be640b5f110b18,2,,,,,,windmill,,,,,,,,,,,5,1,0,2,2,47,1,,,,,,,,,,,,,,,,,,,,,,,,,,,,,,,,,,,,,,,,,,,,,,,,,,,,,,,,,,,,,,,,,,,,,,
,,?,0.002395,0,,,,,,stimuli/images/PICTURE_33.png,FRIEND,5d1a7d73a7f7ce0001dec46b,01/05/2001,2020-08-27_15h48.16.742,proactive3.2,2020.1.2,Win32,60,5f47c0b9b035471e11593a5c,5f47c66e60be640b5f110b18,2,,,,,,frame,,,,,,,,,,,1,1,0,3,3,8,1,,,,,,,,,,,,,,,,,,,,,,,,,,,,,,,,,,,,,,,,,,,,,,,,,,,,,,,,,,,,,,,,,,,,,,
,,?,0.002245,0,,,,,,stimuli/images/PICTURE_85.png,NATION,5d1a7d73a7f7ce0001dec46b,01/05/2001,2020-08-27_15h48.16.742,proactive3.2,2020.1.2,Win32,60,5f47c0b9b035471e11593a5c,5f47c66e60be640b5f110b18,2,,,,,,diamond,,,,,,,,,,,1,1,0,4,4,5,1,,,,,,,,,,,,,,,,,,,,,,,,,,,,,,,,,,,,,,,,,,,,,,,,,,,,,,,,,,,,,,,,,,,,,,
,,?,0.00225,0,,,,,,stimuli/images/PICTURE_708.png,RECORD,5d1a7d73a7f7ce0001dec46b,01/05/2001,2020-08-27_15h48.16.742,proactive3.2,2020.1.2,Win32,60,5f47c0b9b035471e11593a5c,5f47c66e60be640b5f110b18,2,,,,,,monkey,,,,,,,,,,,6,1,0,5,5,58,1,,,,,,,,,,,,,,,,,,,,,,,,,,,,,,,,,,,,,,,,,,,,,,,,,,,,,,,,,,,,,,,,,,,,,,
,,?,0.003025,0,,,,,,stimuli/images/PICTURE_95.png,HONEY,5d1a7d73a7f7ce0001dec46b,01/05/2001,2020-08-27_15h48.16.742,proactive3.2,2020.1.2,Win32,60,5f47c0b9b035471e11593a5c,5f47c66e60be640b5f110b18,2,,,,,,suitcase,,,,,,,,,,,5,1,0,6,6,44,1,,,,,,,,,,,,,,,,,,,,,,,,,,,,,,,,,,,,,,,,,,,,,,,,,,,,,,,,,,,,,,,,,,,,,,
,,?,0.002645,0,,,,,,stimuli/images/PICTURE_504.png,ARTIST,5d1a7d73a7f7ce0001dec46b,01/05/2001,2020-08-27_15h48.16.742,proactive3.2,2020.1.2,Win32,60,5f47c0b9b035471e11593a5c,5f47c66e60be640b5f110b18,2,,,,,,wheel,,,,,,,,,,,5,1,0,7,7,49,1,,,,,,,,,,,,,,,,,,,,,,,,,,,,,,,,,,,,,,,,,,,,,,,,,,,,,,,,,,,,,,,,,,,,,,
,,?,0.00198,0,,,,,,stimuli/images/PICTURE_340.png,VALLEY,5d1a7d73a7f7ce0001dec46b,01/05/2001,2020-08-27_15h48.16.742,proactive3.2,2020.1.2,Win32,60,5f47c0b9b035471e11593a5c,5f47c66e60be640b5f110b18,2,,,,,,mirror,,,,,,,,,,,6,1,0,8,8,54,1,,,,,,,,,,,,,,,,,,,,,,,,,,,,,,,,,,,,,,,,,,,,,,,,,,,,,,,,,,,,,,,,,,,,,,
,,CLIENT,2.217645,0,,,,,,stimuli/images/PICTURE_469.png,AGENT,5d1a7d73a7f7ce0001dec46b,01/05/2001,2020-08-27_15h48.16.742,proactive3.2,2020.1.2,Win32,60,5f47c0b9b035471e11593a5c,5f47c66e60be640b5f110b18,2,,,,,,stool,,,,,,,,,,,2,1,0,9,9,16,1,,,,,,,,,,,,,,,,,,,,,,,,,,,,,,,,,,,,,,,,,,,,,,,,,,,,,,,,,,,,,,,,,,,,,,
,,CLIENT,3.18064,0,,,,,,stimuli/images/PICTURE_504.png,YEAR,5d1a7d73a7f7ce0001dec46b,01/05/2001,2020-08-27_15h48.16.742,proactive3.2,2020.1.2,Win32,60,5f47c0b9b035471e11593a5c,5f47c66e60be640b5f110b18,2,,,,,,wheel,,,,,,,,,,,2,1,0,10,10,13,1,,,,,,,,,,,,,,,,,,,,,,,,,,,,,,,,,,,,,,,,,,,,,,,,,,,,,,,,,,,,,,,,,,,,,,
,,?,0.00431,0,,,,,,stimuli/images/PICTURE_744.png,WEAPON,5d1a7d73a7f7ce0001dec46b,01/05/2001,2020-08-27_15h48.16.742,proactive3.2,2020.1.2,Win32,60,5f47c0b9b035471e11593a5c,5f47c66e60be640b5f110b18,2,,,,,,ring,,,,,,,,,,,6,1,0,11,11,50,1,,,,,,,,,,,,,,,,,,,,,,,,,,,,,,,,,,,,,,,,,,,,,,,,,,,,,,,,,,,,,,,,,,,,,,
,,?,0.003715,0,,,,,,stimuli/images/PICTURE_296.png,LIFE,5d1a7d73a7f7ce0001dec46b,01/05/2001,2020-08-27_15h48.16.742,proactive3.2,2020.1.2,Win32,60,5f47c0b9b035471e11593a5c,5f47c66e60be640b5f110b18,2,,,,,,bolt,,,,,,,,,,,6,1,0,12,12,57,1,,,,,,,,,,,,,,,,,,,,,,,,,,,,,,,,,,,,,,,,,,,,,,,,,,,,,,,,,,,,,,,,,,,,,,
,,?,0.0033,0,,,,,,stimuli/images/PICTURE_491.png,RIVER,5d1a7d73a7f7ce0001dec46b,01/05/2001,2020-08-27_15h48.16.742,proactive3.2,2020.1.2,Win32,60,5f47c0b9b035471e11593a5c,5f47c66e60be640b5f110b18,2,,,,,,rug,,,,,,,,,,,1,1,0,13,13,6,1,,,,,,,,,,,,,,,,,,,,,,,,,,,,,,,,,,,,,,,,,,,,,,,,,,,,,,,,,,,,,,,,,,,,,,
,,?,0.003555,0,,,,,,stimuli/images/PICTURE_208.png,SYSTEM,5d1a7d73a7f7ce0001dec46b,01/05/2001,2020-08-27_15h48.16.742,proactive3.2,2020.1.2,Win32,60,5f47c0b9b035471e11593a5c,5f47c66e60be640b5f110b18,2,,,,,,microphone,,,,,,,,,,,4,1,0,14,14,32,1,,,,,,,,,,,,,,,,,,,,,,,,,,,,,,,,,,,,,,,,,,,,,,,,,,,,,,,,,,,,,,,,,,,,,,
,,CLIENT,2.010275,1,,,,,,stimuli/images/PICTURE_339.png,CLIENT,5d1a7d73a7f7ce0001dec46b,01/05/2001,2020-08-27_15h48.16.742,proactive3.2,2020.1.2,Win32,60,5f47c0b9b035471e11593a5c,5f47c66e60be640b5f110b18,2,,,,,,backpack,,,,,,,,,,,2,1,0,15,15,11,1,,,,,,,,,,,,,,,,,,,,,,,,,,,,,,,,,,,,,,,,,,,,,,,,,,,,,,,,,,,,,,,,,,,,,,
,,?,0.00302,0,,,,,,stimuli/images/PICTURE_68.png,MILE,5d1a7d73a7f7ce0001dec46b,01/05/2001,2020-08-27_15h48.16.742,proactive3.2,2020.1.2,Win32,60,5f47c0b9b035471e11593a5c,5f47c66e60be640b5f110b18,2,,,,,,candle,,,,,,,,,,,6,1,0,16,16,51,1,,,,,,,,,,,,,,,,,,,,,,,,,,,,,,,,,,,,,,,,,,,,,,,,,,,,,,,,,,,,,,,,,,,,,,
,,?,0.003035,0,,,,,,stimuli/images/PICTURE_383.png,SERIES,5d1a7d73a7f7ce0001dec46b,01/05/2001,2020-08-27_15h48.16.742,proactive3.2,2020.1.2,Win32,60,5f47c0b9b035471e11593a5c,5f47c66e60be640b5f110b18,2,,,,,,coin,,,,,,,,,,,5,1,0,17,17,46,1,,,,,,,,,,,,,,,,,,,,,,,,,,,,,,,,,,,,,,,,,,,,,,,,,,,,,,,,,,,,,,,,,,,,,,
,,?,4.36701,0,,,,,,stimuli/images/PICTURE_449.png,DUDE,5d1a7d73a7f7ce0001dec46b,01/05/2001,2020-08-27_15h48.16.742,proactive3.2,2020.1.2,Win32,60,5f47c0b9b035471e11593a5c,5f47c66e60be640b5f110b18,2,,,,,,bench,,,,,,,,,,,2,1,0,18,18,17,1,,,,,,,,,,,,,,,,,,,,,,,,,,,,,,,,,,,,,,,,,,,,,,,,,,,,,,,,,,,,,,,,,,,,,,
,,?,0.003185,0,,,,,,stimuli/images/PICTURE_147.png,YEAR,5d1a7d73a7f7ce0001dec46b,01/05/2001,2020-08-27_15h48.16.742,proactive3.2,2020.1.2,Win32,60,5f47c0b9b035471e11593a5c,5f47c66e60be640b5f110b18,2,,,,,,hanger,,,,,,,,,,,3,1,0,19,19,21,1,,,,,,,,,,,,,,,,,,,,,,,,,,,,,,,,,,,,,,,,,,,,,,,,,,,,,,,,,,,,,,,,,,,,,,
,,?,0.00311,0,,,,,,stimuli/images/PICTURE_405.png,PLENTY,5d1a7d73a7f7ce0001dec46b,01/05/2001,2020-08-27_15h48.16.742,proactive3.2,2020.1.2,Win32,60,5f47c0b9b035471e11593a5c,5f47c66e60be640b5f110b18,2,,,,,,anchor,,,,,,,,,,,3,1,0,20,20,23,1,,,,,,,,,,,,,,,,,,,,,,,,,,,,,,,,,,,,,,,,,,,,,,,,,,,,,,,,,,,,,,,,,,,,,,
,,?,0.003295,0,,,,,,stimuli/images/PICTURE_383.png,WRITER,5d1a7d73a7f7ce0001dec46b,01/05/2001,2020-08-27_15h48.16.742,proactive3.2,2020.1.2,Win32,60,5f47c0b9b035471e11593a5c,5f47c66e60be640b5f110b18,2,,,,,,coin,,,,,,,,,,,3,1,0,21,21,28,1,,,,,,,,,,,,,,,,,,,,,,,,,,,,,,,,,,,,,,,,,,,,,,,,,,,,,,,,,,,,,,,,,,,,,,
,,?,0.003375,0,,,,,,stimuli/images/PICTURE_308.png,FAMILY,5d1a7d73a7f7ce0001dec46b,01/05/2001,2020-08-27_15h48.16.742,proactive3.2,2020.1.2,Win32,60,5f47c0b9b035471e11593a5c,5f47c66e60be640b5f110b18,2,,,,,,dice,,,,,,,,,,,4,1,0,22,22,36,1,,,,,,,,,,,,,,,,,,,,,,,,,,,,,,,,,,,,,,,,,,,,,,,,,,,,,,,,,,,,,,,,,,,,,,
,,?,0.00314,0,,,,,,stimuli/images/PICTURE_57.png,MOMENT,5d1a7d73a7f7ce0001dec46b,01/05/2001,2020-08-27_15h48.16.742,proactive3.2,2020.1.2,Win32,60,5f47c0b9b035471e11593a5c,5f47c66e60be640b5f110b18,2,,,,,,stamp,,,,,,,,,,,4,1,0,23,23,37,1,,,,,,,,,,,,,,,,,,,,,,,,,,,,,,,,,,,,,,,,,,,,,,,,,,,,,,,,,,,,,,,,,,,,,,
,,?,0.003115,0,,,,,,stimuli/images/PICTURE_403.png,WRITER,5d1a7d73a7f7ce0001dec46b,01/05/2001,2020-08-27_15h48.16.742,proactive3.2,2020.1.2,Win32,60,5f47c0b9b035471e11593a5c,5f47c66e60be640b5f110b18,2,,,,,,cathedral,,,,,,,,,,,4,1,0,24,24,31,1,,,,,,,,,,,,,,,,,,,,,,,,,,,,,,,,,,,,,,,,,,,,,,,,,,,,,,,,,,,,,,,,,,,,,,
,,?,0.003335,0,,,,,,stimuli/images/PICTURE_285.png,LIFE,5d1a7d73a7f7ce0001dec46b,01/05/2001,2020-08-27_15h48.16.742,proactive3.2,2020.1.2,Win32,60,5f47c0b9b035471e11593a5c,5f47c66e60be640b5f110b18,2,,,,,,carrot,,,,,,,,,,,4,1,0,25,25,33,1,,,,,,,,,,,,,,,,,,,,,,,,,,,,,,,,,,,,,,,,,,,,,,,,,,,,,,,,,,,,,,,,,,,,,,
,,?,0.003345,0,,,,,,stimuli/images/PICTURE_685.png,PENNY,5d1a7d73a7f7ce0001dec46b,01/05/2001,2020-08-27_15h48.16.742,proactive3.2,2020.1.2,Win32,60,5f47c0b9b035471e11593a5c,5f47c66e60be640b5f110b18,2,,,,,,goose,,,,,,,,,,,1,1,0,26,26,4,1,,,,,,,,,,,,,,,,,,,,,,,,,,,,,,,,,,,,,,,,,,,,,,,,,,,,,,,,,,,,,,,,,,,,,,
,,?,3.60886,0,,,,,,stimuli/images/PICTURE_491.png,GLASS,5d1a7d73a7f7ce0001dec46b,01/05/2001,2020-08-27_15h48.16.742,proactive3.2,2020.1.2,Win32,60,5f47c0b9b035471e11593a5c,5f47c66e60be640b5f110b18,2,,,,,,rug,,,,,,,,,,,2,1,0,27,27,14,1,,,,,,,,,,,,,,,,,,,,,,,,,,,,,,,,,,,,,,,,,,,,,,,,,,,,,,,,,,,,,,,,,,,,,,
,,?,0.00283,0,,,,,,stimuli/images/PICTURE_405.png,YEAR,5d1a7d73a7f7ce0001dec46b,01/05/2001,2020-08-27_15h48.16.742,proactive3.2,2020.1.2,Win32,60,5f47c0b9b035471e11593a5c,5f47c66e60be640b5f110b18,2,,,,,,anchor,,,,,,,,,,,4,1,0,28,28,34,1,,,,,,,,,,,,,,,,,,,,,,,,,,,,,,,,,,,,,,,,,,,,,,,,,,,,,,,,,,,,,,,,,,,,,,
,,?,0.002785,0,,,,,,stimuli/images/PICTURE_85.png,TOILET,5d1a7d73a7f7ce0001dec46b,01/05/2001,2020-08-27_15h48.16.742,proactive3.2,2020.1.2,Win32,60,5f47c0b9b035471e11593a5c,5f47c66e60be640b5f110b18,2,,,,,,diamond,,,,,,,,,,,5,1,0,29,29,48,1,,,,,,,,,,,,,,,,,,,,,,,,,,,,,,,,,,,,,,,,,,,,,,,,,,,,,,,,,,,,,,,,,,,,,,
,,?,0.003235,0,,,,,,stimuli/images/PICTURE_108.png,POLICY,5d1a7d73a7f7ce0001dec46b,01/05/2001,2020-08-27_15h48.16.742,proactive3.2,2020.1.2,Win32,60,5f47c0b9b035471e11593a5c,5f47c66e60be640b5f110b18,2,,,,,,calendar,,,,,,,,,,,3,1,0,30,30,22,1,,,,,,,,,,,,,,,,,,,,,,,,,,,,,,,,,,,,,,,,,,,,,,,,,,,,,,,,,,,,,,,,,,,,,,
,,?,0.001845,0,,,,,,stimuli/images/PICTURE_42.png,BOYS,5d1a7d73a7f7ce0001dec46b,01/05/2001,2020-08-27_15h48.16.742,proactive3.2,2020.1.2,Win32,60,5f47c0b9b035471e11593a5c,5f47c66e60be640b5f110b18,2,,,,,,pear,,,,,,,,,,,6,1,0,31,31,55,1,,,,,,,,,,,,,,,,,,,,,,,,,,,,,,,,,,,,,,,,,,,,,,,,,,,,,,,,,,,,,,,,,,,,,,
,,?,2.071965,0,,,,,,stimuli/images/PICTURE_667.png,RIVER,5d1a7d73a7f7ce0001dec46b,01/05/2001,2020-08-27_15h48.16.742,proactive3.2,2020.1.2,Win32,60,5f47c0b9b035471e11593a5c,5f47c66e60be640b5f110b18,2,,,,,,daisy,,,,,,,,,,,2,1,0,32,32,10,1,,,,,,,,,,,,,,,,,,,,,,,,,,,,,,,,,,,,,,,,,,,,,,,,,,,,,,,,,,,,,,,,,,,,,,
,,?,0.002915,0,,,,,,stimuli/images/PICTURE_654.png,MONTH,5d1a7d73a7f7ce0001dec46b,01/05/2001,2020-08-27_15h48.16.742,proactive3.2,2020.1.2,Win32,60,5f47c0b9b035471e11593a5c,5f47c66e60be640b5f110b18,2,,,,,,pencil,,,,,,,,,,,3,1,0,33,33,29,1,,,,,,,,,,,,,,,,,,,,,,,,,,,,,,,,,,,,,,,,,,,,,,,,,,,,,,,,,,,,,,,,,,,,,,
,,?,0.00284,0,,,,,,stimuli/images/PICTURE_95.png,BOYS,5d1a7d73a7f7ce0001dec46b,01/05/2001,2020-08-27_15h48.16.742,proactive3.2,2020.1.2,Win32,60,5f47c0b9b035471e11593a5c,5f47c66e60be640b5f110b18,2,,,,,,suitcase,,,,,,,,,,,1,1,0,34,34,1,1,,,,,,,,,,,,,,,,,,,,,,,,,,,,,,,,,,,,,,,,,,,,,,,,,,,,,,,,,,,,,,,,,,,,,,
,,?,0.002845,0,,,,,,stimuli/images/PICTURE_380.png,CANDY,5d1a7d73a7f7ce0001dec46b,01/05/2001,2020-08-27_15h48.16.742,proactive3.2,2020.1.2,Win32,60,5f47c0b9b035471e11593a5c,5f47c66e60be640b5f110b18,2,,,,,,gorilla,,,,,,,,,,,1,1,0,35,35,0,1,,,,,,,,,,,,,,,,,,,,,,,,,,,,,,,,,,,,,,,,,,,,,,,,,,,,,,,,,,,,,,,,,,,,,,
,,?,0.00291,0,,,,,,stimuli/images/PICTURE_564.png,BATH,5d1a7d73a7f7ce0001dec46b,01/05/2001,2020-08-27_15h48.16.742,proactive3.2,2020.1.2,Win32,60,5f47c0b9b035471e11593a5c,5f47c66e60be640b5f110b18,2,,,,,,spoon,,,,,,,,,,,3,1,0,36,36,26,1,,,,,,,,,,,,,,,,,,,,,,,,,,,,,,,,,,,,,,,,,,,,,,,,,,,,,,,,,,,,,,,,,,,,,,
,,?,0.002945,0,,,,,,stimuli/images/PICTURE_108.png,FLIGHT,5d1a7d73a7f7ce0001dec46b,01/05/2001,2020-08-27_15h48.16.742,proactive3.2,2020.1.2,Win32,60,5f47c0b9b035471e11593a5c,5f47c66e60be640b5f110b18,2,,,,,,calendar,,,,,,,,,,,6,1,0,37,37,59,1,,,,,,,,,,,,,,,,,,,,,,,,,,,,,,,,,,,,,,,,,,,,,,,,,,,,,,,,,,,,,,,,,,,,,,
,,?,0.002725,0,,,,,,stimuli/images/PICTURE_327.png,CASINO,5d1a7d73a7f7ce0001dec46b,01/05/2001,2020-08-27_15h48.16.742,proactive3.2,2020.1.2,Win32,60,5f47c0b9b035471e11593a5c,5f47c66e60be640b5f110b18,2,,,,,,helmet,,,,,,,,,,,3,1,0,38,38,20,1,,,,,,,,,,,,,,,,,,,,,,,,,,,,,,,,,,,,,,,,,,,,,,,,,,,,,,,,,,,,,,,,,,,,,,
,,?,0.002905,0,,,,,,stimuli/images/PICTURE_403.png,RIVER,5d1a7d73a7f7ce0001dec46b,01/05/2001,2020-08-27_15h48.16.742,proactive3.2,2020.1.2,Win32,60,5f47c0b9b035471e11593a5c,5f47c66e60be640b5f110b18,2,,,,,,cathedral,,,,,,,,,,,5,1,0,39,39,40,1,,,,,,,,,,,,,,,,,,,,,,,,,,,,,,,,,,,,,,,,,,,,,,,,,,,,,,,,,,,,,,,,,,,,,,
,,?,0.0037,0,,,,,,stimuli/images/PICTURE_403.png,TOILET,5d1a7d73a7f7ce0001dec46b,01/05/2001,2020-08-27_15h48.16.742,proactive3.2,2020.1.2,Win32,60,5f47c0b9b035471e11593a5c,5f47c66e60be640b5f110b18,2,,,,,,cathedral,,,,,,,,,,,3,1,0,40,40,25,1,,,,,,,,,,,,,,,,,,,,,,,,,,,,,,,,,,,,,,,,,,,,,,,,,,,,,,,,,,,,,,,,,,,,,,
,,?,0.003105,0,,,,,,stimuli/images/PICTURE_296.png,LOTS,5d1a7d73a7f7ce0001dec46b,01/05/2001,2020-08-27_15h48.16.742,proactive3.2,2020.1.2,Win32,60,5f47c0b9b035471e11593a5c,5f47c66e60be640b5f110b18,2,,,,,,bolt,,,,,,,,,,,1,1,0,41,41,9,1,,,,,,,,,,,,,,,,,,,,,,,,,,,,,,,,,,,,,,,,,,,,,,,,,,,,,,,,,,,,,,,,,,,,,,
,,?,0.00304,0,,,,,,stimuli/images/PICTURE_504.png,COPS,5d1a7d73a7f7ce0001dec46b,01/05/2001,2020-08-27_15h48.16.742,proactive3.2,2020.1.2,Win32,60,5f47c0b9b035471e11593a5c,5f47c66e60be640b5f110b18,2,,,,,,wheel,,,,,,,,,,,6,1,0,42,42,52,1,,,,,,,,,,,,,,,,,,,,,,,,,,,,,,,,,,,,,,,,,,,,,,,,,,,,,,,,,,,,,,,,,,,,,,
,,?,0.00214,0,,,,,,stimuli/images/PICTURE_677.png,APPLE,5d1a7d73a7f7ce0001dec46b,01/05/2001,2020-08-27_15h48.16.742,proactive3.2,2020.1.2,Win32,60,5f47c0b9b035471e11593a5c,5f47c66e60be640b5f110b18,2,,,,,,map,,,,,,,,,,,5,1,0,43,43,43,1,,,,,,,,,,,,,,,,,,,,,,,,,,,,,,,,,,,,,,,,,,,,,,,,,,,,,,,,,,,,,,,,,,,,,,
,,?,0.001975,0,,,,,,stimuli/images/PICTURE_750.png,HOTEL,5d1a7d73a7f7ce0001dec46b,01/05/2001,2020-08-27_15h48.16.742,proactive3.2,2020.1.2,Win32,60,5f47c0b9b035471e11593a5c,5f47c66e60be640b5f110b18,2,,,,,,kettle,,,,,,,,,,,3,1,0,44,44,27,1,,,,,,,,,,,,,,,,,,,,,,,,,,,,,,,,,,,,,,,,,,,,,,,,,,,,,,,,,,,,,,,,,,,,,,
,,?,0.00532,0,,,,,,stimuli/images/PICTURE_32.png,KIND,5d1a7d73a7f7ce0001dec46b,01/05/2001,2020-08-27_15h48.16.742,proactive3.2,2020.1.2,Win32,60,5f47c0b9b035471e11593a5c,5f47c66e60be640b5f110b18,2,,,,,,crown,,,,,,,,,,,4,1,0,45,45,35,1,,,,,,,,,,,,,,,,,,,,,,,,,,,,,,,,,,,,,,,,,,,,,,,,,,,,,,,,,,,,,,,,,,,,,,
,,?,0.00225,0,,,,,,stimuli/images/PICTURE_327.png,SERIES,5d1a7d73a7f7ce0001dec46b,01/05/2001,2020-08-27_15h48.16.742,proactive3.2,2020.1.2,Win32,60,5f47c0b9b035471e11593a5c,5f47c66e60be640b5f110b18,2,,,,,,helmet,,,,,,,,,,,1,1,0,46,46,3,1,,,,,,,,,,,,,,,,,,,,,,,,,,,,,,,,,,,,,,,,,,,,,,,,,,,,,,,,,,,,,,,,,,,,,,
,,?,0.00321,0,,,,,,stimuli/images/PICTURE_203.png,GODS,5d1a7d73a7f7ce0001dec46b,01/05/2001,2020-08-27_15h48.16.742,proactive3.2,2020.1.2,Win32,60,5f47c0b9b035471e11593a5c,5f47c66e60be640b5f110b18,2,,,,,,cap,,,,,,,,,,,4,1,0,47,47,30,1,,,,,,,,,,,,,,,,,,,,,,,,,,,,,,,,,,,,,,,,,,,,,,,,,,,,,,,,,,,,,,,,,,,,,,
,,?,0.0023,0,,,,,,stimuli/images/PICTURE_177.png,WRITER,5d1a7d73a7f7ce0001dec46b,01/05/2001,2020-08-27_15h48.16.742,proactive3.2,2020.1.2,Win32,60,5f47c0b9b035471e11593a5c,5f47c66e60be640b5f110b18,2,,,,,,mushroom,,,,,,,,,,,5,1,0,48,48,41,1,,,,,,,,,,,,,,,,,,,,,,,,,,,,,,,,,,,,,,,,,,,,,,,,,,,,,,,,,,,,,,,,,,,,,,
,,?,2.1351,0,,,,,,stimuli/images/PICTURE_655.png,TOILET,5d1a7d73a7f7ce0001dec46b,01/05/2001,2020-08-27_15h48.16.742,proactive3.2,2020.1.2,Win32,60,5f47c0b9b035471e11593a5c,5f47c66e60be640b5f110b18,2,,,,,,megaphone,,,,,,,,,,,2,1,0,49,49,12,1,,,,,,,,,,,,,,,,,,,,,,,,,,,,,,,,,,,,,,,,,,,,,,,,,,,,,,,,,,,,,,,,,,,,,,
,,?,2.963555,0,,,,,,stimuli/images/PICTURE_380.png,HONEY,5d1a7d73a7f7ce0001dec46b,01/05/2001,2020-08-27_15h48.16.742,proactive3.2,2020.1.2,Win32,60,5f47c0b9b035471e11593a5c,5f47c66e60be640b5f110b18,2,,,,,,gorilla,,,,,,,,,,,2,1,0,50,50,19,1,,,,,,,,,,,,,,,,,,,,,,,,,,,,,,,,,,,,,,,,,,,,,,,,,,,,,,,,,,,,,,,,,,,,,,
,,?,0.003915,0,,,,,,stimuli/images/PICTURE_340.png,LETTER,5d1a7d73a7f7ce0001dec46b,01/05/2001,2020-08-27_15h48.16.742,proactive3.2,2020.1.2,Win32,60,5f47c0b9b035471e11593a5c,5f47c66e60be640b5f110b18,2,,,,,,mirror,,,,,,,,,,,3,1,0,51,51,24,1,,,,,,,,,,,,,,,,,,,,,,,,,,,,,,,,,,,,,,,,,,,,,,,,,,,,,,,,,,,,,,,,,,,,,,
,,?,0.00433,0,,,,,,stimuli/images/PICTURE_203.png,NIGHT,5d1a7d73a7f7ce0001dec46b,01/05/2001,2020-08-27_15h48.16.742,proactive3.2,2020.1.2,Win32,60,5f47c0b9b035471e11593a5c,5f47c66e60be640b5f110b18,2,,,,,,cap,,,,,,,,,,,1,1,0,52,52,2,1,,,,,,,,,,,,,,,,,,,,,,,,,,,,,,,,,,,,,,,,,,,,,,,,,,,,,,,,,,,,,,,,,,,,,,
,,PILLS,1.79248,1,,,,,,stimuli/images/PICTURE_32.png,PILLS,5d1a7d73a7f7ce0001dec46b,01/05/2001,2020-08-27_15h48.16.742,proactive3.2,2020.1.2,Win32,60,5f47c0b9b035471e11593a5c,5f47c66e60be640b5f110b18,2,,,,,,crown,,,,,,,,,,,2,1,0,53,53,18,1,,,,,,,,,,,,,,,,,,,,,,,,,,,,,,,,,,,,,,,,,,,,,,,,,,,,,,,,,,,,,,,,,,,,,,
,,?,0.00362,0,,,,,,stimuli/images/PICTURE_297.png,RIVER,5d1a7d73a7f7ce0001dec46b,01/05/2001,2020-08-27_15h48.16.742,proactive3.2,2020.1.2,Win32,60,5f47c0b9b035471e11593a5c,5f47c66e60be640b5f110b18,2,,,,,,aeroplane,,,,,,,,,,,4,1,0,54,54,39,1,,,,,,,,,,,,,,,,,,,,,,,,,,,,,,,,,,,,,,,,,,,,,,,,,,,,,,,,,,,,,,,,,,,,,,
,,?,0.003665,0,,,,,,stimuli/images/PICTURE_467.png,POLICY,5d1a7d73a7f7ce0001dec46b,01/05/2001,2020-08-27_15h48.16.742,proactive3.2,2020.1.2,Win32,60,5f47c0b9b035471e11593a5c,5f47c66e60be640b5f110b18,2,,,,,,peg,,,,,,,,,,,6,1,0,55,55,53,1,,,,,,,,,,,,,,,,,,,,,,,,,,,,,,,,,,,,,,,,,,,,,,,,,,,,,,,,,,,,,,,,,,,,,,
,,?,0.003735,0,,,,,,stimuli/images/PICTURE_68.png,ROOF,5d1a7d73a7f7ce0001dec46b,01/05/2001,2020-08-27_15h48.16.742,proactive3.2,2020.1.2,Win32,60,5f47c0b9b035471e11593a5c,5f47c66e60be640b5f110b18,2,,,,,,candle,,,,,,,,,,,4,1,0,56,56,38,1,,,,,,,,,,,,,,,,,,,,,,,,,,,,,,,,,,,,,,,,,,,,,,,,,,,,,,,,,,,,,,,,,,,,,,
,,?,1.36935,0,,,,,,stimuli/images/PICTURE_2.png,FLIGHT,5d1a7d73a7f7ce0001dec46b,01/05/2001,2020-08-27_15h48.16.742,proactive3.2,2020.1.2,Win32,60,5f47c0b9b035471e11593a5c,5f47c66e60be640b5f110b18,2,,,,,,tyre,,,,,,,,,,,2,1,0,57,57,15,1,,,,,,,,,,,,,,,,,,,,,,,,,,,,,,,,,,,,,,,,,,,,,,,,,,,,,,,,,,,,,,,,,,,,,,
,,?,0.004,0,,,,,,stimuli/images/PICTURE_233.png,LOTS,5d1a7d73a7f7ce0001dec46b,01/05/2001,2020-08-27_15h48.16.742,proactive3.2,2020.1.2,Win32,60,5f47c0b9b035471e11593a5c,5f47c66e60be640b5f110b18,2,,,,,,salt,,,,,,,,,,,5,1,0,58,58,42,1,,,,,,,,,,,,,,,,,,,,,,,,,,,,,,,,,,,,,,,,,,,,,,,,,,,,,,,,,,,,,,,,,,,,,,
,,?,0.004935,0,,,,,,stimuli/images/PICTURE_487.png,GIRL,5d1a7d73a7f7ce0001dec46b,01/05/2001,2020-08-27_15h48.16.742,proactive3.2,2020.1.2,Win32,60,5f47c0b9b035471e11593a5c,5f47c66e60be640b5f110b18,2,,,,,,basket,,,,,,,,,,,5,1,0,59,59,45,1,,,,,,,,,,,,,,,,,,,,,,,,,,,,,,,,,,,,,,,,,,,,,,,,,,,,,,,,,,,,,,,,,,,,,,
,,,,,,,,,,,,5d1a7d73a7f7ce0001dec46b,01/05/2001,2020-08-27_15h48.16.742,proactive3.2,2020.1.2,Win32,60,5f47c0b9b035471e11593a5c,5f47c66e60be640b5f110b18,2,,,,,,,,,,,,,,,,,,,,,,,,0,0,0,1,1,stimuli/learn-block2.csv,,,,,,,,,,,,,,,,,,,,,,,,,,,,,,,,,,,,,,,,,,,,,,,,,,,,,,,,,,,,,,,,
,,,,,,,,,,stimuli/images/PICTURE_215.png,PLENTY,5d1a7d73a7f7ce0001dec46b,01/05/2001,2020-08-27_15h48.16.742,proactive3.2,2020.1.2,Win32,60,5f47c0b9b035471e11593a5c,5f47c66e60be640b5f110b18,2,,,,,,boot,,,,,,0,0,0,37,1,4,0,,,,,,,,,,,,,,,,,,,,,,,,,,,,,,,,,,,,,,,,,,,,,,,,,,,,,,,,,,,,,,,,,,,,,,,,,,,
,,,,,,,,,,stimuli/images/PICTURE_504.png,BODY,5d1a7d73a7f7ce0001dec46b,01/05/2001,2020-08-27_15h48.16.742,proactive3.2,2020.1.2,Win32,60,5f47c0b9b035471e11593a5c,5f47c66e60be640b5f110b18,2,,,,,,wheel,,,,,,0,1,1,8,1,1,0,,,,,,,,,,,,,,,,,,,,,,,,,,,,,,,,,,,,,,,,,,,,,,,,,,,,,,,,,,,,,,,,,,,,,,,,,,,
,,,,,,,,,,stimuli/images/PICTURE_233.png,IDEAS,5d1a7d73a7f7ce0001dec46b,01/05/2001,2020-08-27_15h48.16.742,proactive3.2,2020.1.2,Win32,60,5f47c0b9b035471e11593a5c,5f47c66e60be640b5f110b18,2,,,,,,salt,,,,,,0,2,2,28,1,3,0,,,,,,,,,,,,,,,,,,,,,,,,,,,,,,,,,,,,,,,,,,,,,,,,,,,,,,,,,,,,,,,,,,,,,,,,,,,
,,,,,,,,,,stimuli/images/PICTURE_327.png,BEAUTY,5d1a7d73a7f7ce0001dec46b,01/05/2001,2020-08-27_15h48.16.742,proactive3.2,2020.1.2,Win32,60,5f47c0b9b035471e11593a5c,5f47c66e60be640b5f110b18,2,,,,,,helmet,,,,,,0,3,3,48,1,5,0,,,,,,,,,,,,,,,,,,,,,,,,,,,,,,,,,,,,,,,,,,,,,,,,,,,,,,,,,,,,,,,,,,,,,,,,,,,
,,,,,,,,,,stimuli/images/PICTURE_688.png,WOMEN,5d1a7d73a7f7ce0001dec46b,01/05/2001,2020-08-27_15h48.16.742,proactive3.2,2020.1.2,Win32,60,5f47c0b9b035471e11593a5c,5f47c66e60be640b5f110b18,2,,,,,,runner,,,,,,0,4,4,14,1,2,0,,,,,,,,,,,,,,,,,,,,,,,,,,,,,,,,,,,,,,,,,,,,,,,,,,,,,,,,,,,,,,,,,,,,,,,,,,,
,,,,,,,,,,stimuli/images/PICTURE_469.png,LETTER,5d1a7d73a7f7ce0001dec46b,01/05/2001,2020-08-27_15h48.16.742,proactive3.2,2020.1.2,Win32,60,5f47c0b9b035471e11593a5c,5f47c66e60be640b5f110b18,2,,,,,,stool,,,,,,0,5,5,42,1,5,0,,,,,,,,,,,,,,,,,,,,,,,,,,,,,,,,,,,,,,,,,,,,,,,,,,,,,,,,,,,,,,,,,,,,,,,,,,,
,,,,,,,,,,stimuli/images/PICTURE_177.png,CARS,5d1a7d73a7f7ce0001dec46b,01/05/2001,2020-08-27_15h48.16.742,proactive3.2,2020.1.2,Win32,60,5f47c0b9b035471e11593a5c,5f47c66e60be640b5f110b18,2,,,,,,mushroom,,,,,,0,6,6,35,1,4,0,,,,,,,,,,,,,,,,,,,,,,,,,,,,,,,,,,,,,,,,,,,,,,,,,,,,,,,,,,,,,,,,,,,,,,,,,,,
,,,,,,,,,,stimuli/images/PICTURE_151.png,GIRL,5d1a7d73a7f7ce0001dec46b,01/05/2001,2020-08-27_15h48.16.742,proactive3.2,2020.1.2,Win32,60,5f47c0b9b035471e11593a5c,5f47c66e60be640b5f110b18,2,,,,,,tray,,,,,,0,7,7,19,1,2,0,,,,,,,,,,,,,,,,,,,,,,,,,,,,,,,,,,,,,,,,,,,,,,,,,,,,,,,,,,,,,,,,,,,,,,,,,,,
,,,,,,,,,,stimuli/images/PICTURE_208.png,LOTS,5d1a7d73a7f7ce0001dec46b,01/05/2001,2020-08-27_15h48.16.742,proactive3.2,2020.1.2,Win32,60,5f47c0b9b035471e11593a5c,5f47c66e60be640b5f110b18,2,,,,,,microphone,,,,,,0,8,8,10,1,2,0,,,,,,,,,,,,,,,,,,,,,,,,,,,,,,,,,,,,,,,,,,,,,,,,,,,,,,,,,,,,,,,,,,,,,,,,,,,
,,,,,,,,,,stimuli/images/PICTURE_95.png,STYLE,5d1a7d73a7f7ce0001dec46b,01/05/2001,2020-08-27_15h48.16.742,proactive3.2,2020.1.2,Win32,60,5f47c0b9b035471e11593a5c,5f47c66e60be640b5f110b18,2,,,,,,suitcase,,,,,,0,9,9,25,1,3,0,,,,,,,,,,,,,,,,,,,,,,,,,,,,,,,,,,,,,,,,,,,,,,,,,,,,,,,,,,,,,,,,,,,,,,,,,,,
,,,,,,,,,,stimuli/images/PICTURE_449.png,THING,5d1a7d73a7f7ce0001dec46b,01/05/2001,2020-08-27_15h48.16.742,proactive3.2,2020.1.2,Win32,60,5f47c0b9b035471e11593a5c,5f47c66e60be640b5f110b18,2,,,,,,bench,,,,,,0,10,10,59,1,6,0,,,,,,,,,,,,,,,,,,,,,,,,,,,,,,,,,,,,,,,,,,,,,,,,,,,,,,,,,,,,,,,,,,,,,,,,,,,
,,,,,,,,,,stimuli/images/PICTURE_654.png,VALLEY,5d1a7d73a7f7ce0001dec46b,01/05/2001,2020-08-27_15h48.16.742,proactive3.2,2020.1.2,Win32,60,5f47c0b9b035471e11593a5c,5f47c66e60be640b5f110b18,2,,,,,,pencil,,,,,,0,11,11,1,1,1,0,,,,,,,,,,,,,,,,,,,,,,,,,,,,,,,,,,,,,,,,,,,,,,,,,,,,,,,,,,,,,,,,,,,,,,,,,,,
,,,,,,,,,,stimuli/images/PICTURE_68.png,MILE,5d1a7d73a7f7ce0001dec46b,01/05/2001,2020-08-27_15h48.16.742,proactive3.2,2020.1.2,Win32,60,5f47c0b9b035471e11593a5c,5f47c66e60be640b5f110b18,2,,,,,,candle,,,,,,0,12,12,44,1,5,0,,,,,,,,,,,,,,,,,,,,,,,,,,,,,,,,,,,,,,,,,,,,,,,,,,,,,,,,,,,,,,,,,,,,,,,,,,,
,,,,,,,,,,stimuli/images/PICTURE_160.png,FEET,5d1a7d73a7f7ce0001dec46b,01/05/2001,2020-08-27_15h48.16.742,proactive3.2,2020.1.2,Win32,60,5f47c0b9b035471e11593a5c,5f47c66e60be640b5f110b18,2,,,,,,wheelbarrow,,,,,,0,13,13,58,1,6,0,,,,,,,,,,,,,,,,,,,,,,,,,,,,,,,,,,,,,,,,,,,,,,,,,,,,,,,,,,,,,,,,,,,,,,,,,,,
,,,,,,,,,,stimuli/images/PICTURE_160.png,LEADER,5d1a7d73a7f7ce0001dec46b,01/05/2001,2020-08-27_15h48.16.742,proactive3.2,2020.1.2,Win32,60,5f47c0b9b035471e11593a5c,5f47c66e60be640b5f110b18,2,,,,,,wheelbarrow,,,,,,0,14,14,3,1,1,0,,,,,,,,,,,,,,,,,,,,,,,,,,,,,,,,,,,,,,,,,,,,,,,,,,,,,,,,,,,,,,,,,,,,,,,,,,,
,,,,,,,,,,stimuli/images/PICTURE_248.png,DOZEN,5d1a7d73a7f7ce0001dec46b,01/05/2001,2020-08-27_15h48.16.742,proactive3.2,2020.1.2,Win32,60,5f47c0b9b035471e11593a5c,5f47c66e60be640b5f110b18,2,,,,,,cart,,,,,,0,15,15,39,1,4,0,,,,,,,,,,,,,,,,,,,,,,,,,,,,,,,,,,,,,,,,,,,,,,,,,,,,,,,,,,,,,,,,,,,,,,,,,,,
,,,,,,,,,,stimuli/images/PICTURE_32.png,JUNGLE,5d1a7d73a7f7ce0001dec46b,01/05/2001,2020-08-27_15h48.16.742,proactive3.2,2020.1.2,Win32,60,5f47c0b9b035471e11593a5c,5f47c66e60be640b5f110b18,2,,,,,,crown,,,,,,0,16,16,45,1,5,0,,,,,,,,,,,,,,,,,,,,,,,,,,,,,,,,,,,,,,,,,,,,,,,,,,,,,,,,,,,,,,,,,,,,,,,,,,,
,,,,,,,,,,stimuli/images/PICTURE_677.png,MILE,5d1a7d73a7f7ce0001dec46b,01/05/2001,2020-08-27_15h48.16.742,proactive3.2,2020.1.2,Win32,60,5f47c0b9b035471e11593a5c,5f47c66e60be640b5f110b18,2,,,,,,map,,,,,,0,17,17,30,1,4,0,,,,,,,,,,,,,,,,,,,,,,,,,,,,,,,,,,,,,,,,,,,,,,,,,,,,,,,,,,,,,,,,,,,,,,,,,,,
,,,,,,,,,,stimuli/images/PICTURE_453.png,DUDE,5d1a7d73a7f7ce0001dec46b,01/05/2001,2020-08-27_15h48.16.742,proactive3.2,2020.1.2,Win32,60,5f47c0b9b035471e11593a5c,5f47c66e60be640b5f110b18,2,,,,,,scissors,,,,,,0,18,18,27,1,3,0,,,,,,,,,,,,,,,,,,,,,,,,,,,,,,,,,,,,,,,,,,,,,,,,,,,,,,,,,,,,,,,,,,,,,,,,,,,
,,,,,,,,,,stimuli/images/PICTURE_302.png,FAMILY,5d1a7d73a7f7ce0001dec46b,01/05/2001,2020-08-27_15h48.16.742,proactive3.2,2020.1.2,Win32,60,5f47c0b9b035471e11593a5c,5f47c66e60be640b5f110b18,2,,,,,,taxi,,,,,,0,19,19,18,1,2,0,,,,,,,,,,,,,,,,,,,,,,,,,,,,,,,,,,,,,,,,,,,,,,,,,,,,,,,,,,,,,,,,,,,,,,,,,,,
,,,,,,,,,,stimuli/images/PICTURE_339.png,PLENTY,5d1a7d73a7f7ce0001dec46b,01/05/2001,2020-08-27_15h48.16.742,proactive3.2,2020.1.2,Win32,60,5f47c0b9b035471e11593a5c,5f47c66e60be640b5f110b18,2,,,,,,backpack,,,,,,0,20,20,0,1,1,0,,,,,,,,,,,,,,,,,,,,,,,,,,,,,,,,,,,,,,,,,,,,,,,,,,,,,,,,,,,,,,,,,,,,,,,,,,,
,,,,,,,,,,stimuli/images/PICTURE_744.png,SAKE,5d1a7d73a7f7ce0001dec46b,01/05/2001,2020-08-27_15h48.16.742,proactive3.2,2020.1.2,Win32,60,5f47c0b9b035471e11593a5c,5f47c66e60be640b5f110b18,2,,,,,,ring,,,,,,0,21,21,17,1,2,0,,,,,,,,,,,,,,,,,,,,,,,,,,,,,,,,,,,,,,,,,,,,,,,,,,,,,,,,,,,,,,,,,,,,,,,,,,,
,,,,,,,,,,stimuli/images/PICTURE_314.png,GODS,5d1a7d73a7f7ce0001dec46b,01/05/2001,2020-08-27_15h48.16.742,proactive3.2,2020.1.2,Win32,60,5f47c0b9b035471e11593a5c,5f47c66e60be640b5f110b18,2,,,,,,perfume,,,,,,0,22,22,11,1,2,0,,,,,,,,,,,,,,,,,,,,,,,,,,,,,,,,,,,,,,,,,,,,,,,,,,,,,,,,,,,,,,,,,,,,,,,,,,,
,,,,,,,,,,stimuli/images/PICTURE_453.png,PLENTY,5d1a7d73a7f7ce0001dec46b,01/05/2001,2020-08-27_15h48.16.742,proactive3.2,2020.1.2,Win32,60,5f47c0b9b035471e11593a5c,5f47c66e60be640b5f110b18,2,,,,,,scissors,,,,,,0,23,23,56,1,6,0,,,,,,,,,,,,,,,,,,,,,,,,,,,,,,,,,,,,,,,,,,,,,,,,,,,,,,,,,,,,,,,,,,,,,,,,,,,
,,,,,,,,,,stimuli/images/PICTURE_667.png,PLENTY,5d1a7d73a7f7ce0001dec46b,01/05/2001,2020-08-27_15h48.16.742,proactive3.2,2020.1.2,Win32,60,5f47c0b9b035471e11593a5c,5f47c66e60be640b5f110b18,2,,,,,,daisy,,,,,,0,24,24,41,1,5,0,,,,,,,,,,,,,,,,,,,,,,,,,,,,,,,,,,,,,,,,,,,,,,,,,,,,,,,,,,,,,,,,,,,,,,,,,,,
,,,,,,,,,,stimuli/images/PICTURE_491.png,WRITER,5d1a7d73a7f7ce0001dec46b,01/05/2001,2020-08-27_15h48.16.742,proactive3.2,2020.1.2,Win32,60,5f47c0b9b035471e11593a5c,5f47c66e60be640b5f110b18,2,,,,,,rug,,,,,,0,25,25,57,1,6,0,,,,,,,,,,,,,,,,,,,,,,,,,,,,,,,,,,,,,,,,,,,,,,,,,,,,,,,,,,,,,,,,,,,,,,,,,,,
,,,,,,,,,,stimuli/images/PICTURE_308.png,ESTATE,5d1a7d73a7f7ce0001dec46b,01/05/2001,2020-08-27_15h48.16.742,proactive3.2,2020.1.2,Win32,60,5f47c0b9b035471e11593a5c,5f47c66e60be640b5f110b18,2,,,,,,dice,,,,,,0,26,26,46,1,5,0,,,,,,,,,,,,,,,,,,,,,,,,,,,,,,,,,,,,,,,,,,,,,,,,,,,,,,,,,,,,,,,,,,,,,,,,,,,
,,,,,,,,,,stimuli/images/PICTURE_692.png,MONTH,5d1a7d73a7f7ce0001dec46b,01/05/2001,2020-08-27_15h48.16.742,proactive3.2,2020.1.2,Win32,60,5f47c0b9b035471e11593a5c,5f47c66e60be640b5f110b18,2,,,,,,cherry,,,,,,0,27,27,16,1,2,0,,,,,,,,,,,,,,,,,,,,,,,,,,,,,,,,,,,,,,,,,,,,,,,,,,,,,,,,,,,,,,,,,,,,,,,,,,,
,,,,,,,,,,stimuli/images/PICTURE_744.png,SYSTEM,5d1a7d73a7f7ce0001dec46b,01/05/2001,2020-08-27_15h48.16.742,proactive3.2,2020.1.2,Win32,60,5f47c0b9b035471e11593a5c,5f47c66e60be640b5f110b18,2,,,,,,ring,,,,,,0,28,28,43,1,5,0,,,,,,,,,,,,,,,,,,,,,,,,,,,,,,,,,,,,,,,,,,,,,,,,,,,,,,,,,,,,,,,,,,,,,,,,,,,
,,,,,,,,,,stimuli/images/PICTURE_491.png,ROOF,5d1a7d73a7f7ce0001dec46b,01/05/2001,2020-08-27_15h48.16.742,proactive3.2,2020.1.2,Win32,60,5f47c0b9b035471e11593a5c,5f47c66e60be640b5f110b18,2,,,,,,rug,,,,,,0,29,29,24,1,3,0,,,,,,,,,,,,,,,,,,,,,,,,,,,,,,,,,,,,,,,,,,,,,,,,,,,,,,,,,,,,,,,,,,,,,,,,,,,
,,,,,,,,,,stimuli/images/PICTURE_255.png,AREA,5d1a7d73a7f7ce0001dec46b,01/05/2001,2020-08-27_15h48.16.742,proactive3.2,2020.1.2,Win32,60,5f47c0b9b035471e11593a5c,5f47c66e60be640b5f110b18,2,,,,,,shovel,,,,,,0,30,30,22,1,3,0,,,,,,,,,,,,,,,,,,,,,,,,,,,,,,,,,,,,,,,,,,,,,,,,,,,,,,,,,,,,,,,,,,,,,,,,,,,
,,,,,,,,,,stimuli/images/PICTURE_487.png,FLIGHT,5d1a7d73a7f7ce0001dec46b,01/05/2001,2020-08-27_15h48.16.742,proactive3.2,2020.1.2,Win32,60,5f47c0b9b035471e11593a5c,5f47c66e60be640b5f110b18,2,,,,,,basket,,,,,,0,31,31,9,1,1,0,,,,,,,,,,,,,,,,,,,,,,,,,,,,,,,,,,,,,,,,,,,,,,,,,,,,,,,,,,,,,,,,,,,,,,,,,,,
,,,,,,,,,,stimuli/images/PICTURE_348.png,SPEECH,5d1a7d73a7f7ce0001dec46b,01/05/2001,2020-08-27_15h48.16.742,proactive3.2,2020.1.2,Win32,60,5f47c0b9b035471e11593a5c,5f47c66e60be640b5f110b18,2,,,,,,pepper,,,,,,0,32,32,20,1,3,0,,,,,,,,,,,,,,,,,,,,,,,,,,,,,,,,,,,,,,,,,,,,,,,,,,,,,,,,,,,,,,,,,,,,,,,,,,,
,,,,,,,,,,stimuli/images/PICTURE_380.png,PHOTO,5d1a7d73a7f7ce0001dec46b,01/05/2001,2020-08-27_15h48.16.742,proactive3.2,2020.1.2,Win32,60,5f47c0b9b035471e11593a5c,5f47c66e60be640b5f110b18,2,,,,,,gorilla,,,,,,0,33,33,52,1,6,0,,,,,,,,,,,,,,,,,,,,,,,,,,,,,,,,,,,,,,,,,,,,,,,,,,,,,,,,,,,,,,,,,,,,,,,,,,,
,,,,,,,,,,stimuli/images/PICTURE_123.png,ADVICE,5d1a7d73a7f7ce0001dec46b,01/05/2001,2020-08-27_15h48.16.742,proactive3.2,2020.1.2,Win32,60,5f47c0b9b035471e11593a5c,5f47c66e60be640b5f110b18,2,,,,,,dart,,,,,,0,34,34,40,1,5,0,,,,,,,,,,,,,,,,,,,,,,,,,,,,,,,,,,,,,,,,,,,,,,,,,,,,,,,,,,,,,,,,,,,,,,,,,,,
,,,,,,,,,,stimuli/images/PICTURE_208.png,MONTH,5d1a7d73a7f7ce0001dec46b,01/05/2001,2020-08-27_15h48.16.742,proactive3.2,2020.1.2,Win32,60,5f47c0b9b035471e11593a5c,5f47c66e60be640b5f110b18,2,,,,,,microphone,,,,,,0,35,35,53,1,6,0,,,,,,,,,,,,,,,,,,,,,,,,,,,,,,,,,,,,,,,,,,,,,,,,,,,,,,,,,,,,,,,,,,,,,,,,,,,
,,,,,,,,,,stimuli/images/PICTURE_708.png,PENNY,5d1a7d73a7f7ce0001dec46b,01/05/2001,2020-08-27_15h48.16.742,proactive3.2,2020.1.2,Win32,60,5f47c0b9b035471e11593a5c,5f47c66e60be640b5f110b18,2,,,,,,monkey,,,,,,0,36,36,31,1,4,0,,,,,,,,,,,,,,,,,,,,,,,,,,,,,,,,,,,,,,,,,,,,,,,,,,,,,,,,,,,,,,,,,,,,,,,,,,,
,,,,,,,,,,stimuli/images/PICTURE_147.png,MOMENT,5d1a7d73a7f7ce0001dec46b,01/05/2001,2020-08-27_15h48.16.742,proactive3.2,2020.1.2,Win32,60,5f47c0b9b035471e11593a5c,5f47c66e60be640b5f110b18,2,,,,,,hanger,,,,,,0,37,37,51,1,6,0,,,,,,,,,,,,,,,,,,,,,,,,,,,,,,,,,,,,,,,,,,,,,,,,,,,,,,,,,,,,,,,,,,,,,,,,,,,
,,,,,,,,,,stimuli/images/PICTURE_467.png,DEMON,5d1a7d73a7f7ce0001dec46b,01/05/2001,2020-08-27_15h48.16.742,proactive3.2,2020.1.2,Win32,60,5f47c0b9b035471e11593a5c,5f47c66e60be640b5f110b18,2,,,,,,peg,,,,,,0,38,38,23,1,3,0,,,,,,,,,,,,,,,,,,,,,,,,,,,,,,,,,,,,,,,,,,,,,,,,,,,,,,,,,,,,,,,,,,,,,,,,,,,
,,,,,,,,,,stimuli/images/PICTURE_233.png,WOMEN,5d1a7d73a7f7ce0001dec46b,01/05/2001,2020-08-27_15h48.16.742,proactive3.2,2020.1.2,Win32,60,5f47c0b9b035471e11593a5c,5f47c66e60be640b5f110b18,2,,,,,,salt,,,,,,0,39,39,38,1,4,0,,,,,,,,,,,,,,,,,,,,,,,,,,,,,,,,,,,,,,,,,,,,,,,,,,,,,,,,,,,,,,,,,,,,,,,,,,,
,,,,,,,,,,stimuli/images/PICTURE_667.png,BATH,5d1a7d73a7f7ce0001dec46b,01/05/2001,2020-08-27_15h48.16.742,proactive3.2,2020.1.2,Win32,60,5f47c0b9b035471e11593a5c,5f47c66e60be640b5f110b18,2,,,,,,daisy,,,,,,0,40,40,4,1,1,0,,,,,,,,,,,,,,,,,,,,,,,,,,,,,,,,,,,,,,,,,,,,,,,,,,,,,,,,,,,,,,,,,,,,,,,,,,,
,,,,,,,,,,stimuli/images/PICTURE_708.png,CLIENT,5d1a7d73a7f7ce0001dec46b,01/05/2001,2020-08-27_15h48.16.742,proactive3.2,2020.1.2,Win32,60,5f47c0b9b035471e11593a5c,5f47c66e60be640b5f110b18,2,,,,,,monkey,,,,,,0,41,41,5,1,1,0,,,,,,,,,,,,,,,,,,,,,,,,,,,,,,,,,,,,,,,,,,,,,,,,,,,,,,,,,,,,,,,,,,,,,,,,,,,
,,,,,,,,,,stimuli/images/PICTURE_314.png,SAKE,5d1a7d73a7f7ce0001dec46b,01/05/2001,2020-08-27_15h48.16.742,proactive3.2,2020.1.2,Win32,60,5f47c0b9b035471e11593a5c,5f47c66e60be640b5f110b18,2,,,,,,perfume,,,,,,0,42,42,7,1,1,0,,,,,,,,,,,,,,,,,,,,,,,,,,,,,,,,,,,,,,,,,,,,,,,,,,,,,,,,,,,,,,,,,,,,,,,,,,,
,,,,,,,,,,stimuli/images/PICTURE_356.png,DANGER,5d1a7d73a7f7ce0001dec46b,01/05/2001,2020-08-27_15h48.16.742,proactive3.2,2020.1.2,Win32,60,5f47c0b9b035471e11593a5c,5f47c66e60be640b5f110b18,2,,,,,,pawn,,,,,,0,43,43,55,1,6,0,,,,,,,,,,,,,,,,,,,,,,,,,,,,,,,,,,,,,,,,,,,,,,,,,,,,,,,,,,,,,,,,,,,,,,,,,,,
,,,,,,,,,,stimuli/images/PICTURE_123.png,ADVICE,5d1a7d73a7f7ce0001dec46b,01/05/2001,2020-08-27_15h48.16.742,proactive3.2,2020.1.2,Win32,60,5f47c0b9b035471e11593a5c,5f47c66e60be640b5f110b18,2,,,,,,dart,,,,,,0,44,44,50,1,6,0,,,,,,,,,,,,,,,,,,,,,,,,,,,,,,,,,,,,,,,,,,,,,,,,,,,,,,,,,,,,,,,,,,,,,,,,,,,
,,,,,,,,,,stimuli/images/PICTURE_85.png,THING,5d1a7d73a7f7ce0001dec46b,01/05/2001,2020-08-27_15h48.16.742,proactive3.2,2020.1.2,Win32,60,5f47c0b9b035471e11593a5c,5f47c66e60be640b5f110b18,2,,,,,,diamond,,,,,,0,45,45,15,1,2,0,,,,,,,,,,,,,,,,,,,,,,,,,,,,,,,,,,,,,,,,,,,,,,,,,,,,,,,,,,,,,,,,,,,,,,,,,,,
,,,,,,,,,,stimuli/images/PICTURE_380.png,DEATH,5d1a7d73a7f7ce0001dec46b,01/05/2001,2020-08-27_15h48.16.742,proactive3.2,2020.1.2,Win32,60,5f47c0b9b035471e11593a5c,5f47c66e60be640b5f110b18,2,,,,,,gorilla,,,,,,0,46,46,49,1,5,0,,,,,,,,,,,,,,,,,,,,,,,,,,,,,,,,,,,,,,,,,,,,,,,,,,,,,,,,,,,,,,,,,,,,,,,,,,,
,,,,,,,,,,stimuli/images/PICTURE_208.png,THING,5d1a7d73a7f7ce0001dec46b,01/05/2001,2020-08-27_15h48.16.742,proactive3.2,2020.1.2,Win32,60,5f47c0b9b035471e11593a5c,5f47c66e60be640b5f110b18,2,,,,,,microphone,,,,,,0,47,47,47,1,5,0,,,,,,,,,,,,,,,,,,,,,,,,,,,,,,,,,,,,,,,,,,,,,,,,,,,,,,,,,,,,,,,,,,,,,,,,,,,
,,,,,,,,,,stimuli/images/PICTURE_203.png,ARTIST,5d1a7d73a7f7ce0001dec46b,01/05/2001,2020-08-27_15h48.16.742,proactive3.2,2020.1.2,Win32,60,5f47c0b9b035471e11593a5c,5f47c66e60be640b5f110b18,2,,,,,,cap,,,,,,0,48,48,26,1,3,0,,,,,,,,,,,,,,,,,,,,,,,,,,,,,,,,,,,,,,,,,,,,,,,,,,,,,,,,,,,,,,,,,,,,,,,,,,,
,,,,,,,,,,stimuli/images/PICTURE_469.png,ARTIST,5d1a7d73a7f7ce0001dec46b,01/05/2001,2020-08-27_15h48.16.742,proactive3.2,2020.1.2,Win32,60,5f47c0b9b035471e11593a5c,5f47c66e60be640b5f110b18,2,,,,,,stool,,,,,,0,49,49,6,1,1,0,,,,,,,,,,,,,,,,,,,,,,,,,,,,,,,,,,,,,,,,,,,,,,,,,,,,,,,,,,,,,,,,,,,,,,,,,,,
,,,,,,,,,,stimuli/images/PICTURE_311.png,BEAUTY,5d1a7d73a7f7ce0001dec46b,01/05/2001,2020-08-27_15h48.16.742,proactive3.2,2020.1.2,Win32,60,5f47c0b9b035471e11593a5c,5f47c66e60be640b5f110b18,2,,,,,,razor,,,,,,0,50,50,13,1,2,0,,,,,,,,,,,,,,,,,,,,,,,,,,,,,,,,,,,,,,,,,,,,,,,,,,,,,,,,,,,,,,,,,,,,,,,,,,,
,,,,,,,,,,stimuli/images/PICTURE_675.png,WEAPON,5d1a7d73a7f7ce0001dec46b,01/05/2001,2020-08-27_15h48.16.742,proactive3.2,2020.1.2,Win32,60,5f47c0b9b035471e11593a5c,5f47c66e60be640b5f110b18,2,,,,,,windmill,,,,,,0,51,51,32,1,4,0,,,,,,,,,,,,,,,,,,,,,,,,,,,,,,,,,,,,,,,,,,,,,,,,,,,,,,,,,,,,,,,,,,,,,,,,,,,
,,,,,,,,,,stimuli/images/PICTURE_285.png,ADVICE,5d1a7d73a7f7ce0001dec46b,01/05/2001,2020-08-27_15h48.16.742,proactive3.2,2020.1.2,Win32,60,5f47c0b9b035471e11593a5c,5f47c66e60be640b5f110b18,2,,,,,,carrot,,,,,,0,52,52,12,1,2,0,,,,,,,,,,,,,,,,,,,,,,,,,,,,,,,,,,,,,,,,,,,,,,,,,,,,,,,,,,,,,,,,,,,,,,,,,,,
,,,,,,,,,,stimuli/images/PICTURE_488.png,STYLE,5d1a7d73a7f7ce0001dec46b,01/05/2001,2020-08-27_15h48.16.742,proactive3.2,2020.1.2,Win32,60,5f47c0b9b035471e11593a5c,5f47c66e60be640b5f110b18,2,,,,,,sun,,,,,,0,53,53,33,1,4,0,,,,,,,,,,,,,,,,,,,,,,,,,,,,,,,,,,,,,,,,,,,,,,,,,,,,,,,,,,,,,,,,,,,,,,,,,,,
,,,,,,,,,,stimuli/images/PICTURE_311.png,FRIEND,5d1a7d73a7f7ce0001dec46b,01/05/2001,2020-08-27_15h48.16.742,proactive3.2,2020.1.2,Win32,60,5f47c0b9b035471e11593a5c,5f47c66e60be640b5f110b18,2,,,,,,razor,,,,,,0,54,54,34,1,4,0,,,,,,,,,,,,,,,,,,,,,,,,,,,,,,,,,,,,,,,,,,,,,,,,,,,,,,,,,,,,,,,,,,,,,,,,,,,
,,,,,,,,,,stimuli/images/PICTURE_688.png,CASINO,5d1a7d73a7f7ce0001dec46b,01/05/2001,2020-08-27_15h48.16.742,proactive3.2,2020.1.2,Win32,60,5f47c0b9b035471e11593a5c,5f47c66e60be640b5f110b18,2,,,,,,runner,,,,,,0,55,55,2,1,1,0,,,,,,,,,,,,,,,,,,,,,,,,,,,,,,,,,,,,,,,,,,,,,,,,,,,,,,,,,,,,,,,,,,,,,,,,,,,
,,,,,,,,,,stimuli/images/PICTURE_308.png,KIND,5d1a7d73a7f7ce0001dec46b,01/05/2001,2020-08-27_15h48.16.742,proactive3.2,2020.1.2,Win32,60,5f47c0b9b035471e11593a5c,5f47c66e60be640b5f110b18,2,,,,,,dice,,,,,,0,56,56,54,1,6,0,,,,,,,,,,,,,,,,,,,,,,,,,,,,,,,,,,,,,,,,,,,,,,,,,,,,,,,,,,,,,,,,,,,,,,,,,,,
,,,,,,,,,,stimuli/images/PICTURE_509.png,PHOTO,5d1a7d73a7f7ce0001dec46b,01/05/2001,2020-08-27_15h48.16.742,proactive3.2,2020.1.2,Win32,60,5f47c0b9b035471e11593a5c,5f47c66e60be640b5f110b18,2,,,,,,telephone,,,,,,0,57,57,21,1,3,0,,,,,,,,,,,,,,,,,,,,,,,,,,,,,,,,,,,,,,,,,,,,,,,,,,,,,,,,,,,,,,,,,,,,,,,,,,,
,,,,,,,,,,stimuli/images/PICTURE_470.png,CASINO,5d1a7d73a7f7ce0001dec46b,01/05/2001,2020-08-27_15h48.16.742,proactive3.2,2020.1.2,Win32,60,5f47c0b9b035471e11593a5c,5f47c66e60be640b5f110b18,2,,,,,,motorbike,,,,,,0,58,58,36,1,4,0,,,,,,,,,,,,,,,,,,,,,,,,,,,,,,,,,,,,,,,,,,,,,,,,,,,,,,,,,,,,,,,,,,,,,,,,,,,
,,?,0.0026,0,,,,,,stimuli/images/PICTURE_509.png,PHOTO,5d1a7d73a7f7ce0001dec46b,01/05/2001,2020-08-27_15h48.16.742,proactive3.2,2020.1.2,Win32,60,5f47c0b9b035471e11593a5c,5f47c66e60be640b5f110b18,2,,,,,,telephone,,,,,,,,,,,3,0,0,0,0,21,1,,,,,,,,,,,,,,,,,,,,,,,,,,,,,,,,,,,,,,,,,,,,,,,,,,,,,,,,,,,,,,,,,,,,,,
,,?,0.00228,0,,,,,,stimuli/images/PICTURE_203.png,ARTIST,5d1a7d73a7f7ce0001dec46b,01/05/2001,2020-08-27_15h48.16.742,proactive3.2,2020.1.2,Win32,60,5f47c0b9b035471e11593a5c,5f47c66e60be640b5f110b18,2,,,,,,cap,,,,,,,,,,,3,0,0,1,1,26,1,,,,,,,,,,,,,,,,,,,,,,,,,,,,,,,,,,,,,,,,,,,,,,,,,,,,,,,,,,,,,,,,,,,,,,
,,?,0.00223,0,,,,,,stimuli/images/PICTURE_208.png,THING,5d1a7d73a7f7ce0001dec46b,01/05/2001,2020-08-27_15h48.16.742,proactive3.2,2020.1.2,Win32,60,5f47c0b9b035471e11593a5c,5f47c66e60be640b5f110b18,2,,,,,,microphone,,,,,,,,,,,5,0,0,2,2,47,1,,,,,,,,,,,,,,,,,,,,,,,,,,,,,,,,,,,,,,,,,,,,,,,,,,,,,,,,,,,,,,,,,,,,,,
,,?,0.00268,0,,,,,,stimuli/images/PICTURE_654.png,VALLEY,5d1a7d73a7f7ce0001dec46b,01/05/2001,2020-08-27_15h48.16.742,proactive3.2,2020.1.2,Win32,60,5f47c0b9b035471e11593a5c,5f47c66e60be640b5f110b18,2,,,,,,pencil,,,,,,,,,,,1,0,0,3,3,1,1,,,,,,,,,,,,,,,,,,,,,,,,,,,,,,,,,,,,,,,,,,,,,,,,,,,,,,,,,,,,,,,,,,,,,,
,,?,0.00176,0,,,,,,stimuli/images/PICTURE_160.png,LEADER,5d1a7d73a7f7ce0001dec46b,01/05/2001,2020-08-27_15h48.16.742,proactive3.2,2020.1.2,Win32,60,5f47c0b9b035471e11593a5c,5f47c66e60be640b5f110b18,2,,,,,,wheelbarrow,,,,,,,,,,,1,0,0,4,4,3,1,,,,,,,,,,,,,,,,,,,,,,,,,,,,,,,,,,,,,,,,,,,,,,,,,,,,,,,,,,,,,,,,,,,,,,
,,?,0.002,0,,,,,,stimuli/images/PICTURE_688.png,CASINO,5d1a7d73a7f7ce0001dec46b,01/05/2001,2020-08-27_15h48.16.742,proactive3.2,2020.1.2,Win32,60,5f47c0b9b035471e11593a5c,5f47c66e60be640b5f110b18,2,,,,,,runner,,,,,,,,,,,1,0,0,5,5,2,1,,,,,,,,,,,,,,,,,,,,,,,,,,,,,,,,,,,,,,,,,,,,,,,,,,,,,,,,,,,,,,,,,,,,,,
,,?,0.0019,0,,,,,,stimuli/images/PICTURE_677.png,MILE,5d1a7d73a7f7ce0001dec46b,01/05/2001,2020-08-27_15h48.16.742,proactive3.2,2020.1.2,Win32,60,5f47c0b9b035471e11593a5c,5f47c66e60be640b5f110b18,2,,,,,,map,,,,,,,,,,,4,0,0,6,6,30,1,,,,,,,,,,,,,,,,,,,,,,,,,,,,,,,,,,,,,,,,,,,,,,,,,,,,,,,,,,,,,,,,,,,,,,
,,GODS,2.615625,1,,,,,,stimuli/images/PICTURE_314.png,GODS,5d1a7d73a7f7ce0001dec46b,01/05/2001,2020-08-27_15h48.16.742,proactive3.2,2020.1.2,Win32,60,5f47c0b9b035471e11593a5c,5f47c66e60be640b5f110b18,2,,,,,,perfume,,,,,,,,,,,2,0,0,7,7,11,1,,,,,,,,,,,,,,,,,,,,,,,,,,,,,,,,,,,,,,,,,,,,,,,,,,,,,,,,,,,,,,,,,,,,,,
,,?,0.00261,0,,,,,,stimuli/images/PICTURE_469.png,LETTER,5d1a7d73a7f7ce0001dec46b,01/05/2001,2020-08-27_15h48.16.742,proactive3.2,2020.1.2,Win32,60,5f47c0b9b035471e11593a5c,5f47c66e60be640b5f110b18,2,,,,,,stool,,,,,,,,,,,5,0,0,8,8,42,1,,,,,,,,,,,,,,,,,,,,,,,,,,,,,,,,,,,,,,,,,,,,,,,,,,,,,,,,,,,,,,,,,,,,,,
,,THINGS,2.075185,0,,,,,,stimuli/images/PICTURE_85.png,THING,5d1a7d73a7f7ce0001dec46b,01/05/2001,2020-08-27_15h48.16.742,proactive3.2,2020.1.2,Win32,60,5f47c0b9b035471e11593a5c,5f47c66e60be640b5f110b18,2,,,,,,diamond,,,,,,,,,,,2,0,0,9,9,15,1,,,,,,,,,,,,,,,,,,,,,,,,,,,,,,,,,,,,,,,,,,,,,,,,,,,,,,,,,,,,,,,,,,,,,,
,,WOMAN,2.68023,0,,,,,,stimuli/images/PICTURE_688.png,WOMEN,5d1a7d73a7f7ce0001dec46b,01/05/2001,2020-08-27_15h48.16.742,proactive3.2,2020.1.2,Win32,60,5f47c0b9b035471e11593a5c,5f47c66e60be640b5f110b18,2,,,,,,runner,,,,,,,,,,,2,0,0,10,10,14,1,,,,,,,,,,,,,,,,,,,,,,,,,,,,,,,,,,,,,,,,,,,,,,,,,,,,,,,,,,,,,,,,,,,,,,
,,?,0.00347,0,,,,,,stimuli/images/PICTURE_744.png,SYSTEM,5d1a7d73a7f7ce0001dec46b,01/05/2001,2020-08-27_15h48.16.742,proactive3.2,2020.1.2,Win32,60,5f47c0b9b035471e11593a5c,5f47c66e60be640b5f110b18,2,,,,,,ring,,,,,,,,,,,5,0,0,11,11,43,1,,,,,,,,,,,,,,,,,,,,,,,,,,,,,,,,,,,,,,,,,,,,,,,,,,,,,,,,,,,,,,,,,,,,,,
,,?,0.003595,0,,,,,,stimuli/images/PICTURE_487.png,FLIGHT,5d1a7d73a7f7ce0001dec46b,01/05/2001,2020-08-27_15h48.16.742,proactive3.2,2020.1.2,Win32,60,5f47c0b9b035471e11593a5c,5f47c66e60be640b5f110b18,2,,,,,,basket,,,,,,,,,,,1,0,0,12,12,9,1,,,,,,,,,,,,,,,,,,,,,,,,,,,,,,,,,,,,,,,,,,,,,,,,,,,,,,,,,,,,,,,,,,,,,,
,,?,0.00243,0,,,,,,stimuli/images/PICTURE_348.png,SPEECH,5d1a7d73a7f7ce0001dec46b,01/05/2001,2020-08-27_15h48.16.742,proactive3.2,2020.1.2,Win32,60,5f47c0b9b035471e11593a5c,5f47c66e60be640b5f110b18,2,,,,,,pepper,,,,,,,,,,,3,0,0,13,13,20,1,,,,,,,,,,,,,,,,,,,,,,,,,,,,,,,,,,,,,,,,,,,,,,,,,,,,,,,,,,,,,,,,,,,,,,
,,?,0.002475,0,,,,,,stimuli/images/PICTURE_667.png,BATH,5d1a7d73a7f7ce0001dec46b,01/05/2001,2020-08-27_15h48.16.742,proactive3.2,2020.1.2,Win32,60,5f47c0b9b035471e11593a5c,5f47c66e60be640b5f110b18,2,,,,,,daisy,,,,,,,,,,,1,0,0,14,14,4,1,,,,,,,,,,,,,,,,,,,,,,,,,,,,,,,,,,,,,,,,,,,,,,,,,,,,,,,,,,,,,,,,,,,,,,
,,?,0.002445,0,,,,,,stimuli/images/PICTURE_311.png,FRIEND,5d1a7d73a7f7ce0001dec46b,01/05/2001,2020-08-27_15h48.16.742,proactive3.2,2020.1.2,Win32,60,5f47c0b9b035471e11593a5c,5f47c66e60be640b5f110b18,2,,,,,,razor,,,,,,,,,,,4,0,0,15,15,34,1,,,,,,,,,,,,,,,,,,,,,,,,,,,,,,,,,,,,,,,,,,,,,,,,,,,,,,,,,,,,,,,,,,,,,,
,,?,0.00251,0,,,,,,stimuli/images/PICTURE_314.png,SAKE,5d1a7d73a7f7ce0001dec46b,01/05/2001,2020-08-27_15h48.16.742,proactive3.2,2020.1.2,Win32,60,5f47c0b9b035471e11593a5c,5f47c66e60be640b5f110b18,2,,,,,,perfume,,,,,,,,,,,1,0,0,16,16,7,1,,,,,,,,,,,,,,,,,,,,,,,,,,,,,,,,,,,,,,,,,,,,,,,,,,,,,,,,,,,,,,,,,,,,,,
,,?,0.002905,0,,,,,,stimuli/images/PICTURE_675.png,WEAPON,5d1a7d73a7f7ce0001dec46b,01/05/2001,2020-08-27_15h48.16.742,proactive3.2,2020.1.2,Win32,60,5f47c0b9b035471e11593a5c,5f47c66e60be640b5f110b18,2,,,,,,windmill,,,,,,,,,,,4,0,0,17,17,32,1,,,,,,,,,,,,,,,,,,,,,,,,,,,,,,,,,,,,,,,,,,,,,,,,,,,,,,,,,,,,,,,,,,,,,,
,,?,0.001805,0,,,,,,stimuli/images/PICTURE_449.png,THING,5d1a7d73a7f7ce0001dec46b,01/05/2001,2020-08-27_15h48.16.742,proactive3.2,2020.1.2,Win32,60,5f47c0b9b035471e11593a5c,5f47c66e60be640b5f110b18,2,,,,,,bench,,,,,,,,,,,6,0,0,18,18,59,1,,,,,,,,,,,,,,,,,,,,,,,,,,,,,,,,,,,,,,,,,,,,,,,,,,,,,,,,,,,,,,,,,,,,,,
,,?,0.00175,0,,,,,,stimuli/images/PICTURE_233.png,IDEAS,5d1a7d73a7f7ce0001dec46b,01/05/2001,2020-08-27_15h48.16.742,proactive3.2,2020.1.2,Win32,60,5f47c0b9b035471e11593a5c,5f47c66e60be640b5f110b18,2,,,,,,salt,,,,,,,,,,,3,0,0,19,19,28,1,,,,,,,,,,,,,,,,,,,,,,,,,,,,,,,,,,,,,,,,,,,,,,,,,,,,,,,,,,,,,,,,,,,,,,
,,?,0.0018,0,,,,,,stimuli/images/PICTURE_32.png,JUNGLE,5d1a7d73a7f7ce0001dec46b,01/05/2001,2020-08-27_15h48.16.742,proactive3.2,2020.1.2,Win32,60,5f47c0b9b035471e11593a5c,5f47c66e60be640b5f110b18,2,,,,,,crown,,,,,,,,,,,5,0,0,20,20,45,1,,,,,,,,,,,,,,,,,,,,,,,,,,,,,,,,,,,,,,,,,,,,,,,,,,,,,,,,,,,,,,,,,,,,,,
,,?,0.002745,0,,,,,,stimuli/images/PICTURE_491.png,WRITER,5d1a7d73a7f7ce0001dec46b,01/05/2001,2020-08-27_15h48.16.742,proactive3.2,2020.1.2,Win32,60,5f47c0b9b035471e11593a5c,5f47c66e60be640b5f110b18,2,,,,,,rug,,,,,,,,,,,6,0,0,21,21,57,1,,,,,,,,,,,,,,,,,,,,,,,,,,,,,,,,,,,,,,,,,,,,,,,,,,,,,,,,,,,,,,,,,,,,,,
,,?,0.00223,0,,,,,,stimuli/images/PICTURE_708.png,CLIENT,5d1a7d73a7f7ce0001dec46b,01/05/2001,2020-08-27_15h48.16.742,proactive3.2,2020.1.2,Win32,60,5f47c0b9b035471e11593a5c,5f47c66e60be640b5f110b18,2,,,,,,monkey,,,,,,,,,,,1,0,0,22,22,5,1,,,,,,,,,,,,,,,,,,,,,,,,,,,,,,,,,,,,,,,,,,,,,,,,,,,,,,,,,,,,,,,,,,,,,,
,,?,0.00203,0,,,,,,stimuli/images/PICTURE_123.png,ADVICE,5d1a7d73a7f7ce0001dec46b,01/05/2001,2020-08-27_15h48.16.742,proactive3.2,2020.1.2,Win32,60,5f47c0b9b035471e11593a5c,5f47c66e60be640b5f110b18,2,,,,,,dart,,,,,,,,,,,5,0,0,23,23,40,1,,,,,,,,,,,,,,,,,,,,,,,,,,,,,,,,,,,,,,,,,,,,,,,,,,,,,,,,,,,,,,,,,,,,,,
,,?,0.002025,0,,,,,,stimuli/images/PICTURE_708.png,YARD,5d1a7d73a7f7ce0001dec46b,01/05/2001,2020-08-27_15h48.16.742,proactive3.2,2020.1.2,Win32,60,5f47c0b9b035471e11593a5c,5f47c66e60be640b5f110b18,2,,,,,,monkey,,,,,,,,,,,3,0,0,24,24,29,1,,,,,,,,,,,,,,,,,,,,,,,,,,,,,,,,,,,,,,,,,,,,,,,,,,,,,,,,,,,,,,,,,,,,,,
,,?,0.00191,0,,,,,,stimuli/images/PICTURE_177.png,CARS,5d1a7d73a7f7ce0001dec46b,01/05/2001,2020-08-27_15h48.16.742,proactive3.2,2020.1.2,Win32,60,5f47c0b9b035471e11593a5c,5f47c66e60be640b5f110b18,2,,,,,,mushroom,,,,,,,,,,,4,0,0,25,25,35,1,,,,,,,,,,,,,,,,,,,,,,,,,,,,,,,,,,,,,,,,,,,,,,,,,,,,,,,,,,,,,,,,,,,,,,
,,FAMILY,6.884385,1,,,,,,stimuli/images/PICTURE_302.png,FAMILY,5d1a7d73a7f7ce0001dec46b,01/05/2001,2020-08-27_15h48.16.742,proactive3.2,2020.1.2,Win32,60,5f47c0b9b035471e11593a5c,5f47c66e60be640b5f110b18,2,,,,,,taxi,,,,,,,,,,,2,0,0,26,26,18,1,,,,,,,,,,,,,,,,,,,,,,,,,,,,,,,,,,,,,,,,,,,,,,,,,,,,,,,,,,,,,,,,,,,,,,
,,?,0.00336,0,,,,,,stimuli/images/PICTURE_356.png,DANGER,5d1a7d73a7f7ce0001dec46b,01/05/2001,2020-08-27_15h48.16.742,proactive3.2,2020.1.2,Win32,60,5f47c0b9b035471e11593a5c,5f47c66e60be640b5f110b18,2,,,,,,pawn,,,,,,,,,,,6,0,0,27,27,55,1,,,,,,,,,,,,,,,,,,,,,,,,,,,,,,,,,,,,,,,,,,,,,,,,,,,,,,,,,,,,,,,,,,,,,,
,,ADVICE,2.589855,1,,,,,,stimuli/images/PICTURE_285.png,ADVICE,5d1a7d73a7f7ce0001dec46b,01/05/2001,2020-08-27_15h48.16.742,proactive3.2,2020.1.2,Win32,60,5f47c0b9b035471e11593a5c,5f47c66e60be640b5f110b18,2,,,,,,carrot,,,,,,,,,,,2,0,0,28,28,12,1,,,,,,,,,,,,,,,,,,,,,,,,,,,,,,,,,,,,,,,,,,,,,,,,,,,,,,,,,,,,,,,,,,,,,,
,,?,0.00239,0,,,,,,stimuli/images/PICTURE_95.png,STYLE,5d1a7d73a7f7ce0001dec46b,01/05/2001,2020-08-27_15h48.16.742,proactive3.2,2020.1.2,Win32,60,5f47c0b9b035471e11593a5c,5f47c66e60be640b5f110b18,2,,,,,,suitcase,,,,,,,,,,,3,0,0,29,29,25,1,,,,,,,,,,,,,,,,,,,,,,,,,,,,,,,,,,,,,,,,,,,,,,,,,,,,,,,,,,,,,,,,,,,,,,
,,?,0.003725,0,,,,,,stimuli/images/PICTURE_708.png,PENNY,5d1a7d73a7f7ce0001dec46b,01/05/2001,2020-08-27_15h48.16.742,proactive3.2,2020.1.2,Win32,60,5f47c0b9b035471e11593a5c,5f47c66e60be640b5f110b18,2,,,,,,monkey,,,,,,,,,,,4,0,0,30,30,31,1,,,,,,,,,,,,,,,,,,,,,,,,,,,,,,,,,,,,,,,,,,,,,,,,,,,,,,,,,,,,,,,,,,,,,,
,,GIRL,1.66947,1,,,,,,stimuli/images/PICTURE_151.png,GIRL,5d1a7d73a7f7ce0001dec46b,01/05/2001,2020-08-27_15h48.16.742,proactive3.2,2020.1.2,Win32,60,5f47c0b9b035471e11593a5c,5f47c66e60be640b5f110b18,2,,,,,,tray,,,,,,,,,,,2,0,0,31,31,19,1,,,,,,,,,,,,,,,,,,,,,,,,,,,,,,,,,,,,,,,,,,,,,,,,,,,,,,,,,,,,,,,,,,,,,,
,,?,0.00224,0,,,,,,stimuli/images/PICTURE_123.png,ADVICE,5d1a7d73a7f7ce0001dec46b,01/05/2001,2020-08-27_15h48.16.742,proactive3.2,2020.1.2,Win32,60,5f47c0b9b035471e11593a5c,5f47c66e60be640b5f110b18,2,,,,,,dart,,,,,,,,,,,6,0,0,32,32,50,1,,,,,,,,,,,,,,,,,,,,,,,,,,,,,,,,,,,,,,,,,,,,,,,,,,,,,,,,,,,,,,,,,,,,,,
,,?,0.00223,0,,,,,,stimuli/images/PICTURE_308.png,ESTATE,5d1a7d73a7f7ce0001dec46b,01/05/2001,2020-08-27_15h48.16.742,proactive3.2,2020.1.2,Win32,60,5f47c0b9b035471e11593a5c,5f47c66e60be640b5f110b18,2,,,,,,dice,,,,,,,,,,,5,0,0,33,33,46,1,,,,,,,,,,,,,,,,,,,,,,,,,,,,,,,,,,,,,,,,,,,,,,,,,,,,,,,,,,,,,,,,,,,,,,
,,LOTS,1.787075,1,,,,,,stimuli/images/PICTURE_208.png,LOTS,5d1a7d73a7f7ce0001dec46b,01/05/2001,2020-08-27_15h48.16.742,proactive3.2,2020.1.2,Win32,60,5f47c0b9b035471e11593a5c,5f47c66e60be640b5f110b18,2,,,,,,microphone,,,,,,,,,,,2,0,0,34,34,10,1,,,,,,,,,,,,,,,,,,,,,,,,,,,,,,,,,,,,,,,,,,,,,,,,,,,,,,,,,,,,,,,,,,,,,,
,,SAKE,2.164845,1,,,,,,stimuli/images/PICTURE_744.png,SAKE,5d1a7d73a7f7ce0001dec46b,01/05/2001,2020-08-27_15h48.16.742,proactive3.2,2020.1.2,Win32,60,5f47c0b9b035471e11593a5c,5f47c66e60be640b5f110b18,2,,,,,,ring,,,,,,,,,,,2,0,0,35,35,17,1,,,,,,,,,,,,,,,,,,,,,,,,,,,,,,,,,,,,,,,,,,,,,,,,,,,,,,,,,,,,,,,,,,,,,,
,,?,0.002565,0,,,,,,stimuli/images/PICTURE_147.png,MOMENT,5d1a7d73a7f7ce0001dec46b,01/05/2001,2020-08-27_15h48.16.742,proactive3.2,2020.1.2,Win32,60,5f47c0b9b035471e11593a5c,5f47c66e60be640b5f110b18,2,,,,,,hanger,,,,,,,,,,,6,0,0,36,36,51,1,,,,,,,,,,,,,,,,,,,,,,,,,,,,,,,,,,,,,,,,,,,,,,,,,,,,,,,,,,,,,,,,,,,,,,
,,MONTH,2.07581,1,,,,,,stimuli/images/PICTURE_692.png,MONTH,5d1a7d73a7f7ce0001dec46b,01/05/2001,2020-08-27_15h48.16.742,proactive3.2,2020.1.2,Win32,60,5f47c0b9b035471e11593a5c,5f47c66e60be640b5f110b18,2,,,,,,cherry,,,,,,,,,,,2,0,0,37,37,16,1,,,,,,,,,,,,,,,,,,,,,,,,,,,,,,,,,,,,,,,,,,,,,,,,,,,,,,,,,,,,,,,,,,,,,,
,,?,0.002805,0,,,,,,stimuli/images/PICTURE_233.png,WOMEN,5d1a7d73a7f7ce0001dec46b,01/05/2001,2020-08-27_15h48.16.742,proactive3.2,2020.1.2,Win32,60,5f47c0b9b035471e11593a5c,5f47c66e60be640b5f110b18,2,,,,,,salt,,,,,,,,,,,4,0,0,38,38,38,1,,,,,,,,,,,,,,,,,,,,,,,,,,,,,,,,,,,,,,,,,,,,,,,,,,,,,,,,,,,,,,,,,,,,,,
,,?,0.002825,0,,,,,,stimuli/images/PICTURE_308.png,KIND,5d1a7d73a7f7ce0001dec46b,01/05/2001,2020-08-27_15h48.16.742,proactive3.2,2020.1.2,Win32,60,5f47c0b9b035471e11593a5c,5f47c66e60be640b5f110b18,2,,,,,,dice,,,,,,,,,,,6,0,0,39,39,54,1,,,,,,,,,,,,,,,,,,,,,,,,,,,,,,,,,,,,,,,,,,,,,,,,,,,,,,,,,,,,,,,,,,,,,,
,,?,0.002965,0,,,,,,stimuli/images/PICTURE_208.png,MONTH,5d1a7d73a7f7ce0001dec46b,01/05/2001,2020-08-27_15h48.16.742,proactive3.2,2020.1.2,Win32,60,5f47c0b9b035471e11593a5c,5f47c66e60be640b5f110b18,2,,,,,,microphone,,,,,,,,,,,6,0,0,40,40,53,1,,,,,,,,,,,,,,,,,,,,,,,,,,,,,,,,,,,,,,,,,,,,,,,,,,,,,,,,,,,,,,,,,,,,,,
,,?,0.00253,0,,,,,,stimuli/images/PICTURE_667.png,PLENTY,5d1a7d73a7f7ce0001dec46b,01/05/2001,2020-08-27_15h48.16.742,proactive3.2,2020.1.2,Win32,60,5f47c0b9b035471e11593a5c,5f47c66e60be640b5f110b18,2,,,,,,daisy,,,,,,,,,,,5,0,0,41,41,41,1,,,,,,,,,,,,,,,,,,,,,,,,,,,,,,,,,,,,,,,,,,,,,,,,,,,,,,,,,,,,,,,,,,,,,,
,,?,0.001885,0,,,,,,stimuli/images/PICTURE_215.png,PLENTY,5d1a7d73a7f7ce0001dec46b,01/05/2001,2020-08-27_15h48.16.742,proactive3.2,2020.1.2,Win32,60,5f47c0b9b035471e11593a5c,5f47c66e60be640b5f110b18,2,,,,,,boot,,,,,,,,,,,4,0,0,42,42,37,1,,,,,,,,,,,,,,,,,,,,,,,,,,,,,,,,,,,,,,,,,,,,,,,,,,,,,,,,,,,,,,,,,,,,,,
,,?,0.0018,0,,,,,,stimuli/images/PICTURE_248.png,DOZEN,5d1a7d73a7f7ce0001dec46b,01/05/2001,2020-08-27_15h48.16.742,proactive3.2,2020.1.2,Win32,60,5f47c0b9b035471e11593a5c,5f47c66e60be640b5f110b18,2,,,,,,cart,,,,,,,,,,,4,0,0,43,43,39,1,,,,,,,,,,,,,,,,,,,,,,,,,,,,,,,,,,,,,,,,,,,,,,,,,,,,,,,,,,,,,,,,,,,,,,
,,?,0.00183,0,,,,,,stimuli/images/PICTURE_380.png,DEATH,5d1a7d73a7f7ce0001dec46b,01/05/2001,2020-08-27_15h48.16.742,proactive3.2,2020.1.2,Win32,60,5f47c0b9b035471e11593a5c,5f47c66e60be640b5f110b18,2,,,,,,gorilla,,,,,,,,,,,5,0,0,44,44,49,1,,,,,,,,,,,,,,,,,,,,,,,,,,,,,,,,,,,,,,,,,,,,,,,,,,,,,,,,,,,,,,,,,,,,,,
,,?,0.001815,0,,,,,,stimuli/images/PICTURE_491.png,ROOF,5d1a7d73a7f7ce0001dec46b,01/05/2001,2020-08-27_15h48.16.742,proactive3.2,2020.1.2,Win32,60,5f47c0b9b035471e11593a5c,5f47c66e60be640b5f110b18,2,,,,,,rug,,,,,,,,,,,3,0,0,45,45,24,1,,,,,,,,,,,,,,,,,,,,,,,,,,,,,,,,,,,,,,,,,,,,,,,,,,,,,,,,,,,,,,,,,,,,,,
,,?,0.001925,0,,,,,,stimuli/images/PICTURE_488.png,STYLE,5d1a7d73a7f7ce0001dec46b,01/05/2001,2020-08-27_15h48.16.742,proactive3.2,2020.1.2,Win32,60,5f47c0b9b035471e11593a5c,5f47c66e60be640b5f110b18,2,,,,,,sun,,,,,,,,,,,4,0,0,46,46,33,1,,,,,,,,,,,,,,,,,,,,,,,,,,,,,,,,,,,,,,,,,,,,,,,,,,,,,,,,,,,,,,,,,,,,,,
,,?,0.001855,0,,,,,,stimuli/images/PICTURE_380.png,PHOTO,5d1a7d73a7f7ce0001dec46b,01/05/2001,2020-08-27_15h48.16.742,proactive3.2,2020.1.2,Win32,60,5f47c0b9b035471e11593a5c,5f47c66e60be640b5f110b18,2,,,,,,gorilla,,,,,,,,,,,6,0,0,47,47,52,1,,,,,,,,,,,,,,,,,,,,,,,,,,,,,,,,,,,,,,,,,,,,,,,,,,,,,,,,,,,,,,,,,,,,,,
,,?,0.00186,0,,,,,,stimuli/images/PICTURE_327.png,BEAUTY,5d1a7d73a7f7ce0001dec46b,01/05/2001,2020-08-27_15h48.16.742,proactive3.2,2020.1.2,Win32,60,5f47c0b9b035471e11593a5c,5f47c66e60be640b5f110b18,2,,,,,,helmet,,,,,,,,,,,5,0,0,48,48,48,1,,,,,,,,,,,,,,,,,,,,,,,,,,,,,,,,,,,,,,,,,,,,,,,,,,,,,,,,,,,,,,,,,,,,,,
,,?,0.002025,0,,,,,,stimuli/images/PICTURE_467.png,DEMON,5d1a7d73a7f7ce0001dec46b,01/05/2001,2020-08-27_15h48.16.742,proactive3.2,2020.1.2,Win32,60,5f47c0b9b035471e11593a5c,5f47c66e60be640b5f110b18,2,,,,,,peg,,,,,,,,,,,3,0,0,49,49,23,1,,,,,,,,,,,,,,,,,,,,,,,,,,,,,,,,,,,,,,,,,,,,,,,,,,,,,,,,,,,,,,,,,,,,,,
,,?,0.00197,0,,,,,,stimuli/images/PICTURE_68.png,MILE,5d1a7d73a7f7ce0001dec46b,01/05/2001,2020-08-27_15h48.16.742,proactive3.2,2020.1.2,Win32,60,5f47c0b9b035471e11593a5c,5f47c66e60be640b5f110b18,2,,,,,,candle,,,,,,,,,,,5,0,0,50,50,44,1,,,,,,,,,,,,,,,,,,,,,,,,,,,,,,,,,,,,,,,,,,,,,,,,,,,,,,,,,,,,,,,,,,,,,,
,,?,0.001945,0,,,,,,stimuli/images/PICTURE_504.png,BODY,5d1a7d73a7f7ce0001dec46b,01/05/2001,2020-08-27_15h48.16.742,proactive3.2,2020.1.2,Win32,60,5f47c0b9b035471e11593a5c,5f47c66e60be640b5f110b18,2,,,,,,wheel,,,,,,,,,,,1,0,0,51,51,8,1,,,,,,,,,,,,,,,,,,,,,,,,,,,,,,,,,,,,,,,,,,,,,,,,,,,,,,,,,,,,,,,,,,,,,,
,,?,0.001965,0,,,,,,stimuli/images/PICTURE_255.png,AREA,5d1a7d73a7f7ce0001dec46b,01/05/2001,2020-08-27_15h48.16.742,proactive3.2,2020.1.2,Win32,60,5f47c0b9b035471e11593a5c,5f47c66e60be640b5f110b18,2,,,,,,shovel,,,,,,,,,,,3,0,0,52,52,22,1,,,,,,,,,,,,,,,,,,,,,,,,,,,,,,,,,,,,,,,,,,,,,,,,,,,,,,,,,,,,,,,,,,,,,,
,,?,0.0019,0,,,,,,stimuli/images/PICTURE_469.png,ARTIST,5d1a7d73a7f7ce0001dec46b,01/05/2001,2020-08-27_15h48.16.742,proactive3.2,2020.1.2,Win32,60,5f47c0b9b035471e11593a5c,5f47c66e60be640b5f110b18,2,,,,,,stool,,,,,,,,,,,1,0,0,53,53,6,1,,,,,,,,,,,,,,,,,,,,,,,,,,,,,,,,,,,,,,,,,,,,,,,,,,,,,,,,,,,,,,,,,,,,,,
,,?,0.00192,0,,,,,,stimuli/images/PICTURE_453.png,DUDE,5d1a7d73a7f7ce0001dec46b,01/05/2001,2020-08-27_15h48.16.742,proactive3.2,2020.1.2,Win32,60,5f47c0b9b035471e11593a5c,5f47c66e60be640b5f110b18,2,,,,,,scissors,,,,,,,,,,,3,0,0,54,54,27,1,,,,,,,,,,,,,,,,,,,,,,,,,,,,,,,,,,,,,,,,,,,,,,,,,,,,,,,,,,,,,,,,,,,,,,
,,?,0.002165,0,,,,,,stimuli/images/PICTURE_339.png,PLENTY,5d1a7d73a7f7ce0001dec46b,01/05/2001,2020-08-27_15h48.16.742,proactive3.2,2020.1.2,Win32,60,5f47c0b9b035471e11593a5c,5f47c66e60be640b5f110b18,2,,,,,,backpack,,,,,,,,,,,1,0,0,55,55,0,1,,,,,,,,,,,,,,,,,,,,,,,,,,,,,,,,,,,,,,,,,,,,,,,,,,,,,,,,,,,,,,,,,,,,,,
,,BEAUTY,2.29796,1,,,,,,stimuli/images/PICTURE_311.png,BEAUTY,5d1a7d73a7f7ce0001dec46b,01/05/2001,2020-08-27_15h48.16.742,proactive3.2,2020.1.2,Win32,60,5f47c0b9b035471e11593a5c,5f47c66e60be640b5f110b18,2,,,,,,razor,,,,,,,,,,,2,0,0,56,56,13,1,,,,,,,,,,,,,,,,,,,,,,,,,,,,,,,,,,,,,,,,,,,,,,,,,,,,,,,,,,,,,,,,,,,,,,
,,?,0.00305,0,,,,,,stimuli/images/PICTURE_470.png,CASINO,5d1a7d73a7f7ce0001dec46b,01/05/2001,2020-08-27_15h48.16.742,proactive3.2,2020.1.2,Win32,60,5f47c0b9b035471e11593a5c,5f47c66e60be640b5f110b18,2,,,,,,motorbike,,,,,,,,,,,4,0,0,57,57,36,1,,,,,,,,,,,,,,,,,,,,,,,,,,,,,,,,,,,,,,,,,,,,,,,,,,,,,,,,,,,,,,,,,,,,,,
,,?,0.002775,0,,,,,,stimuli/images/PICTURE_453.png,PLENTY,5d1a7d73a7f7ce0001dec46b,01/05/2001,2020-08-27_15h48.16.742,proactive3.2,2020.1.2,Win32,60,5f47c0b9b035471e11593a5c,5f47c66e60be640b5f110b18,2,,,,,,scissors,,,,,,,,,,,6,0,0,58,58,56,1,,,,,,,,,,,,,,,,,,,,,,,,,,,,,,,,,,,,,,,,,,,,,,,,,,,,,,,,,,,,,,,,,,,,,,
,,?,0.003345,0,,,,,,stimuli/images/PICTURE_160.png,FEET,5d1a7d73a7f7ce0001dec46b,01/05/2001,2020-08-27_15h48.16.742,proactive3.2,2020.1.2,Win32,60,5f47c0b9b035471e11593a5c,5f47c66e60be640b5f110b18,2,,,,,,wheelbarrow,,,,,,,,,,,6,0,0,59,59,58,1,,,,,,,,,,,,,,,,,,,,,,,,,,,,,,,,,,,,,,,,,,,,,,,,,,,,,,,,,,,,,,,,,,,,,,
,,,,,,,,,,,,5d1a7d73a7f7ce0001dec46b,01/05/2001,2020-08-27_15h48.16.742,proactive3.2,2020.1.2,Win32,60,5f47c0b9b035471e11593a5c,5f47c66e60be640b5f110b18,2,,,,,,,,,,,,,,,,,,,,,,,,0,1,1,0,1,stimuli/learn-block1.csv,,,,,,,,,,,,,,,,,,,,,,,,,,,,,,,,,,,,,,,,,,,,,,,,,,,,,,,,,,,,,,,,
,,,,,,,,,,stimuli/images/PICTURE_405.png,JUNGLE,5d1a7d73a7f7ce0001dec46b,01/05/2001,2020-08-27_15h48.16.742,proactive3.2,2020.1.2,Win32,60,5f47c0b9b035471e11593a5c,5f47c66e60be640b5f110b18,2,,,,,,anchor,,,,,,0,0,0,58,1,6,2,,,,,,,,,,,,,,,,,,,,,,,,,,,,,,,,,,,,,,,,,,,,,,,,,,,,,,,,,,,,,,,,,,,,,,,,,,,
,,,,,,,,,,stimuli/images/PICTURE_215.png,BOYS,5d1a7d73a7f7ce0001dec46b,01/05/2001,2020-08-27_15h48.16.742,proactive3.2,2020.1.2,Win32,60,5f47c0b9b035471e11593a5c,5f47c66e60be640b5f110b18,2,,,,,,boot,,,,,,0,1,1,24,1,3,2,,,,,,,,,,,,,,,,,,,,,,,,,,,,,,,,,,,,,,,,,,,,,,,,,,,,,,,,,,,,,,,,,,,,,,,,,,,
,,,,,,,,,,stimuli/images/PICTURE_177.png,HOUSE,5d1a7d73a7f7ce0001dec46b,01/05/2001,2020-08-27_15h48.16.742,proactive3.2,2020.1.2,Win32,60,5f47c0b9b035471e11593a5c,5f47c66e60be640b5f110b18,2,,,,,,mushroom,,,,,,0,2,2,25,1,3,2,,,,,,,,,,,,,,,,,,,,,,,,,,,,,,,,,,,,,,,,,,,,,,,,,,,,,,,,,,,,,,,,,,,,,,,,,,,
,,,,,,,,,,stimuli/images/PICTURE_160.png,HOTEL,5d1a7d73a7f7ce0001dec46b,01/05/2001,2020-08-27_15h48.16.742,proactive3.2,2020.1.2,Win32,60,5f47c0b9b035471e11593a5c,5f47c66e60be640b5f110b18,2,,,,,,wheelbarrow,,,,,,0,3,3,16,1,2,2,,,,,,,,,,,,,,,,,,,,,,,,,,,,,,,,,,,,,,,,,,,,,,,,,,,,,,,,,,,,,,,,,,,,,,,,,,,
,,,,,,,,,,stimuli/images/PICTURE_504.png,HOUSE,5d1a7d73a7f7ce0001dec46b,01/05/2001,2020-08-27_15h48.16.742,proactive3.2,2020.1.2,Win32,60,5f47c0b9b035471e11593a5c,5f47c66e60be640b5f110b18,2,,,,,,wheel,,,,,,0,4,4,36,1,4,2,,,,,,,,,,,,,,,,,,,,,,,,,,,,,,,,,,,,,,,,,,,,,,,,,,,,,,,,,,,,,,,,,,,,,,,,,,,
,,,,,,,,,,stimuli/images/PICTURE_470.png,BEAUTY,5d1a7d73a7f7ce0001dec46b,01/05/2001,2020-08-27_15h48.16.742,proactive3.2,2020.1.2,Win32,60,5f47c0b9b035471e11593a5c,5f47c66e60be640b5f110b18,2,,,,,,motorbike,,,,,,0,5,5,26,1,3,2,,,,,,,,,,,,,,,,,,,,,,,,,,,,,,,,,,,,,,,,,,,,,,,,,,,,,,,,,,,,,,,,,,,,,,,,,,,
,,,,,,,,,,stimuli/images/PICTURE_57.png,CASINO,5d1a7d73a7f7ce0001dec46b,01/05/2001,2020-08-27_15h48.16.742,proactive3.2,2020.1.2,Win32,60,5f47c0b9b035471e11593a5c,5f47c66e60be640b5f110b18,2,,,,,,stamp,,,,,,0,6,6,12,1,2,2,,,,,,,,,,,,,,,,,,,,,,,,,,,,,,,,,,,,,,,,,,,,,,,,,,,,,,,,,,,,,,,,,,,,,,,,,,,
,,,,,,,,,,stimuli/images/PICTURE_453.png,FAMILY,5d1a7d73a7f7ce0001dec46b,01/05/2001,2020-08-27_15h48.16.742,proactive3.2,2020.1.2,Win32,60,5f47c0b9b035471e11593a5c,5f47c66e60be640b5f110b18,2,,,,,,scissors,,,,,,0,7,7,48,1,5,2,,,,,,,,,,,,,,,,,,,,,,,,,,,,,,,,,,,,,,,,,,,,,,,,,,,,,,,,,,,,,,,,,,,,,,,,,,,
,,,,,,,,,,stimuli/images/PICTURE_667.png,GLASS,5d1a7d73a7f7ce0001dec46b,01/05/2001,2020-08-27_15h48.16.742,proactive3.2,2020.1.2,Win32,60,5f47c0b9b035471e11593a5c,5f47c66e60be640b5f110b18,2,,,,,,daisy,,,,,,0,8,8,27,1,3,2,,,,,,,,,,,,,,,,,,,,,,,,,,,,,,,,,,,,,,,,,,,,,,,,,,,,,,,,,,,,,,,,,,,,,,,,,,,
,,,,,,,,,,stimuli/images/PICTURE_348.png,DUDE,5d1a7d73a7f7ce0001dec46b,01/05/2001,2020-08-27_15h48.16.742,proactive3.2,2020.1.2,Win32,60,5f47c0b9b035471e11593a5c,5f47c66e60be640b5f110b18,2,,,,,,pepper,,,,,,0,9,9,59,1,6,2,,,,,,,,,,,,,,,,,,,,,,,,,,,,,,,,,,,,,,,,,,,,,,,,,,,,,,,,,,,,,,,,,,,,,,,,,,,
,,,,,,,,,,stimuli/images/PICTURE_452.png,COPS,5d1a7d73a7f7ce0001dec46b,01/05/2001,2020-08-27_15h48.16.742,proactive3.2,2020.1.2,Win32,60,5f47c0b9b035471e11593a5c,5f47c66e60be640b5f110b18,2,,,,,,watch,,,,,,0,10,10,0,1,1,2,,,,,,,,,,,,,,,,,,,,,,,,,,,,,,,,,,,,,,,,,,,,,,,,,,,,,,,,,,,,,,,,,,,,,,,,,,,
,,,,,,,,,,stimuli/images/PICTURE_509.png,BATH,5d1a7d73a7f7ce0001dec46b,01/05/2001,2020-08-27_15h48.16.742,proactive3.2,2020.1.2,Win32,60,5f47c0b9b035471e11593a5c,5f47c66e60be640b5f110b18,2,,,,,,telephone,,,,,,0,11,11,15,1,2,2,,,,,,,,,,,,,,,,,,,,,,,,,,,,,,,,,,,,,,,,,,,,,,,,,,,,,,,,,,,,,,,,,,,,,,,,,,,
,,,,,,,,,,stimuli/images/PICTURE_677.png,PHOTO,5d1a7d73a7f7ce0001dec46b,01/05/2001,2020-08-27_15h48.16.742,proactive3.2,2020.1.2,Win32,60,5f47c0b9b035471e11593a5c,5f47c66e60be640b5f110b18,2,,,,,,map,,,,,,0,12,12,14,1,2,2,,,,,,,,,,,,,,,,,,,,,,,,,,,,,,,,,,,,,,,,,,,,,,,,,,,,,,,,,,,,,,,,,,,,,,,,,,,
,,,,,,,,,,stimuli/images/PICTURE_654.png,YEAR,5d1a7d73a7f7ce0001dec46b,01/05/2001,2020-08-27_15h48.16.742,proactive3.2,2020.1.2,Win32,60,5f47c0b9b035471e11593a5c,5f47c66e60be640b5f110b18,2,,,,,,pencil,,,,,,0,13,13,41,1,5,2,,,,,,,,,,,,,,,,,,,,,,,,,,,,,,,,,,,,,,,,,,,,,,,,,,,,,,,,,,,,,,,,,,,,,,,,,,,
,,,,,,,,,,stimuli/images/PICTURE_750.png,POLICY,5d1a7d73a7f7ce0001dec46b,01/05/2001,2020-08-27_15h48.16.742,proactive3.2,2020.1.2,Win32,60,5f47c0b9b035471e11593a5c,5f47c66e60be640b5f110b18,2,,,,,,kettle,,,,,,0,14,14,44,1,5,2,,,,,,,,,,,,,,,,,,,,,,,,,,,,,,,,,,,,,,,,,,,,,,,,,,,,,,,,,,,,,,,,,,,,,,,,,,,
,,,,,,,,,,stimuli/images/PICTURE_708.png,VALLEY,5d1a7d73a7f7ce0001dec46b,01/05/2001,2020-08-27_15h48.16.742,proactive3.2,2020.1.2,Win32,60,5f47c0b9b035471e11593a5c,5f47c66e60be640b5f110b18,2,,,,,,monkey,,,,,,0,15,15,45,1,5,2,,,,,,,,,,,,,,,,,,,,,,,,,,,,,,,,,,,,,,,,,,,,,,,,,,,,,,,,,,,,,,,,,,,,,,,,,,,
,,,,,,,,,,stimuli/images/PICTURE_692.png,DUDE,5d1a7d73a7f7ce0001dec46b,01/05/2001,2020-08-27_15h48.16.742,proactive3.2,2020.1.2,Win32,60,5f47c0b9b035471e11593a5c,5f47c66e60be640b5f110b18,2,,,,,,cherry,,,,,,0,16,16,47,1,5,2,,,,,,,,,,,,,,,,,,,,,,,,,,,,,,,,,,,,,,,,,,,,,,,,,,,,,,,,,,,,,,,,,,,,,,,,,,,
,,,,,,,,,,stimuli/images/PICTURE_123.png,SALE,5d1a7d73a7f7ce0001dec46b,01/05/2001,2020-08-27_15h48.16.742,proactive3.2,2020.1.2,Win32,60,5f47c0b9b035471e11593a5c,5f47c66e60be640b5f110b18,2,,,,,,dart,,,,,,0,17,17,8,1,1,2,,,,,,,,,,,,,,,,,,,,,,,,,,,,,,,,,,,,,,,,,,,,,,,,,,,,,,,,,,,,,,,,,,,,,,,,,,,
,,,,,,,,,,stimuli/images/PICTURE_677.png,FAMILY,5d1a7d73a7f7ce0001dec46b,01/05/2001,2020-08-27_15h48.16.742,proactive3.2,2020.1.2,Win32,60,5f47c0b9b035471e11593a5c,5f47c66e60be640b5f110b18,2,,,,,,map,,,,,,0,18,18,53,1,6,2,,,,,,,,,,,,,,,,,,,,,,,,,,,,,,,,,,,,,,,,,,,,,,,,,,,,,,,,,,,,,,,,,,,,,,,,,,,
,,,,,,,,,,stimuli/images/PICTURE_147.png,LEADER,5d1a7d73a7f7ce0001dec46b,01/05/2001,2020-08-27_15h48.16.742,proactive3.2,2020.1.2,Win32,60,5f47c0b9b035471e11593a5c,5f47c66e60be640b5f110b18,2,,,,,,hanger,,,,,,0,19,19,33,1,4,2,,,,,,,,,,,,,,,,,,,,,,,,,,,,,,,,,,,,,,,,,,,,,,,,,,,,,,,,,,,,,,,,,,,,,,,,,,,
,,,,,,,,,,stimuli/images/PICTURE_57.png,NATION,5d1a7d73a7f7ce0001dec46b,01/05/2001,2020-08-27_15h48.16.742,proactive3.2,2020.1.2,Win32,60,5f47c0b9b035471e11593a5c,5f47c66e60be640b5f110b18,2,,,,,,stamp,,,,,,0,20,20,21,1,3,2,,,,,,,,,,,,,,,,,,,,,,,,,,,,,,,,,,,,,,,,,,,,,,,,,,,,,,,,,,,,,,,,,,,,,,,,,,,
,,,,,,,,,,stimuli/images/PICTURE_296.png,CLOCK,5d1a7d73a7f7ce0001dec46b,01/05/2001,2020-08-27_15h48.16.742,proactive3.2,2020.1.2,Win32,60,5f47c0b9b035471e11593a5c,5f47c66e60be640b5f110b18,2,,,,,,bolt,,,,,,0,21,21,18,1,2,2,,,,,,,,,,,,,,,,,,,,,,,,,,,,,,,,,,,,,,,,,,,,,,,,,,,,,,,,,,,,,,,,,,,,,,,,,,,
,,,,,,,,,,stimuli/images/PICTURE_314.png,SPEECH,5d1a7d73a7f7ce0001dec46b,01/05/2001,2020-08-27_15h48.16.742,proactive3.2,2020.1.2,Win32,60,5f47c0b9b035471e11593a5c,5f47c66e60be640b5f110b18,2,,,,,,perfume,,,,,,0,22,22,35,1,4,2,,,,,,,,,,,,,,,,,,,,,,,,,,,,,,,,,,,,,,,,,,,,,,,,,,,,,,,,,,,,,,,,,,,,,,,,,,,
,,,,,,,,,,stimuli/images/PICTURE_57.png,CANDY,5d1a7d73a7f7ce0001dec46b,01/05/2001,2020-08-27_15h48.16.742,proactive3.2,2020.1.2,Win32,60,5f47c0b9b035471e11593a5c,5f47c66e60be640b5f110b18,2,,,,,,stamp,,,,,,0,23,23,52,1,6,2,,,,,,,,,,,,,,,,,,,,,,,,,,,,,,,,,,,,,,,,,,,,,,,,,,,,,,,,,,,,,,,,,,,,,,,,,,,
,,,,,,,,,,stimuli/images/PICTURE_215.png,FOOD,5d1a7d73a7f7ce0001dec46b,01/05/2001,2020-08-27_15h48.16.742,proactive3.2,2020.1.2,Win32,60,5f47c0b9b035471e11593a5c,5f47c66e60be640b5f110b18,2,,,,,,boot,,,,,,0,24,24,5,1,1,2,,,,,,,,,,,,,,,,,,,,,,,,,,,,,,,,,,,,,,,,,,,,,,,,,,,,,,,,,,,,,,,,,,,,,,,,,,,
,,,,,,,,,,stimuli/images/PICTURE_285.png,WRITER,5d1a7d73a7f7ce0001dec46b,01/05/2001,2020-08-27_15h48.16.742,proactive3.2,2020.1.2,Win32,60,5f47c0b9b035471e11593a5c,5f47c66e60be640b5f110b18,2,,,,,,carrot,,,,,,0,25,25,6,1,1,2,,,,,,,,,,,,,,,,,,,,,,,,,,,,,,,,,,,,,,,,,,,,,,,,,,,,,,,,,,,,,,,,,,,,,,,,,,,
,,,,,,,,,,stimuli/images/PICTURE_327.png,LEADER,5d1a7d73a7f7ce0001dec46b,01/05/2001,2020-08-27_15h48.16.742,proactive3.2,2020.1.2,Win32,60,5f47c0b9b035471e11593a5c,5f47c66e60be640b5f110b18,2,,,,,,helmet,,,,,,0,26,26,17,1,2,2,,,,,,,,,,,,,,,,,,,,,,,,,,,,,,,,,,,,,,,,,,,,,,,,,,,,,,,,,,,,,,,,,,,,,,,,,,,
,,,,,,,,,,stimuli/images/PICTURE_348.png,TOILET,5d1a7d73a7f7ce0001dec46b,01/05/2001,2020-08-27_15h48.16.742,proactive3.2,2020.1.2,Win32,60,5f47c0b9b035471e11593a5c,5f47c66e60be640b5f110b18,2,,,,,,pepper,,,,,,0,27,27,4,1,1,2,,,,,,,,,,,,,,,,,,,,,,,,,,,,,,,,,,,,,,,,,,,,,,,,,,,,,,,,,,,,,,,,,,,,,,,,,,,
,,,,,,,,,,stimuli/images/PICTURE_93.png,GIRL,5d1a7d73a7f7ce0001dec46b,01/05/2001,2020-08-27_15h48.16.742,proactive3.2,2020.1.2,Win32,60,5f47c0b9b035471e11593a5c,5f47c66e60be640b5f110b18,2,,,,,,skateboard,,,,,,0,28,28,31,1,4,2,,,,,,,,,,,,,,,,,,,,,,,,,,,,,,,,,,,,,,,,,,,,,,,,,,,,,,,,,,,,,,,,,,,,,,,,,,,
,,,,,,,,,,stimuli/images/PICTURE_285.png,PRINCE,5d1a7d73a7f7ce0001dec46b,01/05/2001,2020-08-27_15h48.16.742,proactive3.2,2020.1.2,Win32,60,5f47c0b9b035471e11593a5c,5f47c66e60be640b5f110b18,2,,,,,,carrot,,,,,,0,29,29,20,1,3,2,,,,,,,,,,,,,,,,,,,,,,,,,,,,,,,,,,,,,,,,,,,,,,,,,,,,,,,,,,,,,,,,,,,,,,,,,,,
,,,,,,,,,,stimuli/images/PICTURE_564.png,PLENTY,5d1a7d73a7f7ce0001dec46b,01/05/2001,2020-08-27_15h48.16.742,proactive3.2,2020.1.2,Win32,60,5f47c0b9b035471e11593a5c,5f47c66e60be640b5f110b18,2,,,,,,spoon,,,,,,0,30,30,11,1,2,2,,,,,,,,,,,,,,,,,,,,,,,,,,,,,,,,,,,,,,,,,,,,,,,,,,,,,,,,,,,,,,,,,,,,,,,,,,,
,,,,,,,,,,stimuli/images/PICTURE_95.png,NIGHT,5d1a7d73a7f7ce0001dec46b,01/05/2001,2020-08-27_15h48.16.742,proactive3.2,2020.1.2,Win32,60,5f47c0b9b035471e11593a5c,5f47c66e60be640b5f110b18,2,,,,,,suitcase,,,,,,0,31,31,37,1,4,2,,,,,,,,,,,,,,,,,,,,,,,,,,,,,,,,,,,,,,,,,,,,,,,,,,,,,,,,,,,,,,,,,,,,,,,,,,,
,,,,,,,,,,stimuli/images/PICTURE_32.png,LETTER,5d1a7d73a7f7ce0001dec46b,01/05/2001,2020-08-27_15h48.16.742,proactive3.2,2020.1.2,Win32,60,5f47c0b9b035471e11593a5c,5f47c66e60be640b5f110b18,2,,,,,,crown,,,,,,0,32,32,56,1,6,2,,,,,,,,,,,,,,,,,,,,,,,,,,,,,,,,,,,,,,,,,,,,,,,,,,,,,,,,,,,,,,,,,,,,,,,,,,,
,,,,,,,,,,stimuli/images/PICTURE_18.png,RIVER,5d1a7d73a7f7ce0001dec46b,01/05/2001,2020-08-27_15h48.16.742,proactive3.2,2020.1.2,Win32,60,5f47c0b9b035471e11593a5c,5f47c66e60be640b5f110b18,2,,,,,,planet,,,,,,0,33,33,22,1,3,2,,,,,,,,,,,,,,,,,,,,,,,,,,,,,,,,,,,,,,,,,,,,,,,,,,,,,,,,,,,,,,,,,,,,,,,,,,,
,,,,,,,,,,stimuli/images/PICTURE_655.png,SALE,5d1a7d73a7f7ce0001dec46b,01/05/2001,2020-08-27_15h48.16.742,proactive3.2,2020.1.2,Win32,60,5f47c0b9b035471e11593a5c,5f47c66e60be640b5f110b18,2,,,,,,megaphone,,,,,,0,34,34,57,1,6,2,,,,,,,,,,,,,,,,,,,,,,,,,,,,,,,,,,,,,,,,,,,,,,,,,,,,,,,,,,,,,,,,,,,,,,,,,,,
,,,,,,,,,,stimuli/images/PICTURE_403.png,FAMILY,5d1a7d73a7f7ce0001dec46b,01/05/2001,2020-08-27_15h48.16.742,proactive3.2,2020.1.2,Win32,60,5f47c0b9b035471e11593a5c,5f47c66e60be640b5f110b18,2,,,,,,cathedral,,,,,,0,35,35,9,1,1,2,,,,,,,,,,,,,,,,,,,,,,,,,,,,,,,,,,,,,,,,,,,,,,,,,,,,,,,,,,,,,,,,,,,,,,,,,,,
,,,,,,,,,,stimuli/images/PICTURE_297.png,BODY,5d1a7d73a7f7ce0001dec46b,01/05/2001,2020-08-27_15h48.16.742,proactive3.2,2020.1.2,Win32,60,5f47c0b9b035471e11593a5c,5f47c66e60be640b5f110b18,2,,,,,,aeroplane,,,,,,0,36,36,51,1,6,2,,,,,,,,,,,,,,,,,,,,,,,,,,,,,,,,,,,,,,,,,,,,,,,,,,,,,,,,,,,,,,,,,,,,,,,,,,,
,,,,,,,,,,stimuli/images/PICTURE_509.png,MILLER,5d1a7d73a7f7ce0001dec46b,01/05/2001,2020-08-27_15h48.16.742,proactive3.2,2020.1.2,Win32,60,5f47c0b9b035471e11593a5c,5f47c66e60be640b5f110b18,2,,,,,,telephone,,,,,,0,37,37,49,1,5,2,,,,,,,,,,,,,,,,,,,,,,,,,,,,,,,,,,,,,,,,,,,,,,,,,,,,,,,,,,,,,,,,,,,,,,,,,,,
,,,,,,,,,,stimuli/images/PICTURE_470.png,MOMENT,5d1a7d73a7f7ce0001dec46b,01/05/2001,2020-08-27_15h48.16.742,proactive3.2,2020.1.2,Win32,60,5f47c0b9b035471e11593a5c,5f47c66e60be640b5f110b18,2,,,,,,motorbike,,,,,,0,38,38,40,1,5,2,,,,,,,,,,,,,,,,,,,,,,,,,,,,,,,,,,,,,,,,,,,,,,,,,,,,,,,,,,,,,,,,,,,,,,,,,,,
,,,,,,,,,,stimuli/images/PICTURE_215.png,LEADER,5d1a7d73a7f7ce0001dec46b,01/05/2001,2020-08-27_15h48.16.742,proactive3.2,2020.1.2,Win32,60,5f47c0b9b035471e11593a5c,5f47c66e60be640b5f110b18,2,,,,,,boot,,,,,,0,39,39,43,1,5,2,,,,,,,,,,,,,,,,,,,,,,,,,,,,,,,,,,,,,,,,,,,,,,,,,,,,,,,,,,,,,,,,,,,,,,,,,,,
,,,,,,,,,,stimuli/images/PICTURE_311.png,TOILET,5d1a7d73a7f7ce0001dec46b,01/05/2001,2020-08-27_15h48.16.742,proactive3.2,2020.1.2,Win32,60,5f47c0b9b035471e11593a5c,5f47c66e60be640b5f110b18,2,,,,,,razor,,,,,,0,40,40,54,1,6,2,,,,,,,,,,,,,,,,,,,,,,,,,,,,,,,,,,,,,,,,,,,,,,,,,,,,,,,,,,,,,,,,,,,,,,,,,,,
,,,,,,,,,,stimuli/images/PICTURE_654.png,COPS,5d1a7d73a7f7ce0001dec46b,01/05/2001,2020-08-27_15h48.16.742,proactive3.2,2020.1.2,Win32,60,5f47c0b9b035471e11593a5c,5f47c66e60be640b5f110b18,2,,,,,,pencil,,,,,,0,41,41,10,1,2,2,,,,,,,,,,,,,,,,,,,,,,,,,,,,,,,,,,,,,,,,,,,,,,,,,,,,,,,,,,,,,,,,,,,,,,,,,,,
,,,,,,,,,,stimuli/images/PICTURE_141.png,CLIENT,5d1a7d73a7f7ce0001dec46b,01/05/2001,2020-08-27_15h48.16.742,proactive3.2,2020.1.2,Win32,60,5f47c0b9b035471e11593a5c,5f47c66e60be640b5f110b18,2,,,,,,sunflower,,,,,,0,42,42,30,1,4,2,,,,,,,,,,,,,,,,,,,,,,,,,,,,,,,,,,,,,,,,,,,,,,,,,,,,,,,,,,,,,,,,,,,,,,,,,,,
,,,,,,,,,,stimuli/images/PICTURE_255.png,PENNY,5d1a7d73a7f7ce0001dec46b,01/05/2001,2020-08-27_15h48.16.742,proactive3.2,2020.1.2,Win32,60,5f47c0b9b035471e11593a5c,5f47c66e60be640b5f110b18,2,,,,,,shovel,,,,,,0,43,43,19,1,2,2,,,,,,,,,,,,,,,,,,,,,,,,,,,,,,,,,,,,,,,,,,,,,,,,,,,,,,,,,,,,,,,,,,,,,,,,,,,
,,,,,,,,,,stimuli/images/PICTURE_509.png,APPLE,5d1a7d73a7f7ce0001dec46b,01/05/2001,2020-08-27_15h48.16.742,proactive3.2,2020.1.2,Win32,60,5f47c0b9b035471e11593a5c,5f47c66e60be640b5f110b18,2,,,,,,telephone,,,,,,0,44,44,38,1,4,2,,,,,,,,,,,,,,,,,,,,,,,,,,,,,,,,,,,,,,,,,,,,,,,,,,,,,,,,,,,,,,,,,,,,,,,,,,,
,,,,,,,,,,stimuli/images/PICTURE_405.png,JUNGLE,5d1a7d73a7f7ce0001dec46b,01/05/2001,2020-08-27_15h48.16.742,proactive3.2,2020.1.2,Win32,60,5f47c0b9b035471e11593a5c,5f47c66e60be640b5f110b18,2,,,,,,anchor,,,,,,0,45,45,13,1,2,2,,,,,,,,,,,,,,,,,,,,,,,,,,,,,,,,,,,,,,,,,,,,,,,,,,,,,,,,,,,,,,,,,,,,,,,,,,,
,,,,,,,,,,stimuli/images/PICTURE_2.png,AREA,5d1a7d73a7f7ce0001dec46b,01/05/2001,2020-08-27_15h48.16.742,proactive3.2,2020.1.2,Win32,60,5f47c0b9b035471e11593a5c,5f47c66e60be640b5f110b18,2,,,,,,tyre,,,,,,0,46,46,32,1,4,2,,,,,,,,,,,,,,,,,,,,,,,,,,,,,,,,,,,,,,,,,,,,,,,,,,,,,,,,,,,,,,,,,,,,,,,,,,,
,,,,,,,,,,stimuli/images/PICTURE_405.png,HOUSE,5d1a7d73a7f7ce0001dec46b,01/05/2001,2020-08-27_15h48.16.742,proactive3.2,2020.1.2,Win32,60,5f47c0b9b035471e11593a5c,5f47c66e60be640b5f110b18,2,,,,,,anchor,,,,,,0,47,47,2,1,1,2,,,,,,,,,,,,,,,,,,,,,,,,,,,,,,,,,,,,,,,,,,,,,,,,,,,,,,,,,,,,,,,,,,,,,,,,,,,
,,,,,,,,,,stimuli/images/PICTURE_487.png,ROOF,5d1a7d73a7f7ce0001dec46b,01/05/2001,2020-08-27_15h48.16.742,proactive3.2,2020.1.2,Win32,60,5f47c0b9b035471e11593a5c,5f47c66e60be640b5f110b18,2,,,,,,basket,,,,,,0,48,48,50,1,6,2,,,,,,,,,,,,,,,,,,,,,,,,,,,,,,,,,,,,,,,,,,,,,,,,,,,,,,,,,,,,,,,,,,,,,,,,,,,
,,,,,,,,,,stimuli/images/PICTURE_487.png,POLICY,5d1a7d73a7f7ce0001dec46b,01/05/2001,2020-08-27_15h48.16.742,proactive3.2,2020.1.2,Win32,60,5f47c0b9b035471e11593a5c,5f47c66e60be640b5f110b18,2,,,,,,basket,,,,,,0,49,49,34,1,4,2,,,,,,,,,,,,,,,,,,,,,,,,,,,,,,,,,,,,,,,,,,,,,,,,,,,,,,,,,,,,,,,,,,,,,,,,,,,
,,,,,,,,,,stimuli/images/PICTURE_208.png,SPIRIT,5d1a7d73a7f7ce0001dec46b,01/05/2001,2020-08-27_15h48.16.742,proactive3.2,2020.1.2,Win32,60,5f47c0b9b035471e11593a5c,5f47c66e60be640b5f110b18,2,,,,,,microphone,,,,,,0,50,50,28,1,3,2,,,,,,,,,,,,,,,,,,,,,,,,,,,,,,,,,,,,,,,,,,,,,,,,,,,,,,,,,,,,,,,,,,,,,,,,,,,
,,,,,,,,,,stimuli/images/PICTURE_68.png,KIND,5d1a7d73a7f7ce0001dec46b,01/05/2001,2020-08-27_15h48.16.742,proactive3.2,2020.1.2,Win32,60,5f47c0b9b035471e11593a5c,5f47c66e60be640b5f110b18,2,,,,,,candle,,,,,,0,51,51,23,1,3,2,,,,,,,,,,,,,,,,,,,,,,,,,,,,,,,,,,,,,,,,,,,,,,,,,,,,,,,,,,,,,,,,,,,,,,,,,,,
,,,,,,,,,,stimuli/images/PICTURE_2.png,YARD,5d1a7d73a7f7ce0001dec46b,01/05/2001,2020-08-27_15h48.16.742,proactive3.2,2020.1.2,Win32,60,5f47c0b9b035471e11593a5c,5f47c66e60be640b5f110b18,2,,,,,,tyre,,,,,,0,52,52,55,1,6,2,,,,,,,,,,,,,,,,,,,,,,,,,,,,,,,,,,,,,,,,,,,,,,,,,,,,,,,,,,,,,,,,,,,,,,,,,,,
,,,,,,,,,,stimuli/images/PICTURE_33.png,COPS,5d1a7d73a7f7ce0001dec46b,01/05/2001,2020-08-27_15h48.16.742,proactive3.2,2020.1.2,Win32,60,5f47c0b9b035471e11593a5c,5f47c66e60be640b5f110b18,2,,,,,,frame,,,,,,0,53,53,29,1,3,2,,,,,,,,,,,,,,,,,,,,,,,,,,,,,,,,,,,,,,,,,,,,,,,,,,,,,,,,,,,,,,,,,,,,,,,,,,,
,,,,,,,,,,stimuli/images/PICTURE_509.png,SHOTS,5d1a7d73a7f7ce0001dec46b,01/05/2001,2020-08-27_15h48.16.742,proactive3.2,2020.1.2,Win32,60,5f47c0b9b035471e11593a5c,5f47c66e60be640b5f110b18,2,,,,,,telephone,,,,,,0,54,54,7,1,1,2,,,,,,,,,,,,,,,,,,,,,,,,,,,,,,,,,,,,,,,,,,,,,,,,,,,,,,,,,,,,,,,,,,,,,,,,,,,
,,,,,,,,,,stimuli/images/PICTURE_491.png,SERIES,5d1a7d73a7f7ce0001dec46b,01/05/2001,2020-08-27_15h48.16.742,proactive3.2,2020.1.2,Win32,60,5f47c0b9b035471e11593a5c,5f47c66e60be640b5f110b18,2,,,,,,rug,,,,,,0,55,55,39,1,4,2,,,,,,,,,,,,,,,,,,,,,,,,,,,,,,,,,,,,,,,,,,,,,,,,,,,,,,,,,,,,,,,,,,,,,,,,,,,
,,,,,,,,,,stimuli/images/PICTURE_356.png,CANDY,5d1a7d73a7f7ce0001dec46b,01/05/2001,2020-08-27_15h48.16.742,proactive3.2,2020.1.2,Win32,60,5f47c0b9b035471e11593a5c,5f47c66e60be640b5f110b18,2,,,,,,pawn,,,,,,0,56,56,46,1,5,2,,,,,,,,,,,,,,,,,,,,,,,,,,,,,,,,,,,,,,,,,,,,,,,,,,,,,,,,,,,,,,,,,,,,,,,,,,,
,,,,,,,,,,stimuli/images/PICTURE_688.png,CLOCK,5d1a7d73a7f7ce0001dec46b,01/05/2001,2020-08-27_15h48.16.742,proactive3.2,2020.1.2,Win32,60,5f47c0b9b035471e11593a5c,5f47c66e60be640b5f110b18,2,,,,,,runner,,,,,,0,57,57,42,1,5,2,,,,,,,,,,,,,,,,,,,,,,,,,,,,,,,,,,,,,,,,,,,,,,,,,,,,,,,,,,,,,,,,,,,,,,,,,,,
,,,,,,,,,,stimuli/images/PICTURE_311.png,FLESH,5d1a7d73a7f7ce0001dec46b,01/05/2001,2020-08-27_15h48.16.742,proactive3.2,2020.1.2,Win32,60,5f47c0b9b035471e11593a5c,5f47c66e60be640b5f110b18,2,,,,,,razor,,,,,,0,58,58,3,1,1,2,,,,,,,,,,,,,,,,,,,,,,,,,,,,,,,,,,,,,,,,,,,,,,,,,,,,,,,,,,,,,,,,,,,,,,,,,,,
,,?,0.00238,0,,,,,,stimuli/images/PICTURE_314.png,SPEECH,5d1a7d73a7f7ce0001dec46b,01/05/2001,2020-08-27_15h48.16.742,proactive3.2,2020.1.2,Win32,60,5f47c0b9b035471e11593a5c,5f47c66e60be640b5f110b18,2,,,,,,perfume,,,,,,,,,,,4,2,0,0,0,35,1,,,,,,,,,,,,,,,,,,,,,,,,,,,,,,,,,,,,,,,,,,,,,,,,,,,,,,,,,,,,,,,,,,,,,,
,,?,0.00212,0,,,,,,stimuli/images/PICTURE_677.png,FAMILY,5d1a7d73a7f7ce0001dec46b,01/05/2001,2020-08-27_15h48.16.742,proactive3.2,2020.1.2,Win32,60,5f47c0b9b035471e11593a5c,5f47c66e60be640b5f110b18,2,,,,,,map,,,,,,,,,,,6,2,0,1,1,53,1,,,,,,,,,,,,,,,,,,,,,,,,,,,,,,,,,,,,,,,,,,,,,,,,,,,,,,,,,,,,,,,,,,,,,,
,,?,0.00217,0,,,,,,stimuli/images/PICTURE_32.png,LETTER,5d1a7d73a7f7ce0001dec46b,01/05/2001,2020-08-27_15h48.16.742,proactive3.2,2020.1.2,Win32,60,5f47c0b9b035471e11593a5c,5f47c66e60be640b5f110b18,2,,,,,,crown,,,,,,,,,,,6,2,0,2,2,56,1,,,,,,,,,,,,,,,,,,,,,,,,,,,,,,,,,,,,,,,,,,,,,,,,,,,,,,,,,,,,,,,,,,,,,,
,,?,0.00211,0,,,,,,stimuli/images/PICTURE_654.png,YEAR,5d1a7d73a7f7ce0001dec46b,01/05/2001,2020-08-27_15h48.16.742,proactive3.2,2020.1.2,Win32,60,5f47c0b9b035471e11593a5c,5f47c66e60be640b5f110b18,2,,,,,,pencil,,,,,,,,,,,5,2,0,3,3,41,1,,,,,,,,,,,,,,,,,,,,,,,,,,,,,,,,,,,,,,,,,,,,,,,,,,,,,,,,,,,,,,,,,,,,,,
,,?,0.002585,0,,,,,,stimuli/images/PICTURE_403.png,FAMILY,5d1a7d73a7f7ce0001dec46b,01/05/2001,2020-08-27_15h48.16.742,proactive3.2,2020.1.2,Win32,60,5f47c0b9b035471e11593a5c,5f47c66e60be640b5f110b18,2,,,,,,cathedral,,,,,,,,,,,1,2,0,4,4,9,1,,,,,,,,,,,,,,,,,,,,,,,,,,,,,,,,,,,,,,,,,,,,,,,,,,,,,,,,,,,,,,,,,,,,,,
,,?,0.002415,0,,,,,,stimuli/images/PICTURE_487.png,POLICY,5d1a7d73a7f7ce0001dec46b,01/05/2001,2020-08-27_15h48.16.742,proactive3.2,2020.1.2,Win32,60,5f47c0b9b035471e11593a5c,5f47c66e60be640b5f110b18,2,,,,,,basket,,,,,,,,,,,4,2,0,5,5,34,1,,,,,,,,,,,,,,,,,,,,,,,,,,,,,,,,,,,,,,,,,,,,,,,,,,,,,,,,,,,,,,,,,,,,,,
,,?,0.00205,0,,,,,,stimuli/images/PICTURE_405.png,JUNGLE,5d1a7d73a7f7ce0001dec46b,01/05/2001,2020-08-27_15h48.16.742,proactive3.2,2020.1.2,Win32,60,5f47c0b9b035471e11593a5c,5f47c66e60be640b5f110b18,2,,,,,,anchor,,,,,,,,,,,6,2,0,6,6,58,1,,,,,,,,,,,,,,,,,,,,,,,,,,,,,,,,,,,,,,,,,,,,,,,,,,,,,,,,,,,,,,,,,,,,,,
,,?,0.00224,0,,,,,,stimuli/images/PICTURE_655.png,SALE,5d1a7d73a7f7ce0001dec46b,01/05/2001,2020-08-27_15h48.16.742,proactive3.2,2020.1.2,Win32,60,5f47c0b9b035471e11593a5c,5f47c66e60be640b5f110b18,2,,,,,,megaphone,,,,,,,,,,,6,2,0,7,7,57,1,,,,,,,,,,,,,,,,,,,,,,,,,,,,,,,,,,,,,,,,,,,,,,,,,,,,,,,,,,,,,,,,,,,,,,
,,?,0.00204,0,,,,,,stimuli/images/PICTURE_68.png,KIND,5d1a7d73a7f7ce0001dec46b,01/05/2001,2020-08-27_15h48.16.742,proactive3.2,2020.1.2,Win32,60,5f47c0b9b035471e11593a5c,5f47c66e60be640b5f110b18,2,,,,,,candle,,,,,,,,,,,3,2,0,8,8,23,1,,,,,,,,,,,,,,,,,,,,,,,,,,,,,,,,,,,,,,,,,,,,,,,,,,,,,,,,,,,,,,,,,,,,,,
,,PLENTY,5.901175,1,,,,,,stimuli/images/PICTURE_564.png,PLENTY,5d1a7d73a7f7ce0001dec46b,01/05/2001,2020-08-27_15h48.16.742,proactive3.2,2020.1.2,Win32,60,5f47c0b9b035471e11593a5c,5f47c66e60be640b5f110b18,2,,,,,,spoon,,,,,,,,,,,2,2,0,9,9,11,1,,,,,,,,,,,,,,,,,,,,,,,,,,,,,,,,,,,,,,,,,,,,,,,,,,,,,,,,,,,,,,,,,,,,,,
,,LEADER,2.032235,1,,,,,,stimuli/images/PICTURE_327.png,LEADER,5d1a7d73a7f7ce0001dec46b,01/05/2001,2020-08-27_15h48.16.742,proactive3.2,2020.1.2,Win32,60,5f47c0b9b035471e11593a5c,5f47c66e60be640b5f110b18,2,,,,,,helmet,,,,,,,,,,,2,2,0,10,10,17,1,,,,,,,,,,,,,,,,,,,,,,,,,,,,,,,,,,,,,,,,,,,,,,,,,,,,,,,,,,,,,,,,,,,,,,
,,?,0.003945,0,,,,,,stimuli/images/PICTURE_348.png,TOILET,5d1a7d73a7f7ce0001dec46b,01/05/2001,2020-08-27_15h48.16.742,proactive3.2,2020.1.2,Win32,60,5f47c0b9b035471e11593a5c,5f47c66e60be640b5f110b18,2,,,,,,pepper,,,,,,,,,,,1,2,0,11,11,4,1,,,,,,,,,,,,,,,,,,,,,,,,,,,,,,,,,,,,,,,,,,,,,,,,,,,,,,,,,,,,,,,,,,,,,,
,,?,0.00376,0,,,,,,stimuli/images/PICTURE_504.png,HOUSE,5d1a7d73a7f7ce0001dec46b,01/05/2001,2020-08-27_15h48.16.742,proactive3.2,2020.1.2,Win32,60,5f47c0b9b035471e11593a5c,5f47c66e60be640b5f110b18,2,,,,,,wheel,,,,,,,,,,,4,2,0,12,12,36,1,,,,,,,,,,,,,,,,,,,,,,,,,,,,,,,,,,,,,,,,,,,,,,,,,,,,,,,,,,,,,,,,,,,,,,
,,BATH,2.478485,1,,,,,,stimuli/images/PICTURE_509.png,BATH,5d1a7d73a7f7ce0001dec46b,01/05/2001,2020-08-27_15h48.16.742,proactive3.2,2020.1.2,Win32,60,5f47c0b9b035471e11593a5c,5f47c66e60be640b5f110b18,2,,,,,,telephone,,,,,,,,,,,2,2,0,13,13,15,1,,,,,,,,,,,,,,,,,,,,,,,,,,,,,,,,,,,,,,,,,,,,,,,,,,,,,,,,,,,,,,,,,,,,,,
