consent_key.keys,consent_key.rt,recalled,recalled_rt,recall_acc,example_recall.thisRepN,example_recall.thisTrialN,example_recall.thisN,example_recall.thisIndex,example_recall.ran,file,word,participant,please enter your date of birth (dd/mm/yyyy),date,expName,psychopyVersion,OS,frameRate,STUDY_ID,SESSION_ID,list,prac_learn_study_loop.thisRepN,prac_learn_study_loop.thisTrialN,prac_learn_study_loop.thisN,prac_learn_study_loop.thisIndex,prac_learn_study_loop.ran,image,prac_learn_test_loop.thisRepN,prac_learn_test_loop.thisTrialN,prac_learn_test_loop.thisN,prac_learn_test_loop.thisIndex,prac_learn_test_loop.ran,learn_study_loop.thisRepN,learn_study_loop.thisTrialN,learn_study_loop.thisN,learn_study_loop.thisIndex,learn_study_loop.ran,list_no,block_no,learn_test_loop.thisRepN,learn_test_loop.thisTrialN,learn_test_loop.thisN,learn_test_loop.thisIndex,learn_test_loop.ran,learn_blocks.thisRepN,learn_blocks.thisTrialN,learn_blocks.thisN,learn_blocks.thisIndex,learn_blocks.ran,block_csv,key_resp_13.keys,key_resp_13.rt,learn_blocks_loop.thisRepN,learn_blocks_loop.thisTrialN,learn_blocks_loop.thisN,learn_blocks_loop.thisIndex,learn_blocks_loop.ran,final_learn_test.thisRepN,final_learn_test.thisTrialN,final_learn_test.thisN,final_learn_test.thisIndex,final_learn_test.ran,prac_wm_test_loop.thisRepN,prac_wm_test_loop.thisTrialN,prac_wm_test_loop.thisN,prac_wm_test_loop.thisIndex,prac_wm_test_loop.ran,wm_recalled1,wm_recall_rt1,wm_probed1,wm_recall_acc1,wm_recalled2,wm_recall_rt2,wm_probed2,wm_recall_acc2,wm_recalled3,wm_recall_rt3,wm_probed3,wm_recall_acc3,wm_recalled4,wm_recall_rt4,wm_probed4,wm_recall_acc4,prac_wm_trial_loop.thisRepN,prac_wm_trial_loop.thisTrialN,prac_wm_trial_loop.thisN,prac_wm_trial_loop.thisIndex,prac_wm_trial_loop.ran,word1,image1,file1,item_type1,word2,image2,file2,item_type2,word4,image4,file4,item_type4,word3,image3,file3,item_type3,wm_test_loop.thisRepN,wm_test_loop.thisTrialN,wm_test_loop.thisN,wm_test_loop.thisIndex,wm_test_loop.ran,wm_trial_loop.thisRepN,wm_trial_loop.thisTrialN,wm_trial_loop.thisN,wm_trial_loop.thisIndex,wm_trial_loop.ran
y,17.27238,TOUGH,1.42282,1,0,0,0,0,1,stimuli/images/PICTURE_747.png,TOUGH,5dd9b8d616d10c946aa47e2f,07/24/1999,2020-08-27_10h42.37.380,proactive3.2,2020.1.2,MacIntel,60,5f47c0b9b035471e11593a5c,5f47c63fb035471f26112c29,3,,,,,,,,,,,,,,,,,,,,,,,,,,,,,,,,,,,,,,,,,,,,,,,,,,,,,,,,,,,,,,,,,,,,,,,,,,,,,,,,,,,,,,,,,,,,,
,,,,,,,,,,stimuli/images/PICTURE_269.png,GENIUS,5dd9b8d616d10c946aa47e2f,07/24/1999,2020-08-27_10h42.37.380,proactive3.2,2020.1.2,MacIntel,60,5f47c0b9b035471e11593a5c,5f47c63fb035471f26112c29,3,0,0,0,0,1,chameleon,,,,,,,,,,,,,,,,,,,,,,,,,,,,,,,,,,,,,,,,,,,,,,,,,,,,,,,,,,,,,,,,,,,,,,,,,,,,,,,,,,,,,,,
,,,,,,,,,,stimuli/images/PICTURE_378.png,LOSS,5dd9b8d616d10c946aa47e2f,07/24/1999,2020-08-27_10h42.37.380,proactive3.2,2020.1.2,MacIntel,60,5f47c0b9b035471e11593a5c,5f47c63fb035471f26112c29,3,0,1,1,2,1,lobster,,,,,,,,,,,,,,,,,,,,,,,,,,,,,,,,,,,,,,,,,,,,,,,,,,,,,,,,,,,,,,,,,,,,,,,,,,,,,,,,,,,,,,,
,,,,,,,,,,stimuli/images/PICTURE_697.png,KILLER,5dd9b8d616d10c946aa47e2f,07/24/1999,2020-08-27_10h42.37.380,proactive3.2,2020.1.2,MacIntel,60,5f47c0b9b035471e11593a5c,5f47c63fb035471f26112c29,3,0,2,2,4,1,peach,,,,,,,,,,,,,,,,,,,,,,,,,,,,,,,,,,,,,,,,,,,,,,,,,,,,,,,,,,,,,,,,,,,,,,,,,,,,,,,,,,,,,,,
,,,,,,,,,,stimuli/images/PICTURE_658.png,DEVIL,5dd9b8d616d10c946aa47e2f,07/24/1999,2020-08-27_10h42.37.380,proactive3.2,2020.1.2,MacIntel,60,5f47c0b9b035471e11593a5c,5f47c63fb035471f26112c29,3,0,3,3,3,1,crow,,,,,,,,,,,,,,,,,,,,,,,,,,,,,,,,,,,,,,,,,,,,,,,,,,,,,,,,,,,,,,,,,,,,,,,,,,,,,,,,,,,,,,,
,,CELL,1.545955,1,,,,,,stimuli/images/PICTURE_727.png,CELL,5dd9b8d616d10c946aa47e2f,07/24/1999,2020-08-27_10h42.37.380,proactive3.2,2020.1.2,MacIntel,60,5f47c0b9b035471e11593a5c,5f47c63fb035471f26112c29,3,,,,,,hose,0,0,0,1,1,,,,,,,,,,,,,,,,,,,,,,,,,,,,,,,,,,,,,,,,,,,,,,,,,,,,,,,,,,,,,,,,,,,,,,,,,,,,,,,,,,
,,KILLER,1.44941,1,,,,,,stimuli/images/PICTURE_697.png,KILLER,5dd9b8d616d10c946aa47e2f,07/24/1999,2020-08-27_10h42.37.380,proactive3.2,2020.1.2,MacIntel,60,5f47c0b9b035471e11593a5c,5f47c63fb035471f26112c29,3,,,,,,peach,0,1,1,4,1,,,,,,,,,,,,,,,,,,,,,,,,,,,,,,,,,,,,,,,,,,,,,,,,,,,,,,,,,,,,,,,,,,,,,,,,,,,,,,,,,,
,,GENIUS,1.66536,1,,,,,,stimuli/images/PICTURE_269.png,GENIUS,5dd9b8d616d10c946aa47e2f,07/24/1999,2020-08-27_10h42.37.380,proactive3.2,2020.1.2,MacIntel,60,5f47c0b9b035471e11593a5c,5f47c63fb035471f26112c29,3,,,,,,chameleon,0,2,2,0,1,,,,,,,,,,,,,,,,,,,,,,,,,,,,,,,,,,,,,,,,,,,,,,,,,,,,,,,,,,,,,,,,,,,,,,,,,,,,,,,,,,
,,DEVIL,1.29914,1,,,,,,stimuli/images/PICTURE_658.png,DEVIL,5dd9b8d616d10c946aa47e2f,07/24/1999,2020-08-27_10h42.37.380,proactive3.2,2020.1.2,MacIntel,60,5f47c0b9b035471e11593a5c,5f47c63fb035471f26112c29,3,,,,,,crow,0,3,3,3,1,,,,,,,,,,,,,,,,,,,,,,,,,,,,,,,,,,,,,,,,,,,,,,,,,,,,,,,,,,,,,,,,,,,,,,,,,,,,,,,,,,
,,LOSS,0.99935,1,,,,,,stimuli/images/PICTURE_378.png,LOSS,5dd9b8d616d10c946aa47e2f,07/24/1999,2020-08-27_10h42.37.380,proactive3.2,2020.1.2,MacIntel,60,5f47c0b9b035471e11593a5c,5f47c63fb035471f26112c29,3,,,,,,lobster,0,4,4,2,1,,,,,,,,,,,,,,,,,,,,,,,,,,,,,,,,,,,,,,,,,,,,,,,,,,,,,,,,,,,,,,,,,,,,,,,,,,,,,,,,,,
,,,,,,,,,,stimuli/images/PICTURE_208.png,THING,5dd9b8d616d10c946aa47e2f,07/24/1999,2020-08-27_10h42.37.380,proactive3.2,2020.1.2,MacIntel,60,5f47c0b9b035471e11593a5c,5f47c63fb035471f26112c29,3,,,,,,microphone,,,,,,0,0,0,47,1,5,0,,,,,,,,,,,,,,,,,,,,,,,,,,,,,,,,,,,,,,,,,,,,,,,,,,,,,,,,,,,,,,,,,,,,,,,,,,,
,,,,,,,,,,stimuli/images/PICTURE_123.png,ADVICE,5dd9b8d616d10c946aa47e2f,07/24/1999,2020-08-27_10h42.37.380,proactive3.2,2020.1.2,MacIntel,60,5f47c0b9b035471e11593a5c,5f47c63fb035471f26112c29,3,,,,,,dart,,,,,,0,1,1,40,1,5,0,,,,,,,,,,,,,,,,,,,,,,,,,,,,,,,,,,,,,,,,,,,,,,,,,,,,,,,,,,,,,,,,,,,,,,,,,,,
,,,,,,,,,,stimuli/images/PICTURE_215.png,PLENTY,5dd9b8d616d10c946aa47e2f,07/24/1999,2020-08-27_10h42.37.380,proactive3.2,2020.1.2,MacIntel,60,5f47c0b9b035471e11593a5c,5f47c63fb035471f26112c29,3,,,,,,boot,,,,,,0,2,2,37,1,4,0,,,,,,,,,,,,,,,,,,,,,,,,,,,,,,,,,,,,,,,,,,,,,,,,,,,,,,,,,,,,,,,,,,,,,,,,,,,
,,,,,,,,,,stimuli/images/PICTURE_85.png,THING,5dd9b8d616d10c946aa47e2f,07/24/1999,2020-08-27_10h42.37.380,proactive3.2,2020.1.2,MacIntel,60,5f47c0b9b035471e11593a5c,5f47c63fb035471f26112c29,3,,,,,,diamond,,,,,,0,3,3,15,1,2,0,,,,,,,,,,,,,,,,,,,,,,,,,,,,,,,,,,,,,,,,,,,,,,,,,,,,,,,,,,,,,,,,,,,,,,,,,,,
,,,,,,,,,,stimuli/images/PICTURE_667.png,BATH,5dd9b8d616d10c946aa47e2f,07/24/1999,2020-08-27_10h42.37.380,proactive3.2,2020.1.2,MacIntel,60,5f47c0b9b035471e11593a5c,5f47c63fb035471f26112c29,3,,,,,,daisy,,,,,,0,4,4,4,1,1,0,,,,,,,,,,,,,,,,,,,,,,,,,,,,,,,,,,,,,,,,,,,,,,,,,,,,,,,,,,,,,,,,,,,,,,,,,,,
,,,,,,,,,,stimuli/images/PICTURE_123.png,ADVICE,5dd9b8d616d10c946aa47e2f,07/24/1999,2020-08-27_10h42.37.380,proactive3.2,2020.1.2,MacIntel,60,5f47c0b9b035471e11593a5c,5f47c63fb035471f26112c29,3,,,,,,dart,,,,,,0,5,5,50,1,6,0,,,,,,,,,,,,,,,,,,,,,,,,,,,,,,,,,,,,,,,,,,,,,,,,,,,,,,,,,,,,,,,,,,,,,,,,,,,
,,,,,,,,,,stimuli/images/PICTURE_667.png,PLENTY,5dd9b8d616d10c946aa47e2f,07/24/1999,2020-08-27_10h42.37.380,proactive3.2,2020.1.2,MacIntel,60,5f47c0b9b035471e11593a5c,5f47c63fb035471f26112c29,3,,,,,,daisy,,,,,,0,6,6,41,1,5,0,,,,,,,,,,,,,,,,,,,,,,,,,,,,,,,,,,,,,,,,,,,,,,,,,,,,,,,,,,,,,,,,,,,,,,,,,,,
,,,,,,,,,,stimuli/images/PICTURE_327.png,BEAUTY,5dd9b8d616d10c946aa47e2f,07/24/1999,2020-08-27_10h42.37.380,proactive3.2,2020.1.2,MacIntel,60,5f47c0b9b035471e11593a5c,5f47c63fb035471f26112c29,3,,,,,,helmet,,,,,,0,7,7,48,1,5,0,,,,,,,,,,,,,,,,,,,,,,,,,,,,,,,,,,,,,,,,,,,,,,,,,,,,,,,,,,,,,,,,,,,,,,,,,,,
,,,,,,,,,,stimuli/images/PICTURE_449.png,THING,5dd9b8d616d10c946aa47e2f,07/24/1999,2020-08-27_10h42.37.380,proactive3.2,2020.1.2,MacIntel,60,5f47c0b9b035471e11593a5c,5f47c63fb035471f26112c29,3,,,,,,bench,,,,,,0,8,8,59,1,6,0,,,,,,,,,,,,,,,,,,,,,,,,,,,,,,,,,,,,,,,,,,,,,,,,,,,,,,,,,,,,,,,,,,,,,,,,,,,
,,,,,,,,,,stimuli/images/PICTURE_339.png,PLENTY,5dd9b8d616d10c946aa47e2f,07/24/1999,2020-08-27_10h42.37.380,proactive3.2,2020.1.2,MacIntel,60,5f47c0b9b035471e11593a5c,5f47c63fb035471f26112c29,3,,,,,,backpack,,,,,,0,9,9,0,1,1,0,,,,,,,,,,,,,,,,,,,,,,,,,,,,,,,,,,,,,,,,,,,,,,,,,,,,,,,,,,,,,,,,,,,,,,,,,,,
,,,,,,,,,,stimuli/images/PICTURE_311.png,BEAUTY,5dd9b8d616d10c946aa47e2f,07/24/1999,2020-08-27_10h42.37.380,proactive3.2,2020.1.2,MacIntel,60,5f47c0b9b035471e11593a5c,5f47c63fb035471f26112c29,3,,,,,,razor,,,,,,0,10,10,13,1,2,0,,,,,,,,,,,,,,,,,,,,,,,,,,,,,,,,,,,,,,,,,,,,,,,,,,,,,,,,,,,,,,,,,,,,,,,,,,,
,,,,,,,,,,stimuli/images/PICTURE_151.png,GIRL,5dd9b8d616d10c946aa47e2f,07/24/1999,2020-08-27_10h42.37.380,proactive3.2,2020.1.2,MacIntel,60,5f47c0b9b035471e11593a5c,5f47c63fb035471f26112c29,3,,,,,,tray,,,,,,0,11,11,19,1,2,0,,,,,,,,,,,,,,,,,,,,,,,,,,,,,,,,,,,,,,,,,,,,,,,,,,,,,,,,,,,,,,,,,,,,,,,,,,,
,,,,,,,,,,stimuli/images/PICTURE_744.png,SYSTEM,5dd9b8d616d10c946aa47e2f,07/24/1999,2020-08-27_10h42.37.380,proactive3.2,2020.1.2,MacIntel,60,5f47c0b9b035471e11593a5c,5f47c63fb035471f26112c29,3,,,,,,ring,,,,,,0,12,12,43,1,5,0,,,,,,,,,,,,,,,,,,,,,,,,,,,,,,,,,,,,,,,,,,,,,,,,,,,,,,,,,,,,,,,,,,,,,,,,,,,
,,,,,,,,,,stimuli/images/PICTURE_469.png,LETTER,5dd9b8d616d10c946aa47e2f,07/24/1999,2020-08-27_10h42.37.380,proactive3.2,2020.1.2,MacIntel,60,5f47c0b9b035471e11593a5c,5f47c63fb035471f26112c29,3,,,,,,stool,,,,,,0,13,13,42,1,5,0,,,,,,,,,,,,,,,,,,,,,,,,,,,,,,,,,,,,,,,,,,,,,,,,,,,,,,,,,,,,,,,,,,,,,,,,,,,
,,,,,,,,,,stimuli/images/PICTURE_675.png,WEAPON,5dd9b8d616d10c946aa47e2f,07/24/1999,2020-08-27_10h42.37.380,proactive3.2,2020.1.2,MacIntel,60,5f47c0b9b035471e11593a5c,5f47c63fb035471f26112c29,3,,,,,,windmill,,,,,,0,14,14,32,1,4,0,,,,,,,,,,,,,,,,,,,,,,,,,,,,,,,,,,,,,,,,,,,,,,,,,,,,,,,,,,,,,,,,,,,,,,,,,,,
,,,,,,,,,,stimuli/images/PICTURE_688.png,CASINO,5dd9b8d616d10c946aa47e2f,07/24/1999,2020-08-27_10h42.37.380,proactive3.2,2020.1.2,MacIntel,60,5f47c0b9b035471e11593a5c,5f47c63fb035471f26112c29,3,,,,,,runner,,,,,,0,15,15,2,1,1,0,,,,,,,,,,,,,,,,,,,,,,,,,,,,,,,,,,,,,,,,,,,,,,,,,,,,,,,,,,,,,,,,,,,,,,,,,,,
,,,,,,,,,,stimuli/images/PICTURE_380.png,PHOTO,5dd9b8d616d10c946aa47e2f,07/24/1999,2020-08-27_10h42.37.380,proactive3.2,2020.1.2,MacIntel,60,5f47c0b9b035471e11593a5c,5f47c63fb035471f26112c29,3,,,,,,gorilla,,,,,,0,16,16,52,1,6,0,,,,,,,,,,,,,,,,,,,,,,,,,,,,,,,,,,,,,,,,,,,,,,,,,,,,,,,,,,,,,,,,,,,,,,,,,,,
,,,,,,,,,,stimuli/images/PICTURE_255.png,AREA,5dd9b8d616d10c946aa47e2f,07/24/1999,2020-08-27_10h42.37.380,proactive3.2,2020.1.2,MacIntel,60,5f47c0b9b035471e11593a5c,5f47c63fb035471f26112c29,3,,,,,,shovel,,,,,,0,17,17,22,1,3,0,,,,,,,,,,,,,,,,,,,,,,,,,,,,,,,,,,,,,,,,,,,,,,,,,,,,,,,,,,,,,,,,,,,,,,,,,,,
,,,,,,,,,,stimuli/images/PICTURE_356.png,DANGER,5dd9b8d616d10c946aa47e2f,07/24/1999,2020-08-27_10h42.37.380,proactive3.2,2020.1.2,MacIntel,60,5f47c0b9b035471e11593a5c,5f47c63fb035471f26112c29,3,,,,,,pawn,,,,,,0,18,18,55,1,6,0,,,,,,,,,,,,,,,,,,,,,,,,,,,,,,,,,,,,,,,,,,,,,,,,,,,,,,,,,,,,,,,,,,,,,,,,,,,
,,,,,,,,,,stimuli/images/PICTURE_488.png,STYLE,5dd9b8d616d10c946aa47e2f,07/24/1999,2020-08-27_10h42.37.380,proactive3.2,2020.1.2,MacIntel,60,5f47c0b9b035471e11593a5c,5f47c63fb035471f26112c29,3,,,,,,sun,,,,,,0,19,19,33,1,4,0,,,,,,,,,,,,,,,,,,,,,,,,,,,,,,,,,,,,,,,,,,,,,,,,,,,,,,,,,,,,,,,,,,,,,,,,,,,
,,,,,,,,,,stimuli/images/PICTURE_285.png,ADVICE,5dd9b8d616d10c946aa47e2f,07/24/1999,2020-08-27_10h42.37.380,proactive3.2,2020.1.2,MacIntel,60,5f47c0b9b035471e11593a5c,5f47c63fb035471f26112c29,3,,,,,,carrot,,,,,,0,20,20,12,1,2,0,,,,,,,,,,,,,,,,,,,,,,,,,,,,,,,,,,,,,,,,,,,,,,,,,,,,,,,,,,,,,,,,,,,,,,,,,,,
,,,,,,,,,,stimuli/images/PICTURE_248.png,DOZEN,5dd9b8d616d10c946aa47e2f,07/24/1999,2020-08-27_10h42.37.380,proactive3.2,2020.1.2,MacIntel,60,5f47c0b9b035471e11593a5c,5f47c63fb035471f26112c29,3,,,,,,cart,,,,,,0,21,21,39,1,4,0,,,,,,,,,,,,,,,,,,,,,,,,,,,,,,,,,,,,,,,,,,,,,,,,,,,,,,,,,,,,,,,,,,,,,,,,,,,
,,,,,,,,,,stimuli/images/PICTURE_233.png,WOMEN,5dd9b8d616d10c946aa47e2f,07/24/1999,2020-08-27_10h42.37.380,proactive3.2,2020.1.2,MacIntel,60,5f47c0b9b035471e11593a5c,5f47c63fb035471f26112c29,3,,,,,,salt,,,,,,0,22,22,38,1,4,0,,,,,,,,,,,,,,,,,,,,,,,,,,,,,,,,,,,,,,,,,,,,,,,,,,,,,,,,,,,,,,,,,,,,,,,,,,,
,,,,,,,,,,stimuli/images/PICTURE_302.png,FAMILY,5dd9b8d616d10c946aa47e2f,07/24/1999,2020-08-27_10h42.37.380,proactive3.2,2020.1.2,MacIntel,60,5f47c0b9b035471e11593a5c,5f47c63fb035471f26112c29,3,,,,,,taxi,,,,,,0,23,23,18,1,2,0,,,,,,,,,,,,,,,,,,,,,,,,,,,,,,,,,,,,,,,,,,,,,,,,,,,,,,,,,,,,,,,,,,,,,,,,,,,
,,,,,,,,,,stimuli/images/PICTURE_491.png,WRITER,5dd9b8d616d10c946aa47e2f,07/24/1999,2020-08-27_10h42.37.380,proactive3.2,2020.1.2,MacIntel,60,5f47c0b9b035471e11593a5c,5f47c63fb035471f26112c29,3,,,,,,rug,,,,,,0,24,24,57,1,6,0,,,,,,,,,,,,,,,,,,,,,,,,,,,,,,,,,,,,,,,,,,,,,,,,,,,,,,,,,,,,,,,,,,,,,,,,,,,
,,,,,,,,,,stimuli/images/PICTURE_208.png,MONTH,5dd9b8d616d10c946aa47e2f,07/24/1999,2020-08-27_10h42.37.380,proactive3.2,2020.1.2,MacIntel,60,5f47c0b9b035471e11593a5c,5f47c63fb035471f26112c29,3,,,,,,microphone,,,,,,0,25,25,53,1,6,0,,,,,,,,,,,,,,,,,,,,,,,,,,,,,,,,,,,,,,,,,,,,,,,,,,,,,,,,,,,,,,,,,,,,,,,,,,,
,,,,,,,,,,stimuli/images/PICTURE_453.png,PLENTY,5dd9b8d616d10c946aa47e2f,07/24/1999,2020-08-27_10h42.37.380,proactive3.2,2020.1.2,MacIntel,60,5f47c0b9b035471e11593a5c,5f47c63fb035471f26112c29,3,,,,,,scissors,,,,,,0,26,26,56,1,6,0,,,,,,,,,,,,,,,,,,,,,,,,,,,,,,,,,,,,,,,,,,,,,,,,,,,,,,,,,,,,,,,,,,,,,,,,,,,
,,,,,,,,,,stimuli/images/PICTURE_692.png,MONTH,5dd9b8d616d10c946aa47e2f,07/24/1999,2020-08-27_10h42.37.380,proactive3.2,2020.1.2,MacIntel,60,5f47c0b9b035471e11593a5c,5f47c63fb035471f26112c29,3,,,,,,cherry,,,,,,0,27,27,16,1,2,0,,,,,,,,,,,,,,,,,,,,,,,,,,,,,,,,,,,,,,,,,,,,,,,,,,,,,,,,,,,,,,,,,,,,,,,,,,,
,,,,,,,,,,stimuli/images/PICTURE_308.png,KIND,5dd9b8d616d10c946aa47e2f,07/24/1999,2020-08-27_10h42.37.380,proactive3.2,2020.1.2,MacIntel,60,5f47c0b9b035471e11593a5c,5f47c63fb035471f26112c29,3,,,,,,dice,,,,,,0,28,28,54,1,6,0,,,,,,,,,,,,,,,,,,,,,,,,,,,,,,,,,,,,,,,,,,,,,,,,,,,,,,,,,,,,,,,,,,,,,,,,,,,
,,,,,,,,,,stimuli/images/PICTURE_654.png,VALLEY,5dd9b8d616d10c946aa47e2f,07/24/1999,2020-08-27_10h42.37.380,proactive3.2,2020.1.2,MacIntel,60,5f47c0b9b035471e11593a5c,5f47c63fb035471f26112c29,3,,,,,,pencil,,,,,,0,29,29,1,1,1,0,,,,,,,,,,,,,,,,,,,,,,,,,,,,,,,,,,,,,,,,,,,,,,,,,,,,,,,,,,,,,,,,,,,,,,,,,,,
,,,,,,,,,,stimuli/images/PICTURE_487.png,FLIGHT,5dd9b8d616d10c946aa47e2f,07/24/1999,2020-08-27_10h42.37.380,proactive3.2,2020.1.2,MacIntel,60,5f47c0b9b035471e11593a5c,5f47c63fb035471f26112c29,3,,,,,,basket,,,,,,0,30,30,9,1,1,0,,,,,,,,,,,,,,,,,,,,,,,,,,,,,,,,,,,,,,,,,,,,,,,,,,,,,,,,,,,,,,,,,,,,,,,,,,,
,,,,,,,,,,stimuli/images/PICTURE_469.png,ARTIST,5dd9b8d616d10c946aa47e2f,07/24/1999,2020-08-27_10h42.37.380,proactive3.2,2020.1.2,MacIntel,60,5f47c0b9b035471e11593a5c,5f47c63fb035471f26112c29,3,,,,,,stool,,,,,,0,31,31,6,1,1,0,,,,,,,,,,,,,,,,,,,,,,,,,,,,,,,,,,,,,,,,,,,,,,,,,,,,,,,,,,,,,,,,,,,,,,,,,,,
,,,,,,,,,,stimuli/images/PICTURE_160.png,FEET,5dd9b8d616d10c946aa47e2f,07/24/1999,2020-08-27_10h42.37.380,proactive3.2,2020.1.2,MacIntel,60,5f47c0b9b035471e11593a5c,5f47c63fb035471f26112c29,3,,,,,,wheelbarrow,,,,,,0,32,32,58,1,6,0,,,,,,,,,,,,,,,,,,,,,,,,,,,,,,,,,,,,,,,,,,,,,,,,,,,,,,,,,,,,,,,,,,,,,,,,,,,
,,,,,,,,,,stimuli/images/PICTURE_744.png,SAKE,5dd9b8d616d10c946aa47e2f,07/24/1999,2020-08-27_10h42.37.380,proactive3.2,2020.1.2,MacIntel,60,5f47c0b9b035471e11593a5c,5f47c63fb035471f26112c29,3,,,,,,ring,,,,,,0,33,33,17,1,2,0,,,,,,,,,,,,,,,,,,,,,,,,,,,,,,,,,,,,,,,,,,,,,,,,,,,,,,,,,,,,,,,,,,,,,,,,,,,
,,,,,,,,,,stimuli/images/PICTURE_160.png,LEADER,5dd9b8d616d10c946aa47e2f,07/24/1999,2020-08-27_10h42.37.380,proactive3.2,2020.1.2,MacIntel,60,5f47c0b9b035471e11593a5c,5f47c63fb035471f26112c29,3,,,,,,wheelbarrow,,,,,,0,34,34,3,1,1,0,,,,,,,,,,,,,,,,,,,,,,,,,,,,,,,,,,,,,,,,,,,,,,,,,,,,,,,,,,,,,,,,,,,,,,,,,,,
,,,,,,,,,,stimuli/images/PICTURE_314.png,GODS,5dd9b8d616d10c946aa47e2f,07/24/1999,2020-08-27_10h42.37.380,proactive3.2,2020.1.2,MacIntel,60,5f47c0b9b035471e11593a5c,5f47c63fb035471f26112c29,3,,,,,,perfume,,,,,,0,35,35,11,1,2,0,,,,,,,,,,,,,,,,,,,,,,,,,,,,,,,,,,,,,,,,,,,,,,,,,,,,,,,,,,,,,,,,,,,,,,,,,,,
,,,,,,,,,,stimuli/images/PICTURE_314.png,SAKE,5dd9b8d616d10c946aa47e2f,07/24/1999,2020-08-27_10h42.37.380,proactive3.2,2020.1.2,MacIntel,60,5f47c0b9b035471e11593a5c,5f47c63fb035471f26112c29,3,,,,,,perfume,,,,,,0,36,36,7,1,1,0,,,,,,,,,,,,,,,,,,,,,,,,,,,,,,,,,,,,,,,,,,,,,,,,,,,,,,,,,,,,,,,,,,,,,,,,,,,
,,,,,,,,,,stimuli/images/PICTURE_504.png,BODY,5dd9b8d616d10c946aa47e2f,07/24/1999,2020-08-27_10h42.37.380,proactive3.2,2020.1.2,MacIntel,60,5f47c0b9b035471e11593a5c,5f47c63fb035471f26112c29,3,,,,,,wheel,,,,,,0,37,37,8,1,1,0,,,,,,,,,,,,,,,,,,,,,,,,,,,,,,,,,,,,,,,,,,,,,,,,,,,,,,,,,,,,,,,,,,,,,,,,,,,
,,,,,,,,,,stimuli/images/PICTURE_688.png,WOMEN,5dd9b8d616d10c946aa47e2f,07/24/1999,2020-08-27_10h42.37.380,proactive3.2,2020.1.2,MacIntel,60,5f47c0b9b035471e11593a5c,5f47c63fb035471f26112c29,3,,,,,,runner,,,,,,0,38,38,14,1,2,0,,,,,,,,,,,,,,,,,,,,,,,,,,,,,,,,,,,,,,,,,,,,,,,,,,,,,,,,,,,,,,,,,,,,,,,,,,,
,,,,,,,,,,stimuli/images/PICTURE_95.png,STYLE,5dd9b8d616d10c946aa47e2f,07/24/1999,2020-08-27_10h42.37.380,proactive3.2,2020.1.2,MacIntel,60,5f47c0b9b035471e11593a5c,5f47c63fb035471f26112c29,3,,,,,,suitcase,,,,,,0,39,39,25,1,3,0,,,,,,,,,,,,,,,,,,,,,,,,,,,,,,,,,,,,,,,,,,,,,,,,,,,,,,,,,,,,,,,,,,,,,,,,,,,
,,,,,,,,,,stimuli/images/PICTURE_470.png,CASINO,5dd9b8d616d10c946aa47e2f,07/24/1999,2020-08-27_10h42.37.380,proactive3.2,2020.1.2,MacIntel,60,5f47c0b9b035471e11593a5c,5f47c63fb035471f26112c29,3,,,,,,motorbike,,,,,,0,40,40,36,1,4,0,,,,,,,,,,,,,,,,,,,,,,,,,,,,,,,,,,,,,,,,,,,,,,,,,,,,,,,,,,,,,,,,,,,,,,,,,,,
,,,,,,,,,,stimuli/images/PICTURE_708.png,PENNY,5dd9b8d616d10c946aa47e2f,07/24/1999,2020-08-27_10h42.37.380,proactive3.2,2020.1.2,MacIntel,60,5f47c0b9b035471e11593a5c,5f47c63fb035471f26112c29,3,,,,,,monkey,,,,,,0,41,41,31,1,4,0,,,,,,,,,,,,,,,,,,,,,,,,,,,,,,,,,,,,,,,,,,,,,,,,,,,,,,,,,,,,,,,,,,,,,,,,,,,
,,,,,,,,,,stimuli/images/PICTURE_509.png,PHOTO,5dd9b8d616d10c946aa47e2f,07/24/1999,2020-08-27_10h42.37.380,proactive3.2,2020.1.2,MacIntel,60,5f47c0b9b035471e11593a5c,5f47c63fb035471f26112c29,3,,,,,,telephone,,,,,,0,42,42,21,1,3,0,,,,,,,,,,,,,,,,,,,,,,,,,,,,,,,,,,,,,,,,,,,,,,,,,,,,,,,,,,,,,,,,,,,,,,,,,,,
,,,,,,,,,,stimuli/images/PICTURE_708.png,YARD,5dd9b8d616d10c946aa47e2f,07/24/1999,2020-08-27_10h42.37.380,proactive3.2,2020.1.2,MacIntel,60,5f47c0b9b035471e11593a5c,5f47c63fb035471f26112c29,3,,,,,,monkey,,,,,,0,43,43,29,1,3,0,,,,,,,,,,,,,,,,,,,,,,,,,,,,,,,,,,,,,,,,,,,,,,,,,,,,,,,,,,,,,,,,,,,,,,,,,,,
,,,,,,,,,,stimuli/images/PICTURE_380.png,DEATH,5dd9b8d616d10c946aa47e2f,07/24/1999,2020-08-27_10h42.37.380,proactive3.2,2020.1.2,MacIntel,60,5f47c0b9b035471e11593a5c,5f47c63fb035471f26112c29,3,,,,,,gorilla,,,,,,0,44,44,49,1,5,0,,,,,,,,,,,,,,,,,,,,,,,,,,,,,,,,,,,,,,,,,,,,,,,,,,,,,,,,,,,,,,,,,,,,,,,,,,,
,,,,,,,,,,stimuli/images/PICTURE_311.png,FRIEND,5dd9b8d616d10c946aa47e2f,07/24/1999,2020-08-27_10h42.37.380,proactive3.2,2020.1.2,MacIntel,60,5f47c0b9b035471e11593a5c,5f47c63fb035471f26112c29,3,,,,,,razor,,,,,,0,45,45,34,1,4,0,,,,,,,,,,,,,,,,,,,,,,,,,,,,,,,,,,,,,,,,,,,,,,,,,,,,,,,,,,,,,,,,,,,,,,,,,,,
,,,,,,,,,,stimuli/images/PICTURE_308.png,ESTATE,5dd9b8d616d10c946aa47e2f,07/24/1999,2020-08-27_10h42.37.380,proactive3.2,2020.1.2,MacIntel,60,5f47c0b9b035471e11593a5c,5f47c63fb035471f26112c29,3,,,,,,dice,,,,,,0,46,46,46,1,5,0,,,,,,,,,,,,,,,,,,,,,,,,,,,,,,,,,,,,,,,,,,,,,,,,,,,,,,,,,,,,,,,,,,,,,,,,,,,
,,,,,,,,,,stimuli/images/PICTURE_177.png,CARS,5dd9b8d616d10c946aa47e2f,07/24/1999,2020-08-27_10h42.37.380,proactive3.2,2020.1.2,MacIntel,60,5f47c0b9b035471e11593a5c,5f47c63fb035471f26112c29,3,,,,,,mushroom,,,,,,0,47,47,35,1,4,0,,,,,,,,,,,,,,,,,,,,,,,,,,,,,,,,,,,,,,,,,,,,,,,,,,,,,,,,,,,,,,,,,,,,,,,,,,,
,,,,,,,,,,stimuli/images/PICTURE_491.png,ROOF,5dd9b8d616d10c946aa47e2f,07/24/1999,2020-08-27_10h42.37.380,proactive3.2,2020.1.2,MacIntel,60,5f47c0b9b035471e11593a5c,5f47c63fb035471f26112c29,3,,,,,,rug,,,,,,0,48,48,24,1,3,0,,,,,,,,,,,,,,,,,,,,,,,,,,,,,,,,,,,,,,,,,,,,,,,,,,,,,,,,,,,,,,,,,,,,,,,,,,,
,,,,,,,,,,stimuli/images/PICTURE_32.png,JUNGLE,5dd9b8d616d10c946aa47e2f,07/24/1999,2020-08-27_10h42.37.380,proactive3.2,2020.1.2,MacIntel,60,5f47c0b9b035471e11593a5c,5f47c63fb035471f26112c29,3,,,,,,crown,,,,,,0,49,49,45,1,5,0,,,,,,,,,,,,,,,,,,,,,,,,,,,,,,,,,,,,,,,,,,,,,,,,,,,,,,,,,,,,,,,,,,,,,,,,,,,
,,,,,,,,,,stimuli/images/PICTURE_453.png,DUDE,5dd9b8d616d10c946aa47e2f,07/24/1999,2020-08-27_10h42.37.380,proactive3.2,2020.1.2,MacIntel,60,5f47c0b9b035471e11593a5c,5f47c63fb035471f26112c29,3,,,,,,scissors,,,,,,0,50,50,27,1,3,0,,,,,,,,,,,,,,,,,,,,,,,,,,,,,,,,,,,,,,,,,,,,,,,,,,,,,,,,,,,,,,,,,,,,,,,,,,,
,,,,,,,,,,stimuli/images/PICTURE_677.png,MILE,5dd9b8d616d10c946aa47e2f,07/24/1999,2020-08-27_10h42.37.380,proactive3.2,2020.1.2,MacIntel,60,5f47c0b9b035471e11593a5c,5f47c63fb035471f26112c29,3,,,,,,map,,,,,,0,51,51,30,1,4,0,,,,,,,,,,,,,,,,,,,,,,,,,,,,,,,,,,,,,,,,,,,,,,,,,,,,,,,,,,,,,,,,,,,,,,,,,,,
,,,,,,,,,,stimuli/images/PICTURE_233.png,IDEAS,5dd9b8d616d10c946aa47e2f,07/24/1999,2020-08-27_10h42.37.380,proactive3.2,2020.1.2,MacIntel,60,5f47c0b9b035471e11593a5c,5f47c63fb035471f26112c29,3,,,,,,salt,,,,,,0,52,52,28,1,3,0,,,,,,,,,,,,,,,,,,,,,,,,,,,,,,,,,,,,,,,,,,,,,,,,,,,,,,,,,,,,,,,,,,,,,,,,,,,
,,,,,,,,,,stimuli/images/PICTURE_708.png,CLIENT,5dd9b8d616d10c946aa47e2f,07/24/1999,2020-08-27_10h42.37.380,proactive3.2,2020.1.2,MacIntel,60,5f47c0b9b035471e11593a5c,5f47c63fb035471f26112c29,3,,,,,,monkey,,,,,,0,53,53,5,1,1,0,,,,,,,,,,,,,,,,,,,,,,,,,,,,,,,,,,,,,,,,,,,,,,,,,,,,,,,,,,,,,,,,,,,,,,,,,,,
,,,,,,,,,,stimuli/images/PICTURE_208.png,LOTS,5dd9b8d616d10c946aa47e2f,07/24/1999,2020-08-27_10h42.37.380,proactive3.2,2020.1.2,MacIntel,60,5f47c0b9b035471e11593a5c,5f47c63fb035471f26112c29,3,,,,,,microphone,,,,,,0,54,54,10,1,2,0,,,,,,,,,,,,,,,,,,,,,,,,,,,,,,,,,,,,,,,,,,,,,,,,,,,,,,,,,,,,,,,,,,,,,,,,,,,
,,,,,,,,,,stimuli/images/PICTURE_203.png,ARTIST,5dd9b8d616d10c946aa47e2f,07/24/1999,2020-08-27_10h42.37.380,proactive3.2,2020.1.2,MacIntel,60,5f47c0b9b035471e11593a5c,5f47c63fb035471f26112c29,3,,,,,,cap,,,,,,0,55,55,26,1,3,0,,,,,,,,,,,,,,,,,,,,,,,,,,,,,,,,,,,,,,,,,,,,,,,,,,,,,,,,,,,,,,,,,,,,,,,,,,,
,,,,,,,,,,stimuli/images/PICTURE_147.png,MOMENT,5dd9b8d616d10c946aa47e2f,07/24/1999,2020-08-27_10h42.37.380,proactive3.2,2020.1.2,MacIntel,60,5f47c0b9b035471e11593a5c,5f47c63fb035471f26112c29,3,,,,,,hanger,,,,,,0,56,56,51,1,6,0,,,,,,,,,,,,,,,,,,,,,,,,,,,,,,,,,,,,,,,,,,,,,,,,,,,,,,,,,,,,,,,,,,,,,,,,,,,
,,,,,,,,,,stimuli/images/PICTURE_467.png,DEMON,5dd9b8d616d10c946aa47e2f,07/24/1999,2020-08-27_10h42.37.380,proactive3.2,2020.1.2,MacIntel,60,5f47c0b9b035471e11593a5c,5f47c63fb035471f26112c29,3,,,,,,peg,,,,,,0,57,57,23,1,3,0,,,,,,,,,,,,,,,,,,,,,,,,,,,,,,,,,,,,,,,,,,,,,,,,,,,,,,,,,,,,,,,,,,,,,,,,,,,
,,,,,,,,,,stimuli/images/PICTURE_68.png,MILE,5dd9b8d616d10c946aa47e2f,07/24/1999,2020-08-27_10h42.37.380,proactive3.2,2020.1.2,MacIntel,60,5f47c0b9b035471e11593a5c,5f47c63fb035471f26112c29,3,,,,,,candle,,,,,,0,58,58,44,1,5,0,,,,,,,,,,,,,,,,,,,,,,,,,,,,,,,,,,,,,,,,,,,,,,,,,,,,,,,,,,,,,,,,,,,,,,,,,,,
,,PHOTO,2.044505,1,,,,,,stimuli/images/PICTURE_509.png,PHOTO,5dd9b8d616d10c946aa47e2f,07/24/1999,2020-08-27_10h42.37.380,proactive3.2,2020.1.2,MacIntel,60,5f47c0b9b035471e11593a5c,5f47c63fb035471f26112c29,3,,,,,,telephone,,,,,,,,,,,3,0,0,0,0,21,1,,,,,,,,,,,,,,,,,,,,,,,,,,,,,,,,,,,,,,,,,,,,,,,,,,,,,,,,,,,,,,,,,,,,,,
,,?,0.00106,0,,,,,,stimuli/images/PICTURE_692.png,MONTH,5dd9b8d616d10c946aa47e2f,07/24/1999,2020-08-27_10h42.37.380,proactive3.2,2020.1.2,MacIntel,60,5f47c0b9b035471e11593a5c,5f47c63fb035471f26112c29,3,,,,,,cherry,,,,,,,,,,,2,0,0,1,1,16,1,,,,,,,,,,,,,,,,,,,,,,,,,,,,,,,,,,,,,,,,,,,,,,,,,,,,,,,,,,,,,,,,,,,,,,
,,?,0.000845,0,,,,,,stimuli/images/PICTURE_147.png,MOMENT,5dd9b8d616d10c946aa47e2f,07/24/1999,2020-08-27_10h42.37.380,proactive3.2,2020.1.2,MacIntel,60,5f47c0b9b035471e11593a5c,5f47c63fb035471f26112c29,3,,,,,,hanger,,,,,,,,,,,6,0,0,2,2,51,1,,,,,,,,,,,,,,,,,,,,,,,,,,,,,,,,,,,,,,,,,,,,,,,,,,,,,,,,,,,,,,,,,,,,,,
,,?,0.000775,0,,,,,,stimuli/images/PICTURE_302.png,FAMILY,5dd9b8d616d10c946aa47e2f,07/24/1999,2020-08-27_10h42.37.380,proactive3.2,2020.1.2,MacIntel,60,5f47c0b9b035471e11593a5c,5f47c63fb035471f26112c29,3,,,,,,taxi,,,,,,,,,,,2,0,0,3,3,18,1,,,,,,,,,,,,,,,,,,,,,,,,,,,,,,,,,,,,,,,,,,,,,,,,,,,,,,,,,,,,,,,,,,,,,,
,,?,0.00073,0,,,,,,stimuli/images/PICTURE_339.png,PLENTY,5dd9b8d616d10c946aa47e2f,07/24/1999,2020-08-27_10h42.37.380,proactive3.2,2020.1.2,MacIntel,60,5f47c0b9b035471e11593a5c,5f47c63fb035471f26112c29,3,,,,,,backpack,,,,,,,,,,,1,0,0,4,4,0,1,,,,,,,,,,,,,,,,,,,,,,,,,,,,,,,,,,,,,,,,,,,,,,,,,,,,,,,,,,,,,,,,,,,,,,
,,?,0.000505,0,,,,,,stimuli/images/PICTURE_469.png,ARTIST,5dd9b8d616d10c946aa47e2f,07/24/1999,2020-08-27_10h42.37.380,proactive3.2,2020.1.2,MacIntel,60,5f47c0b9b035471e11593a5c,5f47c63fb035471f26112c29,3,,,,,,stool,,,,,,,,,,,1,0,0,5,5,6,1,,,,,,,,,,,,,,,,,,,,,,,,,,,,,,,,,,,,,,,,,,,,,,,,,,,,,,,,,,,,,,,,,,,,,,
,,?,0.000605,0,,,,,,stimuli/images/PICTURE_675.png,WEAPON,5dd9b8d616d10c946aa47e2f,07/24/1999,2020-08-27_10h42.37.380,proactive3.2,2020.1.2,MacIntel,60,5f47c0b9b035471e11593a5c,5f47c63fb035471f26112c29,3,,,,,,windmill,,,,,,,,,,,4,0,0,6,6,32,1,,,,,,,,,,,,,,,,,,,,,,,,,,,,,,,,,,,,,,,,,,,,,,,,,,,,,,,,,,,,,,,,,,,,,,
,,?,0.00071,0,,,,,,stimuli/images/PICTURE_215.png,PLENTY,5dd9b8d616d10c946aa47e2f,07/24/1999,2020-08-27_10h42.37.380,proactive3.2,2020.1.2,MacIntel,60,5f47c0b9b035471e11593a5c,5f47c63fb035471f26112c29,3,,,,,,boot,,,,,,,,,,,4,0,0,7,7,37,1,,,,,,,,,,,,,,,,,,,,,,,,,,,,,,,,,,,,,,,,,,,,,,,,,,,,,,,,,,,,,,,,,,,,,,
,,YARD,1.402255,1,,,,,,stimuli/images/PICTURE_708.png,YARD,5dd9b8d616d10c946aa47e2f,07/24/1999,2020-08-27_10h42.37.380,proactive3.2,2020.1.2,MacIntel,60,5f47c0b9b035471e11593a5c,5f47c63fb035471f26112c29,3,,,,,,monkey,,,,,,,,,,,3,0,0,8,8,29,1,,,,,,,,,,,,,,,,,,,,,,,,,,,,,,,,,,,,,,,,,,,,,,,,,,,,,,,,,,,,,,,,,,,,,,
,,?,0.0014,0,,,,,,stimuli/images/PICTURE_151.png,GIRL,5dd9b8d616d10c946aa47e2f,07/24/1999,2020-08-27_10h42.37.380,proactive3.2,2020.1.2,MacIntel,60,5f47c0b9b035471e11593a5c,5f47c63fb035471f26112c29,3,,,,,,tray,,,,,,,,,,,2,0,0,9,9,19,1,,,,,,,,,,,,,,,,,,,,,,,,,,,,,,,,,,,,,,,,,,,,,,,,,,,,,,,,,,,,,,,,,,,,,,
,,?,0.000675,0,,,,,,stimuli/images/PICTURE_667.png,BATH,5dd9b8d616d10c946aa47e2f,07/24/1999,2020-08-27_10h42.37.380,proactive3.2,2020.1.2,MacIntel,60,5f47c0b9b035471e11593a5c,5f47c63fb035471f26112c29,3,,,,,,daisy,,,,,,,,,,,1,0,0,10,10,4,1,,,,,,,,,,,,,,,,,,,,,,,,,,,,,,,,,,,,,,,,,,,,,,,,,,,,,,,,,,,,,,,,,,,,,,
,,?,0.000555,0,,,,,,stimuli/images/PICTURE_314.png,SAKE,5dd9b8d616d10c946aa47e2f,07/24/1999,2020-08-27_10h42.37.380,proactive3.2,2020.1.2,MacIntel,60,5f47c0b9b035471e11593a5c,5f47c63fb035471f26112c29,3,,,,,,perfume,,,,,,,,,,,1,0,0,11,11,7,1,,,,,,,,,,,,,,,,,,,,,,,,,,,,,,,,,,,,,,,,,,,,,,,,,,,,,,,,,,,,,,,,,,,,,,
,,?,0.00071,0,,,,,,stimuli/images/PICTURE_744.png,SYSTEM,5dd9b8d616d10c946aa47e2f,07/24/1999,2020-08-27_10h42.37.380,proactive3.2,2020.1.2,MacIntel,60,5f47c0b9b035471e11593a5c,5f47c63fb035471f26112c29,3,,,,,,ring,,,,,,,,,,,5,0,0,12,12,43,1,,,,,,,,,,,,,,,,,,,,,,,,,,,,,,,,,,,,,,,,,,,,,,,,,,,,,,,,,,,,,,,,,,,,,,
,,?,0.00056,0,,,,,,stimuli/images/PICTURE_327.png,BEAUTY,5dd9b8d616d10c946aa47e2f,07/24/1999,2020-08-27_10h42.37.380,proactive3.2,2020.1.2,MacIntel,60,5f47c0b9b035471e11593a5c,5f47c63fb035471f26112c29,3,,,,,,helmet,,,,,,,,,,,5,0,0,13,13,48,1,,,,,,,,,,,,,,,,,,,,,,,,,,,,,,,,,,,,,,,,,,,,,,,,,,,,,,,,,,,,,,,,,,,,,,
,,?,0.000565,0,,,,,,stimuli/images/PICTURE_688.png,WOMEN,5dd9b8d616d10c946aa47e2f,07/24/1999,2020-08-27_10h42.37.380,proactive3.2,2020.1.2,MacIntel,60,5f47c0b9b035471e11593a5c,5f47c63fb035471f26112c29,3,,,,,,runner,,,,,,,,,,,2,0,0,14,14,14,1,,,,,,,,,,,,,,,,,,,,,,,,,,,,,,,,,,,,,,,,,,,,,,,,,,,,,,,,,,,,,,,,,,,,,,
,,?,0.00072,0,,,,,,stimuli/images/PICTURE_654.png,VALLEY,5dd9b8d616d10c946aa47e2f,07/24/1999,2020-08-27_10h42.37.380,proactive3.2,2020.1.2,MacIntel,60,5f47c0b9b035471e11593a5c,5f47c63fb035471f26112c29,3,,,,,,pencil,,,,,,,,,,,1,0,0,15,15,1,1,,,,,,,,,,,,,,,,,,,,,,,,,,,,,,,,,,,,,,,,,,,,,,,,,,,,,,,,,,,,,,,,,,,,,,
,,?,0.000655,0,,,,,,stimuli/images/PICTURE_311.png,BEAUTY,5dd9b8d616d10c946aa47e2f,07/24/1999,2020-08-27_10h42.37.380,proactive3.2,2020.1.2,MacIntel,60,5f47c0b9b035471e11593a5c,5f47c63fb035471f26112c29,3,,,,,,razor,,,,,,,,,,,2,0,0,16,16,13,1,,,,,,,,,,,,,,,,,,,,,,,,,,,,,,,,,,,,,,,,,,,,,,,,,,,,,,,,,,,,,,,,,,,,,,
,,?,0.00052,0,,,,,,stimuli/images/PICTURE_208.png,LOTS,5dd9b8d616d10c946aa47e2f,07/24/1999,2020-08-27_10h42.37.380,proactive3.2,2020.1.2,MacIntel,60,5f47c0b9b035471e11593a5c,5f47c63fb035471f26112c29,3,,,,,,microphone,,,,,,,,,,,2,0,0,17,17,10,1,,,,,,,,,,,,,,,,,,,,,,,,,,,,,,,,,,,,,,,,,,,,,,,,,,,,,,,,,,,,,,,,,,,,,,
,,?,0.000635,0,,,,,,stimuli/images/PICTURE_308.png,KIND,5dd9b8d616d10c946aa47e2f,07/24/1999,2020-08-27_10h42.37.380,proactive3.2,2020.1.2,MacIntel,60,5f47c0b9b035471e11593a5c,5f47c63fb035471f26112c29,3,,,,,,dice,,,,,,,,,,,6,0,0,18,18,54,1,,,,,,,,,,,,,,,,,,,,,,,,,,,,,,,,,,,,,,,,,,,,,,,,,,,,,,,,,,,,,,,,,,,,,,
,,?,0.000645,0,,,,,,stimuli/images/PICTURE_453.png,PLENTY,5dd9b8d616d10c946aa47e2f,07/24/1999,2020-08-27_10h42.37.380,proactive3.2,2020.1.2,MacIntel,60,5f47c0b9b035471e11593a5c,5f47c63fb035471f26112c29,3,,,,,,scissors,,,,,,,,,,,6,0,0,19,19,56,1,,,,,,,,,,,,,,,,,,,,,,,,,,,,,,,,,,,,,,,,,,,,,,,,,,,,,,,,,,,,,,,,,,,,,,
,,?,0.00056,0,,,,,,stimuli/images/PICTURE_469.png,LETTER,5dd9b8d616d10c946aa47e2f,07/24/1999,2020-08-27_10h42.37.380,proactive3.2,2020.1.2,MacIntel,60,5f47c0b9b035471e11593a5c,5f47c63fb035471f26112c29,3,,,,,,stool,,,,,,,,,,,5,0,0,20,20,42,1,,,,,,,,,,,,,,,,,,,,,,,,,,,,,,,,,,,,,,,,,,,,,,,,,,,,,,,,,,,,,,,,,,,,,,
,,?,0.00049,0,,,,,,stimuli/images/PICTURE_708.png,PENNY,5dd9b8d616d10c946aa47e2f,07/24/1999,2020-08-27_10h42.37.380,proactive3.2,2020.1.2,MacIntel,60,5f47c0b9b035471e11593a5c,5f47c63fb035471f26112c29,3,,,,,,monkey,,,,,,,,,,,4,0,0,21,21,31,1,,,,,,,,,,,,,,,,,,,,,,,,,,,,,,,,,,,,,,,,,,,,,,,,,,,,,,,,,,,,,,,,,,,,,,
,,ARTIST,1.34518,1,,,,,,stimuli/images/PICTURE_203.png,ARTIST,5dd9b8d616d10c946aa47e2f,07/24/1999,2020-08-27_10h42.37.380,proactive3.2,2020.1.2,MacIntel,60,5f47c0b9b035471e11593a5c,5f47c63fb035471f26112c29,3,,,,,,cap,,,,,,,,,,,3,0,0,22,22,26,1,,,,,,,,,,,,,,,,,,,,,,,,,,,,,,,,,,,,,,,,,,,,,,,,,,,,,,,,,,,,,,,,,,,,,,
,,?,0.001315,0,,,,,,stimuli/images/PICTURE_708.png,CLIENT,5dd9b8d616d10c946aa47e2f,07/24/1999,2020-08-27_10h42.37.380,proactive3.2,2020.1.2,MacIntel,60,5f47c0b9b035471e11593a5c,5f47c63fb035471f26112c29,3,,,,,,monkey,,,,,,,,,,,1,0,0,23,23,5,1,,,,,,,,,,,,,,,,,,,,,,,,,,,,,,,,,,,,,,,,,,,,,,,,,,,,,,,,,,,,,,,,,,,,,,
,,?,0.00066,0,,,,,,stimuli/images/PICTURE_491.png,WRITER,5dd9b8d616d10c946aa47e2f,07/24/1999,2020-08-27_10h42.37.380,proactive3.2,2020.1.2,MacIntel,60,5f47c0b9b035471e11593a5c,5f47c63fb035471f26112c29,3,,,,,,rug,,,,,,,,,,,6,0,0,24,24,57,1,,,,,,,,,,,,,,,,,,,,,,,,,,,,,,,,,,,,,,,,,,,,,,,,,,,,,,,,,,,,,,,,,,,,,,
,,?,0.00071,0,,,,,,stimuli/images/PICTURE_177.png,CARS,5dd9b8d616d10c946aa47e2f,07/24/1999,2020-08-27_10h42.37.380,proactive3.2,2020.1.2,MacIntel,60,5f47c0b9b035471e11593a5c,5f47c63fb035471f26112c29,3,,,,,,mushroom,,,,,,,,,,,4,0,0,25,25,35,1,,,,,,,,,,,,,,,,,,,,,,,,,,,,,,,,,,,,,,,,,,,,,,,,,,,,,,,,,,,,,,,,,,,,,,
,,?,0.00073,0,,,,,,stimuli/images/PICTURE_744.png,SAKE,5dd9b8d616d10c946aa47e2f,07/24/1999,2020-08-27_10h42.37.380,proactive3.2,2020.1.2,MacIntel,60,5f47c0b9b035471e11593a5c,5f47c63fb035471f26112c29,3,,,,,,ring,,,,,,,,,,,2,0,0,26,26,17,1,,,,,,,,,,,,,,,,,,,,,,,,,,,,,,,,,,,,,,,,,,,,,,,,,,,,,,,,,,,,,,,,,,,,,,
,,?,0.00063,0,,,,,,stimuli/images/PICTURE_688.png,CASINO,5dd9b8d616d10c946aa47e2f,07/24/1999,2020-08-27_10h42.37.380,proactive3.2,2020.1.2,MacIntel,60,5f47c0b9b035471e11593a5c,5f47c63fb035471f26112c29,3,,,,,,runner,,,,,,,,,,,1,0,0,27,27,2,1,,,,,,,,,,,,,,,,,,,,,,,,,,,,,,,,,,,,,,,,,,,,,,,,,,,,,,,,,,,,,,,,,,,,,,
,,?,0.000665,0,,,,,,stimuli/images/PICTURE_285.png,ADVICE,5dd9b8d616d10c946aa47e2f,07/24/1999,2020-08-27_10h42.37.380,proactive3.2,2020.1.2,MacIntel,60,5f47c0b9b035471e11593a5c,5f47c63fb035471f26112c29,3,,,,,,carrot,,,,,,,,,,,2,0,0,28,28,12,1,,,,,,,,,,,,,,,,,,,,,,,,,,,,,,,,,,,,,,,,,,,,,,,,,,,,,,,,,,,,,,,,,,,,,,
,,?,0.000625,0,,,,,,stimuli/images/PICTURE_160.png,LEADER,5dd9b8d616d10c946aa47e2f,07/24/1999,2020-08-27_10h42.37.380,proactive3.2,2020.1.2,MacIntel,60,5f47c0b9b035471e11593a5c,5f47c63fb035471f26112c29,3,,,,,,wheelbarrow,,,,,,,,,,,1,0,0,29,29,3,1,,,,,,,,,,,,,,,,,,,,,,,,,,,,,,,,,,,,,,,,,,,,,,,,,,,,,,,,,,,,,,,,,,,,,,
,,?,0.00059,0,,,,,,stimuli/images/PICTURE_308.png,ESTATE,5dd9b8d616d10c946aa47e2f,07/24/1999,2020-08-27_10h42.37.380,proactive3.2,2020.1.2,MacIntel,60,5f47c0b9b035471e11593a5c,5f47c63fb035471f26112c29,3,,,,,,dice,,,,,,,,,,,5,0,0,30,30,46,1,,,,,,,,,,,,,,,,,,,,,,,,,,,,,,,,,,,,,,,,,,,,,,,,,,,,,,,,,,,,,,,,,,,,,,
,,SPEECH,1.486515,1,,,,,,stimuli/images/PICTURE_348.png,SPEECH,5dd9b8d616d10c946aa47e2f,07/24/1999,2020-08-27_10h42.37.380,proactive3.2,2020.1.2,MacIntel,60,5f47c0b9b035471e11593a5c,5f47c63fb035471f26112c29,3,,,,,,pepper,,,,,,,,,,,3,0,0,31,31,20,1,,,,,,,,,,,,,,,,,,,,,,,,,,,,,,,,,,,,,,,,,,,,,,,,,,,,,,,,,,,,,,,,,,,,,,
,,?,0.00138,0,,,,,,stimuli/images/PICTURE_208.png,MONTH,5dd9b8d616d10c946aa47e2f,07/24/1999,2020-08-27_10h42.37.380,proactive3.2,2020.1.2,MacIntel,60,5f47c0b9b035471e11593a5c,5f47c63fb035471f26112c29,3,,,,,,microphone,,,,,,,,,,,6,0,0,32,32,53,1,,,,,,,,,,,,,,,,,,,,,,,,,,,,,,,,,,,,,,,,,,,,,,,,,,,,,,,,,,,,,,,,,,,,,,
,,AREA,1.16336,1,,,,,,stimuli/images/PICTURE_255.png,AREA,5dd9b8d616d10c946aa47e2f,07/24/1999,2020-08-27_10h42.37.380,proactive3.2,2020.1.2,MacIntel,60,5f47c0b9b035471e11593a5c,5f47c63fb035471f26112c29,3,,,,,,shovel,,,,,,,,,,,3,0,0,33,33,22,1,,,,,,,,,,,,,,,,,,,,,,,,,,,,,,,,,,,,,,,,,,,,,,,,,,,,,,,,,,,,,,,,,,,,,,
,,?,0.00148,0,,,,,,stimuli/images/PICTURE_380.png,PHOTO,5dd9b8d616d10c946aa47e2f,07/24/1999,2020-08-27_10h42.37.380,proactive3.2,2020.1.2,MacIntel,60,5f47c0b9b035471e11593a5c,5f47c63fb035471f26112c29,3,,,,,,gorilla,,,,,,,,,,,6,0,0,34,34,52,1,,,,,,,,,,,,,,,,,,,,,,,,,,,,,,,,,,,,,,,,,,,,,,,,,,,,,,,,,,,,,,,,,,,,,,
,,?,0.000775,0,,,,,,stimuli/images/PICTURE_449.png,THING,5dd9b8d616d10c946aa47e2f,07/24/1999,2020-08-27_10h42.37.380,proactive3.2,2020.1.2,MacIntel,60,5f47c0b9b035471e11593a5c,5f47c63fb035471f26112c29,3,,,,,,bench,,,,,,,,,,,6,0,0,35,35,59,1,,,,,,,,,,,,,,,,,,,,,,,,,,,,,,,,,,,,,,,,,,,,,,,,,,,,,,,,,,,,,,,,,,,,,,
,,?,0.00081,0,,,,,,stimuli/images/PICTURE_208.png,THING,5dd9b8d616d10c946aa47e2f,07/24/1999,2020-08-27_10h42.37.380,proactive3.2,2020.1.2,MacIntel,60,5f47c0b9b035471e11593a5c,5f47c63fb035471f26112c29,3,,,,,,microphone,,,,,,,,,,,5,0,0,36,36,47,1,,,,,,,,,,,,,,,,,,,,,,,,,,,,,,,,,,,,,,,,,,,,,,,,,,,,,,,,,,,,,,,,,,,,,,
,,DUDE,1.258715,1,,,,,,stimuli/images/PICTURE_453.png,DUDE,5dd9b8d616d10c946aa47e2f,07/24/1999,2020-08-27_10h42.37.380,proactive3.2,2020.1.2,MacIntel,60,5f47c0b9b035471e11593a5c,5f47c63fb035471f26112c29,3,,,,,,scissors,,,,,,,,,,,3,0,0,37,37,27,1,,,,,,,,,,,,,,,,,,,,,,,,,,,,,,,,,,,,,,,,,,,,,,,,,,,,,,,,,,,,,,,,,,,,,,
,,?,0.001055,0,,,,,,stimuli/images/PICTURE_123.png,ADVICE,5dd9b8d616d10c946aa47e2f,07/24/1999,2020-08-27_10h42.37.380,proactive3.2,2020.1.2,MacIntel,60,5f47c0b9b035471e11593a5c,5f47c63fb035471f26112c29,3,,,,,,dart,,,,,,,,,,,6,0,0,38,38,50,1,,,,,,,,,,,,,,,,,,,,,,,,,,,,,,,,,,,,,,,,,,,,,,,,,,,,,,,,,,,,,,,,,,,,,,
,,DEMON,1.78116,1,,,,,,stimuli/images/PICTURE_467.png,DEMON,5dd9b8d616d10c946aa47e2f,07/24/1999,2020-08-27_10h42.37.380,proactive3.2,2020.1.2,MacIntel,60,5f47c0b9b035471e11593a5c,5f47c63fb035471f26112c29,3,,,,,,peg,,,,,,,,,,,3,0,0,39,39,23,1,,,,,,,,,,,,,,,,,,,,,,,,,,,,,,,,,,,,,,,,,,,,,,,,,,,,,,,,,,,,,,,,,,,,,,
,,?,0.001375,0,,,,,,stimuli/images/PICTURE_356.png,DANGER,5dd9b8d616d10c946aa47e2f,07/24/1999,2020-08-27_10h42.37.380,proactive3.2,2020.1.2,MacIntel,60,5f47c0b9b035471e11593a5c,5f47c63fb035471f26112c29,3,,,,,,pawn,,,,,,,,,,,6,0,0,40,40,55,1,,,,,,,,,,,,,,,,,,,,,,,,,,,,,,,,,,,,,,,,,,,,,,,,,,,,,,,,,,,,,,,,,,,,,,
,,?,0.00091,0,,,,,,stimuli/images/PICTURE_314.png,GODS,5dd9b8d616d10c946aa47e2f,07/24/1999,2020-08-27_10h42.37.380,proactive3.2,2020.1.2,MacIntel,60,5f47c0b9b035471e11593a5c,5f47c63fb035471f26112c29,3,,,,,,perfume,,,,,,,,,,,2,0,0,41,41,11,1,,,,,,,,,,,,,,,,,,,,,,,,,,,,,,,,,,,,,,,,,,,,,,,,,,,,,,,,,,,,,,,,,,,,,,
,,?,0.000685,0,,,,,,stimuli/images/PICTURE_160.png,FEET,5dd9b8d616d10c946aa47e2f,07/24/1999,2020-08-27_10h42.37.380,proactive3.2,2020.1.2,MacIntel,60,5f47c0b9b035471e11593a5c,5f47c63fb035471f26112c29,3,,,,,,wheelbarrow,,,,,,,,,,,6,0,0,42,42,58,1,,,,,,,,,,,,,,,,,,,,,,,,,,,,,,,,,,,,,,,,,,,,,,,,,,,,,,,,,,,,,,,,,,,,,,
,,?,0.00056,0,,,,,,stimuli/images/PICTURE_677.png,MILE,5dd9b8d616d10c946aa47e2f,07/24/1999,2020-08-27_10h42.37.380,proactive3.2,2020.1.2,MacIntel,60,5f47c0b9b035471e11593a5c,5f47c63fb035471f26112c29,3,,,,,,map,,,,,,,,,,,4,0,0,43,43,30,1,,,,,,,,,,,,,,,,,,,,,,,,,,,,,,,,,,,,,,,,,,,,,,,,,,,,,,,,,,,,,,,,,,,,,,
,,?,0.00057,0,,,,,,stimuli/images/PICTURE_488.png,STYLE,5dd9b8d616d10c946aa47e2f,07/24/1999,2020-08-27_10h42.37.380,proactive3.2,2020.1.2,MacIntel,60,5f47c0b9b035471e11593a5c,5f47c63fb035471f26112c29,3,,,,,,sun,,,,,,,,,,,4,0,0,44,44,33,1,,,,,,,,,,,,,,,,,,,,,,,,,,,,,,,,,,,,,,,,,,,,,,,,,,,,,,,,,,,,,,,,,,,,,,
,,?,0.000575,0,,,,,,stimuli/images/PICTURE_233.png,WOMEN,5dd9b8d616d10c946aa47e2f,07/24/1999,2020-08-27_10h42.37.380,proactive3.2,2020.1.2,MacIntel,60,5f47c0b9b035471e11593a5c,5f47c63fb035471f26112c29,3,,,,,,salt,,,,,,,,,,,4,0,0,45,45,38,1,,,,,,,,,,,,,,,,,,,,,,,,,,,,,,,,,,,,,,,,,,,,,,,,,,,,,,,,,,,,,,,,,,,,,,
,,?,0.000715,0,,,,,,stimuli/images/PICTURE_123.png,ADVICE,5dd9b8d616d10c946aa47e2f,07/24/1999,2020-08-27_10h42.37.380,proactive3.2,2020.1.2,MacIntel,60,5f47c0b9b035471e11593a5c,5f47c63fb035471f26112c29,3,,,,,,dart,,,,,,,,,,,5,0,0,46,46,40,1,,,,,,,,,,,,,,,,,,,,,,,,,,,,,,,,,,,,,,,,,,,,,,,,,,,,,,,,,,,,,,,,,,,,,,
,,?,0.00078,0,,,,,,stimuli/images/PICTURE_32.png,JUNGLE,5dd9b8d616d10c946aa47e2f,07/24/1999,2020-08-27_10h42.37.380,proactive3.2,2020.1.2,MacIntel,60,5f47c0b9b035471e11593a5c,5f47c63fb035471f26112c29,3,,,,,,crown,,,,,,,,,,,5,0,0,47,47,45,1,,,,,,,,,,,,,,,,,,,,,,,,,,,,,,,,,,,,,,,,,,,,,,,,,,,,,,,,,,,,,,,,,,,,,,
,,?,0.000795,0,,,,,,stimuli/images/PICTURE_311.png,FRIEND,5dd9b8d616d10c946aa47e2f,07/24/1999,2020-08-27_10h42.37.380,proactive3.2,2020.1.2,MacIntel,60,5f47c0b9b035471e11593a5c,5f47c63fb035471f26112c29,3,,,,,,razor,,,,,,,,,,,4,0,0,48,48,34,1,,,,,,,,,,,,,,,,,,,,,,,,,,,,,,,,,,,,,,,,,,,,,,,,,,,,,,,,,,,,,,,,,,,,,,
,,?,0.00055,0,,,,,,stimuli/images/PICTURE_487.png,FLIGHT,5dd9b8d616d10c946aa47e2f,07/24/1999,2020-08-27_10h42.37.380,proactive3.2,2020.1.2,MacIntel,60,5f47c0b9b035471e11593a5c,5f47c63fb035471f26112c29,3,,,,,,basket,,,,,,,,,,,1,0,0,49,49,9,1,,,,,,,,,,,,,,,,,,,,,,,,,,,,,,,,,,,,,,,,,,,,,,,,,,,,,,,,,,,,,,,,,,,,,,
,,?,0.000515,0,,,,,,stimuli/images/PICTURE_68.png,MILE,5dd9b8d616d10c946aa47e2f,07/24/1999,2020-08-27_10h42.37.380,proactive3.2,2020.1.2,MacIntel,60,5f47c0b9b035471e11593a5c,5f47c63fb035471f26112c29,3,,,,,,candle,,,,,,,,,,,5,0,0,50,50,44,1,,,,,,,,,,,,,,,,,,,,,,,,,,,,,,,,,,,,,,,,,,,,,,,,,,,,,,,,,,,,,,,,,,,,,,
,,ROOF,1.310145,1,,,,,,stimuli/images/PICTURE_491.png,ROOF,5dd9b8d616d10c946aa47e2f,07/24/1999,2020-08-27_10h42.37.380,proactive3.2,2020.1.2,MacIntel,60,5f47c0b9b035471e11593a5c,5f47c63fb035471f26112c29,3,,,,,,rug,,,,,,,,,,,3,0,0,51,51,24,1,,,,,,,,,,,,,,,,,,,,,,,,,,,,,,,,,,,,,,,,,,,,,,,,,,,,,,,,,,,,,,,,,,,,,,
,,STYLE,1.449035,1,,,,,,stimuli/images/PICTURE_95.png,STYLE,5dd9b8d616d10c946aa47e2f,07/24/1999,2020-08-27_10h42.37.380,proactive3.2,2020.1.2,MacIntel,60,5f47c0b9b035471e11593a5c,5f47c63fb035471f26112c29,3,,,,,,suitcase,,,,,,,,,,,3,0,0,52,52,25,1,,,,,,,,,,,,,,,,,,,,,,,,,,,,,,,,,,,,,,,,,,,,,,,,,,,,,,,,,,,,,,,,,,,,,,
,,?,0.001395,0,,,,,,stimuli/images/PICTURE_470.png,CASINO,5dd9b8d616d10c946aa47e2f,07/24/1999,2020-08-27_10h42.37.380,proactive3.2,2020.1.2,MacIntel,60,5f47c0b9b035471e11593a5c,5f47c63fb035471f26112c29,3,,,,,,motorbike,,,,,,,,,,,4,0,0,53,53,36,1,,,,,,,,,,,,,,,,,,,,,,,,,,,,,,,,,,,,,,,,,,,,,,,,,,,,,,,,,,,,,,,,,,,,,,
,,IDEAS,2.14914,1,,,,,,stimuli/images/PICTURE_233.png,IDEAS,5dd9b8d616d10c946aa47e2f,07/24/1999,2020-08-27_10h42.37.380,proactive3.2,2020.1.2,MacIntel,60,5f47c0b9b035471e11593a5c,5f47c63fb035471f26112c29,3,,,,,,salt,,,,,,,,,,,3,0,0,54,54,28,1,,,,,,,,,,,,,,,,,,,,,,,,,,,,,,,,,,,,,,,,,,,,,,,,,,,,,,,,,,,,,,,,,,,,,,
,,?,0.001345,0,,,,,,stimuli/images/PICTURE_85.png,THING,5dd9b8d616d10c946aa47e2f,07/24/1999,2020-08-27_10h42.37.380,proactive3.2,2020.1.2,MacIntel,60,5f47c0b9b035471e11593a5c,5f47c63fb035471f26112c29,3,,,,,,diamond,,,,,,,,,,,2,0,0,55,55,15,1,,,,,,,,,,,,,,,,,,,,,,,,,,,,,,,,,,,,,,,,,,,,,,,,,,,,,,,,,,,,,,,,,,,,,,
,,?,0.000835,0,,,,,,stimuli/images/PICTURE_380.png,DEATH,5dd9b8d616d10c946aa47e2f,07/24/1999,2020-08-27_10h42.37.380,proactive3.2,2020.1.2,MacIntel,60,5f47c0b9b035471e11593a5c,5f47c63fb035471f26112c29,3,,,,,,gorilla,,,,,,,,,,,5,0,0,56,56,49,1,,,,,,,,,,,,,,,,,,,,,,,,,,,,,,,,,,,,,,,,,,,,,,,,,,,,,,,,,,,,,,,,,,,,,,
,,?,0.000685,0,,,,,,stimuli/images/PICTURE_667.png,PLENTY,5dd9b8d616d10c946aa47e2f,07/24/1999,2020-08-27_10h42.37.380,proactive3.2,2020.1.2,MacIntel,60,5f47c0b9b035471e11593a5c,5f47c63fb035471f26112c29,3,,,,,,daisy,,,,,,,,,,,5,0,0,57,57,41,1,,,,,,,,,,,,,,,,,,,,,,,,,,,,,,,,,,,,,,,,,,,,,,,,,,,,,,,,,,,,,,,,,,,,,,
,,?,0.000735,0,,,,,,stimuli/images/PICTURE_248.png,DOZEN,5dd9b8d616d10c946aa47e2f,07/24/1999,2020-08-27_10h42.37.380,proactive3.2,2020.1.2,MacIntel,60,5f47c0b9b035471e11593a5c,5f47c63fb035471f26112c29,3,,,,,,cart,,,,,,,,,,,4,0,0,58,58,39,1,,,,,,,,,,,,,,,,,,,,,,,,,,,,,,,,,,,,,,,,,,,,,,,,,,,,,,,,,,,,,,,,,,,,,,
,,?,0.00076,0,,,,,,stimuli/images/PICTURE_504.png,BODY,5dd9b8d616d10c946aa47e2f,07/24/1999,2020-08-27_10h42.37.380,proactive3.2,2020.1.2,MacIntel,60,5f47c0b9b035471e11593a5c,5f47c63fb035471f26112c29,3,,,,,,wheel,,,,,,,,,,,1,0,0,59,59,8,1,,,,,,,,,,,,,,,,,,,,,,,,,,,,,,,,,,,,,,,,,,,,,,,,,,,,,,,,,,,,,,,,,,,,,,
,,,,,,,,,,,,5dd9b8d616d10c946aa47e2f,07/24/1999,2020-08-27_10h42.37.380,proactive3.2,2020.1.2,MacIntel,60,5f47c0b9b035471e11593a5c,5f47c63fb035471f26112c29,3,,,,,,,,,,,,,,,,,,,,,,,,0,0,0,0,1,stimuli/learn-block1.csv,,,,,,,,,,,,,,,,,,,,,,,,,,,,,,,,,,,,,,,,,,,,,,,,,,,,,,,,,,,,,,,,
,,,,,,,,,,stimuli/images/PICTURE_403.png,FAMILY,5dd9b8d616d10c946aa47e2f,07/24/1999,2020-08-27_10h42.37.380,proactive3.2,2020.1.2,MacIntel,60,5f47c0b9b035471e11593a5c,5f47c63fb035471f26112c29,3,,,,,,cathedral,,,,,,0,0,0,9,1,1,2,,,,,,,,,,,,,,,,,,,,,,,,,,,,,,,,,,,,,,,,,,,,,,,,,,,,,,,,,,,,,,,,,,,,,,,,,,,
,,,,,,,,,,stimuli/images/PICTURE_564.png,PLENTY,5dd9b8d616d10c946aa47e2f,07/24/1999,2020-08-27_10h42.37.380,proactive3.2,2020.1.2,MacIntel,60,5f47c0b9b035471e11593a5c,5f47c63fb035471f26112c29,3,,,,,,spoon,,,,,,0,1,1,11,1,2,2,,,,,,,,,,,,,,,,,,,,,,,,,,,,,,,,,,,,,,,,,,,,,,,,,,,,,,,,,,,,,,,,,,,,,,,,,,,
,,,,,,,,,,stimuli/images/PICTURE_215.png,LEADER,5dd9b8d616d10c946aa47e2f,07/24/1999,2020-08-27_10h42.37.380,proactive3.2,2020.1.2,MacIntel,60,5f47c0b9b035471e11593a5c,5f47c63fb035471f26112c29,3,,,,,,boot,,,,,,0,2,2,43,1,5,2,,,,,,,,,,,,,,,,,,,,,,,,,,,,,,,,,,,,,,,,,,,,,,,,,,,,,,,,,,,,,,,,,,,,,,,,,,,
,,,,,,,,,,stimuli/images/PICTURE_255.png,PENNY,5dd9b8d616d10c946aa47e2f,07/24/1999,2020-08-27_10h42.37.380,proactive3.2,2020.1.2,MacIntel,60,5f47c0b9b035471e11593a5c,5f47c63fb035471f26112c29,3,,,,,,shovel,,,,,,0,3,3,19,1,2,2,,,,,,,,,,,,,,,,,,,,,,,,,,,,,,,,,,,,,,,,,,,,,,,,,,,,,,,,,,,,,,,,,,,,,,,,,,,
,,,,,,,,,,stimuli/images/PICTURE_215.png,FOOD,5dd9b8d616d10c946aa47e2f,07/24/1999,2020-08-27_10h42.37.380,proactive3.2,2020.1.2,MacIntel,60,5f47c0b9b035471e11593a5c,5f47c63fb035471f26112c29,3,,,,,,boot,,,,,,0,4,4,5,1,1,2,,,,,,,,,,,,,,,,,,,,,,,,,,,,,,,,,,,,,,,,,,,,,,,,,,,,,,,,,,,,,,,,,,,,,,,,,,,
,,,,,,,,,,stimuli/images/PICTURE_750.png,POLICY,5dd9b8d616d10c946aa47e2f,07/24/1999,2020-08-27_10h42.37.380,proactive3.2,2020.1.2,MacIntel,60,5f47c0b9b035471e11593a5c,5f47c63fb035471f26112c29,3,,,,,,kettle,,,,,,0,5,5,44,1,5,2,,,,,,,,,,,,,,,,,,,,,,,,,,,,,,,,,,,,,,,,,,,,,,,,,,,,,,,,,,,,,,,,,,,,,,,,,,,
,,,,,,,,,,stimuli/images/PICTURE_692.png,DUDE,5dd9b8d616d10c946aa47e2f,07/24/1999,2020-08-27_10h42.37.380,proactive3.2,2020.1.2,MacIntel,60,5f47c0b9b035471e11593a5c,5f47c63fb035471f26112c29,3,,,,,,cherry,,,,,,0,6,6,47,1,5,2,,,,,,,,,,,,,,,,,,,,,,,,,,,,,,,,,,,,,,,,,,,,,,,,,,,,,,,,,,,,,,,,,,,,,,,,,,,
,,,,,,,,,,stimuli/images/PICTURE_215.png,BOYS,5dd9b8d616d10c946aa47e2f,07/24/1999,2020-08-27_10h42.37.380,proactive3.2,2020.1.2,MacIntel,60,5f47c0b9b035471e11593a5c,5f47c63fb035471f26112c29,3,,,,,,boot,,,,,,0,7,7,24,1,3,2,,,,,,,,,,,,,,,,,,,,,,,,,,,,,,,,,,,,,,,,,,,,,,,,,,,,,,,,,,,,,,,,,,,,,,,,,,,
,,,,,,,,,,stimuli/images/PICTURE_491.png,SERIES,5dd9b8d616d10c946aa47e2f,07/24/1999,2020-08-27_10h42.37.380,proactive3.2,2020.1.2,MacIntel,60,5f47c0b9b035471e11593a5c,5f47c63fb035471f26112c29,3,,,,,,rug,,,,,,0,8,8,39,1,4,2,,,,,,,,,,,,,,,,,,,,,,,,,,,,,,,,,,,,,,,,,,,,,,,,,,,,,,,,,,,,,,,,,,,,,,,,,,,
,,,,,,,,,,stimuli/images/PICTURE_348.png,TOILET,5dd9b8d616d10c946aa47e2f,07/24/1999,2020-08-27_10h42.37.380,proactive3.2,2020.1.2,MacIntel,60,5f47c0b9b035471e11593a5c,5f47c63fb035471f26112c29,3,,,,,,pepper,,,,,,0,9,9,4,1,1,2,,,,,,,,,,,,,,,,,,,,,,,,,,,,,,,,,,,,,,,,,,,,,,,,,,,,,,,,,,,,,,,,,,,,,,,,,,,
,,,,,,,,,,stimuli/images/PICTURE_327.png,LEADER,5dd9b8d616d10c946aa47e2f,07/24/1999,2020-08-27_10h42.37.380,proactive3.2,2020.1.2,MacIntel,60,5f47c0b9b035471e11593a5c,5f47c63fb035471f26112c29,3,,,,,,helmet,,,,,,0,10,10,17,1,2,2,,,,,,,,,,,,,,,,,,,,,,,,,,,,,,,,,,,,,,,,,,,,,,,,,,,,,,,,,,,,,,,,,,,,,,,,,,,
,,,,,,,,,,stimuli/images/PICTURE_509.png,APPLE,5dd9b8d616d10c946aa47e2f,07/24/1999,2020-08-27_10h42.37.380,proactive3.2,2020.1.2,MacIntel,60,5f47c0b9b035471e11593a5c,5f47c63fb035471f26112c29,3,,,,,,telephone,,,,,,0,11,11,38,1,4,2,,,,,,,,,,,,,,,,,,,,,,,,,,,,,,,,,,,,,,,,,,,,,,,,,,,,,,,,,,,,,,,,,,,,,,,,,,,
,,,,,,,,,,stimuli/images/PICTURE_405.png,HOUSE,5dd9b8d616d10c946aa47e2f,07/24/1999,2020-08-27_10h42.37.380,proactive3.2,2020.1.2,MacIntel,60,5f47c0b9b035471e11593a5c,5f47c63fb035471f26112c29,3,,,,,,anchor,,,,,,0,12,12,2,1,1,2,,,,,,,,,,,,,,,,,,,,,,,,,,,,,,,,,,,,,,,,,,,,,,,,,,,,,,,,,,,,,,,,,,,,,,,,,,,
,,,,,,,,,,stimuli/images/PICTURE_208.png,SPIRIT,5dd9b8d616d10c946aa47e2f,07/24/1999,2020-08-27_10h42.37.380,proactive3.2,2020.1.2,MacIntel,60,5f47c0b9b035471e11593a5c,5f47c63fb035471f26112c29,3,,,,,,microphone,,,,,,0,13,13,28,1,3,2,,,,,,,,,,,,,,,,,,,,,,,,,,,,,,,,,,,,,,,,,,,,,,,,,,,,,,,,,,,,,,,,,,,,,,,,,,,
,,,,,,,,,,stimuli/images/PICTURE_123.png,SALE,5dd9b8d616d10c946aa47e2f,07/24/1999,2020-08-27_10h42.37.380,proactive3.2,2020.1.2,MacIntel,60,5f47c0b9b035471e11593a5c,5f47c63fb035471f26112c29,3,,,,,,dart,,,,,,0,14,14,8,1,1,2,,,,,,,,,,,,,,,,,,,,,,,,,,,,,,,,,,,,,,,,,,,,,,,,,,,,,,,,,,,,,,,,,,,,,,,,,,,
,,,,,,,,,,stimuli/images/PICTURE_487.png,ROOF,5dd9b8d616d10c946aa47e2f,07/24/1999,2020-08-27_10h42.37.380,proactive3.2,2020.1.2,MacIntel,60,5f47c0b9b035471e11593a5c,5f47c63fb035471f26112c29,3,,,,,,basket,,,,,,0,15,15,50,1,6,2,,,,,,,,,,,,,,,,,,,,,,,,,,,,,,,,,,,,,,,,,,,,,,,,,,,,,,,,,,,,,,,,,,,,,,,,,,,
,,,,,,,,,,stimuli/images/PICTURE_509.png,MILLER,5dd9b8d616d10c946aa47e2f,07/24/1999,2020-08-27_10h42.37.380,proactive3.2,2020.1.2,MacIntel,60,5f47c0b9b035471e11593a5c,5f47c63fb035471f26112c29,3,,,,,,telephone,,,,,,0,16,16,49,1,5,2,,,,,,,,,,,,,,,,,,,,,,,,,,,,,,,,,,,,,,,,,,,,,,,,,,,,,,,,,,,,,,,,,,,,,,,,,,,
,,,,,,,,,,stimuli/images/PICTURE_405.png,JUNGLE,5dd9b8d616d10c946aa47e2f,07/24/1999,2020-08-27_10h42.37.380,proactive3.2,2020.1.2,MacIntel,60,5f47c0b9b035471e11593a5c,5f47c63fb035471f26112c29,3,,,,,,anchor,,,,,,0,17,17,13,1,2,2,,,,,,,,,,,,,,,,,,,,,,,,,,,,,,,,,,,,,,,,,,,,,,,,,,,,,,,,,,,,,,,,,,,,,,,,,,,
,,,,,,,,,,stimuli/images/PICTURE_487.png,POLICY,5dd9b8d616d10c946aa47e2f,07/24/1999,2020-08-27_10h42.37.380,proactive3.2,2020.1.2,MacIntel,60,5f47c0b9b035471e11593a5c,5f47c63fb035471f26112c29,3,,,,,,basket,,,,,,0,18,18,34,1,4,2,,,,,,,,,,,,,,,,,,,,,,,,,,,,,,,,,,,,,,,,,,,,,,,,,,,,,,,,,,,,,,,,,,,,,,,,,,,
,,,,,,,,,,stimuli/images/PICTURE_314.png,SPEECH,5dd9b8d616d10c946aa47e2f,07/24/1999,2020-08-27_10h42.37.380,proactive3.2,2020.1.2,MacIntel,60,5f47c0b9b035471e11593a5c,5f47c63fb035471f26112c29,3,,,,,,perfume,,,,,,0,19,19,35,1,4,2,,,,,,,,,,,,,,,,,,,,,,,,,,,,,,,,,,,,,,,,,,,,,,,,,,,,,,,,,,,,,,,,,,,,,,,,,,,
,,,,,,,,,,stimuli/images/PICTURE_677.png,FAMILY,5dd9b8d616d10c946aa47e2f,07/24/1999,2020-08-27_10h42.37.380,proactive3.2,2020.1.2,MacIntel,60,5f47c0b9b035471e11593a5c,5f47c63fb035471f26112c29,3,,,,,,map,,,,,,0,20,20,53,1,6,2,,,,,,,,,,,,,,,,,,,,,,,,,,,,,,,,,,,,,,,,,,,,,,,,,,,,,,,,,,,,,,,,,,,,,,,,,,,
,,,,,,,,,,stimuli/images/PICTURE_470.png,BEAUTY,5dd9b8d616d10c946aa47e2f,07/24/1999,2020-08-27_10h42.37.380,proactive3.2,2020.1.2,MacIntel,60,5f47c0b9b035471e11593a5c,5f47c63fb035471f26112c29,3,,,,,,motorbike,,,,,,0,21,21,26,1,3,2,,,,,,,,,,,,,,,,,,,,,,,,,,,,,,,,,,,,,,,,,,,,,,,,,,,,,,,,,,,,,,,,,,,,,,,,,,,
,,,,,,,,,,stimuli/images/PICTURE_95.png,NIGHT,5dd9b8d616d10c946aa47e2f,07/24/1999,2020-08-27_10h42.37.380,proactive3.2,2020.1.2,MacIntel,60,5f47c0b9b035471e11593a5c,5f47c63fb035471f26112c29,3,,,,,,suitcase,,,,,,0,22,22,37,1,4,2,,,,,,,,,,,,,,,,,,,,,,,,,,,,,,,,,,,,,,,,,,,,,,,,,,,,,,,,,,,,,,,,,,,,,,,,,,,
,,,,,,,,,,stimuli/images/PICTURE_688.png,CLOCK,5dd9b8d616d10c946aa47e2f,07/24/1999,2020-08-27_10h42.37.380,proactive3.2,2020.1.2,MacIntel,60,5f47c0b9b035471e11593a5c,5f47c63fb035471f26112c29,3,,,,,,runner,,,,,,0,23,23,42,1,5,2,,,,,,,,,,,,,,,,,,,,,,,,,,,,,,,,,,,,,,,,,,,,,,,,,,,,,,,,,,,,,,,,,,,,,,,,,,,
,,,,,,,,,,stimuli/images/PICTURE_311.png,FLESH,5dd9b8d616d10c946aa47e2f,07/24/1999,2020-08-27_10h42.37.380,proactive3.2,2020.1.2,MacIntel,60,5f47c0b9b035471e11593a5c,5f47c63fb035471f26112c29,3,,,,,,razor,,,,,,0,24,24,3,1,1,2,,,,,,,,,,,,,,,,,,,,,,,,,,,,,,,,,,,,,,,,,,,,,,,,,,,,,,,,,,,,,,,,,,,,,,,,,,,
,,,,,,,,,,stimuli/images/PICTURE_708.png,VALLEY,5dd9b8d616d10c946aa47e2f,07/24/1999,2020-08-27_10h42.37.380,proactive3.2,2020.1.2,MacIntel,60,5f47c0b9b035471e11593a5c,5f47c63fb035471f26112c29,3,,,,,,monkey,,,,,,0,25,25,45,1,5,2,,,,,,,,,,,,,,,,,,,,,,,,,,,,,,,,,,,,,,,,,,,,,,,,,,,,,,,,,,,,,,,,,,,,,,,,,,,
,,,,,,,,,,stimuli/images/PICTURE_68.png,KIND,5dd9b8d616d10c946aa47e2f,07/24/1999,2020-08-27_10h42.37.380,proactive3.2,2020.1.2,MacIntel,60,5f47c0b9b035471e11593a5c,5f47c63fb035471f26112c29,3,,,,,,candle,,,,,,0,26,26,23,1,3,2,,,,,,,,,,,,,,,,,,,,,,,,,,,,,,,,,,,,,,,,,,,,,,,,,,,,,,,,,,,,,,,,,,,,,,,,,,,
,,,,,,,,,,stimuli/images/PICTURE_2.png,AREA,5dd9b8d616d10c946aa47e2f,07/24/1999,2020-08-27_10h42.37.380,proactive3.2,2020.1.2,MacIntel,60,5f47c0b9b035471e11593a5c,5f47c63fb035471f26112c29,3,,,,,,tyre,,,,,,0,27,27,32,1,4,2,,,,,,,,,,,,,,,,,,,,,,,,,,,,,,,,,,,,,,,,,,,,,,,,,,,,,,,,,,,,,,,,,,,,,,,,,,,
,,,,,,,,,,stimuli/images/PICTURE_141.png,CLIENT,5dd9b8d616d10c946aa47e2f,07/24/1999,2020-08-27_10h42.37.380,proactive3.2,2020.1.2,MacIntel,60,5f47c0b9b035471e11593a5c,5f47c63fb035471f26112c29,3,,,,,,sunflower,,,,,,0,28,28,30,1,4,2,,,,,,,,,,,,,,,,,,,,,,,,,,,,,,,,,,,,,,,,,,,,,,,,,,,,,,,,,,,,,,,,,,,,,,,,,,,
,,,,,,,,,,stimuli/images/PICTURE_654.png,COPS,5dd9b8d616d10c946aa47e2f,07/24/1999,2020-08-27_10h42.37.380,proactive3.2,2020.1.2,MacIntel,60,5f47c0b9b035471e11593a5c,5f47c63fb035471f26112c29,3,,,,,,pencil,,,,,,0,29,29,10,1,2,2,,,,,,,,,,,,,,,,,,,,,,,,,,,,,,,,,,,,,,,,,,,,,,,,,,,,,,,,,,,,,,,,,,,,,,,,,,,
,,,,,,,,,,stimuli/images/PICTURE_311.png,TOILET,5dd9b8d616d10c946aa47e2f,07/24/1999,2020-08-27_10h42.37.380,proactive3.2,2020.1.2,MacIntel,60,5f47c0b9b035471e11593a5c,5f47c63fb035471f26112c29,3,,,,,,razor,,,,,,0,30,30,54,1,6,2,,,,,,,,,,,,,,,,,,,,,,,,,,,,,,,,,,,,,,,,,,,,,,,,,,,,,,,,,,,,,,,,,,,,,,,,,,,
,,,,,,,,,,stimuli/images/PICTURE_654.png,YEAR,5dd9b8d616d10c946aa47e2f,07/24/1999,2020-08-27_10h42.37.380,proactive3.2,2020.1.2,MacIntel,60,5f47c0b9b035471e11593a5c,5f47c63fb035471f26112c29,3,,,,,,pencil,,,,,,0,31,31,41,1,5,2,,,,,,,,,,,,,,,,,,,,,,,,,,,,,,,,,,,,,,,,,,,,,,,,,,,,,,,,,,,,,,,,,,,,,,,,,,,
,,,,,,,,,,stimuli/images/PICTURE_32.png,LETTER,5dd9b8d616d10c946aa47e2f,07/24/1999,2020-08-27_10h42.37.380,proactive3.2,2020.1.2,MacIntel,60,5f47c0b9b035471e11593a5c,5f47c63fb035471f26112c29,3,,,,,,crown,,,,,,0,32,32,56,1,6,2,,,,,,,,,,,,,,,,,,,,,,,,,,,,,,,,,,,,,,,,,,,,,,,,,,,,,,,,,,,,,,,,,,,,,,,,,,,
,,,,,,,,,,stimuli/images/PICTURE_33.png,COPS,5dd9b8d616d10c946aa47e2f,07/24/1999,2020-08-27_10h42.37.380,proactive3.2,2020.1.2,MacIntel,60,5f47c0b9b035471e11593a5c,5f47c63fb035471f26112c29,3,,,,,,frame,,,,,,0,33,33,29,1,3,2,,,,,,,,,,,,,,,,,,,,,,,,,,,,,,,,,,,,,,,,,,,,,,,,,,,,,,,,,,,,,,,,,,,,,,,,,,,
,,,,,,,,,,stimuli/images/PICTURE_452.png,COPS,5dd9b8d616d10c946aa47e2f,07/24/1999,2020-08-27_10h42.37.380,proactive3.2,2020.1.2,MacIntel,60,5f47c0b9b035471e11593a5c,5f47c63fb035471f26112c29,3,,,,,,watch,,,,,,0,34,34,0,1,1,2,,,,,,,,,,,,,,,,,,,,,,,,,,,,,,,,,,,,,,,,,,,,,,,,,,,,,,,,,,,,,,,,,,,,,,,,,,,
,,,,,,,,,,stimuli/images/PICTURE_504.png,HOUSE,5dd9b8d616d10c946aa47e2f,07/24/1999,2020-08-27_10h42.37.380,proactive3.2,2020.1.2,MacIntel,60,5f47c0b9b035471e11593a5c,5f47c63fb035471f26112c29,3,,,,,,wheel,,,,,,0,35,35,36,1,4,2,,,,,,,,,,,,,,,,,,,,,,,,,,,,,,,,,,,,,,,,,,,,,,,,,,,,,,,,,,,,,,,,,,,,,,,,,,,
,,,,,,,,,,stimuli/images/PICTURE_509.png,SHOTS,5dd9b8d616d10c946aa47e2f,07/24/1999,2020-08-27_10h42.37.380,proactive3.2,2020.1.2,MacIntel,60,5f47c0b9b035471e11593a5c,5f47c63fb035471f26112c29,3,,,,,,telephone,,,,,,0,36,36,7,1,1,2,,,,,,,,,,,,,,,,,,,,,,,,,,,,,,,,,,,,,,,,,,,,,,,,,,,,,,,,,,,,,,,,,,,,,,,,,,,
,,,,,,,,,,stimuli/images/PICTURE_470.png,MOMENT,5dd9b8d616d10c946aa47e2f,07/24/1999,2020-08-27_10h42.37.380,proactive3.2,2020.1.2,MacIntel,60,5f47c0b9b035471e11593a5c,5f47c63fb035471f26112c29,3,,,,,,motorbike,,,,,,0,37,37,40,1,5,2,,,,,,,,,,,,,,,,,,,,,,,,,,,,,,,,,,,,,,,,,,,,,,,,,,,,,,,,,,,,,,,,,,,,,,,,,,,
,,,,,,,,,,stimuli/images/PICTURE_348.png,DUDE,5dd9b8d616d10c946aa47e2f,07/24/1999,2020-08-27_10h42.37.380,proactive3.2,2020.1.2,MacIntel,60,5f47c0b9b035471e11593a5c,5f47c63fb035471f26112c29,3,,,,,,pepper,,,,,,0,38,38,59,1,6,2,,,,,,,,,,,,,,,,,,,,,,,,,,,,,,,,,,,,,,,,,,,,,,,,,,,,,,,,,,,,,,,,,,,,,,,,,,,
,,,,,,,,,,stimuli/images/PICTURE_57.png,CASINO,5dd9b8d616d10c946aa47e2f,07/24/1999,2020-08-27_10h42.37.380,proactive3.2,2020.1.2,MacIntel,60,5f47c0b9b035471e11593a5c,5f47c63fb035471f26112c29,3,,,,,,stamp,,,,,,0,39,39,12,1,2,2,,,,,,,,,,,,,,,,,,,,,,,,,,,,,,,,,,,,,,,,,,,,,,,,,,,,,,,,,,,,,,,,,,,,,,,,,,,
,,,,,,,,,,stimuli/images/PICTURE_297.png,BODY,5dd9b8d616d10c946aa47e2f,07/24/1999,2020-08-27_10h42.37.380,proactive3.2,2020.1.2,MacIntel,60,5f47c0b9b035471e11593a5c,5f47c63fb035471f26112c29,3,,,,,,aeroplane,,,,,,0,40,40,51,1,6,2,,,,,,,,,,,,,,,,,,,,,,,,,,,,,,,,,,,,,,,,,,,,,,,,,,,,,,,,,,,,,,,,,,,,,,,,,,,
,,,,,,,,,,stimuli/images/PICTURE_285.png,PRINCE,5dd9b8d616d10c946aa47e2f,07/24/1999,2020-08-27_10h42.37.380,proactive3.2,2020.1.2,MacIntel,60,5f47c0b9b035471e11593a5c,5f47c63fb035471f26112c29,3,,,,,,carrot,,,,,,0,41,41,20,1,3,2,,,,,,,,,,,,,,,,,,,,,,,,,,,,,,,,,,,,,,,,,,,,,,,,,,,,,,,,,,,,,,,,,,,,,,,,,,,
,,,,,,,,,,stimuli/images/PICTURE_655.png,SALE,5dd9b8d616d10c946aa47e2f,07/24/1999,2020-08-27_10h42.37.380,proactive3.2,2020.1.2,MacIntel,60,5f47c0b9b035471e11593a5c,5f47c63fb035471f26112c29,3,,,,,,megaphone,,,,,,0,42,42,57,1,6,2,,,,,,,,,,,,,,,,,,,,,,,,,,,,,,,,,,,,,,,,,,,,,,,,,,,,,,,,,,,,,,,,,,,,,,,,,,,
,,,,,,,,,,stimuli/images/PICTURE_677.png,PHOTO,5dd9b8d616d10c946aa47e2f,07/24/1999,2020-08-27_10h42.37.380,proactive3.2,2020.1.2,MacIntel,60,5f47c0b9b035471e11593a5c,5f47c63fb035471f26112c29,3,,,,,,map,,,,,,0,43,43,14,1,2,2,,,,,,,,,,,,,,,,,,,,,,,,,,,,,,,,,,,,,,,,,,,,,,,,,,,,,,,,,,,,,,,,,,,,,,,,,,,
,,,,,,,,,,stimuli/images/PICTURE_405.png,JUNGLE,5dd9b8d616d10c946aa47e2f,07/24/1999,2020-08-27_10h42.37.380,proactive3.2,2020.1.2,MacIntel,60,5f47c0b9b035471e11593a5c,5f47c63fb035471f26112c29,3,,,,,,anchor,,,,,,0,44,44,58,1,6,2,,,,,,,,,,,,,,,,,,,,,,,,,,,,,,,,,,,,,,,,,,,,,,,,,,,,,,,,,,,,,,,,,,,,,,,,,,,
,,,,,,,,,,stimuli/images/PICTURE_509.png,BATH,5dd9b8d616d10c946aa47e2f,07/24/1999,2020-08-27_10h42.37.380,proactive3.2,2020.1.2,MacIntel,60,5f47c0b9b035471e11593a5c,5f47c63fb035471f26112c29,3,,,,,,telephone,,,,,,0,45,45,15,1,2,2,,,,,,,,,,,,,,,,,,,,,,,,,,,,,,,,,,,,,,,,,,,,,,,,,,,,,,,,,,,,,,,,,,,,,,,,,,,
,,,,,,,,,,stimuli/images/PICTURE_177.png,HOUSE,5dd9b8d616d10c946aa47e2f,07/24/1999,2020-08-27_10h42.37.380,proactive3.2,2020.1.2,MacIntel,60,5f47c0b9b035471e11593a5c,5f47c63fb035471f26112c29,3,,,,,,mushroom,,,,,,0,46,46,25,1,3,2,,,,,,,,,,,,,,,,,,,,,,,,,,,,,,,,,,,,,,,,,,,,,,,,,,,,,,,,,,,,,,,,,,,,,,,,,,,
,,,,,,,,,,stimuli/images/PICTURE_2.png,JUNGLE,5dd9b8d616d10c946aa47e2f,07/24/1999,2020-08-27_10h42.37.380,proactive3.2,2020.1.2,MacIntel,60,5f47c0b9b035471e11593a5c,5f47c63fb035471f26112c29,3,,,,,,tyre,,,,,,0,47,47,1,1,1,2,,,,,,,,,,,,,,,,,,,,,,,,,,,,,,,,,,,,,,,,,,,,,,,,,,,,,,,,,,,,,,,,,,,,,,,,,,,
,,,,,,,,,,stimuli/images/PICTURE_57.png,NATION,5dd9b8d616d10c946aa47e2f,07/24/1999,2020-08-27_10h42.37.380,proactive3.2,2020.1.2,MacIntel,60,5f47c0b9b035471e11593a5c,5f47c63fb035471f26112c29,3,,,,,,stamp,,,,,,0,48,48,21,1,3,2,,,,,,,,,,,,,,,,,,,,,,,,,,,,,,,,,,,,,,,,,,,,,,,,,,,,,,,,,,,,,,,,,,,,,,,,,,,
,,,,,,,,,,stimuli/images/PICTURE_160.png,HOTEL,5dd9b8d616d10c946aa47e2f,07/24/1999,2020-08-27_10h42.37.380,proactive3.2,2020.1.2,MacIntel,60,5f47c0b9b035471e11593a5c,5f47c63fb035471f26112c29,3,,,,,,wheelbarrow,,,,,,0,49,49,16,1,2,2,,,,,,,,,,,,,,,,,,,,,,,,,,,,,,,,,,,,,,,,,,,,,,,,,,,,,,,,,,,,,,,,,,,,,,,,,,,
,,,,,,,,,,stimuli/images/PICTURE_667.png,GLASS,5dd9b8d616d10c946aa47e2f,07/24/1999,2020-08-27_10h42.37.380,proactive3.2,2020.1.2,MacIntel,60,5f47c0b9b035471e11593a5c,5f47c63fb035471f26112c29,3,,,,,,daisy,,,,,,0,50,50,27,1,3,2,,,,,,,,,,,,,,,,,,,,,,,,,,,,,,,,,,,,,,,,,,,,,,,,,,,,,,,,,,,,,,,,,,,,,,,,,,,
,,,,,,,,,,stimuli/images/PICTURE_93.png,GIRL,5dd9b8d616d10c946aa47e2f,07/24/1999,2020-08-27_10h42.37.380,proactive3.2,2020.1.2,MacIntel,60,5f47c0b9b035471e11593a5c,5f47c63fb035471f26112c29,3,,,,,,skateboard,,,,,,0,51,51,31,1,4,2,,,,,,,,,,,,,,,,,,,,,,,,,,,,,,,,,,,,,,,,,,,,,,,,,,,,,,,,,,,,,,,,,,,,,,,,,,,
,,,,,,,,,,stimuli/images/PICTURE_453.png,FAMILY,5dd9b8d616d10c946aa47e2f,07/24/1999,2020-08-27_10h42.37.380,proactive3.2,2020.1.2,MacIntel,60,5f47c0b9b035471e11593a5c,5f47c63fb035471f26112c29,3,,,,,,scissors,,,,,,0,52,52,48,1,5,2,,,,,,,,,,,,,,,,,,,,,,,,,,,,,,,,,,,,,,,,,,,,,,,,,,,,,,,,,,,,,,,,,,,,,,,,,,,
,,,,,,,,,,stimuli/images/PICTURE_2.png,YARD,5dd9b8d616d10c946aa47e2f,07/24/1999,2020-08-27_10h42.37.380,proactive3.2,2020.1.2,MacIntel,60,5f47c0b9b035471e11593a5c,5f47c63fb035471f26112c29,3,,,,,,tyre,,,,,,0,53,53,55,1,6,2,,,,,,,,,,,,,,,,,,,,,,,,,,,,,,,,,,,,,,,,,,,,,,,,,,,,,,,,,,,,,,,,,,,,,,,,,,,
,,,,,,,,,,stimuli/images/PICTURE_57.png,CANDY,5dd9b8d616d10c946aa47e2f,07/24/1999,2020-08-27_10h42.37.380,proactive3.2,2020.1.2,MacIntel,60,5f47c0b9b035471e11593a5c,5f47c63fb035471f26112c29,3,,,,,,stamp,,,,,,0,54,54,52,1,6,2,,,,,,,,,,,,,,,,,,,,,,,,,,,,,,,,,,,,,,,,,,,,,,,,,,,,,,,,,,,,,,,,,,,,,,,,,,,
,,,,,,,,,,stimuli/images/PICTURE_296.png,CLOCK,5dd9b8d616d10c946aa47e2f,07/24/1999,2020-08-27_10h42.37.380,proactive3.2,2020.1.2,MacIntel,60,5f47c0b9b035471e11593a5c,5f47c63fb035471f26112c29,3,,,,,,bolt,,,,,,0,55,55,18,1,2,2,,,,,,,,,,,,,,,,,,,,,,,,,,,,,,,,,,,,,,,,,,,,,,,,,,,,,,,,,,,,,,,,,,,,,,,,,,,
,,,,,,,,,,stimuli/images/PICTURE_285.png,WRITER,5dd9b8d616d10c946aa47e2f,07/24/1999,2020-08-27_10h42.37.380,proactive3.2,2020.1.2,MacIntel,60,5f47c0b9b035471e11593a5c,5f47c63fb035471f26112c29,3,,,,,,carrot,,,,,,0,56,56,6,1,1,2,,,,,,,,,,,,,,,,,,,,,,,,,,,,,,,,,,,,,,,,,,,,,,,,,,,,,,,,,,,,,,,,,,,,,,,,,,,
,,,,,,,,,,stimuli/images/PICTURE_18.png,RIVER,5dd9b8d616d10c946aa47e2f,07/24/1999,2020-08-27_10h42.37.380,proactive3.2,2020.1.2,MacIntel,60,5f47c0b9b035471e11593a5c,5f47c63fb035471f26112c29,3,,,,,,planet,,,,,,0,57,57,22,1,3,2,,,,,,,,,,,,,,,,,,,,,,,,,,,,,,,,,,,,,,,,,,,,,,,,,,,,,,,,,,,,,,,,,,,,,,,,,,,
,,,,,,,,,,stimuli/images/PICTURE_147.png,LEADER,5dd9b8d616d10c946aa47e2f,07/24/1999,2020-08-27_10h42.37.380,proactive3.2,2020.1.2,MacIntel,60,5f47c0b9b035471e11593a5c,5f47c63fb035471f26112c29,3,,,,,,hanger,,,,,,0,58,58,33,1,4,2,,,,,,,,,,,,,,,,,,,,,,,,,,,,,,,,,,,,,,,,,,,,,,,,,,,,,,,,,,,,,,,,,,,,,,,,,,,
,,?,0.00099,0,,,,,,stimuli/images/PICTURE_750.png,POLICY,5dd9b8d616d10c946aa47e2f,07/24/1999,2020-08-27_10h42.37.380,proactive3.2,2020.1.2,MacIntel,60,5f47c0b9b035471e11593a5c,5f47c63fb035471f26112c29,3,,,,,,kettle,,,,,,,,,,,5,2,0,0,0,44,1,,,,,,,,,,,,,,,,,,,,,,,,,,,,,,,,,,,,,,,,,,,,,,,,,,,,,,,,,,,,,,,,,,,,,,
,,?,0.0007,0,,,,,,stimuli/images/PICTURE_470.png,MOMENT,5dd9b8d616d10c946aa47e2f,07/24/1999,2020-08-27_10h42.37.380,proactive3.2,2020.1.2,MacIntel,60,5f47c0b9b035471e11593a5c,5f47c63fb035471f26112c29,3,,,,,,motorbike,,,,,,,,,,,5,2,0,1,1,40,1,,,,,,,,,,,,,,,,,,,,,,,,,,,,,,,,,,,,,,,,,,,,,,,,,,,,,,,,,,,,,,,,,,,,,,
,,?,0.0007,0,,,,,,stimuli/images/PICTURE_32.png,LETTER,5dd9b8d616d10c946aa47e2f,07/24/1999,2020-08-27_10h42.37.380,proactive3.2,2020.1.2,MacIntel,60,5f47c0b9b035471e11593a5c,5f47c63fb035471f26112c29,3,,,,,,crown,,,,,,,,,,,6,2,0,2,2,56,1,,,,,,,,,,,,,,,,,,,,,,,,,,,,,,,,,,,,,,,,,,,,,,,,,,,,,,,,,,,,,,,,,,,,,,
,,BOYS,1.25447,1,,,,,,stimuli/images/PICTURE_215.png,BOYS,5dd9b8d616d10c946aa47e2f,07/24/1999,2020-08-27_10h42.37.380,proactive3.2,2020.1.2,MacIntel,60,5f47c0b9b035471e11593a5c,5f47c63fb035471f26112c29,3,,,,,,boot,,,,,,,,,,,3,2,0,3,3,24,1,,,,,,,,,,,,,,,,,,,,,,,,,,,,,,,,,,,,,,,,,,,,,,,,,,,,,,,,,,,,,,,,,,,,,,
,,?,0.001715,0,,,,,,stimuli/images/PICTURE_348.png,DUDE,5dd9b8d616d10c946aa47e2f,07/24/1999,2020-08-27_10h42.37.380,proactive3.2,2020.1.2,MacIntel,60,5f47c0b9b035471e11593a5c,5f47c63fb035471f26112c29,3,,,,,,pepper,,,,,,,,,,,6,2,0,4,4,59,1,,,,,,,,,,,,,,,,,,,,,,,,,,,,,,,,,,,,,,,,,,,,,,,,,,,,,,,,,,,,,,,,,,,,,,
,,?,0.000845,0,,,,,,stimuli/images/PICTURE_509.png,SHOTS,5dd9b8d616d10c946aa47e2f,07/24/1999,2020-08-27_10h42.37.380,proactive3.2,2020.1.2,MacIntel,60,5f47c0b9b035471e11593a5c,5f47c63fb035471f26112c29,3,,,,,,telephone,,,,,,,,,,,1,2,0,5,5,7,1,,,,,,,,,,,,,,,,,,,,,,,,,,,,,,,,,,,,,,,,,,,,,,,,,,,,,,,,,,,,,,,,,,,,,,
,,?,0.00064,0,,,,,,stimuli/images/PICTURE_564.png,PLENTY,5dd9b8d616d10c946aa47e2f,07/24/1999,2020-08-27_10h42.37.380,proactive3.2,2020.1.2,MacIntel,60,5f47c0b9b035471e11593a5c,5f47c63fb035471f26112c29,3,,,,,,spoon,,,,,,,,,,,2,2,0,6,6,11,1,,,,,,,,,,,,,,,,,,,,,,,,,,,,,,,,,,,,,,,,,,,,,,,,,,,,,,,,,,,,,,,,,,,,,,
,,BEAUTY,1.859895,1,,,,,,stimuli/images/PICTURE_470.png,BEAUTY,5dd9b8d616d10c946aa47e2f,07/24/1999,2020-08-27_10h42.37.380,proactive3.2,2020.1.2,MacIntel,60,5f47c0b9b035471e11593a5c,5f47c63fb035471f26112c29,3,,,,,,motorbike,,,,,,,,,,,3,2,0,7,7,26,1,,,,,,,,,,,,,,,,,,,,,,,,,,,,,,,,,,,,,,,,,,,,,,,,,,,,,,,,,,,,,,,,,,,,,,
,,?,0.001395,0,,,,,,stimuli/images/PICTURE_95.png,NIGHT,5dd9b8d616d10c946aa47e2f,07/24/1999,2020-08-27_10h42.37.380,proactive3.2,2020.1.2,MacIntel,60,5f47c0b9b035471e11593a5c,5f47c63fb035471f26112c29,3,,,,,,suitcase,,,,,,,,,,,4,2,0,8,8,37,1,,,,,,,,,,,,,,,,,,,,,,,,,,,,,,,,,,,,,,,,,,,,,,,,,,,,,,,,,,,,,,,,,,,,,,
,,?,0.000685,0,,,,,,stimuli/images/PICTURE_487.png,POLICY,5dd9b8d616d10c946aa47e2f,07/24/1999,2020-08-27_10h42.37.380,proactive3.2,2020.1.2,MacIntel,60,5f47c0b9b035471e11593a5c,5f47c63fb035471f26112c29,3,,,,,,basket,,,,,,,,,,,4,2,0,9,9,34,1,,,,,,,,,,,,,,,,,,,,,,,,,,,,,,,,,,,,,,,,,,,,,,,,,,,,,,,,,,,,,,,,,,,,,,
,,RIVER,1.277155,1,,,,,,stimuli/images/PICTURE_18.png,RIVER,5dd9b8d616d10c946aa47e2f,07/24/1999,2020-08-27_10h42.37.380,proactive3.2,2020.1.2,MacIntel,60,5f47c0b9b035471e11593a5c,5f47c63fb035471f26112c29,3,,,,,,planet,,,,,,,,,,,3,2,0,10,10,22,1,,,,,,,,,,,,,,,,,,,,,,,,,,,,,,,,,,,,,,,,,,,,,,,,,,,,,,,,,,,,,,,,,,,,,,
,,?,0.00139,0,,,,,,stimuli/images/PICTURE_453.png,FAMILY,5dd9b8d616d10c946aa47e2f,07/24/1999,2020-08-27_10h42.37.380,proactive3.2,2020.1.2,MacIntel,60,5f47c0b9b035471e11593a5c,5f47c63fb035471f26112c29,3,,,,,,scissors,,,,,,,,,,,5,2,0,11,11,48,1,,,,,,,,,,,,,,,,,,,,,,,,,,,,,,,,,,,,,,,,,,,,,,,,,,,,,,,,,,,,,,,,,,,,,,
,,?,0.000785,0,,,,,,stimuli/images/PICTURE_123.png,SALE,5dd9b8d616d10c946aa47e2f,07/24/1999,2020-08-27_10h42.37.380,proactive3.2,2020.1.2,MacIntel,60,5f47c0b9b035471e11593a5c,5f47c63fb035471f26112c29,3,,,,,,dart,,,,,,,,,,,1,2,0,12,12,8,1,,,,,,,,,,,,,,,,,,,,,,,,,,,,,,,,,,,,,,,,,,,,,,,,,,,,,,,,,,,,,,,,,,,,,,
,,?,0.00063,0,,,,,,stimuli/images/PICTURE_654.png,YEAR,5dd9b8d616d10c946aa47e2f,07/24/1999,2020-08-27_10h42.37.380,proactive3.2,2020.1.2,MacIntel,60,5f47c0b9b035471e11593a5c,5f47c63fb035471f26112c29,3,,,,,,pencil,,,,,,,,,,,5,2,0,13,13,41,1,,,,,,,,,,,,,,,,,,,,,,,,,,,,,,,,,,,,,,,,,,,,,,,,,,,,,,,,,,,,,,,,,,,,,,
,,?,0.00076,0,,,,,,stimuli/images/PICTURE_403.png,FAMILY,5dd9b8d616d10c946aa47e2f,07/24/1999,2020-08-27_10h42.37.380,proactive3.2,2020.1.2,MacIntel,60,5f47c0b9b035471e11593a5c,5f47c63fb035471f26112c29,3,,,,,,cathedral,,,,,,,,,,,1,2,0,14,14,9,1,,,,,,,,,,,,,,,,,,,,,,,,,,,,,,,,,,,,,,,,,,,,,,,,,,,,,,,,,,,,,,,,,,,,,,
,,?,0.00059,0,,,,,,stimuli/images/PICTURE_215.png,FOOD,5dd9b8d616d10c946aa47e2f,07/24/1999,2020-08-27_10h42.37.380,proactive3.2,2020.1.2,MacIntel,60,5f47c0b9b035471e11593a5c,5f47c63fb035471f26112c29,3,,,,,,boot,,,,,,,,,,,1,2,0,15,15,5,1,,,,,,,,,,,,,,,,,,,,,,,,,,,,,,,,,,,,,,,,,,,,,,,,,,,,,,,,,,,,,,,,,,,,,,
,,KIND,1.355675,1,,,,,,stimuli/images/PICTURE_68.png,KIND,5dd9b8d616d10c946aa47e2f,07/24/1999,2020-08-27_10h42.37.380,proactive3.2,2020.1.2,MacIntel,60,5f47c0b9b035471e11593a5c,5f47c63fb035471f26112c29,3,,,,,,candle,,,,,,,,,,,3,2,0,16,16,23,1,,,,,,,,,,,,,,,,,,,,,,,,,,,,,,,,,,,,,,,,,,,,,,,,,,,,,,,,,,,,,,,,,,,,,,
,,PIRIT,1.332365,0,,,,,,stimuli/images/PICTURE_208.png,SPIRIT,5dd9b8d616d10c946aa47e2f,07/24/1999,2020-08-27_10h42.37.380,proactive3.2,2020.1.2,MacIntel,60,5f47c0b9b035471e11593a5c,5f47c63fb035471f26112c29,3,,,,,,microphone,,,,,,,,,,,3,2,0,17,17,28,1,,,,,,,,,,,,,,,,,,,,,,,,,,,,,,,,,,,,,,,,,,,,,,,,,,,,,,,,,,,,,,,,,,,,,,
,,?,0.00098,0,,,,,,stimuli/images/PICTURE_356.png,CANDY,5dd9b8d616d10c946aa47e2f,07/24/1999,2020-08-27_10h42.37.380,proactive3.2,2020.1.2,MacIntel,60,5f47c0b9b035471e11593a5c,5f47c63fb035471f26112c29,3,,,,,,pawn,,,,,,,,,,,5,2,0,18,18,46,1,,,,,,,,,,,,,,,,,,,,,,,,,,,,,,,,,,,,,,,,,,,,,,,,,,,,,,,,,,,,,,,,,,,,,,
,,?,0.000855,0,,,,,,stimuli/images/PICTURE_405.png,HOUSE,5dd9b8d616d10c946aa47e2f,07/24/1999,2020-08-27_10h42.37.380,proactive3.2,2020.1.2,MacIntel,60,5f47c0b9b035471e11593a5c,5f47c63fb035471f26112c29,3,,,,,,anchor,,,,,,,,,,,1,2,0,19,19,2,1,,,,,,,,,,,,,,,,,,,,,,,,,,,,,,,,,,,,,,,,,,,,,,,,,,,,,,,,,,,,,,,,,,,,,,
,,?,0.00055,0,,,,,,stimuli/images/PICTURE_654.png,COPS,5dd9b8d616d10c946aa47e2f,07/24/1999,2020-08-27_10h42.37.380,proactive3.2,2020.1.2,MacIntel,60,5f47c0b9b035471e11593a5c,5f47c63fb035471f26112c29,3,,,,,,pencil,,,,,,,,,,,2,2,0,20,20,10,1,,,,,,,,,,,,,,,,,,,,,,,,,,,,,,,,,,,,,,,,,,,,,,,,,,,,,,,,,,,,,,,,,,,,,,
,,PRINCE,3.692315,1,,,,,,stimuli/images/PICTURE_285.png,PRINCE,5dd9b8d616d10c946aa47e2f,07/24/1999,2020-08-27_10h42.37.380,proactive3.2,2020.1.2,MacIntel,60,5f47c0b9b035471e11593a5c,5f47c63fb035471f26112c29,3,,,,,,carrot,,,,,,,,,,,3,2,0,21,21,20,1,,,,,,,,,,,,,,,,,,,,,,,,,,,,,,,,,,,,,,,,,,,,,,,,,,,,,,,,,,,,,,,,,,,,,,
,,?,0.002675,0,,,,,,stimuli/images/PICTURE_405.png,JUNGLE,5dd9b8d616d10c946aa47e2f,07/24/1999,2020-08-27_10h42.37.380,proactive3.2,2020.1.2,MacIntel,60,5f47c0b9b035471e11593a5c,5f47c63fb035471f26112c29,3,,,,,,anchor,,,,,,,,,,,6,2,0,22,22,58,1,,,,,,,,,,,,,,,,,,,,,,,,,,,,,,,,,,,,,,,,,,,,,,,,,,,,,,,,,,,,,,,,,,,,,,
,,?,0.000565,0,,,,,,stimuli/images/PICTURE_655.png,SALE,5dd9b8d616d10c946aa47e2f,07/24/1999,2020-08-27_10h42.37.380,proactive3.2,2020.1.2,MacIntel,60,5f47c0b9b035471e11593a5c,5f47c63fb035471f26112c29,3,,,,,,megaphone,,,,,,,,,,,6,2,0,23,23,57,1,,,,,,,,,,,,,,,,,,,,,,,,,,,,,,,,,,,,,,,,,,,,,,,,,,,,,,,,,,,,,,,,,,,,,,
,,NATION,1.51026,1,,,,,,stimuli/images/PICTURE_57.png,NATION,5dd9b8d616d10c946aa47e2f,07/24/1999,2020-08-27_10h42.37.380,proactive3.2,2020.1.2,MacIntel,60,5f47c0b9b035471e11593a5c,5f47c63fb035471f26112c29,3,,,,,,stamp,,,,,,,,,,,3,2,0,24,24,21,1,,,,,,,,,,,,,,,,,,,,,,,,,,,,,,,,,,,,,,,,,,,,,,,,,,,,,,,,,,,,,,,,,,,,,,
,,?,0.001285,0,,,,,,stimuli/images/PICTURE_327.png,LEADER,5dd9b8d616d10c946aa47e2f,07/24/1999,2020-08-27_10h42.37.380,proactive3.2,2020.1.2,MacIntel,60,5f47c0b9b035471e11593a5c,5f47c63fb035471f26112c29,3,,,,,,helmet,,,,,,,,,,,2,2,0,25,25,17,1,,,,,,,,,,,,,,,,,,,,,,,,,,,,,,,,,,,,,,,,,,,,,,,,,,,,,,,,,,,,,,,,,,,,,,
,,COPS,1.31222,1,,,,,,stimuli/images/PICTURE_33.png,COPS,5dd9b8d616d10c946aa47e2f,07/24/1999,2020-08-27_10h42.37.380,proactive3.2,2020.1.2,MacIntel,60,5f47c0b9b035471e11593a5c,5f47c63fb035471f26112c29,3,,,,,,frame,,,,,,,,,,,3,2,0,26,26,29,1,,,,,,,,,,,,,,,,,,,,,,,,,,,,,,,,,,,,,,,,,,,,,,,,,,,,,,,,,,,,,,,,,,,,,,
,,?,0.00128,0,,,,,,stimuli/images/PICTURE_348.png,TOILET,5dd9b8d616d10c946aa47e2f,07/24/1999,2020-08-27_10h42.37.380,proactive3.2,2020.1.2,MacIntel,60,5f47c0b9b035471e11593a5c,5f47c63fb035471f26112c29,3,,,,,,pepper,,,,,,,,,,,1,2,0,27,27,4,1,,,,,,,,,,,,,,,,,,,,,,,,,,,,,,,,,,,,,,,,,,,,,,,,,,,,,,,,,,,,,,,,,,,,,,
,,?,0.00073,0,,,,,,stimuli/images/PICTURE_504.png,HOUSE,5dd9b8d616d10c946aa47e2f,07/24/1999,2020-08-27_10h42.37.380,proactive3.2,2020.1.2,MacIntel,60,5f47c0b9b035471e11593a5c,5f47c63fb035471f26112c29,3,,,,,,wheel,,,,,,,,,,,4,2,0,28,28,36,1,,,,,,,,,,,,,,,,,,,,,,,,,,,,,,,,,,,,,,,,,,,,,,,,,,,,,,,,,,,,,,,,,,,,,,
,,?,0.00062,0,,,,,,stimuli/images/PICTURE_677.png,FAMILY,5dd9b8d616d10c946aa47e2f,07/24/1999,2020-08-27_10h42.37.380,proactive3.2,2020.1.2,MacIntel,60,5f47c0b9b035471e11593a5c,5f47c63fb035471f26112c29,3,,,,,,map,,,,,,,,,,,6,2,0,29,29,53,1,,,,,,,,,,,,,,,,,,,,,,,,,,,,,,,,,,,,,,,,,,,,,,,,,,,,,,,,,,,,,,,,,,,,,,
,,?,0.000625,0,,,,,,stimuli/images/PICTURE_141.png,CLIENT,5dd9b8d616d10c946aa47e2f,07/24/1999,2020-08-27_10h42.37.380,proactive3.2,2020.1.2,MacIntel,60,5f47c0b9b035471e11593a5c,5f47c63fb035471f26112c29,3,,,,,,sunflower,,,,,,,,,,,4,2,0,30,30,30,1,,,,,,,,,,,,,,,,,,,,,,,,,,,,,,,,,,,,,,,,,,,,,,,,,,,,,,,,,,,,,,,,,,,,,,
,,?,0.00081,0,,,,,,stimuli/images/PICTURE_708.png,VALLEY,5dd9b8d616d10c946aa47e2f,07/24/1999,2020-08-27_10h42.37.380,proactive3.2,2020.1.2,MacIntel,60,5f47c0b9b035471e11593a5c,5f47c63fb035471f26112c29,3,,,,,,monkey,,,,,,,,,,,5,2,0,31,31,45,1,,,,,,,,,,,,,,,,,,,,,,,,,,,,,,,,,,,,,,,,,,,,,,,,,,,,,,,,,,,,,,,,,,,,,,
,,?,0.00047,0,,,,,,stimuli/images/PICTURE_311.png,FLESH,5dd9b8d616d10c946aa47e2f,07/24/1999,2020-08-27_10h42.37.380,proactive3.2,2020.1.2,MacIntel,60,5f47c0b9b035471e11593a5c,5f47c63fb035471f26112c29,3,,,,,,razor,,,,,,,,,,,1,2,0,32,32,3,1,,,,,,,,,,,,,,,,,,,,,,,,,,,,,,,,,,,,,,,,,,,,,,,,,,,,,,,,,,,,,,,,,,,,,,
,,?,0.000455,0,,,,,,stimuli/images/PICTURE_215.png,LEADER,5dd9b8d616d10c946aa47e2f,07/24/1999,2020-08-27_10h42.37.380,proactive3.2,2020.1.2,MacIntel,60,5f47c0b9b035471e11593a5c,5f47c63fb035471f26112c29,3,,,,,,boot,,,,,,,,,,,5,2,0,33,33,43,1,,,,,,,,,,,,,,,,,,,,,,,,,,,,,,,,,,,,,,,,,,,,,,,,,,,,,,,,,,,,,,,,,,,,,,
,,?,0.00045,0,,,,,,stimuli/images/PICTURE_487.png,ROOF,5dd9b8d616d10c946aa47e2f,07/24/1999,2020-08-27_10h42.37.380,proactive3.2,2020.1.2,MacIntel,60,5f47c0b9b035471e11593a5c,5f47c63fb035471f26112c29,3,,,,,,basket,,,,,,,,,,,6,2,0,34,34,50,1,,,,,,,,,,,,,,,,,,,,,,,,,,,,,,,,,,,,,,,,,,,,,,,,,,,,,,,,,,,,,,,,,,,,,,
,,HOUSE,1.21903,1,,,,,,stimuli/images/PICTURE_177.png,HOUSE,5dd9b8d616d10c946aa47e2f,07/24/1999,2020-08-27_10h42.37.380,proactive3.2,2020.1.2,MacIntel,60,5f47c0b9b035471e11593a5c,5f47c63fb035471f26112c29,3,,,,,,mushroom,,,,,,,,,,,3,2,0,35,35,25,1,,,,,,,,,,,,,,,,,,,,,,,,,,,,,,,,,,,,,,,,,,,,,,,,,,,,,,,,,,,,,,,,,,,,,,
,,?,0.00148,0,,,,,,stimuli/images/PICTURE_692.png,DUDE,5dd9b8d616d10c946aa47e2f,07/24/1999,2020-08-27_10h42.37.380,proactive3.2,2020.1.2,MacIntel,60,5f47c0b9b035471e11593a5c,5f47c63fb035471f26112c29,3,,,,,,cherry,,,,,,,,,,,5,2,0,36,36,47,1,,,,,,,,,,,,,,,,,,,,,,,,,,,,,,,,,,,,,,,,,,,,,,,,,,,,,,,,,,,,,,,,,,,,,,
,,?,0.000695,0,,,,,,stimuli/images/PICTURE_509.png,APPLE,5dd9b8d616d10c946aa47e2f,07/24/1999,2020-08-27_10h42.37.380,proactive3.2,2020.1.2,MacIntel,60,5f47c0b9b035471e11593a5c,5f47c63fb035471f26112c29,3,,,,,,telephone,,,,,,,,,,,4,2,0,37,37,38,1,,,,,,,,,,,,,,,,,,,,,,,,,,,,,,,,,,,,,,,,,,,,,,,,,,,,,,,,,,,,,,,,,,,,,,
,,?,0.00055,0,,,,,,stimuli/images/PICTURE_255.png,PENNY,5dd9b8d616d10c946aa47e2f,07/24/1999,2020-08-27_10h42.37.380,proactive3.2,2020.1.2,MacIntel,60,5f47c0b9b035471e11593a5c,5f47c63fb035471f26112c29,3,,,,,,shovel,,,,,,,,,,,2,2,0,38,38,19,1,,,,,,,,,,,,,,,,,,,,,,,,,,,,,,,,,,,,,,,,,,,,,,,,,,,,,,,,,,,,,,,,,,,,,,
,,?,0.000645,0,,,,,,stimuli/images/PICTURE_2.png,JUNGLE,5dd9b8d616d10c946aa47e2f,07/24/1999,2020-08-27_10h42.37.380,proactive3.2,2020.1.2,MacIntel,60,5f47c0b9b035471e11593a5c,5f47c63fb035471f26112c29,3,,,,,,tyre,,,,,,,,,,,1,2,0,39,39,1,1,,,,,,,,,,,,,,,,,,,,,,,,,,,,,,,,,,,,,,,,,,,,,,,,,,,,,,,,,,,,,,,,,,,,,,
,,?,0.00057,0,,,,,,stimuli/images/PICTURE_2.png,AREA,5dd9b8d616d10c946aa47e2f,07/24/1999,2020-08-27_10h42.37.380,proactive3.2,2020.1.2,MacIntel,60,5f47c0b9b035471e11593a5c,5f47c63fb035471f26112c29,3,,,,,,tyre,,,,,,,,,,,4,2,0,40,40,32,1,,,,,,,,,,,,,,,,,,,,,,,,,,,,,,,,,,,,,,,,,,,,,,,,,,,,,,,,,,,,,,,,,,,,,,
,,?,0.00061,0,,,,,,stimuli/images/PICTURE_285.png,WRITER,5dd9b8d616d10c946aa47e2f,07/24/1999,2020-08-27_10h42.37.380,proactive3.2,2020.1.2,MacIntel,60,5f47c0b9b035471e11593a5c,5f47c63fb035471f26112c29,3,,,,,,carrot,,,,,,,,,,,1,2,0,41,41,6,1,,,,,,,,,,,,,,,,,,,,,,,,,,,,,,,,,,,,,,,,,,,,,,,,,,,,,,,,,,,,,,,,,,,,,,
,,GLASS,1.422025,1,,,,,,stimuli/images/PICTURE_667.png,GLASS,5dd9b8d616d10c946aa47e2f,07/24/1999,2020-08-27_10h42.37.380,proactive3.2,2020.1.2,MacIntel,60,5f47c0b9b035471e11593a5c,5f47c63fb035471f26112c29,3,,,,,,daisy,,,,,,,,,,,3,2,0,42,42,27,1,,,,,,,,,,,,,,,,,,,,,,,,,,,,,,,,,,,,,,,,,,,,,,,,,,,,,,,,,,,,,,,,,,,,,,
,,?,0.00296,0,,,,,,stimuli/images/PICTURE_57.png,CASINO,5dd9b8d616d10c946aa47e2f,07/24/1999,2020-08-27_10h42.37.380,proactive3.2,2020.1.2,MacIntel,60,5f47c0b9b035471e11593a5c,5f47c63fb035471f26112c29,3,,,,,,stamp,,,,,,,,,,,2,2,0,43,43,12,1,,,,,,,,,,,,,,,,,,,,,,,,,,,,,,,,,,,,,,,,,,,,,,,,,,,,,,,,,,,,,,,,,,,,,,
,,?,0.00069,0,,,,,,stimuli/images/PICTURE_297.png,BODY,5dd9b8d616d10c946aa47e2f,07/24/1999,2020-08-27_10h42.37.380,proactive3.2,2020.1.2,MacIntel,60,5f47c0b9b035471e11593a5c,5f47c63fb035471f26112c29,3,,,,,,aeroplane,,,,,,,,,,,6,2,0,44,44,51,1,,,,,,,,,,,,,,,,,,,,,,,,,,,,,,,,,,,,,,,,,,,,,,,,,,,,,,,,,,,,,,,,,,,,,,
,,?,0.000625,0,,,,,,stimuli/images/PICTURE_93.png,GIRL,5dd9b8d616d10c946aa47e2f,07/24/1999,2020-08-27_10h42.37.380,proactive3.2,2020.1.2,MacIntel,60,5f47c0b9b035471e11593a5c,5f47c63fb035471f26112c29,3,,,,,,skateboard,,,,,,,,,,,4,2,0,45,45,31,1,,,,,,,,,,,,,,,,,,,,,,,,,,,,,,,,,,,,,,,,,,,,,,,,,,,,,,,,,,,,,,,,,,,,,,
,,?,0.000605,0,,,,,,stimuli/images/PICTURE_491.png,SERIES,5dd9b8d616d10c946aa47e2f,07/24/1999,2020-08-27_10h42.37.380,proactive3.2,2020.1.2,MacIntel,60,5f47c0b9b035471e11593a5c,5f47c63fb035471f26112c29,3,,,,,,rug,,,,,,,,,,,4,2,0,46,46,39,1,,,,,,,,,,,,,,,,,,,,,,,,,,,,,,,,,,,,,,,,,,,,,,,,,,,,,,,,,,,,,,,,,,,,,,
,,?,0.000695,0,,,,,,stimuli/images/PICTURE_509.png,BATH,5dd9b8d616d10c946aa47e2f,07/24/1999,2020-08-27_10h42.37.380,proactive3.2,2020.1.2,MacIntel,60,5f47c0b9b035471e11593a5c,5f47c63fb035471f26112c29,3,,,,,,telephone,,,,,,,,,,,2,2,0,47,47,15,1,,,,,,,,,,,,,,,,,,,,,,,,,,,,,,,,,,,,,,,,,,,,,,,,,,,,,,,,,,,,,,,,,,,,,,
,,?,0.000455,0,,,,,,stimuli/images/PICTURE_314.png,SPEECH,5dd9b8d616d10c946aa47e2f,07/24/1999,2020-08-27_10h42.37.380,proactive3.2,2020.1.2,MacIntel,60,5f47c0b9b035471e11593a5c,5f47c63fb035471f26112c29,3,,,,,,perfume,,,,,,,,,,,4,2,0,48,48,35,1,,,,,,,,,,,,,,,,,,,,,,,,,,,,,,,,,,,,,,,,,,,,,,,,,,,,,,,,,,,,,,,,,,,,,,
,,?,0.000585,0,,,,,,stimuli/images/PICTURE_405.png,JUNGLE,5dd9b8d616d10c946aa47e2f,07/24/1999,2020-08-27_10h42.37.380,proactive3.2,2020.1.2,MacIntel,60,5f47c0b9b035471e11593a5c,5f47c63fb035471f26112c29,3,,,,,,anchor,,,,,,,,,,,2,2,0,49,49,13,1,,,,,,,,,,,,,,,,,,,,,,,,,,,,,,,,,,,,,,,,,,,,,,,,,,,,,,,,,,,,,,,,,,,,,,
,,?,0.000575,0,,,,,,stimuli/images/PICTURE_677.png,PHOTO,5dd9b8d616d10c946aa47e2f,07/24/1999,2020-08-27_10h42.37.380,proactive3.2,2020.1.2,MacIntel,60,5f47c0b9b035471e11593a5c,5f47c63fb035471f26112c29,3,,,,,,map,,,,,,,,,,,2,2,0,50,50,14,1,,,,,,,,,,,,,,,,,,,,,,,,,,,,,,,,,,,,,,,,,,,,,,,,,,,,,,,,,,,,,,,,,,,,,,
,,?,0.00062,0,,,,,,stimuli/images/PICTURE_311.png,TOILET,5dd9b8d616d10c946aa47e2f,07/24/1999,2020-08-27_10h42.37.380,proactive3.2,2020.1.2,MacIntel,60,5f47c0b9b035471e11593a5c,5f47c63fb035471f26112c29,3,,,,,,razor,,,,,,,,,,,6,2,0,51,51,54,1,,,,,,,,,,,,,,,,,,,,,,,,,,,,,,,,,,,,,,,,,,,,,,,,,,,,,,,,,,,,,,,,,,,,,,
,,?,0.000525,0,,,,,,stimuli/images/PICTURE_296.png,CLOCK,5dd9b8d616d10c946aa47e2f,07/24/1999,2020-08-27_10h42.37.380,proactive3.2,2020.1.2,MacIntel,60,5f47c0b9b035471e11593a5c,5f47c63fb035471f26112c29,3,,,,,,bolt,,,,,,,,,,,2,2,0,52,52,18,1,,,,,,,,,,,,,,,,,,,,,,,,,,,,,,,,,,,,,,,,,,,,,,,,,,,,,,,,,,,,,,,,,,,,,,
,,?,0.000715,0,,,,,,stimuli/images/PICTURE_57.png,CANDY,5dd9b8d616d10c946aa47e2f,07/24/1999,2020-08-27_10h42.37.380,proactive3.2,2020.1.2,MacIntel,60,5f47c0b9b035471e11593a5c,5f47c63fb035471f26112c29,3,,,,,,stamp,,,,,,,,,,,6,2,0,53,53,52,1,,,,,,,,,,,,,,,,,,,,,,,,,,,,,,,,,,,,,,,,,,,,,,,,,,,,,,,,,,,,,,,,,,,,,,
,,?,0.000505,0,,,,,,stimuli/images/PICTURE_2.png,YARD,5dd9b8d616d10c946aa47e2f,07/24/1999,2020-08-27_10h42.37.380,proactive3.2,2020.1.2,MacIntel,60,5f47c0b9b035471e11593a5c,5f47c63fb035471f26112c29,3,,,,,,tyre,,,,,,,,,,,6,2,0,54,54,55,1,,,,,,,,,,,,,,,,,,,,,,,,,,,,,,,,,,,,,,,,,,,,,,,,,,,,,,,,,,,,,,,,,,,,,,
,,?,0.000435,0,,,,,,stimuli/images/PICTURE_688.png,CLOCK,5dd9b8d616d10c946aa47e2f,07/24/1999,2020-08-27_10h42.37.380,proactive3.2,2020.1.2,MacIntel,60,5f47c0b9b035471e11593a5c,5f47c63fb035471f26112c29,3,,,,,,runner,,,,,,,,,,,5,2,0,55,55,42,1,,,,,,,,,,,,,,,,,,,,,,,,,,,,,,,,,,,,,,,,,,,,,,,,,,,,,,,,,,,,,,,,,,,,,,
,,?,0.000475,0,,,,,,stimuli/images/PICTURE_147.png,LEADER,5dd9b8d616d10c946aa47e2f,07/24/1999,2020-08-27_10h42.37.380,proactive3.2,2020.1.2,MacIntel,60,5f47c0b9b035471e11593a5c,5f47c63fb035471f26112c29,3,,,,,,hanger,,,,,,,,,,,4,2,0,56,56,33,1,,,,,,,,,,,,,,,,,,,,,,,,,,,,,,,,,,,,,,,,,,,,,,,,,,,,,,,,,,,,,,,,,,,,,,
,,?,0.000425,0,,,,,,stimuli/images/PICTURE_509.png,MILLER,5dd9b8d616d10c946aa47e2f,07/24/1999,2020-08-27_10h42.37.380,proactive3.2,2020.1.2,MacIntel,60,5f47c0b9b035471e11593a5c,5f47c63fb035471f26112c29,3,,,,,,telephone,,,,,,,,,,,5,2,0,57,57,49,1,,,,,,,,,,,,,,,,,,,,,,,,,,,,,,,,,,,,,,,,,,,,,,,,,,,,,,,,,,,,,,,,,,,,,,
,,?,0.00118,0,,,,,,stimuli/images/PICTURE_452.png,COPS,5dd9b8d616d10c946aa47e2f,07/24/1999,2020-08-27_10h42.37.380,proactive3.2,2020.1.2,MacIntel,60,5f47c0b9b035471e11593a5c,5f47c63fb035471f26112c29,3,,,,,,watch,,,,,,,,,,,1,2,0,58,58,0,1,,,,,,,,,,,,,,,,,,,,,,,,,,,,,,,,,,,,,,,,,,,,,,,,,,,,,,,,,,,,,,,,,,,,,,
,,?,0.000665,0,,,,,,stimuli/images/PICTURE_160.png,HOTEL,5dd9b8d616d10c946aa47e2f,07/24/1999,2020-08-27_10h42.37.380,proactive3.2,2020.1.2,MacIntel,60,5f47c0b9b035471e11593a5c,5f47c63fb035471f26112c29,3,,,,,,wheelbarrow,,,,,,,,,,,2,2,0,59,59,16,1,,,,,,,,,,,,,,,,,,,,,,,,,,,,,,,,,,,,,,,,,,,,,,,,,,,,,,,,,,,,,,,,,,,,,,
,,,,,,,,,,,,5dd9b8d616d10c946aa47e2f,07/24/1999,2020-08-27_10h42.37.380,proactive3.2,2020.1.2,MacIntel,60,5f47c0b9b035471e11593a5c,5f47c63fb035471f26112c29,3,,,,,,,,,,,,,,,,,,,,,,,,0,1,1,2,1,stimuli/learn-block3.csv,,,,,,,,,,,,,,,,,,,,,,,,,,,,,,,,,,,,,,,,,,,,,,,,,,,,,,,,,,,,,,,,
,,,,,,,,,,stimuli/images/PICTURE_383.png,WRITER,5dd9b8d616d10c946aa47e2f,07/24/1999,2020-08-27_10h42.37.380,proactive3.2,2020.1.2,MacIntel,60,5f47c0b9b035471e11593a5c,5f47c63fb035471f26112c29,3,,,,,,coin,,,,,,0,0,0,28,1,3,1,,,,,,,,,,,,,,,,,,,,,,,,,,,,,,,,,,,,,,,,,,,,,,,,,,,,,,,,,,,,,,,,,,,,,,,,,,,
,,,,,,,,,,stimuli/images/PICTURE_380.png,CANDY,5dd9b8d616d10c946aa47e2f,07/24/1999,2020-08-27_10h42.37.380,proactive3.2,2020.1.2,MacIntel,60,5f47c0b9b035471e11593a5c,5f47c63fb035471f26112c29,3,,,,,,gorilla,,,,,,0,1,1,0,1,1,1,,,,,,,,,,,,,,,,,,,,,,,,,,,,,,,,,,,,,,,,,,,,,,,,,,,,,,,,,,,,,,,,,,,,,,,,,,,
,,,,,,,,,,stimuli/images/PICTURE_233.png,LOTS,5dd9b8d616d10c946aa47e2f,07/24/1999,2020-08-27_10h42.37.380,proactive3.2,2020.1.2,MacIntel,60,5f47c0b9b035471e11593a5c,5f47c63fb035471f26112c29,3,,,,,,salt,,,,,,0,2,2,42,1,5,1,,,,,,,,,,,,,,,,,,,,,,,,,,,,,,,,,,,,,,,,,,,,,,,,,,,,,,,,,,,,,,,,,,,,,,,,,,,
,,,,,,,,,,stimuli/images/PICTURE_95.png,HONEY,5dd9b8d616d10c946aa47e2f,07/24/1999,2020-08-27_10h42.37.380,proactive3.2,2020.1.2,MacIntel,60,5f47c0b9b035471e11593a5c,5f47c63fb035471f26112c29,3,,,,,,suitcase,,,,,,0,3,3,44,1,5,1,,,,,,,,,,,,,,,,,,,,,,,,,,,,,,,,,,,,,,,,,,,,,,,,,,,,,,,,,,,,,,,,,,,,,,,,,,,
,,,,,,,,,,stimuli/images/PICTURE_147.png,WOMEN,5dd9b8d616d10c946aa47e2f,07/24/1999,2020-08-27_10h42.37.380,proactive3.2,2020.1.2,MacIntel,60,5f47c0b9b035471e11593a5c,5f47c63fb035471f26112c29,3,,,,,,hanger,,,,,,0,4,4,7,1,1,1,,,,,,,,,,,,,,,,,,,,,,,,,,,,,,,,,,,,,,,,,,,,,,,,,,,,,,,,,,,,,,,,,,,,,,,,,,,
,,,,,,,,,,stimuli/images/PICTURE_654.png,MONTH,5dd9b8d616d10c946aa47e2f,07/24/1999,2020-08-27_10h42.37.380,proactive3.2,2020.1.2,MacIntel,60,5f47c0b9b035471e11593a5c,5f47c63fb035471f26112c29,3,,,,,,pencil,,,,,,0,5,5,29,1,3,1,,,,,,,,,,,,,,,,,,,,,,,,,,,,,,,,,,,,,,,,,,,,,,,,,,,,,,,,,,,,,,,,,,,,,,,,,,,
,,,,,,,,,,stimuli/images/PICTURE_203.png,GODS,5dd9b8d616d10c946aa47e2f,07/24/1999,2020-08-27_10h42.37.380,proactive3.2,2020.1.2,MacIntel,60,5f47c0b9b035471e11593a5c,5f47c63fb035471f26112c29,3,,,,,,cap,,,,,,0,6,6,30,1,4,1,,,,,,,,,,,,,,,,,,,,,,,,,,,,,,,,,,,,,,,,,,,,,,,,,,,,,,,,,,,,,,,,,,,,,,,,,,,
,,,,,,,,,,stimuli/images/PICTURE_108.png,FLIGHT,5dd9b8d616d10c946aa47e2f,07/24/1999,2020-08-27_10h42.37.380,proactive3.2,2020.1.2,MacIntel,60,5f47c0b9b035471e11593a5c,5f47c63fb035471f26112c29,3,,,,,,calendar,,,,,,0,7,7,59,1,6,1,,,,,,,,,,,,,,,,,,,,,,,,,,,,,,,,,,,,,,,,,,,,,,,,,,,,,,,,,,,,,,,,,,,,,,,,,,,
,,,,,,,,,,stimuli/images/PICTURE_750.png,HOTEL,5dd9b8d616d10c946aa47e2f,07/24/1999,2020-08-27_10h42.37.380,proactive3.2,2020.1.2,MacIntel,60,5f47c0b9b035471e11593a5c,5f47c63fb035471f26112c29,3,,,,,,kettle,,,,,,0,8,8,27,1,3,1,,,,,,,,,,,,,,,,,,,,,,,,,,,,,,,,,,,,,,,,,,,,,,,,,,,,,,,,,,,,,,,,,,,,,,,,,,,
,,,,,,,,,,stimuli/images/PICTURE_68.png,ROOF,5dd9b8d616d10c946aa47e2f,07/24/1999,2020-08-27_10h42.37.380,proactive3.2,2020.1.2,MacIntel,60,5f47c0b9b035471e11593a5c,5f47c63fb035471f26112c29,3,,,,,,candle,,,,,,0,9,9,38,1,4,1,,,,,,,,,,,,,,,,,,,,,,,,,,,,,,,,,,,,,,,,,,,,,,,,,,,,,,,,,,,,,,,,,,,,,,,,,,,
,,,,,,,,,,stimuli/images/PICTURE_32.png,KIND,5dd9b8d616d10c946aa47e2f,07/24/1999,2020-08-27_10h42.37.380,proactive3.2,2020.1.2,MacIntel,60,5f47c0b9b035471e11593a5c,5f47c63fb035471f26112c29,3,,,,,,crown,,,,,,0,10,10,35,1,4,1,,,,,,,,,,,,,,,,,,,,,,,,,,,,,,,,,,,,,,,,,,,,,,,,,,,,,,,,,,,,,,,,,,,,,,,,,,,
,,,,,,,,,,stimuli/images/PICTURE_57.png,MOMENT,5dd9b8d616d10c946aa47e2f,07/24/1999,2020-08-27_10h42.37.380,proactive3.2,2020.1.2,MacIntel,60,5f47c0b9b035471e11593a5c,5f47c63fb035471f26112c29,3,,,,,,stamp,,,,,,0,11,11,37,1,4,1,,,,,,,,,,,,,,,,,,,,,,,,,,,,,,,,,,,,,,,,,,,,,,,,,,,,,,,,,,,,,,,,,,,,,,,,,,,
,,,,,,,,,,stimuli/images/PICTURE_108.png,POLICY,5dd9b8d616d10c946aa47e2f,07/24/1999,2020-08-27_10h42.37.380,proactive3.2,2020.1.2,MacIntel,60,5f47c0b9b035471e11593a5c,5f47c63fb035471f26112c29,3,,,,,,calendar,,,,,,0,12,12,22,1,3,1,,,,,,,,,,,,,,,,,,,,,,,,,,,,,,,,,,,,,,,,,,,,,,,,,,,,,,,,,,,,,,,,,,,,,,,,,,,
,,,,,,,,,,stimuli/images/PICTURE_504.png,YEAR,5dd9b8d616d10c946aa47e2f,07/24/1999,2020-08-27_10h42.37.380,proactive3.2,2020.1.2,MacIntel,60,5f47c0b9b035471e11593a5c,5f47c63fb035471f26112c29,3,,,,,,wheel,,,,,,0,13,13,13,1,2,1,,,,,,,,,,,,,,,,,,,,,,,,,,,,,,,,,,,,,,,,,,,,,,,,,,,,,,,,,,,,,,,,,,,,,,,,,,,
,,,,,,,,,,stimuli/images/PICTURE_95.png,BOYS,5dd9b8d616d10c946aa47e2f,07/24/1999,2020-08-27_10h42.37.380,proactive3.2,2020.1.2,MacIntel,60,5f47c0b9b035471e11593a5c,5f47c63fb035471f26112c29,3,,,,,,suitcase,,,,,,0,14,14,1,1,1,1,,,,,,,,,,,,,,,,,,,,,,,,,,,,,,,,,,,,,,,,,,,,,,,,,,,,,,,,,,,,,,,,,,,,,,,,,,,
,,,,,,,,,,stimuli/images/PICTURE_677.png,APPLE,5dd9b8d616d10c946aa47e2f,07/24/1999,2020-08-27_10h42.37.380,proactive3.2,2020.1.2,MacIntel,60,5f47c0b9b035471e11593a5c,5f47c63fb035471f26112c29,3,,,,,,map,,,,,,0,15,15,43,1,5,1,,,,,,,,,,,,,,,,,,,,,,,,,,,,,,,,,,,,,,,,,,,,,,,,,,,,,,,,,,,,,,,,,,,,,,,,,,,
,,,,,,,,,,stimuli/images/PICTURE_744.png,WEAPON,5dd9b8d616d10c946aa47e2f,07/24/1999,2020-08-27_10h42.37.380,proactive3.2,2020.1.2,MacIntel,60,5f47c0b9b035471e11593a5c,5f47c63fb035471f26112c29,3,,,,,,ring,,,,,,0,16,16,50,1,6,1,,,,,,,,,,,,,,,,,,,,,,,,,,,,,,,,,,,,,,,,,,,,,,,,,,,,,,,,,,,,,,,,,,,,,,,,,,,
,,,,,,,,,,stimuli/images/PICTURE_340.png,LETTER,5dd9b8d616d10c946aa47e2f,07/24/1999,2020-08-27_10h42.37.380,proactive3.2,2020.1.2,MacIntel,60,5f47c0b9b035471e11593a5c,5f47c63fb035471f26112c29,3,,,,,,mirror,,,,,,0,17,17,24,1,3,1,,,,,,,,,,,,,,,,,,,,,,,,,,,,,,,,,,,,,,,,,,,,,,,,,,,,,,,,,,,,,,,,,,,,,,,,,,,
,,,,,,,,,,stimuli/images/PICTURE_469.png,AGENT,5dd9b8d616d10c946aa47e2f,07/24/1999,2020-08-27_10h42.37.380,proactive3.2,2020.1.2,MacIntel,60,5f47c0b9b035471e11593a5c,5f47c63fb035471f26112c29,3,,,,,,stool,,,,,,0,18,18,16,1,2,1,,,,,,,,,,,,,,,,,,,,,,,,,,,,,,,,,,,,,,,,,,,,,,,,,,,,,,,,,,,,,,,,,,,,,,,,,,,
,,,,,,,,,,stimuli/images/PICTURE_285.png,LIFE,5dd9b8d616d10c946aa47e2f,07/24/1999,2020-08-27_10h42.37.380,proactive3.2,2020.1.2,MacIntel,60,5f47c0b9b035471e11593a5c,5f47c63fb035471f26112c29,3,,,,,,carrot,,,,,,0,19,19,33,1,4,1,,,,,,,,,,,,,,,,,,,,,,,,,,,,,,,,,,,,,,,,,,,,,,,,,,,,,,,,,,,,,,,,,,,,,,,,,,,
,,,,,,,,,,stimuli/images/PICTURE_296.png,LOTS,5dd9b8d616d10c946aa47e2f,07/24/1999,2020-08-27_10h42.37.380,proactive3.2,2020.1.2,MacIntel,60,5f47c0b9b035471e11593a5c,5f47c63fb035471f26112c29,3,,,,,,bolt,,,,,,0,20,20,9,1,1,1,,,,,,,,,,,,,,,,,,,,,,,,,,,,,,,,,,,,,,,,,,,,,,,,,,,,,,,,,,,,,,,,,,,,,,,,,,,
,,,,,,,,,,stimuli/images/PICTURE_340.png,VALLEY,5dd9b8d616d10c946aa47e2f,07/24/1999,2020-08-27_10h42.37.380,proactive3.2,2020.1.2,MacIntel,60,5f47c0b9b035471e11593a5c,5f47c63fb035471f26112c29,3,,,,,,mirror,,,,,,0,21,21,54,1,6,1,,,,,,,,,,,,,,,,,,,,,,,,,,,,,,,,,,,,,,,,,,,,,,,,,,,,,,,,,,,,,,,,,,,,,,,,,,,
,,,,,,,,,,stimuli/images/PICTURE_327.png,CASINO,5dd9b8d616d10c946aa47e2f,07/24/1999,2020-08-27_10h42.37.380,proactive3.2,2020.1.2,MacIntel,60,5f47c0b9b035471e11593a5c,5f47c63fb035471f26112c29,3,,,,,,helmet,,,,,,0,22,22,20,1,3,1,,,,,,,,,,,,,,,,,,,,,,,,,,,,,,,,,,,,,,,,,,,,,,,,,,,,,,,,,,,,,,,,,,,,,,,,,,,
,,,,,,,,,,stimuli/images/PICTURE_708.png,RECORD,5dd9b8d616d10c946aa47e2f,07/24/1999,2020-08-27_10h42.37.380,proactive3.2,2020.1.2,MacIntel,60,5f47c0b9b035471e11593a5c,5f47c63fb035471f26112c29,3,,,,,,monkey,,,,,,0,23,23,58,1,6,1,,,,,,,,,,,,,,,,,,,,,,,,,,,,,,,,,,,,,,,,,,,,,,,,,,,,,,,,,,,,,,,,,,,,,,,,,,,
,,,,,,,,,,stimuli/images/PICTURE_42.png,BOYS,5dd9b8d616d10c946aa47e2f,07/24/1999,2020-08-27_10h42.37.380,proactive3.2,2020.1.2,MacIntel,60,5f47c0b9b035471e11593a5c,5f47c63fb035471f26112c29,3,,,,,,pear,,,,,,0,24,24,55,1,6,1,,,,,,,,,,,,,,,,,,,,,,,,,,,,,,,,,,,,,,,,,,,,,,,,,,,,,,,,,,,,,,,,,,,,,,,,,,,
,,,,,,,,,,stimuli/images/PICTURE_208.png,SYSTEM,5dd9b8d616d10c946aa47e2f,07/24/1999,2020-08-27_10h42.37.380,proactive3.2,2020.1.2,MacIntel,60,5f47c0b9b035471e11593a5c,5f47c63fb035471f26112c29,3,,,,,,microphone,,,,,,0,25,25,32,1,4,1,,,,,,,,,,,,,,,,,,,,,,,,,,,,,,,,,,,,,,,,,,,,,,,,,,,,,,,,,,,,,,,,,,,,,,,,,,,
,,,,,,,,,,stimuli/images/PICTURE_308.png,FAMILY,5dd9b8d616d10c946aa47e2f,07/24/1999,2020-08-27_10h42.37.380,proactive3.2,2020.1.2,MacIntel,60,5f47c0b9b035471e11593a5c,5f47c63fb035471f26112c29,3,,,,,,dice,,,,,,0,26,26,36,1,4,1,,,,,,,,,,,,,,,,,,,,,,,,,,,,,,,,,,,,,,,,,,,,,,,,,,,,,,,,,,,,,,,,,,,,,,,,,,,
,,,,,,,,,,stimuli/images/PICTURE_403.png,WRITER,5dd9b8d616d10c946aa47e2f,07/24/1999,2020-08-27_10h42.37.380,proactive3.2,2020.1.2,MacIntel,60,5f47c0b9b035471e11593a5c,5f47c63fb035471f26112c29,3,,,,,,cathedral,,,,,,0,27,27,31,1,4,1,,,,,,,,,,,,,,,,,,,,,,,,,,,,,,,,,,,,,,,,,,,,,,,,,,,,,,,,,,,,,,,,,,,,,,,,,,,
,,,,,,,,,,stimuli/images/PICTURE_32.png,PILLS,5dd9b8d616d10c946aa47e2f,07/24/1999,2020-08-27_10h42.37.380,proactive3.2,2020.1.2,MacIntel,60,5f47c0b9b035471e11593a5c,5f47c63fb035471f26112c29,3,,,,,,crown,,,,,,0,28,28,18,1,2,1,,,,,,,,,,,,,,,,,,,,,,,,,,,,,,,,,,,,,,,,,,,,,,,,,,,,,,,,,,,,,,,,,,,,,,,,,,,
,,,,,,,,,,stimuli/images/PICTURE_327.png,SERIES,5dd9b8d616d10c946aa47e2f,07/24/1999,2020-08-27_10h42.37.380,proactive3.2,2020.1.2,MacIntel,60,5f47c0b9b035471e11593a5c,5f47c63fb035471f26112c29,3,,,,,,helmet,,,,,,0,29,29,3,1,1,1,,,,,,,,,,,,,,,,,,,,,,,,,,,,,,,,,,,,,,,,,,,,,,,,,,,,,,,,,,,,,,,,,,,,,,,,,,,
,,,,,,,,,,stimuli/images/PICTURE_177.png,WRITER,5dd9b8d616d10c946aa47e2f,07/24/1999,2020-08-27_10h42.37.380,proactive3.2,2020.1.2,MacIntel,60,5f47c0b9b035471e11593a5c,5f47c63fb035471f26112c29,3,,,,,,mushroom,,,,,,0,30,30,41,1,5,1,,,,,,,,,,,,,,,,,,,,,,,,,,,,,,,,,,,,,,,,,,,,,,,,,,,,,,,,,,,,,,,,,,,,,,,,,,,
,,,,,,,,,,stimuli/images/PICTURE_383.png,SERIES,5dd9b8d616d10c946aa47e2f,07/24/1999,2020-08-27_10h42.37.380,proactive3.2,2020.1.2,MacIntel,60,5f47c0b9b035471e11593a5c,5f47c63fb035471f26112c29,3,,,,,,coin,,,,,,0,31,31,46,1,5,1,,,,,,,,,,,,,,,,,,,,,,,,,,,,,,,,,,,,,,,,,,,,,,,,,,,,,,,,,,,,,,,,,,,,,,,,,,,
,,,,,,,,,,stimuli/images/PICTURE_504.png,ARTIST,5dd9b8d616d10c946aa47e2f,07/24/1999,2020-08-27_10h42.37.380,proactive3.2,2020.1.2,MacIntel,60,5f47c0b9b035471e11593a5c,5f47c63fb035471f26112c29,3,,,,,,wheel,,,,,,0,32,32,49,1,5,1,,,,,,,,,,,,,,,,,,,,,,,,,,,,,,,,,,,,,,,,,,,,,,,,,,,,,,,,,,,,,,,,,,,,,,,,,,,
,,,,,,,,,,stimuli/images/PICTURE_504.png,COPS,5dd9b8d616d10c946aa47e2f,07/24/1999,2020-08-27_10h42.37.380,proactive3.2,2020.1.2,MacIntel,60,5f47c0b9b035471e11593a5c,5f47c63fb035471f26112c29,3,,,,,,wheel,,,,,,0,33,33,52,1,6,1,,,,,,,,,,,,,,,,,,,,,,,,,,,,,,,,,,,,,,,,,,,,,,,,,,,,,,,,,,,,,,,,,,,,,,,,,,,
,,,,,,,,,,stimuli/images/PICTURE_297.png,RIVER,5dd9b8d616d10c946aa47e2f,07/24/1999,2020-08-27_10h42.37.380,proactive3.2,2020.1.2,MacIntel,60,5f47c0b9b035471e11593a5c,5f47c63fb035471f26112c29,3,,,,,,aeroplane,,,,,,0,34,34,39,1,4,1,,,,,,,,,,,,,,,,,,,,,,,,,,,,,,,,,,,,,,,,,,,,,,,,,,,,,,,,,,,,,,,,,,,,,,,,,,,
,,,,,,,,,,stimuli/images/PICTURE_296.png,LIFE,5dd9b8d616d10c946aa47e2f,07/24/1999,2020-08-27_10h42.37.380,proactive3.2,2020.1.2,MacIntel,60,5f47c0b9b035471e11593a5c,5f47c63fb035471f26112c29,3,,,,,,bolt,,,,,,0,35,35,57,1,6,1,,,,,,,,,,,,,,,,,,,,,,,,,,,,,,,,,,,,,,,,,,,,,,,,,,,,,,,,,,,,,,,,,,,,,,,,,,,
,,,,,,,,,,stimuli/images/PICTURE_339.png,CLIENT,5dd9b8d616d10c946aa47e2f,07/24/1999,2020-08-27_10h42.37.380,proactive3.2,2020.1.2,MacIntel,60,5f47c0b9b035471e11593a5c,5f47c63fb035471f26112c29,3,,,,,,backpack,,,,,,0,36,36,11,1,2,1,,,,,,,,,,,,,,,,,,,,,,,,,,,,,,,,,,,,,,,,,,,,,,,,,,,,,,,,,,,,,,,,,,,,,,,,,,,
,,,,,,,,,,stimuli/images/PICTURE_33.png,FRIEND,5dd9b8d616d10c946aa47e2f,07/24/1999,2020-08-27_10h42.37.380,proactive3.2,2020.1.2,MacIntel,60,5f47c0b9b035471e11593a5c,5f47c63fb035471f26112c29,3,,,,,,frame,,,,,,0,37,37,8,1,1,1,,,,,,,,,,,,,,,,,,,,,,,,,,,,,,,,,,,,,,,,,,,,,,,,,,,,,,,,,,,,,,,,,,,,,,,,,,,
,,,,,,,,,,stimuli/images/PICTURE_68.png,MILE,5dd9b8d616d10c946aa47e2f,07/24/1999,2020-08-27_10h42.37.380,proactive3.2,2020.1.2,MacIntel,60,5f47c0b9b035471e11593a5c,5f47c63fb035471f26112c29,3,,,,,,candle,,,,,,0,38,38,51,1,6,1,,,,,,,,,,,,,,,,,,,,,,,,,,,,,,,,,,,,,,,,,,,,,,,,,,,,,,,,,,,,,,,,,,,,,,,,,,,
,,,,,,,,,,stimuli/images/PICTURE_405.png,YEAR,5dd9b8d616d10c946aa47e2f,07/24/1999,2020-08-27_10h42.37.380,proactive3.2,2020.1.2,MacIntel,60,5f47c0b9b035471e11593a5c,5f47c63fb035471f26112c29,3,,,,,,anchor,,,,,,0,39,39,34,1,4,1,,,,,,,,,,,,,,,,,,,,,,,,,,,,,,,,,,,,,,,,,,,,,,,,,,,,,,,,,,,,,,,,,,,,,,,,,,,
,,,,,,,,,,stimuli/images/PICTURE_403.png,TOILET,5dd9b8d616d10c946aa47e2f,07/24/1999,2020-08-27_10h42.37.380,proactive3.2,2020.1.2,MacIntel,60,5f47c0b9b035471e11593a5c,5f47c63fb035471f26112c29,3,,,,,,cathedral,,,,,,0,40,40,25,1,3,1,,,,,,,,,,,,,,,,,,,,,,,,,,,,,,,,,,,,,,,,,,,,,,,,,,,,,,,,,,,,,,,,,,,,,,,,,,,
,,,,,,,,,,stimuli/images/PICTURE_667.png,RIVER,5dd9b8d616d10c946aa47e2f,07/24/1999,2020-08-27_10h42.37.380,proactive3.2,2020.1.2,MacIntel,60,5f47c0b9b035471e11593a5c,5f47c63fb035471f26112c29,3,,,,,,daisy,,,,,,0,41,41,10,1,2,1,,,,,,,,,,,,,,,,,,,,,,,,,,,,,,,,,,,,,,,,,,,,,,,,,,,,,,,,,,,,,,,,,,,,,,,,,,,
,,,,,,,,,,stimuli/images/PICTURE_467.png,POLICY,5dd9b8d616d10c946aa47e2f,07/24/1999,2020-08-27_10h42.37.380,proactive3.2,2020.1.2,MacIntel,60,5f47c0b9b035471e11593a5c,5f47c63fb035471f26112c29,3,,,,,,peg,,,,,,0,42,42,53,1,6,1,,,,,,,,,,,,,,,,,,,,,,,,,,,,,,,,,,,,,,,,,,,,,,,,,,,,,,,,,,,,,,,,,,,,,,,,,,,
,,,,,,,,,,stimuli/images/PICTURE_491.png,RIVER,5dd9b8d616d10c946aa47e2f,07/24/1999,2020-08-27_10h42.37.380,proactive3.2,2020.1.2,MacIntel,60,5f47c0b9b035471e11593a5c,5f47c63fb035471f26112c29,3,,,,,,rug,,,,,,0,43,43,6,1,1,1,,,,,,,,,,,,,,,,,,,,,,,,,,,,,,,,,,,,,,,,,,,,,,,,,,,,,,,,,,,,,,,,,,,,,,,,,,,
,,,,,,,,,,stimuli/images/PICTURE_487.png,GIRL,5dd9b8d616d10c946aa47e2f,07/24/1999,2020-08-27_10h42.37.380,proactive3.2,2020.1.2,MacIntel,60,5f47c0b9b035471e11593a5c,5f47c63fb035471f26112c29,3,,,,,,basket,,,,,,0,44,44,45,1,5,1,,,,,,,,,,,,,,,,,,,,,,,,,,,,,,,,,,,,,,,,,,,,,,,,,,,,,,,,,,,,,,,,,,,,,,,,,,,
,,,,,,,,,,stimuli/images/PICTURE_564.png,BATH,5dd9b8d616d10c946aa47e2f,07/24/1999,2020-08-27_10h42.37.380,proactive3.2,2020.1.2,MacIntel,60,5f47c0b9b035471e11593a5c,5f47c63fb035471f26112c29,3,,,,,,spoon,,,,,,0,45,45,26,1,3,1,,,,,,,,,,,,,,,,,,,,,,,,,,,,,,,,,,,,,,,,,,,,,,,,,,,,,,,,,,,,,,,,,,,,,,,,,,,
,,,,,,,,,,stimuli/images/PICTURE_95.png,MILLER,5dd9b8d616d10c946aa47e2f,07/24/1999,2020-08-27_10h42.37.380,proactive3.2,2020.1.2,MacIntel,60,5f47c0b9b035471e11593a5c,5f47c63fb035471f26112c29,3,,,,,,suitcase,,,,,,0,46,46,56,1,6,1,,,,,,,,,,,,,,,,,,,,,,,,,,,,,,,,,,,,,,,,,,,,,,,,,,,,,,,,,,,,,,,,,,,,,,,,,,,
,,,,,,,,,,stimuli/images/PICTURE_685.png,PENNY,5dd9b8d616d10c946aa47e2f,07/24/1999,2020-08-27_10h42.37.380,proactive3.2,2020.1.2,MacIntel,60,5f47c0b9b035471e11593a5c,5f47c63fb035471f26112c29,3,,,,,,goose,,,,,,0,47,47,4,1,1,1,,,,,,,,,,,,,,,,,,,,,,,,,,,,,,,,,,,,,,,,,,,,,,,,,,,,,,,,,,,,,,,,,,,,,,,,,,,
,,,,,,,,,,stimuli/images/PICTURE_449.png,DUDE,5dd9b8d616d10c946aa47e2f,07/24/1999,2020-08-27_10h42.37.380,proactive3.2,2020.1.2,MacIntel,60,5f47c0b9b035471e11593a5c,5f47c63fb035471f26112c29,3,,,,,,bench,,,,,,0,48,48,17,1,2,1,,,,,,,,,,,,,,,,,,,,,,,,,,,,,,,,,,,,,,,,,,,,,,,,,,,,,,,,,,,,,,,,,,,,,,,,,,,
,,,,,,,,,,stimuli/images/PICTURE_403.png,RIVER,5dd9b8d616d10c946aa47e2f,07/24/1999,2020-08-27_10h42.37.380,proactive3.2,2020.1.2,MacIntel,60,5f47c0b9b035471e11593a5c,5f47c63fb035471f26112c29,3,,,,,,cathedral,,,,,,0,49,49,40,1,5,1,,,,,,,,,,,,,,,,,,,,,,,,,,,,,,,,,,,,,,,,,,,,,,,,,,,,,,,,,,,,,,,,,,,,,,,,,,,
,,,,,,,,,,stimuli/images/PICTURE_655.png,TOILET,5dd9b8d616d10c946aa47e2f,07/24/1999,2020-08-27_10h42.37.380,proactive3.2,2020.1.2,MacIntel,60,5f47c0b9b035471e11593a5c,5f47c63fb035471f26112c29,3,,,,,,megaphone,,,,,,0,50,50,12,1,2,1,,,,,,,,,,,,,,,,,,,,,,,,,,,,,,,,,,,,,,,,,,,,,,,,,,,,,,,,,,,,,,,,,,,,,,,,,,,
,,,,,,,,,,stimuli/images/PICTURE_491.png,GLASS,5dd9b8d616d10c946aa47e2f,07/24/1999,2020-08-27_10h42.37.380,proactive3.2,2020.1.2,MacIntel,60,5f47c0b9b035471e11593a5c,5f47c63fb035471f26112c29,3,,,,,,rug,,,,,,0,51,51,14,1,2,1,,,,,,,,,,,,,,,,,,,,,,,,,,,,,,,,,,,,,,,,,,,,,,,,,,,,,,,,,,,,,,,,,,,,,,,,,,,
,,,,,,,,,,stimuli/images/PICTURE_675.png,SALE,5dd9b8d616d10c946aa47e2f,07/24/1999,2020-08-27_10h42.37.380,proactive3.2,2020.1.2,MacIntel,60,5f47c0b9b035471e11593a5c,5f47c63fb035471f26112c29,3,,,,,,windmill,,,,,,0,52,52,47,1,5,1,,,,,,,,,,,,,,,,,,,,,,,,,,,,,,,,,,,,,,,,,,,,,,,,,,,,,,,,,,,,,,,,,,,,,,,,,,,
,,,,,,,,,,stimuli/images/PICTURE_380.png,HONEY,5dd9b8d616d10c946aa47e2f,07/24/1999,2020-08-27_10h42.37.380,proactive3.2,2020.1.2,MacIntel,60,5f47c0b9b035471e11593a5c,5f47c63fb035471f26112c29,3,,,,,,gorilla,,,,,,0,53,53,19,1,2,1,,,,,,,,,,,,,,,,,,,,,,,,,,,,,,,,,,,,,,,,,,,,,,,,,,,,,,,,,,,,,,,,,,,,,,,,,,,
,,,,,,,,,,stimuli/images/PICTURE_2.png,FLIGHT,5dd9b8d616d10c946aa47e2f,07/24/1999,2020-08-27_10h42.37.380,proactive3.2,2020.1.2,MacIntel,60,5f47c0b9b035471e11593a5c,5f47c63fb035471f26112c29,3,,,,,,tyre,,,,,,0,54,54,15,1,2,1,,,,,,,,,,,,,,,,,,,,,,,,,,,,,,,,,,,,,,,,,,,,,,,,,,,,,,,,,,,,,,,,,,,,,,,,,,,
,,,,,,,,,,stimuli/images/PICTURE_85.png,TOILET,5dd9b8d616d10c946aa47e2f,07/24/1999,2020-08-27_10h42.37.380,proactive3.2,2020.1.2,MacIntel,60,5f47c0b9b035471e11593a5c,5f47c63fb035471f26112c29,3,,,,,,diamond,,,,,,0,55,55,48,1,5,1,,,,,,,,,,,,,,,,,,,,,,,,,,,,,,,,,,,,,,,,,,,,,,,,,,,,,,,,,,,,,,,,,,,,,,,,,,,
,,,,,,,,,,stimuli/images/PICTURE_85.png,NATION,5dd9b8d616d10c946aa47e2f,07/24/1999,2020-08-27_10h42.37.380,proactive3.2,2020.1.2,MacIntel,60,5f47c0b9b035471e11593a5c,5f47c63fb035471f26112c29,3,,,,,,diamond,,,,,,0,56,56,5,1,1,1,,,,,,,,,,,,,,,,,,,,,,,,,,,,,,,,,,,,,,,,,,,,,,,,,,,,,,,,,,,,,,,,,,,,,,,,,,,
,,,,,,,,,,stimuli/images/PICTURE_405.png,PLENTY,5dd9b8d616d10c946aa47e2f,07/24/1999,2020-08-27_10h42.37.380,proactive3.2,2020.1.2,MacIntel,60,5f47c0b9b035471e11593a5c,5f47c63fb035471f26112c29,3,,,,,,anchor,,,,,,0,57,57,23,1,3,1,,,,,,,,,,,,,,,,,,,,,,,,,,,,,,,,,,,,,,,,,,,,,,,,,,,,,,,,,,,,,,,,,,,,,,,,,,,
,,,,,,,,,,stimuli/images/PICTURE_203.png,NIGHT,5dd9b8d616d10c946aa47e2f,07/24/1999,2020-08-27_10h42.37.380,proactive3.2,2020.1.2,MacIntel,60,5f47c0b9b035471e11593a5c,5f47c63fb035471f26112c29,3,,,,,,cap,,,,,,0,58,58,2,1,1,1,,,,,,,,,,,,,,,,,,,,,,,,,,,,,,,,,,,,,,,,,,,,,,,,,,,,,,,,,,,,,,,,,,,,,,,,,,,
,,TOILET,1.511635,1,,,,,,stimuli/images/PICTURE_403.png,TOILET,5dd9b8d616d10c946aa47e2f,07/24/1999,2020-08-27_10h42.37.380,proactive3.2,2020.1.2,MacIntel,60,5f47c0b9b035471e11593a5c,5f47c63fb035471f26112c29,3,,,,,,cathedral,,,,,,,,,,,3,1,0,0,0,25,1,,,,,,,,,,,,,,,,,,,,,,,,,,,,,,,,,,,,,,,,,,,,,,,,,,,,,,,,,,,,,,,,,,,,,,
,,?,0.00125,0,,,,,,stimuli/images/PICTURE_95.png,BOYS,5dd9b8d616d10c946aa47e2f,07/24/1999,2020-08-27_10h42.37.380,proactive3.2,2020.1.2,MacIntel,60,5f47c0b9b035471e11593a5c,5f47c63fb035471f26112c29,3,,,,,,suitcase,,,,,,,,,,,1,1,0,1,1,1,1,,,,,,,,,,,,,,,,,,,,,,,,,,,,,,,,,,,,,,,,,,,,,,,,,,,,,,,,,,,,,,,,,,,,,,
,,?,0.00062,0,,,,,,stimuli/images/PICTURE_57.png,MOMENT,5dd9b8d616d10c946aa47e2f,07/24/1999,2020-08-27_10h42.37.380,proactive3.2,2020.1.2,MacIntel,60,5f47c0b9b035471e11593a5c,5f47c63fb035471f26112c29,3,,,,,,stamp,,,,,,,,,,,4,1,0,2,2,37,1,,,,,,,,,,,,,,,,,,,,,,,,,,,,,,,,,,,,,,,,,,,,,,,,,,,,,,,,,,,,,,,,,,,,,,
,,?,0.000545,0,,,,,,stimuli/images/PICTURE_467.png,POLICY,5dd9b8d616d10c946aa47e2f,07/24/1999,2020-08-27_10h42.37.380,proactive3.2,2020.1.2,MacIntel,60,5f47c0b9b035471e11593a5c,5f47c63fb035471f26112c29,3,,,,,,peg,,,,,,,,,,,6,1,0,3,3,53,1,,,,,,,,,,,,,,,,,,,,,,,,,,,,,,,,,,,,,,,,,,,,,,,,,,,,,,,,,,,,,,,,,,,,,,
,,?,0.00051,0,,,,,,stimuli/images/PICTURE_32.png,KIND,5dd9b8d616d10c946aa47e2f,07/24/1999,2020-08-27_10h42.37.380,proactive3.2,2020.1.2,MacIntel,60,5f47c0b9b035471e11593a5c,5f47c63fb035471f26112c29,3,,,,,,crown,,,,,,,,,,,4,1,0,4,4,35,1,,,,,,,,,,,,,,,,,,,,,,,,,,,,,,,,,,,,,,,,,,,,,,,,,,,,,,,,,,,,,,,,,,,,,,
,,?,0.00061,0,,,,,,stimuli/images/PICTURE_296.png,LOTS,5dd9b8d616d10c946aa47e2f,07/24/1999,2020-08-27_10h42.37.380,proactive3.2,2020.1.2,MacIntel,60,5f47c0b9b035471e11593a5c,5f47c63fb035471f26112c29,3,,,,,,bolt,,,,,,,,,,,1,1,0,5,5,9,1,,,,,,,,,,,,,,,,,,,,,,,,,,,,,,,,,,,,,,,,,,,,,,,,,,,,,,,,,,,,,,,,,,,,,,
,,?,0.000525,0,,,,,,stimuli/images/PICTURE_405.png,YEAR,5dd9b8d616d10c946aa47e2f,07/24/1999,2020-08-27_10h42.37.380,proactive3.2,2020.1.2,MacIntel,60,5f47c0b9b035471e11593a5c,5f47c63fb035471f26112c29,3,,,,,,anchor,,,,,,,,,,,4,1,0,6,6,34,1,,,,,,,,,,,,,,,,,,,,,,,,,,,,,,,,,,,,,,,,,,,,,,,,,,,,,,,,,,,,,,,,,,,,,,
,,?,0.000475,0,,,,,,stimuli/images/PICTURE_308.png,FAMILY,5dd9b8d616d10c946aa47e2f,07/24/1999,2020-08-27_10h42.37.380,proactive3.2,2020.1.2,MacIntel,60,5f47c0b9b035471e11593a5c,5f47c63fb035471f26112c29,3,,,,,,dice,,,,,,,,,,,4,1,0,7,7,36,1,,,,,,,,,,,,,,,,,,,,,,,,,,,,,,,,,,,,,,,,,,,,,,,,,,,,,,,,,,,,,,,,,,,,,,
,,?,0.00048,0,,,,,,stimuli/images/PICTURE_42.png,BOYS,5dd9b8d616d10c946aa47e2f,07/24/1999,2020-08-27_10h42.37.380,proactive3.2,2020.1.2,MacIntel,60,5f47c0b9b035471e11593a5c,5f47c63fb035471f26112c29,3,,,,,,pear,,,,,,,,,,,6,1,0,8,8,55,1,,,,,,,,,,,,,,,,,,,,,,,,,,,,,,,,,,,,,,,,,,,,,,,,,,,,,,,,,,,,,,,,,,,,,,
,,?,0.00052,0,,,,,,stimuli/images/PICTURE_491.png,GLASS,5dd9b8d616d10c946aa47e2f,07/24/1999,2020-08-27_10h42.37.380,proactive3.2,2020.1.2,MacIntel,60,5f47c0b9b035471e11593a5c,5f47c63fb035471f26112c29,3,,,,,,rug,,,,,,,,,,,2,1,0,9,9,14,1,,,,,,,,,,,,,,,,,,,,,,,,,,,,,,,,,,,,,,,,,,,,,,,,,,,,,,,,,,,,,,,,,,,,,,
,,?,0.000465,0,,,,,,stimuli/images/PICTURE_487.png,GIRL,5dd9b8d616d10c946aa47e2f,07/24/1999,2020-08-27_10h42.37.380,proactive3.2,2020.1.2,MacIntel,60,5f47c0b9b035471e11593a5c,5f47c63fb035471f26112c29,3,,,,,,basket,,,,,,,,,,,5,1,0,10,10,45,1,,,,,,,,,,,,,,,,,,,,,,,,,,,,,,,,,,,,,,,,,,,,,,,,,,,,,,,,,,,,,,,,,,,,,,
