consent_key.keys,consent_key.rt,recalled,recalled_rt,recall_acc,example_recall.thisRepN,example_recall.thisTrialN,example_recall.thisN,example_recall.thisIndex,example_recall.ran,file,word,participant,please enter your date of birth (dd/mm/yyyy),date,expName,psychopyVersion,OS,frameRate,STUDY_ID,SESSION_ID,list,prac_learn_study_loop.thisRepN,prac_learn_study_loop.thisTrialN,prac_learn_study_loop.thisN,prac_learn_study_loop.thisIndex,prac_learn_study_loop.ran,image,prac_learn_test_loop.thisRepN,prac_learn_test_loop.thisTrialN,prac_learn_test_loop.thisN,prac_learn_test_loop.thisIndex,prac_learn_test_loop.ran,learn_study_loop.thisRepN,learn_study_loop.thisTrialN,learn_study_loop.thisN,learn_study_loop.thisIndex,learn_study_loop.ran,list_no,block_no,learn_test_loop.thisRepN,learn_test_loop.thisTrialN,learn_test_loop.thisN,learn_test_loop.thisIndex,learn_test_loop.ran,learn_blocks.thisRepN,learn_blocks.thisTrialN,learn_blocks.thisN,learn_blocks.thisIndex,learn_blocks.ran,block_csv,key_resp_13.keys,key_resp_13.rt,learn_blocks_loop.thisRepN,learn_blocks_loop.thisTrialN,learn_blocks_loop.thisN,learn_blocks_loop.thisIndex,learn_blocks_loop.ran,final_learn_test.thisRepN,final_learn_test.thisTrialN,final_learn_test.thisN,final_learn_test.thisIndex,final_learn_test.ran,prac_wm_test_loop.thisRepN,prac_wm_test_loop.thisTrialN,prac_wm_test_loop.thisN,prac_wm_test_loop.thisIndex,prac_wm_test_loop.ran,wm_recalled1,wm_recall_rt1,wm_probed1,wm_recall_acc1,wm_recalled2,wm_recall_rt2,wm_probed2,wm_recall_acc2,wm_recalled3,wm_recall_rt3,wm_probed3,wm_recall_acc3,wm_recalled4,wm_recall_rt4,wm_probed4,wm_recall_acc4,prac_wm_trial_loop.thisRepN,prac_wm_trial_loop.thisTrialN,prac_wm_trial_loop.thisN,prac_wm_trial_loop.thisIndex,prac_wm_trial_loop.ran,word1,image1,file1,item_type1,word2,image2,file2,item_type2,word4,image4,file4,item_type4,word3,image3,file3,item_type3,wm_test_loop.thisRepN,wm_test_loop.thisTrialN,wm_test_loop.thisN,wm_test_loop.thisIndex,wm_test_loop.ran,wm_trial_loop.thisRepN,wm_trial_loop.thisTrialN,wm_trial_loop.thisN,wm_trial_loop.thisIndex,wm_trial_loop.ran
y,15.967515,TOUGH,6.035915,1,0,0,0,0,1,stimuli/images/PICTURE_747.png,TOUGH,5df24aea4b49a115b41f0b3a,26/01/1953,2020-09-12_10h19.23.460,proactive3.2,2020.1.2,Win32,60,5f5adea66120081ea0f57a61,5f5c927e29ce9f4756541d79,1,,,,,,,,,,,,,,,,,,,,,,,,,,,,,,,,,,,,,,,,,,,,,,,,,,,,,,,,,,,,,,,,,,,,,,,,,,,,,,,,,,,,,,,,,,,,,
,,,,,,,,,,stimuli/images/PICTURE_727.png,CELL,5df24aea4b49a115b41f0b3a,26/01/1953,2020-09-12_10h19.23.460,proactive3.2,2020.1.2,Win32,60,5f5adea66120081ea0f57a61,5f5c927e29ce9f4756541d79,1,0,0,0,1,1,hose,,,,,,,,,,,,,,,,,,,,,,,,,,,,,,,,,,,,,,,,,,,,,,,,,,,,,,,,,,,,,,,,,,,,,,,,,,,,,,,,,,,,,,,
,,,,,,,,,,stimuli/images/PICTURE_378.png,LOSS,5df24aea4b49a115b41f0b3a,26/01/1953,2020-09-12_10h19.23.460,proactive3.2,2020.1.2,Win32,60,5f5adea66120081ea0f57a61,5f5c927e29ce9f4756541d79,1,0,1,1,2,1,lobster,,,,,,,,,,,,,,,,,,,,,,,,,,,,,,,,,,,,,,,,,,,,,,,,,,,,,,,,,,,,,,,,,,,,,,,,,,,,,,,,,,,,,,,
,,,,,,,,,,stimuli/images/PICTURE_269.png,GENIUS,5df24aea4b49a115b41f0b3a,26/01/1953,2020-09-12_10h19.23.460,proactive3.2,2020.1.2,Win32,60,5f5adea66120081ea0f57a61,5f5c927e29ce9f4756541d79,1,0,2,2,0,1,chameleon,,,,,,,,,,,,,,,,,,,,,,,,,,,,,,,,,,,,,,,,,,,,,,,,,,,,,,,,,,,,,,,,,,,,,,,,,,,,,,,,,,,,,,,
,,,,,,,,,,stimuli/images/PICTURE_658.png,DEVIL,5df24aea4b49a115b41f0b3a,26/01/1953,2020-09-12_10h19.23.460,proactive3.2,2020.1.2,Win32,60,5f5adea66120081ea0f57a61,5f5c927e29ce9f4756541d79,1,0,3,3,3,1,crow,,,,,,,,,,,,,,,,,,,,,,,,,,,,,,,,,,,,,,,,,,,,,,,,,,,,,,,,,,,,,,,,,,,,,,,,,,,,,,,,,,,,,,,
,,LOSS,3.48705,1,,,,,,stimuli/images/PICTURE_378.png,LOSS,5df24aea4b49a115b41f0b3a,26/01/1953,2020-09-12_10h19.23.460,proactive3.2,2020.1.2,Win32,60,5f5adea66120081ea0f57a61,5f5c927e29ce9f4756541d79,1,,,,,,lobster,0,0,0,2,1,,,,,,,,,,,,,,,,,,,,,,,,,,,,,,,,,,,,,,,,,,,,,,,,,,,,,,,,,,,,,,,,,,,,,,,,,,,,,,,,,,
,,GENIUS,2.86114,1,,,,,,stimuli/images/PICTURE_269.png,GENIUS,5df24aea4b49a115b41f0b3a,26/01/1953,2020-09-12_10h19.23.460,proactive3.2,2020.1.2,Win32,60,5f5adea66120081ea0f57a61,5f5c927e29ce9f4756541d79,1,,,,,,chameleon,0,1,1,0,1,,,,,,,,,,,,,,,,,,,,,,,,,,,,,,,,,,,,,,,,,,,,,,,,,,,,,,,,,,,,,,,,,,,,,,,,,,,,,,,,,,
,,?,5.675955,0,,,,,,stimuli/images/PICTURE_697.png,KILLER,5df24aea4b49a115b41f0b3a,26/01/1953,2020-09-12_10h19.23.460,proactive3.2,2020.1.2,Win32,60,5f5adea66120081ea0f57a61,5f5c927e29ce9f4756541d79,1,,,,,,peach,0,2,2,4,1,,,,,,,,,,,,,,,,,,,,,,,,,,,,,,,,,,,,,,,,,,,,,,,,,,,,,,,,,,,,,,,,,,,,,,,,,,,,,,,,,,
,,DEVIL,2.915325,1,,,,,,stimuli/images/PICTURE_658.png,DEVIL,5df24aea4b49a115b41f0b3a,26/01/1953,2020-09-12_10h19.23.460,proactive3.2,2020.1.2,Win32,60,5f5adea66120081ea0f57a61,5f5c927e29ce9f4756541d79,1,,,,,,crow,0,3,3,3,1,,,,,,,,,,,,,,,,,,,,,,,,,,,,,,,,,,,,,,,,,,,,,,,,,,,,,,,,,,,,,,,,,,,,,,,,,,,,,,,,,,
,,CELL,2.583425,1,,,,,,stimuli/images/PICTURE_727.png,CELL,5df24aea4b49a115b41f0b3a,26/01/1953,2020-09-12_10h19.23.460,proactive3.2,2020.1.2,Win32,60,5f5adea66120081ea0f57a61,5f5c927e29ce9f4756541d79,1,,,,,,hose,0,4,4,1,1,,,,,,,,,,,,,,,,,,,,,,,,,,,,,,,,,,,,,,,,,,,,,,,,,,,,,,,,,,,,,,,,,,,,,,,,,,,,,,,,,,
,,,,,,,,,,stimuli/images/PICTURE_123.png,ADVICE,5df24aea4b49a115b41f0b3a,26/01/1953,2020-09-12_10h19.23.460,proactive3.2,2020.1.2,Win32,60,5f5adea66120081ea0f57a61,5f5c927e29ce9f4756541d79,1,,,,,,dart,,,,,,0,0,0,50,1,6,0,,,,,,,,,,,,,,,,,,,,,,,,,,,,,,,,,,,,,,,,,,,,,,,,,,,,,,,,,,,,,,,,,,,,,,,,,,,
,,,,,,,,,,stimuli/images/PICTURE_285.png,ADVICE,5df24aea4b49a115b41f0b3a,26/01/1953,2020-09-12_10h19.23.460,proactive3.2,2020.1.2,Win32,60,5f5adea66120081ea0f57a61,5f5c927e29ce9f4756541d79,1,,,,,,carrot,,,,,,0,1,1,12,1,2,0,,,,,,,,,,,,,,,,,,,,,,,,,,,,,,,,,,,,,,,,,,,,,,,,,,,,,,,,,,,,,,,,,,,,,,,,,,,
,,,,,,,,,,stimuli/images/PICTURE_68.png,MILE,5df24aea4b49a115b41f0b3a,26/01/1953,2020-09-12_10h19.23.460,proactive3.2,2020.1.2,Win32,60,5f5adea66120081ea0f57a61,5f5c927e29ce9f4756541d79,1,,,,,,candle,,,,,,0,2,2,44,1,5,0,,,,,,,,,,,,,,,,,,,,,,,,,,,,,,,,,,,,,,,,,,,,,,,,,,,,,,,,,,,,,,,,,,,,,,,,,,,
,,,,,,,,,,stimuli/images/PICTURE_160.png,FEET,5df24aea4b49a115b41f0b3a,26/01/1953,2020-09-12_10h19.23.460,proactive3.2,2020.1.2,Win32,60,5f5adea66120081ea0f57a61,5f5c927e29ce9f4756541d79,1,,,,,,wheelbarrow,,,,,,0,3,3,58,1,6,0,,,,,,,,,,,,,,,,,,,,,,,,,,,,,,,,,,,,,,,,,,,,,,,,,,,,,,,,,,,,,,,,,,,,,,,,,,,
,,,,,,,,,,stimuli/images/PICTURE_233.png,IDEAS,5df24aea4b49a115b41f0b3a,26/01/1953,2020-09-12_10h19.23.460,proactive3.2,2020.1.2,Win32,60,5f5adea66120081ea0f57a61,5f5c927e29ce9f4756541d79,1,,,,,,salt,,,,,,0,4,4,28,1,3,0,,,,,,,,,,,,,,,,,,,,,,,,,,,,,,,,,,,,,,,,,,,,,,,,,,,,,,,,,,,,,,,,,,,,,,,,,,,
,,,,,,,,,,stimuli/images/PICTURE_470.png,CASINO,5df24aea4b49a115b41f0b3a,26/01/1953,2020-09-12_10h19.23.460,proactive3.2,2020.1.2,Win32,60,5f5adea66120081ea0f57a61,5f5c927e29ce9f4756541d79,1,,,,,,motorbike,,,,,,0,5,5,36,1,4,0,,,,,,,,,,,,,,,,,,,,,,,,,,,,,,,,,,,,,,,,,,,,,,,,,,,,,,,,,,,,,,,,,,,,,,,,,,,
,,,,,,,,,,stimuli/images/PICTURE_467.png,DEMON,5df24aea4b49a115b41f0b3a,26/01/1953,2020-09-12_10h19.23.460,proactive3.2,2020.1.2,Win32,60,5f5adea66120081ea0f57a61,5f5c927e29ce9f4756541d79,1,,,,,,peg,,,,,,0,6,6,23,1,3,0,,,,,,,,,,,,,,,,,,,,,,,,,,,,,,,,,,,,,,,,,,,,,,,,,,,,,,,,,,,,,,,,,,,,,,,,,,,
,,,,,,,,,,stimuli/images/PICTURE_208.png,MONTH,5df24aea4b49a115b41f0b3a,26/01/1953,2020-09-12_10h19.23.460,proactive3.2,2020.1.2,Win32,60,5f5adea66120081ea0f57a61,5f5c927e29ce9f4756541d79,1,,,,,,microphone,,,,,,0,7,7,53,1,6,0,,,,,,,,,,,,,,,,,,,,,,,,,,,,,,,,,,,,,,,,,,,,,,,,,,,,,,,,,,,,,,,,,,,,,,,,,,,
,,,,,,,,,,stimuli/images/PICTURE_453.png,PLENTY,5df24aea4b49a115b41f0b3a,26/01/1953,2020-09-12_10h19.23.460,proactive3.2,2020.1.2,Win32,60,5f5adea66120081ea0f57a61,5f5c927e29ce9f4756541d79,1,,,,,,scissors,,,,,,0,8,8,56,1,6,0,,,,,,,,,,,,,,,,,,,,,,,,,,,,,,,,,,,,,,,,,,,,,,,,,,,,,,,,,,,,,,,,,,,,,,,,,,,
,,,,,,,,,,stimuli/images/PICTURE_491.png,WRITER,5df24aea4b49a115b41f0b3a,26/01/1953,2020-09-12_10h19.23.460,proactive3.2,2020.1.2,Win32,60,5f5adea66120081ea0f57a61,5f5c927e29ce9f4756541d79,1,,,,,,rug,,,,,,0,9,9,57,1,6,0,,,,,,,,,,,,,,,,,,,,,,,,,,,,,,,,,,,,,,,,,,,,,,,,,,,,,,,,,,,,,,,,,,,,,,,,,,,
,,,,,,,,,,stimuli/images/PICTURE_744.png,SYSTEM,5df24aea4b49a115b41f0b3a,26/01/1953,2020-09-12_10h19.23.460,proactive3.2,2020.1.2,Win32,60,5f5adea66120081ea0f57a61,5f5c927e29ce9f4756541d79,1,,,,,,ring,,,,,,0,10,10,43,1,5,0,,,,,,,,,,,,,,,,,,,,,,,,,,,,,,,,,,,,,,,,,,,,,,,,,,,,,,,,,,,,,,,,,,,,,,,,,,,
,,,,,,,,,,stimuli/images/PICTURE_688.png,CASINO,5df24aea4b49a115b41f0b3a,26/01/1953,2020-09-12_10h19.23.460,proactive3.2,2020.1.2,Win32,60,5f5adea66120081ea0f57a61,5f5c927e29ce9f4756541d79,1,,,,,,runner,,,,,,0,11,11,2,1,1,0,,,,,,,,,,,,,,,,,,,,,,,,,,,,,,,,,,,,,,,,,,,,,,,,,,,,,,,,,,,,,,,,,,,,,,,,,,,
,,,,,,,,,,stimuli/images/PICTURE_177.png,CARS,5df24aea4b49a115b41f0b3a,26/01/1953,2020-09-12_10h19.23.460,proactive3.2,2020.1.2,Win32,60,5f5adea66120081ea0f57a61,5f5c927e29ce9f4756541d79,1,,,,,,mushroom,,,,,,0,12,12,35,1,4,0,,,,,,,,,,,,,,,,,,,,,,,,,,,,,,,,,,,,,,,,,,,,,,,,,,,,,,,,,,,,,,,,,,,,,,,,,,,
,,,,,,,,,,stimuli/images/PICTURE_708.png,PENNY,5df24aea4b49a115b41f0b3a,26/01/1953,2020-09-12_10h19.23.460,proactive3.2,2020.1.2,Win32,60,5f5adea66120081ea0f57a61,5f5c927e29ce9f4756541d79,1,,,,,,monkey,,,,,,0,13,13,31,1,4,0,,,,,,,,,,,,,,,,,,,,,,,,,,,,,,,,,,,,,,,,,,,,,,,,,,,,,,,,,,,,,,,,,,,,,,,,,,,
,,,,,,,,,,stimuli/images/PICTURE_233.png,WOMEN,5df24aea4b49a115b41f0b3a,26/01/1953,2020-09-12_10h19.23.460,proactive3.2,2020.1.2,Win32,60,5f5adea66120081ea0f57a61,5f5c927e29ce9f4756541d79,1,,,,,,salt,,,,,,0,14,14,38,1,4,0,,,,,,,,,,,,,,,,,,,,,,,,,,,,,,,,,,,,,,,,,,,,,,,,,,,,,,,,,,,,,,,,,,,,,,,,,,,
,,,,,,,,,,stimuli/images/PICTURE_667.png,PLENTY,5df24aea4b49a115b41f0b3a,26/01/1953,2020-09-12_10h19.23.460,proactive3.2,2020.1.2,Win32,60,5f5adea66120081ea0f57a61,5f5c927e29ce9f4756541d79,1,,,,,,daisy,,,,,,0,15,15,41,1,5,0,,,,,,,,,,,,,,,,,,,,,,,,,,,,,,,,,,,,,,,,,,,,,,,,,,,,,,,,,,,,,,,,,,,,,,,,,,,
,,,,,,,,,,stimuli/images/PICTURE_302.png,FAMILY,5df24aea4b49a115b41f0b3a,26/01/1953,2020-09-12_10h19.23.460,proactive3.2,2020.1.2,Win32,60,5f5adea66120081ea0f57a61,5f5c927e29ce9f4756541d79,1,,,,,,taxi,,,,,,0,16,16,18,1,2,0,,,,,,,,,,,,,,,,,,,,,,,,,,,,,,,,,,,,,,,,,,,,,,,,,,,,,,,,,,,,,,,,,,,,,,,,,,,
,,,,,,,,,,stimuli/images/PICTURE_95.png,STYLE,5df24aea4b49a115b41f0b3a,26/01/1953,2020-09-12_10h19.23.460,proactive3.2,2020.1.2,Win32,60,5f5adea66120081ea0f57a61,5f5c927e29ce9f4756541d79,1,,,,,,suitcase,,,,,,0,17,17,25,1,3,0,,,,,,,,,,,,,,,,,,,,,,,,,,,,,,,,,,,,,,,,,,,,,,,,,,,,,,,,,,,,,,,,,,,,,,,,,,,
,,,,,,,,,,stimuli/images/PICTURE_348.png,SPEECH,5df24aea4b49a115b41f0b3a,26/01/1953,2020-09-12_10h19.23.460,proactive3.2,2020.1.2,Win32,60,5f5adea66120081ea0f57a61,5f5c927e29ce9f4756541d79,1,,,,,,pepper,,,,,,0,18,18,20,1,3,0,,,,,,,,,,,,,,,,,,,,,,,,,,,,,,,,,,,,,,,,,,,,,,,,,,,,,,,,,,,,,,,,,,,,,,,,,,,
,,,,,,,,,,stimuli/images/PICTURE_487.png,FLIGHT,5df24aea4b49a115b41f0b3a,26/01/1953,2020-09-12_10h19.23.460,proactive3.2,2020.1.2,Win32,60,5f5adea66120081ea0f57a61,5f5c927e29ce9f4756541d79,1,,,,,,basket,,,,,,0,19,19,9,1,1,0,,,,,,,,,,,,,,,,,,,,,,,,,,,,,,,,,,,,,,,,,,,,,,,,,,,,,,,,,,,,,,,,,,,,,,,,,,,
,,,,,,,,,,stimuli/images/PICTURE_311.png,FRIEND,5df24aea4b49a115b41f0b3a,26/01/1953,2020-09-12_10h19.23.460,proactive3.2,2020.1.2,Win32,60,5f5adea66120081ea0f57a61,5f5c927e29ce9f4756541d79,1,,,,,,razor,,,,,,0,20,20,34,1,4,0,,,,,,,,,,,,,,,,,,,,,,,,,,,,,,,,,,,,,,,,,,,,,,,,,,,,,,,,,,,,,,,,,,,,,,,,,,,
,,,,,,,,,,stimuli/images/PICTURE_708.png,YARD,5df24aea4b49a115b41f0b3a,26/01/1953,2020-09-12_10h19.23.460,proactive3.2,2020.1.2,Win32,60,5f5adea66120081ea0f57a61,5f5c927e29ce9f4756541d79,1,,,,,,monkey,,,,,,0,21,21,29,1,3,0,,,,,,,,,,,,,,,,,,,,,,,,,,,,,,,,,,,,,,,,,,,,,,,,,,,,,,,,,,,,,,,,,,,,,,,,,,,
,,,,,,,,,,stimuli/images/PICTURE_380.png,DEATH,5df24aea4b49a115b41f0b3a,26/01/1953,2020-09-12_10h19.23.460,proactive3.2,2020.1.2,Win32,60,5f5adea66120081ea0f57a61,5f5c927e29ce9f4756541d79,1,,,,,,gorilla,,,,,,0,22,22,49,1,5,0,,,,,,,,,,,,,,,,,,,,,,,,,,,,,,,,,,,,,,,,,,,,,,,,,,,,,,,,,,,,,,,,,,,,,,,,,,,
,,,,,,,,,,stimuli/images/PICTURE_469.png,ARTIST,5df24aea4b49a115b41f0b3a,26/01/1953,2020-09-12_10h19.23.460,proactive3.2,2020.1.2,Win32,60,5f5adea66120081ea0f57a61,5f5c927e29ce9f4756541d79,1,,,,,,stool,,,,,,0,23,23,6,1,1,0,,,,,,,,,,,,,,,,,,,,,,,,,,,,,,,,,,,,,,,,,,,,,,,,,,,,,,,,,,,,,,,,,,,,,,,,,,,
,,,,,,,,,,stimuli/images/PICTURE_744.png,SAKE,5df24aea4b49a115b41f0b3a,26/01/1953,2020-09-12_10h19.23.460,proactive3.2,2020.1.2,Win32,60,5f5adea66120081ea0f57a61,5f5c927e29ce9f4756541d79,1,,,,,,ring,,,,,,0,24,24,17,1,2,0,,,,,,,,,,,,,,,,,,,,,,,,,,,,,,,,,,,,,,,,,,,,,,,,,,,,,,,,,,,,,,,,,,,,,,,,,,,
,,,,,,,,,,stimuli/images/PICTURE_488.png,STYLE,5df24aea4b49a115b41f0b3a,26/01/1953,2020-09-12_10h19.23.460,proactive3.2,2020.1.2,Win32,60,5f5adea66120081ea0f57a61,5f5c927e29ce9f4756541d79,1,,,,,,sun,,,,,,0,25,25,33,1,4,0,,,,,,,,,,,,,,,,,,,,,,,,,,,,,,,,,,,,,,,,,,,,,,,,,,,,,,,,,,,,,,,,,,,,,,,,,,,
,,,,,,,,,,stimuli/images/PICTURE_85.png,THING,5df24aea4b49a115b41f0b3a,26/01/1953,2020-09-12_10h19.23.460,proactive3.2,2020.1.2,Win32,60,5f5adea66120081ea0f57a61,5f5c927e29ce9f4756541d79,1,,,,,,diamond,,,,,,0,26,26,15,1,2,0,,,,,,,,,,,,,,,,,,,,,,,,,,,,,,,,,,,,,,,,,,,,,,,,,,,,,,,,,,,,,,,,,,,,,,,,,,,
,,,,,,,,,,stimuli/images/PICTURE_208.png,THING,5df24aea4b49a115b41f0b3a,26/01/1953,2020-09-12_10h19.23.460,proactive3.2,2020.1.2,Win32,60,5f5adea66120081ea0f57a61,5f5c927e29ce9f4756541d79,1,,,,,,microphone,,,,,,0,27,27,47,1,5,0,,,,,,,,,,,,,,,,,,,,,,,,,,,,,,,,,,,,,,,,,,,,,,,,,,,,,,,,,,,,,,,,,,,,,,,,,,,
,,,,,,,,,,stimuli/images/PICTURE_208.png,LOTS,5df24aea4b49a115b41f0b3a,26/01/1953,2020-09-12_10h19.23.460,proactive3.2,2020.1.2,Win32,60,5f5adea66120081ea0f57a61,5f5c927e29ce9f4756541d79,1,,,,,,microphone,,,,,,0,28,28,10,1,2,0,,,,,,,,,,,,,,,,,,,,,,,,,,,,,,,,,,,,,,,,,,,,,,,,,,,,,,,,,,,,,,,,,,,,,,,,,,,
,,,,,,,,,,stimuli/images/PICTURE_147.png,MOMENT,5df24aea4b49a115b41f0b3a,26/01/1953,2020-09-12_10h19.23.460,proactive3.2,2020.1.2,Win32,60,5f5adea66120081ea0f57a61,5f5c927e29ce9f4756541d79,1,,,,,,hanger,,,,,,0,29,29,51,1,6,0,,,,,,,,,,,,,,,,,,,,,,,,,,,,,,,,,,,,,,,,,,,,,,,,,,,,,,,,,,,,,,,,,,,,,,,,,,,
,,,,,,,,,,stimuli/images/PICTURE_160.png,LEADER,5df24aea4b49a115b41f0b3a,26/01/1953,2020-09-12_10h19.23.460,proactive3.2,2020.1.2,Win32,60,5f5adea66120081ea0f57a61,5f5c927e29ce9f4756541d79,1,,,,,,wheelbarrow,,,,,,0,30,30,3,1,1,0,,,,,,,,,,,,,,,,,,,,,,,,,,,,,,,,,,,,,,,,,,,,,,,,,,,,,,,,,,,,,,,,,,,,,,,,,,,
,,,,,,,,,,stimuli/images/PICTURE_314.png,SAKE,5df24aea4b49a115b41f0b3a,26/01/1953,2020-09-12_10h19.23.460,proactive3.2,2020.1.2,Win32,60,5f5adea66120081ea0f57a61,5f5c927e29ce9f4756541d79,1,,,,,,perfume,,,,,,0,31,31,7,1,1,0,,,,,,,,,,,,,,,,,,,,,,,,,,,,,,,,,,,,,,,,,,,,,,,,,,,,,,,,,,,,,,,,,,,,,,,,,,,
,,,,,,,,,,stimuli/images/PICTURE_509.png,PHOTO,5df24aea4b49a115b41f0b3a,26/01/1953,2020-09-12_10h19.23.460,proactive3.2,2020.1.2,Win32,60,5f5adea66120081ea0f57a61,5f5c927e29ce9f4756541d79,1,,,,,,telephone,,,,,,0,32,32,21,1,3,0,,,,,,,,,,,,,,,,,,,,,,,,,,,,,,,,,,,,,,,,,,,,,,,,,,,,,,,,,,,,,,,,,,,,,,,,,,,
,,,,,,,,,,stimuli/images/PICTURE_339.png,PLENTY,5df24aea4b49a115b41f0b3a,26/01/1953,2020-09-12_10h19.23.460,proactive3.2,2020.1.2,Win32,60,5f5adea66120081ea0f57a61,5f5c927e29ce9f4756541d79,1,,,,,,backpack,,,,,,0,33,33,0,1,1,0,,,,,,,,,,,,,,,,,,,,,,,,,,,,,,,,,,,,,,,,,,,,,,,,,,,,,,,,,,,,,,,,,,,,,,,,,,,
,,,,,,,,,,stimuli/images/PICTURE_675.png,WEAPON,5df24aea4b49a115b41f0b3a,26/01/1953,2020-09-12_10h19.23.460,proactive3.2,2020.1.2,Win32,60,5f5adea66120081ea0f57a61,5f5c927e29ce9f4756541d79,1,,,,,,windmill,,,,,,0,34,34,32,1,4,0,,,,,,,,,,,,,,,,,,,,,,,,,,,,,,,,,,,,,,,,,,,,,,,,,,,,,,,,,,,,,,,,,,,,,,,,,,,
,,,,,,,,,,stimuli/images/PICTURE_469.png,LETTER,5df24aea4b49a115b41f0b3a,26/01/1953,2020-09-12_10h19.23.460,proactive3.2,2020.1.2,Win32,60,5f5adea66120081ea0f57a61,5f5c927e29ce9f4756541d79,1,,,,,,stool,,,,,,0,35,35,42,1,5,0,,,,,,,,,,,,,,,,,,,,,,,,,,,,,,,,,,,,,,,,,,,,,,,,,,,,,,,,,,,,,,,,,,,,,,,,,,,
,,,,,,,,,,stimuli/images/PICTURE_248.png,DOZEN,5df24aea4b49a115b41f0b3a,26/01/1953,2020-09-12_10h19.23.460,proactive3.2,2020.1.2,Win32,60,5f5adea66120081ea0f57a61,5f5c927e29ce9f4756541d79,1,,,,,,cart,,,,,,0,36,36,39,1,4,0,,,,,,,,,,,,,,,,,,,,,,,,,,,,,,,,,,,,,,,,,,,,,,,,,,,,,,,,,,,,,,,,,,,,,,,,,,,
,,,,,,,,,,stimuli/images/PICTURE_356.png,DANGER,5df24aea4b49a115b41f0b3a,26/01/1953,2020-09-12_10h19.23.460,proactive3.2,2020.1.2,Win32,60,5f5adea66120081ea0f57a61,5f5c927e29ce9f4756541d79,1,,,,,,pawn,,,,,,0,37,37,55,1,6,0,,,,,,,,,,,,,,,,,,,,,,,,,,,,,,,,,,,,,,,,,,,,,,,,,,,,,,,,,,,,,,,,,,,,,,,,,,,
,,,,,,,,,,stimuli/images/PICTURE_677.png,MILE,5df24aea4b49a115b41f0b3a,26/01/1953,2020-09-12_10h19.23.460,proactive3.2,2020.1.2,Win32,60,5f5adea66120081ea0f57a61,5f5c927e29ce9f4756541d79,1,,,,,,map,,,,,,0,38,38,30,1,4,0,,,,,,,,,,,,,,,,,,,,,,,,,,,,,,,,,,,,,,,,,,,,,,,,,,,,,,,,,,,,,,,,,,,,,,,,,,,
,,,,,,,,,,stimuli/images/PICTURE_327.png,BEAUTY,5df24aea4b49a115b41f0b3a,26/01/1953,2020-09-12_10h19.23.460,proactive3.2,2020.1.2,Win32,60,5f5adea66120081ea0f57a61,5f5c927e29ce9f4756541d79,1,,,,,,helmet,,,,,,0,39,39,48,1,5,0,,,,,,,,,,,,,,,,,,,,,,,,,,,,,,,,,,,,,,,,,,,,,,,,,,,,,,,,,,,,,,,,,,,,,,,,,,,
,,,,,,,,,,stimuli/images/PICTURE_504.png,BODY,5df24aea4b49a115b41f0b3a,26/01/1953,2020-09-12_10h19.23.460,proactive3.2,2020.1.2,Win32,60,5f5adea66120081ea0f57a61,5f5c927e29ce9f4756541d79,1,,,,,,wheel,,,,,,0,40,40,8,1,1,0,,,,,,,,,,,,,,,,,,,,,,,,,,,,,,,,,,,,,,,,,,,,,,,,,,,,,,,,,,,,,,,,,,,,,,,,,,,
,,,,,,,,,,stimuli/images/PICTURE_449.png,THING,5df24aea4b49a115b41f0b3a,26/01/1953,2020-09-12_10h19.23.460,proactive3.2,2020.1.2,Win32,60,5f5adea66120081ea0f57a61,5f5c927e29ce9f4756541d79,1,,,,,,bench,,,,,,0,41,41,59,1,6,0,,,,,,,,,,,,,,,,,,,,,,,,,,,,,,,,,,,,,,,,,,,,,,,,,,,,,,,,,,,,,,,,,,,,,,,,,,,
,,,,,,,,,,stimuli/images/PICTURE_215.png,PLENTY,5df24aea4b49a115b41f0b3a,26/01/1953,2020-09-12_10h19.23.460,proactive3.2,2020.1.2,Win32,60,5f5adea66120081ea0f57a61,5f5c927e29ce9f4756541d79,1,,,,,,boot,,,,,,0,42,42,37,1,4,0,,,,,,,,,,,,,,,,,,,,,,,,,,,,,,,,,,,,,,,,,,,,,,,,,,,,,,,,,,,,,,,,,,,,,,,,,,,
,,,,,,,,,,stimuli/images/PICTURE_380.png,PHOTO,5df24aea4b49a115b41f0b3a,26/01/1953,2020-09-12_10h19.23.460,proactive3.2,2020.1.2,Win32,60,5f5adea66120081ea0f57a61,5f5c927e29ce9f4756541d79,1,,,,,,gorilla,,,,,,0,43,43,52,1,6,0,,,,,,,,,,,,,,,,,,,,,,,,,,,,,,,,,,,,,,,,,,,,,,,,,,,,,,,,,,,,,,,,,,,,,,,,,,,
,,,,,,,,,,stimuli/images/PICTURE_308.png,KIND,5df24aea4b49a115b41f0b3a,26/01/1953,2020-09-12_10h19.23.460,proactive3.2,2020.1.2,Win32,60,5f5adea66120081ea0f57a61,5f5c927e29ce9f4756541d79,1,,,,,,dice,,,,,,0,44,44,54,1,6,0,,,,,,,,,,,,,,,,,,,,,,,,,,,,,,,,,,,,,,,,,,,,,,,,,,,,,,,,,,,,,,,,,,,,,,,,,,,
,,,,,,,,,,stimuli/images/PICTURE_311.png,BEAUTY,5df24aea4b49a115b41f0b3a,26/01/1953,2020-09-12_10h19.23.460,proactive3.2,2020.1.2,Win32,60,5f5adea66120081ea0f57a61,5f5c927e29ce9f4756541d79,1,,,,,,razor,,,,,,0,45,45,13,1,2,0,,,,,,,,,,,,,,,,,,,,,,,,,,,,,,,,,,,,,,,,,,,,,,,,,,,,,,,,,,,,,,,,,,,,,,,,,,,
,,,,,,,,,,stimuli/images/PICTURE_708.png,CLIENT,5df24aea4b49a115b41f0b3a,26/01/1953,2020-09-12_10h19.23.460,proactive3.2,2020.1.2,Win32,60,5f5adea66120081ea0f57a61,5f5c927e29ce9f4756541d79,1,,,,,,monkey,,,,,,0,46,46,5,1,1,0,,,,,,,,,,,,,,,,,,,,,,,,,,,,,,,,,,,,,,,,,,,,,,,,,,,,,,,,,,,,,,,,,,,,,,,,,,,
,,,,,,,,,,stimuli/images/PICTURE_314.png,GODS,5df24aea4b49a115b41f0b3a,26/01/1953,2020-09-12_10h19.23.460,proactive3.2,2020.1.2,Win32,60,5f5adea66120081ea0f57a61,5f5c927e29ce9f4756541d79,1,,,,,,perfume,,,,,,0,47,47,11,1,2,0,,,,,,,,,,,,,,,,,,,,,,,,,,,,,,,,,,,,,,,,,,,,,,,,,,,,,,,,,,,,,,,,,,,,,,,,,,,
,,,,,,,,,,stimuli/images/PICTURE_255.png,AREA,5df24aea4b49a115b41f0b3a,26/01/1953,2020-09-12_10h19.23.460,proactive3.2,2020.1.2,Win32,60,5f5adea66120081ea0f57a61,5f5c927e29ce9f4756541d79,1,,,,,,shovel,,,,,,0,48,48,22,1,3,0,,,,,,,,,,,,,,,,,,,,,,,,,,,,,,,,,,,,,,,,,,,,,,,,,,,,,,,,,,,,,,,,,,,,,,,,,,,
,,,,,,,,,,stimuli/images/PICTURE_32.png,JUNGLE,5df24aea4b49a115b41f0b3a,26/01/1953,2020-09-12_10h19.23.460,proactive3.2,2020.1.2,Win32,60,5f5adea66120081ea0f57a61,5f5c927e29ce9f4756541d79,1,,,,,,crown,,,,,,0,49,49,45,1,5,0,,,,,,,,,,,,,,,,,,,,,,,,,,,,,,,,,,,,,,,,,,,,,,,,,,,,,,,,,,,,,,,,,,,,,,,,,,,
,,,,,,,,,,stimuli/images/PICTURE_308.png,ESTATE,5df24aea4b49a115b41f0b3a,26/01/1953,2020-09-12_10h19.23.460,proactive3.2,2020.1.2,Win32,60,5f5adea66120081ea0f57a61,5f5c927e29ce9f4756541d79,1,,,,,,dice,,,,,,0,50,50,46,1,5,0,,,,,,,,,,,,,,,,,,,,,,,,,,,,,,,,,,,,,,,,,,,,,,,,,,,,,,,,,,,,,,,,,,,,,,,,,,,
,,,,,,,,,,stimuli/images/PICTURE_667.png,BATH,5df24aea4b49a115b41f0b3a,26/01/1953,2020-09-12_10h19.23.460,proactive3.2,2020.1.2,Win32,60,5f5adea66120081ea0f57a61,5f5c927e29ce9f4756541d79,1,,,,,,daisy,,,,,,0,51,51,4,1,1,0,,,,,,,,,,,,,,,,,,,,,,,,,,,,,,,,,,,,,,,,,,,,,,,,,,,,,,,,,,,,,,,,,,,,,,,,,,,
,,,,,,,,,,stimuli/images/PICTURE_123.png,ADVICE,5df24aea4b49a115b41f0b3a,26/01/1953,2020-09-12_10h19.23.460,proactive3.2,2020.1.2,Win32,60,5f5adea66120081ea0f57a61,5f5c927e29ce9f4756541d79,1,,,,,,dart,,,,,,0,52,52,40,1,5,0,,,,,,,,,,,,,,,,,,,,,,,,,,,,,,,,,,,,,,,,,,,,,,,,,,,,,,,,,,,,,,,,,,,,,,,,,,,
,,,,,,,,,,stimuli/images/PICTURE_491.png,ROOF,5df24aea4b49a115b41f0b3a,26/01/1953,2020-09-12_10h19.23.460,proactive3.2,2020.1.2,Win32,60,5f5adea66120081ea0f57a61,5f5c927e29ce9f4756541d79,1,,,,,,rug,,,,,,0,53,53,24,1,3,0,,,,,,,,,,,,,,,,,,,,,,,,,,,,,,,,,,,,,,,,,,,,,,,,,,,,,,,,,,,,,,,,,,,,,,,,,,,
,,,,,,,,,,stimuli/images/PICTURE_688.png,WOMEN,5df24aea4b49a115b41f0b3a,26/01/1953,2020-09-12_10h19.23.460,proactive3.2,2020.1.2,Win32,60,5f5adea66120081ea0f57a61,5f5c927e29ce9f4756541d79,1,,,,,,runner,,,,,,0,54,54,14,1,2,0,,,,,,,,,,,,,,,,,,,,,,,,,,,,,,,,,,,,,,,,,,,,,,,,,,,,,,,,,,,,,,,,,,,,,,,,,,,
,,,,,,,,,,stimuli/images/PICTURE_151.png,GIRL,5df24aea4b49a115b41f0b3a,26/01/1953,2020-09-12_10h19.23.460,proactive3.2,2020.1.2,Win32,60,5f5adea66120081ea0f57a61,5f5c927e29ce9f4756541d79,1,,,,,,tray,,,,,,0,55,55,19,1,2,0,,,,,,,,,,,,,,,,,,,,,,,,,,,,,,,,,,,,,,,,,,,,,,,,,,,,,,,,,,,,,,,,,,,,,,,,,,,
,,,,,,,,,,stimuli/images/PICTURE_453.png,DUDE,5df24aea4b49a115b41f0b3a,26/01/1953,2020-09-12_10h19.23.460,proactive3.2,2020.1.2,Win32,60,5f5adea66120081ea0f57a61,5f5c927e29ce9f4756541d79,1,,,,,,scissors,,,,,,0,56,56,27,1,3,0,,,,,,,,,,,,,,,,,,,,,,,,,,,,,,,,,,,,,,,,,,,,,,,,,,,,,,,,,,,,,,,,,,,,,,,,,,,
,,,,,,,,,,stimuli/images/PICTURE_692.png,MONTH,5df24aea4b49a115b41f0b3a,26/01/1953,2020-09-12_10h19.23.460,proactive3.2,2020.1.2,Win32,60,5f5adea66120081ea0f57a61,5f5c927e29ce9f4756541d79,1,,,,,,cherry,,,,,,0,57,57,16,1,2,0,,,,,,,,,,,,,,,,,,,,,,,,,,,,,,,,,,,,,,,,,,,,,,,,,,,,,,,,,,,,,,,,,,,,,,,,,,,
,,,,,,,,,,stimuli/images/PICTURE_654.png,VALLEY,5df24aea4b49a115b41f0b3a,26/01/1953,2020-09-12_10h19.23.460,proactive3.2,2020.1.2,Win32,60,5f5adea66120081ea0f57a61,5f5c927e29ce9f4756541d79,1,,,,,,pencil,,,,,,0,58,58,1,1,1,0,,,,,,,,,,,,,,,,,,,,,,,,,,,,,,,,,,,,,,,,,,,,,,,,,,,,,,,,,,,,,,,,,,,,,,,,,,,
,,?,0.001395,0,,,,,,stimuli/images/PICTURE_208.png,THING,5df24aea4b49a115b41f0b3a,26/01/1953,2020-09-12_10h19.23.460,proactive3.2,2020.1.2,Win32,60,5f5adea66120081ea0f57a61,5f5c927e29ce9f4756541d79,1,,,,,,microphone,,,,,,,,,,,5,0,0,0,0,47,1,,,,,,,,,,,,,,,,,,,,,,,,,,,,,,,,,,,,,,,,,,,,,,,,,,,,,,,,,,,,,,,,,,,,,,
,,ARTIST,4.75075,0,,,,,,stimuli/images/PICTURE_487.png,FLIGHT,5df24aea4b49a115b41f0b3a,26/01/1953,2020-09-12_10h19.23.460,proactive3.2,2020.1.2,Win32,60,5f5adea66120081ea0f57a61,5f5c927e29ce9f4756541d79,1,,,,,,basket,,,,,,,,,,,1,0,0,1,1,9,1,,,,,,,,,,,,,,,,,,,,,,,,,,,,,,,,,,,,,,,,,,,,,,,,,,,,,,,,,,,,,,,,,,,,,,
,,?,0.001945,0,,,,,,stimuli/images/PICTURE_32.png,JUNGLE,5df24aea4b49a115b41f0b3a,26/01/1953,2020-09-12_10h19.23.460,proactive3.2,2020.1.2,Win32,60,5f5adea66120081ea0f57a61,5f5c927e29ce9f4756541d79,1,,,,,,crown,,,,,,,,,,,5,0,0,2,2,45,1,,,,,,,,,,,,,,,,,,,,,,,,,,,,,,,,,,,,,,,,,,,,,,,,,,,,,,,,,,,,,,,,,,,,,,
,,LEADER,5.01609,0,,,,,,stimuli/images/PICTURE_339.png,PLENTY,5df24aea4b49a115b41f0b3a,26/01/1953,2020-09-12_10h19.23.460,proactive3.2,2020.1.2,Win32,60,5f5adea66120081ea0f57a61,5f5c927e29ce9f4756541d79,1,,,,,,backpack,,,,,,,,,,,1,0,0,3,3,0,1,,,,,,,,,,,,,,,,,,,,,,,,,,,,,,,,,,,,,,,,,,,,,,,,,,,,,,,,,,,,,,,,,,,,,,
,,?,0.001855,0,,,,,,stimuli/images/PICTURE_314.png,GODS,5df24aea4b49a115b41f0b3a,26/01/1953,2020-09-12_10h19.23.460,proactive3.2,2020.1.2,Win32,60,5f5adea66120081ea0f57a61,5f5c927e29ce9f4756541d79,1,,,,,,perfume,,,,,,,,,,,2,0,0,4,4,11,1,,,,,,,,,,,,,,,,,,,,,,,,,,,,,,,,,,,,,,,,,,,,,,,,,,,,,,,,,,,,,,,,,,,,,,
,,?,0.00158,0,,,,,,stimuli/images/PICTURE_123.png,ADVICE,5df24aea4b49a115b41f0b3a,26/01/1953,2020-09-12_10h19.23.460,proactive3.2,2020.1.2,Win32,60,5f5adea66120081ea0f57a61,5f5c927e29ce9f4756541d79,1,,,,,,dart,,,,,,,,,,,5,0,0,5,5,40,1,,,,,,,,,,,,,,,,,,,,,,,,,,,,,,,,,,,,,,,,,,,,,,,,,,,,,,,,,,,,,,,,,,,,,,
,,?,0.00203,0,,,,,,stimuli/images/PICTURE_453.png,DUDE,5df24aea4b49a115b41f0b3a,26/01/1953,2020-09-12_10h19.23.460,proactive3.2,2020.1.2,Win32,60,5f5adea66120081ea0f57a61,5f5c927e29ce9f4756541d79,1,,,,,,scissors,,,,,,,,,,,3,0,0,6,6,27,1,,,,,,,,,,,,,,,,,,,,,,,,,,,,,,,,,,,,,,,,,,,,,,,,,,,,,,,,,,,,,,,,,,,,,,
,,?,0.00124,0,,,,,,stimuli/images/PICTURE_68.png,MILE,5df24aea4b49a115b41f0b3a,26/01/1953,2020-09-12_10h19.23.460,proactive3.2,2020.1.2,Win32,60,5f5adea66120081ea0f57a61,5f5c927e29ce9f4756541d79,1,,,,,,candle,,,,,,,,,,,5,0,0,7,7,44,1,,,,,,,,,,,,,,,,,,,,,,,,,,,,,,,,,,,,,,,,,,,,,,,,,,,,,,,,,,,,,,,,,,,,,,
,,CLIENT,5.270775,1,,,,,,stimuli/images/PICTURE_708.png,CLIENT,5df24aea4b49a115b41f0b3a,26/01/1953,2020-09-12_10h19.23.460,proactive3.2,2020.1.2,Win32,60,5f5adea66120081ea0f57a61,5f5c927e29ce9f4756541d79,1,,,,,,monkey,,,,,,,,,,,1,0,0,8,8,5,1,,,,,,,,,,,,,,,,,,,,,,,,,,,,,,,,,,,,,,,,,,,,,,,,,,,,,,,,,,,,,,,,,,,,,,
,,?,0.00206,0,,,,,,stimuli/images/PICTURE_151.png,GIRL,5df24aea4b49a115b41f0b3a,26/01/1953,2020-09-12_10h19.23.460,proactive3.2,2020.1.2,Win32,60,5f5adea66120081ea0f57a61,5f5c927e29ce9f4756541d79,1,,,,,,tray,,,,,,,,,,,2,0,0,9,9,19,1,,,,,,,,,,,,,,,,,,,,,,,,,,,,,,,,,,,,,,,,,,,,,,,,,,,,,,,,,,,,,,,,,,,,,,
,,?,0.00344,0,,,,,,stimuli/images/PICTURE_147.png,MOMENT,5df24aea4b49a115b41f0b3a,26/01/1953,2020-09-12_10h19.23.460,proactive3.2,2020.1.2,Win32,60,5f5adea66120081ea0f57a61,5f5c927e29ce9f4756541d79,1,,,,,,hanger,,,,,,,,,,,6,0,0,10,10,51,1,,,,,,,,,,,,,,,,,,,,,,,,,,,,,,,,,,,,,,,,,,,,,,,,,,,,,,,,,,,,,,,,,,,,,,
,,?,0.00307,0,,,,,,stimuli/images/PICTURE_380.png,DEATH,5df24aea4b49a115b41f0b3a,26/01/1953,2020-09-12_10h19.23.460,proactive3.2,2020.1.2,Win32,60,5f5adea66120081ea0f57a61,5f5c927e29ce9f4756541d79,1,,,,,,gorilla,,,,,,,,,,,5,0,0,11,11,49,1,,,,,,,,,,,,,,,,,,,,,,,,,,,,,,,,,,,,,,,,,,,,,,,,,,,,,,,,,,,,,,,,,,,,,,
,,SAKE,2.956305,1,,,,,,stimuli/images/PICTURE_314.png,SAKE,5df24aea4b49a115b41f0b3a,26/01/1953,2020-09-12_10h19.23.460,proactive3.2,2020.1.2,Win32,60,5f5adea66120081ea0f57a61,5f5c927e29ce9f4756541d79,1,,,,,,perfume,,,,,,,,,,,1,0,0,12,12,7,1,,,,,,,,,,,,,,,,,,,,,,,,,,,,,,,,,,,,,,,,,,,,,,,,,,,,,,,,,,,,,,,,,,,,,,
,,?,0.00288,0,,,,,,stimuli/images/PICTURE_233.png,IDEAS,5df24aea4b49a115b41f0b3a,26/01/1953,2020-09-12_10h19.23.460,proactive3.2,2020.1.2,Win32,60,5f5adea66120081ea0f57a61,5f5c927e29ce9f4756541d79,1,,,,,,salt,,,,,,,,,,,3,0,0,13,13,28,1,,,,,,,,,,,,,,,,,,,,,,,,,,,,,,,,,,,,,,,,,,,,,,,,,,,,,,,,,,,,,,,,,,,,,,
,,?,0.00144,0,,,,,,stimuli/images/PICTURE_509.png,PHOTO,5df24aea4b49a115b41f0b3a,26/01/1953,2020-09-12_10h19.23.460,proactive3.2,2020.1.2,Win32,60,5f5adea66120081ea0f57a61,5f5c927e29ce9f4756541d79,1,,,,,,telephone,,,,,,,,,,,3,0,0,14,14,21,1,,,,,,,,,,,,,,,,,,,,,,,,,,,,,,,,,,,,,,,,,,,,,,,,,,,,,,,,,,,,,,,,,,,,,,
,,?,0.00148,0,,,,,,stimuli/images/PICTURE_208.png,LOTS,5df24aea4b49a115b41f0b3a,26/01/1953,2020-09-12_10h19.23.460,proactive3.2,2020.1.2,Win32,60,5f5adea66120081ea0f57a61,5f5c927e29ce9f4756541d79,1,,,,,,microphone,,,,,,,,,,,2,0,0,15,15,10,1,,,,,,,,,,,,,,,,,,,,,,,,,,,,,,,,,,,,,,,,,,,,,,,,,,,,,,,,,,,,,,,,,,,,,,
,,?,0.00161,0,,,,,,stimuli/images/PICTURE_95.png,STYLE,5df24aea4b49a115b41f0b3a,26/01/1953,2020-09-12_10h19.23.460,proactive3.2,2020.1.2,Win32,60,5f5adea66120081ea0f57a61,5f5c927e29ce9f4756541d79,1,,,,,,suitcase,,,,,,,,,,,3,0,0,16,16,25,1,,,,,,,,,,,,,,,,,,,,,,,,,,,,,,,,,,,,,,,,,,,,,,,,,,,,,,,,,,,,,,,,,,,,,,
,,?,0.00148,0,,,,,,stimuli/images/PICTURE_692.png,MONTH,5df24aea4b49a115b41f0b3a,26/01/1953,2020-09-12_10h19.23.460,proactive3.2,2020.1.2,Win32,60,5f5adea66120081ea0f57a61,5f5c927e29ce9f4756541d79,1,,,,,,cherry,,,,,,,,,,,2,0,0,17,17,16,1,,,,,,,,,,,,,,,,,,,,,,,,,,,,,,,,,,,,,,,,,,,,,,,,,,,,,,,,,,,,,,,,,,,,,,
,,?,0.001555,0,,,,,,stimuli/images/PICTURE_348.png,SPEECH,5df24aea4b49a115b41f0b3a,26/01/1953,2020-09-12_10h19.23.460,proactive3.2,2020.1.2,Win32,60,5f5adea66120081ea0f57a61,5f5c927e29ce9f4756541d79,1,,,,,,pepper,,,,,,,,,,,3,0,0,18,18,20,1,,,,,,,,,,,,,,,,,,,,,,,,,,,,,,,,,,,,,,,,,,,,,,,,,,,,,,,,,,,,,,,,,,,,,,
,,?,0.00143,0,,,,,,stimuli/images/PICTURE_708.png,YARD,5df24aea4b49a115b41f0b3a,26/01/1953,2020-09-12_10h19.23.460,proactive3.2,2020.1.2,Win32,60,5f5adea66120081ea0f57a61,5f5c927e29ce9f4756541d79,1,,,,,,monkey,,,,,,,,,,,3,0,0,19,19,29,1,,,,,,,,,,,,,,,,,,,,,,,,,,,,,,,,,,,,,,,,,,,,,,,,,,,,,,,,,,,,,,,,,,,,,,
,,ARTIST,3.93988,1,,,,,,stimuli/images/PICTURE_469.png,ARTIST,5df24aea4b49a115b41f0b3a,26/01/1953,2020-09-12_10h19.23.460,proactive3.2,2020.1.2,Win32,60,5f5adea66120081ea0f57a61,5f5c927e29ce9f4756541d79,1,,,,,,stool,,,,,,,,,,,1,0,0,20,20,6,1,,,,,,,,,,,,,,,,,,,,,,,,,,,,,,,,,,,,,,,,,,,,,,,,,,,,,,,,,,,,,,,,,,,,,,
,,?,0.00117,0,,,,,,stimuli/images/PICTURE_308.png,KIND,5df24aea4b49a115b41f0b3a,26/01/1953,2020-09-12_10h19.23.460,proactive3.2,2020.1.2,Win32,60,5f5adea66120081ea0f57a61,5f5c927e29ce9f4756541d79,1,,,,,,dice,,,,,,,,,,,6,0,0,21,21,54,1,,,,,,,,,,,,,,,,,,,,,,,,,,,,,,,,,,,,,,,,,,,,,,,,,,,,,,,,,,,,,,,,,,,,,,
,,?,0.000895,0,,,,,,stimuli/images/PICTURE_203.png,ARTIST,5df24aea4b49a115b41f0b3a,26/01/1953,2020-09-12_10h19.23.460,proactive3.2,2020.1.2,Win32,60,5f5adea66120081ea0f57a61,5f5c927e29ce9f4756541d79,1,,,,,,cap,,,,,,,,,,,3,0,0,22,22,26,1,,,,,,,,,,,,,,,,,,,,,,,,,,,,,,,,,,,,,,,,,,,,,,,,,,,,,,,,,,,,,,,,,,,,,,
,,?,0.00086,0,,,,,,stimuli/images/PICTURE_285.png,ADVICE,5df24aea4b49a115b41f0b3a,26/01/1953,2020-09-12_10h19.23.460,proactive3.2,2020.1.2,Win32,60,5f5adea66120081ea0f57a61,5f5c927e29ce9f4756541d79,1,,,,,,carrot,,,,,,,,,,,2,0,0,23,23,12,1,,,,,,,,,,,,,,,,,,,,,,,,,,,,,,,,,,,,,,,,,,,,,,,,,,,,,,,,,,,,,,,,,,,,,,
,,?,0.001045,0,,,,,,stimuli/images/PICTURE_160.png,FEET,5df24aea4b49a115b41f0b3a,26/01/1953,2020-09-12_10h19.23.460,proactive3.2,2020.1.2,Win32,60,5f5adea66120081ea0f57a61,5f5c927e29ce9f4756541d79,1,,,,,,wheelbarrow,,,,,,,,,,,6,0,0,24,24,58,1,,,,,,,,,,,,,,,,,,,,,,,,,,,,,,,,,,,,,,,,,,,,,,,,,,,,,,,,,,,,,,,,,,,,,,
,,?,0.0019,0,,,,,,stimuli/images/PICTURE_449.png,THING,5df24aea4b49a115b41f0b3a,26/01/1953,2020-09-12_10h19.23.460,proactive3.2,2020.1.2,Win32,60,5f5adea66120081ea0f57a61,5f5c927e29ce9f4756541d79,1,,,,,,bench,,,,,,,,,,,6,0,0,25,25,59,1,,,,,,,,,,,,,,,,,,,,,,,,,,,,,,,,,,,,,,,,,,,,,,,,,,,,,,,,,,,,,,,,,,,,,,
,,?,0.000875,0,,,,,,stimuli/images/PICTURE_708.png,PENNY,5df24aea4b49a115b41f0b3a,26/01/1953,2020-09-12_10h19.23.460,proactive3.2,2020.1.2,Win32,60,5f5adea66120081ea0f57a61,5f5c927e29ce9f4756541d79,1,,,,,,monkey,,,,,,,,,,,4,0,0,26,26,31,1,,,,,,,,,,,,,,,,,,,,,,,,,,,,,,,,,,,,,,,,,,,,,,,,,,,,,,,,,,,,,,,,,,,,,,
,,CASSINO,4.04651,0,,,,,,stimuli/images/PICTURE_688.png,CASINO,5df24aea4b49a115b41f0b3a,26/01/1953,2020-09-12_10h19.23.460,proactive3.2,2020.1.2,Win32,60,5f5adea66120081ea0f57a61,5f5c927e29ce9f4756541d79,1,,,,,,runner,,,,,,,,,,,1,0,0,27,27,2,1,,,,,,,,,,,,,,,,,,,,,,,,,,,,,,,,,,,,,,,,,,,,,,,,,,,,,,,,,,,,,,,,,,,,,,
,,?,0.001375,0,,,,,,stimuli/images/PICTURE_123.png,ADVICE,5df24aea4b49a115b41f0b3a,26/01/1953,2020-09-12_10h19.23.460,proactive3.2,2020.1.2,Win32,60,5f5adea66120081ea0f57a61,5f5c927e29ce9f4756541d79,1,,,,,,dart,,,,,,,,,,,6,0,0,28,28,50,1,,,,,,,,,,,,,,,,,,,,,,,,,,,,,,,,,,,,,,,,,,,,,,,,,,,,,,,,,,,,,,,,,,,,,,
,,?,0.001355,0,,,,,,stimuli/images/PICTURE_208.png,MONTH,5df24aea4b49a115b41f0b3a,26/01/1953,2020-09-12_10h19.23.460,proactive3.2,2020.1.2,Win32,60,5f5adea66120081ea0f57a61,5f5c927e29ce9f4756541d79,1,,,,,,microphone,,,,,,,,,,,6,0,0,29,29,53,1,,,,,,,,,,,,,,,,,,,,,,,,,,,,,,,,,,,,,,,,,,,,,,,,,,,,,,,,,,,,,,,,,,,,,,
,,?,0.007495,0,,,,,,stimuli/images/PICTURE_491.png,ROOF,5df24aea4b49a115b41f0b3a,26/01/1953,2020-09-12_10h19.23.460,proactive3.2,2020.1.2,Win32,60,5f5adea66120081ea0f57a61,5f5c927e29ce9f4756541d79,1,,,,,,rug,,,,,,,,,,,3,0,0,30,30,24,1,,,,,,,,,,,,,,,,,,,,,,,,,,,,,,,,,,,,,,,,,,,,,,,,,,,,,,,,,,,,,,,,,,,,,,
,,ARTIST,5.818445,0,,,,,,stimuli/images/PICTURE_160.png,LEADER,5df24aea4b49a115b41f0b3a,26/01/1953,2020-09-12_10h19.23.460,proactive3.2,2020.1.2,Win32,60,5f5adea66120081ea0f57a61,5f5c927e29ce9f4756541d79,1,,,,,,wheelbarrow,,,,,,,,,,,1,0,0,31,31,3,1,,,,,,,,,,,,,,,,,,,,,,,,,,,,,,,,,,,,,,,,,,,,,,,,,,,,,,,,,,,,,,,,,,,,,,
,,?,0.004605,0,,,,,,stimuli/images/PICTURE_85.png,THING,5df24aea4b49a115b41f0b3a,26/01/1953,2020-09-12_10h19.23.460,proactive3.2,2020.1.2,Win32,60,5f5adea66120081ea0f57a61,5f5c927e29ce9f4756541d79,1,,,,,,diamond,,,,,,,,,,,2,0,0,32,32,15,1,,,,,,,,,,,,,,,,,,,,,,,,,,,,,,,,,,,,,,,,,,,,,,,,,,,,,,,,,,,,,,,,,,,,,,
,,BATH,5.52119,1,,,,,,stimuli/images/PICTURE_667.png,BATH,5df24aea4b49a115b41f0b3a,26/01/1953,2020-09-12_10h19.23.460,proactive3.2,2020.1.2,Win32,60,5f5adea66120081ea0f57a61,5f5c927e29ce9f4756541d79,1,,,,,,daisy,,,,,,,,,,,1,0,0,33,33,4,1,,,,,,,,,,,,,,,,,,,,,,,,,,,,,,,,,,,,,,,,,,,,,,,,,,,,,,,,,,,,,,,,,,,,,,
,,?,0.000835,0,,,,,,stimuli/images/PICTURE_744.png,SAKE,5df24aea4b49a115b41f0b3a,26/01/1953,2020-09-12_10h19.23.460,proactive3.2,2020.1.2,Win32,60,5f5adea66120081ea0f57a61,5f5c927e29ce9f4756541d79,1,,,,,,ring,,,,,,,,,,,2,0,0,34,34,17,1,,,,,,,,,,,,,,,,,,,,,,,,,,,,,,,,,,,,,,,,,,,,,,,,,,,,,,,,,,,,,,,,,,,,,,
,,?,0.00064,0,,,,,,stimuli/images/PICTURE_215.png,PLENTY,5df24aea4b49a115b41f0b3a,26/01/1953,2020-09-12_10h19.23.460,proactive3.2,2020.1.2,Win32,60,5f5adea66120081ea0f57a61,5f5c927e29ce9f4756541d79,1,,,,,,boot,,,,,,,,,,,4,0,0,35,35,37,1,,,,,,,,,,,,,,,,,,,,,,,,,,,,,,,,,,,,,,,,,,,,,,,,,,,,,,,,,,,,,,,,,,,,,,
,,?,0.00059,0,,,,,,stimuli/images/PICTURE_470.png,CASINO,5df24aea4b49a115b41f0b3a,26/01/1953,2020-09-12_10h19.23.460,proactive3.2,2020.1.2,Win32,60,5f5adea66120081ea0f57a61,5f5c927e29ce9f4756541d79,1,,,,,,motorbike,,,,,,,,,,,4,0,0,36,36,36,1,,,,,,,,,,,,,,,,,,,,,,,,,,,,,,,,,,,,,,,,,,,,,,,,,,,,,,,,,,,,,,,,,,,,,,
,,?,0.000575,0,,,,,,stimuli/images/PICTURE_311.png,FRIEND,5df24aea4b49a115b41f0b3a,26/01/1953,2020-09-12_10h19.23.460,proactive3.2,2020.1.2,Win32,60,5f5adea66120081ea0f57a61,5f5c927e29ce9f4756541d79,1,,,,,,razor,,,,,,,,,,,4,0,0,37,37,34,1,,,,,,,,,,,,,,,,,,,,,,,,,,,,,,,,,,,,,,,,,,,,,,,,,,,,,,,,,,,,,,,,,,,,,,
,,?,0.00059,0,,,,,,stimuli/images/PICTURE_453.png,PLENTY,5df24aea4b49a115b41f0b3a,26/01/1953,2020-09-12_10h19.23.460,proactive3.2,2020.1.2,Win32,60,5f5adea66120081ea0f57a61,5f5c927e29ce9f4756541d79,1,,,,,,scissors,,,,,,,,,,,6,0,0,38,38,56,1,,,,,,,,,,,,,,,,,,,,,,,,,,,,,,,,,,,,,,,,,,,,,,,,,,,,,,,,,,,,,,,,,,,,,,
,,?,0.00058,0,,,,,,stimuli/images/PICTURE_467.png,DEMON,5df24aea4b49a115b41f0b3a,26/01/1953,2020-09-12_10h19.23.460,proactive3.2,2020.1.2,Win32,60,5f5adea66120081ea0f57a61,5f5c927e29ce9f4756541d79,1,,,,,,peg,,,,,,,,,,,3,0,0,39,39,23,1,,,,,,,,,,,,,,,,,,,,,,,,,,,,,,,,,,,,,,,,,,,,,,,,,,,,,,,,,,,,,,,,,,,,,,
,,?,0.00057,0,,,,,,stimuli/images/PICTURE_688.png,WOMEN,5df24aea4b49a115b41f0b3a,26/01/1953,2020-09-12_10h19.23.460,proactive3.2,2020.1.2,Win32,60,5f5adea66120081ea0f57a61,5f5c927e29ce9f4756541d79,1,,,,,,runner,,,,,,,,,,,2,0,0,40,40,14,1,,,,,,,,,,,,,,,,,,,,,,,,,,,,,,,,,,,,,,,,,,,,,,,,,,,,,,,,,,,,,,,,,,,,,,
,,?,0.000735,0,,,,,,stimuli/images/PICTURE_327.png,BEAUTY,5df24aea4b49a115b41f0b3a,26/01/1953,2020-09-12_10h19.23.460,proactive3.2,2020.1.2,Win32,60,5f5adea66120081ea0f57a61,5f5c927e29ce9f4756541d79,1,,,,,,helmet,,,,,,,,,,,5,0,0,41,41,48,1,,,,,,,,,,,,,,,,,,,,,,,,,,,,,,,,,,,,,,,,,,,,,,,,,,,,,,,,,,,,,,,,,,,,,,
,,?,0.00063,0,,,,,,stimuli/images/PICTURE_356.png,DANGER,5df24aea4b49a115b41f0b3a,26/01/1953,2020-09-12_10h19.23.460,proactive3.2,2020.1.2,Win32,60,5f5adea66120081ea0f57a61,5f5c927e29ce9f4756541d79,1,,,,,,pawn,,,,,,,,,,,6,0,0,42,42,55,1,,,,,,,,,,,,,,,,,,,,,,,,,,,,,,,,,,,,,,,,,,,,,,,,,,,,,,,,,,,,,,,,,,,,,,
,,?,0.000705,0,,,,,,stimuli/images/PICTURE_302.png,FAMILY,5df24aea4b49a115b41f0b3a,26/01/1953,2020-09-12_10h19.23.460,proactive3.2,2020.1.2,Win32,60,5f5adea66120081ea0f57a61,5f5c927e29ce9f4756541d79,1,,,,,,taxi,,,,,,,,,,,2,0,0,43,43,18,1,,,,,,,,,,,,,,,,,,,,,,,,,,,,,,,,,,,,,,,,,,,,,,,,,,,,,,,,,,,,,,,,,,,,,,
,,?,0.000505,0,,,,,,stimuli/images/PICTURE_380.png,PHOTO,5df24aea4b49a115b41f0b3a,26/01/1953,2020-09-12_10h19.23.460,proactive3.2,2020.1.2,Win32,60,5f5adea66120081ea0f57a61,5f5c927e29ce9f4756541d79,1,,,,,,gorilla,,,,,,,,,,,6,0,0,44,44,52,1,,,,,,,,,,,,,,,,,,,,,,,,,,,,,,,,,,,,,,,,,,,,,,,,,,,,,,,,,,,,,,,,,,,,,,
,,?,0.00063,0,,,,,,stimuli/images/PICTURE_491.png,WRITER,5df24aea4b49a115b41f0b3a,26/01/1953,2020-09-12_10h19.23.460,proactive3.2,2020.1.2,Win32,60,5f5adea66120081ea0f57a61,5f5c927e29ce9f4756541d79,1,,,,,,rug,,,,,,,,,,,6,0,0,45,45,57,1,,,,,,,,,,,,,,,,,,,,,,,,,,,,,,,,,,,,,,,,,,,,,,,,,,,,,,,,,,,,,,,,,,,,,,
,,?,0.000425,0,,,,,,stimuli/images/PICTURE_677.png,MILE,5df24aea4b49a115b41f0b3a,26/01/1953,2020-09-12_10h19.23.460,proactive3.2,2020.1.2,Win32,60,5f5adea66120081ea0f57a61,5f5c927e29ce9f4756541d79,1,,,,,,map,,,,,,,,,,,4,0,0,46,46,30,1,,,,,,,,,,,,,,,,,,,,,,,,,,,,,,,,,,,,,,,,,,,,,,,,,,,,,,,,,,,,,,,,,,,,,,
,,?,0.00068,0,,,,,,stimuli/images/PICTURE_667.png,PLENTY,5df24aea4b49a115b41f0b3a,26/01/1953,2020-09-12_10h19.23.460,proactive3.2,2020.1.2,Win32,60,5f5adea66120081ea0f57a61,5f5c927e29ce9f4756541d79,1,,,,,,daisy,,,,,,,,,,,5,0,0,47,47,41,1,,,,,,,,,,,,,,,,,,,,,,,,,,,,,,,,,,,,,,,,,,,,,,,,,,,,,,,,,,,,,,,,,,,,,,
,,BODY,3.27964,1,,,,,,stimuli/images/PICTURE_504.png,BODY,5df24aea4b49a115b41f0b3a,26/01/1953,2020-09-12_10h19.23.460,proactive3.2,2020.1.2,Win32,60,5f5adea66120081ea0f57a61,5f5c927e29ce9f4756541d79,1,,,,,,wheel,,,,,,,,,,,1,0,0,48,48,8,1,,,,,,,,,,,,,,,,,,,,,,,,,,,,,,,,,,,,,,,,,,,,,,,,,,,,,,,,,,,,,,,,,,,,,,
,,?,0.00108,0,,,,,,stimuli/images/PICTURE_233.png,WOMEN,5df24aea4b49a115b41f0b3a,26/01/1953,2020-09-12_10h19.23.460,proactive3.2,2020.1.2,Win32,60,5f5adea66120081ea0f57a61,5f5c927e29ce9f4756541d79,1,,,,,,salt,,,,,,,,,,,4,0,0,49,49,38,1,,,,,,,,,,,,,,,,,,,,,,,,,,,,,,,,,,,,,,,,,,,,,,,,,,,,,,,,,,,,,,,,,,,,,,
,,?,0.00087,0,,,,,,stimuli/images/PICTURE_675.png,WEAPON,5df24aea4b49a115b41f0b3a,26/01/1953,2020-09-12_10h19.23.460,proactive3.2,2020.1.2,Win32,60,5f5adea66120081ea0f57a61,5f5c927e29ce9f4756541d79,1,,,,,,windmill,,,,,,,,,,,4,0,0,50,50,32,1,,,,,,,,,,,,,,,,,,,,,,,,,,,,,,,,,,,,,,,,,,,,,,,,,,,,,,,,,,,,,,,,,,,,,,
,,?,0.00083,0,,,,,,stimuli/images/PICTURE_308.png,ESTATE,5df24aea4b49a115b41f0b3a,26/01/1953,2020-09-12_10h19.23.460,proactive3.2,2020.1.2,Win32,60,5f5adea66120081ea0f57a61,5f5c927e29ce9f4756541d79,1,,,,,,dice,,,,,,,,,,,5,0,0,51,51,46,1,,,,,,,,,,,,,,,,,,,,,,,,,,,,,,,,,,,,,,,,,,,,,,,,,,,,,,,,,,,,,,,,,,,,,,
,,?,0.0008,0,,,,,,stimuli/images/PICTURE_248.png,DOZEN,5df24aea4b49a115b41f0b3a,26/01/1953,2020-09-12_10h19.23.460,proactive3.2,2020.1.2,Win32,60,5f5adea66120081ea0f57a61,5f5c927e29ce9f4756541d79,1,,,,,,cart,,,,,,,,,,,4,0,0,52,52,39,1,,,,,,,,,,,,,,,,,,,,,,,,,,,,,,,,,,,,,,,,,,,,,,,,,,,,,,,,,,,,,,,,,,,,,,
,,?,0.00222,0,,,,,,stimuli/images/PICTURE_744.png,SYSTEM,5df24aea4b49a115b41f0b3a,26/01/1953,2020-09-12_10h19.23.460,proactive3.2,2020.1.2,Win32,60,5f5adea66120081ea0f57a61,5f5c927e29ce9f4756541d79,1,,,,,,ring,,,,,,,,,,,5,0,0,53,53,43,1,,,,,,,,,,,,,,,,,,,,,,,,,,,,,,,,,,,,,,,,,,,,,,,,,,,,,,,,,,,,,,,,,,,,,,
,,?,0.000815,0,,,,,,stimuli/images/PICTURE_177.png,CARS,5df24aea4b49a115b41f0b3a,26/01/1953,2020-09-12_10h19.23.460,proactive3.2,2020.1.2,Win32,60,5f5adea66120081ea0f57a61,5f5c927e29ce9f4756541d79,1,,,,,,mushroom,,,,,,,,,,,4,0,0,54,54,35,1,,,,,,,,,,,,,,,,,,,,,,,,,,,,,,,,,,,,,,,,,,,,,,,,,,,,,,,,,,,,,,,,,,,,,,
,,?,0.00121,0,,,,,,stimuli/images/PICTURE_488.png,STYLE,5df24aea4b49a115b41f0b3a,26/01/1953,2020-09-12_10h19.23.460,proactive3.2,2020.1.2,Win32,60,5f5adea66120081ea0f57a61,5f5c927e29ce9f4756541d79,1,,,,,,sun,,,,,,,,,,,4,0,0,55,55,33,1,,,,,,,,,,,,,,,,,,,,,,,,,,,,,,,,,,,,,,,,,,,,,,,,,,,,,,,,,,,,,,,,,,,,,,
,,?,0.000815,0,,,,,,stimuli/images/PICTURE_469.png,LETTER,5df24aea4b49a115b41f0b3a,26/01/1953,2020-09-12_10h19.23.460,proactive3.2,2020.1.2,Win32,60,5f5adea66120081ea0f57a61,5f5c927e29ce9f4756541d79,1,,,,,,stool,,,,,,,,,,,5,0,0,56,56,42,1,,,,,,,,,,,,,,,,,,,,,,,,,,,,,,,,,,,,,,,,,,,,,,,,,,,,,,,,,,,,,,,,,,,,,,
,,VALLEY,3.69505,1,,,,,,stimuli/images/PICTURE_654.png,VALLEY,5df24aea4b49a115b41f0b3a,26/01/1953,2020-09-12_10h19.23.460,proactive3.2,2020.1.2,Win32,60,5f5adea66120081ea0f57a61,5f5c927e29ce9f4756541d79,1,,,,,,pencil,,,,,,,,,,,1,0,0,57,57,1,1,,,,,,,,,,,,,,,,,,,,,,,,,,,,,,,,,,,,,,,,,,,,,,,,,,,,,,,,,,,,,,,,,,,,,,
,,?,0.001695,0,,,,,,stimuli/images/PICTURE_311.png,BEAUTY,5df24aea4b49a115b41f0b3a,26/01/1953,2020-09-12_10h19.23.460,proactive3.2,2020.1.2,Win32,60,5f5adea66120081ea0f57a61,5f5c927e29ce9f4756541d79,1,,,,,,razor,,,,,,,,,,,2,0,0,58,58,13,1,,,,,,,,,,,,,,,,,,,,,,,,,,,,,,,,,,,,,,,,,,,,,,,,,,,,,,,,,,,,,,,,,,,,,,
,,?,0.001385,0,,,,,,stimuli/images/PICTURE_255.png,AREA,5df24aea4b49a115b41f0b3a,26/01/1953,2020-09-12_10h19.23.460,proactive3.2,2020.1.2,Win32,60,5f5adea66120081ea0f57a61,5f5c927e29ce9f4756541d79,1,,,,,,shovel,,,,,,,,,,,3,0,0,59,59,22,1,,,,,,,,,,,,,,,,,,,,,,,,,,,,,,,,,,,,,,,,,,,,,,,,,,,,,,,,,,,,,,,,,,,,,,
,,,,,,,,,,,,5df24aea4b49a115b41f0b3a,26/01/1953,2020-09-12_10h19.23.460,proactive3.2,2020.1.2,Win32,60,5f5adea66120081ea0f57a61,5f5c927e29ce9f4756541d79,1,,,,,,,,,,,,,,,,,,,,,,,,0,0,0,0,1,stimuli/learn-block1.csv,,,,,,,,,,,,,,,,,,,,,,,,,,,,,,,,,,,,,,,,,,,,,,,,,,,,,,,,,,,,,,,,
,,,,,,,,,,stimuli/images/PICTURE_509.png,MILLER,5df24aea4b49a115b41f0b3a,26/01/1953,2020-09-12_10h19.23.460,proactive3.2,2020.1.2,Win32,60,5f5adea66120081ea0f57a61,5f5c927e29ce9f4756541d79,1,,,,,,telephone,,,,,,0,0,0,49,1,5,2,,,,,,,,,,,,,,,,,,,,,,,,,,,,,,,,,,,,,,,,,,,,,,,,,,,,,,,,,,,,,,,,,,,,,,,,,,,
,,,,,,,,,,stimuli/images/PICTURE_504.png,HOUSE,5df24aea4b49a115b41f0b3a,26/01/1953,2020-09-12_10h19.23.460,proactive3.2,2020.1.2,Win32,60,5f5adea66120081ea0f57a61,5f5c927e29ce9f4756541d79,1,,,,,,wheel,,,,,,0,1,1,36,1,4,2,,,,,,,,,,,,,,,,,,,,,,,,,,,,,,,,,,,,,,,,,,,,,,,,,,,,,,,,,,,,,,,,,,,,,,,,,,,
,,,,,,,,,,stimuli/images/PICTURE_311.png,FLESH,5df24aea4b49a115b41f0b3a,26/01/1953,2020-09-12_10h19.23.460,proactive3.2,2020.1.2,Win32,60,5f5adea66120081ea0f57a61,5f5c927e29ce9f4756541d79,1,,,,,,razor,,,,,,0,2,2,3,1,1,2,,,,,,,,,,,,,,,,,,,,,,,,,,,,,,,,,,,,,,,,,,,,,,,,,,,,,,,,,,,,,,,,,,,,,,,,,,,
,,,,,,,,,,stimuli/images/PICTURE_491.png,SERIES,5df24aea4b49a115b41f0b3a,26/01/1953,2020-09-12_10h19.23.460,proactive3.2,2020.1.2,Win32,60,5f5adea66120081ea0f57a61,5f5c927e29ce9f4756541d79,1,,,,,,rug,,,,,,0,3,3,39,1,4,2,,,,,,,,,,,,,,,,,,,,,,,,,,,,,,,,,,,,,,,,,,,,,,,,,,,,,,,,,,,,,,,,,,,,,,,,,,,
,,,,,,,,,,stimuli/images/PICTURE_487.png,POLICY,5df24aea4b49a115b41f0b3a,26/01/1953,2020-09-12_10h19.23.460,proactive3.2,2020.1.2,Win32,60,5f5adea66120081ea0f57a61,5f5c927e29ce9f4756541d79,1,,,,,,basket,,,,,,0,4,4,34,1,4,2,,,,,,,,,,,,,,,,,,,,,,,,,,,,,,,,,,,,,,,,,,,,,,,,,,,,,,,,,,,,,,,,,,,,,,,,,,,
,,,,,,,,,,stimuli/images/PICTURE_750.png,POLICY,5df24aea4b49a115b41f0b3a,26/01/1953,2020-09-12_10h19.23.460,proactive3.2,2020.1.2,Win32,60,5f5adea66120081ea0f57a61,5f5c927e29ce9f4756541d79,1,,,,,,kettle,,,,,,0,5,5,44,1,5,2,,,,,,,,,,,,,,,,,,,,,,,,,,,,,,,,,,,,,,,,,,,,,,,,,,,,,,,,,,,,,,,,,,,,,,,,,,,
,,,,,,,,,,stimuli/images/PICTURE_296.png,CLOCK,5df24aea4b49a115b41f0b3a,26/01/1953,2020-09-12_10h19.23.460,proactive3.2,2020.1.2,Win32,60,5f5adea66120081ea0f57a61,5f5c927e29ce9f4756541d79,1,,,,,,bolt,,,,,,0,6,6,18,1,2,2,,,,,,,,,,,,,,,,,,,,,,,,,,,,,,,,,,,,,,,,,,,,,,,,,,,,,,,,,,,,,,,,,,,,,,,,,,,
,,,,,,,,,,stimuli/images/PICTURE_692.png,DUDE,5df24aea4b49a115b41f0b3a,26/01/1953,2020-09-12_10h19.23.460,proactive3.2,2020.1.2,Win32,60,5f5adea66120081ea0f57a61,5f5c927e29ce9f4756541d79,1,,,,,,cherry,,,,,,0,7,7,47,1,5,2,,,,,,,,,,,,,,,,,,,,,,,,,,,,,,,,,,,,,,,,,,,,,,,,,,,,,,,,,,,,,,,,,,,,,,,,,,,
,,,,,,,,,,stimuli/images/PICTURE_68.png,KIND,5df24aea4b49a115b41f0b3a,26/01/1953,2020-09-12_10h19.23.460,proactive3.2,2020.1.2,Win32,60,5f5adea66120081ea0f57a61,5f5c927e29ce9f4756541d79,1,,,,,,candle,,,,,,0,8,8,23,1,3,2,,,,,,,,,,,,,,,,,,,,,,,,,,,,,,,,,,,,,,,,,,,,,,,,,,,,,,,,,,,,,,,,,,,,,,,,,,,
,,,,,,,,,,stimuli/images/PICTURE_348.png,DUDE,5df24aea4b49a115b41f0b3a,26/01/1953,2020-09-12_10h19.23.460,proactive3.2,2020.1.2,Win32,60,5f5adea66120081ea0f57a61,5f5c927e29ce9f4756541d79,1,,,,,,pepper,,,,,,0,9,9,59,1,6,2,,,,,,,,,,,,,,,,,,,,,,,,,,,,,,,,,,,,,,,,,,,,,,,,,,,,,,,,,,,,,,,,,,,,,,,,,,,
,,,,,,,,,,stimuli/images/PICTURE_654.png,YEAR,5df24aea4b49a115b41f0b3a,26/01/1953,2020-09-12_10h19.23.460,proactive3.2,2020.1.2,Win32,60,5f5adea66120081ea0f57a61,5f5c927e29ce9f4756541d79,1,,,,,,pencil,,,,,,0,10,10,41,1,5,2,,,,,,,,,,,,,,,,,,,,,,,,,,,,,,,,,,,,,,,,,,,,,,,,,,,,,,,,,,,,,,,,,,,,,,,,,,,
,,,,,,,,,,stimuli/images/PICTURE_655.png,SALE,5df24aea4b49a115b41f0b3a,26/01/1953,2020-09-12_10h19.23.460,proactive3.2,2020.1.2,Win32,60,5f5adea66120081ea0f57a61,5f5c927e29ce9f4756541d79,1,,,,,,megaphone,,,,,,0,11,11,57,1,6,2,,,,,,,,,,,,,,,,,,,,,,,,,,,,,,,,,,,,,,,,,,,,,,,,,,,,,,,,,,,,,,,,,,,,,,,,,,,
,,,,,,,,,,stimuli/images/PICTURE_215.png,BOYS,5df24aea4b49a115b41f0b3a,26/01/1953,2020-09-12_10h19.23.460,proactive3.2,2020.1.2,Win32,60,5f5adea66120081ea0f57a61,5f5c927e29ce9f4756541d79,1,,,,,,boot,,,,,,0,12,12,24,1,3,2,,,,,,,,,,,,,,,,,,,,,,,,,,,,,,,,,,,,,,,,,,,,,,,,,,,,,,,,,,,,,,,,,,,,,,,,,,,
,,,,,,,,,,stimuli/images/PICTURE_688.png,CLOCK,5df24aea4b49a115b41f0b3a,26/01/1953,2020-09-12_10h19.23.460,proactive3.2,2020.1.2,Win32,60,5f5adea66120081ea0f57a61,5f5c927e29ce9f4756541d79,1,,,,,,runner,,,,,,0,13,13,42,1,5,2,,,,,,,,,,,,,,,,,,,,,,,,,,,,,,,,,,,,,,,,,,,,,,,,,,,,,,,,,,,,,,,,,,,,,,,,,,,
,,,,,,,,,,stimuli/images/PICTURE_57.png,CANDY,5df24aea4b49a115b41f0b3a,26/01/1953,2020-09-12_10h19.23.460,proactive3.2,2020.1.2,Win32,60,5f5adea66120081ea0f57a61,5f5c927e29ce9f4756541d79,1,,,,,,stamp,,,,,,0,14,14,52,1,6,2,,,,,,,,,,,,,,,,,,,,,,,,,,,,,,,,,,,,,,,,,,,,,,,,,,,,,,,,,,,,,,,,,,,,,,,,,,,
,,,,,,,,,,stimuli/images/PICTURE_33.png,COPS,5df24aea4b49a115b41f0b3a,26/01/1953,2020-09-12_10h19.23.460,proactive3.2,2020.1.2,Win32,60,5f5adea66120081ea0f57a61,5f5c927e29ce9f4756541d79,1,,,,,,frame,,,,,,0,15,15,29,1,3,2,,,,,,,,,,,,,,,,,,,,,,,,,,,,,,,,,,,,,,,,,,,,,,,,,,,,,,,,,,,,,,,,,,,,,,,,,,,
,,,,,,,,,,stimuli/images/PICTURE_57.png,NATION,5df24aea4b49a115b41f0b3a,26/01/1953,2020-09-12_10h19.23.460,proactive3.2,2020.1.2,Win32,60,5f5adea66120081ea0f57a61,5f5c927e29ce9f4756541d79,1,,,,,,stamp,,,,,,0,16,16,21,1,3,2,,,,,,,,,,,,,,,,,,,,,,,,,,,,,,,,,,,,,,,,,,,,,,,,,,,,,,,,,,,,,,,,,,,,,,,,,,,
,,,,,,,,,,stimuli/images/PICTURE_285.png,WRITER,5df24aea4b49a115b41f0b3a,26/01/1953,2020-09-12_10h19.23.460,proactive3.2,2020.1.2,Win32,60,5f5adea66120081ea0f57a61,5f5c927e29ce9f4756541d79,1,,,,,,carrot,,,,,,0,17,17,6,1,1,2,,,,,,,,,,,,,,,,,,,,,,,,,,,,,,,,,,,,,,,,,,,,,,,,,,,,,,,,,,,,,,,,,,,,,,,,,,,
,,,,,,,,,,stimuli/images/PICTURE_208.png,SPIRIT,5df24aea4b49a115b41f0b3a,26/01/1953,2020-09-12_10h19.23.460,proactive3.2,2020.1.2,Win32,60,5f5adea66120081ea0f57a61,5f5c927e29ce9f4756541d79,1,,,,,,microphone,,,,,,0,18,18,28,1,3,2,,,,,,,,,,,,,,,,,,,,,,,,,,,,,,,,,,,,,,,,,,,,,,,,,,,,,,,,,,,,,,,,,,,,,,,,,,,
,,,,,,,,,,stimuli/images/PICTURE_564.png,PLENTY,5df24aea4b49a115b41f0b3a,26/01/1953,2020-09-12_10h19.23.460,proactive3.2,2020.1.2,Win32,60,5f5adea66120081ea0f57a61,5f5c927e29ce9f4756541d79,1,,,,,,spoon,,,,,,0,19,19,11,1,2,2,,,,,,,,,,,,,,,,,,,,,,,,,,,,,,,,,,,,,,,,,,,,,,,,,,,,,,,,,,,,,,,,,,,,,,,,,,,
,,,,,,,,,,stimuli/images/PICTURE_356.png,CANDY,5df24aea4b49a115b41f0b3a,26/01/1953,2020-09-12_10h19.23.460,proactive3.2,2020.1.2,Win32,60,5f5adea66120081ea0f57a61,5f5c927e29ce9f4756541d79,1,,,,,,pawn,,,,,,0,20,20,46,1,5,2,,,,,,,,,,,,,,,,,,,,,,,,,,,,,,,,,,,,,,,,,,,,,,,,,,,,,,,,,,,,,,,,,,,,,,,,,,,
,,,,,,,,,,stimuli/images/PICTURE_123.png,SALE,5df24aea4b49a115b41f0b3a,26/01/1953,2020-09-12_10h19.23.460,proactive3.2,2020.1.2,Win32,60,5f5adea66120081ea0f57a61,5f5c927e29ce9f4756541d79,1,,,,,,dart,,,,,,0,21,21,8,1,1,2,,,,,,,,,,,,,,,,,,,,,,,,,,,,,,,,,,,,,,,,,,,,,,,,,,,,,,,,,,,,,,,,,,,,,,,,,,,
,,,,,,,,,,stimuli/images/PICTURE_509.png,SHOTS,5df24aea4b49a115b41f0b3a,26/01/1953,2020-09-12_10h19.23.460,proactive3.2,2020.1.2,Win32,60,5f5adea66120081ea0f57a61,5f5c927e29ce9f4756541d79,1,,,,,,telephone,,,,,,0,22,22,7,1,1,2,,,,,,,,,,,,,,,,,,,,,,,,,,,,,,,,,,,,,,,,,,,,,,,,,,,,,,,,,,,,,,,,,,,,,,,,,,,
,,,,,,,,,,stimuli/images/PICTURE_215.png,FOOD,5df24aea4b49a115b41f0b3a,26/01/1953,2020-09-12_10h19.23.460,proactive3.2,2020.1.2,Win32,60,5f5adea66120081ea0f57a61,5f5c927e29ce9f4756541d79,1,,,,,,boot,,,,,,0,23,23,5,1,1,2,,,,,,,,,,,,,,,,,,,,,,,,,,,,,,,,,,,,,,,,,,,,,,,,,,,,,,,,,,,,,,,,,,,,,,,,,,,
,,,,,,,,,,stimuli/images/PICTURE_2.png,JUNGLE,5df24aea4b49a115b41f0b3a,26/01/1953,2020-09-12_10h19.23.460,proactive3.2,2020.1.2,Win32,60,5f5adea66120081ea0f57a61,5f5c927e29ce9f4756541d79,1,,,,,,tyre,,,,,,0,24,24,1,1,1,2,,,,,,,,,,,,,,,,,,,,,,,,,,,,,,,,,,,,,,,,,,,,,,,,,,,,,,,,,,,,,,,,,,,,,,,,,,,
,,,,,,,,,,stimuli/images/PICTURE_677.png,PHOTO,5df24aea4b49a115b41f0b3a,26/01/1953,2020-09-12_10h19.23.460,proactive3.2,2020.1.2,Win32,60,5f5adea66120081ea0f57a61,5f5c927e29ce9f4756541d79,1,,,,,,map,,,,,,0,25,25,14,1,2,2,,,,,,,,,,,,,,,,,,,,,,,,,,,,,,,,,,,,,,,,,,,,,,,,,,,,,,,,,,,,,,,,,,,,,,,,,,,
,,,,,,,,,,stimuli/images/PICTURE_18.png,RIVER,5df24aea4b49a115b41f0b3a,26/01/1953,2020-09-12_10h19.23.460,proactive3.2,2020.1.2,Win32,60,5f5adea66120081ea0f57a61,5f5c927e29ce9f4756541d79,1,,,,,,planet,,,,,,0,26,26,22,1,3,2,,,,,,,,,,,,,,,,,,,,,,,,,,,,,,,,,,,,,,,,,,,,,,,,,,,,,,,,,,,,,,,,,,,,,,,,,,,
,,,,,,,,,,stimuli/images/PICTURE_677.png,FAMILY,5df24aea4b49a115b41f0b3a,26/01/1953,2020-09-12_10h19.23.460,proactive3.2,2020.1.2,Win32,60,5f5adea66120081ea0f57a61,5f5c927e29ce9f4756541d79,1,,,,,,map,,,,,,0,27,27,53,1,6,2,,,,,,,,,,,,,,,,,,,,,,,,,,,,,,,,,,,,,,,,,,,,,,,,,,,,,,,,,,,,,,,,,,,,,,,,,,,
,,,,,,,,,,stimuli/images/PICTURE_509.png,BATH,5df24aea4b49a115b41f0b3a,26/01/1953,2020-09-12_10h19.23.460,proactive3.2,2020.1.2,Win32,60,5f5adea66120081ea0f57a61,5f5c927e29ce9f4756541d79,1,,,,,,telephone,,,,,,0,28,28,15,1,2,2,,,,,,,,,,,,,,,,,,,,,,,,,,,,,,,,,,,,,,,,,,,,,,,,,,,,,,,,,,,,,,,,,,,,,,,,,,,
,,,,,,,,,,stimuli/images/PICTURE_285.png,PRINCE,5df24aea4b49a115b41f0b3a,26/01/1953,2020-09-12_10h19.23.460,proactive3.2,2020.1.2,Win32,60,5f5adea66120081ea0f57a61,5f5c927e29ce9f4756541d79,1,,,,,,carrot,,,,,,0,29,29,20,1,3,2,,,,,,,,,,,,,,,,,,,,,,,,,,,,,,,,,,,,,,,,,,,,,,,,,,,,,,,,,,,,,,,,,,,,,,,,,,,
,,,,,,,,,,stimuli/images/PICTURE_453.png,FAMILY,5df24aea4b49a115b41f0b3a,26/01/1953,2020-09-12_10h19.23.460,proactive3.2,2020.1.2,Win32,60,5f5adea66120081ea0f57a61,5f5c927e29ce9f4756541d79,1,,,,,,scissors,,,,,,0,30,30,48,1,5,2,,,,,,,,,,,,,,,,,,,,,,,,,,,,,,,,,,,,,,,,,,,,,,,,,,,,,,,,,,,,,,,,,,,,,,,,,,,
,,,,,,,,,,stimuli/images/PICTURE_215.png,LEADER,5df24aea4b49a115b41f0b3a,26/01/1953,2020-09-12_10h19.23.460,proactive3.2,2020.1.2,Win32,60,5f5adea66120081ea0f57a61,5f5c927e29ce9f4756541d79,1,,,,,,boot,,,,,,0,31,31,43,1,5,2,,,,,,,,,,,,,,,,,,,,,,,,,,,,,,,,,,,,,,,,,,,,,,,,,,,,,,,,,,,,,,,,,,,,,,,,,,,
,,,,,,,,,,stimuli/images/PICTURE_470.png,BEAUTY,5df24aea4b49a115b41f0b3a,26/01/1953,2020-09-12_10h19.23.460,proactive3.2,2020.1.2,Win32,60,5f5adea66120081ea0f57a61,5f5c927e29ce9f4756541d79,1,,,,,,motorbike,,,,,,0,32,32,26,1,3,2,,,,,,,,,,,,,,,,,,,,,,,,,,,,,,,,,,,,,,,,,,,,,,,,,,,,,,,,,,,,,,,,,,,,,,,,,,,
,,,,,,,,,,stimuli/images/PICTURE_452.png,COPS,5df24aea4b49a115b41f0b3a,26/01/1953,2020-09-12_10h19.23.460,proactive3.2,2020.1.2,Win32,60,5f5adea66120081ea0f57a61,5f5c927e29ce9f4756541d79,1,,,,,,watch,,,,,,0,33,33,0,1,1,2,,,,,,,,,,,,,,,,,,,,,,,,,,,,,,,,,,,,,,,,,,,,,,,,,,,,,,,,,,,,,,,,,,,,,,,,,,,
,,,,,,,,,,stimuli/images/PICTURE_141.png,CLIENT,5df24aea4b49a115b41f0b3a,26/01/1953,2020-09-12_10h19.23.460,proactive3.2,2020.1.2,Win32,60,5f5adea66120081ea0f57a61,5f5c927e29ce9f4756541d79,1,,,,,,sunflower,,,,,,0,34,34,30,1,4,2,,,,,,,,,,,,,,,,,,,,,,,,,,,,,,,,,,,,,,,,,,,,,,,,,,,,,,,,,,,,,,,,,,,,,,,,,,,
,,,,,,,,,,stimuli/images/PICTURE_509.png,APPLE,5df24aea4b49a115b41f0b3a,26/01/1953,2020-09-12_10h19.23.460,proactive3.2,2020.1.2,Win32,60,5f5adea66120081ea0f57a61,5f5c927e29ce9f4756541d79,1,,,,,,telephone,,,,,,0,35,35,38,1,4,2,,,,,,,,,,,,,,,,,,,,,,,,,,,,,,,,,,,,,,,,,,,,,,,,,,,,,,,,,,,,,,,,,,,,,,,,,,,
,,,,,,,,,,stimuli/images/PICTURE_297.png,BODY,5df24aea4b49a115b41f0b3a,26/01/1953,2020-09-12_10h19.23.460,proactive3.2,2020.1.2,Win32,60,5f5adea66120081ea0f57a61,5f5c927e29ce9f4756541d79,1,,,,,,aeroplane,,,,,,0,36,36,51,1,6,2,,,,,,,,,,,,,,,,,,,,,,,,,,,,,,,,,,,,,,,,,,,,,,,,,,,,,,,,,,,,,,,,,,,,,,,,,,,
,,,,,,,,,,stimuli/images/PICTURE_667.png,GLASS,5df24aea4b49a115b41f0b3a,26/01/1953,2020-09-12_10h19.23.460,proactive3.2,2020.1.2,Win32,60,5f5adea66120081ea0f57a61,5f5c927e29ce9f4756541d79,1,,,,,,daisy,,,,,,0,37,37,27,1,3,2,,,,,,,,,,,,,,,,,,,,,,,,,,,,,,,,,,,,,,,,,,,,,,,,,,,,,,,,,,,,,,,,,,,,,,,,,,,
,,,,,,,,,,stimuli/images/PICTURE_405.png,HOUSE,5df24aea4b49a115b41f0b3a,26/01/1953,2020-09-12_10h19.23.460,proactive3.2,2020.1.2,Win32,60,5f5adea66120081ea0f57a61,5f5c927e29ce9f4756541d79,1,,,,,,anchor,,,,,,0,38,38,2,1,1,2,,,,,,,,,,,,,,,,,,,,,,,,,,,,,,,,,,,,,,,,,,,,,,,,,,,,,,,,,,,,,,,,,,,,,,,,,,,
,,,,,,,,,,stimuli/images/PICTURE_147.png,LEADER,5df24aea4b49a115b41f0b3a,26/01/1953,2020-09-12_10h19.23.460,proactive3.2,2020.1.2,Win32,60,5f5adea66120081ea0f57a61,5f5c927e29ce9f4756541d79,1,,,,,,hanger,,,,,,0,39,39,33,1,4,2,,,,,,,,,,,,,,,,,,,,,,,,,,,,,,,,,,,,,,,,,,,,,,,,,,,,,,,,,,,,,,,,,,,,,,,,,,,
,,,,,,,,,,stimuli/images/PICTURE_95.png,NIGHT,5df24aea4b49a115b41f0b3a,26/01/1953,2020-09-12_10h19.23.460,proactive3.2,2020.1.2,Win32,60,5f5adea66120081ea0f57a61,5f5c927e29ce9f4756541d79,1,,,,,,suitcase,,,,,,0,40,40,37,1,4,2,,,,,,,,,,,,,,,,,,,,,,,,,,,,,,,,,,,,,,,,,,,,,,,,,,,,,,,,,,,,,,,,,,,,,,,,,,,
,,,,,,,,,,stimuli/images/PICTURE_177.png,HOUSE,5df24aea4b49a115b41f0b3a,26/01/1953,2020-09-12_10h19.23.460,proactive3.2,2020.1.2,Win32,60,5f5adea66120081ea0f57a61,5f5c927e29ce9f4756541d79,1,,,,,,mushroom,,,,,,0,41,41,25,1,3,2,,,,,,,,,,,,,,,,,,,,,,,,,,,,,,,,,,,,,,,,,,,,,,,,,,,,,,,,,,,,,,,,,,,,,,,,,,,
,,,,,,,,,,stimuli/images/PICTURE_255.png,PENNY,5df24aea4b49a115b41f0b3a,26/01/1953,2020-09-12_10h19.23.460,proactive3.2,2020.1.2,Win32,60,5f5adea66120081ea0f57a61,5f5c927e29ce9f4756541d79,1,,,,,,shovel,,,,,,0,42,42,19,1,2,2,,,,,,,,,,,,,,,,,,,,,,,,,,,,,,,,,,,,,,,,,,,,,,,,,,,,,,,,,,,,,,,,,,,,,,,,,,,
,,,,,,,,,,stimuli/images/PICTURE_57.png,CASINO,5df24aea4b49a115b41f0b3a,26/01/1953,2020-09-12_10h19.23.460,proactive3.2,2020.1.2,Win32,60,5f5adea66120081ea0f57a61,5f5c927e29ce9f4756541d79,1,,,,,,stamp,,,,,,0,43,43,12,1,2,2,,,,,,,,,,,,,,,,,,,,,,,,,,,,,,,,,,,,,,,,,,,,,,,,,,,,,,,,,,,,,,,,,,,,,,,,,,,
,,,,,,,,,,stimuli/images/PICTURE_403.png,FAMILY,5df24aea4b49a115b41f0b3a,26/01/1953,2020-09-12_10h19.23.460,proactive3.2,2020.1.2,Win32,60,5f5adea66120081ea0f57a61,5f5c927e29ce9f4756541d79,1,,,,,,cathedral,,,,,,0,44,44,9,1,1,2,,,,,,,,,,,,,,,,,,,,,,,,,,,,,,,,,,,,,,,,,,,,,,,,,,,,,,,,,,,,,,,,,,,,,,,,,,,
,,,,,,,,,,stimuli/images/PICTURE_405.png,JUNGLE,5df24aea4b49a115b41f0b3a,26/01/1953,2020-09-12_10h19.23.460,proactive3.2,2020.1.2,Win32,60,5f5adea66120081ea0f57a61,5f5c927e29ce9f4756541d79,1,,,,,,anchor,,,,,,0,45,45,58,1,6,2,,,,,,,,,,,,,,,,,,,,,,,,,,,,,,,,,,,,,,,,,,,,,,,,,,,,,,,,,,,,,,,,,,,,,,,,,,,
,,,,,,,,,,stimuli/images/PICTURE_348.png,TOILET,5df24aea4b49a115b41f0b3a,26/01/1953,2020-09-12_10h19.23.460,proactive3.2,2020.1.2,Win32,60,5f5adea66120081ea0f57a61,5f5c927e29ce9f4756541d79,1,,,,,,pepper,,,,,,0,46,46,4,1,1,2,,,,,,,,,,,,,,,,,,,,,,,,,,,,,,,,,,,,,,,,,,,,,,,,,,,,,,,,,,,,,,,,,,,,,,,,,,,
,,,,,,,,,,stimuli/images/PICTURE_327.png,LEADER,5df24aea4b49a115b41f0b3a,26/01/1953,2020-09-12_10h19.23.460,proactive3.2,2020.1.2,Win32,60,5f5adea66120081ea0f57a61,5f5c927e29ce9f4756541d79,1,,,,,,helmet,,,,,,0,47,47,17,1,2,2,,,,,,,,,,,,,,,,,,,,,,,,,,,,,,,,,,,,,,,,,,,,,,,,,,,,,,,,,,,,,,,,,,,,,,,,,,,
,,,,,,,,,,stimuli/images/PICTURE_93.png,GIRL,5df24aea4b49a115b41f0b3a,26/01/1953,2020-09-12_10h19.23.460,proactive3.2,2020.1.2,Win32,60,5f5adea66120081ea0f57a61,5f5c927e29ce9f4756541d79,1,,,,,,skateboard,,,,,,0,48,48,31,1,4,2,,,,,,,,,,,,,,,,,,,,,,,,,,,,,,,,,,,,,,,,,,,,,,,,,,,,,,,,,,,,,,,,,,,,,,,,,,,
,,,,,,,,,,stimuli/images/PICTURE_160.png,HOTEL,5df24aea4b49a115b41f0b3a,26/01/1953,2020-09-12_10h19.23.460,proactive3.2,2020.1.2,Win32,60,5f5adea66120081ea0f57a61,5f5c927e29ce9f4756541d79,1,,,,,,wheelbarrow,,,,,,0,49,49,16,1,2,2,,,,,,,,,,,,,,,,,,,,,,,,,,,,,,,,,,,,,,,,,,,,,,,,,,,,,,,,,,,,,,,,,,,,,,,,,,,
,,,,,,,,,,stimuli/images/PICTURE_311.png,TOILET,5df24aea4b49a115b41f0b3a,26/01/1953,2020-09-12_10h19.23.460,proactive3.2,2020.1.2,Win32,60,5f5adea66120081ea0f57a61,5f5c927e29ce9f4756541d79,1,,,,,,razor,,,,,,0,50,50,54,1,6,2,,,,,,,,,,,,,,,,,,,,,,,,,,,,,,,,,,,,,,,,,,,,,,,,,,,,,,,,,,,,,,,,,,,,,,,,,,,
,,,,,,,,,,stimuli/images/PICTURE_708.png,VALLEY,5df24aea4b49a115b41f0b3a,26/01/1953,2020-09-12_10h19.23.460,proactive3.2,2020.1.2,Win32,60,5f5adea66120081ea0f57a61,5f5c927e29ce9f4756541d79,1,,,,,,monkey,,,,,,0,51,51,45,1,5,2,,,,,,,,,,,,,,,,,,,,,,,,,,,,,,,,,,,,,,,,,,,,,,,,,,,,,,,,,,,,,,,,,,,,,,,,,,,
,,,,,,,,,,stimuli/images/PICTURE_654.png,COPS,5df24aea4b49a115b41f0b3a,26/01/1953,2020-09-12_10h19.23.460,proactive3.2,2020.1.2,Win32,60,5f5adea66120081ea0f57a61,5f5c927e29ce9f4756541d79,1,,,,,,pencil,,,,,,0,52,52,10,1,2,2,,,,,,,,,,,,,,,,,,,,,,,,,,,,,,,,,,,,,,,,,,,,,,,,,,,,,,,,,,,,,,,,,,,,,,,,,,,
,,,,,,,,,,stimuli/images/PICTURE_2.png,YARD,5df24aea4b49a115b41f0b3a,26/01/1953,2020-09-12_10h19.23.460,proactive3.2,2020.1.2,Win32,60,5f5adea66120081ea0f57a61,5f5c927e29ce9f4756541d79,1,,,,,,tyre,,,,,,0,53,53,55,1,6,2,,,,,,,,,,,,,,,,,,,,,,,,,,,,,,,,,,,,,,,,,,,,,,,,,,,,,,,,,,,,,,,,,,,,,,,,,,,
,,,,,,,,,,stimuli/images/PICTURE_470.png,MOMENT,5df24aea4b49a115b41f0b3a,26/01/1953,2020-09-12_10h19.23.460,proactive3.2,2020.1.2,Win32,60,5f5adea66120081ea0f57a61,5f5c927e29ce9f4756541d79,1,,,,,,motorbike,,,,,,0,54,54,40,1,5,2,,,,,,,,,,,,,,,,,,,,,,,,,,,,,,,,,,,,,,,,,,,,,,,,,,,,,,,,,,,,,,,,,,,,,,,,,,,
,,,,,,,,,,stimuli/images/PICTURE_32.png,LETTER,5df24aea4b49a115b41f0b3a,26/01/1953,2020-09-12_10h19.23.460,proactive3.2,2020.1.2,Win32,60,5f5adea66120081ea0f57a61,5f5c927e29ce9f4756541d79,1,,,,,,crown,,,,,,0,55,55,56,1,6,2,,,,,,,,,,,,,,,,,,,,,,,,,,,,,,,,,,,,,,,,,,,,,,,,,,,,,,,,,,,,,,,,,,,,,,,,,,,
,,,,,,,,,,stimuli/images/PICTURE_314.png,SPEECH,5df24aea4b49a115b41f0b3a,26/01/1953,2020-09-12_10h19.23.460,proactive3.2,2020.1.2,Win32,60,5f5adea66120081ea0f57a61,5f5c927e29ce9f4756541d79,1,,,,,,perfume,,,,,,0,56,56,35,1,4,2,,,,,,,,,,,,,,,,,,,,,,,,,,,,,,,,,,,,,,,,,,,,,,,,,,,,,,,,,,,,,,,,,,,,,,,,,,,
,,,,,,,,,,stimuli/images/PICTURE_487.png,ROOF,5df24aea4b49a115b41f0b3a,26/01/1953,2020-09-12_10h19.23.460,proactive3.2,2020.1.2,Win32,60,5f5adea66120081ea0f57a61,5f5c927e29ce9f4756541d79,1,,,,,,basket,,,,,,0,57,57,50,1,6,2,,,,,,,,,,,,,,,,,,,,,,,,,,,,,,,,,,,,,,,,,,,,,,,,,,,,,,,,,,,,,,,,,,,,,,,,,,,
,,,,,,,,,,stimuli/images/PICTURE_2.png,AREA,5df24aea4b49a115b41f0b3a,26/01/1953,2020-09-12_10h19.23.460,proactive3.2,2020.1.2,Win32,60,5f5adea66120081ea0f57a61,5f5c927e29ce9f4756541d79,1,,,,,,tyre,,,,,,0,58,58,32,1,4,2,,,,,,,,,,,,,,,,,,,,,,,,,,,,,,,,,,,,,,,,,,,,,,,,,,,,,,,,,,,,,,,,,,,,,,,,,,,
,,?,0.00269,0,,,,,,stimuli/images/PICTURE_57.png,NATION,5df24aea4b49a115b41f0b3a,26/01/1953,2020-09-12_10h19.23.460,proactive3.2,2020.1.2,Win32,60,5f5adea66120081ea0f57a61,5f5c927e29ce9f4756541d79,1,,,,,,stamp,,,,,,,,,,,3,2,0,0,0,21,1,,,,,,,,,,,,,,,,,,,,,,,,,,,,,,,,,,,,,,,,,,,,,,,,,,,,,,,,,,,,,,,,,,,,,,
,,?,0.001775,0,,,,,,stimuli/images/PICTURE_327.png,LEADER,5df24aea4b49a115b41f0b3a,26/01/1953,2020-09-12_10h19.23.460,proactive3.2,2020.1.2,Win32,60,5f5adea66120081ea0f57a61,5f5c927e29ce9f4756541d79,1,,,,,,helmet,,,,,,,,,,,2,2,0,1,1,17,1,,,,,,,,,,,,,,,,,,,,,,,,,,,,,,,,,,,,,,,,,,,,,,,,,,,,,,,,,,,,,,,,,,,,,,
,,?,0.00108,0,,,,,,stimuli/images/PICTURE_297.png,BODY,5df24aea4b49a115b41f0b3a,26/01/1953,2020-09-12_10h19.23.460,proactive3.2,2020.1.2,Win32,60,5f5adea66120081ea0f57a61,5f5c927e29ce9f4756541d79,1,,,,,,aeroplane,,,,,,,,,,,6,2,0,2,2,51,1,,,,,,,,,,,,,,,,,,,,,,,,,,,,,,,,,,,,,,,,,,,,,,,,,,,,,,,,,,,,,,,,,,,,,,
,,?,0.001255,0,,,,,,stimuli/images/PICTURE_509.png,APPLE,5df24aea4b49a115b41f0b3a,26/01/1953,2020-09-12_10h19.23.460,proactive3.2,2020.1.2,Win32,60,5f5adea66120081ea0f57a61,5f5c927e29ce9f4756541d79,1,,,,,,telephone,,,,,,,,,,,4,2,0,3,3,38,1,,,,,,,,,,,,,,,,,,,,,,,,,,,,,,,,,,,,,,,,,,,,,,,,,,,,,,,,,,,,,,,,,,,,,,
,,?,0.00095,0,,,,,,stimuli/images/PICTURE_692.png,DUDE,5df24aea4b49a115b41f0b3a,26/01/1953,2020-09-12_10h19.23.460,proactive3.2,2020.1.2,Win32,60,5f5adea66120081ea0f57a61,5f5c927e29ce9f4756541d79,1,,,,,,cherry,,,,,,,,,,,5,2,0,4,4,47,1,,,,,,,,,,,,,,,,,,,,,,,,,,,,,,,,,,,,,,,,,,,,,,,,,,,,,,,,,,,,,,,,,,,,,,
,,FOOD,7.47401,1,,,,,,stimuli/images/PICTURE_215.png,FOOD,5df24aea4b49a115b41f0b3a,26/01/1953,2020-09-12_10h19.23.460,proactive3.2,2020.1.2,Win32,60,5f5adea66120081ea0f57a61,5f5c927e29ce9f4756541d79,1,,,,,,boot,,,,,,,,,,,1,2,0,5,5,5,1,,,,,,,,,,,,,,,,,,,,,,,,,,,,,,,,,,,,,,,,,,,,,,,,,,,,,,,,,,,,,,,,,,,,,,
,,?,0.001655,0,,,,,,stimuli/images/PICTURE_405.png,JUNGLE,5df24aea4b49a115b41f0b3a,26/01/1953,2020-09-12_10h19.23.460,proactive3.2,2020.1.2,Win32,60,5f5adea66120081ea0f57a61,5f5c927e29ce9f4756541d79,1,,,,,,anchor,,,,,,,,,,,6,2,0,6,6,58,1,,,,,,,,,,,,,,,,,,,,,,,,,,,,,,,,,,,,,,,,,,,,,,,,,,,,,,,,,,,,,,,,,,,,,,
,,?,0.00162,0,,,,,,stimuli/images/PICTURE_509.png,BATH,5df24aea4b49a115b41f0b3a,26/01/1953,2020-09-12_10h19.23.460,proactive3.2,2020.1.2,Win32,60,5f5adea66120081ea0f57a61,5f5c927e29ce9f4756541d79,1,,,,,,telephone,,,,,,,,,,,2,2,0,7,7,15,1,,,,,,,,,,,,,,,,,,,,,,,,,,,,,,,,,,,,,,,,,,,,,,,,,,,,,,,,,,,,,,,,,,,,,,
,,?,0.001285,0,,,,,,stimuli/images/PICTURE_405.png,JUNGLE,5df24aea4b49a115b41f0b3a,26/01/1953,2020-09-12_10h19.23.460,proactive3.2,2020.1.2,Win32,60,5f5adea66120081ea0f57a61,5f5c927e29ce9f4756541d79,1,,,,,,anchor,,,,,,,,,,,2,2,0,8,8,13,1,,,,,,,,,,,,,,,,,,,,,,,,,,,,,,,,,,,,,,,,,,,,,,,,,,,,,,,,,,,,,,,,,,,,,,
,,?,0.00272,0,,,,,,stimuli/images/PICTURE_491.png,SERIES,5df24aea4b49a115b41f0b3a,26/01/1953,2020-09-12_10h19.23.460,proactive3.2,2020.1.2,Win32,60,5f5adea66120081ea0f57a61,5f5c927e29ce9f4756541d79,1,,,,,,rug,,,,,,,,,,,4,2,0,9,9,39,1,,,,,,,,,,,,,,,,,,,,,,,,,,,,,,,,,,,,,,,,,,,,,,,,,,,,,,,,,,,,,,,,,,,,,,
,,SALE,4.339765,1,,,,,,stimuli/images/PICTURE_123.png,SALE,5df24aea4b49a115b41f0b3a,26/01/1953,2020-09-12_10h19.23.460,proactive3.2,2020.1.2,Win32,60,5f5adea66120081ea0f57a61,5f5c927e29ce9f4756541d79,1,,,,,,dart,,,,,,,,,,,1,2,0,10,10,8,1,,,,,,,,,,,,,,,,,,,,,,,,,,,,,,,,,,,,,,,,,,,,,,,,,,,,,,,,,,,,,,,,,,,,,,
,,?,0.001635,0,,,,,,stimuli/images/PICTURE_311.png,TOILET,5df24aea4b49a115b41f0b3a,26/01/1953,2020-09-12_10h19.23.460,proactive3.2,2020.1.2,Win32,60,5f5adea66120081ea0f57a61,5f5c927e29ce9f4756541d79,1,,,,,,razor,,,,,,,,,,,6,2,0,11,11,54,1,,,,,,,,,,,,,,,,,,,,,,,,,,,,,,,,,,,,,,,,,,,,,,,,,,,,,,,,,,,,,,,,,,,,,,
,,?,0.001415,0,,,,,,stimuli/images/PICTURE_314.png,SPEECH,5df24aea4b49a115b41f0b3a,26/01/1953,2020-09-12_10h19.23.460,proactive3.2,2020.1.2,Win32,60,5f5adea66120081ea0f57a61,5f5c927e29ce9f4756541d79,1,,,,,,perfume,,,,,,,,,,,4,2,0,12,12,35,1,,,,,,,,,,,,,,,,,,,,,,,,,,,,,,,,,,,,,,,,,,,,,,,,,,,,,,,,,,,,,,,,,,,,,,
,,JUNGLE,5.961345,1,,,,,,stimuli/images/PICTURE_2.png,JUNGLE,5df24aea4b49a115b41f0b3a,26/01/1953,2020-09-12_10h19.23.460,proactive3.2,2020.1.2,Win32,60,5f5adea66120081ea0f57a61,5f5c927e29ce9f4756541d79,1,,,,,,tyre,,,,,,,,,,,1,2,0,13,13,1,1,,,,,,,,,,,,,,,,,,,,,,,,,,,,,,,,,,,,,,,,,,,,,,,,,,,,,,,,,,,,,,,,,,,,,,
,,FAN,4.397245,0,,,,,,stimuli/images/PICTURE_403.png,FAMILY,5df24aea4b49a115b41f0b3a,26/01/1953,2020-09-12_10h19.23.460,proactive3.2,2020.1.2,Win32,60,5f5adea66120081ea0f57a61,5f5c927e29ce9f4756541d79,1,,,,,,cathedral,,,,,,,,,,,1,2,0,14,14,9,1,,,,,,,,,,,,,,,,,,,,,,,,,,,,,,,,,,,,,,,,,,,,,,,,,,,,,,,,,,,,,,,,,,,,,,
,,?,0.00173,0,,,,,,stimuli/images/PICTURE_487.png,POLICY,5df24aea4b49a115b41f0b3a,26/01/1953,2020-09-12_10h19.23.460,proactive3.2,2020.1.2,Win32,60,5f5adea66120081ea0f57a61,5f5c927e29ce9f4756541d79,1,,,,,,basket,,,,,,,,,,,4,2,0,15,15,34,1,,,,,,,,,,,,,,,,,,,,,,,,,,,,,,,,,,,,,,,,,,,,,,,,,,,,,,,,,,,,,,,,,,,,,,
,,?,0.00138,0,,,,,,stimuli/images/PICTURE_147.png,LEADER,5df24aea4b49a115b41f0b3a,26/01/1953,2020-09-12_10h19.23.460,proactive3.2,2020.1.2,Win32,60,5f5adea66120081ea0f57a61,5f5c927e29ce9f4756541d79,1,,,,,,hanger,,,,,,,,,,,4,2,0,16,16,33,1,,,,,,,,,,,,,,,,,,,,,,,,,,,,,,,,,,,,,,,,,,,,,,,,,,,,,,,,,,,,,,,,,,,,,,
,,?,0.00138,0,,,,,,stimuli/images/PICTURE_348.png,DUDE,5df24aea4b49a115b41f0b3a,26/01/1953,2020-09-12_10h19.23.460,proactive3.2,2020.1.2,Win32,60,5f5adea66120081ea0f57a61,5f5c927e29ce9f4756541d79,1,,,,,,pepper,,,,,,,,,,,6,2,0,17,17,59,1,,,,,,,,,,,,,,,,,,,,,,,,,,,,,,,,,,,,,,,,,,,,,,,,,,,,,,,,,,,,,,,,,,,,,,
,,?,0.0014,0,,,,,,stimuli/images/PICTURE_177.png,HOUSE,5df24aea4b49a115b41f0b3a,26/01/1953,2020-09-12_10h19.23.460,proactive3.2,2020.1.2,Win32,60,5f5adea66120081ea0f57a61,5f5c927e29ce9f4756541d79,1,,,,,,mushroom,,,,,,,,,,,3,2,0,18,18,25,1,,,,,,,,,,,,,,,,,,,,,,,,,,,,,,,,,,,,,,,,,,,,,,,,,,,,,,,,,,,,,,,,,,,,,,
,,?,0.00129,0,,,,,,stimuli/images/PICTURE_208.png,SPIRIT,5df24aea4b49a115b41f0b3a,26/01/1953,2020-09-12_10h19.23.460,proactive3.2,2020.1.2,Win32,60,5f5adea66120081ea0f57a61,5f5c927e29ce9f4756541d79,1,,,,,,microphone,,,,,,,,,,,3,2,0,19,19,28,1,,,,,,,,,,,,,,,,,,,,,,,,,,,,,,,,,,,,,,,,,,,,,,,,,,,,,,,,,,,,,,,,,,,,,,
,,?,0.0013,0,,,,,,stimuli/images/PICTURE_677.png,FAMILY,5df24aea4b49a115b41f0b3a,26/01/1953,2020-09-12_10h19.23.460,proactive3.2,2020.1.2,Win32,60,5f5adea66120081ea0f57a61,5f5c927e29ce9f4756541d79,1,,,,,,map,,,,,,,,,,,6,2,0,20,20,53,1,,,,,,,,,,,,,,,,,,,,,,,,,,,,,,,,,,,,,,,,,,,,,,,,,,,,,,,,,,,,,,,,,,,,,,
,,?,0.00185,0,,,,,,stimuli/images/PICTURE_470.png,MOMENT,5df24aea4b49a115b41f0b3a,26/01/1953,2020-09-12_10h19.23.460,proactive3.2,2020.1.2,Win32,60,5f5adea66120081ea0f57a61,5f5c927e29ce9f4756541d79,1,,,,,,motorbike,,,,,,,,,,,5,2,0,21,21,40,1,,,,,,,,,,,,,,,,,,,,,,,,,,,,,,,,,,,,,,,,,,,,,,,,,,,,,,,,,,,,,,,,,,,,,,
,,?,0.00171,0,,,,,,stimuli/images/PICTURE_296.png,CLOCK,5df24aea4b49a115b41f0b3a,26/01/1953,2020-09-12_10h19.23.460,proactive3.2,2020.1.2,Win32,60,5f5adea66120081ea0f57a61,5f5c927e29ce9f4756541d79,1,,,,,,bolt,,,,,,,,,,,2,2,0,22,22,18,1,,,,,,,,,,,,,,,,,,,,,,,,,,,,,,,,,,,,,,,,,,,,,,,,,,,,,,,,,,,,,,,,,,,,,,
,,?,0.004675,0,,,,,,stimuli/images/PICTURE_2.png,AREA,5df24aea4b49a115b41f0b3a,26/01/1953,2020-09-12_10h19.23.460,proactive3.2,2020.1.2,Win32,60,5f5adea66120081ea0f57a61,5f5c927e29ce9f4756541d79,1,,,,,,tyre,,,,,,,,,,,4,2,0,23,23,32,1,,,,,,,,,,,,,,,,,,,,,,,,,,,,,,,,,,,,,,,,,,,,,,,,,,,,,,,,,,,,,,,,,,,,,,
,,?,0.00138,0,,,,,,stimuli/images/PICTURE_677.png,PHOTO,5df24aea4b49a115b41f0b3a,26/01/1953,2020-09-12_10h19.23.460,proactive3.2,2020.1.2,Win32,60,5f5adea66120081ea0f57a61,5f5c927e29ce9f4756541d79,1,,,,,,map,,,,,,,,,,,2,2,0,24,24,14,1,,,,,,,,,,,,,,,,,,,,,,,,,,,,,,,,,,,,,,,,,,,,,,,,,,,,,,,,,,,,,,,,,,,,,,
,,?,0.00133,0,,,,,,stimuli/images/PICTURE_504.png,HOUSE,5df24aea4b49a115b41f0b3a,26/01/1953,2020-09-12_10h19.23.460,proactive3.2,2020.1.2,Win32,60,5f5adea66120081ea0f57a61,5f5c927e29ce9f4756541d79,1,,,,,,wheel,,,,,,,,,,,4,2,0,25,25,36,1,,,,,,,,,,,,,,,,,,,,,,,,,,,,,,,,,,,,,,,,,,,,,,,,,,,,,,,,,,,,,,,,,,,,,,
,,?,0.00131,0,,,,,,stimuli/images/PICTURE_509.png,MILLER,5df24aea4b49a115b41f0b3a,26/01/1953,2020-09-12_10h19.23.460,proactive3.2,2020.1.2,Win32,60,5f5adea66120081ea0f57a61,5f5c927e29ce9f4756541d79,1,,,,,,telephone,,,,,,,,,,,5,2,0,26,26,49,1,,,,,,,,,,,,,,,,,,,,,,,,,,,,,,,,,,,,,,,,,,,,,,,,,,,,,,,,,,,,,,,,,,,,,,
,,?,0.001325,0,,,,,,stimuli/images/PICTURE_655.png,SALE,5df24aea4b49a115b41f0b3a,26/01/1953,2020-09-12_10h19.23.460,proactive3.2,2020.1.2,Win32,60,5f5adea66120081ea0f57a61,5f5c927e29ce9f4756541d79,1,,,,,,megaphone,,,,,,,,,,,6,2,0,27,27,57,1,,,,,,,,,,,,,,,,,,,,,,,,,,,,,,,,,,,,,,,,,,,,,,,,,,,,,,,,,,,,,,,,,,,,,,
,,?,0.00135,0,,,,,,stimuli/images/PICTURE_68.png,KIND,5df24aea4b49a115b41f0b3a,26/01/1953,2020-09-12_10h19.23.460,proactive3.2,2020.1.2,Win32,60,5f5adea66120081ea0f57a61,5f5c927e29ce9f4756541d79,1,,,,,,candle,,,,,,,,,,,3,2,0,28,28,23,1,,,,,,,,,,,,,,,,,,,,,,,,,,,,,,,,,,,,,,,,,,,,,,,,,,,,,,,,,,,,,,,,,,,,,,
,,?,0.00134,0,,,,,,stimuli/images/PICTURE_285.png,PRINCE,5df24aea4b49a115b41f0b3a,26/01/1953,2020-09-12_10h19.23.460,proactive3.2,2020.1.2,Win32,60,5f5adea66120081ea0f57a61,5f5c927e29ce9f4756541d79,1,,,,,,carrot,,,,,,,,,,,3,2,0,29,29,20,1,,,,,,,,,,,,,,,,,,,,,,,,,,,,,,,,,,,,,,,,,,,,,,,,,,,,,,,,,,,,,,,,,,,,,,
,,WRITER,5.947325,1,,,,,,stimuli/images/PICTURE_285.png,WRITER,5df24aea4b49a115b41f0b3a,26/01/1953,2020-09-12_10h19.23.460,proactive3.2,2020.1.2,Win32,60,5f5adea66120081ea0f57a61,5f5c927e29ce9f4756541d79,1,,,,,,carrot,,,,,,,,,,,1,2,0,30,30,6,1,,,,,,,,,,,,,,,,,,,,,,,,,,,,,,,,,,,,,,,,,,,,,,,,,,,,,,,,,,,,,,,,,,,,,,
,,?,0.00064,0,,,,,,stimuli/images/PICTURE_667.png,GLASS,5df24aea4b49a115b41f0b3a,26/01/1953,2020-09-12_10h19.23.460,proactive3.2,2020.1.2,Win32,60,5f5adea66120081ea0f57a61,5f5c927e29ce9f4756541d79,1,,,,,,daisy,,,,,,,,,,,3,2,0,31,31,27,1,,,,,,,,,,,,,,,,,,,,,,,,,,,,,,,,,,,,,,,,,,,,,,,,,,,,,,,,,,,,,,,,,,,,,,
,,?,0.00046,0,,,,,,stimuli/images/PICTURE_160.png,HOTEL,5df24aea4b49a115b41f0b3a,26/01/1953,2020-09-12_10h19.23.460,proactive3.2,2020.1.2,Win32,60,5f5adea66120081ea0f57a61,5f5c927e29ce9f4756541d79,1,,,,,,wheelbarrow,,,,,,,,,,,2,2,0,32,32,16,1,,,,,,,,,,,,,,,,,,,,,,,,,,,,,,,,,,,,,,,,,,,,,,,,,,,,,,,,,,,,,,,,,,,,,,
,,?,0.00037,0,,,,,,stimuli/images/PICTURE_255.png,PENNY,5df24aea4b49a115b41f0b3a,26/01/1953,2020-09-12_10h19.23.460,proactive3.2,2020.1.2,Win32,60,5f5adea66120081ea0f57a61,5f5c927e29ce9f4756541d79,1,,,,,,shovel,,,,,,,,,,,2,2,0,33,33,19,1,,,,,,,,,,,,,,,,,,,,,,,,,,,,,,,,,,,,,,,,,,,,,,,,,,,,,,,,,,,,,,,,,,,,,,
,,?,0.00038,0,,,,,,stimuli/images/PICTURE_215.png,BOYS,5df24aea4b49a115b41f0b3a,26/01/1953,2020-09-12_10h19.23.460,proactive3.2,2020.1.2,Win32,60,5f5adea66120081ea0f57a61,5f5c927e29ce9f4756541d79,1,,,,,,boot,,,,,,,,,,,3,2,0,34,34,24,1,,,,,,,,,,,,,,,,,,,,,,,,,,,,,,,,,,,,,,,,,,,,,,,,,,,,,,,,,,,,,,,,,,,,,,
,,?,0.00037,0,,,,,,stimuli/images/PICTURE_654.png,COPS,5df24aea4b49a115b41f0b3a,26/01/1953,2020-09-12_10h19.23.460,proactive3.2,2020.1.2,Win32,60,5f5adea66120081ea0f57a61,5f5c927e29ce9f4756541d79,1,,,,,,pencil,,,,,,,,,,,2,2,0,35,35,10,1,,,,,,,,,,,,,,,,,,,,,,,,,,,,,,,,,,,,,,,,,,,,,,,,,,,,,,,,,,,,,,,,,,,,,,
,,FLESH,5.72374,1,,,,,,stimuli/images/PICTURE_311.png,FLESH,5df24aea4b49a115b41f0b3a,26/01/1953,2020-09-12_10h19.23.460,proactive3.2,2020.1.2,Win32,60,5f5adea66120081ea0f57a61,5f5c927e29ce9f4756541d79,1,,,,,,razor,,,,,,,,,,,1,2,0,36,36,3,1,,,,,,,,,,,,,,,,,,,,,,,,,,,,,,,,,,,,,,,,,,,,,,,,,,,,,,,,,,,,,,,,,,,,,,
,,?,0.001575,0,,,,,,stimuli/images/PICTURE_215.png,LEADER,5df24aea4b49a115b41f0b3a,26/01/1953,2020-09-12_10h19.23.460,proactive3.2,2020.1.2,Win32,60,5f5adea66120081ea0f57a61,5f5c927e29ce9f4756541d79,1,,,,,,boot,,,,,,,,,,,5,2,0,37,37,43,1,,,,,,,,,,,,,,,,,,,,,,,,,,,,,,,,,,,,,,,,,,,,,,,,,,,,,,,,,,,,,,,,,,,,,,
,,?,0.001325,0,,,,,,stimuli/images/PICTURE_453.png,FAMILY,5df24aea4b49a115b41f0b3a,26/01/1953,2020-09-12_10h19.23.460,proactive3.2,2020.1.2,Win32,60,5f5adea66120081ea0f57a61,5f5c927e29ce9f4756541d79,1,,,,,,scissors,,,,,,,,,,,5,2,0,38,38,48,1,,,,,,,,,,,,,,,,,,,,,,,,,,,,,,,,,,,,,,,,,,,,,,,,,,,,,,,,,,,,,,,,,,,,,,
,,?,0.00124,0,,,,,,stimuli/images/PICTURE_141.png,CLIENT,5df24aea4b49a115b41f0b3a,26/01/1953,2020-09-12_10h19.23.460,proactive3.2,2020.1.2,Win32,60,5f5adea66120081ea0f57a61,5f5c927e29ce9f4756541d79,1,,,,,,sunflower,,,,,,,,,,,4,2,0,39,39,30,1,,,,,,,,,,,,,,,,,,,,,,,,,,,,,,,,,,,,,,,,,,,,,,,,,,,,,,,,,,,,,,,,,,,,,,
,,?,0.001905,0,,,,,,stimuli/images/PICTURE_708.png,VALLEY,5df24aea4b49a115b41f0b3a,26/01/1953,2020-09-12_10h19.23.460,proactive3.2,2020.1.2,Win32,60,5f5adea66120081ea0f57a61,5f5c927e29ce9f4756541d79,1,,,,,,monkey,,,,,,,,,,,5,2,0,40,40,45,1,,,,,,,,,,,,,,,,,,,,,,,,,,,,,,,,,,,,,,,,,,,,,,,,,,,,,,,,,,,,,,,,,,,,,,
,,?,0.00136,0,,,,,,stimuli/images/PICTURE_356.png,CANDY,5df24aea4b49a115b41f0b3a,26/01/1953,2020-09-12_10h19.23.460,proactive3.2,2020.1.2,Win32,60,5f5adea66120081ea0f57a61,5f5c927e29ce9f4756541d79,1,,,,,,pawn,,,,,,,,,,,5,2,0,41,41,46,1,,,,,,,,,,,,,,,,,,,,,,,,,,,,,,,,,,,,,,,,,,,,,,,,,,,,,,,,,,,,,,,,,,,,,,
,,JUNGLE,6.94885,0,,,,,,stimuli/images/PICTURE_509.png,SHOTS,5df24aea4b49a115b41f0b3a,26/01/1953,2020-09-12_10h19.23.460,proactive3.2,2020.1.2,Win32,60,5f5adea66120081ea0f57a61,5f5c927e29ce9f4756541d79,1,,,,,,telephone,,,,,,,,,,,1,2,0,42,42,7,1,,,,,,,,,,,,,,,,,,,,,,,,,,,,,,,,,,,,,,,,,,,,,,,,,,,,,,,,,,,,,,,,,,,,,,
,,HOUSE,6.567295,1,,,,,,stimuli/images/PICTURE_405.png,HOUSE,5df24aea4b49a115b41f0b3a,26/01/1953,2020-09-12_10h19.23.460,proactive3.2,2020.1.2,Win32,60,5f5adea66120081ea0f57a61,5f5c927e29ce9f4756541d79,1,,,,,,anchor,,,,,,,,,,,1,2,0,43,43,2,1,,,,,,,,,,,,,,,,,,,,,,,,,,,,,,,,,,,,,,,,,,,,,,,,,,,,,,,,,,,,,,,,,,,,,,
,,?,0.00191,0,,,,,,stimuli/images/PICTURE_18.png,RIVER,5df24aea4b49a115b41f0b3a,26/01/1953,2020-09-12_10h19.23.460,proactive3.2,2020.1.2,Win32,60,5f5adea66120081ea0f57a61,5f5c927e29ce9f4756541d79,1,,,,,,planet,,,,,,,,,,,3,2,0,44,44,22,1,,,,,,,,,,,,,,,,,,,,,,,,,,,,,,,,,,,,,,,,,,,,,,,,,,,,,,,,,,,,,,,,,,,,,,
,,?,0.0018,0,,,,,,stimuli/images/PICTURE_32.png,LETTER,5df24aea4b49a115b41f0b3a,26/01/1953,2020-09-12_10h19.23.460,proactive3.2,2020.1.2,Win32,60,5f5adea66120081ea0f57a61,5f5c927e29ce9f4756541d79,1,,,,,,crown,,,,,,,,,,,6,2,0,45,45,56,1,,,,,,,,,,,,,,,,,,,,,,,,,,,,,,,,,,,,,,,,,,,,,,,,,,,,,,,,,,,,,,,,,,,,,,
,,?,0.00197,0,,,,,,stimuli/images/PICTURE_487.png,ROOF,5df24aea4b49a115b41f0b3a,26/01/1953,2020-09-12_10h19.23.460,proactive3.2,2020.1.2,Win32,60,5f5adea66120081ea0f57a61,5f5c927e29ce9f4756541d79,1,,,,,,basket,,,,,,,,,,,6,2,0,46,46,50,1,,,,,,,,,,,,,,,,,,,,,,,,,,,,,,,,,,,,,,,,,,,,,,,,,,,,,,,,,,,,,,,,,,,,,,
,,?,0.0014,0,,,,,,stimuli/images/PICTURE_95.png,NIGHT,5df24aea4b49a115b41f0b3a,26/01/1953,2020-09-12_10h19.23.460,proactive3.2,2020.1.2,Win32,60,5f5adea66120081ea0f57a61,5f5c927e29ce9f4756541d79,1,,,,,,suitcase,,,,,,,,,,,4,2,0,47,47,37,1,,,,,,,,,,,,,,,,,,,,,,,,,,,,,,,,,,,,,,,,,,,,,,,,,,,,,,,,,,,,,,,,,,,,,,
,,?,0.00134,0,,,,,,stimuli/images/PICTURE_654.png,YEAR,5df24aea4b49a115b41f0b3a,26/01/1953,2020-09-12_10h19.23.460,proactive3.2,2020.1.2,Win32,60,5f5adea66120081ea0f57a61,5f5c927e29ce9f4756541d79,1,,,,,,pencil,,,,,,,,,,,5,2,0,48,48,41,1,,,,,,,,,,,,,,,,,,,,,,,,,,,,,,,,,,,,,,,,,,,,,,,,,,,,,,,,,,,,,,,,,,,,,,
,,?,0.0014,0,,,,,,stimuli/images/PICTURE_2.png,YARD,5df24aea4b49a115b41f0b3a,26/01/1953,2020-09-12_10h19.23.460,proactive3.2,2020.1.2,Win32,60,5f5adea66120081ea0f57a61,5f5c927e29ce9f4756541d79,1,,,,,,tyre,,,,,,,,,,,6,2,0,49,49,55,1,,,,,,,,,,,,,,,,,,,,,,,,,,,,,,,,,,,,,,,,,,,,,,,,,,,,,,,,,,,,,,,,,,,,,,
,,COPS,4.58454,1,,,,,,stimuli/images/PICTURE_452.png,COPS,5df24aea4b49a115b41f0b3a,26/01/1953,2020-09-12_10h19.23.460,proactive3.2,2020.1.2,Win32,60,5f5adea66120081ea0f57a61,5f5c927e29ce9f4756541d79,1,,,,,,watch,,,,,,,,,,,1,2,0,50,50,0,1,,,,,,,,,,,,,,,,,,,,,,,,,,,,,,,,,,,,,,,,,,,,,,,,,,,,,,,,,,,,,,,,,,,,,,
,,?,0.00104,0,,,,,,stimuli/images/PICTURE_93.png,GIRL,5df24aea4b49a115b41f0b3a,26/01/1953,2020-09-12_10h19.23.460,proactive3.2,2020.1.2,Win32,60,5f5adea66120081ea0f57a61,5f5c927e29ce9f4756541d79,1,,,,,,skateboard,,,,,,,,,,,4,2,0,51,51,31,1,,,,,,,,,,,,,,,,,,,,,,,,,,,,,,,,,,,,,,,,,,,,,,,,,,,,,,,,,,,,,,,,,,,,,,
,,?,0.00057,0,,,,,,stimuli/images/PICTURE_750.png,POLICY,5df24aea4b49a115b41f0b3a,26/01/1953,2020-09-12_10h19.23.460,proactive3.2,2020.1.2,Win32,60,5f5adea66120081ea0f57a61,5f5c927e29ce9f4756541d79,1,,,,,,kettle,,,,,,,,,,,5,2,0,52,52,44,1,,,,,,,,,,,,,,,,,,,,,,,,,,,,,,,,,,,,,,,,,,,,,,,,,,,,,,,,,,,,,,,,,,,,,,
,,?,0.00058,0,,,,,,stimuli/images/PICTURE_57.png,CANDY,5df24aea4b49a115b41f0b3a,26/01/1953,2020-09-12_10h19.23.460,proactive3.2,2020.1.2,Win32,60,5f5adea66120081ea0f57a61,5f5c927e29ce9f4756541d79,1,,,,,,stamp,,,,,,,,,,,6,2,0,53,53,52,1,,,,,,,,,,,,,,,,,,,,,,,,,,,,,,,,,,,,,,,,,,,,,,,,,,,,,,,,,,,,,,,,,,,,,,
,,?,0.000655,0,,,,,,stimuli/images/PICTURE_470.png,BEAUTY,5df24aea4b49a115b41f0b3a,26/01/1953,2020-09-12_10h19.23.460,proactive3.2,2020.1.2,Win32,60,5f5adea66120081ea0f57a61,5f5c927e29ce9f4756541d79,1,,,,,,motorbike,,,,,,,,,,,3,2,0,54,54,26,1,,,,,,,,,,,,,,,,,,,,,,,,,,,,,,,,,,,,,,,,,,,,,,,,,,,,,,,,,,,,,,,,,,,,,,
,,?,0.000615,0,,,,,,stimuli/images/PICTURE_688.png,CLOCK,5df24aea4b49a115b41f0b3a,26/01/1953,2020-09-12_10h19.23.460,proactive3.2,2020.1.2,Win32,60,5f5adea66120081ea0f57a61,5f5c927e29ce9f4756541d79,1,,,,,,runner,,,,,,,,,,,5,2,0,55,55,42,1,,,,,,,,,,,,,,,,,,,,,,,,,,,,,,,,,,,,,,,,,,,,,,,,,,,,,,,,,,,,,,,,,,,,,,
,,?,0.000545,0,,,,,,stimuli/images/PICTURE_33.png,COPS,5df24aea4b49a115b41f0b3a,26/01/1953,2020-09-12_10h19.23.460,proactive3.2,2020.1.2,Win32,60,5f5adea66120081ea0f57a61,5f5c927e29ce9f4756541d79,1,,,,,,frame,,,,,,,,,,,3,2,0,56,56,29,1,,,,,,,,,,,,,,,,,,,,,,,,,,,,,,,,,,,,,,,,,,,,,,,,,,,,,,,,,,,,,,,,,,,,,,
,,?,0.00054,0,,,,,,stimuli/images/PICTURE_564.png,PLENTY,5df24aea4b49a115b41f0b3a,26/01/1953,2020-09-12_10h19.23.460,proactive3.2,2020.1.2,Win32,60,5f5adea66120081ea0f57a61,5f5c927e29ce9f4756541d79,1,,,,,,spoon,,,,,,,,,,,2,2,0,57,57,11,1,,,,,,,,,,,,,,,,,,,,,,,,,,,,,,,,,,,,,,,,,,,,,,,,,,,,,,,,,,,,,,,,,,,,,,
,,TOILET,4.146645,1,,,,,,stimuli/images/PICTURE_348.png,TOILET,5df24aea4b49a115b41f0b3a,26/01/1953,2020-09-12_10h19.23.460,proactive3.2,2020.1.2,Win32,60,5f5adea66120081ea0f57a61,5f5c927e29ce9f4756541d79,1,,,,,,pepper,,,,,,,,,,,1,2,0,58,58,4,1,,,,,,,,,,,,,,,,,,,,,,,,,,,,,,,,,,,,,,,,,,,,,,,,,,,,,,,,,,,,,,,,,,,,,,
,,?,0.001705,0,,,,,,stimuli/images/PICTURE_57.png,CASINO,5df24aea4b49a115b41f0b3a,26/01/1953,2020-09-12_10h19.23.460,proactive3.2,2020.1.2,Win32,60,5f5adea66120081ea0f57a61,5f5c927e29ce9f4756541d79,1,,,,,,stamp,,,,,,,,,,,2,2,0,59,59,12,1,,,,,,,,,,,,,,,,,,,,,,,,,,,,,,,,,,,,,,,,,,,,,,,,,,,,,,,,,,,,,,,,,,,,,,
,,,,,,,,,,,,5df24aea4b49a115b41f0b3a,26/01/1953,2020-09-12_10h19.23.460,proactive3.2,2020.1.2,Win32,60,5f5adea66120081ea0f57a61,5f5c927e29ce9f4756541d79,1,,,,,,,,,,,,,,,,,,,,,,,,0,1,1,2,1,stimuli/learn-block3.csv,,,,,,,,,,,,,,,,,,,,,,,,,,,,,,,,,,,,,,,,,,,,,,,,,,,,,,,,,,,,,,,,
,,,,,,,,,,stimuli/images/PICTURE_403.png,TOILET,5df24aea4b49a115b41f0b3a,26/01/1953,2020-09-12_10h19.23.460,proactive3.2,2020.1.2,Win32,60,5f5adea66120081ea0f57a61,5f5c927e29ce9f4756541d79,1,,,,,,cathedral,,,,,,0,0,0,25,1,3,1,,,,,,,,,,,,,,,,,,,,,,,,,,,,,,,,,,,,,,,,,,,,,,,,,,,,,,,,,,,,,,,,,,,,,,,,,,,
,,,,,,,,,,stimuli/images/PICTURE_327.png,SERIES,5df24aea4b49a115b41f0b3a,26/01/1953,2020-09-12_10h19.23.460,proactive3.2,2020.1.2,Win32,60,5f5adea66120081ea0f57a61,5f5c927e29ce9f4756541d79,1,,,,,,helmet,,,,,,0,1,1,3,1,1,1,,,,,,,,,,,,,,,,,,,,,,,,,,,,,,,,,,,,,,,,,,,,,,,,,,,,,,,,,,,,,,,,,,,,,,,,,,,
,,,,,,,,,,stimuli/images/PICTURE_405.png,PLENTY,5df24aea4b49a115b41f0b3a,26/01/1953,2020-09-12_10h19.23.460,proactive3.2,2020.1.2,Win32,60,5f5adea66120081ea0f57a61,5f5c927e29ce9f4756541d79,1,,,,,,anchor,,,,,,0,2,2,23,1,3,1,,,,,,,,,,,,,,,,,,,,,,,,,,,,,,,,,,,,,,,,,,,,,,,,,,,,,,,,,,,,,,,,,,,,,,,,,,,
,,,,,,,,,,stimuli/images/PICTURE_744.png,WEAPON,5df24aea4b49a115b41f0b3a,26/01/1953,2020-09-12_10h19.23.460,proactive3.2,2020.1.2,Win32,60,5f5adea66120081ea0f57a61,5f5c927e29ce9f4756541d79,1,,,,,,ring,,,,,,0,3,3,50,1,6,1,,,,,,,,,,,,,,,,,,,,,,,,,,,,,,,,,,,,,,,,,,,,,,,,,,,,,,,,,,,,,,,,,,,,,,,,,,,
,,,,,,,,,,stimuli/images/PICTURE_467.png,POLICY,5df24aea4b49a115b41f0b3a,26/01/1953,2020-09-12_10h19.23.460,proactive3.2,2020.1.2,Win32,60,5f5adea66120081ea0f57a61,5f5c927e29ce9f4756541d79,1,,,,,,peg,,,,,,0,4,4,53,1,6,1,,,,,,,,,,,,,,,,,,,,,,,,,,,,,,,,,,,,,,,,,,,,,,,,,,,,,,,,,,,,,,,,,,,,,,,,,,,
,,,,,,,,,,stimuli/images/PICTURE_339.png,CLIENT,5df24aea4b49a115b41f0b3a,26/01/1953,2020-09-12_10h19.23.460,proactive3.2,2020.1.2,Win32,60,5f5adea66120081ea0f57a61,5f5c927e29ce9f4756541d79,1,,,,,,backpack,,,,,,0,5,5,11,1,2,1,,,,,,,,,,,,,,,,,,,,,,,,,,,,,,,,,,,,,,,,,,,,,,,,,,,,,,,,,,,,,,,,,,,,,,,,,,,
,,,,,,,,,,stimuli/images/PICTURE_32.png,PILLS,5df24aea4b49a115b41f0b3a,26/01/1953,2020-09-12_10h19.23.460,proactive3.2,2020.1.2,Win32,60,5f5adea66120081ea0f57a61,5f5c927e29ce9f4756541d79,1,,,,,,crown,,,,,,0,6,6,18,1,2,1,,,,,,,,,,,,,,,,,,,,,,,,,,,,,,,,,,,,,,,,,,,,,,,,,,,,,,,,,,,,,,,,,,,,,,,,,,,
,,,,,,,,,,stimuli/images/PICTURE_383.png,SERIES,5df24aea4b49a115b41f0b3a,26/01/1953,2020-09-12_10h19.23.460,proactive3.2,2020.1.2,Win32,60,5f5adea66120081ea0f57a61,5f5c927e29ce9f4756541d79,1,,,,,,coin,,,,,,0,7,7,46,1,5,1,,,,,,,,,,,,,,,,,,,,,,,,,,,,,,,,,,,,,,,,,,,,,,,,,,,,,,,,,,,,,,,,,,,,,,,,,,,
,,,,,,,,,,stimuli/images/PICTURE_308.png,FAMILY,5df24aea4b49a115b41f0b3a,26/01/1953,2020-09-12_10h19.23.460,proactive3.2,2020.1.2,Win32,60,5f5adea66120081ea0f57a61,5f5c927e29ce9f4756541d79,1,,,,,,dice,,,,,,0,8,8,36,1,4,1,,,,,,,,,,,,,,,,,,,,,,,,,,,,,,,,,,,,,,,,,,,,,,,,,,,,,,,,,,,,,,,,,,,,,,,,,,,
,,,,,,,,,,stimuli/images/PICTURE_147.png,WOMEN,5df24aea4b49a115b41f0b3a,26/01/1953,2020-09-12_10h19.23.460,proactive3.2,2020.1.2,Win32,60,5f5adea66120081ea0f57a61,5f5c927e29ce9f4756541d79,1,,,,,,hanger,,,,,,0,9,9,7,1,1,1,,,,,,,,,,,,,,,,,,,,,,,,,,,,,,,,,,,,,,,,,,,,,,,,,,,,,,,,,,,,,,,,,,,,,,,,,,,
,,,,,,,,,,stimuli/images/PICTURE_383.png,WRITER,5df24aea4b49a115b41f0b3a,26/01/1953,2020-09-12_10h19.23.460,proactive3.2,2020.1.2,Win32,60,5f5adea66120081ea0f57a61,5f5c927e29ce9f4756541d79,1,,,,,,coin,,,,,,0,10,10,28,1,3,1,,,,,,,,,,,,,,,,,,,,,,,,,,,,,,,,,,,,,,,,,,,,,,,,,,,,,,,,,,,,,,,,,,,,,,,,,,,
,,,,,,,,,,stimuli/images/PICTURE_177.png,WRITER,5df24aea4b49a115b41f0b3a,26/01/1953,2020-09-12_10h19.23.460,proactive3.2,2020.1.2,Win32,60,5f5adea66120081ea0f57a61,5f5c927e29ce9f4756541d79,1,,,,,,mushroom,,,,,,0,11,11,41,1,5,1,,,,,,,,,,,,,,,,,,,,,,,,,,,,,,,,,,,,,,,,,,,,,,,,,,,,,,,,,,,,,,,,,,,,,,,,,,,
,,,,,,,,,,stimuli/images/PICTURE_380.png,CANDY,5df24aea4b49a115b41f0b3a,26/01/1953,2020-09-12_10h19.23.460,proactive3.2,2020.1.2,Win32,60,5f5adea66120081ea0f57a61,5f5c927e29ce9f4756541d79,1,,,,,,gorilla,,,,,,0,12,12,0,1,1,1,,,,,,,,,,,,,,,,,,,,,,,,,,,,,,,,,,,,,,,,,,,,,,,,,,,,,,,,,,,,,,,,,,,,,,,,,,,
,,,,,,,,,,stimuli/images/PICTURE_85.png,TOILET,5df24aea4b49a115b41f0b3a,26/01/1953,2020-09-12_10h19.23.460,proactive3.2,2020.1.2,Win32,60,5f5adea66120081ea0f57a61,5f5c927e29ce9f4756541d79,1,,,,,,diamond,,,,,,0,13,13,48,1,5,1,,,,,,,,,,,,,,,,,,,,,,,,,,,,,,,,,,,,,,,,,,,,,,,,,,,,,,,,,,,,,,,,,,,,,,,,,,,
,,,,,,,,,,stimuli/images/PICTURE_675.png,SALE,5df24aea4b49a115b41f0b3a,26/01/1953,2020-09-12_10h19.23.460,proactive3.2,2020.1.2,Win32,60,5f5adea66120081ea0f57a61,5f5c927e29ce9f4756541d79,1,,,,,,windmill,,,,,,0,14,14,47,1,5,1,,,,,,,,,,,,,,,,,,,,,,,,,,,,,,,,,,,,,,,,,,,,,,,,,,,,,,,,,,,,,,,,,,,,,,,,,,,
,,,,,,,,,,stimuli/images/PICTURE_147.png,YEAR,5df24aea4b49a115b41f0b3a,26/01/1953,2020-09-12_10h19.23.460,proactive3.2,2020.1.2,Win32,60,5f5adea66120081ea0f57a61,5f5c927e29ce9f4756541d79,1,,,,,,hanger,,,,,,0,15,15,21,1,3,1,,,,,,,,,,,,,,,,,,,,,,,,,,,,,,,,,,,,,,,,,,,,,,,,,,,,,,,,,,,,,,,,,,,,,,,,,,,
,,,,,,,,,,stimuli/images/PICTURE_667.png,RIVER,5df24aea4b49a115b41f0b3a,26/01/1953,2020-09-12_10h19.23.460,proactive3.2,2020.1.2,Win32,60,5f5adea66120081ea0f57a61,5f5c927e29ce9f4756541d79,1,,,,,,daisy,,,,,,0,16,16,10,1,2,1,,,,,,,,,,,,,,,,,,,,,,,,,,,,,,,,,,,,,,,,,,,,,,,,,,,,,,,,,,,,,,,,,,,,,,,,,,,
,,,,,,,,,,stimuli/images/PICTURE_203.png,GODS,5df24aea4b49a115b41f0b3a,26/01/1953,2020-09-12_10h19.23.460,proactive3.2,2020.1.2,Win32,60,5f5adea66120081ea0f57a61,5f5c927e29ce9f4756541d79,1,,,,,,cap,,,,,,0,17,17,30,1,4,1,,,,,,,,,,,,,,,,,,,,,,,,,,,,,,,,,,,,,,,,,,,,,,,,,,,,,,,,,,,,,,,,,,,,,,,,,,,
,,,,,,,,,,stimuli/images/PICTURE_95.png,BOYS,5df24aea4b49a115b41f0b3a,26/01/1953,2020-09-12_10h19.23.460,proactive3.2,2020.1.2,Win32,60,5f5adea66120081ea0f57a61,5f5c927e29ce9f4756541d79,1,,,,,,suitcase,,,,,,0,18,18,1,1,1,1,,,,,,,,,,,,,,,,,,,,,,,,,,,,,,,,,,,,,,,,,,,,,,,,,,,,,,,,,,,,,,,,,,,,,,,,,,,
,,,,,,,,,,stimuli/images/PICTURE_708.png,RECORD,5df24aea4b49a115b41f0b3a,26/01/1953,2020-09-12_10h19.23.460,proactive3.2,2020.1.2,Win32,60,5f5adea66120081ea0f57a61,5f5c927e29ce9f4756541d79,1,,,,,,monkey,,,,,,0,19,19,58,1,6,1,,,,,,,,,,,,,,,,,,,,,,,,,,,,,,,,,,,,,,,,,,,,,,,,,,,,,,,,,,,,,,,,,,,,,,,,,,,
,,,,,,,,,,stimuli/images/PICTURE_95.png,MILLER,5df24aea4b49a115b41f0b3a,26/01/1953,2020-09-12_10h19.23.460,proactive3.2,2020.1.2,Win32,60,5f5adea66120081ea0f57a61,5f5c927e29ce9f4756541d79,1,,,,,,suitcase,,,,,,0,20,20,56,1,6,1,,,,,,,,,,,,,,,,,,,,,,,,,,,,,,,,,,,,,,,,,,,,,,,,,,,,,,,,,,,,,,,,,,,,,,,,,,,
,,,,,,,,,,stimuli/images/PICTURE_403.png,WRITER,5df24aea4b49a115b41f0b3a,26/01/1953,2020-09-12_10h19.23.460,proactive3.2,2020.1.2,Win32,60,5f5adea66120081ea0f57a61,5f5c927e29ce9f4756541d79,1,,,,,,cathedral,,,,,,0,21,21,31,1,4,1,,,,,,,,,,,,,,,,,,,,,,,,,,,,,,,,,,,,,,,,,,,,,,,,,,,,,,,,,,,,,,,,,,,,,,,,,,,
,,,,,,,,,,stimuli/images/PICTURE_504.png,COPS,5df24aea4b49a115b41f0b3a,26/01/1953,2020-09-12_10h19.23.460,proactive3.2,2020.1.2,Win32,60,5f5adea66120081ea0f57a61,5f5c927e29ce9f4756541d79,1,,,,,,wheel,,,,,,0,22,22,52,1,6,1,,,,,,,,,,,,,,,,,,,,,,,,,,,,,,,,,,,,,,,,,,,,,,,,,,,,,,,,,,,,,,,,,,,,,,,,,,,
,,,,,,,,,,stimuli/images/PICTURE_32.png,KIND,5df24aea4b49a115b41f0b3a,26/01/1953,2020-09-12_10h19.23.460,proactive3.2,2020.1.2,Win32,60,5f5adea66120081ea0f57a61,5f5c927e29ce9f4756541d79,1,,,,,,crown,,,,,,0,23,23,35,1,4,1,,,,,,,,,,,,,,,,,,,,,,,,,,,,,,,,,,,,,,,,,,,,,,,,,,,,,,,,,,,,,,,,,,,,,,,,,,,
,,,,,,,,,,stimuli/images/PICTURE_57.png,MOMENT,5df24aea4b49a115b41f0b3a,26/01/1953,2020-09-12_10h19.23.460,proactive3.2,2020.1.2,Win32,60,5f5adea66120081ea0f57a61,5f5c927e29ce9f4756541d79,1,,,,,,stamp,,,,,,0,24,24,37,1,4,1,,,,,,,,,,,,,,,,,,,,,,,,,,,,,,,,,,,,,,,,,,,,,,,,,,,,,,,,,,,,,,,,,,,,,,,,,,,
,,,,,,,,,,stimuli/images/PICTURE_285.png,LIFE,5df24aea4b49a115b41f0b3a,26/01/1953,2020-09-12_10h19.23.460,proactive3.2,2020.1.2,Win32,60,5f5adea66120081ea0f57a61,5f5c927e29ce9f4756541d79,1,,,,,,carrot,,,,,,0,25,25,33,1,4,1,,,,,,,,,,,,,,,,,,,,,,,,,,,,,,,,,,,,,,,,,,,,,,,,,,,,,,,,,,,,,,,,,,,,,,,,,,,
,,,,,,,,,,stimuli/images/PICTURE_403.png,RIVER,5df24aea4b49a115b41f0b3a,26/01/1953,2020-09-12_10h19.23.460,proactive3.2,2020.1.2,Win32,60,5f5adea66120081ea0f57a61,5f5c927e29ce9f4756541d79,1,,,,,,cathedral,,,,,,0,26,26,40,1,5,1,,,,,,,,,,,,,,,,,,,,,,,,,,,,,,,,,,,,,,,,,,,,,,,,,,,,,,,,,,,,,,,,,,,,,,,,,,,
,,,,,,,,,,stimuli/images/PICTURE_68.png,ROOF,5df24aea4b49a115b41f0b3a,26/01/1953,2020-09-12_10h19.23.460,proactive3.2,2020.1.2,Win32,60,5f5adea66120081ea0f57a61,5f5c927e29ce9f4756541d79,1,,,,,,candle,,,,,,0,27,27,38,1,4,1,,,,,,,,,,,,,,,,,,,,,,,,,,,,,,,,,,,,,,,,,,,,,,,,,,,,,,,,,,,,,,,,,,,,,,,,,,,
,,,,,,,,,,stimuli/images/PICTURE_685.png,PENNY,5df24aea4b49a115b41f0b3a,26/01/1953,2020-09-12_10h19.23.460,proactive3.2,2020.1.2,Win32,60,5f5adea66120081ea0f57a61,5f5c927e29ce9f4756541d79,1,,,,,,goose,,,,,,0,28,28,4,1,1,1,,,,,,,,,,,,,,,,,,,,,,,,,,,,,,,,,,,,,,,,,,,,,,,,,,,,,,,,,,,,,,,,,,,,,,,,,,,
,,,,,,,,,,stimuli/images/PICTURE_655.png,TOILET,5df24aea4b49a115b41f0b3a,26/01/1953,2020-09-12_10h19.23.460,proactive3.2,2020.1.2,Win32,60,5f5adea66120081ea0f57a61,5f5c927e29ce9f4756541d79,1,,,,,,megaphone,,,,,,0,29,29,12,1,2,1,,,,,,,,,,,,,,,,,,,,,,,,,,,,,,,,,,,,,,,,,,,,,,,,,,,,,,,,,,,,,,,,,,,,,,,,,,,
,,,,,,,,,,stimuli/images/PICTURE_108.png,POLICY,5df24aea4b49a115b41f0b3a,26/01/1953,2020-09-12_10h19.23.460,proactive3.2,2020.1.2,Win32,60,5f5adea66120081ea0f57a61,5f5c927e29ce9f4756541d79,1,,,,,,calendar,,,,,,0,30,30,22,1,3,1,,,,,,,,,,,,,,,,,,,,,,,,,,,,,,,,,,,,,,,,,,,,,,,,,,,,,,,,,,,,,,,,,,,,,,,,,,,
,,,,,,,,,,stimuli/images/PICTURE_469.png,AGENT,5df24aea4b49a115b41f0b3a,26/01/1953,2020-09-12_10h19.23.460,proactive3.2,2020.1.2,Win32,60,5f5adea66120081ea0f57a61,5f5c927e29ce9f4756541d79,1,,,,,,stool,,,,,,0,31,31,16,1,2,1,,,,,,,,,,,,,,,,,,,,,,,,,,,,,,,,,,,,,,,,,,,,,,,,,,,,,,,,,,,,,,,,,,,,,,,,,,,
,,,,,,,,,,stimuli/images/PICTURE_33.png,FRIEND,5df24aea4b49a115b41f0b3a,26/01/1953,2020-09-12_10h19.23.460,proactive3.2,2020.1.2,Win32,60,5f5adea66120081ea0f57a61,5f5c927e29ce9f4756541d79,1,,,,,,frame,,,,,,0,32,32,8,1,1,1,,,,,,,,,,,,,,,,,,,,,,,,,,,,,,,,,,,,,,,,,,,,,,,,,,,,,,,,,,,,,,,,,,,,,,,,,,,
,,,,,,,,,,stimuli/images/PICTURE_296.png,LIFE,5df24aea4b49a115b41f0b3a,26/01/1953,2020-09-12_10h19.23.460,proactive3.2,2020.1.2,Win32,60,5f5adea66120081ea0f57a61,5f5c927e29ce9f4756541d79,1,,,,,,bolt,,,,,,0,33,33,57,1,6,1,,,,,,,,,,,,,,,,,,,,,,,,,,,,,,,,,,,,,,,,,,,,,,,,,,,,,,,,,,,,,,,,,,,,,,,,,,,
,,,,,,,,,,stimuli/images/PICTURE_327.png,CASINO,5df24aea4b49a115b41f0b3a,26/01/1953,2020-09-12_10h19.23.460,proactive3.2,2020.1.2,Win32,60,5f5adea66120081ea0f57a61,5f5c927e29ce9f4756541d79,1,,,,,,helmet,,,,,,0,34,34,20,1,3,1,,,,,,,,,,,,,,,,,,,,,,,,,,,,,,,,,,,,,,,,,,,,,,,,,,,,,,,,,,,,,,,,,,,,,,,,,,,
,,,,,,,,,,stimuli/images/PICTURE_504.png,YEAR,5df24aea4b49a115b41f0b3a,26/01/1953,2020-09-12_10h19.23.460,proactive3.2,2020.1.2,Win32,60,5f5adea66120081ea0f57a61,5f5c927e29ce9f4756541d79,1,,,,,,wheel,,,,,,0,35,35,13,1,2,1,,,,,,,,,,,,,,,,,,,,,,,,,,,,,,,,,,,,,,,,,,,,,,,,,,,,,,,,,,,,,,,,,,,,,,,,,,,
,,,,,,,,,,stimuli/images/PICTURE_2.png,FLIGHT,5df24aea4b49a115b41f0b3a,26/01/1953,2020-09-12_10h19.23.460,proactive3.2,2020.1.2,Win32,60,5f5adea66120081ea0f57a61,5f5c927e29ce9f4756541d79,1,,,,,,tyre,,,,,,0,36,36,15,1,2,1,,,,,,,,,,,,,,,,,,,,,,,,,,,,,,,,,,,,,,,,,,,,,,,,,,,,,,,,,,,,,,,,,,,,,,,,,,,
,,,,,,,,,,stimuli/images/PICTURE_85.png,NATION,5df24aea4b49a115b41f0b3a,26/01/1953,2020-09-12_10h19.23.460,proactive3.2,2020.1.2,Win32,60,5f5adea66120081ea0f57a61,5f5c927e29ce9f4756541d79,1,,,,,,diamond,,,,,,0,37,37,5,1,1,1,,,,,,,,,,,,,,,,,,,,,,,,,,,,,,,,,,,,,,,,,,,,,,,,,,,,,,,,,,,,,,,,,,,,,,,,,,,
,,,,,,,,,,stimuli/images/PICTURE_42.png,BOYS,5df24aea4b49a115b41f0b3a,26/01/1953,2020-09-12_10h19.23.460,proactive3.2,2020.1.2,Win32,60,5f5adea66120081ea0f57a61,5f5c927e29ce9f4756541d79,1,,,,,,pear,,,,,,0,38,38,55,1,6,1,,,,,,,,,,,,,,,,,,,,,,,,,,,,,,,,,,,,,,,,,,,,,,,,,,,,,,,,,,,,,,,,,,,,,,,,,,,
,,,,,,,,,,stimuli/images/PICTURE_654.png,MONTH,5df24aea4b49a115b41f0b3a,26/01/1953,2020-09-12_10h19.23.460,proactive3.2,2020.1.2,Win32,60,5f5adea66120081ea0f57a61,5f5c927e29ce9f4756541d79,1,,,,,,pencil,,,,,,0,39,39,29,1,3,1,,,,,,,,,,,,,,,,,,,,,,,,,,,,,,,,,,,,,,,,,,,,,,,,,,,,,,,,,,,,,,,,,,,,,,,,,,,
,,,,,,,,,,stimuli/images/PICTURE_233.png,LOTS,5df24aea4b49a115b41f0b3a,26/01/1953,2020-09-12_10h19.23.460,proactive3.2,2020.1.2,Win32,60,5f5adea66120081ea0f57a61,5f5c927e29ce9f4756541d79,1,,,,,,salt,,,,,,0,40,40,42,1,5,1,,,,,,,,,,,,,,,,,,,,,,,,,,,,,,,,,,,,,,,,,,,,,,,,,,,,,,,,,,,,,,,,,,,,,,,,,,,
,,,,,,,,,,stimuli/images/PICTURE_108.png,FLIGHT,5df24aea4b49a115b41f0b3a,26/01/1953,2020-09-12_10h19.23.460,proactive3.2,2020.1.2,Win32,60,5f5adea66120081ea0f57a61,5f5c927e29ce9f4756541d79,1,,,,,,calendar,,,,,,0,41,41,59,1,6,1,,,,,,,,,,,,,,,,,,,,,,,,,,,,,,,,,,,,,,,,,,,,,,,,,,,,,,,,,,,,,,,,,,,,,,,,,,,
,,,,,,,,,,stimuli/images/PICTURE_208.png,SYSTEM,5df24aea4b49a115b41f0b3a,26/01/1953,2020-09-12_10h19.23.460,proactive3.2,2020.1.2,Win32,60,5f5adea66120081ea0f57a61,5f5c927e29ce9f4756541d79,1,,,,,,microphone,,,,,,0,42,42,32,1,4,1,,,,,,,,,,,,,,,,,,,,,,,,,,,,,,,,,,,,,,,,,,,,,,,,,,,,,,,,,,,,,,,,,,,,,,,,,,,
,,,,,,,,,,stimuli/images/PICTURE_564.png,BATH,5df24aea4b49a115b41f0b3a,26/01/1953,2020-09-12_10h19.23.460,proactive3.2,2020.1.2,Win32,60,5f5adea66120081ea0f57a61,5f5c927e29ce9f4756541d79,1,,,,,,spoon,,,,,,0,43,43,26,1,3,1,,,,,,,,,,,,,,,,,,,,,,,,,,,,,,,,,,,,,,,,,,,,,,,,,,,,,,,,,,,,,,,,,,,,,,,,,,,
,,,,,,,,,,stimuli/images/PICTURE_405.png,YEAR,5df24aea4b49a115b41f0b3a,26/01/1953,2020-09-12_10h19.23.460,proactive3.2,2020.1.2,Win32,60,5f5adea66120081ea0f57a61,5f5c927e29ce9f4756541d79,1,,,,,,anchor,,,,,,0,44,44,34,1,4,1,,,,,,,,,,,,,,,,,,,,,,,,,,,,,,,,,,,,,,,,,,,,,,,,,,,,,,,,,,,,,,,,,,,,,,,,,,,
,,,,,,,,,,stimuli/images/PICTURE_296.png,LOTS,5df24aea4b49a115b41f0b3a,26/01/1953,2020-09-12_10h19.23.460,proactive3.2,2020.1.2,Win32,60,5f5adea66120081ea0f57a61,5f5c927e29ce9f4756541d79,1,,,,,,bolt,,,,,,0,45,45,9,1,1,1,,,,,,,,,,,,,,,,,,,,,,,,,,,,,,,,,,,,,,,,,,,,,,,,,,,,,,,,,,,,,,,,,,,,,,,,,,,
,,,,,,,,,,stimuli/images/PICTURE_491.png,GLASS,5df24aea4b49a115b41f0b3a,26/01/1953,2020-09-12_10h19.23.460,proactive3.2,2020.1.2,Win32,60,5f5adea66120081ea0f57a61,5f5c927e29ce9f4756541d79,1,,,,,,rug,,,,,,0,46,46,14,1,2,1,,,,,,,,,,,,,,,,,,,,,,,,,,,,,,,,,,,,,,,,,,,,,,,,,,,,,,,,,,,,,,,,,,,,,,,,,,,
,,,,,,,,,,stimuli/images/PICTURE_297.png,RIVER,5df24aea4b49a115b41f0b3a,26/01/1953,2020-09-12_10h19.23.460,proactive3.2,2020.1.2,Win32,60,5f5adea66120081ea0f57a61,5f5c927e29ce9f4756541d79,1,,,,,,aeroplane,,,,,,0,47,47,39,1,4,1,,,,,,,,,,,,,,,,,,,,,,,,,,,,,,,,,,,,,,,,,,,,,,,,,,,,,,,,,,,,,,,,,,,,,,,,,,,
,,,,,,,,,,stimuli/images/PICTURE_750.png,HOTEL,5df24aea4b49a115b41f0b3a,26/01/1953,2020-09-12_10h19.23.460,proactive3.2,2020.1.2,Win32,60,5f5adea66120081ea0f57a61,5f5c927e29ce9f4756541d79,1,,,,,,kettle,,,,,,0,48,48,27,1,3,1,,,,,,,,,,,,,,,,,,,,,,,,,,,,,,,,,,,,,,,,,,,,,,,,,,,,,,,,,,,,,,,,,,,,,,,,,,,
,,,,,,,,,,stimuli/images/PICTURE_203.png,NIGHT,5df24aea4b49a115b41f0b3a,26/01/1953,2020-09-12_10h19.23.460,proactive3.2,2020.1.2,Win32,60,5f5adea66120081ea0f57a61,5f5c927e29ce9f4756541d79,1,,,,,,cap,,,,,,0,49,49,2,1,1,1,,,,,,,,,,,,,,,,,,,,,,,,,,,,,,,,,,,,,,,,,,,,,,,,,,,,,,,,,,,,,,,,,,,,,,,,,,,
,,,,,,,,,,stimuli/images/PICTURE_95.png,HONEY,5df24aea4b49a115b41f0b3a,26/01/1953,2020-09-12_10h19.23.460,proactive3.2,2020.1.2,Win32,60,5f5adea66120081ea0f57a61,5f5c927e29ce9f4756541d79,1,,,,,,suitcase,,,,,,0,50,50,44,1,5,1,,,,,,,,,,,,,,,,,,,,,,,,,,,,,,,,,,,,,,,,,,,,,,,,,,,,,,,,,,,,,,,,,,,,,,,,,,,
,,,,,,,,,,stimuli/images/PICTURE_380.png,HONEY,5df24aea4b49a115b41f0b3a,26/01/1953,2020-09-12_10h19.23.460,proactive3.2,2020.1.2,Win32,60,5f5adea66120081ea0f57a61,5f5c927e29ce9f4756541d79,1,,,,,,gorilla,,,,,,0,51,51,19,1,2,1,,,,,,,,,,,,,,,,,,,,,,,,,,,,,,,,,,,,,,,,,,,,,,,,,,,,,,,,,,,,,,,,,,,,,,,,,,,
,,,,,,,,,,stimuli/images/PICTURE_677.png,APPLE,5df24aea4b49a115b41f0b3a,26/01/1953,2020-09-12_10h19.23.460,proactive3.2,2020.1.2,Win32,60,5f5adea66120081ea0f57a61,5f5c927e29ce9f4756541d79,1,,,,,,map,,,,,,0,52,52,43,1,5,1,,,,,,,,,,,,,,,,,,,,,,,,,,,,,,,,,,,,,,,,,,,,,,,,,,,,,,,,,,,,,,,,,,,,,,,,,,,
,,,,,,,,,,stimuli/images/PICTURE_491.png,RIVER,5df24aea4b49a115b41f0b3a,26/01/1953,2020-09-12_10h19.23.460,proactive3.2,2020.1.2,Win32,60,5f5adea66120081ea0f57a61,5f5c927e29ce9f4756541d79,1,,,,,,rug,,,,,,0,53,53,6,1,1,1,,,,,,,,,,,,,,,,,,,,,,,,,,,,,,,,,,,,,,,,,,,,,,,,,,,,,,,,,,,,,,,,,,,,,,,,,,,
,,,,,,,,,,stimuli/images/PICTURE_449.png,DUDE,5df24aea4b49a115b41f0b3a,26/01/1953,2020-09-12_10h19.23.460,proactive3.2,2020.1.2,Win32,60,5f5adea66120081ea0f57a61,5f5c927e29ce9f4756541d79,1,,,,,,bench,,,,,,0,54,54,17,1,2,1,,,,,,,,,,,,,,,,,,,,,,,,,,,,,,,,,,,,,,,,,,,,,,,,,,,,,,,,,,,,,,,,,,,,,,,,,,,
,,,,,,,,,,stimuli/images/PICTURE_504.png,ARTIST,5df24aea4b49a115b41f0b3a,26/01/1953,2020-09-12_10h19.23.460,proactive3.2,2020.1.2,Win32,60,5f5adea66120081ea0f57a61,5f5c927e29ce9f4756541d79,1,,,,,,wheel,,,,,,0,55,55,49,1,5,1,,,,,,,,,,,,,,,,,,,,,,,,,,,,,,,,,,,,,,,,,,,,,,,,,,,,,,,,,,,,,,,,,,,,,,,,,,,
,,,,,,,,,,stimuli/images/PICTURE_340.png,VALLEY,5df24aea4b49a115b41f0b3a,26/01/1953,2020-09-12_10h19.23.460,proactive3.2,2020.1.2,Win32,60,5f5adea66120081ea0f57a61,5f5c927e29ce9f4756541d79,1,,,,,,mirror,,,,,,0,56,56,54,1,6,1,,,,,,,,,,,,,,,,,,,,,,,,,,,,,,,,,,,,,,,,,,,,,,,,,,,,,,,,,,,,,,,,,,,,,,,,,,,
,,,,,,,,,,stimuli/images/PICTURE_68.png,MILE,5df24aea4b49a115b41f0b3a,26/01/1953,2020-09-12_10h19.23.460,proactive3.2,2020.1.2,Win32,60,5f5adea66120081ea0f57a61,5f5c927e29ce9f4756541d79,1,,,,,,candle,,,,,,0,57,57,51,1,6,1,,,,,,,,,,,,,,,,,,,,,,,,,,,,,,,,,,,,,,,,,,,,,,,,,,,,,,,,,,,,,,,,,,,,,,,,,,,
,,,,,,,,,,stimuli/images/PICTURE_340.png,LETTER,5df24aea4b49a115b41f0b3a,26/01/1953,2020-09-12_10h19.23.460,proactive3.2,2020.1.2,Win32,60,5f5adea66120081ea0f57a61,5f5c927e29ce9f4756541d79,1,,,,,,mirror,,,,,,0,58,58,24,1,3,1,,,,,,,,,,,,,,,,,,,,,,,,,,,,,,,,,,,,,,,,,,,,,,,,,,,,,,,,,,,,,,,,,,,,,,,,,,,
,,RIVER,3.46159,1,,,,,,stimuli/images/PICTURE_491.png,RIVER,5df24aea4b49a115b41f0b3a,26/01/1953,2020-09-12_10h19.23.460,proactive3.2,2020.1.2,Win32,60,5f5adea66120081ea0f57a61,5f5c927e29ce9f4756541d79,1,,,,,,rug,,,,,,,,,,,1,1,0,0,0,6,1,,,,,,,,,,,,,,,,,,,,,,,,,,,,,,,,,,,,,,,,,,,,,,,,,,,,,,,,,,,,,,,,,,,,,,
,,WORLD,6.04829,0,,,,,,stimuli/images/PICTURE_85.png,NATION,5df24aea4b49a115b41f0b3a,26/01/1953,2020-09-12_10h19.23.460,proactive3.2,2020.1.2,Win32,60,5f5adea66120081ea0f57a61,5f5c927e29ce9f4756541d79,1,,,,,,diamond,,,,,,,,,,,1,1,0,1,1,5,1,,,,,,,,,,,,,,,,,,,,,,,,,,,,,,,,,,,,,,,,,,,,,,,,,,,,,,,,,,,,,,,,,,,,,,
,,?,0.001075,0,,,,,,stimuli/images/PICTURE_403.png,WRITER,5df24aea4b49a115b41f0b3a,26/01/1953,2020-09-12_10h19.23.460,proactive3.2,2020.1.2,Win32,60,5f5adea66120081ea0f57a61,5f5c927e29ce9f4756541d79,1,,,,,,cathedral,,,,,,,,,,,4,1,0,2,2,31,1,,,,,,,,,,,,,,,,,,,,,,,,,,,,,,,,,,,,,,,,,,,,,,,,,,,,,,,,,,,,,,,,,,,,,,
,,?,0.00084,0,,,,,,stimuli/images/PICTURE_42.png,BOYS,5df24aea4b49a115b41f0b3a,26/01/1953,2020-09-12_10h19.23.460,proactive3.2,2020.1.2,Win32,60,5f5adea66120081ea0f57a61,5f5c927e29ce9f4756541d79,1,,,,,,pear,,,,,,,,,,,6,1,0,3,3,55,1,,,,,,,,,,,,,,,,,,,,,,,,,,,,,,,,,,,,,,,,,,,,,,,,,,,,,,,,,,,,,,,,,,,,,,
,,?,0.00082,0,,,,,,stimuli/images/PICTURE_85.png,TOILET,5df24aea4b49a115b41f0b3a,26/01/1953,2020-09-12_10h19.23.460,proactive3.2,2020.1.2,Win32,60,5f5adea66120081ea0f57a61,5f5c927e29ce9f4756541d79,1,,,,,,diamond,,,,,,,,,,,5,1,0,4,4,48,1,,,,,,,,,,,,,,,,,,,,,,,,,,,,,,,,,,,,,,,,,,,,,,,,,,,,,,,,,,,,,,,,,,,,,,
,,?,0.000805,0,,,,,,stimuli/images/PICTURE_383.png,SERIES,5df24aea4b49a115b41f0b3a,26/01/1953,2020-09-12_10h19.23.460,proactive3.2,2020.1.2,Win32,60,5f5adea66120081ea0f57a61,5f5c927e29ce9f4756541d79,1,,,,,,coin,,,,,,,,,,,5,1,0,5,5,46,1,,,,,,,,,,,,,,,,,,,,,,,,,,,,,,,,,,,,,,,,,,,,,,,,,,,,,,,,,,,,,,,,,,,,,,
,,NIGHT,2.29478,1,,,,,,stimuli/images/PICTURE_203.png,NIGHT,5df24aea4b49a115b41f0b3a,26/01/1953,2020-09-12_10h19.23.460,proactive3.2,2020.1.2,Win32,60,5f5adea66120081ea0f57a61,5f5c927e29ce9f4756541d79,1,,,,,,cap,,,,,,,,,,,1,1,0,6,6,2,1,,,,,,,,,,,,,,,,,,,,,,,,,,,,,,,,,,,,,,,,,,,,,,,,,,,,,,,,,,,,,,,,,,,,,,
,,?,0.0017,0,,,,,,stimuli/images/PICTURE_108.png,POLICY,5df24aea4b49a115b41f0b3a,26/01/1953,2020-09-12_10h19.23.460,proactive3.2,2020.1.2,Win32,60,5f5adea66120081ea0f57a61,5f5c927e29ce9f4756541d79,1,,,,,,calendar,,,,,,,,,,,3,1,0,7,7,22,1,,,,,,,,,,,,,,,,,,,,,,,,,,,,,,,,,,,,,,,,,,,,,,,,,,,,,,,,,,,,,,,,,,,,,,
,,?,0.00143,0,,,,,,stimuli/images/PICTURE_208.png,SYSTEM,5df24aea4b49a115b41f0b3a,26/01/1953,2020-09-12_10h19.23.460,proactive3.2,2020.1.2,Win32,60,5f5adea66120081ea0f57a61,5f5c927e29ce9f4756541d79,1,,,,,,microphone,,,,,,,,,,,4,1,0,8,8,32,1,,,,,,,,,,,,,,,,,,,,,,,,,,,,,,,,,,,,,,,,,,,,,,,,,,,,,,,,,,,,,,,,,,,,,,
,,?,0.006885,0,,,,,,stimuli/images/PICTURE_32.png,KIND,5df24aea4b49a115b41f0b3a,26/01/1953,2020-09-12_10h19.23.460,proactive3.2,2020.1.2,Win32,60,5f5adea66120081ea0f57a61,5f5c927e29ce9f4756541d79,1,,,,,,crown,,,,,,,,,,,4,1,0,9,9,35,1,,,,,,,,,,,,,,,,,,,,,,,,,,,,,,,,,,,,,,,,,,,,,,,,,,,,,,,,,,,,,,,,,,,,,,
,,?,0.000845,0,,,,,,stimuli/images/PICTURE_340.png,LETTER,5df24aea4b49a115b41f0b3a,26/01/1953,2020-09-12_10h19.23.460,proactive3.2,2020.1.2,Win32,60,5f5adea66120081ea0f57a61,5f5c927e29ce9f4756541d79,1,,,,,,mirror,,,,,,,,,,,3,1,0,10,10,24,1,,,,,,,,,,,,,,,,,,,,,,,,,,,,,,,,,,,,,,,,,,,,,,,,,,,,,,,,,,,,,,,,,,,,,,
,,?,0.00082,0,,,,,,stimuli/images/PICTURE_108.png,FLIGHT,5df24aea4b49a115b41f0b3a,26/01/1953,2020-09-12_10h19.23.460,proactive3.2,2020.1.2,Win32,60,5f5adea66120081ea0f57a61,5f5c927e29ce9f4756541d79,1,,,,,,calendar,,,,,,,,,,,6,1,0,11,11,59,1,,,,,,,,,,,,,,,,,,,,,,,,,,,,,,,,,,,,,,,,,,,,,,,,,,,,,,,,,,,,,,,,,,,,,,
,,?,0.00083,0,,,,,,stimuli/images/PICTURE_491.png,GLASS,5df24aea4b49a115b41f0b3a,26/01/1953,2020-09-12_10h19.23.460,proactive3.2,2020.1.2,Win32,60,5f5adea66120081ea0f57a61,5f5c927e29ce9f4756541d79,1,,,,,,rug,,,,,,,,,,,2,1,0,12,12,14,1,,,,,,,,,,,,,,,,,,,,,,,,,,,,,,,,,,,,,,,,,,,,,,,,,,,,,,,,,,,,,,,,,,,,,,
,,?,0.00079,0,,,,,,stimuli/images/PICTURE_95.png,MILLER,5df24aea4b49a115b41f0b3a,26/01/1953,2020-09-12_10h19.23.460,proactive3.2,2020.1.2,Win32,60,5f5adea66120081ea0f57a61,5f5c927e29ce9f4756541d79,1,,,,,,suitcase,,,,,,,,,,,6,1,0,13,13,56,1,,,,,,,,,,,,,,,,,,,,,,,,,,,,,,,,,,,,,,,,,,,,,,,,,,,,,,,,,,,,,,,,,,,,,,
