consent_key.keys,consent_key.rt,recalled,recalled_rt,recall_acc,example_recall.thisRepN,example_recall.thisTrialN,example_recall.thisN,example_recall.thisIndex,example_recall.ran,file,word,participant,please enter your date of birth (dd/mm/yyyy),date,expName,psychopyVersion,OS,frameRate,STUDY_ID,SESSION_ID,list,prac_learn_study_loop.thisRepN,prac_learn_study_loop.thisTrialN,prac_learn_study_loop.thisN,prac_learn_study_loop.thisIndex,prac_learn_study_loop.ran,image,prac_learn_test_loop.thisRepN,prac_learn_test_loop.thisTrialN,prac_learn_test_loop.thisN,prac_learn_test_loop.thisIndex,prac_learn_test_loop.ran,learn_study_loop.thisRepN,learn_study_loop.thisTrialN,learn_study_loop.thisN,learn_study_loop.thisIndex,learn_study_loop.ran,list_no,block_no,learn_test_loop.thisRepN,learn_test_loop.thisTrialN,learn_test_loop.thisN,learn_test_loop.thisIndex,learn_test_loop.ran,learn_blocks.thisRepN,learn_blocks.thisTrialN,learn_blocks.thisN,learn_blocks.thisIndex,learn_blocks.ran,block_csv,key_resp_13.keys,key_resp_13.rt,learn_blocks_loop.thisRepN,learn_blocks_loop.thisTrialN,learn_blocks_loop.thisN,learn_blocks_loop.thisIndex,learn_blocks_loop.ran,final_learn_test.thisRepN,final_learn_test.thisTrialN,final_learn_test.thisN,final_learn_test.thisIndex,final_learn_test.ran,prac_wm_test_loop.thisRepN,prac_wm_test_loop.thisTrialN,prac_wm_test_loop.thisN,prac_wm_test_loop.thisIndex,prac_wm_test_loop.ran,wm_recalled1,wm_recall_rt1,wm_probed1,wm_recall_acc1,wm_recalled2,wm_recall_rt2,wm_probed2,wm_recall_acc2,wm_recalled3,wm_recall_rt3,wm_probed3,wm_recall_acc3,wm_recalled4,wm_recall_rt4,wm_probed4,wm_recall_acc4,prac_wm_trial_loop.thisRepN,prac_wm_trial_loop.thisTrialN,prac_wm_trial_loop.thisN,prac_wm_trial_loop.thisIndex,prac_wm_trial_loop.ran,word1,image1,file1,item_type1,word2,image2,file2,item_type2,word4,image4,file4,item_type4,word3,image3,file3,item_type3,wm_test_loop.thisRepN,wm_test_loop.thisTrialN,wm_test_loop.thisN,wm_test_loop.thisIndex,wm_test_loop.ran,wm_trial_loop.thisRepN,wm_trial_loop.thisTrialN,wm_trial_loop.thisN,wm_trial_loop.thisIndex,wm_trial_loop.ran
y,27.847295,TOUGH,2.751715,1,0,0,0,0,1,stimuli/images/PICTURE_747.png,TOUGH,5e307cef0effe1000c01d541,10/09/1998,2020-08-27_09h39.40.213,proactive3.2,2020.1.2,MacIntel,60,5f47c0b9b035471e11593a5c,5f47c5854f5ff41f2b8b0093,1,,,,,,,,,,,,,,,,,,,,,,,,,,,,,,,,,,,,,,,,,,,,,,,,,,,,,,,,,,,,,,,,,,,,,,,,,,,,,,,,,,,,,,,,,,,,,
,,,,,,,,,,stimuli/images/PICTURE_269.png,GENIUS,5e307cef0effe1000c01d541,10/09/1998,2020-08-27_09h39.40.213,proactive3.2,2020.1.2,MacIntel,60,5f47c0b9b035471e11593a5c,5f47c5854f5ff41f2b8b0093,1,0,0,0,0,1,chameleon,,,,,,,,,,,,,,,,,,,,,,,,,,,,,,,,,,,,,,,,,,,,,,,,,,,,,,,,,,,,,,,,,,,,,,,,,,,,,,,,,,,,,,,
,,,,,,,,,,stimuli/images/PICTURE_697.png,KILLER,5e307cef0effe1000c01d541,10/09/1998,2020-08-27_09h39.40.213,proactive3.2,2020.1.2,MacIntel,60,5f47c0b9b035471e11593a5c,5f47c5854f5ff41f2b8b0093,1,0,1,1,4,1,peach,,,,,,,,,,,,,,,,,,,,,,,,,,,,,,,,,,,,,,,,,,,,,,,,,,,,,,,,,,,,,,,,,,,,,,,,,,,,,,,,,,,,,,,
,,,,,,,,,,stimuli/images/PICTURE_378.png,LOSS,5e307cef0effe1000c01d541,10/09/1998,2020-08-27_09h39.40.213,proactive3.2,2020.1.2,MacIntel,60,5f47c0b9b035471e11593a5c,5f47c5854f5ff41f2b8b0093,1,0,2,2,2,1,lobster,,,,,,,,,,,,,,,,,,,,,,,,,,,,,,,,,,,,,,,,,,,,,,,,,,,,,,,,,,,,,,,,,,,,,,,,,,,,,,,,,,,,,,,
,,,,,,,,,,stimuli/images/PICTURE_727.png,CELL,5e307cef0effe1000c01d541,10/09/1998,2020-08-27_09h39.40.213,proactive3.2,2020.1.2,MacIntel,60,5f47c0b9b035471e11593a5c,5f47c5854f5ff41f2b8b0093,1,0,3,3,1,1,hose,,,,,,,,,,,,,,,,,,,,,,,,,,,,,,,,,,,,,,,,,,,,,,,,,,,,,,,,,,,,,,,,,,,,,,,,,,,,,,,,,,,,,,,
,,LOSS,15.009535,0,,,,,,stimuli/images/PICTURE_697.png,KILLER,5e307cef0effe1000c01d541,10/09/1998,2020-08-27_09h39.40.213,proactive3.2,2020.1.2,MacIntel,60,5f47c0b9b035471e11593a5c,5f47c5854f5ff41f2b8b0093,1,,,,,,peach,0,0,0,4,1,,,,,,,,,,,,,,,,,,,,,,,,,,,,,,,,,,,,,,,,,,,,,,,,,,,,,,,,,,,,,,,,,,,,,,,,,,,,,,,,,,
,,GENIUS,10.22622,1,,,,,,stimuli/images/PICTURE_269.png,GENIUS,5e307cef0effe1000c01d541,10/09/1998,2020-08-27_09h39.40.213,proactive3.2,2020.1.2,MacIntel,60,5f47c0b9b035471e11593a5c,5f47c5854f5ff41f2b8b0093,1,,,,,,chameleon,0,1,1,0,1,,,,,,,,,,,,,,,,,,,,,,,,,,,,,,,,,,,,,,,,,,,,,,,,,,,,,,,,,,,,,,,,,,,,,,,,,,,,,,,,,,
,,LOSS,2.333115,1,,,,,,stimuli/images/PICTURE_378.png,LOSS,5e307cef0effe1000c01d541,10/09/1998,2020-08-27_09h39.40.213,proactive3.2,2020.1.2,MacIntel,60,5f47c0b9b035471e11593a5c,5f47c5854f5ff41f2b8b0093,1,,,,,,lobster,0,2,2,2,1,,,,,,,,,,,,,,,,,,,,,,,,,,,,,,,,,,,,,,,,,,,,,,,,,,,,,,,,,,,,,,,,,,,,,,,,,,,,,,,,,,
,,DEVIL,3.13903,1,,,,,,stimuli/images/PICTURE_658.png,DEVIL,5e307cef0effe1000c01d541,10/09/1998,2020-08-27_09h39.40.213,proactive3.2,2020.1.2,MacIntel,60,5f47c0b9b035471e11593a5c,5f47c5854f5ff41f2b8b0093,1,,,,,,crow,0,3,3,3,1,,,,,,,,,,,,,,,,,,,,,,,,,,,,,,,,,,,,,,,,,,,,,,,,,,,,,,,,,,,,,,,,,,,,,,,,,,,,,,,,,,
,,CELL,2.103975,1,,,,,,stimuli/images/PICTURE_727.png,CELL,5e307cef0effe1000c01d541,10/09/1998,2020-08-27_09h39.40.213,proactive3.2,2020.1.2,MacIntel,60,5f47c0b9b035471e11593a5c,5f47c5854f5ff41f2b8b0093,1,,,,,,hose,0,4,4,1,1,,,,,,,,,,,,,,,,,,,,,,,,,,,,,,,,,,,,,,,,,,,,,,,,,,,,,,,,,,,,,,,,,,,,,,,,,,,,,,,,,,
,,,,,,,,,,stimuli/images/PICTURE_453.png,PLENTY,5e307cef0effe1000c01d541,10/09/1998,2020-08-27_09h39.40.213,proactive3.2,2020.1.2,MacIntel,60,5f47c0b9b035471e11593a5c,5f47c5854f5ff41f2b8b0093,1,,,,,,scissors,,,,,,0,0,0,56,1,6,0,,,,,,,,,,,,,,,,,,,,,,,,,,,,,,,,,,,,,,,,,,,,,,,,,,,,,,,,,,,,,,,,,,,,,,,,,,,
,,,,,,,,,,stimuli/images/PICTURE_308.png,KIND,5e307cef0effe1000c01d541,10/09/1998,2020-08-27_09h39.40.213,proactive3.2,2020.1.2,MacIntel,60,5f47c0b9b035471e11593a5c,5f47c5854f5ff41f2b8b0093,1,,,,,,dice,,,,,,0,1,1,54,1,6,0,,,,,,,,,,,,,,,,,,,,,,,,,,,,,,,,,,,,,,,,,,,,,,,,,,,,,,,,,,,,,,,,,,,,,,,,,,,
,,,,,,,,,,stimuli/images/PICTURE_469.png,ARTIST,5e307cef0effe1000c01d541,10/09/1998,2020-08-27_09h39.40.213,proactive3.2,2020.1.2,MacIntel,60,5f47c0b9b035471e11593a5c,5f47c5854f5ff41f2b8b0093,1,,,,,,stool,,,,,,0,2,2,6,1,1,0,,,,,,,,,,,,,,,,,,,,,,,,,,,,,,,,,,,,,,,,,,,,,,,,,,,,,,,,,,,,,,,,,,,,,,,,,,,
,,,,,,,,,,stimuli/images/PICTURE_744.png,SYSTEM,5e307cef0effe1000c01d541,10/09/1998,2020-08-27_09h39.40.213,proactive3.2,2020.1.2,MacIntel,60,5f47c0b9b035471e11593a5c,5f47c5854f5ff41f2b8b0093,1,,,,,,ring,,,,,,0,3,3,43,1,5,0,,,,,,,,,,,,,,,,,,,,,,,,,,,,,,,,,,,,,,,,,,,,,,,,,,,,,,,,,,,,,,,,,,,,,,,,,,,
,,,,,,,,,,stimuli/images/PICTURE_68.png,MILE,5e307cef0effe1000c01d541,10/09/1998,2020-08-27_09h39.40.213,proactive3.2,2020.1.2,MacIntel,60,5f47c0b9b035471e11593a5c,5f47c5854f5ff41f2b8b0093,1,,,,,,candle,,,,,,0,4,4,44,1,5,0,,,,,,,,,,,,,,,,,,,,,,,,,,,,,,,,,,,,,,,,,,,,,,,,,,,,,,,,,,,,,,,,,,,,,,,,,,,
,,,,,,,,,,stimuli/images/PICTURE_469.png,LETTER,5e307cef0effe1000c01d541,10/09/1998,2020-08-27_09h39.40.213,proactive3.2,2020.1.2,MacIntel,60,5f47c0b9b035471e11593a5c,5f47c5854f5ff41f2b8b0093,1,,,,,,stool,,,,,,0,5,5,42,1,5,0,,,,,,,,,,,,,,,,,,,,,,,,,,,,,,,,,,,,,,,,,,,,,,,,,,,,,,,,,,,,,,,,,,,,,,,,,,,
,,,,,,,,,,stimuli/images/PICTURE_208.png,MONTH,5e307cef0effe1000c01d541,10/09/1998,2020-08-27_09h39.40.213,proactive3.2,2020.1.2,MacIntel,60,5f47c0b9b035471e11593a5c,5f47c5854f5ff41f2b8b0093,1,,,,,,microphone,,,,,,0,6,6,53,1,6,0,,,,,,,,,,,,,,,,,,,,,,,,,,,,,,,,,,,,,,,,,,,,,,,,,,,,,,,,,,,,,,,,,,,,,,,,,,,
,,,,,,,,,,stimuli/images/PICTURE_311.png,BEAUTY,5e307cef0effe1000c01d541,10/09/1998,2020-08-27_09h39.40.213,proactive3.2,2020.1.2,MacIntel,60,5f47c0b9b035471e11593a5c,5f47c5854f5ff41f2b8b0093,1,,,,,,razor,,,,,,0,7,7,13,1,2,0,,,,,,,,,,,,,,,,,,,,,,,,,,,,,,,,,,,,,,,,,,,,,,,,,,,,,,,,,,,,,,,,,,,,,,,,,,,
,,,,,,,,,,stimuli/images/PICTURE_380.png,DEATH,5e307cef0effe1000c01d541,10/09/1998,2020-08-27_09h39.40.213,proactive3.2,2020.1.2,MacIntel,60,5f47c0b9b035471e11593a5c,5f47c5854f5ff41f2b8b0093,1,,,,,,gorilla,,,,,,0,8,8,49,1,5,0,,,,,,,,,,,,,,,,,,,,,,,,,,,,,,,,,,,,,,,,,,,,,,,,,,,,,,,,,,,,,,,,,,,,,,,,,,,
,,,,,,,,,,stimuli/images/PICTURE_215.png,PLENTY,5e307cef0effe1000c01d541,10/09/1998,2020-08-27_09h39.40.213,proactive3.2,2020.1.2,MacIntel,60,5f47c0b9b035471e11593a5c,5f47c5854f5ff41f2b8b0093,1,,,,,,boot,,,,,,0,9,9,37,1,4,0,,,,,,,,,,,,,,,,,,,,,,,,,,,,,,,,,,,,,,,,,,,,,,,,,,,,,,,,,,,,,,,,,,,,,,,,,,,
,,,,,,,,,,stimuli/images/PICTURE_32.png,JUNGLE,5e307cef0effe1000c01d541,10/09/1998,2020-08-27_09h39.40.213,proactive3.2,2020.1.2,MacIntel,60,5f47c0b9b035471e11593a5c,5f47c5854f5ff41f2b8b0093,1,,,,,,crown,,,,,,0,10,10,45,1,5,0,,,,,,,,,,,,,,,,,,,,,,,,,,,,,,,,,,,,,,,,,,,,,,,,,,,,,,,,,,,,,,,,,,,,,,,,,,,
,,,,,,,,,,stimuli/images/PICTURE_302.png,FAMILY,5e307cef0effe1000c01d541,10/09/1998,2020-08-27_09h39.40.213,proactive3.2,2020.1.2,MacIntel,60,5f47c0b9b035471e11593a5c,5f47c5854f5ff41f2b8b0093,1,,,,,,taxi,,,,,,0,11,11,18,1,2,0,,,,,,,,,,,,,,,,,,,,,,,,,,,,,,,,,,,,,,,,,,,,,,,,,,,,,,,,,,,,,,,,,,,,,,,,,,,
,,,,,,,,,,stimuli/images/PICTURE_151.png,GIRL,5e307cef0effe1000c01d541,10/09/1998,2020-08-27_09h39.40.213,proactive3.2,2020.1.2,MacIntel,60,5f47c0b9b035471e11593a5c,5f47c5854f5ff41f2b8b0093,1,,,,,,tray,,,,,,0,12,12,19,1,2,0,,,,,,,,,,,,,,,,,,,,,,,,,,,,,,,,,,,,,,,,,,,,,,,,,,,,,,,,,,,,,,,,,,,,,,,,,,,
,,,,,,,,,,stimuli/images/PICTURE_356.png,DANGER,5e307cef0effe1000c01d541,10/09/1998,2020-08-27_09h39.40.213,proactive3.2,2020.1.2,MacIntel,60,5f47c0b9b035471e11593a5c,5f47c5854f5ff41f2b8b0093,1,,,,,,pawn,,,,,,0,13,13,55,1,6,0,,,,,,,,,,,,,,,,,,,,,,,,,,,,,,,,,,,,,,,,,,,,,,,,,,,,,,,,,,,,,,,,,,,,,,,,,,,
,,,,,,,,,,stimuli/images/PICTURE_688.png,WOMEN,5e307cef0effe1000c01d541,10/09/1998,2020-08-27_09h39.40.213,proactive3.2,2020.1.2,MacIntel,60,5f47c0b9b035471e11593a5c,5f47c5854f5ff41f2b8b0093,1,,,,,,runner,,,,,,0,14,14,14,1,2,0,,,,,,,,,,,,,,,,,,,,,,,,,,,,,,,,,,,,,,,,,,,,,,,,,,,,,,,,,,,,,,,,,,,,,,,,,,,
,,,,,,,,,,stimuli/images/PICTURE_677.png,MILE,5e307cef0effe1000c01d541,10/09/1998,2020-08-27_09h39.40.213,proactive3.2,2020.1.2,MacIntel,60,5f47c0b9b035471e11593a5c,5f47c5854f5ff41f2b8b0093,1,,,,,,map,,,,,,0,15,15,30,1,4,0,,,,,,,,,,,,,,,,,,,,,,,,,,,,,,,,,,,,,,,,,,,,,,,,,,,,,,,,,,,,,,,,,,,,,,,,,,,
,,,,,,,,,,stimuli/images/PICTURE_667.png,BATH,5e307cef0effe1000c01d541,10/09/1998,2020-08-27_09h39.40.213,proactive3.2,2020.1.2,MacIntel,60,5f47c0b9b035471e11593a5c,5f47c5854f5ff41f2b8b0093,1,,,,,,daisy,,,,,,0,16,16,4,1,1,0,,,,,,,,,,,,,,,,,,,,,,,,,,,,,,,,,,,,,,,,,,,,,,,,,,,,,,,,,,,,,,,,,,,,,,,,,,,
,,,,,,,,,,stimuli/images/PICTURE_123.png,ADVICE,5e307cef0effe1000c01d541,10/09/1998,2020-08-27_09h39.40.213,proactive3.2,2020.1.2,MacIntel,60,5f47c0b9b035471e11593a5c,5f47c5854f5ff41f2b8b0093,1,,,,,,dart,,,,,,0,17,17,40,1,5,0,,,,,,,,,,,,,,,,,,,,,,,,,,,,,,,,,,,,,,,,,,,,,,,,,,,,,,,,,,,,,,,,,,,,,,,,,,,
,,,,,,,,,,stimuli/images/PICTURE_160.png,LEADER,5e307cef0effe1000c01d541,10/09/1998,2020-08-27_09h39.40.213,proactive3.2,2020.1.2,MacIntel,60,5f47c0b9b035471e11593a5c,5f47c5854f5ff41f2b8b0093,1,,,,,,wheelbarrow,,,,,,0,18,18,3,1,1,0,,,,,,,,,,,,,,,,,,,,,,,,,,,,,,,,,,,,,,,,,,,,,,,,,,,,,,,,,,,,,,,,,,,,,,,,,,,
,,,,,,,,,,stimuli/images/PICTURE_327.png,BEAUTY,5e307cef0effe1000c01d541,10/09/1998,2020-08-27_09h39.40.213,proactive3.2,2020.1.2,MacIntel,60,5f47c0b9b035471e11593a5c,5f47c5854f5ff41f2b8b0093,1,,,,,,helmet,,,,,,0,19,19,48,1,5,0,,,,,,,,,,,,,,,,,,,,,,,,,,,,,,,,,,,,,,,,,,,,,,,,,,,,,,,,,,,,,,,,,,,,,,,,,,,
,,,,,,,,,,stimuli/images/PICTURE_467.png,DEMON,5e307cef0effe1000c01d541,10/09/1998,2020-08-27_09h39.40.213,proactive3.2,2020.1.2,MacIntel,60,5f47c0b9b035471e11593a5c,5f47c5854f5ff41f2b8b0093,1,,,,,,peg,,,,,,0,20,20,23,1,3,0,,,,,,,,,,,,,,,,,,,,,,,,,,,,,,,,,,,,,,,,,,,,,,,,,,,,,,,,,,,,,,,,,,,,,,,,,,,
,,,,,,,,,,stimuli/images/PICTURE_233.png,WOMEN,5e307cef0effe1000c01d541,10/09/1998,2020-08-27_09h39.40.213,proactive3.2,2020.1.2,MacIntel,60,5f47c0b9b035471e11593a5c,5f47c5854f5ff41f2b8b0093,1,,,,,,salt,,,,,,0,21,21,38,1,4,0,,,,,,,,,,,,,,,,,,,,,,,,,,,,,,,,,,,,,,,,,,,,,,,,,,,,,,,,,,,,,,,,,,,,,,,,,,,
,,,,,,,,,,stimuli/images/PICTURE_285.png,ADVICE,5e307cef0effe1000c01d541,10/09/1998,2020-08-27_09h39.40.213,proactive3.2,2020.1.2,MacIntel,60,5f47c0b9b035471e11593a5c,5f47c5854f5ff41f2b8b0093,1,,,,,,carrot,,,,,,0,22,22,12,1,2,0,,,,,,,,,,,,,,,,,,,,,,,,,,,,,,,,,,,,,,,,,,,,,,,,,,,,,,,,,,,,,,,,,,,,,,,,,,,
,,,,,,,,,,stimuli/images/PICTURE_744.png,SAKE,5e307cef0effe1000c01d541,10/09/1998,2020-08-27_09h39.40.213,proactive3.2,2020.1.2,MacIntel,60,5f47c0b9b035471e11593a5c,5f47c5854f5ff41f2b8b0093,1,,,,,,ring,,,,,,0,23,23,17,1,2,0,,,,,,,,,,,,,,,,,,,,,,,,,,,,,,,,,,,,,,,,,,,,,,,,,,,,,,,,,,,,,,,,,,,,,,,,,,,
,,,,,,,,,,stimuli/images/PICTURE_233.png,IDEAS,5e307cef0effe1000c01d541,10/09/1998,2020-08-27_09h39.40.213,proactive3.2,2020.1.2,MacIntel,60,5f47c0b9b035471e11593a5c,5f47c5854f5ff41f2b8b0093,1,,,,,,salt,,,,,,0,24,24,28,1,3,0,,,,,,,,,,,,,,,,,,,,,,,,,,,,,,,,,,,,,,,,,,,,,,,,,,,,,,,,,,,,,,,,,,,,,,,,,,,
,,,,,,,,,,stimuli/images/PICTURE_491.png,WRITER,5e307cef0effe1000c01d541,10/09/1998,2020-08-27_09h39.40.213,proactive3.2,2020.1.2,MacIntel,60,5f47c0b9b035471e11593a5c,5f47c5854f5ff41f2b8b0093,1,,,,,,rug,,,,,,0,25,25,57,1,6,0,,,,,,,,,,,,,,,,,,,,,,,,,,,,,,,,,,,,,,,,,,,,,,,,,,,,,,,,,,,,,,,,,,,,,,,,,,,
,,,,,,,,,,stimuli/images/PICTURE_491.png,ROOF,5e307cef0effe1000c01d541,10/09/1998,2020-08-27_09h39.40.213,proactive3.2,2020.1.2,MacIntel,60,5f47c0b9b035471e11593a5c,5f47c5854f5ff41f2b8b0093,1,,,,,,rug,,,,,,0,26,26,24,1,3,0,,,,,,,,,,,,,,,,,,,,,,,,,,,,,,,,,,,,,,,,,,,,,,,,,,,,,,,,,,,,,,,,,,,,,,,,,,,
,,,,,,,,,,stimuli/images/PICTURE_708.png,PENNY,5e307cef0effe1000c01d541,10/09/1998,2020-08-27_09h39.40.213,proactive3.2,2020.1.2,MacIntel,60,5f47c0b9b035471e11593a5c,5f47c5854f5ff41f2b8b0093,1,,,,,,monkey,,,,,,0,27,27,31,1,4,0,,,,,,,,,,,,,,,,,,,,,,,,,,,,,,,,,,,,,,,,,,,,,,,,,,,,,,,,,,,,,,,,,,,,,,,,,,,
,,,,,,,,,,stimuli/images/PICTURE_311.png,FRIEND,5e307cef0effe1000c01d541,10/09/1998,2020-08-27_09h39.40.213,proactive3.2,2020.1.2,MacIntel,60,5f47c0b9b035471e11593a5c,5f47c5854f5ff41f2b8b0093,1,,,,,,razor,,,,,,0,28,28,34,1,4,0,,,,,,,,,,,,,,,,,,,,,,,,,,,,,,,,,,,,,,,,,,,,,,,,,,,,,,,,,,,,,,,,,,,,,,,,,,,
,,,,,,,,,,stimuli/images/PICTURE_708.png,YARD,5e307cef0effe1000c01d541,10/09/1998,2020-08-27_09h39.40.213,proactive3.2,2020.1.2,MacIntel,60,5f47c0b9b035471e11593a5c,5f47c5854f5ff41f2b8b0093,1,,,,,,monkey,,,,,,0,29,29,29,1,3,0,,,,,,,,,,,,,,,,,,,,,,,,,,,,,,,,,,,,,,,,,,,,,,,,,,,,,,,,,,,,,,,,,,,,,,,,,,,
,,,,,,,,,,stimuli/images/PICTURE_692.png,MONTH,5e307cef0effe1000c01d541,10/09/1998,2020-08-27_09h39.40.213,proactive3.2,2020.1.2,MacIntel,60,5f47c0b9b035471e11593a5c,5f47c5854f5ff41f2b8b0093,1,,,,,,cherry,,,,,,0,30,30,16,1,2,0,,,,,,,,,,,,,,,,,,,,,,,,,,,,,,,,,,,,,,,,,,,,,,,,,,,,,,,,,,,,,,,,,,,,,,,,,,,
,,,,,,,,,,stimuli/images/PICTURE_314.png,GODS,5e307cef0effe1000c01d541,10/09/1998,2020-08-27_09h39.40.213,proactive3.2,2020.1.2,MacIntel,60,5f47c0b9b035471e11593a5c,5f47c5854f5ff41f2b8b0093,1,,,,,,perfume,,,,,,0,31,31,11,1,2,0,,,,,,,,,,,,,,,,,,,,,,,,,,,,,,,,,,,,,,,,,,,,,,,,,,,,,,,,,,,,,,,,,,,,,,,,,,,
,,,,,,,,,,stimuli/images/PICTURE_453.png,DUDE,5e307cef0effe1000c01d541,10/09/1998,2020-08-27_09h39.40.213,proactive3.2,2020.1.2,MacIntel,60,5f47c0b9b035471e11593a5c,5f47c5854f5ff41f2b8b0093,1,,,,,,scissors,,,,,,0,32,32,27,1,3,0,,,,,,,,,,,,,,,,,,,,,,,,,,,,,,,,,,,,,,,,,,,,,,,,,,,,,,,,,,,,,,,,,,,,,,,,,,,
,,,,,,,,,,stimuli/images/PICTURE_339.png,PLENTY,5e307cef0effe1000c01d541,10/09/1998,2020-08-27_09h39.40.213,proactive3.2,2020.1.2,MacIntel,60,5f47c0b9b035471e11593a5c,5f47c5854f5ff41f2b8b0093,1,,,,,,backpack,,,,,,0,33,33,0,1,1,0,,,,,,,,,,,,,,,,,,,,,,,,,,,,,,,,,,,,,,,,,,,,,,,,,,,,,,,,,,,,,,,,,,,,,,,,,,,
,,,,,,,,,,stimuli/images/PICTURE_654.png,VALLEY,5e307cef0effe1000c01d541,10/09/1998,2020-08-27_09h39.40.213,proactive3.2,2020.1.2,MacIntel,60,5f47c0b9b035471e11593a5c,5f47c5854f5ff41f2b8b0093,1,,,,,,pencil,,,,,,0,34,34,1,1,1,0,,,,,,,,,,,,,,,,,,,,,,,,,,,,,,,,,,,,,,,,,,,,,,,,,,,,,,,,,,,,,,,,,,,,,,,,,,,
,,,,,,,,,,stimuli/images/PICTURE_708.png,CLIENT,5e307cef0effe1000c01d541,10/09/1998,2020-08-27_09h39.40.213,proactive3.2,2020.1.2,MacIntel,60,5f47c0b9b035471e11593a5c,5f47c5854f5ff41f2b8b0093,1,,,,,,monkey,,,,,,0,35,35,5,1,1,0,,,,,,,,,,,,,,,,,,,,,,,,,,,,,,,,,,,,,,,,,,,,,,,,,,,,,,,,,,,,,,,,,,,,,,,,,,,
,,,,,,,,,,stimuli/images/PICTURE_488.png,STYLE,5e307cef0effe1000c01d541,10/09/1998,2020-08-27_09h39.40.213,proactive3.2,2020.1.2,MacIntel,60,5f47c0b9b035471e11593a5c,5f47c5854f5ff41f2b8b0093,1,,,,,,sun,,,,,,0,36,36,33,1,4,0,,,,,,,,,,,,,,,,,,,,,,,,,,,,,,,,,,,,,,,,,,,,,,,,,,,,,,,,,,,,,,,,,,,,,,,,,,,
,,,,,,,,,,stimuli/images/PICTURE_248.png,DOZEN,5e307cef0effe1000c01d541,10/09/1998,2020-08-27_09h39.40.213,proactive3.2,2020.1.2,MacIntel,60,5f47c0b9b035471e11593a5c,5f47c5854f5ff41f2b8b0093,1,,,,,,cart,,,,,,0,37,37,39,1,4,0,,,,,,,,,,,,,,,,,,,,,,,,,,,,,,,,,,,,,,,,,,,,,,,,,,,,,,,,,,,,,,,,,,,,,,,,,,,
,,,,,,,,,,stimuli/images/PICTURE_667.png,PLENTY,5e307cef0effe1000c01d541,10/09/1998,2020-08-27_09h39.40.213,proactive3.2,2020.1.2,MacIntel,60,5f47c0b9b035471e11593a5c,5f47c5854f5ff41f2b8b0093,1,,,,,,daisy,,,,,,0,38,38,41,1,5,0,,,,,,,,,,,,,,,,,,,,,,,,,,,,,,,,,,,,,,,,,,,,,,,,,,,,,,,,,,,,,,,,,,,,,,,,,,,
,,,,,,,,,,stimuli/images/PICTURE_470.png,CASINO,5e307cef0effe1000c01d541,10/09/1998,2020-08-27_09h39.40.213,proactive3.2,2020.1.2,MacIntel,60,5f47c0b9b035471e11593a5c,5f47c5854f5ff41f2b8b0093,1,,,,,,motorbike,,,,,,0,39,39,36,1,4,0,,,,,,,,,,,,,,,,,,,,,,,,,,,,,,,,,,,,,,,,,,,,,,,,,,,,,,,,,,,,,,,,,,,,,,,,,,,
,,,,,,,,,,stimuli/images/PICTURE_208.png,LOTS,5e307cef0effe1000c01d541,10/09/1998,2020-08-27_09h39.40.213,proactive3.2,2020.1.2,MacIntel,60,5f47c0b9b035471e11593a5c,5f47c5854f5ff41f2b8b0093,1,,,,,,microphone,,,,,,0,40,40,10,1,2,0,,,,,,,,,,,,,,,,,,,,,,,,,,,,,,,,,,,,,,,,,,,,,,,,,,,,,,,,,,,,,,,,,,,,,,,,,,,
,,,,,,,,,,stimuli/images/PICTURE_147.png,MOMENT,5e307cef0effe1000c01d541,10/09/1998,2020-08-27_09h39.40.213,proactive3.2,2020.1.2,MacIntel,60,5f47c0b9b035471e11593a5c,5f47c5854f5ff41f2b8b0093,1,,,,,,hanger,,,,,,0,41,41,51,1,6,0,,,,,,,,,,,,,,,,,,,,,,,,,,,,,,,,,,,,,,,,,,,,,,,,,,,,,,,,,,,,,,,,,,,,,,,,,,,
,,,,,,,,,,stimuli/images/PICTURE_675.png,WEAPON,5e307cef0effe1000c01d541,10/09/1998,2020-08-27_09h39.40.213,proactive3.2,2020.1.2,MacIntel,60,5f47c0b9b035471e11593a5c,5f47c5854f5ff41f2b8b0093,1,,,,,,windmill,,,,,,0,42,42,32,1,4,0,,,,,,,,,,,,,,,,,,,,,,,,,,,,,,,,,,,,,,,,,,,,,,,,,,,,,,,,,,,,,,,,,,,,,,,,,,,
,,,,,,,,,,stimuli/images/PICTURE_255.png,AREA,5e307cef0effe1000c01d541,10/09/1998,2020-08-27_09h39.40.213,proactive3.2,2020.1.2,MacIntel,60,5f47c0b9b035471e11593a5c,5f47c5854f5ff41f2b8b0093,1,,,,,,shovel,,,,,,0,43,43,22,1,3,0,,,,,,,,,,,,,,,,,,,,,,,,,,,,,,,,,,,,,,,,,,,,,,,,,,,,,,,,,,,,,,,,,,,,,,,,,,,
,,,,,,,,,,stimuli/images/PICTURE_85.png,THING,5e307cef0effe1000c01d541,10/09/1998,2020-08-27_09h39.40.213,proactive3.2,2020.1.2,MacIntel,60,5f47c0b9b035471e11593a5c,5f47c5854f5ff41f2b8b0093,1,,,,,,diamond,,,,,,0,44,44,15,1,2,0,,,,,,,,,,,,,,,,,,,,,,,,,,,,,,,,,,,,,,,,,,,,,,,,,,,,,,,,,,,,,,,,,,,,,,,,,,,
,,,,,,,,,,stimuli/images/PICTURE_380.png,PHOTO,5e307cef0effe1000c01d541,10/09/1998,2020-08-27_09h39.40.213,proactive3.2,2020.1.2,MacIntel,60,5f47c0b9b035471e11593a5c,5f47c5854f5ff41f2b8b0093,1,,,,,,gorilla,,,,,,0,45,45,52,1,6,0,,,,,,,,,,,,,,,,,,,,,,,,,,,,,,,,,,,,,,,,,,,,,,,,,,,,,,,,,,,,,,,,,,,,,,,,,,,
,,,,,,,,,,stimuli/images/PICTURE_308.png,ESTATE,5e307cef0effe1000c01d541,10/09/1998,2020-08-27_09h39.40.213,proactive3.2,2020.1.2,MacIntel,60,5f47c0b9b035471e11593a5c,5f47c5854f5ff41f2b8b0093,1,,,,,,dice,,,,,,0,46,46,46,1,5,0,,,,,,,,,,,,,,,,,,,,,,,,,,,,,,,,,,,,,,,,,,,,,,,,,,,,,,,,,,,,,,,,,,,,,,,,,,,
,,,,,,,,,,stimuli/images/PICTURE_177.png,CARS,5e307cef0effe1000c01d541,10/09/1998,2020-08-27_09h39.40.213,proactive3.2,2020.1.2,MacIntel,60,5f47c0b9b035471e11593a5c,5f47c5854f5ff41f2b8b0093,1,,,,,,mushroom,,,,,,0,47,47,35,1,4,0,,,,,,,,,,,,,,,,,,,,,,,,,,,,,,,,,,,,,,,,,,,,,,,,,,,,,,,,,,,,,,,,,,,,,,,,,,,
,,,,,,,,,,stimuli/images/PICTURE_688.png,CASINO,5e307cef0effe1000c01d541,10/09/1998,2020-08-27_09h39.40.213,proactive3.2,2020.1.2,MacIntel,60,5f47c0b9b035471e11593a5c,5f47c5854f5ff41f2b8b0093,1,,,,,,runner,,,,,,0,48,48,2,1,1,0,,,,,,,,,,,,,,,,,,,,,,,,,,,,,,,,,,,,,,,,,,,,,,,,,,,,,,,,,,,,,,,,,,,,,,,,,,,
,,,,,,,,,,stimuli/images/PICTURE_95.png,STYLE,5e307cef0effe1000c01d541,10/09/1998,2020-08-27_09h39.40.213,proactive3.2,2020.1.2,MacIntel,60,5f47c0b9b035471e11593a5c,5f47c5854f5ff41f2b8b0093,1,,,,,,suitcase,,,,,,0,49,49,25,1,3,0,,,,,,,,,,,,,,,,,,,,,,,,,,,,,,,,,,,,,,,,,,,,,,,,,,,,,,,,,,,,,,,,,,,,,,,,,,,
,,,,,,,,,,stimuli/images/PICTURE_123.png,ADVICE,5e307cef0effe1000c01d541,10/09/1998,2020-08-27_09h39.40.213,proactive3.2,2020.1.2,MacIntel,60,5f47c0b9b035471e11593a5c,5f47c5854f5ff41f2b8b0093,1,,,,,,dart,,,,,,0,50,50,50,1,6,0,,,,,,,,,,,,,,,,,,,,,,,,,,,,,,,,,,,,,,,,,,,,,,,,,,,,,,,,,,,,,,,,,,,,,,,,,,,
,,,,,,,,,,stimuli/images/PICTURE_449.png,THING,5e307cef0effe1000c01d541,10/09/1998,2020-08-27_09h39.40.213,proactive3.2,2020.1.2,MacIntel,60,5f47c0b9b035471e11593a5c,5f47c5854f5ff41f2b8b0093,1,,,,,,bench,,,,,,0,51,51,59,1,6,0,,,,,,,,,,,,,,,,,,,,,,,,,,,,,,,,,,,,,,,,,,,,,,,,,,,,,,,,,,,,,,,,,,,,,,,,,,,
,,,,,,,,,,stimuli/images/PICTURE_314.png,SAKE,5e307cef0effe1000c01d541,10/09/1998,2020-08-27_09h39.40.213,proactive3.2,2020.1.2,MacIntel,60,5f47c0b9b035471e11593a5c,5f47c5854f5ff41f2b8b0093,1,,,,,,perfume,,,,,,0,52,52,7,1,1,0,,,,,,,,,,,,,,,,,,,,,,,,,,,,,,,,,,,,,,,,,,,,,,,,,,,,,,,,,,,,,,,,,,,,,,,,,,,
,,,,,,,,,,stimuli/images/PICTURE_348.png,SPEECH,5e307cef0effe1000c01d541,10/09/1998,2020-08-27_09h39.40.213,proactive3.2,2020.1.2,MacIntel,60,5f47c0b9b035471e11593a5c,5f47c5854f5ff41f2b8b0093,1,,,,,,pepper,,,,,,0,53,53,20,1,3,0,,,,,,,,,,,,,,,,,,,,,,,,,,,,,,,,,,,,,,,,,,,,,,,,,,,,,,,,,,,,,,,,,,,,,,,,,,,
,,,,,,,,,,stimuli/images/PICTURE_208.png,THING,5e307cef0effe1000c01d541,10/09/1998,2020-08-27_09h39.40.213,proactive3.2,2020.1.2,MacIntel,60,5f47c0b9b035471e11593a5c,5f47c5854f5ff41f2b8b0093,1,,,,,,microphone,,,,,,0,54,54,47,1,5,0,,,,,,,,,,,,,,,,,,,,,,,,,,,,,,,,,,,,,,,,,,,,,,,,,,,,,,,,,,,,,,,,,,,,,,,,,,,
,,,,,,,,,,stimuli/images/PICTURE_160.png,FEET,5e307cef0effe1000c01d541,10/09/1998,2020-08-27_09h39.40.213,proactive3.2,2020.1.2,MacIntel,60,5f47c0b9b035471e11593a5c,5f47c5854f5ff41f2b8b0093,1,,,,,,wheelbarrow,,,,,,0,55,55,58,1,6,0,,,,,,,,,,,,,,,,,,,,,,,,,,,,,,,,,,,,,,,,,,,,,,,,,,,,,,,,,,,,,,,,,,,,,,,,,,,
,,,,,,,,,,stimuli/images/PICTURE_203.png,ARTIST,5e307cef0effe1000c01d541,10/09/1998,2020-08-27_09h39.40.213,proactive3.2,2020.1.2,MacIntel,60,5f47c0b9b035471e11593a5c,5f47c5854f5ff41f2b8b0093,1,,,,,,cap,,,,,,0,56,56,26,1,3,0,,,,,,,,,,,,,,,,,,,,,,,,,,,,,,,,,,,,,,,,,,,,,,,,,,,,,,,,,,,,,,,,,,,,,,,,,,,
,,,,,,,,,,stimuli/images/PICTURE_509.png,PHOTO,5e307cef0effe1000c01d541,10/09/1998,2020-08-27_09h39.40.213,proactive3.2,2020.1.2,MacIntel,60,5f47c0b9b035471e11593a5c,5f47c5854f5ff41f2b8b0093,1,,,,,,telephone,,,,,,0,57,57,21,1,3,0,,,,,,,,,,,,,,,,,,,,,,,,,,,,,,,,,,,,,,,,,,,,,,,,,,,,,,,,,,,,,,,,,,,,,,,,,,,
,,,,,,,,,,stimuli/images/PICTURE_504.png,BODY,5e307cef0effe1000c01d541,10/09/1998,2020-08-27_09h39.40.213,proactive3.2,2020.1.2,MacIntel,60,5f47c0b9b035471e11593a5c,5f47c5854f5ff41f2b8b0093,1,,,,,,wheel,,,,,,0,58,58,8,1,1,0,,,,,,,,,,,,,,,,,,,,,,,,,,,,,,,,,,,,,,,,,,,,,,,,,,,,,,,,,,,,,,,,,,,,,,,,,,,
,,?,0.000865,0,,,,,,stimuli/images/PICTURE_470.png,CASINO,5e307cef0effe1000c01d541,10/09/1998,2020-08-27_09h39.40.213,proactive3.2,2020.1.2,MacIntel,60,5f47c0b9b035471e11593a5c,5f47c5854f5ff41f2b8b0093,1,,,,,,motorbike,,,,,,,,,,,4,0,0,0,0,36,1,,,,,,,,,,,,,,,,,,,,,,,,,,,,,,,,,,,,,,,,,,,,,,,,,,,,,,,,,,,,,,,,,,,,,,
,,?,0.000615,0,,,,,,stimuli/images/PICTURE_667.png,PLENTY,5e307cef0effe1000c01d541,10/09/1998,2020-08-27_09h39.40.213,proactive3.2,2020.1.2,MacIntel,60,5f47c0b9b035471e11593a5c,5f47c5854f5ff41f2b8b0093,1,,,,,,daisy,,,,,,,,,,,5,0,0,1,1,41,1,,,,,,,,,,,,,,,,,,,,,,,,,,,,,,,,,,,,,,,,,,,,,,,,,,,,,,,,,,,,,,,,,,,,,,
,,?,0.000705,0,,,,,,stimuli/images/PICTURE_95.png,STYLE,5e307cef0effe1000c01d541,10/09/1998,2020-08-27_09h39.40.213,proactive3.2,2020.1.2,MacIntel,60,5f47c0b9b035471e11593a5c,5f47c5854f5ff41f2b8b0093,1,,,,,,suitcase,,,,,,,,,,,3,0,0,2,2,25,1,,,,,,,,,,,,,,,,,,,,,,,,,,,,,,,,,,,,,,,,,,,,,,,,,,,,,,,,,,,,,,,,,,,,,,
,,?,0.000645,0,,,,,,stimuli/images/PICTURE_203.png,ARTIST,5e307cef0effe1000c01d541,10/09/1998,2020-08-27_09h39.40.213,proactive3.2,2020.1.2,MacIntel,60,5f47c0b9b035471e11593a5c,5f47c5854f5ff41f2b8b0093,1,,,,,,cap,,,,,,,,,,,3,0,0,3,3,26,1,,,,,,,,,,,,,,,,,,,,,,,,,,,,,,,,,,,,,,,,,,,,,,,,,,,,,,,,,,,,,,,,,,,,,,
,,?,0.00083,0,,,,,,stimuli/images/PICTURE_708.png,YARD,5e307cef0effe1000c01d541,10/09/1998,2020-08-27_09h39.40.213,proactive3.2,2020.1.2,MacIntel,60,5f47c0b9b035471e11593a5c,5f47c5854f5ff41f2b8b0093,1,,,,,,monkey,,,,,,,,,,,3,0,0,4,4,29,1,,,,,,,,,,,,,,,,,,,,,,,,,,,,,,,,,,,,,,,,,,,,,,,,,,,,,,,,,,,,,,,,,,,,,,
,,?,0.000815,0,,,,,,stimuli/images/PICTURE_348.png,SPEECH,5e307cef0effe1000c01d541,10/09/1998,2020-08-27_09h39.40.213,proactive3.2,2020.1.2,MacIntel,60,5f47c0b9b035471e11593a5c,5f47c5854f5ff41f2b8b0093,1,,,,,,pepper,,,,,,,,,,,3,0,0,5,5,20,1,,,,,,,,,,,,,,,,,,,,,,,,,,,,,,,,,,,,,,,,,,,,,,,,,,,,,,,,,,,,,,,,,,,,,,
,,?,0.000665,0,,,,,,stimuli/images/PICTURE_215.png,PLENTY,5e307cef0effe1000c01d541,10/09/1998,2020-08-27_09h39.40.213,proactive3.2,2020.1.2,MacIntel,60,5f47c0b9b035471e11593a5c,5f47c5854f5ff41f2b8b0093,1,,,,,,boot,,,,,,,,,,,4,0,0,6,6,37,1,,,,,,,,,,,,,,,,,,,,,,,,,,,,,,,,,,,,,,,,,,,,,,,,,,,,,,,,,,,,,,,,,,,,,,
,,CLIENT,5.258945,1,,,,,,stimuli/images/PICTURE_708.png,CLIENT,5e307cef0effe1000c01d541,10/09/1998,2020-08-27_09h39.40.213,proactive3.2,2020.1.2,MacIntel,60,5f47c0b9b035471e11593a5c,5f47c5854f5ff41f2b8b0093,1,,,,,,monkey,,,,,,,,,,,1,0,0,7,7,5,1,,,,,,,,,,,,,,,,,,,,,,,,,,,,,,,,,,,,,,,,,,,,,,,,,,,,,,,,,,,,,,,,,,,,,,
,,FLIGHT,2.530755,1,,,,,,stimuli/images/PICTURE_487.png,FLIGHT,5e307cef0effe1000c01d541,10/09/1998,2020-08-27_09h39.40.213,proactive3.2,2020.1.2,MacIntel,60,5f47c0b9b035471e11593a5c,5f47c5854f5ff41f2b8b0093,1,,,,,,basket,,,,,,,,,,,1,0,0,8,8,9,1,,,,,,,,,,,,,,,,,,,,,,,,,,,,,,,,,,,,,,,,,,,,,,,,,,,,,,,,,,,,,,,,,,,,,,
,,?,0.001995,0,,,,,,stimuli/images/PICTURE_380.png,PHOTO,5e307cef0effe1000c01d541,10/09/1998,2020-08-27_09h39.40.213,proactive3.2,2020.1.2,MacIntel,60,5f47c0b9b035471e11593a5c,5f47c5854f5ff41f2b8b0093,1,,,,,,gorilla,,,,,,,,,,,6,0,0,9,9,52,1,,,,,,,,,,,,,,,,,,,,,,,,,,,,,,,,,,,,,,,,,,,,,,,,,,,,,,,,,,,,,,,,,,,,,,
,,?,0.001265,0,,,,,,stimuli/images/PICTURE_311.png,FRIEND,5e307cef0effe1000c01d541,10/09/1998,2020-08-27_09h39.40.213,proactive3.2,2020.1.2,MacIntel,60,5f47c0b9b035471e11593a5c,5f47c5854f5ff41f2b8b0093,1,,,,,,razor,,,,,,,,,,,4,0,0,10,10,34,1,,,,,,,,,,,,,,,,,,,,,,,,,,,,,,,,,,,,,,,,,,,,,,,,,,,,,,,,,,,,,,,,,,,,,,
,,?,0.00122,0,,,,,,stimuli/images/PICTURE_308.png,KIND,5e307cef0effe1000c01d541,10/09/1998,2020-08-27_09h39.40.213,proactive3.2,2020.1.2,MacIntel,60,5f47c0b9b035471e11593a5c,5f47c5854f5ff41f2b8b0093,1,,,,,,dice,,,,,,,,,,,6,0,0,11,11,54,1,,,,,,,,,,,,,,,,,,,,,,,,,,,,,,,,,,,,,,,,,,,,,,,,,,,,,,,,,,,,,,,,,,,,,,
,,?,0.000975,0,,,,,,stimuli/images/PICTURE_123.png,ADVICE,5e307cef0effe1000c01d541,10/09/1998,2020-08-27_09h39.40.213,proactive3.2,2020.1.2,MacIntel,60,5f47c0b9b035471e11593a5c,5f47c5854f5ff41f2b8b0093,1,,,,,,dart,,,,,,,,,,,6,0,0,12,12,50,1,,,,,,,,,,,,,,,,,,,,,,,,,,,,,,,,,,,,,,,,,,,,,,,,,,,,,,,,,,,,,,,,,,,,,,
,,?,0.000995,0,,,,,,stimuli/images/PICTURE_255.png,AREA,5e307cef0effe1000c01d541,10/09/1998,2020-08-27_09h39.40.213,proactive3.2,2020.1.2,MacIntel,60,5f47c0b9b035471e11593a5c,5f47c5854f5ff41f2b8b0093,1,,,,,,shovel,,,,,,,,,,,3,0,0,13,13,22,1,,,,,,,,,,,,,,,,,,,,,,,,,,,,,,,,,,,,,,,,,,,,,,,,,,,,,,,,,,,,,,,,,,,,,,
,,?,0.00093,0,,,,,,stimuli/images/PICTURE_380.png,DEATH,5e307cef0effe1000c01d541,10/09/1998,2020-08-27_09h39.40.213,proactive3.2,2020.1.2,MacIntel,60,5f47c0b9b035471e11593a5c,5f47c5854f5ff41f2b8b0093,1,,,,,,gorilla,,,,,,,,,,,5,0,0,14,14,49,1,,,,,,,,,,,,,,,,,,,,,,,,,,,,,,,,,,,,,,,,,,,,,,,,,,,,,,,,,,,,,,,,,,,,,,
,,?,0.00082,0,,,,,,stimuli/images/PICTURE_688.png,WOMEN,5e307cef0effe1000c01d541,10/09/1998,2020-08-27_09h39.40.213,proactive3.2,2020.1.2,MacIntel,60,5f47c0b9b035471e11593a5c,5f47c5854f5ff41f2b8b0093,1,,,,,,runner,,,,,,,,,,,2,0,0,15,15,14,1,,,,,,,,,,,,,,,,,,,,,,,,,,,,,,,,,,,,,,,,,,,,,,,,,,,,,,,,,,,,,,,,,,,,,,
,,?,0.00065,0,,,,,,stimuli/images/PICTURE_692.png,MONTH,5e307cef0effe1000c01d541,10/09/1998,2020-08-27_09h39.40.213,proactive3.2,2020.1.2,MacIntel,60,5f47c0b9b035471e11593a5c,5f47c5854f5ff41f2b8b0093,1,,,,,,cherry,,,,,,,,,,,2,0,0,16,16,16,1,,,,,,,,,,,,,,,,,,,,,,,,,,,,,,,,,,,,,,,,,,,,,,,,,,,,,,,,,,,,,,,,,,,,,,
,,?,0.000915,0,,,,,,stimuli/images/PICTURE_675.png,WEAPON,5e307cef0effe1000c01d541,10/09/1998,2020-08-27_09h39.40.213,proactive3.2,2020.1.2,MacIntel,60,5f47c0b9b035471e11593a5c,5f47c5854f5ff41f2b8b0093,1,,,,,,windmill,,,,,,,,,,,4,0,0,17,17,32,1,,,,,,,,,,,,,,,,,,,,,,,,,,,,,,,,,,,,,,,,,,,,,,,,,,,,,,,,,,,,,,,,,,,,,,
,,?,0.00077,0,,,,,,stimuli/images/PICTURE_302.png,FAMILY,5e307cef0effe1000c01d541,10/09/1998,2020-08-27_09h39.40.213,proactive3.2,2020.1.2,MacIntel,60,5f47c0b9b035471e11593a5c,5f47c5854f5ff41f2b8b0093,1,,,,,,taxi,,,,,,,,,,,2,0,0,18,18,18,1,,,,,,,,,,,,,,,,,,,,,,,,,,,,,,,,,,,,,,,,,,,,,,,,,,,,,,,,,,,,,,,,,,,,,,
,,LEADER,2.2928,1,,,,,,stimuli/images/PICTURE_160.png,LEADER,5e307cef0effe1000c01d541,10/09/1998,2020-08-27_09h39.40.213,proactive3.2,2020.1.2,MacIntel,60,5f47c0b9b035471e11593a5c,5f47c5854f5ff41f2b8b0093,1,,,,,,wheelbarrow,,,,,,,,,,,1,0,0,19,19,3,1,,,,,,,,,,,,,,,,,,,,,,,,,,,,,,,,,,,,,,,,,,,,,,,,,,,,,,,,,,,,,,,,,,,,,,
,,?,0.00132,0,,,,,,stimuli/images/PICTURE_491.png,WRITER,5e307cef0effe1000c01d541,10/09/1998,2020-08-27_09h39.40.213,proactive3.2,2020.1.2,MacIntel,60,5f47c0b9b035471e11593a5c,5f47c5854f5ff41f2b8b0093,1,,,,,,rug,,,,,,,,,,,6,0,0,20,20,57,1,,,,,,,,,,,,,,,,,,,,,,,,,,,,,,,,,,,,,,,,,,,,,,,,,,,,,,,,,,,,,,,,,,,,,,
,,?,0.000835,0,,,,,,stimuli/images/PICTURE_233.png,WOMEN,5e307cef0effe1000c01d541,10/09/1998,2020-08-27_09h39.40.213,proactive3.2,2020.1.2,MacIntel,60,5f47c0b9b035471e11593a5c,5f47c5854f5ff41f2b8b0093,1,,,,,,salt,,,,,,,,,,,4,0,0,21,21,38,1,,,,,,,,,,,,,,,,,,,,,,,,,,,,,,,,,,,,,,,,,,,,,,,,,,,,,,,,,,,,,,,,,,,,,,
,,?,0.000665,0,,,,,,stimuli/images/PICTURE_151.png,GIRL,5e307cef0effe1000c01d541,10/09/1998,2020-08-27_09h39.40.213,proactive3.2,2020.1.2,MacIntel,60,5f47c0b9b035471e11593a5c,5f47c5854f5ff41f2b8b0093,1,,,,,,tray,,,,,,,,,,,2,0,0,22,22,19,1,,,,,,,,,,,,,,,,,,,,,,,,,,,,,,,,,,,,,,,,,,,,,,,,,,,,,,,,,,,,,,,,,,,,,,
,,BATH,1.94943,1,,,,,,stimuli/images/PICTURE_667.png,BATH,5e307cef0effe1000c01d541,10/09/1998,2020-08-27_09h39.40.213,proactive3.2,2020.1.2,MacIntel,60,5f47c0b9b035471e11593a5c,5f47c5854f5ff41f2b8b0093,1,,,,,,daisy,,,,,,,,,,,1,0,0,23,23,4,1,,,,,,,,,,,,,,,,,,,,,,,,,,,,,,,,,,,,,,,,,,,,,,,,,,,,,,,,,,,,,,,,,,,,,,
,,?,0.001175,0,,,,,,stimuli/images/PICTURE_285.png,ADVICE,5e307cef0effe1000c01d541,10/09/1998,2020-08-27_09h39.40.213,proactive3.2,2020.1.2,MacIntel,60,5f47c0b9b035471e11593a5c,5f47c5854f5ff41f2b8b0093,1,,,,,,carrot,,,,,,,,,,,2,0,0,24,24,12,1,,,,,,,,,,,,,,,,,,,,,,,,,,,,,,,,,,,,,,,,,,,,,,,,,,,,,,,,,,,,,,,,,,,,,,
,,?,0.00079,0,,,,,,stimuli/images/PICTURE_469.png,LETTER,5e307cef0effe1000c01d541,10/09/1998,2020-08-27_09h39.40.213,proactive3.2,2020.1.2,MacIntel,60,5f47c0b9b035471e11593a5c,5f47c5854f5ff41f2b8b0093,1,,,,,,stool,,,,,,,,,,,5,0,0,25,25,42,1,,,,,,,,,,,,,,,,,,,,,,,,,,,,,,,,,,,,,,,,,,,,,,,,,,,,,,,,,,,,,,,,,,,,,,
,,?,0.000805,0,,,,,,stimuli/images/PICTURE_160.png,FEET,5e307cef0effe1000c01d541,10/09/1998,2020-08-27_09h39.40.213,proactive3.2,2020.1.2,MacIntel,60,5f47c0b9b035471e11593a5c,5f47c5854f5ff41f2b8b0093,1,,,,,,wheelbarrow,,,,,,,,,,,6,0,0,26,26,58,1,,,,,,,,,,,,,,,,,,,,,,,,,,,,,,,,,,,,,,,,,,,,,,,,,,,,,,,,,,,,,,,,,,,,,,
,,?,0.000655,0,,,,,,stimuli/images/PICTURE_327.png,BEAUTY,5e307cef0effe1000c01d541,10/09/1998,2020-08-27_09h39.40.213,proactive3.2,2020.1.2,MacIntel,60,5f47c0b9b035471e11593a5c,5f47c5854f5ff41f2b8b0093,1,,,,,,helmet,,,,,,,,,,,5,0,0,27,27,48,1,,,,,,,,,,,,,,,,,,,,,,,,,,,,,,,,,,,,,,,,,,,,,,,,,,,,,,,,,,,,,,,,,,,,,,
,,?,0.000735,0,,,,,,stimuli/images/PICTURE_509.png,PHOTO,5e307cef0effe1000c01d541,10/09/1998,2020-08-27_09h39.40.213,proactive3.2,2020.1.2,MacIntel,60,5f47c0b9b035471e11593a5c,5f47c5854f5ff41f2b8b0093,1,,,,,,telephone,,,,,,,,,,,3,0,0,28,28,21,1,,,,,,,,,,,,,,,,,,,,,,,,,,,,,,,,,,,,,,,,,,,,,,,,,,,,,,,,,,,,,,,,,,,,,,
,,?,0.000715,0,,,,,,stimuli/images/PICTURE_356.png,DANGER,5e307cef0effe1000c01d541,10/09/1998,2020-08-27_09h39.40.213,proactive3.2,2020.1.2,MacIntel,60,5f47c0b9b035471e11593a5c,5f47c5854f5ff41f2b8b0093,1,,,,,,pawn,,,,,,,,,,,6,0,0,29,29,55,1,,,,,,,,,,,,,,,,,,,,,,,,,,,,,,,,,,,,,,,,,,,,,,,,,,,,,,,,,,,,,,,,,,,,,,
,,?,0.000645,0,,,,,,stimuli/images/PICTURE_208.png,THING,5e307cef0effe1000c01d541,10/09/1998,2020-08-27_09h39.40.213,proactive3.2,2020.1.2,MacIntel,60,5f47c0b9b035471e11593a5c,5f47c5854f5ff41f2b8b0093,1,,,,,,microphone,,,,,,,,,,,5,0,0,30,30,47,1,,,,,,,,,,,,,,,,,,,,,,,,,,,,,,,,,,,,,,,,,,,,,,,,,,,,,,,,,,,,,,,,,,,,,,
,,SAKE,1.96111,1,,,,,,stimuli/images/PICTURE_314.png,SAKE,5e307cef0effe1000c01d541,10/09/1998,2020-08-27_09h39.40.213,proactive3.2,2020.1.2,MacIntel,60,5f47c0b9b035471e11593a5c,5f47c5854f5ff41f2b8b0093,1,,,,,,perfume,,,,,,,,,,,1,0,0,31,31,7,1,,,,,,,,,,,,,,,,,,,,,,,,,,,,,,,,,,,,,,,,,,,,,,,,,,,,,,,,,,,,,,,,,,,,,,
,,?,0.001085,0,,,,,,stimuli/images/PICTURE_248.png,DOZEN,5e307cef0effe1000c01d541,10/09/1998,2020-08-27_09h39.40.213,proactive3.2,2020.1.2,MacIntel,60,5f47c0b9b035471e11593a5c,5f47c5854f5ff41f2b8b0093,1,,,,,,cart,,,,,,,,,,,4,0,0,32,32,39,1,,,,,,,,,,,,,,,,,,,,,,,,,,,,,,,,,,,,,,,,,,,,,,,,,,,,,,,,,,,,,,,,,,,,,,
,,?,0.001005,0,,,,,,stimuli/images/PICTURE_68.png,MILE,5e307cef0effe1000c01d541,10/09/1998,2020-08-27_09h39.40.213,proactive3.2,2020.1.2,MacIntel,60,5f47c0b9b035471e11593a5c,5f47c5854f5ff41f2b8b0093,1,,,,,,candle,,,,,,,,,,,5,0,0,33,33,44,1,,,,,,,,,,,,,,,,,,,,,,,,,,,,,,,,,,,,,,,,,,,,,,,,,,,,,,,,,,,,,,,,,,,,,,
,,?,0.00097,0,,,,,,stimuli/images/PICTURE_147.png,MOMENT,5e307cef0effe1000c01d541,10/09/1998,2020-08-27_09h39.40.213,proactive3.2,2020.1.2,MacIntel,60,5f47c0b9b035471e11593a5c,5f47c5854f5ff41f2b8b0093,1,,,,,,hanger,,,,,,,,,,,6,0,0,34,34,51,1,,,,,,,,,,,,,,,,,,,,,,,,,,,,,,,,,,,,,,,,,,,,,,,,,,,,,,,,,,,,,,,,,,,,,,
,,?,0.000935,0,,,,,,stimuli/images/PICTURE_744.png,SYSTEM,5e307cef0effe1000c01d541,10/09/1998,2020-08-27_09h39.40.213,proactive3.2,2020.1.2,MacIntel,60,5f47c0b9b035471e11593a5c,5f47c5854f5ff41f2b8b0093,1,,,,,,ring,,,,,,,,,,,5,0,0,35,35,43,1,,,,,,,,,,,,,,,,,,,,,,,,,,,,,,,,,,,,,,,,,,,,,,,,,,,,,,,,,,,,,,,,,,,,,,
,,?,0.000945,0,,,,,,stimuli/images/PICTURE_177.png,CARS,5e307cef0effe1000c01d541,10/09/1998,2020-08-27_09h39.40.213,proactive3.2,2020.1.2,MacIntel,60,5f47c0b9b035471e11593a5c,5f47c5854f5ff41f2b8b0093,1,,,,,,mushroom,,,,,,,,,,,4,0,0,36,36,35,1,,,,,,,,,,,,,,,,,,,,,,,,,,,,,,,,,,,,,,,,,,,,,,,,,,,,,,,,,,,,,,,,,,,,,,
,,BODY,2.82915,1,,,,,,stimuli/images/PICTURE_504.png,BODY,5e307cef0effe1000c01d541,10/09/1998,2020-08-27_09h39.40.213,proactive3.2,2020.1.2,MacIntel,60,5f47c0b9b035471e11593a5c,5f47c5854f5ff41f2b8b0093,1,,,,,,wheel,,,,,,,,,,,1,0,0,37,37,8,1,,,,,,,,,,,,,,,,,,,,,,,,,,,,,,,,,,,,,,,,,,,,,,,,,,,,,,,,,,,,,,,,,,,,,,
,,?,0.000795,0,,,,,,stimuli/images/PICTURE_491.png,ROOF,5e307cef0effe1000c01d541,10/09/1998,2020-08-27_09h39.40.213,proactive3.2,2020.1.2,MacIntel,60,5f47c0b9b035471e11593a5c,5f47c5854f5ff41f2b8b0093,1,,,,,,rug,,,,,,,,,,,3,0,0,38,38,24,1,,,,,,,,,,,,,,,,,,,,,,,,,,,,,,,,,,,,,,,,,,,,,,,,,,,,,,,,,,,,,,,,,,,,,,
,,?,0.000765,0,,,,,,stimuli/images/PICTURE_308.png,ESTATE,5e307cef0effe1000c01d541,10/09/1998,2020-08-27_09h39.40.213,proactive3.2,2020.1.2,MacIntel,60,5f47c0b9b035471e11593a5c,5f47c5854f5ff41f2b8b0093,1,,,,,,dice,,,,,,,,,,,5,0,0,39,39,46,1,,,,,,,,,,,,,,,,,,,,,,,,,,,,,,,,,,,,,,,,,,,,,,,,,,,,,,,,,,,,,,,,,,,,,,
,,?,0.0008,0,,,,,,stimuli/images/PICTURE_208.png,MONTH,5e307cef0effe1000c01d541,10/09/1998,2020-08-27_09h39.40.213,proactive3.2,2020.1.2,MacIntel,60,5f47c0b9b035471e11593a5c,5f47c5854f5ff41f2b8b0093,1,,,,,,microphone,,,,,,,,,,,6,0,0,40,40,53,1,,,,,,,,,,,,,,,,,,,,,,,,,,,,,,,,,,,,,,,,,,,,,,,,,,,,,,,,,,,,,,,,,,,,,,
,,PLENTY,1.83531,1,,,,,,stimuli/images/PICTURE_339.png,PLENTY,5e307cef0effe1000c01d541,10/09/1998,2020-08-27_09h39.40.213,proactive3.2,2020.1.2,MacIntel,60,5f47c0b9b035471e11593a5c,5f47c5854f5ff41f2b8b0093,1,,,,,,backpack,,,,,,,,,,,1,0,0,41,41,0,1,,,,,,,,,,,,,,,,,,,,,,,,,,,,,,,,,,,,,,,,,,,,,,,,,,,,,,,,,,,,,,,,,,,,,,
,,?,0.001235,0,,,,,,stimuli/images/PICTURE_677.png,MILE,5e307cef0effe1000c01d541,10/09/1998,2020-08-27_09h39.40.213,proactive3.2,2020.1.2,MacIntel,60,5f47c0b9b035471e11593a5c,5f47c5854f5ff41f2b8b0093,1,,,,,,map,,,,,,,,,,,4,0,0,42,42,30,1,,,,,,,,,,,,,,,,,,,,,,,,,,,,,,,,,,,,,,,,,,,,,,,,,,,,,,,,,,,,,,,,,,,,,,
,,?,0.00082,0,,,,,,stimuli/images/PICTURE_32.png,JUNGLE,5e307cef0effe1000c01d541,10/09/1998,2020-08-27_09h39.40.213,proactive3.2,2020.1.2,MacIntel,60,5f47c0b9b035471e11593a5c,5f47c5854f5ff41f2b8b0093,1,,,,,,crown,,,,,,,,,,,5,0,0,43,43,45,1,,,,,,,,,,,,,,,,,,,,,,,,,,,,,,,,,,,,,,,,,,,,,,,,,,,,,,,,,,,,,,,,,,,,,,
,,VALLEY,2.15004,1,,,,,,stimuli/images/PICTURE_654.png,VALLEY,5e307cef0effe1000c01d541,10/09/1998,2020-08-27_09h39.40.213,proactive3.2,2020.1.2,MacIntel,60,5f47c0b9b035471e11593a5c,5f47c5854f5ff41f2b8b0093,1,,,,,,pencil,,,,,,,,,,,1,0,0,44,44,1,1,,,,,,,,,,,,,,,,,,,,,,,,,,,,,,,,,,,,,,,,,,,,,,,,,,,,,,,,,,,,,,,,,,,,,,
,,?,0.001865,0,,,,,,stimuli/images/PICTURE_453.png,PLENTY,5e307cef0effe1000c01d541,10/09/1998,2020-08-27_09h39.40.213,proactive3.2,2020.1.2,MacIntel,60,5f47c0b9b035471e11593a5c,5f47c5854f5ff41f2b8b0093,1,,,,,,scissors,,,,,,,,,,,6,0,0,45,45,56,1,,,,,,,,,,,,,,,,,,,,,,,,,,,,,,,,,,,,,,,,,,,,,,,,,,,,,,,,,,,,,,,,,,,,,,
,,?,0.00106,0,,,,,,stimuli/images/PICTURE_233.png,IDEAS,5e307cef0effe1000c01d541,10/09/1998,2020-08-27_09h39.40.213,proactive3.2,2020.1.2,MacIntel,60,5f47c0b9b035471e11593a5c,5f47c5854f5ff41f2b8b0093,1,,,,,,salt,,,,,,,,,,,3,0,0,46,46,28,1,,,,,,,,,,,,,,,,,,,,,,,,,,,,,,,,,,,,,,,,,,,,,,,,,,,,,,,,,,,,,,,,,,,,,,
,,?,0.00086,0,,,,,,stimuli/images/PICTURE_314.png,GODS,5e307cef0effe1000c01d541,10/09/1998,2020-08-27_09h39.40.213,proactive3.2,2020.1.2,MacIntel,60,5f47c0b9b035471e11593a5c,5f47c5854f5ff41f2b8b0093,1,,,,,,perfume,,,,,,,,,,,2,0,0,47,47,11,1,,,,,,,,,,,,,,,,,,,,,,,,,,,,,,,,,,,,,,,,,,,,,,,,,,,,,,,,,,,,,,,,,,,,,,
,,?,0.0014,0,,,,,,stimuli/images/PICTURE_311.png,BEAUTY,5e307cef0effe1000c01d541,10/09/1998,2020-08-27_09h39.40.213,proactive3.2,2020.1.2,MacIntel,60,5f47c0b9b035471e11593a5c,5f47c5854f5ff41f2b8b0093,1,,,,,,razor,,,,,,,,,,,2,0,0,48,48,13,1,,,,,,,,,,,,,,,,,,,,,,,,,,,,,,,,,,,,,,,,,,,,,,,,,,,,,,,,,,,,,,,,,,,,,,
,,?,0.000675,0,,,,,,stimuli/images/PICTURE_708.png,PENNY,5e307cef0effe1000c01d541,10/09/1998,2020-08-27_09h39.40.213,proactive3.2,2020.1.2,MacIntel,60,5f47c0b9b035471e11593a5c,5f47c5854f5ff41f2b8b0093,1,,,,,,monkey,,,,,,,,,,,4,0,0,49,49,31,1,,,,,,,,,,,,,,,,,,,,,,,,,,,,,,,,,,,,,,,,,,,,,,,,,,,,,,,,,,,,,,,,,,,,,,
,,?,0.0006,0,,,,,,stimuli/images/PICTURE_123.png,ADVICE,5e307cef0effe1000c01d541,10/09/1998,2020-08-27_09h39.40.213,proactive3.2,2020.1.2,MacIntel,60,5f47c0b9b035471e11593a5c,5f47c5854f5ff41f2b8b0093,1,,,,,,dart,,,,,,,,,,,5,0,0,50,50,40,1,,,,,,,,,,,,,,,,,,,,,,,,,,,,,,,,,,,,,,,,,,,,,,,,,,,,,,,,,,,,,,,,,,,,,,
,,?,0.000795,0,,,,,,stimuli/images/PICTURE_208.png,LOTS,5e307cef0effe1000c01d541,10/09/1998,2020-08-27_09h39.40.213,proactive3.2,2020.1.2,MacIntel,60,5f47c0b9b035471e11593a5c,5f47c5854f5ff41f2b8b0093,1,,,,,,microphone,,,,,,,,,,,2,0,0,51,51,10,1,,,,,,,,,,,,,,,,,,,,,,,,,,,,,,,,,,,,,,,,,,,,,,,,,,,,,,,,,,,,,,,,,,,,,,
,,?,0.000855,0,,,,,,stimuli/images/PICTURE_488.png,STYLE,5e307cef0effe1000c01d541,10/09/1998,2020-08-27_09h39.40.213,proactive3.2,2020.1.2,MacIntel,60,5f47c0b9b035471e11593a5c,5f47c5854f5ff41f2b8b0093,1,,,,,,sun,,,,,,,,,,,4,0,0,52,52,33,1,,,,,,,,,,,,,,,,,,,,,,,,,,,,,,,,,,,,,,,,,,,,,,,,,,,,,,,,,,,,,,,,,,,,,,
,,?,0.00074,0,,,,,,stimuli/images/PICTURE_449.png,THING,5e307cef0effe1000c01d541,10/09/1998,2020-08-27_09h39.40.213,proactive3.2,2020.1.2,MacIntel,60,5f47c0b9b035471e11593a5c,5f47c5854f5ff41f2b8b0093,1,,,,,,bench,,,,,,,,,,,6,0,0,53,53,59,1,,,,,,,,,,,,,,,,,,,,,,,,,,,,,,,,,,,,,,,,,,,,,,,,,,,,,,,,,,,,,,,,,,,,,,
,,?,0.0007,0,,,,,,stimuli/images/PICTURE_467.png,DEMON,5e307cef0effe1000c01d541,10/09/1998,2020-08-27_09h39.40.213,proactive3.2,2020.1.2,MacIntel,60,5f47c0b9b035471e11593a5c,5f47c5854f5ff41f2b8b0093,1,,,,,,peg,,,,,,,,,,,3,0,0,54,54,23,1,,,,,,,,,,,,,,,,,,,,,,,,,,,,,,,,,,,,,,,,,,,,,,,,,,,,,,,,,,,,,,,,,,,,,,
,,CASINO,2.032495,1,,,,,,stimuli/images/PICTURE_688.png,CASINO,5e307cef0effe1000c01d541,10/09/1998,2020-08-27_09h39.40.213,proactive3.2,2020.1.2,MacIntel,60,5f47c0b9b035471e11593a5c,5f47c5854f5ff41f2b8b0093,1,,,,,,runner,,,,,,,,,,,1,0,0,55,55,2,1,,,,,,,,,,,,,,,,,,,,,,,,,,,,,,,,,,,,,,,,,,,,,,,,,,,,,,,,,,,,,,,,,,,,,,
,,ARTIST,2.01922,1,,,,,,stimuli/images/PICTURE_469.png,ARTIST,5e307cef0effe1000c01d541,10/09/1998,2020-08-27_09h39.40.213,proactive3.2,2020.1.2,MacIntel,60,5f47c0b9b035471e11593a5c,5f47c5854f5ff41f2b8b0093,1,,,,,,stool,,,,,,,,,,,1,0,0,56,56,6,1,,,,,,,,,,,,,,,,,,,,,,,,,,,,,,,,,,,,,,,,,,,,,,,,,,,,,,,,,,,,,,,,,,,,,,
,,?,0.001295,0,,,,,,stimuli/images/PICTURE_744.png,SAKE,5e307cef0effe1000c01d541,10/09/1998,2020-08-27_09h39.40.213,proactive3.2,2020.1.2,MacIntel,60,5f47c0b9b035471e11593a5c,5f47c5854f5ff41f2b8b0093,1,,,,,,ring,,,,,,,,,,,2,0,0,57,57,17,1,,,,,,,,,,,,,,,,,,,,,,,,,,,,,,,,,,,,,,,,,,,,,,,,,,,,,,,,,,,,,,,,,,,,,,
,,?,0.00068,0,,,,,,stimuli/images/PICTURE_453.png,DUDE,5e307cef0effe1000c01d541,10/09/1998,2020-08-27_09h39.40.213,proactive3.2,2020.1.2,MacIntel,60,5f47c0b9b035471e11593a5c,5f47c5854f5ff41f2b8b0093,1,,,,,,scissors,,,,,,,,,,,3,0,0,58,58,27,1,,,,,,,,,,,,,,,,,,,,,,,,,,,,,,,,,,,,,,,,,,,,,,,,,,,,,,,,,,,,,,,,,,,,,,
,,?,0.000835,0,,,,,,stimuli/images/PICTURE_85.png,THING,5e307cef0effe1000c01d541,10/09/1998,2020-08-27_09h39.40.213,proactive3.2,2020.1.2,MacIntel,60,5f47c0b9b035471e11593a5c,5f47c5854f5ff41f2b8b0093,1,,,,,,diamond,,,,,,,,,,,2,0,0,59,59,15,1,,,,,,,,,,,,,,,,,,,,,,,,,,,,,,,,,,,,,,,,,,,,,,,,,,,,,,,,,,,,,,,,,,,,,,
,,,,,,,,,,,,5e307cef0effe1000c01d541,10/09/1998,2020-08-27_09h39.40.213,proactive3.2,2020.1.2,MacIntel,60,5f47c0b9b035471e11593a5c,5f47c5854f5ff41f2b8b0093,1,,,,,,,,,,,,,,,,,,,,,,,,0,0,0,0,1,stimuli/learn-block1.csv,,,,,,,,,,,,,,,,,,,,,,,,,,,,,,,,,,,,,,,,,,,,,,,,,,,,,,,,,,,,,,,,
,,,,,,,,,,stimuli/images/PICTURE_750.png,HOTEL,5e307cef0effe1000c01d541,10/09/1998,2020-08-27_09h39.40.213,proactive3.2,2020.1.2,MacIntel,60,5f47c0b9b035471e11593a5c,5f47c5854f5ff41f2b8b0093,1,,,,,,kettle,,,,,,0,0,0,27,1,3,1,,,,,,,,,,,,,,,,,,,,,,,,,,,,,,,,,,,,,,,,,,,,,,,,,,,,,,,,,,,,,,,,,,,,,,,,,,,
,,,,,,,,,,stimuli/images/PICTURE_340.png,VALLEY,5e307cef0effe1000c01d541,10/09/1998,2020-08-27_09h39.40.213,proactive3.2,2020.1.2,MacIntel,60,5f47c0b9b035471e11593a5c,5f47c5854f5ff41f2b8b0093,1,,,,,,mirror,,,,,,0,1,1,54,1,6,1,,,,,,,,,,,,,,,,,,,,,,,,,,,,,,,,,,,,,,,,,,,,,,,,,,,,,,,,,,,,,,,,,,,,,,,,,,,
,,,,,,,,,,stimuli/images/PICTURE_491.png,GLASS,5e307cef0effe1000c01d541,10/09/1998,2020-08-27_09h39.40.213,proactive3.2,2020.1.2,MacIntel,60,5f47c0b9b035471e11593a5c,5f47c5854f5ff41f2b8b0093,1,,,,,,rug,,,,,,0,2,2,14,1,2,1,,,,,,,,,,,,,,,,,,,,,,,,,,,,,,,,,,,,,,,,,,,,,,,,,,,,,,,,,,,,,,,,,,,,,,,,,,,
,,,,,,,,,,stimuli/images/PICTURE_57.png,MOMENT,5e307cef0effe1000c01d541,10/09/1998,2020-08-27_09h39.40.213,proactive3.2,2020.1.2,MacIntel,60,5f47c0b9b035471e11593a5c,5f47c5854f5ff41f2b8b0093,1,,,,,,stamp,,,,,,0,3,3,37,1,4,1,,,,,,,,,,,,,,,,,,,,,,,,,,,,,,,,,,,,,,,,,,,,,,,,,,,,,,,,,,,,,,,,,,,,,,,,,,,
,,,,,,,,,,stimuli/images/PICTURE_405.png,YEAR,5e307cef0effe1000c01d541,10/09/1998,2020-08-27_09h39.40.213,proactive3.2,2020.1.2,MacIntel,60,5f47c0b9b035471e11593a5c,5f47c5854f5ff41f2b8b0093,1,,,,,,anchor,,,,,,0,4,4,34,1,4,1,,,,,,,,,,,,,,,,,,,,,,,,,,,,,,,,,,,,,,,,,,,,,,,,,,,,,,,,,,,,,,,,,,,,,,,,,,,
,,,,,,,,,,stimuli/images/PICTURE_32.png,KIND,5e307cef0effe1000c01d541,10/09/1998,2020-08-27_09h39.40.213,proactive3.2,2020.1.2,MacIntel,60,5f47c0b9b035471e11593a5c,5f47c5854f5ff41f2b8b0093,1,,,,,,crown,,,,,,0,5,5,35,1,4,1,,,,,,,,,,,,,,,,,,,,,,,,,,,,,,,,,,,,,,,,,,,,,,,,,,,,,,,,,,,,,,,,,,,,,,,,,,,
,,,,,,,,,,stimuli/images/PICTURE_744.png,WEAPON,5e307cef0effe1000c01d541,10/09/1998,2020-08-27_09h39.40.213,proactive3.2,2020.1.2,MacIntel,60,5f47c0b9b035471e11593a5c,5f47c5854f5ff41f2b8b0093,1,,,,,,ring,,,,,,0,6,6,50,1,6,1,,,,,,,,,,,,,,,,,,,,,,,,,,,,,,,,,,,,,,,,,,,,,,,,,,,,,,,,,,,,,,,,,,,,,,,,,,,
,,,,,,,,,,stimuli/images/PICTURE_405.png,PLENTY,5e307cef0effe1000c01d541,10/09/1998,2020-08-27_09h39.40.213,proactive3.2,2020.1.2,MacIntel,60,5f47c0b9b035471e11593a5c,5f47c5854f5ff41f2b8b0093,1,,,,,,anchor,,,,,,0,7,7,23,1,3,1,,,,,,,,,,,,,,,,,,,,,,,,,,,,,,,,,,,,,,,,,,,,,,,,,,,,,,,,,,,,,,,,,,,,,,,,,,,
,,,,,,,,,,stimuli/images/PICTURE_383.png,SERIES,5e307cef0effe1000c01d541,10/09/1998,2020-08-27_09h39.40.213,proactive3.2,2020.1.2,MacIntel,60,5f47c0b9b035471e11593a5c,5f47c5854f5ff41f2b8b0093,1,,,,,,coin,,,,,,0,8,8,46,1,5,1,,,,,,,,,,,,,,,,,,,,,,,,,,,,,,,,,,,,,,,,,,,,,,,,,,,,,,,,,,,,,,,,,,,,,,,,,,,
,,,,,,,,,,stimuli/images/PICTURE_340.png,LETTER,5e307cef0effe1000c01d541,10/09/1998,2020-08-27_09h39.40.213,proactive3.2,2020.1.2,MacIntel,60,5f47c0b9b035471e11593a5c,5f47c5854f5ff41f2b8b0093,1,,,,,,mirror,,,,,,0,9,9,24,1,3,1,,,,,,,,,,,,,,,,,,,,,,,,,,,,,,,,,,,,,,,,,,,,,,,,,,,,,,,,,,,,,,,,,,,,,,,,,,,
,,,,,,,,,,stimuli/images/PICTURE_403.png,WRITER,5e307cef0effe1000c01d541,10/09/1998,2020-08-27_09h39.40.213,proactive3.2,2020.1.2,MacIntel,60,5f47c0b9b035471e11593a5c,5f47c5854f5ff41f2b8b0093,1,,,,,,cathedral,,,,,,0,10,10,31,1,4,1,,,,,,,,,,,,,,,,,,,,,,,,,,,,,,,,,,,,,,,,,,,,,,,,,,,,,,,,,,,,,,,,,,,,,,,,,,,
,,,,,,,,,,stimuli/images/PICTURE_147.png,WOMEN,5e307cef0effe1000c01d541,10/09/1998,2020-08-27_09h39.40.213,proactive3.2,2020.1.2,MacIntel,60,5f47c0b9b035471e11593a5c,5f47c5854f5ff41f2b8b0093,1,,,,,,hanger,,,,,,0,11,11,7,1,1,1,,,,,,,,,,,,,,,,,,,,,,,,,,,,,,,,,,,,,,,,,,,,,,,,,,,,,,,,,,,,,,,,,,,,,,,,,,,
,,,,,,,,,,stimuli/images/PICTURE_32.png,PILLS,5e307cef0effe1000c01d541,10/09/1998,2020-08-27_09h39.40.213,proactive3.2,2020.1.2,MacIntel,60,5f47c0b9b035471e11593a5c,5f47c5854f5ff41f2b8b0093,1,,,,,,crown,,,,,,0,12,12,18,1,2,1,,,,,,,,,,,,,,,,,,,,,,,,,,,,,,,,,,,,,,,,,,,,,,,,,,,,,,,,,,,,,,,,,,,,,,,,,,,
,,,,,,,,,,stimuli/images/PICTURE_487.png,GIRL,5e307cef0effe1000c01d541,10/09/1998,2020-08-27_09h39.40.213,proactive3.2,2020.1.2,MacIntel,60,5f47c0b9b035471e11593a5c,5f47c5854f5ff41f2b8b0093,1,,,,,,basket,,,,,,0,13,13,45,1,5,1,,,,,,,,,,,,,,,,,,,,,,,,,,,,,,,,,,,,,,,,,,,,,,,,,,,,,,,,,,,,,,,,,,,,,,,,,,,
,,,,,,,,,,stimuli/images/PICTURE_677.png,APPLE,5e307cef0effe1000c01d541,10/09/1998,2020-08-27_09h39.40.213,proactive3.2,2020.1.2,MacIntel,60,5f47c0b9b035471e11593a5c,5f47c5854f5ff41f2b8b0093,1,,,,,,map,,,,,,0,14,14,43,1,5,1,,,,,,,,,,,,,,,,,,,,,,,,,,,,,,,,,,,,,,,,,,,,,,,,,,,,,,,,,,,,,,,,,,,,,,,,,,,
,,,,,,,,,,stimuli/images/PICTURE_327.png,CASINO,5e307cef0effe1000c01d541,10/09/1998,2020-08-27_09h39.40.213,proactive3.2,2020.1.2,MacIntel,60,5f47c0b9b035471e11593a5c,5f47c5854f5ff41f2b8b0093,1,,,,,,helmet,,,,,,0,15,15,20,1,3,1,,,,,,,,,,,,,,,,,,,,,,,,,,,,,,,,,,,,,,,,,,,,,,,,,,,,,,,,,,,,,,,,,,,,,,,,,,,
,,,,,,,,,,stimuli/images/PICTURE_685.png,PENNY,5e307cef0effe1000c01d541,10/09/1998,2020-08-27_09h39.40.213,proactive3.2,2020.1.2,MacIntel,60,5f47c0b9b035471e11593a5c,5f47c5854f5ff41f2b8b0093,1,,,,,,goose,,,,,,0,16,16,4,1,1,1,,,,,,,,,,,,,,,,,,,,,,,,,,,,,,,,,,,,,,,,,,,,,,,,,,,,,,,,,,,,,,,,,,,,,,,,,,,
,,,,,,,,,,stimuli/images/PICTURE_2.png,FLIGHT,5e307cef0effe1000c01d541,10/09/1998,2020-08-27_09h39.40.213,proactive3.2,2020.1.2,MacIntel,60,5f47c0b9b035471e11593a5c,5f47c5854f5ff41f2b8b0093,1,,,,,,tyre,,,,,,0,17,17,15,1,2,1,,,,,,,,,,,,,,,,,,,,,,,,,,,,,,,,,,,,,,,,,,,,,,,,,,,,,,,,,,,,,,,,,,,,,,,,,,,
,,,,,,,,,,stimuli/images/PICTURE_68.png,MILE,5e307cef0effe1000c01d541,10/09/1998,2020-08-27_09h39.40.213,proactive3.2,2020.1.2,MacIntel,60,5f47c0b9b035471e11593a5c,5f47c5854f5ff41f2b8b0093,1,,,,,,candle,,,,,,0,18,18,51,1,6,1,,,,,,,,,,,,,,,,,,,,,,,,,,,,,,,,,,,,,,,,,,,,,,,,,,,,,,,,,,,,,,,,,,,,,,,,,,,
,,,,,,,,,,stimuli/images/PICTURE_403.png,TOILET,5e307cef0effe1000c01d541,10/09/1998,2020-08-27_09h39.40.213,proactive3.2,2020.1.2,MacIntel,60,5f47c0b9b035471e11593a5c,5f47c5854f5ff41f2b8b0093,1,,,,,,cathedral,,,,,,0,19,19,25,1,3,1,,,,,,,,,,,,,,,,,,,,,,,,,,,,,,,,,,,,,,,,,,,,,,,,,,,,,,,,,,,,,,,,,,,,,,,,,,,
,,,,,,,,,,stimuli/images/PICTURE_203.png,NIGHT,5e307cef0effe1000c01d541,10/09/1998,2020-08-27_09h39.40.213,proactive3.2,2020.1.2,MacIntel,60,5f47c0b9b035471e11593a5c,5f47c5854f5ff41f2b8b0093,1,,,,,,cap,,,,,,0,20,20,2,1,1,1,,,,,,,,,,,,,,,,,,,,,,,,,,,,,,,,,,,,,,,,,,,,,,,,,,,,,,,,,,,,,,,,,,,,,,,,,,,
,,,,,,,,,,stimuli/images/PICTURE_667.png,RIVER,5e307cef0effe1000c01d541,10/09/1998,2020-08-27_09h39.40.213,proactive3.2,2020.1.2,MacIntel,60,5f47c0b9b035471e11593a5c,5f47c5854f5ff41f2b8b0093,1,,,,,,daisy,,,,,,0,21,21,10,1,2,1,,,,,,,,,,,,,,,,,,,,,,,,,,,,,,,,,,,,,,,,,,,,,,,,,,,,,,,,,,,,,,,,,,,,,,,,,,,
,,,,,,,,,,stimuli/images/PICTURE_708.png,RECORD,5e307cef0effe1000c01d541,10/09/1998,2020-08-27_09h39.40.213,proactive3.2,2020.1.2,MacIntel,60,5f47c0b9b035471e11593a5c,5f47c5854f5ff41f2b8b0093,1,,,,,,monkey,,,,,,0,22,22,58,1,6,1,,,,,,,,,,,,,,,,,,,,,,,,,,,,,,,,,,,,,,,,,,,,,,,,,,,,,,,,,,,,,,,,,,,,,,,,,,,
,,,,,,,,,,stimuli/images/PICTURE_33.png,FRIEND,5e307cef0effe1000c01d541,10/09/1998,2020-08-27_09h39.40.213,proactive3.2,2020.1.2,MacIntel,60,5f47c0b9b035471e11593a5c,5f47c5854f5ff41f2b8b0093,1,,,,,,frame,,,,,,0,23,23,8,1,1,1,,,,,,,,,,,,,,,,,,,,,,,,,,,,,,,,,,,,,,,,,,,,,,,,,,,,,,,,,,,,,,,,,,,,,,,,,,,
,,,,,,,,,,stimuli/images/PICTURE_449.png,DUDE,5e307cef0effe1000c01d541,10/09/1998,2020-08-27_09h39.40.213,proactive3.2,2020.1.2,MacIntel,60,5f47c0b9b035471e11593a5c,5f47c5854f5ff41f2b8b0093,1,,,,,,bench,,,,,,0,24,24,17,1,2,1,,,,,,,,,,,,,,,,,,,,,,,,,,,,,,,,,,,,,,,,,,,,,,,,,,,,,,,,,,,,,,,,,,,,,,,,,,,
,,,,,,,,,,stimuli/images/PICTURE_655.png,TOILET,5e307cef0effe1000c01d541,10/09/1998,2020-08-27_09h39.40.213,proactive3.2,2020.1.2,MacIntel,60,5f47c0b9b035471e11593a5c,5f47c5854f5ff41f2b8b0093,1,,,,,,megaphone,,,,,,0,25,25,12,1,2,1,,,,,,,,,,,,,,,,,,,,,,,,,,,,,,,,,,,,,,,,,,,,,,,,,,,,,,,,,,,,,,,,,,,,,,,,,,,
,,,,,,,,,,stimuli/images/PICTURE_68.png,ROOF,5e307cef0effe1000c01d541,10/09/1998,2020-08-27_09h39.40.213,proactive3.2,2020.1.2,MacIntel,60,5f47c0b9b035471e11593a5c,5f47c5854f5ff41f2b8b0093,1,,,,,,candle,,,,,,0,26,26,38,1,4,1,,,,,,,,,,,,,,,,,,,,,,,,,,,,,,,,,,,,,,,,,,,,,,,,,,,,,,,,,,,,,,,,,,,,,,,,,,,
,,,,,,,,,,stimuli/images/PICTURE_339.png,CLIENT,5e307cef0effe1000c01d541,10/09/1998,2020-08-27_09h39.40.213,proactive3.2,2020.1.2,MacIntel,60,5f47c0b9b035471e11593a5c,5f47c5854f5ff41f2b8b0093,1,,,,,,backpack,,,,,,0,27,27,11,1,2,1,,,,,,,,,,,,,,,,,,,,,,,,,,,,,,,,,,,,,,,,,,,,,,,,,,,,,,,,,,,,,,,,,,,,,,,,,,,
,,,,,,,,,,stimuli/images/PICTURE_327.png,SERIES,5e307cef0effe1000c01d541,10/09/1998,2020-08-27_09h39.40.213,proactive3.2,2020.1.2,MacIntel,60,5f47c0b9b035471e11593a5c,5f47c5854f5ff41f2b8b0093,1,,,,,,helmet,,,,,,0,28,28,3,1,1,1,,,,,,,,,,,,,,,,,,,,,,,,,,,,,,,,,,,,,,,,,,,,,,,,,,,,,,,,,,,,,,,,,,,,,,,,,,,
,,,,,,,,,,stimuli/images/PICTURE_208.png,SYSTEM,5e307cef0effe1000c01d541,10/09/1998,2020-08-27_09h39.40.213,proactive3.2,2020.1.2,MacIntel,60,5f47c0b9b035471e11593a5c,5f47c5854f5ff41f2b8b0093,1,,,,,,microphone,,,,,,0,29,29,32,1,4,1,,,,,,,,,,,,,,,,,,,,,,,,,,,,,,,,,,,,,,,,,,,,,,,,,,,,,,,,,,,,,,,,,,,,,,,,,,,
,,,,,,,,,,stimuli/images/PICTURE_654.png,MONTH,5e307cef0effe1000c01d541,10/09/1998,2020-08-27_09h39.40.213,proactive3.2,2020.1.2,MacIntel,60,5f47c0b9b035471e11593a5c,5f47c5854f5ff41f2b8b0093,1,,,,,,pencil,,,,,,0,30,30,29,1,3,1,,,,,,,,,,,,,,,,,,,,,,,,,,,,,,,,,,,,,,,,,,,,,,,,,,,,,,,,,,,,,,,,,,,,,,,,,,,
,,,,,,,,,,stimuli/images/PICTURE_233.png,LOTS,5e307cef0effe1000c01d541,10/09/1998,2020-08-27_09h39.40.213,proactive3.2,2020.1.2,MacIntel,60,5f47c0b9b035471e11593a5c,5f47c5854f5ff41f2b8b0093,1,,,,,,salt,,,,,,0,31,31,42,1,5,1,,,,,,,,,,,,,,,,,,,,,,,,,,,,,,,,,,,,,,,,,,,,,,,,,,,,,,,,,,,,,,,,,,,,,,,,,,,
,,,,,,,,,,stimuli/images/PICTURE_491.png,RIVER,5e307cef0effe1000c01d541,10/09/1998,2020-08-27_09h39.40.213,proactive3.2,2020.1.2,MacIntel,60,5f47c0b9b035471e11593a5c,5f47c5854f5ff41f2b8b0093,1,,,,,,rug,,,,,,0,32,32,6,1,1,1,,,,,,,,,,,,,,,,,,,,,,,,,,,,,,,,,,,,,,,,,,,,,,,,,,,,,,,,,,,,,,,,,,,,,,,,,,,
,,,,,,,,,,stimuli/images/PICTURE_380.png,HONEY,5e307cef0effe1000c01d541,10/09/1998,2020-08-27_09h39.40.213,proactive3.2,2020.1.2,MacIntel,60,5f47c0b9b035471e11593a5c,5f47c5854f5ff41f2b8b0093,1,,,,,,gorilla,,,,,,0,33,33,19,1,2,1,,,,,,,,,,,,,,,,,,,,,,,,,,,,,,,,,,,,,,,,,,,,,,,,,,,,,,,,,,,,,,,,,,,,,,,,,,,
,,,,,,,,,,stimuli/images/PICTURE_85.png,NATION,5e307cef0effe1000c01d541,10/09/1998,2020-08-27_09h39.40.213,proactive3.2,2020.1.2,MacIntel,60,5f47c0b9b035471e11593a5c,5f47c5854f5ff41f2b8b0093,1,,,,,,diamond,,,,,,0,34,34,5,1,1,1,,,,,,,,,,,,,,,,,,,,,,,,,,,,,,,,,,,,,,,,,,,,,,,,,,,,,,,,,,,,,,,,,,,,,,,,,,,
,,,,,,,,,,stimuli/images/PICTURE_383.png,WRITER,5e307cef0effe1000c01d541,10/09/1998,2020-08-27_09h39.40.213,proactive3.2,2020.1.2,MacIntel,60,5f47c0b9b035471e11593a5c,5f47c5854f5ff41f2b8b0093,1,,,,,,coin,,,,,,0,35,35,28,1,3,1,,,,,,,,,,,,,,,,,,,,,,,,,,,,,,,,,,,,,,,,,,,,,,,,,,,,,,,,,,,,,,,,,,,,,,,,,,,
,,,,,,,,,,stimuli/images/PICTURE_285.png,LIFE,5e307cef0effe1000c01d541,10/09/1998,2020-08-27_09h39.40.213,proactive3.2,2020.1.2,MacIntel,60,5f47c0b9b035471e11593a5c,5f47c5854f5ff41f2b8b0093,1,,,,,,carrot,,,,,,0,36,36,33,1,4,1,,,,,,,,,,,,,,,,,,,,,,,,,,,,,,,,,,,,,,,,,,,,,,,,,,,,,,,,,,,,,,,,,,,,,,,,,,,
,,,,,,,,,,stimuli/images/PICTURE_108.png,FLIGHT,5e307cef0effe1000c01d541,10/09/1998,2020-08-27_09h39.40.213,proactive3.2,2020.1.2,MacIntel,60,5f47c0b9b035471e11593a5c,5f47c5854f5ff41f2b8b0093,1,,,,,,calendar,,,,,,0,37,37,59,1,6,1,,,,,,,,,,,,,,,,,,,,,,,,,,,,,,,,,,,,,,,,,,,,,,,,,,,,,,,,,,,,,,,,,,,,,,,,,,,
,,,,,,,,,,stimuli/images/PICTURE_147.png,YEAR,5e307cef0effe1000c01d541,10/09/1998,2020-08-27_09h39.40.213,proactive3.2,2020.1.2,MacIntel,60,5f47c0b9b035471e11593a5c,5f47c5854f5ff41f2b8b0093,1,,,,,,hanger,,,,,,0,38,38,21,1,3,1,,,,,,,,,,,,,,,,,,,,,,,,,,,,,,,,,,,,,,,,,,,,,,,,,,,,,,,,,,,,,,,,,,,,,,,,,,,
,,,,,,,,,,stimuli/images/PICTURE_85.png,TOILET,5e307cef0effe1000c01d541,10/09/1998,2020-08-27_09h39.40.213,proactive3.2,2020.1.2,MacIntel,60,5f47c0b9b035471e11593a5c,5f47c5854f5ff41f2b8b0093,1,,,,,,diamond,,,,,,0,39,39,48,1,5,1,,,,,,,,,,,,,,,,,,,,,,,,,,,,,,,,,,,,,,,,,,,,,,,,,,,,,,,,,,,,,,,,,,,,,,,,,,,
,,,,,,,,,,stimuli/images/PICTURE_469.png,AGENT,5e307cef0effe1000c01d541,10/09/1998,2020-08-27_09h39.40.213,proactive3.2,2020.1.2,MacIntel,60,5f47c0b9b035471e11593a5c,5f47c5854f5ff41f2b8b0093,1,,,,,,stool,,,,,,0,40,40,16,1,2,1,,,,,,,,,,,,,,,,,,,,,,,,,,,,,,,,,,,,,,,,,,,,,,,,,,,,,,,,,,,,,,,,,,,,,,,,,,,
,,,,,,,,,,stimuli/images/PICTURE_108.png,POLICY,5e307cef0effe1000c01d541,10/09/1998,2020-08-27_09h39.40.213,proactive3.2,2020.1.2,MacIntel,60,5f47c0b9b035471e11593a5c,5f47c5854f5ff41f2b8b0093,1,,,,,,calendar,,,,,,0,41,41,22,1,3,1,,,,,,,,,,,,,,,,,,,,,,,,,,,,,,,,,,,,,,,,,,,,,,,,,,,,,,,,,,,,,,,,,,,,,,,,,,,
,,,,,,,,,,stimuli/images/PICTURE_296.png,LIFE,5e307cef0effe1000c01d541,10/09/1998,2020-08-27_09h39.40.213,proactive3.2,2020.1.2,MacIntel,60,5f47c0b9b035471e11593a5c,5f47c5854f5ff41f2b8b0093,1,,,,,,bolt,,,,,,0,42,42,57,1,6,1,,,,,,,,,,,,,,,,,,,,,,,,,,,,,,,,,,,,,,,,,,,,,,,,,,,,,,,,,,,,,,,,,,,,,,,,,,,
,,,,,,,,,,stimuli/images/PICTURE_296.png,LOTS,5e307cef0effe1000c01d541,10/09/1998,2020-08-27_09h39.40.213,proactive3.2,2020.1.2,MacIntel,60,5f47c0b9b035471e11593a5c,5f47c5854f5ff41f2b8b0093,1,,,,,,bolt,,,,,,0,43,43,9,1,1,1,,,,,,,,,,,,,,,,,,,,,,,,,,,,,,,,,,,,,,,,,,,,,,,,,,,,,,,,,,,,,,,,,,,,,,,,,,,
,,,,,,,,,,stimuli/images/PICTURE_297.png,RIVER,5e307cef0effe1000c01d541,10/09/1998,2020-08-27_09h39.40.213,proactive3.2,2020.1.2,MacIntel,60,5f47c0b9b035471e11593a5c,5f47c5854f5ff41f2b8b0093,1,,,,,,aeroplane,,,,,,0,44,44,39,1,4,1,,,,,,,,,,,,,,,,,,,,,,,,,,,,,,,,,,,,,,,,,,,,,,,,,,,,,,,,,,,,,,,,,,,,,,,,,,,
,,,,,,,,,,stimuli/images/PICTURE_95.png,MILLER,5e307cef0effe1000c01d541,10/09/1998,2020-08-27_09h39.40.213,proactive3.2,2020.1.2,MacIntel,60,5f47c0b9b035471e11593a5c,5f47c5854f5ff41f2b8b0093,1,,,,,,suitcase,,,,,,0,45,45,56,1,6,1,,,,,,,,,,,,,,,,,,,,,,,,,,,,,,,,,,,,,,,,,,,,,,,,,,,,,,,,,,,,,,,,,,,,,,,,,,,
,,,,,,,,,,stimuli/images/PICTURE_675.png,SALE,5e307cef0effe1000c01d541,10/09/1998,2020-08-27_09h39.40.213,proactive3.2,2020.1.2,MacIntel,60,5f47c0b9b035471e11593a5c,5f47c5854f5ff41f2b8b0093,1,,,,,,windmill,,,,,,0,46,46,47,1,5,1,,,,,,,,,,,,,,,,,,,,,,,,,,,,,,,,,,,,,,,,,,,,,,,,,,,,,,,,,,,,,,,,,,,,,,,,,,,
,,,,,,,,,,stimuli/images/PICTURE_95.png,BOYS,5e307cef0effe1000c01d541,10/09/1998,2020-08-27_09h39.40.213,proactive3.2,2020.1.2,MacIntel,60,5f47c0b9b035471e11593a5c,5f47c5854f5ff41f2b8b0093,1,,,,,,suitcase,,,,,,0,47,47,1,1,1,1,,,,,,,,,,,,,,,,,,,,,,,,,,,,,,,,,,,,,,,,,,,,,,,,,,,,,,,,,,,,,,,,,,,,,,,,,,,
,,,,,,,,,,stimuli/images/PICTURE_467.png,POLICY,5e307cef0effe1000c01d541,10/09/1998,2020-08-27_09h39.40.213,proactive3.2,2020.1.2,MacIntel,60,5f47c0b9b035471e11593a5c,5f47c5854f5ff41f2b8b0093,1,,,,,,peg,,,,,,0,48,48,53,1,6,1,,,,,,,,,,,,,,,,,,,,,,,,,,,,,,,,,,,,,,,,,,,,,,,,,,,,,,,,,,,,,,,,,,,,,,,,,,,
,,,,,,,,,,stimuli/images/PICTURE_42.png,BOYS,5e307cef0effe1000c01d541,10/09/1998,2020-08-27_09h39.40.213,proactive3.2,2020.1.2,MacIntel,60,5f47c0b9b035471e11593a5c,5f47c5854f5ff41f2b8b0093,1,,,,,,pear,,,,,,0,49,49,55,1,6,1,,,,,,,,,,,,,,,,,,,,,,,,,,,,,,,,,,,,,,,,,,,,,,,,,,,,,,,,,,,,,,,,,,,,,,,,,,,
,,,,,,,,,,stimuli/images/PICTURE_564.png,BATH,5e307cef0effe1000c01d541,10/09/1998,2020-08-27_09h39.40.213,proactive3.2,2020.1.2,MacIntel,60,5f47c0b9b035471e11593a5c,5f47c5854f5ff41f2b8b0093,1,,,,,,spoon,,,,,,0,50,50,26,1,3,1,,,,,,,,,,,,,,,,,,,,,,,,,,,,,,,,,,,,,,,,,,,,,,,,,,,,,,,,,,,,,,,,,,,,,,,,,,,
,,,,,,,,,,stimuli/images/PICTURE_95.png,HONEY,5e307cef0effe1000c01d541,10/09/1998,2020-08-27_09h39.40.213,proactive3.2,2020.1.2,MacIntel,60,5f47c0b9b035471e11593a5c,5f47c5854f5ff41f2b8b0093,1,,,,,,suitcase,,,,,,0,51,51,44,1,5,1,,,,,,,,,,,,,,,,,,,,,,,,,,,,,,,,,,,,,,,,,,,,,,,,,,,,,,,,,,,,,,,,,,,,,,,,,,,
,,,,,,,,,,stimuli/images/PICTURE_504.png,ARTIST,5e307cef0effe1000c01d541,10/09/1998,2020-08-27_09h39.40.213,proactive3.2,2020.1.2,MacIntel,60,5f47c0b9b035471e11593a5c,5f47c5854f5ff41f2b8b0093,1,,,,,,wheel,,,,,,0,52,52,49,1,5,1,,,,,,,,,,,,,,,,,,,,,,,,,,,,,,,,,,,,,,,,,,,,,,,,,,,,,,,,,,,,,,,,,,,,,,,,,,,
,,,,,,,,,,stimuli/images/PICTURE_504.png,COPS,5e307cef0effe1000c01d541,10/09/1998,2020-08-27_09h39.40.213,proactive3.2,2020.1.2,MacIntel,60,5f47c0b9b035471e11593a5c,5f47c5854f5ff41f2b8b0093,1,,,,,,wheel,,,,,,0,53,53,52,1,6,1,,,,,,,,,,,,,,,,,,,,,,,,,,,,,,,,,,,,,,,,,,,,,,,,,,,,,,,,,,,,,,,,,,,,,,,,,,,
,,,,,,,,,,stimuli/images/PICTURE_177.png,WRITER,5e307cef0effe1000c01d541,10/09/1998,2020-08-27_09h39.40.213,proactive3.2,2020.1.2,MacIntel,60,5f47c0b9b035471e11593a5c,5f47c5854f5ff41f2b8b0093,1,,,,,,mushroom,,,,,,0,54,54,41,1,5,1,,,,,,,,,,,,,,,,,,,,,,,,,,,,,,,,,,,,,,,,,,,,,,,,,,,,,,,,,,,,,,,,,,,,,,,,,,,
,,,,,,,,,,stimuli/images/PICTURE_308.png,FAMILY,5e307cef0effe1000c01d541,10/09/1998,2020-08-27_09h39.40.213,proactive3.2,2020.1.2,MacIntel,60,5f47c0b9b035471e11593a5c,5f47c5854f5ff41f2b8b0093,1,,,,,,dice,,,,,,0,55,55,36,1,4,1,,,,,,,,,,,,,,,,,,,,,,,,,,,,,,,,,,,,,,,,,,,,,,,,,,,,,,,,,,,,,,,,,,,,,,,,,,,
,,,,,,,,,,stimuli/images/PICTURE_403.png,RIVER,5e307cef0effe1000c01d541,10/09/1998,2020-08-27_09h39.40.213,proactive3.2,2020.1.2,MacIntel,60,5f47c0b9b035471e11593a5c,5f47c5854f5ff41f2b8b0093,1,,,,,,cathedral,,,,,,0,56,56,40,1,5,1,,,,,,,,,,,,,,,,,,,,,,,,,,,,,,,,,,,,,,,,,,,,,,,,,,,,,,,,,,,,,,,,,,,,,,,,,,,
,,,,,,,,,,stimuli/images/PICTURE_203.png,GODS,5e307cef0effe1000c01d541,10/09/1998,2020-08-27_09h39.40.213,proactive3.2,2020.1.2,MacIntel,60,5f47c0b9b035471e11593a5c,5f47c5854f5ff41f2b8b0093,1,,,,,,cap,,,,,,0,57,57,30,1,4,1,,,,,,,,,,,,,,,,,,,,,,,,,,,,,,,,,,,,,,,,,,,,,,,,,,,,,,,,,,,,,,,,,,,,,,,,,,,
,,,,,,,,,,stimuli/images/PICTURE_380.png,CANDY,5e307cef0effe1000c01d541,10/09/1998,2020-08-27_09h39.40.213,proactive3.2,2020.1.2,MacIntel,60,5f47c0b9b035471e11593a5c,5f47c5854f5ff41f2b8b0093,1,,,,,,gorilla,,,,,,0,58,58,0,1,1,1,,,,,,,,,,,,,,,,,,,,,,,,,,,,,,,,,,,,,,,,,,,,,,,,,,,,,,,,,,,,,,,,,,,,,,,,,,,
,,?,0.001055,0,,,,,,stimuli/images/PICTURE_285.png,LIFE,5e307cef0effe1000c01d541,10/09/1998,2020-08-27_09h39.40.213,proactive3.2,2020.1.2,MacIntel,60,5f47c0b9b035471e11593a5c,5f47c5854f5ff41f2b8b0093,1,,,,,,carrot,,,,,,,,,,,4,1,0,0,0,33,1,,,,,,,,,,,,,,,,,,,,,,,,,,,,,,,,,,,,,,,,,,,,,,,,,,,,,,,,,,,,,,,,,,,,,,
,,?,0.000745,0,,,,,,stimuli/images/PICTURE_339.png,CLIENT,5e307cef0effe1000c01d541,10/09/1998,2020-08-27_09h39.40.213,proactive3.2,2020.1.2,MacIntel,60,5f47c0b9b035471e11593a5c,5f47c5854f5ff41f2b8b0093,1,,,,,,backpack,,,,,,,,,,,2,1,0,1,1,11,1,,,,,,,,,,,,,,,,,,,,,,,,,,,,,,,,,,,,,,,,,,,,,,,,,,,,,,,,,,,,,,,,,,,,,,
,,?,0.00098,0,,,,,,stimuli/images/PICTURE_297.png,RIVER,5e307cef0effe1000c01d541,10/09/1998,2020-08-27_09h39.40.213,proactive3.2,2020.1.2,MacIntel,60,5f47c0b9b035471e11593a5c,5f47c5854f5ff41f2b8b0093,1,,,,,,aeroplane,,,,,,,,,,,4,1,0,2,2,39,1,,,,,,,,,,,,,,,,,,,,,,,,,,,,,,,,,,,,,,,,,,,,,,,,,,,,,,,,,,,,,,,,,,,,,,
,,CANDY,1.61087,1,,,,,,stimuli/images/PICTURE_380.png,CANDY,5e307cef0effe1000c01d541,10/09/1998,2020-08-27_09h39.40.213,proactive3.2,2020.1.2,MacIntel,60,5f47c0b9b035471e11593a5c,5f47c5854f5ff41f2b8b0093,1,,,,,,gorilla,,,,,,,,,,,1,1,0,3,3,0,1,,,,,,,,,,,,,,,,,,,,,,,,,,,,,,,,,,,,,,,,,,,,,,,,,,,,,,,,,,,,,,,,,,,,,,
,,LOTS,1.95637,1,,,,,,stimuli/images/PICTURE_296.png,LOTS,5e307cef0effe1000c01d541,10/09/1998,2020-08-27_09h39.40.213,proactive3.2,2020.1.2,MacIntel,60,5f47c0b9b035471e11593a5c,5f47c5854f5ff41f2b8b0093,1,,,,,,bolt,,,,,,,,,,,1,1,0,4,4,9,1,,,,,,,,,,,,,,,,,,,,,,,,,,,,,,,,,,,,,,,,,,,,,,,,,,,,,,,,,,,,,,,,,,,,,,
,,?,0.00123,0,,,,,,stimuli/images/PICTURE_95.png,MILLER,5e307cef0effe1000c01d541,10/09/1998,2020-08-27_09h39.40.213,proactive3.2,2020.1.2,MacIntel,60,5f47c0b9b035471e11593a5c,5f47c5854f5ff41f2b8b0093,1,,,,,,suitcase,,,,,,,,,,,6,1,0,5,5,56,1,,,,,,,,,,,,,,,,,,,,,,,,,,,,,,,,,,,,,,,,,,,,,,,,,,,,,,,,,,,,,,,,,,,,,,
,,?,0.000785,0,,,,,,stimuli/images/PICTURE_340.png,LETTER,5e307cef0effe1000c01d541,10/09/1998,2020-08-27_09h39.40.213,proactive3.2,2020.1.2,MacIntel,60,5f47c0b9b035471e11593a5c,5f47c5854f5ff41f2b8b0093,1,,,,,,mirror,,,,,,,,,,,3,1,0,6,6,24,1,,,,,,,,,,,,,,,,,,,,,,,,,,,,,,,,,,,,,,,,,,,,,,,,,,,,,,,,,,,,,,,,,,,,,,
,,?,0.0007,0,,,,,,stimuli/images/PICTURE_308.png,FAMILY,5e307cef0effe1000c01d541,10/09/1998,2020-08-27_09h39.40.213,proactive3.2,2020.1.2,MacIntel,60,5f47c0b9b035471e11593a5c,5f47c5854f5ff41f2b8b0093,1,,,,,,dice,,,,,,,,,,,4,1,0,7,7,36,1,,,,,,,,,,,,,,,,,,,,,,,,,,,,,,,,,,,,,,,,,,,,,,,,,,,,,,,,,,,,,,,,,,,,,,
,,?,0.00077,0,,,,,,stimuli/images/PICTURE_655.png,TOILET,5e307cef0effe1000c01d541,10/09/1998,2020-08-27_09h39.40.213,proactive3.2,2020.1.2,MacIntel,60,5f47c0b9b035471e11593a5c,5f47c5854f5ff41f2b8b0093,1,,,,,,megaphone,,,,,,,,,,,2,1,0,8,8,12,1,,,,,,,,,,,,,,,,,,,,,,,,,,,,,,,,,,,,,,,,,,,,,,,,,,,,,,,,,,,,,,,,,,,,,,
,,NATION,1.8666,1,,,,,,stimuli/images/PICTURE_85.png,NATION,5e307cef0effe1000c01d541,10/09/1998,2020-08-27_09h39.40.213,proactive3.2,2020.1.2,MacIntel,60,5f47c0b9b035471e11593a5c,5f47c5854f5ff41f2b8b0093,1,,,,,,diamond,,,,,,,,,,,1,1,0,9,9,5,1,,,,,,,,,,,,,,,,,,,,,,,,,,,,,,,,,,,,,,,,,,,,,,,,,,,,,,,,,,,,,,,,,,,,,,
,,?,0.00178,0,,,,,,stimuli/images/PICTURE_203.png,GODS,5e307cef0effe1000c01d541,10/09/1998,2020-08-27_09h39.40.213,proactive3.2,2020.1.2,MacIntel,60,5f47c0b9b035471e11593a5c,5f47c5854f5ff41f2b8b0093,1,,,,,,cap,,,,,,,,,,,4,1,0,10,10,30,1,,,,,,,,,,,,,,,,,,,,,,,,,,,,,,,,,,,,,,,,,,,,,,,,,,,,,,,,,,,,,,,,,,,,,,
,,?,0.001165,0,,,,,,stimuli/images/PICTURE_449.png,DUDE,5e307cef0effe1000c01d541,10/09/1998,2020-08-27_09h39.40.213,proactive3.2,2020.1.2,MacIntel,60,5f47c0b9b035471e11593a5c,5f47c5854f5ff41f2b8b0093,1,,,,,,bench,,,,,,,,,,,2,1,0,11,11,17,1,,,,,,,,,,,,,,,,,,,,,,,,,,,,,,,,,,,,,,,,,,,,,,,,,,,,,,,,,,,,,,,,,,,,,,
,,?,0.001665,0,,,,,,stimuli/images/PICTURE_208.png,SYSTEM,5e307cef0effe1000c01d541,10/09/1998,2020-08-27_09h39.40.213,proactive3.2,2020.1.2,MacIntel,60,5f47c0b9b035471e11593a5c,5f47c5854f5ff41f2b8b0093,1,,,,,,microphone,,,,,,,,,,,4,1,0,12,12,32,1,,,,,,,,,,,,,,,,,,,,,,,,,,,,,,,,,,,,,,,,,,,,,,,,,,,,,,,,,,,,,,,,,,,,,,
,,?,0.000855,0,,,,,,stimuli/images/PICTURE_68.png,ROOF,5e307cef0effe1000c01d541,10/09/1998,2020-08-27_09h39.40.213,proactive3.2,2020.1.2,MacIntel,60,5f47c0b9b035471e11593a5c,5f47c5854f5ff41f2b8b0093,1,,,,,,candle,,,,,,,,,,,4,1,0,13,13,38,1,,,,,,,,,,,,,,,,,,,,,,,,,,,,,,,,,,,,,,,,,,,,,,,,,,,,,,,,,,,,,,,,,,,,,,
,,?,0.00084,0,,,,,,stimuli/images/PICTURE_708.png,RECORD,5e307cef0effe1000c01d541,10/09/1998,2020-08-27_09h39.40.213,proactive3.2,2020.1.2,MacIntel,60,5f47c0b9b035471e11593a5c,5f47c5854f5ff41f2b8b0093,1,,,,,,monkey,,,,,,,,,,,6,1,0,14,14,58,1,,,,,,,,,,,,,,,,,,,,,,,,,,,,,,,,,,,,,,,,,,,,,,,,,,,,,,,,,,,,,,,,,,,,,,
,,?,0.001055,0,,,,,,stimuli/images/PICTURE_85.png,TOILET,5e307cef0effe1000c01d541,10/09/1998,2020-08-27_09h39.40.213,proactive3.2,2020.1.2,MacIntel,60,5f47c0b9b035471e11593a5c,5f47c5854f5ff41f2b8b0093,1,,,,,,diamond,,,,,,,,,,,5,1,0,15,15,48,1,,,,,,,,,,,,,,,,,,,,,,,,,,,,,,,,,,,,,,,,,,,,,,,,,,,,,,,,,,,,,,,,,,,,,,
,,?,0.000785,0,,,,,,stimuli/images/PICTURE_340.png,VALLEY,5e307cef0effe1000c01d541,10/09/1998,2020-08-27_09h39.40.213,proactive3.2,2020.1.2,MacIntel,60,5f47c0b9b035471e11593a5c,5f47c5854f5ff41f2b8b0093,1,,,,,,mirror,,,,,,,,,,,6,1,0,16,16,54,1,,,,,,,,,,,,,,,,,,,,,,,,,,,,,,,,,,,,,,,,,,,,,,,,,,,,,,,,,,,,,,,,,,,,,,
,,?,0.000815,0,,,,,,stimuli/images/PICTURE_467.png,POLICY,5e307cef0effe1000c01d541,10/09/1998,2020-08-27_09h39.40.213,proactive3.2,2020.1.2,MacIntel,60,5f47c0b9b035471e11593a5c,5f47c5854f5ff41f2b8b0093,1,,,,,,peg,,,,,,,,,,,6,1,0,17,17,53,1,,,,,,,,,,,,,,,,,,,,,,,,,,,,,,,,,,,,,,,,,,,,,,,,,,,,,,,,,,,,,,,,,,,,,,
,,?,0.00199,0,,,,,,stimuli/images/PICTURE_42.png,BOYS,5e307cef0effe1000c01d541,10/09/1998,2020-08-27_09h39.40.213,proactive3.2,2020.1.2,MacIntel,60,5f47c0b9b035471e11593a5c,5f47c5854f5ff41f2b8b0093,1,,,,,,pear,,,,,,,,,,,6,1,0,18,18,55,1,,,,,,,,,,,,,,,,,,,,,,,,,,,,,,,,,,,,,,,,,,,,,,,,,,,,,,,,,,,,,,,,,,,,,,
,,?,0.00062,0,,,,,,stimuli/images/PICTURE_504.png,COPS,5e307cef0effe1000c01d541,10/09/1998,2020-08-27_09h39.40.213,proactive3.2,2020.1.2,MacIntel,60,5f47c0b9b035471e11593a5c,5f47c5854f5ff41f2b8b0093,1,,,,,,wheel,,,,,,,,,,,6,1,0,19,19,52,1,,,,,,,,,,,,,,,,,,,,,,,,,,,,,,,,,,,,,,,,,,,,,,,,,,,,,,,,,,,,,,,,,,,,,,
,,?,0.0006,0,,,,,,stimuli/images/PICTURE_504.png,ARTIST,5e307cef0effe1000c01d541,10/09/1998,2020-08-27_09h39.40.213,proactive3.2,2020.1.2,MacIntel,60,5f47c0b9b035471e11593a5c,5f47c5854f5ff41f2b8b0093,1,,,,,,wheel,,,,,,,,,,,5,1,0,20,20,49,1,,,,,,,,,,,,,,,,,,,,,,,,,,,,,,,,,,,,,,,,,,,,,,,,,,,,,,,,,,,,,,,,,,,,,,
,,?,0.0006,0,,,,,,stimuli/images/PICTURE_677.png,APPLE,5e307cef0effe1000c01d541,10/09/1998,2020-08-27_09h39.40.213,proactive3.2,2020.1.2,MacIntel,60,5f47c0b9b035471e11593a5c,5f47c5854f5ff41f2b8b0093,1,,,,,,map,,,,,,,,,,,5,1,0,21,21,43,1,,,,,,,,,,,,,,,,,,,,,,,,,,,,,,,,,,,,,,,,,,,,,,,,,,,,,,,,,,,,,,,,,,,,,,
,,?,0.000715,0,,,,,,stimuli/images/PICTURE_487.png,GIRL,5e307cef0effe1000c01d541,10/09/1998,2020-08-27_09h39.40.213,proactive3.2,2020.1.2,MacIntel,60,5f47c0b9b035471e11593a5c,5f47c5854f5ff41f2b8b0093,1,,,,,,basket,,,,,,,,,,,5,1,0,22,22,45,1,,,,,,,,,,,,,,,,,,,,,,,,,,,,,,,,,,,,,,,,,,,,,,,,,,,,,,,,,,,,,,,,,,,,,,
,,?,0.00073,0,,,,,,stimuli/images/PICTURE_469.png,AGENT,5e307cef0effe1000c01d541,10/09/1998,2020-08-27_09h39.40.213,proactive3.2,2020.1.2,MacIntel,60,5f47c0b9b035471e11593a5c,5f47c5854f5ff41f2b8b0093,1,,,,,,stool,,,,,,,,,,,2,1,0,23,23,16,1,,,,,,,,,,,,,,,,,,,,,,,,,,,,,,,,,,,,,,,,,,,,,,,,,,,,,,,,,,,,,,,,,,,,,,
,,?,0.00072,0,,,,,,stimuli/images/PICTURE_750.png,HOTEL,5e307cef0effe1000c01d541,10/09/1998,2020-08-27_09h39.40.213,proactive3.2,2020.1.2,MacIntel,60,5f47c0b9b035471e11593a5c,5f47c5854f5ff41f2b8b0093,1,,,,,,kettle,,,,,,,,,,,3,1,0,24,24,27,1,,,,,,,,,,,,,,,,,,,,,,,,,,,,,,,,,,,,,,,,,,,,,,,,,,,,,,,,,,,,,,,,,,,,,,
,,SERIES,2.449385,1,,,,,,stimuli/images/PICTURE_327.png,SERIES,5e307cef0effe1000c01d541,10/09/1998,2020-08-27_09h39.40.213,proactive3.2,2020.1.2,MacIntel,60,5f47c0b9b035471e11593a5c,5f47c5854f5ff41f2b8b0093,1,,,,,,helmet,,,,,,,,,,,1,1,0,25,25,3,1,,,,,,,,,,,,,,,,,,,,,,,,,,,,,,,,,,,,,,,,,,,,,,,,,,,,,,,,,,,,,,,,,,,,,,
,,?,0.00136,0,,,,,,stimuli/images/PICTURE_564.png,BATH,5e307cef0effe1000c01d541,10/09/1998,2020-08-27_09h39.40.213,proactive3.2,2020.1.2,MacIntel,60,5f47c0b9b035471e11593a5c,5f47c5854f5ff41f2b8b0093,1,,,,,,spoon,,,,,,,,,,,3,1,0,26,26,26,1,,,,,,,,,,,,,,,,,,,,,,,,,,,,,,,,,,,,,,,,,,,,,,,,,,,,,,,,,,,,,,,,,,,,,,
,,?,0.0007,0,,,,,,stimuli/images/PICTURE_108.png,FLIGHT,5e307cef0effe1000c01d541,10/09/1998,2020-08-27_09h39.40.213,proactive3.2,2020.1.2,MacIntel,60,5f47c0b9b035471e11593a5c,5f47c5854f5ff41f2b8b0093,1,,,,,,calendar,,,,,,,,,,,6,1,0,27,27,59,1,,,,,,,,,,,,,,,,,,,,,,,,,,,,,,,,,,,,,,,,,,,,,,,,,,,,,,,,,,,,,,,,,,,,,,
,,?,0.000615,0,,,,,,stimuli/images/PICTURE_32.png,KIND,5e307cef0effe1000c01d541,10/09/1998,2020-08-27_09h39.40.213,proactive3.2,2020.1.2,MacIntel,60,5f47c0b9b035471e11593a5c,5f47c5854f5ff41f2b8b0093,1,,,,,,crown,,,,,,,,,,,4,1,0,28,28,35,1,,,,,,,,,,,,,,,,,,,,,,,,,,,,,,,,,,,,,,,,,,,,,,,,,,,,,,,,,,,,,,,,,,,,,,
,,?,0.00066,0,,,,,,stimuli/images/PICTURE_233.png,LOTS,5e307cef0effe1000c01d541,10/09/1998,2020-08-27_09h39.40.213,proactive3.2,2020.1.2,MacIntel,60,5f47c0b9b035471e11593a5c,5f47c5854f5ff41f2b8b0093,1,,,,,,salt,,,,,,,,,,,5,1,0,29,29,42,1,,,,,,,,,,,,,,,,,,,,,,,,,,,,,,,,,,,,,,,,,,,,,,,,,,,,,,,,,,,,,,,,,,,,,,
,,?,0.000685,0,,,,,,stimuli/images/PICTURE_383.png,WRITER,5e307cef0effe1000c01d541,10/09/1998,2020-08-27_09h39.40.213,proactive3.2,2020.1.2,MacIntel,60,5f47c0b9b035471e11593a5c,5f47c5854f5ff41f2b8b0093,1,,,,,,coin,,,,,,,,,,,3,1,0,30,30,28,1,,,,,,,,,,,,,,,,,,,,,,,,,,,,,,,,,,,,,,,,,,,,,,,,,,,,,,,,,,,,,,,,,,,,,,
,,?,0.000585,0,,,,,,stimuli/images/PICTURE_405.png,YEAR,5e307cef0effe1000c01d541,10/09/1998,2020-08-27_09h39.40.213,proactive3.2,2020.1.2,MacIntel,60,5f47c0b9b035471e11593a5c,5f47c5854f5ff41f2b8b0093,1,,,,,,anchor,,,,,,,,,,,4,1,0,31,31,34,1,,,,,,,,,,,,,,,,,,,,,,,,,,,,,,,,,,,,,,,,,,,,,,,,,,,,,,,,,,,,,,,,,,,,,,
,,?,0.000635,0,,,,,,stimuli/images/PICTURE_403.png,TOILET,5e307cef0effe1000c01d541,10/09/1998,2020-08-27_09h39.40.213,proactive3.2,2020.1.2,MacIntel,60,5f47c0b9b035471e11593a5c,5f47c5854f5ff41f2b8b0093,1,,,,,,cathedral,,,,,,,,,,,3,1,0,32,32,25,1,,,,,,,,,,,,,,,,,,,,,,,,,,,,,,,,,,,,,,,,,,,,,,,,,,,,,,,,,,,,,,,,,,,,,,
,,?,0.000785,0,,,,,,stimuli/images/PICTURE_95.png,HONEY,5e307cef0effe1000c01d541,10/09/1998,2020-08-27_09h39.40.213,proactive3.2,2020.1.2,MacIntel,60,5f47c0b9b035471e11593a5c,5f47c5854f5ff41f2b8b0093,1,,,,,,suitcase,,,,,,,,,,,5,1,0,33,33,44,1,,,,,,,,,,,,,,,,,,,,,,,,,,,,,,,,,,,,,,,,,,,,,,,,,,,,,,,,,,,,,,,,,,,,,,
,,BOYS,1.647215,1,,,,,,stimuli/images/PICTURE_95.png,BOYS,5e307cef0effe1000c01d541,10/09/1998,2020-08-27_09h39.40.213,proactive3.2,2020.1.2,MacIntel,60,5f47c0b9b035471e11593a5c,5f47c5854f5ff41f2b8b0093,1,,,,,,suitcase,,,,,,,,,,,1,1,0,34,34,1,1,,,,,,,,,,,,,,,,,,,,,,,,,,,,,,,,,,,,,,,,,,,,,,,,,,,,,,,,,,,,,,,,,,,,,,
,,?,0.001255,0,,,,,,stimuli/images/PICTURE_667.png,RIVER,5e307cef0effe1000c01d541,10/09/1998,2020-08-27_09h39.40.213,proactive3.2,2020.1.2,MacIntel,60,5f47c0b9b035471e11593a5c,5f47c5854f5ff41f2b8b0093,1,,,,,,daisy,,,,,,,,,,,2,1,0,35,35,10,1,,,,,,,,,,,,,,,,,,,,,,,,,,,,,,,,,,,,,,,,,,,,,,,,,,,,,,,,,,,,,,,,,,,,,,
,,WOMEN,5.09483,1,,,,,,stimuli/images/PICTURE_147.png,WOMEN,5e307cef0effe1000c01d541,10/09/1998,2020-08-27_09h39.40.213,proactive3.2,2020.1.2,MacIntel,60,5f47c0b9b035471e11593a5c,5f47c5854f5ff41f2b8b0093,1,,,,,,hanger,,,,,,,,,,,1,1,0,36,36,7,1,,,,,,,,,,,,,,,,,,,,,,,,,,,,,,,,,,,,,,,,,,,,,,,,,,,,,,,,,,,,,,,,,,,,,,
,,?,0.00119,0,,,,,,stimuli/images/PICTURE_68.png,MILE,5e307cef0effe1000c01d541,10/09/1998,2020-08-27_09h39.40.213,proactive3.2,2020.1.2,MacIntel,60,5f47c0b9b035471e11593a5c,5f47c5854f5ff41f2b8b0093,1,,,,,,candle,,,,,,,,,,,6,1,0,37,37,51,1,,,,,,,,,,,,,,,,,,,,,,,,,,,,,,,,,,,,,,,,,,,,,,,,,,,,,,,,,,,,,,,,,,,,,,
,,?,0.00067,0,,,,,,stimuli/images/PICTURE_108.png,POLICY,5e307cef0effe1000c01d541,10/09/1998,2020-08-27_09h39.40.213,proactive3.2,2020.1.2,MacIntel,60,5f47c0b9b035471e11593a5c,5f47c5854f5ff41f2b8b0093,1,,,,,,calendar,,,,,,,,,,,3,1,0,38,38,22,1,,,,,,,,,,,,,,,,,,,,,,,,,,,,,,,,,,,,,,,,,,,,,,,,,,,,,,,,,,,,,,,,,,,,,,
,,?,0.000575,0,,,,,,stimuli/images/PICTURE_57.png,MOMENT,5e307cef0effe1000c01d541,10/09/1998,2020-08-27_09h39.40.213,proactive3.2,2020.1.2,MacIntel,60,5f47c0b9b035471e11593a5c,5f47c5854f5ff41f2b8b0093,1,,,,,,stamp,,,,,,,,,,,4,1,0,39,39,37,1,,,,,,,,,,,,,,,,,,,,,,,,,,,,,,,,,,,,,,,,,,,,,,,,,,,,,,,,,,,,,,,,,,,,,,
,,FRIENDS,1.96772,0,,,,,,stimuli/images/PICTURE_33.png,FRIEND,5e307cef0effe1000c01d541,10/09/1998,2020-08-27_09h39.40.213,proactive3.2,2020.1.2,MacIntel,60,5f47c0b9b035471e11593a5c,5f47c5854f5ff41f2b8b0093,1,,,,,,frame,,,,,,,,,,,1,1,0,40,40,8,1,,,,,,,,,,,,,,,,,,,,,,,,,,,,,,,,,,,,,,,,,,,,,,,,,,,,,,,,,,,,,,,,,,,,,,
,,?,0.001085,0,,,,,,stimuli/images/PICTURE_32.png,PILLS,5e307cef0effe1000c01d541,10/09/1998,2020-08-27_09h39.40.213,proactive3.2,2020.1.2,MacIntel,60,5f47c0b9b035471e11593a5c,5f47c5854f5ff41f2b8b0093,1,,,,,,crown,,,,,,,,,,,2,1,0,41,41,18,1,,,,,,,,,,,,,,,,,,,,,,,,,,,,,,,,,,,,,,,,,,,,,,,,,,,,,,,,,,,,,,,,,,,,,,
,,?,0.00086,0,,,,,,stimuli/images/PICTURE_380.png,HONEY,5e307cef0effe1000c01d541,10/09/1998,2020-08-27_09h39.40.213,proactive3.2,2020.1.2,MacIntel,60,5f47c0b9b035471e11593a5c,5f47c5854f5ff41f2b8b0093,1,,,,,,gorilla,,,,,,,,,,,2,1,0,42,42,19,1,,,,,,,,,,,,,,,,,,,,,,,,,,,,,,,,,,,,,,,,,,,,,,,,,,,,,,,,,,,,,,,,,,,,,,
,,RIVER,2.493405,1,,,,,,stimuli/images/PICTURE_491.png,RIVER,5e307cef0effe1000c01d541,10/09/1998,2020-08-27_09h39.40.213,proactive3.2,2020.1.2,MacIntel,60,5f47c0b9b035471e11593a5c,5f47c5854f5ff41f2b8b0093,1,,,,,,rug,,,,,,,,,,,1,1,0,43,43,6,1,,,,,,,,,,,,,,,,,,,,,,,,,,,,,,,,,,,,,,,,,,,,,,,,,,,,,,,,,,,,,,,,,,,,,,
,,?,0.00092,0,,,,,,stimuli/images/PICTURE_147.png,YEAR,5e307cef0effe1000c01d541,10/09/1998,2020-08-27_09h39.40.213,proactive3.2,2020.1.2,MacIntel,60,5f47c0b9b035471e11593a5c,5f47c5854f5ff41f2b8b0093,1,,,,,,hanger,,,,,,,,,,,3,1,0,44,44,21,1,,,,,,,,,,,,,,,,,,,,,,,,,,,,,,,,,,,,,,,,,,,,,,,,,,,,,,,,,,,,,,,,,,,,,,
,,?,0.000665,0,,,,,,stimuli/images/PICTURE_504.png,YEAR,5e307cef0effe1000c01d541,10/09/1998,2020-08-27_09h39.40.213,proactive3.2,2020.1.2,MacIntel,60,5f47c0b9b035471e11593a5c,5f47c5854f5ff41f2b8b0093,1,,,,,,wheel,,,,,,,,,,,2,1,0,45,45,13,1,,,,,,,,,,,,,,,,,,,,,,,,,,,,,,,,,,,,,,,,,,,,,,,,,,,,,,,,,,,,,,,,,,,,,,
,,?,0.000765,0,,,,,,stimuli/images/PICTURE_744.png,WEAPON,5e307cef0effe1000c01d541,10/09/1998,2020-08-27_09h39.40.213,proactive3.2,2020.1.2,MacIntel,60,5f47c0b9b035471e11593a5c,5f47c5854f5ff41f2b8b0093,1,,,,,,ring,,,,,,,,,,,6,1,0,46,46,50,1,,,,,,,,,,,,,,,,,,,,,,,,,,,,,,,,,,,,,,,,,,,,,,,,,,,,,,,,,,,,,,,,,,,,,,
,,?,0.0007,0,,,,,,stimuli/images/PICTURE_675.png,SALE,5e307cef0effe1000c01d541,10/09/1998,2020-08-27_09h39.40.213,proactive3.2,2020.1.2,MacIntel,60,5f47c0b9b035471e11593a5c,5f47c5854f5ff41f2b8b0093,1,,,,,,windmill,,,,,,,,,,,5,1,0,47,47,47,1,,,,,,,,,,,,,,,,,,,,,,,,,,,,,,,,,,,,,,,,,,,,,,,,,,,,,,,,,,,,,,,,,,,,,,
,,?,0.0007,0,,,,,,stimuli/images/PICTURE_491.png,GLASS,5e307cef0effe1000c01d541,10/09/1998,2020-08-27_09h39.40.213,proactive3.2,2020.1.2,MacIntel,60,5f47c0b9b035471e11593a5c,5f47c5854f5ff41f2b8b0093,1,,,,,,rug,,,,,,,,,,,2,1,0,48,48,14,1,,,,,,,,,,,,,,,,,,,,,,,,,,,,,,,,,,,,,,,,,,,,,,,,,,,,,,,,,,,,,,,,,,,,,,
,,?,0.00066,0,,,,,,stimuli/images/PICTURE_327.png,CASINO,5e307cef0effe1000c01d541,10/09/1998,2020-08-27_09h39.40.213,proactive3.2,2020.1.2,MacIntel,60,5f47c0b9b035471e11593a5c,5f47c5854f5ff41f2b8b0093,1,,,,,,helmet,,,,,,,,,,,3,1,0,49,49,20,1,,,,,,,,,,,,,,,,,,,,,,,,,,,,,,,,,,,,,,,,,,,,,,,,,,,,,,,,,,,,,,,,,,,,,,
,,?,0.0007,0,,,,,,stimuli/images/PICTURE_2.png,FLIGHT,5e307cef0effe1000c01d541,10/09/1998,2020-08-27_09h39.40.213,proactive3.2,2020.1.2,MacIntel,60,5f47c0b9b035471e11593a5c,5f47c5854f5ff41f2b8b0093,1,,,,,,tyre,,,,,,,,,,,2,1,0,50,50,15,1,,,,,,,,,,,,,,,,,,,,,,,,,,,,,,,,,,,,,,,,,,,,,,,,,,,,,,,,,,,,,,,,,,,,,,
,,?,0.000615,0,,,,,,stimuli/images/PICTURE_296.png,LIFE,5e307cef0effe1000c01d541,10/09/1998,2020-08-27_09h39.40.213,proactive3.2,2020.1.2,MacIntel,60,5f47c0b9b035471e11593a5c,5f47c5854f5ff41f2b8b0093,1,,,,,,bolt,,,,,,,,,,,6,1,0,51,51,57,1,,,,,,,,,,,,,,,,,,,,,,,,,,,,,,,,,,,,,,,,,,,,,,,,,,,,,,,,,,,,,,,,,,,,,,
,,?,0.00087,0,,,,,,stimuli/images/PICTURE_654.png,MONTH,5e307cef0effe1000c01d541,10/09/1998,2020-08-27_09h39.40.213,proactive3.2,2020.1.2,MacIntel,60,5f47c0b9b035471e11593a5c,5f47c5854f5ff41f2b8b0093,1,,,,,,pencil,,,,,,,,,,,3,1,0,52,52,29,1,,,,,,,,,,,,,,,,,,,,,,,,,,,,,,,,,,,,,,,,,,,,,,,,,,,,,,,,,,,,,,,,,,,,,,
,,PENNY,2.729465,1,,,,,,stimuli/images/PICTURE_685.png,PENNY,5e307cef0effe1000c01d541,10/09/1998,2020-08-27_09h39.40.213,proactive3.2,2020.1.2,MacIntel,60,5f47c0b9b035471e11593a5c,5f47c5854f5ff41f2b8b0093,1,,,,,,goose,,,,,,,,,,,1,1,0,53,53,4,1,,,,,,,,,,,,,,,,,,,,,,,,,,,,,,,,,,,,,,,,,,,,,,,,,,,,,,,,,,,,,,,,,,,,,,
,,?,0.00122,0,,,,,,stimuli/images/PICTURE_405.png,PLENTY,5e307cef0effe1000c01d541,10/09/1998,2020-08-27_09h39.40.213,proactive3.2,2020.1.2,MacIntel,60,5f47c0b9b035471e11593a5c,5f47c5854f5ff41f2b8b0093,1,,,,,,anchor,,,,,,,,,,,3,1,0,54,54,23,1,,,,,,,,,,,,,,,,,,,,,,,,,,,,,,,,,,,,,,,,,,,,,,,,,,,,,,,,,,,,,,,,,,,,,,
,,?,0.00072,0,,,,,,stimuli/images/PICTURE_403.png,RIVER,5e307cef0effe1000c01d541,10/09/1998,2020-08-27_09h39.40.213,proactive3.2,2020.1.2,MacIntel,60,5f47c0b9b035471e11593a5c,5f47c5854f5ff41f2b8b0093,1,,,,,,cathedral,,,,,,,,,,,5,1,0,55,55,40,1,,,,,,,,,,,,,,,,,,,,,,,,,,,,,,,,,,,,,,,,,,,,,,,,,,,,,,,,,,,,,,,,,,,,,,
,,NIGHT,2.478355,1,,,,,,stimuli/images/PICTURE_203.png,NIGHT,5e307cef0effe1000c01d541,10/09/1998,2020-08-27_09h39.40.213,proactive3.2,2020.1.2,MacIntel,60,5f47c0b9b035471e11593a5c,5f47c5854f5ff41f2b8b0093,1,,,,,,cap,,,,,,,,,,,1,1,0,56,56,2,1,,,,,,,,,,,,,,,,,,,,,,,,,,,,,,,,,,,,,,,,,,,,,,,,,,,,,,,,,,,,,,,,,,,,,,
,,?,0.00116,0,,,,,,stimuli/images/PICTURE_403.png,WRITER,5e307cef0effe1000c01d541,10/09/1998,2020-08-27_09h39.40.213,proactive3.2,2020.1.2,MacIntel,60,5f47c0b9b035471e11593a5c,5f47c5854f5ff41f2b8b0093,1,,,,,,cathedral,,,,,,,,,,,4,1,0,57,57,31,1,,,,,,,,,,,,,,,,,,,,,,,,,,,,,,,,,,,,,,,,,,,,,,,,,,,,,,,,,,,,,,,,,,,,,,
,,?,0.000785,0,,,,,,stimuli/images/PICTURE_177.png,WRITER,5e307cef0effe1000c01d541,10/09/1998,2020-08-27_09h39.40.213,proactive3.2,2020.1.2,MacIntel,60,5f47c0b9b035471e11593a5c,5f47c5854f5ff41f2b8b0093,1,,,,,,mushroom,,,,,,,,,,,5,1,0,58,58,41,1,,,,,,,,,,,,,,,,,,,,,,,,,,,,,,,,,,,,,,,,,,,,,,,,,,,,,,,,,,,,,,,,,,,,,,
,,?,0.00086,0,,,,,,stimuli/images/PICTURE_383.png,SERIES,5e307cef0effe1000c01d541,10/09/1998,2020-08-27_09h39.40.213,proactive3.2,2020.1.2,MacIntel,60,5f47c0b9b035471e11593a5c,5f47c5854f5ff41f2b8b0093,1,,,,,,coin,,,,,,,,,,,5,1,0,59,59,46,1,,,,,,,,,,,,,,,,,,,,,,,,,,,,,,,,,,,,,,,,,,,,,,,,,,,,,,,,,,,,,,,,,,,,,,
,,,,,,,,,,,,5e307cef0effe1000c01d541,10/09/1998,2020-08-27_09h39.40.213,proactive3.2,2020.1.2,MacIntel,60,5f47c0b9b035471e11593a5c,5f47c5854f5ff41f2b8b0093,1,,,,,,,,,,,,,,,,,,,,,,,,0,1,1,1,1,stimuli/learn-block2.csv,,,,,,,,,,,,,,,,,,,,,,,,,,,,,,,,,,,,,,,,,,,,,,,,,,,,,,,,,,,,,,,,
,,,,,,,,,,stimuli/images/PICTURE_692.png,DUDE,5e307cef0effe1000c01d541,10/09/1998,2020-08-27_09h39.40.213,proactive3.2,2020.1.2,MacIntel,60,5f47c0b9b035471e11593a5c,5f47c5854f5ff41f2b8b0093,1,,,,,,cherry,,,,,,0,0,0,47,1,5,2,,,,,,,,,,,,,,,,,,,,,,,,,,,,,,,,,,,,,,,,,,,,,,,,,,,,,,,,,,,,,,,,,,,,,,,,,,,
,,,,,,,,,,stimuli/images/PICTURE_470.png,MOMENT,5e307cef0effe1000c01d541,10/09/1998,2020-08-27_09h39.40.213,proactive3.2,2020.1.2,MacIntel,60,5f47c0b9b035471e11593a5c,5f47c5854f5ff41f2b8b0093,1,,,,,,motorbike,,,,,,0,1,1,40,1,5,2,,,,,,,,,,,,,,,,,,,,,,,,,,,,,,,,,,,,,,,,,,,,,,,,,,,,,,,,,,,,,,,,,,,,,,,,,,,
,,,,,,,,,,stimuli/images/PICTURE_68.png,KIND,5e307cef0effe1000c01d541,10/09/1998,2020-08-27_09h39.40.213,proactive3.2,2020.1.2,MacIntel,60,5f47c0b9b035471e11593a5c,5f47c5854f5ff41f2b8b0093,1,,,,,,candle,,,,,,0,2,2,23,1,3,2,,,,,,,,,,,,,,,,,,,,,,,,,,,,,,,,,,,,,,,,,,,,,,,,,,,,,,,,,,,,,,,,,,,,,,,,,,,
,,,,,,,,,,stimuli/images/PICTURE_470.png,BEAUTY,5e307cef0effe1000c01d541,10/09/1998,2020-08-27_09h39.40.213,proactive3.2,2020.1.2,MacIntel,60,5f47c0b9b035471e11593a5c,5f47c5854f5ff41f2b8b0093,1,,,,,,motorbike,,,,,,0,3,3,26,1,3,2,,,,,,,,,,,,,,,,,,,,,,,,,,,,,,,,,,,,,,,,,,,,,,,,,,,,,,,,,,,,,,,,,,,,,,,,,,,
,,,,,,,,,,stimuli/images/PICTURE_509.png,APPLE,5e307cef0effe1000c01d541,10/09/1998,2020-08-27_09h39.40.213,proactive3.2,2020.1.2,MacIntel,60,5f47c0b9b035471e11593a5c,5f47c5854f5ff41f2b8b0093,1,,,,,,telephone,,,,,,0,4,4,38,1,4,2,,,,,,,,,,,,,,,,,,,,,,,,,,,,,,,,,,,,,,,,,,,,,,,,,,,,,,,,,,,,,,,,,,,,,,,,,,,
,,,,,,,,,,stimuli/images/PICTURE_405.png,JUNGLE,5e307cef0effe1000c01d541,10/09/1998,2020-08-27_09h39.40.213,proactive3.2,2020.1.2,MacIntel,60,5f47c0b9b035471e11593a5c,5f47c5854f5ff41f2b8b0093,1,,,,,,anchor,,,,,,0,5,5,13,1,2,2,,,,,,,,,,,,,,,,,,,,,,,,,,,,,,,,,,,,,,,,,,,,,,,,,,,,,,,,,,,,,,,,,,,,,,,,,,,
,,,,,,,,,,stimuli/images/PICTURE_57.png,CANDY,5e307cef0effe1000c01d541,10/09/1998,2020-08-27_09h39.40.213,proactive3.2,2020.1.2,MacIntel,60,5f47c0b9b035471e11593a5c,5f47c5854f5ff41f2b8b0093,1,,,,,,stamp,,,,,,0,6,6,52,1,6,2,,,,,,,,,,,,,,,,,,,,,,,,,,,,,,,,,,,,,,,,,,,,,,,,,,,,,,,,,,,,,,,,,,,,,,,,,,,
,,,,,,,,,,stimuli/images/PICTURE_327.png,LEADER,5e307cef0effe1000c01d541,10/09/1998,2020-08-27_09h39.40.213,proactive3.2,2020.1.2,MacIntel,60,5f47c0b9b035471e11593a5c,5f47c5854f5ff41f2b8b0093,1,,,,,,helmet,,,,,,0,7,7,17,1,2,2,,,,,,,,,,,,,,,,,,,,,,,,,,,,,,,,,,,,,,,,,,,,,,,,,,,,,,,,,,,,,,,,,,,,,,,,,,,
,,,,,,,,,,stimuli/images/PICTURE_403.png,FAMILY,5e307cef0effe1000c01d541,10/09/1998,2020-08-27_09h39.40.213,proactive3.2,2020.1.2,MacIntel,60,5f47c0b9b035471e11593a5c,5f47c5854f5ff41f2b8b0093,1,,,,,,cathedral,,,,,,0,8,8,9,1,1,2,,,,,,,,,,,,,,,,,,,,,,,,,,,,,,,,,,,,,,,,,,,,,,,,,,,,,,,,,,,,,,,,,,,,,,,,,,,
,,,,,,,,,,stimuli/images/PICTURE_655.png,SALE,5e307cef0effe1000c01d541,10/09/1998,2020-08-27_09h39.40.213,proactive3.2,2020.1.2,MacIntel,60,5f47c0b9b035471e11593a5c,5f47c5854f5ff41f2b8b0093,1,,,,,,megaphone,,,,,,0,9,9,57,1,6,2,,,,,,,,,,,,,,,,,,,,,,,,,,,,,,,,,,,,,,,,,,,,,,,,,,,,,,,,,,,,,,,,,,,,,,,,,,,
,,,,,,,,,,stimuli/images/PICTURE_57.png,CASINO,5e307cef0effe1000c01d541,10/09/1998,2020-08-27_09h39.40.213,proactive3.2,2020.1.2,MacIntel,60,5f47c0b9b035471e11593a5c,5f47c5854f5ff41f2b8b0093,1,,,,,,stamp,,,,,,0,10,10,12,1,2,2,,,,,,,,,,,,,,,,,,,,,,,,,,,,,,,,,,,,,,,,,,,,,,,,,,,,,,,,,,,,,,,,,,,,,,,,,,,
,,,,,,,,,,stimuli/images/PICTURE_57.png,NATION,5e307cef0effe1000c01d541,10/09/1998,2020-08-27_09h39.40.213,proactive3.2,2020.1.2,MacIntel,60,5f47c0b9b035471e11593a5c,5f47c5854f5ff41f2b8b0093,1,,,,,,stamp,,,,,,0,11,11,21,1,3,2,,,,,,,,,,,,,,,,,,,,,,,,,,,,,,,,,,,,,,,,,,,,,,,,,,,,,,,,,,,,,,,,,,,,,,,,,,,
,,,,,,,,,,stimuli/images/PICTURE_255.png,PENNY,5e307cef0effe1000c01d541,10/09/1998,2020-08-27_09h39.40.213,proactive3.2,2020.1.2,MacIntel,60,5f47c0b9b035471e11593a5c,5f47c5854f5ff41f2b8b0093,1,,,,,,shovel,,,,,,0,12,12,19,1,2,2,,,,,,,,,,,,,,,,,,,,,,,,,,,,,,,,,,,,,,,,,,,,,,,,,,,,,,,,,,,,,,,,,,,,,,,,,,,
,,,,,,,,,,stimuli/images/PICTURE_654.png,COPS,5e307cef0effe1000c01d541,10/09/1998,2020-08-27_09h39.40.213,proactive3.2,2020.1.2,MacIntel,60,5f47c0b9b035471e11593a5c,5f47c5854f5ff41f2b8b0093,1,,,,,,pencil,,,,,,0,13,13,10,1,2,2,,,,,,,,,,,,,,,,,,,,,,,,,,,,,,,,,,,,,,,,,,,,,,,,,,,,,,,,,,,,,,,,,,,,,,,,,,,
,,,,,,,,,,stimuli/images/PICTURE_285.png,WRITER,5e307cef0effe1000c01d541,10/09/1998,2020-08-27_09h39.40.213,proactive3.2,2020.1.2,MacIntel,60,5f47c0b9b035471e11593a5c,5f47c5854f5ff41f2b8b0093,1,,,,,,carrot,,,,,,0,14,14,6,1,1,2,,,,,,,,,,,,,,,,,,,,,,,,,,,,,,,,,,,,,,,,,,,,,,,,,,,,,,,,,,,,,,,,,,,,,,,,,,,
,,,,,,,,,,stimuli/images/PICTURE_33.png,COPS,5e307cef0effe1000c01d541,10/09/1998,2020-08-27_09h39.40.213,proactive3.2,2020.1.2,MacIntel,60,5f47c0b9b035471e11593a5c,5f47c5854f5ff41f2b8b0093,1,,,,,,frame,,,,,,0,15,15,29,1,3,2,,,,,,,,,,,,,,,,,,,,,,,,,,,,,,,,,,,,,,,,,,,,,,,,,,,,,,,,,,,,,,,,,,,,,,,,,,,
,,,,,,,,,,stimuli/images/PICTURE_405.png,HOUSE,5e307cef0effe1000c01d541,10/09/1998,2020-08-27_09h39.40.213,proactive3.2,2020.1.2,MacIntel,60,5f47c0b9b035471e11593a5c,5f47c5854f5ff41f2b8b0093,1,,,,,,anchor,,,,,,0,16,16,2,1,1,2,,,,,,,,,,,,,,,,,,,,,,,,,,,,,,,,,,,,,,,,,,,,,,,,,,,,,,,,,,,,,,,,,,,,,,,,,,,
,,,,,,,,,,stimuli/images/PICTURE_348.png,TOILET,5e307cef0effe1000c01d541,10/09/1998,2020-08-27_09h39.40.213,proactive3.2,2020.1.2,MacIntel,60,5f47c0b9b035471e11593a5c,5f47c5854f5ff41f2b8b0093,1,,,,,,pepper,,,,,,0,17,17,4,1,1,2,,,,,,,,,,,,,,,,,,,,,,,,,,,,,,,,,,,,,,,,,,,,,,,,,,,,,,,,,,,,,,,,,,,,,,,,,,,
,,,,,,,,,,stimuli/images/PICTURE_509.png,BATH,5e307cef0effe1000c01d541,10/09/1998,2020-08-27_09h39.40.213,proactive3.2,2020.1.2,MacIntel,60,5f47c0b9b035471e11593a5c,5f47c5854f5ff41f2b8b0093,1,,,,,,telephone,,,,,,0,18,18,15,1,2,2,,,,,,,,,,,,,,,,,,,,,,,,,,,,,,,,,,,,,,,,,,,,,,,,,,,,,,,,,,,,,,,,,,,,,,,,,,,
,,,,,,,,,,stimuli/images/PICTURE_688.png,CLOCK,5e307cef0effe1000c01d541,10/09/1998,2020-08-27_09h39.40.213,proactive3.2,2020.1.2,MacIntel,60,5f47c0b9b035471e11593a5c,5f47c5854f5ff41f2b8b0093,1,,,,,,runner,,,,,,0,19,19,42,1,5,2,,,,,,,,,,,,,,,,,,,,,,,,,,,,,,,,,,,,,,,,,,,,,,,,,,,,,,,,,,,,,,,,,,,,,,,,,,,
,,,,,,,,,,stimuli/images/PICTURE_2.png,AREA,5e307cef0effe1000c01d541,10/09/1998,2020-08-27_09h39.40.213,proactive3.2,2020.1.2,MacIntel,60,5f47c0b9b035471e11593a5c,5f47c5854f5ff41f2b8b0093,1,,,,,,tyre,,,,,,0,20,20,32,1,4,2,,,,,,,,,,,,,,,,,,,,,,,,,,,,,,,,,,,,,,,,,,,,,,,,,,,,,,,,,,,,,,,,,,,,,,,,,,,
,,,,,,,,,,stimuli/images/PICTURE_750.png,POLICY,5e307cef0effe1000c01d541,10/09/1998,2020-08-27_09h39.40.213,proactive3.2,2020.1.2,MacIntel,60,5f47c0b9b035471e11593a5c,5f47c5854f5ff41f2b8b0093,1,,,,,,kettle,,,,,,0,21,21,44,1,5,2,,,,,,,,,,,,,,,,,,,,,,,,,,,,,,,,,,,,,,,,,,,,,,,,,,,,,,,,,,,,,,,,,,,,,,,,,,,
,,,,,,,,,,stimuli/images/PICTURE_18.png,RIVER,5e307cef0effe1000c01d541,10/09/1998,2020-08-27_09h39.40.213,proactive3.2,2020.1.2,MacIntel,60,5f47c0b9b035471e11593a5c,5f47c5854f5ff41f2b8b0093,1,,,,,,planet,,,,,,0,22,22,22,1,3,2,,,,,,,,,,,,,,,,,,,,,,,,,,,,,,,,,,,,,,,,,,,,,,,,,,,,,,,,,,,,,,,,,,,,,,,,,,,
,,,,,,,,,,stimuli/images/PICTURE_160.png,HOTEL,5e307cef0effe1000c01d541,10/09/1998,2020-08-27_09h39.40.213,proactive3.2,2020.1.2,MacIntel,60,5f47c0b9b035471e11593a5c,5f47c5854f5ff41f2b8b0093,1,,,,,,wheelbarrow,,,,,,0,23,23,16,1,2,2,,,,,,,,,,,,,,,,,,,,,,,,,,,,,,,,,,,,,,,,,,,,,,,,,,,,,,,,,,,,,,,,,,,,,,,,,,,
,,,,,,,,,,stimuli/images/PICTURE_504.png,HOUSE,5e307cef0effe1000c01d541,10/09/1998,2020-08-27_09h39.40.213,proactive3.2,2020.1.2,MacIntel,60,5f47c0b9b035471e11593a5c,5f47c5854f5ff41f2b8b0093,1,,,,,,wheel,,,,,,0,24,24,36,1,4,2,,,,,,,,,,,,,,,,,,,,,,,,,,,,,,,,,,,,,,,,,,,,,,,,,,,,,,,,,,,,,,,,,,,,,,,,,,,
,,,,,,,,,,stimuli/images/PICTURE_297.png,BODY,5e307cef0effe1000c01d541,10/09/1998,2020-08-27_09h39.40.213,proactive3.2,2020.1.2,MacIntel,60,5f47c0b9b035471e11593a5c,5f47c5854f5ff41f2b8b0093,1,,,,,,aeroplane,,,,,,0,25,25,51,1,6,2,,,,,,,,,,,,,,,,,,,,,,,,,,,,,,,,,,,,,,,,,,,,,,,,,,,,,,,,,,,,,,,,,,,,,,,,,,,
,,,,,,,,,,stimuli/images/PICTURE_215.png,FOOD,5e307cef0effe1000c01d541,10/09/1998,2020-08-27_09h39.40.213,proactive3.2,2020.1.2,MacIntel,60,5f47c0b9b035471e11593a5c,5f47c5854f5ff41f2b8b0093,1,,,,,,boot,,,,,,0,26,26,5,1,1,2,,,,,,,,,,,,,,,,,,,,,,,,,,,,,,,,,,,,,,,,,,,,,,,,,,,,,,,,,,,,,,,,,,,,,,,,,,,
,,,,,,,,,,stimuli/images/PICTURE_215.png,LEADER,5e307cef0effe1000c01d541,10/09/1998,2020-08-27_09h39.40.213,proactive3.2,2020.1.2,MacIntel,60,5f47c0b9b035471e11593a5c,5f47c5854f5ff41f2b8b0093,1,,,,,,boot,,,,,,0,27,27,43,1,5,2,,,,,,,,,,,,,,,,,,,,,,,,,,,,,,,,,,,,,,,,,,,,,,,,,,,,,,,,,,,,,,,,,,,,,,,,,,,
,,,,,,,,,,stimuli/images/PICTURE_491.png,SERIES,5e307cef0effe1000c01d541,10/09/1998,2020-08-27_09h39.40.213,proactive3.2,2020.1.2,MacIntel,60,5f47c0b9b035471e11593a5c,5f47c5854f5ff41f2b8b0093,1,,,,,,rug,,,,,,0,28,28,39,1,4,2,,,,,,,,,,,,,,,,,,,,,,,,,,,,,,,,,,,,,,,,,,,,,,,,,,,,,,,,,,,,,,,,,,,,,,,,,,,
,,,,,,,,,,stimuli/images/PICTURE_667.png,GLASS,5e307cef0effe1000c01d541,10/09/1998,2020-08-27_09h39.40.213,proactive3.2,2020.1.2,MacIntel,60,5f47c0b9b035471e11593a5c,5f47c5854f5ff41f2b8b0093,1,,,,,,daisy,,,,,,0,29,29,27,1,3,2,,,,,,,,,,,,,,,,,,,,,,,,,,,,,,,,,,,,,,,,,,,,,,,,,,,,,,,,,,,,,,,,,,,,,,,,,,,
,,,,,,,,,,stimuli/images/PICTURE_141.png,CLIENT,5e307cef0effe1000c01d541,10/09/1998,2020-08-27_09h39.40.213,proactive3.2,2020.1.2,MacIntel,60,5f47c0b9b035471e11593a5c,5f47c5854f5ff41f2b8b0093,1,,,,,,sunflower,,,,,,0,30,30,30,1,4,2,,,,,,,,,,,,,,,,,,,,,,,,,,,,,,,,,,,,,,,,,,,,,,,,,,,,,,,,,,,,,,,,,,,,,,,,,,,
,,,,,,,,,,stimuli/images/PICTURE_314.png,SPEECH,5e307cef0effe1000c01d541,10/09/1998,2020-08-27_09h39.40.213,proactive3.2,2020.1.2,MacIntel,60,5f47c0b9b035471e11593a5c,5f47c5854f5ff41f2b8b0093,1,,,,,,perfume,,,,,,0,31,31,35,1,4,2,,,,,,,,,,,,,,,,,,,,,,,,,,,,,,,,,,,,,,,,,,,,,,,,,,,,,,,,,,,,,,,,,,,,,,,,,,,
,,,,,,,,,,stimuli/images/PICTURE_654.png,YEAR,5e307cef0effe1000c01d541,10/09/1998,2020-08-27_09h39.40.213,proactive3.2,2020.1.2,MacIntel,60,5f47c0b9b035471e11593a5c,5f47c5854f5ff41f2b8b0093,1,,,,,,pencil,,,,,,0,32,32,41,1,5,2,,,,,,,,,,,,,,,,,,,,,,,,,,,,,,,,,,,,,,,,,,,,,,,,,,,,,,,,,,,,,,,,,,,,,,,,,,,
,,,,,,,,,,stimuli/images/PICTURE_677.png,FAMILY,5e307cef0effe1000c01d541,10/09/1998,2020-08-27_09h39.40.213,proactive3.2,2020.1.2,MacIntel,60,5f47c0b9b035471e11593a5c,5f47c5854f5ff41f2b8b0093,1,,,,,,map,,,,,,0,33,33,53,1,6,2,,,,,,,,,,,,,,,,,,,,,,,,,,,,,,,,,,,,,,,,,,,,,,,,,,,,,,,,,,,,,,,,,,,,,,,,,,,
,,,,,,,,,,stimuli/images/PICTURE_509.png,MILLER,5e307cef0effe1000c01d541,10/09/1998,2020-08-27_09h39.40.213,proactive3.2,2020.1.2,MacIntel,60,5f47c0b9b035471e11593a5c,5f47c5854f5ff41f2b8b0093,1,,,,,,telephone,,,,,,0,34,34,49,1,5,2,,,,,,,,,,,,,,,,,,,,,,,,,,,,,,,,,,,,,,,,,,,,,,,,,,,,,,,,,,,,,,,,,,,,,,,,,,,
,,,,,,,,,,stimuli/images/PICTURE_285.png,PRINCE,5e307cef0effe1000c01d541,10/09/1998,2020-08-27_09h39.40.213,proactive3.2,2020.1.2,MacIntel,60,5f47c0b9b035471e11593a5c,5f47c5854f5ff41f2b8b0093,1,,,,,,carrot,,,,,,0,35,35,20,1,3,2,,,,,,,,,,,,,,,,,,,,,,,,,,,,,,,,,,,,,,,,,,,,,,,,,,,,,,,,,,,,,,,,,,,,,,,,,,,
,,,,,,,,,,stimuli/images/PICTURE_509.png,SHOTS,5e307cef0effe1000c01d541,10/09/1998,2020-08-27_09h39.40.213,proactive3.2,2020.1.2,MacIntel,60,5f47c0b9b035471e11593a5c,5f47c5854f5ff41f2b8b0093,1,,,,,,telephone,,,,,,0,36,36,7,1,1,2,,,,,,,,,,,,,,,,,,,,,,,,,,,,,,,,,,,,,,,,,,,,,,,,,,,,,,,,,,,,,,,,,,,,,,,,,,,
,,,,,,,,,,stimuli/images/PICTURE_348.png,DUDE,5e307cef0effe1000c01d541,10/09/1998,2020-08-27_09h39.40.213,proactive3.2,2020.1.2,MacIntel,60,5f47c0b9b035471e11593a5c,5f47c5854f5ff41f2b8b0093,1,,,,,,pepper,,,,,,0,37,37,59,1,6,2,,,,,,,,,,,,,,,,,,,,,,,,,,,,,,,,,,,,,,,,,,,,,,,,,,,,,,,,,,,,,,,,,,,,,,,,,,,
,,,,,,,,,,stimuli/images/PICTURE_177.png,HOUSE,5e307cef0effe1000c01d541,10/09/1998,2020-08-27_09h39.40.213,proactive3.2,2020.1.2,MacIntel,60,5f47c0b9b035471e11593a5c,5f47c5854f5ff41f2b8b0093,1,,,,,,mushroom,,,,,,0,38,38,25,1,3,2,,,,,,,,,,,,,,,,,,,,,,,,,,,,,,,,,,,,,,,,,,,,,,,,,,,,,,,,,,,,,,,,,,,,,,,,,,,
,,,,,,,,,,stimuli/images/PICTURE_452.png,COPS,5e307cef0effe1000c01d541,10/09/1998,2020-08-27_09h39.40.213,proactive3.2,2020.1.2,MacIntel,60,5f47c0b9b035471e11593a5c,5f47c5854f5ff41f2b8b0093,1,,,,,,watch,,,,,,0,39,39,0,1,1,2,,,,,,,,,,,,,,,,,,,,,,,,,,,,,,,,,,,,,,,,,,,,,,,,,,,,,,,,,,,,,,,,,,,,,,,,,,,
,,,,,,,,,,stimuli/images/PICTURE_356.png,CANDY,5e307cef0effe1000c01d541,10/09/1998,2020-08-27_09h39.40.213,proactive3.2,2020.1.2,MacIntel,60,5f47c0b9b035471e11593a5c,5f47c5854f5ff41f2b8b0093,1,,,,,,pawn,,,,,,0,40,40,46,1,5,2,,,,,,,,,,,,,,,,,,,,,,,,,,,,,,,,,,,,,,,,,,,,,,,,,,,,,,,,,,,,,,,,,,,,,,,,,,,
,,,,,,,,,,stimuli/images/PICTURE_123.png,SALE,5e307cef0effe1000c01d541,10/09/1998,2020-08-27_09h39.40.213,proactive3.2,2020.1.2,MacIntel,60,5f47c0b9b035471e11593a5c,5f47c5854f5ff41f2b8b0093,1,,,,,,dart,,,,,,0,41,41,8,1,1,2,,,,,,,,,,,,,,,,,,,,,,,,,,,,,,,,,,,,,,,,,,,,,,,,,,,,,,,,,,,,,,,,,,,,,,,,,,,
,,,,,,,,,,stimuli/images/PICTURE_311.png,FLESH,5e307cef0effe1000c01d541,10/09/1998,2020-08-27_09h39.40.213,proactive3.2,2020.1.2,MacIntel,60,5f47c0b9b035471e11593a5c,5f47c5854f5ff41f2b8b0093,1,,,,,,razor,,,,,,0,42,42,3,1,1,2,,,,,,,,,,,,,,,,,,,,,,,,,,,,,,,,,,,,,,,,,,,,,,,,,,,,,,,,,,,,,,,,,,,,,,,,,,,
,,,,,,,,,,stimuli/images/PICTURE_564.png,PLENTY,5e307cef0effe1000c01d541,10/09/1998,2020-08-27_09h39.40.213,proactive3.2,2020.1.2,MacIntel,60,5f47c0b9b035471e11593a5c,5f47c5854f5ff41f2b8b0093,1,,,,,,spoon,,,,,,0,43,43,11,1,2,2,,,,,,,,,,,,,,,,,,,,,,,,,,,,,,,,,,,,,,,,,,,,,,,,,,,,,,,,,,,,,,,,,,,,,,,,,,,
,,,,,,,,,,stimuli/images/PICTURE_487.png,POLICY,5e307cef0effe1000c01d541,10/09/1998,2020-08-27_09h39.40.213,proactive3.2,2020.1.2,MacIntel,60,5f47c0b9b035471e11593a5c,5f47c5854f5ff41f2b8b0093,1,,,,,,basket,,,,,,0,44,44,34,1,4,2,,,,,,,,,,,,,,,,,,,,,,,,,,,,,,,,,,,,,,,,,,,,,,,,,,,,,,,,,,,,,,,,,,,,,,,,,,,
,,,,,,,,,,stimuli/images/PICTURE_32.png,LETTER,5e307cef0effe1000c01d541,10/09/1998,2020-08-27_09h39.40.213,proactive3.2,2020.1.2,MacIntel,60,5f47c0b9b035471e11593a5c,5f47c5854f5ff41f2b8b0093,1,,,,,,crown,,,,,,0,45,45,56,1,6,2,,,,,,,,,,,,,,,,,,,,,,,,,,,,,,,,,,,,,,,,,,,,,,,,,,,,,,,,,,,,,,,,,,,,,,,,,,,
,,,,,,,,,,stimuli/images/PICTURE_2.png,JUNGLE,5e307cef0effe1000c01d541,10/09/1998,2020-08-27_09h39.40.213,proactive3.2,2020.1.2,MacIntel,60,5f47c0b9b035471e11593a5c,5f47c5854f5ff41f2b8b0093,1,,,,,,tyre,,,,,,0,46,46,1,1,1,2,,,,,,,,,,,,,,,,,,,,,,,,,,,,,,,,,,,,,,,,,,,,,,,,,,,,,,,,,,,,,,,,,,,,,,,,,,,
,,,,,,,,,,stimuli/images/PICTURE_296.png,CLOCK,5e307cef0effe1000c01d541,10/09/1998,2020-08-27_09h39.40.213,proactive3.2,2020.1.2,MacIntel,60,5f47c0b9b035471e11593a5c,5f47c5854f5ff41f2b8b0093,1,,,,,,bolt,,,,,,0,47,47,18,1,2,2,,,,,,,,,,,,,,,,,,,,,,,,,,,,,,,,,,,,,,,,,,,,,,,,,,,,,,,,,,,,,,,,,,,,,,,,,,,
,,,,,,,,,,stimuli/images/PICTURE_208.png,SPIRIT,5e307cef0effe1000c01d541,10/09/1998,2020-08-27_09h39.40.213,proactive3.2,2020.1.2,MacIntel,60,5f47c0b9b035471e11593a5c,5f47c5854f5ff41f2b8b0093,1,,,,,,microphone,,,,,,0,48,48,28,1,3,2,,,,,,,,,,,,,,,,,,,,,,,,,,,,,,,,,,,,,,,,,,,,,,,,,,,,,,,,,,,,,,,,,,,,,,,,,,,
,,,,,,,,,,stimuli/images/PICTURE_453.png,FAMILY,5e307cef0effe1000c01d541,10/09/1998,2020-08-27_09h39.40.213,proactive3.2,2020.1.2,MacIntel,60,5f47c0b9b035471e11593a5c,5f47c5854f5ff41f2b8b0093,1,,,,,,scissors,,,,,,0,49,49,48,1,5,2,,,,,,,,,,,,,,,,,,,,,,,,,,,,,,,,,,,,,,,,,,,,,,,,,,,,,,,,,,,,,,,,,,,,,,,,,,,
,,,,,,,,,,stimuli/images/PICTURE_93.png,GIRL,5e307cef0effe1000c01d541,10/09/1998,2020-08-27_09h39.40.213,proactive3.2,2020.1.2,MacIntel,60,5f47c0b9b035471e11593a5c,5f47c5854f5ff41f2b8b0093,1,,,,,,skateboard,,,,,,0,50,50,31,1,4,2,,,,,,,,,,,,,,,,,,,,,,,,,,,,,,,,,,,,,,,,,,,,,,,,,,,,,,,,,,,,,,,,,,,,,,,,,,,
,,,,,,,,,,stimuli/images/PICTURE_2.png,YARD,5e307cef0effe1000c01d541,10/09/1998,2020-08-27_09h39.40.213,proactive3.2,2020.1.2,MacIntel,60,5f47c0b9b035471e11593a5c,5f47c5854f5ff41f2b8b0093,1,,,,,,tyre,,,,,,0,51,51,55,1,6,2,,,,,,,,,,,,,,,,,,,,,,,,,,,,,,,,,,,,,,,,,,,,,,,,,,,,,,,,,,,,,,,,,,,,,,,,,,,
,,,,,,,,,,stimuli/images/PICTURE_215.png,BOYS,5e307cef0effe1000c01d541,10/09/1998,2020-08-27_09h39.40.213,proactive3.2,2020.1.2,MacIntel,60,5f47c0b9b035471e11593a5c,5f47c5854f5ff41f2b8b0093,1,,,,,,boot,,,,,,0,52,52,24,1,3,2,,,,,,,,,,,,,,,,,,,,,,,,,,,,,,,,,,,,,,,,,,,,,,,,,,,,,,,,,,,,,,,,,,,,,,,,,,,
,,,,,,,,,,stimuli/images/PICTURE_708.png,VALLEY,5e307cef0effe1000c01d541,10/09/1998,2020-08-27_09h39.40.213,proactive3.2,2020.1.2,MacIntel,60,5f47c0b9b035471e11593a5c,5f47c5854f5ff41f2b8b0093,1,,,,,,monkey,,,,,,0,53,53,45,1,5,2,,,,,,,,,,,,,,,,,,,,,,,,,,,,,,,,,,,,,,,,,,,,,,,,,,,,,,,,,,,,,,,,,,,,,,,,,,,
,,,,,,,,,,stimuli/images/PICTURE_677.png,PHOTO,5e307cef0effe1000c01d541,10/09/1998,2020-08-27_09h39.40.213,proactive3.2,2020.1.2,MacIntel,60,5f47c0b9b035471e11593a5c,5f47c5854f5ff41f2b8b0093,1,,,,,,map,,,,,,0,54,54,14,1,2,2,,,,,,,,,,,,,,,,,,,,,,,,,,,,,,,,,,,,,,,,,,,,,,,,,,,,,,,,,,,,,,,,,,,,,,,,,,,
,,,,,,,,,,stimuli/images/PICTURE_311.png,TOILET,5e307cef0effe1000c01d541,10/09/1998,2020-08-27_09h39.40.213,proactive3.2,2020.1.2,MacIntel,60,5f47c0b9b035471e11593a5c,5f47c5854f5ff41f2b8b0093,1,,,,,,razor,,,,,,0,55,55,54,1,6,2,,,,,,,,,,,,,,,,,,,,,,,,,,,,,,,,,,,,,,,,,,,,,,,,,,,,,,,,,,,,,,,,,,,,,,,,,,,
,,,,,,,,,,stimuli/images/PICTURE_487.png,ROOF,5e307cef0effe1000c01d541,10/09/1998,2020-08-27_09h39.40.213,proactive3.2,2020.1.2,MacIntel,60,5f47c0b9b035471e11593a5c,5f47c5854f5ff41f2b8b0093,1,,,,,,basket,,,,,,0,56,56,50,1,6,2,,,,,,,,,,,,,,,,,,,,,,,,,,,,,,,,,,,,,,,,,,,,,,,,,,,,,,,,,,,,,,,,,,,,,,,,,,,
,,,,,,,,,,stimuli/images/PICTURE_405.png,JUNGLE,5e307cef0effe1000c01d541,10/09/1998,2020-08-27_09h39.40.213,proactive3.2,2020.1.2,MacIntel,60,5f47c0b9b035471e11593a5c,5f47c5854f5ff41f2b8b0093,1,,,,,,anchor,,,,,,0,57,57,58,1,6,2,,,,,,,,,,,,,,,,,,,,,,,,,,,,,,,,,,,,,,,,,,,,,,,,,,,,,,,,,,,,,,,,,,,,,,,,,,,
,,,,,,,,,,stimuli/images/PICTURE_147.png,LEADER,5e307cef0effe1000c01d541,10/09/1998,2020-08-27_09h39.40.213,proactive3.2,2020.1.2,MacIntel,60,5f47c0b9b035471e11593a5c,5f47c5854f5ff41f2b8b0093,1,,,,,,hanger,,,,,,0,58,58,33,1,4,2,,,,,,,,,,,,,,,,,,,,,,,,,,,,,,,,,,,,,,,,,,,,,,,,,,,,,,,,,,,,,,,,,,,,,,,,,,,
,,?,0.000815,0,,,,,,stimuli/images/PICTURE_654.png,YEAR,5e307cef0effe1000c01d541,10/09/1998,2020-08-27_09h39.40.213,proactive3.2,2020.1.2,MacIntel,60,5f47c0b9b035471e11593a5c,5f47c5854f5ff41f2b8b0093,1,,,,,,pencil,,,,,,,,,,,5,2,0,0,0,41,1,,,,,,,,,,,,,,,,,,,,,,,,,,,,,,,,,,,,,,,,,,,,,,,,,,,,,,,,,,,,,,,,,,,,,,
,,?,0.000755,0,,,,,,stimuli/images/PICTURE_141.png,CLIENT,5e307cef0effe1000c01d541,10/09/1998,2020-08-27_09h39.40.213,proactive3.2,2020.1.2,MacIntel,60,5f47c0b9b035471e11593a5c,5f47c5854f5ff41f2b8b0093,1,,,,,,sunflower,,,,,,,,,,,4,2,0,1,1,30,1,,,,,,,,,,,,,,,,,,,,,,,,,,,,,,,,,,,,,,,,,,,,,,,,,,,,,,,,,,,,,,,,,,,,,,
,,?,0.000705,0,,,,,,stimuli/images/PICTURE_18.png,RIVER,5e307cef0effe1000c01d541,10/09/1998,2020-08-27_09h39.40.213,proactive3.2,2020.1.2,MacIntel,60,5f47c0b9b035471e11593a5c,5f47c5854f5ff41f2b8b0093,1,,,,,,planet,,,,,,,,,,,3,2,0,2,2,22,1,,,,,,,,,,,,,,,,,,,,,,,,,,,,,,,,,,,,,,,,,,,,,,,,,,,,,,,,,,,,,,,,,,,,,,
,,?,0.000515,0,,,,,,stimuli/images/PICTURE_95.png,NIGHT,5e307cef0effe1000c01d541,10/09/1998,2020-08-27_09h39.40.213,proactive3.2,2020.1.2,MacIntel,60,5f47c0b9b035471e11593a5c,5f47c5854f5ff41f2b8b0093,1,,,,,,suitcase,,,,,,,,,,,4,2,0,3,3,37,1,,,,,,,,,,,,,,,,,,,,,,,,,,,,,,,,,,,,,,,,,,,,,,,,,,,,,,,,,,,,,,,,,,,,,,
,,?,0.000575,0,,,,,,stimuli/images/PICTURE_311.png,TOILET,5e307cef0effe1000c01d541,10/09/1998,2020-08-27_09h39.40.213,proactive3.2,2020.1.2,MacIntel,60,5f47c0b9b035471e11593a5c,5f47c5854f5ff41f2b8b0093,1,,,,,,razor,,,,,,,,,,,6,2,0,4,4,54,1,,,,,,,,,,,,,,,,,,,,,,,,,,,,,,,,,,,,,,,,,,,,,,,,,,,,,,,,,,,,,,,,,,,,,,
,,?,0.000575,0,,,,,,stimuli/images/PICTURE_2.png,AREA,5e307cef0effe1000c01d541,10/09/1998,2020-08-27_09h39.40.213,proactive3.2,2020.1.2,MacIntel,60,5f47c0b9b035471e11593a5c,5f47c5854f5ff41f2b8b0093,1,,,,,,tyre,,,,,,,,,,,4,2,0,5,5,32,1,,,,,,,,,,,,,,,,,,,,,,,,,,,,,,,,,,,,,,,,,,,,,,,,,,,,,,,,,,,,,,,,,,,,,,
,,FLESH,1.954355,1,,,,,,stimuli/images/PICTURE_311.png,FLESH,5e307cef0effe1000c01d541,10/09/1998,2020-08-27_09h39.40.213,proactive3.2,2020.1.2,MacIntel,60,5f47c0b9b035471e11593a5c,5f47c5854f5ff41f2b8b0093,1,,,,,,razor,,,,,,,,,,,1,2,0,6,6,3,1,,,,,,,,,,,,,,,,,,,,,,,,,,,,,,,,,,,,,,,,,,,,,,,,,,,,,,,,,,,,,,,,,,,,,,
,,FAMILY,2.119755,1,,,,,,stimuli/images/PICTURE_403.png,FAMILY,5e307cef0effe1000c01d541,10/09/1998,2020-08-27_09h39.40.213,proactive3.2,2020.1.2,MacIntel,60,5f47c0b9b035471e11593a5c,5f47c5854f5ff41f2b8b0093,1,,,,,,cathedral,,,,,,,,,,,1,2,0,7,7,9,1,,,,,,,,,,,,,,,,,,,,,,,,,,,,,,,,,,,,,,,,,,,,,,,,,,,,,,,,,,,,,,,,,,,,,,
,,SHOTS,2.94247,1,,,,,,stimuli/images/PICTURE_509.png,SHOTS,5e307cef0effe1000c01d541,10/09/1998,2020-08-27_09h39.40.213,proactive3.2,2020.1.2,MacIntel,60,5f47c0b9b035471e11593a5c,5f47c5854f5ff41f2b8b0093,1,,,,,,telephone,,,,,,,,,,,1,2,0,8,8,7,1,,,,,,,,,,,,,,,,,,,,,,,,,,,,,,,,,,,,,,,,,,,,,,,,,,,,,,,,,,,,,,,,,,,,,,
,,?,0.00166,0,,,,,,stimuli/images/PICTURE_215.png,BOYS,5e307cef0effe1000c01d541,10/09/1998,2020-08-27_09h39.40.213,proactive3.2,2020.1.2,MacIntel,60,5f47c0b9b035471e11593a5c,5f47c5854f5ff41f2b8b0093,1,,,,,,boot,,,,,,,,,,,3,2,0,9,9,24,1,,,,,,,,,,,,,,,,,,,,,,,,,,,,,,,,,,,,,,,,,,,,,,,,,,,,,,,,,,,,,,,,,,,,,,
,,HOUSE,4.33668,1,,,,,,stimuli/images/PICTURE_405.png,HOUSE,5e307cef0effe1000c01d541,10/09/1998,2020-08-27_09h39.40.213,proactive3.2,2020.1.2,MacIntel,60,5f47c0b9b035471e11593a5c,5f47c5854f5ff41f2b8b0093,1,,,,,,anchor,,,,,,,,,,,1,2,0,10,10,2,1,,,,,,,,,,,,,,,,,,,,,,,,,,,,,,,,,,,,,,,,,,,,,,,,,,,,,,,,,,,,,,,,,,,,,,
