consent_key.keys,consent_key.rt,recalled,recalled_rt,recall_acc,example_recall.thisRepN,example_recall.thisTrialN,example_recall.thisN,example_recall.thisIndex,example_recall.ran,file,word,participant,please enter your date of birth (dd/mm/yyyy),date,expName,psychopyVersion,OS,frameRate,STUDY_ID,SESSION_ID,list,prac_learn_study_loop.thisRepN,prac_learn_study_loop.thisTrialN,prac_learn_study_loop.thisN,prac_learn_study_loop.thisIndex,prac_learn_study_loop.ran,image,prac_learn_test_loop.thisRepN,prac_learn_test_loop.thisTrialN,prac_learn_test_loop.thisN,prac_learn_test_loop.thisIndex,prac_learn_test_loop.ran,learn_study_loop.thisRepN,learn_study_loop.thisTrialN,learn_study_loop.thisN,learn_study_loop.thisIndex,learn_study_loop.ran,list_no,block_no,learn_test_loop.thisRepN,learn_test_loop.thisTrialN,learn_test_loop.thisN,learn_test_loop.thisIndex,learn_test_loop.ran,learn_blocks.thisRepN,learn_blocks.thisTrialN,learn_blocks.thisN,learn_blocks.thisIndex,learn_blocks.ran,block_csv,key_resp_13.keys,key_resp_13.rt,learn_blocks_loop.thisRepN,learn_blocks_loop.thisTrialN,learn_blocks_loop.thisN,learn_blocks_loop.thisIndex,learn_blocks_loop.ran,final_learn_test.thisRepN,final_learn_test.thisTrialN,final_learn_test.thisN,final_learn_test.thisIndex,final_learn_test.ran,prac_wm_test_loop.thisRepN,prac_wm_test_loop.thisTrialN,prac_wm_test_loop.thisN,prac_wm_test_loop.thisIndex,prac_wm_test_loop.ran,wm_recalled1,wm_recall_rt1,wm_probed1,wm_recall_acc1,wm_recalled2,wm_recall_rt2,wm_probed2,wm_recall_acc2,wm_recalled3,wm_recall_rt3,wm_probed3,wm_recall_acc3,wm_recalled4,wm_recall_rt4,wm_probed4,wm_recall_acc4,prac_wm_trial_loop.thisRepN,prac_wm_trial_loop.thisTrialN,prac_wm_trial_loop.thisN,prac_wm_trial_loop.thisIndex,prac_wm_trial_loop.ran,word1,image1,file1,item_type1,word2,image2,file2,item_type2,word4,image4,file4,item_type4,word3,image3,file3,item_type3
y,13.016,TOUGH,4.997,1,0,0,0,0,1,stimuli/images/PICTURE_747.png,TOUGH,5ea07a903abacb0452903ef4,22/08/1950,2020-09-12_08h49.13.734,proactive3.2,2020.1.2,Win32,60,5f5adea66120081ea0f57a61,5f5c7d2b2347b501aa201f39,5,,,,,,,,,,,,,,,,,,,,,,,,,,,,,,,,,,,,,,,,,,,,,,,,,,,,,,,,,,,,,,,,,,,,,,,,,,,,,,,,,,,
,,,,,,,,,,stimuli/images/PICTURE_269.png,GENIUS,5ea07a903abacb0452903ef4,22/08/1950,2020-09-12_08h49.13.734,proactive3.2,2020.1.2,Win32,60,5f5adea66120081ea0f57a61,5f5c7d2b2347b501aa201f39,5,0,0,0,0,1,chameleon,,,,,,,,,,,,,,,,,,,,,,,,,,,,,,,,,,,,,,,,,,,,,,,,,,,,,,,,,,,,,,,,,,,,,,,,,,,,,
,,,,,,,,,,stimuli/images/PICTURE_658.png,DEVIL,5ea07a903abacb0452903ef4,22/08/1950,2020-09-12_08h49.13.734,proactive3.2,2020.1.2,Win32,60,5f5adea66120081ea0f57a61,5f5c7d2b2347b501aa201f39,5,0,1,1,3,1,crow,,,,,,,,,,,,,,,,,,,,,,,,,,,,,,,,,,,,,,,,,,,,,,,,,,,,,,,,,,,,,,,,,,,,,,,,,,,,,
,,,,,,,,,,stimuli/images/PICTURE_697.png,KILLER,5ea07a903abacb0452903ef4,22/08/1950,2020-09-12_08h49.13.734,proactive3.2,2020.1.2,Win32,60,5f5adea66120081ea0f57a61,5f5c7d2b2347b501aa201f39,5,0,2,2,4,1,peach,,,,,,,,,,,,,,,,,,,,,,,,,,,,,,,,,,,,,,,,,,,,,,,,,,,,,,,,,,,,,,,,,,,,,,,,,,,,,
,,,,,,,,,,stimuli/images/PICTURE_378.png,LOSS,5ea07a903abacb0452903ef4,22/08/1950,2020-09-12_08h49.13.734,proactive3.2,2020.1.2,Win32,60,5f5adea66120081ea0f57a61,5f5c7d2b2347b501aa201f39,5,0,3,3,2,1,lobster,,,,,,,,,,,,,,,,,,,,,,,,,,,,,,,,,,,,,,,,,,,,,,,,,,,,,,,,,,,,,,,,,,,,,,,,,,,,,
,,CELL,12.541,1,,,,,,stimuli/images/PICTURE_727.png,CELL,5ea07a903abacb0452903ef4,22/08/1950,2020-09-12_08h49.13.734,proactive3.2,2020.1.2,Win32,60,5f5adea66120081ea0f57a61,5f5c7d2b2347b501aa201f39,5,,,,,,hose,0,0,0,1,1,,,,,,,,,,,,,,,,,,,,,,,,,,,,,,,,,,,,,,,,,,,,,,,,,,,,,,,,,,,,,,,,,,,,,,,,
,,GENIUS,4.214,1,,,,,,stimuli/images/PICTURE_269.png,GENIUS,5ea07a903abacb0452903ef4,22/08/1950,2020-09-12_08h49.13.734,proactive3.2,2020.1.2,Win32,60,5f5adea66120081ea0f57a61,5f5c7d2b2347b501aa201f39,5,,,,,,chameleon,0,1,1,0,1,,,,,,,,,,,,,,,,,,,,,,,,,,,,,,,,,,,,,,,,,,,,,,,,,,,,,,,,,,,,,,,,,,,,,,,,
,,DEVIL,4.481,1,,,,,,stimuli/images/PICTURE_658.png,DEVIL,5ea07a903abacb0452903ef4,22/08/1950,2020-09-12_08h49.13.734,proactive3.2,2020.1.2,Win32,60,5f5adea66120081ea0f57a61,5f5c7d2b2347b501aa201f39,5,,,,,,crow,0,2,2,3,1,,,,,,,,,,,,,,,,,,,,,,,,,,,,,,,,,,,,,,,,,,,,,,,,,,,,,,,,,,,,,,,,,,,,,,,,
,,KILLER,5.5,1,,,,,,stimuli/images/PICTURE_697.png,KILLER,5ea07a903abacb0452903ef4,22/08/1950,2020-09-12_08h49.13.734,proactive3.2,2020.1.2,Win32,60,5f5adea66120081ea0f57a61,5f5c7d2b2347b501aa201f39,5,,,,,,peach,0,3,3,4,1,,,,,,,,,,,,,,,,,,,,,,,,,,,,,,,,,,,,,,,,,,,,,,,,,,,,,,,,,,,,,,,,,,,,,,,,
,,LOSS,7.731,1,,,,,,stimuli/images/PICTURE_378.png,LOSS,5ea07a903abacb0452903ef4,22/08/1950,2020-09-12_08h49.13.734,proactive3.2,2020.1.2,Win32,60,5f5adea66120081ea0f57a61,5f5c7d2b2347b501aa201f39,5,,,,,,lobster,0,4,4,2,1,,,,,,,,,,,,,,,,,,,,,,,,,,,,,,,,,,,,,,,,,,,,,,,,,,,,,,,,,,,,,,,,,,,,,,,,
,,,,,,,,,,stimuli/images/PICTURE_68.png,KIND,5ea07a903abacb0452903ef4,22/08/1950,2020-09-12_08h49.13.734,proactive3.2,2020.1.2,Win32,60,5f5adea66120081ea0f57a61,5f5c7d2b2347b501aa201f39,5,,,,,,candle,,,,,,0,0,0,23,1,3,2,,,,,,,,,,,,,,,,,,,,,,,,,,,,,,,,,,,,,,,,,,,,,,,,,,,,,,,,,,,,,,,,,
,,,,,,,,,,stimuli/images/PICTURE_208.png,SPIRIT,5ea07a903abacb0452903ef4,22/08/1950,2020-09-12_08h49.13.734,proactive3.2,2020.1.2,Win32,60,5f5adea66120081ea0f57a61,5f5c7d2b2347b501aa201f39,5,,,,,,microphone,,,,,,0,1,1,28,1,3,2,,,,,,,,,,,,,,,,,,,,,,,,,,,,,,,,,,,,,,,,,,,,,,,,,,,,,,,,,,,,,,,,,
,,,,,,,,,,stimuli/images/PICTURE_509.png,MILLER,5ea07a903abacb0452903ef4,22/08/1950,2020-09-12_08h49.13.734,proactive3.2,2020.1.2,Win32,60,5f5adea66120081ea0f57a61,5f5c7d2b2347b501aa201f39,5,,,,,,telephone,,,,,,0,2,2,49,1,5,2,,,,,,,,,,,,,,,,,,,,,,,,,,,,,,,,,,,,,,,,,,,,,,,,,,,,,,,,,,,,,,,,,
,,,,,,,,,,stimuli/images/PICTURE_2.png,JUNGLE,5ea07a903abacb0452903ef4,22/08/1950,2020-09-12_08h49.13.734,proactive3.2,2020.1.2,Win32,60,5f5adea66120081ea0f57a61,5f5c7d2b2347b501aa201f39,5,,,,,,tyre,,,,,,0,3,3,1,1,1,2,,,,,,,,,,,,,,,,,,,,,,,,,,,,,,,,,,,,,,,,,,,,,,,,,,,,,,,,,,,,,,,,,
,,,,,,,,,,stimuli/images/PICTURE_57.png,CANDY,5ea07a903abacb0452903ef4,22/08/1950,2020-09-12_08h49.13.734,proactive3.2,2020.1.2,Win32,60,5f5adea66120081ea0f57a61,5f5c7d2b2347b501aa201f39,5,,,,,,stamp,,,,,,0,4,4,52,1,6,2,,,,,,,,,,,,,,,,,,,,,,,,,,,,,,,,,,,,,,,,,,,,,,,,,,,,,,,,,,,,,,,,,
,,,,,,,,,,stimuli/images/PICTURE_654.png,YEAR,5ea07a903abacb0452903ef4,22/08/1950,2020-09-12_08h49.13.734,proactive3.2,2020.1.2,Win32,60,5f5adea66120081ea0f57a61,5f5c7d2b2347b501aa201f39,5,,,,,,pencil,,,,,,0,5,5,41,1,5,2,,,,,,,,,,,,,,,,,,,,,,,,,,,,,,,,,,,,,,,,,,,,,,,,,,,,,,,,,,,,,,,,,
,,,,,,,,,,stimuli/images/PICTURE_405.png,JUNGLE,5ea07a903abacb0452903ef4,22/08/1950,2020-09-12_08h49.13.734,proactive3.2,2020.1.2,Win32,60,5f5adea66120081ea0f57a61,5f5c7d2b2347b501aa201f39,5,,,,,,anchor,,,,,,0,6,6,13,1,2,2,,,,,,,,,,,,,,,,,,,,,,,,,,,,,,,,,,,,,,,,,,,,,,,,,,,,,,,,,,,,,,,,,
,,,,,,,,,,stimuli/images/PICTURE_296.png,CLOCK,5ea07a903abacb0452903ef4,22/08/1950,2020-09-12_08h49.13.734,proactive3.2,2020.1.2,Win32,60,5f5adea66120081ea0f57a61,5f5c7d2b2347b501aa201f39,5,,,,,,bolt,,,,,,0,7,7,18,1,2,2,,,,,,,,,,,,,,,,,,,,,,,,,,,,,,,,,,,,,,,,,,,,,,,,,,,,,,,,,,,,,,,,,
,,,,,,,,,,stimuli/images/PICTURE_57.png,CASINO,5ea07a903abacb0452903ef4,22/08/1950,2020-09-12_08h49.13.734,proactive3.2,2020.1.2,Win32,60,5f5adea66120081ea0f57a61,5f5c7d2b2347b501aa201f39,5,,,,,,stamp,,,,,,0,8,8,12,1,2,2,,,,,,,,,,,,,,,,,,,,,,,,,,,,,,,,,,,,,,,,,,,,,,,,,,,,,,,,,,,,,,,,,
,,,,,,,,,,stimuli/images/PICTURE_285.png,PRINCE,5ea07a903abacb0452903ef4,22/08/1950,2020-09-12_08h49.13.734,proactive3.2,2020.1.2,Win32,60,5f5adea66120081ea0f57a61,5f5c7d2b2347b501aa201f39,5,,,,,,carrot,,,,,,0,9,9,20,1,3,2,,,,,,,,,,,,,,,,,,,,,,,,,,,,,,,,,,,,,,,,,,,,,,,,,,,,,,,,,,,,,,,,,
,,,,,,,,,,stimuli/images/PICTURE_509.png,APPLE,5ea07a903abacb0452903ef4,22/08/1950,2020-09-12_08h49.13.734,proactive3.2,2020.1.2,Win32,60,5f5adea66120081ea0f57a61,5f5c7d2b2347b501aa201f39,5,,,,,,telephone,,,,,,0,10,10,38,1,4,2,,,,,,,,,,,,,,,,,,,,,,,,,,,,,,,,,,,,,,,,,,,,,,,,,,,,,,,,,,,,,,,,,
,,,,,,,,,,stimuli/images/PICTURE_654.png,COPS,5ea07a903abacb0452903ef4,22/08/1950,2020-09-12_08h49.13.734,proactive3.2,2020.1.2,Win32,60,5f5adea66120081ea0f57a61,5f5c7d2b2347b501aa201f39,5,,,,,,pencil,,,,,,0,11,11,10,1,2,2,,,,,,,,,,,,,,,,,,,,,,,,,,,,,,,,,,,,,,,,,,,,,,,,,,,,,,,,,,,,,,,,,
,,,,,,,,,,stimuli/images/PICTURE_405.png,JUNGLE,5ea07a903abacb0452903ef4,22/08/1950,2020-09-12_08h49.13.734,proactive3.2,2020.1.2,Win32,60,5f5adea66120081ea0f57a61,5f5c7d2b2347b501aa201f39,5,,,,,,anchor,,,,,,0,12,12,58,1,6,2,,,,,,,,,,,,,,,,,,,,,,,,,,,,,,,,,,,,,,,,,,,,,,,,,,,,,,,,,,,,,,,,,
,,,,,,,,,,stimuli/images/PICTURE_123.png,SALE,5ea07a903abacb0452903ef4,22/08/1950,2020-09-12_08h49.13.734,proactive3.2,2020.1.2,Win32,60,5f5adea66120081ea0f57a61,5f5c7d2b2347b501aa201f39,5,,,,,,dart,,,,,,0,13,13,8,1,1,2,,,,,,,,,,,,,,,,,,,,,,,,,,,,,,,,,,,,,,,,,,,,,,,,,,,,,,,,,,,,,,,,,
,,,,,,,,,,stimuli/images/PICTURE_95.png,NIGHT,5ea07a903abacb0452903ef4,22/08/1950,2020-09-12_08h49.13.734,proactive3.2,2020.1.2,Win32,60,5f5adea66120081ea0f57a61,5f5c7d2b2347b501aa201f39,5,,,,,,suitcase,,,,,,0,14,14,37,1,4,2,,,,,,,,,,,,,,,,,,,,,,,,,,,,,,,,,,,,,,,,,,,,,,,,,,,,,,,,,,,,,,,,,
,,,,,,,,,,stimuli/images/PICTURE_33.png,COPS,5ea07a903abacb0452903ef4,22/08/1950,2020-09-12_08h49.13.734,proactive3.2,2020.1.2,Win32,60,5f5adea66120081ea0f57a61,5f5c7d2b2347b501aa201f39,5,,,,,,frame,,,,,,0,15,15,29,1,3,2,,,,,,,,,,,,,,,,,,,,,,,,,,,,,,,,,,,,,,,,,,,,,,,,,,,,,,,,,,,,,,,,,
,,,,,,,,,,stimuli/images/PICTURE_487.png,ROOF,5ea07a903abacb0452903ef4,22/08/1950,2020-09-12_08h49.13.734,proactive3.2,2020.1.2,Win32,60,5f5adea66120081ea0f57a61,5f5c7d2b2347b501aa201f39,5,,,,,,basket,,,,,,0,16,16,50,1,6,2,,,,,,,,,,,,,,,,,,,,,,,,,,,,,,,,,,,,,,,,,,,,,,,,,,,,,,,,,,,,,,,,,
,,,,,,,,,,stimuli/images/PICTURE_688.png,CLOCK,5ea07a903abacb0452903ef4,22/08/1950,2020-09-12_08h49.13.734,proactive3.2,2020.1.2,Win32,60,5f5adea66120081ea0f57a61,5f5c7d2b2347b501aa201f39,5,,,,,,runner,,,,,,0,17,17,42,1,5,2,,,,,,,,,,,,,,,,,,,,,,,,,,,,,,,,,,,,,,,,,,,,,,,,,,,,,,,,,,,,,,,,,
,,,,,,,,,,stimuli/images/PICTURE_215.png,FOOD,5ea07a903abacb0452903ef4,22/08/1950,2020-09-12_08h49.13.734,proactive3.2,2020.1.2,Win32,60,5f5adea66120081ea0f57a61,5f5c7d2b2347b501aa201f39,5,,,,,,boot,,,,,,0,18,18,5,1,1,2,,,,,,,,,,,,,,,,,,,,,,,,,,,,,,,,,,,,,,,,,,,,,,,,,,,,,,,,,,,,,,,,,
,,,,,,,,,,stimuli/images/PICTURE_327.png,LEADER,5ea07a903abacb0452903ef4,22/08/1950,2020-09-12_08h49.13.734,proactive3.2,2020.1.2,Win32,60,5f5adea66120081ea0f57a61,5f5c7d2b2347b501aa201f39,5,,,,,,helmet,,,,,,0,19,19,17,1,2,2,,,,,,,,,,,,,,,,,,,,,,,,,,,,,,,,,,,,,,,,,,,,,,,,,,,,,,,,,,,,,,,,,
,,,,,,,,,,stimuli/images/PICTURE_708.png,VALLEY,5ea07a903abacb0452903ef4,22/08/1950,2020-09-12_08h49.13.734,proactive3.2,2020.1.2,Win32,60,5f5adea66120081ea0f57a61,5f5c7d2b2347b501aa201f39,5,,,,,,monkey,,,,,,0,20,20,45,1,5,2,,,,,,,,,,,,,,,,,,,,,,,,,,,,,,,,,,,,,,,,,,,,,,,,,,,,,,,,,,,,,,,,,
,,,,,,,,,,stimuli/images/PICTURE_160.png,HOTEL,5ea07a903abacb0452903ef4,22/08/1950,2020-09-12_08h49.13.734,proactive3.2,2020.1.2,Win32,60,5f5adea66120081ea0f57a61,5f5c7d2b2347b501aa201f39,5,,,,,,wheelbarrow,,,,,,0,21,21,16,1,2,2,,,,,,,,,,,,,,,,,,,,,,,,,,,,,,,,,,,,,,,,,,,,,,,,,,,,,,,,,,,,,,,,,
,,,,,,,,,,stimuli/images/PICTURE_677.png,PHOTO,5ea07a903abacb0452903ef4,22/08/1950,2020-09-12_08h49.13.734,proactive3.2,2020.1.2,Win32,60,5f5adea66120081ea0f57a61,5f5c7d2b2347b501aa201f39,5,,,,,,map,,,,,,0,22,22,14,1,2,2,,,,,,,,,,,,,,,,,,,,,,,,,,,,,,,,,,,,,,,,,,,,,,,,,,,,,,,,,,,,,,,,,
,,,,,,,,,,stimuli/images/PICTURE_405.png,HOUSE,5ea07a903abacb0452903ef4,22/08/1950,2020-09-12_08h49.13.734,proactive3.2,2020.1.2,Win32,60,5f5adea66120081ea0f57a61,5f5c7d2b2347b501aa201f39,5,,,,,,anchor,,,,,,0,23,23,2,1,1,2,,,,,,,,,,,,,,,,,,,,,,,,,,,,,,,,,,,,,,,,,,,,,,,,,,,,,,,,,,,,,,,,,
,,,,,,,,,,stimuli/images/PICTURE_93.png,GIRL,5ea07a903abacb0452903ef4,22/08/1950,2020-09-12_08h49.13.734,proactive3.2,2020.1.2,Win32,60,5f5adea66120081ea0f57a61,5f5c7d2b2347b501aa201f39,5,,,,,,skateboard,,,,,,0,24,24,31,1,4,2,,,,,,,,,,,,,,,,,,,,,,,,,,,,,,,,,,,,,,,,,,,,,,,,,,,,,,,,,,,,,,,,,
,,,,,,,,,,stimuli/images/PICTURE_314.png,SPEECH,5ea07a903abacb0452903ef4,22/08/1950,2020-09-12_08h49.13.734,proactive3.2,2020.1.2,Win32,60,5f5adea66120081ea0f57a61,5f5c7d2b2347b501aa201f39,5,,,,,,perfume,,,,,,0,25,25,35,1,4,2,,,,,,,,,,,,,,,,,,,,,,,,,,,,,,,,,,,,,,,,,,,,,,,,,,,,,,,,,,,,,,,,,
,,,,,,,,,,stimuli/images/PICTURE_677.png,FAMILY,5ea07a903abacb0452903ef4,22/08/1950,2020-09-12_08h49.13.734,proactive3.2,2020.1.2,Win32,60,5f5adea66120081ea0f57a61,5f5c7d2b2347b501aa201f39,5,,,,,,map,,,,,,0,26,26,53,1,6,2,,,,,,,,,,,,,,,,,,,,,,,,,,,,,,,,,,,,,,,,,,,,,,,,,,,,,,,,,,,,,,,,,
,,,,,,,,,,stimuli/images/PICTURE_311.png,FLESH,5ea07a903abacb0452903ef4,22/08/1950,2020-09-12_08h49.13.734,proactive3.2,2020.1.2,Win32,60,5f5adea66120081ea0f57a61,5f5c7d2b2347b501aa201f39,5,,,,,,razor,,,,,,0,27,27,3,1,1,2,,,,,,,,,,,,,,,,,,,,,,,,,,,,,,,,,,,,,,,,,,,,,,,,,,,,,,,,,,,,,,,,,
,,,,,,,,,,stimuli/images/PICTURE_255.png,PENNY,5ea07a903abacb0452903ef4,22/08/1950,2020-09-12_08h49.13.734,proactive3.2,2020.1.2,Win32,60,5f5adea66120081ea0f57a61,5f5c7d2b2347b501aa201f39,5,,,,,,shovel,,,,,,0,28,28,19,1,2,2,,,,,,,,,,,,,,,,,,,,,,,,,,,,,,,,,,,,,,,,,,,,,,,,,,,,,,,,,,,,,,,,,
,,,,,,,,,,stimuli/images/PICTURE_311.png,TOILET,5ea07a903abacb0452903ef4,22/08/1950,2020-09-12_08h49.13.734,proactive3.2,2020.1.2,Win32,60,5f5adea66120081ea0f57a61,5f5c7d2b2347b501aa201f39,5,,,,,,razor,,,,,,0,29,29,54,1,6,2,,,,,,,,,,,,,,,,,,,,,,,,,,,,,,,,,,,,,,,,,,,,,,,,,,,,,,,,,,,,,,,,,
,,,,,,,,,,stimuli/images/PICTURE_141.png,CLIENT,5ea07a903abacb0452903ef4,22/08/1950,2020-09-12_08h49.13.734,proactive3.2,2020.1.2,Win32,60,5f5adea66120081ea0f57a61,5f5c7d2b2347b501aa201f39,5,,,,,,sunflower,,,,,,0,30,30,30,1,4,2,,,,,,,,,,,,,,,,,,,,,,,,,,,,,,,,,,,,,,,,,,,,,,,,,,,,,,,,,,,,,,,,,
,,,,,,,,,,stimuli/images/PICTURE_215.png,BOYS,5ea07a903abacb0452903ef4,22/08/1950,2020-09-12_08h49.13.734,proactive3.2,2020.1.2,Win32,60,5f5adea66120081ea0f57a61,5f5c7d2b2347b501aa201f39,5,,,,,,boot,,,,,,0,31,31,24,1,3,2,,,,,,,,,,,,,,,,,,,,,,,,,,,,,,,,,,,,,,,,,,,,,,,,,,,,,,,,,,,,,,,,,
,,,,,,,,,,stimuli/images/PICTURE_57.png,NATION,5ea07a903abacb0452903ef4,22/08/1950,2020-09-12_08h49.13.734,proactive3.2,2020.1.2,Win32,60,5f5adea66120081ea0f57a61,5f5c7d2b2347b501aa201f39,5,,,,,,stamp,,,,,,0,32,32,21,1,3,2,,,,,,,,,,,,,,,,,,,,,,,,,,,,,,,,,,,,,,,,,,,,,,,,,,,,,,,,,,,,,,,,,
,,,,,,,,,,stimuli/images/PICTURE_348.png,TOILET,5ea07a903abacb0452903ef4,22/08/1950,2020-09-12_08h49.13.734,proactive3.2,2020.1.2,Win32,60,5f5adea66120081ea0f57a61,5f5c7d2b2347b501aa201f39,5,,,,,,pepper,,,,,,0,33,33,4,1,1,2,,,,,,,,,,,,,,,,,,,,,,,,,,,,,,,,,,,,,,,,,,,,,,,,,,,,,,,,,,,,,,,,,
,,,,,,,,,,stimuli/images/PICTURE_453.png,FAMILY,5ea07a903abacb0452903ef4,22/08/1950,2020-09-12_08h49.13.734,proactive3.2,2020.1.2,Win32,60,5f5adea66120081ea0f57a61,5f5c7d2b2347b501aa201f39,5,,,,,,scissors,,,,,,0,34,34,48,1,5,2,,,,,,,,,,,,,,,,,,,,,,,,,,,,,,,,,,,,,,,,,,,,,,,,,,,,,,,,,,,,,,,,,
,,,,,,,,,,stimuli/images/PICTURE_403.png,FAMILY,5ea07a903abacb0452903ef4,22/08/1950,2020-09-12_08h49.13.734,proactive3.2,2020.1.2,Win32,60,5f5adea66120081ea0f57a61,5f5c7d2b2347b501aa201f39,5,,,,,,cathedral,,,,,,0,35,35,9,1,1,2,,,,,,,,,,,,,,,,,,,,,,,,,,,,,,,,,,,,,,,,,,,,,,,,,,,,,,,,,,,,,,,,,
,,,,,,,,,,stimuli/images/PICTURE_177.png,HOUSE,5ea07a903abacb0452903ef4,22/08/1950,2020-09-12_08h49.13.734,proactive3.2,2020.1.2,Win32,60,5f5adea66120081ea0f57a61,5f5c7d2b2347b501aa201f39,5,,,,,,mushroom,,,,,,0,36,36,25,1,3,2,,,,,,,,,,,,,,,,,,,,,,,,,,,,,,,,,,,,,,,,,,,,,,,,,,,,,,,,,,,,,,,,,
,,,,,,,,,,stimuli/images/PICTURE_509.png,BATH,5ea07a903abacb0452903ef4,22/08/1950,2020-09-12_08h49.13.734,proactive3.2,2020.1.2,Win32,60,5f5adea66120081ea0f57a61,5f5c7d2b2347b501aa201f39,5,,,,,,telephone,,,,,,0,37,37,15,1,2,2,,,,,,,,,,,,,,,,,,,,,,,,,,,,,,,,,,,,,,,,,,,,,,,,,,,,,,,,,,,,,,,,,
,,,,,,,,,,stimuli/images/PICTURE_692.png,DUDE,5ea07a903abacb0452903ef4,22/08/1950,2020-09-12_08h49.13.734,proactive3.2,2020.1.2,Win32,60,5f5adea66120081ea0f57a61,5f5c7d2b2347b501aa201f39,5,,,,,,cherry,,,,,,0,38,38,47,1,5,2,,,,,,,,,,,,,,,,,,,,,,,,,,,,,,,,,,,,,,,,,,,,,,,,,,,,,,,,,,,,,,,,,
,,,,,,,,,,stimuli/images/PICTURE_147.png,LEADER,5ea07a903abacb0452903ef4,22/08/1950,2020-09-12_08h49.13.734,proactive3.2,2020.1.2,Win32,60,5f5adea66120081ea0f57a61,5f5c7d2b2347b501aa201f39,5,,,,,,hanger,,,,,,0,39,39,33,1,4,2,,,,,,,,,,,,,,,,,,,,,,,,,,,,,,,,,,,,,,,,,,,,,,,,,,,,,,,,,,,,,,,,,
,,,,,,,,,,stimuli/images/PICTURE_2.png,AREA,5ea07a903abacb0452903ef4,22/08/1950,2020-09-12_08h49.13.734,proactive3.2,2020.1.2,Win32,60,5f5adea66120081ea0f57a61,5f5c7d2b2347b501aa201f39,5,,,,,,tyre,,,,,,0,40,40,32,1,4,2,,,,,,,,,,,,,,,,,,,,,,,,,,,,,,,,,,,,,,,,,,,,,,,,,,,,,,,,,,,,,,,,,
,,,,,,,,,,stimuli/images/PICTURE_655.png,SALE,5ea07a903abacb0452903ef4,22/08/1950,2020-09-12_08h49.13.734,proactive3.2,2020.1.2,Win32,60,5f5adea66120081ea0f57a61,5f5c7d2b2347b501aa201f39,5,,,,,,megaphone,,,,,,0,41,41,57,1,6,2,,,,,,,,,,,,,,,,,,,,,,,,,,,,,,,,,,,,,,,,,,,,,,,,,,,,,,,,,,,,,,,,,
,,,,,,,,,,stimuli/images/PICTURE_2.png,YARD,5ea07a903abacb0452903ef4,22/08/1950,2020-09-12_08h49.13.734,proactive3.2,2020.1.2,Win32,60,5f5adea66120081ea0f57a61,5f5c7d2b2347b501aa201f39,5,,,,,,tyre,,,,,,0,42,42,55,1,6,2,,,,,,,,,,,,,,,,,,,,,,,,,,,,,,,,,,,,,,,,,,,,,,,,,,,,,,,,,,,,,,,,,
,,,,,,,,,,stimuli/images/PICTURE_564.png,PLENTY,5ea07a903abacb0452903ef4,22/08/1950,2020-09-12_08h49.13.734,proactive3.2,2020.1.2,Win32,60,5f5adea66120081ea0f57a61,5f5c7d2b2347b501aa201f39,5,,,,,,spoon,,,,,,0,43,43,11,1,2,2,,,,,,,,,,,,,,,,,,,,,,,,,,,,,,,,,,,,,,,,,,,,,,,,,,,,,,,,,,,,,,,,,
,,,,,,,,,,stimuli/images/PICTURE_491.png,SERIES,5ea07a903abacb0452903ef4,22/08/1950,2020-09-12_08h49.13.734,proactive3.2,2020.1.2,Win32,60,5f5adea66120081ea0f57a61,5f5c7d2b2347b501aa201f39,5,,,,,,rug,,,,,,0,44,44,39,1,4,2,,,,,,,,,,,,,,,,,,,,,,,,,,,,,,,,,,,,,,,,,,,,,,,,,,,,,,,,,,,,,,,,,
,,,,,,,,,,stimuli/images/PICTURE_470.png,BEAUTY,5ea07a903abacb0452903ef4,22/08/1950,2020-09-12_08h49.13.734,proactive3.2,2020.1.2,Win32,60,5f5adea66120081ea0f57a61,5f5c7d2b2347b501aa201f39,5,,,,,,motorbike,,,,,,0,45,45,26,1,3,2,,,,,,,,,,,,,,,,,,,,,,,,,,,,,,,,,,,,,,,,,,,,,,,,,,,,,,,,,,,,,,,,,
,,,,,,,,,,stimuli/images/PICTURE_297.png,BODY,5ea07a903abacb0452903ef4,22/08/1950,2020-09-12_08h49.13.734,proactive3.2,2020.1.2,Win32,60,5f5adea66120081ea0f57a61,5f5c7d2b2347b501aa201f39,5,,,,,,aeroplane,,,,,,0,46,46,51,1,6,2,,,,,,,,,,,,,,,,,,,,,,,,,,,,,,,,,,,,,,,,,,,,,,,,,,,,,,,,,,,,,,,,,
,,,,,,,,,,stimuli/images/PICTURE_356.png,CANDY,5ea07a903abacb0452903ef4,22/08/1950,2020-09-12_08h49.13.734,proactive3.2,2020.1.2,Win32,60,5f5adea66120081ea0f57a61,5f5c7d2b2347b501aa201f39,5,,,,,,pawn,,,,,,0,47,47,46,1,5,2,,,,,,,,,,,,,,,,,,,,,,,,,,,,,,,,,,,,,,,,,,,,,,,,,,,,,,,,,,,,,,,,,
,,,,,,,,,,stimuli/images/PICTURE_215.png,LEADER,5ea07a903abacb0452903ef4,22/08/1950,2020-09-12_08h49.13.734,proactive3.2,2020.1.2,Win32,60,5f5adea66120081ea0f57a61,5f5c7d2b2347b501aa201f39,5,,,,,,boot,,,,,,0,48,48,43,1,5,2,,,,,,,,,,,,,,,,,,,,,,,,,,,,,,,,,,,,,,,,,,,,,,,,,,,,,,,,,,,,,,,,,
,,,,,,,,,,stimuli/images/PICTURE_285.png,WRITER,5ea07a903abacb0452903ef4,22/08/1950,2020-09-12_08h49.13.734,proactive3.2,2020.1.2,Win32,60,5f5adea66120081ea0f57a61,5f5c7d2b2347b501aa201f39,5,,,,,,carrot,,,,,,0,49,49,6,1,1,2,,,,,,,,,,,,,,,,,,,,,,,,,,,,,,,,,,,,,,,,,,,,,,,,,,,,,,,,,,,,,,,,,
,,,,,,,,,,stimuli/images/PICTURE_18.png,RIVER,5ea07a903abacb0452903ef4,22/08/1950,2020-09-12_08h49.13.734,proactive3.2,2020.1.2,Win32,60,5f5adea66120081ea0f57a61,5f5c7d2b2347b501aa201f39,5,,,,,,planet,,,,,,0,50,50,22,1,3,2,,,,,,,,,,,,,,,,,,,,,,,,,,,,,,,,,,,,,,,,,,,,,,,,,,,,,,,,,,,,,,,,,
,,,,,,,,,,stimuli/images/PICTURE_452.png,COPS,5ea07a903abacb0452903ef4,22/08/1950,2020-09-12_08h49.13.734,proactive3.2,2020.1.2,Win32,60,5f5adea66120081ea0f57a61,5f5c7d2b2347b501aa201f39,5,,,,,,watch,,,,,,0,51,51,0,1,1,2,,,,,,,,,,,,,,,,,,,,,,,,,,,,,,,,,,,,,,,,,,,,,,,,,,,,,,,,,,,,,,,,,
,,,,,,,,,,stimuli/images/PICTURE_504.png,HOUSE,5ea07a903abacb0452903ef4,22/08/1950,2020-09-12_08h49.13.734,proactive3.2,2020.1.2,Win32,60,5f5adea66120081ea0f57a61,5f5c7d2b2347b501aa201f39,5,,,,,,wheel,,,,,,0,52,52,36,1,4,2,,,,,,,,,,,,,,,,,,,,,,,,,,,,,,,,,,,,,,,,,,,,,,,,,,,,,,,,,,,,,,,,,
,,,,,,,,,,stimuli/images/PICTURE_667.png,GLASS,5ea07a903abacb0452903ef4,22/08/1950,2020-09-12_08h49.13.734,proactive3.2,2020.1.2,Win32,60,5f5adea66120081ea0f57a61,5f5c7d2b2347b501aa201f39,5,,,,,,daisy,,,,,,0,53,53,27,1,3,2,,,,,,,,,,,,,,,,,,,,,,,,,,,,,,,,,,,,,,,,,,,,,,,,,,,,,,,,,,,,,,,,,
,,,,,,,,,,stimuli/images/PICTURE_750.png,POLICY,5ea07a903abacb0452903ef4,22/08/1950,2020-09-12_08h49.13.734,proactive3.2,2020.1.2,Win32,60,5f5adea66120081ea0f57a61,5f5c7d2b2347b501aa201f39,5,,,,,,kettle,,,,,,0,54,54,44,1,5,2,,,,,,,,,,,,,,,,,,,,,,,,,,,,,,,,,,,,,,,,,,,,,,,,,,,,,,,,,,,,,,,,,
,,,,,,,,,,stimuli/images/PICTURE_470.png,MOMENT,5ea07a903abacb0452903ef4,22/08/1950,2020-09-12_08h49.13.734,proactive3.2,2020.1.2,Win32,60,5f5adea66120081ea0f57a61,5f5c7d2b2347b501aa201f39,5,,,,,,motorbike,,,,,,0,55,55,40,1,5,2,,,,,,,,,,,,,,,,,,,,,,,,,,,,,,,,,,,,,,,,,,,,,,,,,,,,,,,,,,,,,,,,,
,,,,,,,,,,stimuli/images/PICTURE_509.png,SHOTS,5ea07a903abacb0452903ef4,22/08/1950,2020-09-12_08h49.13.734,proactive3.2,2020.1.2,Win32,60,5f5adea66120081ea0f57a61,5f5c7d2b2347b501aa201f39,5,,,,,,telephone,,,,,,0,56,56,7,1,1,2,,,,,,,,,,,,,,,,,,,,,,,,,,,,,,,,,,,,,,,,,,,,,,,,,,,,,,,,,,,,,,,,,
,,,,,,,,,,stimuli/images/PICTURE_32.png,LETTER,5ea07a903abacb0452903ef4,22/08/1950,2020-09-12_08h49.13.734,proactive3.2,2020.1.2,Win32,60,5f5adea66120081ea0f57a61,5f5c7d2b2347b501aa201f39,5,,,,,,crown,,,,,,0,57,57,56,1,6,2,,,,,,,,,,,,,,,,,,,,,,,,,,,,,,,,,,,,,,,,,,,,,,,,,,,,,,,,,,,,,,,,,
,,,,,,,,,,stimuli/images/PICTURE_348.png,DUDE,5ea07a903abacb0452903ef4,22/08/1950,2020-09-12_08h49.13.734,proactive3.2,2020.1.2,Win32,60,5f5adea66120081ea0f57a61,5f5c7d2b2347b501aa201f39,5,,,,,,pepper,,,,,,0,58,58,59,1,6,2,,,,,,,,,,,,,,,,,,,,,,,,,,,,,,,,,,,,,,,,,,,,,,,,,,,,,,,,,,,,,,,,,
,,?,0.003,0,,,,,,stimuli/images/PICTURE_487.png,ROOF,5ea07a903abacb0452903ef4,22/08/1950,2020-09-12_08h49.13.734,proactive3.2,2020.1.2,Win32,60,5f5adea66120081ea0f57a61,5f5c7d2b2347b501aa201f39,5,,,,,,basket,,,,,,,,,,,6,2,0,0,0,50,1,,,,,,,,,,,,,,,,,,,,,,,,,,,,,,,,,,,,,,,,,,,,,,,,,,,,,,,,,,,,
,,?,0.004,0,,,,,,stimuli/images/PICTURE_297.png,BODY,5ea07a903abacb0452903ef4,22/08/1950,2020-09-12_08h49.13.734,proactive3.2,2020.1.2,Win32,60,5f5adea66120081ea0f57a61,5f5c7d2b2347b501aa201f39,5,,,,,,aeroplane,,,,,,,,,,,6,2,0,1,1,51,1,,,,,,,,,,,,,,,,,,,,,,,,,,,,,,,,,,,,,,,,,,,,,,,,,,,,,,,,,,,,
,,?,0.004,0,,,,,,stimuli/images/PICTURE_327.png,LEADER,5ea07a903abacb0452903ef4,22/08/1950,2020-09-12_08h49.13.734,proactive3.2,2020.1.2,Win32,60,5f5adea66120081ea0f57a61,5f5c7d2b2347b501aa201f39,5,,,,,,helmet,,,,,,,,,,,2,2,0,2,2,17,1,,,,,,,,,,,,,,,,,,,,,,,,,,,,,,,,,,,,,,,,,,,,,,,,,,,,,,,,,,,,
,,POLICY,14.223,1,,,,,,stimuli/images/PICTURE_750.png,POLICY,5ea07a903abacb0452903ef4,22/08/1950,2020-09-12_08h49.13.734,proactive3.2,2020.1.2,Win32,60,5f5adea66120081ea0f57a61,5f5c7d2b2347b501aa201f39,5,,,,,,kettle,,,,,,,,,,,5,2,0,3,3,44,1,,,,,,,,,,,,,,,,,,,,,,,,,,,,,,,,,,,,,,,,,,,,,,,,,,,,,,,,,,,,
,,?,0.003,0,,,,,,stimuli/images/PICTURE_655.png,SALE,5ea07a903abacb0452903ef4,22/08/1950,2020-09-12_08h49.13.734,proactive3.2,2020.1.2,Win32,60,5f5adea66120081ea0f57a61,5f5c7d2b2347b501aa201f39,5,,,,,,megaphone,,,,,,,,,,,6,2,0,4,4,57,1,,,,,,,,,,,,,,,,,,,,,,,,,,,,,,,,,,,,,,,,,,,,,,,,,,,,,,,,,,,,
,,?,0.002,0,,,,,,stimuli/images/PICTURE_208.png,SPIRIT,5ea07a903abacb0452903ef4,22/08/1950,2020-09-12_08h49.13.734,proactive3.2,2020.1.2,Win32,60,5f5adea66120081ea0f57a61,5f5c7d2b2347b501aa201f39,5,,,,,,microphone,,,,,,,,,,,3,2,0,5,5,28,1,,,,,,,,,,,,,,,,,,,,,,,,,,,,,,,,,,,,,,,,,,,,,,,,,,,,,,,,,,,,
,,?,0.003,0,,,,,,stimuli/images/PICTURE_564.png,PLENTY,5ea07a903abacb0452903ef4,22/08/1950,2020-09-12_08h49.13.734,proactive3.2,2020.1.2,Win32,60,5f5adea66120081ea0f57a61,5f5c7d2b2347b501aa201f39,5,,,,,,spoon,,,,,,,,,,,2,2,0,6,6,11,1,,,,,,,,,,,,,,,,,,,,,,,,,,,,,,,,,,,,,,,,,,,,,,,,,,,,,,,,,,,,
,,?,0.003,0,,,,,,stimuli/images/PICTURE_255.png,PENNY,5ea07a903abacb0452903ef4,22/08/1950,2020-09-12_08h49.13.734,proactive3.2,2020.1.2,Win32,60,5f5adea66120081ea0f57a61,5f5c7d2b2347b501aa201f39,5,,,,,,shovel,,,,,,,,,,,2,2,0,7,7,19,1,,,,,,,,,,,,,,,,,,,,,,,,,,,,,,,,,,,,,,,,,,,,,,,,,,,,,,,,,,,,
,,?,0.003,0,,,,,,stimuli/images/PICTURE_18.png,RIVER,5ea07a903abacb0452903ef4,22/08/1950,2020-09-12_08h49.13.734,proactive3.2,2020.1.2,Win32,60,5f5adea66120081ea0f57a61,5f5c7d2b2347b501aa201f39,5,,,,,,planet,,,,,,,,,,,3,2,0,8,8,22,1,,,,,,,,,,,,,,,,,,,,,,,,,,,,,,,,,,,,,,,,,,,,,,,,,,,,,,,,,,,,
,,?,0.003,0,,,,,,stimuli/images/PICTURE_285.png,WRITER,5ea07a903abacb0452903ef4,22/08/1950,2020-09-12_08h49.13.734,proactive3.2,2020.1.2,Win32,60,5f5adea66120081ea0f57a61,5f5c7d2b2347b501aa201f39,5,,,,,,carrot,,,,,,,,,,,1,2,0,9,9,6,1,,,,,,,,,,,,,,,,,,,,,,,,,,,,,,,,,,,,,,,,,,,,,,,,,,,,,,,,,,,,
,,MOMENY,6.048,0,,,,,,stimuli/images/PICTURE_470.png,MOMENT,5ea07a903abacb0452903ef4,22/08/1950,2020-09-12_08h49.13.734,proactive3.2,2020.1.2,Win32,60,5f5adea66120081ea0f57a61,5f5c7d2b2347b501aa201f39,5,,,,,,motorbike,,,,,,,,,,,5,2,0,10,10,40,1,,,,,,,,,,,,,,,,,,,,,,,,,,,,,,,,,,,,,,,,,,,,,,,,,,,,,,,,,,,,
,,?,0.004,0,,,,,,stimuli/images/PICTURE_2.png,JUNGLE,5ea07a903abacb0452903ef4,22/08/1950,2020-09-12_08h49.13.734,proactive3.2,2020.1.2,Win32,60,5f5adea66120081ea0f57a61,5f5c7d2b2347b501aa201f39,5,,,,,,tyre,,,,,,,,,,,1,2,0,11,11,1,1,,,,,,,,,,,,,,,,,,,,,,,,,,,,,,,,,,,,,,,,,,,,,,,,,,,,,,,,,,,,
,,?,0.003,0,,,,,,stimuli/images/PICTURE_2.png,YARD,5ea07a903abacb0452903ef4,22/08/1950,2020-09-12_08h49.13.734,proactive3.2,2020.1.2,Win32,60,5f5adea66120081ea0f57a61,5f5c7d2b2347b501aa201f39,5,,,,,,tyre,,,,,,,,,,,6,2,0,12,12,55,1,,,,,,,,,,,,,,,,,,,,,,,,,,,,,,,,,,,,,,,,,,,,,,,,,,,,,,,,,,,,
,,?,0.003,0,,,,,,stimuli/images/PICTURE_405.png,HOUSE,5ea07a903abacb0452903ef4,22/08/1950,2020-09-12_08h49.13.734,proactive3.2,2020.1.2,Win32,60,5f5adea66120081ea0f57a61,5f5c7d2b2347b501aa201f39,5,,,,,,anchor,,,,,,,,,,,1,2,0,13,13,2,1,,,,,,,,,,,,,,,,,,,,,,,,,,,,,,,,,,,,,,,,,,,,,,,,,,,,,,,,,,,,
,,?,0.004,0,,,,,,stimuli/images/PICTURE_405.png,JUNGLE,5ea07a903abacb0452903ef4,22/08/1950,2020-09-12_08h49.13.734,proactive3.2,2020.1.2,Win32,60,5f5adea66120081ea0f57a61,5f5c7d2b2347b501aa201f39,5,,,,,,anchor,,,,,,,,,,,6,2,0,14,14,58,1,,,,,,,,,,,,,,,,,,,,,,,,,,,,,,,,,,,,,,,,,,,,,,,,,,,,,,,,,,,,
,,?,0.004,0,,,,,,stimuli/images/PICTURE_405.png,JUNGLE,5ea07a903abacb0452903ef4,22/08/1950,2020-09-12_08h49.13.734,proactive3.2,2020.1.2,Win32,60,5f5adea66120081ea0f57a61,5f5c7d2b2347b501aa201f39,5,,,,,,anchor,,,,,,,,,,,2,2,0,15,15,13,1,,,,,,,,,,,,,,,,,,,,,,,,,,,,,,,,,,,,,,,,,,,,,,,,,,,,,,,,,,,,
,,?,0.004,0,,,,,,stimuli/images/PICTURE_311.png,TOILET,5ea07a903abacb0452903ef4,22/08/1950,2020-09-12_08h49.13.734,proactive3.2,2020.1.2,Win32,60,5f5adea66120081ea0f57a61,5f5c7d2b2347b501aa201f39,5,,,,,,razor,,,,,,,,,,,6,2,0,16,16,54,1,,,,,,,,,,,,,,,,,,,,,,,,,,,,,,,,,,,,,,,,,,,,,,,,,,,,,,,,,,,,
,,?,0.003,0,,,,,,stimuli/images/PICTURE_57.png,NATION,5ea07a903abacb0452903ef4,22/08/1950,2020-09-12_08h49.13.734,proactive3.2,2020.1.2,Win32,60,5f5adea66120081ea0f57a61,5f5c7d2b2347b501aa201f39,5,,,,,,stamp,,,,,,,,,,,3,2,0,17,17,21,1,,,,,,,,,,,,,,,,,,,,,,,,,,,,,,,,,,,,,,,,,,,,,,,,,,,,,,,,,,,,
,,?,0.003,0,,,,,,stimuli/images/PICTURE_93.png,GIRL,5ea07a903abacb0452903ef4,22/08/1950,2020-09-12_08h49.13.734,proactive3.2,2020.1.2,Win32,60,5f5adea66120081ea0f57a61,5f5c7d2b2347b501aa201f39,5,,,,,,skateboard,,,,,,,,,,,4,2,0,18,18,31,1,,,,,,,,,,,,,,,,,,,,,,,,,,,,,,,,,,,,,,,,,,,,,,,,,,,,,,,,,,,,
,,?,0.003,0,,,,,,stimuli/images/PICTURE_509.png,BATH,5ea07a903abacb0452903ef4,22/08/1950,2020-09-12_08h49.13.734,proactive3.2,2020.1.2,Win32,60,5f5adea66120081ea0f57a61,5f5c7d2b2347b501aa201f39,5,,,,,,telephone,,,,,,,,,,,2,2,0,19,19,15,1,,,,,,,,,,,,,,,,,,,,,,,,,,,,,,,,,,,,,,,,,,,,,,,,,,,,,,,,,,,,
,,?,0.004,0,,,,,,stimuli/images/PICTURE_33.png,COPS,5ea07a903abacb0452903ef4,22/08/1950,2020-09-12_08h49.13.734,proactive3.2,2020.1.2,Win32,60,5f5adea66120081ea0f57a61,5f5c7d2b2347b501aa201f39,5,,,,,,frame,,,,,,,,,,,3,2,0,20,20,29,1,,,,,,,,,,,,,,,,,,,,,,,,,,,,,,,,,,,,,,,,,,,,,,,,,,,,,,,,,,,,
,,?,0.003,0,,,,,,stimuli/images/PICTURE_654.png,COPS,5ea07a903abacb0452903ef4,22/08/1950,2020-09-12_08h49.13.734,proactive3.2,2020.1.2,Win32,60,5f5adea66120081ea0f57a61,5f5c7d2b2347b501aa201f39,5,,,,,,pencil,,,,,,,,,,,2,2,0,21,21,10,1,,,,,,,,,,,,,,,,,,,,,,,,,,,,,,,,,,,,,,,,,,,,,,,,,,,,,,,,,,,,
,,?,0.003,0,,,,,,stimuli/images/PICTURE_296.png,CLOCK,5ea07a903abacb0452903ef4,22/08/1950,2020-09-12_08h49.13.734,proactive3.2,2020.1.2,Win32,60,5f5adea66120081ea0f57a61,5f5c7d2b2347b501aa201f39,5,,,,,,bolt,,,,,,,,,,,2,2,0,22,22,18,1,,,,,,,,,,,,,,,,,,,,,,,,,,,,,,,,,,,,,,,,,,,,,,,,,,,,,,,,,,,,
,,?,0.004,0,,,,,,stimuli/images/PICTURE_452.png,COPS,5ea07a903abacb0452903ef4,22/08/1950,2020-09-12_08h49.13.734,proactive3.2,2020.1.2,Win32,60,5f5adea66120081ea0f57a61,5f5c7d2b2347b501aa201f39,5,,,,,,watch,,,,,,,,,,,1,2,0,23,23,0,1,,,,,,,,,,,,,,,,,,,,,,,,,,,,,,,,,,,,,,,,,,,,,,,,,,,,,,,,,,,,
,,LEADER,4.091,1,,,,,,stimuli/images/PICTURE_215.png,LEADER,5ea07a903abacb0452903ef4,22/08/1950,2020-09-12_08h49.13.734,proactive3.2,2020.1.2,Win32,60,5f5adea66120081ea0f57a61,5f5c7d2b2347b501aa201f39,5,,,,,,boot,,,,,,,,,,,5,2,0,24,24,43,1,,,,,,,,,,,,,,,,,,,,,,,,,,,,,,,,,,,,,,,,,,,,,,,,,,,,,,,,,,,,
,,?,0.005,0,,,,,,stimuli/images/PICTURE_667.png,GLASS,5ea07a903abacb0452903ef4,22/08/1950,2020-09-12_08h49.13.734,proactive3.2,2020.1.2,Win32,60,5f5adea66120081ea0f57a61,5f5c7d2b2347b501aa201f39,5,,,,,,daisy,,,,,,,,,,,3,2,0,25,25,27,1,,,,,,,,,,,,,,,,,,,,,,,,,,,,,,,,,,,,,,,,,,,,,,,,,,,,,,,,,,,,
,,?,0.003,0,,,,,,stimuli/images/PICTURE_285.png,PRINCE,5ea07a903abacb0452903ef4,22/08/1950,2020-09-12_08h49.13.734,proactive3.2,2020.1.2,Win32,60,5f5adea66120081ea0f57a61,5f5c7d2b2347b501aa201f39,5,,,,,,carrot,,,,,,,,,,,3,2,0,26,26,20,1,,,,,,,,,,,,,,,,,,,,,,,,,,,,,,,,,,,,,,,,,,,,,,,,,,,,,,,,,,,,
,,?,0.002,0,,,,,,stimuli/images/PICTURE_509.png,APPLE,5ea07a903abacb0452903ef4,22/08/1950,2020-09-12_08h49.13.734,proactive3.2,2020.1.2,Win32,60,5f5adea66120081ea0f57a61,5f5c7d2b2347b501aa201f39,5,,,,,,telephone,,,,,,,,,,,4,2,0,27,27,38,1,,,,,,,,,,,,,,,,,,,,,,,,,,,,,,,,,,,,,,,,,,,,,,,,,,,,,,,,,,,,
,,?,0.006,0,,,,,,stimuli/images/PICTURE_677.png,FAMILY,5ea07a903abacb0452903ef4,22/08/1950,2020-09-12_08h49.13.734,proactive3.2,2020.1.2,Win32,60,5f5adea66120081ea0f57a61,5f5c7d2b2347b501aa201f39,5,,,,,,map,,,,,,,,,,,6,2,0,28,28,53,1,,,,,,,,,,,,,,,,,,,,,,,,,,,,,,,,,,,,,,,,,,,,,,,,,,,,,,,,,,,,
,,?,0.005,0,,,,,,stimuli/images/PICTURE_215.png,FOOD,5ea07a903abacb0452903ef4,22/08/1950,2020-09-12_08h49.13.734,proactive3.2,2020.1.2,Win32,60,5f5adea66120081ea0f57a61,5f5c7d2b2347b501aa201f39,5,,,,,,boot,,,,,,,,,,,1,2,0,29,29,5,1,,,,,,,,,,,,,,,,,,,,,,,,,,,,,,,,,,,,,,,,,,,,,,,,,,,,,,,,,,,,
,,?,0.005,0,,,,,,stimuli/images/PICTURE_95.png,NIGHT,5ea07a903abacb0452903ef4,22/08/1950,2020-09-12_08h49.13.734,proactive3.2,2020.1.2,Win32,60,5f5adea66120081ea0f57a61,5f5c7d2b2347b501aa201f39,5,,,,,,suitcase,,,,,,,,,,,4,2,0,30,30,37,1,,,,,,,,,,,,,,,,,,,,,,,,,,,,,,,,,,,,,,,,,,,,,,,,,,,,,,,,,,,,
,,?,0.005,0,,,,,,stimuli/images/PICTURE_314.png,SPEECH,5ea07a903abacb0452903ef4,22/08/1950,2020-09-12_08h49.13.734,proactive3.2,2020.1.2,Win32,60,5f5adea66120081ea0f57a61,5f5c7d2b2347b501aa201f39,5,,,,,,perfume,,,,,,,,,,,4,2,0,31,31,35,1,,,,,,,,,,,,,,,,,,,,,,,,,,,,,,,,,,,,,,,,,,,,,,,,,,,,,,,,,,,,
,,?,0.005,0,,,,,,stimuli/images/PICTURE_177.png,HOUSE,5ea07a903abacb0452903ef4,22/08/1950,2020-09-12_08h49.13.734,proactive3.2,2020.1.2,Win32,60,5f5adea66120081ea0f57a61,5f5c7d2b2347b501aa201f39,5,,,,,,mushroom,,,,,,,,,,,3,2,0,32,32,25,1,,,,,,,,,,,,,,,,,,,,,,,,,,,,,,,,,,,,,,,,,,,,,,,,,,,,,,,,,,,,
,,?,0.006,0,,,,,,stimuli/images/PICTURE_215.png,BOYS,5ea07a903abacb0452903ef4,22/08/1950,2020-09-12_08h49.13.734,proactive3.2,2020.1.2,Win32,60,5f5adea66120081ea0f57a61,5f5c7d2b2347b501aa201f39,5,,,,,,boot,,,,,,,,,,,3,2,0,33,33,24,1,,,,,,,,,,,,,,,,,,,,,,,,,,,,,,,,,,,,,,,,,,,,,,,,,,,,,,,,,,,,
,,?,0.006,0,,,,,,stimuli/images/PICTURE_403.png,FAMILY,5ea07a903abacb0452903ef4,22/08/1950,2020-09-12_08h49.13.734,proactive3.2,2020.1.2,Win32,60,5f5adea66120081ea0f57a61,5f5c7d2b2347b501aa201f39,5,,,,,,cathedral,,,,,,,,,,,1,2,0,34,34,9,1,,,,,,,,,,,,,,,,,,,,,,,,,,,,,,,,,,,,,,,,,,,,,,,,,,,,,,,,,,,,
,,CLOCK,5.395,1,,,,,,stimuli/images/PICTURE_688.png,CLOCK,5ea07a903abacb0452903ef4,22/08/1950,2020-09-12_08h49.13.734,proactive3.2,2020.1.2,Win32,60,5f5adea66120081ea0f57a61,5f5c7d2b2347b501aa201f39,5,,,,,,runner,,,,,,,,,,,5,2,0,35,35,42,1,,,,,,,,,,,,,,,,,,,,,,,,,,,,,,,,,,,,,,,,,,,,,,,,,,,,,,,,,,,,
,,DUDE,4.867,1,,,,,,stimuli/images/PICTURE_692.png,DUDE,5ea07a903abacb0452903ef4,22/08/1950,2020-09-12_08h49.13.734,proactive3.2,2020.1.2,Win32,60,5f5adea66120081ea0f57a61,5f5c7d2b2347b501aa201f39,5,,,,,,cherry,,,,,,,,,,,5,2,0,36,36,47,1,,,,,,,,,,,,,,,,,,,,,,,,,,,,,,,,,,,,,,,,,,,,,,,,,,,,,,,,,,,,
,,?,0.004,0,,,,,,stimuli/images/PICTURE_677.png,PHOTO,5ea07a903abacb0452903ef4,22/08/1950,2020-09-12_08h49.13.734,proactive3.2,2020.1.2,Win32,60,5f5adea66120081ea0f57a61,5f5c7d2b2347b501aa201f39,5,,,,,,map,,,,,,,,,,,2,2,0,37,37,14,1,,,,,,,,,,,,,,,,,,,,,,,,,,,,,,,,,,,,,,,,,,,,,,,,,,,,,,,,,,,,
,,?,0.002,0,,,,,,stimuli/images/PICTURE_160.png,HOTEL,5ea07a903abacb0452903ef4,22/08/1950,2020-09-12_08h49.13.734,proactive3.2,2020.1.2,Win32,60,5f5adea66120081ea0f57a61,5f5c7d2b2347b501aa201f39,5,,,,,,wheelbarrow,,,,,,,,,,,2,2,0,38,38,16,1,,,,,,,,,,,,,,,,,,,,,,,,,,,,,,,,,,,,,,,,,,,,,,,,,,,,,,,,,,,,
,,?,0.004,0,,,,,,stimuli/images/PICTURE_57.png,CASINO,5ea07a903abacb0452903ef4,22/08/1950,2020-09-12_08h49.13.734,proactive3.2,2020.1.2,Win32,60,5f5adea66120081ea0f57a61,5f5c7d2b2347b501aa201f39,5,,,,,,stamp,,,,,,,,,,,2,2,0,39,39,12,1,,,,,,,,,,,,,,,,,,,,,,,,,,,,,,,,,,,,,,,,,,,,,,,,,,,,,,,,,,,,
,,?,0.004,0,,,,,,stimuli/images/PICTURE_487.png,POLICY,5ea07a903abacb0452903ef4,22/08/1950,2020-09-12_08h49.13.734,proactive3.2,2020.1.2,Win32,60,5f5adea66120081ea0f57a61,5f5c7d2b2347b501aa201f39,5,,,,,,basket,,,,,,,,,,,4,2,0,40,40,34,1,,,,,,,,,,,,,,,,,,,,,,,,,,,,,,,,,,,,,,,,,,,,,,,,,,,,,,,,,,,,
,,VALLEY,7.212,1,,,,,,stimuli/images/PICTURE_708.png,VALLEY,5ea07a903abacb0452903ef4,22/08/1950,2020-09-12_08h49.13.734,proactive3.2,2020.1.2,Win32,60,5f5adea66120081ea0f57a61,5f5c7d2b2347b501aa201f39,5,,,,,,monkey,,,,,,,,,,,5,2,0,41,41,45,1,,,,,,,,,,,,,,,,,,,,,,,,,,,,,,,,,,,,,,,,,,,,,,,,,,,,,,,,,,,,
,,MILLER,3.95,1,,,,,,stimuli/images/PICTURE_509.png,MILLER,5ea07a903abacb0452903ef4,22/08/1950,2020-09-12_08h49.13.734,proactive3.2,2020.1.2,Win32,60,5f5adea66120081ea0f57a61,5f5c7d2b2347b501aa201f39,5,,,,,,telephone,,,,,,,,,,,5,2,0,42,42,49,1,,,,,,,,,,,,,,,,,,,,,,,,,,,,,,,,,,,,,,,,,,,,,,,,,,,,,,,,,,,,
,,?,0.004,0,,,,,,stimuli/images/PICTURE_57.png,CANDY,5ea07a903abacb0452903ef4,22/08/1950,2020-09-12_08h49.13.734,proactive3.2,2020.1.2,Win32,60,5f5adea66120081ea0f57a61,5f5c7d2b2347b501aa201f39,5,,,,,,stamp,,,,,,,,,,,6,2,0,43,43,52,1,,,,,,,,,,,,,,,,,,,,,,,,,,,,,,,,,,,,,,,,,,,,,,,,,,,,,,,,,,,,
,,?,0.004,0,,,,,,stimuli/images/PICTURE_470.png,BEAUTY,5ea07a903abacb0452903ef4,22/08/1950,2020-09-12_08h49.13.734,proactive3.2,2020.1.2,Win32,60,5f5adea66120081ea0f57a61,5f5c7d2b2347b501aa201f39,5,,,,,,motorbike,,,,,,,,,,,3,2,0,44,44,26,1,,,,,,,,,,,,,,,,,,,,,,,,,,,,,,,,,,,,,,,,,,,,,,,,,,,,,,,,,,,,
,,?,0.006,0,,,,,,stimuli/images/PICTURE_32.png,LETTER,5ea07a903abacb0452903ef4,22/08/1950,2020-09-12_08h49.13.734,proactive3.2,2020.1.2,Win32,60,5f5adea66120081ea0f57a61,5f5c7d2b2347b501aa201f39,5,,,,,,crown,,,,,,,,,,,6,2,0,45,45,56,1,,,,,,,,,,,,,,,,,,,,,,,,,,,,,,,,,,,,,,,,,,,,,,,,,,,,,,,,,,,,
,,?,0.005,0,,,,,,stimuli/images/PICTURE_509.png,SHOTS,5ea07a903abacb0452903ef4,22/08/1950,2020-09-12_08h49.13.734,proactive3.2,2020.1.2,Win32,60,5f5adea66120081ea0f57a61,5f5c7d2b2347b501aa201f39,5,,,,,,telephone,,,,,,,,,,,1,2,0,46,46,7,1,,,,,,,,,,,,,,,,,,,,,,,,,,,,,,,,,,,,,,,,,,,,,,,,,,,,,,,,,,,,
,,?,0.004,0,,,,,,stimuli/images/PICTURE_2.png,AREA,5ea07a903abacb0452903ef4,22/08/1950,2020-09-12_08h49.13.734,proactive3.2,2020.1.2,Win32,60,5f5adea66120081ea0f57a61,5f5c7d2b2347b501aa201f39,5,,,,,,tyre,,,,,,,,,,,4,2,0,47,47,32,1,,,,,,,,,,,,,,,,,,,,,,,,,,,,,,,,,,,,,,,,,,,,,,,,,,,,,,,,,,,,
,,?,0.003,0,,,,,,stimuli/images/PICTURE_348.png,DUDE,5ea07a903abacb0452903ef4,22/08/1950,2020-09-12_08h49.13.734,proactive3.2,2020.1.2,Win32,60,5f5adea66120081ea0f57a61,5f5c7d2b2347b501aa201f39,5,,,,,,pepper,,,,,,,,,,,6,2,0,48,48,59,1,,,,,,,,,,,,,,,,,,,,,,,,,,,,,,,,,,,,,,,,,,,,,,,,,,,,,,,,,,,,
,,?,0.005,0,,,,,,stimuli/images/PICTURE_123.png,SALE,5ea07a903abacb0452903ef4,22/08/1950,2020-09-12_08h49.13.734,proactive3.2,2020.1.2,Win32,60,5f5adea66120081ea0f57a61,5f5c7d2b2347b501aa201f39,5,,,,,,dart,,,,,,,,,,,1,2,0,49,49,8,1,,,,,,,,,,,,,,,,,,,,,,,,,,,,,,,,,,,,,,,,,,,,,,,,,,,,,,,,,,,,
,,?,0.004,0,,,,,,stimuli/images/PICTURE_147.png,LEADER,5ea07a903abacb0452903ef4,22/08/1950,2020-09-12_08h49.13.734,proactive3.2,2020.1.2,Win32,60,5f5adea66120081ea0f57a61,5f5c7d2b2347b501aa201f39,5,,,,,,hanger,,,,,,,,,,,4,2,0,50,50,33,1,,,,,,,,,,,,,,,,,,,,,,,,,,,,,,,,,,,,,,,,,,,,,,,,,,,,,,,,,,,,
,,FAMILY,5.45,1,,,,,,stimuli/images/PICTURE_453.png,FAMILY,5ea07a903abacb0452903ef4,22/08/1950,2020-09-12_08h49.13.734,proactive3.2,2020.1.2,Win32,60,5f5adea66120081ea0f57a61,5f5c7d2b2347b501aa201f39,5,,,,,,scissors,,,,,,,,,,,5,2,0,51,51,48,1,,,,,,,,,,,,,,,,,,,,,,,,,,,,,,,,,,,,,,,,,,,,,,,,,,,,,,,,,,,,
,,?,0.005,0,,,,,,stimuli/images/PICTURE_311.png,FLESH,5ea07a903abacb0452903ef4,22/08/1950,2020-09-12_08h49.13.734,proactive3.2,2020.1.2,Win32,60,5f5adea66120081ea0f57a61,5f5c7d2b2347b501aa201f39,5,,,,,,razor,,,,,,,,,,,1,2,0,52,52,3,1,,,,,,,,,,,,,,,,,,,,,,,,,,,,,,,,,,,,,,,,,,,,,,,,,,,,,,,,,,,,
,,?,0.002,0,,,,,,stimuli/images/PICTURE_141.png,CLIENT,5ea07a903abacb0452903ef4,22/08/1950,2020-09-12_08h49.13.734,proactive3.2,2020.1.2,Win32,60,5f5adea66120081ea0f57a61,5f5c7d2b2347b501aa201f39,5,,,,,,sunflower,,,,,,,,,,,4,2,0,53,53,30,1,,,,,,,,,,,,,,,,,,,,,,,,,,,,,,,,,,,,,,,,,,,,,,,,,,,,,,,,,,,,
,,?,0.002,0,,,,,,stimuli/images/PICTURE_491.png,SERIES,5ea07a903abacb0452903ef4,22/08/1950,2020-09-12_08h49.13.734,proactive3.2,2020.1.2,Win32,60,5f5adea66120081ea0f57a61,5f5c7d2b2347b501aa201f39,5,,,,,,rug,,,,,,,,,,,4,2,0,54,54,39,1,,,,,,,,,,,,,,,,,,,,,,,,,,,,,,,,,,,,,,,,,,,,,,,,,,,,,,,,,,,,
,,YEAR,14.129,1,,,,,,stimuli/images/PICTURE_654.png,YEAR,5ea07a903abacb0452903ef4,22/08/1950,2020-09-12_08h49.13.734,proactive3.2,2020.1.2,Win32,60,5f5adea66120081ea0f57a61,5f5c7d2b2347b501aa201f39,5,,,,,,pencil,,,,,,,,,,,5,2,0,55,55,41,1,,,,,,,,,,,,,,,,,,,,,,,,,,,,,,,,,,,,,,,,,,,,,,,,,,,,,,,,,,,,
,,?,0.003,0,,,,,,stimuli/images/PICTURE_504.png,HOUSE,5ea07a903abacb0452903ef4,22/08/1950,2020-09-12_08h49.13.734,proactive3.2,2020.1.2,Win32,60,5f5adea66120081ea0f57a61,5f5c7d2b2347b501aa201f39,5,,,,,,wheel,,,,,,,,,,,4,2,0,56,56,36,1,,,,,,,,,,,,,,,,,,,,,,,,,,,,,,,,,,,,,,,,,,,,,,,,,,,,,,,,,,,,
,,PAID,4.657,0,,,,,,stimuli/images/PICTURE_356.png,CANDY,5ea07a903abacb0452903ef4,22/08/1950,2020-09-12_08h49.13.734,proactive3.2,2020.1.2,Win32,60,5f5adea66120081ea0f57a61,5f5c7d2b2347b501aa201f39,5,,,,,,pawn,,,,,,,,,,,5,2,0,57,57,46,1,,,,,,,,,,,,,,,,,,,,,,,,,,,,,,,,,,,,,,,,,,,,,,,,,,,,,,,,,,,,
,,?,0.003,0,,,,,,stimuli/images/PICTURE_68.png,KIND,5ea07a903abacb0452903ef4,22/08/1950,2020-09-12_08h49.13.734,proactive3.2,2020.1.2,Win32,60,5f5adea66120081ea0f57a61,5f5c7d2b2347b501aa201f39,5,,,,,,candle,,,,,,,,,,,3,2,0,58,58,23,1,,,,,,,,,,,,,,,,,,,,,,,,,,,,,,,,,,,,,,,,,,,,,,,,,,,,,,,,,,,,
,,?,0.003,0,,,,,,stimuli/images/PICTURE_348.png,TOILET,5ea07a903abacb0452903ef4,22/08/1950,2020-09-12_08h49.13.734,proactive3.2,2020.1.2,Win32,60,5f5adea66120081ea0f57a61,5f5c7d2b2347b501aa201f39,5,,,,,,pepper,,,,,,,,,,,1,2,0,59,59,4,1,,,,,,,,,,,,,,,,,,,,,,,,,,,,,,,,,,,,,,,,,,,,,,,,,,,,,,,,,,,,
,,,,,,,,,,,,5ea07a903abacb0452903ef4,22/08/1950,2020-09-12_08h49.13.734,proactive3.2,2020.1.2,Win32,60,5f5adea66120081ea0f57a61,5f5c7d2b2347b501aa201f39,5,,,,,,,,,,,,,,,,,,,,,,,,0,0,0,2,1,stimuli/learn-block3.csv,,,,,,,,,,,,,,,,,,,,,,,,,,,,,,,,,,,,,,,,,,,,,,,,,,,,,,
,,,,,,,,,,stimuli/images/PICTURE_405.png,YEAR,5ea07a903abacb0452903ef4,22/08/1950,2020-09-12_08h49.13.734,proactive3.2,2020.1.2,Win32,60,5f5adea66120081ea0f57a61,5f5c7d2b2347b501aa201f39,5,,,,,,anchor,,,,,,0,0,0,34,1,4,1,,,,,,,,,,,,,,,,,,,,,,,,,,,,,,,,,,,,,,,,,,,,,,,,,,,,,,,,,,,,,,,,,
,,,,,,,,,,stimuli/images/PICTURE_744.png,WEAPON,5ea07a903abacb0452903ef4,22/08/1950,2020-09-12_08h49.13.734,proactive3.2,2020.1.2,Win32,60,5f5adea66120081ea0f57a61,5f5c7d2b2347b501aa201f39,5,,,,,,ring,,,,,,0,1,1,50,1,6,1,,,,,,,,,,,,,,,,,,,,,,,,,,,,,,,,,,,,,,,,,,,,,,,,,,,,,,,,,,,,,,,,,
,,,,,,,,,,stimuli/images/PICTURE_340.png,LETTER,5ea07a903abacb0452903ef4,22/08/1950,2020-09-12_08h49.13.734,proactive3.2,2020.1.2,Win32,60,5f5adea66120081ea0f57a61,5f5c7d2b2347b501aa201f39,5,,,,,,mirror,,,,,,0,2,2,24,1,3,1,,,,,,,,,,,,,,,,,,,,,,,,,,,,,,,,,,,,,,,,,,,,,,,,,,,,,,,,,,,,,,,,,
,,,,,,,,,,stimuli/images/PICTURE_233.png,LOTS,5ea07a903abacb0452903ef4,22/08/1950,2020-09-12_08h49.13.734,proactive3.2,2020.1.2,Win32,60,5f5adea66120081ea0f57a61,5f5c7d2b2347b501aa201f39,5,,,,,,salt,,,,,,0,3,3,42,1,5,1,,,,,,,,,,,,,,,,,,,,,,,,,,,,,,,,,,,,,,,,,,,,,,,,,,,,,,,,,,,,,,,,,
,,,,,,,,,,stimuli/images/PICTURE_95.png,HONEY,5ea07a903abacb0452903ef4,22/08/1950,2020-09-12_08h49.13.734,proactive3.2,2020.1.2,Win32,60,5f5adea66120081ea0f57a61,5f5c7d2b2347b501aa201f39,5,,,,,,suitcase,,,,,,0,4,4,44,1,5,1,,,,,,,,,,,,,,,,,,,,,,,,,,,,,,,,,,,,,,,,,,,,,,,,,,,,,,,,,,,,,,,,,
,,,,,,,,,,stimuli/images/PICTURE_95.png,BOYS,5ea07a903abacb0452903ef4,22/08/1950,2020-09-12_08h49.13.734,proactive3.2,2020.1.2,Win32,60,5f5adea66120081ea0f57a61,5f5c7d2b2347b501aa201f39,5,,,,,,suitcase,,,,,,0,5,5,1,1,1,1,,,,,,,,,,,,,,,,,,,,,,,,,,,,,,,,,,,,,,,,,,,,,,,,,,,,,,,,,,,,,,,,,
,,,,,,,,,,stimuli/images/PICTURE_297.png,RIVER,5ea07a903abacb0452903ef4,22/08/1950,2020-09-12_08h49.13.734,proactive3.2,2020.1.2,Win32,60,5f5adea66120081ea0f57a61,5f5c7d2b2347b501aa201f39,5,,,,,,aeroplane,,,,,,0,6,6,39,1,4,1,,,,,,,,,,,,,,,,,,,,,,,,,,,,,,,,,,,,,,,,,,,,,,,,,,,,,,,,,,,,,,,,,
,,,,,,,,,,stimuli/images/PICTURE_467.png,POLICY,5ea07a903abacb0452903ef4,22/08/1950,2020-09-12_08h49.13.734,proactive3.2,2020.1.2,Win32,60,5f5adea66120081ea0f57a61,5f5c7d2b2347b501aa201f39,5,,,,,,peg,,,,,,0,7,7,53,1,6,1,,,,,,,,,,,,,,,,,,,,,,,,,,,,,,,,,,,,,,,,,,,,,,,,,,,,,,,,,,,,,,,,,
,,,,,,,,,,stimuli/images/PICTURE_383.png,WRITER,5ea07a903abacb0452903ef4,22/08/1950,2020-09-12_08h49.13.734,proactive3.2,2020.1.2,Win32,60,5f5adea66120081ea0f57a61,5f5c7d2b2347b501aa201f39,5,,,,,,coin,,,,,,0,8,8,28,1,3,1,,,,,,,,,,,,,,,,,,,,,,,,,,,,,,,,,,,,,,,,,,,,,,,,,,,,,,,,,,,,,,,,,
,,,,,,,,,,stimuli/images/PICTURE_405.png,PLENTY,5ea07a903abacb0452903ef4,22/08/1950,2020-09-12_08h49.13.734,proactive3.2,2020.1.2,Win32,60,5f5adea66120081ea0f57a61,5f5c7d2b2347b501aa201f39,5,,,,,,anchor,,,,,,0,9,9,23,1,3,1,,,,,,,,,,,,,,,,,,,,,,,,,,,,,,,,,,,,,,,,,,,,,,,,,,,,,,,,,,,,,,,,,
,,,,,,,,,,stimuli/images/PICTURE_469.png,AGENT,5ea07a903abacb0452903ef4,22/08/1950,2020-09-12_08h49.13.734,proactive3.2,2020.1.2,Win32,60,5f5adea66120081ea0f57a61,5f5c7d2b2347b501aa201f39,5,,,,,,stool,,,,,,0,10,10,16,1,2,1,,,,,,,,,,,,,,,,,,,,,,,,,,,,,,,,,,,,,,,,,,,,,,,,,,,,,,,,,,,,,,,,,
,,,,,,,,,,stimuli/images/PICTURE_403.png,TOILET,5ea07a903abacb0452903ef4,22/08/1950,2020-09-12_08h49.13.734,proactive3.2,2020.1.2,Win32,60,5f5adea66120081ea0f57a61,5f5c7d2b2347b501aa201f39,5,,,,,,cathedral,,,,,,0,11,11,25,1,3,1,,,,,,,,,,,,,,,,,,,,,,,,,,,,,,,,,,,,,,,,,,,,,,,,,,,,,,,,,,,,,,,,,
,,,,,,,,,,stimuli/images/PICTURE_32.png,KIND,5ea07a903abacb0452903ef4,22/08/1950,2020-09-12_08h49.13.734,proactive3.2,2020.1.2,Win32,60,5f5adea66120081ea0f57a61,5f5c7d2b2347b501aa201f39,5,,,,,,crown,,,,,,0,12,12,35,1,4,1,,,,,,,,,,,,,,,,,,,,,,,,,,,,,,,,,,,,,,,,,,,,,,,,,,,,,,,,,,,,,,,,,
,,,,,,,,,,stimuli/images/PICTURE_677.png,APPLE,5ea07a903abacb0452903ef4,22/08/1950,2020-09-12_08h49.13.734,proactive3.2,2020.1.2,Win32,60,5f5adea66120081ea0f57a61,5f5c7d2b2347b501aa201f39,5,,,,,,map,,,,,,0,13,13,43,1,5,1,,,,,,,,,,,,,,,,,,,,,,,,,,,,,,,,,,,,,,,,,,,,,,,,,,,,,,,,,,,,,,,,,
,,,,,,,,,,stimuli/images/PICTURE_296.png,LIFE,5ea07a903abacb0452903ef4,22/08/1950,2020-09-12_08h49.13.734,proactive3.2,2020.1.2,Win32,60,5f5adea66120081ea0f57a61,5f5c7d2b2347b501aa201f39,5,,,,,,bolt,,,,,,0,14,14,57,1,6,1,,,,,,,,,,,,,,,,,,,,,,,,,,,,,,,,,,,,,,,,,,,,,,,,,,,,,,,,,,,,,,,,,
,,,,,,,,,,stimuli/images/PICTURE_403.png,RIVER,5ea07a903abacb0452903ef4,22/08/1950,2020-09-12_08h49.13.734,proactive3.2,2020.1.2,Win32,60,5f5adea66120081ea0f57a61,5f5c7d2b2347b501aa201f39,5,,,,,,cathedral,,,,,,0,15,15,40,1,5,1,,,,,,,,,,,,,,,,,,,,,,,,,,,,,,,,,,,,,,,,,,,,,,,,,,,,,,,,,,,,,,,,,
,,,,,,,,,,stimuli/images/PICTURE_655.png,TOILET,5ea07a903abacb0452903ef4,22/08/1950,2020-09-12_08h49.13.734,proactive3.2,2020.1.2,Win32,60,5f5adea66120081ea0f57a61,5f5c7d2b2347b501aa201f39,5,,,,,,megaphone,,,,,,0,16,16,12,1,2,1,,,,,,,,,,,,,,,,,,,,,,,,,,,,,,,,,,,,,,,,,,,,,,,,,,,,,,,,,,,,,,,,,
,,,,,,,,,,stimuli/images/PICTURE_504.png,YEAR,5ea07a903abacb0452903ef4,22/08/1950,2020-09-12_08h49.13.734,proactive3.2,2020.1.2,Win32,60,5f5adea66120081ea0f57a61,5f5c7d2b2347b501aa201f39,5,,,,,,wheel,,,,,,0,17,17,13,1,2,1,,,,,,,,,,,,,,,,,,,,,,,,,,,,,,,,,,,,,,,,,,,,,,,,,,,,,,,,,,,,,,,,,
,,,,,,,,,,stimuli/images/PICTURE_750.png,HOTEL,5ea07a903abacb0452903ef4,22/08/1950,2020-09-12_08h49.13.734,proactive3.2,2020.1.2,Win32,60,5f5adea66120081ea0f57a61,5f5c7d2b2347b501aa201f39,5,,,,,,kettle,,,,,,0,18,18,27,1,3,1,,,,,,,,,,,,,,,,,,,,,,,,,,,,,,,,,,,,,,,,,,,,,,,,,,,,,,,,,,,,,,,,,
,,,,,,,,,,stimuli/images/PICTURE_68.png,MILE,5ea07a903abacb0452903ef4,22/08/1950,2020-09-12_08h49.13.734,proactive3.2,2020.1.2,Win32,60,5f5adea66120081ea0f57a61,5f5c7d2b2347b501aa201f39,5,,,,,,candle,,,,,,0,19,19,51,1,6,1,,,,,,,,,,,,,,,,,,,,,,,,,,,,,,,,,,,,,,,,,,,,,,,,,,,,,,,,,,,,,,,,,
,,,,,,,,,,stimuli/images/PICTURE_108.png,FLIGHT,5ea07a903abacb0452903ef4,22/08/1950,2020-09-12_08h49.13.734,proactive3.2,2020.1.2,Win32,60,5f5adea66120081ea0f57a61,5f5c7d2b2347b501aa201f39,5,,,,,,calendar,,,,,,0,20,20,59,1,6,1,,,,,,,,,,,,,,,,,,,,,,,,,,,,,,,,,,,,,,,,,,,,,,,,,,,,,,,,,,,,,,,,,
,,,,,,,,,,stimuli/images/PICTURE_504.png,COPS,5ea07a903abacb0452903ef4,22/08/1950,2020-09-12_08h49.13.734,proactive3.2,2020.1.2,Win32,60,5f5adea66120081ea0f57a61,5f5c7d2b2347b501aa201f39,5,,,,,,wheel,,,,,,0,21,21,52,1,6,1,,,,,,,,,,,,,,,,,,,,,,,,,,,,,,,,,,,,,,,,,,,,,,,,,,,,,,,,,,,,,,,,,
,,,,,,,,,,stimuli/images/PICTURE_708.png,RECORD,5ea07a903abacb0452903ef4,22/08/1950,2020-09-12_08h49.13.734,proactive3.2,2020.1.2,Win32,60,5f5adea66120081ea0f57a61,5f5c7d2b2347b501aa201f39,5,,,,,,monkey,,,,,,0,22,22,58,1,6,1,,,,,,,,,,,,,,,,,,,,,,,,,,,,,,,,,,,,,,,,,,,,,,,,,,,,,,,,,,,,,,,,,
,,,,,,,,,,stimuli/images/PICTURE_57.png,MOMENT,5ea07a903abacb0452903ef4,22/08/1950,2020-09-12_08h49.13.734,proactive3.2,2020.1.2,Win32,60,5f5adea66120081ea0f57a61,5f5c7d2b2347b501aa201f39,5,,,,,,stamp,,,,,,0,23,23,37,1,4,1,,,,,,,,,,,,,,,,,,,,,,,,,,,,,,,,,,,,,,,,,,,,,,,,,,,,,,,,,,,,,,,,,
,,,,,,,,,,stimuli/images/PICTURE_33.png,FRIEND,5ea07a903abacb0452903ef4,22/08/1950,2020-09-12_08h49.13.734,proactive3.2,2020.1.2,Win32,60,5f5adea66120081ea0f57a61,5f5c7d2b2347b501aa201f39,5,,,,,,frame,,,,,,0,24,24,8,1,1,1,,,,,,,,,,,,,,,,,,,,,,,,,,,,,,,,,,,,,,,,,,,,,,,,,,,,,,,,,,,,,,,,,
,,,,,,,,,,stimuli/images/PICTURE_487.png,GIRL,5ea07a903abacb0452903ef4,22/08/1950,2020-09-12_08h49.13.734,proactive3.2,2020.1.2,Win32,60,5f5adea66120081ea0f57a61,5f5c7d2b2347b501aa201f39,5,,,,,,basket,,,,,,0,25,25,45,1,5,1,,,,,,,,,,,,,,,,,,,,,,,,,,,,,,,,,,,,,,,,,,,,,,,,,,,,,,,,,,,,,,,,,
,,,,,,,,,,stimuli/images/PICTURE_147.png,YEAR,5ea07a903abacb0452903ef4,22/08/1950,2020-09-12_08h49.13.734,proactive3.2,2020.1.2,Win32,60,5f5adea66120081ea0f57a61,5f5c7d2b2347b501aa201f39,5,,,,,,hanger,,,,,,0,26,26,21,1,3,1,,,,,,,,,,,,,,,,,,,,,,,,,,,,,,,,,,,,,,,,,,,,,,,,,,,,,,,,,,,,,,,,,
,,,,,,,,,,stimuli/images/PICTURE_675.png,SALE,5ea07a903abacb0452903ef4,22/08/1950,2020-09-12_08h49.13.734,proactive3.2,2020.1.2,Win32,60,5f5adea66120081ea0f57a61,5f5c7d2b2347b501aa201f39,5,,,,,,windmill,,,,,,0,27,27,47,1,5,1,,,,,,,,,,,,,,,,,,,,,,,,,,,,,,,,,,,,,,,,,,,,,,,,,,,,,,,,,,,,,,,,,
,,,,,,,,,,stimuli/images/PICTURE_308.png,FAMILY,5ea07a903abacb0452903ef4,22/08/1950,2020-09-12_08h49.13.734,proactive3.2,2020.1.2,Win32,60,5f5adea66120081ea0f57a61,5f5c7d2b2347b501aa201f39,5,,,,,,dice,,,,,,0,28,28,36,1,4,1,,,,,,,,,,,,,,,,,,,,,,,,,,,,,,,,,,,,,,,,,,,,,,,,,,,,,,,,,,,,,,,,,
,,,,,,,,,,stimuli/images/PICTURE_491.png,GLASS,5ea07a903abacb0452903ef4,22/08/1950,2020-09-12_08h49.13.734,proactive3.2,2020.1.2,Win32,60,5f5adea66120081ea0f57a61,5f5c7d2b2347b501aa201f39,5,,,,,,rug,,,,,,0,29,29,14,1,2,1,,,,,,,,,,,,,,,,,,,,,,,,,,,,,,,,,,,,,,,,,,,,,,,,,,,,,,,,,,,,,,,,,
,,,,,,,,,,stimuli/images/PICTURE_504.png,ARTIST,5ea07a903abacb0452903ef4,22/08/1950,2020-09-12_08h49.13.734,proactive3.2,2020.1.2,Win32,60,5f5adea66120081ea0f57a61,5f5c7d2b2347b501aa201f39,5,,,,,,wheel,,,,,,0,30,30,49,1,5,1,,,,,,,,,,,,,,,,,,,,,,,,,,,,,,,,,,,,,,,,,,,,,,,,,,,,,,,,,,,,,,,,,
,,,,,,,,,,stimuli/images/PICTURE_564.png,BATH,5ea07a903abacb0452903ef4,22/08/1950,2020-09-12_08h49.13.734,proactive3.2,2020.1.2,Win32,60,5f5adea66120081ea0f57a61,5f5c7d2b2347b501aa201f39,5,,,,,,spoon,,,,,,0,31,31,26,1,3,1,,,,,,,,,,,,,,,,,,,,,,,,,,,,,,,,,,,,,,,,,,,,,,,,,,,,,,,,,,,,,,,,,
,,,,,,,,,,stimuli/images/PICTURE_147.png,WOMEN,5ea07a903abacb0452903ef4,22/08/1950,2020-09-12_08h49.13.734,proactive3.2,2020.1.2,Win32,60,5f5adea66120081ea0f57a61,5f5c7d2b2347b501aa201f39,5,,,,,,hanger,,,,,,0,32,32,7,1,1,1,,,,,,,,,,,,,,,,,,,,,,,,,,,,,,,,,,,,,,,,,,,,,,,,,,,,,,,,,,,,,,,,,
,,,,,,,,,,stimuli/images/PICTURE_68.png,ROOF,5ea07a903abacb0452903ef4,22/08/1950,2020-09-12_08h49.13.734,proactive3.2,2020.1.2,Win32,60,5f5adea66120081ea0f57a61,5f5c7d2b2347b501aa201f39,5,,,,,,candle,,,,,,0,33,33,38,1,4,1,,,,,,,,,,,,,,,,,,,,,,,,,,,,,,,,,,,,,,,,,,,,,,,,,,,,,,,,,,,,,,,,,
,,,,,,,,,,stimuli/images/PICTURE_339.png,CLIENT,5ea07a903abacb0452903ef4,22/08/1950,2020-09-12_08h49.13.734,proactive3.2,2020.1.2,Win32,60,5f5adea66120081ea0f57a61,5f5c7d2b2347b501aa201f39,5,,,,,,backpack,,,,,,0,34,34,11,1,2,1,,,,,,,,,,,,,,,,,,,,,,,,,,,,,,,,,,,,,,,,,,,,,,,,,,,,,,,,,,,,,,,,,
,,,,,,,,,,stimuli/images/PICTURE_383.png,SERIES,5ea07a903abacb0452903ef4,22/08/1950,2020-09-12_08h49.13.734,proactive3.2,2020.1.2,Win32,60,5f5adea66120081ea0f57a61,5f5c7d2b2347b501aa201f39,5,,,,,,coin,,,,,,0,35,35,46,1,5,1,,,,,,,,,,,,,,,,,,,,,,,,,,,,,,,,,,,,,,,,,,,,,,,,,,,,,,,,,,,,,,,,,
,,,,,,,,,,stimuli/images/PICTURE_2.png,FLIGHT,5ea07a903abacb0452903ef4,22/08/1950,2020-09-12_08h49.13.734,proactive3.2,2020.1.2,Win32,60,5f5adea66120081ea0f57a61,5f5c7d2b2347b501aa201f39,5,,,,,,tyre,,,,,,0,36,36,15,1,2,1,,,,,,,,,,,,,,,,,,,,,,,,,,,,,,,,,,,,,,,,,,,,,,,,,,,,,,,,,,,,,,,,,
,,,,,,,,,,stimuli/images/PICTURE_32.png,PILLS,5ea07a903abacb0452903ef4,22/08/1950,2020-09-12_08h49.13.734,proactive3.2,2020.1.2,Win32,60,5f5adea66120081ea0f57a61,5f5c7d2b2347b501aa201f39,5,,,,,,crown,,,,,,0,37,37,18,1,2,1,,,,,,,,,,,,,,,,,,,,,,,,,,,,,,,,,,,,,,,,,,,,,,,,,,,,,,,,,,,,,,,,,
,,,,,,,,,,stimuli/images/PICTURE_285.png,LIFE,5ea07a903abacb0452903ef4,22/08/1950,2020-09-12_08h49.13.734,proactive3.2,2020.1.2,Win32,60,5f5adea66120081ea0f57a61,5f5c7d2b2347b501aa201f39,5,,,,,,carrot,,,,,,0,38,38,33,1,4,1,,,,,,,,,,,,,,,,,,,,,,,,,,,,,,,,,,,,,,,,,,,,,,,,,,,,,,,,,,,,,,,,,
,,,,,,,,,,stimuli/images/PICTURE_85.png,NATION,5ea07a903abacb0452903ef4,22/08/1950,2020-09-12_08h49.13.734,proactive3.2,2020.1.2,Win32,60,5f5adea66120081ea0f57a61,5f5c7d2b2347b501aa201f39,5,,,,,,diamond,,,,,,0,39,39,5,1,1,1,,,,,,,,,,,,,,,,,,,,,,,,,,,,,,,,,,,,,,,,,,,,,,,,,,,,,,,,,,,,,,,,,
,,,,,,,,,,stimuli/images/PICTURE_340.png,VALLEY,5ea07a903abacb0452903ef4,22/08/1950,2020-09-12_08h49.13.734,proactive3.2,2020.1.2,Win32,60,5f5adea66120081ea0f57a61,5f5c7d2b2347b501aa201f39,5,,,,,,mirror,,,,,,0,40,40,54,1,6,1,,,,,,,,,,,,,,,,,,,,,,,,,,,,,,,,,,,,,,,,,,,,,,,,,,,,,,,,,,,,,,,,,
,,,,,,,,,,stimuli/images/PICTURE_203.png,NIGHT,5ea07a903abacb0452903ef4,22/08/1950,2020-09-12_08h49.13.734,proactive3.2,2020.1.2,Win32,60,5f5adea66120081ea0f57a61,5f5c7d2b2347b501aa201f39,5,,,,,,cap,,,,,,0,41,41,2,1,1,1,,,,,,,,,,,,,,,,,,,,,,,,,,,,,,,,,,,,,,,,,,,,,,,,,,,,,,,,,,,,,,,,,
,,,,,,,,,,stimuli/images/PICTURE_685.png,PENNY,5ea07a903abacb0452903ef4,22/08/1950,2020-09-12_08h49.13.734,proactive3.2,2020.1.2,Win32,60,5f5adea66120081ea0f57a61,5f5c7d2b2347b501aa201f39,5,,,,,,goose,,,,,,0,42,42,4,1,1,1,,,,,,,,,,,,,,,,,,,,,,,,,,,,,,,,,,,,,,,,,,,,,,,,,,,,,,,,,,,,,,,,,
,,,,,,,,,,stimuli/images/PICTURE_85.png,TOILET,5ea07a903abacb0452903ef4,22/08/1950,2020-09-12_08h49.13.734,proactive3.2,2020.1.2,Win32,60,5f5adea66120081ea0f57a61,5f5c7d2b2347b501aa201f39,5,,,,,,diamond,,,,,,0,43,43,48,1,5,1,,,,,,,,,,,,,,,,,,,,,,,,,,,,,,,,,,,,,,,,,,,,,,,,,,,,,,,,,,,,,,,,,
,,,,,,,,,,stimuli/images/PICTURE_667.png,RIVER,5ea07a903abacb0452903ef4,22/08/1950,2020-09-12_08h49.13.734,proactive3.2,2020.1.2,Win32,60,5f5adea66120081ea0f57a61,5f5c7d2b2347b501aa201f39,5,,,,,,daisy,,,,,,0,44,44,10,1,2,1,,,,,,,,,,,,,,,,,,,,,,,,,,,,,,,,,,,,,,,,,,,,,,,,,,,,,,,,,,,,,,,,,
,,,,,,,,,,stimuli/images/PICTURE_296.png,LOTS,5ea07a903abacb0452903ef4,22/08/1950,2020-09-12_08h49.13.734,proactive3.2,2020.1.2,Win32,60,5f5adea66120081ea0f57a61,5f5c7d2b2347b501aa201f39,5,,,,,,bolt,,,,,,0,45,45,9,1,1,1,,,,,,,,,,,,,,,,,,,,,,,,,,,,,,,,,,,,,,,,,,,,,,,,,,,,,,,,,,,,,,,,,
,,,,,,,,,,stimuli/images/PICTURE_42.png,BOYS,5ea07a903abacb0452903ef4,22/08/1950,2020-09-12_08h49.13.734,proactive3.2,2020.1.2,Win32,60,5f5adea66120081ea0f57a61,5f5c7d2b2347b501aa201f39,5,,,,,,pear,,,,,,0,46,46,55,1,6,1,,,,,,,,,,,,,,,,,,,,,,,,,,,,,,,,,,,,,,,,,,,,,,,,,,,,,,,,,,,,,,,,,
,,,,,,,,,,stimuli/images/PICTURE_327.png,SERIES,5ea07a903abacb0452903ef4,22/08/1950,2020-09-12_08h49.13.734,proactive3.2,2020.1.2,Win32,60,5f5adea66120081ea0f57a61,5f5c7d2b2347b501aa201f39,5,,,,,,helmet,,,,,,0,47,47,3,1,1,1,,,,,,,,,,,,,,,,,,,,,,,,,,,,,,,,,,,,,,,,,,,,,,,,,,,,,,,,,,,,,,,,,
,,,,,,,,,,stimuli/images/PICTURE_327.png,CASINO,5ea07a903abacb0452903ef4,22/08/1950,2020-09-12_08h49.13.734,proactive3.2,2020.1.2,Win32,60,5f5adea66120081ea0f57a61,5f5c7d2b2347b501aa201f39,5,,,,,,helmet,,,,,,0,48,48,20,1,3,1,,,,,,,,,,,,,,,,,,,,,,,,,,,,,,,,,,,,,,,,,,,,,,,,,,,,,,,,,,,,,,,,,
,,,,,,,,,,stimuli/images/PICTURE_380.png,HONEY,5ea07a903abacb0452903ef4,22/08/1950,2020-09-12_08h49.13.734,proactive3.2,2020.1.2,Win32,60,5f5adea66120081ea0f57a61,5f5c7d2b2347b501aa201f39,5,,,,,,gorilla,,,,,,0,49,49,19,1,2,1,,,,,,,,,,,,,,,,,,,,,,,,,,,,,,,,,,,,,,,,,,,,,,,,,,,,,,,,,,,,,,,,,
,,,,,,,,,,stimuli/images/PICTURE_491.png,RIVER,5ea07a903abacb0452903ef4,22/08/1950,2020-09-12_08h49.13.734,proactive3.2,2020.1.2,Win32,60,5f5adea66120081ea0f57a61,5f5c7d2b2347b501aa201f39,5,,,,,,rug,,,,,,0,50,50,6,1,1,1,,,,,,,,,,,,,,,,,,,,,,,,,,,,,,,,,,,,,,,,,,,,,,,,,,,,,,,,,,,,,,,,,
,,,,,,,,,,stimuli/images/PICTURE_208.png,SYSTEM,5ea07a903abacb0452903ef4,22/08/1950,2020-09-12_08h49.13.734,proactive3.2,2020.1.2,Win32,60,5f5adea66120081ea0f57a61,5f5c7d2b2347b501aa201f39,5,,,,,,microphone,,,,,,0,51,51,32,1,4,1,,,,,,,,,,,,,,,,,,,,,,,,,,,,,,,,,,,,,,,,,,,,,,,,,,,,,,,,,,,,,,,,,
,,,,,,,,,,stimuli/images/PICTURE_95.png,MILLER,5ea07a903abacb0452903ef4,22/08/1950,2020-09-12_08h49.13.734,proactive3.2,2020.1.2,Win32,60,5f5adea66120081ea0f57a61,5f5c7d2b2347b501aa201f39,5,,,,,,suitcase,,,,,,0,52,52,56,1,6,1,,,,,,,,,,,,,,,,,,,,,,,,,,,,,,,,,,,,,,,,,,,,,,,,,,,,,,,,,,,,,,,,,
,,,,,,,,,,stimuli/images/PICTURE_203.png,GODS,5ea07a903abacb0452903ef4,22/08/1950,2020-09-12_08h49.13.734,proactive3.2,2020.1.2,Win32,60,5f5adea66120081ea0f57a61,5f5c7d2b2347b501aa201f39,5,,,,,,cap,,,,,,0,53,53,30,1,4,1,,,,,,,,,,,,,,,,,,,,,,,,,,,,,,,,,,,,,,,,,,,,,,,,,,,,,,,,,,,,,,,,,
,,,,,,,,,,stimuli/images/PICTURE_654.png,MONTH,5ea07a903abacb0452903ef4,22/08/1950,2020-09-12_08h49.13.734,proactive3.2,2020.1.2,Win32,60,5f5adea66120081ea0f57a61,5f5c7d2b2347b501aa201f39,5,,,,,,pencil,,,,,,0,54,54,29,1,3,1,,,,,,,,,,,,,,,,,,,,,,,,,,,,,,,,,,,,,,,,,,,,,,,,,,,,,,,,,,,,,,,,,
,,,,,,,,,,stimuli/images/PICTURE_108.png,POLICY,5ea07a903abacb0452903ef4,22/08/1950,2020-09-12_08h49.13.734,proactive3.2,2020.1.2,Win32,60,5f5adea66120081ea0f57a61,5f5c7d2b2347b501aa201f39,5,,,,,,calendar,,,,,,0,55,55,22,1,3,1,,,,,,,,,,,,,,,,,,,,,,,,,,,,,,,,,,,,,,,,,,,,,,,,,,,,,,,,,,,,,,,,,
,,,,,,,,,,stimuli/images/PICTURE_449.png,DUDE,5ea07a903abacb0452903ef4,22/08/1950,2020-09-12_08h49.13.734,proactive3.2,2020.1.2,Win32,60,5f5adea66120081ea0f57a61,5f5c7d2b2347b501aa201f39,5,,,,,,bench,,,,,,0,56,56,17,1,2,1,,,,,,,,,,,,,,,,,,,,,,,,,,,,,,,,,,,,,,,,,,,,,,,,,,,,,,,,,,,,,,,,,
,,,,,,,,,,stimuli/images/PICTURE_380.png,CANDY,5ea07a903abacb0452903ef4,22/08/1950,2020-09-12_08h49.13.734,proactive3.2,2020.1.2,Win32,60,5f5adea66120081ea0f57a61,5f5c7d2b2347b501aa201f39,5,,,,,,gorilla,,,,,,0,57,57,0,1,1,1,,,,,,,,,,,,,,,,,,,,,,,,,,,,,,,,,,,,,,,,,,,,,,,,,,,,,,,,,,,,,,,,,
,,,,,,,,,,stimuli/images/PICTURE_177.png,WRITER,5ea07a903abacb0452903ef4,22/08/1950,2020-09-12_08h49.13.734,proactive3.2,2020.1.2,Win32,60,5f5adea66120081ea0f57a61,5f5c7d2b2347b501aa201f39,5,,,,,,mushroom,,,,,,0,58,58,41,1,5,1,,,,,,,,,,,,,,,,,,,,,,,,,,,,,,,,,,,,,,,,,,,,,,,,,,,,,,,,,,,,,,,,,
,,?,0.002,0,,,,,,stimuli/images/PICTURE_469.png,AGENT,5ea07a903abacb0452903ef4,22/08/1950,2020-09-12_08h49.13.734,proactive3.2,2020.1.2,Win32,60,5f5adea66120081ea0f57a61,5f5c7d2b2347b501aa201f39,5,,,,,,stool,,,,,,,,,,,2,1,0,0,0,16,1,,,,,,,,,,,,,,,,,,,,,,,,,,,,,,,,,,,,,,,,,,,,,,,,,,,,,,,,,,,,
,,?,0.004,0,,,,,,stimuli/images/PICTURE_667.png,RIVER,5ea07a903abacb0452903ef4,22/08/1950,2020-09-12_08h49.13.734,proactive3.2,2020.1.2,Win32,60,5f5adea66120081ea0f57a61,5f5c7d2b2347b501aa201f39,5,,,,,,daisy,,,,,,,,,,,2,1,0,1,1,10,1,,,,,,,,,,,,,,,,,,,,,,,,,,,,,,,,,,,,,,,,,,,,,,,,,,,,,,,,,,,,
,,?,0.003,0,,,,,,stimuli/images/PICTURE_380.png,CANDY,5ea07a903abacb0452903ef4,22/08/1950,2020-09-12_08h49.13.734,proactive3.2,2020.1.2,Win32,60,5f5adea66120081ea0f57a61,5f5c7d2b2347b501aa201f39,5,,,,,,gorilla,,,,,,,,,,,1,1,0,2,2,0,1,,,,,,,,,,,,,,,,,,,,,,,,,,,,,,,,,,,,,,,,,,,,,,,,,,,,,,,,,,,,
,,?,15.007,0,,,,,,stimuli/images/PICTURE_675.png,SALE,5ea07a903abacb0452903ef4,22/08/1950,2020-09-12_08h49.13.734,proactive3.2,2020.1.2,Win32,60,5f5adea66120081ea0f57a61,5f5c7d2b2347b501aa201f39,5,,,,,,windmill,,,,,,,,,,,5,1,0,3,3,47,1,,,,,,,,,,,,,,,,,,,,,,,,,,,,,,,,,,,,,,,,,,,,,,,,,,,,,,,,,,,,
,,?,0.003,0,,,,,,stimuli/images/PICTURE_2.png,FLIGHT,5ea07a903abacb0452903ef4,22/08/1950,2020-09-12_08h49.13.734,proactive3.2,2020.1.2,Win32,60,5f5adea66120081ea0f57a61,5f5c7d2b2347b501aa201f39,5,,,,,,tyre,,,,,,,,,,,2,1,0,4,4,15,1,,,,,,,,,,,,,,,,,,,,,,,,,,,,,,,,,,,,,,,,,,,,,,,,,,,,,,,,,,,,
,,?,0.003,0,,,,,,stimuli/images/PICTURE_340.png,LETTER,5ea07a903abacb0452903ef4,22/08/1950,2020-09-12_08h49.13.734,proactive3.2,2020.1.2,Win32,60,5f5adea66120081ea0f57a61,5f5c7d2b2347b501aa201f39,5,,,,,,mirror,,,,,,,,,,,3,1,0,5,5,24,1,,,,,,,,,,,,,,,,,,,,,,,,,,,,,,,,,,,,,,,,,,,,,,,,,,,,,,,,,,,,
,,?,0.003,0,,,,,,stimuli/images/PICTURE_68.png,MILE,5ea07a903abacb0452903ef4,22/08/1950,2020-09-12_08h49.13.734,proactive3.2,2020.1.2,Win32,60,5f5adea66120081ea0f57a61,5f5c7d2b2347b501aa201f39,5,,,,,,candle,,,,,,,,,,,6,1,0,6,6,51,1,,,,,,,,,,,,,,,,,,,,,,,,,,,,,,,,,,,,,,,,,,,,,,,,,,,,,,,,,,,,
,,?,0.003,0,,,,,,stimuli/images/PICTURE_57.png,MOMENT,5ea07a903abacb0452903ef4,22/08/1950,2020-09-12_08h49.13.734,proactive3.2,2020.1.2,Win32,60,5f5adea66120081ea0f57a61,5f5c7d2b2347b501aa201f39,5,,,,,,stamp,,,,,,,,,,,4,1,0,7,7,37,1,,,,,,,,,,,,,,,,,,,,,,,,,,,,,,,,,,,,,,,,,,,,,,,,,,,,,,,,,,,,
,,?,0.003,0,,,,,,stimuli/images/PICTURE_203.png,GODS,5ea07a903abacb0452903ef4,22/08/1950,2020-09-12_08h49.13.734,proactive3.2,2020.1.2,Win32,60,5f5adea66120081ea0f57a61,5f5c7d2b2347b501aa201f39,5,,,,,,cap,,,,,,,,,,,4,1,0,8,8,30,1,,,,,,,,,,,,,,,,,,,,,,,,,,,,,,,,,,,,,,,,,,,,,,,,,,,,,,,,,,,,
,,GIRL,4.811,0,,,,,,stimuli/images/PICTURE_95.png,HONEY,5ea07a903abacb0452903ef4,22/08/1950,2020-09-12_08h49.13.734,proactive3.2,2020.1.2,Win32,60,5f5adea66120081ea0f57a61,5f5c7d2b2347b501aa201f39,5,,,,,,suitcase,,,,,,,,,,,5,1,0,9,9,44,1,,,,,,,,,,,,,,,,,,,,,,,,,,,,,,,,,,,,,,,,,,,,,,,,,,,,,,,,,,,,
,,?,0.004,0,,,,,,stimuli/images/PICTURE_85.png,NATION,5ea07a903abacb0452903ef4,22/08/1950,2020-09-12_08h49.13.734,proactive3.2,2020.1.2,Win32,60,5f5adea66120081ea0f57a61,5f5c7d2b2347b501aa201f39,5,,,,,,diamond,,,,,,,,,,,1,1,0,10,10,5,1,,,,,,,,,,,,,,,,,,,,,,,,,,,,,,,,,,,,,,,,,,,,,,,,,,,,,,,,,,,,
,,SERIES,7.524,0,,,,,,stimuli/images/PICTURE_85.png,TOILET,5ea07a903abacb0452903ef4,22/08/1950,2020-09-12_08h49.13.734,proactive3.2,2020.1.2,Win32,60,5f5adea66120081ea0f57a61,5f5c7d2b2347b501aa201f39,5,,,,,,diamond,,,,,,,,,,,5,1,0,11,11,48,1,,,,,,,,,,,,,,,,,,,,,,,,,,,,,,,,,,,,,,,,,,,,,,,,,,,,,,,,,,,,
,,?,0.003,0,,,,,,stimuli/images/PICTURE_327.png,CASINO,5ea07a903abacb0452903ef4,22/08/1950,2020-09-12_08h49.13.734,proactive3.2,2020.1.2,Win32,60,5f5adea66120081ea0f57a61,5f5c7d2b2347b501aa201f39,5,,,,,,helmet,,,,,,,,,,,3,1,0,12,12,20,1,,,,,,,,,,,,,,,,,,,,,,,,,,,,,,,,,,,,,,,,,,,,,,,,,,,,,,,,,,,,
,,?,0.004,0,,,,,,stimuli/images/PICTURE_383.png,WRITER,5ea07a903abacb0452903ef4,22/08/1950,2020-09-12_08h49.13.734,proactive3.2,2020.1.2,Win32,60,5f5adea66120081ea0f57a61,5f5c7d2b2347b501aa201f39,5,,,,,,coin,,,,,,,,,,,3,1,0,13,13,28,1,,,,,,,,,,,,,,,,,,,,,,,,,,,,,,,,,,,,,,,,,,,,,,,,,,,,,,,,,,,,
,,?,0.005,0,,,,,,stimuli/images/PICTURE_405.png,YEAR,5ea07a903abacb0452903ef4,22/08/1950,2020-09-12_08h49.13.734,proactive3.2,2020.1.2,Win32,60,5f5adea66120081ea0f57a61,5f5c7d2b2347b501aa201f39,5,,,,,,anchor,,,,,,,,,,,4,1,0,14,14,34,1,,,,,,,,,,,,,,,,,,,,,,,,,,,,,,,,,,,,,,,,,,,,,,,,,,,,,,,,,,,,
,,?,0.005,0,,,,,,stimuli/images/PICTURE_685.png,PENNY,5ea07a903abacb0452903ef4,22/08/1950,2020-09-12_08h49.13.734,proactive3.2,2020.1.2,Win32,60,5f5adea66120081ea0f57a61,5f5c7d2b2347b501aa201f39,5,,,,,,goose,,,,,,,,,,,1,1,0,15,15,4,1,,,,,,,,,,,,,,,,,,,,,,,,,,,,,,,,,,,,,,,,,,,,,,,,,,,,,,,,,,,,
,,?,0.003,0,,,,,,stimuli/images/PICTURE_744.png,WEAPON,5ea07a903abacb0452903ef4,22/08/1950,2020-09-12_08h49.13.734,proactive3.2,2020.1.2,Win32,60,5f5adea66120081ea0f57a61,5f5c7d2b2347b501aa201f39,5,,,,,,ring,,,,,,,,,,,6,1,0,16,16,50,1,,,,,,,,,,,,,,,,,,,,,,,,,,,,,,,,,,,,,,,,,,,,,,,,,,,,,,,,,,,,
,,?,0.005,0,,,,,,stimuli/images/PICTURE_32.png,KIND,5ea07a903abacb0452903ef4,22/08/1950,2020-09-12_08h49.13.734,proactive3.2,2020.1.2,Win32,60,5f5adea66120081ea0f57a61,5f5c7d2b2347b501aa201f39,5,,,,,,crown,,,,,,,,,,,4,1,0,17,17,35,1,,,,,,,,,,,,,,,,,,,,,,,,,,,,,,,,,,,,,,,,,,,,,,,,,,,,,,,,,,,,
,,?,0.003,0,,,,,,stimuli/images/PICTURE_203.png,NIGHT,5ea07a903abacb0452903ef4,22/08/1950,2020-09-12_08h49.13.734,proactive3.2,2020.1.2,Win32,60,5f5adea66120081ea0f57a61,5f5c7d2b2347b501aa201f39,5,,,,,,cap,,,,,,,,,,,1,1,0,18,18,2,1,,,,,,,,,,,,,,,,,,,,,,,,,,,,,,,,,,,,,,,,,,,,,,,,,,,,,,,,,,,,
,,?,0.003,0,,,,,,stimuli/images/PICTURE_504.png,COPS,5ea07a903abacb0452903ef4,22/08/1950,2020-09-12_08h49.13.734,proactive3.2,2020.1.2,Win32,60,5f5adea66120081ea0f57a61,5f5c7d2b2347b501aa201f39,5,,,,,,wheel,,,,,,,,,,,6,1,0,19,19,52,1,,,,,,,,,,,,,,,,,,,,,,,,,,,,,,,,,,,,,,,,,,,,,,,,,,,,,,,,,,,,
,,?,0.004,0,,,,,,stimuli/images/PICTURE_33.png,FRIEND,5ea07a903abacb0452903ef4,22/08/1950,2020-09-12_08h49.13.734,proactive3.2,2020.1.2,Win32,60,5f5adea66120081ea0f57a61,5f5c7d2b2347b501aa201f39,5,,,,,,frame,,,,,,,,,,,1,1,0,20,20,8,1,,,,,,,,,,,,,,,,,,,,,,,,,,,,,,,,,,,,,,,,,,,,,,,,,,,,,,,,,,,,
,,?,0.003,0,,,,,,stimuli/images/PICTURE_403.png,TOILET,5ea07a903abacb0452903ef4,22/08/1950,2020-09-12_08h49.13.734,proactive3.2,2020.1.2,Win32,60,5f5adea66120081ea0f57a61,5f5c7d2b2347b501aa201f39,5,,,,,,cathedral,,,,,,,,,,,3,1,0,21,21,25,1,,,,,,,,,,,,,,,,,,,,,,,,,,,,,,,,,,,,,,,,,,,,,,,,,,,,,,,,,,,,
,,?,0.004,0,,,,,,stimuli/images/PICTURE_308.png,FAMILY,5ea07a903abacb0452903ef4,22/08/1950,2020-09-12_08h49.13.734,proactive3.2,2020.1.2,Win32,60,5f5adea66120081ea0f57a61,5f5c7d2b2347b501aa201f39,5,,,,,,dice,,,,,,,,,,,4,1,0,22,22,36,1,,,,,,,,,,,,,,,,,,,,,,,,,,,,,,,,,,,,,,,,,,,,,,,,,,,,,,,,,,,,
,,?,0.003,0,,,,,,stimuli/images/PICTURE_340.png,VALLEY,5ea07a903abacb0452903ef4,22/08/1950,2020-09-12_08h49.13.734,proactive3.2,2020.1.2,Win32,60,5f5adea66120081ea0f57a61,5f5c7d2b2347b501aa201f39,5,,,,,,mirror,,,,,,,,,,,6,1,0,23,23,54,1,,,,,,,,,,,,,,,,,,,,,,,,,,,,,,,,,,,,,,,,,,,,,,,,,,,,,,,,,,,,
,,?,0.003,0,,,,,,stimuli/images/PICTURE_285.png,LIFE,5ea07a903abacb0452903ef4,22/08/1950,2020-09-12_08h49.13.734,proactive3.2,2020.1.2,Win32,60,5f5adea66120081ea0f57a61,5f5c7d2b2347b501aa201f39,5,,,,,,carrot,,,,,,,,,,,4,1,0,24,24,33,1,,,,,,,,,,,,,,,,,,,,,,,,,,,,,,,,,,,,,,,,,,,,,,,,,,,,,,,,,,,,
,,?,0.004,0,,,,,,stimuli/images/PICTURE_297.png,RIVER,5ea07a903abacb0452903ef4,22/08/1950,2020-09-12_08h49.13.734,proactive3.2,2020.1.2,Win32,60,5f5adea66120081ea0f57a61,5f5c7d2b2347b501aa201f39,5,,,,,,aeroplane,,,,,,,,,,,4,1,0,25,25,39,1,,,,,,,,,,,,,,,,,,,,,,,,,,,,,,,,,,,,,,,,,,,,,,,,,,,,,,,,,,,,
,,?,0.003,0,,,,,,stimuli/images/PICTURE_95.png,MILLER,5ea07a903abacb0452903ef4,22/08/1950,2020-09-12_08h49.13.734,proactive3.2,2020.1.2,Win32,60,5f5adea66120081ea0f57a61,5f5c7d2b2347b501aa201f39,5,,,,,,suitcase,,,,,,,,,,,6,1,0,26,26,56,1,,,,,,,,,,,,,,,,,,,,,,,,,,,,,,,,,,,,,,,,,,,,,,,,,,,,,,,,,,,,
,,LOTS,6.344,1,,,,,,stimuli/images/PICTURE_233.png,LOTS,5ea07a903abacb0452903ef4,22/08/1950,2020-09-12_08h49.13.734,proactive3.2,2020.1.2,Win32,60,5f5adea66120081ea0f57a61,5f5c7d2b2347b501aa201f39,5,,,,,,salt,,,,,,,,,,,5,1,0,27,27,42,1,,,,,,,,,,,,,,,,,,,,,,,,,,,,,,,,,,,,,,,,,,,,,,,,,,,,,,,,,,,,
,,?,0.004,0,,,,,,stimuli/images/PICTURE_405.png,PLENTY,5ea07a903abacb0452903ef4,22/08/1950,2020-09-12_08h49.13.734,proactive3.2,2020.1.2,Win32,60,5f5adea66120081ea0f57a61,5f5c7d2b2347b501aa201f39,5,,,,,,anchor,,,,,,,,,,,3,1,0,28,28,23,1,,,,,,,,,,,,,,,,,,,,,,,,,,,,,,,,,,,,,,,,,,,,,,,,,,,,,,,,,,,,
,,GIRL,5.207,1,,,,,,stimuli/images/PICTURE_487.png,GIRL,5ea07a903abacb0452903ef4,22/08/1950,2020-09-12_08h49.13.734,proactive3.2,2020.1.2,Win32,60,5f5adea66120081ea0f57a61,5f5c7d2b2347b501aa201f39,5,,,,,,basket,,,,,,,,,,,5,1,0,29,29,45,1,,,,,,,,,,,,,,,,,,,,,,,,,,,,,,,,,,,,,,,,,,,,,,,,,,,,,,,,,,,,
,,SERIES,4.415,1,,,,,,stimuli/images/PICTURE_383.png,SERIES,5ea07a903abacb0452903ef4,22/08/1950,2020-09-12_08h49.13.734,proactive3.2,2020.1.2,Win32,60,5f5adea66120081ea0f57a61,5f5c7d2b2347b501aa201f39,5,,,,,,coin,,,,,,,,,,,5,1,0,30,30,46,1,,,,,,,,,,,,,,,,,,,,,,,,,,,,,,,,,,,,,,,,,,,,,,,,,,,,,,,,,,,,
,,?,0.005,0,,,,,,stimuli/images/PICTURE_380.png,HONEY,5ea07a903abacb0452903ef4,22/08/1950,2020-09-12_08h49.13.734,proactive3.2,2020.1.2,Win32,60,5f5adea66120081ea0f57a61,5f5c7d2b2347b501aa201f39,5,,,,,,gorilla,,,,,,,,,,,2,1,0,31,31,19,1,,,,,,,,,,,,,,,,,,,,,,,,,,,,,,,,,,,,,,,,,,,,,,,,,,,,,,,,,,,,
,,?,0.004,0,,,,,,stimuli/images/PICTURE_296.png,LIFE,5ea07a903abacb0452903ef4,22/08/1950,2020-09-12_08h49.13.734,proactive3.2,2020.1.2,Win32,60,5f5adea66120081ea0f57a61,5f5c7d2b2347b501aa201f39,5,,,,,,bolt,,,,,,,,,,,6,1,0,32,32,57,1,,,,,,,,,,,,,,,,,,,,,,,,,,,,,,,,,,,,,,,,,,,,,,,,,,,,,,,,,,,,
,,?,0.004,0,,,,,,stimuli/images/PICTURE_32.png,PILLS,5ea07a903abacb0452903ef4,22/08/1950,2020-09-12_08h49.13.734,proactive3.2,2020.1.2,Win32,60,5f5adea66120081ea0f57a61,5f5c7d2b2347b501aa201f39,5,,,,,,crown,,,,,,,,,,,2,1,0,33,33,18,1,,,,,,,,,,,,,,,,,,,,,,,,,,,,,,,,,,,,,,,,,,,,,,,,,,,,,,,,,,,,
,,?,0.004,0,,,,,,stimuli/images/PICTURE_491.png,GLASS,5ea07a903abacb0452903ef4,22/08/1950,2020-09-12_08h49.13.734,proactive3.2,2020.1.2,Win32,60,5f5adea66120081ea0f57a61,5f5c7d2b2347b501aa201f39,5,,,,,,rug,,,,,,,,,,,2,1,0,34,34,14,1,,,,,,,,,,,,,,,,,,,,,,,,,,,,,,,,,,,,,,,,,,,,,,,,,,,,,,,,,,,,
,,?,0.003,0,,,,,,stimuli/images/PICTURE_449.png,DUDE,5ea07a903abacb0452903ef4,22/08/1950,2020-09-12_08h49.13.734,proactive3.2,2020.1.2,Win32,60,5f5adea66120081ea0f57a61,5f5c7d2b2347b501aa201f39,5,,,,,,bench,,,,,,,,,,,2,1,0,35,35,17,1,,,,,,,,,,,,,,,,,,,,,,,,,,,,,,,,,,,,,,,,,,,,,,,,,,,,,,,,,,,,
,,APPLE,4.301,1,,,,,,stimuli/images/PICTURE_677.png,APPLE,5ea07a903abacb0452903ef4,22/08/1950,2020-09-12_08h49.13.734,proactive3.2,2020.1.2,Win32,60,5f5adea66120081ea0f57a61,5f5c7d2b2347b501aa201f39,5,,,,,,map,,,,,,,,,,,5,1,0,36,36,43,1,,,,,,,,,,,,,,,,,,,,,,,,,,,,,,,,,,,,,,,,,,,,,,,,,,,,,,,,,,,,
,,?,0.003,0,,,,,,stimuli/images/PICTURE_654.png,MONTH,5ea07a903abacb0452903ef4,22/08/1950,2020-09-12_08h49.13.734,proactive3.2,2020.1.2,Win32,60,5f5adea66120081ea0f57a61,5f5c7d2b2347b501aa201f39,5,,,,,,pencil,,,,,,,,,,,3,1,0,37,37,29,1,,,,,,,,,,,,,,,,,,,,,,,,,,,,,,,,,,,,,,,,,,,,,,,,,,,,,,,,,,,,
,,?,0.005,0,,,,,,stimuli/images/PICTURE_708.png,RECORD,5ea07a903abacb0452903ef4,22/08/1950,2020-09-12_08h49.13.734,proactive3.2,2020.1.2,Win32,60,5f5adea66120081ea0f57a61,5f5c7d2b2347b501aa201f39,5,,,,,,monkey,,,,,,,,,,,6,1,0,38,38,58,1,,,,,,,,,,,,,,,,,,,,,,,,,,,,,,,,,,,,,,,,,,,,,,,,,,,,,,,,,,,,
,,?,0.004,0,,,,,,stimuli/images/PICTURE_208.png,SYSTEM,5ea07a903abacb0452903ef4,22/08/1950,2020-09-12_08h49.13.734,proactive3.2,2020.1.2,Win32,60,5f5adea66120081ea0f57a61,5f5c7d2b2347b501aa201f39,5,,,,,,microphone,,,,,,,,,,,4,1,0,39,39,32,1,,,,,,,,,,,,,,,,,,,,,,,,,,,,,,,,,,,,,,,,,,,,,,,,,,,,,,,,,,,,
,,?,0.004,0,,,,,,stimuli/images/PICTURE_655.png,TOILET,5ea07a903abacb0452903ef4,22/08/1950,2020-09-12_08h49.13.734,proactive3.2,2020.1.2,Win32,60,5f5adea66120081ea0f57a61,5f5c7d2b2347b501aa201f39,5,,,,,,megaphone,,,,,,,,,,,2,1,0,40,40,12,1,,,,,,,,,,,,,,,,,,,,,,,,,,,,,,,,,,,,,,,,,,,,,,,,,,,,,,,,,,,,
,,WATER,6.54,0,,,,,,stimuli/images/PICTURE_177.png,WRITER,5ea07a903abacb0452903ef4,22/08/1950,2020-09-12_08h49.13.734,proactive3.2,2020.1.2,Win32,60,5f5adea66120081ea0f57a61,5f5c7d2b2347b501aa201f39,5,,,,,,mushroom,,,,,,,,,,,5,1,0,41,41,41,1,,,,,,,,,,,,,,,,,,,,,,,,,,,,,,,,,,,,,,,,,,,,,,,,,,,,,,,,,,,,
,,?,0.004,0,,,,,,stimuli/images/PICTURE_68.png,ROOF,5ea07a903abacb0452903ef4,22/08/1950,2020-09-12_08h49.13.734,proactive3.2,2020.1.2,Win32,60,5f5adea66120081ea0f57a61,5f5c7d2b2347b501aa201f39,5,,,,,,candle,,,,,,,,,,,4,1,0,42,42,38,1,,,,,,,,,,,,,,,,,,,,,,,,,,,,,,,,,,,,,,,,,,,,,,,,,,,,,,,,,,,,
,,?,0.004,0,,,,,,stimuli/images/PICTURE_108.png,FLIGHT,5ea07a903abacb0452903ef4,22/08/1950,2020-09-12_08h49.13.734,proactive3.2,2020.1.2,Win32,60,5f5adea66120081ea0f57a61,5f5c7d2b2347b501aa201f39,5,,,,,,calendar,,,,,,,,,,,6,1,0,43,43,59,1,,,,,,,,,,,,,,,,,,,,,,,,,,,,,,,,,,,,,,,,,,,,,,,,,,,,,,,,,,,,
,,RIVER,6.517,1,,,,,,stimuli/images/PICTURE_403.png,RIVER,5ea07a903abacb0452903ef4,22/08/1950,2020-09-12_08h49.13.734,proactive3.2,2020.1.2,Win32,60,5f5adea66120081ea0f57a61,5f5c7d2b2347b501aa201f39,5,,,,,,cathedral,,,,,,,,,,,5,1,0,44,44,40,1,,,,,,,,,,,,,,,,,,,,,,,,,,,,,,,,,,,,,,,,,,,,,,,,,,,,,,,,,,,,
,,?,0.003,0,,,,,,stimuli/images/PICTURE_108.png,POLICY,5ea07a903abacb0452903ef4,22/08/1950,2020-09-12_08h49.13.734,proactive3.2,2020.1.2,Win32,60,5f5adea66120081ea0f57a61,5f5c7d2b2347b501aa201f39,5,,,,,,calendar,,,,,,,,,,,3,1,0,45,45,22,1,,,,,,,,,,,,,,,,,,,,,,,,,,,,,,,,,,,,,,,,,,,,,,,,,,,,,,,,,,,,
,,?,0.002,0,,,,,,stimuli/images/PICTURE_750.png,HOTEL,5ea07a903abacb0452903ef4,22/08/1950,2020-09-12_08h49.13.734,proactive3.2,2020.1.2,Win32,60,5f5adea66120081ea0f57a61,5f5c7d2b2347b501aa201f39,5,,,,,,kettle,,,,,,,,,,,3,1,0,46,46,27,1,,,,,,,,,,,,,,,,,,,,,,,,,,,,,,,,,,,,,,,,,,,,,,,,,,,,,,,,,,,,
,,?,0.003,0,,,,,,stimuli/images/PICTURE_147.png,YEAR,5ea07a903abacb0452903ef4,22/08/1950,2020-09-12_08h49.13.734,proactive3.2,2020.1.2,Win32,60,5f5adea66120081ea0f57a61,5f5c7d2b2347b501aa201f39,5,,,,,,hanger,,,,,,,,,,,3,1,0,47,47,21,1,,,,,,,,,,,,,,,,,,,,,,,,,,,,,,,,,,,,,,,,,,,,,,,,,,,,,,,,,,,,
,,?,0.003,0,,,,,,stimuli/images/PICTURE_564.png,BATH,5ea07a903abacb0452903ef4,22/08/1950,2020-09-12_08h49.13.734,proactive3.2,2020.1.2,Win32,60,5f5adea66120081ea0f57a61,5f5c7d2b2347b501aa201f39,5,,,,,,spoon,,,,,,,,,,,3,1,0,48,48,26,1,,,,,,,,,,,,,,,,,,,,,,,,,,,,,,,,,,,,,,,,,,,,,,,,,,,,,,,,,,,,
,,ARTIST,5.232,1,,,,,,stimuli/images/PICTURE_504.png,ARTIST,5ea07a903abacb0452903ef4,22/08/1950,2020-09-12_08h49.13.734,proactive3.2,2020.1.2,Win32,60,5f5adea66120081ea0f57a61,5f5c7d2b2347b501aa201f39,5,,,,,,wheel,,,,,,,,,,,5,1,0,49,49,49,1,,,,,,,,,,,,,,,,,,,,,,,,,,,,,,,,,,,,,,,,,,,,,,,,,,,,,,,,,,,,
,,?,0.003,0,,,,,,stimuli/images/PICTURE_467.png,POLICY,5ea07a903abacb0452903ef4,22/08/1950,2020-09-12_08h49.13.734,proactive3.2,2020.1.2,Win32,60,5f5adea66120081ea0f57a61,5f5c7d2b2347b501aa201f39,5,,,,,,peg,,,,,,,,,,,6,1,0,50,50,53,1,,,,,,,,,,,,,,,,,,,,,,,,,,,,,,,,,,,,,,,,,,,,,,,,,,,,,,,,,,,,
,,?,0.003,0,,,,,,stimuli/images/PICTURE_95.png,BOYS,5ea07a903abacb0452903ef4,22/08/1950,2020-09-12_08h49.13.734,proactive3.2,2020.1.2,Win32,60,5f5adea66120081ea0f57a61,5f5c7d2b2347b501aa201f39,5,,,,,,suitcase,,,,,,,,,,,1,1,0,51,51,1,1,,,,,,,,,,,,,,,,,,,,,,,,,,,,,,,,,,,,,,,,,,,,,,,,,,,,,,,,,,,,
,,?,0.004,0,,,,,,stimuli/images/PICTURE_491.png,RIVER,5ea07a903abacb0452903ef4,22/08/1950,2020-09-12_08h49.13.734,proactive3.2,2020.1.2,Win32,60,5f5adea66120081ea0f57a61,5f5c7d2b2347b501aa201f39,5,,,,,,rug,,,,,,,,,,,1,1,0,52,52,6,1,,,,,,,,,,,,,,,,,,,,,,,,,,,,,,,,,,,,,,,,,,,,,,,,,,,,,,,,,,,,
,,?,0.003,0,,,,,,stimuli/images/PICTURE_147.png,WOMEN,5ea07a903abacb0452903ef4,22/08/1950,2020-09-12_08h49.13.734,proactive3.2,2020.1.2,Win32,60,5f5adea66120081ea0f57a61,5f5c7d2b2347b501aa201f39,5,,,,,,hanger,,,,,,,,,,,1,1,0,53,53,7,1,,,,,,,,,,,,,,,,,,,,,,,,,,,,,,,,,,,,,,,,,,,,,,,,,,,,,,,,,,,,
,,?,0.003,0,,,,,,stimuli/images/PICTURE_339.png,CLIENT,5ea07a903abacb0452903ef4,22/08/1950,2020-09-12_08h49.13.734,proactive3.2,2020.1.2,Win32,60,5f5adea66120081ea0f57a61,5f5c7d2b2347b501aa201f39,5,,,,,,backpack,,,,,,,,,,,2,1,0,54,54,11,1,,,,,,,,,,,,,,,,,,,,,,,,,,,,,,,,,,,,,,,,,,,,,,,,,,,,,,,,,,,,
,,?,0.004,0,,,,,,stimuli/images/PICTURE_403.png,WRITER,5ea07a903abacb0452903ef4,22/08/1950,2020-09-12_08h49.13.734,proactive3.2,2020.1.2,Win32,60,5f5adea66120081ea0f57a61,5f5c7d2b2347b501aa201f39,5,,,,,,cathedral,,,,,,,,,,,4,1,0,55,55,31,1,,,,,,,,,,,,,,,,,,,,,,,,,,,,,,,,,,,,,,,,,,,,,,,,,,,,,,,,,,,,
,,?,0.004,0,,,,,,stimuli/images/PICTURE_42.png,BOYS,5ea07a903abacb0452903ef4,22/08/1950,2020-09-12_08h49.13.734,proactive3.2,2020.1.2,Win32,60,5f5adea66120081ea0f57a61,5f5c7d2b2347b501aa201f39,5,,,,,,pear,,,,,,,,,,,6,1,0,56,56,55,1,,,,,,,,,,,,,,,,,,,,,,,,,,,,,,,,,,,,,,,,,,,,,,,,,,,,,,,,,,,,
,,?,0.003,0,,,,,,stimuli/images/PICTURE_327.png,SERIES,5ea07a903abacb0452903ef4,22/08/1950,2020-09-12_08h49.13.734,proactive3.2,2020.1.2,Win32,60,5f5adea66120081ea0f57a61,5f5c7d2b2347b501aa201f39,5,,,,,,helmet,,,,,,,,,,,1,1,0,57,57,3,1,,,,,,,,,,,,,,,,,,,,,,,,,,,,,,,,,,,,,,,,,,,,,,,,,,,,,,,,,,,,
,,?,0.003,0,,,,,,stimuli/images/PICTURE_504.png,YEAR,5ea07a903abacb0452903ef4,22/08/1950,2020-09-12_08h49.13.734,proactive3.2,2020.1.2,Win32,60,5f5adea66120081ea0f57a61,5f5c7d2b2347b501aa201f39,5,,,,,,wheel,,,,,,,,,,,2,1,0,58,58,13,1,,,,,,,,,,,,,,,,,,,,,,,,,,,,,,,,,,,,,,,,,,,,,,,,,,,,,,,,,,,,
,,?,0.004,0,,,,,,stimuli/images/PICTURE_296.png,LOTS,5ea07a903abacb0452903ef4,22/08/1950,2020-09-12_08h49.13.734,proactive3.2,2020.1.2,Win32,60,5f5adea66120081ea0f57a61,5f5c7d2b2347b501aa201f39,5,,,,,,bolt,,,,,,,,,,,1,1,0,59,59,9,1,,,,,,,,,,,,,,,,,,,,,,,,,,,,,,,,,,,,,,,,,,,,,,,,,,,,,,,,,,,,
,,,,,,,,,,,,5ea07a903abacb0452903ef4,22/08/1950,2020-09-12_08h49.13.734,proactive3.2,2020.1.2,Win32,60,5f5adea66120081ea0f57a61,5f5c7d2b2347b501aa201f39,5,,,,,,,,,,,,,,,,,,,,,,,,0,1,1,1,1,stimuli/learn-block2.csv,,,,,,,,,,,,,,,,,,,,,,,,,,,,,,,,,,,,,,,,,,,,,,,,,,,,,,
,,,,,,,,,,stimuli/images/PICTURE_692.png,MONTH,5ea07a903abacb0452903ef4,22/08/1950,2020-09-12_08h49.13.734,proactive3.2,2020.1.2,Win32,60,5f5adea66120081ea0f57a61,5f5c7d2b2347b501aa201f39,5,,,,,,cherry,,,,,,0,0,0,16,1,2,0,,,,,,,,,,,,,,,,,,,,,,,,,,,,,,,,,,,,,,,,,,,,,,,,,,,,,,,,,,,,,,,,,
,,,,,,,,,,stimuli/images/PICTURE_469.png,LETTER,5ea07a903abacb0452903ef4,22/08/1950,2020-09-12_08h49.13.734,proactive3.2,2020.1.2,Win32,60,5f5adea66120081ea0f57a61,5f5c7d2b2347b501aa201f39,5,,,,,,stool,,,,,,0,1,1,42,1,5,0,,,,,,,,,,,,,,,,,,,,,,,,,,,,,,,,,,,,,,,,,,,,,,,,,,,,,,,,,,,,,,,,,
,,,,,,,,,,stimuli/images/PICTURE_160.png,LEADER,5ea07a903abacb0452903ef4,22/08/1950,2020-09-12_08h49.13.734,proactive3.2,2020.1.2,Win32,60,5f5adea66120081ea0f57a61,5f5c7d2b2347b501aa201f39,5,,,,,,wheelbarrow,,,,,,0,2,2,3,1,1,0,,,,,,,,,,,,,,,,,,,,,,,,,,,,,,,,,,,,,,,,,,,,,,,,,,,,,,,,,,,,,,,,,
,,,,,,,,,,stimuli/images/PICTURE_744.png,SYSTEM,5ea07a903abacb0452903ef4,22/08/1950,2020-09-12_08h49.13.734,proactive3.2,2020.1.2,Win32,60,5f5adea66120081ea0f57a61,5f5c7d2b2347b501aa201f39,5,,,,,,ring,,,,,,0,3,3,43,1,5,0,,,,,,,,,,,,,,,,,,,,,,,,,,,,,,,,,,,,,,,,,,,,,,,,,,,,,,,,,,,,,,,,,
,,,,,,,,,,stimuli/images/PICTURE_285.png,ADVICE,5ea07a903abacb0452903ef4,22/08/1950,2020-09-12_08h49.13.734,proactive3.2,2020.1.2,Win32,60,5f5adea66120081ea0f57a61,5f5c7d2b2347b501aa201f39,5,,,,,,carrot,,,,,,0,4,4,12,1,2,0,,,,,,,,,,,,,,,,,,,,,,,,,,,,,,,,,,,,,,,,,,,,,,,,,,,,,,,,,,,,,,,,,
,,,,,,,,,,stimuli/images/PICTURE_708.png,PENNY,5ea07a903abacb0452903ef4,22/08/1950,2020-09-12_08h49.13.734,proactive3.2,2020.1.2,Win32,60,5f5adea66120081ea0f57a61,5f5c7d2b2347b501aa201f39,5,,,,,,monkey,,,,,,0,5,5,31,1,4,0,,,,,,,,,,,,,,,,,,,,,,,,,,,,,,,,,,,,,,,,,,,,,,,,,,,,,,,,,,,,,,,,,
,,,,,,,,,,stimuli/images/PICTURE_453.png,DUDE,5ea07a903abacb0452903ef4,22/08/1950,2020-09-12_08h49.13.734,proactive3.2,2020.1.2,Win32,60,5f5adea66120081ea0f57a61,5f5c7d2b2347b501aa201f39,5,,,,,,scissors,,,,,,0,6,6,27,1,3,0,,,,,,,,,,,,,,,,,,,,,,,,,,,,,,,,,,,,,,,,,,,,,,,,,,,,,,,,,,,,,,,,,
,,,,,,,,,,stimuli/images/PICTURE_32.png,JUNGLE,5ea07a903abacb0452903ef4,22/08/1950,2020-09-12_08h49.13.734,proactive3.2,2020.1.2,Win32,60,5f5adea66120081ea0f57a61,5f5c7d2b2347b501aa201f39,5,,,,,,crown,,,,,,0,7,7,45,1,5,0,,,,,,,,,,,,,,,,,,,,,,,,,,,,,,,,,,,,,,,,,,,,,,,,,,,,,,,,,,,,,,,,,
,,,,,,,,,,stimuli/images/PICTURE_95.png,STYLE,5ea07a903abacb0452903ef4,22/08/1950,2020-09-12_08h49.13.734,proactive3.2,2020.1.2,Win32,60,5f5adea66120081ea0f57a61,5f5c7d2b2347b501aa201f39,5,,,,,,suitcase,,,,,,0,8,8,25,1,3,0,,,,,,,,,,,,,,,,,,,,,,,,,,,,,,,,,,,,,,,,,,,,,,,,,,,,,,,,,,,,,,,,,
,,,,,,,,,,stimuli/images/PICTURE_675.png,WEAPON,5ea07a903abacb0452903ef4,22/08/1950,2020-09-12_08h49.13.734,proactive3.2,2020.1.2,Win32,60,5f5adea66120081ea0f57a61,5f5c7d2b2347b501aa201f39,5,,,,,,windmill,,,,,,0,9,9,32,1,4,0,,,,,,,,,,,,,,,,,,,,,,,,,,,,,,,,,,,,,,,,,,,,,,,,,,,,,,,,,,,,,,,,,
,,,,,,,,,,stimuli/images/PICTURE_160.png,FEET,5ea07a903abacb0452903ef4,22/08/1950,2020-09-12_08h49.13.734,proactive3.2,2020.1.2,Win32,60,5f5adea66120081ea0f57a61,5f5c7d2b2347b501aa201f39,5,,,,,,wheelbarrow,,,,,,0,10,10,58,1,6,0,,,,,,,,,,,,,,,,,,,,,,,,,,,,,,,,,,,,,,,,,,,,,,,,,,,,,,,,,,,,,,,,,
,,,,,,,,,,stimuli/images/PICTURE_449.png,THING,5ea07a903abacb0452903ef4,22/08/1950,2020-09-12_08h49.13.734,proactive3.2,2020.1.2,Win32,60,5f5adea66120081ea0f57a61,5f5c7d2b2347b501aa201f39,5,,,,,,bench,,,,,,0,11,11,59,1,6,0,,,,,,,,,,,,,,,,,,,,,,,,,,,,,,,,,,,,,,,,,,,,,,,,,,,,,,,,,,,,,,,,,
,,,,,,,,,,stimuli/images/PICTURE_654.png,VALLEY,5ea07a903abacb0452903ef4,22/08/1950,2020-09-12_08h49.13.734,proactive3.2,2020.1.2,Win32,60,5f5adea66120081ea0f57a61,5f5c7d2b2347b501aa201f39,5,,,,,,pencil,,,,,,0,12,12,1,1,1,0,,,,,,,,,,,,,,,,,,,,,,,,,,,,,,,,,,,,,,,,,,,,,,,,,,,,,,,,,,,,,,,,,
,,,,,,,,,,stimuli/images/PICTURE_327.png,BEAUTY,5ea07a903abacb0452903ef4,22/08/1950,2020-09-12_08h49.13.734,proactive3.2,2020.1.2,Win32,60,5f5adea66120081ea0f57a61,5f5c7d2b2347b501aa201f39,5,,,,,,helmet,,,,,,0,13,13,48,1,5,0,,,,,,,,,,,,,,,,,,,,,,,,,,,,,,,,,,,,,,,,,,,,,,,,,,,,,,,,,,,,,,,,,
,,,,,,,,,,stimuli/images/PICTURE_308.png,ESTATE,5ea07a903abacb0452903ef4,22/08/1950,2020-09-12_08h49.13.734,proactive3.2,2020.1.2,Win32,60,5f5adea66120081ea0f57a61,5f5c7d2b2347b501aa201f39,5,,,,,,dice,,,,,,0,14,14,46,1,5,0,,,,,,,,,,,,,,,,,,,,,,,,,,,,,,,,,,,,,,,,,,,,,,,,,,,,,,,,,,,,,,,,,
,,,,,,,,,,stimuli/images/PICTURE_356.png,DANGER,5ea07a903abacb0452903ef4,22/08/1950,2020-09-12_08h49.13.734,proactive3.2,2020.1.2,Win32,60,5f5adea66120081ea0f57a61,5f5c7d2b2347b501aa201f39,5,,,,,,pawn,,,,,,0,15,15,55,1,6,0,,,,,,,,,,,,,,,,,,,,,,,,,,,,,,,,,,,,,,,,,,,,,,,,,,,,,,,,,,,,,,,,,
,,,,,,,,,,stimuli/images/PICTURE_302.png,FAMILY,5ea07a903abacb0452903ef4,22/08/1950,2020-09-12_08h49.13.734,proactive3.2,2020.1.2,Win32,60,5f5adea66120081ea0f57a61,5f5c7d2b2347b501aa201f39,5,,,,,,taxi,,,,,,0,16,16,18,1,2,0,,,,,,,,,,,,,,,,,,,,,,,,,,,,,,,,,,,,,,,,,,,,,,,,,,,,,,,,,,,,,,,,,
,,,,,,,,,,stimuli/images/PICTURE_491.png,ROOF,5ea07a903abacb0452903ef4,22/08/1950,2020-09-12_08h49.13.734,proactive3.2,2020.1.2,Win32,60,5f5adea66120081ea0f57a61,5f5c7d2b2347b501aa201f39,5,,,,,,rug,,,,,,0,17,17,24,1,3,0,,,,,,,,,,,,,,,,,,,,,,,,,,,,,,,,,,,,,,,,,,,,,,,,,,,,,,,,,,,,,,,,,
,,,,,,,,,,stimuli/images/PICTURE_348.png,SPEECH,5ea07a903abacb0452903ef4,22/08/1950,2020-09-12_08h49.13.734,proactive3.2,2020.1.2,Win32,60,5f5adea66120081ea0f57a61,5f5c7d2b2347b501aa201f39,5,,,,,,pepper,,,,,,0,18,18,20,1,3,0,,,,,,,,,,,,,,,,,,,,,,,,,,,,,,,,,,,,,,,,,,,,,,,,,,,,,,,,,,,,,,,,,
,,,,,,,,,,stimuli/images/PICTURE_708.png,YARD,5ea07a903abacb0452903ef4,22/08/1950,2020-09-12_08h49.13.734,proactive3.2,2020.1.2,Win32,60,5f5adea66120081ea0f57a61,5f5c7d2b2347b501aa201f39,5,,,,,,monkey,,,,,,0,19,19,29,1,3,0,,,,,,,,,,,,,,,,,,,,,,,,,,,,,,,,,,,,,,,,,,,,,,,,,,,,,,,,,,,,,,,,,
,,,,,,,,,,stimuli/images/PICTURE_311.png,BEAUTY,5ea07a903abacb0452903ef4,22/08/1950,2020-09-12_08h49.13.734,proactive3.2,2020.1.2,Win32,60,5f5adea66120081ea0f57a61,5f5c7d2b2347b501aa201f39,5,,,,,,razor,,,,,,0,20,20,13,1,2,0,,,,,,,,,,,,,,,,,,,,,,,,,,,,,,,,,,,,,,,,,,,,,,,,,,,,,,,,,,,,,,,,,
,,,,,,,,,,stimuli/images/PICTURE_467.png,DEMON,5ea07a903abacb0452903ef4,22/08/1950,2020-09-12_08h49.13.734,proactive3.2,2020.1.2,Win32,60,5f5adea66120081ea0f57a61,5f5c7d2b2347b501aa201f39,5,,,,,,peg,,,,,,0,21,21,23,1,3,0,,,,,,,,,,,,,,,,,,,,,,,,,,,,,,,,,,,,,,,,,,,,,,,,,,,,,,,,,,,,,,,,,
,,,,,,,,,,stimuli/images/PICTURE_215.png,PLENTY,5ea07a903abacb0452903ef4,22/08/1950,2020-09-12_08h49.13.734,proactive3.2,2020.1.2,Win32,60,5f5adea66120081ea0f57a61,5f5c7d2b2347b501aa201f39,5,,,,,,boot,,,,,,0,22,22,37,1,4,0,,,,,,,,,,,,,,,,,,,,,,,,,,,,,,,,,,,,,,,,,,,,,,,,,,,,,,,,,,,,,,,,,
,,,,,,,,,,stimuli/images/PICTURE_677.png,MILE,5ea07a903abacb0452903ef4,22/08/1950,2020-09-12_08h49.13.734,proactive3.2,2020.1.2,Win32,60,5f5adea66120081ea0f57a61,5f5c7d2b2347b501aa201f39,5,,,,,,map,,,,,,0,23,23,30,1,4,0,,,,,,,,,,,,,,,,,,,,,,,,,,,,,,,,,,,,,,,,,,,,,,,,,,,,,,,,,,,,,,,,,
,,,,,,,,,,stimuli/images/PICTURE_339.png,PLENTY,5ea07a903abacb0452903ef4,22/08/1950,2020-09-12_08h49.13.734,proactive3.2,2020.1.2,Win32,60,5f5adea66120081ea0f57a61,5f5c7d2b2347b501aa201f39,5,,,,,,backpack,,,,,,0,24,24,0,1,1,0,,,,,,,,,,,,,,,,,,,,,,,,,,,,,,,,,,,,,,,,,,,,,,,,,,,,,,,,,,,,,,,,,
,,,,,,,,,,stimuli/images/PICTURE_453.png,PLENTY,5ea07a903abacb0452903ef4,22/08/1950,2020-09-12_08h49.13.734,proactive3.2,2020.1.2,Win32,60,5f5adea66120081ea0f57a61,5f5c7d2b2347b501aa201f39,5,,,,,,scissors,,,,,,0,25,25,56,1,6,0,,,,,,,,,,,,,,,,,,,,,,,,,,,,,,,,,,,,,,,,,,,,,,,,,,,,,,,,,,,,,,,,,
,,,,,,,,,,stimuli/images/PICTURE_744.png,SAKE,5ea07a903abacb0452903ef4,22/08/1950,2020-09-12_08h49.13.734,proactive3.2,2020.1.2,Win32,60,5f5adea66120081ea0f57a61,5f5c7d2b2347b501aa201f39,5,,,,,,ring,,,,,,0,26,26,17,1,2,0,,,,,,,,,,,,,,,,,,,,,,,,,,,,,,,,,,,,,,,,,,,,,,,,,,,,,,,,,,,,,,,,,
,,,,,,,,,,stimuli/images/PICTURE_85.png,THING,5ea07a903abacb0452903ef4,22/08/1950,2020-09-12_08h49.13.734,proactive3.2,2020.1.2,Win32,60,5f5adea66120081ea0f57a61,5f5c7d2b2347b501aa201f39,5,,,,,,diamond,,,,,,0,27,27,15,1,2,0,,,,,,,,,,,,,,,,,,,,,,,,,,,,,,,,,,,,,,,,,,,,,,,,,,,,,,,,,,,,,,,,,
,,,,,,,,,,stimuli/images/PICTURE_380.png,PHOTO,5ea07a903abacb0452903ef4,22/08/1950,2020-09-12_08h49.13.734,proactive3.2,2020.1.2,Win32,60,5f5adea66120081ea0f57a61,5f5c7d2b2347b501aa201f39,5,,,,,,gorilla,,,,,,0,28,28,52,1,6,0,,,,,,,,,,,,,,,,,,,,,,,,,,,,,,,,,,,,,,,,,,,,,,,,,,,,,,,,,,,,,,,,,
,,,,,,,,,,stimuli/images/PICTURE_208.png,THING,5ea07a903abacb0452903ef4,22/08/1950,2020-09-12_08h49.13.734,proactive3.2,2020.1.2,Win32,60,5f5adea66120081ea0f57a61,5f5c7d2b2347b501aa201f39,5,,,,,,microphone,,,,,,0,29,29,47,1,5,0,,,,,,,,,,,,,,,,,,,,,,,,,,,,,,,,,,,,,,,,,,,,,,,,,,,,,,,,,,,,,,,,,
,,,,,,,,,,stimuli/images/PICTURE_311.png,FRIEND,5ea07a903abacb0452903ef4,22/08/1950,2020-09-12_08h49.13.734,proactive3.2,2020.1.2,Win32,60,5f5adea66120081ea0f57a61,5f5c7d2b2347b501aa201f39,5,,,,,,razor,,,,,,0,30,30,34,1,4,0,,,,,,,,,,,,,,,,,,,,,,,,,,,,,,,,,,,,,,,,,,,,,,,,,,,,,,,,,,,,,,,,,
,,,,,,,,,,stimuli/images/PICTURE_248.png,DOZEN,5ea07a903abacb0452903ef4,22/08/1950,2020-09-12_08h49.13.734,proactive3.2,2020.1.2,Win32,60,5f5adea66120081ea0f57a61,5f5c7d2b2347b501aa201f39,5,,,,,,cart,,,,,,0,31,31,39,1,4,0,,,,,,,,,,,,,,,,,,,,,,,,,,,,,,,,,,,,,,,,,,,,,,,,,,,,,,,,,,,,,,,,,
,,,,,,,,,,stimuli/images/PICTURE_667.png,PLENTY,5ea07a903abacb0452903ef4,22/08/1950,2020-09-12_08h49.13.734,proactive3.2,2020.1.2,Win32,60,5f5adea66120081ea0f57a61,5f5c7d2b2347b501aa201f39,5,,,,,,daisy,,,,,,0,32,32,41,1,5,0,,,,,,,,,,,,,,,,,,,,,,,,,,,,,,,,,,,,,,,,,,,,,,,,,,,,,,,,,,,,,,,,,
,,,,,,,,,,stimuli/images/PICTURE_233.png,IDEAS,5ea07a903abacb0452903ef4,22/08/1950,2020-09-12_08h49.13.734,proactive3.2,2020.1.2,Win32,60,5f5adea66120081ea0f57a61,5f5c7d2b2347b501aa201f39,5,,,,,,salt,,,,,,0,33,33,28,1,3,0,,,,,,,,,,,,,,,,,,,,,,,,,,,,,,,,,,,,,,,,,,,,,,,,,,,,,,,,,,,,,,,,,
,,,,,,,,,,stimuli/images/PICTURE_308.png,KIND,5ea07a903abacb0452903ef4,22/08/1950,2020-09-12_08h49.13.734,proactive3.2,2020.1.2,Win32,60,5f5adea66120081ea0f57a61,5f5c7d2b2347b501aa201f39,5,,,,,,dice,,,,,,0,34,34,54,1,6,0,,,,,,,,,,,,,,,,,,,,,,,,,,,,,,,,,,,,,,,,,,,,,,,,,,,,,,,,,,,,,,,,,
,,,,,,,,,,stimuli/images/PICTURE_208.png,LOTS,5ea07a903abacb0452903ef4,22/08/1950,2020-09-12_08h49.13.734,proactive3.2,2020.1.2,Win32,60,5f5adea66120081ea0f57a61,5f5c7d2b2347b501aa201f39,5,,,,,,microphone,,,,,,0,35,35,10,1,2,0,,,,,,,,,,,,,,,,,,,,,,,,,,,,,,,,,,,,,,,,,,,,,,,,,,,,,,,,,,,,,,,,,
,,,,,,,,,,stimuli/images/PICTURE_487.png,FLIGHT,5ea07a903abacb0452903ef4,22/08/1950,2020-09-12_08h49.13.734,proactive3.2,2020.1.2,Win32,60,5f5adea66120081ea0f57a61,5f5c7d2b2347b501aa201f39,5,,,,,,basket,,,,,,0,36,36,9,1,1,0,,,,,,,,,,,,,,,,,,,,,,,,,,,,,,,,,,,,,,,,,,,,,,,,,,,,,,,,,,,,,,,,,
,,,,,,,,,,stimuli/images/PICTURE_469.png,ARTIST,5ea07a903abacb0452903ef4,22/08/1950,2020-09-12_08h49.13.734,proactive3.2,2020.1.2,Win32,60,5f5adea66120081ea0f57a61,5f5c7d2b2347b501aa201f39,5,,,,,,stool,,,,,,0,37,37,6,1,1,0,,,,,,,,,,,,,,,,,,,,,,,,,,,,,,,,,,,,,,,,,,,,,,,,,,,,,,,,,,,,,,,,,
,,,,,,,,,,stimuli/images/PICTURE_509.png,PHOTO,5ea07a903abacb0452903ef4,22/08/1950,2020-09-12_08h49.13.734,proactive3.2,2020.1.2,Win32,60,5f5adea66120081ea0f57a61,5f5c7d2b2347b501aa201f39,5,,,,,,telephone,,,,,,0,38,38,21,1,3,0,,,,,,,,,,,,,,,,,,,,,,,,,,,,,,,,,,,,,,,,,,,,,,,,,,,,,,,,,,,,,,,,,
,,,,,,,,,,stimuli/images/PICTURE_504.png,BODY,5ea07a903abacb0452903ef4,22/08/1950,2020-09-12_08h49.13.734,proactive3.2,2020.1.2,Win32,60,5f5adea66120081ea0f57a61,5f5c7d2b2347b501aa201f39,5,,,,,,wheel,,,,,,0,39,39,8,1,1,0,,,,,,,,,,,,,,,,,,,,,,,,,,,,,,,,,,,,,,,,,,,,,,,,,,,,,,,,,,,,,,,,,
,,,,,,,,,,stimuli/images/PICTURE_688.png,CASINO,5ea07a903abacb0452903ef4,22/08/1950,2020-09-12_08h49.13.734,proactive3.2,2020.1.2,Win32,60,5f5adea66120081ea0f57a61,5f5c7d2b2347b501aa201f39,5,,,,,,runner,,,,,,0,40,40,2,1,1,0,,,,,,,,,,,,,,,,,,,,,,,,,,,,,,,,,,,,,,,,,,,,,,,,,,,,,,,,,,,,,,,,,
,,,,,,,,,,stimuli/images/PICTURE_255.png,AREA,5ea07a903abacb0452903ef4,22/08/1950,2020-09-12_08h49.13.734,proactive3.2,2020.1.2,Win32,60,5f5adea66120081ea0f57a61,5f5c7d2b2347b501aa201f39,5,,,,,,shovel,,,,,,0,41,41,22,1,3,0,,,,,,,,,,,,,,,,,,,,,,,,,,,,,,,,,,,,,,,,,,,,,,,,,,,,,,,,,,,,,,,,,
,,,,,,,,,,stimuli/images/PICTURE_708.png,CLIENT,5ea07a903abacb0452903ef4,22/08/1950,2020-09-12_08h49.13.734,proactive3.2,2020.1.2,Win32,60,5f5adea66120081ea0f57a61,5f5c7d2b2347b501aa201f39,5,,,,,,monkey,,,,,,0,42,42,5,1,1,0,,,,,,,,,,,,,,,,,,,,,,,,,,,,,,,,,,,,,,,,,,,,,,,,,,,,,,,,,,,,,,,,,
,,,,,,,,,,stimuli/images/PICTURE_151.png,GIRL,5ea07a903abacb0452903ef4,22/08/1950,2020-09-12_08h49.13.734,proactive3.2,2020.1.2,Win32,60,5f5adea66120081ea0f57a61,5f5c7d2b2347b501aa201f39,5,,,,,,tray,,,,,,0,43,43,19,1,2,0,,,,,,,,,,,,,,,,,,,,,,,,,,,,,,,,,,,,,,,,,,,,,,,,,,,,,,,,,,,,,,,,,
,,,,,,,,,,stimuli/images/PICTURE_177.png,CARS,5ea07a903abacb0452903ef4,22/08/1950,2020-09-12_08h49.13.734,proactive3.2,2020.1.2,Win32,60,5f5adea66120081ea0f57a61,5f5c7d2b2347b501aa201f39,5,,,,,,mushroom,,,,,,0,44,44,35,1,4,0,,,,,,,,,,,,,,,,,,,,,,,,,,,,,,,,,,,,,,,,,,,,,,,,,,,,,,,,,,,,,,,,,
,,,,,,,,,,stimuli/images/PICTURE_203.png,ARTIST,5ea07a903abacb0452903ef4,22/08/1950,2020-09-12_08h49.13.734,proactive3.2,2020.1.2,Win32,60,5f5adea66120081ea0f57a61,5f5c7d2b2347b501aa201f39,5,,,,,,cap,,,,,,0,45,45,26,1,3,0,,,,,,,,,,,,,,,,,,,,,,,,,,,,,,,,,,,,,,,,,,,,,,,,,,,,,,,,,,,,,,,,,
,,,,,,,,,,stimuli/images/PICTURE_123.png,ADVICE,5ea07a903abacb0452903ef4,22/08/1950,2020-09-12_08h49.13.734,proactive3.2,2020.1.2,Win32,60,5f5adea66120081ea0f57a61,5f5c7d2b2347b501aa201f39,5,,,,,,dart,,,,,,0,46,46,50,1,6,0,,,,,,,,,,,,,,,,,,,,,,,,,,,,,,,,,,,,,,,,,,,,,,,,,,,,,,,,,,,,,,,,,
,,,,,,,,,,stimuli/images/PICTURE_470.png,CASINO,5ea07a903abacb0452903ef4,22/08/1950,2020-09-12_08h49.13.734,proactive3.2,2020.1.2,Win32,60,5f5adea66120081ea0f57a61,5f5c7d2b2347b501aa201f39,5,,,,,,motorbike,,,,,,0,47,47,36,1,4,0,,,,,,,,,,,,,,,,,,,,,,,,,,,,,,,,,,,,,,,,,,,,,,,,,,,,,,,,,,,,,,,,,
,,,,,,,,,,stimuli/images/PICTURE_147.png,MOMENT,5ea07a903abacb0452903ef4,22/08/1950,2020-09-12_08h49.13.734,proactive3.2,2020.1.2,Win32,60,5f5adea66120081ea0f57a61,5f5c7d2b2347b501aa201f39,5,,,,,,hanger,,,,,,0,48,48,51,1,6,0,,,,,,,,,,,,,,,,,,,,,,,,,,,,,,,,,,,,,,,,,,,,,,,,,,,,,,,,,,,,,,,,,
,,,,,,,,,,stimuli/images/PICTURE_380.png,DEATH,5ea07a903abacb0452903ef4,22/08/1950,2020-09-12_08h49.13.734,proactive3.2,2020.1.2,Win32,60,5f5adea66120081ea0f57a61,5f5c7d2b2347b501aa201f39,5,,,,,,gorilla,,,,,,0,49,49,49,1,5,0,,,,,,,,,,,,,,,,,,,,,,,,,,,,,,,,,,,,,,,,,,,,,,,,,,,,,,,,,,,,,,,,,
,,,,,,,,,,stimuli/images/PICTURE_488.png,STYLE,5ea07a903abacb0452903ef4,22/08/1950,2020-09-12_08h49.13.734,proactive3.2,2020.1.2,Win32,60,5f5adea66120081ea0f57a61,5f5c7d2b2347b501aa201f39,5,,,,,,sun,,,,,,0,50,50,33,1,4,0,,,,,,,,,,,,,,,,,,,,,,,,,,,,,,,,,,,,,,,,,,,,,,,,,,,,,,,,,,,,,,,,,
,,,,,,,,,,stimuli/images/PICTURE_314.png,GODS,5ea07a903abacb0452903ef4,22/08/1950,2020-09-12_08h49.13.734,proactive3.2,2020.1.2,Win32,60,5f5adea66120081ea0f57a61,5f5c7d2b2347b501aa201f39,5,,,,,,perfume,,,,,,0,51,51,11,1,2,0,,,,,,,,,,,,,,,,,,,,,,,,,,,,,,,,,,,,,,,,,,,,,,,,,,,,,,,,,,,,,,,,,
,,,,,,,,,,stimuli/images/PICTURE_208.png,MONTH,5ea07a903abacb0452903ef4,22/08/1950,2020-09-12_08h49.13.734,proactive3.2,2020.1.2,Win32,60,5f5adea66120081ea0f57a61,5f5c7d2b2347b501aa201f39,5,,,,,,microphone,,,,,,0,52,52,53,1,6,0,,,,,,,,,,,,,,,,,,,,,,,,,,,,,,,,,,,,,,,,,,,,,,,,,,,,,,,,,,,,,,,,,
,,,,,,,,,,stimuli/images/PICTURE_667.png,BATH,5ea07a903abacb0452903ef4,22/08/1950,2020-09-12_08h49.13.734,proactive3.2,2020.1.2,Win32,60,5f5adea66120081ea0f57a61,5f5c7d2b2347b501aa201f39,5,,,,,,daisy,,,,,,0,53,53,4,1,1,0,,,,,,,,,,,,,,,,,,,,,,,,,,,,,,,,,,,,,,,,,,,,,,,,,,,,,,,,,,,,,,,,,
,,,,,,,,,,stimuli/images/PICTURE_123.png,ADVICE,5ea07a903abacb0452903ef4,22/08/1950,2020-09-12_08h49.13.734,proactive3.2,2020.1.2,Win32,60,5f5adea66120081ea0f57a61,5f5c7d2b2347b501aa201f39,5,,,,,,dart,,,,,,0,54,54,40,1,5,0,,,,,,,,,,,,,,,,,,,,,,,,,,,,,,,,,,,,,,,,,,,,,,,,,,,,,,,,,,,,,,,,,
,,,,,,,,,,stimuli/images/PICTURE_688.png,WOMEN,5ea07a903abacb0452903ef4,22/08/1950,2020-09-12_08h49.13.734,proactive3.2,2020.1.2,Win32,60,5f5adea66120081ea0f57a61,5f5c7d2b2347b501aa201f39,5,,,,,,runner,,,,,,0,55,55,14,1,2,0,,,,,,,,,,,,,,,,,,,,,,,,,,,,,,,,,,,,,,,,,,,,,,,,,,,,,,,,,,,,,,,,,
,,,,,,,,,,stimuli/images/PICTURE_491.png,WRITER,5ea07a903abacb0452903ef4,22/08/1950,2020-09-12_08h49.13.734,proactive3.2,2020.1.2,Win32,60,5f5adea66120081ea0f57a61,5f5c7d2b2347b501aa201f39,5,,,,,,rug,,,,,,0,56,56,57,1,6,0,,,,,,,,,,,,,,,,,,,,,,,,,,,,,,,,,,,,,,,,,,,,,,,,,,,,,,,,,,,,,,,,,
,,,,,,,,,,stimuli/images/PICTURE_314.png,SAKE,5ea07a903abacb0452903ef4,22/08/1950,2020-09-12_08h49.13.734,proactive3.2,2020.1.2,Win32,60,5f5adea66120081ea0f57a61,5f5c7d2b2347b501aa201f39,5,,,,,,perfume,,,,,,0,57,57,7,1,1,0,,,,,,,,,,,,,,,,,,,,,,,,,,,,,,,,,,,,,,,,,,,,,,,,,,,,,,,,,,,,,,,,,
,,,,,,,,,,stimuli/images/PICTURE_68.png,MILE,5ea07a903abacb0452903ef4,22/08/1950,2020-09-12_08h49.13.734,proactive3.2,2020.1.2,Win32,60,5f5adea66120081ea0f57a61,5f5c7d2b2347b501aa201f39,5,,,,,,candle,,,,,,0,58,58,44,1,5,0,,,,,,,,,,,,,,,,,,,,,,,,,,,,,,,,,,,,,,,,,,,,,,,,,,,,,,,,,,,,,,,,,
,,?,0.003,0,,,,,,stimuli/images/PICTURE_308.png,KIND,5ea07a903abacb0452903ef4,22/08/1950,2020-09-12_08h49.13.734,proactive3.2,2020.1.2,Win32,60,5f5adea66120081ea0f57a61,5f5c7d2b2347b501aa201f39,5,,,,,,dice,,,,,,,,,,,6,0,0,0,0,54,1,,,,,,,,,,,,,,,,,,,,,,,,,,,,,,,,,,,,,,,,,,,,,,,,,,,,,,,,,,,,
,,?,0.003,0,,,,,,stimuli/images/PICTURE_380.png,PHOTO,5ea07a903abacb0452903ef4,22/08/1950,2020-09-12_08h49.13.734,proactive3.2,2020.1.2,Win32,60,5f5adea66120081ea0f57a61,5f5c7d2b2347b501aa201f39,5,,,,,,gorilla,,,,,,,,,,,6,0,0,1,1,52,1,,,,,,,,,,,,,,,,,,,,,,,,,,,,,,,,,,,,,,,,,,,,,,,,,,,,,,,,,,,,
,,?,0.007,0,,,,,,stimuli/images/PICTURE_688.png,WOMEN,5ea07a903abacb0452903ef4,22/08/1950,2020-09-12_08h49.13.734,proactive3.2,2020.1.2,Win32,60,5f5adea66120081ea0f57a61,5f5c7d2b2347b501aa201f39,5,,,,,,runner,,,,,,,,,,,2,0,0,2,2,14,1,,,,,,,,,,,,,,,,,,,,,,,,,,,,,,,,,,,,,,,,,,,,,,,,,,,,,,,,,,,,
,,?,15.025,0,,,,,,stimuli/images/PICTURE_123.png,ADVICE,5ea07a903abacb0452903ef4,22/08/1950,2020-09-12_08h49.13.734,proactive3.2,2020.1.2,Win32,60,5f5adea66120081ea0f57a61,5f5c7d2b2347b501aa201f39,5,,,,,,dart,,,,,,,,,,,5,0,0,3,3,40,1,,,,,,,,,,,,,,,,,,,,,,,,,,,,,,,,,,,,,,,,,,,,,,,,,,,,,,,,,,,,
,,THING,5.783,1,,,,,,stimuli/images/PICTURE_208.png,THING,5ea07a903abacb0452903ef4,22/08/1950,2020-09-12_08h49.13.734,proactive3.2,2020.1.2,Win32,60,5f5adea66120081ea0f57a61,5f5c7d2b2347b501aa201f39,5,,,,,,microphone,,,,,,,,,,,5,0,0,4,4,47,1,,,,,,,,,,,,,,,,,,,,,,,,,,,,,,,,,,,,,,,,,,,,,,,,,,,,,,,,,,,,
,,?,0.003,0,,,,,,stimuli/images/PICTURE_504.png,BODY,5ea07a903abacb0452903ef4,22/08/1950,2020-09-12_08h49.13.734,proactive3.2,2020.1.2,Win32,60,5f5adea66120081ea0f57a61,5f5c7d2b2347b501aa201f39,5,,,,,,wheel,,,,,,,,,,,1,0,0,5,5,8,1,,,,,,,,,,,,,,,,,,,,,,,,,,,,,,,,,,,,,,,,,,,,,,,,,,,,,,,,,,,,
,,?,0.002,0,,,,,,stimuli/images/PICTURE_688.png,CASINO,5ea07a903abacb0452903ef4,22/08/1950,2020-09-12_08h49.13.734,proactive3.2,2020.1.2,Win32,60,5f5adea66120081ea0f57a61,5f5c7d2b2347b501aa201f39,5,,,,,,runner,,,,,,,,,,,1,0,0,6,6,2,1,,,,,,,,,,,,,,,,,,,,,,,,,,,,,,,,,,,,,,,,,,,,,,,,,,,,,,,,,,,,
,,?,0.002,0,,,,,,stimuli/images/PICTURE_467.png,DEMON,5ea07a903abacb0452903ef4,22/08/1950,2020-09-12_08h49.13.734,proactive3.2,2020.1.2,Win32,60,5f5adea66120081ea0f57a61,5f5c7d2b2347b501aa201f39,5,,,,,,peg,,,,,,,,,,,3,0,0,7,7,23,1,,,,,,,,,,,,,,,,,,,,,,,,,,,,,,,,,,,,,,,,,,,,,,,,,,,,,,,,,,,,
,,ESTATE,4.841,1,,,,,,stimuli/images/PICTURE_308.png,ESTATE,5ea07a903abacb0452903ef4,22/08/1950,2020-09-12_08h49.13.734,proactive3.2,2020.1.2,Win32,60,5f5adea66120081ea0f57a61,5f5c7d2b2347b501aa201f39,5,,,,,,dice,,,,,,,,,,,5,0,0,8,8,46,1,,,,,,,,,,,,,,,,,,,,,,,,,,,,,,,,,,,,,,,,,,,,,,,,,,,,,,,,,,,,
,,?,0.004,0,,,,,,stimuli/images/PICTURE_667.png,BATH,5ea07a903abacb0452903ef4,22/08/1950,2020-09-12_08h49.13.734,proactive3.2,2020.1.2,Win32,60,5f5adea66120081ea0f57a61,5f5c7d2b2347b501aa201f39,5,,,,,,daisy,,,,,,,,,,,1,0,0,9,9,4,1,,,,,,,,,,,,,,,,,,,,,,,,,,,,,,,,,,,,,,,,,,,,,,,,,,,,,,,,,,,,
,,?,0.002,0,,,,,,stimuli/images/PICTURE_708.png,PENNY,5ea07a903abacb0452903ef4,22/08/1950,2020-09-12_08h49.13.734,proactive3.2,2020.1.2,Win32,60,5f5adea66120081ea0f57a61,5f5c7d2b2347b501aa201f39,5,,,,,,monkey,,,,,,,,,,,4,0,0,10,10,31,1,,,,,,,,,,,,,,,,,,,,,,,,,,,,,,,,,,,,,,,,,,,,,,,,,,,,,,,,,,,,
,,?,0.003,0,,,,,,stimuli/images/PICTURE_255.png,AREA,5ea07a903abacb0452903ef4,22/08/1950,2020-09-12_08h49.13.734,proactive3.2,2020.1.2,Win32,60,5f5adea66120081ea0f57a61,5f5c7d2b2347b501aa201f39,5,,,,,,shovel,,,,,,,,,,,3,0,0,11,11,22,1,,,,,,,,,,,,,,,,,,,,,,,,,,,,,,,,,,,,,,,,,,,,,,,,,,,,,,,,,,,,
,,?,0.005,0,,,,,,stimuli/images/PICTURE_177.png,CARS,5ea07a903abacb0452903ef4,22/08/1950,2020-09-12_08h49.13.734,proactive3.2,2020.1.2,Win32,60,5f5adea66120081ea0f57a61,5f5c7d2b2347b501aa201f39,5,,,,,,mushroom,,,,,,,,,,,4,0,0,12,12,35,1,,,,,,,,,,,,,,,,,,,,,,,,,,,,,,,,,,,,,,,,,,,,,,,,,,,,,,,,,,,,
,,?,0.003,0,,,,,,stimuli/images/PICTURE_160.png,FEET,5ea07a903abacb0452903ef4,22/08/1950,2020-09-12_08h49.13.734,proactive3.2,2020.1.2,Win32,60,5f5adea66120081ea0f57a61,5f5c7d2b2347b501aa201f39,5,,,,,,wheelbarrow,,,,,,,,,,,6,0,0,13,13,58,1,,,,,,,,,,,,,,,,,,,,,,,,,,,,,,,,,,,,,,,,,,,,,,,,,,,,,,,,,,,,
,,?,0.003,0,,,,,,stimuli/images/PICTURE_470.png,CASINO,5ea07a903abacb0452903ef4,22/08/1950,2020-09-12_08h49.13.734,proactive3.2,2020.1.2,Win32,60,5f5adea66120081ea0f57a61,5f5c7d2b2347b501aa201f39,5,,,,,,motorbike,,,,,,,,,,,4,0,0,14,14,36,1,,,,,,,,,,,,,,,,,,,,,,,,,,,,,,,,,,,,,,,,,,,,,,,,,,,,,,,,,,,,
,,?,0.003,0,,,,,,stimuli/images/PICTURE_491.png,ROOF,5ea07a903abacb0452903ef4,22/08/1950,2020-09-12_08h49.13.734,proactive3.2,2020.1.2,Win32,60,5f5adea66120081ea0f57a61,5f5c7d2b2347b501aa201f39,5,,,,,,rug,,,,,,,,,,,3,0,0,15,15,24,1,,,,,,,,,,,,,,,,,,,,,,,,,,,,,,,,,,,,,,,,,,,,,,,,,,,,,,,,,,,,
,,?,0.005,0,,,,,,stimuli/images/PICTURE_160.png,LEADER,5ea07a903abacb0452903ef4,22/08/1950,2020-09-12_08h49.13.734,proactive3.2,2020.1.2,Win32,60,5f5adea66120081ea0f57a61,5f5c7d2b2347b501aa201f39,5,,,,,,wheelbarrow,,,,,,,,,,,1,0,0,16,16,3,1,,,,,,,,,,,,,,,,,,,,,,,,,,,,,,,,,,,,,,,,,,,,,,,,,,,,,,,,,,,,
,,?,0.004,0,,,,,,stimuli/images/PICTURE_311.png,FRIEND,5ea07a903abacb0452903ef4,22/08/1950,2020-09-12_08h49.13.734,proactive3.2,2020.1.2,Win32,60,5f5adea66120081ea0f57a61,5f5c7d2b2347b501aa201f39,5,,,,,,razor,,,,,,,,,,,4,0,0,17,17,34,1,,,,,,,,,,,,,,,,,,,,,,,,,,,,,,,,,,,,,,,,,,,,,,,,,,,,,,,,,,,,
,,?,0.004,0,,,,,,stimuli/images/PICTURE_509.png,PHOTO,5ea07a903abacb0452903ef4,22/08/1950,2020-09-12_08h49.13.734,proactive3.2,2020.1.2,Win32,60,5f5adea66120081ea0f57a61,5f5c7d2b2347b501aa201f39,5,,,,,,telephone,,,,,,,,,,,3,0,0,18,18,21,1,,,,,,,,,,,,,,,,,,,,,,,,,,,,,,,,,,,,,,,,,,,,,,,,,,,,,,,,,,,,
,,?,0.003,0,,,,,,stimuli/images/PICTURE_708.png,YARD,5ea07a903abacb0452903ef4,22/08/1950,2020-09-12_08h49.13.734,proactive3.2,2020.1.2,Win32,60,5f5adea66120081ea0f57a61,5f5c7d2b2347b501aa201f39,5,,,,,,monkey,,,,,,,,,,,3,0,0,19,19,29,1,,,,,,,,,,,,,,,,,,,,,,,,,,,,,,,,,,,,,,,,,,,,,,,,,,,,,,,,,,,,
,,?,0.003,0,,,,,,stimuli/images/PICTURE_314.png,GODS,5ea07a903abacb0452903ef4,22/08/1950,2020-09-12_08h49.13.734,proactive3.2,2020.1.2,Win32,60,5f5adea66120081ea0f57a61,5f5c7d2b2347b501aa201f39,5,,,,,,perfume,,,,,,,,,,,2,0,0,20,20,11,1,,,,,,,,,,,,,,,,,,,,,,,,,,,,,,,,,,,,,,,,,,,,,,,,,,,,,,,,,,,,
,,?,0.004,0,,,,,,stimuli/images/PICTURE_356.png,DANGER,5ea07a903abacb0452903ef4,22/08/1950,2020-09-12_08h49.13.734,proactive3.2,2020.1.2,Win32,60,5f5adea66120081ea0f57a61,5f5c7d2b2347b501aa201f39,5,,,,,,pawn,,,,,,,,,,,6,0,0,21,21,55,1,,,,,,,,,,,,,,,,,,,,,,,,,,,,,,,,,,,,,,,,,,,,,,,,,,,,,,,,,,,,
,,?,0.004,0,,,,,,stimuli/images/PICTURE_311.png,BEAUTY,5ea07a903abacb0452903ef4,22/08/1950,2020-09-12_08h49.13.734,proactive3.2,2020.1.2,Win32,60,5f5adea66120081ea0f57a61,5f5c7d2b2347b501aa201f39,5,,,,,,razor,,,,,,,,,,,2,0,0,22,22,13,1,,,,,,,,,,,,,,,,,,,,,,,,,,,,,,,,,,,,,,,,,,,,,,,,,,,,,,,,,,,,
,,?,0.004,0,,,,,,stimuli/images/PICTURE_285.png,ADVICE,5ea07a903abacb0452903ef4,22/08/1950,2020-09-12_08h49.13.734,proactive3.2,2020.1.2,Win32,60,5f5adea66120081ea0f57a61,5f5c7d2b2347b501aa201f39,5,,,,,,carrot,,,,,,,,,,,2,0,0,23,23,12,1,,,,,,,,,,,,,,,,,,,,,,,,,,,,,,,,,,,,,,,,,,,,,,,,,,,,,,,,,,,,
,,LETTER,6.771,1,,,,,,stimuli/images/PICTURE_469.png,LETTER,5ea07a903abacb0452903ef4,22/08/1950,2020-09-12_08h49.13.734,proactive3.2,2020.1.2,Win32,60,5f5adea66120081ea0f57a61,5f5c7d2b2347b501aa201f39,5,,,,,,stool,,,,,,,,,,,5,0,0,24,24,42,1,,,,,,,,,,,,,,,,,,,,,,,,,,,,,,,,,,,,,,,,,,,,,,,,,,,,,,,,,,,,
,,?,0.004,0,,,,,,stimuli/images/PICTURE_208.png,MONTH,5ea07a903abacb0452903ef4,22/08/1950,2020-09-12_08h49.13.734,proactive3.2,2020.1.2,Win32,60,5f5adea66120081ea0f57a61,5f5c7d2b2347b501aa201f39,5,,,,,,microphone,,,,,,,,,,,6,0,0,25,25,53,1,,,,,,,,,,,,,,,,,,,,,,,,,,,,,,,,,,,,,,,,,,,,,,,,,,,,,,,,,,,,
