consent_key.keys,consent_key.rt,recalled,recalled_rt,recall_acc,example_recall.thisRepN,example_recall.thisTrialN,example_recall.thisN,example_recall.thisIndex,example_recall.ran,file,word,participant,please enter your date of birth (dd/mm/yyyy),date,expName,psychopyVersion,OS,frameRate,STUDY_ID,SESSION_ID,list,prac_learn_study_loop.thisRepN,prac_learn_study_loop.thisTrialN,prac_learn_study_loop.thisN,prac_learn_study_loop.thisIndex,prac_learn_study_loop.ran,image,prac_learn_test_loop.thisRepN,prac_learn_test_loop.thisTrialN,prac_learn_test_loop.thisN,prac_learn_test_loop.thisIndex,prac_learn_test_loop.ran,learn_study_loop.thisRepN,learn_study_loop.thisTrialN,learn_study_loop.thisN,learn_study_loop.thisIndex,learn_study_loop.ran,list_no,block_no,learn_test_loop.thisRepN,learn_test_loop.thisTrialN,learn_test_loop.thisN,learn_test_loop.thisIndex,learn_test_loop.ran,learn_blocks.thisRepN,learn_blocks.thisTrialN,learn_blocks.thisN,learn_blocks.thisIndex,learn_blocks.ran,block_csv,key_resp_13.keys,key_resp_13.rt,learn_blocks_loop.thisRepN,learn_blocks_loop.thisTrialN,learn_blocks_loop.thisN,learn_blocks_loop.thisIndex,learn_blocks_loop.ran,final_learn_test.thisRepN,final_learn_test.thisTrialN,final_learn_test.thisN,final_learn_test.thisIndex,final_learn_test.ran,prac_wm_test_loop.thisRepN,prac_wm_test_loop.thisTrialN,prac_wm_test_loop.thisN,prac_wm_test_loop.thisIndex,prac_wm_test_loop.ran,wm_recalled1,wm_recall_rt1,wm_probed1,wm_recall_acc1,wm_recalled2,wm_recall_rt2,wm_probed2,wm_recall_acc2,wm_recalled3,wm_recall_rt3,wm_probed3,wm_recall_acc3,wm_recalled4,wm_recall_rt4,wm_probed4,wm_recall_acc4,prac_wm_trial_loop.thisRepN,prac_wm_trial_loop.thisTrialN,prac_wm_trial_loop.thisN,prac_wm_trial_loop.thisIndex,prac_wm_trial_loop.ran,word1,image1,file1,item_type1,word2,image2,file2,item_type2,word4,image4,file4,item_type4,word3,image3,file3,item_type3,wm_test_loop.thisRepN,wm_test_loop.thisTrialN,wm_test_loop.thisN,wm_test_loop.thisIndex,wm_test_loop.ran,wm_trial_loop.thisRepN,wm_trial_loop.thisTrialN,wm_trial_loop.thisN,wm_trial_loop.thisIndex,wm_trial_loop.ran
y,27.193055,TOUGH,15.010305,1,0,0,0,0,1,stimuli/images/PICTURE_747.png,TOUGH,5ea04f7cbe679a07850012ce,5ea04f7cbe679a07850012,2020-09-12_10h22.56.003,proactive3.2,2020.1.2,Win32,60,5f5adea66120081ea0f57a61,5f5c9284f58e6648422eafaf,4,,,,,,,,,,,,,,,,,,,,,,,,,,,,,,,,,,,,,,,,,,,,,,,,,,,,,,,,,,,,,,,,,,,,,,,,,,,,,,,,,,,,,,,,,,,,,
,,,,,,,,,,stimuli/images/PICTURE_727.png,CELL,5ea04f7cbe679a07850012ce,5ea04f7cbe679a07850012,2020-09-12_10h22.56.003,proactive3.2,2020.1.2,Win32,60,5f5adea66120081ea0f57a61,5f5c9284f58e6648422eafaf,4,0,0,0,1,1,hose,,,,,,,,,,,,,,,,,,,,,,,,,,,,,,,,,,,,,,,,,,,,,,,,,,,,,,,,,,,,,,,,,,,,,,,,,,,,,,,,,,,,,,,
,,,,,,,,,,stimuli/images/PICTURE_658.png,DEVIL,5ea04f7cbe679a07850012ce,5ea04f7cbe679a07850012,2020-09-12_10h22.56.003,proactive3.2,2020.1.2,Win32,60,5f5adea66120081ea0f57a61,5f5c9284f58e6648422eafaf,4,0,1,1,3,1,crow,,,,,,,,,,,,,,,,,,,,,,,,,,,,,,,,,,,,,,,,,,,,,,,,,,,,,,,,,,,,,,,,,,,,,,,,,,,,,,,,,,,,,,,
,,,,,,,,,,stimuli/images/PICTURE_697.png,KILLER,5ea04f7cbe679a07850012ce,5ea04f7cbe679a07850012,2020-09-12_10h22.56.003,proactive3.2,2020.1.2,Win32,60,5f5adea66120081ea0f57a61,5f5c9284f58e6648422eafaf,4,0,2,2,4,1,peach,,,,,,,,,,,,,,,,,,,,,,,,,,,,,,,,,,,,,,,,,,,,,,,,,,,,,,,,,,,,,,,,,,,,,,,,,,,,,,,,,,,,,,,
,,,,,,,,,,stimuli/images/PICTURE_269.png,GENIUS,5ea04f7cbe679a07850012ce,5ea04f7cbe679a07850012,2020-09-12_10h22.56.003,proactive3.2,2020.1.2,Win32,60,5f5adea66120081ea0f57a61,5f5c9284f58e6648422eafaf,4,0,3,3,0,1,chameleon,,,,,,,,,,,,,,,,,,,,,,,,,,,,,,,,,,,,,,,,,,,,,,,,,,,,,,,,,,,,,,,,,,,,,,,,,,,,,,,,,,,,,,,
,,CELL,15.011965,0,,,,,,stimuli/images/PICTURE_378.png,LOSS,5ea04f7cbe679a07850012ce,5ea04f7cbe679a07850012,2020-09-12_10h22.56.003,proactive3.2,2020.1.2,Win32,60,5f5adea66120081ea0f57a61,5f5c9284f58e6648422eafaf,4,,,,,,lobster,0,0,0,2,1,,,,,,,,,,,,,,,,,,,,,,,,,,,,,,,,,,,,,,,,,,,,,,,,,,,,,,,,,,,,,,,,,,,,,,,,,,,,,,,,,,
,,GENIUS,15.012495,0,,,,,,stimuli/images/PICTURE_697.png,KILLER,5ea04f7cbe679a07850012ce,5ea04f7cbe679a07850012,2020-09-12_10h22.56.003,proactive3.2,2020.1.2,Win32,60,5f5adea66120081ea0f57a61,5f5c9284f58e6648422eafaf,4,,,,,,peach,0,1,1,4,1,,,,,,,,,,,,,,,,,,,,,,,,,,,,,,,,,,,,,,,,,,,,,,,,,,,,,,,,,,,,,,,,,,,,,,,,,,,,,,,,,,
,,CELL,15.013195,1,,,,,,stimuli/images/PICTURE_727.png,CELL,5ea04f7cbe679a07850012ce,5ea04f7cbe679a07850012,2020-09-12_10h22.56.003,proactive3.2,2020.1.2,Win32,60,5f5adea66120081ea0f57a61,5f5c9284f58e6648422eafaf,4,,,,,,hose,0,2,2,1,1,,,,,,,,,,,,,,,,,,,,,,,,,,,,,,,,,,,,,,,,,,,,,,,,,,,,,,,,,,,,,,,,,,,,,,,,,,,,,,,,,,
,,LOSS,15.012075,0,,,,,,stimuli/images/PICTURE_269.png,GENIUS,5ea04f7cbe679a07850012ce,5ea04f7cbe679a07850012,2020-09-12_10h22.56.003,proactive3.2,2020.1.2,Win32,60,5f5adea66120081ea0f57a61,5f5c9284f58e6648422eafaf,4,,,,,,chameleon,0,3,3,0,1,,,,,,,,,,,,,,,,,,,,,,,,,,,,,,,,,,,,,,,,,,,,,,,,,,,,,,,,,,,,,,,,,,,,,,,,,,,,,,,,,,
,,KILLER,15.01038,0,,,,,,stimuli/images/PICTURE_658.png,DEVIL,5ea04f7cbe679a07850012ce,5ea04f7cbe679a07850012,2020-09-12_10h22.56.003,proactive3.2,2020.1.2,Win32,60,5f5adea66120081ea0f57a61,5f5c9284f58e6648422eafaf,4,,,,,,crow,0,4,4,3,1,,,,,,,,,,,,,,,,,,,,,,,,,,,,,,,,,,,,,,,,,,,,,,,,,,,,,,,,,,,,,,,,,,,,,,,,,,,,,,,,,,
,,,,,,,,,,stimuli/images/PICTURE_68.png,MILE,5ea04f7cbe679a07850012ce,5ea04f7cbe679a07850012,2020-09-12_10h22.56.003,proactive3.2,2020.1.2,Win32,60,5f5adea66120081ea0f57a61,5f5c9284f58e6648422eafaf,4,,,,,,candle,,,,,,0,0,0,51,1,6,1,,,,,,,,,,,,,,,,,,,,,,,,,,,,,,,,,,,,,,,,,,,,,,,,,,,,,,,,,,,,,,,,,,,,,,,,,,,
,,,,,,,,,,stimuli/images/PICTURE_327.png,CASINO,5ea04f7cbe679a07850012ce,5ea04f7cbe679a07850012,2020-09-12_10h22.56.003,proactive3.2,2020.1.2,Win32,60,5f5adea66120081ea0f57a61,5f5c9284f58e6648422eafaf,4,,,,,,helmet,,,,,,0,1,1,20,1,3,1,,,,,,,,,,,,,,,,,,,,,,,,,,,,,,,,,,,,,,,,,,,,,,,,,,,,,,,,,,,,,,,,,,,,,,,,,,,
,,,,,,,,,,stimuli/images/PICTURE_95.png,MILLER,5ea04f7cbe679a07850012ce,5ea04f7cbe679a07850012,2020-09-12_10h22.56.003,proactive3.2,2020.1.2,Win32,60,5f5adea66120081ea0f57a61,5f5c9284f58e6648422eafaf,4,,,,,,suitcase,,,,,,0,2,2,56,1,6,1,,,,,,,,,,,,,,,,,,,,,,,,,,,,,,,,,,,,,,,,,,,,,,,,,,,,,,,,,,,,,,,,,,,,,,,,,,,
,,,,,,,,,,stimuli/images/PICTURE_405.png,PLENTY,5ea04f7cbe679a07850012ce,5ea04f7cbe679a07850012,2020-09-12_10h22.56.003,proactive3.2,2020.1.2,Win32,60,5f5adea66120081ea0f57a61,5f5c9284f58e6648422eafaf,4,,,,,,anchor,,,,,,0,3,3,23,1,3,1,,,,,,,,,,,,,,,,,,,,,,,,,,,,,,,,,,,,,,,,,,,,,,,,,,,,,,,,,,,,,,,,,,,,,,,,,,,
,,,,,,,,,,stimuli/images/PICTURE_744.png,WEAPON,5ea04f7cbe679a07850012ce,5ea04f7cbe679a07850012,2020-09-12_10h22.56.003,proactive3.2,2020.1.2,Win32,60,5f5adea66120081ea0f57a61,5f5c9284f58e6648422eafaf,4,,,,,,ring,,,,,,0,4,4,50,1,6,1,,,,,,,,,,,,,,,,,,,,,,,,,,,,,,,,,,,,,,,,,,,,,,,,,,,,,,,,,,,,,,,,,,,,,,,,,,,
,,,,,,,,,,stimuli/images/PICTURE_504.png,YEAR,5ea04f7cbe679a07850012ce,5ea04f7cbe679a07850012,2020-09-12_10h22.56.003,proactive3.2,2020.1.2,Win32,60,5f5adea66120081ea0f57a61,5f5c9284f58e6648422eafaf,4,,,,,,wheel,,,,,,0,5,5,13,1,2,1,,,,,,,,,,,,,,,,,,,,,,,,,,,,,,,,,,,,,,,,,,,,,,,,,,,,,,,,,,,,,,,,,,,,,,,,,,,
,,,,,,,,,,stimuli/images/PICTURE_504.png,COPS,5ea04f7cbe679a07850012ce,5ea04f7cbe679a07850012,2020-09-12_10h22.56.003,proactive3.2,2020.1.2,Win32,60,5f5adea66120081ea0f57a61,5f5c9284f58e6648422eafaf,4,,,,,,wheel,,,,,,0,6,6,52,1,6,1,,,,,,,,,,,,,,,,,,,,,,,,,,,,,,,,,,,,,,,,,,,,,,,,,,,,,,,,,,,,,,,,,,,,,,,,,,,
,,,,,,,,,,stimuli/images/PICTURE_383.png,WRITER,5ea04f7cbe679a07850012ce,5ea04f7cbe679a07850012,2020-09-12_10h22.56.003,proactive3.2,2020.1.2,Win32,60,5f5adea66120081ea0f57a61,5f5c9284f58e6648422eafaf,4,,,,,,coin,,,,,,0,7,7,28,1,3,1,,,,,,,,,,,,,,,,,,,,,,,,,,,,,,,,,,,,,,,,,,,,,,,,,,,,,,,,,,,,,,,,,,,,,,,,,,,
,,,,,,,,,,stimuli/images/PICTURE_405.png,YEAR,5ea04f7cbe679a07850012ce,5ea04f7cbe679a07850012,2020-09-12_10h22.56.003,proactive3.2,2020.1.2,Win32,60,5f5adea66120081ea0f57a61,5f5c9284f58e6648422eafaf,4,,,,,,anchor,,,,,,0,8,8,34,1,4,1,,,,,,,,,,,,,,,,,,,,,,,,,,,,,,,,,,,,,,,,,,,,,,,,,,,,,,,,,,,,,,,,,,,,,,,,,,,
,,,,,,,,,,stimuli/images/PICTURE_85.png,TOILET,5ea04f7cbe679a07850012ce,5ea04f7cbe679a07850012,2020-09-12_10h22.56.003,proactive3.2,2020.1.2,Win32,60,5f5adea66120081ea0f57a61,5f5c9284f58e6648422eafaf,4,,,,,,diamond,,,,,,0,9,9,48,1,5,1,,,,,,,,,,,,,,,,,,,,,,,,,,,,,,,,,,,,,,,,,,,,,,,,,,,,,,,,,,,,,,,,,,,,,,,,,,,
,,,,,,,,,,stimuli/images/PICTURE_403.png,WRITER,5ea04f7cbe679a07850012ce,5ea04f7cbe679a07850012,2020-09-12_10h22.56.003,proactive3.2,2020.1.2,Win32,60,5f5adea66120081ea0f57a61,5f5c9284f58e6648422eafaf,4,,,,,,cathedral,,,,,,0,10,10,31,1,4,1,,,,,,,,,,,,,,,,,,,,,,,,,,,,,,,,,,,,,,,,,,,,,,,,,,,,,,,,,,,,,,,,,,,,,,,,,,,
,,,,,,,,,,stimuli/images/PICTURE_296.png,LIFE,5ea04f7cbe679a07850012ce,5ea04f7cbe679a07850012,2020-09-12_10h22.56.003,proactive3.2,2020.1.2,Win32,60,5f5adea66120081ea0f57a61,5f5c9284f58e6648422eafaf,4,,,,,,bolt,,,,,,0,11,11,57,1,6,1,,,,,,,,,,,,,,,,,,,,,,,,,,,,,,,,,,,,,,,,,,,,,,,,,,,,,,,,,,,,,,,,,,,,,,,,,,,
,,,,,,,,,,stimuli/images/PICTURE_203.png,GODS,5ea04f7cbe679a07850012ce,5ea04f7cbe679a07850012,2020-09-12_10h22.56.003,proactive3.2,2020.1.2,Win32,60,5f5adea66120081ea0f57a61,5f5c9284f58e6648422eafaf,4,,,,,,cap,,,,,,0,12,12,30,1,4,1,,,,,,,,,,,,,,,,,,,,,,,,,,,,,,,,,,,,,,,,,,,,,,,,,,,,,,,,,,,,,,,,,,,,,,,,,,,
,,,,,,,,,,stimuli/images/PICTURE_380.png,HONEY,5ea04f7cbe679a07850012ce,5ea04f7cbe679a07850012,2020-09-12_10h22.56.003,proactive3.2,2020.1.2,Win32,60,5f5adea66120081ea0f57a61,5f5c9284f58e6648422eafaf,4,,,,,,gorilla,,,,,,0,13,13,19,1,2,1,,,,,,,,,,,,,,,,,,,,,,,,,,,,,,,,,,,,,,,,,,,,,,,,,,,,,,,,,,,,,,,,,,,,,,,,,,,
,,,,,,,,,,stimuli/images/PICTURE_203.png,NIGHT,5ea04f7cbe679a07850012ce,5ea04f7cbe679a07850012,2020-09-12_10h22.56.003,proactive3.2,2020.1.2,Win32,60,5f5adea66120081ea0f57a61,5f5c9284f58e6648422eafaf,4,,,,,,cap,,,,,,0,14,14,2,1,1,1,,,,,,,,,,,,,,,,,,,,,,,,,,,,,,,,,,,,,,,,,,,,,,,,,,,,,,,,,,,,,,,,,,,,,,,,,,,
,,,,,,,,,,stimuli/images/PICTURE_403.png,TOILET,5ea04f7cbe679a07850012ce,5ea04f7cbe679a07850012,2020-09-12_10h22.56.003,proactive3.2,2020.1.2,Win32,60,5f5adea66120081ea0f57a61,5f5c9284f58e6648422eafaf,4,,,,,,cathedral,,,,,,0,15,15,25,1,3,1,,,,,,,,,,,,,,,,,,,,,,,,,,,,,,,,,,,,,,,,,,,,,,,,,,,,,,,,,,,,,,,,,,,,,,,,,,,
,,,,,,,,,,stimuli/images/PICTURE_685.png,PENNY,5ea04f7cbe679a07850012ce,5ea04f7cbe679a07850012,2020-09-12_10h22.56.003,proactive3.2,2020.1.2,Win32,60,5f5adea66120081ea0f57a61,5f5c9284f58e6648422eafaf,4,,,,,,goose,,,,,,0,16,16,4,1,1,1,,,,,,,,,,,,,,,,,,,,,,,,,,,,,,,,,,,,,,,,,,,,,,,,,,,,,,,,,,,,,,,,,,,,,,,,,,,
,,,,,,,,,,stimuli/images/PICTURE_469.png,AGENT,5ea04f7cbe679a07850012ce,5ea04f7cbe679a07850012,2020-09-12_10h22.56.003,proactive3.2,2020.1.2,Win32,60,5f5adea66120081ea0f57a61,5f5c9284f58e6648422eafaf,4,,,,,,stool,,,,,,0,17,17,16,1,2,1,,,,,,,,,,,,,,,,,,,,,,,,,,,,,,,,,,,,,,,,,,,,,,,,,,,,,,,,,,,,,,,,,,,,,,,,,,,
,,,,,,,,,,stimuli/images/PICTURE_449.png,DUDE,5ea04f7cbe679a07850012ce,5ea04f7cbe679a07850012,2020-09-12_10h22.56.003,proactive3.2,2020.1.2,Win32,60,5f5adea66120081ea0f57a61,5f5c9284f58e6648422eafaf,4,,,,,,bench,,,,,,0,18,18,17,1,2,1,,,,,,,,,,,,,,,,,,,,,,,,,,,,,,,,,,,,,,,,,,,,,,,,,,,,,,,,,,,,,,,,,,,,,,,,,,,
,,,,,,,,,,stimuli/images/PICTURE_57.png,MOMENT,5ea04f7cbe679a07850012ce,5ea04f7cbe679a07850012,2020-09-12_10h22.56.003,proactive3.2,2020.1.2,Win32,60,5f5adea66120081ea0f57a61,5f5c9284f58e6648422eafaf,4,,,,,,stamp,,,,,,0,19,19,37,1,4,1,,,,,,,,,,,,,,,,,,,,,,,,,,,,,,,,,,,,,,,,,,,,,,,,,,,,,,,,,,,,,,,,,,,,,,,,,,,
,,,,,,,,,,stimuli/images/PICTURE_340.png,LETTER,5ea04f7cbe679a07850012ce,5ea04f7cbe679a07850012,2020-09-12_10h22.56.003,proactive3.2,2020.1.2,Win32,60,5f5adea66120081ea0f57a61,5f5c9284f58e6648422eafaf,4,,,,,,mirror,,,,,,0,20,20,24,1,3,1,,,,,,,,,,,,,,,,,,,,,,,,,,,,,,,,,,,,,,,,,,,,,,,,,,,,,,,,,,,,,,,,,,,,,,,,,,,
,,,,,,,,,,stimuli/images/PICTURE_95.png,BOYS,5ea04f7cbe679a07850012ce,5ea04f7cbe679a07850012,2020-09-12_10h22.56.003,proactive3.2,2020.1.2,Win32,60,5f5adea66120081ea0f57a61,5f5c9284f58e6648422eafaf,4,,,,,,suitcase,,,,,,0,21,21,1,1,1,1,,,,,,,,,,,,,,,,,,,,,,,,,,,,,,,,,,,,,,,,,,,,,,,,,,,,,,,,,,,,,,,,,,,,,,,,,,,
,,,,,,,,,,stimuli/images/PICTURE_177.png,WRITER,5ea04f7cbe679a07850012ce,5ea04f7cbe679a07850012,2020-09-12_10h22.56.003,proactive3.2,2020.1.2,Win32,60,5f5adea66120081ea0f57a61,5f5c9284f58e6648422eafaf,4,,,,,,mushroom,,,,,,0,22,22,41,1,5,1,,,,,,,,,,,,,,,,,,,,,,,,,,,,,,,,,,,,,,,,,,,,,,,,,,,,,,,,,,,,,,,,,,,,,,,,,,,
,,,,,,,,,,stimuli/images/PICTURE_403.png,RIVER,5ea04f7cbe679a07850012ce,5ea04f7cbe679a07850012,2020-09-12_10h22.56.003,proactive3.2,2020.1.2,Win32,60,5f5adea66120081ea0f57a61,5f5c9284f58e6648422eafaf,4,,,,,,cathedral,,,,,,0,23,23,40,1,5,1,,,,,,,,,,,,,,,,,,,,,,,,,,,,,,,,,,,,,,,,,,,,,,,,,,,,,,,,,,,,,,,,,,,,,,,,,,,
,,,,,,,,,,stimuli/images/PICTURE_297.png,RIVER,5ea04f7cbe679a07850012ce,5ea04f7cbe679a07850012,2020-09-12_10h22.56.003,proactive3.2,2020.1.2,Win32,60,5f5adea66120081ea0f57a61,5f5c9284f58e6648422eafaf,4,,,,,,aeroplane,,,,,,0,24,24,39,1,4,1,,,,,,,,,,,,,,,,,,,,,,,,,,,,,,,,,,,,,,,,,,,,,,,,,,,,,,,,,,,,,,,,,,,,,,,,,,,
,,,,,,,,,,stimuli/images/PICTURE_32.png,KIND,5ea04f7cbe679a07850012ce,5ea04f7cbe679a07850012,2020-09-12_10h22.56.003,proactive3.2,2020.1.2,Win32,60,5f5adea66120081ea0f57a61,5f5c9284f58e6648422eafaf,4,,,,,,crown,,,,,,0,25,25,35,1,4,1,,,,,,,,,,,,,,,,,,,,,,,,,,,,,,,,,,,,,,,,,,,,,,,,,,,,,,,,,,,,,,,,,,,,,,,,,,,
,,,,,,,,,,stimuli/images/PICTURE_383.png,SERIES,5ea04f7cbe679a07850012ce,5ea04f7cbe679a07850012,2020-09-12_10h22.56.003,proactive3.2,2020.1.2,Win32,60,5f5adea66120081ea0f57a61,5f5c9284f58e6648422eafaf,4,,,,,,coin,,,,,,0,26,26,46,1,5,1,,,,,,,,,,,,,,,,,,,,,,,,,,,,,,,,,,,,,,,,,,,,,,,,,,,,,,,,,,,,,,,,,,,,,,,,,,,
,,,,,,,,,,stimuli/images/PICTURE_68.png,ROOF,5ea04f7cbe679a07850012ce,5ea04f7cbe679a07850012,2020-09-12_10h22.56.003,proactive3.2,2020.1.2,Win32,60,5f5adea66120081ea0f57a61,5f5c9284f58e6648422eafaf,4,,,,,,candle,,,,,,0,27,27,38,1,4,1,,,,,,,,,,,,,,,,,,,,,,,,,,,,,,,,,,,,,,,,,,,,,,,,,,,,,,,,,,,,,,,,,,,,,,,,,,,
,,,,,,,,,,stimuli/images/PICTURE_296.png,LOTS,5ea04f7cbe679a07850012ce,5ea04f7cbe679a07850012,2020-09-12_10h22.56.003,proactive3.2,2020.1.2,Win32,60,5f5adea66120081ea0f57a61,5f5c9284f58e6648422eafaf,4,,,,,,bolt,,,,,,0,28,28,9,1,1,1,,,,,,,,,,,,,,,,,,,,,,,,,,,,,,,,,,,,,,,,,,,,,,,,,,,,,,,,,,,,,,,,,,,,,,,,,,,
,,,,,,,,,,stimuli/images/PICTURE_108.png,FLIGHT,5ea04f7cbe679a07850012ce,5ea04f7cbe679a07850012,2020-09-12_10h22.56.003,proactive3.2,2020.1.2,Win32,60,5f5adea66120081ea0f57a61,5f5c9284f58e6648422eafaf,4,,,,,,calendar,,,,,,0,29,29,59,1,6,1,,,,,,,,,,,,,,,,,,,,,,,,,,,,,,,,,,,,,,,,,,,,,,,,,,,,,,,,,,,,,,,,,,,,,,,,,,,
,,,,,,,,,,stimuli/images/PICTURE_667.png,RIVER,5ea04f7cbe679a07850012ce,5ea04f7cbe679a07850012,2020-09-12_10h22.56.003,proactive3.2,2020.1.2,Win32,60,5f5adea66120081ea0f57a61,5f5c9284f58e6648422eafaf,4,,,,,,daisy,,,,,,0,30,30,10,1,2,1,,,,,,,,,,,,,,,,,,,,,,,,,,,,,,,,,,,,,,,,,,,,,,,,,,,,,,,,,,,,,,,,,,,,,,,,,,,
,,,,,,,,,,stimuli/images/PICTURE_467.png,POLICY,5ea04f7cbe679a07850012ce,5ea04f7cbe679a07850012,2020-09-12_10h22.56.003,proactive3.2,2020.1.2,Win32,60,5f5adea66120081ea0f57a61,5f5c9284f58e6648422eafaf,4,,,,,,peg,,,,,,0,31,31,53,1,6,1,,,,,,,,,,,,,,,,,,,,,,,,,,,,,,,,,,,,,,,,,,,,,,,,,,,,,,,,,,,,,,,,,,,,,,,,,,,
,,,,,,,,,,stimuli/images/PICTURE_233.png,LOTS,5ea04f7cbe679a07850012ce,5ea04f7cbe679a07850012,2020-09-12_10h22.56.003,proactive3.2,2020.1.2,Win32,60,5f5adea66120081ea0f57a61,5f5c9284f58e6648422eafaf,4,,,,,,salt,,,,,,0,32,32,42,1,5,1,,,,,,,,,,,,,,,,,,,,,,,,,,,,,,,,,,,,,,,,,,,,,,,,,,,,,,,,,,,,,,,,,,,,,,,,,,,
,,,,,,,,,,stimuli/images/PICTURE_108.png,POLICY,5ea04f7cbe679a07850012ce,5ea04f7cbe679a07850012,2020-09-12_10h22.56.003,proactive3.2,2020.1.2,Win32,60,5f5adea66120081ea0f57a61,5f5c9284f58e6648422eafaf,4,,,,,,calendar,,,,,,0,33,33,22,1,3,1,,,,,,,,,,,,,,,,,,,,,,,,,,,,,,,,,,,,,,,,,,,,,,,,,,,,,,,,,,,,,,,,,,,,,,,,,,,
,,,,,,,,,,stimuli/images/PICTURE_655.png,TOILET,5ea04f7cbe679a07850012ce,5ea04f7cbe679a07850012,2020-09-12_10h22.56.003,proactive3.2,2020.1.2,Win32,60,5f5adea66120081ea0f57a61,5f5c9284f58e6648422eafaf,4,,,,,,megaphone,,,,,,0,34,34,12,1,2,1,,,,,,,,,,,,,,,,,,,,,,,,,,,,,,,,,,,,,,,,,,,,,,,,,,,,,,,,,,,,,,,,,,,,,,,,,,,
,,,,,,,,,,stimuli/images/PICTURE_675.png,SALE,5ea04f7cbe679a07850012ce,5ea04f7cbe679a07850012,2020-09-12_10h22.56.003,proactive3.2,2020.1.2,Win32,60,5f5adea66120081ea0f57a61,5f5c9284f58e6648422eafaf,4,,,,,,windmill,,,,,,0,35,35,47,1,5,1,,,,,,,,,,,,,,,,,,,,,,,,,,,,,,,,,,,,,,,,,,,,,,,,,,,,,,,,,,,,,,,,,,,,,,,,,,,
,,,,,,,,,,stimuli/images/PICTURE_147.png,WOMEN,5ea04f7cbe679a07850012ce,5ea04f7cbe679a07850012,2020-09-12_10h22.56.003,proactive3.2,2020.1.2,Win32,60,5f5adea66120081ea0f57a61,5f5c9284f58e6648422eafaf,4,,,,,,hanger,,,,,,0,36,36,7,1,1,1,,,,,,,,,,,,,,,,,,,,,,,,,,,,,,,,,,,,,,,,,,,,,,,,,,,,,,,,,,,,,,,,,,,,,,,,,,,
,,,,,,,,,,stimuli/images/PICTURE_85.png,NATION,5ea04f7cbe679a07850012ce,5ea04f7cbe679a07850012,2020-09-12_10h22.56.003,proactive3.2,2020.1.2,Win32,60,5f5adea66120081ea0f57a61,5f5c9284f58e6648422eafaf,4,,,,,,diamond,,,,,,0,37,37,5,1,1,1,,,,,,,,,,,,,,,,,,,,,,,,,,,,,,,,,,,,,,,,,,,,,,,,,,,,,,,,,,,,,,,,,,,,,,,,,,,
,,,,,,,,,,stimuli/images/PICTURE_95.png,HONEY,5ea04f7cbe679a07850012ce,5ea04f7cbe679a07850012,2020-09-12_10h22.56.003,proactive3.2,2020.1.2,Win32,60,5f5adea66120081ea0f57a61,5f5c9284f58e6648422eafaf,4,,,,,,suitcase,,,,,,0,38,38,44,1,5,1,,,,,,,,,,,,,,,,,,,,,,,,,,,,,,,,,,,,,,,,,,,,,,,,,,,,,,,,,,,,,,,,,,,,,,,,,,,
,,,,,,,,,,stimuli/images/PICTURE_339.png,CLIENT,5ea04f7cbe679a07850012ce,5ea04f7cbe679a07850012,2020-09-12_10h22.56.003,proactive3.2,2020.1.2,Win32,60,5f5adea66120081ea0f57a61,5f5c9284f58e6648422eafaf,4,,,,,,backpack,,,,,,0,39,39,11,1,2,1,,,,,,,,,,,,,,,,,,,,,,,,,,,,,,,,,,,,,,,,,,,,,,,,,,,,,,,,,,,,,,,,,,,,,,,,,,,
,,,,,,,,,,stimuli/images/PICTURE_491.png,RIVER,5ea04f7cbe679a07850012ce,5ea04f7cbe679a07850012,2020-09-12_10h22.56.003,proactive3.2,2020.1.2,Win32,60,5f5adea66120081ea0f57a61,5f5c9284f58e6648422eafaf,4,,,,,,rug,,,,,,0,40,40,6,1,1,1,,,,,,,,,,,,,,,,,,,,,,,,,,,,,,,,,,,,,,,,,,,,,,,,,,,,,,,,,,,,,,,,,,,,,,,,,,,
,,,,,,,,,,stimuli/images/PICTURE_285.png,LIFE,5ea04f7cbe679a07850012ce,5ea04f7cbe679a07850012,2020-09-12_10h22.56.003,proactive3.2,2020.1.2,Win32,60,5f5adea66120081ea0f57a61,5f5c9284f58e6648422eafaf,4,,,,,,carrot,,,,,,0,41,41,33,1,4,1,,,,,,,,,,,,,,,,,,,,,,,,,,,,,,,,,,,,,,,,,,,,,,,,,,,,,,,,,,,,,,,,,,,,,,,,,,,
,,,,,,,,,,stimuli/images/PICTURE_327.png,SERIES,5ea04f7cbe679a07850012ce,5ea04f7cbe679a07850012,2020-09-12_10h22.56.003,proactive3.2,2020.1.2,Win32,60,5f5adea66120081ea0f57a61,5f5c9284f58e6648422eafaf,4,,,,,,helmet,,,,,,0,42,42,3,1,1,1,,,,,,,,,,,,,,,,,,,,,,,,,,,,,,,,,,,,,,,,,,,,,,,,,,,,,,,,,,,,,,,,,,,,,,,,,,,
,,,,,,,,,,stimuli/images/PICTURE_750.png,HOTEL,5ea04f7cbe679a07850012ce,5ea04f7cbe679a07850012,2020-09-12_10h22.56.003,proactive3.2,2020.1.2,Win32,60,5f5adea66120081ea0f57a61,5f5c9284f58e6648422eafaf,4,,,,,,kettle,,,,,,0,43,43,27,1,3,1,,,,,,,,,,,,,,,,,,,,,,,,,,,,,,,,,,,,,,,,,,,,,,,,,,,,,,,,,,,,,,,,,,,,,,,,,,,
,,,,,,,,,,stimuli/images/PICTURE_42.png,BOYS,5ea04f7cbe679a07850012ce,5ea04f7cbe679a07850012,2020-09-12_10h22.56.003,proactive3.2,2020.1.2,Win32,60,5f5adea66120081ea0f57a61,5f5c9284f58e6648422eafaf,4,,,,,,pear,,,,,,0,44,44,55,1,6,1,,,,,,,,,,,,,,,,,,,,,,,,,,,,,,,,,,,,,,,,,,,,,,,,,,,,,,,,,,,,,,,,,,,,,,,,,,,
,,,,,,,,,,stimuli/images/PICTURE_654.png,MONTH,5ea04f7cbe679a07850012ce,5ea04f7cbe679a07850012,2020-09-12_10h22.56.003,proactive3.2,2020.1.2,Win32,60,5f5adea66120081ea0f57a61,5f5c9284f58e6648422eafaf,4,,,,,,pencil,,,,,,0,45,45,29,1,3,1,,,,,,,,,,,,,,,,,,,,,,,,,,,,,,,,,,,,,,,,,,,,,,,,,,,,,,,,,,,,,,,,,,,,,,,,,,,
,,,,,,,,,,stimuli/images/PICTURE_491.png,GLASS,5ea04f7cbe679a07850012ce,5ea04f7cbe679a07850012,2020-09-12_10h22.56.003,proactive3.2,2020.1.2,Win32,60,5f5adea66120081ea0f57a61,5f5c9284f58e6648422eafaf,4,,,,,,rug,,,,,,0,46,46,14,1,2,1,,,,,,,,,,,,,,,,,,,,,,,,,,,,,,,,,,,,,,,,,,,,,,,,,,,,,,,,,,,,,,,,,,,,,,,,,,,
,,,,,,,,,,stimuli/images/PICTURE_2.png,FLIGHT,5ea04f7cbe679a07850012ce,5ea04f7cbe679a07850012,2020-09-12_10h22.56.003,proactive3.2,2020.1.2,Win32,60,5f5adea66120081ea0f57a61,5f5c9284f58e6648422eafaf,4,,,,,,tyre,,,,,,0,47,47,15,1,2,1,,,,,,,,,,,,,,,,,,,,,,,,,,,,,,,,,,,,,,,,,,,,,,,,,,,,,,,,,,,,,,,,,,,,,,,,,,,
,,,,,,,,,,stimuli/images/PICTURE_147.png,YEAR,5ea04f7cbe679a07850012ce,5ea04f7cbe679a07850012,2020-09-12_10h22.56.003,proactive3.2,2020.1.2,Win32,60,5f5adea66120081ea0f57a61,5f5c9284f58e6648422eafaf,4,,,,,,hanger,,,,,,0,48,48,21,1,3,1,,,,,,,,,,,,,,,,,,,,,,,,,,,,,,,,,,,,,,,,,,,,,,,,,,,,,,,,,,,,,,,,,,,,,,,,,,,
,,,,,,,,,,stimuli/images/PICTURE_487.png,GIRL,5ea04f7cbe679a07850012ce,5ea04f7cbe679a07850012,2020-09-12_10h22.56.003,proactive3.2,2020.1.2,Win32,60,5f5adea66120081ea0f57a61,5f5c9284f58e6648422eafaf,4,,,,,,basket,,,,,,0,49,49,45,1,5,1,,,,,,,,,,,,,,,,,,,,,,,,,,,,,,,,,,,,,,,,,,,,,,,,,,,,,,,,,,,,,,,,,,,,,,,,,,,
,,,,,,,,,,stimuli/images/PICTURE_708.png,RECORD,5ea04f7cbe679a07850012ce,5ea04f7cbe679a07850012,2020-09-12_10h22.56.003,proactive3.2,2020.1.2,Win32,60,5f5adea66120081ea0f57a61,5f5c9284f58e6648422eafaf,4,,,,,,monkey,,,,,,0,50,50,58,1,6,1,,,,,,,,,,,,,,,,,,,,,,,,,,,,,,,,,,,,,,,,,,,,,,,,,,,,,,,,,,,,,,,,,,,,,,,,,,,
,,,,,,,,,,stimuli/images/PICTURE_208.png,SYSTEM,5ea04f7cbe679a07850012ce,5ea04f7cbe679a07850012,2020-09-12_10h22.56.003,proactive3.2,2020.1.2,Win32,60,5f5adea66120081ea0f57a61,5f5c9284f58e6648422eafaf,4,,,,,,microphone,,,,,,0,51,51,32,1,4,1,,,,,,,,,,,,,,,,,,,,,,,,,,,,,,,,,,,,,,,,,,,,,,,,,,,,,,,,,,,,,,,,,,,,,,,,,,,
,,,,,,,,,,stimuli/images/PICTURE_564.png,BATH,5ea04f7cbe679a07850012ce,5ea04f7cbe679a07850012,2020-09-12_10h22.56.003,proactive3.2,2020.1.2,Win32,60,5f5adea66120081ea0f57a61,5f5c9284f58e6648422eafaf,4,,,,,,spoon,,,,,,0,52,52,26,1,3,1,,,,,,,,,,,,,,,,,,,,,,,,,,,,,,,,,,,,,,,,,,,,,,,,,,,,,,,,,,,,,,,,,,,,,,,,,,,
,,,,,,,,,,stimuli/images/PICTURE_308.png,FAMILY,5ea04f7cbe679a07850012ce,5ea04f7cbe679a07850012,2020-09-12_10h22.56.003,proactive3.2,2020.1.2,Win32,60,5f5adea66120081ea0f57a61,5f5c9284f58e6648422eafaf,4,,,,,,dice,,,,,,0,53,53,36,1,4,1,,,,,,,,,,,,,,,,,,,,,,,,,,,,,,,,,,,,,,,,,,,,,,,,,,,,,,,,,,,,,,,,,,,,,,,,,,,
,,,,,,,,,,stimuli/images/PICTURE_677.png,APPLE,5ea04f7cbe679a07850012ce,5ea04f7cbe679a07850012,2020-09-12_10h22.56.003,proactive3.2,2020.1.2,Win32,60,5f5adea66120081ea0f57a61,5f5c9284f58e6648422eafaf,4,,,,,,map,,,,,,0,54,54,43,1,5,1,,,,,,,,,,,,,,,,,,,,,,,,,,,,,,,,,,,,,,,,,,,,,,,,,,,,,,,,,,,,,,,,,,,,,,,,,,,
,,,,,,,,,,stimuli/images/PICTURE_340.png,VALLEY,5ea04f7cbe679a07850012ce,5ea04f7cbe679a07850012,2020-09-12_10h22.56.003,proactive3.2,2020.1.2,Win32,60,5f5adea66120081ea0f57a61,5f5c9284f58e6648422eafaf,4,,,,,,mirror,,,,,,0,55,55,54,1,6,1,,,,,,,,,,,,,,,,,,,,,,,,,,,,,,,,,,,,,,,,,,,,,,,,,,,,,,,,,,,,,,,,,,,,,,,,,,,
,,,,,,,,,,stimuli/images/PICTURE_32.png,PILLS,5ea04f7cbe679a07850012ce,5ea04f7cbe679a07850012,2020-09-12_10h22.56.003,proactive3.2,2020.1.2,Win32,60,5f5adea66120081ea0f57a61,5f5c9284f58e6648422eafaf,4,,,,,,crown,,,,,,0,56,56,18,1,2,1,,,,,,,,,,,,,,,,,,,,,,,,,,,,,,,,,,,,,,,,,,,,,,,,,,,,,,,,,,,,,,,,,,,,,,,,,,,
,,,,,,,,,,stimuli/images/PICTURE_504.png,ARTIST,5ea04f7cbe679a07850012ce,5ea04f7cbe679a07850012,2020-09-12_10h22.56.003,proactive3.2,2020.1.2,Win32,60,5f5adea66120081ea0f57a61,5f5c9284f58e6648422eafaf,4,,,,,,wheel,,,,,,0,57,57,49,1,5,1,,,,,,,,,,,,,,,,,,,,,,,,,,,,,,,,,,,,,,,,,,,,,,,,,,,,,,,,,,,,,,,,,,,,,,,,,,,
,,,,,,,,,,stimuli/images/PICTURE_33.png,FRIEND,5ea04f7cbe679a07850012ce,5ea04f7cbe679a07850012,2020-09-12_10h22.56.003,proactive3.2,2020.1.2,Win32,60,5f5adea66120081ea0f57a61,5f5c9284f58e6648422eafaf,4,,,,,,frame,,,,,,0,58,58,8,1,1,1,,,,,,,,,,,,,,,,,,,,,,,,,,,,,,,,,,,,,,,,,,,,,,,,,,,,,,,,,,,,,,,,,,,,,,,,,,,
,,?,0.002205,0,,,,,,stimuli/images/PICTURE_233.png,LOTS,5ea04f7cbe679a07850012ce,5ea04f7cbe679a07850012,2020-09-12_10h22.56.003,proactive3.2,2020.1.2,Win32,60,5f5adea66120081ea0f57a61,5f5c9284f58e6648422eafaf,4,,,,,,salt,,,,,,,,,,,5,1,0,0,0,42,1,,,,,,,,,,,,,,,,,,,,,,,,,,,,,,,,,,,,,,,,,,,,,,,,,,,,,,,,,,,,,,,,,,,,,,
,,?,0.001935,0,,,,,,stimuli/images/PICTURE_68.png,MILE,5ea04f7cbe679a07850012ce,5ea04f7cbe679a07850012,2020-09-12_10h22.56.003,proactive3.2,2020.1.2,Win32,60,5f5adea66120081ea0f57a61,5f5c9284f58e6648422eafaf,4,,,,,,candle,,,,,,,,,,,6,1,0,1,1,51,1,,,,,,,,,,,,,,,,,,,,,,,,,,,,,,,,,,,,,,,,,,,,,,,,,,,,,,,,,,,,,,,,,,,,,,
,,?,0.00214,0,,,,,,stimuli/images/PICTURE_564.png,BATH,5ea04f7cbe679a07850012ce,5ea04f7cbe679a07850012,2020-09-12_10h22.56.003,proactive3.2,2020.1.2,Win32,60,5f5adea66120081ea0f57a61,5f5c9284f58e6648422eafaf,4,,,,,,spoon,,,,,,,,,,,3,1,0,2,2,26,1,,,,,,,,,,,,,,,,,,,,,,,,,,,,,,,,,,,,,,,,,,,,,,,,,,,,,,,,,,,,,,,,,,,,,,
,,?,0.001795,0,,,,,,stimuli/images/PICTURE_2.png,FLIGHT,5ea04f7cbe679a07850012ce,5ea04f7cbe679a07850012,2020-09-12_10h22.56.003,proactive3.2,2020.1.2,Win32,60,5f5adea66120081ea0f57a61,5f5c9284f58e6648422eafaf,4,,,,,,tyre,,,,,,,,,,,2,1,0,3,3,15,1,,,,,,,,,,,,,,,,,,,,,,,,,,,,,,,,,,,,,,,,,,,,,,,,,,,,,,,,,,,,,,,,,,,,,,
,,?,0.00145,0,,,,,,stimuli/images/PICTURE_203.png,NIGHT,5ea04f7cbe679a07850012ce,5ea04f7cbe679a07850012,2020-09-12_10h22.56.003,proactive3.2,2020.1.2,Win32,60,5f5adea66120081ea0f57a61,5f5c9284f58e6648422eafaf,4,,,,,,cap,,,,,,,,,,,1,1,0,4,4,2,1,,,,,,,,,,,,,,,,,,,,,,,,,,,,,,,,,,,,,,,,,,,,,,,,,,,,,,,,,,,,,,,,,,,,,,
,,?,0.001195,0,,,,,,stimuli/images/PICTURE_667.png,RIVER,5ea04f7cbe679a07850012ce,5ea04f7cbe679a07850012,2020-09-12_10h22.56.003,proactive3.2,2020.1.2,Win32,60,5f5adea66120081ea0f57a61,5f5c9284f58e6648422eafaf,4,,,,,,daisy,,,,,,,,,,,2,1,0,5,5,10,1,,,,,,,,,,,,,,,,,,,,,,,,,,,,,,,,,,,,,,,,,,,,,,,,,,,,,,,,,,,,,,,,,,,,,,
,,?,0.001145,0,,,,,,stimuli/images/PICTURE_85.png,TOILET,5ea04f7cbe679a07850012ce,5ea04f7cbe679a07850012,2020-09-12_10h22.56.003,proactive3.2,2020.1.2,Win32,60,5f5adea66120081ea0f57a61,5f5c9284f58e6648422eafaf,4,,,,,,diamond,,,,,,,,,,,5,1,0,6,6,48,1,,,,,,,,,,,,,,,,,,,,,,,,,,,,,,,,,,,,,,,,,,,,,,,,,,,,,,,,,,,,,,,,,,,,,,
,,?,0.00153,0,,,,,,stimuli/images/PICTURE_491.png,RIVER,5ea04f7cbe679a07850012ce,5ea04f7cbe679a07850012,2020-09-12_10h22.56.003,proactive3.2,2020.1.2,Win32,60,5f5adea66120081ea0f57a61,5f5c9284f58e6648422eafaf,4,,,,,,rug,,,,,,,,,,,1,1,0,7,7,6,1,,,,,,,,,,,,,,,,,,,,,,,,,,,,,,,,,,,,,,,,,,,,,,,,,,,,,,,,,,,,,,,,,,,,,,
,,?,0.001225,0,,,,,,stimuli/images/PICTURE_42.png,BOYS,5ea04f7cbe679a07850012ce,5ea04f7cbe679a07850012,2020-09-12_10h22.56.003,proactive3.2,2020.1.2,Win32,60,5f5adea66120081ea0f57a61,5f5c9284f58e6648422eafaf,4,,,,,,pear,,,,,,,,,,,6,1,0,8,8,55,1,,,,,,,,,,,,,,,,,,,,,,,,,,,,,,,,,,,,,,,,,,,,,,,,,,,,,,,,,,,,,,,,,,,,,,
,,?,0.001085,0,,,,,,stimuli/images/PICTURE_95.png,HONEY,5ea04f7cbe679a07850012ce,5ea04f7cbe679a07850012,2020-09-12_10h22.56.003,proactive3.2,2020.1.2,Win32,60,5f5adea66120081ea0f57a61,5f5c9284f58e6648422eafaf,4,,,,,,suitcase,,,,,,,,,,,5,1,0,9,9,44,1,,,,,,,,,,,,,,,,,,,,,,,,,,,,,,,,,,,,,,,,,,,,,,,,,,,,,,,,,,,,,,,,,,,,,,
,,?,0.001125,0,,,,,,stimuli/images/PICTURE_405.png,PLENTY,5ea04f7cbe679a07850012ce,5ea04f7cbe679a07850012,2020-09-12_10h22.56.003,proactive3.2,2020.1.2,Win32,60,5f5adea66120081ea0f57a61,5f5c9284f58e6648422eafaf,4,,,,,,anchor,,,,,,,,,,,3,1,0,10,10,23,1,,,,,,,,,,,,,,,,,,,,,,,,,,,,,,,,,,,,,,,,,,,,,,,,,,,,,,,,,,,,,,,,,,,,,,
,,?,0.0039,0,,,,,,stimuli/images/PICTURE_380.png,HONEY,5ea04f7cbe679a07850012ce,5ea04f7cbe679a07850012,2020-09-12_10h22.56.003,proactive3.2,2020.1.2,Win32,60,5f5adea66120081ea0f57a61,5f5c9284f58e6648422eafaf,4,,,,,,gorilla,,,,,,,,,,,2,1,0,11,11,19,1,,,,,,,,,,,,,,,,,,,,,,,,,,,,,,,,,,,,,,,,,,,,,,,,,,,,,,,,,,,,,,,,,,,,,,
,,?,0.001335,0,,,,,,stimuli/images/PICTURE_327.png,CASINO,5ea04f7cbe679a07850012ce,5ea04f7cbe679a07850012,2020-09-12_10h22.56.003,proactive3.2,2020.1.2,Win32,60,5f5adea66120081ea0f57a61,5f5c9284f58e6648422eafaf,4,,,,,,helmet,,,,,,,,,,,3,1,0,12,12,20,1,,,,,,,,,,,,,,,,,,,,,,,,,,,,,,,,,,,,,,,,,,,,,,,,,,,,,,,,,,,,,,,,,,,,,,
,,?,0.001575,0,,,,,,stimuli/images/PICTURE_708.png,RECORD,5ea04f7cbe679a07850012ce,5ea04f7cbe679a07850012,2020-09-12_10h22.56.003,proactive3.2,2020.1.2,Win32,60,5f5adea66120081ea0f57a61,5f5c9284f58e6648422eafaf,4,,,,,,monkey,,,,,,,,,,,6,1,0,13,13,58,1,,,,,,,,,,,,,,,,,,,,,,,,,,,,,,,,,,,,,,,,,,,,,,,,,,,,,,,,,,,,,,,,,,,,,,
,,?,0.00116,0,,,,,,stimuli/images/PICTURE_108.png,POLICY,5ea04f7cbe679a07850012ce,5ea04f7cbe679a07850012,2020-09-12_10h22.56.003,proactive3.2,2020.1.2,Win32,60,5f5adea66120081ea0f57a61,5f5c9284f58e6648422eafaf,4,,,,,,calendar,,,,,,,,,,,3,1,0,14,14,22,1,,,,,,,,,,,,,,,,,,,,,,,,,,,,,,,,,,,,,,,,,,,,,,,,,,,,,,,,,,,,,,,,,,,,,,
,,?,0.00145,0,,,,,,stimuli/images/PICTURE_654.png,MONTH,5ea04f7cbe679a07850012ce,5ea04f7cbe679a07850012,2020-09-12_10h22.56.003,proactive3.2,2020.1.2,Win32,60,5f5adea66120081ea0f57a61,5f5c9284f58e6648422eafaf,4,,,,,,pencil,,,,,,,,,,,3,1,0,15,15,29,1,,,,,,,,,,,,,,,,,,,,,,,,,,,,,,,,,,,,,,,,,,,,,,,,,,,,,,,,,,,,,,,,,,,,,,
,,?,0.00151,0,,,,,,stimuli/images/PICTURE_95.png,BOYS,5ea04f7cbe679a07850012ce,5ea04f7cbe679a07850012,2020-09-12_10h22.56.003,proactive3.2,2020.1.2,Win32,60,5f5adea66120081ea0f57a61,5f5c9284f58e6648422eafaf,4,,,,,,suitcase,,,,,,,,,,,1,1,0,16,16,1,1,,,,,,,,,,,,,,,,,,,,,,,,,,,,,,,,,,,,,,,,,,,,,,,,,,,,,,,,,,,,,,,,,,,,,,
,,?,0.001065,0,,,,,,stimuli/images/PICTURE_504.png,COPS,5ea04f7cbe679a07850012ce,5ea04f7cbe679a07850012,2020-09-12_10h22.56.003,proactive3.2,2020.1.2,Win32,60,5f5adea66120081ea0f57a61,5f5c9284f58e6648422eafaf,4,,,,,,wheel,,,,,,,,,,,6,1,0,17,17,52,1,,,,,,,,,,,,,,,,,,,,,,,,,,,,,,,,,,,,,,,,,,,,,,,,,,,,,,,,,,,,,,,,,,,,,,
,,?,0.00099,0,,,,,,stimuli/images/PICTURE_403.png,TOILET,5ea04f7cbe679a07850012ce,5ea04f7cbe679a07850012,2020-09-12_10h22.56.003,proactive3.2,2020.1.2,Win32,60,5f5adea66120081ea0f57a61,5f5c9284f58e6648422eafaf,4,,,,,,cathedral,,,,,,,,,,,3,1,0,18,18,25,1,,,,,,,,,,,,,,,,,,,,,,,,,,,,,,,,,,,,,,,,,,,,,,,,,,,,,,,,,,,,,,,,,,,,,,
,,?,0.001095,0,,,,,,stimuli/images/PICTURE_147.png,WOMEN,5ea04f7cbe679a07850012ce,5ea04f7cbe679a07850012,2020-09-12_10h22.56.003,proactive3.2,2020.1.2,Win32,60,5f5adea66120081ea0f57a61,5f5c9284f58e6648422eafaf,4,,,,,,hanger,,,,,,,,,,,1,1,0,19,19,7,1,,,,,,,,,,,,,,,,,,,,,,,,,,,,,,,,,,,,,,,,,,,,,,,,,,,,,,,,,,,,,,,,,,,,,,
,,?,0.00238,0,,,,,,stimuli/images/PICTURE_383.png,WRITER,5ea04f7cbe679a07850012ce,5ea04f7cbe679a07850012,2020-09-12_10h22.56.003,proactive3.2,2020.1.2,Win32,60,5f5adea66120081ea0f57a61,5f5c9284f58e6648422eafaf,4,,,,,,coin,,,,,,,,,,,3,1,0,20,20,28,1,,,,,,,,,,,,,,,,,,,,,,,,,,,,,,,,,,,,,,,,,,,,,,,,,,,,,,,,,,,,,,,,,,,,,,
,,?,0.00093,0,,,,,,stimuli/images/PICTURE_327.png,SERIES,5ea04f7cbe679a07850012ce,5ea04f7cbe679a07850012,2020-09-12_10h22.56.003,proactive3.2,2020.1.2,Win32,60,5f5adea66120081ea0f57a61,5f5c9284f58e6648422eafaf,4,,,,,,helmet,,,,,,,,,,,1,1,0,21,21,3,1,,,,,,,,,,,,,,,,,,,,,,,,,,,,,,,,,,,,,,,,,,,,,,,,,,,,,,,,,,,,,,,,,,,,,,
,,?,0.000915,0,,,,,,stimuli/images/PICTURE_296.png,LIFE,5ea04f7cbe679a07850012ce,5ea04f7cbe679a07850012,2020-09-12_10h22.56.003,proactive3.2,2020.1.2,Win32,60,5f5adea66120081ea0f57a61,5f5c9284f58e6648422eafaf,4,,,,,,bolt,,,,,,,,,,,6,1,0,22,22,57,1,,,,,,,,,,,,,,,,,,,,,,,,,,,,,,,,,,,,,,,,,,,,,,,,,,,,,,,,,,,,,,,,,,,,,,
,,?,0.000905,0,,,,,,stimuli/images/PICTURE_340.png,VALLEY,5ea04f7cbe679a07850012ce,5ea04f7cbe679a07850012,2020-09-12_10h22.56.003,proactive3.2,2020.1.2,Win32,60,5f5adea66120081ea0f57a61,5f5c9284f58e6648422eafaf,4,,,,,,mirror,,,,,,,,,,,6,1,0,23,23,54,1,,,,,,,,,,,,,,,,,,,,,,,,,,,,,,,,,,,,,,,,,,,,,,,,,,,,,,,,,,,,,,,,,,,,,,
,,?,0.000945,0,,,,,,stimuli/images/PICTURE_380.png,CANDY,5ea04f7cbe679a07850012ce,5ea04f7cbe679a07850012,2020-09-12_10h22.56.003,proactive3.2,2020.1.2,Win32,60,5f5adea66120081ea0f57a61,5f5c9284f58e6648422eafaf,4,,,,,,gorilla,,,,,,,,,,,1,1,0,24,24,0,1,,,,,,,,,,,,,,,,,,,,,,,,,,,,,,,,,,,,,,,,,,,,,,,,,,,,,,,,,,,,,,,,,,,,,,
,,WRITER,15.016165,1,,,,,,stimuli/images/PICTURE_403.png,WRITER,5ea04f7cbe679a07850012ce,5ea04f7cbe679a07850012,2020-09-12_10h22.56.003,proactive3.2,2020.1.2,Win32,60,5f5adea66120081ea0f57a61,5f5c9284f58e6648422eafaf,4,,,,,,cathedral,,,,,,,,,,,4,1,0,25,25,31,1,,,,,,,,,,,,,,,,,,,,,,,,,,,,,,,,,,,,,,,,,,,,,,,,,,,,,,,,,,,,,,,,,,,,,,
,,?,0.00112,0,,,,,,stimuli/images/PICTURE_685.png,PENNY,5ea04f7cbe679a07850012ce,5ea04f7cbe679a07850012,2020-09-12_10h22.56.003,proactive3.2,2020.1.2,Win32,60,5f5adea66120081ea0f57a61,5f5c9284f58e6648422eafaf,4,,,,,,goose,,,,,,,,,,,1,1,0,26,26,4,1,,,,,,,,,,,,,,,,,,,,,,,,,,,,,,,,,,,,,,,,,,,,,,,,,,,,,,,,,,,,,,,,,,,,,,
,,?,0.00095,0,,,,,,stimuli/images/PICTURE_339.png,CLIENT,5ea04f7cbe679a07850012ce,5ea04f7cbe679a07850012,2020-09-12_10h22.56.003,proactive3.2,2020.1.2,Win32,60,5f5adea66120081ea0f57a61,5f5c9284f58e6648422eafaf,4,,,,,,backpack,,,,,,,,,,,2,1,0,27,27,11,1,,,,,,,,,,,,,,,,,,,,,,,,,,,,,,,,,,,,,,,,,,,,,,,,,,,,,,,,,,,,,,,,,,,,,,
,,?,0.001075,0,,,,,,stimuli/images/PICTURE_469.png,AGENT,5ea04f7cbe679a07850012ce,5ea04f7cbe679a07850012,2020-09-12_10h22.56.003,proactive3.2,2020.1.2,Win32,60,5f5adea66120081ea0f57a61,5f5c9284f58e6648422eafaf,4,,,,,,stool,,,,,,,,,,,2,1,0,28,28,16,1,,,,,,,,,,,,,,,,,,,,,,,,,,,,,,,,,,,,,,,,,,,,,,,,,,,,,,,,,,,,,,,,,,,,,,
,,?,0.00101,0,,,,,,stimuli/images/PICTURE_491.png,GLASS,5ea04f7cbe679a07850012ce,5ea04f7cbe679a07850012,2020-09-12_10h22.56.003,proactive3.2,2020.1.2,Win32,60,5f5adea66120081ea0f57a61,5f5c9284f58e6648422eafaf,4,,,,,,rug,,,,,,,,,,,2,1,0,29,29,14,1,,,,,,,,,,,,,,,,,,,,,,,,,,,,,,,,,,,,,,,,,,,,,,,,,,,,,,,,,,,,,,,,,,,,,,
,,YEAR,15.003595,1,,,,,,stimuli/images/PICTURE_405.png,YEAR,5ea04f7cbe679a07850012ce,5ea04f7cbe679a07850012,2020-09-12_10h22.56.003,proactive3.2,2020.1.2,Win32,60,5f5adea66120081ea0f57a61,5f5c9284f58e6648422eafaf,4,,,,,,anchor,,,,,,,,,,,4,1,0,30,30,34,1,,,,,,,,,,,,,,,,,,,,,,,,,,,,,,,,,,,,,,,,,,,,,,,,,,,,,,,,,,,,,,,,,,,,,,
,,FAMILY,15.014005,1,,,,,,stimuli/images/PICTURE_308.png,FAMILY,5ea04f7cbe679a07850012ce,5ea04f7cbe679a07850012,2020-09-12_10h22.56.003,proactive3.2,2020.1.2,Win32,60,5f5adea66120081ea0f57a61,5f5c9284f58e6648422eafaf,4,,,,,,dice,,,,,,,,,,,4,1,0,31,31,36,1,,,,,,,,,,,,,,,,,,,,,,,,,,,,,,,,,,,,,,,,,,,,,,,,,,,,,,,,,,,,,,,,,,,,,,
,,?,0.001945,0,,,,,,stimuli/images/PICTURE_487.png,GIRL,5ea04f7cbe679a07850012ce,5ea04f7cbe679a07850012,2020-09-12_10h22.56.003,proactive3.2,2020.1.2,Win32,60,5f5adea66120081ea0f57a61,5f5c9284f58e6648422eafaf,4,,,,,,basket,,,,,,,,,,,5,1,0,32,32,45,1,,,,,,,,,,,,,,,,,,,,,,,,,,,,,,,,,,,,,,,,,,,,,,,,,,,,,,,,,,,,,,,,,,,,,,
,,?,0.001735,0,,,,,,stimuli/images/PICTURE_340.png,LETTER,5ea04f7cbe679a07850012ce,5ea04f7cbe679a07850012,2020-09-12_10h22.56.003,proactive3.2,2020.1.2,Win32,60,5f5adea66120081ea0f57a61,5f5c9284f58e6648422eafaf,4,,,,,,mirror,,,,,,,,,,,3,1,0,33,33,24,1,,,,,,,,,,,,,,,,,,,,,,,,,,,,,,,,,,,,,,,,,,,,,,,,,,,,,,,,,,,,,,,,,,,,,,
,,?,0.001805,0,,,,,,stimuli/images/PICTURE_449.png,DUDE,5ea04f7cbe679a07850012ce,5ea04f7cbe679a07850012,2020-09-12_10h22.56.003,proactive3.2,2020.1.2,Win32,60,5f5adea66120081ea0f57a61,5f5c9284f58e6648422eafaf,4,,,,,,bench,,,,,,,,,,,2,1,0,34,34,17,1,,,,,,,,,,,,,,,,,,,,,,,,,,,,,,,,,,,,,,,,,,,,,,,,,,,,,,,,,,,,,,,,,,,,,,
,,?,0.00298,0,,,,,,stimuli/images/PICTURE_750.png,HOTEL,5ea04f7cbe679a07850012ce,5ea04f7cbe679a07850012,2020-09-12_10h22.56.003,proactive3.2,2020.1.2,Win32,60,5f5adea66120081ea0f57a61,5f5c9284f58e6648422eafaf,4,,,,,,kettle,,,,,,,,,,,3,1,0,35,35,27,1,,,,,,,,,,,,,,,,,,,,,,,,,,,,,,,,,,,,,,,,,,,,,,,,,,,,,,,,,,,,,,,,,,,,,,
,,?,0.00184,0,,,,,,stimuli/images/PICTURE_744.png,WEAPON,5ea04f7cbe679a07850012ce,5ea04f7cbe679a07850012,2020-09-12_10h22.56.003,proactive3.2,2020.1.2,Win32,60,5f5adea66120081ea0f57a61,5f5c9284f58e6648422eafaf,4,,,,,,ring,,,,,,,,,,,6,1,0,36,36,50,1,,,,,,,,,,,,,,,,,,,,,,,,,,,,,,,,,,,,,,,,,,,,,,,,,,,,,,,,,,,,,,,,,,,,,,
,,?,0.00182,0,,,,,,stimuli/images/PICTURE_296.png,LOTS,5ea04f7cbe679a07850012ce,5ea04f7cbe679a07850012,2020-09-12_10h22.56.003,proactive3.2,2020.1.2,Win32,60,5f5adea66120081ea0f57a61,5f5c9284f58e6648422eafaf,4,,,,,,bolt,,,,,,,,,,,1,1,0,37,37,9,1,,,,,,,,,,,,,,,,,,,,,,,,,,,,,,,,,,,,,,,,,,,,,,,,,,,,,,,,,,,,,,,,,,,,,,
,,RUSE,15.001515,0,,,,,,stimuli/images/PICTURE_297.png,RIVER,5ea04f7cbe679a07850012ce,5ea04f7cbe679a07850012,2020-09-12_10h22.56.003,proactive3.2,2020.1.2,Win32,60,5f5adea66120081ea0f57a61,5f5c9284f58e6648422eafaf,4,,,,,,aeroplane,,,,,,,,,,,4,1,0,38,38,39,1,,,,,,,,,,,,,,,,,,,,,,,,,,,,,,,,,,,,,,,,,,,,,,,,,,,,,,,,,,,,,,,,,,,,,,
,,?,0.0019,0,,,,,,stimuli/images/PICTURE_403.png,RIVER,5ea04f7cbe679a07850012ce,5ea04f7cbe679a07850012,2020-09-12_10h22.56.003,proactive3.2,2020.1.2,Win32,60,5f5adea66120081ea0f57a61,5f5c9284f58e6648422eafaf,4,,,,,,cathedral,,,,,,,,,,,5,1,0,39,39,40,1,,,,,,,,,,,,,,,,,,,,,,,,,,,,,,,,,,,,,,,,,,,,,,,,,,,,,,,,,,,,,,,,,,,,,,
,,?,0.001695,0,,,,,,stimuli/images/PICTURE_147.png,YEAR,5ea04f7cbe679a07850012ce,5ea04f7cbe679a07850012,2020-09-12_10h22.56.003,proactive3.2,2020.1.2,Win32,60,5f5adea66120081ea0f57a61,5f5c9284f58e6648422eafaf,4,,,,,,hanger,,,,,,,,,,,3,1,0,40,40,21,1,,,,,,,,,,,,,,,,,,,,,,,,,,,,,,,,,,,,,,,,,,,,,,,,,,,,,,,,,,,,,,,,,,,,,,
,,KIND,15.00341,1,,,,,,stimuli/images/PICTURE_32.png,KIND,5ea04f7cbe679a07850012ce,5ea04f7cbe679a07850012,2020-09-12_10h22.56.003,proactive3.2,2020.1.2,Win32,60,5f5adea66120081ea0f57a61,5f5c9284f58e6648422eafaf,4,,,,,,crown,,,,,,,,,,,4,1,0,41,41,35,1,,,,,,,,,,,,,,,,,,,,,,,,,,,,,,,,,,,,,,,,,,,,,,,,,,,,,,,,,,,,,,,,,,,,,,
,,?,0.00172,0,,,,,,stimuli/images/PICTURE_467.png,POLICY,5ea04f7cbe679a07850012ce,5ea04f7cbe679a07850012,2020-09-12_10h22.56.003,proactive3.2,2020.1.2,Win32,60,5f5adea66120081ea0f57a61,5f5c9284f58e6648422eafaf,4,,,,,,peg,,,,,,,,,,,6,1,0,42,42,53,1,,,,,,,,,,,,,,,,,,,,,,,,,,,,,,,,,,,,,,,,,,,,,,,,,,,,,,,,,,,,,,,,,,,,,,
,,?,0.00166,0,,,,,,stimuli/images/PICTURE_504.png,YEAR,5ea04f7cbe679a07850012ce,5ea04f7cbe679a07850012,2020-09-12_10h22.56.003,proactive3.2,2020.1.2,Win32,60,5f5adea66120081ea0f57a61,5f5c9284f58e6648422eafaf,4,,,,,,wheel,,,,,,,,,,,2,1,0,43,43,13,1,,,,,,,,,,,,,,,,,,,,,,,,,,,,,,,,,,,,,,,,,,,,,,,,,,,,,,,,,,,,,,,,,,,,,,
,,?,0.001615,0,,,,,,stimuli/images/PICTURE_383.png,SERIES,5ea04f7cbe679a07850012ce,5ea04f7cbe679a07850012,2020-09-12_10h22.56.003,proactive3.2,2020.1.2,Win32,60,5f5adea66120081ea0f57a61,5f5c9284f58e6648422eafaf,4,,,,,,coin,,,,,,,,,,,5,1,0,44,44,46,1,,,,,,,,,,,,,,,,,,,,,,,,,,,,,,,,,,,,,,,,,,,,,,,,,,,,,,,,,,,,,,,,,,,,,,
,,?,0.00163,0,,,,,,stimuli/images/PICTURE_177.png,WRITER,5ea04f7cbe679a07850012ce,5ea04f7cbe679a07850012,2020-09-12_10h22.56.003,proactive3.2,2020.1.2,Win32,60,5f5adea66120081ea0f57a61,5f5c9284f58e6648422eafaf,4,,,,,,mushroom,,,,,,,,,,,5,1,0,45,45,41,1,,,,,,,,,,,,,,,,,,,,,,,,,,,,,,,,,,,,,,,,,,,,,,,,,,,,,,,,,,,,,,,,,,,,,,
,,?,0.0013,0,,,,,,stimuli/images/PICTURE_32.png,PILLS,5ea04f7cbe679a07850012ce,5ea04f7cbe679a07850012,2020-09-12_10h22.56.003,proactive3.2,2020.1.2,Win32,60,5f5adea66120081ea0f57a61,5f5c9284f58e6648422eafaf,4,,,,,,crown,,,,,,,,,,,2,1,0,46,46,18,1,,,,,,,,,,,,,,,,,,,,,,,,,,,,,,,,,,,,,,,,,,,,,,,,,,,,,,,,,,,,,,,,,,,,,,
,,?,0.001195,0,,,,,,stimuli/images/PICTURE_655.png,TOILET,5ea04f7cbe679a07850012ce,5ea04f7cbe679a07850012,2020-09-12_10h22.56.003,proactive3.2,2020.1.2,Win32,60,5f5adea66120081ea0f57a61,5f5c9284f58e6648422eafaf,4,,,,,,megaphone,,,,,,,,,,,2,1,0,47,47,12,1,,,,,,,,,,,,,,,,,,,,,,,,,,,,,,,,,,,,,,,,,,,,,,,,,,,,,,,,,,,,,,,,,,,,,,
,,?,0.00141,0,,,,,,stimuli/images/PICTURE_677.png,APPLE,5ea04f7cbe679a07850012ce,5ea04f7cbe679a07850012,2020-09-12_10h22.56.003,proactive3.2,2020.1.2,Win32,60,5f5adea66120081ea0f57a61,5f5c9284f58e6648422eafaf,4,,,,,,map,,,,,,,,,,,5,1,0,48,48,43,1,,,,,,,,,,,,,,,,,,,,,,,,,,,,,,,,,,,,,,,,,,,,,,,,,,,,,,,,,,,,,,,,,,,,,,
,,LIFE,5.00572,1,,,,,,stimuli/images/PICTURE_285.png,LIFE,5ea04f7cbe679a07850012ce,5ea04f7cbe679a07850012,2020-09-12_10h22.56.003,proactive3.2,2020.1.2,Win32,60,5f5adea66120081ea0f57a61,5f5c9284f58e6648422eafaf,4,,,,,,carrot,,,,,,,,,,,4,1,0,49,49,33,1,,,,,,,,,,,,,,,,,,,,,,,,,,,,,,,,,,,,,,,,,,,,,,,,,,,,,,,,,,,,,,,,,,,,,,
,,MOMENT,15.013075,1,,,,,,stimuli/images/PICTURE_57.png,MOMENT,5ea04f7cbe679a07850012ce,5ea04f7cbe679a07850012,2020-09-12_10h22.56.003,proactive3.2,2020.1.2,Win32,60,5f5adea66120081ea0f57a61,5f5c9284f58e6648422eafaf,4,,,,,,stamp,,,,,,,,,,,4,1,0,50,50,37,1,,,,,,,,,,,,,,,,,,,,,,,,,,,,,,,,,,,,,,,,,,,,,,,,,,,,,,,,,,,,,,,,,,,,,,
,,GODS,15.013625,1,,,,,,stimuli/images/PICTURE_203.png,GODS,5ea04f7cbe679a07850012ce,5ea04f7cbe679a07850012,2020-09-12_10h22.56.003,proactive3.2,2020.1.2,Win32,60,5f5adea66120081ea0f57a61,5f5c9284f58e6648422eafaf,4,,,,,,cap,,,,,,,,,,,4,1,0,51,51,30,1,,,,,,,,,,,,,,,,,,,,,,,,,,,,,,,,,,,,,,,,,,,,,,,,,,,,,,,,,,,,,,,,,,,,,,
,,?,0.001685,0,,,,,,stimuli/images/PICTURE_675.png,SALE,5ea04f7cbe679a07850012ce,5ea04f7cbe679a07850012,2020-09-12_10h22.56.003,proactive3.2,2020.1.2,Win32,60,5f5adea66120081ea0f57a61,5f5c9284f58e6648422eafaf,4,,,,,,windmill,,,,,,,,,,,5,1,0,52,52,47,1,,,,,,,,,,,,,,,,,,,,,,,,,,,,,,,,,,,,,,,,,,,,,,,,,,,,,,,,,,,,,,,,,,,,,,
,,?,0.001765,0,,,,,,stimuli/images/PICTURE_85.png,NATION,5ea04f7cbe679a07850012ce,5ea04f7cbe679a07850012,2020-09-12_10h22.56.003,proactive3.2,2020.1.2,Win32,60,5f5adea66120081ea0f57a61,5f5c9284f58e6648422eafaf,4,,,,,,diamond,,,,,,,,,,,1,1,0,53,53,5,1,,,,,,,,,,,,,,,,,,,,,,,,,,,,,,,,,,,,,,,,,,,,,,,,,,,,,,,,,,,,,,,,,,,,,,
,,?,0.00208,0,,,,,,stimuli/images/PICTURE_504.png,ARTIST,5ea04f7cbe679a07850012ce,5ea04f7cbe679a07850012,2020-09-12_10h22.56.003,proactive3.2,2020.1.2,Win32,60,5f5adea66120081ea0f57a61,5f5c9284f58e6648422eafaf,4,,,,,,wheel,,,,,,,,,,,5,1,0,54,54,49,1,,,,,,,,,,,,,,,,,,,,,,,,,,,,,,,,,,,,,,,,,,,,,,,,,,,,,,,,,,,,,,,,,,,,,,
,,?,0.002095,0,,,,,,stimuli/images/PICTURE_108.png,FLIGHT,5ea04f7cbe679a07850012ce,5ea04f7cbe679a07850012,2020-09-12_10h22.56.003,proactive3.2,2020.1.2,Win32,60,5f5adea66120081ea0f57a61,5f5c9284f58e6648422eafaf,4,,,,,,calendar,,,,,,,,,,,6,1,0,55,55,59,1,,,,,,,,,,,,,,,,,,,,,,,,,,,,,,,,,,,,,,,,,,,,,,,,,,,,,,,,,,,,,,,,,,,,,,
,,?,0.00204,0,,,,,,stimuli/images/PICTURE_33.png,FRIEND,5ea04f7cbe679a07850012ce,5ea04f7cbe679a07850012,2020-09-12_10h22.56.003,proactive3.2,2020.1.2,Win32,60,5f5adea66120081ea0f57a61,5f5c9284f58e6648422eafaf,4,,,,,,frame,,,,,,,,,,,1,1,0,56,56,8,1,,,,,,,,,,,,,,,,,,,,,,,,,,,,,,,,,,,,,,,,,,,,,,,,,,,,,,,,,,,,,,,,,,,,,,
,,SYSTEM,15.00741,1,,,,,,stimuli/images/PICTURE_208.png,SYSTEM,5ea04f7cbe679a07850012ce,5ea04f7cbe679a07850012,2020-09-12_10h22.56.003,proactive3.2,2020.1.2,Win32,60,5f5adea66120081ea0f57a61,5f5c9284f58e6648422eafaf,4,,,,,,microphone,,,,,,,,,,,4,1,0,57,57,32,1,,,,,,,,,,,,,,,,,,,,,,,,,,,,,,,,,,,,,,,,,,,,,,,,,,,,,,,,,,,,,,,,,,,,,,
,,ROOF,15.01297,1,,,,,,stimuli/images/PICTURE_68.png,ROOF,5ea04f7cbe679a07850012ce,5ea04f7cbe679a07850012,2020-09-12_10h22.56.003,proactive3.2,2020.1.2,Win32,60,5f5adea66120081ea0f57a61,5f5c9284f58e6648422eafaf,4,,,,,,candle,,,,,,,,,,,4,1,0,58,58,38,1,,,,,,,,,,,,,,,,,,,,,,,,,,,,,,,,,,,,,,,,,,,,,,,,,,,,,,,,,,,,,,,,,,,,,,
,,?,0.001735,0,,,,,,stimuli/images/PICTURE_95.png,MILLER,5ea04f7cbe679a07850012ce,5ea04f7cbe679a07850012,2020-09-12_10h22.56.003,proactive3.2,2020.1.2,Win32,60,5f5adea66120081ea0f57a61,5f5c9284f58e6648422eafaf,4,,,,,,suitcase,,,,,,,,,,,6,1,0,59,59,56,1,,,,,,,,,,,,,,,,,,,,,,,,,,,,,,,,,,,,,,,,,,,,,,,,,,,,,,,,,,,,,,,,,,,,,,
,,,,,,,,,,,,5ea04f7cbe679a07850012ce,5ea04f7cbe679a07850012,2020-09-12_10h22.56.003,proactive3.2,2020.1.2,Win32,60,5f5adea66120081ea0f57a61,5f5c9284f58e6648422eafaf,4,,,,,,,,,,,,,,,,,,,,,,,,0,0,0,1,1,stimuli/learn-block2.csv,,,,,,,,,,,,,,,,,,,,,,,,,,,,,,,,,,,,,,,,,,,,,,,,,,,,,,,,,,,,,,,,
,,,,,,,,,,stimuli/images/PICTURE_655.png,SALE,5ea04f7cbe679a07850012ce,5ea04f7cbe679a07850012,2020-09-12_10h22.56.003,proactive3.2,2020.1.2,Win32,60,5f5adea66120081ea0f57a61,5f5c9284f58e6648422eafaf,4,,,,,,megaphone,,,,,,0,0,0,57,1,6,2,,,,,,,,,,,,,,,,,,,,,,,,,,,,,,,,,,,,,,,,,,,,,,,,,,,,,,,,,,,,,,,,,,,,,,,,,,,
,,,,,,,,,,stimuli/images/PICTURE_487.png,ROOF,5ea04f7cbe679a07850012ce,5ea04f7cbe679a07850012,2020-09-12_10h22.56.003,proactive3.2,2020.1.2,Win32,60,5f5adea66120081ea0f57a61,5f5c9284f58e6648422eafaf,4,,,,,,basket,,,,,,0,1,1,50,1,6,2,,,,,,,,,,,,,,,,,,,,,,,,,,,,,,,,,,,,,,,,,,,,,,,,,,,,,,,,,,,,,,,,,,,,,,,,,,,
,,,,,,,,,,stimuli/images/PICTURE_564.png,PLENTY,5ea04f7cbe679a07850012ce,5ea04f7cbe679a07850012,2020-09-12_10h22.56.003,proactive3.2,2020.1.2,Win32,60,5f5adea66120081ea0f57a61,5f5c9284f58e6648422eafaf,4,,,,,,spoon,,,,,,0,2,2,11,1,2,2,,,,,,,,,,,,,,,,,,,,,,,,,,,,,,,,,,,,,,,,,,,,,,,,,,,,,,,,,,,,,,,,,,,,,,,,,,,
,,,,,,,,,,stimuli/images/PICTURE_95.png,NIGHT,5ea04f7cbe679a07850012ce,5ea04f7cbe679a07850012,2020-09-12_10h22.56.003,proactive3.2,2020.1.2,Win32,60,5f5adea66120081ea0f57a61,5f5c9284f58e6648422eafaf,4,,,,,,suitcase,,,,,,0,3,3,37,1,4,2,,,,,,,,,,,,,,,,,,,,,,,,,,,,,,,,,,,,,,,,,,,,,,,,,,,,,,,,,,,,,,,,,,,,,,,,,,,
,,,,,,,,,,stimuli/images/PICTURE_509.png,MILLER,5ea04f7cbe679a07850012ce,5ea04f7cbe679a07850012,2020-09-12_10h22.56.003,proactive3.2,2020.1.2,Win32,60,5f5adea66120081ea0f57a61,5f5c9284f58e6648422eafaf,4,,,,,,telephone,,,,,,0,4,4,49,1,5,2,,,,,,,,,,,,,,,,,,,,,,,,,,,,,,,,,,,,,,,,,,,,,,,,,,,,,,,,,,,,,,,,,,,,,,,,,,,
,,,,,,,,,,stimuli/images/PICTURE_147.png,LEADER,5ea04f7cbe679a07850012ce,5ea04f7cbe679a07850012,2020-09-12_10h22.56.003,proactive3.2,2020.1.2,Win32,60,5f5adea66120081ea0f57a61,5f5c9284f58e6648422eafaf,4,,,,,,hanger,,,,,,0,5,5,33,1,4,2,,,,,,,,,,,,,,,,,,,,,,,,,,,,,,,,,,,,,,,,,,,,,,,,,,,,,,,,,,,,,,,,,,,,,,,,,,,
,,,,,,,,,,stimuli/images/PICTURE_327.png,LEADER,5ea04f7cbe679a07850012ce,5ea04f7cbe679a07850012,2020-09-12_10h22.56.003,proactive3.2,2020.1.2,Win32,60,5f5adea66120081ea0f57a61,5f5c9284f58e6648422eafaf,4,,,,,,helmet,,,,,,0,6,6,17,1,2,2,,,,,,,,,,,,,,,,,,,,,,,,,,,,,,,,,,,,,,,,,,,,,,,,,,,,,,,,,,,,,,,,,,,,,,,,,,,
,,,,,,,,,,stimuli/images/PICTURE_405.png,JUNGLE,5ea04f7cbe679a07850012ce,5ea04f7cbe679a07850012,2020-09-12_10h22.56.003,proactive3.2,2020.1.2,Win32,60,5f5adea66120081ea0f57a61,5f5c9284f58e6648422eafaf,4,,,,,,anchor,,,,,,0,7,7,13,1,2,2,,,,,,,,,,,,,,,,,,,,,,,,,,,,,,,,,,,,,,,,,,,,,,,,,,,,,,,,,,,,,,,,,,,,,,,,,,,
,,,,,,,,,,stimuli/images/PICTURE_57.png,CASINO,5ea04f7cbe679a07850012ce,5ea04f7cbe679a07850012,2020-09-12_10h22.56.003,proactive3.2,2020.1.2,Win32,60,5f5adea66120081ea0f57a61,5f5c9284f58e6648422eafaf,4,,,,,,stamp,,,,,,0,8,8,12,1,2,2,,,,,,,,,,,,,,,,,,,,,,,,,,,,,,,,,,,,,,,,,,,,,,,,,,,,,,,,,,,,,,,,,,,,,,,,,,,
,,,,,,,,,,stimuli/images/PICTURE_750.png,POLICY,5ea04f7cbe679a07850012ce,5ea04f7cbe679a07850012,2020-09-12_10h22.56.003,proactive3.2,2020.1.2,Win32,60,5f5adea66120081ea0f57a61,5f5c9284f58e6648422eafaf,4,,,,,,kettle,,,,,,0,9,9,44,1,5,2,,,,,,,,,,,,,,,,,,,,,,,,,,,,,,,,,,,,,,,,,,,,,,,,,,,,,,,,,,,,,,,,,,,,,,,,,,,
,,,,,,,,,,stimuli/images/PICTURE_160.png,HOTEL,5ea04f7cbe679a07850012ce,5ea04f7cbe679a07850012,2020-09-12_10h22.56.003,proactive3.2,2020.1.2,Win32,60,5f5adea66120081ea0f57a61,5f5c9284f58e6648422eafaf,4,,,,,,wheelbarrow,,,,,,0,10,10,16,1,2,2,,,,,,,,,,,,,,,,,,,,,,,,,,,,,,,,,,,,,,,,,,,,,,,,,,,,,,,,,,,,,,,,,,,,,,,,,,,
,,,,,,,,,,stimuli/images/PICTURE_509.png,SHOTS,5ea04f7cbe679a07850012ce,5ea04f7cbe679a07850012,2020-09-12_10h22.56.003,proactive3.2,2020.1.2,Win32,60,5f5adea66120081ea0f57a61,5f5c9284f58e6648422eafaf,4,,,,,,telephone,,,,,,0,11,11,7,1,1,2,,,,,,,,,,,,,,,,,,,,,,,,,,,,,,,,,,,,,,,,,,,,,,,,,,,,,,,,,,,,,,,,,,,,,,,,,,,
,,,,,,,,,,stimuli/images/PICTURE_692.png,DUDE,5ea04f7cbe679a07850012ce,5ea04f7cbe679a07850012,2020-09-12_10h22.56.003,proactive3.2,2020.1.2,Win32,60,5f5adea66120081ea0f57a61,5f5c9284f58e6648422eafaf,4,,,,,,cherry,,,,,,0,12,12,47,1,5,2,,,,,,,,,,,,,,,,,,,,,,,,,,,,,,,,,,,,,,,,,,,,,,,,,,,,,,,,,,,,,,,,,,,,,,,,,,,
,,,,,,,,,,stimuli/images/PICTURE_314.png,SPEECH,5ea04f7cbe679a07850012ce,5ea04f7cbe679a07850012,2020-09-12_10h22.56.003,proactive3.2,2020.1.2,Win32,60,5f5adea66120081ea0f57a61,5f5c9284f58e6648422eafaf,4,,,,,,perfume,,,,,,0,13,13,35,1,4,2,,,,,,,,,,,,,,,,,,,,,,,,,,,,,,,,,,,,,,,,,,,,,,,,,,,,,,,,,,,,,,,,,,,,,,,,,,,
,,,,,,,,,,stimuli/images/PICTURE_32.png,LETTER,5ea04f7cbe679a07850012ce,5ea04f7cbe679a07850012,2020-09-12_10h22.56.003,proactive3.2,2020.1.2,Win32,60,5f5adea66120081ea0f57a61,5f5c9284f58e6648422eafaf,4,,,,,,crown,,,,,,0,14,14,56,1,6,2,,,,,,,,,,,,,,,,,,,,,,,,,,,,,,,,,,,,,,,,,,,,,,,,,,,,,,,,,,,,,,,,,,,,,,,,,,,
,,,,,,,,,,stimuli/images/PICTURE_509.png,APPLE,5ea04f7cbe679a07850012ce,5ea04f7cbe679a07850012,2020-09-12_10h22.56.003,proactive3.2,2020.1.2,Win32,60,5f5adea66120081ea0f57a61,5f5c9284f58e6648422eafaf,4,,,,,,telephone,,,,,,0,15,15,38,1,4,2,,,,,,,,,,,,,,,,,,,,,,,,,,,,,,,,,,,,,,,,,,,,,,,,,,,,,,,,,,,,,,,,,,,,,,,,,,,
,,,,,,,,,,stimuli/images/PICTURE_296.png,CLOCK,5ea04f7cbe679a07850012ce,5ea04f7cbe679a07850012,2020-09-12_10h22.56.003,proactive3.2,2020.1.2,Win32,60,5f5adea66120081ea0f57a61,5f5c9284f58e6648422eafaf,4,,,,,,bolt,,,,,,0,16,16,18,1,2,2,,,,,,,,,,,,,,,,,,,,,,,,,,,,,,,,,,,,,,,,,,,,,,,,,,,,,,,,,,,,,,,,,,,,,,,,,,,
,,,,,,,,,,stimuli/images/PICTURE_57.png,NATION,5ea04f7cbe679a07850012ce,5ea04f7cbe679a07850012,2020-09-12_10h22.56.003,proactive3.2,2020.1.2,Win32,60,5f5adea66120081ea0f57a61,5f5c9284f58e6648422eafaf,4,,,,,,stamp,,,,,,0,17,17,21,1,3,2,,,,,,,,,,,,,,,,,,,,,,,,,,,,,,,,,,,,,,,,,,,,,,,,,,,,,,,,,,,,,,,,,,,,,,,,,,,
,,,,,,,,,,stimuli/images/PICTURE_470.png,BEAUTY,5ea04f7cbe679a07850012ce,5ea04f7cbe679a07850012,2020-09-12_10h22.56.003,proactive3.2,2020.1.2,Win32,60,5f5adea66120081ea0f57a61,5f5c9284f58e6648422eafaf,4,,,,,,motorbike,,,,,,0,18,18,26,1,3,2,,,,,,,,,,,,,,,,,,,,,,,,,,,,,,,,,,,,,,,,,,,,,,,,,,,,,,,,,,,,,,,,,,,,,,,,,,,
,,,,,,,,,,stimuli/images/PICTURE_208.png,SPIRIT,5ea04f7cbe679a07850012ce,5ea04f7cbe679a07850012,2020-09-12_10h22.56.003,proactive3.2,2020.1.2,Win32,60,5f5adea66120081ea0f57a61,5f5c9284f58e6648422eafaf,4,,,,,,microphone,,,,,,0,19,19,28,1,3,2,,,,,,,,,,,,,,,,,,,,,,,,,,,,,,,,,,,,,,,,,,,,,,,,,,,,,,,,,,,,,,,,,,,,,,,,,,,
,,,,,,,,,,stimuli/images/PICTURE_509.png,BATH,5ea04f7cbe679a07850012ce,5ea04f7cbe679a07850012,2020-09-12_10h22.56.003,proactive3.2,2020.1.2,Win32,60,5f5adea66120081ea0f57a61,5f5c9284f58e6648422eafaf,4,,,,,,telephone,,,,,,0,20,20,15,1,2,2,,,,,,,,,,,,,,,,,,,,,,,,,,,,,,,,,,,,,,,,,,,,,,,,,,,,,,,,,,,,,,,,,,,,,,,,,,,
,,,,,,,,,,stimuli/images/PICTURE_93.png,GIRL,5ea04f7cbe679a07850012ce,5ea04f7cbe679a07850012,2020-09-12_10h22.56.003,proactive3.2,2020.1.2,Win32,60,5f5adea66120081ea0f57a61,5f5c9284f58e6648422eafaf,4,,,,,,skateboard,,,,,,0,21,21,31,1,4,2,,,,,,,,,,,,,,,,,,,,,,,,,,,,,,,,,,,,,,,,,,,,,,,,,,,,,,,,,,,,,,,,,,,,,,,,,,,
,,,,,,,,,,stimuli/images/PICTURE_654.png,YEAR,5ea04f7cbe679a07850012ce,5ea04f7cbe679a07850012,2020-09-12_10h22.56.003,proactive3.2,2020.1.2,Win32,60,5f5adea66120081ea0f57a61,5f5c9284f58e6648422eafaf,4,,,,,,pencil,,,,,,0,22,22,41,1,5,2,,,,,,,,,,,,,,,,,,,,,,,,,,,,,,,,,,,,,,,,,,,,,,,,,,,,,,,,,,,,,,,,,,,,,,,,,,,
,,,,,,,,,,stimuli/images/PICTURE_688.png,CLOCK,5ea04f7cbe679a07850012ce,5ea04f7cbe679a07850012,2020-09-12_10h22.56.003,proactive3.2,2020.1.2,Win32,60,5f5adea66120081ea0f57a61,5f5c9284f58e6648422eafaf,4,,,,,,runner,,,,,,0,23,23,42,1,5,2,,,,,,,,,,,,,,,,,,,,,,,,,,,,,,,,,,,,,,,,,,,,,,,,,,,,,,,,,,,,,,,,,,,,,,,,,,,
,,,,,,,,,,stimuli/images/PICTURE_311.png,TOILET,5ea04f7cbe679a07850012ce,5ea04f7cbe679a07850012,2020-09-12_10h22.56.003,proactive3.2,2020.1.2,Win32,60,5f5adea66120081ea0f57a61,5f5c9284f58e6648422eafaf,4,,,,,,razor,,,,,,0,24,24,54,1,6,2,,,,,,,,,,,,,,,,,,,,,,,,,,,,,,,,,,,,,,,,,,,,,,,,,,,,,,,,,,,,,,,,,,,,,,,,,,,
,,,,,,,,,,stimuli/images/PICTURE_504.png,HOUSE,5ea04f7cbe679a07850012ce,5ea04f7cbe679a07850012,2020-09-12_10h22.56.003,proactive3.2,2020.1.2,Win32,60,5f5adea66120081ea0f57a61,5f5c9284f58e6648422eafaf,4,,,,,,wheel,,,,,,0,25,25,36,1,4,2,,,,,,,,,,,,,,,,,,,,,,,,,,,,,,,,,,,,,,,,,,,,,,,,,,,,,,,,,,,,,,,,,,,,,,,,,,,
,,,,,,,,,,stimuli/images/PICTURE_403.png,FAMILY,5ea04f7cbe679a07850012ce,5ea04f7cbe679a07850012,2020-09-12_10h22.56.003,proactive3.2,2020.1.2,Win32,60,5f5adea66120081ea0f57a61,5f5c9284f58e6648422eafaf,4,,,,,,cathedral,,,,,,0,26,26,9,1,1,2,,,,,,,,,,,,,,,,,,,,,,,,,,,,,,,,,,,,,,,,,,,,,,,,,,,,,,,,,,,,,,,,,,,,,,,,,,,
,,,,,,,,,,stimuli/images/PICTURE_677.png,FAMILY,5ea04f7cbe679a07850012ce,5ea04f7cbe679a07850012,2020-09-12_10h22.56.003,proactive3.2,2020.1.2,Win32,60,5f5adea66120081ea0f57a61,5f5c9284f58e6648422eafaf,4,,,,,,map,,,,,,0,27,27,53,1,6,2,,,,,,,,,,,,,,,,,,,,,,,,,,,,,,,,,,,,,,,,,,,,,,,,,,,,,,,,,,,,,,,,,,,,,,,,,,,
,,,,,,,,,,stimuli/images/PICTURE_215.png,FOOD,5ea04f7cbe679a07850012ce,5ea04f7cbe679a07850012,2020-09-12_10h22.56.003,proactive3.2,2020.1.2,Win32,60,5f5adea66120081ea0f57a61,5f5c9284f58e6648422eafaf,4,,,,,,boot,,,,,,0,28,28,5,1,1,2,,,,,,,,,,,,,,,,,,,,,,,,,,,,,,,,,,,,,,,,,,,,,,,,,,,,,,,,,,,,,,,,,,,,,,,,,,,
,,,,,,,,,,stimuli/images/PICTURE_68.png,KIND,5ea04f7cbe679a07850012ce,5ea04f7cbe679a07850012,2020-09-12_10h22.56.003,proactive3.2,2020.1.2,Win32,60,5f5adea66120081ea0f57a61,5f5c9284f58e6648422eafaf,4,,,,,,candle,,,,,,0,29,29,23,1,3,2,,,,,,,,,,,,,,,,,,,,,,,,,,,,,,,,,,,,,,,,,,,,,,,,,,,,,,,,,,,,,,,,,,,,,,,,,,,
,,,,,,,,,,stimuli/images/PICTURE_453.png,FAMILY,5ea04f7cbe679a07850012ce,5ea04f7cbe679a07850012,2020-09-12_10h22.56.003,proactive3.2,2020.1.2,Win32,60,5f5adea66120081ea0f57a61,5f5c9284f58e6648422eafaf,4,,,,,,scissors,,,,,,0,30,30,48,1,5,2,,,,,,,,,,,,,,,,,,,,,,,,,,,,,,,,,,,,,,,,,,,,,,,,,,,,,,,,,,,,,,,,,,,,,,,,,,,
,,,,,,,,,,stimuli/images/PICTURE_215.png,LEADER,5ea04f7cbe679a07850012ce,5ea04f7cbe679a07850012,2020-09-12_10h22.56.003,proactive3.2,2020.1.2,Win32,60,5f5adea66120081ea0f57a61,5f5c9284f58e6648422eafaf,4,,,,,,boot,,,,,,0,31,31,43,1,5,2,,,,,,,,,,,,,,,,,,,,,,,,,,,,,,,,,,,,,,,,,,,,,,,,,,,,,,,,,,,,,,,,,,,,,,,,,,,
,,,,,,,,,,stimuli/images/PICTURE_677.png,PHOTO,5ea04f7cbe679a07850012ce,5ea04f7cbe679a07850012,2020-09-12_10h22.56.003,proactive3.2,2020.1.2,Win32,60,5f5adea66120081ea0f57a61,5f5c9284f58e6648422eafaf,4,,,,,,map,,,,,,0,32,32,14,1,2,2,,,,,,,,,,,,,,,,,,,,,,,,,,,,,,,,,,,,,,,,,,,,,,,,,,,,,,,,,,,,,,,,,,,,,,,,,,,
,,,,,,,,,,stimuli/images/PICTURE_33.png,COPS,5ea04f7cbe679a07850012ce,5ea04f7cbe679a07850012,2020-09-12_10h22.56.003,proactive3.2,2020.1.2,Win32,60,5f5adea66120081ea0f57a61,5f5c9284f58e6648422eafaf,4,,,,,,frame,,,,,,0,33,33,29,1,3,2,,,,,,,,,,,,,,,,,,,,,,,,,,,,,,,,,,,,,,,,,,,,,,,,,,,,,,,,,,,,,,,,,,,,,,,,,,,
,,,,,,,,,,stimuli/images/PICTURE_356.png,CANDY,5ea04f7cbe679a07850012ce,5ea04f7cbe679a07850012,2020-09-12_10h22.56.003,proactive3.2,2020.1.2,Win32,60,5f5adea66120081ea0f57a61,5f5c9284f58e6648422eafaf,4,,,,,,pawn,,,,,,0,34,34,46,1,5,2,,,,,,,,,,,,,,,,,,,,,,,,,,,,,,,,,,,,,,,,,,,,,,,,,,,,,,,,,,,,,,,,,,,,,,,,,,,
,,,,,,,,,,stimuli/images/PICTURE_311.png,FLESH,5ea04f7cbe679a07850012ce,5ea04f7cbe679a07850012,2020-09-12_10h22.56.003,proactive3.2,2020.1.2,Win32,60,5f5adea66120081ea0f57a61,5f5c9284f58e6648422eafaf,4,,,,,,razor,,,,,,0,35,35,3,1,1,2,,,,,,,,,,,,,,,,,,,,,,,,,,,,,,,,,,,,,,,,,,,,,,,,,,,,,,,,,,,,,,,,,,,,,,,,,,,
,,,,,,,,,,stimuli/images/PICTURE_491.png,SERIES,5ea04f7cbe679a07850012ce,5ea04f7cbe679a07850012,2020-09-12_10h22.56.003,proactive3.2,2020.1.2,Win32,60,5f5adea66120081ea0f57a61,5f5c9284f58e6648422eafaf,4,,,,,,rug,,,,,,0,36,36,39,1,4,2,,,,,,,,,,,,,,,,,,,,,,,,,,,,,,,,,,,,,,,,,,,,,,,,,,,,,,,,,,,,,,,,,,,,,,,,,,,
,,,,,,,,,,stimuli/images/PICTURE_18.png,RIVER,5ea04f7cbe679a07850012ce,5ea04f7cbe679a07850012,2020-09-12_10h22.56.003,proactive3.2,2020.1.2,Win32,60,5f5adea66120081ea0f57a61,5f5c9284f58e6648422eafaf,4,,,,,,planet,,,,,,0,37,37,22,1,3,2,,,,,,,,,,,,,,,,,,,,,,,,,,,,,,,,,,,,,,,,,,,,,,,,,,,,,,,,,,,,,,,,,,,,,,,,,,,
,,,,,,,,,,stimuli/images/PICTURE_255.png,PENNY,5ea04f7cbe679a07850012ce,5ea04f7cbe679a07850012,2020-09-12_10h22.56.003,proactive3.2,2020.1.2,Win32,60,5f5adea66120081ea0f57a61,5f5c9284f58e6648422eafaf,4,,,,,,shovel,,,,,,0,38,38,19,1,2,2,,,,,,,,,,,,,,,,,,,,,,,,,,,,,,,,,,,,,,,,,,,,,,,,,,,,,,,,,,,,,,,,,,,,,,,,,,,
,,,,,,,,,,stimuli/images/PICTURE_2.png,JUNGLE,5ea04f7cbe679a07850012ce,5ea04f7cbe679a07850012,2020-09-12_10h22.56.003,proactive3.2,2020.1.2,Win32,60,5f5adea66120081ea0f57a61,5f5c9284f58e6648422eafaf,4,,,,,,tyre,,,,,,0,39,39,1,1,1,2,,,,,,,,,,,,,,,,,,,,,,,,,,,,,,,,,,,,,,,,,,,,,,,,,,,,,,,,,,,,,,,,,,,,,,,,,,,
,,,,,,,,,,stimuli/images/PICTURE_297.png,BODY,5ea04f7cbe679a07850012ce,5ea04f7cbe679a07850012,2020-09-12_10h22.56.003,proactive3.2,2020.1.2,Win32,60,5f5adea66120081ea0f57a61,5f5c9284f58e6648422eafaf,4,,,,,,aeroplane,,,,,,0,40,40,51,1,6,2,,,,,,,,,,,,,,,,,,,,,,,,,,,,,,,,,,,,,,,,,,,,,,,,,,,,,,,,,,,,,,,,,,,,,,,,,,,
,,,,,,,,,,stimuli/images/PICTURE_487.png,POLICY,5ea04f7cbe679a07850012ce,5ea04f7cbe679a07850012,2020-09-12_10h22.56.003,proactive3.2,2020.1.2,Win32,60,5f5adea66120081ea0f57a61,5f5c9284f58e6648422eafaf,4,,,,,,basket,,,,,,0,41,41,34,1,4,2,,,,,,,,,,,,,,,,,,,,,,,,,,,,,,,,,,,,,,,,,,,,,,,,,,,,,,,,,,,,,,,,,,,,,,,,,,,
,,,,,,,,,,stimuli/images/PICTURE_285.png,WRITER,5ea04f7cbe679a07850012ce,5ea04f7cbe679a07850012,2020-09-12_10h22.56.003,proactive3.2,2020.1.2,Win32,60,5f5adea66120081ea0f57a61,5f5c9284f58e6648422eafaf,4,,,,,,carrot,,,,,,0,42,42,6,1,1,2,,,,,,,,,,,,,,,,,,,,,,,,,,,,,,,,,,,,,,,,,,,,,,,,,,,,,,,,,,,,,,,,,,,,,,,,,,,
,,,,,,,,,,stimuli/images/PICTURE_654.png,COPS,5ea04f7cbe679a07850012ce,5ea04f7cbe679a07850012,2020-09-12_10h22.56.003,proactive3.2,2020.1.2,Win32,60,5f5adea66120081ea0f57a61,5f5c9284f58e6648422eafaf,4,,,,,,pencil,,,,,,0,43,43,10,1,2,2,,,,,,,,,,,,,,,,,,,,,,,,,,,,,,,,,,,,,,,,,,,,,,,,,,,,,,,,,,,,,,,,,,,,,,,,,,,
,,,,,,,,,,stimuli/images/PICTURE_708.png,VALLEY,5ea04f7cbe679a07850012ce,5ea04f7cbe679a07850012,2020-09-12_10h22.56.003,proactive3.2,2020.1.2,Win32,60,5f5adea66120081ea0f57a61,5f5c9284f58e6648422eafaf,4,,,,,,monkey,,,,,,0,44,44,45,1,5,2,,,,,,,,,,,,,,,,,,,,,,,,,,,,,,,,,,,,,,,,,,,,,,,,,,,,,,,,,,,,,,,,,,,,,,,,,,,
,,,,,,,,,,stimuli/images/PICTURE_452.png,COPS,5ea04f7cbe679a07850012ce,5ea04f7cbe679a07850012,2020-09-12_10h22.56.003,proactive3.2,2020.1.2,Win32,60,5f5adea66120081ea0f57a61,5f5c9284f58e6648422eafaf,4,,,,,,watch,,,,,,0,45,45,0,1,1,2,,,,,,,,,,,,,,,,,,,,,,,,,,,,,,,,,,,,,,,,,,,,,,,,,,,,,,,,,,,,,,,,,,,,,,,,,,,
,,,,,,,,,,stimuli/images/PICTURE_405.png,HOUSE,5ea04f7cbe679a07850012ce,5ea04f7cbe679a07850012,2020-09-12_10h22.56.003,proactive3.2,2020.1.2,Win32,60,5f5adea66120081ea0f57a61,5f5c9284f58e6648422eafaf,4,,,,,,anchor,,,,,,0,46,46,2,1,1,2,,,,,,,,,,,,,,,,,,,,,,,,,,,,,,,,,,,,,,,,,,,,,,,,,,,,,,,,,,,,,,,,,,,,,,,,,,,
,,,,,,,,,,stimuli/images/PICTURE_2.png,AREA,5ea04f7cbe679a07850012ce,5ea04f7cbe679a07850012,2020-09-12_10h22.56.003,proactive3.2,2020.1.2,Win32,60,5f5adea66120081ea0f57a61,5f5c9284f58e6648422eafaf,4,,,,,,tyre,,,,,,0,47,47,32,1,4,2,,,,,,,,,,,,,,,,,,,,,,,,,,,,,,,,,,,,,,,,,,,,,,,,,,,,,,,,,,,,,,,,,,,,,,,,,,,
,,,,,,,,,,stimuli/images/PICTURE_667.png,GLASS,5ea04f7cbe679a07850012ce,5ea04f7cbe679a07850012,2020-09-12_10h22.56.003,proactive3.2,2020.1.2,Win32,60,5f5adea66120081ea0f57a61,5f5c9284f58e6648422eafaf,4,,,,,,daisy,,,,,,0,48,48,27,1,3,2,,,,,,,,,,,,,,,,,,,,,,,,,,,,,,,,,,,,,,,,,,,,,,,,,,,,,,,,,,,,,,,,,,,,,,,,,,,
,,,,,,,,,,stimuli/images/PICTURE_348.png,DUDE,5ea04f7cbe679a07850012ce,5ea04f7cbe679a07850012,2020-09-12_10h22.56.003,proactive3.2,2020.1.2,Win32,60,5f5adea66120081ea0f57a61,5f5c9284f58e6648422eafaf,4,,,,,,pepper,,,,,,0,49,49,59,1,6,2,,,,,,,,,,,,,,,,,,,,,,,,,,,,,,,,,,,,,,,,,,,,,,,,,,,,,,,,,,,,,,,,,,,,,,,,,,,
,,,,,,,,,,stimuli/images/PICTURE_348.png,TOILET,5ea04f7cbe679a07850012ce,5ea04f7cbe679a07850012,2020-09-12_10h22.56.003,proactive3.2,2020.1.2,Win32,60,5f5adea66120081ea0f57a61,5f5c9284f58e6648422eafaf,4,,,,,,pepper,,,,,,0,50,50,4,1,1,2,,,,,,,,,,,,,,,,,,,,,,,,,,,,,,,,,,,,,,,,,,,,,,,,,,,,,,,,,,,,,,,,,,,,,,,,,,,
,,,,,,,,,,stimuli/images/PICTURE_215.png,BOYS,5ea04f7cbe679a07850012ce,5ea04f7cbe679a07850012,2020-09-12_10h22.56.003,proactive3.2,2020.1.2,Win32,60,5f5adea66120081ea0f57a61,5f5c9284f58e6648422eafaf,4,,,,,,boot,,,,,,0,51,51,24,1,3,2,,,,,,,,,,,,,,,,,,,,,,,,,,,,,,,,,,,,,,,,,,,,,,,,,,,,,,,,,,,,,,,,,,,,,,,,,,,
,,,,,,,,,,stimuli/images/PICTURE_470.png,MOMENT,5ea04f7cbe679a07850012ce,5ea04f7cbe679a07850012,2020-09-12_10h22.56.003,proactive3.2,2020.1.2,Win32,60,5f5adea66120081ea0f57a61,5f5c9284f58e6648422eafaf,4,,,,,,motorbike,,,,,,0,52,52,40,1,5,2,,,,,,,,,,,,,,,,,,,,,,,,,,,,,,,,,,,,,,,,,,,,,,,,,,,,,,,,,,,,,,,,,,,,,,,,,,,
,,,,,,,,,,stimuli/images/PICTURE_57.png,CANDY,5ea04f7cbe679a07850012ce,5ea04f7cbe679a07850012,2020-09-12_10h22.56.003,proactive3.2,2020.1.2,Win32,60,5f5adea66120081ea0f57a61,5f5c9284f58e6648422eafaf,4,,,,,,stamp,,,,,,0,53,53,52,1,6,2,,,,,,,,,,,,,,,,,,,,,,,,,,,,,,,,,,,,,,,,,,,,,,,,,,,,,,,,,,,,,,,,,,,,,,,,,,,
,,,,,,,,,,stimuli/images/PICTURE_141.png,CLIENT,5ea04f7cbe679a07850012ce,5ea04f7cbe679a07850012,2020-09-12_10h22.56.003,proactive3.2,2020.1.2,Win32,60,5f5adea66120081ea0f57a61,5f5c9284f58e6648422eafaf,4,,,,,,sunflower,,,,,,0,54,54,30,1,4,2,,,,,,,,,,,,,,,,,,,,,,,,,,,,,,,,,,,,,,,,,,,,,,,,,,,,,,,,,,,,,,,,,,,,,,,,,,,
,,,,,,,,,,stimuli/images/PICTURE_405.png,JUNGLE,5ea04f7cbe679a07850012ce,5ea04f7cbe679a07850012,2020-09-12_10h22.56.003,proactive3.2,2020.1.2,Win32,60,5f5adea66120081ea0f57a61,5f5c9284f58e6648422eafaf,4,,,,,,anchor,,,,,,0,55,55,58,1,6,2,,,,,,,,,,,,,,,,,,,,,,,,,,,,,,,,,,,,,,,,,,,,,,,,,,,,,,,,,,,,,,,,,,,,,,,,,,,
,,,,,,,,,,stimuli/images/PICTURE_177.png,HOUSE,5ea04f7cbe679a07850012ce,5ea04f7cbe679a07850012,2020-09-12_10h22.56.003,proactive3.2,2020.1.2,Win32,60,5f5adea66120081ea0f57a61,5f5c9284f58e6648422eafaf,4,,,,,,mushroom,,,,,,0,56,56,25,1,3,2,,,,,,,,,,,,,,,,,,,,,,,,,,,,,,,,,,,,,,,,,,,,,,,,,,,,,,,,,,,,,,,,,,,,,,,,,,,
,,,,,,,,,,stimuli/images/PICTURE_123.png,SALE,5ea04f7cbe679a07850012ce,5ea04f7cbe679a07850012,2020-09-12_10h22.56.003,proactive3.2,2020.1.2,Win32,60,5f5adea66120081ea0f57a61,5f5c9284f58e6648422eafaf,4,,,,,,dart,,,,,,0,57,57,8,1,1,2,,,,,,,,,,,,,,,,,,,,,,,,,,,,,,,,,,,,,,,,,,,,,,,,,,,,,,,,,,,,,,,,,,,,,,,,,,,
,,,,,,,,,,stimuli/images/PICTURE_2.png,YARD,5ea04f7cbe679a07850012ce,5ea04f7cbe679a07850012,2020-09-12_10h22.56.003,proactive3.2,2020.1.2,Win32,60,5f5adea66120081ea0f57a61,5f5c9284f58e6648422eafaf,4,,,,,,tyre,,,,,,0,58,58,55,1,6,2,,,,,,,,,,,,,,,,,,,,,,,,,,,,,,,,,,,,,,,,,,,,,,,,,,,,,,,,,,,,,,,,,,,,,,,,,,,
,,?,0.00233,0,,,,,,stimuli/images/PICTURE_470.png,BEAUTY,5ea04f7cbe679a07850012ce,5ea04f7cbe679a07850012,2020-09-12_10h22.56.003,proactive3.2,2020.1.2,Win32,60,5f5adea66120081ea0f57a61,5f5c9284f58e6648422eafaf,4,,,,,,motorbike,,,,,,,,,,,3,2,0,0,0,26,1,,,,,,,,,,,,,,,,,,,,,,,,,,,,,,,,,,,,,,,,,,,,,,,,,,,,,,,,,,,,,,,,,,,,,,
,,NIGHT,15.013515,1,,,,,,stimuli/images/PICTURE_95.png,NIGHT,5ea04f7cbe679a07850012ce,5ea04f7cbe679a07850012,2020-09-12_10h22.56.003,proactive3.2,2020.1.2,Win32,60,5f5adea66120081ea0f57a61,5f5c9284f58e6648422eafaf,4,,,,,,suitcase,,,,,,,,,,,4,2,0,1,1,37,1,,,,,,,,,,,,,,,,,,,,,,,,,,,,,,,,,,,,,,,,,,,,,,,,,,,,,,,,,,,,,,,,,,,,,,
,,?,0.00176,0,,,,,,stimuli/images/PICTURE_2.png,YARD,5ea04f7cbe679a07850012ce,5ea04f7cbe679a07850012,2020-09-12_10h22.56.003,proactive3.2,2020.1.2,Win32,60,5f5adea66120081ea0f57a61,5f5c9284f58e6648422eafaf,4,,,,,,tyre,,,,,,,,,,,6,2,0,2,2,55,1,,,,,,,,,,,,,,,,,,,,,,,,,,,,,,,,,,,,,,,,,,,,,,,,,,,,,,,,,,,,,,,,,,,,,,
,,?,0.001715,0,,,,,,stimuli/images/PICTURE_285.png,WRITER,5ea04f7cbe679a07850012ce,5ea04f7cbe679a07850012,2020-09-12_10h22.56.003,proactive3.2,2020.1.2,Win32,60,5f5adea66120081ea0f57a61,5f5c9284f58e6648422eafaf,4,,,,,,carrot,,,,,,,,,,,1,2,0,3,3,6,1,,,,,,,,,,,,,,,,,,,,,,,,,,,,,,,,,,,,,,,,,,,,,,,,,,,,,,,,,,,,,,,,,,,,,,
,,?,0.001645,0,,,,,,stimuli/images/PICTURE_405.png,HOUSE,5ea04f7cbe679a07850012ce,5ea04f7cbe679a07850012,2020-09-12_10h22.56.003,proactive3.2,2020.1.2,Win32,60,5f5adea66120081ea0f57a61,5f5c9284f58e6648422eafaf,4,,,,,,anchor,,,,,,,,,,,1,2,0,4,4,2,1,,,,,,,,,,,,,,,,,,,,,,,,,,,,,,,,,,,,,,,,,,,,,,,,,,,,,,,,,,,,,,,,,,,,,,
,,?,0.001585,0,,,,,,stimuli/images/PICTURE_311.png,FLESH,5ea04f7cbe679a07850012ce,5ea04f7cbe679a07850012,2020-09-12_10h22.56.003,proactive3.2,2020.1.2,Win32,60,5f5adea66120081ea0f57a61,5f5c9284f58e6648422eafaf,4,,,,,,razor,,,,,,,,,,,1,2,0,5,5,3,1,,,,,,,,,,,,,,,,,,,,,,,,,,,,,,,,,,,,,,,,,,,,,,,,,,,,,,,,,,,,,,,,,,,,,,
,,?,0.00177,0,,,,,,stimuli/images/PICTURE_18.png,RIVER,5ea04f7cbe679a07850012ce,5ea04f7cbe679a07850012,2020-09-12_10h22.56.003,proactive3.2,2020.1.2,Win32,60,5f5adea66120081ea0f57a61,5f5c9284f58e6648422eafaf,4,,,,,,planet,,,,,,,,,,,3,2,0,6,6,22,1,,,,,,,,,,,,,,,,,,,,,,,,,,,,,,,,,,,,,,,,,,,,,,,,,,,,,,,,,,,,,,,,,,,,,,
,,POLICY,15.00396,1,,,,,,stimuli/images/PICTURE_487.png,POLICY,5ea04f7cbe679a07850012ce,5ea04f7cbe679a07850012,2020-09-12_10h22.56.003,proactive3.2,2020.1.2,Win32,60,5f5adea66120081ea0f57a61,5f5c9284f58e6648422eafaf,4,,,,,,basket,,,,,,,,,,,4,2,0,7,7,34,1,,,,,,,,,,,,,,,,,,,,,,,,,,,,,,,,,,,,,,,,,,,,,,,,,,,,,,,,,,,,,,,,,,,,,,
,,?,0.00185,0,,,,,,stimuli/images/PICTURE_403.png,FAMILY,5ea04f7cbe679a07850012ce,5ea04f7cbe679a07850012,2020-09-12_10h22.56.003,proactive3.2,2020.1.2,Win32,60,5f5adea66120081ea0f57a61,5f5c9284f58e6648422eafaf,4,,,,,,cathedral,,,,,,,,,,,1,2,0,8,8,9,1,,,,,,,,,,,,,,,,,,,,,,,,,,,,,,,,,,,,,,,,,,,,,,,,,,,,,,,,,,,,,,,,,,,,,,
,,?,0.001645,0,,,,,,stimuli/images/PICTURE_57.png,CANDY,5ea04f7cbe679a07850012ce,5ea04f7cbe679a07850012,2020-09-12_10h22.56.003,proactive3.2,2020.1.2,Win32,60,5f5adea66120081ea0f57a61,5f5c9284f58e6648422eafaf,4,,,,,,stamp,,,,,,,,,,,6,2,0,9,9,52,1,,,,,,,,,,,,,,,,,,,,,,,,,,,,,,,,,,,,,,,,,,,,,,,,,,,,,,,,,,,,,,,,,,,,,,
,,?,0.001595,0,,,,,,stimuli/images/PICTURE_356.png,CANDY,5ea04f7cbe679a07850012ce,5ea04f7cbe679a07850012,2020-09-12_10h22.56.003,proactive3.2,2020.1.2,Win32,60,5f5adea66120081ea0f57a61,5f5c9284f58e6648422eafaf,4,,,,,,pawn,,,,,,,,,,,5,2,0,10,10,46,1,,,,,,,,,,,,,,,,,,,,,,,,,,,,,,,,,,,,,,,,,,,,,,,,,,,,,,,,,,,,,,,,,,,,,,
,,?,0.001935,0,,,,,,stimuli/images/PICTURE_487.png,ROOF,5ea04f7cbe679a07850012ce,5ea04f7cbe679a07850012,2020-09-12_10h22.56.003,proactive3.2,2020.1.2,Win32,60,5f5adea66120081ea0f57a61,5f5c9284f58e6648422eafaf,4,,,,,,basket,,,,,,,,,,,6,2,0,11,11,50,1,,,,,,,,,,,,,,,,,,,,,,,,,,,,,,,,,,,,,,,,,,,,,,,,,,,,,,,,,,,,,,,,,,,,,,
,,?,0.00211,0,,,,,,stimuli/images/PICTURE_177.png,HOUSE,5ea04f7cbe679a07850012ce,5ea04f7cbe679a07850012,2020-09-12_10h22.56.003,proactive3.2,2020.1.2,Win32,60,5f5adea66120081ea0f57a61,5f5c9284f58e6648422eafaf,4,,,,,,mushroom,,,,,,,,,,,3,2,0,12,12,25,1,,,,,,,,,,,,,,,,,,,,,,,,,,,,,,,,,,,,,,,,,,,,,,,,,,,,,,,,,,,,,,,,,,,,,,
,,?,0.001645,0,,,,,,stimuli/images/PICTURE_677.png,FAMILY,5ea04f7cbe679a07850012ce,5ea04f7cbe679a07850012,2020-09-12_10h22.56.003,proactive3.2,2020.1.2,Win32,60,5f5adea66120081ea0f57a61,5f5c9284f58e6648422eafaf,4,,,,,,map,,,,,,,,,,,6,2,0,13,13,53,1,,,,,,,,,,,,,,,,,,,,,,,,,,,,,,,,,,,,,,,,,,,,,,,,,,,,,,,,,,,,,,,,,,,,,,
,,?,0.001625,0,,,,,,stimuli/images/PICTURE_509.png,MILLER,5ea04f7cbe679a07850012ce,5ea04f7cbe679a07850012,2020-09-12_10h22.56.003,proactive3.2,2020.1.2,Win32,60,5f5adea66120081ea0f57a61,5f5c9284f58e6648422eafaf,4,,,,,,telephone,,,,,,,,,,,5,2,0,14,14,49,1,,,,,,,,,,,,,,,,,,,,,,,,,,,,,,,,,,,,,,,,,,,,,,,,,,,,,,,,,,,,,,,,,,,,,,
,,?,0.001075,0,,,,,,stimuli/images/PICTURE_285.png,PRINCE,5ea04f7cbe679a07850012ce,5ea04f7cbe679a07850012,2020-09-12_10h22.56.003,proactive3.2,2020.1.2,Win32,60,5f5adea66120081ea0f57a61,5f5c9284f58e6648422eafaf,4,,,,,,carrot,,,,,,,,,,,3,2,0,15,15,20,1,,,,,,,,,,,,,,,,,,,,,,,,,,,,,,,,,,,,,,,,,,,,,,,,,,,,,,,,,,,,,,,,,,,,,,
,,?,0.001075,0,,,,,,stimuli/images/PICTURE_123.png,SALE,5ea04f7cbe679a07850012ce,5ea04f7cbe679a07850012,2020-09-12_10h22.56.003,proactive3.2,2020.1.2,Win32,60,5f5adea66120081ea0f57a61,5f5c9284f58e6648422eafaf,4,,,,,,dart,,,,,,,,,,,1,2,0,16,16,8,1,,,,,,,,,,,,,,,,,,,,,,,,,,,,,,,,,,,,,,,,,,,,,,,,,,,,,,,,,,,,,,,,,,,,,,
,,?,0.00111,0,,,,,,stimuli/images/PICTURE_68.png,KIND,5ea04f7cbe679a07850012ce,5ea04f7cbe679a07850012,2020-09-12_10h22.56.003,proactive3.2,2020.1.2,Win32,60,5f5adea66120081ea0f57a61,5f5c9284f58e6648422eafaf,4,,,,,,candle,,,,,,,,,,,3,2,0,17,17,23,1,,,,,,,,,,,,,,,,,,,,,,,,,,,,,,,,,,,,,,,,,,,,,,,,,,,,,,,,,,,,,,,,,,,,,,
,,?,0.001135,0,,,,,,stimuli/images/PICTURE_708.png,VALLEY,5ea04f7cbe679a07850012ce,5ea04f7cbe679a07850012,2020-09-12_10h22.56.003,proactive3.2,2020.1.2,Win32,60,5f5adea66120081ea0f57a61,5f5c9284f58e6648422eafaf,4,,,,,,monkey,,,,,,,,,,,5,2,0,18,18,45,1,,,,,,,,,,,,,,,,,,,,,,,,,,,,,,,,,,,,,,,,,,,,,,,,,,,,,,,,,,,,,,,,,,,,,,
,,?,0.001075,0,,,,,,stimuli/images/PICTURE_470.png,MOMENT,5ea04f7cbe679a07850012ce,5ea04f7cbe679a07850012,2020-09-12_10h22.56.003,proactive3.2,2020.1.2,Win32,60,5f5adea66120081ea0f57a61,5f5c9284f58e6648422eafaf,4,,,,,,motorbike,,,,,,,,,,,5,2,0,19,19,40,1,,,,,,,,,,,,,,,,,,,,,,,,,,,,,,,,,,,,,,,,,,,,,,,,,,,,,,,,,,,,,,,,,,,,,,
,,?,0.00224,0,,,,,,stimuli/images/PICTURE_654.png,YEAR,5ea04f7cbe679a07850012ce,5ea04f7cbe679a07850012,2020-09-12_10h22.56.003,proactive3.2,2020.1.2,Win32,60,5f5adea66120081ea0f57a61,5f5c9284f58e6648422eafaf,4,,,,,,pencil,,,,,,,,,,,5,2,0,20,20,41,1,,,,,,,,,,,,,,,,,,,,,,,,,,,,,,,,,,,,,,,,,,,,,,,,,,,,,,,,,,,,,,,,,,,,,,
,,?,0.001445,0,,,,,,stimuli/images/PICTURE_57.png,NATION,5ea04f7cbe679a07850012ce,5ea04f7cbe679a07850012,2020-09-12_10h22.56.003,proactive3.2,2020.1.2,Win32,60,5f5adea66120081ea0f57a61,5f5c9284f58e6648422eafaf,4,,,,,,stamp,,,,,,,,,,,3,2,0,21,21,21,1,,,,,,,,,,,,,,,,,,,,,,,,,,,,,,,,,,,,,,,,,,,,,,,,,,,,,,,,,,,,,,,,,,,,,,
,,?,0.00141,0,,,,,,stimuli/images/PICTURE_405.png,JUNGLE,5ea04f7cbe679a07850012ce,5ea04f7cbe679a07850012,2020-09-12_10h22.56.003,proactive3.2,2020.1.2,Win32,60,5f5adea66120081ea0f57a61,5f5c9284f58e6648422eafaf,4,,,,,,anchor,,,,,,,,,,,2,2,0,22,22,13,1,,,,,,,,,,,,,,,,,,,,,,,,,,,,,,,,,,,,,,,,,,,,,,,,,,,,,,,,,,,,,,,,,,,,,,
,,?,0.00107,0,,,,,,stimuli/images/PICTURE_453.png,FAMILY,5ea04f7cbe679a07850012ce,5ea04f7cbe679a07850012,2020-09-12_10h22.56.003,proactive3.2,2020.1.2,Win32,60,5f5adea66120081ea0f57a61,5f5c9284f58e6648422eafaf,4,,,,,,scissors,,,,,,,,,,,5,2,0,23,23,48,1,,,,,,,,,,,,,,,,,,,,,,,,,,,,,,,,,,,,,,,,,,,,,,,,,,,,,,,,,,,,,,,,,,,,,,
,,?,0.00086,0,,,,,,stimuli/images/PICTURE_215.png,LEADER,5ea04f7cbe679a07850012ce,5ea04f7cbe679a07850012,2020-09-12_10h22.56.003,proactive3.2,2020.1.2,Win32,60,5f5adea66120081ea0f57a61,5f5c9284f58e6648422eafaf,4,,,,,,boot,,,,,,,,,,,5,2,0,24,24,43,1,,,,,,,,,,,,,,,,,,,,,,,,,,,,,,,,,,,,,,,,,,,,,,,,,,,,,,,,,,,,,,,,,,,,,,
,,?,0.00086,0,,,,,,stimuli/images/PICTURE_255.png,PENNY,5ea04f7cbe679a07850012ce,5ea04f7cbe679a07850012,2020-09-12_10h22.56.003,proactive3.2,2020.1.2,Win32,60,5f5adea66120081ea0f57a61,5f5c9284f58e6648422eafaf,4,,,,,,shovel,,,,,,,,,,,2,2,0,25,25,19,1,,,,,,,,,,,,,,,,,,,,,,,,,,,,,,,,,,,,,,,,,,,,,,,,,,,,,,,,,,,,,,,,,,,,,,
,,?,0.000915,0,,,,,,stimuli/images/PICTURE_667.png,GLASS,5ea04f7cbe679a07850012ce,5ea04f7cbe679a07850012,2020-09-12_10h22.56.003,proactive3.2,2020.1.2,Win32,60,5f5adea66120081ea0f57a61,5f5c9284f58e6648422eafaf,4,,,,,,daisy,,,,,,,,,,,3,2,0,26,26,27,1,,,,,,,,,,,,,,,,,,,,,,,,,,,,,,,,,,,,,,,,,,,,,,,,,,,,,,,,,,,,,,,,,,,,,,
,,?,0.00079,0,,,,,,stimuli/images/PICTURE_655.png,SALE,5ea04f7cbe679a07850012ce,5ea04f7cbe679a07850012,2020-09-12_10h22.56.003,proactive3.2,2020.1.2,Win32,60,5f5adea66120081ea0f57a61,5f5c9284f58e6648422eafaf,4,,,,,,megaphone,,,,,,,,,,,6,2,0,27,27,57,1,,,,,,,,,,,,,,,,,,,,,,,,,,,,,,,,,,,,,,,,,,,,,,,,,,,,,,,,,,,,,,,,,,,,,,
,,?,0.00094,0,,,,,,stimuli/images/PICTURE_33.png,COPS,5ea04f7cbe679a07850012ce,5ea04f7cbe679a07850012,2020-09-12_10h22.56.003,proactive3.2,2020.1.2,Win32,60,5f5adea66120081ea0f57a61,5f5c9284f58e6648422eafaf,4,,,,,,frame,,,,,,,,,,,3,2,0,28,28,29,1,,,,,,,,,,,,,,,,,,,,,,,,,,,,,,,,,,,,,,,,,,,,,,,,,,,,,,,,,,,,,,,,,,,,,,
,,?,0.0009,0,,,,,,stimuli/images/PICTURE_509.png,BATH,5ea04f7cbe679a07850012ce,5ea04f7cbe679a07850012,2020-09-12_10h22.56.003,proactive3.2,2020.1.2,Win32,60,5f5adea66120081ea0f57a61,5f5c9284f58e6648422eafaf,4,,,,,,telephone,,,,,,,,,,,2,2,0,29,29,15,1,,,,,,,,,,,,,,,,,,,,,,,,,,,,,,,,,,,,,,,,,,,,,,,,,,,,,,,,,,,,,,,,,,,,,,
,,?,0.000815,0,,,,,,stimuli/images/PICTURE_208.png,SPIRIT,5ea04f7cbe679a07850012ce,5ea04f7cbe679a07850012,2020-09-12_10h22.56.003,proactive3.2,2020.1.2,Win32,60,5f5adea66120081ea0f57a61,5f5c9284f58e6648422eafaf,4,,,,,,microphone,,,,,,,,,,,3,2,0,30,30,28,1,,,,,,,,,,,,,,,,,,,,,,,,,,,,,,,,,,,,,,,,,,,,,,,,,,,,,,,,,,,,,,,,,,,,,,
,,?,0.00097,0,,,,,,stimuli/images/PICTURE_677.png,PHOTO,5ea04f7cbe679a07850012ce,5ea04f7cbe679a07850012,2020-09-12_10h22.56.003,proactive3.2,2020.1.2,Win32,60,5f5adea66120081ea0f57a61,5f5c9284f58e6648422eafaf,4,,,,,,map,,,,,,,,,,,2,2,0,31,31,14,1,,,,,,,,,,,,,,,,,,,,,,,,,,,,,,,,,,,,,,,,,,,,,,,,,,,,,,,,,,,,,,,,,,,,,,
,,HOUSE,15.00191,1,,,,,,stimuli/images/PICTURE_504.png,HOUSE,5ea04f7cbe679a07850012ce,5ea04f7cbe679a07850012,2020-09-12_10h22.56.003,proactive3.2,2020.1.2,Win32,60,5f5adea66120081ea0f57a61,5f5c9284f58e6648422eafaf,4,,,,,,wheel,,,,,,,,,,,4,2,0,32,32,36,1,,,,,,,,,,,,,,,,,,,,,,,,,,,,,,,,,,,,,,,,,,,,,,,,,,,,,,,,,,,,,,,,,,,,,,
,,?,0.00172,0,,,,,,stimuli/images/PICTURE_32.png,LETTER,5ea04f7cbe679a07850012ce,5ea04f7cbe679a07850012,2020-09-12_10h22.56.003,proactive3.2,2020.1.2,Win32,60,5f5adea66120081ea0f57a61,5f5c9284f58e6648422eafaf,4,,,,,,crown,,,,,,,,,,,6,2,0,33,33,56,1,,,,,,,,,,,,,,,,,,,,,,,,,,,,,,,,,,,,,,,,,,,,,,,,,,,,,,,,,,,,,,,,,,,,,,
,,?,0.00164,0,,,,,,stimuli/images/PICTURE_348.png,TOILET,5ea04f7cbe679a07850012ce,5ea04f7cbe679a07850012,2020-09-12_10h22.56.003,proactive3.2,2020.1.2,Win32,60,5f5adea66120081ea0f57a61,5f5c9284f58e6648422eafaf,4,,,,,,pepper,,,,,,,,,,,1,2,0,34,34,4,1,,,,,,,,,,,,,,,,,,,,,,,,,,,,,,,,,,,,,,,,,,,,,,,,,,,,,,,,,,,,,,,,,,,,,,
,,?,0.001625,0,,,,,,stimuli/images/PICTURE_215.png,BOYS,5ea04f7cbe679a07850012ce,5ea04f7cbe679a07850012,2020-09-12_10h22.56.003,proactive3.2,2020.1.2,Win32,60,5f5adea66120081ea0f57a61,5f5c9284f58e6648422eafaf,4,,,,,,boot,,,,,,,,,,,3,2,0,35,35,24,1,,,,,,,,,,,,,,,,,,,,,,,,,,,,,,,,,,,,,,,,,,,,,,,,,,,,,,,,,,,,,,,,,,,,,,
,,SPEECH,15.00081,1,,,,,,stimuli/images/PICTURE_314.png,SPEECH,5ea04f7cbe679a07850012ce,5ea04f7cbe679a07850012,2020-09-12_10h22.56.003,proactive3.2,2020.1.2,Win32,60,5f5adea66120081ea0f57a61,5f5c9284f58e6648422eafaf,4,,,,,,perfume,,,,,,,,,,,4,2,0,36,36,35,1,,,,,,,,,,,,,,,,,,,,,,,,,,,,,,,,,,,,,,,,,,,,,,,,,,,,,,,,,,,,,,,,,,,,,,
,,?,0.00165,0,,,,,,stimuli/images/PICTURE_405.png,JUNGLE,5ea04f7cbe679a07850012ce,5ea04f7cbe679a07850012,2020-09-12_10h22.56.003,proactive3.2,2020.1.2,Win32,60,5f5adea66120081ea0f57a61,5f5c9284f58e6648422eafaf,4,,,,,,anchor,,,,,,,,,,,6,2,0,37,37,58,1,,,,,,,,,,,,,,,,,,,,,,,,,,,,,,,,,,,,,,,,,,,,,,,,,,,,,,,,,,,,,,,,,,,,,,
,,?,0.005985,0,,,,,,stimuli/images/PICTURE_688.png,CLOCK,5ea04f7cbe679a07850012ce,5ea04f7cbe679a07850012,2020-09-12_10h22.56.003,proactive3.2,2020.1.2,Win32,60,5f5adea66120081ea0f57a61,5f5c9284f58e6648422eafaf,4,,,,,,runner,,,,,,,,,,,5,2,0,38,38,42,1,,,,,,,,,,,,,,,,,,,,,,,,,,,,,,,,,,,,,,,,,,,,,,,,,,,,,,,,,,,,,,,,,,,,,,
,,?,0.00161,0,,,,,,stimuli/images/PICTURE_2.png,JUNGLE,5ea04f7cbe679a07850012ce,5ea04f7cbe679a07850012,2020-09-12_10h22.56.003,proactive3.2,2020.1.2,Win32,60,5f5adea66120081ea0f57a61,5f5c9284f58e6648422eafaf,4,,,,,,tyre,,,,,,,,,,,1,2,0,39,39,1,1,,,,,,,,,,,,,,,,,,,,,,,,,,,,,,,,,,,,,,,,,,,,,,,,,,,,,,,,,,,,,,,,,,,,,,
,,AREA,15.013385,1,,,,,,stimuli/images/PICTURE_2.png,AREA,5ea04f7cbe679a07850012ce,5ea04f7cbe679a07850012,2020-09-12_10h22.56.003,proactive3.2,2020.1.2,Win32,60,5f5adea66120081ea0f57a61,5f5c9284f58e6648422eafaf,4,,,,,,tyre,,,,,,,,,,,4,2,0,40,40,32,1,,,,,,,,,,,,,,,,,,,,,,,,,,,,,,,,,,,,,,,,,,,,,,,,,,,,,,,,,,,,,,,,,,,,,,
,,?,0.001885,0,,,,,,stimuli/images/PICTURE_692.png,DUDE,5ea04f7cbe679a07850012ce,5ea04f7cbe679a07850012,2020-09-12_10h22.56.003,proactive3.2,2020.1.2,Win32,60,5f5adea66120081ea0f57a61,5f5c9284f58e6648422eafaf,4,,,,,,cherry,,,,,,,,,,,5,2,0,41,41,47,1,,,,,,,,,,,,,,,,,,,,,,,,,,,,,,,,,,,,,,,,,,,,,,,,,,,,,,,,,,,,,,,,,,,,,,
,,SERIES,15.00904,1,,,,,,stimuli/images/PICTURE_491.png,SERIES,5ea04f7cbe679a07850012ce,5ea04f7cbe679a07850012,2020-09-12_10h22.56.003,proactive3.2,2020.1.2,Win32,60,5f5adea66120081ea0f57a61,5f5c9284f58e6648422eafaf,4,,,,,,rug,,,,,,,,,,,4,2,0,42,42,39,1,,,,,,,,,,,,,,,,,,,,,,,,,,,,,,,,,,,,,,,,,,,,,,,,,,,,,,,,,,,,,,,,,,,,,,
,,?,0.00187,0,,,,,,stimuli/images/PICTURE_311.png,TOILET,5ea04f7cbe679a07850012ce,5ea04f7cbe679a07850012,2020-09-12_10h22.56.003,proactive3.2,2020.1.2,Win32,60,5f5adea66120081ea0f57a61,5f5c9284f58e6648422eafaf,4,,,,,,razor,,,,,,,,,,,6,2,0,43,43,54,1,,,,,,,,,,,,,,,,,,,,,,,,,,,,,,,,,,,,,,,,,,,,,,,,,,,,,,,,,,,,,,,,,,,,,,
,,?,0.001615,0,,,,,,stimuli/images/PICTURE_509.png,SHOTS,5ea04f7cbe679a07850012ce,5ea04f7cbe679a07850012,2020-09-12_10h22.56.003,proactive3.2,2020.1.2,Win32,60,5f5adea66120081ea0f57a61,5f5c9284f58e6648422eafaf,4,,,,,,telephone,,,,,,,,,,,1,2,0,44,44,7,1,,,,,,,,,,,,,,,,,,,,,,,,,,,,,,,,,,,,,,,,,,,,,,,,,,,,,,,,,,,,,,,,,,,,,,
,,?,0.00199,0,,,,,,stimuli/images/PICTURE_750.png,POLICY,5ea04f7cbe679a07850012ce,5ea04f7cbe679a07850012,2020-09-12_10h22.56.003,proactive3.2,2020.1.2,Win32,60,5f5adea66120081ea0f57a61,5f5c9284f58e6648422eafaf,4,,,,,,kettle,,,,,,,,,,,5,2,0,45,45,44,1,,,,,,,,,,,,,,,,,,,,,,,,,,,,,,,,,,,,,,,,,,,,,,,,,,,,,,,,,,,,,,,,,,,,,,
,,?,0.00125,0,,,,,,stimuli/images/PICTURE_215.png,FOOD,5ea04f7cbe679a07850012ce,5ea04f7cbe679a07850012,2020-09-12_10h22.56.003,proactive3.2,2020.1.2,Win32,60,5f5adea66120081ea0f57a61,5f5c9284f58e6648422eafaf,4,,,,,,boot,,,,,,,,,,,1,2,0,46,46,5,1,,,,,,,,,,,,,,,,,,,,,,,,,,,,,,,,,,,,,,,,,,,,,,,,,,,,,,,,,,,,,,,,,,,,,,
,,GIRL,15.01389,1,,,,,,stimuli/images/PICTURE_93.png,GIRL,5ea04f7cbe679a07850012ce,5ea04f7cbe679a07850012,2020-09-12_10h22.56.003,proactive3.2,2020.1.2,Win32,60,5f5adea66120081ea0f57a61,5f5c9284f58e6648422eafaf,4,,,,,,skateboard,,,,,,,,,,,4,2,0,47,47,31,1,,,,,,,,,,,,,,,,,,,,,,,,,,,,,,,,,,,,,,,,,,,,,,,,,,,,,,,,,,,,,,,,,,,,,,
,,?,0.001705,0,,,,,,stimuli/images/PICTURE_348.png,DUDE,5ea04f7cbe679a07850012ce,5ea04f7cbe679a07850012,2020-09-12_10h22.56.003,proactive3.2,2020.1.2,Win32,60,5f5adea66120081ea0f57a61,5f5c9284f58e6648422eafaf,4,,,,,,pepper,,,,,,,,,,,6,2,0,48,48,59,1,,,,,,,,,,,,,,,,,,,,,,,,,,,,,,,,,,,,,,,,,,,,,,,,,,,,,,,,,,,,,,,,,,,,,,
,,?,0.001725,0,,,,,,stimuli/images/PICTURE_297.png,BODY,5ea04f7cbe679a07850012ce,5ea04f7cbe679a07850012,2020-09-12_10h22.56.003,proactive3.2,2020.1.2,Win32,60,5f5adea66120081ea0f57a61,5f5c9284f58e6648422eafaf,4,,,,,,aeroplane,,,,,,,,,,,6,2,0,49,49,51,1,,,,,,,,,,,,,,,,,,,,,,,,,,,,,,,,,,,,,,,,,,,,,,,,,,,,,,,,,,,,,,,,,,,,,,
,,?,0.001805,0,,,,,,stimuli/images/PICTURE_327.png,LEADER,5ea04f7cbe679a07850012ce,5ea04f7cbe679a07850012,2020-09-12_10h22.56.003,proactive3.2,2020.1.2,Win32,60,5f5adea66120081ea0f57a61,5f5c9284f58e6648422eafaf,4,,,,,,helmet,,,,,,,,,,,2,2,0,50,50,17,1,,,,,,,,,,,,,,,,,,,,,,,,,,,,,,,,,,,,,,,,,,,,,,,,,,,,,,,,,,,,,,,,,,,,,,
,,?,0.00208,0,,,,,,stimuli/images/PICTURE_296.png,CLOCK,5ea04f7cbe679a07850012ce,5ea04f7cbe679a07850012,2020-09-12_10h22.56.003,proactive3.2,2020.1.2,Win32,60,5f5adea66120081ea0f57a61,5f5c9284f58e6648422eafaf,4,,,,,,bolt,,,,,,,,,,,2,2,0,51,51,18,1,,,,,,,,,,,,,,,,,,,,,,,,,,,,,,,,,,,,,,,,,,,,,,,,,,,,,,,,,,,,,,,,,,,,,,
,,?,0.00168,0,,,,,,stimuli/images/PICTURE_160.png,HOTEL,5ea04f7cbe679a07850012ce,5ea04f7cbe679a07850012,2020-09-12_10h22.56.003,proactive3.2,2020.1.2,Win32,60,5f5adea66120081ea0f57a61,5f5c9284f58e6648422eafaf,4,,,,,,wheelbarrow,,,,,,,,,,,2,2,0,52,52,16,1,,,,,,,,,,,,,,,,,,,,,,,,,,,,,,,,,,,,,,,,,,,,,,,,,,,,,,,,,,,,,,,,,,,,,,
,,?,0.00171,0,,,,,,stimuli/images/PICTURE_564.png,PLENTY,5ea04f7cbe679a07850012ce,5ea04f7cbe679a07850012,2020-09-12_10h22.56.003,proactive3.2,2020.1.2,Win32,60,5f5adea66120081ea0f57a61,5f5c9284f58e6648422eafaf,4,,,,,,spoon,,,,,,,,,,,2,2,0,53,53,11,1,,,,,,,,,,,,,,,,,,,,,,,,,,,,,,,,,,,,,,,,,,,,,,,,,,,,,,,,,,,,,,,,,,,,,,
,,APPLE,15.00313,1,,,,,,stimuli/images/PICTURE_509.png,APPLE,5ea04f7cbe679a07850012ce,5ea04f7cbe679a07850012,2020-09-12_10h22.56.003,proactive3.2,2020.1.2,Win32,60,5f5adea66120081ea0f57a61,5f5c9284f58e6648422eafaf,4,,,,,,telephone,,,,,,,,,,,4,2,0,54,54,38,1,,,,,,,,,,,,,,,,,,,,,,,,,,,,,,,,,,,,,,,,,,,,,,,,,,,,,,,,,,,,,,,,,,,,,,
,,LEADER,15.012465,1,,,,,,stimuli/images/PICTURE_147.png,LEADER,5ea04f7cbe679a07850012ce,5ea04f7cbe679a07850012,2020-09-12_10h22.56.003,proactive3.2,2020.1.2,Win32,60,5f5adea66120081ea0f57a61,5f5c9284f58e6648422eafaf,4,,,,,,hanger,,,,,,,,,,,4,2,0,55,55,33,1,,,,,,,,,,,,,,,,,,,,,,,,,,,,,,,,,,,,,,,,,,,,,,,,,,,,,,,,,,,,,,,,,,,,,,
,,CLIENT,15.013505,1,,,,,,stimuli/images/PICTURE_141.png,CLIENT,5ea04f7cbe679a07850012ce,5ea04f7cbe679a07850012,2020-09-12_10h22.56.003,proactive3.2,2020.1.2,Win32,60,5f5adea66120081ea0f57a61,5f5c9284f58e6648422eafaf,4,,,,,,sunflower,,,,,,,,,,,4,2,0,56,56,30,1,,,,,,,,,,,,,,,,,,,,,,,,,,,,,,,,,,,,,,,,,,,,,,,,,,,,,,,,,,,,,,,,,,,,,,
,,?,0.001865,0,,,,,,stimuli/images/PICTURE_452.png,COPS,5ea04f7cbe679a07850012ce,5ea04f7cbe679a07850012,2020-09-12_10h22.56.003,proactive3.2,2020.1.2,Win32,60,5f5adea66120081ea0f57a61,5f5c9284f58e6648422eafaf,4,,,,,,watch,,,,,,,,,,,1,2,0,57,57,0,1,,,,,,,,,,,,,,,,,,,,,,,,,,,,,,,,,,,,,,,,,,,,,,,,,,,,,,,,,,,,,,,,,,,,,,
,,?,0.001645,0,,,,,,stimuli/images/PICTURE_654.png,COPS,5ea04f7cbe679a07850012ce,5ea04f7cbe679a07850012,2020-09-12_10h22.56.003,proactive3.2,2020.1.2,Win32,60,5f5adea66120081ea0f57a61,5f5c9284f58e6648422eafaf,4,,,,,,pencil,,,,,,,,,,,2,2,0,58,58,10,1,,,,,,,,,,,,,,,,,,,,,,,,,,,,,,,,,,,,,,,,,,,,,,,,,,,,,,,,,,,,,,,,,,,,,,
,,?,0.001715,0,,,,,,stimuli/images/PICTURE_57.png,CASINO,5ea04f7cbe679a07850012ce,5ea04f7cbe679a07850012,2020-09-12_10h22.56.003,proactive3.2,2020.1.2,Win32,60,5f5adea66120081ea0f57a61,5f5c9284f58e6648422eafaf,4,,,,,,stamp,,,,,,,,,,,2,2,0,59,59,12,1,,,,,,,,,,,,,,,,,,,,,,,,,,,,,,,,,,,,,,,,,,,,,,,,,,,,,,,,,,,,,,,,,,,,,,
,,,,,,,,,,,,5ea04f7cbe679a07850012ce,5ea04f7cbe679a07850012,2020-09-12_10h22.56.003,proactive3.2,2020.1.2,Win32,60,5f5adea66120081ea0f57a61,5f5c9284f58e6648422eafaf,4,,,,,,,,,,,,,,,,,,,,,,,,0,1,1,2,1,stimuli/learn-block3.csv,,,,,,,,,,,,,,,,,,,,,,,,,,,,,,,,,,,,,,,,,,,,,,,,,,,,,,,,,,,,,,,,
,,,,,,,,,,stimuli/images/PICTURE_654.png,VALLEY,5ea04f7cbe679a07850012ce,5ea04f7cbe679a07850012,2020-09-12_10h22.56.003,proactive3.2,2020.1.2,Win32,60,5f5adea66120081ea0f57a61,5f5c9284f58e6648422eafaf,4,,,,,,pencil,,,,,,0,0,0,1,1,1,0,,,,,,,,,,,,,,,,,,,,,,,,,,,,,,,,,,,,,,,,,,,,,,,,,,,,,,,,,,,,,,,,,,,,,,,,,,,
,,,,,,,,,,stimuli/images/PICTURE_208.png,LOTS,5ea04f7cbe679a07850012ce,5ea04f7cbe679a07850012,2020-09-12_10h22.56.003,proactive3.2,2020.1.2,Win32,60,5f5adea66120081ea0f57a61,5f5c9284f58e6648422eafaf,4,,,,,,microphone,,,,,,0,1,1,10,1,2,0,,,,,,,,,,,,,,,,,,,,,,,,,,,,,,,,,,,,,,,,,,,,,,,,,,,,,,,,,,,,,,,,,,,,,,,,,,,
,,,,,,,,,,stimuli/images/PICTURE_311.png,FRIEND,5ea04f7cbe679a07850012ce,5ea04f7cbe679a07850012,2020-09-12_10h22.56.003,proactive3.2,2020.1.2,Win32,60,5f5adea66120081ea0f57a61,5f5c9284f58e6648422eafaf,4,,,,,,razor,,,,,,0,2,2,34,1,4,0,,,,,,,,,,,,,,,,,,,,,,,,,,,,,,,,,,,,,,,,,,,,,,,,,,,,,,,,,,,,,,,,,,,,,,,,,,,
,,,,,,,,,,stimuli/images/PICTURE_123.png,ADVICE,5ea04f7cbe679a07850012ce,5ea04f7cbe679a07850012,2020-09-12_10h22.56.003,proactive3.2,2020.1.2,Win32,60,5f5adea66120081ea0f57a61,5f5c9284f58e6648422eafaf,4,,,,,,dart,,,,,,0,3,3,40,1,5,0,,,,,,,,,,,,,,,,,,,,,,,,,,,,,,,,,,,,,,,,,,,,,,,,,,,,,,,,,,,,,,,,,,,,,,,,,,,
,,,,,,,,,,stimuli/images/PICTURE_487.png,FLIGHT,5ea04f7cbe679a07850012ce,5ea04f7cbe679a07850012,2020-09-12_10h22.56.003,proactive3.2,2020.1.2,Win32,60,5f5adea66120081ea0f57a61,5f5c9284f58e6648422eafaf,4,,,,,,basket,,,,,,0,4,4,9,1,1,0,,,,,,,,,,,,,,,,,,,,,,,,,,,,,,,,,,,,,,,,,,,,,,,,,,,,,,,,,,,,,,,,,,,,,,,,,,,
,,,,,,,,,,stimuli/images/PICTURE_151.png,GIRL,5ea04f7cbe679a07850012ce,5ea04f7cbe679a07850012,2020-09-12_10h22.56.003,proactive3.2,2020.1.2,Win32,60,5f5adea66120081ea0f57a61,5f5c9284f58e6648422eafaf,4,,,,,,tray,,,,,,0,5,5,19,1,2,0,,,,,,,,,,,,,,,,,,,,,,,,,,,,,,,,,,,,,,,,,,,,,,,,,,,,,,,,,,,,,,,,,,,,,,,,,,,
,,,,,,,,,,stimuli/images/PICTURE_233.png,WOMEN,5ea04f7cbe679a07850012ce,5ea04f7cbe679a07850012,2020-09-12_10h22.56.003,proactive3.2,2020.1.2,Win32,60,5f5adea66120081ea0f57a61,5f5c9284f58e6648422eafaf,4,,,,,,salt,,,,,,0,6,6,38,1,4,0,,,,,,,,,,,,,,,,,,,,,,,,,,,,,,,,,,,,,,,,,,,,,,,,,,,,,,,,,,,,,,,,,,,,,,,,,,,
,,,,,,,,,,stimuli/images/PICTURE_488.png,STYLE,5ea04f7cbe679a07850012ce,5ea04f7cbe679a07850012,2020-09-12_10h22.56.003,proactive3.2,2020.1.2,Win32,60,5f5adea66120081ea0f57a61,5f5c9284f58e6648422eafaf,4,,,,,,sun,,,,,,0,7,7,33,1,4,0,,,,,,,,,,,,,,,,,,,,,,,,,,,,,,,,,,,,,,,,,,,,,,,,,,,,,,,,,,,,,,,,,,,,,,,,,,,
,,,,,,,,,,stimuli/images/PICTURE_380.png,PHOTO,5ea04f7cbe679a07850012ce,5ea04f7cbe679a07850012,2020-09-12_10h22.56.003,proactive3.2,2020.1.2,Win32,60,5f5adea66120081ea0f57a61,5f5c9284f58e6648422eafaf,4,,,,,,gorilla,,,,,,0,8,8,52,1,6,0,,,,,,,,,,,,,,,,,,,,,,,,,,,,,,,,,,,,,,,,,,,,,,,,,,,,,,,,,,,,,,,,,,,,,,,,,,,
,,,,,,,,,,stimuli/images/PICTURE_453.png,DUDE,5ea04f7cbe679a07850012ce,5ea04f7cbe679a07850012,2020-09-12_10h22.56.003,proactive3.2,2020.1.2,Win32,60,5f5adea66120081ea0f57a61,5f5c9284f58e6648422eafaf,4,,,,,,scissors,,,,,,0,9,9,27,1,3,0,,,,,,,,,,,,,,,,,,,,,,,,,,,,,,,,,,,,,,,,,,,,,,,,,,,,,,,,,,,,,,,,,,,,,,,,,,,
,,,,,,,,,,stimuli/images/PICTURE_677.png,MILE,5ea04f7cbe679a07850012ce,5ea04f7cbe679a07850012,2020-09-12_10h22.56.003,proactive3.2,2020.1.2,Win32,60,5f5adea66120081ea0f57a61,5f5c9284f58e6648422eafaf,4,,,,,,map,,,,,,0,10,10,30,1,4,0,,,,,,,,,,,,,,,,,,,,,,,,,,,,,,,,,,,,,,,,,,,,,,,,,,,,,,,,,,,,,,,,,,,,,,,,,,,
,,,,,,,,,,stimuli/images/PICTURE_147.png,MOMENT,5ea04f7cbe679a07850012ce,5ea04f7cbe679a07850012,2020-09-12_10h22.56.003,proactive3.2,2020.1.2,Win32,60,5f5adea66120081ea0f57a61,5f5c9284f58e6648422eafaf,4,,,,,,hanger,,,,,,0,11,11,51,1,6,0,,,,,,,,,,,,,,,,,,,,,,,,,,,,,,,,,,,,,,,,,,,,,,,,,,,,,,,,,,,,,,,,,,,,,,,,,,,
,,,,,,,,,,stimuli/images/PICTURE_160.png,FEET,5ea04f7cbe679a07850012ce,5ea04f7cbe679a07850012,2020-09-12_10h22.56.003,proactive3.2,2020.1.2,Win32,60,5f5adea66120081ea0f57a61,5f5c9284f58e6648422eafaf,4,,,,,,wheelbarrow,,,,,,0,12,12,58,1,6,0,,,,,,,,,,,,,,,,,,,,,,,,,,,,,,,,,,,,,,,,,,,,,,,,,,,,,,,,,,,,,,,,,,,,,,,,,,,
,,,,,,,,,,stimuli/images/PICTURE_491.png,ROOF,5ea04f7cbe679a07850012ce,5ea04f7cbe679a07850012,2020-09-12_10h22.56.003,proactive3.2,2020.1.2,Win32,60,5f5adea66120081ea0f57a61,5f5c9284f58e6648422eafaf,4,,,,,,rug,,,,,,0,13,13,24,1,3,0,,,,,,,,,,,,,,,,,,,,,,,,,,,,,,,,,,,,,,,,,,,,,,,,,,,,,,,,,,,,,,,,,,,,,,,,,,,
,,,,,,,,,,stimuli/images/PICTURE_314.png,GODS,5ea04f7cbe679a07850012ce,5ea04f7cbe679a07850012,2020-09-12_10h22.56.003,proactive3.2,2020.1.2,Win32,60,5f5adea66120081ea0f57a61,5f5c9284f58e6648422eafaf,4,,,,,,perfume,,,,,,0,14,14,11,1,2,0,,,,,,,,,,,,,,,,,,,,,,,,,,,,,,,,,,,,,,,,,,,,,,,,,,,,,,,,,,,,,,,,,,,,,,,,,,,
,,,,,,,,,,stimuli/images/PICTURE_308.png,ESTATE,5ea04f7cbe679a07850012ce,5ea04f7cbe679a07850012,2020-09-12_10h22.56.003,proactive3.2,2020.1.2,Win32,60,5f5adea66120081ea0f57a61,5f5c9284f58e6648422eafaf,4,,,,,,dice,,,,,,0,15,15,46,1,5,0,,,,,,,,,,,,,,,,,,,,,,,,,,,,,,,,,,,,,,,,,,,,,,,,,,,,,,,,,,,,,,,,,,,,,,,,,,,
,,,,,,,,,,stimuli/images/PICTURE_509.png,PHOTO,5ea04f7cbe679a07850012ce,5ea04f7cbe679a07850012,2020-09-12_10h22.56.003,proactive3.2,2020.1.2,Win32,60,5f5adea66120081ea0f57a61,5f5c9284f58e6648422eafaf,4,,,,,,telephone,,,,,,0,16,16,21,1,3,0,,,,,,,,,,,,,,,,,,,,,,,,,,,,,,,,,,,,,,,,,,,,,,,,,,,,,,,,,,,,,,,,,,,,,,,,,,,
,,,,,,,,,,stimuli/images/PICTURE_692.png,MONTH,5ea04f7cbe679a07850012ce,5ea04f7cbe679a07850012,2020-09-12_10h22.56.003,proactive3.2,2020.1.2,Win32,60,5f5adea66120081ea0f57a61,5f5c9284f58e6648422eafaf,4,,,,,,cherry,,,,,,0,17,17,16,1,2,0,,,,,,,,,,,,,,,,,,,,,,,,,,,,,,,,,,,,,,,,,,,,,,,,,,,,,,,,,,,,,,,,,,,,,,,,,,,
,,,,,,,,,,stimuli/images/PICTURE_314.png,SAKE,5ea04f7cbe679a07850012ce,5ea04f7cbe679a07850012,2020-09-12_10h22.56.003,proactive3.2,2020.1.2,Win32,60,5f5adea66120081ea0f57a61,5f5c9284f58e6648422eafaf,4,,,,,,perfume,,,,,,0,18,18,7,1,1,0,,,,,,,,,,,,,,,,,,,,,,,,,,,,,,,,,,,,,,,,,,,,,,,,,,,,,,,,,,,,,,,,,,,,,,,,,,,
,,,,,,,,,,stimuli/images/PICTURE_688.png,CASINO,5ea04f7cbe679a07850012ce,5ea04f7cbe679a07850012,2020-09-12_10h22.56.003,proactive3.2,2020.1.2,Win32,60,5f5adea66120081ea0f57a61,5f5c9284f58e6648422eafaf,4,,,,,,runner,,,,,,0,19,19,2,1,1,0,,,,,,,,,,,,,,,,,,,,,,,,,,,,,,,,,,,,,,,,,,,,,,,,,,,,,,,,,,,,,,,,,,,,,,,,,,,
,,,,,,,,,,stimuli/images/PICTURE_208.png,MONTH,5ea04f7cbe679a07850012ce,5ea04f7cbe679a07850012,2020-09-12_10h22.56.003,proactive3.2,2020.1.2,Win32,60,5f5adea66120081ea0f57a61,5f5c9284f58e6648422eafaf,4,,,,,,microphone,,,,,,0,20,20,53,1,6,0,,,,,,,,,,,,,,,,,,,,,,,,,,,,,,,,,,,,,,,,,,,,,,,,,,,,,,,,,,,,,,,,,,,,,,,,,,,
,,,,,,,,,,stimuli/images/PICTURE_667.png,PLENTY,5ea04f7cbe679a07850012ce,5ea04f7cbe679a07850012,2020-09-12_10h22.56.003,proactive3.2,2020.1.2,Win32,60,5f5adea66120081ea0f57a61,5f5c9284f58e6648422eafaf,4,,,,,,daisy,,,,,,0,21,21,41,1,5,0,,,,,,,,,,,,,,,,,,,,,,,,,,,,,,,,,,,,,,,,,,,,,,,,,,,,,,,,,,,,,,,,,,,,,,,,,,,
,,,,,,,,,,stimuli/images/PICTURE_348.png,SPEECH,5ea04f7cbe679a07850012ce,5ea04f7cbe679a07850012,2020-09-12_10h22.56.003,proactive3.2,2020.1.2,Win32,60,5f5adea66120081ea0f57a61,5f5c9284f58e6648422eafaf,4,,,,,,pepper,,,,,,0,22,22,20,1,3,0,,,,,,,,,,,,,,,,,,,,,,,,,,,,,,,,,,,,,,,,,,,,,,,,,,,,,,,,,,,,,,,,,,,,,,,,,,,
,,,,,,,,,,stimuli/images/PICTURE_302.png,FAMILY,5ea04f7cbe679a07850012ce,5ea04f7cbe679a07850012,2020-09-12_10h22.56.003,proactive3.2,2020.1.2,Win32,60,5f5adea66120081ea0f57a61,5f5c9284f58e6648422eafaf,4,,,,,,taxi,,,,,,0,23,23,18,1,2,0,,,,,,,,,,,,,,,,,,,,,,,,,,,,,,,,,,,,,,,,,,,,,,,,,,,,,,,,,,,,,,,,,,,,,,,,,,,
,,,,,,,,,,stimuli/images/PICTURE_123.png,ADVICE,5ea04f7cbe679a07850012ce,5ea04f7cbe679a07850012,2020-09-12_10h22.56.003,proactive3.2,2020.1.2,Win32,60,5f5adea66120081ea0f57a61,5f5c9284f58e6648422eafaf,4,,,,,,dart,,,,,,0,24,24,50,1,6,0,,,,,,,,,,,,,,,,,,,,,,,,,,,,,,,,,,,,,,,,,,,,,,,,,,,,,,,,,,,,,,,,,,,,,,,,,,,
,,,,,,,,,,stimuli/images/PICTURE_285.png,ADVICE,5ea04f7cbe679a07850012ce,5ea04f7cbe679a07850012,2020-09-12_10h22.56.003,proactive3.2,2020.1.2,Win32,60,5f5adea66120081ea0f57a61,5f5c9284f58e6648422eafaf,4,,,,,,carrot,,,,,,0,25,25,12,1,2,0,,,,,,,,,,,,,,,,,,,,,,,,,,,,,,,,,,,,,,,,,,,,,,,,,,,,,,,,,,,,,,,,,,,,,,,,,,,
,,,,,,,,,,stimuli/images/PICTURE_208.png,THING,5ea04f7cbe679a07850012ce,5ea04f7cbe679a07850012,2020-09-12_10h22.56.003,proactive3.2,2020.1.2,Win32,60,5f5adea66120081ea0f57a61,5f5c9284f58e6648422eafaf,4,,,,,,microphone,,,,,,0,26,26,47,1,5,0,,,,,,,,,,,,,,,,,,,,,,,,,,,,,,,,,,,,,,,,,,,,,,,,,,,,,,,,,,,,,,,,,,,,,,,,,,,
,,,,,,,,,,stimuli/images/PICTURE_470.png,CASINO,5ea04f7cbe679a07850012ce,5ea04f7cbe679a07850012,2020-09-12_10h22.56.003,proactive3.2,2020.1.2,Win32,60,5f5adea66120081ea0f57a61,5f5c9284f58e6648422eafaf,4,,,,,,motorbike,,,,,,0,27,27,36,1,4,0,,,,,,,,,,,,,,,,,,,,,,,,,,,,,,,,,,,,,,,,,,,,,,,,,,,,,,,,,,,,,,,,,,,,,,,,,,,
,,,,,,,,,,stimuli/images/PICTURE_339.png,PLENTY,5ea04f7cbe679a07850012ce,5ea04f7cbe679a07850012,2020-09-12_10h22.56.003,proactive3.2,2020.1.2,Win32,60,5f5adea66120081ea0f57a61,5f5c9284f58e6648422eafaf,4,,,,,,backpack,,,,,,0,28,28,0,1,1,0,,,,,,,,,,,,,,,,,,,,,,,,,,,,,,,,,,,,,,,,,,,,,,,,,,,,,,,,,,,,,,,,,,,,,,,,,,,
,,,,,,,,,,stimuli/images/PICTURE_469.png,ARTIST,5ea04f7cbe679a07850012ce,5ea04f7cbe679a07850012,2020-09-12_10h22.56.003,proactive3.2,2020.1.2,Win32,60,5f5adea66120081ea0f57a61,5f5c9284f58e6648422eafaf,4,,,,,,stool,,,,,,0,29,29,6,1,1,0,,,,,,,,,,,,,,,,,,,,,,,,,,,,,,,,,,,,,,,,,,,,,,,,,,,,,,,,,,,,,,,,,,,,,,,,,,,
,,,,,,,,,,stimuli/images/PICTURE_177.png,CARS,5ea04f7cbe679a07850012ce,5ea04f7cbe679a07850012,2020-09-12_10h22.56.003,proactive3.2,2020.1.2,Win32,60,5f5adea66120081ea0f57a61,5f5c9284f58e6648422eafaf,4,,,,,,mushroom,,,,,,0,30,30,35,1,4,0,,,,,,,,,,,,,,,,,,,,,,,,,,,,,,,,,,,,,,,,,,,,,,,,,,,,,,,,,,,,,,,,,,,,,,,,,,,
,,,,,,,,,,stimuli/images/PICTURE_744.png,SYSTEM,5ea04f7cbe679a07850012ce,5ea04f7cbe679a07850012,2020-09-12_10h22.56.003,proactive3.2,2020.1.2,Win32,60,5f5adea66120081ea0f57a61,5f5c9284f58e6648422eafaf,4,,,,,,ring,,,,,,0,31,31,43,1,5,0,,,,,,,,,,,,,,,,,,,,,,,,,,,,,,,,,,,,,,,,,,,,,,,,,,,,,,,,,,,,,,,,,,,,,,,,,,,
,,,,,,,,,,stimuli/images/PICTURE_160.png,LEADER,5ea04f7cbe679a07850012ce,5ea04f7cbe679a07850012,2020-09-12_10h22.56.003,proactive3.2,2020.1.2,Win32,60,5f5adea66120081ea0f57a61,5f5c9284f58e6648422eafaf,4,,,,,,wheelbarrow,,,,,,0,32,32,3,1,1,0,,,,,,,,,,,,,,,,,,,,,,,,,,,,,,,,,,,,,,,,,,,,,,,,,,,,,,,,,,,,,,,,,,,,,,,,,,,
,,,,,,,,,,stimuli/images/PICTURE_255.png,AREA,5ea04f7cbe679a07850012ce,5ea04f7cbe679a07850012,2020-09-12_10h22.56.003,proactive3.2,2020.1.2,Win32,60,5f5adea66120081ea0f57a61,5f5c9284f58e6648422eafaf,4,,,,,,shovel,,,,,,0,33,33,22,1,3,0,,,,,,,,,,,,,,,,,,,,,,,,,,,,,,,,,,,,,,,,,,,,,,,,,,,,,,,,,,,,,,,,,,,,,,,,,,,
,,,,,,,,,,stimuli/images/PICTURE_667.png,BATH,5ea04f7cbe679a07850012ce,5ea04f7cbe679a07850012,2020-09-12_10h22.56.003,proactive3.2,2020.1.2,Win32,60,5f5adea66120081ea0f57a61,5f5c9284f58e6648422eafaf,4,,,,,,daisy,,,,,,0,34,34,4,1,1,0,,,,,,,,,,,,,,,,,,,,,,,,,,,,,,,,,,,,,,,,,,,,,,,,,,,,,,,,,,,,,,,,,,,,,,,,,,,
,,,,,,,,,,stimuli/images/PICTURE_453.png,PLENTY,5ea04f7cbe679a07850012ce,5ea04f7cbe679a07850012,2020-09-12_10h22.56.003,proactive3.2,2020.1.2,Win32,60,5f5adea66120081ea0f57a61,5f5c9284f58e6648422eafaf,4,,,,,,scissors,,,,,,0,35,35,56,1,6,0,,,,,,,,,,,,,,,,,,,,,,,,,,,,,,,,,,,,,,,,,,,,,,,,,,,,,,,,,,,,,,,,,,,,,,,,,,,
,,,,,,,,,,stimuli/images/PICTURE_708.png,CLIENT,5ea04f7cbe679a07850012ce,5ea04f7cbe679a07850012,2020-09-12_10h22.56.003,proactive3.2,2020.1.2,Win32,60,5f5adea66120081ea0f57a61,5f5c9284f58e6648422eafaf,4,,,,,,monkey,,,,,,0,36,36,5,1,1,0,,,,,,,,,,,,,,,,,,,,,,,,,,,,,,,,,,,,,,,,,,,,,,,,,,,,,,,,,,,,,,,,,,,,,,,,,,,
,,,,,,,,,,stimuli/images/PICTURE_380.png,DEATH,5ea04f7cbe679a07850012ce,5ea04f7cbe679a07850012,2020-09-12_10h22.56.003,proactive3.2,2020.1.2,Win32,60,5f5adea66120081ea0f57a61,5f5c9284f58e6648422eafaf,4,,,,,,gorilla,,,,,,0,37,37,49,1,5,0,,,,,,,,,,,,,,,,,,,,,,,,,,,,,,,,,,,,,,,,,,,,,,,,,,,,,,,,,,,,,,,,,,,,,,,,,,,
,,,,,,,,,,stimuli/images/PICTURE_491.png,WRITER,5ea04f7cbe679a07850012ce,5ea04f7cbe679a07850012,2020-09-12_10h22.56.003,proactive3.2,2020.1.2,Win32,60,5f5adea66120081ea0f57a61,5f5c9284f58e6648422eafaf,4,,,,,,rug,,,,,,0,38,38,57,1,6,0,,,,,,,,,,,,,,,,,,,,,,,,,,,,,,,,,,,,,,,,,,,,,,,,,,,,,,,,,,,,,,,,,,,,,,,,,,,
,,,,,,,,,,stimuli/images/PICTURE_68.png,MILE,5ea04f7cbe679a07850012ce,5ea04f7cbe679a07850012,2020-09-12_10h22.56.003,proactive3.2,2020.1.2,Win32,60,5f5adea66120081ea0f57a61,5f5c9284f58e6648422eafaf,4,,,,,,candle,,,,,,0,39,39,44,1,5,0,,,,,,,,,,,,,,,,,,,,,,,,,,,,,,,,,,,,,,,,,,,,,,,,,,,,,,,,,,,,,,,,,,,,,,,,,,,
,,,,,,,,,,stimuli/images/PICTURE_311.png,BEAUTY,5ea04f7cbe679a07850012ce,5ea04f7cbe679a07850012,2020-09-12_10h22.56.003,proactive3.2,2020.1.2,Win32,60,5f5adea66120081ea0f57a61,5f5c9284f58e6648422eafaf,4,,,,,,razor,,,,,,0,40,40,13,1,2,0,,,,,,,,,,,,,,,,,,,,,,,,,,,,,,,,,,,,,,,,,,,,,,,,,,,,,,,,,,,,,,,,,,,,,,,,,,,
,,,,,,,,,,stimuli/images/PICTURE_85.png,THING,5ea04f7cbe679a07850012ce,5ea04f7cbe679a07850012,2020-09-12_10h22.56.003,proactive3.2,2020.1.2,Win32,60,5f5adea66120081ea0f57a61,5f5c9284f58e6648422eafaf,4,,,,,,diamond,,,,,,0,41,41,15,1,2,0,,,,,,,,,,,,,,,,,,,,,,,,,,,,,,,,,,,,,,,,,,,,,,,,,,,,,,,,,,,,,,,,,,,,,,,,,,,
,,,,,,,,,,stimuli/images/PICTURE_215.png,PLENTY,5ea04f7cbe679a07850012ce,5ea04f7cbe679a07850012,2020-09-12_10h22.56.003,proactive3.2,2020.1.2,Win32,60,5f5adea66120081ea0f57a61,5f5c9284f58e6648422eafaf,4,,,,,,boot,,,,,,0,42,42,37,1,4,0,,,,,,,,,,,,,,,,,,,,,,,,,,,,,,,,,,,,,,,,,,,,,,,,,,,,,,,,,,,,,,,,,,,,,,,,,,,
,,,,,,,,,,stimuli/images/PICTURE_327.png,BEAUTY,5ea04f7cbe679a07850012ce,5ea04f7cbe679a07850012,2020-09-12_10h22.56.003,proactive3.2,2020.1.2,Win32,60,5f5adea66120081ea0f57a61,5f5c9284f58e6648422eafaf,4,,,,,,helmet,,,,,,0,43,43,48,1,5,0,,,,,,,,,,,,,,,,,,,,,,,,,,,,,,,,,,,,,,,,,,,,,,,,,,,,,,,,,,,,,,,,,,,,,,,,,,,
,,,,,,,,,,stimuli/images/PICTURE_708.png,YARD,5ea04f7cbe679a07850012ce,5ea04f7cbe679a07850012,2020-09-12_10h22.56.003,proactive3.2,2020.1.2,Win32,60,5f5adea66120081ea0f57a61,5f5c9284f58e6648422eafaf,4,,,,,,monkey,,,,,,0,44,44,29,1,3,0,,,,,,,,,,,,,,,,,,,,,,,,,,,,,,,,,,,,,,,,,,,,,,,,,,,,,,,,,,,,,,,,,,,,,,,,,,,
,,,,,,,,,,stimuli/images/PICTURE_675.png,WEAPON,5ea04f7cbe679a07850012ce,5ea04f7cbe679a07850012,2020-09-12_10h22.56.003,proactive3.2,2020.1.2,Win32,60,5f5adea66120081ea0f57a61,5f5c9284f58e6648422eafaf,4,,,,,,windmill,,,,,,0,45,45,32,1,4,0,,,,,,,,,,,,,,,,,,,,,,,,,,,,,,,,,,,,,,,,,,,,,,,,,,,,,,,,,,,,,,,,,,,,,,,,,,,
,,,,,,,,,,stimuli/images/PICTURE_32.png,JUNGLE,5ea04f7cbe679a07850012ce,5ea04f7cbe679a07850012,2020-09-12_10h22.56.003,proactive3.2,2020.1.2,Win32,60,5f5adea66120081ea0f57a61,5f5c9284f58e6648422eafaf,4,,,,,,crown,,,,,,0,46,46,45,1,5,0,,,,,,,,,,,,,,,,,,,,,,,,,,,,,,,,,,,,,,,,,,,,,,,,,,,,,,,,,,,,,,,,,,,,,,,,,,,
,,,,,,,,,,stimuli/images/PICTURE_467.png,DEMON,5ea04f7cbe679a07850012ce,5ea04f7cbe679a07850012,2020-09-12_10h22.56.003,proactive3.2,2020.1.2,Win32,60,5f5adea66120081ea0f57a61,5f5c9284f58e6648422eafaf,4,,,,,,peg,,,,,,0,47,47,23,1,3,0,,,,,,,,,,,,,,,,,,,,,,,,,,,,,,,,,,,,,,,,,,,,,,,,,,,,,,,,,,,,,,,,,,,,,,,,,,,
,,,,,,,,,,stimuli/images/PICTURE_233.png,IDEAS,5ea04f7cbe679a07850012ce,5ea04f7cbe679a07850012,2020-09-12_10h22.56.003,proactive3.2,2020.1.2,Win32,60,5f5adea66120081ea0f57a61,5f5c9284f58e6648422eafaf,4,,,,,,salt,,,,,,0,48,48,28,1,3,0,,,,,,,,,,,,,,,,,,,,,,,,,,,,,,,,,,,,,,,,,,,,,,,,,,,,,,,,,,,,,,,,,,,,,,,,,,,
,,,,,,,,,,stimuli/images/PICTURE_744.png,SAKE,5ea04f7cbe679a07850012ce,5ea04f7cbe679a07850012,2020-09-12_10h22.56.003,proactive3.2,2020.1.2,Win32,60,5f5adea66120081ea0f57a61,5f5c9284f58e6648422eafaf,4,,,,,,ring,,,,,,0,49,49,17,1,2,0,,,,,,,,,,,,,,,,,,,,,,,,,,,,,,,,,,,,,,,,,,,,,,,,,,,,,,,,,,,,,,,,,,,,,,,,,,,
,,,,,,,,,,stimuli/images/PICTURE_308.png,KIND,5ea04f7cbe679a07850012ce,5ea04f7cbe679a07850012,2020-09-12_10h22.56.003,proactive3.2,2020.1.2,Win32,60,5f5adea66120081ea0f57a61,5f5c9284f58e6648422eafaf,4,,,,,,dice,,,,,,0,50,50,54,1,6,0,,,,,,,,,,,,,,,,,,,,,,,,,,,,,,,,,,,,,,,,,,,,,,,,,,,,,,,,,,,,,,,,,,,,,,,,,,,
,,,,,,,,,,stimuli/images/PICTURE_356.png,DANGER,5ea04f7cbe679a07850012ce,5ea04f7cbe679a07850012,2020-09-12_10h22.56.003,proactive3.2,2020.1.2,Win32,60,5f5adea66120081ea0f57a61,5f5c9284f58e6648422eafaf,4,,,,,,pawn,,,,,,0,51,51,55,1,6,0,,,,,,,,,,,,,,,,,,,,,,,,,,,,,,,,,,,,,,,,,,,,,,,,,,,,,,,,,,,,,,,,,,,,,,,,,,,
,,,,,,,,,,stimuli/images/PICTURE_688.png,WOMEN,5ea04f7cbe679a07850012ce,5ea04f7cbe679a07850012,2020-09-12_10h22.56.003,proactive3.2,2020.1.2,Win32,60,5f5adea66120081ea0f57a61,5f5c9284f58e6648422eafaf,4,,,,,,runner,,,,,,0,52,52,14,1,2,0,,,,,,,,,,,,,,,,,,,,,,,,,,,,,,,,,,,,,,,,,,,,,,,,,,,,,,,,,,,,,,,,,,,,,,,,,,,
,,,,,,,,,,stimuli/images/PICTURE_504.png,BODY,5ea04f7cbe679a07850012ce,5ea04f7cbe679a07850012,2020-09-12_10h22.56.003,proactive3.2,2020.1.2,Win32,60,5f5adea66120081ea0f57a61,5f5c9284f58e6648422eafaf,4,,,,,,wheel,,,,,,0,53,53,8,1,1,0,,,,,,,,,,,,,,,,,,,,,,,,,,,,,,,,,,,,,,,,,,,,,,,,,,,,,,,,,,,,,,,,,,,,,,,,,,,
,,,,,,,,,,stimuli/images/PICTURE_708.png,PENNY,5ea04f7cbe679a07850012ce,5ea04f7cbe679a07850012,2020-09-12_10h22.56.003,proactive3.2,2020.1.2,Win32,60,5f5adea66120081ea0f57a61,5f5c9284f58e6648422eafaf,4,,,,,,monkey,,,,,,0,54,54,31,1,4,0,,,,,,,,,,,,,,,,,,,,,,,,,,,,,,,,,,,,,,,,,,,,,,,,,,,,,,,,,,,,,,,,,,,,,,,,,,,
,,,,,,,,,,stimuli/images/PICTURE_449.png,THING,5ea04f7cbe679a07850012ce,5ea04f7cbe679a07850012,2020-09-12_10h22.56.003,proactive3.2,2020.1.2,Win32,60,5f5adea66120081ea0f57a61,5f5c9284f58e6648422eafaf,4,,,,,,bench,,,,,,0,55,55,59,1,6,0,,,,,,,,,,,,,,,,,,,,,,,,,,,,,,,,,,,,,,,,,,,,,,,,,,,,,,,,,,,,,,,,,,,,,,,,,,,
,,,,,,,,,,stimuli/images/PICTURE_248.png,DOZEN,5ea04f7cbe679a07850012ce,5ea04f7cbe679a07850012,2020-09-12_10h22.56.003,proactive3.2,2020.1.2,Win32,60,5f5adea66120081ea0f57a61,5f5c9284f58e6648422eafaf,4,,,,,,cart,,,,,,0,56,56,39,1,4,0,,,,,,,,,,,,,,,,,,,,,,,,,,,,,,,,,,,,,,,,,,,,,,,,,,,,,,,,,,,,,,,,,,,,,,,,,,,
,,,,,,,,,,stimuli/images/PICTURE_203.png,ARTIST,5ea04f7cbe679a07850012ce,5ea04f7cbe679a07850012,2020-09-12_10h22.56.003,proactive3.2,2020.1.2,Win32,60,5f5adea66120081ea0f57a61,5f5c9284f58e6648422eafaf,4,,,,,,cap,,,,,,0,57,57,26,1,3,0,,,,,,,,,,,,,,,,,,,,,,,,,,,,,,,,,,,,,,,,,,,,,,,,,,,,,,,,,,,,,,,,,,,,,,,,,,,
,,,,,,,,,,stimuli/images/PICTURE_95.png,STYLE,5ea04f7cbe679a07850012ce,5ea04f7cbe679a07850012,2020-09-12_10h22.56.003,proactive3.2,2020.1.2,Win32,60,5f5adea66120081ea0f57a61,5f5c9284f58e6648422eafaf,4,,,,,,suitcase,,,,,,0,58,58,25,1,3,0,,,,,,,,,,,,,,,,,,,,,,,,,,,,,,,,,,,,,,,,,,,,,,,,,,,,,,,,,,,,,,,,,,,,,,,,,,,
,,?,0.001765,0,,,,,,stimuli/images/PICTURE_708.png,CLIENT,5ea04f7cbe679a07850012ce,5ea04f7cbe679a07850012,2020-09-12_10h22.56.003,proactive3.2,2020.1.2,Win32,60,5f5adea66120081ea0f57a61,5f5c9284f58e6648422eafaf,4,,,,,,monkey,,,,,,,,,,,1,0,0,0,0,5,1,,,,,,,,,,,,,,,,,,,,,,,,,,,,,,,,,,,,,,,,,,,,,,,,,,,,,,,,,,,,,,,,,,,,,,
,,?,0.001735,0,,,,,,stimuli/images/PICTURE_708.png,YARD,5ea04f7cbe679a07850012ce,5ea04f7cbe679a07850012,2020-09-12_10h22.56.003,proactive3.2,2020.1.2,Win32,60,5f5adea66120081ea0f57a61,5f5c9284f58e6648422eafaf,4,,,,,,monkey,,,,,,,,,,,3,0,0,1,1,29,1,,,,,,,,,,,,,,,,,,,,,,,,,,,,,,,,,,,,,,,,,,,,,,,,,,,,,,,,,,,,,,,,,,,,,,
